
time,gFx,gFy,gFz,ax,ay,az,
0.005,-0.01,0.09,1.01,-0.22,-0.14,0.15,
0.005,-0.01,0.09,1.01,-0.14,-0.14,0.11,
0.005,-0.01,0.09,1.01,-0.14,-0.14,0.11,
0.006,-0.01,0.09,1.01,-0.08,-0.12,0.15,
0.006,-0.00,0.10,1.01,-0.08,-0.12,0.15,
0.006,-0.00,0.10,1.01,-0.08,-0.12,0.15,
0.006,0.00,0.10,1.01,-0.08,-0.12,0.15,
0.006,0.00,0.10,1.01,-0.04,-0.06,0.13,
0.009,-0.00,0.10,1.02,-0.04,-0.06,0.13,
0.011,0.01,0.10,1.01,-0.04,-0.06,0.13,
0.011,0.01,0.10,1.01,0.03,-0.05,0.17,
0.014,0.01,0.11,1.01,0.03,-0.05,0.17,
0.017,0.01,0.11,1.01,0.03,-0.05,0.17,
0.017,0.01,0.11,1.01,0.05,-0.02,0.21,
0.019,0.01,0.11,1.01,0.05,-0.02,0.21,
0.022,0.01,0.10,1.00,0.05,-0.02,0.21,
0.023,0.01,0.10,1.00,0.10,0.06,0.15,
0.023,0.01,0.11,1.00,0.10,0.06,0.15,
0.027,0.01,0.11,1.00,0.08,0.02,0.12,
0.027,0.00,0.11,1.00,0.08,0.02,0.12,
0.029,-0.00,0.10,1.00,0.08,0.02,0.12,
0.032,0.00,0.10,0.99,0.08,0.02,0.12,
0.032,0.00,0.10,0.99,0.08,0.05,0.06,
0.033,-0.00,0.11,1.00,0.08,0.05,0.06,
0.037,-0.00,0.11,0.99,0.08,0.05,0.06,
0.038,-0.00,0.11,0.99,-0.00,-0.00,0.04,
0.038,-0.01,0.10,1.00,-0.00,-0.00,0.04,
0.041,-0.01,0.11,1.00,-0.00,-0.00,0.04,
0.041,-0.01,0.11,1.00,-0.01,0.04,0.01,
0.043,-0.01,0.11,1.00,-0.01,0.04,0.01,
0.046,-0.01,0.11,1.00,-0.01,0.04,0.01,
0.046,-0.01,0.11,1.00,-0.07,0.02,0.03,
0.048,-0.01,0.11,1.00,-0.07,0.02,0.03,
0.052,-0.01,0.11,1.00,-0.06,0.03,0.03,
0.053,-0.00,0.11,1.00,-0.06,0.03,0.03,
0.053,-0.00,0.11,1.00,-0.06,0.03,0.03,
0.056,-0.00,0.11,1.00,-0.06,0.03,0.03,
0.056,-0.00,0.11,1.00,-0.04,0.04,0.05,
0.058,0.00,0.11,1.01,-0.04,0.04,0.05,
0.061,0.00,0.11,1.00,-0.04,0.04,0.05,
0.061,0.00,0.11,1.00,-0.01,0.04,0.08,
0.063,0.00,0.11,1.00,-0.01,0.04,0.08,
0.066,0.00,0.11,1.00,-0.01,0.04,0.08,
0.066,0.00,0.11,1.00,0.03,0.04,0.07,
0.068,0.01,0.11,1.01,0.03,0.04,0.07,
0.072,0.01,0.10,1.01,0.03,0.04,0.07,
0.072,0.01,0.10,1.01,0.05,0.04,0.08,
0.072,0.01,0.10,1.01,0.05,0.04,0.08,
0.075,0.01,0.10,1.01,0.09,-0.01,0.13,
0.076,0.02,0.10,1.01,0.09,-0.01,0.13,
0.078,0.02,0.09,1.01,0.09,-0.01,0.13,
0.081,0.02,0.09,1.01,0.14,-0.03,0.16,
0.081,0.02,0.09,1.01,0.14,-0.03,0.16,
0.083,0.02,0.09,1.01,0.14,-0.03,0.16,
0.086,0.03,0.09,1.01,0.14,-0.03,0.16,
0.086,0.03,0.09,1.01,0.16,-0.11,0.15,
0.088,0.03,0.08,1.01,0.16,-0.11,0.15,
0.091,0.04,0.08,1.01,0.16,-0.11,0.15,
0.091,0.04,0.08,1.01,0.24,-0.13,0.16,
0.093,0.04,0.08,1.01,0.24,-0.13,0.16,
0.096,0.05,0.08,1.01,0.24,-0.13,0.16,
0.096,0.05,0.08,1.01,0.32,-0.22,0.16,
0.098,0.05,0.07,1.01,0.32,-0.22,0.16,
0.101,0.06,0.07,1.01,0.32,-0.22,0.16,
0.101,0.06,0.07,1.01,0.41,-0.23,0.15,
0.103,0.06,0.07,1.01,0.41,-0.23,0.15,
0.109,0.06,0.07,1.01,0.41,-0.23,0.15,
0.109,0.06,0.07,1.01,0.50,-0.29,0.17,
0.109,0.06,0.07,1.01,0.50,-0.29,0.17,
0.11,0.07,0.07,1.01,0.50,-0.29,0.17,
0.111,0.07,0.07,1.01,0.57,-0.29,0.18,
0.113,0.07,0.07,1.02,0.57,-0.29,0.18,
0.115,0.07,0.07,1.02,0.57,-0.29,0.18,
0.115,0.07,0.07,1.02,0.61,-0.32,0.16,
0.118,0.08,0.07,1.00,0.61,-0.32,0.16,
0.122,0.07,0.07,1.01,0.61,-0.32,0.16,
0.122,0.07,0.07,1.01,0.68,-0.29,0.20,
0.122,0.08,0.07,1.01,0.68,-0.29,0.20,
0.125,0.08,0.07,1.01,0.71,-0.33,0.11,
0.126,0.08,0.07,1.00,0.71,-0.33,0.11,
0.127,0.08,0.06,1.01,0.71,-0.33,0.11,
0.131,0.08,0.06,1.01,0.71,-0.33,0.11,
0.131,0.08,0.06,1.01,0.68,-0.34,0.09,
0.133,0.08,0.06,1.00,0.68,-0.34,0.09,
0.136,0.08,0.06,1.00,0.68,-0.34,0.09,
0.136,0.08,0.06,1.00,0.71,-0.36,0.13,
0.138,0.09,0.07,1.00,0.71,-0.36,0.13,
0.14,0.10,0.07,1.00,0.71,-0.36,0.13,
0.14,0.10,0.07,1.00,0.76,-0.37,0.07,
0.142,0.09,0.06,1.00,0.76,-0.37,0.07,
0.145,0.09,0.07,1.00,0.76,-0.37,0.07,
0.146,0.09,0.07,1.00,0.84,-0.33,0.01,
0.148,0.10,0.07,0.99,0.84,-0.33,0.01,
0.15,0.10,0.07,0.99,0.80,-0.33,0.02,
0.151,0.10,0.07,0.99,0.80,-0.33,0.02,
0.152,0.10,0.07,0.99,0.80,-0.33,0.02,
0.155,0.10,0.06,0.99,0.80,-0.33,0.02,
0.155,0.10,0.06,0.99,0.86,-0.33,-0.01,
0.157,0.10,0.06,0.99,0.86,-0.33,-0.01,
0.16,0.10,0.06,0.98,0.86,-0.33,-0.01,
0.163,0.10,0.06,0.98,0.83,-0.34,-0.05,
0.163,0.10,0.06,0.99,0.83,-0.34,-0.05,
0.164,0.10,0.06,0.99,0.83,-0.34,-0.05,
0.165,0.10,0.06,0.99,0.83,-0.35,-0.10,
0.167,0.10,0.06,0.98,0.83,-0.35,-0.10,
0.17,0.10,0.06,0.98,0.85,-0.39,-0.08,
0.17,0.10,0.06,0.98,0.85,-0.39,-0.08,
0.172,0.10,0.05,0.97,0.85,-0.39,-0.08,
0.175,0.11,0.05,0.97,0.85,-0.39,-0.08,
0.175,0.11,0.05,0.97,0.86,-0.39,-0.13,
0.177,0.11,0.06,0.98,0.86,-0.39,-0.13,
0.18,0.11,0.05,0.97,0.86,-0.39,-0.13,
0.18,0.11,0.05,0.97,0.88,-0.45,-0.21,
0.182,0.11,0.05,0.97,0.88,-0.45,-0.21,
0.184,0.12,0.04,0.97,0.88,-0.45,-0.21,
0.185,0.12,0.04,0.97,0.92,-0.43,-0.21,
0.188,0.12,0.04,0.98,0.92,-0.43,-0.21,
0.191,0.12,0.04,0.97,0.92,-0.43,-0.21,
0.192,0.12,0.04,0.97,0.96,-0.54,-0.21,
0.192,0.13,0.04,0.97,0.96,-0.54,-0.21,
0.194,0.13,0.04,0.97,0.96,-0.54,-0.21,
0.195,0.13,0.04,0.97,1.02,-0.54,-0.20,
0.197,0.13,0.04,0.96,1.02,-0.54,-0.20,
0.199,0.13,0.04,0.96,1.06,-0.56,-0.27,
0.199,0.14,0.04,0.96,1.06,-0.56,-0.27,
0.201,0.14,0.04,0.96,1.06,-0.56,-0.27,
0.204,0.14,0.04,0.95,1.06,-0.56,-0.27,
0.205,0.14,0.04,0.95,1.12,-0.56,-0.32,
0.207,0.13,0.04,0.95,1.12,-0.56,-0.32,
0.209,0.14,0.04,0.94,1.12,-0.56,-0.32,
0.21,0.14,0.04,0.94,1.16,-0.58,-0.39,
0.212,0.14,0.04,0.93,1.16,-0.58,-0.39,
0.214,0.13,0.05,0.93,1.16,-0.58,-0.39,
0.215,0.13,0.05,0.93,1.11,-0.58,-0.47,
0.217,0.14,0.05,0.92,1.11,-0.58,-0.47,
0.219,0.13,0.05,0.92,1.11,-0.58,-0.47,
0.219,0.13,0.05,0.92,1.13,-0.55,-0.59,
0.222,0.13,0.05,0.92,1.13,-0.55,-0.59,
0.224,0.13,0.05,0.92,1.11,-0.50,-0.65,
0.224,0.13,0.05,0.91,1.11,-0.50,-0.65,
0.226,0.13,0.06,0.91,1.11,-0.50,-0.65,
0.229,0.12,0.06,0.90,1.11,-0.50,-0.65,
0.23,0.12,0.06,0.90,1.08,-0.46,-0.73,
0.232,0.12,0.06,0.90,1.08,-0.46,-0.73,
0.234,0.11,0.06,0.90,1.08,-0.46,-0.73,
0.234,0.11,0.06,0.90,1.02,-0.40,-0.86,
0.237,0.11,0.06,0.89,1.02,-0.40,-0.86,
0.239,0.11,0.06,0.89,1.02,-0.40,-0.86,
0.239,0.11,0.06,0.89,0.92,-0.41,-0.88,
0.241,0.11,0.07,0.89,0.92,-0.41,-0.88,
0.244,0.11,0.07,0.89,0.83,-0.39,-0.99,
0.244,0.10,0.07,0.88,0.83,-0.39,-0.99,
0.246,0.10,0.07,0.88,0.83,-0.39,-0.99,
0.249,0.10,0.07,0.88,0.80,-0.33,-1.01,
0.25,0.10,0.07,0.87,0.80,-0.33,-1.01,
0.251,0.09,0.07,0.87,0.80,-0.33,-1.01,
0.255,0.09,0.07,0.86,0.80,-0.33,-1.01,
0.256,0.09,0.07,0.86,0.73,-0.34,-1.13,
0.256,0.08,0.07,0.86,0.73,-0.34,-1.13,
0.259,0.08,0.07,0.86,0.73,-0.34,-1.13,
0.259,0.08,0.07,0.86,0.65,-0.31,-1.19,
0.261,0.07,0.07,0.87,0.65,-0.31,-1.19,
0.264,0.08,0.07,0.87,0.65,-0.31,-1.19,
0.264,0.08,0.07,0.87,0.55,-0.34,-1.22,
0.266,0.08,0.07,0.87,0.55,-0.34,-1.22,
0.269,0.07,0.07,0.87,0.55,-0.34,-1.22,
0.269,0.07,0.07,0.87,0.51,-0.29,-1.14,
0.271,0.08,0.07,0.88,0.51,-0.29,-1.14,
0.274,0.08,0.07,0.88,0.52,-0.29,-1.10,
0.274,0.08,0.08,0.88,0.52,-0.29,-1.10,
0.276,0.07,0.07,0.88,0.52,-0.29,-1.10,
0.279,0.08,0.07,0.90,0.52,-0.29,-1.10,
0.279,0.08,0.07,0.90,0.52,-0.25,-0.98,
0.281,0.07,0.07,0.90,0.52,-0.25,-0.98,
0.284,0.07,0.07,0.90,0.52,-0.25,-0.98,
0.284,0.07,0.07,0.90,0.50,-0.28,-0.89,
0.286,0.07,0.07,0.90,0.50,-0.28,-0.89,
0.289,0.07,0.07,0.91,0.50,-0.28,-0.89,
0.289,0.07,0.07,0.91,0.47,-0.29,-0.77,
0.291,0.07,0.06,0.91,0.47,-0.29,-0.77,
0.294,0.07,0.07,0.91,0.47,-0.29,-0.77,
0.294,0.07,0.07,0.91,0.48,-0.30,-0.74,
0.296,0.07,0.07,0.91,0.48,-0.30,-0.74,
0.299,0.07,0.07,0.91,0.45,-0.30,-0.70,
0.299,0.07,0.06,0.91,0.45,-0.30,-0.70,
0.301,0.07,0.07,0.90,0.45,-0.30,-0.70,
0.304,0.07,0.07,0.90,0.45,-0.30,-0.70,
0.304,0.07,0.07,0.90,0.46,-0.30,-0.69,
0.306,0.07,0.07,0.90,0.46,-0.30,-0.69,
0.308,0.06,0.07,0.89,0.46,-0.30,-0.69,
0.308,0.06,0.07,0.89,0.47,-0.25,-0.76,
0.311,0.06,0.07,0.89,0.47,-0.25,-0.76,
0.313,0.06,0.08,0.88,0.47,-0.25,-0.76,
0.314,0.06,0.08,0.88,0.41,-0.24,-0.80,
0.316,0.05,0.08,0.88,0.41,-0.24,-0.80,
0.318,0.05,0.08,0.88,0.41,-0.24,-0.80,
0.319,0.05,0.08,0.88,0.36,-0.21,-0.90,
0.325,0.05,0.08,0.88,0.36,-0.21,-0.90,
0.326,0.05,0.08,0.88,0.30,-0.19,-0.98,
0.326,0.05,0.08,0.88,0.30,-0.19,-0.98,
0.329,0.04,0.09,0.88,0.30,-0.19,-0.98,
0.329,0.05,0.09,0.88,0.30,-0.19,-0.98,
0.329,0.05,0.09,0.88,0.26,-0.11,-0.96,
0.33,0.05,0.09,0.88,0.26,-0.11,-0.96,
0.333,0.04,0.09,0.89,0.26,-0.11,-0.96,
0.334,0.04,0.09,0.89,0.23,-0.06,-0.92,
0.336,0.04,0.09,0.89,0.23,-0.06,-0.92,
0.339,0.04,0.10,0.89,0.23,-0.06,-0.92,
0.34,0.04,0.10,0.89,0.22,-0.02,-0.86,
0.34,0.03,0.09,0.89,0.22,-0.02,-0.86,
0.343,0.03,0.08,0.90,0.22,-0.02,-0.86,
0.343,0.03,0.08,0.90,0.17,-0.01,-0.80,
0.346,0.03,0.08,0.90,0.17,-0.01,-0.80,
0.348,0.03,0.08,0.90,0.11,-0.07,-0.74,
0.348,0.04,0.09,0.89,0.11,-0.07,-0.74,
0.35,0.03,0.09,0.89,0.11,-0.07,-0.74,
0.353,0.03,0.09,0.89,0.11,-0.09,-0.76,
0.353,0.02,0.08,0.88,0.11,-0.09,-0.76,
0.355,0.03,0.08,0.88,0.11,-0.09,-0.76,
0.358,0.02,0.08,0.87,0.11,-0.09,-0.76,
0.358,0.02,0.08,0.87,0.04,-0.10,-0.86,
0.36,0.02,0.08,0.86,0.04,-0.10,-0.86,
0.363,0.02,0.08,0.86,0.04,-0.10,-0.86,
0.363,0.02,0.08,0.86,0.02,-0.12,-0.93,
0.365,0.01,0.08,0.85,0.02,-0.12,-0.93,
0.368,0.01,0.08,0.85,-0.04,-0.12,-1.04,
0.368,0.00,0.08,0.84,-0.04,-0.12,-1.04,
0.37,-0.00,0.08,0.83,-0.04,-0.12,-1.04,
0.373,-0.00,0.08,0.83,-0.14,-0.15,-1.17,
0.373,-0.01,0.07,0.83,-0.14,-0.15,-1.17,
0.375,-0.01,0.08,0.82,-0.14,-0.15,-1.17,
0.378,-0.02,0.08,0.82,-0.14,-0.15,-1.17,
0.378,-0.02,0.08,0.82,-0.25,-0.17,-1.33,
0.38,-0.02,0.08,0.82,-0.25,-0.17,-1.33,
0.383,-0.02,0.08,0.81,-0.25,-0.17,-1.33,
0.383,-0.02,0.08,0.81,-0.31,-0.16,-1.42,
0.385,-0.02,0.08,0.81,-0.31,-0.16,-1.42,
0.388,-0.03,0.08,0.82,-0.31,-0.16,-1.42,
0.388,-0.03,0.08,0.82,-0.40,-0.14,-1.47,
0.39,-0.03,0.09,0.82,-0.40,-0.14,-1.47,
0.392,-0.03,0.08,0.82,-0.40,-0.14,-1.47,
0.392,-0.03,0.08,0.82,-0.41,-0.09,-1.48,
0.395,-0.04,0.08,0.83,-0.41,-0.09,-1.48,
0.398,-0.04,0.08,0.83,-0.48,-0.08,-1.42,
0.398,-0.05,0.08,0.84,-0.48,-0.08,-1.42,
0.4,-0.05,0.08,0.85,-0.48,-0.08,-1.42,
0.403,-0.06,0.08,0.87,-0.48,-0.08,-1.42,
0.403,-0.06,0.08,0.87,-0.59,-0.10,-1.26,
0.405,-0.06,0.07,0.88,-0.59,-0.10,-1.26,
0.407,-0.06,0.07,0.90,-0.59,-0.10,-1.26,
0.408,-0.06,0.07,0.90,-0.69,-0.13,-1.01,
0.409,-0.06,0.07,0.90,-0.69,-0.13,-1.01,
0.412,-0.06,0.07,0.90,-0.76,-0.19,-0.70,
0.412,-0.05,0.06,0.92,-0.76,-0.19,-0.70,
0.414,-0.05,0.06,0.94,-0.76,-0.19,-0.70,
0.417,-0.04,0.06,0.95,-0.76,-0.19,-0.70,
0.417,-0.04,0.06,0.95,-0.69,-0.22,-0.49,
0.419,-0.04,0.06,0.97,-0.69,-0.22,-0.49,
0.426,-0.04,0.06,0.97,-0.60,-0.23,-0.16,
0.427,-0.04,0.06,0.97,-0.60,-0.23,-0.16,
0.427,-0.04,0.06,0.98,-0.60,-0.23,-0.16,
0.427,-0.04,0.06,0.99,-0.60,-0.23,-0.16,
0.427,-0.04,0.06,0.99,-0.53,-0.26,0.08,
0.429,-0.04,0.06,0.99,-0.53,-0.26,0.08,
0.432,-0.03,0.06,0.99,-0.53,-0.26,0.08,
0.432,-0.03,0.06,0.99,-0.49,-0.26,0.23,
0.434,-0.04,0.06,0.99,-0.49,-0.26,0.23,
0.437,-0.03,0.06,0.99,-0.49,-0.26,0.23,
0.437,-0.03,0.06,0.99,-0.45,-0.23,0.27,
0.439,-0.03,0.07,0.98,-0.45,-0.23,0.27,
0.442,-0.03,0.07,0.97,-0.45,-0.23,0.27,
0.442,-0.03,0.07,0.97,-0.45,-0.21,0.26,
0.444,-0.02,0.07,0.96,-0.45,-0.21,0.26,
0.446,-0.02,0.07,0.96,-0.35,-0.15,0.14,
0.447,-0.02,0.08,0.95,-0.35,-0.15,0.14,
0.449,-0.02,0.08,0.94,-0.35,-0.15,0.14,
0.451,-0.02,0.09,0.93,-0.35,-0.15,0.14,
0.452,-0.02,0.09,0.93,-0.30,-0.05,-0.06,
0.454,-0.03,0.09,0.91,-0.30,-0.05,-0.06,
0.456,-0.03,0.09,0.89,-0.30,-0.05,-0.06,
0.457,-0.03,0.09,0.89,-0.28,0.03,-0.31,
0.459,-0.03,0.09,0.88,-0.28,0.03,-0.31,
0.461,-0.03,0.09,0.87,-0.28,0.03,-0.31,
0.462,-0.03,0.09,0.87,-0.32,0.06,-0.56,
0.464,-0.04,0.09,0.85,-0.32,0.06,-0.56,
0.466,-0.04,0.10,0.84,-0.32,0.06,-0.56,
0.467,-0.04,0.10,0.84,-0.36,0.09,-0.87,
0.468,-0.04,0.09,0.83,-0.36,0.09,-0.87,
0.472,-0.04,0.09,0.83,-0.42,0.11,-1.12,
0.473,-0.04,0.10,0.82,-0.42,0.11,-1.12,
0.474,-0.05,0.11,0.81,-0.42,0.11,-1.12,
0.476,-0.05,0.10,0.81,-0.42,0.11,-1.12,
0.477,-0.05,0.10,0.81,-0.43,0.12,-1.33,
0.478,-0.05,0.10,0.80,-0.43,0.12,-1.33,
0.481,-0.06,0.10,0.80,-0.43,0.12,-1.33,
0.481,-0.06,0.10,0.80,-0.49,0.18,-1.47,
0.483,-0.07,0.10,0.80,-0.49,0.18,-1.47,
0.486,-0.07,0.11,0.80,-0.49,0.18,-1.47,
0.487,-0.07,0.11,0.80,-0.53,0.15,-1.56,
0.49,-0.08,0.11,0.80,-0.53,0.15,-1.56,
0.493,-0.08,0.11,0.80,-0.53,0.15,-1.56,
0.494,-0.08,0.11,0.80,-0.66,0.22,-1.53,
0.494,-0.09,0.11,0.81,-0.66,0.22,-1.53,
0.497,-0.09,0.11,0.81,-0.72,0.25,-1.55,
0.498,-0.10,0.11,0.81,-0.72,0.25,-1.55,
0.499,-0.10,0.11,0.81,-0.72,0.25,-1.55,
0.502,-0.10,0.11,0.81,-0.72,0.25,-1.55,
0.502,-0.10,0.11,0.81,-0.84,0.30,-1.45,
0.504,-0.10,0.11,0.83,-0.84,0.30,-1.45,
0.506,-0.11,0.11,0.84,-0.84,0.30,-1.45,
0.507,-0.11,0.11,0.84,-0.88,0.30,-1.40,
0.508,-0.11,0.11,0.84,-0.88,0.30,-1.40,
0.512,-0.12,0.11,0.85,-0.88,0.30,-1.40,
0.512,-0.12,0.11,0.85,-0.94,0.33,-1.22,
0.514,-0.12,0.11,0.86,-0.94,0.33,-1.22,
0.52,-0.12,0.11,0.87,-0.94,0.33,-1.22,
0.52,-0.12,0.11,0.87,-0.99,0.33,-1.04,
0.52,-0.12,0.11,0.88,-0.99,0.33,-1.04,
0.521,-0.12,0.11,0.88,-1.02,0.33,-0.89,
0.521,-0.12,0.11,0.89,-1.02,0.33,-0.89,
0.523,-0.12,0.11,0.89,-1.02,0.33,-0.89,
0.526,-0.12,0.11,0.90,-1.02,0.33,-0.89,
0.526,-0.12,0.11,0.90,-1.00,0.37,-0.72,
0.529,-0.12,0.10,0.90,-1.00,0.37,-0.72,
0.531,-0.12,0.10,0.90,-1.01,0.35,-0.58,
0.531,-0.12,0.10,0.91,-1.01,0.35,-0.58,
0.533,-0.12,0.10,0.92,-1.01,0.35,-0.58,
0.536,-0.13,0.10,0.92,-1.01,0.35,-0.58,
0.536,-0.13,0.10,0.92,-1.03,0.32,-0.44,
0.538,-0.13,0.09,0.93,-1.03,0.32,-0.44,
0.542,-0.13,0.09,0.93,-1.03,0.32,-0.44,
0.542,-0.13,0.09,0.93,-1.04,0.29,-0.34,
0.543,-0.12,0.09,0.93,-1.04,0.29,-0.34,
0.546,-0.12,0.09,0.93,-1.08,0.26,-0.25,
0.546,-0.13,0.08,0.94,-1.08,0.26,-0.25,
0.549,-0.13,0.08,0.94,-1.08,0.26,-0.25,
0.551,-0.13,0.08,0.94,-1.08,0.26,-0.25,
0.551,-0.13,0.08,0.94,-1.04,0.22,-0.21,
0.553,-0.13,0.07,0.95,-1.04,0.22,-0.21,
0.557,-0.12,0.08,0.95,-1.04,0.22,-0.21,
0.557,-0.12,0.08,0.95,-1.07,0.19,-0.10,
0.558,-0.12,0.07,0.95,-1.07,0.19,-0.10,
0.56,-0.12,0.07,0.95,-1.05,0.17,-0.02,
0.561,-0.12,0.06,0.96,-1.05,0.17,-0.02,
0.563,-0.12,0.06,0.96,-1.05,0.17,-0.02,
0.566,-0.12,0.06,0.95,-1.05,0.17,-0.02,
0.566,-0.12,0.06,0.95,-0.96,0.10,0.00,
0.568,-0.12,0.05,0.96,-0.96,0.10,0.00,
0.571,-0.12,0.05,0.96,-0.96,0.09,0.01,
0.571,-0.12,0.05,0.97,-0.96,0.09,0.01,
0.573,-0.11,0.06,0.97,-0.96,0.09,0.01,
0.575,-0.11,0.06,0.97,-0.96,0.09,0.01,
0.576,-0.11,0.06,0.97,-0.93,0.02,0.09,
0.578,-0.12,0.06,0.97,-0.93,0.02,0.09,
0.581,-0.11,0.07,0.97,-0.93,0.02,0.09,
0.581,-0.11,0.07,0.97,-0.86,0.06,0.14,
0.583,-0.12,0.07,0.98,-0.86,0.06,0.14,
0.586,-0.12,0.07,0.98,-0.89,0.16,0.14,
0.586,-0.12,0.07,0.98,-0.89,0.16,0.14,
0.588,-0.13,0.08,0.99,-0.89,0.16,0.14,
0.591,-0.13,0.08,0.99,-0.89,0.16,0.14,
0.591,-0.13,0.08,0.99,-0.91,0.21,0.25,
0.592,-0.14,0.08,0.99,-0.91,0.21,0.25,
0.596,-0.14,0.08,0.99,-0.99,0.30,0.30,
0.596,-0.14,0.09,0.99,-0.99,0.30,0.30,
0.597,-0.15,0.09,0.98,-0.99,0.30,0.30,
0.601,-0.16,0.09,0.98,-0.99,0.30,0.30,
0.601,-0.16,0.09,0.98,-1.07,0.39,0.35,
0.603,-0.16,0.08,0.98,-1.07,0.39,0.35,
0.607,-0.16,0.08,0.98,-1.21,0.40,0.25,
0.608,-0.17,0.08,0.97,-1.21,0.40,0.25,
0.608,-0.17,0.09,0.97,-1.21,0.40,0.25,
0.61,-0.16,0.08,0.96,-1.21,0.40,0.25,
0.61,-0.16,0.08,0.96,-1.31,0.37,0.21,
0.613,-0.16,0.08,0.96,-1.31,0.37,0.21,
0.616,-0.16,0.08,0.96,-1.30,0.39,0.09,
0.616,-0.17,0.08,0.95,-1.30,0.39,0.09,
0.618,-0.16,0.08,0.96,-1.30,0.39,0.09,
0.62,-0.16,0.08,0.96,-1.28,0.37,-0.01,
0.621,-0.16,0.08,0.95,-1.28,0.37,-0.01,
0.622,-0.15,0.08,0.95,-1.28,0.37,-0.01,
0.625,-0.14,0.08,0.94,-1.28,0.37,-0.01,
0.626,-0.14,0.08,0.94,-1.21,0.37,-0.02,
0.627,-0.13,0.07,0.95,-1.21,0.37,-0.02,
0.63,-0.13,0.07,0.95,-1.21,0.37,-0.02,
0.63,-0.13,0.07,0.95,-1.10,0.35,-0.11,
0.632,-0.13,0.07,0.95,-1.10,0.35,-0.11,
0.635,-0.12,0.06,0.95,-1.10,0.35,-0.11,
0.635,-0.12,0.06,0.95,-0.95,0.29,-0.10,
0.637,-0.12,0.06,0.95,-0.95,0.29,-0.10,
0.644,-0.11,0.05,0.95,-0.95,0.29,-0.10,
0.646,-0.11,0.05,0.95,-0.90,0.23,-0.09,
0.646,-0.11,0.05,0.95,-0.90,0.23,-0.09,
0.646,-0.11,0.05,0.95,-0.79,0.16,-0.08,
0.646,-0.11,0.05,0.96,-0.79,0.16,-0.08,
0.647,-0.10,0.04,0.96,-0.79,0.16,-0.08,
0.65,-0.10,0.04,0.97,-0.79,0.16,-0.08,
0.65,-0.10,0.04,0.97,-0.71,0.13,-0.01,
0.652,-0.09,0.04,0.98,-0.71,0.13,-0.01,
0.655,-0.09,0.03,0.99,-0.71,0.13,-0.01,
0.658,-0.09,0.03,0.99,-0.61,0.07,0.11,
0.658,-0.09,0.03,0.99,-0.61,0.07,0.11,
0.66,-0.09,0.02,1.00,-0.61,0.07,0.11,
0.661,-0.09,0.02,1.00,-0.56,0.01,0.26,
0.662,-0.10,0.01,1.00,-0.56,0.01,0.26,
0.664,-0.10,0.01,1.00,-0.55,-0.08,0.38,
0.665,-0.09,0.01,1.01,-0.55,-0.08,0.38,
0.667,-0.09,0.01,1.01,-0.55,-0.08,0.38,
0.669,-0.09,0.01,1.01,-0.57,-0.18,0.46,
0.67,-0.09,0.01,1.01,-0.57,-0.18,0.46,
0.672,-0.09,0.02,1.01,-0.57,-0.18,0.46,
0.674,-0.08,0.02,1.01,-0.57,-0.18,0.46,
0.675,-0.08,0.02,1.01,-0.52,-0.17,0.56,
0.676,-0.09,0.02,1.01,-0.52,-0.17,0.56,
0.679,-0.09,0.02,1.02,-0.52,-0.17,0.56,
0.679,-0.09,0.02,1.02,-0.44,-0.12,0.55,
0.681,-0.10,0.02,1.02,-0.44,-0.12,0.55,
0.684,-0.10,0.02,1.02,-0.48,-0.09,0.56,
0.684,-0.11,0.03,1.02,-0.48,-0.09,0.56,
0.686,-0.12,0.03,1.02,-0.48,-0.09,0.56,
0.691,-0.13,0.03,1.02,-0.48,-0.09,0.56,
0.691,-0.13,0.03,1.02,-0.59,-0.02,0.62,
0.692,-0.14,0.03,1.02,-0.59,-0.02,0.62,
0.694,-0.14,0.03,1.02,-0.73,0.06,0.63,
0.694,-0.15,0.03,1.02,-0.73,0.06,0.63,
0.696,-0.17,0.03,1.02,-0.73,0.06,0.63,
0.699,-0.18,0.04,1.01,-0.73,0.06,0.63,
0.699,-0.18,0.04,1.01,-0.91,0.07,0.60,
0.701,-0.20,0.04,1.01,-0.91,0.07,0.60,
0.704,-0.22,0.04,1.01,-0.91,0.07,0.60,
0.704,-0.22,0.04,1.01,-1.20,0.11,0.57,
0.708,-0.23,0.04,1.01,-1.20,0.11,0.57,
0.709,-0.25,0.04,1.00,-1.20,0.11,0.57,
0.709,-0.25,0.04,1.00,-1.51,0.12,0.51,
0.711,-0.26,0.04,1.01,-1.51,0.12,0.51,
0.714,-0.27,0.04,1.00,-1.51,0.12,0.51,
0.714,-0.27,0.04,1.00,-1.81,0.15,0.45,
0.716,-0.28,0.05,1.00,-1.81,0.15,0.45,
0.72,-0.28,0.05,1.00,-2.04,0.19,0.45,
0.72,-0.29,0.05,1.01,-2.04,0.19,0.45,
0.721,-0.30,0.05,1.01,-2.04,0.19,0.45,
0.725,-0.31,0.06,1.01,-2.04,0.19,0.45,
0.725,-0.31,0.06,1.01,-2.23,0.26,0.45,
0.726,-0.32,0.06,1.00,-2.23,0.26,0.45,
0.729,-0.33,0.07,1.00,-2.23,0.26,0.45,
0.729,-0.33,0.07,1.00,-2.41,0.31,0.48,
0.731,-0.34,0.07,1.01,-2.41,0.31,0.48,
0.734,-0.34,0.08,1.01,-2.41,0.31,0.48,
0.734,-0.34,0.08,1.01,-2.57,0.43,0.43,
0.736,-0.35,0.08,1.01,-2.57,0.43,0.43,
0.739,-0.36,0.09,1.02,-2.57,0.43,0.43,
0.739,-0.36,0.09,1.02,-2.74,0.50,0.46,
0.742,-0.37,0.09,1.02,-2.74,0.50,0.46,
0.744,-0.37,0.09,1.02,-2.88,0.65,0.54,
0.744,-0.38,0.09,1.02,-2.88,0.65,0.54,
0.746,-0.38,0.10,1.03,-2.88,0.65,0.54,
0.748,-0.38,0.10,1.03,-3.05,0.71,0.62,
0.749,-0.39,0.11,1.03,-3.05,0.71,0.62,
0.751,-0.39,0.11,1.03,-3.05,0.71,0.62,
0.753,-0.39,0.11,1.04,-3.05,0.71,0.62,
0.753,-0.39,0.11,1.04,-3.17,0.84,0.66,
0.761,-0.40,0.11,1.04,-3.17,0.84,0.66,
0.762,-0.40,0.11,1.04,-3.17,0.84,0.66,
0.762,-0.40,0.11,1.04,-3.23,0.94,0.74,
0.762,-0.41,0.10,1.04,-3.23,0.94,0.74,
0.764,-0.41,0.10,1.05,-3.23,0.94,0.74,
0.764,-0.41,0.10,1.05,-3.31,0.90,0.80,
0.766,-0.41,0.09,1.04,-3.31,0.90,0.80,
0.768,-0.41,0.09,1.04,-3.35,0.83,0.80,
0.769,-0.41,0.08,1.04,-3.35,0.83,0.80,
0.771,-0.40,0.07,1.04,-3.35,0.83,0.80,
0.775,-0.39,0.06,1.03,-3.35,0.83,0.80,
0.775,-0.39,0.06,1.03,-3.34,0.68,0.79,
0.775,-0.38,0.05,1.03,-3.34,0.68,0.79,
0.778,-0.37,0.04,1.03,-3.34,0.68,0.79,
0.779,-0.37,0.04,1.03,-3.21,0.52,0.71,
0.781,-0.37,0.03,1.03,-3.21,0.52,0.71,
0.783,-0.36,0.02,1.02,-3.21,0.52,0.71,
0.784,-0.36,0.02,1.02,-2.99,0.30,0.65,
0.785,-0.34,0.02,1.02,-2.99,0.30,0.65,
0.788,-0.33,0.02,1.02,-2.99,0.30,0.65,
0.788,-0.33,0.02,1.02,-2.81,0.15,0.62,
0.792,-0.31,0.01,1.02,-2.81,0.15,0.62,
0.794,-0.31,0.01,1.02,-2.53,0.03,0.55,
0.794,-0.30,0.00,1.01,-2.53,0.03,0.55,
0.795,-0.28,0.01,1.00,-2.53,0.03,0.55,
0.798,-0.26,0.01,0.99,-2.53,0.03,0.55,
0.799,-0.26,0.01,0.99,-2.20,-0.10,0.49,
0.8,-0.24,0.02,0.99,-2.20,-0.10,0.49,
0.803,-0.22,0.02,0.98,-2.20,-0.10,0.49,
0.803,-0.22,0.02,0.98,-1.83,-0.07,0.32,
0.805,-0.21,0.03,0.97,-1.83,-0.07,0.32,
0.808,-0.19,0.04,0.95,-1.83,-0.07,0.32,
0.808,-0.19,0.04,0.95,-1.44,0.04,0.20,
0.81,-0.18,0.06,0.95,-1.44,0.04,0.20,
0.813,-0.17,0.07,0.94,-1.44,0.04,0.20,
0.813,-0.17,0.07,0.94,-1.10,0.19,-0.02,
0.815,-0.16,0.08,0.93,-1.10,0.19,-0.02,
0.818,-0.16,0.08,0.93,-0.80,0.44,-0.20,
0.818,-0.16,0.10,0.92,-0.80,0.44,-0.20,
0.821,-0.15,0.11,0.91,-0.80,0.44,-0.20,
0.823,-0.16,0.12,0.91,-0.80,0.44,-0.20,
0.823,-0.16,0.12,0.91,-0.60,0.69,-0.35,
0.826,-0.16,0.12,0.90,-0.60,0.69,-0.35,
0.828,-0.17,0.13,0.89,-0.60,0.69,-0.35,
0.828,-0.17,0.13,0.89,-0.55,0.91,-0.49,
0.831,-0.18,0.13,0.88,-0.55,0.91,-0.49,
0.834,-0.20,0.12,0.88,-0.55,0.91,-0.49,
0.834,-0.20,0.12,0.88,-0.64,0.99,-0.68,
0.836,-0.22,0.12,0.88,-0.64,0.99,-0.68,
0.838,-0.23,0.11,0.87,-0.64,0.99,-0.68,
0.839,-0.23,0.11,0.87,-0.86,0.99,-0.76,
0.845,-0.24,0.10,0.87,-0.86,0.99,-0.76,
0.845,-0.24,0.10,0.87,-1.14,0.85,-0.83,
0.845,-0.25,0.10,0.87,-1.14,0.85,-0.83,
0.846,-0.26,0.09,0.87,-1.14,0.85,-0.83,
0.848,-0.26,0.08,0.87,-1.14,0.85,-0.83,
0.848,-0.26,0.08,0.87,-1.33,0.76,-0.86,
0.85,-0.27,0.08,0.88,-1.33,0.76,-0.86,
0.853,-0.27,0.06,0.88,-1.33,0.76,-0.86,
0.853,-0.27,0.06,0.88,-1.44,0.61,-0.83,
0.855,-0.27,0.05,0.90,-1.44,0.61,-0.83,
0.858,-0.27,0.04,0.91,-1.44,0.61,-0.83,
0.858,-0.27,0.04,0.91,-1.50,0.49,-0.75,
0.86,-0.27,0.03,0.92,-1.50,0.49,-0.75,
0.862,-0.27,0.02,0.94,-1.50,0.49,-0.75,
0.863,-0.27,0.02,0.94,-1.51,0.30,-0.52,
0.865,-0.27,0.01,0.95,-1.51,0.30,-0.52,
0.867,-0.27,0.01,0.95,-1.48,0.11,-0.24,
0.868,-0.26,-0.01,0.97,-1.48,0.11,-0.24,
0.87,-0.26,-0.02,0.99,-1.48,0.11,-0.24,
0.872,-0.25,-0.03,1.01,-1.48,0.11,-0.24,
0.873,-0.25,-0.03,1.01,-1.45,-0.11,0.06,
0.874,-0.25,-0.04,1.02,-1.45,-0.11,0.06,
0.877,-0.25,-0.05,1.03,-1.45,-0.11,0.06,
0.877,-0.25,-0.05,1.03,-1.36,-0.30,0.39,
0.88,-0.24,-0.06,1.05,-1.36,-0.30,0.39,
0.883,-0.24,-0.06,1.07,-1.36,-0.30,0.39,
0.883,-0.24,-0.06,1.07,-1.30,-0.41,0.64,
0.885,-0.24,-0.07,1.09,-1.30,-0.41,0.64,
0.888,-0.24,-0.08,1.10,-1.30,-0.41,0.64,
0.888,-0.24,-0.08,1.10,-1.21,-0.53,0.98,
0.89,-0.23,-0.08,1.11,-1.21,-0.53,0.98,
0.892,-0.23,-0.08,1.11,-1.15,-0.68,1.36,
0.893,-0.24,-0.09,1.13,-1.15,-0.68,1.36,
0.895,-0.23,-0.10,1.15,-1.15,-0.68,1.36,
0.898,-0.23,-0.10,1.16,-1.15,-0.68,1.36,
0.898,-0.23,-0.10,1.16,-1.11,-0.73,1.60,
0.9,-0.22,-0.10,1.17,-1.11,-0.73,1.60,
0.903,-0.21,-0.09,1.17,-1.11,-0.73,1.60,
0.903,-0.21,-0.09,1.17,-1.03,-0.78,1.89,
0.905,-0.20,-0.09,1.18,-1.03,-0.78,1.89,
0.908,-0.20,-0.08,1.19,-1.03,-0.78,1.89,
0.909,-0.20,-0.08,1.19,-0.87,-0.74,2.04,
0.91,-0.20,-0.07,1.19,-0.87,-0.74,2.04,
0.913,-0.19,-0.07,1.19,-0.87,-0.74,2.04,
0.913,-0.19,-0.07,1.19,-0.74,-0.58,2.18,
0.915,-0.19,-0.07,1.19,-0.74,-0.58,2.18,
0.917,-0.19,-0.07,1.19,-0.65,-0.43,2.26,
0.917,-0.20,-0.06,1.19,-0.65,-0.43,2.26,
0.92,-0.20,-0.06,1.19,-0.65,-0.43,2.26,
0.923,-0.20,-0.06,1.18,-0.65,-0.43,2.26,
0.923,-0.20,-0.06,1.18,-0.64,-0.35,2.27,
0.926,-0.21,-0.06,1.18,-0.64,-0.35,2.27,
0.927,-0.21,-0.06,1.18,-0.64,-0.35,2.27,
0.928,-0.21,-0.06,1.18,-0.67,-0.26,2.23,
0.93,-0.21,-0.06,1.17,-0.67,-0.26,2.23,
0.932,-0.22,-0.06,1.16,-0.67,-0.26,2.23,
0.933,-0.22,-0.06,1.16,-0.72,-0.27,2.12,
0.935,-0.23,-0.07,1.15,-0.72,-0.27,2.12,
0.937,-0.23,-0.07,1.14,-0.72,-0.27,2.12,
0.937,-0.23,-0.07,1.14,-0.78,-0.23,1.97,
0.94,-0.24,-0.07,1.13,-0.78,-0.23,1.97,
0.942,-0.24,-0.07,1.13,-0.91,-0.28,1.78,
0.943,-0.25,-0.08,1.12,-0.91,-0.28,1.78,
0.944,-0.25,-0.08,1.11,-0.91,-0.28,1.78,
0.947,-0.25,-0.09,1.09,-0.91,-0.28,1.78,
0.947,-0.25,-0.09,1.09,-1.01,-0.32,1.59,
0.95,-0.25,-0.09,1.08,-1.01,-0.32,1.59,
0.952,-0.25,-0.10,1.09,-1.01,-0.32,1.59,
0.953,-0.25,-0.10,1.09,-1.07,-0.42,1.36,
0.955,-0.26,-0.10,1.09,-1.07,-0.42,1.36,
0.957,-0.26,-0.10,1.08,-1.07,-0.42,1.36,
0.957,-0.26,-0.10,1.08,-1.09,-0.49,1.21,
0.962,-0.24,-0.10,1.08,-1.09,-0.49,1.21,
0.963,-0.24,-0.11,1.09,-1.09,-0.49,1.21,
0.963,-0.24,-0.11,1.09,-1.09,-0.53,1.19,
0.964,-0.23,-0.11,1.09,-1.09,-0.53,1.19,
0.967,-0.23,-0.11,1.09,-0.96,-0.56,1.19,
0.967,-0.23,-0.10,1.10,-0.96,-0.56,1.19,
0.969,-0.22,-0.11,1.10,-0.96,-0.56,1.19,
0.972,-0.22,-0.11,1.10,-0.96,-0.56,1.19,
0.972,-0.22,-0.11,1.10,-0.84,-0.53,1.28,
0.974,-0.22,-0.11,1.11,-0.84,-0.53,1.28,
0.977,-0.22,-0.11,1.11,-0.76,-0.53,1.35,
0.977,-0.21,-0.11,1.11,-0.76,-0.53,1.35,
0.979,-0.21,-0.11,1.12,-0.76,-0.53,1.35,
0.981,-0.21,-0.11,1.13,-0.76,-0.53,1.35,
0.982,-0.21,-0.11,1.13,-0.68,-0.51,1.46,
0.984,-0.21,-0.11,1.14,-0.68,-0.51,1.46,
0.987,-0.21,-0.11,1.14,-0.68,-0.51,1.46,
0.987,-0.21,-0.11,1.14,-0.61,-0.47,1.57,
0.989,-0.21,-0.11,1.15,-0.61,-0.47,1.57,
0.993,-0.21,-0.11,1.15,-0.63,-0.49,1.70,
0.994,-0.20,-0.11,1.16,-0.63,-0.49,1.70,
0.994,-0.20,-0.11,1.16,-0.63,-0.49,1.70,
0.996,-0.20,-0.10,1.17,-0.63,-0.49,1.70,
0.996,-0.20,-0.10,1.17,-0.56,-0.42,1.84,
0.998,-0.20,-0.10,1.17,-0.56,-0.42,1.84,
1.001,-0.20,-0.09,1.17,-0.56,-0.42,1.84,
1.001,-0.20,-0.09,1.17,-0.54,-0.36,1.94,
1.004,-0.20,-0.08,1.17,-0.54,-0.36,1.94,
1.006,-0.20,-0.08,1.17,-0.54,-0.36,1.94,
1.006,-0.20,-0.08,1.17,-0.53,-0.25,1.99,
1.009,-0.20,-0.07,1.17,-0.53,-0.25,1.99,
1.011,-0.20,-0.07,1.16,-0.53,-0.25,1.99,
1.011,-0.20,-0.07,1.16,-0.49,-0.08,1.98,
1.013,-0.20,-0.07,1.15,-0.49,-0.08,1.98,
1.016,-0.20,-0.07,1.15,-0.51,0.01,1.92,
1.016,-0.21,-0.07,1.15,-0.51,0.01,1.92,
1.018,-0.21,-0.06,1.14,-0.51,0.01,1.92,
1.021,-0.21,-0.06,1.12,-0.51,0.01,1.92,
1.022,-0.21,-0.06,1.12,-0.54,0.06,1.78,
1.023,-0.22,-0.06,1.11,-0.54,0.06,1.78,
1.026,-0.22,-0.06,1.10,-0.54,0.06,1.78,
1.026,-0.22,-0.06,1.10,-0.59,0.12,1.58,
1.028,-0.21,-0.06,1.10,-0.59,0.12,1.58,
1.031,-0.22,-0.06,1.09,-0.59,0.12,1.58,
1.031,-0.22,-0.06,1.09,-0.66,0.13,1.37,
1.033,-0.23,-0.06,1.08,-0.66,0.13,1.37,
1.035,-0.23,-0.07,1.07,-0.66,0.13,1.37,
1.036,-0.23,-0.07,1.07,-0.67,0.15,1.21,
1.038,-0.24,-0.07,1.06,-0.67,0.15,1.21,
1.04,-0.24,-0.07,1.05,-0.67,0.15,1.21,
1.042,-0.24,-0.07,1.05,-0.80,0.13,1.05,
1.044,-0.24,-0.08,1.05,-0.80,0.13,1.05,
1.046,-0.24,-0.08,1.04,-0.80,0.13,1.05,
1.046,-0.24,-0.08,1.04,-0.88,0.05,0.86,
1.048,-0.24,-0.08,1.04,-0.88,0.05,0.86,
1.051,-0.24,-0.08,1.04,-0.86,0.03,0.76,
1.051,-0.23,-0.09,1.04,-0.86,0.03,0.76,
1.053,-0.23,-0.09,1.04,-0.86,0.03,0.76,
1.055,-0.22,-0.10,1.04,-0.86,0.03,0.76,
1.056,-0.22,-0.10,1.04,-0.81,-0.06,0.71,
1.063,-0.21,-0.10,1.05,-0.81,-0.06,0.71,
1.063,-0.21,-0.10,1.06,-0.81,-0.06,0.71,
1.064,-0.21,-0.10,1.06,-0.68,-0.14,0.73,
1.064,-0.20,-0.11,1.07,-0.68,-0.14,0.73,
1.065,-0.20,-0.11,1.07,-0.57,-0.20,0.83,
1.066,-0.19,-0.12,1.08,-0.57,-0.20,0.83,
1.068,-0.18,-0.12,1.08,-0.57,-0.20,0.83,
1.07,-0.17,-0.13,1.10,-0.57,-0.20,0.83,
1.071,-0.17,-0.13,1.10,-0.41,-0.26,0.99,
1.072,-0.16,-0.14,1.11,-0.41,-0.26,0.99,
1.076,-0.16,-0.15,1.11,-0.41,-0.26,0.99,
1.077,-0.16,-0.15,1.11,-0.25,-0.38,1.15,
1.077,-0.15,-0.16,1.12,-0.25,-0.38,1.15,
1.08,-0.14,-0.16,1.12,-0.25,-0.38,1.15,
1.08,-0.14,-0.16,1.12,-0.10,-0.54,1.35,
1.082,-0.14,-0.17,1.13,-0.10,-0.54,1.35,
1.085,-0.14,-0.17,1.13,0.06,-0.64,1.44,
1.085,-0.13,-0.18,1.14,0.06,-0.64,1.44,
1.087,-0.13,-0.18,1.14,0.06,-0.64,1.44,
1.09,-0.13,-0.18,1.14,0.18,-0.77,1.56,
1.091,-0.12,-0.18,1.14,0.18,-0.77,1.56,
1.093,-0.12,-0.18,1.14,0.18,-0.77,1.56,
1.095,-0.12,-0.18,1.14,0.18,-0.77,1.56,
1.095,-0.12,-0.18,1.14,0.24,-0.79,1.66,
1.097,-0.11,-0.18,1.15,0.24,-0.79,1.66,
1.1,-0.11,-0.18,1.15,0.24,-0.79,1.66,
1.1,-0.11,-0.18,1.15,0.31,-0.80,1.68,
1.102,-0.12,-0.18,1.14,0.31,-0.80,1.68,
1.106,-0.12,-0.17,1.14,0.31,-0.80,1.68,
1.106,-0.12,-0.17,1.14,0.37,-0.76,1.76,
1.107,-0.12,-0.17,1.14,0.37,-0.76,1.76,
1.111,-0.12,-0.16,1.14,0.37,-0.76,1.76,
1.111,-0.12,-0.16,1.14,0.33,-0.70,1.62,
1.114,-0.12,-0.15,1.13,0.33,-0.70,1.62,
1.115,-0.12,-0.15,1.13,0.28,-0.58,1.62,
1.115,-0.13,-0.14,1.11,0.28,-0.58,1.62,
1.117,-0.13,-0.14,1.10,0.28,-0.58,1.62,
1.12,-0.13,-0.14,1.10,0.28,-0.58,1.62,
1.12,-0.13,-0.14,1.10,0.26,-0.43,1.45,
1.122,-0.14,-0.13,1.09,0.26,-0.43,1.45,
1.128,-0.14,-0.12,1.07,0.26,-0.43,1.45,
1.129,-0.14,-0.12,1.07,0.19,-0.32,1.24,
1.129,-0.15,-0.12,1.06,0.19,-0.32,1.24,
1.13,-0.16,-0.11,1.05,0.19,-0.32,1.24,
1.13,-0.16,-0.11,1.05,0.10,-0.22,1.03,
1.132,-0.16,-0.11,1.04,0.10,-0.22,1.03,
1.134,-0.16,-0.11,1.04,-0.01,-0.09,0.80,
1.135,-0.16,-0.11,1.04,-0.01,-0.09,0.80,
1.137,-0.17,-0.11,1.03,-0.01,-0.09,0.80,
1.14,-0.17,-0.11,1.03,-0.11,-0.04,0.63,
1.14,-0.18,-0.11,1.02,-0.11,-0.04,0.63,
1.143,-0.18,-0.11,1.01,-0.11,-0.04,0.63,
1.144,-0.19,-0.11,1.01,-0.11,-0.04,0.63,
1.145,-0.19,-0.11,1.01,-0.24,-0.02,0.48,
1.147,-0.20,-0.12,0.99,-0.24,-0.02,0.48,
1.149,-0.20,-0.12,0.99,-0.24,-0.02,0.48,
1.153,-0.20,-0.12,0.99,-0.37,-0.04,0.33,
1.153,-0.21,-0.12,0.99,-0.37,-0.04,0.33,
1.154,-0.21,-0.12,0.99,-0.37,-0.04,0.33,
1.156,-0.21,-0.12,0.99,-0.51,-0.14,0.17,
1.157,-0.21,-0.11,0.98,-0.51,-0.14,0.17,
1.161,-0.21,-0.11,0.99,-0.51,-0.14,0.17,
1.162,-0.21,-0.11,0.99,-0.61,-0.12,0.15,
1.162,-0.21,-0.11,0.99,-0.61,-0.12,0.15,
1.165,-0.21,-0.11,0.99,-0.60,-0.07,0.10,
1.166,-0.20,-0.10,1.00,-0.60,-0.07,0.10,
1.168,-0.20,-0.10,1.00,-0.60,-0.07,0.10,
1.17,-0.19,-0.10,1.01,-0.60,-0.07,0.10,
1.17,-0.19,-0.10,1.01,-0.53,0.02,0.17,
1.172,-0.17,-0.09,1.01,-0.53,0.02,0.17,
1.177,-0.16,-0.09,1.02,-0.53,0.02,0.17,
1.177,-0.16,-0.09,1.02,-0.40,0.11,0.28,
1.177,-0.15,-0.09,1.03,-0.40,0.11,0.28,
1.18,-0.14,-0.09,1.03,-0.40,0.11,0.28,
1.18,-0.14,-0.09,1.03,-0.16,0.19,0.41,
1.182,-0.14,-0.08,1.04,-0.16,0.19,0.41,
1.185,-0.14,-0.08,1.04,0.02,0.25,0.56,
1.185,-0.13,-0.07,1.04,0.02,0.25,0.56,
1.187,-0.12,-0.07,1.04,0.02,0.25,0.56,
1.19,-0.12,-0.07,1.04,0.17,0.35,0.66,
1.19,-0.11,-0.07,1.05,0.17,0.35,0.66,
1.192,-0.11,-0.06,1.06,0.17,0.35,0.66,
1.197,-0.10,-0.05,1.06,0.17,0.35,0.66,
1.198,-0.10,-0.05,1.06,0.34,0.43,0.73,
1.198,-0.09,-0.05,1.07,0.34,0.43,0.73,
1.199,-0.08,-0.05,1.07,0.34,0.43,0.73,
1.2,-0.08,-0.05,1.07,0.48,0.59,0.86,
1.202,-0.08,-0.05,1.08,0.48,0.59,0.86,
1.205,-0.08,-0.05,1.09,0.48,0.59,0.86,
1.205,-0.08,-0.05,1.09,0.64,0.66,0.91,
1.207,-0.07,-0.05,1.08,0.64,0.66,0.91,
1.209,-0.07,-0.05,1.09,0.64,0.66,0.91,
1.21,-0.07,-0.05,1.09,0.73,0.68,1.04,
1.212,-0.07,-0.05,1.10,0.73,0.68,1.04,
1.214,-0.07,-0.05,1.10,0.78,0.70,1.09,
1.214,-0.08,-0.05,1.10,0.78,0.70,1.09,
1.217,-0.08,-0.06,1.10,0.78,0.70,1.09,
1.22,-0.08,-0.06,1.11,0.78,0.70,1.09,
1.22,-0.08,-0.06,1.11,0.76,0.65,1.19,
1.222,-0.08,-0.07,1.11,0.76,0.65,1.19,
1.224,-0.07,-0.07,1.11,0.76,0.65,1.19,
1.225,-0.07,-0.07,1.11,0.76,0.57,1.28,
1.227,-0.08,-0.08,1.12,0.76,0.57,1.28,
1.229,-0.08,-0.09,1.13,0.76,0.57,1.28,
1.23,-0.08,-0.09,1.13,0.77,0.49,1.30,
1.231,-0.08,-0.09,1.12,0.77,0.49,1.30,
1.235,-0.08,-0.10,1.13,0.77,0.49,1.30,
1.235,-0.08,-0.10,1.13,0.76,0.35,1.43,
1.237,-0.09,-0.11,1.14,0.76,0.35,1.43,
1.24,-0.09,-0.11,1.14,0.76,0.28,1.48,
1.24,-0.09,-0.11,1.14,0.76,0.28,1.48,
1.242,-0.10,-0.12,1.15,0.76,0.28,1.48,
1.244,-0.10,-0.12,1.16,0.76,0.28,1.48,
1.244,-0.10,-0.12,1.16,0.68,0.16,1.60,
1.246,-0.11,-0.13,1.16,0.68,0.16,1.60,
1.249,-0.12,-0.13,1.17,0.68,0.16,1.60,
1.25,-0.12,-0.13,1.17,0.60,0.02,1.75,
1.252,-0.13,-0.13,1.17,0.60,0.02,1.75,
1.254,-0.13,-0.14,1.19,0.60,0.02,1.75,
1.255,-0.13,-0.14,1.19,0.45,-0.07,1.84,
1.256,-0.13,-0.14,1.20,0.45,-0.07,1.84,
1.259,-0.14,-0.14,1.21,0.45,-0.07,1.84,
1.259,-0.14,-0.14,1.21,0.34,-0.11,2.04,
1.261,-0.14,-0.14,1.22,0.34,-0.11,2.04,
1.264,-0.14,-0.14,1.22,0.29,-0.18,2.24,
1.264,-0.15,-0.15,1.22,0.29,-0.18,2.24,
1.266,-0.15,-0.15,1.23,0.29,-0.18,2.24,
1.269,-0.15,-0.15,1.23,0.23,-0.22,2.37,
1.269,-0.16,-0.15,1.24,0.23,-0.22,2.37,
1.272,-0.16,-0.16,1.24,0.23,-0.22,2.37,
1.274,-0.16,-0.17,1.24,0.23,-0.22,2.37,
1.274,-0.16,-0.17,1.24,0.16,-0.28,2.54,
1.278,-0.16,-0.17,1.24,0.16,-0.28,2.54,
1.279,-0.16,-0.18,1.23,0.16,-0.28,2.54,
1.279,-0.16,-0.18,1.23,0.10,-0.42,2.61,
1.281,-0.16,-0.18,1.22,0.10,-0.42,2.61,
1.284,-0.16,-0.18,1.22,0.13,-0.54,2.49,
1.284,-0.15,-0.19,1.21,0.13,-0.54,2.49,
1.286,-0.14,-0.19,1.20,0.13,-0.54,2.49,
1.288,-0.14,-0.19,1.20,0.23,-0.63,2.35,
1.288,-0.14,-0.19,1.20,0.23,-0.63,2.35,
1.29,-0.13,-0.19,1.19,0.23,-0.63,2.35,
1.298,-0.12,-0.19,1.18,0.23,-0.63,2.35,
1.298,-0.12,-0.19,1.18,0.40,-0.69,2.19,
1.299,-0.12,-0.19,1.17,0.40,-0.69,2.19,
1.299,-0.12,-0.19,1.17,0.40,-0.69,2.19,
1.299,-0.12,-0.19,1.17,0.56,-0.73,2.03,
1.3,-0.11,-0.19,1.16,0.56,-0.73,2.03,
1.303,-0.10,-0.19,1.15,0.56,-0.73,2.03,
1.303,-0.10,-0.19,1.15,0.67,-0.75,1.85,
1.305,-0.10,-0.19,1.14,0.67,-0.75,1.85,
1.308,-0.09,-0.19,1.14,0.67,-0.75,1.85,
1.308,-0.09,-0.19,1.14,0.81,-0.79,1.72,
1.311,-0.09,-0.18,1.13,0.81,-0.79,1.72,
1.313,-0.09,-0.18,1.13,0.95,-0.81,1.54,
1.313,-0.09,-0.18,1.12,0.95,-0.81,1.54,
1.315,-0.08,-0.18,1.11,0.95,-0.81,1.54,
1.318,-0.08,-0.18,1.11,0.95,-0.81,1.54,
1.318,-0.08,-0.18,1.11,1.04,-0.75,1.43,
1.32,-0.08,-0.18,1.11,1.04,-0.75,1.43,
1.323,-0.08,-0.17,1.10,1.04,-0.75,1.43,
1.323,-0.08,-0.17,1.10,1.13,-0.73,1.29,
1.325,-0.08,-0.17,1.10,1.13,-0.73,1.29,
1.329,-0.08,-0.16,1.10,1.13,-0.73,1.29,
1.329,-0.08,-0.16,1.10,1.14,-0.70,1.19,
1.33,-0.08,-0.16,1.10,1.14,-0.70,1.19,
1.333,-0.09,-0.16,1.09,1.14,-0.70,1.19,
1.333,-0.09,-0.16,1.09,1.13,-0.66,1.18,
1.335,-0.09,-0.15,1.09,1.13,-0.66,1.18,
1.338,-0.09,-0.15,1.09,1.08,-0.59,1.11,
1.338,-0.10,-0.15,1.09,1.08,-0.59,1.11,
1.34,-0.11,-0.15,1.09,1.08,-0.59,1.11,
1.345,-0.11,-0.15,1.09,1.08,-0.59,1.11,
1.345,-0.11,-0.15,1.09,0.99,-0.57,1.06,
1.346,-0.12,-0.15,1.09,0.99,-0.57,1.06,
1.348,-0.12,-0.14,1.09,0.99,-0.57,1.06,
1.349,-0.12,-0.14,1.09,0.87,-0.56,1.07,
1.35,-0.13,-0.14,1.09,0.87,-0.56,1.07,
1.352,-0.13,-0.14,1.09,0.87,-0.56,1.07,
1.353,-0.13,-0.14,1.09,0.76,-0.53,1.05,
1.355,-0.14,-0.13,1.09,0.76,-0.53,1.05,
1.357,-0.14,-0.12,1.09,0.76,-0.53,1.05,
1.358,-0.14,-0.12,1.09,0.70,-0.47,1.08,
1.361,-0.15,-0.12,1.10,0.70,-0.47,1.08,
1.364,-0.15,-0.12,1.10,0.58,-0.38,1.08,
1.364,-0.15,-0.12,1.10,0.58,-0.38,1.08,
1.365,-0.15,-0.12,1.10,0.58,-0.38,1.08,
1.367,-0.15,-0.12,1.10,0.58,-0.38,1.08,
1.367,-0.15,-0.12,1.10,0.51,-0.34,1.12,
1.37,-0.16,-0.12,1.10,0.51,-0.34,1.12,
1.372,-0.15,-0.11,1.10,0.51,-0.34,1.12,
1.372,-0.15,-0.11,1.10,0.44,-0.31,1.11,
1.375,-0.16,-0.11,1.10,0.44,-0.31,1.11,
1.379,-0.15,-0.12,1.10,0.44,-0.31,1.11,
1.38,-0.15,-0.12,1.10,0.40,-0.32,1.14,
1.38,-0.15,-0.12,1.09,0.40,-0.32,1.14,
1.382,-0.15,-0.12,1.10,0.40,-0.32,1.14,
1.382,-0.15,-0.12,1.10,0.39,-0.32,1.09,
1.384,-0.15,-0.11,1.10,0.39,-0.32,1.09,
1.387,-0.15,-0.11,1.10,0.42,-0.35,1.07,
1.388,-0.14,-0.11,1.10,0.42,-0.35,1.07,
1.389,-0.14,-0.11,1.10,0.42,-0.35,1.07,
1.393,-0.14,-0.11,1.10,0.42,-0.35,1.07,
1.393,-0.14,-0.11,1.10,0.44,-0.34,1.10,
1.396,-0.14,-0.11,1.10,0.44,-0.34,1.10,
1.397,-0.13,-0.11,1.10,0.44,-0.34,1.10,
1.397,-0.13,-0.11,1.10,0.50,-0.32,1.10,
1.399,-0.12,-0.11,1.10,0.50,-0.32,1.10,
1.403,-0.12,-0.11,1.10,0.50,-0.32,1.10,
1.403,-0.12,-0.11,1.10,0.53,-0.30,1.11,
1.404,-0.12,-0.11,1.10,0.53,-0.30,1.11,
1.407,-0.12,-0.11,1.10,0.53,-0.30,1.11,
1.407,-0.12,-0.11,1.10,0.64,-0.31,1.08,
1.409,-0.12,-0.11,1.10,0.64,-0.31,1.08,
1.418,-0.12,-0.11,1.10,0.66,-0.34,1.09,
1.418,-0.11,-0.11,1.10,0.66,-0.34,1.09,
1.418,-0.11,-0.11,1.11,0.66,-0.34,1.09,
1.421,-0.10,-0.11,1.10,0.66,-0.34,1.09,
1.422,-0.10,-0.11,1.10,0.69,-0.36,1.09,
1.422,-0.11,-0.11,1.11,0.69,-0.36,1.09,
1.422,-0.10,-0.11,1.11,0.69,-0.36,1.09,
1.422,-0.10,-0.11,1.11,0.75,-0.41,1.10,
1.424,-0.10,-0.11,1.10,0.75,-0.41,1.10,
1.427,-0.10,-0.11,1.11,0.75,-0.41,1.10,
1.427,-0.10,-0.11,1.11,0.75,-0.43,1.16,
1.43,-0.10,-0.11,1.11,0.75,-0.43,1.16,
1.432,-0.10,-0.12,1.11,0.75,-0.43,1.16,
1.432,-0.10,-0.12,1.11,0.79,-0.43,1.13,
1.434,-0.10,-0.11,1.11,0.79,-0.43,1.13,
1.437,-0.10,-0.11,1.11,0.82,-0.46,1.13,
1.437,-0.09,-0.11,1.10,0.82,-0.46,1.13,
1.439,-0.09,-0.11,1.10,0.82,-0.46,1.13,
1.441,-0.10,-0.11,1.10,0.82,-0.46,1.13,
1.442,-0.10,-0.11,1.10,0.84,-0.47,1.10,
1.447,-0.09,-0.12,1.11,0.84,-0.47,1.10,
1.448,-0.09,-0.12,1.11,0.84,-0.47,1.10,
1.449,-0.09,-0.12,1.11,0.84,-0.50,1.06,
1.449,-0.09,-0.11,1.11,0.84,-0.50,1.06,
1.451,-0.09,-0.11,1.11,0.84,-0.50,1.06,
1.452,-0.09,-0.11,1.11,0.85,-0.53,1.12,
1.455,-0.08,-0.12,1.11,0.85,-0.53,1.12,
1.456,-0.08,-0.11,1.11,0.85,-0.53,1.12,
1.457,-0.08,-0.11,1.11,0.88,-0.53,1.13,
1.459,-0.08,-0.11,1.11,0.88,-0.53,1.13,
1.463,-0.08,-0.11,1.11,0.88,-0.53,1.13,
1.464,-0.08,-0.11,1.11,0.95,-0.54,1.12,
1.465,-0.07,-0.11,1.11,0.95,-0.54,1.12,
1.467,-0.07,-0.11,1.11,0.95,-0.54,1.12,
1.467,-0.07,-0.11,1.11,1.00,-0.54,1.09,
1.469,-0.06,-0.10,1.10,1.00,-0.54,1.09,
1.471,-0.05,-0.10,1.10,1.00,-0.54,1.09,
1.471,-0.05,-0.10,1.10,1.06,-0.56,1.11,
1.473,-0.04,-0.09,1.09,1.06,-0.56,1.11,
1.476,-0.04,-0.09,1.10,1.06,-0.56,1.11,
1.477,-0.04,-0.09,1.10,1.16,-0.48,1.01,
1.479,-0.03,-0.09,1.10,1.16,-0.48,1.01,
1.483,-0.03,-0.09,1.10,1.32,-0.40,0.95,
1.483,-0.03,-0.09,1.10,1.32,-0.40,0.95,
1.484,-0.02,-0.09,1.10,1.32,-0.40,0.95,
1.488,-0.02,-0.09,1.11,1.32,-0.40,0.95,
1.488,-0.02,-0.09,1.11,1.45,-0.37,0.99,
1.488,-0.02,-0.09,1.10,1.45,-0.37,0.99,
1.491,-0.02,-0.09,1.10,1.45,-0.37,0.99,
1.492,-0.02,-0.09,1.10,1.50,-0.41,1.00,
1.503,-0.02,-0.09,1.10,1.50,-0.41,1.00,
1.504,-0.02,-0.09,1.10,1.50,-0.40,0.99,
1.504,-0.02,-0.09,1.10,1.50,-0.40,0.99,
1.504,-0.02,-0.10,1.10,1.50,-0.40,0.99,
1.504,-0.01,-0.10,1.10,1.50,-0.40,0.99,
1.504,-0.01,-0.10,1.10,1.51,-0.44,0.98,
1.505,-0.01,-0.10,1.10,1.51,-0.44,0.98,
1.506,-0.01,-0.10,1.10,1.53,-0.52,0.96,
1.507,-0.01,-0.10,1.10,1.53,-0.52,0.96,
1.509,-0.01,-0.10,1.10,1.53,-0.52,0.96,
1.512,-0.01,-0.09,1.10,1.53,-0.52,0.96,
1.513,-0.01,-0.09,1.10,1.56,-0.57,0.95,
1.513,-0.02,-0.09,1.10,1.56,-0.57,0.95,
1.516,-0.02,-0.09,1.10,1.52,-0.55,0.97,
1.517,-0.02,-0.09,1.10,1.52,-0.55,0.97,
1.519,-0.02,-0.09,1.10,1.52,-0.55,0.97,
1.521,-0.02,-0.09,1.10,1.52,-0.55,0.97,
1.521,-0.02,-0.09,1.10,1.45,-0.53,0.98,
1.524,-0.02,-0.09,1.10,1.45,-0.53,0.98,
1.526,-0.02,-0.09,1.10,1.41,-0.50,0.95,
1.526,-0.03,-0.09,1.10,1.41,-0.50,0.95,
1.53,-0.03,-0.09,1.09,1.41,-0.50,0.95,
1.531,-0.03,-0.09,1.09,1.41,-0.50,0.95,
1.531,-0.03,-0.09,1.09,1.35,-0.53,0.90,
1.533,-0.03,-0.09,1.09,1.35,-0.53,0.90,
1.536,-0.03,-0.08,1.09,1.35,-0.53,0.90,
1.536,-0.03,-0.08,1.09,1.29,-0.53,0.85,
1.539,-0.04,-0.08,1.08,1.29,-0.53,0.85,
1.541,-0.04,-0.08,1.08,1.29,-0.53,0.85,
1.541,-0.04,-0.08,1.08,1.24,-0.53,0.80,
1.543,-0.04,-0.08,1.07,1.24,-0.53,0.80,
1.547,-0.04,-0.08,1.07,1.24,-0.53,0.80,
1.547,-0.04,-0.08,1.07,1.16,-0.51,0.70,
1.548,-0.05,-0.08,1.06,1.16,-0.51,0.70,
1.551,-0.05,-0.08,1.06,1.16,-0.51,0.70,
1.552,-0.05,-0.08,1.06,1.11,-0.50,0.61,
1.553,-0.06,-0.07,1.06,1.11,-0.50,0.61,
1.556,-0.06,-0.07,1.07,1.11,-0.50,0.61,
1.557,-0.06,-0.07,1.07,1.00,-0.48,0.57,
1.558,-0.06,-0.06,1.06,1.00,-0.48,0.57,
1.561,-0.06,-0.06,1.06,0.87,-0.41,0.56,
1.561,-0.07,-0.06,1.06,0.87,-0.41,0.56,
1.563,-0.08,-0.06,1.06,0.87,-0.41,0.56,
1.566,-0.08,-0.06,1.07,0.87,-0.41,0.56,
1.566,-0.08,-0.06,1.07,0.81,-0.34,0.49,
1.568,-0.08,-0.06,1.08,0.81,-0.34,0.49,
1.571,-0.08,-0.05,1.09,0.81,-0.34,0.49,
1.571,-0.08,-0.05,1.09,0.70,-0.33,0.57,
1.574,-0.08,-0.05,1.09,0.70,-0.33,0.57,
1.577,-0.08,-0.05,1.09,0.64,-0.30,0.74,
1.577,-0.08,-0.05,1.10,0.64,-0.30,0.74,
1.579,-0.08,-0.05,1.11,0.64,-0.30,0.74,
1.58,-0.08,-0.05,1.11,0.64,-0.30,0.74,
1.581,-0.08,-0.05,1.11,0.63,-0.23,0.85,
1.583,-0.08,-0.04,1.13,0.63,-0.23,0.85,
1.586,-0.08,-0.04,1.13,0.64,-0.25,0.98,
1.587,-0.07,-0.05,1.13,0.64,-0.25,0.98,
1.588,-0.07,-0.05,1.13,0.64,-0.25,0.98,
1.591,-0.06,-0.05,1.13,0.64,-0.25,0.98,
1.591,-0.06,-0.05,1.13,0.66,-0.26,1.14,
1.593,-0.06,-0.06,1.13,0.66,-0.26,1.14,
1.596,-0.05,-0.06,1.13,0.66,-0.26,1.14,
1.597,-0.05,-0.06,1.13,0.72,-0.31,1.17,
1.598,-0.05,-0.06,1.14,0.72,-0.31,1.17,
1.601,-0.05,-0.06,1.14,0.72,-0.31,1.17,
1.601,-0.05,-0.06,1.14,0.77,-0.39,1.14,
1.603,-0.04,-0.06,1.13,0.77,-0.39,1.14,
1.606,-0.04,-0.07,1.12,0.77,-0.39,1.14,
1.606,-0.04,-0.07,1.12,0.84,-0.44,1.20,
1.608,-0.03,-0.07,1.11,0.84,-0.44,1.20,
1.611,-0.03,-0.07,1.11,0.88,-0.48,1.04,
1.611,-0.02,-0.06,1.11,0.88,-0.48,1.04,
1.613,-0.02,-0.06,1.11,0.88,-0.48,1.04,
1.615,-0.01,-0.06,1.10,0.88,-0.48,1.04,
1.615,-0.01,-0.06,1.10,0.99,-0.49,0.91,
1.618,-0.01,-0.06,1.10,0.99,-0.49,0.91,
1.62,-0.01,-0.06,1.10,0.99,-0.49,0.91,
1.621,-0.01,-0.06,1.10,1.07,-0.47,0.85,
1.623,-0.01,-0.05,1.09,1.07,-0.47,0.85,
1.626,-0.01,-0.05,1.09,1.07,-0.47,0.85,
1.626,-0.01,-0.05,1.09,1.09,-0.46,0.76,
1.628,-0.01,-0.05,1.08,1.09,-0.46,0.76,
1.633,-0.01,-0.06,1.07,1.09,-0.46,0.76,
1.634,-0.01,-0.06,1.07,1.07,-0.47,0.67,
1.634,-0.01,-0.05,1.06,1.07,-0.47,0.67,
1.635,-0.01,-0.05,1.06,1.06,-0.50,0.51,
1.635,-0.01,-0.06,1.05,1.06,-0.50,0.51,
1.637,-0.01,-0.05,1.05,1.06,-0.50,0.51,
1.64,-0.01,-0.05,1.04,1.06,-0.50,0.51,
1.64,-0.01,-0.05,1.04,1.04,-0.53,0.33,
1.643,-0.01,-0.05,1.04,1.04,-0.53,0.33,
1.647,-0.00,-0.04,1.04,1.04,-0.53,0.33,
1.65,-0.00,-0.04,1.04,1.05,-0.54,0.23,
1.65,0.00,-0.04,1.03,1.05,-0.54,0.23,
1.65,0.00,-0.04,1.03,1.04,-0.52,0.13,
1.651,0.00,-0.04,1.03,1.04,-0.52,0.13,
1.653,0.01,-0.03,1.03,1.04,-0.52,0.13,
1.655,0.01,-0.03,1.03,1.04,-0.52,0.13,
1.655,0.01,-0.03,1.03,1.09,-0.47,0.08,
1.657,0.01,-0.03,1.03,1.09,-0.47,0.08,
1.66,0.01,-0.03,1.03,1.12,-0.42,0.06,
1.66,0.01,-0.03,1.03,1.12,-0.42,0.06,
1.663,0.01,-0.03,1.03,1.12,-0.42,0.06,
1.665,0.01,-0.03,1.03,1.12,-0.42,0.06,
1.665,0.01,-0.03,1.03,1.12,-0.43,0.10,
1.667,0.00,-0.03,1.04,1.12,-0.43,0.10,
1.67,0.00,-0.04,1.03,1.12,-0.43,0.10,
1.671,0.00,-0.04,1.03,1.10,-0.48,0.08,
1.672,-0.00,-0.04,1.03,1.10,-0.48,0.08,
1.674,-0.00,-0.04,1.03,1.10,-0.48,0.08,
1.674,-0.00,-0.04,1.03,1.00,-0.55,0.09,
1.676,-0.01,-0.05,1.02,1.00,-0.55,0.09,
1.68,0.00,-0.04,1.02,1.00,-0.55,0.09,
1.68,0.00,-0.04,1.02,0.93,-0.65,0.05,
1.681,0.00,-0.04,1.02,0.93,-0.65,0.05,
1.684,0.00,-0.04,1.02,0.91,-0.70,-0.02,
1.684,0.01,-0.04,1.01,0.91,-0.70,-0.02,
1.687,0.02,-0.04,0.99,0.91,-0.70,-0.02,
1.689,0.02,-0.03,0.99,0.91,-0.70,-0.02,
1.689,0.02,-0.03,0.99,0.97,-0.69,-0.13,
1.691,0.02,-0.03,0.99,0.97,-0.69,-0.13,
1.694,0.02,-0.03,0.99,0.97,-0.69,-0.13,
1.694,0.02,-0.03,0.99,1.02,-0.65,-0.32,
1.697,0.01,-0.03,1.00,1.02,-0.65,-0.32,
1.699,0.01,-0.03,1.00,1.02,-0.65,-0.32,
1.699,0.01,-0.03,1.00,1.02,-0.66,-0.30,
1.701,0.00,-0.03,1.00,1.02,-0.66,-0.30,
1.704,0.00,-0.03,1.00,0.94,-0.66,-0.26,
1.704,0.01,-0.03,1.01,0.94,-0.66,-0.26,
1.706,-0.00,-0.03,1.02,0.94,-0.66,-0.26,
1.709,-0.00,-0.03,1.02,0.85,-0.65,-0.18,
1.709,-0.01,-0.03,1.03,0.85,-0.65,-0.18,
1.711,-0.01,-0.02,1.03,0.85,-0.65,-0.18,
1.717,-0.01,-0.02,1.04,0.85,-0.65,-0.18,
1.718,-0.01,-0.02,1.04,0.73,-0.66,-0.02,
1.718,-0.01,-0.02,1.04,0.73,-0.66,-0.02,
1.72,0.00,-0.02,1.05,0.73,-0.66,-0.02,
1.72,0.00,-0.02,1.05,0.69,-0.62,0.08,
1.721,0.00,-0.02,1.05,0.69,-0.62,0.08,
1.724,0.00,-0.01,1.05,0.69,-0.62,0.08,
1.724,0.00,-0.01,1.05,0.71,-0.60,0.21,
1.726,0.00,-0.01,1.06,0.71,-0.60,0.21,
1.73,-0.00,-0.01,1.06,0.71,-0.60,0.21,
1.731,-0.00,-0.01,1.06,0.74,-0.56,0.27,
1.732,0.00,-0.01,1.06,0.74,-0.56,0.27,
1.734,0.00,-0.01,1.06,0.71,-0.57,0.34,
1.734,0.00,-0.01,1.06,0.71,-0.57,0.34,
1.736,-0.00,-0.00,1.05,0.71,-0.57,0.34,
1.739,-0.00,-0.01,1.05,0.71,-0.57,0.34,
1.739,-0.00,-0.01,1.05,0.68,-0.55,0.32,
1.741,-0.00,-0.01,1.04,0.68,-0.55,0.32,
1.744,-0.01,-0.01,1.04,0.68,-0.55,0.32,
1.744,-0.01,-0.01,1.04,0.64,-0.56,0.25,
1.747,-0.01,-0.00,1.03,0.64,-0.56,0.25,
1.748,-0.00,-0.01,1.03,0.64,-0.56,0.25,
1.749,-0.00,-0.01,1.03,0.59,-0.61,0.17,
1.751,-0.00,-0.00,1.03,0.59,-0.61,0.17,
1.753,-0.00,-0.00,1.02,0.59,-0.61,0.17,
1.754,-0.00,-0.00,1.02,0.59,-0.62,0.08,
1.756,-0.00,-0.00,1.01,0.59,-0.62,0.08,
1.759,-0.00,-0.00,1.01,0.60,-0.64,0.00,
1.759,0.00,0.00,1.01,0.60,-0.64,0.00,
1.761,0.00,-0.00,1.00,0.60,-0.64,0.00,
1.764,0.01,0.01,1.00,0.60,-0.64,0.00,
1.765,0.01,0.01,1.00,0.63,-0.62,-0.12,
1.766,0.01,0.01,1.00,0.63,-0.62,-0.12,
1.768,0.01,0.01,0.99,0.63,-0.62,-0.12,
1.769,0.01,0.01,0.99,0.66,-0.62,-0.22,
1.771,0.01,0.01,0.99,0.66,-0.62,-0.22,
1.773,0.01,0.02,0.98,0.66,-0.62,-0.22,
1.774,0.01,0.02,0.98,0.70,-0.59,-0.29,
1.775,0.01,0.02,0.97,0.70,-0.59,-0.29,
1.779,0.01,0.02,0.97,0.70,-0.59,-0.29,
1.78,0.01,0.02,0.97,0.69,-0.59,-0.35,
1.781,0.01,0.02,0.96,0.69,-0.59,-0.35,
1.783,0.01,0.02,0.96,0.70,-0.57,-0.51,
1.783,0.01,0.03,0.96,0.70,-0.57,-0.51,
1.785,0.02,0.03,0.95,0.70,-0.57,-0.51,
1.788,0.02,0.04,0.95,0.70,-0.57,-0.51,
1.788,0.02,0.04,0.95,0.68,-0.57,-0.64,
1.79,0.02,0.04,0.94,0.68,-0.57,-0.64,
1.793,0.02,0.05,0.94,0.68,-0.57,-0.64,
1.793,0.02,0.05,0.94,0.77,-0.47,-0.73,
1.796,0.02,0.05,0.94,0.77,-0.47,-0.73,
1.798,0.03,0.05,0.93,0.77,-0.47,-0.73,
1.798,0.03,0.05,0.93,0.77,-0.41,-0.77,
1.8,0.03,0.06,0.93,0.77,-0.41,-0.77,
1.803,0.03,0.06,0.93,0.83,-0.38,-0.86,
1.803,0.03,0.06,0.93,0.83,-0.38,-0.86,
1.805,0.03,0.06,0.93,0.83,-0.38,-0.86,
1.808,0.03,0.06,0.93,0.81,-0.35,-0.88,
1.808,0.03,0.06,0.93,0.81,-0.35,-0.88,
1.812,0.03,0.06,0.94,0.81,-0.35,-0.88,
1.814,0.03,0.06,0.94,0.81,-0.35,-0.88,
1.815,0.03,0.06,0.94,0.84,-0.35,-0.90,
1.815,0.02,0.06,0.93,0.84,-0.35,-0.90,
1.818,0.03,0.06,0.93,0.84,-0.35,-0.90,
1.818,0.03,0.06,0.93,0.81,-0.37,-0.82,
1.821,0.03,0.06,0.94,0.81,-0.37,-0.82,
1.824,0.03,0.06,0.94,0.81,-0.37,-0.82,
1.824,0.03,0.06,0.94,0.76,-0.42,-0.84,
1.826,0.03,0.05,0.93,0.76,-0.42,-0.84,
1.829,0.03,0.05,0.93,0.76,-0.42,-0.84,
1.829,0.03,0.05,0.93,0.77,-0.46,-0.83,
1.838,0.03,0.05,0.93,0.77,-0.46,-0.83,
1.838,0.03,0.05,0.93,0.74,-0.53,-0.87,
1.839,0.04,0.05,0.93,0.74,-0.53,-0.87,
1.839,0.04,0.05,0.93,0.74,-0.53,-0.87,
1.839,0.03,0.05,0.93,0.74,-0.53,-0.87,
1.839,0.03,0.05,0.93,0.78,-0.53,-0.90,
1.841,0.04,0.05,0.93,0.78,-0.53,-0.90,
1.843,0.04,0.05,0.92,0.78,-0.53,-0.90,
1.843,0.04,0.05,0.92,0.76,-0.57,-0.91,
1.846,0.03,0.05,0.92,0.76,-0.57,-0.91,
1.848,0.04,0.05,0.92,0.76,-0.57,-0.91,
1.849,0.04,0.05,0.92,0.77,-0.58,-0.94,
1.851,0.04,0.05,0.92,0.77,-0.58,-0.94,
1.853,0.04,0.05,0.92,0.76,-0.63,-0.93,
1.853,0.03,0.05,0.92,0.76,-0.63,-0.93,
1.855,0.03,0.05,0.93,0.76,-0.63,-0.93,
1.858,0.03,0.05,0.93,0.74,-0.67,-0.97,
1.858,0.03,0.05,0.92,0.74,-0.67,-0.97,
1.86,0.03,0.05,0.93,0.74,-0.67,-0.97,
1.864,0.03,0.05,0.93,0.74,-0.67,-0.97,
1.865,0.03,0.05,0.93,0.69,-0.67,-0.92,
1.865,0.03,0.05,0.92,0.69,-0.67,-0.92,
1.867,0.03,0.05,0.93,0.69,-0.67,-0.92,
1.867,0.03,0.05,0.93,0.71,-0.68,-0.85,
1.87,0.02,0.05,0.93,0.71,-0.68,-0.85,
1.873,0.02,0.05,0.93,0.68,-0.67,-0.89,
1.873,0.02,0.05,0.94,0.68,-0.67,-0.89,
1.875,0.01,0.05,0.93,0.68,-0.67,-0.89,
1.878,0.01,0.05,0.93,0.68,-0.67,-0.89,
1.878,0.01,0.05,0.93,0.59,-0.68,-0.81,
1.88,0.01,0.05,0.92,0.59,-0.68,-0.81,
1.883,0.01,0.05,0.92,0.53,-0.70,-0.82,
1.883,0.02,0.05,0.92,0.53,-0.70,-0.82,
1.884,0.02,0.05,0.92,0.53,-0.70,-0.82,
1.888,0.01,0.05,0.91,0.53,-0.70,-0.82,
1.888,0.01,0.05,0.91,0.55,-0.73,-0.90,
1.889,0.02,0.04,0.91,0.55,-0.73,-0.90,
1.893,0.02,0.04,0.91,0.55,-0.73,-0.90,
1.893,0.02,0.04,0.91,0.56,-0.77,-0.96,
1.895,0.02,0.04,0.91,0.56,-0.77,-0.96,
1.897,0.02,0.04,0.91,0.56,-0.77,-0.96,
1.897,0.02,0.04,0.91,0.56,-0.82,-1.02,
1.899,0.02,0.04,0.91,0.56,-0.82,-1.02,
1.903,0.02,0.04,0.91,0.57,-0.86,-1.02,
1.903,0.02,0.04,0.91,0.57,-0.86,-1.02,
1.905,0.02,0.04,0.90,0.57,-0.86,-1.02,
1.907,0.03,0.04,0.91,0.57,-0.86,-1.02,
1.907,0.03,0.04,0.91,0.59,-0.87,-1.06,
1.91,0.03,0.04,0.91,0.59,-0.87,-1.06,
1.912,0.03,0.04,0.91,0.59,-0.87,-1.06,
1.913,0.03,0.04,0.91,0.64,-0.90,-1.06,
1.915,0.04,0.03,0.92,0.64,-0.90,-1.06,
1.917,0.05,0.03,0.92,0.64,-0.90,-1.06,
1.917,0.05,0.03,0.92,0.68,-0.93,-1.03,
1.92,0.05,0.03,0.92,0.68,-0.93,-1.03,
1.923,0.05,0.03,0.92,0.81,-1.00,-0.91,
1.923,0.05,0.03,0.93,0.81,-1.00,-0.91,
1.925,0.05,0.02,0.93,0.81,-1.00,-0.91,
1.927,0.05,0.02,0.93,0.84,-1.05,-0.87,
1.927,0.06,0.02,0.94,0.84,-1.05,-0.87,
1.93,0.06,0.01,0.94,0.84,-1.05,-0.87,
1.932,0.06,0.01,0.94,0.90,-1.11,-0.75,
1.932,0.06,0.02,0.94,0.90,-1.11,-0.75,
1.934,0.06,0.03,0.95,0.90,-1.11,-0.75,
1.937,0.07,0.02,0.95,0.90,-1.11,-0.75,
1.937,0.07,0.02,0.95,0.94,-1.14,-0.69,
1.94,0.07,0.02,0.95,0.94,-1.14,-0.69,
1.942,0.07,0.02,0.95,0.94,-1.14,-0.69,
1.942,0.07,0.02,0.95,0.98,-1.08,-0.63,
1.945,0.07,0.03,0.95,0.98,-1.08,-0.63,
1.947,0.07,0.03,0.95,0.98,-1.08,-0.63,
1.947,0.07,0.03,0.95,1.03,-1.11,-0.61,
1.952,0.07,0.03,0.96,1.03,-1.11,-0.61,
1.952,0.06,0.04,0.95,1.03,-1.11,-0.61,
1.953,0.06,0.04,0.95,0.99,-1.08,-0.58,
1.955,0.06,0.04,0.95,0.99,-1.08,-0.58,
1.957,0.06,0.04,0.95,0.99,-1.08,-0.58,
1.957,0.06,0.04,0.95,0.91,-1.00,-0.58,
1.96,0.05,0.05,0.95,0.91,-1.00,-0.58,
1.961,0.05,0.05,0.94,0.91,-1.00,-0.58,
1.962,0.05,0.05,0.94,0.83,-0.93,-0.60,
1.965,0.04,0.05,0.94,0.83,-0.93,-0.60,
1.966,0.03,0.06,0.93,0.83,-0.93,-0.60,
1.967,0.03,0.06,0.93,0.72,-0.87,-0.69,
1.969,0.03,0.07,0.93,0.72,-0.87,-0.69,
1.971,0.02,0.07,0.91,0.72,-0.87,-0.69,
1.972,0.02,0.07,0.91,0.57,-0.80,-0.75,
1.974,0.01,0.07,0.90,0.57,-0.80,-0.75,
1.976,0.01,0.08,0.90,0.57,-0.80,-0.75,
1.976,0.01,0.08,0.90,0.43,-0.71,-0.90,
1.978,0.01,0.08,0.89,0.43,-0.71,-0.90,
1.981,0.01,0.08,0.89,0.28,-0.67,-1.09,
1.982,0.00,0.08,0.87,0.28,-0.67,-1.09,
1.983,-0.00,0.08,0.86,0.28,-0.67,-1.09,
1.986,-0.00,0.08,0.86,0.28,-0.67,-1.09,
1.986,-0.00,0.08,0.86,0.23,-0.63,-1.28,
1.988,-0.00,0.08,0.84,0.23,-0.63,-1.28,
1.991,-0.00,0.07,0.84,0.23,-0.63,-1.28,
1.992,-0.00,0.07,0.84,0.16,-0.65,-1.48,
1.993,0.00,0.07,0.83,0.16,-0.65,-1.48,
1.996,0.00,0.07,0.82,0.16,-0.65,-1.48,
1.996,0.00,0.07,0.82,0.14,-0.72,-1.63,
1.999,0.00,0.07,0.82,0.14,-0.72,-1.63,
2.001,0.01,0.06,0.81,0.14,-0.72,-1.63,
2.001,0.01,0.06,0.81,0.16,-0.77,-1.78,
2.003,0.01,0.06,0.81,0.16,-0.77,-1.78,
2.006,0.01,0.06,0.81,0.20,-0.83,-1.88,
2.006,0.01,0.06,0.81,0.20,-0.83,-1.88,
2.008,0.02,0.06,0.81,0.20,-0.83,-1.88,
2.011,0.02,0.07,0.82,0.20,-0.83,-1.88,
2.011,0.02,0.07,0.82,0.24,-0.89,-1.93,
2.014,0.02,0.07,0.83,0.24,-0.89,-1.93,
2.016,0.03,0.06,0.83,0.24,-0.89,-1.93,
2.017,0.03,0.06,0.83,0.33,-0.84,-1.88,
2.018,0.03,0.06,0.84,0.33,-0.84,-1.88,
2.021,0.03,0.06,0.84,0.34,-0.86,-1.72,
2.021,0.03,0.07,0.85,0.34,-0.86,-1.72,
2.023,0.04,0.07,0.86,0.34,-0.86,-1.72,
2.026,0.04,0.07,0.86,0.39,-0.86,-1.59,
2.028,0.05,0.07,0.88,0.39,-0.86,-1.59,
2.029,0.06,0.06,0.89,0.39,-0.86,-1.59,
2.031,0.06,0.06,0.89,0.49,-0.84,-1.35,
2.031,0.07,0.06,0.90,0.49,-0.84,-1.35,
2.036,0.07,0.07,0.91,0.49,-0.84,-1.35,
2.037,0.08,0.07,0.92,0.49,-0.84,-1.35,
2.037,0.08,0.07,0.92,0.66,-0.91,-1.12,
2.039,0.09,0.06,0.92,0.66,-0.91,-1.12,
2.041,0.10,0.07,0.93,0.66,-0.91,-1.12,
2.041,0.10,0.07,0.93,0.80,-0.84,-0.90,
2.043,0.10,0.07,0.94,0.80,-0.84,-0.90,
2.046,0.11,0.06,0.94,0.80,-0.84,-0.90,
2.046,0.11,0.06,0.94,0.91,-0.84,-0.78,
2.05,0.11,0.06,0.95,0.91,-0.84,-0.78,
2.051,0.11,0.06,0.95,0.91,-0.84,-0.78,
2.051,0.11,0.06,0.95,1.01,-0.83,-0.62,
2.053,0.11,0.06,0.96,1.01,-0.83,-0.62,
2.055,0.11,0.06,0.96,1.04,-0.85,-0.50,
2.056,0.11,0.06,0.95,1.04,-0.85,-0.50,
2.058,0.11,0.07,0.95,1.04,-0.85,-0.50,
2.06,0.11,0.07,0.95,0.98,-0.83,-0.48,
2.06,0.10,0.06,0.95,0.98,-0.83,-0.48,
2.062,0.10,0.07,0.95,0.98,-0.83,-0.48,
2.069,0.09,0.07,0.95,0.98,-0.83,-0.48,
2.07,0.09,0.07,0.95,0.97,-0.81,-0.53,
2.07,0.08,0.08,0.94,0.97,-0.81,-0.53,
2.07,0.08,0.08,0.93,0.97,-0.81,-0.53,
2.071,0.08,0.08,0.93,0.84,-0.78,-0.57,
2.073,0.07,0.08,0.93,0.84,-0.78,-0.57,
2.075,0.05,0.09,0.93,0.84,-0.78,-0.57,
2.075,0.05,0.09,0.93,0.69,-0.67,-0.66,
2.078,0.05,0.09,0.92,0.69,-0.67,-0.66,
2.081,0.05,0.09,0.92,0.53,-0.59,-0.77,
2.082,0.04,0.10,0.91,0.53,-0.59,-0.77,
2.082,0.03,0.10,0.90,0.53,-0.59,-0.77,
2.085,0.02,0.11,0.90,0.53,-0.59,-0.77,
2.085,0.02,0.11,0.90,0.38,-0.50,-0.90,
2.087,0.01,0.11,0.89,0.38,-0.50,-0.90,
2.09,-0.00,0.12,0.89,0.38,-0.50,-0.90,
2.09,-0.00,0.12,0.89,0.11,-0.38,-1.02,
2.092,-0.01,0.12,0.88,0.11,-0.38,-1.02,
2.095,-0.01,0.12,0.88,0.11,-0.38,-1.02,
2.095,-0.01,0.12,0.88,-0.06,-0.33,-1.15,
2.099,-0.02,0.11,0.88,-0.06,-0.33,-1.15,
2.101,-0.02,0.11,0.87,-0.06,-0.33,-1.15,
2.101,-0.02,0.11,0.87,-0.21,-0.27,-1.20,
2.103,-0.02,0.12,0.87,-0.21,-0.27,-1.20,
2.105,-0.02,0.12,0.87,-0.29,-0.30,-1.26,
2.106,-0.02,0.11,0.87,-0.29,-0.30,-1.26,
2.107,-0.02,0.11,0.88,-0.29,-0.30,-1.26,
2.111,-0.02,0.11,0.88,-0.29,-0.30,-1.26,
2.111,-0.02,0.11,0.88,-0.31,-0.28,-1.29,
2.113,-0.01,0.11,0.87,-0.31,-0.28,-1.29,
2.116,-0.01,0.11,0.87,-0.31,-0.28,-1.29,
2.117,-0.01,0.11,0.87,-0.31,-0.31,-1.24,
2.118,-0.01,0.11,0.88,-0.31,-0.31,-1.24,
2.12,-0.01,0.11,0.88,-0.26,-0.28,-1.27,
2.12,-0.01,0.12,0.89,-0.26,-0.28,-1.27,
2.123,-0.00,0.12,0.90,-0.26,-0.28,-1.27,
2.125,-0.00,0.12,0.90,-0.26,-0.28,-1.27,
2.126,-0.00,0.12,0.90,-0.26,-0.25,-1.16,
2.128,0.00,0.12,0.90,-0.26,-0.25,-1.16,
2.131,0.00,0.12,0.90,-0.21,-0.18,-1.02,
2.131,0.01,0.12,0.90,-0.21,-0.18,-1.02,
2.133,0.01,0.12,0.91,-0.21,-0.18,-1.02,
2.135,0.01,0.12,0.91,-0.21,-0.18,-1.02,
2.135,0.01,0.12,0.91,-0.15,-0.16,-0.99,
2.138,0.01,0.12,0.92,-0.15,-0.16,-0.99,
2.14,0.02,0.12,0.93,-0.15,-0.16,-0.99,
2.143,0.02,0.12,0.93,-0.14,-0.16,-0.89,
2.143,0.03,0.12,0.93,-0.14,-0.16,-0.89,
2.145,0.03,0.12,0.94,-0.14,-0.16,-0.89,
2.145,0.03,0.12,0.94,-0.10,-0.14,-0.75,
2.147,0.03,0.12,0.95,-0.10,-0.14,-0.75,
2.15,0.03,0.11,0.95,-0.10,-0.14,-0.75,
2.151,0.03,0.11,0.95,-0.02,-0.13,-0.63,
2.152,0.03,0.11,0.96,-0.02,-0.13,-0.63,
2.155,0.03,0.11,0.96,-0.01,-0.15,-0.48,
2.155,0.03,0.11,0.97,-0.01,-0.15,-0.48,
2.157,0.03,0.11,0.97,-0.01,-0.15,-0.48,
2.16,0.03,0.10,0.98,-0.01,-0.15,-0.48,
2.16,0.03,0.10,0.98,-0.02,-0.17,-0.34,
2.162,0.03,0.10,1.00,-0.02,-0.17,-0.34,
2.17,0.03,0.10,1.01,-0.02,-0.17,-0.34,
2.171,0.03,0.10,1.01,-0.05,-0.19,-0.21,
2.171,0.03,0.09,1.02,-0.05,-0.19,-0.21,
2.171,0.03,0.09,1.03,-0.05,-0.19,-0.21,
2.172,0.03,0.09,1.03,-0.08,-0.22,0.01,
2.172,0.02,0.09,1.02,-0.08,-0.22,0.01,
2.175,0.02,0.09,1.02,-0.12,-0.26,0.23,
2.175,0.02,0.09,1.03,-0.12,-0.26,0.23,
2.177,0.01,0.09,1.03,-0.12,-0.26,0.23,
2.181,0.01,0.09,1.03,-0.18,-0.27,0.24,
2.181,0.01,0.09,1.03,-0.18,-0.27,0.24,
2.181,0.01,0.09,1.03,-0.18,-0.27,0.24,
2.186,-0.00,0.09,1.03,-0.18,-0.27,0.24,
2.186,-0.00,0.09,1.03,-0.27,-0.26,0.27,
2.186,-0.01,0.09,1.03,-0.27,-0.26,0.27,
2.19,-0.02,0.09,1.03,-0.27,-0.26,0.27,
2.19,-0.02,0.09,1.03,-0.36,-0.25,0.28,
2.192,-0.02,0.09,1.02,-0.36,-0.25,0.28,
2.195,-0.03,0.09,1.02,-0.36,-0.25,0.28,
2.195,-0.03,0.09,1.02,-0.52,-0.24,0.27,
2.197,-0.04,0.09,1.02,-0.52,-0.24,0.27,
2.199,-0.05,0.09,1.01,-0.52,-0.24,0.27,
2.199,-0.05,0.09,1.01,-0.68,-0.28,0.17,
2.204,-0.06,0.09,1.00,-0.68,-0.28,0.17,
2.204,-0.06,0.09,1.00,-0.84,-0.26,0.09,
2.204,-0.06,0.10,0.99,-0.84,-0.26,0.09,
2.207,-0.07,0.10,0.97,-0.84,-0.26,0.09,
2.21,-0.08,0.10,0.96,-0.84,-0.26,0.09,
2.21,-0.08,0.10,0.96,-0.96,-0.24,-0.10,
2.212,-0.08,0.11,0.95,-0.96,-0.24,-0.10,
2.216,-0.09,0.11,0.94,-0.96,-0.24,-0.10,
2.217,-0.09,0.11,0.94,-1.10,-0.19,-0.35,
2.217,-0.09,0.11,0.93,-1.10,-0.19,-0.35,
2.219,-0.10,0.12,0.92,-1.10,-0.19,-0.35,
2.219,-0.10,0.12,0.92,-1.18,-0.15,-0.59,
2.222,-0.10,0.12,0.91,-1.18,-0.15,-0.59,
2.224,-0.10,0.12,0.91,-1.31,-0.08,-0.72,
2.224,-0.11,0.12,0.90,-1.31,-0.08,-0.72,
2.227,-0.11,0.12,0.90,-1.31,-0.08,-0.72,
2.229,-0.11,0.12,0.90,-1.37,-0.02,-0.89,
2.23,-0.11,0.13,0.90,-1.37,-0.02,-0.89,
2.231,-0.10,0.13,0.89,-1.37,-0.02,-0.89,
2.234,-0.10,0.13,0.88,-1.37,-0.02,-0.89,
2.234,-0.10,0.13,0.88,-1.39,-0.01,-1.00,
2.236,-0.10,0.14,0.89,-1.39,-0.01,-1.00,
2.239,-0.10,0.14,0.89,-1.32,0.05,-1.10,
2.239,-0.09,0.14,0.88,-1.32,0.05,-1.10,
2.241,-0.09,0.14,0.88,-1.32,0.05,-1.10,
2.244,-0.09,0.14,0.88,-1.27,0.13,-1.09,
2.244,-0.09,0.14,0.89,-1.27,0.13,-1.09,
2.246,-0.08,0.14,0.90,-1.27,0.13,-1.09,
2.251,-0.07,0.14,0.90,-1.27,0.13,-1.09,
2.252,-0.07,0.14,0.90,-1.19,0.15,-1.08,
2.252,-0.07,0.14,0.90,-1.19,0.15,-1.08,
2.254,-0.07,0.14,0.90,-1.09,0.14,-0.93,
2.254,-0.06,0.14,0.91,-1.09,0.14,-0.93,
2.257,-0.05,0.13,0.91,-1.09,0.14,-0.93,
2.259,-0.05,0.13,0.91,-1.09,0.14,-0.93,
2.259,-0.05,0.13,0.91,-0.97,0.11,-0.87,
2.261,-0.04,0.12,0.92,-0.97,0.11,-0.87,
2.264,-0.04,0.12,0.93,-0.97,0.11,-0.87,
2.264,-0.04,0.12,0.93,-0.84,0.07,-0.78,
2.27,-0.03,0.11,0.93,-0.84,0.07,-0.78,
2.27,-0.03,0.11,0.93,-0.84,0.07,-0.78,
2.27,-0.03,0.11,0.93,-0.75,-0.03,-0.67,
2.271,-0.03,0.11,0.93,-0.75,-0.03,-0.67,
2.274,-0.03,0.11,0.93,-0.70,-0.13,-0.62,
2.274,-0.03,0.10,0.93,-0.70,-0.13,-0.62,
2.276,-0.03,0.10,0.94,-0.70,-0.13,-0.62,
2.279,-0.03,0.10,0.94,-0.68,-0.14,-0.58,
2.279,-0.03,0.10,0.94,-0.68,-0.14,-0.58,
2.281,-0.03,0.10,0.94,-0.68,-0.14,-0.58,
2.284,-0.04,0.10,0.94,-0.68,-0.14,-0.58,
2.284,-0.04,0.10,0.94,-0.68,-0.19,-0.51,
2.286,-0.05,0.10,0.94,-0.68,-0.19,-0.51,
2.289,-0.04,0.10,0.94,-0.68,-0.19,-0.51,
2.289,-0.04,0.10,0.94,-0.79,-0.22,-0.50,
2.291,-0.05,0.10,0.93,-0.79,-0.22,-0.50,
2.294,-0.05,0.10,0.94,-0.79,-0.22,-0.50,
2.294,-0.05,0.10,0.94,-0.86,-0.15,-0.50,
2.296,-0.05,0.11,0.94,-0.86,-0.15,-0.50,
2.298,-0.06,0.11,0.93,-0.86,-0.15,-0.50,
2.298,-0.06,0.11,0.93,-0.88,-0.13,-0.52,
2.301,-0.07,0.11,0.93,-0.88,-0.13,-0.52,
2.303,-0.07,0.11,0.93,-0.96,-0.07,-0.56,
2.303,-0.07,0.11,0.93,-0.96,-0.07,-0.56,
2.306,-0.08,0.11,0.92,-0.96,-0.07,-0.56,
2.309,-0.09,0.11,0.92,-0.96,-0.07,-0.56,
2.309,-0.09,0.11,0.92,-1.07,-0.04,-0.61,
2.311,-0.09,0.10,0.91,-1.07,-0.04,-0.61,
2.314,-0.10,0.10,0.90,-1.07,-0.04,-0.61,
2.314,-0.10,0.10,0.90,-1.21,-0.07,-0.65,
2.317,-0.10,0.11,0.90,-1.21,-0.07,-0.65,
2.318,-0.10,0.10,0.89,-1.21,-0.07,-0.65,
2.318,-0.10,0.10,0.89,-1.31,-0.09,-0.80,
2.321,-0.10,0.10,0.88,-1.31,-0.09,-0.80,
2.323,-0.10,0.11,0.89,-1.31,-0.09,-0.80,
2.323,-0.10,0.11,0.89,-1.34,-0.08,-0.91,
2.325,-0.10,0.11,0.89,-1.34,-0.08,-0.91,
2.329,-0.10,0.11,0.89,-1.34,-0.05,-1.00,
2.329,-0.10,0.11,0.88,-1.34,-0.05,-1.00,
2.331,-0.10,0.11,0.89,-1.34,-0.05,-1.00,
2.334,-0.10,0.11,0.89,-1.34,-0.05,-1.00,
2.335,-0.10,0.11,0.89,-1.32,-0.01,-0.98,
2.335,-0.10,0.11,0.90,-1.32,-0.01,-0.98,
2.339,-0.10,0.11,0.90,-1.32,-0.01,-0.98,
2.34,-0.10,0.11,0.90,-1.29,0.02,-0.93,
2.34,-0.09,0.10,0.90,-1.29,0.02,-0.93,
2.342,-0.09,0.11,0.91,-1.29,0.02,-0.93,
2.343,-0.09,0.11,0.91,-1.25,0.01,-0.87,
2.349,-0.08,0.11,0.91,-1.25,0.01,-0.87,
2.349,-0.08,0.10,0.92,-1.25,0.01,-0.87,
2.349,-0.08,0.10,0.92,-1.17,0.01,-0.76,
2.351,-0.08,0.10,0.93,-1.17,0.01,-0.76,
2.354,-0.08,0.10,0.93,-1.05,-0.01,-0.68,
2.355,-0.08,0.10,0.94,-1.05,-0.01,-0.68,
2.356,-0.07,0.09,0.96,-1.05,-0.01,-0.68,
2.357,-0.08,0.09,0.97,-1.05,-0.01,-0.68,
2.358,-0.08,0.09,0.97,-1.05,-0.04,-0.47,
2.362,-0.08,0.09,0.98,-1.05,-0.04,-0.47,
2.363,-0.08,0.10,0.99,-1.05,-0.04,-0.47,
2.363,-0.08,0.10,0.99,-1.01,-0.05,-0.18,
2.368,-0.07,0.10,1.00,-1.01,-0.05,-0.18,
2.369,-0.07,0.10,1.00,-1.01,-0.05,-0.18,
2.369,-0.07,0.10,1.00,-1.01,-0.00,0.01,
2.372,-0.07,0.11,1.00,-1.01,-0.00,0.01,
2.372,-0.07,0.11,1.01,-1.01,-0.00,0.01,
2.373,-0.07,0.11,1.01,-0.97,0.03,0.15,
2.374,-0.07,0.11,1.01,-0.97,0.03,0.15,
2.379,-0.07,0.11,1.01,-0.94,0.13,0.20,
2.379,-0.08,0.11,1.02,-0.94,0.13,0.20,
2.38,-0.08,0.12,1.01,-0.94,0.13,0.20,
2.389,-0.08,0.12,1.01,-0.94,0.13,0.20,
2.39,-0.08,0.12,1.01,-1.00,0.19,0.30,
2.39,-0.08,0.12,1.01,-1.00,0.19,0.30,
2.391,-0.09,0.13,1.01,-1.00,0.19,0.30,
2.391,-0.09,0.13,1.01,-1.03,0.28,0.25,
2.391,-0.09,0.13,1.01,-1.03,0.28,0.25,
2.392,-0.10,0.13,1.01,-1.03,0.28,0.25,
2.392,-0.10,0.13,1.01,-1.07,0.36,0.26,
2.395,-0.11,0.13,1.00,-1.07,0.36,0.26,
2.398,-0.11,0.13,1.00,-1.17,0.42,0.20,
2.399,-0.11,0.13,0.99,-1.17,0.42,0.20,
2.402,-0.12,0.13,0.99,-1.17,0.42,0.20,
2.403,-0.12,0.13,0.99,-1.28,0.45,0.11,
2.403,-0.12,0.13,0.98,-1.28,0.45,0.11,
2.406,-0.12,0.14,0.98,-1.28,0.45,0.11,
2.409,-0.13,0.13,0.98,-1.28,0.45,0.11,
2.409,-0.13,0.13,0.98,-1.40,0.40,0.02,
2.41,-0.13,0.13,0.98,-1.40,0.40,0.02,
2.412,-0.13,0.13,0.98,-1.47,0.46,-0.02,
2.413,-0.13,0.13,0.97,-1.47,0.46,-0.02,
2.418,-0.13,0.13,0.97,-1.47,0.46,-0.02,
2.419,-0.13,0.12,0.97,-1.47,0.46,-0.02,
2.419,-0.13,0.12,0.97,-1.50,0.41,-0.09,
2.419,-0.13,0.12,0.97,-1.50,0.41,-0.09,
2.424,-0.13,0.12,0.97,-1.52,0.36,-0.12,
2.424,-0.14,0.11,0.98,-1.52,0.36,-0.12,
2.426,-0.14,0.11,0.98,-1.52,0.36,-0.12,
2.427,-0.13,0.11,0.98,-1.52,0.36,-0.12,
2.427,-0.13,0.11,0.98,-1.52,0.26,-0.06,
2.43,-0.13,0.11,0.98,-1.52,0.26,-0.06,
2.437,-0.14,0.11,0.99,-1.52,0.26,-0.06,
2.438,-0.14,0.11,0.99,-1.51,0.23,-0.05,
2.438,-0.13,0.11,0.99,-1.51,0.23,-0.05,
2.438,-0.13,0.11,1.00,-1.51,0.23,-0.05,
2.438,-0.13,0.11,1.00,-1.49,0.22,0.00,
2.44,-0.13,0.11,1.00,-1.49,0.22,0.00,
2.443,-0.13,0.11,1.00,-1.43,0.23,0.07,
2.443,-0.13,0.12,1.01,-1.43,0.23,0.07,
2.444,-0.13,0.12,1.00,-1.43,0.23,0.07,
2.449,-0.12,0.12,1.00,-1.43,0.23,0.07,
2.45,-0.12,0.12,1.00,-1.40,0.28,0.19,
2.45,-0.12,0.12,1.00,-1.40,0.28,0.19,
2.454,-0.12,0.12,1.00,-1.36,0.35,0.14,
2.454,-0.12,0.12,1.00,-1.36,0.35,0.14,
2.454,-0.12,0.12,1.00,-1.36,0.35,0.14,
2.458,-0.12,0.13,0.99,-1.36,0.35,0.14,
2.458,-0.12,0.13,0.99,-1.31,0.35,0.13,
2.46,-0.12,0.12,1.00,-1.31,0.35,0.13,
2.461,-0.12,0.13,1.00,-1.31,0.35,0.13,
2.462,-0.12,0.13,1.00,-1.28,0.36,0.10,
2.464,-0.11,0.13,0.99,-1.28,0.36,0.10,
2.468,-0.10,0.13,0.99,-1.28,0.36,0.10,
2.468,-0.10,0.13,0.99,-1.24,0.35,0.10,
2.469,-0.10,0.13,0.99,-1.24,0.35,0.10,
2.473,-0.09,0.13,0.98,-1.24,0.35,0.10,
2.473,-0.09,0.13,0.98,-1.12,0.39,0.05,
2.474,-0.09,0.13,0.98,-1.12,0.39,0.05,
2.478,-0.09,0.13,0.98,-1.01,0.43,-0.01,
2.479,-0.08,0.13,0.98,-1.01,0.43,-0.01,
2.479,-0.08,0.13,0.97,-1.01,0.43,-0.01,
2.481,-0.08,0.13,0.97,-1.01,0.43,-0.01,
2.482,-0.08,0.13,0.97,-0.93,0.41,-0.07,
2.486,-0.08,0.13,0.97,-0.93,0.41,-0.07,
2.486,-0.08,0.13,0.97,-0.84,0.44,-0.18,
2.487,-0.08,0.13,0.96,-0.84,0.44,-0.18,
2.489,-0.08,0.13,0.95,-0.84,0.44,-0.18,
2.492,-0.07,0.13,0.95,-0.84,0.44,-0.18,
2.492,-0.07,0.13,0.95,-0.84,0.43,-0.22,
2.495,-0.07,0.13,0.95,-0.84,0.43,-0.22,
2.496,-0.08,0.13,0.95,-0.84,0.43,-0.22,
2.496,-0.08,0.13,0.95,-0.79,0.42,-0.32,
2.499,-0.08,0.12,0.95,-0.79,0.42,-0.32,
2.502,-0.08,0.12,0.95,-0.78,0.38,-0.37,
2.503,-0.07,0.12,0.95,-0.78,0.38,-0.37,
2.503,-0.07,0.11,0.95,-0.78,0.38,-0.37,
2.507,-0.07,0.11,0.95,-0.78,0.38,-0.37,
2.507,-0.07,0.11,0.95,-0.77,0.33,-0.36,
2.508,-0.07,0.10,0.95,-0.77,0.33,-0.36,
2.512,-0.07,0.11,0.95,-0.77,0.33,-0.36,
2.512,-0.07,0.11,0.95,-0.75,0.22,-0.38,
2.514,-0.07,0.10,0.95,-0.75,0.22,-0.38,
2.516,-0.07,0.09,0.96,-0.75,0.22,-0.38,
2.516,-0.07,0.09,0.96,-0.73,0.16,-0.34,
2.518,-0.07,0.09,0.96,-0.73,0.16,-0.34,
2.521,-0.08,0.09,0.97,-0.73,0.16,-0.34,
2.521,-0.08,0.09,0.97,-0.73,0.08,-0.30,
2.524,-0.08,0.10,0.98,-0.73,0.08,-0.30,
2.527,-0.08,0.09,0.98,-0.73,0.08,-0.30,
2.527,-0.08,0.09,0.98,-0.72,0.05,-0.17,
2.529,-0.08,0.10,0.98,-0.72,0.05,-0.17,
2.531,-0.08,0.10,0.98,-0.72,0.05,-0.17,
2.532,-0.08,0.10,0.98,-0.74,0.07,-0.05,
2.535,-0.08,0.10,0.98,-0.74,0.07,-0.05,
2.536,-0.08,0.10,0.99,-0.74,0.07,-0.05,
2.537,-0.08,0.10,0.99,-0.71,0.13,-0.03,
2.538,-0.08,0.11,0.99,-0.71,0.13,-0.03,
2.541,-0.08,0.11,1.00,-0.71,0.13,-0.03,
2.542,-0.08,0.11,1.00,-0.71,0.12,0.01,
2.544,-0.08,0.11,0.99,-0.71,0.12,0.01,
2.546,-0.08,0.11,0.99,-0.71,0.12,0.01,
2.546,-0.08,0.11,0.99,-0.69,0.19,0.06,
2.549,-0.08,0.12,0.99,-0.69,0.19,0.06,
2.551,-0.08,0.12,0.99,-0.69,0.19,0.06,
2.552,-0.08,0.12,0.99,-0.66,0.23,0.03,
2.553,-0.07,0.12,0.99,-0.66,0.23,0.03,
2.556,-0.07,0.12,0.99,-0.66,0.23,0.03,
2.557,-0.07,0.12,0.99,-0.63,0.33,0.04,
2.558,-0.07,0.12,1.00,-0.63,0.33,0.04,
2.562,-0.07,0.13,1.00,-0.63,0.33,0.04,
2.562,-0.07,0.13,1.00,-0.57,0.35,0.05,
2.563,-0.06,0.13,0.99,-0.57,0.35,0.05,
2.566,-0.06,0.13,1.00,-0.57,0.35,0.05,
2.566,-0.06,0.13,1.00,-0.53,0.36,0.15,
2.569,-0.05,0.12,1.00,-0.53,0.36,0.15,
2.57,-0.05,0.12,1.00,-0.53,0.36,0.15,
2.571,-0.05,0.12,1.00,-0.45,0.37,0.09,
2.573,-0.05,0.12,1.00,-0.45,0.37,0.09,
2.576,-0.04,0.11,1.00,-0.45,0.37,0.09,
2.576,-0.04,0.11,1.00,-0.33,0.31,0.12,
2.578,-0.04,0.11,1.00,-0.33,0.31,0.12,
2.581,-0.03,0.11,1.00,-0.33,0.31,0.12,
2.581,-0.03,0.11,1.00,-0.27,0.25,0.13,
2.583,-0.03,0.10,1.00,-0.27,0.25,0.13,
2.586,-0.03,0.10,1.00,-0.27,0.25,0.13,
2.586,-0.03,0.10,1.00,-0.17,0.18,0.12,
2.588,-0.03,0.09,1.01,-0.17,0.18,0.12,
2.591,-0.03,0.10,1.00,-0.17,0.18,0.12,
2.591,-0.03,0.10,1.00,-0.10,0.11,0.15,
2.593,-0.03,0.09,0.99,-0.10,0.11,0.15,
2.596,-0.03,0.09,1.00,-0.10,0.11,0.15,
2.596,-0.03,0.09,1.00,-0.09,0.05,0.18,
2.598,-0.03,0.09,0.99,-0.09,0.05,0.18,
2.605,-0.04,0.10,0.99,-0.09,0.05,0.18,
2.607,-0.04,0.10,0.99,-0.10,0.04,0.08,
2.607,-0.04,0.10,0.98,-0.10,0.04,0.08,
2.607,-0.05,0.10,0.98,-0.10,0.04,0.08,
2.607,-0.05,0.10,0.98,-0.14,0.07,0.05,
2.607,-0.05,0.10,0.98,-0.14,0.07,0.05,
2.61,-0.06,0.10,0.98,-0.14,0.07,0.05,
2.611,-0.06,0.10,0.98,-0.22,0.08,-0.04,
2.612,-0.07,0.11,0.97,-0.22,0.08,-0.04,
2.616,-0.07,0.11,0.97,-0.22,0.08,-0.04,
2.616,-0.07,0.11,0.97,-0.34,0.10,-0.09,
2.618,-0.08,0.12,0.97,-0.34,0.10,-0.09,
2.62,-0.08,0.12,0.96,-0.34,0.10,-0.09,
2.62,-0.08,0.12,0.96,-0.42,0.17,-0.13,
2.622,-0.08,0.12,0.96,-0.42,0.17,-0.13,
2.625,-0.08,0.12,0.96,-0.52,0.26,-0.19,
2.625,-0.08,0.12,0.96,-0.52,0.26,-0.19,
2.627,-0.09,0.13,0.96,-0.52,0.26,-0.19,
2.629,-0.09,0.13,0.95,-0.52,0.26,-0.19,
2.63,-0.09,0.13,0.95,-0.54,0.28,-0.26,
2.632,-0.10,0.13,0.95,-0.54,0.28,-0.26,
2.636,-0.10,0.13,0.95,-0.54,0.28,-0.26,
2.639,-0.10,0.13,0.95,-0.61,0.38,-0.28,
2.639,-0.10,0.12,0.96,-0.61,0.38,-0.28,
2.641,-0.10,0.12,0.96,-0.61,0.38,-0.28,
2.641,-0.10,0.12,0.96,-0.66,0.34,-0.32,
2.642,-0.10,0.12,0.97,-0.66,0.34,-0.32,
2.645,-0.10,0.11,0.97,-0.66,0.34,-0.32,
2.645,-0.10,0.11,0.97,-0.71,0.30,-0.25,
2.647,-0.09,0.11,0.98,-0.71,0.30,-0.25,
2.651,-0.09,0.11,0.98,-0.71,0.30,-0.25,
2.652,-0.09,0.11,0.98,-0.68,0.23,-0.16,
2.652,-0.08,0.11,0.98,-0.68,0.23,-0.16,
2.654,-0.08,0.11,0.99,-0.68,0.23,-0.16,
2.655,-0.08,0.11,0.99,-0.57,0.19,-0.04,
2.657,-0.07,0.11,1.00,-0.57,0.19,-0.04,
2.659,-0.07,0.11,1.00,-0.49,0.20,0.04,
2.66,-0.07,0.11,1.01,-0.49,0.20,0.04,
2.662,-0.07,0.11,1.02,-0.49,0.20,0.04,
2.664,-0.07,0.10,1.02,-0.49,0.20,0.04,
2.664,-0.07,0.10,1.02,-0.37,0.20,0.17,
2.669,-0.07,0.10,1.03,-0.37,0.20,0.17,
2.669,-0.06,0.10,1.03,-0.37,0.20,0.17,
2.67,-0.06,0.10,1.03,-0.34,0.16,0.33,
2.672,-0.06,0.10,1.03,-0.34,0.16,0.33,
2.674,-0.06,0.10,1.03,-0.34,0.16,0.33,
2.675,-0.06,0.10,1.03,-0.31,0.12,0.42,
2.676,-0.06,0.10,1.04,-0.31,0.12,0.42,
2.679,-0.06,0.10,1.04,-0.28,0.09,0.47,
2.679,-0.06,0.10,1.04,-0.28,0.09,0.47,
2.682,-0.06,0.10,1.04,-0.28,0.09,0.47,
2.684,-0.06,0.10,1.05,-0.28,0.09,0.47,
2.685,-0.06,0.10,1.05,-0.29,0.11,0.51,
2.687,-0.06,0.11,1.04,-0.29,0.11,0.51,
2.689,-0.07,0.11,1.04,-0.29,0.11,0.51,
2.689,-0.07,0.11,1.04,-0.29,0.13,0.55,
2.691,-0.07,0.11,1.04,-0.29,0.13,0.55,
2.694,-0.07,0.11,1.04,-0.29,0.13,0.55,
2.694,-0.07,0.11,1.04,-0.32,0.19,0.54,
2.696,-0.07,0.11,1.04,-0.32,0.19,0.54,
2.699,-0.08,0.11,1.04,-0.32,0.19,0.54,
2.699,-0.08,0.11,1.04,-0.37,0.21,0.52,
2.706,-0.08,0.11,1.03,-0.37,0.21,0.52,
2.707,-0.08,0.11,1.02,-0.37,0.21,0.52,
2.707,-0.08,0.11,1.02,-0.40,0.22,0.49,
2.707,-0.08,0.11,1.02,-0.40,0.22,0.49,
2.709,-0.07,0.11,1.02,-0.40,0.22,0.49,
2.709,-0.07,0.11,1.02,-0.41,0.22,0.39,
2.711,-0.07,0.12,1.00,-0.41,0.22,0.39,
2.714,-0.07,0.12,1.00,-0.41,0.22,0.39,
2.714,-0.07,0.12,1.00,-0.36,0.22,0.30,
2.716,-0.07,0.12,1.00,-0.36,0.22,0.30,
2.725,-0.07,0.12,0.99,-0.36,0.22,0.30,
2.725,-0.07,0.12,0.99,-0.34,0.27,0.11,
2.725,-0.06,0.12,0.98,-0.34,0.27,0.11,
2.725,-0.07,0.12,0.98,-0.34,0.27,0.11,
2.726,-0.07,0.12,0.98,-0.32,0.27,0.03,
2.73,-0.06,0.11,0.97,-0.32,0.27,0.03,
2.73,-0.06,0.11,0.97,-0.27,0.27,-0.12,
2.73,-0.06,0.12,0.97,-0.27,0.27,-0.12,
2.731,-0.06,0.12,0.97,-0.27,0.27,-0.12,
2.735,-0.06,0.12,0.96,-0.27,0.27,-0.12,
2.735,-0.06,0.12,0.96,-0.25,0.23,-0.19,
2.737,-0.05,0.11,0.97,-0.25,0.23,-0.19,
2.739,-0.05,0.11,0.96,-0.25,0.23,-0.19,
2.739,-0.05,0.11,0.96,-0.19,0.24,-0.25,
2.741,-0.05,0.11,0.97,-0.19,0.24,-0.25,
2.744,-0.04,0.11,0.97,-0.19,0.24,-0.25,
2.744,-0.04,0.11,0.97,-0.13,0.21,-0.23,
2.746,-0.04,0.10,0.97,-0.13,0.21,-0.23,
2.749,-0.04,0.10,0.98,-0.13,0.21,-0.23,
2.75,-0.04,0.10,0.98,-0.06,0.19,-0.22,
2.753,-0.03,0.10,0.98,-0.06,0.19,-0.22,
2.754,-0.02,0.09,1.00,-0.06,0.19,-0.22,
2.754,-0.02,0.09,1.00,0.01,0.09,-0.12,
2.756,-0.02,0.09,1.01,0.01,0.09,-0.12,
2.759,-0.02,0.09,1.01,0.01,0.09,-0.12,
2.759,-0.02,0.09,1.01,0.12,0.06,-0.02,
2.761,-0.02,0.08,1.02,0.12,0.06,-0.02,
2.763,-0.01,0.08,1.02,0.12,0.06,-0.02,
2.763,-0.01,0.08,1.02,0.17,-0.02,0.21,
2.765,-0.02,0.08,1.03,0.17,-0.02,0.21,
2.77,-0.01,0.07,1.03,0.17,-0.02,0.21,
2.771,-0.01,0.07,1.03,0.23,-0.10,0.32,
2.771,-0.01,0.07,1.03,0.23,-0.10,0.32,
2.774,-0.01,0.07,1.04,0.23,-0.10,0.32,
2.774,-0.01,0.07,1.04,0.24,-0.13,0.39,
2.776,-0.01,0.07,1.04,0.24,-0.13,0.39,
2.778,-0.01,0.07,1.04,0.28,-0.18,0.46,
2.778,-0.01,0.07,1.04,0.28,-0.18,0.46,
2.78,-0.01,0.06,1.03,0.28,-0.18,0.46,
2.785,-0.01,0.06,1.04,0.28,-0.18,0.46,
2.786,-0.01,0.06,1.04,0.28,-0.20,0.47,
2.786,-0.01,0.06,1.04,0.28,-0.20,0.47,
2.788,-0.01,0.07,1.04,0.28,-0.20,0.47,
2.788,-0.01,0.07,1.04,0.25,-0.26,0.44,
2.79,-0.01,0.07,1.03,0.25,-0.26,0.44,
2.793,-0.01,0.07,1.04,0.25,-0.26,0.44,
2.793,-0.01,0.07,1.04,0.26,-0.24,0.47,
2.795,-0.01,0.08,1.04,0.26,-0.24,0.47,
2.798,-0.01,0.08,1.03,0.26,-0.24,0.47,
2.798,-0.01,0.08,1.03,0.24,-0.19,0.43,
2.802,-0.01,0.07,1.03,0.24,-0.19,0.43,
2.807,-0.01,0.09,0.98,0.24,-0.19,0.43,
2.808,-0.01,0.09,0.98,0.24,-0.12,0.42,
2.808,-0.02,0.09,0.91,0.24,-0.12,0.42,
2.808,-0.03,0.10,0.86,0.24,-0.12,0.42,
2.809,-0.03,0.10,0.86,0.23,-0.09,0.16,
2.811,-0.02,0.11,0.88,0.23,-0.09,0.16,
2.814,-0.02,0.11,0.88,0.11,0.09,-1.04,
2.814,-0.00,0.11,0.93,0.11,0.09,-1.04,
2.816,-0.00,0.11,0.96,0.11,0.09,-1.04,
2.825,-0.00,0.11,0.96,0.11,0.09,-1.04,
2.826,-0.00,0.11,0.96,0.22,0.18,-0.84,
2.826,-0.01,0.11,0.97,0.22,0.18,-0.84,
2.827,-0.02,0.11,0.97,0.22,0.18,-0.84,
2.827,-0.02,0.11,0.97,0.33,0.22,-0.28,
2.827,-0.02,0.11,0.97,0.33,0.22,-0.28,
2.829,-0.01,0.11,0.96,0.33,0.22,-0.28,
2.83,-0.01,0.11,0.96,0.25,0.20,-0.16,
2.83,-0.01,0.10,0.95,0.25,0.20,-0.16,
2.833,-0.01,0.10,0.95,0.20,0.18,-0.25,
2.833,-0.00,0.10,0.94,0.20,0.18,-0.25,
2.841,-0.01,0.10,0.94,0.20,0.18,-0.25,
2.841,-0.01,0.10,0.93,0.20,0.18,-0.25,
2.842,-0.01,0.10,0.93,0.28,0.14,-0.45,
2.842,-0.01,0.10,0.94,0.28,0.14,-0.45,
2.843,-0.02,0.10,0.94,0.28,0.14,-0.45,
2.843,-0.02,0.10,0.94,0.29,0.12,-0.51,
2.846,-0.02,0.11,0.94,0.29,0.12,-0.51,
2.848,-0.02,0.11,0.95,0.29,0.12,-0.51,
2.848,-0.02,0.11,0.95,0.23,0.14,-0.45,
2.85,-0.03,0.11,0.96,0.23,0.14,-0.45,
2.852,-0.04,0.10,0.98,0.23,0.14,-0.45,
2.853,-0.04,0.10,0.98,0.17,0.19,-0.41,
2.855,-0.03,0.10,0.98,0.17,0.19,-0.41,
2.857,-0.04,0.10,0.98,0.17,0.19,-0.41,
2.858,-0.04,0.10,0.98,0.04,0.16,-0.17,
2.86,-0.03,0.10,0.99,0.04,0.16,-0.17,
2.863,-0.03,0.09,1.01,0.04,0.16,-0.17,
2.863,-0.03,0.09,1.01,0.03,0.15,-0.07,
2.865,-0.03,0.09,1.02,0.03,0.15,-0.07,
2.87,-0.03,0.08,1.03,0.03,0.15,-0.07,
2.87,-0.03,0.08,1.03,0.10,0.10,0.11,
2.871,-0.03,0.08,1.04,0.10,0.10,0.11,
2.873,-0.05,0.09,1.06,0.10,0.10,0.11,
2.873,-0.05,0.09,1.06,0.09,-0.06,0.38,
2.875,-0.06,0.09,1.07,0.09,-0.06,0.38,
2.877,-0.06,0.09,1.07,0.09,-0.06,0.38,
2.878,-0.06,0.09,1.07,0.00,0.00,0.60,
2.88,-0.07,0.10,1.07,0.00,0.00,0.60,
2.883,-0.08,0.10,1.06,0.00,0.00,0.60,
2.883,-0.08,0.10,1.06,-0.21,0.03,0.76,
2.886,-0.08,0.10,1.05,-0.21,0.03,0.76,
2.887,-0.08,0.10,1.04,-0.21,0.03,0.76,
2.888,-0.08,0.10,1.04,-0.34,0.11,0.74,
2.89,-0.08,0.10,1.02,-0.34,0.11,0.74,
2.892,-0.08,0.09,1.01,-0.34,0.11,0.74,
2.892,-0.08,0.09,1.01,-0.37,0.10,0.51,
2.894,-0.08,0.09,0.99,-0.37,0.10,0.51,
2.898,-0.08,0.09,0.99,-0.37,0.10,0.51,
2.898,-0.08,0.09,0.99,-0.41,0.06,0.23,
2.9,-0.09,0.09,0.99,-0.41,0.06,0.23,
2.904,-0.09,0.08,0.98,-0.41,0.06,0.23,
2.904,-0.09,0.08,0.98,-0.42,0.01,-0.03,
2.905,-0.09,0.08,0.98,-0.42,0.01,-0.03,
