
time,gFx,gFy,gFz,ax,ay,az,
0.002,-0.09,-0.01,0.93,-0.00,0.18,-0.79,
0.003,-0.09,-0.01,0.93,-0.12,0.27,-0.79,
0.003,-0.08,-0.02,0.93,-0.12,0.27,-0.79,
0.003,-0.08,-0.02,0.94,-0.12,0.27,-0.79,
0.003,-0.08,-0.02,0.94,-0.23,0.29,-0.74,
0.004,-0.08,-0.02,0.95,-0.23,0.29,-0.74,
0.006,-0.08,-0.03,0.95,-0.23,0.29,-0.74,
0.007,-0.08,-0.03,0.95,-0.17,0.20,-0.64,
0.008,-0.07,-0.03,0.95,-0.17,0.20,-0.64,
0.011,-0.06,-0.03,0.96,-0.17,0.20,-0.64,
0.011,-0.06,-0.03,0.96,-0.15,0.16,-0.50,
0.015,-0.06,-0.04,0.96,-0.15,0.16,-0.50,
0.015,-0.06,-0.04,0.96,-0.15,0.16,-0.50,
0.016,-0.06,-0.04,0.96,-0.02,0.08,-0.44,
0.018,-0.06,-0.04,0.96,-0.02,0.08,-0.44,
0.021,-0.06,-0.04,0.96,-0.02,0.08,-0.44,
0.021,-0.06,-0.04,0.96,0.02,0.06,-0.38,
0.023,-0.05,-0.04,0.96,0.02,0.06,-0.38,
0.028,-0.05,-0.04,0.95,0.02,0.06,-0.38,
0.028,-0.05,-0.04,0.95,0.08,0.07,-0.36,
0.028,-0.06,-0.05,0.95,0.08,0.07,-0.36,
0.031,-0.06,-0.04,0.95,0.08,0.07,-0.36,
0.031,-0.06,-0.04,0.95,0.09,0.00,-0.40,
0.033,-0.07,-0.04,0.95,0.09,0.00,-0.40,
0.036,-0.06,-0.04,0.94,0.09,0.00,-0.40,
0.036,-0.06,-0.04,0.94,0.05,0.01,-0.46,
0.038,-0.06,-0.04,0.93,0.05,0.01,-0.46,
0.041,-0.07,-0.04,0.95,0.05,0.01,-0.46,
0.041,-0.07,-0.04,0.95,0.00,0.05,-0.54,
0.046,-0.07,-0.04,0.94,0.00,0.05,-0.54,
0.047,-0.07,-0.05,0.95,0.00,0.05,-0.54,
0.047,-0.07,-0.05,0.95,-0.02,0.08,-0.55,
0.047,-0.08,-0.05,0.94,-0.02,0.08,-0.55,
0.05,-0.08,-0.05,0.94,-0.02,0.08,-0.55,
0.05,-0.08,-0.05,0.94,-0.09,0.02,-0.49,
0.052,-0.07,-0.05,0.94,-0.09,0.02,-0.49,
0.055,-0.07,-0.04,0.95,-0.09,0.02,-0.49,
0.055,-0.07,-0.04,0.95,-0.15,0.01,-0.54,
0.057,-0.07,-0.04,0.94,-0.15,0.01,-0.54,
0.06,-0.06,-0.04,0.95,-0.15,0.01,-0.54,
0.06,-0.06,-0.04,0.95,-0.13,0.05,-0.49,
0.063,-0.06,-0.05,0.96,-0.13,0.05,-0.49,
0.065,-0.06,-0.05,0.96,-0.03,0.06,-0.44,
0.065,-0.05,-0.05,0.96,-0.03,0.06,-0.44,
0.067,-0.05,-0.05,0.97,-0.03,0.06,-0.44,
0.07,-0.05,-0.06,0.97,-0.03,0.06,-0.44,
0.07,-0.05,-0.06,0.97,0.07,0.05,-0.34,
0.073,-0.05,-0.07,0.98,0.07,0.05,-0.34,
0.077,-0.04,-0.07,0.98,0.07,0.05,-0.34,
0.078,-0.04,-0.07,0.98,0.07,0.00,-0.22,
0.078,-0.04,-0.07,0.98,0.07,0.00,-0.22,
0.08,-0.04,-0.07,0.98,0.13,-0.10,-0.14,
0.08,-0.04,-0.08,0.99,0.13,-0.10,-0.14,
0.083,-0.04,-0.07,0.99,0.13,-0.10,-0.14,
0.085,-0.04,-0.07,0.99,0.13,-0.10,-0.14,
0.085,-0.04,-0.07,0.99,0.13,-0.16,-0.08,
0.087,-0.04,-0.07,0.99,0.13,-0.16,-0.08,
0.09,-0.04,-0.08,0.99,0.13,-0.16,-0.08,
0.09,-0.04,-0.08,0.99,0.16,-0.13,-0.08,
0.092,-0.05,-0.07,1.00,0.16,-0.13,-0.08,
0.095,-0.05,-0.07,1.00,0.16,-0.13,-0.08,
0.095,-0.05,-0.07,1.00,0.15,-0.12,-0.05,
0.097,-0.04,-0.07,1.01,0.15,-0.12,-0.05,
0.1,-0.05,-0.07,1.02,0.15,-0.12,-0.05,
0.101,-0.05,-0.07,1.02,0.07,-0.07,0.03,
0.103,-0.05,-0.08,1.02,0.07,-0.07,0.03,
0.105,-0.06,-0.08,1.01,0.07,-0.07,0.03,
0.105,-0.06,-0.08,1.01,0.06,-0.07,0.16,
0.107,-0.06,-0.08,1.02,0.06,-0.07,0.16,
0.109,-0.05,-0.08,1.02,0.06,-0.07,0.16,
0.11,-0.05,-0.08,1.02,-0.04,-0.13,0.22,
0.112,-0.05,-0.08,1.03,-0.04,-0.13,0.22,
0.114,-0.05,-0.08,1.03,-0.04,-0.13,0.22,
0.115,-0.05,-0.08,1.03,-0.06,-0.09,0.28,
0.117,-0.05,-0.09,1.02,-0.06,-0.09,0.28,
0.12,-0.05,-0.09,1.02,-0.06,-0.09,0.28,
0.12,-0.05,-0.09,1.02,-0.01,-0.08,0.32,
0.122,-0.04,-0.08,1.03,-0.01,-0.08,0.32,
0.125,-0.05,-0.06,1.02,-0.01,-0.08,0.32,
0.125,-0.05,-0.06,1.02,0.05,-0.15,0.25,
0.127,-0.05,-0.06,1.02,0.05,-0.15,0.25,
0.129,-0.04,-0.07,1.02,0.05,-0.15,0.25,
0.13,-0.04,-0.07,1.02,0.03,0.03,0.30,
0.132,-0.05,-0.07,1.02,0.03,0.03,0.30,
0.135,-0.05,-0.07,1.03,0.03,0.03,0.30,
0.135,-0.05,-0.07,1.03,0.05,0.12,0.23,
0.137,-0.05,-0.06,1.03,0.05,0.12,0.23,
0.14,-0.06,-0.06,1.02,0.05,0.12,0.23,
0.14,-0.06,-0.06,1.02,0.00,0.10,0.28,
0.142,-0.06,-0.06,1.01,0.00,0.10,0.28,
0.144,-0.05,-0.06,1.01,0.00,0.10,0.28,
0.144,-0.05,-0.06,1.01,-0.03,0.14,0.29,
0.147,-0.05,-0.06,1.01,-0.03,0.14,0.29,
0.15,-0.06,-0.06,1.01,-0.03,0.14,0.29,
0.15,-0.06,-0.06,1.01,-0.08,0.16,0.16,
0.152,-0.06,-0.06,1.01,-0.08,0.16,0.16,
0.154,-0.06,-0.06,1.00,-0.08,0.16,0.16,
0.155,-0.06,-0.06,1.00,-0.08,0.15,0.12,
0.157,-0.07,-0.06,1.00,-0.08,0.15,0.12,
0.163,-0.07,-0.06,1.01,-0.08,0.15,0.12,
0.168,-0.07,-0.06,1.01,-0.12,0.17,0.06,
0.169,-0.07,-0.06,1.01,-0.12,0.17,0.06,
0.169,-0.07,-0.06,1.01,-0.22,0.19,0.11,
0.17,-0.07,-0.06,1.00,-0.22,0.19,0.11,
0.17,-0.07,-0.06,1.01,-0.22,0.19,0.11,
0.17,-0.07,-0.06,1.01,-0.22,0.17,0.09,
0.171,-0.07,-0.06,1.01,-0.22,0.17,0.09,
0.171,-0.07,-0.06,1.01,-0.22,0.17,0.09,
0.174,-0.07,-0.06,1.03,-0.22,0.17,0.09,
0.175,-0.07,-0.06,1.03,-0.23,0.17,0.11,
0.177,-0.06,-0.06,1.03,-0.23,0.17,0.11,
0.178,-0.06,-0.07,1.03,-0.23,0.17,0.11,
0.179,-0.06,-0.07,1.03,-0.22,0.20,0.22,
0.182,-0.05,-0.07,1.02,-0.22,0.20,0.22,
0.184,-0.04,-0.07,1.03,-0.22,0.20,0.22,
0.185,-0.04,-0.07,1.03,-0.11,0.14,0.30,
0.187,-0.04,-0.08,1.04,-0.11,0.14,0.30,
0.189,-0.04,-0.08,1.04,-0.01,0.16,0.31,
0.189,-0.04,-0.09,1.04,-0.01,0.16,0.31,
0.192,-0.03,-0.09,1.03,-0.01,0.16,0.31,
0.194,-0.03,-0.09,1.03,0.07,0.01,0.45,
0.195,-0.02,-0.10,1.03,0.07,0.01,0.45,
0.196,-0.02,-0.10,1.03,0.07,0.01,0.45,
0.198,-0.01,-0.11,1.03,0.07,0.01,0.45,
0.198,-0.01,-0.11,1.03,0.16,-0.11,0.34,
0.202,0.01,-0.11,1.02,0.16,-0.11,0.34,
0.204,0.01,-0.11,1.02,0.16,-0.11,0.34,
0.204,0.01,-0.11,1.02,0.31,-0.18,0.33,
0.206,0.02,-0.12,1.02,0.31,-0.18,0.33,
0.209,0.02,-0.12,1.01,0.31,-0.18,0.33,
0.209,0.02,-0.12,1.01,0.50,-0.23,0.24,
0.211,0.03,-0.12,1.02,0.50,-0.23,0.24,
0.213,0.03,-0.11,1.02,0.50,-0.23,0.24,
0.214,0.03,-0.11,1.02,0.57,-0.31,0.18,
0.217,0.04,-0.12,1.02,0.57,-0.31,0.18,
0.219,0.03,-0.12,1.02,0.57,-0.31,0.18,
0.219,0.03,-0.12,1.02,0.67,-0.26,0.20,
0.221,0.04,-0.13,1.02,0.67,-0.26,0.20,
0.224,0.05,-0.13,1.02,0.67,-0.26,0.20,
0.224,0.05,-0.13,1.02,0.70,-0.28,0.23,
0.227,0.03,-0.13,1.03,0.70,-0.28,0.23,
0.228,0.03,-0.13,1.03,0.70,-0.28,0.23,
0.228,0.03,-0.13,1.03,0.78,-0.35,0.24,
0.231,0.02,-0.13,1.03,0.78,-0.35,0.24,
0.234,0.03,-0.12,1.03,0.78,-0.35,0.24,
0.234,0.03,-0.12,1.03,0.62,-0.36,0.35,
0.236,0.03,-0.11,1.04,0.62,-0.36,0.35,
0.239,0.02,-0.12,1.06,0.62,-0.36,0.35,
0.239,0.02,-0.12,1.06,0.57,-0.27,0.29,
0.241,0.01,-0.13,1.09,0.57,-0.27,0.29,
0.243,-0.00,-0.12,1.10,0.57,-0.27,0.29,
0.243,-0.00,-0.12,1.10,0.57,-0.20,0.49,
0.246,-0.00,-0.12,1.10,0.57,-0.20,0.49,
0.248,0.00,-0.12,1.10,0.57,-0.20,0.49,
0.249,0.00,-0.12,1.10,0.34,-0.29,0.95,
0.251,0.01,-0.12,1.09,0.34,-0.29,0.95,
0.254,0.02,-0.12,1.09,0.34,-0.29,0.95,
0.254,0.02,-0.12,1.09,0.30,-0.25,0.94,
0.256,0.02,-0.12,1.08,0.30,-0.25,0.94,
0.258,0.03,-0.14,1.08,0.30,-0.25,0.94,
0.259,0.03,-0.14,1.08,0.45,-0.20,0.87,
0.261,0.06,-0.17,1.08,0.45,-0.20,0.87,
0.263,0.06,-0.16,1.07,0.45,-0.20,0.87,
0.263,0.06,-0.16,1.07,0.47,-0.32,0.76,
0.266,0.05,-0.14,1.06,0.47,-0.32,0.76,
0.268,0.05,-0.13,1.05,0.47,-0.32,0.76,
0.269,0.05,-0.13,1.05,0.82,-0.66,0.72,
0.271,0.03,-0.11,1.06,0.82,-0.66,0.72,
0.273,0.01,-0.09,1.08,0.82,-0.66,0.72,
0.273,0.01,-0.09,1.08,0.68,-0.32,0.55,
0.276,0.01,-0.09,1.08,0.68,-0.32,0.55,
0.281,0.02,-0.10,1.09,0.68,-0.32,0.55,
0.282,0.02,-0.10,1.09,0.40,-0.01,0.66,
0.282,0.03,-0.10,1.08,0.40,-0.01,0.66,
0.283,0.03,-0.11,1.08,0.40,-0.01,0.66,
0.284,0.03,-0.11,1.08,0.30,0.04,0.81,
0.285,0.03,-0.11,1.07,0.30,0.04,0.81,
0.288,0.02,-0.11,1.06,0.30,0.04,0.81,
0.289,0.02,-0.11,1.06,0.46,-0.05,0.75,
0.291,0.01,-0.11,1.06,0.46,-0.05,0.75,
0.294,0.01,-0.11,1.06,0.46,-0.05,0.75,
0.295,0.01,-0.11,1.06,0.38,-0.10,0.59,
0.295,0.01,-0.10,1.07,0.38,-0.10,0.59,
0.297,0.01,-0.11,1.06,0.38,-0.10,0.59,
0.297,0.01,-0.11,1.06,0.22,-0.09,0.57,
0.3,0.00,-0.11,1.06,0.22,-0.09,0.57,
0.302,-0.00,-0.11,1.07,0.22,-0.09,0.57,
0.302,-0.00,-0.11,1.07,0.17,-0.11,0.56,
0.305,0.00,-0.10,1.06,0.17,-0.11,0.56,
0.307,0.00,-0.10,1.06,0.17,-0.11,0.56,
0.307,0.00,-0.10,1.06,0.12,-0.15,0.56,
0.31,0.00,-0.10,1.05,0.12,-0.15,0.56,
0.312,-0.00,-0.09,1.05,0.12,-0.15,0.56,
0.312,-0.00,-0.09,1.05,0.12,-0.08,0.51,
0.314,-0.00,-0.09,1.05,0.12,-0.08,0.51,
0.318,-0.01,-0.09,1.05,0.12,-0.08,0.51,
0.318,-0.01,-0.09,1.05,0.09,-0.02,0.42,
0.319,-0.01,-0.09,1.05,0.09,-0.02,0.42,
0.322,-0.02,-0.09,1.04,0.09,-0.02,0.42,
0.323,-0.02,-0.09,1.04,0.00,-0.03,0.42,
0.325,-0.02,-0.09,1.03,0.00,-0.03,0.42,
0.327,-0.02,-0.10,1.04,0.00,-0.03,0.42,
0.328,-0.02,-0.10,1.04,-0.08,0.01,0.32,
0.329,-0.01,-0.11,1.04,-0.08,0.01,0.32,
0.333,-0.01,-0.10,1.02,-0.08,0.01,0.32,
0.333,-0.01,-0.10,1.02,-0.13,-0.06,0.28,
0.334,-0.02,-0.09,1.02,-0.13,-0.06,0.28,
0.337,-0.02,-0.09,1.02,-0.06,-0.17,0.19,
0.337,-0.02,-0.09,1.03,-0.06,-0.17,0.19,
0.339,-0.02,-0.08,1.01,-0.06,-0.17,0.19,
0.343,-0.02,-0.08,1.00,-0.06,-0.17,0.19,
0.344,-0.02,-0.08,1.00,-0.10,-0.02,0.16,
0.345,-0.03,-0.07,0.99,-0.10,-0.02,0.16,
0.347,-0.04,-0.07,0.98,-0.10,-0.02,0.16,
0.348,-0.04,-0.07,0.98,-0.14,0.02,-0.02,
0.349,-0.05,-0.07,0.98,-0.14,0.02,-0.02,
0.352,-0.04,-0.07,0.96,-0.14,0.02,-0.02,
0.352,-0.04,-0.07,0.96,-0.24,0.09,-0.22,
0.354,-0.05,-0.07,0.95,-0.24,0.09,-0.22,
0.357,-0.06,-0.07,0.95,-0.24,0.09,-0.22,
0.357,-0.06,-0.07,0.95,-0.35,0.07,-0.40,
0.36,-0.06,-0.07,0.93,-0.35,0.07,-0.40,
0.362,-0.07,-0.07,0.93,-0.35,0.07,-0.40,
0.362,-0.07,-0.07,0.93,-0.42,0.05,-0.61,
0.364,-0.07,-0.07,0.92,-0.42,0.05,-0.61,
0.367,-0.07,-0.06,0.92,-0.42,0.05,-0.61,
0.367,-0.07,-0.06,0.92,-0.51,0.02,-0.73,
0.369,-0.07,-0.06,0.92,-0.51,0.02,-0.73,
0.371,-0.08,-0.06,0.92,-0.51,0.02,-0.73,
0.372,-0.08,-0.06,0.92,-0.56,0.09,-0.85,
0.374,-0.07,-0.05,0.91,-0.56,0.09,-0.85,
0.381,-0.08,-0.04,0.92,-0.56,0.09,-0.85,
0.381,-0.08,-0.04,0.92,-0.61,0.16,-0.91,
0.382,-0.08,-0.04,0.92,-0.61,0.16,-0.91,
0.382,-0.08,-0.04,0.92,-0.61,0.16,-0.91,
0.382,-0.08,-0.04,0.92,-0.61,0.23,-0.90,
0.384,-0.08,-0.04,0.93,-0.61,0.23,-0.90,
0.386,-0.08,-0.04,0.92,-0.61,0.23,-0.90,
0.387,-0.08,-0.04,0.92,-0.64,0.27,-0.88,
0.389,-0.08,-0.04,0.93,-0.64,0.27,-0.88,
0.391,-0.08,-0.04,0.94,-0.64,0.27,-0.88,
0.391,-0.08,-0.04,0.94,-0.65,0.26,-0.81,
0.395,-0.08,-0.03,0.94,-0.65,0.26,-0.81,
0.396,-0.09,-0.03,0.94,-0.65,0.26,-0.81,
0.396,-0.09,-0.03,0.94,-0.68,0.29,-0.71,
0.399,-0.08,-0.03,0.95,-0.68,0.29,-0.71,
0.401,-0.08,-0.03,0.94,-0.68,0.29,-0.71,
0.402,-0.08,-0.03,0.94,-0.69,0.33,-0.67,
0.404,-0.08,-0.03,0.94,-0.69,0.33,-0.67,
0.406,-0.08,-0.04,0.95,-0.69,0.33,-0.67,
0.407,-0.08,-0.04,0.95,-0.70,0.33,-0.62,
0.41,-0.08,-0.04,0.95,-0.70,0.33,-0.62,
0.411,-0.08,-0.04,0.95,-0.70,0.33,-0.62,
0.411,-0.08,-0.04,0.95,-0.67,0.33,-0.60,
0.414,-0.08,-0.04,0.96,-0.67,0.33,-0.60,
0.416,-0.08,-0.04,0.95,-0.67,0.33,-0.60,
0.417,-0.08,-0.04,0.95,-0.67,0.29,-0.53,
0.418,-0.07,-0.04,0.94,-0.67,0.29,-0.53,
0.421,-0.07,-0.04,0.95,-0.67,0.29,-0.53,
0.421,-0.07,-0.04,0.95,-0.63,0.26,-0.49,
0.424,-0.07,-0.04,0.96,-0.63,0.26,-0.49,
0.427,-0.06,-0.04,0.96,-0.63,0.26,-0.49,
0.427,-0.06,-0.04,0.96,-0.54,0.24,-0.55,
0.428,-0.05,-0.04,0.96,-0.54,0.24,-0.55,
0.431,-0.05,-0.05,0.96,-0.54,0.24,-0.55,
0.431,-0.05,-0.05,0.96,-0.47,0.23,-0.44,
0.433,-0.04,-0.05,0.96,-0.47,0.23,-0.44,
0.436,-0.04,-0.05,0.96,-0.47,0.23,-0.44,
0.436,-0.04,-0.05,0.96,-0.36,0.17,-0.45,
0.439,-0.04,-0.05,0.96,-0.36,0.17,-0.45,
0.441,-0.04,-0.05,0.96,-0.36,0.17,-0.45,
0.441,-0.04,-0.05,0.96,-0.27,0.15,-0.43,
0.444,-0.03,-0.05,0.97,-0.27,0.15,-0.43,
0.446,-0.04,-0.05,0.96,-0.27,0.15,-0.43,
0.446,-0.04,-0.05,0.96,-0.23,0.15,-0.42,
0.448,-0.04,-0.05,0.96,-0.23,0.15,-0.42,
0.451,-0.04,-0.05,0.96,-0.23,0.15,-0.42,
0.451,-0.04,-0.05,0.96,-0.23,0.11,-0.38,
0.453,-0.04,-0.05,0.97,-0.23,0.11,-0.38,
0.456,-0.04,-0.05,0.97,-0.23,0.11,-0.38,
0.456,-0.04,-0.05,0.97,-0.26,0.09,-0.41,
0.458,-0.04,-0.05,0.96,-0.26,0.09,-0.41,
0.461,-0.04,-0.05,0.96,-0.29,0.09,-0.34,
0.462,-0.04,-0.05,0.96,-0.29,0.09,-0.34,
0.463,-0.04,-0.05,0.95,-0.29,0.09,-0.34,
0.466,-0.04,-0.05,0.96,-0.29,0.09,-0.34,
0.466,-0.04,-0.05,0.96,-0.27,0.09,-0.45,
0.468,-0.04,-0.05,0.95,-0.27,0.09,-0.45,
0.47,-0.05,-0.06,0.96,-0.27,0.09,-0.45,
0.471,-0.05,-0.06,0.96,-0.28,0.09,-0.46,
0.473,-0.04,-0.05,0.95,-0.28,0.09,-0.46,
0.477,-0.04,-0.05,0.95,-0.28,0.09,-0.46,
0.477,-0.04,-0.05,0.95,-0.29,0.06,-0.43,
0.482,-0.04,-0.05,0.94,-0.29,0.06,-0.43,
0.483,-0.04,-0.05,0.94,-0.29,0.06,-0.43,
0.483,-0.04,-0.05,0.94,-0.26,0.10,-0.53,
0.483,-0.04,-0.05,0.94,-0.26,0.10,-0.53,
0.487,-0.04,-0.05,0.94,-0.26,0.10,-0.53,
0.487,-0.04,-0.05,0.94,-0.24,0.12,-0.55,
0.488,-0.04,-0.05,0.93,-0.24,0.12,-0.55,
0.49,-0.04,-0.05,0.94,-0.24,0.12,-0.55,
0.491,-0.04,-0.05,0.94,-0.26,0.10,-0.60,
0.494,-0.04,-0.05,0.94,-0.26,0.10,-0.60,
0.496,-0.04,-0.05,0.94,-0.26,0.10,-0.60,
0.496,-0.04,-0.05,0.94,-0.25,0.06,-0.63,
0.498,-0.04,-0.05,0.94,-0.25,0.06,-0.63,
0.5,-0.03,-0.05,0.94,-0.25,0.06,-0.63,
0.5,-0.03,-0.05,0.94,-0.24,0.08,-0.61,
0.503,-0.03,-0.05,0.94,-0.24,0.08,-0.61,
0.505,-0.03,-0.06,0.94,-0.24,0.08,-0.61,
0.505,-0.03,-0.06,0.94,-0.20,0.09,-0.55,
0.508,-0.02,-0.06,0.95,-0.20,0.09,-0.55,
0.511,-0.02,-0.05,0.95,-0.20,0.09,-0.55,
0.511,-0.02,-0.05,0.95,-0.14,0.05,-0.59,
0.513,-0.02,-0.06,0.95,-0.14,0.05,-0.59,
0.515,-0.02,-0.06,0.96,-0.14,0.05,-0.59,
0.516,-0.02,-0.06,0.96,-0.09,0.04,-0.49,
0.518,-0.02,-0.06,0.96,-0.09,0.04,-0.49,
0.52,-0.02,-0.06,0.97,-0.09,0.04,-0.49,
0.52,-0.02,-0.06,0.97,-0.06,0.03,-0.42,
0.522,-0.01,-0.06,0.97,-0.06,0.03,-0.42,
0.527,-0.02,-0.06,0.98,-0.06,0.03,-0.42,
0.528,-0.02,-0.06,0.98,-0.05,-0.03,-0.31,
0.528,-0.01,-0.06,0.98,-0.05,-0.03,-0.31,
0.53,-0.01,-0.06,0.98,-0.05,-0.03,-0.31,
0.531,-0.01,-0.06,0.98,0.00,0.01,-0.21,
0.532,-0.01,-0.06,0.99,0.00,0.01,-0.21,
0.535,-0.01,-0.06,0.99,0.00,0.01,-0.21,
0.535,-0.01,-0.06,0.99,0.02,-0.01,-0.14,
0.537,-0.01,-0.07,1.00,0.02,-0.01,-0.14,
0.541,-0.00,-0.07,1.00,0.02,-0.01,-0.14,
0.541,-0.00,-0.07,1.00,0.05,0.00,-0.07,
0.542,-0.01,-0.07,1.00,0.05,0.00,-0.07,
0.546,0.00,-0.07,0.99,0.05,0.00,-0.07,
0.546,0.00,-0.07,0.99,0.08,-0.05,0.02,
0.547,-0.00,-0.07,1.00,0.08,-0.05,0.02,
0.55,-0.00,-0.07,1.00,0.08,-0.05,0.02,
0.55,-0.00,-0.07,1.00,0.11,-0.06,-0.02,
0.552,-0.00,-0.07,0.99,0.11,-0.06,-0.02,
0.555,0.00,-0.07,0.99,0.11,-0.06,-0.02,
0.555,0.00,-0.07,0.99,0.13,-0.07,0.01,
0.557,0.00,-0.07,0.99,0.13,-0.07,0.01,
0.561,-0.00,-0.08,0.99,0.13,-0.07,0.01,
0.561,-0.00,-0.08,0.99,0.13,-0.08,-0.05,
0.562,-0.00,-0.07,0.99,0.13,-0.08,-0.05,
0.565,-0.00,-0.08,0.99,0.13,-0.08,-0.05,
0.566,-0.00,-0.08,0.99,0.15,-0.12,-0.06,
0.567,-0.01,-0.07,1.00,0.15,-0.12,-0.06,
0.57,-0.01,-0.08,1.00,0.15,-0.12,-0.06,
0.57,-0.01,-0.08,1.00,0.12,-0.10,-0.06,
0.573,-0.01,-0.08,0.99,0.12,-0.10,-0.06,
0.575,-0.01,-0.07,1.00,0.12,-0.10,-0.06,
0.576,-0.01,-0.07,1.00,0.08,-0.11,-0.00,
0.578,-0.02,-0.07,1.00,0.08,-0.11,-0.00,
0.58,-0.02,-0.07,0.99,0.08,-0.11,-0.00,
0.58,-0.02,-0.07,0.99,0.06,-0.09,-0.01,
0.583,-0.01,-0.07,1.00,0.06,-0.09,-0.01,
0.585,-0.01,-0.07,1.00,-0.01,-0.06,0.01,
0.586,-0.02,-0.07,1.00,-0.01,-0.06,0.01,
0.587,-0.02,-0.06,1.00,-0.01,-0.06,0.01,
0.591,-0.02,-0.06,1.00,-0.01,-0.06,0.01,
0.591,-0.02,-0.06,1.00,-0.01,-0.02,0.03,
0.595,-0.02,-0.06,0.99,-0.01,-0.02,0.03,
0.595,-0.02,-0.06,1.00,-0.01,-0.02,0.03,
0.595,-0.02,-0.06,1.00,-0.03,0.03,0.02,
0.6,-0.01,-0.06,1.00,-0.03,0.03,0.02,
0.601,-0.01,-0.06,1.00,-0.01,0.05,0.00,
0.601,-0.01,-0.06,1.00,-0.01,0.05,0.00,
0.602,-0.01,-0.06,1.00,-0.01,0.05,0.00,
0.604,-0.01,-0.06,1.00,-0.01,0.05,0.00,
0.605,-0.01,-0.06,1.00,0.04,0.05,0.01,
0.607,-0.01,-0.06,1.00,0.04,0.05,0.01,
0.61,-0.01,-0.06,1.00,0.04,0.05,0.01,
0.61,-0.01,-0.06,1.00,0.04,0.05,0.01,
0.612,-0.01,-0.06,1.00,0.04,0.05,0.01,
0.614,-0.01,-0.06,1.00,0.04,0.05,0.01,
0.614,-0.01,-0.06,1.00,0.06,0.04,0.06,
0.617,-0.01,-0.06,1.00,0.06,0.04,0.06,
0.62,-0.01,-0.06,1.01,0.06,0.04,0.06,
0.62,-0.01,-0.06,1.01,0.06,0.04,0.04,
0.622,-0.01,-0.06,1.00,0.06,0.04,0.04,
0.625,-0.01,-0.06,1.00,0.06,0.04,0.04,
0.625,-0.01,-0.06,1.00,0.07,0.09,0.08,
0.629,-0.01,-0.06,1.00,0.07,0.09,0.08,
0.63,-0.01,-0.06,1.00,0.07,0.09,0.08,
0.63,-0.01,-0.06,1.00,0.07,0.07,0.06,
0.632,-0.01,-0.06,1.00,0.07,0.07,0.06,
0.635,-0.01,-0.06,1.00,0.07,0.07,0.06,
0.635,-0.01,-0.06,1.00,0.06,0.07,0.05,
0.637,-0.02,-0.06,1.00,0.06,0.07,0.05,
0.64,-0.02,-0.06,1.01,0.06,0.07,0.05,
0.64,-0.02,-0.06,1.01,0.07,0.09,0.05,
0.642,-0.02,-0.06,1.00,0.07,0.09,0.05,
0.645,-0.02,-0.06,1.00,0.07,0.09,0.05,
0.646,-0.02,-0.06,1.00,0.04,0.04,0.06,
0.646,-0.02,-0.06,1.00,0.04,0.04,0.06,
0.65,-0.02,-0.06,1.00,0.04,0.04,0.06,
0.65,-0.02,-0.06,1.00,0.01,0.05,0.05,
0.652,-0.02,-0.06,1.01,0.01,0.05,0.05,
0.654,-0.02,-0.06,1.01,0.01,0.07,0.06,
0.657,-0.02,-0.06,1.00,0.01,0.07,0.06,
0.657,-0.01,-0.06,1.01,0.01,0.07,0.06,
0.659,-0.01,-0.07,1.01,0.01,0.07,0.06,
0.66,-0.01,-0.07,1.01,0.04,0.05,0.09,
0.663,-0.01,-0.06,1.01,0.04,0.05,0.09,
0.663,-0.01,-0.07,1.02,0.04,0.05,0.09,
0.664,-0.01,-0.07,1.02,0.12,0.00,0.11,
0.667,-0.01,-0.06,1.01,0.12,0.00,0.11,
0.669,-0.01,-0.07,1.02,0.12,0.00,0.11,
0.669,-0.01,-0.07,1.02,0.12,0.02,0.16,
0.672,-0.01,-0.06,1.02,0.12,0.02,0.16,
0.674,-0.01,-0.06,1.02,0.12,0.02,0.16,
0.674,-0.01,-0.06,1.02,0.14,0.01,0.19,
0.677,-0.01,-0.07,1.02,0.14,0.01,0.19,
0.679,-0.01,-0.07,1.02,0.14,0.01,0.19,
0.679,-0.01,-0.07,1.02,0.15,0.02,0.21,
0.681,-0.01,-0.07,1.02,0.15,0.02,0.21,
0.684,-0.01,-0.07,1.02,0.15,0.02,0.21,
0.684,-0.01,-0.07,1.02,0.12,-0.02,0.25,
0.686,-0.01,-0.07,1.03,0.12,-0.02,0.25,
0.689,-0.01,-0.07,1.03,0.12,-0.02,0.25,
0.689,-0.01,-0.07,1.03,0.14,-0.01,0.24,
0.692,-0.01,-0.07,1.03,0.14,-0.01,0.24,
0.694,-0.01,-0.07,1.03,0.14,-0.01,0.24,
0.694,-0.01,-0.07,1.03,0.14,-0.00,0.29,
0.696,-0.01,-0.07,1.03,0.14,-0.00,0.29,
0.698,-0.01,-0.07,1.03,0.14,-0.00,0.29,
0.698,-0.01,-0.07,1.03,0.11,0.01,0.30,
0.702,-0.02,-0.07,1.02,0.11,0.01,0.30,
0.704,-0.02,-0.07,1.02,0.10,-0.01,0.28,
0.704,-0.01,-0.07,1.02,0.10,-0.01,0.28,
0.706,-0.01,-0.07,1.01,0.10,-0.01,0.28,
0.709,-0.01,-0.07,1.01,0.10,-0.01,0.28,
0.709,-0.01,-0.07,1.01,0.06,-0.00,0.24,
0.715,-0.01,-0.07,1.01,0.06,-0.00,0.24,
0.716,-0.01,-0.07,1.00,0.06,-0.00,0.24,
0.716,-0.01,-0.07,1.00,0.09,-0.07,0.14,
0.716,-0.01,-0.07,1.00,0.09,-0.07,0.14,
0.718,-0.01,-0.08,1.00,0.09,-0.07,0.14,
0.719,-0.01,-0.08,1.00,0.12,-0.05,0.07,
0.721,-0.01,-0.07,0.99,0.12,-0.05,0.07,
0.723,-0.01,-0.07,0.99,0.12,-0.05,0.07,
0.723,-0.01,-0.07,0.99,0.12,-0.07,-0.01,
0.725,-0.01,-0.08,0.99,0.12,-0.07,-0.01,
0.729,-0.01,-0.08,0.99,0.12,-0.07,-0.01,
0.73,-0.01,-0.08,0.99,0.11,-0.07,-0.08,
0.73,-0.01,-0.07,0.99,0.11,-0.07,-0.08,
0.733,-0.01,-0.08,0.99,0.11,-0.07,-0.08,
0.733,-0.01,-0.08,0.99,0.10,-0.09,-0.07,
0.735,-0.01,-0.07,0.99,0.10,-0.09,-0.07,
0.738,-0.01,-0.07,0.99,0.10,-0.09,-0.07,
0.738,-0.01,-0.07,0.99,0.12,-0.07,-0.07,
0.74,-0.00,-0.07,0.99,0.12,-0.07,-0.07,
0.743,-0.01,-0.07,1.00,0.12,-0.07,-0.07,
0.743,-0.01,-0.07,1.00,0.13,-0.04,-0.05,
0.745,-0.01,-0.07,1.00,0.13,-0.04,-0.05,
0.748,-0.01,-0.07,1.01,0.13,-0.04,-0.05,
0.748,-0.01,-0.07,1.01,0.14,-0.02,-0.05,
0.75,-0.01,-0.07,1.00,0.14,-0.02,-0.05,
0.753,-0.01,-0.07,1.01,0.14,-0.02,-0.05,
0.753,-0.01,-0.07,1.01,0.10,0.01,0.05,
0.755,-0.01,-0.07,1.01,0.10,0.01,0.05,
0.757,-0.01,-0.07,1.01,0.10,0.01,0.05,
0.758,-0.01,-0.07,1.01,0.12,-0.03,0.09,
0.761,-0.02,-0.07,1.02,0.12,-0.03,0.09,
0.764,-0.01,-0.07,1.02,0.12,-0.03,0.09,
0.764,-0.01,-0.07,1.02,0.07,-0.04,0.15,
0.765,-0.01,-0.07,1.02,0.07,-0.04,0.15,
0.768,-0.01,-0.07,1.02,0.07,-0.04,0.15,
0.768,-0.01,-0.07,1.02,0.07,-0.01,0.20,
0.771,-0.01,-0.07,1.02,0.07,-0.01,0.20,
0.773,-0.02,-0.07,1.02,0.07,-0.01,0.20,
0.773,-0.02,-0.07,1.02,0.10,0.00,0.20,
0.776,-0.02,-0.07,1.01,0.10,0.00,0.20,
0.778,-0.02,-0.06,1.01,0.10,0.00,0.20,
0.778,-0.02,-0.06,1.01,0.07,0.02,0.18,
0.78,-0.03,-0.06,1.01,0.07,0.02,0.18,
0.783,-0.03,-0.06,1.01,0.01,0.02,0.14,
0.784,-0.03,-0.06,1.01,0.01,0.02,0.14,
0.786,-0.03,-0.06,1.01,0.01,0.02,0.14,
0.788,-0.04,-0.06,1.01,0.01,0.02,0.14,
0.788,-0.04,-0.06,1.01,-0.09,0.04,0.13,
0.79,-0.04,-0.06,1.01,-0.09,0.04,0.13,
0.793,-0.03,-0.06,1.01,-0.09,0.04,0.13,
0.793,-0.03,-0.06,1.01,-0.14,0.09,0.10,
0.796,-0.04,-0.06,1.00,-0.14,0.09,0.10,
0.797,-0.04,-0.06,1.00,-0.14,0.09,0.10,
0.798,-0.04,-0.06,1.00,-0.15,0.07,0.11,
0.801,-0.04,-0.06,1.00,-0.15,0.07,0.11,
0.803,-0.03,-0.06,1.00,-0.15,0.07,0.11,
0.803,-0.03,-0.06,1.00,-0.15,0.05,0.04,
0.805,-0.04,-0.06,1.00,-0.15,0.05,0.04,
0.807,-0.03,-0.06,1.00,-0.15,0.05,0.04,
0.808,-0.03,-0.06,1.00,-0.12,0.04,0.01,
0.81,-0.03,-0.06,1.01,-0.12,0.04,0.01,
0.816,-0.03,-0.06,1.00,-0.12,0.04,0.01,
0.816,-0.03,-0.06,1.00,-0.13,0.05,0.02,
0.817,-0.03,-0.06,1.00,-0.13,0.05,0.02,
0.819,-0.03,-0.06,1.01,-0.13,0.05,0.02,
0.819,-0.03,-0.06,1.01,-0.08,0.04,0.04,
0.822,-0.03,-0.06,1.00,-0.08,0.04,0.04,
0.822,-0.03,-0.06,1.01,-0.08,0.04,0.04,
0.822,-0.03,-0.06,1.01,-0.08,0.03,0.04,
0.825,-0.03,-0.06,1.01,-0.08,0.03,0.04,
0.83,-0.03,-0.06,1.01,-0.08,0.03,0.04,
0.83,-0.03,-0.06,1.01,-0.07,0.06,0.05,
0.83,-0.02,-0.06,1.01,-0.07,0.06,0.05,
0.832,-0.02,-0.06,1.01,-0.08,0.06,0.09,
0.832,-0.02,-0.06,1.01,-0.08,0.06,0.09,
0.835,-0.03,-0.06,1.01,-0.08,0.06,0.09,
0.837,-0.03,-0.06,1.01,-0.08,0.06,0.09,
0.838,-0.03,-0.06,1.01,-0.02,0.05,0.10,
0.84,-0.02,-0.05,1.01,-0.02,0.05,0.10,
0.842,-0.03,-0.05,1.01,-0.02,0.05,0.10,
0.843,-0.03,-0.05,1.01,-0.06,0.10,0.11,
0.846,-0.03,-0.05,1.01,-0.06,0.10,0.11,
0.847,-0.03,-0.05,1.01,-0.06,0.10,0.11,
0.847,-0.03,-0.05,1.01,-0.05,0.14,0.08,
0.85,-0.02,-0.05,1.01,-0.05,0.14,0.08,
0.852,-0.03,-0.05,1.01,-0.05,0.14,0.08,
0.852,-0.03,-0.05,1.01,-0.05,0.15,0.10,
0.855,-0.03,-0.05,1.00,-0.05,0.15,0.10,
0.857,-0.03,-0.05,1.00,-0.04,0.12,0.07,
0.858,-0.02,-0.05,1.00,-0.04,0.12,0.07,
0.86,-0.02,-0.06,1.00,-0.04,0.12,0.07,
0.862,-0.02,-0.05,1.00,-0.04,0.12,0.07,
0.863,-0.02,-0.05,1.00,-0.03,0.14,-0.00,
0.864,-0.02,-0.05,1.00,-0.03,0.14,-0.00,
0.867,-0.02,-0.05,1.00,-0.03,0.14,-0.00,
0.867,-0.02,-0.05,1.00,-0.01,0.12,0.04,
0.87,-0.02,-0.05,1.01,-0.01,0.12,0.04,
0.872,-0.02,-0.05,1.00,-0.01,0.12,0.04,
0.872,-0.02,-0.05,1.00,0.02,0.12,-0.01,
0.875,-0.02,-0.05,1.00,0.02,0.12,-0.01,
0.877,-0.02,-0.06,1.00,0.02,0.12,-0.01,
0.877,-0.02,-0.06,1.00,0.02,0.12,0.00,
0.879,-0.02,-0.06,1.00,0.02,0.12,0.00,
0.882,-0.02,-0.06,1.00,0.02,0.12,0.00,
0.882,-0.02,-0.06,1.00,0.01,0.10,-0.04,
0.885,-0.02,-0.06,1.00,0.01,0.10,-0.04,
0.887,-0.02,-0.06,1.00,0.01,0.10,-0.04,
0.887,-0.02,-0.06,1.00,0.01,0.05,0.01,
0.89,-0.02,-0.06,1.00,0.01,0.05,0.01,
0.892,-0.02,-0.06,1.01,0.01,0.05,0.01,
0.892,-0.02,-0.06,1.01,0.00,0.06,0.04,
0.896,-0.03,-0.06,1.00,0.00,0.06,0.04,
0.897,-0.03,-0.06,1.01,0.00,0.06,0.04,
0.897,-0.03,-0.06,1.01,0.00,0.03,0.04,
0.9,-0.03,-0.06,1.01,0.00,0.03,0.04,
0.902,-0.03,-0.06,1.01,-0.05,0.06,0.05,
0.902,-0.03,-0.06,1.01,-0.05,0.06,0.05,
0.904,-0.03,-0.06,1.01,-0.05,0.06,0.05,
0.907,-0.03,-0.06,1.01,-0.05,0.06,0.05,
0.907,-0.03,-0.06,1.01,-0.05,0.02,0.10,
0.909,-0.03,-0.06,1.02,-0.05,0.02,0.10,
0.911,-0.03,-0.06,1.02,-0.05,0.02,0.10,
0.911,-0.03,-0.06,1.02,-0.07,0.02,0.13,
0.913,-0.03,-0.05,1.02,-0.07,0.02,0.13,
0.916,-0.04,-0.05,1.03,-0.07,0.02,0.13,
0.917,-0.04,-0.05,1.03,-0.08,0.05,0.19,
0.918,-0.04,-0.05,1.03,-0.08,0.05,0.19,
0.921,-0.04,-0.05,1.03,-0.13,0.11,0.24,
0.921,-0.04,-0.05,1.03,-0.13,0.11,0.24,
0.924,-0.03,-0.05,1.04,-0.13,0.11,0.24,
0.927,-0.03,-0.04,1.03,-0.13,0.11,0.24,
0.927,-0.03,-0.04,1.03,-0.13,0.16,0.29,
0.933,-0.04,-0.04,1.03,-0.13,0.16,0.29,
0.933,-0.04,-0.04,1.03,-0.08,0.19,0.32,
0.933,-0.03,-0.04,1.04,-0.08,0.19,0.32,
0.934,-0.02,-0.04,1.03,-0.08,0.19,0.32,
0.936,-0.03,-0.04,1.04,-0.08,0.19,0.32,
0.936,-0.03,-0.04,1.04,-0.11,0.24,0.31,
0.938,-0.03,-0.04,1.03,-0.11,0.24,0.31,
0.941,-0.03,-0.04,1.03,-0.11,0.24,0.31,
0.942,-0.03,-0.04,1.03,-0.04,0.23,0.32,
0.943,-0.03,-0.04,1.03,-0.04,0.23,0.32,
0.947,-0.03,-0.04,1.03,-0.04,0.23,0.32,
0.947,-0.03,-0.04,1.03,-0.07,0.20,0.27,
0.948,-0.03,-0.04,1.03,-0.07,0.20,0.27,
0.951,-0.03,-0.04,1.03,-0.07,0.20,0.27,
0.951,-0.03,-0.04,1.03,-0.05,0.22,0.29,
0.953,-0.04,-0.04,1.04,-0.05,0.22,0.29,
0.956,-0.04,-0.04,1.03,-0.05,0.22,0.29,
0.956,-0.04,-0.04,1.03,-0.11,0.20,0.31,
0.958,-0.04,-0.04,1.03,-0.11,0.20,0.31,
0.962,-0.04,-0.04,1.03,-0.11,0.20,0.31,
0.962,-0.04,-0.04,1.03,-0.15,0.21,0.31,
0.963,-0.04,-0.04,1.04,-0.15,0.21,0.31,
0.965,-0.04,-0.04,1.04,-0.15,0.21,0.31,
0.966,-0.04,-0.04,1.04,-0.14,0.20,0.30,
0.968,-0.04,-0.04,1.03,-0.14,0.20,0.30,
0.97,-0.04,-0.04,1.03,-0.14,0.20,0.30,
0.97,-0.04,-0.04,1.03,-0.18,0.16,0.34,
0.973,-0.04,-0.04,1.03,-0.18,0.16,0.34,
0.976,-0.04,-0.04,1.03,-0.18,0.16,0.34,
0.976,-0.04,-0.04,1.03,-0.16,0.22,0.25,
0.98,-0.04,-0.03,1.02,-0.16,0.22,0.25,
0.98,-0.04,-0.03,1.01,-0.16,0.22,0.25,
0.981,-0.04,-0.03,1.01,-0.18,0.21,0.24,
0.983,-0.04,-0.03,1.01,-0.18,0.21,0.24,
0.986,-0.04,-0.04,1.00,-0.18,0.21,0.24,
0.987,-0.04,-0.04,1.00,-0.13,0.23,0.14,
0.988,-0.04,-0.04,1.00,-0.13,0.23,0.14,
0.991,-0.03,-0.04,0.99,-0.13,0.23,0.14,
0.991,-0.03,-0.04,0.99,-0.16,0.20,-0.02,
0.993,-0.03,-0.04,0.98,-0.16,0.20,-0.02,
0.997,-0.02,-0.04,0.98,-0.16,0.20,-0.02,
0.997,-0.02,-0.04,0.98,-0.11,0.17,-0.11,
0.998,-0.02,-0.03,0.97,-0.11,0.17,-0.11,
1.001,-0.01,-0.04,0.97,-0.11,0.17,-0.11,
1.001,-0.01,-0.04,0.97,-0.01,0.18,-0.23,
1.003,-0.00,-0.04,0.98,-0.01,0.18,-0.23,
1.006,-0.00,-0.04,0.97,-0.01,0.18,-0.23,
1.006,-0.00,-0.04,0.97,0.05,0.19,-0.30,
1.008,-0.01,-0.04,0.96,0.05,0.19,-0.30,
1.01,-0.01,-0.04,0.97,0.05,0.19,-0.30,
1.011,-0.01,-0.04,0.97,0.18,0.16,-0.33,
1.013,-0.01,-0.04,0.97,0.18,0.16,-0.33,
1.015,-0.01,-0.04,0.97,0.18,0.16,-0.33,
1.015,-0.01,-0.04,0.97,0.14,0.15,-0.35,
1.018,-0.01,-0.04,0.98,0.14,0.15,-0.35,
1.02,-0.01,-0.04,0.98,0.13,0.16,-0.31,
1.02,-0.01,-0.03,0.98,0.13,0.16,-0.31,
1.023,-0.01,-0.04,0.98,0.13,0.16,-0.31,
1.025,-0.01,-0.03,0.98,0.13,0.16,-0.31,
1.025,-0.01,-0.03,0.98,0.13,0.19,-0.23,
1.031,-0.02,-0.03,0.99,0.13,0.19,-0.23,
1.032,-0.02,-0.03,0.99,0.08,0.18,-0.20,
1.032,-0.02,-0.03,0.98,0.08,0.18,-0.20,
1.033,-0.02,-0.04,0.98,0.08,0.18,-0.20,
1.035,-0.02,-0.04,0.98,0.08,0.18,-0.20,
1.035,-0.02,-0.04,0.98,0.01,0.20,-0.16,
1.037,-0.02,-0.04,0.98,0.01,0.20,-0.16,
1.04,-0.03,-0.04,0.98,0.01,0.20,-0.16,
1.04,-0.03,-0.04,0.98,-0.00,0.12,-0.21,
1.043,-0.03,-0.04,0.97,-0.00,0.12,-0.21,
1.045,-0.04,-0.04,0.97,-0.00,0.12,-0.21,
1.046,-0.04,-0.04,0.97,-0.04,0.09,-0.24,
1.047,-0.04,-0.05,0.96,-0.04,0.09,-0.24,
1.05,-0.05,-0.04,0.95,-0.04,0.09,-0.24,
1.05,-0.05,-0.04,0.95,-0.14,0.08,-0.34,
1.053,-0.05,-0.05,0.94,-0.14,0.08,-0.34,
1.056,-0.05,-0.05,0.94,-0.14,0.08,-0.34,
1.056,-0.05,-0.05,0.94,-0.23,0.05,-0.45,
1.058,-0.06,-0.05,0.94,-0.23,0.05,-0.45,
1.06,-0.06,-0.05,0.94,-0.23,0.05,-0.45,
1.06,-0.06,-0.05,0.94,-0.30,0.02,-0.56,
1.063,-0.06,-0.05,0.93,-0.30,0.02,-0.56,
1.065,-0.06,-0.04,0.94,-0.30,0.02,-0.56,
1.065,-0.06,-0.04,0.94,-0.36,0.00,-0.58,
1.067,-0.06,-0.04,0.94,-0.36,0.00,-0.58,
1.071,-0.06,-0.04,0.93,-0.36,0.00,-0.58,
1.071,-0.06,-0.04,0.93,-0.41,0.03,-0.64,
1.073,-0.05,-0.03,0.93,-0.41,0.03,-0.64,
1.075,-0.05,-0.03,0.93,-0.41,0.03,-0.64,
1.076,-0.05,-0.03,0.93,-0.35,0.11,-0.62,
1.077,-0.05,-0.03,0.93,-0.35,0.11,-0.62,
1.079,-0.04,-0.03,0.93,-0.35,0.11,-0.62,
1.08,-0.04,-0.03,0.93,-0.28,0.18,-0.66,
1.083,-0.04,-0.02,0.93,-0.28,0.18,-0.66,
1.085,-0.04,-0.03,0.93,-0.28,0.18,-0.66,
1.085,-0.04,-0.03,0.93,-0.20,0.17,-0.69,
1.087,-0.04,-0.04,0.93,-0.20,0.17,-0.69,
1.09,-0.04,-0.04,0.93,-0.20,0.17,-0.69,
1.09,-0.04,-0.04,0.93,-0.17,0.19,-0.70,
1.092,-0.03,-0.04,0.93,-0.17,0.19,-0.70,
1.095,-0.03,-0.04,0.93,-0.17,0.19,-0.70,
1.095,-0.03,-0.04,0.93,-0.10,0.08,-0.65,
1.097,-0.03,-0.04,0.93,-0.10,0.08,-0.65,
1.1,-0.03,-0.04,0.93,-0.10,0.08,-0.65,
1.1,-0.03,-0.04,0.93,-0.05,0.07,-0.67,
1.102,-0.03,-0.04,0.93,-0.05,0.07,-0.67,
1.105,-0.03,-0.04,0.93,-0.05,0.07,-0.67,
1.105,-0.03,-0.04,0.93,-0.01,0.04,-0.65,
1.107,-0.02,-0.05,0.93,-0.01,0.04,-0.65,
1.11,-0.03,-0.05,0.93,-0.01,0.04,-0.65,
1.11,-0.03,-0.05,0.93,-0.01,0.03,-0.64,
1.114,-0.03,-0.05,0.93,-0.01,0.03,-0.64,
1.115,-0.03,-0.05,0.94,-0.01,0.03,-0.64,
1.115,-0.03,-0.05,0.94,0.01,-0.02,-0.64,
1.117,-0.02,-0.05,0.93,0.01,-0.02,-0.64,
1.12,-0.02,-0.05,0.94,0.01,-0.02,-0.64,
1.12,-0.02,-0.05,0.94,-0.05,-0.02,-0.59,
1.122,-0.02,-0.05,0.94,-0.05,-0.02,-0.59,
1.125,-0.02,-0.06,0.94,-0.05,-0.02,-0.59,
1.125,-0.02,-0.06,0.94,0.03,-0.05,-0.58,
1.127,-0.02,-0.05,0.94,0.03,-0.05,-0.58,
1.133,-0.02,-0.05,0.94,0.03,-0.05,-0.58,
1.133,-0.02,-0.05,0.94,0.09,-0.08,-0.56,
1.133,-0.01,-0.05,0.93,0.09,-0.08,-0.56,
1.134,-0.01,-0.05,0.94,0.09,-0.08,-0.56,
1.134,-0.01,-0.05,0.94,0.06,-0.06,-0.55,
1.136,-0.02,-0.04,0.94,0.06,-0.06,-0.55,
1.139,-0.01,-0.04,0.95,0.06,-0.06,-0.55,
1.139,-0.01,-0.04,0.95,0.13,-0.04,-0.56,
1.142,-0.01,-0.04,0.96,0.13,-0.04,-0.56,
1.144,-0.02,-0.04,0.96,0.13,-0.04,-0.56,
1.145,-0.02,-0.04,0.96,0.12,0.03,-0.47,
1.147,-0.02,-0.04,0.96,0.12,0.03,-0.47,
1.149,-0.02,-0.04,0.97,0.12,0.03,-0.47,
1.152,-0.02,-0.04,0.97,0.08,0.10,-0.35,
1.152,-0.02,-0.04,0.97,0.08,0.10,-0.35,
1.154,-0.02,-0.04,0.97,0.04,0.08,-0.27,
1.155,-0.02,-0.03,0.98,0.04,0.08,-0.27,
1.157,-0.02,-0.04,0.98,0.04,0.08,-0.27,
1.16,-0.02,-0.03,0.99,0.04,0.08,-0.27,
1.16,-0.02,-0.03,0.99,0.03,0.11,-0.15,
1.162,-0.03,-0.04,0.99,0.03,0.11,-0.15,
1.164,-0.03,-0.04,1.00,0.03,0.11,-0.15,
1.164,-0.03,-0.04,1.00,0.00,0.14,-0.05,
1.166,-0.03,-0.04,1.01,0.00,0.14,-0.05,
1.169,-0.03,-0.04,1.01,0.00,0.14,-0.05,
1.169,-0.03,-0.04,1.01,-0.07,0.11,0.04,
1.171,-0.03,-0.04,1.01,-0.07,0.11,0.04,
1.173,-0.03,-0.05,1.02,-0.07,0.11,0.04,
1.174,-0.03,-0.05,1.02,-0.07,0.11,0.17,
1.176,-0.02,-0.05,1.02,-0.07,0.11,0.17,
1.178,-0.02,-0.05,1.02,-0.07,0.11,0.17,
1.179,-0.02,-0.05,1.02,-0.05,0.06,0.22,
1.181,-0.02,-0.06,1.02,-0.05,0.06,0.22,
1.184,-0.02,-0.06,1.02,-0.05,0.06,0.22,
1.184,-0.02,-0.06,1.02,0.03,-0.02,0.22,
1.186,-0.02,-0.06,1.02,0.03,-0.02,0.22,
1.188,-0.01,-0.06,1.03,0.03,-0.02,0.22,
1.188,-0.01,-0.06,1.03,0.04,-0.10,0.27,
1.191,-0.01,-0.06,1.04,0.04,-0.10,0.27,
1.194,-0.01,-0.07,1.04,0.04,-0.10,0.27,
1.194,-0.01,-0.07,1.04,0.08,-0.11,0.35,
1.196,-0.01,-0.07,1.04,0.08,-0.11,0.35,
1.198,-0.01,-0.07,1.04,0.08,-0.11,0.35,
1.198,-0.01,-0.07,1.04,0.11,-0.14,0.43,
1.201,-0.01,-0.07,1.04,0.11,-0.14,0.43,
1.203,-0.01,-0.07,1.05,0.11,-0.14,0.43,
1.203,-0.01,-0.07,1.05,0.12,-0.17,0.48,
1.206,-0.01,-0.07,1.04,0.12,-0.17,0.48,
1.208,-0.01,-0.08,1.05,0.12,-0.17,0.48,
1.208,-0.01,-0.08,1.05,0.12,-0.20,0.50,
1.21,-0.00,-0.07,1.05,0.12,-0.20,0.50,
1.214,-0.01,-0.07,1.04,0.12,-0.20,0.50,
1.214,-0.01,-0.07,1.04,0.13,-0.22,0.50,
1.215,-0.00,-0.07,1.05,0.13,-0.22,0.50,
1.219,-0.00,-0.07,1.04,0.13,-0.22,0.50,
1.219,-0.00,-0.07,1.04,0.16,-0.20,0.49,
1.22,-0.00,-0.07,1.04,0.16,-0.20,0.49,
1.223,-0.00,-0.07,1.05,0.16,-0.20,0.49,
1.223,-0.00,-0.07,1.05,0.17,-0.17,0.48,
1.225,-0.00,-0.07,1.04,0.17,-0.17,0.48,
1.233,-0.00,-0.07,1.04,0.17,-0.17,0.48,
1.234,-0.00,-0.07,1.04,0.18,-0.15,0.45,
1.234,0.00,-0.07,1.03,0.18,-0.15,0.45,
1.234,0.01,-0.07,1.02,0.18,-0.15,0.45,
1.234,0.01,-0.07,1.02,0.17,-0.17,0.41,
1.237,0.01,-0.08,1.02,0.17,-0.17,0.41,
1.238,0.01,-0.08,1.02,0.17,-0.17,0.41,
1.238,0.01,-0.08,1.02,0.20,-0.15,0.32,
1.24,0.01,-0.07,1.01,0.20,-0.15,0.32,
1.243,0.02,-0.07,1.02,0.20,-0.15,0.32,
1.243,0.02,-0.07,1.02,0.23,-0.21,0.26,
1.246,0.02,-0.07,1.01,0.23,-0.21,0.26,
1.248,0.03,-0.08,1.01,0.23,-0.21,0.26,
1.248,0.03,-0.08,1.01,0.29,-0.19,0.19,
1.25,0.03,-0.07,1.00,0.29,-0.19,0.19,
1.252,0.04,-0.08,1.00,0.29,-0.19,0.19,
1.253,0.04,-0.08,1.00,0.36,-0.21,0.15,
1.255,0.03,-0.08,1.00,0.36,-0.21,0.15,
1.258,0.04,-0.08,0.99,0.36,-0.21,0.15,
1.259,0.04,-0.08,0.99,0.43,-0.21,0.04,
1.26,0.04,-0.08,0.99,0.43,-0.21,0.04,
1.263,0.04,-0.08,0.98,0.43,-0.21,0.04,
1.264,0.04,-0.08,0.98,0.45,-0.25,-0.02,
1.265,0.04,-0.08,0.98,0.45,-0.25,-0.02,
1.267,0.05,-0.08,0.97,0.45,-0.25,-0.02,
1.268,0.05,-0.08,0.97,0.51,-0.27,-0.11,
1.27,0.05,-0.08,0.97,0.51,-0.27,-0.11,
1.272,0.04,-0.08,0.97,0.51,-0.27,-0.11,
1.273,0.04,-0.08,0.97,0.51,-0.25,-0.22,
1.275,0.05,-0.08,0.96,0.51,-0.25,-0.22,
1.277,0.04,-0.07,0.96,0.51,-0.25,-0.22,
1.277,0.04,-0.07,0.96,0.49,-0.24,-0.26,
1.281,0.04,-0.08,0.96,0.49,-0.24,-0.26,
1.282,0.04,-0.08,0.95,0.49,-0.24,-0.26,
1.282,0.04,-0.08,0.95,0.48,-0.20,-0.33,
1.285,0.04,-0.08,0.96,0.48,-0.20,-0.33,
1.287,0.05,-0.07,0.96,0.48,-0.20,-0.33,
1.287,0.05,-0.07,0.96,0.45,-0.22,-0.39,
1.29,0.05,-0.08,0.96,0.45,-0.22,-0.39,
1.293,0.05,-0.08,0.97,0.45,-0.22,-0.39,
1.293,0.05,-0.08,0.97,0.47,-0.22,-0.38,
1.295,0.06,-0.08,0.97,0.47,-0.22,-0.38,
1.297,0.06,-0.08,0.97,0.47,-0.22,-0.38,
1.298,0.06,-0.08,0.97,0.54,-0.23,-0.28,
1.3,0.07,-0.08,0.97,0.54,-0.23,-0.28,
1.302,0.06,-0.09,0.97,0.54,-0.23,-0.28,
1.302,0.06,-0.09,0.97,0.60,-0.24,-0.25,
1.305,0.06,-0.08,0.97,0.60,-0.24,-0.25,
1.307,0.05,-0.09,0.97,0.60,-0.24,-0.25,
1.307,0.05,-0.09,0.97,0.64,-0.30,-0.27,
1.309,0.05,-0.09,0.97,0.64,-0.30,-0.27,
1.313,0.05,-0.09,0.96,0.64,-0.30,-0.27,
1.314,0.05,-0.09,0.96,0.58,-0.33,-0.23,
1.316,0.05,-0.09,0.96,0.58,-0.33,-0.23,
1.318,0.05,-0.09,0.96,0.58,-0.33,-0.23,
1.318,0.05,-0.09,0.96,0.58,-0.43,-0.30,
1.319,0.05,-0.09,0.95,0.58,-0.43,-0.30,
1.322,0.05,-0.10,0.95,0.58,-0.43,-0.30,
1.322,0.05,-0.10,0.95,0.53,-0.44,-0.34,
1.324,0.05,-0.10,0.94,0.53,-0.44,-0.34,
1.327,0.05,-0.10,0.93,0.53,-0.44,-0.34,
1.328,0.05,-0.10,0.93,0.54,-0.45,-0.46,
1.331,0.05,-0.10,0.92,0.54,-0.45,-0.46,
1.332,0.05,-0.10,0.91,0.54,-0.45,-0.46,
1.332,0.05,-0.10,0.91,0.58,-0.53,-0.59,
1.335,0.05,-0.10,0.90,0.58,-0.53,-0.59,
1.339,0.05,-0.11,0.89,0.58,-0.53,-0.59,
1.34,0.05,-0.11,0.89,0.63,-0.55,-0.80,
1.34,0.04,-0.12,0.88,0.63,-0.55,-0.80,
1.342,0.03,-0.13,0.88,0.63,-0.55,-0.80,
1.343,0.03,-0.13,0.88,0.59,-0.59,-0.96,
1.344,0.03,-0.13,0.87,0.59,-0.59,-0.96,
1.347,0.02,-0.13,0.87,0.59,-0.59,-0.96,
1.348,0.02,-0.13,0.87,0.46,-0.79,-1.11,
1.349,0.02,-0.13,0.86,0.46,-0.79,-1.11,
1.352,0.01,-0.13,0.85,0.46,-0.79,-1.11,
1.352,0.01,-0.13,0.85,0.39,-0.91,-1.18,
1.355,0.01,-0.13,0.84,0.39,-0.91,-1.18,
1.357,0.01,-0.12,0.84,0.39,-0.91,-1.18,
1.357,0.01,-0.12,0.84,0.32,-0.93,-1.30,
1.36,0.00,-0.12,0.84,0.32,-0.93,-1.30,
1.362,0.00,-0.11,0.84,0.32,-0.93,-1.30,
1.362,0.00,-0.11,0.84,0.25,-0.84,-1.42,
1.366,-0.00,-0.11,0.84,0.25,-0.84,-1.42,
1.37,-0.01,-0.10,0.83,0.25,-0.84,-1.42,
1.37,-0.01,-0.10,0.83,0.21,-0.78,-1.43,
1.37,-0.02,-0.10,0.82,0.21,-0.78,-1.43,
1.371,-0.03,-0.10,0.81,0.21,-0.78,-1.43,
1.371,-0.03,-0.10,0.81,0.14,-0.71,-1.49,
1.375,-0.02,-0.10,0.82,0.14,-0.71,-1.49,
1.377,-0.03,-0.10,0.81,0.14,-0.71,-1.49,
1.377,-0.03,-0.10,0.81,0.00,-0.65,-1.64,
1.379,-0.05,-0.10,0.80,0.00,-0.65,-1.64,
1.382,-0.05,-0.11,0.80,0.00,-0.65,-1.64,
1.383,-0.05,-0.11,0.80,-0.05,-0.65,-1.65,
1.384,-0.06,-0.10,0.79,-0.05,-0.65,-1.65,
1.387,-0.06,-0.10,0.79,-0.27,-0.73,-1.78,
1.387,-0.06,-0.10,0.78,-0.27,-0.73,-1.78,
1.39,-0.07,-0.10,0.78,-0.27,-0.73,-1.78,
1.392,-0.07,-0.10,0.78,-0.38,-0.69,-1.91,
1.392,-0.07,-0.10,0.76,-0.38,-0.69,-1.91,
1.394,-0.06,-0.09,0.76,-0.38,-0.69,-1.91,
1.397,-0.05,-0.09,0.76,-0.38,-0.69,-1.91,
1.398,-0.05,-0.09,0.76,-0.46,-0.65,-2.04,
1.399,-0.05,-0.08,0.75,-0.46,-0.65,-2.04,
1.401,-0.04,-0.08,0.75,-0.46,-0.65,-2.04,
1.402,-0.04,-0.08,0.75,-0.34,-0.55,-2.13,
1.404,-0.04,-0.07,0.75,-0.34,-0.55,-2.13,
1.407,-0.02,-0.06,0.75,-0.34,-0.55,-2.13,
1.407,-0.02,-0.06,0.75,-0.27,-0.45,-2.18,
1.409,-0.01,-0.05,0.75,-0.27,-0.45,-2.18,
1.412,-0.01,-0.04,0.75,-0.27,-0.45,-2.18,
1.412,-0.01,-0.04,0.75,-0.11,-0.28,-2.18,
1.414,-0.00,-0.04,0.75,-0.11,-0.28,-2.18,
1.416,0.00,-0.04,0.75,-0.11,-0.28,-2.18,
1.417,0.00,-0.04,0.75,0.07,-0.09,-2.20,
1.419,0.01,-0.05,0.76,0.07,-0.09,-2.20,
1.422,0.02,-0.05,0.77,0.07,-0.09,-2.20,
1.422,0.02,-0.05,0.77,0.13,-0.03,-2.17,
1.424,0.03,-0.05,0.78,0.13,-0.03,-2.17,
1.426,0.04,-0.06,0.81,0.13,-0.03,-2.17,
1.426,0.04,-0.06,0.81,0.29,-0.08,-2.02,
1.429,0.04,-0.07,0.82,0.29,-0.08,-2.02,
1.432,0.05,-0.08,0.83,0.29,-0.08,-2.02,
1.432,0.05,-0.08,0.83,0.41,-0.14,-1.73,
1.434,0.06,-0.08,0.85,0.41,-0.14,-1.73,
1.437,0.07,-0.08,0.86,0.41,-0.14,-1.73,
1.437,0.07,-0.08,0.86,0.51,-0.27,-1.43,
1.438,0.07,-0.09,0.88,0.51,-0.27,-1.43,
1.441,0.08,-0.09,0.88,0.51,-0.27,-1.43,
1.442,0.08,-0.09,0.88,0.67,-0.34,-1.16,
1.444,0.08,-0.10,0.89,0.67,-0.34,-1.16,
1.448,0.09,-0.10,0.90,0.67,-0.34,-1.16,
1.448,0.09,-0.10,0.90,0.75,-0.38,-0.88,
1.448,0.09,-0.10,0.91,0.75,-0.38,-0.88,
1.451,0.09,-0.10,0.91,0.83,-0.44,-0.75,
1.452,0.09,-0.10,0.91,0.83,-0.44,-0.75,
1.454,0.09,-0.10,0.91,0.83,-0.44,-0.75,
1.456,0.09,-0.11,0.91,0.83,-0.44,-0.75,
1.457,0.09,-0.11,0.91,0.85,-0.45,-0.60,
1.459,0.09,-0.11,0.91,0.85,-0.45,-0.60,
1.461,0.09,-0.12,0.91,0.85,-0.45,-0.60,
1.461,0.09,-0.12,0.91,0.84,-0.48,-0.57,
1.468,0.09,-0.13,0.91,0.84,-0.48,-0.57,
1.468,0.09,-0.13,0.90,0.84,-0.48,-0.57,
1.468,0.09,-0.13,0.90,0.80,-0.57,-0.59,
1.469,0.09,-0.13,0.90,0.80,-0.57,-0.59,
1.471,0.09,-0.13,0.90,0.80,-0.57,-0.59,
1.471,0.09,-0.13,0.90,0.82,-0.68,-0.64,
1.473,0.09,-0.12,0.89,0.82,-0.68,-0.64,
1.476,0.09,-0.12,0.89,0.82,-0.68,-0.64,
1.477,0.09,-0.12,0.89,0.83,-0.65,-0.68,
1.478,0.09,-0.11,0.89,0.83,-0.65,-0.68,
1.482,0.09,-0.10,0.88,0.83,-0.65,-0.68,
1.483,0.09,-0.10,0.88,0.80,-0.56,-0.76,
1.483,0.10,-0.10,0.88,0.80,-0.56,-0.76,
1.485,0.10,-0.09,0.88,0.80,-0.56,-0.76,
1.486,0.10,-0.09,0.88,0.83,-0.44,-0.82,
1.488,0.10,-0.09,0.88,0.83,-0.44,-0.82,
1.49,0.10,-0.09,0.88,0.89,-0.31,-0.87,
1.49,0.10,-0.09,0.87,0.89,-0.31,-0.87,
1.492,0.10,-0.09,0.88,0.89,-0.31,-0.87,
1.495,0.10,-0.09,0.87,0.89,-0.31,-0.87,
1.495,0.10,-0.09,0.87,0.94,-0.21,-0.92,
1.498,0.10,-0.09,0.87,0.94,-0.21,-0.92,
1.5,0.11,-0.10,0.87,0.94,-0.21,-0.92,
1.5,0.11,-0.10,0.87,0.94,-0.21,-0.91,
1.504,0.12,-0.11,0.88,0.94,-0.21,-0.91,
1.506,0.12,-0.11,0.88,0.97,-0.27,-0.96,
1.506,0.13,-0.11,0.88,0.97,-0.27,-0.96,
1.508,0.14,-0.12,0.89,0.97,-0.27,-0.96,
1.511,0.15,-0.13,0.90,0.97,-0.27,-0.96,
1.511,0.15,-0.13,0.90,1.13,-0.38,-0.86,
1.515,0.16,-0.13,0.92,1.13,-0.38,-0.86,
1.516,0.17,-0.14,0.93,1.13,-0.38,-0.86,
1.516,0.17,-0.14,0.93,1.32,-0.44,-0.70,
1.518,0.17,-0.14,0.94,1.32,-0.44,-0.70,
1.521,0.17,-0.15,0.96,1.32,-0.44,-0.70,
1.521,0.17,-0.15,0.96,1.46,-0.56,-0.43,
1.523,0.17,-0.16,0.96,1.46,-0.56,-0.43,
1.525,0.17,-0.15,0.98,1.46,-0.56,-0.43,
1.526,0.17,-0.15,0.98,1.49,-0.61,-0.14,
1.528,0.17,-0.16,0.98,1.49,-0.61,-0.14,
1.53,0.17,-0.16,0.99,1.49,-0.61,-0.14,
1.53,0.17,-0.16,0.99,1.51,-0.70,0.05,
1.532,0.17,-0.16,0.99,1.51,-0.70,0.05,
1.535,0.17,-0.16,0.99,1.51,-0.70,0.05,
1.536,0.17,-0.16,0.99,1.50,-0.71,0.22,
1.538,0.17,-0.16,0.99,1.50,-0.71,0.22,
1.541,0.17,-0.15,1.00,1.50,-0.71,0.22,
1.541,0.17,-0.15,1.00,1.44,-0.70,0.26,
1.543,0.17,-0.15,1.00,1.44,-0.70,0.26,
1.546,0.17,-0.15,1.00,1.44,-0.70,0.26,
1.546,0.17,-0.15,1.00,1.44,-0.61,0.31,
1.548,0.18,-0.14,1.00,1.44,-0.61,0.31,
1.55,0.17,-0.14,1.00,1.44,-0.61,0.31,
1.55,0.17,-0.14,1.00,1.44,-0.53,0.32,
1.553,0.17,-0.14,1.00,1.44,-0.53,0.32,
1.555,0.16,-0.13,1.00,1.44,-0.53,0.32,
1.556,0.16,-0.13,1.00,1.44,-0.38,0.33,
1.558,0.16,-0.13,0.99,1.44,-0.38,0.33,
1.561,0.15,-0.13,0.99,1.44,-0.38,0.33,
1.561,0.15,-0.13,0.99,1.35,-0.34,0.36,
1.563,0.14,-0.13,0.99,1.35,-0.34,0.36,
1.565,0.14,-0.13,0.99,1.26,-0.31,0.29,
1.565,0.14,-0.12,0.99,1.26,-0.31,0.29,
1.567,0.13,-0.12,0.99,1.26,-0.31,0.29,
1.57,0.12,-0.13,0.98,1.26,-0.31,0.29,
1.571,0.12,-0.13,0.98,1.09,-0.23,0.24,
1.574,0.12,-0.12,0.97,1.09,-0.23,0.24,
1.574,0.12,-0.11,0.96,1.09,-0.23,0.24,
1.574,0.12,-0.11,0.96,0.95,-0.19,0.17,
1.577,0.12,-0.11,0.96,0.95,-0.19,0.17,
1.581,0.12,-0.11,0.96,0.95,-0.19,0.17,
1.581,0.12,-0.11,0.96,0.92,-0.08,0.00,
1.582,0.12,-0.10,0.96,0.92,-0.08,0.00,
1.587,0.12,-0.10,0.95,0.92,-0.08,0.00,
1.588,0.12,-0.10,0.95,0.88,-0.03,-0.05,
1.588,0.12,-0.10,0.95,0.88,-0.03,-0.05,
1.589,0.12,-0.09,0.96,0.88,-0.03,-0.05,
1.589,0.12,-0.09,0.96,0.92,0.06,-0.10,
1.592,0.11,-0.09,0.97,0.92,0.06,-0.10,
1.596,0.11,-0.08,0.96,0.92,0.06,-0.10,
1.597,0.11,-0.08,0.96,0.90,0.13,-0.07,
1.597,0.11,-0.08,0.96,0.90,0.13,-0.07,
1.599,0.11,-0.08,0.95,0.90,0.13,-0.07,
1.599,0.11,-0.08,0.95,0.82,0.22,0.02,
1.602,0.11,-0.08,0.94,0.82,0.22,0.02,
1.604,0.11,-0.08,0.94,0.82,0.22,0.02,
1.605,0.11,-0.08,0.94,0.83,0.29,-0.11,
1.608,0.11,-0.08,0.93,0.83,0.29,-0.11,
1.609,0.11,-0.07,0.92,0.83,0.29,-0.11,
1.61,0.11,-0.07,0.92,0.82,0.31,-0.24,
1.611,0.11,-0.07,0.92,0.82,0.31,-0.24,
1.616,0.11,-0.07,0.92,0.83,0.38,-0.35,
1.616,0.10,-0.07,0.91,0.83,0.38,-0.35,
1.617,0.10,-0.06,0.90,0.83,0.38,-0.35,
1.62,0.10,-0.06,0.89,0.83,0.38,-0.35,
1.621,0.10,-0.06,0.89,0.80,0.47,-0.47,
1.622,0.10,-0.06,0.89,0.80,0.47,-0.47,
1.624,0.09,-0.06,0.88,0.80,0.47,-0.47,
1.624,0.09,-0.06,0.88,0.76,0.56,-0.65,
1.628,0.09,-0.07,0.88,0.76,0.56,-0.65,
1.629,0.08,-0.07,0.87,0.76,0.56,-0.65,
1.629,0.08,-0.07,0.87,0.73,0.54,-0.75,
1.631,0.08,-0.07,0.86,0.73,0.54,-0.75,
1.635,0.07,-0.07,0.86,0.73,0.54,-0.75,
1.636,0.07,-0.07,0.86,0.65,0.49,-0.89,
1.637,0.06,-0.07,0.85,0.65,0.49,-0.89,
1.639,0.06,-0.07,0.85,0.51,0.47,-1.01,
1.639,0.05,-0.07,0.86,0.51,0.47,-1.01,
1.642,0.04,-0.08,0.86,0.51,0.47,-1.01,
1.643,0.04,-0.08,0.85,0.51,0.47,-1.01,
1.646,0.04,-0.08,0.85,0.34,0.47,-1.05,
1.646,0.04,-0.08,0.86,0.34,0.47,-1.05,
1.65,0.03,-0.09,0.87,0.34,0.47,-1.05,
1.65,0.03,-0.09,0.87,0.24,0.46,-1.02,
1.651,0.03,-0.08,0.87,0.24,0.46,-1.02,
1.654,0.03,-0.08,0.88,0.24,0.46,-1.02,
1.654,0.03,-0.08,0.88,0.14,0.42,-0.96,
1.656,0.02,-0.08,0.89,0.14,0.42,-0.96,
1.659,0.02,-0.09,0.91,0.14,0.42,-0.96,
1.661,0.02,-0.09,0.91,0.10,0.45,-0.79,
1.661,0.02,-0.08,0.93,0.10,0.45,-0.79,
1.665,0.02,-0.08,0.95,0.10,0.45,-0.79,
1.665,0.02,-0.08,0.95,0.05,0.46,-0.54,
1.666,0.03,-0.09,0.95,0.05,0.46,-0.54,
1.67,0.03,-0.08,0.97,0.05,0.46,-0.54,
1.67,0.03,-0.08,0.97,0.08,0.49,-0.19,
1.671,0.03,-0.08,0.98,0.08,0.49,-0.19,
1.674,0.03,-0.08,0.99,0.08,0.49,-0.19,
1.674,0.03,-0.08,0.99,0.14,0.52,0.04,
1.676,0.03,-0.09,1.01,0.14,0.52,0.04,
1.678,0.02,-0.09,1.02,0.14,0.52,0.04,
1.679,0.02,-0.09,1.02,0.17,0.55,0.26,
1.683,0.02,-0.09,1.03,0.17,0.55,0.26,
1.684,0.02,-0.09,1.04,0.17,0.55,0.26,
1.684,0.02,-0.09,1.04,0.17,0.54,0.55,
1.687,0.01,-0.09,1.03,0.17,0.54,0.55,
1.69,0.01,-0.09,1.04,0.17,0.54,0.55,
1.69,0.01,-0.09,1.04,0.15,0.53,0.75,
1.691,0.01,-0.09,1.04,0.15,0.53,0.75,
1.694,0.01,-0.09,1.03,0.15,0.53,0.75,
1.694,0.01,-0.09,1.03,0.09,0.55,0.74,
1.696,0.00,-0.09,1.02,0.09,0.55,0.74,
1.699,0.00,-0.09,1.02,0.09,0.58,0.73,
1.7,0.00,-0.09,1.02,0.09,0.58,0.73,
1.701,0.00,-0.08,1.01,0.09,0.58,0.73,
1.704,-0.00,-0.08,1.00,0.09,0.58,0.73,
1.704,-0.00,-0.08,1.00,0.06,0.64,0.61,
1.707,-0.00,-0.08,0.99,0.06,0.64,0.61,
1.709,-0.00,-0.09,0.99,0.06,0.64,0.61,
1.709,-0.00,-0.09,0.99,0.06,0.70,0.47,
1.711,-0.00,-0.09,0.99,0.06,0.70,0.47,
1.713,-0.00,-0.09,0.99,0.05,0.67,0.36,
1.713,-0.01,-0.09,0.98,0.05,0.67,0.36,
1.716,-0.01,-0.09,0.98,0.05,0.67,0.36,
1.719,-0.02,-0.09,0.97,0.05,0.67,0.36,
1.719,-0.02,-0.09,0.97,0.02,0.67,0.27,
1.722,-0.03,-0.09,0.98,0.02,0.67,0.27,
1.724,-0.03,-0.09,0.98,0.02,0.67,0.27,
1.725,-0.03,-0.09,0.98,-0.06,0.69,0.21,
1.727,-0.04,-0.10,0.97,-0.06,0.69,0.21,
1.728,-0.04,-0.10,0.97,-0.16,0.68,0.22,
1.728,-0.04,-0.10,0.97,-0.16,0.68,0.22,
1.732,-0.04,-0.11,0.97,-0.16,0.68,0.22,
1.735,-0.04,-0.11,0.98,-0.16,0.68,0.22,
1.735,-0.04,-0.11,0.98,-0.27,0.63,0.18,
1.736,-0.04,-0.11,0.99,-0.27,0.63,0.18,
1.738,-0.04,-0.11,0.99,-0.29,0.57,0.24,
1.738,-0.05,-0.12,1.00,-0.29,0.57,0.24,
1.741,-0.04,-0.12,1.00,-0.29,0.57,0.24,
1.744,-0.04,-0.12,1.00,-0.29,0.57,0.24,
1.744,-0.04,-0.12,1.00,-0.34,0.54,0.38,
1.746,-0.04,-0.13,1.01,-0.34,0.54,0.38,
1.748,-0.04,-0.13,1.02,-0.34,0.54,0.38,
1.748,-0.04,-0.13,1.02,-0.32,0.51,0.45,
1.75,-0.04,-0.13,1.03,-0.32,0.51,0.45,
1.753,-0.03,-0.14,1.03,-0.32,0.51,0.45,
1.753,-0.03,-0.14,1.03,-0.34,0.45,0.58,
1.756,-0.02,-0.13,1.03,-0.34,0.45,0.58,
1.758,-0.02,-0.13,1.04,-0.34,0.45,0.58,
1.758,-0.02,-0.13,1.04,-0.23,0.43,0.71,
1.76,-0.01,-0.13,1.04,-0.23,0.43,0.71,
1.763,-0.01,-0.13,1.05,-0.23,0.43,0.71,
1.764,-0.01,-0.13,1.05,-0.13,0.47,0.81,
1.765,-0.00,-0.13,1.06,-0.13,0.47,0.81,
1.768,-0.01,-0.13,1.06,-0.13,0.47,0.81,
1.768,-0.01,-0.13,1.06,-0.01,0.53,0.92,
1.77,-0.01,-0.13,1.06,-0.01,0.53,0.92,
1.772,-0.00,-0.13,1.06,-0.01,0.53,0.92,
1.773,-0.00,-0.13,1.06,0.01,0.58,1.03,
1.777,-0.01,-0.13,1.06,0.01,0.58,1.03,
1.777,-0.01,-0.14,1.06,0.01,0.58,1.03,
1.778,-0.01,-0.14,1.06,0.02,0.58,1.11,
1.781,-0.01,-0.14,1.07,0.02,0.58,1.11,
1.786,-0.02,-0.14,1.07,0.02,0.58,1.11,
1.786,-0.02,-0.14,1.07,-0.02,0.57,1.11,
1.787,-0.04,-0.14,1.08,-0.02,0.57,1.11,
1.788,-0.06,-0.14,1.09,-0.02,0.57,1.11,
1.788,-0.06,-0.14,1.09,-0.11,0.52,1.14,
1.79,-0.07,-0.14,1.09,-0.11,0.52,1.14,
1.793,-0.07,-0.14,1.10,-0.11,0.52,1.14,
1.793,-0.07,-0.14,1.10,-0.37,0.55,1.30,
1.796,-0.07,-0.13,1.11,-0.37,0.55,1.30,
1.799,-0.08,-0.14,1.11,-0.37,0.55,1.30,
1.8,-0.08,-0.14,1.11,-0.59,0.61,1.41,
1.8,-0.08,-0.14,1.10,-0.59,0.61,1.41,
1.803,-0.08,-0.14,1.10,-0.62,0.64,1.52,
1.803,-0.08,-0.14,1.10,-0.62,0.64,1.52,
1.805,-0.08,-0.15,1.10,-0.62,0.64,1.52,
1.808,-0.08,-0.16,1.10,-0.62,0.64,1.52,
1.808,-0.08,-0.16,1.10,-0.62,0.59,1.47,
1.811,-0.08,-0.16,1.09,-0.62,0.59,1.47,
1.813,-0.08,-0.17,1.09,-0.62,0.59,1.47,
1.813,-0.08,-0.17,1.09,-0.58,0.47,1.44,
1.815,-0.08,-0.19,1.08,-0.58,0.47,1.44,
1.817,-0.08,-0.20,1.07,-0.58,0.47,1.44,
1.818,-0.08,-0.20,1.07,-0.59,0.35,1.37,
1.82,-0.08,-0.20,1.07,-0.59,0.35,1.37,
1.823,-0.08,-0.21,1.06,-0.59,0.35,1.37,
1.823,-0.08,-0.21,1.06,-0.58,0.13,1.20,
1.825,-0.08,-0.21,1.06,-0.58,0.13,1.20,
1.828,-0.08,-0.21,1.05,-0.58,0.13,1.20,
1.828,-0.08,-0.21,1.05,-0.55,-0.03,1.12,
1.829,-0.09,-0.22,1.05,-0.55,-0.03,1.12,
1.832,-0.09,-0.22,1.05,-0.55,-0.03,1.12,
1.833,-0.09,-0.22,1.05,-0.55,-0.09,1.01,
1.834,-0.10,-0.22,1.05,-0.55,-0.09,1.01,
1.837,-0.10,-0.22,1.05,-0.59,-0.13,1.01,
1.837,-0.10,-0.22,1.05,-0.59,-0.13,1.01,
1.84,-0.10,-0.22,1.04,-0.59,-0.13,1.01,
1.842,-0.10,-0.21,1.03,-0.59,-0.13,1.01,
1.842,-0.10,-0.21,1.03,-0.65,-0.13,0.95,
1.844,-0.11,-0.20,1.03,-0.65,-0.13,0.95,
1.849,-0.12,-0.20,1.03,-0.65,-0.13,0.95,
1.85,-0.12,-0.20,1.03,-0.68,-0.04,0.82,
1.85,-0.12,-0.20,1.02,-0.68,-0.04,0.82,
1.852,-0.12,-0.19,1.01,-0.68,-0.04,0.82,
1.852,-0.12,-0.19,1.01,-0.78,0.05,0.76,
1.855,-0.13,-0.19,1.01,-0.78,0.05,0.76,
1.857,-0.14,-0.20,1.00,-0.78,0.05,0.76,
1.857,-0.14,-0.20,1.00,-0.85,0.13,0.62,
1.86,-0.14,-0.20,0.99,-0.85,0.13,0.62,
1.863,-0.13,-0.21,1.00,-0.85,0.13,0.62,
1.863,-0.13,-0.21,1.00,-1.00,0.15,0.53,
1.864,-0.13,-0.21,1.01,-1.00,0.15,0.53,
1.866,-0.13,-0.21,1.00,-1.00,0.15,0.53,
1.867,-0.13,-0.21,1.00,-1.01,0.08,0.46,
1.869,-0.14,-0.21,1.01,-1.01,0.08,0.46,
1.872,-0.13,-0.22,1.02,-1.01,0.08,0.46,
1.872,-0.13,-0.22,1.02,-0.99,0.05,0.55,
1.875,-0.13,-0.22,1.04,-0.99,0.05,0.55,
1.877,-0.13,-0.22,1.05,-0.99,0.05,0.55,
1.877,-0.13,-0.22,1.05,-1.04,0.02,0.66,
1.88,-0.13,-0.23,1.06,-1.04,0.02,0.66,
1.883,-0.12,-0.24,1.08,-1.04,0.02,0.66,
1.883,-0.12,-0.24,1.08,-0.97,-0.02,0.91,
1.884,-0.12,-0.25,1.10,-0.97,-0.02,0.91,
1.887,-0.12,-0.25,1.11,-0.97,-0.02,0.91,
1.887,-0.12,-0.25,1.11,-0.96,-0.12,1.20,
1.889,-0.11,-0.25,1.12,-0.96,-0.12,1.20,
1.892,-0.11,-0.25,1.13,-0.96,-0.12,1.20,
1.892,-0.11,-0.25,1.13,-0.90,-0.21,1.51,
1.894,-0.10,-0.26,1.13,-0.90,-0.21,1.51,
1.897,-0.09,-0.25,1.14,-0.90,-0.21,1.51,
1.897,-0.09,-0.25,1.14,-0.78,-0.23,1.74,
1.899,-0.08,-0.25,1.15,-0.78,-0.23,1.74,
1.901,-0.08,-0.26,1.15,-0.78,-0.23,1.74,
1.901,-0.08,-0.26,1.15,-0.62,-0.23,1.83,
1.904,-0.08,-0.26,1.15,-0.62,-0.23,1.83,
1.906,-0.08,-0.27,1.16,-0.62,-0.23,1.83,
1.906,-0.08,-0.27,1.16,-0.49,-0.21,1.98,
1.908,-0.08,-0.29,1.15,-0.49,-0.21,1.98,
1.911,-0.08,-0.30,1.15,-0.49,-0.21,1.98,
1.911,-0.08,-0.30,1.15,-0.47,-0.33,2.04,
1.913,-0.09,-0.30,1.16,-0.47,-0.33,2.04,
1.927,-0.11,-0.31,1.16,-0.47,-0.33,2.04,
1.928,-0.11,-0.31,1.16,-0.51,-0.53,2.01,
1.928,-0.11,-0.32,1.16,-0.51,-0.53,2.01,
1.928,-0.12,-0.32,1.16,-0.51,-0.53,2.01,
1.929,-0.12,-0.32,1.16,-0.67,-0.67,2.05,
1.929,-0.12,-0.33,1.15,-0.67,-0.67,2.05,
1.929,-0.12,-0.33,1.15,-0.67,-0.67,2.05,
1.929,-0.12,-0.33,1.15,-0.83,-0.82,2.06,
1.93,-0.13,-0.33,1.15,-0.83,-0.82,2.06,
1.933,-0.13,-0.33,1.15,-0.83,-0.82,2.06,
1.933,-0.13,-0.33,1.15,-0.88,-0.86,2.00,
1.933,-0.13,-0.34,1.15,-0.88,-0.86,2.00,
1.936,-0.13,-0.33,1.14,-0.88,-0.86,2.00,
1.936,-0.13,-0.33,1.14,-0.92,-0.91,1.99,
1.938,-0.14,-0.33,1.14,-0.92,-0.91,1.99,
1.941,-0.15,-0.32,1.13,-0.92,-0.91,1.99,
1.941,-0.15,-0.32,1.13,-0.94,-0.92,1.93,
1.943,-0.16,-0.32,1.13,-0.94,-0.92,1.93,
1.946,-0.17,-0.31,1.12,-0.94,-0.92,1.93,
1.946,-0.17,-0.31,1.12,-1.05,-0.82,1.86,
1.95,-0.17,-0.32,1.11,-1.05,-0.82,1.86,
1.951,-0.18,-0.31,1.10,-1.05,-0.82,1.86,
1.952,-0.18,-0.31,1.10,-1.24,-0.72,1.74,
1.953,-0.18,-0.31,1.10,-1.24,-0.72,1.74,
1.955,-0.18,-0.30,1.09,-1.24,-0.72,1.74,
1.956,-0.18,-0.30,1.09,-1.36,-0.68,1.56,
1.958,-0.19,-0.30,1.08,-1.36,-0.68,1.56,
1.961,-0.19,-0.30,1.08,-1.43,-0.60,1.41,
1.962,-0.18,-0.29,1.08,-1.43,-0.60,1.41,
1.963,-0.18,-0.29,1.07,-1.43,-0.60,1.41,
1.967,-0.17,-0.28,1.07,-1.43,-0.60,1.41,
1.968,-0.17,-0.28,1.07,-1.45,-0.50,1.31,
1.968,-0.17,-0.28,1.08,-1.45,-0.50,1.31,
1.971,-0.17,-0.28,1.08,-1.39,-0.40,1.22,
1.971,-0.17,-0.28,1.07,-1.39,-0.40,1.22,
1.973,-0.17,-0.28,1.06,-1.39,-0.40,1.22,
1.976,-0.18,-0.28,1.05,-1.39,-0.40,1.22,
1.976,-0.18,-0.28,1.05,-1.32,-0.37,1.23,
1.978,-0.19,-0.28,1.05,-1.32,-0.37,1.23,
1.981,-0.19,-0.29,1.05,-1.32,-0.37,1.23,
1.981,-0.19,-0.29,1.05,-1.39,-0.37,1.06,
1.983,-0.19,-0.29,1.04,-1.39,-0.37,1.06,
1.986,-0.18,-0.29,1.04,-1.39,-0.37,1.06,
1.986,-0.18,-0.29,1.04,-1.56,-0.39,0.97,
1.988,-0.17,-0.28,1.04,-1.56,-0.39,0.97,
1.991,-0.16,-0.28,1.03,-1.56,-0.39,0.97,
1.991,-0.16,-0.28,1.03,-1.47,-0.43,0.87,
1.993,-0.16,-0.28,1.02,-1.47,-0.43,0.87,
1.995,-0.16,-0.28,1.03,-1.47,-0.43,0.87,
1.996,-0.16,-0.28,1.03,-1.31,-0.32,0.82,
2.0,-0.15,-0.28,1.03,-1.31,-0.32,0.82,
2.0,-0.15,-0.28,1.03,-1.31,-0.32,0.82,
2.0,-0.15,-0.28,1.03,-1.23,-0.28,0.77,
2.003,-0.15,-0.28,1.03,-1.23,-0.28,0.77,
2.006,-0.15,-0.28,1.03,-1.19,-0.27,0.80,
2.006,-0.15,-0.29,1.01,-1.19,-0.27,0.80,
2.007,-0.14,-0.29,1.02,-1.19,-0.27,0.80,
2.011,-0.14,-0.29,1.02,-1.19,-0.27,0.80,
2.011,-0.14,-0.29,1.02,-1.15,-0.33,0.70,
2.013,-0.14,-0.28,1.03,-1.15,-0.33,0.70,
2.019,-0.13,-0.28,1.03,-1.15,-0.33,0.70,
2.02,-0.13,-0.28,1.03,-1.08,-0.39,0.68,
2.02,-0.13,-0.28,1.04,-1.08,-0.39,0.68,
2.02,-0.13,-0.28,1.04,-1.08,-0.39,0.68,
2.02,-0.13,-0.28,1.04,-1.02,-0.28,0.82,
2.023,-0.13,-0.28,1.05,-1.02,-0.28,0.82,
2.025,-0.13,-0.28,1.05,-1.02,-0.28,0.82,
2.025,-0.13,-0.28,1.05,-0.92,-0.22,0.90,
2.028,-0.14,-0.29,1.05,-0.92,-0.22,0.90,
2.03,-0.15,-0.29,1.05,-0.92,-0.22,0.90,
2.031,-0.15,-0.29,1.05,-0.96,-0.22,1.00,
2.033,-0.15,-0.30,1.06,-0.96,-0.22,1.00,
2.035,-0.16,-0.30,1.05,-0.96,-0.22,1.00,
2.035,-0.16,-0.30,1.05,-1.08,-0.32,1.01,
2.037,-0.16,-0.31,1.06,-1.08,-0.32,1.01,
2.04,-0.16,-0.31,1.06,-1.08,-0.32,1.01,
2.041,-0.16,-0.31,1.06,-1.18,-0.42,1.04,
2.043,-0.15,-0.31,1.07,-1.18,-0.42,1.04,
2.045,-0.15,-0.31,1.07,-1.18,-0.42,1.04,
2.045,-0.15,-0.31,1.07,-1.21,-0.50,1.12,
2.047,-0.15,-0.31,1.07,-1.21,-0.50,1.12,
2.049,-0.14,-0.30,1.07,-1.21,-0.50,1.12,
2.05,-0.14,-0.30,1.07,-1.13,-0.50,1.15,
2.052,-0.14,-0.30,1.07,-1.13,-0.50,1.15,
2.055,-0.14,-0.30,1.07,-1.07,-0.43,1.19,
2.055,-0.14,-0.30,1.08,-1.07,-0.43,1.19,
2.057,-0.14,-0.30,1.08,-1.07,-0.43,1.19,
2.06,-0.14,-0.30,1.08,-1.05,-0.41,1.24,
2.061,-0.15,-0.29,1.08,-1.05,-0.41,1.24,
2.063,-0.14,-0.29,1.08,-1.05,-0.41,1.24,
2.067,-0.13,-0.28,1.08,-1.05,-0.41,1.24,
2.067,-0.13,-0.28,1.08,-1.08,-0.36,1.27,
2.067,-0.13,-0.28,1.09,-1.08,-0.36,1.27,
2.07,-0.13,-0.28,1.09,-1.08,-0.36,1.27,
2.07,-0.13,-0.28,1.09,-0.99,-0.24,1.30,
2.073,-0.12,-0.27,1.09,-0.99,-0.24,1.30,
2.075,-0.13,-0.26,1.08,-0.99,-0.24,1.30,
2.075,-0.13,-0.26,1.08,-0.92,-0.16,1.34,
2.077,-0.13,-0.26,1.08,-0.92,-0.16,1.34,
2.08,-0.13,-0.26,1.09,-0.92,-0.16,1.34,
2.08,-0.13,-0.26,1.09,-0.90,0.00,1.35,
2.084,-0.13,-0.25,1.09,-0.90,0.00,1.35,
2.084,-0.14,-0.25,1.08,-0.90,0.00,1.35,
2.084,-0.14,-0.25,1.08,-0.94,0.07,1.33,
2.087,-0.13,-0.25,1.07,-0.94,0.07,1.33,
2.09,-0.13,-0.25,1.07,-0.97,0.10,1.32,
2.09,-0.13,-0.25,1.07,-0.97,0.10,1.32,
2.092,-0.13,-0.25,1.06,-0.97,0.10,1.32,
2.095,-0.13,-0.25,1.05,-0.97,0.10,1.32,
2.095,-0.13,-0.25,1.05,-0.93,0.09,1.20,
2.097,-0.13,-0.26,1.05,-0.93,0.09,1.20,
2.1,-0.13,-0.26,1.04,-0.93,0.09,1.20,
2.1,-0.13,-0.26,1.04,-0.89,0.08,1.04,
2.101,-0.13,-0.27,1.03,-0.89,0.08,1.04,
2.104,-0.12,-0.27,1.03,-0.89,0.08,1.04,
2.104,-0.12,-0.27,1.03,-0.89,0.02,0.92,
2.107,-0.12,-0.27,1.03,-0.89,0.02,0.92,
2.109,-0.12,-0.27,1.03,-0.89,0.02,0.92,
2.109,-0.12,-0.27,1.03,-0.85,-0.07,0.81,
2.111,-0.11,-0.28,1.03,-0.85,-0.07,0.81,
2.114,-0.10,-0.28,1.04,-0.85,-0.07,0.81,
2.114,-0.10,-0.28,1.04,-0.81,-0.10,0.83,
2.12,-0.09,-0.28,1.04,-0.81,-0.10,0.83,
2.12,-0.08,-0.28,1.05,-0.81,-0.10,0.83,
2.121,-0.08,-0.28,1.05,-0.65,-0.17,0.85,
2.123,-0.08,-0.27,1.05,-0.65,-0.17,0.85,
2.125,-0.07,-0.27,1.06,-0.65,-0.17,0.85,
2.125,-0.07,-0.27,1.06,-0.47,-0.17,0.93,
2.126,-0.06,-0.27,1.07,-0.47,-0.17,0.93,
2.13,-0.05,-0.27,1.08,-0.47,-0.17,0.93,
2.13,-0.05,-0.27,1.08,-0.32,-0.08,1.05,
2.132,-0.04,-0.27,1.09,-0.32,-0.08,1.05,
2.134,-0.03,-0.28,1.11,-0.32,-0.08,1.05,
2.135,-0.03,-0.28,1.11,-0.16,-0.06,1.25,
2.136,-0.03,-0.27,1.11,-0.16,-0.06,1.25,
2.139,-0.03,-0.28,1.12,-0.16,-0.06,1.25,
2.141,-0.03,-0.28,1.12,0.02,-0.08,1.45,
2.141,-0.02,-0.27,1.13,0.02,-0.08,1.45,
2.144,-0.01,-0.28,1.14,0.02,-0.08,1.45,
2.144,-0.01,-0.28,1.14,0.11,-0.06,1.64,
2.146,-0.01,-0.27,1.15,0.11,-0.06,1.64,
2.149,-0.01,-0.27,1.16,0.11,-0.06,1.64,
2.15,-0.01,-0.27,1.16,0.21,-0.05,1.82,
2.151,-0.01,-0.27,1.16,0.21,-0.05,1.82,
2.154,-0.02,-0.27,1.17,0.21,-0.05,1.82,
2.155,-0.02,-0.27,1.17,0.26,-0.04,1.97,
2.156,-0.01,-0.27,1.18,0.26,-0.04,1.97,
2.158,-0.01,-0.27,1.18,0.26,-0.04,1.97,
2.159,-0.01,-0.27,1.18,0.24,-0.02,2.11,
2.162,-0.02,-0.28,1.19,0.24,-0.02,2.11,
2.165,-0.02,-0.28,1.19,0.24,-0.02,2.11,
2.165,-0.02,-0.28,1.19,0.22,-0.02,2.25,
2.168,-0.02,-0.28,1.18,0.22,-0.02,2.25,
2.169,-0.03,-0.28,1.18,0.22,-0.02,2.25,
2.169,-0.03,-0.28,1.18,0.19,-0.07,2.33,
2.171,-0.03,-0.28,1.17,0.19,-0.07,2.33,
2.173,-0.04,-0.28,1.16,0.19,-0.07,2.33,
2.173,-0.04,-0.28,1.16,0.09,-0.09,2.25,
2.176,-0.04,-0.28,1.15,0.09,-0.09,2.25,
2.179,-0.04,-0.28,1.14,0.09,-0.09,2.25,
2.179,-0.04,-0.28,1.14,-0.01,-0.13,2.09,
2.181,-0.05,-0.28,1.13,-0.01,-0.13,2.09,
2.183,-0.04,-0.28,1.13,-0.01,-0.13,2.09,
2.184,-0.04,-0.28,1.13,-0.07,-0.12,1.88,
2.186,-0.03,-0.27,1.12,-0.07,-0.12,1.88,
2.189,-0.03,-0.26,1.12,-0.07,-0.12,1.88,
2.189,-0.03,-0.26,1.12,-0.06,-0.10,1.76,
2.191,-0.03,-0.26,1.12,-0.06,-0.10,1.76,
2.194,-0.02,-0.25,1.12,-0.06,-0.10,1.76,
2.194,-0.02,-0.25,1.12,0.06,0.04,1.65,
2.195,-0.02,-0.24,1.12,0.06,0.04,1.65,
2.199,-0.01,-0.24,1.13,0.06,0.04,1.65,
2.2,-0.01,-0.24,1.13,0.11,0.13,1.64,
2.201,-0.01,-0.24,1.14,0.11,0.13,1.64,
2.203,-0.00,-0.24,1.14,0.11,0.13,1.64,
2.203,-0.00,-0.24,1.14,0.26,0.23,1.68,
2.205,0.00,-0.24,1.14,0.26,0.23,1.68,
2.208,0.01,-0.25,1.16,0.26,0.23,1.68,
2.208,0.01,-0.25,1.16,0.33,0.25,1.80,
2.21,0.02,-0.25,1.17,0.33,0.25,1.80,
2.213,0.02,-0.25,1.17,0.33,0.25,1.80,
2.213,0.02,-0.25,1.17,0.43,0.22,1.93,
2.217,0.03,-0.26,1.18,0.43,0.22,1.93,
2.218,0.03,-0.27,1.19,0.43,0.22,1.93,
2.218,0.03,-0.27,1.19,0.55,0.17,2.13,
2.22,0.04,-0.28,1.20,0.55,0.17,2.13,
2.223,0.04,-0.28,1.20,0.67,0.06,2.27,
2.223,0.04,-0.28,1.21,0.67,0.06,2.27,
2.225,0.04,-0.28,1.22,0.67,0.06,2.27,
2.228,0.04,-0.29,1.22,0.67,0.06,2.27,
2.229,0.04,-0.29,1.22,0.71,-0.12,2.47,
2.23,0.05,-0.30,1.23,0.71,-0.12,2.47,
2.237,0.06,-0.30,1.24,0.71,-0.12,2.47,
2.238,0.06,-0.30,1.24,0.75,-0.18,2.57,
2.238,0.07,-0.30,1.24,0.75,-0.18,2.57,
2.238,0.07,-0.31,1.25,0.75,-0.18,2.57,
2.239,0.07,-0.31,1.25,0.82,-0.28,2.72,
2.241,0.07,-0.31,1.25,0.82,-0.28,2.72,
2.243,0.07,-0.31,1.24,0.82,-0.28,2.72,
2.243,0.07,-0.31,1.24,0.95,-0.36,2.79,
2.245,0.08,-0.31,1.23,0.95,-0.36,2.79,
2.247,0.08,-0.32,1.22,0.95,-0.36,2.79,
2.248,0.08,-0.32,1.22,0.95,-0.45,2.80,
2.251,0.08,-0.31,1.21,0.95,-0.45,2.80,
2.252,0.08,-0.31,1.19,0.95,-0.45,2.80,
2.253,0.08,-0.31,1.19,1.04,-0.50,2.62,
2.255,0.08,-0.31,1.18,1.04,-0.50,2.62,
2.257,0.08,-0.30,1.17,1.04,-0.50,2.62,
2.258,0.08,-0.30,1.17,1.03,-0.47,2.37,
2.26,0.07,-0.30,1.15,1.03,-0.47,2.37,
2.262,0.07,-0.30,1.14,1.03,-0.47,2.37,
2.263,0.07,-0.30,1.14,1.04,-0.43,2.05,
2.268,0.06,-0.29,1.14,1.04,-0.43,2.05,
2.268,0.05,-0.29,1.13,1.04,-0.43,2.05,
2.269,0.05,-0.29,1.13,0.92,-0.36,1.79,
2.27,0.05,-0.28,1.12,0.92,-0.36,1.79,
2.272,0.04,-0.28,1.12,0.92,-0.36,1.79,
2.272,0.04,-0.28,1.12,0.78,-0.32,1.65,
2.275,0.04,-0.27,1.12,0.78,-0.32,1.65,
2.278,0.04,-0.25,1.12,0.78,-0.32,1.65,
2.278,0.04,-0.25,1.12,0.66,-0.24,1.53,
2.28,0.03,-0.25,1.12,0.66,-0.24,1.53,
2.283,0.03,-0.25,1.12,0.66,-0.24,1.53,
2.283,0.03,-0.25,1.12,0.56,-0.06,1.52,
2.285,0.02,-0.25,1.12,0.56,-0.06,1.52,
2.287,0.02,-0.25,1.11,0.56,-0.06,1.52,
2.287,0.02,-0.25,1.11,0.43,0.02,1.50,
2.29,0.02,-0.24,1.11,0.43,0.02,1.50,
2.292,0.02,-0.24,1.11,0.34,0.02,1.46,
2.292,0.01,-0.25,1.10,0.34,0.02,1.46,
2.295,0.02,-0.25,1.10,0.34,0.02,1.46,
2.297,0.02,-0.25,1.10,0.34,0.02,1.46,
2.297,0.02,-0.25,1.10,0.26,0.01,1.37,
2.3,0.01,-0.25,1.10,0.26,0.01,1.37,
2.302,0.02,-0.25,1.10,0.26,0.01,1.37,
2.302,0.02,-0.25,1.10,0.27,-0.01,1.32,
2.305,0.02,-0.24,1.09,0.27,-0.01,1.32,
2.307,0.01,-0.24,1.09,0.27,-0.01,1.32,
2.307,0.01,-0.24,1.09,0.23,-0.03,1.27,
2.31,0.02,-0.24,1.08,0.23,-0.03,1.27,
2.313,0.02,-0.24,1.07,0.23,-0.03,1.27,
2.313,0.02,-0.24,1.07,0.21,-0.02,1.16,
2.315,0.02,-0.24,1.06,0.21,-0.02,1.16,
2.318,0.02,-0.23,1.05,0.21,-0.02,1.16,
2.318,0.02,-0.23,1.05,0.26,0.01,1.02,
2.32,0.03,-0.23,1.04,0.26,0.01,1.02,
2.322,0.04,-0.22,1.03,0.26,0.01,1.02,
2.322,0.04,-0.22,1.03,0.28,0.04,0.85,
2.327,0.04,-0.22,1.02,0.28,0.04,0.85,
2.328,0.04,-0.21,1.02,0.28,0.04,0.85,
2.328,0.04,-0.21,1.02,0.36,0.12,0.59,
2.329,0.04,-0.21,1.02,0.36,0.12,0.59,
2.332,0.04,-0.21,1.01,0.36,0.12,0.59,
2.332,0.04,-0.21,1.01,0.43,0.19,0.48,
2.334,0.03,-0.21,1.02,0.43,0.19,0.48,
2.337,0.03,-0.21,1.02,0.43,0.19,0.48,
2.337,0.03,-0.21,1.02,0.39,0.25,0.42,
2.34,0.04,-0.21,1.02,0.39,0.25,0.42,
2.342,0.03,-0.21,1.03,0.39,0.25,0.42,
2.342,0.03,-0.21,1.03,0.34,0.20,0.44,
2.345,0.04,-0.21,1.04,0.34,0.20,0.44,
2.347,0.04,-0.21,1.05,0.34,0.20,0.44,
2.347,0.04,-0.21,1.05,0.33,0.19,0.52,
2.349,0.04,-0.21,1.05,0.33,0.19,0.52,
2.355,0.03,-0.21,1.06,0.33,0.19,0.52,
2.355,0.03,-0.21,1.06,0.34,0.13,0.68,
2.355,0.03,-0.22,1.06,0.34,0.13,0.68,
2.359,0.03,-0.22,1.06,0.31,0.11,0.79,
2.359,0.03,-0.22,1.07,0.31,0.11,0.79,
2.359,0.02,-0.23,1.07,0.31,0.11,0.79,
2.362,0.02,-0.23,1.08,0.31,0.11,0.79,
2.362,0.02,-0.23,1.08,0.21,0.01,0.87,
2.365,0.01,-0.23,1.08,0.21,0.01,0.87,
2.368,0.00,-0.23,1.09,0.21,0.01,0.87,
2.368,0.00,-0.23,1.09,0.11,-0.06,0.95,
2.369,-0.00,-0.23,1.09,0.11,-0.06,0.95,
2.372,-0.01,-0.23,1.09,0.11,-0.06,0.95,
2.372,-0.01,-0.23,1.09,-0.04,-0.11,1.04,
2.375,-0.01,-0.22,1.08,-0.04,-0.11,1.04,
2.377,-0.01,-0.21,1.08,-0.04,-0.11,1.04,
2.377,-0.01,-0.21,1.08,-0.18,-0.13,1.07,
2.379,-0.01,-0.21,1.08,-0.18,-0.13,1.07,
2.382,-0.02,-0.21,1.07,-0.18,-0.13,1.07,
2.382,-0.02,-0.21,1.07,-0.23,-0.04,1.05,
2.384,-0.03,-0.20,1.06,-0.23,-0.04,1.05,
2.386,-0.03,-0.20,1.06,-0.23,-0.04,1.05,
2.387,-0.03,-0.20,1.06,-0.34,0.00,0.96,
2.389,-0.04,-0.20,1.06,-0.34,0.00,0.96,
2.392,-0.04,-0.20,1.04,-0.34,0.00,0.96,
2.392,-0.04,-0.20,1.04,-0.47,0.02,0.83,
2.394,-0.04,-0.19,1.04,-0.47,0.02,0.83,
2.397,-0.04,-0.19,1.04,-0.47,0.02,0.83,
2.397,-0.04,-0.19,1.04,-0.57,0.06,0.70,
2.399,-0.04,-0.18,1.04,-0.57,0.06,0.70,
2.401,-0.03,-0.18,1.03,-0.57,0.06,0.70,
2.402,-0.03,-0.18,1.03,-0.62,0.09,0.59,
2.404,-0.03,-0.18,1.03,-0.62,0.09,0.59,
2.407,-0.02,-0.17,1.01,-0.62,0.09,0.59,
2.407,-0.02,-0.17,1.01,-0.58,0.16,0.51,
2.409,-0.02,-0.17,1.02,-0.58,0.16,0.51,
2.412,-0.02,-0.17,1.01,-0.58,0.16,0.51,
2.412,-0.02,-0.17,1.01,-0.50,0.21,0.39,
2.414,-0.02,-0.17,0.99,-0.50,0.21,0.39,
2.418,-0.03,-0.17,0.99,-0.50,0.21,0.39,
2.419,-0.03,-0.17,0.99,-0.50,0.23,0.27,
2.419,-0.04,-0.17,0.99,-0.50,0.23,0.27,
2.421,-0.03,-0.18,0.99,-0.50,0.23,0.27,
2.421,-0.03,-0.18,0.99,-0.55,0.19,0.08,
2.424,-0.04,-0.17,0.99,-0.55,0.19,0.08,
2.426,-0.03,-0.17,0.98,-0.55,0.19,0.08,
2.427,-0.03,-0.17,0.98,-0.65,0.13,0.07,
2.429,-0.03,-0.17,0.98,-0.65,0.13,0.07,
2.431,-0.02,-0.17,0.98,-0.65,0.13,0.07,
2.432,-0.02,-0.17,0.98,-0.66,0.12,-0.00,
2.434,-0.02,-0.17,0.99,-0.66,0.12,-0.00,
2.436,-0.02,-0.17,0.99,-0.66,0.12,-0.00,
2.436,-0.02,-0.17,0.99,-0.61,0.10,-0.04,
2.438,-0.02,-0.16,1.00,-0.61,0.10,-0.04,
2.441,-0.03,-0.16,1.01,-0.61,0.10,-0.04,
2.441,-0.03,-0.16,1.01,-0.56,0.11,0.06,
2.443,-0.03,-0.16,1.01,-0.56,0.11,0.06,
2.445,-0.02,-0.16,1.02,-0.56,0.11,0.06,
2.446,-0.02,-0.16,1.02,-0.61,0.15,0.17,
2.448,-0.02,-0.17,1.02,-0.61,0.15,0.17,
2.454,-0.02,-0.17,1.03,-0.61,0.15,0.17,
2.454,-0.02,-0.17,1.03,-0.65,0.09,0.26,
2.455,-0.02,-0.17,1.04,-0.65,0.09,0.26,
2.455,-0.01,-0.17,1.05,-0.65,0.09,0.26,
2.459,-0.01,-0.17,1.05,-0.64,0.04,0.39,
2.459,-0.01,-0.17,1.06,-0.64,0.04,0.39,
2.46,-0.01,-0.17,1.06,-0.64,0.04,0.39,
2.461,-0.01,-0.17,1.06,-0.58,-0.04,0.61,
2.463,-0.01,-0.17,1.07,-0.58,-0.04,0.61,
2.467,-0.01,-0.17,1.07,-0.58,-0.04,0.61,
2.468,-0.01,-0.17,1.07,-0.56,-0.07,0.70,
2.468,0.00,-0.16,1.07,-0.56,-0.07,0.70,
2.471,0.00,-0.17,1.07,-0.56,-0.07,0.70,
2.471,0.00,-0.17,1.07,-0.56,-0.06,0.80,
2.473,0.01,-0.17,1.07,-0.56,-0.06,0.80,
2.475,0.01,-0.16,1.07,-0.56,-0.06,0.80,
2.475,0.01,-0.16,1.07,-0.50,-0.06,0.82,
2.478,0.01,-0.17,1.07,-0.50,-0.06,0.82,
2.48,0.01,-0.17,1.07,-0.47,-0.08,0.85,
2.48,0.01,-0.17,1.08,-0.47,-0.08,0.85,
2.484,0.01,-0.16,1.07,-0.47,-0.08,0.85,
2.485,0.01,-0.16,1.07,-0.47,-0.08,0.85,
2.485,0.01,-0.16,1.07,-0.48,-0.13,0.85,
2.488,0.02,-0.16,1.07,-0.48,-0.13,0.85,
2.49,0.02,-0.16,1.07,-0.48,-0.13,0.85,
2.49,0.02,-0.16,1.07,-0.49,-0.11,0.82,
2.492,0.03,-0.16,1.06,-0.49,-0.11,0.82,
2.495,0.03,-0.16,1.06,-0.49,-0.11,0.82,
2.495,0.03,-0.16,1.06,-0.45,-0.13,0.79,
2.497,0.03,-0.15,1.05,-0.45,-0.13,0.79,
2.501,0.04,-0.15,1.04,-0.45,-0.13,0.79,
2.501,0.04,-0.15,1.04,-0.40,-0.14,0.69,
2.502,0.05,-0.15,1.04,-0.40,-0.14,0.69,
2.505,0.05,-0.15,1.04,-0.32,-0.08,0.56,
2.505,0.05,-0.14,1.04,-0.32,-0.08,0.56,
2.507,0.05,-0.14,1.02,-0.32,-0.08,0.56,
2.51,0.05,-0.14,1.01,-0.32,-0.08,0.56,
2.51,0.05,-0.14,1.01,-0.22,-0.08,0.47,
2.512,0.05,-0.14,1.00,-0.22,-0.08,0.47,
2.515,0.05,-0.14,0.99,-0.22,-0.08,0.47,
2.515,0.05,-0.14,0.99,-0.18,-0.08,0.26,
2.517,0.05,-0.14,0.97,-0.18,-0.08,0.26,
2.52,0.06,-0.14,0.96,-0.18,-0.08,0.26,
2.52,0.06,-0.14,0.96,-0.21,-0.11,-0.00,
2.523,0.05,-0.14,0.95,-0.21,-0.11,-0.00,
2.525,0.05,-0.13,0.94,-0.21,-0.11,-0.00,
2.525,0.05,-0.13,0.94,-0.20,-0.15,-0.25,
2.527,0.05,-0.13,0.92,-0.20,-0.15,-0.25,
2.53,0.05,-0.13,0.91,-0.20,-0.15,-0.25,
2.531,0.05,-0.13,0.91,-0.24,-0.15,-0.48,
2.532,0.04,-0.13,0.90,-0.24,-0.15,-0.48,
2.536,0.03,-0.13,0.89,-0.24,-0.15,-0.48,
2.536,0.03,-0.13,0.89,-0.28,-0.15,-0.76,
2.537,0.03,-0.12,0.87,-0.28,-0.15,-0.76,
2.54,0.03,-0.12,0.86,-0.28,-0.15,-0.76,
2.54,0.03,-0.12,0.86,-0.39,-0.19,-0.97,
2.542,0.03,-0.11,0.86,-0.39,-0.19,-0.97,
2.544,0.02,-0.11,0.85,-0.39,-0.19,-0.97,
2.545,0.02,-0.11,0.85,-0.45,-0.12,-1.22,
2.547,0.02,-0.10,0.84,-0.45,-0.12,-1.22,
2.555,0.01,-0.10,0.84,-0.45,-0.12,-1.22,
2.555,0.01,-0.10,0.84,-0.54,-0.09,-1.37,
2.555,0.01,-0.10,0.83,-0.54,-0.09,-1.37,
2.556,0.01,-0.10,0.83,-0.65,-0.04,-1.49,
2.556,0.01,-0.10,0.83,-0.65,-0.04,-1.49,
2.557,0.00,-0.10,0.83,-0.65,-0.04,-1.49,
2.559,0.00,-0.09,0.83,-0.65,-0.04,-1.49,
2.56,0.00,-0.09,0.83,-0.73,-0.04,-1.56,
2.563,0.00,-0.09,0.82,-0.73,-0.04,-1.56,
2.565,-0.00,-0.09,0.82,-0.73,-0.04,-1.56,
2.565,-0.00,-0.09,0.82,-0.79,-0.03,-1.63,
2.569,-0.01,-0.09,0.82,-0.79,-0.03,-1.63,
2.569,-0.01,-0.09,0.83,-0.79,-0.03,-1.63,
2.57,-0.01,-0.09,0.83,-0.83,-0.04,-1.69,
2.572,-0.01,-0.09,0.83,-0.83,-0.04,-1.69,
2.574,-0.01,-0.08,0.83,-0.83,-0.04,-1.69,
2.574,-0.01,-0.08,0.83,-0.89,0.00,-1.68,
2.577,-0.01,-0.08,0.84,-0.89,0.00,-1.68,
2.58,-0.01,-0.07,0.84,-0.89,0.00,-1.68,
2.58,-0.01,-0.07,0.84,-0.96,-0.00,-1.61,
2.581,-0.02,-0.07,0.85,-0.96,-0.00,-1.61,
2.585,-0.02,-0.07,0.85,-0.96,-0.00,-1.61,
2.586,-0.02,-0.07,0.85,-0.98,0.03,-1.49,
2.587,-0.01,-0.07,0.85,-0.98,0.03,-1.49,
2.589,-0.01,-0.07,0.86,-0.98,0.03,-1.49,
2.589,-0.01,-0.07,0.86,-1.01,0.06,-1.39,
2.592,-0.01,-0.07,0.86,-1.01,0.06,-1.39,
2.595,-0.01,-0.08,0.86,-1.01,0.06,-1.39,
2.595,-0.01,-0.08,0.86,-0.99,0.06,-1.36,
2.596,-0.02,-0.08,0.86,-0.99,0.06,-1.36,
2.599,-0.02,-0.08,0.86,-0.99,-0.00,-1.33,
2.599,-0.02,-0.08,0.85,-0.99,-0.00,-1.33,
2.603,-0.01,-0.08,0.85,-0.99,-0.00,-1.33,
2.604,-0.01,-0.08,0.85,-1.01,-0.08,-1.35,
2.604,-0.01,-0.08,0.85,-1.01,-0.08,-1.35,
2.607,-0.02,-0.09,0.84,-1.01,-0.08,-1.35,
2.61,-0.01,-0.08,0.84,-1.01,-0.08,-1.35,
2.61,-0.01,-0.08,0.84,-0.98,-0.13,-1.44,
2.611,-0.01,-0.08,0.84,-0.98,-0.13,-1.44,
2.615,-0.00,-0.08,0.83,-0.98,-0.13,-1.44,
2.615,-0.00,-0.08,0.83,-0.99,-0.20,-1.48,
2.619,-0.00,-0.08,0.82,-0.99,-0.20,-1.48,
2.619,0.00,-0.09,0.81,-0.99,-0.20,-1.48,
2.619,0.00,-0.09,0.81,-0.92,-0.18,-1.54,
2.621,0.00,-0.08,0.81,-0.92,-0.18,-1.54,
2.624,0.01,-0.09,0.81,-0.92,-0.18,-1.54,
2.624,0.01,-0.09,0.81,-0.86,-0.25,-1.73,
2.627,0.01,-0.09,0.80,-0.86,-0.25,-1.73,
2.629,0.01,-0.09,0.80,-0.86,-0.25,-1.73,
2.63,0.01,-0.09,0.80,-0.82,-0.30,-1.77,
2.632,0.01,-0.09,0.80,-0.82,-0.30,-1.77,
2.634,0.01,-0.09,0.79,-0.82,-0.30,-1.77,
2.638,0.01,-0.09,0.79,-0.76,-0.31,-1.86,
2.638,0.01,-0.08,0.78,-0.76,-0.31,-1.86,
2.639,0.00,-0.07,0.78,-0.76,-0.31,-1.86,
2.639,0.00,-0.07,0.78,-0.76,-0.35,-1.94,
2.642,0.00,-0.07,0.78,-0.76,-0.35,-1.94,
2.644,-0.00,-0.06,0.78,-0.76,-0.35,-1.94,
2.645,-0.00,-0.06,0.78,-0.81,-0.25,-2.05,
2.647,-0.01,-0.06,0.78,-0.81,-0.25,-2.05,
2.649,-0.01,-0.05,0.78,-0.81,-0.25,-2.05,
2.649,-0.01,-0.05,0.78,-0.87,-0.16,-2.09,
2.652,-0.01,-0.05,0.79,-0.87,-0.16,-2.09,
2.654,-0.02,-0.05,0.78,-0.87,-0.16,-2.09,
2.654,-0.02,-0.05,0.78,-0.97,-0.09,-2.06,
2.657,-0.02,-0.05,0.79,-0.97,-0.09,-2.06,
2.659,-0.02,-0.04,0.79,-0.97,-0.09,-2.06,
2.659,-0.02,-0.04,0.79,-1.02,-0.04,-2.01,
2.662,-0.02,-0.04,0.79,-1.02,-0.04,-2.01,
2.664,-0.02,-0.05,0.79,-1.02,-0.04,-2.01,
2.665,-0.02,-0.05,0.79,-1.04,-0.04,-1.99,
2.667,-0.02,-0.05,0.80,-1.04,-0.04,-1.99,
2.672,-0.02,-0.06,0.80,-1.04,-0.04,-1.99,
2.672,-0.02,-0.06,0.80,-1.08,-0.05,-1.96,
2.676,-0.02,-0.05,0.80,-1.08,-0.05,-1.96,
2.676,-0.02,-0.05,0.80,-1.08,-0.05,-1.96,
2.676,-0.02,-0.05,0.80,-1.07,-0.14,-1.88,
2.676,-0.01,-0.05,0.80,-1.07,-0.14,-1.88,
2.68,-0.02,-0.05,0.80,-1.07,-0.14,-1.88,
2.68,-0.02,-0.05,0.80,-1.03,-0.13,-1.88,
2.681,-0.01,-0.05,0.80,-1.03,-0.13,-1.88,
2.683,-0.02,-0.05,0.79,-1.03,-0.13,-1.88,
2.683,-0.02,-0.05,0.79,-0.99,-0.12,-1.88,
2.686,-0.02,-0.04,0.80,-0.99,-0.12,-1.88,
2.688,-0.01,-0.05,0.80,-0.99,-0.12,-1.88,
2.688,-0.01,-0.05,0.80,-0.99,-0.13,-1.90,
2.691,-0.01,-0.04,0.80,-0.99,-0.13,-1.90,
2.694,-0.01,-0.05,0.81,-0.99,-0.13,-1.90,
2.694,-0.01,-0.05,0.81,-0.98,-0.09,-1.87,
2.696,-0.01,-0.05,0.82,-0.98,-0.09,-1.87,
2.699,-0.00,-0.05,0.82,-0.98,-0.09,-1.87,
2.7,-0.00,-0.05,0.82,-0.96,-0.10,-1.82,
2.701,0.01,-0.05,0.83,-0.96,-0.10,-1.82,
2.704,0.01,-0.05,0.83,-0.90,-0.15,-1.64,
2.704,0.02,-0.05,0.84,-0.90,-0.15,-1.64,
2.706,0.02,-0.06,0.85,-0.90,-0.15,-1.64,
2.709,0.02,-0.06,0.86,-0.90,-0.15,-1.64,
2.709,0.02,-0.06,0.86,-0.74,-0.19,-1.51,
2.711,0.03,-0.05,0.86,-0.74,-0.19,-1.51,
2.714,0.03,-0.05,0.86,-0.74,-0.19,-1.51,
2.714,0.03,-0.05,0.86,-0.67,-0.22,-1.35,
2.716,0.03,-0.05,0.86,-0.67,-0.22,-1.35,
2.719,0.03,-0.05,0.87,-0.67,-0.22,-1.35,
2.719,0.03,-0.05,0.87,-0.59,-0.19,-1.24,
2.721,0.03,-0.05,0.87,-0.59,-0.19,-1.24,
2.723,0.03,-0.06,0.88,-0.59,-0.19,-1.24,
2.723,0.03,-0.06,0.88,-0.57,-0.16,-1.19,
2.726,0.04,-0.06,0.89,-0.57,-0.16,-1.19,
2.728,0.04,-0.06,0.89,-0.57,-0.16,-1.19,
2.729,0.04,-0.06,0.89,-0.54,-0.23,-1.10,
2.731,0.04,-0.06,0.90,-0.54,-0.23,-1.10,
2.735,0.05,-0.06,0.90,-0.54,-0.23,-1.10,
2.736,0.05,-0.06,0.90,-0.47,-0.24,-0.96,
2.736,0.05,-0.05,0.91,-0.47,-0.24,-0.96,
2.738,0.05,-0.06,0.92,-0.47,-0.24,-0.96,
2.739,0.05,-0.06,0.92,-0.42,-0.24,-0.87,
2.741,0.05,-0.06,0.92,-0.42,-0.24,-0.87,
2.743,0.05,-0.05,0.93,-0.42,-0.24,-0.87,
2.743,0.05,-0.05,0.93,-0.33,-0.22,-0.71,
2.746,0.05,-0.05,0.93,-0.33,-0.22,-0.71,
2.748,0.05,-0.05,0.93,-0.33,-0.20,-0.64,
2.749,0.04,-0.06,0.93,-0.33,-0.20,-0.64,
2.75,0.04,-0.06,0.94,-0.33,-0.20,-0.64,
2.753,0.03,-0.06,0.95,-0.33,-0.20,-0.64,
2.753,0.03,-0.06,0.95,-0.40,-0.21,-0.53,
2.756,0.03,-0.06,0.95,-0.40,-0.21,-0.53,
2.758,0.03,-0.06,0.95,-0.48,-0.25,-0.46,
2.759,0.03,-0.06,0.96,-0.48,-0.25,-0.46,
2.761,0.02,-0.06,0.96,-0.48,-0.25,-0.46,
2.763,0.02,-0.06,0.96,-0.48,-0.25,-0.46,
2.763,0.02,-0.06,0.96,-0.57,-0.25,-0.34,
2.766,0.02,-0.06,0.96,-0.57,-0.25,-0.34,
2.768,0.03,-0.05,0.95,-0.57,-0.25,-0.34,
2.769,0.03,-0.05,0.95,-0.58,-0.23,-0.29,
2.77,0.03,-0.05,0.95,-0.58,-0.23,-0.29,
2.773,0.03,-0.05,0.95,-0.58,-0.23,-0.29,
2.774,0.03,-0.05,0.95,-0.54,-0.22,-0.33,
2.775,0.04,-0.05,0.94,-0.54,-0.22,-0.33,
2.778,0.04,-0.05,0.94,-0.49,-0.21,-0.37,
2.779,0.04,-0.05,0.94,-0.49,-0.21,-0.37,
2.78,0.05,-0.06,0.94,-0.49,-0.21,-0.37,
2.783,0.05,-0.06,0.94,-0.49,-0.21,-0.37,
2.783,0.05,-0.06,0.94,-0.40,-0.20,-0.46,
2.789,0.06,-0.06,0.94,-0.40,-0.20,-0.46,
2.789,0.07,-0.07,0.94,-0.40,-0.20,-0.46,
2.789,0.07,-0.07,0.94,-0.28,-0.25,-0.51,
2.79,0.07,-0.06,0.95,-0.28,-0.25,-0.51,
2.793,0.07,-0.07,0.95,-0.28,-0.25,-0.51,
2.793,0.07,-0.07,0.95,-0.16,-0.29,-0.47,
2.795,0.08,-0.07,0.95,-0.16,-0.29,-0.47,
2.797,0.09,-0.07,0.97,-0.16,-0.29,-0.47,
2.798,0.09,-0.07,0.97,-0.07,-0.34,-0.36,
2.8,0.09,-0.07,0.98,-0.07,-0.34,-0.36,
2.803,0.09,-0.07,0.98,0.07,-0.35,-0.27,
2.803,0.10,-0.07,0.99,0.07,-0.35,-0.27,
2.804,0.10,-0.07,1.00,0.07,-0.35,-0.27,
2.807,0.10,-0.08,1.01,0.07,-0.35,-0.27,
2.808,0.10,-0.08,1.01,0.16,-0.35,-0.02,
2.81,0.10,-0.08,1.03,0.16,-0.35,-0.02,
2.813,0.10,-0.08,1.03,0.22,-0.40,0.16,
2.813,0.11,-0.08,1.04,0.22,-0.40,0.16,
2.815,0.11,-0.08,1.05,0.22,-0.40,0.16,
2.817,0.11,-0.08,1.05,0.22,-0.40,0.16,
2.817,0.11,-0.08,1.05,0.26,-0.43,0.42,
2.82,0.10,-0.08,1.06,0.26,-0.43,0.42,
2.822,0.10,-0.08,1.08,0.26,-0.43,0.42,
2.822,0.10,-0.08,1.08,0.29,-0.42,0.62,
2.824,0.11,-0.08,1.08,0.29,-0.42,0.62,
2.827,0.11,-0.08,1.08,0.26,-0.43,0.78,
2.828,0.11,-0.08,1.08,0.26,-0.43,0.78,
2.83,0.11,-0.08,1.07,0.26,-0.43,0.78,
2.833,0.11,-0.07,1.06,0.26,-0.43,0.78,
2.833,0.11,-0.07,1.06,0.29,-0.44,0.86,
2.837,0.10,-0.07,1.05,0.29,-0.44,0.86,
2.837,0.10,-0.06,1.04,0.29,-0.44,0.86,
2.837,0.10,-0.06,1.04,0.29,-0.37,0.77,
2.84,0.09,-0.06,1.03,0.29,-0.37,0.77,
2.842,0.08,-0.05,1.02,0.29,-0.37,0.77,
2.843,0.08,-0.05,1.02,0.22,-0.30,0.60,
2.845,0.07,-0.05,1.01,0.22,-0.30,0.60,
2.848,0.07,-0.04,1.00,0.22,-0.30,0.60,
2.849,0.07,-0.04,1.00,0.09,-0.22,0.38,
2.849,0.06,-0.04,1.00,0.09,-0.22,0.38,
2.852,0.06,-0.04,1.00,-0.07,-0.13,0.19,
2.853,0.06,-0.03,0.98,-0.07,-0.13,0.19,
2.854,0.05,-0.03,0.97,-0.07,-0.13,0.19,
2.857,0.05,-0.02,0.97,-0.07,-0.13,0.19,
2.858,0.05,-0.02,0.97,-0.14,-0.04,0.00,
2.86,0.05,-0.02,0.97,-0.14,-0.04,0.00,
2.862,0.05,-0.02,0.96,-0.14,-0.04,0.00,
2.862,0.05,-0.02,0.96,-0.19,0.04,-0.18,
2.865,0.04,-0.01,0.96,-0.19,0.04,-0.18,
2.869,0.04,-0.02,0.96,-0.19,0.04,-0.18,
2.87,0.04,-0.02,0.96,-0.24,0.08,-0.26,
2.87,0.03,-0.01,0.96,-0.24,0.08,-0.26,
2.871,0.03,-0.01,0.96,-0.24,0.08,-0.26,
2.872,0.03,-0.01,0.96,-0.30,0.12,-0.29,
2.874,0.03,-0.01,0.96,-0.30,0.12,-0.29,
2.877,0.03,-0.01,0.96,-0.30,0.12,-0.29,
2.877,0.03,-0.01,0.96,-0.38,0.13,-0.30,
2.879,0.03,-0.02,0.96,-0.38,0.13,-0.30,
2.882,0.03,-0.01,0.96,-0.38,0.13,-0.30,
2.882,0.03,-0.01,0.96,-0.38,0.12,-0.29,
2.884,0.03,-0.01,0.96,-0.38,0.12,-0.29,
2.89,0.03,-0.02,0.96,-0.38,0.12,-0.29,
2.89,0.03,-0.02,0.96,-0.38,0.10,-0.26,
2.89,0.04,-0.02,0.96,-0.38,0.10,-0.26,
2.891,0.04,-0.02,0.97,-0.38,0.10,-0.26,
2.891,0.04,-0.02,0.97,-0.37,0.10,-0.25,
2.894,0.04,-0.02,0.97,-0.37,0.10,-0.25,
2.896,0.03,-0.02,0.97,-0.37,0.10,-0.25,
2.897,0.03,-0.02,0.97,-0.32,0.09,-0.24,
2.899,0.03,-0.02,0.98,-0.32,0.09,-0.24,
2.901,0.03,-0.01,0.97,-0.32,0.09,-0.24,
2.901,0.03,-0.01,0.97,-0.34,0.06,-0.18,
2.904,0.03,-0.01,0.97,-0.34,0.06,-0.18,
2.906,0.03,-0.01,0.98,-0.34,0.06,-0.18,
2.906,0.03,-0.01,0.98,-0.41,0.09,-0.17,
2.909,0.03,-0.01,0.98,-0.41,0.09,-0.17,
2.911,0.03,-0.00,0.98,-0.41,0.09,-0.17,
2.912,0.03,-0.00,0.98,-0.39,0.11,-0.15,
2.915,0.03,-0.00,0.98,-0.39,0.11,-0.15,
2.916,0.04,0.00,0.97,-0.39,0.11,-0.15,
2.917,0.04,0.00,0.97,-0.35,0.20,-0.09,
2.918,0.04,0.00,0.97,-0.35,0.20,-0.09,
2.921,0.04,-0.00,0.97,-0.35,0.20,-0.09,
2.921,0.04,-0.00,0.97,-0.31,0.24,-0.13,
2.923,0.05,-0.00,0.98,-0.31,0.24,-0.13,
2.926,0.05,-0.00,0.97,-0.31,0.24,-0.13,
2.926,0.05,-0.00,0.97,-0.25,0.23,-0.19,
2.929,0.05,-0.01,0.97,-0.25,0.23,-0.19,
2.931,0.05,-0.00,0.97,-0.25,0.23,-0.19,
2.932,0.05,-0.00,0.97,-0.18,0.19,-0.14,
2.934,0.06,-0.00,0.97,-0.18,0.19,-0.14,
2.936,0.06,0.00,0.97,-0.18,0.19,-0.14,
2.937,0.06,0.00,0.97,-0.16,0.18,-0.16,
2.938,0.06,-0.00,0.97,-0.16,0.18,-0.16,
2.941,0.06,-0.01,0.97,-0.16,0.18,-0.16,
2.942,0.06,-0.01,0.97,-0.12,0.22,-0.17,
2.944,0.06,-0.00,0.97,-0.12,0.22,-0.17,
2.946,0.05,-0.01,0.98,-0.12,0.22,-0.17,
2.947,0.05,-0.01,0.98,-0.09,0.18,-0.14,
2.949,0.05,-0.01,0.98,-0.09,0.18,-0.14,
2.952,0.05,-0.01,0.98,-0.13,0.16,-0.13,
2.952,0.05,-0.01,0.98,-0.13,0.16,-0.13,
2.955,0.04,-0.02,0.98,-0.13,0.16,-0.13,
2.956,0.04,-0.02,0.99,-0.13,0.16,-0.13,
2.956,0.04,-0.02,0.99,-0.19,0.11,-0.05,
2.959,0.03,-0.02,0.99,-0.19,0.11,-0.05,
2.961,0.03,-0.02,0.99,-0.28,0.06,-0.04,
2.961,0.03,-0.02,0.99,-0.28,0.06,-0.04,
2.963,0.03,-0.02,0.99,-0.28,0.06,-0.04,
2.966,0.03,-0.02,1.00,-0.28,0.06,-0.04,
2.967,0.03,-0.02,1.00,-0.34,0.02,-0.02,
2.969,0.03,-0.02,1.00,-0.34,0.02,-0.02,
2.971,0.03,-0.01,1.00,-0.34,0.02,-0.02,
2.971,0.03,-0.01,1.00,-0.36,0.05,0.06,
2.973,0.03,-0.01,1.00,-0.36,0.05,0.06,
2.975,0.03,-0.01,1.00,-0.33,0.07,0.10,
2.976,0.03,-0.01,0.99,-0.33,0.07,0.10,
2.978,0.04,-0.01,0.99,-0.33,0.07,0.10,
2.98,0.04,-0.01,0.99,-0.33,0.07,0.10,
2.981,0.04,-0.01,0.99,-0.31,0.10,0.01,
2.984,0.04,-0.01,1.01,-0.31,0.10,0.01,
2.986,0.04,-0.02,1.01,-0.31,0.10,0.01,
2.986,0.04,-0.02,1.01,-0.26,0.10,0.02,
2.988,0.05,-0.02,1.00,-0.26,0.10,0.02,
2.99,0.05,-0.02,1.01,-0.26,0.10,0.02,
2.99,0.05,-0.02,1.01,-0.23,0.09,0.19,
2.993,0.05,-0.03,1.00,-0.23,0.09,0.19,
2.996,0.04,-0.02,1.00,-0.23,0.09,0.19,
2.996,0.04,-0.02,1.00,-0.14,0.03,0.14,
2.998,0.05,-0.02,1.01,-0.14,0.03,0.14,
3.0,0.05,-0.03,1.01,-0.14,0.03,0.14,
3.001,0.05,-0.03,1.01,-0.19,-0.02,0.15,
3.005,0.05,-0.03,1.01,-0.19,-0.02,0.15,
3.005,0.05,-0.03,1.01,-0.14,-0.03,0.17,
3.005,0.05,-0.03,1.01,-0.14,-0.03,0.17,
3.008,0.05,-0.03,1.01,-0.14,-0.03,0.17,
3.01,0.05,-0.04,1.00,-0.14,-0.03,0.17,
3.01,0.05,-0.04,1.00,-0.17,-0.05,0.19,
3.013,0.05,-0.04,1.00,-0.17,-0.05,0.19,
3.015,0.05,-0.04,0.99,-0.17,-0.05,0.19,
3.016,0.05,-0.04,0.99,-0.16,-0.12,0.14,
3.019,0.05,-0.04,0.98,-0.16,-0.12,0.14,
3.02,0.05,-0.05,0.97,-0.16,-0.12,0.14,
3.021,0.05,-0.05,0.97,-0.17,-0.15,0.03,
3.023,0.05,-0.04,0.97,-0.17,-0.15,0.03,
3.025,0.06,-0.04,0.97,-0.17,-0.15,0.03,
3.025,0.06,-0.04,0.97,-0.16,-0.23,-0.11,
3.027,0.05,-0.04,0.97,-0.16,-0.23,-0.11,
3.03,0.05,-0.03,0.96,-0.16,-0.23,-0.11,
3.03,0.05,-0.03,0.96,-0.12,-0.20,-0.21,
3.033,0.05,-0.03,0.96,-0.12,-0.20,-0.21,
3.035,0.05,-0.04,0.95,-0.12,-0.20,-0.21,
3.035,0.05,-0.04,0.95,-0.16,-0.15,-0.25,
3.037,0.06,-0.04,0.95,-0.16,-0.15,-0.25,
3.04,0.06,-0.03,0.95,-0.16,-0.15,-0.25,
3.04,0.06,-0.03,0.95,-0.18,-0.13,-0.35,
3.043,0.06,-0.04,0.95,-0.18,-0.13,-0.35,
3.046,0.06,-0.03,0.95,-0.18,-0.13,-0.35,
3.046,0.06,-0.03,0.95,-0.11,-0.13,-0.39,
3.047,0.06,-0.03,0.95,-0.11,-0.13,-0.39,
3.05,0.06,-0.03,0.96,-0.11,-0.13,-0.39,
3.05,0.06,-0.03,0.96,-0.10,-0.13,-0.37,
3.053,0.06,-0.03,0.96,-0.10,-0.13,-0.37,
3.055,0.05,-0.03,0.96,-0.10,-0.13,-0.37,
3.055,0.05,-0.03,0.96,-0.13,-0.09,-0.32,
3.058,0.06,-0.03,0.96,-0.13,-0.09,-0.32,
3.06,0.06,-0.02,0.97,-0.13,-0.09,-0.32,
3.06,0.06,-0.02,0.97,-0.14,-0.05,-0.25,
3.063,0.07,-0.02,0.97,-0.14,-0.05,-0.25,
3.065,0.07,-0.02,0.97,-0.14,-0.05,-0.25,
3.065,0.07,-0.02,0.97,-0.10,-0.01,-0.24,
3.067,0.08,-0.02,0.97,-0.10,-0.01,-0.24,
3.069,0.08,-0.03,0.98,-0.10,-0.01,-0.24,
3.07,0.08,-0.03,0.98,-0.06,-0.00,-0.17,
3.072,0.08,-0.02,0.98,-0.06,-0.00,-0.17,
3.075,0.09,-0.03,0.98,-0.06,-0.00,-0.17,
3.075,0.09,-0.03,0.98,0.04,-0.03,-0.15,
3.077,0.09,-0.03,0.99,0.04,-0.03,-0.15,
3.08,0.09,-0.03,0.99,0.04,-0.03,-0.15,
3.08,0.09,-0.03,0.99,0.10,-0.02,-0.06,
3.082,0.09,-0.03,0.99,0.10,-0.02,-0.06,
3.085,0.09,-0.04,0.98,0.10,-0.02,-0.06,
3.085,0.09,-0.04,0.98,0.14,-0.07,-0.01,
3.087,0.09,-0.03,0.99,0.14,-0.07,-0.01,
3.089,0.09,-0.04,0.99,0.14,-0.07,-0.01,
3.089,0.09,-0.04,0.99,0.13,-0.12,-0.03,
3.092,0.09,-0.04,1.00,0.13,-0.12,-0.03,
3.095,0.09,-0.04,0.99,0.13,-0.12,-0.03,
3.095,0.09,-0.04,0.99,0.13,-0.14,0.01,
3.097,0.08,-0.04,1.00,0.13,-0.14,0.01,
3.1,0.08,-0.04,1.00,0.13,-0.14,0.01,
3.1,0.08,-0.04,1.00,0.14,-0.19,0.08,
3.101,0.08,-0.04,1.00,0.14,-0.19,0.08,
3.107,0.08,-0.04,1.01,0.14,-0.19,0.08,
3.107,0.08,-0.04,1.01,0.08,-0.15,0.11,
3.108,0.08,-0.04,1.01,0.08,-0.15,0.11,
3.11,0.08,-0.04,1.01,0.08,-0.15,0.11,
3.11,0.08,-0.04,1.01,0.08,-0.16,0.17,
3.112,0.08,-0.04,1.02,0.08,-0.16,0.17,
3.114,0.07,-0.04,1.02,0.08,-0.16,0.17,
3.114,0.07,-0.04,1.02,0.06,-0.19,0.21,
3.116,0.08,-0.04,1.01,0.06,-0.19,0.21,
3.12,0.07,-0.04,1.01,0.06,-0.19,0.21,
3.12,0.07,-0.04,1.01,0.02,-0.21,0.28,
3.121,0.07,-0.03,1.02,0.02,-0.21,0.28,
3.124,0.07,-0.03,1.02,-0.00,-0.15,0.25,
3.124,0.07,-0.03,1.02,-0.00,-0.15,0.25,
3.126,0.07,-0.03,1.02,-0.00,-0.15,0.25,
3.129,0.07,-0.03,1.01,-0.00,-0.15,0.25,
3.132,0.07,-0.03,1.01,-0.02,-0.12,0.31,
3.132,0.07,-0.03,1.02,-0.02,-0.12,0.31,
3.133,0.07,-0.03,1.01,-0.02,-0.12,0.31,
3.134,0.07,-0.03,1.01,-0.02,-0.08,0.27,
3.136,0.07,-0.03,1.01,-0.02,-0.08,0.27,
3.138,0.06,-0.03,1.00,-0.02,-0.08,0.27,
3.139,0.06,-0.03,1.00,-0.03,-0.10,0.25,
3.141,0.07,-0.03,1.00,-0.03,-0.10,0.25,
3.143,0.06,-0.02,1.00,-0.03,-0.10,0.25,
3.144,0.06,-0.02,1.00,-0.08,-0.07,0.15,
3.146,0.06,-0.02,0.99,-0.08,-0.07,0.15,
3.148,0.06,-0.02,0.99,-0.08,-0.07,0.15,
3.148,0.06,-0.02,0.99,-0.07,-0.03,0.09,
3.152,0.06,-0.02,0.99,-0.07,-0.03,0.09,
3.154,0.06,-0.02,0.99,-0.07,-0.03,0.09,
3.155,0.06,-0.02,0.99,-0.11,-0.03,0.04,
3.156,0.06,-0.02,0.99,-0.11,-0.03,0.04,
3.158,0.05,-0.02,1.00,-0.11,-0.03,0.04,
3.159,0.05,-0.02,1.00,-0.09,-0.02,0.02,
3.161,0.03,-0.01,1.00,-0.09,-0.02,0.02,
3.163,0.03,-0.01,1.00,-0.19,-0.02,0.08,
3.163,0.01,-0.01,0.99,-0.19,-0.02,0.08,
3.166,-0.01,0.00,0.99,-0.19,-0.02,0.08,
3.169,-0.00,0.01,0.99,-0.19,-0.02,0.08,
3.17,-0.00,0.01,0.99,-0.48,0.07,0.03,
3.171,0.01,0.02,0.99,-0.48,0.07,0.03,
3.173,0.03,0.01,0.99,-0.48,0.07,0.03,
3.173,0.03,0.01,0.99,-0.75,0.24,-0.01,
3.176,0.06,0.01,0.98,-0.75,0.24,-0.01,
3.178,0.06,0.01,0.98,-0.48,0.33,-0.01,
3.178,0.07,-0.00,0.98,-0.48,0.33,-0.01,
3.181,0.07,-0.01,0.97,-0.48,0.33,-0.01,
3.183,0.06,-0.02,0.96,-0.48,0.33,-0.01,
3.183,0.06,-0.02,0.96,-0.06,0.19,-0.07,
3.186,0.05,-0.02,0.95,-0.06,0.19,-0.07,
3.188,0.05,-0.02,0.95,-0.06,0.19,-0.07,
3.189,0.05,-0.02,0.95,-0.03,0.01,-0.22,
3.19,0.06,-0.03,0.94,-0.03,0.01,-0.22,
3.193,0.07,-0.02,0.93,-0.03,0.01,-0.22,
3.193,0.07,-0.02,0.93,-0.16,-0.08,-0.34,
3.196,0.07,-0.02,0.93,-0.16,-0.08,-0.34,
3.199,0.07,-0.02,0.93,-0.16,-0.08,-0.34,
3.199,0.07,-0.02,0.93,0.01,-0.10,-0.49,
3.2,0.05,-0.01,0.93,0.01,-0.10,-0.49,
3.204,0.04,-0.01,0.93,0.01,-0.10,-0.49,
3.204,0.04,-0.01,0.93,0.02,-0.07,-0.59,
3.205,0.03,-0.01,0.94,0.02,-0.07,-0.59,
3.208,0.02,-0.01,0.95,0.02,-0.07,-0.59,
3.209,0.02,-0.01,0.95,-0.17,0.01,-0.53,
3.21,0.02,-0.01,0.96,-0.17,0.01,-0.53,
3.213,0.02,-0.01,0.97,-0.17,0.01,-0.53,
3.213,0.02,-0.01,0.97,-0.36,0.03,-0.40,
3.215,0.02,-0.01,0.98,-0.36,0.03,-0.40,
3.223,0.02,-0.00,0.98,-0.36,0.03,-0.40,
3.224,0.02,-0.00,0.98,-0.46,0.02,-0.24,
3.224,0.02,0.00,0.99,-0.46,0.02,-0.24,
3.224,0.01,0.00,1.00,-0.46,0.02,-0.24,
3.224,0.01,0.00,1.00,-0.43,0.08,-0.09,
3.225,0.02,0.00,1.01,-0.43,0.08,-0.09,
3.227,0.02,0.00,1.01,-0.43,0.08,-0.09,
3.228,0.02,0.00,1.01,-0.47,0.18,0.08,
3.23,0.02,0.00,1.02,-0.47,0.18,0.08,
3.233,0.02,0.00,1.02,-0.47,0.18,0.08,
3.234,0.02,0.00,1.02,-0.46,0.18,0.22,
3.236,0.02,0.00,1.02,-0.46,0.18,0.22,
3.237,0.03,0.01,1.02,-0.46,0.18,0.22,
3.238,0.03,0.01,1.02,-0.43,0.17,0.32,
3.24,0.02,0.00,1.02,-0.43,0.17,0.32,
3.242,0.03,0.00,1.02,-0.43,0.17,0.32,
3.243,0.03,0.00,1.02,-0.37,0.18,0.34,
3.245,0.04,0.00,1.02,-0.37,0.18,0.34,
3.248,0.04,0.00,1.01,-0.37,0.18,0.34,
3.248,0.04,0.00,1.01,-0.36,0.17,0.33,
3.25,0.04,0.00,1.00,-0.36,0.17,0.33,
3.253,0.04,-0.01,1.00,-0.36,0.17,0.33,
3.253,0.04,-0.01,1.00,-0.24,0.15,0.26,
3.255,0.04,-0.00,1.00,-0.24,0.15,0.26,
3.257,0.04,-0.01,1.00,-0.24,0.15,0.26,
3.257,0.04,-0.01,1.00,-0.23,0.10,0.14,
3.26,0.03,-0.02,0.99,-0.23,0.10,0.14,
3.262,0.03,-0.01,0.99,-0.23,0.10,0.14,
3.262,0.03,-0.01,0.99,-0.24,0.04,0.12,
3.265,0.03,-0.02,0.99,-0.24,0.04,0.12,
3.267,0.03,-0.02,0.98,-0.24,0.04,0.12,
3.267,0.03,-0.02,0.98,-0.30,-0.02,0.02,
3.27,0.03,-0.02,0.99,-0.30,-0.02,0.02,
3.272,0.03,-0.01,1.00,-0.30,-0.02,0.02,
3.272,0.03,-0.01,1.00,-0.27,-0.06,-0.02,
3.274,0.03,-0.01,0.99,-0.27,-0.06,-0.02,
3.277,0.04,-0.01,0.98,-0.27,-0.06,-0.02,
3.277,0.04,-0.01,0.98,-0.26,-0.03,0.02,
3.28,0.04,-0.01,0.99,-0.26,-0.03,0.02,
3.282,0.05,-0.01,1.00,-0.26,-0.03,0.02,
3.282,0.05,-0.01,1.00,-0.26,0.00,-0.01,
3.285,0.05,-0.00,1.00,-0.26,0.00,-0.01,
3.287,0.05,-0.00,1.01,-0.26,0.00,-0.01,
3.288,0.05,-0.00,1.01,-0.18,0.01,0.03,
3.289,0.05,-0.00,1.01,-0.18,0.01,0.03,
3.293,0.06,0.00,1.01,-0.18,0.01,0.03,
3.293,0.06,0.00,1.01,-0.10,0.07,0.14,
3.296,0.06,0.00,1.02,-0.10,0.07,0.14,
3.297,0.06,0.00,1.02,-0.10,0.07,0.14,
3.297,0.06,0.00,1.02,-0.09,0.10,0.22,
3.299,0.06,-0.00,1.02,-0.09,0.10,0.22,
3.311,0.05,-0.01,1.03,-0.09,0.10,0.22,
3.312,0.05,-0.01,1.03,-0.07,0.15,0.29,
3.312,0.06,-0.01,1.04,-0.07,0.15,0.29,
3.313,0.05,-0.01,1.04,-0.07,0.15,0.29,
3.313,0.05,-0.01,1.04,-0.10,0.09,0.37,
3.313,0.05,-0.00,1.05,-0.10,0.09,0.37,
3.314,0.05,-0.00,1.04,-0.10,0.09,0.37,
3.315,0.05,-0.00,1.04,-0.13,0.05,0.53,
3.315,0.05,-0.00,1.03,-0.13,0.05,0.53,
3.318,0.05,-0.00,1.03,-0.13,0.05,0.53,
3.319,0.05,-0.00,1.03,-0.18,0.10,0.51,
3.322,0.06,-0.01,1.03,-0.18,0.10,0.51,
3.323,0.06,-0.01,1.02,-0.18,0.10,0.51,
3.323,0.06,-0.01,1.02,-0.14,0.09,0.41,
3.324,0.07,-0.02,1.02,-0.14,0.09,0.41,
3.327,0.08,-0.02,1.02,-0.14,0.09,0.41,
3.327,0.08,-0.02,1.02,-0.09,0.02,0.34,
3.33,0.08,-0.02,1.01,-0.09,0.02,0.34,
3.332,0.09,-0.02,1.00,-0.09,0.02,0.34,
3.332,0.09,-0.02,1.00,0.02,-0.05,0.28,
3.335,0.10,-0.02,1.00,0.02,-0.05,0.28,
3.336,0.10,-0.03,1.00,0.02,-0.05,0.28,
3.337,0.10,-0.03,1.00,0.13,-0.05,0.16,
3.339,0.10,-0.02,1.00,0.13,-0.05,0.16,
3.342,0.10,-0.02,0.99,0.13,-0.05,0.16,
3.342,0.10,-0.02,0.99,0.27,-0.12,0.09,
3.345,0.09,-0.02,1.00,0.27,-0.12,0.09,
3.347,0.09,-0.02,1.01,0.27,-0.12,0.09,
3.347,0.09,-0.02,1.01,0.27,-0.12,0.03,
3.35,0.09,-0.02,1.02,0.27,-0.12,0.03,
3.352,0.09,-0.02,1.01,0.27,-0.12,0.03,
3.352,0.09,-0.02,1.01,0.18,-0.12,0.15,
3.355,0.08,-0.01,1.01,0.18,-0.12,0.15,
3.357,0.08,-0.01,1.01,0.18,-0.12,0.15,
3.357,0.08,-0.01,1.01,0.14,-0.08,0.23,
3.36,0.08,-0.01,1.00,0.14,-0.08,0.23,
3.362,0.08,-0.01,0.99,0.14,-0.08,0.23,
3.362,0.08,-0.01,0.99,0.09,-0.04,0.17,
3.365,0.08,-0.02,0.99,0.09,-0.04,0.17,
3.367,0.08,-0.02,0.99,0.09,-0.04,0.17,
3.367,0.08,-0.02,0.99,0.07,-0.02,0.04,
3.369,0.08,-0.01,0.99,0.07,-0.02,0.04,
3.372,0.07,-0.02,0.99,0.07,-0.02,0.04,
3.372,0.07,-0.02,0.99,0.10,-0.08,-0.03,
3.374,0.07,-0.01,0.98,0.10,-0.08,-0.03,
3.377,0.07,-0.01,0.98,0.10,-0.08,-0.03,
3.378,0.07,-0.01,0.98,0.02,-0.08,-0.05,
3.379,0.08,-0.01,0.99,0.02,-0.08,-0.05,
3.382,0.08,-0.01,1.00,0.02,-0.08,-0.05,
3.383,0.08,-0.01,1.00,0.02,-0.07,-0.08,
3.384,0.08,-0.01,1.00,0.02,-0.07,-0.08,
3.387,0.08,-0.01,1.01,0.02,-0.07,-0.08,
3.387,0.08,-0.01,1.01,0.06,-0.05,0.02,
3.388,0.08,-0.00,1.00,0.06,-0.05,0.02,
3.392,0.08,-0.00,1.01,0.06,-0.05,0.02,
3.392,0.08,-0.00,1.01,0.08,-0.04,0.13,
3.394,0.08,-0.00,1.01,0.08,-0.04,0.13,
3.397,0.08,-0.00,1.01,0.08,-0.04,0.13,
3.397,0.08,-0.00,1.01,0.08,0.01,0.14,
3.399,0.08,-0.01,1.00,0.08,0.01,0.14,
3.402,0.08,-0.01,1.00,0.08,0.01,0.14,
3.403,0.08,-0.01,1.00,0.11,0.02,0.15,
3.404,0.08,-0.01,1.00,0.11,0.02,0.15,
3.406,0.08,-0.00,1.01,0.11,0.02,0.15,
3.406,0.08,-0.00,1.01,0.09,-0.02,0.12,
3.409,0.08,-0.00,1.00,0.09,-0.02,0.12,
3.412,0.09,-0.00,1.01,0.09,-0.02,0.12,
3.412,0.09,-0.00,1.01,0.08,-0.02,0.13,
3.414,0.09,-0.00,1.01,0.08,-0.02,0.13,
3.417,0.09,0.00,1.00,0.08,-0.02,0.13,
3.417,0.09,0.00,1.00,0.15,-0.00,0.14,
3.419,0.09,0.00,1.00,0.15,-0.00,0.14,
3.425,0.09,0.00,1.00,0.15,-0.00,0.14,
3.425,0.09,0.00,1.00,0.19,0.02,0.11,
3.425,0.10,0.01,0.99,0.19,0.02,0.11,
3.426,0.10,0.00,0.98,0.19,0.02,0.11,
3.427,0.10,0.00,0.98,0.21,0.03,0.06,
3.429,0.10,0.00,0.98,0.21,0.03,0.06,
3.431,0.10,0.00,0.98,0.21,0.03,0.06,
3.431,0.10,0.00,0.98,0.25,0.03,-0.07,
3.433,0.10,-0.00,0.98,0.25,0.03,-0.07,
3.436,0.10,-0.00,0.97,0.25,0.03,-0.07,
3.438,0.10,-0.00,0.97,0.26,0.01,-0.09,
3.439,0.10,-0.00,0.98,0.26,0.01,-0.09,
3.44,0.10,-0.01,0.98,0.26,0.01,-0.09,
3.441,0.10,-0.01,0.98,0.29,-0.03,-0.16,
3.443,0.10,-0.00,0.98,0.29,-0.03,-0.16,
3.447,0.10,-0.00,0.98,0.29,-0.03,-0.16,
3.447,0.10,-0.00,0.98,0.27,-0.06,-0.10,
3.448,0.09,-0.00,0.98,0.27,-0.06,-0.10,
3.451,0.09,-0.00,0.99,0.27,-0.06,-0.10,
3.452,0.09,-0.00,0.99,0.29,-0.06,-0.13,
3.455,0.09,-0.00,0.98,0.29,-0.06,-0.13,
3.456,0.09,-0.00,0.99,0.29,-0.06,-0.13,
3.456,0.09,-0.00,0.99,0.23,-0.05,-0.05,
3.458,0.09,0.00,0.99,0.23,-0.05,-0.05,
3.461,0.09,0.00,0.99,0.23,-0.06,-0.07,
3.461,0.09,0.00,0.98,0.23,-0.06,-0.07,
3.463,0.09,-0.00,0.97,0.23,-0.06,-0.07,
3.465,0.09,-0.01,0.97,0.23,-0.06,-0.07,
3.465,0.09,-0.01,0.97,0.21,-0.04,-0.05,
3.468,0.08,-0.01,0.97,0.21,-0.04,-0.05,
3.47,0.09,-0.01,0.96,0.21,-0.04,-0.05,
3.472,0.09,-0.01,0.96,0.22,-0.12,-0.19,
3.473,0.09,-0.01,0.96,0.22,-0.12,-0.19,
3.475,0.09,-0.00,0.96,0.22,-0.12,-0.19,
3.475,0.09,-0.00,0.96,0.17,-0.17,-0.27,
3.478,0.09,-0.00,0.96,0.17,-0.17,-0.27,
3.48,0.09,-0.00,0.97,0.17,-0.17,-0.27,
3.48,0.09,-0.00,0.97,0.25,-0.13,-0.30,
3.482,0.10,-0.00,0.98,0.25,-0.13,-0.30,
3.485,0.10,-0.00,0.97,0.25,-0.13,-0.30,
3.485,0.10,-0.00,0.97,0.22,-0.11,-0.25,
3.487,0.09,-0.00,0.98,0.22,-0.11,-0.25,
3.49,0.09,-0.00,0.98,0.22,-0.11,-0.25,
3.491,0.09,-0.00,0.98,0.30,-0.10,-0.16,
3.492,0.08,-0.00,0.99,0.30,-0.10,-0.16,
3.495,0.08,-0.00,1.00,0.30,-0.10,-0.16,
3.495,0.08,-0.00,1.00,0.24,-0.12,-0.10,
3.497,0.07,-0.00,1.00,0.24,-0.12,-0.10,
3.501,0.07,0.00,1.01,0.24,-0.12,-0.10,
3.501,0.07,0.00,1.01,0.16,-0.12,0.04,
3.504,0.07,0.00,1.00,0.16,-0.12,0.04,
3.505,0.06,0.00,1.00,0.16,-0.12,0.04,
3.505,0.06,0.00,1.00,0.05,-0.09,0.12,
3.507,0.06,0.00,1.00,0.05,-0.09,0.12,
3.51,0.05,0.00,1.00,0.05,-0.09,0.12,
3.51,0.05,0.00,1.00,0.01,-0.09,0.12,
3.512,0.05,0.01,1.00,0.01,-0.09,0.12,
3.515,0.05,0.01,0.98,0.01,-0.09,0.12,
3.515,0.05,0.01,0.98,-0.06,-0.10,0.07,
3.517,0.04,0.01,0.98,-0.06,-0.10,0.07,
3.52,0.05,0.02,0.97,-0.06,-0.10,0.07,
3.521,0.05,0.02,0.97,-0.13,-0.04,-0.02,
3.522,0.05,0.02,0.97,-0.13,-0.04,-0.02,
3.525,0.05,0.02,0.97,-0.13,-0.04,-0.02,
3.526,0.05,0.02,0.97,-0.14,-0.01,-0.15,
3.527,0.05,0.02,0.96,-0.14,-0.01,-0.15,
3.529,0.05,0.02,0.96,-0.14,-0.01,-0.15,
3.53,0.05,0.02,0.96,-0.10,0.07,-0.22,
3.532,0.05,0.02,0.95,-0.10,0.07,-0.22,
3.535,0.06,0.02,0.95,-0.10,0.07,-0.22,
3.536,0.06,0.02,0.95,-0.10,0.06,-0.33,
3.541,0.06,0.02,0.95,-0.10,0.06,-0.33,
3.542,0.06,0.02,0.95,-0.10,0.06,-0.33,
3.542,0.06,0.02,0.95,-0.03,0.07,-0.37,
3.542,0.06,0.02,0.95,-0.03,0.07,-0.37,
3.545,0.06,0.02,0.96,-0.03,0.07,-0.37,
3.546,0.06,0.02,0.96,-0.00,0.05,-0.37,
3.547,0.07,0.02,0.96,-0.00,0.05,-0.37,
3.549,0.07,0.03,0.96,-0.00,0.05,-0.37,
3.549,0.07,0.03,0.96,0.05,0.03,-0.34,
3.552,0.07,0.02,0.97,0.05,0.03,-0.34,
3.555,0.07,0.03,0.97,0.05,0.03,-0.34,
3.556,0.07,0.03,0.97,0.09,0.07,-0.29,
3.557,0.07,0.03,0.97,0.09,0.07,-0.29,
3.559,0.07,0.02,0.98,0.09,0.07,-0.29,
3.56,0.07,0.02,0.98,0.10,0.08,-0.22,
3.562,0.06,0.02,0.99,0.10,0.08,-0.22,
3.564,0.06,0.02,0.99,0.10,0.08,-0.22,
3.564,0.06,0.02,0.99,0.12,0.07,-0.15,
3.567,0.06,0.02,0.99,0.12,0.07,-0.15,
3.57,0.06,0.02,1.00,0.12,0.07,-0.15,
3.571,0.06,0.02,1.00,0.07,0.02,-0.03,
3.571,0.06,0.02,1.00,0.07,0.02,-0.03,
3.574,0.06,0.02,1.00,0.07,0.02,-0.03,
3.574,0.06,0.02,1.00,0.07,0.03,0.05,
3.577,0.06,0.02,1.00,0.07,0.03,0.05,
3.579,0.05,0.03,1.00,0.07,0.03,0.05,
3.58,0.05,0.03,1.00,0.08,0.04,0.08,
3.582,0.05,0.03,1.00,0.08,0.04,0.08,
3.584,0.05,0.03,0.99,0.08,0.04,0.08,
3.585,0.05,0.03,0.99,0.03,0.05,0.09,
3.587,0.04,0.03,0.99,0.03,0.05,0.09,
3.59,0.03,0.03,0.98,0.03,0.05,0.09,
3.59,0.03,0.03,0.98,-0.02,0.08,0.05,
3.591,0.02,0.03,0.98,-0.02,0.08,0.05,
3.594,0.01,0.03,0.99,-0.02,0.08,0.05,
3.594,0.01,0.03,0.99,-0.17,0.06,-0.07,
3.596,0.01,0.03,0.99,-0.17,0.06,-0.07,
3.599,0.00,0.03,0.99,-0.17,0.06,-0.07,
3.6,0.00,0.03,0.99,-0.33,0.09,-0.06,
3.601,0.00,0.03,1.00,-0.33,0.09,-0.06,
3.605,-0.00,0.04,1.00,-0.33,0.09,-0.06,
3.605,-0.00,0.04,1.00,-0.44,0.08,-0.01,
3.606,-0.00,0.04,1.00,-0.44,0.08,-0.01,
3.609,-0.00,0.04,1.00,-0.44,0.08,-0.01,
3.61,-0.00,0.04,1.00,-0.48,0.14,0.10,
3.611,0.00,0.04,1.00,-0.48,0.14,0.10,
3.614,0.00,0.04,1.00,-0.48,0.14,0.10,
3.615,0.00,0.04,1.00,-0.49,0.17,0.08,
3.616,0.00,0.04,1.00,-0.49,0.17,0.08,
3.619,0.01,0.04,0.99,-0.49,0.17,0.08,
3.619,0.01,0.04,0.99,-0.45,0.14,0.12,
3.627,0.01,0.04,0.99,-0.45,0.14,0.12,
3.627,0.02,0.04,0.99,-0.45,0.14,0.12,
3.63,0.02,0.04,0.99,-0.40,0.17,0.03,
3.63,0.02,0.04,0.98,-0.40,0.17,0.03,
3.63,0.03,0.04,0.98,-0.40,0.17,0.03,
3.631,0.03,0.04,0.98,-0.32,0.15,-0.02,
3.632,0.03,0.04,0.98,-0.32,0.15,-0.02,
3.634,0.04,0.03,0.97,-0.32,0.15,-0.02,
3.634,0.04,0.03,0.97,-0.21,0.14,-0.10,
3.637,0.04,0.04,0.97,-0.21,0.14,-0.10,
3.641,0.05,0.04,0.96,-0.21,0.14,-0.10,
3.642,0.05,0.04,0.96,-0.13,0.11,-0.18,
3.642,0.05,0.03,0.96,-0.13,0.11,-0.18,
3.644,0.05,0.03,0.96,-0.13,0.11,-0.18,
3.644,0.05,0.03,0.96,-0.02,0.13,-0.23,
3.646,0.05,0.03,0.96,-0.02,0.13,-0.23,
3.648,0.04,0.03,0.96,-0.02,0.13,-0.23,
3.649,0.04,0.03,0.96,0.02,0.08,-0.30,
3.651,0.04,0.03,0.97,0.02,0.08,-0.30,
3.654,0.04,0.03,0.97,0.02,0.08,-0.30,
3.655,0.04,0.03,0.97,-0.02,0.06,-0.28,
3.656,0.05,0.03,0.98,-0.02,0.06,-0.28,
3.658,0.04,0.03,0.98,-0.02,0.06,-0.28,
3.659,0.04,0.03,0.98,-0.07,0.04,-0.15,
3.662,0.04,0.03,0.99,-0.07,0.04,-0.15,
3.664,0.05,0.03,0.99,-0.07,0.04,-0.15,
3.664,0.05,0.03,0.99,-0.04,0.07,-0.07,
3.667,0.05,0.03,1.00,-0.04,0.07,-0.07,
3.669,0.05,0.02,0.99,-0.04,0.07,-0.07,
3.669,0.05,0.02,0.99,-0.01,0.04,0.02,
3.672,0.05,0.02,1.00,-0.01,0.04,0.02,
3.673,0.05,0.02,1.00,-0.01,0.04,0.02,
3.674,0.05,0.02,1.00,-0.01,0.01,0.05,
3.676,0.05,0.02,1.00,-0.01,0.01,0.05,
3.679,0.05,0.02,1.00,-0.01,0.01,0.05,
3.679,0.05,0.02,1.00,0.03,-0.02,0.10,
3.681,0.05,0.02,1.01,0.03,-0.02,0.10,
3.684,0.05,0.02,1.01,0.03,-0.02,0.10,
3.684,0.05,0.02,1.01,0.01,-0.06,0.13,
3.686,0.05,0.02,1.01,0.01,-0.06,0.13,
3.688,0.05,0.03,1.01,0.01,-0.06,0.13,
3.689,0.05,0.03,1.01,-0.02,-0.05,0.20,
3.691,0.05,0.02,1.01,-0.02,-0.05,0.20,
3.694,0.05,0.02,1.01,-0.02,-0.05,0.20,
3.694,0.05,0.02,1.01,0.02,-0.02,0.19,
3.696,0.06,0.02,1.01,0.02,-0.02,0.19,
3.698,0.06,0.03,1.01,0.02,-0.02,0.19,
3.699,0.06,0.03,1.01,0.04,-0.02,0.23,
3.701,0.06,0.02,1.01,0.04,-0.02,0.23,
3.705,0.07,0.02,1.01,0.04,-0.02,0.23,
3.705,0.07,0.02,1.01,0.10,-0.03,0.18,
3.705,0.07,0.02,1.00,0.10,-0.03,0.18,
3.708,0.07,0.02,0.99,0.10,-0.03,0.18,
3.708,0.07,0.02,0.99,0.15,-0.07,0.16,
3.711,0.07,0.02,1.00,0.15,-0.07,0.16,
3.713,0.06,0.03,0.99,0.15,-0.07,0.16,
3.714,0.06,0.03,0.99,0.15,-0.05,0.05,
3.716,0.06,0.03,0.98,0.15,-0.05,0.05,
3.718,0.07,0.03,0.98,0.15,-0.05,0.05,
3.719,0.07,0.03,0.98,0.15,-0.03,0.02,
3.72,0.06,0.03,0.98,0.15,-0.03,0.02,
3.723,0.06,0.03,0.98,0.15,-0.03,0.02,
3.723,0.06,0.03,0.98,0.13,0.06,-0.10,
3.725,0.06,0.03,0.99,0.13,0.06,-0.10,
3.728,0.06,0.03,0.99,0.13,0.06,-0.10,
3.728,0.06,0.03,0.99,0.09,0.04,-0.09,
3.731,0.06,0.03,1.00,0.09,0.04,-0.09,
3.733,0.05,0.04,1.01,0.09,0.04,-0.09,
3.734,0.05,0.04,1.01,0.11,0.02,0.02,
3.736,0.05,0.04,1.00,0.11,0.02,0.02,
3.741,0.05,0.04,0.94,0.11,0.02,0.02,
3.742,0.05,0.04,0.94,0.02,0.08,0.14,
3.742,0.06,0.04,0.90,0.02,0.08,0.14,
3.742,0.05,0.05,0.88,0.02,0.08,0.14,
3.743,0.05,0.05,0.88,-0.00,0.13,-0.17,
3.745,0.05,0.06,0.87,-0.00,0.13,-0.17,
3.748,0.05,0.06,0.88,-0.00,0.13,-0.17,
3.748,0.05,0.06,0.88,0.03,0.21,-0.99,
3.751,0.04,0.07,0.91,0.03,0.21,-0.99,
3.753,0.03,0.06,0.92,0.03,0.21,-0.99,
3.753,0.03,0.06,0.92,-0.02,0.32,-1.10,
3.755,0.03,0.06,0.95,-0.02,0.32,-1.10,
3.759,0.03,0.06,0.97,-0.02,0.32,-1.10,
3.759,0.03,0.06,0.97,-0.17,0.38,-0.71,
3.76,0.03,0.05,0.98,-0.17,0.38,-0.71,
3.762,0.03,0.04,0.98,-0.17,0.38,-0.71,
3.762,0.03,0.04,0.98,-0.22,0.30,-0.25,
3.765,0.04,0.04,0.97,-0.22,0.30,-0.25,
3.767,0.04,0.04,0.97,-0.22,0.30,-0.25,
3.768,0.04,0.04,0.97,-0.24,0.18,-0.10,
3.772,0.04,0.04,0.97,-0.24,0.18,-0.10,
3.773,0.04,0.04,0.97,-0.24,0.18,-0.10,
3.773,0.04,0.04,0.97,-0.16,0.14,-0.16,
3.775,0.04,0.04,0.98,-0.16,0.14,-0.16,
3.777,0.04,0.04,0.99,-0.16,0.14,-0.16,
3.778,0.04,0.04,0.99,-0.14,0.15,-0.17,
3.779,0.03,0.04,0.99,-0.14,0.15,-0.17,
3.783,0.03,0.04,1.01,-0.14,0.15,-0.17,
3.783,0.03,0.04,1.01,-0.13,0.16,-0.06,
3.785,0.03,0.04,1.03,-0.13,0.16,-0.06,
3.789,0.02,0.04,1.04,-0.13,0.16,-0.06,
3.791,0.02,0.04,1.04,-0.22,0.15,0.15,
3.793,0.02,0.04,1.07,-0.22,0.15,0.15,
3.794,0.01,0.04,1.08,-0.22,0.15,0.15,
3.794,0.01,0.04,1.08,-0.25,0.16,0.47,
3.795,0.00,0.04,1.09,-0.25,0.16,0.47,
3.797,-0.00,0.04,1.11,-0.25,0.16,0.47,
3.797,-0.00,0.04,1.11,-0.37,0.17,0.85,
3.8,-0.01,0.04,1.12,-0.37,0.17,0.85,
3.802,-0.02,0.04,1.13,-0.37,0.17,0.85,
3.803,-0.02,0.04,1.13,-0.52,0.14,1.09,
3.805,-0.02,0.04,1.14,-0.52,0.14,1.09,
3.807,-0.02,0.04,1.14,-0.52,0.14,1.09,
3.807,-0.02,0.04,1.14,-0.67,0.18,1.31,
3.81,-0.02,0.04,1.14,-0.67,0.18,1.31,
3.812,-0.01,0.05,1.12,-0.67,0.18,1.31,
3.813,-0.01,0.05,1.12,-0.72,0.17,1.46,
3.815,0.00,0.05,1.09,-0.72,0.17,1.46,
3.817,0.01,0.06,1.09,-0.72,0.17,1.46,
3.817,0.01,0.06,1.09,-0.70,0.17,1.34,
3.82,0.02,0.06,1.06,-0.70,0.17,1.34,
3.822,0.03,0.06,1.02,-0.70,0.17,1.34,
3.822,0.03,0.06,1.02,-0.47,0.28,0.96,
3.824,0.04,0.06,0.99,-0.47,0.28,0.96,
3.827,0.04,0.06,0.99,-0.28,0.32,0.43,
3.828,0.07,0.06,0.96,-0.28,0.32,0.43,
3.83,0.08,0.05,0.93,-0.28,0.32,0.43,
3.832,0.08,0.04,0.91,-0.28,0.32,0.43,
3.832,0.08,0.04,0.91,0.02,0.28,-0.21,
3.835,0.07,0.03,0.90,0.02,0.28,-0.21,
3.837,0.07,0.03,0.89,0.02,0.28,-0.21,
3.837,0.07,0.03,0.89,0.28,0.11,-0.73,
3.84,0.06,0.03,0.88,0.28,0.11,-0.73,
3.842,0.06,0.03,0.88,0.16,-0.02,-0.98,
3.842,0.06,0.03,0.89,0.16,-0.02,-0.98,
3.845,0.06,0.04,0.90,0.16,-0.02,-0.98,
3.846,0.06,0.05,0.91,0.16,-0.02,-0.98,
3.847,0.06,0.05,0.91,0.08,-0.03,-1.05,
3.849,0.06,0.05,0.92,0.08,-0.03,-1.05,
3.852,0.07,0.06,0.94,0.08,-0.03,-1.05,
3.852,0.07,0.06,0.94,0.06,0.12,-0.86,
3.854,0.07,0.05,0.95,0.06,0.12,-0.86,
3.86,0.07,0.05,0.96,0.06,0.12,-0.86,
3.86,0.07,0.05,0.96,0.10,0.24,-0.59,
3.86,0.07,0.04,0.96,0.10,0.24,-0.59,
