
time,gFx,gFy,gFz,ax,ay,az,
0.003,-0.03,0.05,0.96,0.15,0.20,-0.34,
0.003,-0.03,0.05,0.96,0.15,0.20,-0.34,
0.004,-0.03,0.05,0.96,0.31,0.11,-0.42,
0.004,-0.03,0.04,0.97,0.31,0.11,-0.42,
0.004,-0.04,0.04,0.97,0.31,0.11,-0.42,
0.004,-0.04,0.04,0.97,0.43,0.08,-0.40,
0.006,-0.07,0.02,0.96,0.43,0.08,-0.40,
0.008,-0.07,0.02,0.97,0.43,0.08,-0.40,
0.008,-0.07,0.02,0.97,0.35,-0.03,-0.25,
0.011,-0.05,0.03,0.98,0.35,-0.03,-0.25,
0.012,-0.04,0.04,0.99,0.35,-0.03,-0.25,
0.013,-0.04,0.04,0.99,0.03,-0.16,-0.29,
0.015,-0.04,0.04,1.00,0.03,-0.16,-0.29,
0.018,-0.04,0.04,1.00,0.27,-0.03,-0.15,
0.018,-0.03,0.05,0.99,0.27,-0.03,-0.15,
0.02,-0.04,0.04,0.99,0.27,-0.03,-0.15,
0.023,-0.04,0.04,0.99,0.27,-0.03,-0.15,
0.023,-0.04,0.04,0.99,0.37,0.06,-0.05,
0.025,-0.04,0.03,0.98,0.37,0.06,-0.05,
0.03,-0.07,0.03,0.98,0.37,0.06,-0.05,
0.03,-0.07,0.03,0.98,0.35,0.05,-0.04,
0.03,-0.09,0.03,0.97,0.35,0.05,-0.04,
0.033,-0.09,0.03,0.97,0.16,-0.09,-0.13,
0.033,-0.08,0.03,0.96,0.16,-0.09,-0.13,
0.036,-0.08,0.03,0.97,0.16,-0.09,-0.13,
0.038,-0.08,0.03,0.97,-0.11,-0.09,-0.30,
0.038,-0.08,0.04,0.97,-0.11,-0.09,-0.30,
0.04,-0.08,0.05,0.97,-0.11,-0.09,-0.30,
0.047,-0.08,0.05,0.96,-0.11,-0.09,-0.30,
0.047,-0.08,0.05,0.96,-0.10,0.00,-0.29,
0.047,-0.08,0.05,0.95,-0.10,0.00,-0.29,
0.048,-0.08,0.05,0.95,-0.06,0.11,-0.32,
0.048,-0.08,0.04,0.96,-0.06,0.11,-0.32,
0.05,-0.09,0.04,0.95,-0.06,0.11,-0.32,
0.052,-0.09,0.04,0.94,-0.06,0.11,-0.32,
0.052,-0.09,0.04,0.94,-0.07,0.09,-0.42,
0.055,-0.09,0.03,0.95,-0.07,0.09,-0.42,
0.058,-0.09,0.03,0.94,-0.07,0.09,-0.42,
0.058,-0.09,0.03,0.94,-0.10,0.01,-0.46,
0.06,-0.09,0.03,0.94,-0.10,0.01,-0.46,
0.062,-0.09,0.03,0.95,-0.10,0.01,-0.46,
0.062,-0.09,0.03,0.95,-0.12,-0.05,-0.49,
0.065,-0.09,0.03,0.94,-0.12,-0.05,-0.49,
0.068,-0.09,0.03,0.95,-0.12,-0.05,-0.49,
0.068,-0.09,0.03,0.95,-0.16,-0.11,-0.47,
0.07,-0.10,0.03,0.96,-0.16,-0.11,-0.47,
0.072,-0.09,0.03,0.96,-0.16,-0.11,-0.47,
0.073,-0.09,0.03,0.96,-0.15,-0.09,-0.44,
0.075,-0.09,0.04,0.96,-0.15,-0.09,-0.44,
0.078,-0.09,0.04,0.96,-0.15,-0.09,-0.44,
0.078,-0.09,0.04,0.96,-0.14,-0.04,-0.30,
0.079,-0.08,0.04,0.96,-0.14,-0.04,-0.30,
0.082,-0.09,0.04,0.97,-0.14,-0.04,-0.30,
0.083,-0.09,0.04,0.97,-0.08,-0.01,-0.30,
0.085,-0.08,0.04,0.98,-0.08,-0.01,-0.30,
0.087,-0.08,0.04,0.98,-0.05,0.02,-0.25,
0.088,-0.09,0.03,0.98,-0.05,0.02,-0.25,
0.09,-0.09,0.03,0.97,-0.05,0.02,-0.25,
0.094,-0.09,0.03,0.98,-0.05,0.02,-0.25,
0.094,-0.09,0.03,0.98,-0.06,-0.01,-0.14,
0.095,-0.08,0.03,0.98,-0.06,-0.01,-0.14,
0.097,-0.09,0.03,0.99,-0.06,-0.01,-0.14,
0.097,-0.09,0.03,0.99,-0.08,-0.04,-0.17,
0.099,-0.09,0.03,0.99,-0.08,-0.04,-0.17,
0.101,-0.08,0.02,0.99,-0.08,-0.04,-0.17,
0.102,-0.08,0.02,0.99,-0.07,-0.06,-0.07,
0.104,-0.09,0.03,0.98,-0.07,-0.06,-0.07,
0.107,-0.09,0.03,0.99,-0.07,-0.06,-0.07,
0.107,-0.09,0.03,0.99,-0.07,-0.08,-0.06,
0.109,-0.09,0.02,0.99,-0.07,-0.08,-0.06,
0.111,-0.09,0.02,0.99,-0.09,-0.07,-0.05,
0.112,-0.09,0.02,0.98,-0.09,-0.07,-0.05,
0.114,-0.09,0.02,0.99,-0.09,-0.07,-0.05,
0.116,-0.09,0.02,0.99,-0.09,-0.07,-0.05,
0.117,-0.09,0.02,0.99,-0.07,-0.09,-0.06,
0.119,-0.09,0.02,0.99,-0.07,-0.09,-0.06,
0.121,-0.08,0.02,0.99,-0.07,-0.09,-0.06,
0.121,-0.08,0.02,0.99,-0.05,-0.10,-0.04,
0.124,-0.08,0.02,0.99,-0.05,-0.10,-0.04,
0.127,-0.08,0.03,1.00,-0.05,-0.10,-0.04,
0.127,-0.08,0.03,1.00,-0.02,-0.10,-0.02,
0.129,-0.08,0.02,1.00,-0.02,-0.10,-0.02,
0.131,-0.08,0.03,1.00,-0.02,-0.10,-0.02,
0.131,-0.08,0.03,1.00,-0.02,-0.06,0.01,
0.134,-0.08,0.02,1.00,-0.02,-0.06,0.01,
0.136,-0.08,0.02,1.00,0.03,-0.06,0.06,
0.136,-0.08,0.03,1.00,0.03,-0.06,0.06,
0.138,-0.07,0.02,1.01,0.03,-0.06,0.06,
0.141,-0.08,0.02,1.01,0.03,-0.06,0.06,
0.141,-0.08,0.02,1.01,0.02,-0.06,0.11,
0.15,-0.07,0.02,1.02,0.02,-0.06,0.11,
0.15,-0.07,0.02,1.02,0.02,-0.06,0.11,
0.15,-0.07,0.02,1.02,0.06,-0.08,0.18,
0.151,-0.07,0.01,1.03,0.06,-0.08,0.18,
0.151,-0.07,0.01,1.04,0.06,-0.08,0.18,
0.151,-0.07,0.01,1.04,0.09,-0.11,0.26,
0.153,-0.07,0.02,1.03,0.09,-0.11,0.26,
0.156,-0.07,0.01,1.04,0.09,-0.11,0.26,
0.156,-0.07,0.01,1.04,0.07,-0.16,0.41,
0.16,-0.07,0.01,1.05,0.07,-0.16,0.41,
0.164,-0.07,0.01,1.05,0.08,-0.15,0.43,
0.164,-0.07,0.01,1.05,0.08,-0.15,0.43,
0.164,-0.07,0.01,1.05,0.08,-0.15,0.43,
0.166,-0.07,0.01,1.05,0.08,-0.15,0.43,
0.166,-0.07,0.01,1.05,0.09,-0.17,0.55,
0.168,-0.07,0.01,1.05,0.09,-0.17,0.55,
0.171,-0.07,0.01,1.05,0.09,-0.17,0.55,
0.171,-0.07,0.01,1.05,0.09,-0.17,0.55,
0.174,-0.07,0.02,1.05,0.09,-0.17,0.55,
0.177,-0.07,0.02,1.05,0.09,-0.17,0.55,
0.177,-0.07,0.02,1.05,0.13,-0.15,0.54,
0.178,-0.07,0.02,1.04,0.13,-0.15,0.54,
0.181,-0.07,0.02,1.04,0.13,-0.15,0.54,
0.181,-0.07,0.02,1.04,0.09,-0.11,0.52,
0.184,-0.06,0.02,1.04,0.09,-0.11,0.52,
0.186,-0.06,0.02,1.03,0.09,-0.11,0.52,
0.186,-0.06,0.02,1.03,0.11,-0.09,0.47,
0.189,-0.06,0.03,1.03,0.11,-0.09,0.47,
0.191,-0.06,0.03,1.03,0.11,-0.09,0.47,
0.191,-0.06,0.03,1.03,0.16,-0.04,0.37,
0.194,-0.06,0.03,1.02,0.16,-0.04,0.37,
0.196,-0.06,0.03,1.02,0.16,-0.04,0.37,
0.196,-0.06,0.03,1.02,0.17,0.02,0.31,
0.199,-0.06,0.03,1.01,0.17,0.02,0.31,
0.201,-0.06,0.03,1.01,0.18,0.01,0.20,
0.201,-0.07,0.03,1.01,0.18,0.01,0.20,
0.203,-0.07,0.03,1.01,0.18,0.01,0.20,
0.206,-0.07,0.04,1.01,0.18,0.01,0.20,
0.206,-0.07,0.04,1.01,0.13,0.05,0.15,
0.208,-0.07,0.03,1.00,0.13,0.05,0.15,
0.212,-0.07,0.03,1.00,0.06,0.08,0.13,
0.213,-0.07,0.03,1.00,0.06,0.08,0.13,
0.213,-0.07,0.04,1.00,0.06,0.08,0.13,
0.216,-0.07,0.04,1.00,0.06,0.08,0.13,
0.216,-0.07,0.04,1.00,0.06,0.06,0.03,
0.219,-0.07,0.04,1.00,0.06,0.06,0.03,
0.221,-0.07,0.04,1.00,0.06,0.06,0.03,
0.221,-0.07,0.04,1.00,0.07,0.13,0.03,
0.223,-0.07,0.04,1.00,0.07,0.13,0.03,
0.226,-0.07,0.04,1.00,0.07,0.13,0.03,
0.226,-0.07,0.04,1.00,0.06,0.15,0.02,
0.228,-0.07,0.04,0.99,0.06,0.15,0.02,
0.231,-0.06,0.04,0.99,0.06,0.15,0.02,
0.231,-0.06,0.04,0.99,0.08,0.12,0.02,
0.233,-0.07,0.04,0.99,0.08,0.12,0.02,
0.236,-0.07,0.04,0.99,0.08,0.12,0.02,
0.236,-0.07,0.04,0.99,0.11,0.13,-0.06,
0.238,-0.07,0.04,0.99,0.11,0.13,-0.06,
0.241,-0.07,0.04,0.99,0.11,0.13,-0.06,
0.242,-0.07,0.04,0.99,0.08,0.13,-0.07,
0.244,-0.07,0.04,1.00,0.08,0.13,-0.07,
0.245,-0.07,0.04,0.99,0.08,0.13,-0.07,
0.245,-0.07,0.04,0.99,0.07,0.14,-0.05,
0.248,-0.07,0.04,0.99,0.07,0.14,-0.05,
0.251,-0.07,0.04,0.99,0.07,0.14,-0.05,
0.251,-0.07,0.04,0.99,0.07,0.11,-0.04,
0.253,-0.07,0.04,0.99,0.07,0.11,-0.04,
0.256,-0.08,0.04,0.99,0.07,0.11,-0.04,
0.256,-0.08,0.04,0.99,0.07,0.11,-0.09,
0.258,-0.08,0.04,1.00,0.07,0.11,-0.09,
0.264,-0.08,0.04,0.99,0.07,0.11,-0.09,
0.264,-0.08,0.04,0.99,0.01,0.10,-0.07,
0.264,-0.09,0.04,1.00,0.01,0.10,-0.07,
0.265,-0.09,0.04,1.00,0.01,0.10,-0.07,
0.265,-0.09,0.04,1.00,-0.02,0.10,0.00,
0.267,-0.09,0.04,1.00,-0.02,0.10,0.00,
0.27,-0.08,0.04,1.01,-0.02,0.10,0.00,
0.271,-0.08,0.04,1.01,-0.09,0.12,0.05,
0.273,-0.09,0.04,1.01,-0.09,0.12,0.05,
0.277,-0.09,0.04,1.01,-0.09,0.12,0.05,
0.278,-0.09,0.04,1.01,-0.07,0.12,0.06,
0.278,-0.10,0.04,1.02,-0.07,0.12,0.06,
0.28,-0.09,0.04,1.01,-0.07,0.12,0.06,
0.28,-0.09,0.04,1.01,-0.08,0.10,0.11,
0.283,-0.10,0.04,1.02,-0.08,0.10,0.11,
0.285,-0.10,0.04,1.02,-0.16,0.09,0.20,
0.285,-0.09,0.03,1.01,-0.16,0.09,0.20,
0.287,-0.10,0.03,1.01,-0.16,0.09,0.20,
0.29,-0.10,0.03,1.01,-0.16,0.09,0.20,
0.291,-0.10,0.03,1.01,-0.16,0.06,0.16,
0.293,-0.10,0.03,1.02,-0.16,0.06,0.16,
0.295,-0.10,0.03,1.01,-0.16,0.06,0.16,
0.296,-0.10,0.03,1.01,-0.18,0.04,0.14,
0.297,-0.10,0.03,1.02,-0.18,0.04,0.14,
0.299,-0.10,0.03,1.02,-0.18,0.04,0.14,
0.3,-0.10,0.03,1.02,-0.19,-0.04,0.17,
0.302,-0.10,0.02,1.02,-0.19,-0.04,0.17,
0.304,-0.10,0.03,1.01,-0.19,-0.04,0.17,
0.305,-0.10,0.03,1.01,-0.18,0.01,0.18,
0.308,-0.10,0.03,1.01,-0.18,0.01,0.18,
0.31,-0.10,0.03,1.01,-0.18,0.01,0.18,
0.311,-0.10,0.03,1.01,-0.19,-0.03,0.12,
0.312,-0.10,0.03,1.02,-0.19,-0.03,0.12,
0.314,-0.10,0.03,1.01,-0.19,-0.03,0.12,
0.315,-0.10,0.03,1.01,-0.22,0.02,0.13,
0.317,-0.10,0.03,1.01,-0.22,0.02,0.13,
0.319,-0.09,0.03,1.00,-0.22,0.02,0.13,
0.319,-0.09,0.03,1.00,-0.20,0.01,0.14,
0.322,-0.09,0.04,1.01,-0.20,0.01,0.14,
0.324,-0.09,0.03,1.00,-0.20,0.01,0.14,
0.326,-0.09,0.03,1.00,-0.15,-0.00,0.07,
0.328,-0.09,0.03,1.00,-0.15,-0.00,0.07,
0.329,-0.09,0.03,1.01,-0.15,-0.00,0.07,
0.33,-0.09,0.03,1.01,-0.11,0.04,0.06,
0.332,-0.09,0.03,1.01,-0.11,0.04,0.06,
0.334,-0.08,0.04,1.00,-0.11,0.04,0.06,
0.334,-0.08,0.04,1.00,-0.10,-0.00,0.07,
0.337,-0.08,0.04,1.00,-0.10,-0.00,0.07,
0.339,-0.09,0.04,1.01,-0.10,-0.00,0.07,
0.339,-0.09,0.04,1.01,-0.05,0.05,0.09,
0.342,-0.09,0.04,1.01,-0.05,0.05,0.09,
0.345,-0.09,0.04,1.01,-0.05,0.05,0.09,
0.345,-0.09,0.04,1.01,-0.06,0.09,0.07,
0.347,-0.09,0.04,1.01,-0.06,0.09,0.07,
0.349,-0.09,0.04,1.01,-0.06,0.09,0.07,
0.349,-0.09,0.04,1.01,-0.10,0.07,0.08,
0.351,-0.09,0.04,1.01,-0.10,0.07,0.08,
0.354,-0.09,0.04,1.00,-0.10,0.07,0.08,
0.354,-0.09,0.04,1.00,-0.10,0.05,0.07,
0.356,-0.09,0.04,1.01,-0.10,0.05,0.07,
0.359,-0.09,0.04,1.01,-0.10,0.05,0.07,
0.365,-0.09,0.04,1.01,-0.15,0.07,0.06,
0.366,-0.09,0.04,1.01,-0.15,0.07,0.06,
0.366,-0.09,0.04,1.00,-0.15,0.07,0.06,
0.366,-0.09,0.04,1.00,-0.14,0.09,0.07,
0.367,-0.09,0.04,1.01,-0.14,0.09,0.07,
0.369,-0.08,0.04,1.01,-0.14,0.09,0.07,
0.369,-0.08,0.04,1.01,-0.11,0.06,0.05,
0.371,-0.08,0.04,1.00,-0.11,0.06,0.05,
0.374,-0.08,0.04,1.01,-0.11,0.06,0.05,
0.375,-0.08,0.04,1.01,-0.09,0.11,0.08,
0.377,-0.09,0.04,1.01,-0.09,0.11,0.08,
0.378,-0.09,0.04,1.01,-0.09,0.11,0.08,
0.38,-0.09,0.04,1.01,-0.04,0.06,0.07,
0.381,-0.09,0.03,1.02,-0.04,0.06,0.07,
0.383,-0.09,0.03,1.02,-0.04,0.06,0.07,
0.384,-0.09,0.03,1.02,-0.07,0.04,0.13,
0.386,-0.08,0.04,1.02,-0.07,0.04,0.13,
0.389,-0.08,0.04,1.02,-0.10,0.02,0.19,
0.39,-0.09,0.04,1.01,-0.10,0.02,0.19,
0.391,-0.08,0.04,1.01,-0.10,0.02,0.19,
0.396,-0.08,0.04,1.02,-0.10,0.02,0.19,
0.397,-0.08,0.04,1.02,-0.08,0.05,0.15,
0.397,-0.08,0.04,1.02,-0.08,0.05,0.15,
0.398,-0.08,0.04,1.02,-0.08,0.05,0.15,
0.399,-0.08,0.04,1.02,-0.03,0.03,0.16,
0.401,-0.08,0.04,1.01,-0.03,0.03,0.16,
0.403,-0.07,0.04,1.00,-0.03,0.03,0.16,
0.404,-0.07,0.04,1.00,-0.02,0.07,0.16,
0.406,-0.07,0.04,1.00,-0.02,0.07,0.16,
0.412,-0.08,0.04,1.01,-0.02,0.07,0.16,
0.413,-0.08,0.04,1.01,0.03,0.06,0.10,
0.413,-0.07,0.04,1.00,0.03,0.06,0.10,
0.414,-0.07,0.04,1.00,0.03,0.06,0.10,
0.414,-0.07,0.04,1.00,0.03,0.05,0.06,
0.416,-0.08,0.04,1.00,0.03,0.05,0.06,
0.418,-0.07,0.04,1.00,0.03,0.05,0.06,
0.418,-0.07,0.04,1.00,0.04,0.06,0.01,
0.421,-0.08,0.04,1.00,0.04,0.06,0.01,
0.423,-0.07,0.05,0.99,0.04,0.06,0.01,
0.424,-0.07,0.05,0.99,0.02,0.04,-0.00,
0.427,-0.07,0.05,0.99,0.02,0.04,-0.00,
0.428,-0.07,0.04,0.99,0.02,0.04,-0.00,
0.429,-0.07,0.04,0.99,0.03,0.08,-0.05,
0.431,-0.06,0.05,0.98,0.03,0.08,-0.05,
0.433,-0.06,0.05,0.98,0.10,0.10,-0.12,
0.433,-0.06,0.05,0.98,0.10,0.10,-0.12,
0.436,-0.05,0.05,0.97,0.10,0.10,-0.12,
0.438,-0.05,0.05,0.97,0.10,0.10,-0.12,
0.438,-0.05,0.05,0.97,0.15,0.10,-0.19,
0.44,-0.05,0.05,0.97,0.15,0.10,-0.19,
0.444,-0.05,0.05,0.98,0.15,0.10,-0.19,
0.446,-0.05,0.05,0.98,0.23,0.15,-0.29,
0.446,-0.06,0.05,0.97,0.23,0.15,-0.29,
0.448,-0.06,0.05,0.97,0.23,0.15,-0.29,
0.448,-0.06,0.05,0.97,0.22,0.14,-0.24,
0.45,-0.06,0.05,0.98,0.22,0.14,-0.24,
0.453,-0.07,0.05,0.99,0.22,0.14,-0.24,
0.453,-0.07,0.05,0.99,0.16,0.14,-0.26,
0.456,-0.07,0.05,0.98,0.16,0.14,-0.26,
0.458,-0.07,0.05,0.99,0.16,0.14,-0.26,
0.458,-0.07,0.05,0.99,0.08,0.11,-0.16,
0.461,-0.07,0.05,0.99,0.08,0.11,-0.16,
0.463,-0.07,0.04,1.00,0.08,0.11,-0.16,
0.463,-0.07,0.04,1.00,0.06,0.09,-0.13,
0.465,-0.07,0.05,0.99,0.06,0.09,-0.13,
0.468,-0.07,0.05,0.99,0.03,0.07,-0.04,
0.468,-0.07,0.04,1.00,0.03,0.07,-0.04,
0.47,-0.07,0.04,1.00,0.03,0.07,-0.04,
0.473,-0.07,0.04,1.00,0.03,0.07,-0.04,
0.474,-0.07,0.04,1.00,0.03,0.06,-0.03,
0.475,-0.07,0.03,1.00,0.03,0.06,-0.03,
0.481,-0.07,0.03,0.99,0.03,0.06,-0.03,
0.482,-0.07,0.03,0.99,0.01,0.01,0.03,
0.482,-0.07,0.03,0.99,0.01,0.01,0.03,
0.483,-0.07,0.03,1.00,0.01,0.01,0.03,
0.483,-0.07,0.03,1.00,0.04,-0.07,-0.00,
0.485,-0.07,0.03,1.00,0.04,-0.07,-0.00,
0.488,-0.07,0.03,1.00,0.04,-0.07,-0.00,
0.488,-0.07,0.03,1.00,0.04,-0.07,-0.03,
0.49,-0.07,0.03,1.00,0.04,-0.07,-0.03,
0.494,-0.07,0.03,1.00,0.04,-0.07,-0.03,
0.495,-0.07,0.03,1.00,0.06,-0.07,0.02,
0.496,-0.07,0.03,0.99,0.06,-0.07,0.02,
0.498,-0.06,0.03,0.99,0.06,-0.07,0.02,
0.498,-0.06,0.03,0.99,0.07,-0.06,-0.03,
0.5,-0.07,0.03,0.99,0.07,-0.06,-0.03,
0.503,-0.07,0.03,1.00,0.07,-0.06,-0.03,
0.503,-0.07,0.03,1.00,0.09,-0.05,-0.08,
0.505,-0.07,0.03,1.00,0.09,-0.05,-0.08,
0.508,-0.07,0.03,0.99,0.09,-0.05,-0.08,
0.508,-0.07,0.03,0.99,0.06,-0.08,-0.03,
0.511,-0.08,0.03,0.99,0.06,-0.08,-0.03,
0.512,-0.07,0.03,0.99,0.06,-0.08,-0.03,
0.513,-0.07,0.03,0.99,0.03,-0.07,-0.03,
0.515,-0.08,0.03,0.99,0.03,-0.07,-0.03,
0.517,-0.08,0.03,0.99,0.03,-0.07,-0.03,
0.517,-0.08,0.03,0.99,0.00,-0.09,-0.06,
0.52,-0.08,0.03,1.00,0.00,-0.09,-0.06,
0.523,-0.08,0.03,0.98,0.00,-0.09,-0.06,
0.523,-0.08,0.03,0.98,-0.04,-0.07,-0.06,
0.525,-0.07,0.03,0.98,-0.04,-0.07,-0.06,
0.529,-0.08,0.03,0.98,-0.04,-0.07,-0.06,
0.529,-0.08,0.03,0.98,-0.03,-0.10,-0.08,
0.53,-0.08,0.03,0.97,-0.03,-0.10,-0.08,
0.533,-0.08,0.03,0.97,-0.01,-0.09,-0.14,
0.533,-0.08,0.03,0.97,-0.01,-0.09,-0.14,
0.535,-0.08,0.03,0.97,-0.01,-0.09,-0.14,
0.538,-0.09,0.03,0.97,-0.01,-0.09,-0.14,
0.538,-0.09,0.03,0.97,-0.03,-0.08,-0.26,
0.54,-0.09,0.03,0.96,-0.03,-0.08,-0.26,
0.543,-0.08,0.03,0.96,-0.03,-0.08,-0.26,
0.543,-0.08,0.03,0.96,-0.10,-0.12,-0.27,
0.545,-0.08,0.03,0.96,-0.10,-0.12,-0.27,
0.547,-0.08,0.04,0.96,-0.10,-0.12,-0.27,
0.548,-0.08,0.04,0.96,-0.09,-0.07,-0.36,
0.55,-0.08,0.04,0.96,-0.09,-0.07,-0.36,
0.553,-0.09,0.04,0.96,-0.09,-0.07,-0.36,
0.553,-0.09,0.04,0.96,-0.08,-0.06,-0.39,
0.555,-0.09,0.04,0.95,-0.08,-0.06,-0.39,
0.558,-0.09,0.04,0.95,-0.08,-0.06,-0.39,
0.558,-0.09,0.04,0.95,-0.10,-0.00,-0.38,
0.56,-0.09,0.04,0.95,-0.10,-0.00,-0.38,
0.563,-0.08,0.04,0.95,-0.10,-0.00,-0.38,
0.563,-0.08,0.04,0.95,-0.11,0.02,-0.43,
0.565,-0.08,0.04,0.95,-0.11,0.02,-0.43,
0.567,-0.08,0.04,0.95,-0.10,0.02,-0.41,
0.568,-0.08,0.04,0.95,-0.10,0.02,-0.41,
0.57,-0.08,0.04,0.96,-0.10,0.02,-0.41,
0.572,-0.08,0.04,0.96,-0.10,0.02,-0.41,
0.573,-0.08,0.04,0.96,-0.07,-0.01,-0.43,
0.575,-0.08,0.04,0.97,-0.07,-0.01,-0.43,
0.577,-0.08,0.04,0.97,-0.07,-0.01,-0.43,
0.577,-0.08,0.04,0.97,-0.02,-0.01,-0.33,
0.583,-0.08,0.03,0.98,-0.02,-0.01,-0.33,
0.583,-0.08,0.03,0.98,-0.01,-0.05,-0.27,
0.583,-0.08,0.03,0.99,-0.01,-0.05,-0.27,
0.584,-0.08,0.03,0.99,-0.01,-0.05,-0.27,
0.587,-0.08,0.03,1.00,-0.01,-0.05,-0.27,
0.587,-0.08,0.03,1.00,-0.04,-0.10,-0.12,
0.589,-0.08,0.03,1.00,-0.04,-0.10,-0.12,
0.592,-0.08,0.03,1.00,-0.04,-0.10,-0.12,
0.593,-0.08,0.03,1.00,-0.04,-0.12,0.01,
0.596,-0.07,0.03,1.01,-0.04,-0.12,0.01,
0.596,-0.07,0.03,1.02,-0.04,-0.12,0.01,
0.597,-0.07,0.03,1.02,-0.02,-0.10,0.04,
0.599,-0.07,0.03,1.01,-0.02,-0.10,0.04,
0.603,-0.07,0.03,1.01,-0.02,-0.10,0.04,
0.603,-0.07,0.03,1.01,0.02,-0.08,0.17,
0.605,-0.07,0.02,1.02,0.02,-0.08,0.17,
0.607,-0.07,0.03,1.01,0.02,-0.08,0.17,
0.607,-0.07,0.03,1.01,0.07,-0.12,0.17,
0.609,-0.07,0.03,1.01,0.07,-0.12,0.17,
0.613,-0.07,0.03,1.01,0.07,-0.12,0.17,
0.614,-0.07,0.03,1.01,0.07,-0.12,0.18,
0.614,-0.06,0.03,1.01,0.07,-0.12,0.18,
0.616,-0.06,0.03,1.01,0.07,-0.12,0.18,
0.616,-0.06,0.03,1.01,0.08,-0.08,0.13,
0.619,-0.06,0.03,1.01,0.08,-0.08,0.13,
0.622,-0.05,0.04,1.00,0.08,-0.08,0.13,
0.622,-0.05,0.04,1.00,0.10,-0.08,0.12,
0.624,-0.06,0.03,1.00,0.10,-0.08,0.12,
0.628,-0.06,0.03,1.00,0.10,-0.08,0.12,
0.629,-0.06,0.03,1.00,0.18,-0.05,0.08,
0.629,-0.06,0.04,0.99,0.18,-0.05,0.08,
0.631,-0.06,0.03,0.99,0.18,-0.05,0.08,
0.631,-0.06,0.03,0.99,0.16,-0.05,0.01,
0.633,-0.07,0.04,1.00,0.16,-0.05,0.01,
0.636,-0.07,0.04,1.00,0.16,-0.05,-0.02,
0.636,-0.06,0.04,0.99,0.16,-0.05,-0.02,
0.638,-0.06,0.04,0.99,0.16,-0.05,-0.02,
0.641,-0.06,0.04,1.00,0.16,-0.05,-0.02,
0.641,-0.06,0.04,1.00,0.11,-0.01,-0.01,
0.645,-0.06,0.04,1.00,0.11,-0.01,-0.01,
0.647,-0.07,0.05,1.00,0.11,-0.01,-0.01,
0.647,-0.07,0.05,1.00,0.12,0.01,-0.00,
0.648,-0.07,0.05,1.00,0.12,0.01,-0.00,
0.652,-0.07,0.05,1.00,0.12,0.01,-0.00,
0.652,-0.07,0.05,1.00,0.10,0.07,0.04,
0.653,-0.07,0.05,1.01,0.10,0.07,0.04,
0.656,-0.07,0.05,1.02,0.10,0.07,0.04,
0.656,-0.07,0.05,1.02,0.07,0.12,0.07,
0.658,-0.06,0.05,1.01,0.07,0.12,0.07,
0.662,-0.07,0.05,1.02,0.07,0.12,0.07,
0.663,-0.07,0.05,1.02,0.04,0.12,0.16,
0.663,-0.07,0.05,1.02,0.04,0.12,0.16,
0.666,-0.07,0.05,1.02,0.04,0.12,0.16,
0.666,-0.07,0.05,1.02,0.08,0.11,0.15,
0.668,-0.07,0.05,1.01,0.08,0.11,0.15,
0.671,-0.07,0.05,1.02,0.08,0.11,0.15,
0.671,-0.07,0.05,1.02,0.03,0.10,0.20,
0.673,-0.06,0.05,1.02,0.03,0.10,0.20,
0.675,-0.06,0.05,1.02,0.03,0.10,0.20,
0.676,-0.06,0.05,1.02,0.04,0.09,0.20,
0.679,-0.06,0.04,1.02,0.04,0.09,0.20,
0.68,-0.06,0.04,1.02,0.04,0.09,0.20,
0.681,-0.06,0.04,1.02,0.14,0.09,0.23,
0.683,-0.06,0.05,1.02,0.14,0.09,0.23,
0.685,-0.07,0.04,1.02,0.14,0.09,0.23,
0.686,-0.07,0.04,1.02,0.13,0.05,0.25,
0.688,-0.07,0.04,1.03,0.13,0.05,0.25,
0.69,-0.07,0.04,1.02,0.13,0.05,0.25,
0.691,-0.07,0.04,1.02,0.09,0.05,0.24,
0.694,-0.07,0.04,1.02,0.09,0.05,0.24,
0.7,-0.08,0.04,1.02,0.09,0.05,0.24,
0.701,-0.08,0.04,1.02,0.05,0.03,0.25,
0.701,-0.08,0.04,1.02,0.05,0.03,0.25,
0.701,-0.08,0.04,1.02,0.05,0.03,0.25,
0.701,-0.08,0.04,1.02,0.01,0.01,0.18,
0.703,-0.08,0.05,1.02,0.01,0.01,0.18,
0.706,-0.08,0.05,1.02,-0.05,0.04,0.24,
0.706,-0.08,0.04,1.03,-0.05,0.04,0.24,
0.708,-0.08,0.05,1.02,-0.05,0.04,0.24,
0.712,-0.08,0.05,1.02,-0.05,0.04,0.24,
0.712,-0.08,0.05,1.02,-0.07,0.04,0.26,
0.714,-0.08,0.04,1.03,-0.07,0.04,0.26,
0.715,-0.08,0.04,1.03,-0.07,0.04,0.26,
0.715,-0.08,0.04,1.03,-0.06,0.05,0.25,
0.718,-0.08,0.04,1.02,-0.06,0.05,0.25,
0.72,-0.08,0.04,1.02,-0.06,0.05,0.25,
0.72,-0.08,0.04,1.02,-0.07,0.03,0.27,
0.723,-0.08,0.04,1.02,-0.07,0.03,0.27,
0.727,-0.08,0.04,1.02,-0.06,0.02,0.21,
0.728,-0.08,0.04,1.01,-0.06,0.02,0.21,
0.728,-0.08,0.04,1.01,-0.06,0.02,0.21,
0.731,-0.08,0.04,1.01,-0.06,-0.00,0.18,
0.732,-0.08,0.04,1.00,-0.06,-0.00,0.18,
0.733,-0.08,0.04,1.00,-0.06,-0.00,0.18,
0.735,-0.08,0.04,1.00,-0.01,-0.01,0.09,
0.735,-0.07,0.04,0.99,-0.01,-0.01,0.09,
0.737,-0.07,0.04,0.99,-0.01,-0.01,0.09,
0.74,-0.07,0.04,0.98,-0.01,-0.01,0.09,
0.74,-0.07,0.04,0.98,-0.00,-0.04,-0.02,
0.743,-0.07,0.04,0.97,-0.00,-0.04,-0.02,
0.746,-0.07,0.04,0.97,-0.00,-0.04,-0.02,
0.747,-0.07,0.04,0.97,0.03,-0.05,-0.12,
0.748,-0.07,0.04,0.97,0.03,-0.05,-0.12,
0.751,-0.06,0.04,0.97,0.03,-0.05,-0.12,
0.751,-0.06,0.04,0.97,0.04,-0.03,-0.25,
0.754,-0.06,0.04,0.96,0.04,-0.03,-0.25,
0.757,-0.06,0.04,0.96,0.08,-0.04,-0.26,
0.757,-0.06,0.04,0.97,0.08,-0.04,-0.26,
0.758,-0.06,0.04,0.97,0.08,-0.04,-0.26,
0.761,-0.06,0.05,0.97,0.08,-0.04,-0.26,
0.762,-0.06,0.05,0.97,0.11,-0.06,-0.33,
0.766,-0.06,0.05,0.96,0.11,-0.06,-0.33,
0.766,-0.06,0.05,0.97,0.11,-0.06,-0.33,
0.766,-0.06,0.05,0.97,0.12,0.03,-0.30,
0.768,-0.07,0.05,0.97,0.12,0.03,-0.30,
0.771,-0.07,0.04,0.97,0.12,0.03,-0.30,
0.771,-0.07,0.04,0.97,0.12,0.05,-0.31,
0.773,-0.07,0.04,0.97,0.12,0.05,-0.31,
0.776,-0.07,0.04,0.97,0.12,0.05,-0.31,
0.776,-0.07,0.04,0.97,0.06,0.01,-0.26,
0.779,-0.07,0.04,0.97,0.06,0.01,-0.26,
0.782,-0.07,0.04,0.97,0.01,0.00,-0.22,
0.782,-0.08,0.03,0.98,0.01,0.00,-0.22,
0.783,-0.07,0.04,0.99,0.01,0.00,-0.22,
0.785,-0.08,0.03,0.99,0.01,0.00,-0.22,
0.786,-0.08,0.03,0.99,0.01,-0.07,-0.19,
0.788,-0.08,0.03,0.99,0.01,-0.07,-0.19,
0.791,-0.08,0.03,1.00,0.01,-0.07,-0.19,
0.791,-0.08,0.03,1.00,-0.01,-0.07,-0.05,
0.793,-0.08,0.03,0.99,-0.01,-0.07,-0.05,
0.802,-0.08,0.03,1.00,-0.01,-0.07,-0.05,
0.803,-0.08,0.03,1.00,-0.02,-0.13,-0.00,
0.803,-0.08,0.03,1.00,-0.02,-0.13,-0.00,
0.803,-0.08,0.02,1.00,-0.02,-0.13,-0.00,
0.804,-0.08,0.02,1.00,-0.05,-0.14,-0.01,
0.804,-0.08,0.02,1.00,-0.05,-0.14,-0.01,
0.805,-0.08,0.02,1.00,-0.05,-0.17,-0.00,
0.806,-0.08,0.02,1.00,-0.05,-0.17,-0.00,
0.807,-0.08,0.02,1.00,-0.05,-0.17,-0.00,
0.811,-0.08,0.02,1.00,-0.05,-0.17,-0.00,
0.811,-0.08,0.02,1.00,-0.06,-0.18,0.04,
0.814,-0.08,0.02,1.00,-0.06,-0.18,0.04,
0.815,-0.08,0.03,1.00,-0.06,-0.18,0.04,
0.815,-0.08,0.03,1.00,-0.05,-0.20,0.01,
0.817,-0.08,0.03,1.00,-0.05,-0.20,0.01,
0.82,-0.07,0.03,1.00,-0.05,-0.20,0.01,
0.824,-0.07,0.03,1.00,-0.01,-0.15,0.03,
0.824,-0.08,0.03,1.00,-0.01,-0.15,0.03,
0.825,-0.08,0.03,1.00,0.00,-0.11,0.04,
0.826,-0.08,0.03,1.00,0.00,-0.11,0.04,
0.827,-0.08,0.03,1.00,0.00,-0.11,0.04,
0.83,-0.08,0.03,1.00,-0.02,-0.08,0.03,
0.831,-0.08,0.04,1.00,-0.02,-0.08,0.03,
0.832,-0.08,0.04,1.00,-0.02,-0.08,0.03,
0.835,-0.08,0.04,1.00,-0.02,-0.08,0.03,
0.835,-0.08,0.04,1.00,-0.06,-0.07,0.01,
0.837,-0.08,0.04,0.99,-0.06,-0.07,0.01,
0.84,-0.08,0.04,1.00,-0.06,-0.07,0.01,
0.84,-0.08,0.04,1.00,-0.05,-0.04,0.04,
0.842,-0.07,0.04,1.00,-0.05,-0.04,0.04,
0.846,-0.07,0.04,0.99,-0.05,-0.04,0.04,
0.846,-0.07,0.04,0.99,-0.05,0.01,-0.01,
0.847,-0.07,0.05,0.99,-0.05,0.01,-0.01,
0.849,-0.07,0.05,0.99,0.01,0.03,-0.03,
0.849,-0.07,0.04,0.99,0.01,0.03,-0.03,
0.852,-0.07,0.04,0.98,0.01,0.03,-0.03,
0.855,-0.07,0.04,0.98,0.04,0.02,-0.08,
0.856,-0.07,0.04,0.98,0.04,0.02,-0.08,
0.857,-0.07,0.04,0.98,0.04,0.02,-0.08,
0.861,-0.07,0.04,0.98,0.04,0.02,-0.08,
0.861,-0.07,0.04,0.98,0.03,-0.00,-0.16,
0.862,-0.07,0.04,0.98,0.03,-0.00,-0.16,
0.865,-0.07,0.05,0.97,0.03,-0.00,-0.16,
0.865,-0.07,0.05,0.97,0.02,0.00,-0.15,
0.868,-0.07,0.05,0.97,0.02,0.00,-0.15,
0.87,-0.07,0.05,0.97,0.02,0.00,-0.15,
0.871,-0.07,0.05,0.97,0.04,0.01,-0.20,
0.872,-0.07,0.05,0.97,0.04,0.01,-0.20,
0.875,-0.07,0.05,0.97,0.04,0.01,-0.20,
0.876,-0.07,0.05,0.97,0.02,0.04,-0.23,
0.878,-0.07,0.04,0.97,0.02,0.04,-0.23,
0.879,-0.07,0.04,0.97,0.01,0.04,-0.22,
0.88,-0.07,0.05,0.97,0.01,0.04,-0.22,
0.882,-0.07,0.04,0.97,0.01,0.04,-0.22,
0.884,-0.07,0.04,0.97,0.01,0.04,-0.22,
0.884,-0.07,0.04,0.97,0.02,0.02,-0.24,
0.888,-0.07,0.05,0.97,0.02,0.02,-0.24,
0.889,-0.07,0.05,0.97,0.02,0.02,-0.24,
0.89,-0.07,0.05,0.97,0.01,0.01,-0.21,
0.892,-0.07,0.04,0.97,0.01,0.01,-0.21,
0.894,-0.07,0.05,0.97,0.01,0.01,-0.21,
0.895,-0.07,0.05,0.97,0.05,0.04,-0.24,
0.9,-0.07,0.05,0.97,0.05,0.04,-0.24,
0.9,-0.07,0.05,0.97,0.05,0.04,-0.24,
0.901,-0.07,0.05,0.97,0.09,0.04,-0.21,
0.902,-0.06,0.05,0.97,0.09,0.04,-0.21,
0.904,-0.06,0.05,0.98,0.09,0.04,-0.21,
0.905,-0.06,0.05,0.98,0.08,0.04,-0.21,
0.907,-0.07,0.04,0.98,0.08,0.04,-0.21,
0.909,-0.06,0.04,0.98,0.08,0.04,-0.21,
0.909,-0.06,0.04,0.98,0.13,0.05,-0.16,
0.913,-0.06,0.04,0.98,0.13,0.05,-0.16,
0.914,-0.06,0.04,0.98,0.13,0.05,-0.16,
0.914,-0.06,0.04,0.98,0.12,0.00,-0.11,
0.916,-0.06,0.04,0.98,0.12,0.00,-0.11,
0.919,-0.06,0.04,0.97,0.12,0.00,-0.11,
0.919,-0.06,0.04,0.97,0.14,-0.04,-0.13,
0.922,-0.05,0.04,0.97,0.14,-0.04,-0.13,
0.924,-0.05,0.04,0.97,0.14,-0.04,-0.13,
0.924,-0.05,0.04,0.97,0.15,-0.03,-0.19,
0.926,-0.05,0.04,0.96,0.15,-0.03,-0.19,
0.928,-0.05,0.04,0.96,0.15,-0.03,-0.19,
0.928,-0.05,0.04,0.96,0.25,-0.00,-0.22,
0.931,-0.04,0.05,0.96,0.25,-0.00,-0.22,
0.933,-0.04,0.05,0.95,0.25,-0.00,-0.22,
0.934,-0.04,0.05,0.95,0.28,0.01,-0.31,
0.936,-0.04,0.05,0.95,0.28,0.01,-0.31,
0.939,-0.03,0.05,0.95,0.28,0.01,-0.31,
0.939,-0.03,0.05,0.95,0.35,0.07,-0.35,
0.941,-0.03,0.05,0.95,0.35,0.07,-0.35,
0.943,-0.03,0.06,0.95,0.35,0.07,-0.35,
0.944,-0.03,0.06,0.95,0.40,0.12,-0.41,
0.946,-0.03,0.06,0.94,0.40,0.12,-0.41,
0.948,-0.04,0.06,0.94,0.40,0.12,-0.41,
0.948,-0.04,0.06,0.94,0.46,0.12,-0.44,
0.951,-0.03,0.07,0.93,0.46,0.12,-0.44,
0.953,-0.03,0.07,0.93,0.46,0.12,-0.44,
0.954,-0.03,0.07,0.93,0.43,0.17,-0.50,
0.956,-0.04,0.06,0.92,0.43,0.17,-0.50,
0.958,-0.05,0.06,0.92,0.43,0.17,-0.50,
0.958,-0.05,0.06,0.92,0.44,0.23,-0.58,
0.961,-0.05,0.07,0.91,0.44,0.23,-0.58,
0.964,-0.05,0.07,0.91,0.44,0.23,-0.58,
0.968,-0.05,0.07,0.91,0.36,0.19,-0.67,
0.968,-0.06,0.07,0.91,0.36,0.19,-0.67,
0.969,-0.06,0.07,0.91,0.36,0.19,-0.67,
0.969,-0.06,0.07,0.91,0.30,0.23,-0.78,
0.97,-0.07,0.07,0.91,0.30,0.23,-0.78,
0.974,-0.08,0.07,0.92,0.30,0.23,-0.78,
0.974,-0.08,0.07,0.92,0.22,0.23,-0.79,
0.975,-0.08,0.07,0.92,0.22,0.23,-0.79,
0.978,-0.07,0.07,0.92,0.22,0.23,-0.79,
0.978,-0.07,0.07,0.92,0.10,0.26,-0.72,
0.98,-0.08,0.07,0.93,0.10,0.26,-0.72,
0.983,-0.08,0.07,0.93,0.10,0.26,-0.72,
0.983,-0.08,0.07,0.93,0.10,0.26,-0.65,
0.985,-0.08,0.07,0.93,0.10,0.26,-0.65,
0.987,-0.09,0.07,0.92,0.10,0.26,-0.65,
0.988,-0.09,0.07,0.92,0.07,0.24,-0.58,
0.99,-0.09,0.07,0.92,0.07,0.24,-0.58,
0.993,-0.09,0.07,0.92,0.07,0.24,-0.58,
0.994,-0.09,0.07,0.92,0.02,0.23,-0.60,
0.996,-0.09,0.07,0.91,0.02,0.23,-0.60,
0.997,-0.09,0.07,0.91,0.02,0.23,-0.60,
0.997,-0.09,0.07,0.91,-0.03,0.21,-0.67,
1.0,-0.09,0.07,0.90,-0.03,0.21,-0.67,
1.002,-0.09,0.07,0.90,-0.03,0.21,-0.67,
1.003,-0.09,0.07,0.90,-0.03,0.19,-0.73,
1.005,-0.09,0.07,0.89,-0.03,0.19,-0.73,
1.007,-0.09,0.07,0.89,-0.03,0.19,-0.73,
1.007,-0.09,0.07,0.89,-0.02,0.16,-0.82,
1.01,-0.09,0.07,0.89,-0.02,0.16,-0.82,
1.016,-0.09,0.07,0.89,-0.02,0.16,-0.82,
1.017,-0.09,0.07,0.89,-0.01,0.15,-0.90,
1.017,-0.10,0.07,0.89,-0.01,0.15,-0.90,
1.018,-0.09,0.07,0.89,-0.01,0.15,-0.90,
1.018,-0.09,0.07,0.89,0.00,0.19,-0.92,
1.02,-0.09,0.07,0.89,0.00,0.19,-0.92,
1.022,-0.08,0.07,0.89,0.00,0.19,-0.92,
1.022,-0.08,0.07,0.89,-0.05,0.21,-0.91,
1.025,-0.07,0.08,0.88,-0.05,0.21,-0.91,
1.027,-0.07,0.08,0.88,-0.05,0.21,-0.91,
1.027,-0.07,0.08,0.88,0.01,0.22,-0.88,
1.03,-0.05,0.08,0.89,0.01,0.22,-0.88,
1.032,-0.05,0.08,0.88,0.01,0.22,-0.88,
1.032,-0.05,0.08,0.88,0.18,0.27,-0.97,
1.035,-0.04,0.08,0.88,0.18,0.27,-0.97,
1.037,-0.03,0.07,0.88,0.18,0.27,-0.97,
1.037,-0.03,0.07,0.88,0.36,0.29,-0.94,
1.039,-0.02,0.07,0.87,0.36,0.29,-0.94,
1.042,-0.01,0.07,0.87,0.36,0.29,-0.94,
1.042,-0.01,0.07,0.87,0.51,0.24,-0.99,
1.044,-0.01,0.07,0.87,0.51,0.24,-0.99,
1.048,-0.00,0.06,0.87,0.51,0.24,-0.99,
1.048,-0.00,0.06,0.87,0.70,0.20,-1.05,
1.049,0.00,0.06,0.87,0.70,0.20,-1.05,
1.052,0.01,0.05,0.87,0.70,0.20,-1.05,
1.052,0.01,0.05,0.87,0.79,0.13,-1.03,
1.054,0.01,0.05,0.87,0.79,0.13,-1.03,
1.058,0.02,0.04,0.87,0.79,0.13,-1.03,
1.058,0.02,0.04,0.87,0.91,0.08,-1.05,
1.059,0.03,0.04,0.87,0.91,0.08,-1.05,
1.063,0.03,0.03,0.87,0.91,0.08,-1.05,
1.064,0.03,0.03,0.87,1.02,-0.03,-1.00,
1.065,0.03,0.03,0.88,1.02,-0.03,-1.00,
1.067,0.03,0.02,0.88,1.02,-0.03,-1.00,
1.068,0.03,0.02,0.88,1.18,-0.11,-1.02,
1.069,0.04,0.02,0.88,1.18,-0.11,-1.02,
1.072,0.04,0.02,0.88,1.18,-0.11,-1.02,
1.072,0.04,0.02,0.88,1.19,-0.21,-0.93,
1.074,0.04,0.02,0.89,1.19,-0.21,-0.93,
1.077,0.04,0.01,0.88,1.19,-0.21,-0.93,
1.077,0.04,0.01,0.88,1.25,-0.26,-0.92,
1.08,0.04,0.01,0.88,1.25,-0.26,-0.92,
1.081,0.04,0.00,0.88,1.25,-0.26,-0.92,
1.082,0.04,0.00,0.88,1.24,-0.29,-0.87,
1.084,0.04,0.00,0.87,1.24,-0.29,-0.87,
1.087,0.03,-0.00,0.86,1.24,-0.29,-0.87,
1.087,0.03,-0.00,0.86,1.32,-0.37,-0.92,
1.089,0.03,-0.01,0.86,1.32,-0.37,-0.92,
1.092,0.02,-0.01,0.85,1.32,-0.37,-0.92,
1.092,0.02,-0.01,0.85,1.27,-0.43,-1.01,
1.094,0.02,-0.01,0.84,1.27,-0.43,-1.01,
1.097,0.02,-0.01,0.83,1.27,-0.43,-1.01,
1.098,0.02,-0.01,0.83,1.17,-0.47,-1.11,
1.099,0.01,-0.01,0.83,1.17,-0.47,-1.11,
1.101,0.01,-0.01,0.82,1.17,-0.47,-1.11,
1.102,0.01,-0.01,0.82,1.15,-0.49,-1.27,
1.104,0.01,-0.01,0.82,1.15,-0.49,-1.27,
1.106,0.01,-0.01,0.81,1.15,-0.49,-1.27,
1.106,0.01,-0.01,0.81,1.06,-0.47,-1.37,
1.109,0.00,-0.01,0.81,1.06,-0.47,-1.37,
1.111,-0.00,-0.01,0.80,1.06,-0.47,-1.37,
1.111,-0.00,-0.01,0.80,1.04,-0.46,-1.46,
1.117,-0.00,-0.00,0.80,1.04,-0.46,-1.46,
1.117,0.00,0.00,0.78,1.04,-0.46,-1.46,
1.118,0.00,0.00,0.78,0.97,-0.43,-1.55,
1.12,0.01,-0.00,0.78,0.97,-0.43,-1.55,
1.121,0.01,0.00,0.79,0.97,-0.43,-1.55,
1.121,0.01,0.00,0.79,0.99,-0.37,-1.67,
1.124,0.02,-0.00,0.78,0.99,-0.37,-1.67,
1.126,0.02,-0.00,0.78,0.99,-0.37,-1.67,
1.126,0.02,-0.00,0.78,1.07,-0.33,-1.72,
1.13,0.03,0.00,0.79,1.07,-0.33,-1.72,
1.131,0.03,0.00,0.79,1.07,-0.33,-1.72,
1.131,0.03,0.00,0.79,1.18,-0.32,-1.72,
1.133,0.04,-0.00,0.79,1.18,-0.32,-1.72,
1.136,0.04,-0.01,0.79,1.18,-0.32,-1.72,
1.136,0.04,-0.01,0.79,1.26,-0.28,-1.66,
1.138,0.05,-0.01,0.80,1.26,-0.28,-1.66,
1.142,0.06,-0.01,0.81,1.26,-0.28,-1.66,
1.143,0.06,-0.01,0.81,1.35,-0.34,-1.63,
1.144,0.07,-0.02,0.82,1.35,-0.34,-1.63,
1.147,0.08,-0.02,0.83,1.35,-0.34,-1.63,
1.147,0.08,-0.02,0.83,1.50,-0.37,-1.47,
1.148,0.08,-0.03,0.83,1.50,-0.37,-1.47,
1.152,0.09,-0.03,0.85,1.50,-0.37,-1.47,
1.153,0.09,-0.03,0.85,1.68,-0.42,-1.28,
1.153,0.08,-0.04,0.85,1.68,-0.42,-1.28,
1.157,0.08,-0.04,0.87,1.68,-0.42,-1.28,
1.157,0.08,-0.04,0.87,1.80,-0.48,-1.11,
1.16,0.08,-0.05,0.88,1.80,-0.48,-1.11,
1.161,0.07,-0.05,0.89,1.80,-0.48,-1.11,
1.162,0.07,-0.05,0.89,1.81,-0.54,-0.88,
1.164,0.06,-0.06,0.89,1.81,-0.54,-0.88,
1.166,0.06,-0.06,0.90,1.81,-0.54,-0.88,
1.166,0.06,-0.06,0.90,1.72,-0.63,-0.63,
1.169,0.06,-0.07,0.92,1.72,-0.63,-0.63,
1.173,0.05,-0.06,0.92,1.72,-0.63,-0.63,
1.174,0.05,-0.06,0.92,1.60,-0.66,-0.52,
1.174,0.05,-0.07,0.93,1.60,-0.66,-0.52,
1.176,0.05,-0.07,0.94,1.60,-0.66,-0.52,
1.176,0.05,-0.07,0.94,1.54,-0.70,-0.31,
1.179,0.05,-0.07,0.94,1.54,-0.70,-0.31,
1.18,0.04,-0.06,0.94,1.54,-0.70,-0.31,
1.181,0.04,-0.06,0.94,1.50,-0.70,-0.19,
1.183,0.04,-0.06,0.94,1.50,-0.70,-0.19,
1.187,0.03,-0.05,0.94,1.50,-0.70,-0.19,
1.187,0.03,-0.05,0.94,1.41,-0.67,-0.10,
1.189,0.02,-0.05,0.94,1.41,-0.67,-0.10,
1.191,0.03,-0.04,0.93,1.41,-0.67,-0.10,
1.191,0.03,-0.04,0.93,1.34,-0.51,-0.10,
1.193,0.03,-0.04,0.93,1.34,-0.51,-0.10,
1.196,0.03,-0.03,0.93,1.34,-0.51,-0.10,
1.196,0.03,-0.03,0.93,1.26,-0.40,-0.18,
1.198,0.03,-0.03,0.92,1.26,-0.40,-0.18,
1.201,0.03,-0.03,0.91,1.26,-0.40,-0.18,
1.202,0.03,-0.03,0.91,1.26,-0.26,-0.20,
1.203,0.03,-0.03,0.91,1.26,-0.26,-0.20,
1.206,0.03,-0.03,0.91,1.26,-0.26,-0.20,
1.206,0.03,-0.03,0.91,1.30,-0.20,-0.33,
1.208,0.04,-0.03,0.91,1.30,-0.20,-0.33,
1.211,0.04,-0.03,0.91,1.30,-0.20,-0.33,
1.211,0.04,-0.03,0.91,1.29,-0.16,-0.40,
1.214,0.05,-0.03,0.91,1.29,-0.16,-0.40,
1.215,0.05,-0.03,0.91,1.29,-0.16,-0.40,
1.216,0.05,-0.03,0.91,1.37,-0.16,-0.42,
1.219,0.06,-0.03,0.92,1.37,-0.16,-0.42,
1.221,0.07,-0.03,0.93,1.37,-0.16,-0.42,
1.221,0.07,-0.03,0.93,1.44,-0.13,-0.40,
1.223,0.08,-0.04,0.93,1.44,-0.13,-0.40,
1.226,0.08,-0.04,0.94,1.44,-0.13,-0.40,
1.226,0.08,-0.04,0.94,1.56,-0.09,-0.27,
1.228,0.08,-0.05,0.95,1.56,-0.09,-0.27,
1.234,0.09,-0.05,0.95,1.56,-0.09,-0.27,
1.234,0.09,-0.05,0.95,1.69,-0.12,-0.14,
1.234,0.09,-0.05,0.96,1.69,-0.12,-0.14,
1.237,0.09,-0.06,0.96,1.69,-0.12,-0.14,
1.237,0.09,-0.06,0.96,1.77,-0.20,-0.03,
1.238,0.10,-0.06,0.96,1.77,-0.20,-0.03,
1.241,0.10,-0.06,0.97,1.77,-0.20,-0.03,
1.241,0.10,-0.06,0.97,1.82,-0.24,0.07,
1.243,0.11,-0.06,0.97,1.82,-0.24,0.07,
1.246,0.11,-0.06,0.98,1.82,-0.24,0.07,
1.246,0.11,-0.06,0.98,1.89,-0.27,0.16,
1.248,0.11,-0.05,0.99,1.89,-0.27,0.16,
1.25,0.11,-0.06,0.99,1.89,-0.27,0.16,
1.25,0.11,-0.06,0.99,1.95,-0.20,0.24,
1.252,0.11,-0.06,1.00,1.95,-0.20,0.24,
1.256,0.10,-0.07,0.99,1.95,-0.20,0.24,
1.256,0.10,-0.07,0.99,1.92,-0.12,0.36,
1.258,0.10,-0.07,1.00,1.92,-0.12,0.36,
1.26,0.09,-0.08,1.00,1.92,-0.12,0.36,
1.261,0.09,-0.08,1.00,1.86,-0.20,0.43,
1.265,0.08,-0.08,1.00,1.86,-0.20,0.43,
1.266,0.08,-0.09,1.01,1.86,-0.20,0.43,
1.266,0.08,-0.09,1.01,1.75,-0.28,0.47,
1.267,0.08,-0.09,1.00,1.75,-0.28,0.47,
1.27,0.08,-0.09,1.00,1.60,-0.34,0.52,
1.27,0.07,-0.09,1.01,1.60,-0.34,0.52,
1.273,0.05,-0.08,1.01,1.60,-0.34,0.52,
1.275,0.05,-0.08,1.01,1.60,-0.34,0.52,
1.275,0.05,-0.08,1.01,1.50,-0.33,0.51,
1.278,0.05,-0.08,1.01,1.50,-0.33,0.51,
1.281,0.05,-0.08,1.01,1.50,-0.33,0.51,
1.282,0.05,-0.08,1.01,1.31,-0.24,0.54,
1.282,0.05,-0.08,1.01,1.31,-0.24,0.54,
1.285,0.04,-0.08,1.01,1.31,-0.24,0.54,
1.285,0.04,-0.08,1.01,1.24,-0.24,0.56,
1.287,0.04,-0.08,1.00,1.24,-0.24,0.56,
1.29,0.03,-0.07,1.00,1.24,-0.24,0.56,
1.29,0.03,-0.07,1.00,1.22,-0.16,0.55,
1.293,0.01,-0.07,1.00,1.22,-0.16,0.55,
1.294,0.01,-0.07,1.00,1.22,-0.16,0.55,
1.294,0.01,-0.07,1.00,1.07,-0.09,0.50,
1.297,0.00,-0.07,1.00,1.07,-0.09,0.50,
1.299,-0.01,-0.06,0.99,1.07,-0.09,0.50,
1.299,-0.01,-0.06,0.99,0.85,-0.02,0.48,
1.302,-0.01,-0.06,0.99,0.85,-0.02,0.48,
1.304,-0.02,-0.06,0.98,0.85,-0.02,0.48,
1.304,-0.02,-0.06,0.98,0.69,0.02,0.43,
1.307,-0.03,-0.05,0.98,0.69,0.02,0.43,
1.309,-0.05,-0.05,0.98,0.69,0.02,0.43,
1.309,-0.05,-0.05,0.98,0.54,0.13,0.32,
1.312,-0.06,-0.04,0.98,0.54,0.13,0.32,
1.315,-0.07,-0.04,0.98,0.54,0.13,0.32,
1.317,-0.07,-0.04,0.98,0.33,0.20,0.27,
1.317,-0.07,-0.04,0.98,0.33,0.20,0.27,
1.32,-0.08,-0.04,0.97,0.33,0.20,0.27,
1.32,-0.08,-0.04,0.97,0.09,0.31,0.25,
1.321,-0.08,-0.04,0.97,0.09,0.31,0.25,
1.324,-0.08,-0.04,0.97,0.09,0.31,0.25,
1.324,-0.08,-0.04,0.97,-0.04,0.39,0.21,
1.326,-0.08,-0.04,0.96,-0.04,0.39,0.21,
1.334,-0.09,-0.03,0.95,-0.04,0.39,0.21,
1.335,-0.09,-0.03,0.95,-0.07,0.38,0.15,
1.335,-0.09,-0.03,0.95,-0.07,0.38,0.15,
1.336,-0.09,-0.04,0.94,-0.07,0.38,0.15,
1.336,-0.09,-0.04,0.94,-0.11,0.43,0.05,
1.336,-0.09,-0.05,0.94,-0.11,0.43,0.05,
1.339,-0.09,-0.05,0.93,-0.11,0.43,0.05,
1.34,-0.09,-0.05,0.93,-0.11,0.41,-0.09,
1.342,-0.10,-0.05,0.92,-0.11,0.41,-0.09,
1.345,-0.11,-0.05,0.92,-0.11,0.41,-0.09,
1.346,-0.11,-0.05,0.92,-0.16,0.33,-0.20,
1.347,-0.11,-0.06,0.91,-0.16,0.33,-0.20,
1.349,-0.11,-0.06,0.91,-0.16,0.33,-0.20,
1.349,-0.11,-0.06,0.91,-0.27,0.32,-0.31,
1.351,-0.11,-0.05,0.91,-0.27,0.32,-0.31,
1.354,-0.12,-0.05,0.90,-0.27,0.32,-0.31,
1.354,-0.12,-0.05,0.90,-0.35,0.30,-0.40,
1.356,-0.13,-0.05,0.91,-0.35,0.30,-0.40,
1.359,-0.14,-0.04,0.92,-0.35,0.30,-0.40,
1.359,-0.14,-0.04,0.92,-0.42,0.36,-0.45,
1.361,-0.15,-0.04,0.92,-0.42,0.36,-0.45,
1.364,-0.16,-0.05,0.93,-0.42,0.36,-0.45,
1.365,-0.16,-0.05,0.93,-0.57,0.42,-0.35,
1.366,-0.16,-0.05,0.94,-0.57,0.42,-0.35,
1.369,-0.16,-0.05,0.94,-0.57,0.42,-0.35,
1.369,-0.16,-0.05,0.94,-0.80,0.45,-0.21,
1.371,-0.16,-0.05,0.94,-0.80,0.45,-0.21,
1.373,-0.16,-0.06,0.94,-0.80,0.45,-0.21,
1.374,-0.16,-0.06,0.94,-0.90,0.44,-0.11,
1.376,-0.15,-0.05,0.95,-0.90,0.44,-0.11,
1.378,-0.15,-0.05,0.95,-0.90,0.44,-0.11,
1.378,-0.15,-0.05,0.95,-0.91,0.43,-0.07,
1.381,-0.15,-0.05,0.95,-0.91,0.43,-0.07,
1.385,-0.16,-0.05,0.95,-0.91,0.43,-0.07,
1.385,-0.16,-0.05,0.95,-0.82,0.51,0.01,
1.386,-0.16,-0.06,0.96,-0.82,0.51,0.01,
1.388,-0.16,-0.06,0.96,-0.90,0.50,0.04,
1.389,-0.15,-0.06,0.96,-0.90,0.50,0.04,
1.391,-0.15,-0.07,0.96,-0.90,0.50,0.04,
1.394,-0.14,-0.08,0.95,-0.90,0.50,0.04,
1.394,-0.14,-0.08,0.95,-0.91,0.43,0.10,
1.397,-0.13,-0.08,0.94,-0.91,0.43,0.10,
1.4,-0.12,-0.09,0.92,-0.91,0.43,0.10,
1.4,-0.12,-0.09,0.92,-0.85,0.30,0.06,
1.401,-0.12,-0.09,0.91,-0.85,0.30,0.06,
1.403,-0.11,-0.09,0.90,-0.85,0.30,0.06,
1.403,-0.11,-0.09,0.90,-0.67,0.25,-0.20,
1.406,-0.11,-0.09,0.88,-0.67,0.25,-0.20,
1.408,-0.12,-0.09,0.87,-0.67,0.25,-0.20,
1.408,-0.12,-0.09,0.87,-0.58,0.19,-0.43,
1.411,-0.12,-0.09,0.86,-0.58,0.19,-0.43,
1.414,-0.13,-0.08,0.84,-0.58,0.19,-0.43,
1.415,-0.13,-0.08,0.84,-0.60,0.23,-0.70,
1.416,-0.13,-0.09,0.83,-0.60,0.23,-0.70,
1.418,-0.14,-0.09,0.82,-0.60,0.23,-0.70,
1.419,-0.14,-0.09,0.82,-0.71,0.25,-0.96,
1.42,-0.15,-0.10,0.81,-0.71,0.25,-0.96,
1.423,-0.15,-0.10,0.81,-0.85,0.20,-1.22,
1.423,-0.17,-0.09,0.80,-0.85,0.20,-1.22,
1.425,-0.19,-0.09,0.80,-0.85,0.20,-1.22,
1.428,-0.20,-0.09,0.79,-0.85,0.20,-1.22,
1.428,-0.20,-0.09,0.79,-1.06,0.19,-1.41,
1.431,-0.22,-0.08,0.79,-1.06,0.19,-1.41,
1.434,-0.24,-0.08,0.80,-1.06,0.19,-1.41,
1.434,-0.24,-0.08,0.80,-1.37,0.24,-1.51,
1.435,-0.26,-0.07,0.80,-1.37,0.24,-1.51,
1.438,-0.27,-0.07,0.81,-1.37,0.24,-1.51,
1.438,-0.27,-0.07,0.81,-1.75,0.37,-1.48,
1.44,-0.27,-0.06,0.83,-1.75,0.37,-1.48,
1.443,-0.28,-0.06,0.83,-1.75,0.37,-1.48,
1.443,-0.28,-0.06,0.83,-2.01,0.50,-1.37,
1.445,-0.28,-0.06,0.84,-2.01,0.50,-1.37,
1.453,-0.28,-0.05,0.85,-2.01,0.50,-1.37,
1.454,-0.28,-0.05,0.85,-2.13,0.61,-1.11,
1.454,-0.28,-0.05,0.87,-2.13,0.61,-1.11,
1.454,-0.29,-0.05,0.89,-2.13,0.61,-1.11,
1.454,-0.29,-0.05,0.89,-2.16,0.70,-0.96,
1.455,-0.29,-0.06,0.91,-2.16,0.70,-0.96,
1.458,-0.29,-0.07,0.92,-2.16,0.70,-0.96,
1.458,-0.29,-0.07,0.92,-2.19,0.73,-0.65,
1.461,-0.29,-0.08,0.94,-2.19,0.73,-0.65,
1.465,-0.28,-0.09,0.95,-2.19,0.73,-0.65,
1.465,-0.28,-0.09,0.95,-2.20,0.65,-0.26,
1.465,-0.29,-0.11,0.96,-2.20,0.65,-0.26,
1.468,-0.28,-0.13,0.98,-2.20,0.65,-0.26,
1.468,-0.28,-0.13,0.98,-2.15,0.48,0.01,
1.47,-0.27,-0.14,0.98,-2.15,0.48,0.01,
1.473,-0.27,-0.16,0.99,-2.15,0.48,0.01,
1.473,-0.27,-0.16,0.99,-2.12,0.21,0.26,
1.475,-0.27,-0.18,1.01,-2.12,0.21,0.26,
1.478,-0.27,-0.19,1.02,-2.12,0.21,0.26,
1.479,-0.27,-0.19,1.02,-1.99,-0.09,0.47,
1.483,-0.27,-0.20,1.03,-1.99,-0.09,0.47,
1.483,-0.28,-0.21,1.05,-1.99,-0.09,0.47,
1.483,-0.28,-0.21,1.05,-2.00,-0.35,0.70,
1.486,-0.29,-0.23,1.07,-2.00,-0.35,0.70,
1.487,-0.30,-0.24,1.07,-2.00,-0.35,0.70,
1.487,-0.30,-0.24,1.07,-2.08,-0.56,0.98,
1.49,-0.30,-0.25,1.08,-2.08,-0.56,0.98,
1.493,-0.30,-0.25,1.10,-2.08,-0.56,0.98,
1.493,-0.30,-0.25,1.10,-2.24,-0.77,1.28,
1.496,-0.29,-0.26,1.10,-2.24,-0.77,1.28,
1.498,-0.29,-0.27,1.11,-2.24,-0.77,1.28,
1.498,-0.29,-0.27,1.11,-2.27,-0.92,1.45,
1.5,-0.28,-0.27,1.12,-2.27,-0.92,1.45,
1.502,-0.27,-0.27,1.12,-2.27,-0.92,1.45,
1.503,-0.27,-0.27,1.12,-2.18,-1.04,1.63,
1.505,-0.26,-0.27,1.12,-2.18,-1.04,1.63,
1.507,-0.26,-0.27,1.12,-2.18,-1.04,1.63,
1.507,-0.26,-0.27,1.12,-2.00,-1.03,1.76,
1.51,-0.26,-0.27,1.13,-2.00,-1.03,1.76,
1.513,-0.26,-0.28,1.12,-2.00,-1.03,1.76,
1.513,-0.26,-0.28,1.12,-1.89,-1.01,1.80,
1.515,-0.26,-0.27,1.11,-1.89,-1.01,1.80,
1.517,-0.26,-0.27,1.11,-1.87,-1.04,1.82,
1.517,-0.26,-0.27,1.11,-1.87,-1.04,1.82,
1.52,-0.25,-0.27,1.11,-1.87,-1.04,1.82,
1.523,-0.26,-0.27,1.10,-1.87,-1.04,1.82,
1.523,-0.26,-0.27,1.10,-1.86,-1.00,1.71,
1.525,-0.26,-0.26,1.10,-1.86,-1.00,1.71,
1.528,-0.26,-0.26,1.10,-1.86,-1.00,1.71,
1.528,-0.26,-0.26,1.10,-1.76,-0.92,1.63,
1.53,-0.27,-0.26,1.09,-1.76,-0.92,1.63,
1.532,-0.28,-0.26,1.09,-1.76,-0.92,1.63,
1.533,-0.28,-0.26,1.09,-1.82,-0.84,1.55,
1.535,-0.28,-0.25,1.09,-1.82,-0.84,1.55,
1.537,-0.28,-0.25,1.09,-1.82,-0.84,1.55,
1.538,-0.28,-0.25,1.09,-1.93,-0.78,1.47,
1.54,-0.29,-0.25,1.08,-1.93,-0.78,1.47,
1.543,-0.29,-0.24,1.08,-1.93,-0.78,1.47,
1.543,-0.29,-0.24,1.08,-1.97,-0.66,1.45,
1.545,-0.28,-0.24,1.08,-1.97,-0.66,1.45,
1.552,-0.28,-0.23,1.08,-1.97,-0.66,1.45,
1.552,-0.28,-0.23,1.08,-2.00,-0.61,1.42,
1.553,-0.27,-0.23,1.08,-2.00,-0.61,1.42,
1.553,-0.27,-0.24,1.09,-2.00,-0.61,1.42,
1.553,-0.27,-0.24,1.09,-1.90,-0.47,1.38,
1.554,-0.27,-0.24,1.09,-1.90,-0.47,1.38,
1.557,-0.27,-0.25,1.11,-1.90,-0.47,1.38,
1.557,-0.27,-0.25,1.11,-1.82,-0.45,1.44,
1.559,-0.28,-0.26,1.12,-1.82,-0.45,1.44,
1.562,-0.27,-0.26,1.14,-1.82,-0.45,1.44,
1.563,-0.27,-0.26,1.14,-1.84,-0.50,1.62,
1.565,-0.27,-0.27,1.17,-1.84,-0.50,1.62,
1.567,-0.27,-0.28,1.18,-1.84,-0.50,1.62,
1.567,-0.27,-0.28,1.18,-1.88,-0.59,1.90,
1.57,-0.27,-0.29,1.20,-1.88,-0.59,1.90,
1.572,-0.27,-0.30,1.22,-1.88,-0.59,1.90,
1.573,-0.27,-0.30,1.22,-1.86,-0.68,2.36,
1.575,-0.27,-0.30,1.24,-1.86,-0.68,2.36,
1.577,-0.26,-0.32,1.26,-1.86,-0.68,2.36,
1.577,-0.26,-0.32,1.26,-1.82,-0.86,2.69,
1.58,-0.26,-0.33,1.29,-1.82,-0.86,2.69,
1.582,-0.26,-0.34,1.30,-1.82,-0.86,2.69,
1.582,-0.26,-0.34,1.30,-1.79,-0.99,3.10,
1.584,-0.26,-0.35,1.31,-1.79,-0.99,3.10,
1.587,-0.27,-0.36,1.33,-1.79,-0.99,3.10,
1.587,-0.27,-0.36,1.33,-1.79,-1.21,3.51,
1.589,-0.26,-0.37,1.34,-1.79,-1.21,3.51,
1.592,-0.26,-0.38,1.35,-1.79,-1.21,3.51,
1.592,-0.26,-0.38,1.35,-1.80,-1.36,3.79,
1.595,-0.25,-0.38,1.35,-1.80,-1.36,3.79,
1.597,-0.25,-0.39,1.36,-1.80,-1.36,3.79,
1.597,-0.25,-0.39,1.36,-1.77,-1.47,3.97,
1.6,-0.25,-0.39,1.37,-1.77,-1.47,3.97,
1.602,-0.25,-0.39,1.36,-1.77,-1.47,3.97,
1.602,-0.25,-0.39,1.36,-1.67,-1.55,4.12,
1.604,-0.25,-0.39,1.36,-1.67,-1.55,4.12,
1.607,-0.25,-0.38,1.35,-1.67,-1.55,4.12,
1.607,-0.25,-0.38,1.35,-1.71,-1.61,4.15,
1.609,-0.25,-0.38,1.34,-1.71,-1.61,4.15,
1.612,-0.25,-0.37,1.33,-1.71,-1.61,4.15,
1.612,-0.25,-0.37,1.33,-1.74,-1.52,4.05,
1.615,-0.24,-0.36,1.31,-1.74,-1.52,4.05,
1.616,-0.23,-0.35,1.30,-1.74,-1.52,4.05,
1.617,-0.23,-0.35,1.30,-1.71,-1.35,3.86,
1.619,-0.22,-0.34,1.27,-1.71,-1.35,3.86,
1.622,-0.20,-0.33,1.26,-1.71,-1.35,3.86,
1.622,-0.20,-0.33,1.26,-1.52,-1.15,3.56,
1.623,-0.19,-0.32,1.23,-1.52,-1.15,3.56,
1.626,-0.18,-0.31,1.22,-1.52,-1.15,3.56,
1.626,-0.18,-0.31,1.22,-1.32,-0.96,3.19,
1.628,-0.18,-0.31,1.20,-1.32,-0.96,3.19,
1.632,-0.17,-0.31,1.19,-1.32,-0.96,3.19,
1.632,-0.17,-0.31,1.19,-1.08,-0.77,2.80,
1.633,-0.17,-0.31,1.18,-1.08,-0.77,2.80,
1.636,-0.17,-0.31,1.17,-1.08,-0.77,2.80,
1.636,-0.17,-0.31,1.17,-0.97,-0.71,2.53,
1.638,-0.16,-0.31,1.16,-0.97,-0.71,2.53,
1.641,-0.15,-0.31,1.16,-0.97,-0.71,2.53,
1.641,-0.15,-0.31,1.16,-0.90,-0.70,2.29,
1.643,-0.15,-0.31,1.16,-0.90,-0.70,2.29,
1.646,-0.14,-0.31,1.15,-0.90,-0.70,2.29,
1.646,-0.14,-0.31,1.15,-0.78,-0.69,2.10,
1.652,-0.14,-0.31,1.16,-0.78,-0.69,2.10,
1.653,-0.15,-0.31,1.17,-0.78,-0.69,2.10,
1.653,-0.15,-0.31,1.17,-0.67,-0.66,2.08,
1.653,-0.15,-0.32,1.19,-0.67,-0.66,2.08,
1.656,-0.16,-0.32,1.19,-0.67,-0.66,2.08,
1.656,-0.16,-0.32,1.19,-0.67,-0.64,2.20,
1.658,-0.17,-0.32,1.21,-0.67,-0.64,2.20,
1.66,-0.18,-0.32,1.21,-0.67,-0.64,2.20,
1.661,-0.18,-0.32,1.21,-0.83,-0.70,2.42,
1.663,-0.18,-0.32,1.21,-0.83,-0.70,2.42,
1.666,-0.18,-0.32,1.23,-0.83,-0.70,2.42,
1.666,-0.18,-0.32,1.23,-0.97,-0.70,2.60,
1.668,-0.18,-0.32,1.23,-0.97,-0.70,2.60,
1.67,-0.19,-0.32,1.22,-0.97,-0.70,2.60,
1.671,-0.19,-0.32,1.22,-1.01,-0.69,2.70,
1.673,-0.20,-0.32,1.22,-1.01,-0.69,2.70,
1.675,-0.21,-0.32,1.21,-1.01,-0.69,2.70,
1.676,-0.21,-0.32,1.21,-1.08,-0.71,2.75,
1.678,-0.22,-0.31,1.21,-1.08,-0.71,2.75,
1.684,-0.23,-0.31,1.19,-1.08,-0.71,2.75,
1.684,-0.23,-0.31,1.19,-1.25,-0.67,2.67,
1.684,-0.23,-0.30,1.18,-1.25,-0.67,2.67,
1.686,-0.24,-0.30,1.17,-1.25,-0.67,2.67,
1.686,-0.24,-0.30,1.17,-1.47,-0.61,2.49,
1.688,-0.24,-0.30,1.16,-1.47,-0.61,2.49,
1.69,-0.23,-0.29,1.14,-1.47,-0.61,2.49,
1.69,-0.23,-0.29,1.14,-1.54,-0.51,2.28,
1.693,-0.22,-0.28,1.13,-1.54,-0.51,2.28,
1.696,-0.21,-0.27,1.12,-1.54,-0.51,2.28,
1.696,-0.21,-0.27,1.12,-1.53,-0.42,2.00,
1.698,-0.20,-0.27,1.10,-1.53,-0.42,2.00,
1.701,-0.19,-0.26,1.09,-1.53,-0.42,2.00,
1.701,-0.19,-0.26,1.09,-1.37,-0.30,1.72,
1.703,-0.19,-0.26,1.07,-1.37,-0.30,1.72,
1.705,-0.18,-0.27,1.06,-1.37,-0.30,1.72,
1.706,-0.18,-0.27,1.06,-1.18,-0.21,1.42,
1.708,-0.17,-0.26,1.04,-1.18,-0.21,1.42,
1.71,-0.16,-0.26,1.04,-1.18,-0.21,1.42,
1.71,-0.16,-0.26,1.04,-1.04,-0.20,1.15,
1.713,-0.15,-0.26,1.03,-1.04,-0.20,1.15,
1.716,-0.13,-0.25,1.02,-1.04,-0.20,1.15,
1.716,-0.13,-0.25,1.02,-0.85,-0.14,0.92,
1.717,-0.12,-0.24,1.01,-0.85,-0.14,0.92,
1.72,-0.10,-0.23,1.00,-0.85,-0.14,0.92,
1.72,-0.10,-0.23,1.00,-0.60,-0.08,0.78,
1.722,-0.10,-0.23,0.99,-0.60,-0.08,0.78,
1.725,-0.10,-0.23,0.99,-0.31,0.07,0.53,
1.725,-0.09,-0.22,0.99,-0.31,0.07,0.53,
1.727,-0.09,-0.22,0.99,-0.31,0.07,0.53,
1.73,-0.09,-0.22,0.98,-0.31,0.07,0.53,
1.73,-0.09,-0.22,0.98,-0.18,0.19,0.44,
1.733,-0.09,-0.21,0.97,-0.18,0.19,0.44,
1.735,-0.08,-0.21,0.98,-0.18,0.19,0.44,
1.735,-0.08,-0.21,0.98,-0.10,0.26,0.35,
1.737,-0.09,-0.21,0.98,-0.10,0.26,0.35,
1.74,-0.09,-0.20,0.97,-0.10,0.26,0.35,
1.74,-0.09,-0.20,0.97,-0.10,0.31,0.27,
1.742,-0.09,-0.20,0.97,-0.10,0.31,0.27,
1.745,-0.09,-0.20,0.97,-0.10,0.31,0.27,
1.745,-0.09,-0.20,0.97,-0.15,0.37,0.24,
1.754,-0.09,-0.19,0.97,-0.15,0.37,0.24,
1.754,-0.10,-0.20,0.96,-0.15,0.37,0.24,
1.755,-0.10,-0.20,0.96,-0.19,0.44,0.23,
1.755,-0.10,-0.19,0.96,-0.19,0.44,0.23,
1.755,-0.11,-0.19,0.96,-0.19,0.44,0.23,
1.756,-0.11,-0.19,0.96,-0.23,0.46,0.13,
1.757,-0.12,-0.19,0.95,-0.23,0.46,0.13,
1.76,-0.12,-0.19,0.96,-0.23,0.46,0.13,
1.76,-0.12,-0.19,0.96,-0.36,0.49,0.12,
1.762,-0.12,-0.19,0.96,-0.36,0.49,0.12,
1.766,-0.13,-0.19,0.96,-0.36,0.49,0.12,
1.766,-0.13,-0.19,0.96,-0.47,0.51,0.07,
1.767,-0.13,-0.19,0.97,-0.47,0.51,0.07,
1.77,-0.13,-0.19,0.97,-0.47,0.51,0.07,
1.77,-0.13,-0.19,0.97,-0.56,0.53,0.07,
1.773,-0.14,-0.19,0.97,-0.56,0.53,0.07,
1.775,-0.15,-0.19,0.98,-0.56,0.53,0.07,
1.775,-0.15,-0.19,0.98,-0.58,0.54,0.16,
1.778,-0.15,-0.20,0.99,-0.58,0.54,0.16,
1.78,-0.16,-0.20,0.99,-0.58,0.54,0.16,
1.78,-0.16,-0.20,0.99,-0.68,0.48,0.28,
1.783,-0.15,-0.21,1.00,-0.68,0.48,0.28,
1.784,-0.15,-0.21,1.01,-0.68,0.48,0.28,
1.785,-0.15,-0.21,1.01,-0.81,0.42,0.41,
1.787,-0.14,-0.21,1.01,-0.81,0.42,0.41,
1.79,-0.13,-0.22,1.02,-0.81,0.42,0.41,
1.79,-0.13,-0.22,1.02,-0.74,0.27,0.54,
1.792,-0.12,-0.22,1.03,-0.74,0.27,0.54,
1.795,-0.10,-0.22,1.03,-0.74,0.27,0.54,
1.795,-0.10,-0.22,1.03,-0.56,0.22,0.64,
1.797,-0.08,-0.21,1.04,-0.56,0.22,0.64,
1.799,-0.07,-0.22,1.04,-0.56,0.22,0.64,
1.8,-0.07,-0.22,1.04,-0.32,0.23,0.76,
1.802,-0.06,-0.22,1.05,-0.32,0.23,0.76,
1.805,-0.04,-0.22,1.06,-0.32,0.23,0.76,
1.805,-0.04,-0.22,1.06,0.04,0.26,0.85,
1.807,-0.03,-0.22,1.06,0.04,0.26,0.85,
1.81,-0.03,-0.22,1.07,0.04,0.26,0.85,
1.812,-0.03,-0.22,1.07,0.28,0.22,0.99,
1.813,-0.03,-0.23,1.07,0.28,0.22,0.99,
1.816,-0.02,-0.23,1.08,0.28,0.22,0.99,
1.816,-0.02,-0.23,1.08,0.46,0.18,1.12,
1.817,-0.02,-0.23,1.09,0.46,0.18,1.12,
1.819,-0.02,-0.23,1.09,0.46,0.18,1.12,
1.819,-0.02,-0.23,1.09,0.54,0.12,1.25,
1.822,-0.01,-0.24,1.09,0.54,0.12,1.25,
1.825,-0.01,-0.24,1.10,0.54,0.12,1.25,
1.825,-0.01,-0.24,1.10,0.56,0.10,1.36,
1.827,-0.01,-0.24,1.11,0.56,0.10,1.36,
1.83,-0.00,-0.24,1.11,0.56,0.10,1.36,
1.83,-0.00,-0.24,1.11,0.67,0.06,1.43,
1.833,0.00,-0.24,1.12,0.67,0.06,1.43,
1.834,-0.00,-0.25,1.12,0.67,0.06,1.43,
1.834,-0.00,-0.25,1.12,0.72,0.07,1.56,
1.837,0.00,-0.25,1.13,0.72,0.07,1.56,
1.839,-0.00,-0.25,1.14,0.72,0.07,1.56,
1.84,-0.00,-0.25,1.14,0.76,-0.00,1.67,
1.842,-0.00,-0.26,1.14,0.76,-0.00,1.67,
1.845,-0.00,-0.26,1.15,0.76,-0.00,1.67,
1.845,-0.00,-0.26,1.15,0.76,-0.07,1.76,
1.847,0.00,-0.26,1.16,0.76,-0.07,1.76,
1.849,0.01,-0.26,1.17,0.76,-0.07,1.76,
1.849,0.01,-0.26,1.17,0.73,-0.13,1.91,
1.851,0.01,-0.26,1.18,0.73,-0.13,1.91,
1.854,0.03,-0.26,1.19,0.73,-0.13,1.91,
1.855,0.03,-0.26,1.19,0.80,-0.14,2.10,
1.857,0.04,-0.26,1.21,0.80,-0.14,2.10,
1.859,0.05,-0.25,1.22,0.80,-0.14,2.10,
1.86,0.05,-0.25,1.22,0.94,-0.10,2.30,
1.862,0.05,-0.25,1.23,0.94,-0.10,2.30,
1.864,0.06,-0.25,1.23,0.94,-0.10,2.30,
1.865,0.06,-0.25,1.23,1.15,-0.07,2.55,
1.866,0.07,-0.25,1.25,1.15,-0.07,2.55,
1.869,0.07,-0.25,1.26,1.15,-0.07,2.55,
1.869,0.07,-0.25,1.26,1.31,-0.04,2.72,
1.871,0.08,-0.25,1.27,1.31,-0.04,2.72,
1.873,0.08,-0.25,1.28,1.31,-0.04,2.72,
1.874,0.08,-0.25,1.28,1.41,-0.05,2.92,
1.876,0.08,-0.25,1.29,1.41,-0.05,2.92,
1.878,0.08,-0.25,1.30,1.41,-0.05,2.92,
1.878,0.08,-0.25,1.30,1.51,-0.04,3.12,
1.886,0.08,-0.25,1.31,1.51,-0.04,3.12,
1.886,0.08,-0.25,1.31,1.51,-0.04,3.12,
1.886,0.08,-0.25,1.31,1.50,0.00,3.32,
1.887,0.07,-0.24,1.32,1.50,0.00,3.32,
1.888,0.08,-0.25,1.32,1.50,0.00,3.32,
1.888,0.08,-0.25,1.32,1.50,-0.00,3.45,
1.891,0.07,-0.26,1.32,1.50,-0.00,3.45,
1.893,0.07,-0.26,1.33,1.50,-0.00,3.45,
1.893,0.07,-0.26,1.33,1.45,-0.01,3.56,
1.896,0.07,-0.26,1.34,1.45,-0.01,3.56,
1.9,0.08,-0.27,1.34,1.45,-0.01,3.56,
1.9,0.08,-0.27,1.34,1.44,-0.10,3.63,
1.901,0.08,-0.28,1.35,1.44,-0.10,3.63,
1.903,0.08,-0.28,1.35,1.44,-0.10,3.63,
1.903,0.08,-0.28,1.35,1.45,-0.21,3.75,
1.906,0.08,-0.28,1.34,1.45,-0.21,3.75,
1.908,0.09,-0.28,1.34,1.45,-0.21,3.75,
1.908,0.09,-0.28,1.34,1.49,-0.32,3.80,
1.911,0.10,-0.28,1.34,1.49,-0.32,3.80,
1.913,0.09,-0.27,1.33,1.49,-0.32,3.80,
1.913,0.09,-0.27,1.33,1.53,-0.36,3.73,
1.916,0.10,-0.27,1.32,1.53,-0.36,3.73,
1.918,0.11,-0.26,1.33,1.53,-0.36,3.73,
1.918,0.11,-0.26,1.33,1.59,-0.28,3.65,
1.92,0.11,-0.25,1.32,1.59,-0.28,3.65,
1.923,0.12,-0.24,1.31,1.59,-0.28,3.65,
1.923,0.12,-0.24,1.31,1.65,-0.21,3.56,
1.925,0.13,-0.23,1.30,1.65,-0.21,3.56,
1.928,0.13,-0.22,1.30,1.65,-0.21,3.56,
1.928,0.13,-0.22,1.30,1.78,-0.05,3.45,
1.93,0.12,-0.22,1.30,1.78,-0.05,3.45,
1.933,0.12,-0.21,1.29,1.78,-0.05,3.45,
1.934,0.12,-0.21,1.29,1.86,0.12,3.32,
1.935,0.12,-0.21,1.29,1.86,0.12,3.32,
1.938,0.12,-0.21,1.29,1.86,0.12,3.32,
1.938,0.12,-0.21,1.29,1.82,0.25,3.23,
1.94,0.12,-0.21,1.29,1.82,0.25,3.23,
1.943,0.12,-0.21,1.29,1.82,0.25,3.23,
1.943,0.12,-0.21,1.29,1.76,0.32,3.17,
1.945,0.13,-0.21,1.29,1.76,0.32,3.17,
1.949,0.13,-0.20,1.29,1.76,0.32,3.17,
1.95,0.13,-0.20,1.29,1.76,0.32,3.15,
1.951,0.13,-0.21,1.29,1.76,0.32,3.15,
1.953,0.13,-0.21,1.29,1.76,0.32,3.15,
1.953,0.13,-0.21,1.29,1.81,0.33,3.20,
1.955,0.13,-0.22,1.29,1.81,0.33,3.20,
1.957,0.12,-0.22,1.29,1.81,0.33,3.20,
1.958,0.12,-0.22,1.29,1.79,0.27,3.15,
1.96,0.12,-0.24,1.30,1.79,0.27,3.15,
1.963,0.12,-0.25,1.31,1.79,0.27,3.15,
1.963,0.12,-0.25,1.31,1.72,0.17,3.19,
1.966,0.12,-0.25,1.31,1.72,0.17,3.19,
1.967,0.12,-0.26,1.33,1.72,0.17,3.19,
1.968,0.12,-0.26,1.33,1.67,-0.07,3.27,
1.97,0.12,-0.27,1.34,1.67,-0.07,3.27,
1.972,0.12,-0.27,1.34,1.68,-0.21,3.45,
1.973,0.12,-0.27,1.35,1.68,-0.21,3.45,
1.975,0.11,-0.27,1.35,1.68,-0.21,3.45,
1.977,0.11,-0.27,1.35,1.68,-0.21,3.45,
1.978,0.11,-0.27,1.35,1.63,-0.34,3.64,
1.98,0.10,-0.28,1.35,1.63,-0.34,3.64,
1.986,0.10,-0.28,1.34,1.63,-0.34,3.64,
1.987,0.10,-0.28,1.34,1.54,-0.37,3.72,
1.987,0.10,-0.27,1.34,1.54,-0.37,3.72,
1.987,0.11,-0.27,1.35,1.54,-0.37,3.72,
1.989,0.11,-0.27,1.35,1.46,-0.40,3.66,
1.99,0.11,-0.26,1.34,1.46,-0.40,3.66,
1.992,0.11,-0.26,1.34,1.46,-0.40,3.66,
1.992,0.11,-0.26,1.34,1.49,-0.37,3.60,
1.995,0.11,-0.26,1.35,1.49,-0.37,3.60,
1.997,0.10,-0.25,1.35,1.49,-0.37,3.60,
1.999,0.10,-0.25,1.35,1.53,-0.28,3.60,
2.0,0.09,-0.24,1.35,1.53,-0.28,3.60,
2.002,0.09,-0.24,1.36,1.53,-0.28,3.60,
2.003,0.09,-0.24,1.36,1.48,-0.21,3.68,
2.005,0.08,-0.24,1.36,1.48,-0.21,3.68,
2.007,0.07,-0.24,1.36,1.48,-0.21,3.68,
2.007,0.07,-0.24,1.36,1.34,-0.13,3.70,
2.009,0.06,-0.24,1.38,1.34,-0.13,3.70,
2.012,0.06,-0.23,1.38,1.34,-0.13,3.70,
2.012,0.06,-0.23,1.38,1.17,-0.12,3.77,
2.016,0.05,-0.23,1.39,1.17,-0.12,3.77,
2.018,0.04,-0.22,1.40,1.17,-0.12,3.77,
2.018,0.04,-0.22,1.40,1.03,-0.05,3.92,
2.019,0.03,-0.21,1.40,1.03,-0.05,3.92,
2.022,0.01,-0.21,1.40,1.03,-0.05,3.92,
2.022,0.01,-0.21,1.40,0.88,0.03,4.03,
2.024,-0.01,-0.20,1.41,0.88,0.03,4.03,
2.027,-0.04,-0.20,1.42,0.88,0.03,4.03,
2.027,-0.04,-0.20,1.42,0.61,0.14,4.08,
2.029,-0.05,-0.19,1.41,0.61,0.14,4.08,
2.033,-0.07,-0.19,1.42,0.61,0.14,4.08,
2.033,-0.07,-0.19,1.42,0.20,0.22,4.22,
2.034,-0.09,-0.19,1.42,0.20,0.22,4.22,
2.037,-0.09,-0.19,1.42,0.20,0.22,4.22,
2.037,-0.09,-0.19,1.42,-0.18,0.24,4.24,
2.039,-0.10,-0.18,1.42,-0.18,0.24,4.24,
2.042,-0.12,-0.19,1.42,-0.18,0.24,4.24,
2.042,-0.12,-0.19,1.42,-0.44,0.24,4.27,
2.044,-0.12,-0.19,1.40,-0.44,0.24,4.27,
2.047,-0.14,-0.18,1.38,-0.44,0.24,4.27,
2.047,-0.14,-0.18,1.38,-0.61,0.25,4.24,
2.05,-0.16,-0.17,1.37,-0.61,0.25,4.24,
2.051,-0.18,-0.18,1.36,-0.61,0.25,4.24,
2.052,-0.18,-0.18,1.36,-0.81,0.21,3.93,
2.054,-0.20,-0.18,1.34,-0.81,0.21,3.93,
2.057,-0.22,-0.18,1.32,-0.81,0.21,3.93,
2.057,-0.22,-0.18,1.32,-1.16,0.22,3.66,
2.059,-0.24,-0.18,1.31,-1.16,0.22,3.66,
2.061,-0.26,-0.18,1.29,-1.16,0.22,3.66,
2.062,-0.26,-0.18,1.29,-1.55,0.13,3.28,
2.064,-0.28,-0.17,1.27,-1.55,0.13,3.28,
2.067,-0.30,-0.17,1.25,-1.55,0.13,3.28,
2.067,-0.30,-0.17,1.25,-1.93,0.09,3.00,
2.069,-0.31,-0.16,1.23,-1.93,0.09,3.00,
2.071,-0.31,-0.16,1.20,-1.93,0.09,3.00,
2.072,-0.31,-0.16,1.20,-2.25,0.13,2.57,
2.074,-0.32,-0.16,1.18,-2.25,0.13,2.57,
2.076,-0.32,-0.15,1.16,-2.25,0.13,2.57,
2.076,-0.32,-0.15,1.16,-2.45,0.14,2.13,
2.079,-0.32,-0.14,1.14,-2.45,0.14,2.13,
2.081,-0.31,-0.14,1.12,-2.45,0.14,2.13,
2.081,-0.31,-0.14,1.12,-2.54,0.16,1.66,
2.087,-0.30,-0.13,1.11,-2.54,0.16,1.66,
2.087,-0.29,-0.13,1.09,-2.54,0.16,1.66,
2.087,-0.29,-0.13,1.09,-2.50,0.23,1.28,
2.089,-0.28,-0.12,1.08,-2.50,0.23,1.28,
2.091,-0.27,-0.12,1.07,-2.50,0.23,1.28,
2.091,-0.27,-0.12,1.07,-2.29,0.30,0.95,
2.094,-0.26,-0.12,1.05,-2.29,0.30,0.95,
2.097,-0.25,-0.12,1.04,-2.29,0.30,0.95,
2.097,-0.25,-0.12,1.04,-2.10,0.35,0.68,
2.101,-0.24,-0.12,1.03,-2.10,0.35,0.68,
2.102,-0.23,-0.13,1.02,-2.10,0.35,0.68,
2.102,-0.23,-0.13,1.02,-1.90,0.29,0.43,
2.105,-0.23,-0.14,1.01,-1.90,0.29,0.43,
2.107,-0.21,-0.14,1.01,-1.90,0.29,0.43,
2.107,-0.21,-0.14,1.01,-1.77,0.13,0.22,
2.109,-0.20,-0.14,1.01,-1.77,0.13,0.22,
2.112,-0.19,-0.15,1.01,-1.77,0.13,0.22,
2.112,-0.19,-0.15,1.01,-1.61,-0.05,0.05,
2.114,-0.18,-0.15,1.00,-1.61,-0.05,0.05,
2.117,-0.16,-0.15,1.00,-1.61,-0.05,0.05,
2.118,-0.16,-0.15,1.00,-1.41,-0.15,-0.01,
2.12,-0.15,-0.15,1.00,-1.41,-0.15,-0.01,
2.121,-0.14,-0.15,0.99,-1.41,-0.15,-0.01,
2.122,-0.14,-0.15,0.99,-1.16,-0.23,-0.08,
2.124,-0.14,-0.15,0.98,-1.16,-0.23,-0.08,
2.127,-0.13,-0.15,0.97,-1.16,-0.23,-0.08,
2.127,-0.13,-0.15,0.97,-0.97,-0.27,-0.14,
2.129,-0.13,-0.16,0.96,-0.97,-0.27,-0.14,
2.131,-0.12,-0.16,0.95,-0.97,-0.27,-0.14,
2.132,-0.12,-0.16,0.95,-0.90,-0.39,-0.29,
2.133,-0.11,-0.15,0.94,-0.90,-0.39,-0.29,
2.136,-0.10,-0.15,0.92,-0.90,-0.39,-0.29,
2.136,-0.10,-0.15,0.92,-0.81,-0.49,-0.51,
2.139,-0.09,-0.15,0.90,-0.81,-0.49,-0.51,
2.141,-0.08,-0.15,0.88,-0.81,-0.49,-0.51,
2.141,-0.08,-0.15,0.88,-0.64,-0.52,-0.79,
2.143,-0.08,-0.15,0.86,-0.64,-0.52,-0.79,
2.146,-0.08,-0.16,0.85,-0.64,-0.52,-0.79,
2.146,-0.08,-0.16,0.85,-0.46,-0.56,-1.17,
2.149,-0.08,-0.16,0.83,-0.46,-0.56,-1.17,
2.151,-0.08,-0.17,0.81,-0.46,-0.56,-1.17,
2.151,-0.08,-0.17,0.81,-0.41,-0.65,-1.52,
2.153,-0.09,-0.18,0.79,-0.41,-0.65,-1.52,
2.156,-0.08,-0.18,0.78,-0.41,-0.65,-1.52,
2.156,-0.08,-0.18,0.78,-0.46,-0.82,-1.90,
2.159,-0.08,-0.19,0.76,-0.46,-0.82,-1.90,
2.161,-0.08,-0.19,0.75,-0.46,-0.82,-1.90,
2.161,-0.08,-0.19,0.75,-0.48,-1.01,-2.23,
2.163,-0.09,-0.19,0.74,-0.48,-1.01,-2.23,
2.166,-0.09,-0.18,0.73,-0.48,-1.01,-2.23,
2.166,-0.09,-0.18,0.73,-0.48,-1.15,-2.50,
2.168,-0.09,-0.19,0.73,-0.48,-1.15,-2.50,
2.171,-0.10,-0.19,0.71,-0.48,-1.15,-2.50,
2.171,-0.10,-0.19,0.71,-0.52,-1.21,-2.68,
2.174,-0.11,-0.20,0.71,-0.52,-1.21,-2.68,
2.176,-0.12,-0.21,0.70,-0.52,-1.21,-2.68,
2.176,-0.12,-0.21,0.70,-0.58,-1.28,-2.85,
2.179,-0.19,-0.88,0.25,-0.58,-1.28,-2.85,
2.181,-0.64,-5.44,-4.10,-0.58,-1.28,-2.85,
2.181,-0.64,-5.44,-4.10,-0.76,-1.50,-3.01,
2.187,-0.24,-3.14,-3.57,-0.76,-1.50,-3.01,
2.188,1.07,2.72,1.63,-0.76,-1.50,-3.01,
2.188,1.07,2.72,1.63,-3.79,-30.39,-28.70,
2.189,1.35,2.82,2.08,-3.79,-30.39,-28.70,
2.19,0.07,-0.67,-1.05,-3.79,-30.39,-28.70,
2.191,0.07,-0.67,-1.05,4.17,-1.46,-19.34,
2.193,-0.51,-2.38,-1.93,4.17,-1.46,-19.34,
2.196,0.59,0.66,0.42,4.17,-1.46,-19.34,
2.196,0.59,0.66,0.42,6.95,11.25,-4.77,
2.198,0.88,1.81,1.48,6.95,11.25,-4.77,
2.201,-0.20,-0.54,0.02,6.95,11.25,-4.77,
2.201,-0.20,-0.54,0.02,0.23,-7.59,-17.15,
2.203,-0.21,-0.87,0.23,0.23,-7.59,-17.15,
2.206,0.04,-0.27,0.76,0.23,-7.59,-17.15,
2.206,0.04,-0.27,0.76,3.02,7.17,-2.40,
2.208,0.16,0.32,1.13,3.02,7.17,-2.40,
2.211,0.05,0.05,1.09,3.02,7.17,-2.40,
2.211,0.05,0.05,1.09,-1.27,-4.52,-4.85,
2.213,-0.17,-0.75,0.67,-1.27,-4.52,-4.85,
2.217,0.00,-0.32,1.03,-1.27,-4.52,-4.85,
2.217,0.00,-0.32,1.03,0.51,2.94,1.17,
2.218,0.06,0.02,1.30,0.51,2.94,1.17,
2.22,-0.10,-0.27,1.10,0.51,2.94,1.17,
2.22,-0.10,-0.27,1.10,-1.46,-4.01,-1.39,
2.223,-0.15,-0.58,0.92,-1.46,-4.01,-1.39,
2.226,-0.15,-0.58,0.92,-0.84,-0.02,2.09,
2.226,-0.08,-0.36,1.15,-0.84,-0.02,2.09,
2.228,-0.08,-0.11,1.31,-0.84,-0.02,2.09,
2.231,-0.16,-0.37,0.92,-0.84,-0.02,2.09,
2.231,-0.16,-0.37,0.92,-1.75,-3.40,0.41,
2.233,-0.10,-0.23,1.02,-1.75,-3.40,0.41,
2.236,-0.05,-0.19,1.11,-1.75,-3.40,0.41,
2.237,-0.05,-0.19,1.11,-1.76,-1.20,1.20,
2.238,-0.03,-0.29,0.98,-1.76,-1.20,1.20,
2.24,-0.03,-0.29,0.98,-1.25,-0.99,0.68,
2.241,0.01,-0.14,1.09,-1.25,-0.99,0.68,
2.242,-0.05,-0.34,0.82,-1.25,-0.99,0.68,
2.246,-0.02,-0.05,1.11,-1.25,-0.99,0.68,
2.246,-0.02,-0.05,1.11,-0.47,-1.14,0.42,
2.248,-0.00,0.01,1.21,-0.47,-1.14,0.42,
2.251,-0.04,-0.16,1.05,-0.47,-1.14,0.42,
2.251,-0.04,-0.16,1.05,-0.59,-1.12,-0.29,
2.252,-0.09,-0.32,0.87,-0.59,-1.12,-0.29,
2.255,-0.13,-0.43,0.71,-0.59,-1.12,-0.29,
2.255,-0.13,-0.43,0.71,-0.27,-0.04,1.30,
2.257,-0.16,-0.50,0.55,-0.27,-0.04,1.30,
2.259,-0.18,-0.52,0.41,-0.27,-0.04,1.30,
2.26,-0.18,-0.52,0.41,-0.95,-3.14,-2.08,
2.262,-0.18,-0.52,0.30,-0.95,-3.14,-2.08,
2.264,-0.16,-0.47,0.20,-0.95,-3.14,-2.08,
2.265,-0.16,-0.47,0.20,-1.39,-4.65,-5.07,
2.267,-0.13,-0.40,0.13,-1.39,-4.65,-5.07,
2.269,-0.10,-0.33,0.07,-1.39,-4.65,-5.07,
2.27,-0.10,-0.33,0.07,-1.18,-4.62,-7.31,
2.272,-0.08,-0.25,0.02,-1.18,-4.62,-7.31,
2.274,-0.08,-0.17,-0.01,-1.18,-4.62,-7.31,
2.275,-0.08,-0.17,-0.01,-0.60,-3.46,-8.74,
2.277,-0.09,-0.10,-0.04,-0.60,-3.46,-8.74,
2.279,-0.10,-0.03,-0.04,-0.60,-3.46,-8.74,
2.279,-0.10,-0.03,-0.04,-0.19,-2.00,-9.68,
2.282,-0.13,0.01,-0.02,-0.19,-2.00,-9.68,
2.285,-0.16,0.05,0.03,-0.19,-2.00,-9.68,
2.285,-0.16,0.05,0.03,-0.32,-0.63,-10.08,
2.287,-0.19,0.08,0.08,-0.32,-0.63,-10.08,
2.289,-0.19,0.08,0.08,-0.80,0.32,-9.66,
2.29,-0.23,0.10,0.16,-0.80,0.32,-9.66,
2.292,-0.25,0.11,0.26,-0.80,0.32,-9.66,
2.294,-0.27,0.12,0.36,-0.80,0.32,-9.66,
2.295,-0.27,0.12,0.36,-1.49,0.91,-8.54,
2.297,-0.28,0.12,0.47,-1.49,0.91,-8.54,
2.304,-0.30,0.12,0.57,-1.49,0.91,-8.54,
2.305,-0.30,0.12,0.57,-2.05,1.22,-6.65,
2.305,-0.32,0.11,0.67,-2.05,1.22,-6.65,
2.305,-0.33,0.11,0.77,-2.05,1.22,-6.65,
2.307,-0.33,0.11,0.77,-2.45,1.36,-4.62,
2.307,-0.35,0.10,0.87,-2.45,1.36,-4.62,
2.309,-0.36,0.09,0.96,-2.45,1.36,-4.62,
2.31,-0.36,0.09,0.96,-2.83,1.31,-2.60,
2.311,-0.37,0.07,1.04,-2.83,1.31,-2.60,
2.314,-0.37,0.06,1.12,-2.83,1.31,-2.60,
2.314,-0.37,0.06,1.12,-3.13,1.21,-0.70,
2.317,-0.38,0.03,1.18,-3.13,1.21,-0.70,
2.319,-0.37,0.02,1.23,-3.13,1.21,-0.70,
2.319,-0.37,0.02,1.23,-3.33,0.98,0.90,
2.321,-0.36,0.00,1.27,-3.33,0.98,0.90,
2.324,-0.36,-0.01,1.29,-3.33,0.98,0.90,
2.324,-0.36,-0.01,1.29,-3.39,0.65,2.16,
2.327,-0.36,-0.02,1.29,-3.39,0.65,2.16,
2.329,-0.35,-0.03,1.28,-3.39,0.65,2.16,
2.329,-0.35,-0.03,1.28,-3.21,0.37,2.89,
2.331,-0.34,-0.04,1.26,-3.21,0.37,2.89,
2.335,-0.33,-0.04,1.23,-3.21,0.37,2.89,
2.335,-0.33,-0.04,1.23,-3.09,0.13,2.89,
2.336,-0.31,-0.05,1.19,-3.09,0.13,2.89,
2.339,-0.29,-0.05,1.16,-3.09,0.13,2.89,
2.339,-0.29,-0.05,1.16,-2.84,-0.00,2.50,
2.341,-0.26,-0.05,1.12,-2.84,-0.00,2.50,
2.344,-0.23,-0.05,1.09,-2.84,-0.00,2.50,
2.344,-0.23,-0.05,1.09,-2.41,-0.08,1.84,
2.346,-0.22,-0.04,1.06,-2.41,-0.08,1.84,
2.348,-0.20,-0.03,1.03,-2.41,-0.08,1.84,
2.349,-0.20,-0.03,1.03,-1.81,-0.11,1.19,
2.351,-0.20,-0.03,1.01,-1.81,-0.11,1.19,
2.353,-0.20,-0.02,0.98,-1.81,-0.11,1.19,
2.354,-0.20,-0.02,0.98,-1.40,-0.05,0.59,
2.356,-0.20,-0.01,0.95,-1.40,-0.05,0.59,
2.359,-0.20,-0.00,0.92,-1.40,-0.05,0.59,
2.359,-0.20,-0.00,0.92,-1.25,0.07,0.08,
2.361,-0.20,0.01,0.89,-1.25,0.07,0.08,
2.363,-0.21,0.01,0.87,-1.25,0.07,0.08,
2.364,-0.21,0.01,0.87,-1.24,0.19,-0.47,
2.367,-0.20,0.01,0.85,-1.24,0.19,-0.47,
2.368,-0.19,0.01,0.84,-1.24,0.19,-0.47,
2.369,-0.19,0.01,0.84,-1.23,0.29,-1.06,
2.371,-0.19,0.00,0.82,-1.23,0.29,-1.06,
2.373,-0.18,0.01,0.82,-1.23,0.29,-1.06,
2.373,-0.18,0.01,0.82,-1.18,0.26,-1.39,
2.376,-0.17,0.01,0.83,-1.18,0.26,-1.39,
2.378,-0.16,0.02,0.84,-1.18,0.26,-1.39,
2.378,-0.16,0.02,0.84,-1.01,0.27,-1.62,
2.381,-0.14,0.02,0.85,-1.01,0.27,-1.62,
2.384,-0.13,0.02,0.87,-1.01,0.27,-1.62,
2.385,-0.13,0.02,0.87,-0.83,0.35,-1.49,
2.386,-0.12,0.02,0.89,-0.83,0.35,-1.49,
2.388,-0.11,0.01,0.92,-0.83,0.35,-1.49,
2.388,-0.11,0.01,0.92,-0.60,0.39,-1.20,
2.391,-0.10,0.00,0.94,-0.60,0.39,-1.20,
2.393,-0.10,0.00,0.94,-0.42,0.37,-0.80,
2.393,-0.08,-0.01,0.96,-0.42,0.37,-0.80,
2.396,-0.07,-0.01,0.98,-0.42,0.37,-0.80,
2.398,-0.06,-0.01,1.00,-0.42,0.37,-0.80,
2.398,-0.06,-0.01,1.00,-0.24,0.21,-0.37,
2.401,-0.04,-0.01,1.01,-0.24,0.21,-0.37,
2.403,-0.03,-0.01,1.02,-0.24,0.21,-0.37,
2.403,-0.03,-0.01,1.02,-0.02,0.15,0.02,
2.406,-0.01,-0.01,1.04,-0.02,0.15,0.02,
2.408,-0.00,-0.01,1.04,-0.02,0.15,0.02,
2.408,-0.00,-0.01,1.04,0.27,0.17,0.30,
2.41,0.01,-0.01,1.05,0.27,0.17,0.30,
2.413,0.02,-0.01,1.06,0.27,0.17,0.30,
2.413,0.02,-0.01,1.06,0.51,0.21,0.51,
2.415,0.02,-0.01,1.07,0.51,0.21,0.51,
2.421,0.03,-0.01,1.07,0.51,0.21,0.51,
2.421,0.03,-0.01,1.07,0.69,0.20,0.69,
2.421,0.03,-0.02,1.07,0.69,0.20,0.69,
2.424,0.03,-0.03,1.06,0.69,0.20,0.69,
2.424,0.03,-0.03,1.06,0.81,0.17,0.84,
2.425,0.03,-0.03,1.06,0.81,0.17,0.84,
2.428,0.03,-0.03,1.06,0.81,0.17,0.84,
2.428,0.03,-0.03,1.06,0.88,0.09,0.78,
2.43,0.03,-0.03,1.05,0.88,0.09,0.78,
2.433,0.03,-0.04,1.04,0.88,0.09,0.78,
2.433,0.03,-0.04,1.04,0.87,0.03,0.72,
2.436,0.03,-0.05,1.05,0.87,0.03,0.72,
2.438,0.03,-0.06,1.05,0.87,0.03,0.72,
2.438,0.03,-0.06,1.05,0.86,-0.09,0.58,
2.44,0.03,-0.07,1.05,0.86,-0.09,0.58,
2.443,0.03,-0.08,1.04,0.86,-0.09,0.58,
2.444,0.03,-0.08,1.04,0.87,-0.25,0.58,
2.447,0.03,-0.08,1.04,0.87,-0.25,0.58,
2.448,0.03,-0.10,1.04,0.87,-0.25,0.58,
2.449,0.03,-0.10,1.04,0.88,-0.44,0.56,
2.451,0.02,-0.10,1.05,0.88,-0.44,0.56,
2.453,0.02,-0.10,1.05,0.88,-0.44,0.56,
2.454,0.02,-0.10,1.05,0.91,-0.62,0.55,
2.455,0.00,-0.09,1.05,0.91,-0.62,0.55,
2.458,-0.02,-0.09,1.05,0.91,-0.62,0.55,
2.458,-0.02,-0.09,1.05,0.86,-0.70,0.61,
2.46,-0.03,-0.09,1.04,0.86,-0.70,0.61,
2.463,-0.05,-0.09,1.04,0.86,-0.70,0.61,
2.463,-0.05,-0.09,1.04,0.58,-0.68,0.59,
2.465,-0.07,-0.09,1.04,0.58,-0.68,0.59,
2.468,-0.08,-0.09,1.03,0.58,-0.68,0.59,
2.468,-0.08,-0.09,1.03,0.28,-0.64,0.53,
2.473,-0.09,-0.08,1.03,0.28,-0.64,0.53,
2.474,-0.10,-0.08,1.02,0.28,-0.64,0.53,
2.474,-0.10,-0.08,1.02,-0.02,-0.64,0.46,
2.476,-0.11,-0.07,1.01,-0.02,-0.64,0.46,
2.478,-0.13,-0.05,1.01,-0.02,-0.64,0.46,
2.478,-0.13,-0.05,1.01,-0.21,-0.58,0.38,
2.48,-0.14,-0.04,1.00,-0.21,-0.58,0.38,
2.483,-0.16,-0.03,0.98,-0.21,-0.58,0.38,
2.483,-0.16,-0.03,0.98,-0.48,-0.39,0.23,
2.485,-0.17,-0.02,0.97,-0.48,-0.39,0.23,
2.488,-0.18,-0.01,0.96,-0.48,-0.39,0.23,
2.488,-0.18,-0.01,0.96,-0.75,-0.15,0.03,
2.49,-0.18,-0.01,0.95,-0.75,-0.15,0.03,
2.493,-0.19,-0.01,0.94,-0.75,-0.15,0.03,
2.493,-0.19,-0.01,0.94,-0.93,0.01,-0.23,
2.495,-0.19,-0.00,0.93,-0.93,0.01,-0.23,
2.498,-0.20,-0.00,0.93,-0.93,0.01,-0.23,
2.498,-0.20,-0.00,0.93,-1.05,0.07,-0.42,
2.5,-0.20,-0.01,0.92,-1.05,0.07,-0.42,
2.502,-0.19,-0.01,0.93,-1.05,0.07,-0.42,
2.502,-0.19,-0.01,0.93,-1.13,0.09,-0.55,
2.505,-0.20,-0.01,0.92,-1.13,0.09,-0.55,
2.508,-0.20,-0.01,0.92,-1.13,0.09,-0.55,
2.508,-0.20,-0.01,0.92,-1.12,0.05,-0.61,
2.51,-0.19,-0.01,0.93,-1.12,0.05,-0.61,
2.513,-0.19,-0.02,0.93,-1.12,0.05,-0.61,
2.513,-0.19,-0.02,0.93,-1.13,0.02,-0.62,
2.515,-0.18,-0.02,0.94,-1.13,0.02,-0.62,
2.517,-0.18,-0.03,0.96,-1.13,0.02,-0.62,
2.517,-0.18,-0.03,0.96,-1.05,-0.04,-0.51,
2.521,-0.18,-0.03,0.96,-1.05,-0.04,-0.51,
2.522,-0.17,-0.04,0.97,-1.05,-0.04,-0.51,
2.523,-0.17,-0.04,0.97,-0.95,-0.15,-0.35,
2.524,-0.17,-0.04,0.99,-0.95,-0.15,-0.35,
2.528,-0.17,-0.05,1.00,-0.95,-0.15,-0.35,
2.528,-0.17,-0.05,1.00,-0.90,-0.25,-0.18,
2.53,-0.17,-0.06,1.00,-0.90,-0.25,-0.18,
2.532,-0.17,-0.07,1.00,-0.90,-0.25,-0.18,
2.533,-0.17,-0.07,1.00,-0.86,-0.37,0.06,
2.534,-0.17,-0.07,1.01,-0.86,-0.37,0.06,
2.537,-0.16,-0.08,1.01,-0.86,-0.37,0.06,
2.537,-0.16,-0.08,1.01,-0.80,-0.49,0.14,
2.54,-0.16,-0.08,1.01,-0.80,-0.49,0.14,
2.542,-0.15,-0.08,1.01,-0.80,-0.49,0.14,
2.543,-0.15,-0.08,1.01,-0.79,-0.65,0.23,
2.545,-0.16,-0.08,1.01,-0.79,-0.65,0.23,
2.548,-0.15,-0.08,1.01,-0.79,-0.65,0.23,
2.548,-0.15,-0.08,1.01,-0.72,-0.67,0.26,
2.55,-0.14,-0.08,1.01,-0.72,-0.67,0.26,
2.552,-0.13,-0.08,1.01,-0.72,-0.67,0.26,
2.552,-0.13,-0.08,1.01,-0.68,-0.68,0.25,
2.554,-0.12,-0.08,1.01,-0.68,-0.68,0.25,
2.556,-0.12,-0.07,1.01,-0.68,-0.68,0.25,
2.557,-0.12,-0.07,1.01,-0.49,-0.68,0.23,
2.56,-0.11,-0.07,1.00,-0.49,-0.68,0.23,
2.562,-0.10,-0.07,0.99,-0.49,-0.68,0.23,
2.562,-0.10,-0.07,0.99,-0.35,-0.63,0.22,
2.565,-0.09,-0.07,0.99,-0.35,-0.63,0.22,
2.567,-0.08,-0.07,0.98,-0.35,-0.63,0.22,
2.567,-0.08,-0.07,0.98,-0.18,-0.59,0.10,
2.569,-0.08,-0.07,0.97,-0.18,-0.59,0.10,
2.572,-0.07,-0.07,0.96,-0.18,-0.59,0.10,
2.572,-0.07,-0.07,0.96,-0.05,-0.59,-0.00,
2.574,-0.06,-0.07,0.95,-0.05,-0.59,-0.00,
2.577,-0.06,-0.07,0.95,0.07,-0.59,-0.20,
2.577,-0.05,-0.07,0.93,0.07,-0.59,-0.20,
2.579,-0.05,-0.06,0.93,0.07,-0.59,-0.20,
2.582,-0.05,-0.06,0.92,0.07,-0.59,-0.20,
2.582,-0.05,-0.06,0.92,0.21,-0.60,-0.43,
2.585,-0.04,-0.06,0.92,0.21,-0.60,-0.43,
2.586,-0.04,-0.05,0.91,0.21,-0.60,-0.43,
2.587,-0.04,-0.05,0.91,0.30,-0.53,-0.61,
2.589,-0.05,-0.05,0.91,0.30,-0.53,-0.61,
2.591,-0.05,-0.05,0.91,0.30,-0.53,-0.61,
2.591,-0.05,-0.05,0.91,0.33,-0.48,-0.70,
2.594,-0.05,-0.05,0.91,0.33,-0.48,-0.70,
2.596,-0.05,-0.05,0.91,0.33,-0.48,-0.70,
2.596,-0.05,-0.05,0.91,0.28,-0.47,-0.75,
2.599,-0.06,-0.05,0.92,0.28,-0.47,-0.75,
2.602,-0.06,-0.05,0.93,0.28,-0.47,-0.75,
2.602,-0.06,-0.05,0.93,0.24,-0.43,-0.72,
2.603,-0.06,-0.04,0.94,0.24,-0.43,-0.72,
2.606,-0.06,-0.04,0.94,0.16,-0.42,-0.61,
2.606,-0.06,-0.04,0.95,0.16,-0.42,-0.61,
2.609,-0.06,-0.03,0.96,0.16,-0.42,-0.61,
2.611,-0.06,-0.03,0.96,0.16,-0.42,-0.61,
2.611,-0.06,-0.03,0.96,0.16,-0.30,-0.41,
2.613,-0.06,-0.03,0.98,0.16,-0.30,-0.41,
2.616,-0.06,-0.03,0.98,0.16,-0.30,-0.41,
2.616,-0.06,-0.03,0.98,0.15,-0.23,-0.26,
2.621,-0.06,-0.02,0.99,0.15,-0.23,-0.26,
2.622,-0.07,-0.02,1.00,0.15,-0.23,-0.26,
2.622,-0.07,-0.02,1.00,0.15,-0.22,-0.06,
2.624,-0.07,-0.02,1.00,0.15,-0.22,-0.06,
2.626,-0.07,-0.02,1.01,0.15,-0.22,-0.06,
2.627,-0.07,-0.02,1.01,0.09,-0.17,0.11,
2.628,-0.07,-0.01,1.01,0.09,-0.17,0.11,
2.631,-0.08,-0.01,1.00,0.09,-0.17,0.11,
2.631,-0.08,-0.01,1.00,0.06,-0.12,0.16,
2.633,-0.08,-0.01,1.00,0.06,-0.12,0.16,
2.637,-0.09,-0.01,1.00,0.06,-0.12,0.16,
2.637,-0.09,-0.01,1.00,0.03,-0.07,0.20,
2.638,-0.09,-0.01,1.00,0.03,-0.07,0.20,
2.641,-0.09,-0.01,1.00,0.03,-0.07,0.20,
2.641,-0.09,-0.01,1.00,-0.06,-0.05,0.16,
2.643,-0.10,-0.01,0.99,-0.06,-0.05,0.16,
2.646,-0.11,-0.00,0.99,-0.06,-0.05,0.16,
2.646,-0.11,-0.00,0.99,-0.13,-0.05,0.16,
2.648,-0.11,-0.00,0.98,-0.13,-0.05,0.16,
2.651,-0.12,-0.00,0.98,-0.13,-0.05,0.16,
2.652,-0.12,-0.00,0.98,-0.23,-0.02,0.04,
2.653,-0.12,0.00,0.98,-0.23,-0.02,0.04,
2.656,-0.12,0.01,0.98,-0.23,-0.02,0.04,
2.656,-0.12,0.01,0.98,-0.29,0.02,-0.03,
2.658,-0.13,0.02,0.97,-0.29,0.02,-0.03,
2.66,-0.13,0.02,0.97,-0.39,0.10,-0.08,
2.661,-0.14,0.02,0.97,-0.39,0.10,-0.08,
2.663,-0.14,0.02,0.97,-0.39,0.10,-0.08,
2.666,-0.15,0.02,0.98,-0.39,0.10,-0.08,
2.666,-0.15,0.02,0.98,-0.48,0.22,-0.12,
2.669,-0.16,0.03,0.98,-0.48,0.22,-0.12,
2.671,-0.16,0.03,0.98,-0.48,0.22,-0.12,
2.671,-0.16,0.03,0.98,-0.62,0.22,-0.12,
2.673,-0.17,0.03,0.98,-0.62,0.22,-0.12,
2.675,-0.17,0.03,0.98,-0.62,0.22,-0.12,
2.675,-0.17,0.03,0.98,-0.73,0.28,-0.09,
2.678,-0.17,0.03,0.98,-0.73,0.28,-0.09,
2.68,-0.18,0.03,0.99,-0.73,0.28,-0.09,
2.68,-0.18,0.03,0.99,-0.80,0.25,-0.07,
2.683,-0.18,0.03,0.99,-0.80,0.25,-0.07,
2.686,-0.18,0.03,0.99,-0.80,0.25,-0.07,
2.686,-0.18,0.03,0.99,-0.83,0.31,0.01,
2.688,-0.18,0.03,1.00,-0.83,0.31,0.01,
2.69,-0.18,0.03,1.00,-0.83,0.31,0.01,
2.69,-0.18,0.03,1.00,-0.85,0.25,0.04,
2.693,-0.18,0.03,1.01,-0.85,0.25,0.04,
2.695,-0.19,0.03,1.01,-0.85,0.25,0.04,
2.695,-0.19,0.03,1.01,-0.88,0.26,0.15,
2.698,-0.19,0.03,1.01,-0.88,0.26,0.15,
2.7,-0.19,0.03,1.02,-0.88,0.26,0.15,
2.7,-0.19,0.03,1.02,-0.92,0.25,0.20,
2.703,-0.19,0.02,1.02,-0.92,0.25,0.20,
2.705,-0.19,0.02,1.02,-0.92,0.25,0.20,
2.705,-0.19,0.02,1.02,-0.93,0.24,0.30,
2.707,-0.19,0.02,1.03,-0.93,0.24,0.30,
2.71,-0.19,0.02,1.03,-0.97,0.16,0.36,
2.71,-0.18,0.01,1.05,-0.97,0.16,0.36,
2.712,-0.18,0.00,1.06,-0.97,0.16,0.36,
2.715,-0.18,0.00,1.07,-0.97,0.16,0.36,
2.715,-0.18,0.00,1.07,-0.92,0.12,0.54,
2.722,-0.17,-0.00,1.08,-0.92,0.12,0.54,
2.722,-0.17,-0.01,1.09,-0.92,0.12,0.54,
2.722,-0.17,-0.01,1.09,-0.84,0.01,0.78,
2.723,-0.16,-0.00,1.10,-0.84,0.01,0.78,
2.725,-0.16,-0.01,1.10,-0.84,0.01,0.78,
2.725,-0.16,-0.01,1.10,-0.76,-0.05,0.94,
2.727,-0.16,-0.01,1.11,-0.76,-0.05,0.94,
2.73,-0.16,-0.01,1.11,-0.76,-0.05,0.94,
2.73,-0.16,-0.01,1.11,-0.71,-0.07,1.15,
2.732,-0.15,-0.01,1.11,-0.71,-0.07,1.15,
2.736,-0.14,-0.01,1.11,-0.71,-0.07,1.15,
2.736,-0.14,-0.01,1.11,-0.67,-0.13,1.20,
2.737,-0.14,-0.01,1.11,-0.67,-0.13,1.20,
2.74,-0.14,-0.01,1.11,-0.57,-0.14,1.23,
2.74,-0.14,-0.01,1.09,-0.57,-0.14,1.23,
2.742,-0.14,-0.02,1.09,-0.57,-0.14,1.23,
2.745,-0.14,-0.01,1.08,-0.57,-0.14,1.23,
2.745,-0.14,-0.01,1.08,-0.53,-0.15,1.11,
2.747,-0.13,-0.01,1.07,-0.53,-0.15,1.11,
2.751,-0.13,-0.01,1.06,-0.53,-0.15,1.11,
2.751,-0.13,-0.01,1.06,-0.51,-0.18,0.95,
2.754,-0.13,-0.01,1.06,-0.51,-0.18,0.95,
2.755,-0.12,-0.01,1.05,-0.51,-0.18,0.95,
2.755,-0.12,-0.01,1.05,-0.44,-0.14,0.77,
2.757,-0.12,-0.01,1.04,-0.44,-0.14,0.77,
2.759,-0.11,-0.02,1.04,-0.44,-0.14,0.77,
2.76,-0.11,-0.02,1.04,-0.37,-0.16,0.67,
2.762,-0.10,-0.02,1.04,-0.37,-0.16,0.67,
2.765,-0.09,-0.02,1.03,-0.37,-0.16,0.67,
2.765,-0.09,-0.02,1.03,-0.29,-0.21,0.54,
2.767,-0.09,-0.02,1.02,-0.29,-0.21,0.54,
2.77,-0.08,-0.02,1.02,-0.29,-0.21,0.54,
2.771,-0.08,-0.02,1.02,-0.16,-0.25,0.47,
2.773,-0.08,-0.02,1.02,-0.16,-0.25,0.47,
2.774,-0.08,-0.02,1.02,-0.04,-0.26,0.34,
2.774,-0.07,-0.02,1.02,-0.04,-0.26,0.34,
2.777,-0.07,-0.02,1.02,-0.04,-0.26,0.34,
2.779,-0.08,-0.02,1.01,-0.04,-0.26,0.34,
2.779,-0.08,-0.02,1.01,0.07,-0.27,0.31,
2.782,-0.08,-0.02,1.01,0.07,-0.27,0.31,
2.785,-0.08,-0.02,1.01,0.07,-0.27,0.31,
2.786,-0.08,-0.02,1.01,0.05,-0.32,0.28,
2.787,-0.08,-0.03,1.00,0.05,-0.32,0.28,
2.789,-0.09,-0.02,1.00,0.05,-0.32,0.28,
2.789,-0.09,-0.02,1.00,0.01,-0.32,0.22,
2.792,-0.09,-0.02,1.00,0.01,-0.32,0.22,
2.794,-0.09,-0.02,1.00,0.01,-0.32,0.22,
2.794,-0.09,-0.02,1.00,-0.07,-0.33,0.14,
2.797,-0.10,-0.02,1.00,-0.07,-0.33,0.14,
2.8,-0.11,-0.02,0.99,-0.07,-0.33,0.14,
2.804,-0.11,-0.02,0.99,-0.14,-0.34,0.11,
2.804,-0.11,-0.02,0.99,-0.14,-0.34,0.11,
2.805,-0.12,-0.01,0.99,-0.14,-0.34,0.11,
2.805,-0.12,-0.01,0.99,-0.27,-0.32,0.09,
2.808,-0.12,-0.01,0.99,-0.27,-0.32,0.09,
2.809,-0.12,-0.01,0.99,-0.27,-0.32,0.09,
2.81,-0.12,-0.01,0.99,-0.40,-0.28,0.03,
2.812,-0.12,-0.01,0.98,-0.40,-0.28,0.03,
2.815,-0.12,-0.01,0.98,-0.40,-0.28,0.03,
2.815,-0.12,-0.01,0.98,-0.45,-0.23,-0.02,
2.817,-0.13,-0.01,0.97,-0.45,-0.23,-0.02,
2.821,-0.13,-0.01,0.97,-0.45,-0.23,-0.02,
2.821,-0.13,-0.01,0.97,-0.48,-0.25,-0.10,
2.822,-0.13,-0.01,0.97,-0.48,-0.25,-0.10,
2.824,-0.13,-0.01,0.97,-0.48,-0.25,-0.10,
2.824,-0.13,-0.01,0.97,-0.52,-0.25,-0.15,
2.827,-0.12,-0.01,0.96,-0.52,-0.25,-0.15,
2.829,-0.12,-0.01,0.96,-0.52,-0.25,-0.15,
2.829,-0.12,-0.01,0.96,-0.51,-0.27,-0.20,
2.831,-0.12,-0.00,0.96,-0.51,-0.27,-0.20,
2.834,-0.12,-0.00,0.96,-0.51,-0.27,-0.20,
2.834,-0.12,-0.00,0.96,-0.48,-0.26,-0.26,
2.839,-0.12,-0.00,0.95,-0.48,-0.26,-0.26,
2.839,-0.12,-0.01,0.95,-0.48,-0.26,-0.26,
2.839,-0.12,-0.01,0.95,-0.45,-0.21,-0.27,
2.841,-0.12,-0.00,0.94,-0.45,-0.21,-0.27,
2.844,-0.12,-0.01,0.94,-0.45,-0.21,-0.27,
2.844,-0.12,-0.01,0.94,-0.43,-0.22,-0.37,
2.847,-0.12,-0.01,0.94,-0.43,-0.22,-0.37,
2.849,-0.13,-0.01,0.94,-0.43,-0.22,-0.37,
2.849,-0.13,-0.01,0.94,-0.47,-0.25,-0.44,
2.853,-0.12,-0.01,0.93,-0.47,-0.25,-0.44,
2.853,-0.12,-0.01,0.94,-0.47,-0.25,-0.44,
2.854,-0.12,-0.01,0.94,-0.50,-0.32,-0.46,
2.857,-0.11,-0.00,0.95,-0.50,-0.32,-0.46,
2.859,-0.11,-0.00,0.95,-0.50,-0.32,-0.46,
2.859,-0.11,-0.00,0.95,-0.45,-0.32,-0.51,
2.862,-0.11,0.01,0.95,-0.45,-0.32,-0.51,
2.865,-0.11,0.01,0.95,-0.45,-0.32,-0.51,
2.865,-0.11,0.01,0.95,-0.38,-0.24,-0.38,
2.867,-0.11,0.01,0.95,-0.38,-0.24,-0.38,
2.87,-0.12,0.01,0.96,-0.38,-0.24,-0.38,
2.87,-0.12,0.01,0.96,-0.37,-0.14,-0.36,
2.871,-0.12,0.01,0.96,-0.37,-0.14,-0.36,
2.873,-0.12,0.01,0.95,-0.37,-0.14,-0.36,
2.874,-0.12,0.01,0.95,-0.44,-0.15,-0.32,
2.877,-0.12,0.01,0.95,-0.44,-0.15,-0.32,
2.878,-0.13,0.00,0.95,-0.44,-0.15,-0.32,
2.878,-0.13,0.00,0.95,-0.48,-0.15,-0.32,
2.881,-0.13,0.01,0.95,-0.48,-0.15,-0.32,
2.883,-0.13,0.01,0.95,-0.48,-0.15,-0.32,
2.883,-0.13,0.01,0.95,-0.52,-0.17,-0.35,
2.886,-0.13,0.00,0.95,-0.52,-0.17,-0.35,
2.888,-0.13,0.00,0.95,-0.52,-0.17,-0.35,
2.889,-0.13,0.00,0.95,-0.54,-0.16,-0.38,
2.891,-0.12,0.00,0.95,-0.54,-0.16,-0.38,
2.893,-0.13,0.00,0.95,-0.54,-0.16,-0.38,
2.893,-0.13,0.00,0.95,-0.54,-0.18,-0.38,
2.896,-0.13,0.00,0.95,-0.54,-0.18,-0.38,
2.899,-0.12,0.00,0.95,-0.54,-0.18,-0.38,
2.899,-0.12,0.00,0.95,-0.53,-0.22,-0.37,
2.901,-0.12,0.01,0.95,-0.53,-0.22,-0.37,
2.903,-0.13,0.02,0.96,-0.53,-0.22,-0.37,
2.904,-0.13,0.02,0.96,-0.54,-0.21,-0.33,
2.906,-0.13,0.02,0.97,-0.54,-0.21,-0.33,
2.909,-0.13,0.03,0.97,-0.54,-0.21,-0.33,
2.909,-0.13,0.03,0.97,-0.52,-0.10,-0.31,
2.911,-0.13,0.04,0.98,-0.52,-0.10,-0.31,
2.914,-0.14,0.04,0.98,-0.52,-0.10,-0.31,
2.914,-0.14,0.04,0.98,-0.55,0.04,-0.18,
2.916,-0.14,0.04,0.98,-0.55,0.04,-0.18,
2.918,-0.13,0.04,0.99,-0.55,0.04,-0.18,
2.919,-0.13,0.04,0.99,-0.60,0.12,-0.08,
2.92,-0.13,0.04,0.99,-0.60,0.12,-0.08,
2.923,-0.12,0.04,0.98,-0.60,0.12,-0.08,
2.923,-0.12,0.04,0.98,-0.59,0.16,-0.02,
2.926,-0.12,0.04,0.97,-0.59,0.16,-0.02,
2.928,-0.11,0.04,0.97,-0.59,0.16,-0.02,
2.929,-0.11,0.04,0.97,-0.49,0.16,-0.02,
2.931,-0.11,0.04,0.97,-0.49,0.16,-0.02,
2.933,-0.11,0.04,0.97,-0.39,0.18,-0.14,
2.933,-0.10,0.03,0.97,-0.39,0.18,-0.14,
2.937,-0.10,0.03,0.97,-0.39,0.18,-0.14,
2.938,-0.10,0.03,0.97,-0.39,0.18,-0.14,
2.938,-0.10,0.03,0.97,-0.30,0.12,-0.17,
2.941,-0.09,0.02,0.97,-0.30,0.12,-0.17,
2.943,-0.09,0.02,0.97,-0.21,0.04,-0.15,
2.943,-0.09,0.01,0.97,-0.21,0.04,-0.15,
2.946,-0.09,0.01,0.97,-0.21,0.04,-0.15,
2.949,-0.09,-0.00,0.98,-0.21,0.04,-0.15,
2.949,-0.09,-0.00,0.98,-0.13,-0.09,-0.18,
2.951,-0.09,-0.01,0.98,-0.13,-0.09,-0.18,
2.956,-0.09,-0.00,0.98,-0.13,-0.09,-0.18,
2.956,-0.09,-0.00,0.98,-0.11,-0.21,-0.12,
2.956,-0.09,-0.01,0.98,-0.11,-0.21,-0.12,
2.958,-0.09,-0.01,0.98,-0.11,-0.30,-0.08,
2.958,-0.09,-0.01,0.99,-0.11,-0.30,-0.08,
2.96,-0.09,-0.01,0.99,-0.11,-0.30,-0.08,
2.963,-0.09,-0.00,0.99,-0.11,-0.30,-0.08,
2.963,-0.09,-0.00,0.99,-0.09,-0.36,-0.02,
2.965,-0.10,-0.01,1.00,-0.09,-0.36,-0.02,
2.967,-0.10,-0.01,1.00,-0.09,-0.36,-0.02,
2.968,-0.10,-0.01,1.00,-0.12,-0.31,0.06,
2.97,-0.10,-0.00,1.01,-0.12,-0.31,0.06,
2.972,-0.10,0.01,1.00,-0.12,-0.31,0.06,
2.973,-0.10,0.01,1.00,-0.22,-0.30,0.13,
2.975,-0.10,0.01,1.00,-0.22,-0.30,0.13,
2.977,-0.10,0.01,1.00,-0.22,-0.30,0.13,
2.978,-0.10,0.01,1.00,-0.25,-0.21,0.17,
2.98,-0.09,0.02,1.01,-0.25,-0.21,0.17,
2.982,-0.09,0.02,1.00,-0.25,-0.21,0.17,
2.982,-0.09,0.02,1.00,-0.24,-0.13,0.15,
2.986,-0.08,0.02,1.01,-0.24,-0.13,0.15,
2.988,-0.08,0.02,1.01,-0.24,-0.13,0.15,
2.988,-0.08,0.02,1.01,-0.13,-0.06,0.19,
2.99,-0.06,0.02,1.01,-0.13,-0.06,0.19,
2.992,-0.06,0.02,1.01,-0.13,-0.06,0.19,
2.992,-0.06,0.02,1.01,-0.03,-0.04,0.18,
2.994,-0.05,0.02,1.00,-0.03,-0.04,0.18,
2.998,-0.04,0.02,1.00,-0.03,-0.04,0.18,
2.998,-0.04,0.02,1.00,0.14,-0.06,0.19,
3.0,-0.03,0.01,1.00,0.14,-0.06,0.19,
3.003,-0.03,0.02,1.00,0.14,-0.06,0.19,
3.003,-0.03,0.02,1.00,0.29,-0.06,0.12,
3.004,-0.03,0.02,0.99,0.29,-0.06,0.12,
3.007,-0.03,0.02,0.99,0.40,-0.08,0.10,
3.007,-0.03,0.02,0.99,0.40,-0.08,0.10,
3.009,-0.03,0.02,0.99,0.40,-0.08,0.10,
3.012,-0.03,0.02,0.99,0.40,-0.08,0.10,
3.012,-0.03,0.02,0.99,0.46,-0.08,-0.00,
3.015,-0.04,0.01,0.98,0.46,-0.08,-0.00,
3.017,-0.04,0.01,0.98,0.41,-0.05,-0.01,
3.017,-0.04,0.02,0.99,0.41,-0.05,-0.01,
3.019,-0.05,0.01,0.99,0.41,-0.05,-0.01,
3.022,-0.05,0.01,1.00,0.41,-0.05,-0.01,
3.022,-0.05,0.01,1.00,0.31,-0.11,-0.04,
3.024,-0.05,0.02,1.00,0.31,-0.11,-0.04,
3.027,-0.06,0.02,1.01,0.31,-0.11,-0.04,
3.027,-0.06,0.02,1.01,0.21,-0.16,0.06,
3.029,-0.07,0.02,1.02,0.21,-0.16,0.06,
3.032,-0.08,0.03,1.05,0.21,-0.16,0.06,
3.032,-0.08,0.03,1.05,0.16,-0.09,0.14,
3.034,-0.09,0.04,1.09,0.16,-0.09,0.14,
3.04,-0.11,0.04,1.13,0.16,-0.09,0.14,
3.04,-0.11,0.04,1.13,-0.01,-0.01,0.48,
3.04,-0.12,0.04,1.16,-0.01,-0.01,0.48,
3.042,-0.12,0.04,1.17,-0.01,-0.01,0.48,
3.043,-0.12,0.04,1.17,-0.29,0.08,1.16,
3.044,-0.11,0.04,1.15,-0.29,0.08,1.16,
3.047,-0.09,0.04,1.10,-0.29,0.08,1.16,
3.047,-0.09,0.04,1.10,-0.49,0.11,1.69,
3.051,-0.07,0.03,1.05,-0.49,0.11,1.69,
3.053,-0.06,0.03,1.01,-0.49,0.11,1.69,
3.053,-0.06,0.03,1.01,-0.28,0.07,1.30,
3.054,-0.05,0.04,0.98,-0.28,0.07,1.30,
3.057,-0.05,0.04,0.98,0.10,-0.01,0.38,
3.057,-0.05,0.04,0.97,0.10,-0.01,0.38,
3.059,-0.05,0.04,0.97,0.10,-0.01,0.38,
3.061,-0.06,0.05,0.96,0.10,-0.01,0.38,
3.062,-0.06,0.05,0.96,0.29,0.04,-0.13,
3.064,-0.06,0.05,0.96,0.29,0.04,-0.13,
3.067,-0.06,0.06,0.97,0.29,0.04,-0.13,
3.067,-0.06,0.06,0.97,0.20,0.08,-0.25,
3.069,-0.06,0.05,0.97,0.20,0.08,-0.25,
3.071,-0.06,0.06,0.96,0.20,0.08,-0.25,
3.071,-0.06,0.06,0.96,0.19,0.15,-0.27,
3.074,-0.07,0.06,0.96,0.19,0.15,-0.27,
3.076,-0.07,0.06,0.96,0.19,0.15,-0.27,
3.076,-0.07,0.06,0.96,0.15,0.15,-0.28,
3.079,-0.08,0.06,0.95,0.15,0.15,-0.28,
3.081,-0.08,0.06,0.96,0.15,0.15,-0.28,
3.082,-0.08,0.06,0.96,0.05,0.18,-0.33,
3.084,-0.08,0.06,0.96,0.05,0.18,-0.33,
3.087,-0.08,0.07,0.97,0.05,0.18,-0.33,
3.088,-0.08,0.07,0.97,-0.02,0.20,-0.34,
3.089,-0.07,0.07,0.97,-0.02,0.20,-0.34,
3.092,-0.06,0.07,0.98,-0.02,0.20,-0.34,
3.092,-0.06,0.07,0.98,-0.02,0.21,-0.23,
3.094,-0.06,0.07,0.99,-0.02,0.21,-0.23,
3.096,-0.06,0.07,0.99,-0.02,0.21,-0.23,
3.096,-0.06,0.07,0.99,0.08,0.24,-0.12,
3.098,-0.05,0.07,0.99,0.08,0.24,-0.12,
3.103,-0.05,0.06,0.99,0.08,0.24,-0.12,
3.104,-0.05,0.06,0.99,0.14,0.25,-0.01,
3.104,-0.05,0.06,0.99,0.14,0.25,-0.01,
3.106,-0.05,0.05,0.99,0.14,0.25,-0.01,
3.106,-0.05,0.05,0.99,0.21,0.22,-0.03,
3.108,-0.05,0.05,0.99,0.21,0.22,-0.03,
3.111,-0.05,0.05,0.99,0.21,0.22,-0.03,
3.111,-0.05,0.05,0.99,0.23,0.12,0.02,
3.113,-0.06,0.05,0.99,0.23,0.12,0.02,
3.117,-0.05,0.05,0.99,0.23,0.12,0.02,
3.117,-0.05,0.05,0.99,0.20,0.05,-0.00,
3.119,-0.06,0.05,0.99,0.20,0.05,-0.00,
3.121,-0.06,0.06,0.99,0.20,0.05,-0.00,
3.122,-0.06,0.06,0.99,0.14,0.04,-0.00,
3.123,-0.06,0.06,0.99,0.14,0.04,-0.00,
3.126,-0.06,0.06,0.99,0.14,0.04,-0.00,
3.126,-0.06,0.06,0.99,0.11,0.10,-0.00,
3.128,-0.05,0.06,0.98,0.11,0.10,-0.00,
3.131,-0.06,0.07,0.97,0.11,0.10,-0.00,
3.131,-0.06,0.07,0.97,0.13,0.16,-0.01,
3.133,-0.07,0.07,0.97,0.13,0.16,-0.01,
3.136,-0.07,0.07,0.97,0.13,0.16,-0.01,
3.137,-0.07,0.07,0.97,0.17,0.18,-0.14,
3.138,-0.08,0.08,0.97,0.17,0.18,-0.14,
3.14,-0.07,0.08,0.97,0.17,0.18,-0.14,
3.141,-0.07,0.08,0.97,0.01,0.22,-0.14,
3.143,-0.07,0.08,0.97,0.01,0.22,-0.14,
3.146,-0.07,0.08,0.97,-0.01,0.28,-0.16,
3.146,-0.07,0.08,0.98,-0.01,0.28,-0.16,
3.149,-0.07,0.08,0.98,-0.01,0.28,-0.16,
3.15,-0.07,0.08,0.98,-0.01,0.28,-0.16,
3.151,-0.07,0.08,0.98,0.02,0.28,-0.13,
3.153,-0.07,0.07,0.97,0.02,0.28,-0.13,
3.155,-0.07,0.07,0.98,0.02,0.28,-0.13,
3.156,-0.07,0.07,0.98,0.05,0.25,-0.12,
3.158,-0.07,0.06,0.98,0.05,0.25,-0.12,
3.16,-0.07,0.06,1.00,0.05,0.25,-0.12,
3.161,-0.07,0.06,1.00,0.07,0.21,-0.13,
3.163,-0.08,0.05,1.00,0.07,0.21,-0.13,
3.165,-0.08,0.05,1.01,0.07,0.21,-0.13,
3.166,-0.08,0.05,1.01,0.03,0.08,0.01,
3.168,-0.09,0.05,1.02,0.03,0.08,0.01,
3.173,-0.10,0.05,1.03,0.03,0.08,0.01,
3.174,-0.10,0.05,1.03,-0.05,-0.00,0.19,
3.174,-0.09,0.06,1.02,-0.05,-0.00,0.19,
3.175,-0.09,0.07,1.02,-0.05,-0.00,0.19,
3.176,-0.09,0.07,1.02,-0.18,-0.01,0.37,
3.178,-0.08,0.07,1.01,-0.18,-0.01,0.37,
3.18,-0.08,0.07,1.01,-0.15,0.08,0.27,
3.18,-0.08,0.07,1.00,-0.15,0.08,0.27,
3.183,-0.08,0.07,0.99,-0.15,0.08,0.27,
3.186,-0.07,0.07,0.99,-0.15,0.08,0.27,
3.187,-0.07,0.07,0.99,-0.06,0.13,0.16,
3.188,-0.06,0.06,0.98,-0.06,0.13,0.16,
3.19,-0.06,0.06,0.98,-0.06,0.13,0.16,
3.19,-0.06,0.06,0.98,0.00,0.13,-0.00,
3.193,-0.07,0.06,0.98,0.00,0.13,-0.00,
3.195,-0.08,0.06,0.99,0.00,0.13,-0.00,
3.195,-0.08,0.06,0.99,0.15,0.04,-0.05,
3.197,-0.08,0.07,0.99,0.15,0.04,-0.05,
3.2,-0.08,0.07,0.98,0.15,0.04,-0.05,
3.201,-0.08,0.07,0.98,0.02,0.08,-0.04,
3.203,-0.09,0.08,0.98,0.02,0.08,-0.04,
3.205,-0.09,0.08,0.98,0.02,0.08,-0.04,
3.206,-0.09,0.08,0.98,-0.07,0.11,-0.03,
3.207,-0.09,0.08,0.98,-0.07,0.11,-0.03,
3.21,-0.10,0.09,0.99,-0.07,0.11,-0.03,
3.211,-0.10,0.09,0.99,-0.14,0.20,-0.09,
3.212,-0.10,0.09,0.99,-0.14,0.20,-0.09,
3.215,-0.11,0.08,0.99,-0.14,0.20,-0.09,
3.215,-0.11,0.08,0.99,-0.21,0.28,-0.05,
3.218,-0.12,0.08,0.98,-0.21,0.28,-0.05,
3.22,-0.13,0.08,0.97,-0.21,0.28,-0.05,
3.221,-0.13,0.08,0.97,-0.31,0.26,-0.03,
3.222,-0.12,0.08,0.97,-0.31,0.26,-0.03,
3.225,-0.12,0.08,0.97,-0.31,0.26,-0.03,
3.226,-0.12,0.08,0.97,-0.48,0.18,-0.15,
3.227,-0.12,0.08,0.98,-0.48,0.18,-0.15,
3.23,-0.12,0.08,0.98,-0.49,0.20,-0.20,
3.23,-0.11,0.08,0.98,-0.49,0.20,-0.20,
3.232,-0.11,0.07,0.98,-0.49,0.20,-0.20,
3.235,-0.10,0.07,0.98,-0.49,0.20,-0.20,
3.235,-0.10,0.07,0.98,-0.40,0.20,-0.12,
3.238,-0.10,0.07,0.99,-0.40,0.20,-0.12,
3.239,-0.09,0.06,0.99,-0.40,0.20,-0.12,
3.24,-0.09,0.06,0.99,-0.28,0.10,-0.09,
3.242,-0.09,0.06,1.00,-0.28,0.10,-0.09,
3.244,-0.09,0.06,0.99,-0.28,0.10,-0.09,
3.245,-0.09,0.06,0.99,-0.21,0.03,0.00,
3.247,-0.08,0.06,0.99,-0.21,0.03,0.00,
3.249,-0.06,0.06,1.00,-0.21,0.03,0.00,
3.25,-0.06,0.06,1.00,-0.16,-0.05,0.07,
3.252,-0.04,0.05,0.99,-0.16,-0.05,0.07,
3.257,-0.04,0.05,0.99,0.03,-0.07,0.06,
3.258,-0.03,0.06,0.99,0.03,-0.07,0.06,
3.258,-0.02,0.06,0.98,0.03,-0.07,0.06,
3.261,-0.01,0.05,0.98,0.03,-0.07,0.06,
3.261,-0.01,0.05,0.98,0.35,-0.09,0.03,
3.262,-0.01,0.05,0.97,0.35,-0.09,0.03,
3.264,-0.01,0.05,0.96,0.35,-0.09,0.03,
3.265,-0.01,0.05,0.96,0.51,-0.10,-0.05,
3.267,-0.00,0.05,0.96,0.51,-0.10,-0.05,
3.27,-0.00,0.05,0.97,0.51,-0.10,-0.05,
3.271,-0.00,0.05,0.97,0.58,-0.12,-0.22,
3.272,-0.00,0.05,0.97,0.58,-0.12,-0.22,
3.274,-0.00,0.05,0.97,0.58,-0.12,-0.22,
3.274,-0.00,0.05,0.97,0.64,-0.19,-0.23,
3.277,0.00,0.05,0.97,0.64,-0.19,-0.23,
3.279,0.00,0.05,0.97,0.65,-0.15,-0.17,
3.279,0.00,0.05,0.97,0.65,-0.15,-0.17,
3.282,0.00,0.05,0.98,0.65,-0.15,-0.17,
3.284,0.01,0.05,0.98,0.65,-0.15,-0.17,
3.284,0.01,0.05,0.98,0.70,-0.16,-0.14,
3.287,0.01,0.05,0.99,0.70,-0.16,-0.14,
3.29,0.01,0.05,0.98,0.70,-0.16,-0.14,
3.29,0.01,0.05,0.98,0.72,-0.18,-0.08,
3.292,0.01,0.05,0.98,0.72,-0.18,-0.08,
3.294,0.00,0.05,0.98,0.72,-0.18,-0.08,
3.296,0.00,0.05,0.98,0.76,-0.22,-0.03,
3.297,-0.00,0.06,0.97,0.76,-0.22,-0.03,
3.299,-0.00,0.06,0.97,0.76,-0.22,-0.03,
3.299,-0.00,0.06,0.97,0.72,-0.20,-0.07,
3.301,-0.01,0.06,0.98,0.72,-0.20,-0.07,
3.305,-0.02,0.07,0.97,0.72,-0.20,-0.07,
3.306,-0.02,0.07,0.97,0.64,-0.12,-0.14,
3.306,-0.02,0.07,0.97,0.64,-0.12,-0.14,
3.309,-0.03,0.08,0.96,0.64,-0.12,-0.14,
3.309,-0.03,0.08,0.96,0.51,-0.05,-0.13,
3.312,-0.04,0.08,0.96,0.51,-0.05,-0.13,
3.314,-0.04,0.08,0.96,0.51,-0.05,-0.13,
3.314,-0.04,0.08,0.96,0.40,0.01,-0.21,
3.318,-0.05,0.09,0.96,0.40,0.01,-0.21,
3.319,-0.05,0.09,0.96,0.40,0.01,-0.21,
3.32,-0.05,0.09,0.96,0.30,0.08,-0.26,
3.323,-0.05,0.10,0.96,0.30,0.08,-0.26,
3.324,-0.06,0.10,0.96,0.30,0.08,-0.26,
3.324,-0.06,0.10,0.96,0.20,0.14,-0.28,
3.327,-0.07,0.10,0.97,0.20,0.14,-0.28,
3.328,-0.07,0.10,0.97,0.20,0.14,-0.28,
3.329,-0.07,0.10,0.97,0.15,0.21,-0.24,
3.332,-0.07,0.10,0.98,0.15,0.21,-0.24,
3.334,-0.06,0.10,0.97,0.15,0.21,-0.24,
3.335,-0.06,0.10,0.97,0.05,0.24,-0.14,
3.336,-0.07,0.10,0.97,0.05,0.24,-0.14,
3.339,-0.07,0.10,0.98,0.05,0.24,-0.14,
3.339,-0.07,0.10,0.98,0.10,0.23,-0.09,
3.342,-0.07,0.10,0.97,0.10,0.23,-0.09,
3.344,-0.07,0.09,0.98,0.10,0.23,-0.09,
3.345,-0.07,0.09,0.98,0.02,0.18,-0.10,
3.347,-0.07,0.09,0.98,0.02,0.18,-0.10,
3.349,-0.07,0.09,0.98,0.02,0.18,-0.10,
3.349,-0.07,0.09,0.98,0.03,0.11,-0.10,
3.352,-0.07,0.09,0.97,0.03,0.11,-0.10,
3.358,-0.07,0.09,0.98,0.03,0.11,-0.10,
3.358,-0.07,0.09,0.98,0.07,0.07,-0.05,
3.359,-0.07,0.09,0.97,0.07,0.07,-0.05,
3.359,-0.07,0.10,0.96,0.07,0.07,-0.05,
3.359,-0.07,0.10,0.96,0.07,0.06,-0.08,
3.361,-0.07,0.10,0.95,0.07,0.06,-0.08,
3.363,-0.07,0.10,0.94,0.07,0.06,-0.08,
3.364,-0.07,0.10,0.94,0.09,0.10,-0.18,
3.366,-0.08,0.10,0.93,0.09,0.10,-0.18,
3.369,-0.08,0.10,0.93,0.09,0.10,-0.18,
3.369,-0.08,0.10,0.93,0.07,0.12,-0.39,
3.371,-0.09,0.10,0.93,0.07,0.12,-0.39,
3.374,-0.09,0.10,0.93,0.02,0.14,-0.51,
3.374,-0.09,0.11,0.93,0.02,0.14,-0.51,
3.376,-0.09,0.12,0.93,0.02,0.14,-0.51,
3.379,-0.09,0.12,0.94,0.02,0.14,-0.51,
3.379,-0.09,0.12,0.94,-0.05,0.16,-0.49,
3.381,-0.07,0.10,0.88,-0.05,0.16,-0.49,
3.383,-0.03,0.07,0.67,-0.05,0.16,-0.49,
3.383,-0.03,0.07,0.67,-0.10,0.28,-0.46,
3.386,-0.05,0.13,0.65,-0.10,0.28,-0.46,
3.388,-0.03,0.18,0.81,-0.10,0.28,-0.46,
3.389,-0.03,0.18,0.81,0.33,-0.00,-1.99,
3.391,-0.02,0.17,0.89,0.33,-0.00,-1.99,
3.393,-0.03,0.16,0.90,0.33,-0.00,-1.99,
3.394,-0.03,0.16,0.90,0.44,0.63,-2.46,
3.396,-0.08,0.16,0.92,0.44,0.63,-2.46,
3.399,-0.12,0.16,0.97,0.44,0.63,-2.46,
3.399,-0.12,0.16,0.97,0.57,0.78,-0.79,
3.402,-0.15,0.14,1.01,0.57,0.78,-0.79,
3.404,-0.15,0.14,1.01,-0.13,0.72,-0.31,
3.404,-0.16,0.13,1.03,-0.13,0.72,-0.31,
3.407,-0.14,0.13,1.03,-0.13,0.72,-0.31,
3.408,-0.14,0.13,1.03,-0.66,0.50,0.43,
3.408,-0.13,0.12,1.01,-0.66,0.50,0.43,
3.41,-0.13,0.11,0.99,-0.66,0.50,0.43,
3.414,-0.13,0.10,0.98,-0.66,0.50,0.43,
3.414,-0.13,0.10,0.98,-0.48,0.33,0.43,
3.416,-0.12,0.09,0.99,-0.48,0.33,0.43,
3.418,-0.13,0.09,1.00,-0.48,0.33,0.43,
3.419,-0.13,0.09,1.00,-0.36,0.18,0.10,
3.421,-0.14,0.09,1.01,-0.36,0.18,0.10,
3.423,-0.15,0.10,1.01,-0.36,0.18,0.10,
3.423,-0.15,0.10,1.01,-0.36,0.03,0.16,
3.426,-0.16,0.10,1.01,-0.36,0.03,0.16,
3.428,-0.17,0.12,1.02,-0.36,0.03,0.16,
3.428,-0.17,0.12,1.02,-0.53,0.07,0.30,
3.431,-0.17,0.12,1.03,-0.53,0.07,0.30,
3.433,-0.17,0.12,1.04,-0.53,0.07,0.30,
3.433,-0.17,0.12,1.04,-0.72,0.23,0.36,
3.436,-0.17,0.12,1.05,-0.72,0.23,0.36,
3.438,-0.16,0.11,1.07,-0.72,0.23,0.36,
3.438,-0.16,0.11,1.07,-0.80,0.36,0.53,
3.44,-0.17,0.11,1.10,-0.80,0.36,0.53,
3.443,-0.16,0.10,1.11,-0.80,0.36,0.53,
3.443,-0.16,0.10,1.11,-0.77,0.31,0.83,
3.445,-0.16,0.10,1.13,-0.77,0.31,0.83,
3.447,-0.17,0.10,1.15,-0.77,0.31,0.83,
3.448,-0.17,0.10,1.15,-0.74,0.15,1.22,
3.45,-0.16,0.10,1.15,-0.74,0.15,1.22,
3.453,-0.15,0.10,1.16,-0.74,0.15,1.22,
3.453,-0.15,0.10,1.16,-0.75,0.09,1.54,
3.458,-0.14,0.10,1.17,-0.75,0.09,1.54,
3.459,-0.13,0.10,1.18,-0.75,0.09,1.54,
3.459,-0.13,0.10,1.18,-0.64,0.09,1.64,
3.462,-0.13,0.10,1.17,-0.64,0.09,1.64,
3.462,-0.12,0.10,1.16,-0.64,0.09,1.64,
3.463,-0.12,0.10,1.16,-0.49,0.09,1.85,
3.465,-0.11,0.10,1.14,-0.49,0.09,1.85,
3.467,-0.10,0.09,1.12,-0.49,0.09,1.85,
3.467,-0.10,0.09,1.12,-0.39,0.10,1.74,
3.476,-0.08,0.08,1.10,-0.39,0.10,1.74,
3.476,-0.08,0.08,1.08,-0.39,0.10,1.74,
3.476,-0.08,0.08,1.08,-0.19,-0.03,1.42,
3.477,-0.09,0.09,1.06,-0.19,-0.03,1.42,
3.477,-0.09,0.09,1.06,0.02,-0.18,1.00,
3.477,-0.06,0.08,1.04,0.02,-0.18,1.00,
3.48,-0.06,0.10,1.01,0.02,-0.18,1.00,
3.482,-0.06,0.12,0.99,0.02,-0.18,1.00,
3.483,-0.06,0.12,0.99,0.09,-0.14,0.61,
3.485,-0.06,0.13,0.98,0.09,-0.14,0.61,
3.498,-0.05,0.13,0.97,0.09,-0.14,0.61,
3.499,-0.05,0.13,0.97,0.20,0.11,0.13,
3.499,-0.03,0.13,0.97,0.20,0.11,0.13,
3.499,-0.02,0.13,0.96,0.20,0.11,0.13,
3.499,-0.02,0.13,0.96,0.27,0.28,-0.09,
3.5,-0.02,0.12,0.95,0.27,0.28,-0.09,
3.5,-0.02,0.11,0.94,0.27,0.28,-0.09,
3.5,-0.02,0.11,0.94,0.53,0.29,-0.26,
3.5,-0.02,0.10,0.94,0.53,0.29,-0.26,
