
time,gFx,gFy,gFz,ax,ay,az,
0.004,0.03,0.02,1.04,0.05,0.22,0.14,
0.004,0.03,0.01,1.04,0.05,0.22,0.14,
0.005,0.03,0.01,1.04,0.23,0.28,0.34,
0.005,0.03,0.01,1.04,0.23,0.28,0.34,
0.005,0.03,0.00,1.04,0.23,0.28,0.34,
0.005,0.03,0.00,1.04,0.29,0.23,0.42,
0.006,0.02,-0.00,1.05,0.29,0.23,0.42,
0.009,0.02,-0.01,1.06,0.29,0.23,0.42,
0.009,0.02,-0.01,1.06,0.25,0.15,0.44,
0.011,0.02,-0.01,1.06,0.25,0.15,0.44,
0.013,0.03,-0.02,1.05,0.25,0.15,0.44,
0.013,0.03,-0.02,1.05,0.17,-0.00,0.55,
0.016,0.03,-0.01,1.06,0.17,-0.00,0.55,
0.021,0.03,-0.01,1.06,0.15,-0.09,0.56,
0.022,0.03,-0.01,1.06,0.15,-0.09,0.56,
0.022,0.03,-0.02,1.06,0.15,-0.09,0.56,
0.024,0.03,-0.02,1.06,0.21,-0.06,0.62,
0.024,0.03,-0.02,1.05,0.21,-0.06,0.62,
0.026,0.03,-0.02,1.05,0.21,-0.06,0.62,
0.028,0.03,-0.02,1.05,0.21,-0.06,0.62,
0.029,0.03,-0.02,1.05,0.20,-0.10,0.53,
0.031,0.03,-0.03,1.05,0.20,-0.10,0.53,
0.034,0.03,-0.03,1.05,0.20,-0.10,0.53,
0.034,0.03,-0.03,1.05,0.19,-0.12,0.47,
0.037,0.03,-0.03,1.05,0.19,-0.12,0.47,
0.038,0.04,-0.03,1.05,0.19,-0.12,0.47,
0.039,0.04,-0.03,1.05,0.19,-0.19,0.48,
0.04,0.04,-0.03,1.06,0.19,-0.19,0.48,
0.043,0.04,-0.03,1.06,0.24,-0.22,0.47,
0.043,0.04,-0.03,1.06,0.24,-0.22,0.47,
0.045,0.05,-0.03,1.06,0.24,-0.22,0.47,
0.048,0.06,-0.03,1.05,0.24,-0.22,0.47,
0.048,0.06,-0.03,1.05,0.25,-0.19,0.57,
0.05,0.06,-0.03,1.04,0.25,-0.19,0.57,
0.053,0.07,-0.03,1.03,0.25,-0.19,0.57,
0.054,0.07,-0.03,1.03,0.34,-0.18,0.51,
0.055,0.08,-0.03,1.02,0.34,-0.18,0.51,
0.058,0.09,-0.04,1.00,0.34,-0.18,0.51,
0.059,0.09,-0.04,1.00,0.46,-0.19,0.35,
0.061,0.09,-0.04,0.99,0.46,-0.19,0.35,
0.063,0.09,-0.05,0.97,0.46,-0.19,0.35,
0.063,0.09,-0.05,0.97,0.58,-0.25,0.07,
0.065,0.09,-0.05,0.96,0.58,-0.25,0.07,
0.067,0.09,-0.05,0.96,0.63,-0.29,-0.20,
0.068,0.09,-0.04,0.95,0.63,-0.29,-0.20,
0.074,0.10,-0.04,0.95,0.63,-0.29,-0.20,
0.074,0.10,-0.04,0.94,0.63,-0.29,-0.20,
0.074,0.10,-0.04,0.94,0.67,-0.30,-0.43,
0.075,0.10,-0.04,0.94,0.67,-0.30,-0.43,
0.077,0.10,-0.04,0.94,0.74,-0.24,-0.55,
0.078,0.09,-0.04,0.94,0.74,-0.24,-0.55,
0.08,0.09,-0.03,0.93,0.74,-0.24,-0.55,
0.083,0.09,-0.03,0.93,0.67,-0.25,-0.59,
0.083,0.09,-0.02,0.90,0.67,-0.25,-0.59,
0.085,0.07,-0.03,0.91,0.67,-0.25,-0.59,
0.087,0.06,-0.03,0.91,0.67,-0.25,-0.59,
0.088,0.06,-0.03,0.91,0.57,-0.08,-0.86,
0.09,0.06,-0.04,0.91,0.57,-0.08,-0.86,
0.093,0.06,-0.04,0.91,0.33,-0.08,-0.86,
0.093,0.06,-0.03,0.91,0.33,-0.08,-0.86,
0.095,0.07,-0.04,0.91,0.33,-0.08,-0.86,
0.097,0.07,-0.04,0.92,0.33,-0.08,-0.86,
0.098,0.07,-0.04,0.92,0.29,-0.12,-0.86,
0.1,0.09,-0.04,0.93,0.29,-0.12,-0.86,
0.102,0.10,-0.04,0.93,0.29,-0.12,-0.86,
0.102,0.10,-0.04,0.93,0.36,-0.11,-0.78,
0.104,0.10,-0.05,0.93,0.36,-0.11,-0.78,
0.108,0.10,-0.05,0.95,0.36,-0.11,-0.78,
0.108,0.10,-0.05,0.95,0.52,-0.13,-0.64,
0.11,0.10,-0.05,0.95,0.52,-0.13,-0.64,
0.113,0.10,-0.06,0.96,0.52,-0.13,-0.64,
0.113,0.10,-0.06,0.96,0.59,-0.22,-0.56,
0.115,0.10,-0.06,0.96,0.59,-0.22,-0.56,
0.117,0.10,-0.06,0.96,0.57,-0.21,-0.39,
0.118,0.10,-0.07,0.96,0.57,-0.21,-0.39,
0.12,0.10,-0.07,0.97,0.57,-0.21,-0.39,
0.122,0.09,-0.08,0.98,0.57,-0.21,-0.39,
0.122,0.09,-0.08,0.98,0.55,-0.27,-0.34,
0.125,0.09,-0.09,0.98,0.55,-0.27,-0.34,
0.127,0.09,-0.09,0.99,0.55,-0.27,-0.34,
0.127,0.09,-0.09,0.99,0.47,-0.35,-0.20,
0.13,0.09,-0.10,1.01,0.47,-0.35,-0.20,
0.132,0.09,-0.10,1.01,0.44,-0.45,-0.08,
0.133,0.09,-0.10,1.02,0.44,-0.45,-0.08,
0.135,0.09,-0.10,1.03,0.44,-0.45,-0.08,
0.137,0.09,-0.11,1.03,0.44,-0.45,-0.08,
0.138,0.09,-0.11,1.03,0.37,-0.53,0.23,
0.139,0.09,-0.11,1.04,0.37,-0.53,0.23,
0.142,0.09,-0.11,1.04,0.36,-0.56,0.33,
0.142,0.08,-0.11,1.03,0.36,-0.56,0.33,
0.144,0.08,-0.11,1.02,0.36,-0.56,0.33,
0.146,0.08,-0.11,1.03,0.36,-0.56,0.33,
0.147,0.08,-0.11,1.03,0.30,-0.57,0.36,
0.149,0.08,-0.11,1.02,0.30,-0.57,0.36,
0.152,0.08,-0.11,1.02,0.30,-0.57,0.36,
0.152,0.08,-0.11,1.02,0.22,-0.59,0.32,
0.154,0.09,-0.11,1.03,0.22,-0.59,0.32,
0.157,0.14,-0.09,1.12,0.22,-0.59,0.32,
0.157,0.14,-0.09,1.12,0.21,-0.60,0.29,
0.159,0.20,-0.09,1.23,0.21,-0.60,0.29,
0.162,0.20,-0.09,1.23,0.55,-0.41,0.79,
0.162,0.17,-0.12,1.14,0.55,-0.41,0.79,
0.164,0.15,-0.15,1.07,0.55,-0.41,0.79,
0.167,0.15,-0.15,1.07,1.21,-0.45,1.86,
0.167,0.12,-0.16,1.03,1.21,-0.45,1.86,
0.17,0.15,-0.14,1.00,1.21,-0.45,1.86,
0.171,0.19,-0.14,0.98,1.21,-0.45,1.86,
0.172,0.19,-0.14,0.98,0.72,-0.91,0.54,
0.174,0.22,-0.15,0.97,0.72,-0.91,0.54,
0.177,0.34,-0.15,0.97,0.72,-0.91,0.54,
0.177,0.34,-0.15,0.97,1.01,-0.82,-0.10,
0.178,0.30,-0.14,0.97,1.01,-0.82,-0.10,
0.181,0.23,-0.13,0.95,1.01,-0.82,-0.10,
0.182,0.23,-0.13,0.95,2.07,-0.90,-0.25,
0.184,0.18,-0.11,0.95,2.07,-0.90,-0.25,
0.194,0.15,-0.11,0.95,2.07,-0.90,-0.25,
0.194,0.15,-0.11,0.95,1.91,-0.68,-0.35,
0.195,0.11,-0.08,0.96,1.91,-0.68,-0.35,
0.195,0.11,-0.08,0.96,0.95,-0.47,-0.46,
0.195,0.05,-0.04,0.98,0.95,-0.47,-0.46,
0.196,-0.00,-0.01,1.03,0.95,-0.47,-0.46,
0.196,-0.00,-0.01,1.03,0.10,0.03,-0.24,
0.196,-0.03,0.01,1.07,0.10,0.03,-0.24,
0.199,-0.03,0.01,1.11,0.10,0.03,-0.24,
0.201,-0.01,0.02,1.12,0.10,0.03,-0.24,
0.201,-0.01,0.02,1.12,-0.82,0.59,0.52,
0.204,0.01,0.05,1.13,-0.82,0.59,0.52,
0.206,0.03,0.10,1.14,-0.82,0.59,0.52,
0.206,0.03,0.10,1.14,-0.90,0.81,1.14,
0.209,0.02,0.12,1.14,-0.90,0.81,1.14,
0.211,-0.02,0.09,1.13,-0.90,0.81,1.14,
0.211,-0.02,0.09,1.13,-0.48,1.33,1.36,
0.214,-0.07,0.06,1.11,-0.48,1.33,1.36,
0.216,-0.07,0.06,1.11,-0.67,1.63,1.33,
0.216,-0.11,0.03,1.08,-0.67,1.63,1.33,
0.219,-0.15,0.01,1.03,-0.67,1.63,1.33,
0.221,-0.17,-0.01,0.98,-0.67,1.63,1.33,
0.221,-0.17,-0.01,0.98,-1.55,1.06,0.92,
0.224,-0.17,-0.01,0.94,-1.55,1.06,0.92,
0.225,-0.15,-0.01,0.91,-1.55,1.06,0.92,
0.226,-0.15,-0.01,0.91,-2.21,0.57,0.07,
0.229,-0.15,0.00,0.89,-2.21,0.57,0.07,
0.231,-0.13,0.00,0.88,-2.21,0.57,0.07,
0.231,-0.13,0.00,0.88,-2.20,0.46,-0.69,
0.234,-0.13,0.00,0.87,-2.20,0.46,-0.69,
0.238,-0.12,0.01,0.86,-2.20,0.46,-0.69,
0.238,-0.12,0.01,0.86,-2.01,0.57,-1.12,
0.238,-0.12,0.01,0.86,-2.01,0.57,-1.12,
0.241,-0.12,0.01,0.86,-1.85,0.58,-1.31,
0.241,-0.12,0.02,0.86,-1.85,0.58,-1.31,
0.244,-0.11,0.02,0.87,-1.85,0.58,-1.31,
0.246,-0.10,0.02,0.87,-1.85,0.58,-1.31,
0.247,-0.10,0.02,0.87,-1.80,0.71,-1.30,
0.248,-0.09,0.02,0.87,-1.80,0.71,-1.30,
0.251,-0.08,0.01,0.87,-1.80,0.71,-1.30,
0.251,-0.08,0.01,0.87,-1.67,0.76,-1.23,
0.253,-0.07,0.00,0.88,-1.67,0.76,-1.23,
0.256,-0.06,-0.01,0.90,-1.67,0.76,-1.23,
0.256,-0.06,-0.01,0.90,-1.42,0.66,-1.20,
0.258,-0.03,-0.03,0.91,-1.42,0.66,-1.20,
0.261,-0.03,-0.03,0.91,-1.20,0.51,-1.03,
0.261,0.01,-0.04,0.96,-1.20,0.51,-1.03,
0.263,0.02,-0.04,0.99,-1.20,0.51,-1.03,
0.266,0.02,-0.04,0.99,-0.70,0.24,-0.53,
0.267,0.02,-0.04,0.98,-0.70,0.24,-0.53,
0.268,0.02,-0.04,0.99,-0.70,0.24,-0.53,
0.27,0.02,-0.06,1.00,-0.70,0.24,-0.53,
0.271,0.02,-0.06,1.00,-0.41,0.23,-0.08,
0.273,0.01,-0.07,1.00,-0.41,0.23,-0.08,
0.276,0.01,-0.07,1.00,-0.41,0.23,-0.08,
0.276,0.01,-0.07,1.00,-0.43,0.08,-0.02,
0.278,0.00,-0.08,1.01,-0.43,0.08,-0.02,
0.281,-0.01,-0.08,1.01,-0.43,0.08,-0.02,
0.281,-0.01,-0.08,1.01,-0.51,-0.10,0.06,
0.283,-0.01,-0.07,1.02,-0.51,-0.10,0.06,
0.286,-0.02,-0.07,1.02,-0.51,-0.10,0.06,
0.286,-0.02,-0.07,1.02,-0.66,-0.17,0.17,
0.289,-0.03,-0.07,1.03,-0.66,-0.17,0.17,
0.29,-0.03,-0.07,1.03,-0.83,-0.10,0.27,
0.291,-0.04,-0.06,1.03,-0.83,-0.10,0.27,
0.293,-0.04,-0.05,1.04,-0.83,-0.10,0.27,
0.296,-0.05,-0.05,1.04,-0.83,-0.10,0.27,
0.296,-0.05,-0.05,1.04,-0.96,0.01,0.36,
0.298,-0.05,-0.03,1.03,-0.96,0.01,0.36,
0.301,-0.05,-0.03,1.03,-1.10,0.16,0.43,
0.301,-0.05,-0.03,1.03,-1.10,0.16,0.43,
0.303,-0.04,-0.03,1.03,-1.10,0.16,0.43,
0.308,-0.04,-0.02,1.03,-1.10,0.16,0.43,
0.309,-0.04,-0.02,1.03,-1.11,0.32,0.33,
0.309,-0.04,-0.02,1.02,-1.11,0.32,0.33,
0.31,-0.04,-0.02,1.01,-1.11,0.32,0.33,
0.31,-0.04,-0.02,1.01,-1.08,0.42,0.33,
0.312,-0.04,-0.02,1.00,-1.08,0.42,0.33,
0.315,-0.04,-0.02,1.00,-1.05,0.44,0.20,
0.315,-0.02,-0.03,0.99,-1.05,0.44,0.20,
0.317,-0.01,-0.03,0.99,-1.05,0.44,0.20,
0.32,-0.00,-0.04,0.98,-1.05,0.44,0.20,
0.32,-0.00,-0.04,0.98,-0.98,0.39,0.04,
0.322,-0.00,-0.04,0.99,-0.98,0.39,0.04,
0.325,-0.00,-0.04,0.98,-0.98,0.39,0.04,
0.327,-0.00,-0.04,0.98,-0.75,0.31,-0.07,
0.327,-0.00,-0.04,0.98,-0.75,0.31,-0.07,
0.33,-0.00,-0.05,0.98,-0.75,0.31,-0.07,
0.33,-0.00,-0.05,0.98,-0.67,0.23,-0.09,
0.333,-0.00,-0.06,0.99,-0.67,0.23,-0.09,
0.335,0.00,-0.06,0.99,-0.67,0.23,-0.09,
0.335,0.00,-0.06,0.99,-0.71,0.18,-0.14,
0.338,0.00,-0.06,0.99,-0.71,0.18,-0.14,
0.34,0.00,-0.06,0.99,-0.68,0.10,-0.06,
0.34,0.01,-0.06,0.99,-0.68,0.10,-0.06,
0.342,0.01,-0.06,0.99,-0.68,0.10,-0.06,
0.344,0.01,-0.06,0.99,-0.68,0.10,-0.06,
0.345,0.01,-0.06,0.99,-0.63,0.08,-0.04,
0.347,0.01,-0.06,1.00,-0.63,0.08,-0.04,
0.349,0.01,-0.06,1.00,-0.63,0.08,-0.04,
0.35,0.01,-0.06,1.00,-0.60,0.09,-0.05,
0.352,0.01,-0.06,1.00,-0.60,0.09,-0.05,
0.355,0.01,-0.06,1.00,-0.60,0.09,-0.05,
0.356,0.01,-0.06,1.00,-0.54,0.12,0.05,
0.357,0.00,-0.06,0.99,-0.54,0.12,0.05,
0.359,0.00,-0.05,0.99,-0.54,0.12,0.05,
0.36,0.00,-0.05,0.99,-0.58,0.10,0.05,
0.362,0.01,-0.06,0.99,-0.58,0.10,0.05,
0.364,0.01,-0.06,0.99,-0.63,0.13,-0.02,
0.364,0.01,-0.05,0.98,-0.63,0.13,-0.02,
0.366,0.01,-0.06,0.99,-0.63,0.13,-0.02,
0.37,0.01,-0.06,0.98,-0.63,0.13,-0.02,
0.37,0.01,-0.06,0.98,-0.59,0.15,-0.07,
0.372,0.02,-0.05,0.98,-0.59,0.15,-0.07,
0.374,0.01,-0.06,0.99,-0.59,0.15,-0.07,
0.374,0.01,-0.06,0.99,-0.53,0.14,-0.05,
0.377,0.01,-0.06,0.99,-0.53,0.14,-0.05,
0.379,0.01,-0.06,0.99,-0.53,0.14,-0.05,
0.379,0.01,-0.06,0.99,-0.52,0.12,-0.09,
0.382,0.01,-0.07,0.99,-0.52,0.12,-0.09,
0.384,0.02,-0.07,0.99,-0.52,0.12,-0.09,
0.384,0.02,-0.07,0.99,-0.52,0.08,-0.01,
0.386,0.01,-0.07,0.99,-0.52,0.08,-0.01,
0.39,0.01,-0.07,0.99,-0.50,0.06,-0.03,
0.39,0.01,-0.07,1.00,-0.50,0.06,-0.03,
0.391,0.02,-0.08,1.00,-0.50,0.06,-0.03,
0.394,0.02,-0.08,1.02,-0.50,0.06,-0.03,
0.394,0.02,-0.08,1.02,-0.52,0.00,0.04,
0.396,0.02,-0.08,1.03,-0.52,0.00,0.04,
0.399,0.01,-0.08,1.03,-0.52,0.00,0.04,
0.399,0.01,-0.08,1.03,-0.47,-0.03,0.17,
0.401,0.01,-0.08,1.04,-0.47,-0.03,0.17,
0.408,0.01,-0.08,1.04,-0.47,-0.03,0.17,
0.408,0.01,-0.08,1.04,-0.50,-0.01,0.34,
0.408,0.01,-0.07,1.04,-0.50,-0.01,0.34,
0.409,0.01,-0.08,1.06,-0.50,-0.01,0.34,
0.409,0.01,-0.08,1.06,-0.52,-0.02,0.44,
0.411,0.00,-0.08,1.06,-0.52,-0.02,0.44,
0.414,0.00,-0.08,1.06,-0.53,0.02,0.55,
0.414,-0.00,-0.08,1.07,-0.53,0.02,0.55,
0.416,-0.01,-0.08,1.08,-0.53,0.02,0.55,
0.419,-0.01,-0.07,1.07,-0.53,0.02,0.55,
0.419,-0.01,-0.07,1.07,-0.63,-0.01,0.69,
0.421,-0.01,-0.07,1.08,-0.63,-0.01,0.69,
0.424,-0.02,-0.07,1.08,-0.63,-0.01,0.69,
0.424,-0.02,-0.07,1.08,-0.72,0.03,0.78,
0.427,-0.03,-0.07,1.07,-0.72,0.03,0.78,
0.429,-0.03,-0.07,1.07,-0.72,0.03,0.78,
0.429,-0.03,-0.07,1.07,-0.77,0.06,0.83,
0.431,-0.03,-0.07,1.07,-0.77,0.06,0.83,
0.433,-0.03,-0.07,1.08,-0.77,0.06,0.83,
0.434,-0.03,-0.07,1.08,-0.90,0.08,0.77,
0.436,-0.04,-0.07,1.07,-0.90,0.08,0.77,
0.439,-0.04,-0.07,1.07,-0.92,0.11,0.78,
0.44,-0.05,-0.06,1.07,-0.92,0.11,0.78,
0.441,-0.04,-0.06,1.06,-0.92,0.11,0.78,
0.443,-0.04,-0.06,1.05,-0.92,0.11,0.78,
0.444,-0.04,-0.06,1.05,-0.99,0.15,0.75,
0.446,-0.04,-0.06,1.05,-0.99,0.15,0.75,
0.448,-0.04,-0.06,1.05,-0.99,0.15,0.75,
0.449,-0.04,-0.06,1.05,-0.96,0.20,0.61,
0.451,-0.05,-0.06,1.04,-0.96,0.20,0.61,
0.457,-0.05,-0.06,1.04,-0.96,0.20,0.61,
0.457,-0.05,-0.06,1.04,-0.98,0.19,0.53,
0.457,-0.06,-0.06,1.04,-0.98,0.19,0.53,
0.458,-0.06,-0.06,1.04,-0.98,0.19,0.53,
0.459,-0.06,-0.06,1.04,-1.04,0.20,0.42,
0.461,-0.06,-0.06,1.04,-1.04,0.20,0.42,
0.463,-0.06,-0.06,1.04,-1.09,0.19,0.43,
0.463,-0.07,-0.06,1.04,-1.09,0.19,0.43,
0.466,-0.07,-0.06,1.04,-1.09,0.19,0.43,
0.468,-0.07,-0.06,1.04,-1.09,0.19,0.43,
0.468,-0.07,-0.06,1.04,-1.15,0.20,0.42,
0.473,-0.07,-0.05,1.04,-1.15,0.20,0.42,
0.474,-0.07,-0.05,1.04,-1.21,0.21,0.41,
0.474,-0.07,-0.05,1.04,-1.21,0.21,0.41,
0.475,-0.07,-0.05,1.04,-1.21,0.21,0.41,
0.478,-0.07,-0.05,1.05,-1.21,0.21,0.41,
0.478,-0.07,-0.05,1.05,-1.20,0.28,0.44,
0.48,-0.05,-0.07,1.00,-1.20,0.28,0.44,
0.483,-0.05,-0.07,0.90,-1.20,0.28,0.44,
0.483,-0.05,-0.07,0.90,-1.21,0.28,0.46,
0.485,-0.08,-0.10,0.92,-1.21,0.28,0.46,
0.489,-0.08,-0.10,0.92,-0.98,0.09,-0.47,
0.49,-0.09,-0.11,1.00,-0.98,0.09,-0.47,
0.492,-0.08,-0.10,1.05,-0.98,0.09,-0.47,
0.493,-0.07,-0.08,1.07,-0.98,0.09,-0.47,
0.494,-0.07,-0.08,1.07,-1.37,-0.25,-0.32,
0.495,-0.07,-0.07,1.11,-1.37,-0.25,-0.32,
0.498,-0.06,-0.06,1.12,-1.37,-0.25,-0.32,
0.498,-0.06,-0.06,1.12,-1.32,-0.11,0.63,
0.501,-0.05,-0.05,1.12,-1.32,-0.11,0.63,
0.503,-0.04,-0.04,1.10,-1.32,-0.11,0.63,
0.503,-0.04,-0.04,1.10,-1.22,0.18,1.15,
0.51,-0.03,-0.02,1.07,-1.22,0.18,1.15,
0.511,-0.03,-0.01,1.05,-1.22,0.18,1.15,
0.511,-0.03,-0.01,1.05,-1.03,0.41,1.08,
0.512,-0.03,-0.01,1.04,-1.03,0.41,1.08,
0.513,-0.03,-0.01,1.04,-0.89,0.68,0.61,
0.513,-0.02,-0.02,1.04,-0.89,0.68,0.61,
0.516,-0.02,-0.03,1.05,-0.89,0.68,0.61,
0.518,-0.02,-0.04,1.05,-0.89,0.68,0.61,
0.519,-0.02,-0.04,1.05,-0.86,0.69,0.42,
0.52,-0.02,-0.05,1.05,-0.86,0.69,0.42,
0.523,-0.03,-0.06,1.05,-0.86,0.69,0.42,
0.524,-0.03,-0.06,1.05,-0.83,0.51,0.49,
0.526,-0.03,-0.07,1.04,-0.83,0.51,0.49,
0.528,-0.03,-0.07,1.04,-0.86,0.30,0.49,
0.529,-0.03,-0.07,1.03,-0.86,0.30,0.49,
0.531,-0.03,-0.06,1.02,-0.86,0.30,0.49,
0.533,-0.03,-0.06,1.01,-0.86,0.30,0.49,
0.533,-0.03,-0.06,1.01,-0.91,0.15,0.35,
0.536,-0.02,-0.05,1.00,-0.91,0.15,0.35,
0.539,-0.02,-0.05,1.00,-0.91,0.20,0.13,
0.539,-0.02,-0.05,1.00,-0.91,0.20,0.13,
0.541,-0.02,-0.05,1.00,-0.91,0.20,0.13,
0.543,-0.02,-0.05,1.00,-0.85,0.31,0.07,
0.543,-0.01,-0.04,1.00,-0.85,0.31,0.07,
0.546,-0.01,-0.04,1.00,-0.85,0.31,0.07,
0.548,-0.01,-0.04,0.99,-0.85,0.31,0.07,
0.549,-0.01,-0.04,0.99,-0.75,0.37,0.03,
0.551,-0.01,-0.05,0.99,-0.75,0.37,0.03,
0.553,-0.01,-0.05,0.99,-0.75,0.37,0.03,
0.553,-0.01,-0.05,0.99,-0.75,0.38,-0.03,
0.555,-0.01,-0.05,0.97,-0.75,0.38,-0.03,
0.558,-0.01,-0.05,0.97,-0.75,0.38,-0.03,
0.558,-0.01,-0.05,0.97,-0.71,0.33,-0.09,
0.56,-0.01,-0.06,0.97,-0.71,0.33,-0.09,
0.563,-0.01,-0.06,0.97,-0.73,0.31,-0.25,
0.563,-0.01,-0.06,0.97,-0.73,0.31,-0.25,
0.565,-0.01,-0.07,0.97,-0.73,0.31,-0.25,
0.567,-0.01,-0.07,0.97,-0.73,0.31,-0.25,
0.567,-0.01,-0.07,0.97,-0.75,0.21,-0.24,
0.57,0.01,-0.08,0.97,-0.75,0.21,-0.24,
0.572,0.01,-0.08,0.97,-0.75,0.21,-0.24,
0.573,0.01,-0.08,0.97,-0.70,0.13,-0.28,
0.575,0.02,-0.08,0.97,-0.70,0.13,-0.28,
0.577,0.02,-0.08,0.97,-0.70,0.13,-0.28,
0.578,0.02,-0.08,0.97,-0.55,0.04,-0.28,
0.58,0.04,-0.08,0.98,-0.55,0.04,-0.28,
0.583,0.04,-0.09,0.98,-0.55,0.04,-0.28,
0.583,0.04,-0.09,0.98,-0.44,0.04,-0.23,
0.585,0.06,-0.09,0.98,-0.44,0.04,-0.23,
0.589,0.06,-0.09,0.98,-0.24,-0.04,-0.17,
0.59,0.06,-0.09,0.98,-0.24,-0.04,-0.17,
0.59,0.06,-0.09,0.99,-0.24,-0.04,-0.17,
0.593,0.06,-0.10,0.99,-0.24,-0.04,-0.17,
0.593,0.06,-0.10,0.99,-0.08,-0.06,-0.15,
0.595,0.07,-0.09,1.00,-0.08,-0.06,-0.15,
0.597,0.08,-0.10,1.00,-0.08,-0.06,-0.15,
0.597,0.08,-0.10,1.00,-0.02,-0.12,-0.06,
0.6,0.08,-0.11,1.00,-0.02,-0.12,-0.06,
0.603,0.08,-0.11,1.00,-0.02,-0.12,-0.06,
0.603,0.08,-0.11,1.00,0.05,-0.16,0.01,
0.604,0.08,-0.12,1.01,0.05,-0.16,0.01,
0.607,0.09,-0.12,1.01,0.05,-0.16,0.01,
0.607,0.09,-0.12,1.01,0.10,-0.26,0.06,
0.609,0.09,-0.12,1.01,0.10,-0.26,0.06,
0.613,0.09,-0.12,1.01,0.16,-0.36,0.13,
0.613,0.09,-0.13,1.01,0.16,-0.36,0.13,
0.615,0.09,-0.12,1.01,0.16,-0.36,0.13,
0.618,0.09,-0.12,1.01,0.16,-0.36,0.13,
0.619,0.09,-0.12,1.01,0.22,-0.40,0.14,
0.62,0.09,-0.13,1.01,0.22,-0.40,0.14,
0.625,0.09,-0.13,1.00,0.22,-0.40,0.14,
0.626,0.09,-0.13,1.00,0.23,-0.41,0.17,
0.626,0.09,-0.13,1.01,0.23,-0.41,0.17,
0.627,0.09,-0.13,1.01,0.23,-0.41,0.17,
0.627,0.09,-0.13,1.01,0.24,-0.47,0.10,
0.629,0.08,-0.13,1.01,0.24,-0.47,0.10,
0.631,0.08,-0.13,1.00,0.24,-0.47,0.10,
0.632,0.08,-0.13,1.00,0.19,-0.50,0.09,
0.634,0.08,-0.14,1.00,0.19,-0.50,0.09,
0.637,0.08,-0.14,1.00,0.13,-0.51,0.05,
0.637,0.08,-0.14,1.00,0.13,-0.51,0.05,
0.64,0.07,-0.13,1.00,0.13,-0.51,0.05,
0.641,0.08,-0.13,0.99,0.13,-0.51,0.05,
0.642,0.08,-0.13,0.99,0.12,-0.57,0.03,
0.644,0.08,-0.13,1.00,0.12,-0.57,0.03,
0.647,0.08,-0.13,0.99,0.12,-0.57,0.03,
0.647,0.08,-0.13,0.99,0.11,-0.53,-0.02,
0.649,0.08,-0.13,0.98,0.11,-0.53,-0.02,
0.651,0.08,-0.13,0.98,0.11,-0.53,-0.02,
0.652,0.08,-0.13,0.98,0.17,-0.54,-0.03,
0.655,0.08,-0.13,0.98,0.17,-0.54,-0.03,
0.658,0.08,-0.12,0.97,0.17,-0.54,-0.03,
0.658,0.08,-0.12,0.97,0.17,-0.53,-0.16,
0.659,0.07,-0.12,0.97,0.17,-0.53,-0.16,
0.662,0.07,-0.12,0.97,0.15,-0.48,-0.24,
0.662,0.08,-0.12,0.96,0.15,-0.48,-0.24,
0.663,0.07,-0.11,0.96,0.15,-0.48,-0.24,
0.666,0.07,-0.11,0.96,0.15,-0.48,-0.24,
0.666,0.07,-0.11,0.96,0.11,-0.44,-0.34,
0.668,0.08,-0.11,0.95,0.11,-0.44,-0.34,
0.672,0.08,-0.10,0.95,0.11,-0.44,-0.34,
0.672,0.08,-0.10,0.95,0.10,-0.38,-0.40,
0.674,0.08,-0.11,0.94,0.10,-0.38,-0.40,
0.676,0.09,-0.10,0.95,0.10,-0.38,-0.40,
0.676,0.09,-0.10,0.95,0.13,-0.31,-0.44,
0.678,0.09,-0.11,0.95,0.13,-0.31,-0.44,
0.681,0.09,-0.11,0.94,0.13,-0.31,-0.44,
0.681,0.09,-0.11,0.94,0.20,-0.32,-0.52,
0.683,0.09,-0.11,0.94,0.20,-0.32,-0.52,
0.686,0.09,-0.11,0.94,0.27,-0.32,-0.50,
0.686,0.10,-0.10,0.95,0.27,-0.32,-0.50,
0.689,0.10,-0.10,0.95,0.27,-0.32,-0.50,
0.691,0.10,-0.11,0.95,0.27,-0.32,-0.50,
0.691,0.10,-0.11,0.95,0.33,-0.30,-0.50,
0.693,0.09,-0.11,0.96,0.33,-0.30,-0.50,
0.696,0.10,-0.11,0.96,0.33,-0.30,-0.50,
0.696,0.10,-0.11,0.96,0.33,-0.32,-0.42,
0.698,0.10,-0.11,0.97,0.33,-0.32,-0.42,
0.701,0.09,-0.11,0.97,0.33,-0.32,-0.42,
0.701,0.09,-0.11,0.97,0.34,-0.40,-0.35,
0.703,0.09,-0.12,0.98,0.34,-0.40,-0.35,
0.706,0.10,-0.12,0.98,0.34,-0.40,-0.35,
0.706,0.10,-0.12,0.98,0.33,-0.41,-0.25,
0.708,0.09,-0.12,0.98,0.33,-0.41,-0.25,
0.711,0.09,-0.12,0.98,0.35,-0.44,-0.13,
0.711,0.09,-0.12,0.99,0.35,-0.44,-0.13,
0.713,0.09,-0.12,1.00,0.35,-0.44,-0.13,
0.716,0.09,-0.12,0.99,0.35,-0.44,-0.13,
0.716,0.09,-0.12,0.99,0.32,-0.43,-0.10,
0.718,0.09,-0.12,0.98,0.32,-0.43,-0.10,
0.726,0.09,-0.12,0.99,0.32,-0.43,-0.10,
0.727,0.09,-0.12,0.99,0.31,-0.47,-0.04,
0.727,0.08,-0.13,0.99,0.31,-0.47,-0.04,
0.727,0.08,-0.13,0.99,0.31,-0.47,-0.04,
0.727,0.08,-0.13,0.99,0.30,-0.49,-0.11,
0.728,0.09,-0.13,0.98,0.30,-0.49,-0.11,
0.731,0.08,-0.13,0.98,0.30,-0.49,-0.11,
0.731,0.08,-0.13,0.98,0.25,-0.58,-0.09,
0.733,0.08,-0.13,0.98,0.25,-0.58,-0.09,
0.736,0.08,-0.13,0.98,0.25,-0.58,-0.09,
0.737,0.08,-0.13,0.98,0.27,-0.59,-0.19,
0.739,0.08,-0.13,0.98,0.27,-0.59,-0.19,
0.74,0.09,-0.13,0.98,0.27,-0.59,-0.19,
0.741,0.09,-0.13,0.98,0.25,-0.59,-0.17,
0.743,0.08,-0.13,0.98,0.25,-0.59,-0.17,
0.745,0.08,-0.12,0.98,0.25,-0.59,-0.17,
0.746,0.08,-0.12,0.98,0.27,-0.56,-0.16,
0.748,0.08,-0.12,0.99,0.27,-0.56,-0.16,
0.751,0.08,-0.12,1.00,0.27,-0.56,-0.16,
0.751,0.08,-0.12,1.00,0.25,-0.52,-0.17,
0.753,0.08,-0.12,0.99,0.25,-0.52,-0.17,
0.757,0.08,-0.12,1.00,0.25,-0.52,-0.17,
0.758,0.08,-0.12,1.00,0.22,-0.49,-0.05,
0.758,0.07,-0.12,1.00,0.22,-0.49,-0.05,
0.76,0.07,-0.12,1.00,0.18,-0.45,-0.03,
0.761,0.07,-0.11,1.01,0.18,-0.45,-0.03,
0.763,0.06,-0.11,1.01,0.18,-0.45,-0.03,
0.765,0.06,-0.11,1.02,0.18,-0.45,-0.03,
0.765,0.06,-0.11,1.02,0.11,-0.40,0.07,
0.767,0.06,-0.10,1.02,0.11,-0.40,0.07,
0.77,0.05,-0.10,1.02,0.11,-0.40,0.07,
0.77,0.05,-0.10,1.02,0.05,-0.38,0.15,
0.772,0.05,-0.09,1.02,0.05,-0.38,0.15,
0.775,0.05,-0.08,1.02,0.05,-0.38,0.15,
0.775,0.05,-0.08,1.02,-0.02,-0.26,0.21,
0.777,0.05,-0.08,1.01,-0.02,-0.26,0.21,
0.78,0.04,-0.08,1.01,-0.02,-0.26,0.21,
0.78,0.04,-0.08,1.01,-0.06,-0.13,0.22,
0.782,0.03,-0.07,1.01,-0.06,-0.13,0.22,
0.785,0.03,-0.07,1.01,-0.06,-0.13,0.22,
0.785,0.03,-0.07,1.01,-0.12,-0.07,0.15,
0.787,0.02,-0.06,1.00,-0.12,-0.07,0.15,
0.79,0.01,-0.06,1.00,-0.12,-0.07,0.15,
0.79,0.01,-0.06,1.00,-0.24,0.01,0.14,
0.792,0.01,-0.06,0.99,-0.24,0.01,0.14,
0.795,0.01,-0.06,0.99,-0.24,0.01,0.14,
0.795,0.01,-0.06,0.99,-0.36,0.08,0.03,
0.797,0.00,-0.06,0.99,-0.36,0.08,0.03,
0.8,0.00,-0.06,0.99,-0.36,0.08,0.03,
0.8,0.00,-0.06,0.99,-0.40,0.10,-0.04,
0.802,-0.00,-0.06,0.99,-0.40,0.10,-0.04,
0.806,-0.01,-0.05,0.99,-0.40,0.10,-0.04,
0.806,-0.01,-0.05,0.99,-0.45,0.10,-0.06,
0.807,-0.02,-0.05,0.99,-0.45,0.10,-0.06,
0.81,-0.02,-0.05,0.99,-0.52,0.12,-0.09,
0.81,-0.02,-0.05,0.99,-0.52,0.12,-0.09,
0.812,-0.03,-0.05,1.00,-0.52,0.12,-0.09,
0.815,-0.03,-0.05,1.00,-0.52,0.12,-0.09,
0.815,-0.03,-0.05,1.00,-0.62,0.11,-0.08,
0.817,-0.04,-0.04,1.00,-0.62,0.11,-0.08,
0.821,-0.04,-0.04,1.01,-0.62,0.11,-0.08,
0.824,-0.04,-0.04,1.01,-0.71,0.18,0.01,
0.826,-0.04,-0.04,1.01,-0.71,0.18,0.01,
0.826,-0.05,-0.04,1.01,-0.71,0.18,0.01,
0.826,-0.05,-0.04,1.01,-0.74,0.21,0.04,
0.83,-0.05,-0.04,1.00,-0.74,0.21,0.04,
0.83,-0.05,-0.04,1.00,-0.80,0.24,0.07,
0.831,-0.06,-0.03,1.00,-0.80,0.24,0.07,
0.832,-0.06,-0.04,1.00,-0.80,0.24,0.07,
0.835,-0.06,-0.04,1.00,-0.83,0.24,0.01,
0.835,-0.07,-0.04,1.01,-0.83,0.24,0.01,
0.837,-0.07,-0.04,1.01,-0.83,0.24,0.01,
0.846,-0.08,-0.04,1.01,-0.83,0.24,0.01,
0.846,-0.08,-0.04,1.01,-0.96,0.21,0.07,
0.847,-0.07,-0.04,1.01,-0.96,0.21,0.07,
0.847,-0.07,-0.04,1.02,-0.96,0.21,0.07,
0.847,-0.07,-0.04,1.02,-1.02,0.15,0.07,
0.847,-0.07,-0.04,1.02,-1.02,0.15,0.07,
0.85,-0.07,-0.04,1.01,-1.02,0.15,0.07,
0.85,-0.07,-0.04,1.01,-0.98,0.16,0.14,
0.852,-0.06,-0.04,1.02,-0.98,0.16,0.14,
0.855,-0.07,-0.04,1.02,-0.98,0.16,0.14,
0.855,-0.07,-0.04,1.02,-0.94,0.16,0.15,
0.857,-0.07,-0.04,1.01,-0.94,0.16,0.15,
0.859,-0.07,-0.04,1.01,-0.88,0.16,0.18,
0.86,-0.07,-0.04,1.01,-0.88,0.16,0.18,
0.862,-0.07,-0.04,1.01,-0.88,0.16,0.18,
0.865,-0.07,-0.04,1.00,-0.88,0.16,0.18,
0.865,-0.07,-0.04,1.00,-0.90,0.13,0.11,
0.867,-0.07,-0.04,1.00,-0.90,0.13,0.11,
0.87,-0.07,-0.05,1.00,-0.90,0.13,0.11,
0.87,-0.07,-0.05,1.00,-0.90,0.11,0.05,
0.872,-0.07,-0.05,0.99,-0.90,0.11,0.05,
0.875,-0.08,-0.05,0.99,-0.90,0.11,0.05,
0.875,-0.08,-0.05,0.99,-0.91,0.07,-0.03,
0.876,-0.08,-0.05,0.99,-0.91,0.07,-0.03,
0.88,-0.08,-0.04,0.98,-0.91,0.07,-0.03,
0.88,-0.08,-0.04,0.98,-0.95,0.01,-0.11,
0.882,-0.08,-0.04,0.98,-0.95,0.01,-0.11,
0.885,-0.08,-0.04,0.98,-0.97,0.07,-0.13,
0.885,-0.08,-0.03,0.98,-0.97,0.07,-0.13,
0.887,-0.07,-0.03,0.97,-0.97,0.07,-0.13,
0.89,-0.08,-0.03,0.98,-0.97,0.07,-0.13,
0.891,-0.08,-0.03,0.98,-0.97,0.13,-0.20,
0.892,-0.07,-0.03,0.97,-0.97,0.13,-0.20,
0.895,-0.07,-0.03,0.97,-0.97,0.13,-0.20,
0.895,-0.07,-0.03,0.97,-0.91,0.22,-0.25,
0.897,-0.07,-0.02,0.97,-0.91,0.22,-0.25,
0.9,-0.07,-0.02,0.96,-0.91,0.22,-0.25,
0.9,-0.07,-0.02,0.96,-0.88,0.23,-0.32,
0.902,-0.06,-0.03,0.95,-0.88,0.23,-0.32,
0.905,-0.06,-0.03,0.95,-0.88,0.23,-0.32,
0.905,-0.06,-0.03,0.95,-0.84,0.25,-0.34,
0.907,-0.06,-0.03,0.94,-0.84,0.25,-0.34,
0.909,-0.06,-0.03,0.94,-0.75,0.19,-0.48,
0.909,-0.05,-0.03,0.94,-0.75,0.19,-0.48,
0.912,-0.05,-0.03,0.94,-0.75,0.19,-0.48,
0.914,-0.05,-0.03,0.93,-0.75,0.19,-0.48,
0.915,-0.05,-0.03,0.93,-0.66,0.17,-0.56,
0.917,-0.05,-0.03,0.93,-0.66,0.17,-0.56,
0.919,-0.05,-0.03,0.93,-0.66,0.17,-0.56,
0.92,-0.05,-0.03,0.93,-0.61,0.19,-0.61,
0.922,-0.06,-0.03,0.93,-0.61,0.19,-0.61,
0.924,-0.06,-0.03,0.93,-0.61,0.19,-0.61,
0.924,-0.06,-0.03,0.93,-0.59,0.16,-0.68,
0.927,-0.06,-0.04,0.93,-0.59,0.16,-0.68,
0.929,-0.06,-0.04,0.94,-0.59,0.16,-0.68,
0.93,-0.06,-0.04,0.94,-0.66,0.11,-0.67,
0.932,-0.05,-0.05,0.95,-0.66,0.11,-0.67,
0.934,-0.05,-0.05,0.95,-0.65,0.03,-0.59,
0.935,-0.05,-0.05,0.95,-0.65,0.03,-0.59,
0.937,-0.05,-0.05,0.96,-0.65,0.03,-0.59,
0.943,-0.04,-0.05,0.96,-0.65,0.03,-0.59,
0.944,-0.04,-0.05,0.96,-0.58,-0.02,-0.48,
0.944,-0.03,-0.05,0.96,-0.58,-0.02,-0.48,
0.944,-0.04,-0.05,0.96,-0.58,-0.02,-0.48,
0.944,-0.04,-0.05,0.96,-0.51,-0.04,-0.39,
0.946,-0.04,-0.05,0.97,-0.51,-0.04,-0.39,
0.949,-0.04,-0.05,0.98,-0.51,-0.04,-0.39,
0.949,-0.04,-0.05,0.98,-0.42,-0.04,-0.32,
0.951,-0.04,-0.05,0.98,-0.42,-0.04,-0.32,
0.953,-0.04,-0.05,0.98,-0.42,-0.04,-0.32,
0.954,-0.04,-0.05,0.98,-0.43,-0.05,-0.20,
0.957,-0.04,-0.05,0.98,-0.43,-0.05,-0.20,
0.959,-0.03,-0.05,0.98,-0.43,-0.05,-0.20,
0.96,-0.03,-0.05,0.98,-0.42,-0.10,-0.16,
0.96,-0.04,-0.05,0.98,-0.42,-0.10,-0.16,
0.963,-0.04,-0.05,0.98,-0.42,-0.10,-0.16,
0.963,-0.04,-0.05,0.98,-0.40,-0.07,-0.14,
0.965,-0.03,-0.05,0.98,-0.40,-0.07,-0.14,
0.969,-0.03,-0.04,0.99,-0.40,-0.07,-0.14,
0.969,-0.03,-0.04,0.99,-0.41,-0.06,-0.14,
0.971,-0.04,-0.04,0.98,-0.41,-0.06,-0.14,
0.973,-0.04,-0.04,0.98,-0.41,-0.06,-0.14,
0.973,-0.04,-0.04,0.98,-0.36,-0.01,-0.09,
0.975,-0.04,-0.04,0.98,-0.36,-0.01,-0.09,
0.978,-0.04,-0.04,0.98,-0.36,-0.01,-0.09,
0.978,-0.04,-0.04,0.98,-0.44,0.01,-0.16,
0.98,-0.04,-0.03,0.98,-0.44,0.01,-0.16,
0.983,-0.03,-0.03,0.98,-0.44,0.01,-0.16,
0.983,-0.03,-0.03,0.98,-0.47,0.05,-0.18,
0.985,-0.03,-0.03,0.97,-0.47,0.05,-0.18,
0.988,-0.03,-0.03,0.97,-0.47,0.05,-0.18,
0.988,-0.03,-0.03,0.97,-0.39,0.11,-0.17,
0.992,-0.03,-0.03,0.97,-0.39,0.11,-0.17,
0.993,-0.03,-0.03,0.96,-0.39,0.11,-0.17,
0.993,-0.03,-0.03,0.96,-0.33,0.13,-0.24,
0.995,-0.01,-0.03,0.96,-0.33,0.13,-0.24,
0.998,-0.02,-0.04,0.96,-0.33,0.13,-0.24,
0.998,-0.02,-0.04,0.96,-0.31,0.14,-0.28,
1.0,-0.02,-0.04,0.96,-0.31,0.14,-0.28,
1.003,-0.01,-0.04,0.95,-0.31,0.14,-0.28,
1.003,-0.01,-0.04,0.95,-0.20,0.07,-0.31,
1.005,-0.01,-0.04,0.96,-0.20,0.07,-0.31,
1.009,-0.01,-0.05,0.96,-0.20,0.07,-0.31,
1.009,-0.01,-0.05,0.96,-0.18,0.05,-0.39,
1.01,-0.00,-0.05,0.96,-0.18,0.05,-0.39,
1.013,-0.00,-0.05,0.96,-0.18,0.05,-0.39,
1.013,-0.00,-0.05,0.96,-0.12,0.03,-0.36,
1.015,-0.00,-0.05,0.96,-0.12,0.03,-0.36,
1.018,0.00,-0.05,0.96,-0.12,0.03,-0.36,
1.018,0.00,-0.05,0.96,-0.07,-0.04,-0.32,
1.02,0.01,-0.05,0.96,-0.07,-0.04,-0.32,
1.025,0.01,-0.05,0.96,-0.07,-0.04,-0.32,
1.026,0.01,-0.05,0.96,-0.05,-0.08,-0.36,
1.026,0.01,-0.06,0.96,-0.05,-0.08,-0.36,
1.028,0.02,-0.06,0.96,-0.05,-0.08,-0.36,
1.028,0.02,-0.06,0.96,0.03,-0.05,-0.34,
1.03,0.03,-0.06,0.96,0.03,-0.05,-0.34,
1.033,0.04,-0.07,0.96,0.03,-0.05,-0.34,
1.033,0.04,-0.07,0.96,0.07,-0.11,-0.34,
1.035,0.04,-0.07,0.96,0.07,-0.11,-0.34,
1.037,0.05,-0.07,0.96,0.07,-0.11,-0.34,
1.038,0.05,-0.07,0.96,0.24,-0.18,-0.32,
1.04,0.05,-0.07,0.96,0.24,-0.18,-0.32,
1.042,0.05,-0.07,0.96,0.24,-0.18,-0.32,
1.043,0.05,-0.07,0.96,0.33,-0.23,-0.32,
1.045,0.06,-0.07,0.97,0.33,-0.23,-0.32,
1.047,0.07,-0.08,0.96,0.33,-0.23,-0.32,
1.047,0.07,-0.08,0.96,0.43,-0.26,-0.31,
1.05,0.09,-0.08,0.96,0.43,-0.26,-0.31,
1.052,0.09,-0.09,0.96,0.43,-0.26,-0.31,
1.052,0.09,-0.09,0.96,0.57,-0.25,-0.27,
1.054,0.10,-0.09,0.97,0.57,-0.25,-0.27,
1.06,0.11,-0.09,0.96,0.57,-0.25,-0.27,
1.061,0.11,-0.09,0.96,0.77,-0.35,-0.29,
1.061,0.12,-0.09,0.96,0.77,-0.35,-0.29,
1.062,0.12,-0.10,0.96,0.77,-0.35,-0.29,
1.063,0.12,-0.10,0.96,0.89,-0.40,-0.28,
1.064,0.13,-0.10,0.96,0.89,-0.40,-0.28,
1.067,0.14,-0.10,0.95,0.89,-0.40,-0.28,
1.067,0.14,-0.10,0.95,1.06,-0.44,-0.29,
1.069,0.14,-0.10,0.96,1.06,-0.44,-0.29,
1.074,0.15,-0.10,0.95,1.06,-0.44,-0.29,
1.074,0.15,-0.10,0.95,1.13,-0.49,-0.34,
1.076,0.15,-0.11,0.95,1.13,-0.49,-0.34,
1.078,0.16,-0.11,0.95,1.13,-0.49,-0.34,
1.078,0.16,-0.11,0.95,1.26,-0.50,-0.35,
1.079,0.16,-0.11,0.94,1.26,-0.50,-0.35,
1.082,0.16,-0.11,0.93,1.26,-0.50,-0.35,
1.082,0.16,-0.11,0.93,1.33,-0.54,-0.43,
1.084,0.17,-0.12,0.93,1.33,-0.54,-0.43,
1.087,0.17,-0.12,0.92,1.33,-0.54,-0.43,
1.088,0.17,-0.12,0.92,1.38,-0.59,-0.54,
1.09,0.17,-0.13,0.91,1.38,-0.59,-0.54,
1.092,0.18,-0.13,0.91,1.38,-0.59,-0.54,
1.092,0.18,-0.13,0.91,1.44,-0.63,-0.66,
1.094,0.18,-0.13,0.91,1.44,-0.63,-0.66,
1.097,0.18,-0.13,0.91,1.44,-0.63,-0.66,
1.097,0.18,-0.13,0.91,1.48,-0.74,-0.77,
1.099,0.18,-0.14,0.91,1.48,-0.74,-0.77,
1.103,0.18,-0.13,0.91,1.48,-0.74,-0.77,
1.103,0.18,-0.13,0.91,1.52,-0.74,-0.80,
1.104,0.19,-0.14,0.91,1.52,-0.74,-0.80,
1.108,0.19,-0.14,0.91,1.52,-0.74,-0.80,
1.108,0.19,-0.14,0.91,1.51,-0.77,-0.76,
1.109,0.19,-0.14,0.91,1.51,-0.77,-0.76,
1.112,0.19,-0.15,0.92,1.51,-0.77,-0.76,
1.112,0.19,-0.15,0.92,1.54,-0.82,-0.80,
1.114,0.19,-0.15,0.93,1.54,-0.82,-0.80,
1.117,0.19,-0.14,0.93,1.54,-0.82,-0.80,
1.117,0.19,-0.14,0.93,1.56,-0.84,-0.73,
1.119,0.19,-0.15,0.93,1.56,-0.84,-0.73,
1.121,0.19,-0.15,0.93,1.56,-0.84,-0.73,
1.122,0.19,-0.15,0.93,1.55,-0.84,-0.61,
1.125,0.19,-0.15,0.94,1.55,-0.84,-0.61,
1.127,0.19,-0.16,0.94,1.55,-0.84,-0.61,
1.127,0.19,-0.16,0.94,1.53,-0.86,-0.54,
1.129,0.19,-0.16,0.94,1.53,-0.86,-0.54,
1.132,0.19,-0.16,0.94,1.48,-0.89,-0.49,
1.132,0.20,-0.16,0.95,1.48,-0.89,-0.49,
1.134,0.19,-0.16,0.96,1.48,-0.89,-0.49,
1.136,0.19,-0.16,0.96,1.48,-0.89,-0.49,
1.137,0.19,-0.16,0.96,1.49,-0.92,-0.42,
1.14,0.19,-0.16,0.96,1.49,-0.92,-0.42,
1.142,0.19,-0.16,0.97,1.49,-0.92,-0.42,
1.143,0.19,-0.16,0.97,1.45,-0.92,-0.29,
1.144,0.19,-0.16,0.98,1.45,-0.92,-0.29,
1.147,0.19,-0.16,0.98,1.42,-0.90,-0.19,
1.147,0.19,-0.15,0.97,1.42,-0.90,-0.19,
1.148,0.19,-0.15,0.98,1.42,-0.90,-0.19,
1.151,0.19,-0.14,0.98,1.42,-0.90,-0.19,
1.152,0.19,-0.14,0.98,1.40,-0.82,-0.11,
1.153,0.19,-0.13,0.98,1.40,-0.82,-0.11,
1.162,0.19,-0.13,0.98,1.43,-0.73,-0.03,
1.163,0.19,-0.13,0.98,1.43,-0.73,-0.03,
1.163,0.18,-0.13,0.99,1.43,-0.73,-0.03,
1.163,0.17,-0.12,0.99,1.43,-0.73,-0.03,
1.164,0.17,-0.12,0.99,1.39,-0.56,-0.03,
1.164,0.16,-0.12,0.99,1.39,-0.56,-0.03,
1.167,0.16,-0.12,0.99,1.24,-0.49,0.01,
1.167,0.15,-0.11,0.98,1.24,-0.49,0.01,
1.169,0.15,-0.11,0.98,1.24,-0.49,0.01,
1.172,0.14,-0.10,0.97,1.24,-0.49,0.01,
1.172,0.14,-0.10,0.97,1.07,-0.40,-0.03,
1.174,0.15,-0.09,0.97,1.07,-0.40,-0.03,
1.176,0.14,-0.09,0.95,1.07,-0.40,-0.03,
1.177,0.14,-0.09,0.95,0.94,-0.27,-0.08,
1.179,0.14,-0.09,0.94,0.94,-0.27,-0.08,
1.182,0.14,-0.09,0.94,0.94,-0.17,-0.24,
1.182,0.14,-0.09,0.94,0.94,-0.17,-0.24,
1.183,0.15,-0.09,0.93,0.94,-0.17,-0.24,
1.186,0.14,-0.08,0.91,0.94,-0.17,-0.24,
1.187,0.14,-0.08,0.91,0.89,-0.13,-0.45,
1.188,0.14,-0.09,0.90,0.89,-0.13,-0.45,
1.192,0.14,-0.09,0.89,0.89,-0.13,-0.45,
1.193,0.14,-0.09,0.89,0.95,-0.10,-0.63,
1.193,0.15,-0.09,0.88,0.95,-0.10,-0.63,
1.197,0.15,-0.09,0.88,0.94,-0.14,-0.86,
1.197,0.15,-0.09,0.88,0.94,-0.14,-0.86,
1.199,0.15,-0.10,0.87,0.94,-0.14,-0.86,
1.201,0.15,-0.10,0.87,0.94,-0.14,-0.86,
1.202,0.15,-0.10,0.87,0.99,-0.15,-1.03,
1.204,0.16,-0.10,0.86,0.99,-0.15,-1.03,
1.207,0.16,-0.10,0.86,0.99,-0.22,-1.11,
1.207,0.16,-0.11,0.87,0.99,-0.22,-1.11,
1.209,0.16,-0.11,0.87,0.99,-0.22,-1.11,
1.211,0.16,-0.12,0.87,0.99,-0.22,-1.11,
1.211,0.16,-0.12,0.87,1.05,-0.28,-1.15,
1.214,0.16,-0.12,0.88,1.05,-0.28,-1.15,
1.216,0.16,-0.13,0.89,1.05,-0.28,-1.15,
1.216,0.16,-0.13,0.89,1.07,-0.36,-1.10,
1.219,0.17,-0.13,0.89,1.07,-0.36,-1.10,
1.221,0.17,-0.13,0.90,1.07,-0.36,-1.10,
1.222,0.17,-0.13,0.90,1.08,-0.43,-0.98,
1.223,0.16,-0.13,0.91,1.08,-0.43,-0.98,
1.226,0.17,-0.13,0.92,1.08,-0.43,-0.98,
1.226,0.17,-0.13,0.92,1.11,-0.49,-0.86,
1.228,0.16,-0.13,0.94,1.11,-0.49,-0.86,
1.231,0.16,-0.13,0.94,1.07,-0.46,-0.66,
1.231,0.16,-0.13,0.95,1.07,-0.46,-0.66,
1.234,0.16,-0.13,0.96,1.07,-0.46,-0.66,
1.236,0.16,-0.12,0.97,1.07,-0.46,-0.66,
1.237,0.16,-0.12,0.97,1.03,-0.39,-0.39,
1.239,0.15,-0.12,0.99,1.03,-0.39,-0.39,
1.242,0.14,-0.12,1.00,1.03,-0.39,-0.39,
1.243,0.14,-0.12,1.00,1.00,-0.34,-0.13,
1.243,0.14,-0.12,1.01,1.00,-0.34,-0.13,
1.246,0.13,-0.12,1.02,1.00,-0.34,-0.13,
1.246,0.13,-0.12,1.02,0.87,-0.30,0.14,
1.248,0.13,-0.12,1.02,0.87,-0.30,0.14,
1.251,0.14,-0.11,1.02,0.87,-0.30,0.14,
1.251,0.14,-0.11,1.02,0.78,-0.28,0.32,
1.253,0.14,-0.11,1.03,0.78,-0.28,0.32,
1.256,0.14,-0.11,1.03,0.78,-0.23,0.40,
1.256,0.14,-0.11,1.02,0.78,-0.23,0.40,
1.258,0.14,-0.11,1.02,0.78,-0.23,0.40,
1.26,0.15,-0.11,1.02,0.78,-0.23,0.40,
1.261,0.15,-0.11,1.02,0.79,-0.19,0.41,
1.263,0.14,-0.11,1.01,0.79,-0.19,0.41,
1.266,0.14,-0.12,1.00,0.79,-0.19,0.41,
1.266,0.14,-0.12,1.00,0.85,-0.19,0.37,
1.268,0.14,-0.12,0.99,0.85,-0.19,0.37,
1.271,0.14,-0.12,0.98,0.85,-0.19,0.37,
1.271,0.14,-0.12,0.98,0.84,-0.19,0.24,
1.273,0.13,-0.12,0.97,0.84,-0.19,0.24,
1.279,0.13,-0.12,0.97,0.84,-0.19,0.24,
1.279,0.13,-0.12,0.97,0.82,-0.24,0.04,
1.279,0.14,-0.13,0.95,0.82,-0.24,0.04,
1.282,0.14,-0.13,0.95,0.78,-0.26,-0.12,
1.282,0.14,-0.13,0.94,0.78,-0.26,-0.12,
1.282,0.14,-0.13,0.94,0.78,-0.26,-0.12,
1.285,0.14,-0.13,0.94,0.78,-0.26,-0.12,
1.286,0.14,-0.13,0.94,0.80,-0.28,-0.32,
1.287,0.13,-0.13,0.93,0.80,-0.28,-0.32,
1.29,0.13,-0.13,0.92,0.80,-0.28,-0.32,
1.291,0.13,-0.13,0.92,0.81,-0.31,-0.41,
1.293,0.12,-0.13,0.92,0.81,-0.31,-0.41,
1.295,0.12,-0.13,0.91,0.81,-0.31,-0.41,
1.295,0.12,-0.13,0.91,0.74,-0.30,-0.54,
1.297,0.12,-0.13,0.91,0.74,-0.30,-0.54,
1.301,0.12,-0.13,0.91,0.65,-0.30,-0.65,
1.301,0.13,-0.13,0.91,0.65,-0.30,-0.65,
1.303,0.13,-0.13,0.90,0.65,-0.30,-0.65,
1.306,0.13,-0.13,0.90,0.67,-0.26,-0.70,
1.306,0.14,-0.13,0.90,0.67,-0.26,-0.70,
1.308,0.14,-0.12,0.91,0.67,-0.26,-0.70,
1.31,0.14,-0.12,0.90,0.67,-0.26,-0.70,
1.31,0.14,-0.12,0.90,0.77,-0.25,-0.76,
1.312,0.14,-0.13,0.90,0.77,-0.25,-0.76,
1.315,0.14,-0.13,0.90,0.77,-0.25,-0.76,
1.317,0.14,-0.13,0.90,0.82,-0.19,-0.76,
1.317,0.14,-0.13,0.90,0.82,-0.19,-0.76,
1.32,0.15,-0.13,0.90,0.82,-0.19,-0.76,
1.32,0.15,-0.13,0.90,0.86,-0.27,-0.75,
1.322,0.15,-0.14,0.91,0.86,-0.27,-0.75,
1.325,0.16,-0.14,0.91,0.86,-0.27,-0.75,
1.325,0.16,-0.14,0.91,0.87,-0.28,-0.76,
1.327,0.16,-0.14,0.91,0.87,-0.28,-0.76,
1.329,0.16,-0.14,0.91,0.95,-0.32,-0.69,
1.33,0.16,-0.14,0.91,0.95,-0.32,-0.69,
1.332,0.15,-0.15,0.92,0.95,-0.32,-0.69,
1.334,0.15,-0.15,0.92,0.95,-0.32,-0.69,
1.335,0.15,-0.15,0.92,0.99,-0.35,-0.65,
1.337,0.15,-0.15,0.92,0.99,-0.35,-0.65,
1.339,0.14,-0.16,0.92,0.99,-0.35,-0.65,
1.34,0.14,-0.16,0.92,0.92,-0.38,-0.54,
1.342,0.15,-0.15,0.93,0.92,-0.38,-0.54,
1.344,0.14,-0.16,0.93,0.92,-0.38,-0.54,
1.345,0.14,-0.16,0.93,0.87,-0.42,-0.56,
1.347,0.14,-0.15,0.93,0.87,-0.42,-0.56,
1.349,0.14,-0.15,0.93,0.84,-0.41,-0.49,
1.35,0.14,-0.16,0.93,0.84,-0.41,-0.49,
1.352,0.15,-0.15,0.92,0.84,-0.41,-0.49,
1.354,0.15,-0.15,0.92,0.80,-0.40,-0.50,
1.354,0.15,-0.15,0.92,0.80,-0.40,-0.50,
1.358,0.15,-0.15,0.92,0.80,-0.40,-0.50,
1.36,0.15,-0.15,0.92,0.80,-0.40,-0.50,
1.36,0.15,-0.15,0.92,0.84,-0.35,-0.53,
1.361,0.15,-0.14,0.92,0.84,-0.35,-0.53,
1.364,0.15,-0.14,0.91,0.84,-0.35,-0.53,
1.364,0.15,-0.14,0.91,0.89,-0.30,-0.55,
1.367,0.15,-0.14,0.91,0.89,-0.30,-0.55,
1.369,0.15,-0.14,0.91,0.89,-0.30,-0.55,
1.369,0.15,-0.14,0.91,0.86,-0.21,-0.59,
1.371,0.15,-0.14,0.91,0.86,-0.21,-0.59,
1.375,0.15,-0.14,0.91,0.86,-0.21,-0.59,
1.375,0.15,-0.14,0.91,0.86,-0.18,-0.67,
1.377,0.15,-0.14,0.91,0.86,-0.18,-0.67,
1.379,0.15,-0.14,0.91,0.86,-0.15,-0.68,
1.379,0.15,-0.14,0.91,0.86,-0.15,-0.68,
1.381,0.15,-0.13,0.91,0.86,-0.15,-0.68,
1.384,0.14,-0.13,0.91,0.86,-0.15,-0.68,
1.384,0.14,-0.13,0.91,0.88,-0.19,-0.68,
1.387,0.15,-0.14,0.90,0.88,-0.19,-0.68,
1.389,0.15,-0.14,0.90,0.88,-0.19,-0.68,
1.389,0.15,-0.14,0.90,0.85,-0.09,-0.65,
1.395,0.15,-0.14,0.91,0.85,-0.09,-0.65,
1.395,0.16,-0.14,0.90,0.85,-0.09,-0.65,
1.396,0.16,-0.14,0.90,0.88,-0.11,-0.71,
1.396,0.15,-0.14,0.90,0.88,-0.11,-0.71,
1.399,0.15,-0.14,0.89,0.88,-0.11,-0.71,
1.399,0.15,-0.14,0.89,0.94,-0.12,-0.70,
1.401,0.15,-0.15,0.89,0.94,-0.12,-0.70,
1.404,0.15,-0.15,0.89,0.94,-0.11,-0.78,
1.404,0.15,-0.15,0.88,0.94,-0.11,-0.78,
1.406,0.15,-0.17,0.86,0.94,-0.11,-0.78,
1.41,0.14,-0.17,0.85,0.94,-0.11,-0.78,
1.41,0.14,-0.17,0.85,0.91,-0.22,-0.91,
1.411,0.13,-0.18,0.84,0.91,-0.22,-0.91,
1.414,0.13,-0.18,0.84,0.91,-0.22,-0.91,
1.414,0.13,-0.18,0.84,0.82,-0.40,-1.15,
1.416,0.14,-0.18,0.83,0.82,-0.40,-1.15,
1.418,0.13,-0.19,0.83,0.82,-0.40,-1.15,
1.419,0.13,-0.19,0.83,0.73,-0.50,-1.30,
1.421,0.13,-0.18,0.83,0.73,-0.50,-1.30,
1.425,0.13,-0.18,0.82,0.73,-0.50,-1.30,
1.426,0.13,-0.18,0.82,0.72,-0.54,-1.42,
1.427,0.14,-0.17,0.82,0.72,-0.54,-1.42,
1.429,0.14,-0.17,0.83,0.72,-0.54,-1.42,
1.429,0.14,-0.17,0.83,0.68,-0.50,-1.44,
1.431,0.14,-0.17,0.83,0.68,-0.50,-1.44,
1.433,0.15,-0.17,0.83,0.68,-0.50,-1.44,
1.434,0.15,-0.17,0.83,0.71,-0.39,-1.44,
1.436,0.16,-0.17,0.84,0.71,-0.39,-1.44,
1.438,0.16,-0.17,0.84,0.71,-0.39,-1.44,
1.439,0.16,-0.17,0.84,0.79,-0.32,-1.39,
1.442,0.17,-0.17,0.84,0.79,-0.32,-1.39,
1.443,0.17,-0.17,0.85,0.79,-0.32,-1.39,
1.444,0.17,-0.17,0.85,0.91,-0.30,-1.29,
1.446,0.18,-0.17,0.85,0.91,-0.30,-1.29,
1.448,0.18,-0.18,0.85,0.91,-0.30,-1.29,
1.448,0.18,-0.18,0.85,0.98,-0.27,-1.21,
1.451,0.19,-0.18,0.86,0.98,-0.27,-1.21,
1.454,0.19,-0.18,0.86,1.05,-0.30,-1.14,
1.454,0.20,-0.19,0.87,1.05,-0.30,-1.14,
1.455,0.20,-0.20,0.87,1.05,-0.30,-1.14,
1.458,0.20,-0.20,0.88,1.05,-0.30,-1.14,
1.459,0.20,-0.20,0.88,1.16,-0.38,-1.01,
1.46,0.21,-0.21,0.89,1.16,-0.38,-1.01,
1.463,0.21,-0.21,0.90,1.16,-0.38,-1.01,
1.463,0.21,-0.21,0.90,1.24,-0.44,-0.86,
1.466,0.21,-0.21,0.91,1.24,-0.44,-0.86,
1.468,0.21,-0.22,0.92,1.24,-0.44,-0.86,
1.468,0.21,-0.22,0.92,1.33,-0.49,-0.68,
1.47,0.22,-0.22,0.92,1.33,-0.49,-0.68,
1.473,0.22,-0.23,0.93,1.33,-0.49,-0.68,
1.473,0.22,-0.23,0.93,1.36,-0.56,-0.50,
1.476,0.22,-0.24,0.94,1.36,-0.56,-0.50,
1.478,0.23,-0.24,0.95,1.36,-0.56,-0.50,
1.478,0.23,-0.24,0.95,1.43,-0.62,-0.35,
1.481,0.23,-0.24,0.96,1.43,-0.62,-0.35,
1.483,0.22,-0.25,0.96,1.43,-0.62,-0.35,
1.483,0.22,-0.25,0.96,1.48,-0.72,-0.16,
1.485,0.22,-0.25,0.98,1.48,-0.72,-0.16,
1.488,0.21,-0.26,0.99,1.48,-0.72,-0.16,
1.488,0.21,-0.26,0.99,1.51,-0.75,-0.04,
1.492,0.21,-0.26,0.99,1.51,-0.75,-0.04,
1.497,0.21,-0.26,1.00,1.51,-0.75,-0.04,
1.497,0.21,-0.26,1.00,1.42,-0.78,0.22,
1.497,0.21,-0.26,1.01,1.42,-0.78,0.22,
1.498,0.21,-0.26,1.01,1.36,-0.77,0.36,
1.498,0.20,-0.26,1.01,1.36,-0.77,0.36,
1.5,0.21,-0.27,1.02,1.36,-0.77,0.36,
1.503,0.21,-0.27,1.02,1.31,-0.77,0.49,
1.504,0.21,-0.27,1.03,1.31,-0.77,0.49,
1.506,0.21,-0.27,1.04,1.31,-0.77,0.49,
1.508,0.21,-0.26,1.04,1.31,-0.77,0.49,
1.509,0.21,-0.26,1.04,1.38,-0.79,0.64,
1.51,0.21,-0.27,1.04,1.38,-0.79,0.64,
1.513,0.21,-0.27,1.04,1.39,-0.75,0.74,
1.513,0.21,-0.27,1.05,1.39,-0.75,0.74,
1.516,0.21,-0.27,1.05,1.39,-0.75,0.74,
1.518,0.21,-0.27,1.06,1.39,-0.75,0.74,
1.518,0.21,-0.27,1.06,1.39,-0.74,0.81,
1.52,0.21,-0.27,1.06,1.39,-0.74,0.81,
1.523,0.20,-0.27,1.06,1.39,-0.74,0.81,
1.523,0.20,-0.27,1.06,1.35,-0.72,0.89,
1.525,0.21,-0.27,1.06,1.35,-0.72,0.89,
1.528,0.21,-0.27,1.06,1.33,-0.71,0.97,
1.528,0.20,-0.27,1.06,1.33,-0.71,0.97,
1.53,0.20,-0.26,1.06,1.33,-0.71,0.97,
1.533,0.21,-0.27,1.05,1.33,-0.71,0.97,
1.533,0.21,-0.27,1.05,1.32,-0.66,0.95,
1.535,0.21,-0.26,1.05,1.32,-0.66,0.95,
1.538,0.21,-0.26,1.05,1.31,-0.60,0.88,
1.538,0.20,-0.27,1.05,1.31,-0.60,0.88,
1.54,0.21,-0.26,1.05,1.31,-0.60,0.88,
1.543,0.20,-0.27,1.05,1.31,-0.60,0.88,
1.543,0.20,-0.27,1.05,1.34,-0.58,0.82,
1.545,0.21,-0.26,1.04,1.34,-0.58,0.82,
1.548,0.20,-0.26,1.04,1.34,-0.58,0.82,
1.548,0.20,-0.26,1.04,1.32,-0.56,0.79,
1.55,0.20,-0.26,1.04,1.32,-0.56,0.79,
1.553,0.20,-0.26,1.04,1.34,-0.51,0.75,
1.553,0.20,-0.26,1.04,1.34,-0.51,0.75,
1.555,0.21,-0.26,1.04,1.34,-0.51,0.75,
1.558,0.20,-0.25,1.03,1.34,-0.51,0.75,
1.558,0.20,-0.25,1.03,1.33,-0.47,0.74,
1.56,0.20,-0.25,1.03,1.33,-0.47,0.74,
1.563,0.20,-0.26,1.03,1.33,-0.47,0.74,
1.563,0.20,-0.26,1.03,1.36,-0.42,0.70,
1.565,0.20,-0.26,1.03,1.36,-0.42,0.70,
1.567,0.19,-0.26,1.02,1.36,-0.42,0.70,
1.568,0.19,-0.26,1.02,1.33,-0.40,0.62,
1.57,0.18,-0.26,1.03,1.33,-0.40,0.62,
1.573,0.17,-0.26,1.03,1.33,-0.40,0.62,
1.573,0.17,-0.26,1.03,1.26,-0.40,0.60,
1.575,0.17,-0.26,1.03,1.26,-0.40,0.60,
1.577,0.17,-0.26,1.03,1.13,-0.37,0.65,
1.578,0.17,-0.26,1.03,1.13,-0.37,0.65,
1.581,0.16,-0.25,1.03,1.13,-0.37,0.65,
1.583,0.16,-0.25,1.03,1.13,-0.37,0.65,
1.583,0.16,-0.25,1.03,1.06,-0.39,0.63,
1.585,0.15,-0.24,1.03,1.06,-0.39,0.63,
1.587,0.15,-0.24,1.02,1.06,-0.39,0.63,
1.587,0.15,-0.24,1.02,0.97,-0.29,0.64,
1.59,0.15,-0.24,1.01,0.97,-0.29,0.64,
1.596,0.14,-0.24,1.01,0.97,-0.29,0.64,
1.597,0.14,-0.24,1.01,0.93,-0.21,0.60,
1.597,0.14,-0.24,1.01,0.93,-0.21,0.60,
1.597,0.14,-0.25,1.01,0.93,-0.21,0.60,
1.598,0.14,-0.25,1.01,0.88,-0.20,0.48,
1.599,0.14,-0.25,1.01,0.88,-0.20,0.48,
1.602,0.14,-0.25,1.01,0.84,-0.22,0.48,
1.602,0.14,-0.24,1.01,0.84,-0.22,0.48,
1.604,0.14,-0.24,1.01,0.84,-0.22,0.48,
1.607,0.14,-0.25,1.01,0.84,-0.22,0.48,
1.608,0.14,-0.25,1.01,0.85,-0.21,0.45,
1.61,0.14,-0.25,1.01,0.85,-0.21,0.45,
1.612,0.14,-0.25,1.01,0.86,-0.18,0.46,
1.612,0.13,-0.25,1.01,0.86,-0.18,0.46,
1.615,0.13,-0.25,1.01,0.86,-0.18,0.46,
1.617,0.13,-0.26,1.02,0.86,-0.18,0.46,
1.618,0.13,-0.26,1.02,0.84,-0.22,0.48,
1.62,0.13,-0.25,1.02,0.84,-0.22,0.48,
1.622,0.13,-0.26,1.02,0.84,-0.22,0.48,
1.622,0.13,-0.26,1.02,0.82,-0.23,0.50,
1.624,0.12,-0.26,1.02,0.82,-0.23,0.50,
1.627,0.12,-0.26,1.02,0.82,-0.23,0.50,
1.628,0.12,-0.26,1.02,0.80,-0.23,0.54,
1.629,0.11,-0.26,1.03,0.80,-0.23,0.54,
1.632,0.11,-0.27,1.03,0.80,-0.23,0.54,
1.632,0.11,-0.27,1.03,0.76,-0.27,0.58,
1.634,0.11,-0.27,1.03,0.76,-0.27,0.58,
1.637,0.11,-0.27,1.04,0.76,-0.27,0.58,
1.637,0.11,-0.27,1.04,0.66,-0.29,0.62,
1.639,0.10,-0.27,1.04,0.66,-0.29,0.62,
1.643,0.10,-0.27,1.04,0.66,-0.29,0.62,
1.643,0.10,-0.27,1.04,0.64,-0.34,0.69,
1.644,0.10,-0.28,1.04,0.64,-0.34,0.69,
1.647,0.10,-0.28,1.04,0.59,-0.31,0.75,
1.647,0.10,-0.27,1.05,0.59,-0.31,0.75,
1.649,0.09,-0.27,1.05,0.59,-0.31,0.75,
1.651,0.09,-0.27,1.05,0.54,-0.34,0.83,
1.651,0.08,-0.27,1.06,0.54,-0.34,0.83,
1.654,0.08,-0.27,1.07,0.54,-0.34,0.83,
1.656,0.07,-0.27,1.07,0.54,-0.34,0.83,
1.656,0.07,-0.27,1.07,0.39,-0.28,0.92,
1.659,0.07,-0.26,1.07,0.39,-0.28,0.92,
1.661,0.06,-0.27,1.07,0.39,-0.28,0.92,
1.661,0.06,-0.27,1.07,0.32,-0.22,1.04,
1.663,0.06,-0.26,1.07,0.32,-0.22,1.04,
1.666,0.06,-0.26,1.07,0.32,-0.22,1.04,
1.667,0.06,-0.26,1.07,0.21,-0.19,1.08,
1.668,0.06,-0.26,1.07,0.21,-0.19,1.08,
1.672,0.06,-0.26,1.07,0.21,-0.19,1.08,
1.672,0.06,-0.26,1.07,0.17,-0.13,1.09,
1.673,0.06,-0.25,1.07,0.17,-0.13,1.09,
1.677,0.06,-0.25,1.07,0.14,-0.07,1.08,
1.677,0.06,-0.25,1.06,0.14,-0.07,1.08,
1.678,0.06,-0.25,1.06,0.14,-0.07,1.08,
1.681,0.06,-0.25,1.05,0.14,-0.07,1.08,
1.681,0.06,-0.25,1.05,0.13,-0.05,1.01,
1.683,0.06,-0.25,1.05,0.13,-0.05,1.01,
1.686,0.07,-0.25,1.04,0.13,-0.05,1.01,
1.686,0.07,-0.25,1.04,0.18,0.01,0.92,
1.688,0.07,-0.24,1.04,0.18,0.01,0.92,
1.691,0.07,-0.24,1.03,0.18,0.01,0.92,
1.691,0.07,-0.24,1.03,0.24,0.06,0.83,
1.694,0.08,-0.24,1.02,0.24,0.06,0.83,
1.697,0.08,-0.24,1.02,0.24,0.06,0.83,
1.697,0.08,-0.24,1.02,0.31,0.09,0.71,
1.698,0.08,-0.24,1.01,0.31,0.09,0.71,
1.701,0.08,-0.24,1.01,0.41,0.11,0.57,
1.701,0.08,-0.25,1.01,0.41,0.11,0.57,
1.703,0.08,-0.24,1.01,0.41,0.11,0.57,
1.706,0.07,-0.24,1.00,0.41,0.11,0.57,
1.706,0.07,-0.24,1.00,0.37,0.09,0.48,
1.714,0.07,-0.24,0.99,0.37,0.09,0.48,
1.714,0.07,-0.24,0.99,0.37,0.09,0.48,
1.715,0.07,-0.24,0.99,0.36,0.15,0.39,
1.715,0.07,-0.24,1.00,0.36,0.15,0.39,
1.716,0.07,-0.24,1.00,0.36,0.15,0.39,
1.716,0.07,-0.24,1.00,0.32,0.13,0.31,
1.718,0.07,-0.24,1.00,0.32,0.13,0.31,
1.72,0.07,-0.24,1.00,0.32,0.13,0.31,
1.721,0.07,-0.24,1.00,0.30,0.13,0.34,
1.723,0.06,-0.24,1.00,0.30,0.13,0.34,
1.727,0.06,-0.24,1.00,0.30,0.16,0.35,
1.727,0.07,-0.24,1.00,0.30,0.16,0.35,
1.729,0.06,-0.24,1.00,0.30,0.16,0.35,
1.73,0.06,-0.25,1.01,0.30,0.16,0.35,
1.731,0.06,-0.25,1.01,0.28,0.13,0.38,
1.733,0.05,-0.25,1.01,0.28,0.13,0.38,
1.735,0.05,-0.25,1.01,0.28,0.13,0.38,
1.736,0.05,-0.25,1.01,0.24,0.12,0.42,
1.738,0.05,-0.25,1.01,0.24,0.12,0.42,
1.74,0.05,-0.25,1.02,0.24,0.12,0.42,
1.741,0.05,-0.25,1.02,0.16,0.11,0.46,
1.743,0.05,-0.25,1.02,0.16,0.11,0.46,
1.745,0.04,-0.26,1.02,0.16,0.11,0.46,
1.745,0.04,-0.26,1.02,0.12,0.08,0.53,
1.747,0.04,-0.26,1.02,0.12,0.08,0.53,
1.75,0.04,-0.26,1.02,0.10,0.06,0.58,
1.75,0.05,-0.26,1.03,0.10,0.06,0.58,
1.752,0.05,-0.26,1.02,0.10,0.06,0.58,
1.755,0.05,-0.26,1.02,0.10,0.06,0.58,
1.755,0.05,-0.26,1.02,0.08,0.02,0.62,
1.757,0.05,-0.27,1.02,0.08,0.02,0.62,
1.761,0.06,-0.27,1.02,0.08,0.02,0.62,
1.762,0.06,-0.27,1.02,0.15,0.01,0.56,
1.762,0.07,-0.27,1.01,0.15,0.01,0.56,
1.765,0.07,-0.27,1.01,0.15,0.01,0.56,
1.765,0.07,-0.27,1.01,0.21,-0.05,0.59,
1.767,0.08,-0.27,1.01,0.21,-0.05,0.59,
1.77,0.08,-0.27,1.01,0.31,-0.04,0.53,
1.77,0.08,-0.28,1.01,0.31,-0.04,0.53,
1.772,0.08,-0.28,1.01,0.31,-0.04,0.53,
1.777,0.08,-0.28,1.01,0.39,-0.09,0.50,
1.778,0.08,-0.28,1.01,0.39,-0.09,0.50,
1.778,0.08,-0.28,1.01,0.39,-0.09,0.50,
1.78,0.09,-0.28,1.01,0.39,-0.09,0.50,
1.78,0.09,-0.28,1.01,0.39,-0.11,0.49,
1.782,0.09,-0.28,1.01,0.39,-0.11,0.49,
1.785,0.09,-0.28,1.01,0.39,-0.11,0.49,
1.785,0.09,-0.28,1.01,0.46,-0.11,0.47,
1.787,0.10,-0.28,1.01,0.46,-0.11,0.47,
1.79,0.09,-0.28,1.02,0.46,-0.11,0.47,
1.79,0.09,-0.28,1.02,0.53,-0.10,0.49,
1.793,0.09,-0.29,1.02,0.53,-0.10,0.49,
1.795,0.09,-0.29,1.03,0.53,-0.10,0.49,
1.795,0.09,-0.29,1.03,0.55,-0.11,0.58,
1.797,0.09,-0.29,1.04,0.55,-0.11,0.58,
1.8,0.09,-0.29,1.04,0.50,-0.20,0.68,
1.8,0.09,-0.29,1.04,0.50,-0.20,0.68,
1.802,0.09,-0.29,1.05,0.50,-0.20,0.68,
1.805,0.09,-0.29,1.05,0.50,-0.20,0.68,
1.805,0.09,-0.29,1.05,0.51,-0.19,0.81,
1.807,0.08,-0.29,1.05,0.51,-0.19,0.81,
1.811,0.08,-0.29,1.05,0.51,-0.19,0.81,
1.814,0.08,-0.29,1.05,0.50,-0.16,0.86,
1.815,0.07,-0.29,1.05,0.50,-0.16,0.86,
1.815,0.06,-0.29,1.05,0.50,-0.16,0.86,
1.816,0.06,-0.29,1.05,0.40,-0.18,0.91,
1.818,0.06,-0.29,1.05,0.40,-0.18,0.91,
1.819,0.05,-0.29,1.05,0.40,-0.18,0.91,
1.82,0.05,-0.29,1.05,0.27,-0.20,0.93,
1.822,0.06,-0.29,1.04,0.27,-0.20,0.93,
1.825,0.06,-0.29,1.04,0.17,-0.16,0.89,
1.825,0.05,-0.29,1.04,0.17,-0.16,0.89,
1.828,0.05,-0.29,1.03,0.17,-0.16,0.89,
1.83,0.06,-0.29,1.03,0.17,-0.16,0.89,
1.83,0.06,-0.29,1.03,0.15,-0.16,0.77,
1.832,0.06,-0.28,1.03,0.15,-0.16,0.77,
1.835,0.06,-0.28,1.03,0.15,-0.16,0.77,
1.835,0.06,-0.28,1.03,0.16,-0.14,0.68,
1.837,0.06,-0.28,1.02,0.16,-0.14,0.68,
1.84,0.06,-0.28,1.02,0.16,-0.14,0.68,
1.84,0.06,-0.28,1.02,0.23,-0.10,0.67,
1.842,0.06,-0.28,1.01,0.23,-0.10,0.67,
1.844,0.07,-0.28,1.01,0.23,-0.10,0.67,
1.845,0.07,-0.28,1.01,0.21,-0.08,0.58,
1.847,0.07,-0.28,1.01,0.21,-0.08,0.58,
1.849,0.07,-0.28,1.01,0.25,-0.09,0.45,
1.85,0.07,-0.28,1.01,0.25,-0.09,0.45,
1.852,0.07,-0.28,1.01,0.25,-0.09,0.45,
1.855,0.07,-0.28,1.00,0.25,-0.09,0.45,
1.855,0.07,-0.28,1.00,0.26,-0.08,0.46,
1.857,0.07,-0.29,1.01,0.26,-0.08,0.46,
1.861,0.07,-0.29,1.01,0.26,-0.08,0.46,
1.862,0.07,-0.29,1.01,0.25,-0.07,0.44,
1.862,0.08,-0.29,1.01,0.25,-0.07,0.44,
1.864,0.07,-0.29,1.02,0.25,-0.07,0.44,
1.865,0.07,-0.29,1.02,0.27,-0.14,0.50,
1.866,0.08,-0.29,1.02,0.27,-0.14,0.50,
1.87,0.08,-0.30,1.02,0.27,-0.14,0.50,
1.87,0.08,-0.30,1.02,0.31,-0.13,0.53,
1.872,0.08,-0.30,1.02,0.31,-0.13,0.53,
1.875,0.08,-0.30,1.02,0.35,-0.18,0.59,
1.875,0.08,-0.30,1.02,0.35,-0.18,0.59,
1.877,0.08,-0.31,1.03,0.35,-0.18,0.59,
1.88,0.08,-0.31,1.03,0.35,-0.18,0.59,
1.88,0.08,-0.31,1.03,0.35,-0.21,0.63,
1.881,0.08,-0.31,1.04,0.35,-0.21,0.63,
1.885,0.08,-0.30,1.03,0.35,-0.21,0.63,
1.885,0.08,-0.30,1.03,0.34,-0.31,0.70,
1.887,0.08,-0.31,1.04,0.34,-0.31,0.70,
1.89,0.08,-0.31,1.04,0.32,-0.28,0.74,
1.89,0.08,-0.31,1.04,0.32,-0.28,0.74,
1.892,0.08,-0.30,1.04,0.32,-0.28,0.74,
1.894,0.09,-0.30,1.04,0.32,-0.28,0.74,
1.895,0.09,-0.30,1.04,0.31,-0.27,0.81,
1.896,0.09,-0.30,1.04,0.31,-0.27,0.81,
1.9,0.09,-0.30,1.04,0.34,-0.22,0.82,
1.9,0.10,-0.29,1.04,0.34,-0.22,0.82,
1.902,0.11,-0.29,1.04,0.34,-0.22,0.82,
1.904,0.11,-0.29,1.04,0.34,-0.22,0.82,
1.905,0.11,-0.29,1.04,0.44,-0.16,0.81,
1.907,0.12,-0.29,1.03,0.44,-0.16,0.81,
1.915,0.13,-0.29,1.02,0.44,-0.16,0.81,
1.916,0.13,-0.29,1.02,0.57,-0.12,0.80,
1.916,0.13,-0.29,1.01,0.57,-0.12,0.80,
1.916,0.13,-0.29,1.00,0.57,-0.12,0.80,
1.916,0.13,-0.29,1.00,0.70,-0.14,0.68,
1.917,0.14,-0.29,0.99,0.70,-0.14,0.68,
1.919,0.14,-0.30,0.99,0.70,-0.14,0.68,
1.919,0.14,-0.30,0.99,0.74,-0.14,0.45,
1.921,0.15,-0.29,0.98,0.74,-0.14,0.45,
1.924,0.15,-0.29,0.98,0.82,-0.19,0.27,
1.925,0.16,-0.29,0.97,0.82,-0.19,0.27,
1.926,0.16,-0.29,0.96,0.82,-0.19,0.27,
1.929,0.17,-0.29,0.96,0.82,-0.19,0.27,
1.929,0.17,-0.29,0.96,0.94,-0.14,0.16,
1.931,0.17,-0.29,0.95,0.94,-0.14,0.16,
1.934,0.16,-0.30,0.94,0.94,-0.14,0.16,
1.934,0.16,-0.30,0.94,1.07,-0.17,-0.00,
1.936,0.16,-0.30,0.94,1.07,-0.17,-0.00,
1.938,0.16,-0.31,0.94,1.07,-0.17,-0.00,
1.939,0.16,-0.31,0.94,1.04,-0.19,-0.13,
1.941,0.15,-0.31,0.94,1.04,-0.19,-0.13,
1.945,0.15,-0.31,0.93,1.04,-0.19,-0.13,
1.946,0.15,-0.31,0.93,0.98,-0.27,-0.21,
1.947,0.14,-0.31,0.93,0.98,-0.27,-0.21,
1.948,0.14,-0.31,0.93,0.88,-0.32,-0.25,
1.949,0.14,-0.31,0.94,0.88,-0.32,-0.25,
1.95,0.13,-0.31,0.95,0.88,-0.32,-0.25,
1.954,0.13,-0.31,0.94,0.88,-0.32,-0.25,
1.954,0.13,-0.31,0.94,0.76,-0.37,-0.21,
1.955,0.12,-0.31,0.95,0.76,-0.37,-0.21,
1.958,0.12,-0.31,0.96,0.76,-0.37,-0.21,
1.958,0.12,-0.31,0.96,0.63,-0.34,-0.16,
1.962,0.11,-0.31,0.95,0.63,-0.34,-0.16,
1.963,0.11,-0.30,0.95,0.63,-0.34,-0.16,
1.963,0.11,-0.30,0.95,0.53,-0.36,-0.06,
1.965,0.11,-0.30,0.96,0.53,-0.36,-0.06,
1.968,0.11,-0.30,0.96,0.53,-0.36,-0.06,
1.968,0.11,-0.30,0.96,0.46,-0.32,-0.06,
1.97,0.10,-0.30,0.96,0.46,-0.32,-0.06,
1.973,0.10,-0.30,0.96,0.43,-0.27,0.00,
1.973,0.10,-0.30,0.96,0.43,-0.27,0.00,
1.975,0.10,-0.30,0.96,0.43,-0.27,0.00,
1.978,0.10,-0.30,0.96,0.43,-0.27,0.00,
1.979,0.10,-0.30,0.96,0.35,-0.25,0.01,
1.98,0.10,-0.31,0.97,0.35,-0.25,0.01,
1.983,0.10,-0.31,0.97,0.34,-0.29,0.01,
1.983,0.10,-0.30,0.97,0.34,-0.29,0.01,
1.985,0.10,-0.30,0.97,0.34,-0.29,0.01,
1.988,0.09,-0.30,0.97,0.34,-0.29,0.01,
1.988,0.09,-0.30,0.97,0.29,-0.30,0.07,
1.99,0.09,-0.29,0.98,0.29,-0.30,0.07,
1.997,0.09,-0.29,0.97,0.29,-0.30,0.07,
1.997,0.09,-0.29,0.97,0.25,-0.28,0.13,
1.997,0.08,-0.28,0.98,0.25,-0.28,0.13,
1.998,0.08,-0.28,0.98,0.21,-0.17,0.12,
1.998,0.08,-0.28,0.98,0.21,-0.17,0.12,
2.001,0.08,-0.28,0.97,0.21,-0.17,0.12,
2.003,0.08,-0.28,0.97,0.21,-0.17,0.12,
2.004,0.08,-0.28,0.97,0.16,-0.09,0.15,
2.006,0.08,-0.28,0.97,0.16,-0.09,0.15,
2.008,0.07,-0.27,0.97,0.16,-0.09,0.15,
2.009,0.07,-0.27,0.97,0.14,-0.05,0.09,
2.011,0.07,-0.27,0.97,0.14,-0.05,0.09,
2.013,0.07,-0.27,0.97,0.06,-0.05,0.07,
2.013,0.06,-0.27,0.97,0.06,-0.05,0.07,
2.016,0.06,-0.27,0.96,0.06,-0.05,0.07,
2.018,0.06,-0.27,0.96,0.06,-0.05,0.07,
2.019,0.06,-0.27,0.96,-0.01,-0.02,0.06,
2.021,0.06,-0.27,0.96,-0.01,-0.02,0.06,
2.024,0.06,-0.27,0.96,-0.04,0.01,-0.02,
2.024,0.05,-0.26,0.96,-0.04,0.01,-0.02,
2.026,0.06,-0.26,0.95,-0.04,0.01,-0.02,
2.03,0.06,-0.26,0.95,-0.04,0.01,-0.02,
2.031,0.06,-0.26,0.95,-0.10,0.03,-0.05,
2.031,0.06,-0.25,0.95,-0.10,0.03,-0.05,
2.032,0.06,-0.25,0.96,-0.10,0.03,-0.05,
2.033,0.06,-0.25,0.96,-0.07,0.09,-0.09,
2.035,0.05,-0.25,0.95,-0.07,0.09,-0.09,
2.038,0.05,-0.25,0.95,-0.07,0.09,-0.09,
2.038,0.05,-0.25,0.95,-0.07,0.13,-0.08,
2.04,0.04,-0.25,0.94,-0.07,0.13,-0.08,
2.043,0.04,-0.25,0.95,-0.07,0.13,-0.08,
2.043,0.04,-0.25,0.95,-0.13,0.14,-0.12,
2.046,0.04,-0.26,0.95,-0.13,0.14,-0.12,
2.048,0.04,-0.26,0.95,-0.21,0.11,-0.18,
2.048,0.04,-0.26,0.95,-0.21,0.11,-0.18,
2.05,0.04,-0.26,0.95,-0.21,0.11,-0.18,
2.053,0.03,-0.26,0.95,-0.21,0.11,-0.18,
2.053,0.03,-0.26,0.95,-0.24,0.06,-0.17,
2.054,0.04,-0.26,0.95,-0.24,0.06,-0.17,
2.057,0.04,-0.26,0.95,-0.24,0.06,-0.17,
2.057,0.04,-0.26,0.95,-0.29,0.02,-0.13,
2.062,0.03,-0.26,0.95,-0.29,0.02,-0.13,
2.063,0.04,-0.26,0.95,-0.29,0.02,-0.13,
2.063,0.04,-0.26,0.95,-0.28,0.06,-0.14,
2.064,0.03,-0.25,0.94,-0.28,0.06,-0.14,
2.067,0.03,-0.26,0.95,-0.28,0.06,-0.14,
2.068,0.03,-0.26,0.95,-0.28,0.05,-0.12,
2.07,0.03,-0.26,0.95,-0.28,0.05,-0.12,
2.073,0.03,-0.26,0.95,-0.28,0.05,-0.12,
2.073,0.03,-0.26,0.95,-0.31,0.06,-0.17,
2.075,0.03,-0.26,0.95,-0.31,0.06,-0.17,
2.079,0.03,-0.25,0.95,-0.31,0.06,-0.17,
2.079,0.03,-0.25,0.95,-0.35,0.03,-0.11,
2.08,0.04,-0.25,0.95,-0.35,0.03,-0.11,
2.082,0.04,-0.25,0.96,-0.35,0.03,-0.11,
2.083,0.04,-0.25,0.96,-0.35,0.05,-0.12,
2.085,0.04,-0.25,0.96,-0.35,0.05,-0.12,
2.087,0.04,-0.25,0.95,-0.35,0.05,-0.12,
2.087,0.04,-0.25,0.95,-0.29,0.06,-0.09,
2.09,0.05,-0.25,0.95,-0.29,0.06,-0.09,
2.093,0.05,-0.25,0.95,-0.29,0.06,-0.09,
2.093,0.05,-0.25,0.95,-0.28,0.08,-0.08,
2.095,0.05,-0.25,0.94,-0.28,0.08,-0.08,
2.097,0.05,-0.25,0.94,-0.19,0.10,-0.15,
2.097,0.06,-0.25,0.94,-0.19,0.10,-0.15,
2.1,0.06,-0.25,0.94,-0.19,0.10,-0.15,
2.103,0.06,-0.25,0.94,-0.19,0.10,-0.15,
2.103,0.06,-0.25,0.94,-0.16,0.10,-0.20,
2.105,0.06,-0.25,0.94,-0.16,0.10,-0.20,
2.107,0.06,-0.26,0.93,-0.16,0.10,-0.20,
2.107,0.06,-0.26,0.93,-0.11,0.11,-0.22,
2.11,0.06,-0.25,0.93,-0.11,0.11,-0.22,
2.112,0.07,-0.25,0.93,-0.11,0.11,-0.22,
2.112,0.07,-0.25,0.93,-0.10,0.07,-0.27,
2.114,0.06,-0.26,0.93,-0.10,0.07,-0.27,
2.117,0.06,-0.26,0.92,-0.10,0.07,-0.27,
2.118,0.06,-0.26,0.92,-0.08,0.07,-0.32,
2.12,0.06,-0.26,0.93,-0.08,0.07,-0.32,
2.122,0.06,-0.26,0.93,-0.08,0.01,-0.36,
2.122,0.06,-0.27,0.93,-0.08,0.01,-0.36,
2.124,0.06,-0.26,0.93,-0.08,0.01,-0.36,
2.132,0.06,-0.26,0.93,-0.08,0.01,-0.36,
2.133,0.06,-0.26,0.93,-0.09,-0.04,-0.30,
2.133,0.07,-0.26,0.93,-0.09,-0.04,-0.30,
2.133,0.06,-0.26,0.93,-0.09,-0.04,-0.30,
2.134,0.06,-0.26,0.93,-0.13,-0.03,-0.29,
2.134,0.06,-0.27,0.94,-0.13,-0.03,-0.29,
2.136,0.06,-0.27,0.95,-0.13,-0.03,-0.29,
2.137,0.06,-0.27,0.95,-0.09,-0.03,-0.27,
2.139,0.06,-0.27,0.94,-0.09,-0.03,-0.27,
2.143,0.06,-0.27,0.95,-0.09,-0.03,-0.27,
2.143,0.06,-0.27,0.95,-0.12,-0.07,-0.17,
2.145,0.07,-0.27,0.96,-0.12,-0.07,-0.17,
2.147,0.07,-0.27,0.96,-0.12,-0.08,-0.14,
2.147,0.07,-0.27,0.96,-0.12,-0.08,-0.14,
2.148,0.07,-0.27,0.96,-0.12,-0.08,-0.14,
2.151,0.07,-0.27,0.97,-0.12,-0.08,-0.14,
2.152,0.07,-0.27,0.97,-0.07,-0.10,-0.01,
2.153,0.08,-0.27,0.96,-0.07,-0.10,-0.01,
2.156,0.07,-0.27,0.97,-0.07,-0.10,-0.01,
2.157,0.07,-0.27,0.97,-0.04,-0.09,0.02,
2.158,0.07,-0.27,0.97,-0.04,-0.09,0.02,
2.162,0.07,-0.27,0.96,-0.04,-0.09,0.02,
2.163,0.07,-0.27,0.96,-0.01,-0.09,0.03,
2.163,0.07,-0.27,0.96,-0.01,-0.09,0.03,
2.166,0.07,-0.27,0.97,-0.01,-0.09,0.03,
2.166,0.07,-0.27,0.97,-0.04,-0.10,0.06,
2.168,0.07,-0.27,0.97,-0.04,-0.10,0.06,
2.171,0.07,-0.27,0.97,-0.07,-0.10,0.04,
2.171,0.07,-0.26,0.97,-0.07,-0.10,0.04,
2.173,0.07,-0.27,0.97,-0.07,-0.10,0.04,
2.176,0.07,-0.26,0.97,-0.07,-0.10,0.04,
2.176,0.07,-0.26,0.97,-0.07,-0.06,0.09,
2.178,0.08,-0.27,0.96,-0.07,-0.06,0.09,
2.181,0.07,-0.26,0.96,-0.07,-0.06,0.09,
2.181,0.07,-0.26,0.96,-0.08,-0.04,0.09,
2.183,0.08,-0.26,0.96,-0.08,-0.04,0.09,
2.186,0.08,-0.27,0.95,-0.08,-0.04,0.09,
2.186,0.08,-0.27,0.95,-0.01,-0.05,0.02,
2.188,0.08,-0.27,0.96,-0.01,-0.05,0.02,
2.191,0.09,-0.27,0.95,-0.01,-0.05,0.02,
2.191,0.09,-0.27,0.95,0.03,-0.07,-0.05,
2.193,0.09,-0.28,0.94,0.03,-0.07,-0.05,
2.196,0.09,-0.28,0.94,0.08,-0.14,-0.08,
2.196,0.09,-0.28,0.94,0.08,-0.14,-0.08,
2.198,0.10,-0.28,0.94,0.08,-0.14,-0.08,
2.201,0.10,-0.28,0.94,0.08,-0.14,-0.08,
2.201,0.10,-0.28,0.94,0.11,-0.18,-0.16,
2.203,0.11,-0.29,0.95,0.11,-0.18,-0.16,
2.206,0.11,-0.29,0.94,0.11,-0.18,-0.16,
2.206,0.11,-0.29,0.94,0.18,-0.23,-0.16,
2.208,0.12,-0.29,0.95,0.18,-0.23,-0.16,
2.211,0.12,-0.29,0.95,0.18,-0.23,-0.16,
2.212,0.12,-0.29,0.95,0.29,-0.27,-0.16,
2.213,0.12,-0.29,0.95,0.29,-0.27,-0.16,
2.217,0.12,-0.29,0.95,0.29,-0.27,-0.16,
2.217,0.12,-0.29,0.95,0.34,-0.30,-0.10,
2.218,0.12,-0.29,0.96,0.34,-0.30,-0.10,
2.221,0.12,-0.29,0.96,0.37,-0.29,-0.07,
2.221,0.12,-0.30,0.96,0.37,-0.29,-0.07,
2.223,0.12,-0.30,0.96,0.37,-0.29,-0.07,
2.225,0.11,-0.30,0.97,0.37,-0.29,-0.07,
2.226,0.11,-0.30,0.97,0.33,-0.32,0.03,
2.228,0.11,-0.30,0.97,0.33,-0.32,0.03,
2.23,0.11,-0.30,0.98,0.33,-0.32,0.03,
2.231,0.11,-0.30,0.98,0.31,-0.36,0.08,
2.233,0.11,-0.29,0.99,0.31,-0.36,0.08,
2.235,0.11,-0.29,0.98,0.31,-0.36,0.08,
2.235,0.11,-0.29,0.98,0.27,-0.35,0.16,
2.237,0.11,-0.30,0.98,0.27,-0.35,0.16,
2.24,0.11,-0.30,0.98,0.26,-0.32,0.25,
2.24,0.10,-0.29,0.99,0.26,-0.32,0.25,
2.242,0.10,-0.29,0.99,0.26,-0.32,0.25,
2.246,0.10,-0.29,0.99,0.16,-0.32,0.23,
2.247,0.09,-0.29,0.98,0.16,-0.32,0.23,
2.248,0.09,-0.29,0.99,0.16,-0.32,0.23,
2.25,0.09,-0.28,0.99,0.16,-0.32,0.23,
2.25,0.09,-0.28,0.99,0.09,-0.28,0.24,
2.252,0.09,-0.28,0.99,0.09,-0.28,0.24,
2.255,0.09,-0.29,0.98,0.09,-0.28,0.24,
2.255,0.09,-0.29,0.98,0.03,-0.25,0.25,
2.257,0.08,-0.28,0.98,0.03,-0.25,0.25,
2.26,0.08,-0.29,0.97,0.03,-0.25,0.25,
2.26,0.08,-0.29,0.97,-0.01,-0.24,0.22,
2.267,0.08,-0.29,0.97,-0.01,-0.24,0.22,
2.267,0.08,-0.29,0.97,-0.01,-0.24,0.22,
2.267,0.08,-0.29,0.97,-0.05,-0.24,0.15,
2.268,0.08,-0.29,0.97,-0.05,-0.24,0.15,
2.272,0.08,-0.29,0.97,-0.08,-0.30,0.10,
2.272,0.08,-0.30,0.97,-0.08,-0.30,0.10,
2.273,0.08,-0.30,0.96,-0.08,-0.30,0.10,
2.275,0.09,-0.29,0.95,-0.08,-0.30,0.10,
2.275,0.09,-0.29,0.95,-0.09,-0.33,0.11,
2.279,0.08,-0.29,0.96,-0.09,-0.33,0.11,
2.28,0.08,-0.29,0.95,-0.09,-0.33,0.11,
2.28,0.08,-0.29,0.95,-0.05,-0.33,-0.04,
2.282,0.09,-0.29,0.95,-0.05,-0.33,-0.04,
2.285,0.09,-0.28,0.95,-0.05,-0.33,-0.04,
2.285,0.09,-0.28,0.95,-0.07,-0.28,-0.06,
2.287,0.09,-0.29,0.95,-0.07,-0.28,-0.06,
2.29,0.09,-0.29,0.95,-0.07,-0.28,-0.06,
2.29,0.09,-0.29,0.95,-0.03,-0.27,-0.10,
2.292,0.10,-0.29,0.95,-0.03,-0.27,-0.10,
2.296,0.10,-0.29,0.95,-0.03,-0.27,-0.12,
2.297,0.10,-0.29,0.96,-0.03,-0.27,-0.12,
2.297,0.10,-0.29,0.96,-0.03,-0.27,-0.12,
2.3,0.11,-0.29,0.97,-0.03,-0.27,-0.12,
2.3,0.11,-0.29,0.97,0.04,-0.29,-0.04,
2.302,0.11,-0.28,0.98,0.04,-0.29,-0.04,
2.305,0.11,-0.28,0.98,0.04,-0.29,-0.04,
2.307,0.11,-0.28,0.98,0.13,-0.24,0.05,
2.309,0.12,-0.28,0.99,0.13,-0.24,0.05,
2.31,0.12,-0.28,1.00,0.13,-0.24,0.05,
2.311,0.12,-0.28,1.00,0.15,-0.21,0.20,
2.313,0.12,-0.28,1.00,0.15,-0.21,0.20,
2.315,0.12,-0.28,1.00,0.15,-0.21,0.20,
2.315,0.12,-0.28,1.00,0.18,-0.16,0.32,
2.318,0.12,-0.28,1.01,0.18,-0.16,0.32,
2.32,0.12,-0.28,1.01,0.20,-0.15,0.41,
2.321,0.13,-0.27,1.01,0.20,-0.15,0.41,
2.322,0.13,-0.27,1.01,0.20,-0.15,0.41,
2.325,0.12,-0.27,1.01,0.20,-0.15,0.41,
2.325,0.12,-0.27,1.01,0.24,-0.11,0.48,
2.327,0.13,-0.27,1.00,0.24,-0.11,0.48,
2.33,0.13,-0.27,1.00,0.24,-0.11,0.48,
2.33,0.13,-0.27,1.00,0.23,-0.08,0.46,
2.333,0.13,-0.27,1.00,0.23,-0.08,0.46,
2.335,0.13,-0.27,0.99,0.23,-0.08,0.46,
2.336,0.13,-0.27,0.99,0.23,-0.08,0.37,
2.337,0.13,-0.26,0.99,0.23,-0.08,0.37,
2.339,0.13,-0.26,0.98,0.23,-0.08,0.37,
2.34,0.13,-0.26,0.98,0.22,-0.08,0.32,
2.342,0.13,-0.26,0.97,0.22,-0.08,0.32,
2.346,0.13,-0.26,0.97,0.21,-0.02,0.20,
2.346,0.13,-0.26,0.97,0.21,-0.02,0.20,
2.347,0.13,-0.26,0.96,0.21,-0.02,0.20,
2.35,0.13,-0.26,0.96,0.18,-0.04,0.07,
2.35,0.13,-0.26,0.95,0.18,-0.04,0.07,
2.352,0.12,-0.26,0.95,0.18,-0.04,0.07,
2.355,0.12,-0.26,0.95,0.18,-0.04,0.07,
2.355,0.12,-0.26,0.95,0.17,-0.03,-0.08,
2.357,0.12,-0.26,0.95,0.17,-0.03,-0.08,
2.36,0.12,-0.25,0.95,0.17,-0.03,-0.08,
2.36,0.12,-0.25,0.95,0.10,-0.01,-0.13,
2.361,0.11,-0.25,0.95,0.10,-0.01,-0.13,
2.365,0.11,-0.25,0.95,0.10,-0.01,-0.13,
2.365,0.11,-0.25,0.95,0.04,0.02,-0.15,
2.367,0.11,-0.24,0.95,0.04,0.02,-0.15,
2.369,0.11,-0.24,0.95,-0.02,0.04,-0.12,
2.369,0.10,-0.25,0.96,-0.02,0.04,-0.12,
2.372,0.10,-0.24,0.96,-0.02,0.04,-0.12,
2.375,0.10,-0.24,0.96,-0.02,0.04,-0.12,
2.375,0.10,-0.24,0.96,-0.08,0.08,-0.09,
2.377,0.10,-0.24,0.96,-0.08,0.08,-0.09,
2.38,0.09,-0.24,0.96,-0.08,0.08,-0.09,
2.38,0.09,-0.24,0.96,-0.13,0.12,-0.02,
2.381,0.09,-0.24,0.96,-0.13,0.12,-0.02,
2.384,0.09,-0.25,0.96,-0.13,0.12,-0.02,
2.384,0.09,-0.25,0.96,-0.18,0.11,-0.03,
2.387,0.09,-0.25,0.97,-0.18,0.11,-0.03,
2.39,0.09,-0.25,0.98,-0.18,0.11,-0.03,
2.39,0.09,-0.25,0.98,-0.21,0.06,0.01,
2.392,0.09,-0.24,0.98,-0.21,0.06,0.01,
2.394,0.09,-0.24,0.98,-0.21,0.01,0.09,
2.395,0.09,-0.24,0.98,-0.21,0.01,0.09,
2.397,0.09,-0.25,0.98,-0.21,0.01,0.09,
2.399,0.08,-0.24,0.98,-0.21,0.01,0.09,
2.399,0.08,-0.24,0.98,-0.25,0.06,0.15,
2.401,0.08,-0.24,0.98,-0.25,0.06,0.15,
2.404,0.07,-0.24,0.98,-0.25,0.06,0.15,
2.405,0.07,-0.24,0.98,-0.31,0.04,0.13,
2.407,0.07,-0.24,0.98,-0.31,0.04,0.13,
2.409,0.07,-0.24,0.97,-0.31,0.04,0.13,
2.41,0.07,-0.24,0.97,-0.40,0.06,0.13,
2.411,0.07,-0.24,0.98,-0.40,0.06,0.13,
2.414,0.07,-0.24,0.98,-0.40,0.06,0.13,
2.414,0.07,-0.24,0.98,-0.44,0.06,0.10,
2.416,0.06,-0.24,0.98,-0.44,0.06,0.10,
2.419,0.06,-0.24,0.98,-0.48,0.04,0.12,
2.42,0.07,-0.24,0.98,-0.48,0.04,0.12,
2.421,0.07,-0.24,0.98,-0.48,0.04,0.12,
2.424,0.06,-0.24,0.97,-0.48,0.04,0.12,
2.424,0.06,-0.24,0.97,-0.50,0.03,0.10,
2.426,0.06,-0.24,0.97,-0.50,0.03,0.10,
2.43,0.06,-0.24,0.97,-0.50,0.03,0.10,
2.431,0.06,-0.24,0.97,-0.49,0.02,0.07,
2.431,0.06,-0.24,0.96,-0.49,0.02,0.07,
2.434,0.05,-0.24,0.96,-0.49,0.02,0.07,
2.434,0.05,-0.24,0.96,-0.54,0.02,0.01,
2.436,0.05,-0.24,0.96,-0.54,0.02,0.01,
2.438,0.05,-0.24,0.95,-0.54,0.02,0.01,
2.439,0.05,-0.24,0.95,-0.57,0.01,-0.07,
2.441,0.04,-0.24,0.94,-0.57,0.01,-0.07,
2.444,0.04,-0.24,0.94,-0.62,-0.01,-0.12,
2.444,0.04,-0.24,0.94,-0.62,-0.01,-0.12,
2.446,0.03,-0.24,0.93,-0.62,-0.01,-0.12,
2.448,0.03,-0.24,0.93,-0.62,-0.01,-0.12,
2.449,0.03,-0.24,0.93,-0.68,-0.03,-0.24,
2.451,0.02,-0.25,0.93,-0.68,-0.03,-0.24,
2.454,0.02,-0.25,0.93,-0.77,-0.05,-0.35,
2.454,0.02,-0.24,0.93,-0.77,-0.05,-0.35,
2.456,0.02,-0.24,0.93,-0.77,-0.05,-0.35,
2.459,0.02,-0.24,0.92,-0.77,-0.05,-0.35,
2.459,0.02,-0.24,0.92,-0.88,-0.07,-0.36,
2.461,0.01,-0.23,0.92,-0.88,-0.07,-0.36,
2.463,0.01,-0.23,0.92,-0.88,-0.07,-0.36,
2.463,0.01,-0.23,0.92,-0.90,-0.06,-0.43,
2.466,0.01,-0.23,0.91,-0.90,-0.06,-0.43,
2.469,0.01,-0.23,0.91,-0.93,-0.00,-0.47,
2.469,0.01,-0.23,0.91,-0.93,-0.00,-0.47,
2.472,0.01,-0.23,0.91,-0.93,-0.00,-0.47,
2.474,0.01,-0.23,0.91,-0.93,-0.00,-0.47,
2.474,0.01,-0.23,0.91,-0.93,-0.00,-0.54,
2.476,0.01,-0.23,0.91,-0.93,-0.00,-0.54,
2.484,0.01,-0.23,0.90,-0.93,-0.00,-0.54,
2.485,0.01,-0.23,0.90,-0.95,-0.01,-0.56,
2.485,0.01,-0.24,0.90,-0.95,-0.01,-0.56,
2.485,0.00,-0.23,0.90,-0.95,-0.01,-0.56,
2.486,0.00,-0.23,0.90,-0.92,-0.03,-0.60,
2.486,0.00,-0.23,0.90,-0.92,-0.03,-0.60,
2.488,-0.00,-0.23,0.90,-0.92,-0.03,-0.60,
2.488,-0.00,-0.23,0.90,-0.94,-0.05,-0.66,
2.49,-0.01,-0.23,0.90,-0.94,-0.05,-0.66,
2.494,-0.01,-0.23,0.90,-0.99,0.02,-0.69,
2.494,-0.02,-0.22,0.89,-0.99,0.02,-0.69,
2.497,-0.02,-0.22,0.89,-0.99,0.02,-0.69,
2.498,-0.03,-0.22,0.88,-0.99,0.02,-0.69,
2.498,-0.03,-0.22,0.88,-1.11,0.04,-0.70,
2.5,-0.03,-0.22,0.88,-1.11,0.04,-0.70,
2.503,-0.03,-0.21,0.88,-1.11,0.04,-0.70,
2.503,-0.03,-0.21,0.88,-1.20,0.06,-0.77,
2.505,-0.03,-0.22,0.88,-1.20,0.06,-0.77,
2.508,-0.04,-0.22,0.87,-1.20,0.06,-0.77,
2.508,-0.04,-0.22,0.87,-1.29,0.10,-0.82,
2.51,-0.04,-0.22,0.87,-1.29,0.10,-0.82,
2.513,-0.03,-0.21,0.87,-1.29,0.10,-0.82,
2.513,-0.03,-0.21,0.87,-1.29,0.09,-0.89,
2.515,-0.04,-0.21,0.87,-1.29,0.09,-0.89,
2.517,-0.03,-0.21,0.87,-1.29,0.09,-0.89,
2.518,-0.03,-0.21,0.87,-1.25,0.11,-0.91,
2.52,-0.03,-0.21,0.86,-1.25,0.11,-0.91,
2.522,-0.03,-0.21,0.86,-1.25,0.11,-0.91,
2.523,-0.03,-0.21,0.86,-1.23,0.16,-0.94,
2.525,-0.03,-0.20,0.86,-1.23,0.16,-0.94,
2.527,-0.03,-0.21,0.85,-1.23,0.16,-0.94,
2.528,-0.03,-0.21,0.85,-1.16,0.16,-0.97,
2.53,-0.03,-0.21,0.85,-1.16,0.16,-0.97,
2.532,-0.03,-0.21,0.85,-1.16,0.16,-0.97,
2.533,-0.03,-0.21,0.85,-1.09,0.19,-1.07,
2.535,-0.04,-0.21,0.85,-1.09,0.19,-1.07,
2.537,-0.04,-0.22,0.85,-1.09,0.19,-1.07,
2.537,-0.04,-0.22,0.85,-1.10,0.15,-1.05,
2.539,-0.04,-0.22,0.85,-1.10,0.15,-1.05,
2.542,-0.04,-0.22,0.85,-1.20,0.10,-1.06,
2.542,-0.05,-0.22,0.86,-1.20,0.10,-1.06,
2.545,-0.05,-0.22,0.86,-1.20,0.10,-1.06,
2.547,-0.05,-0.22,0.86,-1.20,0.10,-1.06,
2.548,-0.05,-0.22,0.86,-1.21,0.08,-1.02,
2.549,-0.05,-0.22,0.87,-1.21,0.08,-1.02,
2.552,-0.05,-0.22,0.87,-1.22,0.08,-0.97,
2.552,-0.06,-0.22,0.88,-1.22,0.08,-0.97,
2.554,-0.06,-0.22,0.88,-1.22,0.08,-0.97,
2.557,-0.06,-0.22,0.89,-1.22,0.08,-0.97,
2.557,-0.06,-0.22,0.89,-1.25,0.08,-0.84,
2.559,-0.07,-0.22,0.90,-1.25,0.08,-0.84,
2.564,-0.07,-0.22,0.90,-1.25,0.08,-0.84,
2.564,-0.07,-0.22,0.90,-1.27,0.09,-0.69,
2.565,-0.07,-0.22,0.90,-1.27,0.09,-0.69,
2.567,-0.07,-0.22,0.90,-1.31,0.09,-0.56,
2.567,-0.07,-0.22,0.91,-1.31,0.09,-0.56,
2.569,-0.07,-0.22,0.91,-1.31,0.09,-0.56,
2.572,-0.07,-0.22,0.91,-1.31,0.08,-0.49,
2.572,-0.08,-0.22,0.92,-1.31,0.08,-0.49,
2.574,-0.08,-0.22,0.92,-1.31,0.08,-0.49,
2.577,-0.07,-0.23,0.92,-1.31,0.08,-0.49,
2.577,-0.07,-0.23,0.92,-1.34,0.07,-0.40,
2.58,-0.08,-0.23,0.92,-1.34,0.07,-0.40,
2.582,-0.08,-0.22,0.92,-1.34,0.07,-0.40,
2.582,-0.08,-0.22,0.92,-1.35,0.04,-0.37,
2.584,-0.08,-0.23,0.92,-1.35,0.04,-0.37,
2.587,-0.08,-0.22,0.92,-1.35,0.04,-0.37,
2.587,-0.08,-0.22,0.92,-1.34,0.06,-0.35,
2.589,-0.08,-0.22,0.91,-1.34,0.06,-0.35,
2.592,-0.08,-0.22,0.91,-1.33,0.07,-0.35,
2.592,-0.08,-0.22,0.91,-1.33,0.07,-0.35,
2.594,-0.08,-0.22,0.91,-1.33,0.07,-0.35,
2.6,-0.09,-0.21,0.90,-1.33,0.07,-0.35,
2.601,-0.09,-0.21,0.90,-1.33,0.16,-0.39,
2.601,-0.09,-0.21,0.90,-1.33,0.16,-0.39,
2.602,-0.09,-0.21,0.90,-1.33,0.16,-0.39,
2.602,-0.09,-0.21,0.90,-1.35,0.17,-0.47,
2.604,-0.09,-0.21,0.90,-1.35,0.17,-0.47,
2.607,-0.09,-0.21,0.89,-1.35,0.17,-0.47,
2.607,-0.09,-0.21,0.89,-1.34,0.21,-0.47,
2.609,-0.10,-0.21,0.89,-1.34,0.21,-0.47,
2.612,-0.10,-0.22,0.90,-1.34,0.21,-0.47,
2.612,-0.10,-0.22,0.90,-1.38,0.24,-0.55,
2.615,-0.10,-0.21,0.90,-1.38,0.24,-0.55,
2.617,-0.10,-0.21,0.90,-1.38,0.24,-0.55,
2.617,-0.10,-0.21,0.90,-1.47,0.20,-0.53,
2.619,-0.11,-0.21,0.91,-1.47,0.20,-0.53,
2.621,-0.11,-0.21,0.91,-1.45,0.25,-0.50,
2.622,-0.11,-0.21,0.90,-1.45,0.25,-0.50,
2.624,-0.10,-0.22,0.91,-1.45,0.25,-0.50,
2.626,-0.10,-0.21,0.92,-1.45,0.25,-0.50,
2.627,-0.10,-0.21,0.92,-1.50,0.27,-0.44,
2.63,-0.09,-0.21,0.92,-1.50,0.27,-0.44,
2.632,-0.09,-0.21,0.92,-1.50,0.27,-0.44,
2.632,-0.09,-0.21,0.92,-1.41,0.24,-0.35,
2.634,-0.09,-0.21,0.92,-1.41,0.24,-0.35,
2.637,-0.10,-0.22,0.93,-1.41,0.24,-0.35,
2.637,-0.10,-0.22,0.93,-1.36,0.28,-0.29,
2.639,-0.10,-0.22,0.93,-1.36,0.28,-0.29,
2.641,-0.10,-0.22,0.93,-1.36,0.25,-0.24,
2.642,-0.09,-0.22,0.94,-1.36,0.25,-0.24,
2.644,-0.10,-0.22,0.94,-1.36,0.25,-0.24,
2.647,-0.09,-0.22,0.94,-1.36,0.25,-0.24,
2.648,-0.09,-0.22,0.94,-1.34,0.21,-0.15,
2.648,-0.09,-0.23,0.95,-1.34,0.21,-0.15,
2.652,-0.08,-0.23,0.95,-1.34,0.21,-0.15,
2.652,-0.08,-0.23,0.95,-1.32,0.20,-0.07,
2.654,-0.09,-0.23,0.95,-1.32,0.20,-0.07,
2.657,-0.08,-0.23,0.95,-1.32,0.20,-0.07,
2.657,-0.08,-0.23,0.95,-1.21,0.18,-0.00,
2.659,-0.08,-0.23,0.95,-1.21,0.18,-0.00,
2.662,-0.08,-0.23,0.95,-1.21,0.18,-0.00,
2.662,-0.08,-0.23,0.95,-1.19,0.18,0.02,
2.664,-0.08,-0.23,0.95,-1.19,0.18,0.02,
2.666,-0.08,-0.23,0.95,-1.15,0.15,0.03,
2.666,-0.08,-0.23,0.95,-1.15,0.15,0.03,
2.669,-0.08,-0.24,0.95,-1.15,0.15,0.03,
2.672,-0.08,-0.23,0.96,-1.15,0.15,0.03,
2.672,-0.08,-0.23,0.96,-1.11,0.16,0.01,
2.674,-0.08,-0.23,0.96,-1.11,0.16,0.01,
2.677,-0.08,-0.23,0.96,-1.11,0.16,0.01,
2.677,-0.08,-0.23,0.96,-1.10,0.17,0.08,
2.679,-0.09,-0.23,0.96,-1.10,0.17,0.08,
2.682,-0.10,-0.23,0.96,-1.10,0.17,0.08,
2.682,-0.10,-0.23,0.96,-1.13,0.20,0.15,
2.683,-0.10,-0.23,0.96,-1.13,0.20,0.15,
2.687,-0.10,-0.23,0.97,-1.13,0.20,0.15,
2.687,-0.10,-0.23,0.97,-1.23,0.20,0.14,
2.688,-0.11,-0.23,0.97,-1.23,0.20,0.14,
2.691,-0.11,-0.23,0.97,-1.32,0.24,0.18,
2.692,-0.11,-0.23,0.97,-1.32,0.24,0.18,
2.694,-0.11,-0.23,0.97,-1.32,0.24,0.18,
2.702,-0.11,-0.22,0.97,-1.32,0.24,0.18,
2.702,-0.11,-0.22,0.97,-1.37,0.28,0.24,
2.702,-0.10,-0.22,0.97,-1.37,0.28,0.24,
2.703,-0.10,-0.22,0.98,-1.37,0.28,0.24,
2.703,-0.10,-0.22,0.98,-1.39,0.33,0.29,
2.705,-0.10,-0.23,0.97,-1.39,0.33,0.29,
2.706,-0.09,-0.23,0.97,-1.39,0.33,0.29,
2.706,-0.09,-0.23,0.97,-1.29,0.35,0.30,
2.708,-0.09,-0.23,0.97,-1.29,0.35,0.30,
2.711,-0.08,-0.24,0.97,-1.29,0.35,0.30,
2.712,-0.08,-0.24,0.97,-1.23,0.30,0.29,
2.714,-0.08,-0.24,0.98,-1.23,0.30,0.29,
2.716,-0.08,-0.24,0.98,-1.12,0.28,0.28,
2.716,-0.08,-0.24,0.98,-1.12,0.28,0.28,
2.718,-0.07,-0.24,0.98,-1.12,0.28,0.28,
2.721,-0.07,-0.24,0.98,-1.04,0.24,0.33,
2.721,-0.06,-0.24,0.98,-1.04,0.24,0.33,
2.724,-0.06,-0.24,0.97,-1.04,0.24,0.33,
2.726,-0.05,-0.24,0.97,-1.04,0.24,0.33,
2.726,-0.05,-0.24,0.97,-0.91,0.25,0.34,
2.728,-0.05,-0.24,0.97,-0.91,0.25,0.34,
2.731,-0.05,-0.25,0.98,-0.91,0.25,0.34,
2.732,-0.05,-0.25,0.98,-0.82,0.26,0.29,
2.733,-0.06,-0.25,0.98,-0.82,0.26,0.29,
2.736,-0.06,-0.26,0.98,-0.82,0.26,0.29,
2.736,-0.06,-0.26,0.98,-0.79,0.24,0.32,
2.738,-0.06,-0.26,0.98,-0.79,0.24,0.32,
2.741,-0.06,-0.26,0.98,-0.84,0.18,0.34,
2.741,-0.05,-0.26,0.98,-0.84,0.18,0.34,
2.743,-0.05,-0.26,0.99,-0.84,0.18,0.34,
2.746,-0.05,-0.26,0.99,-0.84,0.18,0.34,
2.746,-0.05,-0.26,0.99,-0.80,0.16,0.35,
2.749,-0.04,-0.26,0.99,-0.80,0.16,0.35,
2.75,-0.04,-0.26,0.99,-0.80,0.16,0.35,
2.751,-0.04,-0.26,0.99,-0.72,0.11,0.46,
2.752,-0.04,-0.26,0.99,-0.72,0.11,0.46,
2.756,-0.03,-0.26,1.00,-0.72,0.11,0.46,
2.756,-0.03,-0.26,1.00,-0.63,0.13,0.49,
2.758,-0.03,-0.27,1.00,-0.63,0.13,0.49,
2.761,-0.03,-0.27,1.00,-0.58,0.18,0.50,
2.761,-0.03,-0.27,0.99,-0.58,0.18,0.50,
2.764,-0.03,-0.27,0.99,-0.58,0.18,0.50,
2.765,-0.03,-0.27,0.99,-0.54,0.09,0.54,
2.765,-0.02,-0.27,1.00,-0.54,0.09,0.54,
2.768,-0.02,-0.28,1.00,-0.54,0.09,0.54,
2.771,-0.02,-0.28,1.00,-0.47,0.08,0.54,
2.771,-0.02,-0.28,0.99,-0.47,0.08,0.54,
2.772,-0.01,-0.28,1.00,-0.47,0.08,0.54,
2.776,-0.01,-0.28,1.00,-0.47,0.08,0.54,
2.776,-0.01,-0.28,1.00,-0.40,0.04,0.56,
2.778,-0.00,-0.28,1.01,-0.40,0.04,0.56,
2.782,-0.01,-0.28,1.00,-0.40,0.04,0.56,
2.782,-0.01,-0.28,1.00,-0.30,0.08,0.59,
2.782,-0.01,-0.28,0.99,-0.30,0.08,0.59,
2.786,-0.01,-0.28,0.99,-0.30,0.08,0.59,
2.786,-0.01,-0.28,0.99,-0.25,0.07,0.63,
2.787,-0.01,-0.29,0.99,-0.25,0.07,0.63,
2.79,-0.01,-0.29,0.99,-0.27,0.05,0.53,
2.791,-0.02,-0.29,0.99,-0.27,0.05,0.53,
2.793,-0.01,-0.29,0.98,-0.27,0.05,0.53,
2.795,-0.02,-0.30,0.99,-0.27,0.05,0.53,
2.796,-0.02,-0.30,0.99,-0.32,-0.02,0.51,
2.802,-0.02,-0.29,0.99,-0.32,-0.02,0.51,
2.802,-0.03,-0.30,0.99,-0.32,-0.02,0.51,
2.805,-0.03,-0.30,0.99,-0.35,-0.06,0.48,
2.805,-0.04,-0.30,0.99,-0.35,-0.06,0.48,
2.806,-0.04,-0.29,0.99,-0.35,-0.06,0.48,
2.806,-0.04,-0.29,0.99,-0.44,-0.02,0.49,
2.808,-0.05,-0.29,1.00,-0.44,-0.02,0.49,
2.81,-0.05,-0.29,1.00,-0.44,-0.02,0.49,
2.81,-0.05,-0.29,1.00,-0.58,-0.02,0.52,
2.812,-0.05,-0.29,1.00,-0.58,-0.02,0.52,
2.815,-0.05,-0.29,1.00,-0.67,0.06,0.60,
2.816,-0.05,-0.29,1.00,-0.67,0.06,0.60,
2.817,-0.06,-0.29,1.00,-0.67,0.06,0.60,
2.82,-0.06,-0.29,1.00,-0.67,0.06,0.60,
2.82,-0.06,-0.29,1.00,-0.68,0.05,0.65,
2.823,-0.07,-0.29,0.99,-0.68,0.05,0.65,
2.825,-0.07,-0.29,0.99,-0.68,0.05,0.65,
2.825,-0.07,-0.29,0.99,-0.76,0.11,0.64,
2.827,-0.07,-0.29,0.98,-0.76,0.11,0.64,
2.833,-0.07,-0.29,0.98,-0.76,0.11,0.64,
2.833,-0.07,-0.29,0.98,-0.83,0.11,0.53,
2.833,-0.06,-0.29,0.97,-0.83,0.11,0.53,
2.835,-0.06,-0.28,0.96,-0.83,0.11,0.53,
2.835,-0.06,-0.28,0.96,-0.83,0.09,0.44,
2.837,-0.06,-0.28,0.96,-0.83,0.09,0.44,
2.84,-0.06,-0.28,0.96,-0.78,0.16,0.28,
2.84,-0.06,-0.29,0.96,-0.78,0.16,0.28,
2.841,-0.05,-0.29,0.96,-0.78,0.16,0.28,
2.845,-0.05,-0.29,0.95,-0.78,0.16,0.28,
2.845,-0.05,-0.29,0.95,-0.76,0.18,0.22,
2.849,-0.05,-0.28,0.95,-0.76,0.18,0.22,
2.849,-0.05,-0.29,0.95,-0.76,0.18,0.22,
2.85,-0.05,-0.29,0.95,-0.69,0.15,0.21,
2.852,-0.05,-0.29,0.96,-0.69,0.15,0.21,
2.855,-0.04,-0.30,0.95,-0.69,0.15,0.21,
2.855,-0.04,-0.30,0.95,-0.68,0.18,0.14,
2.857,-0.04,-0.30,0.95,-0.68,0.18,0.14,
2.86,-0.04,-0.30,0.96,-0.68,0.18,0.14,
2.86,-0.04,-0.30,0.96,-0.61,0.10,0.21,
2.862,-0.03,-0.30,0.97,-0.61,0.10,0.21,
2.865,-0.03,-0.30,0.97,-0.53,0.09,0.24,
2.865,-0.03,-0.30,0.97,-0.53,0.09,0.24,
2.867,-0.03,-0.31,0.97,-0.53,0.09,0.24,
2.869,-0.04,-0.32,0.98,-0.53,0.09,0.24,
2.87,-0.04,-0.32,0.98,-0.51,0.09,0.36,
2.872,-0.05,-0.32,0.98,-0.51,0.09,0.36,
2.875,-0.05,-0.32,0.99,-0.51,0.09,0.36,
2.875,-0.05,-0.32,0.99,-0.54,-0.03,0.41,
2.877,-0.05,-0.32,1.00,-0.54,-0.03,0.41,
2.88,-0.05,-0.32,1.00,-0.54,-0.03,0.41,
2.88,-0.05,-0.32,1.00,-0.63,-0.07,0.53,
2.882,-0.06,-0.32,1.00,-0.63,-0.07,0.53,
2.884,-0.06,-0.32,1.01,-0.63,-0.07,0.53,
2.884,-0.06,-0.32,1.01,-0.63,-0.08,0.64,
2.887,-0.06,-0.33,1.01,-0.63,-0.08,0.64,
2.89,-0.06,-0.33,1.01,-0.74,-0.09,0.71,
2.89,-0.06,-0.32,1.01,-0.74,-0.09,0.71,
2.892,-0.06,-0.32,1.01,-0.74,-0.09,0.71,
2.895,-0.06,-0.32,1.01,-0.74,-0.09,0.71,
2.895,-0.06,-0.32,1.01,-0.72,-0.08,0.74,
2.897,-0.06,-0.32,1.00,-0.72,-0.08,0.74,
2.902,-0.06,-0.32,1.00,-0.72,-0.08,0.74,
2.903,-0.06,-0.32,1.00,-0.66,-0.04,0.72,
2.903,-0.06,-0.32,1.00,-0.66,-0.04,0.72,
2.904,-0.06,-0.32,0.99,-0.66,-0.04,0.72,
2.904,-0.06,-0.32,0.99,-0.67,0.01,0.66,
2.906,-0.07,-0.31,0.98,-0.67,0.01,0.66,
2.909,-0.07,-0.32,0.98,-0.67,0.01,0.66,
2.909,-0.07,-0.32,0.98,-0.68,0.03,0.59,
2.911,-0.06,-0.32,0.98,-0.68,0.03,0.59,
2.915,-0.06,-0.32,0.98,-0.70,0.05,0.47,
2.916,-0.06,-0.31,0.97,-0.70,0.05,0.47,
2.916,-0.06,-0.31,0.96,-0.70,0.05,0.47,
2.919,-0.07,-0.31,0.95,-0.70,0.05,0.47,
2.919,-0.07,-0.31,0.95,-0.63,0.04,0.40,
2.922,-0.07,-0.31,0.95,-0.63,0.04,0.40,
2.924,-0.07,-0.30,0.94,-0.63,0.04,0.40,
2.924,-0.07,-0.30,0.94,-0.65,0.07,0.23,
2.926,-0.07,-0.31,0.94,-0.65,0.07,0.23,
2.929,-0.07,-0.31,0.94,-0.65,0.07,0.23,
2.929,-0.07,-0.31,0.94,-0.65,0.16,0.10,
2.931,-0.07,-0.31,0.93,-0.65,0.16,0.10,
2.934,-0.07,-0.31,0.93,-0.65,0.16,0.10,
2.934,-0.07,-0.31,0.93,-0.68,0.13,0.07,
2.936,-0.06,-0.31,0.93,-0.68,0.13,0.07,
2.938,-0.06,-0.31,0.93,-0.68,0.12,-0.03,
2.939,-0.06,-0.31,0.93,-0.68,0.12,-0.03,
2.941,-0.06,-0.31,0.93,-0.68,0.12,-0.03,
2.944,-0.06,-0.31,0.93,-0.58,0.13,-0.08,
2.944,-0.06,-0.32,0.92,-0.58,0.13,-0.08,
2.946,-0.05,-0.32,0.93,-0.58,0.13,-0.08,
2.948,-0.05,-0.32,0.93,-0.58,0.13,-0.08,
2.949,-0.05,-0.32,0.93,-0.52,0.10,-0.09,
2.951,-0.05,-0.32,0.92,-0.52,0.10,-0.09,
2.954,-0.05,-0.32,0.93,-0.52,0.10,-0.09,
2.954,-0.05,-0.32,0.93,-0.46,0.09,-0.03,
2.956,-0.04,-0.32,0.93,-0.46,0.09,-0.03,
2.959,-0.04,-0.32,0.92,-0.46,0.09,-0.03,
2.959,-0.04,-0.32,0.92,-0.43,0.06,-0.09,
2.961,-0.04,-0.33,0.93,-0.43,0.06,-0.09,
2.963,-0.04,-0.33,0.93,-0.34,0.05,-0.04,
2.964,-0.04,-0.33,0.93,-0.34,0.05,-0.04,
2.967,-0.04,-0.33,0.93,-0.34,0.05,-0.04,
2.969,-0.04,-0.34,0.94,-0.34,0.05,-0.04,
2.972,-0.04,-0.34,0.94,-0.30,-0.00,0.01,
2.972,-0.03,-0.34,0.94,-0.30,-0.00,0.01,
2.973,-0.02,-0.34,0.93,-0.30,-0.00,0.01,
2.974,-0.02,-0.34,0.93,-0.29,-0.03,0.05,
2.976,-0.02,-0.34,0.93,-0.29,-0.03,0.05,
2.978,-0.02,-0.34,0.93,-0.29,-0.03,0.05,
2.978,-0.02,-0.34,0.93,-0.15,-0.06,0.05,
2.981,-0.01,-0.34,0.93,-0.15,-0.06,0.05,
2.983,-0.01,-0.35,0.94,-0.15,-0.06,0.05,
2.983,-0.01,-0.35,0.94,-0.10,-0.09,0.04,
2.985,-0.01,-0.34,0.93,-0.10,-0.09,0.04,
2.989,-0.01,-0.34,0.93,-0.01,-0.12,0.04,
2.989,-0.01,-0.34,0.93,-0.01,-0.12,0.04,
2.991,-0.01,-0.35,0.93,-0.01,-0.12,0.04,
2.993,-0.01,-0.35,0.93,-0.01,-0.12,0.04,
2.994,-0.01,-0.35,0.93,0.03,-0.07,0.03,
2.996,-0.02,-0.34,0.93,0.03,-0.07,0.03,
3.002,-0.02,-0.34,0.92,0.03,-0.07,0.03,
3.003,-0.02,-0.34,0.92,0.00,-0.09,-0.02,
3.003,-0.02,-0.34,0.92,0.00,-0.09,-0.02,
3.003,-0.02,-0.34,0.92,0.00,-0.09,-0.02,
3.004,-0.02,-0.34,0.92,-0.03,-0.05,-0.03,
3.008,-0.03,-0.34,0.93,-0.03,-0.05,-0.03,
3.008,-0.04,-0.33,0.93,-0.03,-0.05,-0.03,
3.008,-0.04,-0.33,0.93,-0.06,0.00,-0.04,
3.01,-0.05,-0.34,0.92,-0.06,0.00,-0.04,
3.014,-0.05,-0.34,0.92,-0.18,0.03,-0.00,
3.014,-0.06,-0.34,0.93,-0.18,0.03,-0.00,
3.016,-0.07,-0.33,0.93,-0.18,0.03,-0.00,
3.018,-0.08,-0.32,0.93,-0.18,0.03,-0.00,
3.018,-0.08,-0.32,0.93,-0.36,0.04,-0.03,
3.02,-0.08,-0.32,0.93,-0.36,0.04,-0.03,
3.023,-0.08,-0.32,0.93,-0.53,0.14,0.05,
3.023,-0.09,-0.32,0.93,-0.53,0.14,0.05,
3.025,-0.09,-0.32,0.93,-0.53,0.14,0.05,
3.028,-0.09,-0.32,0.93,-0.58,0.20,0.01,
3.028,-0.09,-0.32,0.93,-0.58,0.20,0.01,
3.03,-0.09,-0.31,0.93,-0.58,0.20,0.01,
3.033,-0.09,-0.31,0.93,-0.58,0.20,0.01,
3.033,-0.09,-0.31,0.93,-0.62,0.24,0.01,
3.035,-0.09,-0.32,0.92,-0.62,0.24,0.01,
3.037,-0.09,-0.32,0.92,-0.61,0.29,0.01,
3.038,-0.09,-0.32,0.93,-0.61,0.29,0.01,
3.04,-0.10,-0.32,0.93,-0.61,0.29,0.01,
3.043,-0.10,-0.32,0.93,-0.61,0.29,0.01,
3.043,-0.10,-0.32,0.93,-0.60,0.27,-0.01,
3.045,-0.10,-0.33,0.93,-0.60,0.27,-0.01,
3.047,-0.10,-0.33,0.92,-0.60,0.27,-0.01,
3.048,-0.10,-0.33,0.92,-0.63,0.20,0.06,
3.05,-0.10,-0.33,0.93,-0.63,0.20,0.06,
3.052,-0.10,-0.34,0.93,-0.63,0.20,0.06,
3.053,-0.10,-0.34,0.93,-0.65,0.16,0.03,
3.055,-0.10,-0.34,0.93,-0.65,0.16,0.03,
3.057,-0.10,-0.34,0.94,-0.65,0.16,0.03,
3.058,-0.10,-0.34,0.94,-0.63,0.12,0.07,
3.06,-0.10,-0.34,0.94,-0.63,0.12,0.07,
3.063,-0.10,-0.34,0.94,-0.56,0.10,0.08,
3.063,-0.10,-0.34,0.94,-0.56,0.10,0.08,
3.064,-0.11,-0.35,0.94,-0.56,0.10,0.08,
3.067,-0.11,-0.35,0.94,-0.56,0.10,0.08,
3.068,-0.11,-0.35,0.94,-0.58,0.11,0.15,
3.07,-0.12,-0.35,0.95,-0.58,0.11,0.15,
3.073,-0.12,-0.36,0.95,-0.58,0.11,0.15,
3.073,-0.12,-0.36,0.95,-0.66,0.01,0.16,
3.075,-0.12,-0.36,0.95,-0.66,0.01,0.16,
3.077,-0.12,-0.36,0.96,-0.66,0.01,0.16,
3.078,-0.12,-0.36,0.96,-0.74,-0.04,0.26,
3.08,-0.12,-0.36,0.96,-0.74,-0.04,0.26,
3.083,-0.11,-0.36,0.96,-0.74,-0.04,0.26,
3.084,-0.11,-0.36,0.96,-0.70,-0.06,0.30,
3.084,-0.11,-0.35,0.96,-0.70,-0.06,0.30,
3.087,-0.11,-0.35,0.96,-0.67,-0.07,0.35,
3.087,-0.11,-0.35,0.96,-0.67,-0.07,0.35,
3.09,-0.10,-0.35,0.95,-0.67,-0.07,0.35,
3.092,-0.09,-0.36,0.95,-0.67,-0.07,0.35,
3.093,-0.09,-0.36,0.95,-0.61,0.01,0.36,
3.095,-0.10,-0.36,0.95,-0.61,0.01,0.36,
3.097,-0.09,-0.36,0.95,-0.61,0.01,0.36,
3.097,-0.09,-0.36,0.95,-0.44,0.01,0.30,
3.103,-0.08,-0.36,0.95,-0.44,0.01,0.30,
3.103,-0.08,-0.36,0.95,-0.44,0.01,0.30,
3.103,-0.08,-0.36,0.95,-0.40,-0.03,0.30,
3.106,-0.08,-0.37,0.95,-0.40,-0.03,0.30,
3.107,-0.08,-0.38,0.95,-0.40,-0.03,0.30,
3.107,-0.08,-0.38,0.95,-0.29,-0.05,0.29,
3.109,-0.08,-0.37,0.96,-0.29,-0.05,0.29,
3.112,-0.08,-0.37,0.96,-0.22,-0.13,0.32,
3.112,-0.07,-0.37,0.97,-0.22,-0.13,0.32,
3.114,-0.07,-0.37,0.98,-0.22,-0.13,0.32,
3.117,-0.06,-0.37,0.98,-0.22,-0.13,0.32,
3.118,-0.06,-0.37,0.98,-0.20,-0.11,0.46,
3.119,-0.07,-0.37,0.98,-0.20,-0.11,0.46,
3.121,-0.07,-0.37,0.99,-0.20,-0.11,0.46,
3.122,-0.07,-0.37,0.99,-0.09,-0.06,0.59,
3.124,-0.08,-0.38,0.99,-0.09,-0.06,0.59,
3.126,-0.08,-0.37,0.99,-0.09,-0.06,0.59,
3.127,-0.08,-0.37,0.99,-0.12,-0.08,0.65,
3.129,-0.08,-0.38,1.00,-0.12,-0.08,0.65,
3.131,-0.09,-0.38,1.00,-0.12,-0.08,0.65,
3.132,-0.09,-0.38,1.00,-0.18,-0.09,0.71,
3.135,-0.09,-0.38,1.00,-0.18,-0.09,0.71,
3.137,-0.09,-0.38,1.00,-0.18,-0.09,0.71,
3.138,-0.09,-0.38,1.00,-0.25,-0.13,0.74,
3.139,-0.09,-0.37,0.99,-0.25,-0.13,0.74,
3.142,-0.09,-0.37,0.99,-0.25,-0.13,0.74,
3.142,-0.09,-0.37,0.99,-0.26,-0.08,0.74,
3.145,-0.08,-0.37,0.98,-0.26,-0.08,0.74,
3.147,-0.09,-0.37,0.98,-0.26,-0.08,0.74,
3.147,-0.09,-0.37,0.98,-0.29,-0.03,0.69,
3.149,-0.09,-0.37,0.98,-0.29,-0.03,0.69,
3.151,-0.09,-0.37,0.97,-0.29,-0.03,0.69,
3.152,-0.09,-0.37,0.97,-0.20,0.00,0.55,
3.154,-0.09,-0.37,0.96,-0.20,0.00,0.55,
3.157,-0.09,-0.37,0.96,-0.28,0.02,0.55,
3.157,-0.09,-0.37,0.96,-0.28,0.02,0.55,
3.159,-0.09,-0.37,0.95,-0.28,0.02,0.55,
3.161,-0.09,-0.37,0.95,-0.24,0.03,0.38,
3.162,-0.08,-0.37,0.95,-0.24,0.03,0.38,
3.163,-0.08,-0.37,0.95,-0.24,0.03,0.38,
3.166,-0.08,-0.37,0.95,-0.24,0.03,0.38,
3.167,-0.08,-0.37,0.95,-0.19,-0.00,0.29,
3.169,-0.08,-0.38,0.95,-0.19,-0.00,0.29,
3.171,-0.06,-0.38,0.95,-0.19,-0.00,0.29,
3.171,-0.06,-0.38,0.95,-0.14,-0.00,0.30,
3.174,-0.06,-0.38,0.96,-0.14,-0.00,0.30,
3.176,-0.05,-0.38,0.95,-0.14,-0.00,0.30,
3.176,-0.05,-0.38,0.95,-0.04,-0.03,0.28,
3.178,-0.05,-0.39,0.95,-0.04,-0.03,0.28,
3.182,-0.05,-0.40,0.96,-0.04,-0.03,0.28,
3.182,-0.05,-0.40,0.96,0.09,-0.05,0.34,
3.185,-0.05,-0.40,0.96,0.09,-0.05,0.34,
3.186,-0.05,-0.40,0.96,0.15,-0.14,0.34,
3.187,-0.04,-0.39,0.96,0.15,-0.14,0.34,
3.188,-0.04,-0.40,0.96,0.15,-0.14,0.34,
3.191,-0.04,-0.40,0.97,0.15,-0.14,0.34,
3.191,-0.04,-0.40,0.97,0.21,-0.15,0.38,
3.194,-0.04,-0.40,0.98,0.21,-0.15,0.38,
3.196,-0.04,-0.40,0.98,0.27,-0.20,0.43,
3.197,-0.03,-0.40,0.98,0.27,-0.20,0.43,
3.198,-0.04,-0.41,0.97,0.27,-0.20,0.43,
3.201,-0.03,-0.40,0.97,0.27,-0.20,0.43,
3.201,-0.03,-0.40,0.97,0.30,-0.19,0.56,
3.203,-0.03,-0.41,0.98,0.30,-0.19,0.56,
3.206,-0.03,-0.41,0.98,0.30,-0.19,0.56,
3.207,-0.03,-0.41,0.98,0.30,-0.20,0.54,
3.208,-0.03,-0.42,0.98,0.30,-0.20,0.54,
3.211,-0.04,-0.42,0.99,0.30,-0.20,0.54,
3.211,-0.04,-0.42,0.99,0.33,-0.25,0.62,
3.213,-0.05,-0.42,0.99,0.33,-0.25,0.62,
3.221,-0.05,-0.43,0.99,0.33,-0.25,0.62,
3.221,-0.05,-0.43,0.99,0.30,-0.29,0.64,
3.221,-0.06,-0.43,0.99,0.30,-0.29,0.64,
3.222,-0.07,-0.42,1.00,0.30,-0.29,0.64,
3.222,-0.07,-0.42,1.00,0.14,-0.35,0.70,
3.224,-0.08,-0.42,1.00,0.14,-0.35,0.70,
3.226,-0.08,-0.43,0.99,0.14,-0.35,0.70,
3.226,-0.08,-0.43,0.99,0.01,-0.34,0.72,
3.228,-0.09,-0.42,1.00,0.01,-0.34,0.72,
3.231,-0.09,-0.42,1.01,0.01,-0.34,0.72,
3.231,-0.09,-0.42,1.01,-0.13,-0.32,0.76,
3.234,-0.10,-0.41,1.00,-0.13,-0.32,0.76,
3.236,-0.10,-0.41,1.00,-0.21,-0.27,0.81,
3.236,-0.10,-0.41,1.00,-0.21,-0.27,0.81,
3.238,-0.10,-0.41,1.01,-0.21,-0.27,0.81,
3.241,-0.11,-0.41,1.00,-0.21,-0.27,0.81,
3.241,-0.11,-0.41,1.00,-0.28,-0.20,0.78,
3.243,-0.11,-0.40,1.00,-0.28,-0.20,0.78,
3.246,-0.12,-0.40,1.00,-0.28,-0.20,0.78,
3.246,-0.12,-0.40,1.00,-0.33,-0.19,0.83,
3.248,-0.12,-0.40,1.00,-0.33,-0.19,0.83,
3.25,-0.12,-0.40,1.00,-0.33,-0.19,0.83,
3.251,-0.12,-0.40,1.00,-0.39,-0.10,0.77,
3.253,-0.12,-0.39,0.99,-0.39,-0.10,0.77,
3.255,-0.12,-0.39,0.98,-0.39,-0.10,0.77,
3.256,-0.12,-0.39,0.98,-0.44,-0.06,0.75,
3.258,-0.12,-0.39,0.97,-0.44,-0.06,0.75,
3.261,-0.12,-0.39,0.97,-0.45,-0.01,0.63,
3.261,-0.11,-0.39,0.97,-0.45,-0.01,0.63,
3.262,-0.11,-0.38,0.95,-0.45,-0.01,0.63,
3.265,-0.11,-0.39,0.96,-0.45,-0.01,0.63,
3.265,-0.11,-0.39,0.96,-0.37,0.00,0.47,
3.268,-0.11,-0.39,0.94,-0.37,0.00,0.47,
3.27,-0.11,-0.39,0.94,-0.37,0.00,0.47,
3.271,-0.11,-0.39,0.94,-0.37,0.07,0.32,
3.273,-0.10,-0.39,0.93,-0.37,0.07,0.32,
3.276,-0.10,-0.40,0.93,-0.37,0.07,0.32,
3.276,-0.10,-0.40,0.93,-0.34,0.07,0.16,
3.277,-0.10,-0.40,0.92,-0.34,0.07,0.16,
3.281,-0.09,-0.40,0.92,-0.34,0.07,0.16,
3.281,-0.09,-0.40,0.92,-0.27,0.00,0.05,
3.283,-0.09,-0.40,0.92,-0.27,0.00,0.05,
3.285,-0.09,-0.40,0.92,-0.21,-0.04,-0.04,
3.285,-0.09,-0.40,0.92,-0.21,-0.04,-0.04,
3.287,-0.08,-0.40,0.91,-0.21,-0.04,-0.04,
3.29,-0.08,-0.40,0.91,-0.13,-0.04,-0.06,
3.29,-0.07,-0.40,0.92,-0.13,-0.04,-0.06,
3.293,-0.07,-0.40,0.92,-0.13,-0.04,-0.06,
3.295,-0.07,-0.40,0.92,-0.13,-0.04,-0.06,
3.298,-0.07,-0.40,0.92,-0.05,-0.05,-0.07,
3.298,-0.07,-0.41,0.92,-0.05,-0.05,-0.07,
3.301,-0.06,-0.41,0.92,-0.05,-0.05,-0.07,
3.301,-0.06,-0.41,0.92,0.01,-0.05,-0.02,
3.302,-0.06,-0.41,0.91,0.01,-0.05,-0.02,
3.305,-0.06,-0.41,0.92,0.01,-0.05,-0.02,
3.305,-0.06,-0.41,0.92,0.03,-0.10,-0.02,
3.307,-0.06,-0.41,0.92,0.03,-0.10,-0.02,
3.309,-0.06,-0.41,0.92,0.09,-0.09,-0.03,
3.31,-0.06,-0.41,0.92,0.09,-0.09,-0.03,
3.312,-0.06,-0.41,0.92,0.09,-0.09,-0.03,
3.314,-0.05,-0.40,0.92,0.09,-0.09,-0.03,
3.315,-0.05,-0.40,0.92,0.06,-0.10,0.02,
3.318,-0.05,-0.40,0.92,0.06,-0.10,0.02,
3.319,-0.05,-0.40,0.92,0.06,-0.10,0.02,
3.32,-0.05,-0.40,0.92,0.11,-0.05,-0.01,
3.322,-0.06,-0.40,0.92,0.11,-0.05,-0.01,
3.324,-0.06,-0.40,0.92,0.11,-0.05,-0.01,
3.325,-0.06,-0.40,0.92,0.14,-0.03,0.01,
3.327,-0.06,-0.40,0.92,0.14,-0.03,0.01,
3.329,-0.07,-0.41,0.91,0.14,-0.03,0.01,
3.329,-0.07,-0.41,0.91,0.10,-0.02,-0.02,
3.337,-0.07,-0.41,0.92,0.10,-0.02,-0.02,
3.338,-0.07,-0.41,0.92,0.05,-0.05,-0.06,
3.338,-0.06,-0.41,0.92,0.05,-0.05,-0.06,
3.338,-0.07,-0.41,0.91,0.05,-0.05,-0.06,
3.339,-0.06,-0.41,0.92,0.05,-0.05,-0.06,
3.34,-0.06,-0.41,0.92,0.03,-0.09,-0.03,
3.344,-0.06,-0.41,0.91,0.03,-0.09,-0.03,
3.344,-0.07,-0.41,0.91,0.03,-0.09,-0.03,
3.345,-0.07,-0.41,0.91,0.01,-0.10,-0.08,
3.347,-0.06,-0.41,0.91,0.01,-0.10,-0.08,
3.35,-0.06,-0.41,0.91,0.01,-0.10,-0.08,
3.35,-0.06,-0.41,0.91,0.03,-0.10,-0.06,
3.351,-0.07,-0.40,0.92,0.03,-0.10,-0.06,
3.354,-0.06,-0.40,0.92,0.03,-0.10,-0.06,
3.354,-0.06,-0.40,0.92,0.04,-0.04,-0.05,
3.357,-0.06,-0.40,0.92,0.04,-0.04,-0.05,
3.359,-0.06,-0.40,0.92,0.05,0.00,-0.02,
3.359,-0.06,-0.41,0.91,0.05,0.00,-0.02,
3.362,-0.06,-0.40,0.92,0.05,0.00,-0.02,
3.364,-0.06,-0.40,0.91,0.05,0.00,-0.02,
3.364,-0.06,-0.40,0.91,0.07,-0.02,-0.04,
3.366,-0.05,-0.40,0.91,0.07,-0.02,-0.04,
3.369,-0.05,-0.41,0.91,0.07,-0.02,-0.04,
3.369,-0.05,-0.41,0.91,0.12,0.01,-0.03,
3.371,-0.05,-0.41,0.91,0.12,0.01,-0.03,
3.374,-0.05,-0.42,0.90,0.12,0.01,-0.03,
3.374,-0.05,-0.42,0.90,0.14,-0.01,-0.11,
3.376,-0.05,-0.43,0.91,0.14,-0.01,-0.11,
3.379,-0.05,-0.43,0.91,0.14,-0.01,-0.11,
3.379,-0.05,-0.43,0.91,0.17,-0.13,-0.14,
3.381,-0.05,-0.43,0.90,0.17,-0.13,-0.14,
3.384,-0.05,-0.43,0.90,0.20,-0.23,-0.11,
3.384,-0.04,-0.43,0.90,0.20,-0.23,-0.11,
3.386,-0.04,-0.42,0.90,0.20,-0.23,-0.11,
3.389,-0.04,-0.42,0.90,0.24,-0.21,-0.14,
3.389,-0.04,-0.42,0.91,0.24,-0.21,-0.14,
3.391,-0.03,-0.42,0.91,0.24,-0.21,-0.14,
3.394,-0.03,-0.42,0.91,0.24,-0.21,-0.14,
3.394,-0.03,-0.42,0.91,0.31,-0.17,-0.10,
3.396,-0.04,-0.42,0.91,0.31,-0.17,-0.10,
3.4,-0.04,-0.43,0.92,0.31,-0.17,-0.10,
3.4,-0.04,-0.43,0.92,0.34,-0.10,-0.05,
3.401,-0.04,-0.43,0.92,0.34,-0.10,-0.05,
3.403,-0.04,-0.43,0.92,0.31,-0.15,0.02,
3.404,-0.04,-0.43,0.92,0.31,-0.15,0.02,
3.406,-0.05,-0.44,0.92,0.31,-0.15,0.02,
3.408,-0.05,-0.44,0.92,0.26,-0.23,0.05,
3.409,-0.06,-0.44,0.92,0.26,-0.23,0.05,
3.411,-0.06,-0.44,0.92,0.26,-0.23,0.05,
3.413,-0.07,-0.44,0.93,0.26,-0.23,0.05,
3.414,-0.07,-0.44,0.93,0.14,-0.27,0.05,
3.416,-0.07,-0.44,0.93,0.14,-0.27,0.05,
3.418,-0.07,-0.44,0.93,0.14,-0.27,0.05,
3.419,-0.07,-0.44,0.93,0.05,-0.26,0.08,
3.421,-0.07,-0.44,0.93,0.05,-0.26,0.08,
3.423,-0.07,-0.43,0.93,0.05,-0.26,0.08,
3.423,-0.07,-0.43,0.93,0.00,-0.25,0.11,
3.425,-0.07,-0.43,0.93,0.00,-0.25,0.11,
3.429,-0.07,-0.44,0.93,0.00,-0.25,0.11,
3.429,-0.07,-0.44,0.93,-0.01,-0.23,0.12,
3.431,-0.06,-0.43,0.92,-0.01,-0.23,0.12,
3.437,-0.06,-0.43,0.92,0.01,-0.21,0.12,
3.438,-0.06,-0.43,0.92,0.01,-0.21,0.12,
3.438,-0.06,-0.44,0.92,0.01,-0.21,0.12,
3.438,-0.05,-0.44,0.92,0.01,-0.21,0.12,
3.439,-0.05,-0.44,0.92,0.09,-0.19,0.07,
3.44,-0.06,-0.43,0.92,0.09,-0.19,0.07,
3.443,-0.05,-0.43,0.92,0.09,-0.19,0.07,
3.443,-0.05,-0.43,0.92,0.12,-0.22,0.04,
3.445,-0.05,-0.44,0.92,0.12,-0.22,0.04,
3.448,-0.04,-0.44,0.91,0.12,-0.22,0.04,
3.448,-0.04,-0.44,0.91,0.13,-0.19,0.02,
3.451,-0.04,-0.43,0.91,0.13,-0.19,0.02,
3.453,-0.04,-0.44,0.91,0.13,-0.19,0.02,
3.453,-0.04,-0.44,0.91,0.20,-0.22,0.00,
3.455,-0.04,-0.44,0.91,0.20,-0.22,0.00,
3.458,-0.04,-0.44,0.91,0.24,-0.18,-0.07,
3.458,-0.04,-0.44,0.90,0.24,-0.18,-0.07,
3.462,-0.03,-0.44,0.90,0.24,-0.18,-0.07,
3.463,-0.04,-0.44,0.90,0.24,-0.18,-0.07,
3.464,-0.04,-0.44,0.90,0.30,-0.19,-0.11,
3.466,-0.04,-0.44,0.89,0.30,-0.19,-0.11,
3.468,-0.04,-0.44,0.89,0.30,-0.19,-0.11,
3.469,-0.04,-0.44,0.89,0.29,-0.19,-0.16,
3.471,-0.05,-0.44,0.89,0.29,-0.19,-0.16,
3.473,-0.05,-0.44,0.89,0.25,-0.21,-0.22,
3.473,-0.04,-0.44,0.89,0.25,-0.21,-0.22,
3.477,-0.04,-0.44,0.88,0.25,-0.21,-0.22,
3.478,-0.04,-0.44,0.88,0.22,-0.19,-0.22,
3.479,-0.05,-0.44,0.88,0.22,-0.19,-0.22,
3.48,-0.04,-0.44,0.89,0.22,-0.19,-0.22,
3.484,-0.04,-0.44,0.89,0.23,-0.18,-0.32,
3.484,-0.05,-0.44,0.89,0.23,-0.18,-0.32,
3.486,-0.05,-0.44,0.89,0.23,-0.18,-0.32,
3.488,-0.05,-0.44,0.89,0.23,-0.18,-0.32,
3.489,-0.05,-0.44,0.89,0.20,-0.23,-0.26,
3.491,-0.05,-0.44,0.89,0.20,-0.23,-0.26,
3.493,-0.05,-0.44,0.89,0.20,-0.23,-0.26,
3.493,-0.05,-0.44,0.89,0.17,-0.21,-0.23,
3.496,-0.05,-0.44,0.90,0.17,-0.21,-0.23,
3.498,-0.05,-0.44,0.90,0.15,-0.18,-0.21,
3.498,-0.06,-0.43,0.90,0.15,-0.18,-0.21,
3.501,-0.06,-0.43,0.90,0.15,-0.18,-0.21,
3.503,-0.06,-0.43,0.90,0.15,-0.18,-0.21,
3.503,-0.06,-0.43,0.90,0.13,-0.14,-0.13,
3.506,-0.07,-0.44,0.90,0.13,-0.14,-0.13,
3.508,-0.07,-0.44,0.90,0.08,-0.12,-0.15,
3.509,-0.06,-0.44,0.90,0.08,-0.12,-0.15,
3.511,-0.06,-0.44,0.90,0.08,-0.12,-0.15,
3.513,-0.06,-0.44,0.90,0.08,-0.12,-0.15,
3.513,-0.06,-0.44,0.90,0.04,-0.13,-0.10,
3.515,-0.06,-0.44,0.91,0.04,-0.13,-0.10,
3.518,-0.05,-0.44,0.91,0.04,-0.13,-0.10,
3.518,-0.05,-0.44,0.91,0.10,-0.16,-0.07,
3.52,-0.05,-0.44,0.91,0.10,-0.16,-0.07,
3.523,-0.05,-0.44,0.91,0.15,-0.15,-0.00,
3.523,-0.05,-0.44,0.91,0.15,-0.15,-0.00,
3.526,-0.05,-0.44,0.92,0.15,-0.15,-0.00,
3.527,-0.05,-0.44,0.92,0.15,-0.15,-0.00,
3.527,-0.05,-0.44,0.92,0.21,-0.12,-0.01,
3.53,-0.05,-0.44,0.92,0.21,-0.12,-0.01,
3.533,-0.05,-0.44,0.92,0.21,-0.16,0.06,
3.533,-0.05,-0.44,0.91,0.21,-0.16,0.06,
3.536,-0.06,-0.44,0.92,0.21,-0.16,0.06,
3.537,-0.06,-0.44,0.92,0.21,-0.16,0.06,
3.538,-0.06,-0.44,0.92,0.19,-0.13,0.06,
3.54,-0.06,-0.44,0.92,0.19,-0.13,0.06,
3.543,-0.06,-0.44,0.92,0.13,-0.15,0.08,
3.543,-0.06,-0.44,0.92,0.13,-0.15,0.08,
3.545,-0.06,-0.44,0.92,0.13,-0.15,0.08,
3.547,-0.06,-0.44,0.92,0.13,-0.15,0.08,
3.547,-0.06,-0.44,0.92,0.11,-0.16,0.08,
3.55,-0.05,-0.44,0.92,0.11,-0.16,0.08,
3.555,-0.05,-0.44,0.92,0.11,-0.16,0.08,
3.556,-0.05,-0.44,0.92,0.15,-0.13,0.09,
3.556,-0.04,-0.43,0.92,0.15,-0.13,0.09,
3.56,-0.04,-0.43,0.92,0.24,-0.11,0.12,
3.56,-0.04,-0.43,0.92,0.24,-0.11,0.12,
3.56,-0.04,-0.43,0.91,0.24,-0.11,0.12,
3.562,-0.04,-0.43,0.92,0.24,-0.11,0.12,
3.563,-0.04,-0.43,0.92,0.31,-0.04,0.10,
3.565,-0.03,-0.43,0.92,0.31,-0.04,0.10,
3.568,-0.03,-0.44,0.92,0.31,-0.04,0.10,
3.569,-0.03,-0.44,0.92,0.34,-0.06,0.09,
3.569,-0.04,-0.45,0.93,0.34,-0.06,0.09,
3.572,-0.04,-0.45,0.93,0.34,-0.06,0.09,
3.573,-0.04,-0.45,0.93,0.38,-0.09,0.11,
3.575,-0.04,-0.45,0.93,0.38,-0.09,0.11,
3.577,-0.04,-0.45,0.93,0.38,-0.09,0.11,
3.578,-0.04,-0.45,0.93,0.37,-0.18,0.18,
3.58,-0.04,-0.45,0.93,0.37,-0.18,0.18,
3.582,-0.04,-0.45,0.93,0.32,-0.22,0.22,
3.583,-0.05,-0.45,0.94,0.32,-0.22,0.22,
3.585,-0.05,-0.46,0.94,0.32,-0.22,0.22,
3.587,-0.05,-0.46,0.94,0.32,-0.22,0.22,
3.587,-0.05,-0.46,0.94,0.29,-0.23,0.25,
3.589,-0.05,-0.45,0.94,0.29,-0.23,0.25,
3.593,-0.06,-0.46,0.95,0.29,-0.23,0.25,
3.593,-0.06,-0.46,0.95,0.22,-0.25,0.29,
3.594,-0.06,-0.46,0.95,0.22,-0.25,0.29,
3.597,-0.06,-0.46,0.95,0.22,-0.25,0.29,
3.597,-0.06,-0.46,0.95,0.18,-0.23,0.36,
3.6,-0.07,-0.46,0.96,0.18,-0.23,0.36,
3.602,-0.07,-0.46,0.96,0.18,-0.23,0.36,
3.602,-0.07,-0.46,0.96,0.12,-0.26,0.44,
3.604,-0.08,-0.46,0.95,0.12,-0.26,0.44,
3.607,-0.08,-0.46,0.95,0.04,-0.27,0.46,
3.607,-0.08,-0.46,0.96,0.04,-0.27,0.46,
3.609,-0.08,-0.46,0.96,0.04,-0.27,0.46,
3.611,-0.08,-0.46,0.96,0.04,-0.27,0.46,
3.612,-0.08,-0.46,0.96,-0.01,-0.27,0.44,
3.614,-0.08,-0.46,0.96,-0.01,-0.27,0.44,
3.618,-0.08,-0.46,0.97,-0.01,-0.27,0.44,
3.619,-0.08,-0.46,0.97,-0.01,-0.25,0.47,
3.619,-0.08,-0.46,0.96,-0.01,-0.25,0.47,
3.622,-0.08,-0.46,0.96,-0.01,-0.25,0.47,
3.622,-0.08,-0.46,0.96,-0.02,-0.26,0.50,
3.624,-0.08,-0.45,0.96,-0.02,-0.26,0.50,
3.626,-0.08,-0.45,0.97,-0.02,-0.26,0.50,
3.627,-0.08,-0.45,0.97,-0.00,-0.23,0.52,
3.629,-0.08,-0.45,0.96,-0.00,-0.23,0.52,
3.631,-0.07,-0.45,0.97,-0.00,-0.23,0.52,
3.632,-0.07,-0.45,0.97,-0.02,-0.17,0.53,
3.635,-0.07,-0.44,0.97,-0.02,-0.17,0.53,
3.636,-0.06,-0.44,0.96,-0.02,-0.17,0.53,
3.637,-0.06,-0.44,0.96,0.03,-0.12,0.53,
3.639,-0.06,-0.45,0.96,0.03,-0.12,0.53,
3.641,-0.06,-0.45,0.96,0.03,-0.12,0.53,
3.641,-0.06,-0.45,0.96,0.14,-0.09,0.52,
3.643,-0.06,-0.45,0.96,0.14,-0.09,0.52,
3.646,-0.06,-0.45,0.96,0.14,-0.09,0.52,
3.647,-0.06,-0.45,0.96,0.18,-0.13,0.47,
3.648,-0.06,-0.45,0.96,0.18,-0.13,0.47,
3.655,-0.05,-0.46,0.96,0.18,-0.13,0.47,
3.656,-0.05,-0.46,0.96,0.17,-0.13,0.45,
3.656,-0.06,-0.46,0.95,0.17,-0.13,0.45,
3.657,-0.06,-0.46,0.95,0.20,-0.20,0.43,
3.657,-0.05,-0.46,0.95,0.20,-0.20,0.43,
3.658,-0.04,-0.45,0.95,0.20,-0.20,0.43,
3.661,-0.04,-0.46,0.94,0.20,-0.20,0.43,
3.661,-0.04,-0.46,0.94,0.21,-0.23,0.38,
3.663,-0.04,-0.45,0.95,0.21,-0.23,0.38,
3.666,-0.04,-0.45,0.95,0.21,-0.23,0.38,
3.666,-0.04,-0.45,0.95,0.35,-0.21,0.32,
3.669,-0.04,-0.45,0.96,0.35,-0.21,0.32,
3.671,-0.04,-0.45,0.96,0.35,-0.21,0.32,
3.671,-0.04,-0.45,0.96,0.40,-0.19,0.34,
3.673,-0.05,-0.45,0.96,0.40,-0.19,0.34,
3.676,-0.04,-0.46,0.96,0.40,-0.19,0.34,
3.676,-0.04,-0.46,0.96,0.36,-0.19,0.41,
3.678,-0.05,-0.45,0.96,0.36,-0.19,0.41,
3.681,-0.05,-0.45,0.96,0.30,-0.20,0.40,
3.681,-0.06,-0.45,0.97,0.30,-0.20,0.40,
3.684,-0.06,-0.46,0.97,0.30,-0.20,0.40,
3.687,-0.06,-0.46,0.97,0.30,-0.20,0.40,
3.687,-0.06,-0.46,0.97,0.26,-0.17,0.49,
3.688,-0.06,-0.45,0.97,0.26,-0.17,0.49,
3.691,-0.07,-0.46,0.98,0.26,-0.17,0.49,
3.691,-0.07,-0.46,0.98,0.19,-0.23,0.53,
3.693,-0.07,-0.45,0.99,0.19,-0.23,0.53,
3.696,-0.08,-0.45,0.99,0.19,-0.23,0.53,
3.696,-0.08,-0.45,0.99,0.12,-0.21,0.61,
3.698,-0.08,-0.45,1.00,0.12,-0.21,0.61,
3.702,-0.08,-0.45,1.00,0.12,-0.21,0.61,
3.703,-0.08,-0.45,1.00,0.03,-0.18,0.75,
3.704,-0.08,-0.44,1.00,0.03,-0.18,0.75,
3.705,-0.08,-0.44,1.00,0.03,-0.16,0.77,
3.706,-0.07,-0.45,1.00,0.03,-0.16,0.77,
3.708,-0.08,-0.45,1.00,0.03,-0.16,0.77,
3.711,-0.08,-0.45,0.99,0.03,-0.16,0.77,
3.711,-0.08,-0.45,0.99,0.03,-0.13,0.83,
3.713,-0.08,-0.45,0.99,0.03,-0.13,0.83,
3.716,-0.08,-0.45,0.98,0.03,-0.13,0.83,
3.716,-0.08,-0.45,0.98,0.02,-0.14,0.76,
3.719,-0.08,-0.45,0.98,0.02,-0.14,0.76,
3.72,-0.08,-0.44,0.97,0.02,-0.14,0.76,
3.721,-0.08,-0.44,0.97,0.01,-0.18,0.64,
3.723,-0.08,-0.45,0.96,0.01,-0.18,0.64,
3.725,-0.08,-0.46,0.96,0.01,-0.18,0.64,
3.725,-0.08,-0.46,0.96,0.04,-0.15,0.51,
3.728,-0.08,-0.45,0.96,0.04,-0.15,0.51,
3.73,-0.08,-0.45,0.96,0.01,-0.21,0.38,
3.73,-0.08,-0.45,0.95,0.01,-0.21,0.38,
3.732,-0.08,-0.45,0.94,0.01,-0.21,0.38,
3.735,-0.07,-0.44,0.95,0.01,-0.21,0.38,
3.735,-0.07,-0.44,0.95,0.03,-0.20,0.27,
3.737,-0.07,-0.44,0.94,0.03,-0.20,0.27,
3.74,-0.07,-0.44,0.93,0.03,-0.20,0.27,
3.74,-0.07,-0.44,0.93,0.06,-0.18,0.21,
3.742,-0.07,-0.44,0.94,0.06,-0.18,0.21,
3.745,-0.06,-0.45,0.93,0.06,-0.18,0.21,
3.745,-0.06,-0.45,0.93,0.12,-0.16,0.10,
3.747,-0.05,-0.45,0.92,0.12,-0.16,0.10,
3.756,-0.05,-0.44,0.93,0.12,-0.16,0.10,
3.756,-0.05,-0.44,0.93,0.19,-0.18,0.09,
3.757,-0.05,-0.45,0.93,0.19,-0.18,0.09,
3.757,-0.05,-0.45,0.93,0.26,-0.19,0.00,
3.757,-0.04,-0.45,0.92,0.26,-0.19,0.00,
3.757,-0.05,-0.45,0.92,0.26,-0.19,0.00,
3.76,-0.05,-0.45,0.93,0.26,-0.19,0.00,
3.76,-0.05,-0.45,0.93,0.31,-0.23,0.01,
3.762,-0.04,-0.45,0.92,0.31,-0.23,0.01,
3.766,-0.04,-0.46,0.92,0.31,-0.23,0.01,
3.766,-0.04,-0.46,0.92,0.28,-0.25,-0.00,
3.768,-0.04,-0.46,0.91,0.28,-0.25,-0.00,
3.77,-0.04,-0.45,0.91,0.28,-0.25,-0.00,
3.77,-0.04,-0.45,0.91,0.32,-0.31,-0.07,
3.772,-0.04,-0.46,0.91,0.32,-0.31,-0.07,
3.776,-0.04,-0.46,0.91,0.32,-0.31,-0.07,
3.776,-0.04,-0.46,0.91,0.32,-0.33,-0.14,
3.778,-0.04,-0.45,0.91,0.32,-0.33,-0.14,
3.781,-0.04,-0.45,0.91,0.33,-0.34,-0.15,
3.781,-0.03,-0.45,0.90,0.33,-0.34,-0.15,
3.783,-0.03,-0.45,0.90,0.33,-0.34,-0.15,
3.785,-0.03,-0.45,0.90,0.33,-0.34,-0.15,
3.786,-0.03,-0.45,0.90,0.38,-0.31,-0.23,
3.787,-0.03,-0.45,0.90,0.38,-0.31,-0.23,
3.79,-0.02,-0.45,0.90,0.38,-0.31,-0.23,
3.796,-0.02,-0.45,0.90,0.42,-0.29,-0.29,
3.796,-0.01,-0.45,0.89,0.42,-0.29,-0.29,
3.796,-0.01,-0.45,0.89,0.47,-0.29,-0.31,
3.797,-0.01,-0.45,0.88,0.47,-0.29,-0.31,
3.797,-0.01,-0.45,0.88,0.47,-0.29,-0.31,
3.8,-0.01,-0.44,0.89,0.47,-0.29,-0.31,
3.8,-0.01,-0.44,0.89,0.57,-0.29,-0.42,
3.802,-0.00,-0.44,0.89,0.57,-0.29,-0.42,
3.805,-0.00,-0.44,0.89,0.65,-0.25,-0.40,
3.805,0.00,-0.44,0.89,0.65,-0.25,-0.40,
3.807,0.00,-0.44,0.89,0.65,-0.25,-0.40,
3.81,0.00,-0.44,0.89,0.65,-0.25,-0.40,
3.81,0.00,-0.44,0.89,0.69,-0.23,-0.35,
3.812,0.00,-0.44,0.90,0.69,-0.23,-0.35,
3.815,0.00,-0.44,0.90,0.69,-0.23,-0.35,
3.815,0.00,-0.44,0.90,0.73,-0.21,-0.34,
3.817,-0.00,-0.44,0.90,0.73,-0.21,-0.34,
3.82,-0.00,-0.43,0.90,0.73,-0.21,-0.34,
3.82,-0.00,-0.43,0.90,0.70,-0.21,-0.28,
3.822,-0.00,-0.43,0.90,0.70,-0.21,-0.28,
3.825,-0.01,-0.43,0.90,0.70,-0.21,-0.28,
3.825,-0.01,-0.43,0.90,0.68,-0.16,-0.24,
3.827,-0.01,-0.43,0.90,0.68,-0.16,-0.24,
3.83,-0.01,-0.43,0.90,0.63,-0.14,-0.25,
3.83,-0.01,-0.43,0.90,0.63,-0.14,-0.25,
3.832,-0.00,-0.43,0.90,0.63,-0.14,-0.25,
3.836,-0.00,-0.43,0.89,0.63,-0.14,-0.25,
3.837,-0.00,-0.43,0.89,0.62,-0.14,-0.25,
3.837,-0.01,-0.42,0.89,0.62,-0.14,-0.25,
3.84,-0.01,-0.42,0.89,0.66,-0.14,-0.31,
3.84,-0.01,-0.43,0.88,0.66,-0.14,-0.31,
3.842,0.00,-0.43,0.87,0.66,-0.14,-0.31,
3.845,0.01,-0.43,0.87,0.66,-0.14,-0.31,
3.845,0.01,-0.43,0.87,0.64,-0.12,-0.46,
3.847,0.01,-0.43,0.86,0.64,-0.12,-0.46,
3.85,0.01,-0.43,0.86,0.74,-0.15,-0.61,
3.85,0.01,-0.43,0.86,0.74,-0.15,-0.61,
3.852,0.02,-0.43,0.86,0.74,-0.15,-0.61,
3.854,0.02,-0.43,0.86,0.80,-0.18,-0.67,
3.854,0.01,-0.43,0.85,0.80,-0.18,-0.67,
3.857,0.01,-0.43,0.86,0.80,-0.18,-0.67,
3.86,0.01,-0.44,0.86,0.80,-0.18,-0.67,
3.86,0.01,-0.44,0.86,0.84,-0.19,-0.72,
3.862,0.01,-0.44,0.87,0.84,-0.19,-0.72,
3.865,0.00,-0.44,0.88,0.84,-0.19,-0.72,
3.865,0.00,-0.44,0.88,0.81,-0.27,-0.66,
3.867,-0.00,-0.45,0.89,0.81,-0.27,-0.66,
3.869,-0.01,-0.44,0.89,0.81,-0.27,-0.66,
3.87,-0.01,-0.44,0.89,0.73,-0.34,-0.53,
3.872,-0.01,-0.44,0.90,0.73,-0.34,-0.53,
3.875,-0.02,-0.44,0.91,0.73,-0.34,-0.53,
3.875,-0.02,-0.44,0.91,0.65,-0.38,-0.39,
3.877,-0.03,-0.43,0.92,0.65,-0.38,-0.39,
3.88,-0.03,-0.43,0.92,0.54,-0.33,-0.21,
3.88,-0.03,-0.43,0.93,0.54,-0.33,-0.21,
3.882,-0.03,-0.43,0.93,0.54,-0.33,-0.21,
3.884,-0.03,-0.42,0.93,0.54,-0.33,-0.21,
3.885,-0.03,-0.42,0.93,0.42,-0.25,-0.03,
3.89,-0.02,-0.42,0.93,0.42,-0.25,-0.03,
3.891,-0.02,-0.42,0.93,0.42,-0.25,-0.03,
3.891,-0.02,-0.42,0.93,0.41,-0.21,0.00,
3.891,-0.01,-0.42,0.92,0.41,-0.21,0.00,
3.896,-0.01,-0.42,0.92,0.41,-0.21,0.00,
3.896,-0.01,-0.42,0.92,0.49,-0.18,0.01,
3.896,-0.01,-0.42,0.92,0.49,-0.18,0.01,
3.899,-0.00,-0.42,0.91,0.49,-0.18,0.01,
3.899,-0.00,-0.42,0.91,0.58,-0.17,-0.07,
3.904,0.00,-0.42,0.90,0.58,-0.17,-0.07,
3.904,0.00,-0.42,0.90,0.66,-0.14,-0.15,
3.905,0.01,-0.42,0.89,0.66,-0.14,-0.15,
3.906,0.01,-0.42,0.89,0.66,-0.14,-0.15,
3.909,0.02,-0.42,0.88,0.66,-0.14,-0.15,
3.909,0.02,-0.42,0.88,0.76,-0.20,-0.35,
3.911,0.02,-0.42,0.88,0.76,-0.20,-0.35,
3.914,0.02,-0.42,0.88,0.84,-0.21,-0.44,
3.914,0.02,-0.43,0.88,0.84,-0.21,-0.44,
3.916,0.02,-0.43,0.88,0.84,-0.21,-0.44,
3.919,0.02,-0.43,0.89,0.84,-0.21,-0.44,
3.92,0.02,-0.43,0.89,0.89,-0.22,-0.50,
3.921,0.03,-0.43,0.89,0.89,-0.22,-0.50,
3.924,0.03,-0.43,0.89,0.90,-0.29,-0.45,
3.924,0.03,-0.43,0.89,0.90,-0.29,-0.45,
3.926,0.03,-0.43,0.89,0.90,-0.29,-0.45,
3.929,0.03,-0.43,0.89,0.93,-0.32,-0.38,
3.929,0.03,-0.43,0.90,0.93,-0.32,-0.38,
3.931,0.03,-0.43,0.91,0.93,-0.32,-0.38,
3.934,0.04,-0.42,0.91,0.93,-0.32,-0.38,
3.934,0.04,-0.42,0.91,0.94,-0.27,-0.33,
3.936,0.04,-0.43,0.91,0.94,-0.27,-0.33,
3.938,0.04,-0.42,0.92,0.94,-0.27,-0.33,
3.939,0.04,-0.42,0.92,0.97,-0.25,-0.20,
3.941,0.04,-0.42,0.93,0.97,-0.25,-0.20,
3.944,0.04,-0.42,0.93,0.99,-0.24,-0.11,
3.944,0.04,-0.43,0.93,0.99,-0.24,-0.11,
3.946,0.04,-0.43,0.93,0.99,-0.24,-0.11,
3.948,0.05,-0.42,0.94,0.99,-0.24,-0.11,
3.949,0.05,-0.42,0.94,0.98,-0.25,-0.00,
3.951,0.05,-0.42,0.94,0.98,-0.25,-0.00,
3.953,0.05,-0.42,0.94,1.07,-0.25,0.03,
3.954,0.06,-0.42,0.93,1.07,-0.25,0.03,
3.956,0.07,-0.42,0.93,1.07,-0.25,0.03,
3.958,0.07,-0.42,0.93,1.07,-0.25,0.03,
3.959,0.07,-0.42,0.93,1.15,-0.23,0.02,
3.96,0.08,-0.42,0.92,1.15,-0.23,0.02,
3.963,0.09,-0.43,0.92,1.15,-0.23,0.02,
3.963,0.09,-0.43,0.92,1.26,-0.25,-0.02,
3.965,0.09,-0.43,0.91,1.26,-0.25,-0.02,
3.969,0.09,-0.43,0.91,1.37,-0.30,-0.12,
3.969,0.09,-0.44,0.91,1.37,-0.30,-0.12,
3.972,0.09,-0.44,0.91,1.37,-0.30,-0.12,
3.973,0.10,-0.45,0.91,1.37,-0.30,-0.12,
3.973,0.10,-0.45,0.91,1.42,-0.38,-0.20,
3.975,0.10,-0.45,0.91,1.42,-0.38,-0.20,
3.978,0.10,-0.45,0.91,1.45,-0.45,-0.23,
3.979,0.11,-0.45,0.91,1.45,-0.45,-0.23,
3.98,0.10,-0.45,0.91,1.45,-0.45,-0.23,
3.983,0.10,-0.44,0.92,1.45,-0.45,-0.23,
3.983,0.10,-0.44,0.92,1.49,-0.47,-0.22,
3.99,0.10,-0.45,0.92,1.49,-0.47,-0.22,
3.991,0.10,-0.45,0.92,1.49,-0.47,-0.22,
3.991,0.10,-0.45,0.92,1.46,-0.47,-0.16,
3.991,0.10,-0.45,0.93,1.46,-0.47,-0.16,
3.995,0.10,-0.45,0.93,1.43,-0.52,-0.10,
3.995,0.10,-0.46,0.94,1.43,-0.52,-0.10,
3.995,0.10,-0.46,0.95,1.43,-0.52,-0.10,
3.998,0.10,-0.46,0.95,1.43,-0.52,-0.10,
3.998,0.10,-0.46,0.95,1.41,-0.55,0.02,
4.0,0.10,-0.46,0.96,1.41,-0.55,0.02,
4.003,0.10,-0.46,0.96,1.37,-0.58,0.19,
4.003,0.10,-0.46,0.97,1.37,-0.58,0.19,
4.005,0.10,-0.45,0.97,1.37,-0.58,0.19,
4.007,0.10,-0.45,0.98,1.37,-0.58,0.19,
4.008,0.10,-0.45,0.98,1.39,-0.57,0.31,
4.011,0.11,-0.45,0.98,1.39,-0.57,0.31,
4.013,0.11,-0.45,0.98,1.39,-0.57,0.31,
4.013,0.11,-0.45,0.98,1.38,-0.54,0.42,
4.015,0.11,-0.45,0.98,1.38,-0.54,0.42,
4.018,0.12,-0.46,0.99,1.38,-0.54,0.42,
4.018,0.12,-0.46,0.99,1.41,-0.52,0.48,
4.02,0.12,-0.46,0.98,1.41,-0.52,0.48,
4.023,0.12,-0.45,0.98,1.41,-0.52,0.48,
4.023,0.12,-0.45,0.98,1.43,-0.55,0.51,
4.025,0.12,-0.45,0.98,1.43,-0.55,0.51,
4.028,0.12,-0.45,0.98,1.46,-0.55,0.43,
4.028,0.12,-0.45,0.98,1.46,-0.55,0.43,
4.03,0.12,-0.45,0.98,1.46,-0.55,0.43,
4.033,0.12,-0.44,0.97,1.46,-0.55,0.43,
4.033,0.12,-0.44,0.97,1.48,-0.52,0.44,
4.035,0.13,-0.45,0.96,1.48,-0.52,0.44,
4.038,0.12,-0.44,0.97,1.48,-0.52,0.44,
4.039,0.12,-0.44,0.97,1.46,-0.47,0.35,
4.04,0.13,-0.44,0.97,1.46,-0.47,0.35,
4.043,0.12,-0.44,0.96,1.46,-0.47,0.35,
4.043,0.12,-0.44,0.96,1.47,-0.45,0.28,
4.045,0.12,-0.44,0.96,1.47,-0.45,0.28,
4.047,0.12,-0.44,0.95,1.47,-0.45,0.28,
4.047,0.12,-0.44,0.95,1.47,-0.39,0.25,
4.05,0.11,-0.43,0.95,1.47,-0.39,0.25,
4.054,0.11,-0.43,0.95,1.41,-0.38,0.17,
4.054,0.11,-0.43,0.96,1.41,-0.38,0.17,
4.054,0.11,-0.43,0.96,1.41,-0.38,0.17,
4.057,0.10,-0.43,0.96,1.41,-0.38,0.17,
4.058,0.10,-0.43,0.96,1.28,-0.36,0.15,
4.06,0.10,-0.42,0.95,1.28,-0.36,0.15,
4.063,0.09,-0.41,0.95,1.28,-0.36,0.15,
4.063,0.09,-0.41,0.95,1.22,-0.31,0.17,
4.065,0.08,-0.41,0.94,1.22,-0.31,0.17,
4.067,0.08,-0.41,0.93,1.22,-0.31,0.17,
4.067,0.08,-0.41,0.93,1.09,-0.19,0.09,
4.07,0.07,-0.41,0.93,1.09,-0.19,0.09,
4.072,0.07,-0.41,0.92,1.09,-0.19,0.09,
4.072,0.07,-0.41,0.92,0.94,-0.17,-0.07,
4.075,0.07,-0.41,0.92,0.94,-0.17,-0.07,
4.077,0.07,-0.41,0.92,0.82,-0.15,-0.14,
4.077,0.06,-0.41,0.91,0.82,-0.15,-0.14,
4.08,0.06,-0.41,0.91,0.82,-0.15,-0.14,
4.082,0.06,-0.40,0.91,0.82,-0.15,-0.14,
4.083,0.06,-0.40,0.91,0.75,-0.16,-0.26,
4.085,0.05,-0.40,0.91,0.75,-0.16,-0.26,
4.087,0.05,-0.40,0.90,0.75,-0.16,-0.26,
4.087,0.05,-0.40,0.90,0.72,-0.16,-0.35,
4.09,0.05,-0.40,0.90,0.72,-0.16,-0.35,
4.092,0.05,-0.40,0.90,0.61,-0.13,-0.36,
4.093,0.04,-0.40,0.90,0.61,-0.13,-0.36,
4.095,0.04,-0.39,0.90,0.61,-0.13,-0.36,
4.097,0.04,-0.39,0.91,0.61,-0.13,-0.36,
4.097,0.04,-0.39,0.91,0.53,-0.12,-0.43,
4.1,0.03,-0.39,0.90,0.53,-0.12,-0.43,
4.107,0.03,-0.39,0.90,0.42,-0.07,-0.37,
4.108,0.03,-0.38,0.90,0.42,-0.07,-0.37,
4.108,0.03,-0.38,0.91,0.42,-0.07,-0.37,
4.108,0.03,-0.38,0.91,0.42,-0.07,-0.37,
4.108,0.03,-0.38,0.91,0.33,-0.03,-0.39,
4.111,0.02,-0.37,0.92,0.33,-0.03,-0.39,
4.112,0.01,-0.36,0.92,0.33,-0.03,-0.39,
4.112,0.01,-0.36,0.92,0.27,0.06,-0.33,
4.114,0.01,-0.36,0.92,0.27,0.06,-0.33,
4.117,0.01,-0.36,0.92,0.27,0.06,-0.33,
4.118,0.01,-0.36,0.92,0.17,0.17,-0.25,
4.12,0.00,-0.36,0.93,0.17,0.17,-0.25,
4.123,0.00,-0.36,0.93,0.17,0.17,-0.25,
4.123,0.00,-0.36,0.93,0.11,0.19,-0.25,
4.124,0.00,-0.36,0.92,0.11,0.19,-0.25,
4.127,0.00,-0.36,0.92,0.01,0.18,-0.16,
4.127,0.01,-0.36,0.92,0.01,0.18,-0.16,
4.129,0.00,-0.36,0.92,0.01,0.18,-0.16,
4.132,0.00,-0.35,0.92,0.01,0.18,-0.16,
4.132,0.00,-0.35,0.92,0.02,0.23,-0.20,
4.134,0.01,-0.34,0.91,0.02,0.23,-0.20,
4.138,0.01,-0.34,0.91,0.02,0.23,-0.20,
4.139,0.01,-0.34,0.91,-0.00,0.27,-0.24,
4.139,0.02,-0.34,0.91,-0.00,0.27,-0.24,
4.141,0.02,-0.34,0.91,-0.00,0.27,-0.24,
4.141,0.02,-0.34,0.91,0.07,0.38,-0.30,
4.144,0.02,-0.34,0.91,0.07,0.38,-0.30,
4.146,0.03,-0.34,0.90,0.07,0.38,-0.30,
4.146,0.03,-0.34,0.90,0.15,0.36,-0.34,
4.148,0.03,-0.35,0.91,0.15,0.36,-0.34,
4.151,0.03,-0.35,0.91,0.20,0.32,-0.38,
4.151,0.04,-0.35,0.90,0.20,0.32,-0.38,
4.153,0.04,-0.36,0.90,0.20,0.32,-0.38,
4.156,0.05,-0.36,0.90,0.20,0.32,-0.38,
4.156,0.05,-0.36,0.90,0.28,0.25,-0.39,
4.159,0.05,-0.36,0.90,0.28,0.25,-0.39,
4.162,0.06,-0.36,0.91,0.28,0.25,-0.39,
4.162,0.06,-0.36,0.91,0.37,0.14,-0.43,
4.164,0.06,-0.37,0.90,0.37,0.14,-0.43,
4.167,0.06,-0.37,0.91,0.37,0.14,-0.43,
4.167,0.06,-0.37,0.91,0.47,0.09,-0.38,
4.169,0.06,-0.38,0.91,0.47,0.09,-0.38,
4.171,0.07,-0.38,0.91,0.47,0.09,-0.38,
4.171,0.07,-0.38,0.91,0.50,0.02,-0.36,
4.174,0.07,-0.37,0.91,0.50,0.02,-0.36,
4.177,0.07,-0.37,0.91,0.55,-0.05,-0.36,
4.177,0.07,-0.38,0.90,0.55,-0.05,-0.36,
4.179,0.07,-0.38,0.91,0.55,-0.05,-0.36,
4.181,0.07,-0.38,0.91,0.55,-0.05,-0.36,
4.182,0.07,-0.38,0.91,0.60,-0.05,-0.37,
4.184,0.07,-0.38,0.90,0.60,-0.05,-0.37,
4.192,0.06,-0.39,0.90,0.60,-0.05,-0.37,
4.193,0.06,-0.39,0.90,0.57,-0.07,-0.36,
4.193,0.06,-0.39,0.90,0.57,-0.07,-0.36,
4.193,0.07,-0.39,0.89,0.57,-0.07,-0.36,
4.193,0.07,-0.39,0.89,0.50,-0.15,-0.42,
4.194,0.06,-0.39,0.89,0.50,-0.15,-0.42,
4.197,0.07,-0.38,0.90,0.50,-0.15,-0.42,
4.197,0.07,-0.38,0.90,0.46,-0.18,-0.48,
4.198,0.08,-0.39,0.89,0.46,-0.18,-0.48,
4.201,0.08,-0.39,0.89,0.50,-0.14,-0.46,
4.201,0.08,-0.38,0.89,0.50,-0.14,-0.46,
4.204,0.08,-0.38,0.90,0.50,-0.14,-0.46,
4.206,0.09,-0.37,0.90,0.50,-0.14,-0.46,
4.206,0.09,-0.37,0.90,0.59,-0.12,-0.47,
4.208,0.09,-0.37,0.90,0.59,-0.12,-0.47,
4.211,0.09,-0.37,0.90,0.64,-0.04,-0.40,
4.211,0.10,-0.36,0.90,0.64,-0.04,-0.40,
4.214,0.11,-0.36,0.90,0.64,-0.04,-0.40,
4.216,0.11,-0.36,0.90,0.64,-0.04,-0.40,
4.216,0.11,-0.36,0.90,0.71,0.04,-0.39,
4.218,0.11,-0.36,0.90,0.71,0.04,-0.39,
4.221,0.11,-0.36,0.89,0.71,0.04,-0.39,
4.221,0.11,-0.36,0.89,0.80,0.07,-0.39,
4.223,0.12,-0.36,0.89,0.80,0.07,-0.39,
4.225,0.12,-0.36,0.89,0.84,0.12,-0.46,
4.226,0.12,-0.36,0.89,0.84,0.12,-0.46,
4.228,0.12,-0.36,0.89,0.84,0.12,-0.46,
4.231,0.13,-0.36,0.88,0.84,0.12,-0.46,
4.231,0.13,-0.36,0.88,0.88,0.11,-0.52,
4.233,0.13,-0.36,0.88,0.88,0.11,-0.52,
4.236,0.13,-0.36,0.88,0.88,0.11,-0.52,
4.236,0.13,-0.36,0.88,0.93,0.10,-0.55,
4.24,0.14,-0.37,0.88,0.93,0.10,-0.55,
4.24,0.14,-0.38,0.89,0.93,0.10,-0.55,
4.24,0.14,-0.38,0.89,0.96,0.06,-0.56,
4.243,0.16,-0.39,0.89,0.96,0.06,-0.56,
4.246,0.16,-0.40,0.90,0.96,0.06,-0.56,
4.246,0.16,-0.40,0.90,1.04,-0.06,-0.51,
4.248,0.18,-0.41,0.90,1.04,-0.06,-0.51,
4.251,0.18,-0.41,0.90,1.21,-0.24,-0.40,
4.251,0.18,-0.41,0.91,1.21,-0.24,-0.40,
4.253,0.18,-0.42,0.92,1.21,-0.24,-0.40,
4.255,0.19,-0.42,0.93,1.21,-0.24,-0.40,
4.256,0.19,-0.42,0.93,1.37,-0.38,-0.29,
4.257,0.20,-0.43,0.93,1.37,-0.38,-0.29,
4.26,0.20,-0.43,0.93,1.46,-0.49,-0.11,
4.26,0.20,-0.42,0.94,1.46,-0.49,-0.11,
4.262,0.21,-0.43,0.94,1.46,-0.49,-0.11,
4.265,0.20,-0.43,0.94,1.46,-0.49,-0.11,
4.265,0.20,-0.43,0.94,1.57,-0.54,-0.03,
4.267,0.20,-0.43,0.94,1.57,-0.54,-0.03,
4.27,0.20,-0.43,0.95,1.57,-0.54,-0.03,
4.271,0.20,-0.43,0.95,1.58,-0.58,0.03,
4.272,0.20,-0.42,0.94,1.58,-0.58,0.03,
4.275,0.20,-0.42,0.94,1.55,-0.57,0.06,
4.275,0.19,-0.43,0.95,1.55,-0.57,0.06,
4.277,0.18,-0.42,0.95,1.55,-0.57,0.06,
4.28,0.18,-0.42,0.96,1.55,-0.57,0.06,
4.28,0.18,-0.42,0.96,1.43,-0.54,0.07,
4.282,0.17,-0.42,0.95,1.43,-0.54,0.07,
4.285,0.17,-0.42,0.96,1.43,-0.54,0.07,
4.287,0.17,-0.42,0.96,1.31,-0.52,0.17,
4.287,0.16,-0.41,0.95,1.31,-0.52,0.17,
4.291,0.16,-0.40,0.95,1.31,-0.52,0.17,
4.292,0.16,-0.40,0.95,1.21,-0.49,0.16,
4.292,0.15,-0.40,0.94,1.21,-0.49,0.16,
4.295,0.14,-0.40,0.94,1.21,-0.49,0.16,
4.295,0.14,-0.40,0.94,1.07,-0.39,0.09,
4.297,0.14,-0.40,0.94,1.07,-0.39,0.09,
4.3,0.14,-0.40,0.94,0.95,-0.32,-0.02,
4.3,0.13,-0.39,0.93,0.95,-0.32,-0.02,
4.302,0.12,-0.38,0.93,0.95,-0.32,-0.02,
4.306,0.11,-0.38,0.93,0.95,-0.32,-0.02,
4.307,0.11,-0.38,0.93,0.82,-0.27,-0.07,
4.307,0.11,-0.38,0.92,0.82,-0.27,-0.07,
4.31,0.10,-0.38,0.91,0.82,-0.27,-0.07,
4.31,0.10,-0.38,0.91,0.71,-0.18,-0.15,
4.313,0.10,-0.37,0.90,0.71,-0.18,-0.15,
4.315,0.08,-0.37,0.91,0.71,-0.18,-0.15,
4.315,0.08,-0.37,0.91,0.58,-0.15,-0.27,
4.317,0.08,-0.36,0.90,0.58,-0.15,-0.27,
4.319,0.08,-0.36,0.89,0.58,-0.15,-0.27,
4.32,0.08,-0.36,0.89,0.46,-0.10,-0.38,
4.323,0.07,-0.34,0.88,0.46,-0.10,-0.38,
4.327,0.07,-0.34,0.88,0.36,-0.04,-0.50,
4.327,0.06,-0.34,0.88,0.36,-0.04,-0.50,
4.327,0.05,-0.33,0.87,0.36,-0.04,-0.50,
4.329,0.05,-0.33,0.87,0.36,-0.04,-0.50,
4.329,0.05,-0.33,0.87,0.28,0.12,-0.62,
4.332,0.04,-0.32,0.88,0.28,0.12,-0.62,
4.335,0.03,-0.31,0.87,0.28,0.12,-0.62,
4.335,0.03,-0.31,0.87,0.15,0.22,-0.69,
4.337,0.03,-0.31,0.87,0.15,0.22,-0.69,
4.339,0.02,-0.31,0.86,0.15,0.22,-0.69,
4.34,0.02,-0.31,0.86,0.06,0.32,-0.69,
4.342,0.02,-0.31,0.87,0.06,0.32,-0.69,
4.345,0.01,-0.31,0.87,0.06,0.32,-0.69,
4.345,0.01,-0.31,0.87,-0.01,0.34,-0.79,
4.347,0.01,-0.31,0.86,-0.01,0.34,-0.79,
4.35,0.01,-0.31,0.86,-0.08,0.30,-0.78,
4.35,0.00,-0.31,0.86,-0.08,0.30,-0.78,
4.352,0.00,-0.31,0.86,-0.08,0.30,-0.78,
4.354,0.00,-0.32,0.86,-0.08,0.30,-0.78,
4.355,0.00,-0.32,0.86,-0.15,0.30,-0.83,
4.356,-0.00,-0.32,0.86,-0.15,0.30,-0.83,
4.36,-0.01,-0.32,0.86,-0.15,0.30,-0.83,
4.36,-0.01,-0.32,0.86,-0.14,0.22,-0.84,
4.362,-0.04,-0.36,0.88,-0.14,0.22,-0.84,
4.365,-0.15,-0.48,0.96,-0.14,0.22,-0.84,
4.365,-0.15,-0.48,0.96,-0.15,0.17,-0.88,
4.367,-0.36,-0.69,1.20,-0.15,0.17,-0.88,
4.369,-0.37,-0.61,1.25,-0.15,0.17,-0.88,
4.37,-0.37,-0.61,1.25,-0.95,-0.88,-0.25,
4.372,-0.11,-0.25,1.03,-0.95,-0.88,-0.25,
4.374,0.12,-0.06,0.91,-0.95,-0.88,-0.25,
4.374,0.12,-0.06,0.91,-3.57,-3.11,2.75,
4.377,0.19,-0.04,0.90,-3.57,-3.11,2.75,
4.379,0.14,-0.10,0.92,-3.57,-3.11,2.75,
4.38,0.14,-0.10,0.92,0.09,1.69,0.23,
4.382,0.04,-0.19,0.95,0.09,1.69,0.23,
4.384,-0.08,-0.27,0.98,0.09,1.69,0.23,
4.385,-0.08,-0.27,0.98,1.70,2.51,-0.38,
4.388,-0.17,-0.34,1.00,1.70,2.51,-0.38,
4.389,-0.23,-0.36,1.00,1.70,2.51,-0.38,
4.389,-0.23,-0.36,1.00,-0.08,0.89,0.10,
4.391,-0.23,-0.36,0.96,-0.08,0.89,0.10,
4.394,-0.21,-0.36,0.92,-0.08,0.89,0.10,
4.395,-0.21,-0.36,0.92,-1.79,-0.32,0.46,
4.396,-0.26,-0.39,0.87,-1.79,-0.32,0.46,
4.399,-0.38,-0.45,0.81,-1.79,-0.32,0.46,
4.4,-0.38,-0.45,0.81,-1.98,-0.44,-0.10,
4.401,-0.49,-0.48,0.76,-1.98,-0.44,-0.10,
4.406,-0.49,-0.41,0.77,-1.98,-0.44,-0.10,
4.406,-0.49,-0.41,0.77,-2.93,-1.03,-1.14,
4.406,-0.27,-0.24,0.88,-2.93,-1.03,-1.14,
4.409,-0.09,-0.09,0.97,-2.93,-1.03,-1.14,
4.409,-0.09,-0.09,0.97,-4.56,-1.33,-1.83,
4.412,-0.04,-0.03,1.01,-4.56,-1.33,-1.83,
4.413,-0.05,-0.03,1.04,-4.56,-1.33,-1.83,
4.414,-0.05,-0.03,1.04,-1.52,1.45,-0.32,
4.416,-0.12,-0.07,1.02,-1.52,1.45,-0.32,
4.418,-0.21,-0.13,1.00,-1.52,1.45,-0.32,
4.419,-0.21,-0.13,1.00,-0.14,2.75,0.68,
4.421,-0.29,-0.21,0.98,-0.14,2.75,0.68,
4.423,-0.35,-0.26,0.97,-0.14,2.75,0.68,
4.424,-0.35,-0.26,0.97,-1.33,2.00,0.55,
4.425,-0.36,-0.28,0.99,-1.33,2.00,0.55,
4.428,-0.33,-0.27,1.01,-1.33,2.00,0.55,
4.428,-0.33,-0.27,1.01,-2.90,0.71,0.21,
4.43,-0.29,-0.25,1.04,-2.90,0.71,0.21,
4.433,-0.24,-0.23,1.07,-2.90,0.71,0.21,
4.433,-0.24,-0.23,1.07,-3.12,0.30,0.40,
4.435,-0.20,-0.22,1.08,-3.12,0.30,0.40,
4.441,-0.15,-0.22,1.09,-3.12,0.30,0.40,
4.442,-0.15,-0.22,1.09,-2.32,0.60,0.94,
4.442,-0.12,-0.21,1.10,-2.32,0.60,0.94,
4.443,-0.10,-0.22,1.09,-2.32,0.60,0.94,
4.443,-0.10,-0.22,1.09,-1.49,0.81,1.27,
4.445,-0.08,-0.24,1.09,-1.49,0.81,1.27,
4.448,-0.07,-0.25,1.08,-1.49,0.81,1.27,
4.448,-0.07,-0.25,1.08,-0.82,0.80,1.34,
4.451,-0.06,-0.27,1.07,-0.82,0.80,1.34,
4.454,-0.05,-0.29,1.05,-0.82,0.80,1.34,
4.455,-0.05,-0.29,1.05,-0.47,0.51,1.24,
4.455,-0.05,-0.30,1.03,-0.47,0.51,1.24,
4.458,-0.05,-0.31,1.02,-0.47,0.51,1.24,
4.458,-0.05,-0.31,1.02,-0.29,0.15,0.99,
4.461,-0.04,-0.31,1.00,-0.29,0.15,0.99,
4.463,-0.04,-0.32,0.98,-0.29,0.15,0.99,
4.463,-0.04,-0.32,0.98,-0.25,-0.14,0.62,
4.465,-0.03,-0.31,0.97,-0.25,-0.14,0.62,
4.468,-0.02,-0.30,0.95,-0.25,-0.14,0.62,
4.469,-0.02,-0.30,0.95,-0.17,-0.25,0.26,
4.47,-0.01,-0.29,0.95,-0.17,-0.25,0.26,
4.473,-0.01,-0.29,0.94,-0.17,-0.25,0.26,
4.473,-0.01,-0.29,0.94,-0.05,-0.20,-0.04,
4.475,-0.01,-0.28,0.93,-0.05,-0.20,-0.04,
4.479,-0.01,-0.28,0.93,-0.05,-0.20,-0.04,
4.479,-0.01,-0.28,0.93,0.09,-0.08,-0.21,
4.481,-0.01,-0.27,0.93,0.09,-0.08,-0.21,
4.484,-0.01,-0.27,0.94,0.09,-0.08,-0.21,
4.484,-0.01,-0.27,0.94,0.13,0.02,-0.31,
4.486,-0.01,-0.27,0.94,0.13,0.02,-0.31,
4.488,-0.01,-0.26,0.95,0.13,0.02,-0.31,
4.489,-0.01,-0.26,0.95,0.12,0.08,-0.26,
4.49,-0.01,-0.26,0.95,0.12,0.08,-0.26,
4.493,-0.02,-0.26,0.95,0.12,0.08,-0.26,
4.494,-0.02,-0.26,0.95,0.15,0.11,-0.19,
4.496,-0.02,-0.26,0.95,0.15,0.11,-0.19,
4.498,-0.03,-0.26,0.95,0.15,0.11,-0.19,
4.499,-0.03,-0.26,0.95,0.12,0.14,-0.17,
4.5,-0.03,-0.26,0.95,0.12,0.14,-0.17,
4.503,-0.03,-0.26,0.95,0.12,0.14,-0.17,
4.503,-0.03,-0.26,0.95,0.02,0.08,-0.17,
4.505,-0.04,-0.26,0.95,0.02,0.08,-0.17,
4.508,-0.05,-0.27,0.95,0.02,0.08,-0.17,
4.508,-0.05,-0.27,0.95,-0.02,0.10,-0.19,
4.511,-0.05,-0.27,0.96,-0.02,0.10,-0.19,
4.513,-0.05,-0.28,0.96,-0.02,0.10,-0.19,
4.513,-0.05,-0.28,0.96,-0.13,0.04,-0.18,
4.515,-0.05,-0.28,0.96,-0.13,0.04,-0.18,
4.517,-0.05,-0.29,0.97,-0.13,0.04,-0.18,
4.518,-0.05,-0.29,0.97,-0.19,-0.08,-0.09,
4.52,-0.04,-0.29,0.97,-0.19,-0.08,-0.09,
4.523,-0.04,-0.29,0.98,-0.19,-0.08,-0.09,
4.523,-0.04,-0.29,0.98,-0.15,-0.24,-0.03,
4.525,-0.04,-0.29,0.99,-0.15,-0.24,-0.03,
4.527,-0.04,-0.28,0.99,-0.15,-0.24,-0.03,
4.527,-0.04,-0.28,0.99,-0.07,-0.27,0.09,
4.53,-0.04,-0.29,0.99,-0.07,-0.27,0.09,
4.533,-0.05,-0.28,0.99,-0.07,-0.27,0.09,
4.533,-0.05,-0.28,0.99,-0.05,-0.26,0.18,
4.535,-0.05,-0.28,0.99,-0.05,-0.26,0.18,
4.537,-0.06,-0.28,1.00,-0.05,-0.26,0.18,
4.537,-0.06,-0.28,1.00,-0.11,-0.26,0.23,
4.543,-0.06,-0.28,1.00,-0.11,-0.26,0.23,
4.544,-0.06,-0.27,0.99,-0.11,-0.26,0.23,
4.544,-0.06,-0.27,0.99,-0.19,-0.21,0.24,
4.544,-0.06,-0.27,0.98,-0.19,-0.21,0.24,
4.549,-0.07,-0.27,0.98,-0.19,-0.21,0.24,
4.549,-0.07,-0.27,0.98,-0.25,-0.18,0.23,
4.549,-0.07,-0.27,0.97,-0.25,-0.18,0.23,
4.553,-0.08,-0.26,0.97,-0.25,-0.18,0.23,
4.553,-0.08,-0.26,0.97,-0.33,-0.16,0.07,
4.555,-0.08,-0.26,0.96,-0.33,-0.16,0.07,
4.557,-0.08,-0.26,0.96,-0.33,-0.16,0.07,
4.557,-0.08,-0.26,0.96,-0.40,-0.14,-0.02,
4.56,-0.08,-0.26,0.95,-0.40,-0.14,-0.02,
4.562,-0.08,-0.26,0.94,-0.40,-0.14,-0.02,
4.562,-0.08,-0.26,0.94,-0.47,-0.11,-0.12,
4.564,-0.07,-0.25,0.93,-0.47,-0.11,-0.12,
4.567,-0.07,-0.25,0.93,-0.45,-0.08,-0.26,
4.567,-0.05,-0.24,0.94,-0.45,-0.08,-0.26,
4.569,-0.03,-0.24,0.94,-0.45,-0.08,-0.26,
4.573,-0.07,-0.25,0.90,-0.45,-0.08,-0.26,
4.573,-0.07,-0.25,0.90,-0.26,-0.00,-0.39,
4.574,-0.09,-0.25,0.89,-0.26,-0.00,-0.39,
4.577,-0.08,-0.24,0.88,-0.26,-0.00,-0.39,
4.577,-0.08,-0.24,0.88,-0.22,-0.02,-0.51,
4.579,-0.07,-0.24,0.88,-0.22,-0.02,-0.51,
4.582,-0.07,-0.23,0.89,-0.22,-0.02,-0.51,
4.582,-0.07,-0.23,0.89,-0.53,-0.01,-0.90,
4.584,-0.07,-0.23,0.88,-0.53,-0.01,-0.90,
4.587,-0.08,-0.23,0.87,-0.53,-0.01,-0.90,
4.587,-0.08,-0.23,0.87,-0.40,0.04,-0.91,
4.591,-0.09,-0.22,0.88,-0.40,0.04,-0.91,
4.591,-0.09,-0.22,0.87,-0.40,0.04,-0.91,
4.592,-0.09,-0.22,0.87,-0.46,0.06,-0.96,
4.594,-0.10,-0.22,0.88,-0.46,0.06,-0.96,
4.597,-0.10,-0.21,0.89,-0.46,0.06,-0.96,
4.597,-0.10,-0.21,0.89,-0.61,0.14,-0.97,
4.599,-0.11,-0.21,0.90,-0.61,0.14,-0.97,
4.601,-0.11,-0.20,0.91,-0.61,0.14,-0.97,
4.602,-0.11,-0.20,0.91,-0.69,0.22,-0.88,
4.605,-0.11,-0.20,0.92,-0.69,0.22,-0.88,
4.606,-0.11,-0.19,0.93,-0.69,0.22,-0.88,
4.607,-0.11,-0.19,0.93,-0.80,0.25,-0.67,
4.609,-0.12,-0.18,0.94,-0.80,0.25,-0.67,
4.611,-0.12,-0.18,0.96,-0.80,0.25,-0.67,
4.611,-0.12,-0.18,0.96,-0.82,0.38,-0.51,
4.613,-0.13,-0.17,0.96,-0.82,0.38,-0.51,
4.617,-0.14,-0.16,0.96,-0.82,0.38,-0.51,
4.617,-0.14,-0.16,0.96,-0.91,0.48,-0.29,
4.619,-0.15,-0.16,0.95,-0.91,0.48,-0.29,
4.623,-0.15,-0.16,0.95,-0.91,0.48,-0.29,
4.624,-0.15,-0.16,0.95,-1.04,0.59,-0.16,
4.624,-0.16,-0.15,0.95,-1.04,0.59,-0.16,
4.627,-0.16,-0.15,0.95,-1.04,0.59,-0.16,
4.628,-0.16,-0.15,0.95,-1.15,0.62,-0.25,
4.629,-0.15,-0.15,0.94,-1.15,0.62,-0.25,
4.632,-0.14,-0.14,0.94,-1.15,0.62,-0.25,
4.632,-0.14,-0.14,0.94,-1.21,0.68,-0.30,
4.634,-0.14,-0.14,0.94,-1.21,0.68,-0.30,
4.638,-0.14,-0.14,0.93,-1.21,0.68,-0.30,
4.639,-0.14,-0.14,0.93,-1.10,0.78,-0.38,
4.639,-0.15,-0.15,0.93,-1.10,0.78,-0.38,
4.641,-0.15,-0.17,0.92,-1.10,0.78,-0.38,
4.642,-0.15,-0.17,0.92,-1.05,0.77,-0.41,
4.644,-0.15,-0.18,0.91,-1.05,0.77,-0.41,
4.647,-0.15,-0.20,0.92,-1.05,0.77,-0.41,
4.647,-0.15,-0.20,0.92,-1.12,0.55,-0.55,
4.649,-0.14,-0.20,0.92,-1.12,0.55,-0.55,
4.652,-0.13,-0.20,0.92,-1.12,0.55,-0.55,
4.652,-0.13,-0.20,0.92,-1.07,0.21,-0.65,
4.654,-0.13,-0.20,0.93,-1.07,0.21,-0.65,
4.659,-0.12,-0.20,0.95,-1.07,0.21,-0.65,
4.659,-0.12,-0.20,0.95,-0.92,0.09,-0.56,
4.659,-0.12,-0.20,0.95,-0.92,0.09,-0.56,
4.663,-0.12,-0.20,0.97,-0.92,0.09,-0.56,
4.663,-0.12,-0.20,0.97,-0.82,0.06,-0.39,
4.663,-0.13,-0.20,0.98,-0.82,0.06,-0.39,
4.666,-0.13,-0.20,0.98,-0.82,0.06,-0.39,
4.666,-0.13,-0.20,0.98,-0.78,0.06,-0.18,
4.669,-0.13,-0.20,0.98,-0.78,0.06,-0.18,
4.671,-0.13,-0.20,0.99,-0.78,0.06,-0.18,
4.671,-0.13,-0.20,0.99,-0.81,0.07,-0.01,
4.673,-0.12,-0.19,1.00,-0.81,0.07,-0.01,
4.676,-0.13,-0.19,1.01,-0.81,0.07,-0.01,
4.676,-0.13,-0.19,1.01,-0.83,0.09,0.05,
4.679,-0.12,-0.19,1.01,-0.83,0.09,0.05,
4.681,-0.12,-0.18,1.01,-0.83,0.09,0.05,
4.681,-0.12,-0.18,1.01,-0.79,0.12,0.19,
4.684,-0.12,-0.17,1.01,-0.79,0.12,0.19,
4.686,-0.11,-0.17,1.02,-0.79,0.12,0.19,
4.687,-0.11,-0.17,1.02,-0.78,0.23,0.27,
4.689,-0.11,-0.16,1.01,-0.78,0.23,0.27,
4.691,-0.11,-0.16,1.02,-0.78,0.23,0.27,
4.691,-0.11,-0.16,1.02,-0.72,0.33,0.33,
4.693,-0.11,-0.16,1.01,-0.72,0.33,0.33,
4.695,-0.11,-0.16,1.01,-0.68,0.39,0.31,
4.696,-0.10,-0.16,1.02,-0.68,0.39,0.31,
4.698,-0.09,-0.16,1.02,-0.68,0.39,0.31,
4.701,-0.09,-0.17,1.02,-0.68,0.39,0.31,
4.701,-0.09,-0.17,1.02,-0.60,0.41,0.35,
4.703,-0.08,-0.17,1.02,-0.60,0.41,0.35,
4.706,-0.08,-0.18,1.02,-0.60,0.41,0.35,
4.706,-0.08,-0.18,1.02,-0.48,0.36,0.37,
4.708,-0.08,-0.18,1.02,-0.48,0.36,0.37,
4.711,-0.07,-0.18,1.01,-0.48,0.36,0.37,
4.712,-0.07,-0.18,1.01,-0.42,0.27,0.38,
4.713,-0.06,-0.19,1.00,-0.42,0.27,0.38,
4.716,-0.06,-0.20,0.99,-0.42,0.27,0.38,
4.716,-0.06,-0.20,0.99,-0.36,0.20,0.30,
4.718,-0.05,-0.20,0.99,-0.36,0.20,0.30,
4.721,-0.04,-0.21,1.00,-0.36,0.20,0.30,
4.722,-0.04,-0.21,1.00,-0.23,0.07,0.15,
4.723,-0.03,-0.21,0.99,-0.23,0.07,0.15,
4.726,-0.03,-0.21,1.00,-0.23,0.07,0.15,
4.727,-0.03,-0.21,1.00,-0.09,-0.05,0.13,
4.728,-0.03,-0.21,1.00,-0.09,-0.05,0.13,
4.731,-0.02,-0.21,1.00,-0.09,-0.05,0.13,
4.731,-0.02,-0.21,1.00,-0.01,-0.13,0.15,
4.733,-0.02,-0.22,1.00,-0.01,-0.13,0.15,
4.736,-0.02,-0.21,1.00,-0.01,-0.13,0.15,
4.736,-0.02,-0.21,1.00,0.05,-0.14,0.15,
4.739,-0.02,-0.21,1.00,0.05,-0.14,0.15,
4.74,-0.02,-0.20,0.99,0.05,-0.14,0.15,
4.741,-0.02,-0.20,0.99,0.07,-0.15,0.17,
4.743,-0.02,-0.20,0.99,0.07,-0.15,0.17,
4.746,-0.02,-0.20,0.99,0.09,-0.08,0.09,
4.746,-0.02,-0.20,0.98,0.09,-0.08,0.09,
4.747,-0.02,-0.20,0.98,0.09,-0.08,0.09,
4.751,-0.02,-0.19,0.98,0.09,-0.08,0.09,
4.751,-0.02,-0.19,0.98,0.07,-0.07,-0.02,
4.753,-0.03,-0.19,0.97,0.07,-0.07,-0.02,
4.76,-0.04,-0.19,0.97,0.07,-0.07,-0.02,
4.761,-0.04,-0.19,0.97,0.06,-0.01,-0.04,
4.763,-0.05,-0.20,0.97,0.06,-0.01,-0.04,
4.764,-0.05,-0.19,0.93,0.06,-0.01,-0.04,
4.764,-0.05,-0.19,0.93,-0.06,-0.00,-0.13,
4.764,-0.06,-0.17,0.88,-0.06,-0.00,-0.13,
4.765,-0.05,-0.16,0.87,-0.06,-0.00,-0.13,
4.765,-0.05,-0.16,0.87,-0.23,-0.00,-0.33,
4.767,-0.05,-0.16,0.85,-0.23,-0.00,-0.33,
4.77,-0.07,-0.15,0.86,-0.23,-0.00,-0.33,
4.771,-0.07,-0.15,0.86,-0.26,0.24,-1.11,
4.773,-0.09,-0.16,0.86,-0.26,0.24,-1.11,
4.775,-0.11,-0.17,0.87,-0.26,0.24,-1.11,
4.775,-0.11,-0.17,0.87,-0.28,0.33,-1.26,
4.777,-0.11,-0.17,0.89,-0.28,0.33,-1.26,
4.781,-0.11,-0.18,0.92,-0.28,0.33,-1.26,
4.783,-0.11,-0.18,0.92,-0.65,0.22,-1.19,
4.784,-0.09,-0.19,0.95,-0.65,0.22,-1.19,
4.786,-0.08,-0.20,0.98,-0.65,0.22,-1.19,
4.787,-0.08,-0.20,0.98,-0.76,0.11,-0.81,
4.787,-0.08,-0.20,0.98,-0.76,0.11,-0.81,
4.791,-0.08,-0.20,0.99,-0.76,0.11,-0.81,
4.791,-0.08,-0.20,0.99,-0.50,-0.07,-0.20,
4.796,-0.08,-0.21,0.99,-0.50,-0.07,-0.20,
4.796,-0.08,-0.21,0.98,-0.50,-0.07,-0.20,
4.797,-0.08,-0.21,0.98,-0.36,-0.17,0.01,
4.797,-0.08,-0.22,0.96,-0.36,-0.17,0.01,
4.8,-0.08,-0.21,0.94,-0.36,-0.17,0.01,
4.8,-0.08,-0.21,0.94,-0.41,-0.26,-0.04,
4.802,-0.08,-0.20,0.94,-0.41,-0.26,-0.04,
4.805,-0.08,-0.20,0.94,-0.41,-0.26,-0.04,
4.805,-0.08,-0.20,0.94,-0.38,-0.30,-0.38,
4.813,-0.07,-0.19,0.94,-0.38,-0.30,-0.38,
4.814,-0.08,-0.18,0.96,-0.38,-0.30,-0.38,
4.814,-0.08,-0.18,0.96,-0.33,-0.19,-0.46,
4.815,-0.09,-0.18,1.01,-0.33,-0.19,-0.46,
4.815,-0.11,-0.18,1.03,-0.33,-0.19,-0.46,
4.815,-0.11,-0.18,1.03,-0.30,-0.01,-0.31,
4.817,-0.13,-0.18,1.06,-0.30,-0.01,-0.31,
4.82,-0.13,-0.18,1.06,-0.56,0.05,0.31,
4.82,-0.15,-0.18,1.08,-0.56,0.05,0.31,
4.822,-0.15,-0.19,1.09,-0.56,0.05,0.31,
4.826,-0.14,-0.20,1.11,-0.56,0.05,0.31,
4.826,-0.14,-0.20,1.11,-0.91,-0.01,0.80,
4.827,-0.12,-0.21,1.12,-0.91,-0.01,0.80,
4.83,-0.11,-0.21,1.13,-0.91,-0.01,0.80,
4.831,-0.11,-0.21,1.13,-0.97,-0.14,1.10,
4.832,-0.09,-0.22,1.14,-0.97,-0.14,1.10,
4.834,-0.09,-0.22,1.14,-0.97,-0.14,1.10,
4.835,-0.09,-0.22,1.14,-0.63,-0.32,1.36,
4.837,-0.08,-0.23,1.12,-0.63,-0.32,1.36,
4.843,-0.07,-0.22,1.10,-0.63,-0.32,1.36,
4.844,-0.07,-0.22,1.10,-0.38,-0.42,1.46,
4.844,-0.07,-0.22,1.09,-0.38,-0.42,1.46,
4.844,-0.07,-0.21,1.07,-0.38,-0.42,1.46,
4.845,-0.07,-0.21,1.07,-0.24,-0.48,1.23,
4.847,-0.06,-0.19,1.06,-0.24,-0.48,1.23,
4.849,-0.05,-0.18,1.06,-0.24,-0.48,1.23,
4.849,-0.05,-0.18,1.06,-0.18,-0.38,0.88,
4.851,-0.05,-0.17,1.06,-0.18,-0.38,0.88,
4.855,-0.07,-0.16,1.06,-0.18,-0.38,0.88,
4.855,-0.07,-0.16,1.06,-0.08,-0.08,0.71,
4.861,-0.09,-0.15,1.06,-0.08,-0.08,0.71,
4.861,-0.10,-0.11,1.05,-0.08,-0.08,0.71,
4.861,-0.10,-0.11,1.05,-0.13,0.09,0.71,
4.862,-0.12,-0.06,1.04,-0.13,0.09,0.71,
4.865,-0.12,-0.05,1.03,-0.13,0.09,0.71,
4.865,-0.12,-0.05,1.03,-0.44,0.39,0.61,
4.866,-0.10,-0.07,1.01,-0.44,0.39,0.61,
4.87,-0.10,-0.09,0.97,-0.44,0.39,0.61,
4.87,-0.10,-0.09,0.97,-0.72,1.06,0.46,
4.872,-0.10,-0.12,0.90,-0.72,1.06,0.46,
4.884,-0.10,-0.12,0.90,-0.52,0.87,-0.01,
4.884,-0.11,-0.15,0.86,-0.52,0.87,-0.01,
4.885,-0.09,-0.17,0.85,-0.52,0.87,-0.01,
4.885,-0.06,-0.18,0.86,-0.52,0.87,-0.01,
4.885,-0.06,-0.18,0.86,-0.57,0.28,-1.06,
4.885,-0.03,-0.18,0.88,-0.57,0.28,-1.06,
4.885,0.00,-0.17,0.88,-0.57,0.28,-1.06,
4.886,0.00,-0.17,0.88,-0.31,-0.16,-1.33,
4.886,0.01,-0.16,0.88,-0.31,-0.16,-1.33,
4.897,0.00,-0.14,0.88,-0.31,-0.16,-1.33,
4.897,0.00,-0.14,0.88,0.32,-0.14,-1.11,
4.897,-0.00,-0.14,0.88,0.32,-0.14,-1.11,
4.898,-0.02,-0.14,0.87,0.32,-0.14,-1.11,
4.898,-0.02,-0.14,0.87,0.49,0.08,-1.10,
4.898,-0.03,-0.15,0.87,0.49,0.08,-1.10,
4.898,-0.04,-0.16,0.89,0.49,0.08,-1.10,
4.899,-0.04,-0.16,0.89,0.35,0.17,-1.10,
