
time,gFx,gFy,gFz,ax,ay,az,
0.004,-0.04,0.21,0.89,-0.29,0.01,-0.72,
0.004,-0.04,0.22,0.90,-0.29,0.01,-0.72,
0.004,-0.04,0.22,0.90,-0.32,0.05,-0.78,
0.005,-0.03,0.22,0.90,-0.32,0.05,-0.78,
0.005,-0.03,0.22,0.90,-0.30,0.07,-0.76,
0.005,-0.04,0.22,0.90,-0.30,0.07,-0.76,
0.01,-0.03,0.22,0.90,-0.30,0.07,-0.76,
0.011,-0.03,0.22,0.91,-0.30,0.07,-0.76,
0.011,-0.03,0.22,0.91,-0.26,0.12,-0.74,
0.011,-0.04,0.22,0.92,-0.26,0.12,-0.74,
0.014,-0.03,0.21,0.92,-0.26,0.12,-0.74,
0.015,-0.03,0.21,0.92,-0.24,0.11,-0.68,
0.017,-0.03,0.21,0.92,-0.24,0.11,-0.68,
0.026,-0.02,0.22,0.92,-0.24,0.11,-0.68,
0.027,-0.02,0.22,0.92,-0.23,0.08,-0.55,
0.027,-0.03,0.22,0.93,-0.23,0.08,-0.55,
0.027,-0.02,0.22,0.94,-0.23,0.08,-0.55,
0.027,-0.02,0.22,0.94,-0.17,0.07,-0.48,
0.028,-0.02,0.22,0.94,-0.17,0.07,-0.48,
0.028,-0.03,0.23,0.95,-0.17,0.07,-0.48,
0.028,-0.03,0.23,0.95,-0.15,0.10,-0.36,
0.031,-0.02,0.22,0.95,-0.15,0.10,-0.36,
0.034,-0.02,0.23,0.96,-0.15,0.10,-0.36,
0.034,-0.02,0.23,0.96,-0.14,0.19,-0.27,
0.044,-0.02,0.23,0.96,-0.14,0.19,-0.27,
0.044,-0.02,0.22,0.96,-0.14,0.19,-0.27,
0.045,-0.02,0.22,0.96,-0.11,0.18,-0.18,
0.045,-0.01,0.22,0.97,-0.11,0.18,-0.18,
0.045,-0.01,0.22,0.97,-0.11,0.18,-0.18,
0.045,-0.01,0.22,0.97,-0.04,0.19,-0.11,
0.045,-0.01,0.23,0.96,-0.04,0.19,-0.11,
0.049,-0.00,0.22,0.96,-0.04,0.19,-0.11,
0.049,-0.00,0.22,0.96,-0.03,0.19,-0.05,
0.05,0.00,0.22,0.97,-0.03,0.19,-0.05,
0.062,0.00,0.22,0.97,0.05,0.21,-0.08,
0.062,-0.00,0.22,0.96,0.05,0.21,-0.08,
0.062,-0.00,0.22,0.97,0.05,0.21,-0.08,
0.063,-0.00,0.22,0.97,0.05,0.21,-0.08,
0.063,-0.00,0.22,0.97,0.09,0.19,-0.06,
0.063,-0.00,0.22,0.97,0.09,0.19,-0.06,
0.063,0.00,0.22,0.96,0.09,0.19,-0.06,
0.063,0.00,0.22,0.96,0.08,0.16,-0.02,
0.066,-0.00,0.22,0.96,0.08,0.16,-0.02,
0.068,-0.00,0.22,0.97,0.08,0.16,-0.02,
0.069,-0.00,0.22,0.97,0.11,0.16,-0.04,
0.078,-0.01,0.21,0.96,0.11,0.16,-0.04,
0.079,-0.01,0.22,0.96,0.11,0.16,-0.04,
0.079,-0.01,0.22,0.96,0.08,0.14,-0.07,
0.079,-0.00,0.22,0.96,0.08,0.14,-0.07,
0.079,-0.00,0.22,0.96,0.04,0.14,-0.11,
0.08,-0.01,0.22,0.96,0.04,0.14,-0.11,
0.08,-0.01,0.23,0.95,0.04,0.14,-0.11,
0.084,-0.01,0.23,0.95,0.04,0.14,-0.11,
0.084,-0.01,0.23,0.95,0.06,0.19,-0.08,
0.095,-0.01,0.23,0.95,0.06,0.19,-0.08,
0.095,-0.01,0.23,0.94,0.06,0.19,-0.08,
0.096,-0.01,0.23,0.94,0.01,0.24,-0.18,
0.096,-0.02,0.23,0.94,0.01,0.24,-0.18,
0.096,-0.02,0.22,0.94,0.01,0.24,-0.18,
0.096,-0.02,0.22,0.94,-0.03,0.26,-0.21,
0.096,-0.02,0.22,0.92,-0.03,0.26,-0.21,
0.099,-0.02,0.21,0.93,-0.03,0.26,-0.21,
0.099,-0.02,0.21,0.93,-0.06,0.21,-0.33,
0.1,-0.02,0.21,0.92,-0.06,0.21,-0.33,
0.11,-0.02,0.21,0.92,-0.09,0.13,-0.45,
0.111,-0.02,0.21,0.92,-0.09,0.13,-0.45,
0.111,-0.02,0.21,0.92,-0.09,0.13,-0.45,
0.111,-0.02,0.21,0.92,-0.09,0.13,-0.45,
0.111,-0.02,0.21,0.92,-0.11,0.09,-0.48,
0.112,-0.02,0.20,0.92,-0.11,0.09,-0.48,
0.113,-0.02,0.20,0.93,-0.11,0.09,-0.48,
0.114,-0.02,0.20,0.93,-0.05,0.08,-0.51,
0.116,-0.02,0.20,0.93,-0.05,0.08,-0.51,
0.118,-0.02,0.20,0.94,-0.05,0.08,-0.51,
0.118,-0.02,0.20,0.94,-0.06,0.02,-0.44,
0.127,-0.02,0.20,0.94,-0.06,0.02,-0.44,
0.128,-0.02,0.19,0.95,-0.06,0.02,-0.44,
0.128,-0.02,0.19,0.95,-0.06,0.01,-0.35,
0.128,-0.02,0.19,0.96,-0.06,0.01,-0.35,
0.129,-0.02,0.19,0.96,-0.09,-0.03,-0.21,
0.129,-0.03,0.19,0.96,-0.09,-0.03,-0.21,
0.13,-0.02,0.19,0.97,-0.09,-0.03,-0.21,
0.132,-0.02,0.19,0.97,-0.09,-0.03,-0.21,
0.132,-0.02,0.19,0.97,-0.13,-0.09,-0.12,
0.134,-0.01,0.18,0.97,-0.13,-0.09,-0.12,
0.143,-0.01,0.18,0.98,-0.13,-0.09,-0.12,
0.145,-0.01,0.18,0.98,-0.05,-0.11,-0.01,
0.145,-0.00,0.18,0.98,-0.05,-0.11,-0.01,
0.146,-0.00,0.18,0.99,-0.05,-0.11,-0.01,
0.146,-0.00,0.18,0.99,0.02,-0.15,0.08,
0.146,0.01,0.18,0.99,0.02,-0.15,0.08,
0.147,0.01,0.18,0.99,0.02,-0.15,0.08,
0.147,0.01,0.18,0.99,0.09,-0.14,0.13,
0.149,0.01,0.18,0.99,0.09,-0.14,0.13,
0.167,0.01,0.18,0.99,0.19,-0.16,0.20,
0.168,0.02,0.18,0.99,0.19,-0.16,0.20,
0.168,0.01,0.17,0.99,0.19,-0.16,0.20,
0.169,0.01,0.17,0.99,0.19,-0.16,0.20,
0.169,0.01,0.17,0.99,0.25,-0.14,0.23,
0.169,0.01,0.18,0.99,0.25,-0.14,0.23,
0.172,0.01,0.17,0.99,0.25,-0.14,0.23,
0.172,0.01,0.17,0.99,0.22,-0.19,0.20,
0.173,0.01,0.17,0.99,0.22,-0.19,0.20,
0.173,0.01,0.17,0.98,0.22,-0.19,0.20,
0.173,0.01,0.17,0.98,0.19,-0.18,0.22,
0.173,0.01,0.18,0.97,0.19,-0.18,0.22,
0.173,0.00,0.18,0.96,0.19,-0.18,0.22,
0.174,0.00,0.18,0.96,0.17,-0.19,0.11,
0.174,0.00,0.19,0.95,0.17,-0.19,0.11,
0.18,0.00,0.19,0.95,0.13,-0.09,-0.04,
0.181,0.00,0.19,0.94,0.13,-0.09,-0.04,
0.181,0.01,0.19,0.93,0.13,-0.09,-0.04,
0.182,0.01,0.19,0.93,0.12,-0.03,-0.27,
0.182,0.00,0.20,0.93,0.12,-0.03,-0.27,
0.184,0.00,0.20,0.92,0.12,-0.03,-0.27,
0.197,0.00,0.20,0.92,0.12,0.06,-0.40,
0.198,0.00,0.20,0.92,0.12,0.06,-0.40,
0.198,0.01,0.21,0.91,0.12,0.06,-0.40,
0.198,0.00,0.20,0.90,0.12,0.06,-0.40,
0.198,0.00,0.20,0.90,0.10,0.08,-0.49,
0.198,-0.00,0.20,0.90,0.10,0.08,-0.49,
0.199,-0.00,0.20,0.88,0.10,0.08,-0.49,
0.199,-0.00,0.20,0.88,0.09,0.13,-0.65,
0.199,-0.00,0.21,0.86,0.09,0.13,-0.65,
0.202,-0.00,0.21,0.86,0.03,0.11,-0.80,
0.202,-0.01,0.21,0.86,0.03,0.11,-0.80,
0.209,-0.01,0.20,0.85,0.03,0.11,-0.80,
0.21,-0.00,0.20,0.84,0.03,0.11,-0.80,
0.21,-0.00,0.20,0.84,-0.01,0.14,-1.05,
0.21,-0.00,0.21,0.83,-0.01,0.14,-1.05,
0.212,-0.00,0.20,0.82,-0.01,0.14,-1.05,
0.212,-0.00,0.20,0.82,-0.00,0.11,-1.19,
0.214,0.00,0.20,0.81,-0.00,0.11,-1.19,
0.216,-0.00,0.21,0.82,-0.00,0.11,-1.19,
0.217,-0.00,0.21,0.82,0.02,0.15,-1.37,
0.225,-0.00,0.21,0.81,0.02,0.15,-1.37,
0.225,0.00,0.21,0.81,0.02,0.15,-1.37,
0.226,0.00,0.21,0.81,0.04,0.14,-1.47,
0.226,0.01,0.20,0.80,0.04,0.14,-1.47,
0.227,0.01,0.20,0.80,0.05,0.19,-1.52,
0.227,0.01,0.20,0.79,0.05,0.19,-1.52,
0.229,0.00,0.20,0.79,0.05,0.19,-1.52,
0.232,0.00,0.20,0.79,0.11,0.10,-1.64,
0.232,0.01,0.19,0.78,0.11,0.10,-1.64,
0.234,0.01,0.19,0.78,0.11,0.10,-1.64,
0.243,0.01,0.19,0.79,0.11,0.10,-1.64,
0.244,0.01,0.19,0.79,0.12,0.03,-1.74,
0.244,0.02,0.19,0.79,0.12,0.03,-1.74,
0.245,0.02,0.19,0.79,0.12,0.03,-1.74,
0.245,0.02,0.19,0.79,0.16,-0.03,-1.74,
0.245,0.03,0.19,0.79,0.16,-0.03,-1.74,
0.247,0.02,0.19,0.81,0.16,-0.03,-1.74,
0.247,0.02,0.19,0.81,0.23,0.01,-1.68,
0.249,0.02,0.20,0.81,0.23,0.01,-1.68,
0.252,0.02,0.20,0.81,0.32,0.05,-1.57,
0.252,0.02,0.20,0.82,0.32,0.05,-1.57,
0.259,0.02,0.20,0.83,0.32,0.05,-1.57,
0.259,0.02,0.20,0.84,0.32,0.05,-1.57,
0.26,0.02,0.20,0.84,0.29,0.10,-1.39,
0.26,0.01,0.19,0.84,0.29,0.10,-1.39,
0.262,0.01,0.19,0.85,0.29,0.10,-1.39,
0.262,0.01,0.19,0.85,0.25,0.12,-1.20,
0.264,0.01,0.19,0.85,0.25,0.12,-1.20,
0.267,0.01,0.19,0.85,0.25,0.12,-1.20,
0.267,0.01,0.19,0.85,0.21,0.06,-1.11,
0.269,0.01,0.18,0.85,0.21,0.06,-1.11,
0.275,0.02,0.19,0.85,0.21,0.06,-1.11,
0.275,0.02,0.19,0.85,0.18,0.06,-1.04,
0.275,0.02,0.19,0.85,0.18,0.06,-1.04,
0.277,0.02,0.19,0.85,0.22,0.05,-1.00,
0.277,0.02,0.19,0.86,0.22,0.05,-1.00,
0.279,0.02,0.19,0.87,0.22,0.05,-1.00,
0.282,0.02,0.18,0.87,0.22,0.05,-1.00,
0.282,0.02,0.18,0.87,0.30,0.08,-0.95,
0.284,0.03,0.18,0.87,0.30,0.08,-0.95,
0.295,0.03,0.18,0.87,0.30,0.08,-0.95,
0.296,0.03,0.18,0.87,0.31,0.07,-0.82,
0.296,0.03,0.18,0.87,0.31,0.07,-0.82,
0.296,0.03,0.18,0.87,0.31,0.07,-0.82,
0.296,0.03,0.18,0.87,0.33,0.08,-0.80,
0.297,0.04,0.17,0.87,0.33,0.08,-0.80,
0.297,0.04,0.17,0.88,0.33,0.08,-0.80,
0.297,0.04,0.17,0.88,0.35,0.05,-0.77,
0.299,0.04,0.16,0.88,0.35,0.05,-0.77,
0.301,0.04,0.16,0.88,0.44,-0.01,-0.76,
0.302,0.05,0.15,0.87,0.44,-0.01,-0.76,
0.311,0.05,0.15,0.88,0.44,-0.01,-0.76,
0.312,0.05,0.14,0.87,0.44,-0.01,-0.76,
0.312,0.05,0.14,0.87,0.43,-0.14,-0.75,
0.312,0.06,0.14,0.86,0.43,-0.14,-0.75,
0.313,0.06,0.14,0.87,0.43,-0.14,-0.75,
0.313,0.06,0.14,0.87,0.50,-0.21,-0.77,
0.313,0.07,0.14,0.88,0.50,-0.21,-0.77,
0.316,0.07,0.14,0.88,0.58,-0.23,-0.81,
0.316,0.06,0.14,0.87,0.58,-0.23,-0.81,
0.318,0.06,0.15,0.86,0.58,-0.23,-0.81,
0.329,0.07,0.14,0.85,0.58,-0.23,-0.81,
0.33,0.07,0.14,0.85,0.58,-0.17,-0.74,
0.33,0.07,0.14,0.85,0.58,-0.17,-0.74,
0.33,0.07,0.14,0.85,0.57,-0.16,-0.93,
0.332,0.07,0.13,0.84,0.57,-0.16,-0.93,
0.333,0.07,0.13,0.83,0.57,-0.16,-0.93,
0.333,0.06,0.12,0.82,0.57,-0.16,-0.93,
0.333,0.06,0.12,0.82,0.62,-0.24,-1.02,
0.333,0.06,0.11,0.80,0.62,-0.24,-1.02,
0.336,0.06,0.09,0.79,0.62,-0.24,-1.02,
0.336,0.06,0.09,0.79,0.53,-0.35,-1.23,
0.343,0.06,0.08,0.78,0.53,-0.35,-1.23,
0.344,0.07,0.08,0.77,0.53,-0.35,-1.23,
0.344,0.07,0.08,0.77,0.49,-0.54,-1.49,
0.344,0.07,0.08,0.77,0.49,-0.54,-1.49,
0.345,0.07,0.08,0.76,0.49,-0.54,-1.49,
0.345,0.07,0.08,0.76,0.49,-0.70,-1.68,
0.347,0.07,0.07,0.76,0.49,-0.70,-1.68,
0.35,0.07,0.06,0.76,0.49,-0.70,-1.68,
0.351,0.07,0.06,0.76,0.54,-0.75,-1.75,
0.36,0.07,0.05,0.76,0.54,-0.75,-1.75,
0.36,0.08,0.05,0.76,0.54,-0.75,-1.75,
0.361,0.08,0.05,0.76,0.54,-0.85,-1.80,
0.361,0.09,0.04,0.76,0.54,-0.85,-1.80,
0.361,0.09,0.03,0.77,0.54,-0.85,-1.80,
0.361,0.09,0.03,0.77,0.56,-0.95,-1.80,
0.362,0.09,0.02,0.77,0.56,-0.95,-1.80,
0.366,0.10,0.02,0.77,0.56,-0.95,-1.80,
0.366,0.10,0.02,0.77,0.65,-1.09,-1.76,
0.367,0.10,0.01,0.78,0.65,-1.09,-1.76,
0.376,0.11,0.00,0.78,0.65,-1.09,-1.76,
0.376,0.11,0.00,0.78,0.74,-1.21,-1.71,
0.377,0.11,0.00,0.78,0.74,-1.21,-1.71,
0.377,0.11,0.00,0.78,0.81,-1.29,-1.62,
0.377,0.11,0.00,0.80,0.81,-1.29,-1.62,
0.377,0.11,-0.00,0.80,0.81,-1.29,-1.62,
0.38,0.12,-0.00,0.81,0.81,-1.29,-1.62,
0.38,0.12,-0.00,0.81,0.83,-1.31,-1.50,
0.383,0.12,-0.00,0.83,0.83,-1.31,-1.50,
0.385,0.12,0.00,0.84,0.83,-1.31,-1.50,
0.385,0.12,0.00,0.84,0.89,-1.31,-1.33,
0.394,0.13,0.00,0.84,0.89,-1.31,-1.33,
0.395,0.13,0.00,0.86,0.89,-1.31,-1.33,
0.395,0.13,0.00,0.86,0.93,-1.27,-1.08,
0.395,0.13,0.00,0.87,0.93,-1.27,-1.08,
0.396,0.14,0.00,0.87,0.93,-1.27,-1.08,
0.396,0.14,0.00,0.87,1.06,-1.21,-0.88,
0.397,0.14,0.01,0.87,1.06,-1.21,-0.88,
0.401,0.14,0.01,0.87,1.07,-1.17,-0.72,
0.401,0.14,0.01,0.87,1.07,-1.17,-0.72,
0.402,0.14,0.01,0.86,1.07,-1.17,-0.72,
0.413,0.15,0.01,0.86,1.07,-1.17,-0.72,
0.414,0.15,0.01,0.86,1.09,-1.11,-0.74,
0.414,0.15,0.01,0.86,1.09,-1.11,-0.74,
0.414,0.16,0.02,0.86,1.09,-1.11,-0.74,
0.414,0.16,0.02,0.86,1.18,-1.08,-0.77,
0.415,0.17,0.02,0.85,1.18,-1.08,-0.77,
0.415,0.18,0.03,0.85,1.18,-1.08,-0.77,
0.415,0.18,0.03,0.85,1.27,-0.98,-0.79,
0.416,0.19,0.04,0.84,1.27,-0.98,-0.79,
0.427,0.19,0.05,0.85,1.27,-0.98,-0.79,
0.428,0.19,0.05,0.85,1.42,-0.85,-0.90,
0.428,0.19,0.06,0.84,1.42,-0.85,-0.90,
0.428,0.19,0.06,0.84,1.54,-0.65,-0.92,
0.428,0.19,0.07,0.83,1.54,-0.65,-0.92,
0.429,0.18,0.07,0.82,1.54,-0.65,-0.92,
0.429,0.18,0.08,0.83,1.54,-0.65,-0.92,
0.43,0.18,0.08,0.83,1.54,-0.43,-1.03,
0.431,0.17,0.08,0.81,1.54,-0.43,-1.03,
0.435,0.15,0.07,0.81,1.54,-0.43,-1.03,
0.435,0.15,0.07,0.81,1.47,-0.32,-1.15,
0.445,0.12,0.06,0.79,1.47,-0.32,-1.15,
0.446,0.11,0.05,0.78,1.47,-0.32,-1.15,
0.446,0.11,0.05,0.78,1.23,-0.29,-1.27,
0.446,0.09,0.04,0.77,1.23,-0.29,-1.27,
0.446,0.07,0.02,0.77,1.23,-0.29,-1.27,
0.446,0.07,0.02,0.77,0.80,-0.47,-1.52,
0.447,0.07,0.02,0.77,0.80,-0.47,-1.52,
0.45,0.07,0.02,0.77,0.47,-0.70,-1.66,
0.45,0.06,0.02,0.77,0.47,-0.70,-1.66,
0.451,0.05,0.02,0.78,0.47,-0.70,-1.66,
0.459,0.05,0.02,0.79,0.47,-0.70,-1.66,
0.46,0.05,0.02,0.79,0.28,-0.77,-1.64,
0.46,0.04,0.02,0.81,0.28,-0.77,-1.64,
0.46,0.03,0.02,0.83,0.28,-0.77,-1.64,
0.46,0.03,0.02,0.83,0.18,-0.77,-1.48,
0.461,0.02,0.01,0.85,0.18,-0.77,-1.48,
0.464,0.01,0.01,0.89,0.18,-0.77,-1.48,
0.464,0.01,0.01,0.89,0.02,-0.71,-1.12,
0.466,0.01,0.01,0.92,0.02,-0.71,-1.12,
0.469,-0.00,0.01,0.96,0.02,-0.71,-1.12,
0.469,-0.00,0.01,0.96,-0.16,-0.72,-0.66,
0.475,-0.00,0.01,1.00,-0.16,-0.72,-0.66,
0.475,-0.00,0.01,1.00,-0.29,-0.69,0.06,
0.476,-0.00,-0.01,1.04,-0.29,-0.69,0.06,
0.476,-0.01,-0.01,1.08,-0.29,-0.69,0.06,
0.48,0.01,-0.02,1.11,-0.29,-0.69,0.06,
0.48,0.01,-0.02,1.11,-0.36,-0.73,0.80,
0.482,0.01,-0.02,1.15,-0.36,-0.73,0.80,
0.484,0.00,-0.03,1.19,-0.36,-0.73,0.80,
0.485,0.00,-0.03,1.19,-0.35,-0.80,1.53,
0.493,0.00,-0.04,1.22,-0.35,-0.80,1.53,
0.493,0.01,-0.05,1.26,-0.35,-0.80,1.53,
0.493,0.01,-0.05,1.26,-0.31,-0.84,2.26,
0.496,0.03,-0.05,1.29,-0.31,-0.84,2.26,
0.496,0.04,-0.05,1.30,-0.31,-0.84,2.26,
0.497,0.04,-0.05,1.30,-0.28,-0.92,2.89,
0.498,0.06,-0.06,1.32,-0.28,-0.92,2.89,
0.499,0.06,-0.06,1.32,-0.04,-0.94,3.43,
0.499,0.06,-0.06,1.34,-0.04,-0.94,3.43,
0.501,0.07,-0.07,1.35,-0.04,-0.94,3.43,
0.512,0.07,-0.07,1.35,0.15,-0.97,3.75,
0.513,0.09,-0.07,1.36,0.15,-0.97,3.75,
0.513,0.09,-0.07,1.37,0.15,-0.97,3.75,
0.514,0.10,-0.06,1.37,0.15,-0.97,3.75,
0.516,0.10,-0.06,1.37,0.31,-0.98,4.02,
0.517,0.11,-0.06,1.37,0.31,-0.98,4.02,
0.517,0.12,-0.06,1.37,0.31,-0.98,4.02,
0.518,0.12,-0.06,1.37,0.45,-0.89,4.12,
0.518,0.12,-0.06,1.37,0.45,-0.89,4.12,
0.519,0.12,-0.05,1.36,0.45,-0.89,4.12,
0.519,0.12,-0.05,1.36,0.57,-0.82,4.06,
0.529,0.12,-0.04,1.35,0.57,-0.82,4.06,
0.529,0.12,-0.04,1.35,0.63,-0.68,4.01,
0.53,0.11,-0.03,1.33,0.63,-0.68,4.01,
0.53,0.10,-0.02,1.32,0.63,-0.68,4.01,
0.53,0.09,-0.01,1.30,0.63,-0.68,4.01,
0.53,0.09,-0.01,1.30,0.58,-0.50,3.76,
0.531,0.08,-0.01,1.28,0.58,-0.50,3.76,
0.534,0.05,0.00,1.26,0.58,-0.50,3.76,
0.534,0.05,0.00,1.26,0.38,-0.27,3.42,
0.536,0.03,0.01,1.24,0.38,-0.27,3.42,
0.544,0.02,0.01,1.22,0.38,-0.27,3.42,
0.545,0.02,0.01,1.22,0.02,-0.13,3.04,
0.545,0.00,0.02,1.21,0.02,-0.13,3.04,
0.545,-0.00,0.03,1.20,0.02,-0.13,3.04,
0.545,-0.00,0.03,1.20,-0.37,-0.02,2.63,
0.546,-0.01,0.04,1.18,-0.37,-0.02,2.63,
0.549,-0.01,0.04,1.18,-0.58,0.17,2.37,
0.549,-0.03,0.05,1.16,-0.58,0.17,2.37,
0.55,-0.04,0.05,1.14,-0.58,0.17,2.37,
0.563,-0.05,0.05,1.12,-0.58,0.17,2.37,
0.564,-0.05,0.05,1.12,-0.80,0.34,2.00,
0.564,-0.06,0.04,1.11,-0.80,0.34,2.00,
0.564,-0.06,0.03,1.10,-0.80,0.34,2.00,
0.565,-0.06,0.03,1.10,-1.03,0.38,1.62,
0.565,-0.06,0.02,1.09,-1.03,0.38,1.62,
0.565,-0.06,0.01,1.08,-1.03,0.38,1.62,
0.565,-0.06,0.01,1.08,-1.17,0.27,1.41,
0.565,-0.05,-0.00,1.08,-1.17,0.27,1.41,
0.569,-0.04,-0.01,1.06,-1.17,0.27,1.41,
0.569,-0.04,-0.01,1.06,-1.14,0.04,1.21,
0.571,-0.02,-0.01,1.06,-1.14,0.04,1.21,
0.578,-0.02,-0.01,1.06,-0.95,-0.13,1.01,
0.579,-0.00,-0.01,1.06,-0.95,-0.13,1.01,
0.579,0.02,-0.01,1.06,-0.95,-0.13,1.01,
0.579,0.03,-0.02,1.06,-0.95,-0.13,1.01,
0.58,0.03,-0.02,1.06,-0.64,-0.19,0.96,
0.58,0.05,-0.02,1.06,-0.64,-0.19,0.96,
0.584,0.05,-0.02,1.06,-0.26,-0.20,0.92,
0.584,0.07,-0.02,1.07,-0.26,-0.20,0.92,
0.586,0.08,-0.03,1.07,-0.26,-0.20,0.92,
0.593,0.10,-0.03,1.08,-0.26,-0.20,0.92,
0.593,0.10,-0.03,1.08,0.09,-0.25,0.95,
0.594,0.12,-0.03,1.08,0.09,-0.25,0.95,
0.594,0.13,-0.04,1.07,0.09,-0.25,0.95,
0.594,0.13,-0.04,1.07,0.42,-0.31,1.05,
0.596,0.13,-0.04,1.08,0.42,-0.31,1.05,
0.598,0.13,-0.04,1.08,0.74,-0.38,1.05,
0.599,0.13,-0.04,1.07,0.74,-0.38,1.05,
0.601,0.12,-0.04,1.06,0.74,-0.38,1.05,
0.603,0.13,-0.04,1.06,0.74,-0.38,1.05,
0.604,0.13,-0.04,1.06,0.79,-0.38,1.06,
0.611,0.14,-0.04,1.06,0.79,-0.38,1.06,
0.611,0.14,-0.04,1.06,0.77,-0.31,0.88,
0.611,0.15,-0.04,1.06,0.77,-0.31,0.88,
0.612,0.15,-0.04,1.06,0.77,-0.31,0.88,
0.613,0.15,-0.05,1.06,0.77,-0.31,0.88,
0.614,0.15,-0.05,1.06,0.96,-0.34,0.88,
0.615,0.15,-0.05,1.05,0.96,-0.34,0.88,
0.618,0.14,-0.05,1.04,0.96,-0.34,0.88,
0.618,0.14,-0.05,1.04,1.00,-0.38,0.86,
0.62,0.14,-0.06,1.04,1.00,-0.38,0.86,
0.632,0.14,-0.06,1.04,0.97,-0.42,0.78,
0.633,0.13,-0.06,1.04,0.97,-0.42,0.78,
0.633,0.12,-0.06,1.04,0.97,-0.42,0.78,
0.634,0.12,-0.05,1.03,0.97,-0.42,0.78,
0.634,0.12,-0.05,1.03,0.87,-0.43,0.71,
0.634,0.11,-0.05,1.03,0.87,-0.43,0.71,
0.634,0.10,-0.05,1.02,0.87,-0.43,0.71,
0.635,0.10,-0.05,1.02,0.70,-0.39,0.66,
0.635,0.09,-0.06,1.02,0.70,-0.39,0.66,
0.646,0.08,-0.06,1.02,0.70,-0.39,0.66,
0.647,0.08,-0.06,1.02,0.55,-0.34,0.58,
0.647,0.09,-0.05,1.02,0.55,-0.34,0.58,
0.647,0.09,-0.04,1.02,0.55,-0.34,0.58,
0.648,0.09,-0.04,1.02,0.36,-0.35,0.50,
0.648,0.09,-0.03,1.02,0.36,-0.35,0.50,
0.648,0.09,-0.02,1.02,0.36,-0.35,0.50,
0.648,0.09,-0.02,1.02,0.40,-0.18,0.51,
0.649,0.09,-0.02,1.02,0.40,-0.18,0.51,
0.652,0.07,-0.01,1.01,0.40,-0.18,0.51,
0.652,0.07,-0.01,1.01,0.39,0.00,0.48,
0.663,0.07,-0.01,1.00,0.39,0.00,0.48,
0.665,0.06,-0.01,1.01,0.39,0.00,0.48,
0.665,0.06,-0.01,1.01,0.30,0.12,0.42,
0.666,0.06,-0.01,1.01,0.30,0.12,0.42,
0.666,0.06,-0.01,1.01,0.17,0.18,0.34,
0.666,0.05,-0.01,1.01,0.17,0.18,0.34,
0.667,0.05,-0.01,1.01,0.17,0.18,0.34,
0.667,0.04,-0.01,1.02,0.17,0.18,0.34,
0.667,0.04,-0.01,1.02,0.06,0.19,0.37,
0.669,0.03,-0.00,1.01,0.06,0.19,0.37,
0.677,0.03,-0.00,1.02,0.06,0.19,0.37,
0.678,0.03,-0.00,1.02,-0.07,0.22,0.44,
0.678,0.02,0.01,1.01,-0.07,0.22,0.44,
0.678,-0.00,0.01,1.02,-0.07,0.22,0.44,
0.678,-0.00,0.01,1.02,-0.24,0.36,0.44,
0.679,-0.02,0.02,1.02,-0.24,0.36,0.44,
0.682,-0.03,0.03,1.03,-0.24,0.36,0.44,
0.682,-0.03,0.03,1.03,-0.45,0.50,0.46,
0.684,-0.04,0.03,1.04,-0.45,0.50,0.46,
0.687,-0.05,0.04,1.04,-0.45,0.50,0.46,
0.687,-0.05,0.04,1.04,-0.79,0.65,0.53,
0.693,-0.06,0.03,1.05,-0.79,0.65,0.53,
0.694,-0.07,0.04,1.05,-0.79,0.65,0.53,
0.694,-0.07,0.04,1.05,-0.96,0.76,0.71,
0.694,-0.07,0.05,1.05,-0.96,0.76,0.71,
0.697,-0.07,0.05,1.05,-1.13,0.85,0.79,
0.697,-0.08,0.05,1.05,-1.13,0.85,0.79,
0.699,-0.08,0.06,1.06,-1.13,0.85,0.79,
0.701,-0.08,0.06,1.07,-1.13,0.85,0.79,
0.702,-0.08,0.06,1.07,-1.22,1.00,0.79,
0.704,-0.09,0.06,1.07,-1.22,1.00,0.79,
0.71,-0.08,0.06,1.07,-1.22,1.00,0.79,
0.711,-0.08,0.06,1.07,-1.30,1.08,0.88,
0.711,-0.08,0.06,1.08,-1.30,1.08,0.88,
0.712,-0.08,0.06,1.09,-1.30,1.08,0.88,
0.712,-0.08,0.06,1.09,-1.31,1.13,0.95,
0.714,-0.08,0.06,1.09,-1.31,1.13,0.95,
0.716,-0.08,0.06,1.09,-1.29,1.18,1.08,
0.716,-0.08,0.05,1.10,-1.29,1.18,1.08,
0.718,-0.08,0.05,1.10,-1.29,1.18,1.08,
0.726,-0.08,0.05,1.10,-1.26,1.13,1.19,
0.726,-0.08,0.03,1.10,-1.26,1.13,1.19,
0.726,-0.08,0.02,1.11,-1.26,1.13,1.19,
0.727,-0.07,0.01,1.11,-1.26,1.13,1.19,
0.727,-0.07,0.01,1.11,-1.24,1.00,1.28,
0.728,-0.07,-0.00,1.11,-1.24,1.00,1.28,
0.731,-0.06,-0.02,1.12,-1.24,1.00,1.28,
0.732,-0.06,-0.02,1.12,-1.20,0.79,1.34,
0.733,-0.05,-0.03,1.12,-1.20,0.79,1.34,
0.736,-0.04,-0.04,1.11,-1.20,0.79,1.34,
0.736,-0.04,-0.04,1.11,-1.10,0.52,1.39,
0.748,-0.04,-0.06,1.11,-1.10,0.52,1.39,
0.749,-0.04,-0.07,1.11,-1.10,0.52,1.39,
0.749,-0.04,-0.07,1.11,-0.93,0.28,1.37,
0.75,-0.04,-0.08,1.11,-0.93,0.28,1.37,
0.75,-0.04,-0.08,1.11,-0.87,0.07,1.32,
0.75,-0.04,-0.09,1.11,-0.87,0.07,1.32,
0.75,-0.03,-0.10,1.11,-0.87,0.07,1.32,
0.751,-0.03,-0.11,1.12,-0.87,0.07,1.32,
0.751,-0.03,-0.11,1.12,-0.84,-0.11,1.31,
0.753,-0.02,-0.12,1.12,-0.84,-0.11,1.31,
0.763,-0.01,-0.13,1.12,-0.84,-0.11,1.31,
0.764,-0.01,-0.13,1.12,-0.77,-0.28,1.38,
0.764,-0.00,-0.13,1.13,-0.77,-0.28,1.38,
0.764,0.00,-0.13,1.12,-0.77,-0.28,1.38,
0.764,0.00,-0.13,1.12,-0.62,-0.47,1.43,
0.764,0.01,-0.14,1.13,-0.62,-0.47,1.43,
0.766,0.02,-0.14,1.13,-0.62,-0.47,1.43,
0.766,0.02,-0.14,1.13,-0.49,-0.52,1.48,
0.768,0.01,-0.14,1.12,-0.49,-0.52,1.48,
0.78,0.01,-0.14,1.12,-0.35,-0.60,1.50,
0.781,0.01,-0.13,1.11,-0.35,-0.60,1.50,
0.781,0.02,-0.13,1.10,-0.35,-0.60,1.50,
0.781,0.03,-0.12,1.10,-0.35,-0.60,1.50,
0.782,0.03,-0.12,1.10,-0.36,-0.55,1.37,
0.782,0.03,-0.12,1.10,-0.36,-0.55,1.37,
0.782,0.04,-0.12,1.08,-0.36,-0.55,1.37,
0.782,0.04,-0.12,1.08,-0.24,-0.46,1.22,
0.783,0.04,-0.11,1.08,-0.24,-0.46,1.22,
0.786,0.05,-0.11,1.06,-0.24,-0.46,1.22,
0.787,0.05,-0.11,1.06,-0.12,-0.39,1.11,
0.795,0.06,-0.10,1.06,-0.12,-0.39,1.11,
0.796,0.07,-0.10,1.05,-0.12,-0.39,1.11,
0.796,0.07,-0.10,1.05,0.02,-0.27,0.89,
0.796,0.08,-0.09,1.04,0.02,-0.27,0.89,
0.797,0.08,-0.09,1.04,0.18,-0.20,0.73,
0.797,0.08,-0.09,1.03,0.18,-0.20,0.73,
0.798,0.08,-0.08,1.02,0.18,-0.20,0.73,
0.801,0.08,-0.08,1.02,0.35,-0.13,0.55,
0.801,0.09,-0.08,1.01,0.35,-0.13,0.55,
0.803,0.09,-0.08,1.00,0.35,-0.13,0.55,
0.81,0.09,-0.08,1.00,0.35,-0.13,0.55,
0.81,0.09,-0.08,1.00,0.41,-0.05,0.37,
0.811,0.08,-0.08,0.99,0.41,-0.05,0.37,
0.811,0.07,-0.08,0.99,0.41,-0.05,0.37,
0.811,0.07,-0.08,0.99,0.43,-0.00,0.22,
0.813,0.07,-0.08,0.99,0.43,-0.00,0.22,
0.815,0.07,-0.08,0.99,0.33,-0.00,0.13,
0.816,0.07,-0.07,0.99,0.33,-0.00,0.13,
0.818,0.07,-0.08,0.99,0.33,-0.00,0.13,
0.82,0.07,-0.08,0.99,0.32,0.02,0.09,
0.826,0.08,-0.07,0.98,0.32,0.02,0.09,
0.826,0.08,-0.07,0.99,0.32,0.02,0.09,
0.826,0.08,-0.06,0.98,0.32,0.02,0.09,
0.826,0.08,-0.06,0.98,0.33,0.04,0.06,
0.833,0.08,-0.05,0.99,0.33,0.04,0.06,
0.833,0.08,-0.05,0.99,0.33,0.04,0.06,
0.833,0.08,-0.05,0.99,0.38,0.13,0.05,
0.834,0.07,-0.05,1.00,0.38,0.13,0.05,
0.835,0.07,-0.05,1.01,0.38,0.13,0.05,
0.835,0.07,-0.05,1.01,0.37,0.26,0.10,
0.838,0.07,-0.05,1.01,0.37,0.26,0.10,
0.853,0.06,-0.05,1.01,0.37,0.26,0.10,
0.854,0.06,-0.05,1.01,0.30,0.31,0.23,
0.854,0.05,-0.06,1.02,0.30,0.31,0.23,
0.855,0.05,-0.06,1.02,0.21,0.30,0.31,
0.855,0.04,-0.06,1.02,0.21,0.30,0.31,
0.855,0.03,-0.06,1.03,0.21,0.30,0.31,
0.856,0.02,-0.06,1.04,0.21,0.30,0.31,
0.856,0.02,-0.06,1.04,0.00,0.26,0.40,
0.856,0.02,-0.06,1.04,0.00,0.26,0.40,
0.857,0.01,-0.07,1.05,0.00,0.26,0.40,
0.857,0.01,-0.07,1.05,-0.13,0.25,0.54,
0.863,-0.01,-0.06,1.05,-0.13,0.25,0.54,
0.863,-0.02,-0.07,1.06,-0.13,0.25,0.54,
0.864,-0.02,-0.07,1.06,-0.29,0.24,0.63,
0.864,-0.04,-0.07,1.07,-0.29,0.24,0.63,
0.865,-0.04,-0.07,1.08,-0.29,0.24,0.63,
0.866,-0.04,-0.07,1.08,-0.51,0.23,0.77,
0.867,-0.05,-0.07,1.10,-0.51,0.23,0.77,
0.87,-0.05,-0.07,1.10,-0.79,0.20,0.98,
0.871,-0.05,-0.07,1.11,-0.79,0.20,0.98,
0.872,-0.06,-0.08,1.13,-0.79,0.20,0.98,
0.878,-0.06,-0.08,1.13,-0.86,0.25,1.24,
0.879,-0.07,-0.08,1.14,-0.86,0.25,1.24,
0.879,-0.06,-0.07,1.15,-0.86,0.25,1.24,
0.88,-0.06,-0.07,1.18,-0.86,0.25,1.24,
0.88,-0.06,-0.07,1.18,-0.96,0.20,1.50,
0.883,-0.05,-0.07,1.21,-0.96,0.20,1.50,
0.885,-0.05,-0.06,1.23,-0.96,0.20,1.50,
0.885,-0.05,-0.06,1.23,-0.95,0.27,1.83,
0.888,-0.05,-0.06,1.25,-0.95,0.27,1.83,
0.894,-0.05,-0.06,1.27,-0.95,0.27,1.83,
0.895,-0.05,-0.06,1.27,-0.81,0.35,2.33,
0.895,-0.05,-0.06,1.29,-0.81,0.35,2.33,
0.895,-0.05,-0.06,1.29,-0.78,0.40,2.75,
0.895,-0.04,-0.06,1.30,-0.78,0.40,2.75,
0.898,-0.04,-0.06,1.32,-0.78,0.40,2.75,
0.9,-0.04,-0.06,1.33,-0.78,0.40,2.75,
0.9,-0.04,-0.06,1.33,-0.72,0.45,3.08,
0.902,-0.03,-0.07,1.33,-0.72,0.45,3.08,
0.905,-0.03,-0.07,1.34,-0.72,0.45,3.08,
0.905,-0.03,-0.07,1.34,-0.64,0.45,3.32,
0.911,-0.02,-0.08,1.34,-0.64,0.45,3.32,
0.911,-0.02,-0.08,1.35,-0.64,0.45,3.32,
0.911,-0.02,-0.08,1.35,-0.55,0.39,3.45,
0.912,-0.01,-0.08,1.34,-0.55,0.39,3.45,
0.915,-0.01,-0.08,1.33,-0.55,0.39,3.45,
0.915,-0.01,-0.08,1.33,-0.45,0.32,3.52,
0.917,-0.00,-0.08,1.32,-0.45,0.32,3.52,
0.92,-0.00,-0.08,1.32,-0.36,0.27,3.42,
0.92,-0.00,-0.08,1.31,-0.36,0.27,3.42,
0.922,0.01,-0.08,1.30,-0.36,0.27,3.42,
0.927,0.01,-0.08,1.28,-0.36,0.27,3.42,
0.928,0.01,-0.08,1.28,-0.25,0.29,3.21,
0.928,0.01,-0.08,1.26,-0.25,0.29,3.21,
0.93,0.01,-0.08,1.26,-0.14,0.31,2.98,
0.93,0.01,-0.07,1.25,-0.14,0.31,2.98,
0.932,0.00,-0.07,1.24,-0.14,0.31,2.98,
0.935,0.00,-0.07,1.24,-0.15,0.34,2.59,
0.935,0.00,-0.06,1.21,-0.15,0.34,2.59,
0.937,-0.00,-0.06,1.19,-0.15,0.34,2.59,
0.948,-0.01,-0.06,1.18,-0.15,0.34,2.59,
0.949,-0.01,-0.06,1.18,-0.20,0.37,2.29,
0.949,-0.01,-0.06,1.16,-0.20,0.37,2.29,
0.949,-0.01,-0.06,1.16,-0.30,0.45,1.92,
0.949,-0.02,-0.05,1.14,-0.30,0.45,1.92,
0.95,-0.03,-0.04,1.13,-0.30,0.45,1.92,
0.95,-0.04,-0.04,1.11,-0.30,0.45,1.92,
0.95,-0.04,-0.04,1.11,-0.38,0.50,1.57,
0.952,-0.04,-0.04,1.11,-0.38,0.50,1.57,
0.955,-0.04,-0.04,1.09,-0.38,0.50,1.57,
0.955,-0.04,-0.04,1.09,-0.54,0.56,1.26,
0.963,-0.04,-0.03,1.09,-0.54,0.56,1.26,
0.964,-0.04,-0.03,1.09,-0.54,0.56,1.26,
0.964,-0.04,-0.03,1.09,-0.59,0.58,1.04,
0.964,-0.05,-0.03,1.08,-0.59,0.58,1.04,
0.964,-0.05,-0.03,1.08,-0.59,0.58,1.04,
0.964,-0.05,-0.03,1.08,-0.63,0.60,0.92,
0.967,-0.05,-0.02,1.08,-0.63,0.60,0.92,
0.97,-0.05,-0.02,1.08,-0.68,0.64,0.83,
0.97,-0.05,-0.02,1.08,-0.68,0.64,0.83,
0.972,-0.05,-0.02,1.08,-0.68,0.64,0.83,
0.981,-0.05,-0.02,1.08,-0.66,0.68,0.80,
0.981,-0.05,-0.02,1.07,-0.66,0.68,0.80,
0.982,-0.05,-0.02,1.08,-0.66,0.68,0.80,
0.982,-0.04,-0.01,1.09,-0.66,0.68,0.80,
0.982,-0.04,-0.01,1.09,-0.66,0.68,0.79,
0.982,-0.04,-0.02,1.10,-0.66,0.68,0.79,
0.985,-0.04,-0.02,1.11,-0.66,0.68,0.79,
0.985,-0.04,-0.02,1.11,-0.61,0.74,0.88,
0.987,-0.03,-0.01,1.11,-0.61,0.74,0.88,
0.997,-0.03,-0.01,1.10,-0.61,0.74,0.88,
0.997,-0.03,-0.01,1.10,-0.51,0.71,1.03,
0.998,-0.02,-0.01,1.11,-0.51,0.71,1.03,
0.998,-0.02,-0.01,1.11,-0.43,0.77,1.06,
0.998,-0.02,-0.01,1.11,-0.43,0.77,1.06,
0.998,-0.01,-0.01,1.11,-0.43,0.77,1.06,
0.999,-0.00,-0.00,1.11,-0.43,0.77,1.06,
0.999,-0.00,-0.00,1.11,-0.31,0.77,1.11,
1.001,0.00,-0.00,1.11,-0.31,0.77,1.11,
1.003,0.00,-0.01,1.12,-0.31,0.77,1.11,
1.004,0.00,-0.01,1.12,-0.17,0.79,1.13,
1.011,0.00,-0.00,1.12,-0.17,0.79,1.13,
1.012,0.01,-0.01,1.11,-0.17,0.79,1.13,
1.012,0.01,-0.01,1.11,-0.08,0.78,1.14,
1.012,0.01,-0.01,1.11,-0.08,0.78,1.14,
1.014,0.01,-0.01,1.11,-0.08,0.78,1.14,
1.014,0.01,-0.01,1.11,-0.08,0.72,1.14,
1.016,0.01,-0.02,1.12,-0.08,0.72,1.14,
1.019,0.01,-0.02,1.12,-0.04,0.66,1.11,
1.02,0.01,-0.02,1.12,-0.04,0.66,1.11,
1.021,0.01,-0.02,1.13,-0.04,0.66,1.11,
1.027,0.01,-0.02,1.13,-0.04,0.66,1.11,
1.028,0.01,-0.02,1.13,-0.06,0.58,1.21,
1.028,0.01,-0.02,1.13,-0.06,0.58,1.21,
1.029,0.01,-0.02,1.14,-0.06,0.58,1.21,
1.029,0.01,-0.02,1.14,-0.04,0.55,1.26,
1.03,0.00,-0.03,1.14,-0.04,0.55,1.26,
1.033,-0.00,-0.03,1.15,-0.04,0.55,1.26,
1.034,-0.00,-0.03,1.15,-0.05,0.53,1.32,
1.035,-0.01,-0.03,1.15,-0.05,0.53,1.32,
1.038,-0.01,-0.03,1.15,-0.05,0.53,1.32,
1.038,-0.01,-0.03,1.15,-0.13,0.47,1.40,
1.045,-0.01,-0.03,1.16,-0.13,0.47,1.40,
1.046,-0.01,-0.03,1.16,-0.21,0.46,1.46,
1.046,-0.02,-0.04,1.16,-0.21,0.46,1.46,
1.046,-0.02,-0.03,1.15,-0.21,0.46,1.46,
1.048,-0.02,-0.04,1.15,-0.21,0.46,1.46,
1.049,-0.02,-0.04,1.15,-0.31,0.37,1.51,
1.05,-0.02,-0.04,1.16,-0.31,0.37,1.51,
1.053,-0.02,-0.04,1.16,-0.31,0.37,1.51,
1.053,-0.02,-0.04,1.16,-0.33,0.34,1.48,
1.067,-0.01,-0.04,1.16,-0.33,0.34,1.48,
1.068,-0.02,-0.04,1.16,-0.33,0.34,1.48,
1.068,-0.02,-0.04,1.16,-0.30,0.30,1.51,
1.068,-0.02,-0.04,1.15,-0.30,0.30,1.51,
1.069,-0.02,-0.04,1.15,-0.30,0.30,1.51,
1.069,-0.02,-0.04,1.15,-0.29,0.29,1.53,
1.069,-0.01,-0.04,1.16,-0.29,0.29,1.53,
1.069,-0.01,-0.04,1.16,-0.31,0.24,1.43,
1.07,-0.02,-0.04,1.16,-0.31,0.24,1.43,
1.07,-0.01,-0.05,1.16,-0.31,0.24,1.43,
1.08,-0.01,-0.05,1.15,-0.31,0.24,1.43,
1.081,-0.01,-0.05,1.15,-0.27,0.23,1.48,
1.081,-0.01,-0.05,1.16,-0.27,0.23,1.48,
1.081,-0.01,-0.05,1.16,-0.27,0.23,1.48,
1.081,-0.01,-0.05,1.16,-0.27,0.14,1.46,
1.082,-0.01,-0.05,1.16,-0.27,0.14,1.46,
1.083,-0.00,-0.05,1.16,-0.27,0.14,1.46,
1.083,-0.00,-0.05,1.16,-0.19,0.11,1.48,
1.086,0.00,-0.04,1.17,-0.19,0.11,1.48,
1.088,0.01,-0.05,1.17,-0.19,0.11,1.48,
1.088,0.01,-0.05,1.17,-0.16,0.11,1.55,
1.098,0.00,-0.05,1.18,-0.16,0.11,1.55,
1.098,0.01,-0.05,1.18,-0.16,0.11,1.55,
1.098,0.01,-0.05,1.18,-0.07,0.11,1.59,
1.099,0.01,-0.05,1.18,-0.07,0.11,1.59,
1.099,0.02,-0.05,1.18,-0.07,0.11,1.59,
1.099,0.02,-0.05,1.18,-0.07,0.05,1.66,
1.1,0.02,-0.05,1.18,-0.07,0.05,1.66,
1.102,0.02,-0.05,1.18,0.04,0.04,1.66,
1.103,0.02,-0.05,1.18,0.04,0.04,1.66,
1.105,0.02,-0.04,1.18,0.04,0.04,1.66,
1.112,0.03,-0.05,1.18,0.04,0.04,1.66,
1.113,0.03,-0.05,1.18,0.11,0.02,1.67,
1.113,0.03,-0.05,1.18,0.11,0.02,1.67,
1.113,0.03,-0.04,1.18,0.11,0.02,1.67,
1.113,0.03,-0.04,1.18,0.15,0.02,1.65,
1.115,0.03,-0.04,1.17,0.15,0.02,1.65,
1.117,0.03,-0.04,1.17,0.18,-0.02,1.64,
1.118,0.03,-0.04,1.16,0.18,-0.02,1.64,
1.12,0.04,-0.04,1.15,0.18,-0.02,1.64,
1.128,0.04,-0.04,1.15,0.18,-0.02,1.64,
1.129,0.04,-0.04,1.15,0.20,-0.02,1.51,
1.129,0.03,-0.03,1.15,0.20,-0.02,1.51,
1.129,0.04,-0.03,1.15,0.20,-0.02,1.51,
1.13,0.04,-0.03,1.15,0.26,0.01,1.36,
1.13,0.04,-0.02,1.15,0.26,0.01,1.36,
1.132,0.05,-0.02,1.15,0.26,0.01,1.36,
1.133,0.05,-0.02,1.15,0.26,0.04,1.36,
1.134,0.04,-0.02,1.14,0.26,0.04,1.36,
1.137,0.05,-0.02,1.14,0.26,0.04,1.36,
1.137,0.05,-0.02,1.14,0.33,0.08,1.33,
1.145,0.05,-0.02,1.13,0.33,0.08,1.33,
1.145,0.05,-0.02,1.13,0.34,0.07,1.24,
1.146,0.05,-0.03,1.13,0.34,0.07,1.24,
1.146,0.05,-0.03,1.12,0.34,0.07,1.24,
1.147,0.05,-0.03,1.11,0.34,0.07,1.24,
1.147,0.05,-0.03,1.11,0.35,0.01,1.16,
1.149,0.05,-0.03,1.10,0.35,0.01,1.16,
1.153,0.05,-0.03,1.10,0.36,-0.05,0.98,
1.153,0.05,-0.03,1.10,0.36,-0.05,0.98,
1.155,0.05,-0.04,1.09,0.36,-0.05,0.98,
1.167,0.06,-0.03,1.09,0.36,-0.05,0.98,
1.168,0.06,-0.03,1.09,0.37,-0.12,0.84,
1.168,0.06,-0.03,1.09,0.37,-0.12,0.84,
1.168,0.06,-0.03,1.09,0.37,-0.12,0.84,
1.169,0.06,-0.03,1.09,0.40,-0.15,0.74,
1.169,0.06,-0.02,1.09,0.40,-0.15,0.74,
1.169,0.06,-0.02,1.09,0.43,-0.14,0.71,
1.169,0.06,-0.02,1.09,0.43,-0.14,0.71,
1.17,0.06,-0.02,1.09,0.43,-0.14,0.71,
1.172,0.06,-0.02,1.09,0.43,-0.14,0.71,
1.173,0.06,-0.02,1.09,0.42,-0.09,0.71,
1.179,0.06,-0.02,1.10,0.42,-0.09,0.71,
1.18,0.06,-0.01,1.11,0.42,-0.09,0.71,
1.18,0.06,-0.01,1.11,0.44,-0.09,0.76,
1.18,0.06,-0.02,1.11,0.44,-0.09,0.76,
1.183,0.06,-0.02,1.11,0.44,-0.09,0.76,
1.183,0.06,-0.02,1.11,0.46,-0.10,0.85,
1.185,0.05,-0.02,1.11,0.46,-0.10,0.85,
1.187,0.05,-0.01,1.12,0.46,-0.10,0.85,
1.188,0.05,-0.01,1.12,0.41,-0.15,0.91,
1.19,0.05,-0.01,1.11,0.41,-0.15,0.91,
1.198,0.05,-0.01,1.11,0.34,-0.16,0.95,
1.198,0.05,-0.01,1.12,0.34,-0.16,0.95,
1.198,0.04,-0.00,1.11,0.34,-0.16,0.95,
1.199,0.04,-0.00,1.10,0.34,-0.16,0.95,
1.199,0.04,-0.00,1.10,0.30,-0.12,0.95,
1.199,0.04,0.01,1.10,0.30,-0.12,0.95,
1.202,0.03,0.01,1.09,0.30,-0.12,0.95,
1.203,0.03,0.01,1.09,0.25,-0.10,0.90,
1.204,0.03,0.01,1.09,0.25,-0.10,0.90,
1.213,0.03,0.02,1.08,0.25,-0.10,0.90,
1.214,0.03,0.02,1.08,0.19,-0.01,0.76,
1.214,0.03,0.02,1.08,0.19,-0.01,0.76,
1.214,0.02,0.02,1.08,0.19,-0.01,0.76,
1.215,0.02,0.02,1.08,0.15,0.02,0.64,
1.215,0.02,0.02,1.08,0.15,0.02,0.64,
1.217,0.02,0.02,1.08,0.10,0.04,0.63,
1.217,0.02,0.02,1.07,0.10,0.04,0.63,
1.219,0.02,0.02,1.07,0.10,0.04,0.63,
1.222,0.01,0.02,1.06,0.10,0.04,0.63,
1.222,0.01,0.02,1.06,0.06,0.02,0.58,
1.224,-0.00,0.03,1.06,0.06,0.02,0.58,
1.229,0.00,0.03,1.05,0.06,0.02,0.58,
1.229,0.00,0.03,1.05,-0.05,-0.02,0.45,
1.229,0.00,0.03,1.05,-0.05,-0.02,0.45,
1.232,0.01,0.02,1.04,-0.05,-0.02,0.45,
1.232,0.01,0.02,1.04,-0.17,-0.03,0.38,
1.234,0.01,0.02,1.04,-0.17,-0.03,0.38,
1.237,0.01,0.02,1.02,-0.17,-0.03,0.38,
1.237,0.01,0.02,1.02,-0.13,-0.07,0.27,
1.239,0.01,0.02,1.02,-0.13,-0.07,0.27,
1.247,0.01,0.02,1.02,-0.09,-0.13,0.14,
1.247,0.02,0.02,1.02,-0.09,-0.13,0.14,
1.247,0.02,0.02,1.01,-0.09,-0.13,0.14,
1.248,0.02,0.02,1.02,-0.09,-0.13,0.14,
1.248,0.02,0.02,1.02,-0.04,-0.20,0.00,
1.248,0.03,0.03,1.02,-0.04,-0.20,0.00,
1.251,0.04,0.03,1.02,-0.04,-0.20,0.00,
1.252,0.04,0.03,1.02,-0.02,-0.22,-0.01,
1.254,0.04,0.02,1.02,-0.02,-0.22,-0.01,
1.257,0.03,0.02,1.03,-0.02,-0.22,-0.01,
1.257,0.03,0.02,1.03,0.10,-0.19,0.04,
1.262,0.04,0.02,1.04,0.10,-0.19,0.04,
1.262,0.04,0.02,1.04,0.10,-0.19,0.04,
1.263,0.04,0.02,1.04,0.13,-0.27,0.13,
1.264,0.04,0.02,1.05,0.13,-0.27,0.13,
1.267,0.04,0.02,1.05,0.14,-0.35,0.24,
1.267,0.04,0.02,1.06,0.14,-0.35,0.24,
1.269,0.05,0.02,1.05,0.14,-0.35,0.24,
1.271,0.05,0.02,1.05,0.14,-0.35,0.24,
1.272,0.05,0.02,1.05,0.19,-0.38,0.35,
1.274,0.05,0.03,1.04,0.19,-0.38,0.35,
1.287,0.06,0.03,1.03,0.19,-0.38,0.35,
1.288,0.06,0.03,1.03,0.27,-0.42,0.34,
1.288,0.06,0.03,1.03,0.27,-0.42,0.34,
1.289,0.06,0.04,1.03,0.27,-0.42,0.34,
1.289,0.06,0.04,1.03,0.30,-0.38,0.18,
1.289,0.05,0.05,1.01,0.30,-0.38,0.18,
1.289,0.04,0.04,1.01,0.30,-0.38,0.18,
1.29,0.04,0.04,1.01,0.31,-0.34,0.13,
1.29,0.04,0.05,0.99,0.31,-0.34,0.13,
1.298,0.04,0.05,0.99,0.18,-0.29,-0.05,
1.299,0.03,0.05,0.99,0.18,-0.29,-0.05,
1.299,0.02,0.05,0.98,0.18,-0.29,-0.05,
1.3,0.02,0.05,0.97,0.18,-0.29,-0.05,
1.3,0.02,0.05,0.97,0.08,-0.29,-0.23,
1.301,0.02,0.05,0.96,0.08,-0.29,-0.23,
1.301,0.02,0.06,0.95,0.08,-0.29,-0.23,
1.301,0.02,0.06,0.95,-0.08,-0.33,-0.34,
1.303,0.02,0.07,0.93,-0.08,-0.33,-0.34,
1.305,0.02,0.07,0.92,-0.08,-0.33,-0.34,
1.306,0.02,0.07,0.92,-0.13,-0.32,-0.55,
1.317,0.01,0.07,0.92,-0.13,-0.32,-0.55,
1.317,0.01,0.08,0.90,-0.13,-0.32,-0.55,
1.318,0.01,0.08,0.90,-0.15,-0.26,-0.82,
1.318,0.01,0.08,0.90,-0.15,-0.26,-0.82,
1.318,0.01,0.08,0.90,-0.23,-0.24,-1.00,
1.321,0.00,0.08,0.91,-0.23,-0.24,-1.00,
1.321,0.01,0.08,0.90,-0.23,-0.24,-1.00,
1.321,0.02,0.09,0.90,-0.23,-0.24,-1.00,
1.321,0.02,0.09,0.90,-0.24,-0.20,-1.03,
1.322,0.02,0.09,0.90,-0.24,-0.20,-1.03,
1.332,0.02,0.09,0.91,-0.24,-0.20,-1.03,
1.332,0.02,0.09,0.91,-0.20,-0.22,-1.04,
1.333,0.03,0.08,0.90,-0.20,-0.22,-1.04,
1.333,0.03,0.08,0.91,-0.20,-0.22,-1.04,
1.333,0.03,0.08,0.91,-0.13,-0.23,-1.02,
1.333,0.03,0.09,0.91,-0.13,-0.23,-1.02,
1.335,0.03,0.09,0.91,-0.13,-0.23,-1.02,
1.335,0.03,0.09,0.91,-0.08,-0.30,-1.01,
1.337,0.04,0.09,0.92,-0.08,-0.30,-1.01,
1.349,0.04,0.09,0.92,-0.06,-0.33,-0.95,
1.35,0.05,0.09,0.92,-0.06,-0.33,-0.95,
1.351,0.05,0.09,0.92,-0.06,-0.33,-0.95,
1.351,0.06,0.09,0.92,-0.06,-0.33,-0.95,
1.351,0.06,0.09,0.92,0.06,-0.34,-0.86,
1.351,0.06,0.09,0.91,0.06,-0.34,-0.86,
1.351,0.05,0.10,0.91,0.06,-0.34,-0.86,
1.352,0.05,0.10,0.91,0.11,-0.33,-0.82,
1.352,0.06,0.11,0.91,0.11,-0.33,-0.82,
1.356,0.06,0.11,0.91,0.15,-0.35,-0.91,
1.356,0.05,0.11,0.92,0.15,-0.35,-0.91,
1.365,0.05,0.12,0.91,0.15,-0.35,-0.91,
1.365,0.05,0.12,0.90,0.15,-0.35,-0.91,
1.366,0.05,0.12,0.90,0.14,-0.24,-0.85,
1.366,0.04,0.12,0.90,0.14,-0.24,-0.85,
1.366,0.04,0.12,0.90,0.08,-0.16,-0.96,
1.366,0.04,0.12,0.91,0.08,-0.16,-0.96,
1.367,0.04,0.12,0.91,0.08,-0.16,-0.96,
1.37,0.04,0.12,0.91,-0.00,-0.18,-0.98,
1.37,0.04,0.12,0.91,-0.00,-0.18,-0.98,
1.373,0.04,0.12,0.90,-0.00,-0.18,-0.98,
1.388,0.05,0.12,0.89,-0.00,-0.18,-0.98,
1.389,0.05,0.12,0.89,-0.03,-0.23,-0.91,
1.389,0.05,0.12,0.89,-0.03,-0.23,-0.91,
1.39,0.05,0.13,0.89,-0.03,-0.23,-0.91,
1.39,0.05,0.13,0.89,0.01,-0.29,-1.05,
1.39,0.05,0.13,0.87,0.01,-0.29,-1.05,
1.391,0.04,0.13,0.88,0.01,-0.29,-1.05,
1.391,0.04,0.13,0.88,0.08,-0.25,-1.11,
1.391,0.03,0.13,0.87,0.08,-0.25,-1.11,
1.391,0.03,0.13,0.87,-0.03,-0.24,-1.23,
1.392,0.02,0.13,0.87,-0.03,-0.24,-1.23,
1.393,0.01,0.13,0.87,-0.03,-0.24,-1.23,
1.395,0.01,0.13,0.87,-0.03,-0.24,-1.23,
1.395,0.01,0.13,0.87,-0.17,-0.25,-1.25,
1.397,0.02,0.14,0.87,-0.17,-0.25,-1.25,
1.4,0.02,0.14,0.87,-0.17,-0.25,-1.25,
1.4,0.02,0.14,0.87,-0.30,-0.25,-1.24,
1.402,0.02,0.15,0.88,-0.30,-0.25,-1.24,
1.404,0.02,0.14,0.88,-0.30,-0.25,-1.24,
1.405,0.02,0.14,0.88,-0.23,-0.21,-1.27,
1.407,0.02,0.14,0.88,-0.23,-0.21,-1.27,
1.411,0.02,0.14,0.89,-0.23,-0.21,-1.27,
1.412,0.02,0.14,0.89,-0.23,-0.21,-1.13,
1.412,0.03,0.14,0.89,-0.23,-0.21,-1.13,
1.414,0.03,0.14,0.89,-0.23,-0.23,-1.09,
1.415,0.03,0.14,0.89,-0.23,-0.23,-1.09,
1.416,0.04,0.15,0.89,-0.23,-0.23,-1.09,
1.419,0.04,0.15,0.90,-0.23,-0.23,-1.09,
1.42,0.04,0.15,0.90,-0.15,-0.25,-1.03,
1.421,0.05,0.14,0.90,-0.15,-0.25,-1.03,
1.428,0.05,0.14,0.91,-0.15,-0.25,-1.03,
1.428,0.05,0.14,0.91,-0.06,-0.25,-0.98,
1.428,0.05,0.14,0.90,-0.06,-0.25,-0.98,
1.43,0.05,0.14,0.90,-0.06,-0.25,-0.98,
1.43,0.05,0.14,0.90,0.04,-0.29,-0.86,
1.431,0.05,0.14,0.90,0.04,-0.29,-0.86,
1.434,0.05,0.13,0.90,0.04,-0.29,-0.86,
1.434,0.05,0.13,0.90,0.08,-0.37,-0.89,
1.436,0.05,0.13,0.90,0.08,-0.37,-0.89,
1.439,0.05,0.13,0.90,0.06,-0.42,-0.91,
1.439,0.05,0.13,0.89,0.06,-0.42,-0.91,
1.442,0.05,0.14,0.89,0.06,-0.42,-0.91,
1.444,0.04,0.14,0.88,0.06,-0.42,-0.91,
1.444,0.04,0.14,0.88,0.00,-0.46,-0.94,
1.446,0.04,0.14,0.87,0.00,-0.46,-0.94,
1.449,0.03,0.14,0.87,0.00,-0.46,-0.94,
1.449,0.03,0.14,0.87,-0.00,-0.42,-1.07,
1.451,0.03,0.14,0.87,-0.00,-0.42,-1.07,
1.455,0.02,0.14,0.87,-0.00,-0.42,-1.07,
1.456,0.02,0.14,0.87,-0.12,-0.44,-1.16,
1.456,0.01,0.15,0.86,-0.12,-0.44,-1.16,
1.46,0.00,0.15,0.86,-0.12,-0.44,-1.16,
1.461,0.00,0.15,0.86,-0.19,-0.44,-1.21,
1.461,-0.01,0.15,0.85,-0.19,-0.44,-1.21,
1.464,-0.01,0.15,0.85,-0.38,-0.41,-1.28,
1.464,-0.02,0.15,0.85,-0.38,-0.41,-1.28,
1.466,-0.03,0.15,0.84,-0.38,-0.41,-1.28,
1.469,-0.04,0.15,0.84,-0.38,-0.41,-1.28,
1.469,-0.04,0.15,0.84,-0.56,-0.41,-1.35,
1.472,-0.05,0.15,0.84,-0.56,-0.41,-1.35,
1.474,-0.06,0.15,0.84,-0.56,-0.41,-1.35,
1.474,-0.06,0.15,0.84,-0.73,-0.44,-1.48,
1.48,-0.06,0.15,0.84,-0.73,-0.44,-1.48,
1.481,-0.07,0.15,0.84,-0.73,-0.44,-1.48,
1.481,-0.07,0.15,0.84,-0.94,-0.43,-1.45,
1.487,-0.07,0.15,0.84,-0.94,-0.43,-1.45,
1.488,-0.06,0.15,0.85,-0.94,-0.43,-1.45,
1.488,-0.06,0.15,0.85,-1.02,-0.43,-1.47,
1.488,-0.06,0.15,0.85,-1.02,-0.43,-1.47,
1.489,-0.06,0.15,0.85,-1.04,-0.43,-1.40,
1.49,-0.06,0.15,0.85,-1.04,-0.43,-1.40,
1.494,-0.05,0.15,0.85,-1.04,-0.43,-1.40,
1.495,-0.05,0.15,0.85,-1.04,-0.43,-1.40,
1.495,-0.05,0.15,0.85,-0.98,-0.46,-1.31,
1.496,-0.05,0.15,0.86,-0.98,-0.46,-1.31,
1.499,-0.04,0.14,0.87,-0.98,-0.46,-1.31,
1.5,-0.04,0.14,0.87,-0.89,-0.46,-1.29,
1.502,-0.03,0.15,0.87,-0.89,-0.46,-1.29,
1.504,-0.02,0.15,0.88,-0.89,-0.46,-1.29,
1.504,-0.02,0.15,0.88,-0.80,-0.53,-1.18,
1.506,-0.02,0.15,0.89,-0.80,-0.53,-1.18,
1.509,-0.01,0.15,0.90,-0.80,-0.53,-1.18,
1.509,-0.01,0.15,0.90,-0.62,-0.53,-1.08,
1.512,-0.00,0.15,0.90,-0.62,-0.53,-1.08,
1.514,-0.00,0.15,0.90,-0.50,-0.51,-0.90,
1.514,0.00,0.15,0.90,-0.50,-0.51,-0.90,
1.516,0.00,0.15,0.89,-0.50,-0.51,-0.90,
1.519,0.01,0.15,0.90,-0.50,-0.51,-0.90,
1.519,0.01,0.15,0.90,-0.36,-0.51,-0.85,
1.521,0.01,0.15,0.91,-0.36,-0.51,-0.85,
1.524,0.01,0.15,0.91,-0.36,-0.51,-0.85,
1.525,0.01,0.15,0.91,-0.32,-0.48,-0.84,
1.527,0.02,0.15,0.91,-0.32,-0.48,-0.84,
1.528,0.02,0.15,0.92,-0.32,-0.48,-0.84,
1.529,0.02,0.15,0.92,-0.26,-0.49,-0.74,
1.531,0.02,0.15,0.92,-0.26,-0.49,-0.74,
1.534,0.01,0.15,0.92,-0.26,-0.49,-0.74,
1.534,0.01,0.15,0.92,-0.19,-0.56,-0.67,
1.536,0.01,0.15,0.93,-0.19,-0.56,-0.67,
1.538,0.01,0.15,0.93,-0.22,-0.53,-0.61,
1.539,0.01,0.15,0.93,-0.22,-0.53,-0.61,
1.54,0.01,0.15,0.93,-0.22,-0.53,-0.61,
1.544,0.01,0.14,0.93,-0.22,-0.53,-0.61,
1.545,0.01,0.14,0.93,-0.24,-0.56,-0.53,
1.545,0.00,0.15,0.93,-0.24,-0.56,-0.53,
1.549,-0.01,0.14,0.92,-0.24,-0.56,-0.53,
1.549,-0.01,0.14,0.92,-0.29,-0.61,-0.51,
1.55,-0.01,0.14,0.91,-0.29,-0.61,-0.51,
1.554,-0.02,0.15,0.91,-0.29,-0.61,-0.51,
1.554,-0.02,0.15,0.91,-0.38,-0.61,-0.55,
1.556,-0.03,0.15,0.92,-0.38,-0.61,-0.55,
1.56,-0.04,0.15,0.91,-0.38,-0.61,-0.55,
1.561,-0.04,0.15,0.91,-0.46,-0.62,-0.69,
1.561,-0.05,0.15,0.89,-0.46,-0.62,-0.69,
1.564,-0.05,0.15,0.89,-0.66,-0.60,-0.63,
1.564,-0.06,0.15,0.89,-0.66,-0.60,-0.63,
1.566,-0.06,0.17,0.88,-0.66,-0.60,-0.63,
1.568,-0.07,0.17,0.88,-0.66,-0.60,-0.63,
1.569,-0.07,0.17,0.88,-0.88,-0.57,-0.86,
1.57,-0.08,0.18,0.87,-0.88,-0.57,-0.86,
1.574,-0.08,0.19,0.87,-0.88,-0.57,-0.86,
1.574,-0.08,0.19,0.87,-0.95,-0.41,-0.97,
1.575,-0.08,0.19,0.86,-0.95,-0.41,-0.97,
1.578,-0.09,0.20,0.86,-0.95,-0.41,-0.97,
1.578,-0.09,0.20,0.86,-1.07,-0.28,-1.07,
1.58,-0.09,0.20,0.86,-1.07,-0.28,-1.07,
1.584,-0.10,0.20,0.86,-1.07,-0.28,-1.07,
1.584,-0.10,0.20,0.86,-1.13,-0.22,-1.15,
1.586,-0.10,0.20,0.85,-1.13,-0.22,-1.15,
1.589,-0.10,0.20,0.85,-1.23,-0.16,-1.19,
1.589,-0.10,0.21,0.85,-1.23,-0.16,-1.19,
1.59,-0.09,0.20,0.84,-1.23,-0.16,-1.19,
1.597,-0.09,0.20,0.85,-1.23,-0.16,-1.19,
1.598,-0.09,0.20,0.85,-1.29,-0.14,-1.28,
1.6,-0.09,0.20,0.86,-1.29,-0.14,-1.28,
1.6,-0.10,0.20,0.86,-1.29,-0.14,-1.28,
1.6,-0.10,0.20,0.86,-1.18,-0.14,-1.27,
1.601,-0.09,0.19,0.87,-1.18,-0.14,-1.27,
1.603,-0.09,0.19,0.87,-1.18,-0.14,-1.27,
1.603,-0.09,0.19,0.87,-1.21,-0.20,-1.13,
1.605,-0.08,0.19,0.88,-1.21,-0.20,-1.13,
1.608,-0.07,0.19,0.88,-1.21,-0.20,-1.13,
1.608,-0.07,0.19,0.88,-1.18,-0.26,-1.05,
1.611,-0.07,0.19,0.89,-1.18,-0.26,-1.05,
1.613,-0.07,0.19,0.89,-1.07,-0.31,-0.94,
1.613,-0.07,0.18,0.90,-1.07,-0.31,-0.94,
1.615,-0.06,0.18,0.91,-1.07,-0.31,-0.94,
1.618,-0.06,0.18,0.91,-1.07,-0.31,-0.94,
1.618,-0.06,0.18,0.91,-0.97,-0.34,-0.76,
1.619,-0.05,0.18,0.92,-0.97,-0.34,-0.76,
1.622,-0.05,0.18,0.92,-0.97,-0.34,-0.76,
1.623,-0.05,0.18,0.92,-0.88,-0.35,-0.65,
1.625,-0.04,0.18,0.93,-0.88,-0.35,-0.65,
1.628,-0.04,0.18,0.94,-0.88,-0.35,-0.65,
1.629,-0.04,0.18,0.94,-0.76,-0.36,-0.54,
1.629,-0.04,0.18,0.94,-0.76,-0.36,-0.54,
1.632,-0.04,0.18,0.93,-0.76,-0.36,-0.54,
1.632,-0.04,0.18,0.93,-0.71,-0.36,-0.36,
1.634,-0.05,0.18,0.94,-0.71,-0.36,-0.36,
1.637,-0.05,0.18,0.94,-0.71,-0.40,-0.40,
1.637,-0.05,0.18,0.94,-0.71,-0.40,-0.40,
1.639,-0.05,0.18,0.94,-0.71,-0.40,-0.40,
1.644,-0.05,0.18,0.93,-0.71,-0.40,-0.40,
1.645,-0.05,0.18,0.93,-0.76,-0.37,-0.34,
1.645,-0.04,0.19,0.93,-0.76,-0.37,-0.34,
1.647,-0.04,0.19,0.93,-0.75,-0.41,-0.39,
1.647,-0.04,0.19,0.92,-0.75,-0.41,-0.39,
1.65,-0.04,0.19,0.93,-0.75,-0.41,-0.39,
1.652,-0.04,0.19,0.92,-0.75,-0.41,-0.39,
1.652,-0.04,0.19,0.92,-0.71,-0.35,-0.45,
1.654,-0.04,0.19,0.91,-0.71,-0.35,-0.45,
1.657,-0.04,0.19,0.91,-0.71,-0.35,-0.45,
1.657,-0.04,0.19,0.91,-0.69,-0.35,-0.51,
1.66,-0.03,0.19,0.90,-0.69,-0.35,-0.51,
1.662,-0.03,0.19,0.90,-0.66,-0.37,-0.65,
1.662,-0.03,0.19,0.90,-0.66,-0.37,-0.65,
1.665,-0.03,0.20,0.89,-0.66,-0.37,-0.65,
1.668,-0.03,0.20,0.88,-0.66,-0.37,-0.65,
1.668,-0.03,0.20,0.88,-0.59,-0.35,-0.71,
1.67,-0.03,0.20,0.87,-0.59,-0.35,-0.71,
1.672,-0.02,0.20,0.87,-0.59,-0.35,-0.71,
1.673,-0.02,0.20,0.87,-0.60,-0.30,-0.82,
1.675,-0.02,0.20,0.86,-0.60,-0.30,-0.82,
1.677,-0.02,0.21,0.86,-0.60,-0.30,-0.82,
1.677,-0.02,0.21,0.86,-0.53,-0.29,-1.00,
1.679,-0.02,0.21,0.86,-0.53,-0.29,-1.00,
1.683,-0.01,0.21,0.86,-0.53,-0.29,-1.00,
1.683,-0.01,0.21,0.86,-0.50,-0.27,-1.05,
1.685,-0.00,0.21,0.86,-0.50,-0.27,-1.05,
1.687,-0.00,0.21,0.86,-0.44,-0.25,-1.07,
1.688,-0.00,0.21,0.86,-0.44,-0.25,-1.07,
1.69,0.00,0.21,0.86,-0.44,-0.25,-1.07,
1.692,0.01,0.21,0.86,-0.44,-0.25,-1.07,
1.693,0.01,0.21,0.86,-0.33,-0.24,-1.04,
1.695,0.01,0.21,0.87,-0.33,-0.24,-1.04,
1.697,0.01,0.21,0.88,-0.33,-0.24,-1.04,
1.697,0.01,0.21,0.88,-0.24,-0.26,-1.03,
1.7,0.02,0.21,0.88,-0.24,-0.26,-1.03,
1.702,0.02,0.21,0.89,-0.24,-0.26,-1.03,
1.702,0.02,0.21,0.89,-0.18,-0.24,-0.92,
1.704,0.02,0.22,0.90,-0.18,-0.24,-0.92,
1.706,0.02,0.21,0.90,-0.18,-0.24,-0.92,
1.707,0.02,0.21,0.90,-0.12,-0.26,-0.80,
1.709,0.02,0.22,0.91,-0.12,-0.26,-0.80,
1.715,0.01,0.22,0.91,-0.12,-0.26,-0.80,
1.716,0.02,0.22,0.91,-0.12,-0.26,-0.80,
1.716,0.02,0.22,0.91,-0.05,-0.24,-0.65,
1.716,0.02,0.22,0.91,-0.05,-0.24,-0.65,
1.717,0.02,0.22,0.91,-0.12,-0.19,-0.61,
1.719,0.01,0.23,0.91,-0.12,-0.19,-0.61,
1.721,0.01,0.23,0.91,-0.09,-0.17,-0.59,
1.721,0.01,0.23,0.91,-0.09,-0.17,-0.59,
1.724,0.00,0.23,0.91,-0.09,-0.17,-0.59,
1.729,-0.00,0.23,0.90,-0.09,-0.17,-0.59,
1.729,-0.00,0.23,0.90,-0.18,-0.12,-0.57,
1.729,-0.01,0.23,0.90,-0.18,-0.12,-0.57,
1.731,-0.02,0.23,0.90,-0.18,-0.12,-0.57,
1.732,-0.02,0.23,0.90,-0.24,-0.10,-0.59,
1.734,-0.02,0.23,0.90,-0.24,-0.10,-0.59,
1.737,-0.03,0.24,0.90,-0.24,-0.10,-0.59,
1.737,-0.03,0.24,0.90,-0.37,-0.11,-0.64,
1.739,-0.03,0.24,0.91,-0.37,-0.11,-0.64,
1.742,-0.04,0.24,0.91,-0.37,-0.11,-0.64,
1.742,-0.04,0.24,0.91,-0.52,-0.04,-0.62,
1.744,-0.05,0.25,0.91,-0.52,-0.04,-0.62,
1.746,-0.04,0.25,0.91,-0.52,-0.04,-0.62,
1.746,-0.04,0.25,0.91,-0.59,-0.00,-0.59,
1.749,-0.05,0.25,0.91,-0.59,-0.00,-0.59,
1.752,-0.05,0.25,0.92,-0.59,-0.00,-0.59,
1.752,-0.05,0.25,0.92,-0.69,0.07,-0.55,
1.754,-0.05,0.24,0.92,-0.69,0.07,-0.55,
1.757,-0.05,0.24,0.93,-0.69,0.07,-0.55,
1.757,-0.05,0.24,0.93,-0.70,0.10,-0.49,
1.759,-0.04,0.24,0.93,-0.70,0.10,-0.49,
1.761,-0.05,0.24,0.93,-0.70,0.10,-0.49,
1.762,-0.05,0.24,0.93,-0.69,0.03,-0.41,
1.763,-0.04,0.24,0.93,-0.69,0.03,-0.41,
1.767,-0.04,0.24,0.94,-0.69,0.03,-0.41,
1.767,-0.04,0.24,0.94,-0.65,0.03,-0.35,
1.768,-0.04,0.23,0.93,-0.65,0.03,-0.35,
1.772,-0.05,0.23,0.93,-0.65,0.03,-0.35,
1.772,-0.05,0.23,0.93,-0.60,-0.03,-0.31,
1.774,-0.05,0.22,0.93,-0.60,-0.03,-0.31,
1.776,-0.05,0.22,0.93,-0.66,-0.10,-0.33,
1.776,-0.05,0.22,0.93,-0.66,-0.10,-0.33,
1.778,-0.05,0.22,0.93,-0.66,-0.10,-0.33,
1.781,-0.06,0.21,0.93,-0.66,-0.10,-0.33,
1.782,-0.06,0.21,0.93,-0.66,-0.18,-0.35,
1.784,-0.06,0.21,0.93,-0.66,-0.18,-0.35,
1.786,-0.06,0.22,0.93,-0.66,-0.18,-0.35,
1.787,-0.06,0.22,0.93,-0.73,-0.24,-0.32,
1.789,-0.06,0.22,0.93,-0.73,-0.24,-0.32,
1.791,-0.06,0.21,0.94,-0.73,-0.24,-0.32,
1.791,-0.06,0.21,0.94,-0.74,-0.26,-0.31,
1.793,-0.05,0.22,0.93,-0.74,-0.26,-0.31,
1.796,-0.05,0.22,0.93,-0.74,-0.26,-0.31,
1.796,-0.05,0.22,0.93,-0.71,-0.24,-0.26,
1.798,-0.05,0.23,0.93,-0.71,-0.24,-0.26,
1.8,-0.05,0.23,0.93,-0.66,-0.21,-0.34,
1.801,-0.04,0.23,0.93,-0.66,-0.21,-0.34,
1.803,-0.04,0.23,0.94,-0.66,-0.21,-0.34,
1.806,-0.04,0.23,0.94,-0.66,-0.21,-0.34,
1.806,-0.04,0.23,0.94,-0.60,-0.12,-0.31,
1.807,-0.03,0.24,0.93,-0.60,-0.12,-0.31,
1.814,-0.03,0.24,0.94,-0.60,-0.12,-0.31,
1.818,-0.03,0.24,0.94,-0.52,-0.08,-0.26,
1.819,-0.02,0.23,0.94,-0.52,-0.08,-0.26,
1.819,-0.02,0.24,0.94,-0.52,-0.08,-0.26,
1.82,-0.02,0.24,0.94,-0.43,-0.04,-0.28,
1.82,-0.01,0.24,0.94,-0.43,-0.04,-0.28,
1.821,-0.01,0.24,0.94,-0.43,-0.04,-0.28,
1.821,-0.01,0.24,0.94,-0.32,-0.04,-0.21,
1.822,-0.01,0.24,0.94,-0.32,-0.04,-0.21,
1.826,-0.01,0.24,0.94,-0.24,-0.04,-0.17,
1.826,-0.00,0.24,0.94,-0.24,-0.04,-0.17,
1.829,-0.00,0.24,0.95,-0.24,-0.04,-0.17,
1.83,0.00,0.24,0.95,-0.24,-0.04,-0.17,
1.831,0.00,0.24,0.95,-0.16,0.03,-0.20,
1.832,0.00,0.24,0.95,-0.16,0.03,-0.20,
1.836,0.00,0.24,0.95,-0.16,0.03,-0.20,
1.836,0.00,0.24,0.95,-0.11,0.00,-0.09,
1.84,0.00,0.24,0.95,-0.11,0.00,-0.09,
1.84,0.00,0.24,0.95,-0.11,0.00,-0.09,
1.841,0.00,0.24,0.95,-0.09,-0.02,-0.13,
1.843,0.00,0.24,0.95,-0.09,-0.02,-0.13,
1.845,0.00,0.25,0.95,-0.09,-0.02,-0.13,
1.846,0.00,0.25,0.95,-0.07,-0.01,-0.11,
1.847,-0.00,0.25,0.94,-0.07,-0.01,-0.11,
1.85,-0.00,0.25,0.94,-0.08,0.05,-0.15,
1.85,-0.01,0.24,0.94,-0.08,0.05,-0.15,
1.853,-0.02,0.25,0.94,-0.08,0.05,-0.15,
1.856,-0.02,0.24,0.94,-0.08,0.05,-0.15,
1.856,-0.02,0.24,0.94,-0.16,0.04,-0.19,
1.858,-0.03,0.25,0.94,-0.16,0.04,-0.19,
1.862,-0.03,0.25,0.93,-0.16,0.04,-0.19,
1.862,-0.03,0.25,0.93,-0.27,0.05,-0.23,
1.862,-0.04,0.24,0.94,-0.27,0.05,-0.23,
1.865,-0.04,0.24,0.94,-0.39,0.06,-0.26,
1.865,-0.04,0.25,0.94,-0.39,0.06,-0.26,
1.868,-0.04,0.25,0.94,-0.39,0.06,-0.26,
1.87,-0.05,0.26,0.93,-0.39,0.06,-0.26,
1.871,-0.05,0.26,0.93,-0.49,0.03,-0.24,
1.873,-0.05,0.26,0.94,-0.49,0.03,-0.24,
1.875,-0.05,0.26,0.94,-0.53,0.15,-0.24,
1.876,-0.05,0.27,0.94,-0.53,0.15,-0.24,
1.878,-0.05,0.27,0.94,-0.53,0.15,-0.24,
1.88,-0.05,0.28,0.95,-0.53,0.15,-0.24,
1.88,-0.05,0.28,0.95,-0.53,0.24,-0.23,
1.883,-0.04,0.28,0.95,-0.53,0.24,-0.23,
1.886,-0.04,0.28,0.95,-0.53,0.24,-0.23,
1.886,-0.04,0.28,0.95,-0.56,0.31,-0.18,
1.888,-0.04,0.28,0.95,-0.56,0.31,-0.18,
1.89,-0.04,0.28,0.95,-0.56,0.31,-0.18,
1.891,-0.04,0.28,0.95,-0.50,0.34,-0.11,
1.892,-0.04,0.27,0.96,-0.50,0.34,-0.11,
1.895,-0.04,0.27,0.96,-0.50,0.34,-0.11,
1.895,-0.04,0.27,0.96,-0.50,0.37,-0.09,
1.897,-0.03,0.28,0.95,-0.50,0.37,-0.09,
1.9,-0.03,0.28,0.95,-0.45,0.30,0.00,
1.901,-0.03,0.27,0.96,-0.45,0.30,0.00,
1.902,-0.02,0.27,0.96,-0.45,0.30,0.00,
1.905,-0.02,0.27,0.96,-0.45,0.30,0.00,
1.906,-0.02,0.27,0.96,-0.34,0.32,-0.02,
1.907,-0.01,0.26,0.97,-0.34,0.32,-0.02,
1.91,-0.01,0.26,0.97,-0.34,0.32,-0.02,
1.91,-0.01,0.26,0.97,-0.24,0.27,0.01,
1.913,-0.00,0.25,0.98,-0.24,0.27,0.01,
1.914,0.01,0.25,0.97,-0.24,0.27,0.01,
1.915,0.01,0.25,0.97,-0.12,0.17,0.08,
1.917,0.01,0.24,0.98,-0.12,0.17,0.08,
1.92,0.01,0.23,0.99,-0.12,0.17,0.08,
1.92,0.01,0.23,0.99,-0.02,0.09,0.13,
1.922,0.02,0.23,0.98,-0.02,0.09,0.13,
1.925,0.02,0.23,0.98,0.05,-0.04,0.22,
1.925,0.02,0.22,0.99,0.05,-0.04,0.22,
1.927,0.03,0.22,1.00,0.05,-0.04,0.22,
1.932,0.02,0.21,1.00,0.05,-0.04,0.22,
1.933,0.02,0.21,1.00,0.14,-0.16,0.25,
1.933,0.03,0.21,1.01,0.14,-0.16,0.25,
1.934,0.03,0.21,1.01,0.14,-0.16,0.25,
1.934,0.03,0.21,1.01,0.21,-0.23,0.37,
1.937,0.03,0.20,1.02,0.21,-0.23,0.37,
1.94,0.03,0.20,1.03,0.21,-0.23,0.37,
1.94,0.03,0.20,1.03,0.22,-0.30,0.49,
1.942,0.03,0.20,1.03,0.22,-0.30,0.49,
1.945,0.03,0.20,1.04,0.22,-0.30,0.49,
1.946,0.03,0.20,1.04,0.22,-0.37,0.60,
1.946,0.03,0.19,1.04,0.22,-0.37,0.60,
1.95,0.03,0.19,1.04,0.25,-0.41,0.68,
1.95,0.04,0.20,1.04,0.25,-0.41,0.68,
1.952,0.03,0.20,1.04,0.25,-0.41,0.68,
1.955,0.03,0.20,1.04,0.29,-0.42,0.75,
1.955,0.03,0.20,1.05,0.29,-0.42,0.75,
1.957,0.03,0.20,1.05,0.29,-0.42,0.75,
1.96,0.03,0.20,1.04,0.29,-0.42,0.75,
1.96,0.03,0.20,1.04,0.24,-0.39,0.78,
1.963,0.02,0.21,1.04,0.24,-0.39,0.78,
1.964,0.02,0.21,1.04,0.24,-0.39,0.78,
1.964,0.02,0.21,1.04,0.22,-0.37,0.77,
1.966,0.02,0.21,1.04,0.22,-0.37,0.77,
1.969,0.01,0.21,1.03,0.22,-0.37,0.77,
1.969,0.01,0.21,1.03,0.15,-0.31,0.72,
1.971,0.00,0.21,1.02,0.15,-0.31,0.72,
1.974,-0.00,0.21,0.96,0.15,-0.31,0.72,
1.974,-0.00,0.21,0.96,0.10,-0.31,0.65,
1.976,-0.03,0.24,0.76,0.10,-0.31,0.65,
1.98,-0.06,0.27,0.55,0.10,-0.31,0.65,
1.98,-0.06,0.27,0.55,-0.07,-0.27,0.23,
1.981,-0.03,0.27,0.66,-0.07,-0.27,0.23,
1.984,-0.01,0.27,0.87,-0.07,-0.27,0.23,
1.984,-0.01,0.27,0.87,-0.48,0.12,-3.05,
1.986,-0.02,0.28,0.94,-0.48,0.12,-3.05,
1.989,-0.05,0.27,0.97,-0.48,0.12,-3.05,
1.989,-0.05,0.27,0.97,-0.22,0.33,-1.89,
1.991,-0.07,0.27,0.95,-0.22,0.33,-1.89,
2.0,-0.08,0.27,0.91,-0.22,0.33,-1.89,
2.0,-0.08,0.27,0.91,-0.37,0.34,-0.09,
2.001,-0.09,0.27,0.88,-0.37,0.34,-0.09,
2.001,-0.09,0.27,0.88,-0.74,0.28,-0.30,
2.001,-0.08,0.28,0.88,-0.74,0.28,-0.30,
2.001,-0.06,0.27,0.89,-0.74,0.28,-0.30,
2.003,-0.04,0.27,0.91,-0.74,0.28,-0.30,
2.004,-0.04,0.27,0.91,-0.84,0.32,-0.83,
2.006,-0.03,0.26,0.92,-0.84,0.32,-0.83,
2.008,-0.03,0.26,0.92,-0.52,0.30,-0.59,
2.009,-0.02,0.26,0.93,-0.52,0.30,-0.59,
2.016,-0.01,0.26,0.96,-0.52,0.30,-0.59,
2.016,-0.01,0.25,0.98,-0.52,0.30,-0.59,
2.016,-0.01,0.25,0.98,-0.24,0.24,-0.32,
2.017,-0.01,0.25,1.01,-0.24,0.24,-0.32,
2.018,-0.02,0.25,1.02,-0.24,0.24,-0.32,
2.018,-0.02,0.25,1.02,-0.12,0.15,0.09,
2.02,-0.03,0.25,1.04,-0.12,0.15,0.09,
2.024,-0.03,0.25,1.04,-0.17,0.12,0.53,
2.024,-0.03,0.26,1.04,-0.17,0.12,0.53,
2.025,-0.03,0.26,1.03,-0.17,0.12,0.53,
2.037,-0.03,0.26,1.02,-0.17,0.12,0.53,
2.038,-0.03,0.26,1.02,-0.27,0.16,0.79,
2.038,-0.03,0.26,1.00,-0.27,0.16,0.79,
2.038,-0.04,0.26,0.99,-0.27,0.16,0.79,
2.039,-0.04,0.26,0.99,-0.28,0.21,0.65,
2.039,-0.04,0.26,0.98,-0.28,0.21,0.65,
2.039,-0.03,0.26,0.97,-0.28,0.21,0.65,
2.04,-0.03,0.26,0.97,-0.33,0.22,0.34,
2.04,-0.03,0.26,0.96,-0.33,0.22,0.34,
2.053,-0.04,0.26,0.95,-0.33,0.22,0.34,
2.054,-0.04,0.26,0.95,-0.34,0.21,0.10,
2.054,-0.04,0.27,0.95,-0.34,0.21,0.10,
2.054,-0.04,0.27,0.95,-0.34,0.22,-0.05,
2.054,-0.04,0.27,0.94,-0.34,0.22,-0.05,
2.054,-0.04,0.27,0.93,-0.34,0.22,-0.05,
2.055,-0.04,0.27,0.93,-0.34,0.22,-0.05,
2.055,-0.04,0.27,0.93,-0.36,0.25,-0.19,
2.055,-0.04,0.27,0.94,-0.36,0.25,-0.19,
