
time,gFx,gFy,gFz,ax,ay,az,
0.003,-0.09,-0.03,0.94,-0.24,-0.20,-0.78,
0.003,-0.09,-0.03,0.94,-0.46,-0.19,-0.66,
0.003,-0.09,-0.03,0.95,-0.46,-0.19,-0.66,
0.003,-0.09,-0.03,0.95,-0.46,-0.19,-0.66,
0.003,-0.09,-0.03,0.95,-0.46,-0.19,-0.66,
0.003,-0.09,-0.03,0.95,-0.56,-0.11,-0.53,
0.009,-0.08,-0.03,0.94,-0.56,-0.11,-0.53,
0.009,-0.08,-0.03,0.94,-0.57,-0.10,-0.49,
0.01,-0.07,-0.03,0.93,-0.57,-0.10,-0.49,
0.012,-0.06,-0.03,0.92,-0.57,-0.10,-0.49,
0.014,-0.06,-0.03,0.92,-0.43,-0.05,-0.61,
0.015,-0.04,-0.03,0.92,-0.43,-0.05,-0.61,
0.016,-0.03,-0.03,0.91,-0.43,-0.05,-0.61,
0.018,-0.03,-0.03,0.91,-0.43,-0.05,-0.61,
0.019,-0.03,-0.03,0.91,-0.21,-0.04,-0.79,
0.033,-0.03,-0.03,0.90,-0.21,-0.04,-0.79,
0.033,-0.03,-0.03,0.90,-0.08,-0.05,-0.86,
0.034,-0.03,-0.04,0.90,-0.08,-0.05,-0.86,
0.034,-0.04,-0.05,0.91,-0.08,-0.05,-0.86,
0.034,-0.04,-0.06,0.91,-0.08,-0.05,-0.86,
0.034,-0.04,-0.06,0.91,-0.05,-0.09,-0.96,
0.034,-0.04,-0.06,0.93,-0.05,-0.09,-0.96,
0.035,-0.04,-0.06,0.93,-0.15,-0.23,-0.82,
0.035,-0.06,-0.07,0.96,-0.15,-0.23,-0.82,
0.036,-0.07,-0.07,0.98,-0.15,-0.23,-0.82,
0.047,-0.08,-0.07,1.00,-0.15,-0.23,-0.82,
0.048,-0.08,-0.07,1.00,-0.28,-0.30,-0.52,
0.048,-0.10,-0.07,1.02,-0.28,-0.30,-0.52,
0.049,-0.12,-0.08,1.02,-0.28,-0.30,-0.52,
0.049,-0.12,-0.08,1.02,-0.53,-0.35,-0.02,
0.049,-0.13,-0.07,1.02,-0.53,-0.35,-0.02,
0.049,-0.13,-0.07,1.02,-0.85,-0.34,0.23,
0.05,-0.13,-0.07,1.02,-0.85,-0.34,0.23,
0.052,-0.15,-0.06,1.02,-0.85,-0.34,0.23,
0.064,-0.15,-0.05,1.00,-0.85,-0.34,0.23,
0.064,-0.15,-0.05,1.00,-1.08,-0.24,0.24,
0.065,-0.16,-0.04,0.99,-1.08,-0.24,0.24,
0.065,-0.16,-0.03,0.96,-1.08,-0.24,0.24,
0.065,-0.16,-0.03,0.96,-1.27,-0.10,0.14,
0.065,-0.15,-0.02,0.92,-1.27,-0.10,0.14,
0.066,-0.16,-0.00,0.82,-1.27,-0.10,0.14,
0.066,-0.16,-0.00,0.82,-1.37,0.11,-0.23,
0.066,-0.13,0.04,0.71,-1.37,0.11,-0.23,
0.069,-0.10,0.05,0.70,-1.37,0.11,-0.23,
0.069,-0.10,0.05,0.70,-1.37,0.36,-1.25,
0.082,-0.08,0.07,0.68,-1.37,0.36,-1.25,
0.083,-0.04,0.09,0.66,-1.37,0.36,-1.25,
0.083,-0.04,0.09,0.66,-1.02,0.95,-2.80,
0.084,0.00,0.10,0.66,-1.02,0.95,-2.80,
0.084,0.04,0.09,0.71,-1.02,0.95,-2.80,
0.084,0.04,0.09,0.71,-0.57,1.32,-3.15,
0.084,0.06,0.08,0.77,-0.57,1.32,-3.15,
0.085,0.06,0.08,0.77,0.16,1.49,-2.95,
0.085,0.09,0.06,0.82,0.16,1.49,-2.95,
0.085,0.10,0.05,0.82,0.16,1.49,-2.95,
0.097,0.10,0.04,0.81,0.16,1.49,-2.95,
0.098,0.10,0.04,0.81,0.62,1.24,-1.83,
0.098,0.09,0.03,0.79,0.62,1.24,-1.83,
0.099,0.10,0.01,0.77,0.62,1.24,-1.83,
0.099,0.10,0.01,0.77,0.73,1.08,-1.66,
0.099,0.09,-0.01,0.75,0.73,1.08,-1.66,
0.1,0.09,-0.02,0.72,0.73,1.08,-1.66,
0.1,0.09,-0.02,0.72,0.66,0.86,-1.97,
0.1,0.10,-0.03,0.70,0.66,0.86,-1.97,
0.112,0.10,-0.05,0.68,0.66,0.86,-1.97,
0.113,0.10,-0.05,0.68,0.53,0.64,-2.40,
0.113,0.12,-0.06,0.67,0.53,0.64,-2.40,
0.113,0.13,-0.08,0.67,0.53,0.64,-2.40,
0.113,0.13,-0.08,0.67,0.55,0.48,-2.79,
0.114,0.14,-0.10,0.70,0.55,0.48,-2.79,
0.114,0.16,-0.12,0.72,0.55,0.48,-2.79,
0.114,0.16,-0.12,0.72,0.69,0.28,-2.94,
0.116,0.18,-0.12,0.74,0.69,0.28,-2.94,
0.118,0.19,-0.13,0.76,0.69,0.28,-2.94,
0.119,0.19,-0.13,0.76,0.86,0.02,-2.53,
0.132,0.20,-0.12,0.77,0.86,0.02,-2.53,
0.133,0.20,-0.12,0.77,1.06,-0.02,-2.09,
0.133,0.21,-0.12,0.76,1.06,-0.02,-2.09,
0.134,0.23,-0.11,0.75,1.06,-0.02,-2.09,
0.134,0.24,-0.11,0.74,1.06,-0.02,-2.09,
0.134,0.24,-0.11,0.74,1.19,0.13,-1.91,
0.134,0.24,-0.10,0.71,1.19,0.13,-1.91,
0.135,0.24,-0.10,0.71,1.32,0.35,-2.06,
0.135,0.24,-0.07,0.67,1.32,0.35,-2.06,
0.135,0.23,-0.04,0.62,1.32,0.35,-2.06,
0.145,0.23,-0.04,0.62,1.30,0.77,-2.53,
0.146,0.21,-0.04,0.56,1.30,0.77,-2.53,
0.146,0.19,-0.04,0.53,1.30,0.77,-2.53,
0.146,0.18,-0.05,0.50,1.30,0.77,-2.53,
0.146,0.18,-0.05,0.50,0.96,1.33,-3.45,
0.146,0.16,-0.06,0.46,0.96,1.33,-3.45,
0.148,0.16,-0.06,0.46,0.51,1.41,-4.16,
0.148,0.13,-0.09,0.40,0.51,1.41,-4.16,
0.15,0.11,-0.13,0.34,0.51,1.41,-4.16,
0.153,0.10,-0.17,0.29,0.51,1.41,-4.16,
0.153,0.10,-0.17,0.29,0.09,1.26,-4.90,
0.16,0.11,-0.21,0.26,0.09,1.26,-4.90,
0.16,0.12,-0.25,0.26,0.09,1.26,-4.90,
0.161,0.12,-0.25,0.26,-0.32,0.68,-5.90,
0.161,0.11,-0.31,0.25,-0.32,0.68,-5.90,
0.164,0.11,-0.37,0.22,-0.32,0.68,-5.90,
0.164,0.11,-0.37,0.22,-0.22,0.07,-6.37,
0.165,0.11,-0.41,0.22,-0.22,0.07,-6.37,
0.168,0.09,-0.45,0.22,-0.22,0.07,-6.37,
0.168,0.09,-0.45,0.22,-0.19,-0.75,-6.54,
0.179,0.11,-0.49,0.30,-0.19,-0.75,-6.54,
0.18,0.11,-0.49,0.30,-0.28,-1.47,-6.59,
0.18,0.17,-0.49,0.46,-0.28,-1.47,-6.59,
0.18,0.18,-0.43,0.50,-0.28,-1.47,-6.59,
0.18,0.15,-0.38,0.41,-0.28,-1.47,-6.59,
0.181,0.15,-0.38,0.41,0.17,-1.82,-4.92,
0.181,0.11,-0.37,0.39,0.17,-1.82,-4.92,
0.182,0.11,-0.34,0.42,0.17,-1.82,-4.92,
0.183,0.11,-0.34,0.42,0.50,-0.75,-4.06,
0.185,0.12,-0.33,0.49,0.50,-0.75,-4.06,
0.2,0.16,-0.33,0.60,0.50,-0.75,-4.06,
0.201,0.16,-0.33,0.60,-0.02,-0.06,-4.44,
0.201,0.20,-0.32,0.71,-0.02,-0.06,-4.44,
0.201,0.23,-0.33,0.80,-0.02,-0.06,-4.44,
0.201,0.23,-0.33,0.80,0.25,0.44,-2.97,
0.202,0.25,-0.35,0.87,0.25,0.44,-2.97,
0.202,0.25,-0.35,0.87,0.95,0.64,-0.82,
0.202,0.24,-0.39,0.95,0.95,0.64,-0.82,
0.202,0.20,-0.43,1.02,0.95,0.64,-0.82,
0.203,0.15,-0.47,1.08,0.95,0.64,-0.82,
0.203,0.15,-0.47,1.08,1.14,0.43,0.82,
0.212,0.09,-0.52,1.13,1.14,0.43,0.82,
0.212,0.03,-0.58,1.19,1.14,0.43,0.82,
0.213,0.03,-0.58,1.19,0.37,-0.13,2.30,
0.213,-0.01,-0.65,1.25,0.37,-0.13,2.30,
0.213,-0.05,-0.72,1.30,0.37,-0.13,2.30,
0.213,-0.05,-0.72,1.30,-0.84,-1.01,3.44,
0.214,-0.08,-0.80,1.36,-0.84,-1.01,3.44,
0.217,-0.10,-0.90,1.42,-0.84,-1.01,3.44,
0.218,-0.10,-0.90,1.42,-1.83,-2.13,4.66,
0.219,-0.12,-1.02,1.46,-1.83,-2.13,4.66,
0.235,-0.12,-1.02,1.46,-2.48,-3.60,5.81,
0.236,-0.13,-1.08,1.52,-2.48,-3.60,5.81,
0.236,-0.14,-1.07,1.63,-2.48,-3.60,5.81,
0.236,-0.16,-1.02,1.75,-2.48,-3.60,5.81,
0.237,-0.16,-1.02,1.75,-2.87,-5.44,6.80,
0.237,-0.16,-0.98,1.85,-2.87,-5.44,6.80,
0.237,-0.13,-0.93,1.92,-2.87,-5.44,6.80,
0.237,-0.13,-0.93,1.92,-3.24,-5.31,8.79,
0.238,-0.07,-0.87,1.97,-3.24,-5.31,8.79,
0.238,-0.00,-0.79,2.04,-3.24,-5.31,8.79,
0.238,-0.00,-0.79,2.04,-3.20,-4.28,10.70,
0.238,0.06,-0.71,2.10,-3.20,-4.28,10.70,
0.243,0.10,-0.65,2.13,-3.20,-4.28,10.70,
0.244,0.10,-0.65,2.13,-2.20,-3.06,11.85,
0.244,0.12,-0.61,2.14,-2.20,-3.06,11.85,
0.248,0.12,-0.61,2.14,-1.09,-1.55,12.85,
0.248,0.14,-0.60,2.13,-1.09,-1.55,12.85,
0.25,0.15,-0.61,2.09,-1.09,-1.55,12.85,
0.252,0.15,-0.64,2.04,-1.09,-1.55,12.85,
0.252,0.15,-0.64,2.04,-0.50,-0.83,12.89,
0.256,0.14,-0.67,1.98,-0.50,-0.83,12.89,
0.257,0.12,-0.69,1.90,-0.50,-0.83,12.89,
0.257,0.12,-0.69,1.90,-0.23,-1.10,12.14,
0.259,0.10,-0.72,1.82,-0.23,-1.10,12.14,
0.262,0.09,-0.73,1.73,-0.23,-1.10,12.14,
0.262,0.09,-0.73,1.73,-0.28,-1.75,10.74,
0.264,0.08,-0.72,1.64,-0.28,-1.75,10.74,
0.267,0.09,-0.72,1.52,-0.28,-1.75,10.74,
0.267,0.09,-0.72,1.52,-0.49,-2.26,8.93,
0.269,0.11,-0.71,1.41,-0.49,-2.26,8.93,
0.272,0.11,-0.71,1.41,-0.38,-2.40,6.90,
0.272,0.12,-0.71,1.30,-0.38,-2.40,6.90,
0.274,0.14,-0.70,1.20,-0.38,-2.40,6.90,
0.277,0.17,-0.69,1.10,-0.38,-2.40,6.90,
0.277,0.17,-0.69,1.10,0.08,-2.46,4.57,
0.279,0.21,-0.68,1.02,0.08,-2.46,4.57,
0.281,0.24,-0.66,0.95,0.08,-2.46,4.57,
0.281,0.24,-0.66,0.95,0.68,-2.49,2.40,
0.284,0.29,-0.64,0.90,0.68,-2.49,2.40,
0.287,0.34,-0.61,0.85,0.68,-2.49,2.40,
0.287,0.34,-0.61,0.85,1.54,-2.42,0.67,
0.294,0.39,-0.57,0.80,1.54,-2.42,0.67,
0.294,0.43,-0.52,0.74,1.54,-2.42,0.67,
0.295,0.43,-0.52,0.74,2.58,-2.16,-0.51,
0.295,0.45,-0.46,0.70,2.58,-2.16,-0.51,
0.296,0.45,-0.46,0.70,3.64,-1.48,-1.60,
0.297,0.46,-0.42,0.64,3.64,-1.48,-1.60,
0.298,0.47,-0.40,0.59,3.64,-1.48,-1.60,
0.301,0.46,-0.40,0.56,3.64,-1.48,-1.60,
0.301,0.46,-0.40,0.56,4.23,-0.68,-2.64,
0.304,0.45,-0.40,0.53,4.23,-0.68,-2.64,
0.306,0.44,-0.41,0.53,4.23,-0.68,-2.64,
0.307,0.44,-0.41,0.53,4.38,-0.40,-3.61,
0.309,0.41,-0.40,0.53,4.38,-0.40,-3.61,
0.311,0.40,-0.40,0.53,4.38,-0.40,-3.61,
0.311,0.40,-0.40,0.53,4.22,-0.54,-4.06,
0.313,0.36,-0.39,0.55,4.22,-0.54,-4.06,
0.316,0.34,-0.40,0.58,4.22,-0.54,-4.06,
0.316,0.34,-0.40,0.58,3.83,-0.63,-4.08,
0.319,0.31,-0.40,0.60,3.83,-0.63,-4.08,
0.322,0.31,-0.40,0.60,3.29,-0.66,-3.78,
0.322,0.27,-0.40,0.64,3.29,-0.66,-3.78,
0.322,0.23,-0.40,0.70,3.29,-0.66,-3.78,
0.327,0.21,-0.40,0.74,3.29,-0.66,-3.78,
0.331,0.21,-0.40,0.74,2.64,-0.75,-3.19,
0.331,0.18,-0.39,0.80,2.64,-0.75,-3.19,
0.331,0.15,-0.39,0.86,2.64,-0.75,-3.19,
0.332,0.15,-0.39,0.86,1.94,-0.81,-2.24,
0.332,0.12,-0.39,0.93,1.94,-0.81,-2.24,
0.336,0.10,-0.38,0.99,1.94,-0.81,-2.24,
0.337,0.10,-0.38,0.99,1.35,-0.76,-1.13,
0.338,0.08,-0.38,1.06,1.35,-0.76,-1.13,
0.343,0.07,-0.37,1.11,1.35,-0.76,-1.13,
0.343,0.07,-0.37,1.11,0.81,-0.72,0.11,
0.343,0.06,-0.36,1.17,0.81,-0.72,0.11,
0.345,0.06,-0.36,1.17,0.40,-0.66,1.28,
0.345,0.05,-0.35,1.22,0.40,-0.66,1.28,
0.347,0.06,-0.35,1.25,0.40,-0.66,1.28,
0.35,0.06,-0.34,1.28,0.40,-0.66,1.28,
0.351,0.06,-0.34,1.28,0.23,-0.50,2.34,
0.353,0.06,-0.34,1.32,0.23,-0.50,2.34,
0.355,0.07,-0.34,1.34,0.23,-0.50,2.34,
0.355,0.07,-0.34,1.34,0.26,-0.42,3.02,
0.358,0.08,-0.34,1.36,0.26,-0.42,3.02,
0.36,0.09,-0.34,1.38,0.26,-0.42,3.02,
0.361,0.09,-0.34,1.38,0.35,-0.41,3.60,
0.362,0.10,-0.34,1.38,0.35,-0.41,3.60,
0.366,0.10,-0.33,1.38,0.35,-0.41,3.60,
0.366,0.10,-0.33,1.38,0.62,-0.47,3.97,
0.368,0.11,-0.33,1.37,0.62,-0.47,3.97,
0.372,0.11,-0.33,1.36,0.62,-0.47,3.97,
0.372,0.11,-0.33,1.36,0.81,-0.47,4.05,
0.373,0.11,-0.34,1.34,0.81,-0.47,4.05,
0.375,0.11,-0.34,1.32,0.81,-0.47,4.05,
0.376,0.11,-0.34,1.32,0.96,-0.51,3.85,
0.378,0.12,-0.34,1.29,0.96,-0.51,3.85,
0.38,0.12,-0.34,1.26,0.96,-0.51,3.85,
0.381,0.12,-0.34,1.26,1.09,-0.65,3.44,
0.383,0.12,-0.34,1.23,1.09,-0.65,3.44,
0.386,0.12,-0.34,1.21,1.09,-0.65,3.44,
0.386,0.12,-0.34,1.21,1.29,-0.77,2.88,
0.388,0.11,-0.33,1.19,1.29,-0.77,2.88,
0.39,0.10,-0.34,1.17,1.29,-0.77,2.88,
0.391,0.10,-0.34,1.17,1.46,-0.83,2.30,
0.392,0.08,-0.35,1.14,1.46,-0.83,2.30,
0.396,0.08,-0.35,1.14,1.40,-0.94,1.87,
0.396,0.06,-0.35,1.12,1.40,-0.94,1.87,
0.398,0.05,-0.36,1.10,1.40,-0.94,1.87,
0.401,0.05,-0.36,1.10,1.21,-1.19,1.37,
0.401,0.04,-0.36,1.08,1.21,-1.19,1.37,
0.403,0.04,-0.35,1.07,1.21,-1.19,1.37,
0.409,0.03,-0.34,1.05,1.21,-1.19,1.37,
0.41,0.03,-0.34,1.05,1.07,-1.36,0.97,
0.41,0.03,-0.32,1.04,1.07,-1.36,0.97,
0.41,0.03,-0.31,1.04,1.07,-1.36,0.97,
0.411,0.03,-0.31,1.04,1.10,-1.32,0.62,
0.412,0.04,-0.29,1.03,1.10,-1.32,0.62,
0.415,0.04,-0.27,1.02,1.10,-1.32,0.62,
0.415,0.04,-0.27,1.02,1.20,-1.15,0.45,
0.417,0.04,-0.25,1.02,1.20,-1.15,0.45,
0.42,0.04,-0.25,1.02,1.38,-0.87,0.30,
0.42,0.03,-0.24,1.02,1.38,-0.87,0.30,
0.423,0.02,-0.22,1.02,1.38,-0.87,0.30,
0.425,0.00,-0.21,1.02,1.38,-0.87,0.30,
0.426,0.00,-0.21,1.02,1.40,-0.63,0.22,
0.427,-0.02,-0.21,1.01,1.40,-0.63,0.22,
0.43,-0.04,-0.21,1.01,1.40,-0.63,0.22,
0.43,-0.04,-0.21,1.01,1.26,-0.48,0.21,
0.432,-0.06,-0.21,1.00,1.26,-0.48,0.21,
0.435,-0.09,-0.22,0.99,1.26,-0.48,0.21,
0.435,-0.09,-0.22,0.99,0.96,-0.53,0.10,
0.439,-0.11,-0.21,0.99,0.96,-0.53,0.10,
0.44,-0.13,-0.20,0.98,0.96,-0.53,0.10,
0.44,-0.13,-0.20,0.98,0.59,-0.62,-0.02,
0.443,-0.14,-0.19,0.97,0.59,-0.62,-0.02,
0.445,-0.14,-0.19,0.97,0.23,-0.65,-0.15,
0.445,-0.16,-0.18,0.96,0.23,-0.65,-0.15,
0.447,-0.17,-0.18,0.94,0.23,-0.65,-0.15,
0.45,-0.18,-0.17,0.93,0.23,-0.65,-0.15,
0.45,-0.18,-0.17,0.93,-0.05,-0.54,-0.35,
0.452,-0.18,-0.16,0.91,-0.05,-0.54,-0.35,
0.456,-0.18,-0.16,0.89,-0.05,-0.54,-0.35,
0.456,-0.18,-0.16,0.89,-0.24,-0.48,-0.69,
0.456,-0.18,-0.15,0.90,-0.24,-0.48,-0.69,
0.46,-0.17,-0.14,0.89,-0.24,-0.48,-0.69,
0.46,-0.17,-0.14,0.89,-0.22,-0.46,-0.95,
0.461,-0.17,-0.13,0.89,-0.22,-0.46,-0.95,
0.464,-0.16,-0.11,0.89,-0.22,-0.46,-0.95,
0.464,-0.16,-0.11,0.89,-0.16,-0.34,-1.07,
0.466,-0.15,-0.09,0.87,-0.16,-0.34,-1.07,
0.469,-0.15,-0.09,0.87,-0.02,-0.17,-1.10,
0.47,-0.15,-0.07,0.87,-0.02,-0.17,-1.10,
0.472,-0.14,-0.06,0.87,-0.02,-0.17,-1.10,
0.474,-0.13,-0.05,0.87,-0.02,-0.17,-1.10,
0.474,-0.13,-0.05,0.87,0.15,0.14,-1.25,
0.476,-0.14,-0.05,0.88,0.15,0.14,-1.25,
0.479,-0.14,-0.06,0.88,0.15,0.14,-1.25,
0.48,-0.14,-0.06,0.88,0.25,0.33,-1.30,
0.481,-0.14,-0.07,0.88,0.25,0.33,-1.30,
0.483,-0.14,-0.07,0.89,0.25,0.33,-1.30,
0.484,-0.14,-0.07,0.89,0.24,0.30,-1.18,
0.486,-0.14,-0.07,0.90,0.24,0.30,-1.18,
0.488,-0.14,-0.07,0.92,0.24,0.30,-1.18,
0.489,-0.14,-0.07,0.92,0.22,0.10,-1.10,
0.492,-0.14,-0.07,0.94,0.22,0.10,-1.10,
0.494,-0.14,-0.07,0.94,0.20,0.05,-0.85,
0.494,-0.14,-0.07,0.95,0.20,0.05,-0.85,
0.496,-0.14,-0.07,0.96,0.20,0.05,-0.85,
0.498,-0.15,-0.07,0.98,0.20,0.05,-0.85,
0.499,-0.15,-0.07,0.98,0.18,0.02,-0.54,
0.501,-0.15,-0.07,1.00,0.18,0.02,-0.54,
0.512,-0.16,-0.07,1.01,0.18,0.02,-0.54,
0.513,-0.16,-0.07,1.01,0.14,0.03,-0.28,
0.513,-0.17,-0.07,1.02,0.14,0.03,-0.28,
0.514,-0.17,-0.08,1.03,0.14,0.03,-0.28,
0.514,-0.17,-0.08,1.03,-0.03,0.01,-0.00,
0.514,-0.18,-0.08,1.04,-0.03,0.01,-0.00,
0.515,-0.18,-0.08,1.05,-0.03,0.01,-0.00,
0.515,-0.18,-0.08,1.05,-0.18,-0.11,0.26,
0.515,-0.18,-0.08,1.05,-0.18,-0.11,0.26,
0.518,-0.18,-0.08,1.05,-0.30,-0.18,0.39,
0.519,-0.18,-0.08,1.05,-0.30,-0.18,0.39,
0.526,-0.18,-0.08,1.06,-0.30,-0.18,0.39,
0.526,-0.18,-0.08,1.06,-0.33,-0.25,0.45,
0.527,-0.18,-0.07,1.07,-0.33,-0.25,0.45,
0.527,-0.18,-0.06,1.08,-0.33,-0.25,0.45,
0.529,-0.18,-0.06,1.08,-0.32,-0.21,0.59,
0.529,-0.18,-0.05,1.08,-0.32,-0.21,0.59,
0.53,-0.19,-0.05,1.09,-0.32,-0.21,0.59,
0.533,-0.20,-0.04,1.09,-0.32,-0.21,0.59,
0.533,-0.20,-0.04,1.09,-0.39,-0.03,0.72,
0.535,-0.21,-0.05,1.10,-0.39,-0.03,0.72,
0.538,-0.22,-0.05,1.10,-0.39,-0.03,0.72,
0.539,-0.22,-0.05,1.10,-0.60,0.00,0.81,
0.54,-0.24,-0.05,1.10,-0.60,0.00,0.81,
0.543,-0.24,-0.05,1.10,-0.83,-0.08,0.89,
0.543,-0.24,-0.04,1.11,-0.83,-0.08,0.89,
0.545,-0.25,-0.03,1.12,-0.83,-0.08,0.89,
0.548,-0.25,-0.02,1.11,-0.83,-0.08,0.89,
0.548,-0.25,-0.02,1.11,-1.07,-0.03,0.96,
0.55,-0.25,-0.01,1.11,-1.07,-0.03,0.96,
0.553,-0.26,-0.01,1.11,-1.07,-0.03,0.96,
0.553,-0.26,-0.01,1.11,-1.19,0.10,1.03,
0.555,-0.27,-0.00,1.10,-1.19,0.10,1.03,
0.558,-0.27,-0.01,1.10,-1.19,0.10,1.03,
0.558,-0.27,-0.01,1.10,-1.26,0.18,1.00,
0.56,-0.28,-0.01,1.09,-1.26,0.18,1.00,
0.563,-0.29,-0.01,1.08,-1.26,0.18,1.00,
0.563,-0.29,-0.01,1.08,-1.40,0.15,0.91,
0.565,-0.31,-0.02,1.07,-1.40,0.15,0.91,
0.568,-0.31,-0.02,1.07,-1.55,0.04,0.75,
0.568,-0.31,-0.02,1.07,-1.55,0.04,0.75,
0.573,-0.32,-0.02,1.05,-1.55,0.04,0.75,
0.573,-0.33,-0.01,1.04,-1.55,0.04,0.75,
0.574,-0.33,-0.01,1.04,-1.75,-0.10,0.56,
0.575,-0.33,-0.01,1.02,-1.75,-0.10,0.56,
0.578,-0.33,-0.01,1.01,-1.75,-0.10,0.56,
0.579,-0.33,-0.01,1.01,-1.86,-0.12,0.32,
0.581,-0.33,-0.01,0.99,-1.86,-0.12,0.32,
0.582,-0.33,-0.01,0.96,-1.86,-0.12,0.32,
0.583,-0.33,-0.01,0.96,-1.93,-0.13,0.02,
0.585,-0.32,-0.02,0.95,-1.93,-0.13,0.02,
0.588,-0.32,-0.01,0.94,-1.93,-0.13,0.02,
0.588,-0.32,-0.01,0.94,-1.89,-0.18,-0.36,
0.591,-0.31,-0.01,0.92,-1.89,-0.18,-0.36,
0.593,-0.31,-0.01,0.92,-1.83,-0.30,-0.67,
0.593,-0.29,-0.00,0.91,-1.83,-0.30,-0.67,
0.595,-0.28,0.00,0.89,-1.83,-0.30,-0.67,
0.598,-0.25,0.01,0.88,-1.83,-0.30,-0.67,
0.598,-0.25,0.01,0.88,-1.65,-0.25,-0.95,
0.6,-0.23,0.02,0.87,-1.65,-0.25,-0.95,
0.602,-0.21,0.03,0.86,-1.65,-0.25,-0.95,
0.603,-0.21,0.03,0.86,-1.31,-0.19,-1.24,
0.614,-0.18,0.04,0.84,-1.31,-0.19,-1.24,
0.615,-0.16,0.05,0.83,-1.31,-0.19,-1.24,
0.616,-0.16,0.05,0.83,-0.89,-0.06,-1.46,
0.616,-0.15,0.05,0.81,-0.89,-0.06,-1.46,
0.617,-0.14,0.06,0.80,-0.89,-0.06,-1.46,
0.618,-0.14,0.06,0.80,-0.48,0.08,-1.72,
0.618,-0.13,0.07,0.79,-0.48,0.08,-1.72,
0.619,-0.13,0.07,0.79,-0.23,0.15,-1.98,
0.62,-0.14,0.08,0.78,-0.23,0.15,-1.98,
0.62,-0.14,0.08,0.78,-0.23,0.15,-1.98,
0.631,-0.15,0.08,0.79,-0.23,0.15,-1.98,
0.632,-0.15,0.08,0.79,-0.18,0.22,-2.20,
0.633,-0.16,0.07,0.80,-0.18,0.22,-2.20,
0.633,-0.16,0.07,0.80,-0.18,0.22,-2.20,
0.634,-0.16,0.07,0.80,-0.34,0.24,-2.20,
0.634,-0.17,0.07,0.82,-0.34,0.24,-2.20,
0.635,-0.17,0.07,0.83,-0.34,0.24,-2.20,
0.635,-0.17,0.07,0.83,-0.51,0.14,-2.04,
0.636,-0.18,0.06,0.84,-0.51,0.14,-2.04,
0.639,-0.17,0.06,0.86,-0.51,0.14,-2.04,
0.64,-0.17,0.06,0.86,-0.69,0.07,-1.80,
0.64,-0.15,0.06,0.89,-0.69,0.07,-1.80,
0.642,-0.15,0.06,0.89,-0.73,0.01,-1.51,
0.642,-0.15,0.06,0.90,-0.73,0.01,-1.51,
0.644,-0.15,0.07,0.91,-0.73,0.01,-1.51,
0.647,-0.15,0.06,0.92,-0.73,0.01,-1.51,
0.647,-0.15,0.06,0.92,-0.59,0.01,-1.08,
0.649,-0.14,0.07,0.93,-0.59,0.01,-1.08,
0.652,-0.14,0.07,0.93,-0.59,0.01,-1.08,
0.652,-0.14,0.07,0.93,-0.62,-0.00,-0.86,
0.655,-0.13,0.07,0.93,-0.62,-0.00,-0.86,
0.66,-0.13,0.08,0.93,-0.62,-0.00,-0.86,
0.66,-0.13,0.08,0.93,-0.57,0.05,-0.76,
0.661,-0.12,0.08,0.92,-0.57,0.05,-0.76,
0.662,-0.11,0.08,0.92,-0.57,0.05,-0.76,
0.662,-0.11,0.08,0.92,-0.57,0.07,-0.74,
0.664,-0.10,0.08,0.92,-0.57,0.07,-0.74,
0.667,-0.10,0.08,0.92,-0.50,0.14,-0.84,
0.667,-0.09,0.09,0.91,-0.50,0.14,-0.84,
0.669,-0.08,0.09,0.91,-0.50,0.14,-0.84,
0.674,-0.08,0.09,0.91,-0.50,0.14,-0.84,
0.675,-0.08,0.09,0.91,-0.38,0.16,-0.91,
0.675,-0.06,0.10,0.91,-0.38,0.16,-0.91,
0.678,-0.05,0.11,0.90,-0.38,0.16,-0.91,
0.678,-0.05,0.11,0.90,-0.26,0.16,-0.96,
0.68,-0.04,0.11,0.90,-0.26,0.16,-0.96,
0.682,-0.03,0.11,0.89,-0.26,0.16,-0.96,
0.683,-0.03,0.11,0.89,-0.10,0.28,-0.99,
0.688,-0.04,0.11,0.89,-0.10,0.28,-0.99,
0.688,-0.04,0.11,0.87,-0.10,0.28,-0.99,
0.688,-0.04,0.11,0.87,0.06,0.38,-1.11,
0.69,-0.04,0.11,0.87,0.06,0.38,-1.11,
0.692,-0.04,0.11,0.87,-0.01,0.35,-1.24,
0.692,-0.04,0.10,0.86,-0.01,0.35,-1.24,
0.695,-0.04,0.09,0.85,-0.01,0.35,-1.24,
0.697,-0.04,0.09,0.85,-0.09,0.27,-1.37,
0.697,-0.04,0.08,0.85,-0.09,0.27,-1.37,
0.7,-0.04,0.08,0.86,-0.09,0.27,-1.37,
0.702,-0.03,0.08,0.86,-0.09,0.27,-1.37,
0.702,-0.03,0.08,0.86,-0.11,0.12,-1.48,
0.705,-0.03,0.08,0.86,-0.11,0.12,-1.48,
0.706,-0.03,0.08,0.87,-0.11,0.12,-1.48,
0.706,-0.03,0.08,0.87,-0.12,0.02,-1.39,
0.71,-0.03,0.08,0.87,-0.12,0.02,-1.39,
0.712,-0.02,0.08,0.87,-0.12,0.02,-1.39,
0.712,-0.02,0.08,0.87,-0.08,0.07,-1.36,
0.715,-0.02,0.08,0.88,-0.08,0.07,-1.36,
0.717,-0.02,0.08,0.88,-0.11,0.09,-1.30,
0.717,-0.01,0.08,0.88,-0.11,0.09,-1.30,
0.719,-0.01,0.08,0.89,-0.11,0.09,-1.30,
0.729,-0.00,0.07,0.90,-0.11,0.09,-1.30,
0.73,-0.00,0.07,0.90,-0.08,0.09,-1.18,
0.73,0.00,0.07,0.91,-0.08,0.09,-1.18,
0.73,0.00,0.07,0.92,-0.08,0.09,-1.18,
0.731,0.00,0.07,0.92,-0.03,0.04,-1.03,
0.731,-0.00,0.06,0.94,-0.03,0.04,-1.03,
0.732,-0.01,0.05,0.95,-0.03,0.04,-1.03,
0.732,-0.01,0.05,0.95,-0.04,-0.04,-0.85,
0.734,-0.02,0.05,0.97,-0.04,-0.04,-0.85,
0.736,-0.02,0.05,0.97,-0.04,-0.04,-0.85,
0.737,-0.02,0.05,0.97,-0.14,-0.14,-0.58,
0.739,-0.03,0.06,0.98,-0.14,-0.14,-0.58,
0.742,-0.03,0.06,0.98,-0.35,-0.13,-0.31,
0.742,-0.03,0.06,0.99,-0.35,-0.13,-0.31,
0.743,-0.04,0.06,1.00,-0.35,-0.13,-0.31,
0.746,-0.04,0.07,0.99,-0.35,-0.13,-0.31,
0.747,-0.04,0.07,0.99,-0.51,-0.06,-0.18,
0.749,-0.03,0.07,0.98,-0.51,-0.06,-0.18,
0.752,-0.03,0.07,0.98,-0.51,-0.06,-0.18,
0.752,-0.03,0.07,0.98,-0.64,0.01,-0.09,
0.754,-0.03,0.07,0.98,-0.64,0.01,-0.09,
0.756,-0.03,0.07,0.97,-0.64,0.01,-0.09,
0.756,-0.03,0.07,0.97,-0.66,0.10,-0.21,
0.759,-0.02,0.07,0.96,-0.66,0.10,-0.21,
0.761,-0.01,0.07,0.95,-0.66,0.10,-0.21,
0.762,-0.01,0.07,0.95,-0.67,0.08,-0.29,
0.764,0.00,0.08,0.95,-0.67,0.08,-0.29,
0.767,0.00,0.08,0.95,-0.57,0.09,-0.46,
0.768,0.02,0.08,0.94,-0.57,0.09,-0.46,
0.77,0.04,0.09,0.93,-0.57,0.09,-0.46,
0.772,0.06,0.09,0.92,-0.57,0.09,-0.46,
0.772,0.06,0.09,0.92,-0.38,0.19,-0.58,
0.775,0.08,0.10,0.91,-0.38,0.19,-0.58,
0.777,0.09,0.09,0.92,-0.38,0.19,-0.58,
0.778,0.09,0.09,0.92,-0.04,0.32,-0.72,
0.779,0.10,0.08,0.92,-0.04,0.32,-0.72,
0.782,0.10,0.08,0.92,-0.04,0.32,-0.72,
0.782,0.10,0.08,0.92,0.26,0.35,-0.83,
0.784,0.10,0.07,0.92,0.26,0.35,-0.83,
0.787,0.09,0.06,0.93,0.26,0.35,-0.83,
0.787,0.09,0.06,0.93,0.34,0.21,-0.83,
0.788,0.08,0.06,0.93,0.34,0.21,-0.83,
0.791,0.08,0.06,0.93,0.27,0.06,-0.75,
0.791,0.07,0.05,0.94,0.27,0.06,-0.75,
0.794,0.07,0.05,0.95,0.27,0.06,-0.75,
0.796,0.06,0.05,0.96,0.27,0.06,-0.75,
0.796,0.06,0.05,0.96,0.05,-0.02,-0.64,
0.799,0.06,0.05,0.97,0.05,-0.02,-0.64,
0.802,0.06,0.05,0.97,-0.06,-0.05,-0.45,
0.802,0.06,0.05,0.97,-0.06,-0.05,-0.45,
0.804,0.07,0.05,0.98,-0.06,-0.05,-0.45,
0.812,0.07,0.05,0.98,-0.13,-0.02,-0.29,
0.812,0.07,0.05,0.99,-0.13,-0.02,-0.29,
0.812,0.08,0.05,0.99,-0.13,-0.02,-0.29,
0.813,0.09,0.04,0.98,-0.13,-0.02,-0.29,
0.813,0.09,0.04,0.98,-0.07,-0.03,-0.15,
0.813,0.09,0.05,0.99,-0.07,-0.03,-0.15,
0.816,0.09,0.05,0.99,0.06,-0.06,-0.12,
0.816,0.10,0.05,0.99,0.06,-0.06,-0.12,
0.818,0.12,0.04,0.99,0.06,-0.06,-0.12,
0.821,0.13,0.05,1.00,0.06,-0.06,-0.12,
0.824,0.13,0.05,1.00,0.15,-0.03,-0.08,
0.824,0.14,0.04,0.99,0.15,-0.03,-0.08,
0.827,0.16,0.04,0.98,0.15,-0.03,-0.08,
0.828,0.16,0.04,0.98,0.36,-0.02,-0.04,
0.828,0.17,0.04,0.98,0.36,-0.02,-0.04,
0.831,0.18,0.04,0.98,0.36,-0.02,-0.04,
0.832,0.18,0.04,0.98,0.60,-0.06,-0.11,
0.833,0.19,0.04,0.98,0.60,-0.06,-0.11,
0.836,0.20,0.04,0.97,0.60,-0.06,-0.11,
0.836,0.20,0.04,0.97,0.84,-0.02,-0.15,
0.838,0.20,0.04,0.97,0.84,-0.02,-0.15,
0.84,0.20,0.04,0.97,0.94,-0.05,-0.21,
0.841,0.20,0.04,0.97,0.94,-0.05,-0.21,
0.844,0.20,0.04,0.97,0.94,-0.05,-0.21,
0.846,0.19,0.04,0.98,0.94,-0.05,-0.21,
0.846,0.19,0.04,0.98,1.03,-0.06,-0.25,
0.848,0.17,0.04,0.99,1.03,-0.06,-0.25,
0.851,0.15,0.03,1.00,1.03,-0.06,-0.25,
0.851,0.15,0.03,1.00,0.94,-0.07,-0.21,
0.853,0.13,0.03,1.01,0.94,-0.07,-0.21,
0.857,0.11,0.03,1.02,0.94,-0.07,-0.21,
0.858,0.11,0.03,1.02,0.59,-0.08,-0.01,
0.858,0.10,0.02,1.02,0.59,-0.08,-0.01,
0.861,0.10,0.03,1.03,0.59,-0.08,-0.01,
0.861,0.10,0.03,1.03,0.20,-0.12,0.18,
0.863,0.10,0.03,1.04,0.20,-0.12,0.18,
0.866,0.10,0.03,1.04,-0.01,-0.15,0.28,
0.866,0.09,0.03,1.04,-0.01,-0.15,0.28,
0.868,0.09,0.02,1.05,-0.01,-0.15,0.28,
0.871,0.09,0.02,1.05,-0.07,-0.13,0.44,
0.871,0.10,0.01,1.06,-0.07,-0.13,0.44,
0.875,0.09,0.01,1.07,-0.07,-0.13,0.44,
0.875,0.08,0.00,1.07,-0.07,-0.13,0.44,
0.876,0.08,0.00,1.07,-0.04,-0.24,0.58,
0.878,0.09,0.00,1.08,-0.04,-0.24,0.58,
0.881,0.08,-0.00,1.09,-0.04,-0.24,0.58,
0.881,0.08,-0.00,1.09,-0.12,-0.35,0.73,
0.883,0.08,0.00,1.09,-0.12,-0.35,0.73,
0.886,0.08,0.00,1.09,-0.12,-0.35,0.73,
0.886,0.08,0.00,1.09,-0.15,-0.36,0.84,
0.888,0.07,0.00,1.09,-0.15,-0.36,0.84,
0.891,0.07,0.01,1.09,-0.15,-0.36,0.84,
0.891,0.07,0.01,1.09,-0.22,-0.36,0.89,
0.893,0.06,0.01,1.09,-0.22,-0.36,0.89,
0.895,0.05,0.01,1.08,-0.22,-0.36,0.89,
0.895,0.05,0.01,1.08,-0.31,-0.33,0.91,
0.897,0.06,0.02,1.07,-0.31,-0.33,0.91,
0.901,0.05,0.02,1.07,-0.31,-0.33,0.91,
0.901,0.05,0.02,1.07,-0.44,-0.31,0.85,
0.903,0.05,0.02,1.06,-0.44,-0.31,0.85,
0.905,0.05,0.03,1.05,-0.44,-0.31,0.85,
0.906,0.05,0.03,1.05,-0.47,-0.21,0.71,
0.909,0.05,0.04,1.05,-0.47,-0.21,0.71,
0.91,0.05,0.04,1.04,-0.47,-0.21,0.71,
0.91,0.05,0.04,1.04,-0.50,-0.15,0.55,
0.912,0.05,0.04,1.03,-0.50,-0.15,0.55,
0.915,0.05,0.04,1.03,-0.52,-0.06,0.47,
0.916,0.05,0.04,1.02,-0.52,-0.06,0.47,
0.918,0.05,0.05,1.01,-0.52,-0.06,0.47,
0.92,0.05,0.05,1.00,-0.52,-0.06,0.47,
0.921,0.05,0.05,1.00,-0.50,-0.04,0.27,
0.923,0.05,0.05,0.98,-0.50,-0.04,0.27,
0.926,0.05,0.05,0.98,-0.45,0.04,0.02,
0.926,0.05,0.06,0.97,-0.45,0.04,0.02,
0.928,0.06,0.06,0.97,-0.45,0.04,0.02,
0.93,0.06,0.06,0.96,-0.45,0.04,0.02,
0.93,0.06,0.06,0.96,-0.44,0.12,-0.23,
0.932,0.06,0.06,0.95,-0.44,0.12,-0.23,
0.935,0.06,0.06,0.95,-0.38,0.14,-0.35,
0.936,0.06,0.07,0.94,-0.38,0.14,-0.35,
0.936,0.07,0.07,0.94,-0.38,0.14,-0.35,
0.946,0.07,0.07,0.94,-0.33,0.16,-0.51,
0.947,0.08,0.06,0.93,-0.33,0.16,-0.51,
0.948,0.08,0.06,0.92,-0.33,0.16,-0.51,
0.948,0.08,0.06,0.92,-0.20,0.13,-0.63,
0.948,0.08,0.06,0.92,-0.20,0.13,-0.63,
0.949,0.08,0.05,0.92,-0.20,0.13,-0.63,
0.949,0.07,0.06,0.91,-0.20,0.13,-0.63,
0.95,0.07,0.06,0.91,-0.13,0.06,-0.76,
0.951,0.07,0.06,0.91,-0.13,0.06,-0.76,
0.954,0.07,0.06,0.91,-0.13,0.06,-0.76,
0.954,0.07,0.06,0.91,-0.19,0.02,-0.82,
0.96,0.07,0.06,0.91,-0.19,0.02,-0.82,
0.96,0.07,0.05,0.91,-0.19,0.02,-0.82,
0.96,0.07,0.05,0.91,-0.24,0.03,-0.84,
0.961,0.06,0.05,0.92,-0.24,0.03,-0.84,
0.964,0.06,0.05,0.92,-0.25,0.00,-0.84,
0.964,0.06,0.05,0.91,-0.25,0.00,-0.84,
0.966,0.06,0.05,0.92,-0.25,0.00,-0.84,
0.969,0.05,0.05,0.92,-0.25,0.00,-0.84,
0.969,0.05,0.05,0.92,-0.26,-0.02,-0.81,
0.971,0.04,0.05,0.92,-0.26,-0.02,-0.81,
0.974,0.03,0.05,0.93,-0.26,-0.02,-0.81,
0.974,0.03,0.05,0.93,-0.36,-0.03,-0.79,
0.976,0.02,0.06,0.94,-0.36,-0.03,-0.79,
0.979,0.02,0.05,0.95,-0.36,-0.03,-0.79,
0.979,0.02,0.05,0.95,-0.51,-0.01,-0.69,
0.981,0.02,0.05,0.95,-0.51,-0.01,-0.69,
0.984,0.02,0.06,0.96,-0.51,-0.01,-0.69,
0.984,0.02,0.06,0.96,-0.67,0.00,-0.53,
0.987,0.02,0.06,0.96,-0.67,0.00,-0.53,
0.991,0.02,0.06,0.96,-0.71,0.03,-0.41,
0.992,0.02,0.05,0.97,-0.71,0.03,-0.41,
0.992,0.02,0.05,0.98,-0.71,0.03,-0.41,
0.994,0.01,0.04,0.99,-0.71,0.03,-0.41,
0.994,0.01,0.04,0.99,-0.74,0.03,-0.30,
0.996,0.01,0.04,1.01,-0.74,0.03,-0.30,
0.999,0.01,0.03,1.02,-0.74,0.03,-0.30,
1.0,0.01,0.03,1.02,-0.75,-0.04,-0.10,
1.002,0.00,0.02,1.03,-0.75,-0.04,-0.10,
1.004,-0.01,0.02,1.05,-0.75,-0.04,-0.10,
1.004,-0.01,0.02,1.05,-0.80,-0.15,0.17,
1.006,-0.01,0.02,1.06,-0.80,-0.15,0.17,
1.008,-0.01,0.02,1.07,-0.80,-0.15,0.17,
1.009,-0.01,0.02,1.07,-0.92,-0.26,0.41,
1.011,-0.01,0.02,1.07,-0.92,-0.26,0.41,
1.015,-0.01,0.02,1.07,-0.97,-0.27,0.63,
1.015,-0.01,0.01,1.08,-0.97,-0.27,0.63,
1.016,-0.01,0.01,1.08,-0.97,-0.27,0.63,
1.018,-0.00,0.01,1.08,-0.97,-0.27,0.63,
1.019,-0.00,0.01,1.08,-0.98,-0.32,0.78,
1.021,-0.00,0.01,1.08,-0.98,-0.32,0.78,
1.024,-0.01,0.01,1.07,-0.98,-0.32,0.78,
1.024,-0.01,0.01,1.07,-0.95,-0.36,0.78,
1.026,0.00,0.01,1.06,-0.95,-0.36,0.78,
1.028,0.00,0.01,1.05,-0.95,-0.36,0.78,
1.029,0.00,0.01,1.05,-0.96,-0.38,0.77,
1.032,0.01,0.02,1.04,-0.96,-0.38,0.77,
1.033,0.01,0.02,1.04,-0.96,-0.38,0.77,
1.033,0.01,0.02,1.04,-0.91,-0.36,0.57,
1.035,0.02,0.03,1.03,-0.91,-0.36,0.57,
1.038,0.02,0.03,1.03,-0.82,-0.26,0.40,
1.039,0.03,0.03,1.02,-0.82,-0.26,0.40,
1.04,0.03,0.03,1.01,-0.82,-0.26,0.40,
1.043,0.04,0.04,1.00,-0.82,-0.26,0.40,
1.043,0.04,0.04,1.00,-0.70,-0.19,0.24,
1.046,0.04,0.04,1.00,-0.70,-0.19,0.24,
1.048,0.04,0.04,1.00,-0.70,-0.19,0.24,
1.048,0.04,0.04,1.00,-0.57,-0.11,0.04,
1.051,0.03,0.04,0.99,-0.57,-0.11,0.04,
1.054,0.03,0.05,0.99,-0.57,-0.11,0.04,
1.054,0.03,0.05,0.99,-0.55,-0.07,-0.00,
1.056,0.03,0.04,0.99,-0.55,-0.07,-0.00,
1.061,0.03,0.04,0.99,-0.62,-0.05,-0.08,
1.061,0.02,0.04,1.01,-0.62,-0.05,-0.08,
1.061,0.01,0.03,1.01,-0.62,-0.05,-0.08,
1.063,0.01,0.03,1.01,-0.72,-0.07,0.01,
1.063,0.01,0.04,1.01,-0.72,-0.07,0.01,
1.065,0.01,0.03,1.02,-0.72,-0.07,0.01,
1.07,0.01,0.02,1.04,-0.72,-0.07,0.01,
1.07,0.01,0.02,1.04,-0.83,-0.13,0.15,
1.07,0.01,0.03,1.04,-0.83,-0.13,0.15,
1.074,0.02,0.02,1.05,-0.83,-0.13,0.15,
1.075,0.02,0.02,1.05,-0.85,-0.25,0.32,
1.075,0.02,0.02,1.05,-0.85,-0.25,0.32,
1.078,0.01,0.02,1.06,-0.85,-0.25,0.32,
1.078,0.01,0.02,1.06,-0.79,-0.28,0.44,
1.08,0.01,0.02,1.06,-0.79,-0.28,0.44,
1.083,0.00,0.02,1.06,-0.79,-0.28,0.44,
1.083,0.00,0.02,1.06,-0.78,-0.32,0.55,
1.085,-0.00,0.01,1.06,-0.78,-0.32,0.55,
1.088,-0.00,0.01,1.06,-0.87,-0.33,0.65,
1.088,0.00,0.01,1.07,-0.87,-0.33,0.65,
1.09,-0.00,0.01,1.07,-0.87,-0.33,0.65,
1.093,-0.00,0.01,1.08,-0.87,-0.33,0.65,
1.093,-0.00,0.01,1.08,-0.96,-0.39,0.66,
1.095,0.01,0.01,1.07,-0.96,-0.39,0.66,
1.097,0.01,0.01,1.07,-0.97,-0.43,0.73,
1.098,0.01,0.01,1.06,-0.97,-0.43,0.73,
1.102,0.02,0.01,1.06,-0.97,-0.43,0.73,
1.103,0.03,0.01,1.06,-0.97,-0.43,0.73,
1.103,0.03,0.01,1.06,-0.86,-0.43,0.67,
1.105,0.03,0.03,1.05,-0.86,-0.43,0.67,
1.109,0.04,0.03,1.05,-0.86,-0.43,0.67,
1.109,0.04,0.03,1.05,-0.74,-0.41,0.61,
1.11,0.04,0.04,1.04,-0.74,-0.41,0.61,
1.112,0.04,0.04,1.04,-0.65,-0.25,0.52,
1.113,0.04,0.04,1.02,-0.65,-0.25,0.52,
1.117,0.03,0.04,1.02,-0.65,-0.25,0.52,
1.117,0.04,0.05,1.01,-0.65,-0.25,0.52,
1.117,0.04,0.05,1.01,-0.60,-0.16,0.32,
1.12,0.04,0.05,0.99,-0.60,-0.16,0.32,
1.123,0.04,0.05,0.99,-0.65,-0.12,0.17,
1.123,0.04,0.05,0.98,-0.65,-0.12,0.17,
1.125,0.04,0.04,0.98,-0.65,-0.12,0.17,
1.127,0.04,0.04,0.97,-0.65,-0.12,0.17,
1.128,0.04,0.04,0.97,-0.63,-0.06,-0.09,
1.13,0.04,0.05,0.96,-0.63,-0.06,-0.09,
1.133,0.05,0.05,0.95,-0.63,-0.06,-0.09,
1.133,0.05,0.05,0.95,-0.61,-0.15,-0.24,
1.136,0.05,0.05,0.95,-0.61,-0.15,-0.24,
1.138,0.05,0.05,0.95,-0.54,-0.08,-0.40,
1.138,0.05,0.05,0.95,-0.54,-0.08,-0.40,
1.14,0.05,0.05,0.94,-0.54,-0.08,-0.40,
1.142,0.05,0.05,0.94,-0.54,-0.08,-0.40,
1.142,0.05,0.05,0.94,-0.48,-0.06,-0.46,
1.144,0.05,0.05,0.94,-0.48,-0.06,-0.46,
1.147,0.05,0.04,0.95,-0.48,-0.06,-0.46,
1.148,0.05,0.04,0.95,-0.48,-0.09,-0.54,
1.15,0.05,0.04,0.95,-0.48,-0.09,-0.54,
1.153,0.05,0.04,0.95,-0.51,-0.15,-0.52,
1.154,0.04,0.04,0.96,-0.51,-0.15,-0.52,
1.155,0.04,0.04,0.96,-0.51,-0.15,-0.52,
1.162,0.04,0.03,0.97,-0.51,-0.15,-0.52,
1.162,0.04,0.03,0.97,-0.53,-0.23,-0.41,
1.163,0.04,0.02,0.98,-0.53,-0.23,-0.41,
1.163,0.04,0.02,0.98,-0.54,-0.29,-0.27,
1.163,0.05,0.02,0.99,-0.54,-0.29,-0.27,
1.164,0.06,0.02,1.00,-0.54,-0.29,-0.27,
1.167,0.06,0.01,1.00,-0.54,-0.29,-0.27,
1.167,0.06,0.01,1.00,-0.50,-0.40,-0.14,
1.169,0.07,0.01,1.01,-0.50,-0.40,-0.14,
1.171,0.08,0.02,1.02,-0.50,-0.40,-0.14,
1.172,0.08,0.02,1.02,-0.38,-0.46,0.02,
1.175,0.08,0.01,1.02,-0.38,-0.46,0.02,
1.176,0.08,0.02,1.02,-0.38,-0.46,0.02,
1.177,0.08,0.02,1.02,-0.28,-0.48,0.17,
1.179,0.08,0.02,1.02,-0.28,-0.48,0.17,
1.181,0.08,0.03,1.03,-0.28,-0.48,0.17,
1.182,0.08,0.03,1.03,-0.20,-0.48,0.23,
1.184,0.09,0.03,1.03,-0.20,-0.48,0.23,
1.186,0.09,0.03,1.03,-0.20,-0.38,0.32,
1.186,0.09,0.03,1.04,-0.20,-0.38,0.32,
1.19,0.09,0.04,1.04,-0.20,-0.38,0.32,
1.192,0.08,0.05,1.03,-0.20,-0.38,0.32,
1.193,0.08,0.05,1.03,-0.16,-0.32,0.39,
1.194,0.08,0.05,1.03,-0.16,-0.32,0.39,
1.196,0.08,0.05,1.03,-0.16,-0.32,0.39,
1.197,0.08,0.05,1.03,-0.20,-0.21,0.38,
1.199,0.07,0.06,1.02,-0.20,-0.21,0.38,
1.201,0.06,0.06,1.01,-0.20,-0.21,0.38,
1.201,0.06,0.06,1.01,-0.25,-0.16,0.32,
1.203,0.06,0.07,1.00,-0.25,-0.16,0.32,
1.208,0.06,0.08,0.99,-0.25,-0.16,0.32,
1.208,0.06,0.08,0.99,-0.38,-0.05,0.18,
1.209,0.06,0.08,0.99,-0.38,-0.05,0.18,
1.211,0.06,0.08,0.99,-0.43,0.05,-0.02,
1.211,0.06,0.08,0.98,-0.43,0.05,-0.02,
1.213,0.06,0.08,0.96,-0.43,0.05,-0.02,
1.216,0.05,0.09,0.96,-0.43,0.05,-0.02,
1.216,0.05,0.09,0.96,-0.44,0.11,-0.14,
1.218,0.04,0.09,0.95,-0.44,0.11,-0.14,
1.221,0.03,0.09,0.94,-0.44,0.11,-0.14,
1.221,0.03,0.09,0.94,-0.50,0.16,-0.35,
1.224,0.02,0.10,0.94,-0.50,0.16,-0.35,
1.226,0.02,0.10,0.93,-0.50,0.16,-0.35,
1.226,0.02,0.10,0.93,-0.59,0.21,-0.49,
1.229,0.01,0.09,0.92,-0.59,0.21,-0.49,
1.231,0.01,0.09,0.91,-0.59,0.21,-0.49,
1.231,0.01,0.09,0.91,-0.71,0.24,-0.62,
1.233,0.01,0.09,0.91,-0.71,0.24,-0.62,
1.236,0.01,0.09,0.91,-0.78,0.18,-0.80,
1.236,0.00,0.09,0.91,-0.78,0.18,-0.80,
1.238,0.00,0.09,0.91,-0.78,0.18,-0.80,
1.242,-0.00,0.09,0.91,-0.78,0.18,-0.80,
1.243,-0.00,0.09,0.91,-0.82,0.16,-0.86,
1.243,-0.00,0.09,0.91,-0.82,0.16,-0.86,
1.246,-0.00,0.08,0.91,-0.82,0.16,-0.86,
1.246,-0.00,0.08,0.91,-0.83,0.15,-0.86,
1.248,0.00,0.08,0.91,-0.83,0.15,-0.86,
1.251,0.00,0.08,0.92,-0.83,0.15,-0.86,
1.251,0.00,0.08,0.92,-0.85,0.10,-0.85,
1.253,0.00,0.08,0.92,-0.85,0.10,-0.85,
1.256,0.01,0.07,0.92,-0.85,0.10,-0.85,
1.256,0.01,0.07,0.92,-0.78,0.05,-0.80,
1.259,0.01,0.07,0.93,-0.78,0.05,-0.80,
1.261,0.01,0.07,0.93,-0.75,-0.01,-0.72,
1.261,0.01,0.07,0.93,-0.75,-0.01,-0.72,
1.263,0.02,0.07,0.94,-0.75,-0.01,-0.72,
1.265,0.02,0.07,0.95,-0.75,-0.01,-0.72,
1.266,0.02,0.07,0.95,-0.67,-0.04,-0.58,
1.268,0.03,0.07,0.95,-0.67,-0.04,-0.58,
1.271,0.04,0.07,0.95,-0.67,-0.04,-0.58,
1.271,0.04,0.07,0.95,-0.55,-0.06,-0.47,
1.28,0.04,0.07,0.96,-0.55,-0.06,-0.47,
1.281,0.05,0.07,0.97,-0.55,-0.06,-0.47,
1.281,0.05,0.07,0.97,-0.46,-0.07,-0.42,
1.281,0.04,0.07,0.97,-0.46,-0.07,-0.42,
1.282,0.04,0.07,0.97,-0.46,-0.07,-0.42,
1.282,0.04,0.07,0.97,-0.35,-0.05,-0.23,
1.283,0.04,0.07,0.98,-0.35,-0.05,-0.23,
1.285,0.04,0.07,0.98,-0.37,-0.04,-0.19,
1.286,0.04,0.07,0.99,-0.37,-0.04,-0.19,
1.288,0.04,0.07,0.99,-0.37,-0.04,-0.19,
1.292,0.04,0.07,0.99,-0.37,-0.04,-0.19,
1.293,0.04,0.07,0.99,-0.41,-0.07,-0.07,
1.293,0.04,0.07,0.99,-0.41,-0.07,-0.07,
1.295,0.05,0.07,1.00,-0.41,-0.07,-0.07,
1.296,0.05,0.07,1.00,-0.41,-0.05,-0.02,
1.298,0.06,0.07,1.00,-0.41,-0.05,-0.02,
1.3,0.06,0.07,1.00,-0.33,-0.07,0.05,
1.3,0.07,0.07,1.00,-0.33,-0.07,0.05,
1.303,0.08,0.06,1.00,-0.33,-0.07,0.05,
1.305,0.08,0.06,1.00,-0.33,-0.07,0.05,
1.305,0.08,0.06,1.00,-0.17,-0.06,0.10,
1.308,0.09,0.06,1.00,-0.17,-0.06,0.10,
1.31,0.09,0.06,1.00,-0.02,-0.09,0.08,
1.31,0.10,0.06,0.99,-0.02,-0.09,0.08,
1.313,0.10,0.06,0.99,-0.02,-0.09,0.08,
1.315,0.11,0.06,0.99,-0.02,-0.09,0.08,
1.318,0.11,0.06,0.99,0.11,-0.13,0.04,
1.318,0.11,0.07,0.97,0.11,-0.13,0.04,
1.32,0.11,0.08,0.98,0.11,-0.13,0.04,
1.321,0.11,0.08,0.98,0.21,-0.09,-0.01,
1.322,0.10,0.07,0.98,0.21,-0.09,-0.01,
1.325,0.10,0.08,0.98,0.21,-0.09,-0.01,
1.326,0.10,0.08,0.98,0.23,0.01,-0.13,
1.327,0.09,0.07,0.98,0.23,0.01,-0.13,
1.331,0.07,0.07,0.99,0.23,0.01,-0.13,
1.331,0.07,0.07,0.99,0.17,0.02,-0.12,
1.333,0.06,0.06,0.98,0.17,0.02,-0.12,
1.336,0.06,0.06,0.98,-0.05,0.02,-0.07,
1.336,0.05,0.06,0.99,-0.05,0.02,-0.07,
1.338,0.04,0.05,1.00,-0.05,0.02,-0.07,
1.342,0.04,0.05,0.99,-0.05,0.02,-0.07,
1.343,0.04,0.05,0.99,-0.27,-0.12,-0.06,
1.344,0.04,0.05,1.00,-0.27,-0.12,-0.06,
1.346,0.03,0.04,1.00,-0.27,-0.12,-0.06,
1.347,0.03,0.04,1.00,-0.41,-0.20,0.04,
1.348,0.03,0.04,1.01,-0.41,-0.20,0.04,
1.351,0.03,0.04,1.02,-0.41,-0.20,0.04,
1.351,0.03,0.04,1.02,-0.41,-0.25,0.13,
1.353,0.03,0.04,1.01,-0.41,-0.25,0.13,
1.355,0.02,0.04,1.02,-0.41,-0.25,0.13,
1.356,0.02,0.04,1.02,-0.46,-0.27,0.20,
1.357,0.02,0.05,1.01,-0.46,-0.27,0.20,
1.36,0.02,0.05,1.01,-0.46,-0.27,0.20,
1.361,0.02,0.05,1.01,-0.52,-0.28,0.22,
1.363,0.02,0.05,1.01,-0.52,-0.28,0.22,
1.366,0.02,0.06,1.00,-0.52,-0.28,0.22,
1.366,0.02,0.06,1.00,-0.54,-0.24,0.17,
1.368,0.03,0.07,1.00,-0.54,-0.24,0.17,
1.371,0.03,0.07,0.99,-0.54,-0.24,0.17,
1.372,0.03,0.07,0.99,-0.51,-0.16,0.13,
1.373,0.04,0.07,0.98,-0.51,-0.16,0.13,
1.375,0.04,0.08,0.98,-0.51,-0.16,0.13,
1.375,0.04,0.08,0.98,-0.42,-0.05,0.01,
1.38,0.05,0.08,0.97,-0.42,-0.05,0.01,
1.381,0.05,0.08,0.97,-0.42,-0.05,0.01,
1.381,0.05,0.08,0.97,-0.30,0.00,-0.14,
1.383,0.05,0.08,0.96,-0.30,0.00,-0.14,
1.385,0.05,0.08,0.96,-0.23,0.03,-0.21,
1.385,0.05,0.08,0.95,-0.23,0.03,-0.21,
1.387,0.06,0.08,0.94,-0.23,0.03,-0.21,
1.39,0.06,0.08,0.93,-0.23,0.03,-0.21,
1.391,0.06,0.08,0.93,-0.18,0.05,-0.35,
1.393,0.06,0.08,0.92,-0.18,0.05,-0.35,
1.395,0.06,0.08,0.91,-0.18,0.05,-0.35,
1.395,0.06,0.08,0.91,-0.10,0.02,-0.56,
1.397,0.06,0.07,0.91,-0.10,0.02,-0.56,
1.4,0.06,0.08,0.90,-0.10,0.02,-0.56,
1.4,0.06,0.08,0.90,-0.06,-0.00,-0.73,
1.402,0.06,0.08,0.90,-0.06,-0.00,-0.73,
1.405,0.06,0.08,0.89,-0.06,-0.00,-0.73,
1.405,0.06,0.08,0.89,-0.06,-0.00,-0.83,
1.407,0.06,0.09,0.89,-0.06,-0.00,-0.83,
1.41,0.06,0.09,0.89,-0.00,0.03,-0.94,
1.41,0.06,0.09,0.89,-0.00,0.03,-0.94,
1.412,0.06,0.08,0.89,-0.00,0.03,-0.94,
1.415,0.05,0.08,0.90,-0.00,0.03,-0.94,
1.415,0.05,0.08,0.90,-0.01,0.07,-0.96,
1.417,0.05,0.08,0.90,-0.01,0.07,-0.96,
1.42,0.04,0.08,0.90,-0.01,0.07,-0.96,
1.42,0.04,0.08,0.90,-0.04,0.03,-0.89,
1.422,0.04,0.08,0.91,-0.04,0.03,-0.89,
1.425,0.03,0.08,0.92,-0.04,0.03,-0.89,
1.426,0.03,0.08,0.92,-0.12,0.01,-0.83,
1.427,0.02,0.08,0.92,-0.12,0.01,-0.83,
1.43,0.02,0.07,0.93,-0.12,0.01,-0.83,
1.43,0.02,0.07,0.93,-0.21,0.01,-0.73,
1.432,0.01,0.07,0.94,-0.21,0.01,-0.73,
1.434,0.01,0.07,0.94,-0.33,-0.04,-0.60,
1.434,0.01,0.07,0.94,-0.33,-0.04,-0.60,
1.437,0.00,0.07,0.95,-0.33,-0.04,-0.60,
1.44,0.00,0.06,0.95,-0.33,-0.04,-0.60,
1.44,0.00,0.06,0.95,-0.43,-0.07,-0.46,
1.441,0.00,0.06,0.96,-0.43,-0.07,-0.46,
1.445,0.00,0.06,0.98,-0.43,-0.07,-0.46,
1.445,0.00,0.06,0.98,-0.51,-0.15,-0.33,
1.447,0.00,0.06,0.98,-0.51,-0.15,-0.33,
1.45,-0.00,0.06,0.99,-0.51,-0.15,-0.33,
1.45,-0.00,0.06,0.99,-0.52,-0.17,-0.14,
1.452,0.00,0.07,1.00,-0.52,-0.17,-0.14,
1.455,0.01,0.07,1.00,-0.52,-0.17,-0.14,
1.455,0.01,0.07,1.00,-0.52,-0.16,-0.02,
1.457,0.02,0.06,1.00,-0.52,-0.16,-0.02,
1.459,0.02,0.06,1.00,-0.44,-0.10,0.14,
1.459,0.04,0.06,1.00,-0.44,-0.10,0.14,
1.462,0.04,0.06,1.00,-0.44,-0.10,0.14,
1.465,0.05,0.07,1.00,-0.44,-0.10,0.14,
1.465,0.05,0.07,1.00,-0.22,-0.14,0.14,
1.466,0.07,0.06,0.99,-0.22,-0.14,0.14,
1.469,0.08,0.06,0.98,-0.22,-0.14,0.14,
1.47,0.08,0.06,0.98,-0.04,-0.11,0.11,
1.472,0.09,0.06,0.97,-0.04,-0.11,0.11,
1.477,0.11,0.06,0.95,-0.04,-0.11,0.11,
1.478,0.11,0.06,0.95,0.22,-0.18,-0.03,
1.478,0.13,0.06,0.95,0.22,-0.18,-0.03,
1.48,0.13,0.06,0.94,0.22,-0.18,-0.03,
1.48,0.13,0.06,0.94,0.50,-0.17,-0.24,
1.483,0.14,0.06,0.93,0.50,-0.17,-0.24,
1.485,0.14,0.06,0.93,0.78,-0.15,-0.38,
1.486,0.16,0.06,0.93,0.78,-0.15,-0.38,
1.486,0.16,0.05,0.92,0.78,-0.15,-0.38,
1.489,0.16,0.05,0.92,0.97,-0.17,-0.53,
1.49,0.16,0.06,0.92,0.97,-0.17,-0.53,
1.491,0.16,0.06,0.91,0.97,-0.17,-0.53,
1.498,0.16,0.06,0.91,0.97,-0.17,-0.53,
1.499,0.16,0.06,0.91,1.06,-0.19,-0.62,
1.499,0.16,0.06,0.91,1.06,-0.19,-0.62,
1.499,0.15,0.06,0.91,1.06,-0.19,-0.62,
1.5,0.15,0.06,0.91,1.10,-0.19,-0.70,
1.501,0.14,0.06,0.92,1.10,-0.19,-0.70,
1.503,0.14,0.06,0.92,1.10,-0.19,-0.70,
1.504,0.14,0.06,0.92,1.01,-0.15,-0.67,
1.505,0.13,0.07,0.93,1.01,-0.15,-0.67,
1.512,0.13,0.07,0.93,0.87,-0.13,-0.60,
1.512,0.13,0.07,0.95,0.87,-0.13,-0.60,
1.513,0.13,0.07,0.96,0.87,-0.13,-0.60,
1.513,0.12,0.07,0.96,0.87,-0.13,-0.60,
1.513,0.12,0.07,0.96,0.80,-0.05,-0.45,
1.515,0.11,0.07,0.98,0.80,-0.05,-0.45,
1.519,0.10,0.07,0.98,0.80,-0.05,-0.45,
1.519,0.10,0.07,0.98,0.70,-0.01,-0.23,
1.521,0.09,0.07,0.99,0.70,-0.01,-0.23,
1.524,0.09,0.07,1.00,0.70,-0.01,-0.23,
1.524,0.09,0.07,1.00,0.56,-0.02,-0.04,
1.526,0.09,0.07,1.00,0.56,-0.02,-0.04,
1.529,0.09,0.07,1.01,0.56,-0.02,-0.04,
1.529,0.09,0.07,1.01,0.45,-0.04,0.13,
1.531,0.09,0.06,1.01,0.45,-0.04,0.13,
1.534,0.09,0.06,1.01,0.41,-0.01,0.21,
1.534,0.09,0.06,1.00,0.41,-0.01,0.21,
1.536,0.08,0.07,1.00,0.41,-0.01,0.21,
1.539,0.08,0.06,1.01,0.41,-0.01,0.21,
1.539,0.08,0.06,1.01,0.39,-0.09,0.22,
1.543,0.09,0.06,1.01,0.39,-0.09,0.22,
1.544,0.09,0.06,1.00,0.39,-0.09,0.22,
1.544,0.09,0.06,1.00,0.38,-0.09,0.20,
1.546,0.10,0.06,0.99,0.38,-0.09,0.20,
1.548,0.11,0.06,0.99,0.38,-0.09,0.20,
1.549,0.11,0.06,0.99,0.45,-0.15,0.20,
1.551,0.12,0.06,0.99,0.45,-0.15,0.20,
1.554,0.13,0.06,0.98,0.45,-0.15,0.20,
1.554,0.13,0.06,0.98,0.60,-0.14,0.08,
1.556,0.15,0.06,0.97,0.60,-0.14,0.08,
1.558,0.15,0.06,0.97,0.82,-0.13,0.00,
1.559,0.17,0.06,0.97,0.82,-0.13,0.00,
1.561,0.18,0.07,0.96,0.82,-0.13,0.00,
1.563,0.19,0.07,0.96,0.82,-0.13,0.00,
1.564,0.19,0.07,0.96,1.14,-0.09,-0.15,
1.566,0.21,0.07,0.96,1.14,-0.09,-0.15,
1.569,0.22,0.07,0.96,1.14,-0.09,-0.15,
1.569,0.22,0.07,0.96,1.41,-0.05,-0.22,
1.571,0.23,0.06,0.97,1.41,-0.05,-0.22,
1.574,0.24,0.05,0.96,1.41,-0.05,-0.22,
1.574,0.24,0.05,0.96,1.65,-0.02,-0.21,
1.576,0.25,0.05,0.97,1.65,-0.02,-0.21,
1.579,0.26,0.05,0.98,1.65,-0.02,-0.21,
1.579,0.26,0.05,0.98,1.88,-0.15,-0.20,
1.581,0.26,0.05,0.98,1.88,-0.15,-0.20,
1.584,0.26,0.05,0.99,1.88,-0.15,-0.20,
1.584,0.26,0.05,0.99,2.10,-0.21,-0.10,
1.586,0.25,0.04,1.00,2.10,-0.21,-0.10,
1.589,0.24,0.04,1.01,2.10,-0.21,-0.10,
1.589,0.24,0.04,1.01,2.12,-0.22,0.01,
1.591,0.22,0.03,1.02,2.12,-0.22,0.01,
1.599,0.20,0.04,1.03,2.12,-0.22,0.01,
1.6,0.20,0.04,1.03,1.97,-0.28,0.20,
1.6,0.19,0.03,1.04,1.97,-0.28,0.20,
1.6,0.18,0.03,1.05,1.97,-0.28,0.20,
1.6,0.18,0.03,1.05,1.67,-0.34,0.41,
1.601,0.16,0.03,1.06,1.67,-0.34,0.41,
1.603,0.15,0.03,1.07,1.67,-0.34,0.41,
1.604,0.15,0.03,1.07,1.39,-0.37,0.59,
1.606,0.15,0.04,1.07,1.39,-0.37,0.59,
1.608,0.15,0.04,1.07,1.16,-0.35,0.77,
1.608,0.14,0.04,1.07,1.16,-0.35,0.77,
1.611,0.13,0.04,1.06,1.16,-0.35,0.77,
1.614,0.11,0.05,1.05,1.16,-0.35,0.77,
1.614,0.11,0.05,1.05,1.05,-0.30,0.80,
1.615,0.11,0.05,1.05,1.05,-0.30,0.80,
1.618,0.10,0.06,1.03,1.05,-0.30,0.80,
1.618,0.10,0.06,1.03,0.84,-0.24,0.68,
1.62,0.09,0.05,1.02,0.84,-0.24,0.68,
1.623,0.09,0.05,1.01,0.84,-0.24,0.68,
1.623,0.09,0.05,1.01,0.70,-0.16,0.51,
1.625,0.09,0.06,1.00,0.70,-0.16,0.51,
1.628,0.09,0.07,0.99,0.70,-0.16,0.51,
1.628,0.09,0.07,0.99,0.59,-0.18,0.28,
1.63,0.08,0.07,0.98,0.59,-0.18,0.28,
1.632,0.08,0.07,0.98,0.58,-0.07,0.07,
1.633,0.07,0.07,0.97,0.58,-0.07,0.07,
1.634,0.07,0.07,0.96,0.58,-0.07,0.07,
1.637,0.07,0.07,0.96,0.58,-0.07,0.07,
1.637,0.07,0.07,0.96,0.48,-0.01,-0.11,
1.64,0.06,0.07,0.95,0.48,-0.01,-0.11,
1.642,0.07,0.07,0.94,0.48,-0.01,-0.11,
1.642,0.07,0.07,0.94,0.43,0.00,-0.26,
1.644,0.07,0.07,0.94,0.43,0.00,-0.26,
1.648,0.07,0.07,0.93,0.43,0.00,-0.26,
1.648,0.07,0.07,0.93,0.43,-0.03,-0.42,
1.65,0.07,0.07,0.94,0.43,-0.03,-0.42,
1.652,0.07,0.07,0.94,0.46,-0.04,-0.48,
1.652,0.07,0.08,0.94,0.46,-0.04,-0.48,
1.654,0.06,0.08,0.94,0.46,-0.04,-0.48,
1.657,0.06,0.08,0.94,0.51,0.03,-0.45,
1.657,0.06,0.09,0.94,0.51,0.03,-0.45,
1.66,0.05,0.09,0.95,0.51,0.03,-0.45,
1.662,0.05,0.08,0.96,0.51,0.03,-0.45,
1.662,0.05,0.08,0.96,0.39,0.10,-0.42,
1.664,0.09,0.00,0.96,0.39,0.10,-0.42,
1.667,0.46,-0.68,1.05,0.39,0.10,-0.42,
1.667,0.46,-0.68,1.05,0.34,0.11,-0.32,
1.67,0.44,-0.13,1.08,0.34,0.11,-0.32,
1.672,0.16,0.52,1.02,0.34,0.11,-0.32,
1.672,0.16,0.52,1.02,2.55,-4.03,0.23,
1.674,0.27,0.13,1.01,2.55,-4.03,0.23,
1.677,0.34,-0.12,1.03,2.55,-4.03,0.23,
1.678,0.34,-0.12,1.03,2.79,1.18,0.65,
1.68,0.14,0.10,1.03,2.79,1.18,0.65,
1.682,0.14,0.10,1.03,2.84,-0.71,0.37,
1.682,0.07,0.06,1.00,2.84,-0.71,0.37,
1.684,0.05,-0.07,0.98,2.84,-0.71,0.37,
1.689,0.00,0.02,0.97,2.84,-0.71,0.37,
1.689,0.00,0.02,0.97,0.85,0.09,0.24,
1.689,0.01,0.09,0.97,0.85,0.09,0.24,
1.696,0.07,0.04,0.97,0.85,0.09,0.24,
1.697,0.07,0.04,0.97,0.09,-0.92,-0.13,
1.697,0.09,0.06,0.97,0.09,-0.92,-0.13,
1.697,0.06,0.15,0.96,0.09,-0.92,-0.13,
1.697,0.06,0.15,0.96,0.27,-0.06,-0.13,
1.699,0.09,0.08,0.95,0.27,-0.06,-0.13,
1.702,0.07,0.06,0.93,0.27,-0.06,-0.13,
1.702,0.07,0.06,0.93,0.62,0.31,-0.22,
1.704,-0.00,0.16,0.93,0.62,0.31,-0.22,
1.707,-0.00,0.16,0.93,0.68,-0.03,-0.46,
1.707,-0.03,0.15,0.93,0.68,-0.03,-0.46,
1.709,0.00,0.07,0.91,0.68,-0.03,-0.46,
1.712,-0.01,0.05,0.89,0.68,-0.03,-0.46,
1.713,-0.01,0.05,0.89,-0.25,0.78,-0.58,
1.714,-0.08,0.16,0.92,-0.25,0.78,-0.58,
1.716,-0.08,0.14,0.92,-0.25,0.78,-0.58,
1.716,-0.08,0.14,0.92,-0.06,-0.16,-0.80,
1.719,-0.05,0.11,0.91,-0.06,-0.16,-0.80,
1.722,-0.04,0.09,0.92,-0.06,-0.16,-0.80,
1.722,-0.04,0.09,0.92,-0.75,0.76,-0.67,
1.724,-0.03,0.08,0.91,-0.75,0.76,-0.67,
1.728,-0.02,0.08,0.91,-0.75,0.76,-0.67,
1.728,-0.02,0.08,0.91,-0.42,0.23,-0.69,
1.728,-0.02,0.09,0.91,-0.42,0.23,-0.69,
1.732,-0.02,0.09,0.91,-0.17,0.07,-0.74,
1.732,-0.03,0.10,0.91,-0.17,0.07,-0.74,
1.735,-0.03,0.10,0.91,-0.17,0.07,-0.74,
1.736,-0.04,0.09,0.91,-0.17,0.07,-0.74,
1.737,-0.04,0.09,0.91,-0.16,0.20,-0.77,
1.739,-0.06,0.09,0.92,-0.16,0.20,-0.77,
1.742,-0.07,0.08,0.92,-0.16,0.20,-0.77,
1.742,-0.07,0.08,0.92,-0.30,0.18,-0.71,
1.744,-0.07,0.08,0.93,-0.30,0.18,-0.71,
1.747,-0.07,0.07,0.93,-0.30,0.18,-0.71,
1.747,-0.07,0.07,0.93,-0.51,0.09,-0.64,
1.748,-0.07,0.07,0.94,-0.51,0.09,-0.64,
1.752,-0.06,0.06,0.94,-0.51,0.09,-0.64,
1.752,-0.06,0.06,0.94,-0.59,0.03,-0.56,
1.754,-0.05,0.05,0.96,-0.59,0.03,-0.56,
1.757,-0.05,0.05,0.96,-0.52,-0.11,-0.44,
1.757,-0.04,0.04,0.96,-0.52,-0.11,-0.44,
1.759,0.17,-0.36,1.19,-0.52,-0.11,-0.44,
1.762,0.59,-1.06,1.93,-0.52,-0.11,-0.44,
1.763,0.59,-1.06,1.93,-0.36,-0.24,-0.25,
1.763,0.25,0.17,1.38,-0.36,-0.24,-0.25,
1.768,0.04,0.57,0.96,-0.36,-0.24,-0.25,
1.768,0.04,0.57,0.96,3.81,-7.64,5.63,
1.768,0.14,0.11,1.08,3.81,-7.64,5.63,
1.772,0.21,-0.18,1.22,3.81,-7.64,5.63,
1.772,0.21,-0.18,1.22,1.51,2.97,1.83,
1.774,0.14,-0.11,1.18,1.51,2.97,1.83,
1.776,0.03,0.08,1.02,1.51,2.97,1.83,
1.776,0.03,0.08,1.02,1.72,-1.06,1.62,
1.779,0.07,-0.06,1.05,1.72,-1.06,1.62,
1.782,0.11,-0.05,1.07,1.72,-1.06,1.62,
1.783,0.11,-0.05,1.07,0.85,-0.79,1.08,
1.783,0.13,0.04,1.07,0.85,-0.79,1.08,
1.787,0.12,0.19,0.98,0.85,-0.79,1.08,
1.787,0.12,0.19,0.98,0.89,-1.21,0.72,
1.789,0.17,0.01,1.04,0.89,-1.21,0.72,
1.792,0.15,0.01,1.03,0.89,-1.21,0.72,
1.792,0.15,0.01,1.03,1.24,0.43,0.36,
1.795,0.08,0.11,0.93,1.24,0.43,0.36,
1.796,0.08,0.02,0.92,1.24,0.43,0.36,
1.796,0.08,0.02,0.92,1.64,-0.62,0.46,
1.799,0.02,0.06,0.89,1.64,-0.62,0.46,
1.801,0.02,0.06,0.89,0.84,-0.09,-0.59,
1.801,0.00,0.06,0.87,0.84,-0.09,-0.59,
1.804,0.03,-0.01,0.89,0.84,-0.09,-0.59,
1.806,-0.01,0.07,0.85,0.84,-0.09,-0.59,
1.807,-0.01,0.07,0.85,0.20,-0.12,-1.04,
1.808,-0.01,0.07,0.85,0.20,-0.12,-1.04,
1.811,-0.00,0.05,0.86,0.20,-0.12,-1.04,
1.816,-0.00,0.05,0.86,0.16,-0.41,-1.13,
1.816,0.00,0.05,0.87,0.16,-0.41,-1.13,
1.817,0.00,0.05,0.87,0.07,-0.08,-1.30,
1.817,0.01,0.05,0.88,0.07,-0.08,-1.30,
1.818,0.01,0.04,0.90,0.07,-0.08,-1.30,
1.821,0.02,0.02,0.90,0.07,-0.08,-1.30,
1.821,0.02,0.02,0.90,0.19,-0.23,-1.09,
1.822,0.03,0.02,0.91,0.19,-0.23,-1.09,
1.825,0.04,0.01,0.93,0.19,-0.23,-1.09,
1.825,0.04,0.01,0.93,0.29,-0.39,-0.87,
1.832,0.04,0.01,0.94,0.29,-0.39,-0.87,
1.832,0.04,0.01,0.94,0.42,-0.52,-0.64,
1.833,0.05,0.00,0.96,0.42,-0.52,-0.64,
1.833,0.05,0.00,0.97,0.42,-0.52,-0.64,
1.835,0.05,0.00,0.99,0.42,-0.52,-0.64,
1.835,0.05,0.00,0.99,0.53,-0.63,-0.35,
1.837,0.05,-0.00,1.00,0.53,-0.63,-0.35,
1.84,0.05,-0.00,1.00,0.59,-0.64,-0.05,
1.84,0.05,-0.01,1.02,0.59,-0.64,-0.05,
1.843,0.06,-0.02,1.03,0.59,-0.64,-0.05,
1.845,0.05,-0.02,1.04,0.59,-0.64,-0.05,
1.845,0.05,-0.02,1.04,0.60,-0.71,0.24,
1.847,0.05,-0.02,1.05,0.60,-0.71,0.24,
1.85,0.05,-0.01,1.05,0.60,-0.71,0.24,
1.85,0.05,-0.01,1.05,0.59,-0.80,0.48,
1.852,0.05,-0.01,1.05,0.59,-0.80,0.48,
1.855,0.05,-0.01,1.05,0.55,-0.77,0.61,
1.855,0.04,-0.01,1.05,0.55,-0.77,0.61,
1.857,0.05,-0.01,1.05,0.55,-0.77,0.61,
1.86,0.05,-0.00,1.05,0.55,-0.77,0.61,
1.861,0.05,-0.00,1.05,0.51,-0.72,0.63,
1.862,0.05,-0.00,1.04,0.51,-0.72,0.63,
1.865,0.05,0.00,1.04,0.51,-0.72,0.63,
1.865,0.05,0.00,1.04,0.53,-0.65,0.61,
1.867,0.04,0.00,1.03,0.53,-0.65,0.61,
1.87,0.04,0.01,1.03,0.53,-0.65,0.61,
1.87,0.04,0.01,1.03,0.52,-0.60,0.53,
1.872,0.04,0.01,1.02,0.52,-0.60,0.53,
1.874,0.05,0.02,1.02,0.52,-0.60,0.53,
1.875,0.05,0.02,1.02,0.45,-0.53,0.42,
1.877,0.04,0.02,1.01,0.45,-0.53,0.42,
1.88,0.04,0.02,1.01,0.50,-0.49,0.33,
1.88,0.04,0.03,1.01,0.50,-0.49,0.33,
1.882,0.04,0.03,1.00,0.50,-0.49,0.33,
1.885,0.02,0.03,1.00,0.50,-0.49,0.33,
1.885,0.02,0.03,1.00,0.50,-0.39,0.22,
1.887,0.01,0.03,1.00,0.50,-0.39,0.22,
1.89,-0.01,0.04,1.00,0.50,-0.39,0.22,
1.89,-0.01,0.04,1.00,0.39,-0.32,0.15,
1.895,-0.02,0.03,1.00,0.39,-0.32,0.15,
1.896,-0.03,0.04,0.99,0.39,-0.32,0.15,
1.896,-0.03,0.04,0.99,0.12,-0.26,0.10,
1.897,-0.05,0.03,0.98,0.12,-0.26,0.10,
1.901,-0.06,0.03,0.98,0.12,-0.26,0.10,
1.901,-0.06,0.03,0.98,-0.13,-0.27,0.07,
1.902,-0.08,0.03,0.99,-0.13,-0.27,0.07,
1.904,-0.08,0.03,0.99,-0.39,-0.33,-0.02,
1.905,-0.09,0.03,0.98,-0.39,-0.33,-0.02,
1.907,-0.10,0.03,0.97,-0.39,-0.33,-0.02,
1.912,-0.12,0.03,0.98,-0.39,-0.33,-0.02,
1.912,-0.12,0.03,0.98,-0.64,-0.32,-0.04,
1.913,-0.12,0.03,0.97,-0.64,-0.32,-0.04,
1.914,-0.12,0.03,0.97,-0.64,-0.32,-0.04,
1.915,-0.12,0.03,0.97,-0.88,-0.32,-0.12,
1.917,-0.13,0.03,0.97,-0.88,-0.32,-0.12,
1.919,-0.12,0.04,0.97,-0.88,-0.32,-0.12,
1.92,-0.12,0.04,0.97,-1.00,-0.32,-0.15,
1.921,-0.11,0.04,0.96,-1.00,-0.32,-0.15,
1.924,-0.10,0.04,0.95,-1.00,-0.32,-0.15,
1.924,-0.10,0.04,0.95,-1.03,-0.27,-0.17,
1.933,-0.09,0.05,0.94,-1.03,-0.27,-0.17,
1.934,-0.09,0.05,0.94,-0.87,-0.21,-0.29,
1.934,-0.08,0.05,0.94,-0.87,-0.21,-0.29,
1.935,-0.07,0.06,0.93,-0.87,-0.21,-0.29,
1.935,-0.07,0.06,0.94,-0.87,-0.21,-0.29,
1.935,-0.07,0.06,0.94,-0.67,-0.14,-0.46,
1.936,-0.06,0.06,0.94,-0.67,-0.14,-0.46,
1.939,-0.05,0.06,0.94,-0.67,-0.14,-0.46,
1.939,-0.05,0.06,0.94,-0.51,-0.04,-0.50,
1.941,-0.05,0.06,0.95,-0.51,-0.04,-0.50,
1.945,-0.04,0.06,0.96,-0.51,-0.04,-0.50,
1.946,-0.04,0.06,0.96,-0.36,-0.04,-0.46,
1.946,-0.04,0.06,0.97,-0.36,-0.04,-0.46,
1.949,-0.03,0.06,0.98,-0.36,-0.04,-0.46,
1.949,-0.03,0.06,0.98,-0.30,-0.03,-0.32,
1.951,-0.03,0.06,0.99,-0.30,-0.03,-0.32,
1.953,-0.03,0.06,0.99,-0.18,0.01,-0.14,
1.954,-0.03,0.06,1.00,-0.18,0.01,-0.14,
1.956,-0.03,0.07,1.01,-0.18,0.01,-0.14,
1.958,-0.03,0.06,1.02,-0.18,0.01,-0.14,
1.959,-0.03,0.06,1.02,-0.14,0.02,0.07,
1.961,-0.03,0.06,1.03,-0.14,0.02,0.07,
1.964,-0.03,0.06,1.04,-0.14,0.02,0.07,
1.964,-0.03,0.06,1.04,-0.18,0.05,0.27,
1.967,-0.03,0.06,1.05,-0.18,0.05,0.27,
1.968,-0.02,0.05,1.06,-0.18,0.05,0.27,
1.969,-0.02,0.05,1.06,-0.14,-0.00,0.45,
1.971,-0.02,0.05,1.06,-0.14,-0.00,0.45,
1.973,-0.01,0.06,1.06,-0.14,-0.00,0.45,
1.974,-0.01,0.06,1.06,-0.12,-0.02,0.65,
1.977,-0.01,0.06,1.06,-0.12,-0.02,0.65,
1.98,-0.01,0.06,1.06,-0.02,-0.02,0.70,
1.981,-0.01,0.06,1.06,-0.02,-0.02,0.70,
1.981,-0.01,0.06,1.05,-0.02,-0.02,0.70,
1.983,-0.01,0.06,1.04,-0.02,-0.02,0.70,
1.984,-0.01,0.06,1.04,-0.00,0.01,0.69,
1.986,-0.01,0.07,1.03,-0.00,0.01,0.69,
1.988,-0.00,0.07,1.02,-0.00,0.01,0.69,
1.989,-0.00,0.07,1.02,-0.00,0.05,0.58,
1.991,0.00,0.07,1.01,-0.00,0.05,0.58,
1.999,0.00,0.07,1.00,-0.00,0.05,0.58,
2.0,0.00,0.07,1.00,0.06,0.12,0.40,
2.001,0.00,0.08,0.99,0.06,0.12,0.40,
2.001,0.00,0.08,0.99,0.15,0.17,0.20,
2.001,-0.01,0.08,0.97,0.15,0.17,0.20,
2.002,-0.02,0.09,0.95,0.15,0.17,0.20,
2.004,-0.02,0.09,0.95,0.10,0.25,-0.06,
2.004,-0.03,0.08,0.95,0.10,0.25,-0.06,
2.006,-0.04,0.09,0.94,0.10,0.25,-0.06,
2.009,-0.04,0.09,0.92,0.10,0.25,-0.06,
2.009,-0.04,0.09,0.92,-0.07,0.27,-0.37,
2.011,-0.05,0.08,0.92,-0.07,0.27,-0.37,
2.014,-0.06,0.08,0.91,-0.07,0.27,-0.37,
2.014,-0.06,0.08,0.91,-0.26,0.26,-0.55,
2.016,-0.06,0.09,0.91,-0.26,0.26,-0.55,
2.019,-0.06,0.09,0.91,-0.26,0.26,-0.55,
2.019,-0.06,0.09,0.91,-0.37,0.24,-0.69,
2.02,-0.07,0.09,0.91,-0.37,0.24,-0.69,
2.024,-0.07,0.09,0.91,-0.45,0.27,-0.78,
2.024,-0.07,0.09,0.90,-0.45,0.27,-0.78,
2.026,-0.07,0.10,0.90,-0.45,0.27,-0.78,
2.028,-0.07,0.10,0.90,-0.50,0.33,-0.80,
2.029,-0.07,0.10,0.90,-0.50,0.33,-0.80,
2.031,-0.07,0.09,0.89,-0.50,0.33,-0.80,
2.034,-0.06,0.09,0.89,-0.50,0.33,-0.80,
2.034,-0.06,0.09,0.89,-0.51,0.39,-0.87,
2.036,-0.05,0.09,0.90,-0.51,0.39,-0.87,
2.039,-0.04,0.09,0.90,-0.51,0.39,-0.87,
2.039,-0.04,0.09,0.90,-0.44,0.33,-0.90,
2.041,-0.04,0.08,0.90,-0.44,0.33,-0.90,
2.044,-0.04,0.08,0.90,-0.44,0.33,-0.90,
2.044,-0.04,0.08,0.90,-0.28,0.32,-0.85,
2.049,-0.03,0.08,0.90,-0.28,0.32,-0.85,
2.05,-0.03,0.07,0.91,-0.28,0.32,-0.85,
2.05,-0.03,0.07,0.91,-0.19,0.24,-0.82,
2.051,-0.04,0.07,0.91,-0.19,0.24,-0.82,
2.053,-0.04,0.07,0.91,-0.15,0.16,-0.77,
2.054,-0.04,0.06,0.92,-0.15,0.16,-0.77,
2.055,-0.03,0.06,0.92,-0.15,0.16,-0.77,
2.058,-0.03,0.06,0.93,-0.15,0.16,-0.77,
2.058,-0.03,0.06,0.93,-0.23,0.09,-0.67,
2.062,-0.03,0.05,0.93,-0.23,0.09,-0.67,
2.063,-0.03,0.05,0.93,-0.23,0.09,-0.67,
2.064,-0.03,0.05,0.93,-0.15,0.05,-0.61,
2.068,-0.03,0.05,0.94,-0.15,0.05,-0.61,
2.068,-0.04,0.04,0.94,-0.15,0.05,-0.61,
2.068,-0.04,0.04,0.94,-0.13,-0.01,-0.52,
2.071,-0.04,0.04,0.96,-0.13,-0.01,-0.52,
2.073,-0.04,0.03,0.96,-0.13,-0.01,-0.52,
2.073,-0.04,0.03,0.96,-0.20,-0.08,-0.44,
2.075,-0.05,0.02,0.97,-0.20,-0.08,-0.44,
2.078,-0.05,0.02,0.97,-0.28,-0.19,-0.25,
2.079,-0.04,0.02,0.98,-0.28,-0.19,-0.25,
2.081,-0.04,0.02,0.99,-0.28,-0.19,-0.25,
2.084,-0.03,0.01,1.00,-0.28,-0.19,-0.25,
2.084,-0.03,0.01,1.00,-0.30,-0.26,-0.12,
2.085,-0.02,0.01,1.00,-0.30,-0.26,-0.12,
2.088,-0.02,0.01,1.00,-0.21,-0.33,0.06,
2.088,-0.01,0.01,1.01,-0.21,-0.33,0.06,
2.091,-0.01,0.01,1.01,-0.21,-0.33,0.06,
2.093,0.00,0.01,1.01,-0.21,-0.33,0.06,
2.093,0.00,0.01,1.01,-0.05,-0.34,0.18,
2.096,0.01,0.01,1.02,-0.05,-0.34,0.18,
2.098,0.02,0.01,1.02,-0.05,-0.34,0.18,
2.098,0.02,0.01,1.02,0.08,-0.35,0.24,
2.1,0.03,0.01,1.01,0.08,-0.35,0.24,
2.103,0.03,0.01,1.01,0.27,-0.36,0.30,
2.104,0.03,0.01,1.01,0.27,-0.36,0.30,
2.106,0.04,0.01,1.00,0.27,-0.36,0.30,
2.108,0.05,0.02,0.99,0.27,-0.36,0.30,
2.108,0.05,0.02,0.99,0.37,-0.35,0.22,
2.111,0.04,0.02,0.98,0.37,-0.35,0.22,
2.114,0.04,0.03,0.96,0.37,-0.35,0.22,
2.114,0.04,0.03,0.96,0.49,-0.27,0.06,
2.116,0.03,0.04,0.95,0.49,-0.27,0.06,
2.118,0.03,0.04,0.94,0.49,-0.27,0.06,
2.118,0.03,0.04,0.94,0.46,-0.18,-0.17,
2.12,0.02,0.05,0.92,0.46,-0.18,-0.17,
2.123,0.02,0.05,0.90,0.46,-0.18,-0.17,
2.123,0.02,0.05,0.90,0.36,-0.04,-0.40,
2.125,0.01,0.05,0.88,0.36,-0.04,-0.40,
2.128,0.01,0.05,0.88,0.25,0.04,-0.74,
2.128,0.01,0.06,0.86,0.25,0.04,-0.74,
2.13,0.01,0.06,0.84,0.25,0.04,-0.74,
2.133,0.01,0.06,0.83,0.25,0.04,-0.74,
2.133,0.01,0.06,0.83,0.14,0.12,-1.12,
2.136,0.01,0.07,0.81,0.14,0.12,-1.12,
2.138,0.02,0.07,0.79,0.14,0.12,-1.12,
2.139,0.02,0.07,0.79,0.17,0.19,-1.50,
2.141,0.03,0.07,0.78,0.17,0.19,-1.50,
2.145,0.03,0.07,0.77,0.17,0.19,-1.50,
2.145,0.03,0.07,0.77,0.24,0.25,-1.81,
2.146,0.04,0.07,0.76,0.24,0.25,-1.81,
2.15,0.05,0.07,0.75,0.24,0.25,-1.81,
2.151,0.05,0.07,0.75,0.37,0.28,-2.08,
2.151,0.06,0.07,0.76,0.37,0.28,-2.08,
2.152,0.06,0.07,0.76,0.53,0.28,-2.23,
2.153,0.07,0.07,0.76,0.53,0.28,-2.23,
2.155,0.07,0.07,0.77,0.53,0.28,-2.23,
2.158,0.07,0.07,0.79,0.53,0.28,-2.23,
2.158,0.07,0.07,0.79,0.69,0.29,-2.16,
2.16,0.07,0.06,0.80,0.69,0.29,-2.16,
2.166,0.08,0.06,0.82,0.69,0.29,-2.16,
2.167,0.08,0.06,0.82,0.77,0.27,-2.00,
2.167,0.08,0.05,0.84,0.77,0.27,-2.00,
2.167,0.08,0.04,0.87,0.77,0.27,-2.00,
2.167,0.08,0.04,0.87,0.84,0.21,-1.69,
2.169,0.09,0.04,0.89,0.84,0.21,-1.69,
2.172,0.09,0.03,0.92,0.84,0.21,-1.69,
2.172,0.09,0.03,0.92,0.90,0.11,-1.25,
2.174,0.08,0.02,0.94,0.90,0.11,-1.25,
2.177,0.09,0.02,0.97,0.90,0.11,-1.25,
2.178,0.09,0.02,0.97,0.94,-0.01,-0.78,
2.181,0.09,0.02,0.99,0.94,-0.01,-0.78,
2.182,0.10,0.01,1.00,0.94,-0.01,-0.78,
2.182,0.10,0.01,1.00,0.90,-0.11,-0.28,
2.184,0.09,-0.00,1.02,0.90,-0.11,-0.28,
2.187,0.10,0.00,1.03,0.90,-0.11,-0.28,
2.187,0.10,0.00,1.03,0.98,-0.14,0.11,
2.19,0.11,-0.00,1.04,0.98,-0.14,0.11,
2.192,0.11,-0.01,1.05,0.98,-0.14,0.11,
2.192,0.11,-0.01,1.05,1.02,-0.24,0.41,
2.194,0.12,-0.01,1.06,1.02,-0.24,0.41,
2.197,0.13,-0.02,1.06,1.02,-0.24,0.41,
2.197,0.13,-0.02,1.06,1.11,-0.26,0.61,
2.199,0.14,-0.02,1.07,1.11,-0.26,0.61,
2.201,0.14,-0.02,1.07,1.25,-0.34,0.75,
2.202,0.15,-0.03,1.06,1.25,-0.34,0.75,
2.204,0.15,-0.03,1.07,1.25,-0.34,0.75,
2.207,0.15,-0.02,1.06,1.25,-0.34,0.75,
2.207,0.15,-0.02,1.06,1.44,-0.41,0.79,
2.209,0.15,-0.03,1.06,1.44,-0.41,0.79,
2.213,0.14,-0.02,1.05,1.44,-0.41,0.79,
2.214,0.14,-0.02,1.05,1.53,-0.39,0.76,
2.214,0.14,-0.02,1.04,1.53,-0.39,0.76,
2.216,0.13,-0.02,1.03,1.53,-0.39,0.76,
2.217,0.13,-0.02,1.03,1.47,-0.38,0.66,
2.219,0.12,-0.01,1.03,1.47,-0.38,0.66,
2.222,0.12,-0.01,1.03,1.36,-0.29,0.51,
2.222,0.12,-0.01,1.02,1.36,-0.29,0.51,
2.224,0.11,-0.01,1.01,1.36,-0.29,0.51,
2.227,0.11,-0.01,1.01,1.20,-0.19,0.37,
2.227,0.10,-0.01,1.00,1.20,-0.19,0.37,
2.229,0.09,-0.00,1.00,1.20,-0.19,0.37,
2.232,0.09,-0.00,1.00,1.20,-0.19,0.37,
2.232,0.09,-0.00,1.00,1.09,-0.16,0.23,
2.234,0.09,-0.00,0.99,1.09,-0.16,0.23,
2.237,0.08,-0.01,0.98,1.09,-0.16,0.23,
2.237,0.08,-0.01,0.98,0.95,-0.09,0.15,
2.239,0.08,-0.01,0.98,0.95,-0.09,0.15,
2.242,0.08,-0.00,0.98,0.95,-0.09,0.15,
2.242,0.08,-0.00,0.98,0.86,-0.11,-0.01,
2.244,0.09,-0.01,0.96,0.86,-0.11,-0.01,
2.253,0.09,-0.01,0.97,0.86,-0.11,-0.01,
2.253,0.09,-0.01,0.97,0.89,-0.09,-0.05,
2.254,0.09,-0.01,0.97,0.89,-0.09,-0.05,
2.254,0.09,-0.01,0.97,0.96,-0.12,-0.19,
2.254,0.09,-0.01,0.96,0.96,-0.12,-0.19,
2.254,0.09,-0.02,0.96,0.96,-0.12,-0.19,
2.257,0.08,-0.02,0.96,0.96,-0.12,-0.19,
2.257,0.08,-0.02,0.96,0.98,-0.12,-0.23,
2.259,0.08,-0.03,0.96,0.98,-0.12,-0.23,
2.261,0.07,-0.03,0.97,0.98,-0.12,-0.23,
2.262,0.07,-0.03,0.97,0.96,-0.17,-0.24,
2.269,0.07,-0.03,0.98,0.96,-0.17,-0.24,
2.27,0.06,-0.03,0.99,0.96,-0.17,-0.24,
2.27,0.06,-0.03,0.99,0.87,-0.25,-0.16,
2.27,0.06,-0.04,1.00,0.87,-0.25,-0.16,
2.271,0.04,-0.04,1.00,0.87,-0.25,-0.16,
2.271,0.04,-0.04,1.00,0.79,-0.30,-0.02,
2.273,0.03,-0.04,1.01,0.79,-0.30,-0.02,
2.276,0.03,-0.04,1.01,0.65,-0.34,0.13,
2.276,0.02,-0.04,1.02,0.65,-0.34,0.13,
2.297,0.00,-0.04,1.03,0.65,-0.34,0.13,
2.298,-0.01,-0.03,1.04,0.65,-0.34,0.13,
2.299,-0.01,-0.03,1.04,0.39,-0.34,0.33,
2.299,-0.02,-0.03,1.04,0.39,-0.34,0.33,
2.299,-0.02,-0.03,1.04,0.39,-0.34,0.33,
2.3,-0.02,-0.03,1.04,0.13,-0.28,0.50,
2.3,-0.03,-0.03,1.05,0.13,-0.28,0.50,
2.3,-0.03,-0.03,1.05,0.13,-0.28,0.50,
2.301,-0.03,-0.03,1.05,-0.02,-0.21,0.58,
2.301,-0.03,-0.03,1.04,-0.02,-0.21,0.58,
2.301,-0.03,-0.03,1.04,-0.02,-0.21,0.58,
2.301,-0.03,-0.03,1.04,-0.10,-0.15,0.60,
2.302,-0.02,-0.03,1.04,-0.10,-0.15,0.60,
2.302,-0.02,-0.03,1.04,-0.12,-0.15,0.58,
2.302,-0.02,-0.03,1.03,-0.12,-0.15,0.58,
2.302,-0.01,-0.03,1.03,-0.12,-0.15,0.58,
2.305,-0.00,-0.03,1.02,-0.12,-0.15,0.58,
2.307,-0.00,-0.03,1.02,-0.02,-0.15,0.49,
2.308,0.00,-0.04,1.02,-0.02,-0.15,0.49,
2.31,0.01,-0.04,1.02,-0.02,-0.15,0.49,
2.31,0.01,-0.04,1.02,0.12,-0.14,0.40,
2.313,0.01,-0.04,1.02,0.12,-0.14,0.40,
2.316,0.02,-0.04,1.02,0.12,-0.14,0.40,
2.316,0.02,-0.04,1.02,0.24,-0.18,0.33,
2.317,0.03,-0.04,1.02,0.24,-0.18,0.33,
2.32,0.04,-0.04,1.02,0.24,-0.18,0.33,
2.321,0.04,-0.04,1.02,0.37,-0.18,0.32,
2.323,0.04,-0.05,1.02,0.37,-0.18,0.32,
2.326,0.04,-0.05,1.02,0.53,-0.20,0.33,
2.326,0.05,-0.05,1.01,0.53,-0.20,0.33,
2.328,0.05,-0.05,1.01,0.53,-0.20,0.33,
2.331,0.05,-0.05,1.01,0.53,-0.20,0.33,
2.331,0.05,-0.05,1.01,0.66,-0.22,0.28,
2.332,0.05,-0.05,1.01,0.66,-0.22,0.28,
2.335,0.05,-0.05,1.01,0.66,-0.22,0.28,
2.335,0.05,-0.05,1.01,0.71,-0.20,0.28,
2.338,0.04,-0.05,1.00,0.71,-0.20,0.28,
2.341,0.04,-0.05,1.00,0.67,-0.18,0.22,
2.341,0.03,-0.05,0.99,0.67,-0.18,0.22,
2.343,0.03,-0.05,0.99,0.67,-0.18,0.22,
2.347,0.03,-0.05,0.98,0.67,-0.18,0.22,
2.348,0.03,-0.05,0.98,0.58,-0.18,0.09,
2.348,0.02,-0.05,0.98,0.58,-0.18,0.09,
2.35,0.02,-0.05,0.98,0.48,-0.21,-0.01,
2.35,0.02,-0.05,0.98,0.48,-0.21,-0.01,
2.353,0.02,-0.05,0.97,0.48,-0.21,-0.01,
2.356,0.02,-0.05,0.97,0.42,-0.15,-0.08,
2.358,0.01,-0.06,0.97,0.42,-0.15,-0.08,
2.358,0.01,-0.06,0.98,0.42,-0.15,-0.08,
2.36,0.01,-0.06,0.98,0.39,-0.19,-0.10,
2.36,0.01,-0.06,0.97,0.39,-0.19,-0.10,
2.367,0.01,-0.07,0.97,0.39,-0.19,-0.10,
2.368,0.01,-0.08,0.98,0.39,-0.19,-0.10,
2.369,0.01,-0.08,0.98,0.34,-0.23,-0.10,
2.369,0.01,-0.08,0.99,0.34,-0.23,-0.10,
2.37,0.01,-0.08,0.99,0.36,-0.34,-0.08,
2.37,0.01,-0.08,0.99,0.36,-0.34,-0.08,
2.373,0.01,-0.09,1.00,0.36,-0.34,-0.08,
2.375,0.01,-0.09,1.00,0.35,-0.35,0.04,
2.375,0.01,-0.08,1.00,0.35,-0.35,0.04,
2.377,0.01,-0.09,1.01,0.35,-0.35,0.04,
2.382,0.01,-0.09,1.02,0.35,-0.35,0.04,
2.382,0.01,-0.09,1.02,0.37,-0.40,0.14,
2.382,0.01,-0.09,1.03,0.37,-0.40,0.14,
2.385,0.01,-0.09,1.03,0.39,-0.44,0.31,
2.385,0.02,-0.09,1.04,0.39,-0.44,0.31,
2.387,0.03,-0.09,1.05,0.39,-0.44,0.31,
2.39,0.04,-0.10,1.06,0.39,-0.44,0.31,
2.39,0.04,-0.10,1.06,0.45,-0.38,0.47,
2.392,0.05,-0.11,1.07,0.45,-0.38,0.47,
2.395,0.06,-0.11,1.07,0.45,-0.38,0.47,
2.395,0.06,-0.11,1.07,0.60,-0.48,0.67,
2.398,0.07,-0.12,1.08,0.60,-0.48,0.67,
2.4,0.07,-0.12,1.08,0.82,-0.53,0.84,
2.401,0.07,-0.12,1.08,0.82,-0.53,0.84,
2.402,0.08,-0.11,1.09,0.82,-0.53,0.84,
2.404,0.08,-0.11,1.10,0.82,-0.53,0.84,
2.405,0.08,-0.11,1.10,0.97,-0.59,0.96,
2.407,0.08,-0.12,1.10,0.97,-0.59,0.96,
2.41,0.09,-0.11,1.10,0.97,-0.59,0.96,
2.41,0.09,-0.11,1.10,1.06,-0.55,1.10,
2.412,0.09,-0.11,1.10,1.06,-0.55,1.10,
2.414,0.09,-0.11,1.10,1.06,-0.55,1.10,
2.415,0.09,-0.11,1.10,1.10,-0.54,1.15,
2.417,0.08,-0.11,1.09,1.10,-0.54,1.15,
2.419,0.09,-0.12,1.08,1.10,-0.54,1.15,
2.42,0.09,-0.12,1.08,1.10,-0.50,1.12,
2.422,0.09,-0.12,1.08,1.10,-0.50,1.12,
2.425,0.09,-0.12,1.07,1.10,-0.50,1.12,
2.425,0.09,-0.12,1.07,1.09,-0.51,0.96,
2.427,0.09,-0.12,1.06,1.09,-0.51,0.96,
2.43,0.09,-0.13,1.05,1.09,-0.51,0.96,
2.431,0.09,-0.13,1.05,1.11,-0.56,0.86,
2.431,0.09,-0.13,1.05,1.11,-0.56,0.86,
2.435,0.10,-0.13,1.05,1.11,-0.56,0.86,
2.435,0.10,-0.13,1.05,1.14,-0.58,0.69,
2.437,0.10,-0.14,1.04,1.14,-0.58,0.69,
2.44,0.10,-0.14,1.04,1.14,-0.58,0.69,
2.44,0.10,-0.14,1.04,1.19,-0.64,0.63,
2.442,0.10,-0.14,1.04,1.19,-0.64,0.63,
2.445,0.11,-0.14,1.05,1.19,-0.64,0.63,
2.445,0.11,-0.14,1.05,1.21,-0.68,0.56,
2.447,0.11,-0.14,1.05,1.21,-0.68,0.56,
2.449,0.11,-0.14,1.05,1.29,-0.67,0.59,
2.45,0.11,-0.13,1.04,1.29,-0.67,0.59,
2.452,0.11,-0.13,1.05,1.29,-0.67,0.59,
2.454,0.11,-0.13,1.05,1.29,-0.67,0.59,
2.455,0.11,-0.13,1.05,1.31,-0.60,0.58,
2.457,0.09,-0.14,1.06,1.31,-0.60,0.58,
2.46,0.09,-0.14,1.06,1.31,-0.60,0.58,
2.46,0.09,-0.14,1.06,1.28,-0.57,0.64,
2.462,0.08,-0.14,1.05,1.28,-0.57,0.64,
2.465,0.08,-0.14,1.05,1.12,-0.62,0.71,
2.466,0.07,-0.14,1.05,1.12,-0.62,0.71,
2.466,0.06,-0.14,1.05,1.12,-0.62,0.71,
2.469,0.06,-0.14,1.05,0.93,-0.67,0.66,
2.47,0.05,-0.14,1.04,0.93,-0.67,0.66,
2.473,0.05,-0.15,1.04,0.93,-0.67,0.66,
2.475,0.05,-0.15,1.04,0.74,-0.66,0.60,
2.475,0.06,-0.14,1.03,0.74,-0.66,0.60,
2.477,0.07,-0.15,1.01,0.74,-0.66,0.60,
2.479,0.08,-0.15,0.99,0.74,-0.66,0.60,
2.479,0.08,-0.15,0.99,0.74,-0.67,0.46,
2.487,0.09,-0.14,0.97,0.74,-0.67,0.46,
2.488,0.09,-0.14,0.95,0.74,-0.67,0.46,
2.488,0.09,-0.14,0.95,0.91,-0.69,0.15,
2.489,0.10,-0.14,0.93,0.91,-0.69,0.15,
2.489,0.10,-0.13,0.91,0.91,-0.69,0.15,
2.49,0.10,-0.13,0.91,1.08,-0.59,-0.23,
2.491,0.11,-0.13,0.89,1.08,-0.59,-0.23,
2.494,0.12,-0.12,0.89,1.08,-0.59,-0.23,
2.494,0.12,-0.12,0.89,1.17,-0.56,-0.63,
2.504,0.12,-0.12,0.88,1.17,-0.56,-0.63,
2.505,0.12,-0.12,0.88,1.31,-0.46,-0.93,
2.505,0.13,-0.13,0.87,1.31,-0.46,-0.93,
2.505,0.13,-0.13,0.86,1.31,-0.46,-0.93,
2.506,0.14,-0.13,0.86,1.31,-0.46,-0.93,
2.506,0.14,-0.13,0.86,1.40,-0.44,-1.11,
2.506,0.13,-0.13,0.87,1.40,-0.44,-1.11,
2.509,0.14,-0.12,0.87,1.40,-0.44,-1.11,
2.509,0.14,-0.12,0.87,1.50,-0.47,-1.23,
2.511,0.13,-0.12,0.89,1.50,-0.47,-1.23,
2.515,0.12,-0.11,0.91,1.50,-0.47,-1.23,
2.515,0.12,-0.11,0.91,1.49,-0.38,-1.10,
2.515,0.11,-0.11,0.93,1.49,-0.38,-1.10,
2.518,0.10,-0.10,0.95,1.49,-0.38,-1.10,
2.518,0.10,-0.10,0.95,1.37,-0.28,-0.81,
2.521,0.09,-0.11,0.97,1.37,-0.28,-0.81,
2.524,0.09,-0.11,0.97,1.22,-0.17,-0.46,
2.525,0.08,-0.11,0.99,1.22,-0.17,-0.46,
2.527,0.07,-0.11,1.00,1.22,-0.17,-0.46,
2.531,0.05,-0.12,1.02,1.22,-0.17,-0.46,
2.532,0.05,-0.12,1.02,0.99,-0.20,-0.03,
2.532,0.04,-0.12,1.03,0.99,-0.20,-0.03,
2.534,0.03,-0.12,1.04,0.99,-0.20,-0.03,
2.534,0.03,-0.12,1.04,0.75,-0.22,0.27,
2.536,0.02,-0.12,1.05,0.75,-0.22,0.27,
2.538,0.02,-0.12,1.05,0.75,-0.22,0.27,
2.539,0.02,-0.12,1.05,0.48,-0.25,0.56,
2.542,0.01,-0.13,1.05,0.48,-0.25,0.56,
2.544,0.01,-0.12,1.06,0.48,-0.25,0.56,
2.544,0.01,-0.12,1.06,0.36,-0.23,0.68,
2.547,0.01,-0.12,1.06,0.36,-0.23,0.68,
2.549,0.01,-0.12,1.06,0.26,-0.26,0.71,
2.549,0.01,-0.12,1.06,0.26,-0.26,0.71,
2.551,0.00,-0.11,1.06,0.26,-0.26,0.71,
2.554,0.00,-0.11,1.05,0.26,-0.26,0.71,
2.554,0.00,-0.11,1.05,0.23,-0.19,0.75,
2.556,0.01,-0.12,1.04,0.23,-0.19,0.75,
2.559,0.00,-0.12,1.04,0.23,-0.19,0.75,
2.559,0.00,-0.12,1.04,0.19,-0.11,0.70,
2.562,0.01,-0.12,1.03,0.19,-0.11,0.70,
2.565,0.01,-0.11,1.02,0.19,-0.11,0.70,
2.565,0.01,-0.11,1.02,0.21,-0.11,0.57,
2.566,0.01,-0.11,1.02,0.21,-0.11,0.57,
2.568,0.02,-0.11,1.01,0.21,-0.11,0.57,
2.569,0.02,-0.11,1.01,0.23,-0.10,0.43,
2.57,0.03,-0.11,1.01,0.23,-0.10,0.43,
2.574,0.03,-0.11,1.01,0.35,-0.06,0.32,
2.574,0.03,-0.10,1.01,0.35,-0.06,0.32,
2.576,0.04,-0.10,1.01,0.35,-0.06,0.32,
2.578,0.04,-0.10,1.01,0.35,-0.06,0.32,
2.579,0.04,-0.10,1.01,0.45,0.06,0.26,
2.582,0.04,-0.11,1.01,0.45,0.06,0.26,
2.584,0.04,-0.11,1.01,0.54,0.10,0.29,
2.584,0.04,-0.11,1.02,0.54,0.10,0.29,
2.585,0.05,-0.11,1.03,0.54,0.10,0.29,
2.589,0.05,-0.10,1.03,0.54,0.10,0.29,
2.589,0.05,-0.10,1.03,0.58,0.03,0.33,
2.591,0.05,-0.10,1.05,0.58,0.03,0.33,
2.593,0.06,-0.10,1.06,0.58,0.03,0.33,
2.594,0.06,-0.10,1.06,0.66,0.03,0.49,
2.596,0.06,-0.09,1.07,0.66,0.03,0.49,
2.602,0.06,-0.09,1.07,0.67,0.16,0.68,
2.603,0.05,-0.09,1.08,0.67,0.16,0.68,
2.604,0.05,-0.09,1.09,0.67,0.16,0.68,
2.604,0.05,-0.10,1.11,0.67,0.16,0.68,
2.604,0.05,-0.10,1.11,0.70,0.23,0.92,
2.604,0.04,-0.10,1.12,0.70,0.23,0.92,
2.607,0.02,-0.11,1.13,0.70,0.23,0.92,
2.607,0.02,-0.11,1.13,0.64,0.20,1.16,
2.61,0.02,-0.11,1.13,0.64,0.20,1.16,
2.617,0.01,-0.11,1.14,0.64,0.20,1.16,
2.617,0.01,-0.11,1.14,0.48,0.12,1.39,
2.618,-0.00,-0.11,1.15,0.48,0.12,1.39,
2.618,-0.01,-0.11,1.15,0.48,0.12,1.39,
2.618,-0.01,-0.11,1.15,0.26,0.08,1.52,
2.619,-0.03,-0.11,1.15,0.26,0.08,1.52,
2.623,-0.03,-0.11,1.15,0.08,0.09,1.63,
2.623,-0.03,-0.11,1.15,0.08,0.09,1.63,
2.625,-0.04,-0.11,1.15,0.08,0.09,1.63,
2.628,-0.04,-0.11,1.15,0.08,0.09,1.63,
2.628,-0.04,-0.11,1.15,-0.15,0.10,1.65,
2.631,-0.04,-0.11,1.15,-0.15,0.10,1.65,
2.633,-0.03,-0.11,1.14,-0.15,0.10,1.65,
2.634,-0.03,-0.11,1.14,-0.24,0.12,1.67,
2.635,-0.03,-0.11,1.13,-0.24,0.12,1.67,
2.64,-0.03,-0.11,1.13,-0.24,0.12,1.67,
2.64,-0.03,-0.11,1.13,-0.21,0.12,1.59,
2.642,-0.02,-0.11,1.12,-0.21,0.12,1.59,
2.643,-0.02,-0.11,1.10,-0.21,0.12,1.59,
2.643,-0.02,-0.11,1.10,-0.16,0.13,1.45,
2.645,-0.01,-0.11,1.10,-0.16,0.13,1.45,
2.648,-0.01,-0.11,1.10,-0.03,0.14,1.24,
2.649,-0.00,-0.11,1.09,-0.03,0.14,1.24,
2.65,0.00,-0.11,1.08,-0.03,0.14,1.24,
2.652,0.01,-0.11,1.07,-0.03,0.14,1.24,
2.653,0.01,-0.11,1.07,0.09,0.14,1.06,
2.655,0.02,-0.11,1.06,0.09,0.14,1.06,
2.658,0.03,-0.11,1.05,0.09,0.14,1.06,
2.658,0.03,-0.11,1.05,0.20,0.15,0.93,
2.66,0.04,-0.11,1.04,0.20,0.15,0.93,
2.662,0.05,-0.11,1.03,0.20,0.15,0.93,
2.663,0.05,-0.11,1.03,0.36,0.12,0.71,
2.666,0.06,-0.10,1.02,0.36,0.12,0.71,
2.666,0.07,-0.10,1.02,0.36,0.12,0.71,
2.667,0.07,-0.10,1.02,0.61,0.15,0.50,
2.67,0.07,-0.11,1.01,0.61,0.15,0.50,
2.672,0.07,-0.11,1.01,0.76,0.20,0.35,
2.673,0.08,-0.11,1.01,0.76,0.20,0.35,
2.675,0.07,-0.12,1.01,0.76,0.20,0.35,
2.681,0.06,-0.12,1.02,0.76,0.20,0.35,
2.682,0.06,-0.12,1.02,0.86,0.15,0.28,
2.682,0.06,-0.12,1.03,0.86,0.15,0.28,
2.682,0.06,-0.12,1.03,0.86,0.15,0.28,
2.683,0.06,-0.12,1.03,0.81,0.06,0.32,
2.687,0.05,-0.12,1.04,0.81,0.06,0.32,
2.688,0.04,-0.12,1.05,0.81,0.06,0.32,
2.688,0.04,-0.12,1.05,0.69,0.08,0.44,
2.689,0.04,-0.12,1.05,0.69,0.08,0.44,
2.692,0.03,-0.12,1.06,0.69,0.08,0.44,
2.692,0.03,-0.12,1.06,0.58,0.08,0.57,
2.695,0.01,-0.12,1.07,0.58,0.08,0.57,
2.7,0.01,-0.12,1.07,0.44,0.06,0.69,
2.701,0.01,-0.12,1.08,0.44,0.06,0.69,
2.701,0.00,-0.11,1.07,0.44,0.06,0.69,
2.701,-0.01,-0.12,1.09,0.44,0.06,0.69,
2.701,-0.01,-0.12,1.09,0.25,0.05,0.87,
2.704,-0.01,-0.11,1.09,0.25,0.05,0.87,
2.706,-0.01,-0.11,1.09,0.09,0.11,0.93,
2.707,-0.01,-0.11,1.09,0.09,0.11,0.93,
2.709,-0.01,-0.11,1.09,0.09,0.11,0.93,
2.712,-0.02,-0.12,1.09,0.09,0.11,0.93,
2.712,-0.02,-0.12,1.09,-0.00,0.15,1.03,
2.714,-0.02,-0.12,1.08,-0.00,0.15,1.03,
2.717,-0.02,-0.12,1.07,-0.00,0.15,1.03,
2.717,-0.02,-0.12,1.07,-0.05,0.11,1.04,
2.719,-0.02,-0.12,1.06,-0.05,0.11,1.04,
2.722,-0.02,-0.12,1.06,-0.07,0.08,0.89,
2.722,-0.03,-0.12,1.06,-0.07,0.08,0.89,
2.724,-0.04,-0.12,1.04,-0.07,0.08,0.89,
2.727,-0.05,-0.12,1.04,-0.07,0.08,0.89,
2.727,-0.05,-0.12,1.04,-0.17,0.04,0.74,
2.729,-0.06,-0.12,1.02,-0.17,0.04,0.74,
2.732,-0.06,-0.12,1.01,-0.17,0.04,0.74,
2.732,-0.06,-0.12,1.01,-0.32,0.02,0.55,
2.734,-0.06,-0.11,1.00,-0.32,0.02,0.55,
2.737,-0.07,-0.11,0.99,-0.32,0.02,0.55,
2.737,-0.07,-0.11,0.99,-0.45,0.06,0.32,
2.739,-0.06,-0.10,0.98,-0.45,0.06,0.32,
2.741,-0.06,-0.10,0.98,-0.52,0.16,0.10,
2.741,-0.05,-0.10,0.96,-0.52,0.16,0.10,
2.743,-0.04,-0.09,0.95,-0.52,0.16,0.10,
2.746,-0.04,-0.09,0.95,-0.45,0.27,-0.15,
2.747,-0.03,-0.10,0.93,-0.45,0.27,-0.15,
2.749,-0.02,-0.09,0.92,-0.45,0.27,-0.15,
2.752,-0.00,-0.09,0.91,-0.45,0.27,-0.15,
2.752,-0.00,-0.09,0.91,-0.27,0.28,-0.43,
2.753,0.02,-0.09,0.90,-0.27,0.28,-0.43,
2.756,0.03,-0.09,0.90,-0.27,0.28,-0.43,
2.757,0.03,-0.09,0.90,-0.02,0.29,-0.70,
2.759,0.05,-0.09,0.89,-0.02,0.29,-0.70,
2.762,0.06,-0.08,0.89,-0.02,0.29,-0.70,
2.762,0.06,-0.08,0.89,0.31,0.31,-0.85,
2.765,0.07,-0.08,0.90,0.31,0.31,-0.85,
2.766,0.08,-0.07,0.90,0.31,0.31,-0.85,
2.766,0.08,-0.07,0.90,0.60,0.38,-0.89,
2.769,0.08,-0.08,0.92,0.60,0.38,-0.89,
2.772,0.08,-0.08,0.92,0.78,0.47,-0.81,
2.772,0.07,-0.08,0.93,0.78,0.47,-0.81,
2.774,0.07,-0.08,0.94,0.78,0.47,-0.81,
2.776,0.07,-0.09,0.95,0.78,0.47,-0.81,
2.776,0.07,-0.09,0.95,0.78,0.41,-0.61,
2.779,0.06,-0.09,0.97,0.78,0.41,-0.61,
2.782,0.06,-0.09,0.99,0.78,0.41,-0.61,
2.783,0.06,-0.09,0.99,0.76,0.37,-0.37,
2.784,0.04,-0.10,1.00,0.76,0.37,-0.37,
2.786,0.03,-0.10,1.01,0.76,0.37,-0.37,
2.786,0.03,-0.10,1.01,0.63,0.33,-0.04,
2.789,0.02,-0.10,1.02,0.63,0.33,-0.04,
2.792,0.02,-0.11,1.03,0.63,0.33,-0.04,
2.792,0.02,-0.11,1.03,0.42,0.23,0.21,
2.794,0.02,-0.12,1.04,0.42,0.23,0.21,
2.796,0.02,-0.12,1.04,0.29,0.17,0.43,
2.797,0.01,-0.12,1.05,0.29,0.17,0.43,
2.799,0.01,-0.12,1.05,0.29,0.17,0.43,
2.801,0.00,-0.13,1.05,0.29,0.17,0.43,
2.804,0.00,-0.13,1.05,0.18,0.09,0.58,
2.804,-0.00,-0.13,1.05,0.18,0.09,0.58,
2.806,-0.00,-0.13,1.05,0.14,0.02,0.62,
2.807,-0.00,-0.13,1.04,0.14,0.02,0.62,
2.808,-0.01,-0.13,1.04,0.14,0.02,0.62,
2.811,-0.01,-0.14,1.03,0.14,0.02,0.62,
2.811,-0.01,-0.14,1.03,0.07,-0.05,0.58,
2.813,-0.02,-0.13,1.02,0.07,-0.05,0.58,
2.821,-0.02,-0.14,1.02,0.07,-0.05,0.58,
2.822,-0.02,-0.14,1.02,-0.04,-0.06,0.47,
2.822,-0.03,-0.14,1.02,-0.04,-0.06,0.47,
2.823,-0.03,-0.14,1.02,-0.11,-0.06,0.38,
2.823,-0.03,-0.14,1.01,-0.11,-0.06,0.38,
2.823,-0.03,-0.14,1.01,-0.11,-0.06,0.38,
2.825,-0.02,-0.15,1.02,-0.11,-0.06,0.38,
2.825,-0.02,-0.15,1.02,-0.18,-0.12,0.31,
2.827,-0.03,-0.14,1.02,-0.18,-0.12,0.31,
2.836,-0.03,-0.14,1.02,-0.18,-0.12,0.31,
2.837,-0.03,-0.14,1.02,-0.17,-0.16,0.30,
2.837,-0.02,-0.14,1.01,-0.17,-0.16,0.30,
2.837,-0.02,-0.14,1.01,-0.17,-0.16,0.30,
2.838,-0.02,-0.14,1.01,-0.17,-0.16,0.32,
2.838,-0.02,-0.14,1.01,-0.17,-0.16,0.32,
2.84,-0.02,-0.14,1.01,-0.17,-0.16,0.32,
2.84,-0.02,-0.14,1.01,-0.09,-0.13,0.28,
2.842,-0.02,-0.14,1.01,-0.09,-0.13,0.28,
2.845,-0.02,-0.14,1.01,-0.13,-0.14,0.25,
2.845,-0.02,-0.14,1.02,-0.13,-0.14,0.25,
2.847,-0.01,-0.14,1.02,-0.13,-0.14,0.25,
2.85,-0.01,-0.14,1.02,-0.13,-0.14,0.25,
2.85,-0.01,-0.14,1.02,-0.08,-0.08,0.31,
2.852,-0.01,-0.14,1.02,-0.08,-0.08,0.31,
2.856,-0.01,-0.13,1.02,-0.08,-0.08,0.31,
2.856,-0.01,-0.13,1.02,-0.04,-0.08,0.33,
2.858,-0.01,-0.13,1.03,-0.04,-0.08,0.33,
2.86,-0.01,-0.14,1.03,-0.04,-0.08,0.33,
2.86,-0.01,-0.14,1.03,0.00,-0.05,0.38,
2.862,-0.00,-0.14,1.02,0.00,-0.05,0.38,
2.865,-0.00,-0.14,1.02,0.00,-0.05,0.38,
2.865,-0.00,-0.14,1.02,0.00,-0.07,0.47,
2.868,-0.00,-0.14,1.01,0.00,-0.07,0.47,
2.87,-0.00,-0.14,1.01,0.06,-0.11,0.34,
2.87,-0.00,-0.14,1.01,0.06,-0.11,0.34,
2.872,-0.00,-0.13,1.00,0.06,-0.11,0.34,
2.875,-0.00,-0.13,1.00,0.06,-0.11,0.34,
2.875,-0.00,-0.13,1.00,0.07,-0.12,0.29,
2.877,-0.01,-0.13,1.00,0.07,-0.12,0.29,
2.882,-0.01,-0.13,0.99,0.07,-0.12,0.29,
2.883,-0.01,-0.13,0.99,0.07,-0.04,0.18,
2.883,-0.02,-0.13,1.00,0.07,-0.04,0.18,
2.885,-0.02,-0.13,0.99,0.07,-0.04,0.18,
2.885,-0.02,-0.13,0.99,0.03,-0.05,0.10,
2.888,-0.01,-0.12,0.99,0.03,-0.05,0.10,
2.89,-0.02,-0.12,0.99,0.03,-0.05,0.10,
2.89,-0.02,-0.12,0.99,-0.03,-0.00,0.10,
2.892,-0.02,-0.12,0.99,-0.03,-0.00,0.10,
2.895,-0.02,-0.12,0.99,-0.04,0.03,0.06,
2.895,-0.02,-0.12,0.98,-0.04,0.03,0.06,
2.897,-0.03,-0.12,0.99,-0.04,0.03,0.06,
2.899,-0.03,-0.12,0.99,-0.04,0.03,0.06,
2.9,-0.03,-0.12,0.99,-0.05,0.07,0.03,
2.902,-0.04,-0.12,1.00,-0.05,0.07,0.03,
2.905,-0.04,-0.12,1.00,-0.05,0.07,0.03,
2.905,-0.04,-0.12,1.00,-0.15,0.06,0.04,
2.907,-0.04,-0.12,1.00,-0.15,0.06,0.04,
2.91,-0.05,-0.12,1.01,-0.15,0.06,0.04,
2.91,-0.05,-0.12,1.01,-0.24,0.05,0.15,
2.912,-0.05,-0.12,1.02,-0.24,0.05,0.15,
2.919,-0.05,-0.12,1.02,-0.30,0.08,0.22,
2.919,-0.06,-0.12,1.02,-0.30,0.08,0.22,
2.919,-0.07,-0.13,1.03,-0.30,0.08,0.22,
2.92,-0.07,-0.13,1.03,-0.41,0.06,0.34,
2.92,-0.08,-0.13,1.03,-0.41,0.06,0.34,
2.921,-0.09,-0.12,1.03,-0.41,0.06,0.34,
2.924,-0.10,-0.12,1.05,-0.41,0.06,0.34,
2.925,-0.10,-0.12,1.05,-0.60,-0.03,0.43,
2.926,-0.10,-0.11,1.06,-0.60,-0.03,0.43,
2.93,-0.11,-0.11,1.07,-0.60,-0.03,0.43,
2.93,-0.11,-0.11,1.07,-0.72,0.02,0.54,
2.932,-0.11,-0.11,1.07,-0.72,0.02,0.54,
2.934,-0.11,-0.11,1.07,-0.72,0.02,0.54,
2.935,-0.11,-0.11,1.07,-0.82,0.14,0.75,
2.936,-0.11,-0.11,1.08,-0.82,0.14,0.75,
2.94,-0.11,-0.11,1.08,-0.82,0.14,0.75,
2.94,-0.11,-0.11,1.08,-0.89,0.15,0.84,
2.942,-0.11,-0.11,1.08,-0.89,0.15,0.84,
2.944,-0.11,-0.11,1.08,-0.89,0.12,0.93,
2.945,-0.11,-0.11,1.08,-0.89,0.12,0.93,
2.947,-0.11,-0.12,1.08,-0.89,0.12,0.93,
2.949,-0.10,-0.11,1.08,-0.89,0.12,0.93,
2.949,-0.10,-0.11,1.08,-0.89,0.09,0.88,
2.951,-0.09,-0.11,1.08,-0.89,0.09,0.88,
2.954,-0.08,-0.11,1.07,-0.89,0.09,0.88,
2.955,-0.08,-0.11,1.07,-0.78,0.04,0.91,
2.957,-0.07,-0.11,1.07,-0.78,0.04,0.91,
2.959,-0.07,-0.12,1.06,-0.78,0.04,0.91,
2.96,-0.07,-0.12,1.06,-0.61,0.09,0.89,
2.961,-0.07,-0.12,1.06,-0.61,0.09,0.89,
2.966,-0.07,-0.12,1.06,-0.47,0.04,0.79,
2.967,-0.06,-0.11,1.06,-0.47,0.04,0.79,
2.971,-0.05,-0.11,1.05,-0.47,0.04,0.79,
2.972,-0.05,-0.11,1.05,-0.43,0.01,0.72,
2.972,-0.04,-0.11,1.05,-0.43,0.01,0.72,
2.972,-0.04,-0.11,1.05,-0.43,0.01,0.72,
2.974,-0.03,-0.11,1.05,-0.43,0.01,0.72,
2.975,-0.03,-0.11,1.05,-0.25,0.05,0.64,
2.977,-0.02,-0.11,1.04,-0.25,0.05,0.64,
2.979,-0.01,-0.11,1.03,-0.25,0.05,0.64,
2.979,-0.01,-0.11,1.03,-0.09,0.07,0.62,
2.982,-0.00,-0.11,1.03,-0.09,0.07,0.62,
2.983,-0.01,-0.12,1.02,-0.09,0.07,0.62,
2.983,-0.01,-0.12,1.02,0.09,0.06,0.48,
2.987,-0.02,-0.12,1.01,0.09,0.06,0.48,
2.989,-0.03,-0.12,1.01,0.09,0.06,0.48,
2.989,-0.03,-0.12,1.01,0.16,-0.00,0.38,
2.991,-0.04,-0.12,1.01,0.16,-0.00,0.38,
2.994,-0.04,-0.12,1.01,0.16,-0.00,0.38,
2.994,-0.04,-0.12,1.01,-0.01,-0.06,0.25,
2.996,-0.05,-0.12,1.01,-0.01,-0.06,0.25,
2.999,-0.05,-0.13,1.02,-0.01,-0.06,0.25,
3.0,-0.05,-0.13,1.02,-0.18,-0.10,0.20,
3.002,-0.06,-0.12,1.02,-0.18,-0.10,0.20,
3.003,-0.06,-0.12,1.03,-0.18,-0.10,0.20,
3.004,-0.06,-0.12,1.03,-0.26,-0.12,0.26,
3.006,-0.06,-0.12,1.03,-0.26,-0.12,0.26,
3.008,-0.06,-0.13,1.03,-0.26,-0.12,0.26,
3.009,-0.06,-0.13,1.03,-0.32,-0.13,0.33,
3.01,-0.07,-0.13,1.03,-0.32,-0.13,0.33,
3.013,-0.08,-0.13,1.03,-0.32,-0.13,0.33,
3.014,-0.08,-0.13,1.03,-0.35,-0.15,0.40,
3.015,-0.09,-0.14,1.03,-0.35,-0.15,0.40,
3.019,-0.09,-0.14,1.03,-0.35,-0.15,0.40,
3.019,-0.09,-0.14,1.03,-0.49,-0.24,0.40,
3.021,-0.10,-0.13,1.03,-0.49,-0.24,0.40,
3.024,-0.10,-0.13,1.03,-0.49,-0.24,0.40,
3.024,-0.10,-0.13,1.03,-0.63,-0.28,0.41,
3.026,-0.09,-0.12,1.03,-0.63,-0.28,0.41,
3.029,-0.08,-0.11,1.03,-0.63,-0.28,0.41,
3.029,-0.08,-0.11,1.03,-0.72,-0.21,0.42,
3.035,-0.08,-0.11,1.03,-0.72,-0.21,0.42,
3.036,-0.07,-0.11,1.02,-0.72,-0.21,0.42,
3.036,-0.07,-0.11,1.02,-0.61,-0.08,0.41,
3.036,-0.06,-0.11,1.02,-0.61,-0.08,0.41,
3.038,-0.04,-0.11,1.01,-0.61,-0.08,0.41,
3.039,-0.04,-0.11,1.01,-0.49,-0.07,0.34,
3.04,-0.04,-0.11,1.00,-0.49,-0.07,0.34,
3.043,-0.03,-0.12,1.00,-0.49,-0.07,0.34,
3.043,-0.03,-0.12,1.00,-0.28,-0.09,0.22,
3.046,-0.02,-0.12,1.00,-0.28,-0.09,0.22,
3.049,-0.00,-0.11,1.00,-0.28,-0.09,0.22,
3.049,-0.00,-0.11,1.00,-0.09,-0.13,0.09,
3.051,-0.00,-0.12,1.00,-0.09,-0.13,0.09,
3.053,0.01,-0.11,1.00,-0.09,-0.13,0.09,
3.053,0.01,-0.11,1.00,0.10,-0.13,0.07,
3.056,0.01,-0.12,1.01,0.10,-0.13,0.07,
3.058,0.02,-0.12,1.01,0.10,-0.13,0.07,
3.059,0.02,-0.12,1.01,0.22,-0.11,0.08,
3.062,0.03,-0.12,1.01,0.22,-0.11,0.08,
3.063,0.04,-0.13,1.01,0.22,-0.11,0.08,
3.064,0.04,-0.13,1.01,0.36,-0.17,0.14,
3.066,0.04,-0.13,1.01,0.36,-0.17,0.14,
3.069,0.04,-0.14,1.01,0.36,-0.17,0.14,
3.069,0.04,-0.14,1.01,0.50,-0.23,0.21,
3.07,0.04,-0.14,1.01,0.50,-0.23,0.21,
3.073,0.03,-0.14,1.00,0.50,-0.23,0.21,
3.073,0.03,-0.14,1.00,0.56,-0.33,0.18,
3.076,0.02,-0.14,1.00,0.56,-0.33,0.18,
3.079,0.02,-0.14,1.00,0.56,-0.33,0.18,
3.079,0.02,-0.14,1.00,0.50,-0.37,0.13,
3.081,0.01,-0.15,1.00,0.50,-0.37,0.13,
3.084,0.00,-0.15,1.00,0.50,-0.37,0.13,
3.084,0.00,-0.15,1.00,0.34,-0.41,0.08,
3.086,-0.00,-0.15,0.99,0.34,-0.41,0.08,
3.088,-0.00,-0.15,0.99,0.34,-0.41,0.08,
3.088,-0.00,-0.15,0.99,0.20,-0.46,0.07,
3.091,-0.01,-0.15,0.99,0.20,-0.46,0.07,
3.093,-0.02,-0.15,0.98,0.20,-0.46,0.07,
3.094,-0.02,-0.15,0.98,0.12,-0.51,-0.02,
3.095,-0.03,-0.15,0.97,0.12,-0.51,-0.02,
3.098,-0.04,-0.14,0.96,0.12,-0.51,-0.02,
3.098,-0.04,-0.14,0.96,-0.00,-0.53,-0.12,
3.101,-0.04,-0.14,0.96,-0.00,-0.53,-0.12,
3.103,-0.05,-0.13,0.96,-0.00,-0.53,-0.12,
3.104,-0.05,-0.13,0.96,-0.19,-0.48,-0.29,
3.106,-0.05,-0.12,0.95,-0.19,-0.48,-0.29,
3.108,-0.05,-0.12,0.95,-0.19,-0.48,-0.29,
3.109,-0.05,-0.12,0.95,-0.32,-0.35,-0.32,
3.11,-0.06,-0.12,0.95,-0.32,-0.35,-0.32,
3.114,-0.06,-0.12,0.94,-0.32,-0.35,-0.32,
3.114,-0.06,-0.12,0.94,-0.34,-0.25,-0.44,
3.117,-0.07,-0.12,0.92,-0.34,-0.25,-0.44,
3.119,-0.07,-0.12,0.92,-0.34,-0.25,-0.44,
3.12,-0.07,-0.12,0.92,-0.41,-0.27,-0.51,
3.12,-0.08,-0.13,0.91,-0.41,-0.27,-0.51,
3.123,-0.08,-0.13,0.91,-0.41,-0.27,-0.51,
3.123,-0.08,-0.13,0.91,-0.51,-0.29,-0.70,
3.125,-0.08,-0.13,0.91,-0.51,-0.29,-0.70,
3.128,-0.08,-0.13,0.91,-0.51,-0.29,-0.70,
3.128,-0.08,-0.13,0.91,-0.57,-0.32,-0.81,
3.131,-0.08,-0.12,0.90,-0.57,-0.32,-0.81,
3.135,-0.08,-0.12,0.91,-0.57,-0.32,-0.81,
3.135,-0.08,-0.12,0.91,-0.59,-0.33,-0.81,
3.135,-0.08,-0.13,0.91,-0.59,-0.33,-0.81,
3.142,-0.08,-0.13,0.91,-0.59,-0.33,-0.81,
3.143,-0.08,-0.13,0.91,-0.59,-0.30,-0.82,
3.143,-0.08,-0.13,0.92,-0.59,-0.30,-0.82,
3.143,-0.09,-0.13,0.92,-0.59,-0.30,-0.82,
3.143,-0.09,-0.13,0.92,-0.57,-0.39,-0.74,
3.146,-0.09,-0.14,0.93,-0.57,-0.39,-0.74,
3.147,-0.09,-0.14,0.94,-0.57,-0.39,-0.74,
3.147,-0.09,-0.14,0.94,-0.64,-0.40,-0.67,
3.151,-0.10,-0.14,0.95,-0.64,-0.40,-0.67,
3.152,-0.11,-0.14,0.95,-0.64,-0.40,-0.67,
3.153,-0.11,-0.14,0.95,-0.73,-0.44,-0.49,
3.154,-0.11,-0.14,0.96,-0.73,-0.44,-0.49,
3.158,-0.11,-0.15,0.97,-0.73,-0.44,-0.49,
3.158,-0.11,-0.15,0.97,-0.82,-0.47,-0.36,
3.16,-0.11,-0.14,0.97,-0.82,-0.47,-0.36,
3.163,-0.11,-0.15,0.98,-0.82,-0.47,-0.36,
3.163,-0.11,-0.15,0.98,-0.86,-0.49,-0.22,
3.165,-0.10,-0.15,0.98,-0.86,-0.49,-0.22,
3.168,-0.10,-0.15,0.98,-0.86,-0.49,-0.22,
3.168,-0.10,-0.15,0.98,-0.84,-0.52,-0.13,
3.17,-0.10,-0.15,0.97,-0.84,-0.52,-0.13,
3.172,-0.11,-0.15,0.96,-0.84,-0.52,-0.13,
3.172,-0.11,-0.15,0.96,-0.80,-0.53,-0.11,
3.174,-0.11,-0.15,0.96,-0.80,-0.53,-0.11,
3.177,-0.11,-0.15,0.96,-0.80,-0.53,-0.11,
3.178,-0.11,-0.15,0.96,-0.80,-0.55,-0.21,
3.18,-0.11,-0.14,0.96,-0.80,-0.55,-0.21,
3.182,-0.10,-0.14,0.95,-0.80,-0.55,-0.21,
3.182,-0.10,-0.14,0.95,-0.83,-0.52,-0.28,
3.185,-0.10,-0.14,0.95,-0.83,-0.52,-0.28,
3.187,-0.09,-0.14,0.93,-0.83,-0.52,-0.28,
3.187,-0.09,-0.14,0.93,-0.78,-0.48,-0.35,
3.189,-0.09,-0.14,0.93,-0.78,-0.48,-0.35,
3.193,-0.09,-0.14,0.92,-0.78,-0.48,-0.35,
3.194,-0.09,-0.14,0.92,-0.68,-0.46,-0.47,
3.194,-0.09,-0.14,0.92,-0.68,-0.46,-0.47,
3.197,-0.10,-0.14,0.92,-0.68,-0.46,-0.47,
3.197,-0.10,-0.14,0.92,-0.63,-0.44,-0.61,
3.2,-0.10,-0.13,0.90,-0.63,-0.44,-0.61,
3.202,-0.10,-0.13,0.90,-0.63,-0.44,-0.61,
3.202,-0.10,-0.13,0.90,-0.67,-0.41,-0.66,
3.203,-0.11,-0.13,0.91,-0.67,-0.41,-0.66,
3.207,-0.12,-0.12,0.91,-0.67,-0.41,-0.66,
3.207,-0.12,-0.12,0.91,-0.75,-0.36,-0.80,
3.209,-0.12,-0.11,0.90,-0.75,-0.36,-0.80,
3.212,-0.12,-0.11,0.90,-0.75,-0.36,-0.80,
3.212,-0.12,-0.11,0.90,-0.87,-0.25,-0.75,
3.214,-0.13,-0.10,0.90,-0.87,-0.25,-0.75,
3.216,-0.13,-0.11,0.89,-0.87,-0.25,-0.75,
3.217,-0.13,-0.11,0.89,-0.92,-0.15,-0.79,
3.218,-0.13,-0.11,0.89,-0.92,-0.15,-0.79,
3.222,-0.13,-0.11,0.89,-0.92,-0.15,-0.79,
3.222,-0.13,-0.11,0.89,-1.00,-0.11,-0.83,
3.224,-0.14,-0.11,0.88,-1.00,-0.11,-0.83,
3.227,-0.13,-0.11,0.88,-1.00,-0.11,-0.83,
3.227,-0.13,-0.11,0.88,-1.02,-0.15,-0.93,
3.229,-0.14,-0.11,0.87,-1.02,-0.15,-0.93,
3.232,-0.14,-0.10,0.87,-1.02,-0.15,-0.93,
3.232,-0.14,-0.10,0.87,-1.02,-0.12,-0.98,
3.235,-0.14,-0.10,0.86,-1.02,-0.12,-0.98,
3.236,-0.14,-0.11,0.87,-1.02,-0.12,-0.98,
3.237,-0.14,-0.11,0.87,-1.03,-0.12,-1.09,
3.239,-0.15,-0.11,0.87,-1.03,-0.12,-1.09,
3.242,-0.15,-0.11,0.87,-1.03,-0.12,-1.09,
3.242,-0.15,-0.11,0.87,-1.04,-0.11,-1.12,
3.244,-0.15,-0.10,0.87,-1.04,-0.11,-1.12,
3.247,-0.15,-0.10,0.86,-1.04,-0.11,-1.12,
3.247,-0.15,-0.10,0.86,-1.08,-0.10,-1.09,
3.249,-0.16,-0.11,0.87,-1.08,-0.10,-1.09,
3.256,-0.16,-0.11,0.87,-1.08,-0.10,-1.09,
3.257,-0.16,-0.11,0.87,-1.09,-0.07,-1.08,
3.258,-0.16,-0.11,0.88,-1.09,-0.07,-1.08,
3.258,-0.17,-0.11,0.88,-1.09,-0.07,-1.08,
3.258,-0.17,-0.11,0.88,-1.19,-0.12,-1.07,
3.259,-0.17,-0.11,0.89,-1.19,-0.12,-1.07,
3.261,-0.17,-0.11,0.89,-1.19,-0.12,-1.07,
3.261,-0.17,-0.11,0.89,-1.22,-0.11,-0.95,
3.263,-0.17,-0.11,0.89,-1.22,-0.11,-0.95,
3.273,-0.17,-0.11,0.89,-1.22,-0.11,-0.95,
3.274,-0.17,-0.11,0.89,-1.26,-0.13,-0.87,
3.274,-0.18,-0.11,0.89,-1.26,-0.13,-0.87,
3.274,-0.17,-0.12,0.89,-1.26,-0.13,-0.87,
3.274,-0.17,-0.12,0.89,-1.26,-0.13,-0.84,
3.275,-0.17,-0.12,0.90,-1.26,-0.13,-0.84,
3.275,-0.17,-0.12,0.90,-1.26,-0.13,-0.84,
3.276,-0.17,-0.12,0.90,-1.26,-0.15,-0.79,
3.278,-0.16,-0.13,0.90,-1.26,-0.15,-0.79,
3.28,-0.16,-0.13,0.91,-1.26,-0.15,-0.79,
3.28,-0.16,-0.13,0.91,-1.19,-0.16,-0.72,
3.282,-0.17,-0.13,0.92,-1.19,-0.16,-0.72,
3.285,-0.17,-0.13,0.92,-1.19,-0.16,-0.72,
3.286,-0.17,-0.13,0.92,-1.11,-0.22,-0.63,
3.288,-0.17,-0.13,0.92,-1.11,-0.22,-0.63,
3.29,-0.16,-0.12,0.93,-1.11,-0.22,-0.63,
3.29,-0.16,-0.12,0.93,-1.17,-0.24,-0.53,
3.292,-0.16,-0.13,0.94,-1.17,-0.24,-0.53,
3.295,-0.17,-0.13,0.94,-1.17,-0.24,-0.53,
3.298,-0.17,-0.13,0.94,-1.18,-0.20,-0.47,
3.298,-0.17,-0.12,0.93,-1.18,-0.20,-0.47,
3.302,-0.16,-0.12,0.95,-1.18,-0.20,-0.47,
3.302,-0.16,-0.12,0.95,-1.14,-0.18,-0.33,
3.303,-0.16,-0.13,0.95,-1.14,-0.18,-0.33,
3.305,-0.16,-0.13,0.95,-1.14,-0.18,-0.33,
3.306,-0.16,-0.13,0.95,-1.12,-0.15,-0.32,
3.308,-0.16,-0.13,0.95,-1.12,-0.15,-0.32,
3.311,-0.15,-0.13,0.95,-1.12,-0.15,-0.32,
3.311,-0.15,-0.13,0.95,-1.06,-0.17,-0.23,
3.313,-0.14,-0.13,0.95,-1.06,-0.17,-0.23,
3.321,-0.14,-0.13,0.94,-1.06,-0.17,-0.23,
3.322,-0.14,-0.13,0.94,-1.03,-0.21,-0.22,
3.322,-0.14,-0.13,0.94,-1.03,-0.21,-0.22,
3.323,-0.14,-0.13,0.94,-1.03,-0.21,-0.22,
3.323,-0.14,-0.13,0.94,-0.93,-0.22,-0.28,
3.323,-0.13,-0.14,0.94,-0.93,-0.22,-0.28,
3.326,-0.13,-0.13,0.93,-0.93,-0.22,-0.28,
3.326,-0.13,-0.13,0.93,-0.88,-0.21,-0.30,
3.328,-0.13,-0.13,0.93,-0.88,-0.21,-0.30,
3.331,-0.14,-0.13,0.92,-0.88,-0.21,-0.30,
3.331,-0.14,-0.13,0.92,-0.78,-0.18,-0.37,
3.332,-0.15,-0.13,0.91,-0.78,-0.18,-0.37,
3.336,-0.15,-0.14,0.91,-0.78,-0.18,-0.37,
3.336,-0.15,-0.14,0.91,-0.83,-0.12,-0.46,
3.338,-0.15,-0.14,0.91,-0.83,-0.12,-0.46,
3.34,-0.15,-0.14,0.91,-0.83,-0.12,-0.46,
3.341,-0.15,-0.14,0.91,-0.95,-0.18,-0.56,
3.343,-0.15,-0.14,0.91,-0.95,-0.18,-0.56,
3.346,-0.15,-0.14,0.91,-0.95,-0.18,-0.56,
3.346,-0.15,-0.14,0.91,-0.96,-0.24,-0.58,
3.348,-0.15,-0.14,0.92,-0.96,-0.24,-0.58,
3.354,-0.14,-0.14,0.92,-0.96,-0.24,-0.58,
3.354,-0.14,-0.14,0.92,-0.90,-0.24,-0.59,
3.354,-0.15,-0.14,0.92,-0.90,-0.24,-0.59,
3.355,-0.15,-0.14,0.92,-0.87,-0.21,-0.52,
3.355,-0.16,-0.15,0.93,-0.87,-0.21,-0.52,
3.357,-0.16,-0.15,0.93,-0.87,-0.21,-0.52,
3.36,-0.17,-0.15,0.94,-0.87,-0.21,-0.52,
3.36,-0.17,-0.15,0.94,-0.95,-0.23,-0.42,
3.362,-0.17,-0.15,0.95,-0.95,-0.23,-0.42,
3.366,-0.17,-0.15,0.96,-0.95,-0.23,-0.42,
3.366,-0.17,-0.15,0.96,-1.06,-0.24,-0.33,
3.368,-0.17,-0.16,0.96,-1.06,-0.24,-0.33,
3.37,-0.17,-0.16,0.96,-1.06,-0.24,-0.33,
3.37,-0.17,-0.16,0.96,-1.10,-0.24,-0.17,
3.372,-0.17,-0.16,0.97,-1.10,-0.24,-0.17,
3.375,-0.17,-0.16,0.97,-1.07,-0.31,-0.05,
3.375,-0.17,-0.17,0.98,-1.07,-0.31,-0.05,
3.378,-0.16,-0.16,0.97,-1.07,-0.31,-0.05,
3.38,-0.16,-0.16,0.97,-1.07,-0.31,-0.05,
3.381,-0.16,-0.16,0.97,-1.08,-0.32,0.06,
3.382,-0.16,-0.16,0.97,-1.08,-0.32,0.06,
3.385,-0.16,-0.15,0.97,-1.08,-0.32,0.06,
3.385,-0.16,-0.15,0.97,-0.99,-0.28,0.05,
3.387,-0.16,-0.16,0.97,-0.99,-0.28,0.05,
3.39,-0.17,-0.15,0.96,-0.99,-0.28,0.05,
3.39,-0.17,-0.15,0.96,-1.01,-0.23,0.05,
3.392,-0.17,-0.15,0.97,-1.01,-0.23,0.05,
3.395,-0.17,-0.15,0.95,-1.01,-0.23,0.05,
3.396,-0.17,-0.15,0.95,-1.01,-0.20,-0.02,
3.397,-0.17,-0.15,0.95,-1.01,-0.20,-0.02,
3.401,-0.17,-0.15,0.95,-1.01,-0.20,-0.02,
3.402,-0.17,-0.15,0.95,-1.08,-0.13,-0.06,
3.402,-0.17,-0.15,0.95,-1.08,-0.13,-0.06,
3.406,-0.18,-0.15,0.94,-1.08,-0.13,-0.06,
3.406,-0.18,-0.15,0.94,-1.07,-0.13,-0.17,
3.407,-0.17,-0.15,0.93,-1.07,-0.13,-0.17,
3.41,-0.17,-0.16,0.93,-1.07,-0.13,-0.17,
3.411,-0.17,-0.16,0.93,-1.10,-0.14,-0.23,
3.412,-0.17,-0.15,0.92,-1.10,-0.14,-0.23,
3.415,-0.16,-0.15,0.93,-1.10,-0.14,-0.23,
3.415,-0.16,-0.15,0.93,-1.03,-0.15,-0.36,
3.418,-0.17,-0.16,0.92,-1.03,-0.15,-0.36,
3.42,-0.17,-0.16,0.93,-1.03,-0.15,-0.36,
3.421,-0.17,-0.16,0.93,-0.98,-0.12,-0.39,
3.422,-0.18,-0.16,0.93,-0.98,-0.12,-0.39,
3.425,-0.18,-0.16,0.93,-0.98,-0.12,-0.39,
3.425,-0.18,-0.16,0.93,-1.01,-0.15,-0.40,
3.427,-0.18,-0.17,0.93,-1.01,-0.15,-0.40,
3.43,-0.19,-0.17,0.94,-1.01,-0.15,-0.40,
3.43,-0.19,-0.17,0.94,-1.08,-0.18,-0.33,
3.432,-0.20,-0.18,0.94,-1.08,-0.18,-0.33,
3.435,-0.21,-0.18,0.95,-1.08,-0.18,-0.33,
3.436,-0.21,-0.18,0.95,-1.13,-0.24,-0.29,
3.438,-0.21,-0.19,0.94,-1.13,-0.24,-0.29,
3.441,-0.22,-0.19,0.94,-1.13,-0.24,-0.29,
3.441,-0.22,-0.19,0.94,-1.27,-0.32,-0.20,
3.441,-0.22,-0.20,0.94,-1.27,-0.32,-0.20,
3.445,-0.23,-0.21,0.93,-1.27,-0.32,-0.20,
3.445,-0.23,-0.21,0.93,-1.37,-0.38,-0.21,
3.447,-0.23,-0.21,0.92,-1.37,-0.38,-0.21,
3.45,-0.24,-0.21,0.92,-1.37,-0.38,-0.21,
3.45,-0.24,-0.21,0.92,-1.51,-0.49,-0.29,
3.453,-0.24,-0.22,0.92,-1.51,-0.49,-0.29,
3.455,-0.24,-0.22,0.91,-1.51,-0.49,-0.29,
3.455,-0.24,-0.22,0.91,-1.55,-0.57,-0.41,
3.457,-0.24,-0.22,0.90,-1.55,-0.57,-0.41,
3.46,-0.23,-0.22,0.90,-1.55,-0.57,-0.41,
3.46,-0.23,-0.22,0.90,-1.60,-0.63,-0.49,
3.464,-0.22,-0.22,0.89,-1.60,-0.63,-0.49,
3.464,-0.22,-0.22,0.89,-1.60,-0.63,-0.49,
3.465,-0.22,-0.22,0.89,-1.52,-0.64,-0.64,
3.474,-0.21,-0.21,0.89,-1.52,-0.64,-0.64,
3.475,-0.21,-0.21,0.90,-1.52,-0.64,-0.64,
3.476,-0.21,-0.21,0.90,-1.37,-0.65,-0.68,
3.476,-0.20,-0.21,0.90,-1.37,-0.65,-0.68,
3.476,-0.21,-0.21,0.90,-1.37,-0.65,-0.68,
3.477,-0.21,-0.21,0.90,-1.28,-0.54,-0.64,
3.477,-0.21,-0.21,0.90,-1.28,-0.54,-0.64,
3.478,-0.21,-0.20,0.90,-1.28,-0.54,-0.64,
3.479,-0.21,-0.20,0.90,-1.23,-0.49,-0.61,
3.481,-0.21,-0.20,0.90,-1.23,-0.49,-0.61,
3.488,-0.22,-0.19,0.90,-1.23,-0.49,-0.61,
3.488,-0.22,-0.19,0.90,-1.27,-0.41,-0.59,
3.489,-0.22,-0.18,0.90,-1.27,-0.41,-0.59,
3.489,-0.22,-0.18,0.90,-1.31,-0.30,-0.59,
3.489,-0.22,-0.18,0.89,-1.31,-0.30,-0.59,
3.49,-0.22,-0.18,0.89,-1.31,-0.30,-0.59,
3.493,-0.22,-0.17,0.88,-1.31,-0.30,-0.59,
3.493,-0.22,-0.17,0.88,-1.34,-0.14,-0.63,
3.495,-0.23,-0.18,0.87,-1.34,-0.14,-0.63,
3.498,-0.23,-0.17,0.87,-1.34,-0.14,-0.63,
3.498,-0.23,-0.17,0.87,-1.39,-0.09,-0.75,
3.5,-0.23,-0.17,0.86,-1.39,-0.09,-0.75,
3.503,-0.23,-0.17,0.86,-1.39,-0.09,-0.75,
3.503,-0.23,-0.17,0.86,-1.43,-0.04,-0.84,
3.506,-0.23,-0.17,0.86,-1.43,-0.04,-0.84,
3.509,-0.23,-0.17,0.86,-1.43,-0.04,-0.84,
3.509,-0.23,-0.17,0.86,-1.43,-0.02,-0.96,
3.511,-0.23,-0.17,0.86,-1.43,-0.02,-0.96,
3.514,-0.24,-0.17,0.86,-1.43,-0.02,-0.96,
3.514,-0.24,-0.17,0.86,-1.45,0.00,-0.98,
3.516,-0.24,-0.17,0.87,-1.45,0.00,-0.98,
3.519,-0.24,-0.18,0.87,-1.45,0.00,-0.98,
3.519,-0.24,-0.18,0.87,-1.50,0.00,-1.00,
3.521,-0.23,-0.18,0.88,-1.50,0.00,-1.00,
3.524,-0.23,-0.18,0.89,-1.50,0.00,-1.00,
3.524,-0.23,-0.18,0.89,-1.53,0.00,-0.90,
3.526,-0.23,-0.18,0.89,-1.53,0.00,-0.90,
3.529,-0.23,-0.19,0.90,-1.53,0.00,-0.90,
3.53,-0.23,-0.19,0.90,-1.45,-0.04,-0.74,
3.531,-0.23,-0.19,0.91,-1.45,-0.04,-0.74,
3.533,-0.22,-0.20,0.92,-1.45,-0.04,-0.74,
3.534,-0.22,-0.20,0.92,-1.39,-0.06,-0.57,
3.537,-0.23,-0.20,0.93,-1.39,-0.06,-0.57,
3.539,-0.23,-0.21,0.94,-1.39,-0.06,-0.57,
3.539,-0.23,-0.21,0.94,-1.35,-0.11,-0.43,
3.541,-0.23,-0.21,0.95,-1.35,-0.11,-0.43,
3.544,-0.22,-0.21,0.96,-1.35,-0.11,-0.43,
3.544,-0.22,-0.21,0.96,-1.37,-0.18,-0.23,
3.546,-0.22,-0.21,0.97,-1.37,-0.18,-0.23,
3.549,-0.22,-0.21,0.97,-1.36,-0.24,0.01,
3.549,-0.23,-0.21,0.97,-1.36,-0.24,0.01,
3.552,-0.23,-0.22,0.99,-1.36,-0.24,0.01,
3.553,-0.22,-0.22,0.99,-1.36,-0.24,0.01,
3.554,-0.22,-0.22,0.99,-1.34,-0.24,0.15,
3.556,-0.23,-0.22,0.99,-1.34,-0.24,0.15,
3.559,-0.24,-0.22,1.00,-1.34,-0.24,0.15,
3.56,-0.24,-0.22,1.00,-1.33,-0.25,0.33,
3.561,-0.24,-0.22,1.00,-1.33,-0.25,0.33,
3.564,-0.25,-0.21,1.00,-1.33,-0.25,0.33,
3.564,-0.25,-0.21,1.00,-1.40,-0.24,0.39,
3.566,-0.26,-0.21,1.01,-1.40,-0.24,0.39,
3.572,-0.26,-0.21,1.01,-1.40,-0.24,0.39,
3.573,-0.26,-0.21,1.01,-1.50,-0.20,0.46,
3.573,-0.27,-0.22,1.02,-1.50,-0.20,0.46,
3.573,-0.27,-0.22,1.02,-1.50,-0.20,0.46,
3.574,-0.27,-0.22,1.02,-1.60,-0.15,0.54,
3.575,-0.27,-0.21,1.03,-1.60,-0.15,0.54,
3.578,-0.27,-0.22,1.03,-1.60,-0.15,0.54,
3.578,-0.27,-0.22,1.03,-1.71,-0.16,0.68,
3.581,-0.27,-0.22,1.03,-1.71,-0.16,0.68,
3.585,-0.27,-0.22,1.03,-1.69,-0.14,0.72,
3.585,-0.27,-0.22,1.03,-1.69,-0.14,0.72,
3.585,-0.28,-0.22,1.04,-1.69,-0.14,0.72,
3.588,-0.28,-0.22,1.04,-1.69,-0.14,0.72,
3.588,-0.28,-0.22,1.04,-1.65,-0.18,0.75,
3.59,-0.28,-0.22,1.05,-1.65,-0.18,0.75,
3.593,-0.29,-0.21,1.05,-1.65,-0.18,0.75,
3.593,-0.29,-0.21,1.05,-1.71,-0.14,0.82,
3.596,-0.29,-0.21,1.04,-1.71,-0.14,0.82,
3.598,-0.29,-0.21,1.05,-1.71,-0.14,0.82,
3.598,-0.29,-0.21,1.05,-1.74,-0.04,0.90,
3.6,-0.29,-0.21,1.05,-1.74,-0.04,0.90,
3.603,-0.28,-0.22,1.04,-1.74,-0.04,0.90,
3.604,-0.28,-0.22,1.04,-1.74,0.01,0.89,
3.606,-0.28,-0.21,1.04,-1.74,0.01,0.89,
3.608,-0.28,-0.21,1.04,-1.72,-0.03,0.90,
3.609,-0.28,-0.21,1.03,-1.72,-0.03,0.90,
3.611,-0.28,-0.22,1.02,-1.72,-0.03,0.90,
3.613,-0.28,-0.21,1.01,-1.72,-0.03,0.90,
3.613,-0.28,-0.21,1.01,-1.67,0.02,0.76,
3.617,-0.28,-0.22,1.01,-1.67,0.02,0.76,
3.617,-0.28,-0.22,1.00,-1.67,0.02,0.76,
3.618,-0.28,-0.22,1.00,-1.57,0.02,0.58,
3.62,-0.28,-0.22,0.99,-1.57,0.02,0.58,
3.623,-0.28,-0.22,0.99,-1.57,0.02,0.58,
3.623,-0.28,-0.22,0.99,-1.57,0.01,0.47,
3.625,-0.28,-0.22,0.99,-1.57,0.01,0.47,
3.628,-0.27,-0.21,0.99,-1.57,0.01,0.47,
3.628,-0.27,-0.21,0.99,-1.57,0.03,0.39,
3.63,-0.26,-0.21,0.99,-1.57,0.03,0.39,
3.632,-0.26,-0.22,0.99,-1.57,0.03,0.39,
3.633,-0.26,-0.22,0.99,-1.51,0.08,0.35,
3.637,-0.26,-0.22,0.99,-1.51,0.08,0.35,
3.638,-0.26,-0.22,0.99,-1.39,0.10,0.35,
3.638,-0.26,-0.22,0.99,-1.39,0.10,0.35,
3.64,-0.25,-0.22,1.00,-1.39,0.10,0.35,
3.643,-0.25,-0.22,1.00,-1.39,0.10,0.35,
3.643,-0.25,-0.22,1.00,-1.35,0.07,0.35,
3.645,-0.25,-0.23,1.00,-1.35,0.07,0.35,
3.647,-0.25,-0.23,1.01,-1.35,0.07,0.35,
3.648,-0.25,-0.23,1.01,-1.27,0.05,0.42,
3.65,-0.25,-0.23,1.01,-1.27,0.05,0.42,
3.653,-0.25,-0.23,1.02,-1.27,0.05,0.42,
3.653,-0.25,-0.23,1.02,-1.24,-0.01,0.53,
3.655,-0.25,-0.24,1.03,-1.24,-0.01,0.53,
3.657,-0.26,-0.24,1.04,-1.24,-0.01,0.53,
3.657,-0.26,-0.24,1.04,-1.26,-0.03,0.66,
3.66,-0.26,-0.25,1.05,-1.26,-0.03,0.66,
3.662,-0.26,-0.25,1.05,-1.23,-0.10,0.82,
3.663,-0.26,-0.25,1.05,-1.23,-0.10,0.82,
3.665,-0.26,-0.25,1.05,-1.23,-0.10,0.82,
3.667,-0.27,-0.26,1.06,-1.23,-0.10,0.82,
3.667,-0.27,-0.26,1.06,-1.30,-0.16,0.98,
3.669,-0.26,-0.26,1.07,-1.30,-0.16,0.98,
3.672,-0.26,-0.26,1.07,-1.30,-0.16,0.98,
3.672,-0.26,-0.26,1.07,-1.31,-0.21,1.05,
3.675,-0.26,-0.26,1.08,-1.31,-0.21,1.05,
3.677,-0.25,-0.26,1.08,-1.31,-0.21,1.05,
3.678,-0.25,-0.26,1.08,-1.25,-0.20,1.16,
3.68,-0.25,-0.26,1.09,-1.25,-0.20,1.16,
3.682,-0.24,-0.26,1.09,-1.25,-0.20,1.16,
3.683,-0.24,-0.26,1.09,-1.19,-0.19,1.30,
3.684,-0.23,-0.26,1.09,-1.19,-0.19,1.30,
3.691,-0.23,-0.26,1.09,-1.09,-0.22,1.38,
3.692,-0.23,-0.26,1.10,-1.09,-0.22,1.38,
3.692,-0.22,-0.26,1.10,-1.09,-0.22,1.38,
3.693,-0.22,-0.26,1.11,-1.09,-0.22,1.38,
3.693,-0.22,-0.26,1.11,-0.96,-0.22,1.45,
3.694,-0.22,-0.26,1.10,-0.96,-0.22,1.45,
3.696,-0.22,-0.25,1.10,-0.96,-0.22,1.45,
3.697,-0.22,-0.25,1.10,-0.86,-0.20,1.53,
3.699,-0.21,-0.25,1.10,-0.86,-0.20,1.53,
3.703,-0.22,-0.25,1.09,-0.86,-0.20,1.53,
3.704,-0.22,-0.25,1.09,-0.81,-0.13,1.54,
3.704,-0.22,-0.25,1.08,-0.81,-0.13,1.54,
3.706,-0.22,-0.25,1.08,-0.81,-0.13,1.54,
3.707,-0.22,-0.25,1.08,-0.77,-0.08,1.46,
3.709,-0.23,-0.25,1.07,-0.77,-0.08,1.46,
3.712,-0.23,-0.25,1.07,-0.83,-0.06,1.32,
3.712,-0.23,-0.25,1.06,-0.83,-0.06,1.32,
3.714,-0.24,-0.25,1.05,-0.83,-0.06,1.32,
3.717,-0.25,-0.26,1.04,-0.83,-0.06,1.32,
3.717,-0.25,-0.26,1.04,-0.94,-0.05,1.17,
3.719,-0.24,-0.26,1.04,-0.94,-0.05,1.17,
3.722,-0.25,-0.26,1.03,-0.94,-0.05,1.17,
3.722,-0.25,-0.26,1.03,-1.02,-0.06,1.00,
3.724,-0.25,-0.26,1.02,-1.02,-0.06,1.00,
3.727,-0.25,-0.26,1.02,-1.02,-0.06,1.00,
3.727,-0.25,-0.26,1.02,-1.02,-0.08,0.88,
3.729,-0.25,-0.26,1.01,-1.02,-0.08,0.88,
3.732,-0.25,-0.26,1.00,-1.02,-0.08,0.88,
3.733,-0.25,-0.26,1.00,-1.03,-0.14,0.72,
3.734,-0.25,-0.26,1.00,-1.03,-0.14,0.72,
3.737,-0.25,-0.26,1.00,-1.02,-0.13,0.56,
3.738,-0.25,-0.26,1.00,-1.02,-0.13,0.56,
3.738,-0.25,-0.26,0.99,-1.02,-0.13,0.56,
3.741,-0.25,-0.26,0.99,-1.02,-0.13,0.56,
3.742,-0.25,-0.26,0.99,-1.02,-0.09,0.51,
3.743,-0.24,-0.26,0.99,-1.02,-0.09,0.51,
3.747,-0.24,-0.27,0.99,-1.02,-0.09,0.51,
3.747,-0.24,-0.27,0.99,-1.00,-0.10,0.46,
3.749,-0.24,-0.27,0.99,-1.00,-0.10,0.46,
3.751,-0.24,-0.27,0.99,-1.00,-0.10,0.46,
3.751,-0.24,-0.27,0.99,-0.93,-0.11,0.45,
3.754,-0.24,-0.27,0.99,-0.93,-0.11,0.45,
3.756,-0.23,-0.27,0.98,-0.93,-0.11,0.45,
3.757,-0.23,-0.27,0.98,-0.89,-0.12,0.46,
3.759,-0.23,-0.27,0.99,-0.89,-0.12,0.46,
3.762,-0.23,-0.27,0.99,-0.84,-0.14,0.41,
3.762,-0.23,-0.27,0.98,-0.84,-0.14,0.41,
3.764,-0.23,-0.27,0.99,-0.84,-0.14,0.41,
3.766,-0.22,-0.28,1.00,-0.84,-0.14,0.41,
3.767,-0.22,-0.28,1.00,-0.76,-0.17,0.43,
3.769,-0.22,-0.28,1.00,-0.76,-0.17,0.43,
3.772,-0.21,-0.28,1.01,-0.76,-0.17,0.43,
3.772,-0.21,-0.28,1.01,-0.71,-0.19,0.51,
3.773,-0.21,-0.28,1.02,-0.71,-0.19,0.51,
3.776,-0.21,-0.28,1.03,-0.71,-0.19,0.51,
3.777,-0.21,-0.28,1.03,-0.61,-0.20,0.64,
3.779,-0.21,-0.29,1.04,-0.61,-0.20,0.64,
3.782,-0.21,-0.29,1.06,-0.61,-0.20,0.64,
3.782,-0.21,-0.29,1.06,-0.52,-0.24,0.81,
3.784,-0.22,-0.29,1.07,-0.52,-0.24,0.81,
3.79,-0.22,-0.29,1.07,-0.53,-0.29,1.06,
3.791,-0.23,-0.29,1.08,-0.53,-0.29,1.06,
3.791,-0.24,-0.30,1.09,-0.53,-0.29,1.06,
3.791,-0.25,-0.30,1.10,-0.53,-0.29,1.06,
3.795,-0.25,-0.30,1.10,-0.65,-0.28,1.29,
3.795,-0.26,-0.29,1.11,-0.65,-0.28,1.29,
3.796,-0.26,-0.29,1.10,-0.65,-0.28,1.29,
3.796,-0.26,-0.29,1.10,-0.81,-0.32,1.53,
3.799,-0.25,-0.30,1.09,-0.81,-0.32,1.53,
3.801,-0.25,-0.30,1.09,-0.81,-0.32,1.53,
3.801,-0.25,-0.30,1.09,-0.94,-0.27,1.57,
3.812,-0.24,-0.30,1.07,-0.94,-0.27,1.57,
3.813,-0.23,-0.31,1.05,-0.94,-0.27,1.57,
3.813,-0.23,-0.31,1.05,-0.90,-0.33,1.48,
3.813,-0.23,-0.30,1.03,-0.90,-0.33,1.48,
3.813,-0.23,-0.30,1.03,-0.74,-0.41,1.19,
3.813,-0.22,-0.31,1.00,-0.74,-0.41,1.19,
3.814,-0.22,-0.30,0.97,-0.74,-0.41,1.19,
3.816,-0.22,-0.30,0.94,-0.74,-0.41,1.19,
3.816,-0.22,-0.30,0.94,-0.59,-0.40,0.74,
3.822,-0.22,-0.30,0.93,-0.59,-0.40,0.74,
3.824,-0.22,-0.29,0.91,-0.59,-0.40,0.74,
3.824,-0.22,-0.29,0.91,-0.53,-0.34,0.18,
3.825,-0.21,-0.28,0.88,-0.53,-0.34,0.18,
3.825,-0.22,-0.27,0.87,-0.53,-0.34,0.18,
3.826,-0.22,-0.27,0.87,-0.50,-0.28,-0.25,
3.827,-0.22,-0.27,0.85,-0.50,-0.28,-0.25,
3.831,-0.22,-0.27,0.84,-0.50,-0.28,-0.25,
3.831,-0.22,-0.27,0.84,-0.46,-0.14,-0.65,
3.832,-0.23,-0.27,0.83,-0.46,-0.14,-0.65,
3.836,-0.23,-0.27,0.83,-0.48,-0.06,-0.93,
3.836,-0.23,-0.27,0.82,-0.48,-0.06,-0.93,
3.837,-0.25,-0.27,0.83,-0.48,-0.06,-0.93,
3.84,-0.26,-0.27,0.83,-0.48,-0.06,-0.93,
3.84,-0.26,-0.27,0.83,-0.56,-0.04,-1.09,
3.842,-0.27,-0.27,0.84,-0.56,-0.04,-1.09,
3.845,-0.27,-0.27,0.84,-0.75,-0.08,-1.06,
3.845,-0.28,-0.27,0.86,-0.75,-0.08,-1.06,
3.848,-0.29,-0.27,0.87,-0.75,-0.08,-1.06,
3.85,-0.29,-0.27,0.89,-0.75,-0.08,-1.06,
3.85,-0.29,-0.27,0.89,-0.97,-0.10,-0.85,
3.852,-0.30,-0.27,0.92,-0.97,-0.10,-0.85,
3.856,-0.31,-0.27,0.94,-0.97,-0.10,-0.85,
3.856,-0.31,-0.27,0.94,-1.12,-0.11,-0.54,
3.857,-0.31,-0.27,0.96,-1.12,-0.11,-0.54,
3.86,-0.31,-0.27,0.96,-1.20,-0.06,-0.06,
3.861,-0.31,-0.27,0.97,-1.20,-0.06,-0.06,
3.863,-0.30,-0.27,0.98,-1.20,-0.06,-0.06,
3.865,-0.30,-0.27,0.98,-1.24,-0.03,0.30,
3.866,-0.30,-0.27,0.98,-1.24,-0.03,0.30,
3.867,-0.28,-0.27,0.99,-1.24,-0.03,0.30,
3.871,-0.26,-0.28,0.98,-1.24,-0.03,0.30,
3.871,-0.26,-0.28,0.98,-1.11,-0.05,0.43,
3.872,-0.25,-0.28,0.97,-1.11,-0.05,0.43,
3.875,-0.23,-0.29,0.97,-1.11,-0.05,0.43,
3.876,-0.23,-0.29,0.97,-0.83,-0.09,0.44,
3.877,-0.21,-0.29,0.95,-0.83,-0.09,0.44,
3.88,-0.20,-0.29,0.94,-0.83,-0.09,0.44,
3.88,-0.20,-0.29,0.94,-0.45,-0.20,0.33,
3.882,-0.18,-0.29,0.94,-0.45,-0.20,0.33,
3.884,-0.18,-0.29,0.94,-0.11,-0.27,0.13,
3.885,-0.17,-0.29,0.94,-0.11,-0.27,0.13,
3.887,-0.16,-0.29,0.94,-0.11,-0.27,0.13,
3.891,-0.16,-0.30,0.96,-0.11,-0.27,0.13,
3.891,-0.16,-0.30,0.96,0.21,-0.26,0.06,
3.892,-0.16,-0.31,0.98,0.21,-0.26,0.06,
3.895,-0.15,-0.31,1.00,0.21,-0.26,0.06,
3.896,-0.15,-0.31,1.00,0.40,-0.32,0.19,
3.898,-0.15,-0.32,1.02,0.40,-0.32,0.19,
3.9,-0.16,-0.33,1.05,0.40,-0.32,0.19,
3.9,-0.16,-0.33,1.05,0.45,-0.43,0.54,
3.907,-0.16,-0.33,1.08,0.45,-0.43,0.54,
3.907,-0.16,-0.33,1.10,0.45,-0.43,0.54,
3.908,-0.16,-0.33,1.10,0.43,-0.56,0.99,
3.908,-0.17,-0.33,1.12,0.43,-0.56,0.99,
3.91,-0.17,-0.33,1.12,0.43,-0.58,1.56,
3.91,-0.17,-0.33,1.14,0.43,-0.58,1.56,
3.911,-0.16,-0.32,1.15,0.43,-0.58,1.56,
3.914,-0.16,-0.32,1.16,0.43,-0.58,1.56,
3.914,-0.16,-0.32,1.16,0.34,-0.61,1.90,
3.917,-0.16,-0.32,1.17,0.34,-0.61,1.90,
3.919,-0.16,-0.32,1.17,0.45,-0.51,2.16,
3.92,-0.16,-0.31,1.16,0.45,-0.51,2.16,
3.922,-0.16,-0.32,1.16,0.45,-0.51,2.16,
3.924,-0.16,-0.32,1.15,0.45,-0.51,2.16,
3.924,-0.16,-0.32,1.15,0.46,-0.45,2.30,
3.926,-0.15,-0.32,1.15,0.46,-0.45,2.30,
3.93,-0.14,-0.33,1.14,0.46,-0.45,2.30,
3.93,-0.14,-0.33,1.14,0.49,-0.47,2.18,
3.932,-0.13,-0.32,1.12,0.49,-0.47,2.18,
3.935,-0.12,-0.32,1.11,0.49,-0.47,2.18,
3.935,-0.12,-0.32,1.11,0.62,-0.56,2.05,
3.938,-0.11,-0.31,1.10,0.62,-0.56,2.05,
3.94,-0.10,-0.31,1.09,0.62,-0.56,2.05,
3.94,-0.10,-0.31,1.09,0.85,-0.50,1.80,
3.942,-0.10,-0.30,1.09,0.85,-0.50,1.80,
3.944,-0.10,-0.30,1.09,1.03,-0.39,1.63,
3.945,-0.09,-0.30,1.09,1.03,-0.39,1.63,
3.947,-0.09,-0.29,1.09,1.03,-0.39,1.63,
3.949,-0.08,-0.29,1.09,1.03,-0.39,1.63,
3.95,-0.08,-0.29,1.09,1.18,-0.31,1.50,
3.952,-0.08,-0.30,1.09,1.18,-0.31,1.50,
3.954,-0.08,-0.30,1.09,1.24,-0.24,1.51,
3.954,-0.08,-0.29,1.09,1.24,-0.24,1.51,
3.957,-0.07,-0.29,1.10,1.24,-0.24,1.51,
3.959,-0.07,-0.29,1.10,1.28,-0.25,1.55,
3.96,-0.08,-0.28,1.11,1.28,-0.25,1.55,
3.962,-0.08,-0.27,1.12,1.28,-0.25,1.55,
3.964,-0.08,-0.27,1.12,1.35,-0.14,1.69,
3.965,-0.08,-0.27,1.12,1.35,-0.14,1.69,
3.967,-0.09,-0.27,1.13,1.35,-0.14,1.69,
3.97,-0.10,-0.28,1.13,1.35,-0.14,1.69,
3.971,-0.10,-0.28,1.13,1.27,-0.06,1.84,
3.971,-0.10,-0.28,1.13,1.27,-0.06,1.84,
3.974,-0.11,-0.29,1.13,1.27,-0.06,1.84,
3.974,-0.11,-0.29,1.13,1.17,-0.10,1.91,
3.976,-0.11,-0.30,1.13,1.17,-0.10,1.91,
3.98,-0.11,-0.31,1.12,1.17,-0.10,1.91,
3.98,-0.11,-0.31,1.12,1.04,-0.21,1.90,
3.982,-0.11,-0.32,1.13,1.04,-0.21,1.90,
3.985,-0.11,-0.32,1.13,0.99,-0.39,1.86,
3.985,-0.11,-0.32,1.12,0.99,-0.39,1.86,
3.987,-0.11,-0.32,1.12,0.99,-0.39,1.86,
3.989,-0.10,-0.31,1.12,0.99,-0.39,1.86,
3.989,-0.10,-0.31,1.12,1.00,-0.55,1.87,
3.992,-0.10,-0.31,1.11,1.00,-0.55,1.87,
3.994,-0.11,-0.31,1.10,1.00,-0.55,1.87,
3.995,-0.11,-0.31,1.10,1.07,-0.53,1.76,
3.997,-0.11,-0.30,1.09,1.07,-0.53,1.76,
4.0,-0.11,-0.31,1.09,1.07,-0.53,1.76,
4.0,-0.11,-0.31,1.09,1.07,-0.46,1.64,
4.002,-0.12,-0.31,1.10,1.07,-0.46,1.64,
4.01,-0.12,-0.31,1.09,1.07,-0.46,1.64,
4.011,-0.12,-0.31,1.09,1.00,-0.45,1.53,
4.011,-0.11,-0.31,1.08,1.00,-0.45,1.53,
4.011,-0.11,-0.31,1.08,0.91,-0.46,1.53,
4.012,-0.11,-0.31,1.08,0.91,-0.46,1.53,
4.012,-0.11,-0.31,1.07,0.91,-0.46,1.53,
4.013,-0.10,-0.31,1.07,0.91,-0.46,1.53,
4.014,-0.10,-0.31,1.07,0.98,-0.49,1.39,
4.016,-0.09,-0.30,1.07,0.98,-0.49,1.39,
4.022,-0.09,-0.29,1.07,0.98,-0.49,1.39,
4.022,-0.09,-0.29,1.07,1.06,-0.51,1.32,
4.023,-0.09,-0.28,1.07,1.06,-0.51,1.32,
4.023,-0.09,-0.27,1.07,1.06,-0.51,1.32,
4.023,-0.09,-0.27,1.07,1.16,-0.40,1.30,
4.026,-0.10,-0.27,1.07,1.16,-0.40,1.30,
4.029,-0.11,-0.27,1.07,1.16,-0.40,1.30,
4.029,-0.11,-0.27,1.07,1.17,-0.24,1.27,
4.031,-0.12,-0.27,1.07,1.17,-0.24,1.27,
4.034,-0.12,-0.27,1.07,1.01,-0.16,1.25,
4.034,-0.13,-0.27,1.07,1.01,-0.16,1.25,
4.037,-0.14,-0.27,1.06,1.01,-0.16,1.25,
4.039,-0.15,-0.27,1.06,1.01,-0.16,1.25,
4.04,-0.15,-0.27,1.06,0.80,-0.17,1.24,
4.041,-0.14,-0.27,1.05,0.80,-0.17,1.24,
4.043,-0.14,-0.27,1.05,0.80,-0.17,1.24,
4.044,-0.14,-0.27,1.05,0.64,-0.23,1.15,
4.046,-0.14,-0.26,1.04,0.64,-0.23,1.15,
4.049,-0.15,-0.26,1.04,0.64,-0.23,1.15,
4.049,-0.15,-0.26,1.04,0.64,-0.19,1.03,
4.051,-0.15,-0.26,1.04,0.64,-0.19,1.03,
4.054,-0.15,-0.26,1.04,0.61,-0.15,0.98,
4.054,-0.15,-0.26,1.02,0.61,-0.15,0.98,
4.056,-0.15,-0.26,1.02,0.61,-0.15,0.98,
4.059,-0.15,-0.26,1.02,0.61,-0.15,0.84,
4.059,-0.14,-0.25,1.02,0.61,-0.15,0.84,
4.06,-0.13,-0.26,1.01,0.61,-0.15,0.84,
4.064,-0.12,-0.26,1.02,0.61,-0.15,0.84,
4.064,-0.12,-0.26,1.02,0.63,-0.12,0.75,
4.066,-0.12,-0.25,1.01,0.63,-0.12,0.75,
4.068,-0.11,-0.25,1.01,0.63,-0.12,0.75,
4.069,-0.11,-0.25,1.01,0.75,-0.18,0.69,
4.071,-0.10,-0.26,1.01,0.75,-0.18,0.69,
4.073,-0.10,-0.25,1.01,0.75,-0.18,0.69,
4.073,-0.10,-0.25,1.01,0.91,-0.14,0.67,
4.075,-0.09,-0.25,1.01,0.91,-0.14,0.67,
4.078,-0.10,-0.25,1.00,0.91,-0.14,0.67,
4.079,-0.10,-0.25,1.00,0.99,-0.15,0.65,
4.081,-0.10,-0.25,1.01,0.99,-0.15,0.65,
4.084,-0.10,-0.25,1.01,1.06,-0.15,0.57,
4.084,-0.11,-0.26,1.02,1.06,-0.15,0.57,
4.086,-0.11,-0.27,1.02,1.06,-0.15,0.57,
4.089,-0.12,-0.26,1.02,1.06,-0.15,0.57,
4.09,-0.12,-0.26,1.02,0.94,-0.24,0.63,
4.091,-0.12,-0.26,1.01,0.94,-0.24,0.63,
4.093,-0.12,-0.27,1.02,0.94,-0.24,0.63,
4.093,-0.12,-0.27,1.02,0.87,-0.35,0.70,
4.096,-0.11,-0.26,1.02,0.87,-0.35,0.70,
4.098,-0.11,-0.26,1.02,0.81,-0.33,0.66,
4.098,-0.11,-0.27,1.02,0.81,-0.33,0.66,
4.1,-0.11,-0.26,1.02,0.81,-0.33,0.66,
4.102,-0.11,-0.26,1.02,0.81,-0.33,0.66,
4.106,-0.11,-0.26,1.02,0.86,-0.35,0.69,
4.106,-0.10,-0.27,1.02,0.86,-0.35,0.69,
4.108,-0.10,-0.27,1.02,0.89,-0.35,0.66,
4.108,-0.09,-0.27,1.02,0.89,-0.35,0.66,
4.11,-0.09,-0.28,1.02,0.89,-0.35,0.66,
4.113,-0.08,-0.29,1.01,0.89,-0.35,0.66,
4.113,-0.08,-0.29,1.01,0.99,-0.41,0.66,
4.116,-0.07,-0.29,1.01,0.99,-0.41,0.66,
4.118,-0.06,-0.29,1.02,0.99,-0.41,0.66,
4.118,-0.06,-0.29,1.02,1.07,-0.55,0.63,
4.126,-0.04,-0.30,1.00,1.07,-0.55,0.63,
4.133,-0.03,-0.29,1.00,1.07,-0.55,0.63,
4.134,-0.03,-0.29,1.00,1.25,-0.68,0.61,
4.134,-0.02,-0.28,0.99,1.25,-0.68,0.61,
4.135,-0.01,-0.28,0.98,1.25,-0.68,0.61,
4.135,-0.01,-0.28,0.98,1.51,-0.72,0.44,
4.136,-0.00,-0.27,0.97,1.51,-0.72,0.44,
4.136,-0.00,-0.27,0.97,1.70,-0.62,0.30,
4.137,0.00,-0.26,0.96,1.70,-0.62,0.30,
4.137,-0.00,-0.25,0.96,1.70,-0.62,0.30,
4.137,-0.01,-0.25,0.94,1.70,-0.62,0.30,
4.138,-0.01,-0.25,0.94,1.83,-0.47,0.11,
4.142,-0.02,-0.24,0.94,1.83,-0.47,0.11,
4.143,-0.02,-0.24,0.93,1.83,-0.47,0.11,
4.143,-0.02,-0.24,0.93,1.75,-0.34,-0.05,
4.144,-0.02,-0.23,0.93,1.75,-0.34,-0.05,
4.147,-0.02,-0.23,0.93,1.75,-0.34,-0.05,
4.147,-0.02,-0.23,0.93,1.60,-0.26,-0.21,
4.149,-0.01,-0.22,0.93,1.60,-0.26,-0.21,
4.152,-0.01,-0.22,0.93,1.60,-0.26,-0.21,
4.152,-0.01,-0.22,0.93,1.60,-0.17,-0.27,
4.155,-0.01,-0.22,0.93,1.60,-0.17,-0.27,
4.157,-0.01,-0.22,0.93,1.67,-0.11,-0.27,
4.157,-0.01,-0.21,0.95,1.67,-0.11,-0.27,
4.159,-0.01,-0.21,0.96,1.67,-0.11,-0.27,
4.162,-0.00,-0.21,0.98,1.67,-0.11,-0.27,
4.162,-0.00,-0.21,0.98,1.67,-0.08,-0.18,
4.165,0.00,-0.20,1.01,1.67,-0.08,-0.18,
4.167,0.00,-0.20,1.01,1.73,-0.04,0.15,
4.167,0.01,-0.20,1.02,1.73,-0.04,0.15,
4.169,0.01,-0.20,1.05,1.73,-0.04,0.15,
4.171,0.01,-0.20,1.08,1.73,-0.04,0.15,
4.172,0.01,-0.20,1.08,1.81,0.01,0.55,
4.174,0.02,-0.21,1.10,1.81,0.01,0.55,
4.177,0.03,-0.21,1.12,1.81,0.01,0.55,
4.178,0.03,-0.21,1.12,1.86,-0.01,1.02,
4.18,0.04,-0.21,1.14,1.86,-0.01,1.02,
4.182,0.04,-0.21,1.14,2.00,-0.05,1.48,
4.182,0.04,-0.21,1.15,2.00,-0.05,1.48,
4.184,0.04,-0.21,1.16,2.00,-0.05,1.48,
4.188,0.04,-0.23,1.17,2.00,-0.05,1.48,
4.188,0.04,-0.23,1.17,2.10,-0.06,1.80,
4.189,0.03,-0.25,1.18,2.10,-0.06,1.80,
4.192,0.02,-0.28,1.19,2.10,-0.06,1.80,
4.192,0.02,-0.28,1.19,2.08,-0.21,1.96,
4.194,0.02,-0.30,1.19,2.08,-0.21,1.96,
4.197,0.03,-0.32,1.19,2.08,-0.21,1.96,
4.197,0.03,-0.32,1.19,1.94,-0.65,2.17,
4.199,0.04,-0.31,1.18,1.94,-0.65,2.17,
4.202,0.05,-0.31,1.17,1.94,-0.65,2.17,
4.202,0.05,-0.31,1.17,1.90,-1.10,2.21,
4.205,0.06,-0.29,1.15,1.90,-1.10,2.21,
4.207,0.06,-0.29,1.15,2.06,-1.13,2.10,
4.207,0.06,-0.27,1.14,2.06,-1.13,2.10,
4.209,0.06,-0.26,1.11,2.06,-1.13,2.10,
4.212,0.06,-0.25,1.08,2.06,-1.13,2.10,
4.212,0.06,-0.25,1.08,2.16,-0.89,1.75,
4.214,0.07,-0.24,1.05,2.16,-0.89,1.75,
4.217,0.08,-0.23,1.02,2.16,-0.89,1.75,
4.217,0.08,-0.23,1.02,2.19,-0.64,1.23,
4.219,0.09,-0.23,0.99,2.19,-0.64,1.23,
4.226,0.11,-0.22,0.96,2.19,-0.64,1.23,
4.227,0.11,-0.22,0.96,2.26,-0.51,0.64,
4.227,0.12,-0.21,0.93,2.26,-0.51,0.64,
4.227,0.13,-0.21,0.91,2.26,-0.51,0.64,
4.227,0.13,-0.21,0.91,2.47,-0.44,0.06,
4.229,0.14,-0.20,0.88,2.47,-0.44,0.06,
4.231,0.14,-0.20,0.88,2.69,-0.34,-0.53,
4.231,0.15,-0.20,0.86,2.69,-0.34,-0.53,
4.234,0.16,-0.20,0.85,2.69,-0.34,-0.53,
4.239,0.17,-0.19,0.83,2.69,-0.34,-0.53,
4.24,0.17,-0.19,0.83,2.89,-0.24,-1.01,
4.24,0.17,-0.20,0.83,2.89,-0.24,-1.01,
4.242,0.16,-0.20,0.83,2.89,-0.24,-1.01,
4.242,0.16,-0.20,0.83,3.01,-0.21,-1.31,
4.243,0.16,-0.20,0.85,3.01,-0.21,-1.31,
4.247,0.15,-0.21,0.86,3.01,-0.21,-1.31,
4.247,0.15,-0.21,0.86,3.04,-0.27,-1.38,
4.249,0.14,-0.21,0.89,3.04,-0.27,-1.38,
4.252,0.13,-0.21,0.92,3.04,-0.27,-1.38,
4.252,0.13,-0.21,0.92,2.88,-0.37,-1.14,
4.255,0.13,-0.21,0.95,2.88,-0.37,-1.14,
4.257,0.13,-0.21,0.95,2.69,-0.43,-0.71,
4.257,0.12,-0.20,0.98,2.69,-0.43,-0.71,
4.259,0.11,-0.19,1.01,2.69,-0.43,-0.71,
4.261,0.11,-0.19,1.01,2.56,-0.38,-0.08,
4.261,0.11,-0.19,1.04,2.56,-0.38,-0.08,
4.263,0.11,-0.20,1.06,2.56,-0.38,-0.08,
4.266,0.11,-0.20,1.08,2.56,-0.38,-0.08,
4.267,0.11,-0.20,1.08,2.42,-0.32,0.46,
4.269,0.11,-0.21,1.09,2.42,-0.32,0.46,
4.272,0.11,-0.22,1.11,2.42,-0.32,0.46,
4.273,0.11,-0.22,1.11,2.36,-0.39,0.91,
4.273,0.11,-0.22,1.12,2.36,-0.39,0.91,
4.276,0.11,-0.23,1.13,2.36,-0.39,0.91,
4.276,0.11,-0.23,1.13,2.33,-0.58,1.24,
4.278,0.10,-0.23,1.13,2.33,-0.58,1.24,
4.281,0.10,-0.23,1.13,2.32,-0.68,1.44,
4.282,0.09,-0.23,1.12,2.32,-0.68,1.44,
4.284,0.09,-0.23,1.11,2.32,-0.68,1.44,
4.286,0.08,-0.23,1.10,2.32,-0.68,1.44,
4.289,0.08,-0.23,1.10,2.19,-0.74,1.46,
4.29,0.07,-0.23,1.09,2.19,-0.74,1.46,
4.293,0.07,-0.23,1.07,2.19,-0.74,1.46,
4.293,0.07,-0.23,1.07,2.02,-0.79,1.27,
4.293,0.07,-0.23,1.04,2.02,-0.79,1.27,
4.296,0.06,-0.22,1.01,2.02,-0.79,1.27,
4.296,0.06,-0.22,1.01,1.88,-0.81,0.94,
4.298,0.04,-0.21,0.99,1.88,-0.81,0.94,
4.301,0.03,-0.20,0.97,1.88,-0.81,0.94,
4.301,0.03,-0.20,0.97,1.77,-0.75,0.44,
4.303,0.01,-0.20,0.95,1.77,-0.75,0.44,
4.306,0.01,-0.20,0.95,1.50,-0.65,-0.01,
4.306,0.00,-0.19,0.93,1.50,-0.65,-0.01,
4.308,-0.01,-0.19,0.91,1.50,-0.65,-0.01,
4.31,-0.02,-0.17,0.90,1.50,-0.65,-0.01,
4.311,-0.02,-0.17,0.90,1.20,-0.55,-0.45,
4.314,-0.03,-0.16,0.88,1.20,-0.55,-0.45,
4.316,-0.05,-0.15,0.87,1.20,-0.55,-0.45,
4.316,-0.05,-0.15,0.87,0.94,-0.40,-0.78,
4.318,-0.05,-0.14,0.86,0.94,-0.40,-0.78,
4.328,-0.07,-0.13,0.85,0.94,-0.40,-0.78,
4.328,-0.07,-0.13,0.85,0.69,-0.19,-1.03,
4.329,-0.08,-0.12,0.85,0.69,-0.19,-1.03,
4.329,-0.08,-0.11,0.85,0.69,-0.19,-1.03,
4.329,-0.08,-0.11,0.85,0.45,-0.02,-1.27,
4.33,-0.09,-0.11,0.86,0.45,-0.02,-1.27,
4.332,-0.09,-0.11,0.86,0.25,0.12,-1.27,
4.332,-0.09,-0.11,0.87,0.25,0.12,-1.27,
4.332,-0.10,-0.11,0.88,0.25,0.12,-1.27,
4.335,-0.09,-0.11,0.88,0.25,0.12,-1.27,
4.335,-0.09,-0.11,0.88,0.11,0.18,-1.19,
4.342,-0.09,-0.10,0.89,0.11,0.18,-1.19,
4.343,-0.10,-0.10,0.90,0.11,0.18,-1.19,
4.343,-0.10,-0.10,0.90,0.08,0.16,-1.04,
4.343,-0.10,-0.10,0.91,0.08,0.16,-1.04,
4.345,-0.10,-0.10,0.92,0.08,0.16,-1.04,
4.345,-0.10,-0.10,0.92,0.08,0.20,-0.88,
4.348,-0.09,-0.11,0.93,0.08,0.20,-0.88,
4.351,-0.09,-0.12,0.94,0.08,0.20,-0.88,
4.351,-0.09,-0.12,0.94,0.01,0.21,-0.67,
4.353,-0.09,-0.12,0.94,0.01,0.21,-0.67,
4.356,-0.09,-0.12,0.94,0.04,0.06,-0.48,
4.356,-0.08,-0.14,0.93,0.04,0.06,-0.48,
4.358,-0.08,-0.14,0.93,0.04,0.06,-0.48,
4.36,-0.08,-0.14,0.92,0.04,0.06,-0.48,
4.361,-0.08,-0.14,0.92,0.11,-0.15,-0.50,
4.362,-0.09,-0.14,0.91,0.11,-0.15,-0.50,
4.365,-0.09,-0.14,0.91,0.11,-0.23,-0.57,
4.365,-0.09,-0.13,0.91,0.11,-0.23,-0.57,
4.368,-0.09,-0.13,0.89,0.11,-0.23,-0.57,
4.37,-0.09,-0.12,0.88,0.11,-0.23,-0.57,
4.37,-0.09,-0.12,0.88,0.04,-0.22,-0.75,
4.373,-0.08,-0.12,0.87,0.04,-0.22,-0.75,
4.376,-0.08,-0.12,0.87,0.01,-0.15,-0.99,
4.376,-0.08,-0.12,0.86,0.01,-0.15,-0.99,
4.377,-0.08,-0.13,0.86,0.01,-0.15,-0.99,
4.38,-0.08,-0.13,0.86,0.03,-0.13,-1.18,
4.381,-0.08,-0.13,0.85,0.03,-0.13,-1.18,
4.383,-0.07,-0.13,0.85,0.03,-0.13,-1.18,
4.385,-0.07,-0.13,0.86,0.03,-0.13,-1.18,
4.385,-0.07,-0.13,0.86,0.06,-0.24,-1.31,
4.388,-0.07,-0.12,0.85,0.06,-0.24,-1.31,
4.391,-0.07,-0.12,0.85,0.08,-0.25,-1.32,
4.391,-0.07,-0.11,0.85,0.08,-0.25,-1.32,
4.392,-0.07,-0.11,0.87,0.08,-0.25,-1.32,
4.395,-0.07,-0.10,0.87,0.08,-0.25,-1.32,
4.396,-0.07,-0.10,0.87,0.09,-0.15,-1.33,
4.398,-0.08,-0.09,0.88,0.09,-0.15,-1.33,
4.401,-0.08,-0.09,0.88,0.07,0.00,-1.18,
4.401,-0.07,-0.08,0.89,0.07,0.00,-1.18,
4.402,-0.08,-0.07,0.90,0.07,0.00,-1.18,
4.406,-0.08,-0.07,0.90,-0.00,0.13,-0.99,
4.407,-0.08,-0.07,0.91,-0.00,0.13,-0.99,
4.407,-0.08,-0.06,0.91,-0.00,0.13,-0.99,
4.41,-0.08,-0.06,0.91,-0.00,0.13,-0.99,
4.41,-0.08,-0.06,0.91,-0.04,0.29,-0.84,
4.412,-0.08,-0.06,0.90,-0.04,0.29,-0.84,
4.415,-0.08,-0.06,0.90,-0.04,0.29,-0.84,
4.415,-0.08,-0.06,0.90,-0.07,0.35,-0.79,
4.417,-0.07,-0.06,0.90,-0.07,0.35,-0.79,
4.42,-0.07,-0.06,0.90,-0.08,0.36,-0.84,
4.421,-0.07,-0.06,0.90,-0.08,0.36,-0.84,
4.424,-0.07,-0.06,0.90,-0.08,0.36,-0.84,
4.424,-0.06,-0.06,0.90,-0.08,0.36,-0.84,
4.425,-0.06,-0.06,0.90,-0.04,0.36,-0.85,
4.427,-0.06,-0.06,0.89,-0.04,0.36,-0.85,
4.43,-0.06,-0.06,0.88,-0.04,0.36,-0.85,
4.43,-0.06,-0.06,0.88,0.04,0.34,-0.86,
4.433,-0.06,-0.08,0.87,0.04,0.34,-0.86,
4.435,-0.06,-0.09,0.88,0.04,0.34,-0.86,
4.435,-0.06,-0.09,0.88,0.06,0.29,-1.05,
4.437,-0.05,-0.10,0.87,0.06,0.29,-1.05,
4.444,-0.05,-0.10,0.87,0.10,0.05,-1.11,
4.445,-0.05,-0.11,0.87,0.10,0.05,-1.11,
4.445,-0.04,-0.12,0.87,0.10,0.05,-1.11,
4.446,-0.04,-0.12,0.87,0.16,-0.13,-1.15,
4.446,-0.03,-0.13,0.87,0.16,-0.13,-1.15,
4.446,-0.02,-0.13,0.87,0.16,-0.13,-1.15,
4.449,-0.01,-0.13,0.88,0.16,-0.13,-1.15,
4.45,-0.01,-0.13,0.88,0.31,-0.31,-1.15,
4.457,-0.00,-0.14,0.88,0.31,-0.31,-1.15,
4.457,0.01,-0.13,0.87,0.31,-0.31,-1.15,
4.458,0.01,-0.13,0.87,0.50,-0.40,-1.13,
4.459,0.02,-0.13,0.87,0.50,-0.40,-1.13,
4.459,0.03,-0.13,0.88,0.50,-0.40,-1.13,
4.46,0.03,-0.13,0.88,0.66,-0.44,-1.12,
4.465,0.03,-0.13,0.88,0.66,-0.44,-1.12,
4.466,0.04,-0.13,0.89,0.66,-0.44,-1.12,
4.466,0.04,-0.13,0.89,0.86,-0.44,-1.08,
4.466,0.04,-0.13,0.89,0.86,-0.44,-1.08,
4.469,0.04,-0.13,0.89,0.86,-0.44,-1.08,
4.469,0.04,-0.13,0.89,0.96,-0.45,-1.01,
4.472,0.04,-0.13,0.90,0.96,-0.45,-1.01,
4.477,0.03,-0.13,0.91,0.96,-0.45,-1.01,
4.477,0.03,-0.13,0.91,0.96,-0.47,-0.94,
4.477,0.02,-0.13,0.92,0.96,-0.47,-0.94,
4.479,0.01,-0.13,0.92,0.96,-0.47,-0.94,
4.479,0.01,-0.13,0.92,0.93,-0.46,-0.82,
4.48,0.01,-0.13,0.93,0.93,-0.46,-0.82,
4.484,0.00,-0.12,0.94,0.93,-0.46,-0.82,
4.484,0.00,-0.12,0.94,0.78,-0.42,-0.68,
4.486,-0.01,-0.12,0.96,0.78,-0.42,-0.68,
4.488,-0.01,-0.11,0.97,0.78,-0.42,-0.68,
4.488,-0.01,-0.11,0.97,0.64,-0.35,-0.48,
4.49,-0.02,-0.10,0.97,0.64,-0.35,-0.48,
4.493,-0.02,-0.10,0.97,0.49,-0.26,-0.26,
4.494,-0.02,-0.10,0.98,0.49,-0.26,-0.26,
4.496,-0.03,-0.09,0.98,0.49,-0.26,-0.26,
4.499,-0.03,-0.09,0.98,0.49,-0.26,-0.26,
4.499,-0.03,-0.09,0.98,0.38,-0.12,-0.14,
4.502,-0.03,-0.09,0.98,0.38,-0.12,-0.14,
4.506,-0.02,-0.09,0.99,0.38,-0.12,-0.14,
4.506,-0.02,-0.09,0.99,0.29,-0.05,-0.10,
4.507,-0.02,-0.09,0.99,0.29,-0.05,-0.10,
4.508,-0.01,-0.09,0.99,0.29,-0.05,-0.10,
4.509,-0.01,-0.09,0.99,0.34,-0.05,-0.03,
4.511,-0.01,-0.08,1.00,0.34,-0.05,-0.03,
4.514,-0.01,-0.08,1.01,0.34,-0.05,-0.03,
4.514,-0.01,-0.08,1.01,0.47,0.00,0.04,
4.516,-0.01,-0.07,1.01,0.47,0.00,0.04,
4.519,-0.01,-0.07,1.01,0.55,0.06,0.14,
4.519,-0.01,-0.07,1.02,0.55,0.06,0.14,
4.521,-0.03,-0.07,1.02,0.55,0.06,0.14,
4.523,-0.04,-0.07,1.03,0.55,0.06,0.14,
4.524,-0.04,-0.07,1.03,0.51,0.12,0.24,
4.525,-0.06,-0.07,1.03,0.51,0.12,0.24,
4.528,-0.08,-0.07,1.03,0.51,0.12,0.24,
4.529,-0.08,-0.07,1.03,0.29,0.18,0.36,
4.532,-0.09,-0.07,1.03,0.29,0.18,0.36,
4.534,-0.10,-0.07,1.02,0.29,0.18,0.36,
4.534,-0.10,-0.07,1.02,-0.04,0.13,0.40,
4.536,-0.11,-0.07,1.02,-0.04,0.13,0.40,
4.54,-0.11,-0.08,1.02,-0.04,0.13,0.40,
4.54,-0.11,-0.08,1.02,-0.28,0.13,0.36,
4.541,-0.11,-0.08,1.02,-0.28,0.13,0.36,
4.543,-0.11,-0.08,1.02,-0.45,0.07,0.34,
4.543,-0.11,-0.09,1.03,-0.45,0.07,0.34,
4.546,-0.09,-0.10,1.01,-0.45,0.07,0.34,
4.548,-0.07,-0.11,0.99,-0.45,0.07,0.34,
4.549,-0.07,-0.11,0.99,-0.46,-0.02,0.36,
4.551,-0.05,-0.12,0.97,-0.46,-0.02,0.36,
4.554,-0.03,-0.12,0.94,-0.46,-0.02,0.36,
4.554,-0.03,-0.12,0.94,-0.17,-0.22,0.07,
4.561,-0.02,-0.10,0.93,-0.17,-0.22,0.07,
4.562,-0.01,-0.09,0.92,-0.17,-0.22,0.07,
4.562,-0.01,-0.09,0.92,0.24,-0.35,-0.32,
4.562,-0.02,-0.09,0.91,0.24,-0.35,-0.32,
4.563,-0.01,-0.09,0.90,0.24,-0.35,-0.32,
4.563,-0.01,-0.09,0.90,0.45,-0.08,-0.66,
4.566,-0.02,-0.09,0.90,0.45,-0.08,-0.66,
4.568,-0.02,-0.09,0.90,0.44,-0.07,-0.86,
4.568,-0.03,-0.09,0.90,0.44,-0.07,-0.86,
4.57,-0.03,-0.08,0.90,0.44,-0.07,-0.86,
4.572,-0.04,-0.07,0.90,0.44,-0.07,-0.86,
4.573,-0.04,-0.07,0.90,0.33,-0.07,-0.84,
4.575,-0.04,-0.07,0.90,0.33,-0.07,-0.84,
4.578,-0.05,-0.07,0.90,0.33,-0.07,-0.84,
4.578,-0.05,-0.07,0.90,0.20,0.06,-0.88,
4.58,-0.06,-0.08,0.90,0.20,0.06,-0.88,
4.583,-0.06,-0.08,0.90,0.20,0.06,-0.88,
4.583,-0.06,-0.08,0.90,0.09,0.12,-0.86,
4.585,-0.07,-0.08,0.91,0.09,0.12,-0.86,
4.588,-0.07,-0.07,0.92,0.09,0.12,-0.86,
4.588,-0.07,-0.07,0.92,-0.05,0.08,-0.86,
4.59,-0.08,-0.07,0.93,-0.05,0.08,-0.86,
4.593,-0.09,-0.07,0.95,-0.05,0.08,-0.86,
4.593,-0.09,-0.07,0.95,-0.17,0.07,-0.74,
4.595,-0.09,-0.07,0.96,-0.17,0.07,-0.74,
4.598,-0.09,-0.07,0.96,-0.17,0.07,-0.74,
4.598,-0.09,-0.07,0.96,-0.33,0.16,-0.49,
4.601,-0.08,-0.07,0.98,-0.33,0.16,-0.49,
4.603,-0.08,-0.07,0.99,-0.33,0.16,-0.49,
4.603,-0.08,-0.07,0.99,-0.37,0.16,-0.26,
4.605,-0.08,-0.07,1.00,-0.37,0.16,-0.26,
4.608,-0.08,-0.07,1.00,-0.29,0.18,-0.06,
4.608,-0.07,-0.07,1.00,-0.29,0.18,-0.06,
4.61,-0.06,-0.07,1.01,-0.29,0.18,-0.06,
4.613,-0.05,-0.07,1.01,-0.29,0.18,-0.06,
4.613,-0.05,-0.07,1.01,-0.19,0.22,0.11,
4.615,-0.04,-0.07,1.02,-0.19,0.22,0.11,
4.619,-0.04,-0.07,1.02,-0.02,0.17,0.22,
4.619,-0.04,-0.08,1.02,-0.02,0.17,0.22,
4.62,-0.03,-0.09,1.03,-0.02,0.17,0.22,
4.622,-0.03,-0.09,1.03,-0.02,0.17,0.22,
4.623,-0.03,-0.09,1.03,0.10,0.10,0.32,
4.625,-0.02,-0.09,1.04,0.10,0.10,0.32,
4.627,-0.01,-0.09,1.04,0.10,0.10,0.32,
4.628,-0.01,-0.09,1.04,0.23,0.02,0.42,
4.629,-0.01,-0.10,1.05,0.23,0.02,0.42,
4.632,-0.01,-0.10,1.05,0.23,0.02,0.42,
4.632,-0.01,-0.10,1.05,0.35,-0.01,0.50,
4.634,-0.01,-0.11,1.05,0.35,-0.01,0.50,
4.637,-0.00,-0.10,1.05,0.35,-0.01,0.50,
4.637,-0.00,-0.10,1.05,0.41,-0.09,0.58,
4.639,0.00,-0.11,1.05,0.41,-0.09,0.58,
4.642,0.00,-0.11,1.05,0.45,-0.14,0.61,
4.642,0.01,-0.10,1.05,0.45,-0.14,0.61,
4.644,0.01,-0.10,1.04,0.45,-0.14,0.61,
4.647,0.02,-0.11,1.04,0.45,-0.14,0.61,
4.647,0.02,-0.11,1.04,0.52,-0.14,0.57,
4.649,0.02,-0.10,1.04,0.52,-0.14,0.57,
4.652,0.02,-0.10,1.03,0.52,-0.14,0.57,
4.652,0.02,-0.10,1.03,0.59,-0.14,0.52,
4.66,0.03,-0.10,1.03,0.59,-0.14,0.52,
4.66,0.03,-0.10,1.02,0.59,-0.14,0.52,
4.661,0.03,-0.10,1.02,0.70,-0.14,0.43,
4.662,0.03,-0.09,1.02,0.70,-0.14,0.43,
4.662,0.03,-0.08,1.02,0.70,-0.14,0.43,
4.662,0.03,-0.08,1.02,0.76,-0.09,0.37,
4.663,0.03,-0.07,1.00,0.76,-0.09,0.37,
4.667,0.03,-0.07,1.00,0.76,0.07,0.28,
4.667,0.03,-0.07,1.00,0.76,0.07,0.28,
4.669,0.04,-0.07,0.99,0.76,0.07,0.28,
4.672,0.04,-0.07,0.99,0.76,0.07,0.28,
4.672,0.04,-0.07,0.99,0.77,0.18,0.11,
4.674,0.04,-0.06,0.98,0.77,0.18,0.11,
4.676,0.04,-0.06,0.98,0.77,0.18,0.11,
4.677,0.04,-0.06,0.98,0.80,0.23,0.02,
4.679,0.04,-0.06,0.98,0.80,0.23,0.02,
4.682,0.04,-0.05,0.97,0.80,0.23,0.02,
4.682,0.04,-0.05,0.97,0.82,0.30,-0.08,
4.684,0.03,-0.05,0.98,0.82,0.30,-0.08,
4.687,0.04,-0.06,0.98,0.82,0.30,-0.08,
4.687,0.04,-0.06,0.98,0.79,0.33,-0.12,
4.689,0.04,-0.06,0.97,0.79,0.33,-0.12,
4.692,0.04,-0.06,0.97,0.78,0.32,-0.12,
4.692,0.04,-0.05,0.98,0.78,0.32,-0.12,
4.694,0.04,-0.06,0.98,0.78,0.32,-0.12,
4.696,0.04,-0.05,0.98,0.78,0.32,-0.12,
4.697,0.04,-0.05,0.98,0.80,0.32,-0.13,
4.699,0.03,-0.05,0.98,0.80,0.32,-0.13,
4.702,0.02,-0.05,0.98,0.80,0.32,-0.13,
4.702,0.02,-0.05,0.98,0.80,0.32,-0.09,
4.704,0.02,-0.06,0.98,0.80,0.32,-0.09,
4.707,0.01,-0.06,0.98,0.80,0.32,-0.09,
4.707,0.01,-0.06,0.98,0.71,0.34,-0.07,
4.709,0.00,-0.07,0.99,0.71,0.34,-0.07,
4.711,-0.00,-0.07,0.99,0.71,0.34,-0.07,
4.712,-0.00,-0.07,0.99,0.58,0.27,-0.07,
4.714,-0.01,-0.07,0.99,0.58,0.27,-0.07,
4.717,-0.01,-0.07,0.99,0.43,0.20,0.03,
4.717,-0.02,-0.07,0.99,0.43,0.20,0.03,
4.719,-0.02,-0.07,1.00,0.43,0.20,0.03,
4.722,-0.02,-0.07,1.00,0.43,0.20,0.03,
4.722,-0.02,-0.07,1.00,0.25,0.20,0.01,
4.724,-0.02,-0.08,1.00,0.25,0.20,0.01,
4.726,-0.02,-0.08,1.00,0.25,0.20,0.01,
4.726,-0.02,-0.08,1.00,0.25,0.14,0.09,
4.729,-0.01,-0.09,1.00,0.25,0.14,0.09,
4.732,-0.00,-0.10,1.00,0.25,0.14,0.09,
4.732,-0.00,-0.10,1.00,0.25,0.06,0.08,
4.734,0.01,-0.10,1.00,0.25,0.06,0.08,
4.736,0.01,-0.11,1.00,0.25,0.06,0.08,
4.737,0.01,-0.11,1.00,0.34,-0.03,0.09,
4.738,0.02,-0.11,1.00,0.34,-0.03,0.09,
4.741,0.02,-0.11,1.00,0.48,-0.15,0.07,
4.741,0.03,-0.12,1.00,0.48,-0.15,0.07,
4.743,0.03,-0.11,1.00,0.48,-0.15,0.07,
4.746,0.04,-0.11,1.00,0.48,-0.15,0.07,
4.747,0.04,-0.11,1.00,0.63,-0.27,0.06,
4.749,0.05,-0.12,0.99,0.63,-0.27,0.06,
4.751,0.04,-0.12,1.00,0.63,-0.27,0.06,
4.751,0.04,-0.12,1.00,0.72,-0.26,0.07,
4.754,0.04,-0.12,1.01,0.72,-0.26,0.07,
4.76,0.05,-0.12,1.01,0.72,-0.26,0.07,
4.761,0.05,-0.12,1.01,0.83,-0.29,0.09,
4.761,0.04,-0.12,1.01,0.83,-0.29,0.09,
4.761,0.03,-0.12,1.01,0.83,-0.29,0.09,
4.762,0.03,-0.12,1.01,0.80,-0.33,0.18,
4.763,0.02,-0.11,1.00,0.80,-0.33,0.18,
4.766,0.02,-0.11,1.00,0.66,-0.30,0.23,
4.766,0.01,-0.11,1.00,0.66,-0.30,0.23,
4.769,0.01,-0.11,0.99,0.66,-0.30,0.23,
4.771,0.00,-0.10,0.99,0.66,-0.30,0.23,
4.771,0.00,-0.10,0.99,0.46,-0.22,0.11,
4.775,-0.00,-0.10,0.98,0.46,-0.22,0.11,
4.777,-0.01,-0.09,0.97,0.46,-0.22,0.11,
4.777,-0.01,-0.09,0.97,0.38,-0.17,0.01,
4.778,-0.01,-0.09,0.97,0.38,-0.17,0.01,
4.781,-0.01,-0.09,0.96,0.38,-0.17,0.01,
4.783,-0.01,-0.09,0.96,0.25,-0.08,-0.15,
4.784,-0.01,-0.09,0.95,0.25,-0.08,-0.15,
4.786,-0.02,-0.08,0.93,0.25,-0.08,-0.15,
4.786,-0.02,-0.08,0.93,0.21,0.00,-0.28,
4.788,-0.02,-0.08,0.92,0.21,0.00,-0.28,
4.791,-0.02,-0.07,0.91,0.21,0.00,-0.28,
4.792,-0.02,-0.07,0.91,0.16,0.05,-0.46,
4.794,-0.03,-0.07,0.91,0.16,0.05,-0.46,
4.795,-0.04,-0.08,0.90,0.16,0.05,-0.46,
4.796,-0.04,-0.08,0.90,0.07,0.12,-0.70,
4.797,-0.04,-0.08,0.90,0.07,0.12,-0.70,
4.801,-0.04,-0.08,0.90,0.07,0.12,-0.70,
4.801,-0.04,-0.08,0.90,-0.04,0.13,-0.81,
4.803,-0.04,-0.08,0.90,-0.04,0.13,-0.81,
4.807,-0.03,-0.08,0.91,-0.04,0.13,-0.81,
4.808,-0.03,-0.08,0.91,-0.11,0.07,-0.82,
4.808,-0.03,-0.08,0.91,-0.11,0.07,-0.82,
4.811,-0.03,-0.09,0.92,-0.11,0.07,-0.82,
4.811,-0.03,-0.09,0.92,-0.04,0.05,-0.81,
4.812,-0.02,-0.09,0.92,-0.04,0.05,-0.81,
4.816,-0.02,-0.10,0.92,-0.04,0.05,-0.81,
4.816,-0.02,-0.10,0.92,0.01,0.02,-0.69,
4.818,-0.02,-0.11,0.94,0.01,0.02,-0.69,
4.821,-0.01,-0.11,0.94,0.01,0.02,-0.69,
4.821,-0.01,-0.11,0.94,0.11,-0.08,-0.62,
4.824,-0.01,-0.12,0.95,0.11,-0.08,-0.62,
4.827,-0.01,-0.13,0.94,0.11,-0.08,-0.62,
4.827,-0.01,-0.13,0.94,0.15,-0.22,-0.47,
4.827,-0.01,-0.13,0.87,0.15,-0.22,-0.47,
4.831,-0.00,-0.10,0.81,0.15,-0.22,-0.47,
4.831,-0.00,-0.10,0.81,0.16,-0.31,-0.39,
4.833,-0.00,-0.08,0.79,0.16,-0.31,-0.39,
4.835,-0.01,-0.07,0.81,0.16,-0.31,-0.39,
4.836,-0.01,-0.07,0.81,0.23,-0.27,-1.42,
4.838,-0.02,-0.09,0.86,0.23,-0.27,-1.42,
4.841,-0.03,-0.10,0.91,0.23,-0.27,-1.42,
4.841,-0.03,-0.10,0.91,0.23,0.17,-1.74,
4.843,-0.04,-0.12,0.96,0.23,0.17,-1.74,
4.846,-0.04,-0.13,0.99,0.23,0.17,-1.74,
4.846,-0.04,-0.13,0.99,0.03,0.01,-0.95,
4.847,-0.03,-0.13,1.02,0.03,0.01,-0.95,
4.855,-0.02,-0.13,1.04,0.03,0.01,-0.95,
4.856,-0.02,-0.13,1.04,-0.08,-0.25,-0.06,
4.856,-0.01,-0.12,1.06,-0.08,-0.25,-0.06,
4.856,-0.00,-0.11,1.09,-0.08,-0.25,-0.06,
4.856,-0.00,-0.11,1.09,0.07,-0.36,0.47,
4.859,-0.00,-0.11,1.11,0.07,-0.36,0.47,
4.86,-0.00,-0.10,1.13,0.07,-0.36,0.47,
4.86,-0.00,-0.10,1.13,0.23,-0.17,0.91,
4.862,0.00,-0.10,1.13,0.23,-0.17,0.91,
4.865,0.01,-0.09,1.13,0.23,-0.17,0.91,
4.865,0.01,-0.09,1.13,0.28,-0.05,1.36,
4.867,-0.00,-0.09,1.13,0.28,-0.05,1.36,
4.87,-0.00,-0.08,1.12,0.28,-0.05,1.36,
4.87,-0.00,-0.08,1.12,0.35,0.03,1.47,
4.877,0.01,-0.08,1.11,0.35,0.03,1.47,
4.878,0.01,-0.08,1.11,0.35,0.03,1.47,
4.878,0.01,-0.08,1.11,0.30,0.12,1.40,
4.878,0.02,-0.07,1.11,0.30,0.12,1.40,
4.879,0.02,-0.07,1.11,0.40,0.19,1.24,
4.879,0.03,-0.07,1.11,0.40,0.19,1.24,
4.882,0.03,-0.07,1.10,0.40,0.19,1.24,
4.885,0.04,-0.08,1.10,0.40,0.19,1.24,
4.885,0.04,-0.08,1.10,0.55,0.24,1.21,
4.887,0.03,-0.08,1.11,0.55,0.24,1.21,
4.904,0.03,-0.08,1.10,0.55,0.24,1.21,
4.905,0.03,-0.08,1.10,0.65,0.21,1.13,
4.905,0.03,-0.08,1.10,0.65,0.21,1.13,
4.905,0.03,-0.09,1.11,0.65,0.21,1.13,
4.906,0.03,-0.09,1.11,0.61,0.13,1.13,
4.906,0.02,-0.09,1.12,0.61,0.13,1.13,
4.906,0.02,-0.08,1.13,0.61,0.13,1.13,
4.906,0.02,-0.08,1.13,0.64,0.12,1.15,
4.906,0.02,-0.09,1.14,0.64,0.12,1.15,
4.907,0.02,-0.08,1.14,0.64,0.12,1.15,
4.907,0.02,-0.08,1.14,0.56,0.11,1.30,
4.907,0.02,-0.09,1.14,0.56,0.11,1.30,
4.909,0.01,-0.09,1.15,0.56,0.11,1.30,
4.91,0.01,-0.09,1.15,0.54,0.10,1.45,
4.911,0.01,-0.09,1.16,0.54,0.10,1.45,
4.915,0.01,-0.09,1.16,0.49,0.07,1.57,
4.915,0.01,-0.10,1.17,0.49,0.07,1.57,
4.917,-0.00,-0.11,1.17,0.49,0.07,1.57,
4.92,-0.01,-0.10,1.18,0.49,0.07,1.57,
4.92,-0.01,-0.10,1.18,0.40,-0.02,1.73,
4.921,-0.01,-0.08,1.16,0.40,-0.02,1.73,
4.925,-0.00,-0.05,1.14,0.40,-0.02,1.73,
4.926,-0.00,-0.05,1.14,0.27,-0.15,1.80,
4.927,0.01,-0.04,1.12,0.27,-0.15,1.80,
4.929,0.00,-0.05,1.10,0.27,-0.15,1.80,
4.929,0.00,-0.05,1.10,0.28,0.23,1.57,
4.931,0.01,-0.05,1.08,0.28,0.23,1.57,
4.934,-0.00,-0.06,1.07,0.28,0.23,1.57,
4.935,-0.00,-0.06,1.07,0.34,0.42,1.16,
4.937,-0.00,-0.07,1.07,0.34,0.42,1.16,
4.939,-0.00,-0.07,1.07,0.31,0.30,0.83,
4.939,-0.00,-0.06,1.07,0.31,0.30,0.83,
4.943,-0.00,-0.06,1.08,0.31,0.30,0.83,
4.944,-0.00,-0.05,1.07,0.31,0.30,0.83,
4.944,-0.00,-0.05,1.07,0.26,0.22,0.73,
4.949,-0.00,-0.05,1.08,0.26,0.22,0.73,
4.95,-0.00,-0.05,1.09,0.26,0.22,0.73,
4.95,-0.00,-0.05,1.09,0.25,0.29,0.81,
