
time,gFx,gFy,gFz,ax,ay,az,
0.002,-0.04,0.04,0.91,-0.24,0.26,-0.45,
0.003,-0.04,0.04,0.91,-0.16,0.26,-0.61,
0.003,-0.02,0.03,0.90,-0.16,0.26,-0.61,
0.003,-0.02,0.03,0.90,-0.16,0.26,-0.61,
0.003,-0.02,0.03,0.90,0.04,0.17,-0.76,
0.004,-0.01,0.02,0.90,0.04,0.17,-0.76,
0.009,-0.00,0.01,0.91,0.04,0.17,-0.76,
0.01,-0.00,0.01,0.91,0.29,0.04,-0.91,
0.01,-0.00,0.01,0.91,0.29,0.04,-0.91,
0.01,-0.00,0.01,0.91,0.29,0.04,-0.91,
0.01,-0.00,0.01,0.91,0.43,-0.06,-0.83,
0.013,-0.01,0.01,0.93,0.43,-0.06,-0.83,
0.015,-0.02,0.02,0.94,0.43,-0.06,-0.83,
0.016,-0.02,0.02,0.94,0.45,-0.10,-0.78,
0.018,-0.02,0.02,0.96,0.45,-0.10,-0.78,
0.026,-0.03,0.03,0.98,0.45,-0.10,-0.78,
0.026,-0.03,0.03,0.98,0.34,-0.08,-0.53,
0.027,-0.03,0.03,0.99,0.34,-0.08,-0.53,
0.027,-0.04,0.03,1.01,0.34,-0.08,-0.53,
0.027,-0.04,0.03,1.01,0.24,0.03,-0.17,
0.027,-0.05,0.03,1.03,0.24,0.03,-0.17,
0.03,-0.05,0.03,1.04,0.24,0.03,-0.17,
0.03,-0.05,0.03,1.04,0.07,0.06,0.12,
0.033,-0.05,0.03,1.05,0.07,0.06,0.12,
0.044,-0.06,0.02,1.06,0.07,0.06,0.12,
0.045,-0.06,0.02,1.06,-0.03,0.09,0.42,
0.045,-0.05,0.02,1.06,-0.03,0.09,0.42,
0.045,-0.04,0.03,1.07,-0.03,0.09,0.42,
0.045,-0.04,0.03,1.07,-0.08,0.07,0.62,
0.045,-0.03,0.03,1.06,-0.08,0.07,0.62,
0.046,-0.03,0.02,1.06,-0.08,0.07,0.62,
0.046,-0.03,0.02,1.06,0.02,0.06,0.71,
0.048,-0.02,0.02,1.05,0.02,0.06,0.71,
0.051,-0.01,0.02,1.04,0.02,0.06,0.71,
0.051,-0.01,0.02,1.04,0.11,0.06,0.68,
0.063,-0.01,0.01,1.04,0.11,0.06,0.68,
0.063,-0.00,0.01,1.03,0.11,0.06,0.68,
0.064,-0.00,0.01,1.03,0.25,0.00,0.55,
0.064,-0.00,0.01,1.02,0.25,0.00,0.55,
0.064,-0.01,0.01,1.02,0.25,0.00,0.55,
0.065,-0.01,0.01,1.02,0.34,-0.05,0.45,
0.065,-0.01,0.01,1.01,0.34,-0.05,0.45,
0.065,-0.01,0.01,1.01,0.34,-0.06,0.30,
0.065,-0.00,0.02,1.01,0.34,-0.06,0.30,
0.067,-0.01,0.02,1.01,0.34,-0.06,0.30,
0.077,-0.02,0.03,1.01,0.34,-0.06,0.30,
0.077,-0.02,0.03,1.01,0.33,-0.03,0.16,
0.078,-0.02,0.03,1.01,0.33,-0.03,0.16,
0.078,-0.02,0.03,1.01,0.33,-0.03,0.16,
0.078,-0.02,0.03,1.01,0.22,0.05,0.20,
0.078,-0.03,0.04,1.01,0.22,0.05,0.20,
0.08,-0.03,0.04,1.01,0.22,0.05,0.20,
0.08,-0.03,0.04,1.01,0.14,0.15,0.15,
0.082,-0.03,0.03,1.01,0.14,0.15,0.15,
0.085,-0.03,0.03,1.02,0.14,0.15,0.15,
0.085,-0.03,0.03,1.02,0.09,0.19,0.16,
0.094,-0.03,0.03,1.02,0.09,0.19,0.16,
0.095,-0.02,0.03,1.03,0.09,0.19,0.16,
0.095,-0.02,0.03,1.03,0.07,0.17,0.21,
0.095,-0.03,0.03,1.03,0.07,0.17,0.21,
0.096,-0.02,0.03,1.03,0.07,0.17,0.21,
0.096,-0.02,0.03,1.03,0.12,0.15,0.32,
0.097,-0.02,0.03,1.03,0.12,0.15,0.32,
0.099,-0.02,0.03,1.03,0.12,0.15,0.32,
0.1,-0.02,0.03,1.03,0.12,0.16,0.34,
0.111,-0.02,0.03,1.03,0.12,0.16,0.34,
0.112,-0.02,0.03,1.03,0.12,0.16,0.34,
0.113,-0.02,0.03,1.03,0.14,0.11,0.35,
0.113,-0.02,0.03,1.02,0.14,0.11,0.35,
0.113,-0.02,0.03,1.02,0.14,0.11,0.35,
0.113,-0.02,0.03,1.02,0.19,0.13,0.31,
0.113,-0.02,0.03,1.02,0.19,0.13,0.31,
0.114,-0.02,0.03,1.02,0.19,0.13,0.31,
0.114,-0.02,0.03,1.02,0.15,0.15,0.27,
0.117,-0.03,0.03,1.02,0.15,0.15,0.27,
0.119,-0.03,0.03,1.01,0.15,0.15,0.27,
0.119,-0.03,0.03,1.01,0.13,0.13,0.26,
0.13,-0.03,0.03,1.01,0.13,0.13,0.26,
0.131,-0.03,0.04,1.00,0.13,0.13,0.26,
0.131,-0.03,0.04,1.00,0.08,0.15,0.18,
0.131,-0.04,0.03,1.00,0.08,0.15,0.18,
0.131,-0.04,0.03,1.00,0.08,0.15,0.18,
0.132,-0.04,0.03,1.00,0.02,0.16,0.09,
0.132,-0.04,0.04,0.99,0.02,0.16,0.09,
0.134,-0.04,0.04,0.99,0.02,0.16,0.09,
0.134,-0.04,0.04,0.99,-0.04,0.16,0.04,
0.136,-0.04,0.04,0.98,-0.04,0.16,0.04,
0.144,-0.04,0.05,0.97,-0.04,0.16,0.04,
0.145,-0.04,0.05,0.97,-0.06,0.21,-0.04,
0.145,-0.04,0.04,0.97,-0.06,0.21,-0.04,
0.145,-0.04,0.03,0.97,-0.06,0.21,-0.04,
0.146,-0.04,0.03,0.97,-0.07,0.24,-0.18,
0.146,-0.04,0.02,0.97,-0.07,0.24,-0.18,
0.149,-0.04,0.02,0.96,-0.07,0.24,-0.18,
0.149,-0.04,0.02,0.96,-0.03,0.21,-0.26,
0.152,-0.04,0.02,0.96,-0.03,0.21,-0.26,
0.163,-0.04,0.01,0.95,-0.03,0.21,-0.26,
0.163,-0.04,0.01,0.95,-0.04,0.05,-0.26,
0.163,-0.04,0.01,0.94,-0.04,0.05,-0.26,
0.164,-0.03,0.01,0.95,-0.04,0.05,-0.26,
0.166,-0.03,0.01,0.95,-0.02,-0.00,-0.38,
0.166,-0.03,0.02,0.96,-0.02,-0.00,-0.38,
0.167,-0.03,0.02,0.96,0.01,-0.01,-0.46,
0.167,-0.03,0.02,0.95,0.01,-0.01,-0.46,
0.167,-0.02,0.02,0.95,0.01,-0.01,-0.46,
0.17,-0.02,0.02,0.95,0.01,-0.01,-0.46,
0.17,-0.02,0.02,0.95,0.08,0.05,-0.37,
0.176,-0.03,0.02,0.96,0.08,0.05,-0.37,
0.176,-0.03,0.01,0.96,0.08,0.05,-0.37,
0.177,-0.03,0.01,0.96,0.13,0.04,-0.41,
0.177,-0.03,0.02,0.96,0.13,0.04,-0.41,
0.179,-0.04,0.02,0.95,0.13,0.04,-0.41,
0.179,-0.04,0.02,0.95,0.06,0.03,-0.34,
0.181,-0.03,0.02,0.96,0.06,0.03,-0.34,
0.183,-0.04,0.01,0.97,0.06,0.03,-0.34,
0.184,-0.04,0.01,0.97,-0.01,0.06,-0.38,
0.194,-0.04,0.01,0.97,-0.01,0.06,-0.38,
0.195,-0.04,0.00,0.97,-0.01,0.06,-0.38,
0.195,-0.04,0.00,0.97,-0.03,0.01,-0.29,
0.195,-0.05,-0.00,0.97,-0.03,0.01,-0.29,
0.196,-0.05,-0.00,0.98,-0.03,0.01,-0.29,
0.196,-0.05,-0.00,0.98,-0.08,-0.05,-0.20,
0.196,-0.05,0.00,0.98,-0.08,-0.05,-0.20,
0.199,-0.05,0.01,0.98,-0.08,-0.05,-0.20,
0.199,-0.05,0.01,0.98,-0.16,-0.10,-0.18,
0.201,-0.05,0.01,0.98,-0.16,-0.10,-0.18,
0.209,-0.05,0.02,0.99,-0.16,-0.10,-0.18,
0.21,-0.05,0.02,0.99,-0.16,-0.02,-0.11,
0.21,-0.06,0.01,0.99,-0.16,-0.02,-0.11,
0.21,-0.06,0.00,0.99,-0.16,-0.02,-0.11,
0.21,-0.06,0.00,0.99,-0.20,0.10,-0.07,
0.211,-0.06,0.00,0.99,-0.20,0.10,-0.07,
0.213,-0.06,0.00,1.00,-0.20,0.10,-0.07,
0.214,-0.06,0.00,1.00,-0.26,0.02,-0.03,
0.216,-0.06,-0.00,0.99,-0.26,0.02,-0.03,
0.218,-0.06,-0.00,1.00,-0.26,0.02,-0.03,
0.218,-0.06,-0.00,1.00,-0.29,-0.00,0.02,
0.224,-0.06,-0.00,1.00,-0.29,-0.00,0.02,
0.224,-0.05,0.00,1.01,-0.29,-0.00,0.02,
0.225,-0.05,0.00,1.01,-0.29,-0.04,0.04,
0.226,-0.05,0.01,1.01,-0.29,-0.04,0.04,
0.228,-0.05,0.01,1.01,-0.29,-0.04,0.04,
0.228,-0.05,0.01,1.01,-0.24,-0.02,0.11,
0.231,-0.04,0.01,1.01,-0.24,-0.02,0.11,
0.233,-0.03,0.00,1.01,-0.24,-0.02,0.11,
0.233,-0.03,0.00,1.01,-0.20,0.07,0.14,
0.236,-0.03,0.00,1.02,-0.20,0.07,0.14,
0.242,-0.03,-0.00,1.01,-0.20,0.07,0.14,
0.243,-0.03,-0.00,1.01,-0.11,0.05,0.15,
0.243,-0.02,-0.01,1.01,-0.11,0.05,0.15,
0.243,-0.02,-0.01,1.01,-0.11,0.05,0.15,
0.243,-0.02,-0.01,1.01,-0.01,0.01,0.21,
0.246,-0.02,-0.02,1.01,-0.01,0.01,0.21,
0.248,-0.02,-0.02,1.01,-0.01,0.01,0.21,
0.248,-0.02,-0.02,1.01,0.02,-0.06,0.18,
0.25,-0.03,-0.02,1.01,0.02,-0.06,0.18,
0.253,-0.04,-0.00,1.01,0.02,-0.06,0.18,
0.253,-0.04,-0.00,1.01,0.05,-0.14,0.15,
0.259,-0.02,-0.00,1.01,0.05,-0.14,0.15,
0.26,-0.01,-0.02,1.00,0.05,-0.14,0.15,
0.26,-0.01,-0.02,1.00,-0.08,-0.04,0.15,
0.26,-0.00,-0.02,1.01,-0.08,-0.04,0.15,
0.263,-0.00,-0.02,1.01,0.04,-0.03,0.12,
0.263,0.01,-0.03,1.02,0.04,-0.03,0.12,
0.265,0.01,-0.04,1.01,0.04,-0.03,0.12,
0.268,0.01,-0.02,0.99,0.04,-0.03,0.12,
0.268,0.01,-0.02,0.99,0.26,-0.18,0.21,
0.278,0.01,-0.02,0.98,0.26,-0.18,0.21,
0.278,0.02,-0.02,0.98,0.26,-0.18,0.21,
0.278,0.02,-0.02,0.98,0.29,-0.21,0.05,
0.279,0.02,-0.02,0.98,0.29,-0.21,0.05,
0.279,0.02,-0.01,0.99,0.29,-0.21,0.05,
0.279,0.02,-0.01,0.99,0.33,-0.09,-0.11,
0.279,0.00,-0.01,1.00,0.33,-0.09,-0.11,
0.282,0.00,-0.01,1.00,0.33,-0.09,-0.11,
0.283,0.00,-0.01,1.00,0.38,-0.03,-0.06,
0.284,0.01,-0.01,0.99,0.38,-0.03,-0.06,
0.296,0.01,-0.01,0.99,0.21,0.02,0.05,
0.297,0.01,-0.02,0.99,0.21,0.02,0.05,
0.297,-0.01,-0.03,0.98,0.21,0.02,0.05,
0.297,-0.02,-0.04,0.96,0.21,0.02,0.05,
0.297,-0.02,-0.04,0.96,0.24,-0.03,-0.03,
0.298,-0.02,-0.04,0.96,0.24,-0.03,-0.03,
0.298,-0.00,-0.03,0.95,0.24,-0.03,-0.03,
0.299,-0.00,-0.03,0.95,-0.02,-0.21,-0.26,
0.299,0.01,-0.02,0.96,-0.02,-0.21,-0.26,
0.302,0.02,-0.01,0.98,-0.02,-0.21,-0.26,
0.303,0.02,-0.01,0.98,0.04,-0.20,-0.37,
0.311,0.03,0.00,0.99,0.04,-0.20,-0.37,
0.312,0.03,0.00,1.00,0.04,-0.20,-0.37,
0.312,0.03,0.00,1.00,0.28,0.06,-0.20,
0.313,0.03,-0.00,1.01,0.28,0.06,-0.20,
0.313,0.03,-0.01,1.01,0.28,0.06,-0.20,
0.314,0.03,-0.01,1.01,0.43,0.20,0.01,
0.315,0.03,-0.02,1.01,0.43,0.20,0.01,
0.317,0.03,-0.02,1.01,0.43,0.20,0.01,
0.317,0.03,-0.02,1.01,0.42,0.13,0.15,
0.321,0.02,-0.02,1.01,0.42,0.13,0.15,
0.326,0.03,-0.03,1.00,0.42,0.13,0.15,
0.326,0.03,-0.03,1.00,0.39,0.02,0.13,
0.328,0.02,-0.04,0.99,0.39,0.02,0.13,
0.328,0.01,-0.04,0.99,0.39,0.02,0.13,
0.328,0.01,-0.04,0.99,0.33,-0.04,0.13,
0.33,0.03,-0.05,0.99,0.33,-0.04,0.13,
0.332,0.01,-0.04,0.98,0.33,-0.04,0.13,
0.332,0.01,-0.04,0.98,0.24,-0.16,-0.04,
0.335,-0.01,-0.04,0.98,0.24,-0.16,-0.04,
0.343,-0.02,-0.03,0.98,0.24,-0.16,-0.04,
0.344,-0.02,-0.03,0.98,0.23,-0.19,-0.10,
0.344,-0.01,-0.03,0.98,0.23,-0.19,-0.10,
0.344,-0.01,-0.03,0.98,0.23,-0.19,-0.10,
0.344,-0.01,-0.03,0.98,-0.07,-0.08,-0.12,
0.344,0.01,-0.04,0.99,-0.07,-0.08,-0.12,
0.347,0.02,-0.04,1.00,-0.07,-0.08,-0.12,
0.347,0.02,-0.04,1.00,-0.04,-0.05,-0.14,
0.349,0.02,-0.03,1.00,-0.04,-0.05,-0.14,
0.352,0.02,-0.04,1.00,-0.04,-0.05,-0.14,
0.352,0.02,-0.04,1.00,0.18,-0.08,0.01,
0.358,0.02,-0.04,1.01,0.18,-0.08,0.01,
0.359,0.02,-0.04,1.02,0.18,-0.08,0.01,
0.359,0.02,-0.04,1.02,0.24,-0.04,0.09,
0.359,0.02,-0.04,1.02,0.24,-0.04,0.09,
0.362,0.02,-0.04,1.03,0.24,-0.04,0.09,
0.362,0.02,-0.04,1.03,0.22,-0.06,0.22,
0.364,0.03,-0.04,1.04,0.22,-0.06,0.22,
0.366,0.03,-0.05,1.04,0.22,-0.06,0.22,
0.367,0.03,-0.05,1.04,0.24,-0.08,0.33,
0.369,0.03,-0.04,1.04,0.24,-0.08,0.33,
0.38,0.03,-0.04,1.04,0.30,-0.12,0.45,
0.381,0.03,-0.05,1.03,0.30,-0.12,0.45,
0.381,0.03,-0.05,1.03,0.30,-0.12,0.45,
0.381,0.03,-0.06,1.04,0.30,-0.12,0.45,
0.381,0.03,-0.06,1.04,0.32,-0.11,0.38,
0.382,0.03,-0.06,1.04,0.32,-0.11,0.38,
0.382,0.03,-0.06,1.04,0.32,-0.11,0.38,
0.382,0.03,-0.06,1.04,0.30,-0.16,0.41,
0.384,0.04,-0.06,1.04,0.30,-0.16,0.41,
0.397,0.04,-0.06,1.04,0.28,-0.21,0.44,
0.398,0.04,-0.05,1.04,0.28,-0.21,0.44,
0.398,0.04,-0.05,1.04,0.28,-0.21,0.44,
0.399,0.01,-0.02,1.06,0.28,-0.21,0.44,
0.399,0.01,-0.02,1.06,0.36,-0.18,0.44,
0.399,-0.03,0.03,1.06,0.36,-0.18,0.44,
0.399,-0.03,0.03,1.06,0.36,-0.18,0.44,
0.399,-0.03,0.03,1.06,0.19,0.03,0.57,
0.4,-0.03,0.02,1.03,0.19,0.03,0.57,
0.402,-0.04,0.01,1.01,0.19,0.03,0.57,
0.402,-0.04,0.01,1.01,-0.34,0.62,0.61,
0.413,-0.04,-0.01,1.00,-0.34,0.62,0.61,
0.414,-0.04,-0.03,1.00,-0.34,0.62,0.61,
0.414,-0.04,-0.03,1.00,-0.37,0.47,0.27,
0.414,-0.03,-0.05,0.99,-0.37,0.47,0.27,
0.414,-0.01,-0.06,0.99,-0.37,0.47,0.27,
0.415,-0.01,-0.06,0.99,-0.41,0.16,0.01,
0.415,0.00,-0.06,0.97,-0.41,0.16,0.01,
0.416,0.01,-0.04,0.97,-0.41,0.16,0.01,
0.416,0.01,-0.04,0.97,-0.19,-0.24,-0.06,
0.419,0.01,-0.03,0.97,-0.19,-0.24,-0.06,
0.426,-0.01,-0.02,0.97,-0.19,-0.24,-0.06,
0.427,-0.01,-0.02,0.97,0.06,-0.16,-0.26,
0.427,-0.01,-0.02,0.97,0.06,-0.16,-0.26,
0.427,-0.01,-0.02,0.96,0.06,-0.16,-0.26,
0.427,-0.01,-0.02,0.96,0.03,0.07,-0.28,
0.428,-0.02,-0.02,0.95,0.03,0.07,-0.28,
0.43,-0.01,-0.03,0.95,0.03,0.07,-0.28,
0.431,-0.01,-0.03,0.95,-0.09,0.14,-0.32,
0.433,-0.01,-0.03,0.96,-0.09,0.14,-0.32,
0.441,-0.02,-0.03,0.96,-0.09,0.14,-0.32,
0.442,-0.02,-0.03,0.96,-0.10,0.08,-0.42,
0.442,-0.03,-0.04,0.96,-0.10,0.08,-0.42,
0.443,-0.03,-0.04,0.97,-0.10,0.08,-0.42,
0.443,-0.03,-0.04,0.97,-0.10,-0.03,-0.36,
0.443,-0.04,-0.04,0.98,-0.10,-0.03,-0.36,
0.445,-0.05,-0.04,0.98,-0.10,-0.03,-0.36,
0.446,-0.05,-0.04,0.98,-0.20,-0.11,-0.29,
0.448,-0.05,-0.04,0.98,-0.20,-0.11,-0.29,
0.45,-0.05,-0.04,0.99,-0.20,-0.11,-0.29,
0.45,-0.05,-0.04,0.99,-0.40,-0.13,-0.11,
0.459,-0.05,-0.03,0.99,-0.40,-0.13,-0.11,
0.46,-0.05,-0.02,0.98,-0.40,-0.13,-0.11,
0.46,-0.05,-0.02,0.98,-0.45,-0.08,-0.07,
0.461,-0.05,-0.02,0.99,-0.45,-0.08,-0.07,
0.461,-0.04,-0.03,1.00,-0.45,-0.08,-0.07,
0.461,-0.04,-0.03,1.00,-0.42,0.06,-0.09,
0.463,-0.04,-0.02,0.99,-0.42,0.06,-0.09,
0.466,-0.03,-0.02,1.00,-0.42,0.06,-0.09,
0.466,-0.03,-0.02,1.00,-0.34,0.05,-0.02,
0.467,-0.03,-0.02,1.01,-0.34,0.05,-0.02,
0.48,-0.03,-0.02,1.01,-0.34,0.05,-0.02,
0.481,-0.03,-0.02,1.01,-0.26,0.09,0.03,
0.481,-0.03,-0.03,1.02,-0.26,0.09,0.03,
0.481,-0.02,-0.03,1.01,-0.26,0.09,0.03,
0.482,-0.02,-0.03,1.01,-0.19,0.13,0.13,
0.482,-0.02,-0.03,1.02,-0.19,0.13,0.13,
0.482,-0.03,-0.04,1.02,-0.19,0.13,0.13,
0.483,-0.03,-0.04,1.02,-0.19,0.02,0.22,
0.483,-0.03,-0.04,1.01,-0.19,0.02,0.22,
0.485,-0.02,-0.04,1.01,-0.19,0.02,0.22,
0.485,-0.02,-0.04,1.01,-0.18,-0.02,0.24,
0.494,-0.03,-0.03,1.01,-0.18,-0.02,0.24,
0.497,-0.03,-0.03,1.01,-0.18,-0.02,0.24,
0.497,-0.03,-0.03,1.01,-0.17,-0.04,0.16,
0.498,-0.03,-0.03,1.02,-0.17,-0.04,0.16,
0.498,-0.03,-0.03,1.03,-0.17,-0.04,0.16,
0.498,-0.03,-0.03,1.03,-0.19,-0.00,0.15,
0.498,-0.02,-0.03,1.02,-0.19,-0.00,0.15,
0.5,-0.03,-0.03,1.02,-0.19,-0.00,0.15,
0.5,-0.03,-0.03,1.02,-0.19,0.02,0.30,
0.502,-0.03,-0.03,1.02,-0.19,0.02,0.30,
0.514,-0.03,-0.02,1.02,-0.19,0.02,0.30,
0.515,-0.03,-0.02,1.02,-0.16,0.01,0.26,
0.515,-0.03,-0.02,1.02,-0.16,0.01,0.26,
0.515,-0.03,-0.02,1.01,-0.16,0.01,0.26,
0.515,-0.03,-0.02,1.01,-0.20,0.06,0.20,
0.515,-0.03,-0.02,1.01,-0.20,0.06,0.20,
0.516,-0.03,-0.02,1.01,-0.20,0.06,0.20,
0.516,-0.03,-0.02,1.01,-0.21,0.09,0.19,
0.518,-0.02,-0.02,1.00,-0.21,0.09,0.19,
0.526,-0.02,-0.02,1.00,-0.21,0.09,0.19,
0.526,-0.02,-0.02,1.00,-0.17,0.12,0.15,
0.527,-0.01,-0.02,1.00,-0.17,0.12,0.15,
0.527,-0.01,-0.02,1.00,-0.17,0.12,0.15,
0.527,-0.01,-0.02,1.00,-0.09,0.15,0.05,
0.528,-0.01,-0.02,1.00,-0.09,0.15,0.05,
0.53,-0.01,-0.02,1.00,-0.09,0.15,0.05,
0.53,-0.01,-0.02,1.00,-0.04,0.13,0.02,
0.532,-0.01,-0.02,1.00,-0.04,0.13,0.02,
0.535,-0.01,-0.02,1.00,0.00,0.12,0.00,
0.535,-0.00,-0.02,1.00,0.00,0.12,0.00,
0.541,-0.00,-0.02,0.99,0.00,0.12,0.00,
0.542,-0.00,-0.02,1.00,0.00,0.12,0.00,
0.542,-0.00,-0.02,1.00,0.02,0.10,0.02,
0.542,0.00,-0.02,1.00,0.02,0.10,0.02,
0.545,0.00,-0.02,1.00,0.02,0.10,0.02,
0.545,0.00,-0.02,1.00,0.03,0.10,-0.01,
0.547,0.00,-0.03,1.00,0.03,0.10,-0.01,
0.55,0.00,-0.02,1.01,0.03,0.10,-0.01,
0.55,0.00,-0.02,1.01,0.09,0.09,0.04,
0.552,0.00,-0.03,1.01,0.09,0.09,0.04,
0.558,-0.00,-0.03,1.01,0.09,0.09,0.04,
0.559,-0.00,-0.03,1.01,0.09,0.07,0.09,
0.559,-0.01,-0.03,1.02,0.09,0.07,0.09,
0.559,-0.01,-0.02,1.02,0.09,0.07,0.09,
0.56,-0.01,-0.02,1.02,0.06,0.04,0.16,
0.562,-0.01,-0.03,1.02,0.06,0.04,0.16,
0.565,-0.01,-0.02,1.02,0.06,0.04,0.16,
0.565,-0.01,-0.02,1.02,-0.01,0.07,0.20,
0.567,-0.01,-0.02,1.02,-0.01,0.07,0.20,
0.57,-0.01,-0.03,1.02,-0.01,0.07,0.20,
0.57,-0.01,-0.03,1.02,-0.05,0.07,0.25,
0.575,-0.02,-0.03,1.02,-0.05,0.07,0.25,
0.576,-0.02,-0.03,1.02,-0.05,0.07,0.25,
0.576,-0.02,-0.03,1.02,-0.05,0.08,0.24,
0.577,-0.02,-0.03,1.02,-0.05,0.08,0.24,
0.58,-0.02,-0.03,1.02,-0.05,0.08,0.24,
0.581,-0.02,-0.03,1.02,-0.08,0.05,0.21,
0.582,-0.02,-0.03,1.02,-0.08,0.05,0.21,
0.585,-0.02,-0.03,1.01,-0.08,0.05,0.21,
0.585,-0.02,-0.03,1.01,-0.07,0.05,0.19,
0.599,-0.02,-0.03,1.01,-0.07,0.05,0.19,
0.599,-0.01,-0.03,1.01,-0.07,0.05,0.19,
0.6,-0.01,-0.03,1.01,-0.10,0.05,0.17,
0.6,-0.01,-0.03,1.01,-0.10,0.05,0.17,
0.6,-0.01,-0.03,1.01,-0.10,0.05,0.17,
0.6,-0.01,-0.03,1.01,-0.06,0.04,0.13,
0.6,-0.01,-0.03,1.01,-0.06,0.04,0.13,
0.601,-0.01,-0.03,1.01,-0.06,0.04,0.13,
0.601,-0.01,-0.03,1.01,-0.03,-0.01,0.13,
0.602,-0.00,-0.03,1.00,-0.03,-0.01,0.13,
0.612,-0.00,-0.04,1.00,-0.03,-0.01,0.13,
0.613,-0.00,-0.04,1.00,0.01,-0.01,0.10,
0.613,-0.00,-0.04,1.00,0.01,-0.01,0.10,
0.613,-0.00,-0.04,1.00,0.06,-0.02,0.06,
0.613,0.00,-0.04,1.00,0.06,-0.02,0.06,
0.613,0.00,-0.04,1.00,0.06,-0.02,0.06,
0.614,0.00,-0.04,1.01,0.06,-0.02,0.06,
0.615,0.00,-0.04,1.01,0.08,-0.06,0.06,
0.616,-0.00,-0.04,1.01,0.08,-0.06,0.06,
0.619,0.00,-0.04,1.00,0.08,-0.06,0.06,
0.619,0.00,-0.04,1.00,0.10,-0.10,0.07,
0.629,0.00,-0.04,1.01,0.10,-0.10,0.07,
0.63,0.00,-0.05,1.01,0.10,-0.10,0.07,
0.63,0.00,-0.05,1.01,0.06,-0.11,0.07,
0.63,0.00,-0.04,1.00,0.06,-0.11,0.07,
0.63,0.00,-0.04,1.01,0.06,-0.11,0.07,
0.63,0.00,-0.04,1.01,0.09,-0.12,0.09,
0.631,0.00,-0.04,1.01,0.09,-0.12,0.09,
0.634,0.00,-0.04,1.01,0.09,-0.12,0.09,
0.634,0.00,-0.04,1.01,0.09,-0.10,0.08,
0.637,0.00,-0.04,1.01,0.09,-0.10,0.08,
0.644,0.00,-0.04,1.01,0.09,-0.10,0.08,
0.645,0.00,-0.04,1.01,0.09,-0.09,0.08,
0.645,0.00,-0.04,1.01,0.09,-0.09,0.08,
0.645,0.01,-0.04,1.01,0.09,-0.09,0.08,
0.645,0.01,-0.04,1.01,0.09,-0.04,0.09,
0.646,0.00,-0.04,1.01,0.09,-0.04,0.09,
0.649,0.00,-0.04,1.00,0.09,-0.04,0.09,
0.649,0.00,-0.04,1.00,0.10,-0.07,0.09,
0.651,0.01,-0.04,1.01,0.10,-0.07,0.09,
0.654,0.00,-0.04,1.01,0.10,-0.07,0.09,
0.656,0.00,-0.04,1.01,0.09,-0.07,0.07,
0.657,0.01,-0.04,1.00,0.09,-0.07,0.07,
0.66,0.01,-0.04,1.00,0.10,-0.05,0.09,
0.66,0.00,-0.03,1.00,0.10,-0.05,0.09,
0.661,-0.00,-0.03,1.01,0.10,-0.05,0.09,
0.663,-0.00,-0.03,1.01,0.10,-0.05,0.09,
0.663,-0.00,-0.03,1.01,0.09,-0.02,0.06,
0.665,-0.01,-0.03,1.00,0.09,-0.02,0.06,
0.668,-0.01,-0.03,1.00,0.09,-0.02,0.06,
0.668,-0.01,-0.03,1.00,0.04,-0.02,0.09,
0.676,-0.01,-0.03,1.00,0.04,-0.02,0.09,
0.677,-0.01,-0.03,0.99,0.04,-0.02,0.09,
0.677,-0.01,-0.03,0.99,-0.01,-0.00,0.02,
0.677,-0.01,-0.03,0.99,-0.01,-0.00,0.02,
0.678,-0.01,-0.03,0.99,-0.01,-0.00,0.02,
0.678,-0.01,-0.03,0.99,-0.03,0.00,-0.03,
0.68,-0.01,-0.03,0.99,-0.03,0.00,-0.03,
0.684,-0.01,-0.03,0.99,-0.05,-0.01,-0.09,
0.684,-0.01,-0.03,0.99,-0.05,-0.01,-0.09,
0.685,-0.01,-0.03,0.99,-0.05,-0.01,-0.09,
0.697,-0.00,-0.03,0.98,-0.05,-0.01,-0.09,
0.698,-0.00,-0.03,0.98,-0.02,-0.00,-0.09,
0.698,-0.00,-0.03,0.98,-0.02,-0.00,-0.09,
0.698,-0.00,-0.03,0.98,-0.02,-0.00,-0.09,
0.699,-0.00,-0.03,0.98,0.01,-0.00,-0.13,
0.699,-0.00,-0.03,0.98,0.01,-0.00,-0.13,
0.699,-0.00,-0.03,0.98,0.01,-0.00,-0.13,
0.699,-0.00,-0.03,0.98,0.04,0.04,-0.19,
0.7,-0.00,-0.03,0.98,0.04,0.04,-0.19,
0.703,-0.00,-0.03,0.98,0.04,0.04,-0.19,
0.703,-0.00,-0.03,0.98,0.04,0.03,-0.19,
0.711,-0.00,-0.03,0.98,0.04,0.03,-0.19,
0.712,-0.00,-0.03,0.98,0.03,0.04,-0.18,
0.712,-0.00,-0.03,0.98,0.03,0.04,-0.18,
0.712,0.00,-0.03,0.98,0.03,0.04,-0.18,
0.713,0.00,-0.03,0.98,0.03,0.04,-0.18,
0.713,0.00,-0.03,0.98,0.04,-0.02,-0.19,
0.715,0.00,-0.03,0.98,0.04,-0.02,-0.19,
0.718,-0.00,-0.03,0.99,0.04,-0.02,-0.19,
0.719,-0.00,-0.03,0.99,0.08,0.01,-0.20,
0.731,0.00,-0.03,0.99,0.08,0.01,-0.20,
0.731,0.00,-0.03,0.99,0.08,0.01,-0.20,
0.732,0.00,-0.03,0.99,0.05,-0.02,-0.12,
0.732,-0.00,-0.03,0.99,0.05,-0.02,-0.12,
0.732,0.00,-0.03,0.99,0.05,-0.02,-0.12,
0.733,0.00,-0.03,0.99,0.08,-0.03,-0.10,
0.733,0.01,-0.03,0.99,0.08,-0.03,-0.10,
0.733,0.00,-0.04,0.99,0.08,-0.03,-0.10,
0.733,0.00,-0.04,0.99,0.06,-0.02,-0.08,
0.735,0.00,-0.04,1.00,0.06,-0.02,-0.08,
0.744,0.01,-0.03,0.99,0.06,-0.02,-0.08,
0.744,0.01,-0.03,0.99,0.08,-0.03,-0.05,
0.745,0.01,-0.03,0.99,0.08,-0.03,-0.05,
0.745,0.01,-0.03,1.00,0.08,-0.03,-0.05,
0.745,0.01,-0.03,1.00,0.11,-0.02,-0.02,
0.745,0.00,-0.03,1.00,0.11,-0.02,-0.02,
0.747,0.00,-0.03,1.00,0.11,-0.02,-0.02,
0.747,0.00,-0.03,1.00,0.10,0.01,0.00,
0.75,0.00,-0.03,1.00,0.10,0.01,0.00,
0.752,-0.00,-0.03,1.00,0.10,0.01,0.00,
0.752,-0.00,-0.03,1.00,0.07,0.00,0.01,
0.759,0.00,-0.03,0.99,0.07,0.00,0.01,
0.76,0.00,-0.02,0.99,0.07,0.00,0.01,
0.76,0.00,-0.02,0.99,0.05,0.02,-0.02,
0.76,0.00,-0.02,0.99,0.05,0.02,-0.02,
0.762,0.00,-0.02,0.99,0.05,0.02,-0.02,
0.763,0.00,-0.02,0.99,0.06,0.06,-0.06,
0.765,0.00,-0.02,0.98,0.06,0.06,-0.06,
0.768,0.00,-0.02,0.98,0.06,0.06,-0.06,
0.768,0.00,-0.02,0.98,0.09,0.10,-0.06,
0.77,0.00,-0.02,0.98,0.09,0.10,-0.06,
0.776,0.00,-0.02,0.97,0.09,0.10,-0.06,
0.777,0.00,-0.02,0.97,0.09,0.08,-0.15,
0.777,0.01,-0.03,0.97,0.09,0.08,-0.15,
0.777,0.01,-0.03,0.97,0.09,0.08,-0.15,
0.778,0.01,-0.03,0.97,0.10,0.07,-0.23,
0.779,0.00,-0.02,0.96,0.10,0.07,-0.23,
0.783,0.00,-0.03,0.96,0.10,0.07,-0.23,
0.783,0.00,-0.03,0.96,0.13,0.01,-0.24,
0.784,0.00,-0.03,0.96,0.13,0.01,-0.24,
0.787,0.00,-0.03,0.96,0.13,0.01,-0.24,
0.787,0.00,-0.03,0.96,0.09,0.04,-0.31,
0.793,0.01,-0.03,0.96,0.09,0.04,-0.31,
0.794,0.01,-0.03,0.96,0.09,0.04,-0.31,
0.794,0.01,-0.03,0.96,0.09,0.03,-0.33,
0.794,0.01,-0.03,0.96,0.09,0.03,-0.33,
0.797,0.01,-0.03,0.97,0.09,0.03,-0.33,
0.797,0.01,-0.03,0.97,0.16,0.02,-0.37,
0.799,0.01,-0.03,0.97,0.16,0.02,-0.37,
0.802,0.01,-0.03,0.97,0.16,0.02,-0.37,
0.802,0.01,-0.03,0.97,0.14,-0.00,-0.29,
0.815,0.01,-0.03,0.97,0.14,-0.00,-0.29,
0.816,0.02,-0.03,0.97,0.14,-0.00,-0.29,
0.816,0.02,-0.03,0.97,0.16,0.04,-0.29,
0.817,0.02,-0.03,0.97,0.16,0.04,-0.29,
0.817,0.02,-0.03,0.98,0.16,0.04,-0.29,
0.818,0.02,-0.03,0.98,0.21,0.03,-0.26,
0.818,0.02,-0.03,0.98,0.21,0.03,-0.26,
0.818,0.02,-0.03,0.98,0.21,0.03,-0.26,
0.818,0.02,-0.03,0.98,0.22,0.01,-0.21,
0.822,0.02,-0.03,0.98,0.22,0.01,-0.21,
0.822,0.02,-0.03,0.98,0.22,0.01,-0.21,
0.823,0.02,-0.03,0.98,0.21,0.03,-0.17,
0.828,0.02,-0.03,0.98,0.21,0.03,-0.17,
0.829,0.02,-0.03,0.98,0.21,0.03,-0.17,
0.829,0.02,-0.03,0.98,0.22,-0.01,-0.15,
0.829,0.02,-0.03,0.98,0.22,-0.01,-0.15,
0.832,0.03,-0.02,0.97,0.22,-0.01,-0.15,
0.832,0.03,-0.02,0.97,0.24,0.04,-0.15,
0.835,0.02,-0.02,0.98,0.24,0.04,-0.15,
0.837,0.03,-0.02,0.97,0.24,0.04,-0.15,
0.837,0.03,-0.02,0.97,0.25,0.07,-0.19,
0.845,0.03,-0.02,0.97,0.25,0.07,-0.19,
0.846,0.03,-0.02,0.98,0.25,0.07,-0.19,
0.846,0.03,-0.02,0.98,0.26,0.10,-0.18,
0.846,0.03,-0.02,0.97,0.26,0.10,-0.18,
0.846,0.03,-0.02,0.97,0.26,0.10,-0.18,
0.846,0.03,-0.02,0.97,0.27,0.09,-0.19,
0.849,0.03,-0.02,0.97,0.27,0.09,-0.19,
0.852,0.03,-0.02,0.96,0.27,0.09,-0.19,
0.852,0.03,-0.02,0.96,0.29,0.11,-0.22,
0.854,0.03,-0.02,0.96,0.29,0.11,-0.22,
0.86,0.03,-0.02,0.96,0.30,0.14,-0.28,
0.86,0.03,-0.02,0.96,0.30,0.14,-0.28,
0.861,0.03,-0.02,0.96,0.30,0.14,-0.28,
0.862,0.03,-0.02,0.95,0.30,0.14,-0.28,
0.862,0.03,-0.02,0.95,0.31,0.14,-0.32,
0.864,0.04,-0.02,0.95,0.31,0.14,-0.32,
0.867,0.04,-0.02,0.95,0.31,0.14,-0.32,
0.867,0.04,-0.02,0.95,0.32,0.13,-0.37,
0.869,0.04,-0.02,0.94,0.32,0.13,-0.37,
0.877,0.04,-0.02,0.94,0.32,0.13,-0.37,
0.878,0.04,-0.02,0.94,0.39,0.12,-0.44,
0.878,0.04,-0.02,0.94,0.39,0.12,-0.44,
0.878,0.04,-0.02,0.93,0.39,0.12,-0.44,
0.878,0.04,-0.02,0.93,0.39,0.14,-0.51,
0.879,0.04,-0.02,0.93,0.39,0.14,-0.51,
0.882,0.04,-0.02,0.94,0.39,0.14,-0.51,
0.882,0.04,-0.02,0.94,0.42,0.09,-0.57,
0.883,0.04,-0.02,0.94,0.42,0.09,-0.57,
0.887,0.05,-0.02,0.94,0.42,0.09,-0.57,
0.887,0.05,-0.02,0.94,0.41,0.10,-0.54,
0.893,0.05,-0.03,0.94,0.41,0.10,-0.54,
0.894,0.05,-0.03,0.94,0.41,0.10,-0.54,
0.894,0.05,-0.03,0.94,0.45,0.08,-0.54,
0.895,0.04,-0.03,0.94,0.45,0.08,-0.54,
0.897,0.04,-0.03,0.94,0.45,0.08,-0.54,
0.897,0.04,-0.03,0.94,0.46,0.02,-0.49,
0.899,0.03,-0.03,0.94,0.46,0.02,-0.49,
0.901,0.03,-0.03,0.93,0.46,0.02,-0.49,
0.902,0.03,-0.03,0.93,0.42,-0.00,-0.50,
0.903,0.03,-0.03,0.93,0.42,-0.00,-0.50,
0.91,0.03,-0.03,0.93,0.42,-0.00,-0.50,
0.91,0.03,-0.03,0.93,0.34,0.02,-0.51,
0.911,0.02,-0.03,0.93,0.34,0.02,-0.51,
0.911,0.02,-0.03,0.93,0.28,0.04,-0.59,
0.911,0.02,-0.02,0.92,0.28,0.04,-0.59,
0.913,0.02,-0.02,0.92,0.28,0.04,-0.59,
0.916,0.02,-0.02,0.92,0.28,0.04,-0.59,
0.916,0.02,-0.02,0.92,0.26,0.05,-0.63,
0.919,0.02,-0.02,0.92,0.26,0.05,-0.63,
0.921,0.01,-0.02,0.92,0.26,0.05,-0.63,
0.921,0.01,-0.02,0.92,0.21,0.10,-0.64,
0.931,0.01,-0.03,0.91,0.21,0.10,-0.64,
0.931,0.01,-0.03,0.91,0.21,0.10,-0.64,
0.932,0.01,-0.03,0.91,0.18,0.10,-0.67,
0.932,0.01,-0.03,0.91,0.18,0.10,-0.67,
0.932,0.01,-0.04,0.91,0.18,0.10,-0.67,
0.932,0.01,-0.04,0.91,0.14,0.00,-0.75,
0.933,0.02,-0.04,0.91,0.14,0.00,-0.75,
0.936,0.03,-0.04,0.91,0.14,0.00,-0.75,
0.936,0.03,-0.04,0.91,0.17,-0.05,-0.74,
0.938,0.03,-0.05,0.90,0.17,-0.05,-0.74,
0.946,0.03,-0.04,0.90,0.17,-0.05,-0.74,
0.946,0.03,-0.04,0.90,0.29,-0.09,-0.72,
0.946,0.04,-0.05,0.90,0.29,-0.09,-0.72,
0.947,0.04,-0.05,0.91,0.29,-0.09,-0.72,
0.947,0.04,-0.05,0.91,0.37,-0.14,-0.82,
0.949,0.04,-0.05,0.91,0.37,-0.14,-0.82,
0.951,0.04,-0.05,0.91,0.37,-0.14,-0.82,
0.951,0.04,-0.05,0.91,0.43,-0.16,-0.79,
0.953,0.04,-0.05,0.92,0.43,-0.16,-0.79,
0.963,0.04,-0.05,0.92,0.43,-0.16,-0.79,
0.964,0.04,-0.05,0.92,0.42,-0.19,-0.74,
0.964,0.04,-0.05,0.93,0.42,-0.19,-0.74,
0.965,0.04,-0.05,0.93,0.42,-0.19,-0.74,
0.965,0.04,-0.05,0.93,0.43,-0.17,-0.60,
0.965,0.04,-0.06,0.94,0.43,-0.17,-0.60,
0.966,0.03,-0.06,0.95,0.43,-0.17,-0.60,
0.966,0.03,-0.06,0.95,0.46,-0.17,-0.50,
0.968,0.02,-0.06,0.94,0.46,-0.17,-0.50,
0.971,0.03,-0.05,0.94,0.46,-0.17,-0.50,
0.971,0.03,-0.05,0.94,0.37,-0.20,-0.34,
0.978,0.03,-0.04,0.95,0.37,-0.20,-0.34,
0.978,0.03,-0.04,0.95,0.37,-0.20,-0.34,
0.979,0.03,-0.04,0.95,0.25,-0.15,-0.37,
0.979,0.04,-0.04,0.95,0.25,-0.15,-0.37,
0.981,0.03,-0.04,0.95,0.25,-0.15,-0.37,
0.981,0.03,-0.04,0.95,0.35,-0.04,-0.31,
0.982,0.03,-0.04,0.96,0.35,-0.04,-0.31,
0.985,0.02,-0.04,0.96,0.35,-0.04,-0.31,
0.985,0.02,-0.04,0.96,0.36,0.02,-0.26,
0.987,0.02,-0.04,0.95,0.36,0.02,-0.26,
0.994,0.01,-0.05,0.94,0.36,0.02,-0.26,
0.994,0.01,-0.05,0.94,0.27,0.01,-0.21,
0.994,0.00,-0.05,0.94,0.27,0.01,-0.21,
0.995,0.00,-0.05,0.94,0.27,0.01,-0.21,
0.995,0.00,-0.05,0.94,0.15,-0.07,-0.33,
0.997,-0.00,-0.05,0.93,0.15,-0.07,-0.33,
1.0,-0.00,-0.06,0.92,0.15,-0.07,-0.33,
1.0,-0.00,-0.06,0.92,0.09,-0.15,-0.39,
1.002,-0.00,-0.05,0.92,0.09,-0.15,-0.39,
1.011,-0.00,-0.05,0.92,0.03,-0.16,-0.53,
1.012,-0.01,-0.05,0.92,0.03,-0.16,-0.53,
1.012,-0.01,-0.05,0.91,0.03,-0.16,-0.53,
1.013,-0.00,-0.05,0.91,0.03,-0.16,-0.53,
1.013,-0.00,-0.05,0.91,0.03,-0.15,-0.56,
1.013,-0.00,-0.05,0.90,0.03,-0.15,-0.56,
1.014,-0.01,-0.05,0.89,0.03,-0.15,-0.56,
1.015,-0.01,-0.05,0.89,0.04,-0.11,-0.66,
1.017,-0.01,-0.05,0.89,0.04,-0.11,-0.66,
1.019,-0.01,-0.05,0.88,0.04,-0.11,-0.66,
1.02,-0.01,-0.05,0.88,0.02,-0.14,-0.79,
1.031,-0.01,-0.06,0.87,0.02,-0.14,-0.79,
1.032,-0.01,-0.06,0.86,0.02,-0.14,-0.79,
1.032,-0.01,-0.06,0.86,0.03,-0.14,-0.93,
1.032,-0.01,-0.07,0.86,0.03,-0.14,-0.93,
1.033,-0.01,-0.06,0.85,0.03,-0.14,-0.93,
1.033,-0.01,-0.06,0.85,0.07,-0.21,-1.07,
1.033,-0.01,-0.06,0.84,0.07,-0.21,-1.07,
1.034,-0.01,-0.06,0.84,0.07,-0.21,-1.07,
1.035,-0.01,-0.06,0.84,0.03,-0.27,-1.19,
1.037,-0.01,-0.06,0.84,0.03,-0.27,-1.19,
1.046,-0.01,-0.07,0.84,0.03,-0.27,-1.19,
1.047,-0.01,-0.07,0.84,0.04,-0.23,-1.27,
1.047,-0.01,-0.06,0.84,0.04,-0.23,-1.27,
1.047,-0.01,-0.07,0.85,0.04,-0.23,-1.27,
1.047,-0.01,-0.07,0.85,0.03,-0.25,-1.29,
1.047,-0.01,-0.07,0.84,0.03,-0.25,-1.29,
1.049,-0.00,-0.07,0.84,0.03,-0.25,-1.29,
1.049,-0.00,-0.07,0.84,0.03,-0.27,-1.24,
1.052,-0.00,-0.07,0.85,0.03,-0.27,-1.24,
1.054,0.00,-0.07,0.86,0.03,-0.27,-1.24,
1.063,0.00,-0.07,0.86,0.13,-0.28,-1.26,
1.064,0.01,-0.07,0.87,0.13,-0.28,-1.26,
1.064,0.01,-0.07,0.88,0.13,-0.28,-1.26,
1.065,0.01,-0.07,0.88,0.18,-0.27,-1.12,
1.065,0.01,-0.07,0.89,0.18,-0.27,-1.12,
1.065,0.01,-0.08,0.89,0.18,-0.27,-1.12,
1.065,0.01,-0.08,0.89,0.22,-0.26,-0.93,
1.067,0.01,-0.08,0.90,0.22,-0.26,-0.93,
1.07,0.02,-0.08,0.90,0.22,-0.26,-0.93,
1.07,0.02,-0.08,0.90,0.26,-0.28,-0.78,
1.079,0.03,-0.09,0.91,0.26,-0.28,-0.78,
1.079,0.04,-0.09,0.92,0.26,-0.28,-0.78,
1.08,0.04,-0.09,0.92,0.34,-0.30,-0.64,
1.08,0.04,-0.09,0.92,0.34,-0.30,-0.64,
1.08,0.05,-0.09,0.92,0.34,-0.30,-0.64,
1.08,0.05,-0.09,0.92,0.48,-0.38,-0.49,
1.081,0.05,-0.09,0.92,0.48,-0.38,-0.49,
1.084,0.06,-0.09,0.93,0.48,-0.38,-0.49,
1.084,0.06,-0.09,0.93,0.57,-0.38,-0.42,
1.086,0.07,-0.09,0.93,0.57,-0.38,-0.42,
1.095,0.07,-0.10,0.93,0.57,-0.38,-0.42,
1.095,0.07,-0.10,0.93,0.69,-0.35,-0.38,
1.095,0.07,-0.09,0.93,0.69,-0.35,-0.38,
1.096,0.08,-0.09,0.92,0.69,-0.35,-0.38,
1.096,0.08,-0.09,0.92,0.76,-0.37,-0.36,
1.096,0.08,-0.09,0.92,0.76,-0.37,-0.36,
1.099,0.08,-0.09,0.92,0.76,-0.37,-0.36,
1.1,0.08,-0.09,0.92,0.85,-0.32,-0.39,
1.101,0.08,-0.09,0.92,0.85,-0.32,-0.39,
1.104,0.09,-0.08,0.91,0.85,-0.32,-0.39,
1.104,0.09,-0.08,0.91,0.88,-0.28,-0.42,
1.11,0.10,-0.08,0.91,0.88,-0.28,-0.42,
1.111,0.10,-0.08,0.91,0.88,-0.28,-0.42,
1.111,0.10,-0.08,0.91,0.94,-0.22,-0.46,
1.111,0.11,-0.08,0.91,0.94,-0.22,-0.46,
1.113,0.11,-0.08,0.92,0.94,-0.22,-0.46,
1.114,0.11,-0.08,0.92,1.08,-0.18,-0.56,
1.116,0.11,-0.08,0.92,1.08,-0.18,-0.56,
1.119,0.11,-0.09,0.92,1.08,-0.18,-0.56,
1.119,0.11,-0.09,0.92,1.14,-0.13,-0.47,
1.121,0.10,-0.09,0.92,1.14,-0.13,-0.47,
1.128,0.10,-0.10,0.92,1.14,-0.13,-0.47,
1.128,0.10,-0.10,0.92,1.11,-0.15,-0.41,
1.129,0.10,-0.09,0.92,1.11,-0.15,-0.41,
1.129,0.10,-0.10,0.92,1.11,-0.15,-0.41,
1.129,0.10,-0.10,0.92,1.05,-0.23,-0.41,
1.131,0.10,-0.11,0.93,1.05,-0.23,-0.41,
1.133,0.10,-0.11,0.93,1.05,-0.23,-0.41,
1.133,0.10,-0.11,0.93,1.03,-0.25,-0.36,
1.136,0.10,-0.11,0.93,1.03,-0.25,-0.36,
1.138,0.10,-0.11,0.93,1.03,-0.25,-0.36,
1.149,0.10,-0.11,0.93,1.00,-0.30,-0.32,
1.15,0.09,-0.12,0.93,1.00,-0.30,-0.32,
1.15,0.09,-0.12,0.92,1.00,-0.30,-0.32,
1.15,0.09,-0.12,0.92,1.01,-0.34,-0.31,
1.151,0.08,-0.13,0.92,1.01,-0.34,-0.31,
1.151,0.07,-0.13,0.92,1.01,-0.34,-0.31,
1.155,0.07,-0.13,0.92,0.91,-0.42,-0.34,
1.155,0.07,-0.13,0.91,0.91,-0.42,-0.34,
1.156,0.07,-0.12,0.91,0.91,-0.42,-0.34,
1.156,0.07,-0.12,0.91,0.79,-0.46,-0.40,
1.156,0.07,-0.12,0.90,0.79,-0.46,-0.40,
1.165,0.08,-0.11,0.89,0.79,-0.46,-0.40,
1.166,0.08,-0.11,0.89,0.70,-0.44,-0.46,
1.166,0.09,-0.10,0.88,0.70,-0.44,-0.46,
1.166,0.10,-0.09,0.87,0.70,-0.44,-0.46,
1.167,0.10,-0.09,0.87,0.80,-0.31,-0.64,
1.167,0.10,-0.08,0.87,0.80,-0.31,-0.64,
1.169,0.11,-0.07,0.87,0.80,-0.31,-0.64,
1.17,0.11,-0.07,0.87,0.96,-0.07,-0.81,
1.171,0.12,-0.06,0.85,0.96,-0.07,-0.81,
1.18,0.13,-0.05,0.85,0.96,-0.07,-0.81,
1.181,0.13,-0.05,0.85,1.08,0.17,-0.86,
1.181,0.14,-0.05,0.85,1.08,0.17,-0.86,
1.181,0.14,-0.05,0.85,1.08,0.17,-0.86,
1.181,0.14,-0.05,0.85,1.24,0.33,-1.01,
1.181,0.15,-0.06,0.85,1.24,0.33,-1.01,
1.183,0.15,-0.07,0.85,1.24,0.33,-1.01,
1.183,0.15,-0.07,0.85,1.37,0.43,-1.02,
1.186,0.16,-0.08,0.85,1.37,0.43,-1.02,
1.188,0.17,-0.08,0.85,1.37,0.43,-1.02,
1.188,0.17,-0.08,0.85,1.45,0.34,-1.04,
1.195,0.18,-0.09,0.86,1.45,0.34,-1.04,
1.196,0.18,-0.09,0.87,1.45,0.34,-1.04,
1.196,0.18,-0.09,0.87,1.62,0.17,-0.97,
1.196,0.19,-0.10,0.88,1.62,0.17,-0.97,
1.198,0.19,-0.11,0.89,1.62,0.17,-0.97,
1.198,0.19,-0.11,0.89,1.74,0.11,-0.87,
1.201,0.18,-0.12,0.89,1.74,0.11,-0.87,
1.203,0.17,-0.13,0.89,1.74,0.11,-0.87,
1.204,0.17,-0.13,0.89,1.80,0.01,-0.66,
1.206,0.17,-0.13,0.89,1.80,0.01,-0.66,
1.213,0.17,-0.14,0.89,1.80,0.01,-0.66,
1.214,0.17,-0.14,0.89,1.66,-0.17,-0.57,
1.214,0.17,-0.14,0.90,1.66,-0.17,-0.57,
1.214,0.17,-0.14,0.90,1.62,-0.26,-0.57,
1.215,0.17,-0.14,0.91,1.62,-0.26,-0.57,
1.215,0.16,-0.15,0.91,1.62,-0.26,-0.57,
1.218,0.15,-0.15,0.92,1.62,-0.26,-0.57,
1.219,0.15,-0.15,0.92,1.64,-0.31,-0.43,
1.221,0.14,-0.15,0.91,1.64,-0.31,-0.43,
1.223,0.12,-0.16,0.91,1.64,-0.31,-0.43,
1.223,0.12,-0.16,0.91,1.50,-0.35,-0.32,
1.228,0.11,-0.16,0.91,1.50,-0.35,-0.32,
1.228,0.11,-0.16,0.91,1.27,-0.40,-0.36,
1.229,0.09,-0.16,0.90,1.27,-0.40,-0.36,
1.231,0.08,-0.17,0.88,1.27,-0.40,-0.36,
1.232,0.07,-0.17,0.87,1.27,-0.40,-0.36,
1.232,0.07,-0.17,0.87,1.01,-0.45,-0.45,
1.235,0.06,-0.17,0.87,1.01,-0.45,-0.45,
1.237,0.05,-0.17,0.86,1.01,-0.45,-0.45,
1.237,0.05,-0.17,0.86,0.79,-0.51,-0.67,
1.249,0.04,-0.17,0.86,0.79,-0.51,-0.67,
1.249,0.03,-0.17,0.86,0.79,-0.51,-0.67,
1.25,0.03,-0.17,0.86,0.61,-0.49,-0.77,
1.25,0.02,-0.17,0.87,0.61,-0.49,-0.77,
1.25,0.02,-0.17,0.87,0.43,-0.47,-0.82,
1.25,0.02,-0.17,0.87,0.43,-0.47,-0.82,
1.251,0.02,-0.16,0.88,0.43,-0.47,-0.82,
1.253,0.01,-0.15,0.88,0.43,-0.47,-0.82,
1.253,0.01,-0.15,0.88,0.33,-0.41,-0.74,
1.255,0.01,-0.16,0.90,0.33,-0.41,-0.74,
1.262,0.00,-0.16,0.92,0.33,-0.41,-0.74,
1.262,0.00,-0.16,0.92,0.29,-0.27,-0.60,
1.262,-0.00,-0.15,0.93,0.29,-0.27,-0.60,
1.262,-0.00,-0.15,0.94,0.29,-0.27,-0.60,
1.263,-0.00,-0.15,0.94,0.21,-0.26,-0.31,
1.265,-0.01,-0.15,0.96,0.21,-0.26,-0.31,
1.268,-0.01,-0.16,0.97,0.21,-0.26,-0.31,
1.268,-0.01,-0.16,0.97,0.15,-0.16,-0.07,
1.27,-0.01,-0.16,0.99,0.15,-0.16,-0.07,
1.273,-0.02,-0.16,0.99,0.15,-0.16,-0.07,
1.273,-0.02,-0.16,0.99,0.08,-0.18,0.26,
1.281,-0.03,-0.16,1.00,0.08,-0.18,0.26,
1.282,-0.03,-0.16,1.00,0.04,-0.16,0.47,
1.282,-0.04,-0.16,1.00,0.04,-0.16,0.47,
1.282,-0.04,-0.16,1.01,0.04,-0.16,0.47,
1.283,-0.04,-0.16,1.02,0.04,-0.16,0.47,
1.283,-0.04,-0.16,1.02,-0.15,-0.16,0.60,
1.284,-0.04,-0.16,1.02,-0.15,-0.16,0.60,
1.287,-0.05,-0.17,1.03,-0.15,-0.16,0.60,
1.287,-0.05,-0.17,1.03,-0.20,-0.12,0.74,
1.296,-0.05,-0.16,1.02,-0.20,-0.12,0.74,
1.297,-0.05,-0.16,1.02,-0.23,-0.14,0.79,
1.297,-0.05,-0.16,1.02,-0.23,-0.14,0.79,
1.297,-0.05,-0.16,1.02,-0.23,-0.14,0.79,
1.298,-0.06,-0.16,1.02,-0.23,-0.14,0.79,
1.298,-0.06,-0.16,1.02,-0.27,-0.10,0.79,
1.299,-0.06,-0.15,1.01,-0.27,-0.10,0.79,
1.302,-0.06,-0.15,1.01,-0.33,-0.04,0.78,
1.302,-0.06,-0.14,1.00,-0.33,-0.04,0.78,
1.304,-0.07,-0.14,0.99,-0.33,-0.04,0.78,
1.311,-0.08,-0.14,0.99,-0.33,-0.04,0.78,
1.311,-0.08,-0.14,0.99,-0.37,0.10,0.62,
1.312,-0.08,-0.14,0.99,-0.37,0.10,0.62,
1.312,-0.08,-0.14,0.98,-0.37,0.10,0.62,
1.312,-0.08,-0.14,0.98,-0.49,0.17,0.51,
1.314,-0.08,-0.14,0.97,-0.49,0.17,0.51,
1.317,-0.08,-0.13,0.97,-0.49,0.17,0.51,
1.317,-0.08,-0.13,0.97,-0.51,0.23,0.43,
1.319,-0.09,-0.12,0.96,-0.51,0.23,0.43,
1.321,-0.10,-0.12,0.95,-0.51,0.23,0.43,
1.322,-0.10,-0.12,0.95,-0.51,0.27,0.31,
1.328,-0.09,-0.11,0.94,-0.51,0.27,0.31,
1.329,-0.09,-0.10,0.93,-0.51,0.27,0.31,
1.329,-0.09,-0.10,0.93,-0.59,0.42,0.15,
1.329,-0.09,-0.09,0.93,-0.59,0.42,0.15,
1.331,-0.09,-0.10,0.92,-0.59,0.42,0.15,
1.331,-0.09,-0.10,0.92,-0.55,0.56,-0.01,
1.334,-0.10,-0.09,0.92,-0.55,0.56,-0.01,
1.336,-0.10,-0.10,0.92,-0.55,0.56,-0.01,
1.336,-0.10,-0.10,0.92,-0.58,0.69,-0.15,
1.339,-0.10,-0.10,0.92,-0.58,0.69,-0.15,
1.345,-0.10,-0.11,0.91,-0.58,0.69,-0.15,
1.346,-0.10,-0.11,0.91,-0.64,0.70,-0.17,
1.346,-0.10,-0.11,0.91,-0.64,0.70,-0.17,
1.346,-0.11,-0.11,0.91,-0.64,0.70,-0.17,
1.346,-0.11,-0.11,0.91,-0.63,0.63,-0.25,
1.349,-0.11,-0.12,0.90,-0.63,0.63,-0.25,
1.352,-0.10,-0.12,0.90,-0.63,0.63,-0.25,
1.352,-0.10,-0.12,0.90,-0.67,0.59,-0.28,
1.354,-0.10,-0.12,0.90,-0.67,0.59,-0.28,
1.369,-0.10,-0.13,0.90,-0.67,0.59,-0.28,
1.37,-0.10,-0.13,0.90,-0.67,0.52,-0.40,
1.37,-0.10,-0.14,0.91,-0.67,0.52,-0.40,
1.37,-0.09,-0.15,0.93,-0.67,0.52,-0.40,
1.371,-0.09,-0.15,0.93,-0.64,0.46,-0.34,
1.371,-0.09,-0.16,0.93,-0.64,0.46,-0.34,
1.371,-0.09,-0.16,0.95,-0.64,0.46,-0.34,
1.372,-0.09,-0.16,0.95,-0.59,0.32,-0.17,
1.372,-0.09,-0.17,0.97,-0.59,0.32,-0.17,
1.372,-0.09,-0.18,0.98,-0.59,0.32,-0.17,
1.373,-0.09,-0.18,0.98,-0.57,0.21,0.07,
1.385,-0.10,-0.19,1.00,-0.57,0.21,0.07,
1.386,-0.09,-0.20,1.01,-0.57,0.21,0.07,
1.387,-0.09,-0.20,1.01,-0.59,0.09,0.38,
1.387,-0.09,-0.21,1.02,-0.59,0.09,0.38,
1.387,-0.09,-0.21,1.03,-0.59,0.09,0.38,
1.387,-0.09,-0.21,1.03,-0.61,-0.02,0.67,
1.388,-0.09,-0.21,1.03,-0.61,-0.02,0.67,
1.388,-0.09,-0.21,1.05,-0.61,-0.02,0.67,
1.388,-0.09,-0.21,1.05,-0.61,-0.14,0.88,
1.388,-0.09,-0.22,1.05,-0.61,-0.14,0.88,
1.401,-0.08,-0.21,1.05,-0.61,-0.14,0.88,
1.401,-0.08,-0.21,1.05,-0.60,-0.14,1.03,
1.402,-0.08,-0.21,1.05,-0.60,-0.14,1.03,
1.402,-0.08,-0.21,1.05,-0.60,-0.14,1.03,
1.402,-0.08,-0.21,1.05,-0.60,-0.15,1.13,
1.402,-0.07,-0.21,1.06,-0.60,-0.15,1.13,
1.403,-0.07,-0.20,1.06,-0.60,-0.15,1.13,
1.403,-0.07,-0.20,1.06,-0.54,-0.08,1.18,
1.404,-0.07,-0.20,1.05,-0.54,-0.08,1.18,
1.406,-0.06,-0.20,1.05,-0.54,-0.08,1.18,
1.406,-0.06,-0.20,1.05,-0.46,0.02,1.22,
1.414,-0.05,-0.21,1.04,-0.46,0.02,1.22,
1.415,-0.05,-0.21,1.04,-0.41,0.04,1.15,
1.415,-0.05,-0.21,1.04,-0.41,0.04,1.15,
1.416,-0.05,-0.20,1.04,-0.41,0.04,1.15,
1.416,-0.06,-0.20,1.03,-0.41,0.04,1.15,
1.416,-0.06,-0.20,1.03,-0.29,0.04,1.06,
1.418,-0.06,-0.20,1.03,-0.29,0.04,1.06,
1.421,-0.08,-0.20,1.03,-0.29,0.04,1.06,
1.421,-0.08,-0.20,1.03,-0.34,0.08,1.03,
1.43,-0.09,-0.20,1.03,-0.34,0.08,1.03,
1.431,-0.10,-0.20,1.04,-0.34,0.08,1.03,
1.431,-0.10,-0.20,1.04,-0.51,0.16,0.95,
1.431,-0.11,-0.19,1.04,-0.51,0.16,0.95,
1.431,-0.11,-0.20,1.04,-0.51,0.16,0.95,
1.432,-0.11,-0.20,1.04,-0.70,0.20,0.99,
1.433,-0.12,-0.20,1.05,-0.70,0.20,0.99,
1.435,-0.12,-0.21,1.04,-0.70,0.20,0.99,
1.436,-0.12,-0.21,1.04,-0.87,0.23,1.08,
1.438,-0.12,-0.22,1.03,-0.87,0.23,1.08,
1.446,-0.13,-0.23,1.03,-0.87,0.23,1.08,
1.447,-0.13,-0.23,1.03,-0.96,0.18,1.11,
1.447,-0.14,-0.22,1.05,-0.96,0.18,1.11,
1.447,-0.14,-0.22,1.05,-0.96,0.18,1.11,
1.447,-0.14,-0.22,1.05,-1.03,0.00,0.96,
1.448,-0.14,-0.21,1.06,-1.03,0.00,0.96,
1.45,-0.14,-0.21,1.06,-1.16,0.07,1.18,
1.45,-0.15,-0.22,1.05,-1.16,0.07,1.18,
1.453,-0.15,-0.22,1.05,-1.16,0.07,1.18,
1.455,-0.15,-0.23,1.06,-1.16,0.07,1.18,
1.455,-0.15,-0.23,1.06,-1.18,0.09,1.22,
1.47,-0.16,-0.24,1.07,-1.18,0.09,1.22,
1.471,-0.17,-0.24,1.07,-1.18,0.09,1.22,
1.471,-0.17,-0.24,1.07,-1.23,0.02,1.25,
1.472,-0.17,-0.25,1.07,-1.23,0.02,1.25,
1.472,-0.17,-0.25,1.07,-1.23,0.02,1.25,
1.472,-0.17,-0.25,1.07,-1.30,-0.10,1.37,
1.472,-0.17,-0.25,1.07,-1.30,-0.10,1.37,
1.473,-0.17,-0.26,1.08,-1.30,-0.10,1.37,
1.473,-0.17,-0.26,1.08,-1.38,-0.13,1.38,
1.473,-0.17,-0.25,1.08,-1.38,-0.13,1.38,
1.481,-0.17,-0.26,1.08,-1.38,-0.13,1.38,
1.482,-0.17,-0.26,1.08,-1.38,-0.18,1.43,
1.482,-0.16,-0.26,1.08,-1.38,-0.18,1.43,
1.486,-0.16,-0.26,1.08,-1.38,-0.18,1.43,
1.486,-0.16,-0.26,1.08,-1.34,-0.16,1.47,
1.487,-0.15,-0.26,1.08,-1.34,-0.16,1.47,
1.487,-0.15,-0.27,1.09,-1.34,-0.16,1.47,
1.488,-0.15,-0.27,1.09,-1.26,-0.17,1.50,
1.488,-0.15,-0.27,1.09,-1.26,-0.17,1.50,
1.501,-0.15,-0.28,1.09,-1.26,-0.17,1.50,
1.502,-0.15,-0.28,1.09,-1.19,-0.20,1.54,
1.502,-0.15,-0.28,1.09,-1.19,-0.20,1.54,
1.503,-0.15,-0.28,1.09,-1.19,-0.20,1.54,
1.503,-0.15,-0.28,1.09,-1.20,-0.26,1.57,
1.503,-0.15,-0.29,1.10,-1.20,-0.26,1.57,
1.503,-0.14,-0.29,1.10,-1.20,-0.26,1.57,
1.503,-0.14,-0.29,1.10,-1.19,-0.32,1.59,
1.505,-0.13,-0.29,1.10,-1.19,-0.32,1.59,
1.506,-0.13,-0.29,1.09,-1.19,-0.32,1.59,
1.506,-0.13,-0.29,1.09,-1.15,-0.33,1.66,
1.513,-0.12,-0.29,1.09,-1.15,-0.33,1.66,
1.513,-0.11,-0.28,1.10,-1.15,-0.33,1.66,
1.514,-0.11,-0.28,1.10,-1.04,-0.33,1.64,
1.514,-0.11,-0.28,1.09,-1.04,-0.33,1.64,
1.514,-0.11,-0.28,1.08,-1.04,-0.33,1.64,
1.514,-0.11,-0.28,1.08,-0.89,-0.28,1.65,
1.518,-0.11,-0.29,1.09,-0.89,-0.28,1.65,
1.521,-0.11,-0.29,1.09,-0.89,-0.28,1.65,
1.521,-0.11,-0.29,1.09,-0.83,-0.21,1.56,
1.523,-0.12,-0.30,1.09,-0.83,-0.21,1.56,
1.53,-0.12,-0.30,1.08,-0.83,-0.21,1.56,
1.531,-0.12,-0.30,1.08,-0.84,-0.28,1.58,
1.531,-0.12,-0.30,1.08,-0.84,-0.28,1.58,
1.531,-0.12,-0.31,1.09,-0.84,-0.28,1.58,
1.531,-0.12,-0.31,1.09,-0.93,-0.34,1.55,
1.532,-0.12,-0.31,1.09,-0.93,-0.34,1.55,
1.535,-0.11,-0.31,1.10,-0.93,-0.34,1.55,
1.535,-0.11,-0.31,1.10,-0.95,-0.40,1.56,
1.537,-0.11,-0.32,1.11,-0.95,-0.40,1.56,
1.54,-0.10,-0.32,1.11,-0.95,-0.40,1.56,
1.54,-0.10,-0.32,1.11,-0.90,-0.43,1.63,
1.547,-0.10,-0.33,1.11,-0.90,-0.43,1.63,
1.548,-0.10,-0.34,1.12,-0.90,-0.43,1.63,
1.548,-0.10,-0.34,1.12,-0.80,-0.48,1.79,
1.549,-0.09,-0.34,1.11,-0.80,-0.48,1.79,
1.55,-0.09,-0.34,1.11,-0.73,-0.60,1.85,
1.55,-0.09,-0.35,1.10,-0.73,-0.60,1.85,
1.552,-0.09,-0.37,1.11,-0.73,-0.60,1.85,
1.555,-0.09,-0.37,1.10,-0.73,-0.60,1.85,
1.555,-0.09,-0.37,1.10,-0.69,-0.73,1.78,
1.557,-0.09,-0.37,1.10,-0.69,-0.73,1.78,
1.562,-0.09,-0.38,1.11,-0.69,-0.73,1.78,
1.563,-0.09,-0.38,1.11,-0.61,-0.92,1.75,
1.563,-0.10,-0.38,1.11,-0.61,-0.92,1.75,
1.565,-0.10,-0.38,1.11,-0.61,-0.92,1.75,
1.565,-0.10,-0.38,1.11,-0.67,-0.97,1.74,
1.567,-0.10,-0.38,1.11,-0.67,-0.97,1.74,
1.57,-0.11,-0.37,1.11,-0.67,-0.97,1.74,
1.57,-0.11,-0.37,1.11,-0.70,-0.99,1.80,
1.572,-0.11,-0.37,1.12,-0.70,-0.99,1.80,
1.574,-0.12,-0.37,1.12,-0.70,-0.99,1.80,
1.585,-0.12,-0.37,1.12,-0.77,-0.92,1.80,
1.585,-0.12,-0.35,1.11,-0.77,-0.92,1.80,
1.586,-0.12,-0.35,1.11,-0.77,-0.92,1.80,
1.586,-0.12,-0.35,1.11,-0.89,-0.84,1.88,
1.586,-0.13,-0.34,1.11,-0.89,-0.84,1.88,
1.586,-0.14,-0.34,1.11,-0.89,-0.84,1.88,
1.587,-0.14,-0.34,1.11,-0.97,-0.65,1.80,
1.587,-0.15,-0.33,1.11,-0.97,-0.65,1.80,
1.589,-0.16,-0.33,1.11,-0.97,-0.65,1.80,
1.59,-0.16,-0.33,1.11,-1.07,-0.53,1.80,
1.598,-0.18,-0.33,1.10,-1.07,-0.53,1.80,
1.598,-0.19,-0.32,1.10,-1.07,-0.53,1.80,
1.599,-0.19,-0.32,1.10,-1.31,-0.46,1.77,
1.599,-0.19,-0.32,1.10,-1.31,-0.46,1.77,
1.599,-0.19,-0.32,1.10,-1.56,-0.37,1.72,
1.599,-0.19,-0.32,1.10,-1.56,-0.37,1.72,
1.601,-0.20,-0.32,1.10,-1.56,-0.37,1.72,
1.604,-0.20,-0.32,1.10,-1.65,-0.32,1.68,
1.604,-0.20,-0.32,1.10,-1.65,-0.32,1.68,
1.607,-0.20,-0.33,1.10,-1.65,-0.32,1.68,
1.617,-0.21,-0.33,1.10,-1.65,-0.32,1.68,
1.618,-0.21,-0.33,1.10,-1.71,-0.34,1.68,
1.618,-0.20,-0.33,1.10,-1.71,-0.34,1.68,
1.618,-0.20,-0.33,1.10,-1.71,-0.34,1.68,
1.618,-0.20,-0.33,1.10,-1.76,-0.40,1.73,
1.619,-0.20,-0.32,1.09,-1.76,-0.40,1.73,
1.619,-0.20,-0.32,1.09,-1.76,-0.40,1.73,
1.619,-0.20,-0.32,1.09,-1.73,-0.39,1.67,
1.622,-0.19,-0.31,1.09,-1.73,-0.39,1.67,
1.624,-0.19,-0.32,1.09,-1.73,-0.39,1.67,
1.624,-0.19,-0.32,1.09,-1.70,-0.31,1.63,
1.631,-0.18,-0.31,1.08,-1.70,-0.31,1.63,
1.632,-0.17,-0.31,1.09,-1.70,-0.31,1.63,
1.632,-0.17,-0.31,1.09,-1.63,-0.24,1.58,
1.633,-0.17,-0.30,1.09,-1.63,-0.24,1.58,
1.633,-0.17,-0.30,1.09,-1.63,-0.24,1.58,
1.633,-0.17,-0.30,1.09,-1.48,-0.19,1.54,
1.636,-0.17,-0.30,1.09,-1.48,-0.19,1.54,
1.638,-0.16,-0.30,1.09,-1.48,-0.19,1.54,
1.638,-0.16,-0.30,1.09,-1.44,-0.11,1.62,
1.646,-0.16,-0.30,1.10,-1.44,-0.11,1.62,
1.646,-0.15,-0.30,1.11,-1.44,-0.11,1.62,
1.648,-0.15,-0.30,1.11,-1.39,-0.06,1.59,
1.648,-0.15,-0.30,1.13,-1.39,-0.06,1.59,
1.649,-0.15,-0.30,1.13,-1.39,-0.06,1.59,
1.649,-0.15,-0.30,1.13,-1.28,-0.06,1.77,
1.651,-0.15,-0.30,1.14,-1.28,-0.06,1.77,
1.653,-0.15,-0.30,1.15,-1.28,-0.06,1.77,
1.654,-0.15,-0.30,1.15,-1.22,-0.05,1.97,
1.656,-0.14,-0.30,1.17,-1.22,-0.05,1.97,
1.663,-0.14,-0.30,1.18,-1.22,-0.05,1.97,
1.663,-0.14,-0.30,1.18,-1.24,-0.04,2.09,
1.664,-0.14,-0.31,1.18,-1.24,-0.04,2.09,
1.664,-0.13,-0.31,1.20,-1.24,-0.04,2.09,
1.664,-0.13,-0.31,1.20,-1.15,-0.05,2.40,
1.666,-0.13,-0.32,1.20,-1.15,-0.05,2.40,
1.668,-0.14,-0.32,1.20,-1.15,-0.05,2.40,
1.668,-0.14,-0.32,1.20,-1.12,-0.14,2.56,
1.67,-0.13,-0.32,1.21,-1.12,-0.14,2.56,
1.673,-0.13,-0.33,1.21,-1.12,-0.14,2.56,
1.673,-0.13,-0.33,1.21,-1.11,-0.23,2.67,
1.679,-0.13,-0.33,1.21,-1.11,-0.23,2.67,
1.68,-0.13,-0.33,1.21,-1.11,-0.23,2.67,
1.68,-0.13,-0.33,1.21,-1.09,-0.26,2.76,
1.68,-0.13,-0.34,1.21,-1.09,-0.26,2.76,
1.683,-0.13,-0.34,1.21,-1.09,-0.26,2.76,
1.683,-0.13,-0.34,1.21,-1.08,-0.31,2.75,
1.685,-0.13,-0.34,1.21,-1.08,-0.31,2.75,
1.688,-0.12,-0.34,1.20,-1.08,-0.31,2.75,
1.688,-0.12,-0.34,1.20,-1.05,-0.37,2.73,
1.703,-0.12,-0.34,1.20,-1.05,-0.37,2.73,
1.704,-0.12,-0.34,1.20,-1.05,-0.37,2.73,
1.704,-0.12,-0.34,1.20,-1.01,-0.38,2.69,
1.704,-0.12,-0.33,1.19,-1.01,-0.38,2.69,
1.704,-0.12,-0.33,1.19,-1.01,-0.38,2.69,
1.705,-0.12,-0.33,1.19,-1.01,-0.40,2.61,
1.705,-0.12,-0.34,1.18,-1.01,-0.40,2.61,
1.705,-0.12,-0.34,1.17,-1.01,-0.40,2.61,
1.705,-0.12,-0.34,1.17,-0.98,-0.34,2.56,
1.705,-0.12,-0.34,1.17,-0.98,-0.34,2.56,
1.715,-0.12,-0.34,1.16,-0.98,-0.34,2.56,
1.715,-0.12,-0.34,1.16,-0.93,-0.39,2.39,
1.716,-0.12,-0.34,1.15,-0.93,-0.39,2.39,
1.716,-0.12,-0.33,1.15,-0.93,-0.39,2.39,
1.716,-0.12,-0.33,1.15,-0.95,-0.41,2.28,
1.716,-0.12,-0.32,1.14,-0.95,-0.41,2.28,
1.718,-0.12,-0.31,1.13,-0.95,-0.41,2.28,
1.718,-0.12,-0.31,1.13,-1.00,-0.37,2.08,
1.72,-0.12,-0.30,1.12,-1.00,-0.37,2.08,
1.723,-0.12,-0.30,1.12,-1.01,-0.19,1.95,
1.723,-0.11,-0.30,1.12,-1.01,-0.19,1.95,
1.734,-0.12,-0.30,1.11,-1.01,-0.19,1.95,
1.735,-0.11,-0.29,1.11,-1.01,-0.19,1.95,
1.735,-0.11,-0.29,1.11,-0.96,-0.05,1.81,
1.736,-0.11,-0.28,1.11,-0.96,-0.05,1.81,
1.736,-0.11,-0.29,1.11,-0.96,-0.05,1.81,
1.736,-0.11,-0.29,1.11,-0.95,0.04,1.67,
1.736,-0.10,-0.29,1.11,-0.95,0.04,1.67,
1.737,-0.09,-0.28,1.10,-0.95,0.04,1.67,
1.737,-0.09,-0.28,1.10,-0.90,0.08,1.70,
1.74,-0.08,-0.29,1.10,-0.90,0.08,1.70,
1.747,-0.08,-0.29,1.10,-0.90,0.08,1.70,
1.748,-0.08,-0.29,1.10,-0.79,0.07,1.60,
1.748,-0.07,-0.29,1.10,-0.79,0.07,1.60,
1.748,-0.06,-0.29,1.10,-0.79,0.07,1.60,
1.749,-0.06,-0.29,1.10,-0.65,0.03,1.56,
1.75,-0.05,-0.29,1.10,-0.65,0.03,1.56,
1.752,-0.05,-0.30,1.11,-0.65,0.03,1.56,
1.753,-0.05,-0.30,1.11,-0.48,0.04,1.60,
1.756,-0.04,-0.30,1.12,-0.48,0.04,1.60,
1.758,-0.04,-0.30,1.13,-0.48,0.04,1.60,
1.758,-0.04,-0.30,1.13,-0.35,-0.02,1.63,
1.765,-0.04,-0.31,1.14,-0.35,-0.02,1.63,
1.765,-0.04,-0.31,1.15,-0.35,-0.02,1.63,
1.766,-0.04,-0.31,1.15,-0.30,-0.10,1.79,
1.766,-0.04,-0.31,1.15,-0.30,-0.10,1.79,
1.767,-0.03,-0.31,1.16,-0.30,-0.10,1.79,
1.767,-0.03,-0.31,1.16,-0.24,-0.15,1.99,
1.77,-0.03,-0.31,1.17,-0.24,-0.15,1.99,
1.772,-0.03,-0.31,1.17,-0.24,-0.15,1.99,
1.773,-0.03,-0.31,1.17,-0.24,-0.16,2.11,
1.774,-0.04,-0.32,1.18,-0.24,-0.16,2.11,
1.786,-0.04,-0.31,1.18,-0.24,-0.16,2.11,
1.787,-0.04,-0.31,1.18,-0.18,-0.20,2.24,
1.787,-0.04,-0.31,1.19,-0.18,-0.20,2.24,
1.787,-0.04,-0.31,1.19,-0.18,-0.20,2.24,
1.787,-0.04,-0.31,1.19,-0.26,-0.26,2.36,
1.788,-0.04,-0.31,1.18,-0.26,-0.26,2.36,
1.788,-0.04,-0.31,1.19,-0.26,-0.26,2.36,
1.788,-0.04,-0.31,1.19,-0.29,-0.23,2.38,
1.791,-0.04,-0.31,1.18,-0.29,-0.23,2.38,
1.797,-0.04,-0.30,1.18,-0.29,-0.23,2.38,
1.798,-0.04,-0.30,1.18,-0.32,-0.19,2.36,
1.798,-0.04,-0.29,1.18,-0.32,-0.19,2.36,
1.798,-0.04,-0.29,1.18,-0.29,-0.17,2.34,
1.798,-0.04,-0.29,1.19,-0.29,-0.17,2.34,
1.8,-0.04,-0.29,1.19,-0.29,-0.17,2.34,
1.802,-0.03,-0.28,1.18,-0.29,-0.17,2.34,
1.802,-0.03,-0.28,1.18,-0.29,-0.09,2.35,
1.805,-0.03,-0.28,1.18,-0.29,-0.09,2.35,
1.807,-0.03,-0.28,1.18,-0.29,-0.09,2.35,
1.807,-0.03,-0.28,1.18,-0.26,-0.01,2.33,
1.809,-0.02,-0.28,1.18,-0.26,-0.01,2.33,
1.816,-0.01,-0.28,1.17,-0.26,-0.01,2.33,
1.816,-0.01,-0.28,1.17,-0.22,-0.01,2.28,
1.816,-0.00,-0.27,1.17,-0.22,-0.01,2.28,
1.817,0.00,-0.27,1.16,-0.22,-0.01,2.28,
1.817,0.00,-0.27,1.16,-0.10,0.04,2.20,
1.819,0.00,-0.27,1.16,-0.10,0.04,2.20,
1.822,0.00,-0.27,1.16,0.02,0.10,2.11,
1.822,0.01,-0.27,1.16,0.02,0.10,2.11,
1.824,0.01,-0.27,1.16,0.02,0.10,2.11,
1.833,0.01,-0.27,1.16,0.02,0.10,2.11,
1.834,0.01,-0.27,1.16,0.08,0.10,2.03,
1.834,0.01,-0.27,1.16,0.08,0.10,2.03,
1.834,0.01,-0.27,1.16,0.08,0.10,2.03,
1.834,0.01,-0.27,1.16,0.10,0.10,2.04,
1.834,0.01,-0.27,1.16,0.10,0.10,2.04,
1.837,0.01,-0.27,1.16,0.11,0.09,2.03,
1.837,0.01,-0.27,1.15,0.11,0.09,2.03,
1.839,0.02,-0.27,1.16,0.11,0.09,2.03,
1.842,0.02,-0.28,1.16,0.11,0.09,2.03,
1.842,0.02,-0.28,1.16,0.08,0.07,2.01,
1.85,0.02,-0.27,1.16,0.08,0.07,2.01,
1.851,0.02,-0.27,1.16,0.08,0.07,2.01,
1.851,0.02,-0.27,1.16,0.12,0.01,2.05,
1.851,0.02,-0.26,1.16,0.12,0.01,2.05,
1.852,0.02,-0.26,1.16,0.12,0.01,2.05,
1.852,0.02,-0.26,1.16,0.10,0.02,2.05,
1.854,0.02,-0.25,1.15,0.10,0.02,2.05,
1.857,0.02,-0.25,1.15,0.10,0.02,2.05,
1.857,0.02,-0.25,1.15,0.07,0.10,1.99,
1.864,0.02,-0.24,1.15,0.07,0.10,1.99,
1.864,0.02,-0.24,1.14,0.07,0.10,1.99,
1.864,0.02,-0.24,1.14,0.04,0.17,1.93,
1.865,0.02,-0.24,1.14,0.04,0.17,1.93,
1.867,0.02,-0.23,1.14,0.04,0.17,1.93,
1.867,0.02,-0.23,1.14,0.01,0.26,1.83,
1.869,0.02,-0.23,1.12,0.01,0.26,1.83,
1.872,0.02,-0.24,1.12,0.01,0.26,1.83,
1.872,0.02,-0.24,1.12,0.01,0.30,1.75,
1.874,0.02,-0.24,1.12,0.01,0.30,1.75,
1.881,0.03,-0.23,1.11,0.01,0.30,1.75,
1.881,0.03,-0.23,1.11,0.01,0.26,1.61,
1.882,0.03,-0.23,1.11,0.01,0.26,1.61,
1.882,0.04,-0.23,1.11,0.01,0.26,1.61,
1.882,0.04,-0.23,1.11,0.02,0.25,1.54,
1.884,0.04,-0.23,1.10,0.02,0.25,1.54,
1.886,0.05,-0.23,1.11,0.02,0.25,1.54,
1.887,0.05,-0.23,1.11,0.09,0.28,1.44,
1.889,0.06,-0.23,1.10,0.09,0.28,1.44,
1.891,0.08,-0.23,1.10,0.09,0.28,1.44,
1.892,0.08,-0.23,1.10,0.18,0.30,1.42,
1.902,0.09,-0.22,1.11,0.18,0.30,1.42,
1.903,0.10,-0.23,1.11,0.18,0.30,1.42,
1.903,0.10,-0.23,1.11,0.39,0.28,1.39,
1.904,0.10,-0.23,1.13,0.39,0.28,1.39,
1.904,0.11,-0.24,1.13,0.39,0.28,1.39,
1.904,0.11,-0.24,1.13,0.61,0.28,1.44,
1.904,0.11,-0.24,1.14,0.61,0.28,1.44,
1.906,0.11,-0.24,1.15,0.61,0.28,1.44,
1.907,0.11,-0.24,1.15,0.70,0.19,1.62,
1.909,0.11,-0.24,1.15,0.70,0.19,1.62,
1.916,0.11,-0.24,1.16,0.70,0.19,1.62,
1.916,0.11,-0.24,1.16,0.75,0.10,1.79,
1.917,0.11,-0.24,1.15,0.75,0.10,1.79,
1.917,0.10,-0.24,1.15,0.75,0.10,1.79,
1.917,0.10,-0.24,1.15,0.78,0.07,1.85,
1.919,0.10,-0.24,1.14,0.78,0.07,1.85,
1.921,0.10,-0.24,1.13,0.78,0.07,1.85,
1.921,0.10,-0.24,1.13,0.66,0.05,1.82,
1.923,0.09,-0.24,1.12,0.66,0.05,1.82,
1.926,0.08,-0.23,1.10,0.66,0.05,1.82,
1.926,0.08,-0.23,1.10,0.61,0.05,1.66,
1.934,0.08,-0.23,1.09,0.61,0.05,1.66,
1.935,0.08,-0.23,1.07,0.61,0.05,1.66,
1.936,0.08,-0.23,1.07,0.49,0.05,1.41,
1.936,0.07,-0.23,1.06,0.49,0.05,1.41,
1.936,0.06,-0.22,1.04,0.49,0.05,1.41,
1.936,0.06,-0.22,1.04,0.41,0.06,1.09,
1.938,0.06,-0.22,1.02,0.41,0.06,1.09,
1.94,0.05,-0.21,1.00,0.41,0.06,1.09,
1.94,0.05,-0.21,1.00,0.27,0.09,0.76,
1.949,0.05,-0.21,1.00,0.27,0.09,0.76,
1.95,0.05,-0.21,0.99,0.27,0.09,0.76,
1.95,0.05,-0.21,0.99,0.15,0.16,0.41,
1.95,0.06,-0.21,0.98,0.15,0.16,0.41,
1.95,0.06,-0.20,0.97,0.15,0.16,0.41,
1.951,0.06,-0.20,0.97,0.08,0.15,0.22,
1.952,0.06,-0.20,0.97,0.08,0.15,0.22,
1.955,0.08,-0.20,0.96,0.08,0.15,0.22,
1.956,0.08,-0.20,0.96,0.14,0.19,0.06,
1.957,0.09,-0.19,0.94,0.14,0.19,0.06,
1.964,0.10,-0.19,0.93,0.14,0.19,0.06,
1.964,0.10,-0.19,0.93,0.27,0.23,-0.09,
1.965,0.11,-0.19,0.93,0.27,0.23,-0.09,
1.966,0.12,-0.19,0.93,0.27,0.23,-0.09,
1.966,0.12,-0.19,0.93,0.51,0.27,-0.35,
1.967,0.12,-0.18,0.93,0.51,0.27,-0.35,
1.97,0.12,-0.18,0.93,0.69,0.28,-0.40,
1.97,0.13,-0.18,0.94,0.69,0.28,-0.40,
1.972,0.14,-0.19,0.95,0.69,0.28,-0.40,
1.975,0.14,-0.18,0.94,0.69,0.28,-0.40,
1.981,0.14,-0.18,0.94,0.74,0.32,-0.37,
1.983,0.15,-0.19,0.94,0.74,0.32,-0.37,
1.983,0.16,-0.20,0.95,0.74,0.32,-0.37,
1.983,0.16,-0.20,0.95,0.86,0.27,-0.29,
1.984,0.15,-0.19,0.96,0.86,0.27,-0.29,
1.986,0.15,-0.19,0.97,0.86,0.27,-0.29,
1.986,0.15,-0.19,0.97,0.99,0.17,-0.32,
1.987,0.15,-0.19,0.98,0.99,0.17,-0.32,
1.99,0.15,-0.19,0.99,0.99,0.17,-0.32,
1.99,0.15,-0.19,0.99,0.93,0.19,-0.08,
1.993,0.14,-0.19,1.00,0.93,0.19,-0.08,
2.0,0.15,-0.20,1.02,0.93,0.19,-0.08,
2.001,0.15,-0.20,1.02,0.90,0.21,0.09,
2.001,0.15,-0.21,1.03,0.90,0.21,0.09,
2.001,0.14,-0.21,1.05,0.90,0.21,0.09,
2.001,0.14,-0.21,1.05,0.87,0.10,0.37,
2.003,0.15,-0.22,1.06,0.87,0.10,0.37,
2.006,0.16,-0.22,1.07,0.87,0.10,0.37,
2.006,0.16,-0.22,1.07,0.85,-0.03,0.66,
2.008,0.16,-0.22,1.07,0.85,-0.03,0.66,
2.02,0.15,-0.22,1.07,0.85,-0.03,0.66,
2.021,0.15,-0.22,1.07,0.97,-0.12,0.86,
2.021,0.15,-0.22,1.07,0.97,-0.12,0.86,
2.021,0.15,-0.22,1.08,0.97,-0.12,0.86,
2.021,0.15,-0.22,1.08,0.97,-0.18,0.92,
2.022,0.14,-0.21,1.09,0.97,-0.18,0.92,
2.022,0.13,-0.22,1.08,0.97,-0.18,0.92,
2.022,0.13,-0.22,1.08,0.91,-0.17,0.99,
2.022,0.12,-0.22,1.08,0.91,-0.17,0.99,
2.025,0.11,-0.21,1.07,0.91,-0.17,0.99,
2.025,0.11,-0.21,1.07,0.76,-0.19,1.06,
2.034,0.10,-0.20,1.06,0.76,-0.19,1.06,
2.035,0.10,-0.20,1.05,0.76,-0.19,1.06,
2.035,0.10,-0.20,1.05,0.57,-0.17,0.91,
2.035,0.09,-0.20,1.04,0.57,-0.17,0.91,
2.035,0.08,-0.19,1.02,0.57,-0.17,0.91,
2.036,0.08,-0.19,1.02,0.45,-0.10,0.72,
2.038,0.07,-0.19,1.01,0.45,-0.10,0.72,
2.04,0.05,-0.19,1.00,0.45,-0.10,0.72,
2.04,0.05,-0.19,1.00,0.31,-0.06,0.48,
2.042,0.04,-0.19,0.99,0.31,-0.06,0.48,
2.051,0.02,-0.19,0.99,0.31,-0.06,0.48,
2.052,0.02,-0.19,0.99,0.05,-0.05,0.24,
2.052,0.01,-0.18,0.98,0.05,-0.05,0.24,
2.052,0.01,-0.17,0.98,0.05,-0.05,0.24,
2.053,0.01,-0.17,0.98,-0.26,-0.06,0.07,
2.053,-0.00,-0.16,0.98,-0.26,-0.06,0.07,
2.055,-0.00,-0.15,0.98,-0.26,-0.06,0.07,
2.055,-0.00,-0.15,0.98,-0.43,-0.00,0.00,
2.057,-0.00,-0.16,0.98,-0.43,-0.00,0.00,
2.065,-0.00,-0.15,0.98,-0.43,-0.00,0.00,
2.066,-0.00,-0.15,0.98,-0.55,0.15,-0.02,
2.066,-0.01,-0.15,0.98,-0.55,0.15,-0.02,
2.066,-0.01,-0.15,0.97,-0.55,0.15,-0.02,
2.066,-0.01,-0.15,0.97,-0.56,0.16,-0.04,
2.067,-0.01,-0.16,0.97,-0.56,0.16,-0.04,
2.07,-0.01,-0.16,0.97,-0.61,0.15,-0.08,
2.07,-0.01,-0.16,0.97,-0.61,0.15,-0.08,
2.072,-0.01,-0.16,0.97,-0.61,0.15,-0.08,
2.075,-0.01,-0.16,0.97,-0.61,0.15,-0.08,
2.075,-0.01,-0.16,0.97,-0.66,0.07,-0.12,
2.076,-0.02,-0.16,0.97,-0.66,0.07,-0.12,
2.083,-0.02,-0.15,0.96,-0.66,0.07,-0.12,
2.084,-0.02,-0.15,0.96,-0.68,0.01,-0.14,
2.084,-0.03,-0.15,0.96,-0.68,0.01,-0.14,
2.084,-0.04,-0.14,0.97,-0.68,0.01,-0.14,
2.085,-0.04,-0.14,0.97,-0.73,0.02,-0.19,
2.087,-0.04,-0.14,0.97,-0.73,0.02,-0.19,
2.089,-0.05,-0.14,0.97,-0.73,0.02,-0.19,
2.09,-0.05,-0.14,0.97,-0.87,0.05,-0.19,
2.092,-0.06,-0.14,0.96,-0.87,0.05,-0.19,
2.098,-0.06,-0.14,0.96,-0.87,0.05,-0.19,
2.098,-0.06,-0.14,0.96,-1.01,0.12,-0.15,
2.098,-0.06,-0.13,0.96,-1.01,0.12,-0.15,
2.099,-0.06,-0.14,0.96,-1.01,0.12,-0.15,
2.099,-0.06,-0.14,0.96,-1.11,0.11,-0.24,
2.102,-0.06,-0.14,0.96,-1.11,0.11,-0.24,
2.104,-0.06,-0.14,0.96,-1.11,0.11,-0.24,
2.105,-0.06,-0.14,0.96,-1.12,0.09,-0.28,
2.107,-0.06,-0.14,0.95,-1.12,0.09,-0.28,
2.109,-0.06,-0.14,0.95,-1.12,0.09,-0.28,
2.109,-0.06,-0.14,0.95,-1.10,0.02,-0.29,
2.12,-0.06,-0.13,0.95,-1.10,0.02,-0.29,
2.121,-0.05,-0.13,0.95,-1.10,0.02,-0.29,
2.121,-0.05,-0.13,0.95,-1.07,-0.00,-0.37,
2.122,-0.05,-0.14,0.95,-1.07,-0.00,-0.37,
2.122,-0.05,-0.14,0.95,-1.07,-0.00,-0.37,
2.122,-0.05,-0.14,0.95,-1.05,0.01,-0.38,
2.123,-0.04,-0.14,0.95,-1.05,0.01,-0.38,
2.124,-0.03,-0.14,0.96,-1.05,0.01,-0.38,
2.124,-0.03,-0.14,0.96,-0.99,-0.05,-0.37,
2.134,-0.03,-0.15,0.95,-0.99,-0.05,-0.37,
2.134,-0.03,-0.16,0.95,-0.99,-0.05,-0.37,
2.135,-0.03,-0.16,0.95,-0.88,-0.13,-0.35,
2.135,-0.02,-0.16,0.95,-0.88,-0.13,-0.35,
2.135,-0.02,-0.16,0.95,-0.88,-0.13,-0.35,
2.135,-0.02,-0.16,0.95,-0.81,-0.27,-0.36,
2.136,-0.02,-0.17,0.95,-0.81,-0.27,-0.36,
2.138,-0.00,-0.17,0.95,-0.81,-0.27,-0.36,
2.141,-0.00,-0.17,0.95,-0.75,-0.34,-0.39,
2.142,-0.01,-0.17,0.94,-0.75,-0.34,-0.39,
2.152,-0.00,-0.17,0.94,-0.75,-0.34,-0.39,
2.152,-0.00,-0.17,0.94,-0.65,-0.45,-0.39,
2.153,0.01,-0.17,0.94,-0.65,-0.45,-0.39,
2.153,0.00,-0.16,0.93,-0.65,-0.45,-0.39,
2.153,0.00,-0.16,0.93,-0.59,-0.46,-0.45,
2.153,-0.00,-0.17,0.93,-0.59,-0.46,-0.45,
2.154,-0.00,-0.15,0.93,-0.59,-0.46,-0.45,
2.154,-0.00,-0.15,0.93,-0.52,-0.46,-0.55,
2.155,-0.01,-0.15,0.92,-0.52,-0.46,-0.55,
2.158,-0.02,-0.15,0.92,-0.52,-0.46,-0.55,
2.158,-0.02,-0.15,0.92,-0.60,-0.45,-0.62,
2.166,-0.02,-0.14,0.91,-0.60,-0.45,-0.62,
2.166,-0.02,-0.14,0.91,-0.60,-0.45,-0.62,
2.166,-0.02,-0.14,0.91,-0.70,-0.40,-0.65,
2.167,-0.03,-0.14,0.91,-0.70,-0.40,-0.65,
2.168,-0.03,-0.14,0.90,-0.70,-0.40,-0.65,
2.169,-0.03,-0.14,0.90,-0.80,-0.33,-0.77,
2.17,-0.02,-0.14,0.90,-0.80,-0.33,-0.77,
2.173,-0.03,-0.13,0.88,-0.80,-0.33,-0.77,
2.173,-0.03,-0.13,0.88,-0.88,-0.32,-0.82,
2.175,-0.03,-0.13,0.86,-0.88,-0.32,-0.82,
2.181,-0.03,-0.13,0.85,-0.88,-0.32,-0.82,
2.181,-0.03,-0.13,0.85,-0.84,-0.33,-0.99,
2.182,-0.04,-0.13,0.84,-0.84,-0.33,-0.99,
2.183,-0.04,-0.13,0.84,-0.84,-0.33,-0.99,
2.183,-0.04,-0.13,0.84,-0.90,-0.31,-1.28,
2.185,-0.04,-0.13,0.83,-0.90,-0.31,-1.28,
2.188,-0.04,-0.13,0.82,-0.90,-0.31,-1.28,
2.188,-0.04,-0.13,0.82,-1.00,-0.32,-1.49,
2.19,-0.03,-0.13,0.82,-1.00,-0.32,-1.49,
2.198,-0.03,-0.13,0.83,-1.00,-0.32,-1.49,
2.199,-0.03,-0.13,0.83,-1.01,-0.34,-1.60,
2.199,-0.03,-0.14,0.83,-1.01,-0.34,-1.60,
2.199,-0.03,-0.14,0.83,-1.01,-0.34,-1.60,
2.199,-0.03,-0.14,0.83,-0.95,-0.36,-1.63,
2.2,-0.03,-0.14,0.83,-0.95,-0.36,-1.63,
2.203,-0.03,-0.15,0.84,-0.95,-0.36,-1.63,
2.203,-0.03,-0.15,0.84,-0.91,-0.44,-1.58,
2.205,-0.04,-0.16,0.85,-0.91,-0.44,-1.58,
2.208,-0.04,-0.16,0.86,-0.91,-0.44,-1.58,
2.208,-0.04,-0.16,0.86,-0.96,-0.56,-1.53,
2.215,-0.04,-0.16,0.87,-0.96,-0.56,-1.53,
2.216,-0.05,-0.16,0.88,-0.96,-0.56,-1.53,
2.216,-0.05,-0.16,0.88,-1.03,-0.67,-1.32,
2.216,-0.04,-0.16,0.89,-1.03,-0.67,-1.32,
2.217,-0.04,-0.16,0.90,-1.03,-0.67,-1.32,
2.217,-0.04,-0.16,0.90,-1.08,-0.71,-1.12,
2.22,-0.02,-0.15,0.90,-1.08,-0.71,-1.12,
2.223,-0.02,-0.15,0.90,-1.02,-0.73,-0.91,
2.224,-0.02,-0.15,0.90,-1.02,-0.73,-0.91,
2.225,-0.01,-0.15,0.90,-1.02,-0.73,-0.91,
2.24,-0.01,-0.16,0.90,-1.02,-0.73,-0.91,
2.241,-0.01,-0.16,0.90,-0.84,-0.68,-0.86,
2.241,-0.01,-0.16,0.90,-0.84,-0.68,-0.86,
2.242,-0.00,-0.16,0.88,-0.84,-0.68,-0.86,
2.242,-0.00,-0.16,0.88,-0.77,-0.72,-0.88,
2.242,0.01,-0.17,0.87,-0.77,-0.72,-0.88,
2.242,0.01,-0.17,0.87,-0.77,-0.72,-0.88,
2.243,0.01,-0.17,0.87,-0.68,-0.80,-0.96,
2.243,0.01,-0.17,0.86,-0.68,-0.80,-0.96,
2.243,0.01,-0.17,0.85,-0.68,-0.80,-0.96,
2.243,0.01,-0.17,0.85,-0.57,-0.89,-1.15,
2.25,0.01,-0.17,0.84,-0.57,-0.89,-1.15,
2.251,0.01,-0.16,0.83,-0.57,-0.89,-1.15,
2.251,0.01,-0.16,0.83,-0.52,-0.93,-1.34,
2.251,0.01,-0.17,0.82,-0.52,-0.93,-1.34,
2.252,0.00,-0.16,0.81,-0.52,-0.93,-1.34,
2.252,0.00,-0.16,0.81,-0.53,-0.94,-1.50,
2.254,-0.00,-0.16,0.81,-0.53,-0.94,-1.50,
2.257,-0.01,-0.16,0.81,-0.53,-0.94,-1.50,
2.257,-0.01,-0.16,0.81,-0.55,-0.93,-1.71,
2.268,-0.02,-0.16,0.81,-0.55,-0.93,-1.71,
2.269,-0.03,-0.16,0.81,-0.55,-0.93,-1.71,
2.269,-0.03,-0.16,0.81,-0.71,-0.89,-1.76,
2.269,-0.03,-0.15,0.81,-0.71,-0.89,-1.76,
2.27,-0.03,-0.15,0.81,-0.85,-0.89,-1.78,
2.27,-0.04,-0.15,0.81,-0.85,-0.89,-1.78,
2.27,-0.05,-0.15,0.81,-0.85,-0.89,-1.78,
2.272,-0.06,-0.14,0.81,-0.85,-0.89,-1.78,
2.273,-0.06,-0.14,0.81,-0.95,-0.84,-1.78,
2.274,-0.08,-0.14,0.82,-0.95,-0.84,-1.78,
2.283,-0.09,-0.14,0.82,-0.95,-0.84,-1.78,
2.284,-0.09,-0.14,0.82,-1.18,-0.83,-1.77,
2.284,-0.09,-0.14,0.83,-1.18,-0.83,-1.77,
2.284,-0.10,-0.13,0.84,-1.18,-0.83,-1.77,
2.284,-0.10,-0.13,0.84,-1.40,-0.80,-1.64,
2.284,-0.09,-0.12,0.84,-1.40,-0.80,-1.64,
2.286,-0.09,-0.12,0.84,-1.40,-0.80,-1.64,
2.287,-0.09,-0.12,0.84,-1.50,-0.75,-1.51,
2.289,-0.08,-0.12,0.85,-1.50,-0.75,-1.51,
2.291,-0.09,-0.11,0.85,-1.50,-0.75,-1.51,
2.292,-0.09,-0.11,0.85,-1.46,-0.63,-1.44,
2.298,-0.08,-0.11,0.85,-1.46,-0.63,-1.44,
2.299,-0.07,-0.12,0.85,-1.46,-0.63,-1.44,
2.299,-0.07,-0.12,0.85,-1.44,-0.58,-1.33,
2.3,-0.08,-0.12,0.86,-1.44,-0.58,-1.33,
2.303,-0.08,-0.12,0.85,-1.44,-0.58,-1.33,
2.303,-0.08,-0.12,0.85,-1.37,-0.58,-1.31,
2.305,-0.07,-0.12,0.86,-1.37,-0.58,-1.31,
2.306,-0.06,-0.13,0.86,-1.37,-0.58,-1.31,
2.307,-0.06,-0.13,0.86,-1.35,-0.63,-1.28,
2.309,-0.05,-0.13,0.86,-1.35,-0.63,-1.28,
2.318,-0.05,-0.13,0.86,-1.35,-0.63,-1.28,
2.319,-0.05,-0.13,0.86,-1.25,-0.69,-1.25,
2.319,-0.04,-0.13,0.86,-1.25,-0.69,-1.25,
2.319,-0.04,-0.13,0.86,-1.25,-0.69,-1.25,
2.319,-0.04,-0.13,0.86,-1.07,-0.76,-1.28,
2.319,-0.05,-0.13,0.85,-1.07,-0.76,-1.28,
2.321,-0.05,-0.13,0.84,-1.07,-0.76,-1.28,
2.322,-0.05,-0.13,0.84,-1.00,-0.79,-1.29,
2.324,-0.05,-0.13,0.85,-1.00,-0.79,-1.29,
2.326,-0.06,-0.13,0.85,-1.00,-0.79,-1.29,
2.327,-0.06,-0.13,0.85,-1.03,-0.81,-1.35,
2.336,-0.06,-0.13,0.85,-1.03,-0.81,-1.35,
2.336,-0.06,-0.13,0.85,-1.11,-0.84,-1.35,
2.337,-0.07,-0.13,0.85,-1.11,-0.84,-1.35,
2.337,-0.07,-0.13,0.86,-1.11,-0.84,-1.35,
2.337,-0.07,-0.12,0.86,-1.11,-0.84,-1.35,
2.337,-0.07,-0.12,0.86,-1.18,-0.81,-1.30,
2.34,-0.07,-0.12,0.86,-1.18,-0.81,-1.30,
2.342,-0.07,-0.11,0.86,-1.18,-0.81,-1.30,
2.342,-0.07,-0.11,0.86,-1.24,-0.76,-1.28,
2.349,-0.06,-0.10,0.87,-1.24,-0.76,-1.28,
2.349,-0.06,-0.10,0.87,-1.24,-0.76,-1.28,
2.349,-0.06,-0.10,0.87,-1.20,-0.67,-1.23,
2.349,-0.06,-0.09,0.87,-1.20,-0.67,-1.23,
2.352,-0.06,-0.09,0.87,-1.13,-0.57,-1.14,
2.352,-0.06,-0.09,0.87,-1.13,-0.57,-1.14,
2.354,-0.06,-0.08,0.87,-1.13,-0.57,-1.14,
2.357,-0.05,-0.08,0.88,-1.13,-0.57,-1.14,
2.357,-0.05,-0.08,0.88,-1.10,-0.45,-1.11,
2.359,-0.05,-0.07,0.87,-1.10,-0.45,-1.11,
2.369,-0.06,-0.07,0.88,-1.10,-0.45,-1.11,
2.37,-0.06,-0.07,0.88,-1.07,-0.37,-1.08,
2.37,-0.06,-0.06,0.88,-1.07,-0.37,-1.08,
2.37,-0.06,-0.06,0.88,-1.08,-0.28,-1.07,
2.37,-0.06,-0.06,0.88,-1.08,-0.28,-1.07,
2.371,-0.06,-0.06,0.88,-1.08,-0.28,-1.07,
2.371,-0.06,-0.06,0.88,-1.08,-0.28,-1.07,
2.371,-0.06,-0.06,0.88,-1.07,-0.18,-1.02,
2.373,-0.06,-0.05,0.88,-1.07,-0.18,-1.02,
2.376,-0.06,-0.04,0.88,-1.07,-0.18,-1.02,
2.377,-0.06,-0.04,0.88,-1.10,-0.19,-1.01,
2.386,-0.06,-0.05,0.88,-1.10,-0.19,-1.01,
2.386,-0.06,-0.04,0.88,-1.10,-0.19,-1.01,
2.386,-0.06,-0.04,0.88,-1.12,-0.06,-1.00,
2.387,-0.06,-0.04,0.89,-1.12,-0.06,-1.00,
2.387,-0.05,-0.04,0.89,-1.12,-0.06,-1.00,
2.387,-0.05,-0.04,0.89,-1.15,-0.05,-1.01,
2.389,-0.05,-0.04,0.90,-1.15,-0.05,-1.01,
2.391,-0.04,-0.04,0.90,-1.15,-0.05,-1.01,
2.392,-0.04,-0.04,0.90,-1.09,-0.01,-0.91,
2.393,-0.04,-0.04,0.91,-1.09,-0.01,-0.91,
2.4,-0.04,-0.04,0.91,-1.09,-0.01,-0.91,
2.4,-0.04,-0.04,0.91,-0.99,-0.00,-0.83,
2.401,-0.03,-0.04,0.92,-0.99,-0.00,-0.83,
2.401,-0.02,-0.04,0.93,-0.99,-0.00,-0.83,
2.401,-0.02,-0.04,0.93,-0.92,0.02,-0.72,
2.403,-0.02,-0.05,0.93,-0.92,0.02,-0.72,
2.406,-0.01,-0.05,0.94,-0.92,0.02,-0.72,
2.406,-0.01,-0.05,0.94,-0.79,-0.05,-0.60,
2.409,-0.01,-0.05,0.95,-0.79,-0.05,-0.60,
2.411,-0.01,-0.05,0.96,-0.79,-0.05,-0.60,
2.411,-0.01,-0.05,0.96,-0.69,-0.06,-0.49,
2.417,-0.00,-0.06,0.96,-0.69,-0.06,-0.49,
2.418,-0.00,-0.05,0.96,-0.69,-0.06,-0.49,
2.418,-0.00,-0.05,0.96,-0.66,-0.13,-0.32,
2.418,-0.00,-0.06,0.96,-0.66,-0.13,-0.32,
2.421,-0.00,-0.06,0.96,-0.66,-0.13,-0.32,
2.421,-0.00,-0.06,0.96,-0.59,-0.14,-0.25,
2.423,0.00,-0.06,0.96,-0.59,-0.14,-0.25,
2.426,0.00,-0.06,0.97,-0.59,-0.14,-0.25,
2.426,0.00,-0.06,0.97,-0.58,-0.19,-0.19,
2.433,0.00,-0.06,0.97,-0.58,-0.19,-0.19,
2.434,0.00,-0.06,0.98,-0.58,-0.19,-0.19,
2.434,0.00,-0.06,0.98,-0.55,-0.18,-0.17,
2.434,-0.00,-0.05,0.98,-0.55,-0.18,-0.17,
2.435,0.00,-0.05,0.99,-0.55,-0.18,-0.17,
2.436,0.00,-0.05,0.99,-0.55,-0.16,-0.07,
2.438,-0.00,-0.05,1.00,-0.55,-0.16,-0.07,
2.441,-0.00,-0.05,1.00,-0.56,-0.11,0.05,
2.441,-0.00,-0.05,1.00,-0.56,-0.11,0.05,
2.443,0.00,-0.05,1.00,-0.56,-0.11,0.05,
2.456,0.01,-0.05,1.00,-0.56,-0.11,0.05,
2.457,0.01,-0.05,1.00,-0.57,-0.13,0.14,
2.457,0.01,-0.05,1.01,-0.57,-0.13,0.14,
2.457,0.01,-0.05,1.02,-0.57,-0.13,0.14,
2.458,0.01,-0.05,1.02,-0.51,-0.13,0.17,
2.458,0.02,-0.05,1.01,-0.51,-0.13,0.17,
2.458,0.02,-0.05,1.01,-0.51,-0.13,0.17,
2.458,0.02,-0.05,1.01,-0.44,-0.14,0.30,
2.458,0.02,-0.05,1.01,-0.44,-0.14,0.30,
2.47,0.03,-0.06,1.00,-0.44,-0.14,0.30,
2.471,0.03,-0.06,1.00,-0.36,-0.13,0.23,
2.471,0.03,-0.06,1.00,-0.36,-0.13,0.23,
2.471,0.04,-0.06,1.00,-0.36,-0.13,0.23,
2.471,0.04,-0.06,1.00,-0.28,-0.16,0.20,
2.471,0.04,-0.06,0.99,-0.28,-0.16,0.20,
2.474,0.05,-0.06,0.98,-0.28,-0.16,0.20,
2.475,0.05,-0.06,0.98,-0.19,-0.23,0.13,
2.475,0.05,-0.06,0.98,-0.19,-0.23,0.13,
2.475,0.06,-0.06,0.97,-0.19,-0.23,0.13,
2.476,0.06,-0.06,0.97,-0.09,-0.23,0.02,
2.487,0.05,-0.06,0.97,-0.09,-0.23,0.02,
2.488,0.05,-0.06,0.96,-0.09,-0.23,0.02,
2.488,0.05,-0.06,0.96,-0.03,-0.27,-0.08,
2.488,0.05,-0.06,0.96,-0.03,-0.27,-0.08,
2.488,0.05,-0.06,0.95,-0.03,-0.27,-0.08,
2.489,0.05,-0.06,0.95,-0.01,-0.26,-0.22,
2.489,0.05,-0.06,0.95,-0.01,-0.26,-0.22,
2.49,0.05,-0.05,0.94,-0.01,-0.26,-0.22,
2.49,0.05,-0.05,0.94,-0.04,-0.28,-0.31,
2.492,0.04,-0.06,0.94,-0.04,-0.28,-0.31,
2.501,0.03,-0.06,0.94,-0.04,-0.28,-0.31,
2.502,0.03,-0.06,0.94,-0.06,-0.21,-0.39,
2.502,0.03,-0.06,0.94,-0.06,-0.21,-0.39,
2.502,0.02,-0.05,0.93,-0.06,-0.21,-0.39,
2.503,0.02,-0.05,0.93,-0.21,-0.25,-0.45,
2.503,0.01,-0.05,0.93,-0.21,-0.25,-0.45,
2.504,0.00,-0.04,0.93,-0.21,-0.25,-0.45,
2.505,0.00,-0.04,0.93,-0.34,-0.19,-0.47,
2.507,0.00,-0.04,0.94,-0.34,-0.19,-0.47,
2.509,0.00,-0.04,0.93,-0.34,-0.19,-0.47,
2.51,0.00,-0.04,0.93,-0.50,-0.10,-0.54,
2.516,-0.00,-0.04,0.93,-0.50,-0.10,-0.54,
2.516,-0.00,-0.03,0.93,-0.50,-0.10,-0.54,
2.516,-0.00,-0.03,0.93,-0.52,-0.07,-0.50,
2.517,0.00,-0.02,0.93,-0.52,-0.07,-0.50,
2.52,0.00,-0.03,0.93,-0.52,-0.07,-0.50,
2.52,0.00,-0.03,0.93,-0.55,0.01,-0.56,
2.522,0.00,-0.03,0.93,-0.55,0.01,-0.56,
2.525,0.01,-0.03,0.93,-0.55,0.01,-0.56,
2.525,0.01,-0.03,0.93,-0.52,0.06,-0.53,
2.527,0.01,-0.03,0.92,-0.52,0.06,-0.53,
2.533,0.00,-0.03,0.92,-0.52,0.06,-0.53,
2.534,0.00,-0.03,0.92,-0.49,0.03,-0.56,
2.534,-0.00,-0.03,0.92,-0.49,0.03,-0.56,
2.534,0.00,-0.03,0.92,-0.49,0.03,-0.56,
2.535,0.00,-0.03,0.92,-0.49,0.01,-0.63,
2.536,0.00,-0.03,0.93,-0.49,0.01,-0.63,
2.54,0.01,-0.03,0.93,-0.49,0.01,-0.63,
2.54,0.01,-0.03,0.93,-0.51,-0.01,-0.59,
2.542,0.01,-0.03,0.95,-0.51,-0.01,-0.59,
2.551,0.01,-0.03,0.95,-0.51,-0.01,-0.59,
2.552,0.01,-0.03,0.95,-0.44,-0.02,-0.52,
2.552,0.01,-0.03,0.96,-0.44,-0.02,-0.52,
2.552,0.01,-0.03,0.97,-0.44,-0.02,-0.52,
2.552,0.01,-0.03,0.97,-0.39,0.00,-0.34,
2.552,0.01,-0.03,0.97,-0.39,0.00,-0.34,
2.555,0.00,-0.04,0.98,-0.39,0.00,-0.34,
2.555,0.00,-0.04,0.98,-0.39,-0.02,-0.20,
2.556,-0.00,-0.05,0.99,-0.39,-0.02,-0.20,
2.56,0.00,-0.05,0.99,-0.39,-0.02,-0.20,
2.561,0.00,-0.05,0.99,-0.42,-0.07,-0.04,
2.574,0.01,-0.05,0.99,-0.42,-0.07,-0.04,
2.575,0.00,-0.05,1.00,-0.42,-0.07,-0.04,
2.575,0.00,-0.05,1.00,-0.45,-0.15,0.09,
2.575,0.01,-0.05,1.00,-0.45,-0.15,0.09,
2.576,0.01,-0.04,1.00,-0.45,-0.15,0.09,
2.576,0.01,-0.04,1.00,-0.41,-0.20,0.14,
2.576,0.01,-0.05,1.01,-0.41,-0.20,0.14,
2.576,0.02,-0.05,1.01,-0.41,-0.20,0.14,
2.577,0.02,-0.05,1.01,-0.34,-0.15,0.16,
2.577,0.01,-0.05,1.01,-0.34,-0.15,0.16,
2.586,0.02,-0.05,1.01,-0.34,-0.15,0.16,
2.587,0.02,-0.05,1.01,-0.30,-0.17,0.23,
2.587,0.02,-0.05,1.01,-0.30,-0.17,0.23,
2.587,0.02,-0.05,1.01,-0.30,-0.17,0.23,
2.588,0.02,-0.05,1.01,-0.29,-0.21,0.24,
2.588,0.02,-0.05,1.01,-0.29,-0.21,0.24,
2.589,0.02,-0.05,1.01,-0.29,-0.21,0.24,
2.589,0.02,-0.05,1.01,-0.27,-0.21,0.23,
2.592,0.03,-0.04,1.01,-0.27,-0.21,0.23,
2.601,0.03,-0.04,1.01,-0.27,-0.21,0.23,
2.602,0.03,-0.04,1.01,-0.23,-0.20,0.25,
2.602,0.03,-0.04,1.01,-0.23,-0.20,0.25,
2.602,0.03,-0.04,1.01,-0.23,-0.20,0.25,
2.603,0.03,-0.04,1.01,-0.18,-0.13,0.25,
2.603,0.02,-0.04,1.01,-0.18,-0.13,0.25,
2.604,0.02,-0.04,1.00,-0.18,-0.13,0.25,
2.605,0.02,-0.04,1.00,-0.18,-0.10,0.25,
2.606,0.03,-0.04,1.00,-0.18,-0.10,0.25,
2.608,0.02,-0.04,1.00,-0.18,-0.10,0.25,
2.609,0.02,-0.04,1.00,-0.22,-0.08,0.20,
2.617,0.02,-0.03,1.00,-0.22,-0.08,0.20,
2.618,0.02,-0.02,0.99,-0.22,-0.08,0.20,
2.619,0.02,-0.02,0.99,-0.22,-0.08,0.17,
2.619,0.02,-0.02,1.00,-0.22,-0.08,0.17,
2.619,0.01,-0.02,0.99,-0.22,-0.08,0.17,
2.619,0.01,-0.02,0.99,-0.27,0.02,0.14,
2.621,0.01,-0.01,0.99,-0.27,0.02,0.14,
2.623,0.01,-0.01,0.99,-0.27,0.02,0.14,
2.623,0.01,-0.01,0.99,-0.32,0.07,0.12,
2.626,-0.00,-0.01,0.99,-0.32,0.07,0.12,
2.633,-0.00,-0.01,0.99,-0.32,0.07,0.12,
2.634,-0.00,-0.01,0.99,-0.35,0.15,0.03,
2.634,-0.01,-0.01,0.99,-0.35,0.15,0.03,
2.634,-0.01,-0.00,0.99,-0.35,0.15,0.03,
2.637,-0.01,-0.00,0.99,-0.46,0.16,0.05,
2.637,-0.01,-0.01,0.99,-0.46,0.16,0.05,
2.639,-0.01,-0.01,0.99,-0.49,0.20,0.08,
2.639,-0.01,-0.01,0.99,-0.49,0.20,0.08,
2.641,-0.01,-0.01,0.99,-0.49,0.20,0.08,
2.643,-0.01,-0.00,1.00,-0.49,0.20,0.08,
2.644,-0.01,-0.00,1.00,-0.51,0.21,0.07,
2.65,-0.00,-0.01,1.00,-0.51,0.21,0.07,
2.651,-0.00,-0.00,1.01,-0.51,0.21,0.07,
2.651,-0.00,-0.00,1.01,-0.50,0.21,0.13,
2.651,0.01,-0.01,1.01,-0.50,0.21,0.13,
2.653,0.01,-0.00,1.02,-0.50,0.21,0.13,
2.656,0.01,-0.00,1.02,-0.45,0.22,0.22,
2.656,0.01,-0.00,1.02,-0.45,0.22,0.22,
2.658,0.02,-0.01,1.03,-0.45,0.22,0.22,
2.659,0.02,-0.01,1.03,-0.35,0.22,0.30,
2.661,0.02,-0.01,1.03,-0.35,0.22,0.30,
2.672,0.02,-0.01,1.03,-0.29,0.22,0.39,
2.672,0.02,-0.01,1.04,-0.29,0.22,0.39,
2.672,0.02,-0.01,1.04,-0.29,0.22,0.39,
2.673,0.02,-0.02,1.04,-0.29,0.22,0.39,
2.673,0.02,-0.02,1.04,-0.24,0.16,0.48,
2.673,0.02,-0.02,1.04,-0.24,0.16,0.48,
2.673,0.02,-0.03,1.05,-0.24,0.16,0.48,
2.673,0.02,-0.03,1.05,-0.19,0.11,0.53,
2.676,0.03,-0.03,1.04,-0.19,0.11,0.53,
2.687,0.04,-0.03,1.05,-0.19,0.11,0.53,
2.687,0.04,-0.03,1.05,-0.17,0.03,0.59,
2.688,0.03,-0.03,1.04,-0.17,0.03,0.59,
2.688,0.04,-0.03,1.04,-0.17,0.03,0.59,
2.688,0.04,-0.03,1.04,-0.07,-0.02,0.61,
2.688,0.04,-0.03,1.05,-0.07,-0.02,0.61,
2.688,0.04,-0.03,1.04,-0.07,-0.02,0.61,
2.689,0.04,-0.03,1.04,-0.04,-0.04,0.58,
2.691,0.04,-0.04,1.03,-0.04,-0.04,0.58,
2.693,0.04,-0.02,1.02,-0.04,-0.04,0.58,
2.693,0.04,-0.02,1.02,-0.01,-0.06,0.57,
2.695,0.03,-0.03,1.01,-0.01,-0.06,0.57,
2.704,0.03,-0.03,1.00,-0.01,-0.06,0.57,
2.704,0.03,-0.03,1.00,-0.01,-0.05,0.43,
2.704,0.03,-0.03,0.99,-0.01,-0.05,0.43,
2.705,0.02,-0.02,0.97,-0.01,-0.05,0.43,
2.705,0.02,-0.02,0.97,-0.06,-0.07,0.19,
2.705,0.02,-0.02,0.95,-0.06,-0.07,0.19,
2.708,0.01,-0.02,0.94,-0.06,-0.07,0.19,
2.708,0.01,-0.02,0.94,-0.09,-0.06,-0.06,
2.711,0.00,-0.02,0.93,-0.09,-0.06,-0.06,
2.718,-0.00,-0.01,0.92,-0.09,-0.06,-0.06,
2.719,-0.00,-0.01,0.92,-0.18,0.03,-0.37,
2.719,-0.01,-0.00,0.91,-0.18,0.03,-0.37,
2.72,-0.01,-0.01,0.89,-0.18,0.03,-0.37,
2.72,-0.01,-0.01,0.89,-0.29,0.03,-0.61,
2.72,-0.02,-0.00,0.89,-0.29,0.03,-0.61,
2.723,-0.03,0.01,0.88,-0.29,0.03,-0.61,
2.723,-0.03,0.01,0.88,-0.42,0.11,-0.84,
2.726,-0.03,0.01,0.88,-0.42,0.11,-0.84,
2.728,-0.03,0.01,0.87,-0.42,0.11,-0.84,
2.728,-0.03,0.01,0.87,-0.52,0.18,-0.99,
2.734,-0.03,0.01,0.87,-0.52,0.18,-0.99,
2.734,-0.02,0.01,0.87,-0.52,0.18,-0.99,
2.735,-0.02,0.01,0.87,-0.55,0.24,-1.10,
2.735,-0.02,0.01,0.87,-0.55,0.24,-1.10,
2.738,-0.02,0.02,0.87,-0.55,0.24,-1.10,
2.738,-0.02,0.02,0.87,-0.49,0.26,-1.09,
2.74,-0.02,0.02,0.88,-0.49,0.26,-1.09,
2.743,-0.01,0.01,0.90,-0.49,0.26,-1.09,
2.743,-0.01,0.01,0.90,-0.40,0.29,-1.11,
2.745,-0.01,0.01,0.92,-0.40,0.29,-1.11,
2.751,-0.01,0.01,0.92,-0.40,0.29,-1.11,
2.752,-0.01,0.01,0.92,-0.36,0.27,-0.90,
2.752,-0.01,0.00,0.93,-0.36,0.27,-0.90,
2.752,-0.01,0.00,0.93,-0.34,0.24,-0.62,
2.752,-0.01,-0.00,0.94,-0.34,0.24,-0.62,
2.755,-0.00,-0.01,0.95,-0.34,0.24,-0.62,
2.758,-0.00,-0.01,0.95,-0.29,0.15,-0.49,
2.758,0.00,-0.02,0.97,-0.29,0.15,-0.49,
2.76,0.00,-0.03,0.99,-0.29,0.15,-0.49,
2.762,0.01,-0.03,1.01,-0.29,0.15,-0.49,
2.762,0.01,-0.03,1.01,-0.24,0.02,-0.24,
2.776,0.01,-0.03,1.02,-0.24,0.02,-0.24,
2.777,0.01,-0.03,1.03,-0.24,0.02,-0.24,
2.777,0.01,-0.03,1.03,-0.19,-0.09,0.15,
2.777,0.01,-0.03,1.04,-0.19,-0.09,0.15,
2.778,0.02,-0.04,1.04,-0.19,-0.09,0.15,
2.778,0.02,-0.04,1.04,-0.16,-0.08,0.40,
2.778,0.03,-0.05,1.06,-0.16,-0.08,0.40,
2.778,0.03,-0.05,1.07,-0.16,-0.08,0.40,
2.779,0.03,-0.05,1.07,-0.09,-0.14,0.56,
2.779,0.03,-0.06,1.09,-0.09,-0.14,0.56,
2.786,0.03,-0.05,1.10,-0.09,-0.14,0.56,
2.787,0.03,-0.05,1.10,0.01,-0.29,0.75,
2.787,0.03,-0.05,1.11,0.01,-0.29,0.75,
2.788,0.02,-0.03,1.12,0.01,-0.29,0.75,
2.788,0.02,-0.03,1.12,0.01,-0.31,1.05,
2.789,0.02,-0.03,1.12,0.01,-0.31,1.05,
2.791,0.02,-0.03,1.13,0.01,-0.31,1.05,
2.792,0.02,-0.03,1.13,-0.02,-0.15,1.24,
2.794,0.02,-0.04,1.13,-0.02,-0.15,1.24,
2.804,0.03,-0.04,1.12,-0.02,-0.15,1.24,
2.805,0.03,-0.04,1.12,-0.07,-0.07,1.34,
2.808,0.03,-0.04,1.12,-0.07,-0.07,1.34,
2.808,0.03,-0.03,1.11,-0.07,-0.07,1.34,
2.808,0.03,-0.03,1.11,-0.05,-0.12,1.34,
2.809,0.03,-0.03,1.10,-0.05,-0.12,1.34,
2.809,0.04,-0.03,1.08,-0.05,-0.12,1.34,
2.809,0.04,-0.03,1.08,-0.04,-0.10,1.20,
2.809,0.05,-0.03,1.07,-0.04,-0.10,1.20,
2.813,0.06,-0.03,1.06,-0.04,-0.10,1.20,
2.813,0.06,-0.03,1.06,-0.00,-0.05,0.98,
2.819,0.06,-0.03,1.04,-0.00,-0.05,0.98,
2.819,0.06,-0.03,1.03,-0.00,-0.05,0.98,
2.819,0.06,-0.03,1.03,0.16,-0.02,0.72,
2.82,0.07,-0.03,1.02,0.16,-0.02,0.72,
2.821,0.07,-0.03,1.01,0.16,-0.02,0.72,
2.822,0.07,-0.03,1.01,0.25,-0.03,0.44,
2.824,0.07,-0.03,1.00,0.25,-0.03,0.44,
2.826,0.08,-0.02,1.00,0.25,-0.03,0.44,
2.827,0.08,-0.02,1.00,0.32,-0.05,0.26,
2.838,0.08,-0.02,0.99,0.32,-0.05,0.26,
2.838,0.08,-0.02,0.98,0.32,-0.05,0.26,
2.839,0.08,-0.02,0.98,0.39,-0.03,0.08,
2.839,0.09,-0.03,0.98,0.39,-0.03,0.08,
2.839,0.08,-0.02,0.98,0.39,-0.03,0.08,
2.839,0.08,-0.02,0.98,0.43,-0.01,-0.05,
2.84,0.08,-0.02,0.98,0.43,-0.01,-0.05,
2.841,0.07,-0.02,0.97,0.43,-0.01,-0.05,
2.841,0.07,-0.02,0.97,0.46,-0.04,-0.13,
2.843,0.07,-0.02,0.98,0.46,-0.04,-0.13,
2.854,0.07,-0.02,0.98,0.46,-0.04,-0.13,
2.855,0.07,-0.02,0.98,0.39,0.00,-0.16,
2.855,0.06,-0.02,0.98,0.39,0.00,-0.16,
2.855,0.06,-0.02,0.99,0.39,0.00,-0.16,
2.856,0.06,-0.02,0.99,0.32,-0.01,-0.15,
2.856,0.06,-0.02,0.99,0.32,-0.01,-0.15,
2.856,0.06,-0.02,0.99,0.32,-0.01,-0.15,
2.856,0.06,-0.02,0.99,0.27,-0.00,-0.07,
2.859,0.06,-0.02,0.98,0.27,-0.00,-0.07,
2.862,0.06,-0.02,0.98,0.23,-0.00,-0.04,
2.862,0.05,-0.02,0.99,0.23,-0.00,-0.04,
2.871,0.04,-0.02,0.99,0.23,-0.00,-0.04,
2.871,0.04,-0.01,0.99,0.23,-0.00,-0.04,
2.872,0.04,-0.01,0.99,0.21,-0.01,-0.06,
2.872,0.04,-0.01,0.98,0.21,-0.01,-0.06,
2.872,0.03,-0.01,0.98,0.21,-0.01,-0.06,
2.872,0.03,-0.01,0.98,0.08,0.02,-0.06,
2.874,0.02,-0.01,0.98,0.08,0.02,-0.06,
2.876,0.02,-0.01,0.98,0.08,0.02,-0.06,
2.877,0.02,-0.01,0.98,0.01,0.06,-0.08,
2.879,0.02,-0.01,0.97,0.01,0.06,-0.08,
2.891,0.02,-0.01,0.97,-0.10,0.02,-0.11,
2.891,0.01,-0.01,0.97,-0.10,0.02,-0.11,
2.892,0.00,-0.01,0.97,-0.10,0.02,-0.11,
2.892,0.00,-0.01,0.97,-0.14,0.03,-0.22,
2.892,-0.02,-0.01,0.97,-0.14,0.03,-0.22,
2.892,-0.04,-0.01,0.98,-0.14,0.03,-0.22,
2.893,-0.05,0.00,0.97,-0.14,0.03,-0.22,
2.893,-0.05,0.00,0.97,-0.36,0.06,-0.20,
2.893,-0.05,0.01,0.96,-0.36,0.06,-0.20,
2.896,-0.05,0.01,0.96,-0.36,0.06,-0.20,
2.896,-0.05,0.01,0.96,-0.73,0.11,-0.18,
2.903,-0.04,0.02,0.95,-0.73,0.11,-0.18,
2.903,-0.04,0.02,0.95,-0.77,0.23,-0.32,
2.904,-0.04,0.02,0.95,-0.77,0.23,-0.32,
2.904,-0.03,0.02,0.94,-0.77,0.23,-0.32,
2.906,-0.02,0.01,0.94,-0.77,0.23,-0.32,
2.906,-0.02,0.01,0.94,-0.62,0.33,-0.40,
2.909,-0.03,-0.01,0.95,-0.62,0.33,-0.40,
2.911,-0.03,-0.01,0.96,-0.62,0.33,-0.40,
2.911,-0.03,-0.01,0.96,-0.51,0.24,-0.48,
2.921,-0.04,-0.01,0.97,-0.51,0.24,-0.48,
2.921,-0.04,-0.01,0.97,-0.51,0.24,-0.48,
2.921,-0.04,-0.01,0.97,-0.55,0.02,-0.35,
2.922,-0.03,-0.01,0.98,-0.55,0.02,-0.35,
2.922,-0.03,-0.01,0.99,-0.55,0.02,-0.35,
2.922,-0.03,-0.01,0.99,-0.63,-0.01,-0.18,
2.923,-0.02,-0.01,0.99,-0.63,-0.01,-0.18,
2.926,-0.01,-0.01,1.00,-0.63,-0.01,-0.18,
2.926,-0.01,-0.01,1.00,-0.55,0.02,-0.06,
2.928,-0.01,-0.01,1.01,-0.55,0.02,-0.06,
2.936,0.00,-0.01,1.01,-0.55,0.02,-0.06,
2.937,0.00,-0.01,1.01,-0.41,0.05,0.06,
2.937,0.00,-0.02,1.02,-0.41,0.05,0.06,
2.937,0.00,-0.02,1.02,-0.41,0.05,0.06,
2.938,0.00,-0.02,1.02,-0.26,-0.03,0.18,
2.938,0.01,-0.02,1.01,-0.26,-0.03,0.18,
2.94,0.02,-0.03,1.01,-0.26,-0.03,0.18,
2.94,0.02,-0.03,1.01,-0.22,-0.09,0.25,
2.943,0.02,-0.03,1.00,-0.22,-0.09,0.25,
2.951,0.03,-0.04,1.01,-0.22,-0.09,0.25,
2.951,0.03,-0.04,1.01,-0.11,-0.14,0.20,
2.951,0.03,-0.03,1.02,-0.11,-0.14,0.20,
2.951,0.03,-0.04,1.02,-0.11,-0.14,0.20,
2.952,0.03,-0.04,1.02,-0.00,-0.23,0.16,
2.952,0.04,-0.05,1.02,-0.00,-0.23,0.16,
2.955,0.04,-0.04,1.02,-0.00,-0.23,0.16,
2.955,0.04,-0.04,1.02,0.06,-0.28,0.27,
2.957,0.05,-0.04,1.02,0.06,-0.28,0.27,
2.96,0.05,-0.03,1.03,0.06,-0.28,0.27,
2.96,0.05,-0.03,1.03,0.16,-0.31,0.30,
2.963,0.05,-0.03,1.01,0.16,-0.31,0.30,
2.966,0.05,-0.02,1.00,0.16,-0.31,0.30,
2.967,0.05,-0.02,1.00,0.25,-0.26,0.32,
2.977,0.05,-0.02,1.00,0.25,-0.26,0.32,
2.977,0.06,-0.02,1.00,0.25,-0.26,0.32,
2.978,0.06,-0.02,1.00,0.28,-0.18,0.16,
2.978,0.06,-0.01,0.99,0.28,-0.18,0.16,
2.978,0.06,-0.01,0.98,0.28,-0.18,0.16,
2.978,0.06,-0.01,0.98,0.31,-0.10,0.06,
2.979,0.06,-0.02,0.98,0.31,-0.10,0.06,
2.989,0.05,-0.01,0.98,0.31,-0.10,0.06,
2.99,0.05,-0.01,0.98,0.34,-0.04,-0.06,
2.99,0.05,-0.01,0.98,0.34,-0.04,-0.06,
2.99,0.05,-0.02,0.98,0.34,-0.04,-0.06,
2.99,0.05,-0.02,0.98,0.29,-0.06,-0.10,
2.99,0.05,-0.02,0.99,0.29,-0.06,-0.10,
2.99,0.04,-0.02,0.99,0.29,-0.06,-0.10,
2.99,0.04,-0.02,0.99,0.25,-0.08,-0.10,
2.992,0.03,-0.02,0.99,0.25,-0.08,-0.10,
2.995,0.03,-0.01,1.00,0.25,-0.08,-0.10,
2.995,0.03,-0.01,1.00,0.18,-0.13,-0.06,
3.002,0.03,-0.02,1.00,0.18,-0.13,-0.06,
3.003,0.02,-0.02,1.01,0.18,-0.13,-0.06,
3.003,0.02,-0.02,1.01,0.07,-0.10,0.00,
3.003,0.01,-0.02,1.02,0.07,-0.10,0.00,
3.005,0.01,-0.02,1.02,0.07,-0.10,0.00,
3.005,0.01,-0.02,1.02,0.04,-0.12,0.13,
3.008,-0.00,-0.02,1.04,0.04,-0.12,0.13,
3.01,-0.01,-0.01,1.03,0.04,-0.12,0.13,
3.01,-0.01,-0.01,1.03,-0.14,-0.15,0.29,
3.012,-0.02,-0.01,1.05,-0.14,-0.15,0.29,
3.021,-0.02,0.01,1.04,-0.14,-0.15,0.29,
3.022,-0.02,0.01,1.04,-0.32,-0.08,0.42,
3.022,-0.02,0.01,1.03,-0.32,-0.08,0.42,
3.022,0.00,-0.01,0.94,-0.32,-0.08,0.42,
3.022,0.00,-0.01,0.94,-0.46,0.07,0.52,
3.023,0.01,0.01,0.81,-0.46,0.07,0.52,
3.025,0.01,0.05,0.70,-0.46,0.07,0.52,
3.026,0.01,0.05,0.70,-0.33,0.07,-0.07,
3.027,0.00,0.07,0.64,-0.33,0.07,-0.07,
3.03,-0.01,0.06,0.68,-0.33,0.07,-0.07,
3.035,-0.01,0.06,0.68,-0.14,0.38,-2.33,
3.036,-0.04,0.04,0.78,-0.14,0.38,-2.33,
3.036,-0.07,0.02,0.88,-0.14,0.38,-2.33,
3.036,-0.07,0.02,0.88,-0.25,0.71,-3.24,
3.037,-0.07,0.01,0.97,-0.25,0.71,-3.24,
3.039,-0.07,0.01,1.04,-0.25,0.71,-3.24,
3.04,-0.07,0.01,1.04,-0.73,0.33,-1.51,
3.041,-0.08,0.02,1.07,-0.73,0.33,-1.51,
3.044,-0.08,0.03,1.09,-0.73,0.33,-1.51,
3.044,-0.08,0.03,1.09,-0.92,0.20,0.17,
3.053,-0.08,0.05,1.09,-0.92,0.20,0.17,
3.053,-0.08,0.06,1.09,-0.92,0.20,0.17,
3.053,-0.08,0.06,1.09,-0.98,0.33,0.91,
3.054,-0.09,0.06,1.08,-0.98,0.33,0.91,
3.055,-0.09,0.06,1.08,-0.98,0.33,0.91,
3.055,-0.09,0.06,1.08,-0.97,0.61,1.00,
3.057,-0.11,0.05,1.10,-0.97,0.61,1.00,
3.06,-0.11,0.05,1.10,-1.06,0.68,0.92,
3.06,-0.11,0.04,1.10,-1.06,0.68,0.92,
3.062,-0.11,0.03,1.09,-1.06,0.68,0.92,
3.068,-0.12,0.03,1.10,-1.06,0.68,0.92,
3.069,-0.12,0.03,1.10,-1.24,0.49,1.06,
3.069,-0.12,0.03,1.10,-1.24,0.49,1.06,
3.069,-0.10,0.03,1.08,-1.24,0.49,1.06,
3.069,-0.10,0.03,1.08,-1.33,0.38,1.01,
3.086,-0.09,0.04,1.07,-1.33,0.38,1.01,
3.086,-0.08,0.04,1.06,-1.33,0.38,1.01,
3.086,-0.08,0.04,1.06,-1.26,0.39,0.97,
3.087,-0.09,0.04,1.05,-1.26,0.39,0.97,
3.087,-0.09,0.04,1.05,-1.26,0.39,0.97,
3.087,-0.09,0.04,1.05,-1.02,0.46,0.72,
3.087,-0.08,0.03,1.04,-1.02,0.46,0.72,
3.088,-0.08,0.03,1.04,-1.05,0.45,0.58,
3.088,-0.08,0.03,1.04,-1.05,0.45,0.58,
3.088,-0.08,0.02,1.06,-1.05,0.45,0.58,
3.089,-0.07,0.02,1.04,-1.05,0.45,0.58,
3.09,-0.07,0.02,1.04,-1.01,0.35,0.48,
3.092,-0.06,0.03,1.04,-1.01,0.35,0.48,
3.093,-0.05,0.03,1.05,-1.01,0.35,0.48,
3.094,-0.05,0.03,1.05,-0.94,0.28,0.58,
3.103,-0.04,0.03,1.05,-0.94,0.28,0.58,
3.103,-0.03,0.02,1.04,-0.94,0.28,0.58,
3.104,-0.03,0.02,1.04,-0.76,0.30,0.51,
3.104,-0.04,0.02,1.02,-0.76,0.30,0.51,
3.104,-0.03,-0.00,1.01,-0.76,0.30,0.51,
3.104,-0.03,-0.00,1.01,-0.61,0.25,0.50,
3.106,-0.02,-0.04,1.00,-0.61,0.25,0.50,
3.108,-0.01,-0.04,0.98,-0.61,0.25,0.50,
3.108,-0.01,-0.04,0.98,-0.57,0.07,0.26,
3.111,0.01,-0.02,0.97,-0.57,0.07,0.26,
3.125,0.02,0.00,0.96,-0.57,0.07,0.26,
3.126,0.02,0.00,0.96,-0.40,-0.37,-0.03,
3.126,0.03,0.01,0.95,-0.40,-0.37,-0.03,
3.126,0.04,0.03,0.95,-0.40,-0.37,-0.03,
3.126,0.04,0.03,0.95,-0.12,-0.07,-0.29,
3.126,0.04,0.03,0.95,-0.12,-0.07,-0.29,
3.127,0.04,0.03,0.95,-0.12,-0.07,-0.29,
3.127,0.04,0.03,0.95,0.09,0.18,-0.41,
3.127,0.04,0.02,0.96,0.09,0.18,-0.41,
3.129,0.04,0.01,0.96,0.09,0.18,-0.41,
3.133,0.04,0.01,0.96,0.16,0.28,-0.39,
3.134,0.03,-0.00,0.96,0.16,0.28,-0.39,
3.134,0.03,-0.01,0.96,0.16,0.28,-0.39,
3.134,0.03,-0.01,0.96,0.18,0.10,-0.28,
3.14,0.03,-0.02,0.97,0.18,0.10,-0.28,
3.14,0.03,-0.02,0.97,0.18,0.10,-0.28,
3.141,0.03,-0.02,0.97,0.10,-0.09,-0.26,
3.141,0.05,-0.02,0.97,0.10,-0.09,-0.26,
