
time,gFx,gFy,gFz,ax,ay,az,
0.004,-0.09,0.12,1.02,-0.13,0.58,0.07,
0.004,-0.09,0.12,1.04,-0.13,0.58,0.07,
0.004,-0.09,0.12,1.04,-0.13,0.60,0.32,
0.004,-0.08,0.11,1.05,-0.13,0.60,0.32,
0.005,-0.09,0.11,1.05,-0.13,0.60,0.32,
0.005,-0.09,0.11,1.05,-0.10,0.57,0.64,
0.009,-0.11,0.13,1.05,-0.10,0.57,0.64,
0.01,-0.11,0.13,1.05,-0.10,0.53,0.83,
0.01,-0.09,0.13,1.06,-0.10,0.53,0.83,
0.012,-0.07,0.12,1.07,-0.10,0.53,0.83,
0.014,-0.07,0.11,1.07,-0.10,0.53,0.83,
0.014,-0.07,0.11,1.07,-0.21,0.66,0.85,
0.016,-0.07,0.11,1.07,-0.21,0.66,0.85,
0.019,-0.07,0.11,1.07,-0.21,0.66,0.85,
0.02,-0.07,0.11,1.07,0.02,0.57,1.01,
0.021,-0.07,0.10,1.07,0.02,0.57,1.01,
0.023,-0.07,0.10,1.06,0.02,0.57,1.01,
0.024,-0.07,0.10,1.06,0.06,0.47,1.01,
0.027,-0.07,0.10,1.06,0.06,0.47,1.01,
0.028,-0.08,0.09,1.06,0.06,0.47,1.01,
0.029,-0.08,0.09,1.06,0.06,0.40,0.93,
0.031,-0.07,0.09,1.04,0.06,0.40,0.93,
0.034,-0.07,0.09,1.04,0.00,0.35,0.86,
0.034,-0.08,0.09,1.03,0.00,0.35,0.86,
0.036,-0.08,0.09,1.03,0.00,0.35,0.86,
0.04,-0.09,0.09,1.02,0.00,0.35,0.86,
0.04,-0.09,0.09,1.02,-0.02,0.32,0.66,
0.041,-0.09,0.10,1.02,-0.02,0.32,0.66,
0.044,-0.09,0.10,1.01,-0.02,0.32,0.66,
0.044,-0.09,0.10,1.01,-0.11,0.31,0.55,
0.046,-0.09,0.10,0.99,-0.11,0.31,0.55,
0.05,-0.09,0.11,0.98,-0.11,0.31,0.55,
0.05,-0.09,0.11,0.98,-0.16,0.38,0.38,
0.05,-0.09,0.11,0.99,-0.16,0.38,0.38,
0.054,-0.09,0.11,0.99,-0.14,0.43,0.13,
0.055,-0.09,0.11,0.99,-0.14,0.43,0.13,
0.056,-0.08,0.11,0.98,-0.14,0.43,0.13,
0.058,-0.08,0.11,0.98,-0.13,0.45,0.17,
0.059,-0.08,0.11,0.98,-0.13,0.45,0.17,
0.061,-0.08,0.11,0.99,-0.13,0.45,0.17,
0.063,-0.07,0.10,0.99,-0.13,0.45,0.17,
0.064,-0.07,0.10,0.99,-0.08,0.49,0.09,
0.065,-0.07,0.10,0.99,-0.08,0.49,0.09,
0.069,-0.06,0.11,0.98,-0.08,0.49,0.09,
0.069,-0.06,0.11,0.98,-0.02,0.45,0.16,
0.07,-0.06,0.11,0.99,-0.02,0.45,0.16,
0.074,-0.06,0.12,0.99,-0.02,0.45,0.16,
0.074,-0.06,0.12,0.99,0.07,0.46,0.16,
0.08,-0.06,0.12,0.99,0.07,0.46,0.16,
0.08,-0.06,0.12,0.99,0.06,0.53,0.15,
0.081,-0.06,0.13,0.99,0.06,0.53,0.15,
0.081,-0.05,0.13,0.99,0.06,0.53,0.15,
0.083,-0.05,0.13,0.99,0.08,0.61,0.16,
0.083,-0.04,0.13,0.99,0.08,0.61,0.16,
0.086,-0.03,0.14,0.99,0.08,0.61,0.16,
0.088,-0.02,0.14,0.99,0.08,0.61,0.16,
0.088,-0.02,0.14,0.99,0.19,0.68,0.18,
0.094,-0.01,0.14,1.00,0.19,0.68,0.18,
0.094,-0.01,0.13,1.00,0.19,0.68,0.18,
0.094,-0.01,0.13,1.00,0.34,0.76,0.19,
0.095,-0.00,0.13,1.01,0.34,0.76,0.19,
0.099,0.00,0.13,1.00,0.34,0.76,0.19,
0.099,0.00,0.13,1.00,0.47,0.72,0.26,
0.1,-0.00,0.12,1.00,0.47,0.72,0.26,
0.104,-0.00,0.11,1.00,0.47,0.72,0.26,
0.104,-0.00,0.11,1.00,0.56,0.65,0.29,
0.105,-0.00,0.10,1.00,0.56,0.65,0.29,
0.108,-0.00,0.10,1.00,0.52,0.53,0.23,
0.109,-0.01,0.11,0.99,0.52,0.53,0.23,
0.111,-0.01,0.10,0.99,0.52,0.53,0.23,
0.113,-0.01,0.10,0.99,0.52,0.53,0.23,
0.113,-0.01,0.10,0.99,0.48,0.42,0.21,
0.115,-0.01,0.10,0.99,0.48,0.42,0.21,
0.118,-0.01,0.10,0.99,0.48,0.42,0.21,
0.119,-0.01,0.10,0.99,0.44,0.36,0.17,
0.121,-0.02,0.10,0.99,0.44,0.36,0.17,
0.123,-0.02,0.10,0.99,0.44,0.36,0.17,
0.124,-0.02,0.10,0.99,0.45,0.36,0.11,
0.126,-0.01,0.10,0.98,0.45,0.36,0.11,
0.128,-0.02,0.11,0.99,0.45,0.36,0.11,
0.128,-0.02,0.11,0.99,0.34,0.36,0.15,
0.13,-0.02,0.11,0.99,0.34,0.36,0.15,
0.133,-0.02,0.11,0.99,0.35,0.43,0.11,
0.134,-0.03,0.11,0.98,0.35,0.43,0.11,
0.135,-0.03,0.11,0.99,0.35,0.43,0.11,
0.137,-0.04,0.11,0.98,0.35,0.43,0.11,
0.138,-0.04,0.11,0.98,0.24,0.44,0.11,
0.14,-0.05,0.10,0.99,0.24,0.44,0.11,
0.142,-0.06,0.09,1.00,0.24,0.44,0.11,
0.143,-0.06,0.09,1.00,0.14,0.45,0.08,
0.145,-0.06,0.09,1.00,0.14,0.45,0.08,
0.148,-0.07,0.09,1.01,0.14,0.45,0.08,
0.148,-0.07,0.09,1.01,-0.02,0.37,0.20,
0.15,-0.08,0.09,1.02,-0.02,0.37,0.20,
0.153,-0.08,0.08,1.03,-0.02,0.37,0.20,
0.153,-0.08,0.08,1.03,-0.18,0.28,0.24,
0.155,-0.08,0.09,1.03,-0.18,0.28,0.24,
0.158,-0.09,0.09,1.04,-0.18,0.28,0.24,
0.158,-0.09,0.09,1.04,-0.30,0.25,0.43,
0.16,-0.09,0.10,1.04,-0.30,0.25,0.43,
0.163,-0.09,0.10,1.04,-0.34,0.31,0.56,
0.163,-0.09,0.10,1.05,-0.34,0.31,0.56,
0.165,-0.09,0.10,1.06,-0.34,0.31,0.56,
0.168,-0.09,0.10,1.06,-0.34,0.31,0.56,
0.168,-0.09,0.10,1.06,-0.38,0.37,0.69,
0.17,-0.10,0.10,1.07,-0.38,0.37,0.69,
0.173,-0.10,0.09,1.08,-0.38,0.37,0.69,
0.173,-0.10,0.09,1.08,-0.41,0.42,0.78,
0.175,-0.11,0.09,1.08,-0.41,0.42,0.78,
0.177,-0.11,0.10,1.08,-0.41,0.42,0.78,
0.177,-0.11,0.10,1.08,-0.51,0.40,0.91,
0.179,-0.11,0.10,1.08,-0.51,0.40,0.91,
0.183,-0.11,0.10,1.08,-0.63,0.38,0.97,
0.183,-0.12,0.09,1.08,-0.63,0.38,0.97,
0.185,-0.12,0.09,1.08,-0.63,0.38,0.97,
0.187,-0.12,0.09,1.08,-0.63,0.38,0.97,
0.188,-0.12,0.09,1.08,-0.69,0.37,0.98,
0.19,-0.12,0.08,1.09,-0.69,0.37,0.98,
0.195,-0.12,0.08,1.08,-0.69,0.37,0.98,
0.196,-0.12,0.08,1.08,-0.75,0.34,0.96,
0.196,-0.13,0.08,1.08,-0.75,0.34,0.96,
0.197,-0.13,0.08,1.08,-0.80,0.27,1.00,
0.197,-0.13,0.08,1.08,-0.80,0.27,1.00,
0.199,-0.13,0.09,1.08,-0.80,0.27,1.00,
0.202,-0.13,0.08,1.08,-0.80,0.27,1.00,
0.203,-0.13,0.08,1.08,-0.83,0.27,0.96,
0.205,-0.13,0.08,1.08,-0.83,0.27,0.96,
0.207,-0.13,0.08,1.08,-0.86,0.29,0.92,
0.208,-0.13,0.08,1.07,-0.86,0.29,0.92,
0.209,-0.13,0.08,1.07,-0.86,0.29,0.92,
0.212,-0.13,0.08,1.08,-0.86,0.29,0.92,
0.212,-0.13,0.08,1.08,-0.86,0.24,0.85,
0.215,-0.12,0.08,1.07,-0.86,0.24,0.85,
0.217,-0.12,0.08,1.06,-0.86,0.24,0.85,
0.217,-0.12,0.08,1.06,-0.87,0.26,0.86,
0.219,-0.12,0.09,1.06,-0.87,0.26,0.86,
0.221,-0.12,0.09,1.06,-0.87,0.26,0.86,
0.222,-0.12,0.09,1.06,-0.82,0.26,0.73,
0.225,-0.12,0.10,1.05,-0.82,0.26,0.73,
0.226,-0.12,0.10,1.05,-0.79,0.34,0.68,
0.227,-0.12,0.10,1.05,-0.79,0.34,0.68,
0.229,-0.12,0.11,1.04,-0.79,0.34,0.68,
0.232,-0.12,0.11,1.04,-0.78,0.42,0.58,
0.232,-0.12,0.11,1.04,-0.78,0.42,0.58,
0.235,-0.12,0.11,1.04,-0.78,0.42,0.58,
0.236,-0.12,0.11,1.04,-0.77,0.45,0.52,
0.237,-0.12,0.11,1.04,-0.77,0.45,0.52,
0.238,-0.12,0.11,1.04,-0.77,0.45,0.52,
0.242,-0.12,0.11,1.03,-0.77,0.45,0.52,
0.244,-0.12,0.11,1.03,-0.77,0.48,0.48,
0.244,-0.12,0.11,1.02,-0.77,0.48,0.48,
0.246,-0.12,0.11,1.02,-0.79,0.47,0.43,
0.247,-0.12,0.11,1.02,-0.79,0.47,0.43,
0.248,-0.12,0.11,1.01,-0.79,0.47,0.43,
0.251,-0.11,0.12,1.01,-0.79,0.47,0.43,
0.252,-0.11,0.12,1.01,-0.75,0.42,0.32,
0.254,-0.12,0.11,1.01,-0.75,0.42,0.32,
0.256,-0.12,0.11,1.01,-0.74,0.45,0.20,
0.256,-0.12,0.11,1.00,-0.74,0.45,0.20,
0.259,-0.12,0.11,1.00,-0.74,0.45,0.20,
0.262,-0.12,0.11,1.00,-0.77,0.39,0.18,
0.262,-0.13,0.11,1.00,-0.77,0.39,0.18,
0.263,-0.13,0.10,1.00,-0.77,0.39,0.18,
0.266,-0.13,0.10,1.00,-0.77,0.39,0.18,
0.266,-0.13,0.10,1.00,-0.83,0.36,0.12,
0.268,-0.14,0.10,1.00,-0.83,0.36,0.12,
0.271,-0.13,0.10,1.00,-0.83,0.36,0.12,
0.271,-0.13,0.10,1.00,-0.89,0.30,0.10,
0.273,-0.13,0.10,1.00,-0.89,0.30,0.10,
0.276,-0.13,0.10,1.01,-0.89,0.30,0.10,
0.277,-0.13,0.10,1.01,-0.94,0.27,0.10,
0.278,-0.13,0.09,1.01,-0.94,0.27,0.10,
0.281,-0.13,0.09,1.01,-0.91,0.24,0.12,
0.281,-0.13,0.10,1.01,-0.91,0.24,0.12,
0.283,-0.12,0.10,1.01,-0.91,0.24,0.12,
0.286,-0.12,0.10,1.01,-0.89,0.23,0.17,
0.286,-0.12,0.10,1.02,-0.89,0.23,0.17,
0.288,-0.12,0.09,1.02,-0.89,0.23,0.17,
0.296,-0.11,0.09,1.03,-0.89,0.23,0.17,
0.297,-0.11,0.09,1.03,-0.82,0.23,0.20,
0.297,-0.11,0.09,1.03,-0.82,0.23,0.20,
0.297,-0.11,0.09,1.03,-0.82,0.23,0.20,
0.297,-0.11,0.09,1.03,-0.79,0.14,0.31,
0.298,-0.11,0.08,1.03,-0.79,0.14,0.31,
0.301,-0.10,0.08,1.04,-0.79,0.14,0.31,
0.301,-0.10,0.08,1.04,-0.73,0.16,0.38,
0.303,-0.10,0.09,1.04,-0.73,0.16,0.38,
0.306,-0.10,0.09,1.04,-0.69,0.10,0.41,
0.307,-0.09,0.08,1.05,-0.69,0.10,0.41,
0.309,-0.09,0.09,1.04,-0.69,0.10,0.41,
0.31,-0.09,0.10,1.04,-0.69,0.10,0.41,
0.311,-0.09,0.10,1.04,-0.62,0.13,0.51,
0.313,-0.08,0.10,1.05,-0.62,0.13,0.51,
0.315,-0.08,0.11,1.04,-0.62,0.13,0.51,
0.316,-0.08,0.11,1.04,-0.59,0.21,0.48,
0.318,-0.08,0.11,1.04,-0.59,0.21,0.48,
0.321,-0.08,0.11,1.04,-0.54,0.30,0.51,
0.322,-0.08,0.12,1.04,-0.54,0.30,0.51,
0.323,-0.08,0.12,1.03,-0.54,0.30,0.51,
0.327,-0.08,0.13,1.02,-0.54,0.30,0.51,
0.33,-0.08,0.13,1.02,-0.55,0.40,0.44,
0.331,-0.08,0.12,1.02,-0.55,0.40,0.44,
0.332,-0.08,0.12,1.02,-0.57,0.49,0.31,
0.332,-0.09,0.12,1.02,-0.57,0.49,0.31,
0.333,-0.08,0.12,1.01,-0.57,0.49,0.31,
0.335,-0.08,0.12,1.01,-0.57,0.49,0.31,
0.336,-0.08,0.12,1.01,-0.61,0.44,0.22,
0.337,-0.08,0.12,1.01,-0.61,0.44,0.22,
0.34,-0.08,0.12,1.01,-0.61,0.44,0.22,
0.341,-0.08,0.12,1.01,-0.62,0.43,0.17,
0.346,-0.08,0.12,1.00,-0.62,0.43,0.17,
0.347,-0.08,0.12,1.00,-0.62,0.43,0.17,
0.347,-0.08,0.12,1.00,-0.63,0.45,0.13,
0.348,-0.08,0.12,1.00,-0.63,0.45,0.13,
0.35,-0.09,0.11,1.00,-0.63,0.45,0.13,
0.35,-0.09,0.11,1.00,-0.64,0.41,0.06,
0.354,-0.09,0.11,0.99,-0.64,0.41,0.06,
0.355,-0.09,0.11,0.99,-0.68,0.33,0.04,
0.356,-0.09,0.10,0.99,-0.68,0.33,0.04,
0.357,-0.09,0.10,1.00,-0.68,0.33,0.04,
0.361,-0.09,0.09,1.00,-0.68,0.33,0.04,
0.361,-0.09,0.09,1.00,-0.75,0.23,0.00,
0.362,-0.09,0.09,1.00,-0.75,0.23,0.00,
0.366,-0.09,0.09,1.00,-0.75,0.23,0.00,
0.366,-0.09,0.09,1.00,-0.77,0.14,0.08,
0.368,-0.09,0.09,1.01,-0.77,0.14,0.08,
0.37,-0.09,0.09,1.01,-0.77,0.14,0.08,
0.37,-0.09,0.09,1.01,-0.78,0.09,0.04,
0.373,-0.09,0.09,1.00,-0.78,0.09,0.04,
0.375,-0.09,0.10,1.01,-0.78,0.09,0.04,
0.375,-0.09,0.10,1.01,-0.79,0.08,0.14,
0.377,-0.10,0.09,1.02,-0.79,0.08,0.14,
0.381,-0.10,0.09,1.02,-0.80,0.09,0.10,
0.381,-0.11,0.09,1.02,-0.80,0.09,0.10,
0.383,-0.11,0.09,1.01,-0.80,0.09,0.10,
0.385,-0.12,0.08,1.01,-0.80,0.09,0.10,
0.386,-0.12,0.08,1.01,-0.90,0.07,0.20,
0.388,-0.12,0.08,1.01,-0.90,0.07,0.20,
0.39,-0.12,0.08,1.01,-0.90,0.07,0.20,
0.39,-0.12,0.08,1.01,-0.98,0.01,0.17,
0.397,-0.12,0.07,1.01,-0.98,0.01,0.17,
0.397,-0.12,0.07,1.01,-0.98,0.01,0.17,
0.398,-0.12,0.07,1.01,-1.04,-0.07,0.13,
0.398,-0.12,0.07,1.01,-1.04,-0.07,0.13,
0.4,-0.12,0.07,1.00,-1.04,-0.07,0.13,
0.4,-0.12,0.07,1.00,-1.04,-0.14,0.13,
0.402,-0.11,0.08,1.00,-1.04,-0.14,0.13,
0.405,-0.11,0.08,1.00,-1.04,-0.13,0.09,
0.406,-0.10,0.08,1.00,-1.04,-0.13,0.09,
0.407,-0.11,0.08,1.00,-1.04,-0.13,0.09,
0.411,-0.10,0.09,0.99,-1.04,-0.13,0.09,
0.411,-0.10,0.09,0.99,-0.92,-0.07,0.00,
0.412,-0.10,0.09,0.99,-0.92,-0.07,0.00,
0.415,-0.10,0.09,0.99,-0.89,-0.02,-0.03,
0.415,-0.10,0.09,0.99,-0.89,-0.02,-0.03,
0.418,-0.09,0.10,0.99,-0.89,-0.02,-0.03,
0.42,-0.08,0.10,0.99,-0.89,-0.02,-0.03,
0.42,-0.08,0.10,0.99,-0.83,0.05,-0.07,
0.422,-0.08,0.11,0.98,-0.83,0.05,-0.07,
0.425,-0.07,0.11,0.98,-0.83,0.05,-0.07,
0.425,-0.07,0.11,0.98,-0.72,0.10,-0.05,
0.428,-0.07,0.12,0.99,-0.72,0.10,-0.05,
0.429,-0.07,0.12,0.99,-0.65,0.19,-0.13,
0.43,-0.07,0.13,0.98,-0.65,0.19,-0.13,
0.432,-0.07,0.13,0.97,-0.65,0.19,-0.13,
0.435,-0.06,0.13,0.97,-0.65,0.19,-0.13,
0.435,-0.06,0.13,0.97,-0.59,0.30,-0.10,
0.437,-0.07,0.13,0.97,-0.59,0.30,-0.10,
0.44,-0.07,0.13,0.95,-0.59,0.30,-0.10,
0.44,-0.07,0.13,0.95,-0.55,0.33,-0.22,
0.442,-0.07,0.12,0.95,-0.55,0.33,-0.22,
0.444,-0.07,0.12,0.94,-0.55,0.33,-0.22,
0.445,-0.07,0.12,0.94,-0.60,0.33,-0.33,
0.447,-0.08,0.12,0.93,-0.60,0.33,-0.33,
0.45,-0.08,0.12,0.92,-0.60,0.33,-0.33,
0.45,-0.08,0.12,0.92,-0.63,0.26,-0.49,
0.452,-0.08,0.12,0.91,-0.63,0.26,-0.49,
0.455,-0.08,0.12,0.91,-0.69,0.23,-0.63,
0.455,-0.07,0.13,0.90,-0.69,0.23,-0.63,
0.457,-0.07,0.13,0.90,-0.69,0.23,-0.63,
0.46,-0.07,0.13,0.90,-0.67,0.23,-0.83,
0.46,-0.08,0.13,0.89,-0.67,0.23,-0.83,
0.462,-0.08,0.13,0.89,-0.67,0.23,-0.83,
0.465,-0.08,0.13,0.88,-0.67,0.23,-0.83,
0.465,-0.08,0.13,0.88,-0.69,0.24,-0.96,
0.467,-0.09,0.12,0.87,-0.69,0.24,-0.96,
0.47,-0.09,0.12,0.86,-0.69,0.24,-0.96,
0.47,-0.09,0.12,0.86,-0.73,0.23,-1.05,
0.471,-0.09,0.12,0.86,-0.73,0.23,-1.05,
0.474,-0.09,0.12,0.86,-0.80,0.15,-1.18,
0.474,-0.10,0.12,0.86,-0.80,0.15,-1.18,
0.476,-0.11,0.12,0.85,-0.80,0.15,-1.18,
0.479,-0.11,0.12,0.85,-0.88,0.10,-1.21,
0.479,-0.11,0.11,0.85,-0.88,0.10,-1.21,
0.481,-0.11,0.11,0.85,-0.88,0.10,-1.21,
0.484,-0.12,0.10,0.85,-0.88,0.10,-1.21,
0.484,-0.12,0.10,0.85,-1.02,0.03,-1.31,
0.486,-0.12,0.10,0.85,-1.02,0.03,-1.31,
0.49,-0.12,0.09,0.84,-1.02,0.03,-1.31,
0.49,-0.12,0.09,0.84,-1.05,-0.08,-1.30,
0.492,-0.13,0.09,0.84,-1.05,-0.08,-1.30,
0.495,-0.13,0.08,0.84,-1.05,-0.08,-1.30,
0.495,-0.13,0.08,0.84,-1.11,-0.17,-1.36,
0.496,-0.13,0.08,0.85,-1.11,-0.17,-1.36,
0.498,-0.13,0.08,0.85,-1.11,-0.17,-1.36,
0.499,-0.13,0.08,0.85,-1.16,-0.29,-1.38,
0.501,-0.12,0.08,0.84,-1.16,-0.29,-1.38,
0.504,-0.12,0.08,0.84,-1.18,-0.31,-1.30,
0.504,-0.12,0.09,0.85,-1.18,-0.31,-1.30,
0.506,-0.11,0.11,0.85,-1.18,-0.31,-1.30,
0.514,-0.10,0.12,0.85,-1.18,-0.31,-1.30,
0.515,-0.10,0.12,0.85,-1.05,-0.23,-1.31,
0.515,-0.08,0.14,0.86,-1.05,-0.23,-1.31,
0.515,-0.08,0.15,0.86,-1.05,-0.23,-1.31,
0.515,-0.08,0.15,0.86,-0.89,0.02,-1.23,
0.516,-0.07,0.17,0.86,-0.89,0.02,-1.23,
0.518,-0.05,0.18,0.86,-0.89,0.02,-1.23,
0.519,-0.05,0.18,0.86,-0.64,0.30,-1.17,
0.521,-0.04,0.20,0.87,-0.64,0.30,-1.17,
0.524,-0.03,0.21,0.87,-0.64,0.30,-1.17,
0.525,-0.03,0.21,0.87,-0.43,0.58,-1.15,
0.527,-0.02,0.23,0.87,-0.43,0.58,-1.15,
0.528,-0.02,0.23,0.87,-0.19,0.87,-1.02,
0.529,-0.02,0.25,0.87,-0.19,0.87,-1.02,
0.53,-0.02,0.25,0.86,-0.19,0.87,-1.02,
0.533,-0.02,0.26,0.86,-0.19,0.87,-1.02,
0.534,-0.02,0.26,0.86,-0.02,1.15,-1.03,
0.535,-0.04,0.26,0.86,-0.02,1.15,-1.03,
0.538,-0.04,0.26,0.86,0.01,1.28,-1.10,
0.538,-0.04,0.26,0.86,0.01,1.28,-1.10,
0.541,-0.05,0.26,0.85,0.01,1.28,-1.10,
0.544,-0.06,0.26,0.85,0.01,1.28,-1.10,
0.544,-0.06,0.26,0.85,-0.15,1.32,-1.09,
0.545,-0.08,0.25,0.84,-0.15,1.32,-1.09,
0.548,-0.08,0.24,0.83,-0.15,1.32,-1.09,
0.549,-0.08,0.24,0.83,-0.30,1.27,-1.22,
0.55,-0.09,0.23,0.83,-0.30,1.27,-1.22,
0.553,-0.10,0.23,0.83,-0.30,1.27,-1.22,
0.553,-0.10,0.23,0.83,-0.47,1.14,-1.30,
0.555,-0.11,0.22,0.83,-0.47,1.14,-1.30,
0.558,-0.11,0.21,0.83,-0.47,1.14,-1.30,
0.559,-0.11,0.21,0.83,-0.62,0.96,-1.36,
0.561,-0.12,0.20,0.83,-0.62,0.96,-1.36,
0.563,-0.12,0.19,0.84,-0.62,0.96,-1.36,
0.563,-0.12,0.19,0.84,-0.75,0.80,-1.35,
0.565,-0.13,0.18,0.84,-0.75,0.80,-1.35,
0.568,-0.12,0.18,0.85,-0.75,0.80,-1.35,
0.568,-0.12,0.18,0.85,-0.82,0.60,-1.30,
0.57,-0.12,0.17,0.86,-0.82,0.60,-1.30,
0.573,-0.12,0.16,0.87,-0.82,0.60,-1.30,
0.574,-0.12,0.16,0.87,-0.85,0.48,-1.19,
0.575,-0.12,0.15,0.88,-0.85,0.48,-1.19,
0.581,-0.12,0.15,0.88,-0.81,0.34,-1.04,
0.581,-0.12,0.14,0.89,-0.81,0.34,-1.04,
0.581,-0.11,0.14,0.91,-0.81,0.34,-1.04,
0.583,-0.11,0.13,0.93,-0.81,0.34,-1.04,
0.583,-0.11,0.13,0.93,-0.76,0.17,-0.78,
0.585,-0.10,0.12,0.94,-0.76,0.17,-0.78,
0.588,-0.09,0.10,0.95,-0.76,0.17,-0.78,
0.589,-0.09,0.10,0.95,-0.69,0.03,-0.47,
0.59,-0.09,0.10,0.97,-0.69,0.03,-0.47,
0.595,-0.08,0.09,0.98,-0.69,0.03,-0.47,
0.596,-0.08,0.09,0.98,-0.58,-0.15,-0.23,
0.596,-0.07,0.08,0.99,-0.58,-0.15,-0.23,
0.598,-0.07,0.08,1.00,-0.58,-0.15,-0.23,
0.598,-0.07,0.08,1.00,-0.47,-0.30,0.08,
0.6,-0.05,0.08,1.01,-0.47,-0.30,0.08,
0.603,-0.05,0.08,1.01,-0.32,-0.35,0.28,
0.603,-0.04,0.08,1.01,-0.32,-0.35,0.28,
0.605,-0.03,0.08,1.02,-0.32,-0.35,0.28,
0.608,-0.03,0.08,1.02,-0.11,-0.37,0.42,
0.608,-0.02,0.08,1.04,-0.11,-0.37,0.42,
0.611,-0.01,0.08,1.04,-0.11,-0.37,0.42,
0.612,-0.00,0.08,1.04,-0.11,-0.37,0.42,
0.613,-0.00,0.08,1.04,0.08,-0.38,0.60,
0.615,0.01,0.08,1.05,0.08,-0.38,0.60,
0.617,0.02,0.09,1.07,0.08,-0.38,0.60,
0.618,0.02,0.09,1.07,0.28,-0.31,0.71,
0.62,0.03,0.10,1.06,0.28,-0.31,0.71,
0.623,0.04,0.11,1.06,0.28,-0.31,0.71,
0.623,0.04,0.11,1.06,0.47,-0.25,0.89,
0.625,0.05,0.11,1.06,0.47,-0.25,0.89,
0.631,0.05,0.11,1.06,0.65,-0.09,0.89,
0.631,0.06,0.12,1.05,0.65,-0.09,0.89,
0.631,0.06,0.13,1.05,0.65,-0.09,0.89,
0.632,0.07,0.13,1.05,0.65,-0.09,0.89,
0.632,0.07,0.13,1.05,0.86,0.03,0.86,
0.634,0.07,0.13,1.04,0.86,0.03,0.86,
0.637,0.07,0.13,1.03,0.86,0.03,0.86,
0.637,0.07,0.13,1.03,0.96,0.13,0.76,
0.639,0.07,0.13,1.02,0.96,0.13,0.76,
0.642,0.06,0.13,1.00,0.96,0.13,0.76,
0.642,0.06,0.13,1.00,0.99,0.15,0.62,
0.645,0.07,0.13,0.99,0.99,0.15,0.62,
0.647,0.06,0.12,0.98,0.99,0.15,0.62,
0.647,0.06,0.12,0.98,0.94,0.09,0.38,
0.649,0.05,0.13,0.96,0.94,0.09,0.38,
0.652,0.05,0.12,0.94,0.94,0.09,0.38,
0.653,0.05,0.12,0.94,0.94,-0.00,0.14,
0.654,0.04,0.12,0.93,0.94,-0.00,0.14,
0.657,0.04,0.12,0.92,0.94,-0.00,0.14,
0.657,0.04,0.12,0.92,0.83,-0.03,-0.19,
0.66,0.03,0.11,0.90,0.83,-0.03,-0.19,
0.663,0.03,0.11,0.89,0.83,-0.03,-0.19,
0.663,0.03,0.11,0.89,0.71,-0.11,-0.46,
0.665,0.02,0.10,0.86,0.71,-0.11,-0.46,
0.667,0.01,0.10,0.85,0.71,-0.11,-0.46,
0.668,0.01,0.10,0.85,0.61,-0.23,-0.75,
0.669,0.00,0.10,0.83,0.61,-0.23,-0.75,
0.673,-0.00,0.09,0.83,0.61,-0.23,-0.75,
0.673,-0.00,0.09,0.83,0.46,-0.35,-1.08,
0.675,-0.01,0.08,0.82,0.46,-0.35,-1.08,
0.679,-0.01,0.08,0.82,0.35,-0.48,-1.32,
0.679,-0.02,0.08,0.81,0.35,-0.48,-1.32,
0.68,-0.02,0.07,0.80,0.35,-0.48,-1.32,
0.682,-0.03,0.07,0.80,0.35,-0.48,-1.32,
0.682,-0.03,0.07,0.80,0.23,-0.63,-1.45,
0.684,-0.03,0.07,0.79,0.23,-0.63,-1.45,
0.689,-0.03,0.06,0.79,0.23,-0.63,-1.45,
0.69,-0.03,0.06,0.79,0.14,-0.71,-1.62,
0.69,-0.03,0.06,0.79,0.14,-0.71,-1.62,
0.692,-0.02,0.06,0.79,0.14,-0.71,-1.62,
0.693,-0.02,0.06,0.79,0.10,-0.78,-1.69,
0.695,-0.02,0.07,0.80,0.10,-0.78,-1.69,
0.697,-0.01,0.08,0.81,0.10,-0.78,-1.69,
0.697,-0.01,0.08,0.81,0.19,-0.81,-1.69,
0.699,0.00,0.08,0.82,0.19,-0.81,-1.69,
0.702,0.00,0.08,0.82,0.30,-0.71,-1.56,
0.702,0.01,0.09,0.83,0.30,-0.71,-1.56,
0.704,0.02,0.09,0.84,0.30,-0.71,-1.56,
0.707,0.04,0.10,0.86,0.30,-0.71,-1.56,
0.707,0.04,0.10,0.86,0.52,-0.59,-1.36,
0.709,0.05,0.11,0.88,0.52,-0.59,-1.36,
0.712,0.06,0.12,0.89,0.52,-0.59,-1.36,
0.713,0.06,0.12,0.89,0.73,-0.49,-1.08,
0.714,0.07,0.13,0.91,0.73,-0.49,-1.08,
0.717,0.07,0.13,0.91,0.97,-0.30,-0.75,
0.717,0.08,0.13,0.92,0.97,-0.30,-0.75,
0.719,0.09,0.14,0.94,0.97,-0.30,-0.75,
0.722,0.09,0.15,0.96,0.97,-0.30,-0.75,
0.722,0.09,0.15,0.96,1.20,-0.12,-0.45,
0.724,0.10,0.15,0.97,1.20,-0.12,-0.45,
0.728,0.10,0.15,0.97,1.35,0.02,-0.15,
0.729,0.10,0.15,0.98,1.35,0.02,-0.15,
0.729,0.10,0.15,0.99,1.35,0.02,-0.15,
0.731,0.09,0.15,1.00,1.35,0.02,-0.15,
0.731,0.09,0.15,1.00,1.45,0.12,0.14,
0.734,0.09,0.14,1.01,1.45,0.12,0.14,
0.737,0.09,0.14,1.01,1.41,0.09,0.34,
0.737,0.09,0.14,1.02,1.41,0.09,0.34,
0.739,0.08,0.13,1.02,1.41,0.09,0.34,
0.742,0.07,0.12,1.03,1.41,0.09,0.34,
0.742,0.07,0.12,1.03,1.36,0.00,0.49,
0.744,0.07,0.11,1.02,1.36,0.00,0.49,
0.748,0.06,0.10,1.02,1.36,0.00,0.49,
0.749,0.06,0.10,1.02,1.20,-0.16,0.61,
0.749,0.05,0.09,1.02,1.20,-0.16,0.61,
0.751,0.05,0.09,1.02,1.07,-0.28,0.58,
0.751,0.05,0.09,1.02,1.07,-0.28,0.58,
0.754,0.05,0.09,1.01,1.07,-0.28,0.58,
0.756,0.04,0.08,1.00,1.07,-0.28,0.58,
0.757,0.04,0.08,1.00,0.93,-0.43,0.55,
0.759,0.03,0.08,1.00,0.93,-0.43,0.55,
0.762,0.03,0.08,0.99,0.93,-0.43,0.55,
0.762,0.03,0.08,0.99,0.87,-0.50,0.41,
0.763,0.03,0.07,0.98,0.87,-0.50,0.41,
0.767,0.02,0.07,0.97,0.87,-0.50,0.41,
0.767,0.02,0.07,0.97,0.76,-0.57,0.29,
0.769,0.02,0.07,0.97,0.76,-0.57,0.29,
0.772,0.02,0.06,0.95,0.76,-0.57,0.29,
0.772,0.02,0.06,0.95,0.67,-0.61,0.12,
0.774,0.01,0.06,0.94,0.67,-0.61,0.12,
0.777,0.01,0.06,0.94,0.59,-0.67,-0.03,
0.777,0.01,0.06,0.93,0.59,-0.67,-0.03,
0.779,0.00,0.05,0.93,0.59,-0.67,-0.03,
0.781,0.00,0.05,0.93,0.59,-0.67,-0.03,
0.781,0.00,0.05,0.93,0.50,-0.73,-0.24,
0.783,-0.00,0.05,0.93,0.50,-0.73,-0.24,
0.787,-0.01,0.05,0.92,0.50,-0.73,-0.24,
0.787,-0.01,0.05,0.92,0.43,-0.79,-0.35,
0.789,-0.00,0.04,0.92,0.43,-0.79,-0.35,
0.791,-0.01,0.05,0.91,0.43,-0.79,-0.35,
0.792,-0.01,0.05,0.91,0.34,-0.82,-0.40,
0.794,-0.00,0.05,0.92,0.34,-0.82,-0.40,
0.796,0.00,0.05,0.92,0.34,-0.82,-0.40,
0.796,0.00,0.05,0.92,0.34,-0.85,-0.47,
0.798,0.01,0.05,0.92,0.34,-0.85,-0.47,
0.801,0.01,0.05,0.92,0.37,-0.79,-0.45,
0.802,0.01,0.06,0.93,0.37,-0.79,-0.45,
0.804,0.02,0.07,0.94,0.37,-0.79,-0.45,
0.806,0.03,0.07,0.94,0.37,-0.79,-0.45,
0.807,0.03,0.07,0.94,0.46,-0.74,-0.39,
0.808,0.04,0.08,0.94,0.46,-0.74,-0.39,
0.812,0.04,0.09,0.95,0.46,-0.74,-0.39,
0.813,0.04,0.09,0.95,0.57,-0.61,-0.23,
0.813,0.05,0.10,0.95,0.57,-0.61,-0.23,
0.816,0.06,0.11,0.95,0.57,-0.61,-0.23,
0.817,0.06,0.11,0.95,0.72,-0.45,-0.17,
0.818,0.06,0.11,0.96,0.72,-0.45,-0.17,
0.821,0.06,0.11,0.96,0.72,-0.45,-0.17,
0.824,0.06,0.11,0.96,0.86,-0.29,-0.09,
0.824,0.06,0.11,0.96,0.86,-0.29,-0.09,
0.826,0.06,0.11,0.96,0.90,-0.20,-0.03,
0.827,0.06,0.11,0.95,0.90,-0.20,-0.03,
0.829,0.05,0.11,0.95,0.90,-0.20,-0.03,
0.831,0.05,0.10,0.95,0.90,-0.20,-0.03,
0.831,0.05,0.10,0.95,0.94,-0.21,-0.07,
0.832,0.05,0.10,0.95,0.94,-0.21,-0.07,
0.835,0.05,0.09,0.94,0.94,-0.21,-0.07,
0.835,0.05,0.09,0.94,0.89,-0.27,-0.10,
0.838,0.04,0.09,0.93,0.89,-0.27,-0.10,
0.84,0.04,0.08,0.93,0.89,-0.27,-0.10,
0.84,0.04,0.08,0.93,0.84,-0.36,-0.19,
0.842,0.04,0.08,0.93,0.84,-0.36,-0.19,
0.849,0.04,0.08,0.92,0.84,-0.36,-0.19,
0.85,0.04,0.08,0.92,0.79,-0.47,-0.28,
0.85,0.03,0.09,0.92,0.79,-0.47,-0.28,
0.851,0.03,0.09,0.92,0.75,-0.52,-0.39,
0.851,0.04,0.09,0.91,0.75,-0.52,-0.39,
0.853,0.03,0.09,0.90,0.75,-0.52,-0.39,
0.855,0.03,0.09,0.90,0.75,-0.52,-0.39,
0.855,0.03,0.09,0.90,0.72,-0.46,-0.47,
0.857,0.03,0.08,0.90,0.72,-0.46,-0.47,
0.86,0.03,0.08,0.90,0.72,-0.46,-0.47,
0.86,0.03,0.08,0.90,0.70,-0.47,-0.57,
0.862,0.02,0.09,0.90,0.70,-0.47,-0.57,
0.865,0.02,0.08,0.91,0.70,-0.47,-0.57,
0.865,0.02,0.08,0.91,0.65,-0.52,-0.59,
0.868,0.02,0.08,0.90,0.65,-0.52,-0.59,
0.87,0.02,0.08,0.91,0.65,-0.52,-0.59,
0.87,0.02,0.08,0.91,0.59,-0.54,-0.56,
0.872,0.02,0.08,0.90,0.59,-0.54,-0.56,
0.875,0.02,0.08,0.90,0.60,-0.58,-0.53,
0.875,0.03,0.07,0.91,0.60,-0.58,-0.53,
0.879,0.02,0.07,0.92,0.60,-0.58,-0.53,
0.88,0.03,0.07,0.92,0.60,-0.58,-0.53,
0.88,0.03,0.07,0.92,0.64,-0.63,-0.51,
0.882,0.04,0.06,0.92,0.64,-0.63,-0.51,
0.885,0.04,0.06,0.92,0.64,-0.63,-0.51,
0.885,0.04,0.06,0.92,0.67,-0.68,-0.39,
0.887,0.05,0.07,0.93,0.67,-0.68,-0.39,
0.89,0.05,0.07,0.93,0.78,-0.73,-0.37,
0.891,0.05,0.06,0.93,0.78,-0.73,-0.37,
0.892,0.06,0.07,0.94,0.78,-0.73,-0.37,
0.895,0.07,0.06,0.94,0.78,-0.73,-0.37,
0.896,0.07,0.06,0.94,0.88,-0.71,-0.32,
0.898,0.07,0.06,0.93,0.88,-0.71,-0.32,
0.9,0.07,0.06,0.93,1.01,-0.70,-0.22,
0.9,0.08,0.07,0.94,1.01,-0.70,-0.22,
0.902,0.09,0.07,0.94,1.01,-0.70,-0.22,
0.904,0.09,0.08,0.94,1.01,-0.70,-0.22,
0.905,0.09,0.08,0.94,1.10,-0.69,-0.25,
0.908,0.10,0.08,0.94,1.10,-0.69,-0.25,
0.91,0.10,0.09,0.93,1.10,-0.69,-0.25,
0.91,0.10,0.09,0.93,1.28,-0.61,-0.17,
0.912,0.10,0.09,0.93,1.28,-0.61,-0.17,
0.915,0.10,0.09,0.93,1.28,-0.61,-0.17,
0.915,0.10,0.09,0.93,1.34,-0.51,-0.24,
0.917,0.10,0.10,0.92,1.34,-0.51,-0.24,
0.919,0.10,0.10,0.91,1.34,-0.51,-0.24,
0.92,0.10,0.10,0.91,1.39,-0.41,-0.31,
0.921,0.10,0.09,0.91,1.39,-0.41,-0.31,
0.924,0.10,0.09,0.91,1.36,-0.36,-0.41,
0.925,0.10,0.10,0.91,1.36,-0.36,-0.41,
0.927,0.10,0.10,0.90,1.36,-0.36,-0.41,
0.93,0.09,0.09,0.89,1.36,-0.36,-0.41,
0.93,0.09,0.09,0.89,1.36,-0.39,-0.52,
0.931,0.09,0.09,0.89,1.36,-0.39,-0.52,
0.934,0.08,0.09,0.88,1.36,-0.39,-0.52,
0.934,0.08,0.09,0.88,1.31,-0.38,-0.61,
0.937,0.09,0.09,0.88,1.31,-0.38,-0.61,
0.939,0.09,0.09,0.88,1.21,-0.42,-0.69,
0.94,0.08,0.09,0.88,1.21,-0.42,-0.69,
0.941,0.07,0.09,0.88,1.21,-0.42,-0.69,
0.949,0.07,0.09,0.87,1.21,-0.42,-0.69,
0.95,0.07,0.09,0.87,1.18,-0.42,-0.74,
0.95,0.07,0.09,0.87,1.18,-0.42,-0.74,
0.95,0.06,0.08,0.87,1.18,-0.42,-0.74,
0.951,0.06,0.08,0.87,1.09,-0.44,-0.82,
0.951,0.06,0.07,0.87,1.09,-0.44,-0.82,
0.954,0.06,0.07,0.87,1.09,-0.44,-0.82,
0.954,0.06,0.07,0.87,1.03,-0.49,-0.86,
0.956,0.06,0.07,0.88,1.03,-0.49,-0.86,
0.959,0.06,0.06,0.87,1.03,-0.49,-0.86,
0.96,0.06,0.06,0.87,0.95,-0.59,-0.88,
0.962,0.06,0.06,0.88,0.95,-0.59,-0.88,
0.964,0.07,0.05,0.88,0.95,-0.59,-0.88,
0.964,0.07,0.05,0.88,0.94,-0.67,-0.80,
0.966,0.08,0.05,0.89,0.94,-0.67,-0.80,
0.969,0.09,0.05,0.91,0.94,-0.67,-0.80,
0.969,0.09,0.05,0.91,1.01,-0.74,-0.76,
0.971,0.09,0.04,0.91,1.01,-0.74,-0.76,
0.975,0.09,0.04,0.91,1.17,-0.76,-0.57,
0.975,0.10,0.04,0.92,1.17,-0.76,-0.57,
0.976,0.11,0.04,0.93,1.17,-0.76,-0.57,
0.98,0.12,0.04,0.94,1.17,-0.76,-0.57,
0.981,0.12,0.04,0.94,1.27,-0.81,-0.42,
0.981,0.14,0.04,0.95,1.27,-0.81,-0.42,
0.984,0.15,0.04,0.97,1.27,-0.81,-0.42,
0.984,0.15,0.04,0.97,1.48,-0.82,-0.23,
0.986,0.16,0.05,0.97,1.48,-0.82,-0.23,
0.989,0.17,0.05,0.99,1.48,-0.82,-0.23,
0.989,0.17,0.05,0.99,1.69,-0.77,0.02,
0.991,0.18,0.06,1.00,1.69,-0.77,0.02,
0.995,0.19,0.06,1.00,1.69,-0.77,0.02,
0.995,0.19,0.06,1.00,1.93,-0.68,0.22,
0.998,0.19,0.06,1.00,1.93,-0.68,0.22,
0.999,0.19,0.06,1.00,2.07,-0.58,0.42,
0.999,0.19,0.07,1.01,2.07,-0.58,0.42,
1.002,0.19,0.07,1.01,2.07,-0.58,0.42,
1.004,0.20,0.07,1.00,2.07,-0.58,0.42,
1.005,0.20,0.07,1.00,2.14,-0.52,0.47,
1.006,0.19,0.07,1.00,2.14,-0.52,0.47,
1.01,0.19,0.07,0.99,2.14,-0.52,0.47,
1.01,0.19,0.07,0.99,2.18,-0.49,0.45,
1.011,0.19,0.07,0.99,2.18,-0.49,0.45,
1.014,0.19,0.06,0.98,2.18,-0.49,0.45,
1.015,0.19,0.06,0.98,2.14,-0.48,0.35,
1.016,0.18,0.05,0.96,2.14,-0.48,0.35,
1.019,0.18,0.05,0.96,2.14,-0.48,0.35,
1.019,0.18,0.05,0.96,2.09,-0.51,0.24,
1.02,0.19,0.05,0.95,2.09,-0.51,0.24,
1.024,0.19,0.05,0.95,2.04,-0.60,0.01,
1.024,0.18,0.05,0.94,2.04,-0.60,0.01,
1.026,0.18,0.04,0.94,2.04,-0.60,0.01,
1.029,0.17,0.04,0.92,2.04,-0.60,0.01,
1.029,0.17,0.04,0.92,2.04,-0.66,-0.16,
1.03,0.17,0.03,0.92,2.04,-0.66,-0.16,
1.034,0.17,0.03,0.91,2.04,-0.66,-0.16,
1.034,0.17,0.03,0.91,1.96,-0.72,-0.29,
1.037,0.16,0.02,0.91,1.96,-0.72,-0.29,
1.039,0.16,0.01,0.90,1.96,-0.72,-0.29,
1.039,0.16,0.01,0.90,1.87,-0.82,-0.43,
1.041,0.16,0.01,0.90,1.87,-0.82,-0.43,
1.044,0.16,0.01,0.90,1.87,-0.82,-0.43,
1.044,0.16,0.01,0.90,1.79,-0.94,-0.54,
1.049,0.16,0.01,0.89,1.79,-0.94,-0.54,
1.05,0.16,0.01,0.89,1.76,-1.01,-0.61,
1.05,0.16,0.01,0.89,1.76,-1.01,-0.61,
1.05,0.17,-0.00,0.89,1.76,-1.01,-0.61,
1.054,0.17,-0.00,0.89,1.80,-1.05,-0.66,
1.054,0.17,-0.00,0.89,1.80,-1.05,-0.66,
1.056,0.18,0.00,0.89,1.80,-1.05,-0.66,
1.059,0.18,0.00,0.89,1.87,-1.11,-0.69,
1.059,0.19,-0.00,0.90,1.87,-1.11,-0.69,
1.061,0.19,-0.01,0.89,1.87,-1.11,-0.69,
1.063,0.20,-0.01,0.90,1.87,-1.11,-0.69,
1.064,0.20,-0.01,0.90,1.97,-1.09,-0.63,
1.065,0.22,-0.01,0.91,1.97,-1.09,-0.63,
1.068,0.22,-0.01,0.92,1.97,-1.09,-0.63,
1.069,0.22,-0.01,0.92,2.09,-1.14,-0.58,
1.071,0.23,-0.01,0.93,2.09,-1.14,-0.58,
1.074,0.23,-0.01,0.93,2.31,-1.14,-0.45,
1.074,0.24,-0.01,0.94,2.31,-1.14,-0.45,
1.076,0.25,-0.01,0.95,2.31,-1.14,-0.45,
1.078,0.26,-0.01,0.96,2.31,-1.14,-0.45,
1.079,0.26,-0.01,0.96,2.47,-1.13,-0.27,
1.081,0.27,-0.02,0.96,2.47,-1.13,-0.27,
1.083,0.28,-0.02,0.97,2.47,-1.13,-0.27,
1.083,0.28,-0.02,0.97,2.61,-1.16,-0.01,
1.085,0.28,-0.01,0.98,2.61,-1.16,-0.01,
1.089,0.29,-0.01,0.99,2.61,-1.16,-0.01,
1.089,0.29,-0.01,0.99,2.80,-1.18,0.09,
1.091,0.29,-0.01,0.99,2.80,-1.18,0.09,
1.093,0.29,-0.01,0.99,2.80,-1.18,0.09,
1.094,0.29,-0.01,0.99,2.91,-1.13,0.27,
1.097,0.30,-0.01,1.00,2.91,-1.13,0.27,
1.098,0.30,-0.01,1.00,3.00,-1.11,0.32,
1.098,0.30,-0.01,0.99,3.00,-1.11,0.32,
1.1,0.31,-0.00,0.99,3.00,-1.11,0.32,
1.103,0.31,-0.00,0.98,3.00,-1.11,0.32,
1.104,0.31,-0.00,0.98,3.09,-1.08,0.33,
1.106,0.31,-0.00,0.98,3.09,-1.08,0.33,
1.108,0.30,0.00,0.97,3.09,-1.08,0.33,
1.109,0.30,0.00,0.97,3.14,-1.01,0.24,
1.11,0.30,0.00,0.97,3.14,-1.01,0.24,
1.114,0.30,0.00,0.95,3.14,-1.01,0.24,
1.115,0.30,0.00,0.95,3.13,-0.98,0.13,
1.115,0.30,0.00,0.94,3.13,-0.98,0.13,
1.118,0.30,-0.00,0.93,3.13,-0.98,0.13,
1.119,0.30,-0.00,0.93,3.12,-0.93,0.01,
1.12,0.30,-0.00,0.92,3.12,-0.93,0.01,
1.122,0.30,-0.00,0.92,3.09,-0.97,-0.23,
1.123,0.30,0.00,0.92,3.09,-0.97,-0.23,
1.124,0.30,0.00,0.90,3.09,-0.97,-0.23,
1.127,0.30,0.00,0.89,3.09,-0.97,-0.23,
1.128,0.30,0.00,0.89,3.08,-0.97,-0.41,
1.13,0.29,0.01,0.88,3.08,-0.97,-0.41,
1.132,0.29,0.01,0.87,3.08,-0.97,-0.41,
1.132,0.29,0.01,0.87,3.10,-0.95,-0.64,
1.134,0.28,0.01,0.86,3.10,-0.95,-0.64,
1.137,0.27,0.01,0.86,3.10,-0.95,-0.64,
1.138,0.27,0.01,0.86,3.04,-0.88,-0.82,
1.139,0.26,0.01,0.86,3.04,-0.88,-0.82,
1.142,0.25,0.01,0.85,3.04,-0.88,-0.82,
1.142,0.25,0.01,0.85,2.91,-0.90,-0.98,
1.144,0.25,0.00,0.85,2.91,-0.90,-0.98,
1.148,0.25,0.00,0.85,2.75,-0.91,-1.02,
1.148,0.24,-0.00,0.85,2.75,-0.91,-1.02,
1.149,0.23,0.00,0.86,2.75,-0.91,-1.02,
1.152,0.23,-0.00,0.86,2.75,-0.91,-1.02,
1.152,0.23,-0.00,0.86,2.62,-0.98,-1.03,
1.154,0.22,-0.00,0.87,2.62,-0.98,-1.03,
1.157,0.22,-0.01,0.88,2.62,-0.98,-1.03,
1.157,0.22,-0.01,0.88,2.49,-0.99,-0.96,
1.159,0.21,-0.01,0.89,2.49,-0.99,-0.96,
1.167,0.21,-0.01,0.90,2.49,-0.99,-0.96,
1.168,0.21,-0.01,0.90,2.43,-1.00,-0.82,
1.168,0.20,-0.01,0.91,2.43,-1.00,-0.82,
1.168,0.20,-0.01,0.92,2.43,-1.00,-0.82,
1.168,0.20,-0.01,0.92,2.35,-1.06,-0.58,
1.169,0.20,-0.00,0.93,2.35,-1.06,-0.58,
1.172,0.20,-0.00,0.93,2.29,-1.01,-0.41,
1.172,0.21,-0.00,0.95,2.29,-1.01,-0.41,
1.174,0.21,-0.00,0.96,2.29,-1.01,-0.41,
1.177,0.22,-0.00,0.97,2.29,-1.01,-0.41,
1.177,0.22,-0.00,0.97,2.36,-0.95,-0.16,
1.18,0.22,0.00,0.99,2.36,-0.95,-0.16,
1.182,0.23,-0.00,0.99,2.36,-0.95,-0.16,
1.183,0.23,-0.00,0.99,2.44,-0.91,0.06,
1.184,0.23,0.00,1.00,2.44,-0.91,0.06,
1.187,0.24,0.00,1.01,2.44,-0.91,0.06,
1.187,0.24,0.00,1.01,2.53,-0.85,0.32,
1.189,0.24,0.00,1.02,2.53,-0.85,0.32,
1.192,0.24,0.01,1.03,2.53,-0.85,0.32,
1.193,0.24,0.01,1.03,2.61,-0.80,0.46,
1.194,0.25,0.01,1.03,2.61,-0.80,0.46,
1.197,0.25,0.01,1.03,2.68,-0.75,0.63,
1.197,0.25,0.00,1.03,2.68,-0.75,0.63,
1.199,0.25,0.00,1.03,2.68,-0.75,0.63,
1.202,0.25,0.01,1.03,2.68,-0.75,0.63,
1.202,0.25,0.01,1.03,2.77,-0.72,0.68,
1.204,0.26,0.01,1.03,2.77,-0.72,0.68,
1.206,0.26,0.01,1.02,2.77,-0.72,0.68,
1.207,0.26,0.01,1.02,2.78,-0.69,0.70,
1.209,0.26,0.00,1.01,2.78,-0.69,0.70,
1.211,0.26,0.01,1.01,2.78,-0.69,0.70,
1.211,0.26,0.01,1.01,2.80,-0.63,0.63,
1.215,0.25,0.01,0.99,2.80,-0.63,0.63,
1.217,0.25,0.01,0.99,2.80,-0.63,0.63,
1.217,0.25,0.01,0.99,2.79,-0.61,0.47,
1.219,0.24,0.01,0.98,2.79,-0.61,0.47,
1.221,0.24,0.01,0.98,2.72,-0.53,0.30,
1.222,0.23,0.01,0.98,2.72,-0.53,0.30,
1.224,0.23,0.01,0.98,2.72,-0.53,0.30,
1.226,0.22,0.02,0.98,2.72,-0.53,0.30,
1.226,0.22,0.02,0.98,2.58,-0.48,0.19,
1.228,0.20,0.02,0.98,2.58,-0.48,0.19,
1.232,0.20,0.02,0.98,2.58,-0.48,0.19,
1.232,0.20,0.02,0.98,2.42,-0.44,0.16,
1.233,0.19,0.02,0.98,2.42,-0.44,0.16,
1.236,0.18,0.02,0.99,2.42,-0.44,0.16,
1.236,0.18,0.02,0.99,2.20,-0.40,0.16,
1.238,0.17,0.02,0.99,2.20,-0.40,0.16,
1.242,0.16,0.02,0.99,2.20,-0.40,0.16,
1.242,0.16,0.02,0.99,2.01,-0.35,0.23,
1.243,0.15,0.02,0.99,2.01,-0.35,0.23,
1.247,0.14,0.02,0.99,2.01,-0.35,0.23,
1.248,0.14,0.02,0.99,1.82,-0.32,0.27,
1.248,0.14,0.02,1.00,1.82,-0.32,0.27,
1.251,0.14,0.02,1.01,1.82,-0.32,0.27,
1.251,0.14,0.02,1.01,1.64,-0.27,0.31,
1.253,0.13,0.02,1.02,1.64,-0.27,0.31,
1.256,0.13,0.02,1.02,1.52,-0.26,0.43,
1.256,0.13,0.02,1.03,1.52,-0.26,0.43,
1.258,0.12,0.02,1.04,1.52,-0.26,0.43,
1.261,0.12,0.01,1.05,1.52,-0.26,0.43,
1.261,0.12,0.01,1.05,1.45,-0.23,0.61,
1.264,0.12,0.01,1.06,1.45,-0.23,0.61,
1.266,0.13,0.02,1.07,1.45,-0.23,0.61,
1.266,0.13,0.02,1.07,1.34,-0.27,0.83,
1.268,0.14,0.02,1.09,1.34,-0.27,0.83,
1.271,0.15,0.03,1.10,1.34,-0.27,0.83,
1.272,0.15,0.03,1.10,1.37,-0.23,1.00,
1.273,0.15,0.03,1.11,1.37,-0.23,1.00,
1.276,0.16,0.03,1.12,1.37,-0.23,1.00,
1.276,0.16,0.03,1.12,1.53,-0.09,1.26,
1.278,0.17,0.03,1.14,1.53,-0.09,1.26,
1.282,0.18,0.03,1.15,1.53,-0.09,1.26,
1.282,0.18,0.03,1.15,1.61,-0.03,1.50,
1.283,0.18,0.03,1.16,1.61,-0.03,1.50,
1.286,0.19,0.03,1.16,1.61,-0.03,1.50,
1.286,0.19,0.03,1.16,1.80,-0.03,1.75,
1.288,0.19,0.03,1.17,1.80,-0.03,1.75,
1.291,0.20,0.02,1.17,1.80,-0.03,1.75,
1.291,0.20,0.02,1.17,1.90,-0.01,1.93,
1.293,0.20,0.02,1.17,1.90,-0.01,1.93,
1.296,0.20,0.02,1.17,2.01,-0.06,1.98,
1.296,0.21,0.01,1.16,2.01,-0.06,1.98,
1.302,0.21,0.00,1.16,2.01,-0.06,1.98,
1.302,0.22,-0.01,1.16,2.01,-0.06,1.98,
1.302,0.22,-0.01,1.16,2.09,-0.12,1.96,
1.303,0.22,-0.02,1.15,2.09,-0.12,1.96,
1.305,0.23,-0.02,1.14,2.09,-0.12,1.96,
1.306,0.23,-0.02,1.14,2.18,-0.31,1.88,
1.308,0.23,-0.03,1.13,2.18,-0.31,1.88,
1.31,0.23,-0.04,1.12,2.18,-0.31,1.88,
1.311,0.23,-0.04,1.12,2.30,-0.44,1.75,
1.314,0.23,-0.05,1.11,2.30,-0.44,1.75,
1.315,0.23,-0.05,1.10,2.30,-0.44,1.75,
1.318,0.23,-0.05,1.10,2.36,-0.60,1.54,
1.318,0.24,-0.05,1.09,2.36,-0.60,1.54,
1.321,0.24,-0.05,1.09,2.37,-0.71,1.33,
1.321,0.25,-0.05,1.08,2.37,-0.71,1.33,
1.323,0.25,-0.05,1.07,2.37,-0.71,1.33,
1.325,0.25,-0.06,1.06,2.37,-0.71,1.33,
1.326,0.25,-0.06,1.06,2.47,-0.74,1.12,
1.328,0.25,-0.06,1.05,2.47,-0.74,1.12,
1.332,0.25,-0.06,1.04,2.47,-0.74,1.12,
1.333,0.25,-0.06,1.04,2.53,-0.76,0.96,
1.333,0.26,-0.06,1.04,2.53,-0.76,0.96,
1.336,0.26,-0.06,1.02,2.53,-0.76,0.96,
1.336,0.26,-0.06,1.02,2.55,-0.81,0.77,
1.338,0.26,-0.05,1.01,2.55,-0.81,0.77,
1.341,0.26,-0.06,1.01,2.55,-0.81,0.77,
1.341,0.26,-0.06,1.01,2.58,-0.80,0.61,
1.343,0.26,-0.05,1.00,2.58,-0.80,0.61,
1.345,0.26,-0.05,1.00,2.58,-0.78,0.39,
1.346,0.26,-0.06,0.99,2.58,-0.78,0.39,
1.348,0.26,-0.06,0.99,2.58,-0.78,0.39,
1.351,0.26,-0.06,0.98,2.58,-0.78,0.39,
1.351,0.26,-0.06,0.98,2.62,-0.77,0.27,
1.353,0.26,-0.06,0.99,2.62,-0.77,0.27,
1.355,0.26,-0.06,0.98,2.62,-0.77,0.27,
1.356,0.26,-0.06,0.98,2.57,-0.79,0.17,
1.357,0.26,-0.06,0.99,2.57,-0.79,0.17,
1.361,0.25,-0.05,0.98,2.57,-0.79,0.17,
1.361,0.25,-0.05,0.98,2.57,-0.80,0.17,
1.362,0.25,-0.06,0.98,2.57,-0.80,0.17,
1.365,0.24,-0.05,0.98,2.57,-0.80,0.17,
1.365,0.24,-0.05,0.98,2.54,-0.77,0.14,
1.368,0.24,-0.05,0.98,2.54,-0.77,0.14,
1.37,0.24,-0.05,0.98,2.43,-0.76,0.12,
1.37,0.23,-0.05,0.99,2.43,-0.76,0.12,
1.373,0.23,-0.04,0.99,2.43,-0.76,0.12,
1.375,0.22,-0.04,1.00,2.43,-0.76,0.12,
1.376,0.22,-0.04,1.00,2.33,-0.72,0.17,
1.378,0.22,-0.04,1.00,2.33,-0.72,0.17,
1.383,0.22,-0.03,1.01,2.33,-0.72,0.17,
1.383,0.22,-0.03,1.01,2.22,-0.60,0.28,
1.383,0.21,-0.03,1.02,2.22,-0.60,0.28,
1.385,0.21,-0.03,1.03,2.22,-0.60,0.28,
1.385,0.21,-0.03,1.03,2.18,-0.55,0.37,
1.387,0.21,-0.03,1.04,2.18,-0.55,0.37,
1.39,0.20,-0.03,1.04,2.18,-0.55,0.37,
1.39,0.20,-0.03,1.04,2.11,-0.48,0.53,
1.393,0.20,-0.03,1.05,2.11,-0.48,0.53,
1.396,0.20,-0.03,1.05,2.01,-0.43,0.68,
1.396,0.20,-0.03,1.04,2.01,-0.43,0.68,
1.398,0.19,-0.03,1.05,2.01,-0.43,0.68,
1.4,0.19,-0.03,1.06,2.01,-0.43,0.68,
1.4,0.19,-0.03,1.06,1.94,-0.40,0.73,
1.402,0.18,-0.03,1.07,1.94,-0.40,0.73,
1.405,0.18,-0.03,1.07,1.94,-0.40,0.73,
1.405,0.18,-0.03,1.07,1.85,-0.35,0.84,
1.407,0.17,-0.04,1.08,1.85,-0.35,0.84,
1.41,0.17,-0.04,1.09,1.85,-0.35,0.84,
1.41,0.17,-0.04,1.09,1.75,-0.39,0.99,
1.413,0.17,-0.04,1.09,1.75,-0.39,0.99,
1.415,0.16,-0.04,1.10,1.75,-0.39,0.99,
1.416,0.16,-0.04,1.10,1.65,-0.41,1.15,
1.417,0.16,-0.04,1.11,1.65,-0.41,1.15,
1.42,0.16,-0.04,1.11,1.56,-0.39,1.24,
1.42,0.16,-0.05,1.11,1.56,-0.39,1.24,
1.422,0.15,-0.05,1.11,1.56,-0.39,1.24,
1.425,0.14,-0.05,1.12,1.56,-0.39,1.24,
1.425,0.14,-0.05,1.12,1.52,-0.44,1.35,
1.427,0.14,-0.06,1.12,1.52,-0.44,1.35,
1.43,0.13,-0.06,1.11,1.52,-0.44,1.35,
1.43,0.13,-0.06,1.11,1.39,-0.45,1.40,
1.432,0.12,-0.07,1.11,1.39,-0.45,1.40,
1.435,0.12,-0.07,1.11,1.39,-0.45,1.40,
1.435,0.12,-0.07,1.11,1.24,-0.51,1.39,
1.437,0.11,-0.07,1.11,1.24,-0.51,1.39,
1.44,0.10,-0.08,1.10,1.24,-0.51,1.39,
1.44,0.10,-0.08,1.10,1.08,-0.56,1.39,
1.442,0.09,-0.08,1.09,1.08,-0.56,1.39,
1.447,0.09,-0.08,1.09,0.92,-0.60,1.29,
1.447,0.09,-0.08,1.09,0.92,-0.60,1.29,
1.447,0.08,-0.08,1.07,0.92,-0.60,1.29,
1.449,0.07,-0.07,1.06,0.92,-0.60,1.29,
1.45,0.07,-0.07,1.06,0.75,-0.59,1.16,
1.452,0.07,-0.08,1.06,0.75,-0.59,1.16,
1.455,0.07,-0.07,1.05,0.75,-0.59,1.16,
1.455,0.07,-0.07,1.05,0.65,-0.57,0.95,
1.457,0.07,-0.07,1.04,0.65,-0.57,0.95,
1.46,0.08,-0.06,1.03,0.65,-0.57,0.95,
1.46,0.08,-0.06,1.03,0.55,-0.55,0.77,
1.462,0.08,-0.06,1.02,0.55,-0.55,0.77,
1.464,0.08,-0.06,1.01,0.55,-0.55,0.77,
1.464,0.08,-0.06,1.01,0.58,-0.45,0.58,
1.467,0.09,-0.05,1.00,0.58,-0.45,0.58,
1.469,0.09,-0.05,1.00,0.62,-0.37,0.43,
1.47,0.08,-0.05,1.00,0.62,-0.37,0.43,
1.472,0.09,-0.05,0.99,0.62,-0.37,0.43,
1.475,0.09,-0.05,0.98,0.62,-0.37,0.43,
1.475,0.09,-0.05,0.98,0.65,-0.30,0.27,
1.477,0.09,-0.05,0.98,0.65,-0.30,0.27,
1.48,0.09,-0.05,0.99,0.65,-0.30,0.27,
1.48,0.09,-0.05,0.99,0.70,-0.25,0.13,
1.483,0.10,-0.04,0.99,0.70,-0.25,0.13,
1.488,0.10,-0.04,0.99,0.70,-0.25,0.08,
1.489,0.10,-0.05,0.99,0.70,-0.25,0.08,
1.489,0.11,-0.05,1.01,0.70,-0.25,0.08,
1.489,0.11,-0.05,1.01,0.70,-0.25,0.08,
1.489,0.11,-0.05,1.01,0.75,-0.23,0.15,
1.493,0.12,-0.05,1.02,0.75,-0.23,0.15,
1.494,0.12,-0.05,1.02,0.83,-0.28,0.36,
1.494,0.12,-0.06,1.03,0.83,-0.28,0.36,
1.496,0.12,-0.06,1.03,0.83,-0.28,0.36,
1.502,0.13,-0.07,1.04,0.83,-0.28,0.36,
1.503,0.13,-0.07,1.04,0.93,-0.28,0.48,
1.503,0.13,-0.07,1.05,0.93,-0.28,0.48,
1.504,0.13,-0.07,1.07,0.93,-0.28,0.48,
1.505,0.13,-0.07,1.07,1.02,-0.37,0.60,
1.506,0.14,-0.07,1.07,1.02,-0.37,0.60,
1.508,0.15,-0.07,1.07,1.02,-0.37,0.60,
1.51,0.15,-0.07,1.07,1.06,-0.41,0.84,
1.511,0.15,-0.08,1.08,1.06,-0.41,0.84,
1.513,0.16,-0.08,1.08,1.06,-0.41,0.84,
1.514,0.16,-0.08,1.08,1.16,-0.39,0.94,
1.516,0.16,-0.08,1.08,1.16,-0.39,0.94,
1.52,0.16,-0.08,1.08,1.27,-0.42,1.07,
1.52,0.16,-0.08,1.08,1.27,-0.42,1.07,
1.521,0.17,-0.08,1.09,1.27,-0.42,1.07,
1.523,0.17,-0.08,1.08,1.27,-0.42,1.07,
1.524,0.17,-0.08,1.08,1.34,-0.46,1.06,
1.525,0.17,-0.08,1.08,1.34,-0.46,1.06,
1.528,0.17,-0.08,1.08,1.34,-0.46,1.06,
1.529,0.17,-0.08,1.08,1.40,-0.41,1.07,
1.534,0.17,-0.08,1.07,1.40,-0.41,1.07,
1.535,0.16,-0.08,1.07,1.40,-0.41,1.07,
1.535,0.16,-0.08,1.07,1.38,-0.41,1.02,
1.535,0.16,-0.08,1.07,1.38,-0.41,1.02,
1.54,0.16,-0.09,1.06,1.38,-0.41,1.02,
1.54,0.16,-0.09,1.06,1.35,-0.41,0.91,
1.54,0.15,-0.09,1.06,1.35,-0.41,0.91,
1.543,0.15,-0.09,1.06,1.32,-0.46,0.87,
1.543,0.15,-0.09,1.05,1.32,-0.46,0.87,
1.545,0.15,-0.09,1.05,1.32,-0.46,0.87,
1.551,0.14,-0.09,1.05,1.32,-0.46,0.87,
1.551,0.14,-0.09,1.05,1.23,-0.46,0.79,
1.552,0.13,-0.09,1.04,1.23,-0.46,0.79,
1.557,0.13,-0.09,1.04,1.23,-0.46,0.79,
1.558,0.13,-0.09,1.04,1.13,-0.46,0.72,
1.559,0.12,-0.09,1.04,1.13,-0.46,0.72,
1.559,0.12,-0.09,1.03,1.13,-0.46,0.72,
1.56,0.12,-0.09,1.03,1.04,-0.47,0.61,
1.561,0.11,-0.09,1.03,1.04,-0.47,0.61,
1.563,0.10,-0.09,1.02,1.04,-0.47,0.61,
1.563,0.10,-0.09,1.02,0.93,-0.47,0.57,
1.565,0.09,-0.10,1.02,0.93,-0.47,0.57,
1.569,0.09,-0.10,1.02,0.78,-0.51,0.46,
1.57,0.09,-0.11,1.02,0.78,-0.51,0.46,
1.57,0.07,-0.11,1.01,0.78,-0.51,0.46,
1.574,0.07,-0.11,1.01,0.78,-0.51,0.46,
1.574,0.07,-0.11,1.01,0.59,-0.62,0.43,
1.576,0.07,-0.11,1.01,0.59,-0.62,0.43,
1.578,0.06,-0.12,1.01,0.59,-0.62,0.43,
1.579,0.06,-0.12,1.01,0.44,-0.67,0.37,
1.581,0.06,-0.11,1.01,0.44,-0.67,0.37,
1.583,0.06,-0.12,1.02,0.44,-0.67,0.37,
1.583,0.06,-0.12,1.02,0.36,-0.72,0.36,
1.585,0.05,-0.11,1.03,0.36,-0.72,0.36,
1.588,0.05,-0.11,1.03,0.36,-0.72,0.36,
1.589,0.05,-0.11,1.03,0.28,-0.70,0.41,
1.591,0.05,-0.11,1.03,0.28,-0.70,0.41,
1.593,0.04,-0.11,1.03,0.28,-0.70,0.41,
1.594,0.04,-0.11,1.03,0.23,-0.69,0.51,
1.596,0.05,-0.11,1.04,0.23,-0.69,0.51,
1.598,0.05,-0.11,1.04,0.23,-0.69,0.51,
1.598,0.05,-0.11,1.04,0.17,-0.67,0.53,
1.604,0.05,-0.11,1.04,0.17,-0.67,0.53,
1.604,0.05,-0.10,1.04,0.17,-0.67,0.53,
1.604,0.05,-0.10,1.04,0.18,-0.63,0.61,
1.605,0.05,-0.10,1.04,0.18,-0.63,0.61,
1.608,0.05,-0.10,1.04,0.16,-0.59,0.65,
1.608,0.05,-0.10,1.05,0.16,-0.59,0.65,
1.61,0.06,-0.10,1.04,0.16,-0.59,0.65,
1.614,0.06,-0.10,1.04,0.16,-0.59,0.65,
1.614,0.06,-0.10,1.04,0.20,-0.53,0.68,
1.616,0.07,-0.10,1.03,0.20,-0.53,0.68,
1.618,0.07,-0.10,1.03,0.25,-0.50,0.61,
1.618,0.08,-0.10,1.02,0.25,-0.50,0.61,
1.62,0.09,-0.10,1.02,0.25,-0.50,0.61,
1.623,0.09,-0.10,1.01,0.25,-0.50,0.61,
1.624,0.09,-0.10,1.01,0.36,-0.50,0.50,
1.625,0.09,-0.09,1.01,0.36,-0.50,0.50,
1.628,0.10,-0.09,1.00,0.36,-0.50,0.50,
1.629,0.10,-0.09,1.00,0.48,-0.45,0.40,
1.63,0.11,-0.09,1.00,0.48,-0.45,0.40,
1.633,0.12,-0.09,0.99,0.48,-0.45,0.40,
1.634,0.12,-0.09,0.99,0.53,-0.42,0.32,
1.635,0.12,-0.09,0.98,0.53,-0.42,0.32,
1.637,0.12,-0.09,0.98,0.68,-0.39,0.20,
1.638,0.12,-0.09,0.98,0.68,-0.39,0.20,
1.64,0.12,-0.09,0.97,0.68,-0.39,0.20,
1.643,0.12,-0.09,0.97,0.70,-0.35,0.05,
1.643,0.12,-0.09,0.97,0.70,-0.35,0.05,
1.645,0.11,-0.10,0.96,0.70,-0.35,0.05,
1.647,0.11,-0.10,0.96,0.70,-0.35,0.05,
1.647,0.11,-0.10,0.96,0.67,-0.40,-0.03,
1.65,0.10,-0.11,0.95,0.67,-0.40,-0.03,
1.653,0.10,-0.11,0.95,0.58,-0.49,-0.15,
1.654,0.09,-0.11,0.95,0.58,-0.49,-0.15,
1.654,0.08,-0.12,0.95,0.58,-0.49,-0.15,
1.657,0.07,-0.13,0.95,0.58,-0.49,-0.15,
1.658,0.07,-0.13,0.95,0.45,-0.59,-0.24,
1.659,0.07,-0.13,0.96,0.45,-0.59,-0.24,
1.662,0.06,-0.14,0.96,0.45,-0.59,-0.24,
1.662,0.06,-0.14,0.96,0.25,-0.74,-0.25,
1.666,0.05,-0.14,0.98,0.25,-0.74,-0.25,
1.668,0.04,-0.13,0.99,0.25,-0.74,-0.25,
1.669,0.04,-0.13,0.99,0.11,-0.82,-0.13,
1.67,0.02,-0.13,1.01,0.11,-0.82,-0.13,
1.672,0.01,-0.13,1.02,0.11,-0.82,-0.13,
1.673,0.01,-0.13,1.02,-0.08,-0.81,0.09,
1.675,0.00,-0.13,1.03,-0.08,-0.81,0.09,
1.677,-0.01,-0.12,1.05,-0.08,-0.81,0.09,
1.678,-0.01,-0.12,1.05,-0.31,-0.75,0.38,
1.68,-0.02,-0.12,1.06,-0.31,-0.75,0.38,
1.683,-0.04,-0.11,1.07,-0.31,-0.75,0.38,
1.683,-0.04,-0.11,1.07,-0.51,-0.69,0.66,
1.684,-0.04,-0.11,1.09,-0.51,-0.69,0.66,
1.687,-0.05,-0.10,1.09,-0.51,-0.69,0.66,
1.687,-0.05,-0.10,1.09,-0.74,-0.60,0.90,
1.69,-0.05,-0.09,1.10,-0.74,-0.60,0.90,
1.692,-0.05,-0.09,1.10,-0.89,-0.51,1.11,
1.693,-0.06,-0.10,1.11,-0.89,-0.51,1.11,
1.695,-0.06,-0.10,1.12,-0.89,-0.51,1.11,
1.697,-0.07,-0.11,1.13,-0.89,-0.51,1.11,
1.698,-0.07,-0.11,1.13,-0.99,-0.42,1.23,
1.7,-0.07,-0.11,1.13,-0.99,-0.42,1.23,
1.702,-0.07,-0.11,1.13,-0.99,-0.42,1.23,
1.702,-0.07,-0.11,1.13,-1.06,-0.50,1.42,
1.705,-0.07,-0.11,1.13,-1.06,-0.50,1.42,
1.707,-0.07,-0.11,1.13,-1.13,-0.55,1.50,
1.708,-0.06,-0.12,1.13,-1.13,-0.55,1.50,
1.709,-0.06,-0.12,1.13,-1.13,-0.55,1.50,
1.712,-0.06,-0.12,1.13,-1.13,-0.55,1.50,
1.712,-0.06,-0.12,1.13,-1.09,-0.57,1.51,
1.714,-0.05,-0.12,1.12,-1.09,-0.57,1.51,
1.72,-0.05,-0.12,1.12,-1.04,-0.64,1.49,
1.721,-0.04,-0.12,1.12,-1.04,-0.64,1.49,
1.721,-0.04,-0.12,1.12,-1.04,-0.64,1.49,
1.724,-0.03,-0.12,1.11,-1.04,-0.64,1.49,
1.724,-0.03,-0.12,1.11,-0.95,-0.62,1.42,
1.724,-0.02,-0.11,1.11,-0.95,-0.62,1.42,
1.727,-0.01,-0.11,1.10,-0.95,-0.62,1.42,
1.727,-0.01,-0.11,1.10,-0.80,-0.61,1.34,
1.729,-0.01,-0.11,1.10,-0.80,-0.61,1.34,
1.732,-0.00,-0.11,1.08,-0.80,-0.61,1.34,
1.732,-0.00,-0.11,1.08,-0.65,-0.53,1.24,
1.734,0.01,-0.11,1.08,-0.65,-0.53,1.24,
1.736,0.01,-0.10,1.08,-0.65,-0.53,1.24,
1.737,0.01,-0.10,1.08,-0.57,-0.48,1.10,
1.739,0.01,-0.10,1.06,-0.57,-0.48,1.10,
1.742,0.01,-0.10,1.06,-0.46,-0.44,0.97,
1.742,0.02,-0.10,1.05,-0.46,-0.44,0.97,
1.745,0.01,-0.10,1.04,-0.46,-0.44,0.97,
1.748,0.01,-0.10,1.04,-0.46,-0.44,0.97,
1.748,0.01,-0.10,1.04,-0.44,-0.41,0.76,
1.75,0.01,-0.11,1.03,-0.44,-0.41,0.76,
1.752,0.01,-0.10,1.02,-0.44,-0.41,0.76,
1.752,0.01,-0.10,1.02,-0.45,-0.42,0.61,
1.754,0.01,-0.11,1.01,-0.45,-0.42,0.61,
1.756,-0.00,-0.11,1.01,-0.45,-0.42,0.61,
1.757,-0.00,-0.11,1.01,-0.52,-0.44,0.44,
1.759,-0.00,-0.10,1.01,-0.52,-0.44,0.44,
1.762,-0.01,-0.11,1.01,-0.52,-0.44,0.44,
1.762,-0.01,-0.11,1.01,-0.58,-0.52,0.34,
1.764,-0.01,-0.11,1.01,-0.58,-0.52,0.34,
1.767,-0.01,-0.10,1.00,-0.58,-0.52,0.34,
1.767,-0.01,-0.10,1.00,-0.68,-0.47,0.32,
1.769,-0.01,-0.10,1.00,-0.68,-0.47,0.32,
1.771,-0.01,-0.10,0.99,-0.68,-0.47,0.32,
1.771,-0.01,-0.10,0.99,-0.71,-0.49,0.26,
1.774,-0.02,-0.09,1.00,-0.71,-0.49,0.26,
1.777,-0.03,-0.09,1.00,-0.71,-0.49,0.26,
1.777,-0.03,-0.09,1.00,-0.75,-0.40,0.18,
1.779,-0.03,-0.10,1.00,-0.75,-0.40,0.18,
1.781,-0.04,-0.09,1.01,-0.75,-0.40,0.18,
1.781,-0.04,-0.09,1.01,-0.87,-0.35,0.20,
1.783,-0.04,-0.09,1.01,-0.87,-0.35,0.20,
1.786,-0.05,-0.09,1.02,-0.87,-0.35,0.20,
1.786,-0.05,-0.09,1.02,-0.99,-0.40,0.23,
1.788,-0.06,-0.09,1.03,-0.99,-0.40,0.23,
1.791,-0.06,-0.09,1.04,-0.99,-0.40,0.23,
1.791,-0.06,-0.09,1.04,-1.13,-0.38,0.38,
1.793,-0.07,-0.09,1.04,-1.13,-0.38,0.38,
1.795,-0.07,-0.10,1.06,-1.13,-0.38,0.38,
1.796,-0.07,-0.10,1.06,-1.27,-0.41,0.53,
1.798,-0.07,-0.10,1.06,-1.27,-0.41,0.53,
1.801,-0.08,-0.10,1.07,-1.27,-0.41,0.53,
1.801,-0.08,-0.10,1.07,-1.33,-0.42,0.70,
1.803,-0.08,-0.10,1.08,-1.33,-0.42,0.70,
1.806,-0.07,-0.10,1.08,-1.33,-0.42,0.70,
1.806,-0.07,-0.10,1.08,-1.40,-0.44,0.88,
1.808,-0.08,-0.10,1.09,-1.40,-0.44,0.88,
1.81,-0.07,-0.11,1.09,-1.40,-0.44,0.88,
1.813,-0.07,-0.11,1.09,-1.40,-0.46,0.99,
1.813,-0.07,-0.10,1.09,-1.40,-0.46,0.99,
1.821,-0.07,-0.10,1.09,-1.42,-0.53,1.10,
1.821,-0.07,-0.11,1.09,-1.42,-0.53,1.10,
1.822,-0.07,-0.12,1.09,-1.42,-0.53,1.10,
1.822,-0.06,-0.11,1.09,-1.42,-0.53,1.10,
1.822,-0.06,-0.11,1.09,-1.35,-0.55,1.08,
1.824,-0.05,-0.11,1.08,-1.35,-0.55,1.08,
1.825,-0.04,-0.11,1.07,-1.35,-0.55,1.08,
1.825,-0.04,-0.11,1.07,-1.28,-0.61,1.09,
1.827,-0.04,-0.11,1.06,-1.28,-0.61,1.09,
1.83,-0.03,-0.11,1.05,-1.28,-0.61,1.09,
1.831,-0.03,-0.11,1.05,-1.15,-0.59,0.92,
1.834,-0.03,-0.11,1.04,-1.15,-0.59,0.92,
1.835,-0.02,-0.11,1.03,-1.15,-0.59,0.92,
1.835,-0.02,-0.11,1.03,-1.02,-0.62,0.74,
1.837,-0.01,-0.11,1.01,-1.02,-0.62,0.74,
1.84,-0.01,-0.11,1.01,-0.91,-0.59,0.53,
1.84,-0.00,-0.10,1.01,-0.91,-0.59,0.53,
1.842,0.01,-0.10,1.00,-0.91,-0.59,0.53,
1.846,0.01,-0.10,0.98,-0.91,-0.59,0.53,
1.846,0.01,-0.10,0.98,-0.77,-0.57,0.29,
1.847,0.02,-0.10,0.97,-0.77,-0.57,0.29,
1.851,0.02,-0.10,0.96,-0.77,-0.57,0.29,
1.852,0.02,-0.10,0.96,-0.61,-0.51,0.10,
1.853,0.03,-0.09,0.95,-0.61,-0.51,0.10,
1.855,0.03,-0.09,0.94,-0.61,-0.51,0.10,
1.855,0.03,-0.09,0.94,-0.52,-0.49,-0.14,
1.857,0.04,-0.09,0.92,-0.52,-0.49,-0.14,
1.86,0.04,-0.09,0.92,-0.42,-0.47,-0.35,
1.86,0.04,-0.09,0.91,-0.42,-0.47,-0.35,
1.862,0.05,-0.09,0.90,-0.42,-0.47,-0.35,
1.865,0.05,-0.09,0.90,-0.34,-0.44,-0.64,
1.865,0.04,-0.09,0.90,-0.34,-0.44,-0.64,
1.867,0.04,-0.09,0.89,-0.34,-0.44,-0.64,
1.87,0.05,-0.09,0.88,-0.34,-0.44,-0.64,
1.87,0.05,-0.09,0.88,-0.34,-0.47,-0.78,
1.872,0.04,-0.09,0.88,-0.34,-0.47,-0.78,
1.875,0.04,-0.09,0.88,-0.34,-0.47,-0.78,
1.875,0.04,-0.09,0.88,-0.35,-0.48,-0.89,
1.877,0.04,-0.09,0.88,-0.35,-0.48,-0.89,
1.88,0.03,-0.09,0.88,-0.35,-0.48,-0.89,
1.88,0.03,-0.09,0.88,-0.41,-0.51,-0.98,
1.884,0.03,-0.09,0.88,-0.41,-0.51,-0.98,
1.885,0.03,-0.09,0.89,-0.41,-0.51,-0.98,
1.886,0.03,-0.09,0.89,-0.50,-0.54,-0.95,
1.887,0.02,-0.08,0.89,-0.50,-0.54,-0.95,
1.89,0.02,-0.08,0.89,-0.57,-0.49,-0.91,
1.89,0.01,-0.07,0.90,-0.57,-0.49,-0.91,
1.892,0.01,-0.07,0.91,-0.57,-0.49,-0.91,
1.895,-0.00,-0.06,0.92,-0.57,-0.49,-0.91,
1.895,-0.00,-0.06,0.92,-0.67,-0.40,-0.81,
1.897,-0.01,-0.06,0.93,-0.67,-0.40,-0.81,
1.901,-0.03,-0.06,0.93,-0.67,-0.40,-0.81,
1.902,-0.03,-0.06,0.93,-0.80,-0.32,-0.64,
1.903,-0.04,-0.05,0.95,-0.80,-0.32,-0.64,
1.904,-0.05,-0.05,0.96,-0.80,-0.32,-0.64,
1.905,-0.05,-0.05,0.96,-0.99,-0.25,-0.47,
1.907,-0.07,-0.05,0.97,-0.99,-0.25,-0.47,
1.91,-0.08,-0.05,0.98,-0.99,-0.25,-0.47,
1.91,-0.08,-0.05,0.98,-1.25,-0.18,-0.25,
1.912,-0.08,-0.04,0.99,-1.25,-0.18,-0.25,
1.914,-0.09,-0.04,0.99,-1.25,-0.18,-0.25,
1.915,-0.09,-0.04,0.99,-1.48,-0.14,-0.05,
1.918,-0.11,-0.04,1.00,-1.48,-0.14,-0.05,
1.919,-0.11,-0.04,1.01,-1.48,-0.14,-0.05,
1.92,-0.11,-0.04,1.01,-1.62,-0.10,0.08,
1.921,-0.11,-0.04,1.01,-1.62,-0.10,0.08,
1.924,-0.12,-0.04,1.02,-1.62,-0.10,0.08,
1.924,-0.12,-0.04,1.02,-1.76,-0.10,0.23,
1.926,-0.12,-0.04,1.02,-1.76,-0.10,0.23,
1.93,-0.12,-0.04,1.01,-1.76,-0.10,0.23,
1.93,-0.12,-0.04,1.01,-1.84,-0.11,0.37,
1.931,-0.12,-0.04,1.01,-1.84,-0.11,0.37,
1.938,-0.12,-0.04,1.01,-1.84,-0.11,0.37,
1.938,-0.12,-0.04,1.01,-1.89,-0.12,0.35,
1.938,-0.11,-0.04,1.00,-1.89,-0.12,0.35,
1.939,-0.11,-0.04,1.00,-1.84,-0.12,0.32,
1.939,-0.10,-0.04,1.00,-1.84,-0.12,0.32,
1.942,-0.10,-0.03,0.99,-1.84,-0.12,0.32,
1.944,-0.09,-0.04,0.98,-1.84,-0.12,0.32,
1.944,-0.09,-0.04,0.98,-1.71,-0.14,0.19,
1.946,-0.08,-0.04,0.97,-1.71,-0.14,0.19,
1.949,-0.08,-0.04,0.97,-1.61,-0.13,0.04,
1.949,-0.08,-0.04,0.96,-1.61,-0.13,0.04,
1.952,-0.08,-0.04,0.96,-1.61,-0.13,0.04,
1.954,-0.07,-0.04,0.95,-1.61,-0.13,0.04,
1.954,-0.07,-0.04,0.95,-1.45,-0.17,-0.13,
1.956,-0.06,-0.04,0.94,-1.45,-0.17,-0.13,
1.959,-0.06,-0.04,0.93,-1.45,-0.17,-0.13,
1.959,-0.06,-0.04,0.93,-1.36,-0.20,-0.26,
1.961,-0.05,-0.05,0.92,-1.36,-0.20,-0.26,
1.964,-0.05,-0.05,0.92,-1.22,-0.22,-0.42,
1.964,-0.05,-0.05,0.91,-1.22,-0.22,-0.42,
1.969,-0.04,-0.05,0.91,-1.22,-0.22,-0.42,
1.969,-0.04,-0.04,0.91,-1.22,-0.22,-0.42,
1.969,-0.04,-0.04,0.91,-1.14,-0.33,-0.61,
1.971,-0.03,-0.05,0.91,-1.14,-0.33,-0.61,
1.974,-0.03,-0.04,0.91,-1.14,-0.33,-0.61,
1.974,-0.03,-0.04,0.91,-1.05,-0.32,-0.68,
1.977,-0.03,-0.04,0.92,-1.05,-0.32,-0.68,
1.979,-0.04,-0.04,0.93,-1.05,-0.32,-0.68,
1.979,-0.04,-0.04,0.93,-0.93,-0.33,-0.68,
1.981,-0.04,-0.04,0.92,-0.93,-0.33,-0.68,
1.984,-0.04,-0.04,0.93,-0.93,-0.33,-0.68,
1.985,-0.04,-0.04,0.93,-0.97,-0.31,-0.58,
1.986,-0.05,-0.04,0.94,-0.97,-0.31,-0.58,
1.989,-0.05,-0.04,0.94,-1.02,-0.31,-0.53,
1.989,-0.06,-0.04,0.95,-1.02,-0.31,-0.53,
1.991,-0.07,-0.04,0.96,-1.02,-0.31,-0.53,
1.995,-0.08,-0.04,0.96,-1.02,-0.31,-0.53,
1.995,-0.08,-0.04,0.96,-1.12,-0.32,-0.37,
1.997,-0.09,-0.04,0.98,-1.12,-0.32,-0.37,
1.999,-0.10,-0.04,0.99,-1.12,-0.32,-0.37,
2.0,-0.10,-0.04,0.99,-1.29,-0.32,-0.21,
2.002,-0.11,-0.04,1.00,-1.29,-0.32,-0.21,
2.004,-0.12,-0.04,1.01,-1.29,-0.32,-0.21,
2.004,-0.12,-0.04,1.01,-1.43,-0.38,0.02,
2.008,-0.13,-0.04,1.02,-1.43,-0.38,0.02,
2.009,-0.14,-0.04,1.03,-1.43,-0.38,0.02,
2.009,-0.14,-0.04,1.03,-1.65,-0.37,0.25,
2.011,-0.15,-0.04,1.03,-1.65,-0.37,0.25,
2.014,-0.15,-0.04,1.03,-1.81,-0.39,0.44,
2.014,-0.16,-0.04,1.04,-1.81,-0.39,0.44,
2.016,-0.16,-0.04,1.05,-1.81,-0.39,0.44,
2.019,-0.17,-0.04,1.05,-1.81,-0.39,0.44,
2.019,-0.17,-0.04,1.05,-1.93,-0.38,0.56,
2.021,-0.18,-0.03,1.04,-1.93,-0.38,0.56,
2.024,-0.18,-0.03,1.04,-1.93,-0.38,0.56,
2.024,-0.18,-0.03,1.04,-2.05,-0.39,0.63,
2.026,-0.18,-0.03,1.04,-2.05,-0.39,0.63,
2.029,-0.18,-0.03,1.03,-2.05,-0.39,0.63,
2.029,-0.18,-0.03,1.03,-2.10,-0.33,0.61,
2.031,-0.17,-0.03,1.03,-2.10,-0.33,0.61,
2.037,-0.17,-0.02,1.03,-2.10,-0.33,0.61,
2.037,-0.17,-0.02,1.03,-2.07,-0.31,0.56,
2.037,-0.16,-0.01,1.02,-2.07,-0.31,0.56,
2.039,-0.15,-0.01,1.01,-2.07,-0.31,0.56,
2.039,-0.15,-0.01,1.01,-2.01,-0.26,0.47,
2.041,-0.14,-0.00,1.00,-2.01,-0.26,0.47,
2.044,-0.13,0.00,0.99,-2.01,-0.26,0.47,
2.044,-0.13,0.00,0.99,-1.84,-0.17,0.29,
2.046,-0.13,0.00,0.97,-1.84,-0.17,0.29,
2.049,-0.12,0.01,0.96,-1.84,-0.17,0.29,
2.049,-0.12,0.01,0.96,-1.64,-0.08,0.15,
2.05,-0.12,0.01,0.95,-1.64,-0.08,0.15,
2.053,-0.11,0.01,0.95,-1.64,-0.08,0.15,
2.054,-0.11,0.01,0.95,-1.51,-0.03,-0.14,
2.055,-0.11,0.02,0.94,-1.51,-0.03,-0.14,
2.059,-0.11,0.02,0.93,-1.51,-0.03,-0.14,
2.059,-0.11,0.02,0.93,-1.40,0.01,-0.32,
2.061,-0.12,0.02,0.93,-1.40,0.01,-0.32,
2.064,-0.12,0.02,0.93,-1.36,0.08,-0.47,
2.064,-0.11,0.02,0.92,-1.36,0.08,-0.47,
2.066,-0.11,0.02,0.91,-1.36,0.08,-0.47,
2.069,-0.12,0.02,0.91,-1.36,0.08,-0.47,
2.069,-0.12,0.02,0.91,-1.35,0.04,-0.59,
2.07,-0.13,0.02,0.90,-1.35,0.04,-0.59,
2.073,-0.14,0.01,0.90,-1.35,0.04,-0.59,
2.073,-0.14,0.01,0.90,-1.37,0.00,-0.71,
2.076,-0.15,0.01,0.89,-1.37,0.00,-0.71,
2.079,-0.16,0.01,0.89,-1.37,0.00,-0.71,
2.079,-0.16,0.01,0.89,-1.49,-0.02,-0.80,
2.081,-0.17,0.01,0.89,-1.49,-0.02,-0.80,
2.083,-0.17,0.01,0.89,-1.70,-0.08,-0.91,
2.084,-0.18,0.01,0.88,-1.70,-0.08,-0.91,
2.086,-0.20,0.01,0.88,-1.70,-0.08,-0.91,
2.088,-0.20,0.01,0.89,-1.70,-0.08,-0.91,
2.088,-0.20,0.01,0.89,-1.88,-0.07,-0.94,
2.091,-0.21,0.02,0.90,-1.88,-0.07,-0.94,
2.093,-0.22,0.01,0.91,-1.88,-0.07,-0.94,
2.094,-0.22,0.01,0.91,-2.07,-0.09,-0.92,
2.095,-0.23,0.02,0.92,-2.07,-0.09,-0.92,
2.098,-0.23,0.02,0.93,-2.07,-0.09,-0.92,
2.098,-0.23,0.02,0.93,-2.23,-0.05,-0.74,
2.1,-0.24,0.02,0.94,-2.23,-0.05,-0.74,
2.103,-0.24,0.02,0.94,-2.23,-0.05,-0.74,
2.103,-0.24,0.02,0.94,-2.34,-0.01,-0.55,
2.106,-0.24,0.03,0.96,-2.34,-0.01,-0.55,
2.108,-0.25,0.03,0.97,-2.34,-0.01,-0.55,
2.109,-0.25,0.03,0.97,-2.41,0.00,-0.39,
2.11,-0.25,0.03,0.98,-2.41,0.00,-0.39,
2.113,-0.25,0.03,0.99,-2.41,0.00,-0.39,
2.113,-0.25,0.03,0.99,-2.44,0.06,-0.13,
2.115,-0.25,0.03,1.00,-2.44,0.06,-0.13,
2.119,-0.25,0.03,1.01,-2.44,0.06,-0.13,
2.12,-0.25,0.03,1.01,-2.47,0.10,0.04,
2.12,-0.26,0.03,1.02,-2.47,0.10,0.04,
2.123,-0.26,0.03,1.02,-2.47,0.10,0.04,
2.123,-0.26,0.03,1.02,-2.42,0.09,0.22,
2.125,-0.27,0.03,1.03,-2.42,0.09,0.22,
2.128,-0.27,0.03,1.03,-2.42,0.09,0.22,
2.128,-0.27,0.03,1.03,-2.48,0.06,0.37,
2.13,-0.27,0.03,1.04,-2.48,0.06,0.37,
2.133,-0.27,0.03,1.04,-2.48,0.06,0.37,
2.133,-0.27,0.03,1.04,-2.52,0.06,0.51,
2.135,-0.28,0.03,1.04,-2.52,0.06,0.51,
2.137,-0.28,0.03,1.04,-2.51,0.08,0.57,
2.138,-0.28,0.03,1.05,-2.51,0.08,0.57,
2.141,-0.28,0.03,1.04,-2.51,0.08,0.57,
2.144,-0.28,0.03,1.04,-2.51,0.08,0.57,
2.144,-0.28,0.03,1.04,-2.57,0.06,0.63,
2.145,-0.28,0.03,1.03,-2.57,0.06,0.63,
2.147,-0.28,0.03,1.03,-2.54,0.07,0.56,
2.147,-0.28,0.03,1.03,-2.54,0.07,0.56,
2.149,-0.28,0.02,1.02,-2.54,0.07,0.56,
2.156,-0.28,0.02,1.02,-2.54,0.07,0.56,
2.156,-0.28,0.02,1.02,-2.54,0.04,0.50,
2.156,-0.28,0.02,1.01,-2.54,0.04,0.50,
2.159,-0.27,0.02,1.00,-2.54,0.04,0.50,
2.16,-0.27,0.02,1.00,-2.48,-0.01,0.36,
2.16,-0.27,0.02,0.99,-2.48,-0.01,0.36,
2.162,-0.27,0.02,0.99,-2.42,-0.03,0.23,
2.162,-0.27,0.01,0.99,-2.42,-0.03,0.23,
2.164,-0.26,0.01,0.98,-2.42,-0.03,0.23,
2.167,-0.26,0.00,0.98,-2.42,-0.03,0.23,
2.167,-0.26,0.00,0.98,-2.33,-0.10,0.07,
2.17,-0.25,0.00,0.97,-2.33,-0.10,0.07,
2.172,-0.25,0.00,0.97,-2.33,-0.10,0.07,
2.172,-0.25,0.00,0.97,-2.22,-0.16,-0.02,
2.174,-0.25,-0.00,0.97,-2.22,-0.16,-0.02,
2.177,-0.25,-0.01,0.97,-2.22,-0.16,-0.02,
2.177,-0.25,-0.01,0.97,-2.13,-0.25,-0.09,
2.179,-0.25,-0.01,0.97,-2.13,-0.25,-0.09,
2.182,-0.25,-0.01,0.96,-2.13,-0.25,-0.09,
2.182,-0.25,-0.01,0.96,-2.08,-0.32,-0.10,
2.185,-0.25,-0.01,0.95,-2.08,-0.32,-0.10,
2.188,-0.25,-0.01,0.95,-2.08,-0.35,-0.17,
2.188,-0.26,-0.01,0.95,-2.08,-0.35,-0.17,
2.19,-0.26,-0.01,0.94,-2.08,-0.35,-0.17,
2.192,-0.26,-0.01,0.94,-2.08,-0.35,-0.17,
2.192,-0.26,-0.01,0.94,-2.10,-0.38,-0.30,
2.194,-0.27,-0.02,0.95,-2.10,-0.38,-0.30,
2.198,-0.26,-0.01,0.94,-2.10,-0.38,-0.30,
2.199,-0.26,-0.01,0.94,-2.13,-0.41,-0.37,
2.2,-0.26,-0.01,0.94,-2.13,-0.41,-0.37,
2.204,-0.26,-0.01,0.95,-2.13,-0.41,-0.37,
2.204,-0.26,-0.01,0.95,-2.16,-0.43,-0.37,
2.205,-0.26,-0.01,0.95,-2.16,-0.43,-0.37,
2.206,-0.26,-0.01,0.95,-2.16,-0.43,-0.37,
2.207,-0.26,-0.01,0.95,-2.11,-0.38,-0.35,
2.209,-0.26,-0.01,0.95,-2.11,-0.38,-0.35,
2.213,-0.26,-0.01,0.96,-2.11,-0.38,-0.35,
2.213,-0.26,-0.01,0.96,-2.06,-0.38,-0.31,
2.214,-0.26,-0.00,0.96,-2.06,-0.38,-0.31,
2.217,-0.25,0.00,0.97,-2.06,-0.38,-0.31,
2.219,-0.25,0.00,0.97,-2.07,-0.35,-0.23,
2.22,-0.25,-0.00,0.98,-2.07,-0.35,-0.23,
2.221,-0.26,-0.00,0.99,-2.07,-0.35,-0.23,
2.222,-0.26,-0.00,0.99,-1.97,-0.29,-0.14,
2.223,-0.26,-0.00,0.99,-1.97,-0.29,-0.14,
2.226,-0.26,-0.00,0.99,-1.94,-0.29,0.06,
2.226,-0.26,-0.00,1.00,-1.94,-0.29,0.06,
2.228,-0.26,-0.00,1.01,-1.94,-0.29,0.06,
2.231,-0.26,-0.00,1.01,-1.94,-0.29,0.06,
2.231,-0.26,-0.00,1.01,-1.94,-0.30,0.16,
2.233,-0.26,-0.01,1.02,-1.94,-0.30,0.16,
2.237,-0.27,-0.01,1.03,-1.94,-0.30,0.16,
2.237,-0.27,-0.01,1.03,-1.96,-0.29,0.31,
2.238,-0.27,-0.01,1.03,-1.96,-0.29,0.31,
2.241,-0.27,-0.01,1.03,-1.96,-0.29,0.31,
2.241,-0.27,-0.01,1.03,-1.97,-0.34,0.48,
2.243,-0.27,-0.01,1.04,-1.97,-0.34,0.48,
2.246,-0.28,-0.01,1.04,-1.97,-0.34,0.48,
2.246,-0.28,-0.01,1.04,-2.01,-0.31,0.51,
2.248,-0.28,-0.01,1.04,-2.01,-0.31,0.51,
2.256,-0.28,-0.01,1.04,-2.02,-0.30,0.61,
2.257,-0.28,-0.01,1.04,-2.02,-0.30,0.61,
2.257,-0.28,-0.01,1.05,-2.02,-0.30,0.61,
2.257,-0.28,-0.01,1.05,-2.02,-0.30,0.61,
2.257,-0.28,-0.01,1.05,-2.02,-0.31,0.64,
2.259,-0.28,-0.01,1.05,-2.02,-0.31,0.64,
2.261,-0.28,-0.01,1.06,-2.02,-0.31,0.64,
2.261,-0.28,-0.01,1.06,-2.00,-0.26,0.69,
2.264,-0.29,-0.01,1.05,-2.00,-0.26,0.69,
2.266,-0.29,-0.00,1.05,-2.00,-0.26,0.69,
2.266,-0.29,-0.00,1.05,-2.02,-0.27,0.73,
2.269,-0.29,0.00,1.04,-2.02,-0.27,0.73,
2.271,-0.29,0.00,1.05,-2.02,-0.27,0.73,
2.271,-0.29,0.00,1.05,-2.05,-0.22,0.72,
2.273,-0.29,0.00,1.05,-2.05,-0.22,0.72,
2.276,-0.29,0.00,1.05,-2.03,-0.16,0.65,
2.276,-0.29,0.01,1.05,-2.03,-0.16,0.65,
2.278,-0.29,0.01,1.04,-2.03,-0.16,0.65,
2.281,-0.29,0.01,1.03,-2.03,-0.16,0.65,
2.282,-0.29,0.01,1.03,-2.07,-0.12,0.68,
2.283,-0.29,0.01,1.03,-2.07,-0.12,0.68,
2.286,-0.29,0.01,1.03,-2.07,-0.12,0.68,
2.286,-0.29,0.01,1.03,-2.04,-0.06,0.58,
2.288,-0.28,0.02,1.02,-2.04,-0.06,0.58,
2.291,-0.28,0.02,1.02,-2.04,-0.06,0.58,
2.291,-0.28,0.02,1.02,-1.97,-0.05,0.49,
2.293,-0.27,0.02,1.01,-1.97,-0.05,0.49,
2.296,-0.27,0.02,1.02,-1.97,-0.05,0.49,
2.297,-0.27,0.02,1.02,-1.90,0.04,0.42,
2.298,-0.27,0.02,1.02,-1.90,0.04,0.42,
2.3,-0.27,0.02,1.02,-1.81,0.06,0.36,
2.301,-0.26,0.02,1.02,-1.81,0.06,0.36,
2.303,-0.26,0.02,1.02,-1.81,0.06,0.36,
2.305,-0.25,0.03,1.02,-1.81,0.06,0.36,
2.308,-0.25,0.03,1.02,-1.73,0.12,0.41,
2.308,-0.25,0.03,1.03,-1.73,0.12,0.41,
2.311,-0.25,0.03,1.03,-1.73,0.12,0.41,
2.311,-0.25,0.03,1.03,-1.65,0.14,0.43,
2.313,-0.25,0.03,1.03,-1.65,0.14,0.43,
2.315,-0.25,0.03,1.04,-1.65,0.14,0.43,
2.316,-0.25,0.03,1.04,-1.59,0.20,0.51,
2.318,-0.25,0.03,1.05,-1.59,0.20,0.51,
2.321,-0.25,0.02,1.05,-1.59,0.20,0.51,
2.321,-0.25,0.02,1.05,-1.55,0.21,0.57,
2.323,-0.26,0.03,1.06,-1.55,0.21,0.57,
2.327,-0.26,0.03,1.06,-1.58,0.18,0.72,
2.328,-0.27,0.03,1.06,-1.58,0.18,0.72,
2.328,-0.26,0.03,1.07,-1.58,0.18,0.72,
2.33,-0.26,0.03,1.07,-1.58,0.18,0.72,
2.33,-0.26,0.03,1.07,-1.69,0.20,0.77,
2.333,-0.26,0.04,1.07,-1.69,0.20,0.77,
2.335,-0.26,0.04,1.08,-1.69,0.20,0.77,
2.335,-0.26,0.04,1.08,-1.64,0.28,0.86,
2.338,-0.27,0.04,1.08,-1.64,0.28,0.86,
2.34,-0.27,0.04,1.08,-1.64,0.28,0.86,
2.34,-0.27,0.04,1.08,-1.60,0.38,0.94,
2.343,-0.27,0.03,1.08,-1.60,0.38,0.94,
2.346,-0.27,0.03,1.08,-1.60,0.38,0.94,
2.346,-0.27,0.03,1.08,-1.61,0.37,0.96,
2.348,-0.27,0.03,1.07,-1.61,0.37,0.96,
2.35,-0.27,0.03,1.07,-1.62,0.33,1.00,
2.351,-0.27,0.03,1.08,-1.62,0.33,1.00,
2.355,-0.27,0.03,1.07,-1.62,0.33,1.00,
2.355,-0.26,0.02,1.07,-1.62,0.33,1.00,
2.356,-0.26,0.02,1.07,-1.60,0.32,0.95,
2.358,-0.26,0.02,1.07,-1.60,0.32,0.95,
2.361,-0.25,0.01,1.07,-1.60,0.32,0.95,
2.361,-0.25,0.01,1.07,-1.55,0.26,0.91,
2.363,-0.25,0.01,1.07,-1.55,0.26,0.91,
2.365,-0.25,0.01,1.07,-1.55,0.26,0.91,
2.365,-0.25,0.01,1.07,-1.45,0.17,0.93,
2.368,-0.24,0.01,1.07,-1.45,0.17,0.93,
2.373,-0.24,0.01,1.07,-1.45,0.17,0.93,
2.374,-0.24,0.01,1.07,-1.37,0.11,0.90,
2.374,-0.23,0.00,1.07,-1.37,0.11,0.90,
2.375,-0.23,0.00,1.07,-1.37,0.11,0.90,
2.376,-0.23,0.00,1.07,-1.27,0.11,0.87,
2.377,-0.23,-0.00,1.07,-1.27,0.11,0.87,
2.38,-0.22,-0.00,1.07,-1.27,0.11,0.87,
2.38,-0.22,-0.00,1.07,-1.16,0.09,0.87,
2.382,-0.21,-0.00,1.06,-1.16,0.09,0.87,
2.386,-0.21,-0.00,1.06,-1.16,0.09,0.87,
2.386,-0.21,-0.00,1.06,-1.08,0.02,0.88,
2.388,-0.21,-0.01,1.06,-1.08,0.02,0.88,
2.39,-0.20,-0.01,1.06,-1.08,0.02,0.88,
2.39,-0.20,-0.01,1.06,-0.97,0.04,0.81,
2.393,-0.19,-0.01,1.06,-0.97,0.04,0.81,
2.396,-0.18,-0.01,1.06,-0.97,0.04,0.81,
2.396,-0.18,-0.01,1.06,-0.88,-0.01,0.80,
2.397,-0.18,-0.02,1.06,-0.88,-0.01,0.80,
2.4,-0.18,-0.02,1.06,-0.71,-0.03,0.78,
2.401,-0.18,-0.02,1.06,-0.71,-0.03,0.78,
2.402,-0.18,-0.02,1.05,-0.71,-0.03,0.78,
2.405,-0.18,-0.02,1.05,-0.71,-0.03,0.78,
2.405,-0.18,-0.02,1.05,-0.64,-0.05,0.76,
2.407,-0.18,-0.01,1.05,-0.64,-0.05,0.76,
2.41,-0.18,-0.01,1.05,-0.64,-0.05,0.76,
2.41,-0.18,-0.01,1.05,-0.64,-0.05,0.70,
2.413,-0.18,-0.01,1.06,-0.64,-0.05,0.70,
2.415,-0.18,-0.01,1.06,-0.64,-0.05,0.70,
2.416,-0.18,-0.01,1.06,-0.61,0.01,0.71,
2.418,-0.18,-0.01,1.07,-0.61,0.01,0.71,
2.421,-0.18,-0.01,1.07,-0.59,0.07,0.79,
2.421,-0.19,-0.00,1.07,-0.59,0.07,0.79,
2.423,-0.19,-0.00,1.08,-0.59,0.07,0.79,
2.425,-0.19,-0.00,1.08,-0.67,0.12,0.92,
2.425,-0.20,-0.01,1.09,-0.67,0.12,0.92,
2.427,-0.21,-0.01,1.09,-0.67,0.12,0.92,
2.43,-0.21,-0.01,1.10,-0.67,0.12,0.92,
2.43,-0.21,-0.01,1.10,-0.72,0.12,1.00,
2.432,-0.21,-0.01,1.10,-0.72,0.12,1.00,
2.435,-0.21,-0.02,1.10,-0.72,0.12,1.00,
2.435,-0.21,-0.02,1.10,-0.84,0.07,1.12,
2.437,-0.22,-0.03,1.10,-0.84,0.07,1.12,
2.439,-0.22,-0.03,1.11,-0.84,0.07,1.12,
2.44,-0.22,-0.03,1.11,-0.87,0.03,1.15,
2.442,-0.22,-0.03,1.11,-0.87,0.03,1.15,
2.445,-0.22,-0.03,1.10,-0.87,0.03,1.15,
2.445,-0.22,-0.03,1.10,-0.92,-0.09,1.25,
2.447,-0.21,-0.03,1.11,-0.92,-0.09,1.25,
2.449,-0.21,-0.03,1.11,-0.90,-0.09,1.25,
2.45,-0.21,-0.04,1.10,-0.90,-0.09,1.25,
2.451,-0.20,-0.04,1.11,-0.90,-0.09,1.25,
2.455,-0.20,-0.04,1.10,-0.90,-0.09,1.25,
2.455,-0.20,-0.04,1.10,-0.80,-0.14,1.22,
2.456,-0.20,-0.04,1.10,-0.80,-0.14,1.22,
2.459,-0.19,-0.05,1.09,-0.80,-0.14,1.22,
2.459,-0.19,-0.05,1.09,-0.70,-0.22,1.21,
2.461,-0.18,-0.04,1.09,-0.70,-0.22,1.21,
2.464,-0.17,-0.04,1.08,-0.70,-0.22,1.21,
2.464,-0.17,-0.04,1.08,-0.63,-0.22,1.12,
2.466,-0.17,-0.05,1.07,-0.63,-0.22,1.12,
2.475,-0.16,-0.05,1.08,-0.63,-0.22,1.12,
2.475,-0.16,-0.05,1.08,-0.50,-0.23,1.03,
2.478,-0.15,-0.05,1.06,-0.50,-0.23,1.03,
2.478,-0.15,-0.05,1.06,-0.37,-0.26,0.93,
2.478,-0.14,-0.05,1.05,-0.37,-0.26,0.93,
2.478,-0.14,-0.06,1.05,-0.37,-0.26,0.93,
2.479,-0.13,-0.05,1.05,-0.37,-0.26,0.93,
2.479,-0.13,-0.05,1.05,-0.20,-0.27,0.75,
2.481,-0.13,-0.06,1.04,-0.20,-0.27,0.75,
2.484,-0.12,-0.06,1.03,-0.20,-0.27,0.75,
2.484,-0.12,-0.06,1.03,-0.11,-0.33,0.67,
2.487,-0.12,-0.06,1.03,-0.11,-0.33,0.67,
2.489,-0.12,-0.06,1.03,-0.11,-0.33,0.67,
2.489,-0.12,-0.06,1.03,-0.01,-0.34,0.53,
2.491,-0.12,-0.06,1.04,-0.01,-0.34,0.53,
2.494,-0.12,-0.06,1.04,-0.01,-0.34,0.53,
2.494,-0.12,-0.06,1.04,0.09,-0.34,0.50,
2.496,-0.12,-0.06,1.04,0.09,-0.34,0.50,
2.498,-0.12,-0.06,1.04,0.10,-0.38,0.57,
2.499,-0.12,-0.06,1.04,0.10,-0.38,0.57,
2.501,-0.13,-0.07,1.04,0.10,-0.38,0.57,
2.505,-0.12,-0.07,1.04,0.10,-0.38,0.57,
2.505,-0.12,-0.07,1.04,0.09,-0.37,0.60,
2.506,-0.12,-0.06,1.04,0.09,-0.37,0.60,
2.509,-0.12,-0.06,1.05,0.09,-0.37,0.60,
2.509,-0.12,-0.06,1.05,0.03,-0.43,0.59,
2.511,-0.12,-0.06,1.06,0.03,-0.43,0.59,
2.514,-0.12,-0.06,1.06,0.03,-0.43,0.59,
2.514,-0.12,-0.06,1.06,0.06,-0.37,0.62,
2.515,-0.12,-0.06,1.05,0.06,-0.37,0.62,
2.52,-0.12,-0.06,1.06,0.06,-0.37,0.62,
2.521,-0.12,-0.06,1.06,0.07,-0.38,0.72,
2.522,-0.12,-0.06,1.06,0.07,-0.38,0.72,
2.523,-0.12,-0.06,1.06,0.07,-0.35,0.69,
2.524,-0.13,-0.06,1.06,0.07,-0.35,0.69,
2.526,-0.12,-0.06,1.06,0.07,-0.35,0.69,
2.528,-0.12,-0.06,1.07,0.07,-0.35,0.69,
2.528,-0.12,-0.06,1.07,0.06,-0.32,0.78,
2.531,-0.12,-0.06,1.06,0.06,-0.32,0.78,
2.533,-0.13,-0.06,1.08,0.06,-0.32,0.78,
2.533,-0.13,-0.06,1.08,0.07,-0.33,0.82,
2.535,-0.14,-0.06,1.08,0.07,-0.33,0.82,
2.538,-0.14,-0.06,1.08,0.07,-0.33,0.82,
2.538,-0.14,-0.06,1.08,0.02,-0.31,0.86,
2.54,-0.15,-0.06,1.08,0.02,-0.31,0.86,
2.543,-0.15,-0.06,1.09,0.02,-0.31,0.86,
2.544,-0.15,-0.06,1.09,-0.10,-0.34,0.95,
2.545,-0.16,-0.06,1.09,-0.10,-0.34,0.95,
2.548,-0.16,-0.06,1.09,-0.16,-0.35,0.98,
2.548,-0.17,-0.06,1.09,-0.16,-0.35,0.98,
2.55,-0.17,-0.06,1.09,-0.16,-0.35,0.98,
2.554,-0.18,-0.07,1.10,-0.16,-0.35,0.98,
2.555,-0.18,-0.07,1.10,-0.29,-0.36,1.04,
2.555,-0.19,-0.07,1.11,-0.29,-0.36,1.04,
2.558,-0.20,-0.07,1.11,-0.29,-0.36,1.04,
2.558,-0.20,-0.07,1.11,-0.38,-0.40,1.14,
2.56,-0.20,-0.07,1.12,-0.38,-0.40,1.14,
2.563,-0.20,-0.07,1.12,-0.53,-0.41,1.23,
2.563,-0.20,-0.07,1.12,-0.53,-0.41,1.23,
2.565,-0.20,-0.08,1.13,-0.53,-0.41,1.23,
2.568,-0.20,-0.08,1.13,-0.53,-0.41,1.23,
2.568,-0.20,-0.08,1.13,-0.59,-0.47,1.36,
2.572,-0.21,-0.08,1.13,-0.59,-0.47,1.36,
2.573,-0.21,-0.08,1.13,-0.60,-0.56,1.40,
2.573,-0.21,-0.08,1.14,-0.60,-0.56,1.40,
2.575,-0.20,-0.09,1.14,-0.60,-0.56,1.40,
2.578,-0.20,-0.09,1.14,-0.60,-0.56,1.40,
2.578,-0.20,-0.09,1.14,-0.63,-0.55,1.50,
2.58,-0.20,-0.09,1.14,-0.63,-0.55,1.50,
2.583,-0.20,-0.10,1.14,-0.63,-0.55,1.50,
2.584,-0.20,-0.10,1.14,-0.59,-0.60,1.53,
2.585,-0.19,-0.09,1.14,-0.59,-0.60,1.53,
2.592,-0.18,-0.09,1.13,-0.59,-0.60,1.53,
2.592,-0.18,-0.09,1.13,-0.55,-0.66,1.50,
2.592,-0.17,-0.09,1.13,-0.55,-0.66,1.50,
2.593,-0.16,-0.09,1.12,-0.55,-0.66,1.50,
2.593,-0.16,-0.09,1.12,-0.41,-0.63,1.46,
2.596,-0.15,-0.09,1.13,-0.41,-0.63,1.46,
2.597,-0.15,-0.09,1.13,-0.20,-0.61,1.34,
2.598,-0.14,-0.09,1.12,-0.20,-0.61,1.34,
2.6,-0.12,-0.09,1.12,-0.20,-0.61,1.34,
2.605,-0.11,-0.09,1.11,-0.20,-0.61,1.34,
2.606,-0.11,-0.09,1.11,-0.02,-0.62,1.31,
2.606,-0.10,-0.09,1.11,-0.02,-0.62,1.31,
2.607,-0.08,-0.08,1.10,-0.02,-0.62,1.31,
2.608,-0.08,-0.08,1.10,0.21,-0.57,1.21,
2.61,-0.07,-0.08,1.10,0.21,-0.57,1.21,
2.612,-0.07,-0.08,1.09,0.21,-0.57,1.21,
2.613,-0.07,-0.08,1.09,0.46,-0.54,1.10,
2.615,-0.06,-0.08,1.09,0.46,-0.54,1.10,
2.618,-0.04,-0.07,1.08,0.46,-0.54,1.10,
2.618,-0.04,-0.07,1.08,0.66,-0.49,0.97,
2.621,-0.04,-0.07,1.08,0.66,-0.49,0.97,
2.623,-0.02,-0.06,1.07,0.66,-0.49,0.97,
2.624,-0.02,-0.06,1.07,0.81,-0.44,0.93,
2.624,-0.01,-0.06,1.07,0.81,-0.44,0.93,
2.627,-0.00,-0.05,1.07,0.81,-0.44,0.93,
2.627,-0.00,-0.05,1.07,1.01,-0.37,0.80,
2.629,0.01,-0.05,1.06,1.01,-0.37,0.80,
2.633,0.01,-0.04,1.05,1.01,-0.37,0.80,
2.633,0.01,-0.04,1.05,1.22,-0.25,0.72,
2.634,0.02,-0.05,1.06,1.22,-0.25,0.72,
2.637,0.02,-0.05,1.06,1.22,-0.25,0.72,
2.64,0.02,-0.05,1.06,1.32,-0.18,0.60,
2.64,0.02,-0.05,1.05,1.32,-0.18,0.60,
2.642,0.02,-0.04,1.04,1.32,-0.18,0.60,
2.643,0.02,-0.04,1.04,1.40,-0.21,0.61,
2.645,0.03,-0.04,1.04,1.40,-0.21,0.61,
2.648,0.03,-0.04,1.05,1.40,-0.21,0.61,
2.648,0.03,-0.04,1.05,1.43,-0.18,0.50,
2.651,0.03,-0.03,1.05,1.43,-0.18,0.50,
2.653,0.04,-0.03,1.05,1.43,-0.18,0.50,
2.653,0.04,-0.03,1.05,1.49,-0.11,0.48,
2.655,0.03,-0.03,1.05,1.49,-0.11,0.48,
2.657,0.03,-0.03,1.05,1.49,-0.11,0.48,
2.657,0.03,-0.03,1.05,1.52,-0.02,0.52,
2.66,0.03,-0.02,1.05,1.52,-0.02,0.52,
2.663,0.02,-0.02,1.06,1.52,-0.02,0.52,
2.663,0.02,-0.02,1.06,1.50,-0.00,0.57,
2.665,0.02,-0.02,1.07,1.50,-0.00,0.57,
2.668,0.01,-0.02,1.07,1.50,-0.00,0.57,
2.668,0.01,-0.02,1.07,1.42,0.03,0.60,
2.67,0.02,-0.02,1.07,1.42,0.03,0.60,
2.673,0.01,-0.02,1.07,1.42,0.03,0.60,
2.674,0.01,-0.02,1.07,1.31,0.05,0.72,
2.674,0.00,-0.02,1.08,1.31,0.05,0.72,
2.677,0.00,-0.02,1.08,1.31,0.05,0.72,
2.677,0.00,-0.02,1.08,1.32,0.08,0.74,
2.679,0.01,-0.02,1.08,1.32,0.08,0.74,
2.682,0.00,-0.02,1.08,1.32,0.08,0.74,
2.682,0.00,-0.02,1.08,1.22,0.04,0.85,
2.685,0.00,-0.02,1.09,1.22,0.04,0.85,
2.69,0.01,-0.02,1.09,1.22,0.04,0.85,
2.691,0.01,-0.02,1.09,1.25,0.05,0.86,
2.691,0.01,-0.02,1.09,1.25,0.05,0.86,
2.692,0.01,-0.02,1.09,1.25,0.05,0.86,
2.692,0.01,-0.02,1.09,1.26,0.06,0.90,
2.695,0.02,-0.02,1.09,1.26,0.06,0.90,
2.696,0.02,-0.02,1.09,1.34,0.04,0.90,
2.697,0.02,-0.02,1.09,1.34,0.04,0.90,
2.699,0.03,-0.02,1.09,1.34,0.04,0.90,
2.702,0.03,-0.02,1.08,1.34,0.04,0.90,
2.702,0.03,-0.02,1.08,1.46,0.02,0.90,
2.704,0.03,-0.02,1.08,1.46,0.02,0.90,
2.709,0.04,-0.02,1.08,1.46,0.02,0.90,
2.71,0.04,-0.02,1.08,1.54,-0.00,0.87,
2.71,0.04,-0.02,1.08,1.54,-0.00,0.87,
2.712,0.04,-0.02,1.08,1.63,-0.02,0.80,
2.712,0.05,-0.02,1.08,1.63,-0.02,0.80,
2.714,0.05,-0.02,1.08,1.63,-0.02,0.80,
2.717,0.05,-0.02,1.09,1.63,-0.02,0.80,
2.717,0.05,-0.02,1.09,1.72,-0.04,0.84,
2.719,0.05,-0.02,1.09,1.72,-0.04,0.84,
2.722,0.06,-0.03,1.09,1.72,-0.04,0.84,
2.722,0.06,-0.03,1.09,1.79,-0.07,0.88,
2.724,0.06,-0.02,1.09,1.79,-0.07,0.88,
2.726,0.06,-0.02,1.09,1.86,-0.09,0.93,
2.727,0.06,-0.02,1.10,1.86,-0.09,0.93,
2.729,0.07,-0.02,1.10,1.86,-0.09,0.93,
2.732,0.07,-0.03,1.10,1.86,-0.09,0.93,
2.732,0.07,-0.03,1.10,1.94,-0.10,0.98,
2.734,0.07,-0.03,1.10,1.94,-0.10,0.98,
2.737,0.07,-0.03,1.11,1.94,-0.10,0.98,
2.737,0.07,-0.03,1.11,2.00,-0.14,1.01,
2.739,0.07,-0.03,1.11,2.00,-0.14,1.01,
2.741,0.07,-0.03,1.11,2.00,-0.14,1.01,
2.742,0.07,-0.03,1.11,2.04,-0.19,1.07,
2.744,0.07,-0.03,1.11,2.04,-0.19,1.07,
2.747,0.07,-0.03,1.11,2.04,-0.19,1.07,
2.747,0.07,-0.03,1.11,2.04,-0.22,1.11,
2.749,0.07,-0.03,1.12,2.04,-0.22,1.11,
2.752,0.07,-0.03,1.11,2.04,-0.22,1.11,
2.752,0.07,-0.03,1.11,2.04,-0.23,1.12,
2.754,0.07,-0.03,1.11,2.04,-0.23,1.12,
2.756,0.07,-0.03,1.11,2.04,-0.23,1.12,
2.757,0.07,-0.03,1.11,2.01,-0.23,1.16,
2.759,0.07,-0.02,1.11,2.01,-0.23,1.16,
2.762,0.07,-0.02,1.11,2.01,-0.23,1.16,
2.762,0.07,-0.02,1.11,1.99,-0.21,1.13,
2.764,0.07,-0.02,1.10,1.99,-0.21,1.13,
2.767,0.06,-0.02,1.10,1.99,-0.21,1.13,
2.767,0.06,-0.02,1.10,1.97,-0.15,1.12,
2.769,0.06,-0.02,1.11,1.97,-0.15,1.12,
2.773,0.05,-0.02,1.10,1.97,-0.15,1.12,
2.773,0.05,-0.02,1.10,1.92,-0.13,1.05,
2.773,0.05,-0.01,1.11,1.92,-0.13,1.05,
2.776,0.04,-0.01,1.11,1.92,-0.13,1.05,
2.777,0.04,-0.01,1.11,1.84,-0.12,1.07,
2.779,0.04,-0.01,1.11,1.84,-0.12,1.07,
2.782,0.03,-0.01,1.11,1.84,-0.12,1.07,
2.782,0.03,-0.01,1.11,1.76,-0.08,1.10,
2.784,0.03,-0.00,1.11,1.76,-0.08,1.10,
2.786,0.03,-0.00,1.12,1.76,-0.08,1.10,
2.787,0.03,-0.00,1.12,1.67,-0.07,1.10,
2.789,0.03,-0.00,1.11,1.67,-0.07,1.10,
2.791,0.02,-0.00,1.11,1.67,-0.07,1.10,
2.792,0.02,-0.00,1.11,1.59,0.00,1.15,
2.794,0.02,-0.00,1.11,1.59,0.00,1.15,
2.796,0.02,-0.00,1.11,1.51,-0.01,1.11,
2.796,0.02,0.00,1.10,1.51,-0.01,1.11,
2.799,0.02,-0.00,1.10,1.51,-0.01,1.11,
2.801,0.02,0.01,1.09,1.51,-0.01,1.11,
2.804,0.02,0.01,1.09,1.47,-0.02,1.02,
2.804,0.03,0.00,1.09,1.47,-0.02,1.02,
2.81,0.03,0.00,1.08,1.47,-0.02,1.02,
2.81,0.03,0.00,1.08,1.49,-0.01,0.95,
2.81,0.03,0.00,1.07,1.49,-0.01,0.95,
2.811,0.03,-0.00,1.06,1.49,-0.01,0.95,
2.811,0.03,-0.00,1.06,1.54,-0.02,0.82,
2.813,0.04,0.00,1.05,1.54,-0.02,0.82,
2.815,0.05,-0.00,1.05,1.54,-0.02,0.82,
2.816,0.05,-0.00,1.05,1.55,-0.07,0.69,
2.818,0.06,-0.00,1.04,1.55,-0.07,0.69,
2.822,0.06,0.00,1.03,1.55,-0.07,0.69,
2.823,0.06,0.00,1.03,1.67,-0.10,0.51,
2.823,0.06,-0.00,1.02,1.67,-0.10,0.51,
2.825,0.07,-0.00,1.01,1.67,-0.10,0.51,
2.825,0.07,-0.00,1.01,1.78,-0.12,0.38,
2.828,0.07,-0.00,1.01,1.78,-0.12,0.38,
2.83,0.08,-0.00,1.00,1.78,-0.12,0.38,
2.83,0.08,-0.00,1.00,1.86,-0.18,0.20,
2.833,0.08,-0.00,0.99,1.86,-0.18,0.20,
2.835,0.08,-0.00,0.99,1.86,-0.18,0.20,
2.835,0.08,-0.00,0.99,1.95,-0.19,0.09,
2.84,0.08,-0.00,0.98,1.95,-0.19,0.09,
2.841,0.09,-0.00,0.98,1.95,-0.19,0.09,
2.841,0.09,-0.00,0.98,1.97,-0.22,-0.09,
2.842,0.09,-0.01,0.98,1.97,-0.22,-0.09,
2.845,0.08,-0.01,0.98,1.97,-0.22,-0.09,
2.845,0.08,-0.01,0.98,2.01,-0.24,-0.14,
2.848,0.09,-0.01,0.98,2.01,-0.24,-0.14,
2.85,0.08,-0.01,0.98,2.01,-0.24,-0.14,
2.85,0.08,-0.01,0.98,1.98,-0.31,-0.20,
2.852,0.08,-0.02,0.97,1.98,-0.31,-0.20,
2.856,0.07,-0.01,0.97,1.98,-0.31,-0.20,
2.857,0.07,-0.01,0.97,1.98,-0.37,-0.21,
2.857,0.07,-0.01,0.97,1.98,-0.37,-0.21,
2.86,0.07,-0.01,0.97,1.98,-0.37,-0.21,
2.86,0.07,-0.01,0.97,1.91,-0.43,-0.24,
2.863,0.06,-0.01,0.96,1.91,-0.43,-0.24,
2.865,0.06,-0.01,0.96,1.91,-0.43,-0.24,
2.865,0.06,-0.01,0.96,1.82,-0.39,-0.29,
2.867,0.06,-0.00,0.96,1.82,-0.39,-0.29,
2.87,0.05,-0.01,0.95,1.82,-0.39,-0.29,
2.87,0.05,-0.01,0.95,1.75,-0.38,-0.39,
2.872,0.05,-0.00,0.95,1.75,-0.38,-0.39,
2.875,0.04,0.00,0.95,1.75,-0.38,-0.39,
2.875,0.04,0.00,0.95,1.67,-0.37,-0.44,
2.877,0.03,0.00,0.95,1.67,-0.37,-0.44,
2.88,0.03,0.00,0.95,1.56,-0.34,-0.50,
2.88,0.03,0.01,0.95,1.56,-0.34,-0.50,
2.882,0.02,0.01,0.95,1.56,-0.34,-0.50,
2.885,0.02,0.01,0.94,1.56,-0.34,-0.50,
2.885,0.02,0.01,0.94,1.45,-0.30,-0.48,
2.887,0.02,0.01,0.94,1.45,-0.30,-0.48,
2.89,0.01,0.01,0.93,1.45,-0.30,-0.48,
2.89,0.01,0.01,0.93,1.37,-0.24,-0.51,
2.892,0.02,0.02,0.94,1.37,-0.24,-0.51,
2.895,0.02,0.02,0.94,1.28,-0.26,-0.60,
2.895,0.02,0.02,0.93,1.28,-0.26,-0.60,
2.898,0.02,0.02,0.94,1.28,-0.26,-0.60,
2.9,0.02,0.02,0.94,1.29,-0.23,-0.64,
2.9,0.01,0.02,0.93,1.29,-0.23,-0.64,
2.902,0.02,0.02,0.94,1.29,-0.23,-0.64,
2.908,0.02,0.01,0.93,1.29,-0.23,-0.64,
2.908,0.02,0.01,0.93,1.28,-0.25,-0.61,
2.908,0.02,0.01,0.93,1.28,-0.25,-0.61,
2.911,0.02,0.01,0.93,1.28,-0.25,-0.61,
2.911,0.02,0.01,0.93,1.30,-0.27,-0.62,
2.912,0.03,0.01,0.92,1.30,-0.27,-0.62,
2.914,0.03,0.01,0.92,1.35,-0.32,-0.67,
2.915,0.03,0.01,0.93,1.35,-0.32,-0.67,
2.917,0.04,0.01,0.92,1.35,-0.32,-0.67,
2.92,0.04,0.01,0.92,1.35,-0.32,-0.67,
2.92,0.04,0.01,0.92,1.44,-0.37,-0.71,
2.922,0.04,0.01,0.92,1.44,-0.37,-0.71,
2.924,0.05,0.00,0.92,1.44,-0.37,-0.71,
2.925,0.05,0.00,0.92,1.50,-0.38,-0.77,
2.927,0.05,0.00,0.92,1.50,-0.38,-0.77,
2.93,0.05,0.00,0.92,1.50,-0.38,-0.77,
2.93,0.05,0.00,0.92,1.54,-0.46,-0.75,
2.932,0.05,0.00,0.92,1.54,-0.46,-0.75,
2.935,0.05,0.00,0.92,1.54,-0.46,-0.75,
2.935,0.05,0.00,0.92,1.57,-0.49,-0.78,
2.937,0.05,0.01,0.92,1.57,-0.49,-0.78,
2.939,0.05,0.01,0.91,1.57,-0.49,-0.78,
2.94,0.05,0.01,0.91,1.62,-0.50,-0.76,
2.942,0.05,0.01,0.92,1.62,-0.50,-0.76,
2.944,0.05,0.01,0.92,1.62,-0.50,-0.76,
2.945,0.05,0.01,0.92,1.60,-0.46,-0.78,
2.947,0.04,0.01,0.92,1.60,-0.46,-0.78,
2.95,0.04,0.01,0.91,1.60,-0.46,-0.78,
2.95,0.04,0.01,0.91,1.61,-0.48,-0.79,
2.952,0.04,0.01,0.91,1.61,-0.48,-0.79,
2.955,0.04,0.01,0.91,1.61,-0.48,-0.79,
2.955,0.04,0.01,0.91,1.53,-0.46,-0.78,
2.957,0.03,0.01,0.91,1.53,-0.46,-0.78,
2.959,0.02,0.01,0.91,1.53,-0.46,-0.78,
2.959,0.02,0.01,0.91,1.49,-0.46,-0.81,
2.962,0.02,0.01,0.91,1.49,-0.46,-0.81,
2.965,0.02,0.02,0.92,1.49,-0.46,-0.81,
2.965,0.02,0.02,0.92,1.39,-0.42,-0.80,
2.967,0.02,0.02,0.92,1.39,-0.42,-0.80,
2.969,0.02,0.02,0.92,1.39,-0.42,-0.80,
2.97,0.02,0.02,0.92,1.34,-0.42,-0.78,
2.971,0.02,0.02,0.93,1.34,-0.42,-0.78,
2.974,0.02,0.03,0.93,1.34,-0.42,-0.78,
2.975,0.02,0.03,0.93,1.32,-0.37,-0.75,
2.976,0.02,0.03,0.93,1.32,-0.37,-0.75,
2.979,0.02,0.03,0.93,1.32,-0.37,-0.75,
2.98,0.02,0.03,0.93,1.31,-0.34,-0.67,
2.981,0.01,0.04,0.93,1.31,-0.34,-0.67,
2.986,0.01,0.04,0.93,1.31,-0.34,-0.67,
2.986,0.01,0.04,0.93,1.30,-0.28,-0.66,
2.987,0.01,0.04,0.93,1.30,-0.28,-0.66,
2.991,0.01,0.04,0.93,1.26,-0.22,-0.65,
2.991,-0.00,0.05,0.93,1.26,-0.22,-0.65,
2.992,-0.01,0.05,0.93,1.26,-0.22,-0.65,
2.994,-0.01,0.05,0.93,1.26,-0.22,-0.65,
2.995,-0.01,0.05,0.93,1.16,-0.17,-0.62,
2.997,-0.01,0.05,0.93,1.16,-0.17,-0.62,
2.999,-0.02,0.06,0.93,1.16,-0.17,-0.62,
2.999,-0.02,0.06,0.93,1.05,-0.15,-0.61,
3.001,-0.02,0.06,0.93,1.05,-0.15,-0.61,
3.004,-0.03,0.06,0.92,1.05,-0.15,-0.61,
3.004,-0.03,0.06,0.92,0.99,-0.08,-0.63,
3.006,-0.03,0.07,0.91,0.99,-0.08,-0.63,
3.009,-0.04,0.07,0.92,0.99,-0.08,-0.63,
3.009,-0.04,0.07,0.92,0.91,-0.04,-0.67,
3.011,-0.05,0.07,0.92,0.91,-0.04,-0.67,
3.014,-0.07,0.08,0.93,0.91,-0.04,-0.67,
3.014,-0.07,0.08,0.93,0.83,0.03,-0.75,
3.016,-0.10,0.09,0.94,0.83,0.03,-0.75,
3.019,-0.10,0.11,0.96,0.83,0.03,-0.75,
3.019,-0.10,0.11,0.96,0.60,0.13,-0.68,
3.021,-0.10,0.11,0.96,0.60,0.13,-0.68,
3.027,-0.10,0.10,0.95,0.60,0.13,-0.68,
3.027,-0.10,0.10,0.95,0.18,0.32,-0.43,
3.028,-0.10,0.10,0.95,0.18,0.32,-0.43,
3.028,-0.10,0.11,0.95,0.18,0.32,-0.43,
3.029,-0.10,0.11,0.95,0.22,0.35,-0.38,
3.031,-0.11,0.11,0.95,0.22,0.35,-0.38,
3.034,-0.10,0.12,0.96,0.22,0.35,-0.38,
3.034,-0.10,0.12,0.96,0.19,0.35,-0.42,
3.036,-0.09,0.13,0.95,0.19,0.35,-0.42,
3.039,-0.08,0.13,0.96,0.19,0.35,-0.42,
3.039,-0.08,0.13,0.96,0.16,0.47,-0.35,
3.041,-0.09,0.13,0.97,0.16,0.47,-0.35,
3.043,-0.08,0.13,0.96,0.16,0.47,-0.35,
3.044,-0.08,0.13,0.96,0.30,0.59,-0.33,
3.046,-0.08,0.14,0.97,0.30,0.59,-0.33,
3.049,-0.08,0.14,0.98,0.30,0.59,-0.33,
3.049,-0.08,0.14,0.98,0.34,0.62,-0.28,
3.051,-0.08,0.14,0.97,0.34,0.62,-0.28,
3.054,-0.08,0.14,0.98,0.34,0.62,-0.28,
3.054,-0.08,0.14,0.98,0.35,0.66,-0.19,
3.056,-0.08,0.14,0.99,0.35,0.66,-0.19,
3.058,-0.09,0.14,0.99,0.35,0.66,-0.19,
3.059,-0.09,0.14,0.99,0.34,0.67,-0.15,
3.06,-0.09,0.14,0.99,0.34,0.67,-0.15,
3.063,-0.09,0.14,0.99,0.31,0.71,-0.01,
3.063,-0.09,0.14,0.99,0.31,0.71,-0.01,
3.066,-0.09,0.14,1.00,0.31,0.71,-0.01,
3.069,-0.09,0.14,1.00,0.31,0.71,-0.01,
3.069,-0.09,0.14,1.00,0.29,0.73,-0.00,
3.071,-0.09,0.15,1.00,0.29,0.73,-0.00,
3.074,-0.10,0.15,1.00,0.29,0.73,-0.00,
3.075,-0.10,0.15,1.00,0.26,0.73,0.03,
3.076,-0.09,0.14,1.00,0.26,0.73,0.03,
3.079,-0.09,0.14,1.00,0.26,0.73,0.03,
3.079,-0.09,0.14,1.00,0.20,0.77,0.04,
3.081,-0.10,0.15,1.00,0.20,0.77,0.04,
3.083,-0.10,0.15,1.00,0.20,0.77,0.04,
3.084,-0.10,0.15,1.00,0.18,0.75,0.06,
3.086,-0.10,0.14,1.00,0.18,0.75,0.06,
3.088,-0.10,0.14,0.99,0.18,0.75,0.06,
3.089,-0.10,0.14,0.99,0.10,0.76,0.07,
3.091,-0.10,0.14,0.99,0.10,0.76,0.07,
3.093,-0.11,0.14,1.00,0.10,0.76,0.07,
3.094,-0.11,0.14,1.00,0.06,0.76,0.03,
3.095,-0.11,0.14,0.99,0.06,0.76,0.03,
3.098,-0.10,0.13,0.99,0.06,0.76,0.03,
3.099,-0.10,0.13,0.99,0.04,0.76,0.01,
3.1,-0.10,0.14,0.99,0.04,0.76,0.01,
3.103,-0.10,0.13,0.99,0.04,0.76,0.01,
3.103,-0.10,0.13,0.99,0.02,0.69,-0.02,
3.106,-0.10,0.13,0.99,0.02,0.69,-0.02,
3.108,-0.10,0.13,0.98,0.02,0.69,-0.02,
3.108,-0.10,0.13,0.98,0.01,0.70,-0.05,
3.11,-0.10,0.13,0.98,0.01,0.70,-0.05,
3.113,-0.10,0.13,0.97,0.01,0.70,-0.05,
3.113,-0.10,0.13,0.97,0.04,0.67,-0.12,
3.115,-0.09,0.12,0.97,0.04,0.67,-0.12,
3.117,-0.09,0.11,0.97,0.04,0.67,-0.12,
3.118,-0.09,0.11,0.97,0.03,0.62,-0.22,
3.119,-0.08,0.12,0.97,0.03,0.62,-0.22,
3.128,-0.08,0.11,0.96,0.03,0.62,-0.22,
3.129,-0.08,0.11,0.96,0.09,0.55,-0.25,
3.129,-0.07,0.11,0.96,0.09,0.55,-0.25,
3.129,-0.07,0.11,0.96,0.09,0.55,-0.25,
3.129,-0.07,0.11,0.96,0.16,0.55,-0.29,
3.13,-0.06,0.10,0.97,0.16,0.55,-0.29,
3.132,-0.05,0.09,0.97,0.16,0.55,-0.29,
3.133,-0.05,0.09,0.97,0.26,0.46,-0.36,
3.134,-0.05,0.08,0.97,0.26,0.46,-0.36,
3.137,-0.04,0.08,0.98,0.26,0.46,-0.36,
3.137,-0.04,0.08,0.98,0.34,0.36,-0.25,
3.14,-0.03,0.08,0.98,0.34,0.36,-0.25,
3.142,-0.02,0.07,0.99,0.34,0.36,-0.25,
3.142,-0.02,0.07,0.99,0.50,0.24,-0.20,
3.145,-0.01,0.07,1.00,0.50,0.24,-0.20,
3.147,-0.00,0.07,1.00,0.50,0.24,-0.20,
3.147,-0.00,0.07,1.00,0.62,0.16,-0.08,
3.149,0.01,0.06,1.01,0.62,0.16,-0.08,
3.153,0.02,0.06,1.01,0.62,0.16,-0.08,
3.153,0.02,0.06,1.01,0.80,0.09,0.07,
3.154,0.02,0.06,1.01,0.80,0.09,0.07,
3.157,0.03,0.05,1.02,0.80,0.09,0.07,
3.157,0.03,0.05,1.02,0.97,0.02,0.17,
3.159,0.03,0.05,1.02,0.97,0.02,0.17,
3.162,0.03,0.04,1.02,0.97,0.02,0.17,
3.162,0.03,0.04,1.02,1.10,-0.02,0.18,
3.164,0.03,0.03,1.02,1.10,-0.02,0.18,
3.167,0.03,0.03,1.02,1.14,-0.09,0.21,
3.167,0.03,0.03,1.02,1.14,-0.09,0.21,
3.169,0.04,0.03,1.02,1.14,-0.09,0.21,
3.172,0.04,0.03,1.02,1.15,-0.23,0.26,
3.172,0.03,0.03,1.02,1.15,-0.23,0.26,
3.175,0.03,0.03,1.02,1.15,-0.23,0.26,
3.177,0.03,0.03,1.02,1.15,-0.23,0.26,
3.177,0.03,0.03,1.02,1.16,-0.26,0.27,
3.179,0.03,0.03,1.02,1.16,-0.26,0.27,
3.182,0.03,0.03,1.02,1.15,-0.29,0.23,
3.182,0.04,0.03,1.02,1.15,-0.29,0.23,
3.184,0.04,0.03,1.02,1.15,-0.29,0.23,
3.187,0.04,0.03,1.02,1.15,-0.29,0.23,
3.187,0.04,0.03,1.02,1.15,-0.32,0.21,
3.191,0.03,0.03,1.01,1.15,-0.32,0.21,
3.192,0.03,0.03,1.01,1.15,-0.32,0.21,
3.192,0.03,0.03,1.01,1.17,-0.28,0.21,
3.194,0.02,0.03,1.02,1.17,-0.28,0.21,
3.196,0.03,0.03,1.01,1.17,-0.28,0.21,
3.197,0.03,0.03,1.01,1.10,-0.30,0.17,
3.199,0.02,0.03,1.01,1.10,-0.30,0.17,
3.202,0.01,0.02,0.98,1.10,-0.30,0.17,
3.202,0.01,0.02,0.98,1.04,-0.31,0.19,
3.204,-0.00,0.02,0.88,1.04,-0.31,0.19,
3.207,-0.03,0.03,0.78,1.04,-0.31,0.19,
3.208,-0.03,0.03,0.78,0.97,-0.37,-0.01,
3.209,-0.05,0.05,0.71,0.97,-0.37,-0.01,
3.211,-0.07,0.07,0.72,0.97,-0.37,-0.01,
3.212,-0.07,0.07,0.72,0.64,-0.37,-1.64,
3.214,-0.08,0.08,0.76,0.64,-0.37,-1.64,
3.216,-0.08,0.08,0.76,0.23,-0.02,-2.76,
3.218,-0.09,0.09,0.79,0.23,-0.02,-2.76,
3.22,-0.10,0.10,0.80,0.23,-0.02,-2.76,
3.221,-0.10,0.11,0.80,0.23,-0.02,-2.76,
3.221,-0.10,0.11,0.80,0.02,0.19,-2.18,
3.231,-0.10,0.11,0.82,0.02,0.19,-2.18,
3.232,-0.09,0.12,0.86,0.02,0.19,-2.18,
3.232,-0.09,0.12,0.86,-0.13,0.42,-1.90,
3.233,-0.09,0.12,0.90,-0.13,0.42,-1.90,
3.234,-0.10,0.11,0.95,-0.13,0.42,-1.90,
3.234,-0.10,0.11,0.95,-0.07,0.54,-1.53,
3.235,-0.09,0.09,1.00,-0.07,0.54,-1.53,
3.238,-0.09,0.08,1.04,-0.07,0.54,-1.53,
3.238,-0.09,0.08,1.04,-0.08,0.55,-0.67,
3.238,-0.08,0.06,1.07,-0.08,0.55,-0.67,
3.246,-0.08,0.06,1.07,-0.06,0.26,0.22,
3.247,-0.07,0.05,1.10,-0.06,0.26,0.22,
3.247,-0.06,0.03,1.14,-0.06,0.26,0.22,
3.247,-0.04,0.02,1.14,-0.06,0.26,0.22,
3.247,-0.04,0.02,1.14,0.07,-0.01,0.88,
3.249,-0.03,0.01,1.16,0.07,-0.01,0.88,
3.251,-0.02,0.00,1.17,0.07,-0.01,0.88,
3.251,-0.02,0.00,1.17,0.30,-0.29,1.41,
3.253,-0.01,0.00,1.18,0.30,-0.29,1.41,
3.256,0.00,-0.00,1.19,0.30,-0.29,1.41,
3.256,0.00,-0.00,1.19,0.55,-0.48,1.69,
3.259,0.01,-0.00,1.18,0.55,-0.48,1.69,
3.261,0.01,0.01,1.18,0.55,-0.48,1.69,
3.261,0.01,0.01,1.18,0.74,-0.53,1.83,
3.265,0.02,0.01,1.18,0.74,-0.53,1.83,
3.266,0.01,0.02,1.17,0.74,-0.53,1.83,
3.266,0.01,0.02,1.17,0.86,-0.53,1.82,
3.268,0.01,0.03,1.16,0.86,-0.53,1.82,
3.272,0.01,0.04,1.14,0.86,-0.53,1.82,
3.272,0.01,0.04,1.14,0.88,-0.40,1.72,
3.275,0.01,0.04,1.13,0.88,-0.40,1.72,
3.276,0.01,0.04,1.10,0.88,-0.40,1.72,
3.277,0.01,0.04,1.10,0.79,-0.25,1.51,
3.278,0.01,0.05,1.08,0.79,-0.25,1.51,
3.281,0.01,0.06,1.05,0.79,-0.25,1.51,
3.282,0.01,0.06,1.05,0.83,-0.20,1.15,
3.284,0.02,0.07,1.02,0.83,-0.20,1.15,
3.286,0.02,0.07,1.02,0.83,-0.12,0.67,
3.287,0.03,0.07,1.00,0.83,-0.12,0.67,
3.289,0.03,0.08,0.97,0.83,-0.12,0.67,
3.291,0.03,0.08,0.96,0.83,-0.12,0.67,
3.291,0.03,0.08,0.96,0.94,0.06,0.13,
3.293,0.03,0.09,0.95,0.94,0.06,0.13,
3.297,0.03,0.09,0.94,0.94,0.06,0.13,
3.299,0.03,0.09,0.94,1.01,0.13,-0.28,
3.3,0.01,0.09,0.92,1.01,0.13,-0.28,
3.302,0.01,0.09,0.92,1.01,0.18,-0.55,
3.302,0.00,0.09,0.91,1.01,0.18,-0.55,
3.304,-0.00,0.09,0.91,1.01,0.18,-0.55,
3.306,-0.01,0.09,0.90,1.01,0.18,-0.55,
3.306,-0.01,0.09,0.90,0.79,0.17,-0.79,
3.309,-0.02,0.09,0.91,0.79,0.17,-0.79,
