
time,gFx,gFy,gFz,ax,ay,az,
0.002,-0.06,0.15,0.96,-0.01,0.34,-0.27,
0.002,-0.06,0.15,0.96,-0.04,0.41,-0.10,
0.002,-0.06,0.15,0.98,-0.04,0.41,-0.10,
0.004,-0.06,0.16,0.99,-0.04,0.41,-0.10,
0.007,-0.06,0.15,1.00,-0.04,0.41,-0.10,
0.007,-0.06,0.15,1.00,-0.03,0.51,0.12,
0.009,-0.07,0.15,1.01,-0.03,0.51,0.12,
0.015,-0.07,0.15,1.03,-0.03,0.51,0.12,
0.015,-0.07,0.15,1.03,-0.03,0.55,0.34,
0.015,-0.07,0.14,1.03,-0.03,0.55,0.34,
0.017,-0.07,0.14,1.04,-0.03,0.55,0.34,
0.017,-0.07,0.14,1.04,-0.07,0.48,0.59,
0.019,-0.06,0.14,1.04,-0.07,0.48,0.59,
0.022,-0.06,0.14,1.04,-0.07,0.48,0.59,
0.022,-0.06,0.14,1.04,-0.07,0.45,0.76,
0.024,-0.05,0.14,1.06,-0.07,0.45,0.76,
0.027,-0.05,0.14,1.06,-0.01,0.41,0.81,
0.027,-0.05,0.14,1.05,-0.01,0.41,0.81,
0.033,-0.04,0.14,1.05,-0.01,0.41,0.81,
0.034,-0.04,0.14,1.06,-0.01,0.41,0.81,
0.034,-0.04,0.14,1.06,0.08,0.38,0.92,
0.034,-0.04,0.14,1.05,0.08,0.38,0.92,
0.037,-0.03,0.14,1.04,0.08,0.38,0.92,
0.037,-0.03,0.14,1.04,0.19,0.44,0.91,
0.039,-0.03,0.14,1.04,0.19,0.44,0.91,
0.042,-0.03,0.14,1.04,0.19,0.44,0.91,
0.042,-0.03,0.14,1.04,0.25,0.41,0.79,
0.044,-0.03,0.14,1.03,0.25,0.41,0.79,
0.05,-0.03,0.14,1.03,0.24,0.41,0.73,
0.05,-0.03,0.14,1.02,0.24,0.41,0.73,
0.05,-0.02,0.15,1.01,0.24,0.41,0.73,
0.052,-0.02,0.15,1.01,0.30,0.40,0.56,
0.052,-0.02,0.15,1.00,0.30,0.40,0.56,
0.054,-0.03,0.15,0.99,0.30,0.40,0.56,
0.056,-0.02,0.15,0.98,0.30,0.40,0.56,
0.057,-0.02,0.15,0.98,0.39,0.50,0.43,
0.059,-0.02,0.16,0.97,0.39,0.50,0.43,
0.061,-0.02,0.16,0.97,0.39,0.50,0.43,
0.062,-0.02,0.16,0.97,0.33,0.51,0.22,
0.066,-0.01,0.16,0.97,0.33,0.51,0.22,
0.066,-0.01,0.16,0.96,0.33,0.51,0.22,
0.066,-0.01,0.16,0.96,0.37,0.56,0.07,
0.069,-0.01,0.16,0.95,0.37,0.56,0.07,
0.071,-0.01,0.17,0.96,0.37,0.56,0.07,
0.071,-0.01,0.17,0.96,0.44,0.58,0.00,
0.074,-0.01,0.16,0.96,0.44,0.58,0.00,
0.076,-0.01,0.16,0.96,0.44,0.62,-0.10,
0.076,-0.01,0.16,0.96,0.44,0.62,-0.10,
0.082,-0.02,0.16,0.96,0.44,0.62,-0.10,
0.082,-0.02,0.16,0.96,0.44,0.62,-0.10,
0.082,-0.02,0.16,0.96,0.44,0.61,-0.05,
0.083,-0.03,0.16,0.97,0.44,0.61,-0.05,
0.086,-0.03,0.16,0.97,0.44,0.61,-0.05,
0.086,-0.03,0.16,0.97,0.33,0.59,-0.03,
0.088,-0.04,0.15,0.98,0.33,0.59,-0.03,
0.091,-0.04,0.15,0.98,0.33,0.59,-0.03,
0.091,-0.04,0.15,0.98,0.25,0.56,0.05,
0.093,-0.04,0.15,0.99,0.25,0.56,0.05,
0.099,-0.04,0.15,0.99,0.17,0.48,0.13,
0.1,-0.04,0.15,0.98,0.17,0.48,0.13,
0.1,-0.04,0.14,0.98,0.17,0.48,0.13,
0.101,-0.04,0.14,0.99,0.17,0.48,0.13,
0.101,-0.04,0.14,0.99,0.19,0.41,0.19,
0.103,-0.04,0.13,1.00,0.19,0.41,0.19,
0.106,-0.04,0.13,1.00,0.19,0.41,0.19,
0.106,-0.04,0.13,1.00,0.16,0.37,0.19,
0.108,-0.04,0.13,1.01,0.16,0.37,0.19,
0.111,-0.04,0.13,1.01,0.16,0.37,0.19,
0.111,-0.04,0.13,1.01,0.15,0.28,0.32,
0.116,-0.04,0.12,1.01,0.15,0.28,0.32,
0.116,-0.04,0.12,1.02,0.15,0.28,0.32,
0.116,-0.04,0.12,1.02,0.15,0.25,0.42,
0.118,-0.04,0.12,1.02,0.15,0.25,0.42,
0.121,-0.03,0.13,1.02,0.15,0.25,0.42,
0.121,-0.03,0.13,1.02,0.15,0.19,0.48,
0.123,-0.03,0.14,1.03,0.15,0.19,0.48,
0.126,-0.03,0.14,1.04,0.15,0.19,0.48,
0.126,-0.03,0.14,1.04,0.22,0.24,0.55,
0.128,-0.04,0.15,1.03,0.22,0.24,0.55,
0.133,-0.03,0.15,1.02,0.22,0.24,0.55,
0.133,-0.03,0.15,1.02,0.24,0.42,0.64,
0.133,-0.04,0.14,1.02,0.24,0.42,0.64,
0.136,-0.04,0.15,1.02,0.24,0.42,0.64,
0.136,-0.04,0.15,1.02,0.18,0.45,0.56,
0.138,-0.04,0.15,1.01,0.18,0.45,0.56,
0.141,-0.04,0.15,1.02,0.18,0.45,0.56,
0.141,-0.04,0.15,1.02,0.12,0.43,0.47,
0.143,-0.04,0.15,1.01,0.12,0.43,0.47,
0.15,-0.05,0.15,1.01,0.12,0.43,0.47,
0.15,-0.05,0.15,1.01,0.11,0.48,0.45,
0.151,-0.04,0.15,1.01,0.11,0.48,0.45,
0.151,-0.04,0.15,1.01,0.11,0.48,0.45,
0.151,-0.04,0.15,1.01,0.07,0.49,0.40,
0.153,-0.04,0.16,1.01,0.07,0.49,0.40,
0.156,-0.04,0.16,1.01,0.11,0.51,0.41,
0.156,-0.04,0.15,1.01,0.11,0.51,0.41,
0.158,-0.04,0.15,1.00,0.11,0.51,0.41,
0.161,-0.05,0.15,1.01,0.11,0.51,0.41,
0.161,-0.05,0.15,1.01,0.11,0.52,0.35,
0.166,-0.05,0.15,1.00,0.11,0.52,0.35,
0.167,-0.06,0.15,1.00,0.11,0.52,0.35,
0.167,-0.06,0.15,1.00,0.08,0.52,0.33,
0.168,-0.06,0.15,0.99,0.08,0.52,0.33,
0.17,-0.08,0.14,1.00,0.08,0.52,0.33,
0.171,-0.08,0.14,1.00,-0.06,0.46,0.27,
0.173,-0.09,0.13,1.00,-0.06,0.46,0.27,
0.175,-0.09,0.13,1.01,-0.06,0.46,0.27,
0.176,-0.09,0.13,1.01,-0.21,0.42,0.23,
0.178,-0.10,0.13,1.00,-0.21,0.42,0.23,
0.183,-0.11,0.12,1.02,-0.21,0.42,0.23,
0.183,-0.11,0.12,1.02,-0.41,0.29,0.31,
0.183,-0.10,0.13,1.02,-0.41,0.29,0.31,
0.185,-0.11,0.12,1.02,-0.41,0.29,0.31,
0.185,-0.11,0.12,1.02,-0.57,0.26,0.37,
0.187,-0.11,0.13,1.03,-0.57,0.26,0.37,
0.19,-0.10,0.13,1.03,-0.57,0.26,0.37,
0.19,-0.10,0.13,1.03,-0.60,0.26,0.50,
0.192,-0.10,0.13,1.03,-0.60,0.26,0.50,
0.195,-0.10,0.13,1.03,-0.62,0.30,0.54,
0.196,-0.10,0.13,1.04,-0.62,0.30,0.54,
0.199,-0.09,0.14,1.04,-0.62,0.30,0.54,
0.2,-0.09,0.14,1.05,-0.62,0.30,0.54,
0.2,-0.09,0.14,1.05,-0.55,0.35,0.60,
0.202,-0.08,0.15,1.05,-0.55,0.35,0.60,
0.205,-0.08,0.15,1.05,-0.55,0.35,0.60,
0.205,-0.08,0.15,1.05,-0.50,0.42,0.67,
0.207,-0.07,0.15,1.05,-0.50,0.42,0.67,
0.21,-0.08,0.15,1.06,-0.50,0.42,0.67,
0.21,-0.08,0.15,1.06,-0.43,0.49,0.70,
0.212,-0.07,0.15,1.06,-0.43,0.49,0.70,
0.216,-0.06,0.16,1.06,-0.43,0.49,0.70,
0.216,-0.06,0.16,1.06,-0.39,0.52,0.77,
0.217,-0.06,0.15,1.06,-0.39,0.52,0.77,
0.22,-0.06,0.15,1.06,-0.39,0.52,0.77,
0.22,-0.06,0.15,1.06,-0.33,0.55,0.80,
0.222,-0.06,0.15,1.06,-0.33,0.55,0.80,
0.225,-0.05,0.15,1.06,-0.33,0.55,0.80,
0.225,-0.05,0.15,1.06,-0.28,0.52,0.85,
0.227,-0.05,0.14,1.06,-0.28,0.52,0.85,
0.232,-0.04,0.14,1.06,-0.28,0.52,0.85,
0.232,-0.04,0.14,1.06,-0.25,0.51,0.81,
0.232,-0.04,0.14,1.06,-0.25,0.51,0.81,
0.235,-0.03,0.13,1.06,-0.25,0.51,0.81,
0.235,-0.03,0.13,1.06,-0.16,0.43,0.78,
0.237,-0.03,0.13,1.05,-0.16,0.43,0.78,
0.24,-0.02,0.13,1.05,-0.16,0.43,0.78,
0.24,-0.02,0.13,1.05,-0.06,0.36,0.81,
0.242,-0.01,0.13,1.05,-0.06,0.36,0.81,
0.245,-0.01,0.12,1.04,-0.06,0.36,0.81,
0.245,-0.01,0.12,1.04,0.02,0.31,0.68,
0.25,-0.01,0.12,1.03,0.02,0.31,0.68,
0.251,-0.01,0.12,1.03,0.02,0.31,0.68,
0.251,-0.01,0.12,1.03,0.17,0.24,0.58,
0.252,-0.01,0.11,1.02,0.17,0.24,0.58,
0.255,-0.01,0.11,1.01,0.17,0.24,0.58,
0.255,-0.01,0.11,1.01,0.20,0.18,0.47,
0.257,-0.01,0.10,1.00,0.20,0.18,0.47,
0.26,-0.02,0.10,0.98,0.20,0.18,0.47,
0.26,-0.02,0.10,0.98,0.18,0.05,0.33,
0.262,-0.02,0.10,0.98,0.18,0.05,0.33,
0.266,-0.02,0.10,0.97,0.18,0.05,0.33,
0.267,-0.02,0.10,0.97,0.13,-0.03,0.08,
0.267,-0.03,0.10,0.96,0.13,-0.03,0.08,
0.27,-0.03,0.10,0.95,0.13,-0.03,0.08,
0.27,-0.03,0.10,0.95,0.07,-0.07,-0.07,
0.272,-0.03,0.10,0.94,0.07,-0.07,-0.07,
0.275,-0.04,0.10,0.94,0.07,-0.07,-0.07,
0.275,-0.04,0.10,0.94,0.04,-0.09,-0.24,
0.277,-0.05,0.10,0.94,0.04,-0.09,-0.24,
0.279,-0.05,0.10,0.94,0.04,-0.09,-0.24,
0.279,-0.05,0.10,0.94,-0.05,-0.06,-0.38,
0.284,-0.06,0.11,0.94,-0.05,-0.06,-0.38,
0.284,-0.06,0.11,0.94,-0.05,-0.06,-0.38,
0.284,-0.06,0.11,0.94,-0.14,-0.05,-0.43,
0.287,-0.06,0.11,0.93,-0.14,-0.05,-0.43,
0.289,-0.06,0.12,0.95,-0.14,-0.05,-0.43,
0.289,-0.06,0.12,0.95,-0.20,0.00,-0.41,
0.291,-0.07,0.13,0.95,-0.20,0.00,-0.41,
0.294,-0.08,0.13,0.95,-0.20,0.00,-0.41,
0.295,-0.08,0.13,0.95,-0.23,0.09,-0.37,
0.3,-0.08,0.13,0.96,-0.23,0.09,-0.37,
0.3,-0.09,0.13,0.97,-0.23,0.09,-0.37,
0.3,-0.09,0.13,0.97,-0.35,0.18,-0.29,
0.302,-0.10,0.14,0.97,-0.35,0.18,-0.29,
0.304,-0.11,0.13,0.98,-0.35,0.18,-0.29,
0.304,-0.11,0.13,0.98,-0.44,0.25,-0.15,
0.306,-0.12,0.13,0.99,-0.44,0.25,-0.15,
0.309,-0.12,0.13,0.99,-0.61,0.27,-0.02,
0.309,-0.13,0.13,0.99,-0.61,0.27,-0.02,
0.311,-0.13,0.13,1.00,-0.61,0.27,-0.02,
0.316,-0.14,0.13,1.01,-0.61,0.27,-0.02,
0.316,-0.14,0.13,1.01,-0.73,0.27,0.10,
0.316,-0.14,0.13,1.01,-0.73,0.27,0.10,
0.319,-0.15,0.13,1.02,-0.73,0.27,0.10,
0.319,-0.15,0.13,1.02,-0.86,0.23,0.24,
0.321,-0.14,0.13,1.02,-0.86,0.23,0.24,
0.324,-0.14,0.13,1.03,-0.86,0.23,0.24,
0.324,-0.14,0.13,1.03,-0.95,0.28,0.35,
0.327,-0.14,0.14,1.03,-0.95,0.28,0.35,
0.329,-0.15,0.14,1.04,-0.95,0.28,0.35,
0.331,-0.15,0.14,1.04,-0.93,0.32,0.43,
0.335,-0.15,0.14,1.05,-0.93,0.32,0.43,
0.335,-0.14,0.15,1.05,-0.93,0.32,0.43,
0.336,-0.14,0.15,1.05,-0.97,0.39,0.53,
0.336,-0.14,0.15,1.05,-0.97,0.39,0.53,
0.339,-0.15,0.15,1.05,-0.97,0.39,0.53,
0.339,-0.15,0.15,1.05,-0.94,0.46,0.66,
0.341,-0.15,0.15,1.05,-0.94,0.46,0.66,
0.344,-0.15,0.14,1.05,-0.94,0.46,0.66,
0.344,-0.15,0.14,1.05,-0.95,0.49,0.67,
0.346,-0.15,0.14,1.04,-0.95,0.49,0.67,
0.351,-0.15,0.14,1.04,-0.99,0.51,0.66,
0.351,-0.15,0.14,1.04,-0.99,0.51,0.66,
0.351,-0.17,0.14,1.03,-0.99,0.51,0.66,
0.354,-0.17,0.14,1.03,-1.05,0.46,0.57,
0.354,-0.17,0.13,1.03,-1.05,0.46,0.57,
0.356,-0.18,0.13,1.03,-1.05,0.46,0.57,
0.359,-0.18,0.13,1.03,-1.17,0.36,0.47,
0.359,-0.18,0.12,1.02,-1.17,0.36,0.47,
0.361,-0.19,0.12,1.02,-1.17,0.36,0.47,
0.366,-0.19,0.12,1.02,-1.31,0.32,0.39,
0.367,-0.20,0.12,1.01,-1.31,0.32,0.39,
0.367,-0.21,0.11,1.00,-1.31,0.32,0.39,
0.368,-0.22,0.11,1.00,-1.31,0.32,0.39,
0.368,-0.22,0.11,1.00,-1.45,0.25,0.31,
0.371,-0.23,0.12,1.00,-1.45,0.25,0.31,
0.373,-0.23,0.12,1.00,-1.45,0.25,0.31,
0.374,-0.23,0.12,1.00,-1.62,0.19,0.17,
0.376,-0.24,0.11,0.99,-1.62,0.19,0.17,
0.378,-0.25,0.12,0.99,-1.62,0.19,0.17,
0.378,-0.25,0.12,0.99,-1.76,0.22,0.13,
0.384,-0.26,0.12,0.98,-1.76,0.22,0.13,
0.384,-0.26,0.12,0.99,-1.76,0.22,0.13,
0.384,-0.26,0.12,0.99,-1.88,0.20,0.03,
0.385,-0.27,0.12,0.99,-1.88,0.20,0.03,
0.388,-0.27,0.12,0.99,-1.88,0.20,0.03,
0.388,-0.27,0.12,0.99,-2.01,0.24,0.01,
0.39,-0.28,0.13,0.99,-2.01,0.24,0.01,
0.393,-0.28,0.12,0.99,-2.01,0.24,0.01,
0.393,-0.28,0.12,0.99,-2.10,0.26,0.05,
0.395,-0.28,0.13,1.00,-2.10,0.26,0.05,
0.4,-0.28,0.13,1.00,-2.10,0.26,0.05,
0.4,-0.28,0.13,1.00,-2.18,0.29,0.05,
0.4,-0.28,0.14,1.00,-2.18,0.29,0.05,
0.403,-0.28,0.14,1.00,-2.18,0.29,0.05,
0.403,-0.28,0.14,1.00,-2.14,0.33,0.12,
0.405,-0.27,0.15,1.01,-2.14,0.33,0.12,
0.408,-0.26,0.16,1.02,-2.14,0.33,0.12,
0.408,-0.26,0.16,1.02,-2.08,0.43,0.18,
0.41,-0.25,0.16,1.02,-2.08,0.43,0.18,
0.413,-0.24,0.17,1.02,-2.08,0.43,0.18,
0.413,-0.24,0.17,1.02,-1.96,0.56,0.29,
0.416,-0.24,0.17,1.03,-1.96,0.56,0.29,
0.418,-0.23,0.17,1.03,-1.96,0.56,0.29,
0.418,-0.23,0.17,1.03,-1.80,0.67,0.30,
0.42,-0.22,0.17,1.02,-1.80,0.67,0.30,
0.423,-0.21,0.17,1.03,-1.80,0.67,0.30,
0.423,-0.21,0.17,1.03,-1.61,0.71,0.38,
0.425,-0.21,0.16,1.03,-1.61,0.71,0.38,
0.428,-0.20,0.15,1.03,-1.61,0.71,0.38,
0.428,-0.20,0.15,1.03,-1.45,0.67,0.38,
0.43,-0.19,0.15,1.03,-1.45,0.67,0.38,
0.434,-0.18,0.14,1.03,-1.45,0.67,0.38,
0.434,-0.18,0.14,1.03,-1.32,0.58,0.42,
0.435,-0.19,0.13,1.03,-1.32,0.58,0.42,
0.438,-0.19,0.13,1.03,-1.17,0.48,0.39,
0.438,-0.18,0.12,1.02,-1.17,0.48,0.39,
0.44,-0.17,0.12,1.01,-1.17,0.48,0.39,
0.443,-0.17,0.11,1.01,-1.17,0.48,0.39,
0.443,-0.17,0.11,1.01,-1.13,0.29,0.34,
0.445,-0.17,0.11,1.00,-1.13,0.29,0.34,
0.455,-0.17,0.11,1.00,-1.02,0.17,0.21,
0.455,-0.17,0.10,1.00,-1.02,0.17,0.21,
0.455,-0.17,0.10,0.98,-1.02,0.17,0.21,
0.456,-0.17,0.10,0.98,-1.00,0.04,0.12,
0.456,-0.17,0.09,0.98,-1.00,0.04,0.12,
0.456,-0.16,0.09,0.97,-1.00,0.04,0.12,
0.458,-0.16,0.10,0.97,-1.00,0.04,0.12,
0.458,-0.16,0.10,0.97,-0.99,-0.06,-0.09,
0.46,-0.15,0.10,0.96,-0.99,-0.06,-0.09,
0.463,-0.15,0.10,0.96,-0.99,-0.06,-0.09,
0.463,-0.15,0.10,0.96,-0.91,-0.04,-0.17,
0.47,-0.14,0.11,0.95,-0.91,-0.04,-0.17,
0.471,-0.13,0.12,0.94,-0.91,-0.04,-0.17,
0.471,-0.13,0.12,0.94,-0.80,0.01,-0.29,
0.471,-0.13,0.12,0.94,-0.80,0.01,-0.29,
0.473,-0.13,0.12,0.94,-0.68,0.14,-0.38,
0.473,-0.13,0.13,0.93,-0.68,0.14,-0.38,
0.475,-0.12,0.14,0.93,-0.68,0.14,-0.38,
0.477,-0.12,0.15,0.93,-0.68,0.14,-0.38,
0.478,-0.12,0.15,0.93,-0.61,0.24,-0.48,
0.48,-0.12,0.15,0.92,-0.61,0.24,-0.48,
0.489,-0.12,0.15,0.92,-0.53,0.38,-0.55,
0.489,-0.12,0.15,0.92,-0.53,0.38,-0.55,
0.489,-0.13,0.15,0.92,-0.53,0.38,-0.55,
0.49,-0.13,0.15,0.92,-0.53,0.38,-0.55,
0.49,-0.13,0.15,0.92,-0.55,0.47,-0.62,
0.49,-0.13,0.15,0.91,-0.55,0.47,-0.62,
0.492,-0.13,0.15,0.91,-0.55,0.47,-0.62,
0.492,-0.13,0.15,0.91,-0.62,0.43,-0.67,
0.495,-0.14,0.15,0.91,-0.62,0.43,-0.67,
0.497,-0.15,0.15,0.91,-0.62,0.43,-0.67,
0.498,-0.15,0.15,0.91,-0.70,0.47,-0.73,
0.502,-0.15,0.15,0.90,-0.70,0.47,-0.73,
0.503,-0.15,0.15,0.90,-0.83,0.43,-0.74,
0.504,-0.16,0.14,0.90,-0.83,0.43,-0.74,
0.504,-0.17,0.14,0.89,-0.83,0.43,-0.74,
0.512,-0.17,0.14,0.88,-0.83,0.43,-0.74,
0.513,-0.17,0.14,0.88,-0.90,0.38,-0.84,
0.513,-0.17,0.14,0.88,-0.90,0.38,-0.84,
0.513,-0.17,0.14,0.88,-0.90,0.38,-0.84,
0.513,-0.17,0.14,0.88,-1.04,0.35,-0.95,
0.517,-0.17,0.14,0.88,-1.04,0.35,-0.95,
0.518,-0.17,0.15,0.88,-1.04,0.35,-0.95,
0.518,-0.17,0.15,0.88,-1.06,0.30,-1.01,
0.519,-0.17,0.15,0.88,-1.06,0.30,-1.01,
0.522,-0.17,0.15,0.88,-1.09,0.39,-1.02,
0.522,-0.16,0.16,0.89,-1.09,0.39,-1.02,
0.524,-0.16,0.17,0.89,-1.09,0.39,-1.02,
0.529,-0.15,0.18,0.89,-1.09,0.39,-1.02,
0.529,-0.15,0.18,0.89,-1.03,0.48,-0.96,
0.53,-0.15,0.18,0.89,-1.03,0.48,-0.96,
0.534,-0.15,0.18,0.89,-1.03,0.48,-0.96,
0.534,-0.15,0.18,0.89,-0.93,0.63,-0.93,
0.535,-0.15,0.19,0.89,-0.93,0.63,-0.93,
0.537,-0.15,0.19,0.89,-0.84,0.74,-0.89,
0.537,-0.14,0.19,0.89,-0.84,0.74,-0.89,
0.539,-0.14,0.18,0.89,-0.84,0.74,-0.89,
0.542,-0.15,0.18,0.89,-0.84,0.74,-0.89,
0.542,-0.15,0.18,0.89,-0.82,0.78,-0.90,
0.544,-0.15,0.17,0.89,-0.82,0.78,-0.90,
0.547,-0.15,0.17,0.89,-0.80,0.68,-0.90,
0.547,-0.15,0.16,0.89,-0.80,0.68,-0.90,
0.553,-0.15,0.15,0.88,-0.80,0.68,-0.90,
0.553,-0.16,0.14,0.88,-0.80,0.68,-0.90,
0.554,-0.16,0.14,0.88,-0.83,0.54,-0.92,
0.554,-0.16,0.14,0.88,-0.83,0.54,-0.92,
0.557,-0.16,0.13,0.88,-0.83,0.54,-0.92,
0.557,-0.16,0.13,0.88,-0.90,0.37,-0.96,
0.559,-0.16,0.13,0.88,-0.90,0.37,-0.96,
0.562,-0.15,0.12,0.88,-0.90,0.37,-0.96,
0.562,-0.15,0.12,0.88,-0.92,0.24,-0.97,
0.564,-0.15,0.12,0.88,-0.92,0.24,-0.97,
0.569,-0.15,0.11,0.88,-0.92,0.24,-0.97,
0.57,-0.15,0.11,0.88,-0.89,0.15,-1.00,
0.57,-0.15,0.11,0.89,-0.89,0.15,-1.00,
0.572,-0.15,0.11,0.89,-0.88,0.07,-0.97,
0.572,-0.15,0.11,0.89,-0.88,0.07,-0.97,
0.574,-0.14,0.10,0.89,-0.88,0.07,-0.97,
0.577,-0.14,0.10,0.89,-0.82,0.01,-0.90,
0.577,-0.13,0.10,0.90,-0.82,0.01,-0.90,
0.578,-0.13,0.10,0.90,-0.82,0.01,-0.90,
0.587,-0.13,0.10,0.90,-0.71,-0.04,-0.86,
0.587,-0.12,0.10,0.91,-0.71,-0.04,-0.86,
0.587,-0.11,0.11,0.91,-0.71,-0.04,-0.86,
0.587,-0.10,0.11,0.92,-0.71,-0.04,-0.86,
0.587,-0.10,0.11,0.92,-0.57,-0.03,-0.72,
0.589,-0.10,0.12,0.92,-0.57,-0.03,-0.72,
0.592,-0.09,0.12,0.94,-0.57,-0.03,-0.72,
0.592,-0.09,0.12,0.94,-0.45,0.04,-0.59,
0.594,-0.08,0.11,0.94,-0.45,0.04,-0.59,
0.596,-0.08,0.11,0.94,-0.31,0.11,-0.46,
0.597,-0.08,0.12,0.95,-0.31,0.11,-0.46,
0.598,-0.06,0.13,0.96,-0.31,0.11,-0.46,
0.602,-0.06,0.13,0.96,-0.16,0.11,-0.30,
0.602,-0.06,0.13,0.97,-0.16,0.11,-0.30,
0.603,-0.05,0.13,0.98,-0.16,0.11,-0.30,
0.606,-0.05,0.13,0.99,-0.16,0.11,-0.30,
0.607,-0.05,0.13,0.99,0.01,0.21,-0.13,
0.609,-0.04,0.13,0.99,0.01,0.21,-0.13,
0.611,-0.03,0.13,0.99,0.01,0.21,-0.13,
0.611,-0.03,0.13,0.99,0.15,0.24,0.06,
0.613,-0.02,0.13,0.99,0.15,0.24,0.06,
0.618,-0.02,0.12,0.99,0.15,0.24,0.06,
0.619,-0.02,0.12,0.99,0.28,0.23,0.13,
0.619,-0.02,0.12,0.99,0.28,0.23,0.13,
0.621,-0.02,0.12,0.99,0.38,0.19,0.16,
0.621,-0.02,0.11,0.99,0.38,0.19,0.16,
0.623,-0.02,0.10,0.98,0.38,0.19,0.16,
0.626,-0.02,0.10,0.98,0.38,0.19,0.16,
0.626,-0.02,0.10,0.98,0.43,0.04,0.15,
0.628,-0.02,0.09,0.98,0.43,0.04,0.15,
0.631,-0.02,0.08,0.97,0.43,0.04,0.15,
0.631,-0.02,0.08,0.97,0.45,-0.08,0.06,
0.636,-0.02,0.08,0.97,0.45,-0.08,0.06,
0.637,-0.02,0.07,0.96,0.45,-0.08,0.06,
0.637,-0.02,0.07,0.96,0.46,-0.22,0.00,
0.638,-0.03,0.07,0.95,0.46,-0.22,0.00,
0.641,-0.03,0.07,0.95,0.46,-0.22,0.00,
0.641,-0.03,0.07,0.95,0.44,-0.34,-0.09,
0.643,-0.04,0.05,0.94,0.44,-0.34,-0.09,
0.646,-0.04,0.05,0.94,0.34,-0.42,-0.26,
0.646,-0.05,0.05,0.93,0.34,-0.42,-0.26,
0.648,-0.06,0.05,0.92,0.34,-0.42,-0.26,
0.657,-0.06,0.05,0.92,0.34,-0.42,-0.26,
0.658,-0.06,0.05,0.92,0.22,-0.59,-0.40,
0.658,-0.06,0.04,0.91,0.22,-0.59,-0.40,
0.658,-0.07,0.04,0.91,0.22,-0.59,-0.40,
0.658,-0.07,0.04,0.91,0.08,-0.64,-0.56,
0.659,-0.06,0.04,0.90,0.08,-0.64,-0.56,
0.661,-0.06,0.04,0.90,0.02,-0.72,-0.66,
0.661,-0.07,0.04,0.89,0.02,-0.72,-0.66,
0.663,-0.07,0.04,0.90,0.02,-0.72,-0.66,
0.672,-0.06,0.05,0.89,0.02,-0.72,-0.66,
0.672,-0.06,0.05,0.89,0.04,-0.73,-0.76,
0.672,-0.06,0.05,0.89,0.04,-0.73,-0.76,
0.672,-0.06,0.05,0.89,0.01,-0.68,-0.79,
0.673,-0.06,0.05,0.89,0.01,-0.68,-0.79,
0.673,-0.06,0.06,0.89,0.01,-0.68,-0.79,
0.676,-0.06,0.06,0.90,0.01,-0.68,-0.79,
0.676,-0.06,0.06,0.90,0.06,-0.63,-0.86,
0.678,-0.05,0.07,0.90,0.06,-0.63,-0.86,
0.68,-0.03,0.07,0.90,0.06,-0.63,-0.86,
0.681,-0.03,0.07,0.90,0.11,-0.55,-0.76,
0.689,-0.02,0.08,0.90,0.11,-0.55,-0.76,
0.69,-0.01,0.08,0.90,0.11,-0.55,-0.76,
0.69,-0.01,0.08,0.90,0.28,-0.48,-0.70,
0.69,-0.01,0.09,0.91,0.28,-0.48,-0.70,
0.691,0.00,0.09,0.91,0.28,-0.48,-0.70,
0.691,0.00,0.09,0.91,0.49,-0.36,-0.73,
0.693,0.01,0.10,0.91,0.49,-0.36,-0.73,
0.695,0.01,0.10,0.91,0.63,-0.25,-0.64,
0.696,0.02,0.11,0.91,0.63,-0.25,-0.64,
0.697,0.02,0.11,0.91,0.63,-0.25,-0.64,
0.703,0.02,0.11,0.91,0.81,-0.12,-0.60,
0.704,0.03,0.12,0.91,0.81,-0.12,-0.60,
0.704,0.03,0.12,0.91,0.81,-0.12,-0.60,
0.705,0.03,0.12,0.91,0.95,-0.04,-0.60,
0.705,0.04,0.12,0.91,0.95,-0.04,-0.60,
0.708,0.04,0.12,0.92,0.95,-0.04,-0.60,
0.71,0.04,0.12,0.92,0.95,-0.04,-0.60,
0.71,0.04,0.12,0.92,1.03,0.05,-0.58,
0.712,0.04,0.11,0.92,1.03,0.05,-0.58,
0.716,0.03,0.11,0.92,1.03,0.05,-0.58,
0.717,0.03,0.11,0.92,1.04,0.01,-0.53,
0.718,0.04,0.11,0.93,1.04,0.01,-0.53,
0.72,0.04,0.11,0.93,1.03,-0.05,-0.47,
0.72,0.03,0.10,0.94,1.03,-0.05,-0.47,
0.722,0.03,0.10,0.94,1.03,-0.05,-0.47,
0.725,0.03,0.10,0.94,1.02,-0.12,-0.35,
0.725,0.03,0.10,0.95,1.02,-0.12,-0.35,
0.727,0.03,0.09,0.95,1.02,-0.12,-0.35,
0.73,0.03,0.08,0.95,1.02,-0.12,-0.35,
0.73,0.03,0.08,0.95,1.01,-0.19,-0.25,
0.737,0.03,0.08,0.96,1.01,-0.19,-0.25,
0.738,0.04,0.07,0.96,1.01,-0.19,-0.25,
0.738,0.04,0.07,0.96,0.98,-0.33,-0.17,
0.738,0.03,0.06,0.96,0.98,-0.33,-0.17,
0.74,0.03,0.06,0.97,0.98,-0.33,-0.17,
0.74,0.03,0.06,0.97,1.04,-0.43,-0.13,
0.742,0.03,0.05,0.98,1.04,-0.43,-0.13,
0.745,0.03,0.05,0.98,0.99,-0.54,-0.03,
0.745,0.03,0.04,0.99,0.99,-0.54,-0.03,
0.747,0.03,0.03,1.00,0.99,-0.54,-0.03,
0.759,0.04,0.02,1.00,0.99,-0.54,-0.03,
0.759,0.04,0.02,1.00,1.02,-0.72,0.14,
0.759,0.04,0.02,1.01,1.02,-0.72,0.14,
0.76,0.05,0.02,1.01,1.02,-0.72,0.14,
0.76,0.05,0.02,1.01,1.06,-0.83,0.28,
0.76,0.05,0.01,1.02,1.06,-0.83,0.28,
0.76,0.04,0.01,1.02,1.06,-0.83,0.28,
0.761,0.04,0.01,1.02,1.16,-0.92,0.39,
0.762,0.04,0.00,1.03,1.16,-0.92,0.39,
0.765,0.04,-0.01,1.03,1.16,-0.92,0.39,
0.765,0.04,-0.01,1.03,1.13,-0.99,0.48,
0.774,0.04,-0.01,1.03,1.13,-0.99,0.48,
0.775,0.04,-0.01,1.03,1.10,-1.07,0.53,
0.775,0.03,-0.01,1.03,1.10,-1.07,0.53,
0.775,0.04,-0.02,1.02,1.10,-1.07,0.53,
0.776,0.04,-0.02,1.02,1.10,-1.07,0.53,
0.776,0.04,-0.02,1.02,1.04,-1.16,0.53,
0.777,0.03,-0.02,1.02,1.04,-1.16,0.53,
0.779,0.03,-0.02,1.02,1.04,-1.16,0.53,
0.78,0.03,-0.02,1.02,1.04,-1.20,0.50,
0.782,0.03,-0.02,1.01,1.04,-1.20,0.50,
0.792,0.03,-0.02,1.01,1.04,-1.20,0.50,
0.792,0.03,-0.02,1.01,1.00,-1.20,0.44,
0.793,0.03,-0.01,1.00,1.00,-1.20,0.44,
0.793,0.03,-0.01,0.99,1.00,-1.20,0.44,
0.793,0.03,-0.01,0.99,0.98,-1.20,0.34,
0.793,0.04,-0.00,0.99,0.98,-1.20,0.34,
0.794,0.04,-0.00,0.99,1.00,-1.11,0.20,
0.795,0.05,0.01,0.98,1.00,-1.11,0.20,
0.797,0.05,0.01,0.97,1.00,-1.11,0.20,
0.807,0.06,0.02,0.97,1.00,-1.11,0.20,
0.807,0.06,0.02,0.97,1.12,-1.02,0.10,
0.807,0.07,0.03,0.96,1.12,-1.02,0.10,
0.808,0.07,0.03,0.96,1.27,-0.90,-0.02,
0.808,0.07,0.04,0.95,1.27,-0.90,-0.02,
0.808,0.08,0.05,0.94,1.27,-0.90,-0.02,
0.809,0.09,0.06,0.93,1.27,-0.90,-0.02,
0.809,0.09,0.06,0.93,1.39,-0.71,-0.15,
0.811,0.08,0.07,0.92,1.39,-0.71,-0.15,
0.814,0.09,0.08,0.91,1.39,-0.71,-0.15,
0.814,0.09,0.08,0.91,1.52,-0.53,-0.36,
0.822,0.09,0.08,0.91,1.52,-0.53,-0.36,
0.823,0.09,0.08,0.91,1.54,-0.36,-0.55,
0.823,0.08,0.09,0.89,1.54,-0.36,-0.55,
0.824,0.08,0.10,0.89,1.54,-0.36,-0.55,
0.824,0.09,0.10,0.88,1.54,-0.36,-0.55,
0.828,0.09,0.10,0.88,1.55,-0.23,-0.70,
0.828,0.08,0.10,0.88,1.55,-0.23,-0.70,
0.83,0.08,0.11,0.88,1.55,-0.23,-0.70,
0.831,0.08,0.11,0.88,1.53,-0.13,-0.83,
0.831,0.09,0.12,0.87,1.53,-0.13,-0.83,
0.84,0.09,0.11,0.87,1.53,-0.13,-0.83,
0.841,0.09,0.11,0.87,1.53,-0.06,-0.89,
0.842,0.08,0.11,0.88,1.53,-0.06,-0.89,
0.842,0.08,0.11,0.87,1.53,-0.06,-0.89,
0.842,0.08,0.11,0.87,1.59,0.00,-0.94,
0.843,0.08,0.11,0.87,1.59,0.00,-0.94,
0.844,0.08,0.11,0.87,1.52,-0.04,-0.93,
0.844,0.08,0.10,0.87,1.52,-0.04,-0.93,
0.846,0.07,0.09,0.88,1.52,-0.04,-0.93,
0.849,0.07,0.09,0.88,1.52,-0.04,-0.93,
0.849,0.07,0.09,0.88,1.47,-0.11,-0.94,
0.862,0.07,0.08,0.89,1.47,-0.11,-0.94,
0.862,0.07,0.07,0.90,1.47,-0.11,-0.94,
0.862,0.07,0.07,0.90,1.41,-0.24,-0.88,
0.862,0.07,0.07,0.91,1.41,-0.24,-0.88,
0.862,0.08,0.06,0.91,1.41,-0.24,-0.88,
0.863,0.08,0.06,0.91,1.38,-0.34,-0.69,
0.863,0.08,0.06,0.92,1.38,-0.34,-0.69,
0.864,0.08,0.06,0.93,1.38,-0.34,-0.69,
0.864,0.08,0.06,0.93,1.42,-0.44,-0.56,
0.866,0.08,0.05,0.94,1.42,-0.44,-0.56,
0.872,0.08,0.05,0.94,1.46,-0.51,-0.40,
0.873,0.09,0.04,0.95,1.46,-0.51,-0.40,
0.873,0.09,0.03,0.96,1.46,-0.51,-0.40,
0.875,0.09,0.03,0.96,1.54,-0.61,-0.21,
0.875,0.10,0.03,0.97,1.54,-0.61,-0.21,
0.876,0.10,0.02,0.98,1.54,-0.61,-0.21,
0.878,0.10,0.02,0.98,1.54,-0.61,-0.21,
0.878,0.10,0.02,0.98,1.61,-0.75,-0.03,
0.881,0.11,0.01,0.99,1.61,-0.75,-0.03,
0.889,0.11,0.00,1.00,1.61,-0.75,-0.03,
0.889,0.11,0.00,1.00,1.72,-0.87,0.13,
0.889,0.11,-0.01,1.01,1.72,-0.87,0.13,
0.889,0.12,-0.00,1.01,1.72,-0.87,0.13,
0.889,0.12,-0.00,1.01,1.78,-0.97,0.29,
0.89,0.12,-0.01,1.01,1.78,-0.97,0.29,
0.894,0.12,-0.01,1.01,1.85,-1.05,0.38,
0.894,0.13,-0.01,1.01,1.85,-1.05,0.38,
0.896,0.13,-0.01,1.01,1.85,-1.05,0.38,
0.898,0.13,-0.01,1.01,1.91,-1.05,0.42,
0.899,0.13,-0.01,1.01,1.91,-1.05,0.42,
0.904,0.13,-0.01,1.01,1.91,-1.05,0.42,
0.904,0.13,-0.01,1.01,1.91,-1.05,0.42,
0.904,0.13,-0.01,1.01,1.95,-1.07,0.41,
0.906,0.13,-0.01,1.00,1.95,-1.07,0.41,
0.908,0.13,-0.01,1.00,1.98,-1.05,0.38,
0.909,0.13,-0.01,1.00,1.98,-1.05,0.38,
0.911,0.13,-0.01,0.99,1.98,-1.05,0.38,
0.913,0.13,-0.00,0.99,1.98,-1.05,0.38,
0.914,0.13,-0.00,0.99,1.97,-1.02,0.28,
0.915,0.13,0.00,0.98,1.97,-1.02,0.28,
0.92,0.13,0.00,0.98,1.99,-0.98,0.21,
0.92,0.13,-0.00,0.98,1.99,-0.98,0.21,
0.92,0.14,0.00,0.97,1.99,-0.98,0.21,
0.924,0.14,0.00,0.97,1.99,-0.98,0.21,
0.924,0.14,0.00,0.97,2.00,-0.93,0.11,
0.926,0.14,0.00,0.96,2.00,-0.93,0.11,
0.928,0.14,0.01,0.96,2.00,-0.93,0.11,
0.928,0.14,0.01,0.96,2.02,-0.92,0.01,
0.931,0.14,0.00,0.94,2.02,-0.92,0.01,
0.933,0.14,0.00,0.94,2.02,-0.92,0.01,
0.933,0.14,0.00,0.94,2.06,-0.89,-0.10,
0.937,0.14,-0.00,0.93,2.06,-0.89,-0.10,
0.938,0.14,0.01,0.91,2.06,-0.89,-0.10,
0.938,0.14,0.01,0.91,2.05,-0.89,-0.30,
0.94,0.14,0.01,0.90,2.05,-0.89,-0.30,
0.943,0.14,0.01,0.90,2.00,-0.91,-0.48,
0.943,0.13,-0.00,0.90,2.00,-0.91,-0.48,
0.945,0.13,0.00,0.89,2.00,-0.91,-0.48,
0.948,0.13,0.00,0.88,2.00,-0.91,-0.48,
0.948,0.13,0.00,0.88,1.96,-0.91,-0.67,
0.955,0.13,0.00,0.87,1.96,-0.91,-0.67,
0.956,0.12,0.00,0.87,1.96,-0.91,-0.67,
0.956,0.12,0.00,0.87,1.90,-0.93,-0.81,
0.956,0.12,0.00,0.86,1.90,-0.93,-0.81,
0.958,0.12,0.00,0.86,1.83,-0.94,-0.95,
0.958,0.12,0.01,0.86,1.83,-0.94,-0.95,
0.96,0.12,0.01,0.86,1.83,-0.94,-0.95,
0.963,0.12,0.01,0.86,1.79,-0.93,-1.03,
0.963,0.13,0.01,0.86,1.79,-0.93,-1.03,
0.965,0.13,0.02,0.86,1.79,-0.93,-1.03,
0.971,0.13,0.02,0.86,1.84,-0.88,-1.02,
0.971,0.13,0.02,0.86,1.84,-0.88,-1.02,
0.971,0.13,0.03,0.86,1.84,-0.88,-1.02,
0.973,0.13,0.03,0.86,1.88,-0.80,-1.02,
0.973,0.13,0.03,0.87,1.88,-0.80,-1.02,
0.975,0.13,0.03,0.86,1.88,-0.80,-1.02,
0.978,0.13,0.03,0.86,1.88,-0.72,-0.99,
0.978,0.14,0.03,0.87,1.88,-0.72,-0.99,
0.98,0.14,0.04,0.86,1.88,-0.72,-0.99,
0.982,0.14,0.04,0.87,1.88,-0.72,-0.99,
0.982,0.14,0.04,0.87,1.94,-0.67,-0.98,
0.988,0.14,0.04,0.88,1.94,-0.67,-0.98,
0.988,0.14,0.04,0.88,1.94,-0.67,-0.98,
0.988,0.14,0.04,0.88,1.94,-0.59,-0.96,
0.99,0.15,0.04,0.89,1.94,-0.59,-0.96,
0.992,0.15,0.04,0.89,1.98,-0.57,-0.86,
0.992,0.15,0.04,0.89,1.98,-0.57,-0.86,
0.995,0.15,0.04,0.90,1.98,-0.57,-0.86,
0.998,0.16,0.03,0.90,1.98,-0.57,-0.86,
0.998,0.16,0.03,0.90,2.07,-0.55,-0.75,
1.0,0.16,0.03,0.90,2.07,-0.55,-0.75,
1.007,0.16,0.03,0.90,2.13,-0.59,-0.64,
1.007,0.17,0.04,0.91,2.13,-0.59,-0.64,
1.007,0.17,0.03,0.91,2.13,-0.59,-0.64,
1.007,0.18,0.02,0.91,2.13,-0.59,-0.64,
1.007,0.18,0.02,0.91,2.20,-0.60,-0.59,
1.01,0.19,0.03,0.92,2.20,-0.60,-0.59,
1.013,0.19,0.02,0.92,2.20,-0.60,-0.59,
1.013,0.19,0.02,0.92,2.31,-0.65,-0.54,
1.015,0.20,0.02,0.92,2.31,-0.65,-0.54,
1.024,0.20,0.02,0.92,2.42,-0.66,-0.45,
1.024,0.20,0.02,0.92,2.42,-0.66,-0.45,
1.025,0.21,0.02,0.92,2.42,-0.66,-0.45,
1.025,0.21,0.03,0.92,2.42,-0.66,-0.45,
1.025,0.21,0.03,0.92,2.54,-0.70,-0.43,
1.025,0.22,0.03,0.92,2.54,-0.70,-0.43,
1.028,0.22,0.03,0.92,2.54,-0.70,-0.43,
1.028,0.22,0.03,0.92,2.64,-0.67,-0.41,
1.03,0.23,0.03,0.92,2.64,-0.67,-0.41,
1.033,0.23,0.04,0.91,2.64,-0.67,-0.41,
1.033,0.23,0.04,0.91,2.74,-0.59,-0.46,
1.041,0.23,0.04,0.91,2.74,-0.59,-0.46,
1.042,0.23,0.04,0.91,2.74,-0.59,-0.46,
1.042,0.23,0.04,0.91,2.82,-0.54,-0.49,
1.042,0.23,0.04,0.90,2.82,-0.54,-0.49,
1.043,0.23,0.04,0.90,2.85,-0.46,-0.56,
1.043,0.22,0.04,0.89,2.85,-0.46,-0.56,
1.044,0.22,0.04,0.88,2.85,-0.46,-0.56,
1.047,0.22,0.04,0.89,2.85,-0.46,-0.56,
1.047,0.22,0.04,0.89,2.81,-0.49,-0.66,
1.049,0.22,0.05,0.89,2.81,-0.49,-0.66,
1.061,0.22,0.05,0.89,2.77,-0.48,-0.75,
1.062,0.22,0.04,0.88,2.77,-0.48,-0.75,
1.062,0.21,0.04,0.88,2.77,-0.48,-0.75,
1.062,0.20,0.04,0.88,2.77,-0.48,-0.75,
1.062,0.20,0.04,0.88,2.76,-0.44,-0.77,
1.063,0.21,0.04,0.88,2.76,-0.44,-0.77,
1.063,0.21,0.04,0.87,2.76,-0.44,-0.77,
1.063,0.21,0.04,0.87,2.69,-0.46,-0.83,
1.064,0.20,0.04,0.87,2.69,-0.46,-0.83,
1.067,0.20,0.04,0.87,2.67,-0.52,-0.83,
1.067,0.20,0.04,0.88,2.67,-0.52,-0.83,
1.076,0.20,0.03,0.88,2.67,-0.52,-0.83,
1.076,0.20,0.03,0.88,2.67,-0.52,-0.83,
1.077,0.20,0.03,0.88,2.64,-0.51,-0.84,
1.077,0.20,0.02,0.89,2.64,-0.51,-0.84,
1.077,0.20,0.02,0.89,2.64,-0.51,-0.84,
1.077,0.20,0.02,0.89,2.60,-0.57,-0.80,
1.079,0.20,0.02,0.90,2.60,-0.57,-0.80,
1.081,0.20,0.01,0.91,2.60,-0.57,-0.80,
1.082,0.20,0.01,0.91,2.59,-0.62,-0.71,
1.084,0.20,0.01,0.91,2.59,-0.62,-0.71,
1.094,0.20,0.01,0.92,2.59,-0.62,-0.71,
1.094,0.20,0.01,0.92,2.62,-0.67,-0.58,
1.094,0.20,0.01,0.93,2.62,-0.67,-0.58,
1.095,0.21,0.01,0.95,2.62,-0.67,-0.58,
1.095,0.21,0.01,0.95,2.59,-0.66,-0.42,
1.095,0.21,0.02,0.95,2.59,-0.66,-0.42,
1.096,0.21,0.01,0.96,2.59,-0.66,-0.42,
1.096,0.21,0.01,0.96,2.66,-0.66,-0.22,
1.098,0.21,0.02,0.97,2.66,-0.66,-0.22,
1.109,0.21,0.02,0.98,2.66,-0.66,-0.22,
1.109,0.21,0.02,0.98,2.74,-0.61,-0.05,
1.109,0.21,0.02,1.00,2.74,-0.61,-0.05,
1.11,0.21,0.02,1.00,2.74,-0.61,-0.05,
1.11,0.21,0.02,1.00,2.72,-0.52,0.17,
1.11,0.21,0.03,1.01,2.72,-0.52,0.17,
1.111,0.21,0.02,1.01,2.72,-0.52,0.17,
1.112,0.21,0.02,1.01,2.73,-0.48,0.38,
1.114,0.21,0.03,1.02,2.73,-0.48,0.38,
1.116,0.21,0.03,1.01,2.73,-0.48,0.38,
1.116,0.21,0.03,1.01,2.74,-0.43,0.49,
1.127,0.21,0.03,1.02,2.74,-0.43,0.49,
1.127,0.21,0.02,1.03,2.74,-0.43,0.49,
1.128,0.21,0.02,1.03,2.74,-0.38,0.52,
1.128,0.22,0.02,1.03,2.74,-0.38,0.52,
1.128,0.22,0.03,1.03,2.74,-0.38,0.52,
1.128,0.22,0.03,1.03,2.74,-0.36,0.61,
1.128,0.22,0.02,1.02,2.74,-0.36,0.61,
1.132,0.21,0.02,1.02,2.74,-0.36,0.61,
1.132,0.21,0.02,1.02,2.82,-0.36,0.63,
1.134,0.21,0.02,1.01,2.82,-0.36,0.63,
1.142,0.22,0.01,1.01,2.82,-0.36,0.63,
1.142,0.22,0.01,1.01,2.75,-0.36,0.55,
1.143,0.21,0.01,1.01,2.75,-0.36,0.55,
1.143,0.20,0.00,1.00,2.75,-0.36,0.55,
1.143,0.20,0.00,1.00,2.73,-0.41,0.48,
1.143,0.20,-0.00,0.99,2.73,-0.41,0.48,
1.147,0.20,-0.01,0.98,2.73,-0.41,0.48,
1.147,0.20,-0.01,0.98,2.64,-0.48,0.39,
1.149,0.20,-0.01,0.98,2.64,-0.48,0.39,
1.151,0.20,-0.01,0.97,2.64,-0.48,0.39,
1.152,0.20,-0.01,0.97,2.62,-0.58,0.23,
1.163,0.20,-0.02,0.97,2.62,-0.58,0.23,
1.167,0.20,-0.02,0.96,2.62,-0.58,0.23,
1.167,0.20,-0.02,0.96,2.55,-0.63,0.15,
1.167,0.20,-0.02,0.96,2.55,-0.63,0.15,
1.167,0.19,-0.02,0.95,2.55,-0.63,0.15,
1.168,0.19,-0.02,0.95,2.55,-0.68,0.01,
1.168,0.19,-0.01,0.94,2.55,-0.68,0.01,
1.168,0.19,-0.01,0.94,2.53,-0.67,-0.12,
1.168,0.19,-0.02,0.94,2.53,-0.67,-0.12,
1.169,0.18,-0.02,0.93,2.53,-0.67,-0.12,
1.176,0.17,-0.02,0.93,2.53,-0.67,-0.12,
1.177,0.17,-0.02,0.93,2.46,-0.65,-0.21,
1.177,0.17,-0.02,0.93,2.46,-0.65,-0.21,
1.177,0.16,-0.02,0.93,2.46,-0.65,-0.21,
1.177,0.16,-0.02,0.93,2.33,-0.65,-0.30,
1.178,0.15,-0.03,0.93,2.33,-0.65,-0.30,
1.181,0.15,-0.03,0.93,2.22,-0.71,-0.31,
1.181,0.15,-0.03,0.93,2.22,-0.71,-0.31,
1.183,0.15,-0.03,0.93,2.22,-0.71,-0.31,
1.193,0.15,-0.03,0.93,2.22,-0.71,-0.31,
1.194,0.15,-0.03,0.93,2.11,-0.74,-0.34,
1.194,0.14,-0.03,0.94,2.11,-0.74,-0.34,
1.194,0.14,-0.03,0.94,2.06,-0.71,-0.28,
1.194,0.14,-0.02,0.95,2.06,-0.71,-0.28,
1.195,0.13,-0.02,0.95,2.06,-0.71,-0.28,
1.196,0.13,-0.02,0.95,2.06,-0.71,-0.28,
1.196,0.13,-0.02,0.95,1.99,-0.69,-0.22,
1.198,0.14,-0.02,0.97,1.99,-0.69,-0.22,
1.201,0.13,-0.02,0.98,1.99,-0.69,-0.22,
1.201,0.13,-0.02,0.98,1.95,-0.60,-0.12,
1.207,0.13,-0.03,0.99,1.95,-0.60,-0.12,
1.208,0.14,-0.03,1.00,1.95,-0.60,-0.12,
1.208,0.14,-0.03,1.00,1.98,-0.61,0.14,
1.208,0.14,-0.03,1.01,1.98,-0.61,0.14,
1.211,0.14,-0.03,1.01,2.01,-0.63,0.28,
1.211,0.15,-0.03,1.02,2.01,-0.63,0.28,
1.213,0.16,-0.03,1.02,2.01,-0.63,0.28,
1.216,0.16,-0.03,1.02,2.08,-0.59,0.51,
1.216,0.16,-0.03,1.03,2.08,-0.59,0.51,
1.218,0.16,-0.04,1.04,2.08,-0.59,0.51,
1.222,0.17,-0.04,1.04,2.08,-0.59,0.51,
1.223,0.17,-0.04,1.04,2.23,-0.59,0.63,
1.223,0.17,-0.05,1.05,2.23,-0.59,0.63,
1.226,0.17,-0.06,1.05,2.23,-0.59,0.63,
1.226,0.17,-0.06,1.05,2.27,-0.67,0.76,
1.228,0.18,-0.06,1.05,2.27,-0.67,0.76,
1.231,0.18,-0.07,1.04,2.27,-0.67,0.76,
1.231,0.18,-0.07,1.04,2.34,-0.76,0.82,
1.233,0.19,-0.07,1.05,2.34,-0.76,0.82,
1.24,0.19,-0.08,1.04,2.34,-0.76,0.82,
1.241,0.19,-0.08,1.04,2.41,-0.87,0.83,
1.241,0.19,-0.08,1.03,2.41,-0.87,0.83,
1.241,0.19,-0.08,1.03,2.46,-0.93,0.78,
1.241,0.19,-0.09,1.03,2.46,-0.93,0.78,
1.243,0.20,-0.08,1.02,2.46,-0.93,0.78,
1.245,0.20,-0.08,1.02,2.46,-0.93,0.78,
1.246,0.20,-0.08,1.02,2.50,-0.98,0.63,
1.248,0.21,-0.09,1.01,2.50,-0.98,0.63,
1.25,0.21,-0.09,1.01,2.50,-0.98,0.63,
1.251,0.21,-0.09,1.01,2.55,-0.96,0.50,
1.252,0.21,-0.08,1.00,2.55,-0.96,0.50,
1.261,0.21,-0.08,1.00,2.55,-0.96,0.50,
1.262,0.21,-0.08,1.00,2.64,-0.95,0.43,
1.262,0.21,-0.07,1.00,2.64,-0.95,0.43,
1.262,0.21,-0.07,0.99,2.64,-0.95,0.43,
1.262,0.21,-0.07,0.99,2.64,-0.87,0.34,
1.263,0.21,-0.07,0.99,2.64,-0.87,0.34,
1.266,0.21,-0.07,0.99,2.63,-0.76,0.25,
1.266,0.20,-0.06,0.99,2.63,-0.76,0.25,
1.267,0.20,-0.06,0.98,2.63,-0.76,0.25,
1.277,0.19,-0.06,0.98,2.63,-0.76,0.25,
1.277,0.19,-0.06,0.98,2.56,-0.71,0.21,
1.277,0.18,-0.05,0.98,2.56,-0.71,0.21,
1.278,0.18,-0.05,0.98,2.41,-0.65,0.18,
1.278,0.16,-0.06,0.98,2.41,-0.65,0.18,
1.278,0.15,-0.05,0.98,2.41,-0.65,0.18,
1.28,0.15,-0.05,0.98,2.20,-0.57,0.17,
1.28,0.14,-0.05,0.99,2.20,-0.57,0.17,
1.282,0.13,-0.06,0.99,2.20,-0.57,0.17,
1.285,0.12,-0.05,1.00,2.20,-0.57,0.17,
1.285,0.12,-0.05,1.00,1.97,-0.54,0.20,
1.294,0.11,-0.05,1.00,1.97,-0.54,0.20,
1.295,0.11,-0.05,1.00,1.76,-0.53,0.27,
1.295,0.10,-0.05,1.00,1.76,-0.53,0.27,
1.295,0.09,-0.05,1.01,1.76,-0.53,0.27,
1.295,0.08,-0.05,1.02,1.76,-0.53,0.27,
1.296,0.08,-0.05,1.02,1.57,-0.49,0.36,
1.298,0.07,-0.05,1.03,1.57,-0.49,0.36,
1.3,0.07,-0.05,1.04,1.57,-0.49,0.36,
1.3,0.07,-0.05,1.04,1.38,-0.48,0.50,
1.302,0.07,-0.04,1.05,1.38,-0.48,0.50,
1.309,0.06,-0.04,1.06,1.38,-0.48,0.50,
1.309,0.06,-0.04,1.06,1.24,-0.46,0.70,
1.31,0.06,-0.04,1.07,1.24,-0.46,0.70,
1.31,0.06,-0.04,1.09,1.24,-0.46,0.70,
1.31,0.06,-0.04,1.09,1.18,-0.34,0.89,
1.312,0.06,-0.04,1.10,1.18,-0.34,0.89,
1.315,0.06,-0.04,1.10,1.16,-0.27,1.12,
1.315,0.06,-0.03,1.11,1.16,-0.27,1.12,
1.317,0.06,-0.03,1.11,1.16,-0.27,1.12,
1.325,0.06,-0.04,1.13,1.16,-0.27,1.12,
1.327,0.06,-0.04,1.13,1.18,-0.19,1.36,
1.328,0.06,-0.04,1.13,1.18,-0.19,1.36,
1.328,0.06,-0.04,1.13,1.18,-0.19,1.36,
1.328,0.06,-0.04,1.13,1.17,-0.15,1.50,
1.328,0.05,-0.04,1.14,1.17,-0.15,1.50,
1.33,0.05,-0.05,1.14,1.17,-0.15,1.50,
1.33,0.05,-0.05,1.14,1.12,-0.19,1.60,
1.332,0.05,-0.05,1.14,1.12,-0.19,1.60,
1.334,0.05,-0.05,1.14,1.12,-0.19,1.60,
1.334,0.05,-0.05,1.14,1.07,-0.18,1.66,
1.341,0.06,-0.05,1.14,1.07,-0.18,1.66,
1.341,0.06,-0.05,1.14,1.05,-0.18,1.68,
1.342,0.06,-0.05,1.15,1.05,-0.18,1.68,
1.342,0.06,-0.04,1.14,1.05,-0.18,1.68,
1.344,0.06,-0.05,1.14,1.05,-0.18,1.68,
1.344,0.06,-0.05,1.14,1.10,-0.14,1.72,
1.346,0.07,-0.05,1.13,1.10,-0.14,1.72,
1.35,0.08,-0.05,1.13,1.10,-0.14,1.72,
1.35,0.08,-0.05,1.13,1.12,-0.11,1.67,
1.351,0.08,-0.05,1.14,1.12,-0.11,1.67,
1.363,0.09,-0.05,1.14,1.12,-0.11,1.67,
1.364,0.09,-0.05,1.14,1.22,-0.09,1.60,
1.364,0.09,-0.04,1.13,1.22,-0.09,1.60,
1.365,0.09,-0.05,1.13,1.22,-0.09,1.60,
1.365,0.09,-0.05,1.13,1.29,-0.09,1.62,
1.365,0.10,-0.05,1.14,1.29,-0.09,1.62,
1.366,0.10,-0.05,1.14,1.34,-0.03,1.60,
1.366,0.09,-0.05,1.14,1.34,-0.03,1.60,
1.366,0.09,-0.05,1.14,1.34,-0.03,1.60,
1.369,0.10,-0.05,1.13,1.34,-0.03,1.60,
1.369,0.10,-0.05,1.13,1.35,-0.04,1.64,
1.378,0.09,-0.05,1.13,1.35,-0.04,1.64,
1.379,0.10,-0.05,1.13,1.35,-0.04,1.64,
1.379,0.10,-0.05,1.13,1.36,-0.02,1.59,
1.379,0.10,-0.05,1.13,1.36,-0.02,1.59,
1.379,0.09,-0.06,1.13,1.36,-0.02,1.59,
1.38,0.09,-0.06,1.13,1.32,-0.04,1.55,
1.38,0.09,-0.05,1.13,1.32,-0.04,1.55,
1.383,0.09,-0.06,1.14,1.32,-0.04,1.55,
1.384,0.09,-0.06,1.14,1.30,-0.06,1.50,
1.395,0.09,-0.05,1.14,1.30,-0.06,1.50,
1.396,0.09,-0.05,1.14,1.27,-0.04,1.59,
1.396,0.09,-0.06,1.14,1.27,-0.04,1.59,
1.396,0.08,-0.06,1.14,1.27,-0.04,1.59,
1.397,0.09,-0.06,1.14,1.27,-0.04,1.59,
1.397,0.09,-0.06,1.14,1.20,-0.04,1.65,
1.397,0.09,-0.06,1.13,1.20,-0.04,1.65,
1.398,0.08,-0.06,1.13,1.20,-0.04,1.65,
1.398,0.08,-0.06,1.13,1.16,-0.06,1.61,
1.401,0.08,-0.06,1.12,1.16,-0.06,1.61,
1.409,0.07,-0.06,1.12,1.16,-0.06,1.61,
1.41,0.07,-0.06,1.12,1.12,-0.01,1.55,
1.41,0.07,-0.06,1.11,1.12,-0.01,1.55,
1.41,0.07,-0.07,1.10,1.12,-0.01,1.55,
1.41,0.07,-0.07,1.10,1.03,-0.03,1.45,
1.411,0.06,-0.07,1.10,1.03,-0.03,1.45,
1.413,0.06,-0.07,1.10,0.92,-0.06,1.31,
1.413,0.07,-0.07,1.09,0.92,-0.06,1.31,
1.415,0.07,-0.07,1.09,0.92,-0.06,1.31,
1.419,0.06,-0.07,1.08,0.92,-0.06,1.31,
1.419,0.06,-0.07,1.08,0.89,-0.10,1.21,
1.425,0.07,-0.07,1.07,0.89,-0.10,1.21,
1.425,0.07,-0.07,1.06,0.89,-0.10,1.21,
1.425,0.07,-0.07,1.06,0.87,-0.10,1.09,
1.426,0.07,-0.07,1.05,0.87,-0.10,1.09,
1.428,0.08,-0.07,1.04,0.87,-0.10,1.09,
1.428,0.08,-0.07,1.04,0.85,-0.12,0.90,
1.43,0.08,-0.07,1.04,0.85,-0.12,0.90,
1.433,0.09,-0.07,1.03,0.85,-0.12,0.90,
1.433,0.09,-0.07,1.03,0.91,-0.14,0.72,
1.435,0.09,-0.07,1.02,0.91,-0.14,0.72,
1.442,0.09,-0.07,1.02,0.96,-0.13,0.56,
1.443,0.09,-0.07,1.01,0.96,-0.13,0.56,
1.443,0.09,-0.06,1.01,0.96,-0.13,0.56,
1.444,0.09,-0.06,1.01,0.96,-0.13,0.56,
1.444,0.09,-0.06,1.01,0.98,-0.17,0.37,
1.445,0.10,-0.06,1.00,0.98,-0.17,0.37,
1.448,0.10,-0.05,1.01,0.98,-0.17,0.37,
1.448,0.10,-0.05,1.01,1.03,-0.09,0.29,
1.45,0.10,-0.05,1.00,1.03,-0.09,0.29,
1.465,0.11,-0.05,0.99,1.03,-0.09,0.29,
1.465,0.11,-0.05,0.99,1.06,-0.04,0.24,
1.466,0.11,-0.05,0.99,1.06,-0.04,0.24,
1.466,0.11,-0.05,1.00,1.06,-0.04,0.24,
1.466,0.11,-0.05,1.00,1.13,-0.01,0.20,
1.466,0.11,-0.04,1.00,1.13,-0.01,0.20,
1.467,0.11,-0.04,1.00,1.16,0.03,0.19,
1.467,0.11,-0.04,0.99,1.16,0.03,0.19,
1.468,0.11,-0.04,1.00,1.16,0.03,0.19,
1.471,0.11,-0.04,1.00,1.16,0.03,0.19,
1.472,0.11,-0.04,1.00,1.15,0.09,0.19,
1.472,0.11,-0.04,1.00,1.15,0.09,0.19,
1.473,0.11,-0.03,1.00,1.15,0.09,0.19,
1.473,0.11,-0.03,1.00,1.17,0.10,0.20,
1.475,0.11,-0.03,1.00,1.17,0.10,0.20,
1.477,0.11,-0.03,1.00,1.17,0.10,0.20,
1.478,0.11,-0.03,1.00,1.14,0.11,0.24,
1.48,0.10,-0.03,1.00,1.14,0.11,0.24,
1.484,0.10,-0.03,0.99,1.14,0.11,0.24,
1.484,0.10,-0.03,0.99,1.11,0.17,0.24,
1.487,0.09,-0.03,0.99,1.11,0.17,0.24,
1.488,0.09,-0.03,0.99,1.01,0.14,0.18,
1.488,0.08,-0.04,0.98,1.01,0.14,0.18,
1.491,0.08,-0.03,0.98,1.01,0.14,0.18,
1.494,0.07,-0.04,0.97,1.01,0.14,0.18,
1.494,0.07,-0.04,0.97,0.88,0.13,0.09,
1.495,0.07,-0.04,0.97,0.88,0.13,0.09,
1.498,0.07,-0.04,0.97,0.75,0.10,0.02,
1.5,0.06,-0.05,0.97,0.75,0.10,0.02,
1.5,0.05,-0.05,0.97,0.75,0.10,0.02,
1.502,0.05,-0.05,0.97,0.60,0.02,-0.09,
1.503,0.05,-0.05,0.96,0.60,0.02,-0.09,
1.505,0.05,-0.05,0.96,0.60,0.02,-0.09,
1.508,0.04,-0.04,0.96,0.60,0.02,-0.09,
1.508,0.04,-0.04,0.96,0.49,0.01,-0.12,
1.509,0.04,-0.04,0.96,0.49,0.01,-0.12,
1.513,0.04,-0.04,0.96,0.40,0.01,-0.15,
1.513,0.03,-0.04,0.96,0.40,0.01,-0.15,
1.514,0.03,-0.04,0.96,0.40,0.01,-0.15,
1.517,0.03,-0.04,0.96,0.30,0.06,-0.13,
1.517,0.02,-0.04,0.97,0.30,0.06,-0.13,
1.52,0.01,-0.04,0.99,0.30,0.06,-0.13,
1.524,0.01,-0.04,0.99,0.19,0.08,-0.10,
1.524,0.00,-0.04,0.99,0.19,0.08,-0.10,
1.524,-0.01,-0.04,1.01,0.19,0.08,-0.10,
1.527,-0.02,-0.04,1.02,0.19,0.08,-0.10,
1.527,-0.02,-0.04,1.02,-0.00,0.07,0.12,
1.529,-0.02,-0.04,1.03,-0.00,0.07,0.12,
1.532,-0.03,-0.04,1.05,-0.00,0.07,0.12,
1.532,-0.03,-0.04,1.05,-0.18,0.07,0.34,
1.535,-0.03,-0.04,1.06,-0.18,0.07,0.34,
1.538,-0.03,-0.04,1.06,-0.30,0.06,0.62,
1.538,-0.03,-0.04,1.07,-0.30,0.06,0.62,
1.54,-0.04,-0.04,1.09,-0.30,0.06,0.62,
1.542,-0.04,-0.04,1.11,-0.30,0.06,0.62,
1.542,-0.04,-0.04,1.11,-0.38,0.07,0.87,
1.544,-0.04,-0.05,1.11,-0.38,0.07,0.87,
1.547,-0.04,-0.05,1.11,-0.41,0.09,1.19,
1.547,-0.04,-0.04,1.13,-0.41,0.09,1.19,
1.549,-0.03,-0.05,1.13,-0.41,0.09,1.19,
1.552,-0.03,-0.05,1.14,-0.41,0.09,1.19,
1.552,-0.03,-0.05,1.14,-0.40,0.07,1.38,
1.554,-0.03,-0.05,1.14,-0.40,0.07,1.38,
1.557,-0.02,-0.05,1.15,-0.40,0.07,1.38,
1.557,-0.02,-0.05,1.15,-0.32,0.05,1.56,
1.56,-0.01,-0.05,1.15,-0.32,0.05,1.56,
1.562,-0.01,-0.05,1.15,-0.26,0.04,1.64,
1.562,-0.00,-0.05,1.15,-0.26,0.04,1.64,
1.564,0.00,-0.05,1.14,-0.26,0.04,1.64,
1.567,0.01,-0.05,1.15,-0.26,0.04,1.64,
1.568,0.01,-0.05,1.15,-0.08,0.04,1.69,
1.569,0.02,-0.05,1.15,-0.08,0.04,1.69,
1.571,0.02,-0.06,1.14,-0.08,0.04,1.69,
1.572,0.02,-0.06,1.14,0.07,0.06,1.63,
1.574,0.03,-0.06,1.13,0.07,0.06,1.63,
1.577,0.03,-0.06,1.13,0.07,0.06,1.63,
1.577,0.03,-0.06,1.13,0.20,0.04,1.59,
1.579,0.03,-0.07,1.12,0.20,0.04,1.59,
1.581,0.03,-0.08,1.11,0.20,0.04,1.59,
1.582,0.03,-0.08,1.11,0.31,-0.02,1.48,
1.584,0.04,-0.08,1.11,0.31,-0.02,1.48,
1.586,0.04,-0.08,1.11,0.30,-0.11,1.34,
1.587,0.03,-0.08,1.10,0.30,-0.11,1.34,
1.589,0.03,-0.09,1.10,0.30,-0.11,1.34,
1.591,0.03,-0.09,1.09,0.30,-0.11,1.34,
1.592,0.03,-0.09,1.09,0.29,-0.19,1.23,
1.594,0.03,-0.09,1.08,0.29,-0.19,1.23,
1.597,0.03,-0.09,1.08,0.29,-0.19,1.23,
1.597,0.03,-0.09,1.08,0.21,-0.25,1.11,
1.599,0.03,-0.09,1.07,0.21,-0.25,1.11,
1.602,0.03,-0.09,1.08,0.21,-0.25,1.11,
1.602,0.03,-0.09,1.08,0.23,-0.27,0.97,
1.603,0.04,-0.09,1.08,0.23,-0.27,0.97,
1.607,0.04,-0.10,1.08,0.23,-0.27,0.97,
1.607,0.04,-0.10,1.08,0.20,-0.26,0.94,
1.609,0.04,-0.09,1.08,0.20,-0.26,0.94,
1.612,0.04,-0.09,1.08,0.22,-0.25,0.95,
1.612,0.04,-0.09,1.09,0.22,-0.25,0.95,
1.617,0.04,-0.09,1.09,0.22,-0.25,0.95,
1.617,0.04,-0.09,1.09,0.23,-0.24,1.04,
1.617,0.04,-0.09,1.09,0.23,-0.24,1.04,
1.619,0.04,-0.09,1.09,0.23,-0.24,1.04,
1.624,0.04,-0.10,1.09,0.23,-0.24,1.04,
1.624,0.04,-0.10,1.09,0.20,-0.20,1.08,
1.625,0.03,-0.10,1.08,0.20,-0.20,1.08,
1.627,0.03,-0.11,1.08,0.20,-0.20,1.08,
1.627,0.03,-0.11,1.08,0.16,-0.24,1.05,
1.629,0.03,-0.11,1.07,0.16,-0.24,1.05,
1.631,0.04,-0.11,1.07,0.16,-0.24,1.05,
1.631,0.04,-0.11,1.07,0.09,-0.31,0.95,
1.633,0.04,-0.12,1.06,0.09,-0.31,0.95,
1.636,0.04,-0.12,1.06,0.05,-0.40,0.87,
1.636,0.03,-0.12,1.06,0.05,-0.40,0.87,
1.638,0.04,-0.12,1.05,0.05,-0.40,0.87,
1.642,0.04,-0.12,1.05,0.05,-0.47,0.79,
1.642,0.05,-0.11,1.05,0.05,-0.47,0.79,
1.643,0.06,-0.11,1.04,0.05,-0.47,0.79,
1.646,0.06,-0.11,1.04,0.14,-0.46,0.69,
1.646,0.06,-0.11,1.05,0.14,-0.46,0.69,
1.648,0.07,-0.10,1.04,0.14,-0.46,0.69,
1.651,0.07,-0.10,1.04,0.22,-0.39,0.62,
1.651,0.07,-0.10,1.04,0.22,-0.39,0.62,
1.653,0.07,-0.09,1.03,0.22,-0.39,0.62,
1.656,0.07,-0.09,1.03,0.22,-0.39,0.62,
1.656,0.07,-0.09,1.03,0.30,-0.30,0.56,
1.658,0.06,-0.09,1.03,0.30,-0.30,0.56,
1.661,0.06,-0.09,1.03,0.33,-0.21,0.46,
1.661,0.05,-0.09,1.03,0.33,-0.21,0.46,
1.663,0.04,-0.09,1.03,0.33,-0.21,0.46,
1.666,0.03,-0.10,1.04,0.33,-0.21,0.46,
1.666,0.03,-0.10,1.04,0.22,-0.20,0.45,
1.668,0.01,-0.10,1.04,0.22,-0.20,0.45,
1.671,-0.00,-0.09,1.04,0.22,-0.20,0.45,
1.672,-0.00,-0.09,1.04,-0.01,-0.27,0.53,
1.673,-0.02,-0.10,1.05,-0.01,-0.27,0.53,
1.676,-0.03,-0.10,1.05,-0.01,-0.27,0.53,
1.676,-0.03,-0.10,1.05,-0.31,-0.29,0.57,
1.678,-0.05,-0.10,1.05,-0.31,-0.29,0.57,
1.68,-0.06,-0.10,1.07,-0.31,-0.29,0.57,
1.681,-0.06,-0.10,1.07,-0.59,-0.34,0.68,
1.683,-0.07,-0.09,1.07,-0.59,-0.34,0.68,
1.685,-0.09,-0.09,1.07,-0.59,-0.34,0.68,
1.686,-0.09,-0.09,1.07,-0.91,-0.32,0.75,
1.688,-0.10,-0.09,1.07,-0.91,-0.32,0.75,
1.69,-0.11,-0.09,1.07,-0.91,-0.32,0.75,
1.691,-0.11,-0.09,1.07,-1.14,-0.27,0.82,
1.692,-0.12,-0.09,1.06,-1.14,-0.27,0.82,
1.695,-0.12,-0.09,1.05,-1.14,-0.27,0.82,
1.696,-0.12,-0.09,1.05,-1.39,-0.26,0.81,
1.698,-0.12,-0.08,1.05,-1.39,-0.26,0.81,
1.7,-0.13,-0.08,1.04,-1.39,-0.26,0.81,
1.701,-0.13,-0.08,1.04,-1.51,-0.25,0.72,
1.702,-0.12,-0.08,1.03,-1.51,-0.25,0.72,
1.705,-0.12,-0.08,1.03,-1.51,-0.25,0.72,
1.705,-0.12,-0.08,1.03,-1.60,-0.20,0.60,
1.708,-0.11,-0.08,1.01,-1.60,-0.20,0.60,
1.71,-0.11,-0.08,1.01,-1.61,-0.21,0.44,
1.711,-0.11,-0.08,0.99,-1.61,-0.21,0.44,
1.713,-0.10,-0.08,0.98,-1.61,-0.21,0.44,
1.716,-0.10,-0.08,0.97,-1.61,-0.21,0.44,
1.716,-0.10,-0.08,0.97,-1.51,-0.20,0.15,
1.718,-0.08,-0.08,0.95,-1.51,-0.20,0.15,
1.72,-0.07,-0.08,0.93,-1.51,-0.20,0.15,
1.721,-0.07,-0.08,0.93,-1.40,-0.22,-0.09,
1.723,-0.06,-0.08,0.92,-1.40,-0.22,-0.09,
1.726,-0.06,-0.08,0.92,-1.24,-0.25,-0.41,
1.726,-0.06,-0.08,0.91,-1.24,-0.25,-0.41,
1.727,-0.05,-0.08,0.90,-1.24,-0.25,-0.41,
1.731,-0.05,-0.07,0.88,-1.24,-0.25,-0.41,
1.731,-0.05,-0.07,0.88,-1.08,-0.29,-0.68,
1.733,-0.04,-0.07,0.87,-1.08,-0.29,-0.68,
1.735,-0.04,-0.07,0.87,-1.01,-0.29,-0.89,
1.735,-0.04,-0.07,0.86,-1.01,-0.29,-0.89,
1.737,-0.03,-0.06,0.86,-1.01,-0.29,-0.89,
1.74,-0.02,-0.06,0.85,-1.01,-0.29,-0.89,
1.74,-0.02,-0.06,0.85,-0.90,-0.28,-1.18,
1.742,-0.02,-0.05,0.85,-0.90,-0.28,-1.18,
1.745,-0.02,-0.04,0.84,-0.90,-0.28,-1.18,
1.746,-0.02,-0.04,0.84,-0.80,-0.20,-1.25,
1.748,-0.02,-0.04,0.84,-0.80,-0.20,-1.25,
1.75,-0.03,-0.04,0.85,-0.80,-0.20,-1.25,
1.75,-0.03,-0.04,0.85,-0.78,-0.12,-1.38,
1.752,-0.03,-0.04,0.85,-0.78,-0.12,-1.38,
1.755,-0.04,-0.04,0.85,-0.78,-0.12,-1.38,
1.756,-0.04,-0.04,0.85,-0.80,-0.06,-1.31,
1.758,-0.04,-0.04,0.85,-0.80,-0.06,-1.31,
1.76,-0.04,-0.04,0.85,-0.91,-0.05,-1.29,
1.76,-0.05,-0.04,0.86,-0.91,-0.05,-1.29,
1.762,-0.05,-0.04,0.87,-0.91,-0.05,-1.29,
1.765,-0.06,-0.04,0.88,-0.91,-0.05,-1.29,
1.765,-0.06,-0.04,0.88,-0.96,-0.06,-1.23,
1.767,-0.07,-0.05,0.89,-0.96,-0.06,-1.23,
1.77,-0.07,-0.05,0.90,-0.96,-0.06,-1.23,
1.77,-0.07,-0.05,0.90,-1.05,-0.09,-1.05,
1.773,-0.08,-0.05,0.92,-1.05,-0.09,-1.05,
1.775,-0.08,-0.05,0.94,-1.05,-0.09,-1.05,
1.776,-0.08,-0.05,0.94,-1.19,-0.18,-0.83,
1.777,-0.09,-0.05,0.95,-1.19,-0.18,-0.83,
1.781,-0.09,-0.06,0.96,-1.19,-0.18,-0.83,
1.781,-0.09,-0.06,0.96,-1.28,-0.19,-0.53,
1.783,-0.10,-0.06,0.97,-1.28,-0.19,-0.53,
1.785,-0.10,-0.06,0.97,-1.36,-0.23,-0.31,
1.786,-0.10,-0.07,0.98,-1.36,-0.23,-0.31,
1.787,-0.11,-0.07,0.99,-1.36,-0.23,-0.31,
1.79,-0.11,-0.08,0.99,-1.36,-0.23,-0.31,
1.79,-0.11,-0.08,0.99,-1.44,-0.31,-0.08,
1.792,-0.12,-0.08,1.00,-1.44,-0.31,-0.08,
1.795,-0.13,-0.08,1.00,-1.44,-0.31,-0.08,
1.795,-0.13,-0.08,1.00,-1.54,-0.38,0.07,
1.797,-0.13,-0.08,1.01,-1.54,-0.38,0.07,
1.8,-0.13,-0.08,1.00,-1.54,-0.38,0.07,
1.8,-0.13,-0.08,1.00,-1.65,-0.44,0.18,
1.802,-0.13,-0.08,1.00,-1.65,-0.44,0.18,
1.805,-0.13,-0.08,1.00,-1.65,-0.44,0.18,
1.805,-0.13,-0.08,1.00,-1.70,-0.43,0.20,
1.807,-0.13,-0.07,0.99,-1.70,-0.43,0.20,
1.81,-0.13,-0.07,0.99,-1.73,-0.42,0.16,
1.81,-0.13,-0.07,0.98,-1.73,-0.42,0.16,
1.812,-0.13,-0.07,0.96,-1.73,-0.42,0.16,
1.815,-0.13,-0.07,0.96,-1.73,-0.42,0.16,
1.818,-0.13,-0.07,0.96,-1.75,-0.37,0.03,
1.818,-0.13,-0.06,0.95,-1.75,-0.37,0.03,
1.819,-0.13,-0.06,0.95,-1.74,-0.32,-0.23,
1.82,-0.14,-0.06,0.93,-1.74,-0.32,-0.23,
1.823,-0.14,-0.05,0.92,-1.74,-0.32,-0.23,
1.824,-0.14,-0.05,0.92,-1.74,-0.32,-0.23,
1.825,-0.14,-0.05,0.92,-1.81,-0.29,-0.40,
1.826,-0.14,-0.05,0.91,-1.81,-0.29,-0.40,
1.829,-0.14,-0.05,0.90,-1.81,-0.29,-0.40,
1.829,-0.14,-0.05,0.90,-1.91,-0.20,-0.61,
1.831,-0.14,-0.05,0.90,-1.91,-0.20,-0.61,
1.835,-0.14,-0.05,0.90,-1.94,-0.17,-0.75,
1.835,-0.15,-0.04,0.90,-1.94,-0.17,-0.75,
1.836,-0.14,-0.04,0.89,-1.94,-0.17,-0.75,
1.842,-0.14,-0.04,0.89,-1.94,-0.17,-0.75,
1.842,-0.14,-0.04,0.89,-1.99,-0.15,-0.82,
1.842,-0.14,-0.04,0.88,-1.99,-0.15,-0.82,
1.845,-0.14,-0.03,0.88,-1.99,-0.15,-0.82,
1.845,-0.14,-0.03,0.88,-1.97,-0.13,-0.90,
1.846,-0.14,-0.03,0.88,-1.97,-0.13,-0.90,
1.849,-0.13,-0.03,0.89,-1.97,-0.13,-0.90,
1.849,-0.13,-0.03,0.89,-2.01,-0.08,-0.98,
1.852,-0.13,-0.04,0.89,-2.01,-0.08,-0.98,
1.854,-0.13,-0.03,0.90,-2.01,-0.08,-0.98,
1.854,-0.13,-0.03,0.90,-1.95,-0.07,-0.95,
1.857,-0.13,-0.03,0.91,-1.95,-0.07,-0.95,
1.859,-0.13,-0.03,0.91,-1.95,-0.07,-0.84,
1.859,-0.13,-0.03,0.93,-1.95,-0.07,-0.84,
1.861,-0.13,-0.03,0.93,-1.95,-0.07,-0.84,
1.864,-0.14,-0.03,0.94,-1.95,-0.07,-0.84,
1.864,-0.14,-0.03,0.94,-1.97,-0.06,-0.61,
1.866,-0.14,-0.03,0.95,-1.97,-0.06,-0.61,
1.869,-0.14,-0.02,0.97,-1.97,-0.06,-0.61,
1.869,-0.14,-0.02,0.97,-1.97,-0.03,-0.43,
1.871,-0.14,-0.03,0.98,-1.97,-0.03,-0.43,
1.874,-0.15,-0.03,0.99,-1.97,-0.03,-0.43,
1.875,-0.15,-0.03,0.99,-2.00,0.02,-0.20,
1.876,-0.15,-0.03,1.00,-2.00,0.02,-0.20,
1.879,-0.15,-0.04,1.01,-2.00,0.02,-0.20,
1.879,-0.15,-0.04,1.01,-2.02,0.00,0.03,
1.881,-0.16,-0.03,1.02,-2.02,0.00,0.03,
1.884,-0.16,-0.03,1.02,-2.07,-0.06,0.26,
1.884,-0.18,-0.03,1.03,-2.07,-0.06,0.26,
1.886,-0.18,-0.04,1.05,-2.07,-0.06,0.26,
1.89,-0.19,-0.04,1.05,-2.07,-0.06,0.26,
1.891,-0.19,-0.04,1.05,-2.24,-0.02,0.46,
1.891,-0.21,-0.04,1.05,-2.24,-0.02,0.46,
1.894,-0.21,-0.04,1.05,-2.24,-0.02,0.46,
1.894,-0.21,-0.04,1.05,-2.40,-0.08,0.68,
1.896,-0.21,-0.04,1.05,-2.40,-0.08,0.68,
1.899,-0.21,-0.04,1.05,-2.40,-0.08,0.68,
1.899,-0.21,-0.04,1.05,-2.56,-0.06,0.65,
1.901,-0.21,-0.04,1.04,-2.56,-0.06,0.65,
1.904,-0.21,-0.04,1.04,-2.56,-0.06,0.65,
1.904,-0.21,-0.04,1.04,-2.56,-0.08,0.67,
1.907,-0.21,-0.04,1.03,-2.56,-0.08,0.67,
1.908,-0.21,-0.04,1.03,-2.57,-0.12,0.58,
1.909,-0.21,-0.05,1.03,-2.57,-0.12,0.58,
1.911,-0.21,-0.05,1.01,-2.57,-0.12,0.58,
1.914,-0.21,-0.05,1.00,-2.57,-0.12,0.58,
1.914,-0.21,-0.05,1.00,-2.56,-0.17,0.47,
1.916,-0.21,-0.05,0.99,-2.56,-0.17,0.47,
1.919,-0.20,-0.05,0.97,-2.56,-0.17,0.47,
1.919,-0.20,-0.05,0.97,-2.57,-0.20,0.22,
1.921,-0.19,-0.05,0.96,-2.57,-0.20,0.22,
1.924,-0.19,-0.05,0.95,-2.57,-0.20,0.22,
1.924,-0.19,-0.05,0.95,-2.52,-0.21,-0.00,
1.925,-0.18,-0.04,0.94,-2.52,-0.21,-0.00,
1.929,-0.18,-0.04,0.93,-2.52,-0.21,-0.00,
1.929,-0.18,-0.04,0.93,-2.38,-0.24,-0.25,
1.931,-0.17,-0.04,0.92,-2.38,-0.24,-0.25,
1.934,-0.17,-0.04,0.92,-2.31,-0.22,-0.46,
1.934,-0.16,-0.04,0.91,-2.31,-0.22,-0.46,
1.936,-0.15,-0.04,0.90,-2.31,-0.22,-0.46,
1.938,-0.15,-0.04,0.90,-2.31,-0.22,-0.46,
1.939,-0.15,-0.04,0.90,-2.17,-0.18,-0.66,
1.944,-0.14,-0.03,0.90,-2.17,-0.18,-0.66,
1.944,-0.14,-0.03,0.89,-2.17,-0.18,-0.66,
1.944,-0.14,-0.03,0.89,-2.06,-0.15,-0.79,
1.945,-0.14,-0.03,0.88,-2.06,-0.15,-0.79,
1.948,-0.14,-0.03,0.89,-2.06,-0.15,-0.79,
1.948,-0.14,-0.03,0.89,-2.00,-0.12,-0.84,
1.95,-0.14,-0.04,0.89,-2.00,-0.12,-0.84,
1.953,-0.13,-0.04,0.89,-2.00,-0.12,-0.84,
1.953,-0.13,-0.04,0.89,-2.00,-0.12,-0.91,
1.955,-0.13,-0.03,0.90,-2.00,-0.12,-0.91,
1.959,-0.13,-0.03,0.90,-1.97,-0.21,-0.87,
1.959,-0.13,-0.03,0.89,-1.97,-0.21,-0.87,
1.96,-0.13,-0.03,0.90,-1.97,-0.21,-0.87,
1.963,-0.14,-0.03,0.91,-1.97,-0.21,-0.87,
1.963,-0.14,-0.03,0.91,-1.91,-0.10,-0.83,
1.965,-0.14,-0.03,0.91,-1.91,-0.10,-0.83,
1.967,-0.15,-0.03,0.91,-1.91,-0.10,-0.83,
1.968,-0.15,-0.03,0.91,-1.94,-0.11,-0.69,
1.97,-0.14,-0.02,0.92,-1.94,-0.11,-0.69,
1.974,-0.14,-0.01,0.94,-1.94,-0.11,-0.69,
1.974,-0.14,-0.01,0.94,-2.05,-0.12,-0.64,
1.975,-0.14,-0.01,0.94,-2.05,-0.12,-0.64,
1.977,-0.14,-0.01,0.94,-2.05,-0.12,-0.64,
1.978,-0.14,-0.01,0.94,-2.00,0.01,-0.46,
1.98,-0.15,-0.01,0.95,-2.00,0.01,-0.46,
1.982,-0.15,-0.01,0.95,-1.98,0.09,-0.36,
1.983,-0.16,-0.01,0.97,-1.98,0.09,-0.36,
1.984,-0.17,-0.01,0.98,-1.98,0.09,-0.36,
1.987,-0.18,-0.01,0.98,-1.98,0.09,-0.36,
1.987,-0.18,-0.01,0.98,-2.09,0.11,-0.18,
1.99,-0.18,-0.01,0.99,-2.09,0.11,-0.18,
1.993,-0.20,-0.02,0.99,-2.09,0.11,-0.18,
1.994,-0.20,-0.02,0.99,-2.25,0.08,-0.01,
1.995,-0.20,-0.02,0.99,-2.25,0.08,-0.01,
1.997,-0.21,-0.02,1.00,-2.25,0.08,-0.01,
1.997,-0.21,-0.02,1.00,-2.37,0.02,0.07,
1.999,-0.22,-0.03,1.00,-2.37,0.02,0.07,
2.002,-0.21,-0.03,1.01,-2.37,0.02,0.07,
2.002,-0.21,-0.03,1.01,-2.49,-0.06,0.15,
2.004,-0.21,-0.02,1.00,-2.49,-0.06,0.15,
2.008,-0.21,-0.02,1.00,-2.54,-0.14,0.26,
2.008,-0.21,-0.03,1.01,-2.54,-0.14,0.26,
2.009,-0.21,-0.02,1.02,-2.54,-0.14,0.26,
2.012,-0.20,-0.02,1.02,-2.54,-0.14,0.26,
2.012,-0.20,-0.02,1.02,-2.45,-0.14,0.29,
2.014,-0.20,-0.02,1.03,-2.45,-0.14,0.29,
2.017,-0.20,-0.02,1.04,-2.45,-0.14,0.29,
2.017,-0.20,-0.02,1.04,-2.37,-0.13,0.38,
2.019,-0.20,-0.02,1.04,-2.37,-0.13,0.38,
2.022,-0.19,-0.02,1.04,-2.37,-0.13,0.38,
2.022,-0.19,-0.02,1.04,-2.28,-0.09,0.52,
2.028,-0.20,-0.02,1.05,-2.28,-0.09,0.52,
2.029,-0.19,-0.02,1.05,-2.28,-0.09,0.52,
2.029,-0.19,-0.02,1.05,-2.19,-0.07,0.58,
2.03,-0.19,-0.01,1.05,-2.19,-0.07,0.58,
2.032,-0.19,-0.01,1.05,-2.12,-0.12,0.69,
2.032,-0.19,-0.02,1.05,-2.12,-0.12,0.69,
2.04,-0.19,-0.02,1.05,-2.12,-0.12,0.69,
2.04,-0.19,-0.02,1.05,-2.05,-0.10,0.70,
2.04,-0.19,-0.02,1.06,-2.05,-0.10,0.70,
2.041,-0.19,-0.02,1.07,-2.05,-0.10,0.70,
2.05,-0.19,-0.02,1.06,-2.05,-0.10,0.70,
2.051,-0.19,-0.02,1.06,-1.97,-0.16,0.69,
2.051,-0.19,-0.03,1.07,-1.97,-0.16,0.69,
2.052,-0.20,-0.03,1.07,-1.97,-0.16,0.69,
2.052,-0.20,-0.03,1.07,-1.96,-0.15,0.82,
2.052,-0.20,-0.03,1.08,-1.96,-0.15,0.82,
2.052,-0.21,-0.03,1.08,-1.96,-0.15,0.82,
2.052,-0.21,-0.03,1.08,-1.98,-0.22,0.83,
2.054,-0.21,-0.03,1.08,-1.98,-0.22,0.83,
2.058,-0.21,-0.03,1.08,-2.03,-0.25,0.98,
2.058,-0.21,-0.03,1.09,-2.03,-0.25,0.98,
2.059,-0.22,-0.03,1.08,-2.03,-0.25,0.98,
2.062,-0.22,-0.03,1.08,-2.05,-0.24,0.99,
2.062,-0.22,-0.03,1.08,-2.05,-0.24,0.99,
2.065,-0.23,-0.02,1.08,-2.05,-0.24,0.99,
2.067,-0.23,-0.02,1.07,-2.05,-0.24,0.99,
2.068,-0.23,-0.02,1.07,-2.11,-0.21,0.96,
2.07,-0.24,-0.02,1.07,-2.11,-0.21,0.96,
2.072,-0.24,-0.02,1.06,-2.11,-0.21,0.96,
2.072,-0.24,-0.02,1.06,-2.19,-0.19,0.91,
2.074,-0.25,-0.02,1.06,-2.19,-0.19,0.91,
2.077,-0.25,-0.02,1.05,-2.19,-0.19,0.91,
2.077,-0.25,-0.02,1.05,-2.22,-0.17,0.81,
2.079,-0.26,-0.02,1.06,-2.22,-0.17,0.81,
2.082,-0.26,-0.02,1.06,-2.29,-0.20,0.71,
2.082,-0.26,-0.02,1.05,-2.29,-0.20,0.71,
2.084,-0.27,-0.02,1.04,-2.29,-0.20,0.71,
2.087,-0.27,-0.01,1.03,-2.29,-0.20,0.71,
2.087,-0.27,-0.01,1.03,-2.37,-0.19,0.67,
2.089,-0.27,-0.01,1.02,-2.37,-0.19,0.67,
2.091,-0.28,-0.01,1.02,-2.37,-0.19,0.67,
2.092,-0.28,-0.01,1.02,-2.42,-0.18,0.48,
2.094,-0.28,-0.00,1.01,-2.42,-0.18,0.48,
2.097,-0.28,0.00,1.00,-2.42,-0.18,0.48,
2.097,-0.28,0.00,1.00,-2.46,-0.10,0.41,
2.099,-0.28,0.01,1.00,-2.46,-0.10,0.41,
2.102,-0.28,0.01,1.00,-2.46,-0.10,0.41,
2.102,-0.28,0.01,1.00,-2.46,-0.04,0.23,
2.104,-0.28,0.01,0.99,-2.46,-0.04,0.23,
2.107,-0.28,0.01,0.99,-2.46,0.07,0.16,
2.107,-0.28,0.02,1.00,-2.46,0.07,0.16,
2.109,-0.27,0.03,1.01,-2.46,0.07,0.16,
2.112,-0.27,0.03,1.01,-2.46,0.07,0.16,
2.112,-0.27,0.03,1.01,-2.44,0.14,0.16,
2.114,-0.26,0.03,1.01,-2.44,0.14,0.16,
2.117,-0.26,0.03,1.02,-2.44,0.14,0.16,
2.117,-0.26,0.03,1.02,-2.37,0.23,0.28,
2.119,-0.25,0.04,1.03,-2.37,0.23,0.28,
2.122,-0.25,0.04,1.03,-2.37,0.23,0.28,
2.122,-0.25,0.04,1.03,-2.27,0.29,0.33,
2.125,-0.24,0.03,1.04,-2.27,0.29,0.33,
2.126,-0.24,0.03,1.04,-2.27,0.29,0.33,
2.126,-0.24,0.03,1.04,-2.14,0.36,0.48,
2.129,-0.24,0.02,1.05,-2.14,0.36,0.48,
2.131,-0.24,0.02,1.05,-2.04,0.29,0.56,
2.131,-0.23,0.01,1.06,-2.04,0.29,0.56,
2.133,-0.22,0.01,1.07,-2.04,0.29,0.56,
2.136,-0.22,0.01,1.07,-2.04,0.29,0.56,
2.136,-0.22,0.01,1.07,-1.94,0.17,0.69,
2.138,-0.21,-0.00,1.08,-1.94,0.17,0.69,
2.145,-0.21,-0.01,1.09,-1.94,0.17,0.69,
2.145,-0.21,-0.01,1.09,-1.82,0.14,0.84,
2.146,-0.20,-0.01,1.09,-1.82,0.14,0.84,
2.148,-0.20,-0.02,1.10,-1.82,0.14,0.84,
2.149,-0.20,-0.02,1.10,-1.70,0.04,1.01,
2.149,-0.20,-0.02,1.11,-1.70,0.04,1.01,
2.151,-0.20,-0.02,1.12,-1.70,0.04,1.01,
2.151,-0.20,-0.02,1.12,-1.61,-0.02,1.11,
2.153,-0.19,-0.03,1.12,-1.61,-0.02,1.11,
2.156,-0.19,-0.03,1.12,-1.56,-0.06,1.28,
2.156,-0.20,-0.03,1.13,-1.56,-0.06,1.28,
2.158,-0.19,-0.03,1.12,-1.56,-0.06,1.28,
2.161,-0.19,-0.03,1.13,-1.56,-0.06,1.28,
2.161,-0.19,-0.03,1.13,-1.48,-0.11,1.36,
2.163,-0.19,-0.04,1.13,-1.48,-0.11,1.36,
2.167,-0.19,-0.04,1.14,-1.48,-0.11,1.36,
2.167,-0.19,-0.04,1.14,-1.40,-0.15,1.40,
2.168,-0.18,-0.04,1.14,-1.40,-0.15,1.40,
2.171,-0.18,-0.04,1.14,-1.40,-0.15,1.40,
2.171,-0.18,-0.04,1.14,-1.36,-0.18,1.48,
2.173,-0.18,-0.04,1.14,-1.36,-0.18,1.48,
2.176,-0.18,-0.04,1.14,-1.36,-0.18,1.48,
2.178,-0.18,-0.04,1.14,-1.27,-0.21,1.50,
2.178,-0.17,-0.04,1.13,-1.27,-0.21,1.50,
2.181,-0.17,-0.04,1.13,-1.25,-0.20,1.48,
2.181,-0.17,-0.04,1.13,-1.25,-0.20,1.48,
2.183,-0.18,-0.04,1.14,-1.25,-0.20,1.48,
2.186,-0.17,-0.04,1.14,-1.25,-0.20,1.48,
2.186,-0.17,-0.04,1.14,-1.17,-0.19,1.46,
2.188,-0.17,-0.03,1.14,-1.17,-0.19,1.46,
2.192,-0.17,-0.03,1.14,-1.17,-0.19,1.46,
2.192,-0.17,-0.03,1.14,-1.11,-0.18,1.48,
2.194,-0.16,-0.03,1.14,-1.11,-0.18,1.48,
2.195,-0.16,-0.03,1.14,-1.11,-0.18,1.48,
2.196,-0.16,-0.03,1.14,-1.05,-0.07,1.50,
2.198,-0.16,-0.03,1.14,-1.05,-0.07,1.50,
2.201,-0.16,-0.03,1.14,-1.05,-0.07,1.50,
2.201,-0.16,-0.03,1.14,-0.99,-0.04,1.52,
2.203,-0.16,-0.03,1.14,-0.99,-0.04,1.52,
2.206,-0.16,-0.03,1.14,-0.93,-0.04,1.51,
2.206,-0.15,-0.03,1.13,-0.93,-0.04,1.51,
2.207,-0.15,-0.03,1.13,-0.93,-0.04,1.51,
2.21,-0.15,-0.04,1.13,-0.93,-0.04,1.51,
2.21,-0.15,-0.04,1.13,-0.86,-0.08,1.46,
2.213,-0.16,-0.04,1.12,-0.86,-0.08,1.46,
2.216,-0.17,-0.04,1.11,-0.86,-0.08,1.46,
2.216,-0.17,-0.04,1.11,-0.79,-0.12,1.39,
2.217,-0.16,-0.04,1.11,-0.79,-0.12,1.39,
2.221,-0.15,-0.04,1.11,-0.79,-0.12,1.39,
2.221,-0.15,-0.04,1.11,-0.88,-0.20,1.29,
2.223,-0.15,-0.04,1.10,-0.88,-0.20,1.29,
2.228,-0.15,-0.03,1.11,-0.88,-0.20,1.29,
2.229,-0.15,-0.03,1.11,-0.82,-0.16,1.21,
2.229,-0.15,-0.03,1.10,-0.82,-0.16,1.21,
2.23,-0.15,-0.03,1.10,-0.70,-0.10,1.17,
2.23,-0.16,-0.04,1.09,-0.70,-0.10,1.17,
2.232,-0.16,-0.04,1.09,-0.70,-0.10,1.17,
2.235,-0.16,-0.04,1.08,-0.70,-0.10,1.17,
2.236,-0.16,-0.04,1.08,-0.72,-0.09,1.04,
2.238,-0.16,-0.04,1.08,-0.72,-0.09,1.04,
2.241,-0.16,-0.04,1.06,-0.72,-0.09,1.04,
2.241,-0.16,-0.04,1.06,-0.75,-0.12,0.96,
2.243,-0.17,-0.04,1.06,-0.75,-0.12,0.96,
2.245,-0.17,-0.04,1.06,-0.75,-0.12,0.96,
2.245,-0.17,-0.04,1.06,-0.75,-0.13,0.82,
2.248,-0.18,-0.04,1.05,-0.75,-0.13,0.82,
2.251,-0.18,-0.04,1.04,-0.75,-0.13,0.82,
2.251,-0.18,-0.04,1.04,-0.81,-0.12,0.75,
2.253,-0.18,-0.04,1.04,-0.81,-0.12,0.75,
2.255,-0.18,-0.04,1.04,-0.89,-0.12,0.59,
2.256,-0.18,-0.03,1.04,-0.89,-0.12,0.59,
2.26,-0.18,-0.03,1.03,-0.89,-0.12,0.59,
2.261,-0.18,-0.03,1.02,-0.89,-0.12,0.59,
2.261,-0.18,-0.03,1.02,-0.87,-0.08,0.53,
2.262,-0.18,-0.04,1.01,-0.87,-0.08,0.53,
2.265,-0.17,-0.03,1.01,-0.87,-0.08,0.53,
2.265,-0.17,-0.03,1.01,-0.88,-0.04,0.37,
2.268,-0.17,-0.03,1.01,-0.88,-0.04,0.37,
2.27,-0.17,-0.03,1.01,-0.88,-0.04,0.37,
2.271,-0.17,-0.03,1.01,-0.81,-0.06,0.27,
2.272,-0.16,-0.03,1.00,-0.81,-0.06,0.27,
2.276,-0.16,-0.03,1.01,-0.81,-0.06,0.27,
2.276,-0.16,-0.03,1.01,-0.75,-0.05,0.25,
2.277,-0.15,-0.03,1.01,-0.75,-0.05,0.25,
2.28,-0.15,-0.03,1.01,-0.75,-0.05,0.25,
2.28,-0.15,-0.03,1.01,-0.67,-0.02,0.19,
2.282,-0.14,-0.03,1.00,-0.67,-0.02,0.19,
2.285,-0.14,-0.03,1.00,-0.67,-0.02,0.19,
2.285,-0.14,-0.03,1.00,-0.53,0.02,0.20,
2.289,-0.13,-0.02,1.01,-0.53,0.02,0.20,
2.29,-0.13,-0.02,1.00,-0.53,0.02,0.20,
2.29,-0.13,-0.02,1.00,-0.43,0.05,0.17,
2.293,-0.12,-0.03,1.01,-0.43,0.05,0.17,
2.294,-0.12,-0.03,1.01,-0.43,0.05,0.17,
2.295,-0.12,-0.03,1.01,-0.32,0.11,0.21,
2.297,-0.12,-0.03,1.01,-0.32,0.11,0.21,
2.3,-0.12,-0.03,1.02,-0.32,0.11,0.21,
2.3,-0.12,-0.03,1.02,-0.24,0.03,0.23,
2.302,-0.11,-0.04,1.02,-0.24,0.03,0.23,
2.304,-0.11,-0.04,1.02,-0.19,0.04,0.31,
2.305,-0.11,-0.04,1.03,-0.19,0.04,0.31,
2.306,-0.11,-0.04,1.04,-0.19,0.04,0.31,
2.311,-0.11,-0.05,1.05,-0.19,0.04,0.31,
2.314,-0.11,-0.05,1.05,-0.13,-0.02,0.43,
2.314,-0.11,-0.05,1.06,-0.13,-0.02,0.43,
2.314,-0.10,-0.06,1.07,-0.13,-0.02,0.43,
2.315,-0.10,-0.06,1.07,-0.08,-0.06,0.63,
2.316,-0.10,-0.06,1.07,-0.08,-0.06,0.63,
2.319,-0.09,-0.06,1.08,-0.08,-0.06,0.63,
2.319,-0.09,-0.06,1.08,-0.03,-0.12,0.77,
2.321,-0.09,-0.07,1.09,-0.03,-0.12,0.77,
2.326,-0.09,-0.07,1.10,-0.03,-0.12,0.77,
2.327,-0.09,-0.07,1.10,0.11,-0.16,0.92,
2.327,-0.09,-0.07,1.10,0.11,-0.16,0.92,
2.329,-0.09,-0.07,1.10,0.14,-0.20,1.07,
2.329,-0.09,-0.07,1.11,0.14,-0.20,1.07,
2.331,-0.09,-0.07,1.11,0.14,-0.20,1.07,
2.334,-0.10,-0.07,1.11,0.14,-0.20,1.07,
2.334,-0.10,-0.07,1.11,0.18,-0.20,1.19,
2.336,-0.10,-0.07,1.12,0.18,-0.20,1.19,
2.339,-0.10,-0.08,1.12,0.18,-0.20,1.19,
2.339,-0.10,-0.08,1.12,0.16,-0.20,1.27,
2.347,-0.10,-0.08,1.13,0.16,-0.20,1.27,
2.348,-0.10,-0.08,1.13,0.16,-0.20,1.27,
2.348,-0.10,-0.08,1.13,0.11,-0.23,1.34,
2.348,-0.10,-0.08,1.12,0.11,-0.23,1.34,
2.35,-0.10,-0.08,1.13,0.11,-0.23,1.34,
2.351,-0.10,-0.08,1.13,0.13,-0.23,1.42,
2.352,-0.11,-0.08,1.13,0.13,-0.23,1.42,
2.354,-0.11,-0.08,1.13,0.12,-0.26,1.39,
2.354,-0.10,-0.08,1.12,0.12,-0.26,1.39,
2.357,-0.10,-0.08,1.11,0.12,-0.26,1.39,
2.361,-0.10,-0.08,1.10,0.12,-0.26,1.39,
2.361,-0.10,-0.08,1.10,0.12,-0.27,1.34,
2.361,-0.10,-0.08,1.10,0.12,-0.27,1.34,
2.364,-0.10,-0.07,1.10,0.12,-0.27,1.34,
2.364,-0.10,-0.07,1.10,0.18,-0.23,1.23,
2.366,-0.09,-0.07,1.09,0.18,-0.23,1.23,
2.368,-0.08,-0.06,1.09,0.18,-0.23,1.23,
2.369,-0.08,-0.06,1.09,0.19,-0.16,1.13,
2.371,-0.08,-0.06,1.08,0.19,-0.16,1.13,
2.374,-0.07,-0.05,1.07,0.19,-0.16,1.13,
2.374,-0.07,-0.05,1.07,0.31,-0.06,1.03,
2.377,-0.06,-0.05,1.07,0.31,-0.06,1.03,
2.38,-0.06,-0.05,1.07,0.43,0.02,0.90,
2.38,-0.06,-0.05,1.06,0.43,0.02,0.90,
2.381,-0.06,-0.04,1.05,0.43,0.02,0.90,
2.384,-0.05,-0.04,1.05,0.43,0.02,0.90,
2.384,-0.05,-0.04,1.05,0.60,0.09,0.75,
2.385,-0.05,-0.04,1.03,0.60,0.09,0.75,
2.388,-0.05,-0.04,1.03,0.60,0.09,0.75,
2.389,-0.05,-0.04,1.03,0.64,0.15,0.60,
2.391,-0.05,-0.04,1.03,0.64,0.15,0.60,
2.395,-0.05,-0.03,1.03,0.64,0.15,0.60,
2.396,-0.05,-0.03,1.03,0.72,0.18,0.49,
2.396,-0.04,-0.04,1.03,0.72,0.18,0.49,
2.398,-0.04,-0.04,1.03,0.72,0.18,0.49,
2.399,-0.04,-0.04,1.03,0.76,0.22,0.41,
2.4,-0.04,-0.04,1.02,0.76,0.22,0.41,
2.403,-0.04,-0.04,1.02,0.76,0.22,0.41,
2.403,-0.04,-0.04,1.02,0.83,0.16,0.44,
2.405,-0.04,-0.04,1.02,0.83,0.16,0.44,
2.41,-0.04,-0.04,1.03,0.83,0.16,0.44,
2.41,-0.04,-0.04,1.03,0.81,0.19,0.38,
2.411,-0.04,-0.04,1.04,0.81,0.19,0.38,
2.414,-0.03,-0.04,1.04,0.81,0.19,0.38,
2.414,-0.03,-0.04,1.04,0.90,0.14,0.44,
2.415,-0.03,-0.05,1.04,0.90,0.14,0.44,
2.418,-0.03,-0.06,1.05,0.90,0.14,0.44,
2.418,-0.03,-0.06,1.05,0.93,0.12,0.51,
2.421,-0.03,-0.06,1.06,0.93,0.12,0.51,
2.423,-0.03,-0.06,1.06,0.93,0.12,0.51,
2.423,-0.03,-0.06,1.06,0.96,0.04,0.62,
2.426,-0.03,-0.06,1.06,0.96,0.04,0.62,
2.428,-0.03,-0.06,1.06,0.98,-0.01,0.73,
2.428,-0.04,-0.06,1.07,0.98,-0.01,0.73,
2.43,-0.04,-0.07,1.08,0.98,-0.01,0.73,
2.433,-0.04,-0.07,1.08,0.98,-0.01,0.73,
2.434,-0.04,-0.07,1.08,0.96,-0.02,0.84,
2.435,-0.04,-0.07,1.09,0.96,-0.02,0.84,
2.438,-0.04,-0.07,1.10,0.96,-0.02,0.84,
2.438,-0.04,-0.07,1.10,0.96,-0.11,0.95,
2.44,-0.04,-0.07,1.09,0.96,-0.11,0.95,
2.448,-0.05,-0.07,1.10,0.96,-0.11,0.95,
2.449,-0.05,-0.07,1.10,0.93,-0.12,1.06,
2.449,-0.05,-0.08,1.11,0.93,-0.12,1.06,
2.449,-0.05,-0.08,1.11,0.93,-0.12,1.06,
2.45,-0.05,-0.08,1.11,0.93,-0.12,1.13,
2.45,-0.05,-0.08,1.11,0.93,-0.12,1.13,
2.453,-0.05,-0.08,1.11,0.89,-0.16,1.26,
2.454,-0.05,-0.08,1.12,0.89,-0.16,1.26,
2.456,-0.05,-0.08,1.12,0.89,-0.16,1.26,
2.458,-0.05,-0.08,1.11,0.89,-0.16,1.26,
2.458,-0.05,-0.08,1.11,0.88,-0.15,1.32,
2.461,-0.05,-0.08,1.12,0.88,-0.15,1.32,
2.462,-0.04,-0.08,1.11,0.88,-0.15,1.32,
2.463,-0.04,-0.08,1.11,0.90,-0.17,1.29,
2.465,-0.04,-0.08,1.11,0.90,-0.17,1.29,
2.467,-0.04,-0.09,1.10,0.90,-0.17,1.29,
2.468,-0.04,-0.09,1.10,0.97,-0.16,1.29,
2.471,-0.03,-0.08,1.11,0.97,-0.16,1.29,
2.473,-0.02,-0.08,1.10,0.97,-0.16,1.29,
2.473,-0.02,-0.08,1.10,1.03,-0.19,1.20,
2.476,-0.01,-0.09,1.09,1.03,-0.19,1.20,
2.479,-0.01,-0.09,1.09,1.16,-0.21,1.18,
2.479,-0.00,-0.08,1.09,1.16,-0.21,1.18,
2.48,0.00,-0.08,1.09,1.16,-0.21,1.18,
2.483,0.00,-0.08,1.09,1.32,-0.21,1.05,
2.483,0.01,-0.08,1.07,1.32,-0.21,1.05,
2.485,0.02,-0.08,1.06,1.32,-0.21,1.05,
2.488,0.02,-0.08,1.06,1.44,-0.18,0.94,
2.488,0.02,-0.08,1.06,1.44,-0.18,0.94,
2.492,0.02,-0.08,1.06,1.44,-0.18,0.94,
2.494,0.02,-0.08,1.05,1.44,-0.18,0.94,
2.494,0.02,-0.08,1.05,1.55,-0.16,0.78,
2.494,0.02,-0.08,1.05,1.55,-0.16,0.78,
2.498,0.02,-0.08,1.05,1.55,-0.16,0.78,
2.498,0.02,-0.08,1.05,1.59,-0.15,0.70,
2.5,0.03,-0.08,1.05,1.59,-0.15,0.70,
2.503,0.03,-0.08,1.05,1.60,-0.17,0.65,
2.503,0.03,-0.08,1.05,1.60,-0.17,0.65,
2.505,0.03,-0.08,1.05,1.60,-0.17,0.65,
2.508,0.03,-0.08,1.06,1.60,-0.17,0.65,
2.508,0.03,-0.08,1.06,1.63,-0.16,0.63,
2.51,0.03,-0.08,1.06,1.63,-0.16,0.63,
2.513,0.03,-0.08,1.06,1.63,-0.16,0.63,
2.513,0.03,-0.08,1.06,1.65,-0.17,0.68,
2.514,0.02,-0.08,1.06,1.65,-0.17,0.68,
2.518,0.02,-0.07,1.06,1.65,-0.17,0.68,
2.518,0.02,-0.07,1.06,1.63,-0.15,0.71,
2.52,0.01,-0.07,1.07,1.63,-0.15,0.71,
2.523,0.01,-0.07,1.07,1.63,-0.15,0.71,
2.523,0.01,-0.07,1.07,1.57,-0.12,0.75,
2.525,0.00,-0.07,1.07,1.57,-0.12,0.75,
2.527,0.00,-0.07,1.07,1.49,-0.12,0.80,
2.527,-0.01,-0.08,1.07,1.49,-0.12,0.80,
2.53,-0.01,-0.08,1.07,1.49,-0.12,0.80,
2.533,-0.01,-0.08,1.07,1.37,-0.14,0.80,
2.533,-0.02,-0.08,1.06,1.37,-0.14,0.80,
2.535,-0.03,-0.07,1.07,1.37,-0.14,0.80,
2.537,-0.04,-0.07,1.06,1.37,-0.14,0.80,
2.538,-0.04,-0.07,1.06,1.24,-0.16,0.80,
2.54,-0.04,-0.07,1.06,1.24,-0.16,0.80,
2.543,-0.04,-0.07,1.06,1.24,-0.16,0.80,
2.543,-0.04,-0.07,1.06,1.09,-0.13,0.78,
2.549,-0.04,-0.07,1.05,1.09,-0.13,0.78,
2.549,-0.04,-0.07,1.05,0.98,-0.14,0.73,
2.549,-0.04,-0.07,1.06,0.98,-0.14,0.73,
2.55,-0.05,-0.06,1.05,0.98,-0.14,0.73,
2.552,-0.05,-0.06,1.05,0.99,-0.11,0.69,
2.552,-0.04,-0.06,1.04,0.99,-0.11,0.69,
2.554,-0.04,-0.06,1.04,0.99,-0.11,0.69,
2.557,-0.04,-0.06,1.04,0.98,-0.04,0.60,
2.557,-0.03,-0.05,1.04,0.98,-0.04,0.60,
2.561,-0.03,-0.06,1.03,0.98,-0.04,0.60,
2.562,-0.03,-0.06,1.03,0.98,-0.04,0.60,
2.562,-0.03,-0.06,1.03,1.06,0.01,0.52,
2.564,-0.02,-0.06,1.03,1.06,0.01,0.52,
2.567,-0.01,-0.06,1.02,1.06,0.01,0.52,
2.568,-0.01,-0.06,1.02,1.12,-0.01,0.43,
2.569,-0.01,-0.05,1.02,1.12,-0.01,0.43,
2.572,-0.01,-0.05,1.02,1.12,-0.01,0.43,
2.572,-0.01,-0.05,1.02,1.22,-0.02,0.41,
2.574,-0.00,-0.05,1.01,1.22,-0.02,0.41,
2.578,-0.00,-0.05,1.01,1.32,-0.00,0.33,
2.578,0.00,-0.05,1.01,1.32,-0.00,0.33,
2.579,0.01,-0.05,1.01,1.32,-0.00,0.33,
2.582,0.01,-0.05,1.01,1.41,-0.01,0.27,
2.582,0.00,-0.06,1.02,1.41,-0.01,0.27,
2.584,0.01,-0.06,1.02,1.41,-0.01,0.27,
2.587,0.01,-0.06,1.02,1.41,-0.01,0.27,
2.587,0.01,-0.06,1.02,1.43,-0.04,0.27,
2.589,0.01,-0.06,1.02,1.43,-0.04,0.27,
2.592,0.00,-0.06,1.02,1.43,-0.04,0.27,
2.592,0.00,-0.06,1.02,1.45,-0.07,0.30,
2.594,-0.00,-0.06,1.03,1.45,-0.07,0.30,
2.597,-0.01,-0.06,1.02,1.45,-0.07,0.30,
2.597,-0.01,-0.06,1.02,1.42,-0.09,0.30,
2.599,-0.01,-0.06,1.03,1.42,-0.09,0.30,
2.602,-0.01,-0.06,1.03,1.34,-0.11,0.36,
2.602,-0.02,-0.06,1.03,1.34,-0.11,0.36,
2.604,-0.02,-0.06,1.03,1.34,-0.11,0.36,
2.607,-0.03,-0.06,1.03,1.34,-0.11,0.36,
2.607,-0.03,-0.06,1.03,1.25,-0.13,0.42,
2.609,-0.03,-0.06,1.03,1.25,-0.13,0.42,
2.612,-0.04,-0.05,1.04,1.25,-0.13,0.42,
2.612,-0.04,-0.05,1.04,1.11,-0.11,0.47,
2.614,-0.05,-0.05,1.04,1.11,-0.11,0.47,
2.616,-0.05,-0.04,1.04,1.11,-0.11,0.47,
2.617,-0.05,-0.04,1.04,1.01,-0.05,0.48,
2.619,-0.06,-0.04,1.04,1.01,-0.05,0.48,
2.622,-0.06,-0.04,1.04,1.01,-0.05,0.48,
2.622,-0.06,-0.04,1.04,0.88,-0.00,0.52,
2.624,-0.06,-0.04,1.04,0.88,-0.00,0.52,
2.632,-0.06,-0.04,1.04,0.78,0.05,0.51,
2.632,-0.06,-0.04,1.04,0.78,0.05,0.51,
2.633,-0.07,-0.04,1.03,0.78,0.05,0.51,
2.633,-0.07,-0.04,1.03,0.78,0.05,0.51,
2.633,-0.07,-0.04,1.03,0.74,0.03,0.49,
2.633,-0.07,-0.03,1.03,0.74,0.03,0.49,
2.636,-0.07,-0.03,1.03,0.68,0.03,0.43,
2.636,-0.07,-0.04,1.03,0.68,0.03,0.43,
2.638,-0.06,-0.04,1.01,0.68,0.03,0.43,
2.641,-0.06,-0.04,1.00,0.68,0.03,0.43,
2.641,-0.06,-0.04,1.00,0.69,0.06,0.38,
2.643,-0.05,-0.03,1.00,0.69,0.06,0.38,
2.647,-0.05,-0.03,1.00,0.69,0.06,0.38,
2.647,-0.05,-0.03,1.00,0.75,0.03,0.18,
2.648,-0.04,-0.04,0.99,0.75,0.03,0.18,
2.651,-0.04,-0.04,0.99,0.80,0.05,0.11,
2.652,-0.04,-0.04,0.99,0.80,0.05,0.11,
2.654,-0.03,-0.03,0.98,0.80,0.05,0.11,
2.657,-0.03,-0.04,0.97,0.80,0.05,0.11,
2.657,-0.03,-0.04,0.97,0.89,0.01,0.01,
2.658,-0.02,-0.03,0.96,0.89,0.01,0.01,
2.661,-0.02,-0.03,0.96,0.89,0.01,0.01,
2.661,-0.02,-0.03,0.96,0.98,0.01,-0.14,
2.663,-0.02,-0.04,0.95,0.98,0.01,-0.14,
2.666,-0.02,-0.04,0.95,0.98,0.01,-0.14,
2.666,-0.02,-0.04,0.95,1.05,0.02,-0.29,
2.669,-0.02,-0.04,0.95,1.05,0.02,-0.29,
2.671,-0.02,-0.04,0.94,1.05,0.02,-0.29,
2.671,-0.02,-0.04,0.94,1.05,-0.05,-0.36,
2.674,-0.01,-0.04,0.94,1.05,-0.05,-0.36,
2.676,-0.01,-0.04,0.94,1.02,-0.04,-0.45,
2.677,-0.01,-0.03,0.94,1.02,-0.04,-0.45,
2.679,-0.01,-0.03,0.94,1.02,-0.04,-0.45,
2.681,-0.01,-0.03,0.94,1.02,-0.04,-0.45,
2.681,-0.01,-0.03,0.94,1.08,-0.02,-0.46,
2.683,-0.01,-0.03,0.95,1.08,-0.02,-0.46,
2.686,-0.01,-0.03,0.95,1.08,-0.02,-0.46,
2.686,-0.01,-0.03,0.95,1.08,-0.02,-0.43,
2.688,-0.01,-0.03,0.95,1.08,-0.02,-0.43,
2.691,-0.00,-0.03,0.95,1.08,-0.02,-0.43,
2.691,-0.00,-0.03,0.95,1.08,-0.02,-0.39,
2.695,-0.01,-0.03,0.95,1.08,-0.02,-0.39,
2.696,-0.01,-0.02,0.96,1.08,-0.02,-0.39,
2.696,-0.01,-0.02,0.96,1.08,0.02,-0.39,
2.698,-0.01,-0.02,0.95,1.08,0.02,-0.39,
2.701,-0.01,-0.02,0.95,1.06,0.02,-0.33,
2.701,-0.01,-0.02,0.96,1.06,0.02,-0.33,
2.703,-0.00,-0.03,0.96,1.06,0.02,-0.33,
2.706,-0.01,-0.02,0.96,1.06,0.02,-0.33,
2.706,-0.01,-0.02,0.96,1.05,0.06,-0.31,
2.708,-0.01,-0.02,0.96,1.05,0.06,-0.31,
2.712,0.00,-0.02,0.96,1.05,0.06,-0.31,
2.713,0.00,-0.02,0.96,1.08,0.04,-0.24,
2.713,-0.00,-0.02,0.96,1.08,0.04,-0.24,
2.716,-0.00,-0.02,0.96,1.08,0.04,-0.24,
2.716,-0.00,-0.02,0.96,1.08,0.06,-0.30,
2.718,-0.00,-0.02,0.96,1.08,0.06,-0.30,
2.721,-0.00,-0.02,0.96,1.08,0.06,-0.30,
2.721,-0.00,-0.02,0.96,1.09,0.10,-0.25,
2.723,-0.00,-0.01,0.96,1.09,0.10,-0.25,
2.726,-0.00,-0.01,0.97,1.09,0.10,-0.25,
2.726,-0.00,-0.01,0.97,1.08,0.10,-0.25,
2.728,-0.01,-0.01,0.97,1.08,0.10,-0.25,
2.73,-0.01,-0.01,0.98,1.08,0.10,-0.25,
2.73,-0.01,-0.01,0.98,1.04,0.12,-0.18,
2.733,-0.01,-0.01,0.98,1.04,0.12,-0.18,
2.735,-0.01,-0.02,0.97,1.04,0.12,-0.18,
2.736,-0.01,-0.02,0.97,1.01,0.12,-0.11,
2.738,-0.01,-0.02,0.98,1.01,0.12,-0.11,
2.741,-0.01,-0.02,0.99,1.01,0.12,-0.11,
2.741,-0.01,-0.02,0.99,0.97,0.10,-0.12,
2.743,-0.02,-0.02,1.01,0.97,0.10,-0.12,
2.748,-0.02,-0.02,1.01,0.97,0.10,-0.12,
2.749,-0.02,-0.02,1.01,0.96,0.08,0.01,
2.749,-0.04,-0.02,1.03,0.96,0.08,0.01,
2.753,-0.04,-0.02,1.03,0.85,0.05,0.24,
2.753,-0.07,-0.03,1.07,0.85,0.05,0.24,
2.753,-0.09,-0.03,1.11,0.85,0.05,0.24,
2.755,-0.10,-0.03,1.13,0.85,0.05,0.24,
2.755,-0.10,-0.03,1.13,0.54,-0.03,0.63,
2.758,-0.09,-0.02,1.13,0.54,-0.03,0.63,
2.762,-0.07,-0.00,1.10,0.54,-0.03,0.63,
2.763,-0.07,-0.00,1.10,0.10,-0.07,1.26,
2.763,-0.04,0.01,1.08,0.10,-0.07,1.26,
2.764,-0.02,0.02,1.06,0.10,-0.07,1.26,
2.765,-0.02,0.02,1.06,0.24,0.12,1.24,
2.767,-0.01,0.02,1.06,0.24,0.12,1.24,
2.77,-0.01,0.02,1.05,0.24,0.12,1.24,
2.77,-0.01,0.02,1.05,0.71,0.36,0.82,
2.772,-0.02,0.02,1.04,0.71,0.36,0.82,
2.777,-0.04,0.01,1.04,0.71,0.36,0.82,
2.777,-0.04,0.01,1.04,0.89,0.42,0.62,
2.777,-0.04,0.01,1.04,0.89,0.42,0.62,
2.78,-0.04,0.00,1.03,0.89,0.42,0.62,
2.781,-0.04,0.00,1.03,0.69,0.30,0.51,
2.782,-0.04,0.00,1.02,0.69,0.30,0.51,
2.784,-0.02,0.01,1.01,0.69,0.30,0.51,
2.785,-0.02,0.01,1.01,0.55,0.22,0.39,
2.787,-0.02,0.00,1.00,0.55,0.22,0.39,
2.789,-0.01,0.01,1.00,0.55,0.22,0.39,
2.79,-0.01,0.01,1.00,0.67,0.20,0.19,
2.791,-0.01,0.01,1.00,0.67,0.20,0.19,
2.795,-0.01,0.01,1.01,0.67,0.20,0.19,
2.795,-0.01,0.01,1.01,0.80,0.18,0.08,
2.796,-0.01,0.01,1.00,0.80,0.18,0.08,
2.799,-0.01,0.01,1.00,0.84,0.21,0.12,
2.8,-0.01,0.01,0.99,0.84,0.21,0.12,
2.801,-0.02,0.01,0.99,0.84,0.21,0.12,
2.804,-0.02,0.02,0.99,0.84,0.21,0.12,
2.807,-0.02,0.02,0.99,0.82,0.23,0.04,
2.808,-0.01,0.02,0.99,0.82,0.23,0.04,
2.809,-0.01,0.02,0.99,0.76,0.27,0.01,
2.81,-0.02,0.02,0.98,0.76,0.27,0.01,
2.812,-0.02,0.02,0.98,0.76,0.27,0.01,
2.815,-0.03,0.02,0.98,0.76,0.27,0.01,
2.815,-0.03,0.02,0.98,0.74,0.29,-0.08,
2.817,-0.04,0.03,0.98,0.74,0.29,-0.08,
2.819,-0.04,0.03,0.98,0.66,0.30,-0.14,
2.82,-0.04,0.03,0.99,0.66,0.30,-0.14,
2.822,-0.04,0.03,0.99,0.66,0.30,-0.14,
2.824,-0.04,0.03,0.99,0.50,0.32,-0.04,
2.824,-0.05,0.03,1.00,0.50,0.32,-0.04,
2.827,-0.05,0.03,1.00,0.50,0.32,-0.04,
2.831,-0.05,0.03,1.00,0.50,0.32,-0.04,
2.831,-0.05,0.03,1.00,0.43,0.34,0.03,
2.832,-0.05,0.03,1.00,0.43,0.34,0.03,
2.834,-0.05,0.04,1.01,0.43,0.34,0.03,
2.834,-0.05,0.04,1.01,0.38,0.35,0.05,
2.837,-0.05,0.04,1.01,0.38,0.35,0.05,
2.839,-0.05,0.04,1.01,0.38,0.35,0.05,
2.84,-0.05,0.04,1.01,0.38,0.36,0.14,
2.842,-0.04,0.04,1.00,0.38,0.36,0.14,
2.844,-0.04,0.04,1.00,0.38,0.36,0.14,
2.844,-0.04,0.04,1.00,0.37,0.40,0.13,
2.848,-0.04,0.04,1.00,0.37,0.40,0.13,
2.85,-0.04,0.04,1.00,0.42,0.38,0.12,
2.85,-0.04,0.04,1.01,0.42,0.38,0.12,
2.853,-0.03,0.03,1.01,0.42,0.38,0.12,
2.855,-0.03,0.03,1.01,0.43,0.36,0.12,
2.856,-0.03,0.03,1.00,0.43,0.36,0.12,
2.856,-0.02,0.03,1.00,0.43,0.36,0.12,
2.859,-0.02,0.03,0.99,0.43,0.36,0.12,
2.859,-0.02,0.03,0.99,0.53,0.31,0.11,
2.861,-0.02,0.03,0.99,0.53,0.31,0.11,
2.864,-0.01,0.03,0.98,0.53,0.31,0.11,
2.864,-0.01,0.03,0.98,0.59,0.26,0.01,
2.866,-0.01,0.02,0.98,0.59,0.26,0.01,
2.869,-0.01,0.02,0.97,0.59,0.26,0.01,
2.869,-0.01,0.02,0.97,0.65,0.23,-0.07,
2.871,-0.00,0.02,0.97,0.65,0.23,-0.07,
2.874,-0.00,0.01,0.97,0.65,0.23,-0.07,
2.875,-0.00,0.01,0.97,0.71,0.17,-0.16,
2.876,-0.00,0.01,0.97,0.71,0.17,-0.16,
2.879,-0.00,0.01,0.97,0.76,0.11,-0.25,
2.88,-0.01,0.01,0.96,0.76,0.11,-0.25,
2.881,-0.00,0.01,0.96,0.76,0.11,-0.25,
2.884,-0.00,0.01,0.95,0.76,0.11,-0.25,
2.884,-0.00,0.01,0.95,0.75,0.03,-0.27,
2.887,-0.00,0.00,0.95,0.75,0.03,-0.27,
2.889,-0.00,0.00,0.95,0.75,0.03,-0.27,
2.889,-0.00,0.00,0.95,0.77,0.01,-0.35,
2.891,-0.00,0.00,0.95,0.77,0.01,-0.35,
2.894,-0.00,0.01,0.95,0.77,0.01,-0.35,
2.894,-0.00,0.01,0.95,0.77,-0.03,-0.38,
2.896,-0.01,0.00,0.96,0.77,-0.03,-0.38,
2.898,-0.01,0.00,0.96,0.76,-0.02,-0.36,
2.899,-0.00,0.00,0.95,0.76,-0.02,-0.36,
2.901,-0.00,0.00,0.95,0.76,-0.02,-0.36,
2.904,-0.01,0.00,0.97,0.76,-0.02,-0.36,
2.904,-0.01,0.00,0.97,0.76,-0.03,-0.35,
2.906,-0.01,-0.00,0.97,0.76,-0.03,-0.35,
2.909,-0.01,0.00,0.93,0.76,-0.03,-0.35,
2.909,-0.01,0.00,0.93,0.74,-0.03,-0.31,
2.913,-0.01,0.01,0.88,0.74,-0.03,-0.31,
2.914,-0.03,0.02,0.85,0.74,-0.03,-0.31,
2.914,-0.03,0.02,0.85,0.74,-0.05,-0.39,
2.915,-0.05,0.03,0.84,0.74,-0.05,-0.39,
2.919,-0.06,0.04,0.85,0.74,-0.05,-0.39,
2.919,-0.06,0.04,0.85,0.63,0.10,-1.22,
2.921,-0.07,0.05,0.87,0.63,0.10,-1.22,
2.924,-0.07,0.05,0.87,0.31,0.26,-1.41,
2.924,-0.07,0.05,0.91,0.31,0.26,-1.41,
2.926,-0.07,0.05,0.92,0.31,0.26,-1.41,
2.928,-0.08,0.06,0.94,0.31,0.26,-1.41,
2.928,-0.08,0.06,0.94,0.17,0.41,-0.95,
2.93,-0.09,0.05,0.97,0.17,0.41,-0.95,
2.934,-0.10,0.03,0.99,0.17,0.41,-0.95,
2.934,-0.10,0.03,0.99,0.11,0.48,-0.52,
2.936,-0.11,0.02,1.02,0.11,0.48,-0.52,
2.938,-0.12,0.01,1.06,0.11,0.48,-0.52,
2.938,-0.12,0.01,1.06,-0.03,0.32,-0.06,
2.941,-0.12,0.01,1.09,-0.03,0.32,-0.06,
2.943,-0.13,0.00,1.11,-0.03,0.32,-0.06,
2.944,-0.13,0.00,1.11,-0.23,0.06,0.54,
2.949,-0.13,0.00,1.13,-0.23,0.06,0.54,
2.95,-0.12,0.00,1.14,-0.23,0.06,0.54,
2.95,-0.12,0.00,1.14,-0.30,-0.00,1.08,
2.95,-0.12,0.01,1.16,-0.30,-0.00,1.08,
2.959,-0.12,0.01,1.16,-0.30,-0.00,1.08,
2.959,-0.12,0.01,1.16,-0.33,-0.04,1.45,
2.96,-0.12,0.01,1.16,-0.33,-0.04,1.45,
2.96,-0.12,0.01,1.16,-0.29,0.04,1.66,
2.96,-0.10,0.01,1.16,-0.29,0.04,1.66,
2.96,-0.10,0.01,1.15,-0.29,0.04,1.66,
2.968,-0.08,0.02,1.13,-0.29,0.04,1.66,
2.968,-0.08,0.02,1.13,-0.17,0.04,1.62,
2.969,-0.07,0.02,1.11,-0.17,0.04,1.62,
2.969,-0.06,0.02,1.09,-0.17,0.04,1.62,
2.969,-0.06,0.02,1.09,0.02,0.10,1.44,
2.971,-0.05,0.03,1.08,0.02,0.10,1.44,
2.974,-0.05,0.03,1.08,0.23,0.16,1.03,
2.974,-0.03,0.03,1.07,0.23,0.16,1.03,
2.975,-0.01,0.03,1.05,0.23,0.16,1.03,
2.989,-0.01,0.03,1.03,0.23,0.16,1.03,
2.99,-0.01,0.03,1.03,0.51,0.21,0.76,
2.99,0.00,0.03,1.03,0.51,0.21,0.76,
2.99,0.01,0.02,1.01,0.51,0.21,0.76,
2.991,0.01,0.02,1.01,0.76,0.19,0.44,
2.991,0.02,0.02,1.01,0.76,0.19,0.44,
2.991,0.01,0.01,1.01,0.76,0.19,0.44,
2.991,0.01,0.01,1.01,0.90,0.11,0.25,
2.991,0.01,0.01,1.00,0.90,0.11,0.25,
