
time,gFx,gFy,gFz,ax,ay,az,
0.004,-0.03,0.09,0.94,-0.36,0.18,-0.24,
0.004,-0.03,0.09,0.94,-0.30,0.07,-0.40,
0.004,-0.03,0.09,0.94,-0.30,0.07,-0.40,
0.004,-0.03,0.09,0.94,-0.26,-0.01,-0.52,
0.004,-0.03,0.09,0.94,-0.26,-0.01,-0.52,
0.005,-0.02,0.09,0.94,-0.26,-0.01,-0.52,
0.008,-0.02,0.09,0.94,-0.26,-0.01,-0.52,
0.008,-0.02,0.09,0.94,-0.23,0.00,-0.57,
0.01,-0.02,0.10,0.94,-0.23,0.00,-0.57,
0.013,-0.01,0.10,0.95,-0.23,0.00,-0.57,
0.013,-0.01,0.10,0.95,-0.13,0.06,-0.60,
0.015,-0.01,0.10,0.94,-0.13,0.06,-0.60,
0.018,-0.01,0.10,0.94,-0.08,0.12,-0.54,
0.018,-0.01,0.10,0.95,-0.08,0.12,-0.54,
0.02,-0.00,0.10,0.95,-0.08,0.12,-0.54,
0.023,-0.00,0.11,0.96,-0.08,0.12,-0.54,
0.023,-0.00,0.11,0.96,0.00,0.15,-0.51,
0.025,-0.01,0.11,0.97,0.00,0.15,-0.51,
0.028,-0.00,0.11,0.97,0.00,0.15,-0.51,
0.028,-0.00,0.11,0.97,0.03,0.19,-0.43,
0.031,-0.01,0.11,0.97,0.03,0.19,-0.43,
0.033,-0.01,0.12,0.97,0.03,0.19,-0.43,
0.033,-0.01,0.12,0.97,0.01,0.23,-0.30,
0.035,-0.01,0.12,0.98,0.01,0.23,-0.30,
0.038,-0.01,0.12,0.98,-0.03,0.29,-0.29,
0.038,-0.01,0.11,0.99,-0.03,0.29,-0.29,
0.04,-0.01,0.11,0.98,-0.03,0.29,-0.29,
0.042,-0.01,0.11,0.98,-0.05,0.29,-0.16,
0.043,-0.01,0.11,0.98,-0.05,0.29,-0.16,
0.045,-0.00,0.11,0.99,-0.05,0.29,-0.16,
0.047,-0.00,0.11,1.00,-0.05,0.29,-0.16,
0.048,-0.00,0.11,1.00,-0.04,0.26,-0.13,
0.05,-0.00,0.10,0.99,-0.04,0.26,-0.13,
0.053,-0.01,0.10,1.00,-0.04,0.26,-0.13,
0.053,-0.01,0.10,1.00,0.03,0.25,-0.04,
0.055,-0.01,0.10,0.99,0.03,0.25,-0.04,
0.057,-0.01,0.09,1.00,0.03,0.25,-0.04,
0.058,-0.01,0.09,1.00,-0.01,0.17,-0.01,
0.06,-0.01,0.09,1.00,-0.01,0.17,-0.01,
0.062,-0.00,0.09,1.00,-0.01,0.17,-0.01,
0.063,-0.00,0.09,1.00,-0.06,0.07,-0.01,
0.065,0.01,0.09,1.00,-0.06,0.07,-0.01,
0.067,0.02,0.09,1.00,-0.06,0.07,-0.01,
0.068,0.02,0.09,1.00,-0.02,0.03,0.01,
0.07,0.02,0.08,1.01,-0.02,0.03,0.01,
0.072,0.02,0.08,1.01,0.14,0.02,0.02,
0.072,0.03,0.09,1.01,0.14,0.02,0.02,
0.074,0.03,0.08,1.01,0.14,0.02,0.02,
0.077,0.03,0.08,1.01,0.24,0.00,0.11,
0.077,0.02,0.08,1.01,0.24,0.00,0.11,
0.079,0.02,0.07,1.01,0.24,0.00,0.11,
0.082,0.02,0.07,1.02,0.24,0.00,0.11,
0.082,0.02,0.07,1.02,0.26,-0.03,0.14,
0.084,0.01,0.07,1.02,0.26,-0.03,0.14,
0.087,0.01,0.07,1.02,0.20,-0.08,0.16,
0.087,0.00,0.07,1.02,0.20,-0.08,0.16,
0.089,0.00,0.07,1.02,0.20,-0.08,0.16,
0.092,0.00,0.07,1.02,0.08,-0.10,0.18,
0.092,-0.01,0.08,1.02,0.08,-0.10,0.18,
0.094,-0.02,0.08,1.02,0.08,-0.10,0.18,
0.098,-0.02,0.09,1.02,0.08,-0.10,0.18,
0.099,-0.02,0.09,1.02,-0.04,-0.06,0.19,
0.099,-0.03,0.09,1.02,-0.04,-0.06,0.19,
0.102,-0.03,0.09,1.02,-0.21,0.02,0.23,
0.102,-0.03,0.10,1.02,-0.21,0.02,0.23,
0.104,-0.03,0.10,1.03,-0.21,0.02,0.23,
0.107,-0.03,0.10,1.02,-0.21,0.02,0.23,
0.107,-0.03,0.10,1.02,-0.29,0.11,0.22,
0.109,-0.03,0.11,1.01,-0.29,0.11,0.22,
0.112,-0.03,0.11,1.01,-0.33,0.19,0.23,
0.112,-0.03,0.11,1.00,-0.33,0.19,0.23,
0.114,-0.02,0.10,1.00,-0.33,0.19,0.23,
0.117,-0.02,0.10,1.00,-0.29,0.26,0.10,
0.117,-0.02,0.09,1.00,-0.29,0.26,0.10,
0.119,-0.02,0.09,0.99,-0.29,0.26,0.10,
0.121,-0.02,0.09,0.99,-0.29,0.26,0.10,
0.122,-0.02,0.09,0.99,-0.28,0.15,-0.01,
0.124,-0.01,0.08,0.99,-0.28,0.15,-0.01,
0.127,-0.01,0.07,0.99,-0.28,0.15,-0.01,
0.127,-0.01,0.07,0.99,-0.25,0.09,-0.10,
0.129,-0.02,0.07,1.00,-0.25,0.09,-0.10,
0.132,-0.02,0.07,1.01,-0.25,0.09,-0.10,
0.132,-0.02,0.07,1.01,-0.21,-0.02,-0.10,
0.134,-0.02,0.07,1.02,-0.21,-0.02,-0.10,
0.136,-0.02,0.06,1.02,-0.21,-0.02,-0.10,
0.137,-0.02,0.06,1.02,-0.28,-0.10,0.06,
0.139,-0.01,0.06,1.02,-0.28,-0.10,0.06,
0.142,-0.01,0.06,1.03,-0.28,-0.10,0.06,
0.142,-0.01,0.06,1.03,-0.27,-0.10,0.18,
0.144,-0.01,0.07,1.03,-0.27,-0.10,0.18,
0.147,-0.01,0.07,1.03,-0.27,-0.10,0.18,
0.147,-0.01,0.07,1.03,-0.23,-0.11,0.22,
0.15,-0.01,0.07,1.04,-0.23,-0.11,0.22,
0.151,-0.01,0.07,1.04,-0.22,-0.02,0.28,
0.152,-0.01,0.07,1.04,-0.22,-0.02,0.28,
0.154,-0.02,0.07,1.04,-0.22,-0.02,0.28,
0.156,-0.02,0.07,1.05,-0.22,-0.02,0.28,
0.157,-0.02,0.07,1.05,-0.27,0.02,0.37,
0.158,-0.02,0.08,1.05,-0.27,0.02,0.37,
0.161,-0.03,0.07,1.05,-0.27,0.02,0.37,
0.163,-0.03,0.07,1.05,-0.31,0.05,0.41,
0.163,-0.02,0.08,1.05,-0.31,0.05,0.41,
0.166,-0.03,0.08,1.06,-0.31,0.05,0.41,
0.167,-0.03,0.08,1.06,-0.36,0.07,0.46,
0.168,-0.03,0.08,1.06,-0.36,0.07,0.46,
0.171,-0.04,0.09,1.06,-0.36,0.07,0.46,
0.172,-0.04,0.09,1.06,-0.40,0.11,0.51,
0.174,-0.05,0.09,1.06,-0.40,0.11,0.51,
0.176,-0.05,0.09,1.07,-0.40,0.11,0.51,
0.176,-0.05,0.09,1.07,-0.50,0.17,0.55,
0.179,-0.05,0.10,1.06,-0.50,0.17,0.55,
0.184,-0.05,0.10,1.06,-0.60,0.24,0.59,
0.184,-0.06,0.10,1.07,-0.60,0.24,0.59,
0.184,-0.07,0.11,1.07,-0.60,0.24,0.59,
0.186,-0.07,0.11,1.06,-0.60,0.24,0.59,
0.186,-0.07,0.11,1.06,-0.69,0.37,0.60,
0.188,-0.08,0.11,1.07,-0.69,0.37,0.60,
0.192,-0.08,0.11,1.07,-0.85,0.46,0.59,
0.192,-0.08,0.11,1.07,-0.85,0.46,0.59,
0.194,-0.09,0.11,1.07,-0.85,0.46,0.59,
0.196,-0.10,0.10,1.07,-0.85,0.46,0.59,
0.196,-0.10,0.10,1.07,-0.91,0.47,0.63,
0.198,-0.10,0.10,1.08,-0.91,0.47,0.63,
0.201,-0.11,0.10,1.07,-0.91,0.47,0.63,
0.202,-0.11,0.10,1.07,-1.04,0.45,0.62,
0.204,-0.11,0.10,1.08,-1.04,0.45,0.62,
0.206,-0.12,0.10,1.07,-1.04,0.45,0.62,
0.207,-0.12,0.10,1.07,-1.18,0.40,0.67,
0.209,-0.11,0.10,1.07,-1.18,0.40,0.67,
0.211,-0.12,0.09,1.08,-1.18,0.40,0.67,
0.211,-0.12,0.09,1.08,-1.26,0.37,0.66,
0.214,-0.13,0.09,1.08,-1.26,0.37,0.66,
0.217,-0.13,0.09,1.08,-1.28,0.39,0.67,
0.217,-0.13,0.09,1.08,-1.28,0.39,0.67,
0.218,-0.13,0.09,1.08,-1.28,0.39,0.67,
0.221,-0.13,0.09,1.08,-1.28,0.39,0.67,
0.221,-0.13,0.09,1.08,-1.38,0.30,0.74,
0.224,-0.12,0.08,1.09,-1.38,0.30,0.74,
0.226,-0.14,0.07,1.09,-1.38,0.30,0.74,
0.226,-0.14,0.07,1.09,-1.39,0.29,0.71,
0.229,-0.14,0.06,1.09,-1.39,0.29,0.71,
0.231,-0.15,0.05,1.09,-1.39,0.29,0.71,
0.231,-0.15,0.05,1.09,-1.41,0.16,0.78,
0.233,-0.16,0.04,1.09,-1.41,0.16,0.78,
0.236,-0.17,0.04,1.09,-1.41,0.16,0.78,
0.236,-0.17,0.04,1.09,-1.58,0.03,0.79,
0.238,-0.17,0.05,1.10,-1.58,0.03,0.79,
0.241,-0.17,0.04,1.10,-1.58,0.03,0.79,
0.241,-0.17,0.04,1.10,-1.72,-0.11,0.80,
0.243,-0.18,0.04,1.09,-1.72,-0.11,0.80,
0.246,-0.18,0.05,1.10,-1.72,-0.11,0.80,
0.246,-0.18,0.05,1.10,-1.77,-0.08,0.83,
0.253,-0.18,0.05,1.09,-1.77,-0.08,0.83,
0.253,-0.19,0.05,1.10,-1.77,-0.08,0.83,
0.253,-0.19,0.05,1.10,-1.87,-0.06,0.83,
0.254,-0.19,0.06,1.10,-1.87,-0.06,0.83,
0.256,-0.19,0.05,1.10,-1.87,-0.06,0.83,
0.256,-0.19,0.05,1.10,-1.93,0.01,0.81,
0.258,-0.19,0.05,1.10,-1.93,0.01,0.81,
0.261,-0.18,0.06,1.09,-1.93,0.01,0.81,
0.261,-0.18,0.06,1.09,-1.96,0.04,0.80,
0.263,-0.19,0.05,1.09,-1.96,0.04,0.80,
0.266,-0.18,0.04,1.10,-1.96,0.04,0.80,
0.267,-0.18,0.04,1.10,-1.94,0.04,0.81,
0.268,-0.18,0.04,1.09,-1.94,0.04,0.81,
0.271,-0.18,0.04,1.09,-1.94,0.04,0.81,
0.271,-0.18,0.04,1.09,-1.91,-0.04,0.77,
0.273,-0.17,0.04,1.09,-1.91,-0.04,0.77,
0.276,-0.17,0.04,1.09,-1.91,-0.04,0.77,
0.276,-0.17,0.04,1.09,-1.85,-0.11,0.73,
0.278,-0.16,0.03,1.08,-1.85,-0.11,0.73,
0.281,-0.15,0.03,1.08,-1.85,-0.11,0.73,
0.281,-0.15,0.03,1.08,-1.79,-0.13,0.72,
0.284,-0.15,0.04,1.08,-1.79,-0.13,0.72,
0.285,-0.14,0.04,1.07,-1.79,-0.13,0.72,
0.285,-0.14,0.04,1.07,-1.66,-0.20,0.62,
0.287,-0.14,0.03,1.06,-1.66,-0.20,0.62,
0.291,-0.13,0.03,1.06,-1.66,-0.20,0.62,
0.291,-0.13,0.03,1.06,-1.56,-0.17,0.59,
0.293,-0.12,0.03,1.06,-1.56,-0.17,0.59,
0.295,-0.12,0.03,1.06,-1.56,-0.17,0.59,
0.296,-0.12,0.03,1.06,-1.43,-0.21,0.45,
0.298,-0.12,0.02,1.04,-1.43,-0.21,0.45,
0.301,-0.12,0.02,1.04,-1.43,-0.21,0.45,
0.301,-0.12,0.02,1.04,-1.31,-0.25,0.38,
0.302,-0.11,0.02,1.03,-1.31,-0.25,0.38,
0.305,-0.11,0.01,1.03,-1.31,-0.25,0.38,
0.306,-0.11,0.01,1.03,-1.26,-0.33,0.24,
0.308,-0.11,0.00,1.02,-1.26,-0.33,0.24,
0.31,-0.10,0.00,1.02,-1.26,-0.33,0.24,
0.311,-0.10,0.00,1.02,-1.23,-0.43,0.12,
0.313,-0.10,-0.00,1.01,-1.23,-0.43,0.12,
0.316,-0.10,-0.01,1.00,-1.23,-0.43,0.12,
0.317,-0.10,-0.01,1.00,-1.10,-0.54,0.02,
0.318,-0.09,-0.01,1.00,-1.10,-0.54,0.02,
0.32,-0.09,-0.01,1.00,-1.10,-0.54,0.02,
0.32,-0.09,-0.01,1.00,-1.09,-0.65,-0.11,
0.322,-0.09,-0.01,0.99,-1.09,-0.65,-0.11,
0.325,-0.08,-0.01,1.00,-1.09,-0.65,-0.11,
0.325,-0.08,-0.01,1.00,-0.96,-0.68,-0.17,
0.327,-0.08,-0.01,0.99,-0.96,-0.68,-0.17,
0.33,-0.07,-0.00,0.98,-0.96,-0.68,-0.17,
0.33,-0.07,-0.00,0.98,-0.91,-0.72,-0.22,
0.333,-0.07,0.00,0.98,-0.91,-0.72,-0.22,
0.335,-0.06,0.01,0.97,-0.91,-0.72,-0.22,
0.335,-0.06,0.01,0.97,-0.79,-0.67,-0.34,
0.337,-0.06,0.02,0.97,-0.79,-0.67,-0.34,
0.34,-0.05,0.03,0.97,-0.79,-0.67,-0.34,
0.34,-0.05,0.03,0.97,-0.69,-0.56,-0.40,
0.342,-0.05,0.03,0.98,-0.69,-0.56,-0.40,
0.344,-0.05,0.04,0.97,-0.69,-0.56,-0.40,
0.345,-0.05,0.04,0.97,-0.58,-0.41,-0.44,
0.347,-0.06,0.04,0.97,-0.58,-0.41,-0.44,
0.35,-0.05,0.04,0.97,-0.58,-0.41,-0.44,
0.35,-0.05,0.04,0.97,-0.52,-0.34,-0.41,
0.352,-0.05,0.05,0.98,-0.52,-0.34,-0.41,
0.354,-0.05,0.05,0.97,-0.52,-0.34,-0.41,
0.355,-0.05,0.05,0.97,-0.55,-0.24,-0.47,
0.356,-0.05,0.05,0.97,-0.55,-0.24,-0.47,
0.359,-0.05,0.06,0.97,-0.55,-0.24,-0.47,
0.359,-0.05,0.06,0.97,-0.52,-0.19,-0.39,
0.361,-0.05,0.06,0.97,-0.52,-0.19,-0.39,
0.364,-0.05,0.07,0.96,-0.52,-0.19,-0.39,
0.364,-0.05,0.07,0.96,-0.52,-0.15,-0.41,
0.37,-0.04,0.07,0.96,-0.52,-0.15,-0.41,
0.37,-0.03,0.07,0.96,-0.52,-0.15,-0.41,
0.37,-0.03,0.07,0.96,-0.48,-0.04,-0.49,
0.371,-0.04,0.08,0.96,-0.48,-0.04,-0.49,
0.374,-0.04,0.08,0.96,-0.48,-0.04,-0.49,
0.374,-0.04,0.08,0.96,-0.38,0.01,-0.54,
0.376,-0.04,0.08,0.95,-0.38,0.01,-0.54,
0.379,-0.04,0.08,0.95,-0.38,0.01,-0.54,
0.379,-0.04,0.08,0.95,-0.40,0.08,-0.54,
0.381,-0.03,0.08,0.95,-0.40,0.08,-0.54,
0.385,-0.03,0.09,0.94,-0.40,0.08,-0.54,
0.385,-0.03,0.09,0.94,-0.39,0.12,-0.58,
0.386,-0.03,0.08,0.93,-0.39,0.12,-0.58,
0.389,-0.03,0.08,0.93,-0.39,0.12,-0.58,
0.389,-0.03,0.08,0.93,-0.36,0.13,-0.65,
0.391,-0.03,0.09,0.93,-0.36,0.13,-0.65,
0.394,-0.03,0.09,0.92,-0.36,0.13,-0.65,
0.394,-0.03,0.09,0.92,-0.38,0.12,-0.78,
0.396,-0.04,0.09,0.92,-0.38,0.12,-0.78,
0.4,-0.04,0.09,0.92,-0.38,0.12,-0.78,
0.4,-0.04,0.09,0.92,-0.39,0.15,-0.83,
0.401,-0.05,0.08,0.91,-0.39,0.15,-0.83,
0.405,-0.06,0.08,0.90,-0.39,0.15,-0.83,
0.405,-0.06,0.08,0.90,-0.50,0.13,-0.90,
0.406,-0.06,0.07,0.90,-0.50,0.13,-0.90,
0.409,-0.06,0.07,0.90,-0.50,0.13,-0.90,
0.409,-0.06,0.07,0.90,-0.63,0.05,-1.01,
0.411,-0.07,0.07,0.90,-0.63,0.05,-1.01,
0.414,-0.07,0.07,0.90,-0.69,0.01,-1.04,
0.414,-0.07,0.06,0.89,-0.69,0.01,-1.04,
0.416,-0.07,0.06,0.89,-0.69,0.01,-1.04,
0.419,-0.08,0.06,0.88,-0.69,0.01,-1.04,
0.419,-0.08,0.06,0.88,-0.81,-0.07,-1.09,
0.421,-0.08,0.06,0.89,-0.81,-0.07,-1.09,
0.424,-0.09,0.06,0.88,-0.81,-0.07,-1.09,
0.424,-0.09,0.06,0.88,-0.86,-0.13,-1.18,
0.426,-0.09,0.05,0.89,-0.86,-0.13,-1.18,
0.429,-0.10,0.06,0.89,-0.86,-0.13,-1.18,
0.429,-0.10,0.06,0.89,-0.96,-0.19,-1.17,
0.431,-0.11,0.05,0.89,-0.96,-0.19,-1.17,
0.434,-0.11,0.05,0.88,-0.96,-0.19,-1.17,
0.434,-0.11,0.05,0.88,-1.07,-0.21,-1.16,
0.436,-0.11,0.05,0.88,-1.07,-0.21,-1.16,
0.438,-0.11,0.05,0.88,-1.19,-0.28,-1.19,
0.439,-0.11,0.05,0.88,-1.19,-0.28,-1.19,
0.441,-0.12,0.05,0.88,-1.19,-0.28,-1.19,
0.443,-0.12,0.05,0.88,-1.19,-0.28,-1.19,
0.444,-0.12,0.05,0.88,-1.19,-0.29,-1.18,
0.446,-0.11,0.06,0.89,-1.19,-0.29,-1.18,
0.448,-0.11,0.07,0.89,-1.19,-0.29,-1.18,
0.449,-0.11,0.07,0.89,-1.20,-0.25,-1.19,
0.454,-0.11,0.08,0.89,-1.20,-0.25,-1.19,
0.454,-0.10,0.09,0.89,-1.20,-0.25,-1.19,
0.454,-0.10,0.09,0.89,-1.09,-0.12,-1.13,
0.455,-0.10,0.10,0.90,-1.09,-0.12,-1.13,
0.458,-0.09,0.11,0.90,-1.09,-0.12,-1.13,
0.458,-0.09,0.11,0.90,-1.05,0.01,-1.06,
0.46,-0.09,0.12,0.90,-1.05,0.01,-1.06,
0.463,-0.09,0.12,0.90,-0.93,0.22,-1.04,
0.463,-0.09,0.12,0.90,-0.93,0.22,-1.04,
0.467,-0.09,0.13,0.90,-0.93,0.22,-1.04,
0.468,-0.10,0.13,0.90,-0.93,0.22,-1.04,
0.468,-0.10,0.13,0.90,-0.87,0.34,-0.97,
0.47,-0.10,0.13,0.90,-0.87,0.34,-0.97,
0.473,-0.10,0.13,0.90,-0.87,0.34,-0.97,
0.473,-0.10,0.13,0.90,-0.86,0.46,-0.96,
0.475,-0.10,0.13,0.90,-0.86,0.46,-0.96,
0.478,-0.11,0.13,0.90,-0.86,0.46,-0.96,
0.478,-0.11,0.13,0.90,-0.88,0.44,-0.93,
0.481,-0.11,0.13,0.90,-0.88,0.44,-0.93,
0.484,-0.11,0.12,0.89,-0.88,0.44,-0.93,
0.485,-0.11,0.12,0.89,-0.93,0.43,-0.98,
0.485,-0.11,0.12,0.89,-0.93,0.43,-0.98,
0.488,-0.11,0.12,0.89,-0.97,0.36,-1.01,
0.488,-0.12,0.12,0.89,-0.97,0.36,-1.01,
0.49,-0.12,0.11,0.89,-0.97,0.36,-1.01,
0.493,-0.12,0.11,0.89,-0.97,0.36,-1.01,
0.493,-0.12,0.11,0.89,-1.02,0.26,-1.02,
0.495,-0.13,0.10,0.89,-1.02,0.26,-1.02,
0.498,-0.13,0.10,0.89,-1.02,0.26,-1.02,
0.498,-0.13,0.10,0.89,-1.06,0.18,-1.06,
0.501,-0.13,0.10,0.89,-1.06,0.18,-1.06,
0.503,-0.13,0.08,0.89,-1.06,0.18,-1.06,
0.503,-0.13,0.08,0.89,-1.12,0.08,-1.02,
0.505,-0.14,0.08,0.89,-1.12,0.08,-1.02,
0.508,-0.14,0.07,0.90,-1.12,0.08,-1.02,
0.509,-0.14,0.07,0.90,-1.14,-0.06,-1.02,
0.511,-0.14,0.06,0.90,-1.14,-0.06,-1.02,
0.513,-0.14,0.06,0.90,-1.17,-0.21,-0.97,
0.514,-0.14,0.05,0.90,-1.17,-0.21,-0.97,
0.516,-0.14,0.05,0.91,-1.17,-0.21,-0.97,
0.518,-0.13,0.05,0.91,-1.17,-0.21,-0.97,
0.519,-0.13,0.05,0.91,-1.22,-0.37,-0.90,
0.521,-0.13,0.05,0.91,-1.22,-0.37,-0.90,
0.524,-0.13,0.06,0.92,-1.22,-0.37,-0.90,
0.524,-0.13,0.06,0.92,-1.14,-0.41,-0.84,
0.526,-0.12,0.06,0.91,-1.14,-0.41,-0.84,
0.528,-0.12,0.06,0.92,-1.14,-0.41,-0.84,
0.529,-0.12,0.06,0.92,-1.11,-0.38,-0.80,
0.531,-0.12,0.07,0.92,-1.11,-0.38,-0.80,
0.534,-0.11,0.08,0.92,-1.11,-0.38,-0.80,
0.534,-0.11,0.08,0.92,-0.99,-0.34,-0.74,
0.535,-0.11,0.08,0.92,-0.99,-0.34,-0.74,
0.538,-0.11,0.08,0.92,-0.89,-0.24,-0.70,
0.538,-0.10,0.08,0.93,-0.89,-0.24,-0.70,
0.54,-0.10,0.08,0.92,-0.89,-0.24,-0.70,
0.543,-0.09,0.08,0.93,-0.89,-0.24,-0.70,
0.543,-0.09,0.08,0.93,-0.80,-0.15,-0.66,
0.545,-0.08,0.09,0.93,-0.80,-0.15,-0.66,
0.548,-0.08,0.10,0.94,-0.80,-0.15,-0.66,
0.548,-0.08,0.10,0.94,-0.68,-0.16,-0.66,
0.55,-0.07,0.10,0.94,-0.68,-0.16,-0.66,
0.552,-0.06,0.11,0.94,-0.68,-0.16,-0.66,
0.553,-0.06,0.11,0.94,-0.53,-0.07,-0.57,
0.555,-0.05,0.11,0.94,-0.53,-0.07,-0.57,
0.558,-0.05,0.12,0.94,-0.53,-0.07,-0.57,
0.558,-0.05,0.12,0.94,-0.40,0.06,-0.53,
0.56,-0.04,0.13,0.93,-0.40,0.06,-0.53,
0.563,-0.04,0.13,0.93,-0.21,0.16,-0.51,
0.563,-0.04,0.13,0.94,-0.21,0.16,-0.51,
0.565,-0.03,0.14,0.94,-0.21,0.16,-0.51,
0.571,-0.03,0.14,0.93,-0.21,0.16,-0.51,
0.571,-0.03,0.14,0.93,-0.09,0.25,-0.53,
0.572,-0.03,0.13,0.94,-0.09,0.25,-0.53,
0.572,-0.03,0.13,0.94,-0.09,0.25,-0.53,
0.572,-0.03,0.13,0.94,0.03,0.32,-0.53,
0.575,-0.02,0.13,0.94,0.03,0.32,-0.53,
0.578,-0.02,0.13,0.94,0.03,0.32,-0.53,
0.578,-0.02,0.13,0.94,0.02,0.29,-0.51,
0.58,-0.03,0.13,0.95,0.02,0.29,-0.51,
0.583,-0.03,0.12,0.95,0.02,0.29,-0.51,
0.583,-0.03,0.12,0.95,0.11,0.25,-0.48,
0.585,-0.02,0.13,0.95,0.11,0.25,-0.48,
0.588,-0.02,0.13,0.95,0.08,0.18,-0.41,
0.588,-0.03,0.12,0.95,0.08,0.18,-0.41,
0.589,-0.03,0.11,0.94,0.08,0.18,-0.41,
0.593,-0.03,0.11,0.95,0.08,0.18,-0.41,
0.593,-0.03,0.11,0.95,0.12,0.12,-0.38,
0.595,-0.03,0.10,0.96,0.12,0.12,-0.38,
0.597,-0.04,0.10,0.95,0.12,0.12,-0.38,
0.597,-0.04,0.10,0.95,0.05,-0.02,-0.39,
0.599,-0.04,0.09,0.95,0.05,-0.02,-0.39,
0.602,-0.04,0.08,0.95,0.05,-0.02,-0.39,
0.603,-0.04,0.08,0.95,0.04,-0.12,-0.32,
0.604,-0.04,0.07,0.95,0.04,-0.12,-0.32,
0.607,-0.04,0.06,0.95,0.04,-0.12,-0.32,
0.607,-0.04,0.06,0.95,-0.01,-0.28,-0.32,
0.61,-0.04,0.05,0.95,-0.01,-0.28,-0.32,
0.612,-0.04,0.05,0.95,-0.02,-0.43,-0.33,
0.612,-0.04,0.05,0.95,-0.02,-0.43,-0.33,
0.615,-0.04,0.04,0.96,-0.02,-0.43,-0.33,
0.617,-0.04,0.03,0.95,-0.02,-0.43,-0.33,
0.617,-0.04,0.03,0.95,-0.03,-0.59,-0.32,
0.619,-0.04,0.02,0.96,-0.03,-0.59,-0.32,
0.622,-0.04,0.02,0.96,-0.01,-0.77,-0.30,
0.622,-0.05,0.01,0.96,-0.01,-0.77,-0.30,
0.624,-0.05,0.01,0.97,-0.01,-0.77,-0.30,
0.627,-0.05,0.01,0.97,-0.01,-0.77,-0.30,
0.627,-0.05,0.01,0.97,-0.05,-0.91,-0.24,
0.63,-0.05,-0.00,0.96,-0.05,-0.91,-0.24,
0.632,-0.04,-0.01,0.97,-0.05,-0.91,-0.24,
0.632,-0.04,-0.01,0.97,-0.08,-1.00,-0.19,
0.635,-0.04,-0.01,0.97,-0.08,-1.00,-0.19,
0.637,-0.04,-0.01,0.97,-0.07,-1.12,-0.21,
0.637,-0.03,-0.01,0.97,-0.07,-1.12,-0.21,
0.639,-0.03,-0.01,0.98,-0.07,-1.12,-0.21,
0.642,-0.02,0.00,0.98,-0.07,-1.12,-0.21,
0.642,-0.02,0.00,0.98,0.01,-1.15,-0.15,
0.644,-0.01,0.01,0.99,0.01,-1.15,-0.15,
0.647,-0.01,0.01,0.99,0.16,-1.05,-0.05,
0.647,-0.00,0.03,0.99,0.16,-1.05,-0.05,
0.649,0.01,0.04,1.00,0.16,-1.05,-0.05,
0.651,0.01,0.06,1.00,0.16,-1.05,-0.05,
0.652,0.01,0.06,1.00,0.32,-0.84,0.05,
0.654,0.03,0.07,1.00,0.32,-0.84,0.05,
0.657,0.04,0.08,1.00,0.32,-0.84,0.05,
0.659,0.04,0.08,1.00,0.47,-0.56,0.13,
0.66,0.05,0.09,1.01,0.47,-0.56,0.13,
0.662,0.05,0.09,1.01,0.69,-0.32,0.14,
0.662,0.06,0.10,1.00,0.69,-0.32,0.14,
0.664,0.06,0.10,1.01,0.69,-0.32,0.14,
0.667,0.06,0.11,1.01,0.69,-0.32,0.14,
0.667,0.06,0.11,1.01,0.87,-0.11,0.18,
0.672,0.06,0.11,1.01,0.87,-0.11,0.18,
0.672,0.06,0.10,1.01,0.87,-0.11,0.18,
0.673,0.06,0.10,1.01,0.96,-0.04,0.26,
0.674,0.06,0.10,1.00,0.96,-0.04,0.26,
0.676,0.06,0.10,1.00,0.96,-0.04,0.26,
0.677,0.06,0.10,1.00,0.94,-0.08,0.21,
0.679,0.06,0.10,1.00,0.94,-0.08,0.21,
0.682,0.05,0.10,1.00,0.94,-0.08,0.21,
0.682,0.05,0.10,1.00,0.91,-0.10,0.17,
0.685,0.04,0.10,0.99,0.91,-0.10,0.17,
0.686,0.04,0.10,0.99,0.85,-0.15,0.13,
0.687,0.04,0.09,0.99,0.85,-0.15,0.13,
0.688,0.03,0.10,0.98,0.85,-0.15,0.13,
0.692,0.03,0.10,0.97,0.85,-0.15,0.13,
0.692,0.03,0.10,0.97,0.75,-0.21,0.07,
0.694,0.02,0.09,0.97,0.75,-0.21,0.07,
0.696,0.02,0.09,0.95,0.75,-0.21,0.07,
0.697,0.02,0.09,0.95,0.66,-0.21,-0.06,
0.699,0.01,0.09,0.95,0.66,-0.21,-0.06,
0.702,0.01,0.08,0.94,0.66,-0.21,-0.06,
0.702,0.01,0.08,0.94,0.55,-0.29,-0.23,
0.706,0.00,0.07,0.93,0.55,-0.29,-0.23,
0.706,0.00,0.07,0.93,0.47,-0.41,-0.39,
0.707,-0.00,0.07,0.93,0.47,-0.41,-0.39,
0.709,-0.01,0.07,0.92,0.47,-0.41,-0.39,
0.712,-0.01,0.07,0.92,0.35,-0.53,-0.52,
0.712,-0.01,0.06,0.92,0.35,-0.53,-0.52,
0.714,-0.01,0.06,0.91,0.35,-0.53,-0.52,
0.716,-0.01,0.05,0.92,0.35,-0.53,-0.52,
0.717,-0.01,0.05,0.92,0.29,-0.63,-0.61,
0.719,-0.01,0.05,0.92,0.29,-0.63,-0.61,
0.721,-0.01,0.05,0.92,0.29,-0.63,-0.61,
0.721,-0.01,0.05,0.92,0.28,-0.70,-0.64,
0.723,-0.01,0.04,0.93,0.28,-0.70,-0.64,
0.726,-0.01,0.04,0.93,0.27,-0.79,-0.60,
0.727,-0.00,0.03,0.93,0.27,-0.79,-0.60,
0.728,-0.00,0.03,0.94,0.27,-0.79,-0.60,
0.731,0.01,0.02,0.94,0.27,-0.79,-0.60,
0.731,0.01,0.02,0.94,0.30,-0.90,-0.51,
0.733,0.01,0.02,0.95,0.30,-0.90,-0.51,
0.735,0.01,0.02,0.95,0.36,-0.99,-0.38,
0.736,0.01,0.01,0.96,0.36,-0.99,-0.38,
0.738,0.01,0.01,0.97,0.36,-0.99,-0.38,
0.741,0.01,-0.00,0.97,0.36,-0.99,-0.38,
0.741,0.01,-0.00,0.97,0.42,-1.10,-0.25,
0.743,0.02,-0.00,0.98,0.42,-1.10,-0.25,
0.745,0.02,-0.01,0.97,0.42,-1.10,-0.25,
0.746,0.02,-0.01,0.97,0.45,-1.21,-0.14,
0.748,0.02,-0.01,0.98,0.45,-1.21,-0.14,
0.755,0.02,-0.01,0.99,0.45,-1.21,-0.14,
0.755,0.02,-0.01,0.99,0.53,-1.30,-0.07,
0.756,0.02,-0.01,0.98,0.53,-1.30,-0.07,
0.756,0.01,-0.02,0.98,0.53,-1.30,-0.07,
0.756,0.01,-0.02,0.98,0.50,-1.35,0.02,
0.758,0.01,-0.02,0.98,0.50,-1.35,0.02,
0.76,0.01,-0.02,0.98,0.46,-1.38,-0.03,
0.761,0.01,-0.02,0.97,0.46,-1.38,-0.03,
0.762,0.01,-0.02,0.96,0.46,-1.38,-0.03,
0.765,0.01,-0.01,0.95,0.46,-1.38,-0.03,
0.765,0.01,-0.01,0.95,0.37,-1.38,-0.10,
0.768,0.01,-0.01,0.94,0.37,-1.38,-0.10,
0.77,0.02,0.00,0.94,0.37,-1.38,-0.10,
0.77,0.02,0.00,0.94,0.36,-1.38,-0.25,
0.772,0.02,0.01,0.94,0.36,-1.38,-0.25,
0.775,0.02,0.02,0.93,0.36,-1.38,-0.25,
0.775,0.02,0.02,0.93,0.42,-1.28,-0.39,
0.777,0.02,0.03,0.93,0.42,-1.28,-0.39,
0.781,0.03,0.05,0.92,0.42,-1.28,-0.39,
0.781,0.03,0.05,0.92,0.48,-1.09,-0.44,
0.782,0.03,0.05,0.92,0.48,-1.09,-0.44,
0.786,0.04,0.06,0.91,0.48,-1.09,-0.44,
0.787,0.04,0.06,0.91,0.54,-0.88,-0.55,
0.787,0.04,0.07,0.90,0.54,-0.88,-0.55,
0.79,0.04,0.08,0.90,0.54,-0.88,-0.55,
0.79,0.04,0.08,0.90,0.62,-0.70,-0.63,
0.792,0.04,0.09,0.90,0.62,-0.70,-0.63,
0.795,0.04,0.10,0.89,0.62,-0.70,-0.63,
0.795,0.04,0.10,0.89,0.68,-0.56,-0.75,
0.797,0.05,0.11,0.88,0.68,-0.56,-0.75,
0.8,0.05,0.12,0.88,0.68,-0.56,-0.75,
0.8,0.05,0.12,0.88,0.74,-0.40,-0.84,
0.802,0.05,0.12,0.87,0.74,-0.40,-0.84,
0.805,0.05,0.13,0.87,0.74,-0.40,-0.84,
0.805,0.05,0.13,0.87,0.79,-0.25,-0.97,
0.807,0.05,0.13,0.87,0.79,-0.25,-0.97,
0.81,0.05,0.13,0.87,0.80,-0.14,-1.02,
0.81,0.04,0.13,0.86,0.80,-0.14,-1.02,
0.812,0.04,0.14,0.85,0.80,-0.14,-1.02,
0.815,0.04,0.13,0.85,0.80,-0.14,-1.02,
0.815,0.04,0.13,0.85,0.77,-0.12,-1.08,
0.817,0.04,0.13,0.86,0.77,-0.12,-1.08,
0.82,0.03,0.13,0.85,0.77,-0.12,-1.08,
0.82,0.03,0.13,0.85,0.78,-0.13,-1.18,
0.824,0.03,0.13,0.85,0.78,-0.13,-1.18,
0.826,0.04,0.13,0.85,0.78,-0.13,-1.18,
0.826,0.04,0.13,0.85,0.72,-0.16,-1.15,
0.827,0.04,0.12,0.85,0.72,-0.16,-1.15,
0.83,0.05,0.12,0.85,0.72,-0.16,-1.15,
0.831,0.05,0.12,0.85,0.72,-0.20,-1.19,
0.832,0.05,0.12,0.86,0.72,-0.20,-1.19,
0.835,0.05,0.11,0.86,0.72,-0.20,-1.19,
0.836,0.05,0.11,0.86,0.79,-0.26,-1.15,
0.838,0.05,0.10,0.87,0.79,-0.26,-1.15,
0.841,0.06,0.10,0.87,0.79,-0.26,-1.15,
0.841,0.06,0.10,0.87,0.84,-0.37,-1.04,
0.845,0.06,0.09,0.88,0.84,-0.37,-1.04,
0.845,0.07,0.08,0.89,0.84,-0.37,-1.04,
0.845,0.07,0.08,0.89,0.94,-0.48,-0.94,
0.847,0.07,0.07,0.90,0.94,-0.48,-0.94,
0.85,0.07,0.07,0.91,0.94,-0.48,-0.94,
0.85,0.07,0.07,0.91,1.02,-0.63,-0.81,
0.853,0.08,0.06,0.91,1.02,-0.63,-0.81,
0.854,0.09,0.05,0.93,1.02,-0.63,-0.81,
0.855,0.09,0.05,0.93,1.11,-0.73,-0.63,
0.857,0.09,0.03,0.94,1.11,-0.73,-0.63,
0.86,0.09,0.03,0.94,1.21,-0.89,-0.44,
0.86,0.10,0.03,0.94,1.21,-0.89,-0.44,
0.862,0.10,0.02,0.95,1.21,-0.89,-0.44,
0.865,0.10,0.02,0.95,1.32,-1.08,-0.26,
0.865,0.11,0.02,0.96,1.32,-1.08,-0.26,
0.867,0.12,0.01,0.97,1.32,-1.08,-0.26,
0.872,0.13,0.01,0.98,1.32,-1.08,-0.26,
0.873,0.13,0.01,0.98,1.43,-1.17,-0.09,
0.873,0.14,0.01,0.99,1.43,-1.17,-0.09,
0.875,0.15,0.02,0.99,1.43,-1.17,-0.09,
0.875,0.15,0.02,0.99,1.63,-1.22,0.11,
0.876,0.16,0.02,1.00,1.63,-1.22,0.11,
0.88,0.17,0.03,1.01,1.63,-1.22,0.11,
0.88,0.17,0.03,1.01,1.82,-1.15,0.23,
0.881,0.18,0.03,1.01,1.82,-1.15,0.23,
0.885,0.18,0.03,1.01,2.02,-1.07,0.36,
0.885,0.20,0.03,1.02,2.02,-1.07,0.36,
0.887,0.21,0.04,1.02,2.02,-1.07,0.36,
0.889,0.22,0.04,1.02,2.02,-1.07,0.36,
0.889,0.22,0.04,1.02,2.24,-0.96,0.47,
0.891,0.23,0.05,1.02,2.24,-0.96,0.47,
0.895,0.23,0.05,1.02,2.24,-0.96,0.47,
0.895,0.23,0.05,1.02,2.47,-0.86,0.50,
0.897,0.24,0.05,1.01,2.47,-0.86,0.50,
0.899,0.25,0.05,1.01,2.47,-0.86,0.50,
0.9,0.25,0.05,1.01,2.64,-0.78,0.48,
0.902,0.26,0.05,1.00,2.64,-0.78,0.48,
0.905,0.26,0.05,0.99,2.64,-0.78,0.48,
0.905,0.26,0.05,0.99,2.81,-0.74,0.40,
0.906,0.26,0.06,0.98,2.81,-0.74,0.40,
0.91,0.26,0.06,0.98,2.90,-0.72,0.23,
0.91,0.27,0.06,0.97,2.90,-0.72,0.23,
0.912,0.27,0.06,0.95,2.90,-0.72,0.23,
0.914,0.28,0.07,0.94,2.90,-0.72,0.23,
0.915,0.28,0.07,0.94,2.97,-0.69,0.05,
0.917,0.28,0.07,0.93,2.97,-0.69,0.05,
0.92,0.28,0.07,0.92,2.97,-0.69,0.05,
0.92,0.28,0.07,0.92,3.06,-0.63,-0.24,
0.921,0.28,0.08,0.90,3.06,-0.63,-0.24,
0.924,0.27,0.08,0.89,3.06,-0.63,-0.24,
0.925,0.27,0.08,0.89,3.09,-0.59,-0.43,
0.927,0.26,0.08,0.88,3.09,-0.59,-0.43,
0.929,0.26,0.08,0.86,3.09,-0.59,-0.43,
0.929,0.26,0.08,0.86,3.06,-0.53,-0.71,
0.931,0.25,0.08,0.85,3.06,-0.53,-0.71,
0.934,0.25,0.08,0.85,2.95,-0.50,-0.95,
0.935,0.24,0.07,0.84,2.95,-0.50,-0.95,
0.937,0.23,0.07,0.84,2.95,-0.50,-0.95,
0.939,0.22,0.07,0.83,2.95,-0.50,-0.95,
0.939,0.22,0.07,0.83,2.78,-0.54,-1.19,
0.941,0.20,0.07,0.81,2.78,-0.54,-1.19,
0.944,0.19,0.07,0.80,2.78,-0.54,-1.19,
0.944,0.19,0.07,0.80,2.55,-0.61,-1.29,
0.946,0.18,0.07,0.80,2.55,-0.61,-1.29,
0.949,0.16,0.08,0.80,2.55,-0.61,-1.29,
0.949,0.16,0.08,0.80,2.33,-0.59,-1.53,
0.951,0.15,0.08,0.79,2.33,-0.59,-1.53,
0.953,0.14,0.08,0.79,2.33,-0.59,-1.53,
0.954,0.14,0.08,0.79,2.09,-0.53,-1.64,
0.955,0.12,0.07,0.79,2.09,-0.53,-1.64,
0.958,0.12,0.07,0.79,1.79,-0.51,-1.70,
0.959,0.11,0.07,0.79,1.79,-0.51,-1.70,
0.96,0.10,0.07,0.80,1.79,-0.51,-1.70,
0.963,0.09,0.06,0.80,1.79,-0.51,-1.70,
0.963,0.09,0.06,0.80,1.53,-0.57,-1.71,
0.965,0.09,0.06,0.81,1.53,-0.57,-1.71,
0.973,0.08,0.05,0.81,1.53,-0.57,-1.71,
0.974,0.08,0.05,0.81,1.33,-0.58,-1.62,
0.974,0.08,0.05,0.82,1.33,-0.58,-1.62,
0.974,0.08,0.05,0.83,1.33,-0.58,-1.62,
0.975,0.08,0.05,0.83,1.22,-0.63,-1.52,
0.975,0.08,0.05,0.84,1.22,-0.63,-1.52,
0.978,0.08,0.05,0.85,1.22,-0.63,-1.52,
0.978,0.08,0.05,0.85,1.14,-0.65,-1.34,
0.98,0.08,0.05,0.87,1.14,-0.65,-1.34,
0.983,0.08,0.05,0.87,1.16,-0.65,-1.14,
0.983,0.09,0.05,0.88,1.16,-0.65,-1.14,
0.986,0.09,0.04,0.89,1.16,-0.65,-1.14,
0.988,0.10,0.04,0.90,1.16,-0.65,-1.14,
0.989,0.10,0.04,0.90,1.22,-0.59,-0.90,
0.99,0.10,0.04,0.92,1.22,-0.59,-0.90,
0.993,0.11,0.04,0.93,1.22,-0.59,-0.90,
0.993,0.11,0.04,0.93,1.27,-0.61,-0.66,
0.995,0.11,0.04,0.94,1.27,-0.61,-0.66,
0.998,0.12,0.04,0.95,1.27,-0.61,-0.66,
0.999,0.12,0.04,0.95,1.37,-0.56,-0.40,
1.0,0.12,0.04,0.96,1.37,-0.56,-0.40,
1.003,0.13,0.04,0.97,1.37,-0.56,-0.40,
1.003,0.13,0.04,0.97,1.46,-0.53,-0.18,
1.005,0.13,0.03,0.97,1.46,-0.53,-0.18,
1.008,0.13,0.03,0.97,1.58,-0.52,0.01,
1.008,0.14,0.03,0.97,1.58,-0.52,0.01,
1.01,0.14,0.02,0.96,1.58,-0.52,0.01,
1.013,0.15,0.02,0.95,1.58,-0.52,0.01,
1.013,0.15,0.02,0.95,1.66,-0.57,0.06,
1.015,0.15,0.01,0.95,1.66,-0.57,0.06,
1.018,0.16,0.00,0.94,1.66,-0.57,0.06,
1.018,0.16,0.00,0.94,1.74,-0.64,-0.06,
1.02,0.17,0.00,0.93,1.74,-0.64,-0.06,
1.023,0.17,-0.00,0.92,1.74,-0.64,-0.06,
1.023,0.17,-0.00,0.92,1.85,-0.72,-0.17,
1.025,0.18,-0.00,0.92,1.85,-0.72,-0.17,
1.027,0.19,-0.01,0.90,1.85,-0.72,-0.17,
1.028,0.19,-0.01,0.90,1.97,-0.77,-0.37,
1.03,0.20,-0.01,0.89,1.97,-0.77,-0.37,
1.032,0.20,-0.01,0.89,2.10,-0.84,-0.55,
1.033,0.20,-0.00,0.88,2.10,-0.84,-0.55,
1.035,0.20,-0.00,0.87,2.10,-0.84,-0.55,
1.037,0.21,0.00,0.86,2.10,-0.84,-0.55,
1.038,0.21,0.00,0.86,2.24,-0.81,-0.78,
1.04,0.21,0.01,0.84,2.24,-0.81,-0.78,
1.043,0.21,0.01,0.83,2.24,-0.81,-0.78,
1.043,0.21,0.01,0.83,2.28,-0.73,-1.01,
1.045,0.20,0.01,0.82,2.28,-0.73,-1.01,
1.047,0.19,0.01,0.82,2.28,-0.73,-1.01,
1.047,0.19,0.01,0.82,2.31,-0.62,-1.25,
1.049,0.18,0.01,0.80,2.31,-0.62,-1.25,
1.057,0.17,0.01,0.80,2.31,-0.62,-1.25,
1.057,0.17,0.01,0.80,2.21,-0.63,-1.41,
1.057,0.17,0.01,0.79,2.21,-0.63,-1.41,
1.058,0.17,0.01,0.79,2.03,-0.61,-1.62,
1.058,0.16,0.01,0.78,2.03,-0.61,-1.62,
1.061,0.14,0.01,0.78,2.03,-0.61,-1.62,
1.062,0.13,0.01,0.78,2.03,-0.61,-1.62,
1.062,0.13,0.01,0.78,1.89,-0.62,-1.73,
1.065,0.13,0.01,0.78,1.89,-0.62,-1.73,
1.067,0.11,0.02,0.78,1.89,-0.62,-1.73,
1.067,0.11,0.02,0.78,1.67,-0.63,-1.77,
1.071,0.10,0.02,0.79,1.67,-0.63,-1.77,
1.072,0.10,0.03,0.78,1.67,-0.63,-1.77,
1.072,0.10,0.03,0.78,1.51,-0.55,-1.77,
1.081,0.09,0.03,0.78,1.51,-0.55,-1.77,
1.082,0.09,0.03,0.79,1.51,-0.55,-1.77,
1.083,0.09,0.03,0.79,1.32,-0.46,-1.75,
1.083,0.08,0.04,0.80,1.32,-0.46,-1.75,
1.084,0.08,0.04,0.80,1.21,-0.39,-1.69,
1.084,0.08,0.04,0.80,1.21,-0.39,-1.69,
1.084,0.08,0.04,0.81,1.21,-0.39,-1.69,
1.09,0.08,0.05,0.83,1.21,-0.39,-1.69,
1.091,0.08,0.05,0.83,1.17,-0.26,-1.56,
1.091,0.08,0.05,0.83,1.17,-0.26,-1.56,
1.092,0.08,0.04,0.84,1.17,-0.26,-1.56,
1.092,0.08,0.04,0.84,1.17,-0.17,-1.38,
1.096,0.08,0.05,0.85,1.17,-0.17,-1.38,
1.097,0.08,0.05,0.85,1.16,-0.14,-1.18,
1.097,0.09,0.05,0.87,1.16,-0.14,-1.18,
1.099,0.09,0.04,0.88,1.16,-0.14,-1.18,
1.102,0.09,0.04,0.89,1.16,-0.14,-1.18,
1.103,0.09,0.04,0.89,1.22,-0.06,-0.97,
1.108,0.09,0.03,0.90,1.22,-0.06,-0.97,
1.108,0.09,0.03,0.90,1.27,-0.10,-0.73,
1.108,0.10,0.02,0.92,1.27,-0.10,-0.73,
1.109,0.10,0.01,0.93,1.27,-0.10,-0.73,
1.112,0.11,0.01,0.93,1.27,-0.10,-0.73,
1.112,0.11,0.01,0.93,1.27,-0.17,-0.49,
1.115,0.11,0.00,0.95,1.27,-0.17,-0.49,
1.117,0.12,-0.00,0.96,1.27,-0.17,-0.49,
1.117,0.12,-0.00,0.96,1.37,-0.27,-0.27,
1.12,0.12,-0.01,0.96,1.37,-0.27,-0.27,
1.122,0.13,-0.02,0.97,1.37,-0.27,-0.27,
1.123,0.13,-0.02,0.97,1.46,-0.32,-0.09,
1.125,0.13,-0.02,0.98,1.46,-0.32,-0.09,
1.127,0.13,-0.02,0.99,1.46,-0.32,-0.09,
1.128,0.13,-0.02,0.99,1.54,-0.40,0.03,
1.13,0.14,-0.02,0.99,1.54,-0.40,0.03,
1.133,0.14,-0.02,0.99,1.63,-0.39,0.21,
1.133,0.14,-0.03,1.00,1.63,-0.39,0.21,
1.134,0.15,-0.03,1.00,1.63,-0.39,0.21,
1.136,0.15,-0.03,1.00,1.63,-0.39,0.21,
1.137,0.15,-0.03,1.00,1.69,-0.43,0.31,
1.139,0.15,-0.03,1.01,1.69,-0.43,0.31,
1.142,0.15,-0.03,1.01,1.69,-0.43,0.31,
1.142,0.15,-0.03,1.01,1.73,-0.42,0.40,
1.145,0.14,-0.03,1.01,1.73,-0.42,0.40,
1.147,0.14,-0.04,1.01,1.73,-0.42,0.40,
1.147,0.14,-0.04,1.01,1.75,-0.41,0.48,
1.149,0.14,-0.03,1.02,1.75,-0.41,0.48,
1.151,0.13,-0.04,1.02,1.75,-0.41,0.48,
1.154,0.13,-0.04,1.02,1.67,-0.38,0.48,
1.154,0.11,-0.03,1.02,1.67,-0.38,0.48,
1.159,0.11,-0.03,1.02,1.62,-0.34,0.56,
1.16,0.11,-0.04,1.03,1.62,-0.34,0.56,
1.16,0.10,-0.04,1.03,1.62,-0.34,0.56,
1.161,0.10,-0.05,1.03,1.62,-0.34,0.56,
1.161,0.10,-0.05,1.03,1.41,-0.32,0.60,
1.163,0.09,-0.05,1.03,1.41,-0.32,0.60,
1.166,0.08,-0.05,1.04,1.41,-0.32,0.60,
1.166,0.08,-0.05,1.04,1.30,-0.37,0.67,
1.169,0.08,-0.05,1.04,1.30,-0.37,0.67,
1.171,0.07,-0.06,1.04,1.30,-0.37,0.67,
1.172,0.07,-0.06,1.04,1.22,-0.39,0.70,
1.174,0.06,-0.06,1.04,1.22,-0.39,0.70,
1.176,0.06,-0.07,1.04,1.22,-0.39,0.70,
1.177,0.06,-0.07,1.04,1.07,-0.42,0.74,
1.179,0.06,-0.07,1.04,1.07,-0.42,0.74,
1.181,0.06,-0.07,1.04,0.98,-0.47,0.77,
1.181,0.05,-0.07,1.05,0.98,-0.47,0.77,
1.183,0.05,-0.08,1.05,0.98,-0.47,0.77,
1.187,0.05,-0.08,1.05,0.98,-0.47,0.77,
1.187,0.05,-0.08,1.05,0.95,-0.53,0.83,
1.189,0.05,-0.09,1.06,0.95,-0.53,0.83,
1.191,0.05,-0.09,1.07,0.95,-0.53,0.83,
1.191,0.05,-0.09,1.07,0.92,-0.59,0.88,
1.194,0.05,-0.09,1.08,0.92,-0.59,0.88,
1.196,0.06,-0.10,1.08,0.92,-0.59,0.88,
1.196,0.06,-0.10,1.08,0.93,-0.64,0.98,
1.199,0.06,-0.09,1.09,0.93,-0.64,0.98,
1.201,0.07,-0.09,1.09,0.93,-0.64,0.98,
1.201,0.07,-0.09,1.09,1.00,-0.66,1.15,
1.203,0.08,-0.09,1.09,1.00,-0.66,1.15,
1.206,0.08,-0.09,1.09,1.08,-0.63,1.26,
1.206,0.08,-0.09,1.09,1.08,-0.63,1.26,
1.208,0.09,-0.08,1.10,1.08,-0.63,1.26,
1.211,0.11,-0.08,1.10,1.08,-0.63,1.26,
1.212,0.11,-0.08,1.10,1.28,-0.57,1.26,
1.213,0.11,-0.08,1.11,1.28,-0.57,1.26,
1.216,0.11,-0.08,1.12,1.28,-0.57,1.26,
1.216,0.11,-0.08,1.12,1.47,-0.46,1.37,
1.219,0.12,-0.08,1.12,1.47,-0.46,1.37,
1.221,0.13,-0.08,1.12,1.47,-0.46,1.37,
1.222,0.13,-0.08,1.12,1.60,-0.44,1.44,
1.223,0.13,-0.08,1.12,1.60,-0.44,1.44,
1.225,0.14,-0.08,1.12,1.60,-0.44,1.44,
1.226,0.14,-0.08,1.12,1.74,-0.38,1.52,
1.228,0.14,-0.09,1.12,1.74,-0.38,1.52,
1.231,0.14,-0.09,1.12,1.85,-0.37,1.54,
1.231,0.14,-0.09,1.12,1.85,-0.37,1.54,
1.233,0.14,-0.10,1.11,1.85,-0.37,1.54,
1.236,0.14,-0.10,1.11,1.85,-0.37,1.54,
1.236,0.14,-0.10,1.11,1.94,-0.41,1.51,
1.238,0.15,-0.11,1.10,1.94,-0.41,1.51,
1.241,0.14,-0.10,1.10,1.94,-0.41,1.51,
1.242,0.14,-0.10,1.10,1.97,-0.48,1.44,
1.244,0.14,-0.11,1.09,1.97,-0.48,1.44,
1.246,0.14,-0.11,1.09,1.98,-0.52,1.33,
1.246,0.14,-0.11,1.09,1.98,-0.52,1.33,
1.248,0.15,-0.11,1.09,1.98,-0.52,1.33,
1.251,0.14,-0.11,1.08,1.98,-0.52,1.33,
1.251,0.14,-0.11,1.08,1.97,-0.54,1.24,
1.253,0.14,-0.11,1.08,1.97,-0.54,1.24,
1.256,0.14,-0.11,1.08,1.99,-0.54,1.17,
1.256,0.14,-0.11,1.08,1.99,-0.54,1.17,
1.258,0.13,-0.12,1.08,1.99,-0.54,1.17,
1.261,0.13,-0.12,1.08,1.99,-0.54,1.17,
1.261,0.13,-0.12,1.08,1.95,-0.54,1.11,
1.263,0.13,-0.12,1.08,1.95,-0.54,1.11,
1.266,0.12,-0.12,1.08,1.95,-0.54,1.11,
1.266,0.12,-0.12,1.08,1.89,-0.60,1.09,
1.268,0.12,-0.13,1.08,1.89,-0.60,1.09,
1.275,0.11,-0.13,1.09,1.89,-0.60,1.09,
1.275,0.11,-0.13,1.09,1.80,-0.63,1.11,
1.276,0.11,-0.12,1.09,1.80,-0.63,1.11,
1.276,0.11,-0.12,1.09,1.80,-0.63,1.11,
1.276,0.11,-0.12,1.09,1.72,-0.69,1.18,
1.278,0.11,-0.12,1.10,1.72,-0.69,1.18,
1.28,0.11,-0.12,1.10,1.65,-0.61,1.25,
1.28,0.10,-0.12,1.11,1.65,-0.61,1.25,
1.282,0.11,-0.11,1.12,1.65,-0.61,1.25,
1.286,0.11,-0.11,1.12,1.62,-0.56,1.39,
1.286,0.11,-0.11,1.13,1.62,-0.56,1.39,
1.288,0.11,-0.11,1.14,1.62,-0.56,1.39,
1.29,0.11,-0.11,1.15,1.62,-0.56,1.39,
1.29,0.11,-0.11,1.15,1.66,-0.46,1.54,
1.292,0.11,-0.10,1.16,1.66,-0.46,1.54,
1.296,0.12,-0.10,1.18,1.66,-0.46,1.54,
1.296,0.12,-0.10,1.18,1.72,-0.41,1.72,
1.298,0.12,-0.10,1.19,1.72,-0.41,1.72,
1.3,0.12,-0.10,1.19,1.73,-0.31,1.99,
1.301,0.12,-0.10,1.20,1.73,-0.31,1.99,
1.303,0.12,-0.10,1.21,1.73,-0.31,1.99,
1.306,0.12,-0.10,1.21,1.75,-0.25,2.25,
1.306,0.12,-0.10,1.23,1.75,-0.25,2.25,
1.307,0.12,-0.12,1.24,1.75,-0.25,2.25,
1.31,0.12,-0.12,1.24,1.75,-0.25,2.25,
1.31,0.12,-0.12,1.24,1.80,-0.24,2.46,
1.313,0.12,-0.12,1.25,1.80,-0.24,2.46,
1.315,0.12,-0.13,1.26,1.80,-0.24,2.46,
1.316,0.12,-0.13,1.26,1.77,-0.34,2.66,
1.318,0.12,-0.14,1.27,1.77,-0.34,2.66,
1.32,0.12,-0.14,1.27,1.77,-0.34,2.66,
1.32,0.12,-0.14,1.27,1.75,-0.40,2.82,
1.322,0.12,-0.15,1.28,1.75,-0.40,2.82,
1.325,0.13,-0.15,1.28,1.75,-0.40,2.82,
1.325,0.13,-0.15,1.28,1.77,-0.51,2.95,
1.327,0.13,-0.15,1.28,1.77,-0.51,2.95,
1.329,0.13,-0.15,1.28,1.77,-0.54,3.06,
1.33,0.13,-0.15,1.28,1.77,-0.54,3.06,
1.332,0.13,-0.15,1.28,1.77,-0.54,3.06,
1.334,0.13,-0.15,1.28,1.77,-0.54,3.06,
1.335,0.13,-0.15,1.28,1.83,-0.54,3.06,
1.338,0.14,-0.15,1.28,1.83,-0.54,3.06,
1.34,0.14,-0.15,1.29,1.83,-0.54,3.06,
1.341,0.14,-0.15,1.29,1.84,-0.50,3.06,
1.342,0.14,-0.15,1.28,1.84,-0.50,3.06,
1.344,0.14,-0.15,1.28,1.88,-0.50,3.06,
1.344,0.14,-0.15,1.28,1.88,-0.50,3.06,
1.346,0.15,-0.15,1.27,1.88,-0.50,3.06,
1.349,0.15,-0.15,1.26,1.88,-0.50,3.06,
1.349,0.15,-0.15,1.26,1.89,-0.47,3.00,
1.351,0.14,-0.15,1.25,1.89,-0.47,3.00,
1.355,0.14,-0.15,1.25,1.93,-0.47,2.86,
1.355,0.14,-0.15,1.25,1.93,-0.47,2.86,
1.356,0.14,-0.15,1.24,1.93,-0.47,2.86,
1.359,0.14,-0.15,1.23,1.93,-0.47,2.86,
1.359,0.14,-0.15,1.23,1.88,-0.48,2.67,
1.361,0.13,-0.16,1.22,1.88,-0.48,2.67,
1.364,0.13,-0.15,1.21,1.88,-0.48,2.67,
1.365,0.13,-0.15,1.21,1.82,-0.48,2.53,
1.367,0.12,-0.16,1.20,1.82,-0.48,2.53,
1.369,0.12,-0.16,1.19,1.82,-0.48,2.53,
1.369,0.12,-0.16,1.19,1.71,-0.50,2.36,
1.375,0.11,-0.16,1.18,1.71,-0.50,2.36,
1.375,0.11,-0.16,1.18,1.71,-0.50,2.36,
1.376,0.11,-0.16,1.18,1.59,-0.55,2.17,
1.376,0.11,-0.16,1.18,1.59,-0.55,2.17,
1.379,0.11,-0.16,1.18,1.51,-0.55,2.02,
1.379,0.10,-0.16,1.17,1.51,-0.55,2.02,
1.381,0.09,-0.15,1.17,1.51,-0.55,2.02,
1.384,0.09,-0.15,1.17,1.51,-0.55,2.02,
1.384,0.09,-0.15,1.17,1.42,-0.53,1.95,
1.386,0.09,-0.15,1.17,1.42,-0.53,1.95,
1.389,0.08,-0.14,1.18,1.42,-0.53,1.95,
1.389,0.08,-0.14,1.18,1.28,-0.47,1.92,
1.391,0.08,-0.14,1.18,1.28,-0.47,1.92,
1.394,0.08,-0.13,1.18,1.28,-0.47,1.92,
1.394,0.08,-0.13,1.18,1.22,-0.40,1.91,
1.396,0.08,-0.13,1.18,1.22,-0.40,1.91,
1.399,0.08,-0.13,1.19,1.22,-0.40,1.91,
1.399,0.08,-0.13,1.19,1.19,-0.32,1.93,
1.401,0.09,-0.13,1.19,1.19,-0.32,1.93,
1.405,0.09,-0.13,1.19,1.19,-0.27,2.02,
1.405,0.09,-0.12,1.19,1.19,-0.27,2.02,
1.406,0.09,-0.12,1.20,1.19,-0.27,2.02,
1.409,0.09,-0.12,1.20,1.19,-0.27,2.02,
1.409,0.09,-0.12,1.20,1.22,-0.21,2.08,
1.411,0.09,-0.11,1.21,1.22,-0.21,2.08,
1.414,0.08,-0.12,1.21,1.22,-0.21,2.08,
1.414,0.08,-0.12,1.21,1.22,-0.17,2.17,
1.416,0.08,-0.12,1.21,1.22,-0.17,2.17,
1.419,0.08,-0.11,1.21,1.22,-0.17,2.17,
1.419,0.08,-0.11,1.21,1.16,-0.10,2.21,
1.422,0.07,-0.12,1.20,1.16,-0.10,2.21,
1.424,0.06,-0.12,1.20,1.16,-0.10,2.21,
1.424,0.06,-0.12,1.20,1.11,-0.10,2.21,
1.426,0.05,-0.12,1.19,1.11,-0.10,2.21,
1.429,0.05,-0.12,1.19,0.95,-0.12,2.15,
1.429,0.05,-0.12,1.19,0.95,-0.12,2.15,
1.431,0.04,-0.12,1.18,0.95,-0.12,2.15,
1.433,0.03,-0.12,1.18,0.95,-0.12,2.15,
1.434,0.03,-0.12,1.18,0.78,-0.17,2.04,
1.436,0.03,-0.12,1.17,0.78,-0.17,2.04,
1.439,0.03,-0.11,1.16,0.78,-0.17,2.04,
1.439,0.03,-0.11,1.16,0.63,-0.14,1.91,
1.441,0.02,-0.11,1.16,0.63,-0.14,1.91,
1.443,0.02,-0.11,1.16,0.50,-0.09,1.78,
1.444,0.01,-0.10,1.15,0.50,-0.09,1.78,
1.446,0.00,-0.10,1.15,0.50,-0.09,1.78,
1.448,-0.00,-0.10,1.14,0.50,-0.09,1.78,
1.448,-0.00,-0.10,1.14,0.36,-0.01,1.67,
1.45,-0.01,-0.09,1.14,0.36,-0.01,1.67,
1.453,-0.01,-0.09,1.14,0.17,0.06,1.54,
1.453,-0.01,-0.09,1.14,0.17,0.06,1.54,
1.456,-0.02,-0.09,1.13,0.17,0.06,1.54,
1.458,-0.02,-0.09,1.13,0.17,0.06,1.54,
1.459,-0.02,-0.09,1.13,0.03,0.10,1.46,
1.46,-0.02,-0.09,1.13,0.03,0.10,1.46,
1.463,-0.03,-0.09,1.14,0.03,0.10,1.46,
1.464,-0.03,-0.09,1.14,-0.08,0.11,1.42,
1.465,-0.03,-0.09,1.13,-0.08,0.11,1.42,
1.468,-0.03,-0.09,1.13,-0.08,0.11,1.42,
1.468,-0.03,-0.09,1.13,-0.16,0.10,1.43,
1.47,-0.03,-0.09,1.13,-0.16,0.10,1.43,
1.477,-0.02,-0.10,1.12,-0.16,0.10,1.43,
1.477,-0.02,-0.10,1.12,-0.28,0.08,1.42,
1.478,-0.02,-0.10,1.12,-0.28,0.08,1.42,
1.478,-0.02,-0.10,1.12,-0.30,0.04,1.32,
1.48,-0.02,-0.10,1.11,-0.30,0.04,1.32,
1.48,-0.02,-0.11,1.10,-0.30,0.04,1.32,
1.484,-0.02,-0.12,1.10,-0.30,0.04,1.32,
1.484,-0.02,-0.12,1.10,-0.31,-0.03,1.20,
1.485,-0.01,-0.12,1.09,-0.31,-0.03,1.20,
1.49,-0.01,-0.12,1.09,-0.31,-0.03,1.20,
1.492,-0.01,-0.12,1.09,-0.29,-0.16,1.12,
1.492,0.00,-0.13,1.08,-0.29,-0.16,1.12,
1.494,0.01,-0.13,1.08,-0.29,-0.16,1.12,
1.494,0.01,-0.13,1.08,-0.27,-0.23,1.01,
1.497,0.02,-0.13,1.08,-0.27,-0.23,1.01,
1.498,0.03,-0.13,1.07,-0.27,-0.23,1.01,
1.498,0.03,-0.13,1.07,-0.13,-0.32,0.91,
1.5,0.04,-0.12,1.08,-0.13,-0.32,0.91,
1.504,0.05,-0.12,1.08,-0.13,-0.32,0.91,
1.504,0.05,-0.12,1.08,0.02,-0.33,0.85,
1.505,0.06,-0.12,1.07,0.02,-0.33,0.85,
1.508,0.07,-0.12,1.07,0.02,-0.33,0.85,
1.508,0.07,-0.12,1.07,0.19,-0.28,0.85,
1.511,0.08,-0.11,1.07,0.19,-0.28,0.85,
1.514,0.09,-0.11,1.08,0.19,-0.28,0.85,
1.514,0.09,-0.11,1.08,0.37,-0.27,0.79,
1.516,0.09,-0.11,1.08,0.37,-0.27,0.79,
1.518,0.09,-0.11,1.08,0.37,-0.27,0.79,
1.518,0.09,-0.11,1.08,0.51,-0.25,0.83,
1.521,0.08,-0.12,1.09,0.51,-0.25,0.83,
1.523,0.08,-0.12,1.09,0.51,-0.25,0.83,
1.523,0.08,-0.12,1.09,0.54,-0.27,0.87,
1.526,0.08,-0.12,1.09,0.54,-0.27,0.87,
1.528,0.08,-0.12,1.09,0.46,-0.33,0.92,
1.528,0.08,-0.13,1.08,0.46,-0.33,0.92,
1.53,0.07,-0.13,1.09,0.46,-0.33,0.92,
1.534,0.07,-0.13,1.08,0.46,-0.33,0.92,
1.534,0.07,-0.13,1.08,0.43,-0.44,0.91,
1.535,0.07,-0.13,1.07,0.43,-0.44,0.91,
1.538,0.07,-0.13,1.07,0.43,-0.44,0.91,
1.539,0.07,-0.13,1.07,0.38,-0.51,0.88,
1.54,0.07,-0.13,1.07,0.38,-0.51,0.88,
1.543,0.07,-0.13,1.06,0.38,-0.51,0.88,
1.543,0.07,-0.13,1.06,0.34,-0.55,0.77,
1.545,0.07,-0.13,1.06,0.34,-0.55,0.77,
1.548,0.07,-0.13,1.05,0.34,-0.55,0.77,
1.549,0.07,-0.13,1.05,0.31,-0.60,0.70,
1.55,0.07,-0.13,1.05,0.31,-0.60,0.70,
1.553,0.07,-0.13,1.04,0.31,-0.60,0.70,
1.554,0.07,-0.13,1.04,0.32,-0.63,0.62,
1.555,0.07,-0.12,1.03,0.32,-0.63,0.62,
1.558,0.08,-0.12,1.03,0.32,-0.63,0.62,
1.558,0.08,-0.12,1.03,0.29,-0.61,0.48,
1.56,0.08,-0.12,1.02,0.29,-0.61,0.48,
1.563,0.08,-0.11,1.01,0.29,-0.61,0.48,
1.563,0.08,-0.11,1.01,0.32,-0.58,0.37,
1.565,0.08,-0.11,1.00,0.32,-0.58,0.37,
1.568,0.08,-0.10,0.99,0.32,-0.58,0.37,
1.568,0.08,-0.10,0.99,0.29,-0.53,0.21,
1.57,0.08,-0.10,0.98,0.29,-0.53,0.21,
1.576,0.08,-0.10,0.97,0.29,-0.53,0.21,
1.576,0.08,-0.10,0.97,0.29,-0.50,-0.00,
1.577,0.08,-0.09,0.95,0.29,-0.50,-0.00,
1.577,0.08,-0.09,0.95,0.25,-0.46,-0.23,
1.577,0.08,-0.09,0.94,0.25,-0.46,-0.23,
1.579,0.08,-0.09,0.94,0.25,-0.46,-0.23,
1.582,0.08,-0.09,0.93,0.25,-0.46,-0.23,
1.582,0.08,-0.09,0.93,0.22,-0.42,-0.45,
1.585,0.08,-0.08,0.93,0.22,-0.42,-0.45,
1.588,0.08,-0.07,0.93,0.22,-0.42,-0.45,
1.588,0.08,-0.07,0.93,0.20,-0.46,-0.57,
1.59,0.08,-0.07,0.91,0.20,-0.46,-0.57,
1.592,0.08,-0.07,0.91,0.20,-0.46,-0.57,
1.592,0.08,-0.07,0.91,0.16,-0.40,-0.64,
1.595,0.07,-0.07,0.90,0.16,-0.40,-0.64,
1.598,0.07,-0.07,0.90,0.16,-0.40,-0.64,
1.598,0.07,-0.07,0.90,0.12,-0.38,-0.81,
1.6,0.06,-0.07,0.90,0.12,-0.38,-0.81,
1.602,0.06,-0.07,0.90,0.03,-0.40,-0.91,
1.603,0.05,-0.06,0.89,0.03,-0.40,-0.91,
1.605,0.05,-0.07,0.89,0.03,-0.40,-0.91,
1.608,0.05,-0.06,0.88,0.03,-0.40,-0.91,
1.608,0.05,-0.06,0.88,-0.14,-0.40,-0.95,
1.609,0.04,-0.06,0.88,-0.14,-0.40,-0.95,
1.612,0.05,-0.06,0.88,-0.14,-0.40,-0.95,
1.612,0.05,-0.06,0.88,-0.20,-0.43,-1.06,
1.614,0.05,-0.06,0.88,-0.20,-0.43,-1.06,
1.617,0.04,-0.06,0.87,-0.20,-0.43,-1.06,
1.617,0.04,-0.06,0.87,-0.26,-0.44,-1.07,
1.619,0.04,-0.05,0.87,-0.26,-0.44,-1.07,
1.623,0.04,-0.05,0.86,-0.26,-0.44,-1.07,
1.623,0.04,-0.05,0.86,-0.29,-0.44,-1.18,
1.624,0.04,-0.05,0.87,-0.29,-0.44,-1.18,
1.627,0.04,-0.05,0.87,-0.35,-0.44,-1.25,
1.627,0.04,-0.05,0.86,-0.35,-0.44,-1.25,
1.629,0.04,-0.04,0.87,-0.35,-0.44,-1.25,
1.631,0.04,-0.04,0.87,-0.32,-0.43,-1.24,
1.632,0.04,-0.04,0.88,-0.32,-0.43,-1.24,
1.634,0.04,-0.04,0.89,-0.32,-0.43,-1.24,
1.636,0.04,-0.04,0.89,-0.32,-0.43,-1.24,
1.637,0.04,-0.04,0.89,-0.35,-0.40,-1.10,
1.64,0.04,-0.04,0.90,-0.35,-0.40,-1.10,
1.641,0.03,-0.04,0.90,-0.35,-0.40,-1.10,
1.641,0.03,-0.04,0.90,-0.34,-0.38,-1.01,
1.644,0.03,-0.04,0.91,-0.34,-0.38,-1.01,
1.646,0.02,-0.04,0.91,-0.34,-0.38,-1.01,
1.648,0.02,-0.04,0.91,-0.43,-0.39,-0.87,
1.649,0.01,-0.04,0.92,-0.43,-0.39,-0.87,
1.651,0.01,-0.04,0.92,-0.54,-0.44,-0.78,
1.651,0.00,-0.05,0.92,-0.54,-0.44,-0.78,
1.653,-0.00,-0.05,0.92,-0.54,-0.44,-0.78,
1.656,-0.00,-0.05,0.92,-0.54,-0.44,-0.78,
1.657,-0.00,-0.05,0.92,-0.68,-0.51,-0.69,
1.658,-0.01,-0.05,0.92,-0.68,-0.51,-0.69,
1.661,-0.01,-0.05,0.91,-0.68,-0.51,-0.69,
1.661,-0.01,-0.05,0.91,-0.80,-0.55,-0.69,
1.664,-0.01,-0.05,0.91,-0.80,-0.55,-0.69,
1.666,-0.01,-0.04,0.91,-0.80,-0.55,-0.69,
1.666,-0.01,-0.04,0.91,-0.86,-0.60,-0.73,
1.668,-0.01,-0.03,0.90,-0.86,-0.60,-0.73,
1.671,-0.01,-0.03,0.90,-0.86,-0.60,-0.73,
1.672,-0.01,-0.03,0.90,-0.88,-0.57,-0.80,
1.679,-0.01,-0.03,0.89,-0.88,-0.57,-0.80,
1.679,-0.01,-0.03,0.89,-0.90,-0.47,-0.87,
1.679,-0.01,-0.02,0.89,-0.90,-0.47,-0.87,
1.68,-0.01,-0.02,0.88,-0.90,-0.47,-0.87,
1.682,-0.02,-0.02,0.87,-0.90,-0.47,-0.87,
1.682,-0.02,-0.02,0.87,-0.91,-0.44,-1.00,
1.683,-0.02,-0.01,0.86,-0.91,-0.44,-1.00,
1.686,-0.03,-0.01,0.86,-0.91,-0.44,-1.00,
1.686,-0.03,-0.01,0.86,-0.97,-0.39,-1.13,
1.69,-0.04,-0.01,0.85,-0.97,-0.39,-1.13,
1.691,-0.05,-0.01,0.85,-0.97,-0.39,-1.13,
1.691,-0.05,-0.01,0.85,-1.12,-0.32,-1.25,
1.693,-0.06,-0.01,0.85,-1.12,-0.32,-1.25,
1.696,-0.07,-0.01,0.85,-1.12,-0.32,-1.25,
1.696,-0.07,-0.01,0.85,-1.32,-0.34,-1.35,
1.698,-0.07,-0.01,0.85,-1.32,-0.34,-1.35,
1.701,-0.07,-0.01,0.85,-1.45,-0.43,-1.35,
1.701,-0.08,-0.02,0.85,-1.45,-0.43,-1.35,
1.703,-0.08,-0.02,0.84,-1.45,-0.43,-1.35,
1.707,-0.08,-0.01,0.85,-1.45,-0.43,-1.35,
1.707,-0.08,-0.01,0.85,-1.58,-0.48,-1.37,
1.708,-0.08,-0.01,0.85,-1.58,-0.48,-1.37,
1.711,-0.09,-0.01,0.86,-1.58,-0.48,-1.37,
1.711,-0.09,-0.01,0.86,-1.64,-0.49,-1.36,
1.713,-0.09,-0.01,0.86,-1.64,-0.49,-1.36,
1.716,-0.09,-0.02,0.87,-1.64,-0.49,-1.36,
1.716,-0.09,-0.02,0.87,-1.68,-0.50,-1.28,
1.718,-0.09,-0.02,0.88,-1.68,-0.50,-1.28,
1.721,-0.10,-0.02,0.89,-1.68,-0.50,-1.28,
1.721,-0.10,-0.02,0.89,-1.72,-0.54,-1.18,
1.723,-0.10,-0.02,0.90,-1.72,-0.54,-1.18,
1.725,-0.10,-0.02,0.90,-1.77,-0.60,-1.01,
1.726,-0.10,-0.03,0.91,-1.77,-0.60,-1.01,
1.728,-0.10,-0.03,0.91,-1.77,-0.60,-1.01,
1.731,-0.10,-0.03,0.92,-1.77,-0.60,-1.01,
1.731,-0.10,-0.03,0.92,-1.79,-0.66,-0.82,
1.733,-0.10,-0.03,0.94,-1.79,-0.66,-0.82,
1.735,-0.09,-0.04,0.94,-1.79,-0.66,-0.82,
1.736,-0.09,-0.04,0.94,-1.76,-0.74,-0.67,
1.738,-0.09,-0.04,0.95,-1.76,-0.74,-0.67,
1.741,-0.09,-0.04,0.95,-1.76,-0.74,-0.67,
1.741,-0.09,-0.04,0.95,-1.73,-0.79,-0.47,
1.743,-0.08,-0.05,0.95,-1.73,-0.79,-0.47,
1.745,-0.08,-0.05,0.95,-1.65,-0.84,-0.38,
1.746,-0.08,-0.05,0.96,-1.65,-0.84,-0.38,
1.748,-0.07,-0.05,0.96,-1.65,-0.84,-0.38,
1.75,-0.07,-0.05,0.96,-1.53,-0.91,-0.29,
1.751,-0.06,-0.05,0.97,-1.53,-0.91,-0.29,
1.752,-0.06,-0.06,0.97,-1.53,-0.91,-0.29,
1.755,-0.06,-0.06,0.97,-1.53,-0.91,-0.29,
1.755,-0.06,-0.06,0.97,-1.41,-0.93,-0.18,
1.762,-0.05,-0.07,0.97,-1.41,-0.93,-0.18,
1.763,-0.05,-0.07,0.97,-1.41,-0.93,-0.18,
1.763,-0.05,-0.07,0.97,-1.34,-1.00,-0.14,
1.763,-0.04,-0.07,0.96,-1.34,-1.00,-0.14,
1.766,-0.03,-0.07,0.96,-1.34,-1.00,-0.14,
1.766,-0.03,-0.07,0.96,-1.24,-1.08,-0.13,
1.767,-0.03,-0.07,0.96,-1.24,-1.08,-0.13,
1.772,-0.02,-0.07,0.95,-1.24,-1.08,-0.13,
1.772,-0.02,-0.07,0.95,-1.15,-1.05,-0.22,
1.772,-0.01,-0.06,0.94,-1.15,-1.05,-0.22,
1.775,-0.01,-0.06,0.94,-1.04,-1.07,-0.30,
1.775,-0.01,-0.07,0.93,-1.04,-1.07,-0.30,
1.777,-0.01,-0.06,0.93,-1.04,-1.07,-0.30,
1.78,-0.01,-0.06,0.93,-0.90,-0.98,-0.44,
1.78,-0.01,-0.06,0.92,-0.90,-0.98,-0.44,
1.782,-0.01,-0.06,0.91,-0.90,-0.98,-0.44,
1.786,-0.01,-0.05,0.90,-0.90,-0.98,-0.44,
1.786,-0.01,-0.05,0.90,-0.90,-0.95,-0.59,
1.787,-0.02,-0.05,0.90,-0.90,-0.95,-0.59,
1.791,-0.03,-0.05,0.89,-0.90,-0.95,-0.59,
1.792,-0.03,-0.05,0.89,-0.94,-0.90,-0.77,
1.792,-0.04,-0.05,0.89,-0.94,-0.90,-0.77,
1.795,-0.05,-0.05,0.89,-0.94,-0.90,-0.77,
1.795,-0.05,-0.05,0.89,-1.09,-0.88,-0.90,
1.797,-0.07,-0.05,0.89,-1.09,-0.88,-0.90,
1.8,-0.07,-0.05,0.89,-1.31,-0.88,-0.95,
1.8,-0.09,-0.05,0.88,-1.31,-0.88,-0.95,
1.802,-0.10,-0.05,0.88,-1.31,-0.88,-0.95,
1.807,-0.12,-0.04,0.88,-1.31,-0.88,-0.95,
1.808,-0.12,-0.04,0.88,-1.63,-0.88,-0.96,
1.809,-0.13,-0.04,0.88,-1.63,-0.88,-0.96,
1.81,-0.14,-0.04,0.90,-1.63,-0.88,-0.96,
1.81,-0.14,-0.04,0.90,-1.94,-0.82,-0.99,
1.814,-0.14,-0.03,0.90,-1.94,-0.82,-0.99,
1.815,-0.16,-0.02,0.91,-1.94,-0.82,-0.99,
1.815,-0.16,-0.02,0.91,-2.15,-0.78,-0.90,
1.817,-0.17,-0.01,0.91,-2.15,-0.78,-0.90,
1.82,-0.18,-0.01,0.92,-2.15,-0.78,-0.90,
1.821,-0.18,-0.01,0.92,-2.34,-0.66,-0.76,
1.822,-0.19,0.00,0.94,-2.34,-0.66,-0.76,
1.826,-0.19,0.00,0.94,-2.55,-0.50,-0.62,
1.827,-0.20,0.01,0.94,-2.55,-0.50,-0.62,
1.827,-0.21,0.02,0.95,-2.55,-0.50,-0.62,
1.83,-0.22,0.02,0.97,-2.55,-0.50,-0.62,
1.831,-0.22,0.02,0.97,-2.72,-0.36,-0.40,
1.833,-0.22,0.02,0.96,-2.72,-0.36,-0.40,
1.837,-0.23,0.02,0.96,-2.72,-0.36,-0.40,
1.837,-0.23,0.02,0.96,-2.90,-0.26,-0.24,
1.837,-0.23,0.03,0.96,-2.90,-0.26,-0.24,
1.84,-0.24,0.03,0.96,-2.90,-0.26,-0.24,
1.84,-0.24,0.03,0.96,-3.00,-0.23,-0.23,
1.843,-0.24,0.03,0.96,-3.00,-0.23,-0.23,
1.844,-0.24,0.03,0.95,-3.00,-0.23,-0.23,
1.845,-0.24,0.03,0.95,-3.08,-0.16,-0.20,
1.847,-0.24,0.03,0.94,-3.08,-0.16,-0.20,
1.85,-0.24,0.03,0.94,-3.09,-0.15,-0.29,
1.85,-0.24,0.03,0.94,-3.09,-0.15,-0.29,
1.852,-0.23,0.03,0.94,-3.09,-0.15,-0.29,
1.855,-0.23,0.03,0.93,-3.09,-0.15,-0.29,
1.855,-0.23,0.03,0.93,-3.08,-0.20,-0.37,
1.859,-0.23,0.04,0.92,-3.08,-0.20,-0.37,
1.86,-0.22,0.03,0.92,-3.08,-0.20,-0.37,
1.86,-0.22,0.03,0.92,-2.98,-0.20,-0.48,
1.862,-0.21,0.04,0.91,-2.98,-0.20,-0.48,
1.865,-0.21,0.04,0.91,-2.98,-0.20,-0.48,
1.865,-0.21,0.04,0.91,-2.89,-0.22,-0.57,
1.866,-0.20,0.03,0.90,-2.89,-0.22,-0.57,
1.87,-0.19,0.03,0.90,-2.89,-0.22,-0.57,
1.87,-0.19,0.03,0.90,-2.75,-0.19,-0.70,
1.872,-0.18,0.03,0.89,-2.75,-0.19,-0.70,
1.875,-0.18,0.03,0.89,-2.58,-0.25,-0.79,
1.875,-0.18,0.03,0.90,-2.58,-0.25,-0.79,
1.877,-0.17,0.03,0.88,-2.58,-0.25,-0.79,
1.879,-0.17,0.03,0.88,-2.58,-0.25,-0.79,
1.88,-0.17,0.03,0.88,-2.41,-0.28,-0.84,
1.881,-0.16,0.02,0.87,-2.41,-0.28,-0.84,
1.885,-0.16,0.02,0.86,-2.41,-0.28,-0.84,
1.885,-0.16,0.02,0.86,-2.31,-0.34,-0.99,
1.887,-0.16,0.02,0.86,-2.31,-0.34,-0.99,
1.89,-0.16,0.01,0.85,-2.31,-0.34,-0.99,
1.892,-0.16,0.01,0.85,-2.22,-0.40,-1.11,
1.892,-0.16,0.01,0.84,-2.22,-0.40,-1.11,
1.894,-0.16,0.01,0.84,-2.22,-0.40,-1.11,
1.894,-0.16,0.01,0.84,-2.20,-0.48,-1.21,
1.896,-0.16,0.00,0.85,-2.20,-0.48,-1.21,
1.9,-0.16,0.00,0.85,-2.19,-0.53,-1.33,
1.9,-0.17,0.00,0.84,-2.19,-0.53,-1.33,
1.901,-0.17,0.00,0.84,-2.19,-0.53,-1.33,
1.905,-0.18,0.01,0.85,-2.19,-0.53,-1.33,
1.905,-0.18,0.01,0.85,-2.21,-0.59,-1.31,
1.906,-0.18,0.01,0.85,-2.21,-0.59,-1.31,
1.91,-0.19,0.02,0.86,-2.21,-0.59,-1.31,
1.911,-0.19,0.02,0.86,-2.28,-0.61,-1.33,
1.912,-0.19,0.02,0.86,-2.28,-0.61,-1.33,
1.915,-0.20,0.02,0.86,-2.28,-0.61,-1.33,
1.915,-0.20,0.02,0.86,-2.37,-0.52,-1.23,
1.917,-0.20,0.03,0.87,-2.37,-0.52,-1.23,
1.919,-0.21,0.03,0.88,-2.37,-0.52,-1.23,
1.92,-0.21,0.03,0.88,-2.47,-0.46,-1.15,
1.922,-0.21,0.04,0.89,-2.47,-0.46,-1.15,
1.924,-0.21,0.05,0.89,-2.47,-0.46,-1.15,
1.926,-0.21,0.05,0.89,-2.53,-0.38,-1.03,
1.926,-0.22,0.05,0.91,-2.53,-0.38,-1.03,
1.929,-0.22,0.06,0.92,-2.53,-0.38,-1.03,
1.929,-0.22,0.06,0.92,-2.58,-0.22,-0.86,
1.931,-0.22,0.06,0.93,-2.58,-0.22,-0.86,
1.934,-0.24,0.06,0.94,-2.58,-0.22,-0.86,
1.935,-0.24,0.06,0.94,-2.65,-0.12,-0.64,
1.936,-0.24,0.06,0.95,-2.65,-0.12,-0.64,
1.939,-0.24,0.06,0.95,-2.75,-0.08,-0.39,
1.939,-0.24,0.06,0.96,-2.75,-0.08,-0.39,
1.941,-0.24,0.06,0.97,-2.75,-0.08,-0.39,
1.944,-0.24,0.06,0.97,-2.75,-0.08,-0.39,
1.944,-0.24,0.06,0.97,-2.82,-0.03,-0.24,
1.946,-0.24,0.06,0.97,-2.82,-0.03,-0.24,
1.949,-0.24,0.06,0.97,-2.81,-0.09,-0.11,
1.949,-0.24,0.06,0.98,-2.81,-0.09,-0.11,
1.951,-0.24,0.06,0.97,-2.81,-0.09,-0.11,
1.953,-0.24,0.06,0.98,-2.81,-0.09,-0.11,
1.953,-0.24,0.06,0.98,-2.78,-0.03,-0.05,
1.955,-0.23,0.06,0.98,-2.78,-0.03,-0.05,
1.959,-0.23,0.06,0.98,-2.78,-0.03,-0.05,
1.961,-0.23,0.06,0.98,-2.72,-0.04,-0.04,
1.961,-0.23,0.06,0.97,-2.72,-0.04,-0.04,
1.963,-0.22,0.06,0.97,-2.72,-0.04,-0.04,
1.963,-0.22,0.06,0.97,-2.67,-0.04,0.04,
1.965,-0.22,0.06,0.96,-2.67,-0.04,0.04,
1.968,-0.21,0.06,0.95,-2.67,-0.04,0.04,
1.968,-0.21,0.06,0.95,-2.53,-0.07,-0.07,
1.97,-0.20,0.06,0.95,-2.53,-0.07,-0.07,
1.974,-0.20,0.06,0.95,-2.40,-0.03,-0.20,
1.974,-0.20,0.05,0.94,-2.40,-0.03,-0.20,
1.981,-0.20,0.05,0.93,-2.40,-0.03,-0.20,
1.984,-0.19,0.05,0.92,-2.40,-0.03,-0.20,
1.984,-0.19,0.05,0.92,-2.26,-0.12,-0.35,
1.986,-0.19,0.04,0.91,-2.26,-0.12,-0.35,
1.986,-0.18,0.03,0.92,-2.26,-0.12,-0.35,
1.987,-0.18,0.03,0.92,-2.20,-0.17,-0.51,
1.987,-0.18,0.03,0.92,-2.20,-0.17,-0.51,
1.988,-0.18,0.03,0.91,-2.20,-0.17,-0.51,
1.988,-0.18,0.03,0.91,-2.05,-0.28,-0.61,
1.992,-0.17,0.02,0.91,-2.05,-0.28,-0.61,
1.993,-0.16,0.01,0.91,-2.05,-0.28,-0.61,
1.994,-0.16,0.01,0.91,-1.99,-0.35,-0.63,
1.995,-0.16,0.02,0.92,-1.99,-0.35,-0.63,
1.998,-0.16,0.02,0.92,-1.85,-0.47,-0.68,
1.998,-0.16,0.01,0.93,-1.85,-0.47,-0.68,
2.0,-0.16,0.01,0.93,-1.85,-0.47,-0.68,
2.003,-0.15,0.01,0.93,-1.85,-0.47,-0.68,
2.003,-0.15,0.01,0.93,-1.77,-0.47,-0.56,
2.006,-0.16,0.01,0.94,-1.77,-0.47,-0.56,
2.011,-0.18,0.00,0.95,-1.77,-0.47,-0.56,
2.012,-0.18,0.00,0.95,-1.69,-0.52,-0.45,
2.012,-0.18,0.01,0.97,-1.69,-0.52,-0.45,
2.014,-0.18,0.02,0.98,-1.69,-0.52,-0.45,
2.014,-0.18,0.02,0.98,-1.77,-0.54,-0.29,
2.015,-0.18,0.03,0.99,-1.77,-0.54,-0.29,
2.018,-0.18,0.03,1.01,-1.77,-0.54,-0.29,
2.019,-0.18,0.03,1.01,-1.83,-0.48,-0.04,
2.02,-0.18,0.04,1.03,-1.83,-0.48,-0.04,
2.022,-0.18,0.04,1.03,-1.80,-0.28,0.24,
2.023,-0.19,0.04,1.05,-1.80,-0.28,0.24,
2.026,-0.19,0.05,1.06,-1.80,-0.28,0.24,
2.027,-0.20,0.05,1.07,-1.80,-0.28,0.24,
2.028,-0.20,0.05,1.07,-1.83,-0.17,0.60,
2.03,-0.20,0.04,1.08,-1.83,-0.17,0.60,
2.032,-0.21,0.04,1.09,-1.83,-0.17,0.60,
2.033,-0.21,0.04,1.09,-1.90,-0.10,0.83,
2.035,-0.21,0.04,1.09,-1.90,-0.10,0.83,
2.037,-0.21,0.03,1.10,-1.90,-0.10,0.83,
2.038,-0.21,0.03,1.10,-1.98,-0.11,1.04,
2.04,-0.21,0.03,1.10,-1.98,-0.11,1.04,
2.043,-0.21,0.03,1.11,-1.98,-0.11,1.04,
2.043,-0.21,0.03,1.11,-2.01,-0.13,1.14,
2.045,-0.21,0.03,1.10,-2.01,-0.13,1.14,
2.048,-0.21,0.03,1.10,-2.01,-0.19,1.21,
2.048,-0.21,0.02,1.10,-2.01,-0.19,1.21,
2.05,-0.20,0.02,1.10,-2.01,-0.19,1.21,
2.052,-0.19,0.02,1.10,-2.01,-0.19,1.21,
2.052,-0.19,0.02,1.10,-1.98,-0.21,1.20,
2.054,-0.20,0.02,1.09,-1.98,-0.21,1.20,
2.058,-0.19,0.02,1.09,-1.98,-0.21,1.20,
2.058,-0.19,0.02,1.09,-1.88,-0.23,1.16,
2.06,-0.19,0.02,1.07,-1.88,-0.23,1.16,
2.062,-0.18,0.02,1.07,-1.88,-0.23,1.16,
2.062,-0.18,0.02,1.07,-1.83,-0.26,1.06,
2.064,-0.18,0.02,1.06,-1.83,-0.26,1.06,
2.067,-0.18,0.03,1.05,-1.83,-0.26,1.06,
2.068,-0.18,0.03,1.05,-1.77,-0.19,0.86,
2.069,-0.17,0.02,1.04,-1.77,-0.19,0.86,
2.072,-0.17,0.02,1.04,-1.69,-0.14,0.75,
2.072,-0.17,0.03,1.03,-1.69,-0.14,0.75,
2.079,-0.17,0.03,1.03,-1.69,-0.14,0.75,
2.08,-0.17,0.03,1.01,-1.69,-0.14,0.75,
2.08,-0.17,0.03,1.01,-1.65,-0.13,0.54,
2.081,-0.17,0.02,1.00,-1.65,-0.13,0.54,
2.082,-0.18,0.02,0.99,-1.65,-0.13,0.54,
2.083,-0.18,0.02,0.99,-1.62,-0.11,0.38,
2.084,-0.17,0.02,0.99,-1.62,-0.11,0.38,
2.087,-0.17,0.02,0.98,-1.62,-0.11,0.38,
2.087,-0.17,0.02,0.98,-1.66,-0.11,0.13,
2.089,-0.16,0.01,0.98,-1.66,-0.11,0.13,
2.093,-0.16,0.01,0.99,-1.66,-0.11,0.13,
2.094,-0.16,0.01,0.99,-1.60,-0.17,0.02,
2.094,-0.17,0.00,1.00,-1.60,-0.17,0.02,
2.097,-0.17,0.00,1.00,-1.55,-0.23,0.03,
2.097,-0.16,-0.00,1.00,-1.55,-0.23,0.03,
2.099,-0.17,-0.00,1.00,-1.55,-0.23,0.03,
2.103,-0.17,-0.00,1.01,-1.55,-0.23,0.03,
2.103,-0.17,-0.00,1.01,-1.56,-0.32,0.19,
2.105,-0.16,0.01,1.01,-1.56,-0.32,0.19,
2.108,-0.15,0.01,1.02,-1.56,-0.32,0.19,
2.108,-0.15,0.01,1.02,-1.58,-0.32,0.21,
2.11,-0.15,0.02,1.02,-1.58,-0.32,0.21,
2.113,-0.15,0.03,1.03,-1.58,-0.32,0.21,
2.113,-0.15,0.03,1.03,-1.45,-0.18,0.34,
2.114,-0.14,0.03,1.04,-1.45,-0.18,0.34,
2.116,-0.15,0.03,1.04,-1.45,-0.18,0.34,
2.117,-0.15,0.03,1.04,-1.36,-0.05,0.45,
2.119,-0.14,0.03,1.05,-1.36,-0.05,0.45,
2.122,-0.14,0.03,1.05,-1.31,0.04,0.56,
2.122,-0.15,0.03,1.05,-1.31,0.04,0.56,
2.125,-0.15,0.03,1.05,-1.31,0.04,0.56,
2.127,-0.16,0.02,1.06,-1.31,0.04,0.56,
2.127,-0.16,0.02,1.06,-1.31,0.05,0.67,
2.129,-0.16,0.01,1.05,-1.31,0.05,0.67,
2.132,-0.16,0.02,1.06,-1.31,0.05,0.67,
2.132,-0.16,0.02,1.06,-1.36,-0.02,0.73,
2.135,-0.17,0.01,1.07,-1.36,-0.02,0.73,
2.137,-0.17,0.00,1.07,-1.36,-0.02,0.73,
2.137,-0.17,0.00,1.07,-1.40,-0.09,0.73,
2.139,-0.17,0.01,1.08,-1.40,-0.09,0.73,
2.143,-0.17,0.00,1.07,-1.40,-0.09,0.73,
2.147,-0.17,0.00,1.07,-1.47,-0.17,0.86,
2.147,-0.17,0.00,1.08,-1.47,-0.17,0.86,
2.147,-0.18,-0.00,1.08,-1.47,-0.17,0.86,
2.147,-0.18,-0.00,1.08,-1.45,-0.16,0.90,
2.149,-0.18,0.00,1.08,-1.45,-0.16,0.90,
2.151,-0.17,0.01,1.08,-1.45,-0.16,0.90,
2.152,-0.17,0.01,1.08,-1.47,-0.18,0.93,
2.155,-0.18,-0.00,1.08,-1.47,-0.18,0.93,
2.156,-0.18,-0.01,1.07,-1.47,-0.18,0.93,
2.157,-0.18,-0.01,1.07,-1.43,-0.13,0.98,
2.159,-0.18,-0.00,1.07,-1.43,-0.13,0.98,
2.161,-0.18,-0.01,1.07,-1.43,-0.13,0.98,
2.161,-0.18,-0.01,1.07,-1.45,-0.19,0.88,
2.164,-0.18,-0.01,1.06,-1.45,-0.19,0.88,
2.166,-0.18,-0.02,1.06,-1.45,-0.19,0.88,
2.167,-0.18,-0.02,1.06,-1.43,-0.20,0.84,
2.169,-0.18,-0.01,1.05,-1.43,-0.20,0.84,
2.172,-0.18,-0.01,1.05,-1.44,-0.28,0.77,
2.173,-0.18,-0.02,1.05,-1.44,-0.28,0.77,
2.174,-0.18,-0.02,1.05,-1.44,-0.28,0.77,
2.18,-0.18,-0.02,1.04,-1.44,-0.28,0.77,
2.181,-0.18,-0.02,1.04,-1.40,-0.27,0.65,
2.181,-0.18,-0.02,1.04,-1.40,-0.27,0.65,
2.181,-0.17,-0.01,1.04,-1.40,-0.27,0.65,
2.181,-0.17,-0.01,1.04,-1.40,-0.28,0.62,
2.184,-0.17,-0.01,1.03,-1.40,-0.28,0.62,
2.186,-0.17,-0.01,1.03,-1.33,-0.24,0.54,
2.187,-0.17,-0.01,1.03,-1.33,-0.24,0.54,
2.191,-0.17,-0.00,1.03,-1.33,-0.24,0.54,
2.191,-0.18,-0.01,1.03,-1.33,-0.24,0.54,
2.191,-0.18,-0.01,1.03,-1.29,-0.18,0.45,
2.194,-0.18,0.00,1.03,-1.29,-0.18,0.45,
2.196,-0.18,0.00,1.03,-1.32,-0.11,0.42,
2.196,-0.17,0.01,1.03,-1.32,-0.11,0.42,
2.199,-0.17,0.01,1.03,-1.32,-0.11,0.42,
2.201,-0.17,0.01,1.03,-1.32,-0.11,0.42,
2.201,-0.17,0.01,1.03,-1.29,0.01,0.44,
2.204,-0.18,0.01,1.04,-1.29,0.01,0.44,
2.206,-0.17,0.00,1.04,-1.29,0.01,0.44,
2.206,-0.17,0.00,1.04,-1.26,0.03,0.47,
2.208,-0.17,0.00,1.05,-1.26,0.03,0.47,
2.211,-0.18,-0.00,1.04,-1.26,0.03,0.47,
2.212,-0.18,-0.00,1.04,-1.28,0.03,0.54,
2.213,-0.18,-0.00,1.05,-1.28,0.03,0.54,
2.216,-0.18,-0.01,1.05,-1.28,0.03,0.54,
2.216,-0.18,-0.01,1.05,-1.29,0.01,0.59,
2.219,-0.18,-0.01,1.04,-1.29,0.01,0.59,
2.221,-0.18,-0.01,1.04,-1.30,-0.02,0.62,
2.221,-0.17,-0.01,1.05,-1.30,-0.02,0.62,
2.223,-0.18,-0.02,1.05,-1.30,-0.02,0.62,
2.227,-0.18,-0.02,1.04,-1.30,-0.02,0.62,
2.228,-0.18,-0.02,1.04,-1.26,-0.06,0.59,
2.228,-0.17,-0.03,1.05,-1.26,-0.06,0.59,
2.231,-0.16,-0.03,1.05,-1.26,-0.06,0.59,
2.231,-0.16,-0.03,1.05,-1.27,-0.14,0.59,
2.233,-0.16,-0.04,1.05,-1.27,-0.14,0.59,
2.236,-0.16,-0.05,1.06,-1.27,-0.14,0.59,
2.236,-0.16,-0.05,1.06,-1.17,-0.22,0.59,
2.238,-0.14,-0.05,1.05,-1.17,-0.22,0.59,
2.241,-0.14,-0.05,1.05,-1.07,-0.31,0.67,
2.241,-0.14,-0.06,1.05,-1.07,-0.31,0.67,
2.243,-0.13,-0.06,1.05,-1.07,-0.31,0.67,
2.245,-0.13,-0.06,1.05,-0.89,-0.42,0.64,
2.246,-0.12,-0.07,1.06,-0.89,-0.42,0.64,
2.248,-0.12,-0.08,1.06,-0.89,-0.42,0.64,
2.251,-0.12,-0.08,1.06,-0.77,-0.50,0.69,
2.251,-0.12,-0.08,1.06,-0.77,-0.50,0.69,
2.253,-0.11,-0.09,1.06,-0.77,-0.50,0.69,
2.256,-0.10,-0.09,1.06,-0.77,-0.50,0.69,
2.256,-0.10,-0.09,1.06,-0.66,-0.61,0.69,
2.258,-0.09,-0.09,1.07,-0.66,-0.61,0.69,
2.261,-0.08,-0.09,1.07,-0.66,-0.61,0.69,
2.261,-0.08,-0.09,1.07,-0.49,-0.67,0.73,
2.263,-0.07,-0.09,1.07,-0.49,-0.67,0.73,
2.266,-0.07,-0.09,1.07,-0.34,-0.65,0.82,
2.266,-0.06,-0.09,1.07,-0.34,-0.65,0.82,
2.268,-0.06,-0.09,1.07,-0.34,-0.65,0.82,
2.271,-0.06,-0.09,1.07,-0.12,-0.65,0.83,
2.271,-0.05,-0.09,1.07,-0.12,-0.65,0.83,
2.273,-0.04,-0.09,1.07,-0.12,-0.65,0.83,
2.281,-0.04,-0.09,1.08,-0.12,-0.65,0.83,
2.281,-0.04,-0.09,1.08,0.03,-0.59,0.85,
2.282,-0.04,-0.09,1.08,0.03,-0.59,0.85,
2.282,-0.04,-0.09,1.08,0.03,-0.59,0.85,
2.282,-0.04,-0.09,1.08,0.15,-0.55,0.88,
2.282,-0.04,-0.09,1.08,0.15,-0.55,0.88,
2.285,-0.05,-0.09,1.07,0.15,-0.55,0.88,
2.285,-0.05,-0.09,1.07,0.19,-0.54,0.89,
2.288,-0.05,-0.08,1.08,0.19,-0.54,0.89,
2.29,-0.05,-0.08,1.08,0.19,-0.54,0.89,
2.29,-0.05,-0.08,1.08,0.18,-0.53,0.88,
2.292,-0.06,-0.08,1.08,0.18,-0.53,0.88,
2.296,-0.06,-0.08,1.08,0.09,-0.44,0.92,
2.296,-0.07,-0.08,1.08,0.09,-0.44,0.92,
2.297,-0.07,-0.07,1.09,0.09,-0.44,0.92,
2.301,-0.08,-0.07,1.08,0.09,-0.44,0.92,
2.301,-0.08,-0.07,1.08,0.00,-0.41,0.91,
2.303,-0.08,-0.07,1.08,0.00,-0.41,0.91,
2.305,-0.09,-0.07,1.09,0.00,-0.41,0.91,
2.306,-0.09,-0.07,1.09,-0.09,-0.35,0.97,
2.308,-0.10,-0.06,1.09,-0.09,-0.35,0.97,
2.311,-0.10,-0.06,1.08,-0.09,-0.35,0.97,
2.311,-0.10,-0.06,1.08,-0.16,-0.29,0.95,
2.313,-0.11,-0.05,1.08,-0.16,-0.29,0.95,
2.315,-0.11,-0.05,1.08,-0.29,-0.23,0.99,
2.315,-0.12,-0.05,1.09,-0.29,-0.23,0.99,
2.318,-0.12,-0.05,1.09,-0.29,-0.23,0.99,
2.32,-0.12,-0.05,1.09,-0.36,-0.14,0.98,
2.321,-0.12,-0.05,1.10,-0.36,-0.14,0.98,
2.323,-0.12,-0.05,1.10,-0.36,-0.14,0.98,
2.325,-0.12,-0.05,1.10,-0.36,-0.14,0.98,
2.325,-0.12,-0.05,1.10,-0.41,-0.13,1.07,
2.328,-0.12,-0.05,1.10,-0.41,-0.13,1.07,
2.33,-0.12,-0.05,1.11,-0.41,-0.13,1.07,
2.33,-0.12,-0.05,1.11,-0.42,-0.08,1.13,
2.332,-0.13,-0.05,1.11,-0.42,-0.08,1.13,
2.335,-0.13,-0.05,1.11,-0.40,-0.10,1.17,
2.336,-0.12,-0.06,1.11,-0.40,-0.10,1.17,
2.337,-0.12,-0.06,1.11,-0.40,-0.10,1.17,
2.339,-0.12,-0.06,1.12,-0.40,-0.10,1.17,
2.339,-0.12,-0.06,1.12,-0.40,-0.09,1.23,
2.342,-0.13,-0.06,1.13,-0.40,-0.09,1.23,
2.346,-0.13,-0.06,1.13,-0.35,-0.12,1.28,
2.347,-0.13,-0.07,1.13,-0.35,-0.12,1.28,
2.347,-0.12,-0.07,1.13,-0.35,-0.12,1.28,
2.349,-0.12,-0.08,1.13,-0.35,-0.12,1.28,
2.349,-0.12,-0.08,1.13,-0.37,-0.18,1.41,
2.351,-0.12,-0.08,1.14,-0.37,-0.18,1.41,
2.354,-0.11,-0.08,1.15,-0.37,-0.18,1.41,
2.355,-0.11,-0.08,1.15,-0.30,-0.23,1.40,
2.356,-0.10,-0.09,1.14,-0.30,-0.23,1.40,
2.364,-0.10,-0.09,1.14,-0.30,-0.23,1.40,
2.365,-0.10,-0.09,1.14,-0.21,-0.29,1.54,
2.365,-0.09,-0.09,1.15,-0.21,-0.29,1.54,
2.365,-0.08,-0.09,1.15,-0.21,-0.29,1.54,
2.365,-0.08,-0.09,1.15,-0.08,-0.32,1.55,
2.367,-0.08,-0.09,1.15,-0.08,-0.32,1.55,
2.369,-0.08,-0.09,1.15,0.08,-0.33,1.61,
2.37,-0.08,-0.09,1.15,0.08,-0.33,1.61,
2.372,-0.08,-0.09,1.15,0.08,-0.33,1.61,
2.374,-0.07,-0.09,1.15,0.08,-0.33,1.61,
2.374,-0.07,-0.09,1.15,0.16,-0.33,1.59,
2.377,-0.07,-0.09,1.15,0.16,-0.33,1.59,
2.379,-0.06,-0.09,1.14,0.16,-0.33,1.59,
2.379,-0.06,-0.09,1.14,0.24,-0.34,1.63,
2.381,-0.07,-0.08,1.14,0.24,-0.34,1.63,
2.384,-0.07,-0.09,1.13,0.24,-0.34,1.63,
2.384,-0.07,-0.09,1.13,0.32,-0.29,1.58,
2.386,-0.07,-0.09,1.13,0.32,-0.29,1.58,
2.389,-0.07,-0.09,1.13,0.31,-0.24,1.49,
2.389,-0.07,-0.09,1.13,0.31,-0.24,1.49,
2.391,-0.07,-0.09,1.12,0.31,-0.24,1.49,
2.395,-0.07,-0.09,1.12,0.30,-0.24,1.40,
2.395,-0.07,-0.08,1.12,0.30,-0.24,1.40,
2.396,-0.08,-0.08,1.11,0.30,-0.24,1.40,
2.399,-0.08,-0.08,1.10,0.30,-0.24,1.40,
2.399,-0.08,-0.08,1.10,0.28,-0.20,1.28,
2.401,-0.08,-0.08,1.09,0.28,-0.20,1.28,
2.404,-0.08,-0.07,1.09,0.28,-0.20,1.28,
2.404,-0.08,-0.07,1.09,0.23,-0.13,1.17,
2.406,-0.08,-0.07,1.09,0.23,-0.13,1.17,
2.409,-0.08,-0.06,1.08,0.23,-0.13,1.17,
2.409,-0.08,-0.06,1.08,0.20,-0.08,1.04,
2.411,-0.08,-0.06,1.08,0.20,-0.08,1.04,
2.414,-0.08,-0.06,1.08,0.20,-0.08,1.04,
2.414,-0.08,-0.06,1.08,0.18,0.01,0.97,
2.416,-0.08,-0.05,1.08,0.18,0.01,0.97,
2.418,-0.08,-0.05,1.08,0.20,0.06,0.94,
2.419,-0.08,-0.05,1.08,0.20,0.06,0.94,
2.421,-0.08,-0.04,1.08,0.20,0.06,0.94,
2.423,-0.08,-0.04,1.07,0.20,0.06,0.94,
2.424,-0.08,-0.04,1.07,0.18,0.14,0.90,
2.427,-0.08,-0.04,1.07,0.18,0.14,0.90,
2.428,-0.09,-0.04,1.07,0.18,0.14,0.90,
2.429,-0.09,-0.04,1.07,0.18,0.20,0.86,
2.431,-0.08,-0.04,1.07,0.18,0.20,0.86,
2.433,-0.08,-0.04,1.07,0.16,0.23,0.84,
2.434,-0.10,-0.04,1.08,0.16,0.23,0.84,
2.436,-0.09,-0.04,1.08,0.16,0.23,0.84,
2.438,-0.09,-0.05,1.08,0.16,0.23,0.84,
2.439,-0.09,-0.05,1.08,0.11,0.18,0.86,
2.441,-0.10,-0.04,1.08,0.11,0.18,0.86,
2.444,-0.10,-0.04,1.08,0.08,0.15,0.93,
2.445,-0.10,-0.04,1.08,0.08,0.15,0.93,
2.446,-0.08,-0.03,1.08,0.08,0.15,0.93,
2.448,-0.08,-0.02,1.09,0.08,0.15,0.93,
2.449,-0.08,-0.02,1.09,0.04,0.20,0.94,
2.451,-0.07,-0.02,1.09,0.04,0.20,0.94,
2.453,-0.07,-0.02,1.08,0.04,0.20,0.94,
2.453,-0.07,-0.02,1.08,0.23,0.35,0.95,
2.456,-0.07,-0.02,1.08,0.23,0.35,0.95,
2.458,-0.06,-0.02,1.09,0.23,0.35,0.95,
2.458,-0.06,-0.02,1.09,0.35,0.41,0.96,
2.461,-0.06,-0.02,1.09,0.35,0.41,0.96,
2.463,-0.06,-0.02,1.08,0.35,0.41,0.96,
2.463,-0.06,-0.02,1.08,0.42,0.39,0.95,
2.465,-0.07,-0.03,1.08,0.42,0.39,0.95,
2.468,-0.07,-0.03,1.08,0.45,0.34,0.98,
2.468,-0.07,-0.04,1.08,0.45,0.34,0.98,
2.47,-0.07,-0.04,1.08,0.45,0.34,0.98,
2.474,-0.07,-0.04,1.07,0.45,0.34,0.98,
2.474,-0.07,-0.04,1.07,0.44,0.21,0.93,
2.475,-0.07,-0.05,1.07,0.44,0.21,0.93,
2.483,-0.08,-0.05,1.07,0.44,0.21,0.93,
2.483,-0.08,-0.05,1.07,0.40,0.15,0.87,
2.484,-0.08,-0.04,1.06,0.40,0.15,0.87,
2.484,-0.08,-0.04,1.06,0.40,0.15,0.87,
2.484,-0.08,-0.04,1.06,0.39,0.06,0.77,
2.487,-0.08,-0.04,1.06,0.39,0.06,0.77,
2.49,-0.08,-0.04,1.06,0.35,0.09,0.72,
2.49,-0.09,-0.03,1.06,0.35,0.09,0.72,
2.49,-0.09,-0.03,1.06,0.35,0.09,0.72,
2.494,-0.09,-0.03,1.06,0.35,0.09,0.72,
2.495,-0.09,-0.03,1.06,0.33,0.14,0.69,
2.496,-0.08,-0.04,1.06,0.33,0.14,0.69,
2.498,-0.09,-0.04,1.06,0.33,0.14,0.69,
2.499,-0.09,-0.04,1.06,0.34,0.15,0.73,
2.501,-0.08,-0.04,1.06,0.34,0.15,0.73,
2.503,-0.08,-0.04,1.06,0.34,0.15,0.73,
2.504,-0.08,-0.04,1.06,0.36,0.10,0.68,
2.506,-0.08,-0.04,1.05,0.36,0.10,0.68,
2.508,-0.08,-0.04,1.06,0.36,0.10,0.68,
2.508,-0.08,-0.04,1.06,0.39,0.07,0.66,
2.51,-0.07,-0.05,1.05,0.39,0.07,0.66,
2.513,-0.06,-0.05,1.05,0.39,0.07,0.66,
2.513,-0.06,-0.05,1.05,0.45,0.03,0.63,
2.515,-0.06,-0.05,1.05,0.45,0.03,0.63,
2.518,-0.06,-0.05,1.05,0.55,-0.11,0.59,
2.518,-0.05,-0.06,1.06,0.55,-0.11,0.59,
2.521,-0.04,-0.06,1.05,0.55,-0.11,0.59,
2.523,-0.03,-0.06,1.06,0.55,-0.11,0.59,
2.524,-0.03,-0.06,1.06,0.63,-0.12,0.62,
2.525,-0.03,-0.06,1.06,0.63,-0.12,0.62,
2.528,-0.02,-0.06,1.07,0.63,-0.12,0.62,
2.529,-0.02,-0.06,1.07,0.83,-0.17,0.63,
2.53,-0.01,-0.06,1.06,0.83,-0.17,0.63,
2.532,-0.01,-0.07,1.07,0.83,-0.17,0.63,
2.533,-0.01,-0.07,1.07,0.95,-0.19,0.71,
2.536,0.00,-0.07,1.07,0.95,-0.19,0.71,
2.538,0.01,-0.07,1.07,0.95,-0.19,0.71,
2.538,0.01,-0.07,1.07,1.09,-0.23,0.72,
2.54,0.01,-0.08,1.08,1.09,-0.23,0.72,
2.543,0.02,-0.08,1.08,1.09,-0.23,0.72,
2.543,0.02,-0.08,1.08,1.23,-0.29,0.75,
2.546,0.02,-0.08,1.08,1.23,-0.29,0.75,
2.548,0.03,-0.09,1.09,1.23,-0.29,0.75,
2.548,0.03,-0.09,1.09,1.31,-0.36,0.83,
2.55,0.03,-0.09,1.09,1.31,-0.36,0.83,
2.553,0.04,-0.09,1.09,1.31,-0.36,0.83,
2.553,0.04,-0.09,1.09,1.38,-0.42,0.86,
2.555,0.05,-0.09,1.08,1.38,-0.42,0.86,
2.558,0.05,-0.09,1.08,1.38,-0.42,0.86,
2.558,0.05,-0.09,1.08,1.46,-0.43,0.87,
2.56,0.05,-0.09,1.08,1.46,-0.43,0.87,
2.563,0.06,-0.08,1.08,1.46,-0.43,0.87,
2.564,0.06,-0.08,1.08,1.57,-0.45,0.83,
2.565,0.06,-0.09,1.08,1.57,-0.45,0.83,
2.568,0.06,-0.09,1.08,1.61,-0.41,0.79,
2.568,0.06,-0.09,1.07,1.61,-0.41,0.79,
2.569,0.06,-0.09,1.07,1.61,-0.41,0.79,
2.573,0.07,-0.08,1.07,1.61,-0.41,0.79,
2.573,0.07,-0.08,1.07,1.60,-0.44,0.75,
2.575,0.07,-0.09,1.07,1.60,-0.44,0.75,
2.577,0.06,-0.09,1.06,1.60,-0.44,0.75,
2.577,0.06,-0.09,1.06,1.62,-0.44,0.69,
2.583,0.06,-0.08,1.06,1.62,-0.44,0.69,
2.583,0.07,-0.07,1.06,1.62,-0.44,0.69,
2.584,0.07,-0.07,1.06,1.62,-0.41,0.64,
2.584,0.07,-0.06,1.06,1.62,-0.41,0.64,
2.587,0.07,-0.06,1.06,1.58,-0.28,0.59,
2.587,0.07,-0.05,1.06,1.58,-0.28,0.59,
2.589,0.07,-0.05,1.06,1.58,-0.28,0.59,
2.593,0.07,-0.05,1.06,1.62,-0.13,0.57,
2.593,0.06,-0.05,1.06,1.62,-0.13,0.57,
2.595,0.06,-0.05,1.05,1.62,-0.13,0.57,
2.597,0.05,-0.05,1.05,1.62,-0.13,0.57,
2.597,0.05,-0.05,1.05,1.56,-0.06,0.53,
2.599,0.04,-0.05,1.05,1.56,-0.06,0.53,
2.602,0.04,-0.06,1.06,1.56,-0.06,0.53,
2.603,0.04,-0.06,1.06,1.41,-0.04,0.48,
2.605,0.04,-0.06,1.05,1.41,-0.04,0.48,
2.607,0.03,-0.06,1.04,1.41,-0.04,0.48,
2.608,0.03,-0.06,1.04,1.26,-0.13,0.53,
2.61,0.04,-0.06,1.04,1.26,-0.13,0.53,
2.612,0.04,-0.05,1.04,1.26,-0.13,0.53,
2.613,0.04,-0.05,1.04,1.20,-0.16,0.43,
2.614,0.04,-0.06,1.04,1.20,-0.16,0.43,
2.617,0.04,-0.06,1.04,1.23,-0.15,0.38,
2.617,0.05,-0.05,1.04,1.23,-0.15,0.38,
2.619,0.05,-0.05,1.03,1.23,-0.15,0.38,
2.623,0.05,-0.05,1.03,1.27,-0.15,0.34,
2.623,0.06,-0.05,1.04,1.27,-0.15,0.34,
2.625,0.06,-0.05,1.03,1.27,-0.15,0.34,
2.627,0.06,-0.04,1.03,1.27,-0.15,0.34,
2.627,0.06,-0.04,1.03,1.37,-0.11,0.30,
2.63,0.06,-0.04,1.03,1.37,-0.11,0.30,
2.632,0.06,-0.04,1.03,1.37,-0.11,0.30,
2.633,0.06,-0.04,1.03,1.41,-0.07,0.26,
2.634,0.06,-0.04,1.03,1.41,-0.07,0.26,
2.637,0.06,-0.05,1.03,1.41,-0.07,0.26,
2.639,0.06,-0.05,1.03,1.43,-0.06,0.25,
2.639,0.06,-0.04,1.03,1.43,-0.06,0.25,
2.642,0.06,-0.04,1.03,1.44,-0.09,0.28,
2.642,0.05,-0.04,1.03,1.44,-0.09,0.28,
2.644,0.06,-0.05,1.03,1.44,-0.09,0.28,
2.648,0.05,-0.05,1.04,1.44,-0.09,0.28,
2.648,0.05,-0.05,1.04,1.39,-0.08,0.28,
2.649,0.04,-0.04,1.04,1.39,-0.08,0.28,
2.651,0.04,-0.04,1.05,1.39,-0.08,0.28,
2.652,0.04,-0.04,1.05,1.35,-0.12,0.30,
2.654,0.04,-0.04,1.05,1.35,-0.12,0.30,
2.656,0.04,-0.04,1.05,1.25,-0.08,0.40,
2.656,0.03,-0.04,1.05,1.25,-0.08,0.40,
2.658,0.03,-0.04,1.05,1.25,-0.08,0.40,
2.662,0.02,-0.04,1.05,1.25,-0.08,0.40,
2.662,0.02,-0.04,1.05,1.19,-0.08,0.42,
2.663,0.01,-0.04,1.04,1.19,-0.08,0.42,
2.666,0.01,-0.04,1.04,1.07,-0.10,0.42,
2.666,0.01,-0.04,1.05,1.07,-0.10,0.42,
2.668,0.00,-0.04,1.05,1.07,-0.10,0.42,
2.671,0.00,-0.04,1.04,1.07,-0.10,0.42,
2.671,0.00,-0.04,1.04,0.94,-0.09,0.40,
2.674,-0.01,-0.04,1.04,0.94,-0.09,0.40,
2.677,-0.01,-0.03,1.04,0.94,-0.09,0.40,
2.677,-0.01,-0.03,1.04,0.87,-0.12,0.39,
2.683,-0.01,-0.03,1.04,0.87,-0.12,0.39,
2.683,-0.02,-0.03,1.03,0.87,-0.12,0.39,
2.683,-0.02,-0.03,1.03,0.78,-0.07,0.38,
2.684,-0.02,-0.03,1.03,0.78,-0.07,0.38,
2.686,-0.02,-0.03,1.03,0.78,-0.07,0.38,
2.686,-0.02,-0.03,1.03,0.72,-0.01,0.31,
2.688,-0.03,-0.02,1.03,0.72,-0.01,0.31,
2.691,-0.03,-0.02,1.03,0.72,-0.01,0.31,
2.691,-0.03,-0.02,1.03,0.64,0.00,0.22,
2.693,-0.03,-0.02,1.02,0.64,0.00,0.22,
2.697,-0.03,-0.02,1.02,0.64,0.00,0.22,
2.697,-0.03,-0.02,1.02,0.54,0.04,0.22,
2.698,-0.03,-0.02,1.02,0.54,0.04,0.22,
2.701,-0.04,-0.01,1.02,0.54,0.04,0.22,
2.701,-0.04,-0.01,1.02,0.52,0.08,0.16,
2.703,-0.04,-0.02,1.01,0.52,0.08,0.16,
2.706,-0.04,-0.01,1.01,0.52,0.08,0.16,
2.706,-0.04,-0.01,1.01,0.47,0.10,0.14,
2.708,-0.03,-0.01,1.01,0.47,0.10,0.14,
2.712,-0.03,-0.01,1.01,0.47,0.10,0.14,
2.712,-0.03,-0.01,1.01,0.45,0.10,0.07,
2.714,-0.03,-0.01,1.01,0.45,0.10,0.07,
2.716,-0.02,-0.01,1.01,0.45,0.10,0.07,
2.716,-0.02,-0.01,1.01,0.49,0.13,0.06,
2.718,-0.02,-0.01,1.00,0.49,0.13,0.06,
2.721,-0.02,-0.01,1.00,0.49,0.13,0.06,
2.721,-0.02,-0.01,1.00,0.53,0.11,0.02,
2.723,-0.02,-0.01,1.01,0.53,0.11,0.02,
2.725,-0.01,-0.02,1.00,0.53,0.11,0.02,
2.726,-0.01,-0.02,1.00,0.57,0.09,-0.02,
2.729,-0.01,-0.01,1.00,0.57,0.09,-0.02,
2.731,-0.01,-0.02,1.00,0.57,0.09,-0.02,
2.731,-0.01,-0.02,1.00,0.61,0.06,-0.01,
2.733,-0.01,-0.02,1.00,0.61,0.06,-0.01,
2.735,-0.01,-0.02,1.00,0.62,0.04,-0.06,
2.736,-0.01,-0.02,1.00,0.62,0.04,-0.06,
2.738,-0.02,-0.02,1.00,0.62,0.04,-0.06,
2.74,-0.02,-0.02,1.00,0.62,0.04,-0.06,
2.741,-0.02,-0.02,1.00,0.60,0.02,-0.04,
2.743,-0.02,-0.02,0.99,0.60,0.02,-0.04,
2.746,-0.02,-0.02,0.99,0.60,0.02,-0.04,
2.746,-0.02,-0.02,0.99,0.57,-0.00,-0.04,
2.747,-0.02,-0.02,0.99,0.57,-0.00,-0.04,
2.75,-0.03,-0.02,0.99,0.57,-0.00,-0.04,
2.751,-0.03,-0.02,0.99,0.53,-0.02,-0.12,
2.753,-0.04,-0.01,0.99,0.53,-0.02,-0.12,
2.755,-0.04,-0.01,0.98,0.53,-0.02,-0.12,
2.755,-0.04,-0.01,0.98,0.44,0.01,-0.16,
2.757,-0.05,-0.01,0.98,0.44,0.01,-0.16,
2.76,-0.04,-0.01,0.98,0.44,0.01,-0.16,
2.76,-0.04,-0.01,0.98,0.33,0.03,-0.21,
2.763,-0.05,-0.01,0.97,0.33,0.03,-0.21,
2.765,-0.05,-0.01,0.97,0.33,0.03,-0.21,
2.765,-0.05,-0.01,0.97,0.28,0.04,-0.26,
2.767,-0.05,-0.00,0.97,0.28,0.04,-0.26,
2.77,-0.05,-0.00,0.96,0.28,0.04,-0.26,
2.77,-0.05,-0.00,0.96,0.22,0.04,-0.32,
2.772,-0.05,-0.00,0.95,0.22,0.04,-0.32,
2.775,-0.04,-0.00,0.95,0.22,0.04,-0.32,
2.775,-0.04,-0.00,0.95,0.24,0.10,-0.40,
2.783,-0.04,-0.00,0.95,0.24,0.10,-0.40,
2.783,-0.03,-0.00,0.94,0.24,0.10,-0.40,
2.783,-0.03,-0.00,0.94,0.27,0.08,-0.50,
2.784,-0.03,-0.00,0.94,0.27,0.08,-0.50,
2.786,-0.02,-0.00,0.94,0.27,0.08,-0.50,
2.787,-0.02,-0.00,0.94,0.35,0.06,-0.58,
2.787,-0.01,-0.00,0.93,0.35,0.06,-0.58,
2.79,-0.01,-0.01,0.93,0.35,0.06,-0.58,
2.79,-0.01,-0.01,0.93,0.45,0.06,-0.64,
2.792,-0.00,-0.01,0.93,0.45,0.06,-0.64,
2.796,0.00,-0.01,0.93,0.45,0.06,-0.64,
2.796,0.00,-0.01,0.93,0.57,0.01,-0.71,
2.798,0.01,-0.01,0.93,0.57,0.01,-0.71,
2.8,0.02,-0.02,0.92,0.57,0.01,-0.71,
2.8,0.02,-0.02,0.92,0.68,-0.06,-0.70,
2.803,0.02,-0.02,0.92,0.68,-0.06,-0.70,
2.805,0.03,-0.03,0.93,0.68,-0.06,-0.70,
2.805,0.03,-0.03,0.93,0.79,-0.09,-0.73,
2.807,0.03,-0.03,0.93,0.79,-0.09,-0.73,
2.811,0.03,-0.04,0.94,0.79,-0.09,-0.73,
2.811,0.03,-0.04,0.94,0.91,-0.17,-0.72,
2.814,0.03,-0.04,0.94,0.91,-0.17,-0.72,
2.815,0.03,-0.04,0.94,0.98,-0.26,-0.64,
2.815,0.03,-0.04,0.95,0.98,-0.26,-0.64,
2.817,0.03,-0.04,0.96,0.98,-0.26,-0.64,
2.82,0.03,-0.04,0.96,0.98,-0.26,-0.64,
2.82,0.03,-0.04,0.96,0.99,-0.28,-0.51,
2.822,0.03,-0.04,0.97,0.99,-0.28,-0.51,
2.825,0.03,-0.04,0.98,0.99,-0.28,-0.51,
2.826,0.03,-0.04,0.98,1.00,-0.30,-0.39,
2.827,0.03,-0.04,0.99,1.00,-0.30,-0.39,
2.83,0.03,-0.04,0.99,0.98,-0.33,-0.23,
2.83,0.03,-0.05,1.00,0.98,-0.33,-0.23,
2.832,0.02,-0.04,1.00,0.98,-0.33,-0.23,
2.835,0.02,-0.04,1.02,0.98,-0.33,-0.23,
2.835,0.02,-0.04,1.02,0.94,-0.34,-0.04,
2.837,0.02,-0.04,1.02,0.94,-0.34,-0.04,
2.84,0.02,-0.04,1.02,0.87,-0.30,0.11,
2.84,0.02,-0.04,1.03,0.87,-0.30,0.11,
2.842,0.01,-0.04,1.03,0.87,-0.30,0.11,
2.845,0.00,-0.04,1.04,0.87,-0.30,0.11,
2.845,0.00,-0.04,1.04,0.81,-0.29,0.24,
2.847,-0.00,-0.04,1.04,0.81,-0.29,0.24,
2.849,-0.00,-0.03,1.05,0.81,-0.29,0.24,
2.85,-0.00,-0.03,1.05,0.72,-0.24,0.33,
2.852,-0.00,-0.03,1.05,0.72,-0.24,0.33,
2.855,-0.02,-0.04,1.06,0.72,-0.24,0.33,
2.855,-0.02,-0.04,1.06,0.63,-0.20,0.45,
2.857,-0.04,-0.04,1.09,0.63,-0.20,0.45,
2.86,-0.04,-0.04,1.09,0.54,-0.19,0.52,
2.86,-0.05,-0.04,1.11,0.54,-0.19,0.52,
2.863,-0.06,-0.04,1.10,0.54,-0.19,0.52,
2.865,-0.06,-0.04,1.10,0.18,-0.28,0.91,
2.865,-0.05,-0.04,1.11,0.18,-0.28,0.91,
2.867,-0.05,-0.03,1.10,0.18,-0.28,0.91,
2.87,-0.05,-0.02,1.09,0.18,-0.28,0.91,
2.87,-0.05,-0.02,1.09,0.10,-0.23,0.99,
2.872,-0.05,-0.02,1.08,0.10,-0.23,0.99,
2.875,-0.05,-0.02,1.08,0.11,-0.13,0.88,
2.875,-0.04,-0.01,1.07,0.11,-0.13,0.88,
2.877,-0.03,0.00,1.05,0.11,-0.13,0.88,
2.884,-0.03,0.01,1.03,0.11,-0.13,0.88,
2.884,-0.03,0.01,1.03,0.16,0.00,0.73,
2.885,-0.02,0.01,1.02,0.16,0.00,0.73,
2.885,-0.02,0.02,1.00,0.16,0.00,0.73,
2.885,-0.02,0.02,1.00,0.29,0.16,0.36,
2.888,-0.02,0.02,0.99,0.29,0.16,0.36,
2.889,-0.02,0.02,0.99,0.37,0.25,0.06,
2.889,-0.02,0.01,0.98,0.37,0.25,0.06,
2.891,-0.03,0.01,0.98,0.37,0.25,0.06,
2.894,-0.03,0.01,0.96,0.37,0.25,0.06,
2.894,-0.03,0.01,0.96,0.34,0.24,-0.17,
2.896,-0.02,0.01,0.96,0.34,0.24,-0.17,
2.899,-0.03,0.01,0.95,0.34,0.24,-0.17,
2.899,-0.03,0.01,0.95,0.30,0.19,-0.35,
2.901,-0.02,0.01,0.94,0.30,0.19,-0.35,
2.905,-0.02,0.01,0.94,0.30,0.19,-0.35,
2.905,-0.02,0.01,0.94,0.30,0.15,-0.50,
2.907,-0.02,0.01,0.93,0.30,0.15,-0.50,
2.909,-0.01,0.02,0.94,0.30,0.15,-0.50,
2.909,-0.01,0.02,0.94,0.35,0.16,-0.64,
2.912,-0.01,0.02,0.94,0.35,0.16,-0.64,
2.914,-0.01,0.02,0.94,0.40,0.21,-0.67,
2.914,-0.01,0.02,0.94,0.40,0.21,-0.67,
2.916,-0.02,0.02,0.93,0.40,0.21,-0.67,
2.919,-0.02,0.02,0.94,0.40,0.21,-0.67,
2.919,-0.02,0.02,0.94,0.39,0.23,-0.64,
2.922,-0.03,0.03,0.95,0.39,0.23,-0.64,
2.924,-0.03,0.03,0.95,0.39,0.23,-0.64,
2.925,-0.03,0.03,0.95,0.32,0.26,-0.63,
2.927,-0.03,0.03,0.96,0.32,0.26,-0.63,
2.93,-0.04,0.04,0.97,0.32,0.26,-0.63,
2.931,-0.04,0.04,0.97,0.26,0.29,-0.51,
2.931,-0.04,0.04,0.98,0.26,0.29,-0.51,
2.934,-0.05,0.04,0.98,0.26,0.29,-0.51,
2.934,-0.05,0.04,0.98,0.19,0.33,-0.37,
2.936,-0.05,0.04,1.00,0.19,0.33,-0.37,
2.939,-0.06,0.03,1.00,0.19,0.33,-0.37,
2.94,-0.06,0.03,1.00,0.12,0.39,-0.22,
2.941,-0.07,0.04,1.01,0.12,0.39,-0.22,
2.945,-0.07,0.03,1.01,0.12,0.39,-0.22,
2.945,-0.07,0.03,1.01,0.01,0.37,-0.04,
2.948,-0.08,0.03,1.02,0.01,0.37,-0.04,
2.948,-0.08,0.03,1.02,0.01,0.37,-0.04,
2.949,-0.08,0.03,1.02,-0.13,0.36,0.07,
2.951,-0.09,0.03,1.03,-0.13,0.36,0.07,
2.954,-0.09,0.02,1.04,-0.13,0.36,0.07,
2.954,-0.09,0.02,1.04,-0.21,0.27,0.18,
2.956,-0.10,0.02,1.05,-0.21,0.27,0.18,
2.96,-0.09,0.03,1.04,-0.21,0.27,0.18,
2.96,-0.09,0.03,1.04,-0.32,0.24,0.35,
2.961,-0.09,0.03,1.03,-0.32,0.24,0.35,
2.964,-0.09,0.03,1.03,-0.37,0.23,0.38,
2.964,-0.08,0.03,1.03,-0.37,0.23,0.38,
2.966,-0.07,0.04,1.02,-0.37,0.23,0.38,
2.969,-0.07,0.03,1.01,-0.37,0.23,0.38,
2.969,-0.07,0.03,1.01,-0.23,0.30,0.27,
2.971,-0.06,0.03,1.01,-0.23,0.30,0.27,
2.974,-0.06,0.03,1.00,-0.23,0.30,0.27,
2.974,-0.06,0.03,1.00,-0.10,0.32,0.14,
2.976,-0.05,0.03,1.00,-0.10,0.32,0.14,
2.979,-0.05,0.03,1.00,-0.10,0.32,0.14,
2.979,-0.05,0.03,1.00,0.00,0.28,0.02,
2.984,-0.05,0.03,0.99,0.00,0.28,0.02,
2.985,-0.05,0.03,0.99,0.00,0.28,0.02,
2.985,-0.05,0.03,0.99,0.04,0.26,-0.07,
2.985,-0.05,0.03,0.98,0.04,0.26,-0.07,
2.988,-0.05,0.03,0.98,0.04,0.25,-0.13,
2.988,-0.05,0.03,0.99,0.04,0.25,-0.13,
2.991,-0.05,0.03,0.98,0.04,0.25,-0.13,
2.993,-0.04,0.03,0.98,0.04,0.25,-0.13,
2.993,-0.04,0.03,0.98,0.05,0.23,-0.18,
2.995,-0.04,0.03,0.97,0.05,0.23,-0.18,
2.999,-0.04,0.03,0.98,0.05,0.23,-0.18,
2.999,-0.04,0.03,0.98,0.09,0.24,-0.25,
3.0,-0.03,0.03,0.99,0.09,0.24,-0.25,
3.003,-0.03,0.04,0.98,0.09,0.24,-0.25,
3.003,-0.03,0.04,0.98,0.16,0.30,-0.27,
3.005,-0.03,0.03,0.99,0.16,0.30,-0.27,
3.008,-0.03,0.03,1.00,0.16,0.30,-0.27,
3.008,-0.03,0.03,1.00,0.22,0.31,-0.19,
3.01,-0.04,0.03,1.00,0.22,0.31,-0.19,
3.014,-0.04,0.03,1.00,0.21,0.29,-0.10,
3.014,-0.04,0.03,1.00,0.21,0.29,-0.10,
3.016,-0.03,0.03,1.01,0.21,0.29,-0.10,
3.018,-0.03,0.03,1.01,0.21,0.29,-0.10,
3.018,-0.03,0.03,1.01,0.15,0.25,-0.05,
3.02,-0.03,0.03,1.02,0.15,0.25,-0.05,
3.023,-0.03,0.03,1.02,0.17,0.24,0.08,
3.023,-0.04,0.02,1.03,0.17,0.24,0.08,
3.025,-0.04,0.02,1.04,0.17,0.24,0.08,
3.027,-0.03,0.02,1.05,0.17,0.24,0.08,
3.028,-0.03,0.02,1.05,0.16,0.20,0.24,
3.031,-0.03,0.02,1.06,0.16,0.20,0.24,
3.032,-0.03,0.02,1.07,0.16,0.20,0.24,
3.033,-0.03,0.02,1.07,0.16,0.17,0.42,
3.035,-0.03,0.02,1.08,0.16,0.17,0.42,
3.037,-0.03,0.02,1.08,0.19,0.13,0.61,
3.038,-0.03,0.01,1.09,0.19,0.13,0.61,
3.04,-0.03,0.01,1.09,0.19,0.13,0.61,
3.042,-0.03,0.01,1.10,0.19,0.13,0.61,
3.043,-0.03,0.01,1.10,0.21,0.08,0.79,
3.045,-0.03,0.00,1.09,0.21,0.08,0.79,
3.048,-0.03,0.01,1.09,0.21,0.08,0.79,
3.048,-0.03,0.01,1.09,0.25,0.02,0.88,
3.05,-0.02,0.00,1.09,0.25,0.02,0.88,
3.052,-0.03,-0.00,1.08,0.25,0.02,0.88,
3.053,-0.03,-0.00,1.08,0.20,-0.04,0.86,
3.055,-0.04,-0.00,1.08,0.20,-0.04,0.86,
3.057,-0.04,-0.00,1.07,0.20,-0.04,0.86,
3.057,-0.04,-0.00,1.07,0.27,-0.08,0.79,
3.059,-0.04,0.00,1.06,0.27,-0.08,0.79,
3.068,-0.04,0.00,1.06,0.17,-0.12,0.69,
3.068,-0.03,-0.00,1.05,0.17,-0.12,0.69,
3.068,-0.03,0.00,1.04,0.17,-0.12,0.69,
3.069,-0.03,0.01,1.02,0.17,-0.12,0.69,
3.069,-0.03,0.01,1.02,0.21,-0.12,0.44,
3.069,-0.03,0.00,1.01,0.21,-0.12,0.44,
3.072,-0.03,0.00,1.00,0.21,-0.12,0.44,
3.073,-0.03,0.00,1.00,0.25,-0.10,0.21,
3.074,-0.03,0.01,0.99,0.25,-0.10,0.21,
3.077,-0.03,0.01,0.98,0.25,-0.10,0.21,
3.077,-0.03,0.01,0.98,0.27,-0.10,-0.03,
3.08,-0.03,0.02,0.97,0.27,-0.10,-0.03,
3.082,-0.03,0.02,0.96,0.27,-0.10,-0.03,
3.082,-0.03,0.02,0.96,0.28,-0.05,-0.25,
3.085,-0.03,0.03,0.95,0.28,-0.05,-0.25,
3.088,-0.03,0.03,0.95,0.24,0.01,-0.44,
3.088,-0.04,0.02,0.94,0.24,0.01,-0.44,
3.09,-0.04,0.03,0.93,0.24,0.01,-0.44,
3.093,-0.04,0.03,0.94,0.24,0.01,-0.44,
3.093,-0.04,0.03,0.94,0.22,0.05,-0.60,
3.095,-0.05,0.02,0.93,0.22,0.05,-0.60,
3.098,-0.05,0.02,0.94,0.22,0.05,-0.60,
3.099,-0.05,0.02,0.94,0.17,0.05,-0.67,
3.099,-0.06,0.03,0.94,0.17,0.05,-0.67,
3.102,-0.06,0.03,0.95,0.17,0.05,-0.67,
3.102,-0.06,0.03,0.95,0.06,0.02,-0.69,
3.105,-0.07,0.04,0.95,0.06,0.02,-0.69,
3.107,-0.08,0.04,0.96,0.06,0.02,-0.69,
3.108,-0.08,0.04,0.96,-0.05,0.10,-0.58,
3.11,-0.08,0.04,0.95,-0.05,0.10,-0.58,
3.112,-0.08,0.04,0.95,-0.15,0.13,-0.48,
3.113,-0.08,0.05,0.93,-0.15,0.13,-0.48,
3.115,-0.08,0.05,0.92,-0.15,0.13,-0.48,
3.117,-0.09,0.06,0.91,-0.15,0.13,-0.48,
3.117,-0.09,0.06,0.91,-0.20,0.19,-0.62,
3.12,-0.09,0.06,0.90,-0.20,0.19,-0.62,
3.122,-0.10,0.06,0.91,-0.20,0.19,-0.62,
3.122,-0.10,0.06,0.91,-0.27,0.30,-0.87,
3.124,-0.10,0.07,0.90,-0.27,0.30,-0.87,
3.127,-0.11,0.07,0.91,-0.27,0.30,-0.87,
3.128,-0.11,0.07,0.91,-0.35,0.37,-0.93,
3.129,-0.12,0.07,0.91,-0.35,0.37,-0.93,
3.132,-0.12,0.06,0.91,-0.35,0.37,-0.93,
3.137,-0.12,0.06,0.91,-0.44,0.43,-0.96,
3.137,-0.13,0.06,0.91,-0.44,0.43,-0.96,
3.137,-0.13,0.06,0.91,-0.55,0.41,-0.86,
3.138,-0.14,0.06,0.92,-0.55,0.41,-0.86,
3.14,-0.14,0.05,0.94,-0.55,0.41,-0.86,
3.141,-0.15,0.05,0.95,-0.55,0.41,-0.86,
3.142,-0.15,0.05,0.95,-0.67,0.33,-0.79,
3.144,-0.16,0.05,0.96,-0.67,0.33,-0.79,
3.153,-0.16,0.04,0.99,-0.67,0.33,-0.79,
3.153,-0.16,0.04,0.99,-0.78,0.24,-0.52,
3.154,-0.16,0.04,1.01,-0.78,0.24,-0.52,
3.154,-0.16,0.04,1.02,-0.78,0.24,-0.52,
3.154,-0.16,0.04,1.02,-0.92,0.22,-0.23,
3.154,-0.17,0.04,1.02,-0.92,0.22,-0.23,
3.157,-0.17,0.04,1.04,-0.92,0.22,-0.23,
3.157,-0.17,0.04,1.04,-0.95,0.21,0.14,
3.16,-0.17,0.04,1.06,-0.95,0.21,0.14,
3.162,-0.17,0.04,1.06,-1.01,0.19,0.33,
3.162,-0.16,0.04,1.08,-1.01,0.19,0.33,
3.164,-0.13,0.05,1.09,-1.01,0.19,0.33,
3.168,-0.12,0.05,1.10,-1.01,0.19,0.33,
3.169,-0.12,0.05,1.10,-0.93,0.23,0.66,
3.169,-0.11,0.04,1.11,-0.93,0.23,0.66,
3.172,-0.10,0.04,1.12,-0.93,0.23,0.66,
3.172,-0.10,0.04,1.12,-0.62,0.29,0.94,
3.174,-0.09,0.02,1.13,-0.62,0.29,0.94,
3.176,-0.09,0.02,1.12,-0.62,0.29,0.94,
3.178,-0.09,0.02,1.12,-0.45,0.21,1.13,
3.179,-0.08,0.01,1.11,-0.45,0.21,1.13,
3.187,-0.08,0.01,1.10,-0.45,0.21,1.13,
3.187,-0.08,0.01,1.10,-0.28,0.02,1.20,
3.188,-0.07,0.00,1.09,-0.28,0.02,1.20,
3.188,-0.06,0.00,1.09,-0.28,0.02,1.20,
3.188,-0.06,0.00,1.09,-0.20,-0.08,1.01,
3.188,-0.06,0.01,1.08,-0.20,-0.08,1.01,
3.191,-0.06,0.01,1.07,-0.20,-0.08,1.01,
3.191,-0.06,0.01,1.07,-0.09,-0.16,0.82,
3.195,-0.05,0.01,1.06,-0.09,-0.16,0.82,
3.197,-0.04,0.02,1.06,-0.09,-0.16,0.82,
3.197,-0.04,0.02,1.06,0.00,-0.07,0.71,
3.21,-0.04,0.03,1.06,0.00,-0.07,0.71,
3.21,-0.04,0.03,1.06,0.09,-0.01,0.55,
3.211,-0.04,0.03,1.06,0.09,-0.01,0.55,
3.211,-0.04,0.04,1.05,0.09,-0.01,0.55,
3.211,-0.04,0.04,1.05,0.09,-0.01,0.55,
3.211,-0.04,0.04,1.05,0.17,0.12,0.49,
3.211,-0.04,0.04,1.04,0.17,0.12,0.49,
3.212,-0.04,0.03,1.04,0.17,0.12,0.49,
3.212,-0.04,0.03,1.04,0.17,0.19,0.44,
