
time,gFx,gFy,gFz,ax,ay,az,
0.004,-0.03,0.09,0.98,-0.12,0.01,-0.09,
0.005,-0.03,0.09,0.99,-0.12,0.01,-0.09,
0.005,-0.03,0.09,0.99,-0.09,0.08,-0.18,
0.005,-0.03,0.09,0.99,-0.09,0.08,-0.18,
0.005,-0.03,0.09,0.98,-0.09,0.08,-0.18,
0.006,-0.03,0.09,0.98,-0.07,0.11,-0.17,
0.006,-0.03,0.09,0.98,-0.07,0.11,-0.17,
0.013,-0.02,0.09,0.98,-0.07,0.11,-0.17,
0.013,-0.02,0.09,0.98,-0.06,0.04,-0.16,
0.014,-0.02,0.09,0.98,-0.06,0.04,-0.16,
0.014,-0.02,0.09,0.98,-0.06,0.04,-0.16,
0.014,-0.02,0.09,0.98,-0.01,0.04,-0.17,
0.014,-0.01,0.08,0.99,-0.01,0.04,-0.17,
0.017,-0.01,0.09,0.99,-0.01,0.04,-0.17,
0.017,-0.01,0.09,0.99,0.05,0.03,-0.16,
0.026,-0.00,0.09,1.00,0.05,0.03,-0.16,
0.026,-0.00,0.09,1.01,0.05,0.03,-0.16,
0.026,-0.00,0.09,1.01,0.15,0.04,-0.07,
0.026,0.00,0.09,1.01,0.15,0.04,-0.07,
0.027,0.00,0.09,1.01,0.15,0.04,-0.07,
0.027,0.00,0.09,1.01,0.20,0.05,0.05,
0.03,0.00,0.09,1.02,0.20,0.05,0.05,
0.032,0.00,0.08,1.03,0.20,0.05,0.05,
0.032,0.00,0.08,1.03,0.25,0.07,0.10,
0.034,0.00,0.08,1.03,0.25,0.07,0.10,
0.043,0.01,0.08,1.03,0.25,0.07,0.10,
0.043,0.01,0.08,1.03,0.24,0.05,0.23,
0.043,0.01,0.09,1.03,0.24,0.05,0.23,
0.044,0.01,0.09,1.03,0.27,0.03,0.27,
0.044,0.00,0.08,1.03,0.27,0.03,0.27,
0.044,-0.00,0.08,1.03,0.27,0.03,0.27,
0.047,-0.00,0.08,1.03,0.26,0.04,0.27,
0.047,-0.00,0.08,1.04,0.26,0.04,0.27,
0.049,0.00,0.08,1.03,0.26,0.04,0.27,
0.052,0.00,0.08,1.03,0.26,0.04,0.27,
0.052,0.00,0.08,1.03,0.18,0.02,0.34,
0.06,-0.00,0.08,1.02,0.18,0.02,0.34,
0.061,-0.01,0.08,1.02,0.18,0.02,0.34,
0.061,-0.01,0.08,1.02,0.23,0.02,0.25,
0.061,-0.01,0.08,1.02,0.23,0.02,0.25,
0.062,-0.00,0.08,1.01,0.23,0.02,0.25,
0.062,-0.00,0.08,1.01,0.15,0.02,0.19,
0.064,-0.00,0.08,1.01,0.15,0.02,0.19,
0.067,-0.01,0.08,1.01,0.15,0.02,0.19,
0.067,-0.01,0.08,1.01,0.15,-0.02,0.15,
0.069,-0.01,0.08,1.01,0.15,-0.02,0.15,
0.076,-0.01,0.08,1.01,0.13,0.01,0.06,
0.077,-0.00,0.08,1.01,0.13,0.01,0.06,
0.077,-0.00,0.08,1.00,0.13,0.01,0.06,
0.077,-0.00,0.09,1.00,0.13,0.01,0.06,
0.078,-0.00,0.09,1.00,0.13,0.01,0.07,
0.078,-0.00,0.08,1.01,0.13,0.01,0.07,
0.082,-0.00,0.09,1.00,0.13,0.01,0.07,
0.082,-0.00,0.09,1.00,0.17,0.02,-0.00,
0.084,0.01,0.09,1.00,0.17,0.02,-0.00,
0.086,0.01,0.08,1.01,0.17,0.02,-0.00,
0.087,0.01,0.08,1.01,0.16,0.03,0.00,
0.098,0.01,0.09,1.02,0.16,0.03,0.00,
0.099,0.01,0.09,1.01,0.16,0.03,0.00,
0.099,0.01,0.09,1.01,0.24,0.02,0.03,
0.099,0.01,0.09,1.01,0.24,0.02,0.03,
0.1,0.01,0.09,1.01,0.28,0.06,0.13,
0.1,0.01,0.09,1.01,0.28,0.06,0.13,
0.1,0.02,0.08,1.01,0.28,0.06,0.13,
0.102,0.03,0.08,1.02,0.28,0.06,0.13,
0.102,0.03,0.08,1.02,0.30,0.05,0.09,
0.103,0.02,0.08,1.01,0.30,0.05,0.09,
0.111,0.02,0.07,1.01,0.30,0.05,0.09,
0.112,0.02,0.07,1.01,0.40,-0.02,0.13,
0.112,0.02,0.07,1.01,0.40,-0.02,0.13,
0.112,0.02,0.07,1.01,0.40,-0.02,0.13,
0.112,0.02,0.07,1.01,0.38,-0.06,0.10,
0.113,0.03,0.07,1.01,0.38,-0.06,0.10,
0.116,0.02,0.07,1.01,0.38,-0.06,0.10,
0.116,0.02,0.07,1.01,0.39,-0.13,0.08,
0.119,0.03,0.07,1.01,0.39,-0.13,0.08,
0.13,0.03,0.07,1.01,0.40,-0.14,0.06,
0.13,0.03,0.07,1.01,0.40,-0.14,0.06,
0.131,0.03,0.07,1.01,0.40,-0.14,0.06,
0.131,0.03,0.07,1.00,0.40,-0.14,0.06,
0.131,0.03,0.07,1.00,0.43,-0.14,0.07,
0.131,0.03,0.07,1.00,0.43,-0.14,0.07,
0.131,0.03,0.07,1.01,0.43,-0.14,0.07,
0.131,0.03,0.07,1.01,0.41,-0.13,0.03,
0.134,0.03,0.07,1.01,0.41,-0.13,0.03,
0.136,0.03,0.07,1.01,0.41,-0.13,0.03,
0.137,0.03,0.07,1.01,0.43,-0.14,0.03,
0.145,0.03,0.07,1.01,0.43,-0.14,0.03,
0.145,0.03,0.06,1.01,0.43,-0.14,0.03,
0.146,0.03,0.06,1.01,0.40,-0.14,0.08,
0.146,0.03,0.06,1.02,0.40,-0.14,0.08,
0.146,0.03,0.06,1.02,0.40,-0.19,0.06,
0.146,0.03,0.06,1.02,0.40,-0.19,0.06,
0.148,0.04,0.06,1.02,0.40,-0.19,0.06,
0.151,0.04,0.07,1.02,0.40,-0.19,0.06,
0.151,0.04,0.07,1.02,0.41,-0.22,0.13,
0.153,0.04,0.07,1.02,0.41,-0.22,0.13,
0.159,0.05,0.07,1.01,0.41,-0.22,0.13,
0.16,0.05,0.07,1.01,0.48,-0.17,0.13,
0.16,0.05,0.07,1.01,0.48,-0.17,0.13,
0.163,0.05,0.06,1.02,0.48,-0.17,0.13,
0.163,0.05,0.06,1.02,0.57,-0.15,0.11,
0.163,0.06,0.06,1.01,0.57,-0.15,0.11,
0.166,0.06,0.06,1.01,0.63,-0.18,0.13,
0.166,0.06,0.06,1.02,0.63,-0.18,0.13,
0.168,0.07,0.06,1.01,0.63,-0.18,0.13,
0.178,0.07,0.06,1.01,0.68,-0.25,0.12,
0.179,0.06,0.06,1.01,0.68,-0.25,0.12,
0.179,0.07,0.05,1.01,0.68,-0.25,0.12,
0.179,0.08,0.05,1.01,0.68,-0.25,0.12,
0.179,0.08,0.05,1.01,0.72,-0.25,0.05,
0.18,0.08,0.05,1.00,0.72,-0.25,0.05,
0.18,0.08,0.05,1.00,0.72,-0.25,0.05,
0.18,0.08,0.05,1.00,0.77,-0.31,0.04,
0.183,0.08,0.05,1.00,0.77,-0.31,0.04,
0.186,0.08,0.05,1.00,0.83,-0.31,-0.02,
0.186,0.08,0.05,1.01,0.83,-0.31,-0.02,
0.197,0.08,0.05,1.01,0.83,-0.31,-0.02,
0.198,0.09,0.05,1.00,0.83,-0.31,-0.02,
0.198,0.09,0.05,1.00,0.84,-0.34,0.02,
0.198,0.09,0.05,0.99,0.84,-0.34,0.02,
0.198,0.09,0.05,0.99,0.85,-0.30,-0.00,
0.199,0.10,0.04,0.98,0.85,-0.30,-0.00,
0.199,0.10,0.04,0.98,0.85,-0.30,-0.00,
0.201,0.11,0.04,0.96,0.85,-0.30,-0.00,
0.201,0.11,0.04,0.96,0.94,-0.38,-0.15,
0.203,0.10,0.04,0.96,0.94,-0.38,-0.15,
0.211,0.11,0.04,0.96,0.94,-0.38,-0.15,
0.212,0.11,0.04,0.96,1.03,-0.41,-0.32,
0.212,0.11,0.05,0.97,1.03,-0.41,-0.32,
0.212,0.10,0.04,0.98,1.03,-0.41,-0.32,
0.212,0.10,0.04,0.98,1.05,-0.40,-0.38,
0.212,0.10,0.04,0.97,1.05,-0.40,-0.38,
0.215,0.11,0.04,0.94,1.05,-0.40,-0.38,
0.216,0.11,0.04,0.94,1.03,-0.40,-0.28,
0.218,0.11,0.04,0.93,1.03,-0.40,-0.28,
0.22,0.11,0.04,0.93,0.99,-0.42,-0.46,
0.221,0.12,0.04,0.93,0.99,-0.42,-0.46,
0.23,0.12,0.05,0.92,0.99,-0.42,-0.46,
0.231,0.12,0.05,0.91,0.99,-0.42,-0.46,
0.231,0.12,0.05,0.91,1.10,-0.42,-0.71,
0.231,0.12,0.04,0.91,1.10,-0.42,-0.71,
0.232,0.11,0.05,0.90,1.10,-0.42,-0.71,
0.232,0.11,0.05,0.90,1.11,-0.36,-0.84,
0.232,0.11,0.04,0.90,1.11,-0.36,-0.84,
0.235,0.11,0.04,0.90,1.11,-0.36,-0.84,
0.235,0.11,0.04,0.90,1.07,-0.41,-0.91,
0.243,0.11,0.05,0.89,1.07,-0.41,-0.91,
0.243,0.11,0.05,0.89,1.07,-0.41,-0.91,
0.243,0.11,0.05,0.89,1.01,-0.42,-0.99,
0.244,0.12,0.05,0.89,1.01,-0.42,-0.99,
0.245,0.12,0.05,0.89,1.04,-0.39,-1.06,
0.245,0.11,0.05,0.88,1.04,-0.39,-1.06,
0.248,0.11,0.05,0.89,1.04,-0.39,-1.06,
0.25,0.11,0.05,0.88,1.04,-0.39,-1.06,
0.25,0.11,0.05,0.88,1.05,-0.41,-1.11,
0.252,0.12,0.05,0.88,1.05,-0.41,-1.11,
0.259,0.12,0.05,0.88,1.05,-0.41,-1.11,
0.259,0.12,0.05,0.88,1.02,-0.39,-1.09,
0.26,0.12,0.05,0.88,1.02,-0.39,-1.09,
0.26,0.13,0.05,0.88,1.02,-0.39,-1.09,
0.26,0.13,0.05,0.88,1.05,-0.38,-1.12,
0.262,0.13,0.05,0.88,1.05,-0.38,-1.12,
0.264,0.13,0.05,0.88,1.13,-0.38,-1.12,
0.264,0.13,0.05,0.88,1.13,-0.38,-1.12,
0.267,0.13,0.05,0.87,1.13,-0.38,-1.12,
0.269,0.13,0.05,0.87,1.17,-0.36,-1.12,
0.269,0.13,0.05,0.87,1.17,-0.36,-1.12,
0.275,0.14,0.05,0.87,1.17,-0.36,-1.12,
0.276,0.14,0.05,0.86,1.17,-0.36,-1.12,
0.276,0.14,0.05,0.86,1.19,-0.34,-1.19,
0.276,0.14,0.05,0.87,1.19,-0.34,-1.19,
0.279,0.14,0.06,0.86,1.19,-0.34,-1.19,
0.279,0.14,0.06,0.86,1.23,-0.34,-1.21,
0.281,0.13,0.06,0.86,1.23,-0.34,-1.21,
0.284,0.13,0.06,0.86,1.23,-0.34,-1.21,
0.284,0.13,0.06,0.86,1.23,-0.33,-1.21,
0.286,0.13,0.05,0.86,1.23,-0.33,-1.21,
0.293,0.13,0.05,0.86,1.23,-0.33,-1.21,
0.293,0.13,0.05,0.86,1.18,-0.31,-1.29,
0.293,0.13,0.05,0.86,1.18,-0.31,-1.29,
0.294,0.13,0.05,0.86,1.12,-0.33,-1.26,
0.294,0.12,0.04,0.87,1.12,-0.33,-1.26,
0.296,0.12,0.05,0.86,1.12,-0.33,-1.26,
0.299,0.12,0.04,0.86,1.12,-0.33,-1.26,
0.299,0.12,0.04,0.86,1.08,-0.37,-1.19,
0.301,0.12,0.04,0.86,1.08,-0.37,-1.19,
0.315,0.11,0.05,0.86,1.08,-0.37,-1.19,
0.316,0.11,0.05,0.86,1.04,-0.41,-1.24,
0.316,0.11,0.05,0.87,1.04,-0.41,-1.24,
0.316,0.11,0.05,0.87,1.04,-0.41,-1.24,
0.317,0.11,0.05,0.87,0.96,-0.41,-1.20,
0.317,0.10,0.05,0.88,0.96,-0.41,-1.20,
0.317,0.11,0.05,0.88,0.96,-0.41,-1.20,
0.317,0.11,0.05,0.88,0.91,-0.35,-1.09,
0.318,0.11,0.05,0.88,0.91,-0.35,-1.09,
0.318,0.11,0.05,0.88,0.86,-0.37,-1.00,
0.319,0.11,0.05,0.89,0.86,-0.37,-1.00,
0.328,0.11,0.05,0.89,0.86,-0.37,-1.00,
0.329,0.11,0.05,0.89,0.86,-0.37,-1.00,
0.331,0.11,0.05,0.89,0.89,-0.35,-0.97,
0.331,0.10,0.06,0.89,0.89,-0.35,-0.97,
0.331,0.11,0.05,0.89,0.89,-0.35,-0.97,
0.332,0.11,0.05,0.89,0.88,-0.30,-0.88,
0.332,0.10,0.05,0.89,0.88,-0.30,-0.88,
0.334,0.10,0.05,0.89,0.88,-0.30,-0.88,
0.334,0.10,0.05,0.89,0.86,-0.29,-0.91,
0.336,0.09,0.05,0.89,0.86,-0.29,-0.91,
0.346,0.09,0.05,0.89,0.86,-0.29,-0.91,
0.347,0.09,0.05,0.89,0.81,-0.34,-0.87,
0.347,0.08,0.05,0.89,0.81,-0.34,-0.87,
0.347,0.08,0.05,0.89,0.73,-0.33,-0.84,
0.348,0.07,0.05,0.89,0.73,-0.33,-0.84,
0.348,0.07,0.05,0.90,0.73,-0.33,-0.84,
0.348,0.07,0.06,0.90,0.73,-0.33,-0.84,
0.348,0.07,0.06,0.90,0.63,-0.31,-0.86,
0.351,0.07,0.06,0.90,0.63,-0.31,-0.86,
0.353,0.07,0.06,0.90,0.56,-0.26,-0.81,
0.354,0.06,0.05,0.89,0.56,-0.26,-0.81,
0.36,0.05,0.05,0.90,0.56,-0.26,-0.81,
0.361,0.05,0.05,0.90,0.56,-0.26,-0.81,
0.361,0.05,0.05,0.90,0.50,-0.26,-0.82,
0.361,0.05,0.05,0.90,0.50,-0.26,-0.82,
0.364,0.05,0.04,0.90,0.50,-0.26,-0.82,
0.364,0.05,0.04,0.90,0.42,-0.31,-0.75,
0.365,0.05,0.04,0.89,0.42,-0.31,-0.75,
0.368,0.05,0.04,0.89,0.35,-0.34,-0.77,
0.369,0.05,0.03,0.89,0.35,-0.34,-0.77,
0.371,0.04,0.03,0.90,0.35,-0.34,-0.77,
0.376,0.04,0.03,0.89,0.35,-0.34,-0.77,
0.377,0.04,0.03,0.89,0.37,-0.40,-0.82,
0.377,0.04,0.03,0.89,0.37,-0.40,-0.82,
0.379,0.04,0.03,0.89,0.37,-0.40,-0.82,
0.379,0.04,0.03,0.89,0.33,-0.46,-0.83,
0.381,0.05,0.03,0.88,0.33,-0.46,-0.83,
0.384,0.05,0.03,0.88,0.33,-0.46,-0.83,
0.384,0.05,0.03,0.88,0.31,-0.49,-0.86,
0.386,0.04,0.03,0.88,0.31,-0.49,-0.86,
0.396,0.05,0.04,0.87,0.31,-0.49,-0.86,
0.396,0.05,0.04,0.87,0.37,-0.45,-0.91,
0.396,0.05,0.04,0.86,0.37,-0.45,-0.91,
0.396,0.05,0.04,0.86,0.37,-0.42,-1.01,
0.396,0.05,0.04,0.85,0.37,-0.42,-1.01,
0.397,0.04,0.04,0.85,0.37,-0.42,-1.01,
0.398,0.04,0.05,0.85,0.37,-0.42,-1.01,
0.398,0.04,0.05,0.85,0.41,-0.39,-1.15,
0.401,0.04,0.05,0.84,0.41,-0.39,-1.15,
0.403,0.04,0.05,0.83,0.41,-0.39,-1.15,
0.404,0.04,0.05,0.83,0.34,-0.33,-1.22,
0.411,0.03,0.05,0.83,0.34,-0.33,-1.22,
0.412,0.03,0.06,0.83,0.34,-0.33,-1.22,
0.412,0.03,0.06,0.83,0.31,-0.27,-1.31,
0.412,0.03,0.06,0.82,0.31,-0.27,-1.31,
0.413,0.02,0.06,0.82,0.31,-0.27,-1.31,
0.413,0.02,0.06,0.82,0.24,-0.23,-1.38,
0.415,0.01,0.06,0.83,0.24,-0.23,-1.38,
0.418,0.01,0.06,0.84,0.24,-0.23,-1.38,
0.418,0.01,0.06,0.84,0.22,-0.20,-1.45,
0.421,0.01,0.06,0.83,0.22,-0.20,-1.45,
0.43,0.01,0.06,0.84,0.22,-0.20,-1.45,
0.431,0.01,0.06,0.84,0.11,-0.18,-1.33,
0.431,0.00,0.06,0.85,0.11,-0.18,-1.33,
0.431,0.00,0.05,0.85,0.11,-0.18,-1.33,
0.431,0.00,0.05,0.85,0.06,-0.18,-1.32,
0.432,0.00,0.05,0.85,0.06,-0.18,-1.32,
0.433,0.01,0.05,0.86,0.06,-0.18,-1.32,
0.433,0.01,0.05,0.86,0.00,-0.23,-1.19,
0.435,0.01,0.04,0.86,0.00,-0.23,-1.19,
0.438,0.01,0.04,0.86,0.00,-0.23,-1.19,
0.438,0.01,0.04,0.86,0.05,-0.25,-1.09,
0.446,0.02,0.04,0.87,0.05,-0.25,-1.09,
0.447,0.02,0.04,0.87,0.08,-0.31,-1.05,
0.447,0.02,0.04,0.87,0.08,-0.31,-1.05,
0.447,0.03,0.04,0.87,0.08,-0.31,-1.05,
0.448,0.03,0.04,0.87,0.08,-0.31,-1.05,
0.448,0.03,0.04,0.87,0.19,-0.30,-0.96,
0.45,0.03,0.04,0.87,0.19,-0.30,-0.96,
0.453,0.03,0.04,0.86,0.19,-0.30,-0.96,
0.453,0.03,0.04,0.86,0.26,-0.26,-0.95,
0.455,0.03,0.05,0.86,0.26,-0.26,-0.95,
0.464,0.02,0.05,0.86,0.26,-0.26,-0.95,
0.465,0.02,0.05,0.86,0.29,-0.27,-0.98,
0.465,0.01,0.05,0.85,0.29,-0.27,-0.98,
0.465,-0.00,0.05,0.84,0.29,-0.27,-0.98,
0.465,-0.00,0.05,0.84,0.21,-0.22,-1.04,
0.466,-0.01,0.05,0.84,0.21,-0.22,-1.04,
0.468,-0.01,0.05,0.84,0.04,-0.19,-1.17,
0.468,-0.02,0.04,0.83,0.04,-0.19,-1.17,
0.47,-0.03,0.05,0.83,0.04,-0.19,-1.17,
0.478,-0.04,0.05,0.82,0.04,-0.19,-1.17,
0.479,-0.04,0.05,0.82,-0.10,-0.22,-1.27,
0.479,-0.05,0.05,0.84,-0.10,-0.22,-1.27,
0.479,-0.05,0.05,0.84,-0.31,-0.18,-1.34,
0.479,-0.06,0.05,0.85,-0.31,-0.18,-1.34,
0.48,-0.07,0.05,0.84,-0.31,-0.18,-1.34,
0.483,-0.07,0.05,0.84,-0.48,-0.20,-1.18,
0.483,-0.07,0.06,0.83,-0.48,-0.20,-1.18,
0.484,-0.07,0.06,0.82,-0.48,-0.20,-1.18,
0.487,-0.07,0.06,0.82,-0.58,-0.11,-1.24,
0.487,-0.08,0.08,0.82,-0.58,-0.11,-1.24,
0.49,-0.09,0.08,0.83,-0.58,-0.11,-1.24,
0.494,-0.09,0.08,0.83,-0.64,0.01,-1.41,
0.494,-0.09,0.08,0.84,-0.64,0.01,-1.41,
0.495,-0.10,0.08,0.85,-0.64,0.01,-1.41,
0.497,-0.11,0.08,0.85,-0.64,0.01,-1.41,
0.497,-0.11,0.08,0.85,-0.74,0.13,-1.23,
0.499,-0.11,0.08,0.86,-0.74,0.13,-1.23,
0.502,-0.12,0.08,0.87,-0.74,0.13,-1.23,
0.502,-0.12,0.08,0.87,-0.88,0.15,-1.09,
0.504,-0.12,0.07,0.89,-0.88,0.15,-1.09,
0.511,-0.13,0.07,0.89,-0.88,0.15,-1.09,
0.511,-0.13,0.07,0.89,-1.01,0.15,-0.91,
0.511,-0.14,0.07,0.90,-1.01,0.15,-0.91,
0.512,-0.14,0.06,0.92,-1.01,0.15,-0.91,
0.512,-0.14,0.06,0.92,-1.12,0.07,-0.69,
0.514,-0.15,0.06,0.92,-1.12,0.07,-0.69,
0.516,-0.15,0.06,0.92,-1.23,0.06,-0.48,
0.517,-0.15,0.06,0.93,-1.23,0.06,-0.48,
0.519,-0.16,0.05,0.94,-1.23,0.06,-0.48,
0.532,-0.17,0.05,0.94,-1.23,0.06,-0.48,
0.533,-0.17,0.05,0.94,-1.32,-0.01,-0.33,
0.533,-0.17,0.04,0.95,-1.32,-0.01,-0.33,
0.534,-0.18,0.04,0.95,-1.32,-0.01,-0.33,
0.534,-0.18,0.04,0.95,-1.44,-0.06,-0.23,
0.534,-0.18,0.03,0.95,-1.44,-0.06,-0.23,
0.534,-0.18,0.03,0.95,-1.44,-0.06,-0.23,
0.534,-0.18,0.03,0.95,-1.55,-0.14,-0.09,
0.535,-0.18,0.02,0.94,-1.55,-0.14,-0.09,
0.536,-0.18,0.02,0.93,-1.55,-0.14,-0.09,
0.536,-0.18,0.02,0.93,-1.59,-0.21,-0.09,
0.547,-0.18,0.02,0.92,-1.59,-0.21,-0.09,
0.548,-0.18,0.02,0.92,-1.62,-0.28,-0.27,
0.548,-0.18,0.02,0.91,-1.62,-0.28,-0.27,
0.548,-0.18,0.02,0.91,-1.62,-0.28,-0.27,
0.548,-0.18,0.02,0.92,-1.62,-0.28,-0.27,
0.549,-0.18,0.02,0.92,-1.59,-0.30,-0.42,
0.549,-0.17,0.02,0.91,-1.59,-0.30,-0.42,
0.552,-0.16,0.03,0.89,-1.59,-0.30,-0.42,
0.552,-0.16,0.03,0.89,-1.58,-0.33,-0.43,
0.553,-0.15,0.03,0.88,-1.58,-0.33,-0.43,
0.565,-0.15,0.03,0.87,-1.58,-0.33,-0.43,
0.567,-0.15,0.03,0.87,-1.44,-0.26,-0.60,
0.567,-0.15,0.03,0.86,-1.44,-0.26,-0.60,
0.567,-0.16,0.03,0.84,-1.44,-0.26,-0.60,
0.568,-0.16,0.03,0.84,-1.29,-0.22,-0.83,
0.568,-0.16,0.03,0.83,-1.29,-0.22,-0.83,
0.568,-0.16,0.03,0.83,-1.37,-0.28,-1.05,
0.568,-0.16,0.03,0.82,-1.37,-0.28,-1.05,
0.569,-0.16,0.03,0.81,-1.37,-0.28,-1.05,
0.571,-0.16,0.04,0.80,-1.37,-0.28,-1.05,
0.571,-0.16,0.04,0.80,-1.37,-0.28,-1.34,
0.578,-0.16,0.04,0.79,-1.37,-0.28,-1.34,
0.579,-0.16,0.04,0.79,-1.37,-0.28,-1.34,
0.579,-0.16,0.04,0.79,-1.35,-0.23,-1.53,
0.579,-0.16,0.05,0.79,-1.35,-0.23,-1.53,
0.581,-0.16,0.05,0.79,-1.35,-0.15,-1.58,
0.581,-0.17,0.05,0.79,-1.35,-0.15,-1.58,
0.583,-0.17,0.06,0.80,-1.35,-0.15,-1.58,
0.586,-0.18,0.05,0.80,-1.35,-0.15,-1.58,
0.586,-0.18,0.05,0.80,-1.32,-0.08,-1.58,
0.595,-0.19,0.05,0.81,-1.32,-0.08,-1.58,
0.595,-0.19,0.05,0.81,-1.40,-0.00,-1.48,
0.596,-0.20,0.05,0.82,-1.40,-0.00,-1.48,
0.596,-0.21,0.05,0.83,-1.40,-0.00,-1.48,
0.596,-0.22,0.06,0.84,-1.40,-0.00,-1.48,
0.596,-0.22,0.06,0.84,-1.54,-0.02,-1.37,
0.598,-0.23,0.05,0.84,-1.54,-0.02,-1.37,
0.601,-0.24,0.05,0.86,-1.54,-0.02,-1.37,
0.601,-0.24,0.05,0.86,-1.72,0.02,-1.18,
0.603,-0.25,0.04,0.86,-1.72,0.02,-1.18,
0.612,-0.26,0.04,0.87,-1.72,0.02,-1.18,
0.613,-0.26,0.04,0.87,-1.92,-0.03,-1.00,
0.613,-0.27,0.03,0.88,-1.92,-0.03,-1.00,
0.614,-0.27,0.03,0.89,-1.92,-0.03,-1.00,
0.614,-0.27,0.03,0.89,-2.05,-0.08,-0.85,
0.614,-0.28,0.03,0.90,-2.05,-0.08,-0.85,
0.616,-0.28,0.03,0.90,-2.19,-0.12,-0.67,
0.616,-0.28,0.02,0.91,-2.19,-0.12,-0.67,
0.618,-0.28,0.02,0.92,-2.19,-0.12,-0.67,
0.621,-0.29,0.01,0.93,-2.19,-0.12,-0.67,
0.621,-0.29,0.01,0.93,-2.27,-0.18,-0.43,
0.629,-0.29,0.01,0.94,-2.27,-0.18,-0.43,
0.63,-0.28,0.00,0.94,-2.27,-0.18,-0.43,
0.63,-0.28,0.00,0.94,-2.29,-0.23,-0.25,
0.63,-0.29,-0.00,0.94,-2.29,-0.23,-0.25,
0.631,-0.29,-0.00,0.95,-2.29,-0.23,-0.25,
0.631,-0.29,-0.00,0.95,-2.30,-0.31,-0.12,
0.634,-0.29,-0.01,0.95,-2.30,-0.31,-0.12,
0.635,-0.29,-0.00,0.95,-2.30,-0.31,-0.12,
0.636,-0.29,-0.00,0.95,-2.33,-0.35,-0.05,
0.638,-0.29,-0.01,0.95,-2.33,-0.35,-0.05,
0.649,-0.29,-0.01,0.95,-2.32,-0.35,-0.04,
0.651,-0.28,-0.00,0.95,-2.32,-0.35,-0.04,
0.651,-0.27,-0.01,0.95,-2.32,-0.35,-0.04,
0.651,-0.27,-0.01,0.95,-2.32,-0.35,-0.04,
0.651,-0.27,-0.01,0.95,-2.23,-0.32,-0.04,
0.652,-0.27,-0.02,0.95,-2.23,-0.32,-0.04,
0.652,-0.26,-0.02,0.95,-2.23,-0.32,-0.04,
0.652,-0.26,-0.02,0.95,-2.12,-0.32,-0.00,
0.652,-0.25,-0.02,0.93,-2.12,-0.32,-0.00,
0.666,-0.25,-0.01,0.92,-2.12,-0.32,-0.00,
0.668,-0.25,-0.01,0.92,-2.02,-0.36,-0.02,
0.668,-0.24,-0.01,0.92,-2.02,-0.36,-0.02,
0.668,-0.24,-0.01,0.91,-2.02,-0.36,-0.02,
0.669,-0.24,-0.01,0.91,-1.87,-0.35,-0.25,
0.669,-0.24,-0.00,0.91,-1.87,-0.35,-0.25,
0.669,-0.24,-0.00,0.91,-1.77,-0.27,-0.37,
0.669,-0.25,-0.00,0.91,-1.77,-0.27,-0.37,
0.669,-0.25,-0.00,0.90,-1.77,-0.27,-0.37,
0.67,-0.26,-0.00,0.91,-1.77,-0.27,-0.37,
0.67,-0.26,-0.00,0.91,-1.77,-0.17,-0.43,
0.677,-0.27,0.00,0.91,-1.77,-0.17,-0.43,
0.678,-0.28,-0.00,0.91,-1.77,-0.17,-0.43,
0.678,-0.28,-0.00,0.91,-1.89,-0.14,-0.43,
0.678,-0.29,-0.00,0.92,-1.89,-0.14,-0.43,
0.681,-0.29,-0.00,0.92,-2.04,-0.12,-0.38,
0.681,-0.30,-0.00,0.92,-2.04,-0.12,-0.38,
0.683,-0.30,-0.00,0.93,-2.04,-0.12,-0.38,
0.686,-0.31,-0.00,0.94,-2.04,-0.12,-0.38,
0.686,-0.31,-0.00,0.94,-2.20,-0.11,-0.30,
0.688,-0.31,-0.01,0.95,-2.20,-0.11,-0.30,
0.696,-0.31,-0.01,0.95,-2.24,-0.08,-0.13,
0.697,-0.31,-0.01,0.96,-2.24,-0.08,-0.13,
0.697,-0.31,-0.01,0.97,-2.24,-0.08,-0.13,
0.697,-0.31,-0.01,0.97,-2.31,-0.08,0.04,
0.698,-0.32,-0.01,0.98,-2.31,-0.08,0.04,
0.698,-0.32,-0.01,0.99,-2.31,-0.08,0.04,
0.7,-0.32,-0.01,0.99,-2.31,-0.06,0.28,
0.701,-0.32,-0.01,1.00,-2.31,-0.06,0.28,
0.703,-0.32,-0.01,1.01,-2.31,-0.06,0.28,
0.705,-0.32,-0.00,1.02,-2.31,-0.06,0.28,
0.706,-0.32,-0.00,1.02,-2.31,-0.01,0.45,
0.712,-0.32,-0.01,1.03,-2.31,-0.01,0.45,
0.712,-0.32,-0.01,1.03,-2.32,0.07,0.66,
0.712,-0.32,-0.01,1.03,-2.32,0.07,0.66,
0.713,-0.32,-0.01,1.04,-2.32,0.07,0.66,
0.715,-0.32,-0.01,1.04,-2.31,0.09,0.80,
0.716,-0.32,-0.01,1.04,-2.31,0.09,0.80,
0.718,-0.33,-0.02,1.05,-2.31,0.09,0.80,
0.72,-0.33,-0.03,1.05,-2.31,0.09,0.80,
0.72,-0.33,-0.03,1.05,-2.34,0.10,0.89,
0.723,-0.34,-0.04,1.05,-2.34,0.10,0.89,
0.728,-0.34,-0.04,1.05,-2.36,-0.00,0.97,
0.728,-0.34,-0.04,1.05,-2.36,-0.00,0.97,
0.729,-0.35,-0.06,1.05,-2.36,-0.00,0.97,
0.73,-0.36,-0.07,1.05,-2.36,-0.00,0.97,
0.731,-0.36,-0.07,1.05,-2.49,-0.12,0.97,
0.733,-0.36,-0.08,1.04,-2.49,-0.12,0.97,
0.735,-0.37,-0.09,1.04,-2.49,-0.12,0.97,
0.736,-0.37,-0.09,1.04,-2.62,-0.32,0.96,
0.737,-0.36,-0.10,1.04,-2.62,-0.32,0.96,
0.74,-0.36,-0.10,1.04,-2.71,-0.48,0.84,
0.74,-0.37,-0.11,1.04,-2.71,-0.48,0.84,
0.75,-0.37,-0.11,1.03,-2.71,-0.48,0.84,
0.751,-0.37,-0.12,1.03,-2.71,-0.48,0.84,
0.751,-0.37,-0.12,1.03,-2.72,-0.65,0.84,
0.751,-0.37,-0.12,1.02,-2.72,-0.65,0.84,
0.752,-0.37,-0.13,1.02,-2.72,-0.65,0.84,
0.752,-0.37,-0.13,1.02,-2.76,-0.71,0.78,
0.752,-0.37,-0.13,1.02,-2.76,-0.71,0.78,
0.754,-0.37,-0.14,1.02,-2.76,-0.71,0.78,
0.754,-0.37,-0.14,1.02,-2.74,-0.77,0.69,
0.766,-0.36,-0.13,1.03,-2.74,-0.77,0.69,
0.766,-0.37,-0.13,1.03,-2.74,-0.77,0.69,
0.767,-0.37,-0.13,1.03,-2.68,-0.82,0.68,
0.767,-0.36,-0.13,1.03,-2.68,-0.82,0.68,
0.767,-0.36,-0.13,1.03,-2.63,-0.76,0.71,
0.767,-0.35,-0.12,1.03,-2.63,-0.76,0.71,
0.768,-0.36,-0.12,1.04,-2.63,-0.76,0.71,
0.77,-0.36,-0.12,1.06,-2.63,-0.76,0.71,
0.77,-0.36,-0.12,1.06,-2.54,-0.65,0.77,
0.771,-0.36,-0.12,1.06,-2.54,-0.65,0.77,
0.782,-0.37,-0.12,1.07,-2.54,-0.65,0.77,
0.783,-0.37,-0.12,1.07,-2.49,-0.54,0.93,
0.783,-0.37,-0.13,1.07,-2.49,-0.54,0.93,
0.783,-0.38,-0.13,1.08,-2.49,-0.54,0.93,
0.783,-0.38,-0.13,1.08,-2.54,-0.55,1.09,
0.784,-0.38,-0.12,1.08,-2.54,-0.55,1.09,
0.784,-0.38,-0.13,1.09,-2.54,-0.55,1.09,
0.784,-0.38,-0.13,1.09,-2.64,-0.55,1.20,
0.786,-0.39,-0.13,1.10,-2.64,-0.55,1.20,
0.789,-0.39,-0.13,1.10,-2.67,-0.51,1.29,
0.789,-0.40,-0.13,1.10,-2.67,-0.51,1.29,
0.796,-0.40,-0.13,1.10,-2.67,-0.51,1.29,
0.797,-0.41,-0.13,1.10,-2.67,-0.51,1.29,
0.797,-0.41,-0.13,1.10,-2.77,-0.52,1.45,
0.797,-0.41,-0.13,1.10,-2.77,-0.52,1.45,
0.799,-0.42,-0.12,1.11,-2.77,-0.52,1.45,
0.799,-0.42,-0.12,1.11,-2.82,-0.50,1.46,
0.801,-0.42,-0.11,1.11,-2.82,-0.50,1.46,
0.804,-0.43,-0.11,1.11,-2.82,-0.50,1.46,
0.804,-0.43,-0.11,1.11,-2.90,-0.40,1.49,
0.812,-0.43,-0.10,1.10,-2.90,-0.40,1.49,
0.812,-0.43,-0.09,1.11,-2.90,-0.40,1.49,
0.813,-0.43,-0.09,1.11,-2.98,-0.23,1.51,
0.813,-0.44,-0.08,1.10,-2.98,-0.23,1.51,
0.814,-0.44,-0.08,1.10,-3.04,-0.05,1.47,
0.814,-0.44,-0.07,1.10,-3.04,-0.05,1.47,
0.816,-0.44,-0.07,1.09,-3.04,-0.05,1.47,
0.819,-0.43,-0.05,1.08,-3.04,-0.05,1.47,
0.821,-0.43,-0.05,1.08,-3.07,0.19,1.43,
0.822,-0.44,-0.05,1.07,-3.07,0.19,1.43,
0.83,-0.44,-0.05,1.06,-3.07,0.19,1.43,
0.831,-0.44,-0.05,1.06,-3.03,0.32,1.28,
0.831,-0.44,-0.04,1.06,-3.03,0.32,1.28,
0.831,-0.44,-0.04,1.06,-3.09,0.47,1.12,
0.831,-0.44,-0.04,1.05,-3.09,0.47,1.12,
0.831,-0.44,-0.04,1.04,-3.09,0.47,1.12,
0.833,-0.45,-0.04,1.03,-3.09,0.47,1.12,
0.834,-0.45,-0.04,1.03,-3.07,0.59,0.98,
0.836,-0.44,-0.04,1.03,-3.07,0.59,0.98,
0.838,-0.44,-0.04,1.03,-3.08,0.59,0.82,
0.838,-0.45,-0.04,1.02,-3.08,0.59,0.82,
0.845,-0.44,-0.05,1.02,-3.08,0.59,0.82,
0.846,-0.44,-0.05,1.02,-3.08,0.59,0.82,
0.846,-0.44,-0.05,1.02,-3.08,0.59,0.70,
0.846,-0.44,-0.06,1.02,-3.08,0.59,0.70,
0.848,-0.44,-0.06,1.02,-3.08,0.59,0.70,
0.848,-0.44,-0.06,1.02,-3.03,0.53,0.65,
0.851,-0.44,-0.07,1.02,-3.03,0.53,0.65,
0.853,-0.44,-0.07,1.02,-2.98,0.46,0.60,
0.853,-0.43,-0.08,1.01,-2.98,0.46,0.60,
0.855,-0.43,-0.09,1.02,-2.98,0.46,0.60,
0.868,-0.43,-0.09,1.02,-2.95,0.35,0.58,
0.868,-0.43,-0.10,1.01,-2.95,0.35,0.58,
0.869,-0.42,-0.11,1.02,-2.95,0.35,0.58,
0.869,-0.42,-0.11,1.02,-2.86,0.20,0.60,
0.869,-0.41,-0.12,1.03,-2.86,0.20,0.60,
0.87,-0.41,-0.13,1.04,-2.86,0.20,0.60,
0.87,-0.40,-0.14,1.05,-2.86,0.20,0.60,
0.87,-0.40,-0.14,1.05,-2.74,-0.00,0.69,
0.87,-0.39,-0.15,1.06,-2.74,-0.00,0.69,
0.881,-0.39,-0.15,1.07,-2.74,-0.00,0.69,
0.881,-0.39,-0.15,1.07,-2.60,-0.17,0.85,
0.882,-0.37,-0.16,1.08,-2.60,-0.17,0.85,
0.882,-0.35,-0.16,1.09,-2.60,-0.17,0.85,
0.882,-0.35,-0.16,1.09,-2.41,-0.32,1.05,
0.882,-0.34,-0.17,1.10,-2.41,-0.32,1.05,
0.883,-0.32,-0.16,1.11,-2.41,-0.32,1.05,
0.883,-0.32,-0.16,1.11,-2.10,-0.36,1.25,
0.885,-0.31,-0.16,1.12,-2.10,-0.36,1.25,
0.888,-0.31,-0.16,1.12,-1.77,-0.37,1.48,
0.888,-0.30,-0.16,1.13,-1.77,-0.37,1.48,
0.899,-0.29,-0.16,1.13,-1.77,-0.37,1.48,
0.899,-0.28,-0.16,1.13,-1.77,-0.37,1.48,
0.9,-0.28,-0.16,1.13,-1.48,-0.30,1.69,
0.9,-0.28,-0.15,1.13,-1.48,-0.30,1.69,
0.9,-0.28,-0.15,1.14,-1.48,-0.30,1.69,
0.9,-0.28,-0.15,1.14,-1.26,-0.25,1.75,
0.9,-0.27,-0.15,1.15,-1.26,-0.25,1.75,
0.904,-0.27,-0.15,1.14,-1.26,-0.25,1.75,
0.904,-0.27,-0.15,1.14,-1.17,-0.15,1.82,
0.905,-0.27,-0.15,1.14,-1.17,-0.15,1.82,
0.913,-0.27,-0.14,1.14,-1.17,-0.15,1.82,
0.913,-0.27,-0.14,1.14,-1.06,-0.10,1.86,
0.914,-0.27,-0.14,1.15,-1.06,-0.10,1.86,
0.914,-0.27,-0.14,1.15,-0.99,-0.04,1.85,
0.914,-0.27,-0.14,1.15,-0.99,-0.04,1.85,
0.915,-0.27,-0.13,1.15,-0.99,-0.04,1.85,
0.917,-0.27,-0.13,1.15,-1.00,0.03,1.91,
0.918,-0.27,-0.14,1.14,-1.00,0.03,1.91,
0.92,-0.28,-0.14,1.13,-1.00,0.03,1.91,
0.922,-0.28,-0.14,1.11,-1.00,0.03,1.91,
0.923,-0.28,-0.14,1.11,-1.00,0.09,1.87,
0.929,-0.29,-0.15,1.10,-1.00,0.09,1.87,
0.93,-0.29,-0.16,1.09,-1.00,0.09,1.87,
0.93,-0.29,-0.16,1.09,-1.01,0.05,1.65,
0.93,-0.30,-0.17,1.08,-1.01,0.05,1.65,
0.932,-0.30,-0.17,1.07,-1.01,0.05,1.65,
0.933,-0.30,-0.17,1.07,-1.14,-0.07,1.42,
0.935,-0.30,-0.18,1.06,-1.14,-0.07,1.42,
0.937,-0.30,-0.18,1.06,-1.18,-0.21,1.18,
0.937,-0.30,-0.19,1.07,-1.18,-0.21,1.18,
0.947,-0.30,-0.19,1.06,-1.18,-0.21,1.18,
0.948,-0.31,-0.20,1.06,-1.18,-0.21,1.18,
0.948,-0.31,-0.20,1.06,-1.20,-0.32,1.09,
0.948,-0.31,-0.20,1.07,-1.20,-0.32,1.09,
0.949,-0.31,-0.21,1.07,-1.20,-0.32,1.09,
0.949,-0.31,-0.21,1.07,-1.25,-0.42,1.04,
0.949,-0.31,-0.21,1.08,-1.25,-0.42,1.04,
0.952,-0.31,-0.21,1.09,-1.25,-0.42,1.04,
0.952,-0.31,-0.21,1.09,-1.27,-0.49,1.13,
0.954,-0.31,-0.22,1.11,-1.27,-0.49,1.13,
0.968,-0.31,-0.22,1.13,-1.27,-0.49,1.13,
0.969,-0.31,-0.22,1.13,-1.26,-0.50,1.31,
0.97,-0.30,-0.23,1.15,-1.26,-0.50,1.31,
0.97,-0.30,-0.23,1.15,-1.25,-0.57,1.63,
0.97,-0.30,-0.23,1.17,-1.25,-0.57,1.63,
0.97,-0.30,-0.23,1.18,-1.25,-0.57,1.63,
0.97,-0.28,-0.24,1.19,-1.25,-0.57,1.63,
0.971,-0.28,-0.24,1.19,-1.16,-0.60,2.01,
0.971,-0.28,-0.25,1.20,-1.16,-0.60,2.01,
0.972,-0.28,-0.25,1.21,-1.16,-0.60,2.01,
0.972,-0.28,-0.25,1.21,-1.06,-0.64,2.29,
0.982,-0.27,-0.25,1.21,-1.06,-0.64,2.29,
0.982,-0.27,-0.25,1.21,-1.06,-0.64,2.29,
0.983,-0.27,-0.25,1.21,-0.95,-0.71,2.46,
0.983,-0.26,-0.24,1.21,-0.95,-0.71,2.46,
0.983,-0.26,-0.24,1.22,-0.95,-0.71,2.46,
0.983,-0.26,-0.24,1.22,-0.84,-0.71,2.52,
0.985,-0.25,-0.24,1.24,-0.84,-0.71,2.52,
0.988,-0.25,-0.24,1.24,-0.73,-0.62,2.55,
0.989,-0.25,-0.24,1.24,-0.73,-0.62,2.55,
0.99,-0.24,-0.24,1.24,-0.73,-0.62,2.55,
0.999,-0.23,-0.24,1.24,-0.73,-0.62,2.55,
1.0,-0.23,-0.24,1.24,-0.65,-0.59,2.80,
1.0,-0.23,-0.24,1.24,-0.65,-0.59,2.80,
1.001,-0.22,-0.24,1.24,-0.65,-0.59,2.80,
1.001,-0.22,-0.24,1.24,-0.52,-0.54,2.77,
1.001,-0.22,-0.24,1.24,-0.52,-0.54,2.77,
1.002,-0.21,-0.25,1.23,-0.52,-0.54,2.77,
1.002,-0.21,-0.25,1.23,-0.40,-0.52,2.79,
1.005,-0.22,-0.25,1.23,-0.40,-0.52,2.79,
1.007,-0.22,-0.24,1.21,-0.40,-0.52,2.79,
1.008,-0.22,-0.24,1.21,-0.31,-0.55,2.73,
1.015,-0.21,-0.24,1.19,-0.31,-0.55,2.73,
1.015,-0.21,-0.24,1.18,-0.31,-0.55,2.73,
1.016,-0.21,-0.24,1.18,-0.29,-0.55,2.57,
1.016,-0.21,-0.24,1.18,-0.29,-0.55,2.57,
1.016,-0.21,-0.23,1.16,-0.29,-0.55,2.57,
1.017,-0.21,-0.23,1.16,-0.23,-0.49,2.28,
1.019,-0.21,-0.22,1.15,-0.23,-0.49,2.28,
1.023,-0.21,-0.22,1.15,-0.21,-0.44,2.09,
1.023,-0.20,-0.21,1.14,-0.21,-0.44,2.09,
1.024,-0.20,-0.21,1.12,-0.21,-0.44,2.09,
1.03,-0.20,-0.20,1.12,-0.21,-0.44,2.09,
1.03,-0.20,-0.20,1.12,-0.17,-0.26,1.81,
1.03,-0.21,-0.19,1.10,-0.17,-0.26,1.81,
1.032,-0.20,-0.18,1.09,-0.17,-0.26,1.81,
1.032,-0.20,-0.18,1.09,-0.15,-0.15,1.58,
1.034,-0.21,-0.18,1.08,-0.15,-0.15,1.58,
1.037,-0.21,-0.18,1.08,-0.14,0.06,1.35,
1.037,-0.21,-0.17,1.08,-0.14,0.06,1.35,
1.039,-0.21,-0.16,1.08,-0.14,0.06,1.35,
1.046,-0.21,-0.16,1.08,-0.20,0.17,1.21,
1.046,-0.22,-0.16,1.06,-0.20,0.17,1.21,
1.047,-0.22,-0.16,1.05,-0.20,0.17,1.21,
1.047,-0.22,-0.16,1.05,-0.20,0.17,1.21,
1.047,-0.22,-0.16,1.05,-0.24,0.27,1.08,
1.049,-0.23,-0.17,1.05,-0.24,0.27,1.08,
1.052,-0.23,-0.17,1.05,-0.30,0.27,0.87,
1.052,-0.24,-0.17,1.04,-0.30,0.27,0.87,
1.054,-0.24,-0.17,1.04,-0.30,0.27,0.87,
1.057,-0.24,-0.17,1.04,-0.30,0.27,0.87,
1.057,-0.24,-0.17,1.04,-0.38,0.22,0.81,
1.063,-0.24,-0.18,1.04,-0.38,0.22,0.81,
1.064,-0.24,-0.18,1.04,-0.42,0.20,0.77,
1.064,-0.24,-0.18,1.03,-0.42,0.20,0.77,
1.064,-0.24,-0.18,1.03,-0.42,0.20,0.77,
1.067,-0.24,-0.18,1.03,-0.45,0.12,0.74,
1.067,-0.25,-0.19,1.04,-0.45,0.12,0.74,
1.069,-0.25,-0.19,1.04,-0.45,0.12,0.74,
1.072,-0.24,-0.20,1.04,-0.45,0.12,0.74,
1.072,-0.24,-0.20,1.04,-0.48,0.05,0.73,
1.074,-0.24,-0.20,1.04,-0.48,0.05,0.73,
1.085,-0.24,-0.20,1.04,-0.48,0.05,0.73,
1.085,-0.24,-0.20,1.04,-0.45,-0.01,0.77,
1.085,-0.24,-0.20,1.04,-0.45,-0.01,0.77,
1.086,-0.23,-0.20,1.04,-0.45,-0.01,0.77,
1.086,-0.23,-0.20,1.04,-0.37,-0.06,0.81,
1.086,-0.23,-0.20,1.03,-0.37,-0.06,0.81,
1.086,-0.23,-0.20,1.03,-0.33,-0.07,0.78,
1.087,-0.23,-0.21,1.04,-0.33,-0.07,0.78,
1.089,-0.23,-0.21,1.05,-0.33,-0.07,0.78,
1.098,-0.22,-0.20,1.06,-0.33,-0.07,0.78,
1.099,-0.22,-0.20,1.06,-0.30,-0.08,0.79,
1.099,-0.21,-0.21,1.08,-0.30,-0.08,0.79,
1.1,-0.21,-0.21,1.08,-0.22,-0.07,0.97,
1.1,-0.20,-0.21,1.09,-0.22,-0.07,0.97,
1.1,-0.19,-0.21,1.10,-0.22,-0.07,0.97,
1.102,-0.18,-0.22,1.10,-0.22,-0.07,0.97,
1.102,-0.18,-0.22,1.10,-0.04,-0.07,1.24,
1.104,-0.17,-0.22,1.12,-0.04,-0.07,1.24,
1.106,-0.16,-0.23,1.12,-0.04,-0.07,1.24,
1.107,-0.16,-0.23,1.12,0.19,-0.17,1.38,
1.118,-0.15,-0.23,1.13,0.19,-0.17,1.38,
1.119,-0.15,-0.23,1.13,0.37,-0.22,1.59,
1.119,-0.14,-0.23,1.13,0.37,-0.22,1.59,
1.119,-0.13,-0.23,1.13,0.37,-0.22,1.59,
1.12,-0.12,-0.23,1.14,0.37,-0.22,1.59,
1.12,-0.12,-0.23,1.14,0.56,-0.27,1.69,
1.12,-0.12,-0.23,1.14,0.56,-0.27,1.69,
1.121,-0.11,-0.23,1.15,0.56,-0.27,1.69,
1.121,-0.11,-0.23,1.15,0.76,-0.23,1.72,
1.123,-0.10,-0.22,1.16,0.76,-0.23,1.72,
1.132,-0.10,-0.22,1.16,0.76,-0.23,1.72,
1.133,-0.10,-0.22,1.16,0.86,-0.20,1.83,
1.133,-0.09,-0.22,1.16,0.86,-0.20,1.83,
1.133,-0.09,-0.23,1.16,0.86,-0.20,1.83,
1.134,-0.09,-0.23,1.16,0.98,-0.15,1.94,
1.134,-0.08,-0.23,1.16,0.98,-0.15,1.94,
1.135,-0.08,-0.23,1.16,1.11,-0.18,1.96,
1.135,-0.08,-0.23,1.15,1.11,-0.18,1.96,
1.138,-0.08,-0.24,1.14,1.11,-0.18,1.96,
1.14,-0.08,-0.24,1.14,1.11,-0.18,1.96,
1.14,-0.08,-0.24,1.14,1.14,-0.21,1.89,
1.149,-0.08,-0.25,1.12,1.14,-0.21,1.89,
1.15,-0.09,-0.24,1.12,1.14,-0.21,1.89,
1.15,-0.09,-0.24,1.12,1.14,-0.30,1.75,
1.15,-0.10,-0.24,1.10,1.14,-0.30,1.75,
1.153,-0.10,-0.24,1.10,1.14,-0.30,1.75,
1.153,-0.10,-0.24,1.10,1.07,-0.36,1.52,
1.153,-0.10,-0.24,1.08,1.07,-0.36,1.52,
1.155,-0.11,-0.24,1.07,1.07,-0.36,1.52,
1.155,-0.11,-0.24,1.07,0.97,-0.34,1.34,
1.166,-0.11,-0.23,1.07,0.97,-0.34,1.34,
1.167,-0.11,-0.22,1.06,0.97,-0.34,1.34,
1.167,-0.11,-0.22,1.06,0.91,-0.29,1.12,
1.167,-0.12,-0.22,1.06,0.91,-0.29,1.12,
1.168,-0.12,-0.21,1.05,0.91,-0.29,1.12,
1.168,-0.12,-0.21,1.05,0.80,-0.16,1.01,
1.168,-0.12,-0.21,1.06,0.80,-0.16,1.01,
1.17,-0.13,-0.21,1.06,0.80,-0.16,1.01,
1.17,-0.13,-0.21,1.06,0.75,-0.06,0.89,
1.172,-0.13,-0.21,1.05,0.75,-0.06,0.89,
1.187,-0.13,-0.22,1.05,0.75,-0.06,0.89,
1.189,-0.13,-0.22,1.05,0.66,-0.04,0.90,
1.189,-0.13,-0.22,1.05,0.66,-0.04,0.90,
1.189,-0.13,-0.22,1.06,0.66,-0.04,0.90,
1.189,-0.13,-0.22,1.06,0.62,-0.07,0.87,
1.19,-0.12,-0.23,1.06,0.62,-0.07,0.87,
1.19,-0.12,-0.23,1.06,0.63,-0.16,0.89,
1.19,-0.11,-0.23,1.06,0.63,-0.16,0.89,
1.19,-0.11,-0.24,1.07,0.63,-0.16,0.89,
1.201,-0.10,-0.24,1.07,0.63,-0.16,0.89,
1.202,-0.10,-0.24,1.07,0.73,-0.25,0.95,
1.203,-0.09,-0.25,1.08,0.73,-0.25,0.95,
1.203,-0.08,-0.25,1.08,0.73,-0.25,0.95,
1.203,-0.08,-0.25,1.08,0.88,-0.33,0.99,
1.203,-0.07,-0.25,1.10,0.88,-0.33,0.99,
1.203,-0.06,-0.25,1.11,0.88,-0.33,0.99,
1.204,-0.06,-0.25,1.11,1.03,-0.41,1.12,
1.204,-0.05,-0.26,1.13,1.03,-0.41,1.12,
1.205,-0.05,-0.26,1.14,1.03,-0.41,1.12,
1.205,-0.05,-0.26,1.14,1.20,-0.43,1.36,
1.218,-0.04,-0.26,1.16,1.20,-0.43,1.36,
1.219,-0.03,-0.27,1.17,1.20,-0.43,1.36,
1.22,-0.03,-0.27,1.17,1.38,-0.49,1.64,
1.22,-0.02,-0.27,1.19,1.38,-0.49,1.64,
1.22,-0.01,-0.27,1.20,1.38,-0.49,1.64,
1.22,-0.01,-0.27,1.20,1.51,-0.55,1.93,
1.221,-0.00,-0.28,1.22,1.51,-0.55,1.93,
1.221,0.01,-0.29,1.23,1.51,-0.55,1.93,
1.221,0.01,-0.29,1.23,1.74,-0.62,2.24,
1.222,0.01,-0.29,1.23,1.74,-0.62,2.24,
1.232,0.01,-0.30,1.23,1.74,-0.62,2.24,
1.233,0.01,-0.30,1.23,1.90,-0.74,2.52,
1.233,0.01,-0.30,1.23,1.90,-0.74,2.52,
1.234,0.02,-0.29,1.22,1.90,-0.74,2.52,
1.234,0.02,-0.29,1.22,1.94,-0.82,2.54,
1.234,0.01,-0.30,1.23,1.94,-0.82,2.54,
1.234,0.01,-0.30,1.23,2.02,-0.85,2.51,
1.235,0.02,-0.30,1.24,2.02,-0.85,2.51,
1.237,0.02,-0.30,1.25,2.02,-0.85,2.51,
1.239,0.02,-0.30,1.25,2.06,-0.88,2.59,
1.239,0.02,-0.30,1.25,2.06,-0.88,2.59,
1.25,0.02,-0.30,1.25,2.06,-0.88,2.59,
1.251,0.02,-0.30,1.25,2.06,-0.88,2.59,
1.251,0.02,-0.30,1.25,2.09,-0.90,2.75,
1.251,0.02,-0.30,1.25,2.09,-0.90,2.75,
1.252,0.02,-0.31,1.25,2.09,-0.90,2.75,
1.252,0.02,-0.31,1.25,2.15,-0.93,2.72,
1.252,0.02,-0.31,1.25,2.15,-0.93,2.72,
1.254,0.02,-0.31,1.25,2.13,-0.95,2.72,
1.254,0.02,-0.31,1.25,2.13,-0.95,2.72,
1.256,0.02,-0.31,1.24,2.13,-0.95,2.72,
1.265,0.02,-0.31,1.24,2.11,-1.06,2.70,
1.265,0.03,-0.32,1.24,2.11,-1.06,2.70,
1.266,0.03,-0.31,1.22,2.11,-1.06,2.70,
1.266,0.02,-0.31,1.22,2.11,-1.06,2.70,
1.266,0.02,-0.31,1.22,2.16,-1.09,2.58,
1.266,0.02,-0.32,1.22,2.16,-1.09,2.58,
1.269,0.03,-0.31,1.21,2.16,-1.09,2.58,
1.269,0.03,-0.31,1.21,2.13,-1.10,2.39,
1.271,0.03,-0.31,1.20,2.13,-1.10,2.39,
1.283,0.03,-0.31,1.18,2.13,-1.10,2.39,
1.283,0.03,-0.31,1.18,2.13,-1.13,2.30,
1.284,0.03,-0.30,1.19,2.13,-1.13,2.30,
1.284,0.04,-0.30,1.18,2.13,-1.13,2.30,
1.284,0.04,-0.30,1.18,2.15,-1.11,2.06,
1.284,0.04,-0.30,1.17,2.15,-1.11,2.06,
1.285,0.04,-0.30,1.17,2.24,-1.06,1.97,
1.285,0.05,-0.30,1.16,2.24,-1.06,1.97,
1.286,0.05,-0.30,1.16,2.24,-1.06,1.97,
1.289,0.06,-0.30,1.16,2.24,-1.06,1.97,
1.289,0.06,-0.30,1.16,2.29,-1.07,1.80,
1.291,0.06,-0.30,1.16,2.29,-1.07,1.80,
1.307,0.06,-0.30,1.16,2.29,-1.07,1.80,
1.308,0.06,-0.30,1.16,2.35,-1.08,1.71,
1.308,0.07,-0.30,1.16,2.35,-1.08,1.71,
1.309,0.07,-0.30,1.17,2.35,-1.08,1.71,
1.309,0.07,-0.30,1.17,2.37,-1.08,1.75,
1.309,0.07,-0.30,1.17,2.37,-1.08,1.75,
1.309,0.08,-0.30,1.18,2.37,-1.08,1.75,
1.31,0.08,-0.30,1.18,2.44,-1.10,1.77,
1.31,0.08,-0.29,1.17,2.44,-1.10,1.77,
1.31,0.08,-0.29,1.17,2.48,-1.10,1.81,
1.311,0.09,-0.29,1.18,2.48,-1.10,1.81,
1.311,0.09,-0.28,1.18,2.48,-1.10,1.81,
1.313,0.09,-0.27,1.18,2.48,-1.10,1.81,
1.316,0.09,-0.27,1.18,2.55,-1.04,1.83,
1.316,0.09,-0.27,1.17,2.55,-1.04,1.83,
1.319,0.09,-0.26,1.17,2.55,-1.04,1.83,
1.319,0.09,-0.26,1.17,2.61,-0.94,1.83,
1.321,0.09,-0.26,1.17,2.61,-0.94,1.83,
1.323,0.09,-0.26,1.16,2.61,-0.94,1.83,
1.324,0.09,-0.26,1.16,2.58,-0.87,1.77,
1.327,0.08,-0.25,1.15,2.58,-0.87,1.77,
1.329,0.07,-0.25,1.15,2.58,-0.87,1.77,
1.33,0.07,-0.25,1.15,2.54,-0.81,1.69,
1.331,0.07,-0.24,1.14,2.54,-0.81,1.69,
1.335,0.07,-0.24,1.14,2.40,-0.76,1.56,
1.335,0.07,-0.24,1.13,2.40,-0.76,1.56,
1.336,0.06,-0.23,1.13,2.40,-0.76,1.56,
1.339,0.06,-0.23,1.13,2.40,-0.76,1.56,
1.339,0.06,-0.23,1.13,2.32,-0.69,1.41,
1.341,0.05,-0.23,1.13,2.32,-0.69,1.41,
1.343,0.05,-0.22,1.12,2.32,-0.69,1.41,
1.344,0.05,-0.22,1.12,2.24,-0.64,1.31,
1.346,0.04,-0.22,1.12,2.24,-0.64,1.31,
1.348,0.04,-0.22,1.11,2.24,-0.64,1.31,
1.348,0.04,-0.22,1.11,2.12,-0.61,1.24,
1.351,0.04,-0.21,1.10,2.12,-0.61,1.24,
1.354,0.03,-0.21,1.10,2.12,-0.61,1.24,
1.354,0.03,-0.21,1.10,2.03,-0.57,1.14,
1.356,0.03,-0.21,1.10,2.03,-0.57,1.14,
1.358,0.03,-0.21,1.10,1.95,-0.56,1.03,
1.358,0.03,-0.21,1.10,1.95,-0.56,1.03,
1.361,0.03,-0.21,1.09,1.95,-0.56,1.03,
1.363,0.03,-0.21,1.09,1.91,-0.54,0.97,
1.363,0.02,-0.21,1.08,1.91,-0.54,0.97,
1.365,0.02,-0.21,1.08,1.91,-0.54,0.97,
1.369,0.02,-0.21,1.08,1.91,-0.54,0.97,
1.369,0.02,-0.21,1.08,1.84,-0.55,0.86,
1.371,0.02,-0.21,1.08,1.84,-0.55,0.86,
1.373,0.01,-0.21,1.08,1.84,-0.55,0.86,
1.374,0.01,-0.21,1.08,1.76,-0.60,0.81,
1.378,0.01,-0.21,1.08,1.76,-0.60,0.81,
1.378,0.01,-0.21,1.09,1.76,-0.60,0.81,
1.378,0.01,-0.21,1.09,1.68,-0.64,0.79,
1.38,0.02,-0.21,1.10,1.68,-0.64,0.79,
1.383,0.02,-0.21,1.10,1.65,-0.65,0.84,
1.384,0.01,-0.21,1.10,1.65,-0.65,0.84,
1.386,0.02,-0.20,1.10,1.65,-0.65,0.84,
1.388,0.02,-0.20,1.11,1.65,-0.65,0.84,
1.388,0.02,-0.20,1.11,1.65,-0.66,0.94,
1.391,0.03,-0.20,1.12,1.65,-0.66,0.94,
1.397,0.03,-0.20,1.13,1.65,-0.66,0.94,
1.397,0.03,-0.20,1.13,1.68,-0.63,1.03,
1.398,0.03,-0.20,1.13,1.68,-0.63,1.03,
1.398,0.03,-0.21,1.14,1.68,-0.63,1.03,
1.398,0.03,-0.21,1.14,1.73,-0.64,1.19,
1.401,0.04,-0.21,1.14,1.73,-0.64,1.19,
1.403,0.04,-0.21,1.14,1.73,-0.64,1.19,
1.403,0.04,-0.21,1.14,1.73,-0.69,1.29,
1.406,0.04,-0.21,1.14,1.73,-0.69,1.29,
1.408,0.04,-0.21,1.14,1.79,-0.74,1.30,
1.408,0.04,-0.21,1.13,1.79,-0.74,1.30,
1.411,0.05,-0.20,1.13,1.79,-0.74,1.30,
1.413,0.05,-0.20,1.11,1.79,-0.74,1.30,
1.413,0.05,-0.20,1.11,1.82,-0.77,1.24,
1.416,0.05,-0.19,1.10,1.82,-0.77,1.24,
1.418,0.06,-0.19,1.10,1.82,-0.77,1.24,
1.418,0.06,-0.19,1.10,1.87,-0.73,1.06,
1.421,0.06,-0.18,1.10,1.87,-0.73,1.06,
1.423,0.06,-0.17,1.11,1.87,-0.73,1.06,
1.423,0.06,-0.17,1.11,1.90,-0.68,0.87,
1.425,0.06,-0.17,1.10,1.90,-0.68,0.87,
1.428,0.06,-0.16,1.09,1.90,-0.68,0.87,
1.428,0.06,-0.16,1.09,1.89,-0.57,0.91,
1.43,0.05,-0.15,1.09,1.89,-0.57,0.91,
1.433,0.05,-0.15,1.09,1.90,-0.47,0.84,
1.433,0.05,-0.15,1.08,1.90,-0.47,0.84,
1.436,0.05,-0.15,1.08,1.90,-0.47,0.84,
1.438,0.05,-0.15,1.08,1.90,-0.47,0.84,
1.438,0.05,-0.15,1.08,1.83,-0.43,0.73,
1.44,0.05,-0.14,1.07,1.83,-0.43,0.73,
1.445,0.05,-0.15,1.06,1.83,-0.43,0.73,
1.445,0.05,-0.15,1.06,1.80,-0.43,0.63,
1.445,0.06,-0.14,1.05,1.80,-0.43,0.63,
1.447,0.06,-0.14,1.05,1.80,-0.43,0.63,
1.448,0.06,-0.14,1.05,1.81,-0.41,0.50,
1.45,0.06,-0.13,1.04,1.81,-0.41,0.50,
1.453,0.06,-0.13,1.04,1.84,-0.39,0.38,
1.453,0.05,-0.12,1.05,1.84,-0.39,0.38,
1.455,0.05,-0.12,1.05,1.84,-0.39,0.38,
1.458,0.05,-0.12,1.05,1.78,-0.30,0.30,
1.458,0.05,-0.11,1.05,1.78,-0.30,0.30,
1.46,0.05,-0.11,1.05,1.78,-0.30,0.30,
1.462,0.05,-0.10,1.05,1.78,-0.30,0.30,
1.462,0.05,-0.10,1.05,1.75,-0.23,0.32,
1.465,0.05,-0.11,1.04,1.75,-0.23,0.32,
1.468,0.05,-0.11,1.04,1.72,-0.19,0.31,
1.468,0.05,-0.10,1.04,1.72,-0.19,0.31,
1.47,0.04,-0.10,1.04,1.72,-0.19,0.31,
1.473,0.04,-0.10,1.04,1.72,-0.19,0.31,
1.473,0.04,-0.10,1.04,1.66,-0.21,0.23,
1.475,0.04,-0.10,1.04,1.66,-0.21,0.23,
1.481,0.04,-0.10,1.04,1.66,-0.21,0.23,
1.482,0.04,-0.10,1.04,1.62,-0.21,0.25,
1.484,0.03,-0.10,1.04,1.62,-0.21,0.25,
1.484,0.03,-0.10,1.04,1.55,-0.24,0.19,
1.485,0.02,-0.10,1.03,1.55,-0.24,0.19,
1.485,0.02,-0.09,1.01,1.55,-0.24,0.19,
1.487,0.02,-0.09,0.99,1.55,-0.24,0.19,
1.487,0.02,-0.09,0.99,1.40,-0.24,0.18,
1.489,0.03,-0.08,0.99,1.40,-0.24,0.18,
1.492,0.02,-0.08,1.00,1.40,-0.24,0.18,
1.492,0.02,-0.08,1.00,1.35,-0.22,-0.19,
1.495,0.01,-0.08,1.01,1.35,-0.22,-0.19,
1.497,0.01,-0.08,1.00,1.35,-0.22,-0.19,
1.497,0.01,-0.08,1.00,1.31,-0.18,-0.23,
1.499,0.01,-0.08,0.99,1.31,-0.18,-0.23,
1.502,0.00,-0.08,0.98,1.31,-0.18,-0.23,
1.502,0.00,-0.08,0.98,1.19,-0.18,-0.17,
1.504,0.00,-0.07,0.99,1.19,-0.18,-0.17,
1.506,0.01,-0.08,0.97,1.19,-0.18,-0.17,
1.507,0.01,-0.08,0.97,1.10,-0.19,-0.34,
1.51,0.01,-0.08,0.97,1.10,-0.19,-0.34,
1.512,0.00,-0.08,0.96,1.10,-0.19,-0.34,
1.513,0.00,-0.08,0.96,1.06,-0.20,-0.39,
1.514,0.00,-0.07,0.95,1.06,-0.20,-0.39,
1.517,-0.00,-0.07,0.95,1.06,-0.20,-0.39,
1.517,-0.00,-0.07,0.95,1.04,-0.25,-0.55,
1.519,-0.00,-0.07,0.94,1.04,-0.25,-0.55,
1.522,-0.00,-0.06,0.93,1.04,-0.25,-0.55,
1.522,-0.00,-0.06,0.93,0.98,-0.26,-0.67,
1.524,0.00,-0.06,0.92,0.98,-0.26,-0.67,
1.528,-0.00,-0.05,0.92,0.98,-0.26,-0.67,
1.528,-0.00,-0.05,0.92,0.93,-0.21,-0.83,
1.529,0.00,-0.05,0.92,0.93,-0.21,-0.83,
1.532,-0.00,-0.04,0.93,0.93,-0.21,-0.83,
1.532,-0.00,-0.04,0.93,0.93,-0.16,-0.94,
1.534,-0.00,-0.04,0.92,0.93,-0.16,-0.94,
1.536,-0.00,-0.04,0.92,0.93,-0.16,-0.94,
1.536,-0.00,-0.04,0.92,0.93,-0.11,-0.93,
1.538,0.00,-0.04,0.92,0.93,-0.11,-0.93,
1.543,0.00,-0.04,0.92,0.90,-0.08,-0.96,
1.544,0.00,-0.04,0.92,0.90,-0.08,-0.96,
1.544,0.00,-0.05,0.93,0.90,-0.08,-0.96,
1.546,0.00,-0.05,0.93,0.90,-0.08,-0.96,
1.546,0.00,-0.05,0.93,0.92,-0.12,-1.01,
1.548,0.00,-0.06,0.93,0.92,-0.12,-1.01,
1.551,0.00,-0.06,0.94,0.92,-0.12,-1.01,
1.551,0.00,-0.06,0.94,0.89,-0.19,-0.91,
1.553,0.01,-0.06,0.94,0.89,-0.19,-0.91,
1.556,0.01,-0.06,0.94,0.88,-0.31,-0.85,
1.556,0.01,-0.06,0.95,0.88,-0.31,-0.85,
1.558,0.01,-0.06,0.96,0.88,-0.31,-0.85,
1.563,0.01,-0.06,0.96,0.88,-0.31,-0.85,
1.564,0.01,-0.06,0.96,0.94,-0.39,-0.73,
1.564,0.01,-0.06,0.97,0.94,-0.39,-0.73,
1.566,0.02,-0.06,0.98,0.94,-0.39,-0.73,
1.566,0.02,-0.06,0.98,0.94,-0.42,-0.59,
1.568,0.02,-0.06,0.98,0.94,-0.42,-0.59,
1.571,0.02,-0.06,0.97,0.94,-0.42,-0.59,
1.571,0.02,-0.06,0.97,0.97,-0.42,-0.48,
1.573,0.02,-0.06,0.97,0.97,-0.42,-0.48,
1.578,0.02,-0.06,0.97,0.97,-0.42,-0.48,
1.578,0.02,-0.06,0.97,0.99,-0.44,-0.43,
1.579,0.01,-0.07,0.97,0.99,-0.44,-0.43,
1.581,0.01,-0.07,0.97,0.97,-0.45,-0.46,
1.581,0.02,-0.06,0.97,0.97,-0.45,-0.46,
1.583,0.02,-0.06,0.96,0.97,-0.45,-0.46,
1.586,0.02,-0.06,0.95,0.97,-0.45,-0.46,
1.586,0.02,-0.06,0.95,0.92,-0.53,-0.52,
1.588,0.02,-0.06,0.96,0.92,-0.53,-0.52,
1.591,0.01,-0.06,0.95,0.92,-0.53,-0.52,
1.591,0.01,-0.06,0.95,0.94,-0.51,-0.60,
1.594,0.02,-0.06,0.94,0.94,-0.51,-0.60,
1.596,0.01,-0.06,0.94,0.94,-0.51,-0.60,
1.596,0.01,-0.06,0.94,0.87,-0.54,-0.65,
1.598,0.02,-0.06,0.94,0.87,-0.54,-0.65,
1.601,0.01,-0.05,0.94,0.87,-0.54,-0.65,
1.601,0.01,-0.05,0.94,0.86,-0.54,-0.77,
1.603,0.01,-0.05,0.94,0.86,-0.54,-0.77,
1.605,0.01,-0.05,0.94,0.82,-0.51,-0.79,
1.606,0.01,-0.05,0.94,0.82,-0.51,-0.79,
1.608,0.00,-0.05,0.93,0.82,-0.51,-0.79,
1.617,-0.00,-0.05,0.93,0.82,-0.51,-0.79,
1.618,-0.00,-0.05,0.93,0.78,-0.50,-0.84,
1.618,-0.00,-0.05,0.93,0.78,-0.50,-0.84,
1.618,-0.00,-0.04,0.92,0.78,-0.50,-0.84,
1.619,-0.00,-0.04,0.92,0.65,-0.53,-0.87,
1.619,-0.00,-0.05,0.92,0.65,-0.53,-0.87,
1.621,-0.00,-0.05,0.92,0.65,-0.53,-0.87,
1.621,-0.00,-0.05,0.92,0.61,-0.51,-0.94,
1.623,-0.01,-0.05,0.93,0.61,-0.51,-0.94,
1.625,-0.01,-0.05,0.93,0.61,-0.51,-0.94,
1.626,-0.01,-0.05,0.93,0.58,-0.53,-0.96,
1.629,-0.01,-0.04,0.93,0.58,-0.53,-0.96,
1.631,-0.01,-0.04,0.93,0.52,-0.53,-0.92,
1.632,-0.01,-0.05,0.93,0.52,-0.53,-0.92,
1.633,-0.00,-0.05,0.94,0.52,-0.53,-0.92,
1.636,-0.00,-0.05,0.95,0.52,-0.53,-0.92,
1.637,-0.00,-0.05,0.95,0.50,-0.55,-0.86,
1.638,-0.00,-0.05,0.96,0.50,-0.55,-0.86,
1.641,-0.00,-0.05,0.97,0.50,-0.55,-0.86,
1.641,-0.00,-0.05,0.97,0.53,-0.59,-0.74,
1.643,0.01,-0.05,0.98,0.53,-0.59,-0.74,
1.645,0.01,-0.05,0.98,0.53,-0.64,-0.54,
1.646,0.01,-0.06,0.99,0.53,-0.64,-0.54,
1.65,0.01,-0.06,1.00,0.53,-0.64,-0.54,
1.651,0.02,-0.06,1.00,0.53,-0.64,-0.54,
1.651,0.02,-0.06,1.00,0.62,-0.68,-0.36,
1.653,0.03,-0.06,1.01,0.62,-0.68,-0.36,
1.655,0.03,-0.06,1.01,0.66,-0.76,-0.22,
1.656,0.03,-0.06,1.02,0.66,-0.76,-0.22,
1.657,0.03,-0.06,1.02,0.66,-0.76,-0.22,
1.661,0.04,-0.06,1.01,0.66,-0.76,-0.22,
1.663,0.04,-0.06,1.01,0.76,-0.75,-0.02,
1.663,0.05,-0.05,1.01,0.76,-0.75,-0.02,
1.665,0.05,-0.05,1.01,0.77,-0.77,-0.03,
1.666,0.05,-0.05,1.01,0.77,-0.77,-0.03,
1.668,0.05,-0.06,1.03,0.77,-0.77,-0.03,
1.671,0.05,-0.06,1.03,0.77,-0.77,-0.03,
1.671,0.05,-0.06,1.03,0.97,-0.72,-0.11,
1.673,0.05,-0.05,1.03,0.97,-0.72,-0.11,
1.676,0.05,-0.05,1.03,0.97,-0.72,-0.11,
1.676,0.05,-0.05,1.03,0.96,-0.76,0.09,
1.677,0.05,-0.06,1.02,0.96,-0.76,0.09,
1.681,0.05,-0.06,1.02,0.94,-0.76,0.07,
1.681,0.05,-0.05,1.03,0.94,-0.76,0.07,
1.683,0.06,-0.06,1.02,0.94,-0.76,0.07,
1.686,0.06,-0.05,1.01,0.94,-0.76,0.07,
1.686,0.06,-0.05,1.01,0.94,-0.79,0.05,
1.688,0.07,-0.05,1.01,0.94,-0.79,0.05,
1.691,0.06,-0.04,1.00,0.94,-0.79,0.05,
1.691,0.06,-0.04,1.00,0.99,-0.81,-0.03,
1.693,0.07,-0.04,0.98,0.99,-0.81,-0.03,
1.699,0.07,-0.03,0.98,0.99,-0.81,-0.03,
1.7,0.07,-0.03,0.98,1.04,-0.76,-0.18,
1.7,0.06,-0.03,0.97,1.04,-0.76,-0.18,
1.7,0.06,-0.03,0.96,1.04,-0.76,-0.18,
1.7,0.06,-0.03,0.96,1.03,-0.72,-0.37,
1.702,0.06,-0.02,0.94,1.03,-0.72,-0.37,
1.705,0.06,-0.02,0.94,0.93,-0.64,-0.57,
1.705,0.05,-0.01,0.92,0.93,-0.64,-0.57,
1.707,0.04,-0.01,0.91,0.93,-0.64,-0.57,
1.71,0.04,-0.00,0.89,0.93,-0.64,-0.57,
1.711,0.04,-0.00,0.89,0.89,-0.55,-0.87,
1.713,0.04,0.00,0.88,0.89,-0.55,-0.87,
1.715,0.04,0.01,0.87,0.89,-0.55,-0.87,
1.715,0.04,0.01,0.87,0.75,-0.51,-1.19,
1.717,0.04,0.02,0.86,0.75,-0.51,-1.19,
1.72,0.04,0.02,0.85,0.75,-0.51,-1.19,
1.72,0.04,0.02,0.85,0.73,-0.43,-1.40,
1.722,0.04,0.02,0.84,0.73,-0.43,-1.40,
1.725,0.04,0.02,0.83,0.73,-0.43,-1.40,
1.725,0.04,0.02,0.83,0.69,-0.34,-1.61,
1.727,0.04,0.03,0.83,0.69,-0.34,-1.61,
1.73,0.04,0.03,0.83,0.71,-0.33,-1.80,
1.73,0.05,0.02,0.83,0.71,-0.33,-1.80,
1.732,0.05,0.02,0.83,0.71,-0.33,-1.80,
1.735,0.05,0.02,0.83,0.71,-0.33,-1.80,
1.735,0.05,0.02,0.83,0.74,-0.37,-1.85,
1.738,0.06,0.02,0.83,0.74,-0.37,-1.85,
1.74,0.06,0.02,0.83,0.74,-0.37,-1.85,
1.74,0.06,0.02,0.83,0.78,-0.42,-1.83,
1.742,0.07,0.01,0.84,0.78,-0.42,-1.83,
1.746,0.07,0.01,0.84,0.86,-0.49,-1.82,
1.747,0.08,0.01,0.84,0.86,-0.49,-1.82,
1.747,0.08,0.02,0.85,0.86,-0.49,-1.82,
1.75,0.09,0.02,0.85,0.86,-0.49,-1.82,
1.75,0.09,0.02,0.85,0.97,-0.53,-1.70,
1.752,0.09,0.03,0.86,0.97,-0.53,-1.70,
1.755,0.09,0.03,0.86,1.08,-0.49,-1.60,
1.755,0.10,0.03,0.87,1.08,-0.49,-1.60,
1.757,0.10,0.03,0.88,1.08,-0.49,-1.60,
1.76,0.11,0.03,0.89,1.08,-0.49,-1.60,
1.76,0.11,0.03,0.89,1.19,-0.45,-1.43,
1.762,0.11,0.03,0.89,1.19,-0.45,-1.43,
1.764,0.12,0.03,0.89,1.19,-0.45,-1.43,
1.764,0.12,0.03,0.89,1.26,-0.44,-1.28,
1.767,0.11,0.03,0.89,1.26,-0.44,-1.28,
1.77,0.12,0.03,0.88,1.26,-0.44,-1.28,
1.77,0.12,0.03,0.88,1.30,-0.44,-1.22,
1.772,0.12,0.03,0.87,1.30,-0.44,-1.22,
1.775,0.12,0.03,0.89,1.30,-0.44,-1.22,
1.775,0.12,0.03,0.89,1.34,-0.44,-1.28,
1.777,0.12,0.03,0.90,1.34,-0.44,-1.28,
1.779,0.12,0.03,0.90,1.37,-0.43,-1.26,
1.78,0.12,0.02,0.90,1.37,-0.43,-1.26,
1.781,0.11,0.02,0.90,1.37,-0.43,-1.26,
1.784,0.11,0.01,0.89,1.37,-0.43,-1.26,
1.784,0.11,0.01,0.89,1.34,-0.53,-1.09,
1.786,0.10,0.01,0.90,1.34,-0.53,-1.09,
1.789,0.11,0.00,0.91,1.34,-0.53,-1.09,
1.789,0.11,0.00,0.91,1.24,-0.63,-1.14,
1.791,0.11,0.00,0.91,1.24,-0.63,-1.14,
1.795,0.11,0.00,0.91,1.19,-0.70,-1.08,
1.796,0.10,0.00,0.92,1.19,-0.70,-1.08,
1.796,0.10,0.00,0.92,1.19,-0.70,-1.08,
1.799,0.10,0.00,0.93,1.19,-0.70,-1.08,
1.799,0.10,0.00,0.93,1.17,-0.73,-0.94,
1.801,0.09,0.00,0.94,1.17,-0.73,-0.94,
1.804,0.09,0.00,0.94,1.11,-0.73,-0.85,
1.805,0.09,-0.00,0.94,1.11,-0.73,-0.85,
1.806,0.08,0.00,0.94,1.11,-0.73,-0.85,
1.809,0.07,0.00,0.95,1.11,-0.73,-0.85,
1.812,0.07,0.00,0.95,1.00,-0.75,-0.68,
1.812,0.06,0.00,0.95,1.00,-0.75,-0.68,
1.815,0.05,0.01,0.93,1.00,-0.75,-0.68,
1.815,0.05,0.01,0.93,0.83,-0.74,-0.64,
1.816,0.05,0.01,0.93,0.83,-0.74,-0.64,
1.818,0.04,0.01,0.93,0.83,-0.74,-0.64,
1.819,0.04,0.01,0.93,0.63,-0.71,-0.68,
1.821,0.02,0.00,0.93,0.63,-0.71,-0.68,
1.824,0.02,0.00,0.93,0.63,-0.71,-0.68,
1.824,0.02,0.00,0.93,0.49,-0.69,-0.81,
1.826,0.01,0.00,0.92,0.49,-0.69,-0.81,
1.833,0.01,0.00,0.92,0.28,-0.72,-0.77,
1.834,-0.01,0.00,0.92,0.28,-0.72,-0.77,
1.834,-0.01,-0.00,0.91,0.28,-0.72,-0.77,
1.834,-0.01,-0.00,0.91,0.06,-0.75,-0.87,
1.836,-0.02,-0.00,0.91,0.06,-0.75,-0.87,
1.836,-0.02,-0.00,0.91,0.06,-0.75,-0.87,
1.838,-0.02,0.00,0.90,0.06,-0.75,-0.87,
1.839,-0.02,0.00,0.90,-0.08,-0.79,-0.96,
1.841,-0.02,0.01,0.89,-0.08,-0.79,-0.96,
1.843,-0.02,0.01,0.90,-0.08,-0.79,-0.96,
1.843,-0.02,0.01,0.90,-0.13,-0.79,-1.05,
1.845,-0.02,0.01,0.90,-0.13,-0.79,-1.05,
1.848,-0.02,0.02,0.90,-0.13,-0.79,-1.05,
1.849,-0.02,0.02,0.90,-0.14,-0.70,-1.09,
1.851,-0.02,0.02,0.90,-0.14,-0.70,-1.09,
1.853,-0.02,0.02,0.90,-0.12,-0.67,-1.06,
1.854,-0.01,0.03,0.90,-0.12,-0.67,-1.06,
1.855,-0.01,0.03,0.90,-0.12,-0.67,-1.06,
1.858,-0.01,0.03,0.91,-0.12,-0.67,-1.06,
1.858,-0.01,0.03,0.91,-0.10,-0.59,-1.05,
1.86,-0.01,0.03,0.90,-0.10,-0.59,-1.05,
1.863,-0.01,0.03,0.90,-0.10,-0.59,-1.05,
1.864,-0.01,0.03,0.90,-0.04,-0.55,-1.02,
1.865,0.00,0.04,0.90,-0.04,-0.55,-1.02,
1.868,0.01,0.04,0.91,-0.04,-0.55,-1.02,
1.868,0.01,0.04,0.91,-0.01,-0.52,-1.06,
1.87,0.01,0.03,0.91,-0.01,-0.52,-1.06,
1.873,0.01,0.04,0.91,-0.01,-0.52,-1.06,
1.873,0.01,0.04,0.91,0.10,-0.48,-1.03,
1.875,0.02,0.04,0.91,0.10,-0.48,-1.03,
1.881,0.02,0.04,0.91,0.16,-0.47,-0.97,
1.881,0.02,0.03,0.91,0.16,-0.47,-0.97,
1.882,0.03,0.04,0.91,0.16,-0.47,-0.97,
1.883,0.03,0.04,0.91,0.16,-0.47,-0.97,
1.883,0.03,0.04,0.91,0.25,-0.49,-0.95,
1.885,0.03,0.04,0.91,0.25,-0.49,-0.95,
1.888,0.03,0.04,0.90,0.25,-0.49,-0.95,
1.888,0.03,0.04,0.90,0.32,-0.47,-0.96,
1.89,0.04,0.04,0.89,0.32,-0.47,-0.96,
1.894,0.04,0.04,0.89,0.32,-0.47,-0.96,
1.894,0.04,0.04,0.89,0.35,-0.50,-1.01,
1.897,0.04,0.04,0.89,0.35,-0.50,-1.01,
1.898,0.04,0.04,0.89,0.35,-0.50,-1.01,
1.898,0.04,0.04,0.89,0.44,-0.49,-1.12,
1.9,0.04,0.04,0.89,0.44,-0.49,-1.12,
1.903,0.04,0.04,0.89,0.42,-0.51,-1.14,
1.903,0.04,0.03,0.89,0.42,-0.51,-1.14,
1.905,0.03,0.03,0.89,0.42,-0.51,-1.14,
1.908,0.02,0.03,0.88,0.42,-0.51,-1.14,
1.908,0.02,0.03,0.88,0.41,-0.52,-1.15,
1.91,0.02,0.03,0.88,0.41,-0.52,-1.15,
1.913,0.00,0.03,0.87,0.41,-0.52,-1.15,
1.913,0.00,0.03,0.87,0.28,-0.56,-1.21,
1.915,-0.00,0.02,0.87,0.28,-0.56,-1.21,
1.918,-0.01,0.02,0.86,0.28,-0.56,-1.21,
1.918,-0.01,0.02,0.86,0.14,-0.60,-1.26,
1.92,-0.02,0.02,0.87,0.14,-0.60,-1.26,
1.922,-0.02,0.02,0.86,0.14,-0.60,-1.26,
1.923,-0.02,0.02,0.86,-0.04,-0.65,-1.36,
1.925,-0.03,0.02,0.87,-0.04,-0.65,-1.36,
1.927,-0.03,0.02,0.87,-0.18,-0.69,-1.37,
1.933,-0.03,0.02,0.87,-0.18,-0.69,-1.37,
1.934,-0.04,0.02,0.87,-0.18,-0.69,-1.37,
1.934,-0.04,0.02,0.88,-0.18,-0.69,-1.37,
1.935,-0.04,0.02,0.88,-0.25,-0.66,-1.34,
1.935,-0.05,0.02,0.87,-0.25,-0.66,-1.34,
1.937,-0.06,0.02,0.89,-0.25,-0.66,-1.34,
1.938,-0.06,0.02,0.89,-0.37,-0.68,-1.27,
1.94,-0.06,0.03,0.90,-0.37,-0.68,-1.27,
1.942,-0.06,0.03,0.90,-0.37,-0.68,-1.27,
1.942,-0.06,0.03,0.90,-0.51,-0.67,-1.22,
1.946,-0.07,0.03,0.90,-0.51,-0.67,-1.22,
1.947,-0.07,0.03,0.92,-0.51,-0.67,-1.22,
1.948,-0.07,0.03,0.92,-0.57,-0.60,-1.01,
1.949,-0.07,0.04,0.92,-0.57,-0.60,-1.01,
1.952,-0.07,0.04,0.92,-0.63,-0.59,-0.89,
1.952,-0.07,0.04,0.92,-0.63,-0.59,-0.89,
1.955,-0.07,0.04,0.94,-0.63,-0.59,-0.89,
1.957,-0.07,0.03,0.94,-0.63,-0.59,-0.89,
1.958,-0.07,0.03,0.94,-0.64,-0.50,-0.78,
1.959,-0.07,0.04,0.95,-0.64,-0.50,-0.78,
1.963,-0.07,0.04,0.95,-0.64,-0.50,-0.78,
1.963,-0.07,0.04,0.95,-0.65,-0.51,-0.59,
1.965,-0.07,0.04,0.94,-0.65,-0.51,-0.59,
1.967,-0.07,0.04,0.94,-0.65,-0.51,-0.59,
1.967,-0.07,0.04,0.94,-0.64,-0.45,-0.51,
1.969,-0.07,0.04,0.94,-0.64,-0.45,-0.51,
1.972,-0.07,0.04,0.94,-0.62,-0.45,-0.56,
1.972,-0.07,0.05,0.94,-0.62,-0.45,-0.56,
1.975,-0.08,0.05,0.94,-0.62,-0.45,-0.56,
1.977,-0.08,0.05,0.94,-0.63,-0.40,-0.60,
1.978,-0.09,0.06,0.94,-0.63,-0.40,-0.60,
1.98,-0.09,0.06,0.94,-0.63,-0.40,-0.60,
1.982,-0.10,0.06,0.93,-0.63,-0.40,-0.60,
1.983,-0.10,0.06,0.93,-0.74,-0.31,-0.58,
1.985,-0.10,0.06,0.93,-0.74,-0.31,-0.58,
1.987,-0.11,0.07,0.92,-0.74,-0.31,-0.58,
1.987,-0.11,0.07,0.92,-0.85,-0.27,-0.63,
1.989,-0.11,0.07,0.91,-0.85,-0.27,-0.63,
1.992,-0.11,0.07,0.90,-0.85,-0.27,-0.63,
1.992,-0.11,0.07,0.90,-0.93,-0.21,-0.72,
1.994,-0.11,0.06,0.90,-0.93,-0.21,-0.72,
1.997,-0.12,0.05,0.91,-0.93,-0.21,-0.72,
1.997,-0.12,0.05,0.91,-0.94,-0.19,-0.93,
1.999,-0.12,0.05,0.91,-0.94,-0.19,-0.93,
2.002,-0.12,0.05,0.91,-0.98,-0.30,-0.91,
2.002,-0.12,0.05,0.90,-0.98,-0.30,-0.91,
2.004,-0.12,0.04,0.89,-0.98,-0.30,-0.91,
2.007,-0.12,0.04,0.89,-0.98,-0.30,-0.91,
2.007,-0.12,0.04,0.89,-1.07,-0.38,-0.89,
2.012,-0.11,0.04,0.90,-1.07,-0.38,-0.89,
2.012,-0.10,0.04,0.90,-1.07,-0.38,-0.89,
2.012,-0.10,0.04,0.90,-1.03,-0.46,-1.02,
2.015,-0.09,0.05,0.91,-1.03,-0.46,-1.02,
2.017,-0.09,0.05,0.91,-1.03,-0.46,-1.02,
2.017,-0.09,0.05,0.91,-0.90,-0.45,-0.91,
2.02,-0.08,0.05,0.91,-0.90,-0.45,-0.91,
2.022,-0.08,0.05,0.92,-0.90,-0.45,-0.91,
2.022,-0.08,0.05,0.92,-0.74,-0.38,-0.83,
2.024,-0.07,0.06,0.92,-0.74,-0.38,-0.83,
2.027,-0.07,0.06,0.92,-0.74,-0.38,-0.83,
2.027,-0.07,0.06,0.92,-0.62,-0.36,-0.79,
2.032,-0.07,0.06,0.92,-0.62,-0.36,-0.79,
2.032,-0.07,0.06,0.92,-0.62,-0.36,-0.79,
2.032,-0.07,0.06,0.92,-0.57,-0.30,-0.72,
2.034,-0.07,0.06,0.92,-0.57,-0.30,-0.72,
2.036,-0.08,0.06,0.92,-0.57,-0.30,-0.72,
2.037,-0.08,0.06,0.92,-0.56,-0.31,-0.70,
2.039,-0.07,0.06,0.92,-0.56,-0.31,-0.70,
2.042,-0.08,0.06,0.92,-0.56,-0.31,-0.70,
2.042,-0.08,0.06,0.92,-0.56,-0.31,-0.70,
2.044,-0.08,0.06,0.92,-0.56,-0.31,-0.70,
2.047,-0.08,0.06,0.91,-0.56,-0.31,-0.70,
2.047,-0.08,0.06,0.91,-0.58,-0.30,-0.73,
2.049,-0.09,0.06,0.91,-0.58,-0.30,-0.73,
2.051,-0.09,0.06,0.91,-0.65,-0.31,-0.75,
2.052,-0.09,0.06,0.92,-0.65,-0.31,-0.75,
2.054,-0.09,0.06,0.91,-0.65,-0.31,-0.75,
2.057,-0.09,0.06,0.91,-0.65,-0.31,-0.75,
2.057,-0.09,0.06,0.91,-0.70,-0.31,-0.78,
2.059,-0.09,0.06,0.91,-0.70,-0.31,-0.78,
2.062,-0.09,0.06,0.92,-0.70,-0.31,-0.78,
2.062,-0.09,0.06,0.92,-0.74,-0.27,-0.80,
2.064,-0.09,0.06,0.91,-0.74,-0.27,-0.80,
2.066,-0.10,0.07,0.91,-0.74,-0.27,-0.80,
2.066,-0.10,0.07,0.91,-0.75,-0.27,-0.77,
2.068,-0.09,0.07,0.91,-0.75,-0.27,-0.77,
2.072,-0.09,0.07,0.91,-0.75,-0.27,-0.77,
2.072,-0.09,0.07,0.91,-0.76,-0.25,-0.81,
2.074,-0.10,0.07,0.92,-0.76,-0.25,-0.81,
2.077,-0.10,0.07,0.92,-0.74,-0.13,-0.80,
2.077,-0.10,0.08,0.91,-0.74,-0.13,-0.80,
2.079,-0.10,0.08,0.92,-0.74,-0.13,-0.80,
2.081,-0.10,0.09,0.93,-0.74,-0.13,-0.80,
2.082,-0.10,0.09,0.93,-0.79,-0.09,-0.75,
2.083,-0.11,0.09,0.94,-0.79,-0.09,-0.75,
2.087,-0.11,0.09,0.94,-0.79,-0.09,-0.75,
2.087,-0.11,0.09,0.94,-0.83,-0.02,-0.67,
2.089,-0.11,0.09,0.94,-0.83,-0.02,-0.67,
2.092,-0.10,0.09,0.95,-0.83,-0.02,-0.67,
2.092,-0.10,0.09,0.95,-0.87,0.05,-0.53,
2.094,-0.11,0.10,0.96,-0.87,0.05,-0.53,
2.098,-0.11,0.10,0.97,-0.87,0.05,-0.53,
2.099,-0.11,0.10,0.97,-0.87,0.04,-0.48,
2.099,-0.11,0.10,0.97,-0.87,0.04,-0.48,
2.102,-0.11,0.10,0.98,-0.87,0.04,-0.48,
2.102,-0.11,0.10,0.98,-0.92,0.15,-0.29,
2.104,-0.11,0.11,0.99,-0.92,0.15,-0.29,
2.106,-0.11,0.11,0.99,-0.92,0.15,-0.29,
2.107,-0.11,0.11,0.99,-0.94,0.17,-0.15,
2.109,-0.11,0.11,0.99,-0.94,0.17,-0.15,
2.111,-0.12,0.10,1.00,-0.94,0.17,-0.15,
2.111,-0.12,0.10,1.00,-0.92,0.22,-0.06,
2.113,-0.12,0.11,0.99,-0.92,0.22,-0.06,
2.116,-0.13,0.11,1.00,-0.92,0.22,-0.06,
2.116,-0.13,0.11,1.00,-0.97,0.23,0.01,
2.118,-0.13,0.10,0.99,-0.97,0.23,0.01,
2.121,-0.13,0.11,0.99,-0.97,0.23,0.01,
2.121,-0.13,0.11,0.99,-1.05,0.24,0.01,
2.124,-0.13,0.11,0.99,-1.05,0.24,0.01,
2.126,-0.13,0.11,0.99,-1.10,0.22,-0.01,
2.126,-0.14,0.10,0.98,-1.10,0.22,-0.01,
2.128,-0.15,0.11,0.98,-1.10,0.22,-0.01,
2.135,-0.14,0.11,0.98,-1.10,0.22,-0.01,
2.135,-0.14,0.11,0.98,-1.17,0.23,-0.08,
2.136,-0.15,0.11,0.98,-1.17,0.23,-0.08,
2.136,-0.15,0.11,0.98,-1.26,0.27,-0.12,
2.136,-0.15,0.11,0.98,-1.26,0.27,-0.12,
2.139,-0.14,0.11,0.97,-1.26,0.27,-0.12,
2.142,-0.14,0.11,0.96,-1.26,0.27,-0.12,
2.142,-0.14,0.11,0.96,-1.26,0.25,-0.13,
2.143,-0.14,0.11,0.96,-1.26,0.25,-0.13,
2.146,-0.14,0.11,0.96,-1.21,0.27,-0.28,
2.146,-0.14,0.11,0.96,-1.21,0.27,-0.28,
2.148,-0.14,0.11,0.96,-1.21,0.27,-0.28,
2.151,-0.14,0.11,0.96,-1.21,0.28,-0.31,
2.151,-0.14,0.10,0.96,-1.21,0.28,-0.31,
2.153,-0.14,0.11,0.96,-1.21,0.28,-0.31,
2.156,-0.13,0.11,0.96,-1.21,0.28,-0.31,
2.156,-0.13,0.11,0.96,-1.16,0.24,-0.33,
2.158,-0.13,0.11,0.96,-1.16,0.24,-0.33,
2.161,-0.13,0.10,0.97,-1.16,0.24,-0.33,
2.161,-0.13,0.10,0.97,-1.15,0.28,-0.31,
2.165,-0.13,0.10,0.97,-1.15,0.28,-0.31,
2.165,-0.13,0.10,0.98,-1.15,0.28,-0.31,
2.165,-0.13,0.10,0.98,-1.13,0.24,-0.29,
2.168,-0.12,0.10,0.98,-1.13,0.24,-0.29,
2.17,-0.12,0.09,0.98,-1.13,0.24,-0.29,
2.171,-0.12,0.09,0.98,-1.10,0.19,-0.17,
2.173,-0.12,0.09,0.99,-1.10,0.19,-0.17,
2.176,-0.12,0.09,0.99,-1.03,0.16,-0.13,
2.176,-0.12,0.09,0.99,-1.03,0.16,-0.13,
2.178,-0.12,0.09,1.00,-1.03,0.16,-0.13,
2.182,-0.12,0.09,1.00,-1.03,0.16,-0.13,
2.182,-0.12,0.09,1.00,-1.01,0.14,-0.01,
2.182,-0.12,0.09,1.01,-1.01,0.14,-0.01,
2.185,-0.12,0.09,1.01,-1.01,0.14,-0.01,
2.186,-0.12,0.09,1.01,-0.99,0.14,0.05,
2.188,-0.12,0.09,1.01,-0.99,0.14,0.05,
2.19,-0.12,0.10,1.01,-0.99,0.14,0.05,
2.191,-0.12,0.10,1.01,-0.99,0.14,0.14,
2.193,-0.12,0.10,1.01,-0.99,0.14,0.14,
2.195,-0.12,0.10,1.01,-0.99,0.14,0.14,
2.196,-0.12,0.10,1.01,-1.03,0.17,0.13,
2.198,-0.13,0.11,1.00,-1.03,0.17,0.13,
2.2,-0.13,0.11,1.00,-1.03,0.22,0.14,
2.2,-0.13,0.11,0.99,-1.03,0.22,0.14,
2.203,-0.14,0.11,0.99,-1.03,0.22,0.14,
2.205,-0.14,0.11,0.99,-1.03,0.22,0.14,
2.206,-0.14,0.11,0.99,-1.08,0.29,0.03,
2.208,-0.14,0.11,0.98,-1.08,0.29,0.03,
2.21,-0.15,0.11,0.98,-1.08,0.29,0.03,
2.211,-0.15,0.11,0.98,-1.14,0.29,-0.02,
2.213,-0.15,0.11,0.98,-1.14,0.29,-0.02,
2.215,-0.15,0.12,0.98,-1.14,0.29,-0.02,
2.215,-0.15,0.12,0.98,-1.22,0.33,-0.10,
2.217,-0.15,0.12,0.97,-1.22,0.33,-0.10,
2.22,-0.14,0.12,0.97,-1.22,0.33,-0.10,
2.22,-0.14,0.12,0.97,-1.25,0.35,-0.15,
2.222,-0.15,0.12,0.97,-1.25,0.35,-0.15,
2.225,-0.14,0.12,0.97,-1.25,0.35,-0.15,
2.225,-0.14,0.12,0.97,-1.23,0.39,-0.19,
2.227,-0.14,0.12,0.97,-1.23,0.39,-0.19,
2.231,-0.14,0.12,0.97,-1.23,0.39,-0.19,
2.231,-0.14,0.12,0.97,-1.23,0.39,-0.20,
2.232,-0.14,0.12,0.96,-1.23,0.39,-0.20,
2.234,-0.14,0.11,0.97,-1.23,0.39,-0.20,
2.235,-0.14,0.11,0.97,-1.20,0.37,-0.21,
2.237,-0.13,0.11,0.96,-1.20,0.37,-0.21,
2.24,-0.13,0.11,0.96,-1.20,0.37,-0.21,
2.24,-0.13,0.11,0.96,-1.13,0.34,-0.30,
2.241,-0.13,0.11,0.97,-1.13,0.34,-0.30,
2.244,-0.12,0.11,0.96,-1.13,0.34,-0.30,
2.244,-0.12,0.11,0.96,-1.07,0.29,-0.28,
2.248,-0.12,0.11,0.97,-1.07,0.29,-0.28,
2.25,-0.12,0.11,0.97,-0.99,0.30,-0.26,
2.25,-0.12,0.10,0.98,-0.99,0.30,-0.26,
2.252,-0.12,0.11,0.97,-0.99,0.30,-0.26,
2.254,-0.12,0.11,0.97,-0.95,0.27,-0.19,
2.255,-0.12,0.11,0.97,-0.95,0.27,-0.19,
2.256,-0.11,0.10,0.98,-0.95,0.27,-0.19,
2.259,-0.11,0.11,0.98,-0.95,0.27,-0.19,
2.259,-0.11,0.11,0.98,-0.91,0.26,-0.19,
2.261,-0.11,0.11,0.98,-0.91,0.26,-0.19,
2.272,-0.11,0.11,0.99,-0.91,0.26,-0.19,
2.272,-0.11,0.11,0.99,-0.87,0.23,-0.15,
2.273,-0.11,0.11,0.99,-0.87,0.23,-0.15,
2.273,-0.10,0.11,1.00,-0.87,0.23,-0.15,
2.273,-0.10,0.11,1.00,-0.84,0.24,-0.09,
2.273,-0.10,0.11,0.99,-0.84,0.24,-0.09,
2.275,-0.10,0.11,0.99,-0.80,0.27,-0.01,
2.276,-0.11,0.11,1.00,-0.80,0.27,-0.01,
2.276,-0.11,0.10,1.01,-0.80,0.27,-0.01,
2.279,-0.11,0.10,1.01,-0.78,0.27,0.06,
2.28,-0.10,0.10,1.00,-0.78,0.27,0.06,
2.288,-0.10,0.10,1.01,-0.78,0.27,0.06,
2.289,-0.10,0.10,1.01,-0.78,0.27,0.06,
2.289,-0.10,0.10,1.01,-0.76,0.22,0.12,
2.289,-0.09,0.10,1.01,-0.76,0.22,0.12,
2.29,-0.09,0.10,1.01,-0.76,0.22,0.12,
2.29,-0.09,0.10,1.01,-0.71,0.20,0.17,
2.291,-0.09,0.09,1.02,-0.71,0.20,0.17,
2.294,-0.09,0.09,1.02,-0.71,0.20,0.17,
2.295,-0.09,0.09,1.02,-0.66,0.16,0.20,
2.296,-0.09,0.09,1.01,-0.66,0.16,0.20,
2.299,-0.08,0.09,1.02,-0.66,0.16,0.20,
2.3,-0.08,0.09,1.02,-0.63,0.11,0.24,
2.301,-0.08,0.08,1.02,-0.63,0.11,0.24,
2.304,-0.08,0.08,1.02,-0.57,0.06,0.21,
2.307,-0.08,0.09,1.02,-0.57,0.06,0.21,
2.307,-0.08,0.09,1.02,-0.57,0.06,0.21,
2.311,-0.08,0.09,1.02,-0.57,0.06,0.21,
2.311,-0.08,0.09,1.02,-0.53,0.04,0.25,
2.312,-0.08,0.09,1.02,-0.53,0.04,0.25,
2.315,-0.08,0.09,1.02,-0.48,0.05,0.26,
2.315,-0.08,0.09,1.02,-0.48,0.05,0.26,
2.317,-0.08,0.09,1.01,-0.48,0.05,0.26,
2.319,-0.08,0.09,1.01,-0.48,0.05,0.26,
2.319,-0.08,0.09,1.01,-0.49,0.08,0.22,
2.323,-0.08,0.10,1.01,-0.49,0.08,0.22,
2.323,-0.08,0.10,1.01,-0.46,0.08,0.19,
2.324,-0.08,0.10,1.01,-0.46,0.08,0.19,
2.326,-0.08,0.10,0.99,-0.46,0.08,0.19,
2.329,-0.08,0.10,0.99,-0.46,0.08,0.19,
2.329,-0.08,0.10,0.99,-0.46,0.13,0.13,
2.331,-0.08,0.10,0.99,-0.46,0.13,0.13,
2.333,-0.08,0.10,0.98,-0.46,0.13,0.13,
2.334,-0.08,0.10,0.98,-0.45,0.13,-0.02,
2.336,-0.08,0.10,0.98,-0.45,0.13,-0.02,
2.339,-0.08,0.10,0.98,-0.46,0.16,-0.07,
2.339,-0.08,0.10,0.97,-0.46,0.16,-0.07,
2.341,-0.08,0.10,0.97,-0.46,0.16,-0.07,
2.344,-0.08,0.10,0.97,-0.46,0.16,-0.07,
2.344,-0.08,0.10,0.97,-0.48,0.14,-0.18,
2.346,-0.09,0.10,0.97,-0.48,0.14,-0.18,
2.353,-0.09,0.10,0.97,-0.50,0.17,-0.21,
2.354,-0.09,0.10,0.96,-0.50,0.17,-0.21,
2.354,-0.10,0.10,0.97,-0.50,0.17,-0.21,
2.354,-0.10,0.10,0.96,-0.50,0.17,-0.21,
2.354,-0.10,0.10,0.96,-0.53,0.16,-0.28,
2.357,-0.09,0.10,0.97,-0.53,0.16,-0.28,
2.359,-0.09,0.10,0.97,-0.53,0.16,-0.28,
2.359,-0.09,0.10,0.97,-0.60,0.14,-0.26,
2.361,-0.09,0.10,0.96,-0.60,0.14,-0.26,
2.363,-0.09,0.10,0.97,-0.60,0.14,-0.26,
2.364,-0.09,0.10,0.97,-0.57,0.15,-0.26,
2.366,-0.09,0.10,0.97,-0.57,0.15,-0.26,
2.369,-0.09,0.10,0.97,-0.57,0.15,-0.26,
2.369,-0.09,0.10,0.97,-0.56,0.13,-0.26,
2.371,-0.09,0.10,0.97,-0.56,0.13,-0.26,
2.373,-0.09,0.10,0.97,-0.56,0.13,-0.26,
2.373,-0.09,0.10,0.97,-0.53,0.13,-0.19,
2.376,-0.09,0.10,0.97,-0.53,0.13,-0.19,
2.378,-0.09,0.11,0.98,-0.53,0.13,-0.19,
2.379,-0.09,0.11,0.98,-0.54,0.12,-0.20,
2.381,-0.09,0.11,0.97,-0.54,0.12,-0.20,
2.385,-0.09,0.11,0.98,-0.54,0.12,-0.20,
2.385,-0.09,0.11,0.98,-0.52,0.16,-0.14,
2.385,-0.10,0.10,0.98,-0.52,0.16,-0.14,
2.388,-0.10,0.10,0.98,-0.53,0.18,-0.15,
2.388,-0.09,0.10,0.98,-0.53,0.18,-0.15,
2.39,-0.10,0.10,0.98,-0.53,0.18,-0.15,
2.393,-0.09,0.10,0.99,-0.53,0.18,-0.15,
2.393,-0.09,0.10,0.99,-0.54,0.16,-0.09,
2.395,-0.09,0.10,0.99,-0.54,0.16,-0.09,
2.398,-0.10,0.09,0.99,-0.54,0.16,-0.09,
2.398,-0.10,0.09,0.99,-0.51,0.14,-0.07,
2.4,-0.09,0.09,1.00,-0.51,0.14,-0.07,
2.403,-0.09,0.09,1.00,-0.51,0.14,-0.07,
2.403,-0.09,0.09,1.00,-0.50,0.09,0.01,
2.405,-0.09,0.09,1.01,-0.50,0.09,0.01,
2.408,-0.08,0.09,1.02,-0.50,0.09,0.01,
2.408,-0.08,0.09,1.02,-0.45,0.06,0.11,
2.41,-0.08,0.09,1.02,-0.45,0.06,0.11,
2.413,-0.08,0.09,1.02,-0.38,0.03,0.23,
2.413,-0.07,0.09,1.03,-0.38,0.03,0.23,
2.415,-0.07,0.09,1.04,-0.38,0.03,0.23,
2.418,-0.07,0.08,1.06,-0.38,0.03,0.23,
2.418,-0.07,0.08,1.06,-0.28,0.05,0.34,
2.42,-0.06,0.08,1.05,-0.28,0.05,0.34,
2.422,-0.06,0.08,1.05,-0.22,-0.01,0.56,
2.423,-0.05,0.08,1.06,-0.22,-0.01,0.56,
2.425,-0.05,0.08,1.06,-0.22,-0.01,0.56,
2.427,-0.05,0.08,1.06,-0.22,-0.01,0.56,
2.428,-0.05,0.08,1.06,-0.09,-0.05,0.61,
2.429,-0.05,0.08,1.06,-0.09,-0.05,0.61,
2.432,-0.04,0.08,1.05,-0.09,-0.05,0.61,
2.433,-0.04,0.08,1.05,-0.03,-0.09,0.65,
2.435,-0.04,0.08,1.05,-0.03,-0.09,0.65,
2.438,-0.04,0.08,1.05,-0.03,-0.09,0.65,
2.438,-0.04,0.08,1.05,0.01,-0.06,0.61,
2.439,-0.05,0.09,1.04,0.01,-0.06,0.61,
2.442,-0.04,0.09,1.04,0.01,-0.06,0.61,
2.442,-0.04,0.09,1.04,0.02,-0.05,0.52,
2.444,-0.05,0.09,1.03,0.02,-0.05,0.52,
2.451,-0.05,0.09,1.02,0.02,-0.05,0.52,
2.452,-0.05,0.09,1.02,0.01,0.01,0.41,
2.452,-0.06,0.09,1.02,0.01,0.01,0.41,
2.453,-0.06,0.09,1.02,-0.05,0.03,0.33,
2.453,-0.06,0.10,1.01,-0.05,0.03,0.33,
2.455,-0.07,0.10,1.00,-0.05,0.03,0.33,
2.458,-0.06,0.10,1.00,-0.05,0.03,0.33,
2.458,-0.06,0.10,1.00,-0.13,0.06,0.18,
2.46,-0.07,0.10,0.99,-0.13,0.06,0.18,
2.462,-0.07,0.10,0.98,-0.13,0.06,0.18,
2.462,-0.07,0.10,0.98,-0.18,0.11,0.04,
2.465,-0.07,0.10,0.98,-0.18,0.11,0.04,
2.467,-0.07,0.10,0.98,-0.18,0.11,0.04,
2.468,-0.07,0.10,0.98,-0.21,0.13,-0.07,
2.47,-0.07,0.10,0.98,-0.21,0.13,-0.07,
2.473,-0.07,0.10,0.98,-0.23,0.08,-0.13,
2.474,-0.07,0.10,0.98,-0.23,0.08,-0.13,
2.474,-0.07,0.09,0.98,-0.23,0.08,-0.13,
2.478,-0.06,0.09,0.98,-0.23,0.08,-0.13,
2.478,-0.06,0.09,0.98,-0.25,0.09,-0.14,
2.48,-0.06,0.09,0.99,-0.25,0.09,-0.14,
2.483,-0.06,0.09,0.98,-0.25,0.09,-0.14,
2.483,-0.06,0.09,0.98,-0.18,0.02,-0.14,
2.485,-0.05,0.09,0.99,-0.18,0.02,-0.14,
2.487,-0.05,0.09,0.99,-0.13,-0.00,-0.10,
2.488,-0.04,0.09,0.99,-0.13,-0.00,-0.10,
2.49,-0.04,0.09,0.99,-0.13,-0.00,-0.10,
2.492,-0.04,0.08,0.99,-0.13,-0.00,-0.10,
2.493,-0.04,0.08,0.99,-0.02,-0.04,-0.02,
2.495,-0.04,0.08,1.00,-0.02,-0.04,-0.02,
2.497,-0.04,0.08,1.00,0.06,-0.05,-0.05,
2.498,-0.03,0.09,0.99,0.06,-0.05,-0.05,
2.499,-0.04,0.08,1.00,0.06,-0.05,-0.05,
2.502,-0.04,0.08,1.00,0.06,-0.05,-0.05,
2.502,-0.04,0.08,1.00,0.10,-0.07,-0.02,
2.504,-0.04,0.08,1.00,0.10,-0.07,-0.02,
2.507,-0.04,0.08,1.00,0.10,-0.07,-0.02,
2.507,-0.04,0.08,1.00,0.07,-0.08,0.04,
2.51,-0.03,0.09,1.00,0.07,-0.08,0.04,
2.512,-0.03,0.09,1.01,0.07,-0.08,0.04,
2.512,-0.03,0.09,1.01,0.10,-0.09,0.09,
2.515,-0.03,0.09,1.01,0.10,-0.09,0.09,
2.517,-0.02,0.09,1.02,0.10,-0.09,0.09,
2.517,-0.02,0.09,1.02,0.15,-0.05,0.11,
2.519,-0.02,0.09,1.02,0.15,-0.05,0.11,
2.522,-0.02,0.09,1.02,0.23,-0.02,0.19,
2.523,-0.02,0.10,1.02,0.23,-0.02,0.19,
2.525,-0.03,0.10,1.02,0.23,-0.02,0.19,
2.527,-0.03,0.10,1.02,0.23,-0.02,0.19,
2.527,-0.03,0.10,1.02,0.26,0.03,0.24,
2.529,-0.02,0.10,1.02,0.26,0.03,0.24,
2.534,-0.02,0.10,1.02,0.26,0.03,0.24,
2.534,-0.02,0.10,1.02,0.20,0.06,0.27,
2.535,-0.02,0.10,1.03,0.20,0.06,0.27,
2.537,-0.02,0.09,1.02,0.20,0.06,0.27,
2.538,-0.02,0.09,1.02,0.24,0.03,0.25,
2.539,-0.02,0.10,1.01,0.24,0.03,0.25,
2.542,-0.02,0.09,1.02,0.24,0.03,0.25,
2.542,-0.02,0.09,1.02,0.24,0.01,0.31,
2.543,-0.01,0.09,1.02,0.24,0.01,0.31,
2.547,-0.01,0.09,1.02,0.29,-0.00,0.22,
2.547,-0.01,0.10,1.02,0.29,-0.00,0.22,
2.551,-0.00,0.09,1.02,0.29,-0.00,0.22,
2.552,-0.00,0.10,1.02,0.29,-0.00,0.22,
2.552,-0.00,0.10,1.02,0.38,-0.01,0.21,
2.553,-0.00,0.09,1.02,0.38,-0.01,0.21,
2.557,-0.01,0.10,1.02,0.38,-0.01,0.21,
2.557,-0.01,0.10,1.02,0.41,-0.01,0.21,
2.558,-0.00,0.09,1.01,0.41,-0.01,0.21,
2.562,-0.00,0.09,1.00,0.41,-0.01,0.21,
2.562,-0.00,0.09,1.00,0.40,-0.02,0.20,
2.563,-0.00,0.09,0.99,0.40,-0.02,0.20,
2.567,-0.00,0.09,0.99,0.42,-0.03,0.10,
2.567,-0.01,0.09,0.99,0.42,-0.03,0.10,
2.568,-0.00,0.09,0.98,0.42,-0.03,0.10,
2.571,-0.00,0.09,0.98,0.38,-0.10,-0.06,
2.571,-0.00,0.09,0.97,0.38,-0.10,-0.06,
2.573,-0.01,0.10,0.97,0.38,-0.10,-0.06,
2.576,-0.01,0.10,0.97,0.38,-0.10,-0.06,
2.576,-0.01,0.10,0.97,0.40,-0.10,-0.16,
2.578,-0.02,0.10,0.96,0.40,-0.10,-0.16,
2.586,-0.02,0.10,0.96,0.40,-0.10,-0.16,
2.587,-0.02,0.10,0.96,0.35,-0.02,-0.26,
2.587,-0.03,0.10,0.96,0.35,-0.02,-0.26,
2.589,-0.03,0.10,0.96,0.35,-0.02,-0.26,
2.589,-0.03,0.10,0.96,0.25,-0.01,-0.33,
2.589,-0.03,0.10,0.95,0.25,-0.01,-0.33,
2.591,-0.04,0.10,0.95,0.25,-0.01,-0.33,
2.591,-0.04,0.10,0.95,0.15,0.01,-0.37,
2.593,-0.05,0.10,0.95,0.15,0.01,-0.37,
2.596,-0.05,0.10,0.95,0.08,0.01,-0.41,
2.597,-0.05,0.11,0.94,0.08,0.01,-0.41,
2.599,-0.06,0.11,0.89,0.08,0.01,-0.41,
2.601,-0.07,0.12,0.85,0.08,0.01,-0.41,
2.601,-0.07,0.12,0.85,-0.02,0.02,-0.49,
2.603,-0.07,0.12,0.84,-0.02,0.02,-0.49,
2.606,-0.06,0.12,0.86,-0.02,0.02,-0.49,
2.606,-0.06,0.12,0.86,-0.17,0.10,-1.20,
2.608,-0.07,0.13,0.90,-0.17,0.10,-1.20,
2.61,-0.07,0.12,0.93,-0.17,0.10,-1.20,
2.611,-0.07,0.12,0.93,-0.20,0.21,-1.40,
2.613,-0.07,0.13,0.95,-0.20,0.21,-1.40,
2.623,-0.07,0.13,0.96,-0.20,0.21,-1.40,
2.624,-0.07,0.13,0.96,-0.18,0.23,-0.72,
2.624,-0.07,0.12,0.98,-0.18,0.23,-0.72,
2.624,-0.07,0.12,0.98,-0.18,0.23,-0.72,
2.624,-0.07,0.12,0.98,-0.21,0.25,-0.35,
2.625,-0.07,0.12,0.98,-0.21,0.25,-0.35,
2.626,-0.07,0.12,0.98,-0.23,0.21,-0.11,
2.626,-0.07,0.11,1.00,-0.23,0.21,-0.11,
2.628,-0.06,0.11,1.00,-0.23,0.21,-0.11,
2.63,-0.05,0.11,1.01,-0.23,0.21,-0.11,
2.631,-0.05,0.11,1.01,-0.23,0.14,-0.02,
2.634,-0.05,0.11,1.03,-0.23,0.14,-0.02,
2.637,-0.05,0.11,1.03,-0.08,0.08,0.15,
2.637,-0.04,0.10,1.03,-0.08,0.08,0.15,
2.638,-0.04,0.11,1.05,-0.08,0.08,0.15,
2.641,-0.04,0.10,1.06,-0.08,0.08,0.15,
2.641,-0.04,0.10,1.06,0.01,0.06,0.40,
2.643,-0.04,0.10,1.08,0.01,0.06,0.40,
2.646,-0.04,0.10,1.08,0.08,0.06,0.59,
2.646,-0.03,0.10,1.08,0.08,0.06,0.59,
2.648,-0.03,0.10,1.08,0.08,0.06,0.59,
2.65,-0.03,0.10,1.09,0.08,0.06,0.59,
2.652,-0.03,0.10,1.09,0.13,0.04,0.86,
2.653,-0.02,0.10,1.09,0.13,0.04,0.86,
2.656,-0.02,0.10,1.08,0.13,0.04,0.86,
2.657,-0.02,0.10,1.08,0.19,0.02,0.90,
2.657,-0.02,0.09,1.07,0.19,0.02,0.90,
2.661,-0.02,0.09,1.06,0.19,0.02,0.90,
2.661,-0.02,0.09,1.06,0.25,-0.03,0.88,
2.663,-0.02,0.09,1.06,0.25,-0.03,0.88,
2.665,-0.02,0.09,1.05,0.25,-0.03,0.88,
2.665,-0.02,0.09,1.05,0.29,-0.06,0.69,
2.67,-0.03,0.10,1.04,0.29,-0.06,0.69,
2.671,-0.03,0.10,1.03,0.29,-0.06,0.69,
2.671,-0.03,0.10,1.03,0.26,-0.11,0.57,
2.673,-0.04,0.10,1.02,0.26,-0.11,0.57,
2.675,-0.04,0.10,1.00,0.26,-0.11,0.57,
2.676,-0.04,0.10,1.00,0.15,-0.03,0.39,
2.678,-0.05,0.10,0.99,0.15,-0.03,0.39,
2.681,-0.05,0.10,0.99,0.10,-0.02,0.17,
2.681,-0.05,0.10,0.98,0.10,-0.02,0.17,
2.683,-0.06,0.10,0.96,0.10,-0.02,0.17,
2.686,-0.06,0.11,0.96,0.10,-0.02,0.17,
2.686,-0.06,0.11,0.96,0.01,-0.02,-0.08,
2.688,-0.07,0.11,0.95,0.01,-0.02,-0.08,
2.69,-0.07,0.11,0.95,-0.10,-0.01,-0.35,
2.691,-0.08,0.11,0.94,-0.10,-0.01,-0.35,
2.693,-0.08,0.11,0.94,-0.10,-0.01,-0.35,
2.695,-0.08,0.11,0.94,-0.25,0.01,-0.49,
2.696,-0.08,0.11,0.93,-0.25,0.01,-0.49,
2.698,-0.08,0.11,0.93,-0.25,0.01,-0.49,
2.701,-0.08,0.12,0.92,-0.25,0.01,-0.49,
2.701,-0.08,0.12,0.92,-0.31,0.03,-0.59,
