
time,gFx,gFy,gFz,ax,ay,az,
0.004,-0.08,0.17,0.91,-0.43,-0.19,-0.56,
0.004,-0.08,0.17,0.91,-0.51,-0.19,-0.68,
0.005,-0.08,0.18,0.91,-0.51,-0.19,-0.68,
0.005,-0.07,0.19,0.91,-0.51,-0.19,-0.68,
0.005,-0.07,0.19,0.91,-0.47,-0.09,-0.75,
0.005,-0.07,0.19,0.92,-0.47,-0.09,-0.75,
0.005,-0.06,0.19,0.92,-0.47,-0.09,-0.75,
0.006,-0.06,0.19,0.92,-0.41,0.02,-0.65,
0.012,-0.05,0.20,0.92,-0.41,0.02,-0.65,
0.012,-0.05,0.20,0.92,-0.30,0.10,-0.62,
0.012,-0.05,0.20,0.93,-0.30,0.10,-0.62,
0.013,-0.04,0.20,0.95,-0.30,0.10,-0.62,
0.015,-0.04,0.20,0.96,-0.30,0.10,-0.62,
0.015,-0.04,0.20,0.96,-0.16,0.18,-0.50,
0.017,-0.04,0.19,0.97,-0.16,0.18,-0.50,
0.034,-0.04,0.19,0.97,-0.16,0.18,-0.50,
0.035,-0.04,0.19,0.97,-0.08,0.21,-0.27,
0.035,-0.03,0.19,0.98,-0.08,0.21,-0.27,
0.035,-0.03,0.19,1.00,-0.08,0.21,-0.27,
0.036,-0.03,0.19,1.00,-0.03,0.13,-0.09,
0.036,-0.03,0.19,1.00,-0.03,0.13,-0.09,
0.036,-0.02,0.19,1.01,-0.03,0.13,-0.09,
0.036,-0.02,0.19,1.01,0.05,0.17,0.10,
0.036,-0.02,0.19,1.02,0.05,0.17,0.10,
0.037,-0.03,0.19,1.01,0.05,0.17,0.10,
0.037,-0.03,0.19,1.01,0.10,0.16,0.22,
0.037,-0.03,0.19,1.02,0.10,0.16,0.22,
0.045,-0.03,0.19,1.02,0.10,0.16,0.22,
0.046,-0.03,0.19,1.02,0.09,0.13,0.33,
0.046,-0.03,0.19,1.02,0.09,0.13,0.33,
0.046,-0.03,0.19,1.02,0.09,0.13,0.33,
0.046,-0.03,0.19,1.02,0.04,0.12,0.37,
0.047,-0.03,0.19,1.02,0.04,0.12,0.37,
0.05,-0.03,0.19,1.01,0.04,0.12,0.37,
0.05,-0.03,0.19,1.01,0.04,0.14,0.36,
0.052,-0.04,0.19,1.02,0.04,0.14,0.36,
0.062,-0.04,0.19,1.01,0.04,0.14,0.36,
0.063,-0.04,0.19,1.01,0.01,0.11,0.35,
0.063,-0.04,0.19,1.01,0.01,0.11,0.35,
0.063,-0.04,0.19,1.01,-0.07,0.14,0.34,
0.063,-0.04,0.20,1.00,-0.07,0.14,0.34,
0.063,-0.05,0.20,1.00,-0.07,0.14,0.34,
0.064,-0.04,0.19,1.00,-0.07,0.14,0.34,
0.064,-0.04,0.19,1.00,-0.08,0.18,0.27,
0.067,-0.04,0.19,0.99,-0.08,0.18,0.27,
0.069,-0.04,0.19,0.99,-0.08,0.18,0.27,
0.069,-0.04,0.19,0.99,-0.12,0.17,0.17,
0.077,-0.04,0.19,0.98,-0.12,0.17,0.17,
0.078,-0.04,0.19,0.97,-0.12,0.17,0.17,
0.078,-0.04,0.19,0.97,-0.09,0.16,0.07,
0.078,-0.04,0.19,0.97,-0.09,0.16,0.07,
0.08,-0.04,0.19,0.96,-0.09,0.16,0.07,
0.08,-0.04,0.19,0.96,-0.06,0.16,-0.02,
0.082,-0.04,0.19,0.95,-0.06,0.16,-0.02,
0.084,-0.03,0.19,0.95,-0.06,0.16,-0.02,
0.085,-0.03,0.19,0.95,-0.05,0.10,-0.18,
0.096,-0.03,0.19,0.95,-0.05,0.10,-0.18,
0.097,-0.03,0.19,0.95,-0.05,0.10,-0.18,
0.097,-0.03,0.19,0.95,-0.03,0.10,-0.27,
0.097,-0.02,0.19,0.95,-0.03,0.10,-0.27,
0.097,-0.02,0.19,0.94,-0.03,0.10,-0.27,
0.098,-0.02,0.19,0.94,0.06,0.11,-0.31,
0.098,-0.02,0.18,0.94,0.06,0.11,-0.31,
0.099,-0.02,0.19,0.94,0.06,0.11,-0.31,
0.1,-0.02,0.19,0.94,0.12,0.09,-0.35,
0.102,-0.02,0.18,0.94,0.12,0.09,-0.35,
0.111,-0.02,0.18,0.94,0.12,0.09,-0.35,
0.112,-0.02,0.18,0.94,0.11,0.06,-0.36,
0.112,-0.01,0.18,0.95,0.11,0.06,-0.36,
0.112,-0.01,0.18,0.95,0.16,-0.00,-0.38,
0.113,-0.01,0.17,0.94,0.16,-0.00,-0.38,
0.113,-0.01,0.16,0.96,0.16,-0.00,-0.38,
0.114,-0.00,0.17,0.95,0.16,-0.00,-0.38,
0.115,-0.00,0.17,0.95,0.24,-0.06,-0.32,
0.117,-0.00,0.17,0.96,0.24,-0.06,-0.32,
0.119,-0.00,0.16,0.97,0.24,-0.06,-0.32,
0.119,-0.00,0.16,0.97,0.26,-0.12,-0.25,
0.132,-0.00,0.16,0.98,0.26,-0.12,-0.25,
0.132,0.00,0.16,0.98,0.26,-0.12,-0.25,
0.133,0.00,0.16,0.98,0.29,-0.12,-0.16,
0.133,0.01,0.16,0.98,0.29,-0.12,-0.16,
0.133,0.00,0.16,0.99,0.29,-0.12,-0.16,
0.133,0.00,0.16,0.99,0.34,-0.17,-0.00,
0.133,0.00,0.16,1.00,0.34,-0.17,-0.00,
0.134,0.00,0.16,1.00,0.37,-0.18,0.08,
0.134,0.00,0.16,1.01,0.37,-0.18,0.08,
0.136,0.00,0.15,1.00,0.37,-0.18,0.08,
0.145,0.00,0.15,1.01,0.37,-0.18,0.08,
0.146,0.00,0.15,1.01,0.36,-0.18,0.22,
0.146,0.00,0.15,1.01,0.36,-0.18,0.22,
0.146,0.00,0.15,1.01,0.36,-0.18,0.22,
0.146,0.00,0.15,1.01,0.36,-0.22,0.24,
0.147,-0.00,0.14,1.02,0.36,-0.22,0.24,
0.149,-0.00,0.14,1.02,0.32,-0.25,0.32,
0.149,-0.00,0.15,1.02,0.32,-0.25,0.32,
0.151,-0.00,0.15,1.02,0.32,-0.25,0.32,
0.162,-0.00,0.15,1.01,0.32,-0.25,0.32,
0.162,-0.00,0.15,1.01,0.28,-0.27,0.36,
0.163,-0.00,0.15,1.01,0.28,-0.27,0.36,
0.163,-0.00,0.15,1.01,0.29,-0.22,0.32,
0.166,-0.00,0.15,1.01,0.29,-0.22,0.32,
0.166,0.00,0.15,1.00,0.29,-0.22,0.32,
0.167,-0.00,0.15,1.00,0.29,-0.22,0.32,
0.167,-0.00,0.15,1.00,0.26,-0.22,0.28,
0.167,-0.00,0.16,1.00,0.26,-0.22,0.28,
0.168,-0.00,0.16,0.98,0.26,-0.22,0.28,
0.169,-0.00,0.16,0.98,0.28,-0.22,0.21,
0.177,-0.00,0.16,0.97,0.28,-0.22,0.21,
0.178,0.00,0.16,0.96,0.28,-0.22,0.21,
0.178,0.00,0.16,0.96,0.25,-0.13,0.10,
0.178,0.00,0.16,0.95,0.25,-0.13,0.10,
0.179,0.00,0.16,0.95,0.25,-0.13,0.10,
0.179,0.00,0.16,0.95,0.27,-0.12,-0.12,
0.18,0.01,0.16,0.94,0.27,-0.12,-0.12,
0.183,0.01,0.16,0.94,0.31,-0.11,-0.32,
0.183,0.01,0.16,0.93,0.31,-0.11,-0.32,
0.186,0.00,0.16,0.92,0.31,-0.11,-0.32,
0.194,0.00,0.17,0.90,0.31,-0.11,-0.32,
0.194,0.00,0.17,0.90,0.34,-0.11,-0.49,
0.194,0.00,0.17,0.90,0.34,-0.11,-0.49,
0.194,-0.00,0.17,0.90,0.34,-0.11,-0.49,
0.194,-0.00,0.17,0.90,0.29,-0.07,-0.68,
0.196,-0.00,0.17,0.90,0.29,-0.07,-0.68,
0.197,0.00,0.18,0.89,0.29,-0.07,-0.68,
0.198,0.00,0.18,0.89,0.25,-0.02,-0.78,
0.2,-0.00,0.18,0.88,0.25,-0.02,-0.78,
0.203,-0.00,0.19,0.87,0.25,-0.02,-0.78,
0.203,-0.00,0.19,0.87,0.25,0.02,-0.85,
0.211,-0.00,0.19,0.87,0.25,0.02,-0.85,
0.211,-0.00,0.19,0.87,0.23,0.11,-0.98,
0.212,-0.00,0.19,0.87,0.23,0.11,-0.98,
0.212,0.00,0.19,0.85,0.23,0.11,-0.98,
0.213,0.00,0.19,0.85,0.23,0.11,-0.98,
0.214,0.00,0.19,0.85,0.24,0.13,-1.08,
0.216,0.01,0.20,0.85,0.24,0.13,-1.08,
0.218,0.01,0.20,0.85,0.24,0.13,-1.08,
0.218,0.01,0.20,0.85,0.27,0.18,-1.24,
0.22,0.02,0.20,0.83,0.27,0.18,-1.24,
0.227,0.01,0.20,0.83,0.27,0.18,-1.24,
0.227,0.01,0.20,0.83,0.34,0.23,-1.24,
0.228,0.02,0.19,0.83,0.34,0.23,-1.24,
0.228,0.01,0.19,0.84,0.34,0.23,-1.24,
0.228,0.01,0.19,0.84,0.40,0.26,-1.37,
0.23,0.00,0.19,0.85,0.40,0.26,-1.37,
0.232,0.00,0.19,0.85,0.37,0.21,-1.33,
0.233,0.01,0.19,0.84,0.37,0.21,-1.33,
0.235,0.02,0.20,0.84,0.37,0.21,-1.33,
0.237,0.02,0.20,0.85,0.37,0.21,-1.33,
0.238,0.02,0.20,0.85,0.31,0.20,-1.25,
0.248,0.02,0.19,0.85,0.31,0.20,-1.25,
0.248,0.02,0.19,0.84,0.31,0.20,-1.25,
0.249,0.02,0.19,0.84,0.42,0.24,-1.21,
0.249,0.02,0.18,0.85,0.42,0.24,-1.21,
0.249,0.01,0.18,0.84,0.42,0.24,-1.21,
0.249,0.01,0.18,0.84,0.41,0.20,-1.25,
0.249,0.01,0.17,0.84,0.41,0.20,-1.25,
0.252,0.02,0.16,0.84,0.41,0.20,-1.25,
0.253,0.02,0.16,0.84,0.39,0.11,-1.22,
0.262,0.02,0.16,0.83,0.39,0.11,-1.22,
0.262,0.02,0.16,0.83,0.38,-0.03,-1.27,
0.263,0.02,0.15,0.83,0.38,-0.03,-1.27,
0.263,0.02,0.15,0.83,0.38,-0.03,-1.27,
0.263,0.02,0.15,0.83,0.38,-0.03,-1.27,
0.263,0.02,0.15,0.83,0.44,-0.13,-1.33,
0.265,0.02,0.15,0.83,0.44,-0.13,-1.33,
0.268,0.02,0.15,0.83,0.44,-0.17,-1.31,
0.268,0.02,0.15,0.84,0.44,-0.17,-1.31,
0.27,0.01,0.15,0.84,0.44,-0.17,-1.31,
0.279,0.01,0.15,0.84,0.44,-0.17,-1.31,
0.279,0.01,0.15,0.84,0.42,-0.13,-1.30,
0.28,0.01,0.15,0.84,0.42,-0.13,-1.30,
0.28,0.01,0.15,0.85,0.42,-0.13,-1.30,
0.28,0.01,0.15,0.85,0.36,-0.12,-1.21,
0.28,0.01,0.14,0.85,0.36,-0.12,-1.21,
0.282,0.01,0.14,0.86,0.36,-0.12,-1.21,
0.283,0.01,0.14,0.86,0.35,-0.09,-1.15,
0.285,0.01,0.14,0.86,0.35,-0.09,-1.15,
0.295,0.01,0.14,0.86,0.35,-0.09,-1.15,
0.296,0.01,0.14,0.86,0.29,-0.14,-1.04,
0.296,0.00,0.14,0.87,0.29,-0.14,-1.04,
0.296,0.00,0.14,0.87,0.29,-0.14,-1.04,
0.297,0.00,0.14,0.87,0.26,-0.16,-0.99,
0.297,-0.00,0.14,0.87,0.26,-0.16,-0.99,
0.297,-0.00,0.13,0.88,0.26,-0.16,-0.99,
0.297,-0.00,0.13,0.88,0.19,-0.16,-0.92,
0.3,-0.00,0.13,0.88,0.19,-0.16,-0.92,
0.302,-0.01,0.13,0.89,0.19,-0.16,-0.92,
0.303,-0.01,0.13,0.89,0.13,-0.17,-0.84,
0.304,-0.00,0.14,0.89,0.13,-0.17,-0.84,
0.31,-0.00,0.14,0.89,0.10,-0.16,-0.75,
0.311,0.00,0.13,0.89,0.10,-0.16,-0.75,
0.311,-0.00,0.13,0.88,0.10,-0.16,-0.75,
0.312,-0.00,0.13,0.88,0.16,-0.12,-0.75,
0.312,0.00,0.13,0.88,0.16,-0.12,-0.75,
0.314,0.01,0.13,0.88,0.16,-0.12,-0.75,
0.317,0.02,0.14,0.87,0.16,-0.12,-0.75,
0.318,0.02,0.14,0.87,0.13,-0.15,-0.80,
0.319,0.03,0.14,0.86,0.13,-0.15,-0.80,
0.327,0.04,0.14,0.86,0.13,-0.15,-0.80,
0.327,0.04,0.14,0.86,0.22,-0.09,-0.85,
0.33,0.05,0.14,0.85,0.22,-0.09,-0.85,
0.33,0.05,0.14,0.85,0.22,-0.09,-0.85,
0.33,0.05,0.14,0.85,0.40,-0.03,-0.98,
0.33,0.05,0.14,0.84,0.40,-0.03,-0.98,
0.332,0.05,0.14,0.84,0.53,-0.03,-1.10,
0.332,0.05,0.14,0.83,0.53,-0.03,-1.10,
0.335,0.06,0.14,0.82,0.53,-0.03,-1.10,
0.337,0.06,0.14,0.81,0.53,-0.03,-1.10,
0.337,0.06,0.14,0.81,0.58,-0.02,-1.25,
0.348,0.06,0.14,0.80,0.58,-0.02,-1.25,
0.349,0.06,0.14,0.79,0.58,-0.02,-1.25,
0.349,0.06,0.14,0.79,0.63,0.02,-1.45,
0.349,0.06,0.14,0.79,0.63,0.02,-1.45,
0.349,0.07,0.14,0.79,0.63,0.02,-1.45,
0.35,0.07,0.14,0.79,0.66,0.02,-1.59,
0.35,0.06,0.14,0.78,0.66,0.02,-1.59,
0.352,0.06,0.14,0.76,0.66,0.02,-1.59,
0.352,0.06,0.14,0.76,0.64,0.03,-1.66,
0.354,0.06,0.14,0.75,0.64,0.03,-1.66,
0.362,0.06,0.14,0.75,0.64,0.02,-1.88,
0.362,0.06,0.13,0.75,0.64,0.02,-1.88,
0.363,0.06,0.12,0.73,0.64,0.02,-1.88,
0.363,0.07,0.12,0.73,0.64,0.02,-1.88,
0.363,0.07,0.12,0.73,0.60,-0.07,-2.04,
0.363,0.07,0.11,0.72,0.60,-0.07,-2.04,
0.366,0.08,0.12,0.71,0.60,-0.07,-2.04,
0.366,0.08,0.12,0.71,0.66,-0.16,-2.20,
0.368,0.08,0.12,0.70,0.66,-0.16,-2.20,
0.38,0.08,0.12,0.70,0.66,-0.16,-2.20,
0.381,0.08,0.12,0.70,0.76,-0.22,-2.38,
0.381,0.07,0.11,0.69,0.76,-0.22,-2.38,
0.381,0.07,0.10,0.70,0.76,-0.22,-2.38,
0.381,0.07,0.10,0.70,0.80,-0.19,-2.50,
0.382,0.07,0.10,0.70,0.80,-0.19,-2.50,
0.382,0.07,0.10,0.70,0.74,-0.27,-2.52,
0.382,0.08,0.09,0.71,0.74,-0.27,-2.52,
0.383,0.08,0.08,0.71,0.74,-0.27,-2.52,
0.386,0.08,0.07,0.72,0.74,-0.27,-2.52,
0.386,0.08,0.07,0.72,0.78,-0.41,-2.41,
0.394,0.07,0.06,0.74,0.78,-0.41,-2.41,
0.395,0.08,0.07,0.75,0.78,-0.41,-2.41,
0.395,0.08,0.07,0.75,0.81,-0.51,-2.29,
0.395,0.08,0.06,0.77,0.81,-0.51,-2.29,
0.396,0.09,0.06,0.79,0.81,-0.51,-2.29,
0.396,0.09,0.06,0.79,0.80,-0.60,-2.03,
0.398,0.09,0.06,0.81,0.80,-0.60,-2.03,
0.401,0.09,0.06,0.84,0.80,-0.60,-2.03,
0.401,0.09,0.06,0.84,0.87,-0.61,-1.68,
0.403,0.09,0.05,0.87,0.87,-0.61,-1.68,
0.409,0.09,0.05,0.87,0.93,-0.61,-1.23,
0.41,0.10,0.04,0.88,0.93,-0.61,-1.23,
0.41,0.11,0.04,0.91,0.93,-0.61,-1.23,
0.41,0.11,0.04,0.94,0.93,-0.61,-1.23,
0.411,0.11,0.04,0.94,1.01,-0.63,-0.75,
0.413,0.12,0.03,0.96,1.01,-0.63,-0.75,
0.415,0.12,0.03,0.96,1.12,-0.69,-0.25,
0.416,0.11,0.02,0.99,1.12,-0.69,-0.25,
0.418,0.12,0.02,1.01,1.12,-0.69,-0.25,
0.42,0.13,0.01,1.04,1.12,-0.69,-0.25,
0.421,0.13,0.01,1.04,1.16,-0.74,0.25,
0.427,0.14,0.01,1.06,1.16,-0.74,0.25,
0.427,0.14,0.01,1.08,1.16,-0.74,0.25,
0.427,0.14,0.01,1.08,1.25,-0.81,0.72,
0.428,0.15,0.01,1.10,1.25,-0.81,0.72,
0.43,0.15,0.01,1.10,1.34,-0.77,1.12,
0.43,0.15,0.02,1.11,1.34,-0.77,1.12,
0.432,0.15,0.02,1.12,1.34,-0.77,1.12,
0.435,0.15,0.02,1.14,1.34,-0.77,1.12,
0.435,0.15,0.02,1.14,1.47,-0.73,1.47,
0.445,0.15,0.03,1.15,1.47,-0.73,1.47,
0.446,0.15,0.04,1.15,1.47,-0.73,1.47,
0.446,0.15,0.04,1.15,1.44,-0.62,1.74,
0.446,0.15,0.04,1.15,1.44,-0.62,1.74,
0.446,0.15,0.05,1.15,1.44,-0.62,1.74,
0.447,0.15,0.05,1.15,1.42,-0.47,1.89,
0.447,0.14,0.05,1.14,1.42,-0.47,1.89,
0.45,0.14,0.05,1.14,1.38,-0.38,1.86,
0.451,0.15,0.06,1.13,1.38,-0.38,1.86,
0.452,0.14,0.06,1.12,1.38,-0.38,1.86,
0.468,0.14,0.06,1.12,1.37,-0.25,1.70,
0.469,0.13,0.07,1.10,1.37,-0.25,1.70,
0.469,0.13,0.08,1.08,1.37,-0.25,1.70,
0.469,0.11,0.08,1.06,1.37,-0.25,1.70,
0.469,0.11,0.08,1.06,1.28,-0.12,1.51,
0.469,0.11,0.08,1.04,1.28,-0.12,1.51,
0.469,0.10,0.08,1.01,1.28,-0.12,1.51,
0.469,0.10,0.08,1.01,1.10,0.01,1.10,
0.47,0.10,0.07,0.99,1.10,0.01,1.10,
0.47,0.09,0.07,0.97,1.10,0.01,1.10,
0.47,0.09,0.07,0.97,0.95,-0.04,0.65,
0.477,0.08,0.07,0.96,0.95,-0.04,0.65,
0.478,0.07,0.07,0.92,0.95,-0.04,0.65,
0.478,0.07,0.07,0.92,0.82,-0.09,0.20,
0.478,0.06,0.07,0.89,0.82,-0.09,0.20,
0.48,0.06,0.07,0.89,0.60,-0.11,-0.21,
0.481,0.06,0.07,0.87,0.60,-0.11,-0.21,
0.482,0.06,0.08,0.86,0.60,-0.11,-0.21,
0.485,0.06,0.08,0.86,0.48,-0.11,-0.78,
0.485,0.04,0.07,0.84,0.48,-0.11,-0.78,
0.488,0.03,0.06,0.83,0.48,-0.11,-0.78,
0.49,0.03,0.06,0.83,0.32,-0.12,-1.06,
0.49,0.02,0.06,0.82,0.32,-0.12,-1.06,
0.496,0.02,0.06,0.80,0.32,-0.12,-1.06,
0.497,0.02,0.06,0.80,0.10,-0.20,-1.30,
0.497,0.02,0.05,0.80,0.10,-0.20,-1.30,
0.497,0.01,0.05,0.80,0.10,-0.20,-1.30,
0.501,0.00,0.05,0.80,0.10,-0.20,-1.30,
0.501,0.00,0.05,0.80,-0.03,-0.31,-1.53,
0.502,0.00,0.05,0.81,-0.03,-0.31,-1.53,
0.512,0.00,0.05,0.81,-0.14,-0.34,-1.54,
0.513,-0.01,0.05,0.81,-0.14,-0.34,-1.54,
0.513,-0.01,0.05,0.83,-0.14,-0.34,-1.54,
0.513,-0.01,0.06,0.84,-0.14,-0.34,-1.54,
0.513,-0.01,0.06,0.84,-0.24,-0.34,-1.43,
0.513,-0.01,0.06,0.87,-0.24,-0.34,-1.43,
0.515,-0.00,0.07,0.89,-0.24,-0.34,-1.43,
0.516,-0.00,0.07,0.89,-0.31,-0.25,-1.18,
0.517,0.00,0.07,0.91,-0.31,-0.25,-1.18,
0.52,0.01,0.07,0.94,-0.31,-0.25,-1.18,
0.52,0.01,0.07,0.94,-0.25,-0.14,-0.74,
0.522,0.02,0.07,0.97,-0.25,-0.14,-0.74,
0.528,0.03,0.06,0.99,-0.25,-0.14,-0.74,
0.528,0.03,0.06,0.99,-0.13,-0.06,-0.29,
0.529,0.03,0.05,1.02,-0.13,-0.06,-0.29,
0.53,0.03,0.05,1.02,-0.01,-0.08,0.22,
0.531,0.05,0.03,1.03,-0.01,-0.08,0.22,
0.532,0.05,0.01,1.04,-0.01,-0.08,0.22,
0.535,0.06,0.01,1.05,-0.01,-0.08,0.22,
0.535,0.06,0.01,1.05,0.14,-0.29,0.63,
0.537,0.07,-0.01,1.06,0.14,-0.29,0.63,
0.545,0.07,-0.01,1.06,0.29,-0.54,0.87,
0.546,0.09,-0.01,1.07,0.29,-0.54,0.87,
0.546,0.09,-0.01,1.08,0.29,-0.54,0.87,
0.546,0.09,-0.01,1.07,0.29,-0.54,0.87,
0.546,0.09,-0.01,1.07,0.50,-0.68,1.02,
0.547,0.10,-0.00,1.07,0.50,-0.68,1.02,
0.55,0.10,-0.00,1.09,0.50,-0.68,1.02,
0.55,0.10,-0.00,1.09,0.58,-0.67,1.11,
0.553,0.09,-0.01,1.10,0.58,-0.67,1.11,
0.555,0.09,-0.01,1.10,0.66,-0.57,1.19,
0.555,0.08,-0.01,1.10,0.66,-0.57,1.19,
0.56,0.08,-0.02,1.09,0.66,-0.57,1.19,
0.561,0.08,-0.02,1.08,0.66,-0.57,1.19,
0.561,0.08,-0.02,1.08,0.53,-0.61,1.38,
0.562,0.07,-0.02,1.07,0.53,-0.61,1.38,
0.565,0.05,-0.02,1.07,0.53,-0.61,1.38,
0.565,0.05,-0.02,1.07,0.42,-0.67,1.19,
0.567,0.03,-0.02,1.07,0.42,-0.67,1.19,
0.57,0.03,-0.01,1.08,0.42,-0.67,1.19,
0.57,0.03,-0.01,1.08,0.21,-0.62,1.05,
0.572,0.01,-0.01,1.07,0.21,-0.62,1.05,
0.583,-0.02,-0.01,1.06,0.21,-0.62,1.05,
0.584,-0.02,-0.01,1.06,-0.08,-0.58,1.10,
0.584,-0.03,-0.01,1.05,-0.08,-0.58,1.10,
0.584,-0.03,-0.01,1.05,-0.41,-0.52,1.02,
0.585,-0.04,-0.02,1.05,-0.41,-0.52,1.02,
0.585,-0.05,-0.02,1.06,-0.41,-0.52,1.02,
0.585,-0.06,-0.02,1.06,-0.41,-0.52,1.02,
0.585,-0.06,-0.02,1.06,-0.77,-0.53,0.88,
0.586,-0.06,-0.02,1.07,-0.77,-0.53,0.88,
0.596,-0.07,-0.03,1.07,-0.77,-0.53,0.88,
0.597,-0.07,-0.03,1.07,-0.91,-0.55,0.95,
0.597,-0.07,-0.03,1.08,-0.91,-0.55,0.95,
0.597,-0.07,-0.03,1.09,-0.91,-0.55,0.95,
0.597,-0.07,-0.03,1.09,-1.03,-0.59,1.01,
0.598,-0.07,-0.04,1.09,-1.03,-0.59,1.01,
0.598,-0.06,-0.05,1.10,-1.03,-0.59,1.01,
0.599,-0.06,-0.05,1.10,-1.16,-0.63,1.18,
0.601,-0.05,-0.05,1.11,-1.16,-0.63,1.18,
0.604,-0.05,-0.05,1.11,-1.10,-0.70,1.29,
0.604,-0.05,-0.06,1.11,-1.10,-0.70,1.29,
0.613,-0.04,-0.07,1.11,-1.10,-0.70,1.29,
0.614,-0.03,-0.08,1.12,-1.10,-0.70,1.29,
0.614,-0.03,-0.08,1.12,-0.99,-0.81,1.41,
0.615,-0.02,-0.08,1.14,-0.99,-0.81,1.41,
0.615,0.00,-0.08,1.15,-0.99,-0.81,1.41,
0.615,0.00,-0.08,1.15,-0.87,-0.91,1.51,
0.616,0.01,-0.08,1.16,-0.87,-0.91,1.51,
0.618,0.03,-0.08,1.17,-0.87,-0.91,1.51,
0.619,0.03,-0.08,1.17,-0.64,-0.94,1.75,
0.62,0.04,-0.07,1.19,-0.64,-0.94,1.75,
0.629,0.05,-0.05,1.19,-0.64,-0.94,1.75,
0.63,0.05,-0.05,1.19,-0.39,-0.87,1.96,
0.63,0.07,-0.04,1.18,-0.39,-0.87,1.96,
0.63,0.07,-0.04,1.18,-0.20,-0.68,2.17,
0.631,0.08,-0.04,1.18,-0.20,-0.68,2.17,
0.631,0.09,-0.03,1.18,-0.20,-0.68,2.17,
0.633,0.10,-0.02,1.18,-0.20,-0.68,2.17,
0.633,0.10,-0.02,1.18,0.07,-0.45,2.08,
0.635,0.10,-0.02,1.17,0.07,-0.45,2.08,
0.638,0.09,-0.01,1.17,0.07,-0.45,2.08,
0.638,0.09,-0.01,1.17,0.25,-0.26,2.06,
0.644,0.08,-0.00,1.16,0.25,-0.26,2.06,
0.644,0.07,0.00,1.14,0.25,-0.26,2.06,
0.645,0.07,0.00,1.14,0.24,-0.15,1.96,
0.645,0.07,0.00,1.14,0.24,-0.15,1.96,
0.648,0.07,0.00,1.14,0.07,-0.01,1.77,
0.648,0.06,0.01,1.13,0.07,-0.01,1.77,
0.65,0.06,0.02,1.12,0.07,-0.01,1.77,
0.653,0.06,0.02,1.12,-0.08,0.08,1.63,
0.655,0.05,0.03,1.11,-0.08,0.08,1.63,
0.662,0.04,0.03,1.11,-0.08,0.08,1.63,
0.663,0.02,0.03,1.09,-0.08,0.08,1.63,
0.663,0.02,0.03,1.09,-0.18,0.27,1.41,
0.663,0.01,0.03,1.08,-0.18,0.27,1.41,
0.664,-0.01,0.02,1.08,-0.18,0.27,1.41,
0.664,-0.01,0.02,1.08,-0.39,0.32,1.24,
0.666,-0.03,0.01,1.07,-0.39,0.32,1.24,
0.668,-0.03,0.01,1.07,-0.71,0.24,1.05,
0.668,-0.04,0.00,1.05,-0.71,0.24,1.05,
0.67,-0.04,0.00,1.04,-0.71,0.24,1.05,
0.683,-0.04,0.01,1.05,-0.71,0.24,1.05,
0.684,-0.04,0.01,1.05,-1.02,0.08,0.87,
0.684,-0.03,0.01,1.04,-1.02,0.08,0.87,
0.684,-0.03,0.01,1.04,-1.04,0.06,0.70,
0.684,-0.03,0.00,1.04,-1.04,0.06,0.70,
0.685,-0.05,-0.00,1.03,-1.04,0.06,0.70,
0.685,-0.06,-0.01,1.02,-1.04,0.06,0.70,
0.685,-0.06,-0.01,1.02,-0.97,0.06,0.66,
0.686,-0.06,-0.02,1.02,-0.97,0.06,0.66,
0.688,-0.06,-0.03,1.02,-0.97,0.06,0.66,
0.688,-0.06,-0.03,1.02,-1.19,-0.04,0.51,
0.696,-0.06,-0.04,1.03,-1.19,-0.04,0.51,
0.697,-0.06,-0.05,1.03,-1.19,-0.04,0.51,
0.697,-0.06,-0.05,1.03,-1.24,-0.23,0.45,
0.697,-0.05,-0.05,1.03,-1.24,-0.23,0.45,
0.698,-0.05,-0.06,1.04,-1.24,-0.23,0.45,
0.698,-0.05,-0.06,1.04,-1.22,-0.42,0.53,
0.7,-0.03,-0.07,1.04,-1.22,-0.42,0.53,
0.703,-0.03,-0.07,1.04,-1.10,-0.52,0.60,
0.703,-0.02,-0.06,1.05,-1.10,-0.52,0.60,
0.705,-0.01,-0.06,1.05,-1.10,-0.52,0.60,
0.732,-0.01,-0.06,1.06,-1.10,-0.52,0.60,
0.732,-0.01,-0.06,1.06,-0.90,-0.58,0.71,
0.733,0.01,-0.06,1.06,-0.90,-0.58,0.71,
0.733,0.02,-0.06,1.07,-0.90,-0.58,0.71,
0.733,0.02,-0.06,1.07,-0.70,-0.47,0.78,
0.733,0.01,-0.06,1.08,-0.70,-0.47,0.78,
0.733,0.02,-0.05,1.08,-0.70,-0.47,0.78,
0.733,0.02,-0.05,1.08,-0.48,-0.44,0.89,
0.733,0.03,-0.05,1.09,-0.48,-0.44,0.89,
0.733,0.03,-0.05,1.10,-0.48,-0.44,0.89,
0.733,0.03,-0.05,1.10,-0.44,-0.39,1.06,
0.734,0.03,-0.04,1.10,-0.44,-0.39,1.06,
0.734,0.04,-0.03,1.10,-0.44,-0.39,1.06,
0.734,0.04,-0.03,1.10,-0.33,-0.31,1.16,
0.734,0.04,-0.03,1.10,-0.33,-0.31,1.16,
0.734,0.04,-0.03,1.10,-0.33,-0.31,1.16,
0.734,0.04,-0.03,1.10,-0.23,-0.17,1.23,
0.734,0.05,-0.02,1.10,-0.23,-0.17,1.23,
0.737,0.05,-0.02,1.11,-0.23,-0.17,1.23,
0.737,0.05,-0.02,1.11,-0.19,-0.06,1.24,
0.739,0.04,-0.01,1.11,-0.19,-0.06,1.24,
0.742,0.05,-0.00,1.10,-0.19,-0.06,1.24,
0.743,0.05,-0.00,1.10,-0.13,0.06,1.27,
0.744,0.05,0.00,1.10,-0.13,0.06,1.27,
0.748,0.05,-0.00,1.11,-0.13,0.06,1.27,
0.748,0.05,-0.00,1.11,-0.14,0.21,1.27,
0.75,0.04,-0.01,1.11,-0.14,0.21,1.27,
0.753,0.04,-0.01,1.11,-0.12,0.28,1.25,
0.753,0.04,-0.02,1.10,-0.12,0.28,1.25,
0.755,0.04,-0.02,1.09,-0.12,0.28,1.25,
0.759,0.03,-0.03,1.08,-0.12,0.28,1.25,
0.759,0.03,-0.03,1.08,-0.15,0.18,1.22,
0.76,0.03,-0.04,1.08,-0.15,0.18,1.22,
0.762,0.03,-0.05,1.07,-0.15,0.18,1.22,
0.763,0.03,-0.05,1.07,-0.24,0.07,1.07,
0.764,0.03,-0.06,1.07,-0.24,0.07,1.07,
0.768,0.03,-0.06,1.06,-0.24,0.07,1.07,
0.768,0.03,-0.06,1.06,-0.30,-0.12,0.93,
0.77,0.03,-0.06,1.06,-0.30,-0.12,0.93,
0.772,0.03,-0.06,1.06,-0.32,-0.24,0.85,
0.773,0.03,-0.06,1.05,-0.32,-0.24,0.85,
0.774,0.04,-0.06,1.06,-0.32,-0.24,0.85,
0.777,0.04,-0.06,1.06,-0.29,-0.26,0.75,
0.777,0.05,-0.05,1.06,-0.29,-0.26,0.75,
0.78,0.06,-0.06,1.05,-0.29,-0.26,0.75,
0.782,0.06,-0.06,1.05,-0.29,-0.26,0.75,
0.783,0.06,-0.06,1.05,-0.13,-0.19,0.76,
0.785,0.07,-0.06,1.04,-0.13,-0.19,0.76,
0.787,0.07,-0.06,1.05,-0.13,-0.19,0.76,
0.787,0.07,-0.06,1.05,0.01,-0.20,0.69,
0.79,0.07,-0.06,1.05,0.01,-0.20,0.69,
0.792,0.07,-0.05,1.04,0.01,-0.20,0.69,
0.792,0.07,-0.05,1.04,0.10,-0.20,0.65,
0.794,0.07,-0.05,1.02,0.10,-0.20,0.65,
0.797,0.07,-0.04,1.02,0.10,-0.20,0.65,
0.798,0.07,-0.04,1.02,0.14,-0.18,0.64,
0.799,0.07,-0.04,1.01,0.14,-0.18,0.64,
0.802,0.07,-0.04,1.01,0.15,-0.10,0.41,
0.802,0.07,-0.04,1.00,0.15,-0.10,0.41,
0.804,0.07,-0.03,0.99,0.15,-0.10,0.41,
0.806,0.07,-0.02,0.99,0.15,-0.10,0.41,
0.807,0.07,-0.02,0.99,0.19,-0.03,0.28,
0.809,0.06,-0.01,0.99,0.19,-0.03,0.28,
0.812,0.05,-0.00,0.98,0.19,-0.03,0.28,
0.812,0.05,-0.00,0.98,0.17,0.13,0.11,
0.814,0.05,0.00,0.98,0.17,0.13,0.11,
0.817,0.05,0.01,0.98,0.17,0.13,0.11,
0.817,0.05,0.01,0.98,0.06,0.29,0.05,
0.82,0.04,0.02,0.97,0.06,0.29,0.05,
0.822,0.03,0.03,0.96,0.06,0.29,0.05,
0.822,0.03,0.03,0.96,-0.02,0.46,-0.03,
0.824,0.03,0.04,0.96,-0.02,0.46,-0.03,
0.826,0.03,0.04,0.96,-0.10,0.64,-0.13,
0.827,0.02,0.03,0.95,-0.10,0.64,-0.13,
0.828,0.01,0.03,0.94,-0.10,0.64,-0.13,
0.831,-0.00,0.02,0.94,-0.10,0.64,-0.13,
0.831,-0.00,0.02,0.94,-0.22,0.70,-0.25,
0.833,-0.01,0.00,0.94,-0.22,0.70,-0.25,
0.836,-0.01,0.00,0.93,-0.22,0.70,-0.25,
0.836,-0.01,0.00,0.93,-0.41,0.61,-0.38,
0.838,-0.01,-0.00,0.93,-0.41,0.61,-0.38,
0.841,-0.01,-0.00,0.93,-0.41,0.61,-0.38,
0.841,-0.01,-0.00,0.93,-0.56,0.41,-0.45,
0.844,-0.01,-0.01,0.92,-0.56,0.41,-0.45,
0.847,-0.01,-0.02,0.92,-0.56,0.41,-0.45,
0.847,-0.01,-0.02,0.92,-0.52,0.35,-0.52,
0.848,-0.02,-0.02,0.92,-0.52,0.35,-0.52,
0.851,-0.02,-0.02,0.92,-0.53,0.25,-0.57,
0.851,-0.02,-0.02,0.93,-0.53,0.25,-0.57,
0.853,-0.02,-0.03,0.95,-0.53,0.25,-0.57,
0.856,-0.02,-0.03,0.95,-0.53,0.25,-0.57,
0.856,-0.02,-0.03,0.95,-0.60,0.17,-0.53,
0.861,-0.03,-0.04,0.93,-0.60,0.17,-0.53,
0.862,-0.03,-0.04,0.94,-0.60,0.17,-0.53,
0.862,-0.03,-0.04,0.94,-0.63,0.12,-0.32,
0.864,-0.02,-0.05,0.96,-0.63,0.12,-0.32,
0.866,-0.01,-0.05,0.97,-0.63,0.12,-0.32,
0.866,-0.01,-0.05,0.97,-0.69,0.04,-0.46,
0.868,-0.01,-0.06,0.97,-0.69,0.04,-0.46,
0.871,-0.01,-0.06,0.98,-0.69,0.04,-0.46,
0.871,-0.01,-0.06,0.98,-0.52,-0.02,-0.14,
0.874,-0.02,-0.07,0.98,-0.52,-0.02,-0.14,
0.876,-0.02,-0.07,0.98,-0.48,-0.12,-0.05,
0.876,-0.02,-0.07,1.00,-0.48,-0.12,-0.05,
0.878,-0.02,-0.07,1.01,-0.48,-0.12,-0.05,
0.881,-0.02,-0.07,1.01,-0.59,-0.18,0.12,
0.881,-0.03,-0.07,1.03,-0.59,-0.18,0.12,
0.883,-0.04,-0.07,1.05,-0.59,-0.18,0.12,
0.886,-0.05,-0.07,1.08,-0.59,-0.18,0.12,
0.886,-0.05,-0.07,1.08,-0.60,-0.20,0.44,
0.888,-0.06,-0.06,1.09,-0.60,-0.20,0.44,
0.891,-0.06,-0.05,1.11,-0.60,-0.20,0.44,
0.891,-0.06,-0.05,1.11,-0.75,-0.14,0.85,
0.893,-0.06,-0.05,1.12,-0.75,-0.14,0.85,
0.896,-0.07,-0.04,1.12,-0.75,-0.14,0.85,
0.896,-0.07,-0.04,1.12,-0.87,-0.03,1.18,
0.898,-0.08,-0.04,1.13,-0.87,-0.03,1.18,
0.9,-0.08,-0.04,1.13,-0.93,0.14,1.36,
0.901,-0.08,-0.04,1.14,-0.93,0.14,1.36,
0.903,-0.09,-0.04,1.15,-0.93,0.14,1.36,
0.905,-0.09,-0.04,1.17,-0.93,0.14,1.36,
0.906,-0.09,-0.04,1.17,-1.05,0.19,1.50,
0.908,-0.09,-0.01,1.22,-1.05,0.19,1.50,
0.91,-0.09,0.02,1.30,-1.05,0.19,1.50,
0.911,-0.09,0.02,1.30,-1.14,0.25,1.73,
0.913,-0.12,0.05,1.42,-1.14,0.25,1.73,
0.915,-0.15,0.05,1.53,-1.14,0.25,1.73,
0.916,-0.15,0.05,1.53,-1.10,0.68,2.72,
0.917,-0.18,0.03,1.62,-1.10,0.68,2.72,
0.92,-0.20,0.00,1.65,-1.10,0.68,2.72,
0.92,-0.20,0.00,1.65,-1.54,1.15,4.80,
0.922,-0.24,-0.03,1.65,-1.54,1.15,4.80,
0.926,-0.24,-0.03,1.65,-2.06,0.81,6.33,
0.926,-0.27,-0.06,1.63,-2.06,0.81,6.33,
0.927,-0.30,-0.09,1.60,-2.06,0.81,6.33,
0.93,-0.29,-0.12,1.58,-2.06,0.81,6.33,
0.93,-0.29,-0.12,1.58,-2.72,0.17,6.38,
0.933,-0.26,-0.14,1.55,-2.72,0.17,6.38,
0.935,-0.22,-0.15,1.49,-2.72,0.17,6.38,
0.935,-0.22,-0.15,1.49,-3.09,-0.43,5.90,
0.937,-0.17,-0.16,1.44,-3.09,-0.43,5.90,
0.941,-0.13,-0.16,1.38,-3.09,-0.43,5.90,
0.942,-0.13,-0.16,1.38,-2.60,-0.84,5.19,
0.942,-0.10,-0.15,1.31,-2.60,-0.84,5.19,
0.946,-0.06,-0.13,1.26,-2.60,-0.84,5.19,
0.946,-0.06,-0.13,1.26,-1.73,-0.97,4.06,
0.947,-0.04,-0.10,1.21,-1.73,-0.97,4.06,
0.95,-0.04,-0.10,1.21,-1.04,-0.82,2.83,
0.95,-0.02,-0.08,1.17,-1.04,-0.82,2.83,
0.952,0.01,-0.06,1.11,-1.04,-0.82,2.83,
0.955,0.03,-0.04,1.07,-1.04,-0.82,2.83,
0.955,0.03,-0.04,1.07,-0.53,-0.40,1.92,
0.958,0.05,-0.03,1.04,-0.53,-0.40,1.92,
0.961,0.06,-0.01,1.00,-0.53,-0.40,1.92,
0.961,0.06,-0.01,1.00,-0.09,-0.04,0.98,
0.962,0.06,0.00,0.97,-0.09,-0.04,0.98,
0.965,0.07,0.01,0.93,-0.09,-0.04,0.98,
0.965,0.07,0.01,0.93,0.24,0.24,0.26,
0.967,0.07,0.02,0.91,0.24,0.24,0.26,
0.97,0.06,0.03,0.90,0.24,0.24,0.26,
0.97,0.06,0.03,0.90,0.38,0.44,-0.42,
0.972,0.05,0.03,0.89,0.38,0.44,-0.42,
0.976,0.05,0.03,0.89,0.40,0.62,-0.88,
0.976,0.04,0.04,0.89,0.40,0.62,-0.88,
0.977,0.03,0.04,0.89,0.40,0.62,-0.88,
0.98,0.02,0.04,0.89,0.40,0.62,-0.88,
0.98,0.02,0.04,0.89,0.24,0.71,-1.02,
0.982,0.02,0.04,0.90,0.24,0.71,-1.02,
0.985,0.02,0.05,0.90,0.24,0.71,-1.02,
0.985,0.02,0.05,0.90,0.05,0.77,-1.06,
0.987,0.01,0.05,0.91,0.05,0.77,-1.06,
0.99,0.01,0.05,0.92,0.05,0.77,-1.06,
0.99,0.01,0.05,0.92,-0.02,0.81,-0.93,
0.996,0.01,0.05,0.94,-0.02,0.81,-0.93,
0.997,0.01,0.05,0.95,-0.02,0.81,-0.93,
0.998,0.01,0.05,0.95,-0.08,0.89,-0.75,
0.998,0.01,0.05,0.96,-0.08,0.89,-0.75,
1.0,0.01,0.05,0.96,-0.10,0.89,-0.47,
1.001,0.00,0.04,0.98,-0.10,0.89,-0.47,
1.002,0.01,0.05,1.00,-0.10,0.89,-0.47,
1.005,0.01,0.04,1.01,-0.10,0.89,-0.47,
1.005,0.01,0.04,1.01,-0.14,0.88,-0.22,
1.007,0.02,0.04,1.02,-0.14,0.88,-0.22,
1.01,0.03,0.04,1.03,-0.14,0.88,-0.22,
1.01,0.03,0.04,1.03,-0.07,0.87,0.10,
1.012,0.03,0.03,1.05,-0.07,0.87,0.10,
1.015,0.04,0.03,1.06,-0.07,0.87,0.10,
1.015,0.04,0.03,1.06,0.02,0.85,0.31,
1.017,0.04,0.03,1.06,0.02,0.85,0.31,
1.02,0.04,0.02,1.08,0.02,0.85,0.31,
1.02,0.04,0.02,1.08,0.13,0.81,0.58,
1.022,0.04,0.01,1.09,0.13,0.81,0.58,
1.026,0.04,0.01,1.09,0.19,0.77,0.76,
1.026,0.03,0.01,1.10,0.19,0.77,0.76,
1.027,0.03,-0.00,1.11,0.19,0.77,0.76,
1.03,0.02,-0.01,1.12,0.19,0.77,0.76,
1.03,0.02,-0.01,1.12,0.12,0.67,1.02,
1.032,0.02,-0.02,1.13,0.12,0.67,1.02,
1.035,0.01,-0.03,1.14,0.12,0.67,1.02,
1.035,0.01,-0.03,1.14,0.01,0.53,1.16,
1.037,0.01,-0.03,1.15,0.01,0.53,1.16,
1.04,0.01,-0.04,1.16,0.01,0.53,1.16,
1.04,0.01,-0.04,1.16,-0.11,0.40,1.38,
1.042,0.01,-0.05,1.16,-0.11,0.40,1.38,
1.044,0.00,-0.05,1.18,-0.11,0.40,1.38,
1.044,0.00,-0.05,1.18,-0.16,0.27,1.57,
1.047,0.00,-0.06,1.18,-0.16,0.27,1.57,
1.05,0.00,-0.06,1.18,-0.19,0.16,1.73,
1.05,0.01,-0.06,1.19,-0.19,0.16,1.73,
1.052,0.01,-0.07,1.20,-0.19,0.16,1.73,
1.055,0.01,-0.07,1.20,-0.18,0.10,1.87,
1.055,0.01,-0.07,1.20,-0.18,0.10,1.87,
1.057,0.01,-0.07,1.20,-0.18,0.10,1.87,
1.059,0.01,-0.08,1.20,-0.18,0.10,1.87,
1.059,0.01,-0.08,1.20,-0.13,0.05,1.97,
1.062,0.01,-0.08,1.20,-0.13,0.05,1.97,
1.065,0.01,-0.08,1.20,-0.09,-0.04,1.97,
1.065,0.02,-0.09,1.21,-0.09,-0.04,1.97,
1.067,0.02,-0.08,1.20,-0.09,-0.04,1.97,
1.069,0.03,-0.09,1.20,-0.09,-0.04,1.97,
1.07,0.03,-0.09,1.20,-0.03,-0.12,2.06,
1.072,0.04,-0.09,1.19,-0.03,-0.12,2.06,
1.078,0.04,-0.09,1.19,0.11,-0.12,1.96,
1.079,0.04,-0.09,1.20,0.11,-0.12,1.96,
1.079,0.05,-0.09,1.20,0.11,-0.12,1.96,
1.079,0.06,-0.09,1.19,0.11,-0.12,1.96,
1.08,0.06,-0.09,1.19,0.27,-0.16,1.96,
1.081,0.06,-0.09,1.19,0.27,-0.16,1.96,
1.084,0.07,-0.09,1.19,0.27,-0.16,1.96,
1.084,0.07,-0.09,1.19,0.45,-0.19,1.91,
1.087,0.07,-0.09,1.18,0.45,-0.19,1.91,
1.089,0.07,-0.09,1.19,0.45,-0.19,1.91,
1.09,0.07,-0.09,1.19,0.53,-0.19,1.85,
1.091,0.08,-0.09,1.18,0.53,-0.19,1.85,
1.094,0.08,-0.09,1.18,0.53,-0.19,1.85,
1.094,0.08,-0.09,1.18,0.59,-0.18,1.82,
1.096,0.09,-0.08,1.18,0.59,-0.18,1.82,
1.099,0.09,-0.08,1.18,0.72,-0.17,1.78,
1.1,0.09,-0.08,1.17,0.72,-0.17,1.78,
1.101,0.10,-0.08,1.16,0.72,-0.17,1.78,
1.104,0.10,-0.08,1.15,0.72,-0.17,1.78,
1.104,0.10,-0.08,1.15,0.85,-0.14,1.70,
1.106,0.09,-0.08,1.15,0.85,-0.14,1.70,
1.109,0.09,-0.08,1.15,0.85,-0.14,1.70,
1.109,0.09,-0.08,1.15,0.91,-0.14,1.53,
1.111,0.09,-0.08,1.14,0.91,-0.14,1.53,
1.113,0.09,-0.08,1.14,0.91,-0.14,1.53,
1.114,0.09,-0.08,1.14,0.85,-0.15,1.44,
1.116,0.10,-0.08,1.14,0.85,-0.15,1.44,
1.118,0.10,-0.08,1.13,0.85,-0.15,1.44,
1.119,0.10,-0.08,1.13,0.87,-0.16,1.36,
1.12,0.10,-0.07,1.13,0.87,-0.16,1.36,
1.123,0.10,-0.07,1.13,0.94,-0.15,1.31,
1.123,0.10,-0.07,1.13,0.94,-0.15,1.31,
1.126,0.09,-0.06,1.13,0.94,-0.15,1.31,
1.128,0.09,-0.06,1.13,0.94,-0.15,1.31,
1.128,0.09,-0.06,1.13,0.90,-0.07,1.28,
1.131,0.08,-0.06,1.13,0.90,-0.07,1.28,
1.133,0.07,-0.06,1.12,0.90,-0.07,1.28,
1.133,0.07,-0.06,1.12,0.80,0.01,1.24,
1.135,0.06,-0.05,1.12,0.80,0.01,1.24,
1.138,0.06,-0.05,1.11,0.80,0.01,1.24,
1.138,0.06,-0.05,1.11,0.68,0.04,1.18,
1.14,0.06,-0.05,1.11,0.68,0.04,1.18,
1.145,0.05,-0.05,1.11,0.68,0.04,1.18,
1.146,0.05,-0.05,1.11,0.54,0.07,1.12,
1.146,0.05,-0.05,1.11,0.54,0.07,1.12,
1.148,0.05,-0.05,1.11,0.46,0.08,1.07,
1.15,0.05,-0.05,1.11,0.46,0.08,1.07,
1.15,0.05,-0.05,1.11,0.46,0.08,1.07,
1.153,0.04,-0.04,1.10,0.46,0.08,1.07,
1.153,0.04,-0.04,1.10,0.40,0.07,1.04,
1.155,0.04,-0.04,1.10,0.40,0.07,1.04,
1.159,0.03,-0.03,1.10,0.40,0.07,1.04,
1.16,0.03,-0.03,1.10,0.33,0.12,0.97,
1.16,0.03,-0.03,1.11,0.33,0.12,0.97,
1.163,0.03,-0.03,1.10,0.33,0.12,0.97,
1.163,0.03,-0.03,1.10,0.24,0.18,0.97,
1.165,0.03,-0.03,1.10,0.24,0.18,0.97,
1.168,0.03,-0.03,1.11,0.24,0.18,0.97,
1.168,0.03,-0.03,1.11,0.19,0.22,0.96,
1.17,0.04,-0.03,1.11,0.19,0.22,0.96,
1.173,0.04,-0.03,1.11,0.22,0.22,0.98,
1.173,0.04,-0.03,1.12,0.22,0.22,0.98,
1.175,0.06,-0.03,1.11,0.22,0.22,0.98,
1.178,0.06,-0.02,1.12,0.22,0.22,0.98,
1.178,0.06,-0.02,1.12,0.29,0.23,1.09,
1.18,0.06,-0.02,1.12,0.29,0.23,1.09,
1.183,0.07,-0.02,1.13,0.29,0.23,1.09,
1.183,0.07,-0.02,1.13,0.46,0.25,1.06,
1.185,0.08,-0.02,1.13,0.46,0.25,1.06,
1.188,0.08,-0.02,1.14,0.46,0.25,1.06,
1.188,0.08,-0.02,1.14,0.53,0.30,1.13,
1.19,0.08,-0.02,1.14,0.53,0.30,1.13,
1.197,0.09,-0.02,1.15,0.53,0.30,1.13,
1.197,0.09,-0.02,1.15,0.65,0.32,1.22,
1.198,0.09,-0.02,1.15,0.65,0.32,1.22,
1.198,0.09,-0.02,1.15,0.71,0.25,1.32,
1.198,0.08,-0.02,1.15,0.71,0.25,1.32,
1.2,0.09,-0.02,1.15,0.71,0.25,1.32,
1.203,0.09,-0.02,1.15,0.71,0.25,1.32,
1.203,0.09,-0.02,1.15,0.73,0.23,1.39,
1.205,0.09,-0.02,1.14,0.73,0.23,1.39,
1.207,0.08,-0.02,1.13,0.73,0.23,1.39,
1.208,0.08,-0.02,1.13,0.75,0.24,1.37,
1.211,0.07,-0.02,1.10,0.75,0.24,1.37,
1.212,0.08,-0.02,1.10,0.75,0.24,1.37,
1.213,0.08,-0.02,1.10,0.71,0.21,1.19,
1.215,0.07,-0.02,1.11,0.71,0.21,1.19,
1.217,0.07,-0.01,1.11,0.71,0.21,1.19,
1.218,0.07,-0.01,1.11,0.63,0.23,0.93,
1.219,0.08,-0.01,1.10,0.63,0.23,0.93,
1.222,0.08,-0.01,1.10,0.62,0.24,0.98,
1.222,0.07,-0.01,1.10,0.62,0.24,0.98,
1.226,0.07,-0.02,1.10,0.62,0.24,0.98,
1.227,0.06,-0.02,1.09,0.62,0.24,0.98,
1.227,0.06,-0.02,1.09,0.64,0.26,0.91,
1.229,0.06,-0.01,1.09,0.64,0.26,0.91,
1.232,0.05,-0.02,1.08,0.64,0.26,0.91,
1.233,0.05,-0.02,1.08,0.51,0.18,0.85,
1.234,0.05,-0.02,1.07,0.51,0.18,0.85,
1.237,0.05,-0.02,1.07,0.51,0.18,0.85,
1.237,0.05,-0.02,1.07,0.42,0.16,0.74,
1.239,0.05,-0.02,1.07,0.42,0.16,0.74,
1.243,0.05,-0.02,1.05,0.42,0.16,0.74,
1.243,0.05,-0.02,1.05,0.38,0.08,0.56,
1.244,0.04,-0.02,1.05,0.38,0.08,0.56,
1.247,0.04,-0.02,1.05,0.35,0.07,0.48,
1.247,0.05,-0.02,1.05,0.35,0.07,0.48,
1.249,0.05,-0.02,1.05,0.35,0.07,0.48,
1.252,0.05,-0.01,1.05,0.35,0.07,0.48,
1.252,0.05,-0.01,1.05,0.30,0.06,0.38,
1.254,0.06,-0.01,1.05,0.30,0.06,0.38,
1.257,0.06,-0.00,1.05,0.30,0.06,0.38,
1.257,0.06,-0.00,1.05,0.37,0.10,0.39,
1.26,0.06,0.00,1.06,0.37,0.10,0.39,
1.262,0.05,0.01,1.05,0.37,0.10,0.39,
1.263,0.05,0.01,1.05,0.40,0.19,0.39,
1.264,0.05,0.01,1.05,0.40,0.19,0.39,
1.267,0.05,0.01,1.06,0.40,0.19,0.39,
1.267,0.05,0.01,1.06,0.36,0.25,0.42,
1.269,0.04,0.01,1.06,0.36,0.25,0.42,
1.272,0.04,0.01,1.06,0.33,0.32,0.43,
1.272,0.03,0.01,1.07,0.33,0.32,0.43,
1.274,0.02,0.01,1.07,0.33,0.32,0.43,
1.278,0.02,0.01,1.07,0.33,0.32,0.43,
1.278,0.02,0.01,1.07,0.18,0.26,0.52,
1.279,0.01,0.00,1.07,0.18,0.26,0.52,
1.282,0.01,0.00,1.07,0.18,0.26,0.52,
1.282,0.01,0.00,1.07,0.01,0.26,0.54,
1.284,0.00,0.00,1.07,0.01,0.26,0.54,
1.287,-0.00,0.00,1.07,0.01,0.26,0.54,
1.287,-0.00,0.00,1.07,-0.09,0.15,0.58,
1.289,0.00,0.00,1.06,-0.09,0.15,0.58,
1.298,0.00,0.00,1.05,-0.09,0.15,0.58,
1.298,0.00,0.00,1.05,-0.18,0.13,0.54,
1.298,0.00,0.01,1.05,-0.18,0.13,0.54,
1.299,0.00,0.01,1.05,-0.14,0.11,0.41,
1.299,0.00,0.00,1.05,-0.14,0.11,0.41,
1.299,-0.00,0.00,1.05,-0.14,0.11,0.41,
1.302,-0.01,-0.00,1.04,-0.14,0.11,0.41,
1.302,-0.01,-0.00,1.04,-0.14,0.12,0.36,
1.304,-0.01,-0.01,1.05,-0.14,0.12,0.36,
1.306,-0.01,-0.01,1.05,-0.14,0.12,0.36,
1.307,-0.01,-0.01,1.05,-0.23,0.05,0.32,
1.31,-0.01,-0.01,1.05,-0.23,0.05,0.32,
1.311,-0.01,-0.02,1.04,-0.23,0.05,0.32,
1.312,-0.01,-0.02,1.04,-0.27,-0.09,0.35,
1.314,-0.00,-0.01,1.04,-0.27,-0.09,0.35,
1.317,-0.00,-0.01,1.03,-0.27,-0.09,0.35,
1.317,-0.00,-0.01,1.03,-0.24,-0.13,0.30,
1.319,0.00,-0.01,1.02,-0.24,-0.13,0.30,
1.322,0.00,-0.01,1.02,-0.20,-0.10,0.18,
1.322,0.00,-0.00,1.02,-0.20,-0.10,0.18,
1.324,0.00,0.01,1.03,-0.20,-0.10,0.18,
1.329,0.00,0.01,1.01,-0.20,-0.10,0.18,
1.33,0.00,0.01,1.01,-0.14,-0.07,0.08,
1.33,-0.00,0.01,1.01,-0.14,-0.07,0.08,
1.332,-0.00,0.01,1.01,-0.16,0.03,0.05,
1.332,0.00,0.01,1.00,-0.16,0.03,0.05,
1.333,0.00,0.01,1.00,-0.16,0.03,0.05,
1.337,-0.00,0.01,0.99,-0.16,0.03,0.05,
1.337,-0.00,0.01,0.99,-0.20,0.00,-0.11,
1.339,0.00,0.01,0.99,-0.20,0.00,-0.11,
1.342,0.00,0.01,0.99,-0.21,0.01,-0.17,
1.342,0.00,0.01,0.99,-0.21,0.01,-0.17,
1.344,0.00,0.01,0.99,-0.21,0.01,-0.17,
1.346,0.00,0.01,0.99,-0.19,0.00,-0.22,
1.347,-0.00,0.01,0.98,-0.19,0.00,-0.22,
1.348,-0.00,0.01,0.98,-0.19,0.00,-0.22,
1.352,-0.01,0.01,0.98,-0.19,0.00,-0.22,
1.352,-0.01,0.01,0.98,-0.21,0.00,-0.25,
1.354,-0.01,0.01,0.98,-0.21,0.00,-0.25,
1.357,-0.02,-0.00,0.98,-0.21,0.00,-0.25,
1.357,-0.02,-0.00,0.98,-0.26,-0.03,-0.31,
1.359,-0.01,0.00,0.98,-0.26,-0.03,-0.31,
1.361,-0.00,0.00,0.98,-0.26,-0.03,-0.31,
1.362,-0.00,0.00,0.98,-0.37,-0.15,-0.30,
1.363,0.00,0.00,0.97,-0.37,-0.15,-0.30,
1.366,0.00,0.00,0.97,-0.28,-0.16,-0.32,
1.367,0.00,0.01,0.97,-0.28,-0.16,-0.32,
1.369,0.01,0.01,0.97,-0.28,-0.16,-0.32,
1.372,0.01,0.01,0.97,-0.21,-0.17,-0.39,
1.372,0.01,0.02,0.97,-0.21,-0.17,-0.39,
1.374,0.01,0.02,0.98,-0.21,-0.17,-0.39,
1.376,0.01,0.03,0.98,-0.21,-0.17,-0.39,
1.376,0.01,0.03,0.98,-0.13,-0.07,-0.38,
1.379,0.01,0.03,0.99,-0.13,-0.07,-0.38,
1.382,0.01,0.03,0.99,-0.13,-0.07,-0.38,
1.382,0.01,0.03,0.99,-0.11,-0.00,-0.29,
1.384,0.00,0.03,0.99,-0.11,-0.00,-0.29,
1.387,-0.00,0.03,0.99,-0.11,-0.00,-0.29,
1.387,-0.00,0.03,0.99,-0.13,0.06,-0.21,
1.389,-0.00,0.03,0.98,-0.13,0.06,-0.21,
1.392,-0.00,0.03,0.98,-0.13,0.06,-0.21,
1.392,-0.00,0.03,0.98,-0.19,0.06,-0.22,
1.394,-0.01,0.04,0.99,-0.19,0.06,-0.22,
1.396,-0.01,0.04,0.99,-0.24,0.03,-0.28,
1.396,-0.01,0.04,0.99,-0.24,0.03,-0.28,
1.399,-0.02,0.03,0.98,-0.24,0.03,-0.28,
1.402,-0.03,0.03,0.98,-0.24,0.03,-0.28,
1.402,-0.03,0.03,0.98,-0.31,0.05,-0.26,
1.403,-0.04,0.03,0.98,-0.31,0.05,-0.26,
1.406,-0.04,0.03,0.98,-0.31,0.05,-0.26,
1.406,-0.04,0.03,0.98,-0.44,0.01,-0.32,
1.408,-0.04,0.02,0.99,-0.44,0.01,-0.32,
1.414,-0.04,0.02,0.99,-0.54,-0.05,-0.29,
1.414,-0.05,0.02,0.99,-0.54,-0.05,-0.29,
1.415,-0.04,0.02,0.98,-0.54,-0.05,-0.29,
1.416,-0.04,0.02,0.98,-0.54,-0.05,-0.29,
1.416,-0.04,0.02,0.98,-0.59,-0.12,-0.23,
1.418,-0.03,0.02,0.98,-0.59,-0.12,-0.23,
1.42,-0.03,0.02,0.98,-0.53,-0.13,-0.32,
1.421,-0.03,0.02,0.99,-0.53,-0.13,-0.32,
1.423,-0.02,0.03,0.98,-0.53,-0.13,-0.32,
1.426,-0.02,0.03,0.98,-0.53,-0.13,-0.32,
1.426,-0.02,0.03,0.98,-0.49,-0.15,-0.24,
1.429,-0.02,0.03,0.98,-0.49,-0.15,-0.24,
1.43,-0.01,0.03,0.99,-0.49,-0.15,-0.24,
1.431,-0.01,0.03,0.99,-0.40,-0.11,-0.29,
1.433,-0.01,0.03,1.00,-0.40,-0.11,-0.29,
1.436,-0.01,0.03,1.01,-0.40,-0.11,-0.29,
1.436,-0.01,0.03,1.01,-0.28,-0.11,-0.23,
1.438,-0.01,0.03,1.01,-0.28,-0.11,-0.23,
1.441,-0.00,0.03,1.01,-0.28,-0.11,-0.23,
1.441,-0.00,0.03,1.01,-0.26,-0.10,-0.03,
1.444,-0.01,0.03,1.02,-0.26,-0.10,-0.03,
1.445,-0.01,0.03,1.02,-0.26,-0.12,-0.00,
1.446,-0.01,0.03,1.02,-0.26,-0.12,-0.00,
1.447,-0.01,0.02,1.03,-0.26,-0.12,-0.00,
1.45,-0.01,0.02,1.03,-0.29,-0.14,0.07,
1.45,-0.01,0.02,1.03,-0.29,-0.14,0.07,
1.452,-0.01,0.01,1.03,-0.29,-0.14,0.07,
1.455,-0.01,0.01,1.01,-0.29,-0.14,0.07,
1.455,-0.01,0.01,1.01,-0.32,-0.21,0.20,
1.457,-0.01,0.01,1.01,-0.32,-0.21,0.20,
1.461,-0.01,0.01,1.02,-0.32,-0.21,0.20,
1.461,-0.01,0.01,1.02,-0.31,-0.29,0.06,
1.463,-0.01,0.01,1.03,-0.31,-0.29,0.06,
1.465,-0.02,0.01,1.02,-0.31,-0.29,0.06,
1.465,-0.02,0.01,1.02,-0.31,-0.31,0.03,
1.467,-0.03,0.01,1.01,-0.31,-0.31,0.03,
1.47,-0.03,0.01,1.01,-0.37,-0.38,0.10,
1.47,-0.03,0.01,1.00,-0.37,-0.38,0.10,
1.472,-0.04,0.01,1.00,-0.37,-0.38,0.10,
1.475,-0.04,0.01,1.00,-0.37,-0.38,0.10,
1.475,-0.04,0.01,1.00,-0.50,-0.38,-0.03,
1.477,-0.04,0.02,0.99,-0.50,-0.38,-0.03,
1.48,-0.04,0.02,0.99,-0.56,-0.37,-0.12,
1.48,-0.04,0.02,0.98,-0.56,-0.37,-0.12,
1.482,-0.04,0.03,0.97,-0.56,-0.37,-0.12,
1.485,-0.04,0.03,0.97,-0.55,-0.31,-0.27,
1.485,-0.04,0.03,0.95,-0.55,-0.31,-0.27,
1.487,-0.04,0.04,0.94,-0.55,-0.31,-0.27,
1.489,-0.05,0.04,0.92,-0.55,-0.31,-0.27,
1.49,-0.05,0.04,0.92,-0.57,-0.26,-0.49,
1.492,-0.05,0.05,0.91,-0.57,-0.26,-0.49,
1.495,-0.05,0.05,0.91,-0.62,-0.17,-0.77,
1.495,-0.06,0.05,0.90,-0.62,-0.17,-0.77,
1.497,-0.07,0.06,0.89,-0.62,-0.17,-0.77,
1.499,-0.07,0.07,0.88,-0.62,-0.17,-0.77,
1.5,-0.07,0.07,0.88,-0.71,-0.08,-1.04,
1.502,-0.08,0.07,0.87,-0.71,-0.08,-1.04,
1.504,-0.08,0.07,0.86,-0.71,-0.08,-1.04,
1.505,-0.08,0.07,0.86,-0.84,0.03,-1.22,
1.507,-0.08,0.08,0.86,-0.84,0.03,-1.22,
1.516,-0.08,0.08,0.86,-0.84,0.03,-1.22,
1.516,-0.08,0.08,0.86,-0.90,0.07,-1.39,
1.516,-0.08,0.08,0.85,-0.90,0.07,-1.39,
1.517,-0.08,0.08,0.84,-0.90,0.07,-1.39,
1.518,-0.08,0.08,0.84,-0.92,0.10,-1.48,
1.518,-0.08,0.08,0.84,-0.92,0.10,-1.48,
1.519,-0.08,0.08,0.84,-0.89,0.12,-1.59,
1.519,-0.08,0.08,0.84,-0.89,0.12,-1.59,
1.521,-0.07,0.09,0.84,-0.89,0.12,-1.59,
1.524,-0.07,0.09,0.85,-0.89,0.12,-1.59,
1.525,-0.07,0.09,0.85,-0.89,0.12,-1.61,
1.528,-0.06,0.09,0.86,-0.89,0.12,-1.61,
1.529,-0.06,0.08,0.86,-0.89,0.12,-1.61,
1.529,-0.06,0.08,0.86,-0.77,0.14,-1.58,
1.531,-0.05,0.07,0.87,-0.77,0.14,-1.58,
1.534,-0.04,0.07,0.88,-0.77,0.14,-1.58,
1.534,-0.04,0.07,0.88,-0.67,0.11,-1.44,
1.536,-0.04,0.06,0.89,-0.67,0.11,-1.44,
1.539,-0.03,0.06,0.90,-0.67,0.11,-1.44,
1.54,-0.03,0.06,0.90,-0.55,-0.03,-1.29,
1.541,-0.03,0.05,0.91,-0.55,-0.03,-1.29,
1.546,-0.03,0.05,0.91,-0.45,-0.12,-1.11,
1.546,-0.03,0.04,0.92,-0.45,-0.12,-1.11,
1.547,-0.02,0.05,0.93,-0.45,-0.12,-1.11,
1.549,-0.01,0.04,0.94,-0.45,-0.12,-1.11,
1.549,-0.01,0.04,0.94,-0.38,-0.26,-0.90,
1.551,-0.01,0.04,0.94,-0.38,-0.26,-0.90,
1.554,-0.00,0.04,0.95,-0.38,-0.26,-0.90,
1.554,-0.00,0.04,0.95,-0.24,-0.30,-0.67,
1.556,0.00,0.04,0.97,-0.24,-0.30,-0.67,
1.559,0.00,0.04,0.98,-0.24,-0.30,-0.67,
1.559,0.00,0.04,0.98,-0.14,-0.34,-0.61,
1.563,-0.00,0.04,0.98,-0.14,-0.34,-0.61,
1.564,-0.01,0.04,0.98,-0.14,-0.34,-0.61,
1.564,-0.01,0.04,0.98,-0.08,-0.33,-0.27,
1.566,-0.00,0.04,0.99,-0.08,-0.33,-0.27,
1.569,-0.00,0.04,0.99,-0.13,-0.31,-0.26,
1.569,-0.01,0.03,1.00,-0.13,-0.31,-0.26,
1.571,-0.01,0.03,1.01,-0.13,-0.31,-0.26,
1.574,-0.02,0.03,1.01,-0.13,-0.31,-0.26,
1.574,-0.02,0.03,1.01,-0.14,-0.37,-0.14,
1.576,-0.02,0.04,1.01,-0.14,-0.37,-0.14,
1.579,-0.03,0.04,1.01,-0.14,-0.37,-0.14,
1.579,-0.03,0.04,1.01,-0.23,-0.42,0.05,
1.581,-0.03,0.04,1.00,-0.23,-0.42,0.05,
1.584,-0.04,0.04,1.00,-0.23,-0.42,0.05,
1.584,-0.04,0.04,1.00,-0.34,-0.38,0.05,
1.586,-0.05,0.04,0.99,-0.34,-0.38,0.05,
1.588,-0.05,0.04,0.99,-0.42,-0.38,-0.02,
1.589,-0.05,0.04,0.98,-0.42,-0.38,-0.02,
1.591,-0.06,0.04,0.97,-0.42,-0.38,-0.02,
1.595,-0.06,0.04,0.97,-0.55,-0.36,-0.18,
1.595,-0.07,0.04,0.96,-0.55,-0.36,-0.18,
1.596,-0.07,0.05,0.95,-0.55,-0.36,-0.18,
1.599,-0.08,0.05,0.93,-0.55,-0.36,-0.18,
1.599,-0.08,0.05,0.93,-0.66,-0.36,-0.36,
1.601,-0.09,0.05,0.92,-0.66,-0.36,-0.36,
1.604,-0.09,0.06,0.91,-0.66,-0.36,-0.36,
1.604,-0.09,0.06,0.91,-0.81,-0.31,-0.63,
1.606,-0.10,0.06,0.90,-0.81,-0.31,-0.63,
1.608,-0.10,0.07,0.89,-0.81,-0.31,-0.63,
1.609,-0.10,0.07,0.89,-0.92,-0.29,-0.86,
1.611,-0.10,0.07,0.89,-0.92,-0.29,-0.86,
1.613,-0.11,0.08,0.88,-0.92,-0.29,-0.86,
1.614,-0.11,0.08,0.88,-1.00,-0.22,-1.07,
1.616,-0.12,0.08,0.87,-1.00,-0.22,-1.07,
1.618,-0.12,0.08,0.87,-1.07,-0.13,-1.15,
1.619,-0.12,0.08,0.87,-1.07,-0.13,-1.15,
1.62,-0.12,0.08,0.86,-1.07,-0.13,-1.15,
1.623,-0.13,0.08,0.86,-1.07,-0.13,-1.15,
1.624,-0.13,0.08,0.86,-1.14,-0.09,-1.31,
1.625,-0.12,0.09,0.86,-1.14,-0.09,-1.31,
1.632,-0.12,0.08,0.86,-1.14,-0.09,-1.31,
1.633,-0.12,0.08,0.86,-1.21,-0.11,-1.36,
1.633,-0.12,0.08,0.87,-1.21,-0.11,-1.36,
1.633,-0.11,0.09,0.88,-1.21,-0.11,-1.36,
1.634,-0.11,0.09,0.88,-1.16,-0.09,-1.37,
1.636,-0.10,0.09,0.88,-1.16,-0.09,-1.37,
1.638,-0.10,0.08,0.89,-1.16,-0.09,-1.37,
1.638,-0.10,0.08,0.89,-1.08,-0.09,-1.26,
1.64,-0.09,0.08,0.90,-1.08,-0.09,-1.26,
1.643,-0.09,0.08,0.90,-0.98,-0.11,-1.15,
1.645,-0.08,0.08,0.92,-0.98,-0.11,-1.15,
1.646,-0.07,0.07,0.93,-0.98,-0.11,-1.15,
1.651,-0.06,0.07,0.94,-0.98,-0.11,-1.15,
1.651,-0.06,0.07,0.94,-0.80,-0.17,-0.92,
1.652,-0.05,0.06,0.96,-0.80,-0.17,-0.92,
1.653,-0.04,0.06,0.98,-0.80,-0.17,-0.92,
1.654,-0.04,0.06,0.98,-0.62,-0.24,-0.62,
1.656,-0.03,0.05,0.99,-0.62,-0.24,-0.62,
1.658,-0.02,0.05,1.00,-0.62,-0.24,-0.62,
1.659,-0.02,0.05,1.00,-0.44,-0.33,-0.29,
1.66,-0.02,0.04,1.02,-0.44,-0.33,-0.29,
1.664,-0.00,0.04,1.03,-0.44,-0.33,-0.29,
1.665,-0.00,0.04,1.03,-0.30,-0.43,-0.06,
1.665,0.01,0.05,1.03,-0.30,-0.43,-0.06,
1.669,0.01,0.05,1.03,-0.16,-0.51,0.21,
1.669,0.01,0.05,1.03,-0.16,-0.51,0.21,
1.671,0.01,0.05,1.02,-0.16,-0.51,0.21,
1.673,0.01,0.05,1.02,-0.16,-0.51,0.21,
1.673,0.01,0.05,1.02,-0.00,-0.46,0.29,
1.676,0.01,0.05,1.02,-0.00,-0.46,0.29,
1.679,0.01,0.05,1.02,-0.00,-0.46,0.29,
1.679,0.01,0.05,1.02,0.02,-0.46,0.20,
1.681,0.00,0.05,1.01,0.02,-0.46,0.20,
1.683,-0.00,0.05,0.99,0.02,-0.46,0.20,
1.683,-0.00,0.05,0.99,-0.00,-0.45,0.18,
1.686,-0.01,0.05,0.98,-0.00,-0.45,0.18,
1.688,-0.02,0.05,0.97,-0.00,-0.45,0.18,
1.688,-0.02,0.05,0.97,-0.14,-0.49,-0.02,
1.69,-0.02,0.06,0.95,-0.14,-0.49,-0.02,
1.694,-0.02,0.06,0.95,-0.26,-0.52,-0.23,
1.694,-0.03,0.07,0.93,-0.26,-0.52,-0.23,
1.696,-0.03,0.07,0.91,-0.26,-0.52,-0.23,
1.698,-0.03,0.08,0.90,-0.26,-0.52,-0.23,
1.698,-0.03,0.08,0.90,-0.37,-0.44,-0.55,
1.701,-0.04,0.08,0.89,-0.37,-0.44,-0.55,
1.703,-0.05,0.09,0.87,-0.37,-0.44,-0.55,
1.703,-0.05,0.09,0.87,-0.44,-0.30,-0.93,
1.705,-0.05,0.10,0.86,-0.44,-0.30,-0.93,
1.708,-0.05,0.10,0.85,-0.44,-0.30,-0.93,
1.708,-0.05,0.10,0.85,-0.58,-0.24,-1.17,
1.709,-0.06,0.11,0.83,-0.58,-0.24,-1.17,
1.713,-0.06,0.11,0.83,-0.58,-0.24,-1.17,
1.714,-0.06,0.11,0.83,-0.64,-0.14,-1.38,
1.715,-0.06,0.11,0.82,-0.64,-0.14,-1.38,
1.718,-0.06,0.11,0.82,-0.74,-0.07,-1.64,
1.719,-0.06,0.11,0.81,-0.74,-0.07,-1.64,
1.72,-0.06,0.13,0.80,-0.74,-0.07,-1.64,
1.722,-0.06,0.13,0.79,-0.74,-0.07,-1.64,
1.723,-0.06,0.13,0.79,-0.76,-0.06,-1.77,
1.725,-0.06,0.13,0.79,-0.76,-0.06,-1.77,
1.733,-0.05,0.13,0.79,-0.76,-0.06,-1.77,
1.733,-0.05,0.13,0.79,-0.73,0.05,-1.95,
1.734,-0.05,0.14,0.79,-0.73,0.05,-1.95,
1.734,-0.05,0.14,0.79,-0.73,0.05,-1.95,
1.734,-0.05,0.14,0.79,-0.71,0.10,-2.00,
1.734,-0.04,0.14,0.80,-0.71,0.10,-2.00,
1.738,-0.03,0.14,0.80,-0.71,0.10,-2.00,
1.738,-0.03,0.14,0.80,-0.64,0.11,-1.98,
1.74,-0.02,0.14,0.80,-0.64,0.11,-1.98,
1.743,-0.02,0.14,0.80,-0.53,0.11,-1.92,
1.743,-0.02,0.14,0.81,-0.53,0.11,-1.92,
1.744,-0.01,0.14,0.82,-0.53,0.11,-1.92,
1.747,-0.01,0.13,0.83,-0.53,0.11,-1.92,
1.748,-0.01,0.13,0.83,-0.37,0.12,-1.82,
1.749,-0.01,0.12,0.84,-0.37,0.12,-1.82,
1.752,-0.01,0.12,0.85,-0.37,0.12,-1.82,
1.753,-0.01,0.12,0.85,-0.28,0.06,-1.63,
1.755,0.00,0.11,0.86,-0.28,0.06,-1.63,
1.758,0.01,0.12,0.86,-0.28,0.06,-1.63,
1.758,0.01,0.12,0.86,-0.23,-0.05,-1.46,
1.76,0.01,0.12,0.87,-0.23,-0.05,-1.46,
1.763,0.02,0.12,0.88,-0.23,-0.05,-1.46,
1.764,0.02,0.12,0.88,-0.11,-0.15,-1.28,
1.764,0.02,0.13,0.89,-0.11,-0.15,-1.28,
1.767,0.02,0.13,0.89,-0.02,-0.08,-1.16,
1.768,0.02,0.13,0.89,-0.02,-0.08,-1.16,
1.77,0.02,0.14,0.90,-0.02,-0.08,-1.16,
1.772,0.02,0.14,0.90,-0.02,-0.08,-1.16,
1.773,0.02,0.14,0.90,0.03,0.01,-0.99,
1.775,0.02,0.14,0.90,0.03,0.01,-0.99,
1.777,0.02,0.13,0.91,0.03,0.01,-0.99,
1.778,0.02,0.13,0.91,0.03,0.09,-0.90,
1.78,0.02,0.14,0.91,0.03,0.09,-0.90,
1.782,0.02,0.14,0.91,0.03,0.09,-0.90,
1.782,0.02,0.14,0.91,0.05,0.07,-0.82,
1.785,0.01,0.14,0.93,0.05,0.07,-0.82,
1.787,0.02,0.14,0.93,0.05,0.07,-0.82,
1.788,0.02,0.14,0.93,-0.02,0.08,-0.75,
1.789,0.01,0.14,0.92,-0.02,0.08,-0.75,
1.792,0.01,0.14,0.92,-0.06,0.07,-0.64,
1.793,0.01,0.14,0.93,-0.06,0.07,-0.64,
1.796,0.01,0.14,0.94,-0.06,0.07,-0.64,
1.797,0.01,0.14,0.93,-0.06,0.07,-0.64,
1.797,0.01,0.14,0.93,-0.09,0.10,-0.60,
1.799,0.00,0.14,0.93,-0.09,0.10,-0.60,
1.802,-0.00,0.14,0.94,-0.09,0.10,-0.60,
1.803,-0.00,0.14,0.94,-0.10,0.12,-0.55,
1.805,-0.01,0.13,0.93,-0.10,0.12,-0.55,
1.807,-0.01,0.13,0.93,-0.10,0.12,-0.55,
1.807,-0.01,0.13,0.93,-0.17,0.07,-0.56,
1.81,-0.02,0.12,0.93,-0.17,0.07,-0.56,
1.813,-0.02,0.12,0.93,-0.29,-0.00,-0.59,
1.813,-0.02,0.12,0.92,-0.29,-0.00,-0.59,
1.814,-0.02,0.12,0.92,-0.29,-0.00,-0.59,
1.817,-0.02,0.12,0.92,-0.38,-0.10,-0.63,
1.817,-0.03,0.12,0.91,-0.38,-0.10,-0.63,
1.819,-0.03,0.12,0.92,-0.38,-0.10,-0.63,
1.822,-0.03,0.12,0.91,-0.38,-0.10,-0.63,
1.822,-0.03,0.12,0.91,-0.43,-0.12,-0.74,
1.824,-0.04,0.12,0.91,-0.43,-0.12,-0.74,
1.827,-0.04,0.12,0.91,-0.49,-0.13,-0.74,
1.827,-0.04,0.12,0.90,-0.49,-0.13,-0.74,
1.833,-0.04,0.12,0.91,-0.49,-0.13,-0.74,
1.834,-0.04,0.13,0.91,-0.49,-0.13,-0.74,
1.834,-0.04,0.13,0.91,-0.55,-0.11,-0.83,
1.834,-0.05,0.13,0.91,-0.55,-0.11,-0.83,
1.836,-0.05,0.13,0.91,-0.56,-0.07,-0.81,
1.836,-0.05,0.13,0.91,-0.56,-0.07,-0.81,
1.838,-0.05,0.12,0.91,-0.56,-0.07,-0.81,
1.841,-0.05,0.12,0.91,-0.64,-0.03,-0.79,
1.841,-0.06,0.12,0.92,-0.64,-0.03,-0.79,
1.843,-0.06,0.12,0.92,-0.64,-0.03,-0.79,
1.847,-0.06,0.12,0.92,-0.64,-0.03,-0.79,
1.847,-0.06,0.12,0.92,-0.69,-0.08,-0.75,
1.848,-0.05,0.11,0.92,-0.69,-0.08,-0.75,
1.852,-0.05,0.11,0.93,-0.69,-0.08,-0.75,
1.852,-0.05,0.11,0.93,-0.74,-0.10,-0.68,
1.853,-0.05,0.12,0.94,-0.74,-0.10,-0.68,
1.856,-0.05,0.12,0.94,-0.74,-0.10,-0.68,
1.856,-0.05,0.12,0.94,-0.66,-0.17,-0.61,
1.858,-0.04,0.11,0.95,-0.66,-0.17,-0.61,
1.862,-0.03,0.12,0.96,-0.66,-0.17,-0.61,
1.863,-0.03,0.12,0.96,-0.61,-0.15,-0.51,
1.863,-0.03,0.12,0.97,-0.61,-0.15,-0.51,
1.866,-0.03,0.12,0.97,-0.51,-0.13,-0.32,
1.866,-0.02,0.12,0.97,-0.51,-0.13,-0.32,
1.868,-0.02,0.12,0.98,-0.51,-0.13,-0.32,
1.871,-0.02,0.12,0.99,-0.51,-0.13,-0.32,
1.871,-0.02,0.12,0.99,-0.40,-0.11,-0.20,
1.873,-0.01,0.12,0.99,-0.40,-0.11,-0.20,
1.877,-0.01,0.12,0.99,-0.40,-0.11,-0.20,
1.877,-0.01,0.12,0.99,-0.33,-0.09,-0.06,
1.88,-0.01,0.12,1.00,-0.33,-0.09,-0.06,
1.882,-0.01,0.12,1.00,-0.33,-0.09,-0.06,
1.882,-0.01,0.12,1.00,-0.25,-0.07,0.03,
1.883,-0.01,0.12,1.00,-0.25,-0.07,0.03,
1.886,-0.01,0.12,1.00,-0.25,-0.07,0.03,
1.886,-0.01,0.12,1.00,-0.24,-0.10,0.09,
1.888,-0.01,0.12,1.00,-0.24,-0.10,0.09,
1.891,-0.00,0.12,1.00,-0.24,-0.10,0.09,
1.892,-0.00,0.12,1.00,-0.21,-0.10,0.11,
1.893,-0.00,0.12,1.01,-0.21,-0.10,0.11,
1.897,-0.00,0.12,1.01,-0.21,-0.10,0.11,
1.897,-0.00,0.12,1.01,-0.19,-0.12,0.13,
1.898,-0.00,0.12,1.00,-0.19,-0.12,0.13,
1.9,-0.00,0.13,1.00,-0.19,-0.12,0.13,
1.901,-0.00,0.13,1.00,-0.17,-0.08,0.17,
1.903,-0.01,0.13,0.99,-0.17,-0.08,0.17,
1.906,-0.01,0.13,0.99,-0.18,-0.04,0.09,
1.906,-0.01,0.12,0.99,-0.18,-0.04,0.09,
1.908,-0.01,0.11,0.99,-0.18,-0.04,0.09,
1.91,-0.01,0.11,0.99,-0.18,-0.04,0.09,
1.91,-0.01,0.11,0.99,-0.23,-0.08,0.04,
1.913,-0.01,0.11,0.98,-0.23,-0.08,0.04,
1.915,-0.01,0.11,0.98,-0.23,-0.08,0.04,
1.916,-0.01,0.11,0.98,-0.25,-0.17,-0.02,
1.917,-0.00,0.11,0.98,-0.25,-0.17,-0.02,
1.92,-0.00,0.11,0.98,-0.25,-0.20,-0.05,
1.92,0.00,0.11,0.98,-0.25,-0.20,-0.05,
1.922,0.01,0.10,0.98,-0.25,-0.20,-0.05,
1.925,0.00,0.11,0.98,-0.25,-0.20,-0.05,
1.925,0.00,0.11,0.98,-0.15,-0.25,-0.08,
1.927,0.00,0.11,0.98,-0.15,-0.25,-0.08,
1.933,0.00,0.11,0.98,-0.15,-0.25,-0.08,
1.934,0.00,0.11,0.98,-0.10,-0.26,-0.06,
1.934,0.00,0.11,0.99,-0.10,-0.26,-0.06,
1.937,-0.00,0.11,0.98,-0.10,-0.26,-0.06,
1.937,-0.00,0.11,0.98,-0.11,-0.21,-0.06,
1.938,-0.00,0.11,0.99,-0.11,-0.21,-0.06,
1.94,-0.01,0.11,0.99,-0.11,-0.21,-0.06,
1.94,-0.01,0.11,0.99,-0.15,-0.20,-0.03,
1.942,-0.01,0.11,0.99,-0.15,-0.20,-0.03,
1.946,-0.01,0.11,0.98,-0.15,-0.20,-0.03,
1.947,-0.01,0.11,0.98,-0.20,-0.24,-0.01,
1.947,-0.00,0.12,0.99,-0.20,-0.24,-0.01,
1.95,-0.01,0.12,0.99,-0.20,-0.24,-0.01,
1.95,-0.01,0.12,0.99,-0.22,-0.21,-0.03,
1.952,-0.00,0.12,0.99,-0.22,-0.21,-0.03,
1.955,-0.00,0.12,0.99,-0.19,-0.13,0.00,
1.955,-0.00,0.13,0.99,-0.19,-0.13,0.00,
1.957,0.00,0.14,0.99,-0.19,-0.13,0.00,
1.96,-0.01,0.14,0.99,-0.19,-0.13,0.00,
1.96,-0.01,0.14,0.99,-0.16,-0.05,0.01,
1.963,-0.00,0.14,0.99,-0.16,-0.05,0.01,
1.966,-0.00,0.14,0.99,-0.16,-0.05,0.01,
1.966,-0.00,0.14,0.99,-0.16,0.06,0.01,
1.967,-0.00,0.14,0.98,-0.16,0.06,0.01,
1.97,-0.00,0.14,0.98,-0.16,0.06,0.01,
1.97,-0.00,0.14,0.98,-0.18,0.06,-0.01,
1.972,-0.01,0.14,0.98,-0.18,0.06,-0.01,
1.975,-0.01,0.14,0.97,-0.18,0.06,-0.01,
1.976,-0.01,0.14,0.97,-0.17,0.04,-0.09,
1.977,-0.01,0.15,0.97,-0.17,0.04,-0.09,
1.98,-0.01,0.15,0.97,-0.19,0.05,-0.11,
1.982,-0.01,0.14,0.96,-0.19,0.05,-0.11,
1.983,-0.01,0.15,0.96,-0.19,0.05,-0.11,
1.985,-0.01,0.15,0.95,-0.19,0.05,-0.11,
1.986,-0.01,0.15,0.95,-0.22,0.10,-0.24,
1.988,-0.02,0.14,0.95,-0.22,0.10,-0.24,
1.99,-0.02,0.14,0.94,-0.22,0.10,-0.24,
1.991,-0.02,0.14,0.94,-0.25,0.11,-0.32,
1.992,-0.02,0.14,0.95,-0.25,0.11,-0.32,
2.0,-0.02,0.14,0.94,-0.25,0.11,-0.32,
2.001,-0.02,0.14,0.94,-0.33,0.08,-0.42,
2.001,-0.03,0.14,0.94,-0.33,0.08,-0.42,
2.001,-0.02,0.14,0.94,-0.33,0.08,-0.42,
2.002,-0.02,0.14,0.94,-0.34,0.06,-0.40,
2.002,-0.02,0.14,0.94,-0.34,0.06,-0.40,
2.005,-0.02,0.14,0.94,-0.36,0.04,-0.45,
2.005,-0.03,0.14,0.94,-0.36,0.04,-0.45,
2.007,-0.03,0.14,0.95,-0.36,0.04,-0.45,
2.01,-0.02,0.13,0.95,-0.36,0.04,-0.45,
2.01,-0.02,0.13,0.95,-0.37,-0.00,-0.46,
2.012,-0.03,0.13,0.96,-0.37,-0.00,-0.46,
2.015,-0.03,0.13,0.96,-0.38,-0.02,-0.32,
2.016,-0.02,0.12,0.97,-0.38,-0.02,-0.32,
2.017,-0.02,0.12,0.97,-0.38,-0.02,-0.32,
2.02,-0.01,0.12,0.99,-0.38,-0.02,-0.32,
2.02,-0.01,0.12,0.99,-0.35,-0.12,-0.20,
2.022,-0.00,0.12,1.00,-0.35,-0.12,-0.20,
2.025,-0.00,0.11,1.01,-0.35,-0.12,-0.20,
2.025,-0.00,0.11,1.01,-0.26,-0.15,-0.06,
2.027,0.00,0.12,1.02,-0.26,-0.15,-0.06,
2.034,0.00,0.12,1.02,-0.14,-0.19,0.17,
2.035,0.01,0.11,1.03,-0.14,-0.19,0.17,
2.035,0.02,0.12,1.04,-0.14,-0.19,0.17,
2.035,0.02,0.11,1.04,-0.14,-0.19,0.17,
2.035,0.02,0.11,1.04,-0.04,-0.20,0.37,
2.038,0.03,0.11,1.04,-0.04,-0.20,0.37,
2.039,0.03,0.11,1.05,-0.04,-0.20,0.37,
2.04,0.03,0.11,1.05,0.07,-0.21,0.53,
2.042,0.03,0.12,1.04,0.07,-0.21,0.53,
2.045,0.04,0.12,1.04,0.07,-0.21,0.53,
2.045,0.04,0.12,1.04,0.17,-0.22,0.58,
2.047,0.04,0.12,1.05,0.17,-0.22,0.58,
2.049,0.04,0.12,1.03,0.17,-0.22,0.58,
2.05,0.04,0.12,1.03,0.21,-0.13,0.56,
2.052,0.04,0.13,1.03,0.21,-0.13,0.56,
2.055,0.04,0.13,1.03,0.29,-0.12,0.51,
2.055,0.03,0.13,1.03,0.29,-0.12,0.51,
2.057,0.04,0.13,1.01,0.29,-0.12,0.51,
2.06,0.03,0.14,1.01,0.29,-0.12,0.51,
2.06,0.03,0.14,1.01,0.24,-0.06,0.40,
2.062,0.03,0.15,1.00,0.24,-0.06,0.40,
2.064,0.02,0.14,0.98,0.24,-0.06,0.40,
2.065,0.02,0.14,0.98,0.21,-0.01,0.25,
2.066,0.02,0.15,0.98,0.21,-0.01,0.25,
2.069,0.01,0.15,0.97,0.21,-0.01,0.25,
2.069,0.01,0.15,0.97,0.13,0.08,0.04,
2.072,-0.00,0.16,0.97,0.13,0.08,0.04,
2.074,-0.01,0.15,0.96,0.13,0.08,0.04,
2.075,-0.01,0.15,0.96,0.01,0.14,-0.11,
2.077,-0.03,0.16,0.96,0.01,0.14,-0.11,
2.081,-0.03,0.16,0.96,-0.20,0.16,-0.22,
2.082,-0.04,0.16,0.96,-0.20,0.16,-0.22,
2.082,-0.04,0.15,0.94,-0.20,0.16,-0.22,
2.084,-0.05,0.15,0.95,-0.20,0.16,-0.22,
2.084,-0.05,0.15,0.95,-0.43,0.16,-0.29,
2.087,-0.06,0.15,0.94,-0.43,0.16,-0.29,
2.09,-0.07,0.15,0.95,-0.43,0.16,-0.29,
2.09,-0.07,0.15,0.95,-0.55,0.12,-0.40,
2.092,-0.07,0.15,0.95,-0.55,0.12,-0.40,
2.094,-0.07,0.15,0.94,-0.55,0.12,-0.40,
2.094,-0.07,0.15,0.94,-0.70,0.11,-0.40,
2.096,-0.07,0.16,0.95,-0.70,0.11,-0.40,
2.098,-0.07,0.15,0.95,-0.70,0.11,-0.40,
2.099,-0.07,0.15,0.95,-0.81,0.08,-0.39,
2.102,-0.07,0.15,0.96,-0.81,0.08,-0.39,
2.104,-0.07,0.15,0.96,-0.77,0.11,-0.33,
2.104,-0.07,0.16,0.97,-0.77,0.11,-0.33,
2.106,-0.06,0.16,0.97,-0.77,0.11,-0.33,
2.109,-0.06,0.16,0.98,-0.77,0.11,-0.33,
2.109,-0.06,0.16,0.98,-0.77,0.11,-0.21,
2.111,-0.05,0.15,0.99,-0.77,0.11,-0.21,
2.114,-0.04,0.16,1.00,-0.77,0.11,-0.21,
2.114,-0.04,0.16,1.00,-0.69,0.13,-0.07,
2.116,-0.04,0.16,1.01,-0.69,0.13,-0.07,
2.119,-0.04,0.16,1.01,-0.54,0.11,0.11,
2.119,-0.03,0.15,1.01,-0.54,0.11,0.11,
2.122,-0.02,0.15,1.01,-0.54,0.11,0.11,
2.124,-0.01,0.15,1.02,-0.54,0.11,0.11,
2.124,-0.01,0.15,1.02,-0.40,0.10,0.23,
2.126,-0.01,0.14,1.02,-0.40,0.10,0.23,
2.129,0.00,0.14,1.02,-0.40,0.10,0.23,
2.129,0.00,0.14,1.02,-0.25,0.05,0.29,
2.131,0.01,0.14,1.02,-0.25,0.05,0.29,
2.133,0.02,0.14,1.02,-0.25,0.05,0.29,
2.133,0.02,0.14,1.02,-0.10,-0.01,0.37,
2.135,0.02,0.14,1.02,-0.10,-0.01,0.37,
2.138,0.02,0.14,1.02,-0.10,-0.01,0.37,
2.14,0.02,0.14,1.02,0.06,-0.02,0.32,
2.141,0.03,0.14,1.01,0.06,-0.02,0.32,
2.143,0.03,0.14,1.00,0.06,-0.02,0.32,
2.143,0.03,0.14,1.00,0.13,-0.04,0.30,
2.145,0.03,0.14,1.00,0.13,-0.04,0.30,
2.149,0.03,0.15,1.00,0.13,-0.04,0.30,
2.149,0.03,0.15,1.00,0.20,-0.02,0.20,
2.15,0.03,0.14,0.99,0.20,-0.02,0.20,
2.153,0.03,0.14,0.99,0.23,-0.00,0.12,
2.153,0.03,0.14,0.99,0.23,-0.00,0.12,
2.155,0.03,0.15,0.99,0.23,-0.00,0.12,
2.159,0.03,0.15,0.98,0.23,-0.00,0.12,
2.159,0.03,0.15,0.98,0.21,-0.02,0.02,
2.16,0.03,0.15,0.98,0.21,-0.02,0.02,
2.168,0.03,0.15,0.98,0.18,0.02,0.01,
2.169,0.02,0.15,0.98,0.18,0.02,0.01,
2.169,0.03,0.15,0.97,0.18,0.02,0.01,
2.169,0.02,0.15,0.97,0.18,0.02,0.01,
2.169,0.02,0.15,0.97,0.15,0.01,-0.10,
2.17,0.02,0.16,0.97,0.15,0.01,-0.10,
2.173,0.02,0.16,0.96,0.15,0.01,-0.10,
2.173,0.02,0.16,0.96,0.14,0.04,-0.11,
2.175,0.01,0.16,0.96,0.14,0.04,-0.11,
2.178,0.01,0.16,0.96,0.08,0.10,-0.19,
2.178,0.01,0.16,0.96,0.08,0.10,-0.19,
2.181,0.00,0.16,0.96,0.08,0.10,-0.19,
2.183,-0.00,0.16,0.96,0.08,0.10,-0.19,
2.183,-0.00,0.16,0.96,-0.03,0.12,-0.22,
2.185,-0.00,0.16,0.96,-0.03,0.12,-0.22,
2.19,-0.01,0.16,0.96,-0.03,0.12,-0.22,
2.19,-0.01,0.16,0.96,-0.11,0.10,-0.22,
2.19,-0.01,0.16,0.96,-0.11,0.10,-0.22,
2.193,-0.00,0.16,0.96,-0.11,0.10,-0.22,
2.193,-0.00,0.16,0.96,-0.16,0.09,-0.24,
2.195,-0.00,0.16,0.96,-0.16,0.09,-0.24,
2.198,-0.00,0.16,0.97,-0.16,0.09,-0.24,
2.198,-0.00,0.16,0.97,-0.16,0.09,-0.21,
2.2,0.01,0.16,0.97,-0.16,0.09,-0.21,
2.203,0.01,0.16,0.97,-0.13,0.12,-0.18,
2.203,0.00,0.16,0.97,-0.13,0.12,-0.18,
2.205,0.01,0.16,0.96,-0.13,0.12,-0.18,
2.207,0.01,0.17,0.96,-0.13,0.12,-0.18,
2.208,0.01,0.17,0.96,-0.07,0.13,-0.16,
2.211,0.01,0.17,0.96,-0.07,0.13,-0.16,
2.212,0.01,0.17,0.96,-0.07,0.13,-0.16,
2.213,0.01,0.17,0.96,-0.02,0.17,-0.20,
2.215,0.01,0.17,0.97,-0.02,0.17,-0.20,
2.218,0.01,0.16,0.96,-0.02,0.17,-0.20,
2.218,0.01,0.16,0.96,-0.00,0.18,-0.20,
2.219,0.01,0.16,0.96,-0.00,0.18,-0.20,
2.222,0.01,0.16,0.97,-0.00,0.18,-0.20,
2.223,0.01,0.16,0.97,0.01,0.13,-0.18,
2.225,0.02,0.16,0.96,0.01,0.13,-0.18,
2.227,0.02,0.16,0.96,0.02,0.11,-0.20,
2.228,0.02,0.16,0.96,0.02,0.11,-0.20,
2.232,0.02,0.16,0.96,0.02,0.11,-0.20,
2.233,0.02,0.16,0.97,0.02,0.11,-0.20,
2.234,0.02,0.16,0.97,0.04,0.10,-0.23,
2.234,0.02,0.16,0.97,0.04,0.10,-0.23,
2.237,0.03,0.16,0.98,0.04,0.10,-0.23,
2.237,0.03,0.16,0.98,0.10,0.11,-0.15,
2.239,0.03,0.16,0.98,0.10,0.11,-0.15,
2.244,0.03,0.15,0.99,0.10,0.11,-0.15,
2.244,0.03,0.15,0.99,0.12,0.10,-0.09,
2.246,0.03,0.16,0.99,0.12,0.10,-0.09,
2.249,0.03,0.16,0.99,0.12,0.10,-0.09,
2.249,0.03,0.16,0.99,0.16,0.05,0.02,
2.25,0.02,0.16,1.01,0.16,0.05,0.02,
2.254,0.02,0.16,1.01,0.15,0.08,0.09,
2.254,0.02,0.16,1.01,0.15,0.08,0.09,
2.254,0.02,0.15,1.01,0.15,0.08,0.09,
2.259,0.02,0.15,1.02,0.15,0.08,0.09,
2.26,0.02,0.15,1.02,0.10,0.05,0.24,
2.26,0.02,0.14,1.03,0.10,0.05,0.24,
2.262,0.01,0.15,1.03,0.10,0.05,0.24,
2.262,0.01,0.15,1.03,0.06,0.02,0.30,
2.265,0.01,0.15,1.03,0.06,0.02,0.30,
2.268,0.01,0.15,1.03,-0.01,-0.05,0.44,
2.268,0.02,0.15,1.03,-0.01,-0.05,0.44,
2.269,0.02,0.15,1.04,-0.01,-0.05,0.44,
2.272,0.03,0.15,1.04,-0.01,-0.05,0.44,
2.272,0.03,0.15,1.04,0.00,-0.02,0.47,
2.274,0.02,0.15,1.04,0.00,-0.02,0.47,
2.277,0.02,0.15,1.04,0.07,-0.02,0.51,
2.277,0.02,0.15,1.03,0.07,-0.02,0.51,
2.279,0.02,0.15,1.03,0.07,-0.02,0.51,
2.286,0.03,0.15,1.02,0.07,-0.02,0.51,
2.286,0.03,0.15,1.02,0.06,0.02,0.47,
2.286,0.02,0.15,1.02,0.06,0.02,0.47,
2.287,0.02,0.15,1.01,0.06,0.02,0.47,
2.287,0.02,0.15,1.01,0.11,0.02,0.38,
2.289,0.02,0.15,1.00,0.11,0.02,0.38,
2.292,0.01,0.15,0.99,0.11,0.02,0.38,
2.292,0.01,0.15,0.99,0.06,0.01,0.27,
2.294,0.01,0.15,0.98,0.06,0.01,0.27,
2.299,0.02,0.15,0.97,0.06,0.01,0.27,
2.3,0.02,0.15,0.97,0.01,-0.01,0.11,
2.3,0.02,0.15,0.96,0.01,-0.01,0.11,
2.302,0.02,0.15,0.96,-0.01,0.01,-0.09,
2.302,0.02,0.16,0.96,-0.01,0.01,-0.09,
2.304,0.02,0.17,0.95,-0.01,0.01,-0.09,
2.306,0.02,0.17,0.95,0.04,0.03,-0.24,
2.307,0.02,0.16,0.95,0.04,0.03,-0.24,
2.308,0.02,0.17,0.95,0.04,0.03,-0.24,
2.314,0.02,0.17,0.96,0.04,0.03,-0.24,
2.314,0.02,0.17,0.96,0.03,0.11,-0.35,
2.314,0.02,0.18,0.95,0.03,0.11,-0.35,
2.317,0.03,0.18,0.95,0.03,0.11,-0.35,
2.317,0.03,0.18,0.95,0.04,0.17,-0.32,
2.319,0.02,0.18,0.97,0.04,0.17,-0.32,
2.322,0.02,0.18,0.97,0.08,0.22,-0.33,
2.323,0.03,0.18,0.97,0.08,0.22,-0.33,
2.324,0.03,0.17,0.97,0.08,0.22,-0.33,
2.327,0.03,0.17,0.97,0.08,0.22,-0.17,
2.327,0.04,0.17,0.98,0.08,0.22,-0.17,
2.329,0.04,0.18,0.98,0.08,0.22,-0.17,
2.334,0.04,0.17,0.99,0.08,0.22,-0.17,
2.335,0.04,0.17,0.99,0.16,0.18,-0.09,
2.335,0.05,0.17,1.00,0.16,0.18,-0.09,
2.336,0.05,0.16,1.00,0.16,0.18,-0.09,
2.336,0.05,0.16,1.00,0.22,0.16,-0.00,
2.34,0.06,0.16,1.01,0.22,0.16,-0.00,
2.341,0.06,0.16,1.01,0.22,0.16,-0.00,
2.342,0.06,0.16,1.01,0.32,0.08,0.14,
2.343,0.06,0.16,1.01,0.32,0.08,0.14,
2.346,0.06,0.15,1.02,0.32,0.08,0.14,
2.347,0.06,0.15,1.02,0.37,0.01,0.23,
2.348,0.07,0.15,1.01,0.37,0.01,0.23,
2.352,0.07,0.15,1.01,0.37,0.01,0.23,
2.352,0.07,0.15,1.01,0.41,-0.02,0.29,
2.354,0.06,0.15,1.01,0.41,-0.02,0.29,
2.356,0.07,0.15,0.97,0.41,-0.02,0.29,
2.357,0.07,0.15,0.97,0.44,-0.09,0.27,
2.36,0.07,0.19,0.71,0.44,-0.09,0.27,
2.361,0.00,0.23,0.32,0.44,-0.09,0.27,
2.362,0.00,0.23,0.32,0.43,-0.05,0.05,
2.367,0.03,0.21,0.56,0.43,-0.05,0.05,
2.368,0.06,0.19,0.90,0.43,-0.05,0.05,
2.368,0.06,0.19,0.90,0.13,0.50,-4.59,
2.368,0.03,0.18,0.96,0.13,0.50,-4.59,
2.371,0.02,0.18,0.97,0.13,0.50,-4.59,
2.371,0.02,0.18,0.97,0.26,0.40,-2.48,
2.373,0.01,0.18,0.94,0.26,0.40,-2.48,
2.376,0.01,0.18,0.94,0.06,0.25,-0.11,
2.376,0.00,0.20,0.86,0.06,0.25,-0.11,
2.379,-0.00,0.20,0.84,0.06,0.25,-0.11,
2.381,0.01,0.19,0.88,0.06,0.25,-0.11,
2.382,0.01,0.19,0.88,-0.10,0.35,-0.74,
2.386,0.04,0.19,0.90,-0.10,0.35,-0.74,
2.387,0.05,0.19,0.91,-0.10,0.35,-0.74,
2.387,0.05,0.19,0.91,-0.11,0.39,-1.19,
2.389,0.06,0.18,0.91,-0.11,0.39,-1.19,
2.391,0.05,0.18,0.93,-0.11,0.39,-1.19,
2.392,0.05,0.18,0.93,0.28,0.35,-0.71,
2.393,0.04,0.17,0.95,0.28,0.35,-0.71,
2.396,0.02,0.17,0.99,0.28,0.35,-0.71,
2.396,0.02,0.17,0.99,0.39,0.29,-0.54,
2.408,0.02,0.16,1.02,0.39,0.29,-0.54,
2.408,0.02,0.14,1.05,0.39,0.29,-0.54,
2.409,0.02,0.14,1.05,0.13,0.18,-0.06,
2.409,0.02,0.12,1.08,0.13,0.18,-0.06,
2.409,0.02,0.11,1.10,0.13,0.18,-0.06,
2.409,0.02,0.11,1.10,0.01,-0.01,0.57,
2.409,0.02,0.11,1.11,0.01,-0.01,0.57,
2.411,0.02,0.11,1.11,0.01,-0.01,0.57,
2.412,0.02,0.11,1.11,0.03,-0.30,1.11,
2.413,0.01,0.11,1.11,0.03,-0.30,1.11,
2.422,0.00,0.11,1.10,0.03,-0.30,1.11,
2.422,0.00,0.11,1.10,0.03,-0.40,1.29,
2.422,-0.00,0.11,1.09,0.03,-0.40,1.29,
2.423,-0.01,0.11,1.08,0.03,-0.40,1.29,
2.423,-0.01,0.11,1.08,-0.12,-0.36,1.22,
2.423,-0.02,0.11,1.06,-0.12,-0.36,1.22,
2.426,-0.02,0.11,1.06,-0.27,-0.39,0.99,
2.426,-0.03,0.10,1.04,-0.27,-0.39,0.99,
2.428,-0.03,0.10,1.02,-0.27,-0.39,0.99,
2.437,-0.04,0.11,1.01,-0.27,-0.39,0.99,
2.438,-0.04,0.11,1.01,-0.42,-0.45,0.70,
2.438,-0.04,0.11,1.01,-0.42,-0.45,0.70,
2.438,-0.04,0.11,1.00,-0.42,-0.45,0.70,
2.438,-0.04,0.11,1.00,-0.54,-0.44,0.35,
2.439,-0.04,0.12,0.99,-0.54,-0.44,0.35,
2.44,-0.04,0.12,0.99,-0.54,-0.44,0.35,
2.44,-0.04,0.12,0.99,-0.60,-0.41,0.18,
2.442,-0.04,0.13,0.98,-0.60,-0.41,0.18,
2.446,-0.04,0.14,0.98,-0.60,-0.41,0.18,
2.446,-0.04,0.14,0.98,-0.58,-0.30,0.06,
2.454,-0.03,0.15,0.98,-0.58,-0.30,0.06,
2.455,-0.03,0.15,0.98,-0.52,-0.15,-0.04,
2.455,-0.02,0.15,0.98,-0.52,-0.15,-0.04,
2.455,-0.02,0.16,0.97,-0.52,-0.15,-0.04,
2.455,-0.01,0.16,0.97,-0.52,-0.15,-0.04,
2.456,-0.01,0.16,0.97,-0.40,-0.02,-0.06,
