
time,gFx,gFy,gFz,ax,ay,az,
0.006,-0.00,0.13,0.99,-0.04,-0.02,0.07,
0.006,-0.00,0.13,0.99,-0.04,-0.02,0.07,
0.007,-0.00,0.13,0.99,0.02,0.02,-0.01,
0.007,-0.00,0.14,1.00,0.02,0.02,-0.01,
0.007,-0.00,0.14,1.00,0.07,0.02,-0.03,
0.007,0.00,0.14,0.99,0.07,0.02,-0.03,
0.007,0.00,0.14,0.98,0.07,0.02,-0.03,
0.009,0.00,0.14,0.98,0.10,0.14,-0.00,
0.009,0.01,0.15,0.99,0.10,0.14,-0.00,
0.01,0.01,0.15,1.00,0.10,0.14,-0.00,
0.013,0.01,0.14,0.99,0.10,0.14,-0.00,
0.013,0.01,0.14,0.99,0.17,0.15,-0.10,
0.015,0.00,0.14,0.99,0.17,0.15,-0.10,
0.018,0.01,0.14,0.99,0.17,0.15,-0.10,
0.018,0.01,0.14,0.99,0.19,0.14,-0.03,
0.021,0.01,0.14,0.98,0.19,0.14,-0.03,
0.023,0.01,0.14,0.98,0.19,0.14,-0.03,
0.023,0.01,0.14,0.98,0.16,0.12,-0.05,
0.029,0.01,0.14,0.98,0.16,0.12,-0.05,
0.029,0.01,0.14,0.98,0.16,0.12,-0.05,
0.029,0.01,0.14,0.98,0.19,0.08,-0.12,
0.03,0.00,0.14,0.98,0.19,0.08,-0.12,
0.033,0.00,0.14,0.98,0.16,0.05,-0.13,
0.033,0.01,0.14,0.98,0.16,0.05,-0.13,
0.035,0.00,0.14,0.97,0.16,0.05,-0.13,
0.038,0.00,0.14,0.97,0.13,0.08,-0.15,
0.038,0.00,0.14,0.98,0.13,0.08,-0.15,
0.04,0.00,0.14,0.98,0.13,0.08,-0.15,
0.044,0.00,0.14,0.98,0.13,0.08,-0.15,
0.045,0.00,0.14,0.98,0.12,0.08,-0.18,
0.045,-0.00,0.14,0.99,0.12,0.08,-0.18,
0.048,-0.00,0.13,0.98,0.12,0.08,-0.18,
0.048,-0.00,0.13,0.98,0.09,0.08,-0.13,
0.05,-0.00,0.14,0.99,0.09,0.08,-0.13,
0.053,-0.00,0.14,0.99,0.06,0.03,-0.09,
0.053,-0.00,0.13,0.99,0.06,0.03,-0.09,
0.055,0.00,0.13,1.00,0.06,0.03,-0.09,
0.058,0.00,0.13,1.00,0.04,0.02,-0.04,
0.058,-0.00,0.13,1.00,0.04,0.02,-0.04,
0.061,-0.00,0.13,1.01,0.04,0.02,-0.04,
0.062,0.00,0.13,1.01,0.04,0.02,-0.04,
0.063,0.00,0.13,1.01,0.06,-0.01,0.06,
0.064,0.00,0.12,1.02,0.06,-0.01,0.06,
0.068,0.00,0.12,1.02,0.06,-0.01,0.06,
0.068,0.00,0.12,1.02,0.06,-0.04,0.15,
0.07,0.01,0.12,1.03,0.06,-0.04,0.15,
0.073,0.01,0.12,1.03,0.06,-0.04,0.15,
0.073,0.01,0.12,1.03,0.09,-0.09,0.25,
0.075,0.01,0.11,1.04,0.09,-0.09,0.25,
0.08,0.01,0.11,1.04,0.09,-0.09,0.25,
0.081,0.01,0.11,1.04,0.15,-0.12,0.35,
0.081,0.02,0.11,1.03,0.15,-0.12,0.35,
0.082,0.02,0.11,1.03,0.15,-0.16,0.40,
0.082,0.02,0.11,1.04,0.15,-0.16,0.40,
0.084,0.02,0.11,1.04,0.15,-0.16,0.40,
0.087,0.02,0.11,1.04,0.22,-0.20,0.37,
0.087,0.02,0.10,1.04,0.22,-0.20,0.37,
0.09,0.01,0.10,1.04,0.22,-0.20,0.37,
0.094,0.02,0.10,1.03,0.22,-0.20,0.37,
0.095,0.02,0.10,1.03,0.21,-0.24,0.41,
0.095,0.02,0.10,1.03,0.21,-0.24,0.41,
0.097,0.02,0.10,1.02,0.21,-0.24,0.41,
0.097,0.02,0.10,1.02,0.23,-0.28,0.37,
0.099,0.02,0.10,1.02,0.23,-0.28,0.37,
0.102,0.02,0.10,1.02,0.25,-0.31,0.29,
0.103,0.02,0.11,1.01,0.25,-0.31,0.29,
0.104,0.02,0.11,1.00,0.25,-0.31,0.29,
0.107,0.02,0.11,1.00,0.27,-0.27,0.18,
0.107,0.02,0.11,1.00,0.27,-0.27,0.18,
0.109,0.03,0.11,0.99,0.27,-0.27,0.18,
0.112,0.03,0.12,0.99,0.27,-0.27,0.18,
0.113,0.03,0.12,0.99,0.27,-0.23,0.05,
0.114,0.03,0.12,0.98,0.27,-0.23,0.05,
0.117,0.03,0.13,0.97,0.27,-0.23,0.05,
0.117,0.03,0.13,0.97,0.32,-0.16,-0.09,
0.12,0.04,0.13,0.96,0.32,-0.16,-0.09,
0.122,0.04,0.13,0.96,0.32,-0.16,-0.09,
0.123,0.04,0.13,0.96,0.34,-0.08,-0.20,
0.126,0.04,0.14,0.96,0.34,-0.08,-0.20,
0.126,0.04,0.13,0.95,0.34,-0.08,-0.20,
0.127,0.04,0.13,0.95,0.38,-0.03,-0.35,
0.129,0.04,0.13,0.95,0.38,-0.03,-0.35,
0.132,0.04,0.13,0.95,0.43,0.00,-0.43,
0.132,0.04,0.13,0.95,0.43,0.00,-0.43,
0.134,0.04,0.13,0.95,0.43,0.00,-0.43,
0.136,0.04,0.13,0.94,0.43,0.00,-0.43,
0.137,0.04,0.13,0.94,0.42,-0.02,-0.45,
0.139,0.04,0.13,0.95,0.42,-0.02,-0.45,
0.141,0.05,0.13,0.95,0.42,-0.02,-0.45,
0.141,0.05,0.13,0.95,0.43,-0.01,-0.48,
0.145,0.05,0.13,0.95,0.43,-0.01,-0.48,
0.146,0.05,0.13,0.95,0.46,-0.01,-0.42,
0.147,0.06,0.13,0.95,0.46,-0.01,-0.42,
0.149,0.06,0.13,0.96,0.46,-0.01,-0.42,
0.152,0.06,0.13,0.96,0.53,-0.02,-0.44,
0.152,0.06,0.13,0.96,0.53,-0.02,-0.44,
0.154,0.06,0.12,0.96,0.53,-0.02,-0.44,
0.157,0.06,0.12,0.96,0.61,-0.06,-0.33,
0.157,0.07,0.12,0.97,0.61,-0.06,-0.33,
0.159,0.07,0.12,0.98,0.61,-0.06,-0.33,
0.164,0.07,0.12,0.98,0.61,-0.06,-0.33,
0.164,0.07,0.12,0.98,0.63,-0.12,-0.25,
0.164,0.07,0.11,0.99,0.63,-0.12,-0.25,
0.166,0.08,0.11,1.00,0.63,-0.12,-0.25,
0.166,0.08,0.11,1.00,0.67,-0.13,-0.15,
0.169,0.08,0.11,1.00,0.67,-0.13,-0.15,
0.172,0.08,0.11,1.00,0.67,-0.13,-0.15,
0.172,0.08,0.11,1.00,0.70,-0.20,-0.00,
0.174,0.08,0.11,1.00,0.70,-0.20,-0.00,
0.177,0.08,0.11,1.01,0.70,-0.20,-0.00,
0.178,0.08,0.11,1.01,0.72,-0.21,0.07,
0.178,0.08,0.11,1.01,0.72,-0.21,0.07,
0.182,0.08,0.11,1.01,0.72,-0.21,0.12,
0.182,0.08,0.11,1.01,0.72,-0.21,0.12,
0.184,0.09,0.10,1.01,0.72,-0.21,0.12,
0.186,0.09,0.11,1.00,0.72,-0.21,0.12,
0.187,0.09,0.11,1.00,0.76,-0.23,0.17,
0.189,0.09,0.11,1.00,0.76,-0.23,0.17,
0.191,0.09,0.10,0.99,0.76,-0.23,0.17,
0.192,0.09,0.10,0.99,0.83,-0.26,0.11,
0.194,0.09,0.10,0.99,0.83,-0.26,0.11,
0.196,0.10,0.10,0.98,0.83,-0.26,0.11,
0.196,0.10,0.10,0.98,0.84,-0.26,0.04,
0.198,0.10,0.10,0.98,0.84,-0.26,0.04,
0.202,0.10,0.10,0.98,0.84,-0.26,0.04,
0.202,0.10,0.10,0.98,0.86,-0.30,-0.09,
0.204,0.11,0.10,0.96,0.86,-0.30,-0.09,
0.206,0.11,0.10,0.96,0.93,-0.32,-0.15,
0.207,0.11,0.10,0.95,0.93,-0.32,-0.15,
0.208,0.11,0.10,0.94,0.93,-0.32,-0.15,
0.212,0.11,0.10,0.93,0.93,-0.32,-0.15,
0.212,0.11,0.10,0.93,1.00,-0.34,-0.34,
0.213,0.11,0.10,0.93,1.00,-0.34,-0.34,
0.216,0.12,0.10,0.92,1.00,-0.34,-0.34,
0.217,0.12,0.10,0.92,1.02,-0.34,-0.54,
0.218,0.12,0.10,0.92,1.02,-0.34,-0.54,
0.221,0.12,0.10,0.92,1.02,-0.32,-0.65,
0.221,0.12,0.10,0.91,1.02,-0.32,-0.65,
0.223,0.12,0.10,0.90,1.02,-0.32,-0.65,
0.228,0.13,0.10,0.89,1.02,-0.32,-0.65,
0.228,0.13,0.10,0.89,1.05,-0.33,-0.77,
0.229,0.13,0.10,0.89,1.05,-0.33,-0.77,
0.231,0.13,0.10,0.89,1.10,-0.36,-0.91,
0.231,0.13,0.10,0.88,1.10,-0.36,-0.91,
0.233,0.14,0.10,0.87,1.10,-0.36,-0.91,
0.236,0.15,0.10,0.87,1.10,-0.36,-0.91,
0.236,0.15,0.10,0.87,1.15,-0.38,-1.00,
0.238,0.14,0.10,0.86,1.15,-0.38,-1.00,
0.241,0.14,0.09,0.86,1.15,-0.38,-1.00,
0.241,0.14,0.09,0.86,1.26,-0.38,-1.15,
0.243,0.14,0.09,0.85,1.26,-0.38,-1.15,
0.246,0.14,0.09,0.84,1.26,-0.38,-1.15,
0.246,0.14,0.09,0.84,1.24,-0.42,-1.27,
0.248,0.14,0.08,0.84,1.24,-0.42,-1.27,
0.251,0.14,0.08,0.84,1.24,-0.42,-1.27,
0.251,0.14,0.08,0.84,1.23,-0.46,-1.34,
0.253,0.14,0.07,0.84,1.23,-0.46,-1.34,
0.256,0.14,0.07,0.84,1.19,-0.54,-1.40,
0.256,0.14,0.07,0.84,1.19,-0.54,-1.40,
0.258,0.14,0.07,0.84,1.19,-0.54,-1.40,
0.265,0.13,0.07,0.85,1.19,-0.54,-1.40,
0.265,0.13,0.07,0.85,1.17,-0.64,-1.41,
0.266,0.14,0.07,0.85,1.17,-0.64,-1.41,
0.266,0.13,0.07,0.86,1.17,-0.64,-1.41,
0.266,0.13,0.07,0.86,1.14,-0.67,-1.36,
0.268,0.14,0.06,0.87,1.14,-0.67,-1.36,
0.27,0.14,0.07,0.87,1.14,-0.67,-1.36,
0.271,0.14,0.07,0.87,1.13,-0.65,-1.23,
0.273,0.13,0.06,0.88,1.13,-0.65,-1.23,
0.276,0.13,0.06,0.89,1.13,-0.65,-1.23,
0.276,0.13,0.06,0.89,1.17,-0.68,-1.08,
0.278,0.13,0.06,0.89,1.17,-0.68,-1.08,
0.28,0.13,0.06,0.89,1.09,-0.68,-0.92,
0.28,0.13,0.07,0.90,1.09,-0.68,-0.92,
0.283,0.13,0.06,0.91,1.09,-0.68,-0.92,
0.286,0.13,0.06,0.91,1.07,-0.63,-0.81,
0.286,0.13,0.06,0.92,1.07,-0.63,-0.81,
0.287,0.13,0.06,0.92,1.07,-0.63,-0.81,
0.29,0.13,0.06,0.93,1.07,-0.63,-0.81,
0.291,0.13,0.06,0.93,1.04,-0.65,-0.62,
0.293,0.13,0.06,0.93,1.04,-0.65,-0.62,
0.295,0.13,0.06,0.93,1.04,-0.65,-0.62,
0.295,0.13,0.06,0.93,1.07,-0.65,-0.53,
0.297,0.13,0.06,0.93,1.07,-0.65,-0.53,
0.3,0.13,0.06,0.93,1.07,-0.65,-0.53,
0.3,0.13,0.06,0.93,1.07,-0.65,-0.46,
0.303,0.13,0.06,0.93,1.07,-0.65,-0.46,
0.305,0.13,0.06,0.93,1.06,-0.67,-0.45,
0.306,0.13,0.06,0.93,1.06,-0.67,-0.45,
0.307,0.12,0.06,0.93,1.06,-0.67,-0.45,
0.31,0.13,0.06,0.93,1.06,-0.67,-0.45,
0.31,0.13,0.06,0.93,1.02,-0.68,-0.44,
0.313,0.13,0.06,0.93,1.02,-0.68,-0.44,
0.315,0.12,0.06,0.92,1.02,-0.68,-0.44,
0.315,0.12,0.06,0.92,1.00,-0.67,-0.49,
0.317,0.12,0.06,0.92,1.00,-0.67,-0.49,
0.32,0.12,0.06,0.92,0.99,-0.67,-0.53,
0.32,0.12,0.06,0.91,0.99,-0.67,-0.53,
0.322,0.12,0.07,0.90,0.99,-0.67,-0.53,
0.325,0.12,0.07,0.89,0.99,-0.67,-0.53,
0.328,0.12,0.07,0.89,0.98,-0.63,-0.63,
0.328,0.12,0.07,0.88,0.98,-0.63,-0.63,
0.33,0.12,0.07,0.88,0.98,-0.54,-0.79,
0.331,0.11,0.08,0.88,0.98,-0.54,-0.79,
0.332,0.10,0.08,0.88,0.98,-0.54,-0.79,
0.335,0.10,0.08,0.88,0.93,-0.49,-0.93,
0.335,0.10,0.08,0.87,0.93,-0.49,-0.93,
0.337,0.10,0.09,0.86,0.93,-0.49,-0.93,
0.34,0.09,0.08,0.86,0.93,-0.49,-0.93,
0.34,0.09,0.08,0.86,0.79,-0.44,-1.00,
0.342,0.08,0.09,0.85,0.79,-0.44,-1.00,
0.345,0.07,0.09,0.85,0.79,-0.44,-1.00,
0.346,0.07,0.09,0.85,0.69,-0.39,-1.14,
0.347,0.07,0.09,0.86,0.69,-0.39,-1.14,
0.35,0.07,0.09,0.86,0.54,-0.34,-1.19,
0.35,0.06,0.09,0.86,0.54,-0.34,-1.19,
0.352,0.06,0.10,0.85,0.54,-0.34,-1.19,
0.355,0.06,0.10,0.85,0.43,-0.34,-1.11,
0.355,0.05,0.10,0.85,0.43,-0.34,-1.11,
0.357,0.05,0.10,0.86,0.43,-0.34,-1.11,
0.36,0.05,0.10,0.86,0.39,-0.26,-1.16,
0.36,0.05,0.10,0.87,0.39,-0.26,-1.16,
0.362,0.04,0.10,0.87,0.39,-0.26,-1.16,
0.364,0.04,0.09,0.88,0.39,-0.26,-1.16,
0.364,0.04,0.09,0.88,0.31,-0.25,-1.06,
0.367,0.04,0.09,0.89,0.31,-0.25,-1.06,
0.37,0.03,0.09,0.90,0.31,-0.25,-1.06,
0.37,0.03,0.09,0.90,0.24,-0.27,-0.91,
0.371,0.03,0.09,0.91,0.24,-0.27,-0.91,
0.374,0.04,0.08,0.90,0.24,-0.27,-0.91,
0.374,0.04,0.08,0.90,0.20,-0.31,-0.75,
0.376,0.04,0.08,0.91,0.20,-0.31,-0.75,
0.379,0.04,0.08,0.91,0.20,-0.35,-0.65,
0.379,0.05,0.08,0.90,0.20,-0.35,-0.65,
0.381,0.05,0.08,0.91,0.20,-0.35,-0.65,
0.384,0.05,0.08,0.91,0.27,-0.38,-0.63,
0.384,0.05,0.08,0.90,0.27,-0.38,-0.63,
0.387,0.05,0.08,0.90,0.27,-0.38,-0.63,
0.389,0.05,0.08,0.90,0.27,-0.38,-0.63,
0.389,0.05,0.08,0.90,0.29,-0.40,-0.62,
0.391,0.04,0.08,0.91,0.29,-0.40,-0.62,
0.407,0.04,0.09,0.90,0.29,-0.40,-0.62,
0.408,0.04,0.09,0.90,0.31,-0.34,-0.66,
0.409,0.03,0.08,0.90,0.31,-0.34,-0.66,
0.409,0.02,0.09,0.90,0.31,-0.34,-0.66,
0.409,0.02,0.09,0.90,0.25,-0.30,-0.65,
0.409,0.02,0.09,0.90,0.25,-0.30,-0.65,
0.409,0.02,0.09,0.90,0.10,-0.29,-0.71,
0.409,0.01,0.10,0.89,0.10,-0.29,-0.71,
0.409,0.01,0.10,0.89,0.10,-0.29,-0.71,
0.409,0.00,0.10,0.90,0.10,-0.29,-0.71,
0.41,0.00,0.10,0.90,0.01,-0.19,-0.73,
0.411,-0.01,0.11,0.90,0.01,-0.19,-0.73,
0.414,-0.02,0.11,0.90,0.01,-0.19,-0.73,
0.414,-0.02,0.11,0.90,-0.13,-0.10,-0.72,
0.416,-0.03,0.12,0.91,-0.13,-0.10,-0.72,
0.419,-0.03,0.12,0.91,-0.28,-0.04,-0.64,
0.419,-0.04,0.12,0.91,-0.28,-0.04,-0.64,
0.421,-0.05,0.13,0.92,-0.28,-0.04,-0.64,
0.424,-0.06,0.13,0.93,-0.28,-0.04,-0.64,
0.424,-0.06,0.13,0.93,-0.52,0.08,-0.55,
0.426,-0.07,0.13,0.94,-0.52,0.08,-0.55,
0.429,-0.07,0.13,0.94,-0.68,0.19,-0.41,
0.429,-0.08,0.14,0.95,-0.68,0.19,-0.41,
0.431,-0.09,0.13,0.95,-0.68,0.19,-0.41,
0.434,-0.10,0.13,0.95,-0.68,0.19,-0.41,
0.434,-0.10,0.13,0.95,-0.85,0.27,-0.18,
0.436,-0.11,0.13,0.95,-0.85,0.27,-0.18,
0.439,-0.11,0.13,0.96,-0.85,0.27,-0.18,
0.439,-0.11,0.13,0.96,-1.01,0.25,-0.14,
0.441,-0.12,0.13,0.96,-1.01,0.25,-0.14,
0.444,-0.12,0.13,0.96,-1.01,0.25,-0.14,
0.444,-0.12,0.13,0.96,-1.16,0.23,-0.11,
0.446,-0.13,0.12,0.96,-1.16,0.23,-0.11,
0.448,-0.13,0.13,0.96,-1.16,0.23,-0.11,
0.449,-0.13,0.13,0.96,-1.27,0.23,-0.05,
0.451,-0.14,0.12,0.95,-1.27,0.23,-0.05,
0.454,-0.14,0.12,0.95,-1.29,0.20,-0.08,
0.454,-0.14,0.12,0.95,-1.29,0.20,-0.08,
0.456,-0.14,0.12,0.94,-1.29,0.20,-0.08,
0.459,-0.14,0.11,0.93,-1.29,0.20,-0.08,
0.459,-0.14,0.11,0.93,-1.37,0.18,-0.18,
0.463,-0.14,0.10,0.93,-1.37,0.18,-0.18,
0.464,-0.13,0.10,0.93,-1.37,0.18,-0.18,
0.464,-0.13,0.10,0.93,-1.35,0.11,-0.29,
0.466,-0.13,0.09,0.93,-1.35,0.11,-0.29,
0.469,-0.13,0.09,0.93,-1.32,-0.04,-0.37,
0.469,-0.12,0.08,0.92,-1.32,-0.04,-0.37,
0.471,-0.12,0.08,0.91,-1.32,-0.04,-0.37,
0.474,-0.11,0.08,0.91,-1.32,-0.04,-0.37,
0.474,-0.11,0.08,0.91,-1.20,-0.17,-0.43,
0.476,-0.11,0.08,0.90,-1.20,-0.17,-0.43,
0.479,-0.11,0.08,0.90,-1.11,-0.21,-0.53,
0.48,-0.10,0.08,0.90,-1.11,-0.21,-0.53,
0.481,-0.09,0.09,0.89,-1.11,-0.21,-0.53,
0.484,-0.09,0.09,0.89,-0.95,-0.20,-0.65,
0.484,-0.09,0.08,0.89,-0.95,-0.20,-0.65,
0.486,-0.08,0.08,0.89,-0.95,-0.20,-0.65,
0.488,-0.08,0.08,0.89,-0.81,-0.17,-0.74,
0.489,-0.08,0.09,0.89,-0.81,-0.17,-0.74,
0.491,-0.08,0.09,0.89,-0.81,-0.17,-0.74,
0.494,-0.07,0.09,0.88,-0.81,-0.17,-0.74,
0.494,-0.07,0.09,0.88,-0.72,-0.16,-0.71,
0.499,-0.07,0.10,0.88,-0.72,-0.16,-0.71,
0.5,-0.06,0.10,0.88,-0.72,-0.16,-0.71,
0.5,-0.06,0.10,0.88,-0.65,-0.13,-0.78,
0.5,-0.07,0.11,0.88,-0.65,-0.13,-0.78,
0.503,-0.07,0.11,0.88,-0.54,-0.05,-0.81,
0.503,-0.06,0.11,0.89,-0.54,-0.05,-0.81,
0.505,-0.07,0.11,0.89,-0.54,-0.05,-0.81,
0.508,-0.07,0.12,0.89,-0.54,-0.05,-0.81,
0.508,-0.07,0.12,0.89,-0.53,0.08,-0.79,
0.51,-0.08,0.12,0.88,-0.53,0.08,-0.79,
0.513,-0.08,0.12,0.88,-0.53,0.08,-0.79,
0.514,-0.08,0.12,0.88,-0.57,0.11,-0.76,
0.515,-0.09,0.12,0.88,-0.57,0.11,-0.76,
0.517,-0.09,0.12,0.89,-0.57,0.11,-0.76,
0.518,-0.09,0.12,0.89,-0.63,0.17,-0.79,
0.52,-0.10,0.12,0.89,-0.63,0.17,-0.79,
0.522,-0.11,0.12,0.89,-0.63,0.17,-0.79,
0.522,-0.11,0.12,0.89,-0.70,0.18,-0.75,
0.524,-0.11,0.12,0.90,-0.70,0.18,-0.75,
0.529,-0.11,0.12,0.90,-0.82,0.22,-0.71,
0.53,-0.11,0.13,0.91,-0.82,0.22,-0.71,
0.53,-0.12,0.13,0.90,-0.82,0.22,-0.71,
0.532,-0.12,0.13,0.90,-0.82,0.22,-0.71,
0.532,-0.12,0.13,0.90,-0.89,0.24,-0.58,
0.534,-0.13,0.13,0.90,-0.89,0.24,-0.58,
0.537,-0.14,0.12,0.90,-0.89,0.24,-0.58,
0.537,-0.14,0.12,0.90,-0.99,0.27,-0.62,
0.539,-0.14,0.12,0.90,-0.99,0.27,-0.62,
0.542,-0.15,0.12,0.90,-0.99,0.27,-0.62,
0.542,-0.15,0.12,0.90,-1.11,0.27,-0.65,
0.545,-0.15,0.11,0.89,-1.11,0.27,-0.65,
0.547,-0.16,0.10,0.89,-1.11,0.27,-0.65,
0.547,-0.16,0.10,0.89,-1.23,0.22,-0.61,
0.549,-0.16,0.10,0.89,-1.23,0.22,-0.61,
0.552,-0.16,0.10,0.89,-1.31,0.09,-0.67,
0.552,-0.16,0.10,0.88,-1.31,0.09,-0.67,
0.554,-0.17,0.09,0.88,-1.31,0.09,-0.67,
0.558,-0.17,0.09,0.87,-1.31,0.09,-0.67,
0.558,-0.17,0.09,0.87,-1.36,0.03,-0.74,
0.559,-0.17,0.08,0.87,-1.36,0.03,-0.74,
0.562,-0.16,0.08,0.87,-1.36,0.03,-0.74,
0.563,-0.16,0.08,0.87,-1.44,-0.05,-0.82,
0.564,-0.16,0.07,0.87,-1.44,-0.05,-0.82,
0.567,-0.16,0.07,0.87,-1.44,-0.05,-0.82,
0.567,-0.16,0.07,0.87,-1.40,-0.15,-0.90,
0.569,-0.16,0.07,0.86,-1.40,-0.15,-0.90,
0.572,-0.16,0.07,0.86,-1.37,-0.21,-0.89,
0.572,-0.15,0.07,0.85,-1.37,-0.21,-0.89,
0.574,-0.14,0.07,0.85,-1.37,-0.21,-0.89,
0.577,-0.14,0.07,0.85,-1.30,-0.21,-1.00,
0.577,-0.14,0.07,0.86,-1.30,-0.21,-1.00,
0.58,-0.13,0.07,0.86,-1.30,-0.21,-1.00,
0.582,-0.12,0.06,0.85,-1.30,-0.21,-1.00,
0.582,-0.12,0.06,0.85,-1.13,-0.24,-1.01,
0.584,-0.11,0.06,0.86,-1.13,-0.24,-1.01,
0.587,-0.11,0.07,0.86,-1.13,-0.24,-1.01,
0.587,-0.11,0.07,0.86,-0.96,-0.25,-1.01,
0.589,-0.10,0.07,0.87,-0.96,-0.25,-1.01,
0.592,-0.09,0.07,0.88,-0.96,-0.25,-1.01,
0.592,-0.09,0.07,0.88,-0.79,-0.24,-0.96,
0.594,-0.09,0.08,0.88,-0.79,-0.24,-0.96,
0.6,-0.09,0.07,0.89,-0.79,-0.24,-0.96,
0.6,-0.09,0.07,0.89,-0.66,-0.18,-0.81,
0.601,-0.09,0.07,0.89,-0.66,-0.18,-0.81,
0.602,-0.09,0.07,0.89,-0.56,-0.12,-0.73,
0.602,-0.09,0.07,0.90,-0.56,-0.12,-0.73,
0.604,-0.09,0.07,0.90,-0.56,-0.12,-0.73,
0.606,-0.09,0.07,0.90,-0.56,-0.12,-0.73,
0.607,-0.09,0.07,0.90,-0.50,-0.13,-0.62,
0.609,-0.09,0.07,0.90,-0.50,-0.13,-0.62,
0.612,-0.09,0.07,0.91,-0.50,-0.13,-0.62,
0.613,-0.09,0.07,0.91,-0.52,-0.14,-0.53,
0.615,-0.10,0.07,0.91,-0.52,-0.14,-0.53,
0.616,-0.10,0.07,0.91,-0.52,-0.14,-0.53,
0.617,-0.10,0.07,0.91,-0.54,-0.16,-0.53,
0.619,-0.11,0.07,0.91,-0.54,-0.16,-0.53,
0.621,-0.11,0.07,0.91,-0.58,-0.11,-0.48,
0.622,-0.11,0.07,0.90,-0.58,-0.11,-0.48,
0.623,-0.11,0.07,0.90,-0.58,-0.11,-0.48,
0.626,-0.12,0.06,0.90,-0.58,-0.11,-0.48,
0.627,-0.12,0.06,0.90,-0.64,-0.12,-0.51,
0.629,-0.12,0.06,0.89,-0.64,-0.12,-0.51,
0.631,-0.12,0.06,0.89,-0.64,-0.12,-0.51,
0.632,-0.12,0.06,0.89,-0.67,-0.16,-0.56,
0.634,-0.12,0.06,0.88,-0.67,-0.16,-0.56,
0.636,-0.13,0.05,0.88,-0.67,-0.16,-0.56,
0.637,-0.13,0.05,0.88,-0.73,-0.19,-0.65,
0.638,-0.13,0.05,0.88,-0.73,-0.19,-0.65,
0.641,-0.13,0.06,0.87,-0.73,-0.19,-0.65,
0.641,-0.13,0.06,0.87,-0.78,-0.24,-0.73,
0.643,-0.13,0.05,0.86,-0.78,-0.24,-0.73,
0.648,-0.14,0.05,0.86,-0.78,-0.24,-0.73,
0.648,-0.14,0.05,0.86,-0.81,-0.22,-0.81,
0.649,-0.14,0.06,0.85,-0.81,-0.22,-0.81,
0.651,-0.14,0.06,0.85,-0.86,-0.21,-0.97,
0.651,-0.14,0.06,0.85,-0.86,-0.21,-0.97,
0.653,-0.15,0.06,0.85,-0.86,-0.21,-0.97,
0.656,-0.15,0.06,0.85,-0.86,-0.21,-0.97,
0.656,-0.15,0.06,0.85,-0.94,-0.18,-1.01,
0.658,-0.16,0.06,0.85,-0.94,-0.18,-1.01,
0.662,-0.17,0.07,0.85,-0.94,-0.18,-1.01,
0.662,-0.17,0.07,0.85,-1.00,-0.13,-1.05,
0.665,-0.18,0.07,0.86,-1.00,-0.13,-1.05,
0.667,-0.19,0.07,0.86,-1.00,-0.13,-1.05,
0.667,-0.19,0.07,0.86,-1.16,-0.08,-1.02,
0.669,-0.20,0.07,0.87,-1.16,-0.08,-1.02,
0.672,-0.22,0.07,0.88,-1.16,-0.08,-1.02,
0.672,-0.22,0.07,0.88,-1.36,-0.03,-0.92,
0.674,-0.23,0.07,0.88,-1.36,-0.03,-0.92,
0.677,-0.23,0.07,0.88,-1.53,-0.00,-0.77,
0.677,-0.24,0.07,0.90,-1.53,-0.00,-0.77,
0.68,-0.25,0.07,0.91,-1.53,-0.00,-0.77,
0.681,-0.25,0.08,0.91,-1.53,-0.00,-0.77,
0.682,-0.25,0.08,0.91,-1.75,0.03,-0.63,
0.683,-0.26,0.08,0.91,-1.75,0.03,-0.63,
0.687,-0.26,0.08,0.91,-1.75,0.03,-0.63,
0.687,-0.26,0.08,0.91,-1.90,0.12,-0.42,
0.688,-0.27,0.08,0.92,-1.90,0.12,-0.42,
0.691,-0.27,0.09,0.93,-1.90,0.12,-0.42,
0.691,-0.27,0.09,0.93,-2.00,0.20,-0.39,
0.693,-0.28,0.09,0.93,-2.00,0.20,-0.39,
0.696,-0.28,0.09,0.93,-2.00,0.20,-0.39,
0.696,-0.28,0.09,0.93,-2.07,0.27,-0.27,
0.698,-0.28,0.09,0.92,-2.07,0.27,-0.27,
0.702,-0.28,0.09,0.92,-2.16,0.30,-0.21,
0.702,-0.28,0.10,0.92,-2.16,0.30,-0.21,
0.703,-0.28,0.10,0.92,-2.16,0.30,-0.21,
0.706,-0.27,0.11,0.92,-2.16,0.30,-0.21,
0.706,-0.27,0.11,0.92,-2.14,0.38,-0.29,
0.708,-0.28,0.10,0.93,-2.14,0.38,-0.29,
0.711,-0.28,0.10,0.93,-2.14,0.38,-0.29,
0.711,-0.28,0.10,0.93,-2.10,0.52,-0.29,
0.716,-0.28,0.10,0.93,-2.10,0.52,-0.29,
0.716,-0.28,0.10,0.94,-2.10,0.52,-0.29,
0.716,-0.28,0.10,0.94,-2.09,0.52,-0.23,
0.718,-0.28,0.10,0.94,-2.09,0.52,-0.23,
0.721,-0.29,0.10,0.94,-2.09,0.52,-0.23,
0.721,-0.29,0.10,0.94,-2.10,0.52,-0.18,
0.723,-0.29,0.10,0.96,-2.10,0.52,-0.18,
0.726,-0.29,0.10,0.96,-2.12,0.53,-0.13,
0.726,-0.28,0.09,0.96,-2.12,0.53,-0.13,
0.728,-0.28,0.09,0.96,-2.12,0.53,-0.13,
0.731,-0.29,0.08,0.98,-2.12,0.53,-0.13,
0.732,-0.29,0.08,0.98,-2.12,0.49,0.04,
0.733,-0.29,0.08,0.98,-2.12,0.49,0.04,
0.735,-0.29,0.06,0.99,-2.12,0.49,0.04,
0.735,-0.29,0.06,0.99,-2.12,0.45,0.17,
0.738,-0.29,0.06,1.00,-2.12,0.45,0.17,
0.741,-0.29,0.05,1.01,-2.12,0.45,0.17,
0.741,-0.29,0.05,1.01,-2.12,0.34,0.32,
0.743,-0.30,0.05,1.03,-2.12,0.34,0.32,
0.747,-0.30,0.04,1.03,-2.12,0.34,0.32,
0.748,-0.30,0.04,1.03,-2.12,0.23,0.49,
0.748,-0.30,0.03,1.04,-2.12,0.23,0.49,
0.75,-0.30,0.03,1.04,-2.16,0.15,0.75,
0.751,-0.31,0.02,1.05,-2.16,0.15,0.75,
0.752,-0.31,0.02,1.06,-2.16,0.15,0.75,
0.756,-0.31,0.02,1.07,-2.16,0.15,0.75,
0.756,-0.31,0.02,1.07,-2.21,0.02,0.92,
0.758,-0.32,0.00,1.07,-2.21,0.02,0.92,
0.761,-0.32,-0.00,1.08,-2.21,0.02,0.92,
0.761,-0.32,-0.00,1.08,-2.25,-0.03,1.09,
0.764,-0.32,-0.01,1.08,-2.25,-0.03,1.09,
0.766,-0.32,-0.01,1.08,-2.25,-0.03,1.09,
0.766,-0.32,-0.01,1.08,-2.33,-0.14,1.19,
0.768,-0.33,-0.02,1.08,-2.33,-0.14,1.19,
0.771,-0.33,-0.02,1.08,-2.33,-0.14,1.19,
0.771,-0.33,-0.02,1.08,-2.33,-0.22,1.22,
0.773,-0.33,-0.02,1.08,-2.33,-0.22,1.22,
0.777,-0.33,-0.02,1.08,-2.39,-0.24,1.22,
0.777,-0.33,-0.02,1.08,-2.39,-0.24,1.22,
0.777,-0.33,-0.01,1.07,-2.39,-0.24,1.22,
0.781,-0.33,-0.02,1.07,-2.39,-0.24,1.22,
0.781,-0.33,-0.02,1.07,-2.38,-0.22,1.19,
0.782,-0.32,-0.01,1.06,-2.38,-0.22,1.19,
0.786,-0.32,-0.00,1.06,-2.38,-0.22,1.19,
0.786,-0.32,-0.00,1.06,-2.36,-0.16,1.11,
0.788,-0.31,0.00,1.06,-2.36,-0.16,1.11,
0.79,-0.31,0.01,1.05,-2.36,-0.16,1.11,
0.791,-0.31,0.01,1.05,-2.26,-0.05,1.01,
0.793,-0.30,0.02,1.04,-2.26,-0.05,1.01,
0.795,-0.30,0.03,1.04,-2.26,-0.05,1.01,
0.796,-0.30,0.03,1.04,-2.14,0.12,0.92,
0.798,-0.30,0.04,1.03,-2.14,0.12,0.92,
0.8,-0.30,0.04,1.03,-2.06,0.29,0.78,
0.8,-0.31,0.04,1.03,-2.06,0.29,0.78,
0.802,-0.31,0.05,1.02,-2.06,0.29,0.78,
0.805,-0.31,0.05,1.02,-2.06,0.29,0.78,
0.806,-0.31,0.05,1.02,-2.08,0.45,0.72,
0.808,-0.31,0.05,1.02,-2.08,0.45,0.72,
0.81,-0.32,0.05,1.02,-2.08,0.45,0.72,
0.81,-0.32,0.05,1.02,-2.09,0.58,0.62,
0.813,-0.33,0.04,1.02,-2.09,0.58,0.62,
0.815,-0.33,0.04,1.02,-2.09,0.58,0.62,
0.816,-0.33,0.04,1.02,-2.17,0.60,0.64,
0.817,-0.34,0.04,1.02,-2.17,0.60,0.64,
0.819,-0.34,0.03,1.01,-2.17,0.60,0.64,
0.822,-0.34,0.03,1.01,-2.27,0.56,0.61,
0.822,-0.35,0.02,1.01,-2.27,0.56,0.61,
0.824,-0.35,0.02,1.01,-2.40,0.50,0.53,
0.825,-0.36,0.01,1.02,-2.40,0.50,0.53,
0.826,-0.36,-0.00,1.01,-2.40,0.50,0.53,
0.835,-0.36,-0.01,1.01,-2.40,0.50,0.53,
0.835,-0.36,-0.01,1.01,-2.48,0.34,0.53,
0.835,-0.36,-0.02,1.01,-2.48,0.34,0.53,
0.835,-0.37,-0.03,1.02,-2.48,0.34,0.53,
0.836,-0.37,-0.03,1.02,-2.54,0.15,0.53,
0.837,-0.36,-0.04,1.02,-2.54,0.15,0.53,
0.839,-0.35,-0.05,1.02,-2.54,0.15,0.53,
0.84,-0.35,-0.05,1.02,-2.57,-0.03,0.56,
0.842,-0.35,-0.06,1.02,-2.57,-0.03,0.56,
0.844,-0.35,-0.07,1.02,-2.57,-0.03,0.56,
0.844,-0.35,-0.07,1.02,-2.48,-0.17,0.56,
0.848,-0.34,-0.07,1.02,-2.48,-0.17,0.56,
0.849,-0.34,-0.07,1.02,-2.39,-0.32,0.58,
0.849,-0.34,-0.09,1.03,-2.39,-0.32,0.58,
0.851,-0.33,-0.10,1.03,-2.39,-0.32,0.58,
0.854,-0.33,-0.10,1.03,-2.39,-0.32,0.58,
0.854,-0.33,-0.10,1.03,-2.28,-0.45,0.67,
0.857,-0.33,-0.11,1.04,-2.28,-0.45,0.67,
0.859,-0.32,-0.12,1.05,-2.28,-0.45,0.67,
0.859,-0.32,-0.12,1.05,-2.16,-0.60,0.72,
0.861,-0.31,-0.12,1.05,-2.16,-0.60,0.72,
0.865,-0.31,-0.12,1.05,-2.16,-0.60,0.72,
0.865,-0.31,-0.12,1.05,-2.08,-0.71,0.83,
0.866,-0.30,-0.12,1.06,-2.08,-0.71,0.83,
0.869,-0.29,-0.12,1.05,-2.08,-0.71,0.83,
0.869,-0.29,-0.12,1.05,-1.95,-0.76,0.87,
0.871,-0.29,-0.12,1.06,-1.95,-0.76,0.87,
0.874,-0.29,-0.12,1.06,-1.77,-0.71,0.94,
0.874,-0.28,-0.12,1.07,-1.77,-0.71,0.94,
0.876,-0.28,-0.11,1.07,-1.77,-0.71,0.94,
0.88,-0.27,-0.11,1.08,-1.77,-0.71,0.94,
0.88,-0.27,-0.11,1.08,-1.61,-0.68,1.02,
0.882,-0.27,-0.10,1.08,-1.61,-0.68,1.02,
0.884,-0.26,-0.10,1.08,-1.61,-0.68,1.02,
0.884,-0.26,-0.10,1.08,-1.52,-0.56,1.12,
0.886,-0.26,-0.09,1.08,-1.52,-0.56,1.12,
0.889,-0.26,-0.09,1.08,-1.37,-0.42,1.18,
0.889,-0.26,-0.08,1.08,-1.37,-0.42,1.18,
0.891,-0.25,-0.07,1.08,-1.37,-0.42,1.18,
0.894,-0.25,-0.07,1.07,-1.37,-0.42,1.18,
0.894,-0.25,-0.07,1.07,-1.28,-0.26,1.17,
0.896,-0.25,-0.06,1.07,-1.28,-0.26,1.17,
0.9,-0.25,-0.06,1.07,-1.18,-0.12,1.12,
0.9,-0.25,-0.06,1.06,-1.18,-0.12,1.12,
0.901,-0.25,-0.05,1.05,-1.18,-0.12,1.12,
0.904,-0.25,-0.05,1.05,-1.18,-0.12,1.12,
0.904,-0.25,-0.05,1.05,-1.15,-0.06,1.05,
0.906,-0.24,-0.05,1.04,-1.15,-0.06,1.05,
0.909,-0.24,-0.05,1.04,-1.10,0.04,0.84,
0.909,-0.24,-0.05,1.03,-1.10,0.04,0.84,
0.911,-0.25,-0.05,1.02,-1.10,0.04,0.84,
0.914,-0.24,-0.05,1.01,-1.10,0.04,0.84,
0.915,-0.24,-0.05,1.01,-1.00,0.05,0.72,
0.916,-0.24,-0.06,1.00,-1.00,0.05,0.72,
0.918,-0.24,-0.06,1.00,-0.96,0.06,0.57,
0.919,-0.25,-0.06,0.99,-0.96,0.06,0.57,
0.921,-0.26,-0.06,0.98,-0.96,0.06,0.57,
0.923,-0.26,-0.06,0.98,-0.94,-0.02,0.36,
0.924,-0.26,-0.07,0.96,-0.94,-0.02,0.36,
0.926,-0.27,-0.08,0.95,-0.94,-0.02,0.36,
0.93,-0.27,-0.08,0.95,-0.94,-0.02,0.36,
0.93,-0.27,-0.08,0.95,-1.01,-0.13,0.11,
0.931,-0.28,-0.09,0.94,-1.01,-0.13,0.11,
0.936,-0.28,-0.09,0.94,-1.01,-0.13,0.11,
0.937,-0.28,-0.09,0.94,-1.13,-0.26,-0.07,
0.937,-0.29,-0.09,0.93,-1.13,-0.26,-0.07,
0.938,-0.30,-0.10,0.93,-1.13,-0.26,-0.07,
0.938,-0.30,-0.10,0.93,-1.17,-0.35,-0.19,
0.941,-0.30,-0.10,0.94,-1.17,-0.35,-0.19,
0.943,-0.31,-0.10,0.94,-1.17,-0.35,-0.19,
0.943,-0.31,-0.10,0.94,-1.21,-0.39,-0.26,
0.945,-0.31,-0.09,0.94,-1.21,-0.39,-0.26,
0.949,-0.31,-0.09,0.94,-1.35,-0.40,-0.19,
0.95,-0.32,-0.09,0.95,-1.35,-0.40,-0.19,
0.95,-0.32,-0.08,0.96,-1.35,-0.40,-0.19,
0.953,-0.32,-0.08,0.98,-1.35,-0.40,-0.19,
0.954,-0.32,-0.08,0.98,-1.38,-0.35,-0.13,
0.955,-0.31,-0.08,0.99,-1.38,-0.35,-0.13,
0.958,-0.31,-0.07,1.01,-1.38,-0.35,-0.13,
0.958,-0.31,-0.07,1.01,-1.39,-0.25,0.14,
0.96,-0.30,-0.06,1.03,-1.39,-0.25,0.14,
0.964,-0.30,-0.05,1.05,-1.39,-0.25,0.14,
0.965,-0.30,-0.05,1.05,-1.29,-0.13,0.47,
0.966,-0.30,-0.04,1.07,-1.29,-0.13,0.47,
0.968,-0.29,-0.03,1.09,-1.29,-0.13,0.47,
0.968,-0.29,-0.03,1.09,-1.16,0.12,0.79,
0.97,-0.29,-0.02,1.11,-1.16,0.12,0.79,
0.973,-0.28,-0.01,1.12,-1.16,0.12,0.79,
0.973,-0.28,-0.01,1.12,-1.10,0.33,1.23,
0.975,-0.28,-0.01,1.14,-1.10,0.33,1.23,
0.978,-0.29,-0.02,1.15,-1.10,0.33,1.23,
0.978,-0.29,-0.02,1.15,-0.99,0.54,1.56,
0.98,-0.28,-0.02,1.16,-0.99,0.54,1.56,
0.983,-0.28,-0.04,1.18,-0.99,0.54,1.56,
0.983,-0.28,-0.04,1.18,-1.00,0.56,1.86,
0.985,-0.29,-0.04,1.19,-1.00,0.56,1.86,
0.988,-0.29,-0.06,1.19,-1.00,0.56,1.86,
0.988,-0.29,-0.06,1.19,-0.99,0.48,2.09,
0.99,-0.30,-0.07,1.20,-0.99,0.48,2.09,
0.993,-0.31,-0.09,1.21,-0.99,0.48,2.09,
0.993,-0.31,-0.09,1.21,-1.05,0.31,2.29,
0.995,-0.31,-0.10,1.21,-1.05,0.31,2.29,
0.998,-0.31,-0.10,1.21,-1.15,0.07,2.40,
0.999,-0.31,-0.11,1.21,-1.15,0.07,2.40,
1.0,-0.32,-0.12,1.22,-1.15,0.07,2.40,
1.003,-0.32,-0.13,1.22,-1.15,0.07,2.40,
1.003,-0.32,-0.13,1.22,-1.22,-0.16,2.50,
1.006,-0.32,-0.14,1.22,-1.22,-0.16,2.50,
1.008,-0.32,-0.14,1.22,-1.31,-0.37,2.56,
1.008,-0.32,-0.15,1.22,-1.31,-0.37,2.56,
1.011,-0.32,-0.17,1.22,-1.31,-0.37,2.56,
1.013,-0.32,-0.18,1.22,-1.31,-0.37,2.56,
1.013,-0.32,-0.18,1.22,-1.33,-0.54,2.56,
1.015,-0.32,-0.19,1.22,-1.33,-0.54,2.56,
1.017,-0.31,-0.19,1.21,-1.33,-0.54,2.56,
1.018,-0.31,-0.19,1.21,-1.29,-0.74,2.55,
1.021,-0.30,-0.19,1.21,-1.29,-0.74,2.55,
1.023,-0.30,-0.19,1.21,-1.22,-0.89,2.52,
1.023,-0.30,-0.18,1.21,-1.22,-0.89,2.52,
1.025,-0.29,-0.18,1.20,-1.22,-0.89,2.52,
1.028,-0.27,-0.18,1.20,-1.22,-0.89,2.52,
1.028,-0.27,-0.18,1.20,-1.07,-0.85,2.47,
1.03,-0.26,-0.17,1.20,-1.07,-0.85,2.47,
1.032,-0.25,-0.16,1.19,-1.07,-0.85,2.47,
1.033,-0.25,-0.16,1.19,-0.85,-0.78,2.35,
1.035,-0.24,-0.16,1.19,-0.85,-0.78,2.35,
1.038,-0.24,-0.16,1.19,-0.85,-0.78,2.35,
1.038,-0.24,-0.16,1.19,-0.62,-0.64,2.30,
1.04,-0.23,-0.15,1.19,-0.62,-0.64,2.30,
1.043,-0.22,-0.15,1.18,-0.62,-0.64,2.30,
1.044,-0.22,-0.15,1.18,-0.45,-0.58,2.22,
1.045,-0.22,-0.15,1.19,-0.45,-0.58,2.22,
1.052,-0.22,-0.15,1.19,-0.28,-0.49,2.18,
1.052,-0.22,-0.15,1.18,-0.28,-0.49,2.18,
1.053,-0.21,-0.15,1.18,-0.28,-0.49,2.18,
1.053,-0.21,-0.15,1.18,-0.21,-0.47,2.19,
1.053,-0.22,-0.14,1.18,-0.21,-0.47,2.19,
1.054,-0.21,-0.14,1.17,-0.21,-0.47,2.19,
1.057,-0.21,-0.14,1.17,-0.21,-0.47,2.19,
1.057,-0.21,-0.14,1.17,-0.15,-0.42,2.12,
1.06,-0.22,-0.14,1.17,-0.15,-0.42,2.12,
1.063,-0.21,-0.14,1.17,-0.15,-0.42,2.12,
1.063,-0.21,-0.14,1.17,-0.11,-0.39,2.02,
1.065,-0.21,-0.14,1.16,-0.11,-0.39,2.02,
1.067,-0.22,-0.14,1.16,-0.11,-0.39,2.02,
1.067,-0.22,-0.14,1.16,-0.12,-0.36,2.02,
1.07,-0.22,-0.14,1.15,-0.12,-0.36,2.02,
1.073,-0.22,-0.14,1.15,-0.13,-0.34,1.91,
1.073,-0.23,-0.14,1.14,-0.13,-0.34,1.91,
1.075,-0.24,-0.15,1.14,-0.13,-0.34,1.91,
1.078,-0.24,-0.15,1.13,-0.13,-0.34,1.91,
1.078,-0.24,-0.15,1.13,-0.24,-0.39,1.79,
1.08,-0.25,-0.16,1.13,-0.24,-0.39,1.79,
1.082,-0.26,-0.17,1.12,-0.24,-0.39,1.79,
1.082,-0.26,-0.17,1.12,-0.38,-0.44,1.69,
1.084,-0.26,-0.17,1.11,-0.38,-0.44,1.69,
1.087,-0.26,-0.17,1.11,-0.47,-0.56,1.54,
1.087,-0.26,-0.17,1.11,-0.47,-0.56,1.54,
1.09,-0.27,-0.17,1.11,-0.47,-0.56,1.54,
1.093,-0.27,-0.17,1.11,-0.47,-0.56,1.54,
1.093,-0.27,-0.17,1.11,-0.56,-0.65,1.44,
1.095,-0.27,-0.17,1.10,-0.56,-0.65,1.44,
1.099,-0.27,-0.17,1.10,-0.62,-0.63,1.39,
1.099,-0.26,-0.17,1.10,-0.62,-0.63,1.39,
1.1,-0.26,-0.16,1.11,-0.62,-0.63,1.39,
1.102,-0.26,-0.16,1.11,-0.62,-0.63,1.39,
1.102,-0.26,-0.16,1.11,-0.60,-0.60,1.33,
1.104,-0.25,-0.15,1.11,-0.60,-0.60,1.33,
1.107,-0.25,-0.14,1.11,-0.60,-0.60,1.33,
1.107,-0.25,-0.14,1.11,-0.56,-0.51,1.36,
1.109,-0.25,-0.13,1.12,-0.56,-0.51,1.36,
1.112,-0.24,-0.13,1.11,-0.56,-0.51,1.36,
1.112,-0.24,-0.13,1.11,-0.48,-0.36,1.40,
1.114,-0.25,-0.12,1.11,-0.48,-0.36,1.40,
1.116,-0.24,-0.12,1.11,-0.48,-0.36,1.40,
1.117,-0.24,-0.12,1.11,-0.42,-0.22,1.42,
1.119,-0.24,-0.12,1.11,-0.42,-0.22,1.42,
1.122,-0.24,-0.12,1.11,-0.38,-0.15,1.38,
1.122,-0.24,-0.11,1.11,-0.38,-0.15,1.38,
1.123,-0.24,-0.10,1.10,-0.38,-0.15,1.38,
1.126,-0.23,-0.10,1.10,-0.38,-0.15,1.38,
1.127,-0.23,-0.10,1.10,-0.32,-0.06,1.36,
1.129,-0.23,-0.09,1.11,-0.32,-0.06,1.36,
1.137,-0.23,-0.08,1.10,-0.32,-0.06,1.36,
1.137,-0.23,-0.08,1.10,-0.29,0.06,1.31,
1.138,-0.23,-0.07,1.10,-0.29,0.06,1.31,
1.138,-0.22,-0.07,1.10,-0.29,0.06,1.31,
1.138,-0.22,-0.07,1.10,-0.25,0.20,1.30,
1.138,-0.22,-0.06,1.09,-0.25,0.20,1.30,
1.141,-0.23,-0.06,1.08,-0.25,0.20,1.30,
1.141,-0.23,-0.06,1.08,-0.21,0.32,1.25,
1.143,-0.23,-0.06,1.08,-0.21,0.32,1.25,
1.146,-0.23,-0.06,1.07,-0.21,0.32,1.25,
1.147,-0.23,-0.06,1.07,-0.20,0.41,1.15,
1.149,-0.23,-0.06,1.06,-0.20,0.41,1.15,
1.152,-0.23,-0.06,1.06,-0.20,0.41,1.15,
1.152,-0.23,-0.06,1.06,-0.21,0.45,1.03,
1.153,-0.23,-0.06,1.05,-0.21,0.45,1.03,
1.156,-0.24,-0.07,1.05,-0.21,0.45,1.03,
1.157,-0.24,-0.07,1.05,-0.21,0.44,0.90,
1.158,-0.24,-0.07,1.04,-0.21,0.44,0.90,
1.161,-0.24,-0.08,1.04,-0.21,0.44,0.90,
1.161,-0.24,-0.08,1.04,-0.26,0.37,0.77,
1.163,-0.24,-0.09,1.04,-0.26,0.37,0.77,
1.167,-0.24,-0.09,1.03,-0.26,0.37,0.77,
1.167,-0.24,-0.09,1.03,-0.28,0.28,0.68,
1.168,-0.23,-0.09,1.03,-0.28,0.28,0.68,
1.171,-0.23,-0.09,1.03,-0.26,0.13,0.61,
1.171,-0.23,-0.10,1.03,-0.26,0.13,0.61,
1.173,-0.23,-0.10,1.03,-0.26,0.13,0.61,
1.176,-0.23,-0.11,1.03,-0.26,0.13,0.61,
1.176,-0.23,-0.11,1.03,-0.21,0.04,0.58,
1.178,-0.23,-0.11,1.04,-0.21,0.04,0.58,
1.182,-0.22,-0.12,1.04,-0.21,0.04,0.58,
1.183,-0.22,-0.12,1.04,-0.16,-0.04,0.60,
1.184,-0.22,-0.12,1.05,-0.16,-0.04,0.60,
1.186,-0.21,-0.13,1.05,-0.16,-0.04,0.60,
1.186,-0.21,-0.13,1.05,-0.12,-0.15,0.68,
1.188,-0.21,-0.13,1.06,-0.12,-0.15,0.68,
1.191,-0.20,-0.14,1.08,-0.12,-0.15,0.68,
1.191,-0.20,-0.14,1.08,-0.04,-0.25,0.79,
1.193,-0.19,-0.14,1.08,-0.04,-0.25,0.79,
1.196,-0.19,-0.14,1.08,0.10,-0.32,0.96,
1.196,-0.18,-0.14,1.10,0.10,-0.32,0.96,
1.199,-0.18,-0.14,1.10,0.10,-0.32,0.96,
1.201,-0.17,-0.14,1.11,0.10,-0.32,0.96,
1.201,-0.17,-0.14,1.11,0.25,-0.39,1.16,
1.203,-0.17,-0.15,1.12,0.25,-0.39,1.16,
1.205,-0.16,-0.15,1.13,0.25,-0.39,1.16,
1.206,-0.16,-0.15,1.13,0.38,-0.37,1.31,
1.208,-0.16,-0.15,1.13,0.38,-0.37,1.31,
1.211,-0.16,-0.15,1.14,0.38,-0.37,1.31,
1.211,-0.16,-0.15,1.14,0.45,-0.41,1.48,
1.213,-0.16,-0.15,1.14,0.45,-0.41,1.48,
1.215,-0.16,-0.15,1.15,0.45,-0.41,1.48,
1.216,-0.16,-0.15,1.15,0.47,-0.40,1.56,
1.218,-0.16,-0.14,1.15,0.47,-0.40,1.56,
1.221,-0.16,-0.14,1.15,0.49,-0.38,1.66,
1.221,-0.16,-0.14,1.15,0.49,-0.38,1.66,
1.222,-0.16,-0.14,1.15,0.49,-0.38,1.66,
1.225,-0.16,-0.14,1.16,0.49,-0.38,1.66,
1.225,-0.16,-0.14,1.16,0.48,-0.36,1.70,
1.227,-0.16,-0.14,1.15,0.48,-0.36,1.70,
1.23,-0.16,-0.14,1.15,0.45,-0.32,1.77,
1.23,-0.16,-0.14,1.15,0.45,-0.32,1.77,
1.233,-0.16,-0.14,1.15,0.45,-0.32,1.77,
1.235,-0.16,-0.14,1.14,0.45,-0.32,1.77,
1.236,-0.16,-0.14,1.14,0.44,-0.30,1.73,
1.237,-0.16,-0.14,1.14,0.44,-0.30,1.73,
1.24,-0.16,-0.15,1.14,0.44,-0.30,1.73,
1.241,-0.16,-0.15,1.14,0.48,-0.31,1.67,
1.243,-0.16,-0.15,1.13,0.48,-0.31,1.67,
1.245,-0.16,-0.15,1.13,0.50,-0.37,1.59,
1.245,-0.16,-0.15,1.11,0.50,-0.37,1.59,
1.247,-0.16,-0.15,1.11,0.50,-0.37,1.59,
1.253,-0.16,-0.15,1.10,0.50,-0.37,1.59,
1.254,-0.16,-0.15,1.10,0.49,-0.42,1.41,
1.254,-0.16,-0.15,1.10,0.49,-0.42,1.41,
1.256,-0.16,-0.15,1.10,0.49,-0.42,1.41,
1.257,-0.16,-0.15,1.10,0.48,-0.44,1.23,
1.257,-0.16,-0.15,1.09,0.48,-0.44,1.23,
1.26,-0.16,-0.15,1.09,0.48,-0.44,1.23,
1.26,-0.16,-0.15,1.09,0.49,-0.43,1.21,
1.262,-0.16,-0.14,1.09,0.49,-0.43,1.21,
1.266,-0.16,-0.14,1.09,0.49,-0.43,1.21,
1.267,-0.16,-0.14,1.09,0.50,-0.42,1.10,
1.268,-0.17,-0.14,1.10,0.50,-0.42,1.10,
1.27,-0.17,-0.14,1.10,0.44,-0.36,1.12,
1.27,-0.17,-0.14,1.11,0.44,-0.36,1.12,
1.272,-0.17,-0.14,1.10,0.44,-0.36,1.12,
1.275,-0.17,-0.14,1.10,0.39,-0.32,1.21,
1.275,-0.17,-0.14,1.11,0.39,-0.32,1.21,
1.277,-0.18,-0.14,1.11,0.39,-0.32,1.21,
1.28,-0.18,-0.14,1.12,0.39,-0.32,1.21,
1.28,-0.18,-0.14,1.12,0.33,-0.31,1.23,
1.283,-0.17,-0.14,1.13,0.33,-0.31,1.23,
1.285,-0.16,-0.14,1.13,0.33,-0.31,1.23,
1.285,-0.16,-0.14,1.13,0.30,-0.31,1.35,
1.287,-0.16,-0.14,1.14,0.30,-0.31,1.35,
1.29,-0.15,-0.14,1.15,0.30,-0.31,1.35,
1.29,-0.15,-0.14,1.15,0.40,-0.35,1.49,
1.292,-0.14,-0.15,1.15,0.40,-0.35,1.49,
1.295,-0.14,-0.15,1.17,0.40,-0.35,1.49,
1.295,-0.14,-0.15,1.17,0.49,-0.36,1.64,
1.297,-0.13,-0.15,1.17,0.49,-0.36,1.64,
1.3,-0.12,-0.15,1.18,0.49,-0.36,1.64,
1.3,-0.12,-0.15,1.18,0.61,-0.42,1.76,
1.302,-0.12,-0.16,1.18,0.61,-0.42,1.76,
1.305,-0.11,-0.16,1.17,0.61,-0.42,1.76,
1.305,-0.11,-0.16,1.17,0.75,-0.42,1.88,
1.307,-0.10,-0.16,1.18,0.75,-0.42,1.88,
1.309,-0.10,-0.17,1.19,0.75,-0.42,1.88,
1.31,-0.10,-0.17,1.19,0.86,-0.50,1.88,
1.312,-0.08,-0.17,1.19,0.86,-0.50,1.88,
1.316,-0.08,-0.17,1.19,0.98,-0.56,1.93,
1.32,-0.07,-0.17,1.19,0.98,-0.56,1.93,
1.32,-0.06,-0.17,1.20,0.98,-0.56,1.93,
1.32,-0.06,-0.17,1.20,1.17,-0.60,2.03,
1.32,-0.05,-0.17,1.20,1.17,-0.60,2.03,
1.324,-0.04,-0.18,1.20,1.17,-0.60,2.03,
1.325,-0.04,-0.18,1.20,1.17,-0.60,2.03,
1.325,-0.04,-0.18,1.20,1.36,-0.64,2.08,
1.327,-0.03,-0.18,1.20,1.36,-0.64,2.08,
1.33,-0.02,-0.18,1.19,1.36,-0.64,2.08,
1.33,-0.02,-0.18,1.19,1.47,-0.68,2.07,
1.334,-0.02,-0.18,1.18,1.47,-0.68,2.07,
1.335,-0.02,-0.18,1.18,1.47,-0.68,2.07,
1.335,-0.02,-0.18,1.18,1.63,-0.71,2.03,
1.337,-0.01,-0.18,1.18,1.63,-0.71,2.03,
1.34,-0.01,-0.17,1.18,1.63,-0.71,2.03,
1.34,-0.01,-0.17,1.18,1.69,-0.71,1.88,
1.342,-0.01,-0.17,1.18,1.69,-0.71,1.88,
1.345,-0.01,-0.17,1.18,1.76,-0.72,1.88,
1.346,-0.01,-0.16,1.17,1.76,-0.72,1.88,
1.347,-0.01,-0.16,1.17,1.76,-0.72,1.88,
1.349,-0.01,-0.15,1.15,1.76,-0.72,1.88,
1.35,-0.01,-0.15,1.15,1.77,-0.63,1.79,
1.352,-0.01,-0.15,1.14,1.77,-0.63,1.79,
1.355,-0.02,-0.15,1.14,1.77,-0.63,1.79,
1.355,-0.02,-0.15,1.14,1.76,-0.55,1.66,
1.357,-0.03,-0.14,1.13,1.76,-0.55,1.66,
1.359,-0.04,-0.14,1.11,1.76,-0.55,1.66,
1.359,-0.04,-0.14,1.11,1.66,-0.50,1.46,
1.361,-0.04,-0.13,1.11,1.66,-0.50,1.46,
1.365,-0.04,-0.13,1.11,1.49,-0.47,1.25,
1.366,-0.05,-0.13,1.11,1.49,-0.47,1.25,
1.369,-0.06,-0.12,1.10,1.49,-0.47,1.25,
1.37,-0.06,-0.12,1.10,1.38,-0.37,1.14,
1.37,-0.06,-0.11,1.10,1.38,-0.37,1.14,
1.371,-0.07,-0.11,1.10,1.38,-0.37,1.14,
1.374,-0.07,-0.09,1.09,1.38,-0.37,1.14,
1.374,-0.07,-0.09,1.09,1.25,-0.27,1.06,
1.377,-0.07,-0.09,1.09,1.25,-0.27,1.06,
1.379,-0.08,-0.08,1.09,1.25,-0.27,1.06,
1.379,-0.08,-0.08,1.09,1.20,-0.14,0.99,
1.382,-0.08,-0.07,1.09,1.20,-0.14,0.99,
1.385,-0.08,-0.06,1.09,1.20,-0.14,0.99,
1.385,-0.08,-0.06,1.09,1.15,-0.02,0.95,
1.386,-0.08,-0.06,1.09,1.15,-0.02,0.95,
1.39,-0.08,-0.05,1.09,1.15,-0.02,0.95,
1.39,-0.08,-0.05,1.09,1.13,0.12,0.93,
1.392,-0.08,-0.05,1.09,1.13,0.12,0.93,
1.394,-0.08,-0.05,1.09,1.10,0.20,0.90,
1.395,-0.08,-0.05,1.09,1.10,0.20,0.90,
1.396,-0.08,-0.05,1.09,1.10,0.20,0.90,
1.401,-0.07,-0.05,1.09,1.10,0.20,0.90,
1.401,-0.07,-0.05,1.09,1.11,0.22,0.96,
1.402,-0.06,-0.05,1.10,1.11,0.22,0.96,
1.404,-0.06,-0.06,1.10,1.11,0.22,0.96,
1.404,-0.06,-0.06,1.10,1.15,0.22,0.93,
1.406,-0.04,-0.06,1.11,1.15,0.22,0.93,
1.409,-0.03,-0.06,1.12,1.15,0.22,0.93,
1.41,-0.03,-0.06,1.12,1.30,0.16,1.03,
1.411,-0.02,-0.07,1.12,1.30,0.16,1.03,
1.415,-0.01,-0.07,1.12,1.30,0.16,1.03,
1.415,-0.01,-0.07,1.12,1.47,0.09,1.14,
1.417,-0.01,-0.08,1.13,1.47,0.09,1.14,
1.419,-0.01,-0.08,1.13,1.65,0.00,1.19,
1.419,-0.00,-0.08,1.13,1.65,0.00,1.19,
1.421,0.01,-0.08,1.14,1.65,0.00,1.19,
1.424,0.01,-0.09,1.14,1.65,0.00,1.19,
1.424,0.01,-0.09,1.14,1.74,-0.09,1.29,
1.426,0.02,-0.09,1.15,1.74,-0.09,1.29,
1.43,0.02,-0.09,1.15,1.74,-0.09,1.29,
1.43,0.02,-0.09,1.15,1.86,-0.17,1.40,
1.431,0.03,-0.10,1.15,1.86,-0.17,1.40,
1.434,0.03,-0.10,1.15,1.86,-0.17,1.40,
1.435,0.03,-0.10,1.15,1.94,-0.27,1.48,
1.436,0.03,-0.10,1.15,1.94,-0.27,1.48,
1.439,0.03,-0.10,1.15,1.94,-0.27,1.48,
1.439,0.03,-0.10,1.15,1.98,-0.33,1.48,
1.441,0.03,-0.10,1.15,1.98,-0.33,1.48,
1.444,0.03,-0.10,1.15,2.02,-0.35,1.45,
1.444,0.04,-0.10,1.15,2.02,-0.35,1.45,
1.446,0.03,-0.10,1.15,2.02,-0.35,1.45,
1.449,0.03,-0.09,1.14,2.02,-0.35,1.45,
1.449,0.03,-0.09,1.14,2.03,-0.37,1.44,
1.451,0.03,-0.10,1.14,2.03,-0.37,1.44,
1.453,0.03,-0.09,1.14,2.03,-0.37,1.44,
1.454,0.03,-0.09,1.14,2.00,-0.37,1.39,
1.456,0.03,-0.09,1.13,2.00,-0.37,1.39,
1.459,0.03,-0.08,1.13,2.00,-0.37,1.39,
1.459,0.03,-0.08,1.13,1.98,-0.36,1.33,
1.461,0.03,-0.09,1.13,1.98,-0.36,1.33,
1.464,0.03,-0.08,1.13,1.98,-0.36,1.33,
1.465,0.03,-0.08,1.13,1.94,-0.27,1.25,
1.466,0.03,-0.08,1.13,1.94,-0.27,1.25,
1.469,0.03,-0.08,1.13,1.97,-0.30,1.25,
1.47,0.03,-0.08,1.13,1.97,-0.30,1.25,
1.47,0.02,-0.08,1.13,1.97,-0.30,1.25,
1.473,0.02,-0.08,1.13,1.97,-0.30,1.25,
1.473,0.02,-0.08,1.13,1.98,-0.30,1.23,
1.475,0.02,-0.08,1.13,1.98,-0.30,1.23,
1.479,0.01,-0.07,1.13,1.98,-0.30,1.23,
1.48,0.01,-0.07,1.13,1.89,-0.31,1.21,
1.482,0.01,-0.07,1.14,1.89,-0.31,1.21,
1.488,0.01,-0.07,1.13,1.89,-0.31,1.21,
1.489,0.01,-0.07,1.13,1.83,-0.28,1.21,
1.489,0.01,-0.07,1.14,1.83,-0.28,1.21,
1.489,0.01,-0.07,1.15,1.83,-0.28,1.21,
1.489,0.01,-0.07,1.15,1.78,-0.21,1.25,
1.491,0.01,-0.07,1.17,1.78,-0.21,1.25,
1.493,0.01,-0.07,1.17,1.76,-0.26,1.38,
1.494,0.01,-0.07,1.17,1.76,-0.26,1.38,
1.496,0.00,-0.08,1.17,1.76,-0.26,1.38,
1.498,0.00,-0.08,1.17,1.78,-0.30,1.61,
1.499,0.00,-0.08,1.19,1.78,-0.30,1.61,
1.501,0.01,-0.09,1.19,1.78,-0.30,1.61,
1.503,0.00,-0.09,1.19,1.78,-0.30,1.61,
1.503,0.00,-0.09,1.19,1.71,-0.40,1.70,
1.505,0.00,-0.10,1.20,1.71,-0.40,1.70,
1.508,0.00,-0.10,1.20,1.70,-0.51,1.78,
1.508,0.01,-0.10,1.19,1.70,-0.51,1.78,
1.511,0.01,-0.10,1.19,1.70,-0.51,1.78,
1.513,0.01,-0.10,1.19,1.70,-0.51,1.78,
1.513,0.01,-0.10,1.19,1.67,-0.57,1.83,
1.515,0.01,-0.10,1.18,1.67,-0.57,1.83,
1.518,0.01,-0.10,1.18,1.69,-0.64,1.78,
1.518,0.01,-0.10,1.17,1.69,-0.64,1.78,
1.52,0.01,-0.09,1.17,1.69,-0.64,1.78,
1.523,0.02,-0.10,1.16,1.69,-0.64,1.78,
1.523,0.02,-0.10,1.16,1.68,-0.59,1.63,
1.525,0.01,-0.09,1.15,1.68,-0.59,1.63,
1.528,0.01,-0.09,1.15,1.68,-0.59,1.63,
1.528,0.01,-0.09,1.15,1.69,-0.58,1.50,
1.531,0.01,-0.09,1.15,1.69,-0.58,1.50,
1.535,0.00,-0.09,1.14,1.69,-0.58,1.50,
1.536,0.00,-0.09,1.14,1.62,-0.56,1.40,
1.536,-0.00,-0.09,1.13,1.62,-0.56,1.40,
1.538,-0.01,-0.09,1.13,1.62,-0.56,1.40,
1.538,-0.01,-0.09,1.13,1.51,-0.53,1.31,
1.54,-0.01,-0.08,1.13,1.51,-0.53,1.31,
1.544,-0.01,-0.08,1.13,1.37,-0.56,1.15,
1.544,-0.01,-0.08,1.12,1.37,-0.56,1.15,
1.544,-0.02,-0.07,1.12,1.37,-0.56,1.15,
1.548,-0.02,-0.07,1.11,1.37,-0.56,1.15,
1.548,-0.02,-0.07,1.11,1.29,-0.54,1.09,
1.552,-0.03,-0.07,1.11,1.29,-0.54,1.09,
1.552,-0.03,-0.07,1.11,1.29,-0.54,1.09,
1.553,-0.03,-0.07,1.11,1.19,-0.45,0.99,
1.555,-0.03,-0.07,1.11,1.19,-0.45,0.99,
1.557,-0.04,-0.07,1.10,1.19,-0.45,0.99,
1.557,-0.04,-0.07,1.10,1.05,-0.43,0.93,
1.56,-0.05,-0.07,1.10,1.05,-0.43,0.93,
1.563,-0.05,-0.07,1.10,1.05,-0.43,0.93,
1.563,-0.05,-0.07,1.10,0.98,-0.45,0.85,
1.565,-0.05,-0.07,1.10,0.98,-0.45,0.85,
1.569,-0.05,-0.07,1.10,0.85,-0.46,0.84,
1.569,-0.05,-0.07,1.10,0.85,-0.46,0.84,
1.569,-0.06,-0.08,1.10,0.85,-0.46,0.84,
1.573,-0.06,-0.08,1.10,0.77,-0.52,0.83,
1.573,-0.06,-0.08,1.10,0.77,-0.52,0.83,
1.575,-0.05,-0.07,1.10,0.77,-0.52,0.83,
1.577,-0.06,-0.07,1.09,0.77,-0.52,0.83,
1.578,-0.06,-0.07,1.09,0.68,-0.58,0.80,
1.58,-0.06,-0.07,1.08,0.68,-0.58,0.80,
1.582,-0.06,-0.07,1.08,0.68,-0.58,0.80,
1.583,-0.06,-0.07,1.08,0.68,-0.56,0.74,
1.588,-0.06,-0.06,1.08,0.68,-0.56,0.74,
1.589,-0.05,-0.06,1.07,0.68,-0.56,0.74,
1.589,-0.05,-0.06,1.07,0.67,-0.58,0.64,
1.589,-0.05,-0.05,1.07,0.67,-0.58,0.64,
1.592,-0.05,-0.05,1.07,0.69,-0.55,0.60,
1.592,-0.06,-0.04,1.07,0.69,-0.55,0.60,
1.594,-0.05,-0.04,1.07,0.69,-0.55,0.60,
1.597,-0.04,-0.04,1.06,0.69,-0.55,0.60,
1.597,-0.04,-0.04,1.06,0.69,-0.43,0.47,
1.6,-0.04,-0.03,1.06,0.69,-0.43,0.47,
1.602,-0.04,-0.02,1.04,0.69,-0.43,0.47,
1.602,-0.04,-0.02,1.04,0.78,-0.37,0.48,
1.604,-0.05,-0.02,1.04,0.78,-0.37,0.48,
1.607,-0.05,-0.01,1.03,0.78,-0.37,0.48,
1.608,-0.05,-0.01,1.03,0.79,-0.25,0.31,
1.609,-0.05,-0.01,1.02,0.79,-0.25,0.31,
1.612,-0.05,-0.01,1.02,0.79,-0.25,0.31,
1.612,-0.05,-0.01,1.02,0.75,-0.22,0.16,
1.614,-0.07,0.00,1.01,0.75,-0.22,0.16,
1.619,-0.07,0.00,1.01,0.69,-0.17,0.00,
1.619,-0.07,0.01,1.00,0.69,-0.17,0.00,
1.62,-0.07,0.02,1.01,0.69,-0.17,0.00,
1.621,-0.07,0.02,1.01,0.69,-0.17,0.00,
1.622,-0.07,0.02,1.01,0.55,-0.09,-0.12,
1.624,-0.08,0.03,1.00,0.55,-0.09,-0.12,
1.627,-0.07,0.03,1.00,0.55,-0.09,-0.12,
1.627,-0.07,0.03,1.00,0.48,0.03,-0.13,
1.629,-0.08,0.04,0.99,0.48,0.03,-0.13,
1.631,-0.08,0.05,0.99,0.48,0.03,-0.13,
1.632,-0.08,0.05,0.99,0.44,0.11,-0.21,
1.634,-0.07,0.04,0.99,0.44,0.11,-0.21,
1.637,-0.07,0.05,0.99,0.44,0.11,-0.21,
1.637,-0.07,0.05,0.99,0.38,0.17,-0.29,
1.639,-0.06,0.05,0.99,0.38,0.17,-0.29,
1.641,-0.06,0.05,0.99,0.41,0.18,-0.29,
1.641,-0.06,0.05,0.98,0.41,0.18,-0.29,
1.643,-0.06,0.04,0.99,0.41,0.18,-0.29,
1.648,-0.05,0.03,0.98,0.41,0.18,-0.29,
1.648,-0.05,0.03,0.98,0.47,0.18,-0.32,
1.649,-0.05,0.02,0.98,0.47,0.18,-0.32,
1.652,-0.05,0.01,0.98,0.47,0.18,-0.32,
1.654,-0.05,0.01,0.98,0.50,0.02,-0.37,
1.654,-0.05,-0.00,0.99,0.50,0.02,-0.37,
1.656,-0.05,-0.00,0.99,0.54,-0.19,-0.39,
1.657,-0.04,-0.00,0.99,0.54,-0.19,-0.39,
1.659,-0.04,-0.01,0.99,0.54,-0.19,-0.39,
1.661,-0.04,-0.01,0.99,0.53,-0.36,-0.33,
1.662,-0.03,-0.01,1.00,0.53,-0.36,-0.33,
1.664,-0.03,-0.01,1.02,0.53,-0.36,-0.33,
1.668,-0.03,-0.01,1.02,0.58,-0.42,-0.22,
1.668,-0.02,-0.01,1.04,0.58,-0.42,-0.22,
1.669,-0.02,0.00,1.05,0.58,-0.42,-0.22,
1.671,-0.02,0.01,1.05,0.58,-0.42,-0.22,
1.671,-0.02,0.01,1.05,0.64,-0.45,0.10,
1.673,-0.01,0.01,1.04,0.64,-0.45,0.10,
1.676,-0.01,0.01,1.04,0.64,-0.36,0.25,
1.677,-0.01,0.01,1.06,0.64,-0.36,0.25,
1.679,-0.01,0.01,1.07,0.64,-0.36,0.25,
1.681,-0.01,0.01,1.07,0.72,-0.31,0.29,
1.682,-0.00,0.02,1.07,0.72,-0.31,0.29,
1.684,0.00,0.02,1.06,0.72,-0.31,0.29,
1.686,0.00,0.02,1.07,0.72,-0.31,0.29,
1.686,0.00,0.02,1.07,0.77,-0.31,0.47,
1.689,0.00,0.02,1.06,0.77,-0.31,0.47,
1.692,0.00,0.02,1.06,0.83,-0.31,0.43,
1.692,0.00,0.02,1.06,0.83,-0.31,0.43,
1.694,0.01,0.02,1.05,0.83,-0.31,0.43,
1.696,0.01,0.02,1.05,0.83,-0.31,0.43,
1.697,0.01,0.02,1.05,0.83,-0.32,0.38,
1.699,0.01,0.03,1.03,0.83,-0.32,0.38,
1.701,0.01,0.02,1.03,0.83,-0.32,0.38,
1.701,0.01,0.02,1.03,0.84,-0.32,0.28,
1.706,0.00,0.02,1.02,0.84,-0.32,0.28,
1.707,0.01,0.02,1.00,0.84,-0.32,0.28,
1.707,0.01,0.02,1.00,0.85,-0.33,0.08,
1.708,0.01,0.02,0.97,0.85,-0.33,0.08,
1.711,0.02,0.03,0.96,0.85,-0.33,0.08,
1.711,0.02,0.03,0.96,0.83,-0.44,-0.12,
1.713,0.03,0.03,0.95,0.83,-0.44,-0.12,
1.716,0.03,0.03,0.95,0.89,-0.44,-0.54,
1.716,0.04,0.04,0.94,0.89,-0.44,-0.54,
1.719,0.05,0.04,0.93,0.89,-0.44,-0.54,
1.721,0.05,0.04,0.92,0.89,-0.44,-0.54,
1.721,0.05,0.04,0.92,1.07,-0.38,-0.71,
1.723,0.06,0.05,0.91,1.07,-0.38,-0.71,
1.726,0.06,0.05,0.91,1.23,-0.33,-0.95,
1.726,0.07,0.05,0.90,1.23,-0.33,-0.95,
1.728,0.07,0.05,0.89,1.23,-0.33,-0.95,
1.731,0.08,0.05,0.88,1.23,-0.33,-0.95,
1.731,0.08,0.05,0.88,1.33,-0.30,-1.14,
1.733,0.08,0.05,0.87,1.33,-0.30,-1.14,
1.736,0.09,0.04,0.87,1.33,-0.30,-1.14,
1.736,0.09,0.04,0.87,1.43,-0.35,-1.32,
1.737,0.10,0.03,0.86,1.43,-0.35,-1.32,
1.741,0.10,0.03,0.86,1.54,-0.44,-1.44,
1.741,0.10,0.03,0.85,1.54,-0.44,-1.44,
1.742,0.11,0.02,0.85,1.54,-0.44,-1.44,
1.746,0.11,0.02,0.84,1.54,-0.44,-1.44,
1.746,0.11,0.02,0.84,1.63,-0.60,-1.58,
1.748,0.12,0.02,0.84,1.63,-0.60,-1.58,
1.751,0.12,0.01,0.84,1.63,-0.60,-1.58,
1.751,0.12,0.01,0.84,1.72,-0.76,-1.69,
1.753,0.12,0.01,0.83,1.72,-0.76,-1.69,
1.755,0.13,0.01,0.83,1.72,-0.76,-1.69,
1.756,0.13,0.01,0.83,1.79,-0.80,-1.74,
1.757,0.12,0.01,0.83,1.79,-0.80,-1.74,
1.761,0.12,-0.00,0.84,1.79,-0.80,-1.74,
1.761,0.12,-0.00,0.84,1.79,-0.89,-1.82,
1.763,0.13,-0.01,0.84,1.79,-0.89,-1.82,
1.766,0.13,-0.01,0.84,1.75,-0.97,-1.76,
1.766,0.13,-0.01,0.85,1.75,-0.97,-1.76,
1.769,0.13,-0.01,0.85,1.75,-0.97,-1.76,
1.771,0.12,-0.01,0.86,1.75,-0.97,-1.76,
1.771,0.12,-0.01,0.86,1.77,-1.05,-1.68,
1.772,0.13,-0.01,0.86,1.77,-1.05,-1.68,
1.776,0.13,-0.01,0.86,1.72,-1.09,-1.59,
1.776,0.13,-0.01,0.86,1.72,-1.09,-1.59,
1.778,0.12,-0.01,0.88,1.72,-1.09,-1.59,
1.781,0.12,-0.01,0.88,1.70,-1.08,-1.51,
1.781,0.12,-0.01,0.89,1.70,-1.08,-1.51,
1.783,0.12,-0.00,0.90,1.70,-1.08,-1.51,
1.786,0.12,-0.00,0.91,1.70,-1.08,-1.51,
1.787,0.12,-0.00,0.91,1.64,-1.07,-1.31,
1.787,0.12,0.00,0.92,1.64,-1.07,-1.31,
1.791,0.12,0.00,0.92,1.57,-1.02,-1.08,
1.791,0.12,0.01,0.93,1.57,-1.02,-1.08,
1.792,0.11,0.01,0.93,1.57,-1.02,-1.08,
1.795,0.11,0.01,0.95,1.57,-1.02,-1.08,
1.795,0.11,0.01,0.95,1.51,-0.95,-0.87,
1.797,0.11,0.01,0.95,1.51,-0.95,-0.87,
1.8,0.10,0.01,0.96,1.51,-0.95,-0.87,
1.8,0.10,0.01,0.96,1.43,-0.91,-0.72,
1.807,0.10,0.01,0.96,1.43,-0.91,-0.72,
1.807,0.09,0.01,0.97,1.43,-0.91,-0.72,
1.811,0.09,0.01,0.97,1.37,-0.89,-0.60,
1.811,0.09,0.01,0.97,1.37,-0.89,-0.60,
1.812,0.09,0.01,0.97,1.26,-0.87,-0.49,
1.814,0.10,0.01,0.96,1.26,-0.87,-0.49,
1.814,0.10,0.01,0.96,1.26,-0.87,-0.49,
1.817,0.11,0.02,0.96,1.26,-0.87,-0.49,
1.817,0.11,0.02,0.96,1.24,-0.86,-0.47,
1.818,0.10,0.01,0.97,1.24,-0.86,-0.47,
1.822,0.10,0.01,0.97,1.29,-0.81,-0.53,
1.822,0.10,0.01,0.97,1.29,-0.81,-0.53,
1.822,0.10,0.01,0.97,1.29,-0.81,-0.53,
1.824,0.10,0.01,0.97,1.27,-0.80,-0.45,
1.825,0.09,0.01,0.97,1.27,-0.80,-0.45,
1.827,0.09,0.01,0.97,1.27,-0.80,-0.45,
1.829,0.09,0.01,0.97,1.18,-0.83,-0.47,
1.83,0.09,0.01,0.97,1.18,-0.83,-0.47,
1.832,0.08,0.01,0.97,1.18,-0.83,-0.47,
1.836,0.08,0.01,0.97,1.18,-0.83,-0.47,
1.837,0.08,0.01,0.97,1.10,-0.80,-0.42,
1.837,0.09,0.01,0.96,1.10,-0.80,-0.42,
1.839,0.09,0.01,0.96,1.04,-0.81,-0.44,
1.839,0.08,0.02,0.96,1.04,-0.81,-0.44,
1.842,0.09,0.02,0.95,1.04,-0.81,-0.44,
1.845,0.09,0.02,0.95,1.04,-0.81,-0.44,
1.846,0.09,0.02,0.95,1.05,-0.75,-0.49,
1.846,0.09,0.02,0.94,1.05,-0.75,-0.49,
1.851,0.10,0.02,0.95,1.05,-0.75,-0.49,
1.851,0.10,0.02,0.95,1.09,-0.71,-0.61,
1.853,0.10,0.02,0.95,1.09,-0.71,-0.61,
1.855,0.10,0.02,0.95,1.09,-0.71,-0.61,
1.855,0.10,0.02,0.95,1.13,-0.72,-0.66,
1.856,0.10,0.01,0.94,1.13,-0.72,-0.66,
1.859,0.10,0.01,0.93,1.13,-0.72,-0.66,
1.86,0.10,0.01,0.93,1.12,-0.76,-0.66,
1.861,0.10,0.01,0.92,1.12,-0.76,-0.66,
1.865,0.10,0.01,0.92,1.10,-0.83,-0.79,
1.866,0.10,0.02,0.92,1.10,-0.83,-0.79,
1.866,0.10,0.02,0.91,1.10,-0.83,-0.79,
1.871,0.09,0.02,0.91,1.10,-0.83,-0.79,
1.872,0.09,0.02,0.91,1.08,-0.84,-0.91,
1.872,0.09,0.03,0.91,1.08,-0.84,-0.91,
1.874,0.09,0.03,0.90,1.08,-0.84,-0.91,
1.874,0.09,0.03,0.90,1.04,-0.79,-0.99,
1.876,0.09,0.03,0.90,1.04,-0.79,-0.99,
1.879,0.08,0.04,0.90,1.04,-0.79,-0.99,
1.879,0.08,0.04,0.90,0.95,-0.74,-1.03,
1.881,0.08,0.04,0.89,0.95,-0.74,-1.03,
1.884,0.07,0.04,0.88,0.95,-0.74,-1.03,
1.884,0.07,0.04,0.88,0.90,-0.69,-1.09,
1.887,0.07,0.05,0.88,0.90,-0.69,-1.09,
1.889,0.06,0.05,0.87,0.90,-0.69,-1.09,
1.889,0.06,0.05,0.87,0.80,-0.63,-1.23,
1.891,0.06,0.06,0.87,0.80,-0.63,-1.23,
1.894,0.06,0.06,0.86,0.80,-0.63,-1.23,
1.895,0.06,0.06,0.86,0.69,-0.56,-1.34,
1.896,0.05,0.07,0.87,0.69,-0.56,-1.34,
1.899,0.05,0.07,0.87,0.69,-0.56,-1.34,
1.9,0.05,0.07,0.87,0.61,-0.50,-1.41,
1.901,0.04,0.07,0.87,0.61,-0.50,-1.41,
1.904,0.04,0.08,0.86,0.61,-0.50,-1.41,
1.904,0.04,0.08,0.86,0.50,-0.40,-1.41,
1.906,0.04,0.08,0.86,0.50,-0.40,-1.41,
1.909,0.04,0.08,0.86,0.50,-0.40,-1.41,
1.909,0.04,0.08,0.86,0.41,-0.39,-1.40,
1.911,0.04,0.08,0.87,0.41,-0.39,-1.40,
1.913,0.04,0.08,0.87,0.40,-0.34,-1.42,
1.914,0.04,0.08,0.87,0.40,-0.34,-1.42,
1.915,0.03,0.08,0.88,0.40,-0.34,-1.42,
1.923,0.04,0.07,0.89,0.40,-0.34,-1.42,
1.924,0.04,0.07,0.89,0.36,-0.37,-1.33,
1.924,0.04,0.07,0.89,0.36,-0.37,-1.33,
1.924,0.05,0.07,0.90,0.36,-0.37,-1.33,
1.924,0.05,0.07,0.90,0.34,-0.42,-1.20,
1.926,0.05,0.07,0.90,0.34,-0.42,-1.20,
1.928,0.05,0.07,0.91,0.34,-0.42,-1.20,
1.929,0.05,0.07,0.91,0.42,-0.45,-1.09,
1.93,0.06,0.06,0.91,0.42,-0.45,-1.09,
1.933,0.07,0.06,0.91,0.42,-0.45,-1.09,
1.933,0.07,0.06,0.91,0.52,-0.52,-1.00,
1.936,0.07,0.06,0.91,0.52,-0.52,-1.00,
1.938,0.07,0.06,0.91,0.61,-0.61,-0.93,
1.939,0.08,0.06,0.91,0.61,-0.61,-0.93,
1.94,0.07,0.06,0.91,0.61,-0.61,-0.93,
1.943,0.08,0.05,0.91,0.61,-0.61,-0.93,
1.944,0.08,0.05,0.91,0.70,-0.64,-0.91,
1.945,0.09,0.06,0.91,0.70,-0.64,-0.91,
1.948,0.08,0.06,0.91,0.70,-0.64,-0.91,
1.948,0.08,0.06,0.91,0.72,-0.67,-0.90,
1.95,0.08,0.07,0.91,0.72,-0.67,-0.90,
1.953,0.08,0.07,0.90,0.72,-0.67,-0.90,
1.953,0.08,0.07,0.90,0.79,-0.61,-0.94,
1.955,0.08,0.07,0.90,0.79,-0.61,-0.94,
1.958,0.08,0.08,0.90,0.79,-0.61,-0.94,
1.958,0.08,0.08,0.90,0.73,-0.54,-0.98,
1.96,0.08,0.08,0.90,0.73,-0.54,-0.98,
1.963,0.08,0.08,0.90,0.73,-0.51,-1.03,
1.963,0.08,0.08,0.90,0.73,-0.51,-1.03,
1.965,0.09,0.09,0.89,0.73,-0.51,-1.03,
1.968,0.09,0.09,0.89,0.73,-0.51,-1.03,
1.968,0.09,0.09,0.89,0.75,-0.44,-1.05,
1.97,0.08,0.09,0.90,0.75,-0.44,-1.05,
1.973,0.08,0.10,0.90,0.75,-0.44,-1.05,
1.973,0.08,0.10,0.90,0.78,-0.39,-1.11,
1.975,0.08,0.10,0.90,0.78,-0.39,-1.11,
1.978,0.08,0.09,0.90,0.78,-0.39,-1.11,
1.978,0.08,0.09,0.90,0.74,-0.35,-1.06,
1.98,0.08,0.10,0.90,0.74,-0.35,-1.06,
1.983,0.09,0.11,0.90,0.74,-0.35,-1.06,
1.983,0.09,0.11,0.90,0.70,-0.31,-1.01,
1.988,0.08,0.11,0.90,0.70,-0.31,-1.01,
1.989,0.08,0.11,0.90,0.72,-0.22,-1.03,
1.989,0.08,0.11,0.91,0.72,-0.22,-1.03,
1.99,0.07,0.11,0.91,0.72,-0.22,-1.03,
1.993,0.07,0.11,0.91,0.72,-0.22,-1.03,
1.994,0.07,0.11,0.91,0.69,-0.19,-0.96,
1.995,0.07,0.11,0.91,0.69,-0.19,-0.96,
1.998,0.06,0.11,0.91,0.69,-0.19,-0.96,
1.999,0.06,0.11,0.91,0.60,-0.22,-0.89,
2.001,0.05,0.11,0.91,0.60,-0.22,-0.89,
2.004,0.04,0.11,0.91,0.60,-0.22,-0.89,
2.006,0.04,0.11,0.91,0.47,-0.21,-0.88,
2.006,0.03,0.11,0.92,0.47,-0.21,-0.88,
2.008,0.02,0.11,0.92,0.47,-0.21,-0.88,
2.008,0.02,0.11,0.92,0.29,-0.22,-0.88,
2.01,0.01,0.11,0.92,0.29,-0.22,-0.88,
2.013,0.01,0.11,0.92,0.12,-0.19,-0.82,
2.013,0.01,0.11,0.92,0.12,-0.19,-0.82,
2.015,-0.00,0.12,0.91,0.12,-0.19,-0.82,
2.018,-0.01,0.12,0.91,0.12,-0.19,-0.82,
2.018,-0.01,0.12,0.91,-0.05,-0.20,-0.81,
2.022,-0.01,0.12,0.91,-0.05,-0.20,-0.81,
2.023,-0.01,0.12,0.91,-0.18,-0.13,-0.89,
2.023,-0.01,0.13,0.90,-0.18,-0.13,-0.89,
2.025,-0.02,0.13,0.90,-0.18,-0.13,-0.89,
2.027,-0.02,0.13,0.90,-0.24,-0.06,-0.96,
2.028,-0.02,0.13,0.89,-0.24,-0.06,-0.96,
2.03,-0.03,0.13,0.88,-0.24,-0.06,-0.96,
2.033,-0.03,0.13,0.87,-0.24,-0.06,-0.96,
2.033,-0.03,0.13,0.87,-0.35,-0.03,-1.08,
2.035,-0.03,0.13,0.87,-0.35,-0.03,-1.08,
2.04,-0.03,0.13,0.87,-0.44,-0.01,-1.27,
2.041,-0.04,0.13,0.87,-0.44,-0.01,-1.27,
2.041,-0.04,0.12,0.87,-0.44,-0.01,-1.27,
2.043,-0.04,0.12,0.87,-0.44,-0.01,-1.27,
2.043,-0.04,0.12,0.87,-0.49,-0.06,-1.26,
2.045,-0.04,0.11,0.88,-0.49,-0.06,-1.26,
2.048,-0.04,0.11,0.88,-0.49,-0.06,-1.26,
2.048,-0.04,0.11,0.88,-0.54,-0.16,-1.25,
2.05,-0.03,0.11,0.88,-0.54,-0.16,-1.25,
2.054,-0.03,0.10,0.88,-0.54,-0.16,-1.25,
2.055,-0.03,0.10,0.88,-0.56,-0.23,-1.19,
2.055,-0.02,0.10,0.89,-0.56,-0.23,-1.19,
2.057,-0.02,0.09,0.89,-0.56,-0.23,-1.19,
2.057,-0.02,0.09,0.89,-0.48,-0.32,-1.15,
2.059,-0.02,0.08,0.90,-0.48,-0.32,-1.15,
2.063,-0.02,0.08,0.90,-0.39,-0.40,-1.07,
2.063,-0.01,0.08,0.91,-0.39,-0.40,-1.07,
2.064,0.00,0.09,0.91,-0.39,-0.40,-1.07,
2.067,0.01,0.09,0.91,-0.39,-0.40,-1.07,
2.068,0.01,0.09,0.91,-0.32,-0.51,-0.94,
2.069,0.01,0.08,0.92,-0.32,-0.51,-0.94,
2.072,0.02,0.08,0.93,-0.32,-0.51,-0.94,
2.073,0.02,0.08,0.93,-0.14,-0.47,-0.89,
2.075,0.03,0.08,0.93,-0.14,-0.47,-0.89,
2.077,0.03,0.08,0.94,-0.14,-0.47,-0.89,
2.077,0.03,0.08,0.94,-0.06,-0.50,-0.71,
2.08,0.04,0.08,0.95,-0.06,-0.50,-0.71,
2.083,0.05,0.09,0.96,-0.06,-0.50,-0.71,
2.084,0.05,0.09,0.96,0.06,-0.48,-0.61,
2.085,0.05,0.09,0.95,0.06,-0.48,-0.61,
2.087,0.05,0.09,0.95,0.15,-0.46,-0.42,
2.088,0.05,0.09,0.96,0.15,-0.46,-0.42,
2.089,0.05,0.08,0.97,0.15,-0.46,-0.42,
2.092,0.05,0.09,0.97,0.15,-0.46,-0.42,
2.093,0.05,0.09,0.97,0.22,-0.43,-0.41,
2.095,0.05,0.09,0.97,0.22,-0.43,-0.41,
2.097,0.05,0.09,0.97,0.22,-0.43,-0.41,
2.097,0.05,0.09,0.97,0.21,-0.47,-0.29,
2.1,0.04,0.09,0.98,0.21,-0.47,-0.29,
2.102,0.04,0.10,0.98,0.21,-0.47,-0.29,
2.102,0.04,0.10,0.98,0.18,-0.44,-0.26,
2.105,0.03,0.10,0.98,0.18,-0.44,-0.26,
2.107,0.03,0.11,0.97,0.18,-0.44,-0.26,
2.107,0.03,0.11,0.97,0.10,-0.36,-0.16,
2.109,0.02,0.11,0.97,0.10,-0.36,-0.16,
2.112,0.02,0.11,0.97,0.01,-0.27,-0.25,
2.113,0.01,0.12,0.96,0.01,-0.27,-0.25,
2.114,0.01,0.12,0.96,0.01,-0.27,-0.25,
2.117,0.00,0.13,0.96,0.01,-0.27,-0.25,
2.117,0.00,0.13,0.96,-0.12,-0.17,-0.33,
2.119,-0.01,0.14,0.95,-0.12,-0.17,-0.33,
2.122,-0.02,0.14,0.94,-0.12,-0.17,-0.33,
2.122,-0.02,0.14,0.94,-0.24,-0.07,-0.40,
2.125,-0.04,0.15,0.94,-0.24,-0.07,-0.40,
2.126,-0.04,0.15,0.94,-0.45,0.06,-0.50,
2.127,-0.05,0.15,0.94,-0.45,0.06,-0.50,
2.129,-0.05,0.15,0.93,-0.45,0.06,-0.50,
2.132,-0.06,0.15,0.92,-0.45,0.06,-0.50,
2.132,-0.06,0.15,0.92,-0.71,0.14,-0.60,
2.133,-0.05,0.15,0.92,-0.71,0.14,-0.60,
2.137,-0.05,0.15,0.92,-0.81,0.15,-0.67,
2.137,-0.06,0.14,0.92,-0.81,0.15,-0.67,
2.143,-0.06,0.13,0.90,-0.81,0.15,-0.67,
2.146,-0.07,0.13,0.89,-0.81,0.15,-0.67,
2.147,-0.07,0.13,0.89,-0.82,0.08,-0.80,
2.147,-0.06,0.13,0.89,-0.82,0.08,-0.80,
2.147,-0.07,0.13,0.88,-0.82,0.08,-0.80,
2.147,-0.07,0.13,0.88,-0.91,-0.04,-0.98,
2.148,-0.07,0.12,0.88,-0.91,-0.04,-0.98,
2.151,-0.07,0.12,0.87,-0.91,-0.04,-0.98,
2.151,-0.07,0.12,0.87,-0.93,-0.12,-1.10,
2.156,-0.07,0.12,0.87,-0.93,-0.12,-1.10,
2.156,-0.07,0.12,0.87,-0.93,-0.12,-1.10,
2.157,-0.07,0.12,0.87,-0.96,-0.21,-1.19,
2.158,-0.07,0.12,0.87,-0.96,-0.21,-1.19,
2.161,-0.07,0.12,0.87,-0.98,-0.21,-1.25,
2.161,-0.07,0.12,0.86,-0.98,-0.21,-1.25,
2.163,-0.07,0.12,0.87,-0.98,-0.21,-1.25,
2.167,-0.07,0.11,0.87,-0.98,-0.21,-1.25,
2.167,-0.07,0.11,0.87,-0.99,-0.22,-1.27,
2.168,-0.06,0.12,0.87,-0.99,-0.22,-1.27,
2.172,-0.06,0.12,0.87,-0.99,-0.22,-1.27,
2.172,-0.06,0.12,0.87,-0.98,-0.22,-1.26,
2.173,-0.07,0.12,0.87,-0.98,-0.22,-1.26,
2.176,-0.07,0.12,0.87,-0.98,-0.22,-1.26,
2.176,-0.07,0.12,0.87,-0.96,-0.18,-1.24,
2.178,-0.07,0.12,0.87,-0.96,-0.18,-1.24,
2.181,-0.07,0.12,0.87,-1.02,-0.17,-1.20,
2.181,-0.07,0.12,0.88,-1.02,-0.17,-1.20,
2.183,-0.07,0.12,0.88,-1.02,-0.17,-1.20,
2.186,-0.07,0.12,0.88,-1.04,-0.21,-1.17,
2.186,-0.07,0.12,0.89,-1.04,-0.21,-1.17,
2.188,-0.07,0.13,0.90,-1.04,-0.21,-1.17,
2.191,-0.06,0.13,0.90,-1.04,-0.21,-1.17,
2.191,-0.06,0.13,0.90,-1.03,-0.19,-1.05,
2.193,-0.06,0.13,0.91,-1.03,-0.19,-1.05,
2.196,-0.07,0.13,0.92,-1.03,-0.19,-1.05,
2.196,-0.07,0.13,0.92,-0.98,-0.10,-0.93,
2.198,-0.06,0.13,0.93,-0.98,-0.10,-0.93,
2.2,-0.06,0.13,0.93,-0.98,-0.10,-0.93,
2.201,-0.06,0.13,0.93,-0.98,-0.10,-0.81,
2.204,-0.06,0.13,0.94,-0.98,-0.10,-0.81,
2.206,-0.06,0.13,0.95,-0.98,-0.10,-0.81,
2.207,-0.06,0.13,0.95,-0.94,-0.05,-0.63,
2.208,-0.06,0.13,0.95,-0.94,-0.05,-0.63,
2.211,-0.06,0.13,0.95,-0.92,-0.05,-0.50,
2.211,-0.06,0.12,0.96,-0.92,-0.05,-0.50,
2.213,-0.06,0.12,0.96,-0.92,-0.05,-0.50,
2.215,-0.05,0.12,0.96,-0.92,-0.05,-0.50,
2.216,-0.05,0.12,0.96,-0.89,-0.12,-0.37,
2.218,-0.05,0.11,0.97,-0.89,-0.12,-0.37,
2.221,-0.05,0.11,0.96,-0.89,-0.12,-0.37,
2.222,-0.05,0.11,0.96,-0.88,-0.19,-0.33,
2.223,-0.05,0.11,0.96,-0.88,-0.19,-0.33,
2.225,-0.04,0.11,0.97,-0.88,-0.19,-0.33,
2.226,-0.04,0.11,0.97,-0.81,-0.26,-0.30,
2.228,-0.03,0.11,0.96,-0.81,-0.26,-0.30,
2.23,-0.03,0.11,0.96,-0.73,-0.25,-0.29,
2.23,-0.03,0.11,0.96,-0.73,-0.25,-0.29,
2.232,-0.03,0.12,0.94,-0.73,-0.25,-0.29,
2.235,-0.03,0.12,0.94,-0.62,-0.22,-0.33,
2.235,-0.03,0.12,0.93,-0.62,-0.22,-0.33,
2.242,-0.04,0.13,0.93,-0.62,-0.22,-0.33,
2.243,-0.04,0.13,0.91,-0.62,-0.22,-0.33,
2.243,-0.04,0.13,0.91,-0.62,-0.14,-0.54,
2.244,-0.05,0.13,0.91,-0.62,-0.14,-0.54,
2.245,-0.05,0.13,0.91,-0.68,-0.11,-0.71,
2.246,-0.05,0.13,0.91,-0.68,-0.11,-0.71,
2.247,-0.06,0.13,0.90,-0.68,-0.11,-0.71,
2.25,-0.06,0.13,0.89,-0.68,-0.11,-0.71,
2.25,-0.06,0.13,0.89,-0.76,-0.10,-0.85,
2.252,-0.06,0.13,0.89,-0.76,-0.10,-0.85,
2.255,-0.07,0.13,0.89,-0.76,-0.10,-0.85,
2.255,-0.07,0.13,0.89,-0.87,-0.05,-0.97,
2.257,-0.07,0.13,0.88,-0.87,-0.05,-0.97,
2.26,-0.07,0.13,0.88,-0.91,-0.05,-1.04,
2.26,-0.08,0.13,0.88,-0.91,-0.05,-1.04,
2.262,-0.08,0.13,0.88,-0.91,-0.05,-1.04,
2.265,-0.08,0.13,0.88,-1.02,-0.05,-1.09,
2.265,-0.08,0.13,0.89,-1.02,-0.05,-1.09,
2.267,-0.08,0.13,0.89,-1.02,-0.05,-1.09,
2.271,-0.09,0.12,0.90,-1.02,-0.05,-1.09,
2.272,-0.09,0.12,0.90,-1.07,-0.08,-1.07,
2.272,-0.09,0.12,0.91,-1.07,-0.08,-1.07,
2.275,-0.09,0.11,0.92,-1.07,-0.08,-1.07,
2.275,-0.09,0.11,0.92,-1.11,-0.13,-0.91,
2.277,-0.08,0.11,0.93,-1.11,-0.13,-0.91,
2.28,-0.08,0.11,0.93,-1.11,-0.13,-0.91,
2.28,-0.08,0.11,0.93,-1.13,-0.23,-0.78,
2.282,-0.08,0.11,0.94,-1.13,-0.23,-0.78,
2.286,-0.08,0.11,0.94,-1.07,-0.22,-0.60,
2.287,-0.08,0.11,0.95,-1.07,-0.22,-0.60,
2.288,-0.08,0.11,0.95,-1.07,-0.22,-0.60,
2.29,-0.08,0.11,0.96,-1.07,-0.22,-0.60,
2.291,-0.08,0.11,0.96,-1.04,-0.24,-0.47,
2.292,-0.08,0.11,0.98,-1.04,-0.24,-0.47,
2.295,-0.08,0.11,0.98,-1.04,-0.24,-0.47,
2.295,-0.08,0.11,0.98,-1.04,-0.26,-0.33,
2.298,-0.08,0.11,0.98,-1.04,-0.26,-0.33,
2.3,-0.08,0.11,0.99,-1.04,-0.26,-0.33,
2.3,-0.08,0.11,0.99,-1.04,-0.26,-0.12,
2.302,-0.08,0.11,0.98,-1.04,-0.26,-0.12,
2.305,-0.08,0.11,0.98,-1.04,-0.26,-0.12,
2.309,-0.08,0.11,0.98,-1.03,-0.22,-0.10,
2.309,-0.07,0.11,0.98,-1.03,-0.22,-0.10,
2.31,-0.07,0.11,0.98,-1.02,-0.20,-0.11,
2.31,-0.07,0.12,0.98,-1.02,-0.20,-0.11,
2.312,-0.07,0.12,0.98,-1.02,-0.20,-0.11,
2.315,-0.07,0.12,0.97,-1.02,-0.20,-0.11,
2.315,-0.07,0.12,0.97,-0.96,-0.15,-0.14,
2.317,-0.07,0.12,0.97,-0.96,-0.15,-0.14,
2.321,-0.06,0.12,0.97,-0.96,-0.15,-0.14,
2.322,-0.06,0.12,0.97,-0.95,-0.10,-0.17,
2.323,-0.07,0.12,0.97,-0.95,-0.10,-0.17,
2.326,-0.06,0.12,0.97,-0.95,-0.10,-0.17,
2.327,-0.06,0.12,0.97,-0.87,-0.08,-0.21,
2.327,-0.06,0.12,0.97,-0.87,-0.08,-0.21,
2.329,-0.06,0.12,0.97,-0.85,-0.12,-0.23,
2.329,-0.06,0.12,0.97,-0.85,-0.12,-0.23,
2.331,-0.05,0.12,0.97,-0.85,-0.12,-0.23,
2.334,-0.05,0.12,0.98,-0.85,-0.12,-0.23,
2.334,-0.05,0.12,0.98,-0.77,-0.13,-0.23,
2.336,-0.05,0.11,0.97,-0.77,-0.13,-0.23,
2.34,-0.05,0.11,0.97,-0.66,-0.11,-0.20,
2.34,-0.04,0.12,0.97,-0.66,-0.11,-0.20,
2.342,-0.04,0.12,0.98,-0.66,-0.11,-0.20,
2.346,-0.04,0.12,0.98,-0.66,-0.11,-0.20,
2.346,-0.04,0.12,0.98,-0.62,-0.15,-0.17,
2.347,-0.04,0.12,0.98,-0.62,-0.15,-0.17,
2.349,-0.03,0.12,0.99,-0.62,-0.15,-0.17,
2.35,-0.03,0.12,0.99,-0.59,-0.13,-0.14,
2.352,-0.04,0.12,0.99,-0.59,-0.13,-0.14,
2.355,-0.04,0.12,0.99,-0.59,-0.13,-0.14,
2.355,-0.04,0.12,0.99,-0.52,-0.11,-0.06,
2.356,-0.04,0.12,0.99,-0.52,-0.11,-0.06,
2.359,-0.04,0.12,0.99,-0.56,-0.12,-0.02,
2.36,-0.04,0.12,0.99,-0.56,-0.12,-0.02,
2.361,-0.05,0.12,0.99,-0.56,-0.12,-0.02,
2.364,-0.05,0.12,0.98,-0.56,-0.12,-0.02,
2.364,-0.05,0.12,0.98,-0.56,-0.09,-0.00,
2.366,-0.05,0.13,0.99,-0.56,-0.09,-0.00,
2.369,-0.06,0.13,0.98,-0.56,-0.09,-0.00,
2.369,-0.06,0.13,0.98,-0.64,-0.09,-0.06,
2.371,-0.06,0.13,0.97,-0.64,-0.09,-0.06,
2.375,-0.06,0.13,0.97,-0.67,0.01,-0.07,
2.375,-0.07,0.14,0.97,-0.67,0.01,-0.07,
2.376,-0.08,0.14,0.96,-0.67,0.01,-0.07,
2.379,-0.08,0.14,0.96,-0.67,0.01,-0.07,
2.379,-0.08,0.14,0.96,-0.76,0.05,-0.19,
2.381,-0.08,0.14,0.96,-0.76,0.05,-0.19,
2.384,-0.08,0.14,0.96,-0.85,0.11,-0.27,
2.385,-0.09,0.15,0.95,-0.85,0.11,-0.27,
2.386,-0.09,0.15,0.95,-0.85,0.11,-0.27,
2.389,-0.09,0.15,0.95,-0.85,0.11,-0.27,
2.389,-0.09,0.15,0.95,-0.94,0.17,-0.33,
2.391,-0.09,0.16,0.95,-0.94,0.17,-0.33,
2.394,-0.10,0.16,0.95,-0.94,0.17,-0.33,
2.394,-0.10,0.16,0.95,-0.96,0.22,-0.38,
2.396,-0.10,0.16,0.94,-0.96,0.22,-0.38,
2.399,-0.10,0.17,0.94,-0.96,0.22,-0.38,
2.399,-0.10,0.17,0.94,-0.98,0.30,-0.39,
2.401,-0.09,0.17,0.93,-0.98,0.30,-0.39,
2.404,-0.09,0.17,0.93,-0.98,0.30,-0.45,
2.404,-0.09,0.17,0.93,-0.98,0.30,-0.45,
2.407,-0.10,0.17,0.94,-0.98,0.30,-0.45,
2.409,-0.10,0.17,0.94,-0.95,0.37,-0.54,
2.409,-0.10,0.16,0.94,-0.95,0.37,-0.54,
2.411,-0.09,0.17,0.94,-0.95,0.37,-0.54,
2.414,-0.09,0.17,0.94,-0.96,0.31,-0.46,
2.414,-0.09,0.16,0.94,-0.96,0.31,-0.46,
2.416,-0.08,0.16,0.95,-0.96,0.31,-0.46,
2.419,-0.08,0.15,0.95,-0.96,0.31,-0.46,
2.419,-0.08,0.15,0.95,-0.84,0.30,-0.47,
2.422,-0.07,0.15,0.95,-0.84,0.30,-0.47,
2.424,-0.07,0.15,0.97,-0.84,0.30,-0.47,
2.424,-0.07,0.15,0.97,-0.76,0.22,-0.39,
2.426,-0.06,0.14,0.97,-0.76,0.22,-0.39,
2.428,-0.05,0.14,0.98,-0.76,0.22,-0.39,
2.429,-0.05,0.14,0.98,-0.68,0.19,-0.26,
2.431,-0.05,0.13,0.99,-0.68,0.19,-0.26,
2.433,-0.05,0.13,0.99,-0.53,0.10,-0.16,
2.434,-0.05,0.13,1.00,-0.53,0.10,-0.16,
2.436,-0.05,0.12,1.01,-0.53,0.10,-0.16,
2.438,-0.04,0.12,1.01,-0.53,0.10,-0.16,
2.438,-0.04,0.12,1.01,-0.46,0.03,0.04,
2.441,-0.04,0.11,1.02,-0.46,0.03,0.04,
2.443,-0.05,0.11,1.03,-0.46,0.03,0.04,
2.444,-0.05,0.11,1.03,-0.41,-0.06,0.18,
2.446,-0.04,0.10,1.03,-0.41,-0.06,0.18,
2.448,-0.04,0.10,1.04,-0.41,-0.06,0.18,
2.449,-0.04,0.10,1.04,-0.39,-0.16,0.35,
2.45,-0.03,0.10,1.04,-0.39,-0.16,0.35,
2.453,-0.03,0.10,1.04,-0.32,-0.26,0.48,
2.453,-0.03,0.10,1.04,-0.32,-0.26,0.48,
2.456,-0.04,0.11,1.06,-0.32,-0.26,0.48,
2.459,-0.04,0.11,1.06,-0.32,-0.26,0.48,
2.459,-0.04,0.11,1.06,-0.28,-0.23,0.52,
2.46,-0.04,0.11,1.05,-0.28,-0.23,0.52,
2.463,-0.04,0.11,1.05,-0.33,-0.18,0.65,
2.463,-0.03,0.12,1.05,-0.33,-0.18,0.65,
2.465,-0.03,0.12,1.05,-0.33,-0.18,0.65,
2.468,-0.03,0.12,1.05,-0.27,-0.09,0.59,
2.468,-0.03,0.12,1.04,-0.27,-0.09,0.59,
2.47,-0.04,0.12,1.04,-0.27,-0.09,0.59,
2.474,-0.04,0.12,1.04,-0.24,-0.05,0.54,
2.475,-0.04,0.12,1.04,-0.24,-0.05,0.54,
2.475,-0.04,0.13,1.03,-0.24,-0.05,0.54,
2.478,-0.04,0.13,1.03,-0.27,-0.02,0.46,
2.478,-0.04,0.13,1.02,-0.27,-0.02,0.46,
2.48,-0.04,0.13,1.01,-0.27,-0.02,0.46,
2.483,-0.05,0.14,1.00,-0.27,-0.02,0.46,
2.483,-0.05,0.14,1.00,-0.29,0.03,0.33,
2.485,-0.04,0.14,0.99,-0.29,0.03,0.33,
2.488,-0.05,0.14,0.98,-0.29,0.03,0.33,
2.489,-0.05,0.14,0.98,-0.35,0.07,0.16,
2.49,-0.06,0.14,0.97,-0.35,0.07,0.16,
2.493,-0.06,0.14,0.96,-0.35,0.07,0.16,
2.493,-0.06,0.14,0.96,-0.35,0.14,-0.05,
2.495,-0.06,0.14,0.95,-0.35,0.14,-0.05,
2.497,-0.06,0.15,0.95,-0.35,0.14,-0.05,
2.498,-0.06,0.15,0.95,-0.43,0.14,-0.25,
2.5,-0.06,0.15,0.94,-0.43,0.14,-0.25,
2.503,-0.06,0.15,0.94,-0.43,0.16,-0.40,
2.503,-0.06,0.15,0.93,-0.43,0.16,-0.40,
2.505,-0.07,0.14,0.93,-0.43,0.16,-0.40,
2.508,-0.07,0.14,0.93,-0.43,0.16,-0.40,
2.508,-0.07,0.14,0.93,-0.47,0.18,-0.56,
2.51,-0.07,0.14,0.93,-0.47,0.18,-0.56,
2.513,-0.07,0.14,0.92,-0.47,0.18,-0.56,
2.513,-0.07,0.14,0.92,-0.52,0.12,-0.62,
2.515,-0.07,0.14,0.92,-0.52,0.12,-0.62,
2.518,-0.08,0.14,0.93,-0.52,0.12,-0.62,
2.518,-0.08,0.14,0.93,-0.54,0.11,-0.63,
2.52,-0.08,0.14,0.93,-0.54,0.11,-0.63,
2.523,-0.08,0.13,0.94,-0.54,0.11,-0.63,
2.523,-0.08,0.13,0.94,-0.55,0.10,-0.61,
2.525,-0.09,0.14,0.94,-0.55,0.10,-0.61,
2.528,-0.09,0.13,0.94,-0.55,0.10,-0.61,
2.528,-0.09,0.13,0.94,-0.60,0.04,-0.54,
2.53,-0.09,0.14,0.95,-0.60,0.04,-0.54,
2.533,-0.09,0.14,0.96,-0.60,0.04,-0.54,
2.533,-0.09,0.14,0.96,-0.70,0.04,-0.45,
2.535,-0.09,0.14,0.96,-0.70,0.04,-0.45,
2.538,-0.09,0.14,0.97,-0.70,0.04,-0.45,
2.538,-0.09,0.14,0.97,-0.66,0.06,-0.33,
2.542,-0.09,0.14,0.98,-0.66,0.06,-0.33,
2.543,-0.08,0.15,0.99,-0.66,0.06,-0.33,
2.543,-0.08,0.15,0.99,-0.65,0.09,-0.18,
2.544,-0.08,0.15,1.01,-0.65,0.09,-0.18,
2.548,-0.08,0.15,1.01,-0.59,0.14,-0.03,
2.548,-0.08,0.15,1.01,-0.59,0.14,-0.03,
2.55,-0.08,0.15,1.02,-0.59,0.14,-0.03,
2.553,-0.08,0.15,1.03,-0.59,0.14,-0.03,
2.553,-0.08,0.15,1.03,-0.53,0.21,0.20,
2.555,-0.08,0.14,1.04,-0.53,0.21,0.20,
2.558,-0.07,0.14,1.04,-0.53,0.21,0.20,
2.558,-0.07,0.14,1.04,-0.52,0.22,0.38,
2.56,-0.08,0.14,1.05,-0.52,0.22,0.38,
2.563,-0.07,0.13,1.06,-0.52,0.22,0.38,
2.563,-0.07,0.13,1.06,-0.47,0.14,0.51,
2.565,-0.07,0.13,1.07,-0.47,0.14,0.51,
2.567,-0.07,0.13,1.07,-0.47,0.14,0.51,
2.567,-0.07,0.13,1.07,-0.46,0.09,0.62,
2.57,-0.07,0.13,1.07,-0.46,0.09,0.62,
2.572,-0.06,0.12,1.08,-0.46,0.09,0.62,
2.572,-0.06,0.12,1.08,-0.40,0.02,0.76,
2.574,-0.05,0.12,1.08,-0.40,0.02,0.76,
2.578,-0.04,0.12,1.08,-0.40,0.02,0.76,
2.578,-0.04,0.12,1.08,-0.33,-0.02,0.83,
2.58,-0.04,0.12,1.08,-0.33,-0.02,0.83,
2.582,-0.04,0.12,1.07,-0.33,-0.02,0.83,
2.583,-0.04,0.12,1.07,-0.18,-0.04,0.84,
2.584,-0.03,0.12,1.07,-0.18,-0.04,0.84,
2.587,-0.03,0.12,1.06,-0.18,-0.04,0.84,
2.587,-0.03,0.12,1.06,-0.12,-0.05,0.80,
2.59,-0.03,0.12,1.06,-0.12,-0.05,0.80,
2.592,-0.02,0.12,1.05,-0.12,-0.05,0.80,
2.592,-0.02,0.12,1.05,-0.03,-0.05,0.70,
2.594,-0.01,0.12,1.05,-0.03,-0.05,0.70,
2.597,-0.00,0.12,1.04,-0.03,-0.05,0.70,
2.597,-0.00,0.12,1.04,0.08,-0.07,0.63,
2.599,-0.00,0.12,1.04,0.08,-0.07,0.63,
2.602,0.00,0.12,1.03,0.08,-0.07,0.63,
2.602,0.00,0.12,1.03,0.23,-0.07,0.47,
2.604,0.00,0.12,1.02,0.23,-0.07,0.47,
2.607,0.00,0.12,1.01,0.23,-0.07,0.47,
2.608,0.00,0.12,1.01,0.28,-0.10,0.38,
2.609,-0.00,0.12,1.00,0.28,-0.10,0.38,
2.612,-0.00,0.12,1.00,0.31,-0.14,0.21,
2.612,-0.00,0.12,0.98,0.31,-0.14,0.21,
2.614,-0.01,0.12,0.97,0.31,-0.14,0.21,
2.617,-0.01,0.12,0.96,0.31,-0.14,0.21,
2.617,-0.01,0.12,0.96,0.28,-0.16,-0.00,
2.619,-0.01,0.12,0.95,0.28,-0.16,-0.00,
2.622,-0.02,0.12,0.94,0.28,-0.16,-0.00,
2.622,-0.02,0.12,0.94,0.25,-0.14,-0.28,
2.624,-0.02,0.12,0.94,0.25,-0.14,-0.28,
2.627,-0.03,0.12,0.93,0.25,-0.14,-0.28,
2.627,-0.03,0.12,0.93,0.17,-0.16,-0.48,
2.629,-0.04,0.12,0.92,0.17,-0.16,-0.48,
2.632,-0.04,0.12,0.92,0.17,-0.16,-0.48,
2.632,-0.04,0.12,0.92,0.06,-0.16,-0.59,
2.634,-0.04,0.13,0.92,0.06,-0.16,-0.59,
2.636,-0.04,0.13,0.91,0.06,-0.16,-0.59,
2.637,-0.04,0.13,0.91,-0.05,-0.16,-0.70,
2.639,-0.04,0.13,0.91,-0.05,-0.16,-0.70,
2.642,-0.04,0.13,0.92,-0.05,-0.16,-0.70,
2.643,-0.04,0.13,0.92,-0.08,-0.11,-0.74,
2.643,-0.04,0.14,0.92,-0.08,-0.11,-0.74,
2.646,-0.04,0.14,0.92,-0.08,-0.11,-0.73,
2.648,-0.04,0.14,0.92,-0.08,-0.11,-0.73,
2.648,-0.04,0.13,0.92,-0.08,-0.11,-0.73,
2.651,-0.04,0.13,0.93,-0.08,-0.11,-0.73,
2.651,-0.04,0.13,0.93,-0.06,-0.04,-0.67,
2.654,-0.04,0.14,0.94,-0.06,-0.04,-0.67,
2.659,-0.03,0.14,0.95,-0.06,-0.04,-0.67,
2.66,-0.03,0.14,0.95,-0.06,-0.07,-0.60,
2.66,-0.03,0.14,0.95,-0.06,-0.07,-0.60,
2.663,-0.03,0.14,0.95,-0.01,-0.04,-0.44,
2.663,-0.03,0.13,0.97,-0.01,-0.04,-0.44,
2.663,-0.03,0.13,0.96,-0.01,-0.04,-0.44,
2.667,-0.03,0.13,0.98,-0.01,-0.04,-0.44,
2.667,-0.03,0.13,0.98,0.04,-0.05,-0.26,
2.669,-0.03,0.13,0.99,0.04,-0.05,-0.26,
2.671,-0.02,0.14,1.00,0.04,-0.05,-0.26,
2.672,-0.02,0.14,1.00,0.07,-0.06,-0.15,
2.673,-0.02,0.13,1.01,0.07,-0.06,-0.15,
2.676,-0.02,0.13,1.02,0.07,-0.06,-0.15,
2.676,-0.02,0.13,1.02,0.13,-0.06,0.09,
2.678,-0.01,0.13,1.03,0.13,-0.06,0.09,
2.682,-0.01,0.13,1.03,0.13,-0.06,0.09,
2.682,-0.01,0.13,1.03,0.19,-0.08,0.27,
2.684,-0.01,0.13,1.03,0.19,-0.08,0.27,
2.686,-0.01,0.13,1.04,0.19,-0.08,0.27,
2.687,-0.01,0.13,1.04,0.26,-0.06,0.40,
2.688,-0.01,0.13,1.04,0.26,-0.06,0.40,
2.691,-0.01,0.13,1.05,0.26,-0.06,0.40,
2.692,-0.01,0.13,1.05,0.29,-0.07,0.46,
2.693,-0.00,0.13,1.05,0.29,-0.07,0.46,
2.696,-0.01,0.14,1.05,0.29,-0.07,0.46,
2.696,-0.01,0.14,1.05,0.28,-0.05,0.55,
2.698,-0.01,0.14,1.06,0.28,-0.05,0.55,
2.701,-0.00,0.14,1.06,0.28,-0.05,0.55,
2.701,-0.00,0.14,1.06,0.30,-0.01,0.61,
2.703,-0.01,0.15,1.05,0.30,-0.01,0.61,
2.707,-0.01,0.15,1.06,0.30,-0.01,0.61,
2.708,-0.01,0.15,1.06,0.27,0.03,0.67,
2.708,-0.01,0.15,1.06,0.27,0.03,0.67,
2.711,-0.01,0.15,1.06,0.27,0.12,0.63,
2.711,-0.01,0.15,1.05,0.27,0.12,0.63,
2.713,-0.01,0.15,1.05,0.27,0.12,0.63,
2.716,-0.01,0.15,1.05,0.25,0.14,0.65,
2.716,-0.01,0.15,1.04,0.25,0.14,0.65,
2.718,-0.01,0.15,1.04,0.25,0.14,0.65,
2.721,-0.01,0.15,1.04,0.25,0.14,0.65,
2.721,-0.01,0.15,1.04,0.27,0.14,0.53,
2.723,-0.01,0.14,1.03,0.27,0.14,0.53,
2.725,-0.01,0.14,1.03,0.27,0.14,0.53,
2.726,-0.01,0.14,1.03,0.24,0.09,0.46,
2.728,-0.01,0.14,1.03,0.24,0.09,0.46,
2.731,-0.01,0.14,1.03,0.25,0.02,0.37,
2.731,-0.01,0.14,1.02,0.25,0.02,0.37,
2.733,-0.01,0.14,1.02,0.25,0.02,0.37,
2.736,-0.01,0.13,1.01,0.25,0.02,0.37,
2.736,-0.01,0.13,1.01,0.24,-0.02,0.31,
2.738,-0.01,0.13,1.01,0.24,-0.02,0.31,
2.741,-0.01,0.13,1.01,0.24,-0.02,0.31,
2.741,-0.01,0.13,1.01,0.24,-0.05,0.23,
2.742,-0.01,0.14,1.01,0.24,-0.05,0.23,
2.746,-0.01,0.13,1.00,0.24,-0.05,0.23,
2.746,-0.01,0.13,1.00,0.25,-0.10,0.20,
2.748,-0.02,0.13,1.00,0.25,-0.10,0.20,
2.751,-0.02,0.13,0.99,0.25,-0.10,0.20,
2.751,-0.02,0.13,0.99,0.24,-0.10,0.10,
2.753,-0.03,0.14,0.98,0.24,-0.10,0.10,
2.755,-0.04,0.14,0.97,0.24,-0.10,0.10,
2.755,-0.04,0.14,0.97,0.18,-0.11,0.02,
2.758,-0.05,0.14,0.97,0.18,-0.11,0.02,
2.76,-0.05,0.15,0.96,0.18,-0.11,0.02,
2.76,-0.05,0.15,0.96,0.05,-0.08,-0.12,
2.762,-0.07,0.15,0.95,0.05,-0.08,-0.12,
2.765,-0.08,0.16,0.90,0.05,-0.08,-0.12,
2.765,-0.08,0.16,0.90,-0.11,-0.02,-0.24,
2.767,-0.09,0.18,0.85,-0.11,-0.02,-0.24,
2.771,-0.10,0.18,0.82,-0.11,-0.02,-0.24,
2.771,-0.10,0.18,0.82,-0.32,0.09,-0.67,
2.772,-0.10,0.19,0.82,-0.32,0.09,-0.67,
2.778,-0.11,0.20,0.85,-0.32,0.09,-0.67,
2.779,-0.11,0.20,0.85,-0.51,0.30,-1.53,
2.779,-0.11,0.20,0.87,-0.51,0.30,-1.53,
2.78,-0.12,0.20,0.89,-0.51,0.30,-1.53,
2.78,-0.12,0.20,0.89,-0.59,0.43,-1.48,
2.782,-0.12,0.20,0.89,-0.59,0.43,-1.48,
2.786,-0.13,0.20,0.91,-0.59,0.43,-1.48,
2.786,-0.13,0.20,0.91,-0.70,0.50,-1.06,
2.787,-0.13,0.20,0.93,-0.70,0.50,-1.06,
2.792,-0.12,0.20,0.95,-0.70,0.50,-1.06,
2.793,-0.12,0.20,0.95,-0.76,0.50,-0.84,
2.793,-0.11,0.18,0.97,-0.76,0.50,-0.84,
2.798,-0.09,0.17,1.00,-0.76,0.50,-0.84,
2.798,-0.09,0.17,1.00,-0.74,0.46,-0.46,
2.798,-0.08,0.16,1.03,-0.74,0.46,-0.46,
2.799,-0.08,0.15,1.05,-0.74,0.46,-0.46,
2.802,-0.08,0.15,1.05,-0.53,0.27,0.03,
2.802,-0.08,0.15,1.06,-0.53,0.27,0.03,
2.805,-0.08,0.14,1.09,-0.53,0.27,0.03,
2.805,-0.08,0.14,1.09,-0.35,0.10,0.53,
2.815,-0.08,0.14,1.11,-0.35,0.10,0.53,
2.815,-0.08,0.14,1.12,-0.35,0.10,0.53,
2.815,-0.08,0.14,1.12,-0.35,-0.00,0.89,
2.815,-0.07,0.14,1.13,-0.35,-0.00,0.89,
2.816,-0.07,0.14,1.14,-0.35,-0.00,0.89,
2.816,-0.07,0.14,1.14,-0.29,-0.05,1.23,
2.817,-0.06,0.14,1.14,-0.29,-0.05,1.23,
2.82,-0.05,0.13,1.13,-0.29,-0.05,1.23,
2.82,-0.05,0.13,1.13,-0.25,-0.03,1.44,
2.822,-0.04,0.13,1.12,-0.25,-0.03,1.44,
2.829,-0.04,0.13,1.10,-0.25,-0.03,1.44,
2.83,-0.04,0.13,1.10,-0.06,-0.12,1.40,
2.83,-0.03,0.12,1.09,-0.06,-0.12,1.40,
2.83,-0.02,0.13,1.08,-0.06,-0.12,1.40,
2.83,-0.02,0.13,1.08,0.06,-0.16,1.16,
2.832,-0.03,0.12,1.07,0.06,-0.16,1.16,
2.835,-0.03,0.12,1.06,0.06,-0.16,1.16,
2.835,-0.03,0.12,1.06,0.18,-0.21,0.91,
2.837,-0.03,0.12,1.06,0.18,-0.21,0.91,
2.84,-0.03,0.13,1.05,0.18,-0.21,0.91,
2.84,-0.03,0.13,1.05,0.19,-0.26,0.73,
2.847,-0.03,0.13,1.04,0.19,-0.26,0.73,
2.848,-0.03,0.13,1.03,0.19,-0.26,0.73,
2.848,-0.03,0.13,1.03,0.17,-0.23,0.61,
2.848,-0.03,0.13,1.03,0.17,-0.23,0.61,
