
time,gFx,gFy,gFz,ax,ay,az,
0.002,-0.00,0.19,0.98,0.15,0.14,0.12,
0.002,-0.00,0.19,0.99,0.15,0.14,0.12,
0.002,-0.00,0.19,0.99,0.09,0.25,0.04,
0.004,-0.00,0.18,0.99,0.09,0.25,0.04,
0.007,-0.01,0.18,1.00,0.09,0.25,0.04,
0.007,-0.01,0.18,1.00,0.08,0.30,0.02,
0.009,-0.01,0.18,1.00,0.08,0.30,0.02,
0.015,-0.02,0.18,1.01,0.08,0.30,0.02,
0.015,-0.02,0.18,1.01,0.02,0.22,0.13,
0.015,-0.02,0.18,1.02,0.02,0.22,0.13,
0.017,-0.02,0.18,1.03,0.02,0.22,0.13,
0.017,-0.02,0.18,1.03,-0.04,0.21,0.23,
0.019,-0.03,0.18,1.03,-0.04,0.21,0.23,
0.022,-0.02,0.18,1.03,-0.04,0.21,0.23,
0.022,-0.02,0.18,1.03,-0.07,0.16,0.41,
0.024,-0.02,0.18,1.03,-0.07,0.16,0.41,
0.027,-0.02,0.18,1.03,-0.14,0.14,0.45,
0.027,-0.03,0.17,1.04,-0.14,0.14,0.45,
0.033,-0.03,0.16,1.04,-0.14,0.14,0.45,
0.033,-0.03,0.16,1.04,-0.14,0.14,0.45,
0.033,-0.03,0.16,1.04,-0.15,0.13,0.44,
0.034,-0.04,0.15,1.04,-0.15,0.13,0.44,
0.037,-0.05,0.15,1.04,-0.15,0.13,0.44,
0.037,-0.05,0.15,1.04,-0.20,-0.01,0.49,
0.039,-0.05,0.15,1.05,-0.20,-0.01,0.49,
0.042,-0.05,0.14,1.08,-0.20,-0.01,0.49,
0.042,-0.05,0.14,1.08,-0.32,-0.09,0.55,
0.044,-0.05,0.12,1.08,-0.32,-0.09,0.55,
0.049,-0.06,0.12,1.08,-0.32,-0.09,0.55,
0.05,-0.06,0.12,1.08,-0.32,-0.16,0.78,
0.05,-0.07,0.12,1.09,-0.32,-0.16,0.78,
0.052,-0.08,0.11,1.08,-0.32,-0.16,0.78,
0.052,-0.08,0.11,1.08,-0.36,-0.36,0.91,
0.054,-0.08,0.11,1.08,-0.36,-0.36,0.91,
0.057,-0.09,0.11,1.08,-0.36,-0.36,0.91,
0.057,-0.09,0.11,1.08,-0.50,-0.44,0.91,
0.059,-0.10,0.11,1.07,-0.50,-0.44,0.91,
0.061,-0.10,0.11,1.05,-0.50,-0.44,0.91,
0.062,-0.10,0.11,1.05,-0.62,-0.50,0.85,
0.066,-0.10,0.12,1.05,-0.62,-0.50,0.85,
0.066,-0.10,0.12,1.05,-0.62,-0.50,0.85,
0.067,-0.10,0.12,1.05,-0.68,-0.46,0.68,
0.069,-0.10,0.12,1.05,-0.68,-0.46,0.68,
0.072,-0.09,0.12,1.04,-0.68,-0.46,0.68,
0.072,-0.09,0.12,1.04,-0.71,-0.39,0.55,
0.074,-0.08,0.12,1.02,-0.71,-0.39,0.55,
0.076,-0.08,0.12,1.02,-0.64,-0.36,0.51,
0.076,-0.08,0.13,1.02,-0.64,-0.36,0.51,
0.079,-0.08,0.13,1.01,-0.64,-0.36,0.51,
0.082,-0.09,0.14,1.01,-0.64,-0.36,0.51,
0.082,-0.09,0.14,1.01,-0.48,-0.34,0.30,
0.084,-0.09,0.14,1.00,-0.48,-0.34,0.30,
0.086,-0.09,0.15,1.00,-0.48,-0.34,0.30,
0.086,-0.09,0.15,1.00,-0.48,-0.23,0.19,
0.089,-0.09,0.15,1.00,-0.48,-0.23,0.19,
0.091,-0.09,0.15,1.00,-0.48,-0.23,0.19,
0.091,-0.09,0.15,1.00,-0.52,-0.16,0.13,
0.093,-0.09,0.16,0.99,-0.52,-0.16,0.13,
0.099,-0.08,0.16,0.99,-0.52,-0.16,0.13,
0.1,-0.08,0.16,0.99,-0.48,-0.08,0.05,
0.1,-0.08,0.16,0.98,-0.48,-0.08,0.05,
0.101,-0.08,0.16,0.98,-0.44,-0.04,-0.01,
0.101,-0.08,0.16,0.97,-0.44,-0.04,-0.01,
0.103,-0.08,0.16,0.98,-0.44,-0.04,-0.01,
0.106,-0.07,0.17,0.98,-0.44,-0.04,-0.01,
0.106,-0.07,0.17,0.98,-0.38,0.01,-0.15,
0.108,-0.07,0.17,0.98,-0.38,0.01,-0.15,
0.111,-0.07,0.17,0.98,-0.38,0.01,-0.15,
0.111,-0.07,0.17,0.98,-0.29,0.04,-0.14,
0.117,-0.07,0.17,0.97,-0.29,0.04,-0.14,
0.117,-0.06,0.18,0.97,-0.29,0.04,-0.14,
0.117,-0.06,0.18,0.97,-0.26,0.08,-0.14,
0.118,-0.07,0.18,0.97,-0.26,0.08,-0.14,
0.121,-0.06,0.18,0.96,-0.26,0.08,-0.14,
0.121,-0.06,0.18,0.96,-0.20,0.11,-0.18,
0.123,-0.06,0.18,0.96,-0.20,0.11,-0.18,
0.126,-0.06,0.18,0.96,-0.20,0.16,-0.22,
0.126,-0.06,0.19,0.96,-0.20,0.16,-0.22,
0.128,-0.07,0.18,0.97,-0.20,0.16,-0.22,
0.133,-0.07,0.19,0.96,-0.20,0.16,-0.22,
0.133,-0.07,0.19,0.96,-0.17,0.21,-0.26,
0.133,-0.07,0.19,0.97,-0.17,0.21,-0.26,
0.136,-0.07,0.18,0.97,-0.17,0.21,-0.26,
0.136,-0.07,0.18,0.97,-0.19,0.19,-0.21,
0.138,-0.07,0.19,0.96,-0.19,0.19,-0.21,
0.141,-0.07,0.19,0.96,-0.19,0.19,-0.21,
0.141,-0.07,0.19,0.96,-0.26,0.20,-0.16,
0.143,-0.08,0.19,0.97,-0.26,0.20,-0.16,
0.146,-0.08,0.19,0.96,-0.26,0.20,-0.16,
0.146,-0.08,0.19,0.96,-0.24,0.22,-0.25,
0.153,-0.08,0.19,0.96,-0.24,0.22,-0.25,
0.154,-0.08,0.19,0.96,-0.30,0.25,-0.24,
0.154,-0.08,0.19,0.97,-0.30,0.25,-0.24,
0.154,-0.08,0.19,0.96,-0.30,0.25,-0.24,
0.156,-0.08,0.19,0.96,-0.30,0.25,-0.24,
0.156,-0.08,0.19,0.96,-0.32,0.24,-0.23,
0.159,-0.09,0.19,0.97,-0.32,0.24,-0.23,
0.161,-0.08,0.19,0.96,-0.32,0.24,-0.23,
0.162,-0.08,0.19,0.96,-0.33,0.26,-0.23,
0.164,-0.07,0.19,0.96,-0.33,0.26,-0.23,
0.166,-0.08,0.19,0.95,-0.33,0.26,-0.23,
0.166,-0.08,0.19,0.95,-0.32,0.25,-0.18,
0.17,-0.08,0.19,0.96,-0.32,0.25,-0.18,
0.171,-0.09,0.18,0.97,-0.32,0.25,-0.18,
0.171,-0.09,0.18,0.97,-0.24,0.22,-0.31,
0.173,-0.10,0.17,0.96,-0.24,0.22,-0.31,
0.176,-0.10,0.17,0.96,-0.36,0.15,-0.23,
0.176,-0.10,0.18,0.96,-0.36,0.15,-0.23,
0.178,-0.10,0.18,0.96,-0.36,0.15,-0.23,
0.185,-0.11,0.18,0.96,-0.36,0.15,-0.23,
0.186,-0.11,0.18,0.96,-0.48,0.09,-0.23,
0.186,-0.11,0.18,0.96,-0.48,0.09,-0.23,
0.186,-0.11,0.18,0.96,-0.48,0.09,-0.23,
0.186,-0.11,0.18,0.96,-0.53,0.11,-0.26,
0.188,-0.12,0.18,0.96,-0.53,0.11,-0.26,
0.19,-0.12,0.18,0.96,-0.53,0.11,-0.26,
0.191,-0.12,0.18,0.96,-0.55,0.12,-0.24,
0.193,-0.12,0.18,0.96,-0.55,0.12,-0.24,
0.195,-0.12,0.19,0.95,-0.55,0.12,-0.24,
0.196,-0.12,0.19,0.95,-0.61,0.12,-0.28,
0.202,-0.12,0.19,0.95,-0.61,0.12,-0.28,
0.203,-0.12,0.19,0.95,-0.62,0.15,-0.28,
0.203,-0.12,0.19,0.96,-0.62,0.15,-0.28,
0.203,-0.13,0.20,0.95,-0.62,0.15,-0.28,
0.206,-0.13,0.20,0.95,-0.62,0.15,-0.28,
0.206,-0.13,0.20,0.95,-0.65,0.21,-0.28,
0.207,-0.13,0.20,0.95,-0.65,0.21,-0.28,
0.21,-0.13,0.20,0.96,-0.65,0.21,-0.28,
0.21,-0.13,0.20,0.96,-0.72,0.24,-0.31,
0.213,-0.14,0.20,0.96,-0.72,0.24,-0.31,
0.223,-0.14,0.20,0.96,-0.72,0.24,-0.31,
0.223,-0.14,0.20,0.96,-0.74,0.29,-0.29,
0.223,-0.14,0.20,0.97,-0.74,0.29,-0.29,
0.224,-0.13,0.20,0.96,-0.74,0.29,-0.29,
0.224,-0.13,0.20,0.96,-0.80,0.24,-0.24,
0.224,-0.13,0.20,0.96,-0.80,0.24,-0.24,
0.225,-0.13,0.20,0.96,-0.78,0.28,-0.20,
0.225,-0.13,0.20,0.97,-0.78,0.28,-0.20,
0.227,-0.13,0.20,0.96,-0.78,0.28,-0.20,
0.238,-0.12,0.20,0.96,-0.78,0.28,-0.20,
0.239,-0.12,0.20,0.96,-0.71,0.27,-0.20,
0.239,-0.13,0.20,0.97,-0.71,0.27,-0.20,
0.239,-0.13,0.20,0.97,-0.71,0.27,-0.20,
0.24,-0.13,0.20,0.97,-0.65,0.29,-0.19,
0.24,-0.13,0.20,0.97,-0.65,0.29,-0.19,
0.24,-0.12,0.20,0.97,-0.65,0.29,-0.19,
0.24,-0.12,0.20,0.97,-0.64,0.27,-0.16,
0.242,-0.12,0.20,0.97,-0.64,0.27,-0.16,
0.245,-0.12,0.20,0.97,-0.64,0.24,-0.14,
0.245,-0.13,0.19,0.97,-0.64,0.24,-0.14,
0.256,-0.13,0.20,0.98,-0.64,0.24,-0.14,
0.257,-0.13,0.20,0.98,-0.62,0.21,-0.12,
0.257,-0.13,0.19,0.98,-0.62,0.21,-0.12,
0.257,-0.13,0.19,0.98,-0.62,0.21,-0.12,
0.257,-0.14,0.19,0.98,-0.62,0.21,-0.12,
0.257,-0.14,0.19,0.98,-0.65,0.19,-0.05,
0.257,-0.13,0.19,0.98,-0.65,0.19,-0.05,
0.261,-0.14,0.19,0.99,-0.65,0.19,-0.05,
0.261,-0.14,0.19,0.99,-0.71,0.19,-0.04,
0.263,-0.13,0.19,0.98,-0.71,0.19,-0.04,
0.269,-0.14,0.19,0.99,-0.71,0.19,-0.04,
0.269,-0.14,0.19,0.99,-0.70,0.14,0.01,
0.269,-0.14,0.18,0.99,-0.70,0.14,0.01,
0.27,-0.14,0.18,0.99,-0.70,0.14,0.01,
0.27,-0.14,0.18,0.99,-0.70,0.12,0.01,
0.273,-0.14,0.18,0.99,-0.70,0.12,0.01,
0.275,-0.14,0.18,0.99,-0.73,0.08,0.09,
0.276,-0.14,0.18,0.99,-0.73,0.08,0.09,
0.278,-0.14,0.17,1.00,-0.73,0.08,0.09,
0.28,-0.15,0.17,1.00,-0.73,0.08,0.09,
0.28,-0.15,0.17,1.00,-0.75,0.03,0.09,
0.286,-0.14,0.17,1.00,-0.75,0.03,0.09,
0.286,-0.15,0.16,1.00,-0.75,0.03,0.09,
0.287,-0.15,0.16,1.00,-0.78,-0.02,0.14,
0.287,-0.15,0.16,1.00,-0.78,-0.02,0.14,
0.29,-0.15,0.17,1.00,-0.78,-0.02,0.14,
0.29,-0.15,0.17,1.00,-0.80,-0.09,0.15,
0.292,-0.16,0.17,1.01,-0.80,-0.09,0.15,
0.295,-0.16,0.16,1.01,-0.80,-0.09,0.15,
0.295,-0.16,0.16,1.01,-0.85,-0.10,0.19,
0.297,-0.16,0.16,1.01,-0.85,-0.10,0.19,
0.306,-0.16,0.16,1.01,-0.89,-0.12,0.25,
0.306,-0.16,0.17,1.01,-0.89,-0.12,0.25,
0.307,-0.17,0.16,1.01,-0.89,-0.12,0.25,
0.307,-0.16,0.16,1.01,-0.89,-0.12,0.25,
0.307,-0.16,0.16,1.01,-0.93,-0.12,0.29,
0.307,-0.17,0.16,1.01,-0.93,-0.12,0.29,
0.31,-0.17,0.16,1.01,-0.93,-0.12,0.29,
0.31,-0.17,0.16,1.01,-0.94,-0.14,0.28,
0.312,-0.16,0.16,1.01,-0.94,-0.14,0.28,
0.321,-0.16,0.16,1.01,-0.94,-0.14,0.28,
0.322,-0.16,0.16,1.01,-0.95,-0.14,0.27,
0.322,-0.16,0.16,1.00,-0.95,-0.14,0.27,
0.322,-0.16,0.17,1.01,-0.95,-0.14,0.27,
0.322,-0.16,0.17,1.01,-0.89,-0.17,0.22,
0.323,-0.15,0.16,1.01,-0.89,-0.17,0.22,
0.325,-0.15,0.16,1.01,-0.88,-0.13,0.20,
0.325,-0.15,0.17,1.00,-0.88,-0.13,0.20,
0.328,-0.15,0.17,1.00,-0.88,-0.13,0.20,
0.33,-0.15,0.17,1.00,-0.88,-0.13,0.20,
0.332,-0.15,0.17,1.00,-0.78,-0.12,0.21,
0.332,-0.15,0.17,1.00,-0.78,-0.12,0.21,
0.34,-0.14,0.17,0.99,-0.78,-0.12,0.21,
0.34,-0.14,0.17,0.99,-0.76,-0.08,0.16,
0.34,-0.14,0.17,0.99,-0.76,-0.08,0.16,
0.341,-0.13,0.16,1.00,-0.76,-0.08,0.16,
0.341,-0.13,0.16,1.00,-0.71,-0.10,0.12,
0.341,-0.14,0.16,1.00,-0.71,-0.10,0.12,
0.345,-0.14,0.16,0.99,-0.71,-0.10,0.12,
0.345,-0.14,0.16,0.99,-0.61,-0.13,0.12,
0.347,-0.13,0.16,0.99,-0.61,-0.13,0.12,
0.354,-0.13,0.16,0.99,-0.59,-0.16,0.07,
0.355,-0.13,0.16,0.99,-0.59,-0.16,0.07,
0.355,-0.13,0.16,0.99,-0.59,-0.16,0.07,
0.355,-0.13,0.16,0.99,-0.59,-0.16,0.07,
0.356,-0.13,0.16,0.99,-0.53,-0.16,0.04,
0.356,-0.13,0.16,0.99,-0.53,-0.16,0.04,
0.36,-0.13,0.16,1.00,-0.53,-0.16,0.04,
0.36,-0.13,0.16,1.00,-0.53,-0.19,0.07,
0.362,-0.13,0.16,0.99,-0.53,-0.19,0.07,
0.364,-0.13,0.16,0.99,-0.53,-0.19,0.07,
0.365,-0.13,0.16,0.99,-0.52,-0.19,0.09,
0.37,-0.13,0.15,0.99,-0.52,-0.19,0.09,
0.37,-0.13,0.15,0.99,-0.52,-0.19,0.09,
0.37,-0.13,0.15,0.99,-0.47,-0.20,0.07,
0.371,-0.13,0.15,0.99,-0.47,-0.20,0.07,
0.374,-0.13,0.15,0.99,-0.48,-0.27,0.05,
0.374,-0.13,0.15,0.99,-0.48,-0.27,0.05,
0.376,-0.13,0.15,0.99,-0.48,-0.27,0.05,
0.378,-0.14,0.15,0.99,-0.48,-0.27,0.05,
0.379,-0.14,0.15,0.99,-0.48,-0.30,0.07,
0.387,-0.14,0.14,0.98,-0.48,-0.30,0.07,
0.387,-0.14,0.14,0.99,-0.48,-0.30,0.07,
0.387,-0.14,0.14,0.99,-0.50,-0.29,0.06,
0.388,-0.15,0.15,1.00,-0.50,-0.29,0.06,
0.388,-0.16,0.14,1.00,-0.50,-0.29,0.06,
0.389,-0.16,0.14,1.00,-0.55,-0.37,0.03,
0.391,-0.15,0.14,0.99,-0.55,-0.37,0.03,
0.394,-0.15,0.14,0.99,-0.55,-0.37,0.03,
0.394,-0.15,0.14,0.99,-0.66,-0.35,0.11,
0.396,-0.15,0.15,0.99,-0.66,-0.35,0.11,
0.404,-0.15,0.15,0.99,-0.64,-0.37,0.07,
0.404,-0.15,0.14,1.00,-0.64,-0.37,0.07,
0.404,-0.15,0.14,1.00,-0.64,-0.37,0.07,
0.405,-0.16,0.14,0.99,-0.64,-0.37,0.07,
0.405,-0.16,0.14,0.99,-0.64,-0.36,0.09,
0.405,-0.16,0.14,0.99,-0.64,-0.36,0.09,
0.408,-0.16,0.14,0.99,-0.64,-0.36,0.09,
0.408,-0.16,0.14,0.99,-0.68,-0.40,0.13,
0.411,-0.16,0.13,0.99,-0.68,-0.40,0.13,
0.413,-0.17,0.14,0.99,-0.68,-0.40,0.13,
0.413,-0.17,0.14,0.99,-0.72,-0.42,0.09,
0.425,-0.17,0.13,0.98,-0.72,-0.42,0.09,
0.426,-0.17,0.14,0.98,-0.72,-0.42,0.09,
0.426,-0.17,0.14,0.98,-0.76,-0.45,0.02,
0.426,-0.17,0.14,0.97,-0.76,-0.45,0.02,
0.427,-0.17,0.14,0.97,-0.82,-0.45,-0.04,
0.427,-0.18,0.14,0.97,-0.82,-0.45,-0.04,
0.428,-0.18,0.14,0.97,-0.82,-0.45,-0.04,
0.428,-0.18,0.14,0.96,-0.82,-0.45,-0.04,
0.428,-0.18,0.14,0.96,-0.84,-0.45,-0.09,
0.43,-0.18,0.14,0.96,-0.84,-0.45,-0.09,
0.44,-0.18,0.13,0.95,-0.84,-0.45,-0.09,
0.44,-0.18,0.13,0.95,-0.84,-0.44,-0.15,
0.441,-0.17,0.14,0.94,-0.84,-0.44,-0.15,
0.441,-0.17,0.14,0.94,-0.84,-0.44,-0.15,
0.441,-0.17,0.14,0.94,-0.84,-0.47,-0.28,
0.441,-0.17,0.14,0.94,-0.84,-0.47,-0.28,
0.443,-0.16,0.14,0.93,-0.84,-0.47,-0.28,
0.443,-0.16,0.14,0.93,-0.79,-0.46,-0.40,
0.445,-0.16,0.14,0.92,-0.79,-0.46,-0.40,
0.448,-0.16,0.14,0.92,-0.74,-0.45,-0.48,
0.448,-0.16,0.15,0.92,-0.74,-0.45,-0.48,
0.457,-0.15,0.15,0.92,-0.74,-0.45,-0.48,
0.458,-0.15,0.15,0.92,-0.74,-0.45,-0.48,
0.458,-0.15,0.15,0.92,-0.62,-0.39,-0.60,
0.458,-0.15,0.15,0.92,-0.62,-0.39,-0.60,
0.459,-0.14,0.15,0.92,-0.62,-0.39,-0.60,
0.459,-0.14,0.15,0.92,-0.58,-0.37,-0.60,
0.46,-0.14,0.15,0.91,-0.58,-0.37,-0.60,
0.463,-0.13,0.15,0.91,-0.58,-0.37,-0.60,
0.463,-0.13,0.15,0.91,-0.48,-0.38,-0.61,
0.465,-0.13,0.14,0.91,-0.48,-0.38,-0.61,
0.474,-0.12,0.14,0.91,-0.48,-0.38,-0.61,
0.474,-0.12,0.14,0.91,-0.40,-0.41,-0.66,
0.475,-0.12,0.14,0.91,-0.40,-0.41,-0.66,
0.475,-0.12,0.14,0.91,-0.31,-0.44,-0.64,
0.475,-0.12,0.15,0.92,-0.31,-0.44,-0.64,
0.476,-0.12,0.15,0.92,-0.31,-0.44,-0.64,
0.478,-0.11,0.14,0.92,-0.31,-0.44,-0.64,
0.479,-0.11,0.14,0.92,-0.23,-0.42,-0.59,
0.48,-0.11,0.15,0.93,-0.23,-0.42,-0.59,
0.487,-0.11,0.15,0.93,-0.23,-0.42,-0.59,
0.487,-0.11,0.15,0.93,-0.20,-0.43,-0.55,
0.487,-0.11,0.15,0.93,-0.20,-0.43,-0.55,
0.488,-0.11,0.15,0.92,-0.20,-0.43,-0.55,
0.488,-0.11,0.15,0.92,-0.19,-0.42,-0.47,
0.49,-0.12,0.14,0.94,-0.19,-0.42,-0.47,
0.492,-0.12,0.14,0.94,-0.19,-0.42,-0.47,
0.492,-0.12,0.14,0.94,-0.19,-0.42,-0.47,
0.495,-0.13,0.14,0.94,-0.19,-0.42,-0.47,
0.498,-0.13,0.14,0.94,-0.24,-0.43,-0.36,
0.498,-0.13,0.13,0.94,-0.24,-0.43,-0.36,
0.505,-0.13,0.13,0.94,-0.24,-0.43,-0.36,
0.506,-0.13,0.13,0.94,-0.24,-0.43,-0.36,
0.506,-0.13,0.13,0.94,-0.32,-0.51,-0.34,
0.507,-0.13,0.12,0.94,-0.32,-0.51,-0.34,
0.508,-0.13,0.12,0.94,-0.32,-0.51,-0.34,
0.508,-0.13,0.12,0.94,-0.30,-0.56,-0.34,
0.51,-0.13,0.12,0.94,-0.30,-0.56,-0.34,
0.512,-0.14,0.11,0.94,-0.30,-0.56,-0.34,
0.513,-0.14,0.11,0.94,-0.31,-0.65,-0.34,
0.515,-0.13,0.11,0.94,-0.31,-0.65,-0.34,
0.525,-0.13,0.11,0.94,-0.31,-0.65,-0.34,
0.525,-0.13,0.11,0.94,-0.38,-0.71,-0.30,
0.526,-0.14,0.11,0.94,-0.38,-0.71,-0.30,
0.526,-0.14,0.11,0.94,-0.37,-0.75,-0.32,
0.526,-0.14,0.11,0.94,-0.37,-0.75,-0.32,
0.526,-0.13,0.11,0.94,-0.37,-0.75,-0.32,
0.528,-0.13,0.11,0.94,-0.37,-0.75,-0.32,
0.528,-0.13,0.11,0.94,-0.45,-0.79,-0.29,
0.53,-0.14,0.11,0.94,-0.45,-0.79,-0.29,
0.54,-0.13,0.11,0.94,-0.45,-0.79,-0.29,
0.54,-0.13,0.11,0.94,-0.37,-0.77,-0.34,
0.54,-0.13,0.11,0.95,-0.37,-0.77,-0.34,
0.541,-0.13,0.11,0.95,-0.40,-0.77,-0.33,
0.541,-0.13,0.11,0.95,-0.40,-0.77,-0.33,
0.541,-0.12,0.11,0.95,-0.40,-0.77,-0.33,
0.543,-0.12,0.12,0.95,-0.40,-0.77,-0.33,
0.543,-0.12,0.12,0.95,-0.36,-0.75,-0.26,
0.545,-0.12,0.13,0.95,-0.36,-0.75,-0.26,
0.548,-0.12,0.13,0.95,-0.30,-0.76,-0.19,
0.548,-0.11,0.12,0.96,-0.30,-0.76,-0.19,
0.558,-0.11,0.13,0.96,-0.30,-0.76,-0.19,
0.559,-0.10,0.14,0.95,-0.30,-0.76,-0.19,
0.559,-0.10,0.14,0.95,-0.24,-0.65,-0.18,
0.559,-0.09,0.14,0.95,-0.24,-0.65,-0.18,
0.56,-0.09,0.14,0.95,-0.24,-0.65,-0.18,
0.56,-0.09,0.14,0.95,-0.16,-0.59,-0.15,
0.56,-0.08,0.14,0.95,-0.16,-0.59,-0.15,
0.562,-0.08,0.14,0.94,-0.16,-0.59,-0.15,
0.563,-0.08,0.14,0.94,-0.04,-0.54,-0.21,
0.565,-0.07,0.14,0.94,-0.04,-0.54,-0.21,
0.572,-0.07,0.14,0.93,-0.04,-0.54,-0.21,
0.572,-0.07,0.14,0.93,0.02,-0.51,-0.25,
0.573,-0.06,0.14,0.93,0.02,-0.51,-0.25,
0.573,-0.05,0.14,0.93,0.02,-0.51,-0.25,
0.573,-0.05,0.14,0.93,0.12,-0.52,-0.35,
0.575,-0.04,0.14,0.92,0.12,-0.52,-0.35,
0.577,-0.05,0.14,0.91,0.12,-0.52,-0.35,
0.578,-0.05,0.14,0.91,0.26,-0.52,-0.38,
0.58,-0.04,0.13,0.91,0.26,-0.52,-0.38,
0.582,-0.04,0.13,0.90,0.26,-0.52,-0.38,
0.583,-0.04,0.13,0.90,0.33,-0.57,-0.54,
0.589,-0.03,0.13,0.90,0.33,-0.57,-0.54,
0.589,-0.04,0.13,0.89,0.33,-0.57,-0.54,
0.589,-0.04,0.13,0.89,0.36,-0.65,-0.63,
0.59,-0.04,0.13,0.90,0.36,-0.65,-0.63,
0.592,-0.03,0.13,0.90,0.36,-0.65,-0.63,
0.592,-0.03,0.13,0.90,0.39,-0.70,-0.69,
0.594,-0.04,0.13,0.91,0.39,-0.70,-0.69,
0.597,-0.04,0.13,0.91,0.40,-0.69,-0.67,
0.597,-0.04,0.13,0.91,0.40,-0.69,-0.67,
0.599,-0.04,0.12,0.91,0.40,-0.69,-0.67,
0.604,-0.04,0.12,0.92,0.40,-0.69,-0.67,
0.605,-0.04,0.12,0.92,0.34,-0.71,-0.58,
0.605,-0.04,0.12,0.91,0.34,-0.71,-0.58,
0.607,-0.04,0.12,0.92,0.34,-0.71,-0.58,
0.607,-0.04,0.12,0.92,0.33,-0.73,-0.53,
0.609,-0.04,0.11,0.92,0.33,-0.73,-0.53,
0.612,-0.04,0.11,0.92,0.29,-0.79,-0.51,
0.612,-0.04,0.11,0.93,0.29,-0.79,-0.51,
0.614,-0.04,0.11,0.93,0.29,-0.79,-0.51,
0.626,-0.03,0.11,0.94,0.29,-0.79,-0.51,
0.627,-0.03,0.11,0.94,0.32,-0.83,-0.39,
0.627,-0.03,0.11,0.94,0.32,-0.83,-0.39,
0.627,-0.03,0.11,0.94,0.32,-0.86,-0.30,
0.628,-0.03,0.11,0.94,0.32,-0.86,-0.30,
0.628,-0.02,0.11,0.95,0.32,-0.86,-0.30,
0.628,-0.02,0.10,0.95,0.32,-0.86,-0.30,
0.629,-0.02,0.10,0.95,0.33,-0.90,-0.22,
0.629,-0.02,0.11,0.95,0.33,-0.90,-0.22,
0.631,-0.02,0.11,0.96,0.33,-0.90,-0.22,
0.631,-0.02,0.11,0.96,0.39,-0.90,-0.14,
0.641,-0.01,0.11,0.97,0.39,-0.90,-0.14,
0.641,-0.01,0.11,0.96,0.39,-0.90,-0.14,
0.642,-0.01,0.11,0.96,0.42,-0.85,-0.07,
0.642,-0.01,0.11,0.97,0.42,-0.85,-0.07,
0.642,-0.00,0.12,0.97,0.42,-0.85,-0.07,
0.642,-0.00,0.12,0.97,0.46,-0.82,-0.00,
0.643,0.00,0.12,0.97,0.46,-0.82,-0.00,
0.646,0.01,0.12,0.97,0.46,-0.82,-0.00,
0.646,0.01,0.12,0.97,0.50,-0.79,0.03,
0.648,0.01,0.13,0.97,0.50,-0.79,0.03,
0.659,0.02,0.13,0.98,0.50,-0.79,0.03,
0.659,0.02,0.13,0.98,0.59,-0.73,0.04,
0.66,0.03,0.14,0.98,0.59,-0.73,0.04,
0.66,0.03,0.15,0.99,0.59,-0.73,0.04,
0.66,0.03,0.15,0.99,0.66,-0.67,0.12,
0.661,0.04,0.14,0.99,0.66,-0.67,0.12,
0.663,0.04,0.15,0.99,0.66,-0.67,0.12,
0.663,0.04,0.15,0.99,0.76,-0.56,0.18,
0.664,0.05,0.15,0.99,0.76,-0.56,0.18,
0.673,0.05,0.15,0.99,0.76,-0.56,0.18,
0.674,0.05,0.15,0.99,0.79,-0.56,0.26,
0.674,0.05,0.15,1.00,0.79,-0.56,0.26,
0.675,0.05,0.15,1.00,0.90,-0.54,0.28,
0.675,0.06,0.15,1.00,0.90,-0.54,0.28,
0.675,0.07,0.15,1.00,0.90,-0.54,0.28,
0.676,0.07,0.15,0.99,0.90,-0.54,0.28,
0.676,0.07,0.15,0.99,0.91,-0.51,0.32,
0.678,0.08,0.15,0.99,0.91,-0.51,0.32,
0.68,0.09,0.16,0.98,0.91,-0.51,0.32,
0.681,0.09,0.16,0.98,0.99,-0.54,0.32,
0.689,0.09,0.16,0.97,0.99,-0.54,0.32,
0.689,0.09,0.16,0.97,0.99,-0.54,0.32,
0.69,0.09,0.16,0.97,1.11,-0.52,0.18,
0.69,0.09,0.17,0.96,1.11,-0.52,0.18,
0.69,0.09,0.17,0.96,1.11,-0.52,0.18,
0.691,0.09,0.17,0.96,1.11,-0.46,0.07,
0.693,0.09,0.17,0.95,1.11,-0.46,0.07,
0.696,0.09,0.17,0.96,1.11,-0.46,0.07,
0.696,0.09,0.17,0.96,1.10,-0.44,-0.06,
0.698,0.09,0.17,0.95,1.10,-0.44,-0.06,
0.704,0.08,0.17,0.94,1.10,-0.44,-0.06,
0.705,0.08,0.17,0.94,1.02,-0.44,-0.07,
0.706,0.08,0.17,0.93,1.02,-0.44,-0.07,
0.706,0.09,0.18,0.92,1.02,-0.44,-0.07,
0.706,0.09,0.18,0.92,0.97,-0.45,-0.20,
0.708,0.09,0.18,0.91,0.97,-0.45,-0.20,
0.71,0.09,0.18,0.91,0.96,-0.46,-0.33,
0.71,0.09,0.18,0.90,0.96,-0.46,-0.33,
0.712,0.09,0.17,0.89,0.96,-0.46,-0.33,
0.715,0.09,0.17,0.88,0.96,-0.46,-0.33,
0.716,0.09,0.17,0.88,0.98,-0.45,-0.53,
0.728,0.09,0.17,0.88,0.98,-0.45,-0.53,
0.729,0.09,0.17,0.88,0.97,-0.57,-0.70,
0.729,0.09,0.16,0.88,0.97,-0.57,-0.70,
0.729,0.08,0.16,0.89,0.97,-0.57,-0.70,
0.729,0.08,0.17,0.90,0.97,-0.57,-0.70,
0.73,0.08,0.17,0.90,0.89,-0.63,-0.73,
0.73,0.08,0.18,0.90,0.89,-0.63,-0.73,
0.73,0.09,0.17,0.90,0.89,-0.63,-0.73,
0.73,0.09,0.17,0.90,0.78,-0.62,-0.63,
0.732,0.10,0.16,0.88,0.78,-0.62,-0.63,
0.741,0.11,0.15,0.86,0.78,-0.62,-0.63,
0.741,0.11,0.15,0.86,0.81,-0.61,-0.55,
0.741,0.10,0.15,0.86,0.81,-0.61,-0.55,
0.742,0.11,0.15,0.85,0.81,-0.61,-0.55,
0.742,0.11,0.15,0.85,0.97,-0.75,-0.81,
0.742,0.10,0.14,0.85,0.97,-0.75,-0.81,
0.745,0.10,0.14,0.85,0.96,-0.86,-0.95,
0.746,0.09,0.15,0.85,0.96,-0.86,-0.95,
0.747,0.09,0.15,0.85,0.96,-0.86,-0.95,
0.761,0.08,0.16,0.85,0.96,-0.86,-0.95,
0.762,0.08,0.16,0.85,0.87,-0.89,-1.01,
0.762,0.09,0.17,0.85,0.87,-0.89,-1.01,
0.763,0.08,0.18,0.86,0.87,-0.89,-1.01,
0.763,0.08,0.18,0.86,0.76,-0.81,-1.00,
0.763,0.08,0.17,0.86,0.76,-0.81,-1.00,
0.763,0.08,0.17,0.86,0.76,-0.81,-1.00,
0.764,0.08,0.17,0.86,0.70,-0.66,-0.96,
0.764,0.08,0.17,0.86,0.70,-0.66,-0.96,
0.765,0.08,0.17,0.86,0.70,-0.66,-0.96,
0.765,0.08,0.17,0.86,0.62,-0.65,-0.91,
0.773,0.09,0.17,0.86,0.62,-0.65,-0.91,
0.774,0.09,0.17,0.86,0.63,-0.66,-0.93,
0.774,0.10,0.16,0.85,0.63,-0.66,-0.93,
0.775,0.10,0.16,0.85,0.63,-0.66,-0.93,
0.775,0.11,0.16,0.85,0.63,-0.66,-0.93,
0.775,0.11,0.16,0.85,0.75,-0.70,-0.96,
0.777,0.11,0.16,0.85,0.75,-0.70,-0.96,
0.779,0.10,0.16,0.85,0.75,-0.70,-0.96,
0.78,0.10,0.16,0.85,0.86,-0.73,-1.00,
0.782,0.10,0.15,0.85,0.86,-0.73,-1.00,
0.788,0.10,0.15,0.85,0.86,-0.73,-1.00,
0.789,0.10,0.15,0.85,0.82,-0.74,-0.99,
0.789,0.11,0.15,0.85,0.82,-0.74,-0.99,
0.79,0.11,0.15,0.85,0.82,-0.74,-0.99,
0.79,0.11,0.15,0.85,0.80,-0.79,-0.98,
0.792,0.11,0.15,0.85,0.80,-0.79,-0.98,
0.794,0.11,0.15,0.85,0.86,-0.76,-0.98,
0.795,0.11,0.15,0.85,0.86,-0.76,-0.98,
0.797,0.11,0.15,0.84,0.86,-0.76,-0.98,
0.799,0.11,0.15,0.83,0.86,-0.76,-0.98,
0.799,0.11,0.15,0.83,0.88,-0.77,-1.02,
0.806,0.11,0.15,0.83,0.88,-0.77,-1.02,
0.806,0.12,0.15,0.83,0.88,-0.77,-1.02,
0.806,0.12,0.15,0.83,0.90,-0.78,-1.14,
0.807,0.12,0.15,0.83,0.90,-0.78,-1.14,
0.809,0.12,0.15,0.84,0.90,-0.78,-1.14,
0.81,0.12,0.15,0.84,0.90,-0.75,-1.19,
0.811,0.12,0.15,0.84,0.90,-0.75,-1.19,
0.814,0.12,0.15,0.84,0.90,-0.75,-1.19,
0.814,0.12,0.15,0.84,0.95,-0.74,-1.15,
0.829,0.13,0.15,0.84,0.95,-0.74,-1.15,
0.83,0.13,0.15,0.84,0.96,-0.73,-1.10,
0.83,0.13,0.15,0.83,0.96,-0.73,-1.10,
0.83,0.13,0.15,0.84,0.96,-0.73,-1.10,
0.83,0.14,0.15,0.84,0.96,-0.73,-1.10,
0.835,0.14,0.15,0.84,1.01,-0.72,-1.14,
0.836,0.14,0.15,0.85,1.01,-0.72,-1.14,
0.836,0.14,0.16,0.85,1.01,-0.72,-1.14,
0.836,0.14,0.16,0.85,1.04,-0.70,-1.11,
0.836,0.14,0.16,0.86,1.04,-0.70,-1.11,
0.836,0.14,0.16,0.86,1.08,-0.61,-1.00,
0.837,0.15,0.16,0.86,1.08,-0.61,-1.00,
0.837,0.15,0.16,0.87,1.08,-0.61,-1.00,
0.846,0.15,0.16,0.87,1.13,-0.53,-0.88,
0.847,0.16,0.17,0.87,1.13,-0.53,-0.88,
0.847,0.16,0.17,0.88,1.13,-0.53,-0.88,
0.847,0.16,0.17,0.88,1.18,-0.50,-0.79,
0.847,0.16,0.17,0.88,1.18,-0.50,-0.79,
0.848,0.17,0.17,0.89,1.18,-0.50,-0.79,
0.849,0.17,0.17,0.90,1.18,-0.50,-0.79,
0.849,0.17,0.17,0.90,1.19,-0.46,-0.70,
0.862,0.18,0.17,0.89,1.19,-0.46,-0.70,
0.862,0.18,0.17,0.90,1.19,-0.46,-0.70,
0.863,0.18,0.17,0.90,1.24,-0.40,-0.55,
0.863,0.18,0.18,0.89,1.24,-0.40,-0.55,
0.863,0.18,0.18,0.89,1.31,-0.36,-0.58,
0.863,0.18,0.17,0.89,1.31,-0.36,-0.58,
0.864,0.19,0.18,0.88,1.31,-0.36,-0.58,
0.864,0.19,0.18,0.88,1.31,-0.36,-0.58,
0.864,0.19,0.18,0.88,1.32,-0.34,-0.62,
0.866,0.19,0.18,0.87,1.32,-0.34,-0.62,
0.875,0.19,0.18,0.87,1.39,-0.25,-0.69,
0.876,0.19,0.18,0.88,1.39,-0.25,-0.69,
0.876,0.19,0.17,0.88,1.39,-0.25,-0.69,
0.876,0.19,0.17,0.88,1.38,-0.26,-0.76,
0.877,0.19,0.17,0.86,1.38,-0.26,-0.76,
0.877,0.19,0.17,0.86,1.38,-0.26,-0.76,
0.879,0.19,0.18,0.85,1.38,-0.26,-0.76,
0.879,0.19,0.18,0.85,1.34,-0.28,-0.80,
0.881,0.19,0.18,0.85,1.34,-0.28,-0.80,
0.89,0.19,0.17,0.85,1.34,-0.28,-0.80,
0.89,0.19,0.17,0.85,1.31,-0.24,-0.95,
0.89,0.19,0.17,0.85,1.31,-0.24,-0.95,
0.891,0.19,0.17,0.85,1.34,-0.23,-1.00,
0.891,0.19,0.17,0.85,1.34,-0.23,-1.00,
0.891,0.20,0.17,0.85,1.34,-0.23,-1.00,
0.894,0.20,0.17,0.85,1.36,-0.23,-0.97,
0.894,0.19,0.17,0.85,1.36,-0.23,-0.97,
0.896,0.19,0.17,0.86,1.36,-0.23,-0.97,
0.899,0.19,0.17,0.86,1.36,-0.23,-0.97,
0.899,0.19,0.17,0.86,1.34,-0.24,-0.98,
0.901,0.20,0.16,0.87,1.34,-0.24,-0.98,
0.909,0.20,0.15,0.86,1.34,-0.24,-0.98,
0.909,0.20,0.15,0.86,1.26,-0.21,-0.92,
0.91,0.21,0.15,0.87,1.26,-0.21,-0.92,
0.91,0.21,0.14,0.88,1.26,-0.21,-0.92,
0.91,0.21,0.14,0.88,1.35,-0.29,-0.86,
0.911,0.22,0.14,0.89,1.35,-0.29,-0.86,
0.914,0.23,0.13,0.90,1.35,-0.29,-0.86,
0.914,0.23,0.13,0.90,1.44,-0.36,-0.79,
0.916,0.23,0.13,0.90,1.44,-0.36,-0.79,
0.928,0.23,0.13,0.90,1.57,-0.43,-0.61,
0.929,0.24,0.13,0.91,1.57,-0.43,-0.61,
0.929,0.24,0.12,0.92,1.57,-0.43,-0.61,
0.929,0.24,0.12,0.93,1.57,-0.43,-0.61,
0.929,0.24,0.12,0.93,1.62,-0.46,-0.46,
0.929,0.24,0.12,0.94,1.62,-0.46,-0.46,
0.93,0.25,0.13,0.95,1.62,-0.46,-0.46,
0.93,0.25,0.13,0.95,1.66,-0.47,-0.25,
0.931,0.25,0.13,0.95,1.66,-0.47,-0.25,
0.934,0.25,0.13,0.96,1.66,-0.47,-0.25,
0.934,0.25,0.13,0.96,1.68,-0.43,-0.09,
0.942,0.25,0.14,0.97,1.68,-0.43,-0.09,
0.943,0.26,0.14,0.98,1.68,-0.43,-0.09,
0.943,0.26,0.14,0.98,1.70,-0.34,0.01,
0.943,0.26,0.15,0.98,1.70,-0.34,0.01,
0.943,0.26,0.15,0.98,1.72,-0.23,0.16,
0.943,0.26,0.15,0.99,1.72,-0.23,0.16,
0.946,0.26,0.15,0.98,1.72,-0.23,0.16,
0.949,0.27,0.15,0.98,1.72,-0.23,0.16,
0.949,0.27,0.15,0.98,1.75,-0.12,0.29,
0.951,0.27,0.16,0.98,1.75,-0.12,0.29,
0.959,0.26,0.17,0.99,1.75,-0.12,0.29,
0.959,0.26,0.17,0.99,1.77,-0.04,0.29,
0.96,0.27,0.16,0.98,1.77,-0.04,0.29,
0.96,0.27,0.16,0.98,1.75,0.06,0.28,
0.96,0.27,0.16,0.98,1.75,0.06,0.28,
0.96,0.27,0.17,0.98,1.75,0.06,0.28,
0.963,0.27,0.17,0.99,1.75,0.06,0.28,
0.964,0.27,0.17,0.99,1.75,0.09,0.28,
0.966,0.27,0.18,0.98,1.75,0.09,0.28,
0.974,0.27,0.18,0.98,1.73,0.20,0.25,
0.974,0.27,0.18,0.98,1.73,0.20,0.25,
0.975,0.27,0.18,0.98,1.73,0.20,0.25,
0.975,0.27,0.18,0.99,1.73,0.20,0.25,
0.975,0.27,0.18,0.99,1.75,0.29,0.26,
0.975,0.27,0.18,0.98,1.75,0.29,0.26,
0.978,0.28,0.17,0.98,1.75,0.29,0.26,
0.979,0.28,0.17,0.98,1.71,0.35,0.26,
0.981,0.27,0.17,0.98,1.71,0.35,0.26,
0.983,0.27,0.17,0.98,1.74,0.32,0.25,
0.984,0.28,0.17,0.98,1.74,0.32,0.25,
0.99,0.28,0.17,0.98,1.74,0.32,0.25,
0.991,0.29,0.17,0.99,1.74,0.32,0.25,
0.991,0.29,0.17,0.99,1.74,0.32,0.20,
0.994,0.29,0.16,0.99,1.74,0.32,0.20,
0.994,0.29,0.16,0.99,1.84,0.34,0.25,
0.994,0.30,0.16,0.99,1.84,0.34,0.25,
0.996,0.30,0.16,1.00,1.84,0.34,0.25,
0.998,0.31,0.16,1.00,1.84,0.34,0.25,
0.998,0.31,0.16,1.00,1.89,0.25,0.32,
1.0,0.32,0.16,1.00,1.89,0.25,0.32,
1.007,0.31,0.16,1.01,1.89,0.25,0.32,
1.008,0.31,0.16,1.01,2.00,0.28,0.39,
1.008,0.32,0.16,1.02,2.00,0.28,0.39,
1.009,0.32,0.15,1.02,2.00,0.28,0.39,
1.009,0.32,0.15,1.02,2.07,0.29,0.45,
1.009,0.33,0.15,1.02,2.07,0.29,0.45,
1.012,0.33,0.15,1.02,2.08,0.31,0.57,
1.012,0.34,0.15,1.01,2.08,0.31,0.57,
1.014,0.34,0.15,1.02,2.08,0.31,0.57,
1.017,0.34,0.15,1.02,2.19,0.29,0.55,
1.017,0.34,0.14,1.03,2.19,0.29,0.55,
1.029,0.33,0.14,1.03,2.19,0.29,0.55,
1.03,0.32,0.14,1.03,2.19,0.29,0.55,
1.03,0.32,0.14,1.03,2.19,0.24,0.64,
1.03,0.32,0.13,1.03,2.19,0.24,0.64,
1.03,0.32,0.13,1.03,2.19,0.24,0.64,
1.031,0.32,0.13,1.03,2.08,0.20,0.69,
1.031,0.32,0.13,1.03,2.08,0.20,0.69,
1.032,0.31,0.12,1.03,2.08,0.20,0.69,
1.032,0.31,0.12,1.03,2.01,0.16,0.71,
1.043,0.31,0.12,1.03,2.01,0.16,0.71,
1.043,0.31,0.12,1.03,2.01,0.16,0.71,
1.044,0.31,0.12,1.03,1.91,0.13,0.70,
1.044,0.30,0.12,1.02,1.91,0.13,0.70,
1.044,0.30,0.12,1.02,1.86,0.12,0.67,
1.044,0.29,0.12,1.02,1.86,0.12,0.67,
1.045,0.29,0.12,1.01,1.86,0.12,0.67,
1.047,0.29,0.12,1.01,1.86,0.12,0.67,
1.047,0.29,0.12,1.01,1.73,0.11,0.56,
1.05,0.29,0.12,1.00,1.73,0.11,0.56,
1.061,0.28,0.12,1.00,1.73,0.11,0.56,
1.061,0.28,0.12,1.00,1.64,0.15,0.46,
1.062,0.28,0.12,0.99,1.64,0.15,0.46,
1.062,0.27,0.12,1.00,1.64,0.15,0.46,
1.062,0.27,0.12,1.00,1.55,0.14,0.34,
1.062,0.28,0.12,0.99,1.55,0.14,0.34,
1.063,0.27,0.12,0.98,1.55,0.14,0.34,
1.063,0.27,0.12,0.98,1.48,0.18,0.31,
1.065,0.27,0.11,0.98,1.48,0.18,0.31,
1.067,0.27,0.11,0.98,1.47,0.15,0.22,
1.067,0.26,0.11,0.97,1.47,0.15,0.22,
1.075,0.27,0.11,0.96,1.47,0.15,0.22,
1.076,0.28,0.11,0.96,1.47,0.15,0.22,
1.076,0.28,0.11,0.96,1.37,0.07,0.12,
1.076,0.29,0.11,0.96,1.37,0.07,0.12,
1.076,0.30,0.11,0.96,1.37,0.07,0.12,
1.077,0.30,0.11,0.96,1.46,0.12,-0.03,
1.079,0.30,0.11,0.96,1.46,0.12,-0.03,
1.082,0.30,0.11,0.96,1.46,0.12,-0.03,
1.082,0.30,0.11,0.96,1.63,0.10,-0.05,
1.084,0.30,0.11,0.97,1.63,0.10,-0.05,
1.09,0.31,0.12,0.97,1.63,0.10,-0.05,
1.091,0.31,0.12,0.97,1.67,0.13,-0.05,
1.091,0.31,0.11,0.97,1.67,0.13,-0.05,
1.092,0.31,0.11,0.97,1.74,0.17,0.04,
1.092,0.31,0.11,0.98,1.74,0.17,0.04,
1.094,0.32,0.11,0.97,1.74,0.17,0.04,
1.096,0.33,0.11,0.97,1.74,0.17,0.04,
1.096,0.33,0.11,0.97,1.77,0.16,0.08,
1.098,0.34,0.11,0.97,1.77,0.16,0.08,
1.108,0.35,0.11,0.98,1.77,0.16,0.08,
1.109,0.35,0.11,0.98,1.91,0.20,0.08,
1.109,0.36,0.11,0.98,1.91,0.20,0.08,
1.109,0.36,0.11,0.98,1.91,0.20,0.08,
1.11,0.36,0.11,0.98,2.06,0.17,0.14,
1.11,0.37,0.10,0.98,2.06,0.17,0.14,
1.111,0.38,0.10,0.98,2.06,0.17,0.14,
1.111,0.38,0.10,0.98,2.20,0.18,0.17,
1.113,0.38,0.10,0.98,2.20,0.18,0.17,
1.116,0.38,0.10,0.98,2.33,0.17,0.18,
1.116,0.38,0.10,0.98,2.33,0.17,0.18,
1.129,0.37,0.09,0.98,2.33,0.17,0.18,
1.13,0.37,0.10,0.98,2.33,0.17,0.18,
1.13,0.37,0.10,0.98,2.36,0.13,0.18,
1.131,0.36,0.10,0.98,2.36,0.13,0.18,
1.131,0.36,0.10,0.98,2.36,0.13,0.18,
1.131,0.36,0.10,0.98,2.28,0.13,0.13,
1.131,0.34,0.11,0.98,2.28,0.13,0.13,
1.132,0.33,0.11,0.98,2.28,0.13,0.13,
1.132,0.33,0.11,0.98,2.14,0.21,0.14,
1.133,0.31,0.12,0.97,2.14,0.21,0.14,
1.143,0.30,0.13,0.96,2.14,0.21,0.14,
1.144,0.30,0.13,0.96,1.89,0.31,0.14,
1.144,0.29,0.13,0.96,1.89,0.31,0.14,
1.144,0.29,0.13,0.96,1.61,0.47,0.01,
1.145,0.28,0.14,0.96,1.61,0.47,0.01,
1.145,0.28,0.15,0.95,1.61,0.47,0.01,
1.146,0.28,0.15,0.95,1.61,0.47,0.01,
1.146,0.28,0.15,0.95,1.43,0.61,-0.07,
1.148,0.29,0.16,0.95,1.43,0.61,-0.07,
1.151,0.29,0.16,0.94,1.43,0.61,-0.07,
1.151,0.29,0.16,0.94,1.38,0.76,-0.15,
1.161,0.29,0.17,0.93,1.38,0.76,-0.15,
1.164,0.29,0.17,0.93,1.38,0.76,-0.15,
1.166,0.29,0.17,0.93,1.44,0.89,-0.23,
1.166,0.30,0.18,0.93,1.44,0.89,-0.23,
1.167,0.30,0.18,0.93,1.46,0.99,-0.33,
1.167,0.30,0.18,0.94,1.46,0.99,-0.33,
1.167,0.30,0.18,0.94,1.46,0.99,-0.33,
1.168,0.30,0.18,0.94,1.52,1.06,-0.30,
1.168,0.30,0.19,0.95,1.52,1.06,-0.30,
1.168,0.30,0.19,0.95,1.52,1.06,-0.30,
1.175,0.31,0.18,0.96,1.52,1.06,-0.30,
1.176,0.31,0.18,0.96,1.59,1.15,-0.22,
1.177,0.32,0.17,0.97,1.59,1.15,-0.22,
1.177,0.32,0.17,0.97,1.59,1.15,-0.22,
1.177,0.32,0.17,0.97,1.60,1.15,-0.09,
1.179,0.33,0.17,0.98,1.60,1.15,-0.09,
1.181,0.34,0.16,0.99,1.60,1.15,-0.09,
1.181,0.34,0.16,0.99,1.72,1.07,0.05,
1.183,0.34,0.16,1.00,1.72,1.07,0.05,
1.186,0.35,0.15,1.00,1.72,1.07,0.05,
1.186,0.35,0.15,1.00,1.83,1.02,0.19,
1.191,0.35,0.14,1.01,1.83,1.02,0.19,
1.191,0.35,0.14,1.01,1.97,0.95,0.32,
1.191,0.36,0.13,1.02,1.97,0.95,0.32,
1.193,0.35,0.12,1.03,1.97,0.95,0.32,
1.196,0.35,0.11,1.03,1.97,0.95,0.32,
1.196,0.35,0.11,1.03,2.03,0.76,0.45,
1.198,0.35,0.10,1.03,2.03,0.76,0.45,
1.201,0.34,0.09,1.04,2.03,0.76,0.45,
1.201,0.34,0.09,1.04,1.99,0.60,0.59,
1.207,0.34,0.08,1.05,1.99,0.60,0.59,
1.208,0.34,0.08,1.05,1.90,0.44,0.72,
1.208,0.34,0.06,1.05,1.90,0.44,0.72,
1.208,0.33,0.06,1.06,1.90,0.44,0.72,
1.211,0.33,0.06,1.06,1.81,0.23,0.82,
1.211,0.33,0.04,1.06,1.81,0.23,0.82,
1.213,0.32,0.03,1.06,1.81,0.23,0.82,
1.216,0.32,0.03,1.06,1.74,0.04,0.92,
1.217,0.32,0.03,1.06,1.74,0.04,0.92,
1.218,0.30,0.02,1.07,1.74,0.04,0.92,
1.231,0.29,0.02,1.07,1.74,0.04,0.92,
1.232,0.29,0.02,1.07,1.61,-0.09,0.93,
1.232,0.28,0.02,1.07,1.61,-0.09,0.93,
1.232,0.27,0.02,1.07,1.61,-0.09,0.93,
1.232,0.27,0.02,1.07,1.39,-0.17,0.99,
1.233,0.26,0.02,1.07,1.39,-0.17,0.99,
1.233,0.26,0.03,1.07,1.39,-0.17,0.99,
1.233,0.26,0.03,1.07,1.20,-0.15,1.01,
1.233,0.25,0.03,1.07,1.20,-0.15,1.01,
1.236,0.24,0.04,1.06,1.20,-0.15,1.01,
1.236,0.24,0.04,1.06,1.04,-0.13,1.00,
1.245,0.24,0.04,1.06,1.04,-0.13,1.00,
1.246,0.24,0.04,1.06,0.90,-0.00,0.94,
1.246,0.25,0.04,1.04,0.90,-0.00,0.94,
1.246,0.24,0.05,1.04,0.90,-0.00,0.94,
1.247,0.24,0.06,1.05,0.90,-0.00,0.94,
1.247,0.24,0.06,1.05,0.86,0.05,0.81,
1.247,0.23,0.07,1.04,0.86,0.05,0.81,
1.251,0.23,0.07,1.03,0.86,0.05,0.81,
1.251,0.23,0.07,1.03,0.81,0.19,0.73,
1.253,0.23,0.08,1.04,0.81,0.19,0.73,
1.262,0.23,0.09,1.03,0.81,0.19,0.73,
1.263,0.23,0.09,1.03,0.75,0.32,0.66,
1.263,0.24,0.10,1.03,0.75,0.32,0.66,
1.263,0.24,0.10,1.03,0.75,0.32,0.66,
1.263,0.24,0.10,1.03,0.75,0.49,0.64,
1.264,0.24,0.11,1.02,0.75,0.49,0.64,
1.265,0.24,0.11,1.02,0.79,0.63,0.55,
1.266,0.25,0.11,1.02,0.79,0.63,0.55,
1.268,0.26,0.11,1.02,0.79,0.63,0.55,
1.276,0.26,0.11,1.02,0.79,0.63,0.55,
1.277,0.26,0.11,1.02,0.89,0.74,0.49,
1.277,0.27,0.12,1.02,0.89,0.74,0.49,
1.277,0.28,0.11,1.02,0.89,0.74,0.49,
1.277,0.28,0.11,1.02,1.01,0.77,0.49,
1.277,0.28,0.11,1.02,1.01,0.77,0.49,
1.28,0.29,0.11,1.03,1.01,0.77,0.49,
1.28,0.29,0.11,1.03,1.13,0.80,0.49,
1.282,0.29,0.10,1.03,1.13,0.80,0.49,
1.285,0.29,0.10,1.03,1.13,0.80,0.49,
1.285,0.29,0.10,1.03,1.25,0.76,0.53,
1.292,0.30,0.11,1.03,1.25,0.76,0.53,
1.292,0.30,0.11,1.03,1.30,0.72,0.57,
1.292,0.30,0.10,1.04,1.30,0.72,0.57,
1.293,0.30,0.10,1.04,1.30,0.72,0.57,
1.296,0.30,0.10,1.04,1.30,0.72,0.57,
1.296,0.30,0.10,1.04,1.40,0.74,0.62,
1.297,0.30,0.09,1.05,1.40,0.74,0.62,
1.299,0.30,0.08,1.05,1.40,0.74,0.62,
1.3,0.30,0.08,1.05,1.42,0.68,0.67,
1.303,0.29,0.08,1.05,1.42,0.68,0.67,
1.312,0.29,0.07,1.05,1.42,0.68,0.67,
1.313,0.29,0.07,1.05,1.36,0.62,0.74,
1.313,0.29,0.07,1.05,1.36,0.62,0.74,
1.313,0.28,0.06,1.05,1.36,0.62,0.74,
1.313,0.28,0.06,1.05,1.32,0.49,0.76,
1.314,0.27,0.05,1.06,1.32,0.49,0.76,
1.315,0.27,0.05,1.06,1.24,0.41,0.79,
1.315,0.26,0.05,1.07,1.24,0.41,0.79,
1.317,0.26,0.04,1.07,1.24,0.41,0.79,
1.334,0.26,0.04,1.07,1.24,0.41,0.79,
1.336,0.26,0.04,1.07,1.10,0.29,0.91,
1.336,0.26,0.04,1.07,1.10,0.29,0.91,
1.337,0.24,0.03,1.08,1.10,0.29,0.91,
1.337,0.24,0.03,1.08,0.99,0.21,0.95,
1.337,0.24,0.03,1.09,0.99,0.21,0.95,
1.337,0.24,0.03,1.09,0.91,0.16,1.01,
1.337,0.24,0.04,1.09,0.91,0.16,1.01,
1.337,0.23,0.03,1.09,0.91,0.16,1.01,
1.338,0.23,0.03,1.09,0.81,0.18,1.11,
1.338,0.23,0.04,1.09,0.81,0.18,1.11,
1.338,0.23,0.04,1.09,0.81,0.18,1.11,
1.34,0.23,0.04,1.09,0.70,0.20,1.15,
1.34,0.23,0.03,1.10,0.70,0.20,1.15,
1.341,0.23,0.03,1.10,0.70,0.20,1.15,
1.344,0.23,0.04,1.10,0.70,0.20,1.15,
1.345,0.23,0.04,1.10,0.71,0.19,1.18,
1.346,0.23,0.04,1.10,0.71,0.19,1.18,
1.349,0.22,0.04,1.10,0.71,0.19,1.18,
1.349,0.22,0.04,1.10,0.70,0.22,1.23,
1.351,0.22,0.04,1.10,0.70,0.22,1.23,
1.354,0.22,0.04,1.10,0.70,0.22,1.23,
1.355,0.22,0.04,1.10,0.66,0.22,1.25,
1.357,0.22,0.04,1.11,0.66,0.22,1.25,
1.359,0.22,0.04,1.11,0.62,0.26,1.26,
1.359,0.22,0.03,1.10,0.62,0.26,1.26,
1.361,0.23,0.04,1.10,0.62,0.26,1.26,
1.364,0.23,0.04,1.10,0.62,0.22,1.26,
1.364,0.22,0.04,1.10,0.62,0.22,1.26,
1.366,0.23,0.03,1.10,0.62,0.22,1.26,
1.369,0.23,0.03,1.10,0.66,0.23,1.22,
1.369,0.23,0.03,1.10,0.66,0.23,1.22,
1.374,0.23,0.03,1.10,0.66,0.23,1.22,
1.375,0.22,0.03,1.10,0.66,0.23,1.22,
1.376,0.22,0.03,1.10,0.67,0.19,1.21,
1.376,0.23,0.03,1.10,0.67,0.19,1.21,
1.379,0.23,0.03,1.10,0.66,0.14,1.20,
1.379,0.23,0.02,1.10,0.66,0.14,1.20,
1.381,0.23,0.02,1.09,0.66,0.14,1.20,
1.383,0.23,0.02,1.09,0.69,0.13,1.17,
1.384,0.24,0.01,1.09,0.69,0.13,1.17,
1.386,0.24,0.01,1.08,0.69,0.13,1.17,
1.389,0.24,0.01,1.08,0.74,0.01,1.13,
1.389,0.24,0.01,1.08,0.74,0.01,1.13,
1.391,0.23,0.00,1.08,0.74,0.01,1.13,
1.394,0.23,0.00,1.08,0.78,-0.03,1.05,
1.394,0.24,0.00,1.07,0.78,-0.03,1.05,
1.396,0.24,0.00,1.08,0.78,-0.03,1.05,
1.398,0.23,0.00,1.07,0.78,-0.03,1.05,
1.398,0.23,0.00,1.07,0.77,-0.11,0.98,
1.401,0.23,-0.00,1.08,0.77,-0.11,0.98,
1.406,0.22,-0.01,1.07,0.77,-0.11,0.98,
1.406,0.22,-0.01,1.07,0.77,-0.11,0.95,
1.407,0.21,-0.00,1.07,0.77,-0.11,0.95,
1.409,0.20,-0.01,1.07,0.77,-0.11,0.95,
1.409,0.20,-0.01,1.07,0.66,-0.17,0.91,
1.411,0.20,-0.00,1.07,0.66,-0.17,0.91,
1.413,0.20,-0.00,1.07,0.48,-0.19,0.87,
1.413,0.19,0.00,1.05,0.48,-0.19,0.87,
1.416,0.18,0.00,1.05,0.48,-0.19,0.87,
1.418,0.17,0.01,1.05,0.48,-0.19,0.87,
1.418,0.17,0.01,1.05,0.39,-0.13,0.77,
1.42,0.16,0.02,1.03,0.39,-0.13,0.77,
1.424,0.16,0.02,1.03,0.39,-0.13,0.77,
1.424,0.16,0.02,1.03,0.21,-0.06,0.67,
1.426,0.15,0.02,1.03,0.21,-0.06,0.67,
1.428,0.15,0.03,1.03,0.21,-0.06,0.67,
1.428,0.15,0.03,1.03,0.07,0.03,0.47,
1.43,0.15,0.03,1.02,0.07,0.03,0.47,
1.434,0.15,0.02,1.02,0.07,0.03,0.47,
1.434,0.15,0.02,1.02,0.00,0.09,0.46,
1.436,0.15,0.03,1.02,0.00,0.09,0.46,
1.439,0.15,0.03,1.02,0.03,0.12,0.36,
1.439,0.14,0.03,1.03,0.03,0.12,0.36,
1.44,0.14,0.03,1.03,0.03,0.12,0.36,
1.444,0.14,0.03,1.03,-0.00,0.18,0.42,
1.444,0.14,0.03,1.03,-0.00,0.18,0.42,
1.447,0.15,0.03,1.04,-0.00,0.18,0.42,
1.448,0.15,0.03,1.04,-0.01,0.17,0.48,
1.449,0.16,0.03,1.04,-0.01,0.17,0.48,
1.451,0.17,0.04,1.05,-0.01,0.17,0.48,
1.454,0.17,0.04,1.05,0.10,0.20,0.57,
1.454,0.18,0.05,1.06,0.10,0.20,0.57,
1.456,0.19,0.05,1.06,0.10,0.20,0.57,
1.458,0.19,0.05,1.07,0.10,0.20,0.57,
1.458,0.19,0.05,1.07,0.26,0.33,0.68,
1.461,0.20,0.04,1.08,0.26,0.33,0.68,
1.463,0.20,0.04,1.08,0.44,0.34,0.85,
1.463,0.21,0.04,1.08,0.44,0.34,0.85,
1.466,0.21,0.05,1.09,0.44,0.34,0.85,
1.468,0.21,0.04,1.10,0.44,0.34,0.85,
1.469,0.21,0.04,1.10,0.58,0.31,0.97,
1.47,0.22,0.04,1.10,0.58,0.31,0.97,
1.473,0.22,0.03,1.09,0.58,0.31,0.97,
1.473,0.22,0.03,1.09,0.66,0.32,1.08,
1.475,0.22,0.03,1.09,0.66,0.32,1.08,
1.478,0.23,0.02,1.09,0.66,0.32,1.08,
1.479,0.23,0.02,1.09,0.70,0.21,1.09,
1.48,0.23,0.01,1.08,0.70,0.21,1.09,
1.483,0.22,-0.00,1.07,0.70,0.21,1.09,
1.483,0.22,-0.00,1.07,0.76,0.09,1.06,
1.486,0.22,-0.00,1.07,0.76,0.09,1.06,
1.495,0.22,-0.00,1.07,0.77,-0.11,0.90,
1.496,0.22,-0.01,1.06,0.77,-0.11,0.90,
1.496,0.21,-0.02,1.05,0.77,-0.11,0.90,
1.496,0.20,-0.02,1.04,0.77,-0.11,0.90,
1.497,0.20,-0.02,1.04,0.71,-0.22,0.76,
1.497,0.19,-0.03,1.03,0.71,-0.22,0.76,
1.498,0.18,-0.03,1.03,0.71,-0.22,0.76,
1.498,0.18,-0.03,1.03,0.59,-0.34,0.63,
1.5,0.17,-0.03,1.02,0.59,-0.34,0.63,
1.503,0.15,-0.03,1.01,0.59,-0.34,0.63,
1.503,0.15,-0.03,1.01,0.42,-0.42,0.45,
1.505,0.14,-0.03,1.01,0.42,-0.42,0.45,
1.508,0.14,-0.03,1.01,0.19,-0.44,0.32,
1.508,0.14,-0.03,1.01,0.19,-0.44,0.32,
1.51,0.13,-0.03,1.00,0.19,-0.44,0.32,
1.513,0.13,-0.03,1.00,-0.01,-0.47,0.23,
1.513,0.12,-0.03,1.00,-0.01,-0.47,0.23,
1.515,0.12,-0.03,1.00,-0.01,-0.47,0.23,
1.518,0.12,-0.03,0.99,-0.01,-0.47,0.23,
1.518,0.12,-0.03,0.99,-0.14,-0.46,0.13,
1.52,0.12,-0.03,0.99,-0.14,-0.46,0.13,
1.523,0.12,-0.03,1.00,-0.14,-0.46,0.13,
1.523,0.12,-0.03,1.00,-0.17,-0.46,0.09,
1.524,0.12,-0.03,1.00,-0.17,-0.46,0.09,
1.528,0.12,-0.03,1.00,-0.17,-0.46,0.09,
1.528,0.12,-0.03,1.00,-0.15,-0.47,0.09,
1.53,0.12,-0.03,1.00,-0.15,-0.47,0.09,
1.533,0.12,-0.03,1.00,-0.15,-0.47,0.09,
1.533,0.12,-0.03,1.00,-0.15,-0.44,0.15,
1.535,0.13,-0.03,1.01,-0.15,-0.44,0.15,
1.538,0.13,-0.03,1.01,-0.12,-0.48,0.17,
1.538,0.14,-0.03,1.00,-0.12,-0.48,0.17,
1.54,0.14,-0.03,1.01,-0.12,-0.48,0.17,
1.542,0.15,-0.03,1.01,-0.12,-0.48,0.17,
1.542,0.15,-0.03,1.01,0.03,-0.49,0.18,
1.545,0.15,-0.03,1.01,0.03,-0.49,0.18,
1.547,0.17,-0.02,1.02,0.03,-0.49,0.18,
1.548,0.17,-0.02,1.02,0.15,-0.49,0.22,
1.55,0.17,-0.02,1.02,0.15,-0.49,0.22,
1.552,0.18,-0.02,1.02,0.15,-0.49,0.22,
1.553,0.18,-0.02,1.02,0.28,-0.44,0.29,
1.554,0.19,-0.01,1.02,0.28,-0.44,0.29,
1.557,0.19,-0.02,1.02,0.28,-0.44,0.29,
1.557,0.19,-0.02,1.02,0.43,-0.41,0.33,
1.56,0.19,-0.01,1.02,0.43,-0.41,0.33,
1.562,0.19,-0.01,1.02,0.53,-0.39,0.33,
1.563,0.20,-0.01,1.01,0.53,-0.39,0.33,
1.565,0.20,-0.01,1.01,0.53,-0.39,0.33,
1.567,0.19,-0.01,1.00,0.53,-0.39,0.33,
1.568,0.19,-0.01,1.00,0.61,-0.40,0.28,
1.57,0.20,-0.01,1.00,0.61,-0.40,0.28,
1.572,0.20,-0.01,0.99,0.61,-0.40,0.28,
1.573,0.20,-0.01,0.99,0.62,-0.40,0.19,
1.574,0.19,-0.02,0.98,0.62,-0.40,0.19,
1.577,0.19,-0.02,0.98,0.63,-0.42,0.08,
1.578,0.19,-0.02,0.97,0.63,-0.42,0.08,
1.58,0.18,-0.02,0.96,0.63,-0.42,0.08,
1.582,0.18,-0.03,0.95,0.63,-0.42,0.08,
1.582,0.18,-0.03,0.95,0.55,-0.50,-0.11,
1.584,0.17,-0.04,0.94,0.55,-0.50,-0.11,
1.587,0.17,-0.04,0.94,0.48,-0.57,-0.29,
1.587,0.17,-0.04,0.93,0.48,-0.57,-0.29,
1.589,0.16,-0.04,0.91,0.48,-0.57,-0.29,
1.592,0.16,-0.05,0.91,0.48,-0.57,-0.29,
1.592,0.16,-0.05,0.91,0.42,-0.70,-0.51,
1.594,0.15,-0.04,0.90,0.42,-0.70,-0.51,
1.597,0.15,-0.04,0.90,0.42,-0.70,-0.51,
1.597,0.15,-0.04,0.90,0.34,-0.78,-0.75,
1.599,0.15,-0.04,0.89,0.34,-0.78,-0.75,
1.602,0.14,-0.04,0.88,0.34,-0.78,-0.75,
1.602,0.14,-0.04,0.88,0.25,-0.76,-0.85,
1.604,0.14,-0.05,0.87,0.25,-0.76,-0.85,
1.609,0.14,-0.04,0.87,0.25,-0.76,-0.85,
1.61,0.14,-0.04,0.87,0.20,-0.81,-0.98,
1.61,0.13,-0.05,0.87,0.20,-0.81,-0.98,
1.611,0.13,-0.05,0.87,0.16,-0.85,-1.16,
1.612,0.12,-0.04,0.87,0.16,-0.85,-1.16,
1.614,0.12,-0.04,0.87,0.16,-0.85,-1.16,
1.617,0.12,-0.04,0.87,0.16,-0.85,-1.16,
1.617,0.12,-0.04,0.87,0.06,-0.83,-1.17,
1.619,0.12,-0.04,0.87,0.06,-0.83,-1.17,
1.623,0.12,-0.03,0.87,0.06,-0.83,-1.17,
1.623,0.12,-0.03,0.87,0.05,-0.78,-1.14,
1.623,0.13,-0.03,0.88,0.05,-0.78,-1.14,
1.627,0.13,-0.03,0.89,0.05,-0.78,-1.14,
1.627,0.13,-0.03,0.89,0.06,-0.74,-1.15,
1.628,0.13,-0.02,0.91,0.06,-0.74,-1.15,
1.631,0.14,-0.02,0.92,0.06,-0.74,-1.15,
1.631,0.14,-0.02,0.92,0.10,-0.65,-0.98,
1.633,0.14,-0.02,0.93,0.10,-0.65,-0.98,
1.636,0.14,-0.02,0.93,0.17,-0.59,-0.72,
1.636,0.15,-0.01,0.94,0.17,-0.59,-0.72,
1.64,0.15,-0.01,0.95,0.17,-0.59,-0.72,
1.641,0.16,-0.01,0.97,0.17,-0.59,-0.72,
1.641,0.16,-0.01,0.97,0.29,-0.53,-0.49,
1.643,0.16,-0.01,0.98,0.29,-0.53,-0.49,
1.646,0.17,-0.01,0.99,0.29,-0.53,-0.49,
1.646,0.17,-0.01,0.99,0.38,-0.49,-0.24,
1.648,0.17,-0.01,1.01,0.38,-0.49,-0.24,
1.652,0.17,-0.02,1.01,0.38,-0.49,-0.24,
1.652,0.17,-0.02,1.01,0.47,-0.47,0.00,
1.654,0.18,-0.02,1.01,0.47,-0.47,0.00,
1.657,0.18,-0.01,1.03,0.47,-0.47,0.00,
1.657,0.18,-0.01,1.03,0.54,-0.53,0.22,
1.658,0.18,-0.02,1.03,0.54,-0.53,0.22,
1.661,0.18,-0.02,1.03,0.58,-0.55,0.34,
1.661,0.18,-0.02,1.03,0.58,-0.55,0.34,
1.663,0.17,-0.02,1.04,0.58,-0.55,0.34,
1.666,0.17,-0.02,1.04,0.56,-0.57,0.44,
1.666,0.17,-0.02,1.03,0.56,-0.57,0.44,
1.668,0.16,-0.03,1.03,0.56,-0.57,0.44,
1.671,0.15,-0.03,1.03,0.56,-0.57,0.44,
1.671,0.15,-0.03,1.03,0.48,-0.60,0.49,
1.674,0.15,-0.03,1.02,0.48,-0.60,0.49,
1.676,0.14,-0.03,1.02,0.48,-0.60,0.49,
1.676,0.14,-0.03,1.02,0.36,-0.67,0.40,
1.678,0.13,-0.03,1.01,0.36,-0.67,0.40,
1.681,0.13,-0.03,1.01,0.23,-0.68,0.34,
1.681,0.12,-0.03,1.00,0.23,-0.68,0.34,
1.683,0.12,-0.03,0.99,0.23,-0.68,0.34,
1.685,0.12,-0.03,0.99,0.12,-0.71,0.18,
1.686,0.10,-0.03,0.98,0.12,-0.71,0.18,
1.688,0.08,-0.03,0.99,0.12,-0.71,0.18,
1.693,0.07,-0.02,0.99,0.12,-0.71,0.18,
1.694,0.07,-0.02,0.99,-0.06,-0.73,-0.01,
1.694,0.06,-0.03,0.99,-0.06,-0.73,-0.01,
1.696,0.07,-0.03,0.99,-0.06,-0.73,-0.01,
1.696,0.07,-0.03,0.99,-0.42,-0.73,0.04,
1.698,0.07,-0.04,0.98,-0.42,-0.73,0.04,
1.7,0.07,-0.04,0.98,-0.42,-0.73,0.04,
1.701,0.07,-0.04,0.98,-0.46,-0.78,0.06,
1.703,0.08,-0.04,0.96,-0.46,-0.78,0.06,
1.705,0.08,-0.06,0.95,-0.46,-0.78,0.06,
1.706,0.08,-0.06,0.95,-0.40,-0.87,-0.05,
1.707,0.07,-0.06,0.94,-0.40,-0.87,-0.05,
1.71,0.07,-0.06,0.94,-0.32,-1.00,-0.30,
1.711,0.06,-0.05,0.94,-0.32,-1.00,-0.30,
1.713,0.06,-0.05,0.93,-0.32,-1.00,-0.30,
1.715,0.05,-0.04,0.92,-0.32,-1.00,-0.30,
1.716,0.05,-0.04,0.92,-0.38,-1.07,-0.45,
1.717,0.05,-0.03,0.91,-0.38,-1.07,-0.45,
1.72,0.04,-0.02,0.91,-0.38,-1.07,-0.45,
1.72,0.04,-0.02,0.91,-0.49,-0.95,-0.57,
1.723,0.03,-0.01,0.91,-0.49,-0.95,-0.57,
1.725,0.03,-0.01,0.91,-0.60,-0.82,-0.73,
1.725,0.02,-0.01,0.90,-0.60,-0.82,-0.73,
1.727,0.02,-0.00,0.90,-0.60,-0.82,-0.73,
1.73,0.02,-0.00,0.90,-0.60,-0.82,-0.73,
1.73,0.02,-0.00,0.90,-0.75,-0.67,-0.80,
1.732,0.01,0.01,0.90,-0.75,-0.67,-0.80,
1.735,0.01,0.01,0.90,-0.83,-0.61,-0.82,
1.735,0.02,0.01,0.90,-0.83,-0.61,-0.82,
1.737,0.02,-0.00,0.90,-0.83,-0.61,-0.82,
1.74,0.03,0.00,0.90,-0.83,-0.61,-0.82,
1.741,0.03,0.00,0.90,-0.84,-0.54,-0.85,
1.742,0.04,-0.01,0.89,-0.84,-0.54,-0.85,
1.745,0.04,-0.01,0.88,-0.84,-0.54,-0.85,
1.745,0.04,-0.01,0.88,-0.73,-0.62,-0.87,
1.747,0.05,-0.01,0.89,-0.73,-0.62,-0.87,
1.75,0.05,-0.01,0.89,-0.73,-0.62,-0.87,
1.75,0.05,-0.01,0.89,-0.62,-0.72,-0.96,
1.752,0.05,-0.01,0.89,-0.62,-0.72,-0.96,
1.755,0.05,-0.00,0.90,-0.62,-0.72,-0.96,
1.755,0.05,-0.00,0.90,-0.49,-0.76,-0.97,
1.758,0.05,0.00,0.90,-0.49,-0.76,-0.97,
1.76,0.05,0.00,0.90,-0.51,-0.70,-0.92,
1.76,0.05,0.01,0.91,-0.51,-0.70,-0.92,
1.762,0.05,0.01,0.91,-0.51,-0.70,-0.92,
1.765,0.05,0.01,0.91,-0.50,-0.61,-0.79,
1.765,0.05,0.01,0.91,-0.50,-0.61,-0.79,
1.767,0.04,0.01,0.92,-0.50,-0.61,-0.79,
1.77,0.04,0.01,0.92,-0.50,-0.61,-0.79,
1.77,0.04,0.01,0.92,-0.55,-0.59,-0.70,
1.773,0.03,0.02,0.93,-0.55,-0.59,-0.70,
1.775,0.03,0.01,0.94,-0.55,-0.59,-0.70,
1.775,0.03,0.01,0.94,-0.60,-0.57,-0.61,
1.777,0.03,0.02,0.94,-0.60,-0.57,-0.61,
1.78,0.03,0.02,0.94,-0.71,-0.53,-0.49,
1.78,0.03,0.02,0.94,-0.71,-0.53,-0.49,
1.782,0.02,0.03,0.94,-0.71,-0.53,-0.49,
1.784,0.02,0.03,0.94,-0.73,-0.47,-0.40,
1.785,0.03,0.02,0.93,-0.73,-0.47,-0.40,
1.787,0.02,0.02,0.94,-0.73,-0.47,-0.40,
1.79,0.02,0.02,0.94,-0.73,-0.47,-0.40,
1.79,0.02,0.02,0.94,-0.80,-0.46,-0.44,
1.792,0.02,0.01,0.93,-0.80,-0.46,-0.44,
1.795,0.01,0.01,0.92,-0.80,-0.46,-0.44,
1.795,0.01,0.01,0.92,-0.81,-0.52,-0.45,
1.797,0.00,0.01,0.92,-0.81,-0.52,-0.45,
1.799,-0.00,0.00,0.91,-0.81,-0.52,-0.45,
1.8,-0.00,0.00,0.91,-0.91,-0.63,-0.55,
1.802,-0.01,-0.00,0.91,-0.91,-0.63,-0.55,
1.804,-0.02,-0.01,0.91,-0.91,-0.63,-0.55,
1.804,-0.02,-0.01,0.91,-1.04,-0.68,-0.68,
1.811,-0.02,-0.01,0.91,-1.04,-0.68,-0.68,
1.811,-0.02,-0.01,0.91,-1.19,-0.78,-0.69,
1.811,-0.03,-0.00,0.90,-1.19,-0.78,-0.69,
1.815,-0.03,-0.00,0.90,-1.19,-0.78,-0.69,
1.815,-0.03,-0.00,0.90,-1.19,-0.78,-0.69,
1.818,-0.03,-0.00,0.90,-1.27,-0.79,-0.77,
1.818,-0.04,-0.00,0.89,-1.27,-0.79,-0.77,
1.819,-0.04,-0.00,0.90,-1.27,-0.79,-0.77,
1.819,-0.04,-0.00,0.90,-1.34,-0.78,-0.83,
1.821,-0.03,-0.01,0.89,-1.34,-0.78,-0.83,
1.825,-0.03,-0.01,0.89,-1.34,-0.78,-0.83,
1.826,-0.03,-0.01,0.89,-1.42,-0.77,-0.84,
1.826,-0.03,-0.02,0.90,-1.42,-0.77,-0.84,
1.829,-0.03,-0.02,0.90,-1.42,-0.77,-0.84,
1.829,-0.03,-0.02,0.90,-1.38,-0.84,-0.88,
1.831,-0.03,-0.02,0.90,-1.38,-0.84,-0.88,
1.834,-0.03,-0.02,0.90,-1.38,-0.95,-0.80,
1.834,-0.03,-0.02,0.91,-1.38,-0.95,-0.80,
1.837,-0.04,-0.01,0.92,-1.38,-0.95,-0.80,
1.841,-0.04,-0.01,0.93,-1.38,-0.95,-0.80,
1.842,-0.04,-0.01,0.93,-1.41,-0.93,-0.70,
1.842,-0.04,-0.00,0.95,-1.41,-0.93,-0.70,
1.844,-0.04,0.00,0.96,-1.41,-0.93,-0.70,
1.845,-0.04,0.00,0.96,-1.48,-0.87,-0.50,
1.847,-0.03,0.00,0.97,-1.48,-0.87,-0.50,
1.85,-0.02,-0.00,0.97,-1.48,-0.87,-0.50,
1.85,-0.02,-0.00,0.97,-1.52,-0.78,-0.25,
1.852,-0.01,-0.01,0.98,-1.52,-0.78,-0.25,
1.855,-0.00,-0.02,0.97,-1.52,-0.78,-0.25,
1.856,-0.00,-0.02,0.97,-1.40,-0.79,-0.06,
1.856,-0.00,-0.02,0.98,-1.40,-0.79,-0.06,
1.86,-0.00,-0.02,0.98,-1.25,-0.93,-0.03,
1.86,-0.01,-0.02,0.98,-1.25,-0.93,-0.03,
1.861,-0.01,-0.02,0.98,-1.25,-0.93,-0.03,
1.865,-0.01,-0.01,0.98,-1.25,-0.93,-0.03,
1.866,-0.01,-0.01,0.98,-1.25,-1.01,0.02,
1.866,-0.02,-0.01,0.98,-1.25,-1.01,0.02,
1.87,-0.02,-0.01,0.98,-1.25,-1.01,0.02,
1.87,-0.02,-0.01,0.98,-1.33,-0.97,0.08,
1.871,-0.03,-0.01,0.98,-1.33,-0.97,0.08,
1.874,-0.04,-0.00,0.98,-1.33,-0.97,0.08,
1.875,-0.04,-0.00,0.98,-1.45,-0.96,0.04,
1.876,-0.04,-0.00,0.98,-1.45,-0.96,0.04,
1.879,-0.04,0.00,0.98,-1.45,-0.96,0.04,
1.879,-0.04,0.00,0.98,-1.60,-0.91,0.06,
1.881,-0.05,-0.00,0.97,-1.60,-0.91,0.06,
1.884,-0.05,-0.00,0.97,-1.70,-0.89,0.04,
1.884,-0.05,-0.01,0.97,-1.70,-0.89,0.04,
1.887,-0.06,-0.00,0.97,-1.70,-0.89,0.04,
1.889,-0.06,-0.00,0.96,-1.70,-0.89,0.04,
1.889,-0.06,-0.00,0.96,-1.75,-0.95,-0.03,
1.891,-0.07,-0.00,0.96,-1.75,-0.95,-0.03,
1.894,-0.08,-0.01,0.96,-1.75,-0.95,-0.03,
1.894,-0.08,-0.01,0.96,-1.86,-0.94,-0.08,
1.897,-0.08,-0.02,0.96,-1.86,-0.94,-0.08,
1.899,-0.08,-0.02,0.96,-1.98,-0.99,-0.14,
1.899,-0.09,-0.02,0.95,-1.98,-0.99,-0.14,
1.901,-0.09,-0.02,0.95,-1.98,-0.99,-0.14,
1.904,-0.10,-0.02,0.95,-1.98,-0.99,-0.14,
1.904,-0.10,-0.02,0.95,-2.12,-1.12,-0.20,
1.906,-0.10,-0.03,0.95,-2.12,-1.12,-0.20,
1.911,-0.10,-0.03,0.95,-2.21,-1.17,-0.25,
1.911,-0.11,-0.03,0.95,-2.21,-1.17,-0.25,
1.911,-0.10,-0.03,0.94,-2.21,-1.17,-0.25,
1.914,-0.11,-0.04,0.93,-2.21,-1.17,-0.25,
1.914,-0.11,-0.04,0.93,-2.31,-1.25,-0.23,
1.916,-0.11,-0.04,0.94,-2.31,-1.25,-0.23,
1.919,-0.11,-0.03,0.93,-2.31,-1.25,-0.23,
1.919,-0.11,-0.03,0.93,-2.34,-1.34,-0.37,
1.921,-0.12,-0.04,0.93,-2.34,-1.34,-0.37,
1.923,-0.12,-0.04,0.93,-2.34,-1.34,-0.37,
1.923,-0.12,-0.04,0.93,-2.41,-1.36,-0.39,
1.926,-0.13,-0.04,0.93,-2.41,-1.36,-0.39,
1.928,-0.13,-0.03,0.93,-2.41,-1.36,-0.39,
1.929,-0.13,-0.03,0.93,-2.47,-1.39,-0.38,
1.931,-0.13,-0.03,0.93,-2.47,-1.39,-0.38,
1.934,-0.13,-0.03,0.93,-2.56,-1.40,-0.41,
1.934,-0.12,-0.03,0.93,-2.56,-1.40,-0.41,
1.936,-0.12,-0.02,0.93,-2.56,-1.40,-0.41,
1.939,-0.13,-0.02,0.92,-2.56,-1.40,-0.41,
1.939,-0.13,-0.02,0.92,-2.56,-1.34,-0.41,
1.941,-0.12,-0.02,0.92,-2.56,-1.34,-0.41,
1.943,-0.12,-0.01,0.93,-2.56,-1.34,-0.41,
1.943,-0.12,-0.01,0.93,-2.54,-1.26,-0.45,
1.946,-0.13,-0.01,0.93,-2.54,-1.26,-0.45,
1.949,-0.12,-0.01,0.92,-2.54,-1.26,-0.45,
1.949,-0.12,-0.01,0.92,-2.51,-1.24,-0.46,
1.951,-0.12,-0.01,0.91,-2.51,-1.24,-0.46,
1.954,-0.12,-0.00,0.91,-2.51,-1.24,-0.46,
1.954,-0.12,-0.00,0.91,-2.54,-1.22,-0.45,
1.956,-0.13,-0.01,0.91,-2.54,-1.22,-0.45,
1.959,-0.13,-0.01,0.91,-2.52,-1.15,-0.60,
1.959,-0.12,-0.00,0.90,-2.52,-1.15,-0.60,
1.96,-0.12,-0.00,0.90,-2.52,-1.15,-0.60,
1.963,-0.12,-0.00,0.90,-2.53,-1.16,-0.61,
1.963,-0.12,0.00,0.90,-2.53,-1.16,-0.61,
1.966,-0.12,0.01,0.90,-2.53,-1.16,-0.61,
1.968,-0.12,0.01,0.90,-2.53,-1.11,-0.67,
1.969,-0.12,0.01,0.90,-2.53,-1.11,-0.67,
1.971,-0.12,0.01,0.89,-2.53,-1.11,-0.67,
1.973,-0.12,0.01,0.89,-2.50,-1.05,-0.72,
1.973,-0.12,0.01,0.89,-2.50,-1.05,-0.72,
1.976,-0.13,0.01,0.89,-2.50,-1.05,-0.72,
1.978,-0.13,0.01,0.89,-2.50,-1.05,-0.72,
1.978,-0.13,0.01,0.89,-2.51,-1.03,-0.76,
1.981,-0.13,0.02,0.88,-2.51,-1.03,-0.76,
1.984,-0.13,0.02,0.88,-2.56,-0.99,-0.76,
1.984,-0.14,0.02,0.88,-2.56,-0.99,-0.76,
1.986,-0.14,0.02,0.88,-2.56,-0.99,-0.76,
1.988,-0.14,0.02,0.88,-2.56,-0.99,-0.76,
1.988,-0.14,0.02,0.88,-2.60,-0.97,-0.88,
1.995,-0.14,0.03,0.88,-2.60,-0.97,-0.88,
1.996,-0.15,0.03,0.87,-2.60,-0.97,-0.88,
1.996,-0.15,0.03,0.87,-2.64,-0.91,-0.90,
1.996,-0.15,0.02,0.87,-2.64,-0.91,-0.90,
1.998,-0.15,0.02,0.87,-2.64,-0.91,-0.90,
1.998,-0.15,0.02,0.87,-2.71,-0.85,-0.92,
2.0,-0.15,0.02,0.87,-2.71,-0.85,-0.92,
2.003,-0.15,0.01,0.87,-2.71,-0.85,-0.92,
2.003,-0.15,0.01,0.87,-2.71,-0.88,-0.94,
2.007,-0.15,0.01,0.87,-2.71,-0.88,-0.94,
2.008,-0.15,0.00,0.86,-2.71,-0.88,-0.94,
2.009,-0.15,0.00,0.86,-2.74,-0.93,-0.99,
2.01,-0.16,-0.00,0.87,-2.74,-0.93,-0.99,
2.012,-0.16,-0.01,0.88,-2.74,-0.93,-0.99,
2.012,-0.16,-0.01,0.88,-2.76,-0.99,-1.03,
2.014,-0.16,-0.01,0.88,-2.76,-0.99,-1.03,
2.017,-0.16,-0.01,0.89,-2.76,-0.99,-1.03,
2.017,-0.16,-0.01,0.89,-2.84,-1.09,-0.94,
2.02,-0.16,-0.01,0.90,-2.84,-1.09,-0.94,
2.025,-0.14,-0.01,0.90,-2.84,-1.09,-0.94,
2.026,-0.14,-0.01,0.90,-2.85,-1.09,-0.85,
2.026,-0.14,-0.01,0.91,-2.85,-1.09,-0.85,
2.027,-0.13,-0.01,0.93,-2.85,-1.09,-0.85,
2.027,-0.13,-0.01,0.93,-2.75,-1.02,-0.68,
2.029,-0.13,-0.01,0.94,-2.75,-1.02,-0.68,
2.033,-0.13,-0.01,0.94,-2.65,-1.00,-0.48,
2.033,-0.13,-0.01,0.96,-2.65,-1.00,-0.48,
2.034,-0.12,-0.01,0.97,-2.65,-1.00,-0.48,
2.038,-0.12,-0.01,0.98,-2.65,-1.00,-0.48,
2.038,-0.12,-0.01,0.98,-2.56,-0.99,-0.21,
2.039,-0.12,-0.00,0.99,-2.56,-0.99,-0.21,
2.042,-0.11,-0.00,1.00,-2.56,-0.99,-0.21,
2.042,-0.11,-0.00,1.00,-2.53,-0.94,0.10,
2.044,-0.12,-0.00,1.02,-2.53,-0.94,0.10,
2.047,-0.11,0.00,1.03,-2.53,-0.94,0.10,
2.047,-0.11,0.00,1.03,-2.49,-0.82,0.24,
2.049,-0.11,0.00,1.03,-2.49,-0.82,0.24,
2.052,-0.10,0.00,1.04,-2.49,-0.82,0.24,
2.052,-0.10,0.00,1.04,-2.50,-0.75,0.53,
2.054,-0.09,0.01,1.05,-2.50,-0.75,0.53,
2.058,-0.09,0.01,1.05,-2.42,-0.68,0.68,
2.058,-0.09,0.01,1.06,-2.42,-0.68,0.68,
2.059,-0.09,0.01,1.06,-2.42,-0.68,0.68,
2.062,-0.08,0.01,1.07,-2.42,-0.68,0.68,
2.062,-0.08,0.01,1.07,-2.30,-0.61,0.86,
2.064,-0.07,0.01,1.07,-2.30,-0.61,0.86,
2.067,-0.07,0.01,1.08,-2.30,-0.61,0.86,
2.067,-0.07,0.01,1.08,-2.23,-0.57,0.94,
2.069,-0.08,0.02,1.08,-2.23,-0.57,0.94,
2.071,-0.07,0.02,1.08,-2.23,-0.57,0.94,
2.072,-0.07,0.02,1.08,-2.15,-0.51,1.04,
2.075,-0.07,0.01,1.09,-2.15,-0.51,1.04,
2.076,-0.07,0.01,1.08,-2.15,-0.51,1.04,
2.077,-0.07,0.01,1.08,-2.15,-0.40,1.09,
2.079,-0.07,0.00,1.08,-2.15,-0.40,1.09,
2.081,-0.07,0.00,1.08,-2.12,-0.47,1.11,
2.082,-0.07,0.00,1.08,-2.12,-0.47,1.11,
2.084,-0.07,-0.00,1.09,-2.12,-0.47,1.11,
2.086,-0.07,-0.01,1.09,-2.12,-0.47,1.11,
2.087,-0.07,-0.01,1.09,-2.13,-0.48,1.07,
2.089,-0.07,-0.01,1.09,-2.13,-0.48,1.07,
2.091,-0.07,-0.01,1.08,-2.13,-0.48,1.07,
2.092,-0.07,-0.01,1.08,-2.15,-0.54,1.13,
2.094,-0.07,-0.02,1.09,-2.15,-0.54,1.13,
2.096,-0.07,-0.02,1.08,-2.15,-0.54,1.13,
2.096,-0.07,-0.02,1.08,-2.17,-0.54,1.13,
2.099,-0.07,-0.03,1.08,-2.17,-0.54,1.13,
2.101,-0.08,-0.03,1.09,-2.17,-0.54,1.13,
2.101,-0.08,-0.03,1.09,-2.18,-0.61,1.13,
2.103,-0.07,-0.04,1.10,-2.18,-0.61,1.13,
2.106,-0.07,-0.04,1.10,-2.21,-0.67,1.12,
2.106,-0.07,-0.05,1.10,-2.21,-0.67,1.12,
2.112,-0.07,-0.04,1.10,-2.21,-0.67,1.12,
2.112,-0.07,-0.04,1.10,-2.21,-0.67,1.12,
2.113,-0.07,-0.04,1.10,-2.21,-0.78,1.25,
2.114,-0.06,-0.04,1.11,-2.21,-0.78,1.25,
2.116,-0.06,-0.04,1.12,-2.21,-0.78,1.25,
2.116,-0.06,-0.04,1.12,-2.15,-0.73,1.27,
2.119,-0.06,-0.03,1.12,-2.15,-0.73,1.27,
2.121,-0.05,-0.03,1.12,-2.15,-0.73,1.27,
2.121,-0.05,-0.03,1.12,-2.12,-0.70,1.38,
2.123,-0.05,-0.03,1.12,-2.12,-0.70,1.38,
2.126,-0.04,-0.02,1.13,-2.12,-0.70,1.38,
2.126,-0.04,-0.02,1.13,-2.03,-0.54,1.48,
2.128,-0.03,-0.01,1.14,-2.03,-0.54,1.48,
2.131,-0.03,-0.01,1.14,-1.93,-0.46,1.53,
2.131,-0.03,-0.01,1.14,-1.93,-0.46,1.53,
2.133,-0.02,-0.01,1.15,-1.93,-0.46,1.53,
2.136,-0.02,-0.01,1.15,-1.93,-0.46,1.53,
2.136,-0.02,-0.01,1.15,-1.82,-0.35,1.61,
2.138,-0.02,-0.01,1.15,-1.82,-0.35,1.61,
2.142,-0.01,-0.00,1.15,-1.82,-0.35,1.61,
2.142,-0.01,-0.00,1.15,-1.75,-0.28,1.73,
2.143,-0.01,-0.00,1.14,-1.75,-0.28,1.73,
2.146,-0.01,-0.00,1.14,-1.67,-0.22,1.70,
2.147,-0.00,-0.01,1.14,-1.67,-0.22,1.70,
2.148,-0.00,-0.01,1.14,-1.67,-0.22,1.70,
2.151,-0.00,-0.00,1.14,-1.67,-0.22,1.70,
2.151,-0.00,-0.00,1.14,-1.58,-0.23,1.66,
2.153,0.01,-0.00,1.14,-1.58,-0.23,1.66,
2.156,0.01,-0.00,1.14,-1.55,-0.19,1.64,
2.156,0.01,-0.01,1.14,-1.55,-0.19,1.64,
2.159,0.00,-0.01,1.14,-1.55,-0.19,1.64,
2.162,0.00,-0.01,1.13,-1.55,-0.19,1.64,
2.162,0.00,-0.01,1.13,-1.48,-0.20,1.60,
2.164,-0.00,-0.01,1.11,-1.48,-0.20,1.60,
2.167,-0.00,-0.01,1.11,-1.48,-0.20,1.60,
2.167,-0.00,-0.01,1.11,-1.51,-0.23,1.54,
2.168,-0.00,-0.01,1.10,-1.51,-0.23,1.54,
2.171,-0.00,-0.01,1.09,-1.51,-0.23,1.54,
2.172,-0.00,-0.01,1.09,-1.55,-0.19,1.34,
2.174,0.00,-0.02,1.08,-1.55,-0.19,1.34,
2.176,-0.00,-0.02,1.08,-1.55,-0.19,1.34,
2.176,-0.00,-0.02,1.08,-1.55,-0.23,1.19,
2.178,-0.01,-0.03,1.07,-1.55,-0.23,1.19,
2.181,-0.01,-0.03,1.07,-1.51,-0.23,1.05,
2.182,-0.01,-0.03,1.08,-1.51,-0.23,1.05,
2.184,-0.01,-0.02,1.09,-1.51,-0.23,1.05,
2.186,-0.01,-0.01,1.09,-1.51,-0.23,1.05,
2.186,-0.01,-0.01,1.09,-1.61,-0.36,1.00,
2.188,-0.01,-0.01,1.09,-1.61,-0.36,1.00,
2.191,-0.01,-0.02,1.08,-1.61,-0.36,1.00,
2.191,-0.01,-0.02,1.08,-1.63,-0.21,1.13,
2.197,0.00,-0.02,1.07,-1.63,-0.21,1.13,
2.197,0.01,-0.04,1.06,-1.63,-0.21,1.13,
2.197,0.01,-0.04,1.06,-1.57,-0.18,1.06,
2.198,0.01,-0.04,1.06,-1.57,-0.18,1.06,
2.201,0.01,-0.04,1.06,-1.43,-0.31,0.90,
2.201,0.01,-0.04,1.05,-1.43,-0.31,0.90,
2.203,0.01,-0.03,1.05,-1.43,-0.31,0.90,
2.206,0.01,-0.03,1.05,-1.33,-0.38,0.78,
2.206,0.00,-0.03,1.05,-1.33,-0.38,0.78,
2.21,-0.00,-0.01,1.06,-1.33,-0.38,0.78,
2.21,-0.00,-0.01,1.07,-1.33,-0.38,0.78,
2.211,-0.00,-0.01,1.07,-1.41,-0.27,0.74,
2.213,-0.00,0.00,1.07,-1.41,-0.27,0.74,
2.216,0.00,0.00,1.08,-1.41,-0.27,0.74,
2.216,0.00,0.00,1.08,-1.47,-0.07,0.88,
2.218,0.01,0.00,1.08,-1.47,-0.07,0.88,
2.221,0.01,0.00,1.08,-1.45,0.07,0.96,
2.221,0.02,0.00,1.08,-1.45,0.07,0.96,
2.223,0.02,0.00,1.08,-1.45,0.07,0.96,
2.226,0.03,-0.00,1.09,-1.45,0.07,0.96,
2.226,0.03,-0.00,1.09,-1.34,0.09,1.01,
2.228,0.04,-0.00,1.08,-1.34,0.09,1.01,
2.23,0.04,-0.00,1.08,-1.21,0.11,1.06,
2.231,0.05,-0.00,1.09,-1.21,0.11,1.06,
2.233,0.06,-0.01,1.09,-1.21,0.11,1.06,
2.236,0.07,-0.00,1.09,-1.21,0.11,1.06,
2.236,0.07,-0.00,1.09,-0.99,0.08,1.07,
2.238,0.07,-0.00,1.09,-0.99,0.08,1.07,
2.241,0.07,0.00,1.09,-0.99,0.08,1.07,
2.241,0.07,0.00,1.09,-0.81,0.10,1.12,
2.243,0.08,0.01,1.09,-0.81,0.10,1.12,
2.245,0.08,0.01,1.09,-0.81,0.10,1.12,
2.245,0.08,0.01,1.09,-0.77,0.17,1.13,
2.248,0.07,0.01,1.09,-0.77,0.17,1.13,
2.251,0.08,0.02,1.09,-0.77,0.17,1.13,
2.251,0.08,0.02,1.09,-0.68,0.28,1.11,
2.253,0.08,0.02,1.09,-0.68,0.28,1.11,
2.255,0.08,0.02,1.09,-0.70,0.34,1.08,
2.256,0.08,0.02,1.09,-0.70,0.34,1.08,
2.258,0.08,0.02,1.09,-0.70,0.34,1.08,
2.26,0.09,0.02,1.08,-0.70,0.34,1.08,
2.261,0.09,0.02,1.08,-0.65,0.39,1.07,
2.262,0.09,0.01,1.08,-0.65,0.39,1.07,
2.266,0.09,0.01,1.08,-0.65,0.39,1.07,
2.266,0.09,0.01,1.08,-0.62,0.43,1.04,
2.267,0.09,0.01,1.08,-0.62,0.43,1.04,
2.27,0.10,0.01,1.09,-0.62,0.43,1.04,
2.271,0.10,0.01,1.09,-0.58,0.36,1.01,
2.273,0.10,0.01,1.08,-0.58,0.36,1.01,
2.277,0.10,0.01,1.08,-0.58,0.36,1.01,
2.278,0.10,0.01,1.08,-0.52,0.35,1.06,
2.278,0.11,0.01,1.08,-0.52,0.35,1.06,
2.28,0.11,0.01,1.08,-0.43,0.36,1.01,
2.28,0.11,0.01,1.09,-0.43,0.36,1.01,
2.283,0.12,0.00,1.09,-0.43,0.36,1.01,
2.284,0.12,0.00,1.11,-0.43,0.36,1.01,
2.285,0.12,0.00,1.11,-0.36,0.39,1.08,
2.287,0.12,0.01,1.11,-0.36,0.39,1.08,
2.289,0.13,0.01,1.12,-0.36,0.39,1.08,
2.29,0.13,0.01,1.12,-0.24,0.34,1.19,
2.294,0.13,0.02,1.13,-0.24,0.34,1.19,
2.295,0.13,0.02,1.14,-0.24,0.34,1.19,
2.295,0.13,0.02,1.14,-0.20,0.41,1.34,
2.297,0.14,0.03,1.14,-0.20,0.41,1.34,
2.299,0.15,0.03,1.14,-0.20,0.41,1.34,
2.3,0.15,0.03,1.14,-0.14,0.52,1.50,
2.302,0.16,0.04,1.14,-0.14,0.52,1.50,
2.304,0.16,0.04,1.14,-0.01,0.62,1.59,
2.305,0.17,0.04,1.15,-0.01,0.62,1.59,
2.307,0.17,0.05,1.16,-0.01,0.62,1.59,
2.316,0.18,0.05,1.16,-0.01,0.62,1.59,
2.319,0.18,0.05,1.16,0.14,0.72,1.66,
2.323,0.18,0.06,1.16,0.14,0.72,1.66,
2.323,0.19,0.06,1.16,0.14,0.72,1.66,
2.323,0.19,0.06,1.16,0.25,0.80,1.76,
2.324,0.20,0.06,1.16,0.25,0.80,1.76,
2.324,0.20,0.07,1.17,0.25,0.80,1.76,
2.324,0.20,0.07,1.17,0.36,0.93,1.78,
2.325,0.20,0.07,1.17,0.36,0.93,1.78,
2.325,0.20,0.07,1.17,0.36,0.93,1.78,
2.325,0.20,0.07,1.17,0.47,1.03,1.82,
2.327,0.20,0.07,1.16,0.47,1.03,1.82,
2.335,0.20,0.07,1.16,0.49,1.08,1.83,
2.335,0.21,0.07,1.16,0.49,1.08,1.83,
2.336,0.21,0.07,1.16,0.49,1.08,1.83,
2.336,0.22,0.06,1.15,0.49,1.08,1.83,
2.336,0.22,0.06,1.15,0.55,1.10,1.78,
2.336,0.22,0.06,1.14,0.55,1.10,1.78,
2.34,0.22,0.05,1.14,0.55,1.10,1.78,
2.34,0.22,0.05,1.14,0.66,1.03,1.68,
2.342,0.21,0.05,1.13,0.66,1.03,1.68,
2.344,0.21,0.05,1.13,0.70,0.94,1.53,
2.345,0.20,0.05,1.13,0.70,0.94,1.53,
2.346,0.20,0.04,1.12,0.70,0.94,1.53,
2.349,0.19,0.03,1.11,0.70,0.94,1.53,
2.349,0.19,0.03,1.11,0.59,0.86,1.47,
2.352,0.19,0.03,1.11,0.59,0.86,1.47,
2.354,0.19,0.03,1.11,0.52,0.73,1.32,
2.355,0.18,0.02,1.12,0.52,0.73,1.32,
2.357,0.17,0.02,1.11,0.52,0.73,1.32,
2.359,0.16,0.01,1.11,0.52,0.73,1.32,
2.359,0.16,0.01,1.11,0.39,0.63,1.28,
2.362,0.16,0.00,1.10,0.39,0.63,1.28,
2.364,0.15,-0.01,1.09,0.39,0.63,1.28,
2.364,0.15,-0.01,1.09,0.25,0.53,1.24,
2.366,0.15,-0.02,1.08,0.25,0.53,1.24,
2.369,0.14,-0.03,1.07,0.25,0.53,1.24,
2.37,0.14,-0.03,1.07,0.17,0.33,1.07,
2.372,0.14,-0.04,1.06,0.17,0.33,1.07,
2.374,0.13,-0.05,1.05,0.17,0.33,1.07,
2.374,0.13,-0.05,1.05,0.06,0.09,0.87,
2.377,0.13,-0.06,1.04,0.06,0.09,0.87,
2.379,0.13,-0.06,1.04,-0.01,-0.11,0.66,
2.379,0.13,-0.06,1.02,-0.01,-0.11,0.66,
2.381,0.13,-0.07,1.02,-0.01,-0.11,0.66,
2.384,0.13,-0.07,1.02,-0.01,-0.11,0.66,
2.384,0.13,-0.07,1.02,-0.06,-0.27,0.45,
2.386,0.13,-0.07,1.01,-0.06,-0.27,0.45,
2.389,0.14,-0.07,1.01,-0.06,-0.27,0.45,
2.39,0.14,-0.07,1.01,-0.02,-0.36,0.34,
2.391,0.14,-0.07,1.01,-0.02,-0.36,0.34,
2.394,0.15,-0.07,1.01,-0.02,-0.36,0.34,
2.395,0.15,-0.07,1.01,0.05,-0.41,0.24,
2.396,0.15,-0.06,1.01,0.05,-0.41,0.24,
2.398,0.17,-0.05,1.01,0.05,-0.41,0.24,
2.399,0.17,-0.05,1.01,0.14,-0.39,0.21,
2.401,0.18,-0.04,1.02,0.14,-0.39,0.21,
2.404,0.18,-0.04,1.02,0.31,-0.26,0.26,
2.404,0.18,-0.03,1.03,0.31,-0.26,0.26,
2.407,0.20,-0.02,1.03,0.31,-0.26,0.26,
2.409,0.20,-0.01,1.04,0.31,-0.26,0.26,
2.409,0.20,-0.01,1.04,0.49,-0.12,0.38,
2.414,0.20,-0.00,1.06,0.49,-0.12,0.38,
2.415,0.21,0.02,1.08,0.49,-0.12,0.38,
2.415,0.21,0.02,1.08,0.65,0.07,0.51,
2.416,0.23,0.04,1.09,0.65,0.07,0.51,
2.418,0.24,0.05,1.10,0.65,0.07,0.51,
2.419,0.24,0.05,1.10,0.74,0.28,0.81,
2.421,0.26,0.05,1.10,0.74,0.28,0.81,
2.424,0.28,0.05,1.10,0.74,0.28,0.81,
2.424,0.28,0.05,1.10,1.02,0.59,1.10,
2.427,0.30,0.04,1.10,1.02,0.59,1.10,
2.429,0.30,0.04,1.10,1.39,0.66,1.14,
2.429,0.32,0.04,1.08,1.39,0.66,1.14,
2.431,0.33,0.04,1.08,1.39,0.66,1.14,
2.433,0.33,0.05,1.08,1.39,0.66,1.14,
2.433,0.33,0.05,1.08,1.78,0.56,1.04,
2.436,0.33,0.06,1.09,1.78,0.56,1.04,
2.439,0.31,0.06,1.09,1.78,0.56,1.04,
2.439,0.31,0.06,1.09,1.97,0.56,0.92,
2.441,0.30,0.08,1.09,1.97,0.56,0.92,
2.444,0.30,0.08,1.09,1.97,0.56,0.92,
2.445,0.30,0.08,1.09,1.86,0.72,1.02,
2.446,0.29,0.08,1.09,1.86,0.72,1.02,
2.448,0.28,0.08,1.08,1.86,0.72,1.02,
2.448,0.28,0.08,1.08,1.68,0.88,1.02,
2.451,0.27,0.08,1.08,1.68,0.88,1.02,
2.453,0.27,0.08,1.08,1.56,0.90,0.96,
2.454,0.27,0.07,1.08,1.56,0.90,0.96,
2.455,0.26,0.06,1.07,1.56,0.90,0.96,
2.459,0.26,0.05,1.07,1.56,0.90,0.96,
2.459,0.26,0.05,1.07,1.40,0.78,0.88,
2.461,0.26,0.03,1.07,1.40,0.78,0.88,
2.463,0.27,0.02,1.06,1.40,0.78,0.88,
2.463,0.27,0.02,1.06,1.36,0.59,0.77,
2.465,0.26,0.01,1.05,1.36,0.59,0.77,
2.468,0.25,0.00,1.05,1.36,0.59,0.77,
2.468,0.25,0.00,1.05,1.38,0.30,0.73,
2.47,0.25,-0.01,1.04,1.38,0.30,0.73,
2.474,0.24,-0.01,1.03,1.38,0.30,0.73,
2.474,0.24,-0.01,1.03,1.34,0.11,0.59,
2.478,0.24,-0.02,1.03,1.34,0.11,0.59,
2.479,0.24,-0.02,1.03,1.22,-0.08,0.46,
2.479,0.24,-0.02,1.02,1.22,-0.08,0.46,
2.481,0.23,-0.02,1.01,1.22,-0.08,0.46,
2.483,0.22,-0.03,1.00,1.22,-0.08,0.46,
2.483,0.22,-0.03,1.00,1.21,-0.21,0.35,
2.485,0.21,-0.04,1.00,1.21,-0.21,0.35,
2.488,0.20,-0.04,0.99,1.21,-0.21,0.35,
2.489,0.20,-0.04,0.99,1.08,-0.30,0.15,
2.49,0.20,-0.04,0.98,1.08,-0.30,0.15,
2.494,0.20,-0.04,0.98,0.89,-0.45,0.02,
2.497,0.20,-0.04,0.97,0.89,-0.45,0.02,
2.497,0.19,-0.04,0.97,0.89,-0.45,0.02,
2.498,0.19,-0.04,0.96,0.89,-0.45,0.02,
2.498,0.19,-0.04,0.96,0.86,-0.47,-0.13,
2.5,0.19,-0.04,0.95,0.86,-0.47,-0.13,
2.503,0.19,-0.04,0.95,0.86,-0.52,-0.25,
2.503,0.18,-0.03,0.95,0.86,-0.52,-0.25,
2.505,0.17,-0.04,0.96,0.86,-0.52,-0.25,
2.508,0.16,-0.03,0.97,0.86,-0.52,-0.25,
2.508,0.16,-0.03,0.97,0.81,-0.49,-0.38,
2.51,0.16,-0.01,0.99,0.81,-0.49,-0.38,
2.513,0.16,-0.00,1.00,0.81,-0.49,-0.38,
2.514,0.16,-0.00,1.00,0.64,-0.50,-0.26,
2.515,0.17,0.01,1.00,0.64,-0.50,-0.26,
2.517,0.18,0.02,1.00,0.64,-0.50,-0.26,
2.518,0.18,0.02,1.00,0.57,-0.28,0.01,
2.52,0.20,0.02,0.99,0.57,-0.28,0.01,
2.523,0.22,0.01,0.97,0.57,-0.28,0.01,
2.523,0.22,0.01,0.97,0.76,-0.12,0.06,
2.525,0.24,-0.00,0.96,0.76,-0.12,0.06,
2.528,0.24,-0.00,0.96,1.13,-0.19,-0.12,
2.528,0.24,-0.01,0.96,1.13,-0.19,-0.12,
2.529,0.25,-0.01,0.96,1.13,-0.19,-0.12,
2.532,0.25,-0.01,0.96,1.45,-0.38,-0.30,
2.532,0.25,0.00,0.96,1.45,-0.38,-0.30,
2.535,0.25,0.01,0.96,1.45,-0.38,-0.30,
2.537,0.25,0.02,0.96,1.45,-0.38,-0.30,
2.538,0.25,0.02,0.96,1.54,-0.40,-0.33,
2.54,0.24,0.04,0.96,1.54,-0.40,-0.33,
2.543,0.24,0.05,0.97,1.54,-0.40,-0.33,
2.543,0.24,0.05,0.97,1.54,-0.24,-0.34,
2.544,0.23,0.06,0.98,1.54,-0.24,-0.34,
2.547,0.23,0.07,0.98,1.54,-0.24,-0.34,
2.547,0.23,0.07,0.98,1.47,-0.00,-0.25,
2.549,0.24,0.08,0.98,1.47,-0.00,-0.25,
2.553,0.24,0.08,0.98,1.44,0.19,-0.15,
2.553,0.25,0.07,0.98,1.44,0.19,-0.15,
2.555,0.25,0.07,0.98,1.44,0.19,-0.15,
2.557,0.25,0.07,0.97,1.44,0.19,-0.15,
2.558,0.25,0.07,0.97,1.52,0.22,-0.10,
2.56,0.25,0.07,0.97,1.52,0.22,-0.10,
2.562,0.25,0.07,0.98,1.52,0.22,-0.10,
2.563,0.25,0.07,0.98,1.59,0.14,-0.16,
2.564,0.24,0.06,0.99,1.59,0.14,-0.16,
2.567,0.24,0.05,0.99,1.59,0.14,-0.16,
2.568,0.24,0.05,0.99,1.64,0.11,-0.13,
2.569,0.23,0.05,1.00,1.64,0.11,-0.13,
2.572,0.22,0.04,1.00,1.64,0.11,-0.13,
2.572,0.22,0.04,1.00,1.52,-0.05,0.00,
2.575,0.22,0.04,1.01,1.52,-0.05,0.00,
2.577,0.22,0.04,1.01,1.41,-0.16,0.06,
2.577,0.21,0.03,1.01,1.41,-0.16,0.06,
2.579,0.21,0.02,1.01,1.41,-0.16,0.06,
2.582,0.21,0.01,1.01,1.41,-0.16,0.06,
2.583,0.21,0.01,1.01,1.30,-0.31,0.15,
2.584,0.21,0.00,1.01,1.30,-0.31,0.15,
2.587,0.21,-0.00,1.02,1.30,-0.31,0.15,
2.587,0.21,-0.00,1.02,1.24,-0.49,0.19,
2.589,0.21,-0.01,1.02,1.24,-0.49,0.19,
2.592,0.21,-0.01,1.02,1.24,-0.49,0.19,
2.592,0.21,-0.01,1.02,1.24,-0.65,0.24,
2.595,0.21,-0.01,1.02,1.24,-0.65,0.24,
2.597,0.20,-0.01,1.02,1.24,-0.65,0.24,
2.597,0.20,-0.01,1.02,1.29,-0.75,0.27,
2.599,0.20,0.00,1.01,1.29,-0.75,0.27,
2.602,0.20,0.00,1.01,1.25,-0.74,0.25,
2.603,0.20,-0.00,1.01,1.25,-0.74,0.25,
2.604,0.19,0.01,1.01,1.25,-0.74,0.25,
2.607,0.20,0.01,1.01,1.25,-0.74,0.25,
2.607,0.20,0.01,1.01,1.19,-0.68,0.19,
2.609,0.19,0.02,0.99,1.19,-0.68,0.19,
2.615,0.19,0.02,0.99,1.19,-0.68,0.19,
2.616,0.19,0.02,0.99,1.19,-0.61,0.15,
2.616,0.19,0.03,0.99,1.19,-0.61,0.15,
2.616,0.18,0.04,0.99,1.19,-0.61,0.15,
2.616,0.18,0.04,0.99,1.17,-0.51,-0.01,
2.62,0.18,0.05,0.98,1.17,-0.51,-0.01,
2.621,0.18,0.05,0.98,1.17,-0.51,-0.01,
2.622,0.18,0.05,0.98,1.17,-0.37,0.00,
2.623,0.17,0.05,0.97,1.17,-0.37,0.00,
2.627,0.17,0.06,0.96,1.17,-0.37,0.00,
2.627,0.17,0.06,0.96,1.14,-0.28,-0.10,
2.629,0.16,0.05,0.96,1.14,-0.28,-0.10,
2.631,0.14,0.04,0.97,1.14,-0.28,-0.10,
2.631,0.14,0.04,0.97,1.11,-0.19,-0.26,
2.633,0.15,0.06,0.99,1.11,-0.19,-0.26,
2.639,0.15,0.06,0.99,1.11,-0.19,-0.26,
2.64,0.15,0.06,0.99,0.95,-0.30,-0.25,
2.64,0.16,0.07,0.99,0.95,-0.30,-0.25,
2.642,0.18,0.06,0.97,0.95,-0.30,-0.25,
2.642,0.18,0.06,0.97,0.98,-0.18,-0.03,
2.643,0.19,0.06,0.96,0.98,-0.18,-0.03,
2.646,0.20,0.04,0.94,0.98,-0.18,-0.03,
2.646,0.20,0.04,0.94,1.25,-0.15,-0.12,
2.648,0.21,0.03,0.94,1.25,-0.15,-0.12,
2.651,0.21,0.03,0.94,1.52,-0.32,-0.41,
2.651,0.21,0.03,0.93,1.52,-0.32,-0.41,
2.653,0.20,0.03,0.93,1.52,-0.32,-0.41,
2.656,0.19,0.04,0.93,1.52,-0.32,-0.41,
2.656,0.19,0.04,0.93,1.70,-0.53,-0.60,
2.658,0.18,0.05,0.93,1.70,-0.53,-0.60,
2.662,0.16,0.06,0.94,1.70,-0.53,-0.60,
2.662,0.16,0.06,0.94,1.56,-0.51,-0.61,
2.664,0.15,0.07,0.93,1.56,-0.51,-0.61,
2.666,0.15,0.07,0.93,1.35,-0.32,-0.58,
2.666,0.13,0.08,0.94,1.35,-0.32,-0.58,
2.668,0.12,0.08,0.95,1.35,-0.32,-0.58,
2.67,0.12,0.08,0.95,1.35,-0.32,-0.58,
2.671,0.12,0.08,0.95,1.09,-0.14,-0.54,
2.673,0.12,0.09,0.95,1.09,-0.14,-0.54,
2.676,0.12,0.09,0.95,0.92,-0.06,-0.43,
2.676,0.12,0.08,0.95,0.92,-0.06,-0.43,
2.678,0.12,0.08,0.96,0.92,-0.06,-0.43,
2.681,0.12,0.07,0.96,0.92,-0.06,-0.43,
2.681,0.12,0.07,0.96,0.91,-0.07,-0.39,
2.683,0.13,0.06,0.96,0.91,-0.07,-0.39,
2.685,0.13,0.06,0.96,0.91,-0.07,-0.39,
2.686,0.13,0.06,0.96,0.93,-0.16,-0.34,
2.688,0.13,0.05,0.96,0.93,-0.16,-0.34,
2.69,0.14,0.05,0.96,0.93,-0.16,-0.34,
2.691,0.14,0.05,0.96,1.02,-0.32,-0.33,
2.693,0.14,0.05,0.96,1.02,-0.32,-0.33,
2.696,0.14,0.04,0.95,1.02,-0.32,-0.33,
2.697,0.14,0.04,0.95,1.07,-0.42,-0.31,
2.698,0.13,0.04,0.95,1.07,-0.42,-0.31,
2.7,0.13,0.04,0.95,1.14,-0.52,-0.35,
2.701,0.13,0.04,0.96,1.14,-0.52,-0.35,
2.703,0.13,0.04,0.95,1.14,-0.52,-0.35,
2.705,0.13,0.05,0.95,1.14,-0.52,-0.35,
2.705,0.13,0.05,0.95,1.06,-0.53,-0.35,
2.707,0.13,0.05,0.95,1.06,-0.53,-0.35,
2.712,0.13,0.06,0.94,1.06,-0.53,-0.35,
2.713,0.13,0.06,0.94,1.06,-0.51,-0.38,
2.713,0.13,0.06,0.94,1.06,-0.51,-0.38,
2.715,0.13,0.06,0.94,1.06,-0.51,-0.38,
2.715,0.13,0.06,0.94,1.06,-0.42,-0.45,
2.717,0.13,0.07,0.94,1.06,-0.42,-0.45,
2.72,0.13,0.07,0.93,1.06,-0.42,-0.45,
2.72,0.13,0.07,0.93,1.08,-0.37,-0.52,
2.722,0.13,0.07,0.93,1.08,-0.37,-0.52,
2.725,0.13,0.07,0.93,1.06,-0.28,-0.57,
2.725,0.13,0.07,0.93,1.06,-0.28,-0.57,
2.728,0.13,0.07,0.93,1.06,-0.28,-0.57,
2.734,0.13,0.07,0.93,1.06,-0.28,-0.57,
2.734,0.13,0.07,0.93,1.04,-0.27,-0.62,
2.735,0.13,0.07,0.93,1.04,-0.27,-0.62,
2.735,0.13,0.08,0.93,1.04,-0.27,-0.62,
2.735,0.13,0.08,0.93,1.05,-0.27,-0.63,
2.737,0.14,0.08,0.93,1.05,-0.27,-0.63,
2.74,0.13,0.08,0.93,1.05,-0.27,-0.63,
2.74,0.13,0.08,0.93,1.11,-0.24,-0.61,
2.742,0.14,0.09,0.94,1.11,-0.24,-0.61,
2.746,0.15,0.09,0.94,1.11,-0.24,-0.61,
2.747,0.15,0.09,0.94,1.13,-0.19,-0.60,
2.747,0.15,0.09,0.95,1.13,-0.19,-0.60,
2.75,0.15,0.09,0.95,1.13,-0.19,-0.60,
2.75,0.15,0.09,0.95,1.21,-0.09,-0.49,
2.752,0.15,0.10,0.95,1.21,-0.09,-0.49,
2.755,0.16,0.10,0.96,1.21,-0.09,-0.49,
2.755,0.16,0.10,0.96,1.31,-0.07,-0.41,
2.757,0.16,0.10,0.96,1.31,-0.07,-0.41,
2.76,0.16,0.10,0.96,1.31,-0.07,-0.41,
2.76,0.16,0.10,0.96,1.29,0.01,-0.36,
2.764,0.17,0.10,0.96,1.29,0.01,-0.36,
2.765,0.17,0.10,0.96,1.39,0.06,-0.29,
2.765,0.16,0.10,0.97,1.39,0.06,-0.29,
2.767,0.17,0.10,0.97,1.39,0.06,-0.29,
2.77,0.17,0.11,0.97,1.39,0.06,-0.29,
2.77,0.17,0.11,0.97,1.40,0.07,-0.22,
2.772,0.17,0.11,0.98,1.40,0.07,-0.22,
2.775,0.17,0.11,0.98,1.43,0.08,-0.21,
2.775,0.16,0.10,0.98,1.43,0.08,-0.21,
2.777,0.16,0.11,0.98,1.43,0.08,-0.21,
2.78,0.16,0.11,0.98,1.43,0.08,-0.21,
2.781,0.16,0.11,0.98,1.38,0.10,-0.13,
2.782,0.16,0.11,0.98,1.38,0.10,-0.13,
2.785,0.15,0.12,0.98,1.38,0.10,-0.13,
2.785,0.15,0.12,0.98,1.33,0.12,-0.09,
2.787,0.15,0.11,0.98,1.33,0.12,-0.09,
2.79,0.15,0.11,0.98,1.26,0.17,-0.09,
2.79,0.15,0.11,0.98,1.26,0.17,-0.09,
2.792,0.14,0.11,0.98,1.26,0.17,-0.09,
2.802,0.14,0.11,0.98,1.26,0.17,-0.09,
2.802,0.14,0.11,0.98,1.20,0.14,-0.10,
2.802,0.14,0.12,0.98,1.20,0.14,-0.10,
2.803,0.13,0.12,0.97,1.20,0.14,-0.10,
2.803,0.13,0.12,0.97,1.13,0.17,-0.12,
2.803,0.13,0.12,0.97,1.13,0.17,-0.12,
2.804,0.13,0.12,0.97,1.13,0.17,-0.12,
2.807,0.13,0.12,0.97,1.06,0.20,-0.15,
2.808,0.12,0.11,0.96,1.06,0.20,-0.15,
2.809,0.12,0.11,0.96,1.06,0.20,-0.15,
2.81,0.12,0.11,0.96,1.01,0.18,-0.19,
2.813,0.12,0.11,0.96,1.01,0.18,-0.19,
2.814,0.12,0.11,0.96,0.91,0.12,-0.30,
2.815,0.13,0.11,0.95,0.91,0.12,-0.30,
2.816,0.13,0.11,0.95,0.91,0.12,-0.30,
2.819,0.13,0.11,0.95,0.93,0.13,-0.36,
2.819,0.12,0.12,0.95,0.93,0.13,-0.36,
2.822,0.12,0.12,0.94,0.93,0.13,-0.36,
2.824,0.12,0.12,0.94,0.93,0.13,-0.36,
2.825,0.12,0.12,0.94,0.93,0.15,-0.40,
2.827,0.12,0.12,0.94,0.93,0.15,-0.40,
2.831,0.12,0.12,0.94,0.93,0.15,-0.40,
2.832,0.12,0.12,0.94,0.89,0.18,-0.48,
2.832,0.12,0.12,0.94,0.89,0.18,-0.48,
2.834,0.11,0.12,0.95,0.89,0.18,-0.48,
2.834,0.11,0.12,0.95,0.90,0.17,-0.49,
2.837,0.11,0.12,0.95,0.90,0.17,-0.49,
2.839,0.11,0.12,0.95,0.86,0.18,-0.46,
2.839,0.11,0.12,0.95,0.86,0.18,-0.46,
2.841,0.11,0.12,0.96,0.86,0.18,-0.46,
2.846,0.11,0.12,0.95,0.86,0.18,-0.46,
2.846,0.11,0.12,0.95,0.80,0.20,-0.42,
2.848,0.10,0.12,0.96,0.80,0.20,-0.42,
2.851,0.11,0.12,0.97,0.80,0.20,-0.42,
2.851,0.11,0.12,0.97,0.75,0.19,-0.35,
2.851,0.10,0.11,0.97,0.75,0.19,-0.35,
2.854,0.11,0.11,0.97,0.75,0.19,-0.35,
2.855,0.11,0.11,0.97,0.74,0.19,-0.27,
2.857,0.11,0.11,0.98,0.74,0.19,-0.27,
2.859,0.10,0.11,0.98,0.74,0.19,-0.27,
2.86,0.10,0.11,0.98,0.73,0.14,-0.20,
2.862,0.11,0.11,0.99,0.73,0.14,-0.20,
2.866,0.11,0.11,0.99,0.72,0.10,-0.10,
2.866,0.11,0.10,0.99,0.72,0.10,-0.10,
2.866,0.10,0.11,0.99,0.72,0.10,-0.10,
2.869,0.10,0.11,1.00,0.72,0.10,-0.10,
2.87,0.10,0.11,1.00,0.72,0.07,-0.02,
2.872,0.09,0.11,1.00,0.72,0.07,-0.02,
2.874,0.09,0.10,1.01,0.72,0.07,-0.02,
2.874,0.09,0.10,1.01,0.69,0.08,0.05,
2.876,0.10,0.10,1.01,0.69,0.08,0.05,
2.879,0.10,0.11,1.01,0.69,0.08,0.05,
2.879,0.10,0.11,1.01,0.58,0.08,0.16,
2.881,0.10,0.10,1.02,0.58,0.08,0.16,
2.884,0.10,0.11,1.02,0.58,0.08,0.16,
2.884,0.10,0.11,1.02,0.63,0.08,0.23,
2.886,0.09,0.10,1.02,0.63,0.08,0.23,
2.889,0.09,0.10,1.02,0.59,0.09,0.29,
2.889,0.09,0.11,1.02,0.59,0.09,0.29,
2.891,0.08,0.10,1.02,0.59,0.09,0.29,
2.894,0.08,0.10,1.03,0.59,0.09,0.29,
2.894,0.08,0.10,1.03,0.52,0.09,0.31,
2.9,0.08,0.10,1.02,0.52,0.09,0.31,
2.9,0.08,0.10,1.02,0.52,0.09,0.31,
2.9,0.08,0.10,1.02,0.45,0.05,0.34,
2.901,0.07,0.09,1.02,0.45,0.05,0.34,
2.904,0.07,0.09,1.02,0.40,0.04,0.31,
2.905,0.07,0.09,1.02,0.40,0.04,0.31,
2.905,0.06,0.09,1.02,0.40,0.04,0.31,
2.909,0.07,0.09,1.01,0.40,0.04,0.31,
2.91,0.07,0.09,1.01,0.34,-0.04,0.26,
2.91,0.06,0.09,1.01,0.34,-0.04,0.26,
2.914,0.06,0.09,1.01,0.28,-0.07,0.25,
2.914,0.06,0.09,1.01,0.28,-0.07,0.25,
2.916,0.06,0.09,1.00,0.28,-0.07,0.25,
2.919,0.05,0.08,1.00,0.28,-0.07,0.25,
2.919,0.05,0.08,1.00,0.25,-0.08,0.21,
2.921,0.05,0.08,1.00,0.25,-0.08,0.21,
2.924,0.05,0.08,0.99,0.25,-0.08,0.21,
2.924,0.05,0.08,0.99,0.18,-0.13,0.11,
2.926,0.05,0.08,0.99,0.18,-0.13,0.11,
2.929,0.05,0.07,0.99,0.18,-0.13,0.11,
2.929,0.05,0.07,0.99,0.12,-0.18,0.05,
2.931,0.04,0.08,0.98,0.12,-0.18,0.05,
2.933,0.04,0.08,0.98,0.12,-0.18,0.05,
2.933,0.04,0.08,0.98,0.10,-0.23,-0.02,
2.936,0.04,0.08,0.98,0.10,-0.23,-0.02,
2.939,0.04,0.08,0.98,0.07,-0.20,-0.09,
2.939,0.04,0.07,0.98,0.07,-0.20,-0.09,
2.941,0.04,0.08,0.98,0.07,-0.20,-0.09,
2.944,0.05,0.08,0.98,0.07,-0.20,-0.09,
2.944,0.05,0.08,0.98,0.07,-0.22,-0.09,
2.947,0.05,0.08,0.98,0.07,-0.22,-0.09,
2.949,0.05,0.08,0.98,0.07,-0.22,-0.09,
2.949,0.05,0.08,0.98,0.08,-0.21,-0.09,
2.95,0.05,0.08,0.98,0.08,-0.21,-0.09,
2.954,0.05,0.08,0.98,0.11,-0.18,-0.09,
2.954,0.05,0.08,0.99,0.11,-0.18,-0.09,
2.956,0.06,0.09,0.99,0.11,-0.18,-0.09,
2.958,0.06,0.09,0.99,0.11,-0.18,-0.09,
2.959,0.06,0.09,0.99,0.15,-0.15,-0.05,
2.961,0.06,0.09,0.99,0.15,-0.15,-0.05,
2.964,0.06,0.09,0.99,0.20,-0.13,0.04,
2.965,0.06,0.09,1.00,0.20,-0.13,0.04,
2.965,0.07,0.09,1.00,0.20,-0.13,0.04,
2.968,0.07,0.09,1.00,0.20,-0.13,0.04,
2.969,0.07,0.09,1.00,0.22,-0.12,0.05,
2.971,0.07,0.10,1.00,0.22,-0.12,0.05,
2.973,0.07,0.10,1.00,0.29,-0.06,0.11,
2.973,0.08,0.10,1.00,0.29,-0.06,0.11,
2.976,0.07,0.10,1.01,0.29,-0.06,0.11,
2.978,0.07,0.10,1.01,0.32,0.00,0.11,
2.978,0.08,0.11,1.01,0.32,0.00,0.11,
2.981,0.08,0.11,1.01,0.32,0.00,0.11,
2.982,0.08,0.11,1.02,0.32,0.00,0.11,
2.983,0.08,0.11,1.02,0.34,0.03,0.20,
2.985,0.08,0.11,1.02,0.34,0.03,0.20,
2.988,0.08,0.11,1.02,0.38,0.10,0.23,
2.988,0.08,0.11,1.02,0.38,0.10,0.23,
2.99,0.08,0.12,1.01,0.38,0.10,0.23,
2.992,0.08,0.12,1.02,0.38,0.10,0.23,
2.992,0.08,0.12,1.02,0.37,0.14,0.26,
2.995,0.08,0.12,1.01,0.37,0.14,0.26,
2.997,0.07,0.12,1.01,0.37,0.14,0.26,
2.997,0.07,0.12,1.01,0.35,0.17,0.25,
3.0,0.07,0.11,1.01,0.35,0.17,0.25,
3.002,0.07,0.12,1.00,0.35,0.17,0.25,
3.002,0.07,0.12,1.00,0.33,0.17,0.21,
3.004,0.07,0.12,1.01,0.33,0.17,0.21,
3.007,0.06,0.11,0.97,0.33,0.17,0.21,
3.007,0.06,0.11,0.97,0.26,0.17,0.17,
3.009,0.05,0.12,0.88,0.26,0.17,0.17,
3.012,0.05,0.12,0.88,0.22,0.15,-0.04,
3.012,0.09,0.14,0.81,0.22,0.15,-0.04,
3.018,0.10,0.14,0.82,0.22,0.15,-0.04,
3.018,0.09,0.12,0.88,0.22,0.15,-0.04,
3.019,0.09,0.12,0.88,0.29,0.31,-1.42,
3.022,0.08,0.12,0.93,0.29,0.31,-1.42,
3.023,0.07,0.11,0.95,0.29,0.31,-1.42,
3.023,0.07,0.11,0.95,0.56,0.31,-1.34,
3.024,0.05,0.11,0.95,0.56,0.31,-1.34,
3.028,0.04,0.11,0.94,0.56,0.31,-1.34,
3.028,0.04,0.11,0.94,0.34,0.18,-0.49,
3.031,0.03,0.11,0.93,0.34,0.18,-0.49,
3.034,0.03,0.12,0.93,0.34,0.18,-0.49,
3.034,0.03,0.12,0.93,0.11,0.15,-0.40,
3.035,0.02,0.12,0.93,0.11,0.15,-0.40,
3.041,0.02,0.12,0.93,-0.06,0.20,-0.56,
3.041,0.02,0.12,0.95,-0.06,0.20,-0.56,
3.041,0.03,0.12,0.97,-0.06,0.20,-0.56,
3.042,0.03,0.11,0.99,-0.06,0.20,-0.56,
3.042,0.03,0.11,0.99,-0.14,0.25,-0.43,
3.044,0.04,0.10,1.01,-0.14,0.25,-0.43,
3.054,0.05,0.10,1.03,-0.14,0.25,-0.43,
3.054,0.05,0.10,1.03,-0.08,0.19,-0.04,
3.055,0.05,0.09,1.05,-0.08,0.19,-0.04,
3.055,0.06,0.09,1.05,-0.08,0.19,-0.04,
3.055,0.06,0.09,1.05,0.07,0.11,0.30,
3.055,0.06,0.08,1.07,0.07,0.11,0.30,
3.057,0.07,0.08,1.08,0.07,0.11,0.30,
3.058,0.07,0.08,1.08,0.18,0.01,0.59,
3.059,0.06,0.08,1.10,0.18,0.01,0.59,
3.062,0.06,0.08,1.10,0.23,-0.05,0.82,
3.062,0.06,0.08,1.11,0.23,-0.05,0.82,
3.071,0.06,0.08,1.12,0.23,-0.05,0.82,
3.071,0.07,0.08,1.12,0.23,-0.05,0.82,
3.071,0.07,0.08,1.12,0.20,-0.07,1.10,
3.072,0.07,0.08,1.12,0.20,-0.07,1.10,
3.072,0.07,0.08,1.12,0.20,-0.07,1.10,
3.072,0.07,0.08,1.12,0.23,-0.05,1.29,
3.075,0.08,0.08,1.12,0.23,-0.05,1.29,
3.076,0.07,0.08,1.11,0.23,-0.05,1.29,
3.077,0.07,0.08,1.11,0.30,-0.08,1.24,
3.08,0.07,0.08,1.10,0.30,-0.08,1.24,
3.085,0.08,0.08,1.08,0.30,-0.08,1.24,
3.085,0.08,0.08,1.08,0.30,-0.09,1.15,
3.086,0.08,0.08,1.07,0.30,-0.09,1.15,
3.087,0.08,0.08,1.07,0.30,-0.10,0.94,
3.087,0.07,0.08,1.06,0.30,-0.10,0.94,
3.089,0.07,0.09,1.05,0.30,-0.10,0.94,
3.092,0.07,0.09,1.04,0.30,-0.10,0.94,
3.092,0.07,0.09,1.04,0.30,-0.09,0.71,
3.094,0.07,0.09,1.02,0.30,-0.09,0.71,
3.102,0.07,0.09,1.02,0.29,-0.05,0.46,
3.102,0.08,0.09,1.01,0.29,-0.05,0.46,
3.102,0.07,0.10,1.00,0.29,-0.05,0.46,
3.103,0.07,0.11,0.98,0.29,-0.05,0.46,
3.103,0.07,0.11,0.98,0.30,-0.03,0.20,
