
time,gFx,gFy,gFz,ax,ay,az,
0.002,-0.04,0.18,1.00,-0.14,-0.52,0.08,
0.003,-0.05,0.18,1.00,-0.14,-0.52,0.08,
0.003,-0.05,0.18,1.00,-0.32,-0.35,0.07,
0.003,-0.04,0.18,0.99,-0.32,-0.35,0.07,
0.003,-0.05,0.19,0.99,-0.32,-0.35,0.07,
0.003,-0.05,0.19,0.99,-0.40,-0.18,-0.03,
0.006,-0.05,0.19,0.98,-0.40,-0.18,-0.03,
0.009,-0.05,0.19,0.98,-0.42,-0.14,-0.07,
0.009,-0.04,0.19,0.98,-0.42,-0.14,-0.07,
0.013,-0.05,0.19,0.99,-0.42,-0.14,-0.07,
0.013,-0.04,0.19,0.98,-0.42,-0.14,-0.07,
0.014,-0.04,0.19,0.98,-0.38,-0.09,-0.14,
0.015,-0.03,0.19,0.98,-0.38,-0.09,-0.14,
0.019,-0.03,0.19,0.97,-0.38,-0.09,-0.14,
0.019,-0.03,0.19,0.97,-0.37,-0.07,-0.11,
0.021,0.03,0.19,0.93,-0.37,-0.07,-0.11,
0.024,0.09,0.19,0.87,-0.37,-0.07,-0.11,
0.024,0.09,0.19,0.87,-0.20,-0.10,-0.21,
0.026,0.08,0.18,0.88,-0.20,-0.10,-0.21,
0.031,0.12,0.17,0.80,-0.20,-0.10,-0.21,
0.031,0.12,0.17,0.80,0.69,-0.10,-0.96,
0.031,0.12,0.14,0.76,0.69,-0.10,-0.96,
0.033,0.12,0.14,0.76,1.06,-0.24,-1.52,
0.034,0.09,0.13,0.79,1.06,-0.24,-1.52,
0.036,0.06,0.16,0.81,1.06,-0.24,-1.52,
0.039,0.03,0.19,0.83,1.06,-0.24,-1.52,
0.039,0.03,0.19,0.83,1.13,-0.59,-2.14,
0.041,0.01,0.21,0.84,1.13,-0.59,-2.14,
0.05,-0.01,0.24,0.86,1.13,-0.59,-2.14,
0.05,-0.01,0.24,0.86,0.55,-0.20,-1.70,
0.051,-0.03,0.25,0.88,0.55,-0.20,-1.70,
0.051,-0.02,0.25,0.89,0.55,-0.20,-1.70,
0.051,-0.02,0.25,0.89,0.10,0.31,-1.38,
0.051,-0.02,0.25,0.90,0.10,0.31,-1.38,
0.053,-0.02,0.25,0.91,0.10,0.31,-1.38,
0.053,-0.02,0.25,0.91,-0.11,0.58,-1.03,
0.055,-0.01,0.23,0.92,-0.11,0.58,-1.03,
0.058,-0.01,0.23,0.92,-0.07,0.55,-0.81,
0.058,0.00,0.22,0.94,-0.07,0.55,-0.81,
0.062,0.02,0.22,0.95,-0.07,0.55,-0.81,
0.063,0.02,0.21,0.96,-0.07,0.55,-0.81,
0.063,0.02,0.21,0.96,0.13,0.35,-0.56,
0.066,0.03,0.21,0.96,0.13,0.35,-0.56,
0.068,0.04,0.21,0.98,0.13,0.35,-0.56,
0.069,0.04,0.21,0.98,0.35,0.24,-0.38,
0.071,0.05,0.21,0.98,0.35,0.24,-0.38,
0.073,0.05,0.21,0.99,0.35,0.24,-0.38,
0.074,0.05,0.21,0.99,0.50,0.17,-0.21,
0.076,0.05,0.22,1.00,0.50,0.17,-0.21,
0.078,0.05,0.23,1.00,0.50,0.17,-0.21,
0.079,0.05,0.23,1.00,0.62,0.22,-0.08,
0.081,0.05,0.24,1.01,0.62,0.22,-0.08,
0.083,0.05,0.24,1.01,0.59,0.35,0.06,
0.084,0.05,0.24,1.01,0.59,0.35,0.06,
0.085,0.05,0.24,1.01,0.59,0.35,0.06,
0.088,0.05,0.24,1.02,0.59,0.35,0.06,
0.089,0.05,0.24,1.02,0.59,0.47,0.19,
0.09,0.05,0.24,1.02,0.59,0.47,0.19,
0.093,0.05,0.23,1.02,0.59,0.47,0.19,
0.093,0.05,0.23,1.02,0.57,0.50,0.26,
0.095,0.05,0.22,1.02,0.57,0.50,0.26,
0.098,0.05,0.22,1.02,0.57,0.50,0.26,
0.098,0.05,0.22,1.02,0.55,0.44,0.29,
0.1,0.05,0.21,1.01,0.55,0.44,0.29,
0.104,0.05,0.20,1.01,0.55,0.44,0.29,
0.104,0.05,0.20,1.01,0.56,0.31,0.26,
0.104,0.05,0.20,1.01,0.56,0.31,0.26,
0.108,0.05,0.20,1.01,0.55,0.15,0.16,
0.108,0.05,0.19,1.00,0.55,0.15,0.16,
0.112,0.04,0.18,0.99,0.55,0.15,0.16,
0.114,0.04,0.18,0.98,0.55,0.15,0.16,
0.114,0.04,0.18,0.98,0.59,0.01,0.10,
0.114,0.04,0.18,0.98,0.59,0.01,0.10,
0.118,0.03,0.17,0.98,0.59,0.01,0.10,
0.118,0.03,0.17,0.98,0.49,-0.13,-0.02,
0.12,0.03,0.17,0.98,0.49,-0.13,-0.02,
0.123,0.02,0.17,0.97,0.49,-0.13,-0.02,
0.123,0.02,0.17,0.97,0.39,-0.19,-0.13,
0.125,0.02,0.17,0.97,0.39,-0.19,-0.13,
0.128,0.01,0.17,0.96,0.39,-0.19,-0.13,
0.129,0.01,0.17,0.96,0.31,-0.25,-0.19,
0.131,0.00,0.16,0.97,0.31,-0.25,-0.19,
0.133,0.00,0.16,0.97,0.21,-0.26,-0.26,
0.133,0.00,0.16,0.97,0.21,-0.26,-0.26,
0.136,0.00,0.16,0.96,0.21,-0.26,-0.26,
0.138,0.00,0.16,0.96,0.21,-0.26,-0.26,
0.138,0.00,0.16,0.96,0.10,-0.28,-0.24,
0.141,-0.00,0.16,0.96,0.10,-0.28,-0.24,
0.143,-0.00,0.16,0.96,0.10,-0.28,-0.24,
0.143,-0.00,0.16,0.96,0.08,-0.32,-0.26,
0.147,-0.00,0.15,0.96,0.08,-0.32,-0.26,
0.147,0.00,0.15,0.96,0.08,-0.32,-0.26,
0.147,0.00,0.15,0.96,0.06,-0.34,-0.28,
0.15,0.00,0.15,0.96,0.06,-0.34,-0.28,
0.152,0.00,0.15,0.97,0.06,-0.34,-0.28,
0.152,0.00,0.15,0.97,0.07,-0.41,-0.27,
0.155,0.00,0.14,0.97,0.07,-0.41,-0.27,
0.158,0.00,0.14,0.97,0.11,-0.42,-0.25,
0.158,-0.00,0.15,0.97,0.11,-0.42,-0.25,
0.168,0.00,0.15,0.97,0.11,-0.42,-0.25,
0.172,-0.00,0.15,0.98,0.11,-0.42,-0.25,
0.173,-0.00,0.15,0.98,0.08,-0.46,-0.22,
0.173,0.00,0.15,0.97,0.08,-0.46,-0.22,
0.173,-0.00,0.15,0.98,0.08,-0.46,-0.22,
0.174,-0.00,0.15,0.98,0.06,-0.42,-0.14,
0.174,-0.00,0.16,0.99,0.06,-0.42,-0.14,
0.174,0.01,0.17,0.98,0.06,-0.42,-0.14,
0.175,0.01,0.17,0.98,0.06,-0.37,-0.11,
0.175,0.01,0.17,0.98,0.06,-0.37,-0.11,
0.186,0.01,0.18,0.99,0.06,-0.37,-0.11,
0.187,0.01,0.18,0.99,0.08,-0.26,-0.05,
0.187,0.01,0.18,0.99,0.08,-0.26,-0.05,
0.187,0.01,0.18,0.99,0.12,-0.15,-0.03,
0.188,0.02,0.19,0.99,0.12,-0.15,-0.03,
0.188,0.02,0.19,0.99,0.12,-0.15,-0.03,
0.188,0.03,0.20,0.99,0.12,-0.15,-0.03,
0.188,0.03,0.20,0.99,0.20,-0.05,0.01,
0.189,0.03,0.20,0.98,0.20,-0.05,0.01,
0.192,0.04,0.21,0.98,0.20,-0.05,0.01,
0.192,0.04,0.21,0.98,0.29,0.08,-0.02,
0.194,0.04,0.21,0.98,0.29,0.08,-0.02,
0.197,0.05,0.22,0.98,0.29,0.08,-0.02,
0.197,0.05,0.22,0.98,0.39,0.15,-0.07,
0.199,0.05,0.22,0.97,0.39,0.15,-0.07,
0.202,0.06,0.22,0.97,0.39,0.15,-0.07,
0.202,0.06,0.22,0.97,0.49,0.22,-0.09,
0.204,0.06,0.22,0.97,0.49,0.22,-0.09,
0.207,0.06,0.22,0.97,0.57,0.29,-0.15,
0.207,0.06,0.23,0.96,0.57,0.29,-0.15,
0.209,0.07,0.23,0.96,0.57,0.29,-0.15,
0.212,0.07,0.23,0.96,0.63,0.34,-0.22,
0.213,0.07,0.23,0.96,0.63,0.34,-0.22,
0.215,0.08,0.23,0.96,0.63,0.34,-0.22,
0.217,0.08,0.23,0.96,0.63,0.34,-0.22,
0.217,0.08,0.23,0.96,0.73,0.40,-0.26,
0.22,0.08,0.23,0.97,0.73,0.40,-0.26,
0.222,0.08,0.23,0.96,0.73,0.40,-0.26,
0.223,0.08,0.23,0.96,0.79,0.41,-0.24,
0.224,0.09,0.23,0.96,0.79,0.41,-0.24,
0.227,0.09,0.23,0.97,0.79,0.41,-0.24,
0.227,0.09,0.23,0.97,0.81,0.40,-0.25,
0.23,0.08,0.23,0.97,0.81,0.40,-0.25,
0.232,0.08,0.23,0.97,0.88,0.38,-0.22,
0.232,0.09,0.22,0.97,0.88,0.38,-0.22,
0.234,0.08,0.22,0.97,0.88,0.38,-0.22,
0.237,0.08,0.22,0.97,0.86,0.31,-0.18,
0.237,0.09,0.22,0.97,0.86,0.31,-0.18,
0.239,0.08,0.22,0.97,0.86,0.31,-0.18,
0.242,0.08,0.22,0.97,0.86,0.31,-0.18,
0.242,0.08,0.22,0.97,0.88,0.30,-0.18,
0.245,0.08,0.22,0.98,0.88,0.30,-0.18,
0.247,0.08,0.22,0.98,0.88,0.30,-0.18,
0.247,0.08,0.22,0.98,0.84,0.28,-0.18,
0.249,0.07,0.22,0.98,0.84,0.28,-0.18,
0.252,0.07,0.23,0.99,0.84,0.28,-0.18,
0.252,0.07,0.23,0.99,0.82,0.32,-0.11,
0.254,0.07,0.23,0.99,0.82,0.32,-0.11,
0.257,0.07,0.23,0.99,0.75,0.36,-0.03,
0.257,0.06,0.23,0.99,0.75,0.36,-0.03,
0.259,0.06,0.23,0.99,0.75,0.36,-0.03,
0.268,0.06,0.23,0.99,0.75,0.36,-0.03,
0.269,0.06,0.23,0.99,0.65,0.38,0.02,
0.269,0.05,0.23,1.00,0.65,0.38,0.02,
0.269,0.05,0.23,0.99,0.65,0.38,0.02,
0.27,0.05,0.23,0.99,0.62,0.38,0.03,
0.27,0.05,0.23,0.99,0.62,0.38,0.03,
0.274,0.05,0.23,0.99,0.62,0.38,0.03,
0.274,0.05,0.23,0.99,0.54,0.40,0.06,
0.274,0.04,0.23,0.99,0.54,0.40,0.06,
0.276,0.04,0.23,0.98,0.54,0.40,0.06,
0.276,0.04,0.23,0.98,0.51,0.37,0.06,
0.28,0.04,0.22,0.98,0.51,0.37,0.06,
0.281,0.04,0.22,0.98,0.46,0.36,-0.04,
0.281,0.04,0.23,0.97,0.46,0.36,-0.04,
0.283,0.05,0.23,0.97,0.46,0.36,-0.04,
0.286,0.05,0.23,0.97,0.46,0.33,-0.11,
0.287,0.05,0.23,0.97,0.46,0.33,-0.11,
0.289,0.05,0.23,0.96,0.46,0.33,-0.11,
0.291,0.05,0.23,0.95,0.46,0.33,-0.11,
0.292,0.05,0.23,0.95,0.50,0.34,-0.20,
0.294,0.05,0.22,0.95,0.50,0.34,-0.20,
0.296,0.06,0.22,0.94,0.50,0.34,-0.20,
0.297,0.06,0.22,0.94,0.54,0.32,-0.31,
0.299,0.07,0.22,0.93,0.54,0.32,-0.31,
0.301,0.07,0.22,0.92,0.54,0.32,-0.31,
0.301,0.07,0.22,0.92,0.59,0.29,-0.44,
0.303,0.08,0.22,0.92,0.59,0.29,-0.44,
0.306,0.08,0.22,0.92,0.69,0.24,-0.58,
0.306,0.08,0.21,0.92,0.69,0.24,-0.58,
0.308,0.09,0.21,0.91,0.69,0.24,-0.58,
0.311,0.09,0.20,0.91,0.69,0.24,-0.58,
0.311,0.09,0.20,0.91,0.78,0.19,-0.63,
0.314,0.09,0.21,0.91,0.78,0.19,-0.63,
0.317,0.10,0.20,0.91,0.78,0.19,-0.63,
0.317,0.10,0.20,0.91,0.86,0.10,-0.70,
0.317,0.10,0.19,0.91,0.86,0.10,-0.70,
0.321,0.09,0.19,0.91,0.86,0.10,-0.70,
0.322,0.09,0.19,0.91,0.94,0.08,-0.73,
0.323,0.09,0.19,0.91,0.94,0.08,-0.73,
0.325,0.09,0.19,0.91,0.94,0.08,-0.73,
0.328,0.09,0.19,0.91,0.92,-0.06,-0.71,
0.329,0.09,0.18,0.91,0.92,-0.06,-0.71,
0.332,0.09,0.18,0.91,0.92,-0.10,-0.69,
0.333,0.08,0.18,0.91,0.92,-0.10,-0.69,
0.334,0.09,0.18,0.90,0.92,-0.10,-0.69,
0.335,0.08,0.17,0.91,0.92,-0.10,-0.69,
0.336,0.08,0.17,0.91,0.87,-0.17,-0.73,
0.337,0.08,0.17,0.91,0.87,-0.17,-0.73,
0.34,0.08,0.17,0.90,0.87,-0.17,-0.73,
0.34,0.08,0.17,0.90,0.84,-0.20,-0.76,
0.343,0.08,0.16,0.90,0.84,-0.20,-0.76,
0.346,0.08,0.16,0.90,0.77,-0.25,-0.79,
0.347,0.08,0.16,0.89,0.77,-0.25,-0.79,
0.348,0.08,0.16,0.88,0.77,-0.25,-0.79,
0.35,0.07,0.16,0.87,0.77,-0.25,-0.79,
0.351,0.07,0.16,0.87,0.77,-0.34,-0.90,
0.352,0.07,0.15,0.87,0.77,-0.34,-0.90,
0.355,0.07,0.15,0.87,0.76,-0.40,-1.07,
0.355,0.07,0.15,0.86,0.76,-0.40,-1.07,
0.357,0.07,0.15,0.85,0.76,-0.40,-1.07,
0.36,0.07,0.15,0.84,0.76,-0.40,-1.07,
0.36,0.07,0.15,0.84,0.72,-0.47,-1.16,
0.365,0.06,0.15,0.83,0.72,-0.47,-1.16,
0.366,0.06,0.16,0.82,0.72,-0.47,-1.16,
0.366,0.06,0.16,0.82,0.71,-0.50,-1.36,
0.368,0.06,0.16,0.82,0.71,-0.50,-1.36,
0.37,0.06,0.17,0.81,0.71,-0.50,-1.36,
0.37,0.06,0.17,0.81,0.63,-0.47,-1.54,
0.372,0.06,0.18,0.80,0.63,-0.47,-1.54,
0.374,0.06,0.19,0.80,0.63,-0.47,-1.54,
0.375,0.06,0.19,0.80,0.60,-0.37,-1.63,
0.377,0.07,0.19,0.79,0.60,-0.37,-1.63,
0.381,0.07,0.19,0.79,0.62,-0.19,-1.80,
0.382,0.07,0.20,0.79,0.62,-0.19,-1.80,
0.382,0.08,0.21,0.78,0.62,-0.19,-1.80,
0.385,0.08,0.21,0.78,0.67,-0.10,-1.86,
0.386,0.08,0.22,0.77,0.67,-0.10,-1.86,
0.387,0.09,0.22,0.77,0.67,-0.10,-1.86,
0.39,0.10,0.22,0.77,0.67,-0.10,-1.86,
0.39,0.10,0.22,0.77,0.77,0.04,-2.00,
0.392,0.11,0.23,0.76,0.77,0.04,-2.00,
0.394,0.12,0.23,0.76,0.77,0.04,-2.00,
0.394,0.12,0.23,0.76,0.96,0.09,-2.04,
0.397,0.12,0.23,0.76,0.96,0.09,-2.04,
0.4,0.12,0.22,0.76,0.96,0.09,-2.04,
0.4,0.12,0.22,0.76,1.11,0.18,-2.09,
0.402,0.13,0.23,0.76,1.11,0.18,-2.09,
0.405,0.13,0.23,0.76,1.20,0.15,-2.16,
0.405,0.14,0.23,0.75,1.20,0.15,-2.16,
0.407,0.14,0.23,0.74,1.20,0.15,-2.16,
0.41,0.14,0.23,0.74,1.20,0.15,-2.16,
0.41,0.14,0.23,0.74,1.28,0.13,-2.17,
0.411,0.15,0.23,0.74,1.28,0.13,-2.17,
0.415,0.15,0.23,0.74,1.35,0.12,-2.29,
0.415,0.14,0.23,0.74,1.35,0.12,-2.29,
0.417,0.14,0.23,0.74,1.35,0.12,-2.29,
0.419,0.15,0.23,0.74,1.35,0.12,-2.29,
0.42,0.15,0.23,0.74,1.41,0.14,-2.30,
0.423,0.15,0.22,0.75,1.41,0.14,-2.30,
0.425,0.15,0.22,0.75,1.41,0.14,-2.30,
0.425,0.15,0.22,0.75,1.41,0.14,-2.32,
0.427,0.15,0.22,0.75,1.41,0.14,-2.32,
0.431,0.15,0.22,0.75,1.47,0.06,-2.24,
0.431,0.15,0.21,0.75,1.47,0.06,-2.24,
0.432,0.14,0.22,0.76,1.47,0.06,-2.24,
0.435,0.14,0.21,0.76,1.47,0.06,-2.24,
0.435,0.14,0.21,0.76,1.44,-0.01,-2.20,
0.437,0.13,0.21,0.77,1.44,-0.01,-2.20,
0.44,0.13,0.21,0.77,1.44,-0.01,-2.20,
0.44,0.13,0.21,0.77,1.37,0.03,-2.12,
0.442,0.13,0.21,0.78,1.37,0.03,-2.12,
0.445,0.13,0.22,0.78,1.37,0.03,-2.12,
0.445,0.13,0.22,0.78,1.34,0.02,-2.03,
0.448,0.12,0.22,0.79,1.34,0.02,-2.03,
0.45,0.11,0.22,0.80,1.34,0.02,-2.03,
0.45,0.11,0.22,0.80,1.28,0.05,-1.93,
0.451,0.11,0.22,0.81,1.28,0.05,-1.93,
0.455,0.11,0.22,0.81,1.21,0.07,-1.80,
0.455,0.10,0.21,0.82,1.21,0.07,-1.80,
0.457,0.10,0.21,0.82,1.21,0.07,-1.80,
0.46,0.10,0.21,0.82,1.21,0.07,-1.80,
0.46,0.10,0.21,0.82,1.06,0.09,-1.57,
0.463,0.10,0.21,0.82,1.06,0.09,-1.57,
0.465,0.10,0.21,0.82,1.08,0.02,-1.52,
0.465,0.10,0.21,0.82,1.08,0.02,-1.52,
0.466,0.10,0.20,0.83,1.08,0.02,-1.52,
0.469,0.10,0.20,0.83,1.08,0.02,-1.52,
0.469,0.10,0.20,0.83,1.03,0.01,-1.50,
0.472,0.10,0.20,0.83,1.03,0.01,-1.50,
0.474,0.10,0.20,0.83,1.03,0.01,-1.50,
0.474,0.10,0.20,0.83,1.08,-0.01,-1.42,
0.476,0.10,0.20,0.83,1.08,-0.01,-1.42,
0.484,0.10,0.20,0.83,1.08,-0.01,-1.40,
0.485,0.10,0.20,0.82,1.08,-0.01,-1.40,
0.485,0.10,0.20,0.82,1.08,-0.01,-1.40,
0.485,0.11,0.20,0.82,1.08,-0.01,-1.40,
0.486,0.11,0.20,0.82,1.08,-0.04,-1.46,
0.486,0.11,0.20,0.81,1.08,-0.04,-1.46,
0.489,0.11,0.20,0.81,1.12,-0.06,-1.52,
0.489,0.11,0.19,0.80,1.12,-0.06,-1.52,
0.492,0.12,0.20,0.80,1.12,-0.06,-1.52,
0.493,0.12,0.19,0.80,1.12,-0.06,-1.52,
0.494,0.12,0.19,0.80,1.19,-0.09,-1.64,
0.498,0.12,0.19,0.79,1.19,-0.09,-1.64,
0.499,0.13,0.19,0.79,1.19,-0.09,-1.64,
0.499,0.13,0.19,0.79,1.26,-0.07,-1.72,
0.5,0.12,0.19,0.79,1.26,-0.07,-1.72,
0.504,0.12,0.19,0.79,1.32,-0.09,-1.80,
0.504,0.12,0.19,0.79,1.32,-0.09,-1.80,
0.506,0.12,0.19,0.78,1.32,-0.09,-1.80,
0.509,0.12,0.19,0.77,1.32,-0.09,-1.80,
0.509,0.12,0.19,0.77,1.31,-0.12,-1.84,
0.511,0.12,0.19,0.77,1.31,-0.12,-1.84,
0.514,0.11,0.19,0.78,1.31,-0.12,-1.84,
0.514,0.11,0.19,0.78,1.29,-0.13,-1.93,
0.517,0.10,0.19,0.78,1.29,-0.13,-1.93,
0.519,0.10,0.19,0.78,1.29,-0.13,-1.93,
0.519,0.10,0.19,0.78,1.21,-0.13,-1.93,
0.521,0.09,0.19,0.78,1.21,-0.13,-1.93,
0.524,0.08,0.19,0.78,1.21,-0.13,-1.93,
0.525,0.08,0.19,0.78,1.08,-0.13,-1.91,
0.525,0.07,0.19,0.77,1.08,-0.13,-1.91,
0.532,0.07,0.19,0.77,0.93,-0.16,-1.91,
0.532,0.06,0.19,0.77,0.93,-0.16,-1.91,
0.533,0.05,0.19,0.77,0.93,-0.16,-1.91,
0.535,0.03,0.19,0.78,0.93,-0.16,-1.91,
0.535,0.03,0.19,0.78,0.75,-0.13,-1.98,
0.536,0.02,0.19,0.78,0.75,-0.13,-1.98,
0.539,0.02,0.19,0.78,0.75,-0.13,-1.98,
0.539,0.02,0.19,0.78,0.52,-0.14,-1.92,
0.541,0.01,0.19,0.79,0.52,-0.14,-1.92,
0.544,-0.00,0.19,0.80,0.52,-0.14,-1.92,
0.544,-0.00,0.19,0.80,0.31,-0.16,-1.88,
0.547,-0.01,0.19,0.80,0.31,-0.16,-1.88,
0.549,-0.01,0.18,0.81,0.31,-0.16,-1.88,
0.549,-0.01,0.18,0.81,0.13,-0.16,-1.71,
0.551,-0.03,0.18,0.81,0.13,-0.16,-1.71,
0.554,-0.03,0.18,0.81,0.02,-0.18,-1.62,
0.554,-0.04,0.18,0.82,0.02,-0.18,-1.62,
0.555,-0.04,0.18,0.82,0.02,-0.18,-1.62,
0.559,-0.04,0.17,0.82,0.02,-0.18,-1.62,
0.559,-0.04,0.17,0.82,-0.17,-0.20,-1.54,
0.561,-0.04,0.17,0.82,-0.17,-0.20,-1.54,
0.564,-0.04,0.17,0.82,-0.17,-0.20,-1.54,
0.565,-0.04,0.17,0.82,-0.26,-0.29,-1.45,
0.566,-0.04,0.16,0.82,-0.26,-0.29,-1.45,
0.568,-0.04,0.15,0.82,-0.26,-0.29,-1.45,
0.569,-0.04,0.15,0.82,-0.25,-0.33,-1.48,
0.571,-0.04,0.15,0.82,-0.25,-0.33,-1.48,
0.574,-0.04,0.15,0.82,-0.27,-0.45,-1.48,
0.574,-0.04,0.14,0.82,-0.27,-0.45,-1.48,
0.576,-0.03,0.13,0.82,-0.27,-0.45,-1.48,
0.578,-0.03,0.13,0.82,-0.24,-0.55,-1.48,
0.579,-0.03,0.13,0.82,-0.24,-0.55,-1.48,
0.584,-0.02,0.12,0.82,-0.24,-0.55,-1.48,
0.584,-0.01,0.12,0.81,-0.24,-0.55,-1.48,
0.585,-0.01,0.12,0.81,-0.20,-0.67,-1.47,
0.585,-0.01,0.12,0.80,-0.20,-0.67,-1.47,
0.588,-0.00,0.11,0.80,-0.20,-0.67,-1.47,
0.589,-0.00,0.11,0.80,-0.09,-0.80,-1.53,
0.592,-0.00,0.10,0.80,-0.09,-0.80,-1.53,
0.593,0.00,0.10,0.80,-0.09,-0.80,-1.53,
0.594,0.00,0.10,0.80,0.02,-0.87,-1.63,
0.603,0.00,0.10,0.80,0.02,-0.87,-1.63,
0.604,0.00,0.09,0.80,0.02,-0.87,-1.63,
0.604,0.00,0.09,0.80,0.06,-0.98,-1.67,
0.604,-0.00,0.09,0.80,0.06,-0.98,-1.67,
0.604,-0.00,0.09,0.81,0.06,-0.98,-1.67,
0.608,-0.00,0.09,0.81,0.07,-1.06,-1.65,
0.609,-0.00,0.10,0.80,0.07,-1.06,-1.65,
0.609,-0.01,0.10,0.81,0.07,-1.06,-1.65,
0.609,-0.01,0.10,0.81,-0.01,-1.07,-1.60,
0.61,-0.02,0.10,0.81,-0.01,-1.07,-1.60,
0.619,-0.03,0.10,0.81,-0.01,-1.07,-1.60,
0.62,-0.03,0.10,0.81,-0.07,-1.04,-1.59,
0.621,-0.03,0.11,0.81,-0.07,-1.04,-1.59,
0.621,-0.04,0.11,0.81,-0.07,-1.04,-1.59,
0.621,-0.04,0.11,0.81,-0.21,-0.98,-1.55,
0.621,-0.04,0.12,0.82,-0.21,-0.98,-1.55,
0.623,-0.05,0.13,0.83,-0.21,-0.98,-1.55,
0.623,-0.05,0.13,0.83,-0.36,-0.90,-1.55,
0.626,-0.06,0.13,0.83,-0.36,-0.90,-1.55,
0.628,-0.06,0.13,0.83,-0.50,-0.79,-1.45,
0.628,-0.06,0.14,0.84,-0.50,-0.79,-1.45,
0.631,-0.07,0.14,0.85,-0.50,-0.79,-1.45,
0.633,-0.08,0.15,0.86,-0.50,-0.79,-1.45,
0.634,-0.08,0.15,0.86,-0.66,-0.67,-1.31,
0.635,-0.08,0.15,0.86,-0.66,-0.67,-1.31,
0.638,-0.08,0.15,0.86,-0.78,-0.57,-1.14,
0.638,-0.08,0.15,0.87,-0.78,-0.57,-1.14,
0.641,-0.08,0.14,0.87,-0.78,-0.57,-1.14,
0.642,-0.09,0.14,0.87,-0.78,-0.57,-1.14,
0.643,-0.09,0.14,0.87,-0.86,-0.52,-1.01,
0.645,-0.09,0.13,0.88,-0.86,-0.52,-1.01,
0.647,-0.09,0.13,0.88,-0.86,-0.52,-1.01,
0.648,-0.09,0.13,0.88,-0.92,-0.61,-0.96,
0.65,-0.09,0.12,0.89,-0.92,-0.61,-0.96,
0.652,-0.09,0.12,0.89,-0.94,-0.68,-0.84,
0.653,-0.09,0.10,0.88,-0.94,-0.68,-0.84,
0.655,-0.09,0.09,0.89,-0.94,-0.68,-0.84,
0.661,-0.08,0.08,0.89,-0.94,-0.68,-0.84,
0.662,-0.08,0.08,0.89,-0.98,-0.84,-0.83,
0.662,-0.09,0.08,0.90,-0.98,-0.84,-0.83,
0.663,-0.09,0.08,0.90,-0.97,-1.03,-0.80,
0.663,-0.09,0.07,0.90,-0.97,-1.03,-0.80,
0.665,-0.09,0.06,0.91,-0.97,-1.03,-0.80,
0.666,-0.09,0.06,0.92,-0.97,-1.03,-0.80,
0.667,-0.09,0.06,0.92,-1.00,-1.15,-0.68,
0.669,-0.09,0.06,0.92,-1.00,-1.15,-0.68,
0.672,-0.09,0.06,0.91,-1.00,-1.15,-0.68,
0.672,-0.09,0.06,0.91,-0.98,-1.24,-0.58,
0.674,-0.09,0.07,0.91,-0.98,-1.24,-0.58,
0.677,-0.09,0.07,0.91,-1.01,-1.24,-0.55,
0.678,-0.10,0.06,0.92,-1.01,-1.24,-0.55,
0.682,-0.10,0.06,0.93,-1.01,-1.24,-0.55,
0.682,-0.10,0.07,0.93,-1.01,-1.24,-0.55,
0.682,-0.10,0.07,0.93,-1.12,-1.17,-0.51,
0.684,-0.10,0.07,0.93,-1.12,-1.17,-0.51,
0.687,-0.10,0.07,0.93,-1.12,-1.17,-0.51,
0.687,-0.10,0.07,0.93,-1.16,-1.14,-0.42,
0.69,-0.10,0.07,0.93,-1.16,-1.14,-0.42,
0.692,-0.10,0.07,0.92,-1.16,-1.14,-0.42,
0.692,-0.10,0.07,0.92,-1.15,-1.10,-0.42,
0.694,-0.11,0.07,0.92,-1.15,-1.10,-0.42,
0.7,-0.11,0.07,0.92,-1.19,-1.06,-0.48,
0.701,-0.11,0.07,0.92,-1.19,-1.06,-0.48,
0.701,-0.11,0.07,0.91,-1.19,-1.06,-0.48,
0.702,-0.11,0.07,0.91,-1.25,-1.03,-0.52,
0.702,-0.11,0.07,0.91,-1.25,-1.03,-0.52,
0.704,-0.11,0.07,0.91,-1.25,-1.03,-0.52,
0.707,-0.11,0.06,0.90,-1.25,-1.03,-0.52,
0.707,-0.11,0.06,0.90,-1.24,-1.04,-0.58,
0.708,-0.10,0.06,0.90,-1.24,-1.04,-0.58,
0.712,-0.10,0.06,0.89,-1.24,-1.04,-0.58,
0.712,-0.10,0.06,0.89,-1.23,-1.09,-0.66,
0.714,-0.10,0.06,0.89,-1.23,-1.09,-0.66,
0.717,-0.10,0.07,0.89,-1.23,-1.09,-0.66,
0.717,-0.10,0.07,0.89,-1.18,-1.08,-0.74,
0.719,-0.10,0.07,0.89,-1.18,-1.08,-0.74,
0.722,-0.10,0.07,0.88,-1.18,-1.08,-0.74,
0.722,-0.10,0.07,0.88,-1.14,-1.04,-0.82,
0.724,-0.10,0.07,0.89,-1.14,-1.04,-0.82,
0.727,-0.10,0.07,0.89,-1.17,-0.99,-0.84,
0.727,-0.10,0.07,0.89,-1.17,-0.99,-0.84,
0.729,-0.10,0.07,0.89,-1.17,-0.99,-0.84,
0.731,-0.09,0.08,0.90,-1.17,-0.99,-0.84,
0.732,-0.09,0.08,0.90,-1.15,-0.97,-0.84,
0.735,-0.09,0.08,0.90,-1.15,-0.97,-0.84,
0.736,-0.09,0.08,0.90,-1.15,-0.97,-0.84,
0.736,-0.09,0.08,0.90,-1.13,-0.93,-0.79,
0.738,-0.09,0.08,0.91,-1.13,-0.93,-0.79,
0.742,-0.09,0.08,0.92,-1.13,-0.93,-0.79,
0.742,-0.09,0.08,0.92,-1.08,-0.88,-0.72,
0.744,-0.09,0.08,0.93,-1.08,-0.88,-0.72,
0.749,-0.08,0.08,0.94,-1.08,-0.88,-0.72,
0.749,-0.08,0.08,0.94,-1.11,-0.86,-0.58,
0.75,-0.08,0.08,0.93,-1.11,-0.86,-0.58,
0.752,-0.08,0.08,0.93,-1.09,-0.84,-0.40,
0.752,-0.08,0.08,0.95,-1.09,-0.84,-0.40,
0.754,-0.07,0.08,0.96,-1.09,-0.84,-0.40,
0.757,-0.07,0.08,0.96,-1.09,-0.84,-0.40,
0.757,-0.07,0.08,0.96,-1.07,-0.84,-0.31,
0.76,-0.07,0.08,0.97,-1.07,-0.84,-0.31,
0.762,-0.07,0.08,0.97,-1.02,-0.84,-0.13,
0.762,-0.07,0.07,0.97,-1.02,-0.84,-0.13,
0.765,-0.07,0.07,0.97,-1.02,-0.84,-0.13,
0.766,-0.08,0.07,0.97,-1.02,-0.84,-0.13,
0.767,-0.08,0.07,0.97,-1.05,-0.86,-0.04,
0.768,-0.08,0.06,0.98,-1.05,-0.86,-0.04,
0.771,-0.08,0.06,0.97,-1.05,-0.86,-0.04,
0.772,-0.08,0.06,0.97,-1.09,-0.93,-0.02,
0.774,-0.08,0.06,0.96,-1.09,-0.93,-0.02,
0.777,-0.08,0.06,0.96,-1.17,-0.96,0.01,
0.777,-0.09,0.06,0.96,-1.17,-0.96,0.01,
0.779,-0.09,0.06,0.96,-1.17,-0.96,0.01,
0.782,-0.10,0.06,0.95,-1.17,-0.96,0.01,
0.782,-0.10,0.06,0.95,-1.24,-0.96,-0.08,
0.783,-0.10,0.06,0.95,-1.24,-0.96,-0.08,
0.786,-0.11,0.05,0.94,-1.24,-0.96,-0.08,
0.786,-0.11,0.05,0.94,-1.35,-0.98,-0.15,
0.789,-0.11,0.05,0.93,-1.35,-0.98,-0.15,
0.792,-0.11,0.05,0.93,-1.35,-0.98,-0.15,
0.792,-0.11,0.05,0.93,-1.45,-1.02,-0.27,
0.794,-0.12,0.05,0.93,-1.45,-1.02,-0.27,
0.796,-0.12,0.05,0.92,-1.45,-1.02,-0.27,
0.796,-0.12,0.05,0.92,-1.53,-1.06,-0.38,
0.799,-0.12,0.04,0.92,-1.53,-1.06,-0.38,
0.801,-0.12,0.04,0.92,-1.59,-1.10,-0.50,
0.801,-0.12,0.04,0.92,-1.59,-1.10,-0.50,
0.804,-0.12,0.04,0.91,-1.59,-1.10,-0.50,
0.807,-0.12,0.04,0.91,-1.59,-1.10,-0.50,
0.807,-0.12,0.04,0.91,-1.63,-1.13,-0.54,
0.809,-0.12,0.04,0.91,-1.63,-1.13,-0.54,
0.811,-0.12,0.03,0.91,-1.63,-1.13,-0.54,
0.812,-0.12,0.03,0.91,-1.61,-1.12,-0.58,
0.813,-0.11,0.03,0.92,-1.61,-1.12,-0.58,
0.822,-0.11,0.03,0.92,-1.61,-1.12,-0.58,
0.822,-0.11,0.03,0.92,-1.58,-1.15,-0.60,
0.823,-0.10,0.03,0.93,-1.58,-1.15,-0.60,
0.823,-0.09,0.03,0.94,-1.58,-1.15,-0.60,
0.826,-0.09,0.03,0.94,-1.51,-1.16,-0.55,
0.826,-0.09,0.03,0.94,-1.51,-1.16,-0.55,
0.827,-0.09,0.03,0.94,-1.35,-1.19,-0.40,
0.827,-0.07,0.03,0.94,-1.35,-1.19,-0.40,
0.827,-0.07,0.03,0.95,-1.35,-1.19,-0.40,
0.838,-0.06,0.03,0.95,-1.35,-1.19,-0.40,
0.84,-0.06,0.03,0.95,-1.20,-1.18,-0.33,
0.84,-0.05,0.03,0.95,-1.20,-1.18,-0.33,
0.84,-0.05,0.03,0.95,-1.06,-1.13,-0.24,
0.841,-0.05,0.04,0.97,-1.06,-1.13,-0.24,
0.841,-0.04,0.04,0.96,-1.06,-1.13,-0.24,
0.841,-0.03,0.05,0.97,-1.06,-1.13,-0.24,
0.841,-0.03,0.05,0.97,-0.91,-1.04,-0.14,
0.842,-0.03,0.06,0.97,-0.91,-1.04,-0.14,
0.845,-0.03,0.06,0.96,-0.91,-1.04,-0.14,
0.845,-0.03,0.06,0.96,-0.81,-0.95,-0.07,
0.847,-0.03,0.07,0.96,-0.81,-0.95,-0.07,
0.85,-0.02,0.07,0.96,-0.81,-0.95,-0.07,
0.851,-0.02,0.07,0.96,-0.72,-0.80,-0.09,
0.852,-0.03,0.07,0.96,-0.72,-0.80,-0.09,
0.855,-0.03,0.07,0.96,-0.70,-0.70,-0.13,
0.855,-0.03,0.08,0.96,-0.70,-0.70,-0.13,
0.858,-0.03,0.08,0.96,-0.70,-0.70,-0.13,
0.86,-0.04,0.08,0.96,-0.70,-0.70,-0.13,
0.86,-0.04,0.08,0.96,-0.73,-0.61,-0.15,
0.863,-0.04,0.08,0.96,-0.73,-0.61,-0.15,
0.866,-0.04,0.08,0.95,-0.73,-0.61,-0.15,
0.867,-0.04,0.08,0.95,-0.76,-0.55,-0.18,
0.868,-0.04,0.08,0.95,-0.76,-0.55,-0.18,
0.87,-0.05,0.08,0.95,-0.76,-0.55,-0.18,
0.871,-0.05,0.08,0.95,-0.83,-0.54,-0.20,
0.872,-0.06,0.08,0.95,-0.83,-0.54,-0.20,
0.875,-0.06,0.08,0.95,-0.88,-0.53,-0.26,
0.876,-0.07,0.07,0.94,-0.88,-0.53,-0.26,
0.878,-0.07,0.07,0.94,-0.88,-0.53,-0.26,
0.884,-0.08,0.07,0.94,-0.88,-0.53,-0.26,
0.885,-0.08,0.07,0.94,-1.03,-0.59,-0.29,
0.885,-0.09,0.07,0.94,-1.03,-0.59,-0.29,
0.886,-0.09,0.06,0.94,-1.03,-0.59,-0.29,
0.886,-0.09,0.06,0.94,-1.17,-0.60,-0.33,
0.887,-0.10,0.05,0.94,-1.17,-0.60,-0.33,
0.891,-0.10,0.05,0.93,-1.17,-0.60,-0.33,
0.891,-0.10,0.05,0.93,-1.29,-0.64,-0.36,
0.893,-0.11,0.05,0.94,-1.29,-0.64,-0.36,
0.895,-0.11,0.05,0.94,-1.39,-0.74,-0.41,
0.896,-0.10,0.04,0.94,-1.39,-0.74,-0.41,
0.898,-0.11,0.04,0.95,-1.39,-0.74,-0.41,
0.901,-0.11,0.04,0.95,-1.46,-0.78,-0.39,
0.901,-0.11,0.04,0.95,-1.46,-0.78,-0.39,
0.902,-0.11,0.04,0.95,-1.46,-0.78,-0.39,
0.906,-0.11,0.04,0.96,-1.46,-0.78,-0.39,
0.906,-0.11,0.04,0.96,-1.54,-0.83,-0.30,
0.908,-0.11,0.04,0.97,-1.54,-0.83,-0.30,
0.911,-0.12,0.04,0.98,-1.54,-0.83,-0.30,
0.912,-0.12,0.04,0.98,-1.54,-0.81,-0.18,
0.912,-0.12,0.04,0.98,-1.54,-0.81,-0.18,
0.92,-0.12,0.04,0.99,-1.54,-0.81,-0.18,
0.921,-0.12,0.04,0.99,-1.59,-0.80,-0.04,
0.921,-0.12,0.03,0.99,-1.59,-0.80,-0.04,
0.921,-0.12,0.03,1.00,-1.59,-0.80,-0.04,
0.922,-0.12,0.03,1.00,-1.66,-0.78,0.09,
0.922,-0.12,0.02,1.01,-1.66,-0.78,0.09,
0.925,-0.12,0.02,1.01,-1.70,-0.83,0.17,
0.925,-0.12,0.02,1.00,-1.70,-0.83,0.17,
0.926,-0.13,0.02,1.00,-1.70,-0.83,0.17,
0.929,-0.13,0.02,1.00,-1.70,-0.83,0.17,
0.93,-0.13,0.02,1.00,-1.75,-0.91,0.27,
0.937,-0.14,0.01,1.00,-1.75,-0.91,0.27,
0.938,-0.14,0.01,0.99,-1.75,-0.91,0.27,
0.938,-0.14,0.01,0.99,-1.82,-0.95,0.24,
0.938,-0.14,0.01,0.98,-1.82,-0.95,0.24,
0.939,-0.15,0.01,0.98,-1.82,-0.95,0.24,
0.939,-0.15,0.01,0.98,-1.96,-0.97,0.14,
0.942,-0.15,0.01,0.97,-1.96,-0.97,0.14,
0.944,-0.16,0.02,0.97,-1.96,-0.97,0.14,
0.945,-0.16,0.02,0.97,-2.01,-0.95,0.02,
0.947,-0.16,0.02,0.96,-2.01,-0.95,0.02,
0.949,-0.16,0.02,0.96,-2.14,-0.92,-0.06,
0.949,-0.17,0.01,0.95,-2.14,-0.92,-0.06,
0.952,-0.17,0.01,0.94,-2.14,-0.92,-0.06,
0.954,-0.17,0.01,0.94,-2.14,-0.92,-0.06,
0.954,-0.17,0.01,0.94,-2.22,-0.90,-0.19,
0.957,-0.18,0.01,0.93,-2.22,-0.90,-0.19,
0.959,-0.18,0.00,0.93,-2.22,-0.90,-0.19,
0.96,-0.18,0.00,0.93,-2.27,-0.92,-0.36,
0.962,-0.18,-0.00,0.93,-2.27,-0.92,-0.36,
0.964,-0.18,-0.01,0.93,-2.27,-0.92,-0.36,
0.964,-0.18,-0.01,0.93,-2.33,-0.96,-0.43,
0.966,-0.19,-0.01,0.93,-2.33,-0.96,-0.43,
0.969,-0.19,-0.01,0.93,-2.33,-0.96,-0.43,
0.969,-0.19,-0.01,0.93,-2.37,-1.02,-0.48,
0.971,-0.19,-0.02,0.94,-2.37,-1.02,-0.48,
0.974,-0.19,-0.02,0.94,-2.44,-1.05,-0.46,
0.975,-0.18,-0.02,0.94,-2.44,-1.05,-0.46,
0.977,-0.17,-0.03,0.95,-2.44,-1.05,-0.46,
0.979,-0.17,-0.03,0.95,-2.44,-1.05,-0.46,
0.98,-0.17,-0.03,0.95,-2.41,-1.10,-0.36,
0.982,-0.16,-0.03,0.97,-2.41,-1.10,-0.36,
0.984,-0.14,-0.04,0.98,-2.41,-1.10,-0.36,
0.985,-0.14,-0.04,0.98,-2.27,-1.14,-0.27,
0.989,-0.13,-0.04,0.99,-2.27,-1.14,-0.27,
0.989,-0.13,-0.04,1.00,-2.27,-1.14,-0.27,
0.989,-0.13,-0.04,1.00,-2.07,-1.17,-0.01,
0.992,-0.12,-0.04,1.02,-2.07,-1.17,-0.01,
0.994,-0.11,-0.04,1.03,-2.07,-1.17,-0.01,
0.994,-0.11,-0.04,1.03,-1.91,-1.17,0.17,
0.996,-0.11,-0.04,1.05,-1.91,-1.17,0.17,
0.999,-0.11,-0.04,1.05,-1.79,-1.16,0.46,
0.999,-0.10,-0.04,1.06,-1.79,-1.16,0.46,
1.001,-0.10,-0.04,1.07,-1.79,-1.16,0.46,
1.003,-0.09,-0.04,1.09,-1.79,-1.16,0.46,
1.004,-0.09,-0.04,1.09,-1.68,-1.11,0.72,
1.005,-0.08,-0.04,1.10,-1.68,-1.11,0.72,
1.009,-0.08,-0.04,1.11,-1.68,-1.11,0.72,
1.009,-0.08,-0.04,1.11,-1.58,-1.04,1.01,
1.011,-0.08,-0.03,1.12,-1.58,-1.04,1.01,
1.013,-0.09,-0.03,1.12,-1.58,-1.04,1.01,
1.014,-0.09,-0.03,1.12,-1.48,-0.95,1.23,
1.016,-0.09,-0.03,1.13,-1.48,-0.95,1.23,
1.02,-0.10,-0.04,1.12,-1.48,-0.95,1.23,
1.021,-0.10,-0.04,1.12,-1.55,-0.86,1.36,
1.022,-0.11,-0.04,1.12,-1.55,-0.86,1.36,
1.023,-0.11,-0.04,1.12,-1.66,-0.84,1.38,
1.024,-0.11,-0.04,1.11,-1.66,-0.84,1.38,
1.026,-0.12,-0.05,1.10,-1.66,-0.84,1.38,
1.03,-0.13,-0.05,1.10,-1.66,-0.84,1.38,
1.03,-0.13,-0.05,1.10,-1.79,-0.84,1.29,
1.034,-0.14,-0.06,1.09,-1.79,-0.84,1.29,
1.034,-0.15,-0.06,1.08,-1.79,-0.84,1.29,
1.034,-0.15,-0.06,1.08,-1.98,-0.93,1.16,
1.036,-0.16,-0.07,1.08,-1.98,-0.93,1.16,
1.038,-0.16,-0.08,1.06,-1.98,-0.93,1.16,
1.039,-0.16,-0.08,1.06,-2.15,-0.99,1.01,
1.04,-0.17,-0.09,1.06,-2.15,-0.99,1.01,
1.044,-0.18,-0.09,1.05,-2.15,-0.99,1.01,
1.044,-0.18,-0.09,1.05,-2.33,-1.09,0.87,
1.046,-0.19,-0.10,1.05,-2.33,-1.09,0.87,
1.049,-0.19,-0.10,1.05,-2.48,-1.21,0.72,
1.049,-0.20,-0.11,1.04,-2.48,-1.21,0.72,
1.051,-0.21,-0.12,1.03,-2.48,-1.21,0.72,
1.053,-0.22,-0.12,1.03,-2.48,-1.21,0.72,
1.053,-0.22,-0.12,1.03,-2.66,-1.33,0.59,
1.055,-0.22,-0.13,1.02,-2.66,-1.33,0.59,
1.059,-0.23,-0.13,1.02,-2.66,-1.33,0.59,
1.059,-0.23,-0.13,1.02,-2.83,-1.44,0.48,
1.061,-0.23,-0.14,1.02,-2.83,-1.44,0.48,
1.063,-0.23,-0.14,1.02,-2.83,-1.44,0.48,
1.063,-0.23,-0.14,1.02,-2.96,-1.49,0.38,
1.065,-0.24,-0.14,1.02,-2.96,-1.49,0.38,
1.068,-0.24,-0.14,1.02,-2.96,-1.49,0.38,
1.069,-0.24,-0.14,1.02,-3.05,-1.54,0.37,
1.07,-0.24,-0.15,1.03,-3.05,-1.54,0.37,
1.073,-0.24,-0.15,1.03,-3.14,-1.56,0.38,
1.073,-0.24,-0.15,1.03,-3.14,-1.56,0.38,
1.075,-0.24,-0.15,1.03,-3.14,-1.56,0.38,
1.078,-0.23,-0.14,1.05,-3.14,-1.56,0.38,
1.079,-0.23,-0.14,1.05,-3.16,-1.56,0.46,
1.08,-0.23,-0.14,1.05,-3.16,-1.56,0.46,
1.083,-0.22,-0.14,1.06,-3.16,-1.56,0.46,
1.084,-0.22,-0.14,1.06,-3.11,-1.50,0.57,
1.085,-0.22,-0.14,1.08,-3.11,-1.50,0.57,
1.087,-0.21,-0.14,1.10,-3.11,-1.50,0.57,
1.088,-0.21,-0.14,1.10,-3.06,-1.40,0.76,
1.091,-0.19,-0.14,1.11,-3.06,-1.40,0.76,
1.093,-0.18,-0.14,1.12,-3.06,-1.40,0.76,
1.094,-0.18,-0.14,1.12,-2.96,-1.34,1.06,
1.095,-0.17,-0.14,1.13,-2.96,-1.34,1.06,
1.098,-0.17,-0.14,1.13,-2.70,-1.30,1.32,
1.098,-0.16,-0.14,1.14,-2.70,-1.30,1.32,
1.1,-0.15,-0.14,1.15,-2.70,-1.30,1.32,
1.103,-0.14,-0.14,1.17,-2.70,-1.30,1.32,
1.103,-0.14,-0.14,1.17,-2.52,-1.26,1.51,
1.105,-0.14,-0.14,1.18,-2.52,-1.26,1.51,
1.108,-0.12,-0.14,1.18,-2.52,-1.26,1.51,
1.108,-0.12,-0.14,1.18,-2.38,-1.24,1.75,
1.11,-0.12,-0.14,1.19,-2.38,-1.24,1.75,
1.113,-0.11,-0.14,1.19,-2.38,-1.24,1.75,
1.113,-0.11,-0.14,1.19,-2.25,-1.19,1.93,
1.115,-0.11,-0.15,1.19,-2.25,-1.19,1.93,
1.117,-0.11,-0.15,1.20,-2.25,-1.19,1.93,
1.118,-0.11,-0.15,1.20,-2.15,-1.19,2.02,
1.12,-0.10,-0.16,1.19,-2.15,-1.19,2.02,
1.123,-0.10,-0.16,1.19,-2.09,-1.21,2.09,
1.124,-0.10,-0.16,1.19,-2.09,-1.21,2.09,
1.125,-0.10,-0.17,1.19,-2.09,-1.21,2.09,
1.128,-0.10,-0.17,1.19,-2.09,-1.21,2.09,
1.128,-0.10,-0.17,1.19,-2.04,-1.25,2.07,
1.13,-0.11,-0.17,1.19,-2.04,-1.25,2.07,
1.139,-0.12,-0.18,1.19,-2.04,-1.25,2.07,
1.14,-0.12,-0.18,1.19,-2.09,-1.30,2.07,
1.14,-0.13,-0.19,1.19,-2.09,-1.30,2.07,
1.14,-0.13,-0.19,1.19,-2.09,-1.30,2.07,
1.141,-0.13,-0.19,1.19,-2.18,-1.36,2.01,
1.141,-0.15,-0.19,1.19,-2.18,-1.36,2.01,
1.142,-0.16,-0.20,1.19,-2.18,-1.36,2.01,
1.142,-0.16,-0.20,1.19,-2.36,-1.43,2.01,
1.144,-0.17,-0.20,1.20,-2.36,-1.43,2.01,
1.147,-0.17,-0.20,1.20,-2.58,-1.46,2.05,
1.148,-0.18,-0.20,1.20,-2.58,-1.46,2.05,
1.16,-0.19,-0.20,1.21,-2.58,-1.46,2.05,
1.164,-0.21,-0.20,1.21,-2.58,-1.46,2.05,
1.165,-0.21,-0.20,1.21,-2.82,-1.43,2.14,
1.165,-0.21,-0.20,1.22,-2.82,-1.43,2.14,
1.165,-0.22,-0.20,1.23,-2.82,-1.43,2.14,
1.165,-0.22,-0.20,1.23,-3.02,-1.41,2.25,
1.166,-0.22,-0.20,1.23,-3.02,-1.41,2.25,
1.166,-0.23,-0.20,1.23,-3.02,-1.41,2.25,
1.166,-0.23,-0.20,1.23,-3.17,-1.38,2.38,
1.166,-0.23,-0.20,1.23,-3.17,-1.38,2.38,
1.168,-0.23,-0.20,1.24,-3.17,-1.38,2.38,
1.168,-0.23,-0.20,1.24,-3.25,-1.37,2.42,
1.17,-0.24,-0.20,1.24,-3.25,-1.37,2.42,
1.172,-0.24,-0.20,1.24,-3.33,-1.31,2.48,
1.173,-0.23,-0.20,1.24,-3.33,-1.31,2.48,
1.175,-0.23,-0.20,1.24,-3.33,-1.31,2.48,
1.177,-0.22,-0.19,1.25,-3.33,-1.31,2.48,
1.178,-0.22,-0.19,1.25,-3.32,-1.24,2.55,
1.179,-0.21,-0.19,1.24,-3.32,-1.24,2.55,
1.182,-0.20,-0.19,1.26,-3.32,-1.24,2.55,
1.182,-0.20,-0.19,1.26,-3.21,-1.13,2.58,
1.186,-0.19,-0.18,1.26,-3.21,-1.13,2.58,
1.187,-0.18,-0.18,1.27,-3.21,-1.13,2.58,
1.187,-0.18,-0.18,1.27,-3.04,-1.01,2.63,
1.189,-0.16,-0.18,1.27,-3.04,-1.01,2.63,
1.192,-0.14,-0.18,1.28,-3.04,-1.01,2.63,
1.192,-0.14,-0.18,1.28,-2.78,-0.93,2.76,
1.195,-0.12,-0.17,1.30,-2.78,-0.93,2.76,
1.197,-0.12,-0.17,1.30,-2.41,-0.82,2.88,
1.197,-0.11,-0.17,1.31,-2.41,-0.82,2.88,
1.2,-0.09,-0.17,1.32,-2.41,-0.82,2.88,
1.202,-0.08,-0.17,1.33,-2.41,-0.82,2.88,
1.202,-0.08,-0.17,1.33,-2.06,-0.75,3.14,
1.204,-0.07,-0.17,1.35,-2.06,-0.75,3.14,
1.207,-0.06,-0.17,1.37,-2.06,-0.75,3.14,
1.207,-0.06,-0.17,1.37,-1.76,-0.67,3.39,
1.209,-0.05,-0.16,1.37,-1.76,-0.67,3.39,
1.212,-0.05,-0.17,1.38,-1.76,-0.67,3.39,
1.212,-0.05,-0.17,1.38,-1.59,-0.61,3.69,
1.214,-0.04,-0.17,1.38,-1.59,-0.61,3.69,
1.218,-0.05,-0.17,1.39,-1.59,-0.61,3.69,
1.218,-0.05,-0.17,1.39,-1.43,-0.57,3.84,
1.219,-0.04,-0.18,1.39,-1.43,-0.57,3.84,
1.221,-0.04,-0.18,1.39,-1.39,-0.56,3.97,
1.222,-0.05,-0.18,1.39,-1.39,-0.56,3.97,
1.224,-0.06,-0.19,1.40,-1.39,-0.56,3.97,
1.227,-0.07,-0.20,1.40,-1.39,-0.56,3.97,
1.227,-0.07,-0.20,1.40,-1.41,-0.61,4.03,
1.229,-0.08,-0.20,1.40,-1.41,-0.61,4.03,
1.232,-0.09,-0.21,1.41,-1.41,-0.61,4.03,
1.232,-0.09,-0.21,1.41,-1.61,-0.70,4.06,
1.235,-0.10,-0.22,1.40,-1.61,-0.70,4.06,
1.236,-0.12,-0.23,1.40,-1.61,-0.70,4.06,
1.237,-0.12,-0.23,1.40,-1.80,-0.81,4.12,
1.239,-0.13,-0.24,1.40,-1.80,-0.81,4.12,
1.242,-0.14,-0.25,1.40,-1.80,-0.81,4.12,
1.242,-0.14,-0.25,1.40,-1.99,-0.97,4.08,
1.244,-0.15,-0.27,1.39,-1.99,-0.97,4.08,
1.247,-0.15,-0.27,1.39,-2.25,-1.16,4.07,
1.247,-0.16,-0.28,1.38,-2.25,-1.16,4.07,
1.249,-0.17,-0.30,1.38,-2.25,-1.16,4.07,
1.256,-0.18,-0.31,1.37,-2.25,-1.16,4.07,
1.257,-0.18,-0.31,1.37,-2.44,-1.39,3.98,
1.257,-0.19,-0.33,1.37,-2.44,-1.39,3.98,
1.257,-0.20,-0.34,1.35,-2.44,-1.39,3.98,
1.258,-0.20,-0.34,1.35,-2.65,-1.63,3.89,
1.258,-0.21,-0.35,1.35,-2.65,-1.63,3.89,
1.262,-0.22,-0.36,1.34,-2.65,-1.63,3.89,
1.262,-0.22,-0.36,1.34,-2.83,-1.88,3.70,
1.263,-0.23,-0.36,1.33,-2.83,-1.88,3.70,
1.272,-0.24,-0.36,1.31,-2.83,-1.88,3.70,
1.273,-0.24,-0.36,1.31,-2.99,-2.05,3.55,
1.273,-0.24,-0.36,1.30,-2.99,-2.05,3.55,
1.274,-0.24,-0.36,1.30,-3.19,-2.14,3.27,
1.274,-0.25,-0.37,1.29,-3.19,-2.14,3.27,
1.274,-0.26,-0.37,1.29,-3.19,-2.14,3.27,
1.276,-0.26,-0.37,1.29,-3.28,-2.13,3.06,
1.276,-0.25,-0.37,1.27,-3.28,-2.13,3.06,
1.279,-0.25,-0.37,1.26,-3.28,-2.13,3.06,
1.281,-0.25,-0.37,1.26,-3.28,-2.13,3.06,
1.281,-0.25,-0.37,1.26,-3.34,-2.13,2.91,
1.283,-0.25,-0.37,1.26,-3.34,-2.13,2.91,
1.286,-0.24,-0.37,1.26,-3.34,-2.13,2.91,
1.286,-0.24,-0.37,1.26,-3.29,-2.12,2.72,
1.287,-0.23,-0.37,1.25,-3.29,-2.12,2.72,
1.29,-0.23,-0.37,1.25,-3.29,-2.12,2.72,
1.291,-0.23,-0.37,1.25,-3.15,-2.08,2.71,
1.294,-0.21,-0.37,1.25,-3.15,-2.08,2.71,
1.296,-0.21,-0.37,1.25,-3.00,-2.05,2.63,
1.296,-0.21,-0.36,1.25,-3.00,-2.05,2.63,
1.298,-0.20,-0.35,1.26,-3.00,-2.05,2.63,
1.302,-0.20,-0.35,1.26,-3.00,-2.05,2.63,
1.302,-0.20,-0.35,1.26,-2.81,-1.99,2.65,
1.304,-0.19,-0.34,1.26,-2.81,-1.99,2.65,
1.306,-0.18,-0.34,1.27,-2.81,-1.99,2.65,
1.306,-0.18,-0.34,1.27,-2.69,-1.85,2.66,
1.309,-0.16,-0.34,1.27,-2.69,-1.85,2.66,
1.311,-0.15,-0.33,1.29,-2.69,-1.85,2.66,
1.311,-0.15,-0.33,1.29,-2.49,-1.73,2.75,
1.313,-0.14,-0.33,1.29,-2.49,-1.73,2.75,
1.316,-0.13,-0.32,1.30,-2.49,-1.73,2.75,
1.321,-0.13,-0.32,1.30,-2.21,-1.62,2.88,
1.321,-0.12,-0.31,1.31,-2.21,-1.62,2.88,
1.322,-0.12,-0.31,1.31,-2.00,-1.51,3.02,
1.322,-0.11,-0.30,1.31,-2.00,-1.51,3.02,
1.323,-0.09,-0.30,1.32,-2.00,-1.51,3.02,
1.325,-0.08,-0.29,1.32,-2.00,-1.51,3.02,
1.326,-0.08,-0.29,1.32,-1.78,-1.30,3.18,
1.327,-0.06,-0.29,1.32,-1.78,-1.30,3.18,
1.33,-0.05,-0.28,1.33,-1.78,-1.30,3.18,
1.331,-0.05,-0.28,1.33,-1.48,-1.19,3.27,
1.333,-0.04,-0.28,1.33,-1.48,-1.19,3.27,
1.336,-0.03,-0.27,1.33,-1.48,-1.19,3.27,
1.337,-0.03,-0.27,1.33,-1.25,-1.08,3.33,
1.337,-0.03,-0.27,1.33,-1.25,-1.08,3.33,
1.34,-0.03,-0.27,1.33,-1.04,-0.98,3.42,
1.34,-0.02,-0.27,1.33,-1.04,-0.98,3.42,
1.342,-0.02,-0.26,1.33,-1.04,-0.98,3.42,
1.345,-0.02,-0.26,1.33,-0.87,-0.91,3.41,
1.345,-0.01,-0.25,1.32,-0.87,-0.91,3.41,
1.348,-0.01,-0.25,1.32,-0.87,-0.91,3.41,
1.354,-0.01,-0.25,1.30,-0.87,-0.91,3.41,
1.355,-0.01,-0.25,1.30,-0.77,-0.76,3.31,
1.355,-0.01,-0.25,1.30,-0.77,-0.76,3.31,
1.355,-0.01,-0.24,1.28,-0.77,-0.76,3.31,
1.355,-0.01,-0.24,1.28,-0.71,-0.70,3.15,
1.357,-0.02,-0.24,1.27,-0.71,-0.70,3.15,
1.36,-0.02,-0.24,1.26,-0.71,-0.70,3.15,
1.36,-0.02,-0.24,1.26,-0.70,-0.64,2.96,
1.362,-0.03,-0.24,1.24,-0.70,-0.64,2.96,
1.365,-0.04,-0.24,1.23,-0.70,-0.64,2.96,
1.365,-0.04,-0.24,1.23,-0.76,-0.61,2.73,
1.368,-0.05,-0.25,1.22,-0.76,-0.61,2.73,
1.37,-0.06,-0.25,1.20,-0.76,-0.61,2.73,
1.371,-0.06,-0.25,1.20,-0.88,-0.60,2.41,
1.372,-0.07,-0.25,1.19,-0.88,-0.60,2.41,
1.375,-0.08,-0.25,1.19,-0.88,-0.60,2.41,
1.375,-0.08,-0.25,1.19,-1.04,-0.64,2.18,
1.377,-0.08,-0.25,1.18,-1.04,-0.64,2.18,
1.38,-0.09,-0.26,1.17,-1.04,-0.64,2.18,
1.38,-0.09,-0.26,1.17,-1.21,-0.66,1.98,
1.382,-0.09,-0.26,1.16,-1.21,-0.66,1.98,
1.385,-0.09,-0.26,1.16,-1.29,-0.72,1.81,
1.385,-0.10,-0.26,1.15,-1.29,-0.72,1.81,
1.387,-0.10,-0.26,1.15,-1.29,-0.72,1.81,
1.39,-0.10,-0.26,1.15,-1.39,-0.76,1.65,
1.39,-0.10,-0.26,1.14,-1.39,-0.76,1.65,
1.392,-0.10,-0.26,1.14,-1.39,-0.76,1.65,
1.396,-0.10,-0.26,1.14,-1.41,-0.76,1.52,
1.396,-0.09,-0.26,1.15,-1.41,-0.76,1.52,
1.398,-0.08,-0.25,1.14,-1.41,-0.76,1.52,
1.4,-0.06,-0.25,1.15,-1.41,-0.76,1.52,
1.4,-0.06,-0.25,1.15,-1.32,-0.74,1.50,
1.404,-0.04,-0.24,1.16,-1.32,-0.74,1.50,
1.404,-0.04,-0.24,1.16,-1.03,-0.68,1.51,
1.405,-0.01,-0.24,1.17,-1.03,-0.68,1.51,
1.408,0.01,-0.23,1.18,-1.03,-0.68,1.51,
1.41,0.03,-0.23,1.19,-1.03,-0.68,1.51,
1.41,0.03,-0.23,1.19,-0.56,-0.56,1.71,
1.412,0.06,-0.22,1.20,-0.56,-0.56,1.71,
1.415,0.09,-0.21,1.21,-0.56,-0.56,1.71,
1.415,0.09,-0.21,1.21,-0.10,-0.46,1.91,
1.418,0.10,-0.21,1.22,-0.10,-0.46,1.91,
1.42,0.10,-0.21,1.22,0.40,-0.35,2.07,
1.42,0.12,-0.21,1.24,0.40,-0.35,2.07,
1.422,0.15,-0.20,1.25,0.40,-0.35,2.07,
1.425,0.17,-0.20,1.26,0.40,-0.35,2.07,
1.425,0.17,-0.20,1.26,0.82,-0.28,2.35,
1.427,0.18,-0.19,1.28,0.82,-0.28,2.35,
1.43,0.20,-0.19,1.29,0.82,-0.28,2.35,
1.43,0.20,-0.19,1.29,1.24,-0.18,2.61,
1.432,0.21,-0.19,1.30,1.24,-0.18,2.61,
1.435,0.23,-0.18,1.31,1.24,-0.18,2.61,
1.435,0.23,-0.18,1.31,1.59,-0.08,2.87,
1.437,0.23,-0.19,1.31,1.59,-0.08,2.87,
1.44,0.23,-0.18,1.32,1.59,-0.08,2.87,
1.44,0.23,-0.18,1.32,1.88,-0.02,3.05,
1.442,0.23,-0.19,1.32,1.88,-0.02,3.05,
1.445,0.23,-0.19,1.32,2.02,-0.01,3.18,
1.445,0.24,-0.19,1.33,2.02,-0.01,3.18,
1.447,0.23,-0.20,1.32,2.02,-0.01,3.18,
1.45,0.22,-0.20,1.32,2.02,-0.01,3.18,
1.45,0.22,-0.20,1.32,2.07,-0.06,3.25,
1.454,0.21,-0.20,1.32,2.07,-0.06,3.25,
1.454,0.20,-0.21,1.31,2.07,-0.06,3.25,
1.454,0.20,-0.21,1.31,2.00,-0.12,3.18,
1.457,0.18,-0.22,1.30,2.00,-0.12,3.18,
1.46,0.17,-0.22,1.30,2.00,-0.12,3.18,
1.46,0.17,-0.22,1.30,1.81,-0.23,3.13,
1.461,0.16,-0.23,1.29,1.81,-0.23,3.13,
1.464,0.14,-0.23,1.29,1.81,-0.23,3.13,
1.464,0.14,-0.23,1.29,1.57,-0.38,3.01,
1.466,0.13,-0.24,1.28,1.57,-0.38,3.01,
1.476,0.12,-0.24,1.27,1.57,-0.38,3.01,
1.477,0.12,-0.24,1.27,1.32,-0.48,2.87,
1.477,0.11,-0.24,1.27,1.32,-0.48,2.87,
1.477,0.11,-0.24,1.26,1.32,-0.48,2.87,
1.478,0.11,-0.24,1.26,1.09,-0.59,2.70,
1.478,0.11,-0.25,1.25,1.09,-0.59,2.70,
1.479,0.10,-0.25,1.25,1.09,-0.59,2.70,
1.479,0.10,-0.25,1.25,0.97,-0.64,2.60,
1.483,0.11,-0.25,1.24,0.97,-0.64,2.60,
1.484,0.11,-0.25,1.23,0.97,-0.64,2.60,
1.484,0.11,-0.25,1.23,0.96,-0.70,2.47,
1.493,0.12,-0.24,1.24,0.96,-0.70,2.47,
1.494,0.13,-0.24,1.24,0.96,-0.70,2.47,
1.494,0.13,-0.24,1.24,1.04,-0.70,2.36,
1.495,0.14,-0.24,1.24,1.04,-0.70,2.36,
1.495,0.14,-0.24,1.24,1.19,-0.64,2.36,
1.495,0.15,-0.24,1.24,1.19,-0.64,2.36,
1.495,0.17,-0.24,1.24,1.19,-0.64,2.36,
1.498,0.18,-0.23,1.25,1.19,-0.64,2.36,
1.498,0.18,-0.23,1.25,1.43,-0.67,2.39,
1.501,0.19,-0.23,1.25,1.43,-0.67,2.39,
1.503,0.21,-0.21,1.26,1.43,-0.67,2.39,
1.503,0.21,-0.21,1.26,1.69,-0.63,2.40,
1.505,0.21,-0.21,1.25,1.69,-0.63,2.40,
1.508,0.22,-0.20,1.26,1.69,-0.63,2.40,
1.508,0.22,-0.20,1.26,1.99,-0.51,2.46,
1.511,0.23,-0.20,1.27,1.99,-0.51,2.46,
1.514,0.24,-0.19,1.27,1.99,-0.51,2.46,
1.514,0.24,-0.19,1.27,2.16,-0.41,2.52,
1.516,0.24,-0.19,1.27,2.16,-0.41,2.52,
1.518,0.24,-0.18,1.27,2.16,-0.41,2.52,
1.519,0.24,-0.18,1.27,2.35,-0.27,2.63,
1.521,0.25,-0.18,1.27,2.35,-0.27,2.63,
1.524,0.25,-0.17,1.28,2.35,-0.27,2.63,
1.524,0.25,-0.17,1.28,2.42,-0.20,2.64,
1.526,0.25,-0.17,1.28,2.42,-0.20,2.64,
1.529,0.24,-0.17,1.28,2.42,-0.20,2.64,
1.529,0.24,-0.17,1.28,2.50,-0.14,2.67,
1.532,0.24,-0.18,1.28,2.50,-0.14,2.67,
1.534,0.23,-0.18,1.28,2.50,-0.14,2.67,
1.534,0.23,-0.18,1.28,2.46,-0.14,2.72,
1.537,0.23,-0.19,1.28,2.46,-0.14,2.72,
1.539,0.22,-0.19,1.27,2.46,-0.14,2.72,
1.54,0.22,-0.19,1.27,2.40,-0.20,2.68,
1.541,0.21,-0.19,1.26,2.40,-0.20,2.68,
1.544,0.21,-0.19,1.26,2.28,-0.31,2.65,
1.544,0.19,-0.20,1.26,2.28,-0.31,2.65,
1.546,0.18,-0.21,1.26,2.28,-0.31,2.65,
1.549,0.17,-0.22,1.26,2.28,-0.31,2.65,
1.549,0.17,-0.22,1.26,2.08,-0.42,2.53,
1.551,0.15,-0.22,1.25,2.08,-0.42,2.53,
1.554,0.14,-0.23,1.25,2.08,-0.42,2.53,
1.555,0.14,-0.23,1.25,1.85,-0.59,2.48,
1.556,0.13,-0.24,1.25,1.85,-0.59,2.48,
1.558,0.12,-0.24,1.25,1.85,-0.59,2.48,
1.558,0.12,-0.24,1.25,1.59,-0.74,2.40,
1.561,0.12,-0.24,1.25,1.59,-0.74,2.40,
1.564,0.12,-0.25,1.25,1.59,-0.74,2.40,
1.564,0.12,-0.25,1.25,1.41,-0.87,2.42,
1.566,0.13,-0.25,1.26,1.41,-0.87,2.42,
1.573,0.13,-0.25,1.26,1.37,-0.96,2.40,
1.574,0.13,-0.24,1.26,1.37,-0.96,2.40,
1.574,0.13,-0.25,1.26,1.37,-0.96,2.40,
1.575,0.14,-0.25,1.27,1.37,-0.96,2.40,
1.575,0.14,-0.25,1.27,1.42,-0.98,2.45,
1.577,0.15,-0.24,1.28,1.42,-0.98,2.45,
1.58,0.16,-0.24,1.28,1.42,-0.98,2.45,
1.58,0.16,-0.24,1.28,1.52,-1.02,2.51,
1.58,0.18,-0.24,1.28,1.52,-1.02,2.51,
1.583,0.18,-0.24,1.28,1.52,-1.02,2.51,
1.583,0.18,-0.24,1.28,1.68,-1.03,2.63,
1.586,0.19,-0.23,1.29,1.68,-1.03,2.63,
1.588,0.21,-0.23,1.29,1.68,-1.03,2.63,
1.589,0.21,-0.23,1.29,1.93,-1.03,2.66,
1.59,0.22,-0.22,1.29,1.93,-1.03,2.66,
1.593,0.22,-0.22,1.29,2.14,-0.95,2.71,
1.593,0.23,-0.21,1.28,2.14,-0.95,2.71,
1.595,0.23,-0.20,1.27,2.14,-0.95,2.71,
1.598,0.24,-0.20,1.26,2.14,-0.95,2.71,
1.598,0.24,-0.20,1.26,2.33,-0.87,2.63,
1.601,0.25,-0.18,1.24,2.33,-0.87,2.63,
1.604,0.25,-0.17,1.23,2.33,-0.87,2.63,
1.605,0.25,-0.17,1.23,2.46,-0.76,2.46,
1.605,0.26,-0.17,1.21,2.46,-0.76,2.46,
1.609,0.26,-0.15,1.19,2.46,-0.76,2.46,
1.609,0.26,-0.15,1.19,2.60,-0.60,2.17,
1.61,0.26,-0.14,1.18,2.60,-0.60,2.17,
1.613,0.26,-0.13,1.16,2.60,-0.60,2.17,
1.613,0.26,-0.13,1.16,2.70,-0.48,1.82,
1.615,0.26,-0.12,1.15,2.70,-0.48,1.82,
1.617,0.26,-0.12,1.15,2.74,-0.30,1.49,
1.618,0.27,-0.11,1.14,2.74,-0.30,1.49,
1.621,0.27,-0.09,1.12,2.74,-0.30,1.49,
1.623,0.27,-0.09,1.11,2.74,-0.30,1.49,
1.623,0.27,-0.09,1.11,2.77,-0.10,1.23,
1.625,0.27,-0.08,1.10,2.77,-0.10,1.23,
1.628,0.28,-0.07,1.09,2.77,-0.10,1.23,
1.629,0.28,-0.07,1.09,2.82,0.05,0.93,
1.63,0.28,-0.07,1.08,2.82,0.05,0.93,
1.633,0.28,-0.07,1.08,2.82,0.05,0.93,
1.633,0.28,-0.07,1.08,2.89,0.16,0.76,
1.636,0.29,-0.06,1.08,2.89,0.16,0.76,
1.638,0.28,-0.06,1.08,2.89,0.16,0.76,
1.639,0.28,-0.06,1.08,2.97,0.16,0.65,
1.64,0.29,-0.07,1.08,2.97,0.16,0.65,
1.643,0.29,-0.07,1.08,2.98,0.16,0.63,
1.643,0.29,-0.06,1.09,2.98,0.16,0.63,
1.645,0.29,-0.06,1.09,2.98,0.16,0.63,
1.648,0.29,-0.07,1.09,2.98,0.16,0.63,
1.649,0.29,-0.07,1.09,3.03,0.08,0.67,
1.649,0.29,-0.07,1.10,3.03,0.08,0.67,
1.653,0.29,-0.07,1.10,3.03,0.08,0.67,
1.653,0.29,-0.07,1.10,3.03,0.04,0.69,
1.655,0.30,-0.07,1.11,3.03,0.04,0.69,
1.657,0.29,-0.08,1.12,3.03,0.04,0.69,
1.658,0.29,-0.08,1.12,3.09,-0.05,0.79,
1.66,0.29,-0.09,1.12,3.09,-0.05,0.79,
1.662,0.30,-0.10,1.13,3.09,-0.05,0.79,
1.662,0.30,-0.10,1.13,3.12,-0.16,0.94,
1.664,0.30,-0.10,1.13,3.12,-0.16,0.94,
1.667,0.30,-0.10,1.13,3.12,-0.32,1.03,
1.667,0.30,-0.11,1.14,3.12,-0.32,1.03,
1.67,0.30,-0.12,1.14,3.12,-0.32,1.03,
1.672,0.30,-0.12,1.14,3.12,-0.32,1.03,
1.673,0.30,-0.12,1.14,3.17,-0.46,1.10,
1.674,0.30,-0.12,1.15,3.17,-0.46,1.10,
1.677,0.30,-0.12,1.15,3.17,-0.63,1.21,
1.677,0.30,-0.12,1.16,3.17,-0.63,1.21,
1.679,0.30,-0.13,1.16,3.17,-0.63,1.21,
1.682,0.31,-0.13,1.16,3.17,-0.63,1.21,
1.682,0.31,-0.13,1.16,3.23,-0.68,1.28,
1.684,0.31,-0.13,1.16,3.23,-0.68,1.28,
1.692,0.31,-0.13,1.16,3.23,-0.68,1.28,
1.693,0.31,-0.13,1.16,3.24,-0.76,1.40,
1.693,0.31,-0.13,1.16,3.24,-0.76,1.40,
1.694,0.31,-0.13,1.16,3.28,-0.80,1.33,
1.694,0.31,-0.13,1.17,3.28,-0.80,1.33,
1.694,0.32,-0.13,1.16,3.28,-0.80,1.33,
1.697,0.32,-0.13,1.16,3.31,-0.88,1.41,
1.697,0.33,-0.14,1.16,3.31,-0.88,1.41,
1.699,0.33,-0.14,1.16,3.31,-0.88,1.41,
1.702,0.33,-0.15,1.15,3.31,-0.88,1.41,
1.702,0.33,-0.15,1.15,3.41,-0.93,1.37,
1.704,0.33,-0.14,1.15,3.41,-0.93,1.37,
1.706,0.33,-0.15,1.15,3.41,-0.93,1.37,
1.706,0.33,-0.15,1.15,3.46,-1.07,1.31,
1.709,0.33,-0.14,1.14,3.46,-1.07,1.31,
1.712,0.33,-0.14,1.13,3.46,-1.07,1.31,
1.712,0.33,-0.14,1.13,3.48,-1.12,1.23,
1.714,0.34,-0.14,1.12,3.48,-1.12,1.23,
1.717,0.34,-0.14,1.12,3.49,-1.15,1.10,
1.717,0.34,-0.14,1.12,3.49,-1.15,1.10,
1.718,0.34,-0.14,1.11,3.49,-1.15,1.10,
1.721,0.34,-0.13,1.10,3.49,-1.15,1.10,
1.722,0.34,-0.13,1.10,3.54,-1.18,0.94,
1.723,0.33,-0.13,1.10,3.54,-1.18,0.94,
1.727,0.32,-0.12,1.08,3.54,-1.18,0.94,
1.727,0.32,-0.12,1.08,3.54,-1.15,0.82,
1.729,0.32,-0.12,1.07,3.54,-1.15,0.82,
1.732,0.32,-0.12,1.06,3.54,-1.15,0.82,
1.732,0.32,-0.12,1.06,3.44,-1.13,0.66,
1.734,0.31,-0.11,1.04,3.44,-1.13,0.66,
1.736,0.30,-0.11,1.04,3.44,-1.13,0.66,
1.736,0.30,-0.11,1.04,3.36,-1.13,0.40,
1.739,0.29,-0.10,1.03,3.36,-1.13,0.40,
1.741,0.29,-0.10,1.03,3.22,-1.10,0.16,
1.741,0.29,-0.10,1.02,3.22,-1.10,0.16,
1.745,0.28,-0.09,1.02,3.22,-1.10,0.16,
1.747,0.28,-0.08,1.01,3.22,-1.10,0.16,
1.747,0.28,-0.08,1.01,3.08,-1.05,0.01,
1.749,0.28,-0.08,1.01,3.08,-1.05,0.01,
1.752,0.27,-0.07,1.01,3.08,-1.05,0.01,
1.752,0.27,-0.07,1.01,2.97,-1.00,-0.10,
1.755,0.27,-0.07,1.01,2.97,-1.00,-0.10,
1.756,0.26,-0.07,1.02,2.97,-1.00,-0.10,
1.756,0.26,-0.07,1.02,2.91,-0.96,-0.12,
1.758,0.26,-0.06,1.02,2.91,-0.96,-0.12,
1.762,0.26,-0.06,1.03,2.91,-0.96,-0.12,
1.762,0.26,-0.06,1.03,2.84,-0.92,-0.06,
1.764,0.25,-0.06,1.03,2.84,-0.92,-0.06,
1.767,0.25,-0.06,1.03,2.75,-0.87,0.01,
1.767,0.25,-0.05,1.04,2.75,-0.87,0.01,
1.769,0.25,-0.05,1.05,2.75,-0.87,0.01,
1.772,0.25,-0.05,1.05,2.75,-0.87,0.01,
1.772,0.25,-0.05,1.05,2.68,-0.87,0.13,
1.773,0.26,-0.05,1.05,2.68,-0.87,0.13,
1.777,0.26,-0.05,1.05,2.68,-0.87,0.13,
1.777,0.26,-0.05,1.05,2.69,-0.84,0.22,
1.779,0.26,-0.05,1.05,2.69,-0.84,0.22,
1.781,0.26,-0.04,1.04,2.69,-0.84,0.22,
1.782,0.26,-0.04,1.04,2.76,-0.87,0.23,
1.784,0.26,-0.04,1.04,2.76,-0.87,0.23,
1.791,0.26,-0.04,1.03,2.76,-0.87,0.23,
1.791,0.26,-0.04,1.03,2.73,-0.90,0.22,
1.792,0.26,-0.04,1.02,2.73,-0.90,0.22,
1.792,0.26,-0.04,1.02,2.71,-0.92,0.10,
1.792,0.26,-0.04,1.02,2.71,-0.92,0.10,
1.792,0.26,-0.03,1.02,2.71,-0.92,0.10,
1.796,0.26,-0.03,1.01,2.71,-0.92,0.10,
1.796,0.26,-0.03,1.01,2.71,-0.95,0.00,
1.798,0.25,-0.03,1.00,2.71,-0.95,0.00,
1.801,0.25,-0.03,1.00,2.70,-0.92,-0.09,
1.801,0.25,-0.02,1.00,2.70,-0.92,-0.09,
1.803,0.24,-0.01,1.00,2.70,-0.92,-0.09,
1.806,0.25,-0.01,0.99,2.70,-0.92,-0.09,
1.806,0.25,-0.01,0.99,2.61,-0.89,-0.22,
1.807,0.24,-0.00,0.98,2.61,-0.89,-0.22,
1.811,0.24,0.01,0.97,2.61,-0.89,-0.22,
1.814,0.24,0.01,0.97,2.56,-0.81,-0.27,
1.814,0.23,0.01,0.98,2.56,-0.81,-0.27,
1.816,0.23,0.01,0.98,2.51,-0.77,-0.43,
1.816,0.23,0.01,0.97,2.51,-0.77,-0.43,
1.818,0.23,0.01,0.97,2.51,-0.77,-0.43,
1.821,0.23,0.02,0.97,2.51,-0.77,-0.43,
1.821,0.23,0.02,0.97,2.41,-0.75,-0.44,
1.824,0.23,0.01,0.97,2.41,-0.75,-0.44,
1.826,0.23,0.01,0.97,2.41,-0.75,-0.44,
1.826,0.23,0.01,0.97,2.36,-0.75,-0.48,
1.828,0.23,0.01,0.97,2.36,-0.75,-0.48,
1.831,0.22,0.01,0.98,2.36,-0.75,-0.48,
1.831,0.22,0.01,0.98,2.32,-0.82,-0.44,
1.833,0.22,0.01,0.98,2.32,-0.82,-0.44,
1.835,0.22,0.00,0.98,2.32,-0.82,-0.44,
1.836,0.22,0.00,0.98,2.30,-0.87,-0.43,
1.838,0.23,0.00,0.98,2.30,-0.87,-0.43,
1.841,0.23,0.00,0.98,2.27,-0.99,-0.40,
1.842,0.22,0.00,0.98,2.27,-0.99,-0.40,
1.843,0.22,0.00,0.98,2.27,-0.99,-0.40,
1.845,0.22,-0.00,0.99,2.27,-0.99,-0.40,
1.846,0.22,-0.00,0.99,2.28,-1.06,-0.36,
1.848,0.21,-0.00,0.98,2.28,-1.06,-0.36,
1.851,0.21,-0.01,0.98,2.28,-1.06,-0.36,
1.851,0.21,-0.01,0.98,2.20,-1.14,-0.33,
1.855,0.21,-0.01,0.98,2.20,-1.14,-0.33,
1.855,0.20,-0.01,0.98,2.20,-1.14,-0.33,
1.856,0.20,-0.01,0.98,2.13,-1.24,-0.31,
1.857,0.20,-0.01,0.99,2.13,-1.24,-0.31,
1.86,0.20,-0.00,0.99,2.13,-1.24,-0.31,
1.861,0.20,-0.00,0.99,2.06,-1.32,-0.33,
1.863,0.19,-0.01,0.98,2.06,-1.32,-0.33,
1.866,0.19,-0.01,0.98,1.98,-1.34,-0.28,
1.866,0.20,-0.01,0.98,1.98,-1.34,-0.28,
1.868,0.20,-0.00,0.98,1.98,-1.34,-0.28,
1.871,0.20,-0.00,0.98,1.98,-1.34,-0.28,
1.871,0.20,-0.00,0.98,1.95,-1.40,-0.31,
1.873,0.20,0.00,0.97,1.95,-1.40,-0.31,
1.875,0.20,0.01,0.97,1.95,-1.40,-0.31,
1.875,0.20,0.01,0.97,1.98,-1.39,-0.32,
1.878,0.20,0.01,0.97,1.98,-1.39,-0.32,
1.88,0.21,0.02,0.95,1.98,-1.39,-0.32,
1.88,0.21,0.02,0.95,1.99,-1.37,-0.42,
1.883,0.21,0.02,0.94,1.99,-1.37,-0.42,
1.886,0.22,0.02,0.93,1.99,-1.37,-0.42,
1.886,0.22,0.02,0.93,2.04,-1.35,-0.52,
1.889,0.22,0.03,0.92,2.04,-1.35,-0.52,
1.89,0.22,0.03,0.92,2.15,-1.34,-0.75,
1.89,0.22,0.03,0.90,2.15,-1.34,-0.75,
1.892,0.22,0.03,0.89,2.15,-1.34,-0.75,
1.895,0.22,0.04,0.88,2.15,-1.34,-0.75,
1.896,0.22,0.04,0.88,2.19,-1.29,-0.97,
1.898,0.22,0.04,0.87,2.19,-1.29,-0.97,
1.9,0.21,0.04,0.85,2.19,-1.29,-0.97,
1.901,0.21,0.04,0.85,2.19,-1.27,-1.24,
1.902,0.21,0.05,0.84,2.19,-1.27,-1.24,
1.909,0.22,0.06,0.84,2.19,-1.27,-1.24,
1.91,0.22,0.06,0.84,2.16,-1.26,-1.47,
1.91,0.21,0.05,0.84,2.16,-1.26,-1.47,
1.91,0.21,0.06,0.82,2.16,-1.26,-1.47,
1.911,0.21,0.06,0.82,2.15,-1.21,-1.62,
1.911,0.21,0.06,0.82,2.15,-1.21,-1.62,
1.914,0.21,0.06,0.82,2.15,-1.21,-1.62,
1.914,0.21,0.06,0.82,2.13,-1.25,-1.73,
1.916,0.21,0.06,0.81,2.13,-1.25,-1.73,
1.924,0.21,0.07,0.82,2.13,-1.25,-1.73,
1.925,0.21,0.07,0.82,2.15,-1.22,-1.81,
1.925,0.21,0.07,0.82,2.15,-1.22,-1.81,
1.925,0.20,0.07,0.82,2.15,-1.22,-1.81,
1.925,0.20,0.07,0.82,2.07,-1.23,-1.84,
1.926,0.20,0.07,0.82,2.07,-1.23,-1.84,
1.93,0.20,0.08,0.82,2.07,-1.23,-1.84,
1.93,0.20,0.08,0.82,2.07,-1.19,-1.79,
1.932,0.19,0.08,0.83,2.07,-1.19,-1.79,
1.935,0.19,0.09,0.84,2.07,-1.19,-1.79,
1.935,0.19,0.09,0.84,2.01,-1.17,-1.75,
1.937,0.19,0.09,0.85,2.01,-1.17,-1.75,
1.94,0.19,0.09,0.85,2.01,-1.17,-1.75,
1.94,0.19,0.09,0.85,1.92,-1.14,-1.59,
1.941,0.19,0.09,0.86,1.92,-1.14,-1.59,
1.944,0.18,0.09,0.88,1.92,-1.14,-1.59,
1.944,0.18,0.09,0.88,1.88,-1.09,-1.46,
1.946,0.18,0.10,0.88,1.88,-1.09,-1.46,
1.95,0.18,0.10,0.88,1.87,-1.10,-1.28,
1.95,0.18,0.10,0.88,1.87,-1.10,-1.28,
1.952,0.18,0.09,0.88,1.87,-1.10,-1.28,
1.955,0.18,0.09,0.89,1.87,-1.10,-1.28,
1.955,0.18,0.09,0.89,1.82,-1.08,-1.17,
1.957,0.17,0.09,0.88,1.82,-1.08,-1.17,
1.959,0.17,0.08,0.87,1.82,-1.08,-1.17,
1.959,0.17,0.08,0.87,1.80,-1.17,-1.10,
1.961,0.17,0.08,0.87,1.80,-1.17,-1.10,
1.965,0.17,0.08,0.87,1.76,-1.23,-1.16,
1.965,0.17,0.09,0.88,1.76,-1.23,-1.16,
1.967,0.16,0.09,0.87,1.76,-1.23,-1.16,
1.969,0.16,0.09,0.86,1.76,-1.23,-1.16,
1.969,0.16,0.09,0.86,1.73,-1.26,-1.20,
1.973,0.16,0.09,0.85,1.73,-1.26,-1.20,
1.973,0.16,0.09,0.84,1.73,-1.26,-1.20,
1.975,0.16,0.09,0.84,1.63,-1.26,-1.30,
1.98,0.15,0.09,0.83,1.63,-1.26,-1.30,
1.98,0.15,0.09,0.81,1.63,-1.26,-1.30,
1.98,0.15,0.09,0.81,1.60,-1.27,-1.47,
1.981,0.15,0.09,0.79,1.60,-1.27,-1.47,
1.984,0.14,0.08,0.79,1.60,-1.27,-1.47,
1.984,0.14,0.08,0.79,1.54,-1.25,-1.74,
1.987,0.14,0.08,0.78,1.54,-1.25,-1.74,
1.988,0.14,0.08,0.78,1.49,-1.33,-1.99,
1.989,0.14,0.09,0.76,1.49,-1.33,-1.99,
1.991,0.14,0.08,0.75,1.49,-1.33,-1.99,
1.994,0.13,0.09,0.75,1.49,-1.33,-1.99,
1.994,0.13,0.09,0.75,1.45,-1.36,-2.20,
1.996,0.13,0.08,0.74,1.45,-1.36,-2.20,
2.0,0.13,0.08,0.74,1.40,-1.37,-2.37,
2.001,0.13,0.09,0.74,1.40,-1.37,-2.37,
2.001,0.13,0.09,0.74,1.40,-1.37,-2.37,
2.009,0.13,0.08,0.74,1.40,-1.37,-2.37,
2.01,0.13,0.08,0.74,1.36,-1.38,-2.43,
2.01,0.13,0.08,0.74,1.36,-1.38,-2.43,
2.01,0.13,0.09,0.75,1.36,-1.38,-2.43,
2.01,0.13,0.09,0.75,1.34,-1.40,-2.43,
2.011,0.13,0.09,0.76,1.34,-1.40,-2.43,
2.013,0.13,0.09,0.76,1.35,-1.39,-2.39,
2.014,0.13,0.09,0.77,1.35,-1.39,-2.39,
2.015,0.13,0.09,0.78,1.35,-1.39,-2.39,
2.018,0.13,0.10,0.79,1.35,-1.39,-2.39,
2.018,0.13,0.10,0.79,1.37,-1.36,-2.24,
2.021,0.13,0.10,0.79,1.37,-1.36,-2.24,
2.023,0.13,0.10,0.81,1.37,-1.36,-2.24,
2.023,0.13,0.10,0.81,1.35,-1.31,-2.00,
2.026,0.12,0.11,0.82,1.35,-1.31,-2.00,
2.029,0.13,0.12,0.82,1.35,-1.31,-2.00,
2.029,0.13,0.12,0.82,1.33,-1.25,-1.85,
2.031,0.12,0.12,0.84,1.33,-1.25,-1.85,
2.033,0.11,0.13,0.85,1.33,-1.25,-1.85,
2.034,0.11,0.13,0.85,1.27,-1.13,-1.67,
2.036,0.11,0.13,0.86,1.27,-1.13,-1.67,
2.038,0.11,0.13,0.86,1.19,-1.07,-1.40,
2.039,0.11,0.13,0.88,1.19,-1.07,-1.40,
2.041,0.10,0.13,0.89,1.19,-1.07,-1.40,
2.043,0.10,0.13,0.90,1.19,-1.07,-1.40,
2.043,0.10,0.13,0.90,1.11,-1.00,-1.15,
2.046,0.10,0.13,0.90,1.11,-1.00,-1.15,
2.048,0.09,0.14,0.89,1.11,-1.00,-1.15,
2.049,0.09,0.14,0.89,1.05,-0.97,-0.93,
2.051,0.09,0.14,0.90,1.05,-0.97,-0.93,
2.053,0.09,0.14,0.89,1.05,-0.97,-0.93,
2.053,0.09,0.14,0.89,0.98,-0.95,-0.91,
2.055,0.08,0.14,0.89,0.98,-0.95,-0.91,
2.058,0.08,0.15,0.88,0.98,-0.95,-0.91,
2.058,0.08,0.15,0.88,0.94,-0.95,-0.93,
2.061,0.07,0.15,0.87,0.94,-0.95,-0.93,
2.064,0.07,0.14,0.86,0.94,-0.95,-0.93,
2.064,0.07,0.14,0.86,0.81,-0.92,-1.01,
2.066,0.06,0.15,0.85,0.81,-0.92,-1.01,
2.069,0.06,0.14,0.85,0.81,-0.92,-1.01,
2.069,0.06,0.14,0.85,0.71,-0.92,-1.17,
2.072,0.06,0.15,0.84,0.71,-0.92,-1.17,
2.073,0.06,0.15,0.83,0.71,-0.92,-1.17,
2.073,0.06,0.15,0.83,0.66,-0.93,-1.30,
2.075,0.06,0.15,0.83,0.66,-0.93,-1.30,
2.079,0.06,0.15,0.83,0.66,-0.93,-1.30,
2.079,0.06,0.15,0.83,0.61,-0.93,-1.42,
2.081,0.05,0.15,0.82,0.61,-0.93,-1.42,
2.083,0.06,0.15,0.81,0.61,-0.93,-1.42,
2.083,0.06,0.15,0.81,0.60,-0.96,-1.49,
2.085,0.06,0.15,0.80,0.60,-0.96,-1.49,
2.088,0.06,0.15,0.80,0.59,-0.97,-1.62,
2.089,0.06,0.15,0.79,0.59,-0.97,-1.62,
2.091,0.06,0.16,0.78,0.59,-0.97,-1.62,
2.093,0.07,0.16,0.77,0.59,-0.97,-1.62,
2.094,0.07,0.16,0.77,0.64,-0.97,-1.85,
2.095,0.07,0.15,0.76,0.64,-0.97,-1.85,
2.099,0.07,0.16,0.76,0.64,-0.97,-1.85,
2.099,0.07,0.16,0.76,0.68,-0.97,-2.00,
2.1,0.08,0.17,0.75,0.68,-0.97,-2.00,
2.103,0.08,0.16,0.74,0.68,-0.97,-2.00,
2.103,0.08,0.16,0.74,0.74,-0.99,-2.17,
2.106,0.09,0.17,0.74,0.74,-0.99,-2.17,
2.107,0.09,0.17,0.73,0.74,-0.99,-2.17,
2.108,0.09,0.17,0.73,0.81,-0.94,-2.27,
2.111,0.08,0.18,0.73,0.81,-0.94,-2.27,
2.113,0.08,0.18,0.73,0.88,-0.92,-2.38,
2.113,0.09,0.18,0.73,0.88,-0.92,-2.38,
2.115,0.08,0.18,0.72,0.88,-0.92,-2.38,
2.118,0.08,0.19,0.72,0.88,-0.92,-2.38,
2.118,0.08,0.19,0.72,0.86,-0.85,-2.43,
2.12,0.07,0.19,0.72,0.86,-0.85,-2.43,
2.13,0.07,0.19,0.72,0.86,-0.85,-2.43,
2.131,0.07,0.19,0.72,0.83,-0.79,-2.49,
2.131,0.06,0.20,0.72,0.83,-0.79,-2.49,
2.132,0.06,0.20,0.72,0.73,-0.78,-2.51,
2.132,0.05,0.20,0.72,0.73,-0.78,-2.51,
2.132,0.06,0.20,0.72,0.73,-0.78,-2.51,
2.133,0.05,0.20,0.73,0.73,-0.78,-2.51,
2.133,0.05,0.20,0.73,0.60,-0.73,-2.46,
2.134,0.04,0.21,0.73,0.60,-0.73,-2.46,
2.15,0.04,0.21,0.73,0.55,-0.70,-2.43,
2.151,0.04,0.21,0.73,0.55,-0.70,-2.43,
2.151,0.04,0.22,0.74,0.55,-0.70,-2.43,
2.154,0.04,0.22,0.74,0.44,-0.61,-2.34,
2.154,0.04,0.22,0.74,0.44,-0.61,-2.34,
2.154,0.04,0.22,0.74,0.44,-0.61,-2.34,
2.155,0.04,0.23,0.75,0.44,-0.61,-2.34,
2.155,0.04,0.23,0.75,0.43,-0.57,-2.29,
2.155,0.04,0.23,0.75,0.43,-0.57,-2.29,
2.155,0.05,0.23,0.75,0.43,-0.57,-2.29,
2.155,0.05,0.23,0.75,0.38,-0.49,-2.20,
2.156,0.05,0.23,0.76,0.38,-0.49,-2.20,
2.158,0.06,0.24,0.76,0.38,-0.49,-2.20,
2.159,0.06,0.24,0.76,0.47,-0.44,-2.14,
2.16,0.06,0.24,0.76,0.47,-0.44,-2.14,
2.162,0.06,0.24,0.76,0.58,-0.41,-2.09,
2.162,0.07,0.23,0.76,0.58,-0.41,-2.09,
2.164,0.07,0.23,0.76,0.58,-0.41,-2.09,
2.167,0.06,0.23,0.75,0.58,-0.41,-2.09,
2.167,0.06,0.23,0.75,0.66,-0.42,-2.04,
2.169,0.06,0.23,0.75,0.66,-0.42,-2.04,
2.172,0.06,0.23,0.76,0.66,-0.42,-2.04,
2.172,0.06,0.23,0.76,0.68,-0.45,-2.10,
2.174,0.06,0.23,0.76,0.68,-0.45,-2.10,
2.177,0.06,0.23,0.75,0.68,-0.45,-2.10,
2.177,0.06,0.23,0.75,0.67,-0.44,-2.11,
2.179,0.06,0.23,0.76,0.67,-0.44,-2.11,
2.182,0.05,0.23,0.76,0.67,-0.44,-2.11,
2.182,0.05,0.23,0.76,0.66,-0.45,-2.12,
2.184,0.05,0.23,0.76,0.66,-0.45,-2.12,
2.187,0.05,0.23,0.76,0.61,-0.42,-2.09,
2.187,0.05,0.23,0.77,0.61,-0.42,-2.09,
2.189,0.04,0.23,0.76,0.61,-0.42,-2.09,
2.192,0.04,0.22,0.76,0.61,-0.42,-2.09,
2.192,0.04,0.22,0.76,0.56,-0.43,-2.01,
2.194,0.04,0.22,0.76,0.56,-0.43,-2.01,
2.197,0.03,0.22,0.77,0.56,-0.43,-2.01,
2.198,0.03,0.22,0.77,0.51,-0.47,-2.05,
2.199,0.02,0.22,0.78,0.51,-0.47,-2.05,
2.203,0.02,0.22,0.79,0.51,-0.47,-2.05,
2.203,0.02,0.22,0.79,0.44,-0.49,-2.00,
2.203,0.02,0.22,0.79,0.44,-0.49,-2.00,
2.206,0.01,0.22,0.79,0.44,-0.49,-2.00,
2.207,0.01,0.22,0.79,0.29,-0.51,-1.81,
2.209,0.01,0.21,0.80,0.29,-0.51,-1.81,
2.212,0.01,0.21,0.80,0.24,-0.50,-1.77,
2.212,0.01,0.21,0.80,0.24,-0.50,-1.77,
2.215,0.01,0.22,0.80,0.24,-0.50,-1.77,
2.217,0.00,0.21,0.80,0.24,-0.50,-1.77,
2.217,0.00,0.21,0.80,0.19,-0.54,-1.69,
2.219,0.00,0.21,0.81,0.19,-0.54,-1.69,
2.228,-0.00,0.21,0.81,0.19,-0.54,-1.69,
2.229,-0.00,0.21,0.81,0.14,-0.54,-1.66,
2.229,-0.00,0.21,0.81,0.14,-0.54,-1.66,
2.23,-0.01,0.21,0.81,0.14,-0.54,-1.66,
2.23,-0.01,0.21,0.81,0.08,-0.58,-1.59,
2.23,-0.01,0.21,0.82,0.08,-0.58,-1.59,
2.231,-0.01,0.21,0.83,0.08,-0.58,-1.59,
2.231,-0.01,0.21,0.83,0.02,-0.60,-1.52,
2.234,-0.02,0.21,0.83,0.02,-0.60,-1.52,
2.237,-0.02,0.21,0.83,-0.06,-0.57,-1.44,
2.237,-0.02,0.20,0.84,-0.06,-0.57,-1.44,
2.252,-0.03,0.20,0.85,-0.06,-0.57,-1.44,
2.253,-0.04,0.21,0.85,-0.06,-0.57,-1.44,
2.253,-0.04,0.21,0.85,-0.15,-0.58,-1.29,
2.254,-0.04,0.20,0.86,-0.15,-0.58,-1.29,
2.254,-0.04,0.20,0.86,-0.15,-0.58,-1.29,
2.254,-0.04,0.20,0.86,-0.26,-0.60,-1.16,
2.254,-0.04,0.20,0.86,-0.26,-0.60,-1.16,
2.254,-0.04,0.20,0.86,-0.32,-0.60,-1.05,
2.255,-0.04,0.20,0.87,-0.32,-0.60,-1.05,
2.255,-0.04,0.20,0.86,-0.32,-0.60,-1.05,
2.256,-0.04,0.19,0.86,-0.32,-0.60,-1.05,
2.257,-0.04,0.19,0.86,-0.36,-0.64,-1.02,
2.258,-0.04,0.19,0.85,-0.36,-0.64,-1.02,
2.261,-0.04,0.19,0.85,-0.38,-0.67,-1.08,
2.262,-0.04,0.19,0.85,-0.38,-0.67,-1.08,
2.264,-0.04,0.18,0.84,-0.38,-0.67,-1.08,
2.267,-0.04,0.18,0.83,-0.38,-0.67,-1.08,
2.267,-0.04,0.18,0.83,-0.38,-0.74,-1.15,
2.268,-0.05,0.17,0.82,-0.38,-0.74,-1.15,
2.271,-0.05,0.17,0.81,-0.38,-0.74,-1.15,
2.271,-0.05,0.17,0.81,-0.38,-0.81,-1.35,
2.274,-0.05,0.17,0.81,-0.38,-0.81,-1.35,
2.276,-0.06,0.17,0.80,-0.38,-0.81,-1.35,
2.276,-0.06,0.17,0.80,-0.45,-0.90,-1.50,
2.278,-0.06,0.17,0.80,-0.45,-0.90,-1.50,
2.281,-0.06,0.18,0.80,-0.45,-0.90,-1.50,
2.281,-0.06,0.18,0.80,-0.50,-0.87,-1.58,
2.284,-0.06,0.18,0.80,-0.50,-0.87,-1.58,
2.286,-0.06,0.18,0.80,-0.55,-0.84,-1.64,
2.286,-0.07,0.18,0.80,-0.55,-0.84,-1.64,
2.289,-0.07,0.19,0.80,-0.55,-0.84,-1.64,
2.291,-0.07,0.19,0.80,-0.55,-0.84,-1.64,
2.291,-0.07,0.19,0.80,-0.59,-0.78,-1.66,
2.293,-0.07,0.19,0.80,-0.59,-0.78,-1.66,
2.296,-0.08,0.19,0.81,-0.59,-0.78,-1.66,
2.296,-0.08,0.19,0.81,-0.63,-0.72,-1.63,
2.298,-0.08,0.19,0.81,-0.63,-0.72,-1.63,
2.301,-0.08,0.19,0.81,-0.63,-0.72,-1.63,
2.302,-0.08,0.19,0.81,-0.67,-0.70,-1.63,
2.304,-0.09,0.19,0.81,-0.67,-0.70,-1.63,
2.307,-0.09,0.19,0.81,-0.67,-0.70,-1.63,
2.311,-0.09,0.19,0.81,-0.73,-0.66,-1.55,
2.312,-0.10,0.19,0.82,-0.73,-0.66,-1.55,
2.312,-0.10,0.19,0.82,-0.80,-0.65,-1.54,
2.312,-0.10,0.19,0.82,-0.80,-0.65,-1.54,
2.313,-0.11,0.19,0.83,-0.80,-0.65,-1.54,
2.315,-0.11,0.19,0.83,-0.89,-0.63,-1.44,
2.316,-0.11,0.19,0.84,-0.89,-0.63,-1.44,
2.317,-0.11,0.20,0.84,-0.89,-0.63,-1.44,
2.32,-0.11,0.20,0.85,-0.89,-0.63,-1.44,
2.32,-0.11,0.20,0.85,-0.94,-0.62,-1.32,
2.322,-0.12,0.20,0.85,-0.94,-0.62,-1.32,
2.325,-0.12,0.20,0.85,-0.99,-0.55,-1.19,
2.325,-0.12,0.19,0.85,-0.99,-0.55,-1.19,
2.328,-0.12,0.20,0.85,-0.99,-0.55,-1.19,
2.33,-0.12,0.20,0.85,-0.99,-0.55,-1.19,
2.33,-0.12,0.20,0.85,-1.03,-0.55,-1.13,
2.332,-0.13,0.19,0.85,-1.03,-0.55,-1.13,
2.335,-0.13,0.19,0.85,-1.03,-0.55,-1.13,
2.336,-0.13,0.19,0.85,-1.06,-0.54,-1.14,
2.338,-0.13,0.19,0.84,-1.06,-0.54,-1.14,
2.344,-0.14,0.18,0.84,-1.06,-0.54,-1.14,
2.344,-0.14,0.18,0.84,-1.10,-0.62,-1.19,
2.344,-0.14,0.18,0.83,-1.10,-0.62,-1.19,
2.346,-0.14,0.18,0.83,-1.10,-0.62,-1.19,
2.349,-0.14,0.18,0.83,-1.15,-0.62,-1.28,
2.35,-0.14,0.18,0.82,-1.15,-0.62,-1.28,
2.35,-0.14,0.18,0.82,-1.15,-0.62,-1.28,
2.35,-0.14,0.18,0.82,-1.17,-0.64,-1.37,
2.354,-0.14,0.18,0.82,-1.17,-0.64,-1.37,
2.357,-0.14,0.19,0.81,-1.17,-0.64,-1.37,
2.358,-0.14,0.19,0.81,-1.16,-0.64,-1.43,
2.358,-0.14,0.19,0.81,-1.16,-0.64,-1.43,
2.359,-0.14,0.19,0.81,-1.14,-0.59,-1.50,
2.36,-0.14,0.19,0.80,-1.14,-0.59,-1.50,
2.362,-0.14,0.20,0.79,-1.14,-0.59,-1.50,
2.365,-0.14,0.21,0.79,-1.14,-0.59,-1.50,
2.365,-0.14,0.21,0.79,-1.15,-0.51,-1.65,
2.367,-0.14,0.21,0.78,-1.15,-0.51,-1.65,
2.37,-0.13,0.22,0.77,-1.15,-0.51,-1.65,
2.37,-0.13,0.22,0.77,-1.11,-0.39,-1.74,
2.372,-0.13,0.21,0.77,-1.11,-0.39,-1.74,
2.375,-0.12,0.22,0.77,-1.11,-0.39,-1.74,
2.375,-0.12,0.22,0.77,-1.03,-0.30,-1.89,
2.377,-0.12,0.22,0.77,-1.03,-0.30,-1.89,
2.38,-0.12,0.22,0.76,-1.03,-0.30,-1.89,
2.38,-0.12,0.22,0.76,-0.96,-0.25,-1.95,
2.382,-0.12,0.22,0.77,-0.96,-0.25,-1.95,
2.385,-0.12,0.22,0.77,-0.94,-0.20,-2.00,
2.386,-0.12,0.22,0.76,-0.94,-0.20,-2.00,
2.387,-0.12,0.23,0.77,-0.94,-0.20,-2.00,
2.39,-0.12,0.23,0.77,-0.94,-0.20,-2.00,
2.391,-0.12,0.23,0.77,-0.92,-0.17,-2.01,
2.392,-0.13,0.23,0.78,-0.92,-0.17,-2.01,
2.394,-0.13,0.23,0.78,-0.92,-0.17,-2.01,
2.394,-0.13,0.23,0.78,-0.90,-0.07,-1.94,
2.397,-0.13,0.23,0.80,-0.90,-0.07,-1.94,
2.4,-0.13,0.23,0.81,-0.90,-0.07,-1.94,
2.4,-0.13,0.23,0.81,-0.95,-0.05,-1.85,
2.402,-0.13,0.23,0.82,-0.95,-0.05,-1.85,
2.405,-0.13,0.23,0.82,-0.95,-0.05,-1.85,
2.405,-0.13,0.23,0.82,-0.97,0.00,-1.66,
2.407,-0.13,0.23,0.84,-0.97,0.00,-1.66,
2.41,-0.14,0.23,0.86,-0.97,0.00,-1.66,
2.41,-0.14,0.23,0.86,-0.99,-0.00,-1.48,
2.411,-0.14,0.22,0.87,-0.99,-0.00,-1.48,
2.415,-0.14,0.23,0.88,-0.99,-0.00,-1.48,
2.415,-0.14,0.23,0.88,-1.03,0.02,-1.23,
2.417,-0.14,0.23,0.89,-1.03,0.02,-1.23,
2.42,-0.13,0.22,0.90,-1.03,0.02,-1.23,
2.42,-0.13,0.22,0.90,-1.04,0.01,-0.97,
2.422,-0.12,0.22,0.91,-1.04,0.01,-0.97,
2.425,-0.11,0.22,0.92,-1.04,0.01,-0.97,
2.425,-0.11,0.22,0.92,-1.00,0.03,-0.76,
2.426,-0.10,0.21,0.92,-1.00,0.03,-0.76,
2.43,-0.10,0.21,0.92,-0.86,-0.01,-0.56,
2.43,-0.09,0.21,0.93,-0.86,-0.01,-0.56,
2.432,-0.08,0.21,0.94,-0.86,-0.01,-0.56,
2.434,-0.08,0.21,0.94,-0.67,-0.05,-0.45,
2.435,-0.08,0.22,0.94,-0.67,-0.05,-0.45,
2.437,-0.07,0.21,0.95,-0.67,-0.05,-0.45,
2.44,-0.07,0.21,0.95,-0.67,-0.05,-0.45,
2.441,-0.07,0.21,0.95,-0.52,-0.00,-0.33,
2.441,-0.07,0.22,0.96,-0.52,-0.00,-0.33,
2.444,-0.07,0.22,0.96,-0.52,-0.00,-0.33,
2.444,-0.07,0.22,0.96,-0.45,0.01,-0.26,
2.447,-0.07,0.23,0.96,-0.45,0.01,-0.26,
2.449,-0.07,0.23,0.96,-0.45,0.01,-0.26,
2.45,-0.07,0.23,0.96,-0.42,0.10,-0.16,
2.452,-0.07,0.23,0.97,-0.42,0.10,-0.16,
2.463,-0.07,0.24,0.97,-0.42,0.10,-0.16,
2.463,-0.07,0.24,0.97,-0.43,0.18,-0.13,
2.464,-0.08,0.24,0.97,-0.43,0.18,-0.13,
2.464,-0.08,0.24,0.97,-0.45,0.28,-0.08,
2.464,-0.08,0.24,0.97,-0.45,0.28,-0.08,
2.464,-0.08,0.25,0.98,-0.45,0.28,-0.08,
2.464,-0.08,0.25,0.98,-0.50,0.37,-0.05,
2.465,-0.09,0.24,0.97,-0.50,0.37,-0.05,
2.469,-0.09,0.24,0.98,-0.50,0.37,-0.05,
2.47,-0.09,0.24,0.98,-0.50,0.37,-0.05,
2.47,-0.09,0.24,0.98,-0.56,0.38,-0.00,
2.473,-0.09,0.24,0.97,-0.56,0.38,-0.00,
2.474,-0.09,0.24,0.97,-0.58,0.39,-0.01,
2.474,-0.10,0.23,0.97,-0.58,0.39,-0.01,
2.477,-0.10,0.23,0.97,-0.58,0.39,-0.01,
2.479,-0.10,0.22,0.97,-0.58,0.39,-0.01,
2.479,-0.10,0.22,0.97,-0.65,0.32,-0.02,
2.481,-0.10,0.22,0.97,-0.65,0.32,-0.02,
2.484,-0.10,0.22,0.97,-0.69,0.25,-0.08,
2.484,-0.11,0.21,0.97,-0.69,0.25,-0.08,
2.486,-0.10,0.21,0.97,-0.69,0.25,-0.08,
2.488,-0.11,0.20,0.98,-0.69,0.25,-0.08,
2.488,-0.11,0.20,0.98,-0.72,0.12,-0.02,
2.491,-0.11,0.20,0.98,-0.72,0.12,-0.02,
2.494,-0.11,0.19,0.98,-0.72,0.12,-0.02,
2.494,-0.11,0.19,0.98,-0.72,0.03,-0.01,
2.496,-0.12,0.19,0.98,-0.72,0.03,-0.01,
2.499,-0.12,0.19,0.98,-0.72,0.03,-0.01,
2.499,-0.12,0.19,0.98,-0.79,-0.07,0.05,
2.501,-0.13,0.19,0.98,-0.79,-0.07,0.05,
2.504,-0.13,0.19,0.98,-0.79,-0.07,0.05,
2.504,-0.13,0.19,0.98,-0.89,-0.14,0.02,
2.506,-0.13,0.18,0.99,-0.89,-0.14,0.02,
2.509,-0.13,0.18,0.99,-0.93,-0.13,0.05,
2.509,-0.13,0.19,0.97,-0.93,-0.13,0.05,
2.511,-0.13,0.19,0.98,-0.93,-0.13,0.05,
2.514,-0.13,0.19,0.99,-0.93,-0.13,0.05,
2.514,-0.13,0.19,0.99,-0.97,-0.15,0.03,
2.516,-0.13,0.19,0.99,-0.97,-0.15,0.03,
2.519,-0.13,0.19,0.98,-0.97,-0.15,0.03,
2.519,-0.13,0.19,0.98,-0.96,-0.10,0.05,
2.521,-0.13,0.19,0.99,-0.96,-0.10,0.05,
2.523,-0.14,0.19,0.98,-0.96,-0.10,0.05,
2.524,-0.14,0.19,0.98,-0.97,-0.09,0.08,
2.526,-0.14,0.20,0.98,-0.97,-0.09,0.08,
2.529,-0.14,0.19,0.98,-0.97,-0.09,0.08,
2.529,-0.14,0.19,0.98,-0.99,-0.07,0.06,
2.531,-0.14,0.19,0.99,-0.99,-0.07,0.06,
2.534,-0.14,0.19,0.99,-1.00,-0.03,0.06,
2.534,-0.14,0.20,0.98,-1.00,-0.03,0.06,
2.536,-0.14,0.20,0.98,-1.00,-0.03,0.06,
2.538,-0.15,0.19,0.98,-1.00,-0.03,0.06,
2.539,-0.15,0.19,0.98,-1.04,-0.04,0.07,
2.541,-0.15,0.19,0.98,-1.04,-0.04,0.07,
2.544,-0.16,0.19,0.99,-1.04,-0.04,0.07,
2.544,-0.16,0.19,0.99,-1.05,-0.03,0.00,
2.545,-0.16,0.19,0.99,-1.05,-0.03,0.00,
2.549,-0.16,0.19,0.99,-1.15,-0.06,0.07,
2.549,-0.17,0.19,0.99,-1.15,-0.06,0.07,
2.551,-0.18,0.19,1.00,-1.15,-0.06,0.07,
2.553,-0.18,0.19,1.00,-1.27,-0.05,0.12,
2.554,-0.18,0.19,1.00,-1.27,-0.05,0.12,
2.555,-0.18,0.19,1.00,-1.27,-0.05,0.12,
2.563,-0.18,0.19,1.00,-1.39,-0.06,0.19,
2.563,-0.19,0.19,1.00,-1.39,-0.06,0.19,
2.563,-0.19,0.18,1.00,-1.39,-0.06,0.19,
2.564,-0.19,0.18,1.00,-1.39,-0.06,0.19,
2.564,-0.19,0.18,1.00,-1.44,-0.07,0.18,
2.565,-0.19,0.18,1.00,-1.44,-0.07,0.18,
2.568,-0.18,0.17,1.00,-1.44,-0.07,0.18,
2.568,-0.18,0.17,1.00,-1.48,-0.11,0.21,
2.57,-0.19,0.17,1.00,-1.48,-0.11,0.21,
2.576,-0.18,0.16,0.99,-1.48,-0.11,0.21,
2.577,-0.18,0.16,0.99,-1.43,-0.18,0.23,
2.577,-0.18,0.16,1.00,-1.43,-0.18,0.23,
2.577,-0.18,0.16,0.99,-1.43,-0.18,0.23,
2.577,-0.18,0.16,0.99,-1.44,-0.22,0.16,
2.58,-0.18,0.16,0.99,-1.44,-0.22,0.16,
2.583,-0.18,0.16,0.99,-1.43,-0.31,0.16,
2.584,-0.18,0.15,0.99,-1.43,-0.31,0.16,
2.585,-0.19,0.15,0.99,-1.43,-0.31,0.16,
2.588,-0.18,0.15,0.98,-1.43,-0.31,0.16,
2.588,-0.18,0.15,0.98,-1.41,-0.32,0.08,
2.591,-0.19,0.16,0.98,-1.41,-0.32,0.08,
2.593,-0.19,0.15,0.98,-1.41,-0.32,0.08,
2.593,-0.19,0.15,0.98,-1.42,-0.38,0.06,
2.596,-0.20,0.16,0.98,-1.42,-0.38,0.06,
2.598,-0.20,0.15,0.99,-1.42,-0.38,0.06,
2.598,-0.20,0.15,0.99,-1.45,-0.34,0.04,
2.6,-0.19,0.14,1.02,-1.45,-0.34,0.04,
2.602,-0.19,0.13,1.06,-1.45,-0.34,0.04,
2.603,-0.19,0.13,1.06,-1.55,-0.33,0.06,
2.605,-0.20,0.12,1.11,-1.55,-0.33,0.06,
2.607,-0.20,0.12,1.11,-1.48,-0.51,0.61,
2.608,-0.21,0.11,1.16,-1.48,-0.51,0.61,
2.61,-0.22,0.11,1.19,-1.48,-0.51,0.61,
2.612,-0.23,0.12,1.18,-1.48,-0.51,0.61,
2.613,-0.23,0.12,1.18,-1.57,-0.72,1.54,
2.616,-0.24,0.13,1.16,-1.57,-0.72,1.54,
2.618,-0.24,0.14,1.14,-1.57,-0.72,1.54,
2.618,-0.24,0.14,1.14,-1.76,-0.70,2.03,
2.621,-0.24,0.14,1.13,-1.76,-0.70,2.03,
2.623,-0.24,0.14,1.11,-1.76,-0.70,2.03,
2.623,-0.24,0.14,1.11,-1.90,-0.54,1.70,
2.626,-0.23,0.13,1.08,-1.90,-0.54,1.70,
2.628,-0.23,0.13,1.06,-1.90,-0.54,1.70,
2.628,-0.23,0.13,1.06,-1.94,-0.50,1.35,
2.63,-0.23,0.13,1.04,-1.94,-0.50,1.35,
2.632,-0.23,0.13,1.04,-1.85,-0.60,0.90,
2.633,-0.22,0.13,1.02,-1.85,-0.60,0.90,
2.635,-0.22,0.14,0.99,-1.85,-0.60,0.90,
2.638,-0.22,0.15,0.97,-1.85,-0.60,0.90,
2.638,-0.22,0.15,0.97,-1.77,-0.60,0.48,
2.639,-0.22,0.16,0.96,-1.77,-0.60,0.48,
2.642,-0.22,0.16,0.95,-1.77,-0.60,0.48,
2.643,-0.22,0.16,0.95,-1.73,-0.53,-0.00,
2.644,-0.21,0.17,0.95,-1.73,-0.53,-0.00,
2.647,-0.21,0.16,0.95,-1.73,-0.53,-0.00,
2.647,-0.21,0.16,0.95,-1.70,-0.40,-0.20,
2.649,-0.20,0.16,0.95,-1.70,-0.40,-0.20,
2.652,-0.18,0.15,0.95,-1.70,-0.40,-0.20,
2.652,-0.18,0.15,0.95,-1.63,-0.38,-0.25,
2.654,-0.17,0.15,0.96,-1.63,-0.38,-0.25,
2.664,-0.17,0.15,0.96,-1.41,-0.48,-0.26,
2.664,-0.16,0.15,0.97,-1.41,-0.48,-0.26,
2.666,-0.15,0.14,0.97,-1.41,-0.48,-0.26,
2.667,-0.15,0.14,0.97,-1.41,-0.48,-0.26,
2.667,-0.15,0.14,0.97,-1.18,-0.56,-0.15,
2.667,-0.15,0.14,0.97,-1.18,-0.56,-0.15,
2.667,-0.14,0.15,0.97,-1.18,-0.56,-0.15,
2.667,-0.14,0.15,0.97,-1.07,-0.64,-0.08,
2.669,-0.14,0.15,0.97,-1.07,-0.64,-0.08,
2.671,-0.15,0.16,0.97,-1.07,-0.64,-0.08,
2.672,-0.15,0.16,0.97,-1.01,-0.61,-0.07,
2.673,-0.15,0.16,0.98,-1.01,-0.61,-0.07,
2.676,-0.15,0.17,0.99,-1.01,-0.61,-0.07,
2.676,-0.15,0.17,0.99,-1.01,-0.48,-0.05,
2.679,-0.15,0.18,0.99,-1.01,-0.48,-0.05,
2.682,-0.15,0.18,0.99,-1.01,-0.38,0.06,
2.682,-0.15,0.19,0.98,-1.01,-0.38,0.06,
2.684,-0.15,0.19,0.99,-1.01,-0.38,0.06,
2.687,-0.14,0.19,0.99,-1.01,-0.38,0.06,
2.687,-0.14,0.19,0.99,-1.03,-0.20,0.08,
2.689,-0.14,0.20,0.98,-1.03,-0.20,0.08,
2.692,-0.14,0.20,0.98,-1.03,-0.20,0.08,
2.692,-0.14,0.20,0.98,-0.97,-0.13,0.11,
2.694,-0.14,0.21,0.98,-0.97,-0.13,0.11,
2.697,-0.13,0.21,0.98,-0.97,-0.13,0.11,
2.697,-0.13,0.21,0.98,-0.90,-0.01,0.07,
2.699,-0.12,0.22,0.97,-0.90,-0.01,0.07,
2.701,-0.12,0.21,0.97,-0.90,-0.01,0.07,
2.702,-0.12,0.21,0.97,-0.86,0.05,0.03,
2.703,-0.12,0.22,0.97,-0.86,0.05,0.03,
2.708,-0.12,0.22,0.97,-0.72,0.10,-0.08,
2.708,-0.12,0.22,0.96,-0.72,0.10,-0.08,
2.709,-0.11,0.21,0.96,-0.72,0.10,-0.08,
2.711,-0.11,0.22,0.96,-0.72,0.10,-0.08,
2.711,-0.11,0.22,0.96,-0.71,0.14,-0.11,
2.714,-0.11,0.22,0.96,-0.71,0.14,-0.11,
2.717,-0.11,0.22,0.96,-0.63,0.14,-0.13,
2.717,-0.10,0.22,0.96,-0.63,0.14,-0.13,
2.719,-0.10,0.22,0.96,-0.63,0.14,-0.13,
2.722,-0.10,0.22,0.96,-0.57,0.19,-0.16,
2.722,-0.10,0.22,0.96,-0.57,0.19,-0.16,
2.724,-0.09,0.22,0.97,-0.57,0.19,-0.16,
2.726,-0.10,0.22,0.97,-0.57,0.19,-0.16,
2.727,-0.10,0.22,0.97,-0.53,0.22,-0.17,
2.729,-0.09,0.22,0.97,-0.53,0.22,-0.17,
2.732,-0.09,0.22,0.97,-0.48,0.21,-0.12,
2.732,-0.09,0.22,0.97,-0.48,0.21,-0.12,
2.734,-0.09,0.22,0.97,-0.48,0.21,-0.12,
2.736,-0.09,0.22,0.98,-0.48,0.21,-0.12,
2.737,-0.09,0.22,0.98,-0.44,0.22,-0.09,
2.739,-0.08,0.22,0.99,-0.44,0.22,-0.09,
2.742,-0.08,0.21,1.00,-0.44,0.22,-0.09,
2.742,-0.08,0.21,1.00,-0.42,0.24,-0.04,
2.744,-0.08,0.21,1.01,-0.42,0.24,-0.04,
2.747,-0.08,0.20,1.03,-0.42,0.24,-0.04,
2.747,-0.08,0.20,1.03,-0.37,0.20,0.16,
2.749,-0.08,0.20,1.04,-0.37,0.20,0.16,
2.752,-0.08,0.20,1.05,-0.37,0.20,0.16,
2.752,-0.08,0.20,1.05,-0.35,0.12,0.39,
2.754,-0.08,0.19,1.06,-0.35,0.12,0.39,
2.756,-0.08,0.19,1.06,-0.32,0.06,0.62,
2.757,-0.08,0.19,1.07,-0.32,0.06,0.62,
2.759,-0.09,0.18,1.08,-0.32,0.06,0.62,
2.761,-0.09,0.17,1.09,-0.32,0.06,0.62,
2.761,-0.09,0.17,1.09,-0.34,-0.04,0.80,
2.764,-0.09,0.17,1.09,-0.34,-0.04,0.80,
2.767,-0.09,0.15,1.10,-0.34,-0.04,0.80,
2.767,-0.09,0.15,1.10,-0.38,-0.17,1.00,
2.769,-0.09,0.14,1.10,-0.38,-0.17,1.00,
2.771,-0.10,0.14,1.10,-0.38,-0.17,1.00,
2.771,-0.10,0.14,1.10,-0.42,-0.35,1.13,
2.773,-0.10,0.13,1.10,-0.42,-0.35,1.13,
2.782,-0.10,0.13,1.09,-0.42,-0.35,1.13,
2.782,-0.10,0.13,1.09,-0.45,-0.53,1.18,
2.783,-0.11,0.13,1.09,-0.45,-0.53,1.18,
2.783,-0.11,0.13,1.09,-0.54,-0.63,1.15,
2.783,-0.11,0.13,1.09,-0.54,-0.63,1.15,
2.783,-0.12,0.13,1.07,-0.54,-0.63,1.15,
2.786,-0.12,0.13,1.05,-0.54,-0.63,1.15,
2.786,-0.12,0.13,1.05,-0.61,-0.68,1.06,
2.788,-0.12,0.13,1.04,-0.61,-0.68,1.06,
2.795,-0.12,0.13,1.04,-0.67,-0.71,0.80,
2.796,-0.12,0.13,1.03,-0.67,-0.71,0.80,
2.796,-0.12,0.13,1.01,-0.67,-0.71,0.80,
2.796,-0.12,0.14,1.00,-0.67,-0.71,0.80,
2.796,-0.12,0.14,1.00,-0.66,-0.72,0.58,
2.798,-0.12,0.15,0.98,-0.66,-0.72,0.58,
2.801,-0.12,0.15,0.98,-0.66,-0.72,0.58,
2.803,-0.12,0.15,0.98,-0.67,-0.68,0.27,
2.804,-0.12,0.16,0.96,-0.67,-0.68,0.27,
2.806,-0.12,0.16,0.96,-0.66,-0.61,0.03,
2.806,-0.12,0.16,0.96,-0.66,-0.61,0.03,
2.808,-0.12,0.17,0.95,-0.66,-0.61,0.03,
2.81,-0.12,0.18,0.95,-0.66,-0.61,0.03,
2.81,-0.12,0.18,0.95,-0.68,-0.51,-0.16,
2.813,-0.11,0.18,0.93,-0.68,-0.51,-0.16,
2.815,-0.11,0.19,0.93,-0.68,-0.51,-0.16,
2.815,-0.11,0.19,0.93,-0.64,-0.39,-0.27,
2.818,-0.10,0.19,0.92,-0.64,-0.39,-0.27,
2.82,-0.10,0.20,0.92,-0.64,-0.39,-0.27,
2.82,-0.10,0.20,0.92,-0.60,-0.31,-0.46,
2.823,-0.10,0.20,0.92,-0.60,-0.31,-0.46,
2.826,-0.09,0.21,0.92,-0.60,-0.31,-0.46,
2.827,-0.09,0.21,0.92,-0.49,-0.19,-0.57,
2.828,-0.09,0.21,0.92,-0.49,-0.19,-0.57,
2.83,-0.09,0.21,0.92,-0.41,-0.12,-0.58,
2.83,-0.08,0.21,0.92,-0.41,-0.12,-0.58,
2.832,-0.08,0.22,0.93,-0.41,-0.12,-0.58,
2.835,-0.08,0.22,0.93,-0.41,-0.12,-0.58,
2.835,-0.08,0.22,0.93,-0.33,-0.04,-0.57,
2.838,-0.08,0.22,0.94,-0.33,-0.04,-0.57,
2.842,-0.08,0.22,0.95,-0.33,-0.04,-0.57,
2.842,-0.08,0.22,0.95,-0.28,0.06,-0.46,
2.843,-0.08,0.23,0.95,-0.28,0.06,-0.46,
2.845,-0.07,0.23,0.95,-0.28,0.06,-0.46,
2.846,-0.07,0.23,0.95,-0.25,0.09,-0.31,
2.848,-0.08,0.23,0.97,-0.25,0.09,-0.31,
2.85,-0.08,0.23,0.97,-0.23,0.14,-0.23,
2.85,-0.08,0.22,0.97,-0.23,0.14,-0.23,
2.852,-0.08,0.22,0.98,-0.23,0.14,-0.23,
2.855,-0.08,0.22,0.98,-0.27,0.10,-0.06,
2.855,-0.09,0.21,0.98,-0.27,0.10,-0.06,
2.858,-0.09,0.21,0.99,-0.27,0.10,-0.06,
2.86,-0.10,0.21,0.99,-0.27,0.10,-0.06,
2.861,-0.10,0.21,0.99,-0.32,0.02,0.05,
2.863,-0.10,0.20,1.00,-0.32,0.02,0.05,
2.865,-0.10,0.20,1.00,-0.40,-0.06,0.14,
2.865,-0.10,0.20,0.99,-0.40,-0.06,0.14,
2.867,-0.11,0.19,0.99,-0.40,-0.06,0.14,
2.87,-0.11,0.20,0.99,-0.40,-0.06,0.14,
2.87,-0.11,0.20,0.99,-0.48,-0.15,0.19,
2.873,-0.11,0.19,0.99,-0.48,-0.15,0.19,
2.875,-0.12,0.19,0.99,-0.48,-0.15,0.19,
2.875,-0.12,0.19,0.99,-0.54,-0.20,0.15,
2.877,-0.11,0.20,0.99,-0.54,-0.20,0.15,
2.88,-0.12,0.20,1.00,-0.54,-0.20,0.15,
2.88,-0.12,0.20,1.00,-0.59,-0.21,0.15,
2.883,-0.11,0.19,1.00,-0.59,-0.21,0.15,
2.885,-0.12,0.19,1.01,-0.59,-0.21,0.15,
2.886,-0.12,0.19,1.01,-0.60,-0.18,0.23,
2.887,-0.12,0.19,1.01,-0.60,-0.18,0.23,
2.898,-0.12,0.19,1.01,-0.62,-0.25,0.29,
2.899,-0.12,0.19,1.01,-0.62,-0.25,0.29,
2.899,-0.12,0.19,1.02,-0.62,-0.25,0.29,
2.899,-0.12,0.19,1.01,-0.62,-0.25,0.29,
2.9,-0.12,0.19,1.01,-0.66,-0.25,0.36,
2.9,-0.12,0.19,1.01,-0.66,-0.25,0.36,
2.9,-0.12,0.19,1.00,-0.66,-0.25,0.36,
2.9,-0.12,0.19,1.00,-0.66,-0.28,0.37,
2.905,-0.12,0.19,1.00,-0.66,-0.28,0.37,
2.905,-0.11,0.20,1.00,-0.66,-0.28,0.37,
2.906,-0.11,0.20,1.00,-0.63,-0.28,0.32,
2.907,-0.10,0.20,1.00,-0.63,-0.28,0.32,
2.914,-0.10,0.20,1.00,-0.57,-0.24,0.25,
2.915,-0.09,0.21,0.98,-0.57,-0.24,0.25,
2.915,-0.09,0.21,0.97,-0.57,-0.24,0.25,
2.915,-0.08,0.22,0.95,-0.57,-0.24,0.25,
2.915,-0.08,0.22,0.95,-0.42,-0.16,0.11,
2.917,-0.07,0.23,0.93,-0.42,-0.16,0.11,
2.92,-0.07,0.23,0.93,-0.42,-0.16,0.11,
2.92,-0.07,0.23,0.93,-0.28,-0.02,-0.15,
2.922,-0.06,0.24,0.91,-0.28,-0.02,-0.15,
2.925,-0.05,0.24,0.90,-0.28,-0.02,-0.15,
2.926,-0.05,0.24,0.90,-0.13,0.08,-0.44,
2.926,-0.05,0.24,0.89,-0.13,0.08,-0.44,
2.929,-0.05,0.24,0.89,0.00,0.17,-0.67,
2.929,-0.04,0.25,0.89,0.00,0.17,-0.67,
2.931,-0.04,0.25,0.89,0.00,0.17,-0.67,
2.935,-0.03,0.25,0.89,0.00,0.17,-0.67,
2.935,-0.03,0.25,0.89,0.09,0.28,-0.80,
2.937,-0.03,0.25,0.90,0.09,0.28,-0.80,
2.94,-0.03,0.25,0.90,0.09,0.28,-0.80,
2.941,-0.03,0.25,0.90,0.18,0.28,-0.84,
2.943,-0.03,0.25,0.91,0.18,0.28,-0.84,
2.945,-0.03,0.25,0.91,0.23,0.29,-0.71,
2.945,-0.03,0.25,0.92,0.23,0.29,-0.71,
2.946,-0.03,0.24,0.94,0.23,0.29,-0.71,
2.949,-0.04,0.24,0.96,0.23,0.29,-0.71,
2.95,-0.04,0.24,0.96,0.23,0.32,-0.57,
2.952,-0.04,0.24,0.98,0.23,0.32,-0.57,
2.955,-0.05,0.23,1.00,0.23,0.32,-0.57,
2.955,-0.05,0.23,1.00,0.17,0.24,-0.23,
2.957,-0.04,0.23,1.02,0.17,0.24,-0.23,
2.96,-0.04,0.23,1.01,0.17,0.24,-0.23,
2.96,-0.04,0.23,1.01,0.08,0.19,0.20,
2.962,-0.05,0.23,1.01,0.08,0.19,0.20,
2.964,-0.05,0.23,1.01,0.08,0.19,0.20,
2.964,-0.05,0.23,1.01,0.11,0.13,0.39,
2.967,-0.04,0.24,1.02,0.11,0.13,0.39,
2.97,-0.04,0.24,1.02,0.06,0.14,0.33,
2.97,-0.05,0.24,1.02,0.06,0.14,0.33,
2.971,-0.05,0.24,1.02,0.06,0.14,0.33,
2.975,-0.05,0.23,1.03,0.06,0.14,0.33,
2.976,-0.05,0.23,1.03,0.06,0.20,0.41,
2.976,-0.06,0.23,1.03,0.06,0.20,0.41,
2.979,-0.06,0.23,1.04,0.06,0.20,0.41,
2.979,-0.06,0.23,1.04,0.06,0.20,0.48,
2.98,-0.07,0.23,1.04,0.06,0.20,0.48,
2.983,-0.07,0.23,1.05,0.06,0.20,0.48,
2.983,-0.07,0.23,1.05,-0.02,0.15,0.59,
2.986,-0.08,0.22,1.04,-0.02,0.15,0.59,
2.988,-0.09,0.22,1.04,-0.02,0.15,0.59,
2.989,-0.09,0.22,1.04,-0.09,0.10,0.68,
2.999,-0.09,0.22,1.02,-0.09,0.10,0.68,
3.0,-0.09,0.21,1.02,-0.09,0.10,0.68,
3.001,-0.09,0.21,1.02,-0.22,0.06,0.62,
3.001,-0.10,0.21,1.02,-0.22,0.06,0.62,
3.001,-0.09,0.22,1.01,-0.22,0.06,0.62,
3.002,-0.09,0.22,1.01,-0.33,0.01,0.45,
3.002,-0.09,0.21,1.00,-0.33,0.01,0.45,
3.003,-0.09,0.21,1.00,-0.32,-0.02,0.35,
3.004,-0.10,0.21,1.00,-0.32,-0.02,0.35,
3.005,-0.10,0.21,1.00,-0.32,-0.02,0.35,
3.012,-0.09,0.21,1.00,-0.32,-0.02,0.35,
3.013,-0.09,0.21,1.00,-0.33,-0.07,0.24,
3.013,-0.10,0.20,1.01,-0.33,-0.07,0.24,
3.014,-0.09,0.20,1.02,-0.33,-0.07,0.24,
3.014,-0.09,0.20,1.02,-0.33,-0.11,0.26,
3.018,-0.09,0.20,1.02,-0.33,-0.11,0.26,
3.018,-0.08,0.20,1.02,-0.33,-0.11,0.26,
3.018,-0.08,0.20,1.02,-0.32,-0.18,0.38,
3.02,-0.07,0.19,1.02,-0.32,-0.18,0.38,
3.023,-0.07,0.20,1.02,-0.32,-0.18,0.38,
3.024,-0.07,0.20,1.02,-0.26,-0.22,0.45,
3.026,-0.06,0.20,1.01,-0.26,-0.22,0.45,
3.028,-0.06,0.20,1.01,-0.11,-0.25,0.45,
3.029,-0.05,0.20,1.01,-0.11,-0.25,0.45,
3.03,-0.04,0.21,1.00,-0.11,-0.25,0.45,
3.032,-0.03,0.21,0.99,-0.11,-0.25,0.45,
3.033,-0.03,0.21,0.99,0.04,-0.22,0.36,
3.035,-0.03,0.22,0.98,0.04,-0.22,0.36,
3.038,-0.03,0.22,0.97,0.04,-0.22,0.36,
3.038,-0.03,0.22,0.97,0.19,-0.16,0.21,
3.04,-0.02,0.22,0.96,0.19,-0.16,0.21,
3.043,-0.02,0.23,0.94,0.19,-0.16,0.21,
3.043,-0.02,0.23,0.94,0.29,-0.10,-0.01,
3.045,-0.02,0.23,0.93,0.29,-0.10,-0.01,
3.048,-0.02,0.24,0.92,0.29,-0.10,-0.01,
3.048,-0.02,0.24,0.92,0.38,-0.03,-0.24,
3.05,-0.02,0.24,0.92,0.38,-0.03,-0.24,
3.053,-0.02,0.24,0.92,0.36,0.04,-0.44,
3.053,-0.02,0.24,0.93,0.36,0.04,-0.44,
3.055,-0.04,0.24,0.93,0.36,0.04,-0.44,
3.057,-0.04,0.24,0.93,0.36,0.04,-0.44,
3.057,-0.04,0.24,0.93,0.29,0.07,-0.48,
3.061,-0.04,0.23,0.94,0.29,0.07,-0.48,
3.063,-0.05,0.22,0.96,0.29,0.07,-0.48,
3.063,-0.05,0.22,0.96,0.13,0.06,-0.39,
3.065,-0.06,0.22,0.96,0.13,0.06,-0.39,
3.068,-0.06,0.21,0.97,0.13,0.06,-0.39,
3.068,-0.06,0.21,0.97,0.05,-0.06,-0.19,
3.07,-0.07,0.21,0.97,0.05,-0.06,-0.19,
3.073,-0.08,0.21,0.98,0.05,-0.06,-0.19,
3.073,-0.08,0.21,0.98,-0.09,-0.18,-0.07,
3.075,-0.08,0.21,0.98,-0.09,-0.18,-0.07,
3.077,-0.08,0.21,0.98,-0.20,-0.25,0.07,
3.078,-0.08,0.21,0.99,-0.20,-0.25,0.07,
