
time,gFx,gFy,gFz,ax,ay,az,
0.004,-0.05,0.14,0.99,-0.29,-0.07,-0.13,
0.005,-0.05,0.14,0.99,-0.35,-0.07,-0.09,
0.005,-0.05,0.15,0.99,-0.35,-0.07,-0.09,
0.005,-0.06,0.15,0.99,-0.35,-0.07,-0.09,
0.005,-0.06,0.15,0.99,-0.38,-0.16,-0.06,
0.006,-0.06,0.15,1.00,-0.38,-0.16,-0.06,
0.006,-0.07,0.15,1.00,-0.38,-0.16,-0.06,
0.006,-0.07,0.15,1.00,-0.47,-0.13,-0.03,
0.015,-0.06,0.15,0.99,-0.47,-0.13,-0.03,
0.015,-0.06,0.15,0.99,-0.54,-0.10,0.05,
0.015,-0.06,0.15,1.00,-0.54,-0.10,0.05,
0.016,-0.06,0.15,1.01,-0.54,-0.10,0.05,
0.016,-0.06,0.15,1.01,-0.50,-0.10,-0.00,
0.016,-0.05,0.15,1.00,-0.50,-0.10,-0.00,
0.018,-0.05,0.16,1.00,-0.50,-0.10,-0.00,
0.021,-0.05,0.16,1.01,-0.50,-0.10,-0.00,
0.021,-0.05,0.16,1.01,-0.44,-0.07,0.11,
0.03,-0.05,0.16,1.01,-0.44,-0.07,0.11,
0.03,-0.05,0.16,1.02,-0.44,-0.07,0.11,
0.031,-0.05,0.16,1.02,-0.36,-0.03,0.12,
0.031,-0.04,0.16,1.02,-0.36,-0.03,0.12,
0.031,-0.04,0.16,1.02,-0.36,-0.03,0.12,
0.031,-0.04,0.16,1.02,-0.33,-0.00,0.18,
0.033,-0.04,0.16,1.02,-0.33,-0.00,0.18,
0.036,-0.04,0.17,1.02,-0.33,-0.00,0.18,
0.036,-0.04,0.17,1.02,-0.23,0.02,0.23,
0.038,-0.03,0.17,1.02,-0.23,0.02,0.23,
0.046,-0.03,0.17,1.02,-0.23,0.02,0.23,
0.047,-0.03,0.17,1.02,-0.19,0.07,0.24,
0.047,-0.04,0.17,1.02,-0.19,0.07,0.24,
0.047,-0.04,0.17,1.02,-0.19,0.07,0.24,
0.048,-0.04,0.17,1.02,-0.15,0.14,0.25,
0.048,-0.04,0.18,1.02,-0.15,0.14,0.25,
0.051,-0.05,0.18,1.02,-0.15,0.14,0.25,
0.051,-0.05,0.18,1.02,-0.18,0.14,0.26,
0.053,-0.05,0.18,1.01,-0.18,0.14,0.26,
0.065,-0.05,0.18,1.01,-0.18,0.14,0.26,
0.066,-0.05,0.18,1.01,-0.23,0.18,0.21,
0.066,-0.05,0.17,1.01,-0.23,0.18,0.21,
0.066,-0.05,0.17,1.01,-0.26,0.18,0.14,
0.066,-0.05,0.17,1.02,-0.26,0.18,0.14,
0.067,-0.05,0.16,1.01,-0.26,0.18,0.14,
0.067,-0.07,0.15,1.01,-0.26,0.18,0.14,
0.067,-0.07,0.15,1.01,-0.27,0.13,0.18,
0.067,-0.07,0.14,1.00,-0.27,0.13,0.18,
0.071,-0.08,0.14,1.00,-0.27,0.13,0.18,
0.071,-0.08,0.14,1.00,-0.35,-0.03,0.13,
0.082,-0.08,0.13,1.00,-0.35,-0.03,0.13,
0.082,-0.08,0.13,1.00,-0.35,-0.03,0.13,
0.082,-0.08,0.13,1.00,-0.48,-0.20,0.04,
0.083,-0.08,0.14,1.01,-0.48,-0.20,0.04,
0.083,-0.07,0.14,1.01,-0.48,-0.20,0.04,
0.083,-0.07,0.14,1.01,-0.53,-0.27,0.07,
0.083,-0.07,0.14,1.00,-0.53,-0.27,0.07,
0.086,-0.07,0.14,1.00,-0.53,-0.27,0.07,
0.086,-0.07,0.14,1.00,-0.47,-0.22,0.10,
0.087,-0.07,0.15,1.00,-0.47,-0.22,0.10,
0.098,-0.06,0.15,0.99,-0.47,-0.22,0.10,
0.098,-0.06,0.15,0.99,-0.43,-0.18,0.02,
0.099,-0.06,0.15,0.99,-0.43,-0.18,0.02,
0.099,-0.07,0.15,0.99,-0.43,-0.18,0.02,
0.099,-0.07,0.15,0.99,-0.38,-0.12,-0.00,
0.099,-0.07,0.15,0.99,-0.38,-0.12,-0.00,
0.099,-0.06,0.15,0.98,-0.38,-0.12,-0.00,
0.1,-0.06,0.15,0.98,-0.38,-0.11,-0.07,
0.102,-0.06,0.15,0.98,-0.38,-0.11,-0.07,
0.117,-0.06,0.16,0.98,-0.38,-0.11,-0.07,
0.118,-0.06,0.16,0.98,-0.35,-0.08,-0.12,
0.118,-0.06,0.16,0.99,-0.35,-0.08,-0.12,
0.118,-0.06,0.16,0.99,-0.35,-0.08,-0.12,
0.118,-0.06,0.16,0.99,-0.31,-0.06,-0.17,
0.118,-0.05,0.16,0.99,-0.31,-0.06,-0.17,
0.119,-0.05,0.16,0.99,-0.31,-0.06,-0.17,
0.119,-0.05,0.16,0.99,-0.27,-0.00,-0.10,
0.119,-0.05,0.16,0.99,-0.27,-0.00,-0.10,
0.12,-0.04,0.16,0.99,-0.27,-0.00,-0.10,
0.121,-0.04,0.16,0.99,-0.19,0.01,-0.05,
0.122,-0.04,0.16,0.99,-0.19,0.01,-0.05,
0.132,-0.04,0.16,0.98,-0.19,0.01,-0.05,
0.132,-0.04,0.16,0.98,-0.14,0.02,-0.08,
0.133,-0.04,0.16,0.98,-0.14,0.02,-0.08,
0.133,-0.04,0.16,0.98,-0.14,0.02,-0.08,
0.133,-0.04,0.16,0.98,-0.11,0.01,-0.10,
0.133,-0.04,0.16,0.98,-0.11,0.01,-0.10,
0.135,-0.04,0.15,0.97,-0.11,0.01,-0.10,
0.135,-0.04,0.15,0.97,-0.05,-0.00,-0.12,
0.137,-0.04,0.15,0.97,-0.05,-0.00,-0.12,
0.148,-0.04,0.15,0.97,-0.05,-0.00,-0.12,
0.149,-0.04,0.15,0.97,-0.03,-0.04,-0.21,
0.149,-0.05,0.15,0.96,-0.03,-0.04,-0.21,
0.149,-0.05,0.15,0.96,-0.03,-0.04,-0.21,
0.149,-0.05,0.15,0.96,-0.04,-0.06,-0.27,
0.15,-0.05,0.14,0.96,-0.04,-0.06,-0.27,
0.15,-0.04,0.15,0.96,-0.04,-0.06,-0.27,
0.15,-0.04,0.15,0.96,-0.10,-0.11,-0.31,
0.152,-0.05,0.15,0.96,-0.10,-0.11,-0.31,
0.163,-0.05,0.15,0.97,-0.10,-0.11,-0.31,
0.164,-0.05,0.15,0.97,-0.08,-0.12,-0.32,
0.164,-0.05,0.15,0.96,-0.08,-0.12,-0.32,
0.164,-0.04,0.15,0.96,-0.08,-0.12,-0.32,
0.167,-0.04,0.15,0.96,-0.11,-0.08,-0.29,
0.167,-0.04,0.15,0.96,-0.11,-0.08,-0.29,
0.167,-0.05,0.15,0.97,-0.11,-0.08,-0.29,
0.168,-0.05,0.15,0.97,-0.07,-0.06,-0.31,
0.168,-0.05,0.16,0.97,-0.07,-0.06,-0.31,
0.17,-0.04,0.16,0.98,-0.07,-0.06,-0.31,
0.17,-0.04,0.16,0.98,-0.04,-0.05,-0.29,
0.172,-0.05,0.16,0.99,-0.04,-0.05,-0.29,
0.179,-0.05,0.16,0.99,-0.05,0.03,-0.17,
0.179,-0.05,0.16,0.99,-0.05,0.03,-0.17,
0.18,-0.05,0.17,1.00,-0.05,0.03,-0.17,
0.18,-0.05,0.17,1.00,-0.05,0.03,-0.17,
0.18,-0.05,0.17,1.00,-0.05,0.08,-0.03,
0.182,-0.06,0.17,1.00,-0.05,0.08,-0.03,
0.184,-0.06,0.17,1.00,-0.09,0.13,0.05,
0.184,-0.06,0.17,1.01,-0.09,0.13,0.05,
0.186,-0.06,0.17,1.01,-0.09,0.13,0.05,
0.195,-0.06,0.17,1.02,-0.09,0.13,0.05,
0.195,-0.06,0.17,1.02,-0.18,0.14,0.11,
0.195,-0.06,0.17,1.02,-0.18,0.14,0.11,
0.196,-0.06,0.17,1.02,-0.18,0.14,0.11,
0.196,-0.06,0.17,1.02,-0.19,0.16,0.20,
0.196,-0.06,0.17,1.02,-0.19,0.16,0.20,
0.199,-0.06,0.17,1.02,-0.19,0.16,0.20,
0.199,-0.06,0.17,1.02,-0.19,0.14,0.22,
0.201,-0.07,0.17,1.02,-0.19,0.14,0.22,
0.204,-0.07,0.18,1.02,-0.19,0.14,0.22,
0.204,-0.07,0.18,1.02,-0.22,0.15,0.27,
0.206,-0.07,0.18,1.02,-0.22,0.15,0.27,
0.216,-0.07,0.18,1.02,-0.22,0.15,0.27,
0.217,-0.07,0.18,1.02,-0.28,0.18,0.25,
0.217,-0.08,0.19,1.02,-0.28,0.18,0.25,
0.217,-0.08,0.19,1.01,-0.28,0.18,0.25,
0.218,-0.08,0.19,1.01,-0.30,0.24,0.21,
0.218,-0.08,0.19,1.01,-0.30,0.24,0.21,
0.219,-0.09,0.19,1.00,-0.30,0.24,0.21,
0.219,-0.09,0.19,1.00,-0.36,0.29,0.20,
0.221,-0.09,0.20,1.00,-0.36,0.29,0.20,
0.232,-0.09,0.20,1.00,-0.36,0.29,0.20,
0.233,-0.09,0.20,1.00,-0.41,0.35,0.12,
0.233,-0.10,0.20,0.99,-0.41,0.35,0.12,
0.233,-0.10,0.20,0.99,-0.41,0.35,0.12,
0.234,-0.10,0.20,0.99,-0.45,0.39,0.02,
0.234,-0.11,0.20,0.98,-0.45,0.39,0.02,
0.234,-0.11,0.20,0.98,-0.45,0.39,0.02,
0.234,-0.11,0.20,0.98,-0.52,0.40,-0.05,
0.235,-0.12,0.20,0.97,-0.52,0.40,-0.05,
0.249,-0.12,0.20,0.97,-0.52,0.40,-0.05,
0.25,-0.12,0.20,0.97,-0.62,0.37,-0.12,
0.25,-0.13,0.20,0.97,-0.62,0.37,-0.12,
0.25,-0.13,0.20,0.96,-0.62,0.37,-0.12,
0.25,-0.13,0.20,0.96,-0.69,0.39,-0.26,
0.251,-0.14,0.20,0.96,-0.69,0.39,-0.26,
0.251,-0.14,0.20,0.96,-0.69,0.39,-0.26,
0.251,-0.14,0.20,0.96,-0.78,0.37,-0.27,
0.251,-0.15,0.19,0.96,-0.78,0.37,-0.27,
0.253,-0.15,0.19,0.96,-0.86,0.36,-0.34,
0.253,-0.15,0.19,0.96,-0.86,0.36,-0.34,
0.262,-0.15,0.19,0.96,-0.86,0.36,-0.34,
0.262,-0.15,0.19,0.96,-0.86,0.36,-0.34,
0.262,-0.15,0.19,0.96,-0.93,0.33,-0.33,
0.263,-0.15,0.19,0.96,-0.93,0.33,-0.33,
0.263,-0.15,0.18,0.97,-0.93,0.33,-0.33,
0.263,-0.15,0.18,0.97,-0.92,0.28,-0.37,
0.265,-0.15,0.18,0.97,-0.92,0.28,-0.37,
0.268,-0.16,0.18,0.97,-0.92,0.28,-0.37,
0.268,-0.16,0.18,0.97,-0.94,0.20,-0.31,
0.27,-0.17,0.17,0.97,-0.94,0.20,-0.31,
0.278,-0.17,0.17,0.98,-0.94,0.20,-0.31,
0.278,-0.17,0.17,0.98,-1.00,0.18,-0.22,
0.279,-0.17,0.16,0.99,-1.00,0.18,-0.22,
0.279,-0.17,0.16,0.99,-1.00,0.18,-0.22,
0.279,-0.17,0.16,0.99,-1.09,0.09,-0.14,
0.28,-0.18,0.15,1.01,-1.09,0.09,-0.14,
0.283,-0.18,0.14,1.02,-1.09,0.09,-0.14,
0.283,-0.18,0.14,1.02,-1.08,0.02,-0.02,
0.285,-0.17,0.13,1.02,-1.08,0.02,-0.02,
0.287,-0.18,0.13,1.03,-1.08,0.02,-0.02,
0.288,-0.18,0.13,1.03,-1.13,-0.13,0.19,
0.295,-0.18,0.13,1.04,-1.13,-0.13,0.19,
0.296,-0.19,0.12,1.04,-1.13,-0.13,0.19,
0.296,-0.19,0.12,1.04,-1.14,-0.26,0.32,
0.296,-0.19,0.12,1.05,-1.14,-0.26,0.32,
0.298,-0.19,0.12,1.05,-1.20,-0.33,0.42,
0.298,-0.19,0.11,1.05,-1.20,-0.33,0.42,
0.3,-0.20,0.11,1.06,-1.20,-0.33,0.42,
0.302,-0.21,0.11,1.05,-1.20,-0.33,0.42,
0.303,-0.21,0.11,1.05,-1.23,-0.41,0.55,
0.304,-0.21,0.11,1.05,-1.23,-0.41,0.55,
0.316,-0.22,0.11,1.05,-1.23,-0.41,0.55,
0.316,-0.22,0.11,1.05,-1.38,-0.45,0.60,
0.317,-0.22,0.11,1.05,-1.38,-0.45,0.60,
0.317,-0.23,0.10,1.05,-1.38,-0.45,0.60,
0.317,-0.23,0.10,1.05,-1.47,-0.47,0.57,
0.317,-0.23,0.10,1.05,-1.47,-0.47,0.57,
0.318,-0.24,0.11,1.05,-1.47,-0.47,0.57,
0.318,-0.24,0.11,1.05,-1.55,-0.48,0.54,
0.321,-0.25,0.11,1.05,-1.55,-0.48,0.54,
0.323,-0.25,0.12,1.04,-1.55,-0.48,0.54,
0.323,-0.25,0.12,1.04,-1.62,-0.47,0.50,
0.326,-0.26,0.12,1.04,-1.62,-0.47,0.50,
0.331,-0.25,0.12,1.03,-1.62,-0.47,0.50,
0.332,-0.25,0.12,1.03,-1.73,-0.40,0.45,
0.332,-0.26,0.12,1.02,-1.73,-0.40,0.45,
0.333,-0.26,0.13,1.02,-1.73,-0.40,0.45,
0.333,-0.26,0.13,1.02,-1.77,-0.34,0.36,
0.335,-0.26,0.13,1.00,-1.77,-0.34,0.36,
0.337,-0.25,0.13,1.00,-1.77,-0.34,0.36,
0.338,-0.25,0.13,1.00,-1.82,-0.31,0.23,
0.346,-0.25,0.13,1.00,-1.82,-0.31,0.23,
0.347,-0.25,0.13,0.99,-1.82,-0.31,0.23,
0.347,-0.25,0.13,0.99,-1.75,-0.27,0.05,
0.347,-0.25,0.13,0.98,-1.75,-0.27,0.05,
0.347,-0.25,0.14,0.97,-1.75,-0.27,0.05,
0.347,-0.25,0.14,0.97,-1.71,-0.22,-0.02,
0.35,-0.24,0.13,0.97,-1.71,-0.22,-0.02,
0.352,-0.24,0.13,0.96,-1.71,-0.22,-0.02,
0.352,-0.24,0.13,0.96,-1.64,-0.22,-0.21,
0.354,-0.23,0.13,0.96,-1.64,-0.22,-0.21,
0.363,-0.23,0.13,0.96,-1.64,-0.22,-0.21,
0.364,-0.23,0.13,0.96,-1.53,-0.26,-0.28,
0.364,-0.22,0.13,0.94,-1.53,-0.26,-0.28,
0.364,-0.22,0.12,0.94,-1.53,-0.26,-0.28,
0.364,-0.22,0.12,0.94,-1.44,-0.29,-0.36,
0.364,-0.21,0.12,0.94,-1.44,-0.29,-0.36,
0.367,-0.21,0.11,0.93,-1.44,-0.29,-0.36,
0.367,-0.21,0.11,0.93,-1.33,-0.32,-0.53,
0.371,-0.20,0.12,0.93,-1.33,-0.32,-0.53,
0.372,-0.20,0.11,0.93,-1.33,-0.32,-0.53,
0.372,-0.20,0.11,0.93,-1.18,-0.41,-0.59,
0.381,-0.19,0.11,0.93,-1.18,-0.41,-0.59,
0.382,-0.19,0.11,0.93,-1.18,-0.41,-0.59,
0.382,-0.19,0.11,0.93,-1.11,-0.45,-0.62,
0.382,-0.19,0.10,0.93,-1.11,-0.45,-0.62,
0.382,-0.19,0.10,0.93,-1.00,-0.50,-0.65,
0.382,-0.20,0.10,0.94,-1.00,-0.50,-0.65,
0.384,-0.19,0.10,0.94,-1.00,-0.50,-0.65,
0.387,-0.19,0.10,0.96,-1.00,-0.50,-0.65,
0.388,-0.19,0.10,0.96,-1.01,-0.55,-0.56,
0.389,-0.20,0.10,0.96,-1.01,-0.55,-0.56,
0.398,-0.19,0.10,0.97,-1.01,-0.55,-0.56,
0.398,-0.19,0.10,0.97,-0.96,-0.55,-0.43,
0.399,-0.19,0.09,0.98,-0.96,-0.55,-0.43,
0.399,-0.20,0.09,0.99,-0.96,-0.55,-0.43,
0.399,-0.20,0.09,0.99,-1.02,-0.57,-0.29,
0.399,-0.20,0.09,1.00,-1.02,-0.57,-0.29,
0.402,-0.20,0.09,1.00,-1.02,-0.57,-0.29,
0.402,-0.20,0.09,1.00,-1.01,-0.62,-0.10,
0.404,-0.20,0.09,1.01,-1.01,-0.62,-0.10,
0.407,-0.20,0.09,1.01,-1.03,-0.63,0.06,
0.407,-0.20,0.09,1.01,-1.03,-0.63,0.06,
0.417,-0.20,0.08,1.02,-1.03,-0.63,0.06,
0.417,-0.20,0.08,1.02,-1.03,-0.63,0.06,
0.418,-0.20,0.08,1.02,-1.06,-0.66,0.18,
0.418,-0.21,0.08,1.02,-1.06,-0.66,0.18,
0.418,-0.21,0.08,1.02,-1.06,-0.66,0.18,
0.418,-0.21,0.08,1.02,-1.06,-0.70,0.23,
0.419,-0.21,0.08,1.02,-1.06,-0.70,0.23,
0.421,-0.21,0.08,1.02,-1.13,-0.73,0.27,
0.422,-0.21,0.08,1.02,-1.13,-0.73,0.27,
0.43,-0.22,0.08,1.02,-1.13,-0.73,0.27,
0.43,-0.21,0.08,1.01,-1.13,-0.73,0.27,
0.43,-0.21,0.08,1.01,-1.13,-0.73,0.29,
0.43,-0.21,0.08,1.00,-1.13,-0.73,0.29,
0.432,-0.21,0.08,1.00,-1.17,-0.73,0.20,
0.432,-0.21,0.08,1.00,-1.17,-0.73,0.20,
0.434,-0.21,0.08,0.99,-1.17,-0.73,0.20,
0.437,-0.21,0.08,0.98,-1.17,-0.73,0.20,
0.437,-0.21,0.08,0.98,-1.12,-0.72,0.11,
0.439,-0.21,0.08,0.97,-1.12,-0.72,0.11,
0.447,-0.21,0.07,0.96,-1.12,-0.72,0.11,
0.447,-0.21,0.07,0.96,-1.13,-0.74,-0.07,
0.448,-0.21,0.07,0.96,-1.13,-0.74,-0.07,
0.448,-0.21,0.07,0.95,-1.13,-0.74,-0.07,
0.448,-0.21,0.07,0.95,-1.10,-0.77,-0.29,
0.449,-0.21,0.07,0.94,-1.10,-0.77,-0.29,
0.451,-0.21,0.07,0.92,-1.10,-0.77,-0.29,
0.452,-0.21,0.07,0.92,-1.09,-0.83,-0.38,
0.454,-0.21,0.07,0.92,-1.09,-0.83,-0.38,
0.457,-0.21,0.07,0.92,-1.10,-0.85,-0.61,
0.457,-0.21,0.07,0.91,-1.10,-0.85,-0.61,
0.463,-0.20,0.06,0.90,-1.10,-0.85,-0.61,
0.463,-0.20,0.06,0.89,-1.10,-0.85,-0.61,
0.463,-0.20,0.06,0.89,-1.02,-0.83,-0.76,
0.464,-0.20,0.07,0.88,-1.02,-0.83,-0.76,
0.466,-0.20,0.07,0.88,-0.95,-0.90,-0.91,
0.467,-0.20,0.07,0.87,-0.95,-0.90,-0.91,
0.469,-0.19,0.07,0.87,-0.95,-0.90,-0.91,
0.471,-0.20,0.07,0.87,-0.95,-0.90,-0.91,
0.472,-0.20,0.07,0.87,-0.91,-0.86,-1.09,
0.474,-0.19,0.07,0.86,-0.91,-0.86,-1.09,
0.479,-0.19,0.06,0.85,-0.91,-0.86,-1.09,
0.48,-0.19,0.06,0.85,-0.87,-0.87,-1.19,
0.48,-0.19,0.07,0.84,-0.87,-0.87,-1.19,
0.481,-0.18,0.07,0.84,-0.87,-0.87,-1.19,
0.481,-0.18,0.07,0.84,-0.84,-0.92,-1.33,
0.484,-0.17,0.07,0.83,-0.84,-0.92,-1.33,
0.486,-0.16,0.07,0.83,-0.84,-0.92,-1.33,
0.487,-0.16,0.07,0.83,-0.72,-0.89,-1.47,
0.488,-0.16,0.07,0.83,-0.72,-0.89,-1.47,
0.491,-0.16,0.07,0.83,-0.72,-0.89,-1.47,
0.491,-0.16,0.07,0.83,-0.58,-0.90,-1.53,
0.496,-0.15,0.07,0.84,-0.58,-0.90,-1.53,
0.497,-0.15,0.07,0.84,-0.54,-0.89,-1.50,
0.497,-0.15,0.07,0.84,-0.54,-0.89,-1.50,
0.499,-0.14,0.07,0.85,-0.54,-0.89,-1.50,
0.501,-0.14,0.07,0.86,-0.54,-0.89,-1.50,
0.501,-0.14,0.07,0.86,-0.45,-0.85,-1.43,
0.503,-0.14,0.07,0.87,-0.45,-0.85,-1.43,
0.506,-0.14,0.07,0.87,-0.36,-0.86,-1.29,
0.506,-0.14,0.07,0.88,-0.36,-0.86,-1.29,
0.517,-0.13,0.07,0.89,-0.36,-0.86,-1.29,
0.518,-0.13,0.07,0.91,-0.36,-0.86,-1.29,
0.518,-0.13,0.07,0.91,-0.35,-0.86,-1.08,
0.518,-0.13,0.07,0.92,-0.35,-0.86,-1.08,
0.519,-0.13,0.07,0.92,-0.31,-0.83,-0.85,
0.519,-0.13,0.08,0.93,-0.31,-0.83,-0.85,
0.519,-0.12,0.08,0.94,-0.31,-0.83,-0.85,
0.52,-0.12,0.08,0.95,-0.31,-0.83,-0.85,
0.52,-0.12,0.08,0.95,-0.26,-0.79,-0.61,
0.522,-0.11,0.08,0.96,-0.26,-0.79,-0.61,
0.532,-0.10,0.08,0.97,-0.26,-0.79,-0.61,
0.532,-0.10,0.08,0.97,-0.19,-0.76,-0.41,
0.533,-0.09,0.08,0.97,-0.19,-0.76,-0.41,
0.534,-0.09,0.08,0.97,-0.07,-0.75,-0.22,
0.534,-0.09,0.08,0.98,-0.07,-0.75,-0.22,
0.534,-0.08,0.09,0.98,-0.07,-0.75,-0.22,
0.535,-0.07,0.09,0.98,-0.07,-0.75,-0.22,
0.535,-0.07,0.09,0.98,0.09,-0.68,-0.10,
0.537,-0.07,0.10,0.98,0.09,-0.68,-0.10,
0.55,-0.06,0.10,0.98,0.09,-0.68,-0.10,
0.551,-0.06,0.10,0.98,0.19,-0.59,-0.04,
0.551,-0.06,0.10,0.98,0.19,-0.59,-0.04,
0.551,-0.06,0.11,0.98,0.19,-0.59,-0.04,
0.551,-0.06,0.11,0.98,0.29,-0.51,-0.01,
0.552,-0.06,0.11,0.98,0.29,-0.51,-0.01,
0.552,-0.06,0.11,0.97,0.29,-0.51,-0.01,
0.552,-0.06,0.11,0.97,0.32,-0.43,-0.05,
0.552,-0.06,0.11,0.97,0.32,-0.43,-0.05,
0.555,-0.06,0.11,0.97,0.34,-0.42,-0.12,
0.555,-0.05,0.10,0.97,0.34,-0.42,-0.12,
0.565,-0.05,0.11,0.96,0.34,-0.42,-0.12,
0.565,-0.05,0.10,0.94,0.34,-0.42,-0.12,
0.566,-0.05,0.10,0.94,0.37,-0.41,-0.15,
0.566,-0.05,0.10,0.94,0.37,-0.41,-0.15,
0.566,-0.04,0.10,0.94,0.37,-0.41,-0.15,
0.566,-0.04,0.10,0.94,0.43,-0.42,-0.34,
0.567,-0.04,0.10,0.93,0.43,-0.42,-0.34,
0.57,-0.03,0.09,0.92,0.43,-0.42,-0.34,
0.57,-0.03,0.09,0.92,0.46,-0.47,-0.48,
0.572,-0.03,0.09,0.92,0.46,-0.47,-0.48,
0.579,-0.02,0.09,0.91,0.46,-0.47,-0.48,
0.58,-0.02,0.09,0.91,0.56,-0.50,-0.57,
0.58,-0.03,0.08,0.91,0.56,-0.50,-0.57,
0.58,-0.03,0.08,0.91,0.65,-0.56,-0.67,
0.581,-0.03,0.09,0.90,0.65,-0.56,-0.67,
0.582,-0.02,0.09,0.90,0.65,-0.56,-0.67,
0.585,-0.03,0.08,0.90,0.65,-0.56,-0.67,
0.586,-0.03,0.08,0.90,0.64,-0.57,-0.75,
0.587,-0.03,0.08,0.89,0.64,-0.57,-0.75,
0.589,-0.03,0.08,0.89,0.64,-0.57,-0.75,
0.59,-0.03,0.08,0.89,0.64,-0.58,-0.83,
0.597,-0.02,0.07,0.89,0.64,-0.58,-0.83,
0.597,-0.01,0.06,0.89,0.64,-0.58,-0.83,
0.597,-0.01,0.06,0.89,0.59,-0.66,-0.89,
0.598,-0.01,0.06,0.89,0.59,-0.66,-0.89,
0.599,-0.00,0.06,0.88,0.59,-0.66,-0.89,
0.6,-0.00,0.06,0.88,0.71,-0.77,-0.91,
0.602,0.00,0.06,0.89,0.71,-0.77,-0.91,
0.604,0.00,0.06,0.89,0.77,-0.84,-0.96,
0.605,-0.00,0.05,0.89,0.77,-0.84,-0.96,
0.606,-0.00,0.05,0.90,0.77,-0.84,-0.96,
0.619,0.01,0.05,0.91,0.77,-0.84,-0.96,
0.62,0.01,0.05,0.91,0.83,-0.85,-0.89,
0.621,0.01,0.05,0.91,0.83,-0.85,-0.89,
0.621,0.01,0.05,0.92,0.83,-0.85,-0.89,
0.621,0.01,0.05,0.92,0.82,-0.88,-0.76,
0.621,0.02,0.05,0.92,0.82,-0.88,-0.76,
0.621,0.02,0.05,0.92,0.82,-0.88,-0.76,
0.622,0.02,0.05,0.92,0.92,-0.90,-0.67,
0.622,0.02,0.05,0.93,0.92,-0.90,-0.67,
0.632,0.03,0.05,0.92,0.92,-0.90,-0.67,
0.633,0.03,0.05,0.92,0.94,-0.88,-0.62,
0.633,0.04,0.05,0.93,0.94,-0.88,-0.62,
0.633,0.04,0.05,0.93,1.00,-0.90,-0.55,
0.634,0.04,0.04,0.93,1.00,-0.90,-0.55,
0.634,0.04,0.04,0.94,1.00,-0.90,-0.55,
0.634,0.05,0.04,0.94,1.00,-0.90,-0.55,
0.634,0.05,0.04,0.94,1.11,-0.88,-0.51,
0.636,0.05,0.04,0.94,1.11,-0.88,-0.51,
0.64,0.05,0.04,0.94,1.13,-0.93,-0.43,
0.64,0.05,0.04,0.94,1.13,-0.93,-0.43,
0.65,0.05,0.04,0.94,1.13,-0.93,-0.43,
0.651,0.05,0.04,0.95,1.13,-0.93,-0.43,
0.651,0.05,0.04,0.95,1.17,-0.89,-0.41,
0.651,0.05,0.04,0.95,1.17,-0.89,-0.41,
0.652,0.05,0.05,0.96,1.17,-0.89,-0.41,
0.652,0.05,0.05,0.96,1.16,-0.88,-0.36,
0.652,0.05,0.05,0.97,1.16,-0.88,-0.36,
0.654,0.05,0.05,0.97,1.13,-0.84,-0.24,
0.657,0.06,0.05,0.97,1.13,-0.84,-0.24,
0.657,0.05,0.05,0.97,1.13,-0.84,-0.24,
0.665,0.05,0.05,0.97,1.16,-0.79,-0.16,
0.666,0.05,0.05,0.97,1.16,-0.79,-0.16,
0.666,0.06,0.05,0.97,1.16,-0.79,-0.16,
0.666,0.05,0.05,0.98,1.16,-0.79,-0.16,
0.667,0.05,0.05,0.98,1.14,-0.77,-0.10,
0.667,0.06,0.05,0.99,1.14,-0.77,-0.10,
0.669,0.06,0.05,0.98,1.14,-0.77,-0.10,
0.669,0.06,0.05,0.98,1.13,-0.75,-0.08,
0.671,0.06,0.05,0.97,1.13,-0.75,-0.08,
0.674,0.06,0.05,0.97,1.16,-0.75,-0.01,
0.674,0.06,0.05,0.97,1.16,-0.75,-0.01,
0.682,0.06,0.05,0.97,1.16,-0.75,-0.01,
0.683,0.06,0.05,0.97,1.17,-0.70,-0.11,
0.683,0.07,0.05,0.97,1.17,-0.70,-0.11,
0.683,0.08,0.04,0.95,1.17,-0.70,-0.11,
0.684,0.08,0.04,0.95,1.17,-0.70,-0.11,
0.684,0.08,0.04,0.95,1.20,-0.71,-0.17,
0.687,0.09,0.04,0.94,1.20,-0.71,-0.17,
0.689,0.09,0.05,0.94,1.20,-0.71,-0.17,
0.689,0.09,0.05,0.94,1.33,-0.74,-0.31,
0.691,0.10,0.05,0.93,1.33,-0.74,-0.31,
0.697,0.11,0.05,0.93,1.33,-0.74,-0.31,
0.697,0.11,0.05,0.93,1.43,-0.73,-0.45,
0.697,0.11,0.06,0.93,1.43,-0.73,-0.45,
0.699,0.11,0.06,0.94,1.43,-0.73,-0.45,
0.699,0.11,0.06,0.94,1.54,-0.64,-0.49,
0.701,0.11,0.06,0.94,1.54,-0.64,-0.49,
0.704,0.10,0.07,0.94,1.54,-0.64,-0.49,
0.704,0.10,0.07,0.94,1.55,-0.54,-0.49,
0.706,0.11,0.07,0.95,1.55,-0.54,-0.49,
0.709,0.12,0.08,0.95,1.55,-0.54,-0.49,
0.709,0.12,0.08,0.95,1.53,-0.45,-0.40,
0.72,0.12,0.08,0.96,1.53,-0.45,-0.40,
0.72,0.13,0.08,0.97,1.53,-0.45,-0.40,
0.721,0.13,0.08,0.97,1.61,-0.36,-0.33,
0.721,0.13,0.08,0.97,1.61,-0.36,-0.33,
0.721,0.13,0.07,0.98,1.61,-0.36,-0.33,
0.721,0.13,0.07,0.98,1.69,-0.32,-0.20,
0.722,0.14,0.07,0.99,1.69,-0.32,-0.20,
0.724,0.14,0.06,0.99,1.69,-0.32,-0.20,
0.724,0.14,0.06,0.99,1.68,-0.32,-0.06,
0.725,0.14,0.06,0.98,1.68,-0.32,-0.06,
0.733,0.14,0.06,0.98,1.79,-0.40,0.04,
0.734,0.15,0.06,0.99,1.79,-0.40,0.04,
0.734,0.15,0.06,0.99,1.79,-0.40,0.04,
0.734,0.15,0.06,0.99,1.82,-0.44,-0.00,
0.735,0.15,0.05,0.99,1.82,-0.44,-0.00,
0.736,0.15,0.05,0.99,1.82,-0.44,-0.00,
0.739,0.15,0.04,1.00,1.82,-0.44,-0.00,
0.739,0.15,0.04,1.00,1.86,-0.48,0.06,
0.741,0.16,0.03,0.99,1.86,-0.48,0.06,
0.75,0.16,0.03,0.98,1.86,-0.48,0.06,
0.751,0.16,0.03,0.98,1.83,-0.56,0.08,
0.751,0.15,0.03,0.98,1.83,-0.56,0.08,
0.752,0.15,0.03,0.97,1.83,-0.56,0.08,
0.752,0.15,0.03,0.97,1.86,-0.64,0.02,
0.752,0.15,0.02,0.96,1.86,-0.64,0.02,
0.754,0.15,0.02,0.96,1.83,-0.68,-0.10,
0.754,0.15,0.02,0.95,1.83,-0.68,-0.10,
0.756,0.14,0.01,0.95,1.83,-0.68,-0.10,
0.759,0.15,0.01,0.94,1.83,-0.68,-0.10,
0.759,0.15,0.01,0.94,1.78,-0.74,-0.27,
0.766,0.15,0.01,0.93,1.78,-0.74,-0.27,
0.767,0.14,0.01,0.92,1.78,-0.74,-0.27,
0.767,0.14,0.01,0.92,1.71,-0.81,-0.41,
0.767,0.14,0.01,0.92,1.71,-0.81,-0.41,
0.769,0.14,0.01,0.91,1.71,-0.81,-0.41,
0.769,0.14,0.01,0.91,1.68,-0.85,-0.56,
0.771,0.13,0.01,0.91,1.68,-0.85,-0.56,
0.773,0.13,0.00,0.92,1.68,-0.85,-0.56,
0.774,0.13,0.00,0.92,1.62,-0.83,-0.68,
0.782,0.13,0.00,0.92,1.62,-0.83,-0.68,
0.783,0.13,0.00,0.92,1.55,-0.87,-0.69,
0.784,0.14,-0.00,0.91,1.55,-0.87,-0.69,
0.784,0.14,0.00,0.91,1.55,-0.87,-0.69,
0.784,0.14,0.00,0.91,1.55,-0.87,-0.69,
0.784,0.14,0.00,0.91,1.54,-0.92,-0.69,
0.785,0.14,-0.00,0.91,1.54,-0.92,-0.69,
0.787,0.14,-0.00,0.91,1.54,-0.92,-0.69,
0.788,0.14,-0.00,0.91,1.55,-0.88,-0.77,
0.79,0.14,-0.00,0.91,1.55,-0.88,-0.77,
0.798,0.15,-0.00,0.91,1.55,-0.88,-0.77,
0.799,0.15,-0.00,0.91,1.56,-0.89,-0.75,
0.799,0.15,-0.00,0.90,1.56,-0.89,-0.75,
0.799,0.15,-0.00,0.91,1.56,-0.89,-0.75,
0.799,0.15,-0.00,0.91,1.57,-0.91,-0.75,
0.8,0.15,-0.00,0.91,1.57,-0.91,-0.75,
0.803,0.15,-0.00,0.91,1.60,-0.89,-0.78,
0.803,0.16,0.00,0.91,1.60,-0.89,-0.78,
0.805,0.17,0.00,0.91,1.60,-0.89,-0.78,
0.807,0.17,0.01,0.90,1.60,-0.89,-0.78,
0.807,0.17,0.01,0.90,1.64,-0.86,-0.76,
0.82,0.17,0.01,0.90,1.64,-0.86,-0.76,
0.82,0.17,0.01,0.89,1.64,-0.86,-0.76,
0.82,0.17,0.01,0.89,1.71,-0.79,-0.77,
0.821,0.18,0.02,0.89,1.71,-0.79,-0.77,
0.821,0.18,0.02,0.89,1.71,-0.79,-0.77,
0.821,0.18,0.02,0.89,1.75,-0.71,-0.86,
0.824,0.19,0.03,0.89,1.75,-0.71,-0.86,
0.824,0.20,0.03,0.89,1.75,-0.71,-0.86,
0.824,0.20,0.03,0.89,1.82,-0.61,-0.90,
0.825,0.20,0.04,0.88,1.82,-0.61,-0.90,
0.834,0.20,0.04,0.88,1.90,-0.54,-0.91,
0.834,0.21,0.03,0.87,1.90,-0.54,-0.91,
0.835,0.22,0.04,0.88,1.90,-0.54,-0.91,
0.835,0.23,0.04,0.88,1.90,-0.54,-0.91,
0.835,0.23,0.04,0.88,2.03,-0.45,-1.06,
0.835,0.23,0.04,0.89,2.03,-0.45,-1.06,
0.837,0.23,0.04,0.89,2.03,-0.45,-1.06,
0.837,0.23,0.04,0.89,2.17,-0.42,-1.00,
0.839,0.24,0.04,0.87,2.17,-0.42,-1.00,
0.851,0.25,0.05,0.87,2.17,-0.42,-1.00,
0.852,0.25,0.05,0.87,2.24,-0.38,-0.92,
0.852,0.25,0.05,0.88,2.24,-0.38,-0.92,
0.852,0.26,0.06,0.88,2.24,-0.38,-0.92,
0.852,0.26,0.06,0.88,2.37,-0.27,-1.05,
0.853,0.26,0.07,0.88,2.37,-0.27,-1.05,
0.853,0.26,0.07,0.88,2.42,-0.15,-1.00,
0.853,0.25,0.07,0.89,2.42,-0.15,-1.00,
0.854,0.25,0.07,0.89,2.42,-0.15,-1.00,
0.858,0.26,0.07,0.89,2.42,-0.15,-1.00,
0.858,0.26,0.07,0.89,2.43,-0.05,-0.92,
0.866,0.27,0.07,0.90,2.43,-0.05,-0.92,
0.866,0.27,0.08,0.90,2.43,-0.05,-0.92,
0.867,0.27,0.08,0.90,2.40,0.00,-0.88,
0.867,0.28,0.08,0.90,2.40,0.00,-0.88,
0.867,0.28,0.08,0.91,2.40,0.00,-0.88,
0.867,0.28,0.08,0.91,2.50,0.07,-0.82,
0.87,0.28,0.08,0.91,2.50,0.07,-0.82,
0.873,0.28,0.08,0.91,2.50,0.07,-0.82,
0.873,0.28,0.08,0.91,2.57,0.15,-0.75,
0.874,0.29,0.08,0.92,2.57,0.15,-0.75,
0.882,0.29,0.08,0.92,2.57,0.13,-0.72,
0.882,0.29,0.08,0.92,2.57,0.13,-0.72,
0.883,0.29,0.08,0.92,2.57,0.13,-0.72,
0.883,0.29,0.07,0.93,2.57,0.13,-0.72,
0.883,0.29,0.07,0.93,2.60,0.16,-0.60,
0.884,0.29,0.07,0.95,2.60,0.16,-0.60,
0.887,0.29,0.07,0.95,2.60,0.16,-0.60,
0.887,0.29,0.07,0.95,2.62,0.15,-0.51,
0.889,0.30,0.07,0.96,2.62,0.15,-0.51,
0.892,0.30,0.07,0.97,2.62,0.15,-0.51,
0.892,0.30,0.07,0.97,2.58,0.11,-0.29,
0.898,0.30,0.06,0.98,2.58,0.11,-0.29,
0.899,0.30,0.06,0.98,2.58,0.11,-0.29,
0.899,0.30,0.06,0.98,2.59,0.14,-0.16,
0.899,0.30,0.07,0.98,2.59,0.14,-0.16,
0.901,0.30,0.07,0.98,2.61,0.11,-0.05,
0.902,0.30,0.06,0.99,2.61,0.11,-0.05,
0.904,0.30,0.06,0.99,2.61,0.11,-0.05,
0.907,0.30,0.06,1.01,2.61,0.11,-0.05,
0.907,0.30,0.06,1.01,2.60,0.14,0.06,
0.909,0.30,0.06,1.01,2.60,0.14,0.06,
0.919,0.30,0.07,1.02,2.60,0.14,0.06,
0.92,0.30,0.07,1.02,2.58,0.10,0.19,
0.92,0.30,0.07,1.02,2.58,0.10,0.19,
0.92,0.30,0.08,1.03,2.58,0.10,0.19,
0.92,0.30,0.08,1.03,2.54,0.21,0.34,
0.921,0.30,0.08,1.03,2.54,0.21,0.34,
0.921,0.30,0.09,1.03,2.54,0.21,0.34,
0.921,0.30,0.09,1.03,2.46,0.30,0.42,
0.923,0.30,0.09,1.03,2.46,0.30,0.42,
0.934,0.30,0.09,1.03,2.45,0.38,0.49,
0.935,0.29,0.09,1.04,2.45,0.38,0.49,
0.935,0.29,0.09,1.04,2.45,0.38,0.49,
0.935,0.29,0.08,1.03,2.45,0.38,0.49,
0.936,0.29,0.08,1.03,2.37,0.49,0.55,
0.936,0.29,0.08,1.04,2.37,0.49,0.55,
0.936,0.29,0.08,1.03,2.37,0.49,0.55,
0.936,0.29,0.08,1.03,2.32,0.45,0.53,
0.938,0.28,0.08,1.03,2.32,0.45,0.53,
0.941,0.28,0.07,1.03,2.32,0.45,0.53,
0.941,0.28,0.07,1.03,2.28,0.40,0.53,
0.952,0.28,0.07,1.02,2.28,0.40,0.53,
0.953,0.27,0.06,1.02,2.28,0.40,0.53,
0.953,0.27,0.06,1.02,2.21,0.38,0.45,
0.953,0.27,0.06,1.02,2.21,0.38,0.45,
0.953,0.27,0.06,1.02,2.12,0.34,0.39,
0.954,0.26,0.05,1.02,2.12,0.34,0.39,
0.954,0.26,0.05,1.02,2.12,0.34,0.39,
0.956,0.26,0.04,1.01,2.12,0.34,0.39,
0.956,0.26,0.04,1.01,2.04,0.22,0.37,
0.958,0.27,0.04,1.01,2.04,0.22,0.37,
0.966,0.27,0.03,1.00,2.04,0.22,0.37,
0.966,0.27,0.03,1.00,2.00,0.16,0.31,
0.967,0.27,0.02,1.00,2.00,0.16,0.31,
0.967,0.27,0.02,1.00,2.00,0.16,0.31,
0.967,0.27,0.02,1.00,2.03,0.06,0.24,
0.968,0.27,0.02,1.00,2.03,0.06,0.24,
0.971,0.27,0.01,1.00,2.03,0.06,0.24,
0.971,0.27,0.01,1.00,2.02,-0.07,0.20,
0.973,0.27,0.01,1.01,2.02,-0.07,0.20,
0.977,0.27,0.01,1.01,2.02,-0.12,0.21,
0.977,0.26,0.01,1.02,2.02,-0.12,0.21,
0.982,0.27,0.00,1.02,2.02,-0.12,0.21,
0.982,0.27,0.01,1.03,2.02,-0.12,0.21,
0.983,0.27,0.01,1.03,1.95,-0.16,0.29,
0.983,0.27,0.01,1.04,1.95,-0.16,0.29,
0.986,0.27,0.01,1.04,1.95,-0.16,0.29,
0.986,0.27,0.01,1.04,1.97,-0.16,0.44,
0.988,0.27,0.01,1.05,1.97,-0.16,0.44,
0.99,0.27,0.01,1.06,1.97,-0.16,0.44,
0.991,0.27,0.01,1.06,1.96,-0.11,0.58,
0.993,0.27,0.01,1.07,1.96,-0.11,0.58,
1.0,0.27,0.01,1.07,1.96,-0.11,0.58,
1.001,0.27,0.01,1.07,1.95,-0.07,0.70,
1.001,0.27,0.02,1.08,1.95,-0.07,0.70,
1.001,0.27,0.02,1.08,1.96,-0.03,0.86,
1.002,0.27,0.02,1.09,1.96,-0.03,0.86,
1.003,0.28,0.02,1.09,1.96,-0.03,0.86,
1.007,0.28,0.02,1.10,1.96,-0.03,0.86,
1.007,0.28,0.02,1.10,1.93,0.04,1.01,
1.008,0.28,0.02,1.10,1.93,0.04,1.01,
1.019,0.29,0.02,1.10,1.93,0.04,1.01,
1.019,0.29,0.02,1.10,1.98,0.10,1.11,
1.02,0.29,0.03,1.11,1.98,0.10,1.11,
1.02,0.30,0.03,1.11,1.98,0.10,1.11,
1.02,0.30,0.03,1.11,2.01,0.15,1.17,
1.02,0.30,0.02,1.11,2.01,0.15,1.17,
1.02,0.31,0.02,1.11,2.01,0.15,1.17,
1.021,0.31,0.02,1.11,2.13,0.20,1.21,
1.023,0.31,0.03,1.11,2.13,0.20,1.21,
1.025,0.31,0.03,1.11,2.20,0.19,1.20,
1.026,0.31,0.02,1.12,2.20,0.19,1.20,
1.032,0.31,0.02,1.12,2.20,0.19,1.20,
1.033,0.31,0.02,1.12,2.21,0.24,1.26,
1.033,0.31,0.03,1.11,2.21,0.24,1.26,
1.033,0.31,0.03,1.11,2.21,0.24,1.26,
1.036,0.31,0.03,1.12,2.21,0.24,1.26,
1.036,0.31,0.03,1.12,2.23,0.27,1.30,
1.038,0.31,0.04,1.12,2.23,0.27,1.30,
1.04,0.31,0.04,1.12,2.23,0.27,1.30,
1.041,0.31,0.04,1.12,2.24,0.31,1.26,
1.043,0.32,0.03,1.11,2.24,0.31,1.26,
1.05,0.32,0.03,1.11,2.24,0.31,1.26,
1.051,0.32,0.03,1.11,2.20,0.37,1.30,
1.051,0.32,0.03,1.12,2.20,0.37,1.30,
1.051,0.32,0.03,1.12,2.29,0.31,1.25,
1.051,0.32,0.03,1.12,2.29,0.31,1.25,
1.053,0.32,0.03,1.12,2.29,0.31,1.25,
1.056,0.33,0.03,1.11,2.29,0.31,1.25,
1.056,0.33,0.03,1.11,2.26,0.33,1.27,
1.058,0.33,0.03,1.11,2.26,0.33,1.27,
1.06,0.33,0.03,1.11,2.32,0.29,1.25,
1.061,0.32,0.03,1.12,2.32,0.29,1.25,
1.067,0.32,0.03,1.12,2.32,0.29,1.25,
1.068,0.32,0.04,1.11,2.32,0.29,1.25,
1.068,0.32,0.04,1.11,2.30,0.32,1.23,
1.068,0.31,0.04,1.11,2.30,0.32,1.23,
1.071,0.31,0.04,1.11,2.30,0.32,1.23,
1.071,0.31,0.04,1.11,2.25,0.36,1.23,
1.073,0.31,0.05,1.11,2.25,0.36,1.23,
1.076,0.31,0.05,1.11,2.16,0.42,1.22,
1.076,0.30,0.05,1.11,2.16,0.42,1.22,
1.077,0.29,0.05,1.10,2.16,0.42,1.22,
1.083,0.29,0.06,1.11,2.16,0.42,1.22,
1.083,0.29,0.06,1.11,2.11,0.51,1.17,
1.083,0.29,0.06,1.10,2.11,0.51,1.17,
1.085,0.29,0.06,1.10,2.11,0.51,1.17,
1.086,0.29,0.06,1.10,1.95,0.55,1.16,
1.088,0.28,0.06,1.10,1.95,0.55,1.16,
1.09,0.28,0.06,1.11,1.95,0.55,1.16,
1.091,0.28,0.06,1.11,1.89,0.61,1.12,
1.092,0.28,0.06,1.10,1.89,0.61,1.12,
1.099,0.28,0.06,1.10,1.89,0.61,1.12,
1.099,0.28,0.06,1.10,1.82,0.59,1.11,
1.1,0.27,0.06,1.09,1.82,0.59,1.11,
1.1,0.27,0.06,1.09,1.77,0.57,1.06,
1.1,0.27,0.06,1.09,1.77,0.57,1.06,
1.103,0.27,0.05,1.09,1.77,0.57,1.06,
1.105,0.27,0.05,1.08,1.77,0.57,1.06,
1.105,0.27,0.05,1.08,1.68,0.53,0.98,
1.107,0.27,0.04,1.07,1.68,0.53,0.98,
1.11,0.26,0.04,1.07,1.68,0.53,0.98,
1.11,0.26,0.04,1.07,1.72,0.46,0.92,
1.121,0.26,0.04,1.07,1.72,0.46,0.92,
1.121,0.26,0.03,1.07,1.72,0.46,0.92,
1.121,0.26,0.03,1.07,1.62,0.35,0.81,
1.122,0.26,0.03,1.07,1.62,0.35,0.81,
1.122,0.26,0.01,1.06,1.62,0.35,0.81,
1.122,0.26,0.01,1.06,1.56,0.28,0.78,
1.122,0.26,0.01,1.06,1.56,0.28,0.78,
1.125,0.26,0.01,1.06,1.57,0.15,0.71,
1.125,0.27,0.01,1.05,1.57,0.15,0.71,
1.127,0.27,-0.00,1.04,1.57,0.15,0.71,
1.135,0.27,-0.01,1.04,1.57,0.15,0.71,
1.136,0.27,-0.01,1.04,1.65,0.03,0.62,
1.136,0.27,-0.01,1.04,1.65,0.03,0.62,
1.136,0.27,-0.01,1.04,1.68,-0.14,0.50,
1.136,0.27,-0.02,1.04,1.68,-0.14,0.50,
1.137,0.27,-0.03,1.04,1.68,-0.14,0.50,
1.14,0.27,-0.03,1.04,1.68,-0.14,0.50,
1.14,0.27,-0.03,1.04,1.69,-0.22,0.45,
1.142,0.26,-0.03,1.04,1.69,-0.22,0.45,
1.153,0.26,-0.03,1.03,1.69,-0.22,0.45,
1.154,0.26,-0.03,1.03,1.69,-0.34,0.44,
1.154,0.24,-0.03,1.03,1.69,-0.34,0.44,
1.154,0.24,-0.03,1.03,1.57,-0.40,0.42,
1.157,0.23,-0.03,1.02,1.57,-0.40,0.42,
1.157,0.22,-0.02,1.02,1.57,-0.40,0.42,
1.157,0.21,-0.02,1.01,1.57,-0.40,0.42,
1.158,0.21,-0.02,1.01,1.38,-0.37,0.30,
1.158,0.21,-0.02,1.01,1.38,-0.37,0.30,
1.159,0.20,-0.01,1.00,1.38,-0.37,0.30,
1.159,0.20,-0.01,1.00,1.19,-0.29,0.24,
1.167,0.20,-0.00,0.99,1.19,-0.29,0.24,
1.168,0.19,0.00,0.99,1.19,-0.29,0.24,
1.168,0.19,0.00,0.99,1.06,-0.22,0.13,
1.169,0.19,0.01,0.99,1.06,-0.22,0.13,
1.169,0.19,0.02,0.98,1.06,-0.22,0.13,
1.169,0.19,0.02,0.98,1.02,-0.09,0.01,
1.171,0.18,0.02,0.99,1.02,-0.09,0.01,
1.174,0.18,0.02,0.99,0.97,0.06,-0.08,
1.175,0.18,0.02,0.99,0.97,0.06,-0.08,
1.176,0.19,0.03,0.99,0.97,0.06,-0.08,
1.182,0.19,0.04,0.99,0.97,0.06,-0.08,
1.183,0.19,0.04,0.99,0.92,0.14,-0.06,
1.183,0.20,0.05,0.98,0.92,0.14,-0.06,
1.184,0.20,0.05,0.99,0.92,0.14,-0.06,
1.184,0.20,0.05,0.99,0.98,0.25,-0.07,
1.186,0.21,0.06,0.98,0.98,0.25,-0.07,
1.189,0.21,0.06,0.98,1.07,0.38,-0.09,
1.189,0.21,0.06,0.99,1.07,0.38,-0.09,
1.191,0.22,0.07,0.99,1.07,0.38,-0.09,
1.2,0.23,0.07,0.98,1.07,0.38,-0.09,
1.201,0.23,0.07,0.98,1.19,0.49,-0.09,
1.201,0.23,0.07,0.98,1.19,0.49,-0.09,
1.201,0.23,0.07,0.98,1.33,0.54,-0.13,
1.201,0.23,0.07,0.97,1.33,0.54,-0.13,
1.202,0.23,0.06,0.97,1.33,0.54,-0.13,
1.203,0.24,0.06,0.96,1.33,0.54,-0.13,
1.204,0.24,0.06,0.96,1.39,0.54,-0.17,
1.205,0.23,0.05,0.96,1.39,0.54,-0.17,
1.208,0.24,0.05,0.95,1.39,0.54,-0.17,
1.208,0.24,0.05,0.95,1.45,0.47,-0.30,
1.211,0.24,0.04,0.94,1.45,0.47,-0.30,
1.221,0.23,0.04,0.94,1.45,0.47,-0.30,
1.222,0.23,0.04,0.94,1.46,0.36,-0.40,
1.222,0.24,0.03,0.94,1.46,0.36,-0.40,
1.223,0.23,0.03,0.93,1.46,0.36,-0.40,
1.223,0.23,0.03,0.93,1.47,0.24,-0.52,
1.223,0.22,0.03,0.93,1.47,0.24,-0.52,
1.224,0.22,0.03,0.93,1.42,0.14,-0.57,
1.224,0.22,0.02,0.93,1.42,0.14,-0.57,
1.226,0.22,0.02,0.93,1.42,0.14,-0.57,
1.237,0.22,0.02,0.93,1.42,0.14,-0.57,
1.238,0.22,0.02,0.93,1.34,0.11,-0.64,
1.238,0.22,0.02,0.94,1.34,0.11,-0.64,
1.238,0.22,0.02,0.93,1.34,0.11,-0.64,
1.238,0.22,0.02,0.93,1.33,0.04,-0.62,
1.239,0.21,0.01,0.94,1.33,0.04,-0.62,
1.239,0.21,0.00,0.94,1.33,0.04,-0.62,
1.239,0.21,0.00,0.94,1.29,0.04,-0.57,
1.241,0.20,0.01,0.95,1.29,0.04,-0.57,
1.244,0.20,0.01,0.95,1.27,-0.05,-0.54,
1.244,0.19,0.01,0.95,1.27,-0.05,-0.54,
1.254,0.17,0.01,0.96,1.27,-0.05,-0.54,
1.254,0.17,0.01,0.96,1.13,-0.02,-0.45,
1.255,0.15,0.02,0.96,1.13,-0.02,-0.45,
1.255,0.14,0.03,0.97,1.13,-0.02,-0.45,
1.255,0.13,0.04,0.98,1.13,-0.02,-0.45,
1.255,0.13,0.04,0.98,0.78,0.05,-0.32,
1.256,0.12,0.05,0.98,0.78,0.05,-0.32,
1.258,0.11,0.06,0.98,0.78,0.05,-0.32,
1.258,0.11,0.06,0.98,0.55,0.25,-0.20,
1.26,0.11,0.06,0.98,0.55,0.25,-0.20,
1.267,0.10,0.08,0.98,0.55,0.25,-0.20,
1.268,0.10,0.08,0.98,0.37,0.43,-0.14,
1.268,0.11,0.08,0.98,0.37,0.43,-0.14,
1.268,0.11,0.09,0.98,0.37,0.43,-0.14,
1.269,0.11,0.09,0.98,0.28,0.56,-0.14,
1.27,0.11,0.09,0.98,0.28,0.56,-0.14,
1.273,0.11,0.09,0.98,0.31,0.73,-0.13,
1.273,0.11,0.09,0.98,0.31,0.73,-0.13,
1.275,0.11,0.10,0.98,0.31,0.73,-0.13,
1.283,0.11,0.10,0.98,0.31,0.73,-0.13,
1.283,0.11,0.10,0.98,0.36,0.77,-0.10,
1.284,0.10,0.10,0.98,0.36,0.77,-0.10,
1.284,0.09,0.10,0.98,0.36,0.77,-0.10,
1.284,0.09,0.10,0.98,0.35,0.88,-0.15,
1.285,0.09,0.09,0.99,0.35,0.88,-0.15,
1.288,0.10,0.09,0.99,0.35,0.88,-0.15,
1.288,0.10,0.09,0.99,0.24,0.84,-0.09,
1.29,0.10,0.08,0.99,0.24,0.84,-0.09,
1.292,0.10,0.08,1.00,0.24,0.84,-0.09,
1.293,0.10,0.08,1.00,0.25,0.78,-0.04,
1.3,0.10,0.07,1.00,0.25,0.78,-0.04,
1.301,0.10,0.07,1.00,0.31,0.69,-0.03,
1.301,0.10,0.06,1.00,0.31,0.69,-0.03,
1.301,0.11,0.05,0.99,0.31,0.69,-0.03,
1.303,0.11,0.03,0.99,0.31,0.69,-0.03,
1.303,0.11,0.03,0.99,0.29,0.56,0.09,
1.304,0.12,0.01,1.00,0.29,0.56,0.09,
1.308,0.11,0.00,0.99,0.29,0.56,0.09,
1.308,0.11,0.00,0.99,0.43,0.29,-0.02,
1.309,0.11,-0.01,0.99,0.43,0.29,-0.02,
1.324,0.11,-0.02,0.99,0.43,0.29,-0.02,
1.325,0.11,-0.02,0.99,0.47,0.01,0.00,
1.327,0.10,-0.02,1.00,0.47,0.01,0.00,
1.328,0.09,-0.03,1.00,0.47,0.01,0.00,
1.328,0.09,-0.03,1.00,0.44,-0.17,-0.01,
1.329,0.07,-0.04,1.01,0.44,-0.17,-0.01,
1.329,0.07,-0.05,1.01,0.44,-0.17,-0.01,
1.329,0.07,-0.05,1.01,0.29,-0.29,0.05,
1.33,0.07,-0.06,1.01,0.29,-0.29,0.05,
1.331,0.07,-0.07,1.02,0.29,-0.29,0.05,
1.331,0.07,-0.07,1.02,0.12,-0.48,0.14,
1.331,0.07,-0.08,1.02,0.12,-0.48,0.14,
1.338,0.07,-0.09,1.02,0.12,-0.48,0.14,
1.338,0.07,-0.09,1.02,0.09,-0.65,0.20,
1.339,0.06,-0.10,1.02,0.09,-0.65,0.20,
1.339,0.06,-0.10,1.02,0.09,-0.65,0.20,
1.339,0.06,-0.10,1.02,0.08,-0.86,0.21,
1.34,0.05,-0.10,1.02,0.08,-0.86,0.21,
1.343,0.03,-0.11,1.02,0.08,-0.86,0.21,
1.344,0.03,-0.11,1.02,0.01,-1.00,0.25,
1.345,0.02,-0.10,1.02,0.01,-1.00,0.25,
1.352,0.02,-0.10,1.02,-0.20,-1.03,0.27,
1.353,0.01,-0.10,1.02,-0.20,-1.03,0.27,
1.353,-0.00,-0.09,1.02,-0.20,-1.03,0.27,
1.353,-0.01,-0.08,1.02,-0.20,-1.03,0.27,
1.354,-0.01,-0.08,1.02,-0.42,-0.96,0.24,
1.354,-0.01,-0.07,1.02,-0.42,-0.96,0.24,
1.358,-0.01,-0.07,1.02,-0.60,-0.82,0.23,
1.359,-0.01,-0.07,1.01,-0.60,-0.82,0.23,
1.36,-0.01,-0.06,1.01,-0.60,-0.82,0.23,
1.362,-0.01,-0.07,1.00,-0.60,-0.82,0.23,
1.362,-0.01,-0.07,1.00,-0.61,-0.68,0.20,
1.369,-0.01,-0.06,1.00,-0.61,-0.68,0.20,
1.369,-0.01,-0.06,1.00,-0.63,-0.64,0.07,
1.37,-0.01,-0.05,1.00,-0.63,-0.64,0.07,
1.37,-0.00,-0.05,1.00,-0.63,-0.64,0.07,
1.372,-0.00,-0.05,1.00,-0.62,-0.57,0.06,
1.373,0.00,-0.05,1.00,-0.62,-0.57,0.06,
1.375,0.01,-0.04,1.00,-0.62,-0.57,0.06,
1.377,0.01,-0.04,1.00,-0.52,-0.49,0.05,
1.378,0.00,-0.03,1.00,-0.52,-0.49,0.05,
1.384,0.01,-0.02,1.01,-0.52,-0.49,0.05,
1.385,0.01,-0.02,1.00,-0.52,-0.49,0.05,
1.385,0.01,-0.02,1.00,-0.49,-0.36,0.04,
1.385,0.01,-0.02,1.00,-0.49,-0.36,0.04,
1.387,0.01,-0.02,1.01,-0.49,-0.36,0.04,
1.388,0.01,-0.02,1.01,-0.45,-0.24,0.08,
1.389,0.01,-0.02,1.00,-0.45,-0.24,0.08,
1.392,0.01,-0.03,1.00,-0.45,-0.24,0.08,
1.392,0.01,-0.03,1.00,-0.48,-0.27,0.09,
1.394,0.02,-0.03,1.00,-0.48,-0.27,0.09,
1.401,0.02,-0.03,1.00,-0.42,-0.33,0.08,
1.401,0.03,-0.03,1.00,-0.42,-0.33,0.08,
1.401,0.03,-0.04,0.99,-0.42,-0.33,0.08,
1.402,0.03,-0.04,0.99,-0.42,-0.33,0.08,
1.402,0.03,-0.04,0.99,-0.31,-0.39,0.01,
1.404,0.03,-0.03,0.98,-0.31,-0.39,0.01,
1.407,0.03,-0.04,0.98,-0.31,-0.39,0.01,
1.407,0.03,-0.04,0.98,-0.24,-0.47,-0.08,
1.409,0.03,-0.04,0.97,-0.24,-0.47,-0.08,
1.412,0.03,-0.04,0.97,-0.24,-0.45,-0.16,
1.412,0.02,-0.04,0.96,-0.24,-0.45,-0.16,
1.423,0.01,-0.04,0.97,-0.24,-0.45,-0.16,
1.424,0.00,-0.03,0.98,-0.24,-0.45,-0.16,
1.424,0.00,-0.03,0.98,-0.28,-0.51,-0.30,
1.424,0.00,-0.04,0.98,-0.28,-0.51,-0.30,
1.425,0.00,-0.04,0.98,-0.47,-0.45,-0.20,
1.425,0.00,-0.05,0.98,-0.47,-0.45,-0.20,
1.425,0.01,-0.05,0.97,-0.47,-0.45,-0.20,
1.427,0.01,-0.06,0.95,-0.47,-0.45,-0.20,
1.427,0.01,-0.06,0.95,-0.51,-0.53,-0.15,
1.429,0.00,-0.06,0.94,-0.51,-0.53,-0.15,
1.437,0.00,-0.06,0.93,-0.51,-0.53,-0.15,
1.438,0.00,-0.06,0.93,-0.43,-0.65,-0.36,
1.438,-0.00,-0.06,0.93,-0.43,-0.65,-0.36,
1.438,-0.01,-0.06,0.94,-0.43,-0.65,-0.36,
1.438,-0.01,-0.06,0.94,-0.46,-0.68,-0.59,
1.439,-0.02,-0.04,0.94,-0.46,-0.68,-0.59,
1.442,-0.02,-0.04,0.96,-0.46,-0.68,-0.59,
1.442,-0.02,-0.04,0.96,-0.52,-0.66,-0.59,
1.444,-0.03,-0.04,0.96,-0.52,-0.66,-0.59,
1.454,-0.03,-0.04,0.96,-0.64,-0.50,-0.45,
1.455,-0.03,-0.04,0.97,-0.64,-0.50,-0.45,
1.455,-0.02,-0.03,0.97,-0.64,-0.50,-0.45,
1.455,-0.02,-0.03,0.99,-0.64,-0.50,-0.45,
1.456,-0.02,-0.03,0.99,-0.76,-0.47,-0.27,
1.456,-0.01,-0.04,1.00,-0.76,-0.47,-0.27,
1.456,-0.01,-0.04,1.01,-0.76,-0.47,-0.27,
1.456,-0.01,-0.04,1.01,-0.70,-0.39,-0.12,
1.459,0.00,-0.05,1.02,-0.70,-0.39,-0.12,
1.462,0.00,-0.05,1.03,-0.70,-0.39,-0.12,
1.462,0.00,-0.05,1.03,-0.57,-0.45,0.10,
1.469,0.01,-0.06,1.04,-0.57,-0.45,0.10,
1.47,0.02,-0.06,1.04,-0.57,-0.45,0.10,
1.47,0.02,-0.06,1.04,-0.45,-0.53,0.29,
1.47,0.02,-0.06,1.05,-0.45,-0.53,0.29,
1.471,0.02,-0.06,1.05,-0.35,-0.60,0.46,
1.471,0.02,-0.06,1.06,-0.35,-0.60,0.46,
1.473,0.02,-0.06,1.06,-0.35,-0.60,0.46,
1.476,0.03,-0.06,1.06,-0.35,-0.60,0.46,
1.476,0.03,-0.06,1.06,-0.34,-0.64,0.57,
1.478,0.02,-0.07,1.05,-0.34,-0.64,0.57,
1.486,0.02,-0.07,1.05,-0.34,-0.64,0.57,
1.486,0.02,-0.07,1.05,-0.29,-0.64,0.63,
1.486,0.02,-0.08,1.05,-0.29,-0.64,0.63,
1.487,0.02,-0.08,1.04,-0.29,-0.64,0.63,
1.487,0.02,-0.08,1.04,-0.35,-0.77,0.52,
1.488,0.02,-0.08,1.03,-0.35,-0.77,0.52,
1.49,0.02,-0.08,1.03,-0.41,-0.88,0.45,
1.491,0.02,-0.09,1.02,-0.41,-0.88,0.45,
1.493,0.02,-0.09,1.01,-0.41,-0.88,0.45,
1.502,0.02,-0.10,0.99,-0.41,-0.88,0.45,
1.502,0.02,-0.10,0.99,-0.41,-0.98,0.29,
1.502,0.02,-0.10,0.99,-0.41,-0.98,0.29,
1.503,0.01,-0.09,0.98,-0.41,-0.98,0.29,
1.503,0.01,-0.09,0.98,-0.43,-1.08,0.06,
1.503,0.02,-0.10,0.97,-0.43,-1.08,0.06,
1.506,0.02,-0.10,0.97,-0.51,-1.13,-0.09,
1.506,0.01,-0.10,0.96,-0.51,-1.13,-0.09,
1.508,0.00,-0.10,0.97,-0.51,-1.13,-0.09,
1.51,-0.00,-0.10,0.97,-0.51,-1.13,-0.09,
1.511,-0.00,-0.10,0.97,-0.55,-1.21,-0.25,
1.524,-0.00,-0.10,0.97,-0.55,-1.21,-0.25,
1.525,-0.01,-0.10,0.98,-0.55,-1.21,-0.25,
1.525,-0.01,-0.10,0.98,-0.69,-1.19,-0.25,
1.525,-0.01,-0.10,0.97,-0.69,-1.19,-0.25,
1.526,-0.01,-0.10,0.97,-0.77,-1.21,-0.19,
1.526,-0.00,-0.11,0.96,-0.77,-1.21,-0.19,
1.526,-0.00,-0.11,0.94,-0.77,-1.21,-0.19,
1.526,-0.01,-0.11,0.93,-0.77,-1.21,-0.19,
1.526,-0.01,-0.11,0.93,-0.81,-1.28,-0.27,
1.527,-0.02,-0.12,0.92,-0.81,-1.28,-0.27,
1.537,-0.02,-0.11,0.92,-0.81,-1.28,-0.27,
1.538,-0.02,-0.11,0.92,-0.79,-1.41,-0.55,
1.538,-0.03,-0.11,0.91,-0.79,-1.41,-0.55,
1.538,-0.04,-0.10,0.91,-0.79,-1.41,-0.55,
1.538,-0.04,-0.10,0.91,-0.92,-1.44,-0.72,
1.538,-0.05,-0.09,0.90,-0.92,-1.44,-0.72,
1.54,-0.06,-0.08,0.90,-0.92,-1.44,-0.72,
1.54,-0.06,-0.08,0.90,-1.09,-1.31,-0.80,
1.542,-0.07,-0.07,0.90,-1.09,-1.31,-0.80,
1.545,-0.07,-0.07,0.90,-1.25,-1.14,-0.89,
1.545,-0.07,-0.07,0.90,-1.25,-1.14,-0.89,
1.555,-0.08,-0.06,0.90,-1.25,-1.14,-0.89,
1.555,-0.08,-0.05,0.90,-1.25,-1.14,-0.89,
1.556,-0.08,-0.05,0.90,-1.39,-1.00,-0.90,
1.556,-0.08,-0.05,0.91,-1.39,-1.00,-0.90,
1.556,-0.08,-0.05,0.91,-1.39,-1.00,-0.90,
1.556,-0.08,-0.05,0.91,-1.47,-0.88,-0.90,
1.557,-0.07,-0.05,0.92,-1.47,-0.88,-0.90,
1.56,-0.07,-0.05,0.93,-1.47,-0.88,-0.90,
1.56,-0.07,-0.05,0.93,-1.49,-0.80,-0.80,
1.562,-0.06,-0.05,0.93,-1.49,-0.80,-0.80,
1.568,-0.05,-0.05,0.94,-1.49,-0.80,-0.80,
1.569,-0.05,-0.05,0.94,-1.38,-0.83,-0.65,
1.569,-0.04,-0.05,0.96,-1.38,-0.83,-0.65,
1.57,-0.04,-0.05,0.96,-1.24,-0.81,-0.53,
1.57,-0.03,-0.05,0.97,-1.24,-0.81,-0.53,
1.572,-0.02,-0.05,0.98,-1.24,-0.81,-0.53,
1.575,-0.01,-0.05,0.99,-1.24,-0.81,-0.53,
1.575,-0.01,-0.05,0.99,-1.06,-0.81,-0.27,
1.577,-0.00,-0.05,1.00,-1.06,-0.81,-0.27,
1.584,0.01,-0.06,1.00,-1.06,-0.81,-0.27,
1.585,0.01,-0.06,1.00,-0.94,-0.79,-0.09,
1.585,0.01,-0.06,1.01,-0.94,-0.79,-0.09,
1.585,0.01,-0.06,1.02,-0.94,-0.79,-0.09,
1.586,0.01,-0.06,1.02,-0.75,-0.86,0.06,
1.587,0.01,-0.06,1.02,-0.75,-0.86,0.06,
1.589,0.01,-0.06,1.03,-0.75,-0.86,0.06,
1.59,0.01,-0.06,1.03,-0.70,-0.86,0.24,
1.592,0.01,-0.06,1.04,-0.70,-0.86,0.24,
1.594,0.01,-0.06,1.04,-0.71,-0.86,0.35,
1.595,0.01,-0.06,1.04,-0.71,-0.86,0.35,
1.601,0.00,-0.07,1.04,-0.71,-0.86,0.35,
1.602,-0.01,-0.07,1.03,-0.71,-0.86,0.35,
1.602,-0.01,-0.07,1.03,-0.75,-0.88,0.47,
1.602,-0.01,-0.07,1.03,-0.75,-0.88,0.47,
1.604,-0.01,-0.08,1.02,-0.75,-0.88,0.47,
1.604,-0.01,-0.08,1.02,-0.83,-0.93,0.42,
1.607,-0.02,-0.08,1.01,-0.83,-0.93,0.42,
1.61,-0.02,-0.09,1.01,-0.83,-0.93,0.42,
1.61,-0.02,-0.09,1.01,-0.92,-1.00,0.31,
1.611,-0.03,-0.08,1.00,-0.92,-1.00,0.31,
1.623,-0.04,-0.09,0.99,-0.92,-1.00,0.31,
1.624,-0.04,-0.09,0.99,-0.99,-1.09,0.16,
1.624,-0.05,-0.09,0.99,-0.99,-1.09,0.16,
1.624,-0.05,-0.09,0.99,-1.13,-1.09,0.05,
1.624,-0.06,-0.09,0.98,-1.13,-1.09,0.05,
1.625,-0.06,-0.09,0.98,-1.13,-1.09,0.05,
1.625,-0.08,-0.09,0.98,-1.13,-1.09,0.05,
1.625,-0.08,-0.09,0.98,-1.30,-1.09,-0.03,
1.626,-0.08,-0.08,0.98,-1.30,-1.09,-0.03,
1.629,-0.09,-0.08,0.98,-1.30,-1.09,-0.03,
1.629,-0.09,-0.08,0.98,-1.45,-1.07,-0.11,
1.638,-0.10,-0.08,0.98,-1.45,-1.07,-0.11,
1.638,-0.11,-0.08,0.97,-1.45,-1.07,-0.11,
1.638,-0.11,-0.08,0.97,-1.61,-1.02,-0.11,
1.639,-0.11,-0.08,0.97,-1.61,-1.02,-0.11,
1.639,-0.11,-0.08,0.97,-1.61,-1.02,-0.11,
1.639,-0.11,-0.08,0.97,-1.74,-1.00,-0.17,
1.641,-0.12,-0.08,0.97,-1.74,-1.00,-0.17,
1.644,-0.12,-0.08,0.97,-1.84,-0.96,-0.20,
1.647,-0.12,-0.08,0.96,-1.84,-0.96,-0.20,
1.647,-0.13,-0.08,0.96,-1.84,-0.96,-0.20,
1.657,-0.13,-0.08,0.96,-1.84,-0.96,-0.20,
1.658,-0.13,-0.08,0.96,-1.88,-1.00,-0.25,
1.658,-0.13,-0.08,0.95,-1.88,-1.00,-0.25,
1.658,-0.14,-0.08,0.96,-1.88,-1.00,-0.25,
1.659,-0.14,-0.08,0.96,-1.97,-0.99,-0.34,
1.659,-0.13,-0.09,0.95,-1.97,-0.99,-0.34,
1.66,-0.13,-0.09,0.95,-1.97,-0.99,-0.34,
1.66,-0.13,-0.09,0.95,-2.02,-0.98,-0.35,
1.662,-0.13,-0.09,0.95,-2.02,-0.98,-0.35,
1.664,-0.13,-0.09,0.96,-2.02,-0.98,-0.35,
1.664,-0.13,-0.09,0.96,-1.96,-1.02,-0.38,
1.672,-0.13,-0.09,0.96,-1.96,-1.02,-0.38,
1.673,-0.13,-0.09,0.96,-1.99,-1.03,-0.36,
1.673,-0.14,-0.09,0.96,-1.99,-1.03,-0.36,
1.673,-0.14,-0.09,0.96,-1.99,-1.03,-0.36,
1.674,-0.14,-0.09,0.96,-1.99,-1.03,-0.36,
1.674,-0.14,-0.09,0.96,-2.00,-1.06,-0.33,
1.677,-0.13,-0.09,0.97,-2.00,-1.06,-0.33,
1.679,-0.12,-0.09,0.97,-2.00,-1.06,-0.33,
1.679,-0.12,-0.09,0.97,-2.02,-1.00,-0.31,
1.686,-0.12,-0.09,0.97,-2.02,-1.00,-0.31,
1.686,-0.12,-0.10,0.98,-2.02,-1.00,-0.31,
1.686,-0.12,-0.10,0.98,-1.91,-1.01,-0.19,
1.687,-0.12,-0.10,0.99,-1.91,-1.01,-0.19,
1.689,-0.12,-0.10,1.00,-1.91,-1.01,-0.19,
1.689,-0.12,-0.10,1.00,-1.85,-1.04,-0.13,
1.691,-0.12,-0.10,1.02,-1.85,-1.04,-0.13,
1.694,-0.12,-0.10,1.02,-1.86,-1.05,0.03,
1.694,-0.11,-0.10,1.03,-1.86,-1.05,0.03,
1.697,-0.11,-0.10,1.03,-1.86,-1.05,0.03,
1.703,-0.11,-0.11,1.03,-1.86,-1.05,0.03,
1.704,-0.11,-0.11,1.03,-1.83,-1.04,0.34,
1.704,-0.10,-0.12,1.02,-1.83,-1.04,0.34,
1.704,-0.09,-0.13,1.02,-1.83,-1.04,0.34,
1.704,-0.09,-0.13,1.02,-1.78,-1.14,0.38,
1.706,-0.09,-0.13,1.01,-1.78,-1.14,0.38,
1.709,-0.08,-0.13,0.99,-1.78,-1.14,0.38,
1.709,-0.08,-0.13,0.99,-1.66,-1.27,0.27,
1.711,-0.09,-0.12,0.99,-1.66,-1.27,0.27,
1.714,-0.09,-0.12,0.99,-1.66,-1.27,0.27,
1.714,-0.09,-0.12,0.99,-1.54,-1.33,0.09,
1.727,-0.11,-0.11,1.00,-1.54,-1.33,0.09,
1.728,-0.11,-0.11,1.00,-1.60,-1.24,-0.01,
1.728,-0.11,-0.11,1.01,-1.60,-1.24,-0.01,
1.728,-0.11,-0.12,1.01,-1.60,-1.24,-0.01,
1.729,-0.12,-0.11,1.00,-1.60,-1.24,-0.01,
1.729,-0.12,-0.11,1.00,-1.76,-1.15,0.11,
1.729,-0.12,-0.11,1.00,-1.76,-1.15,0.11,
1.729,-0.12,-0.11,1.00,-1.76,-1.15,0.11,
1.729,-0.12,-0.11,1.00,-1.82,-1.15,0.15,
1.739,-0.12,-0.12,1.00,-1.82,-1.15,0.15,
1.74,-0.12,-0.12,1.00,-1.85,-1.12,0.07,
1.74,-0.12,-0.12,1.00,-1.85,-1.12,0.07,
1.74,-0.12,-0.13,0.99,-1.85,-1.12,0.07,
1.74,-0.12,-0.12,0.98,-1.85,-1.12,0.07,
1.741,-0.12,-0.12,0.98,-1.88,-1.18,0.05,
1.741,-0.12,-0.13,0.98,-1.88,-1.18,0.05,
1.744,-0.12,-0.13,0.98,-1.85,-1.25,-0.04,
1.744,-0.12,-0.13,0.97,-1.85,-1.25,-0.04,
1.746,-0.12,-0.13,0.96,-1.85,-1.25,-0.04,
1.756,-0.13,-0.12,0.95,-1.85,-1.25,-0.04,
1.757,-0.13,-0.12,0.95,-1.84,-1.27,-0.18,
1.757,-0.13,-0.12,0.94,-1.84,-1.27,-0.18,
1.757,-0.13,-0.11,0.94,-1.84,-1.27,-0.18,
1.758,-0.13,-0.11,0.94,-1.90,-1.27,-0.37,
1.758,-0.14,-0.11,0.94,-1.90,-1.27,-0.37,
1.758,-0.14,-0.11,0.93,-1.90,-1.27,-0.37,
1.758,-0.14,-0.11,0.93,-1.93,-1.19,-0.49,
1.761,-0.15,-0.11,0.94,-1.93,-1.19,-0.49,
1.764,-0.15,-0.10,0.95,-1.93,-1.19,-0.49,
1.764,-0.15,-0.10,0.95,-2.02,-1.14,-0.58,
1.772,-0.16,-0.09,0.96,-2.02,-1.14,-0.58,
1.773,-0.16,-0.09,0.96,-2.14,-1.05,-0.49,
1.773,-0.16,-0.08,0.96,-2.14,-1.05,-0.49,
1.773,-0.15,-0.08,0.96,-2.14,-1.05,-0.49,
1.773,-0.14,-0.08,0.95,-2.14,-1.05,-0.49,
1.774,-0.14,-0.08,0.95,-2.19,-0.91,-0.31,
1.776,-0.13,-0.08,0.94,-2.19,-0.91,-0.31,
1.778,-0.13,-0.08,0.93,-2.19,-0.91,-0.31,
1.778,-0.13,-0.08,0.93,-2.11,-0.84,-0.32,
1.781,-0.13,-0.08,0.93,-2.11,-0.84,-0.32,
1.788,-0.12,-0.09,0.93,-2.11,-0.84,-0.32,
1.788,-0.12,-0.09,0.93,-1.95,-0.90,-0.52,
1.789,-0.12,-0.08,0.93,-1.95,-0.90,-0.52,
1.789,-0.12,-0.08,0.92,-1.95,-0.90,-0.52,
1.789,-0.12,-0.08,0.92,-1.90,-0.94,-0.59,
1.79,-0.12,-0.07,0.91,-1.90,-0.94,-0.59,
1.793,-0.12,-0.07,0.91,-1.84,-0.89,-0.66,
1.793,-0.12,-0.07,0.92,-1.84,-0.89,-0.66,
1.795,-0.12,-0.07,0.92,-1.84,-0.89,-0.66,
1.809,-0.12,-0.06,0.92,-1.84,-0.89,-0.66,
1.81,-0.12,-0.06,0.92,-1.87,-0.84,-0.70,
1.81,-0.12,-0.06,0.92,-1.87,-0.84,-0.70,
1.81,-0.12,-0.06,0.92,-1.87,-0.84,-0.70,
1.81,-0.12,-0.06,0.92,-1.89,-0.74,-0.67,
1.811,-0.10,-0.05,0.92,-1.89,-0.74,-0.67,
1.811,-0.10,-0.05,0.93,-1.89,-0.74,-0.67,
1.811,-0.10,-0.05,0.93,-1.84,-0.68,-0.68,
1.814,-0.09,-0.05,0.93,-1.84,-0.68,-0.68,
1.814,-0.09,-0.05,0.93,-1.84,-0.68,-0.68,
1.814,-0.09,-0.05,0.93,-1.69,-0.64,-0.63,
1.828,-0.09,-0.05,0.94,-1.69,-0.64,-0.63,
1.829,-0.09,-0.05,0.94,-1.61,-0.61,-0.56,
1.829,-0.09,-0.04,0.95,-1.61,-0.61,-0.56,
1.829,-0.09,-0.04,0.96,-1.61,-0.61,-0.56,
1.83,-0.09,-0.04,0.97,-1.61,-0.61,-0.56,
1.83,-0.09,-0.04,0.97,-1.58,-0.55,-0.40,
1.83,-0.10,-0.05,0.98,-1.58,-0.55,-0.40,
1.83,-0.09,-0.05,0.99,-1.58,-0.55,-0.40,
1.831,-0.09,-0.05,0.99,-1.60,-0.50,-0.21,
1.831,-0.09,-0.05,0.99,-1.60,-0.50,-0.21,
1.841,-0.10,-0.05,1.01,-1.60,-0.50,-0.21,
1.842,-0.10,-0.05,1.01,-1.63,-0.58,-0.02,
1.843,-0.09,-0.04,1.01,-1.63,-0.58,-0.02,
1.843,-0.09,-0.04,1.01,-1.63,-0.58,-0.02,
1.843,-0.09,-0.04,1.01,-1.63,-0.53,0.13,
1.844,-0.09,-0.04,1.02,-1.63,-0.53,0.13,
1.844,-0.09,-0.04,1.02,-1.61,-0.48,0.22,
1.844,-0.09,-0.04,1.02,-1.61,-0.48,0.22,
1.844,-0.09,-0.05,1.03,-1.61,-0.48,0.22,
1.86,-0.10,-0.05,1.02,-1.61,-0.48,0.22,
1.86,-0.10,-0.05,1.02,-1.60,-0.44,0.31,
1.86,-0.10,-0.05,1.02,-1.60,-0.44,0.31,
1.861,-0.11,-0.05,1.02,-1.60,-0.44,0.31,
1.861,-0.11,-0.05,1.02,-1.62,-0.51,0.36,
1.861,-0.11,-0.06,1.01,-1.62,-0.51,0.36,
1.861,-0.11,-0.05,1.01,-1.62,-0.51,0.36,
1.862,-0.11,-0.05,1.01,-1.67,-0.53,0.32,
1.862,-0.12,-0.05,1.00,-1.67,-0.53,0.32,
1.862,-0.12,-0.06,0.99,-1.67,-0.53,0.32,
1.862,-0.12,-0.06,0.99,-1.74,-0.54,0.24,
1.865,-0.13,-0.05,0.99,-1.74,-0.54,0.24,
1.873,-0.13,-0.05,0.99,-1.78,-0.51,0.08,
1.873,-0.13,-0.05,0.98,-1.78,-0.51,0.08,
1.874,-0.13,-0.06,0.98,-1.78,-0.51,0.08,
1.874,-0.13,-0.07,0.97,-1.78,-0.51,0.08,
1.874,-0.13,-0.07,0.97,-1.86,-0.47,-0.00,
1.874,-0.14,-0.06,0.97,-1.86,-0.47,-0.00,
1.878,-0.15,-0.06,0.97,-1.86,-0.47,-0.00,
1.878,-0.15,-0.06,0.97,-1.86,-0.58,-0.13,
1.88,-0.16,-0.06,0.99,-1.86,-0.58,-0.13,
1.882,-0.17,-0.05,1.00,-1.86,-0.58,-0.13,
1.882,-0.17,-0.05,1.00,-1.96,-0.56,-0.16,
1.889,-0.17,-0.05,1.01,-1.96,-0.56,-0.16,
1.89,-0.18,-0.05,1.01,-1.96,-0.56,-0.16,
1.89,-0.18,-0.05,1.01,-2.18,-0.49,0.08,
1.89,-0.16,-0.06,1.01,-2.18,-0.49,0.08,
1.892,-0.16,-0.06,1.01,-2.22,-0.43,0.24,
1.893,-0.16,-0.07,1.00,-2.22,-0.43,0.24,
1.894,-0.15,-0.08,0.99,-2.22,-0.43,0.24,
1.897,-0.15,-0.09,0.99,-2.22,-0.43,0.24,
1.898,-0.15,-0.09,0.99,-2.06,-0.59,0.15,
1.904,-0.14,-0.09,0.98,-2.06,-0.59,0.15,
1.905,-0.14,-0.09,0.99,-2.06,-0.59,0.15,
1.905,-0.14,-0.09,0.99,-1.95,-0.77,0.01,
1.905,-0.13,-0.09,1.00,-1.95,-0.77,0.01,
1.907,-0.14,-0.09,1.00,-1.95,-0.77,0.01,
1.907,-0.14,-0.09,1.00,-1.81,-0.81,-0.04,
1.909,-0.13,-0.08,1.00,-1.81,-0.81,-0.04,
1.911,-0.13,-0.08,1.01,-1.81,-0.81,-0.04,
1.912,-0.13,-0.08,1.01,-1.75,-0.78,0.09,
1.914,-0.13,-0.07,1.01,-1.75,-0.78,0.09,
1.925,-0.13,-0.07,1.01,-1.74,-0.66,0.19,
1.926,-0.13,-0.07,1.02,-1.74,-0.66,0.19,
1.926,-0.12,-0.07,1.03,-1.74,-0.66,0.19,
1.927,-0.11,-0.06,1.04,-1.74,-0.66,0.19,
1.927,-0.11,-0.06,1.04,-1.69,-0.54,0.26,
1.927,-0.10,-0.06,1.05,-1.69,-0.54,0.26,
1.927,-0.09,-0.05,1.05,-1.69,-0.54,0.26,
1.927,-0.09,-0.05,1.05,-1.56,-0.49,0.44,
1.929,-0.08,-0.05,1.06,-1.56,-0.49,0.44,
1.932,-0.07,-0.05,1.07,-1.56,-0.49,0.44,
1.932,-0.07,-0.05,1.07,-1.39,-0.40,0.59,
1.94,-0.06,-0.05,1.08,-1.39,-0.40,0.59,
1.94,-0.05,-0.05,1.10,-1.39,-0.40,0.59,
1.941,-0.05,-0.05,1.10,-1.22,-0.36,0.78,
1.941,-0.05,-0.04,1.10,-1.22,-0.36,0.78,
1.941,-0.05,-0.04,1.10,-1.01,-0.34,0.98,
1.941,-0.04,-0.04,1.11,-1.01,-0.34,0.98,
1.944,-0.03,-0.04,1.11,-1.01,-0.34,0.98,
1.947,-0.03,-0.04,1.11,-0.91,-0.26,1.11,
1.947,-0.02,-0.03,1.12,-0.91,-0.26,1.11,
1.958,-0.02,-0.03,1.13,-0.91,-0.26,1.11,
1.959,-0.02,-0.03,1.14,-0.91,-0.26,1.11,
1.959,-0.02,-0.03,1.14,-0.78,-0.18,1.22,
1.959,-0.02,-0.02,1.14,-0.78,-0.18,1.22,
1.959,-0.02,-0.02,1.15,-0.78,-0.18,1.22,
1.96,-0.02,-0.02,1.15,-0.73,-0.10,1.38,
1.96,-0.02,-0.02,1.15,-0.73,-0.10,1.38,
1.962,-0.02,-0.02,1.15,-0.73,-0.10,1.38,
1.962,-0.02,-0.02,1.15,-0.70,-0.04,1.49,
1.964,-0.02,-0.02,1.16,-0.70,-0.04,1.49,
1.971,-0.02,-0.02,1.16,-0.73,0.01,1.55,
1.972,-0.03,-0.02,1.16,-0.73,0.01,1.55,
1.972,-0.03,-0.01,1.16,-0.73,0.01,1.55,
1.972,-0.03,-0.01,1.17,-0.73,0.01,1.55,
1.973,-0.03,-0.01,1.17,-0.77,0.03,1.62,
1.973,-0.04,-0.01,1.16,-0.77,0.03,1.62,
1.976,-0.04,-0.02,1.16,-0.77,0.03,1.62,
1.977,-0.04,-0.02,1.16,-0.85,0.08,1.61,
1.978,-0.05,-0.02,1.16,-0.85,0.08,1.61,
1.981,-0.05,-0.03,1.16,-0.85,0.08,1.61,
1.981,-0.05,-0.03,1.16,-0.91,0.05,1.62,
1.988,-0.05,-0.04,1.15,-0.91,0.05,1.62,
1.989,-0.05,-0.04,1.14,-0.91,0.05,1.62,
1.989,-0.05,-0.04,1.14,-0.99,-0.07,1.59,
1.989,-0.05,-0.05,1.13,-0.99,-0.07,1.59,
1.991,-0.05,-0.05,1.13,-1.00,-0.21,1.44,
1.991,-0.06,-0.06,1.11,-1.00,-0.21,1.44,
1.993,-0.07,-0.07,1.10,-1.00,-0.21,1.44,
2.001,-0.08,-0.07,1.09,-1.00,-0.21,1.44,
2.002,-0.08,-0.07,1.09,-1.06,-0.36,1.21,
2.002,-0.09,-0.08,1.09,-1.06,-0.36,1.21,
2.002,-0.09,-0.08,1.09,-1.06,-0.36,1.21,
2.002,-0.09,-0.08,1.09,-1.20,-0.48,0.97,
2.004,-0.10,-0.07,1.10,-1.20,-0.48,0.97,
2.006,-0.10,-0.07,1.11,-1.20,-0.48,0.97,
2.006,-0.10,-0.07,1.11,-1.37,-0.57,0.88,
2.013,-0.10,-0.08,1.10,-1.37,-0.57,0.88,
2.013,-0.10,-0.08,1.10,-1.50,-0.54,1.01,
2.013,-0.09,-0.08,1.09,-1.50,-0.54,1.01,
2.013,-0.08,-0.08,1.08,-1.50,-0.54,1.01,
2.02,-0.08,-0.08,1.08,-1.37,-0.62,0.93,
2.02,-0.07,-0.09,1.07,-1.37,-0.62,0.93,
2.02,-0.06,-0.08,1.07,-1.37,-0.62,0.93,
2.02,-0.05,-0.07,1.06,-1.37,-0.62,0.93,
2.021,-0.05,-0.07,1.06,-1.17,-0.68,0.73,
2.023,-0.06,-0.07,1.06,-1.17,-0.68,0.73,
2.026,-0.05,-0.05,1.07,-1.17,-0.68,0.73,
2.026,-0.05,-0.05,1.07,-0.99,-0.64,0.64,
2.028,-0.05,-0.04,1.08,-0.99,-0.64,0.64,
2.031,-0.05,-0.02,1.09,-0.99,-0.64,0.64,
2.031,-0.05,-0.02,1.09,-0.98,-0.49,0.67,
2.032,-0.04,-0.01,1.09,-0.98,-0.49,0.67,
2.046,-0.04,-0.00,1.10,-0.98,-0.49,0.67,
2.047,-0.04,-0.00,1.10,-0.95,-0.19,0.81,
2.047,-0.03,0.00,1.11,-0.95,-0.19,0.81,
2.047,-0.03,0.00,1.11,-0.86,0.02,0.96,
2.047,-0.02,0.01,1.12,-0.86,0.02,0.96,
2.047,-0.01,0.01,1.13,-0.86,0.02,0.96,
2.047,0.01,0.02,1.14,-0.86,0.02,0.96,
2.047,0.01,0.02,1.14,-0.70,0.10,1.11,
2.048,0.02,0.02,1.15,-0.70,0.10,1.11,
2.057,0.03,0.02,1.15,-0.70,0.10,1.11,
2.058,0.03,0.02,1.15,-0.51,0.18,1.30,
2.058,0.04,0.02,1.15,-0.51,0.18,1.30,
2.058,0.06,0.02,1.15,-0.51,0.18,1.30,
2.058,0.06,0.02,1.15,-0.25,0.19,1.44,
2.059,0.06,0.02,1.15,-0.25,0.19,1.44,
2.061,0.06,0.02,1.15,-0.05,0.19,1.46,
2.061,0.07,0.02,1.15,-0.05,0.19,1.46,
2.063,0.07,0.01,1.14,-0.05,0.19,1.46,
2.065,0.07,0.01,1.14,0.12,0.20,1.44,
2.066,0.07,0.02,1.14,0.12,0.20,1.44,
2.074,0.08,0.02,1.13,0.12,0.20,1.44,
2.075,0.08,0.02,1.12,0.12,0.20,1.44,
2.075,0.08,0.02,1.12,0.16,0.16,1.35,
2.075,0.08,0.02,1.12,0.16,0.16,1.35,
2.076,0.07,0.02,1.12,0.16,0.16,1.35,
2.076,0.07,0.02,1.12,0.23,0.21,1.22,
2.078,0.07,0.03,1.11,0.23,0.21,1.22,
2.08,0.06,0.03,1.10,0.23,0.21,1.22,
2.081,0.06,0.03,1.10,0.19,0.20,1.15,
2.082,0.05,0.03,1.09,0.19,0.20,1.15,
2.09,0.04,0.03,1.08,0.19,0.20,1.15,
2.09,0.04,0.03,1.08,0.10,0.24,0.97,
2.091,0.04,0.03,1.07,0.10,0.24,0.97,
2.091,0.04,0.03,1.07,-0.05,0.24,0.79,
2.091,0.03,0.02,1.06,-0.05,0.24,0.79,
2.092,0.03,0.01,1.05,-0.05,0.24,0.79,
2.095,0.02,0.01,1.04,-0.05,0.24,0.79,
2.095,0.02,0.01,1.04,-0.19,0.18,0.63,
2.097,0.02,0.00,1.03,-0.19,0.18,0.63,
2.104,0.01,-0.00,1.03,-0.19,0.18,0.63,
2.105,0.01,-0.00,1.03,-0.23,0.05,0.44,
2.105,0.01,-0.01,1.02,-0.23,0.05,0.44,
2.105,0.01,-0.01,1.01,-0.23,0.05,0.44,
2.106,0.01,-0.01,1.01,-0.30,-0.07,0.27,
2.108,0.00,-0.02,1.01,-0.30,-0.07,0.27,
2.11,0.00,-0.02,1.01,-0.35,-0.18,0.09,
2.11,-0.00,-0.02,1.00,-0.35,-0.18,0.09,
2.112,-0.00,-0.02,0.98,-0.35,-0.18,0.09,
2.115,-0.01,-0.03,0.98,-0.35,-0.18,0.09,
2.115,-0.01,-0.03,0.98,-0.42,-0.27,-0.01,
2.127,-0.01,-0.03,0.98,-0.42,-0.27,-0.01,
2.128,-0.01,-0.03,0.99,-0.42,-0.27,-0.01,
2.128,-0.01,-0.03,0.99,-0.42,-0.33,-0.19,
2.128,-0.01,-0.03,0.99,-0.42,-0.33,-0.19,
2.129,-0.01,-0.03,0.99,-0.42,-0.33,-0.19,
2.129,-0.01,-0.03,0.99,-0.47,-0.35,-0.18,
2.129,-0.01,-0.03,0.99,-0.47,-0.35,-0.18,
2.13,-0.01,-0.02,1.00,-0.47,-0.35,-0.18,
2.13,-0.01,-0.02,1.00,-0.48,-0.38,-0.12,
2.132,-0.02,-0.02,1.00,-0.48,-0.38,-0.12,
2.141,-0.02,-0.02,1.01,-0.48,-0.38,-0.12,
2.141,-0.02,-0.02,1.01,-0.47,-0.35,-0.07,
2.141,-0.02,-0.02,1.01,-0.47,-0.35,-0.07,
2.142,-0.02,-0.02,1.01,-0.49,-0.27,0.03,
2.144,-0.02,-0.01,1.02,-0.49,-0.27,0.03,
2.145,-0.02,-0.01,1.03,-0.49,-0.27,0.03,
2.145,-0.01,-0.01,1.02,-0.49,-0.27,0.03,
2.145,-0.01,-0.01,1.02,-0.51,-0.24,0.14,
2.146,-0.01,-0.01,1.03,-0.51,-0.24,0.14,
2.149,-0.00,-0.01,1.05,-0.51,-0.24,0.14,
2.149,-0.00,-0.01,1.05,-0.43,-0.21,0.21,
2.159,0.00,-0.01,1.05,-0.43,-0.21,0.21,
2.16,0.00,-0.01,1.04,-0.43,-0.21,0.21,
2.16,0.00,-0.01,1.04,-0.37,-0.21,0.37,
2.161,0.01,-0.01,1.04,-0.37,-0.21,0.37,
2.161,0.02,-0.01,1.03,-0.37,-0.21,0.37,
2.161,0.02,-0.01,1.03,-0.27,-0.22,0.40,
2.161,0.02,-0.01,1.04,-0.27,-0.22,0.40,
2.164,0.02,-0.01,1.04,-0.13,-0.17,0.35,
2.164,0.02,-0.01,1.03,-0.13,-0.17,0.35,
2.174,0.02,-0.01,1.03,-0.13,-0.17,0.35,
2.175,0.02,-0.01,1.02,-0.13,-0.17,0.35,
2.175,0.02,-0.01,1.02,-0.06,-0.23,0.29,
2.175,0.03,-0.01,1.02,-0.06,-0.23,0.29,
2.175,0.03,-0.02,1.02,-0.06,-0.23,0.29,
2.176,0.03,-0.02,1.02,-0.03,-0.24,0.21,
2.176,0.02,-0.01,1.01,-0.03,-0.24,0.21,
2.179,0.03,-0.01,1.01,-0.03,-0.24,0.21,
2.179,0.03,-0.01,1.01,0.02,-0.26,0.15,
2.181,0.03,-0.02,1.00,0.02,-0.26,0.15,
2.188,0.02,-0.02,1.00,0.02,-0.26,0.15,
2.188,0.02,-0.02,1.00,0.03,-0.27,0.03,
2.188,0.01,-0.01,1.02,0.03,-0.27,0.03,
2.189,0.01,-0.01,1.02,0.03,-0.31,-0.04,
2.189,0.00,-0.00,1.04,0.03,-0.31,-0.04,
2.191,-0.00,0.01,1.05,0.03,-0.31,-0.04,
2.193,0.01,0.01,1.07,0.03,-0.31,-0.04,
2.194,0.01,0.01,1.07,-0.13,-0.22,0.24,
2.196,0.02,0.01,1.06,-0.13,-0.22,0.24,
2.198,0.03,-0.01,1.04,-0.13,-0.22,0.24,
2.199,0.03,-0.01,1.04,-0.14,-0.08,0.54,
2.205,0.05,-0.02,1.02,-0.14,-0.08,0.54,
2.206,0.06,-0.03,1.01,-0.14,-0.08,0.54,
2.206,0.06,-0.03,1.01,0.11,-0.17,0.45,
2.206,0.07,-0.03,1.00,0.11,-0.17,0.45,
2.208,0.08,-0.02,1.01,0.11,-0.17,0.45,
2.209,0.08,-0.02,1.01,0.44,-0.42,0.14,
2.211,0.08,-0.01,1.02,0.44,-0.42,0.14,
2.213,0.08,-0.01,1.02,0.61,-0.43,0.02,
2.214,0.07,0.00,1.03,0.61,-0.43,0.02,
2.215,0.07,0.01,1.05,0.61,-0.43,0.02,
2.228,0.07,0.03,1.05,0.61,-0.43,0.02,
2.229,0.07,0.03,1.05,0.63,-0.24,0.23,
2.229,0.07,0.04,1.07,0.63,-0.24,0.23,
2.23,0.07,0.04,1.07,0.57,0.01,0.44,
2.23,0.07,0.04,1.07,0.57,0.01,0.44,
2.23,0.08,0.04,1.08,0.57,0.01,0.44,
2.23,0.09,0.04,1.09,0.57,0.01,0.44,
2.23,0.09,0.04,1.09,0.58,0.17,0.62,
2.231,0.10,0.03,1.09,0.58,0.17,0.62,
2.243,0.11,0.02,1.09,0.58,0.17,0.62,
2.244,0.11,0.02,1.09,0.71,0.18,0.77,
2.244,0.12,0.02,1.10,0.71,0.18,0.77,
2.244,0.12,0.02,1.10,0.90,0.05,0.82,
2.244,0.13,0.01,1.10,0.90,0.05,0.82,
2.245,0.14,0.00,1.09,0.90,0.05,0.82,
2.245,0.14,-0.00,1.09,0.90,0.05,0.82,
2.245,0.14,-0.00,1.09,1.07,-0.09,0.89,
2.245,0.14,-0.00,1.09,1.07,-0.09,0.89,
2.249,0.14,-0.01,1.09,1.07,-0.09,0.89,
2.249,0.14,-0.01,1.09,1.27,-0.22,0.85,
2.259,0.14,-0.01,1.08,1.27,-0.22,0.85,
2.26,0.14,-0.01,1.07,1.27,-0.22,0.85,
2.26,0.14,-0.01,1.07,1.29,-0.28,0.81,
2.26,0.13,-0.01,1.06,1.29,-0.28,0.81,
2.26,0.13,0.00,1.04,1.29,-0.28,0.81,
2.261,0.13,0.00,1.04,1.24,-0.33,0.67,
2.261,0.13,-0.00,1.04,1.24,-0.33,0.67,
2.264,0.13,-0.00,1.04,1.20,-0.27,0.46,
2.264,0.12,-0.00,1.03,1.20,-0.27,0.46,
2.265,0.11,-0.00,1.03,1.20,-0.27,0.46,
2.274,0.11,-0.01,1.03,1.20,-0.27,0.46,
2.274,0.11,-0.01,1.03,1.15,-0.28,0.29,
2.275,0.10,-0.01,1.03,1.15,-0.28,0.29,
2.275,0.09,-0.00,1.02,1.15,-0.28,0.29,
2.275,0.09,-0.00,1.02,1.05,-0.32,0.24,
2.275,0.10,-0.00,1.01,1.05,-0.32,0.24,
2.278,0.10,-0.01,1.01,1.05,-0.32,0.24,
2.278,0.10,-0.01,1.01,0.91,-0.36,0.19,
2.281,0.10,-0.01,1.00,0.91,-0.36,0.19,
2.282,0.10,-0.01,1.00,0.91,-0.36,0.19,
2.283,0.10,-0.01,1.00,0.90,-0.36,0.04,
2.289,0.10,-0.01,1.00,0.90,-0.36,0.04,
2.289,0.10,-0.01,1.00,0.91,-0.41,-0.04,
2.29,0.10,-0.01,0.99,0.91,-0.41,-0.04,
2.29,0.10,-0.01,0.99,0.91,-0.41,-0.04,
2.292,0.11,-0.00,0.99,0.91,-0.41,-0.04,
2.293,0.11,-0.00,0.99,0.95,-0.43,-0.13,
2.295,0.11,0.00,1.00,0.95,-0.43,-0.13,
2.298,0.11,0.00,1.00,1.01,-0.41,-0.14,
2.298,0.11,0.01,1.00,1.01,-0.41,-0.14,
2.3,0.12,0.01,1.01,1.01,-0.41,-0.14,
2.306,0.12,0.01,1.01,1.01,-0.41,-0.14,
2.306,0.12,0.01,1.01,1.06,-0.32,-0.07,
2.308,0.13,0.01,1.01,1.06,-0.32,-0.07,
2.309,0.13,0.02,1.03,1.06,-0.32,-0.07,
2.309,0.13,0.02,1.03,1.15,-0.31,0.04,
2.31,0.13,0.02,1.03,1.15,-0.31,0.04,
2.313,0.13,0.02,1.03,1.21,-0.26,0.12,
2.313,0.13,0.02,1.03,1.21,-0.26,0.12,
2.315,0.13,0.02,1.03,1.21,-0.26,0.12,
2.323,0.13,0.02,1.03,1.25,-0.18,0.22,
2.324,0.14,0.03,1.03,1.25,-0.18,0.22,
2.324,0.15,0.03,1.04,1.25,-0.18,0.22,
2.325,0.16,0.03,1.04,1.25,-0.18,0.22,
2.325,0.16,0.03,1.04,1.29,-0.18,0.26,
2.325,0.17,0.04,1.04,1.29,-0.18,0.26,
2.33,0.17,0.04,1.04,1.29,-0.18,0.26,
2.33,0.17,0.04,1.04,1.44,-0.12,0.31,
2.33,0.18,0.05,1.04,1.44,-0.12,0.31,
2.332,0.18,0.05,1.04,1.44,-0.12,0.31,
2.333,0.18,0.05,1.04,1.59,-0.07,0.34,
2.343,0.18,0.06,1.05,1.59,-0.07,0.34,
2.343,0.18,0.06,1.05,1.68,0.03,0.35,
2.343,0.18,0.06,1.04,1.68,0.03,0.35,
2.344,0.18,0.07,1.04,1.68,0.03,0.35,
2.344,0.18,0.06,1.04,1.68,0.03,0.35,
2.344,0.18,0.06,1.04,1.67,0.12,0.39,
2.345,0.18,0.07,1.04,1.67,0.12,0.39,
2.348,0.18,0.06,1.03,1.67,0.12,0.39,
2.348,0.18,0.06,1.03,1.71,0.16,0.32,
2.35,0.18,0.06,1.03,1.71,0.16,0.32,
2.358,0.18,0.06,1.02,1.71,0.16,0.32,
2.359,0.18,0.06,1.02,1.67,0.17,0.27,
2.359,0.19,0.05,1.01,1.67,0.17,0.27,
2.359,0.18,0.05,1.01,1.67,0.17,0.27,
2.36,0.18,0.05,1.01,1.73,0.09,0.17,
2.36,0.18,0.05,1.01,1.73,0.09,0.17,
2.363,0.18,0.05,1.01,1.74,0.04,0.08,
2.363,0.17,0.03,1.02,1.74,0.04,0.08,
2.365,0.17,0.03,1.02,1.74,0.04,0.08,
2.367,0.17,0.03,1.02,1.66,-0.09,0.13,
2.368,0.17,0.03,1.02,1.66,-0.09,0.13,
2.376,0.16,0.03,1.01,1.66,-0.09,0.13,
2.377,0.16,0.03,1.01,1.66,-0.09,0.13,
2.377,0.16,0.03,1.01,1.61,-0.22,0.14,
2.377,0.16,0.03,1.02,1.61,-0.22,0.14,
2.377,0.15,0.03,1.02,1.61,-0.22,0.14,
2.378,0.15,0.03,1.02,1.55,-0.23,0.07,
2.38,0.15,0.03,1.02,1.55,-0.23,0.07,
2.382,0.15,0.03,1.02,1.55,-0.23,0.07,
2.383,0.15,0.03,1.02,1.49,-0.19,0.12,
2.392,0.16,0.02,1.02,1.49,-0.19,0.12,
2.393,0.16,0.02,1.02,1.49,-0.24,0.12,
2.393,0.15,0.02,1.02,1.49,-0.24,0.12,
2.393,0.15,0.02,1.03,1.49,-0.24,0.12,
2.393,0.15,0.02,1.03,1.49,-0.24,0.12,
2.394,0.15,0.02,1.03,1.51,-0.29,0.16,
2.394,0.15,0.02,1.03,1.51,-0.29,0.16,
2.397,0.15,0.02,1.03,1.51,-0.29,0.16,
2.397,0.15,0.02,1.03,1.48,-0.31,0.20,
2.399,0.15,0.02,1.03,1.48,-0.31,0.20,
2.407,0.15,0.03,1.03,1.48,-0.31,0.20,
2.407,0.15,0.03,1.03,1.48,-0.28,0.22,
2.407,0.15,0.03,1.04,1.48,-0.28,0.22,
2.408,0.15,0.03,1.04,1.48,-0.28,0.22,
2.408,0.15,0.03,1.04,1.50,-0.25,0.26,
2.409,0.16,0.03,1.04,1.50,-0.25,0.26,
2.412,0.16,0.03,1.04,1.51,-0.20,0.34,
2.412,0.15,0.04,1.04,1.51,-0.20,0.34,
2.414,0.16,0.04,1.04,1.51,-0.20,0.34,
2.416,0.16,0.04,1.04,1.54,-0.19,0.33,
2.417,0.16,0.04,1.03,1.54,-0.19,0.33,
2.43,0.16,0.04,1.03,1.54,-0.19,0.33,
2.43,0.15,0.04,1.02,1.54,-0.19,0.33,
2.43,0.15,0.04,1.02,1.60,-0.13,0.29,
2.43,0.15,0.03,1.03,1.60,-0.13,0.29,
2.431,0.15,0.03,1.03,1.55,-0.13,0.18,
2.431,0.15,0.03,1.02,1.55,-0.13,0.18,
2.431,0.15,0.03,1.02,1.55,-0.13,0.18,
2.431,0.14,0.02,1.01,1.55,-0.13,0.18,
2.431,0.14,0.02,1.01,1.54,-0.19,0.19,
2.434,0.14,0.02,1.00,1.54,-0.19,0.19,
2.441,0.14,0.02,1.00,1.50,-0.30,0.05,
2.442,0.14,0.02,0.98,1.50,-0.30,0.05,
2.442,0.13,0.01,0.98,1.50,-0.30,0.05,
2.442,0.13,0.01,0.98,1.50,-0.30,0.05,
2.442,0.13,0.01,0.98,1.47,-0.35,-0.16,
2.444,0.13,0.00,0.97,1.47,-0.35,-0.16,
2.447,0.12,0.00,0.96,1.47,-0.35,-0.16,
2.447,0.12,0.00,0.96,1.37,-0.45,-0.28,
2.449,0.11,-0.00,0.96,1.37,-0.45,-0.28,
2.451,0.11,-0.01,0.96,1.37,-0.45,-0.28,
2.451,0.11,-0.01,0.96,1.31,-0.52,-0.39,
2.46,0.10,-0.01,0.96,1.31,-0.52,-0.39,
2.46,0.10,-0.01,0.96,1.19,-0.61,-0.44,
2.46,0.10,-0.00,0.95,1.19,-0.61,-0.44,
2.46,0.09,-0.01,0.96,1.19,-0.61,-0.44,
2.461,0.09,-0.01,0.96,1.14,-0.60,-0.50,
2.461,0.08,-0.00,0.95,1.14,-0.60,-0.50,
2.463,0.08,-0.00,0.96,1.14,-0.60,-0.50,
2.466,0.08,-0.00,0.96,1.14,-0.60,-0.50,
2.467,0.08,-0.00,0.96,1.00,-0.60,-0.49,
2.468,0.09,-0.00,0.97,1.00,-0.60,-0.49,
2.474,0.09,-0.00,0.97,0.96,-0.57,-0.43,
2.474,0.09,-0.00,0.98,0.96,-0.57,-0.43,
2.474,0.09,-0.00,0.98,0.96,-0.57,-0.43,
2.476,0.10,-0.00,0.98,0.96,-0.57,-0.43,
2.476,0.10,-0.00,0.98,0.99,-0.58,-0.32,
2.479,0.10,-0.00,0.99,0.99,-0.58,-0.32,
2.481,0.11,-0.00,0.99,0.99,-0.58,-0.32,
2.481,0.11,-0.00,0.99,1.05,-0.58,-0.26,
2.484,0.11,0.00,0.99,1.05,-0.58,-0.26,
2.489,0.11,0.00,1.00,1.05,-0.58,-0.26,
2.49,0.11,0.00,1.00,1.13,-0.60,-0.17,
2.49,0.12,0.00,0.99,1.13,-0.60,-0.17,
2.49,0.13,0.01,1.00,1.13,-0.60,-0.17,
2.491,0.13,0.01,1.00,1.19,-0.56,-0.08,
2.493,0.13,0.01,1.00,1.19,-0.56,-0.08,
2.496,0.13,0.02,1.00,1.19,-0.56,-0.08,
2.496,0.13,0.02,1.00,1.32,-0.55,-0.06,
2.499,0.13,0.02,1.00,1.32,-0.55,-0.06,
2.501,0.13,0.02,1.00,1.32,-0.55,-0.06,
2.506,0.13,0.02,1.00,1.38,-0.45,-0.04,
2.507,0.14,0.03,0.99,1.38,-0.45,-0.04,
2.507,0.14,0.03,0.99,1.39,-0.39,-0.06,
2.507,0.14,0.02,0.98,1.39,-0.39,-0.06,
2.508,0.14,0.03,0.98,1.39,-0.39,-0.06,
2.51,0.14,0.03,0.98,1.45,-0.36,-0.15,
2.511,0.13,0.03,0.97,1.45,-0.36,-0.15,
2.512,0.13,0.04,0.95,1.45,-0.36,-0.15,
2.516,0.13,0.04,0.95,1.45,-0.36,-0.15,
2.516,0.13,0.04,0.95,1.43,-0.32,-0.32,
2.518,0.13,0.04,0.95,1.43,-0.32,-0.32,
2.524,0.13,0.05,0.95,1.43,-0.32,-0.32,
2.525,0.13,0.05,0.95,1.39,-0.26,-0.50,
2.525,0.14,0.05,0.94,1.39,-0.26,-0.50,
2.526,0.13,0.05,0.94,1.39,-0.26,-0.50,
2.526,0.13,0.05,0.94,1.39,-0.20,-0.56,
2.528,0.14,0.05,0.94,1.39,-0.20,-0.56,
2.531,0.14,0.05,0.94,1.42,-0.14,-0.62,
2.531,0.14,0.06,0.94,1.42,-0.14,-0.62,
2.533,0.14,0.06,0.94,1.42,-0.14,-0.62,
2.544,0.14,0.06,0.94,1.42,-0.10,-0.61,
2.544,0.15,0.06,0.95,1.42,-0.10,-0.61,
2.545,0.15,0.06,0.95,1.42,-0.10,-0.61,
2.545,0.15,0.06,0.96,1.42,-0.10,-0.61,
2.545,0.15,0.06,0.96,1.49,-0.06,-0.58,
2.545,0.16,0.07,0.96,1.49,-0.06,-0.58,
2.545,0.16,0.07,0.96,1.49,-0.06,-0.58,
2.545,0.16,0.07,0.96,1.53,-0.03,-0.47,
2.547,0.17,0.06,0.97,1.53,-0.03,-0.47,
2.55,0.17,0.07,0.97,1.53,-0.03,-0.47,
2.55,0.17,0.07,0.97,1.61,0.01,-0.43,
2.557,0.18,0.07,0.97,1.61,0.01,-0.43,
2.558,0.18,0.07,0.98,1.61,0.01,-0.43,
2.558,0.18,0.07,0.98,1.67,0.01,-0.32,
2.558,0.18,0.07,0.99,1.67,0.01,-0.32,
2.56,0.18,0.07,0.99,1.75,0.04,-0.24,
2.56,0.18,0.07,0.99,1.75,0.04,-0.24,
2.562,0.19,0.08,1.00,1.75,0.04,-0.24,
2.565,0.20,0.08,1.00,1.75,0.04,-0.24,
2.566,0.20,0.08,1.00,1.76,0.07,-0.08,
2.567,0.20,0.08,1.00,1.76,0.07,-0.08,
2.577,0.20,0.08,1.00,1.81,0.14,0.01,
2.578,0.19,0.09,1.00,1.81,0.14,0.01,
2.578,0.19,0.09,1.00,1.81,0.14,0.01,
2.578,0.19,0.09,1.00,1.81,0.14,0.01,
2.578,0.19,0.09,1.00,1.83,0.16,0.01,
2.578,0.19,0.09,1.00,1.83,0.16,0.01,
2.58,0.19,0.09,1.00,1.77,0.20,-0.01,
2.58,0.19,0.09,1.00,1.77,0.20,-0.01,
2.582,0.19,0.09,0.99,1.77,0.20,-0.01,
2.585,0.19,0.09,0.99,1.75,0.23,-0.02,
2.585,0.19,0.09,0.99,1.75,0.23,-0.02,
2.592,0.18,0.09,0.98,1.75,0.23,-0.02,
2.593,0.18,0.09,0.98,1.75,0.23,-0.02,
2.593,0.18,0.09,0.98,1.72,0.20,-0.10,
2.593,0.18,0.09,0.98,1.72,0.20,-0.10,
2.595,0.17,0.09,0.96,1.72,0.20,-0.10,
2.595,0.17,0.09,0.96,1.64,0.23,-0.19,
2.597,0.17,0.09,0.96,1.64,0.23,-0.19,
2.6,0.17,0.10,0.96,1.64,0.23,-0.19,
2.6,0.17,0.10,0.96,1.57,0.21,-0.28,
2.602,0.17,0.10,0.95,1.57,0.21,-0.28,
2.607,0.17,0.10,0.95,1.50,0.26,-0.39,
2.608,0.17,0.10,0.95,1.50,0.26,-0.39,
2.608,0.16,0.10,0.95,1.50,0.26,-0.39,
2.609,0.16,0.10,0.95,1.44,0.26,-0.49,
2.61,0.16,0.10,0.94,1.44,0.26,-0.49,
2.612,0.16,0.10,0.93,1.44,0.26,-0.49,
2.615,0.15,0.10,0.93,1.44,0.26,-0.49,
2.616,0.15,0.10,0.93,1.38,0.26,-0.55,
2.617,0.15,0.10,0.94,1.38,0.26,-0.55,
2.624,0.14,0.10,0.94,1.38,0.26,-0.55,
2.625,0.14,0.10,0.94,1.30,0.29,-0.65,
2.625,0.14,0.10,0.94,1.30,0.29,-0.65,
2.625,0.14,0.10,0.94,1.20,0.27,-0.61,
2.625,0.14,0.10,0.94,1.20,0.27,-0.61,
2.626,0.14,0.10,0.94,1.20,0.27,-0.61,
2.629,0.14,0.10,0.94,1.12,0.25,-0.58,
2.629,0.14,0.10,0.94,1.12,0.25,-0.58,
2.631,0.13,0.10,0.93,1.12,0.25,-0.58,
2.634,0.13,0.10,0.93,1.13,0.23,-0.57,
2.635,0.13,0.10,0.93,1.13,0.23,-0.57,
2.64,0.12,0.10,0.92,1.13,0.23,-0.57,
2.64,0.12,0.10,0.93,1.13,0.23,-0.57,
2.64,0.12,0.10,0.93,1.03,0.20,-0.66,
2.641,0.13,0.10,0.93,1.03,0.20,-0.66,
2.644,0.13,0.10,0.93,1.03,0.20,-0.66,
2.644,0.13,0.10,0.93,0.93,0.23,-0.67,
2.646,0.12,0.09,0.93,0.93,0.23,-0.67,
2.649,0.11,0.09,0.93,0.93,0.23,-0.67,
2.649,0.11,0.09,0.93,0.95,0.19,-0.65,
2.652,0.11,0.09,0.93,0.95,0.19,-0.65,
2.658,0.11,0.09,0.93,0.95,0.19,-0.65,
2.658,0.11,0.09,0.93,0.84,0.15,-0.64,
2.658,0.11,0.09,0.93,0.84,0.15,-0.64,
2.659,0.11,0.09,0.93,0.76,0.11,-0.61,
2.659,0.11,0.08,0.94,0.76,0.11,-0.61,
2.661,0.10,0.08,0.95,0.76,0.11,-0.61,
2.666,0.10,0.08,0.95,0.76,0.11,-0.61,
2.666,0.10,0.08,0.95,0.75,0.08,-0.56,
2.666,0.10,0.08,0.95,0.75,0.08,-0.56,
2.669,0.10,0.08,0.96,0.75,0.08,-0.56,
2.675,0.10,0.08,0.96,0.68,0.05,-0.45,
2.675,0.10,0.09,0.96,0.68,0.05,-0.45,
2.676,0.10,0.08,0.97,0.68,0.05,-0.45,
2.676,0.10,0.08,0.97,0.66,0.07,-0.36,
2.676,0.10,0.08,0.97,0.66,0.07,-0.36,
2.678,0.10,0.08,0.98,0.66,0.07,-0.36,
2.679,0.10,0.08,0.98,0.62,0.08,-0.28,
2.681,0.10,0.08,0.98,0.62,0.08,-0.28,
2.684,0.10,0.08,0.98,0.60,0.03,-0.14,
2.684,0.10,0.08,0.99,0.60,0.03,-0.14,
2.689,0.10,0.07,0.99,0.60,0.03,-0.14,
2.689,0.10,0.07,1.00,0.60,0.03,-0.14,
2.689,0.10,0.07,1.00,0.58,0.04,-0.07,
2.693,0.10,0.07,1.00,0.58,0.04,-0.07,
2.699,0.10,0.07,1.00,0.58,0.04,-0.07,
2.699,0.10,0.07,1.00,0.58,-0.02,0.02,
2.699,0.10,0.07,1.01,0.58,-0.02,0.02,
2.699,0.10,0.07,1.01,0.58,-0.02,0.02,
2.699,0.10,0.07,1.01,0.60,-0.02,0.09,
2.702,0.09,0.06,1.01,0.60,-0.02,0.09,
2.707,0.10,0.07,1.01,0.60,-0.02,0.09,
2.707,0.10,0.07,1.01,0.54,-0.05,0.15,
2.707,0.10,0.06,1.01,0.54,-0.05,0.15,
2.708,0.09,0.06,1.02,0.54,-0.05,0.15,
2.708,0.09,0.06,1.02,0.52,-0.06,0.17,
2.71,0.09,0.07,1.01,0.52,-0.06,0.17,
2.713,0.09,0.07,1.01,0.52,-0.06,0.17,
2.713,0.09,0.07,1.01,0.51,-0.07,0.21,
2.715,0.09,0.07,1.02,0.51,-0.07,0.21,
2.718,0.09,0.07,1.02,0.51,-0.07,0.21,
2.718,0.09,0.07,1.02,0.48,-0.06,0.21,
2.722,0.09,0.07,1.01,0.48,-0.06,0.21,
2.723,0.08,0.07,1.01,0.48,-0.06,0.21,
2.723,0.08,0.07,1.01,0.42,-0.03,0.23,
2.725,0.09,0.07,1.01,0.42,-0.03,0.23,
2.728,0.08,0.07,1.01,0.42,-0.03,0.23,
2.728,0.08,0.07,1.01,0.40,-0.01,0.19,
2.73,0.09,0.07,1.01,0.40,-0.01,0.19,
2.734,0.09,0.07,1.01,0.42,0.01,0.16,
2.734,0.09,0.08,1.01,0.42,0.01,0.16,
2.735,0.09,0.07,1.01,0.42,0.01,0.16,
2.742,0.09,0.07,1.01,0.42,0.01,0.16,
2.742,0.09,0.07,1.01,0.42,0.06,0.13,
2.742,0.08,0.08,1.01,0.42,0.06,0.13,
2.743,0.08,0.08,1.01,0.41,0.05,0.13,
2.743,0.09,0.08,1.01,0.41,0.05,0.13,
2.746,0.09,0.08,1.01,0.41,0.05,0.13,
2.748,0.09,0.08,1.01,0.41,0.05,0.13,
2.748,0.09,0.08,1.01,0.41,0.08,0.13,
2.751,0.10,0.08,1.02,0.41,0.08,0.13,
2.759,0.10,0.08,1.02,0.41,0.08,0.13,
2.76,0.10,0.08,1.02,0.46,0.09,0.17,
2.76,0.10,0.08,1.02,0.46,0.09,0.17,
2.76,0.10,0.08,1.02,0.46,0.09,0.17,
2.76,0.10,0.08,1.02,0.50,0.11,0.23,
2.761,0.10,0.08,1.02,0.50,0.11,0.23,
2.763,0.10,0.08,1.03,0.50,0.11,0.23,
2.764,0.10,0.08,1.03,0.49,0.10,0.25,
2.766,0.10,0.08,1.02,0.49,0.10,0.25,
2.768,0.10,0.08,1.02,0.49,0.10,0.25,
2.769,0.10,0.08,1.02,0.50,0.07,0.29,
2.77,0.10,0.07,1.02,0.50,0.07,0.29,
2.776,0.11,0.07,1.03,0.50,0.07,0.29,
2.777,0.11,0.07,1.03,0.50,0.08,0.27,
2.777,0.10,0.07,1.03,0.50,0.08,0.27,
2.778,0.11,0.08,1.03,0.50,0.08,0.27,
2.779,0.11,0.08,1.03,0.51,0.03,0.29,
2.781,0.11,0.07,1.03,0.51,0.03,0.29,
2.784,0.11,0.07,1.03,0.49,0.05,0.32,
2.784,0.10,0.08,1.02,0.49,0.05,0.32,
2.785,0.10,0.08,1.02,0.49,0.05,0.32,
2.791,0.10,0.07,1.03,0.49,0.05,0.32,
2.792,0.10,0.07,1.03,0.49,0.06,0.27,
2.792,0.10,0.08,1.02,0.49,0.06,0.27,
2.792,0.10,0.08,1.02,0.49,0.06,0.27,
2.793,0.10,0.08,1.02,0.45,0.05,0.29,
2.795,0.10,0.07,1.02,0.45,0.05,0.29,
2.798,0.09,0.07,1.02,0.45,0.05,0.29,
2.798,0.09,0.07,1.02,0.39,0.09,0.23,
2.801,0.09,0.07,1.02,0.39,0.09,0.23,
2.803,0.09,0.07,1.02,0.36,0.04,0.22,
2.803,0.09,0.07,1.02,0.36,0.04,0.22,
2.808,0.09,0.07,1.02,0.36,0.04,0.22,
2.808,0.09,0.07,1.02,0.32,0.02,0.22,
2.809,0.09,0.07,1.02,0.32,0.02,0.22,
2.809,0.08,0.07,1.02,0.32,0.02,0.22,
2.813,0.08,0.07,1.01,0.32,0.02,0.22,
2.813,0.08,0.07,1.01,0.27,0.01,0.20,
2.815,0.08,0.07,1.02,0.27,0.01,0.20,
2.818,0.08,0.07,1.01,0.27,0.01,0.20,
2.818,0.08,0.07,1.01,0.25,-0.03,0.18,
2.82,0.08,0.07,1.01,0.25,-0.03,0.18,
2.829,0.08,0.06,1.01,0.25,-0.03,0.18,
2.829,0.08,0.06,1.01,0.21,-0.04,0.17,
2.829,0.08,0.06,1.01,0.21,-0.04,0.17,
2.83,0.08,0.06,1.01,0.18,-0.06,0.15,
2.83,0.08,0.07,1.02,0.18,-0.06,0.15,
2.83,0.07,0.07,1.01,0.18,-0.06,0.15,
2.833,0.07,0.07,1.01,0.19,-0.07,0.16,
2.833,0.07,0.07,1.01,0.19,-0.07,0.16,
2.835,0.06,0.07,1.01,0.19,-0.07,0.16,
2.837,0.06,0.07,1.01,0.19,-0.07,0.16,
2.837,0.06,0.07,1.01,0.11,-0.02,0.12,
2.843,0.06,0.07,1.01,0.11,-0.02,0.12,
2.843,0.07,0.07,1.01,0.11,-0.02,0.12,
2.843,0.07,0.07,1.01,0.03,-0.03,0.09,
2.845,0.07,0.07,1.01,0.03,-0.03,0.09,
2.848,0.07,0.07,1.01,0.05,0.01,0.10,
2.848,0.07,0.07,1.01,0.05,0.01,0.10,
2.85,0.06,0.07,1.01,0.05,0.01,0.10,
2.852,0.06,0.07,1.02,0.05,0.01,0.10,
2.853,0.06,0.07,1.02,0.05,-0.00,0.09,
2.86,0.07,0.07,1.02,0.05,-0.00,0.09,
2.861,0.07,0.07,1.02,0.02,0.00,0.13,
2.861,0.06,0.07,1.02,0.02,0.00,0.13,
2.861,0.06,0.07,1.01,0.02,0.00,0.13,
2.863,0.06,0.07,1.02,0.02,0.00,0.13,
2.863,0.06,0.07,1.02,0.05,-0.00,0.18,
2.865,0.06,0.07,1.02,0.05,-0.00,0.18,
2.867,0.06,0.07,1.01,0.05,-0.00,0.18,
2.868,0.06,0.07,1.01,0.02,0.03,0.16,
2.87,0.06,0.07,1.02,0.02,0.03,0.16,
2.877,0.06,0.07,1.02,-0.02,0.02,0.19,
2.877,0.06,0.07,1.02,-0.02,0.02,0.19,
2.877,0.06,0.06,1.02,-0.02,0.02,0.19,
2.878,0.06,0.06,1.02,-0.00,-0.01,0.21,
2.878,0.06,0.06,1.02,-0.00,-0.01,0.21,
2.88,0.06,0.07,1.03,-0.00,-0.01,0.21,
2.882,0.06,0.06,1.03,-0.00,-0.01,0.21,
2.882,0.06,0.06,1.03,0.00,-0.06,0.22,
2.885,0.06,0.05,1.03,0.00,-0.06,0.22,
2.887,0.06,0.06,1.03,0.00,-0.06,0.22,
2.887,0.06,0.06,1.03,0.03,-0.09,0.32,
2.892,0.06,0.05,1.03,0.03,-0.09,0.32,
2.893,0.05,0.04,1.03,0.03,-0.09,0.32,
2.893,0.05,0.04,1.03,-0.03,-0.15,0.33,
2.894,0.06,0.05,1.03,-0.03,-0.15,0.33,
2.897,0.05,0.04,1.03,-0.03,-0.15,0.33,
2.898,0.05,0.04,1.03,-0.05,-0.22,0.32,
2.899,0.05,0.04,1.03,-0.05,-0.22,0.32,
2.902,0.05,0.04,1.02,-0.05,-0.22,0.32,
2.902,0.05,0.04,1.02,-0.07,-0.25,0.32,
2.909,0.05,0.04,1.02,-0.07,-0.25,0.32,
2.909,0.05,0.04,1.02,-0.15,-0.29,0.25,
2.91,0.05,0.03,1.02,-0.15,-0.29,0.25,
2.91,0.04,0.03,1.01,-0.15,-0.29,0.25,
2.912,0.04,0.03,1.01,-0.15,-0.29,0.25,
2.912,0.04,0.03,1.01,-0.14,-0.33,0.21,
2.914,0.04,0.03,1.01,-0.14,-0.33,0.21,
2.917,0.04,0.04,1.01,-0.14,-0.33,0.21,
2.917,0.04,0.04,1.01,-0.21,-0.37,0.14,
2.919,0.04,0.04,1.01,-0.21,-0.37,0.14,
2.932,0.04,0.04,1.01,-0.21,-0.37,0.14,
2.933,0.04,0.04,1.01,-0.20,-0.34,0.10,
2.933,0.04,0.04,1.01,-0.20,-0.34,0.10,
2.934,0.04,0.05,1.01,-0.20,-0.34,0.10,
2.934,0.04,0.05,1.01,-0.22,-0.28,0.07,
2.934,0.04,0.04,1.01,-0.22,-0.28,0.07,
2.934,0.04,0.04,1.01,-0.20,-0.25,0.08,
2.934,0.05,0.05,1.00,-0.20,-0.25,0.08,
2.935,0.05,0.05,1.01,-0.20,-0.25,0.08,
2.936,0.05,0.05,1.01,-0.20,-0.25,0.08,
2.936,0.05,0.05,1.01,-0.15,-0.26,0.05,
2.945,0.06,0.06,1.00,-0.15,-0.26,0.05,
2.945,0.05,0.06,1.00,-0.15,-0.26,0.05,
2.946,0.05,0.06,1.00,-0.10,-0.22,0.06,
2.946,0.05,0.06,1.00,-0.10,-0.22,0.06,
2.946,0.06,0.06,1.00,-0.10,-0.22,0.06,
2.946,0.06,0.06,1.00,-0.06,-0.12,0.03,
2.948,0.05,0.06,1.00,-0.06,-0.12,0.03,
2.951,0.06,0.07,1.00,-0.06,-0.12,0.03,
2.951,0.06,0.07,1.00,-0.06,-0.10,0.03,
2.953,0.06,0.07,1.00,-0.06,-0.10,0.03,
2.962,0.06,0.07,1.00,-0.05,-0.06,0.02,
2.963,0.05,0.06,1.01,-0.05,-0.06,0.02,
2.963,0.05,0.06,1.00,-0.05,-0.06,0.02,
2.963,0.05,0.06,1.00,-0.05,-0.06,0.02,
2.964,0.05,0.06,1.00,-0.05,-0.07,0.05,
2.964,0.05,0.06,1.00,-0.05,-0.07,0.05,
2.967,0.05,0.06,1.00,-0.05,-0.07,0.05,
2.967,0.05,0.06,1.00,-0.09,-0.08,-0.01,
2.968,0.05,0.05,0.96,-0.09,-0.08,-0.01,
2.977,0.08,0.06,0.88,-0.09,-0.08,-0.01,
2.978,0.08,0.06,0.88,-0.11,-0.15,-0.02,
2.978,0.11,0.07,0.82,-0.11,-0.15,-0.02,
2.979,0.10,0.07,0.86,-0.11,-0.15,-0.02,
2.979,0.10,0.07,0.86,0.06,-0.16,-0.78,
2.979,0.07,0.07,0.92,0.06,-0.16,-0.78,
2.981,0.07,0.07,0.92,0.43,-0.00,-1.57,
2.981,0.05,0.08,0.95,0.43,-0.00,-1.57,
2.983,0.04,0.08,0.96,0.43,-0.00,-1.57,
2.987,0.03,0.08,0.96,0.43,-0.00,-1.57,
2.987,0.03,0.08,0.96,0.01,0.04,-0.62,
2.992,0.03,0.08,0.95,0.01,0.04,-0.62,
2.993,0.03,0.09,0.95,0.01,0.04,-0.62,
2.993,0.03,0.09,0.95,-0.21,0.10,-0.39,
2.993,0.03,0.09,0.95,-0.21,0.10,-0.39,
2.996,0.03,0.08,0.96,-0.21,0.10,-0.39,
2.996,0.03,0.08,0.96,-0.28,0.14,-0.43,
2.998,0.03,0.07,0.99,-0.28,0.14,-0.43,
3.001,0.04,0.06,1.01,-0.28,0.14,-0.43,
3.001,0.04,0.06,1.01,-0.24,0.14,-0.39,
3.003,0.05,0.05,1.03,-0.24,0.14,-0.39,
3.008,0.05,0.05,1.03,-0.19,-0.05,0.01,
3.008,0.06,0.04,1.05,-0.19,-0.05,0.01,
3.008,0.08,0.03,1.07,-0.19,-0.05,0.01,
3.03,0.08,0.03,1.08,-0.19,-0.05,0.01,
3.031,0.08,0.03,1.08,-0.00,-0.21,0.42,
3.031,0.08,0.03,1.08,-0.00,-0.21,0.42,
3.031,0.08,0.03,1.10,-0.00,-0.21,0.42,
3.031,0.08,0.03,1.10,0.21,-0.31,0.74,
3.032,0.08,0.03,1.10,0.21,-0.31,0.74,
3.032,0.08,0.03,1.09,0.21,-0.31,0.74,
3.032,0.08,0.03,1.09,0.20,-0.30,0.90,
3.032,0.08,0.03,1.09,0.20,-0.30,0.90,
3.032,0.08,0.03,1.09,0.23,-0.31,0.94,
3.033,0.08,0.03,1.08,0.23,-0.31,0.94,
3.033,0.08,0.03,1.07,0.23,-0.31,0.94,
3.033,0.08,0.03,1.07,0.18,-0.34,0.81,
3.033,0.08,0.03,1.06,0.18,-0.34,0.81,
3.034,0.08,0.04,1.05,0.18,-0.34,0.81,
3.035,0.07,0.04,1.04,0.18,-0.34,0.81,
3.036,0.07,0.04,1.04,0.19,-0.31,0.62,
3.038,0.07,0.05,1.03,0.19,-0.31,0.62,
3.044,0.06,0.05,1.02,0.19,-0.31,0.62,
3.044,0.06,0.05,1.02,0.14,-0.28,0.43,
3.045,0.06,0.06,1.01,0.14,-0.28,0.43,
