
time,gFx,gFy,gFz,ax,ay,az,
0.005,0.04,0.07,1.04,0.31,-0.13,0.36,
0.006,0.04,0.07,1.04,0.27,0.08,0.36,
0.006,0.05,0.08,1.04,0.27,0.08,0.36,
0.006,0.05,0.08,1.04,0.21,0.22,0.40,
0.006,0.04,0.08,1.04,0.21,0.22,0.40,
0.006,0.04,0.08,1.04,0.21,0.22,0.40,
0.007,0.04,0.08,1.04,0.21,0.22,0.40,
0.007,0.04,0.08,1.04,0.23,0.31,0.42,
0.007,0.05,0.08,1.05,0.23,0.31,0.42,
0.012,0.05,0.08,1.05,0.22,0.32,0.45,
0.012,0.04,0.08,1.05,0.22,0.32,0.45,
0.012,0.05,0.08,1.05,0.22,0.32,0.45,
0.013,0.05,0.07,1.06,0.22,0.32,0.45,
0.013,0.05,0.07,1.06,0.24,0.33,0.52,
0.016,0.05,0.08,1.05,0.24,0.33,0.52,
0.024,0.05,0.07,1.05,0.24,0.33,0.52,
0.025,0.05,0.07,1.05,0.26,0.25,0.56,
0.025,0.05,0.07,1.05,0.26,0.25,0.56,
0.025,0.06,0.07,1.05,0.26,0.25,0.56,
0.025,0.06,0.07,1.05,0.25,0.22,0.55,
0.025,0.05,0.07,1.05,0.25,0.22,0.55,
0.028,0.05,0.07,1.05,0.25,0.22,0.55,
0.029,0.05,0.07,1.05,0.32,0.16,0.51,
0.031,0.05,0.07,1.04,0.32,0.16,0.51,
0.033,0.05,0.07,1.03,0.32,0.16,0.51,
0.033,0.05,0.07,1.03,0.30,0.12,0.49,
0.042,0.05,0.07,1.03,0.30,0.12,0.49,
0.043,0.04,0.07,1.03,0.30,0.12,0.49,
0.043,0.04,0.07,1.03,0.24,0.13,0.36,
0.043,0.04,0.07,1.01,0.24,0.13,0.36,
0.044,0.04,0.07,1.01,0.24,0.13,0.36,
0.044,0.04,0.07,1.01,0.19,0.12,0.30,
0.046,0.03,0.07,1.00,0.19,0.12,0.30,
0.048,0.03,0.07,1.00,0.19,0.12,0.30,
0.048,0.03,0.07,1.00,0.19,0.15,0.12,
0.063,0.03,0.07,0.99,0.19,0.15,0.12,
0.063,0.02,0.07,0.98,0.19,0.15,0.12,
0.064,0.02,0.07,0.98,0.12,0.13,0.00,
0.064,0.02,0.07,0.98,0.12,0.13,0.00,
0.064,0.02,0.06,0.98,0.12,0.13,0.00,
0.064,0.02,0.06,0.98,0.06,0.15,-0.14,
0.064,0.01,0.06,0.98,0.06,0.15,-0.14,
0.065,0.01,0.06,0.98,-0.01,0.08,-0.19,
0.065,0.01,0.06,0.98,-0.01,0.08,-0.19,
0.065,0.00,0.06,0.98,-0.01,0.08,-0.19,
0.075,0.00,0.06,0.98,-0.01,0.08,-0.19,
0.076,0.00,0.06,0.98,-0.06,0.07,-0.17,
0.076,0.00,0.06,0.99,-0.06,0.07,-0.17,
0.076,0.00,0.06,0.99,-0.12,0.01,-0.16,
0.076,0.01,0.05,0.99,-0.12,0.01,-0.16,
0.077,0.00,0.05,0.99,-0.12,0.01,-0.16,
0.079,0.00,0.05,1.00,-0.12,0.01,-0.16,
0.079,0.00,0.05,1.00,-0.11,-0.03,-0.11,
0.081,-0.00,0.04,1.00,-0.11,-0.03,-0.11,
0.083,-0.01,0.04,1.00,-0.11,-0.03,-0.11,
0.083,-0.01,0.04,1.00,-0.12,-0.07,-0.07,
0.094,-0.01,0.04,1.01,-0.12,-0.07,-0.07,
0.095,-0.02,0.03,1.01,-0.12,-0.07,-0.07,
0.095,-0.02,0.03,1.01,-0.19,-0.13,0.04,
0.096,-0.02,0.03,1.01,-0.19,-0.13,0.04,
0.096,-0.02,0.03,1.01,-0.19,-0.13,0.04,
0.096,-0.02,0.03,1.01,-0.28,-0.20,0.11,
0.096,-0.03,0.03,1.01,-0.28,-0.20,0.11,
0.098,-0.03,0.02,1.00,-0.28,-0.20,0.11,
0.098,-0.03,0.02,1.00,-0.35,-0.26,0.10,
0.1,-0.03,0.02,1.00,-0.35,-0.26,0.10,
0.109,-0.03,0.02,1.00,-0.35,-0.26,0.10,
0.11,-0.03,0.02,1.00,-0.39,-0.27,0.07,
0.11,-0.03,0.03,1.00,-0.39,-0.27,0.07,
0.11,-0.03,0.03,1.00,-0.39,-0.27,0.07,
0.11,-0.03,0.03,1.00,-0.39,-0.32,0.02,
0.11,-0.03,0.03,0.99,-0.39,-0.32,0.02,
0.113,-0.02,0.03,0.99,-0.39,-0.32,0.02,
0.113,-0.02,0.03,0.99,-0.37,-0.27,-0.01,
0.115,-0.02,0.04,0.98,-0.37,-0.27,-0.01,
0.128,-0.01,0.04,0.98,-0.37,-0.27,-0.01,
0.129,-0.01,0.04,0.98,-0.34,-0.21,-0.08,
0.13,-0.01,0.04,0.97,-0.34,-0.21,-0.08,
0.13,-0.01,0.04,0.97,-0.24,-0.18,-0.16,
0.13,-0.00,0.05,0.97,-0.24,-0.18,-0.16,
0.13,-0.00,0.05,0.96,-0.24,-0.18,-0.16,
0.131,0.00,0.05,0.96,-0.24,-0.18,-0.16,
0.131,0.00,0.05,0.96,-0.14,-0.11,-0.28,
0.131,0.01,0.05,0.97,-0.14,-0.11,-0.28,
0.133,0.01,0.05,0.96,-0.14,-0.11,-0.28,
0.133,0.01,0.05,0.96,-0.09,-0.06,-0.35,
0.144,0.01,0.05,0.95,-0.09,-0.06,-0.35,
0.145,0.01,0.06,0.96,-0.09,-0.06,-0.35,
0.145,0.01,0.06,0.96,0.01,-0.02,-0.33,
0.146,0.02,0.06,0.95,0.01,-0.02,-0.33,
0.146,0.02,0.06,0.95,0.01,-0.02,-0.33,
0.146,0.02,0.06,0.95,0.07,-0.02,-0.41,
0.146,0.02,0.05,0.95,0.07,-0.02,-0.41,
0.147,0.02,0.05,0.95,0.13,0.00,-0.45,
0.148,0.02,0.05,0.96,0.13,0.00,-0.45,
0.149,0.03,0.06,0.96,0.13,0.00,-0.45,
0.166,0.02,0.06,0.96,0.13,0.00,-0.45,
0.167,0.02,0.06,0.96,0.15,-0.02,-0.41,
0.168,0.03,0.05,0.96,0.15,-0.02,-0.41,
0.168,0.03,0.05,0.96,0.15,-0.02,-0.41,
0.17,0.03,0.05,0.96,0.17,-0.01,-0.40,
0.171,0.02,0.05,0.97,0.17,-0.01,-0.40,
0.171,0.03,0.05,0.97,0.17,-0.01,-0.40,
0.171,0.03,0.05,0.97,0.19,-0.03,-0.35,
0.172,0.03,0.05,0.97,0.19,-0.03,-0.35,
0.172,0.03,0.05,0.98,0.19,-0.03,-0.35,
0.172,0.03,0.05,0.98,0.18,-0.05,-0.30,
0.172,0.03,0.05,0.98,0.18,-0.05,-0.30,
0.173,0.03,0.05,0.98,0.23,-0.08,-0.22,
0.173,0.03,0.05,0.99,0.23,-0.08,-0.22,
0.174,0.03,0.05,0.99,0.23,-0.08,-0.22,
0.176,0.03,0.05,0.99,0.23,-0.08,-0.22,
0.176,0.03,0.05,0.99,0.20,-0.08,-0.10,
0.178,0.03,0.05,0.99,0.20,-0.08,-0.10,
0.181,0.03,0.05,0.99,0.20,-0.08,-0.10,
0.182,0.03,0.05,0.99,0.22,-0.05,-0.05,
0.185,0.03,0.05,0.99,0.22,-0.05,-0.05,
0.187,0.03,0.05,0.99,0.22,-0.05,-0.05,
0.187,0.03,0.05,0.99,0.19,-0.10,-0.06,
0.188,0.03,0.05,0.98,0.19,-0.10,-0.06,
0.191,0.02,0.05,0.98,0.19,-0.10,-0.06,
0.191,0.02,0.05,0.98,0.17,-0.09,-0.06,
0.193,0.03,0.05,0.97,0.17,-0.09,-0.06,
0.196,0.03,0.05,0.97,0.14,-0.07,-0.14,
0.197,0.03,0.05,0.96,0.14,-0.07,-0.14,
0.198,0.04,0.06,0.95,0.14,-0.07,-0.14,
0.201,0.04,0.06,0.94,0.14,-0.07,-0.14,
0.202,0.04,0.06,0.94,0.22,-0.05,-0.30,
0.203,0.04,0.06,0.94,0.22,-0.05,-0.30,
0.206,0.04,0.06,0.93,0.22,-0.05,-0.30,
0.206,0.04,0.06,0.93,0.31,-0.00,-0.50,
0.209,0.05,0.06,0.92,0.31,-0.00,-0.50,
0.211,0.05,0.06,0.92,0.31,-0.00,-0.50,
0.211,0.05,0.06,0.92,0.30,-0.00,-0.61,
0.213,0.05,0.07,0.91,0.30,-0.00,-0.61,
0.216,0.05,0.07,0.90,0.30,-0.00,-0.61,
0.216,0.05,0.07,0.90,0.35,0.01,-0.74,
0.219,0.05,0.07,0.90,0.35,0.01,-0.74,
0.221,0.05,0.07,0.91,0.35,0.01,-0.74,
0.222,0.05,0.07,0.91,0.40,0.07,-0.84,
0.224,0.05,0.07,0.90,0.40,0.07,-0.84,
0.226,0.05,0.08,0.90,0.40,0.07,-0.84,
0.226,0.05,0.08,0.90,0.39,0.09,-0.86,
0.229,0.04,0.08,0.91,0.39,0.09,-0.86,
0.231,0.04,0.08,0.90,0.39,0.09,-0.86,
0.231,0.04,0.08,0.90,0.37,0.13,-0.88,
0.233,0.03,0.08,0.91,0.37,0.13,-0.88,
0.236,0.03,0.07,0.92,0.37,0.13,-0.88,
0.237,0.03,0.07,0.92,0.30,0.17,-0.85,
0.238,0.03,0.07,0.92,0.30,0.17,-0.85,
0.242,0.02,0.07,0.92,0.30,0.17,-0.85,
0.242,0.02,0.07,0.92,0.21,0.14,-0.73,
0.243,0.02,0.07,0.94,0.21,0.14,-0.73,
0.246,0.02,0.07,0.94,0.13,0.12,-0.65,
0.247,0.02,0.07,0.94,0.13,0.12,-0.65,
0.248,0.02,0.06,0.94,0.13,0.12,-0.65,
0.262,0.01,0.06,0.95,0.13,0.12,-0.65,
0.263,0.01,0.06,0.95,0.06,0.10,-0.51,
0.264,0.01,0.06,0.95,0.06,0.10,-0.51,
0.264,0.01,0.06,0.95,0.06,0.10,-0.51,
0.265,0.01,0.06,0.95,0.02,0.05,-0.40,
0.266,0.01,0.05,0.96,0.02,0.05,-0.40,
0.266,0.00,0.05,0.97,0.02,0.05,-0.40,
0.267,0.00,0.05,0.97,-0.03,0.00,-0.34,
0.267,-0.00,0.05,0.97,-0.03,0.00,-0.34,
0.268,0.01,0.05,0.96,-0.03,0.00,-0.34,
0.268,0.01,0.05,0.96,-0.09,-0.11,-0.24,
0.269,0.00,0.05,0.97,-0.09,-0.11,-0.24,
0.278,0.00,0.05,0.97,-0.11,-0.07,-0.23,
0.279,0.00,0.04,0.97,-0.11,-0.07,-0.23,
0.279,-0.00,0.04,0.96,-0.11,-0.07,-0.23,
0.279,-0.00,0.05,0.96,-0.11,-0.07,-0.23,
0.28,-0.00,0.05,0.96,-0.12,-0.14,-0.19,
0.28,-0.01,0.04,0.95,-0.12,-0.14,-0.19,
0.281,-0.01,0.05,0.94,-0.12,-0.14,-0.19,
0.281,-0.01,0.05,0.94,-0.17,-0.11,-0.30,
0.283,-0.01,0.05,0.95,-0.17,-0.11,-0.30,
0.286,-0.01,0.05,0.95,-0.17,-0.11,-0.30,
0.286,-0.01,0.05,0.95,-0.20,-0.09,-0.40,
0.288,-0.01,0.05,0.95,-0.20,-0.09,-0.40,
0.29,-0.02,0.06,0.94,-0.20,-0.09,-0.40,
0.291,-0.02,0.06,0.94,-0.23,-0.04,-0.38,
0.293,-0.02,0.06,0.95,-0.23,-0.04,-0.38,
0.296,-0.02,0.06,0.95,-0.26,-0.00,-0.43,
0.296,-0.02,0.06,0.94,-0.26,-0.00,-0.43,
0.298,-0.02,0.06,0.94,-0.26,-0.00,-0.43,
0.301,-0.02,0.06,0.94,-0.26,-0.00,-0.43,
0.301,-0.02,0.06,0.94,-0.31,0.02,-0.42,
0.305,-0.02,0.05,0.95,-0.31,0.02,-0.42,
0.306,-0.02,0.05,0.95,-0.31,0.02,-0.42,
0.306,-0.02,0.05,0.95,-0.33,0.01,-0.43,
0.308,-0.02,0.05,0.95,-0.33,0.01,-0.43,
0.31,-0.02,0.05,0.95,-0.33,0.01,-0.43,
0.31,-0.02,0.05,0.95,-0.34,0.00,-0.38,
0.313,-0.02,0.05,0.95,-0.34,0.00,-0.38,
0.316,-0.02,0.05,0.96,-0.34,0.00,-0.38,
0.316,-0.02,0.05,0.96,-0.36,-0.01,-0.33,
0.318,-0.01,0.04,0.96,-0.36,-0.01,-0.33,
0.321,-0.01,0.04,0.96,-0.36,-0.01,-0.33,
0.322,-0.01,0.04,0.96,-0.32,-0.03,-0.28,
0.325,-0.01,0.04,0.97,-0.32,-0.03,-0.28,
0.325,-0.00,0.04,0.97,-0.32,-0.03,-0.28,
0.326,-0.00,0.04,0.97,-0.27,-0.09,-0.25,
0.328,-0.00,0.04,0.96,-0.27,-0.09,-0.25,
0.33,-0.00,0.04,0.96,-0.20,-0.11,-0.17,
0.33,-0.00,0.03,0.97,-0.20,-0.11,-0.17,
0.333,-0.00,0.04,0.96,-0.20,-0.11,-0.17,
0.335,-0.01,0.04,0.96,-0.20,-0.11,-0.17,
0.336,-0.01,0.04,0.96,-0.15,-0.16,-0.18,
0.337,-0.01,0.03,0.97,-0.15,-0.16,-0.18,
0.34,-0.01,0.03,0.96,-0.15,-0.16,-0.18,
0.34,-0.01,0.03,0.96,-0.18,-0.15,-0.25,
0.342,-0.01,0.03,0.95,-0.18,-0.15,-0.25,
0.346,-0.01,0.03,0.95,-0.24,-0.18,-0.18,
0.346,-0.01,0.03,0.95,-0.24,-0.18,-0.18,
0.348,-0.01,0.03,0.95,-0.24,-0.18,-0.18,
0.351,-0.01,0.03,0.94,-0.24,-0.18,-0.18,
0.351,-0.01,0.03,0.94,-0.23,-0.18,-0.31,
0.355,-0.01,0.03,0.93,-0.23,-0.18,-0.31,
0.355,-0.01,0.03,0.93,-0.24,-0.23,-0.41,
0.356,-0.01,0.02,0.93,-0.24,-0.23,-0.41,
0.357,-0.00,0.02,0.92,-0.24,-0.23,-0.41,
0.36,0.00,0.02,0.91,-0.24,-0.23,-0.41,
0.36,0.00,0.02,0.91,-0.23,-0.23,-0.52,
0.362,0.00,0.03,0.91,-0.23,-0.23,-0.52,
0.365,0.00,0.02,0.90,-0.23,-0.23,-0.52,
0.365,0.00,0.02,0.90,-0.13,-0.25,-0.65,
0.367,0.01,0.02,0.90,-0.13,-0.25,-0.65,
0.37,0.01,0.02,0.90,-0.08,-0.23,-0.75,
0.371,0.01,0.02,0.89,-0.08,-0.23,-0.75,
0.372,0.01,0.03,0.88,-0.08,-0.23,-0.75,
0.375,0.01,0.03,0.88,-0.08,-0.23,-0.75,
0.375,0.01,0.03,0.88,-0.03,-0.23,-0.87,
0.378,0.01,0.03,0.87,-0.03,-0.23,-0.87,
0.38,0.02,0.03,0.87,-0.03,-0.23,-0.87,
0.381,0.02,0.03,0.87,0.02,-0.19,-1.00,
0.383,0.02,0.03,0.86,0.02,-0.19,-1.00,
0.385,0.02,0.03,0.87,0.02,-0.19,-1.00,
0.385,0.02,0.03,0.87,0.07,-0.19,-1.09,
0.387,0.02,0.03,0.87,0.07,-0.19,-1.09,
0.39,0.02,0.04,0.87,0.07,-0.19,-1.09,
0.39,0.02,0.04,0.87,0.12,-0.16,-1.13,
0.392,0.03,0.04,0.87,0.12,-0.16,-1.13,
0.395,0.03,0.04,0.87,0.12,-0.16,-1.13,
0.395,0.03,0.04,0.87,0.17,-0.09,-1.07,
0.397,0.03,0.04,0.87,0.17,-0.09,-1.07,
0.4,0.03,0.04,0.87,0.23,-0.04,-1.04,
0.401,0.04,0.03,0.86,0.23,-0.04,-1.04,
0.403,0.04,0.03,0.87,0.23,-0.04,-1.04,
0.405,0.05,0.02,0.86,0.23,-0.04,-1.04,
0.405,0.05,0.02,0.86,0.30,-0.08,-1.10,
0.407,0.06,0.02,0.86,0.30,-0.08,-1.10,
0.41,0.07,0.01,0.86,0.30,-0.08,-1.10,
0.41,0.07,0.01,0.86,0.42,-0.16,-1.09,
0.412,0.08,0.01,0.86,0.42,-0.16,-1.09,
0.415,0.09,0.00,0.84,0.42,-0.16,-1.09,
0.415,0.09,0.00,0.84,0.57,-0.27,-1.12,
0.417,0.09,-0.00,0.84,0.57,-0.27,-1.12,
0.419,0.09,-0.01,0.84,0.57,-0.27,-1.12,
0.42,0.09,-0.01,0.84,0.77,-0.35,-1.21,
0.423,0.10,-0.00,0.83,0.77,-0.35,-1.21,
0.424,0.10,-0.01,0.82,0.77,-0.35,-1.21,
0.425,0.10,-0.01,0.82,0.86,-0.47,-1.28,
0.427,0.10,-0.01,0.82,0.86,-0.47,-1.28,
0.43,0.10,-0.01,0.81,0.86,-0.47,-1.28,
0.43,0.10,-0.01,0.81,0.97,-0.47,-1.42,
0.433,0.10,-0.01,0.80,0.97,-0.47,-1.42,
0.435,0.10,0.00,0.79,0.97,-0.47,-1.42,
0.435,0.10,0.00,0.79,0.97,-0.54,-1.52,
0.437,0.10,0.01,0.78,0.97,-0.54,-1.52,
0.439,0.09,0.01,0.78,0.97,-0.54,-1.52,
0.44,0.09,0.01,0.78,0.91,-0.48,-1.69,
0.443,0.08,0.01,0.78,0.91,-0.48,-1.69,
0.445,0.08,0.01,0.78,0.86,-0.40,-1.82,
0.446,0.08,0.02,0.78,0.86,-0.40,-1.82,
0.447,0.07,0.03,0.77,0.86,-0.40,-1.82,
0.45,0.06,0.04,0.77,0.86,-0.40,-1.82,
0.45,0.06,0.04,0.77,0.73,-0.31,-1.84,
0.452,0.07,0.04,0.77,0.73,-0.31,-1.84,
0.46,0.06,0.04,0.78,0.73,-0.31,-1.84,
0.461,0.06,0.04,0.78,0.60,-0.17,-1.87,
0.462,0.06,0.05,0.78,0.60,-0.17,-1.87,
0.462,0.05,0.05,0.78,0.60,-0.17,-1.87,
0.463,0.05,0.05,0.78,0.54,-0.10,-1.83,
0.463,0.05,0.05,0.78,0.54,-0.10,-1.83,
0.463,0.05,0.06,0.79,0.54,-0.10,-1.83,
0.464,0.05,0.06,0.79,0.45,-0.05,-1.75,
0.466,0.05,0.06,0.80,0.45,-0.05,-1.75,
0.473,0.05,0.06,0.80,0.45,-0.05,-1.75,
0.474,0.05,0.06,0.80,0.40,-0.00,-1.68,
0.474,0.06,0.06,0.81,0.40,-0.00,-1.68,
0.475,0.06,0.06,0.81,0.36,0.05,-1.54,
0.475,0.06,0.05,0.82,0.36,0.05,-1.54,
0.476,0.06,0.05,0.83,0.36,0.05,-1.54,
0.478,0.06,0.05,0.84,0.36,0.05,-1.54,
0.478,0.06,0.05,0.84,0.42,-0.01,-1.36,
0.481,0.05,0.04,0.86,0.42,-0.01,-1.36,
0.483,0.05,0.03,0.87,0.42,-0.01,-1.36,
0.484,0.05,0.03,0.87,0.42,-0.08,-1.16,
0.485,0.05,0.03,0.87,0.42,-0.08,-1.16,
0.488,0.05,0.02,0.88,0.42,-0.08,-1.16,
0.489,0.05,0.02,0.88,0.33,-0.20,-0.90,
0.49,0.05,0.01,0.89,0.33,-0.20,-0.90,
0.493,0.05,0.01,0.89,0.30,-0.33,-0.75,
0.494,0.04,0.01,0.90,0.30,-0.33,-0.75,
0.495,0.04,0.01,0.91,0.30,-0.33,-0.75,
0.498,0.03,0.01,0.91,0.30,-0.33,-0.75,
0.498,0.03,0.01,0.91,0.23,-0.46,-0.56,
0.5,0.03,0.01,0.91,0.23,-0.46,-0.56,
0.503,0.03,0.01,0.91,0.23,-0.46,-0.56,
0.504,0.03,0.01,0.91,0.14,-0.50,-0.42,
0.505,0.02,0.01,0.92,0.14,-0.50,-0.42,
0.508,0.02,0.01,0.92,0.14,-0.50,-0.42,
0.508,0.02,0.01,0.92,0.09,-0.46,-0.37,
0.51,0.03,0.02,0.93,0.09,-0.46,-0.37,
0.513,0.03,0.02,0.93,0.09,-0.46,-0.37,
0.513,0.03,0.02,0.93,0.01,-0.47,-0.29,
0.515,0.03,0.02,0.93,0.01,-0.47,-0.29,
0.52,0.03,0.03,0.93,0.01,-0.47,-0.29,
0.521,0.03,0.03,0.93,0.03,-0.37,-0.21,
0.521,0.03,0.04,0.94,0.03,-0.37,-0.21,
0.523,0.04,0.05,0.94,0.03,-0.37,-0.21,
0.523,0.04,0.05,0.94,0.06,-0.30,-0.21,
0.525,0.04,0.06,0.94,0.06,-0.30,-0.21,
0.528,0.04,0.06,0.94,0.06,-0.30,-0.21,
0.528,0.04,0.06,0.94,0.12,-0.11,-0.14,
0.53,0.05,0.07,0.94,0.12,-0.11,-0.14,
0.533,0.06,0.07,0.94,0.12,-0.11,-0.14,
0.533,0.06,0.07,0.94,0.20,0.03,-0.12,
0.537,0.06,0.07,0.95,0.20,0.03,-0.12,
0.538,0.06,0.08,0.95,0.20,0.03,-0.12,
0.538,0.06,0.08,0.95,0.31,0.15,-0.11,
0.54,0.07,0.07,0.94,0.31,0.15,-0.11,
0.543,0.07,0.07,0.94,0.40,0.19,-0.04,
0.544,0.08,0.07,0.95,0.40,0.19,-0.04,
0.545,0.08,0.07,0.95,0.40,0.19,-0.04,
0.548,0.09,0.07,0.96,0.40,0.19,-0.04,
0.549,0.09,0.07,0.96,0.51,0.17,-0.05,
0.55,0.09,0.07,0.96,0.51,0.17,-0.05,
0.555,0.09,0.06,0.96,0.51,0.17,-0.05,
0.556,0.09,0.06,0.96,0.64,0.18,0.05,
0.557,0.09,0.07,0.97,0.64,0.18,0.05,
0.558,0.09,0.07,0.98,0.64,0.18,0.05,
0.559,0.09,0.07,0.98,0.69,0.12,0.10,
0.562,0.09,0.08,0.99,0.69,0.12,0.10,
0.564,0.09,0.08,0.99,0.69,0.12,0.10,
0.564,0.09,0.08,0.99,0.68,0.19,0.25,
0.566,0.10,0.08,0.99,0.68,0.19,0.25,
0.569,0.10,0.08,0.99,0.72,0.26,0.36,
0.569,0.10,0.08,1.00,0.72,0.26,0.36,
0.577,0.10,0.09,1.00,0.72,0.26,0.36,
0.578,0.09,0.09,1.00,0.72,0.26,0.36,
0.578,0.09,0.09,1.00,0.75,0.32,0.41,
0.578,0.09,0.09,1.00,0.75,0.32,0.41,
0.579,0.10,0.09,1.00,0.75,0.32,0.41,
0.579,0.10,0.09,1.00,0.73,0.38,0.45,
0.581,0.09,0.09,1.00,0.73,0.38,0.45,
0.583,0.09,0.09,1.00,0.73,0.38,0.45,
0.583,0.09,0.09,1.00,0.72,0.37,0.44,
0.585,0.09,0.08,1.00,0.72,0.37,0.44,
0.589,0.09,0.08,1.00,0.72,0.37,0.44,
0.589,0.09,0.08,1.00,0.66,0.35,0.44,
0.59,0.08,0.07,1.00,0.66,0.35,0.44,
0.593,0.08,0.06,1.00,0.66,0.35,0.44,
0.593,0.08,0.06,1.00,0.64,0.26,0.47,
0.595,0.07,0.06,1.01,0.64,0.26,0.47,
0.598,0.07,0.05,1.01,0.64,0.26,0.47,
0.598,0.07,0.05,1.01,0.55,0.13,0.48,
0.6,0.07,0.05,1.01,0.55,0.13,0.48,
0.602,0.06,0.05,1.01,0.55,0.13,0.48,
0.602,0.06,0.05,1.01,0.46,-0.00,0.53,
0.606,0.05,0.05,1.01,0.46,-0.00,0.53,
0.607,0.05,0.05,1.01,0.46,-0.00,0.53,
0.607,0.05,0.05,1.01,0.34,-0.03,0.52,
0.61,0.05,0.05,1.02,0.34,-0.03,0.52,
0.613,0.05,0.05,1.02,0.34,-0.03,0.52,
0.613,0.05,0.05,1.02,0.24,-0.03,0.56,
0.615,0.05,0.05,1.02,0.24,-0.03,0.56,
0.618,0.05,0.06,1.02,0.24,-0.03,0.56,
0.618,0.05,0.06,1.02,0.23,-0.02,0.63,
0.619,0.05,0.05,1.03,0.23,-0.02,0.63,
0.623,0.05,0.06,1.03,0.23,-0.02,0.63,
0.623,0.05,0.06,1.03,0.23,0.02,0.63,
0.625,0.06,0.06,1.03,0.23,0.02,0.63,
0.628,0.06,0.06,1.03,0.23,0.02,0.63,
0.628,0.06,0.06,1.03,0.23,0.03,0.70,
0.631,0.06,0.06,1.03,0.23,0.03,0.70,
0.633,0.07,0.06,1.03,0.23,0.03,0.70,
0.633,0.07,0.06,1.03,0.28,0.05,0.73,
0.635,0.07,0.06,1.04,0.28,0.05,0.73,
0.638,0.07,0.06,1.03,0.28,0.05,0.73,
0.639,0.07,0.06,1.03,0.34,0.05,0.73,
0.64,0.07,0.06,1.03,0.34,0.05,0.73,
0.642,0.07,0.06,1.03,0.38,0.08,0.72,
0.642,0.07,0.06,1.03,0.38,0.08,0.72,
0.644,0.07,0.06,1.02,0.38,0.08,0.72,
0.647,0.07,0.06,1.02,0.38,0.08,0.72,
0.647,0.07,0.06,1.02,0.39,0.09,0.71,
0.649,0.07,0.06,1.01,0.39,0.09,0.71,
0.652,0.07,0.06,1.00,0.39,0.09,0.71,
0.658,0.07,0.06,1.00,0.39,0.07,0.58,
0.658,0.07,0.06,1.00,0.39,0.07,0.58,
0.659,0.07,0.06,1.00,0.37,0.07,0.48,
0.659,0.07,0.05,0.99,0.37,0.07,0.48,
0.66,0.08,0.05,0.98,0.37,0.07,0.48,
0.663,0.08,0.06,0.97,0.37,0.07,0.48,
0.664,0.08,0.06,0.97,0.41,0.04,0.30,
0.664,0.08,0.06,0.96,0.41,0.04,0.30,
0.667,0.08,0.06,0.96,0.48,0.04,0.12,
0.667,0.08,0.06,0.95,0.48,0.04,0.12,
0.675,0.09,0.06,0.94,0.48,0.04,0.12,
0.676,0.09,0.06,0.93,0.48,0.04,0.12,
0.676,0.09,0.06,0.93,0.50,0.06,-0.05,
0.676,0.09,0.06,0.92,0.50,0.06,-0.05,
0.677,0.11,0.06,0.91,0.50,0.06,-0.05,
0.677,0.11,0.06,0.91,0.58,0.06,-0.25,
0.679,0.11,0.06,0.90,0.58,0.06,-0.25,
0.682,0.11,0.06,0.90,0.68,0.03,-0.42,
0.683,0.11,0.07,0.89,0.68,0.03,-0.42,
0.684,0.12,0.07,0.89,0.68,0.03,-0.42,
0.688,0.12,0.07,0.89,0.68,0.03,-0.42,
0.689,0.12,0.07,0.89,0.78,0.12,-0.60,
0.689,0.13,0.07,0.88,0.78,0.12,-0.60,
0.691,0.13,0.07,0.88,0.85,0.12,-0.71,
0.692,0.13,0.08,0.87,0.85,0.12,-0.71,
0.694,0.14,0.08,0.88,0.85,0.12,-0.71,
0.696,0.15,0.09,0.88,0.85,0.12,-0.71,
0.696,0.15,0.09,0.88,0.96,0.22,-0.77,
0.698,0.16,0.09,0.89,0.96,0.22,-0.77,
0.701,0.17,0.09,0.90,0.96,0.22,-0.77,
0.702,0.17,0.09,0.90,1.10,0.30,-0.75,
0.705,0.17,0.10,0.91,1.10,0.30,-0.75,
0.707,0.17,0.11,0.92,1.10,0.30,-0.75,
0.707,0.17,0.11,0.92,1.25,0.39,-0.60,
0.71,0.16,0.11,0.93,1.25,0.39,-0.60,
0.712,0.15,0.12,0.95,1.25,0.39,-0.60,
0.712,0.15,0.12,0.95,1.29,0.54,-0.39,
0.714,0.15,0.12,0.96,1.29,0.54,-0.39,
0.717,0.13,0.12,0.97,1.29,0.54,-0.39,
0.717,0.13,0.12,0.97,1.19,0.63,-0.16,
0.719,0.12,0.12,0.99,1.19,0.63,-0.16,
0.722,0.11,0.11,1.01,1.19,0.63,-0.16,
0.723,0.11,0.11,1.01,0.98,0.68,0.09,
0.723,0.10,0.11,1.03,0.98,0.68,0.09,
0.726,0.08,0.11,1.05,0.98,0.68,0.09,
0.727,0.08,0.11,1.05,0.70,0.71,0.44,
0.729,0.06,0.10,1.07,0.70,0.71,0.44,
0.732,0.05,0.09,1.08,0.70,0.71,0.44,
0.732,0.05,0.09,1.08,0.44,0.67,0.82,
0.734,0.03,0.08,1.09,0.44,0.67,0.82,
0.74,0.02,0.07,1.10,0.44,0.67,0.82,
0.741,0.02,0.07,1.10,0.11,0.49,1.12,
0.741,0.01,0.06,1.10,0.11,0.49,1.12,
0.741,0.01,0.06,1.10,-0.20,0.35,1.35,
0.741,0.00,0.05,1.11,-0.20,0.35,1.35,
0.744,-0.00,0.04,1.10,-0.20,0.35,1.35,
0.747,-0.01,0.02,1.10,-0.20,0.35,1.35,
0.747,-0.01,0.02,1.10,-0.40,0.15,1.42,
0.749,-0.01,0.02,1.09,-0.40,0.15,1.42,
0.751,-0.01,0.00,1.09,-0.40,0.15,1.42,
0.752,-0.01,0.00,1.09,-0.50,-0.07,1.41,
0.754,-0.01,-0.01,1.07,-0.50,-0.07,1.41,
0.756,-0.00,-0.02,1.06,-0.50,-0.07,1.41,
0.756,-0.00,-0.02,1.06,-0.54,-0.29,1.28,
0.758,-0.01,-0.03,1.05,-0.54,-0.29,1.28,
0.761,-0.00,-0.03,1.03,-0.54,-0.29,1.28,
0.762,-0.00,-0.03,1.03,-0.49,-0.48,1.03,
0.763,-0.00,-0.04,1.02,-0.49,-0.48,1.03,
0.766,-0.01,-0.04,1.00,-0.49,-0.48,1.03,
0.766,-0.01,-0.04,1.00,-0.47,-0.64,0.78,
0.768,-0.01,-0.03,0.99,-0.47,-0.64,0.78,
0.776,-0.01,-0.03,0.98,-0.47,-0.64,0.78,
0.777,-0.01,-0.03,0.98,-0.47,-0.69,0.47,
0.777,-0.01,-0.02,0.97,-0.47,-0.69,0.47,
0.777,-0.01,-0.01,0.96,-0.47,-0.69,0.47,
0.777,-0.01,-0.01,0.96,-0.49,-0.63,0.19,
0.778,-0.01,-0.00,0.96,-0.49,-0.63,0.19,
0.781,-0.01,0.00,0.96,-0.49,-0.63,0.19,
0.781,-0.01,0.00,0.96,-0.49,-0.50,0.05,
0.783,-0.01,0.02,0.95,-0.49,-0.50,0.05,
0.786,-0.01,0.02,0.95,-0.49,-0.50,0.05,
0.786,-0.01,0.02,0.95,-0.44,-0.30,-0.04,
0.789,-0.01,0.03,0.95,-0.44,-0.30,-0.04,
0.793,-0.01,0.03,0.95,-0.43,-0.07,-0.15,
0.793,-0.01,0.04,0.95,-0.43,-0.07,-0.15,
0.793,-0.01,0.05,0.96,-0.43,-0.07,-0.15,
0.796,-0.00,0.05,0.97,-0.43,-0.07,-0.15,
0.797,-0.00,0.05,0.97,-0.41,0.10,-0.09,
0.799,-0.00,0.06,0.97,-0.41,0.10,-0.09,
0.801,-0.00,0.07,0.98,-0.41,0.10,-0.09,
0.801,-0.00,0.07,0.98,-0.37,0.28,0.02,
0.803,0.00,0.08,0.99,-0.37,0.28,0.02,
0.805,-0.00,0.08,1.00,-0.37,0.28,0.02,
0.806,-0.00,0.08,1.00,-0.35,0.42,0.14,
0.808,0.00,0.08,1.01,-0.35,0.42,0.14,
0.811,0.00,0.08,1.02,-0.35,0.42,0.14,
0.811,0.00,0.08,1.02,-0.34,0.56,0.29,
0.813,0.00,0.09,1.03,-0.34,0.56,0.29,
0.817,0.00,0.09,1.03,-0.32,0.62,0.52,
0.817,0.01,0.09,1.05,-0.32,0.62,0.52,
0.82,0.01,0.09,1.05,-0.32,0.62,0.52,
0.82,0.01,0.09,1.05,-0.31,0.71,0.76,
0.821,0.01,0.09,1.07,-0.31,0.71,0.76,
0.823,0.02,0.09,1.07,-0.31,0.71,0.76,
0.828,0.02,0.09,1.08,-0.31,0.71,0.76,
0.828,0.02,0.09,1.08,-0.26,0.74,0.97,
0.828,0.02,0.08,1.09,-0.26,0.74,0.97,
0.831,0.03,0.08,1.09,-0.26,0.74,0.97,
0.831,0.03,0.08,1.09,-0.22,0.73,1.10,
0.833,0.04,0.07,1.09,-0.22,0.73,1.10,
0.836,0.04,0.07,1.09,-0.22,0.73,1.10,
0.836,0.04,0.07,1.09,-0.16,0.68,1.21,
0.838,0.04,0.07,1.09,-0.16,0.68,1.21,
0.841,0.04,0.07,1.09,-0.08,0.58,1.22,
0.841,0.04,0.06,1.09,-0.08,0.58,1.22,
0.843,0.05,0.05,1.09,-0.08,0.58,1.22,
0.846,0.05,0.04,1.08,-0.08,0.58,1.22,
0.846,0.05,0.04,1.08,-0.05,0.54,1.27,
0.848,0.05,0.03,1.08,-0.05,0.54,1.27,
0.85,0.04,0.02,1.07,-0.05,0.54,1.27,
0.851,0.04,0.02,1.07,-0.01,0.36,1.19,
0.853,0.04,0.01,1.05,-0.01,0.36,1.19,
0.856,0.05,-0.01,1.04,-0.01,0.36,1.19,
0.857,0.05,-0.01,1.04,-0.05,0.11,1.06,
0.858,0.04,-0.02,1.03,-0.05,0.11,1.06,
0.86,0.04,-0.02,1.01,-0.05,0.11,1.06,
0.861,0.04,-0.02,1.01,-0.05,-0.12,0.82,
0.863,0.03,-0.02,1.00,-0.05,-0.12,0.82,
0.866,0.03,-0.02,1.00,-0.11,-0.26,0.50,
0.866,0.03,-0.02,0.98,-0.11,-0.26,0.50,
0.868,0.02,-0.03,0.97,-0.11,-0.26,0.50,
0.871,0.02,-0.02,0.97,-0.11,-0.26,0.50,
0.871,0.02,-0.02,0.97,-0.20,-0.33,0.24,
0.874,0.02,-0.02,0.96,-0.20,-0.33,0.24,
0.875,0.02,-0.01,0.95,-0.20,-0.33,0.24,
0.875,0.02,-0.01,0.95,-0.26,-0.34,0.06,
0.878,0.02,-0.01,0.95,-0.26,-0.34,0.06,
0.881,0.02,-0.01,0.95,-0.26,-0.34,0.06,
0.881,0.02,-0.01,0.95,-0.26,-0.24,-0.08,
0.882,0.03,-0.00,0.94,-0.26,-0.24,-0.08,
0.885,0.03,0.00,0.94,-0.26,-0.24,-0.08,
0.886,0.03,0.00,0.94,-0.28,-0.17,-0.19,
0.893,0.03,0.01,0.94,-0.28,-0.17,-0.19,
0.894,0.03,0.01,0.94,-0.25,-0.08,-0.27,
0.894,0.03,0.01,0.94,-0.25,-0.08,-0.27,
0.895,0.03,0.02,0.95,-0.25,-0.08,-0.27,
0.895,0.04,0.02,0.95,-0.25,-0.08,-0.27,
0.895,0.04,0.02,0.95,-0.22,0.03,-0.22,
0.897,0.05,0.02,0.96,-0.22,0.03,-0.22,
0.9,0.05,0.02,0.96,-0.14,0.13,-0.12,
0.9,0.06,0.03,0.97,-0.14,0.13,-0.12,
0.903,0.06,0.03,0.97,-0.14,0.13,-0.12,
0.905,0.05,0.04,0.97,-0.14,0.13,-0.12,
0.906,0.05,0.04,0.97,0.00,0.21,-0.02,
0.907,0.05,0.05,0.98,0.00,0.21,-0.02,
0.909,0.05,0.05,0.99,0.00,0.21,-0.02,
0.91,0.05,0.05,0.99,0.00,0.32,0.07,
0.913,0.05,0.05,0.99,0.00,0.32,0.07,
0.915,0.05,0.05,0.99,-0.05,0.41,0.19,
0.915,0.04,0.05,0.99,-0.05,0.41,0.19,
0.917,0.04,0.05,1.00,-0.05,0.41,0.19,
0.921,0.04,0.05,1.00,-0.05,0.41,0.19,
0.921,0.04,0.05,1.00,-0.11,0.42,0.25,
0.924,0.04,0.04,1.00,-0.11,0.42,0.25,
0.925,0.04,0.04,1.00,-0.11,0.42,0.25,
0.925,0.04,0.04,1.00,-0.20,0.41,0.31,
0.928,0.05,0.04,1.00,-0.20,0.41,0.31,
0.93,0.05,0.03,1.01,-0.20,0.41,0.31,
0.93,0.05,0.03,1.01,-0.18,0.38,0.33,
0.932,0.05,0.04,1.01,-0.18,0.38,0.33,
0.934,0.06,0.04,1.02,-0.18,0.38,0.33,
0.935,0.06,0.04,1.02,-0.11,0.31,0.39,
0.937,0.06,0.05,1.03,-0.11,0.31,0.39,
0.94,0.06,0.05,1.03,-0.05,0.37,0.50,
0.941,0.06,0.05,1.03,-0.05,0.37,0.50,
0.941,0.06,0.05,1.03,-0.05,0.37,0.50,
0.944,0.06,0.05,1.04,-0.05,0.37,0.50,
0.944,0.06,0.05,1.04,0.00,0.44,0.61,
0.946,0.06,0.05,1.04,0.00,0.44,0.61,
0.949,0.06,0.05,1.04,0.00,0.44,0.61,
0.95,0.06,0.05,1.04,0.00,0.47,0.70,
0.951,0.05,0.05,1.04,0.00,0.47,0.70,
0.955,0.05,0.04,1.04,0.00,0.47,0.70,
0.955,0.05,0.04,1.04,-0.03,0.50,0.76,
0.956,0.06,0.04,1.04,-0.03,0.50,0.76,
0.958,0.05,0.04,1.05,-0.03,0.50,0.76,
0.959,0.05,0.04,1.05,-0.07,0.50,0.73,
0.961,0.05,0.04,1.04,-0.07,0.50,0.73,
0.964,0.05,0.04,1.04,-0.06,0.47,0.75,
0.964,0.05,0.04,1.04,-0.06,0.47,0.75,
0.966,0.05,0.03,1.04,-0.06,0.47,0.75,
0.968,0.04,0.02,1.05,-0.06,0.47,0.75,
0.97,0.04,0.02,1.05,-0.08,0.44,0.76,
0.973,0.04,0.00,1.05,-0.08,0.44,0.76,
0.974,0.03,-0.01,1.04,-0.08,0.44,0.76,
0.975,0.03,-0.01,1.04,-0.14,0.29,0.78,
0.976,0.03,-0.02,1.04,-0.14,0.29,0.78,
0.979,0.02,-0.04,1.03,-0.14,0.29,0.78,
0.98,0.02,-0.04,1.03,-0.21,0.07,0.76,
0.981,0.02,-0.05,1.02,-0.21,0.07,0.76,
0.985,0.00,-0.06,1.02,-0.21,0.07,0.76,
0.986,0.00,-0.06,1.02,-0.32,-0.20,0.68,
0.986,-0.00,-0.07,1.01,-0.32,-0.20,0.68,
0.99,-0.00,-0.07,1.01,-0.46,-0.43,0.49,
0.991,-0.01,-0.08,1.00,-0.46,-0.43,0.49,
0.991,-0.03,-0.09,0.99,-0.46,-0.43,0.49,
0.993,-0.04,-0.09,0.98,-0.46,-0.43,0.49,
0.993,-0.04,-0.09,0.98,-0.64,-0.60,0.35,
0.995,-0.04,-0.09,0.97,-0.64,-0.60,0.35,
0.998,-0.05,-0.09,0.95,-0.64,-0.60,0.35,
0.998,-0.05,-0.09,0.95,-0.84,-0.69,0.12,
1.0,-0.06,-0.09,0.94,-0.84,-0.69,0.12,
1.012,-0.06,-0.09,0.94,-0.84,-0.69,0.12,
1.013,-0.06,-0.09,0.94,-0.99,-0.72,-0.10,
1.013,-0.06,-0.08,0.94,-0.99,-0.72,-0.10,
1.014,-0.06,-0.07,0.94,-0.99,-0.72,-0.10,
1.014,-0.06,-0.07,0.94,-1.09,-0.69,-0.29,
1.014,-0.05,-0.07,0.95,-1.09,-0.69,-0.29,
1.015,-0.05,-0.07,0.95,-1.10,-0.55,-0.29,
1.015,-0.05,-0.06,0.95,-1.10,-0.55,-0.29,
1.016,-0.04,-0.06,0.96,-1.10,-0.55,-0.29,
1.018,-0.03,-0.06,0.97,-1.10,-0.55,-0.29,
1.018,-0.03,-0.06,0.97,-1.04,-0.43,-0.20,
1.029,-0.03,-0.05,0.98,-1.04,-0.43,-0.20,
1.03,-0.04,-0.05,0.99,-1.04,-0.43,-0.20,
1.03,-0.04,-0.05,0.99,-0.90,-0.35,-0.05,
1.03,-0.03,-0.05,0.99,-0.90,-0.35,-0.05,
1.031,-0.02,-0.05,1.00,-0.90,-0.35,-0.05,
1.031,-0.02,-0.05,1.00,-0.89,-0.24,0.18,
1.031,-0.02,-0.04,1.01,-0.89,-0.24,0.18,
1.033,-0.01,-0.04,1.02,-0.89,-0.24,0.18,
1.033,-0.01,-0.04,1.02,-0.80,-0.20,0.26,
1.035,-0.01,-0.04,1.03,-0.80,-0.20,0.26,
1.038,-0.01,-0.04,1.04,-0.80,-0.20,0.26,
1.038,-0.01,-0.04,1.04,-0.73,-0.09,0.43,
1.04,-0.01,-0.03,1.05,-0.73,-0.09,0.43,
1.042,-0.00,-0.03,1.06,-0.73,-0.09,0.43,
1.043,-0.00,-0.03,1.06,-0.66,-0.08,0.63,
1.045,0.00,-0.04,1.08,-0.66,-0.08,0.63,
1.047,0.00,-0.04,1.08,-0.66,-0.08,0.63,
1.048,0.00,-0.04,1.08,-0.65,-0.03,0.85,
1.05,0.00,-0.04,1.09,-0.65,-0.03,0.85,
1.052,-0.00,-0.04,1.10,-0.65,-0.03,0.85,
1.053,-0.00,-0.04,1.10,-0.62,-0.06,1.09,
1.055,-0.01,-0.04,1.11,-0.62,-0.06,1.09,
1.057,-0.01,-0.04,1.11,-0.62,-0.06,1.09,
1.058,-0.01,-0.04,1.11,-0.66,-0.07,1.23,
1.06,-0.01,-0.04,1.12,-0.66,-0.07,1.23,
1.063,-0.01,-0.04,1.12,-0.75,-0.03,1.37,
1.063,-0.02,-0.04,1.13,-0.75,-0.03,1.37,
1.065,-0.02,-0.04,1.14,-0.75,-0.03,1.37,
1.067,-0.02,-0.04,1.15,-0.75,-0.03,1.37,
1.068,-0.02,-0.04,1.15,-0.82,-0.03,1.54,
1.07,-0.03,-0.04,1.16,-0.82,-0.03,1.54,
1.074,-0.03,-0.04,1.17,-0.82,-0.03,1.54,
1.075,-0.03,-0.04,1.17,-0.91,-0.01,1.75,
1.076,-0.04,-0.04,1.18,-0.91,-0.01,1.75,
1.078,-0.04,-0.04,1.19,-0.91,-0.01,1.75,
1.078,-0.04,-0.04,1.19,-1.03,0.01,1.93,
1.08,-0.04,-0.04,1.21,-1.03,0.01,1.93,
1.083,-0.03,-0.04,1.21,-1.03,0.01,1.93,
1.083,-0.03,-0.04,1.21,-1.09,0.06,2.11,
1.085,-0.03,-0.05,1.22,-1.09,0.06,2.11,
1.097,-0.03,-0.05,1.22,-1.07,0.04,2.33,
1.098,-0.03,-0.07,1.22,-1.07,0.04,2.33,
1.098,-0.03,-0.07,1.22,-1.07,0.04,2.33,
1.099,-0.03,-0.09,1.21,-1.07,0.04,2.33,
1.1,-0.03,-0.09,1.21,-1.05,-0.12,2.43,
1.1,-0.03,-0.10,1.21,-1.05,-0.12,2.43,
1.101,-0.03,-0.11,1.20,-1.05,-0.12,2.43,
1.101,-0.03,-0.11,1.20,-1.05,-0.27,2.38,
1.102,-0.02,-0.12,1.19,-1.05,-0.27,2.38,
1.103,-0.02,-0.14,1.19,-1.05,-0.27,2.38,
1.103,-0.02,-0.14,1.19,-1.00,-0.52,2.28,
1.112,-0.02,-0.15,1.18,-1.00,-0.52,2.28,
1.113,-0.02,-0.15,1.18,-0.92,-0.73,2.14,
1.113,-0.01,-0.15,1.16,-0.92,-0.73,2.14,
1.114,-0.01,-0.16,1.16,-0.92,-0.73,2.14,
1.114,-0.01,-0.17,1.15,-0.92,-0.73,2.14,
1.114,-0.01,-0.17,1.15,-0.90,-0.91,1.95,
1.115,-0.01,-0.17,1.13,-0.90,-0.91,1.95,
1.117,-0.00,-0.17,1.12,-0.90,-0.91,1.95,
1.117,-0.00,-0.17,1.12,-0.84,-1.08,1.73,
1.119,-0.00,-0.16,1.11,-0.84,-1.08,1.73,
1.122,0.00,-0.15,1.10,-0.84,-1.08,1.73,
1.122,0.00,-0.15,1.10,-0.78,-1.10,1.43,
1.124,0.01,-0.15,1.10,-0.78,-1.10,1.43,
1.126,0.01,-0.14,1.10,-0.78,-1.10,1.43,
1.127,0.01,-0.14,1.10,-0.76,-0.97,1.25,
1.129,0.01,-0.13,1.10,-0.76,-0.97,1.25,
1.132,0.02,-0.11,1.10,-0.76,-0.97,1.25,
1.132,0.02,-0.11,1.10,-0.66,-0.84,1.20,
1.134,0.02,-0.10,1.10,-0.66,-0.84,1.20,
1.136,0.03,-0.09,1.11,-0.66,-0.84,1.20,
1.137,0.03,-0.09,1.11,-0.61,-0.58,1.22,
1.139,0.03,-0.08,1.11,-0.61,-0.58,1.22,
1.142,0.04,-0.07,1.11,-0.61,-0.58,1.22,
1.142,0.04,-0.07,1.11,-0.51,-0.33,1.27,
1.144,0.04,-0.07,1.11,-0.51,-0.33,1.27,
1.147,0.05,-0.06,1.11,-0.51,-0.33,1.27,
1.152,0.05,-0.06,1.11,-0.46,-0.14,1.30,
1.152,0.05,-0.05,1.12,-0.46,-0.14,1.30,
1.152,0.05,-0.05,1.13,-0.46,-0.14,1.30,
1.153,0.05,-0.05,1.13,-0.37,-0.02,1.29,
1.154,0.07,-0.05,1.14,-0.37,-0.02,1.29,
1.159,0.08,-0.04,1.15,-0.37,-0.02,1.29,
1.16,0.08,-0.04,1.15,-0.29,0.14,1.47,
1.16,0.08,-0.04,1.16,-0.29,0.14,1.47,
1.163,0.09,-0.05,1.17,-0.29,0.14,1.47,
1.163,0.09,-0.05,1.17,-0.11,0.23,1.64,
1.165,0.09,-0.06,1.19,-0.11,0.23,1.64,
1.167,0.10,-0.06,1.19,-0.11,0.23,1.64,
1.167,0.10,-0.06,1.19,-0.03,0.21,1.89,
1.169,0.10,-0.07,1.20,-0.03,0.21,1.89,
1.171,0.10,-0.08,1.20,-0.03,0.21,1.89,
1.174,0.10,-0.08,1.20,0.04,0.11,2.08,
1.175,0.10,-0.09,1.20,0.04,0.11,2.08,
1.177,0.10,-0.10,1.21,0.04,0.11,2.08,
1.178,0.10,-0.10,1.21,0.09,-0.07,2.18,
1.179,0.10,-0.11,1.23,0.09,-0.07,2.18,
1.182,0.10,-0.11,1.24,0.09,-0.07,2.18,
1.183,0.10,-0.11,1.24,0.11,-0.24,2.27,
1.184,0.10,-0.12,1.24,0.11,-0.24,2.27,
1.187,0.10,-0.12,1.24,0.10,-0.37,2.49,
1.187,0.09,-0.13,1.25,0.10,-0.37,2.49,
1.19,0.09,-0.13,1.27,0.10,-0.37,2.49,
1.192,0.09,-0.13,1.27,0.10,-0.37,2.49,
1.193,0.09,-0.13,1.27,0.05,-0.47,2.64,
1.193,0.08,-0.13,1.28,0.05,-0.47,2.64,
1.196,0.07,-0.13,1.29,0.05,-0.47,2.64,
1.197,0.07,-0.13,1.29,-0.04,-0.54,2.87,
1.199,0.07,-0.13,1.29,-0.04,-0.54,2.87,
1.201,0.05,-0.13,1.29,-0.04,-0.54,2.87,
1.201,0.05,-0.13,1.29,-0.21,-0.54,2.97,
1.204,0.05,-0.14,1.29,-0.21,-0.54,2.97,
1.206,0.05,-0.14,1.29,-0.21,-0.54,2.97,
1.206,0.05,-0.14,1.29,-0.33,-0.55,3.04,
1.208,0.04,-0.14,1.29,-0.33,-0.55,3.04,
1.212,0.04,-0.14,1.29,-0.44,-0.57,3.03,
1.212,0.04,-0.14,1.28,-0.44,-0.57,3.03,
1.214,0.04,-0.14,1.27,-0.44,-0.57,3.03,
1.217,0.03,-0.15,1.26,-0.44,-0.57,3.03,
1.217,0.03,-0.15,1.26,-0.52,-0.62,2.96,
1.219,0.03,-0.16,1.24,-0.52,-0.62,2.96,
1.222,0.03,-0.16,1.22,-0.52,-0.62,2.96,
1.222,0.03,-0.16,1.22,-0.56,-0.64,2.74,
1.226,0.03,-0.16,1.21,-0.56,-0.64,2.74,
1.227,0.03,-0.17,1.20,-0.56,-0.64,2.74,
1.227,0.03,-0.17,1.20,-0.59,-0.75,2.46,
1.229,0.03,-0.18,1.18,-0.59,-0.75,2.46,
1.231,0.03,-0.18,1.17,-0.59,-0.75,2.46,
1.231,0.03,-0.18,1.17,-0.59,-0.82,2.17,
1.234,0.04,-0.19,1.16,-0.59,-0.82,2.17,
1.237,0.04,-0.19,1.16,-0.59,-0.92,1.86,
1.237,0.04,-0.20,1.14,-0.59,-0.92,1.86,
1.238,0.04,-0.20,1.13,-0.59,-0.92,1.86,
1.241,0.05,-0.21,1.12,-0.59,-0.92,1.86,
1.242,0.05,-0.21,1.12,-0.49,-1.07,1.62,
1.243,0.06,-0.21,1.11,-0.49,-1.07,1.62,
1.247,0.06,-0.22,1.10,-0.49,-1.07,1.62,
1.247,0.06,-0.22,1.10,-0.39,-1.19,1.35,
1.249,0.06,-0.21,1.10,-0.39,-1.19,1.35,
1.251,0.07,-0.21,1.10,-0.39,-1.19,1.35,
1.252,0.07,-0.21,1.10,-0.27,-1.26,1.16,
1.254,0.08,-0.21,1.11,-0.27,-1.26,1.16,
1.257,0.08,-0.19,1.12,-0.27,-1.26,1.16,
1.258,0.08,-0.19,1.12,-0.19,-1.24,1.14,
1.259,0.10,-0.19,1.13,-0.19,-1.24,1.14,
1.262,0.10,-0.19,1.13,-0.06,-1.10,1.24,
1.262,0.11,-0.18,1.14,-0.06,-1.10,1.24,
1.263,0.12,-0.19,1.16,-0.06,-1.10,1.24,
1.266,0.14,-0.18,1.18,-0.06,-1.10,1.24,
1.266,0.14,-0.18,1.18,0.16,-0.94,1.47,
1.269,0.15,-0.18,1.18,0.16,-0.94,1.47,
1.271,0.16,-0.18,1.19,0.16,-0.94,1.47,
1.272,0.16,-0.18,1.19,0.43,-0.91,1.79,
1.275,0.17,-0.18,1.21,0.43,-0.91,1.79,
1.277,0.19,-0.17,1.21,0.43,-0.91,1.79,
1.278,0.19,-0.17,1.21,0.69,-0.85,1.96,
1.278,0.20,-0.17,1.21,0.69,-0.85,1.96,
1.281,0.21,-0.17,1.21,0.69,-0.85,1.96,
1.282,0.21,-0.17,1.21,0.89,-0.84,2.16,
1.284,0.22,-0.17,1.22,0.89,-0.84,2.16,
1.286,0.22,-0.17,1.22,1.14,-0.75,2.18,
1.287,0.23,-0.16,1.21,1.14,-0.75,2.18,
1.289,0.24,-0.15,1.21,1.14,-0.75,2.18,
1.291,0.24,-0.15,1.20,1.14,-0.75,2.18,
1.292,0.24,-0.15,1.20,1.31,-0.70,2.20,
1.293,0.25,-0.15,1.20,1.31,-0.70,2.20,
1.296,0.26,-0.14,1.19,1.31,-0.70,2.20,
1.296,0.26,-0.14,1.19,1.47,-0.56,2.12,
1.299,0.27,-0.14,1.17,1.47,-0.56,2.12,
1.301,0.27,-0.13,1.16,1.47,-0.56,2.12,
1.302,0.27,-0.13,1.16,1.65,-0.49,1.97,
1.303,0.27,-0.12,1.14,1.65,-0.49,1.97,
1.305,0.26,-0.12,1.12,1.65,-0.49,1.97,
1.306,0.26,-0.12,1.12,1.75,-0.38,1.71,
1.308,0.26,-0.11,1.11,1.75,-0.38,1.71,
1.311,0.26,-0.11,1.11,1.72,-0.25,1.40,
1.311,0.26,-0.10,1.10,1.72,-0.25,1.40,
1.315,0.25,-0.09,1.08,1.72,-0.25,1.40,
1.315,0.25,-0.09,1.07,1.72,-0.25,1.40,
1.315,0.25,-0.09,1.07,1.68,-0.11,1.12,
1.319,0.24,-0.08,1.06,1.68,-0.11,1.12,
1.321,0.23,-0.07,1.05,1.68,-0.11,1.12,
1.322,0.23,-0.07,1.05,1.61,0.05,0.83,
1.328,0.22,-0.06,1.04,1.61,0.05,0.83,
1.329,0.22,-0.05,1.04,1.61,0.05,0.83,
1.329,0.22,-0.05,1.04,1.48,0.21,0.64,
1.33,0.21,-0.03,1.04,1.48,0.21,0.64,
1.33,0.20,-0.02,1.04,1.48,0.21,0.64,
1.33,0.20,-0.02,1.04,1.33,0.41,0.50,
1.332,0.20,-0.01,1.05,1.33,0.41,0.50,
1.335,0.19,0.01,1.06,1.33,0.41,0.50,
1.335,0.19,0.01,1.06,1.18,0.67,0.47,
1.337,0.20,0.02,1.07,1.18,0.67,0.47,
1.34,0.20,0.03,1.09,1.18,0.67,0.47,
1.341,0.20,0.03,1.09,1.09,0.99,0.63,
1.342,0.21,0.04,1.12,1.09,0.99,0.63,
1.345,0.21,0.04,1.14,1.09,0.99,0.63,
1.345,0.21,0.04,1.14,1.13,1.24,0.88,
1.347,0.22,0.03,1.16,1.13,1.24,0.88,
1.349,0.22,0.02,1.18,1.13,1.24,0.88,
1.35,0.22,0.02,1.18,1.23,1.36,1.34,
1.352,0.22,0.01,1.20,1.23,1.36,1.34,
1.354,0.22,-0.00,1.22,1.23,1.36,1.34,
1.354,0.22,-0.00,1.22,1.34,1.25,1.76,
1.357,0.22,-0.01,1.24,1.34,1.25,1.76,
1.359,0.23,-0.03,1.25,1.34,1.25,1.76,
1.36,0.23,-0.03,1.25,1.35,1.02,2.13,
1.362,0.23,-0.04,1.25,1.35,1.02,2.13,
1.364,0.23,-0.05,1.25,1.35,1.02,2.13,
1.365,0.23,-0.05,1.25,1.40,0.78,2.43,
1.366,0.23,-0.07,1.25,1.40,0.78,2.43,
1.369,0.22,-0.08,1.25,1.40,0.78,2.43,
1.37,0.22,-0.08,1.25,1.43,0.53,2.49,
1.373,0.22,-0.08,1.25,1.43,0.53,2.49,
1.376,0.21,-0.09,1.25,1.43,0.53,2.49,
1.376,0.21,-0.09,1.25,1.38,0.30,2.54,
1.377,0.20,-0.09,1.24,1.38,0.30,2.54,
1.379,0.19,-0.10,1.24,1.38,0.30,2.54,
1.38,0.19,-0.10,1.24,1.27,0.20,2.54,
1.382,0.17,-0.10,1.22,1.27,0.20,2.54,
1.385,0.17,-0.10,1.22,1.04,0.07,2.39,
1.386,0.15,-0.11,1.22,1.04,0.07,2.39,
1.387,0.14,-0.11,1.20,1.04,0.07,2.39,
1.392,0.12,-0.11,1.20,1.04,0.07,2.39,
1.392,0.12,-0.11,1.20,0.74,0.03,2.18,
1.393,0.11,-0.12,1.18,0.74,0.03,2.18,
1.394,0.10,-0.13,1.16,0.74,0.03,2.18,
1.395,0.10,-0.13,1.16,0.49,-0.06,1.97,
1.397,0.08,-0.13,1.15,0.49,-0.06,1.97,
1.399,0.06,-0.14,1.14,0.49,-0.06,1.97,
1.4,0.06,-0.14,1.14,0.20,-0.17,1.68,
1.401,0.05,-0.14,1.14,0.20,-0.17,1.68,
1.404,0.04,-0.14,1.13,0.20,-0.17,1.68,
1.404,0.04,-0.14,1.13,-0.09,-0.29,1.45,
1.407,0.02,-0.13,1.14,-0.09,-0.29,1.45,
1.411,0.02,-0.13,1.14,-0.35,-0.29,1.34,
1.412,0.02,-0.12,1.15,-0.35,-0.29,1.34,
1.412,0.01,-0.10,1.17,-0.35,-0.29,1.34,
1.414,0.01,-0.08,1.19,-0.35,-0.29,1.34,
1.414,0.01,-0.08,1.19,-0.56,-0.17,1.44,
1.416,0.02,-0.06,1.22,-0.56,-0.17,1.44,
1.419,0.03,-0.05,1.25,-0.56,-0.17,1.44,
1.419,0.03,-0.05,1.25,-0.61,0.18,1.78,
1.421,0.04,-0.04,1.28,-0.61,0.18,1.78,
1.424,0.05,-0.03,1.29,-0.61,0.18,1.78,
1.424,0.05,-0.03,1.29,-0.51,0.54,2.32,
1.426,0.06,-0.03,1.30,-0.51,0.54,2.32,
1.429,0.07,-0.03,1.30,-0.51,0.54,2.32,
1.429,0.07,-0.03,1.30,-0.30,0.75,2.78,
1.431,0.08,-0.04,1.30,-0.30,0.75,2.78,
1.434,0.08,-0.04,1.30,-0.08,0.76,2.97,
1.434,0.09,-0.05,1.29,-0.08,0.76,2.97,
1.436,0.10,-0.06,1.28,-0.08,0.76,2.97,
1.445,0.11,-0.06,1.26,-0.08,0.76,2.97,
1.445,0.11,-0.06,1.26,0.14,0.60,2.90,
1.446,0.11,-0.07,1.24,0.14,0.60,2.90,
1.446,0.11,-0.07,1.22,0.14,0.60,2.90,
1.447,0.11,-0.07,1.22,0.31,0.43,2.62,
1.447,0.11,-0.08,1.19,0.31,0.43,2.62,
1.448,0.11,-0.08,1.16,0.31,0.43,2.62,
1.449,0.11,-0.08,1.16,0.45,0.31,2.24,
1.451,0.11,-0.07,1.13,0.45,0.31,2.24,
1.454,0.11,-0.06,1.10,0.45,0.31,2.24,
1.454,0.11,-0.06,1.10,0.44,0.23,1.69,
1.457,0.10,-0.06,1.07,0.44,0.23,1.69,
1.458,0.10,-0.05,1.05,0.44,0.23,1.69,
1.459,0.10,-0.05,1.05,0.43,0.29,1.10,
1.461,0.09,-0.05,1.02,0.43,0.29,1.10,
1.463,0.09,-0.05,1.00,0.43,0.29,1.10,
1.464,0.09,-0.05,1.00,0.35,0.35,0.54,
1.465,0.08,-0.04,0.97,0.35,0.35,0.54,
1.468,0.07,-0.04,0.94,0.35,0.35,0.54,
1.468,0.07,-0.04,0.94,0.27,0.40,0.02,
1.471,0.06,-0.04,0.91,0.27,0.40,0.02,
1.473,0.05,-0.05,0.89,0.27,0.40,0.02,
1.474,0.05,-0.05,0.89,0.10,0.42,-0.54,
1.475,0.04,-0.05,0.86,0.10,0.42,-0.54,
1.478,0.03,-0.05,0.84,0.10,0.42,-0.54,
1.479,0.03,-0.05,0.84,-0.04,0.37,-1.05,
1.481,0.02,-0.06,0.83,-0.04,0.37,-1.05,
1.483,0.02,-0.06,0.83,-0.25,0.29,-1.50,
1.484,0.00,-0.05,0.82,-0.25,0.29,-1.50,
1.486,-0.00,-0.04,0.81,-0.25,0.29,-1.50,
1.488,-0.00,-0.04,0.81,-0.25,0.29,-1.50,
1.489,-0.00,-0.04,0.81,-0.47,0.22,-1.80,
1.492,-0.01,-0.03,0.82,-0.47,0.22,-1.80,
1.493,-0.01,-0.02,0.83,-0.47,0.22,-1.80,
1.493,-0.01,-0.02,0.83,-0.62,0.33,-1.94,
1.496,-0.01,-0.01,0.85,-0.62,0.33,-1.94,
1.499,-0.00,0.00,0.88,-0.62,0.33,-1.94,
1.499,-0.00,0.00,0.88,-0.70,0.50,-1.78,
1.501,0.01,0.02,0.92,-0.70,0.50,-1.78,
1.504,0.02,0.03,0.95,-0.70,0.50,-1.78,
1.504,0.02,0.03,0.95,-0.65,0.65,-1.39,
1.506,0.04,0.05,0.99,-0.65,0.65,-1.39,
1.508,0.06,0.06,1.03,-0.65,0.65,-1.39,
1.509,0.06,0.06,1.03,-0.46,0.94,-0.70,
1.51,0.07,0.06,1.06,-0.46,0.94,-0.70,
1.514,0.08,0.06,1.09,-0.46,0.94,-0.70,
1.514,0.08,0.06,1.09,-0.15,1.21,0.04,
1.516,0.09,0.05,1.12,-0.15,1.21,0.04,
1.518,0.09,0.04,1.14,-0.15,1.21,0.04,
1.518,0.09,0.04,1.14,0.09,1.27,0.68,
1.52,0.10,0.03,1.15,0.09,1.27,0.68,
1.523,0.09,0.00,1.16,0.09,1.27,0.68,
1.523,0.09,0.00,1.16,0.24,1.12,1.18,
1.525,0.08,-0.02,1.16,0.24,1.12,1.18,
1.529,0.07,-0.03,1.16,0.24,1.12,1.18,
1.529,0.07,-0.03,1.16,0.27,0.79,1.47,
1.531,0.07,-0.05,1.15,0.27,0.79,1.47,
1.533,0.07,-0.05,1.15,0.14,0.38,1.48,
1.534,0.06,-0.07,1.13,0.14,0.38,1.48,
1.536,0.05,-0.09,1.11,0.14,0.38,1.48,
1.538,0.04,-0.10,1.09,0.14,0.38,1.48,
1.539,0.04,-0.10,1.09,-0.01,0.01,1.29,
1.541,0.03,-0.11,1.07,-0.01,0.01,1.29,
1.543,0.01,-0.11,1.04,-0.01,0.01,1.29,
1.543,0.01,-0.11,1.04,-0.18,-0.31,0.93,
1.545,0.00,-0.12,1.02,-0.18,-0.31,0.93,
1.548,-0.01,-0.12,1.00,-0.18,-0.31,0.93,
1.549,-0.01,-0.12,1.00,-0.36,-0.52,0.49,
1.55,-0.02,-0.11,0.97,-0.36,-0.52,0.49,
1.553,-0.04,-0.11,0.94,-0.36,-0.52,0.49,
1.553,-0.04,-0.11,0.94,-0.60,-0.59,0.01,
1.555,-0.05,-0.10,0.92,-0.60,-0.59,0.01,
1.56,-0.06,-0.08,0.90,-0.60,-0.59,0.01,
1.561,-0.06,-0.08,0.90,-0.84,-0.52,-0.51,
1.561,-0.07,-0.08,0.89,-0.84,-0.52,-0.51,
1.563,-0.08,-0.07,0.87,-0.84,-0.52,-0.51,
1.564,-0.08,-0.07,0.87,-1.04,-0.36,-0.96,
1.565,-0.09,-0.06,0.86,-1.04,-0.36,-0.96,
1.568,-0.09,-0.05,0.85,-1.04,-0.36,-0.96,
1.568,-0.09,-0.05,0.85,-1.22,-0.22,-1.26,
1.57,-0.09,-0.04,0.84,-1.22,-0.22,-1.26,
1.573,-0.08,-0.03,0.83,-1.22,-0.22,-1.26,
1.573,-0.08,-0.03,0.83,-1.31,-0.08,-1.48,
1.575,-0.07,-0.03,0.84,-1.31,-0.08,-1.48,
1.577,-0.06,-0.02,0.83,-1.31,-0.08,-1.48,
1.578,-0.06,-0.02,0.83,-1.27,0.09,-1.67,
1.58,-0.04,-0.01,0.84,-1.27,0.09,-1.67,
1.583,-0.02,-0.00,0.86,-1.27,0.09,-1.67,
1.583,-0.02,-0.00,0.86,-1.06,0.22,-1.69,
1.585,0.00,0.00,0.87,-1.06,0.22,-1.69,
1.588,0.00,0.00,0.87,-0.73,0.35,-1.54,
1.588,0.02,0.01,0.88,-0.73,0.35,-1.54,
1.59,0.03,0.01,0.89,-0.73,0.35,-1.54,
1.593,0.05,0.02,0.90,-0.73,0.35,-1.54,
1.594,0.05,0.02,0.90,-0.31,0.48,-1.32,
1.595,0.06,0.02,0.90,-0.31,0.48,-1.32,
1.597,0.07,0.02,0.91,-0.31,0.48,-1.32,
1.598,0.07,0.02,0.91,-0.02,0.52,-1.12,
1.6,0.08,0.02,0.91,-0.02,0.52,-1.12,
1.602,0.08,0.02,0.91,-0.02,0.52,-1.12,
1.603,0.08,0.02,0.91,0.21,0.52,-0.97,
1.604,0.09,0.02,0.92,0.21,0.52,-0.97,
1.608,0.09,0.02,0.92,0.32,0.54,-0.94,
1.609,0.09,0.03,0.92,0.32,0.54,-0.94,
1.609,0.09,0.02,0.92,0.32,0.54,-0.94,
1.612,0.09,0.02,0.91,0.32,0.54,-0.94,
1.612,0.09,0.02,0.91,0.37,0.55,-0.85,
1.614,0.08,0.02,0.91,0.37,0.55,-0.85,
1.617,0.07,0.02,0.90,0.37,0.55,-0.85,
1.617,0.07,0.02,0.90,0.35,0.49,-0.90,
1.619,0.06,0.01,0.89,0.35,0.49,-0.90,
1.622,0.05,0.01,0.88,0.35,0.49,-0.90,
1.622,0.05,0.01,0.88,0.20,0.46,-1.00,
1.624,0.03,0.00,0.87,0.20,0.46,-1.00,
1.627,0.02,0.00,0.87,0.20,0.46,-1.00,
1.627,0.02,0.00,0.87,-0.00,0.31,-1.20,
1.629,0.01,-0.00,0.87,-0.00,0.31,-1.20,
1.632,0.01,-0.00,0.87,-0.31,0.25,-1.31,
1.632,-0.00,-0.01,0.86,-0.31,0.25,-1.31,
1.634,-0.02,-0.01,0.86,-0.31,0.25,-1.31,
1.636,-0.02,-0.01,0.86,-0.31,0.25,-1.31,
1.637,-0.02,-0.01,0.86,-0.54,0.15,-1.37,
1.639,-0.03,-0.01,0.85,-0.54,0.15,-1.37,
1.648,-0.03,-0.02,0.86,-0.54,0.15,-1.37,
1.653,-0.03,-0.02,0.86,-0.78,0.07,-1.41,
1.653,-0.04,-0.02,0.87,-0.78,0.07,-1.41,
1.654,-0.04,-0.01,0.87,-0.78,0.07,-1.41,
1.654,-0.04,-0.01,0.87,-0.90,0.02,-1.44,
1.654,-0.04,-0.02,0.88,-0.90,0.02,-1.44,
1.655,-0.04,-0.02,0.89,-0.90,0.02,-1.44,
1.655,-0.04,-0.02,0.89,-1.03,0.00,-1.29,
1.655,-0.03,-0.02,0.90,-1.03,0.00,-1.29,
1.661,-0.02,-0.02,0.91,-1.03,0.00,-1.29,
1.662,-0.02,-0.02,0.91,-1.05,-0.01,-1.14,
1.662,-0.02,-0.02,0.92,-1.05,-0.01,-1.14,
1.663,-0.01,-0.03,0.92,-1.05,-0.01,-1.14,
1.663,-0.01,-0.03,0.92,-0.95,-0.08,-0.93,
1.664,-0.01,-0.03,0.93,-0.95,-0.08,-0.93,
1.666,0.00,-0.03,0.95,-0.95,-0.08,-0.93,
1.667,0.00,-0.03,0.95,-0.86,-0.11,-0.81,
1.669,0.01,-0.02,0.95,-0.86,-0.11,-0.81,
1.671,0.01,-0.02,0.95,-0.86,-0.11,-0.81,
1.672,0.01,-0.02,0.95,-0.77,-0.12,-0.62,
1.674,0.01,-0.02,0.96,-0.77,-0.12,-0.62,
1.676,0.02,-0.02,0.96,-0.77,-0.12,-0.62,
1.676,0.02,-0.02,0.96,-0.66,-0.06,-0.49,
1.678,0.02,-0.01,0.96,-0.66,-0.06,-0.49,
1.681,0.02,-0.01,0.96,-0.63,-0.03,-0.42,
1.682,0.02,-0.02,0.96,-0.63,-0.03,-0.42,
1.683,0.02,-0.01,0.96,-0.63,-0.03,-0.42,
1.686,0.02,-0.01,0.96,-0.63,-0.03,-0.42,
1.686,0.02,-0.01,0.96,-0.61,0.01,-0.38,
1.688,0.02,-0.01,0.95,-0.61,0.01,-0.38,
1.692,0.02,-0.01,0.95,-0.61,0.01,-0.38,
1.693,0.02,-0.01,0.95,-0.58,0.04,-0.42,
1.696,0.01,-0.01,0.95,-0.58,0.04,-0.42,
1.696,0.02,-0.01,0.95,-0.58,0.04,-0.42,
1.697,0.02,-0.01,0.95,-0.64,0.07,-0.49,
1.698,0.02,-0.00,0.96,-0.64,0.07,-0.49,
1.701,0.03,0.00,0.97,-0.64,0.07,-0.49,
1.702,0.03,0.00,0.97,-0.68,0.09,-0.49,
1.703,0.04,0.00,0.98,-0.68,0.09,-0.49,
1.706,0.04,0.00,0.98,-0.56,0.13,-0.32,
1.706,0.04,0.00,0.99,-0.56,0.13,-0.32,
1.708,0.05,0.00,1.01,-0.56,0.13,-0.32,
1.711,0.05,-0.00,1.03,-0.56,0.13,-0.32,
1.711,0.05,-0.00,1.03,-0.45,0.17,-0.12,
1.713,0.05,-0.01,1.03,-0.45,0.17,-0.12,
1.716,0.05,-0.02,1.03,-0.45,0.17,-0.12,
1.716,0.05,-0.02,1.03,-0.37,0.17,0.17,
1.718,0.04,-0.03,1.03,-0.37,0.17,0.17,
1.721,0.02,-0.04,1.03,-0.37,0.17,0.17,
1.721,0.02,-0.04,1.03,-0.40,0.01,0.31,
1.725,0.01,-0.05,1.02,-0.40,0.01,0.31,
1.726,-0.01,-0.06,1.02,-0.40,0.01,0.31,
1.727,-0.01,-0.06,1.02,-0.62,-0.19,0.28,
1.728,-0.01,-0.07,1.00,-0.62,-0.19,0.28,
1.731,-0.01,-0.07,1.00,-0.91,-0.41,0.20,
1.732,-0.03,-0.07,0.99,-0.91,-0.41,0.20,
1.733,-0.04,-0.07,0.99,-0.91,-0.41,0.20,
1.736,-0.04,-0.08,0.99,-0.91,-0.41,0.20,
1.736,-0.04,-0.08,0.99,-1.15,-0.54,-0.00,
1.738,-0.05,-0.08,0.98,-1.15,-0.54,-0.00,
1.742,-0.05,-0.08,0.98,-1.15,-0.54,-0.00,
1.743,-0.05,-0.08,0.98,-1.36,-0.64,-0.09,
1.744,-0.05,-0.08,0.97,-1.36,-0.64,-0.09,
1.746,-0.04,-0.08,0.97,-1.36,-0.64,-0.09,
1.746,-0.04,-0.08,0.97,-1.45,-0.66,-0.21,
1.748,-0.04,-0.08,0.97,-1.45,-0.66,-0.21,
1.751,-0.03,-0.08,0.97,-1.45,-0.66,-0.21,
1.751,-0.03,-0.08,0.97,-1.45,-0.68,-0.26,
1.753,-0.02,-0.07,0.97,-1.45,-0.68,-0.26,
1.755,-0.02,-0.07,0.97,-1.38,-0.70,-0.29,
1.756,-0.01,-0.07,0.97,-1.38,-0.70,-0.29,
1.758,-0.00,-0.07,0.97,-1.38,-0.70,-0.29,
1.76,0.01,-0.07,0.96,-1.38,-0.70,-0.29,
1.761,0.01,-0.07,0.96,-1.22,-0.68,-0.26,
1.763,0.01,-0.07,0.96,-1.22,-0.68,-0.26,
1.765,0.02,-0.07,0.96,-1.22,-0.68,-0.26,
1.766,0.02,-0.07,0.96,-1.08,-0.69,-0.35,
1.768,0.03,-0.07,0.95,-1.08,-0.69,-0.35,
1.771,0.03,-0.06,0.94,-1.08,-0.69,-0.35,
1.771,0.03,-0.06,0.94,-0.98,-0.71,-0.39,
1.773,0.04,-0.05,0.94,-0.98,-0.71,-0.39,
1.785,0.04,-0.04,0.93,-0.98,-0.71,-0.39,
1.786,0.04,-0.04,0.93,-0.87,-0.66,-0.50,
1.786,0.04,-0.03,0.93,-0.87,-0.66,-0.50,
1.787,0.05,-0.02,0.92,-0.87,-0.66,-0.50,
1.787,0.05,-0.02,0.92,-0.79,-0.50,-0.61,
1.788,0.05,-0.01,0.91,-0.79,-0.50,-0.61,
1.788,0.05,-0.00,0.91,-0.79,-0.50,-0.61,
1.789,0.05,-0.00,0.91,-0.75,-0.31,-0.71,
1.789,0.05,0.01,0.90,-0.75,-0.31,-0.71,
1.801,0.05,0.01,0.89,-0.75,-0.31,-0.71,
1.802,0.05,0.01,0.89,-0.74,-0.17,-0.86,
1.802,0.04,0.02,0.88,-0.74,-0.17,-0.86,
1.802,0.03,0.02,0.88,-0.74,-0.17,-0.86,
1.803,0.03,0.02,0.88,-0.76,-0.04,-0.99,
1.803,0.03,0.02,0.87,-0.76,-0.04,-0.99,
1.803,0.03,0.02,0.87,-0.85,0.06,-1.14,
1.804,0.03,0.03,0.87,-0.85,0.06,-1.14,
1.804,0.03,0.03,0.86,-0.85,0.06,-1.14,
1.805,0.03,0.03,0.86,-0.85,0.06,-1.14,
1.805,0.03,0.03,0.86,-0.93,0.08,-1.24,
1.811,0.02,0.03,0.86,-0.93,0.08,-1.24,
1.811,0.02,0.02,0.86,-0.93,0.08,-1.24,
1.812,0.02,0.02,0.86,-1.00,0.12,-1.30,
1.814,0.02,0.03,0.86,-1.00,0.12,-1.30,
1.815,0.02,0.02,0.87,-1.00,0.12,-1.30,
1.815,0.02,0.02,0.87,-1.01,0.09,-1.28,
1.817,0.01,0.02,0.87,-1.01,0.09,-1.28,
1.821,0.01,0.02,0.87,-1.01,0.09,-1.28,
1.821,0.01,0.02,0.87,-1.09,0.06,-1.26,
1.822,0.01,0.02,0.88,-1.09,0.06,-1.26,
1.825,0.01,0.02,0.88,-1.09,0.06,-1.26,
1.826,0.01,0.02,0.88,-1.16,0.01,-1.18,
1.827,0.01,0.02,0.89,-1.16,0.01,-1.18,
1.83,0.01,0.02,0.89,-1.16,0.01,-1.18,
1.83,0.01,0.02,0.89,-1.20,0.03,-1.09,
1.834,0.01,0.01,0.90,-1.20,0.03,-1.09,
1.835,0.02,0.00,0.90,-1.20,0.03,-1.09,
1.835,0.02,0.00,0.90,-1.15,0.01,-1.01,
1.837,0.02,-0.00,0.90,-1.15,0.01,-1.01,
1.84,0.02,-0.01,0.90,-1.15,0.01,-1.01,
1.84,0.02,-0.01,0.90,-1.09,-0.10,-0.93,
1.843,0.02,-0.01,0.90,-1.09,-0.10,-0.93,
1.845,0.02,-0.02,0.89,-1.09,-0.10,-0.93,
1.845,0.02,-0.02,0.89,-1.06,-0.26,-0.93,
1.847,0.03,-0.02,0.89,-1.06,-0.26,-0.93,
1.85,0.03,-0.02,0.89,-1.06,-0.26,-0.93,
1.85,0.03,-0.02,0.89,-1.03,-0.32,-0.95,
1.852,0.03,-0.02,0.90,-1.03,-0.32,-0.95,
1.855,0.03,-0.02,0.89,-1.03,-0.32,-0.95,
1.855,0.03,-0.02,0.89,-0.99,-0.38,-0.96,
1.857,0.03,-0.02,0.88,-0.99,-0.38,-0.96,
1.86,0.03,-0.02,0.88,-0.99,-0.38,-0.96,
1.86,0.03,-0.02,0.88,-0.97,-0.39,-0.95,
1.863,0.03,-0.03,0.88,-0.97,-0.39,-0.95,
1.865,0.02,-0.02,0.88,-0.97,-0.39,-0.95,
1.865,0.02,-0.02,0.88,-0.94,-0.39,-1.05,
1.867,0.02,-0.02,0.86,-0.94,-0.39,-1.05,
1.87,0.02,-0.02,0.87,-0.94,-0.39,-1.05,
1.871,0.02,-0.02,0.87,-1.01,-0.43,-1.09,
1.873,0.02,-0.02,0.86,-1.01,-0.43,-1.09,
1.874,0.01,-0.01,0.85,-1.01,-0.43,-1.09,
1.875,0.01,-0.01,0.85,-1.07,-0.38,-1.23,
1.882,0.01,-0.01,0.85,-1.07,-0.38,-1.23,
1.882,0.01,-0.01,0.85,-1.12,-0.33,-1.29,
1.883,0.01,-0.00,0.85,-1.12,-0.33,-1.29,
1.883,0.00,-0.00,0.86,-1.12,-0.33,-1.29,
1.884,0.01,0.01,0.86,-1.12,-0.33,-1.29,
1.885,0.01,0.01,0.86,-1.15,-0.24,-1.36,
1.887,0.02,0.01,0.87,-1.15,-0.24,-1.36,
1.889,0.02,0.02,0.88,-1.15,-0.24,-1.36,
1.89,0.02,0.02,0.88,-1.19,-0.15,-1.30,
1.893,0.03,0.02,0.89,-1.19,-0.15,-1.30,
1.895,0.03,0.02,0.89,-1.19,-0.15,-1.30,
1.895,0.03,0.02,0.89,-1.06,-0.03,-1.13,
1.897,0.04,0.02,0.90,-1.06,-0.03,-1.13,
1.9,0.04,0.03,0.90,-1.06,-0.03,-1.13,
1.9,0.04,0.03,0.90,-0.99,0.01,-0.96,
1.902,0.04,0.03,0.91,-0.99,0.01,-0.96,
1.905,0.04,0.03,0.91,-0.88,0.08,-0.85,
1.905,0.05,0.02,0.92,-0.88,0.08,-0.85,
1.907,0.05,0.02,0.93,-0.88,0.08,-0.85,
1.909,0.05,0.02,0.93,-0.88,0.08,-0.85,
1.91,0.05,0.02,0.93,-0.85,0.07,-0.70,
1.912,0.06,0.01,0.93,-0.85,0.07,-0.70,
1.915,0.06,-0.01,0.93,-0.85,0.07,-0.70,
1.915,0.06,-0.01,0.93,-0.79,0.02,-0.56,
1.917,0.07,-0.01,0.94,-0.79,0.02,-0.56,
1.92,0.07,-0.02,0.94,-0.79,0.02,-0.56,
1.92,0.07,-0.02,0.94,-0.71,-0.17,-0.54,
1.922,0.07,-0.03,0.93,-0.71,-0.17,-0.54,
1.927,0.07,-0.04,0.93,-0.71,-0.17,-0.54,
1.927,0.07,-0.04,0.93,-0.62,-0.33,-0.49,
1.928,0.07,-0.03,0.92,-0.62,-0.33,-0.49,
1.93,0.07,-0.03,0.92,-0.61,-0.49,-0.57,
1.931,0.07,-0.04,0.91,-0.61,-0.49,-0.57,
1.932,0.07,-0.04,0.90,-0.61,-0.49,-0.57,
1.935,0.07,-0.03,0.89,-0.61,-0.49,-0.57,
1.935,0.07,-0.03,0.89,-0.62,-0.55,-0.75,
1.936,0.07,-0.03,0.88,-0.62,-0.55,-0.75,
1.94,0.07,-0.03,0.87,-0.62,-0.55,-0.75,
1.94,0.07,-0.03,0.87,-0.64,-0.55,-0.90,
1.943,0.06,-0.02,0.87,-0.64,-0.55,-0.90,
1.945,0.06,-0.02,0.87,-0.64,-0.55,-0.90,
1.945,0.06,-0.02,0.87,-0.66,-0.51,-1.05,
1.946,0.05,-0.02,0.86,-0.66,-0.51,-1.05,
1.949,0.06,-0.02,0.86,-0.66,-0.51,-1.05,
1.949,0.06,-0.02,0.86,-0.75,-0.45,-1.15,
1.951,0.06,-0.01,0.85,-0.75,-0.45,-1.15,
1.954,0.06,-0.01,0.84,-0.75,-0.45,-1.15,
1.954,0.06,-0.01,0.84,-0.82,-0.38,-1.26,
1.956,0.05,-0.01,0.84,-0.82,-0.38,-1.26,
1.96,0.06,-0.01,0.83,-0.82,-0.38,-1.26,
1.961,0.06,-0.01,0.83,-0.81,-0.33,-1.36,
1.961,0.05,-0.01,0.83,-0.81,-0.33,-1.36,
1.963,0.05,-0.01,0.82,-0.81,-0.33,-1.36,
1.964,0.05,-0.01,0.82,-0.83,-0.31,-1.48,
1.966,0.06,-0.00,0.82,-0.83,-0.31,-1.48,
1.968,0.06,0.00,0.83,-0.83,-0.31,-1.48,
1.969,0.06,0.00,0.83,-0.84,-0.31,-1.56,
1.971,0.06,0.00,0.83,-0.84,-0.31,-1.56,
1.975,0.07,0.01,0.83,-0.84,-0.31,-1.56,
1.975,0.07,0.01,0.83,-0.81,-0.23,-1.57,
1.985,0.07,0.00,0.84,-0.81,-0.23,-1.57,
1.985,0.08,0.01,0.85,-0.81,-0.23,-1.57,
1.986,0.08,0.01,0.85,-0.74,-0.19,-1.53,
1.986,0.09,0.01,0.85,-0.74,-0.19,-1.53,
1.987,0.09,0.01,0.86,-0.74,-0.19,-1.53,
1.987,0.09,0.01,0.86,-0.66,-0.16,-1.37,
1.987,0.09,0.01,0.88,-0.66,-0.16,-1.37,
1.988,0.09,0.01,0.88,-0.66,-0.16,-1.37,
1.989,0.09,0.01,0.88,-0.50,-0.08,-1.23,
1.99,0.10,0.01,0.90,-0.50,-0.08,-1.23,
2.001,0.10,0.02,0.91,-0.50,-0.08,-1.23,
2.003,0.10,0.02,0.91,-0.48,-0.09,-1.01,
2.003,0.10,0.02,0.92,-0.48,-0.09,-1.01,
2.003,0.10,0.02,0.94,-0.48,-0.09,-1.01,
2.004,0.10,0.02,0.94,-0.43,-0.05,-0.79,
2.004,0.10,0.01,0.95,-0.43,-0.05,-0.79,
2.004,0.10,0.02,0.96,-0.43,-0.05,-0.79,
2.005,0.10,0.02,0.96,-0.40,-0.00,-0.51,
2.005,0.10,0.01,0.98,-0.40,-0.00,-0.51,
2.01,0.10,0.01,0.99,-0.40,-0.00,-0.51,
2.011,0.10,0.01,0.99,-0.39,-0.00,-0.28,
2.011,0.10,0.01,1.00,-0.39,-0.00,-0.28,
2.013,0.10,0.01,1.00,-0.39,-0.00,-0.28,
2.013,0.10,0.01,1.00,-0.40,0.01,0.02,
2.015,0.11,0.01,1.01,-0.40,0.01,0.02,
2.018,0.10,-0.00,1.02,-0.40,0.01,0.02,
2.018,0.10,-0.00,1.02,-0.40,-0.02,0.19,
2.02,0.10,-0.01,1.03,-0.40,-0.02,0.19,
2.022,0.10,-0.01,1.03,-0.40,-0.02,0.19,
2.023,0.10,-0.01,1.03,-0.41,-0.11,0.35,
2.025,0.10,-0.01,1.03,-0.41,-0.11,0.35,
2.028,0.09,-0.01,1.03,-0.41,-0.11,0.35,
2.028,0.09,-0.01,1.03,-0.43,-0.18,0.48,
2.03,0.09,-0.02,1.02,-0.43,-0.18,0.48,
2.033,0.08,-0.02,1.03,-0.43,-0.18,0.48,
2.033,0.08,-0.02,1.03,-0.52,-0.23,0.45,
2.035,0.09,-0.02,1.01,-0.52,-0.23,0.45,
2.038,0.09,-0.02,1.00,-0.52,-0.23,0.45,
2.039,0.09,-0.02,1.00,-0.59,-0.27,0.41,
2.04,0.09,-0.03,1.00,-0.59,-0.27,0.41,
2.043,0.09,-0.03,0.99,-0.59,-0.27,0.41,
2.043,0.09,-0.03,0.99,-0.55,-0.32,0.25,
2.045,0.09,-0.04,0.98,-0.55,-0.32,0.25,
2.047,0.09,-0.03,0.97,-0.55,-0.32,0.25,
2.048,0.09,-0.03,0.97,-0.57,-0.36,0.12,
2.05,0.08,-0.03,0.95,-0.57,-0.36,0.12,
2.052,0.08,-0.04,0.94,-0.57,-0.36,0.12,
2.053,0.08,-0.04,0.94,-0.58,-0.42,-0.09,
2.055,0.08,-0.04,0.93,-0.58,-0.42,-0.09,
2.057,0.08,-0.03,0.92,-0.58,-0.42,-0.09,
2.058,0.08,-0.03,0.92,-0.62,-0.44,-0.33,
2.061,0.07,-0.03,0.92,-0.62,-0.44,-0.33,
2.063,0.07,-0.02,0.91,-0.62,-0.44,-0.33,
2.063,0.07,-0.02,0.91,-0.62,-0.41,-0.55,
2.065,0.07,-0.02,0.90,-0.62,-0.41,-0.55,
2.068,0.08,-0.01,0.89,-0.62,-0.41,-0.55,
2.069,0.08,-0.01,0.89,-0.67,-0.35,-0.69,
2.07,0.08,-0.01,0.89,-0.67,-0.35,-0.69,
2.072,0.08,-0.01,0.88,-0.67,-0.35,-0.69,
2.073,0.08,-0.01,0.88,-0.64,-0.25,-0.84,
2.075,0.09,-0.00,0.88,-0.64,-0.25,-0.84,
2.078,0.09,-0.00,0.88,-0.59,-0.18,-0.93,
2.079,0.09,0.01,0.88,-0.59,-0.18,-0.93,
2.08,0.09,0.00,0.88,-0.59,-0.18,-0.93,
2.083,0.10,0.00,0.88,-0.59,-0.18,-0.93,
2.083,0.10,0.00,0.88,-0.51,-0.07,-0.96,
2.085,0.10,0.01,0.87,-0.51,-0.07,-0.96,
2.088,0.10,0.01,0.88,-0.51,-0.07,-0.96,
2.088,0.10,0.01,0.88,-0.44,-0.06,-1.00,
2.09,0.10,0.01,0.88,-0.44,-0.06,-1.00,
2.097,0.11,0.01,0.88,-0.44,-0.06,-1.00,
2.098,0.11,0.01,0.88,-0.40,0.02,-1.03,
2.098,0.11,0.02,0.89,-0.40,0.02,-1.03,
2.098,0.12,0.02,0.89,-0.40,0.02,-1.03,
2.099,0.12,0.02,0.89,-0.33,0.03,-0.92,
2.099,0.12,0.02,0.90,-0.33,0.03,-0.92,
2.102,0.12,0.02,0.91,-0.33,0.03,-0.92,
2.103,0.12,0.02,0.91,-0.25,0.09,-0.84,
2.104,0.13,0.02,0.92,-0.25,0.09,-0.84,
2.107,0.12,0.02,0.93,-0.25,0.09,-0.84,
2.107,0.12,0.02,0.93,-0.21,0.09,-0.69,
2.11,0.12,0.02,0.94,-0.21,0.09,-0.69,
2.113,0.13,0.02,0.95,-0.21,0.09,-0.69,
2.114,0.13,0.02,0.95,-0.16,0.10,-0.47,
2.114,0.12,0.02,0.95,-0.16,0.10,-0.47,
2.118,0.12,0.01,0.96,-0.16,0.10,-0.47,
2.118,0.12,0.01,0.96,-0.20,0.09,-0.30,
2.119,0.11,0.01,0.97,-0.20,0.09,-0.30,
2.122,0.10,0.00,0.97,-0.20,0.09,-0.30,
2.122,0.10,0.00,0.97,-0.25,0.05,-0.15,
2.124,0.11,-0.00,0.98,-0.25,0.05,-0.15,
2.127,0.11,-0.00,0.98,-0.36,-0.00,-0.01,
2.127,0.10,-0.01,0.99,-0.36,-0.00,-0.01,
2.129,0.10,-0.02,0.99,-0.36,-0.00,-0.01,
2.132,0.10,-0.02,0.99,-0.36,-0.00,-0.01,
2.133,0.10,-0.02,0.99,-0.40,-0.09,0.10,
2.134,0.10,-0.03,1.00,-0.40,-0.09,0.10,
2.137,0.10,-0.03,1.00,-0.40,-0.09,0.10,
2.139,0.10,-0.03,1.00,-0.41,-0.24,0.18,
2.139,0.10,-0.03,1.00,-0.41,-0.24,0.18,
2.142,0.10,-0.04,1.00,-0.41,-0.24,0.18,
2.142,0.10,-0.04,1.00,-0.40,-0.31,0.23,
2.145,0.10,-0.04,0.99,-0.40,-0.31,0.23,
2.149,0.10,-0.04,0.99,-0.40,-0.31,0.23,
2.149,0.10,-0.04,0.99,-0.41,-0.39,0.22,
2.149,0.10,-0.05,0.99,-0.41,-0.39,0.22,
2.152,0.09,-0.05,0.99,-0.41,-0.39,0.22,
2.152,0.09,-0.05,0.99,-0.45,-0.45,0.18,
2.154,0.09,-0.05,0.99,-0.45,-0.45,0.18,
2.157,0.09,-0.05,0.99,-0.45,-0.45,0.18,
2.157,0.09,-0.05,0.99,-0.46,-0.51,0.16,
2.159,0.09,-0.05,0.99,-0.46,-0.51,0.16,
2.162,0.09,-0.04,0.99,-0.46,-0.51,0.16,
2.162,0.09,-0.04,0.99,-0.50,-0.53,0.14,
2.164,0.09,-0.04,0.99,-0.50,-0.53,0.14,
2.167,0.09,-0.03,0.99,-0.50,-0.53,0.14,
2.167,0.09,-0.03,0.99,-0.57,-0.45,0.16,
2.169,0.09,-0.04,0.99,-0.57,-0.45,0.16,
2.172,0.09,-0.03,0.99,-0.57,-0.45,0.16,
2.172,0.09,-0.03,0.99,-0.55,-0.35,0.19,
2.174,0.10,-0.02,1.00,-0.55,-0.35,0.19,
2.177,0.10,-0.01,1.00,-0.55,-0.35,0.19,
2.177,0.10,-0.01,1.00,-0.52,-0.28,0.17,
2.179,0.11,-0.00,1.00,-0.52,-0.28,0.17,
2.182,0.11,-0.00,1.01,-0.52,-0.28,0.17,
2.182,0.11,-0.00,1.01,-0.46,-0.11,0.21,
2.184,0.12,0.01,1.01,-0.46,-0.11,0.21,
2.187,0.13,0.01,1.01,-0.46,-0.11,0.21,
2.187,0.13,0.01,1.01,-0.32,0.01,0.31,
2.189,0.14,0.02,1.01,-0.32,0.01,0.31,
2.192,0.15,0.03,1.02,-0.32,0.01,0.31,
2.192,0.15,0.03,1.02,-0.21,0.13,0.34,
2.199,0.15,0.03,1.02,-0.21,0.13,0.34,
2.199,0.17,0.03,1.02,-0.21,0.13,0.34,
2.199,0.17,0.03,1.02,-0.03,0.26,0.39,
2.2,0.18,0.03,1.02,-0.03,0.26,0.39,
2.202,0.18,0.03,1.02,0.15,0.35,0.43,
2.202,0.19,0.03,1.02,0.15,0.35,0.43,
2.204,0.19,0.04,1.01,0.15,0.35,0.43,
2.206,0.20,0.03,1.01,0.15,0.35,0.43,
2.206,0.20,0.03,1.01,0.37,0.36,0.39,
2.21,0.21,0.04,1.00,0.37,0.36,0.39,
2.211,0.21,0.03,1.00,0.37,0.36,0.39,
2.212,0.21,0.03,1.00,0.48,0.36,0.31,
2.214,0.21,0.03,0.99,0.48,0.36,0.31,
2.216,0.22,0.03,0.98,0.48,0.36,0.31,
2.217,0.22,0.03,0.98,0.60,0.36,0.22,
2.219,0.22,0.03,0.97,0.60,0.36,0.22,
2.222,0.22,0.04,0.96,0.60,0.36,0.22,
2.222,0.22,0.04,0.96,0.66,0.29,0.07,
2.224,0.22,0.03,0.95,0.66,0.29,0.07,
2.228,0.21,0.03,0.95,0.66,0.29,0.07,
2.229,0.21,0.03,0.95,0.71,0.33,-0.11,
2.229,0.21,0.04,0.94,0.71,0.33,-0.11,
2.231,0.21,0.04,0.94,0.71,0.33,-0.11,
2.231,0.21,0.04,0.94,0.68,0.32,-0.28,
2.234,0.21,0.04,0.93,0.68,0.32,-0.28,
2.236,0.21,0.05,0.92,0.68,0.32,-0.28,
2.236,0.21,0.05,0.92,0.63,0.39,-0.38,
2.24,0.20,0.05,0.93,0.63,0.39,-0.38,
2.241,0.19,0.05,0.93,0.63,0.39,-0.38,
2.241,0.19,0.05,0.93,0.60,0.43,-0.49,
2.244,0.19,0.06,0.93,0.60,0.43,-0.49,
2.246,0.19,0.06,0.94,0.60,0.43,-0.49,
2.246,0.19,0.06,0.94,0.49,0.50,-0.46,
2.248,0.19,0.07,0.95,0.49,0.50,-0.46,
2.251,0.18,0.07,0.96,0.49,0.50,-0.46,
2.251,0.18,0.07,0.96,0.45,0.58,-0.39,
2.253,0.18,0.07,0.97,0.45,0.58,-0.39,
2.256,0.19,0.07,0.98,0.45,0.58,-0.39,
2.256,0.19,0.07,0.98,0.41,0.67,-0.22,
2.258,0.18,0.07,0.99,0.41,0.67,-0.22,
2.261,0.18,0.07,1.00,0.41,0.67,-0.22,
2.261,0.18,0.07,1.00,0.38,0.69,-0.04,
2.263,0.18,0.06,1.01,0.38,0.69,-0.04,
2.266,0.18,0.06,1.01,0.38,0.69,-0.04,
2.266,0.18,0.06,1.01,0.39,0.67,0.15,
2.269,0.18,0.05,1.02,0.39,0.67,0.15,
2.271,0.18,0.05,1.02,0.39,0.67,0.15,
2.272,0.18,0.05,1.02,0.38,0.61,0.31,
2.273,0.18,0.04,1.03,0.38,0.61,0.31,
2.279,0.17,0.03,0.99,0.38,0.61,0.31,
2.279,0.17,0.03,0.99,0.36,0.50,0.43,
2.28,0.17,0.01,0.89,0.36,0.50,0.43,
2.28,0.22,0.04,0.82,0.36,0.50,0.43,
2.28,0.22,0.04,0.82,0.28,0.39,0.31,
2.283,0.25,0.06,0.81,0.28,0.39,0.31,
2.286,0.25,0.05,0.84,0.28,0.39,0.31,
2.286,0.25,0.05,0.84,0.52,0.28,-1.16,
2.288,0.25,0.04,0.88,0.52,0.28,-1.16,
2.29,0.24,0.03,0.91,0.52,0.28,-1.16,
2.29,0.24,0.03,0.91,1.07,0.60,-1.48,
2.292,0.22,0.03,0.94,1.07,0.60,-1.48,
2.297,0.19,0.03,0.96,1.07,0.60,-1.48,
2.298,0.19,0.03,0.96,0.98,0.45,-0.78,
2.298,0.17,0.03,0.97,0.98,0.45,-0.78,
2.305,0.15,0.02,0.97,0.98,0.45,-0.78,
2.305,0.15,0.02,0.97,0.61,0.38,-0.24,
2.308,0.13,0.02,0.97,0.61,0.38,-0.24,
2.308,0.12,0.01,0.98,0.61,0.38,-0.24,
2.31,0.12,0.01,0.98,0.19,0.36,-0.11,
2.31,0.11,0.01,1.00,0.19,0.36,-0.11,
2.311,0.10,-0.00,1.01,0.19,0.36,-0.11,
2.311,0.10,-0.00,1.01,-0.13,0.26,-0.02,
2.313,0.08,-0.01,1.02,-0.13,0.26,-0.02,
2.319,0.06,-0.02,1.04,-0.13,0.26,-0.02,
2.319,0.06,-0.02,1.04,-0.35,0.15,0.25,
2.32,0.05,-0.03,1.05,-0.35,0.15,0.25,
2.32,0.04,-0.03,1.07,-0.35,0.15,0.25,
2.32,0.04,-0.03,1.07,-0.67,-0.01,0.53,
2.322,0.04,-0.03,1.08,-0.67,-0.01,0.53,
2.325,0.04,-0.03,1.09,-0.67,-0.01,0.53,
2.325,0.04,-0.03,1.09,-0.94,-0.11,0.79,
2.334,0.05,-0.04,1.10,-0.94,-0.11,0.79,
2.334,0.05,-0.04,1.11,-0.94,-0.11,0.79,
2.334,0.05,-0.04,1.11,-1.02,-0.16,1.03,
2.335,0.07,-0.04,1.11,-1.02,-0.16,1.03,
2.335,0.12,-0.05,1.12,-1.02,-0.16,1.03,
2.335,0.12,-0.05,1.12,-0.92,-0.21,1.23,
2.337,0.17,-0.06,1.12,-0.92,-0.21,1.23,
2.339,0.17,-0.05,1.11,-0.92,-0.21,1.23,
2.34,0.17,-0.05,1.11,-0.48,-0.24,1.36,
2.342,0.16,-0.03,1.11,-0.48,-0.24,1.36,
2.349,0.15,-0.02,1.09,-0.48,-0.24,1.36,
2.35,0.15,-0.02,1.09,0.22,-0.36,1.37,
2.35,0.14,-0.01,1.08,0.22,-0.36,1.37,
2.35,0.14,0.00,1.07,0.22,-0.36,1.37,
2.35,0.14,0.00,1.07,0.07,-0.10,1.18,
2.352,0.14,0.01,1.05,0.07,-0.10,1.18,
2.355,0.14,0.02,1.04,0.07,-0.10,1.18,
2.355,0.14,0.02,1.04,-0.07,0.09,0.95,
2.357,0.14,0.02,1.03,-0.07,0.09,0.95,
2.359,0.15,0.02,1.01,-0.07,0.09,0.95,
2.36,0.15,0.02,1.01,-0.09,0.24,0.68,
2.365,0.15,0.02,1.00,-0.09,0.24,0.68,
2.365,0.16,0.02,0.99,-0.09,0.24,0.68,
2.365,0.16,0.02,0.99,-0.04,0.28,0.42,
