
time,gFx,gFy,gFz,ax,ay,az,
0.003,-0.06,-0.00,1.00,-0.04,-0.08,0.13,
0.003,-0.06,-0.00,1.00,-0.24,-0.15,0.13,
0.003,-0.06,-0.01,1.00,-0.24,-0.15,0.13,
0.004,-0.07,-0.01,1.00,-0.24,-0.15,0.13,
0.004,-0.07,-0.01,1.00,-0.46,-0.26,0.03,
0.004,-0.07,-0.01,0.99,-0.46,-0.26,0.03,
0.004,-0.08,-0.01,0.99,-0.46,-0.26,0.03,
0.004,-0.08,-0.01,0.99,-0.55,-0.33,0.01,
0.007,-0.08,-0.01,1.00,-0.55,-0.33,0.01,
0.013,-0.08,-0.01,0.99,-0.55,-0.33,0.01,
0.013,-0.08,-0.01,0.99,-0.63,-0.39,-0.04,
0.014,-0.08,-0.01,0.99,-0.63,-0.39,-0.04,
0.014,-0.08,-0.01,0.99,-0.63,-0.39,-0.04,
0.014,-0.08,-0.01,0.99,-0.66,-0.37,-0.03,
0.017,-0.08,-0.01,0.99,-0.66,-0.37,-0.03,
0.028,-0.07,0.00,0.99,-0.66,-0.37,-0.03,
0.028,-0.07,0.00,0.99,-0.65,-0.34,-0.06,
0.028,-0.07,0.00,1.00,-0.65,-0.34,-0.06,
0.029,-0.06,0.00,1.00,-0.65,-0.34,-0.06,
0.029,-0.06,0.00,1.00,-0.62,-0.27,-0.03,
0.029,-0.05,0.00,1.00,-0.62,-0.27,-0.03,
0.029,-0.04,0.01,1.00,-0.62,-0.27,-0.03,
0.029,-0.04,0.01,1.00,-0.50,-0.23,-0.01,
0.032,-0.04,0.01,1.00,-0.50,-0.23,-0.01,
0.034,-0.03,0.02,1.00,-0.50,-0.23,-0.01,
0.034,-0.03,0.02,1.00,-0.34,-0.17,0.01,
0.043,-0.02,0.02,1.01,-0.34,-0.17,0.01,
0.043,-0.01,0.03,1.01,-0.34,-0.17,0.01,
0.044,-0.01,0.03,1.01,-0.20,-0.08,0.04,
0.044,-0.01,0.03,1.01,-0.20,-0.08,0.04,
0.044,0.00,0.03,1.02,-0.20,-0.08,0.04,
0.044,0.00,0.03,1.02,0.01,0.02,0.14,
0.047,0.00,0.04,1.02,0.01,0.02,0.14,
0.049,0.01,0.04,1.02,0.01,0.02,0.14,
0.049,0.01,0.04,1.02,0.14,0.06,0.16,
0.051,0.01,0.04,1.03,0.14,0.06,0.16,
0.063,0.01,0.04,1.03,0.14,0.06,0.16,
0.063,0.01,0.04,1.03,0.23,0.15,0.21,
0.064,0.01,0.04,1.03,0.23,0.15,0.21,
0.064,0.02,0.05,1.04,0.23,0.15,0.21,
0.064,0.02,0.05,1.04,0.28,0.19,0.32,
0.064,0.02,0.05,1.04,0.28,0.19,0.32,
0.064,0.02,0.05,1.03,0.28,0.19,0.32,
0.065,0.02,0.05,1.03,0.30,0.22,0.36,
0.067,0.02,0.05,1.04,0.30,0.22,0.36,
0.068,0.02,0.04,1.04,0.30,0.22,0.36,
0.069,0.02,0.04,1.04,0.35,0.26,0.35,
0.075,0.02,0.04,1.04,0.35,0.26,0.35,
0.076,0.02,0.05,1.05,0.35,0.26,0.35,
0.076,0.02,0.05,1.05,0.33,0.21,0.39,
0.077,0.02,0.04,1.05,0.33,0.21,0.39,
0.079,0.01,0.04,1.04,0.33,0.21,0.39,
0.079,0.01,0.04,1.04,0.34,0.19,0.44,
0.082,0.01,0.03,1.04,0.34,0.19,0.44,
0.084,-0.00,0.03,1.04,0.34,0.19,0.44,
0.084,-0.00,0.03,1.04,0.27,0.12,0.44,
0.095,-0.00,0.04,1.03,0.27,0.12,0.44,
0.096,-0.00,0.03,1.02,0.27,0.12,0.44,
0.096,-0.00,0.03,1.02,0.19,0.06,0.35,
0.096,-0.02,0.02,1.02,0.19,0.06,0.35,
0.097,-0.02,0.02,1.01,0.19,0.06,0.35,
0.097,-0.02,0.02,1.01,0.13,0.06,0.24,
0.097,-0.03,0.02,1.01,0.13,0.06,0.24,
0.099,-0.04,0.02,1.02,0.13,0.06,0.24,
0.099,-0.04,0.02,1.02,-0.05,-0.06,0.16,
0.101,-0.03,0.01,1.00,-0.05,-0.06,0.16,
0.111,-0.04,0.01,1.00,-0.05,-0.06,0.16,
0.112,-0.04,0.01,1.00,-0.17,-0.12,0.13,
0.112,-0.04,0.01,0.99,-0.17,-0.12,0.13,
0.112,-0.04,0.01,0.99,-0.17,-0.12,0.13,
0.113,-0.04,0.01,0.99,-0.22,-0.18,0.00,
0.113,-0.05,0.00,0.97,-0.22,-0.18,0.00,
0.113,-0.05,0.00,0.98,-0.22,-0.18,0.00,
0.113,-0.05,0.00,0.98,-0.28,-0.23,-0.11,
0.116,-0.05,0.00,0.98,-0.28,-0.23,-0.11,
0.127,-0.05,0.00,0.98,-0.28,-0.23,-0.11,
0.128,-0.05,0.00,0.98,-0.31,-0.27,-0.25,
0.128,-0.05,0.00,0.98,-0.31,-0.27,-0.25,
0.128,-0.05,0.00,0.98,-0.31,-0.27,-0.25,
0.128,-0.05,0.00,0.98,-0.35,-0.27,-0.22,
0.129,-0.05,0.00,0.98,-0.35,-0.27,-0.22,
0.129,-0.05,0.00,0.98,-0.35,-0.28,-0.23,
0.129,-0.04,0.00,0.97,-0.35,-0.28,-0.23,
0.131,-0.03,0.01,0.97,-0.35,-0.28,-0.23,
0.133,-0.03,0.01,0.97,-0.35,-0.28,-0.23,
0.133,-0.03,0.01,0.97,-0.29,-0.26,-0.24,
0.135,-0.03,0.01,0.98,-0.29,-0.26,-0.24,
0.141,-0.02,0.01,0.98,-0.29,-0.26,-0.24,
0.141,-0.02,0.01,0.98,-0.16,-0.21,-0.31,
0.142,-0.02,0.02,0.98,-0.16,-0.21,-0.31,
0.144,-0.02,0.02,0.98,-0.10,-0.18,-0.21,
0.144,-0.02,0.03,1.00,-0.10,-0.18,-0.21,
0.146,-0.02,0.03,1.00,-0.10,-0.18,-0.21,
0.148,-0.02,0.03,1.01,-0.10,-0.18,-0.21,
0.149,-0.02,0.03,1.01,-0.06,-0.06,-0.08,
0.151,-0.02,0.04,1.01,-0.06,-0.06,-0.08,
0.157,-0.02,0.04,1.02,-0.06,-0.06,-0.08,
0.158,-0.02,0.04,1.02,-0.09,0.03,0.07,
0.158,-0.01,0.04,1.02,-0.09,0.03,0.07,
0.158,-0.01,0.03,1.02,-0.09,0.03,0.07,
0.161,-0.01,0.03,1.02,-0.06,0.08,0.16,
0.161,-0.00,0.03,1.01,-0.06,0.08,0.16,
0.163,0.00,0.03,1.02,-0.06,0.08,0.16,
0.163,0.00,0.03,1.02,0.03,0.05,0.20,
0.166,-0.00,0.03,1.02,0.03,0.05,0.20,
0.168,0.00,0.02,1.02,0.03,0.05,0.20,
0.168,0.00,0.02,1.02,0.09,0.02,0.14,
0.175,0.00,0.02,1.01,0.09,0.02,0.14,
0.176,0.01,0.03,1.01,0.09,0.02,0.14,
0.176,0.01,0.03,1.01,0.09,-0.04,0.18,
0.176,-0.00,0.02,1.02,0.09,-0.04,0.18,
0.178,-0.00,0.02,1.02,0.14,-0.03,0.11,
0.178,0.00,0.02,1.01,0.14,-0.03,0.11,
0.18,0.00,0.02,1.01,0.14,-0.03,0.11,
0.183,-0.00,0.02,1.02,0.14,-0.03,0.11,
0.183,-0.00,0.02,1.02,0.10,-0.06,0.14,
0.192,-0.01,0.02,1.02,0.10,-0.06,0.14,
0.192,-0.00,0.02,1.02,0.10,-0.06,0.14,
0.193,-0.00,0.02,1.02,0.07,-0.07,0.15,
0.193,-0.00,0.02,1.01,0.07,-0.07,0.15,
0.193,-0.00,0.01,1.01,0.07,-0.07,0.15,
0.193,-0.00,0.01,1.01,0.03,-0.07,0.16,
0.195,-0.00,0.01,1.01,0.03,-0.07,0.16,
0.197,-0.00,0.01,1.01,0.03,-0.07,0.16,
0.198,-0.00,0.01,1.01,0.06,-0.13,0.10,
0.199,-0.00,0.01,1.01,0.06,-0.13,0.10,
0.216,-0.00,0.01,1.01,0.03,-0.16,0.09,
0.217,0.00,0.01,1.00,0.03,-0.16,0.09,
0.218,0.00,0.01,1.01,0.03,-0.16,0.09,
0.218,-0.00,0.02,1.01,0.03,-0.16,0.09,
0.218,-0.00,0.02,1.01,0.07,-0.16,0.05,
0.219,-0.00,0.01,1.01,0.07,-0.16,0.05,
0.219,0.00,0.02,1.02,0.07,-0.16,0.05,
0.219,0.00,0.02,1.02,0.07,-0.15,0.07,
0.219,0.00,0.02,1.02,0.07,-0.15,0.07,
0.219,-0.00,0.02,1.03,0.07,-0.15,0.07,
0.22,-0.00,0.02,1.03,0.07,-0.14,0.14,
0.22,0.00,0.01,1.03,0.07,-0.14,0.14,
0.226,0.00,0.01,1.02,0.07,-0.14,0.14,
0.226,0.00,0.01,1.02,0.06,-0.14,0.24,
0.227,0.00,0.01,1.03,0.06,-0.14,0.24,
0.227,-0.00,0.00,1.03,0.06,-0.14,0.24,
0.227,-0.00,0.00,1.03,0.08,-0.16,0.24,
0.229,-0.01,0.00,1.04,0.08,-0.16,0.24,
0.231,-0.00,0.00,1.03,0.08,-0.16,0.24,
0.232,-0.00,0.00,1.03,0.05,-0.22,0.27,
0.234,0.00,-0.00,1.04,0.05,-0.22,0.27,
0.244,-0.00,-0.00,1.03,0.05,-0.22,0.27,
0.245,-0.00,-0.00,1.03,0.02,-0.27,0.33,
0.245,-0.00,0.01,1.03,0.02,-0.27,0.33,
0.246,0.01,0.01,1.03,0.02,-0.27,0.33,
0.246,0.01,0.01,1.03,0.05,-0.31,0.31,
0.246,0.01,0.01,1.02,0.05,-0.31,0.31,
0.246,0.01,0.01,1.02,0.05,-0.31,0.31,
0.247,0.01,0.01,1.02,0.08,-0.23,0.25,
0.249,0.02,0.02,1.01,0.08,-0.23,0.25,
0.251,0.02,0.02,1.01,0.08,-0.23,0.25,
0.252,0.02,0.02,1.01,0.15,-0.18,0.21,
0.259,0.02,0.02,1.01,0.15,-0.18,0.21,
0.26,0.03,0.03,1.00,0.15,-0.18,0.21,
0.26,0.03,0.03,1.00,0.24,-0.10,0.09,
0.26,0.04,0.03,1.00,0.24,-0.10,0.09,
0.262,0.05,0.03,1.01,0.24,-0.10,0.09,
0.262,0.05,0.03,1.01,0.33,-0.06,0.04,
0.265,0.06,0.03,1.00,0.33,-0.06,0.04,
0.267,0.07,0.03,1.01,0.33,-0.06,0.04,
0.267,0.07,0.03,1.01,0.50,-0.03,0.03,
0.269,0.08,0.04,1.01,0.50,-0.03,0.03,
0.274,0.09,0.04,1.03,0.50,-0.03,0.03,
0.275,0.09,0.04,1.03,0.66,-0.03,0.03,
0.275,0.10,0.05,1.04,0.66,-0.03,0.03,
0.277,0.10,0.05,1.04,0.85,0.07,0.17,
0.277,0.10,0.05,1.05,0.85,0.07,0.17,
0.28,0.11,0.06,1.06,0.85,0.07,0.17,
0.282,0.12,0.06,1.07,0.85,0.07,0.17,
0.282,0.12,0.06,1.07,1.02,0.17,0.40,
0.284,0.13,0.07,1.08,1.02,0.17,0.40,
0.291,0.14,0.07,1.10,1.02,0.17,0.40,
0.291,0.14,0.07,1.10,1.16,0.27,0.63,
0.291,0.14,0.08,1.10,1.16,0.27,0.63,
0.292,0.15,0.08,1.12,1.16,0.27,0.63,
0.292,0.15,0.08,1.12,1.31,0.34,0.84,
0.294,0.15,0.08,1.13,1.31,0.34,0.84,
0.297,0.16,0.09,1.14,1.31,0.34,0.84,
0.297,0.16,0.09,1.14,1.42,0.47,1.03,
0.299,0.16,0.09,1.15,1.42,0.47,1.03,
0.302,0.16,0.09,1.15,1.42,0.47,1.03,
0.302,0.16,0.09,1.15,1.50,0.50,1.25,
0.313,0.16,0.09,1.16,1.50,0.50,1.25,
0.314,0.17,0.09,1.15,1.50,0.50,1.25,
0.314,0.17,0.09,1.15,1.53,0.54,1.39,
0.314,0.17,0.09,1.15,1.53,0.54,1.39,
0.315,0.18,0.09,1.15,1.53,0.54,1.39,
0.315,0.18,0.09,1.15,1.58,0.53,1.41,
0.315,0.18,0.09,1.14,1.58,0.53,1.41,
0.316,0.18,0.09,1.14,1.58,0.53,1.41,
0.316,0.18,0.09,1.14,1.65,0.52,1.40,
0.319,0.19,0.09,1.13,1.65,0.52,1.40,
0.328,0.19,0.09,1.11,1.65,0.52,1.40,
0.328,0.19,0.09,1.11,1.68,0.48,1.26,
0.331,0.18,0.09,1.11,1.68,0.48,1.26,
0.331,0.18,0.09,1.11,1.77,0.53,1.08,
0.332,0.19,0.09,1.10,1.77,0.53,1.08,
0.332,0.19,0.09,1.09,1.77,0.53,1.08,
0.333,0.20,0.09,1.07,1.77,0.53,1.08,
0.333,0.20,0.09,1.07,1.78,0.47,0.88,
0.333,0.20,0.10,1.06,1.78,0.47,0.88,
0.344,0.19,0.10,1.06,1.78,0.47,0.88,
0.345,0.19,0.10,1.06,1.89,0.47,0.66,
0.346,0.19,0.10,1.05,1.89,0.47,0.66,
0.346,0.19,0.10,1.05,1.89,0.47,0.66,
0.346,0.19,0.10,1.05,1.86,0.49,0.46,
0.347,0.19,0.11,1.04,1.86,0.49,0.46,
0.347,0.18,0.11,1.03,1.86,0.49,0.46,
0.347,0.18,0.11,1.03,1.83,0.52,0.36,
0.348,0.18,0.11,1.03,1.83,0.52,0.36,
0.351,0.18,0.11,1.03,1.83,0.52,0.36,
0.351,0.18,0.11,1.03,1.80,0.60,0.19,
0.353,0.18,0.12,1.02,1.80,0.60,0.19,
0.359,0.17,0.12,1.03,1.80,0.60,0.19,
0.36,0.17,0.12,1.03,1.76,0.60,0.16,
0.36,0.17,0.12,1.02,1.76,0.60,0.16,
0.361,0.17,0.12,1.03,1.76,0.60,0.16,
0.361,0.17,0.12,1.03,1.69,0.66,0.12,
0.364,0.17,0.12,1.02,1.69,0.66,0.12,
0.366,0.16,0.12,1.02,1.69,0.66,0.12,
0.366,0.16,0.12,1.02,1.65,0.63,0.11,
0.368,0.16,0.12,1.01,1.65,0.63,0.11,
0.374,0.16,0.12,1.01,1.65,0.63,0.11,
0.375,0.16,0.12,1.01,1.60,0.63,0.06,
0.375,0.16,0.11,1.02,1.60,0.63,0.06,
0.375,0.16,0.11,1.01,1.60,0.63,0.06,
0.375,0.16,0.11,1.01,1.57,0.55,-0.00,
0.378,0.16,0.11,1.01,1.57,0.55,-0.00,
0.381,0.15,0.10,1.01,1.57,0.55,-0.00,
0.381,0.15,0.10,1.01,1.53,0.49,0.00,
0.383,0.15,0.10,1.00,1.53,0.49,0.00,
0.392,0.16,0.10,1.00,1.53,0.49,0.00,
0.393,0.16,0.10,1.00,1.51,0.41,-0.05,
0.393,0.16,0.10,0.99,1.51,0.41,-0.05,
0.393,0.16,0.10,1.00,1.51,0.41,-0.05,
0.393,0.16,0.10,1.00,1.52,0.35,-0.12,
0.394,0.17,0.10,0.99,1.52,0.35,-0.12,
0.396,0.17,0.09,0.99,1.52,0.35,-0.12,
0.396,0.17,0.09,0.99,1.57,0.31,-0.17,
0.398,0.17,0.09,0.99,1.57,0.31,-0.17,
0.4,0.17,0.09,0.99,1.57,0.31,-0.17,
0.4,0.17,0.09,0.99,1.62,0.26,-0.22,
0.409,0.16,0.10,0.99,1.62,0.26,-0.22,
0.409,0.16,0.09,0.99,1.62,0.26,-0.22,
0.409,0.16,0.09,0.99,1.65,0.20,-0.21,
0.41,0.17,0.09,0.99,1.65,0.20,-0.21,
0.41,0.16,0.10,0.99,1.65,0.20,-0.21,
0.41,0.16,0.10,0.99,1.62,0.23,-0.19,
0.413,0.16,0.10,1.00,1.62,0.23,-0.19,
0.416,0.16,0.10,1.00,1.62,0.23,-0.19,
0.416,0.16,0.10,1.00,1.63,0.22,-0.21,
0.418,0.16,0.10,0.99,1.63,0.22,-0.21,
0.43,0.16,0.11,1.00,1.63,0.22,-0.21,
0.43,0.16,0.11,1.00,1.61,0.25,-0.14,
0.431,0.15,0.11,0.99,1.61,0.25,-0.14,
0.431,0.15,0.11,1.00,1.61,0.25,-0.14,
0.431,0.15,0.11,1.00,1.58,0.29,-0.17,
0.431,0.15,0.11,1.00,1.58,0.29,-0.17,
0.432,0.14,0.11,0.99,1.58,0.29,-0.17,
0.432,0.14,0.11,0.99,1.53,0.32,-0.14,
0.433,0.14,0.11,0.99,1.53,0.32,-0.14,
0.436,0.13,0.11,1.00,1.53,0.32,-0.14,
0.436,0.13,0.11,1.00,1.49,0.30,-0.14,
0.445,0.13,0.11,1.00,1.49,0.30,-0.14,
0.446,0.13,0.11,0.99,1.49,0.30,-0.14,
0.446,0.13,0.11,0.99,1.42,0.32,-0.12,
0.446,0.12,0.10,1.00,1.42,0.32,-0.12,
0.446,0.12,0.10,1.00,1.35,0.30,-0.15,
0.446,0.12,0.11,0.99,1.35,0.30,-0.15,
0.447,0.12,0.11,0.99,1.35,0.30,-0.15,
0.45,0.11,0.11,0.98,1.35,0.30,-0.15,
0.45,0.11,0.11,0.98,1.26,0.24,-0.18,
0.453,0.11,0.11,0.97,1.26,0.24,-0.18,
0.464,0.11,0.10,0.97,1.26,0.24,-0.18,
0.466,0.11,0.10,0.97,1.25,0.23,-0.24,
0.466,0.11,0.10,0.97,1.25,0.23,-0.24,
0.466,0.11,0.10,0.96,1.25,0.23,-0.24,
0.467,0.11,0.10,0.96,1.19,0.20,-0.35,
0.467,0.10,0.10,0.95,1.19,0.20,-0.35,
0.467,0.10,0.09,0.95,1.19,0.20,-0.35,
0.468,0.10,0.09,0.95,1.19,0.14,-0.43,
0.468,0.10,0.08,0.95,1.19,0.14,-0.43,
0.469,0.10,0.09,0.95,1.19,0.14,-0.43,
0.478,0.10,0.09,0.95,1.15,0.09,-0.55,
0.478,0.10,0.09,0.94,1.15,0.09,-0.55,
0.479,0.10,0.09,0.94,1.15,0.09,-0.55,
0.479,0.10,0.09,0.94,1.17,0.00,-0.56,
0.479,0.10,0.09,0.94,1.17,0.00,-0.56,
0.479,0.10,0.09,0.93,1.17,0.00,-0.56,
0.48,0.10,0.09,0.93,1.16,0.01,-0.63,
0.481,0.10,0.08,0.93,1.16,0.01,-0.63,
0.484,0.09,0.09,0.94,1.16,0.01,-0.63,
0.485,0.09,0.09,0.94,1.20,-0.01,-0.71,
0.493,0.09,0.09,0.94,1.20,-0.01,-0.71,
0.496,0.10,0.09,0.93,1.20,-0.01,-0.71,
0.497,0.10,0.09,0.93,1.17,-0.04,-0.72,
0.497,0.09,0.09,0.93,1.17,-0.04,-0.72,
0.497,0.09,0.09,0.93,1.17,-0.04,-0.72,
0.497,0.09,0.09,0.93,1.18,-0.02,-0.72,
0.497,0.09,0.09,0.94,1.18,-0.02,-0.72,
0.499,0.08,0.10,0.94,1.18,-0.02,-0.72,
0.5,0.08,0.10,0.94,1.15,-0.00,-0.74,
0.501,0.08,0.10,0.94,1.15,-0.00,-0.74,
0.51,0.08,0.10,0.95,1.15,-0.00,-0.74,
0.511,0.08,0.10,0.95,1.09,0.01,-0.66,
0.511,0.07,0.10,0.95,1.09,0.01,-0.66,
0.511,0.07,0.11,0.96,1.09,0.01,-0.66,
0.512,0.07,0.11,0.96,1.07,0.04,-0.58,
0.513,0.06,0.11,0.96,1.07,0.04,-0.58,
0.514,0.06,0.11,0.96,1.07,0.04,-0.58,
0.515,0.06,0.11,0.96,0.98,0.10,-0.48,
0.516,0.05,0.11,0.96,0.98,0.10,-0.48,
0.52,0.05,0.11,0.96,0.98,0.10,-0.48,
0.52,0.05,0.11,0.96,0.93,0.17,-0.44,
0.528,0.04,0.11,0.97,0.93,0.17,-0.44,
0.529,0.04,0.11,0.97,0.82,0.16,-0.39,
0.529,0.03,0.11,0.97,0.82,0.16,-0.39,
0.529,0.03,0.11,0.97,0.82,0.16,-0.39,
0.529,0.02,0.11,0.97,0.82,0.16,-0.39,
0.53,0.02,0.11,0.97,0.71,0.16,-0.36,
0.531,0.02,0.11,0.96,0.71,0.16,-0.36,
0.533,0.02,0.10,0.96,0.71,0.16,-0.36,
0.534,0.02,0.10,0.96,0.64,0.16,-0.35,
0.537,0.01,0.10,0.95,0.64,0.16,-0.35,
0.547,0.01,0.10,0.95,0.64,0.16,-0.35,
0.548,0.01,0.10,0.95,0.57,0.10,-0.40,
0.548,0.01,0.09,0.95,0.57,0.10,-0.40,
0.548,-0.00,0.09,0.94,0.57,0.10,-0.40,
0.549,-0.00,0.09,0.94,0.52,0.03,-0.51,
0.549,-0.00,0.08,0.93,0.52,0.03,-0.51,
0.549,-0.01,0.07,0.93,0.52,0.03,-0.51,
0.549,-0.01,0.07,0.93,0.47,-0.06,-0.59,
0.551,-0.02,0.07,0.93,0.47,-0.06,-0.59,
0.561,-0.02,0.06,0.92,0.47,-0.06,-0.59,
0.562,-0.02,0.06,0.92,0.40,-0.20,-0.68,
0.562,-0.03,0.06,0.92,0.40,-0.20,-0.68,
0.562,-0.03,0.06,0.92,0.40,-0.20,-0.68,
0.563,-0.03,0.06,0.92,0.26,-0.33,-0.74,
0.563,-0.03,0.05,0.91,0.26,-0.33,-0.74,
0.564,-0.03,0.05,0.90,0.26,-0.33,-0.74,
0.564,-0.03,0.05,0.90,0.23,-0.42,-0.78,
0.566,-0.03,0.04,0.90,0.23,-0.42,-0.78,
0.569,-0.03,0.04,0.89,0.23,-0.42,-0.78,
0.569,-0.03,0.04,0.89,0.21,-0.49,-0.95,
0.58,-0.03,0.04,0.88,0.21,-0.49,-0.95,
0.58,-0.03,0.04,0.88,0.21,-0.49,-0.95,
0.581,-0.03,0.04,0.88,0.24,-0.56,-1.05,
0.581,-0.03,0.05,0.87,0.24,-0.56,-1.05,
0.581,-0.04,0.05,0.87,0.24,-0.56,-1.05,
0.581,-0.04,0.05,0.87,0.26,-0.62,-1.18,
0.582,-0.04,0.05,0.87,0.26,-0.62,-1.18,
0.584,-0.04,0.06,0.87,0.26,-0.62,-1.18,
0.584,-0.04,0.06,0.87,0.21,-0.54,-1.21,
0.586,-0.04,0.06,0.87,0.21,-0.54,-1.21,
0.593,-0.04,0.05,0.86,0.21,-0.54,-1.21,
0.594,-0.04,0.05,0.86,0.16,-0.50,-1.21,
0.594,-0.04,0.05,0.85,0.16,-0.50,-1.21,
0.594,-0.04,0.05,0.84,0.16,-0.50,-1.21,
0.595,-0.04,0.05,0.84,0.20,-0.51,-1.30,
0.595,-0.04,0.05,0.84,0.20,-0.51,-1.30,
0.598,-0.04,0.05,0.82,0.20,-0.51,-1.30,
0.598,-0.04,0.05,0.82,0.20,-0.61,-1.44,
0.6,-0.05,0.05,0.82,0.20,-0.61,-1.44,
0.603,-0.06,0.05,0.81,0.20,-0.61,-1.44,
0.603,-0.06,0.05,0.81,0.18,-0.64,-1.58,
0.609,-0.06,0.04,0.80,0.18,-0.64,-1.58,
0.61,-0.06,0.05,0.79,0.18,-0.64,-1.58,
0.61,-0.06,0.05,0.79,0.08,-0.67,-1.73,
0.61,-0.07,0.05,0.78,0.08,-0.67,-1.73,
0.613,-0.07,0.05,0.78,0.08,-0.67,-1.73,
0.613,-0.07,0.05,0.78,0.03,-0.66,-1.89,
0.615,-0.08,0.05,0.77,0.03,-0.66,-1.89,
0.618,-0.08,0.05,0.76,0.03,-0.66,-1.89,
0.618,-0.08,0.05,0.76,-0.08,-0.70,-2.02,
0.627,-0.09,0.05,0.76,-0.08,-0.70,-2.02,
0.628,-0.09,0.05,0.76,-0.14,-0.69,-2.16,
0.628,-0.09,0.05,0.75,-0.14,-0.69,-2.16,
0.628,-0.09,0.06,0.75,-0.14,-0.69,-2.16,
0.628,-0.09,0.06,0.74,-0.14,-0.69,-2.16,
0.628,-0.09,0.06,0.74,-0.21,-0.74,-2.26,
0.63,-0.09,0.06,0.74,-0.21,-0.74,-2.26,
0.632,-0.09,0.06,0.74,-0.21,-0.74,-2.26,
0.633,-0.09,0.06,0.74,-0.23,-0.67,-2.32,
0.635,-0.09,0.06,0.73,-0.23,-0.67,-2.32,
0.647,-0.08,0.07,0.74,-0.23,-0.67,-2.32,
0.648,-0.08,0.07,0.74,-0.18,-0.65,-2.40,
0.648,-0.08,0.07,0.74,-0.18,-0.65,-2.40,
0.649,-0.08,0.07,0.73,-0.18,-0.65,-2.40,
0.649,-0.08,0.07,0.73,-0.18,-0.62,-2.40,
0.649,-0.08,0.07,0.73,-0.18,-0.62,-2.40,
0.649,-0.08,0.07,0.74,-0.18,-0.62,-2.40,
0.65,-0.08,0.07,0.74,-0.14,-0.61,-2.41,
0.651,-0.08,0.08,0.74,-0.14,-0.61,-2.41,
0.652,-0.08,0.07,0.74,-0.14,-0.61,-2.41,
0.654,-0.08,0.07,0.74,-0.16,-0.60,-2.36,
0.655,-0.07,0.08,0.74,-0.16,-0.60,-2.36,
0.663,-0.07,0.08,0.74,-0.16,-0.60,-2.36,
0.664,-0.07,0.08,0.74,-0.12,-0.57,-2.33,
0.665,-0.07,0.08,0.74,-0.12,-0.57,-2.33,
0.665,-0.07,0.08,0.75,-0.12,-0.57,-2.33,
0.665,-0.07,0.08,0.75,-0.08,-0.53,-2.31,
0.666,-0.07,0.08,0.75,-0.08,-0.53,-2.31,
0.667,-0.06,0.08,0.75,-0.08,-0.53,-2.31,
0.668,-0.06,0.08,0.75,-0.04,-0.52,-2.24,
0.67,-0.06,0.08,0.75,-0.04,-0.52,-2.24,
0.679,-0.06,0.08,0.76,-0.04,-0.52,-2.24,
0.679,-0.06,0.08,0.76,0.00,-0.51,-2.20,
0.68,-0.06,0.07,0.76,0.00,-0.51,-2.20,
0.68,-0.06,0.08,0.76,0.00,-0.51,-2.20,
0.68,-0.06,0.08,0.76,0.02,-0.54,-2.15,
0.68,-0.06,0.08,0.76,0.02,-0.54,-2.15,
0.683,-0.05,0.07,0.77,0.02,-0.54,-2.15,
0.683,-0.05,0.07,0.77,0.03,-0.52,-2.11,
0.685,-0.05,0.07,0.77,0.03,-0.52,-2.11,
0.688,-0.05,0.07,0.77,0.03,-0.52,-2.11,
0.688,-0.05,0.07,0.77,0.08,-0.49,-2.06,
0.694,-0.05,0.06,0.77,0.08,-0.49,-2.06,
0.694,-0.04,0.06,0.78,0.08,-0.49,-2.06,
0.695,-0.04,0.06,0.78,0.12,-0.54,-2.00,
0.695,-0.04,0.06,0.77,0.12,-0.54,-2.00,
0.698,-0.03,0.07,0.78,0.12,-0.54,-2.00,
0.698,-0.03,0.07,0.78,0.16,-0.59,-1.94,
0.7,-0.03,0.07,0.79,0.16,-0.59,-1.94,
0.702,-0.03,0.06,0.79,0.16,-0.59,-1.94,
0.702,-0.03,0.06,0.79,0.24,-0.55,-1.89,
0.71,-0.03,0.07,0.80,0.24,-0.55,-1.89,
0.71,-0.03,0.07,0.81,0.24,-0.55,-1.89,
0.71,-0.03,0.07,0.81,0.29,-0.51,-1.76,
0.711,-0.03,0.07,0.81,0.29,-0.51,-1.76,
0.713,-0.03,0.07,0.82,0.29,-0.51,-1.76,
0.713,-0.03,0.07,0.82,0.33,-0.44,-1.65,
0.715,-0.03,0.07,0.82,0.33,-0.44,-1.65,
0.717,-0.03,0.08,0.83,0.33,-0.44,-1.65,
0.718,-0.03,0.08,0.83,0.34,-0.40,-1.52,
0.72,-0.04,0.08,0.83,0.34,-0.40,-1.52,
0.727,-0.04,0.08,0.83,0.34,-0.35,-1.45,
0.728,-0.04,0.08,0.83,0.34,-0.35,-1.45,
0.728,-0.05,0.08,0.84,0.34,-0.35,-1.45,
0.728,-0.05,0.08,0.84,0.34,-0.35,-1.45,
0.729,-0.05,0.08,0.84,0.23,-0.27,-1.32,
0.729,-0.05,0.07,0.84,0.23,-0.27,-1.32,
0.733,-0.05,0.07,0.84,0.23,-0.27,-1.32,
0.733,-0.05,0.07,0.84,0.16,-0.25,-1.27,
0.735,-0.05,0.07,0.84,0.16,-0.25,-1.27,
0.737,-0.05,0.07,0.85,0.16,-0.25,-1.27,
0.738,-0.05,0.07,0.85,0.13,-0.29,-1.24,
0.743,-0.05,0.06,0.85,0.13,-0.29,-1.24,
0.743,-0.05,0.05,0.85,0.13,-0.29,-1.24,
0.744,-0.05,0.05,0.85,0.10,-0.32,-1.20,
0.744,-0.05,0.05,0.84,0.10,-0.32,-1.20,
0.747,-0.05,0.05,0.84,0.11,-0.39,-1.19,
0.747,-0.06,0.05,0.85,0.11,-0.39,-1.19,
0.75,-0.06,0.04,0.84,0.11,-0.39,-1.19,
0.752,-0.06,0.05,0.84,0.11,-0.39,-1.19,
0.752,-0.06,0.05,0.84,0.09,-0.46,-1.20,
0.754,-0.06,0.05,0.84,0.09,-0.46,-1.20,
0.765,-0.06,0.04,0.84,0.09,-0.46,-1.20,
0.766,-0.06,0.04,0.84,0.01,-0.48,-1.25,
0.766,-0.06,0.04,0.83,0.01,-0.48,-1.25,
0.767,-0.06,0.04,0.83,0.01,-0.48,-1.25,
0.767,-0.06,0.04,0.83,0.03,-0.48,-1.27,
0.767,-0.06,0.03,0.83,0.03,-0.48,-1.27,
0.767,-0.07,0.03,0.82,0.03,-0.48,-1.27,
0.767,-0.07,0.03,0.82,-0.03,-0.52,-1.34,
0.769,-0.07,0.03,0.82,-0.03,-0.52,-1.34,
0.771,-0.07,0.02,0.82,-0.03,-0.52,-1.34,
0.772,-0.07,0.02,0.82,-0.08,-0.54,-1.39,
0.779,-0.07,0.02,0.81,-0.08,-0.54,-1.39,
0.779,-0.07,0.01,0.80,-0.08,-0.54,-1.39,
0.78,-0.07,0.01,0.80,-0.12,-0.60,-1.45,
0.78,-0.08,0.01,0.80,-0.12,-0.60,-1.45,
0.782,-0.08,0.01,0.80,-0.12,-0.60,-1.45,
0.782,-0.08,0.01,0.80,-0.19,-0.68,-1.57,
0.785,-0.09,0.01,0.80,-0.19,-0.68,-1.57,
0.787,-0.10,0.00,0.80,-0.19,-0.68,-1.57,
0.787,-0.10,0.00,0.80,-0.28,-0.73,-1.58,
0.797,-0.10,0.00,0.79,-0.28,-0.73,-1.58,
0.798,-0.11,-0.00,0.80,-0.28,-0.73,-1.58,
0.798,-0.11,-0.00,0.80,-0.43,-0.77,-1.61,
0.798,-0.11,-0.00,0.80,-0.43,-0.77,-1.61,
0.798,-0.11,-0.00,0.80,-0.58,-0.81,-1.65,
0.799,-0.12,-0.01,0.79,-0.58,-0.81,-1.65,
0.799,-0.12,-0.01,0.79,-0.58,-0.81,-1.65,
0.801,-0.12,-0.02,0.79,-0.58,-0.81,-1.65,
0.802,-0.12,-0.02,0.79,-0.71,-0.87,-1.65,
0.803,-0.13,-0.02,0.79,-0.71,-0.87,-1.65,
0.812,-0.13,-0.02,0.80,-0.71,-0.87,-1.65,
0.812,-0.13,-0.02,0.80,-0.78,-0.92,-1.68,
0.813,-0.14,-0.02,0.79,-0.78,-0.92,-1.68,
0.813,-0.14,-0.03,0.80,-0.78,-0.92,-1.68,
0.813,-0.14,-0.03,0.80,-0.88,-0.95,-1.65,
0.813,-0.14,-0.03,0.80,-0.88,-0.95,-1.65,
0.816,-0.14,-0.04,0.80,-0.88,-0.95,-1.65,
0.816,-0.14,-0.04,0.80,-1.02,-0.98,-1.64,
0.819,-0.14,-0.05,0.79,-1.02,-0.98,-1.64,
0.821,-0.14,-0.05,0.79,-1.02,-0.98,-1.64,
0.821,-0.14,-0.05,0.79,-1.02,-1.08,-1.60,
0.827,-0.14,-0.05,0.80,-1.02,-1.08,-1.60,
0.828,-0.14,-0.06,0.79,-1.02,-1.08,-1.60,
0.828,-0.14,-0.06,0.79,-1.06,-1.18,-1.66,
0.828,-0.15,-0.06,0.79,-1.06,-1.18,-1.66,
0.831,-0.15,-0.06,0.80,-1.06,-1.18,-1.66,
0.831,-0.15,-0.06,0.80,-1.12,-1.21,-1.62,
0.833,-0.15,-0.06,0.79,-1.12,-1.21,-1.62,
0.835,-0.16,-0.06,0.80,-1.12,-1.21,-1.62,
0.836,-0.16,-0.06,0.80,-1.23,-1.28,-1.62,
0.843,-0.17,-0.06,0.80,-1.23,-1.28,-1.62,
0.844,-0.18,-0.07,0.79,-1.23,-1.28,-1.62,
0.844,-0.18,-0.07,0.79,-1.35,-1.29,-1.64,
0.844,-0.18,-0.07,0.79,-1.35,-1.29,-1.64,
0.845,-0.19,-0.07,0.79,-1.35,-1.29,-1.64,
0.846,-0.19,-0.07,0.79,-1.52,-1.28,-1.62,
0.848,-0.19,-0.07,0.80,-1.52,-1.28,-1.62,
0.85,-0.19,-0.08,0.80,-1.52,-1.28,-1.62,
0.851,-0.19,-0.08,0.80,-1.63,-1.31,-1.63,
0.853,-0.20,-0.08,0.80,-1.63,-1.31,-1.63,
0.866,-0.20,-0.08,0.79,-1.63,-1.31,-1.63,
0.867,-0.20,-0.08,0.79,-1.75,-1.35,-1.57,
0.867,-0.20,-0.09,0.80,-1.75,-1.35,-1.57,
0.867,-0.20,-0.10,0.80,-1.75,-1.35,-1.57,
0.868,-0.20,-0.10,0.80,-1.84,-1.42,-1.59,
0.868,-0.20,-0.10,0.81,-1.84,-1.42,-1.59,
0.868,-0.20,-0.10,0.80,-1.84,-1.42,-1.59,
0.868,-0.20,-0.10,0.80,-1.90,-1.49,-1.55,
0.869,-0.19,-0.10,0.81,-1.90,-1.49,-1.55,
0.871,-0.19,-0.11,0.82,-1.90,-1.49,-1.55,
0.871,-0.19,-0.11,0.82,-1.95,-1.53,-1.49,
0.879,-0.18,-0.10,0.82,-1.95,-1.53,-1.49,
0.88,-0.18,-0.11,0.83,-1.95,-1.53,-1.49,
0.88,-0.18,-0.11,0.83,-1.86,-1.57,-1.35,
0.88,-0.17,-0.11,0.83,-1.86,-1.57,-1.35,
0.88,-0.17,-0.11,0.85,-1.86,-1.57,-1.35,
0.881,-0.17,-0.11,0.85,-1.84,-1.56,-1.28,
0.882,-0.16,-0.11,0.85,-1.84,-1.56,-1.28,
0.885,-0.16,-0.10,0.85,-1.84,-1.56,-1.28,
0.885,-0.16,-0.10,0.85,-1.76,-1.57,-1.14,
0.887,-0.16,-0.10,0.87,-1.76,-1.57,-1.14,
0.897,-0.16,-0.10,0.88,-1.76,-1.57,-1.14,
0.898,-0.16,-0.10,0.88,-1.72,-1.52,-1.02,
0.898,-0.16,-0.10,0.88,-1.72,-1.52,-1.02,
0.898,-0.15,-0.10,0.90,-1.72,-1.52,-1.02,
0.898,-0.15,-0.10,0.90,-1.72,-1.45,-0.82,
0.899,-0.15,-0.09,0.91,-1.72,-1.45,-0.82,
0.9,-0.15,-0.10,0.91,-1.72,-1.45,-0.82,
0.9,-0.15,-0.10,0.91,-1.72,-1.38,-0.65,
0.902,-0.14,-0.09,0.92,-1.72,-1.38,-0.65,
0.911,-0.14,-0.09,0.93,-1.72,-1.38,-0.65,
0.912,-0.14,-0.09,0.93,-1.66,-1.33,-0.44,
0.912,-0.13,-0.09,0.94,-1.66,-1.33,-0.44,
0.913,-0.13,-0.09,0.95,-1.66,-1.33,-0.44,
0.913,-0.13,-0.09,0.95,-1.62,-1.27,-0.26,
0.913,-0.13,-0.09,0.95,-1.62,-1.27,-0.26,
0.915,-0.12,-0.09,0.95,-1.62,-1.27,-0.26,
0.915,-0.12,-0.09,0.95,-1.57,-1.22,-0.08,
0.917,-0.12,-0.09,0.97,-1.57,-1.22,-0.08,
0.92,-0.12,-0.09,0.97,-1.57,-1.22,-0.08,
0.92,-0.12,-0.09,0.97,-1.54,-1.16,-0.01,
0.926,-0.11,-0.10,0.97,-1.54,-1.16,-0.01,
0.927,-0.11,-0.10,0.97,-1.54,-1.16,-0.01,
0.927,-0.11,-0.10,0.97,-1.51,-1.17,0.12,
0.927,-0.10,-0.10,0.97,-1.51,-1.17,0.12,
0.93,-0.11,-0.11,0.98,-1.51,-1.17,0.12,
0.93,-0.11,-0.11,0.98,-1.46,-1.20,0.16,
0.932,-0.11,-0.11,0.98,-1.46,-1.20,0.16,
0.935,-0.11,-0.11,0.98,-1.46,-1.20,0.16,
0.936,-0.11,-0.11,0.98,-1.40,-1.19,0.22,
0.937,-0.11,-0.11,1.00,-1.40,-1.19,0.22,
0.944,-0.12,-0.12,1.00,-1.40,-1.19,0.22,
0.944,-0.12,-0.12,1.00,-1.49,-1.18,0.26,
0.944,-0.12,-0.12,1.00,-1.49,-1.18,0.26,
0.945,-0.12,-0.12,1.00,-1.53,-1.20,0.44,
0.945,-0.12,-0.13,1.00,-1.53,-1.20,0.44,
0.947,-0.12,-0.14,1.00,-1.53,-1.20,0.44,
0.949,-0.11,-0.14,1.00,-1.53,-1.20,0.44,
0.95,-0.11,-0.14,1.00,-1.60,-1.22,0.44,
0.952,-0.11,-0.15,1.00,-1.60,-1.22,0.44,
0.954,-0.12,-0.16,1.00,-1.60,-1.22,0.44,
0.954,-0.12,-0.16,1.00,-1.57,-1.36,0.45,
0.961,-0.12,-0.17,0.99,-1.57,-1.36,0.45,
0.962,-0.11,-0.17,0.98,-1.57,-1.36,0.45,
0.962,-0.11,-0.17,0.98,-1.61,-1.48,0.42,
0.962,-0.11,-0.18,0.98,-1.61,-1.48,0.42,
0.964,-0.12,-0.18,0.98,-1.61,-1.48,0.42,
0.964,-0.12,-0.18,0.98,-1.63,-1.59,0.31,
0.966,-0.12,-0.19,0.98,-1.63,-1.59,0.31,
0.969,-0.12,-0.18,0.97,-1.63,-1.59,0.31,
0.969,-0.12,-0.18,0.97,-1.64,-1.65,0.25,
0.986,-0.12,-0.18,0.98,-1.64,-1.65,0.25,
0.987,-0.13,-0.18,0.98,-1.64,-1.65,0.25,
0.987,-0.13,-0.18,0.98,-1.69,-1.63,0.20,
0.987,-0.13,-0.18,0.98,-1.69,-1.63,0.20,
0.987,-0.14,-0.18,0.98,-1.69,-1.63,0.20,
0.988,-0.14,-0.18,0.98,-1.76,-1.60,0.22,
0.988,-0.14,-0.18,0.98,-1.76,-1.60,0.22,
0.991,-0.15,-0.18,0.98,-1.76,-1.60,0.22,
0.991,-0.15,-0.18,0.98,-1.90,-1.57,0.22,
0.991,-0.16,-0.18,0.98,-1.90,-1.57,0.22,
0.992,-0.16,-0.18,0.98,-1.90,-1.57,0.22,
0.992,-0.16,-0.18,0.98,-2.03,-1.53,0.24,
0.992,-0.17,-0.18,1.00,-2.03,-1.53,0.24,
0.999,-0.17,-0.18,1.00,-2.20,-1.47,0.28,
1.0,-0.17,-0.17,1.01,-2.20,-1.47,0.28,
1.0,-0.17,-0.17,1.01,-2.20,-1.47,0.28,
1.0,-0.16,-0.18,1.01,-2.20,-1.47,0.28,
1.001,-0.16,-0.18,1.01,-2.31,-1.38,0.46,
1.002,-0.16,-0.18,1.01,-2.31,-1.38,0.46,
1.004,-0.15,-0.18,1.01,-2.31,-1.38,0.46,
1.004,-0.15,-0.18,1.01,-2.29,-1.36,0.55,
1.013,-0.15,-0.18,1.02,-2.29,-1.36,0.55,
1.013,-0.14,-0.18,1.02,-2.29,-1.36,0.55,
1.014,-0.14,-0.18,1.02,-2.17,-1.38,0.58,
1.014,-0.13,-0.18,1.03,-2.17,-1.38,0.58,
1.014,-0.12,-0.17,1.03,-2.17,-1.38,0.58,
1.014,-0.12,-0.17,1.03,-2.09,-1.36,0.63,
1.017,-0.12,-0.18,1.04,-2.09,-1.36,0.63,
1.019,-0.10,-0.18,1.05,-2.09,-1.36,0.63,
1.019,-0.10,-0.18,1.05,-1.95,-1.30,0.76,
1.021,-0.10,-0.18,1.05,-1.95,-1.30,0.76,
1.027,-0.10,-0.19,1.06,-1.95,-1.30,0.76,
1.027,-0.10,-0.19,1.06,-1.82,-1.30,0.86,
1.028,-0.10,-0.19,1.06,-1.82,-1.30,0.86,
1.029,-0.10,-0.19,1.06,-1.76,-1.31,1.00,
1.029,-0.10,-0.19,1.06,-1.76,-1.31,1.00,
1.032,-0.09,-0.19,1.06,-1.76,-1.31,1.00,
1.034,-0.09,-0.20,1.07,-1.76,-1.31,1.00,
1.034,-0.09,-0.20,1.07,-1.76,-1.33,1.05,
1.036,-0.10,-0.20,1.07,-1.76,-1.33,1.05,
1.044,-0.10,-0.20,1.09,-1.76,-1.33,1.05,
1.045,-0.10,-0.20,1.09,-1.75,-1.36,1.06,
1.045,-0.10,-0.20,1.09,-1.75,-1.36,1.06,
1.045,-0.10,-0.20,1.09,-1.82,-1.35,1.21,
1.045,-0.11,-0.20,1.11,-1.82,-1.35,1.21,
1.046,-0.11,-0.20,1.13,-1.82,-1.35,1.21,
1.049,-0.11,-0.21,1.14,-1.82,-1.35,1.21,
1.049,-0.11,-0.21,1.14,-1.92,-1.34,1.47,
1.051,-0.12,-0.21,1.16,-1.92,-1.34,1.47,
1.054,-0.12,-0.22,1.17,-1.92,-1.34,1.47,
1.054,-0.12,-0.22,1.17,-2.04,-1.34,1.77,
1.062,-0.12,-0.22,1.18,-2.04,-1.34,1.77,
1.062,-0.11,-0.22,1.18,-2.04,-1.34,1.77,
1.063,-0.11,-0.22,1.18,-2.13,-1.39,2.05,
1.063,-0.11,-0.23,1.19,-2.13,-1.39,2.05,
1.063,-0.11,-0.24,1.19,-2.13,-1.39,2.05,
1.063,-0.11,-0.24,1.19,-2.18,-1.45,2.25,
1.066,-0.11,-0.24,1.20,-2.18,-1.45,2.25,
1.07,-0.11,-0.24,1.20,-2.17,-1.51,2.32,
1.07,-0.10,-0.25,1.20,-2.17,-1.51,2.32,
1.071,-0.10,-0.25,1.20,-2.17,-1.51,2.32,
1.077,-0.11,-0.25,1.20,-2.17,-1.51,2.32,
1.078,-0.11,-0.25,1.20,-2.16,-1.58,2.41,
1.078,-0.11,-0.25,1.20,-2.16,-1.58,2.41,
1.078,-0.11,-0.26,1.20,-2.16,-1.58,2.41,
1.079,-0.11,-0.26,1.20,-2.20,-1.63,2.44,
1.082,-0.11,-0.26,1.20,-2.20,-1.63,2.44,
1.084,-0.12,-0.26,1.19,-2.20,-1.63,2.44,
1.084,-0.12,-0.26,1.19,-2.25,-1.63,2.40,
1.086,-0.12,-0.25,1.19,-2.25,-1.63,2.40,
1.089,-0.12,-0.26,1.18,-2.25,-1.63,2.40,
1.089,-0.12,-0.26,1.18,-2.33,-1.64,2.38,
1.098,-0.13,-0.25,1.17,-2.33,-1.64,2.38,
1.099,-0.14,-0.26,1.17,-2.33,-1.64,2.38,
1.099,-0.14,-0.26,1.17,-2.45,-1.60,2.29,
1.1,-0.14,-0.25,1.16,-2.45,-1.60,2.29,
1.1,-0.14,-0.26,1.16,-2.45,-1.60,2.29,
1.1,-0.14,-0.26,1.16,-2.57,-1.58,2.13,
1.1,-0.15,-0.26,1.16,-2.57,-1.58,2.13,
1.104,-0.15,-0.26,1.15,-2.57,-1.58,2.13,
1.104,-0.15,-0.26,1.15,-2.65,-1.57,2.03,
1.106,-0.15,-0.26,1.15,-2.65,-1.57,2.03,
1.113,-0.14,-0.26,1.15,-2.65,-1.57,2.03,
1.113,-0.14,-0.26,1.15,-2.71,-1.57,1.99,
1.114,-0.14,-0.26,1.14,-2.71,-1.57,1.99,
1.114,-0.14,-0.26,1.14,-2.68,-1.56,1.92,
1.114,-0.13,-0.27,1.13,-2.68,-1.56,1.92,
1.116,-0.13,-0.27,1.12,-2.68,-1.56,1.92,
1.118,-0.13,-0.27,1.12,-2.61,-1.61,1.75,
1.118,-0.13,-0.26,1.11,-2.61,-1.61,1.75,
1.121,-0.13,-0.26,1.11,-2.61,-1.61,1.75,
1.123,-0.12,-0.26,1.10,-2.61,-1.61,1.75,
1.123,-0.12,-0.26,1.10,-2.54,-1.59,1.60,
1.131,-0.13,-0.25,1.09,-2.54,-1.59,1.60,
1.131,-0.13,-0.25,1.09,-2.54,-1.59,1.60,
1.132,-0.13,-0.25,1.09,-2.48,-1.52,1.42,
1.132,-0.13,-0.25,1.08,-2.48,-1.52,1.42,
1.133,-0.13,-0.24,1.07,-2.48,-1.52,1.42,
1.133,-0.13,-0.24,1.07,-2.49,-1.42,1.32,
1.136,-0.13,-0.24,1.07,-2.49,-1.42,1.32,
1.139,-0.13,-0.23,1.06,-2.49,-1.42,1.32,
1.139,-0.13,-0.23,1.06,-2.53,-1.31,1.20,
1.147,-0.13,-0.23,1.06,-2.53,-1.31,1.20,
1.148,-0.13,-0.23,1.06,-2.56,-1.23,1.06,
1.148,-0.13,-0.24,1.04,-2.56,-1.23,1.06,
1.149,-0.13,-0.24,1.04,-2.56,-1.23,1.06,
1.149,-0.13,-0.24,1.04,-2.56,-1.23,1.06,
1.151,-0.13,-0.24,1.04,-2.56,-1.18,0.93,
1.152,-0.13,-0.25,1.05,-2.56,-1.18,0.93,
1.153,-0.12,-0.25,1.05,-2.56,-1.18,0.93,
1.153,-0.12,-0.25,1.05,-2.55,-1.20,0.87,
1.155,-0.12,-0.26,1.05,-2.55,-1.20,0.87,
1.162,-0.12,-0.27,1.05,-2.55,-1.20,0.87,
1.163,-0.12,-0.27,1.05,-2.52,-1.28,0.90,
1.163,-0.12,-0.28,1.06,-2.52,-1.28,0.90,
1.164,-0.13,-0.30,1.06,-2.52,-1.28,0.90,
1.164,-0.13,-0.30,1.06,-2.54,-1.38,0.91,
1.165,-0.12,-0.31,1.07,-2.54,-1.38,0.91,
1.168,-0.12,-0.31,1.07,-2.57,-1.62,1.02,
1.169,-0.12,-0.33,1.08,-2.57,-1.62,1.02,
1.17,-0.12,-0.33,1.08,-2.57,-1.62,1.02,
1.174,-0.12,-0.34,1.10,-2.57,-1.62,1.02,
1.174,-0.12,-0.34,1.10,-2.57,-1.87,1.19,
1.18,-0.11,-0.33,1.11,-2.57,-1.87,1.19,
1.181,-0.11,-0.33,1.13,-2.57,-1.87,1.19,
1.181,-0.11,-0.33,1.13,-2.56,-1.99,1.35,
1.181,-0.11,-0.32,1.15,-2.56,-1.99,1.35,
1.182,-0.11,-0.31,1.17,-2.56,-1.99,1.35,
1.182,-0.11,-0.31,1.17,-2.54,-1.89,1.67,
1.184,-0.11,-0.31,1.18,-2.54,-1.89,1.67,
1.188,-0.11,-0.31,1.20,-2.54,-1.89,1.67,
1.189,-0.11,-0.31,1.20,-2.57,-1.73,2.04,
1.19,-0.10,-0.31,1.21,-2.57,-1.73,2.04,
1.201,-0.09,-0.31,1.22,-2.57,-1.73,2.04,
1.202,-0.09,-0.31,1.22,-2.54,-1.63,2.36,
1.202,-0.08,-0.31,1.23,-2.54,-1.63,2.36,
1.202,-0.08,-0.32,1.24,-2.54,-1.63,2.36,
1.203,-0.08,-0.32,1.24,-2.43,-1.59,2.59,
1.203,-0.06,-0.31,1.24,-2.43,-1.59,2.59,
1.203,-0.06,-0.32,1.25,-2.43,-1.59,2.59,
1.203,-0.06,-0.32,1.25,-2.33,-1.56,2.80,
1.206,-0.05,-0.31,1.25,-2.33,-1.56,2.80,
1.207,-0.04,-0.31,1.24,-2.33,-1.56,2.80,
1.207,-0.04,-0.31,1.24,-2.17,-1.55,2.86,
1.216,-0.04,-0.31,1.23,-2.17,-1.55,2.86,
1.217,-0.04,-0.31,1.23,-2.17,-1.55,2.86,
1.217,-0.04,-0.31,1.23,-2.05,-1.49,2.89,
1.217,-0.03,-0.31,1.22,-2.05,-1.49,2.89,
1.218,-0.03,-0.31,1.20,-2.05,-1.49,2.89,
1.218,-0.03,-0.31,1.20,-1.94,-1.42,2.73,
1.22,-0.03,-0.31,1.19,-1.94,-1.42,2.73,
1.222,-0.03,-0.33,1.18,-1.94,-1.42,2.73,
1.223,-0.03,-0.33,1.18,-1.89,-1.40,2.54,
1.233,-0.03,-0.33,1.17,-1.89,-1.40,2.54,
1.234,-0.03,-0.33,1.16,-1.89,-1.40,2.54,
1.234,-0.03,-0.33,1.16,-1.85,-1.45,2.28,
1.234,-0.02,-0.33,1.16,-1.85,-1.45,2.28,
1.234,-0.02,-0.34,1.15,-1.85,-1.45,2.28,
1.234,-0.02,-0.34,1.15,-1.83,-1.53,2.06,
1.235,-0.02,-0.34,1.15,-1.83,-1.53,2.06,
1.236,-0.01,-0.34,1.15,-1.83,-1.53,2.06,
1.237,-0.01,-0.34,1.15,-1.72,-1.56,1.95,
1.248,-0.01,-0.33,1.16,-1.72,-1.56,1.95,
1.249,-0.01,-0.33,1.16,-1.65,-1.53,1.94,
1.249,0.00,-0.33,1.16,-1.65,-1.53,1.94,
1.249,0.01,-0.32,1.16,-1.65,-1.53,1.94,
1.249,0.02,-0.31,1.17,-1.65,-1.53,1.94,
1.25,0.02,-0.31,1.17,-1.52,-1.44,2.01,
1.25,0.02,-0.30,1.18,-1.52,-1.44,2.01,
1.251,0.03,-0.30,1.19,-1.52,-1.44,2.01,
1.251,0.03,-0.30,1.19,-1.35,-1.27,2.10,
1.254,0.04,-0.29,1.20,-1.35,-1.27,2.10,
1.264,0.05,-0.29,1.21,-1.35,-1.27,2.10,
1.264,0.05,-0.29,1.21,-1.29,-1.12,2.28,
1.264,0.06,-0.29,1.22,-1.29,-1.12,2.28,
1.265,0.06,-0.28,1.23,-1.29,-1.12,2.28,
1.265,0.06,-0.28,1.23,-1.10,-1.02,2.45,
1.265,0.07,-0.28,1.23,-1.10,-1.02,2.45,
1.266,0.07,-0.28,1.24,-1.10,-1.02,2.45,
1.266,0.07,-0.28,1.24,-1.00,-0.93,2.67,
1.269,0.08,-0.28,1.24,-1.00,-0.93,2.67,
1.272,0.09,-0.27,1.25,-1.00,-0.93,2.67,
1.273,0.09,-0.27,1.25,-0.88,-0.87,2.76,
1.279,0.09,-0.27,1.25,-0.88,-0.87,2.76,
1.28,0.09,-0.27,1.25,-0.88,-0.87,2.76,
1.28,0.09,-0.27,1.25,-0.80,-0.82,2.86,
1.28,0.09,-0.26,1.24,-0.80,-0.82,2.86,
1.282,0.09,-0.26,1.24,-0.80,-0.82,2.86,
1.282,0.09,-0.26,1.24,-0.73,-0.74,2.89,
1.283,0.09,-0.25,1.23,-0.73,-0.74,2.89,
1.287,0.09,-0.25,1.22,-0.73,-0.74,2.89,
1.288,0.09,-0.25,1.22,-0.71,-0.67,2.80,
1.288,0.10,-0.25,1.21,-0.71,-0.67,2.80,
1.295,0.09,-0.25,1.21,-0.71,-0.67,2.80,
1.296,0.09,-0.25,1.21,-0.73,-0.57,2.64,
1.296,0.09,-0.25,1.19,-0.73,-0.57,2.64,
1.296,0.09,-0.25,1.19,-0.73,-0.57,2.64,
1.297,0.09,-0.25,1.19,-0.69,-0.54,2.48,
1.298,0.09,-0.25,1.18,-0.69,-0.54,2.48,
1.301,0.10,-0.25,1.17,-0.69,-0.54,2.48,
1.301,0.10,-0.25,1.17,-0.70,-0.52,2.30,
1.303,0.10,-0.25,1.16,-0.70,-0.52,2.30,
1.306,0.09,-0.25,1.15,-0.70,-0.52,2.30,
1.306,0.09,-0.25,1.15,-0.65,-0.53,2.12,
1.319,0.09,-0.25,1.15,-0.65,-0.53,2.12,
1.32,0.09,-0.25,1.14,-0.65,-0.53,2.12,
1.32,0.09,-0.25,1.14,-0.65,-0.50,1.94,
1.323,0.09,-0.26,1.13,-0.65,-0.50,1.94,
1.324,0.09,-0.26,1.12,-0.65,-0.50,1.94,
1.326,0.09,-0.26,1.12,-0.69,-0.52,1.83,
1.326,0.10,-0.27,1.12,-0.69,-0.52,1.83,
1.326,0.10,-0.27,1.12,-0.69,-0.52,1.83,
1.327,0.10,-0.27,1.12,-0.65,-0.55,1.65,
1.327,0.10,-0.28,1.12,-0.65,-0.55,1.65,
1.327,0.11,-0.28,1.11,-0.65,-0.55,1.65,
1.327,0.11,-0.28,1.11,-0.57,-0.66,1.55,
1.334,0.11,-0.28,1.11,-0.57,-0.66,1.55,
1.334,0.12,-0.28,1.11,-0.57,-0.66,1.55,
1.335,0.12,-0.28,1.11,-0.50,-0.69,1.51,
1.335,0.13,-0.29,1.11,-0.50,-0.69,1.51,
1.336,0.13,-0.28,1.12,-0.50,-0.69,1.51,
1.336,0.13,-0.28,1.12,-0.36,-0.73,1.46,
1.338,0.14,-0.28,1.12,-0.36,-0.73,1.46,
1.347,0.14,-0.27,1.14,-0.36,-0.73,1.46,
1.348,0.14,-0.27,1.14,-0.25,-0.75,1.54,
1.349,0.15,-0.26,1.15,-0.25,-0.75,1.54,
1.349,0.16,-0.25,1.15,-0.25,-0.75,1.54,
1.349,0.16,-0.25,1.15,-0.14,-0.62,1.65,
1.349,0.16,-0.25,1.17,-0.14,-0.62,1.65,
1.351,0.17,-0.24,1.17,-0.14,-0.62,1.65,
1.353,0.17,-0.24,1.17,-0.02,-0.49,1.86,
1.353,0.17,-0.23,1.18,-0.02,-0.49,1.86,
1.356,0.18,-0.22,1.19,-0.02,-0.49,1.86,
1.356,0.18,-0.22,1.19,0.08,-0.32,2.05,
1.364,0.18,-0.21,1.20,0.08,-0.32,2.05,
1.365,0.18,-0.20,1.21,0.08,-0.32,2.05,
1.365,0.18,-0.20,1.21,0.18,-0.11,2.20,
1.366,0.19,-0.20,1.21,0.18,-0.11,2.20,
1.366,0.20,-0.20,1.22,0.18,-0.11,2.20,
1.367,0.20,-0.20,1.22,0.27,0.05,2.39,
1.368,0.20,-0.19,1.22,0.27,0.05,2.39,
1.371,0.21,-0.18,1.22,0.27,0.05,2.39,
1.371,0.21,-0.18,1.22,0.38,0.13,2.47,
1.373,0.20,-0.18,1.22,0.38,0.13,2.47,
1.379,0.21,-0.18,1.22,0.38,0.13,2.47,
1.38,0.21,-0.18,1.22,0.51,0.24,2.47,
1.38,0.22,-0.18,1.21,0.51,0.24,2.47,
1.38,0.21,-0.18,1.20,0.51,0.24,2.47,
1.38,0.21,-0.18,1.20,0.52,0.29,2.51,
1.383,0.22,-0.19,1.20,0.52,0.29,2.51,
1.386,0.21,-0.19,1.19,0.52,0.29,2.51,
1.386,0.21,-0.19,1.19,0.61,0.31,2.35,
1.388,0.21,-0.19,1.18,0.61,0.31,2.35,
1.391,0.20,-0.20,1.17,0.61,0.31,2.35,
1.391,0.20,-0.20,1.17,0.62,0.26,2.22,
1.397,0.20,-0.20,1.16,0.62,0.26,2.22,
1.398,0.20,-0.21,1.15,0.62,0.26,2.22,
1.398,0.20,-0.21,1.15,0.58,0.17,2.04,
1.398,0.19,-0.22,1.14,0.58,0.17,2.04,
1.401,0.19,-0.22,1.14,0.54,0.09,1.83,
1.401,0.19,-0.22,1.12,0.54,0.09,1.83,
1.403,0.19,-0.23,1.11,0.54,0.09,1.83,
1.405,0.18,-0.24,1.10,0.54,0.09,1.83,
1.406,0.18,-0.24,1.10,0.51,-0.03,1.59,
1.408,0.18,-0.25,1.09,0.51,-0.03,1.59,
1.419,0.17,-0.25,1.08,0.51,-0.03,1.59,
1.419,0.17,-0.25,1.08,0.46,-0.18,1.36,
1.42,0.16,-0.26,1.07,0.46,-0.18,1.36,
1.42,0.15,-0.26,1.07,0.46,-0.18,1.36,
1.42,0.15,-0.26,1.07,0.37,-0.33,1.12,
1.42,0.15,-0.27,1.06,0.37,-0.33,1.12,
1.42,0.14,-0.27,1.05,0.37,-0.33,1.12,
1.421,0.14,-0.27,1.05,0.26,-0.44,0.97,
1.423,0.14,-0.28,1.05,0.26,-0.44,0.97,
1.432,0.13,-0.28,1.05,0.26,-0.44,0.97,
1.432,0.13,-0.28,1.05,0.17,-0.54,0.80,
1.432,0.13,-0.28,1.05,0.17,-0.54,0.80,
1.433,0.13,-0.28,1.05,0.12,-0.63,0.75,
1.433,0.12,-0.28,1.05,0.12,-0.63,0.75,
1.433,0.13,-0.28,1.04,0.12,-0.63,0.75,
1.435,0.12,-0.29,1.05,0.12,-0.63,0.75,
1.435,0.12,-0.29,1.05,0.03,-0.65,0.73,
1.438,0.12,-0.28,1.05,0.03,-0.65,0.73,
1.44,0.12,-0.27,1.06,0.03,-0.65,0.73,
1.44,0.12,-0.27,1.06,0.06,-0.66,0.70,
1.449,0.12,-0.27,1.06,0.06,-0.66,0.70,
1.45,0.12,-0.27,1.06,0.06,-0.66,0.70,
1.45,0.12,-0.27,1.06,0.02,-0.60,0.83,
1.45,0.12,-0.27,1.07,0.02,-0.60,0.83,
1.45,0.12,-0.26,1.08,0.02,-0.60,0.83,
1.451,0.12,-0.26,1.08,0.02,-0.50,0.87,
1.453,0.12,-0.26,1.08,0.02,-0.50,0.87,
1.455,0.13,-0.26,1.09,0.02,-0.50,0.87,
1.455,0.13,-0.26,1.09,0.04,-0.48,0.99,
1.457,0.13,-0.26,1.10,0.04,-0.48,0.99,
1.465,0.14,-0.26,1.11,0.04,-0.48,0.99,
1.465,0.14,-0.26,1.11,0.12,-0.45,1.12,
1.466,0.14,-0.26,1.11,0.12,-0.45,1.12,
1.466,0.15,-0.27,1.12,0.12,-0.45,1.12,
1.466,0.15,-0.27,1.12,0.20,-0.47,1.24,
1.467,0.15,-0.26,1.12,0.20,-0.47,1.24,
1.469,0.15,-0.27,1.12,0.20,-0.47,1.24,
1.469,0.15,-0.27,1.12,0.30,-0.49,1.36,
1.471,0.15,-0.27,1.13,0.30,-0.49,1.36,
1.481,0.16,-0.26,1.12,0.30,-0.49,1.36,
1.481,0.16,-0.26,1.12,0.38,-0.48,1.39,
1.482,0.15,-0.27,1.12,0.38,-0.48,1.39,
1.484,0.15,-0.27,1.12,0.38,-0.48,1.39,
1.484,0.15,-0.27,1.12,0.45,-0.51,1.45,
1.484,0.15,-0.28,1.11,0.45,-0.51,1.45,
1.485,0.15,-0.28,1.11,0.45,-0.51,1.45,
1.485,0.15,-0.28,1.11,0.43,-0.54,1.38,
1.486,0.15,-0.29,1.10,0.43,-0.54,1.38,
1.489,0.15,-0.30,1.09,0.43,-0.54,1.38,
1.49,0.15,-0.30,1.09,0.40,-0.66,1.28,
1.498,0.14,-0.31,1.07,0.40,-0.66,1.28,
1.499,0.15,-0.32,1.06,0.40,-0.66,1.28,
1.499,0.15,-0.32,1.06,0.44,-0.82,1.13,
1.499,0.14,-0.33,1.06,0.44,-0.82,1.13,
1.5,0.14,-0.34,1.05,0.44,-0.82,1.13,
1.5,0.14,-0.34,1.05,0.44,-1.00,0.84,
1.502,0.13,-0.36,1.04,0.44,-1.00,0.84,
1.505,0.14,-0.36,1.03,0.44,-1.00,0.84,
1.505,0.14,-0.36,1.03,0.41,-1.18,0.71,
1.506,0.14,-0.37,1.03,0.41,-1.18,0.71,
1.514,0.14,-0.38,1.03,0.41,-1.18,0.71,
1.515,0.14,-0.38,1.03,0.42,-1.43,0.53,
1.515,0.14,-0.38,1.03,0.42,-1.43,0.53,
1.515,0.14,-0.38,1.03,0.47,-1.57,0.47,
1.515,0.14,-0.37,1.03,0.47,-1.57,0.47,
1.516,0.13,-0.37,1.03,0.47,-1.57,0.47,
1.519,0.14,-0.37,1.04,0.47,-1.57,0.47,
1.52,0.14,-0.37,1.04,0.49,-1.59,0.43,
1.521,0.14,-0.36,1.04,0.49,-1.59,0.43,
1.54,0.14,-0.35,1.05,0.49,-1.59,0.43,
1.541,0.14,-0.35,1.05,0.49,-1.52,0.50,
1.542,0.15,-0.34,1.06,0.49,-1.52,0.50,
1.542,0.16,-0.33,1.07,0.49,-1.52,0.50,
1.542,0.16,-0.33,1.07,0.56,-1.40,0.63,
1.544,0.17,-0.32,1.09,0.56,-1.40,0.63,
1.544,0.17,-0.31,1.09,0.56,-1.40,0.63,
1.545,0.17,-0.31,1.09,0.66,-1.23,0.80,
1.545,0.19,-0.30,1.10,0.66,-1.23,0.80,
1.545,0.20,-0.29,1.10,0.66,-1.23,0.80,
1.545,0.20,-0.29,1.10,0.82,-1.03,1.02,
1.546,0.21,-0.28,1.11,0.82,-1.03,1.02,
1.546,0.22,-0.27,1.11,0.82,-1.03,1.02,
1.546,0.22,-0.27,1.11,1.03,-0.86,1.14,
1.546,0.23,-0.26,1.12,1.03,-0.86,1.14,
1.549,0.24,-0.25,1.12,1.03,-0.86,1.14,
1.55,0.24,-0.25,1.12,1.27,-0.66,1.26,
1.551,0.25,-0.25,1.12,1.27,-0.66,1.26,
1.554,0.26,-0.24,1.11,1.27,-0.66,1.26,
1.554,0.26,-0.24,1.11,1.45,-0.50,1.30,
1.557,0.26,-0.23,1.12,1.45,-0.50,1.30,
1.561,0.27,-0.22,1.12,1.45,-0.50,1.30,
1.562,0.27,-0.22,1.12,1.64,-0.38,1.28,
1.562,0.27,-0.22,1.11,1.64,-0.38,1.28,
1.563,0.27,-0.21,1.11,1.64,-0.38,1.28,
1.563,0.27,-0.21,1.11,1.75,-0.22,1.27,
1.566,0.28,-0.20,1.09,1.75,-0.22,1.27,
1.568,0.28,-0.21,1.09,1.75,-0.22,1.27,
1.568,0.28,-0.21,1.09,1.83,-0.13,1.21,
1.571,0.27,-0.21,1.09,1.83,-0.13,1.21,
1.574,0.27,-0.20,1.08,1.83,-0.13,1.21,
1.574,0.27,-0.20,1.08,1.88,-0.04,1.02,
1.579,0.27,-0.20,1.07,1.88,-0.04,1.02,
1.579,0.26,-0.20,1.07,1.88,-0.04,1.02,
1.58,0.26,-0.20,1.07,1.87,-0.04,0.95,
1.581,0.26,-0.21,1.05,1.87,-0.04,0.95,
1.584,0.26,-0.21,1.04,1.87,-0.04,0.95,
1.584,0.26,-0.21,1.04,1.84,-0.03,0.77,
1.585,0.26,-0.21,1.03,1.84,-0.03,0.77,
1.588,0.25,-0.22,1.03,1.84,-0.03,0.77,
1.588,0.25,-0.22,1.03,1.82,-0.09,0.54,
1.59,0.24,-0.23,1.01,1.82,-0.09,0.54,
1.594,0.24,-0.24,1.01,1.82,-0.09,0.54,
1.595,0.24,-0.24,1.01,1.77,-0.21,0.37,
1.595,0.24,-0.25,1.00,1.77,-0.21,0.37,
1.598,0.24,-0.25,0.99,1.77,-0.21,0.37,
1.598,0.24,-0.25,0.99,1.70,-0.38,0.18,
1.6,0.23,-0.26,0.99,1.70,-0.38,0.18,
1.603,0.23,-0.26,0.98,1.70,-0.38,0.18,
1.603,0.23,-0.26,0.98,1.69,-0.51,0.03,
1.605,0.22,-0.26,0.98,1.69,-0.51,0.03,
1.613,0.22,-0.27,0.97,1.69,-0.51,0.03,
1.613,0.22,-0.27,0.97,1.64,-0.60,-0.07,
1.614,0.22,-0.27,0.98,1.64,-0.60,-0.07,
1.614,0.22,-0.27,0.98,1.64,-0.60,-0.07,
1.614,0.22,-0.27,0.98,1.60,-0.69,-0.15,
1.616,0.22,-0.27,0.97,1.60,-0.69,-0.15,
1.617,0.22,-0.26,0.97,1.60,-0.69,-0.15,
1.618,0.22,-0.26,0.97,1.56,-0.70,-0.16,
1.62,0.22,-0.26,0.98,1.56,-0.70,-0.16,
1.623,0.22,-0.26,0.98,1.56,-0.70,-0.16,
1.623,0.22,-0.26,0.98,1.56,-0.69,-0.19,
1.626,0.22,-0.26,0.99,1.56,-0.69,-0.19,
1.629,0.22,-0.25,1.00,1.56,-0.69,-0.19,
1.629,0.22,-0.25,1.00,1.58,-0.63,-0.16,
1.63,0.22,-0.24,1.01,1.58,-0.63,-0.16,
1.632,0.22,-0.23,1.01,1.58,-0.63,-0.16,
1.633,0.22,-0.23,1.01,1.61,-0.57,0.04,
1.635,0.22,-0.23,1.02,1.61,-0.57,0.04,
1.638,0.23,-0.22,1.02,1.61,-0.57,0.04,
1.638,0.23,-0.22,1.02,1.62,-0.43,0.18,
1.64,0.22,-0.21,1.04,1.62,-0.43,0.18,
1.643,0.23,-0.21,1.04,1.62,-0.43,0.18,
1.648,0.23,-0.21,1.04,1.64,-0.32,0.29,
1.648,0.23,-0.20,1.04,1.64,-0.32,0.29,
1.649,0.23,-0.20,1.04,1.64,-0.32,0.29,
1.649,0.23,-0.20,1.04,1.63,-0.18,0.44,
1.65,0.24,-0.20,1.05,1.63,-0.18,0.44,
1.653,0.24,-0.20,1.04,1.63,-0.18,0.44,
1.653,0.24,-0.20,1.04,1.71,-0.11,0.49,
1.655,0.24,-0.20,1.05,1.71,-0.11,0.49,
1.657,0.23,-0.20,1.05,1.71,-0.11,0.49,
1.658,0.23,-0.20,1.05,1.77,-0.07,0.51,
1.66,0.23,-0.20,1.04,1.77,-0.07,0.51,
1.662,0.23,-0.20,1.03,1.77,-0.07,0.51,
1.663,0.23,-0.20,1.03,1.74,-0.06,0.53,
1.665,0.23,-0.21,1.02,1.74,-0.06,0.53,
1.667,0.24,-0.21,1.02,1.74,-0.06,0.53,
1.668,0.24,-0.21,1.02,1.73,-0.08,0.39,
1.67,0.23,-0.22,1.01,1.73,-0.08,0.39,
1.673,0.24,-0.23,1.00,1.73,-0.08,0.39,
1.673,0.24,-0.23,1.00,1.75,-0.21,0.27,
1.675,0.23,-0.23,1.00,1.75,-0.21,0.27,
1.677,0.23,-0.24,0.99,1.75,-0.21,0.27,
1.678,0.23,-0.24,0.99,1.79,-0.35,0.11,
1.679,0.23,-0.24,0.99,1.79,-0.35,0.11,
1.683,0.23,-0.25,0.99,1.79,-0.35,0.11,
1.683,0.23,-0.25,0.99,1.76,-0.47,0.01,
1.685,0.23,-0.26,0.99,1.76,-0.47,0.01,
1.688,0.23,-0.26,0.98,1.76,-0.47,0.01,
1.688,0.23,-0.26,0.98,1.73,-0.62,-0.03,
1.69,0.23,-0.27,0.99,1.73,-0.62,-0.03,
1.694,0.23,-0.27,0.98,1.73,-0.62,-0.03,
1.695,0.23,-0.27,0.98,1.74,-0.76,-0.13,
1.695,0.22,-0.27,0.99,1.74,-0.76,-0.13,
1.697,0.22,-0.28,0.99,1.74,-0.76,-0.13,
1.698,0.22,-0.28,0.99,1.74,-0.83,-0.12,
1.7,0.22,-0.28,0.99,1.74,-0.83,-0.12,
1.703,0.22,-0.29,0.99,1.74,-0.83,-0.12,
1.703,0.22,-0.29,0.99,1.68,-0.89,-0.07,
1.705,0.22,-0.29,1.00,1.68,-0.89,-0.07,
1.707,0.23,-0.29,1.00,1.68,-0.89,-0.07,
1.708,0.23,-0.29,1.00,1.66,-0.97,-0.03,
1.709,0.24,-0.30,1.00,1.66,-0.97,-0.03,
1.712,0.25,-0.29,1.01,1.66,-0.97,-0.03,
1.712,0.25,-0.29,1.01,1.75,-1.02,0.05,
1.715,0.25,-0.29,1.02,1.75,-1.02,0.05,
1.717,0.26,-0.28,1.02,1.75,-1.02,0.05,
1.718,0.26,-0.28,1.02,1.90,-1.05,0.06,
1.72,0.26,-0.28,1.03,1.90,-1.05,0.06,
1.722,0.26,-0.27,1.03,1.90,-1.05,0.06,
1.723,0.26,-0.27,1.03,1.99,-0.97,0.22,
1.725,0.25,-0.26,1.04,1.99,-0.97,0.22,
1.73,0.26,-0.25,1.05,1.99,-0.97,0.22,
1.731,0.26,-0.25,1.05,2.01,-0.88,0.34,
1.731,0.26,-0.24,1.05,2.01,-0.88,0.34,
1.732,0.26,-0.24,1.05,2.01,-0.88,0.34,
1.732,0.26,-0.24,1.05,2.00,-0.70,0.48,
1.734,0.27,-0.23,1.06,2.00,-0.70,0.48,
1.737,0.27,-0.23,1.06,2.06,-0.57,0.53,
1.737,0.28,-0.23,1.06,2.06,-0.57,0.53,
1.74,0.29,-0.22,1.07,2.06,-0.57,0.53,
1.742,0.30,-0.21,1.07,2.06,-0.57,0.53,
1.742,0.30,-0.21,1.07,2.18,-0.47,0.63,
1.744,0.30,-0.22,1.09,2.18,-0.47,0.63,
1.746,0.30,-0.22,1.09,2.34,-0.33,0.71,
1.747,0.31,-0.21,1.09,2.34,-0.33,0.71,
1.749,0.32,-0.21,1.09,2.34,-0.33,0.71,
1.752,0.32,-0.21,1.09,2.44,-0.34,0.86,
1.752,0.33,-0.20,1.09,2.44,-0.34,0.86,
1.754,0.33,-0.19,1.09,2.44,-0.34,0.86,
1.757,0.34,-0.20,1.10,2.44,-0.34,0.86,
1.757,0.34,-0.20,1.10,2.61,-0.23,0.93,
1.761,0.35,-0.19,1.10,2.61,-0.23,0.93,
1.762,0.35,-0.19,1.10,2.74,-0.16,0.95,
1.762,0.36,-0.19,1.11,2.74,-0.16,0.95,
1.764,0.37,-0.19,1.11,2.74,-0.16,0.95,
1.767,0.37,-0.19,1.11,2.74,-0.16,0.95,
1.767,0.37,-0.19,1.11,2.94,-0.13,1.04,
1.769,0.38,-0.18,1.12,2.94,-0.13,1.04,
1.772,0.39,-0.18,1.12,2.94,-0.13,1.04,
1.772,0.39,-0.18,1.12,3.03,-0.11,1.10,
1.774,0.39,-0.18,1.12,3.03,-0.11,1.10,
1.777,0.39,-0.18,1.13,3.03,-0.11,1.10,
1.778,0.39,-0.18,1.13,3.15,-0.03,1.17,
1.779,0.40,-0.18,1.13,3.15,-0.03,1.17,
1.781,0.40,-0.18,1.13,3.15,-0.03,1.17,
1.781,0.40,-0.18,1.13,3.22,-0.04,1.25,
1.783,0.40,-0.18,1.13,3.22,-0.04,1.25,
1.786,0.41,-0.18,1.12,3.22,-0.04,1.25,
1.786,0.41,-0.18,1.12,3.30,-0.05,1.27,
1.789,0.41,-0.18,1.13,3.30,-0.05,1.27,
1.791,0.40,-0.18,1.13,3.30,-0.05,1.27,
1.791,0.40,-0.18,1.13,3.36,-0.08,1.19,
1.793,0.40,-0.17,1.13,3.36,-0.08,1.19,
1.797,0.39,-0.17,1.14,3.36,-0.08,1.19,
1.797,0.39,-0.17,1.14,3.33,-0.07,1.25,
1.798,0.39,-0.17,1.14,3.33,-0.07,1.25,
1.801,0.38,-0.17,1.15,3.33,-0.07,1.25,
1.801,0.38,-0.17,1.15,3.26,-0.01,1.33,
1.803,0.38,-0.17,1.16,3.26,-0.01,1.33,
1.806,0.37,-0.17,1.16,3.26,-0.01,1.33,
1.806,0.37,-0.17,1.16,3.14,0.03,1.39,
1.808,0.37,-0.18,1.16,3.14,0.03,1.39,
1.812,0.36,-0.18,1.16,3.14,0.03,1.39,
1.812,0.36,-0.18,1.16,3.04,-0.04,1.53,
1.813,0.37,-0.19,1.16,3.04,-0.04,1.53,
1.816,0.36,-0.20,1.16,3.04,-0.04,1.53,
1.816,0.36,-0.20,1.16,2.97,-0.11,1.51,
1.818,0.36,-0.20,1.16,2.97,-0.11,1.51,
1.821,0.36,-0.20,1.16,2.97,-0.11,1.51,
1.821,0.36,-0.20,1.16,2.95,-0.23,1.55,
1.823,0.36,-0.20,1.16,2.95,-0.23,1.55,
1.831,0.34,-0.20,1.16,2.95,-0.23,1.55,
1.832,0.34,-0.20,1.16,2.92,-0.33,1.51,
1.832,0.34,-0.20,1.15,2.92,-0.33,1.51,
1.832,0.33,-0.20,1.16,2.92,-0.33,1.51,
1.832,0.33,-0.20,1.16,2.82,-0.37,1.52,
1.834,0.32,-0.20,1.16,2.82,-0.37,1.52,
1.835,0.31,-0.20,1.16,2.82,-0.37,1.52,
1.836,0.31,-0.20,1.16,2.67,-0.38,1.50,
1.838,0.31,-0.20,1.16,2.67,-0.38,1.50,
1.841,0.30,-0.19,1.16,2.67,-0.38,1.50,
1.841,0.30,-0.19,1.16,2.48,-0.36,1.47,
1.844,0.29,-0.19,1.16,2.48,-0.36,1.47,
1.845,0.29,-0.18,1.16,2.48,-0.36,1.47,
1.846,0.29,-0.18,1.16,2.39,-0.33,1.50,
1.848,0.29,-0.18,1.16,2.39,-0.33,1.50,
1.85,0.28,-0.18,1.15,2.39,-0.33,1.50,
1.851,0.28,-0.18,1.15,2.25,-0.23,1.51,
1.853,0.28,-0.18,1.15,2.25,-0.23,1.51,
1.855,0.27,-0.18,1.14,2.25,-0.23,1.51,
1.856,0.27,-0.18,1.14,2.19,-0.25,1.44,
1.858,0.27,-0.18,1.13,2.19,-0.25,1.44,
1.861,0.28,-0.18,1.12,2.19,-0.25,1.44,
1.861,0.28,-0.18,1.12,2.12,-0.27,1.33,
1.863,0.28,-0.18,1.12,2.12,-0.27,1.33,
1.865,0.28,-0.18,1.10,2.12,-0.27,1.33,
1.865,0.28,-0.18,1.10,2.14,-0.26,1.14,
1.868,0.28,-0.18,1.09,2.14,-0.26,1.14,
1.87,0.27,-0.19,1.09,2.14,-0.26,1.14,
1.87,0.27,-0.19,1.09,2.16,-0.33,0.94,
1.873,0.27,-0.19,1.07,2.16,-0.33,0.94,
1.875,0.27,-0.19,1.07,2.16,-0.33,0.94,
1.875,0.27,-0.19,1.07,2.19,-0.40,0.75,
1.878,0.26,-0.19,1.05,2.19,-0.40,0.75,
1.88,0.26,-0.19,1.04,2.19,-0.40,0.75,
1.881,0.26,-0.19,1.04,2.10,-0.47,0.57,
1.882,0.25,-0.19,1.03,2.10,-0.47,0.57,
1.885,0.25,-0.19,1.01,2.10,-0.47,0.57,
1.885,0.25,-0.19,1.01,2.05,-0.54,0.31,
1.887,0.24,-0.20,1.01,2.05,-0.54,0.31,
1.89,0.24,-0.20,1.00,2.05,-0.54,0.31,
1.89,0.24,-0.20,1.00,1.98,-0.59,0.06,
1.892,0.23,-0.19,1.00,1.98,-0.59,0.06,
1.895,0.23,-0.19,0.99,1.98,-0.59,0.06,
1.896,0.23,-0.19,0.99,1.92,-0.66,-0.12,
1.897,0.22,-0.19,0.99,1.92,-0.66,-0.12,
1.9,0.21,-0.18,0.98,1.92,-0.66,-0.12,
1.9,0.21,-0.18,0.98,1.79,-0.62,-0.20,
1.902,0.20,-0.18,0.98,1.79,-0.62,-0.20,
1.905,0.20,-0.17,0.97,1.79,-0.62,-0.20,
1.905,0.20,-0.17,0.97,1.68,-0.61,-0.31,
1.907,0.18,-0.17,0.98,1.68,-0.61,-0.31,
1.911,0.18,-0.16,0.98,1.68,-0.61,-0.31,
1.911,0.18,-0.16,0.98,1.54,-0.55,-0.39,
1.912,0.17,-0.16,0.97,1.54,-0.55,-0.39,
1.915,0.16,-0.15,0.97,1.54,-0.55,-0.39,
1.915,0.16,-0.15,0.97,1.39,-0.52,-0.39,
1.917,0.16,-0.15,0.97,1.39,-0.52,-0.39,
1.92,0.16,-0.15,0.97,1.28,-0.47,-0.45,
1.92,0.15,-0.15,0.98,1.28,-0.47,-0.45,
1.922,0.15,-0.14,0.97,1.28,-0.47,-0.45,
1.924,0.15,-0.14,0.97,1.28,-0.47,-0.45,
1.925,0.15,-0.14,0.97,1.15,-0.44,-0.45,
1.928,0.14,-0.13,0.97,1.15,-0.44,-0.45,
1.929,0.14,-0.13,0.97,1.15,-0.44,-0.45,
1.93,0.14,-0.13,0.97,1.09,-0.40,-0.44,
1.932,0.14,-0.13,0.97,1.09,-0.40,-0.44,
1.935,0.14,-0.13,0.97,1.05,-0.37,-0.47,
1.935,0.14,-0.13,0.97,1.05,-0.37,-0.47,
1.937,0.14,-0.12,0.97,1.05,-0.37,-0.47,
1.939,0.14,-0.12,0.97,1.05,-0.37,-0.47,
1.94,0.14,-0.12,0.97,1.04,-0.39,-0.48,
1.942,0.13,-0.13,0.98,1.04,-0.39,-0.48,
1.949,0.13,-0.12,0.98,1.04,-0.39,-0.48,
1.949,0.13,-0.12,0.98,1.04,-0.36,-0.50,
1.95,0.13,-0.13,0.98,1.04,-0.36,-0.50,
1.953,0.14,-0.13,0.98,1.04,-0.36,-0.50,
1.953,0.14,-0.13,0.98,0.99,-0.43,-0.41,
1.953,0.13,-0.13,0.98,0.99,-0.43,-0.41,
1.954,0.13,-0.13,0.98,0.99,-0.43,-0.41,
1.954,0.13,-0.13,0.98,0.99,-0.49,-0.42,
1.957,0.14,-0.14,0.97,0.99,-0.49,-0.42,
1.959,0.14,-0.13,0.97,0.99,-0.49,-0.42,
1.959,0.14,-0.13,0.97,0.95,-0.57,-0.42,
1.962,0.13,-0.14,0.97,0.95,-0.57,-0.42,
1.965,0.14,-0.14,0.97,0.95,-0.57,-0.42,
1.965,0.14,-0.14,0.97,1.00,-0.62,-0.50,
1.967,0.13,-0.13,0.97,1.00,-0.62,-0.50,
1.97,0.13,-0.13,0.97,1.00,-0.62,-0.50,
1.97,0.13,-0.13,0.97,0.94,-0.68,-0.51,
1.971,0.13,-0.12,0.96,0.94,-0.68,-0.51,
1.974,0.13,-0.13,0.96,0.94,-0.68,-0.51,
1.974,0.13,-0.13,0.96,0.90,-0.63,-0.52,
1.978,0.13,-0.12,0.97,0.90,-0.63,-0.52,
1.98,0.13,-0.12,0.97,0.90,-0.63,-0.52,
1.98,0.13,-0.12,0.97,0.90,-0.59,-0.55,
1.981,0.13,-0.12,0.96,0.90,-0.59,-0.55,
1.985,0.13,-0.12,0.96,0.89,-0.61,-0.52,
1.985,0.14,-0.12,0.96,0.89,-0.61,-0.52,
1.987,0.13,-0.12,0.96,0.89,-0.61,-0.52,
1.99,0.13,-0.12,0.96,0.89,-0.61,-0.52,
1.99,0.13,-0.12,0.96,0.92,-0.60,-0.55,
1.992,0.13,-0.12,0.96,0.92,-0.60,-0.55,
1.996,0.13,-0.12,0.95,0.92,-0.60,-0.55,
1.996,0.13,-0.12,0.95,0.91,-0.62,-0.57,
1.997,0.14,-0.12,0.95,0.91,-0.62,-0.57,
1.999,0.14,-0.12,0.95,0.91,-0.62,-0.57,
1.999,0.14,-0.12,0.95,0.91,-0.66,-0.65,
2.002,0.14,-0.12,0.95,0.91,-0.66,-0.65,
2.005,0.15,-0.12,0.94,0.91,-0.66,-0.65,
2.005,0.15,-0.12,0.94,0.94,-0.74,-0.69,
2.006,0.15,-0.12,0.93,0.94,-0.74,-0.69,
2.009,0.15,-0.12,0.93,0.94,-0.74,-0.69,
2.009,0.15,-0.12,0.93,0.98,-0.74,-0.75,
2.011,0.16,-0.11,0.92,0.98,-0.74,-0.75,
2.014,0.16,-0.11,0.92,0.98,-0.74,-0.75,
2.014,0.16,-0.11,0.92,1.06,-0.75,-0.90,
2.017,0.16,-0.10,0.92,1.06,-0.75,-0.90,
2.019,0.16,-0.10,0.91,1.06,-0.75,-0.90,
2.019,0.16,-0.10,0.91,1.13,-0.71,-0.99,
2.021,0.17,-0.09,0.92,1.13,-0.71,-0.99,
2.024,0.17,-0.09,0.91,1.13,-0.71,-0.99,
2.024,0.17,-0.09,0.91,1.15,-0.67,-1.05,
2.027,0.17,-0.09,0.91,1.15,-0.67,-1.05,
2.031,0.17,-0.09,0.91,1.15,-0.67,-1.05,
2.031,0.17,-0.09,0.91,1.21,-0.62,-1.03,
2.032,0.17,-0.08,0.91,1.21,-0.62,-1.03,
2.034,0.17,-0.08,0.91,1.20,-0.60,-1.07,
2.034,0.17,-0.07,0.91,1.20,-0.60,-1.07,
2.037,0.16,-0.07,0.92,1.20,-0.60,-1.07,
2.039,0.16,-0.06,0.92,1.20,-0.60,-1.07,
2.039,0.16,-0.06,0.92,1.24,-0.54,-1.08,
2.041,0.16,-0.06,0.92,1.24,-0.54,-1.08,
2.045,0.15,-0.06,0.93,1.24,-0.54,-1.08,
2.045,0.15,-0.06,0.93,1.15,-0.49,-1.00,
2.046,0.15,-0.06,0.93,1.15,-0.49,-1.00,
2.049,0.14,-0.06,0.94,1.15,-0.49,-1.00,
2.049,0.14,-0.06,0.94,1.07,-0.46,-0.95,
2.052,0.14,-0.05,0.95,1.07,-0.46,-0.95,
2.054,0.14,-0.05,0.95,1.07,-0.46,-0.95,
2.054,0.14,-0.05,0.95,1.00,-0.46,-0.83,
2.056,0.14,-0.05,0.95,1.00,-0.46,-0.83,
2.058,0.14,-0.05,0.95,1.00,-0.46,-0.83,
2.059,0.14,-0.05,0.95,0.90,-0.43,-0.69,
2.062,0.14,-0.04,0.95,0.90,-0.43,-0.69,
2.063,0.14,-0.04,0.96,0.90,-0.43,-0.69,
2.064,0.14,-0.04,0.96,0.93,-0.42,-0.68,
2.066,0.15,-0.04,0.96,0.93,-0.42,-0.68,
2.069,0.15,-0.04,0.96,0.93,-0.42,-0.68,
2.069,0.15,-0.04,0.96,0.92,-0.36,-0.63,
2.071,0.15,-0.04,0.96,0.92,-0.36,-0.63,
2.074,0.16,-0.04,0.95,0.92,-0.36,-0.63,
2.074,0.16,-0.04,0.95,1.01,-0.36,-0.58,
2.076,0.16,-0.04,0.95,1.01,-0.36,-0.58,
2.079,0.16,-0.04,0.95,1.01,-0.36,-0.58,
2.079,0.16,-0.04,0.95,1.04,-0.36,-0.63,
2.081,0.16,-0.04,0.95,1.04,-0.36,-0.63,
2.083,0.17,-0.03,0.93,1.04,-0.36,-0.63,
2.083,0.17,-0.03,0.93,1.10,-0.40,-0.67,
2.086,0.16,-0.03,0.93,1.10,-0.40,-0.67,
2.088,0.17,-0.03,0.93,1.10,-0.40,-0.67,
2.088,0.17,-0.03,0.93,1.14,-0.39,-0.77,
2.091,0.17,-0.03,0.92,1.14,-0.39,-0.77,
2.093,0.17,-0.02,0.91,1.14,-0.39,-0.77,
2.094,0.17,-0.02,0.91,1.13,-0.39,-0.90,
2.096,0.17,-0.03,0.90,1.13,-0.39,-0.90,
2.098,0.17,-0.03,0.90,1.13,-0.39,-0.90,
2.098,0.17,-0.03,0.90,1.18,-0.35,-1.02,
2.101,0.17,-0.03,0.89,1.18,-0.35,-1.02,
2.103,0.17,-0.02,0.89,1.18,-0.35,-1.02,
2.104,0.17,-0.02,0.89,1.20,-0.38,-1.16,
2.106,0.17,-0.02,0.89,1.20,-0.38,-1.16,
2.108,0.17,-0.02,0.88,1.20,-0.38,-1.16,
2.108,0.17,-0.02,0.88,1.19,-0.40,-1.26,
2.113,0.17,-0.02,0.88,1.19,-0.40,-1.26,
2.113,0.16,-0.02,0.87,1.19,-0.40,-1.26,
2.113,0.16,-0.02,0.87,1.12,-0.41,-1.30,
2.116,0.16,-0.02,0.87,1.12,-0.41,-1.30,
2.118,0.16,-0.02,0.87,1.12,-0.41,-1.30,
2.118,0.16,-0.02,0.87,1.10,-0.42,-1.39,
2.121,0.16,-0.01,0.87,1.10,-0.42,-1.39,
2.123,0.15,-0.01,0.88,1.10,-0.42,-1.39,
2.123,0.15,-0.01,0.88,1.01,-0.42,-1.41,
2.126,0.15,-0.01,0.87,1.01,-0.42,-1.41,
2.129,0.14,-0.00,0.87,1.01,-0.42,-1.41,
2.13,0.14,-0.00,0.87,0.97,-0.42,-1.40,
2.13,0.14,-0.01,0.87,0.97,-0.42,-1.40,
2.133,0.14,-0.01,0.86,0.97,-0.42,-1.40,
2.133,0.14,-0.01,0.86,0.90,-0.38,-1.43,
2.135,0.14,-0.01,0.87,0.90,-0.38,-1.43,
2.137,0.14,-0.01,0.87,0.90,-0.38,-1.43,
2.14,0.14,-0.01,0.87,0.86,-0.45,-1.47,
2.141,0.14,-0.01,0.87,0.86,-0.45,-1.47,
2.142,0.14,-0.01,0.87,0.86,-0.45,-1.47,
2.142,0.14,-0.01,0.87,0.84,-0.47,-1.43,
2.15,0.14,-0.00,0.87,0.84,-0.47,-1.43,
2.15,0.13,-0.00,0.87,0.84,-0.47,-1.43,
2.15,0.13,-0.00,0.87,0.81,-0.52,-1.42,
2.151,0.13,-0.00,0.87,0.81,-0.52,-1.42,
2.153,0.13,-0.00,0.87,0.81,-0.52,-1.42,
2.153,0.13,-0.00,0.87,0.79,-0.53,-1.44,
2.155,0.13,-0.00,0.87,0.79,-0.53,-1.44,
2.157,0.14,-0.00,0.86,0.79,-0.53,-1.44,
2.158,0.14,-0.00,0.86,0.77,-0.54,-1.43,
2.159,0.14,0.00,0.86,0.77,-0.54,-1.43,
2.163,0.14,0.01,0.86,0.77,-0.54,-1.43,
2.163,0.14,0.01,0.86,0.79,-0.58,-1.45,
2.164,0.14,0.00,0.86,0.79,-0.58,-1.45,
2.167,0.14,0.00,0.86,0.85,-0.54,-1.49,
2.167,0.14,0.01,0.86,0.85,-0.54,-1.49,
2.17,0.14,0.02,0.85,0.85,-0.54,-1.49,
2.172,0.13,0.02,0.86,0.85,-0.54,-1.49,
2.173,0.13,0.02,0.86,0.82,-0.54,-1.52,
2.174,0.13,0.02,0.85,0.82,-0.54,-1.52,
2.177,0.14,0.02,0.85,0.82,-0.54,-1.52,
2.177,0.14,0.02,0.85,0.77,-0.49,-1.52,
2.179,0.14,0.03,0.84,0.77,-0.49,-1.52,
2.182,0.14,0.04,0.84,0.77,-0.49,-1.52,
2.182,0.14,0.04,0.84,0.78,-0.48,-1.59,
2.185,0.15,0.04,0.84,0.78,-0.48,-1.59,
2.187,0.15,0.04,0.84,0.85,-0.37,-1.68,
2.187,0.15,0.04,0.83,0.85,-0.37,-1.68,
2.189,0.16,0.04,0.83,0.85,-0.37,-1.68,
2.192,0.16,0.04,0.83,0.94,-0.34,-1.71,
2.192,0.16,0.05,0.83,0.94,-0.34,-1.71,
2.195,0.16,0.04,0.83,0.94,-0.34,-1.71,
2.197,0.16,0.05,0.83,0.94,-0.34,-1.71,
2.197,0.16,0.05,0.83,0.97,-0.34,-1.74,
2.199,0.16,0.05,0.83,0.97,-0.34,-1.74,
2.202,0.16,0.05,0.83,1.00,-0.36,-1.75,
2.202,0.17,0.05,0.82,1.00,-0.36,-1.75,
2.204,0.16,0.05,0.82,1.00,-0.36,-1.75,
2.207,0.16,0.05,0.82,1.00,-0.36,-1.75,
2.207,0.16,0.05,0.82,1.04,-0.34,-1.80,
2.209,0.16,0.05,0.82,1.04,-0.34,-1.80,
2.212,0.16,0.05,0.82,1.04,-0.34,-1.80,
2.213,0.16,0.05,0.82,1.05,-0.34,-1.88,
2.214,0.16,0.05,0.81,1.05,-0.34,-1.88,
2.216,0.15,0.05,0.82,1.05,-0.34,-1.88,
2.217,0.15,0.05,0.82,1.02,-0.40,-1.84,
2.219,0.14,0.05,0.82,1.02,-0.40,-1.84,
2.221,0.14,0.06,0.82,1.02,-0.40,-1.84,
2.222,0.14,0.06,0.82,0.96,-0.43,-1.88,
2.224,0.14,0.06,0.82,0.96,-0.43,-1.88,
2.226,0.14,0.06,0.82,0.96,-0.43,-1.88,
2.226,0.14,0.06,0.82,0.85,-0.42,-1.84,
2.23,0.13,0.07,0.81,0.85,-0.42,-1.84,
2.231,0.13,0.07,0.82,0.85,-0.42,-1.84,
2.232,0.13,0.07,0.82,0.77,-0.40,-1.81,
2.234,0.13,0.08,0.81,0.77,-0.40,-1.81,
2.236,0.13,0.07,0.81,0.77,-0.40,-1.81,
2.236,0.13,0.07,0.81,0.70,-0.31,-1.85,
2.239,0.13,0.08,0.81,0.70,-0.31,-1.85,
2.241,0.13,0.09,0.82,0.70,-0.31,-1.85,
2.241,0.13,0.09,0.82,0.68,-0.28,-1.88,
2.25,0.13,0.09,0.82,0.68,-0.28,-1.88,
2.25,0.13,0.09,0.82,0.68,-0.28,-1.88,
2.25,0.13,0.09,0.82,0.68,-0.21,-1.83,
2.25,0.13,0.09,0.82,0.68,-0.21,-1.83,
2.252,0.14,0.10,0.82,0.68,-0.21,-1.83,
2.252,0.14,0.10,0.82,0.68,-0.18,-1.78,
2.254,0.14,0.10,0.82,0.68,-0.18,-1.78,
2.256,0.14,0.10,0.82,0.74,-0.17,-1.78,
2.257,0.14,0.10,0.83,0.74,-0.17,-1.78,
2.259,0.14,0.11,0.83,0.74,-0.17,-1.78,
2.263,0.14,0.11,0.84,0.74,-0.17,-1.78,
2.263,0.14,0.11,0.84,0.77,-0.10,-1.72,
2.263,0.14,0.11,0.84,0.77,-0.10,-1.72,
2.267,0.14,0.12,0.85,0.77,-0.10,-1.72,
2.267,0.14,0.12,0.85,0.80,-0.07,-1.63,
2.269,0.13,0.12,0.85,0.80,-0.07,-1.63,
2.271,0.14,0.12,0.85,0.80,-0.07,-1.63,
2.271,0.14,0.12,0.85,0.78,-0.05,-1.51,
2.273,0.14,0.12,0.86,0.78,-0.05,-1.51,
2.277,0.14,0.13,0.86,0.78,-0.05,-1.51,
2.277,0.14,0.13,0.86,0.74,0.02,-1.48,
2.28,0.14,0.13,0.87,0.74,0.02,-1.48,
2.282,0.13,0.13,0.87,0.74,0.02,-1.48,
2.282,0.13,0.13,0.87,0.75,0.06,-1.36,
2.283,0.13,0.13,0.87,0.75,0.06,-1.36,
2.286,0.13,0.13,0.87,0.75,0.06,-1.36,
2.286,0.13,0.13,0.87,0.72,0.06,-1.28,
2.288,0.13,0.13,0.87,0.72,0.06,-1.28,
2.291,0.13,0.13,0.86,0.72,0.06,-1.28,
2.292,0.13,0.13,0.86,0.68,0.06,-1.29,
2.293,0.13,0.13,0.86,0.68,0.06,-1.29,
2.297,0.13,0.13,0.86,0.68,0.06,-1.29,
2.297,0.13,0.13,0.86,0.68,0.06,-1.31,
2.298,0.13,0.13,0.86,0.68,0.06,-1.31,
2.301,0.13,0.13,0.85,0.68,0.06,-1.31,
2.302,0.13,0.13,0.85,0.68,0.06,-1.37,
2.304,0.13,0.12,0.85,0.68,0.06,-1.37,
2.306,0.13,0.12,0.85,0.70,0.02,-1.40,
2.307,0.13,0.12,0.85,0.70,0.02,-1.40,
2.308,0.13,0.13,0.85,0.70,0.02,-1.40,
2.311,0.12,0.12,0.85,0.70,0.02,-1.40,
2.311,0.12,0.12,0.85,0.71,-0.04,-1.42,
2.313,0.12,0.12,0.85,0.71,-0.04,-1.42,
2.316,0.12,0.12,0.85,0.71,-0.04,-1.42,
2.316,0.12,0.12,0.85,0.69,-0.03,-1.42,
2.318,0.12,0.13,0.85,0.69,-0.03,-1.42,
2.321,0.11,0.13,0.85,0.69,-0.03,-1.42,
2.321,0.11,0.13,0.85,0.63,-0.06,-1.45,
2.325,0.11,0.13,0.85,0.63,-0.06,-1.45,
2.326,0.10,0.13,0.85,0.63,-0.06,-1.45,
2.326,0.10,0.13,0.85,0.57,-0.04,-1.43,
2.33,0.10,0.13,0.85,0.57,-0.04,-1.43,
2.33,0.10,0.13,0.86,0.57,-0.04,-1.43,
2.331,0.10,0.13,0.86,0.49,-0.02,-1.42,
2.333,0.09,0.13,0.86,0.49,-0.02,-1.42,
2.336,0.09,0.13,0.87,0.49,-0.02,-1.42,
2.336,0.09,0.13,0.87,0.43,-0.04,-1.35,
2.339,0.08,0.13,0.87,0.43,-0.04,-1.35,
2.341,0.08,0.13,0.87,0.43,-0.04,-1.35,
2.341,0.08,0.13,0.87,0.32,-0.03,-1.28,
2.344,0.07,0.13,0.87,0.32,-0.03,-1.28,
2.345,0.08,0.12,0.87,0.32,-0.03,-1.28,
2.346,0.08,0.12,0.87,0.26,-0.05,-1.23,
2.348,0.07,0.13,0.87,0.26,-0.05,-1.23,
2.351,0.07,0.13,0.87,0.26,-0.05,-1.23,
2.351,0.07,0.13,0.87,0.20,-0.12,-1.24,
2.353,0.07,0.13,0.87,0.20,-0.12,-1.24,
2.356,0.07,0.13,0.88,0.20,-0.12,-1.24,
2.356,0.07,0.13,0.88,0.15,-0.10,-1.21,
2.358,0.06,0.13,0.88,0.15,-0.10,-1.21,
2.361,0.06,0.13,0.88,0.15,-0.10,-1.21,
2.361,0.06,0.13,0.88,0.15,-0.11,-1.16,
2.367,0.06,0.13,0.87,0.15,-0.11,-1.16,
2.367,0.06,0.13,0.87,0.15,-0.11,-1.16,
2.367,0.06,0.13,0.87,0.09,-0.13,-1.12,
2.369,0.06,0.13,0.88,0.09,-0.13,-1.12,
2.37,0.05,0.14,0.87,0.09,-0.13,-1.12,
2.371,0.05,0.14,0.87,0.04,-0.12,-1.17,
2.373,0.05,0.14,0.87,0.04,-0.12,-1.17,
2.375,0.05,0.13,0.86,0.04,-0.12,-1.17,
2.375,0.05,0.13,0.86,0.00,-0.10,-1.18,
2.378,0.04,0.14,0.86,0.00,-0.10,-1.18,
2.38,0.04,0.14,0.86,-0.04,-0.12,-1.26,
2.381,0.03,0.14,0.86,-0.04,-0.12,-1.26,
2.383,0.03,0.14,0.86,-0.04,-0.12,-1.26,
2.385,0.02,0.14,0.86,-0.04,-0.12,-1.26,
2.385,0.02,0.14,0.86,-0.21,-0.12,-1.28,
2.388,0.02,0.14,0.85,-0.21,-0.12,-1.28,
2.391,0.01,0.14,0.86,-0.21,-0.12,-1.28,
2.391,0.01,0.14,0.86,-0.29,-0.09,-1.32,
2.393,0.00,0.14,0.86,-0.29,-0.09,-1.32,
2.398,-0.00,0.14,0.86,-0.29,-0.09,-1.32,
2.399,-0.00,0.14,0.86,-0.39,-0.09,-1.30,
2.399,-0.02,0.14,0.86,-0.39,-0.09,-1.30,
2.4,-0.02,0.14,0.85,-0.39,-0.09,-1.30,
2.4,-0.02,0.14,0.85,-0.53,-0.12,-1.28,
2.403,-0.02,0.14,0.85,-0.53,-0.12,-1.28,
2.405,-0.02,0.14,0.85,-0.67,-0.16,-1.31,
2.406,-0.02,0.13,0.85,-0.67,-0.16,-1.31,
2.408,-0.03,0.13,0.84,-0.67,-0.16,-1.31,
2.41,-0.03,0.13,0.84,-0.67,-0.16,-1.31,
2.411,-0.03,0.13,0.84,-0.70,-0.21,-1.37,
2.414,-0.03,0.13,0.84,-0.70,-0.21,-1.37,
2.415,-0.03,0.13,0.84,-0.70,-0.21,-1.37,
2.415,-0.03,0.13,0.84,-0.79,-0.23,-1.44,
2.418,-0.04,0.13,0.83,-0.79,-0.23,-1.44,
2.42,-0.05,0.13,0.82,-0.79,-0.23,-1.44,
2.421,-0.05,0.13,0.82,-0.82,-0.28,-1.45,
2.423,-0.05,0.14,0.83,-0.82,-0.28,-1.45,
2.426,-0.05,0.13,0.82,-0.82,-0.28,-1.45,
2.426,-0.05,0.13,0.82,-0.90,-0.26,-1.57,
2.428,-0.06,0.13,0.82,-0.90,-0.26,-1.57,
2.43,-0.06,0.14,0.82,-0.90,-0.26,-1.57,
2.431,-0.06,0.14,0.82,-0.98,-0.25,-1.59,
2.432,-0.07,0.14,0.83,-0.98,-0.25,-1.59,
2.434,-0.07,0.15,0.83,-0.98,-0.25,-1.59,
2.434,-0.07,0.15,0.83,-1.04,-0.23,-1.60,
2.438,-0.08,0.15,0.83,-1.04,-0.23,-1.60,
2.44,-0.08,0.15,0.83,-1.04,-0.23,-1.60,
2.44,-0.08,0.15,0.83,-1.14,-0.14,-1.57,
2.443,-0.08,0.16,0.83,-1.14,-0.14,-1.57,
2.445,-0.08,0.16,0.84,-1.14,-0.14,-1.57,
2.445,-0.08,0.16,0.84,-1.20,-0.10,-1.53,
2.448,-0.08,0.16,0.84,-1.20,-0.10,-1.53,
2.449,-0.08,0.17,0.85,-1.20,-0.10,-1.53,
2.45,-0.08,0.17,0.85,-1.20,-0.02,-1.48,
2.453,-0.08,0.17,0.85,-1.20,-0.02,-1.48,
2.455,-0.08,0.17,0.85,-1.23,0.05,-1.41,
2.455,-0.08,0.18,0.85,-1.23,0.05,-1.41,
2.457,-0.08,0.18,0.86,-1.23,0.05,-1.41,
2.46,-0.08,0.18,0.86,-1.23,0.05,-1.41,
2.46,-0.08,0.18,0.86,-1.22,0.12,-1.34,
2.464,-0.08,0.18,0.87,-1.22,0.12,-1.34,
2.465,-0.08,0.18,0.87,-1.22,0.12,-1.34,
2.465,-0.08,0.18,0.87,-1.22,0.15,-1.24,
2.467,-0.07,0.18,0.88,-1.22,0.15,-1.24,
2.47,-0.07,0.18,0.89,-1.22,0.15,-1.24,
2.47,-0.07,0.18,0.89,-1.17,0.16,-1.12,
2.473,-0.07,0.18,0.89,-1.17,0.16,-1.12,
2.475,-0.07,0.18,0.90,-1.17,0.16,-1.12,
2.475,-0.07,0.18,0.90,-1.15,0.18,-1.00,
2.477,-0.07,0.17,0.91,-1.15,0.18,-1.00,
2.484,-0.07,0.17,0.91,-1.13,0.15,-0.84,
2.484,-0.08,0.17,0.91,-1.13,0.15,-0.84,
2.485,-0.07,0.17,0.92,-1.13,0.15,-0.84,
2.485,-0.07,0.17,0.92,-1.13,0.15,-0.84,
2.485,-0.07,0.17,0.92,-1.16,0.10,-0.74,
2.488,-0.07,0.16,0.92,-1.16,0.10,-0.74,
2.489,-0.07,0.16,0.93,-1.16,0.10,-0.74,
2.489,-0.07,0.16,0.93,-1.14,0.07,-0.68,
2.492,-0.07,0.15,0.93,-1.14,0.07,-0.68,
2.494,-0.07,0.14,0.94,-1.14,0.07,-0.68,
2.495,-0.07,0.14,0.94,-1.11,0.02,-0.58,
2.497,-0.08,0.15,0.94,-1.11,0.02,-0.58,
2.499,-0.08,0.15,0.94,-1.11,0.02,-0.58,
2.499,-0.08,0.15,0.94,-1.10,-0.08,-0.48,
2.502,-0.08,0.14,0.95,-1.10,-0.08,-0.48,
2.505,-0.08,0.14,0.95,-1.16,-0.09,-0.44,
2.505,-0.08,0.14,0.95,-1.16,-0.09,-0.44,
2.507,-0.09,0.14,0.96,-1.16,-0.09,-0.44,
2.509,-0.09,0.14,0.97,-1.16,-0.09,-0.44,
2.51,-0.09,0.14,0.97,-1.20,-0.14,-0.35,
2.512,-0.09,0.13,0.97,-1.20,-0.14,-0.35,
2.514,-0.10,0.13,0.98,-1.20,-0.14,-0.35,
2.515,-0.10,0.13,0.98,-1.26,-0.17,-0.17,
2.517,-0.10,0.12,0.98,-1.26,-0.17,-0.17,
2.519,-0.10,0.11,0.97,-1.26,-0.17,-0.17,
2.52,-0.10,0.11,0.97,-1.30,-0.24,-0.11,
2.522,-0.11,0.12,0.97,-1.30,-0.24,-0.11,
2.523,-0.12,0.11,1.00,-1.30,-0.24,-0.11,
2.524,-0.12,0.11,1.00,-1.36,-0.33,-0.11,
2.526,-0.12,0.11,0.99,-1.36,-0.33,-0.11,
2.529,-0.12,0.10,0.99,-1.36,-0.33,-0.11,
2.531,-0.12,0.10,0.99,-1.48,-0.36,-0.01,
2.532,-0.13,0.10,1.00,-1.48,-0.36,-0.01,
2.533,-0.13,0.10,1.00,-1.55,-0.44,0.07,
2.534,-0.13,0.10,1.00,-1.55,-0.44,0.07,
2.536,-0.13,0.10,1.00,-1.55,-0.44,0.07,
2.538,-0.13,0.09,1.01,-1.55,-0.44,0.07,
2.539,-0.13,0.09,1.01,-1.59,-0.47,0.11,
2.541,-0.14,0.09,1.01,-1.59,-0.47,0.11,
2.545,-0.15,0.09,1.02,-1.59,-0.47,0.11,
2.545,-0.15,0.09,1.02,-1.63,-0.51,0.21,
2.548,-0.14,0.09,1.02,-1.63,-0.51,0.21,
2.549,-0.14,0.09,1.02,-1.63,-0.51,0.21,
2.549,-0.14,0.09,1.02,-1.73,-0.57,0.31,
2.551,-0.15,0.09,1.02,-1.73,-0.57,0.31,
2.553,-0.14,0.09,1.01,-1.73,-0.57,0.31,
2.554,-0.14,0.09,1.01,-1.71,-0.55,0.32,
2.556,-0.14,0.09,1.02,-1.71,-0.55,0.32,
2.559,-0.14,0.09,1.01,-1.71,-0.55,0.32,
2.559,-0.14,0.09,1.01,-1.68,-0.56,0.27,
2.561,-0.13,0.08,1.01,-1.68,-0.56,0.27,
2.565,-0.13,0.09,1.01,-1.68,-0.56,0.27,
2.566,-0.13,0.09,1.01,-1.63,-0.58,0.27,
2.567,-0.13,0.09,1.00,-1.63,-0.58,0.27,
2.568,-0.13,0.08,1.00,-1.63,-0.58,0.27,
2.568,-0.13,0.08,1.00,-1.56,-0.59,0.20,
2.571,-0.12,0.08,0.99,-1.56,-0.59,0.20,
2.573,-0.12,0.09,0.98,-1.56,-0.59,0.20,
2.574,-0.12,0.09,0.98,-1.51,-0.57,0.10,
2.575,-0.12,0.09,0.97,-1.51,-0.57,0.10,
2.578,-0.12,0.09,0.97,-1.51,-0.57,0.10,
2.578,-0.12,0.09,0.97,-1.43,-0.59,-0.02,
2.586,-0.12,0.09,0.96,-1.43,-0.59,-0.02,
2.587,-0.12,0.09,0.96,-1.41,-0.56,-0.16,
2.587,-0.12,0.09,0.96,-1.41,-0.56,-0.16,
2.587,-0.12,0.10,0.96,-1.41,-0.56,-0.16,
2.588,-0.12,0.10,0.94,-1.41,-0.56,-0.16,
2.588,-0.12,0.10,0.94,-1.39,-0.53,-0.26,
2.591,-0.12,0.10,0.94,-1.39,-0.53,-0.26,
2.594,-0.12,0.10,0.94,-1.39,-0.53,-0.26,
2.595,-0.12,0.10,0.94,-1.35,-0.47,-0.37,
2.595,-0.12,0.10,0.94,-1.35,-0.47,-0.37,
2.599,-0.12,0.10,0.94,-1.30,-0.43,-0.44,
2.6,-0.12,0.10,0.94,-1.30,-0.43,-0.44,
2.6,-0.12,0.11,0.94,-1.30,-0.43,-0.44,
2.603,-0.12,0.11,0.94,-1.30,-0.39,-0.46,
2.603,-0.12,0.11,0.95,-1.30,-0.39,-0.46,
2.606,-0.12,0.11,0.94,-1.30,-0.39,-0.46,
2.608,-0.11,0.12,0.94,-1.30,-0.39,-0.46,
2.608,-0.11,0.12,0.94,-1.27,-0.33,-0.44,
2.61,-0.11,0.12,0.95,-1.27,-0.33,-0.44,
2.615,-0.11,0.12,0.95,-1.27,-0.33,-0.44,
2.616,-0.11,0.12,0.95,-1.23,-0.27,-0.46,
2.616,-0.11,0.13,0.95,-1.23,-0.27,-0.46,
2.618,-0.10,0.13,0.95,-1.23,-0.27,-0.46,
2.618,-0.10,0.13,0.95,-1.18,-0.22,-0.36,
2.623,-0.10,0.13,0.96,-1.18,-0.22,-0.36,
2.623,-0.11,0.13,0.96,-1.18,-0.22,-0.36,
2.623,-0.11,0.13,0.96,-1.13,-0.14,-0.37,
2.625,-0.10,0.13,0.95,-1.13,-0.14,-0.37,
2.628,-0.10,0.14,0.96,-1.13,-0.14,-0.37,
2.629,-0.10,0.14,0.96,-1.11,-0.11,-0.30,
2.631,-0.10,0.13,0.96,-1.11,-0.11,-0.30,
2.633,-0.10,0.13,0.96,-1.08,-0.07,-0.32,
2.636,-0.10,0.13,0.96,-1.08,-0.07,-0.32,
2.636,-0.10,0.13,0.96,-1.08,-0.07,-0.32,
2.638,-0.10,0.13,0.97,-1.08,-0.07,-0.32,
2.638,-0.10,0.13,0.97,-1.08,-0.08,-0.24,
2.641,-0.11,0.13,0.96,-1.08,-0.08,-0.24,
2.643,-0.11,0.13,0.96,-1.08,-0.08,-0.24,
2.643,-0.11,0.13,0.96,-1.04,-0.08,-0.23,
2.645,-0.10,0.13,0.96,-1.04,-0.08,-0.23,
2.648,-0.10,0.13,0.96,-1.04,-0.08,-0.23,
2.649,-0.10,0.13,0.96,-1.07,-0.08,-0.26,
2.65,-0.10,0.12,0.96,-1.07,-0.08,-0.26,
2.653,-0.10,0.12,0.96,-1.07,-0.08,-0.26,
2.653,-0.10,0.12,0.96,-1.02,-0.08,-0.25,
2.656,-0.10,0.13,0.96,-1.02,-0.08,-0.25,
2.657,-0.10,0.12,0.96,-1.02,-0.08,-0.25,
2.658,-0.10,0.12,0.96,-1.03,-0.14,-0.28,
2.66,-0.10,0.13,0.95,-1.03,-0.14,-0.28,
2.663,-0.10,0.13,0.95,-1.03,-0.14,-0.28,
2.665,-0.10,0.13,0.95,-0.95,-0.12,-0.30,
2.665,-0.09,0.13,0.95,-0.95,-0.12,-0.30,
2.667,-0.09,0.13,0.95,-0.95,-0.12,-0.30,
2.667,-0.09,0.13,0.95,-0.95,-0.09,-0.38,
2.67,-0.09,0.13,0.95,-0.95,-0.09,-0.38,
2.672,-0.09,0.13,0.95,-0.95,-0.09,-0.38,
2.672,-0.09,0.13,0.95,-0.92,-0.08,-0.36,
2.675,-0.09,0.13,0.95,-0.92,-0.08,-0.36,
2.677,-0.08,0.13,0.95,-0.92,-0.08,-0.36,
2.678,-0.08,0.13,0.95,-0.84,-0.04,-0.34,
2.68,-0.08,0.13,0.95,-0.84,-0.04,-0.34,
2.682,-0.08,0.14,0.96,-0.84,-0.04,-0.34,
2.682,-0.08,0.14,0.96,-0.81,-0.03,-0.35,
2.685,-0.08,0.14,0.96,-0.81,-0.03,-0.35,
2.687,-0.08,0.14,0.96,-0.79,-0.01,-0.30,
2.688,-0.08,0.14,0.96,-0.79,-0.01,-0.30,
2.69,-0.08,0.14,0.97,-0.79,-0.01,-0.30,
2.693,-0.08,0.14,0.97,-0.75,0.06,-0.28,
2.693,-0.07,0.14,0.97,-0.75,0.06,-0.28,
2.695,-0.07,0.14,0.97,-0.75,0.06,-0.28,
2.702,-0.07,0.14,0.97,-0.75,0.06,-0.28,
2.703,-0.07,0.14,0.97,-0.70,0.05,-0.20,
2.703,-0.06,0.14,0.98,-0.70,0.05,-0.20,
2.703,-0.06,0.14,0.98,-0.67,0.06,-0.16,
2.703,-0.06,0.14,0.98,-0.67,0.06,-0.16,
2.706,-0.06,0.14,0.99,-0.67,0.06,-0.16,
2.707,-0.06,0.14,0.99,-0.67,0.06,-0.16,
2.707,-0.06,0.14,0.99,-0.61,0.08,-0.09,
2.709,-0.06,0.14,0.99,-0.61,0.08,-0.09,
2.712,-0.05,0.14,0.99,-0.61,0.08,-0.09,
2.713,-0.05,0.14,0.99,-0.57,0.02,-0.00,
2.715,-0.06,0.14,0.99,-0.57,0.02,-0.00,
2.717,-0.05,0.13,1.00,-0.57,0.02,-0.00,
2.717,-0.05,0.13,1.00,-0.53,0.03,-0.01,
2.72,-0.04,0.13,1.00,-0.53,0.03,-0.01,
2.722,-0.04,0.13,1.00,-0.53,0.03,-0.01,
2.723,-0.04,0.13,1.00,-0.51,0.02,0.07,
2.725,-0.04,0.14,1.00,-0.51,0.02,0.07,
2.727,-0.04,0.14,1.02,-0.51,0.02,0.07,
2.727,-0.04,0.14,1.02,-0.42,0.01,0.12,
2.73,-0.03,0.14,1.01,-0.42,0.01,0.12,
2.732,-0.03,0.14,1.02,-0.42,0.01,0.12,
2.732,-0.03,0.14,1.02,-0.38,0.07,0.21,
2.734,-0.02,0.14,1.02,-0.38,0.07,0.21,
2.736,-0.03,0.14,1.02,-0.38,0.07,0.21,
2.737,-0.03,0.14,1.02,-0.31,0.07,0.25,
2.74,-0.02,0.13,1.02,-0.31,0.07,0.25,
2.742,-0.02,0.14,1.02,-0.31,0.07,0.25,
2.742,-0.02,0.14,1.02,-0.24,0.12,0.32,
2.745,-0.02,0.14,1.03,-0.24,0.12,0.32,
2.749,-0.02,0.14,1.03,-0.24,0.12,0.32,
2.75,-0.02,0.14,1.03,-0.19,0.09,0.34,
2.75,-0.02,0.13,1.02,-0.19,0.09,0.34,
2.752,-0.02,0.13,1.02,-0.16,0.12,0.38,
2.752,-0.01,0.14,1.03,-0.16,0.12,0.38,
2.754,-0.01,0.13,1.03,-0.16,0.12,0.38,
2.757,-0.01,0.13,1.03,-0.12,0.10,0.34,
2.757,-0.01,0.13,1.02,-0.12,0.10,0.34,
2.759,-0.02,0.13,1.02,-0.12,0.10,0.34,
2.762,-0.02,0.13,1.02,-0.12,0.10,0.34,
2.762,-0.02,0.13,1.02,-0.11,0.07,0.36,
2.764,-0.02,0.14,1.02,-0.11,0.07,0.36,
2.766,-0.02,0.13,1.03,-0.11,0.07,0.36,
2.767,-0.02,0.13,1.03,-0.21,0.09,0.33,
2.77,-0.02,0.13,1.03,-0.21,0.09,0.33,
2.772,-0.02,0.13,1.02,-0.21,0.09,0.33,
2.772,-0.02,0.13,1.02,-0.21,0.10,0.37,
2.774,-0.02,0.13,1.02,-0.21,0.10,0.37,
2.777,-0.03,0.13,1.03,-0.21,0.10,0.37,
2.777,-0.03,0.13,1.03,-0.19,0.07,0.34,
2.779,-0.03,0.12,1.02,-0.19,0.07,0.34,
2.782,-0.03,0.12,1.02,-0.19,0.07,0.34,
2.783,-0.03,0.12,1.02,-0.24,0.04,0.32,
2.783,-0.03,0.12,1.02,-0.24,0.04,0.32,
2.787,-0.03,0.11,1.02,-0.24,0.04,0.32,
2.787,-0.03,0.11,1.02,-0.24,-0.00,0.32,
2.789,-0.03,0.11,1.02,-0.24,-0.00,0.32,
2.792,-0.03,0.11,1.02,-0.24,-0.00,0.32,
2.792,-0.03,0.11,1.02,-0.28,-0.08,0.27,
2.794,-0.03,0.11,1.01,-0.28,-0.08,0.27,
2.796,-0.03,0.11,1.01,-0.28,-0.08,0.27,
2.797,-0.03,0.11,1.01,-0.29,-0.11,0.27,
2.799,-0.03,0.11,1.01,-0.29,-0.11,0.27,
2.802,-0.03,0.11,1.01,-0.32,-0.11,0.23,
2.802,-0.03,0.11,1.02,-0.32,-0.11,0.23,
2.803,-0.03,0.11,1.01,-0.32,-0.11,0.23,
2.806,-0.03,0.11,1.01,-0.32,-0.11,0.23,
2.807,-0.03,0.11,1.01,-0.32,-0.12,0.25,
2.808,-0.03,0.11,1.01,-0.32,-0.12,0.25,
2.81,-0.02,0.11,1.01,-0.32,-0.12,0.25,
2.811,-0.02,0.11,1.01,-0.32,-0.17,0.22,
2.819,0.03,0.13,1.00,-0.32,-0.17,0.22,
2.819,0.09,0.16,0.98,-0.32,-0.17,0.22,
2.82,0.09,0.16,0.98,-0.28,-0.18,0.18,
2.82,0.15,0.21,0.95,-0.28,-0.18,0.18,
2.821,0.18,0.25,0.94,-0.28,-0.18,0.18,
2.821,0.18,0.25,0.94,0.59,0.22,-0.01,
2.823,0.19,0.27,0.97,0.59,0.22,-0.01,
2.825,0.18,0.28,1.01,0.59,0.22,-0.01,
2.826,0.18,0.28,1.01,1.62,1.02,-0.46,
2.828,0.18,0.27,1.04,1.62,1.02,-0.46,
2.833,0.19,0.25,1.06,1.62,1.02,-0.46,
2.833,0.19,0.25,1.06,1.75,1.47,-0.04,
2.833,0.19,0.23,1.08,1.75,1.47,-0.04,
2.835,0.17,0.21,1.08,1.75,1.47,-0.04,
2.836,0.17,0.21,1.08,1.78,1.33,0.60,
2.838,0.14,0.19,1.08,1.78,1.33,0.60,
2.84,0.10,0.18,1.07,1.78,1.33,0.60,
2.841,0.10,0.18,1.07,1.72,0.95,0.89,
2.843,0.06,0.17,1.05,1.72,0.95,0.89,
2.845,0.02,0.15,1.04,1.72,0.95,0.89,
2.846,0.02,0.15,1.04,1.15,0.61,0.80,
2.848,-0.01,0.14,1.03,1.15,0.61,0.80,
2.851,-0.01,0.14,1.03,0.38,0.36,0.54,
2.851,-0.02,0.13,1.02,0.38,0.36,0.54,
2.853,-0.03,0.12,1.01,0.38,0.36,0.54,
2.855,-0.03,0.10,1.02,0.38,0.36,0.54,
2.856,-0.03,0.10,1.02,-0.18,0.16,0.35,
2.858,-0.02,0.09,1.01,-0.18,0.16,0.35,
2.86,-0.02,0.08,1.01,-0.18,0.16,0.35,
2.86,-0.02,0.08,1.01,-0.29,-0.13,0.23,
2.862,-0.02,0.08,1.01,-0.29,-0.13,0.23,
2.866,-0.02,0.08,1.00,-0.29,-0.13,0.23,
2.867,-0.02,0.08,1.00,-0.24,-0.37,0.22,
2.868,-0.02,0.08,1.00,-0.24,-0.37,0.22,
2.871,-0.02,0.08,1.00,-0.24,-0.37,0.22,
2.871,-0.02,0.08,1.00,-0.19,-0.42,0.12,
2.873,-0.02,0.08,1.00,-0.19,-0.42,0.12,
2.876,-0.03,0.07,0.99,-0.19,-0.42,0.12,
2.876,-0.03,0.07,0.99,-0.23,-0.41,0.08,
2.878,-0.02,0.07,1.00,-0.23,-0.41,0.08,
2.88,-0.03,0.06,0.99,-0.23,-0.41,0.08,
2.881,-0.03,0.06,0.99,-0.27,-0.45,0.06,
2.883,-0.03,0.05,1.00,-0.27,-0.45,0.06,
2.885,-0.04,0.05,1.02,-0.27,-0.45,0.06,
2.885,-0.04,0.05,1.02,-0.29,-0.52,0.05,
2.888,-0.04,0.05,1.02,-0.29,-0.52,0.05,
2.89,-0.04,0.05,1.02,-0.29,-0.52,0.05,
2.891,-0.04,0.05,1.02,-0.38,-0.64,0.19,
2.893,-0.05,0.05,1.02,-0.38,-0.64,0.19,
2.895,-0.05,0.06,1.02,-0.38,-0.64,0.19,
2.896,-0.05,0.06,1.02,-0.44,-0.65,0.29,
2.897,-0.05,0.06,1.03,-0.44,-0.65,0.29,
2.9,-0.06,0.06,1.03,-0.44,-0.65,0.29,
2.9,-0.06,0.06,1.03,-0.51,-0.63,0.31,
2.903,-0.06,0.07,1.03,-0.51,-0.63,0.31,
2.905,-0.05,0.07,1.02,-0.51,-0.63,0.31,
2.906,-0.05,0.07,1.02,-0.53,-0.56,0.33,
2.908,-0.05,0.08,1.02,-0.53,-0.56,0.33,
2.911,-0.04,0.08,1.01,-0.53,-0.56,0.33,
2.911,-0.04,0.08,1.01,-0.55,-0.48,0.31,
2.913,-0.04,0.08,1.00,-0.55,-0.48,0.31,
2.915,-0.04,0.08,1.00,-0.55,-0.48,0.31,
2.92,-0.04,0.08,1.00,-0.47,-0.36,0.22,
2.921,-0.03,0.09,1.00,-0.47,-0.36,0.22,
2.921,-0.03,0.09,0.99,-0.47,-0.36,0.22,
2.921,-0.03,0.09,0.99,-0.40,-0.34,0.06,
2.922,-0.02,0.09,0.98,-0.40,-0.34,0.06,
2.925,-0.02,0.09,0.98,-0.29,-0.28,0.01,
2.925,-0.02,0.10,0.98,-0.29,-0.28,0.01,
2.927,-0.01,0.10,0.98,-0.29,-0.28,0.01,
2.93,-0.01,0.10,0.97,-0.29,-0.28,0.01,
2.93,-0.01,0.10,0.97,-0.17,-0.22,-0.11,
2.933,-0.01,0.11,0.97,-0.17,-0.22,-0.11,
2.934,-0.00,0.11,0.97,-0.17,-0.22,-0.11,
2.935,-0.00,0.11,0.97,-0.09,-0.15,-0.19,
2.938,0.00,0.11,0.96,-0.09,-0.15,-0.19,
2.94,0.00,0.12,0.96,-0.09,-0.15,-0.19,
2.94,0.00,0.12,0.96,-0.02,-0.08,-0.25,
2.943,0.01,0.12,0.97,-0.02,-0.08,-0.25,
2.945,0.01,0.11,0.98,-0.02,-0.08,-0.25,
2.945,0.01,0.11,0.98,0.04,0.01,-0.28,
2.947,0.01,0.11,1.00,0.04,0.01,-0.28,
2.949,0.01,0.11,1.00,0.04,0.01,-0.28,
2.95,0.01,0.11,1.00,0.09,-0.01,-0.15,
2.952,0.01,0.10,1.01,0.09,-0.01,-0.15,
2.955,0.00,0.09,1.02,0.09,-0.01,-0.15,
2.955,0.00,0.09,1.02,0.08,-0.07,0.09,
2.957,-0.01,0.09,1.02,0.08,-0.07,0.09,
2.96,-0.01,0.09,1.02,0.06,-0.23,0.23,
2.96,-0.02,0.09,1.03,0.06,-0.23,0.23,
2.962,-0.03,0.08,1.03,0.06,-0.23,0.23,
2.965,-0.03,0.09,1.03,0.06,-0.23,0.23,
2.967,-0.03,0.09,1.03,-0.11,-0.29,0.32,
2.968,-0.03,0.09,1.02,-0.11,-0.29,0.32,
2.97,-0.03,0.09,1.02,-0.11,-0.29,0.32,
2.97,-0.03,0.09,1.02,-0.25,-0.30,0.36,
2.972,-0.04,0.09,1.02,-0.25,-0.30,0.36,
2.975,-0.03,0.09,1.03,-0.25,-0.30,0.36,
2.975,-0.03,0.09,1.03,-0.31,-0.28,0.29,
2.977,-0.03,0.09,1.03,-0.31,-0.28,0.29,
2.979,-0.02,0.09,1.03,-0.31,-0.28,0.29,
2.979,-0.02,0.09,1.03,-0.31,-0.24,0.31,
2.983,-0.02,0.09,1.03,-0.31,-0.24,0.31,
2.986,-0.01,0.10,1.03,-0.31,-0.24,0.31,
2.986,-0.01,0.10,1.03,-0.24,-0.23,0.39,
2.987,-0.01,0.10,1.02,-0.24,-0.23,0.39,
2.989,-0.01,0.10,1.02,-0.24,-0.23,0.39,
2.989,-0.01,0.10,1.02,-0.17,-0.22,0.37,
2.993,-0.01,0.10,1.02,-0.17,-0.22,0.37,
2.994,-0.00,0.11,1.02,-0.17,-0.22,0.37,
2.995,-0.00,0.11,1.02,-0.07,-0.16,0.28,
2.997,0.01,0.11,1.01,-0.07,-0.16,0.28,
2.999,0.01,0.11,1.01,-0.03,-0.11,0.26,
2.999,0.01,0.11,1.01,-0.03,-0.11,0.26,
3.002,0.02,0.12,1.01,-0.03,-0.11,0.26,
3.004,0.02,0.12,1.00,-0.03,-0.11,0.26,
3.005,0.02,0.12,1.00,0.08,-0.04,0.18,
3.007,0.03,0.13,1.01,0.08,-0.04,0.18,
3.009,0.04,0.13,1.00,0.08,-0.04,0.18,
3.01,0.04,0.13,1.00,0.18,0.03,0.14,
3.012,0.04,0.13,1.00,0.18,0.03,0.14,
3.014,0.04,0.14,1.00,0.18,0.03,0.14,
3.015,0.04,0.14,1.00,0.30,0.10,0.12,
3.016,0.04,0.14,1.00,0.30,0.10,0.12,
3.019,0.04,0.14,1.00,0.30,0.10,0.12,
3.02,0.04,0.14,1.00,0.36,0.14,0.07,
3.022,0.03,0.14,1.00,0.36,0.14,0.07,
3.024,0.03,0.14,1.00,0.35,0.19,0.08,
3.025,0.03,0.14,1.00,0.35,0.19,0.08,
3.027,0.03,0.14,1.00,0.35,0.19,0.08,
3.029,0.03,0.14,1.00,0.35,0.19,0.08,
3.029,0.03,0.14,1.00,0.31,0.24,0.09,
3.037,0.03,0.14,1.00,0.31,0.24,0.09,
3.037,0.03,0.14,0.99,0.31,0.24,0.09,
3.038,0.03,0.14,0.99,0.30,0.24,0.05,
3.038,0.03,0.13,0.99,0.30,0.24,0.05,
3.038,0.03,0.13,0.99,0.30,0.24,0.05,
3.039,0.03,0.13,0.99,0.25,0.20,0.04,
3.042,0.02,0.12,0.99,0.25,0.20,0.04,
3.044,0.02,0.12,0.99,0.25,0.20,0.04,
3.044,0.02,0.12,0.99,0.22,0.13,-0.00,
3.046,0.03,0.12,0.98,0.22,0.13,-0.00,
3.05,0.02,0.11,0.98,0.22,0.13,-0.00,
3.05,0.02,0.11,0.98,0.20,0.04,-0.02,
3.051,0.02,0.11,0.99,0.20,0.04,-0.02,
3.054,0.02,0.11,0.99,0.19,-0.03,-0.08,
3.054,0.01,0.11,0.99,0.19,-0.03,-0.08,
3.056,0.01,0.10,0.98,0.19,-0.03,-0.08,
3.059,0.01,0.10,0.98,0.19,-0.03,-0.08,
3.059,0.01,0.10,0.98,0.13,-0.10,-0.05,
3.062,0.01,0.10,0.98,0.13,-0.10,-0.05,
3.064,0.00,0.10,0.98,0.13,-0.10,-0.05,
3.064,0.00,0.10,0.98,0.07,-0.14,-0.11,
3.066,-0.00,0.10,0.98,0.07,-0.14,-0.11,
3.069,-0.00,0.10,0.97,0.07,-0.14,-0.11,
3.069,-0.00,0.10,0.97,-0.00,-0.15,-0.09,
3.071,-0.01,0.10,0.98,-0.00,-0.15,-0.09,
3.074,-0.01,0.10,0.98,-0.07,-0.18,-0.13,
3.074,-0.01,0.10,0.99,-0.07,-0.18,-0.13,
3.076,-0.01,0.10,0.98,-0.07,-0.18,-0.13,
3.078,-0.01,0.10,0.98,-0.07,-0.18,-0.13,
3.079,-0.01,0.10,0.98,-0.13,-0.21,-0.04,
3.081,-0.01,0.10,0.99,-0.13,-0.21,-0.04,
3.083,-0.01,0.10,0.99,-0.13,-0.21,-0.04,
3.084,-0.01,0.10,0.99,-0.16,-0.20,-0.09,
3.086,-0.00,0.10,0.99,-0.16,-0.20,-0.09,
3.088,0.00,0.10,1.00,-0.16,-0.20,-0.09,
3.088,0.00,0.10,1.00,-0.15,-0.19,-0.02,
3.091,0.01,0.10,1.00,-0.15,-0.19,-0.02,
3.093,0.01,0.11,1.00,-0.15,-0.19,-0.02,
3.094,0.01,0.11,1.00,-0.06,-0.18,0.03,
3.096,0.01,0.11,1.00,-0.06,-0.18,0.03,
3.098,0.01,0.11,1.00,-0.06,-0.18,0.03,
3.098,0.01,0.11,1.00,0.03,-0.11,0.07,
3.1,0.02,0.11,1.01,0.03,-0.11,0.07,
3.103,0.02,0.11,1.02,0.03,-0.11,0.07,
3.104,0.02,0.11,1.02,0.04,-0.07,0.08,
3.105,0.03,0.11,1.01,0.04,-0.07,0.08,
3.108,0.04,0.11,1.02,0.04,-0.07,0.08,
3.108,0.04,0.11,1.02,0.11,-0.06,0.20,
3.11,0.03,0.12,1.02,0.11,-0.06,0.20,
3.113,0.03,0.11,1.02,0.11,-0.06,0.20,
3.113,0.03,0.11,1.02,0.25,-0.04,0.22,
3.116,0.02,0.12,1.02,0.25,-0.04,0.22,
3.12,0.02,0.12,1.01,0.25,-0.04,0.22,
3.121,0.02,0.12,1.01,0.20,-0.00,0.24,
3.121,0.02,0.12,1.01,0.20,-0.00,0.24,
3.122,0.02,0.12,1.01,0.11,-0.00,0.21,
3.123,0.02,0.11,1.01,0.11,-0.00,0.21,
3.125,0.01,0.11,1.01,0.11,-0.00,0.21,
3.129,0.01,0.11,1.01,0.11,-0.00,0.21,
3.132,0.01,0.11,1.01,0.08,0.02,0.17,
3.133,0.00,0.11,1.01,0.08,0.02,0.17,
3.141,-0.00,0.11,1.01,0.08,0.02,0.17,
3.141,-0.00,0.11,1.01,0.01,-0.03,0.17,
3.141,-0.00,0.11,1.01,0.01,-0.03,0.17,
3.142,-0.01,0.10,1.00,0.01,-0.03,0.17,
3.142,-0.01,0.10,1.00,-0.08,-0.07,0.17,
3.142,-0.01,0.10,1.00,-0.08,-0.07,0.17,
3.143,-0.01,0.10,1.00,-0.08,-0.07,0.17,
3.143,-0.01,0.10,1.00,-0.11,-0.10,0.09,
3.145,-0.01,0.10,1.00,-0.11,-0.10,0.09,
3.148,-0.01,0.10,1.00,-0.15,-0.14,0.10,
3.148,-0.01,0.10,1.00,-0.15,-0.14,0.10,
3.154,-0.01,0.10,1.00,-0.15,-0.14,0.10,
3.155,-0.01,0.10,1.00,-0.15,-0.14,0.10,
3.155,-0.01,0.10,1.00,-0.16,-0.16,0.03,
3.155,-0.01,0.10,1.00,-0.16,-0.16,0.03,
3.157,-0.01,0.09,1.01,-0.16,-0.16,0.03,
3.158,-0.01,0.09,1.01,-0.12,-0.16,0.06,
3.16,-0.01,0.09,1.00,-0.12,-0.16,0.06,
3.163,-0.00,0.09,1.00,-0.12,-0.16,0.06,
3.163,-0.00,0.09,1.00,-0.12,-0.20,0.10,
3.165,-0.00,0.10,0.99,-0.12,-0.20,0.10,
3.167,-0.01,0.10,1.00,-0.12,-0.20,0.10,
3.168,-0.01,0.10,1.00,-0.12,-0.22,0.07,
3.169,-0.01,0.10,1.00,-0.12,-0.22,0.07,
3.173,-0.01,0.10,1.00,-0.11,-0.16,0.05,
3.173,-0.01,0.10,1.00,-0.11,-0.16,0.05,
3.175,-0.01,0.10,1.00,-0.11,-0.16,0.05,
3.178,-0.00,0.11,0.98,-0.11,-0.16,0.05,
3.178,-0.00,0.11,0.98,-0.17,-0.15,0.10,
3.18,-0.01,0.11,0.97,-0.17,-0.15,0.10,
3.184,-0.00,0.11,0.96,-0.17,-0.15,0.10,
3.184,-0.00,0.11,0.96,-0.11,-0.11,-0.05,
3.185,-0.00,0.11,0.96,-0.11,-0.11,-0.05,
3.187,-0.01,0.11,0.96,-0.11,-0.11,-0.05,
3.187,-0.01,0.11,0.96,-0.10,-0.09,-0.24,
3.19,-0.01,0.11,0.97,-0.10,-0.09,-0.24,
3.192,-0.02,0.11,0.98,-0.10,-0.09,-0.24,
3.192,-0.02,0.11,0.98,-0.10,-0.07,-0.29,
3.196,-0.02,0.12,0.96,-0.10,-0.07,-0.29,
3.197,-0.02,0.12,0.96,-0.18,-0.04,-0.21,
3.197,-0.02,0.12,0.97,-0.18,-0.04,-0.21,
3.2,-0.02,0.13,0.96,-0.18,-0.04,-0.21,
3.203,-0.01,0.13,0.95,-0.18,-0.04,-0.21,
3.204,-0.01,0.13,0.95,-0.21,0.03,-0.25,
3.204,-0.01,0.13,0.96,-0.21,0.03,-0.25,
3.208,-0.01,0.13,0.96,-0.18,0.10,-0.33,
3.208,-0.01,0.12,0.97,-0.18,0.10,-0.33,
3.209,-0.00,0.12,0.97,-0.18,0.10,-0.33,
3.212,0.00,0.11,0.97,-0.18,0.10,-0.33,
3.213,0.00,0.11,0.97,-0.15,0.08,-0.29,
3.215,0.00,0.11,0.97,-0.15,0.08,-0.29,
3.22,0.01,0.11,0.97,-0.15,0.08,-0.29,
3.221,0.01,0.11,0.97,-0.06,-0.01,-0.21,
3.221,0.01,0.11,0.98,-0.06,-0.01,-0.21,
3.221,0.01,0.11,0.98,-0.00,-0.06,-0.18,
3.222,0.00,0.10,0.98,-0.00,-0.06,-0.18,
3.225,0.00,0.10,0.99,-0.00,-0.06,-0.18,
3.227,0.00,0.10,0.99,-0.00,-0.06,-0.18,
3.227,0.00,0.10,0.99,-0.01,-0.09,-0.11,
3.23,0.00,0.10,0.99,-0.01,-0.09,-0.11,
3.232,0.00,0.10,0.99,-0.01,-0.09,-0.11,
3.232,0.00,0.10,0.99,-0.04,-0.11,-0.03,
3.239,0.01,0.10,0.99,-0.04,-0.11,-0.03,
3.24,0.01,0.10,0.99,-0.04,-0.11,-0.03,
3.24,0.01,0.10,0.99,-0.05,-0.12,0.01,
3.24,0.01,0.11,1.00,-0.05,-0.12,0.01,
3.242,0.01,0.11,1.00,0.02,-0.13,0.00,
3.242,0.01,0.11,1.01,0.02,-0.13,0.00,
3.244,0.01,0.11,1.01,0.02,-0.13,0.00,
3.246,0.01,0.10,1.00,0.02,-0.13,0.00,
3.246,0.01,0.10,1.00,-0.00,-0.07,0.14,
3.26,0.02,0.10,1.00,-0.00,-0.07,0.14,
3.261,0.02,0.10,0.99,-0.00,-0.07,0.14,
3.262,0.02,0.10,0.99,0.03,-0.10,0.14,
3.262,0.02,0.10,0.98,0.03,-0.10,0.14,
3.262,0.02,0.10,0.97,0.03,-0.10,0.14,
3.262,0.02,0.10,0.97,0.09,-0.14,0.03,
3.262,0.02,0.11,0.97,0.09,-0.14,0.03,
3.263,0.02,0.10,0.98,0.09,-0.14,0.03,
3.263,0.02,0.10,0.98,0.13,-0.11,-0.14,
3.265,0.02,0.10,0.98,0.13,-0.11,-0.14,
3.274,0.02,0.11,0.98,0.13,-0.11,-0.14,
3.275,0.02,0.11,0.98,0.12,-0.11,-0.13,
3.275,0.02,0.11,0.99,0.12,-0.11,-0.13,
3.275,0.01,0.11,0.98,0.12,-0.11,-0.13,
3.275,0.01,0.11,0.98,0.06,-0.11,-0.12,
3.275,0.01,0.10,0.99,0.06,-0.11,-0.12,
