
time,gFx,gFy,gFz,ax,ay,az,
0.002,0.07,0.27,0.96,0.28,-0.20,-0.02,
0.003,0.08,0.26,0.95,0.28,-0.20,-0.02,
0.003,0.08,0.26,0.95,0.28,-0.20,-0.02,
0.004,0.07,0.26,0.95,0.28,-0.20,-0.02,
0.004,0.07,0.26,0.95,0.27,-0.20,-0.04,
0.006,0.07,0.27,0.95,0.27,-0.20,-0.04,
0.009,0.06,0.27,0.94,0.27,-0.20,-0.04,
0.009,0.06,0.27,0.94,0.27,-0.23,-0.11,
0.011,0.05,0.27,0.94,0.27,-0.23,-0.11,
0.014,0.04,0.28,0.94,0.27,-0.23,-0.11,
0.014,0.04,0.28,0.94,0.13,-0.18,-0.12,
0.016,0.04,0.29,0.93,0.13,-0.18,-0.12,
0.019,0.03,0.29,0.92,0.13,-0.18,-0.12,
0.019,0.03,0.29,0.92,-0.01,-0.09,-0.23,
0.021,0.02,0.29,0.92,-0.01,-0.09,-0.23,
0.024,0.02,0.29,0.92,-0.09,0.02,-0.35,
0.024,0.01,0.29,0.91,-0.09,0.02,-0.35,
0.026,-0.01,0.29,0.91,-0.09,0.02,-0.35,
0.028,-0.01,0.29,0.91,-0.09,0.02,-0.35,
0.029,-0.01,0.29,0.91,-0.31,0.06,-0.43,
0.031,-0.01,0.29,0.91,-0.31,0.06,-0.43,
0.033,-0.00,0.28,0.91,-0.31,0.06,-0.43,
0.034,-0.00,0.28,0.91,-0.52,0.06,-0.46,
0.036,0.00,0.28,0.91,-0.52,0.06,-0.46,
0.038,0.01,0.28,0.92,-0.52,0.06,-0.46,
0.038,0.01,0.28,0.92,-0.51,0.01,-0.48,
0.041,0.02,0.28,0.92,-0.51,0.01,-0.48,
0.043,0.03,0.27,0.92,-0.51,0.01,-0.48,
0.043,0.03,0.27,0.92,-0.34,-0.03,-0.44,
0.046,0.03,0.27,0.93,-0.34,-0.03,-0.44,
0.048,0.03,0.27,0.93,-0.19,-0.06,-0.38,
0.049,0.04,0.26,0.93,-0.19,-0.06,-0.38,
0.051,0.04,0.26,0.95,-0.19,-0.06,-0.38,
0.053,0.04,0.26,0.96,-0.19,-0.06,-0.38,
0.053,0.04,0.26,0.96,-0.04,-0.13,-0.28,
0.055,0.05,0.26,0.96,-0.04,-0.13,-0.28,
0.058,0.05,0.26,0.97,-0.04,-0.13,-0.28,
0.058,0.05,0.26,0.97,0.02,-0.13,-0.08,
0.061,0.05,0.27,0.98,0.02,-0.13,-0.08,
0.063,0.05,0.27,0.99,0.02,-0.13,-0.08,
0.064,0.05,0.27,0.99,0.11,-0.11,0.07,
0.065,0.06,0.27,1.00,0.11,-0.11,0.07,
0.068,0.06,0.27,1.00,0.11,-0.11,0.07,
0.068,0.06,0.27,1.00,0.13,-0.05,0.25,
0.07,0.06,0.27,1.00,0.13,-0.05,0.25,
0.073,0.06,0.28,1.01,0.13,-0.05,0.25,
0.073,0.06,0.28,1.01,0.18,-0.04,0.34,
0.075,0.06,0.28,1.01,0.18,-0.04,0.34,
0.078,0.06,0.28,1.01,0.20,0.04,0.40,
0.078,0.06,0.28,1.00,0.20,0.04,0.40,
0.08,0.06,0.29,1.00,0.20,0.04,0.40,
0.083,0.06,0.29,1.00,0.20,0.07,0.40,
0.083,0.06,0.29,1.00,0.20,0.07,0.40,
0.085,0.07,0.29,1.00,0.20,0.07,0.40,
0.088,0.07,0.29,1.00,0.20,0.07,0.40,
0.088,0.07,0.29,1.00,0.24,0.17,0.36,
0.09,0.08,0.30,0.99,0.24,0.17,0.36,
0.093,0.08,0.29,0.99,0.24,0.17,0.36,
0.093,0.08,0.29,0.99,0.31,0.22,0.34,
0.095,0.08,0.29,1.00,0.31,0.22,0.34,
0.098,0.08,0.29,1.00,0.38,0.24,0.26,
0.098,0.08,0.29,0.99,0.38,0.24,0.26,
0.1,0.08,0.29,0.98,0.38,0.24,0.26,
0.103,0.08,0.29,0.98,0.38,0.24,0.26,
0.103,0.08,0.29,0.98,0.41,0.21,0.26,
0.105,0.07,0.30,0.98,0.41,0.21,0.26,
0.108,0.08,0.29,0.99,0.41,0.21,0.26,
0.108,0.08,0.29,0.99,0.39,0.21,0.19,
0.11,0.07,0.29,0.98,0.39,0.21,0.19,
0.113,0.07,0.29,0.98,0.39,0.21,0.19,
0.113,0.07,0.29,0.98,0.38,0.23,0.19,
0.115,0.07,0.29,0.98,0.38,0.23,0.19,
0.118,0.06,0.29,0.98,0.38,0.23,0.19,
0.118,0.06,0.29,0.98,0.34,0.20,0.17,
0.12,0.06,0.29,0.97,0.34,0.20,0.17,
0.123,0.05,0.29,0.97,0.34,0.20,0.17,
0.123,0.05,0.29,0.97,0.27,0.15,0.13,
0.125,0.05,0.28,0.97,0.27,0.15,0.13,
0.128,0.05,0.28,0.98,0.27,0.15,0.13,
0.128,0.05,0.28,0.98,0.20,0.13,0.06,
0.13,0.04,0.28,0.97,0.20,0.13,0.06,
0.132,0.04,0.28,0.97,0.20,0.13,0.06,
0.133,0.04,0.28,0.97,0.12,0.06,0.08,
0.135,0.04,0.28,0.96,0.12,0.06,0.08,
0.137,0.04,0.28,0.96,0.03,0.06,0.07,
0.137,0.03,0.28,0.96,0.03,0.06,0.07,
0.14,0.03,0.28,0.96,0.03,0.06,0.07,
0.142,0.03,0.28,0.96,0.03,0.06,0.07,
0.142,0.03,0.28,0.96,-0.00,0.04,-0.00,
0.145,0.03,0.28,0.95,-0.00,0.04,-0.00,
0.147,0.03,0.28,0.95,-0.00,0.04,-0.00,
0.148,0.03,0.28,0.95,-0.07,-0.00,-0.05,
0.15,0.03,0.28,0.94,-0.07,-0.00,-0.05,
0.152,0.03,0.28,0.94,-0.04,-0.01,-0.15,
0.152,0.02,0.27,0.94,-0.04,-0.01,-0.15,
0.154,0.02,0.27,0.94,-0.04,-0.01,-0.15,
0.157,0.02,0.27,0.93,-0.04,-0.01,-0.15,
0.157,0.02,0.27,0.93,-0.08,-0.04,-0.22,
0.159,0.02,0.27,0.93,-0.08,-0.04,-0.22,
0.162,0.03,0.27,0.93,-0.08,-0.04,-0.22,
0.163,0.03,0.27,0.93,-0.09,-0.08,-0.27,
0.164,0.03,0.28,0.92,-0.09,-0.08,-0.27,
0.167,0.03,0.28,0.92,-0.09,-0.08,-0.27,
0.167,0.03,0.28,0.92,-0.07,-0.07,-0.35,
0.169,0.03,0.28,0.92,-0.07,-0.07,-0.35,
0.172,0.03,0.28,0.91,-0.07,-0.07,-0.35,
0.172,0.03,0.28,0.91,-0.03,-0.03,-0.41,
0.174,0.03,0.28,0.91,-0.03,-0.03,-0.41,
0.177,0.02,0.28,0.91,-0.03,-0.03,-0.41,
0.177,0.02,0.28,0.91,-0.02,-0.02,-0.46,
0.179,0.02,0.28,0.91,-0.02,-0.02,-0.46,
0.182,0.02,0.29,0.91,-0.02,-0.02,-0.46,
0.182,0.02,0.29,0.91,-0.04,-0.01,-0.48,
0.184,0.03,0.29,0.91,-0.04,-0.01,-0.48,
0.187,0.03,0.30,0.91,-0.04,-0.01,-0.48,
0.187,0.03,0.30,0.91,-0.06,0.04,-0.48,
0.189,0.03,0.30,0.91,-0.06,0.04,-0.48,
0.192,0.03,0.30,0.92,-0.06,0.04,-0.48,
0.192,0.03,0.30,0.92,-0.01,0.11,-0.48,
0.194,0.03,0.30,0.92,-0.01,0.11,-0.48,
0.199,0.03,0.30,0.92,-0.01,0.11,-0.48,
0.199,0.03,0.30,0.92,0.02,0.12,-0.43,
0.199,0.03,0.30,0.91,0.02,0.12,-0.43,
0.202,0.03,0.30,0.91,0.02,0.12,-0.43,
0.202,0.03,0.30,0.91,0.02,0.20,-0.41,
0.204,0.04,0.30,0.91,0.02,0.20,-0.41,
0.207,0.03,0.30,0.91,0.02,0.20,-0.41,
0.207,0.03,0.30,0.91,0.04,0.17,-0.45,
0.209,0.03,0.30,0.91,0.04,0.17,-0.45,
0.212,0.03,0.30,0.91,0.04,0.17,-0.45,
0.212,0.03,0.30,0.91,0.09,0.16,-0.48,
0.214,0.03,0.30,0.90,0.09,0.16,-0.48,
0.217,0.03,0.30,0.90,0.09,0.16,-0.48,
0.217,0.03,0.30,0.90,0.06,0.18,-0.48,
0.219,0.02,0.30,0.91,0.06,0.18,-0.48,
0.222,0.02,0.30,0.90,0.06,0.18,-0.48,
0.222,0.02,0.30,0.90,0.06,0.16,-0.54,
0.224,0.02,0.30,0.89,0.06,0.16,-0.54,
0.227,0.01,0.30,0.89,0.06,0.16,-0.54,
0.227,0.01,0.30,0.89,-0.02,0.16,-0.51,
0.229,0.01,0.29,0.89,-0.02,0.16,-0.51,
0.231,0.01,0.29,0.89,-0.07,0.12,-0.62,
0.232,0.01,0.29,0.89,-0.07,0.12,-0.62,
0.234,0.00,0.29,0.89,-0.07,0.12,-0.62,
0.236,-0.00,0.29,0.89,-0.07,0.12,-0.62,
0.236,-0.00,0.29,0.89,-0.12,0.07,-0.61,
0.239,-0.00,0.29,0.89,-0.12,0.07,-0.61,
0.241,-0.01,0.28,0.89,-0.12,0.07,-0.61,
0.241,-0.01,0.28,0.89,-0.17,0.05,-0.64,
0.244,-0.00,0.28,0.89,-0.17,0.05,-0.64,
0.246,-0.01,0.28,0.89,-0.17,0.05,-0.64,
0.246,-0.01,0.28,0.89,-0.20,-0.00,-0.67,
0.249,-0.01,0.27,0.90,-0.20,-0.00,-0.67,
0.251,-0.01,0.28,0.89,-0.20,-0.00,-0.67,
0.251,-0.01,0.28,0.89,-0.20,-0.05,-0.62,
0.253,-0.01,0.28,0.90,-0.20,-0.05,-0.62,
0.256,-0.00,0.27,0.90,-0.20,-0.05,-0.62,
0.256,-0.00,0.27,0.90,-0.22,-0.07,-0.55,
0.258,-0.00,0.27,0.89,-0.22,-0.07,-0.55,
0.261,-0.01,0.27,0.90,-0.22,-0.07,-0.55,
0.261,-0.01,0.27,0.90,-0.20,-0.08,-0.56,
0.263,-0.00,0.27,0.90,-0.20,-0.08,-0.56,
0.266,0.00,0.26,0.90,-0.20,-0.08,-0.56,
0.266,0.00,0.26,0.90,-0.20,-0.13,-0.55,
0.268,0.01,0.26,0.90,-0.20,-0.13,-0.55,
0.271,0.01,0.26,0.90,-0.20,-0.13,-0.55,
0.271,0.01,0.26,0.90,-0.16,-0.18,-0.55,
0.273,0.01,0.25,0.90,-0.16,-0.18,-0.55,
0.276,0.01,0.25,0.89,-0.16,-0.18,-0.55,
0.276,0.01,0.25,0.89,-0.07,-0.25,-0.54,
0.278,0.01,0.25,0.90,-0.07,-0.25,-0.54,
0.281,0.01,0.25,0.90,-0.07,-0.25,-0.54,
0.281,0.01,0.25,0.90,-0.04,-0.28,-0.56,
0.283,0.01,0.24,0.90,-0.04,-0.28,-0.56,
0.286,0.01,0.24,0.89,-0.04,-0.28,-0.56,
0.286,0.01,0.24,0.89,-0.07,-0.33,-0.52,
0.288,0.01,0.24,0.89,-0.07,-0.33,-0.52,
0.291,0.01,0.24,0.89,-0.05,-0.40,-0.57,
0.291,0.01,0.24,0.89,-0.05,-0.40,-0.57,
0.293,0.01,0.24,0.88,-0.05,-0.40,-0.57,
0.296,0.01,0.24,0.88,-0.05,-0.40,-0.57,
0.296,0.01,0.24,0.88,-0.05,-0.43,-0.59,
0.298,0.00,0.23,0.88,-0.05,-0.43,-0.59,
0.301,0.01,0.24,0.87,-0.05,-0.43,-0.59,
0.301,0.01,0.24,0.87,-0.04,-0.44,-0.68,
0.303,0.01,0.24,0.87,-0.04,-0.44,-0.68,
0.306,0.01,0.23,0.86,-0.04,-0.44,-0.68,
0.306,0.01,0.23,0.86,-0.07,-0.44,-0.73,
0.308,0.01,0.23,0.86,-0.07,-0.44,-0.73,
0.311,0.00,0.23,0.86,-0.07,-0.44,-0.73,
0.311,0.00,0.23,0.86,-0.04,-0.45,-0.79,
0.313,0.00,0.23,0.85,-0.04,-0.45,-0.79,
0.316,0.01,0.23,0.85,-0.04,-0.45,-0.79,
0.316,0.01,0.23,0.85,-0.05,-0.46,-0.85,
0.318,0.01,0.23,0.84,-0.05,-0.46,-0.85,
0.321,0.00,0.22,0.84,-0.05,-0.46,-0.85,
0.321,0.00,0.22,0.84,-0.06,-0.47,-0.95,
0.323,-0.00,0.22,0.84,-0.06,-0.47,-0.95,
0.326,-0.00,0.22,0.84,-0.05,-0.51,-1.03,
0.326,0.00,0.22,0.83,-0.05,-0.51,-1.03,
0.328,0.00,0.22,0.83,-0.05,-0.51,-1.03,
0.331,0.00,0.22,0.83,-0.08,-0.56,-1.11,
0.331,0.00,0.21,0.83,-0.08,-0.56,-1.11,
0.333,0.00,0.21,0.82,-0.08,-0.56,-1.11,
0.336,0.01,0.20,0.82,-0.08,-0.56,-1.11,
0.336,0.01,0.20,0.82,-0.06,-0.62,-1.13,
0.338,0.01,0.21,0.82,-0.06,-0.62,-1.13,
0.34,0.01,0.21,0.82,-0.06,-0.62,-1.13,
0.34,0.01,0.21,0.82,-0.04,-0.68,-1.17,
0.343,0.01,0.21,0.82,-0.04,-0.68,-1.17,
0.345,0.02,0.20,0.81,-0.04,-0.68,-1.17,
0.345,0.02,0.20,0.81,-0.01,-0.66,-1.21,
0.348,0.02,0.20,0.81,-0.01,-0.66,-1.21,
0.35,0.02,0.20,0.82,-0.01,-0.66,-1.21,
0.351,0.02,0.20,0.82,0.07,-0.71,-1.25,
0.353,0.02,0.20,0.81,0.07,-0.71,-1.25,
0.355,0.03,0.20,0.81,0.07,-0.71,-1.25,
0.355,0.03,0.20,0.81,0.10,-0.75,-1.22,
0.357,0.02,0.20,0.81,0.10,-0.75,-1.22,
0.36,0.03,0.19,0.80,0.10,-0.75,-1.22,
0.36,0.03,0.19,0.80,0.17,-0.74,-1.24,
0.362,0.03,0.19,0.81,0.17,-0.74,-1.24,
0.365,0.03,0.19,0.80,0.17,-0.74,-1.24,
0.365,0.03,0.19,0.80,0.17,-0.78,-1.29,
0.367,0.03,0.19,0.80,0.17,-0.78,-1.29,
0.37,0.03,0.19,0.80,0.17,-0.78,-1.29,
0.37,0.03,0.19,0.80,0.22,-0.80,-1.29,
0.372,0.03,0.19,0.80,0.22,-0.80,-1.29,
0.375,0.03,0.18,0.80,0.22,-0.80,-1.29,
0.375,0.03,0.18,0.80,0.20,-0.86,-1.31,
0.377,0.04,0.18,0.79,0.20,-0.86,-1.31,
0.38,0.05,0.17,0.79,0.20,-0.86,-1.31,
0.38,0.05,0.17,0.79,0.26,-0.91,-1.32,
0.382,0.05,0.17,0.78,0.26,-0.91,-1.32,
0.385,0.06,0.17,0.78,0.26,-0.91,-1.32,
0.385,0.06,0.17,0.78,0.38,-0.99,-1.37,
0.387,0.07,0.17,0.77,0.38,-0.99,-1.37,
0.39,0.07,0.16,0.76,0.38,-0.99,-1.37,
0.39,0.07,0.16,0.76,0.47,-1.04,-1.46,
0.392,0.07,0.17,0.75,0.47,-1.04,-1.46,
0.395,0.07,0.17,0.75,0.47,-1.04,-1.46,
0.395,0.07,0.17,0.75,0.56,-1.09,-1.61,
0.397,0.07,0.17,0.73,0.56,-1.09,-1.61,
0.4,0.08,0.17,0.73,0.56,-1.09,-1.61,
0.4,0.08,0.17,0.73,0.61,-1.08,-1.74,
0.402,0.08,0.17,0.73,0.61,-1.08,-1.74,
0.405,0.08,0.18,0.73,0.61,-1.08,-1.74,
0.405,0.08,0.18,0.73,0.66,-1.04,-1.88,
0.407,0.08,0.18,0.73,0.66,-1.04,-1.88,
0.41,0.08,0.19,0.72,0.66,-1.04,-1.88,
0.41,0.08,0.19,0.72,0.70,-1.05,-1.88,
0.412,0.08,0.18,0.71,0.70,-1.05,-1.88,
0.415,0.08,0.18,0.71,0.70,-1.05,-1.88,
0.415,0.08,0.18,0.71,0.70,-0.96,-1.97,
0.417,0.07,0.19,0.70,0.70,-0.96,-1.97,
0.42,0.06,0.19,0.69,0.70,-0.96,-1.97,
0.42,0.06,0.19,0.69,0.68,-0.98,-2.06,
0.422,0.06,0.18,0.69,0.68,-0.98,-2.06,
0.424,0.06,0.17,0.68,0.68,-0.98,-2.06,
0.425,0.06,0.17,0.68,0.55,-0.98,-2.16,
0.427,0.06,0.17,0.67,0.55,-0.98,-2.16,
0.429,0.05,0.17,0.66,0.55,-0.98,-2.16,
0.43,0.05,0.17,0.66,0.52,-1.10,-2.25,
0.432,0.05,0.16,0.66,0.52,-1.10,-2.25,
0.435,0.05,0.16,0.64,0.52,-1.10,-2.25,
0.435,0.05,0.16,0.64,0.47,-1.14,-2.44,
0.437,0.05,0.16,0.64,0.47,-1.14,-2.44,
0.439,0.05,0.14,0.63,0.47,-1.14,-2.44,
0.44,0.05,0.14,0.63,0.45,-1.24,-2.57,
0.442,0.04,0.15,0.63,0.45,-1.24,-2.57,
0.444,0.05,0.14,0.61,0.45,-1.24,-2.57,
0.444,0.05,0.14,0.61,0.44,-1.37,-2.69,
0.447,0.04,0.14,0.61,0.44,-1.37,-2.69,
0.449,0.04,0.14,0.60,0.44,-1.37,-2.69,
0.449,0.04,0.14,0.60,0.41,-1.43,-2.84,
0.452,0.03,0.13,0.59,0.41,-1.43,-2.84,
0.454,0.03,0.13,0.59,0.41,-1.43,-2.84,
0.454,0.03,0.13,0.59,0.38,-1.51,-2.96,
0.456,0.03,0.13,0.59,0.38,-1.51,-2.96,
0.459,0.03,0.13,0.59,0.38,-1.51,-2.96,
0.459,0.03,0.13,0.59,0.33,-1.58,-3.05,
0.461,0.03,0.13,0.60,0.33,-1.58,-3.05,
0.464,0.03,0.13,0.59,0.33,-1.58,-3.05,
0.464,0.03,0.13,0.59,0.32,-1.58,-3.05,
0.466,0.03,0.13,0.59,0.32,-1.58,-3.05,
0.469,0.03,0.14,0.59,0.32,-1.58,-3.05,
0.469,0.03,0.14,0.59,0.32,-1.59,-3.00,
0.471,0.03,0.15,0.59,0.32,-1.59,-3.00,
0.474,0.04,0.15,0.59,0.32,-1.59,-3.00,
0.474,0.04,0.15,0.59,0.32,-1.51,-3.05,
0.476,0.05,0.16,0.59,0.32,-1.51,-3.05,
0.479,0.05,0.17,0.59,0.32,-1.51,-3.05,
0.479,0.05,0.17,0.59,0.35,-1.35,-3.02,
0.482,0.06,0.17,0.59,0.35,-1.35,-3.02,
0.484,0.07,0.18,0.60,0.35,-1.35,-3.02,
0.484,0.07,0.18,0.60,0.49,-1.21,-3.02,
0.486,0.08,0.19,0.60,0.49,-1.21,-3.02,
0.489,0.09,0.20,0.60,0.49,-1.21,-3.02,
0.489,0.09,0.20,0.60,0.63,-1.06,-2.94,
0.491,0.10,0.21,0.61,0.63,-1.06,-2.94,
0.494,0.10,0.22,0.62,0.63,-1.06,-2.94,
0.494,0.10,0.22,0.62,0.79,-0.87,-2.86,
0.496,0.11,0.22,0.62,0.79,-0.87,-2.86,
0.499,0.12,0.23,0.63,0.79,-0.87,-2.86,
0.499,0.12,0.23,0.63,0.89,-0.69,-2.69,
0.501,0.12,0.24,0.63,0.89,-0.69,-2.69,
0.504,0.13,0.24,0.64,0.89,-0.69,-2.69,
0.505,0.13,0.24,0.64,1.02,-0.52,-2.59,
0.507,0.14,0.25,0.65,1.02,-0.52,-2.59,
0.509,0.14,0.25,0.65,1.02,-0.52,-2.59,
0.509,0.14,0.25,0.65,1.13,-0.39,-2.48,
0.512,0.15,0.26,0.66,1.13,-0.39,-2.48,
0.514,0.15,0.26,0.67,1.13,-0.39,-2.48,
0.514,0.15,0.26,0.67,1.24,-0.26,-2.39,
0.521,0.16,0.27,0.68,1.24,-0.26,-2.39,
0.522,0.16,0.27,0.68,1.24,-0.26,-2.39,
0.522,0.16,0.27,0.68,1.29,-0.08,-2.22,
0.522,0.16,0.28,0.69,1.29,-0.08,-2.22,
0.524,0.17,0.28,0.70,1.29,-0.08,-2.22,
0.524,0.17,0.28,0.70,1.37,0.03,-2.06,
0.526,0.17,0.29,0.72,1.37,0.03,-2.06,
0.529,0.17,0.29,0.73,1.37,0.03,-2.06,
0.529,0.17,0.29,0.73,1.40,0.13,-1.88,
0.531,0.17,0.29,0.74,1.40,0.13,-1.88,
0.534,0.17,0.29,0.75,1.40,0.13,-1.88,
0.535,0.17,0.29,0.75,1.45,0.24,-1.63,
0.536,0.17,0.29,0.77,1.45,0.24,-1.63,
0.538,0.17,0.29,0.79,1.45,0.24,-1.63,
0.539,0.17,0.29,0.79,1.41,0.30,-1.40,
0.541,0.16,0.29,0.80,1.41,0.30,-1.40,
0.544,0.16,0.28,0.82,1.41,0.30,-1.40,
0.544,0.16,0.28,0.82,1.37,0.34,-1.10,
0.546,0.15,0.27,0.83,1.37,0.34,-1.10,
0.552,0.14,0.27,0.85,1.37,0.34,-1.10,
0.553,0.14,0.27,0.85,1.24,0.32,-0.80,
0.553,0.14,0.26,0.86,1.24,0.32,-0.80,
0.554,0.13,0.26,0.87,1.24,0.32,-0.80,
0.554,0.13,0.26,0.87,1.12,0.24,-0.52,
0.556,0.13,0.26,0.89,1.12,0.24,-0.52,
0.558,0.12,0.25,0.90,1.12,0.24,-0.52,
0.559,0.12,0.25,0.90,1.00,0.20,-0.25,
0.561,0.12,0.25,0.91,1.00,0.20,-0.25,
0.563,0.11,0.25,0.92,1.00,0.20,-0.25,
0.564,0.11,0.25,0.92,0.88,0.18,-0.02,
0.567,0.10,0.24,0.94,0.88,0.18,-0.02,
0.568,0.09,0.25,0.95,0.88,0.18,-0.02,
0.569,0.09,0.25,0.95,0.74,0.15,0.20,
0.571,0.09,0.24,0.96,0.74,0.15,0.20,
0.573,0.08,0.24,0.97,0.74,0.15,0.20,
0.574,0.08,0.24,0.97,0.57,0.15,0.47,
0.575,0.08,0.24,0.98,0.57,0.15,0.47,
0.579,0.08,0.24,0.98,0.43,0.15,0.65,
0.579,0.08,0.24,0.98,0.43,0.15,0.65,
0.58,0.08,0.24,0.99,0.43,0.15,0.65,
0.583,0.09,0.24,1.00,0.43,0.15,0.65,
0.584,0.09,0.24,1.00,0.36,0.18,0.82,
0.585,0.09,0.24,1.00,0.36,0.18,0.82,
0.588,0.09,0.24,1.01,0.36,0.18,0.82,
0.588,0.09,0.24,1.01,0.36,0.21,0.92,
0.591,0.09,0.24,1.01,0.36,0.21,0.92,
0.593,0.10,0.24,1.02,0.36,0.21,0.92,
0.593,0.10,0.24,1.02,0.41,0.28,0.99,
0.595,0.10,0.24,1.02,0.41,0.28,0.99,
0.598,0.11,0.24,1.01,0.41,0.28,0.99,
0.598,0.11,0.24,1.01,0.44,0.31,1.08,
0.6,0.12,0.24,1.02,0.44,0.31,1.08,
0.603,0.12,0.24,1.01,0.44,0.31,1.08,
0.603,0.12,0.24,1.01,0.54,0.34,1.09,
0.605,0.13,0.24,1.01,0.54,0.34,1.09,
0.608,0.14,0.24,1.01,0.54,0.34,1.09,
0.608,0.14,0.24,1.01,0.61,0.37,1.06,
0.61,0.14,0.24,1.00,0.61,0.37,1.06,
0.613,0.15,0.24,1.00,0.61,0.37,1.06,
0.613,0.15,0.24,1.00,0.74,0.39,1.01,
0.615,0.15,0.24,1.00,0.74,0.39,1.01,
0.622,0.15,0.23,1.00,0.74,0.39,1.01,
0.623,0.15,0.23,1.00,0.87,0.44,0.92,
0.623,0.16,0.24,0.99,0.87,0.44,0.92,
0.623,0.16,0.23,0.99,0.87,0.44,0.92,
0.623,0.16,0.23,0.99,0.91,0.42,0.92,
0.625,0.16,0.23,0.99,0.91,0.42,0.92,
0.628,0.16,0.23,0.99,0.97,0.46,0.78,
0.628,0.15,0.23,0.98,0.97,0.46,0.78,
0.63,0.15,0.23,0.98,0.97,0.46,0.78,
0.633,0.15,0.23,0.98,0.91,0.46,0.71,
0.634,0.15,0.23,0.98,0.91,0.46,0.71,
0.635,0.15,0.22,0.97,0.91,0.46,0.71,
0.639,0.15,0.22,0.97,0.84,0.44,0.65,
0.64,0.14,0.22,0.96,0.84,0.44,0.65,
0.64,0.14,0.22,0.97,0.84,0.44,0.65,
0.643,0.14,0.22,0.97,0.79,0.41,0.53,
0.644,0.14,0.22,0.96,0.79,0.41,0.53,
0.645,0.13,0.21,0.96,0.79,0.41,0.53,
0.648,0.12,0.21,0.97,0.79,0.41,0.53,
0.648,0.12,0.21,0.97,0.74,0.43,0.50,
0.651,0.11,0.21,0.97,0.74,0.43,0.50,
0.653,0.10,0.21,0.97,0.74,0.43,0.50,
0.653,0.10,0.21,0.97,0.58,0.44,0.47,
0.655,0.10,0.20,0.98,0.58,0.44,0.47,
0.658,0.09,0.20,0.98,0.58,0.44,0.47,
0.66,0.09,0.20,0.98,0.41,0.43,0.52,
0.66,0.08,0.19,0.99,0.41,0.43,0.52,
0.662,0.07,0.19,1.00,0.41,0.43,0.52,
0.662,0.07,0.19,1.00,0.26,0.38,0.62,
0.664,0.06,0.18,1.02,0.26,0.38,0.62,
0.667,0.05,0.18,1.02,0.26,0.38,0.62,
0.668,0.05,0.18,1.02,0.04,0.36,0.76,
0.67,0.05,0.17,1.02,0.04,0.36,0.76,
0.672,0.05,0.17,1.02,-0.14,0.27,0.94,
0.673,0.05,0.16,1.03,-0.14,0.27,0.94,
0.675,0.05,0.15,1.04,-0.14,0.27,0.94,
0.677,0.06,0.15,1.04,-0.14,0.27,0.94,
0.677,0.06,0.15,1.04,-0.22,0.20,1.04,
0.68,0.05,0.13,1.05,-0.22,0.20,1.04,
0.682,0.05,0.13,1.05,-0.22,0.20,1.04,
0.683,0.05,0.13,1.05,-0.21,0.09,1.16,
0.685,0.06,0.12,1.06,-0.21,0.09,1.16,
0.687,0.06,0.11,1.07,-0.21,0.09,1.16,
0.688,0.06,0.11,1.07,-0.23,-0.04,1.26,
0.69,0.07,0.11,1.07,-0.23,-0.04,1.26,
0.692,0.07,0.11,1.07,-0.17,-0.12,1.37,
0.692,0.08,0.11,1.08,-0.17,-0.12,1.37,
0.695,0.09,0.10,1.08,-0.17,-0.12,1.37,
0.697,0.10,0.10,1.08,-0.17,-0.12,1.37,
0.698,0.10,0.10,1.08,-0.05,-0.18,1.43,
0.701,0.10,0.10,1.09,-0.05,-0.18,1.43,
0.702,0.11,0.10,1.10,-0.05,-0.18,1.43,
0.702,0.11,0.10,1.10,0.09,-0.23,1.53,
0.704,0.11,0.10,1.10,0.09,-0.23,1.53,
0.707,0.11,0.11,1.11,0.09,-0.23,1.53,
0.707,0.11,0.11,1.11,0.17,-0.12,1.62,
0.709,0.11,0.11,1.11,0.17,-0.12,1.62,
0.712,0.12,0.11,1.11,0.17,-0.12,1.62,
0.712,0.12,0.11,1.11,0.21,-0.03,1.71,
0.714,0.11,0.11,1.12,0.21,-0.03,1.71,
0.718,0.12,0.12,1.13,0.21,-0.03,1.71,
0.718,0.12,0.12,1.13,0.22,0.08,1.79,
0.719,0.13,0.12,1.12,0.22,0.08,1.79,
0.722,0.12,0.12,1.12,0.22,0.08,1.79,
0.722,0.12,0.12,1.12,0.23,0.17,1.85,
0.725,0.13,0.12,1.12,0.23,0.17,1.85,
0.727,0.13,0.12,1.13,0.23,0.17,1.85,
0.727,0.13,0.12,1.13,0.30,0.24,1.84,
0.729,0.13,0.11,1.13,0.30,0.24,1.84,
0.732,0.13,0.11,1.13,0.31,0.26,1.89,
0.732,0.13,0.10,1.12,0.31,0.26,1.89,
0.737,0.13,0.10,1.12,0.31,0.26,1.89,
0.737,0.13,0.09,1.12,0.31,0.26,1.89,
0.738,0.13,0.09,1.12,0.29,0.21,1.82,
0.739,0.13,0.08,1.11,0.29,0.21,1.82,
0.742,0.13,0.08,1.11,0.27,0.13,1.78,
0.742,0.12,0.08,1.12,0.27,0.13,1.78,
0.744,0.12,0.07,1.12,0.27,0.13,1.78,
0.747,0.11,0.06,1.12,0.27,0.13,1.78,
0.747,0.11,0.06,1.12,0.20,0.04,1.77,
0.749,0.10,0.05,1.12,0.20,0.04,1.77,
0.752,0.10,0.04,1.12,0.20,0.04,1.77,
0.752,0.10,0.04,1.12,0.06,-0.08,1.77,
0.754,0.10,0.03,1.12,0.06,-0.08,1.77,
0.756,0.10,0.03,1.12,0.06,-0.08,1.77,
0.757,0.10,0.03,1.12,-0.06,-0.23,1.76,
0.759,0.09,0.02,1.12,-0.06,-0.23,1.76,
0.761,0.08,0.02,1.12,-0.06,-0.23,1.76,
0.762,0.08,0.02,1.12,-0.11,-0.31,1.80,
0.763,0.08,0.01,1.12,-0.11,-0.31,1.80,
0.767,0.07,0.01,1.13,-0.11,-0.31,1.80,
0.768,0.07,0.01,1.13,-0.29,-0.39,1.79,
0.769,0.06,0.02,1.12,-0.29,-0.39,1.79,
0.771,0.06,0.02,1.12,-0.29,-0.39,1.79,
0.771,0.06,0.02,1.12,-0.40,-0.40,1.81,
0.773,0.06,0.02,1.12,-0.40,-0.40,1.81,
0.776,0.05,0.02,1.11,-0.40,-0.40,1.81,
0.776,0.05,0.02,1.11,-0.55,-0.31,1.73,
0.779,0.06,0.02,1.10,-0.55,-0.31,1.73,
0.782,0.05,0.03,1.10,-0.55,-0.31,1.73,
0.782,0.05,0.03,1.10,-0.61,-0.26,1.68,
0.784,0.06,0.03,1.09,-0.61,-0.26,1.68,
0.787,0.05,0.03,1.09,-0.61,-0.26,1.68,
0.787,0.05,0.03,1.09,-0.65,-0.17,1.57,
0.788,0.05,0.03,1.09,-0.65,-0.17,1.57,
0.791,0.05,0.03,1.08,-0.65,-0.17,1.57,
0.792,0.05,0.03,1.08,-0.68,-0.08,1.47,
0.793,0.06,0.03,1.07,-0.68,-0.08,1.47,
0.796,0.06,0.03,1.06,-0.68,-0.08,1.47,
0.796,0.06,0.03,1.06,-0.73,-0.04,1.36,
0.798,0.07,0.03,1.05,-0.73,-0.04,1.36,
0.802,0.08,0.02,1.05,-0.73,-0.04,1.36,
0.802,0.08,0.02,1.05,-0.66,-0.01,1.18,
0.803,0.09,0.02,1.05,-0.66,-0.01,1.18,
0.806,0.10,0.02,1.04,-0.66,-0.01,1.18,
0.806,0.10,0.02,1.04,-0.52,-0.02,1.06,
0.808,0.12,0.02,1.05,-0.52,-0.02,1.06,
0.811,0.13,0.02,1.06,-0.52,-0.02,1.06,
0.811,0.13,0.02,1.06,-0.30,-0.00,1.00,
0.813,0.14,0.01,1.06,-0.30,-0.00,1.00,
0.816,0.16,0.02,1.06,-0.30,-0.00,1.00,
0.816,0.16,0.02,1.06,-0.06,0.01,1.06,
0.818,0.16,0.02,1.07,-0.06,0.01,1.06,
0.821,0.17,0.02,1.07,-0.06,0.01,1.06,
0.821,0.17,0.02,1.07,0.18,0.03,1.14,
0.824,0.17,0.02,1.08,0.18,0.03,1.14,
0.826,0.18,0.02,1.09,0.18,0.03,1.14,
0.826,0.18,0.02,1.09,0.31,0.13,1.22,
0.828,0.18,0.01,1.10,0.31,0.13,1.22,
0.831,0.18,0.01,1.10,0.31,0.13,1.22,
0.832,0.18,0.01,1.10,0.39,0.22,1.38,
0.835,0.18,0.01,1.11,0.39,0.22,1.38,
0.84,0.17,0.01,1.11,0.39,0.22,1.38,
0.84,0.17,0.01,1.11,0.42,0.20,1.51,
0.84,0.17,0.01,1.13,0.42,0.20,1.51,
0.841,0.17,0.00,1.14,0.42,0.20,1.51,
0.841,0.17,0.00,1.14,0.36,0.25,1.62,
0.843,0.16,-0.00,1.15,0.36,0.25,1.62,
0.846,0.15,-0.01,1.15,0.36,0.25,1.62,
0.846,0.15,-0.01,1.15,0.32,0.22,1.84,
0.85,0.13,-0.02,1.16,0.32,0.22,1.84,
0.852,0.12,-0.02,1.17,0.32,0.22,1.84,
0.853,0.12,-0.02,1.17,0.12,0.19,2.00,
0.853,0.12,-0.03,1.18,0.12,0.19,2.00,
0.856,0.11,-0.04,1.19,0.12,0.19,2.00,
0.856,0.11,-0.04,1.19,-0.12,0.10,2.15,
0.858,0.11,-0.06,1.20,-0.12,0.10,2.15,
0.861,0.10,-0.06,1.20,-0.12,0.10,2.15,
0.861,0.10,-0.06,1.20,-0.29,-0.01,2.33,
0.863,0.10,-0.07,1.20,-0.29,-0.01,2.33,
0.865,0.10,-0.07,1.20,-0.29,-0.01,2.33,
0.866,0.10,-0.07,1.20,-0.40,-0.17,2.43,
0.868,0.09,-0.08,1.20,-0.40,-0.17,2.43,
0.87,0.08,-0.09,1.20,-0.40,-0.17,2.43,
0.871,0.08,-0.09,1.20,-0.46,-0.25,2.47,
0.873,0.08,-0.09,1.21,-0.46,-0.25,2.47,
0.876,0.08,-0.10,1.21,-0.46,-0.25,2.47,
0.876,0.08,-0.10,1.21,-0.59,-0.34,2.47,
0.878,0.07,-0.11,1.21,-0.59,-0.34,2.47,
0.881,0.07,-0.11,1.21,-0.59,-0.34,2.47,
0.881,0.07,-0.11,1.21,-0.69,-0.41,2.53,
0.883,0.08,-0.12,1.21,-0.69,-0.41,2.53,
0.886,0.07,-0.12,1.21,-0.69,-0.41,2.53,
0.886,0.07,-0.12,1.21,-0.75,-0.49,2.52,
0.887,0.07,-0.13,1.21,-0.75,-0.49,2.52,
0.891,0.06,-0.12,1.21,-0.75,-0.49,2.52,
0.891,0.06,-0.12,1.21,-0.74,-0.55,2.56,
0.893,0.07,-0.12,1.22,-0.74,-0.55,2.56,
0.896,0.06,-0.12,1.22,-0.74,-0.55,2.56,
0.896,0.06,-0.12,1.22,-0.85,-0.56,2.56,
0.898,0.06,-0.12,1.22,-0.85,-0.56,2.56,
0.902,0.06,-0.11,1.22,-0.85,-0.56,2.56,
0.902,0.06,-0.11,1.22,-0.87,-0.49,2.59,
0.903,0.06,-0.11,1.23,-0.87,-0.49,2.59,
0.905,0.06,-0.10,1.23,-0.87,-0.49,2.59,
0.905,0.06,-0.10,1.23,-0.90,-0.36,2.62,
0.908,0.06,-0.09,1.24,-0.90,-0.36,2.62,
0.911,0.05,-0.09,1.24,-0.90,-0.36,2.62,
0.911,0.05,-0.09,1.24,-0.92,-0.21,2.70,
0.913,0.05,-0.08,1.25,-0.92,-0.21,2.70,
0.916,0.05,-0.08,1.25,-0.98,-0.02,2.80,
0.916,0.05,-0.07,1.26,-0.98,-0.02,2.80,
0.919,0.05,-0.07,1.27,-0.98,-0.02,2.80,
0.92,0.05,-0.08,1.27,-0.98,-0.02,2.80,
0.92,0.05,-0.08,1.27,-1.01,0.14,2.96,
0.922,0.06,-0.08,1.28,-1.01,0.14,2.96,
0.926,0.07,-0.08,1.29,-1.01,0.14,2.96,
0.926,0.07,-0.08,1.29,-0.98,0.18,3.11,
0.928,0.08,-0.08,1.29,-0.98,0.18,3.11,
0.93,0.09,-0.09,1.29,-0.98,0.18,3.11,
0.93,0.09,-0.09,1.29,-0.90,0.18,3.24,
0.932,0.09,-0.09,1.30,-0.90,0.18,3.24,
0.935,0.10,-0.10,1.30,-0.90,0.18,3.24,
0.935,0.10,-0.10,1.30,-0.71,0.18,3.30,
0.937,0.11,-0.09,1.30,-0.71,0.18,3.30,
0.94,0.11,-0.09,1.30,-0.58,0.10,3.35,
0.94,0.11,-0.09,1.30,-0.58,0.10,3.35,
0.943,0.11,-0.10,1.30,-0.58,0.10,3.35,
0.945,0.12,-0.10,1.30,-0.58,0.10,3.35,
0.945,0.12,-0.10,1.30,-0.45,0.14,3.37,
0.948,0.12,-0.10,1.30,-0.45,0.14,3.37,
0.95,0.13,-0.10,1.29,-0.45,0.14,3.37,
0.95,0.13,-0.10,1.29,-0.40,0.13,3.33,
0.956,0.13,-0.10,1.29,-0.40,0.13,3.33,
0.957,0.14,-0.11,1.28,-0.40,0.13,3.33,
0.957,0.14,-0.11,1.28,-0.34,0.11,3.28,
0.957,0.14,-0.10,1.27,-0.34,0.11,3.28,
0.96,0.14,-0.10,1.27,-0.24,0.11,3.15,
0.96,0.14,-0.10,1.27,-0.24,0.11,3.15,
0.962,0.14,-0.10,1.26,-0.24,0.11,3.15,
0.965,0.14,-0.09,1.26,-0.24,0.11,3.15,
0.965,0.14,-0.09,1.26,-0.16,0.15,3.02,
0.967,0.13,-0.09,1.25,-0.16,0.15,3.02,
0.969,0.13,-0.08,1.24,-0.16,0.15,3.02,
0.97,0.13,-0.08,1.24,-0.17,0.21,2.90,
0.972,0.12,-0.08,1.23,-0.17,0.21,2.90,
0.975,0.12,-0.08,1.21,-0.17,0.21,2.90,
0.975,0.12,-0.08,1.21,-0.24,0.30,2.74,
0.977,0.11,-0.08,1.21,-0.24,0.30,2.74,
0.98,0.11,-0.08,1.20,-0.24,0.30,2.74,
0.98,0.11,-0.08,1.20,-0.35,0.40,2.50,
0.982,0.10,-0.07,1.19,-0.35,0.40,2.50,
0.984,0.09,-0.08,1.18,-0.35,0.40,2.50,
0.985,0.09,-0.08,1.18,-0.47,0.43,2.35,
0.988,0.09,-0.08,1.17,-0.47,0.43,2.35,
0.99,0.09,-0.08,1.17,-0.54,0.45,2.17,
0.991,0.09,-0.08,1.17,-0.54,0.45,2.17,
0.992,0.09,-0.08,1.16,-0.54,0.45,2.17,
0.994,0.09,-0.09,1.16,-0.54,0.45,2.17,
0.994,0.09,-0.09,1.16,-0.61,0.42,2.02,
0.996,0.08,-0.10,1.16,-0.61,0.42,2.02,
0.999,0.08,-0.10,1.15,-0.61,0.42,2.02,
0.999,0.08,-0.10,1.15,-0.63,0.37,1.88,
1.002,0.08,-0.11,1.15,-0.63,0.37,1.88,
1.004,0.09,-0.11,1.15,-0.63,0.37,1.88,
1.004,0.09,-0.11,1.15,-0.65,0.25,1.81,
1.006,0.09,-0.11,1.15,-0.65,0.25,1.81,
1.009,0.09,-0.11,1.14,-0.65,0.25,1.81,
1.009,0.09,-0.11,1.14,-0.63,0.18,1.76,
1.011,0.09,-0.12,1.14,-0.63,0.18,1.76,
1.014,0.10,-0.12,1.14,-0.63,0.18,1.76,
1.014,0.10,-0.12,1.14,-0.58,0.13,1.74,
1.016,0.10,-0.12,1.14,-0.58,0.13,1.74,
1.02,0.11,-0.12,1.14,-0.58,0.13,1.74,
1.02,0.11,-0.12,1.14,-0.49,0.08,1.69,
1.021,0.11,-0.11,1.14,-0.49,0.08,1.69,
1.024,0.11,-0.11,1.15,-0.49,0.08,1.69,
1.024,0.11,-0.11,1.15,-0.38,0.07,1.66,
1.026,0.12,-0.10,1.15,-0.38,0.07,1.66,
1.028,0.12,-0.09,1.15,-0.38,0.07,1.66,
1.029,0.12,-0.09,1.15,-0.29,0.19,1.72,
1.031,0.13,-0.08,1.15,-0.29,0.19,1.72,
1.035,0.14,-0.07,1.15,-0.29,0.19,1.72,
1.035,0.14,-0.07,1.15,-0.16,0.37,1.75,
1.036,0.15,-0.06,1.15,-0.16,0.37,1.75,
1.039,0.16,-0.06,1.15,-0.16,0.37,1.75,
1.039,0.16,-0.06,1.15,-0.03,0.52,1.75,
1.041,0.17,-0.05,1.15,-0.03,0.52,1.75,
1.044,0.18,-0.05,1.15,-0.03,0.52,1.75,
1.044,0.18,-0.05,1.15,0.15,0.69,1.75,
1.046,0.18,-0.04,1.15,0.15,0.69,1.75,
1.048,0.20,-0.04,1.15,0.15,0.69,1.75,
1.049,0.20,-0.04,1.15,0.35,0.80,1.75,
1.054,0.20,-0.04,1.15,0.35,0.80,1.75,
1.054,0.21,-0.04,1.15,0.35,0.80,1.75,
1.054,0.21,-0.04,1.15,0.52,0.90,1.75,
1.056,0.22,-0.04,1.15,0.52,0.90,1.75,
1.059,0.22,-0.04,1.15,0.52,0.90,1.75,
1.059,0.22,-0.04,1.15,0.70,0.91,1.72,
1.061,0.21,-0.04,1.16,0.70,0.91,1.72,
1.064,0.21,-0.04,1.16,0.79,0.91,1.75,
1.064,0.21,-0.05,1.17,0.79,0.91,1.75,
1.066,0.21,-0.04,1.17,0.79,0.91,1.75,
1.072,0.21,-0.05,1.18,0.79,0.91,1.75,
1.073,0.21,-0.05,1.18,0.76,0.85,1.84,
1.073,0.21,-0.05,1.18,0.76,0.85,1.84,
1.074,0.20,-0.05,1.18,0.76,0.85,1.84,
1.074,0.20,-0.05,1.18,0.72,0.85,1.95,
1.076,0.20,-0.06,1.18,0.72,0.85,1.95,
1.078,0.20,-0.07,1.19,0.72,0.85,1.95,
1.078,0.20,-0.07,1.19,0.67,0.79,1.99,
1.08,0.19,-0.07,1.19,0.67,0.79,1.99,
1.083,0.19,-0.08,1.19,0.67,0.79,1.99,
1.083,0.19,-0.08,1.19,0.59,0.70,2.03,
1.085,0.18,-0.08,1.19,0.59,0.70,2.03,
1.088,0.18,-0.09,1.19,0.59,0.70,2.03,
1.088,0.18,-0.09,1.19,0.51,0.56,2.07,
1.091,0.18,-0.10,1.19,0.51,0.56,2.07,
1.093,0.18,-0.11,1.19,0.51,0.56,2.07,
1.093,0.18,-0.11,1.19,0.45,0.45,2.04,
1.095,0.18,-0.11,1.19,0.45,0.45,2.04,
1.098,0.17,-0.11,1.19,0.45,0.45,2.04,
1.098,0.17,-0.11,1.19,0.41,0.28,2.04,
1.1,0.16,-0.12,1.19,0.41,0.28,2.04,
1.104,0.15,-0.12,1.20,0.41,0.28,2.04,
1.104,0.15,-0.12,1.20,0.35,0.18,2.07,
1.105,0.15,-0.13,1.20,0.35,0.18,2.07,
1.108,0.15,-0.12,1.19,0.35,0.18,2.07,
1.108,0.15,-0.12,1.19,0.19,0.08,2.09,
1.11,0.14,-0.12,1.19,0.19,0.08,2.09,
1.113,0.14,-0.12,1.19,0.19,0.08,2.09,
1.113,0.14,-0.12,1.19,0.13,0.04,2.08,
1.115,0.14,-0.12,1.19,0.13,0.04,2.08,
1.119,0.14,-0.11,1.19,0.13,0.04,2.08,
1.119,0.14,-0.11,1.19,0.09,0.05,2.05,
1.121,0.14,-0.12,1.19,0.09,0.05,2.05,
1.123,0.14,-0.11,1.19,0.09,0.05,2.05,
1.123,0.14,-0.11,1.19,0.05,0.13,2.03,
1.125,0.14,-0.11,1.19,0.05,0.13,2.03,
1.127,0.15,-0.10,1.18,0.05,0.13,2.03,
1.128,0.15,-0.10,1.18,0.08,0.14,2.01,
1.13,0.16,-0.10,1.18,0.08,0.14,2.01,
1.133,0.17,-0.10,1.17,0.08,0.14,2.01,
1.133,0.17,-0.10,1.17,0.16,0.21,1.93,
1.136,0.17,-0.10,1.16,0.16,0.21,1.93,
1.138,0.18,-0.09,1.15,0.16,0.21,1.93,
1.138,0.18,-0.09,1.15,0.32,0.24,1.81,
1.14,0.19,-0.09,1.15,0.32,0.24,1.81,
1.142,0.20,-0.09,1.14,0.32,0.24,1.81,
1.143,0.20,-0.09,1.14,0.49,0.30,1.66,
1.145,0.21,-0.09,1.14,0.49,0.30,1.66,
1.147,0.22,-0.08,1.13,0.49,0.30,1.66,
1.148,0.22,-0.08,1.13,0.66,0.32,1.50,
1.15,0.22,-0.08,1.12,0.66,0.32,1.50,
1.153,0.22,-0.08,1.12,0.66,0.32,1.50,
1.156,0.22,-0.08,1.12,0.83,0.35,1.42,
1.157,0.22,-0.08,1.13,0.83,0.35,1.42,
1.157,0.23,-0.07,1.13,0.83,0.35,1.42,
1.158,0.23,-0.07,1.13,0.94,0.39,1.31,
1.16,0.23,-0.07,1.13,0.94,0.39,1.31,
1.162,0.23,-0.06,1.14,0.94,0.39,1.31,
1.163,0.23,-0.06,1.14,0.97,0.43,1.34,
1.165,0.23,-0.05,1.15,0.97,0.43,1.34,
1.17,0.23,-0.05,1.15,1.02,0.51,1.42,
1.171,0.23,-0.05,1.15,1.02,0.51,1.42,
1.171,0.23,-0.05,1.16,1.02,0.51,1.42,
1.177,0.23,-0.05,1.16,1.04,0.59,1.53,
1.177,0.23,-0.05,1.17,1.04,0.59,1.53,
1.177,0.23,-0.04,1.18,1.04,0.59,1.53,
1.177,0.23,-0.04,1.18,1.04,0.59,1.53,
1.177,0.23,-0.04,1.18,1.03,0.63,1.68,
1.18,0.23,-0.04,1.19,1.03,0.63,1.68,
1.184,0.23,-0.04,1.20,1.03,0.63,1.68,
1.184,0.23,-0.04,1.20,0.98,0.68,1.86,
1.185,0.22,-0.05,1.20,0.98,0.68,1.86,
1.187,0.22,-0.05,1.21,0.98,0.68,1.86,
1.187,0.22,-0.05,1.21,0.98,0.69,1.93,
1.189,0.22,-0.06,1.22,0.98,0.69,1.93,
1.192,0.22,-0.07,1.23,0.98,0.69,1.93,
1.193,0.22,-0.07,1.23,0.91,0.57,2.08,
1.195,0.21,-0.07,1.24,0.91,0.57,2.08,
1.198,0.21,-0.08,1.24,0.91,0.57,2.08,
1.198,0.21,-0.08,1.24,0.83,0.45,2.22,
1.2,0.20,-0.09,1.25,0.83,0.45,2.22,
1.203,0.20,-0.09,1.25,0.83,0.45,2.22,
1.203,0.20,-0.09,1.25,0.75,0.30,2.39,
1.205,0.19,-0.09,1.26,0.75,0.30,2.39,
1.207,0.18,-0.09,1.26,0.75,0.30,2.39,
1.207,0.18,-0.09,1.26,0.63,0.17,2.49,
1.209,0.17,-0.10,1.26,0.63,0.17,2.49,
1.213,0.17,-0.10,1.27,0.63,0.17,2.49,
1.213,0.17,-0.10,1.27,0.47,0.12,2.57,
1.215,0.17,-0.10,1.27,0.47,0.12,2.57,
1.217,0.17,-0.11,1.27,0.47,0.12,2.57,
1.218,0.17,-0.11,1.27,0.36,0.04,2.62,
1.219,0.16,-0.11,1.26,0.36,0.04,2.62,
1.223,0.16,-0.11,1.27,0.36,0.04,2.62,
1.223,0.16,-0.11,1.27,0.32,-0.08,2.67,
1.224,0.16,-0.12,1.27,0.32,-0.08,2.67,
1.227,0.16,-0.12,1.26,0.32,-0.08,2.67,
1.228,0.16,-0.12,1.26,0.22,-0.13,2.59,
1.23,0.16,-0.12,1.25,0.22,-0.13,2.59,
1.233,0.16,-0.12,1.25,0.22,-0.13,2.59,
1.233,0.16,-0.12,1.25,0.23,-0.22,2.55,
1.235,0.16,-0.12,1.24,0.23,-0.22,2.55,
1.237,0.16,-0.12,1.24,0.23,-0.25,2.40,
1.237,0.16,-0.11,1.23,0.23,-0.25,2.40,
1.239,0.16,-0.11,1.23,0.23,-0.25,2.40,
1.243,0.17,-0.11,1.21,0.23,-0.25,2.40,
1.243,0.17,-0.11,1.21,0.24,-0.23,2.28,
1.245,0.17,-0.11,1.20,0.24,-0.23,2.28,
1.247,0.17,-0.10,1.19,0.24,-0.23,2.28,
1.247,0.17,-0.10,1.19,0.28,-0.20,2.10,
1.249,0.18,-0.10,1.18,0.28,-0.20,2.10,
1.253,0.18,-0.10,1.17,0.28,-0.20,2.10,
1.254,0.18,-0.10,1.17,0.37,-0.21,1.85,
1.254,0.18,-0.10,1.16,0.37,-0.21,1.85,
1.257,0.18,-0.09,1.16,0.37,-0.21,1.85,
1.257,0.18,-0.09,1.16,0.42,-0.17,1.66,
1.259,0.18,-0.08,1.14,0.42,-0.17,1.66,
1.261,0.19,-0.08,1.13,0.42,-0.17,1.66,
1.262,0.19,-0.08,1.13,0.45,-0.12,1.49,
1.264,0.19,-0.07,1.12,0.45,-0.12,1.49,
1.267,0.19,-0.07,1.12,0.45,-0.12,1.49,
1.268,0.19,-0.07,1.12,0.51,-0.06,1.27,
1.27,0.19,-0.06,1.12,0.51,-0.06,1.27,
1.271,0.18,-0.05,1.12,0.51,-0.06,1.27,
1.272,0.18,-0.05,1.12,0.54,0.03,1.11,
1.274,0.18,-0.05,1.11,0.54,0.03,1.11,
1.277,0.17,-0.05,1.10,0.54,0.03,1.11,
1.277,0.17,-0.05,1.10,0.52,0.13,1.05,
1.279,0.17,-0.04,1.10,0.52,0.13,1.05,
1.282,0.16,-0.04,1.10,0.52,0.13,1.05,
1.282,0.16,-0.04,1.10,0.44,0.18,0.95,
1.284,0.16,-0.03,1.10,0.44,0.18,0.95,
1.291,0.15,-0.03,1.11,0.44,0.18,0.95,
1.291,0.15,-0.03,1.11,0.35,0.25,0.88,
1.291,0.15,-0.03,1.11,0.35,0.25,0.88,
1.292,0.15,-0.02,1.11,0.35,0.25,0.88,
1.292,0.15,-0.02,1.11,0.26,0.34,0.92,
1.293,0.14,-0.02,1.11,0.26,0.34,0.92,
1.296,0.14,-0.02,1.11,0.26,0.34,0.92,
1.297,0.14,-0.02,1.11,0.16,0.32,0.97,
1.299,0.14,-0.03,1.11,0.16,0.32,0.97,
1.301,0.13,-0.03,1.11,0.16,0.32,0.97,
1.302,0.13,-0.03,1.11,0.10,0.38,0.97,
1.304,0.13,-0.03,1.12,0.10,0.38,0.97,
1.306,0.13,-0.03,1.12,0.10,0.38,0.97,
1.306,0.13,-0.03,1.12,0.01,0.32,0.96,
1.309,0.13,-0.04,1.12,0.01,0.32,0.96,
1.311,0.13,-0.04,1.12,0.01,0.32,0.96,
1.312,0.13,-0.04,1.12,-0.04,0.28,1.03,
1.314,0.13,-0.04,1.12,-0.04,0.28,1.03,
1.316,0.13,-0.04,1.12,-0.03,0.17,1.05,
1.317,0.13,-0.05,1.12,-0.03,0.17,1.05,
1.319,0.13,-0.04,1.12,-0.03,0.17,1.05,
1.322,0.12,-0.05,1.12,-0.03,0.17,1.05,
1.322,0.12,-0.05,1.12,-0.04,0.10,1.05,
1.323,0.13,-0.06,1.11,-0.04,0.10,1.05,
1.326,0.12,-0.06,1.11,-0.04,0.10,1.05,
1.327,0.12,-0.06,1.11,-0.06,0.05,1.02,
1.328,0.12,-0.07,1.12,-0.06,0.05,1.02,
1.332,0.12,-0.07,1.12,-0.06,0.05,1.02,
1.332,0.12,-0.07,1.12,-0.06,-0.10,0.97,
1.334,0.11,-0.07,1.11,-0.06,-0.10,0.97,
1.337,0.11,-0.07,1.11,-0.13,-0.19,0.98,
1.337,0.12,-0.08,1.11,-0.13,-0.19,0.98,
1.338,0.12,-0.08,1.11,-0.13,-0.19,0.98,
1.341,0.11,-0.08,1.11,-0.13,-0.19,0.98,
1.341,0.11,-0.08,1.11,-0.17,-0.27,0.93,
1.343,0.12,-0.08,1.10,-0.17,-0.27,0.93,
1.345,0.12,-0.08,1.10,-0.17,-0.27,0.93,
1.346,0.12,-0.08,1.10,-0.16,-0.31,0.87,
1.348,0.12,-0.08,1.10,-0.16,-0.31,0.87,
1.35,0.12,-0.08,1.09,-0.16,-0.31,0.87,
1.351,0.12,-0.08,1.09,-0.11,-0.31,0.79,
1.353,0.12,-0.08,1.09,-0.11,-0.31,0.79,
1.355,0.12,-0.08,1.09,-0.11,-0.31,0.79,
1.356,0.12,-0.08,1.09,-0.15,-0.36,0.75,
1.357,0.13,-0.08,1.09,-0.15,-0.36,0.75,
1.36,0.13,-0.08,1.09,-0.10,-0.36,0.70,
1.36,0.12,-0.08,1.08,-0.10,-0.36,0.70,
1.363,0.12,-0.07,1.08,-0.10,-0.36,0.70,
1.365,0.12,-0.07,1.09,-0.10,-0.36,0.70,
1.365,0.12,-0.07,1.09,-0.09,-0.39,0.65,
1.367,0.12,-0.07,1.08,-0.09,-0.39,0.65,
1.371,0.12,-0.07,1.07,-0.09,-0.39,0.65,
1.371,0.12,-0.07,1.07,-0.13,-0.37,0.62,
1.373,0.12,-0.07,1.07,-0.13,-0.37,0.62,
1.375,0.11,-0.07,1.07,-0.13,-0.37,0.62,
1.376,0.11,-0.07,1.07,-0.14,-0.40,0.53,
1.377,0.11,-0.07,1.07,-0.14,-0.40,0.53,
1.38,0.11,-0.07,1.07,-0.14,-0.40,0.53,
1.38,0.11,-0.07,1.07,-0.21,-0.41,0.49,
1.382,0.10,-0.07,1.06,-0.21,-0.41,0.49,
1.39,0.10,-0.07,1.06,-0.21,-0.41,0.49,
1.391,0.10,-0.07,1.06,-0.27,-0.44,0.45,
1.391,0.10,-0.07,1.05,-0.27,-0.44,0.45,
1.391,0.09,-0.07,1.05,-0.27,-0.44,0.45,
1.392,0.09,-0.07,1.05,-0.33,-0.43,0.37,
1.392,0.09,-0.07,1.05,-0.33,-0.43,0.37,
1.395,0.08,-0.07,1.04,-0.33,-0.43,0.37,
1.395,0.08,-0.07,1.04,-0.40,-0.45,0.29,
1.397,0.08,-0.07,1.04,-0.40,-0.45,0.29,
1.4,0.08,-0.06,1.03,-0.40,-0.45,0.29,
1.4,0.08,-0.06,1.03,-0.50,-0.52,0.22,
1.403,0.08,-0.06,1.02,-0.50,-0.52,0.22,
1.405,0.07,-0.06,1.01,-0.50,-0.52,0.22,
1.405,0.07,-0.06,1.01,-0.55,-0.51,0.09,
1.407,0.07,-0.06,1.01,-0.55,-0.51,0.09,
1.41,0.07,-0.06,1.01,-0.59,-0.52,-0.09,
1.41,0.08,-0.06,1.00,-0.59,-0.52,-0.09,
1.412,0.08,-0.06,0.99,-0.59,-0.52,-0.09,
1.415,0.08,-0.06,0.99,-0.59,-0.52,-0.09,
1.415,0.08,-0.06,0.99,-0.57,-0.57,-0.17,
1.417,0.08,-0.06,0.99,-0.57,-0.57,-0.17,
1.42,0.08,-0.06,0.98,-0.57,-0.57,-0.17,
1.42,0.08,-0.06,0.98,-0.52,-0.58,-0.31,
1.422,0.08,-0.06,0.98,-0.52,-0.58,-0.31,
1.425,0.09,-0.06,0.98,-0.52,-0.58,-0.31,
1.425,0.09,-0.06,0.98,-0.51,-0.61,-0.37,
1.427,0.09,-0.05,0.98,-0.51,-0.61,-0.37,
1.43,0.09,-0.05,0.98,-0.51,-0.61,-0.37,
1.43,0.09,-0.05,0.98,-0.48,-0.61,-0.43,
1.432,0.10,-0.05,0.99,-0.48,-0.61,-0.43,
1.434,0.10,-0.05,0.99,-0.40,-0.57,-0.41,
1.435,0.10,-0.04,0.98,-0.40,-0.57,-0.41,
1.438,0.10,-0.03,0.99,-0.40,-0.57,-0.41,
1.439,0.11,-0.03,0.99,-0.40,-0.57,-0.41,
1.44,0.11,-0.03,0.99,-0.33,-0.52,-0.37,
1.442,0.11,-0.02,0.99,-0.33,-0.52,-0.37,
1.444,0.11,-0.02,0.99,-0.33,-0.52,-0.37,
1.445,0.11,-0.02,0.99,-0.24,-0.44,-0.30,
1.447,0.11,-0.02,0.99,-0.24,-0.44,-0.30,
1.449,0.11,-0.02,0.99,-0.24,-0.44,-0.30,
1.449,0.11,-0.02,0.99,-0.21,-0.38,-0.33,
1.452,0.11,-0.02,0.99,-0.21,-0.38,-0.33,
1.455,0.11,-0.02,0.99,-0.21,-0.38,-0.33,
1.456,0.11,-0.02,0.99,-0.19,-0.40,-0.33,
1.457,0.11,-0.01,0.99,-0.19,-0.40,-0.33,
1.459,0.11,-0.01,0.99,-0.20,-0.38,-0.35,
1.46,0.11,-0.01,0.99,-0.20,-0.38,-0.35,
1.462,0.10,-0.01,0.98,-0.20,-0.38,-0.35,
1.464,0.11,-0.00,0.98,-0.20,-0.38,-0.35,
1.464,0.11,-0.00,0.98,-0.18,-0.36,-0.35,
1.466,0.11,0.00,0.98,-0.18,-0.36,-0.35,
1.47,0.11,0.00,0.97,-0.18,-0.36,-0.35,
1.471,0.11,0.00,0.97,-0.19,-0.33,-0.42,
1.471,0.11,-0.00,0.97,-0.19,-0.33,-0.42,
1.475,0.11,-0.00,0.96,-0.19,-0.33,-0.42,
1.475,0.11,-0.00,0.96,-0.16,-0.28,-0.49,
1.476,0.11,-0.00,0.96,-0.16,-0.28,-0.49,
1.479,0.10,-0.00,0.96,-0.16,-0.28,-0.49,
1.479,0.10,-0.00,0.96,-0.16,-0.33,-0.55,
1.482,0.10,-0.01,0.96,-0.16,-0.33,-0.55,
1.484,0.10,-0.01,0.96,-0.18,-0.37,-0.62,
1.485,0.10,-0.01,0.95,-0.18,-0.37,-0.62,
1.488,0.09,-0.01,0.95,-0.18,-0.37,-0.62,
1.492,0.09,-0.01,0.95,-0.22,-0.45,-0.65,
1.492,0.09,-0.01,0.95,-0.22,-0.45,-0.65,
1.492,0.09,-0.01,0.94,-0.22,-0.45,-0.65,
1.494,0.08,-0.02,0.93,-0.22,-0.45,-0.65,
1.494,0.08,-0.02,0.93,-0.27,-0.50,-0.71,
1.496,0.08,-0.02,0.93,-0.27,-0.50,-0.71,
1.499,0.08,-0.02,0.93,-0.27,-0.50,-0.71,
1.499,0.08,-0.02,0.93,-0.31,-0.57,-0.84,
1.502,0.07,-0.02,0.93,-0.31,-0.57,-0.84,
1.507,0.07,-0.02,0.93,-0.31,-0.57,-0.84,
1.507,0.07,-0.02,0.93,-0.35,-0.63,-0.89,
1.507,0.07,-0.02,0.92,-0.35,-0.63,-0.89,
1.509,0.07,-0.02,0.92,-0.35,-0.63,-0.89,
1.509,0.07,-0.02,0.92,-0.41,-0.66,-0.94,
1.511,0.06,-0.02,0.92,-0.41,-0.66,-0.94,
1.515,0.06,-0.02,0.92,-0.41,-0.66,-0.94,
1.515,0.06,-0.02,0.92,-0.41,-0.71,-0.95,
1.517,0.06,-0.02,0.92,-0.41,-0.71,-0.95,
1.519,0.05,-0.01,0.92,-0.41,-0.71,-0.95,
1.519,0.05,-0.01,0.92,-0.47,-0.72,-0.96,
1.521,0.04,-0.01,0.92,-0.47,-0.72,-0.96,
1.524,0.04,-0.01,0.92,-0.49,-0.71,-1.00,
1.524,0.04,-0.00,0.92,-0.49,-0.71,-1.00,
1.527,0.04,0.00,0.92,-0.49,-0.71,-1.00,
1.529,0.03,0.00,0.92,-0.49,-0.71,-1.00,
1.529,0.03,0.00,0.92,-0.60,-0.66,-1.00,
1.531,0.03,0.01,0.92,-0.60,-0.66,-1.00,
1.534,0.03,0.01,0.91,-0.60,-0.66,-1.00,
1.534,0.03,0.01,0.91,-0.65,-0.60,-0.99,
1.536,0.03,0.02,0.92,-0.65,-0.60,-0.99,
1.539,0.03,0.02,0.91,-0.65,-0.60,-0.99,
1.539,0.03,0.02,0.91,-0.67,-0.53,-1.02,
1.541,0.03,0.02,0.91,-0.67,-0.53,-1.02,
1.545,0.02,0.02,0.92,-0.67,-0.53,-1.02,
1.545,0.02,0.02,0.92,-0.68,-0.48,-1.02,
1.547,0.02,0.02,0.91,-0.68,-0.48,-1.02,
1.549,0.03,0.02,0.90,-0.68,-0.48,-1.02,
1.549,0.03,0.02,0.90,-0.70,-0.47,-1.04,
1.551,0.03,0.03,0.89,-0.70,-0.47,-1.04,
1.555,0.03,0.03,0.89,-0.66,-0.49,-1.15,
1.555,0.03,0.03,0.89,-0.66,-0.49,-1.15,
1.556,0.03,0.03,0.88,-0.66,-0.49,-1.15,
1.559,0.03,0.03,0.88,-0.66,-0.49,-1.15,
1.559,0.03,0.03,0.88,-0.62,-0.48,-1.24,
1.561,0.03,0.03,0.88,-0.62,-0.48,-1.24,
1.564,0.03,0.03,0.87,-0.62,-0.48,-1.24,
1.564,0.03,0.03,0.87,-0.62,-0.48,-1.35,
1.566,0.03,0.04,0.87,-0.62,-0.48,-1.35,
1.569,0.04,0.04,0.87,-0.62,-0.48,-1.35,
1.569,0.04,0.04,0.87,-0.60,-0.49,-1.39,
1.572,0.04,0.04,0.86,-0.60,-0.49,-1.39,
1.573,0.04,0.05,0.86,-0.60,-0.49,-1.39,
1.574,0.04,0.05,0.86,-0.54,-0.44,-1.44,
1.576,0.04,0.05,0.85,-0.54,-0.44,-1.44,
1.579,0.04,0.05,0.85,-0.50,-0.43,-1.53,
1.579,0.04,0.05,0.85,-0.50,-0.43,-1.53,
1.581,0.04,0.05,0.85,-0.50,-0.43,-1.53,
1.584,0.04,0.05,0.85,-0.51,-0.37,-1.62,
1.584,0.03,0.05,0.84,-0.51,-0.37,-1.62,
1.586,0.03,0.06,0.83,-0.51,-0.37,-1.62,
1.588,0.02,0.06,0.83,-0.51,-0.37,-1.62,
1.589,0.02,0.06,0.83,-0.54,-0.40,-1.69,
1.591,0.02,0.06,0.83,-0.54,-0.40,-1.69,
1.594,0.02,0.06,0.82,-0.54,-0.40,-1.69,
1.594,0.02,0.06,0.82,-0.61,-0.39,-1.81,
1.596,0.02,0.06,0.81,-0.61,-0.39,-1.81,
1.599,0.02,0.06,0.82,-0.61,-0.39,-1.81,
1.599,0.02,0.06,0.82,-0.62,-0.40,-1.87,
1.601,0.03,0.05,0.81,-0.62,-0.40,-1.87,
1.608,0.03,0.06,0.80,-0.62,-0.40,-1.87,
1.609,0.03,0.06,0.80,-0.63,-0.40,-1.95,
1.609,0.02,0.05,0.80,-0.63,-0.40,-1.95,
1.609,0.02,0.05,0.80,-0.57,-0.46,-2.00,
1.609,0.02,0.05,0.80,-0.57,-0.46,-2.00,
1.61,0.02,0.05,0.80,-0.57,-0.46,-2.00,
1.613,0.02,0.05,0.80,-0.57,-0.46,-2.00,
1.613,0.02,0.05,0.80,-0.60,-0.52,-2.06,
1.615,0.02,0.05,0.80,-0.60,-0.52,-2.06,
1.618,0.02,0.05,0.80,-0.62,-0.56,-2.04,
1.618,0.02,0.06,0.80,-0.62,-0.56,-2.04,
1.621,0.02,0.06,0.79,-0.62,-0.56,-2.04,
1.622,0.02,0.06,0.80,-0.62,-0.56,-2.04,
1.623,0.02,0.06,0.80,-0.63,-0.52,-2.06,
1.625,0.02,0.06,0.81,-0.63,-0.52,-2.06,
1.628,0.02,0.07,0.81,-0.63,-0.52,-2.06,
1.628,0.02,0.07,0.81,-0.64,-0.50,-2.07,
1.63,0.02,0.07,0.81,-0.64,-0.50,-2.07,
1.632,0.02,0.07,0.81,-0.62,-0.46,-1.99,
1.633,0.02,0.07,0.81,-0.62,-0.46,-1.99,
1.635,0.02,0.07,0.81,-0.62,-0.46,-1.99,
1.638,0.02,0.08,0.81,-0.62,-0.46,-1.99,
1.638,0.02,0.08,0.81,-0.60,-0.41,-1.97,
1.64,0.02,0.08,0.81,-0.60,-0.41,-1.97,
1.642,0.02,0.08,0.81,-0.60,-0.41,-1.97,
1.643,0.02,0.08,0.81,-0.60,-0.39,-1.95,
1.645,0.02,0.08,0.82,-0.60,-0.39,-1.95,
1.647,0.02,0.08,0.82,-0.61,-0.33,-1.90,
1.649,0.02,0.09,0.82,-0.61,-0.33,-1.90,
1.65,0.02,0.09,0.82,-0.61,-0.33,-1.90,
1.652,0.02,0.08,0.82,-0.61,-0.33,-1.90,
1.653,0.02,0.08,0.82,-0.58,-0.29,-1.79,
1.654,0.02,0.08,0.83,-0.58,-0.29,-1.79,
1.657,0.02,0.08,0.83,-0.57,-0.28,-1.80,
1.657,0.02,0.09,0.83,-0.57,-0.28,-1.80,
1.659,0.02,0.09,0.83,-0.57,-0.28,-1.80,
1.662,0.02,0.09,0.84,-0.57,-0.28,-1.80,
1.662,0.02,0.09,0.84,-0.60,-0.26,-1.74,
1.664,0.01,0.09,0.84,-0.60,-0.26,-1.74,
1.667,0.01,0.09,0.84,-0.60,-0.26,-1.74,
1.667,0.01,0.09,0.84,-0.59,-0.24,-1.67,
1.671,0.01,0.08,0.84,-0.59,-0.24,-1.67,
1.673,0.00,0.08,0.85,-0.59,-0.24,-1.67,
1.673,0.00,0.08,0.85,-0.66,-0.28,-1.64,
1.674,0.00,0.08,0.85,-0.66,-0.28,-1.64,
1.677,0.00,0.08,0.85,-0.66,-0.28,-1.64,
1.677,0.00,0.08,0.85,-0.72,-0.32,-1.59,
1.679,-0.01,0.07,0.86,-0.72,-0.32,-1.59,
1.682,-0.01,0.07,0.86,-0.74,-0.35,-1.52,
1.682,-0.01,0.06,0.85,-0.74,-0.35,-1.52,
1.684,-0.01,0.06,0.85,-0.74,-0.35,-1.52,
1.688,-0.02,0.05,0.86,-0.74,-0.35,-1.52,
1.689,-0.02,0.05,0.86,-0.83,-0.46,-1.47,
1.689,-0.02,0.05,0.86,-0.83,-0.46,-1.47,
1.692,-0.02,0.05,0.87,-0.83,-0.46,-1.47,
1.692,-0.02,0.05,0.87,-0.88,-0.58,-1.45,
1.694,-0.02,0.05,0.87,-0.88,-0.58,-1.45,
1.697,-0.02,0.05,0.88,-0.88,-0.58,-1.45,
1.697,-0.02,0.05,0.88,-0.92,-0.59,-1.37,
1.699,-0.03,0.05,0.89,-0.92,-0.59,-1.37,
1.702,-0.03,0.05,0.89,-0.92,-0.59,-1.37,
1.702,-0.03,0.05,0.89,-0.96,-0.62,-1.27,
1.704,-0.03,0.05,0.89,-0.96,-0.62,-1.27,
1.707,-0.03,0.05,0.89,-1.05,-0.60,-1.11,
1.707,-0.03,0.05,0.89,-1.05,-0.60,-1.11,
1.709,-0.03,0.06,0.89,-1.05,-0.60,-1.11,
1.712,-0.03,0.06,0.89,-1.05,-0.60,-1.11,
1.712,-0.03,0.06,0.89,-1.05,-0.61,-1.11,
1.714,-0.03,0.06,0.89,-1.05,-0.61,-1.11,
1.717,-0.02,0.06,0.89,-1.05,-0.61,-1.11,
1.717,-0.02,0.06,0.89,-1.04,-0.56,-1.09,
1.719,-0.02,0.06,0.88,-1.04,-0.56,-1.09,
1.725,-0.01,0.06,0.87,-1.04,-0.56,-1.09,
1.726,-0.01,0.06,0.87,-0.93,-0.53,-1.13,
1.726,-0.01,0.06,0.87,-0.93,-0.53,-1.13,
1.727,-0.00,0.06,0.86,-0.93,-0.53,-1.13,
1.727,-0.00,0.06,0.86,-0.85,-0.53,-1.26,
1.729,0.00,0.06,0.84,-0.85,-0.53,-1.26,
1.732,0.00,0.06,0.84,-0.77,-0.58,-1.36,
1.732,0.00,0.05,0.84,-0.77,-0.58,-1.36,
1.734,0.00,0.06,0.83,-0.77,-0.58,-1.36,
1.737,0.01,0.06,0.82,-0.77,-0.58,-1.36,
1.741,0.01,0.06,0.82,-0.65,-0.63,-1.56,
1.741,0.01,0.06,0.82,-0.65,-0.63,-1.56,
1.742,0.00,0.06,0.81,-0.65,-0.63,-1.56,
1.743,0.00,0.06,0.81,-0.62,-0.60,-1.69,
1.744,-0.00,0.06,0.81,-0.62,-0.60,-1.69,
1.746,-0.00,0.06,0.81,-0.61,-0.64,-1.83,
1.747,-0.00,0.06,0.80,-0.61,-0.64,-1.83,
1.748,-0.00,0.07,0.80,-0.61,-0.64,-1.83,
1.751,-0.01,0.07,0.80,-0.61,-0.64,-1.83,
1.752,-0.01,0.07,0.80,-0.65,-0.59,-1.90,
1.755,-0.01,0.08,0.80,-0.65,-0.59,-1.90,
1.756,-0.01,0.08,0.80,-0.67,-0.53,-1.94,
1.757,-0.02,0.08,0.81,-0.67,-0.53,-1.94,
1.758,-0.02,0.08,0.80,-0.67,-0.53,-1.94,
1.761,-0.02,0.09,0.80,-0.67,-0.53,-1.94,
1.761,-0.02,0.09,0.80,-0.75,-0.46,-1.91,
1.764,-0.03,0.09,0.80,-0.75,-0.46,-1.91,
1.767,-0.03,0.09,0.80,-0.75,-0.46,-1.91,
1.767,-0.03,0.09,0.80,-0.80,-0.41,-1.91,
1.768,-0.04,0.10,0.81,-0.80,-0.41,-1.91,
1.772,-0.04,0.10,0.81,-0.80,-0.41,-1.91,
1.772,-0.04,0.10,0.81,-0.90,-0.36,-1.95,
1.773,-0.04,0.10,0.81,-0.90,-0.36,-1.95,
1.776,-0.03,0.10,0.81,-0.90,-0.36,-1.95,
1.776,-0.03,0.10,0.81,-0.96,-0.33,-1.87,
1.779,-0.03,0.10,0.81,-0.96,-0.33,-1.87,
1.781,-0.03,0.10,0.81,-0.95,-0.30,-1.83,
1.781,-0.03,0.11,0.81,-0.95,-0.30,-1.83,
1.783,-0.03,0.10,0.81,-0.95,-0.30,-1.83,
1.786,-0.02,0.10,0.81,-0.95,-0.30,-1.83,
1.786,-0.02,0.10,0.81,-0.87,-0.31,-1.79,
1.79,-0.01,0.11,0.80,-0.87,-0.31,-1.79,
1.791,-0.01,0.11,0.80,-0.82,-0.34,-1.81,
1.791,-0.01,0.10,0.81,-0.82,-0.34,-1.81,
1.793,-0.00,0.10,0.81,-0.82,-0.34,-1.81,
1.796,-0.00,0.10,0.81,-0.69,-0.31,-1.84,
1.796,0.00,0.10,0.80,-0.69,-0.31,-1.84,
1.798,0.00,0.10,0.81,-0.69,-0.31,-1.84,
1.802,0.01,0.10,0.81,-0.69,-0.31,-1.84,
1.802,0.01,0.10,0.81,-0.60,-0.35,-1.84,
1.803,0.01,0.11,0.81,-0.60,-0.35,-1.84,
1.807,0.01,0.11,0.81,-0.52,-0.38,-1.79,
1.807,0.01,0.11,0.81,-0.52,-0.38,-1.79,
1.808,0.01,0.11,0.82,-0.52,-0.38,-1.79,
1.812,0.00,0.11,0.82,-0.52,-0.38,-1.79,
1.812,0.00,0.11,0.82,-0.46,-0.32,-1.79,
1.814,0.00,0.11,0.83,-0.46,-0.32,-1.79,
1.816,0.00,0.11,0.84,-0.46,-0.32,-1.79,
1.816,0.00,0.11,0.84,-0.49,-0.30,-1.66,
1.818,0.00,0.12,0.85,-0.49,-0.30,-1.66,
1.828,0.00,0.12,0.85,-0.49,-0.30,-1.66,
1.829,0.00,0.12,0.85,-0.53,-0.29,-1.55,
1.829,-0.00,0.13,0.86,-0.53,-0.29,-1.55,
1.83,0.00,0.13,0.86,-0.53,-0.29,-1.55,
1.83,0.00,0.13,0.86,-0.55,-0.21,-1.39,
1.831,-0.00,0.13,0.87,-0.55,-0.21,-1.39,
1.831,-0.00,0.13,0.87,-0.55,-0.21,-1.39,
1.831,-0.00,0.13,0.87,-0.56,-0.16,-1.31,
1.835,0.00,0.13,0.87,-0.56,-0.16,-1.31,
1.835,0.00,0.13,0.87,-0.56,-0.13,-1.19,
1.836,0.01,0.13,0.87,-0.56,-0.13,-1.19,
1.838,0.01,0.13,0.88,-0.56,-0.13,-1.19,
1.841,0.01,0.13,0.88,-0.56,-0.13,-1.19,
1.841,0.01,0.13,0.88,-0.50,-0.10,-1.17,
1.843,0.01,0.13,0.89,-0.50,-0.10,-1.17,
1.846,0.01,0.13,0.89,-0.46,-0.14,-1.10,
1.846,0.02,0.13,0.89,-0.46,-0.14,-1.10,
1.848,0.02,0.13,0.89,-0.46,-0.14,-1.10,
1.851,0.02,0.13,0.89,-0.46,-0.14,-1.10,
1.851,0.02,0.13,0.89,-0.43,-0.13,-1.02,
1.853,0.03,0.13,0.89,-0.43,-0.13,-1.02,
1.856,0.03,0.13,0.89,-0.34,-0.12,-0.99,
1.856,0.03,0.13,0.89,-0.34,-0.12,-0.99,
1.858,0.03,0.13,0.90,-0.34,-0.12,-0.99,
1.861,0.03,0.13,0.90,-0.34,-0.12,-0.99,
1.861,0.03,0.13,0.90,-0.30,-0.16,-0.94,
1.864,0.03,0.13,0.90,-0.30,-0.16,-0.94,
1.866,0.03,0.13,0.90,-0.30,-0.16,-0.94,
1.866,0.03,0.13,0.90,-0.27,-0.14,-0.89,
1.868,0.02,0.13,0.90,-0.27,-0.14,-0.89,
1.871,0.02,0.13,0.90,-0.27,-0.14,-0.89,
1.871,0.02,0.13,0.90,-0.26,-0.14,-0.83,
1.873,0.02,0.13,0.90,-0.26,-0.14,-0.83,
1.876,0.01,0.14,0.90,-0.26,-0.14,-0.83,
1.876,0.01,0.14,0.90,-0.33,-0.14,-0.87,
1.878,0.01,0.13,0.90,-0.33,-0.14,-0.87,
1.881,0.01,0.13,0.90,-0.38,-0.11,-0.89,
1.881,0.00,0.13,0.90,-0.38,-0.11,-0.89,
1.883,0.01,0.14,0.90,-0.38,-0.11,-0.89,
1.886,0.01,0.14,0.89,-0.38,-0.11,-0.89,
1.886,0.01,0.14,0.89,-0.45,-0.13,-0.89,
1.89,0.01,0.14,0.89,-0.45,-0.13,-0.89,
1.89,0.01,0.13,0.89,-0.45,-0.13,-0.89,
1.89,0.01,0.13,0.89,-0.43,-0.10,-0.91,
1.893,0.01,0.14,0.89,-0.43,-0.10,-0.91,
1.896,0.01,0.14,0.89,-0.43,-0.10,-0.91,
1.896,0.01,0.14,0.89,-0.41,-0.12,-0.96,
1.898,0.01,0.14,0.88,-0.41,-0.12,-0.96,
1.901,0.02,0.15,0.89,-0.41,-0.12,-0.96,
1.901,0.02,0.15,0.89,-0.36,-0.09,-0.95,
1.903,0.02,0.15,0.89,-0.36,-0.09,-0.95,
1.906,0.02,0.15,0.89,-0.33,-0.04,-1.01,
1.907,0.02,0.15,0.89,-0.33,-0.04,-1.01,
1.907,0.02,0.15,0.89,-0.33,-0.04,-1.01,
1.911,0.02,0.15,0.89,-0.30,0.01,-0.97,
1.911,0.03,0.15,0.89,-0.30,0.01,-0.97,
1.912,0.03,0.15,0.89,-0.30,0.01,-0.97,
1.916,0.03,0.16,0.89,-0.30,0.01,-0.97,
1.916,0.03,0.16,0.89,-0.24,0.02,-0.96,
1.918,0.03,0.16,0.90,-0.24,0.02,-0.96,
1.921,0.03,0.16,0.90,-0.24,0.02,-0.96,
1.921,0.03,0.16,0.90,-0.19,0.03,-0.92,
1.926,0.03,0.17,0.90,-0.19,0.03,-0.92,
1.927,0.03,0.16,0.90,-0.19,0.03,-0.92,
1.927,0.03,0.16,0.90,-0.18,0.07,-0.87,
1.927,0.02,0.16,0.90,-0.18,0.07,-0.87,
1.93,0.02,0.16,0.90,-0.19,0.10,-0.88,
1.93,0.02,0.17,0.91,-0.19,0.10,-0.88,
1.932,0.03,0.17,0.89,-0.19,0.10,-0.88,
1.935,0.02,0.17,0.89,-0.19,0.10,-0.88,
1.935,0.02,0.17,0.89,-0.25,0.11,-0.80,
1.937,0.03,0.17,0.89,-0.25,0.11,-0.80,
1.94,0.03,0.16,0.90,-0.25,0.11,-0.80,
1.94,0.03,0.16,0.90,-0.23,0.13,-0.89,
1.942,0.03,0.17,0.90,-0.23,0.13,-0.89,
1.945,0.03,0.17,0.90,-0.19,0.11,-0.87,
1.946,0.02,0.16,0.89,-0.19,0.11,-0.87,
1.947,0.03,0.17,0.90,-0.19,0.11,-0.87,
1.949,0.03,0.16,0.90,-0.19,0.11,-0.87,
1.949,0.03,0.16,0.90,-0.22,0.11,-0.86,
1.951,0.03,0.16,0.90,-0.22,0.11,-0.86,
1.956,0.03,0.16,0.90,-0.20,0.09,-0.84,
1.957,0.02,0.16,0.90,-0.20,0.09,-0.84,
1.957,0.02,0.16,0.90,-0.20,0.09,-0.84,
1.959,0.03,0.16,0.91,-0.20,0.09,-0.84,
1.959,0.03,0.16,0.91,-0.22,0.10,-0.80,
1.961,0.02,0.16,0.90,-0.22,0.10,-0.80,
1.964,0.02,0.16,0.91,-0.22,0.10,-0.80,
1.965,0.02,0.16,0.91,-0.21,0.08,-0.76,
1.966,0.03,0.16,0.91,-0.21,0.08,-0.76,
1.97,0.03,0.15,0.91,-0.21,0.08,-0.76,
1.97,0.03,0.15,0.91,-0.22,0.05,-0.74,
1.973,0.03,0.15,0.91,-0.22,0.05,-0.74,
1.975,0.02,0.15,0.92,-0.22,0.05,-0.74,
1.975,0.02,0.15,0.92,-0.19,0.03,-0.68,
1.976,0.02,0.15,0.93,-0.19,0.03,-0.68,
1.979,0.02,0.15,0.93,-0.22,0.00,-0.62,
1.98,0.02,0.14,0.93,-0.22,0.00,-0.62,
1.981,0.02,0.14,0.93,-0.22,0.00,-0.62,
1.984,0.02,0.14,0.94,-0.22,0.00,-0.62,
1.985,0.02,0.14,0.94,-0.23,-0.06,-0.51,
1.986,0.01,0.14,0.95,-0.23,-0.06,-0.51,
1.989,0.01,0.15,0.95,-0.23,-0.06,-0.51,
1.989,0.01,0.15,0.95,-0.25,-0.07,-0.40,
1.991,0.01,0.14,0.96,-0.25,-0.07,-0.40,
1.994,0.01,0.14,0.97,-0.25,-0.07,-0.40,
1.994,0.01,0.14,0.97,-0.31,-0.06,-0.27,
1.996,0.01,0.14,0.97,-0.31,-0.06,-0.27,
1.999,0.01,0.14,0.97,-0.31,-0.06,-0.27,
2.0,0.01,0.14,0.97,-0.35,-0.07,-0.14,
2.001,0.01,0.14,0.98,-0.35,-0.07,-0.14,
2.004,0.01,0.14,0.98,-0.32,-0.07,-0.10,
2.004,0.01,0.14,0.99,-0.32,-0.07,-0.10,
2.007,0.01,0.14,0.99,-0.32,-0.07,-0.10,
2.009,0.01,0.14,1.00,-0.32,-0.07,-0.10,
2.009,0.01,0.14,1.00,-0.35,-0.05,0.08,
2.011,0.02,0.14,1.00,-0.35,-0.05,0.08,
2.014,0.02,0.14,1.01,-0.35,-0.05,0.08,
2.014,0.02,0.14,1.01,-0.31,-0.07,0.17,
2.016,0.02,0.14,1.01,-0.31,-0.07,0.17,
2.018,0.03,0.14,1.02,-0.31,-0.07,0.17,
2.019,0.03,0.14,1.02,-0.26,-0.07,0.26,
2.027,0.04,0.14,1.02,-0.26,-0.07,0.26,
2.028,0.05,0.14,1.02,-0.26,-0.07,0.26,
2.028,0.05,0.14,1.02,-0.17,-0.03,0.32,
2.028,0.05,0.15,1.02,-0.17,-0.03,0.32,
2.029,0.05,0.15,1.02,-0.05,0.00,0.39,
2.029,0.05,0.15,1.02,-0.05,0.00,0.39,
2.031,0.07,0.15,1.02,-0.05,0.00,0.39,
2.034,0.07,0.16,1.02,-0.05,0.00,0.39,
2.035,0.07,0.16,1.02,0.05,0.04,0.38,
2.036,0.08,0.16,1.01,0.05,0.04,0.38,
2.039,0.08,0.16,1.01,0.05,0.04,0.38,
2.04,0.08,0.16,1.01,0.22,0.12,0.37,
2.041,0.08,0.17,1.01,0.22,0.12,0.37,
2.043,0.09,0.17,1.00,0.22,0.12,0.37,
2.044,0.09,0.17,1.00,0.31,0.20,0.28,
2.046,0.09,0.17,1.00,0.31,0.20,0.28,
2.048,0.09,0.17,1.00,0.38,0.27,0.24,
2.048,0.09,0.18,1.00,0.38,0.27,0.24,
2.052,0.09,0.18,0.99,0.38,0.27,0.24,
2.053,0.09,0.18,0.99,0.41,0.31,0.14,
2.054,0.08,0.19,0.99,0.41,0.31,0.14,
2.056,0.08,0.19,0.99,0.41,0.31,0.14,
2.058,0.07,0.19,0.98,0.41,0.31,0.14,
2.058,0.07,0.19,0.98,0.36,0.39,0.08,
2.06,0.07,0.18,0.98,0.36,0.39,0.08,
2.063,0.07,0.19,0.98,0.36,0.39,0.08,
2.063,0.07,0.19,0.98,0.29,0.43,0.01,
2.066,0.06,0.18,0.97,0.29,0.43,0.01,
2.068,0.06,0.19,0.97,0.29,0.43,0.01,
2.068,0.06,0.19,0.97,0.24,0.39,-0.05,
2.07,0.06,0.18,0.97,0.24,0.39,-0.05,
2.073,0.05,0.18,0.97,0.24,0.39,-0.05,
2.073,0.05,0.18,0.97,0.15,0.40,-0.10,
2.075,0.05,0.18,0.97,0.15,0.40,-0.10,
2.078,0.05,0.18,0.97,0.12,0.35,-0.14,
2.078,0.05,0.18,0.96,0.12,0.35,-0.14,
2.081,0.04,0.18,0.96,0.12,0.35,-0.14,
2.083,0.05,0.17,0.96,0.12,0.35,-0.14,
2.083,0.05,0.17,0.96,0.05,0.32,-0.17,
2.085,0.05,0.17,0.97,0.05,0.32,-0.17,
2.088,0.04,0.17,0.97,0.05,0.32,-0.17,
2.09,0.04,0.17,0.97,0.01,0.29,-0.20,
2.091,0.05,0.17,0.97,0.01,0.29,-0.20,
2.093,0.05,0.16,0.97,0.01,0.29,-0.20,
2.093,0.05,0.16,0.97,-0.01,0.24,-0.11,
2.095,0.04,0.16,0.97,-0.01,0.24,-0.11,
2.098,0.05,0.16,0.98,-0.01,0.24,-0.11,
2.098,0.05,0.16,0.98,0.02,0.18,-0.11,
2.1,0.05,0.16,0.98,0.02,0.18,-0.11,
2.103,0.05,0.16,0.98,0.02,0.13,-0.06,
2.103,0.04,0.16,0.99,0.02,0.13,-0.06,
2.105,0.04,0.15,0.99,0.02,0.13,-0.06,
2.108,0.04,0.15,1.00,0.02,0.13,-0.06,
2.108,0.04,0.15,1.00,-0.03,0.11,0.02,
2.11,0.04,0.16,1.01,-0.03,0.11,0.02,
2.113,0.04,0.16,1.01,-0.03,0.11,0.02,
2.113,0.04,0.16,1.01,-0.07,0.06,0.13,
2.115,0.04,0.16,1.02,-0.07,0.06,0.13,
2.118,0.04,0.16,1.02,-0.07,0.06,0.13,
2.119,0.04,0.16,1.02,-0.11,0.08,0.27,
2.12,0.03,0.16,1.02,-0.11,0.08,0.27,
2.126,0.04,0.16,1.03,-0.11,0.08,0.27,
2.126,0.04,0.16,1.03,-0.11,0.10,0.36,
2.127,0.03,0.16,1.03,-0.11,0.10,0.36,
2.128,0.03,0.16,1.03,-0.13,0.11,0.42,
2.129,0.04,0.16,1.03,-0.13,0.11,0.42,
2.13,0.03,0.16,1.03,-0.13,0.11,0.42,
2.132,0.04,0.16,1.02,-0.13,0.11,0.42,
2.133,0.04,0.16,1.02,-0.14,0.12,0.47,
2.135,0.04,0.17,1.02,-0.14,0.12,0.47,
2.137,0.04,0.16,1.01,-0.14,0.12,0.47,
2.138,0.04,0.16,1.01,-0.13,0.13,0.42,
2.141,0.05,0.16,1.01,-0.13,0.13,0.42,
2.142,0.05,0.17,1.00,-0.13,0.13,0.42,
2.145,0.05,0.17,1.00,-0.10,0.11,0.32,
2.145,0.04,0.16,0.99,-0.10,0.11,0.32,
2.148,0.05,0.17,0.98,-0.10,0.11,0.32,
2.148,0.05,0.17,0.98,-0.01,0.12,0.21,
2.149,0.05,0.17,0.97,-0.01,0.12,0.21,
2.152,0.05,0.17,0.97,-0.04,0.15,0.04,
2.152,0.05,0.17,0.96,-0.04,0.15,0.04,
2.155,0.05,0.16,0.95,-0.04,0.15,0.04,
2.157,0.05,0.17,0.95,-0.04,0.15,0.04,
2.158,0.05,0.17,0.95,-0.01,0.15,-0.14,
2.161,0.05,0.17,0.94,-0.01,0.15,-0.14,
2.163,0.05,0.17,0.93,-0.01,0.15,-0.14,
2.163,0.05,0.17,0.93,0.02,0.14,-0.31,
2.165,0.06,0.17,0.93,0.02,0.14,-0.31,
2.168,0.06,0.17,0.92,0.02,0.14,-0.31,
2.168,0.06,0.17,0.92,0.06,0.16,-0.47,
2.17,0.06,0.18,0.92,0.06,0.16,-0.47,
2.173,0.06,0.17,0.92,0.06,0.16,-0.47,
2.173,0.06,0.17,0.92,0.10,0.17,-0.55,
2.175,0.06,0.17,0.91,0.10,0.17,-0.55,
2.177,0.06,0.17,0.91,0.14,0.21,-0.62,
2.178,0.06,0.17,0.91,0.14,0.21,-0.62,
2.18,0.07,0.18,0.91,0.14,0.21,-0.62,
2.182,0.07,0.18,0.92,0.14,0.21,-0.62,
2.182,0.07,0.18,0.92,0.17,0.19,-0.67,
2.186,0.07,0.17,0.92,0.17,0.19,-0.67,
2.187,0.06,0.17,0.93,0.17,0.19,-0.67,
2.187,0.06,0.17,0.93,0.23,0.24,-0.64,
2.189,0.07,0.18,0.94,0.23,0.24,-0.64,
2.192,0.06,0.17,0.94,0.23,0.24,-0.64,
2.192,0.06,0.17,0.94,0.20,0.21,-0.53,
2.195,0.06,0.18,0.95,0.20,0.21,-0.53,
2.197,0.06,0.18,0.96,0.20,0.21,-0.53,
2.197,0.06,0.18,0.96,0.20,0.24,-0.42,
2.2,0.06,0.17,0.97,0.20,0.24,-0.42,
2.203,0.06,0.17,0.97,0.16,0.24,-0.24,
2.203,0.06,0.17,0.98,0.16,0.24,-0.24,
2.205,0.05,0.17,0.99,0.16,0.24,-0.24,
2.207,0.06,0.17,1.00,0.16,0.24,-0.24,
2.207,0.06,0.17,1.00,0.14,0.21,-0.05,
2.209,0.06,0.17,1.01,0.14,0.21,-0.05,
2.212,0.06,0.16,1.01,0.14,0.21,-0.05,
2.212,0.06,0.16,1.01,0.12,0.17,0.11,
2.215,0.06,0.16,1.02,0.12,0.17,0.11,
2.217,0.06,0.16,1.02,0.12,0.17,0.11,
2.218,0.06,0.16,1.02,0.11,0.14,0.26,
2.22,0.06,0.16,1.02,0.11,0.14,0.26,
2.222,0.06,0.16,1.02,0.13,0.09,0.35,
2.222,0.06,0.15,1.03,0.13,0.09,0.35,
2.227,0.06,0.15,1.03,0.13,0.09,0.35,
2.227,0.06,0.15,1.03,0.11,0.06,0.42,
2.227,0.05,0.15,1.04,0.11,0.06,0.42,
2.229,0.05,0.14,1.04,0.11,0.06,0.42,
2.232,0.05,0.14,1.03,0.11,0.06,0.42,
2.232,0.05,0.14,1.03,0.06,-0.01,0.52,
2.234,0.05,0.14,1.04,0.06,-0.01,0.52,
2.237,0.04,0.14,1.04,0.06,-0.01,0.52,
2.237,0.04,0.14,1.04,0.02,-0.07,0.51,
2.239,0.04,0.13,1.04,0.02,-0.07,0.51,
2.242,0.04,0.13,1.04,0.02,-0.07,0.51,
2.242,0.04,0.13,1.04,-0.03,-0.11,0.54,
2.244,0.04,0.13,1.03,-0.03,-0.11,0.54,
2.247,0.04,0.13,1.03,-0.03,-0.11,0.54,
2.248,0.04,0.13,1.03,-0.07,-0.17,0.55,
2.249,0.04,0.13,1.03,-0.07,-0.17,0.55,
2.252,0.04,0.13,1.03,-0.08,-0.20,0.46,
2.252,0.03,0.13,1.02,-0.08,-0.20,0.46,
2.254,0.03,0.13,1.02,-0.08,-0.20,0.46,
2.258,0.04,0.13,1.01,-0.08,-0.20,0.46,
2.258,0.04,0.13,1.01,-0.14,-0.20,0.41,
2.259,0.03,0.13,1.01,-0.14,-0.20,0.41,
2.262,0.03,0.12,1.00,-0.14,-0.20,0.41,
2.262,0.03,0.12,1.00,-0.15,-0.22,0.34,
2.264,0.03,0.13,0.99,-0.15,-0.22,0.34,
2.267,0.03,0.13,0.99,-0.15,-0.22,0.34,
2.267,0.03,0.13,0.99,-0.16,-0.26,0.19,
2.269,0.04,0.13,0.98,-0.16,-0.26,0.19,
2.271,0.03,0.13,0.98,-0.16,-0.26,0.19,
2.272,0.03,0.13,0.98,-0.15,-0.24,0.06,
2.274,0.03,0.13,0.97,-0.15,-0.24,0.06,
2.276,0.03,0.13,0.97,-0.15,-0.23,-0.03,
2.276,0.03,0.13,0.97,-0.15,-0.23,-0.03,
2.279,0.03,0.13,0.96,-0.15,-0.23,-0.03,
2.281,0.03,0.14,0.96,-0.15,-0.23,-0.03,
2.282,0.03,0.14,0.96,-0.18,-0.21,-0.17,
2.284,0.03,0.14,0.95,-0.18,-0.21,-0.17,
2.287,0.03,0.14,0.95,-0.18,-0.21,-0.17,
2.287,0.03,0.14,0.95,-0.17,-0.16,-0.24,
2.289,0.03,0.14,0.94,-0.17,-0.16,-0.24,
2.292,0.04,0.14,0.94,-0.17,-0.16,-0.24,
2.292,0.04,0.14,0.94,-0.16,-0.15,-0.32,
2.293,0.04,0.15,0.94,-0.16,-0.15,-0.32,
2.296,0.04,0.15,0.95,-0.16,-0.15,-0.32,
2.296,0.04,0.15,0.95,-0.11,-0.09,-0.39,
2.298,0.05,0.15,0.94,-0.11,-0.09,-0.39,
2.301,0.05,0.15,0.94,-0.06,-0.03,-0.37,
2.301,0.05,0.15,0.95,-0.06,-0.03,-0.37,
2.303,0.06,0.15,0.94,-0.06,-0.03,-0.37,
2.308,0.06,0.16,0.95,-0.06,-0.03,-0.37,
2.308,0.06,0.16,0.95,0.03,0.01,-0.39,
2.31,0.06,0.16,0.95,0.03,0.01,-0.39,
2.311,0.06,0.17,0.96,0.03,0.01,-0.39,
2.311,0.06,0.17,0.96,0.10,0.04,-0.37,
2.313,0.06,0.17,0.96,0.10,0.04,-0.37,
2.315,0.06,0.17,0.97,0.10,0.04,-0.37,
2.316,0.06,0.17,0.97,0.14,0.13,-0.27,
2.318,0.06,0.17,0.97,0.14,0.13,-0.27,
2.32,0.06,0.17,0.98,0.14,0.13,-0.27,
2.321,0.06,0.17,0.98,0.12,0.17,-0.17,
2.324,0.06,0.17,0.98,0.12,0.17,-0.17,
2.325,0.06,0.17,0.99,0.12,0.17,-0.17,
2.326,0.06,0.17,0.99,0.14,0.21,-0.06,
2.328,0.06,0.17,0.99,0.14,0.21,-0.06,
2.331,0.05,0.17,0.99,0.14,0.21,-0.06,
2.331,0.05,0.17,0.99,0.10,0.15,0.05,
2.333,0.05,0.16,1.00,0.10,0.15,0.05,
2.337,0.05,0.16,1.01,0.10,0.15,0.05,
2.337,0.05,0.16,1.01,0.08,0.16,0.11,
2.338,0.05,0.15,1.00,0.08,0.16,0.11,
2.345,0.05,0.15,1.00,0.08,0.16,0.11,
2.346,0.05,0.15,1.00,0.02,0.10,0.18,
2.346,0.04,0.15,1.01,0.02,0.10,0.18,
2.346,0.04,0.15,1.00,0.02,0.10,0.18,
2.346,0.04,0.15,1.00,-0.00,0.02,0.21,
2.349,0.05,0.15,1.01,-0.00,0.02,0.21,
2.35,0.05,0.15,1.01,-0.05,-0.01,0.21,
2.351,0.05,0.15,1.01,-0.05,-0.01,0.21,
2.354,0.05,0.15,1.01,-0.05,-0.01,0.21,
2.356,0.05,0.15,1.01,-0.05,-0.01,0.21,
2.356,0.05,0.15,1.01,-0.01,-0.05,0.25,
2.358,0.05,0.15,1.01,-0.01,-0.05,0.25,
2.361,0.05,0.15,1.01,-0.01,-0.05,0.25,
2.361,0.05,0.15,1.01,-0.01,-0.06,0.25,
2.362,0.05,0.14,1.01,-0.01,-0.06,0.25,
2.366,0.05,0.14,1.01,-0.01,-0.06,0.25,
2.367,0.05,0.14,1.01,-0.01,-0.04,0.27,
2.367,0.04,0.15,1.01,-0.01,-0.04,0.27,
2.37,0.04,0.15,1.01,-0.01,-0.04,0.27,
2.37,0.04,0.15,1.01,-0.03,-0.08,0.25,
2.374,0.04,0.15,1.01,-0.03,-0.08,0.25,
2.376,0.04,0.15,1.01,-0.10,-0.05,0.27,
2.377,0.04,0.15,1.01,-0.10,-0.05,0.27,
2.377,0.04,0.15,1.01,-0.10,-0.05,0.27,
2.38,0.04,0.15,1.00,-0.10,-0.05,0.27,
2.38,0.04,0.15,1.00,-0.06,-0.05,0.23,
2.382,0.05,0.15,1.00,-0.06,-0.05,0.23,
2.385,0.05,0.15,1.00,-0.06,-0.05,0.23,
2.385,0.05,0.15,1.00,-0.06,-0.04,0.19,
2.388,0.05,0.15,1.00,-0.06,-0.04,0.19,
2.393,0.05,0.15,1.00,-0.06,-0.04,0.19,
2.394,0.05,0.15,1.00,0.03,-0.06,0.17,
2.394,0.05,0.15,0.99,0.03,-0.06,0.17,
2.395,0.05,0.15,1.00,0.03,-0.06,0.17,
2.395,0.05,0.15,1.00,0.02,-0.05,0.17,
2.397,0.05,0.15,1.00,0.02,-0.05,0.17,
2.401,0.05,0.15,1.00,0.03,-0.06,0.10,
2.401,0.05,0.15,1.00,0.03,-0.06,0.10,
2.402,0.05,0.15,0.99,0.03,-0.06,0.10,
2.405,0.05,0.16,1.00,0.03,-0.06,0.10,
2.405,0.05,0.16,1.00,-0.00,-0.05,0.13,
2.409,0.05,0.16,0.99,-0.00,-0.05,0.13,
2.41,0.05,0.15,0.99,-0.00,-0.05,0.13,
2.41,0.05,0.15,0.99,-0.01,-0.03,0.11,
2.412,0.05,0.16,0.99,-0.01,-0.03,0.11,
2.414,0.04,0.16,0.99,-0.01,-0.03,0.11,
2.415,0.04,0.16,0.99,-0.02,-0.02,0.09,
2.417,0.05,0.16,0.99,-0.02,-0.02,0.09,
2.419,0.05,0.16,0.99,-0.02,-0.02,0.09,
2.42,0.05,0.16,0.99,-0.00,0.04,0.08,
2.422,0.05,0.16,0.99,-0.00,0.04,0.08,
2.426,0.05,0.16,0.99,-0.01,0.05,0.09,
2.426,0.05,0.17,0.99,-0.01,0.05,0.09,
2.427,0.05,0.17,0.99,-0.01,0.05,0.09,
2.43,0.05,0.17,0.99,-0.01,0.05,0.09,
2.431,0.05,0.17,0.99,0.02,0.07,0.07,
2.432,0.05,0.17,0.98,0.02,0.07,0.07,
2.435,0.06,0.17,0.99,0.02,0.07,0.07,
2.435,0.06,0.17,0.99,0.04,0.12,0.03,
2.437,0.06,0.17,0.99,0.04,0.12,0.03,
2.446,0.06,0.17,0.98,0.04,0.12,0.03,
2.446,0.06,0.17,0.98,0.05,0.11,0.00,
2.447,0.06,0.17,0.98,0.05,0.11,0.00,
2.45,0.05,0.17,0.99,0.05,0.11,0.00,
2.45,0.05,0.17,0.99,0.08,0.13,0.03,
2.45,0.05,0.17,0.99,0.08,0.13,0.03,
2.45,0.05,0.17,0.99,0.08,0.07,0.01,
2.451,0.05,0.17,0.99,0.08,0.07,0.01,
2.452,0.05,0.17,0.99,0.08,0.07,0.01,
2.454,0.04,0.17,1.00,0.08,0.07,0.01,
2.455,0.04,0.17,1.00,0.04,0.12,0.05,
2.457,0.05,0.17,0.99,0.04,0.12,0.05,
2.459,0.05,0.17,0.99,0.04,0.12,0.05,
2.459,0.05,0.17,0.99,-0.02,0.11,0.10,
2.462,0.05,0.17,0.99,-0.02,0.11,0.10,
2.464,0.05,0.17,0.99,-0.02,0.11,0.10,
2.464,0.05,0.17,0.99,0.01,0.09,0.05,
2.466,0.05,0.17,1.00,0.01,0.09,0.05,
2.47,0.05,0.17,0.99,0.01,0.09,0.05,
2.47,0.05,0.17,0.99,0.01,0.06,0.10,
2.471,0.05,0.17,0.99,0.01,0.06,0.10,
2.475,0.04,0.17,1.00,0.01,0.06,0.10,
2.476,0.04,0.17,1.00,-0.00,0.06,0.12,
2.478,0.04,0.17,0.99,-0.00,0.06,0.12,
2.479,0.04,0.17,0.99,-0.00,0.06,0.12,
2.479,0.04,0.17,0.99,-0.01,0.05,0.09,
2.482,0.05,0.17,0.99,-0.01,0.05,0.09,
2.484,0.04,0.17,0.99,-0.01,0.05,0.09,
2.485,0.04,0.17,0.99,-0.02,0.03,0.07,
2.487,0.03,0.17,0.98,-0.02,0.03,0.07,
2.489,0.03,0.17,0.94,-0.02,0.03,0.07,
2.49,0.03,0.17,0.94,-0.02,0.02,0.03,
2.491,0.03,0.18,0.88,-0.02,0.02,0.03,
2.494,0.03,0.18,0.88,-0.17,0.07,-0.23,
2.494,0.05,0.18,0.86,-0.17,0.07,-0.23,
2.497,0.06,0.19,0.86,-0.17,0.07,-0.23,
2.5,0.06,0.19,0.86,-0.03,0.14,-1.11,
2.5,0.06,0.18,0.87,-0.03,0.14,-1.11,
2.501,0.05,0.19,0.89,-0.03,0.14,-1.11,
2.504,0.03,0.18,0.91,-0.03,0.14,-1.11,
2.504,0.03,0.18,0.91,0.18,0.21,-1.16,
2.506,0.02,0.18,0.91,0.18,0.21,-1.16,
2.509,0.02,0.18,0.91,-0.01,0.19,-0.80,
2.51,0.02,0.18,0.91,-0.01,0.19,-0.80,
2.512,0.01,0.18,0.91,-0.01,0.19,-0.80,
2.514,0.02,0.18,0.90,-0.01,0.19,-0.80,
2.514,0.02,0.18,0.90,-0.19,0.16,-0.71,
2.516,0.01,0.19,0.90,-0.19,0.16,-0.71,
2.519,0.01,0.18,0.91,-0.19,0.16,-0.71,
2.52,0.01,0.18,0.91,-0.24,0.15,-0.74,
2.521,0.01,0.19,0.92,-0.24,0.15,-0.74,
2.529,0.01,0.19,0.92,-0.25,0.22,-0.71,
2.529,0.01,0.18,0.93,-0.25,0.22,-0.71,
2.529,0.01,0.18,0.96,-0.25,0.22,-0.71,
2.53,0.01,0.17,0.96,-0.25,0.22,-0.71,
2.53,0.01,0.17,0.96,-0.25,0.23,-0.50,
2.531,0.02,0.17,0.97,-0.25,0.23,-0.50,
2.534,0.02,0.16,0.98,-0.25,0.23,-0.50,
2.534,0.02,0.16,0.98,-0.27,0.15,-0.20,
2.537,0.02,0.16,0.99,-0.27,0.15,-0.20,
2.539,0.02,0.16,0.99,-0.22,0.05,-0.05,
2.54,0.03,0.15,1.00,-0.22,0.05,-0.05,
2.546,0.03,0.15,1.01,-0.22,0.05,-0.05,
2.546,0.04,0.15,1.02,-0.22,0.05,-0.05,
2.546,0.04,0.15,1.02,-0.15,-0.02,0.16,
2.546,0.05,0.15,1.02,-0.15,-0.02,0.16,
2.563,0.05,0.15,1.02,-0.06,-0.08,0.31,
2.563,0.05,0.15,1.03,-0.06,-0.08,0.31,
2.564,0.05,0.15,1.04,-0.06,-0.08,0.31,
2.564,0.06,0.15,1.04,-0.06,-0.08,0.31,
2.564,0.06,0.15,1.04,0.08,-0.08,0.46,
2.564,0.06,0.15,1.05,0.08,-0.08,0.46,
2.564,0.07,0.16,1.06,0.08,-0.08,0.46,
2.565,0.07,0.16,1.06,0.18,-0.04,0.61,
2.565,0.06,0.17,1.07,0.18,-0.04,0.61,
2.565,0.07,0.17,1.07,0.18,-0.04,0.61,
2.565,0.07,0.17,1.07,0.23,0.01,0.72,
2.565,0.07,0.17,1.07,0.23,0.01,0.72,
2.58,0.07,0.17,1.07,0.23,0.01,0.72,
2.581,0.07,0.17,1.07,0.25,0.09,0.84,
2.581,0.07,0.18,1.06,0.25,0.09,0.84,
2.581,0.07,0.18,1.06,0.25,0.09,0.84,
2.582,0.07,0.18,1.06,0.27,0.11,0.86,
2.582,0.07,0.18,1.05,0.27,0.11,0.86,
2.582,0.07,0.18,1.03,0.27,0.11,0.86,
2.583,0.07,0.18,1.03,0.26,0.15,0.77,
2.583,0.07,0.18,1.02,0.26,0.15,0.77,
2.583,0.06,0.18,1.02,0.26,0.15,0.77,
2.583,0.06,0.18,1.02,0.22,0.14,0.56,
2.586,0.06,0.18,1.01,0.22,0.14,0.56,
2.589,0.06,0.17,1.00,0.22,0.14,0.56,
2.589,0.06,0.17,1.00,0.22,0.13,0.38,
2.591,0.06,0.18,0.99,0.22,0.13,0.38,
2.602,0.05,0.17,0.99,0.22,0.13,0.38,
2.603,0.05,0.17,0.99,0.16,0.08,0.22,
2.603,0.05,0.17,0.98,0.16,0.08,0.22,
2.603,0.05,0.17,0.98,0.09,0.06,0.06,
2.603,0.04,0.17,0.98,0.09,0.06,0.06,
2.604,0.04,0.17,0.98,0.09,0.06,0.06,
2.604,0.03,0.17,0.98,0.09,0.06,0.06,
2.604,0.03,0.17,0.98,0.01,-0.01,-0.01,
