
time,gFx,gFy,gFz,ax,ay,az,
0.006,0.10,0.13,0.98,0.56,0.35,-0.15,
0.007,0.10,0.13,0.98,0.55,0.33,-0.11,
0.007,0.10,0.13,0.99,0.55,0.33,-0.11,
0.007,0.10,0.13,0.99,0.54,0.33,-0.07,
0.007,0.09,0.14,1.00,0.54,0.33,-0.07,
0.008,0.09,0.13,1.00,0.54,0.33,-0.07,
0.008,0.08,0.13,1.01,0.54,0.33,-0.07,
0.008,0.08,0.13,1.01,0.50,0.30,0.05,
0.008,0.08,0.13,1.01,0.50,0.30,0.05,
0.011,0.08,0.13,1.01,0.41,0.27,0.14,
0.012,0.07,0.12,1.02,0.41,0.27,0.14,
0.012,0.07,0.12,1.02,0.41,0.27,0.14,
0.015,0.07,0.12,1.03,0.41,0.27,0.14,
0.015,0.07,0.12,1.03,0.30,0.20,0.24,
0.017,0.06,0.11,1.03,0.30,0.20,0.24,
0.02,0.06,0.11,1.03,0.22,0.14,0.35,
0.02,0.05,0.11,1.03,0.22,0.14,0.35,
0.022,0.06,0.11,1.03,0.22,0.14,0.35,
0.028,0.05,0.10,1.03,0.22,0.14,0.35,
0.028,0.05,0.10,1.03,0.13,0.07,0.40,
0.028,0.05,0.10,1.03,0.13,0.07,0.40,
0.03,0.04,0.10,1.03,0.13,0.07,0.40,
0.03,0.04,0.10,1.03,0.11,-0.02,0.41,
0.032,0.05,0.10,1.02,0.11,-0.02,0.41,
0.035,0.05,0.10,1.02,0.03,-0.03,0.35,
0.035,0.04,0.09,1.02,0.03,-0.03,0.35,
0.036,0.04,0.10,1.02,0.03,-0.03,0.35,
0.039,0.03,0.09,1.01,0.03,-0.03,0.35,
0.039,0.03,0.09,1.01,0.01,-0.12,0.26,
0.046,0.03,0.09,1.01,0.01,-0.12,0.26,
0.046,0.03,0.09,1.00,0.01,-0.12,0.26,
0.046,0.03,0.09,1.00,-0.06,-0.13,0.22,
0.047,0.03,0.08,1.00,-0.06,-0.13,0.22,
0.049,0.03,0.08,1.00,-0.06,-0.13,0.22,
0.049,0.03,0.08,1.00,-0.08,-0.19,0.13,
0.051,0.02,0.08,1.00,-0.08,-0.19,0.13,
0.054,0.02,0.08,0.99,-0.08,-0.19,0.13,
0.054,0.02,0.08,0.99,-0.10,-0.24,0.09,
0.056,0.02,0.08,0.99,-0.10,-0.24,0.09,
0.059,0.02,0.08,0.99,-0.18,-0.28,0.04,
0.059,0.02,0.09,1.00,-0.18,-0.28,0.04,
0.061,0.02,0.08,0.98,-0.18,-0.28,0.04,
0.064,0.02,0.08,0.98,-0.18,-0.28,0.04,
0.064,0.02,0.08,0.98,-0.17,-0.22,0.02,
0.066,0.02,0.08,0.99,-0.17,-0.22,0.02,
0.069,0.02,0.08,0.98,-0.17,-0.22,0.02,
0.069,0.02,0.08,0.98,-0.17,-0.25,-0.08,
0.071,0.01,0.09,0.98,-0.17,-0.25,-0.08,
0.075,0.01,0.09,0.98,-0.17,-0.25,-0.08,
0.076,0.01,0.09,0.98,-0.18,-0.25,-0.06,
0.076,0.01,0.09,0.99,-0.18,-0.25,-0.06,
0.079,0.01,0.09,1.00,-0.18,-0.25,-0.06,
0.079,0.01,0.09,1.00,-0.18,-0.18,-0.10,
0.08,0.01,0.09,0.99,-0.18,-0.18,-0.10,
0.084,0.01,0.09,0.99,-0.22,-0.17,0.01,
0.084,0.01,0.09,0.99,-0.22,-0.17,0.01,
0.086,0.01,0.09,0.98,-0.22,-0.17,0.01,
0.089,0.01,0.10,0.99,-0.22,-0.17,0.01,
0.089,0.01,0.10,0.99,-0.15,-0.16,-0.03,
0.091,0.02,0.10,0.98,-0.15,-0.16,-0.03,
0.093,0.02,0.10,0.97,-0.15,-0.16,-0.03,
0.094,0.02,0.10,0.97,-0.14,-0.11,-0.06,
0.096,0.02,0.10,0.97,-0.14,-0.11,-0.06,
0.099,0.03,0.10,0.96,-0.14,-0.11,-0.06,
0.099,0.03,0.10,0.96,-0.04,-0.11,-0.17,
0.101,0.03,0.10,0.96,-0.04,-0.11,-0.17,
0.104,0.03,0.11,0.95,-0.04,-0.11,-0.17,
0.104,0.03,0.11,0.95,-0.01,-0.05,-0.27,
0.106,0.03,0.12,0.95,-0.01,-0.05,-0.27,
0.109,0.03,0.12,0.95,0.04,-0.01,-0.35,
0.109,0.03,0.12,0.95,0.04,-0.01,-0.35,
0.11,0.03,0.12,0.95,0.04,-0.01,-0.35,
0.114,0.03,0.12,0.94,0.04,-0.01,-0.35,
0.114,0.03,0.12,0.94,0.06,0.08,-0.40,
0.115,0.03,0.12,0.95,0.06,0.08,-0.40,
0.118,0.03,0.12,0.95,0.06,0.08,-0.40,
0.118,0.03,0.12,0.95,0.05,0.14,-0.41,
0.12,0.03,0.13,0.96,0.05,0.14,-0.41,
0.123,0.04,0.13,0.95,0.05,0.14,-0.41,
0.123,0.04,0.13,0.95,0.04,0.14,-0.39,
0.125,0.05,0.13,0.95,0.04,0.14,-0.39,
0.129,0.04,0.13,0.96,0.04,0.14,-0.39,
0.129,0.04,0.13,0.96,0.11,0.17,-0.37,
0.13,0.05,0.12,0.97,0.11,0.17,-0.37,
0.133,0.05,0.12,0.97,0.19,0.18,-0.35,
0.134,0.05,0.12,0.97,0.19,0.18,-0.35,
0.136,0.05,0.12,0.98,0.19,0.18,-0.35,
0.138,0.05,0.13,0.98,0.19,0.18,-0.35,
0.139,0.05,0.13,0.98,0.22,0.15,-0.21,
0.14,0.05,0.12,0.99,0.22,0.15,-0.21,
0.143,0.05,0.12,1.00,0.22,0.15,-0.21,
0.143,0.05,0.12,1.00,0.25,0.15,-0.09,
0.145,0.05,0.12,1.01,0.25,0.15,-0.09,
0.148,0.05,0.12,1.01,0.23,0.14,0.07,
0.149,0.05,0.12,1.01,0.23,0.14,0.07,
0.151,0.05,0.12,1.02,0.23,0.14,0.07,
0.153,0.05,0.12,1.03,0.23,0.14,0.07,
0.153,0.05,0.12,1.03,0.25,0.10,0.19,
0.155,0.05,0.12,1.03,0.25,0.10,0.19,
0.162,0.05,0.12,1.03,0.24,0.11,0.33,
0.164,0.05,0.11,1.04,0.24,0.11,0.33,
0.164,0.05,0.11,1.04,0.24,0.11,0.33,
0.165,0.05,0.11,1.04,0.24,0.11,0.33,
0.165,0.05,0.11,1.04,0.24,0.07,0.41,
0.165,0.05,0.11,1.04,0.24,0.07,0.41,
0.167,0.06,0.11,1.05,0.24,0.07,0.41,
0.168,0.06,0.11,1.05,0.27,0.05,0.50,
0.17,0.06,0.11,1.05,0.27,0.05,0.50,
0.173,0.06,0.11,1.05,0.27,0.05,0.50,
0.173,0.06,0.11,1.05,0.28,0.02,0.54,
0.176,0.07,0.10,1.05,0.28,0.02,0.54,
0.177,0.07,0.10,1.04,0.28,0.02,0.54,
0.178,0.07,0.10,1.04,0.33,-0.01,0.57,
0.18,0.08,0.11,1.04,0.33,-0.01,0.57,
0.182,0.08,0.11,1.04,0.43,-0.06,0.54,
0.182,0.08,0.11,1.04,0.43,-0.06,0.54,
0.184,0.09,0.10,1.04,0.43,-0.06,0.54,
0.189,0.09,0.11,1.04,0.43,-0.06,0.54,
0.19,0.09,0.11,1.04,0.54,-0.01,0.48,
0.19,0.09,0.11,1.04,0.54,-0.01,0.48,
0.192,0.09,0.11,1.03,0.54,-0.01,0.48,
0.192,0.09,0.11,1.03,0.61,-0.03,0.49,
0.195,0.10,0.12,1.03,0.61,-0.03,0.49,
0.197,0.10,0.13,1.03,0.61,-0.03,0.49,
0.198,0.10,0.13,1.03,0.63,0.04,0.41,
0.199,0.10,0.13,1.02,0.63,0.04,0.41,
0.202,0.10,0.13,1.02,0.63,0.04,0.41,
0.202,0.10,0.13,1.02,0.67,0.12,0.38,
0.204,0.10,0.14,1.01,0.67,0.12,0.38,
0.209,0.10,0.14,1.01,0.71,0.17,0.30,
0.209,0.10,0.14,1.01,0.71,0.17,0.30,
0.21,0.10,0.14,1.01,0.71,0.17,0.30,
0.212,0.10,0.14,1.00,0.71,0.17,0.30,
0.212,0.10,0.14,1.00,0.72,0.25,0.16,
0.214,0.10,0.14,0.99,0.72,0.25,0.16,
0.217,0.10,0.14,0.99,0.69,0.25,0.12,
0.217,0.10,0.15,0.99,0.69,0.25,0.12,
0.219,0.10,0.15,0.98,0.69,0.25,0.12,
0.222,0.10,0.15,0.98,0.69,0.25,0.12,
0.222,0.10,0.15,0.98,0.73,0.28,-0.01,
0.226,0.10,0.15,0.97,0.73,0.28,-0.01,
0.227,0.10,0.15,0.97,0.73,0.28,-0.01,
0.227,0.10,0.15,0.97,0.69,0.32,-0.13,
0.229,0.09,0.15,0.96,0.69,0.32,-0.13,
0.232,0.09,0.15,0.96,0.70,0.31,-0.25,
0.232,0.09,0.15,0.95,0.70,0.31,-0.25,
0.234,0.09,0.15,0.95,0.70,0.31,-0.25,
0.238,0.08,0.15,0.95,0.70,0.31,-0.25,
0.238,0.08,0.15,0.95,0.62,0.28,-0.36,
0.24,0.08,0.15,0.95,0.62,0.28,-0.36,
0.242,0.07,0.15,0.94,0.62,0.28,-0.36,
0.242,0.07,0.15,0.94,0.57,0.25,-0.42,
0.244,0.07,0.15,0.93,0.57,0.25,-0.42,
0.247,0.07,0.16,0.94,0.57,0.25,-0.42,
0.247,0.07,0.16,0.94,0.47,0.25,-0.46,
0.249,0.07,0.15,0.93,0.47,0.25,-0.46,
0.251,0.06,0.15,0.93,0.47,0.25,-0.46,
0.252,0.06,0.15,0.93,0.42,0.28,-0.54,
0.254,0.06,0.15,0.93,0.42,0.28,-0.54,
0.256,0.06,0.15,0.93,0.36,0.21,-0.56,
0.257,0.05,0.15,0.93,0.36,0.21,-0.56,
0.262,0.04,0.15,0.94,0.36,0.21,-0.56,
0.263,0.04,0.15,0.93,0.36,0.21,-0.56,
0.263,0.04,0.15,0.93,0.31,0.22,-0.55,
0.264,0.04,0.15,0.93,0.31,0.22,-0.55,
0.266,0.03,0.14,0.93,0.31,0.22,-0.55,
0.267,0.03,0.14,0.93,0.21,0.18,-0.52,
0.269,0.04,0.14,0.93,0.21,0.18,-0.52,
0.271,0.04,0.14,0.93,0.21,0.18,-0.52,
0.272,0.04,0.14,0.93,0.16,0.13,-0.56,
0.273,0.03,0.14,0.93,0.16,0.13,-0.56,
0.276,0.03,0.13,0.93,0.16,0.13,-0.56,
0.277,0.03,0.13,0.93,0.15,0.05,-0.55,
0.278,0.04,0.13,0.94,0.15,0.05,-0.55,
0.282,0.04,0.13,0.94,0.10,0.00,-0.53,
0.282,0.04,0.13,0.94,0.10,0.00,-0.53,
0.283,0.04,0.13,0.95,0.10,0.00,-0.53,
0.287,0.04,0.13,0.96,0.10,0.00,-0.53,
0.287,0.04,0.13,0.96,0.16,-0.04,-0.45,
0.289,0.04,0.12,0.95,0.16,-0.04,-0.45,
0.294,0.05,0.13,0.97,0.16,-0.04,-0.45,
0.295,0.05,0.13,0.97,0.19,-0.05,-0.32,
0.295,0.05,0.12,0.97,0.19,-0.05,-0.32,
0.296,0.05,0.13,0.98,0.19,-0.05,-0.32,
0.297,0.05,0.13,0.98,0.25,-0.07,-0.26,
0.298,0.06,0.13,0.98,0.25,-0.07,-0.26,
0.301,0.06,0.13,0.99,0.25,-0.07,-0.26,
0.301,0.06,0.13,0.99,0.30,-0.06,-0.11,
0.303,0.06,0.13,1.01,0.30,-0.06,-0.11,
0.307,0.06,0.13,1.01,0.36,-0.00,0.02,
0.307,0.07,0.14,1.01,0.36,-0.00,0.02,
0.309,0.07,0.14,1.01,0.36,-0.00,0.02,
0.311,0.07,0.14,1.01,0.41,0.03,0.21,
0.311,0.08,0.13,1.02,0.41,0.03,0.21,
0.314,0.08,0.14,1.02,0.41,0.03,0.21,
0.316,0.08,0.14,1.02,0.52,0.04,0.32,
0.317,0.09,0.14,1.02,0.52,0.04,0.32,
0.319,0.09,0.13,1.02,0.52,0.04,0.32,
0.322,0.10,0.13,1.01,0.52,0.04,0.32,
0.322,0.10,0.13,1.01,0.61,0.06,0.34,
0.323,0.11,0.13,1.02,0.61,0.06,0.34,
0.326,0.11,0.13,1.02,0.71,0.02,0.28,
0.327,0.11,0.14,1.01,0.71,0.02,0.28,
0.328,0.12,0.14,1.01,0.71,0.02,0.28,
0.331,0.12,0.14,1.01,0.84,0.02,0.27,
0.332,0.12,0.14,1.01,0.84,0.02,0.27,
0.334,0.12,0.13,1.00,0.84,0.02,0.27,
0.336,0.12,0.13,1.00,0.93,0.05,0.20,
0.337,0.12,0.14,1.00,0.93,0.05,0.20,
0.339,0.13,0.14,0.99,0.93,0.05,0.20,
0.343,0.13,0.14,0.98,0.93,0.05,0.20,
0.343,0.13,0.14,0.98,0.96,0.02,0.08,
0.344,0.13,0.13,0.97,0.96,0.02,0.08,
0.346,0.13,0.14,0.96,0.96,0.02,0.08,
0.346,0.13,0.14,0.96,1.05,0.03,-0.07,
0.349,0.14,0.14,0.95,1.05,0.03,-0.07,
0.351,0.14,0.14,0.95,1.05,0.03,-0.07,
0.352,0.14,0.14,0.95,1.09,0.02,-0.22,
0.353,0.14,0.14,0.95,1.09,0.02,-0.22,
0.356,0.14,0.14,0.94,1.09,0.02,-0.22,
0.356,0.14,0.14,0.94,1.15,0.04,-0.33,
0.361,0.14,0.15,0.93,1.15,0.04,-0.33,
0.361,0.14,0.15,0.93,1.15,0.04,-0.33,
0.361,0.14,0.15,0.93,1.16,0.08,-0.45,
0.363,0.15,0.15,0.92,1.16,0.08,-0.45,
0.366,0.15,0.16,0.92,1.16,0.08,-0.45,
0.366,0.15,0.16,0.92,1.21,0.10,-0.56,
0.368,0.15,0.16,0.91,1.21,0.10,-0.56,
0.371,0.14,0.17,0.92,1.21,0.10,-0.56,
0.371,0.14,0.17,0.92,1.22,0.16,-0.62,
0.373,0.14,0.17,0.91,1.22,0.16,-0.62,
0.378,0.15,0.18,0.91,1.22,0.16,-0.62,
0.378,0.15,0.18,0.91,1.23,0.23,-0.67,
0.379,0.14,0.18,0.91,1.23,0.23,-0.67,
0.381,0.14,0.18,0.90,1.23,0.23,-0.67,
0.381,0.14,0.18,0.90,1.19,0.31,-0.69,
0.384,0.14,0.18,0.91,1.19,0.31,-0.69,
0.386,0.14,0.18,0.91,1.16,0.34,-0.73,
0.386,0.13,0.19,0.90,1.16,0.34,-0.73,
0.388,0.13,0.19,0.90,1.16,0.34,-0.73,
0.391,0.12,0.19,0.91,1.16,0.34,-0.73,
0.391,0.12,0.19,0.91,1.09,0.39,-0.73,
0.393,0.12,0.19,0.91,1.09,0.39,-0.73,
0.396,0.12,0.19,0.91,1.09,0.39,-0.73,
0.396,0.12,0.19,0.91,1.04,0.37,-0.71,
0.397,0.12,0.19,0.92,1.04,0.37,-0.71,
0.401,0.12,0.20,0.91,1.04,0.37,-0.71,
0.401,0.12,0.20,0.91,0.96,0.41,-0.66,
0.402,0.12,0.20,0.91,0.96,0.41,-0.66,
0.405,0.12,0.19,0.92,0.96,0.41,-0.66,
0.406,0.12,0.19,0.92,0.97,0.43,-0.63,
0.407,0.12,0.20,0.92,0.97,0.43,-0.63,
0.41,0.12,0.20,0.91,0.97,0.43,-0.63,
0.411,0.12,0.20,0.91,0.98,0.39,-0.64,
0.413,0.12,0.20,0.92,0.98,0.39,-0.64,
0.416,0.12,0.20,0.92,0.93,0.42,-0.62,
0.417,0.12,0.20,0.91,0.93,0.42,-0.62,
0.417,0.12,0.20,0.91,0.93,0.42,-0.62,
0.421,0.12,0.19,0.91,0.93,0.42,-0.62,
0.421,0.12,0.19,0.91,0.93,0.38,-0.61,
0.423,0.12,0.19,0.92,0.93,0.38,-0.61,
0.426,0.12,0.20,0.92,0.93,0.38,-0.61,
0.426,0.12,0.20,0.92,0.93,0.36,-0.61,
0.427,0.11,0.19,0.92,0.93,0.36,-0.61,
0.43,0.11,0.19,0.92,0.93,0.36,-0.61,
0.43,0.11,0.19,0.92,0.94,0.34,-0.55,
0.433,0.11,0.19,0.91,0.94,0.34,-0.55,
0.435,0.10,0.19,0.92,0.94,0.34,-0.55,
0.435,0.10,0.19,0.92,0.87,0.33,-0.55,
0.439,0.09,0.18,0.92,0.87,0.33,-0.55,
0.44,0.10,0.18,0.91,0.87,0.33,-0.55,
0.441,0.10,0.18,0.91,0.81,0.27,-0.58,
0.442,0.09,0.17,0.91,0.81,0.27,-0.58,
0.445,0.09,0.17,0.91,0.81,0.27,-0.58,
0.446,0.09,0.17,0.91,0.73,0.19,-0.57,
0.448,0.08,0.17,0.91,0.73,0.19,-0.57,
0.45,0.08,0.16,0.90,0.73,0.19,-0.57,
0.45,0.08,0.16,0.90,0.70,0.08,-0.65,
0.452,0.08,0.16,0.90,0.70,0.08,-0.65,
0.455,0.08,0.16,0.90,0.64,-0.01,-0.65,
0.455,0.07,0.16,0.89,0.64,-0.01,-0.65,
0.458,0.06,0.15,0.89,0.64,-0.01,-0.65,
0.463,0.06,0.16,0.88,0.64,-0.01,-0.65,
0.464,0.06,0.16,0.88,0.57,-0.06,-0.76,
0.464,0.05,0.16,0.87,0.57,-0.06,-0.76,
0.465,0.05,0.16,0.87,0.57,-0.06,-0.76,
0.465,0.05,0.16,0.87,0.46,-0.07,-0.83,
0.467,0.05,0.17,0.87,0.46,-0.07,-0.83,
0.47,0.05,0.17,0.86,0.46,-0.07,-0.83,
0.47,0.05,0.17,0.86,0.38,-0.05,-0.96,
0.472,0.05,0.17,0.86,0.38,-0.05,-0.96,
0.475,0.05,0.18,0.84,0.38,-0.05,-0.96,
0.475,0.05,0.18,0.84,0.36,0.01,-1.03,
0.477,0.05,0.18,0.84,0.36,0.01,-1.03,
0.48,0.05,0.18,0.84,0.34,0.05,-1.15,
0.48,0.05,0.18,0.84,0.34,0.05,-1.15,
0.482,0.04,0.18,0.84,0.34,0.05,-1.15,
0.485,0.04,0.19,0.83,0.34,0.05,-1.15,
0.485,0.04,0.19,0.83,0.37,0.09,-1.26,
0.487,0.05,0.19,0.82,0.37,0.09,-1.26,
0.49,0.05,0.19,0.82,0.37,0.09,-1.26,
0.49,0.05,0.19,0.82,0.33,0.15,-1.28,
0.492,0.05,0.19,0.82,0.33,0.15,-1.28,
0.495,0.05,0.20,0.81,0.33,0.15,-1.28,
0.495,0.05,0.20,0.81,0.37,0.19,-1.46,
0.497,0.05,0.20,0.80,0.37,0.19,-1.46,
0.501,0.05,0.20,0.80,0.42,0.23,-1.48,
0.501,0.06,0.20,0.80,0.42,0.23,-1.48,
0.501,0.05,0.20,0.80,0.42,0.23,-1.48,
0.505,0.05,0.20,0.80,0.47,0.28,-1.56,
0.506,0.06,0.20,0.79,0.47,0.28,-1.56,
0.506,0.06,0.20,0.79,0.47,0.28,-1.56,
0.51,0.06,0.20,0.79,0.47,0.28,-1.56,
0.511,0.06,0.20,0.79,0.47,0.25,-1.62,
0.511,0.06,0.20,0.80,0.47,0.25,-1.62,
0.514,0.06,0.20,0.80,0.51,0.25,-1.65,
0.515,0.06,0.20,0.78,0.51,0.25,-1.65,
0.516,0.06,0.19,0.79,0.51,0.25,-1.65,
0.519,0.06,0.19,0.78,0.51,0.25,-1.65,
0.519,0.06,0.19,0.78,0.55,0.25,-1.64,
0.522,0.06,0.19,0.79,0.55,0.25,-1.64,
0.524,0.06,0.18,0.79,0.55,0.25,-1.64,
0.524,0.06,0.18,0.79,0.56,0.18,-1.68,
0.527,0.06,0.18,0.80,0.56,0.18,-1.68,
0.529,0.06,0.18,0.80,0.56,0.11,-1.66,
0.529,0.05,0.18,0.80,0.56,0.11,-1.66,
0.531,0.05,0.18,0.80,0.56,0.11,-1.66,
0.534,0.04,0.17,0.81,0.56,0.11,-1.66,
0.534,0.04,0.17,0.81,0.48,0.08,-1.55,
0.536,0.03,0.17,0.81,0.48,0.08,-1.55,
0.539,0.03,0.17,0.81,0.48,0.08,-1.55,
0.539,0.03,0.17,0.81,0.37,0.06,-1.48,
0.541,0.02,0.17,0.82,0.37,0.06,-1.48,
0.545,0.02,0.17,0.83,0.37,0.06,-1.48,
0.546,0.02,0.17,0.83,0.28,0.01,-1.45,
0.546,0.02,0.16,0.83,0.28,0.01,-1.45,
0.549,0.01,0.17,0.84,0.28,0.01,-1.45,
0.549,0.01,0.17,0.84,0.18,0.00,-1.28,
0.551,0.00,0.17,0.84,0.18,0.00,-1.28,
0.554,0.00,0.17,0.84,0.10,-0.01,-1.18,
0.554,-0.00,0.17,0.84,0.10,-0.01,-1.18,
0.556,-0.01,0.16,0.85,0.10,-0.01,-1.18,
0.559,-0.01,0.16,0.85,0.10,-0.01,-1.18,
0.56,-0.01,0.16,0.85,-0.02,0.01,-1.12,
0.56,-0.01,0.16,0.85,-0.02,0.01,-1.12,
0.564,-0.02,0.16,0.86,-0.02,0.01,-1.12,
0.564,-0.02,0.16,0.86,-0.14,-0.03,-1.05,
0.567,-0.02,0.16,0.86,-0.14,-0.03,-1.05,
0.569,-0.03,0.15,0.86,-0.14,-0.03,-1.05,
0.569,-0.03,0.15,0.86,-0.18,-0.02,-0.99,
0.571,-0.03,0.15,0.86,-0.18,-0.02,-0.99,
0.574,-0.03,0.15,0.86,-0.27,-0.07,-0.91,
0.574,-0.03,0.16,0.86,-0.27,-0.07,-0.91,
0.576,-0.03,0.16,0.86,-0.27,-0.07,-0.91,
0.578,-0.03,0.16,0.86,-0.29,-0.05,-0.93,
0.578,-0.04,0.15,0.86,-0.29,-0.05,-0.93,
0.581,-0.03,0.15,0.86,-0.29,-0.05,-0.93,
0.584,-0.04,0.15,0.85,-0.29,-0.05,-0.93,
0.584,-0.04,0.15,0.85,-0.35,-0.08,-0.90,
0.586,-0.04,0.15,0.86,-0.35,-0.08,-0.90,
0.589,-0.03,0.15,0.85,-0.35,-0.08,-0.90,
0.589,-0.03,0.15,0.85,-0.37,-0.12,-0.96,
0.591,-0.04,0.14,0.85,-0.37,-0.12,-0.96,
0.598,-0.03,0.14,0.85,-0.37,-0.12,-0.96,
0.599,-0.03,0.14,0.85,-0.36,-0.09,-0.94,
0.599,-0.03,0.14,0.84,-0.36,-0.09,-0.94,
0.599,-0.03,0.14,0.84,-0.36,-0.09,-0.94,
0.599,-0.03,0.14,0.84,-0.37,-0.14,-1.02,
0.601,-0.04,0.14,0.84,-0.37,-0.14,-1.02,
0.603,-0.04,0.14,0.84,-0.34,-0.16,-1.08,
0.604,-0.03,0.14,0.83,-0.34,-0.16,-1.08,
0.606,-0.03,0.14,0.83,-0.34,-0.16,-1.08,
0.609,-0.03,0.14,0.83,-0.34,-0.16,-1.08,
0.609,-0.03,0.14,0.83,-0.39,-0.19,-1.13,
0.611,-0.03,0.14,0.83,-0.39,-0.19,-1.13,
0.614,-0.03,0.13,0.83,-0.39,-0.19,-1.13,
0.614,-0.03,0.13,0.83,-0.39,-0.16,-1.18,
0.615,-0.04,0.13,0.84,-0.39,-0.16,-1.18,
0.619,-0.04,0.13,0.83,-0.39,-0.16,-1.18,
0.619,-0.04,0.13,0.83,-0.39,-0.20,-1.18,
0.62,-0.04,0.12,0.83,-0.39,-0.20,-1.18,
0.624,-0.04,0.12,0.83,-0.43,-0.22,-1.16,
0.624,-0.04,0.12,0.83,-0.43,-0.22,-1.16,
0.625,-0.04,0.12,0.83,-0.43,-0.22,-1.16,
0.628,-0.04,0.12,0.83,-0.43,-0.22,-1.16,
0.629,-0.04,0.12,0.83,-0.50,-0.29,-1.16,
0.63,-0.04,0.11,0.83,-0.50,-0.29,-1.16,
0.633,-0.04,0.11,0.83,-0.50,-0.29,-1.16,
0.633,-0.04,0.11,0.83,-0.51,-0.34,-1.20,
0.635,-0.05,0.11,0.83,-0.51,-0.34,-1.20,
0.638,-0.05,0.10,0.83,-0.51,-0.34,-1.20,
0.638,-0.05,0.10,0.83,-0.54,-0.42,-1.16,
0.64,-0.06,0.10,0.83,-0.54,-0.42,-1.16,
0.644,-0.06,0.10,0.84,-0.54,-0.42,-1.16,
0.644,-0.06,0.10,0.84,-0.60,-0.43,-1.15,
0.645,-0.06,0.09,0.84,-0.60,-0.43,-1.15,
0.648,-0.06,0.09,0.84,-0.72,-0.51,-1.13,
0.649,-0.07,0.09,0.84,-0.72,-0.51,-1.13,
0.65,-0.07,0.09,0.85,-0.72,-0.51,-1.13,
0.652,-0.07,0.09,0.85,-0.81,-0.56,-1.06,
0.654,-0.07,0.09,0.86,-0.81,-0.56,-1.06,
0.655,-0.08,0.08,0.86,-0.81,-0.56,-1.06,
0.658,-0.07,0.08,0.86,-0.81,-0.56,-1.06,
0.658,-0.07,0.08,0.86,-0.88,-0.60,-0.94,
0.66,-0.08,0.08,0.87,-0.88,-0.60,-0.94,
0.663,-0.08,0.07,0.87,-0.88,-0.60,-0.94,
0.663,-0.08,0.07,0.87,-0.94,-0.66,-0.90,
0.665,-0.08,0.07,0.87,-0.94,-0.66,-0.90,
0.668,-0.08,0.07,0.88,-0.94,-0.66,-0.90,
0.668,-0.08,0.07,0.88,-1.02,-0.69,-0.79,
0.67,-0.09,0.07,0.88,-1.02,-0.69,-0.79,
0.673,-0.09,0.07,0.89,-1.02,-0.69,-0.79,
0.673,-0.09,0.07,0.89,-1.06,-0.71,-0.72,
0.675,-0.09,0.06,0.89,-1.06,-0.71,-0.72,
0.678,-0.09,0.06,0.89,-1.13,-0.72,-0.64,
0.678,-0.09,0.06,0.89,-1.13,-0.72,-0.64,
0.68,-0.09,0.05,0.90,-1.13,-0.72,-0.64,
0.683,-0.09,0.05,0.90,-1.18,-0.82,-0.59,
0.683,-0.09,0.05,0.91,-1.18,-0.82,-0.59,
0.684,-0.09,0.05,0.91,-1.18,-0.82,-0.59,
0.687,-0.09,0.04,0.91,-1.18,-0.82,-0.59,
0.688,-0.09,0.04,0.91,-1.21,-0.87,-0.47,
0.689,-0.09,0.04,0.91,-1.21,-0.87,-0.47,
0.693,-0.09,0.04,0.92,-1.21,-0.87,-0.47,
0.693,-0.09,0.04,0.92,-1.22,-0.91,-0.39,
0.696,-0.09,0.04,0.92,-1.22,-0.91,-0.39,
0.697,-0.09,0.03,0.92,-1.22,-0.91,-0.39,
0.697,-0.09,0.03,0.92,-1.22,-0.96,-0.33,
0.7,-0.09,0.03,0.92,-1.22,-0.96,-0.33,
0.702,-0.09,0.03,0.92,-1.22,-0.96,-0.33,
0.703,-0.09,0.03,0.92,-1.20,-0.99,-0.32,
0.704,-0.09,0.03,0.93,-1.20,-0.99,-0.32,
0.707,-0.09,0.03,0.93,-1.19,-1.04,-0.26,
0.707,-0.09,0.03,0.93,-1.19,-1.04,-0.26,
0.71,-0.09,0.03,0.93,-1.19,-1.04,-0.26,
0.713,-0.09,0.03,0.93,-1.19,-1.04,-0.26,
0.713,-0.09,0.03,0.93,-1.26,-1.03,-0.23,
0.714,-0.10,0.03,0.93,-1.26,-1.03,-0.23,
0.717,-0.09,0.03,0.93,-1.26,-1.03,-0.23,
0.717,-0.09,0.03,0.93,-1.26,-1.02,-0.21,
0.719,-0.10,0.03,0.93,-1.26,-1.02,-0.21,
0.722,-0.10,0.03,0.93,-1.33,-1.01,-0.20,
0.722,-0.10,0.03,0.92,-1.33,-1.01,-0.20,
0.724,-0.10,0.03,0.93,-1.33,-1.01,-0.20,
0.727,-0.10,0.03,0.93,-1.33,-1.01,-0.20,
0.728,-0.10,0.03,0.93,-1.35,-0.98,-0.23,
0.729,-0.10,0.02,0.93,-1.35,-0.98,-0.23,
0.732,-0.11,0.02,0.93,-1.35,-0.98,-0.23,
0.732,-0.11,0.02,0.93,-1.41,-0.99,-0.21,
0.735,-0.11,0.02,0.93,-1.41,-0.99,-0.21,
0.737,-0.11,0.02,0.93,-1.41,-0.99,-0.21,
0.737,-0.11,0.02,0.93,-1.48,-1.00,-0.21,
0.739,-0.11,0.02,0.94,-1.48,-1.00,-0.21,
0.743,-0.12,0.02,0.94,-1.48,-1.00,-0.21,
0.743,-0.12,0.02,0.94,-1.52,-0.99,-0.16,
0.744,-0.12,0.02,0.94,-1.52,-0.99,-0.16,
0.747,-0.12,0.02,0.95,-1.52,-0.99,-0.16,
0.747,-0.12,0.02,0.95,-1.57,-0.97,-0.12,
0.749,-0.12,0.02,0.95,-1.57,-0.97,-0.12,
0.752,-0.12,0.02,0.95,-1.62,-0.95,-0.03,
0.752,-0.13,0.02,0.95,-1.62,-0.95,-0.03,
0.754,-0.13,0.02,0.96,-1.62,-0.95,-0.03,
0.757,-0.13,0.02,0.95,-1.62,-0.95,-0.03,
0.757,-0.13,0.02,0.95,-1.68,-0.95,-0.01,
0.759,-0.13,0.01,0.96,-1.68,-0.95,-0.01,
0.762,-0.13,0.01,0.96,-1.68,-0.95,-0.01,
0.762,-0.13,0.01,0.96,-1.71,-0.98,0.04,
0.764,-0.13,0.01,0.96,-1.71,-0.98,0.04,
0.767,-0.13,0.01,0.96,-1.77,-0.99,0.06,
0.767,-0.14,-0.00,0.95,-1.77,-0.99,0.06,
0.769,-0.14,-0.00,0.96,-1.77,-0.99,0.06,
0.772,-0.14,-0.00,0.96,-1.80,-1.06,0.04,
0.772,-0.14,-0.01,0.96,-1.80,-1.06,0.04,
0.773,-0.14,-0.01,0.96,-1.80,-1.06,0.04,
0.777,-0.14,-0.01,0.96,-1.80,-1.06,0.04,
0.778,-0.14,-0.01,0.96,-1.85,-1.10,0.06,
0.779,-0.14,-0.01,0.96,-1.85,-1.10,0.06,
0.782,-0.14,-0.02,0.96,-1.85,-1.10,0.06,
0.782,-0.14,-0.02,0.96,-1.87,-1.17,0.07,
0.784,-0.14,-0.02,0.95,-1.87,-1.17,0.07,
0.787,-0.14,-0.03,0.95,-1.87,-1.17,0.07,
0.787,-0.14,-0.03,0.95,-1.89,-1.15,0.05,
0.788,-0.14,-0.03,0.94,-1.89,-1.15,0.05,
0.792,-0.14,-0.03,0.94,-1.89,-1.15,0.05,
0.792,-0.14,-0.03,0.94,-1.90,-1.22,-0.03,
0.794,-0.14,-0.04,0.93,-1.90,-1.22,-0.03,
0.797,-0.14,-0.04,0.94,-1.90,-1.22,-0.03,
0.797,-0.14,-0.04,0.94,-1.87,-1.24,-0.14,
0.798,-0.14,-0.04,0.93,-1.87,-1.24,-0.14,
0.801,-0.14,-0.04,0.93,-1.86,-1.29,-0.18,
0.802,-0.14,-0.04,0.93,-1.86,-1.29,-0.18,
0.803,-0.15,-0.04,0.93,-1.86,-1.29,-0.18,
0.806,-0.15,-0.04,0.94,-1.86,-1.29,-0.18,
0.806,-0.15,-0.04,0.94,-1.89,-1.29,-0.20,
0.809,-0.16,-0.04,0.94,-1.89,-1.29,-0.20,
0.813,-0.16,-0.04,0.94,-1.89,-1.29,-0.20,
0.813,-0.16,-0.04,0.94,-1.97,-1.27,-0.17,
0.813,-0.16,-0.04,0.94,-1.97,-1.27,-0.17,
0.816,-0.16,-0.04,0.94,-2.01,-1.23,-0.14,
0.816,-0.17,-0.04,0.94,-2.01,-1.23,-0.14,
0.819,-0.17,-0.04,0.94,-2.01,-1.23,-0.14,
0.821,-0.16,-0.04,0.94,-2.01,-1.23,-0.14,
0.821,-0.16,-0.04,0.94,-2.08,-1.19,-0.16,
0.823,-0.16,-0.04,0.94,-2.08,-1.19,-0.16,
0.826,-0.16,-0.04,0.94,-2.11,-1.20,-0.16,
0.826,-0.16,-0.04,0.94,-2.11,-1.20,-0.16,
0.829,-0.15,-0.04,0.94,-2.11,-1.20,-0.16,
0.831,-0.15,-0.05,0.94,-2.11,-1.20,-0.16,
0.831,-0.15,-0.05,0.94,-2.06,-1.18,-0.16,
0.833,-0.16,-0.04,0.95,-2.06,-1.18,-0.16,
0.836,-0.15,-0.04,0.96,-2.06,-1.18,-0.16,
0.836,-0.15,-0.04,0.96,-1.99,-1.15,-0.12,
0.838,-0.15,-0.04,0.96,-1.99,-1.15,-0.12,
0.841,-0.15,-0.04,0.96,-2.00,-1.10,0.00,
0.841,-0.15,-0.04,0.97,-2.00,-1.10,0.00,
0.843,-0.15,-0.04,0.98,-2.00,-1.10,0.00,
0.846,-0.15,-0.04,0.98,-1.99,-1.10,0.14,
0.846,-0.15,-0.04,0.98,-1.99,-1.10,0.14,
0.848,-0.15,-0.04,0.99,-1.99,-1.10,0.14,
0.851,-0.15,-0.04,1.00,-1.99,-1.10,0.14,
0.851,-0.15,-0.04,1.00,-2.00,-1.07,0.26,
0.853,-0.15,-0.04,1.00,-2.00,-1.07,0.26,
0.856,-0.14,-0.04,1.00,-2.00,-1.07,0.26,
0.856,-0.14,-0.04,1.00,-2.04,-1.00,0.40,
0.858,-0.13,-0.04,1.00,-2.04,-1.00,0.40,
0.861,-0.13,-0.04,1.01,-2.04,-1.00,0.40,
0.861,-0.13,-0.04,1.01,-1.97,-0.97,0.46,
0.863,-0.12,-0.03,1.01,-1.97,-0.97,0.46,
0.866,-0.12,-0.03,1.02,-1.97,-0.97,0.46,
0.866,-0.12,-0.03,1.02,-1.86,-0.92,0.48,
0.868,-0.13,-0.03,1.02,-1.86,-0.92,0.48,
0.87,-0.13,-0.03,1.04,-1.86,-0.92,0.48,
0.871,-0.13,-0.03,1.04,-1.84,-0.84,0.62,
0.873,-0.13,-0.02,1.05,-1.84,-0.84,0.62,
0.876,-0.13,-0.02,1.05,-1.90,-0.79,0.76,
0.876,-0.13,-0.02,1.05,-1.90,-0.79,0.76,
0.878,-0.13,-0.03,1.06,-1.90,-0.79,0.76,
0.88,-0.13,-0.03,1.06,-1.90,-0.79,0.76,
0.881,-0.13,-0.03,1.06,-1.94,-0.67,0.94,
0.882,-0.12,-0.04,1.05,-1.94,-0.67,0.94,
0.885,-0.12,-0.05,1.05,-1.94,-0.67,0.94,
0.886,-0.12,-0.05,1.05,-1.95,-0.72,1.01,
0.887,-0.11,-0.06,1.04,-1.95,-0.72,1.01,
0.89,-0.10,-0.06,1.04,-1.95,-0.72,1.01,
0.89,-0.10,-0.06,1.04,-1.82,-0.79,0.93,
0.893,-0.11,-0.07,1.03,-1.82,-0.79,0.93,
0.895,-0.11,-0.08,1.04,-1.82,-0.79,0.93,
0.896,-0.11,-0.08,1.04,-1.72,-0.93,0.80,
0.897,-0.11,-0.08,1.04,-1.72,-0.93,0.80,
0.9,-0.12,-0.08,1.05,-1.72,-0.93,0.80,
0.901,-0.12,-0.08,1.05,-1.73,-1.04,0.80,
0.902,-0.12,-0.08,1.05,-1.73,-1.04,0.80,
0.905,-0.12,-0.08,1.05,-1.80,-1.03,0.88,
0.905,-0.12,-0.09,1.06,-1.80,-1.03,0.88,
0.907,-0.13,-0.09,1.07,-1.80,-1.03,0.88,
0.911,-0.12,-0.09,1.07,-1.80,-1.03,0.88,
0.911,-0.12,-0.09,1.07,-1.86,-1.07,0.97,
0.912,-0.13,-0.09,1.08,-1.86,-1.07,0.97,
0.915,-0.13,-0.10,1.08,-1.86,-1.07,0.97,
0.915,-0.13,-0.10,1.08,-1.95,-1.04,1.11,
0.917,-0.13,-0.10,1.09,-1.95,-1.04,1.11,
0.92,-0.13,-0.10,1.09,-2.00,-1.06,1.23,
0.92,-0.13,-0.11,1.10,-2.00,-1.06,1.23,
0.922,-0.13,-0.12,1.10,-2.00,-1.06,1.23,
0.925,-0.13,-0.12,1.11,-2.00,-1.06,1.23,
0.925,-0.13,-0.12,1.11,-2.01,-1.13,1.36,
0.927,-0.12,-0.13,1.12,-2.01,-1.13,1.36,
0.93,-0.12,-0.13,1.13,-2.01,-1.13,1.36,
0.93,-0.12,-0.13,1.13,-2.01,-1.22,1.48,
0.932,-0.12,-0.13,1.13,-2.01,-1.22,1.48,
0.935,-0.11,-0.13,1.13,-2.01,-1.22,1.48,
0.935,-0.11,-0.13,1.13,-1.96,-1.27,1.61,
0.938,-0.11,-0.13,1.14,-1.96,-1.27,1.61,
0.94,-0.11,-0.13,1.14,-1.89,-1.24,1.69,
0.94,-0.11,-0.13,1.15,-1.89,-1.24,1.69,
0.942,-0.11,-0.13,1.15,-1.89,-1.24,1.69,
0.945,-0.11,-0.12,1.16,-1.89,-1.24,1.69,
0.945,-0.11,-0.12,1.16,-1.86,-1.20,1.82,
0.947,-0.10,-0.12,1.16,-1.86,-1.20,1.82,
0.95,-0.10,-0.12,1.16,-1.89,-1.13,1.92,
0.95,-0.10,-0.12,1.17,-1.89,-1.13,1.92,
0.952,-0.09,-0.12,1.17,-1.89,-1.13,1.92,
0.955,-0.09,-0.12,1.17,-1.89,-1.13,1.92,
0.955,-0.09,-0.12,1.17,-1.82,-1.08,2.00,
0.957,-0.09,-0.11,1.17,-1.82,-1.08,2.00,
0.959,-0.08,-0.11,1.17,-1.82,-1.08,2.00,
0.96,-0.08,-0.11,1.17,-1.77,-1.02,2.07,
0.962,-0.08,-0.11,1.17,-1.77,-1.02,2.07,
0.965,-0.08,-0.11,1.17,-1.77,-1.02,2.07,
0.965,-0.08,-0.11,1.17,-1.71,-0.96,2.04,
0.967,-0.08,-0.11,1.17,-1.71,-0.96,2.04,
0.969,-0.08,-0.11,1.17,-1.69,-0.93,2.05,
0.97,-0.08,-0.12,1.17,-1.69,-0.93,2.05,
0.972,-0.08,-0.12,1.16,-1.69,-0.93,2.05,
0.975,-0.08,-0.11,1.16,-1.69,-0.93,2.05,
0.975,-0.08,-0.11,1.16,-1.67,-0.92,2.03,
0.976,-0.08,-0.11,1.16,-1.67,-0.92,2.03,
0.979,-0.08,-0.12,1.15,-1.67,-0.92,2.03,
0.98,-0.08,-0.12,1.15,-1.67,-0.89,1.95,
0.981,-0.08,-0.12,1.14,-1.67,-0.89,1.95,
0.985,-0.08,-0.12,1.14,-1.67,-0.89,1.95,
0.985,-0.08,-0.12,1.14,-1.72,-0.86,1.90,
0.987,-0.08,-0.12,1.14,-1.72,-0.86,1.90,
0.989,-0.08,-0.12,1.14,-1.70,-0.90,1.79,
0.989,-0.09,-0.13,1.14,-1.70,-0.90,1.79,
0.991,-0.09,-0.14,1.13,-1.70,-0.90,1.79,
0.996,-0.09,-0.14,1.13,-1.70,-0.90,1.79,
0.996,-0.09,-0.14,1.13,-1.74,-0.93,1.73,
0.996,-0.09,-0.14,1.12,-1.74,-0.93,1.73,
0.999,-0.09,-0.14,1.12,-1.79,-1.02,1.66,
0.999,-0.09,-0.14,1.12,-1.79,-1.02,1.66,
1.001,-0.09,-0.14,1.11,-1.79,-1.02,1.66,
1.004,-0.10,-0.15,1.11,-1.79,-1.02,1.66,
1.005,-0.10,-0.15,1.11,-1.76,-1.01,1.58,
1.007,-0.10,-0.15,1.11,-1.76,-1.01,1.58,
1.009,-0.11,-0.15,1.10,-1.76,-1.01,1.58,
1.009,-0.11,-0.15,1.10,-1.84,-1.04,1.47,
1.011,-0.12,-0.16,1.10,-1.84,-1.04,1.47,
1.014,-0.12,-0.16,1.09,-1.84,-1.04,1.47,
1.015,-0.12,-0.16,1.09,-1.93,-1.09,1.39,
1.016,-0.12,-0.17,1.09,-1.93,-1.09,1.39,
1.019,-0.12,-0.17,1.09,-1.93,-1.09,1.39,
1.019,-0.12,-0.17,1.09,-2.01,-1.16,1.29,
1.021,-0.11,-0.17,1.09,-2.01,-1.16,1.29,
1.024,-0.11,-0.17,1.09,-2.03,-1.21,1.24,
1.024,-0.11,-0.18,1.08,-2.03,-1.21,1.24,
1.026,-0.11,-0.17,1.09,-2.03,-1.21,1.24,
1.029,-0.10,-0.17,1.09,-2.03,-1.21,1.24,
1.03,-0.10,-0.17,1.09,-1.99,-1.24,1.19,
1.031,-0.10,-0.17,1.09,-1.99,-1.24,1.19,
1.034,-0.09,-0.17,1.10,-1.99,-1.24,1.19,
1.034,-0.09,-0.17,1.10,-1.92,-1.21,1.20,
1.036,-0.09,-0.17,1.11,-1.92,-1.21,1.20,
1.039,-0.08,-0.17,1.12,-1.92,-1.21,1.20,
1.039,-0.08,-0.17,1.12,-1.82,-1.18,1.30,
1.041,-0.08,-0.17,1.13,-1.82,-1.18,1.30,
1.044,-0.07,-0.16,1.14,-1.82,-1.18,1.30,
1.044,-0.07,-0.16,1.14,-1.77,-1.12,1.44,
1.046,-0.07,-0.16,1.15,-1.77,-1.12,1.44,
1.049,-0.06,-0.15,1.15,-1.77,-1.12,1.44,
1.049,-0.06,-0.15,1.15,-1.71,-1.05,1.66,
1.051,-0.05,-0.14,1.16,-1.71,-1.05,1.66,
1.054,-0.04,-0.14,1.17,-1.71,-1.05,1.66,
1.054,-0.04,-0.14,1.17,-1.61,-0.93,1.82,
1.056,-0.03,-0.14,1.18,-1.61,-0.93,1.82,
1.058,-0.02,-0.13,1.19,-1.61,-0.93,1.82,
1.059,-0.02,-0.13,1.19,-1.45,-0.81,1.99,
1.061,-0.01,-0.13,1.19,-1.45,-0.81,1.99,
1.063,-0.01,-0.13,1.19,-1.27,-0.71,2.15,
1.064,-0.00,-0.13,1.20,-1.27,-0.71,2.15,
1.066,-0.00,-0.13,1.20,-1.27,-0.71,2.15,
1.068,0.01,-0.13,1.20,-1.27,-0.71,2.15,
1.069,0.01,-0.13,1.20,-1.13,-0.66,2.25,
1.071,0.01,-0.13,1.21,-1.13,-0.66,2.25,
1.073,0.01,-0.13,1.21,-1.03,-0.60,2.34,
1.074,0.02,-0.14,1.21,-1.03,-0.60,2.34,
1.076,0.02,-0.13,1.21,-1.03,-0.60,2.34,
1.078,0.02,-0.13,1.21,-0.94,-0.60,2.37,
1.079,0.02,-0.14,1.21,-0.94,-0.60,2.37,
1.081,0.02,-0.14,1.21,-0.94,-0.60,2.37,
1.083,0.02,-0.14,1.21,-0.94,-0.60,2.37,
1.083,0.02,-0.14,1.21,-0.93,-0.59,2.40,
1.085,0.02,-0.14,1.20,-0.93,-0.59,2.40,
1.088,0.02,-0.14,1.21,-0.93,-0.59,2.40,
1.088,0.02,-0.14,1.21,-0.92,-0.59,2.43,
1.091,0.01,-0.14,1.21,-0.92,-0.59,2.43,
1.093,0.01,-0.14,1.21,-0.92,-0.59,2.43,
1.093,0.01,-0.14,1.21,-0.93,-0.57,2.35,
1.095,0.01,-0.14,1.20,-0.93,-0.57,2.35,
1.098,0.01,-0.14,1.20,-0.99,-0.55,2.36,
1.098,-0.00,-0.15,1.20,-0.99,-0.55,2.36,
1.1,-0.00,-0.15,1.19,-0.99,-0.55,2.36,
1.103,-0.00,-0.15,1.19,-1.06,-0.58,2.29,
1.103,-0.01,-0.15,1.20,-1.06,-0.58,2.29,
1.105,-0.01,-0.15,1.19,-1.06,-0.58,2.29,
1.108,-0.01,-0.15,1.18,-1.06,-0.58,2.29,
1.108,-0.01,-0.15,1.18,-1.16,-0.59,2.25,
1.11,-0.01,-0.15,1.17,-1.16,-0.59,2.25,
1.113,-0.02,-0.16,1.16,-1.16,-0.59,2.25,
1.113,-0.02,-0.16,1.16,-1.21,-0.62,2.14,
1.115,-0.02,-0.17,1.15,-1.21,-0.62,2.14,
1.118,-0.02,-0.17,1.15,-1.23,-0.63,1.97,
1.118,-0.02,-0.17,1.15,-1.23,-0.63,1.97,
1.121,-0.02,-0.17,1.14,-1.23,-0.63,1.97,
1.123,-0.02,-0.17,1.14,-1.24,-0.71,1.82,
1.123,-0.02,-0.18,1.13,-1.24,-0.71,1.82,
1.125,-0.01,-0.19,1.12,-1.24,-0.71,1.82,
1.129,-0.01,-0.19,1.12,-1.24,-0.77,1.65,
1.129,-0.01,-0.20,1.11,-1.24,-0.77,1.65,
1.13,-0.01,-0.20,1.11,-1.24,-0.77,1.65,
1.133,-0.00,-0.21,1.11,-1.24,-0.77,1.65,
1.133,-0.00,-0.21,1.11,-1.17,-0.91,1.45,
1.135,-0.00,-0.21,1.11,-1.17,-0.91,1.45,
1.138,0.00,-0.21,1.11,-1.17,-0.91,1.45,
1.138,0.00,-0.21,1.11,-1.11,-1.02,1.35,
1.14,0.00,-0.21,1.12,-1.11,-1.02,1.35,
1.143,0.01,-0.22,1.12,-1.11,-1.02,1.35,
1.144,0.01,-0.22,1.12,-1.05,-1.06,1.36,
1.145,0.01,-0.22,1.12,-1.05,-1.06,1.36,
1.148,0.02,-0.21,1.13,-1.05,-1.06,1.36,
1.15,0.02,-0.21,1.13,-1.02,-1.11,1.47,
1.15,0.02,-0.20,1.15,-1.02,-1.11,1.47,
1.153,0.02,-0.20,1.15,-1.02,-1.11,1.47,
1.153,0.02,-0.20,1.15,-0.92,-1.06,1.57,
1.155,0.03,-0.20,1.15,-0.92,-1.06,1.57,
1.158,0.03,-0.19,1.16,-0.92,-1.06,1.57,
1.158,0.03,-0.19,1.16,-0.86,-0.93,1.75,
1.16,0.04,-0.19,1.17,-0.86,-0.93,1.75,
1.163,0.05,-0.17,1.17,-0.86,-0.93,1.75,
1.163,0.05,-0.17,1.17,-0.80,-0.84,1.85,
1.164,0.05,-0.17,1.17,-0.80,-0.84,1.85,
1.167,0.05,-0.17,1.17,-0.68,-0.68,1.94,
1.168,0.05,-0.16,1.18,-0.68,-0.68,1.94,
1.17,0.06,-0.15,1.18,-0.68,-0.68,1.94,
1.172,0.06,-0.15,1.18,-0.58,-0.54,2.01,
1.173,0.07,-0.15,1.18,-0.58,-0.54,2.01,
1.175,0.07,-0.15,1.17,-0.58,-0.54,2.01,
1.177,0.07,-0.15,1.16,-0.58,-0.54,2.01,
1.178,0.07,-0.15,1.16,-0.52,-0.41,2.05,
1.18,0.08,-0.15,1.15,-0.52,-0.41,2.05,
1.182,0.08,-0.16,1.14,-0.52,-0.41,2.05,
1.183,0.08,-0.16,1.14,-0.47,-0.36,1.91,
1.185,0.08,-0.16,1.13,-0.47,-0.36,1.91,
1.188,0.09,-0.17,1.12,-0.47,-0.36,1.91,
1.188,0.09,-0.17,1.12,-0.37,-0.41,1.70,
1.189,0.09,-0.17,1.11,-0.37,-0.41,1.70,
1.192,0.09,-0.18,1.10,-0.37,-0.41,1.70,
1.192,0.09,-0.18,1.10,-0.30,-0.49,1.53,
1.194,0.09,-0.18,1.08,-0.30,-0.49,1.53,
1.197,0.09,-0.18,1.08,-0.25,-0.56,1.28,
1.197,0.09,-0.18,1.08,-0.25,-0.56,1.28,
1.2,0.09,-0.19,1.06,-0.25,-0.56,1.28,
1.203,0.08,-0.18,1.05,-0.25,-0.56,1.28,
1.203,0.08,-0.18,1.05,-0.24,-0.62,1.07,
1.204,0.09,-0.18,1.04,-0.24,-0.62,1.07,
1.207,0.09,-0.18,1.03,-0.24,-0.62,1.07,
1.207,0.09,-0.18,1.03,-0.26,-0.62,0.82,
1.209,0.09,-0.19,1.02,-0.26,-0.62,0.82,
1.213,0.09,-0.19,1.02,-0.20,-0.58,0.62,
1.214,0.09,-0.19,1.01,-0.20,-0.58,0.62,
1.214,0.09,-0.18,1.01,-0.20,-0.58,0.62,
1.217,0.10,-0.18,1.00,-0.20,-0.58,0.62,
1.217,0.10,-0.18,1.00,-0.15,-0.61,0.46,
1.219,0.10,-0.17,1.00,-0.15,-0.61,0.46,
1.222,0.10,-0.17,1.00,-0.10,-0.50,0.33,
1.222,0.10,-0.16,1.00,-0.10,-0.50,0.33,
1.224,0.10,-0.16,1.00,-0.10,-0.50,0.33,
1.227,0.11,-0.15,1.01,-0.10,-0.50,0.33,
1.227,0.11,-0.15,1.01,-0.02,-0.40,0.26,
1.23,0.11,-0.15,1.01,-0.02,-0.40,0.26,
1.232,0.12,-0.14,1.01,-0.02,-0.40,0.26,
1.232,0.12,-0.14,1.01,0.04,-0.25,0.30,
1.235,0.13,-0.13,1.01,0.04,-0.25,0.30,
1.237,0.13,-0.13,1.02,0.04,-0.25,0.30,
1.237,0.13,-0.13,1.02,0.17,-0.12,0.35,
1.239,0.13,-0.12,1.01,0.17,-0.12,0.35,
1.242,0.14,-0.12,1.02,0.17,-0.12,0.35,
1.242,0.14,-0.12,1.02,0.31,0.01,0.40,
1.245,0.14,-0.12,1.03,0.31,0.01,0.40,
1.247,0.14,-0.12,1.03,0.38,0.12,0.47,
1.247,0.13,-0.11,1.04,0.38,0.12,0.47,
1.249,0.14,-0.11,1.04,0.38,0.12,0.47,
1.251,0.14,-0.11,1.04,0.38,0.12,0.47,
1.252,0.14,-0.11,1.04,0.41,0.20,0.61,
1.254,0.14,-0.11,1.05,0.41,0.20,0.61,
1.257,0.14,-0.11,1.05,0.41,0.20,0.61,
1.257,0.14,-0.11,1.05,0.45,0.25,0.64,
1.259,0.13,-0.11,1.05,0.45,0.25,0.64,
1.262,0.14,-0.11,1.06,0.45,0.25,0.64,
1.263,0.14,-0.11,1.06,0.45,0.30,0.76,
1.264,0.13,-0.11,1.06,0.45,0.30,0.76,
1.267,0.13,-0.11,1.06,0.44,0.31,0.81,
1.267,0.13,-0.11,1.06,0.44,0.31,0.81,
1.269,0.13,-0.11,1.06,0.44,0.31,0.81,
1.271,0.13,-0.11,1.06,0.40,0.35,0.88,
1.271,0.12,-0.11,1.07,0.40,0.35,0.88,
1.273,0.12,-0.12,1.07,0.40,0.35,0.88,
1.276,0.11,-0.12,1.07,0.40,0.35,0.88,
1.276,0.11,-0.12,1.07,0.36,0.29,0.90,
1.279,0.11,-0.13,1.06,0.36,0.29,0.90,
1.281,0.11,-0.14,1.06,0.36,0.29,0.90,
1.282,0.11,-0.14,1.06,0.27,0.24,0.94,
1.284,0.11,-0.14,1.05,0.27,0.24,0.94,
1.287,0.11,-0.15,1.05,0.27,0.24,0.94,
1.287,0.11,-0.15,1.05,0.26,0.11,0.87,
1.288,0.11,-0.16,1.04,0.26,0.11,0.87,
1.291,0.10,-0.17,1.04,0.26,0.11,0.87,
1.292,0.10,-0.17,1.04,0.24,-0.01,0.79,
1.293,0.10,-0.18,1.03,0.24,-0.01,0.79,
1.297,0.10,-0.18,1.03,0.20,-0.20,0.65,
1.297,0.09,-0.18,1.02,0.20,-0.20,0.65,
1.299,0.09,-0.20,1.01,0.20,-0.20,0.65,
1.301,0.09,-0.20,1.01,0.20,-0.20,0.65,
1.301,0.09,-0.20,1.01,0.11,-0.32,0.51,
1.303,0.09,-0.20,1.00,0.11,-0.32,0.51,
1.306,0.09,-0.21,1.00,0.11,-0.32,0.51,
1.306,0.09,-0.21,1.00,0.11,-0.49,0.35,
1.308,0.09,-0.21,0.99,0.11,-0.49,0.35,
1.311,0.08,-0.21,0.98,0.11,-0.49,0.35,
1.311,0.08,-0.21,0.98,0.10,-0.58,0.28,
1.314,0.09,-0.21,0.98,0.10,-0.58,0.28,
1.316,0.09,-0.22,0.99,0.10,-0.58,0.28,
1.316,0.09,-0.22,0.99,0.08,-0.64,0.12,
1.318,0.09,-0.21,0.98,0.08,-0.64,0.12,
1.321,0.09,-0.21,0.98,0.11,-0.64,0.12,
1.321,0.08,-0.21,0.99,0.11,-0.64,0.12,
1.323,0.09,-0.21,0.99,0.11,-0.64,0.12,
1.326,0.09,-0.21,0.99,0.10,-0.62,0.14,
1.327,0.09,-0.21,1.00,0.10,-0.62,0.14,
1.328,0.09,-0.20,1.01,0.10,-0.62,0.14,
1.332,0.09,-0.20,1.02,0.10,-0.62,0.14,
1.332,0.09,-0.20,1.02,0.12,-0.58,0.21,
1.333,0.09,-0.19,1.03,0.12,-0.58,0.21,
1.336,0.09,-0.19,1.03,0.12,-0.58,0.21,
1.336,0.09,-0.19,1.03,0.13,-0.51,0.40,
1.338,0.10,-0.18,1.04,0.13,-0.51,0.40,
1.341,0.10,-0.17,1.05,0.13,-0.51,0.40,
1.341,0.10,-0.17,1.05,0.15,-0.40,0.54,
1.343,0.10,-0.17,1.06,0.15,-0.40,0.54,
1.346,0.10,-0.17,1.06,0.20,-0.26,0.69,
1.346,0.11,-0.16,1.06,0.20,-0.26,0.69,
1.348,0.11,-0.16,1.06,0.20,-0.26,0.69,
1.351,0.12,-0.15,1.06,0.20,-0.26,0.69,
1.351,0.12,-0.15,1.06,0.26,-0.15,0.80,
1.353,0.12,-0.15,1.07,0.26,-0.15,0.80,
1.356,0.13,-0.16,1.07,0.26,-0.15,0.80,
1.356,0.13,-0.16,1.07,0.34,-0.05,0.85,
1.358,0.14,-0.16,1.07,0.34,-0.05,0.85,
1.361,0.15,-0.17,1.07,0.34,-0.05,0.85,
1.361,0.15,-0.17,1.07,0.48,-0.03,0.90,
1.363,0.15,-0.17,1.07,0.48,-0.03,0.90,
1.366,0.15,-0.18,1.07,0.48,-0.03,0.90,
1.366,0.15,-0.18,1.07,0.63,-0.11,0.92,
1.368,0.15,-0.18,1.07,0.63,-0.11,0.92,
1.37,0.15,-0.18,1.07,0.71,-0.20,0.90,
1.371,0.16,-0.18,1.07,0.71,-0.20,0.90,
1.373,0.15,-0.19,1.07,0.71,-0.20,0.90,
1.375,0.15,-0.19,1.08,0.71,-0.20,0.90,
1.376,0.15,-0.19,1.08,0.75,-0.25,0.92,
1.377,0.15,-0.19,1.07,0.75,-0.25,0.92,
1.381,0.14,-0.19,1.07,0.75,-0.25,0.92,
1.381,0.14,-0.19,1.07,0.70,-0.29,0.98,
1.383,0.14,-0.19,1.07,0.70,-0.29,0.98,
1.385,0.14,-0.20,1.08,0.70,-0.29,0.98,
1.385,0.14,-0.20,1.08,0.68,-0.34,0.97,
1.387,0.13,-0.20,1.08,0.68,-0.34,0.97,
1.39,0.13,-0.20,1.08,0.64,-0.37,1.02,
1.39,0.13,-0.20,1.09,0.64,-0.37,1.02,
1.392,0.14,-0.20,1.09,0.64,-0.37,1.02,
1.395,0.14,-0.20,1.09,0.60,-0.36,1.09,
1.395,0.13,-0.20,1.09,0.60,-0.36,1.09,
1.397,0.14,-0.20,1.09,0.60,-0.36,1.09,
1.4,0.14,-0.21,1.09,0.60,-0.36,1.09,
1.4,0.14,-0.21,1.09,0.62,-0.39,1.10,
1.402,0.13,-0.21,1.08,0.62,-0.39,1.10,
1.405,0.14,-0.21,1.09,0.62,-0.39,1.10,
1.405,0.14,-0.21,1.09,0.67,-0.42,1.11,
1.407,0.14,-0.22,1.08,0.67,-0.42,1.11,
1.41,0.14,-0.22,1.08,0.67,-0.42,1.11,
1.41,0.14,-0.22,1.08,0.68,-0.47,1.09,
1.414,0.15,-0.22,1.09,0.68,-0.47,1.09,
1.415,0.15,-0.22,1.08,0.68,-0.47,1.09,
1.415,0.15,-0.22,1.08,0.74,-0.53,1.05,
1.417,0.15,-0.22,1.08,0.74,-0.53,1.05,
1.421,0.15,-0.22,1.08,0.74,-0.53,1.05,
1.421,0.15,-0.22,1.08,0.81,-0.54,1.05,
1.422,0.16,-0.21,1.09,0.81,-0.54,1.05,
1.425,0.16,-0.21,1.09,0.84,-0.53,1.03,
1.425,0.16,-0.21,1.09,0.84,-0.53,1.03,
1.427,0.17,-0.20,1.09,0.84,-0.53,1.03,
1.43,0.17,-0.20,1.09,0.84,-0.53,1.03,
1.43,0.17,-0.20,1.09,0.92,-0.46,1.10,
1.432,0.18,-0.20,1.09,0.92,-0.46,1.10,
1.435,0.18,-0.19,1.09,0.92,-0.46,1.10,
1.436,0.18,-0.19,1.09,1.00,-0.39,1.14,
1.437,0.19,-0.20,1.09,1.00,-0.39,1.14,
1.44,0.19,-0.20,1.09,1.10,-0.29,1.14,
1.441,0.19,-0.19,1.10,1.10,-0.29,1.14,
1.442,0.20,-0.19,1.10,1.10,-0.29,1.14,
1.445,0.20,-0.19,1.10,1.20,-0.30,1.17,
1.445,0.20,-0.19,1.10,1.20,-0.30,1.17,
1.447,0.21,-0.19,1.10,1.20,-0.30,1.17,
1.45,0.21,-0.19,1.10,1.25,-0.26,1.22,
1.45,0.21,-0.18,1.10,1.25,-0.26,1.22,
1.452,0.21,-0.18,1.11,1.25,-0.26,1.22,
1.455,0.22,-0.19,1.11,1.25,-0.26,1.22,
1.455,0.22,-0.19,1.11,1.33,-0.21,1.19,
1.457,0.22,-0.19,1.11,1.33,-0.21,1.19,
1.459,0.22,-0.19,1.11,1.33,-0.21,1.19,
1.459,0.22,-0.19,1.11,1.42,-0.23,1.27,
1.461,0.22,-0.19,1.12,1.42,-0.23,1.27,
1.465,0.22,-0.20,1.12,1.42,-0.23,1.27,
1.465,0.22,-0.20,1.12,1.44,-0.27,1.28,
1.467,0.21,-0.19,1.12,1.44,-0.27,1.28,
1.469,0.21,-0.19,1.12,1.39,-0.32,1.39,
1.469,0.21,-0.19,1.12,1.39,-0.32,1.39,
1.471,0.22,-0.20,1.13,1.39,-0.32,1.39,
1.474,0.21,-0.20,1.14,1.39,-0.32,1.39,
1.475,0.21,-0.20,1.14,1.36,-0.31,1.40,
1.476,0.21,-0.20,1.13,1.36,-0.31,1.40,
1.48,0.20,-0.20,1.14,1.36,-0.31,1.40,
1.48,0.20,-0.20,1.14,1.37,-0.36,1.51,
1.482,0.20,-0.20,1.14,1.37,-0.36,1.51,
1.484,0.20,-0.21,1.14,1.37,-0.36,1.51,
1.485,0.20,-0.21,1.14,1.27,-0.42,1.53,
1.487,0.19,-0.22,1.13,1.27,-0.42,1.53,
1.489,0.19,-0.21,1.12,1.27,-0.42,1.53,
1.489,0.19,-0.21,1.12,1.18,-0.47,1.54,
1.491,0.19,-0.22,1.12,1.18,-0.47,1.54,
1.494,0.19,-0.22,1.12,1.14,-0.57,1.45,
1.495,0.19,-0.22,1.12,1.14,-0.57,1.45,
1.498,0.19,-0.23,1.12,1.14,-0.57,1.45,
1.499,0.18,-0.23,1.11,1.14,-0.57,1.45,
1.499,0.18,-0.23,1.11,1.09,-0.66,1.38,
1.501,0.18,-0.23,1.11,1.09,-0.66,1.38,
1.504,0.19,-0.23,1.11,1.09,-0.66,1.38,
1.504,0.19,-0.23,1.11,1.06,-0.71,1.30,
1.506,0.18,-0.23,1.11,1.06,-0.71,1.30,
1.509,0.18,-0.23,1.12,1.06,-0.71,1.30,
1.509,0.18,-0.23,1.12,1.04,-0.73,1.24,
1.511,0.18,-0.22,1.11,1.04,-0.73,1.24,
1.514,0.18,-0.22,1.11,0.98,-0.73,1.30,
1.514,0.19,-0.22,1.11,0.98,-0.73,1.30,
1.516,0.19,-0.21,1.11,0.98,-0.73,1.30,
1.519,0.19,-0.21,1.11,1.00,-0.67,1.26,
1.519,0.19,-0.21,1.12,1.00,-0.67,1.26,
1.521,0.20,-0.21,1.12,1.00,-0.67,1.26,
1.524,0.20,-0.20,1.11,1.00,-0.67,1.26,
1.524,0.20,-0.20,1.11,1.05,-0.60,1.28,
1.527,0.21,-0.20,1.12,1.05,-0.60,1.28,
1.529,0.22,-0.20,1.12,1.05,-0.60,1.28,
1.529,0.22,-0.20,1.12,1.13,-0.59,1.30,
1.532,0.22,-0.20,1.12,1.13,-0.59,1.30,
1.534,0.22,-0.19,1.13,1.13,-0.59,1.30,
1.534,0.22,-0.19,1.13,1.24,-0.53,1.35,
1.536,0.23,-0.19,1.12,1.24,-0.53,1.35,
1.539,0.23,-0.19,1.13,1.24,-0.53,1.35,
1.539,0.23,-0.19,1.13,1.33,-0.48,1.39,
1.541,0.24,-0.19,1.13,1.33,-0.48,1.39,
1.544,0.24,-0.19,1.13,1.41,-0.43,1.39,
1.544,0.24,-0.19,1.13,1.41,-0.43,1.39,
1.546,0.24,-0.19,1.13,1.41,-0.43,1.39,
1.549,0.24,-0.19,1.13,1.46,-0.45,1.39,
1.549,0.25,-0.19,1.12,1.46,-0.45,1.39,
1.551,0.25,-0.19,1.12,1.46,-0.45,1.39,
1.554,0.26,-0.20,1.13,1.46,-0.45,1.39,
1.554,0.26,-0.20,1.13,1.52,-0.47,1.34,
1.556,0.26,-0.20,1.12,1.52,-0.47,1.34,
1.559,0.27,-0.19,1.11,1.52,-0.47,1.34,
1.559,0.27,-0.19,1.11,1.61,-0.55,1.36,
1.561,0.27,-0.20,1.11,1.61,-0.55,1.36,
1.564,0.27,-0.20,1.11,1.67,-0.59,1.27,
1.565,0.27,-0.20,1.11,1.67,-0.59,1.27,
1.565,0.28,-0.21,1.11,1.67,-0.59,1.27,
1.569,0.28,-0.21,1.11,1.67,-0.59,1.27,
1.569,0.28,-0.21,1.11,1.75,-0.67,1.22,
1.571,0.29,-0.21,1.12,1.75,-0.67,1.22,
1.574,0.29,-0.20,1.12,1.75,-0.67,1.22,
1.574,0.29,-0.20,1.12,1.80,-0.74,1.20,
1.576,0.29,-0.21,1.12,1.80,-0.74,1.20,
1.579,0.29,-0.21,1.13,1.80,-0.74,1.20,
1.579,0.29,-0.21,1.13,1.87,-0.75,1.25,
1.581,0.30,-0.20,1.13,1.87,-0.75,1.25,
1.584,0.30,-0.20,1.13,1.87,-0.75,1.25,
1.584,0.30,-0.20,1.13,1.87,-0.80,1.30,
1.585,0.31,-0.20,1.14,1.87,-0.80,1.30,
1.588,0.31,-0.20,1.14,1.99,-0.74,1.37,
1.588,0.30,-0.19,1.13,1.99,-0.74,1.37,
1.59,0.31,-0.18,1.14,1.99,-0.74,1.37,
1.593,0.31,-0.18,1.14,1.99,-0.70,1.42,
1.593,0.31,-0.18,1.14,1.99,-0.70,1.42,
1.595,0.31,-0.17,1.14,1.99,-0.70,1.42,
1.598,0.31,-0.16,1.15,1.99,-0.70,1.42,
1.599,0.31,-0.16,1.15,2.02,-0.60,1.48,
1.6,0.31,-0.16,1.16,2.02,-0.60,1.48,
1.603,0.31,-0.15,1.16,2.02,-0.60,1.48,
1.604,0.31,-0.15,1.16,2.03,-0.46,1.55,
1.605,0.32,-0.15,1.16,2.03,-0.46,1.55,
1.608,0.32,-0.14,1.16,2.03,-0.46,1.55,
1.608,0.32,-0.14,1.16,2.01,-0.41,1.62,
1.61,0.32,-0.14,1.15,2.01,-0.41,1.62,
1.613,0.32,-0.14,1.15,2.01,-0.41,1.62,
1.613,0.32,-0.14,1.15,2.06,-0.33,1.64,
1.615,0.32,-0.14,1.15,2.06,-0.33,1.64,
1.618,0.32,-0.14,1.15,2.05,-0.29,1.58,
1.618,0.33,-0.13,1.14,2.05,-0.29,1.58,
1.62,0.33,-0.13,1.14,2.05,-0.29,1.58,
1.623,0.33,-0.13,1.14,2.07,-0.26,1.51,
1.623,0.33,-0.13,1.14,2.07,-0.26,1.51,
1.625,0.33,-0.13,1.13,2.07,-0.26,1.51,
1.628,0.33,-0.13,1.12,2.07,-0.26,1.51,
1.628,0.33,-0.13,1.12,2.13,-0.31,1.43,
1.633,0.33,-0.13,1.12,2.13,-0.31,1.43,
1.633,0.33,-0.13,1.12,2.13,-0.31,1.43,
1.634,0.33,-0.13,1.12,2.10,-0.30,1.30,
1.635,0.32,-0.13,1.11,2.10,-0.30,1.30,
1.638,0.33,-0.14,1.11,2.10,-0.30,1.30,
1.638,0.33,-0.14,1.11,2.11,-0.34,1.22,
1.64,0.33,-0.14,1.11,2.11,-0.34,1.22,
1.643,0.33,-0.14,1.11,2.06,-0.41,1.15,
1.644,0.32,-0.14,1.10,2.06,-0.41,1.15,
1.645,0.32,-0.14,1.10,2.06,-0.41,1.15,
1.648,0.31,-0.14,1.10,2.06,-0.41,1.15,
1.648,0.31,-0.14,1.10,2.05,-0.44,1.09,
1.65,0.31,-0.14,1.10,2.05,-0.44,1.09,
1.653,0.31,-0.13,1.10,2.05,-0.44,1.09,
1.653,0.31,-0.13,1.10,1.99,-0.49,0.99,
1.655,0.30,-0.13,1.10,1.99,-0.49,0.99,
1.657,0.30,-0.13,1.10,1.99,-0.49,0.99,
1.658,0.30,-0.13,1.10,1.92,-0.46,1.01,
1.66,0.30,-0.12,1.10,1.92,-0.46,1.01,
1.662,0.30,-0.12,1.09,1.92,-0.46,1.01,
1.663,0.30,-0.12,1.09,1.85,-0.42,1.01,
1.665,0.30,-0.12,1.09,1.85,-0.42,1.01,
1.667,0.30,-0.12,1.09,1.87,-0.41,0.95,
1.668,0.30,-0.12,1.09,1.87,-0.41,0.95,
1.67,0.30,-0.11,1.09,1.87,-0.41,0.95,
1.672,0.30,-0.11,1.09,1.87,-0.41,0.95,
1.673,0.30,-0.11,1.09,1.85,-0.37,0.89,
1.674,0.30,-0.11,1.09,1.85,-0.37,0.89,
1.677,0.29,-0.10,1.08,1.85,-0.37,0.89,
1.677,0.29,-0.10,1.08,1.83,-0.36,0.88,
1.679,0.29,-0.10,1.08,1.83,-0.36,0.88,
1.682,0.30,-0.10,1.08,1.83,-0.36,0.88,
1.683,0.30,-0.10,1.08,1.85,-0.32,0.83,
1.684,0.30,-0.09,1.07,1.85,-0.32,0.83,
1.687,0.30,-0.09,1.07,1.85,-0.32,0.83,
1.687,0.30,-0.09,1.07,1.85,-0.26,0.77,
1.689,0.30,-0.08,1.06,1.85,-0.26,0.77,
1.692,0.30,-0.08,1.06,1.92,-0.24,0.66,
1.692,0.30,-0.08,1.05,1.92,-0.24,0.66,
1.694,0.30,-0.07,1.05,1.92,-0.24,0.66,
1.697,0.30,-0.07,1.05,1.91,-0.18,0.56,
1.698,0.30,-0.07,1.05,1.91,-0.18,0.56,
1.699,0.30,-0.07,1.04,1.91,-0.18,0.56,
1.702,0.30,-0.06,1.04,1.91,-0.18,0.56,
1.702,0.30,-0.06,1.04,1.93,-0.11,0.46,
1.704,0.29,-0.06,1.03,1.93,-0.11,0.46,
1.707,0.29,-0.05,1.03,1.93,-0.11,0.46,
1.707,0.29,-0.05,1.03,1.93,-0.07,0.37,
1.709,0.29,-0.05,1.03,1.93,-0.07,0.37,
1.712,0.28,-0.04,1.03,1.93,-0.07,0.37,
1.712,0.28,-0.04,1.03,1.85,-0.01,0.30,
1.714,0.28,-0.04,1.02,1.85,-0.01,0.30,
1.717,0.28,-0.04,1.02,1.78,0.03,0.26,
1.717,0.28,-0.04,1.02,1.78,0.03,0.26,
1.719,0.28,-0.04,1.02,1.78,0.03,0.26,
1.722,0.27,-0.04,1.02,1.78,0.03,0.26,
1.722,0.27,-0.04,1.02,1.78,0.04,0.19,
1.724,0.27,-0.04,1.02,1.78,0.04,0.19,
1.727,0.27,-0.04,1.01,1.78,0.04,0.19,
1.727,0.27,-0.04,1.01,1.73,0.00,0.14,
1.729,0.27,-0.04,1.01,1.73,0.00,0.14,
1.732,0.27,-0.04,0.99,1.73,0.00,0.14,
1.733,0.27,-0.04,0.99,1.72,-0.01,0.09,
1.734,0.27,-0.04,1.00,1.72,-0.01,0.09,
1.737,0.27,-0.04,1.00,1.72,-0.01,0.09,
1.737,0.27,-0.04,1.00,1.69,-0.03,-0.03,
1.739,0.26,-0.03,1.00,1.69,-0.03,-0.03,
1.742,0.26,-0.03,1.00,1.68,-0.07,-0.03,
1.742,0.25,-0.04,1.00,1.68,-0.07,-0.03,
1.744,0.25,-0.04,1.00,1.68,-0.07,-0.03,
1.747,0.24,-0.04,1.00,1.68,-0.07,-0.03,
1.747,0.24,-0.04,1.00,1.56,-0.05,-0.07,
1.754,0.23,-0.04,1.00,1.56,-0.05,-0.07,
1.755,0.23,-0.04,1.01,1.56,-0.05,-0.07,
1.755,0.23,-0.04,1.01,1.52,-0.12,-0.04,
1.755,0.22,-0.05,1.00,1.52,-0.12,-0.04,
1.759,0.22,-0.05,1.01,1.52,-0.12,-0.04,
1.759,0.22,-0.05,1.01,1.37,-0.17,-0.01,
1.759,0.21,-0.05,1.00,1.37,-0.17,-0.01,
1.762,0.21,-0.05,1.01,1.37,-0.17,-0.01,
1.762,0.21,-0.05,1.01,1.27,-0.28,-0.00,
1.766,0.21,-0.06,1.00,1.27,-0.28,-0.00,
1.767,0.21,-0.06,1.00,1.23,-0.32,0.00,
1.767,0.20,-0.06,1.00,1.23,-0.32,0.00,
1.769,0.20,-0.06,1.01,1.23,-0.32,0.00,
1.772,0.20,-0.06,1.00,1.23,-0.32,0.00,
1.772,0.20,-0.06,1.00,1.17,-0.41,-0.03,
1.774,0.19,-0.05,0.99,1.17,-0.41,-0.03,
1.776,0.19,-0.05,1.00,1.17,-0.41,-0.03,
1.777,0.19,-0.05,1.00,1.12,-0.46,-0.02,
1.778,0.19,-0.05,1.00,1.12,-0.46,-0.02,
1.782,0.19,-0.05,1.00,1.12,-0.46,-0.02,
1.782,0.19,-0.05,1.00,1.08,-0.45,-0.10,
1.783,0.19,-0.05,0.99,1.08,-0.45,-0.10,
1.786,0.19,-0.04,0.99,1.08,-0.45,-0.10,
1.787,0.19,-0.04,0.99,1.06,-0.46,-0.09,
1.788,0.19,-0.04,0.99,1.06,-0.46,-0.09,
1.791,0.19,-0.04,0.99,1.09,-0.45,-0.13,
1.791,0.19,-0.04,0.99,1.09,-0.45,-0.13,
1.793,0.20,-0.03,0.99,1.09,-0.45,-0.13,
1.796,0.20,-0.03,0.99,1.07,-0.42,-0.14,
1.796,0.20,-0.03,0.99,1.07,-0.42,-0.14,
1.798,0.20,-0.03,1.00,1.07,-0.42,-0.14,
1.801,0.20,-0.02,0.99,1.07,-0.42,-0.14,
1.802,0.20,-0.02,0.99,1.14,-0.36,-0.14,
1.803,0.20,-0.02,1.00,1.14,-0.36,-0.14,
1.806,0.20,-0.02,1.00,1.16,-0.32,-0.12,
1.806,0.19,-0.01,0.99,1.16,-0.32,-0.12,
1.809,0.20,-0.01,0.99,1.16,-0.32,-0.12,
1.811,0.20,-0.01,0.99,1.14,-0.24,-0.12,
1.811,0.20,-0.00,1.00,1.14,-0.24,-0.12,
1.813,0.20,-0.00,1.00,1.14,-0.24,-0.12,
1.816,0.20,-0.00,1.00,1.15,-0.21,-0.10,
1.817,0.20,0.00,0.99,1.15,-0.21,-0.10,
1.819,0.20,0.01,0.99,1.15,-0.21,-0.10,
1.821,0.20,0.01,0.99,1.15,-0.21,-0.10,
1.821,0.20,0.01,0.99,1.16,-0.18,-0.11,
1.823,0.20,0.01,0.98,1.16,-0.18,-0.11,
1.826,0.21,0.01,0.98,1.16,-0.18,-0.11,
1.826,0.21,0.01,0.98,1.20,-0.15,-0.17,
1.828,0.21,0.01,0.98,1.20,-0.15,-0.17,
1.831,0.21,0.01,0.97,1.20,-0.15,-0.17,
1.832,0.21,0.01,0.97,1.24,-0.16,-0.26,
1.833,0.21,0.01,0.96,1.24,-0.16,-0.26,
1.836,0.20,0.01,0.96,1.24,-0.16,-0.26,
1.836,0.20,0.01,0.96,1.29,-0.17,-0.31,
1.838,0.20,0.01,0.96,1.29,-0.17,-0.31,
1.84,0.20,0.01,0.96,1.25,-0.19,-0.41,
1.841,0.20,0.02,0.96,1.25,-0.19,-0.41,
1.843,0.20,0.02,0.96,1.25,-0.19,-0.41,
1.846,0.20,0.02,0.96,1.25,-0.19,-0.44,
1.846,0.19,0.02,0.96,1.25,-0.19,-0.44,
1.848,0.19,0.02,0.96,1.25,-0.19,-0.44,
1.851,0.19,0.03,0.96,1.25,-0.19,-0.44,
1.851,0.19,0.03,0.96,1.19,-0.18,-0.45,
1.853,0.19,0.03,0.95,1.19,-0.18,-0.45,
1.855,0.19,0.03,0.95,1.15,-0.17,-0.48,
1.856,0.18,0.04,0.95,1.15,-0.17,-0.48,
1.858,0.18,0.04,0.95,1.15,-0.17,-0.48,
1.86,0.18,0.05,0.94,1.15,-0.17,-0.48,
1.861,0.18,0.05,0.94,1.08,-0.11,-0.56,
1.863,0.17,0.05,0.95,1.08,-0.11,-0.56,
1.866,0.17,0.05,0.95,1.04,-0.06,-0.59,
1.866,0.17,0.05,0.95,1.04,-0.06,-0.59,
1.867,0.17,0.06,0.95,1.04,-0.06,-0.59,
1.87,0.17,0.06,0.94,1.04,-0.06,-0.59,
1.87,0.17,0.06,0.94,0.97,-0.00,-0.57,
1.872,0.17,0.06,0.94,0.97,-0.00,-0.57,
1.875,0.17,0.06,0.93,0.97,-0.00,-0.57,
1.875,0.17,0.06,0.93,0.95,0.04,-0.62,
1.877,0.17,0.06,0.92,0.95,0.04,-0.62,
1.88,0.17,0.06,0.92,0.95,0.04,-0.62,
1.88,0.17,0.06,0.92,0.96,0.01,-0.66,
1.882,0.18,0.06,0.92,0.96,0.01,-0.66,
1.885,0.17,0.06,0.91,0.96,0.01,-0.66,
1.886,0.17,0.06,0.91,1.01,-0.04,-0.79,
1.887,0.17,0.06,0.91,1.01,-0.04,-0.79,
1.89,0.17,0.06,0.91,1.02,-0.05,-0.87,
1.89,0.17,0.06,0.91,1.02,-0.05,-0.87,
1.892,0.16,0.05,0.90,1.02,-0.05,-0.87,
1.896,0.16,0.05,0.90,1.02,-0.05,-0.87,
1.896,0.16,0.05,0.90,0.98,-0.10,-0.92,
1.898,0.16,0.05,0.90,0.98,-0.10,-0.92,
1.9,0.15,0.05,0.90,0.98,-0.10,-0.92,
1.901,0.15,0.05,0.90,0.90,-0.18,-0.99,
1.902,0.15,0.05,0.91,0.90,-0.18,-0.99,
1.905,0.15,0.05,0.91,0.82,-0.22,-0.98,
1.906,0.14,0.05,0.91,0.82,-0.22,-0.98,
1.907,0.14,0.04,0.91,0.82,-0.22,-0.98,
1.91,0.14,0.04,0.91,0.82,-0.22,-0.98,
1.91,0.14,0.04,0.91,0.75,-0.27,-0.93,
1.912,0.14,0.04,0.91,0.75,-0.27,-0.93,
1.915,0.14,0.04,0.91,0.72,-0.35,-0.91,
1.916,0.14,0.04,0.92,0.72,-0.35,-0.91,
1.917,0.14,0.03,0.92,0.72,-0.35,-0.91,
1.92,0.13,0.03,0.92,0.72,-0.35,-0.91,
1.92,0.13,0.03,0.92,0.70,-0.41,-0.83,
1.922,0.13,0.03,0.93,0.70,-0.41,-0.83,
1.925,0.13,0.03,0.93,0.70,-0.41,-0.83,
1.925,0.13,0.03,0.93,0.64,-0.50,-0.79,
1.927,0.13,0.02,0.93,0.64,-0.50,-0.79,
1.93,0.13,0.02,0.93,0.59,-0.56,-0.69,
1.93,0.12,0.03,0.93,0.59,-0.56,-0.69,
1.932,0.11,0.03,0.93,0.59,-0.56,-0.69,
1.935,0.11,0.03,0.94,0.59,-0.56,-0.69,
1.935,0.11,0.03,0.94,0.50,-0.60,-0.68,
1.937,0.11,0.03,0.94,0.50,-0.60,-0.68,
1.94,0.11,0.03,0.94,0.39,-0.57,-0.62,
1.94,0.10,0.04,0.94,0.39,-0.57,-0.62,
1.942,0.10,0.04,0.94,0.39,-0.57,-0.62,
1.945,0.10,0.04,0.94,0.39,-0.57,-0.62,
1.945,0.10,0.04,0.94,0.32,-0.56,-0.55,
1.947,0.10,0.04,0.93,0.32,-0.56,-0.55,
1.949,0.10,0.04,0.92,0.32,-0.56,-0.55,
1.949,0.10,0.04,0.92,0.27,-0.55,-0.59,
1.952,0.10,0.04,0.92,0.27,-0.55,-0.59,
1.955,0.10,0.04,0.92,0.27,-0.55,-0.59,
1.955,0.10,0.04,0.92,0.30,-0.56,-0.70,
1.957,0.09,0.04,0.91,0.30,-0.56,-0.70,
1.96,0.09,0.04,0.91,0.30,-0.56,-0.70,
1.96,0.09,0.04,0.91,0.31,-0.55,-0.78,
1.962,0.09,0.04,0.90,0.31,-0.55,-0.78,
1.965,0.09,0.04,0.90,0.26,-0.57,-0.87,
1.965,0.09,0.04,0.90,0.26,-0.57,-0.87,
1.97,0.09,0.04,0.90,0.26,-0.57,-0.87,
1.97,0.09,0.04,0.89,0.26,-0.57,-0.87,
1.97,0.09,0.04,0.89,0.25,-0.60,-0.96,
1.971,0.09,0.04,0.89,0.25,-0.60,-0.96,
1.974,0.08,0.04,0.89,0.25,-0.60,-0.96,
1.975,0.08,0.04,0.89,0.26,-0.63,-1.02,
1.976,0.09,0.04,0.88,0.26,-0.63,-1.02,
1.979,0.09,0.05,0.87,0.26,-0.63,-1.02,
1.98,0.09,0.05,0.87,0.25,-0.61,-1.05,
1.982,0.09,0.05,0.87,0.25,-0.61,-1.05,
1.984,0.08,0.06,0.86,0.25,-0.61,-1.05,
1.984,0.08,0.06,0.86,0.30,-0.61,-1.18,
1.986,0.09,0.05,0.86,0.30,-0.61,-1.18,
1.99,0.09,0.05,0.86,0.29,-0.55,-1.26,
1.99,0.09,0.06,0.86,0.29,-0.55,-1.26,
1.992,0.09,0.06,0.85,0.29,-0.55,-1.26,
1.995,0.09,0.07,0.84,0.29,-0.55,-1.26,
1.995,0.09,0.07,0.84,0.32,-0.56,-1.35,
1.997,0.09,0.07,0.84,0.32,-0.56,-1.35,
2.0,0.08,0.08,0.83,0.32,-0.56,-1.35,
2.0,0.08,0.08,0.83,0.33,-0.48,-1.49,
2.001,0.09,0.08,0.82,0.33,-0.48,-1.49,
2.004,0.09,0.08,0.82,0.33,-0.48,-1.49,
2.004,0.09,0.08,0.82,0.33,-0.42,-1.58,
2.007,0.09,0.09,0.82,0.33,-0.42,-1.58,
2.01,0.09,0.09,0.80,0.33,-0.42,-1.58,
2.01,0.09,0.09,0.80,0.39,-0.40,-1.72,
2.012,0.10,0.09,0.79,0.39,-0.40,-1.72,
2.014,0.10,0.09,0.79,0.42,-0.36,-1.84,
2.015,0.09,0.09,0.78,0.42,-0.36,-1.84,
2.017,0.10,0.10,0.77,0.42,-0.36,-1.84,
2.019,0.11,0.10,0.77,0.42,-0.36,-1.84,
2.019,0.11,0.10,0.77,0.48,-0.32,-2.01,
2.022,0.11,0.10,0.77,0.48,-0.32,-2.01,
2.024,0.10,0.11,0.76,0.48,-0.32,-2.01,
2.025,0.10,0.11,0.76,0.58,-0.25,-2.14,
2.027,0.11,0.11,0.77,0.58,-0.25,-2.14,
2.029,0.10,0.11,0.77,0.58,-0.25,-2.14,
2.03,0.10,0.11,0.77,0.59,-0.25,-2.21,
2.031,0.10,0.11,0.77,0.59,-0.25,-2.21,
2.034,0.09,0.12,0.77,0.59,-0.25,-2.21,
2.035,0.09,0.12,0.77,0.59,-0.20,-2.20,
2.036,0.10,0.12,0.77,0.59,-0.20,-2.20,
2.04,0.10,0.12,0.77,0.53,-0.18,-2.18,
2.04,0.09,0.12,0.78,0.53,-0.18,-2.18,
2.041,0.08,0.12,0.78,0.53,-0.18,-2.18,
2.044,0.08,0.12,0.79,0.53,-0.18,-2.18,
2.044,0.08,0.12,0.79,0.48,-0.14,-2.12,
2.047,0.08,0.12,0.79,0.48,-0.14,-2.12,
2.049,0.07,0.12,0.79,0.48,-0.14,-2.12,
2.049,0.07,0.12,0.79,0.41,-0.16,-2.05,
2.051,0.07,0.12,0.80,0.41,-0.16,-2.05,
2.054,0.07,0.12,0.81,0.41,-0.16,-2.05,
2.054,0.07,0.12,0.81,0.34,-0.14,-1.93,
2.056,0.07,0.11,0.82,0.34,-0.14,-1.93,
2.059,0.07,0.11,0.82,0.34,-0.14,-1.93,
2.06,0.07,0.11,0.82,0.29,-0.19,-1.78,
2.061,0.07,0.11,0.83,0.29,-0.19,-1.78,
2.064,0.07,0.11,0.83,0.27,-0.28,-1.65,
2.064,0.06,0.11,0.84,0.27,-0.28,-1.65,
2.066,0.06,0.10,0.85,0.27,-0.28,-1.65,
2.069,0.07,0.10,0.84,0.27,-0.28,-1.65,
2.07,0.07,0.10,0.84,0.25,-0.30,-1.53,
2.071,0.07,0.11,0.84,0.25,-0.30,-1.53,
2.074,0.07,0.11,0.85,0.25,-0.30,-1.53,
2.075,0.07,0.11,0.85,0.23,-0.36,-1.42,
2.077,0.07,0.11,0.84,0.23,-0.36,-1.42,
2.079,0.07,0.11,0.84,0.23,-0.36,-1.42,
2.079,0.07,0.11,0.84,0.26,-0.34,-1.38,
2.081,0.07,0.11,0.85,0.26,-0.34,-1.38,
2.088,0.07,0.11,0.85,0.26,-0.34,-1.38,
2.088,0.07,0.11,0.85,0.28,-0.34,-1.42,
2.088,0.07,0.11,0.84,0.28,-0.34,-1.42,
2.089,0.07,0.11,0.84,0.25,-0.34,-1.34,
2.089,0.07,0.11,0.85,0.25,-0.34,-1.34,
2.091,0.07,0.11,0.85,0.25,-0.34,-1.34,
2.095,0.07,0.12,0.84,0.25,-0.34,-1.34,
2.095,0.07,0.12,0.84,0.26,-0.36,-1.39,
2.096,0.07,0.12,0.84,0.26,-0.36,-1.39,
2.098,0.07,0.12,0.84,0.26,-0.36,-1.39,
2.098,0.07,0.12,0.84,0.24,-0.29,-1.39,
2.101,0.07,0.13,0.84,0.24,-0.29,-1.39,
2.103,0.07,0.13,0.84,0.24,-0.29,-1.39,
2.103,0.07,0.13,0.84,0.24,-0.25,-1.41,
2.105,0.07,0.13,0.83,0.24,-0.25,-1.41,
2.108,0.07,0.13,0.83,0.24,-0.25,-1.41,
2.108,0.07,0.13,0.83,0.25,-0.21,-1.41,
2.11,0.07,0.13,0.84,0.25,-0.21,-1.41,
2.113,0.07,0.13,0.84,0.27,-0.18,-1.48,
2.113,0.07,0.13,0.83,0.27,-0.18,-1.48,
2.117,0.07,0.13,0.83,0.27,-0.18,-1.48,
2.12,0.07,0.14,0.84,0.27,-0.18,-1.48,
2.12,0.07,0.14,0.84,0.28,-0.16,-1.48,
2.121,0.07,0.14,0.83,0.28,-0.16,-1.48,
2.123,0.07,0.14,0.83,0.28,-0.16,-1.48,
2.123,0.07,0.14,0.83,0.26,-0.14,-1.49,
2.126,0.07,0.14,0.83,0.26,-0.14,-1.49,
2.129,0.07,0.14,0.83,0.26,-0.14,-1.49,
2.129,0.07,0.14,0.83,0.28,-0.12,-1.50,
2.131,0.07,0.14,0.83,0.28,-0.12,-1.50,
2.135,0.07,0.15,0.84,0.28,-0.12,-1.50,
2.135,0.07,0.15,0.84,0.32,-0.11,-1.54,
2.135,0.06,0.15,0.84,0.32,-0.11,-1.54,
2.138,0.06,0.15,0.84,0.28,-0.09,-1.46,
2.143,0.06,0.15,0.84,0.28,-0.09,-1.46,
2.143,0.06,0.15,0.84,0.28,-0.09,-1.46,
2.144,0.06,0.16,0.85,0.28,-0.09,-1.46,
2.144,0.06,0.16,0.85,0.25,-0.03,-1.39,
2.145,0.06,0.16,0.85,0.25,-0.03,-1.39,
2.148,0.05,0.16,0.86,0.25,-0.03,-1.39,
2.148,0.05,0.16,0.86,0.23,-0.01,-1.33,
2.15,0.05,0.17,0.86,0.23,-0.01,-1.33,
2.153,0.05,0.17,0.87,0.23,-0.01,-1.33,
2.154,0.05,0.17,0.87,0.20,0.06,-1.23,
2.155,0.04,0.17,0.87,0.20,0.06,-1.23,
2.157,0.05,0.17,0.88,0.20,0.06,-1.23,
2.158,0.05,0.17,0.88,0.15,0.10,-1.14,
2.161,0.04,0.17,0.88,0.15,0.10,-1.14,
2.163,0.04,0.17,0.88,0.12,0.14,-1.03,
2.163,0.04,0.17,0.88,0.12,0.14,-1.03,
2.165,0.04,0.17,0.89,0.12,0.14,-1.03,
2.168,0.04,0.17,0.89,0.09,0.13,-0.99,
2.169,0.05,0.17,0.89,0.09,0.13,-0.99,
2.169,0.04,0.16,0.89,0.09,0.13,-0.99,
2.173,0.05,0.16,0.90,0.09,0.13,-0.99,
2.173,0.05,0.16,0.90,0.13,0.13,-0.90,
2.175,0.04,0.16,0.91,0.13,0.13,-0.90,
2.178,0.04,0.16,0.91,0.13,0.13,-0.90,
2.178,0.04,0.16,0.91,0.17,0.07,-0.87,
2.18,0.04,0.16,0.91,0.17,0.07,-0.87,
2.183,0.04,0.16,0.92,0.17,0.07,-0.87,
2.183,0.04,0.16,0.92,0.15,0.04,-0.72,
2.188,0.05,0.16,0.91,0.15,0.04,-0.72,
2.189,0.05,0.16,0.91,0.17,0.02,-0.67,
2.189,0.04,0.16,0.92,0.17,0.02,-0.67,
2.192,0.04,0.16,0.92,0.17,0.02,-0.67,
2.193,0.04,0.16,0.93,0.17,0.02,-0.67,
2.193,0.04,0.16,0.93,0.19,0.02,-0.62,
2.195,0.04,0.16,0.93,0.19,0.02,-0.62,
2.198,0.04,0.16,0.93,0.19,0.02,-0.62,
2.198,0.04,0.16,0.93,0.20,0.02,-0.56,
2.2,0.04,0.16,0.93,0.20,0.02,-0.56,
2.203,0.04,0.16,0.93,0.20,0.02,-0.56,
2.203,0.04,0.16,0.93,0.17,0.03,-0.51,
2.205,0.04,0.17,0.93,0.17,0.03,-0.51,
2.208,0.03,0.16,0.93,0.17,0.03,-0.51,
2.208,0.03,0.16,0.93,0.19,0.02,-0.53,
2.21,0.03,0.16,0.93,0.19,0.02,-0.53,
2.213,0.03,0.16,0.93,0.18,0.07,-0.48,
2.213,0.03,0.16,0.93,0.18,0.07,-0.48,
2.215,0.03,0.16,0.93,0.18,0.07,-0.48,
2.217,0.03,0.16,0.93,0.18,0.07,-0.48,
2.217,0.03,0.16,0.93,0.13,0.02,-0.50,
2.22,0.02,0.16,0.92,0.13,0.02,-0.50,
2.222,0.02,0.16,0.92,0.13,0.02,-0.50,
2.222,0.02,0.16,0.92,0.11,0.00,-0.52,
2.225,0.02,0.16,0.92,0.11,0.00,-0.52,
2.228,0.02,0.16,0.91,0.11,0.00,-0.52,
2.228,0.02,0.16,0.91,0.06,-0.01,-0.58,
2.23,0.02,0.15,0.91,0.06,-0.01,-0.58,
2.232,0.02,0.15,0.90,0.06,-0.01,-0.58,
2.233,0.02,0.15,0.90,0.09,-0.01,-0.65,
2.235,0.02,0.15,0.90,0.09,-0.01,-0.65,
2.238,0.02,0.15,0.90,0.09,-0.01,-0.65,
2.238,0.02,0.15,0.90,0.06,-0.08,-0.74,
2.24,0.01,0.15,0.89,0.06,-0.08,-0.74,
2.242,0.01,0.15,0.89,0.06,-0.08,-0.74,
2.243,0.01,0.15,0.89,0.04,-0.12,-0.83,
2.245,0.01,0.15,0.88,0.04,-0.12,-0.83,
2.248,0.02,0.15,0.87,0.04,-0.12,-0.83,
2.248,0.02,0.15,0.87,0.01,-0.14,-0.90,
2.25,0.01,0.15,0.87,0.01,-0.14,-0.90,
2.252,0.01,0.16,0.86,0.01,-0.14,-0.90,
2.253,0.01,0.16,0.86,0.05,-0.13,-1.01,
2.254,0.01,0.16,0.86,0.05,-0.13,-1.01,
2.258,0.01,0.16,0.86,0.04,-0.10,-1.11,
2.258,0.01,0.16,0.86,0.04,-0.10,-1.11,
2.26,0.01,0.17,0.86,0.04,-0.10,-1.11,
2.263,0.01,0.17,0.86,0.05,-0.06,-1.14,
2.263,0.01,0.17,0.86,0.05,-0.06,-1.14,
2.265,-0.00,0.17,0.86,0.05,-0.06,-1.14,
2.269,-0.00,0.18,0.86,0.05,-0.06,-1.14,
2.27,-0.00,0.18,0.86,0.02,0.00,-1.17,
2.27,-0.01,0.18,0.86,0.02,0.00,-1.17,
2.272,-0.01,0.18,0.87,0.02,0.00,-1.17,
2.272,-0.01,0.18,0.87,-0.06,0.07,-1.12,
2.274,-0.02,0.18,0.87,-0.06,0.07,-1.12,
2.276,-0.02,0.18,0.87,-0.06,0.07,-1.12,
2.277,-0.02,0.18,0.87,-0.10,0.06,-1.09,
2.278,-0.03,0.18,0.88,-0.10,0.06,-1.09,
2.281,-0.03,0.18,0.88,-0.10,0.06,-1.09,
2.282,-0.03,0.18,0.88,-0.19,0.11,-1.04,
2.285,-0.03,0.18,0.88,-0.19,0.11,-1.04,
2.286,-0.03,0.18,0.88,-0.31,0.08,-0.93,
2.287,-0.04,0.18,0.89,-0.31,0.08,-0.93,
2.289,-0.04,0.17,0.90,-0.31,0.08,-0.93,
2.292,-0.05,0.17,0.91,-0.31,0.08,-0.93,
2.292,-0.05,0.17,0.91,-0.33,0.07,-0.87,
2.294,-0.05,0.16,0.91,-0.33,0.07,-0.87,
2.296,-0.06,0.16,0.91,-0.33,0.07,-0.87,
2.297,-0.06,0.16,0.91,-0.41,0.01,-0.74,
2.298,-0.07,0.16,0.92,-0.41,0.01,-0.74,
2.31,-0.07,0.15,0.92,-0.41,0.01,-0.74,
2.311,-0.07,0.15,0.92,-0.46,-0.08,-0.65,
2.315,-0.07,0.15,0.93,-0.46,-0.08,-0.65,
2.316,-0.08,0.15,0.94,-0.46,-0.08,-0.65,
2.316,-0.08,0.15,0.94,-0.59,-0.14,-0.56,
2.317,-0.08,0.15,0.94,-0.59,-0.14,-0.56,
2.317,-0.08,0.15,0.94,-0.65,-0.20,-0.43,
2.318,-0.08,0.15,0.95,-0.65,-0.20,-0.43,
2.318,-0.08,0.15,0.95,-0.65,-0.20,-0.43,
2.318,-0.09,0.15,0.95,-0.65,-0.20,-0.43,
2.319,-0.09,0.15,0.95,-0.67,-0.23,-0.32,
2.319,-0.09,0.14,0.96,-0.67,-0.23,-0.32,
2.329,-0.10,0.14,0.96,-0.67,-0.23,-0.32,
2.329,-0.10,0.14,0.96,-0.73,-0.24,-0.26,
2.33,-0.10,0.14,0.96,-0.73,-0.24,-0.26,
2.33,-0.10,0.15,0.97,-0.73,-0.24,-0.26,
2.331,-0.10,0.15,0.97,-0.80,-0.26,-0.18,
2.331,-0.11,0.15,0.97,-0.80,-0.26,-0.18,
2.331,-0.11,0.15,0.97,-0.80,-0.26,-0.18,
2.332,-0.11,0.15,0.97,-0.84,-0.24,-0.10,
2.333,-0.11,0.15,0.97,-0.84,-0.24,-0.10,
2.336,-0.11,0.16,0.97,-0.84,-0.24,-0.10,
2.337,-0.11,0.16,0.97,-0.91,-0.21,-0.08,
2.338,-0.11,0.16,0.97,-0.91,-0.21,-0.08,
2.34,-0.11,0.16,0.97,-0.91,-0.21,-0.08,
2.341,-0.11,0.16,0.97,-0.94,-0.14,-0.05,
2.343,-0.12,0.16,0.97,-0.94,-0.14,-0.05,
2.347,-0.11,0.16,0.96,-0.94,-0.14,-0.05,
2.347,-0.11,0.16,0.96,-0.95,-0.10,-0.08,
2.348,-0.12,0.17,0.96,-0.95,-0.10,-0.08,
2.352,-0.12,0.17,0.95,-0.95,-0.10,-0.08,
2.352,-0.12,0.17,0.95,-0.96,-0.05,-0.12,
2.352,-0.11,0.18,0.95,-0.96,-0.05,-0.12,
2.355,-0.11,0.18,0.95,-0.96,-0.05,-0.12,
2.355,-0.11,0.18,0.95,-0.95,0.01,-0.22,
2.358,-0.12,0.18,0.94,-0.95,0.01,-0.22,
2.36,-0.12,0.18,0.94,-0.90,0.07,-0.28,
2.36,-0.12,0.18,0.94,-0.90,0.07,-0.28,
2.363,-0.12,0.18,0.94,-0.90,0.07,-0.28,
2.365,-0.12,0.18,0.93,-0.90,0.07,-0.28,
2.365,-0.12,0.18,0.93,-0.94,0.08,-0.38,
2.368,-0.12,0.19,0.93,-0.94,0.08,-0.38,
2.37,-0.13,0.19,0.93,-0.94,0.08,-0.38,
2.37,-0.13,0.19,0.93,-0.98,0.11,-0.40,
2.372,-0.13,0.19,0.93,-0.98,0.11,-0.40,
2.375,-0.14,0.19,0.93,-0.98,0.11,-0.40,
2.375,-0.14,0.19,0.93,-1.00,0.13,-0.43,
2.377,-0.14,0.19,0.93,-1.00,0.13,-0.43,
2.38,-0.14,0.18,0.93,-1.00,0.13,-0.43,
2.38,-0.14,0.18,0.93,-1.08,0.14,-0.46,
2.382,-0.15,0.18,0.93,-1.08,0.14,-0.46,
2.385,-0.15,0.18,0.93,-1.14,0.11,-0.47,
2.385,-0.15,0.18,0.93,-1.14,0.11,-0.47,
2.387,-0.16,0.18,0.93,-1.14,0.11,-0.47,
2.39,-0.16,0.18,0.93,-1.14,0.11,-0.47,
2.39,-0.16,0.18,0.93,-1.20,0.07,-0.45,
2.392,-0.16,0.18,0.93,-1.20,0.07,-0.45,
2.397,-0.16,0.18,0.93,-1.20,0.07,-0.45,
2.397,-0.16,0.18,0.93,-1.27,0.05,-0.46,
2.398,-0.17,0.18,0.93,-1.27,0.05,-0.46,
2.405,-0.17,0.18,0.93,-1.27,0.05,-0.46,
2.406,-0.17,0.18,0.93,-1.33,0.05,-0.45,
2.406,-0.17,0.18,0.93,-1.33,0.05,-0.45,
2.406,-0.18,0.17,0.93,-1.33,0.05,-0.45,
2.407,-0.18,0.17,0.93,-1.41,0.03,-0.46,
2.407,-0.18,0.17,0.93,-1.41,0.03,-0.46,
2.41,-0.18,0.17,0.93,-1.43,-0.01,-0.43,
2.41,-0.19,0.17,0.93,-1.43,-0.01,-0.43,
2.412,-0.19,0.17,0.93,-1.43,-0.01,-0.43,
2.415,-0.19,0.16,0.93,-1.43,-0.01,-0.43,
2.415,-0.19,0.16,0.93,-1.49,-0.04,-0.42,
2.418,-0.20,0.17,0.94,-1.49,-0.04,-0.42,
2.42,-0.20,0.16,0.93,-1.49,-0.04,-0.42,
2.42,-0.20,0.16,0.93,-1.55,-0.10,-0.42,
2.422,-0.20,0.16,0.94,-1.55,-0.10,-0.42,
2.425,-0.20,0.16,0.94,-1.55,-0.10,-0.42,
2.425,-0.20,0.16,0.94,-1.61,-0.10,-0.38,
2.427,-0.20,0.16,0.94,-1.61,-0.10,-0.38,
2.429,-0.20,0.16,0.94,-1.61,-0.10,-0.38,
2.43,-0.20,0.16,0.94,-1.62,-0.15,-0.36,
2.432,-0.20,0.16,0.94,-1.62,-0.15,-0.36,
2.435,-0.20,0.16,0.94,-1.65,-0.14,-0.34,
2.435,-0.20,0.17,0.95,-1.65,-0.14,-0.34,
2.437,-0.20,0.16,0.94,-1.65,-0.14,-0.34,
2.439,-0.19,0.17,0.95,-1.65,-0.14,-0.34,
2.44,-0.19,0.17,0.95,-1.62,-0.10,-0.32,
2.442,-0.19,0.17,0.94,-1.62,-0.10,-0.32,
2.444,-0.19,0.17,0.95,-1.62,-0.10,-0.32,
2.445,-0.19,0.17,0.95,-1.57,-0.10,-0.29,
2.447,-0.19,0.17,0.95,-1.57,-0.10,-0.29,
2.449,-0.19,0.17,0.95,-1.53,-0.09,-0.30,
2.45,-0.19,0.16,0.95,-1.53,-0.09,-0.30,
2.451,-0.19,0.17,0.95,-1.53,-0.09,-0.30,
2.454,-0.19,0.17,0.95,-1.53,-0.09,-0.30,
2.455,-0.19,0.17,0.95,-1.52,-0.07,-0.24,
2.456,-0.19,0.17,0.95,-1.52,-0.07,-0.24,
2.459,-0.19,0.17,0.95,-1.51,-0.07,-0.24,
2.46,-0.19,0.17,0.95,-1.51,-0.07,-0.24,
2.462,-0.18,0.17,0.95,-1.51,-0.07,-0.24,
2.464,-0.18,0.17,0.96,-1.51,-0.07,-0.24,
2.464,-0.18,0.17,0.96,-1.49,-0.08,-0.21,
2.468,-0.18,0.16,0.96,-1.49,-0.08,-0.21,
2.471,-0.18,0.17,0.96,-1.49,-0.08,-0.21,
2.472,-0.18,0.17,0.96,-1.41,-0.07,-0.18,
2.472,-0.18,0.17,0.96,-1.41,-0.07,-0.18,
2.475,-0.17,0.17,0.96,-1.41,-0.07,-0.18,
2.475,-0.17,0.17,0.96,-1.37,-0.08,-0.15,
2.476,-0.17,0.17,0.96,-1.37,-0.08,-0.15,
2.48,-0.16,0.17,0.96,-1.37,-0.08,-0.15,
2.48,-0.16,0.17,0.96,-1.33,-0.06,-0.15,
2.481,-0.16,0.18,0.96,-1.33,-0.06,-0.15,
2.486,-0.16,0.18,0.96,-1.22,-0.03,-0.15,
2.486,-0.16,0.18,0.96,-1.22,-0.03,-0.15,
2.487,-0.16,0.18,0.96,-1.22,-0.03,-0.15,
2.489,-0.16,0.18,0.96,-1.17,0.03,-0.14,
2.49,-0.16,0.18,0.96,-1.17,0.03,-0.14,
2.492,-0.15,0.18,0.95,-1.17,0.03,-0.14,
2.495,-0.15,0.18,0.96,-1.17,0.03,-0.14,
2.495,-0.15,0.18,0.96,-1.16,0.04,-0.17,
2.497,-0.15,0.19,0.96,-1.16,0.04,-0.17,
2.499,-0.14,0.19,0.95,-1.16,0.04,-0.17,
2.5,-0.14,0.19,0.95,-1.12,0.08,-0.18,
2.502,-0.15,0.18,0.95,-1.12,0.08,-0.18,
2.504,-0.14,0.18,0.96,-1.12,0.08,-0.18,
2.505,-0.14,0.18,0.96,-1.03,0.13,-0.19,
2.506,-0.14,0.18,0.96,-1.03,0.13,-0.19,
2.509,-0.14,0.18,0.96,-1.02,0.09,-0.18,
2.509,-0.13,0.18,0.95,-1.02,0.09,-0.18,
2.511,-0.13,0.18,0.96,-1.02,0.09,-0.18,
2.514,-0.14,0.17,0.95,-1.02,0.09,-0.18,
2.514,-0.14,0.17,0.95,-0.94,0.06,-0.17,
2.516,-0.13,0.17,0.95,-0.94,0.06,-0.17,
2.52,-0.13,0.17,0.96,-0.94,0.06,-0.17,
2.52,-0.13,0.17,0.96,-0.94,0.01,-0.19,
2.521,-0.13,0.17,0.96,-0.94,0.01,-0.19,
2.524,-0.13,0.17,0.96,-0.94,0.01,-0.19,
2.524,-0.13,0.17,0.96,-0.88,-0.03,-0.18,
2.526,-0.12,0.16,0.96,-0.88,-0.03,-0.18,
2.529,-0.12,0.16,0.96,-0.87,-0.05,-0.14,
2.53,-0.11,0.16,0.96,-0.87,-0.05,-0.14,
2.531,-0.11,0.16,0.97,-0.87,-0.05,-0.14,
2.534,-0.11,0.16,0.97,-0.77,-0.08,-0.16,
2.534,-0.11,0.16,0.96,-0.77,-0.08,-0.16,
2.537,-0.11,0.16,0.97,-0.77,-0.08,-0.16,
2.539,-0.11,0.17,0.97,-0.77,-0.08,-0.16,
2.539,-0.11,0.17,0.97,-0.75,-0.09,-0.08,
2.541,-0.11,0.16,0.98,-0.75,-0.09,-0.08,
2.545,-0.11,0.16,0.98,-0.75,-0.09,-0.08,
2.545,-0.11,0.16,0.98,-0.74,-0.07,-0.03,
2.548,-0.11,0.16,0.99,-0.74,-0.07,-0.03,
2.549,-0.11,0.17,0.99,-0.74,-0.07,-0.03,
2.55,-0.11,0.17,0.99,-0.72,-0.13,0.06,
2.551,-0.11,0.16,1.00,-0.72,-0.13,0.06,
2.554,-0.11,0.16,1.00,-0.72,-0.13,0.06,
2.555,-0.11,0.16,1.00,-0.74,-0.08,0.16,
2.557,-0.11,0.16,1.00,-0.74,-0.08,0.16,
2.559,-0.11,0.16,1.00,-0.72,-0.09,0.24,
2.559,-0.11,0.17,1.00,-0.72,-0.09,0.24,
2.561,-0.11,0.17,1.00,-0.72,-0.09,0.24,
2.564,-0.11,0.17,1.00,-0.72,-0.09,0.24,
2.564,-0.11,0.17,1.00,-0.72,-0.06,0.28,
2.566,-0.11,0.17,1.00,-0.72,-0.06,0.28,
2.569,-0.10,0.17,1.00,-0.72,-0.06,0.28,
2.569,-0.10,0.17,1.00,-0.72,-0.04,0.27,
2.572,-0.10,0.17,0.99,-0.72,-0.04,0.27,
2.574,-0.10,0.18,1.00,-0.72,-0.04,0.27,
2.574,-0.10,0.18,1.00,-0.68,0.01,0.25,
2.576,-0.10,0.17,0.99,-0.68,0.01,0.25,
2.58,-0.09,0.17,0.99,-0.68,0.01,0.25,
2.58,-0.09,0.17,0.99,-0.64,0.04,0.20,
2.582,-0.09,0.17,0.98,-0.64,0.04,0.20,
2.585,-0.09,0.17,0.98,-0.55,0.02,0.13,
2.585,-0.07,0.18,0.97,-0.55,0.02,0.13,
2.588,-0.06,0.17,0.97,-0.55,0.02,0.13,
2.589,-0.04,0.17,0.97,-0.55,0.02,0.13,
2.589,-0.04,0.17,0.97,-0.42,0.05,-0.00,
2.591,-0.03,0.18,0.98,-0.42,0.05,-0.00,
2.594,-0.02,0.18,0.99,-0.42,0.05,-0.00,
2.595,-0.02,0.18,0.99,-0.16,0.05,-0.00,
2.597,-0.01,0.18,0.99,-0.16,0.05,-0.00,
2.599,0.00,0.19,1.00,-0.16,0.05,-0.00,
2.599,0.00,0.19,1.00,0.11,0.10,0.08,
2.601,0.01,0.19,1.01,0.11,0.10,0.08,
2.605,0.01,0.19,1.02,0.11,0.10,0.08,
2.605,0.01,0.19,1.02,0.35,0.15,0.22,
2.606,-0.00,0.20,1.03,0.35,0.15,0.22,
2.609,-0.00,0.20,1.03,0.47,0.23,0.37,
2.609,-0.01,0.19,1.03,0.47,0.23,0.37,
2.611,-0.03,0.19,1.03,0.47,0.23,0.37,
2.614,-0.04,0.19,1.03,0.47,0.23,0.37,
2.614,-0.04,0.19,1.03,0.32,0.25,0.52,
2.616,-0.04,0.19,1.03,0.32,0.25,0.52,
2.624,-0.06,0.18,1.02,0.32,0.25,0.52,
2.625,-0.06,0.18,1.02,0.09,0.24,0.57,
2.625,-0.07,0.17,1.02,0.09,0.24,0.57,
2.625,-0.07,0.16,1.01,0.09,0.24,0.57,
2.625,-0.07,0.16,1.01,-0.07,0.13,0.45,
2.625,-0.08,0.15,1.01,-0.07,0.13,0.45,
2.628,-0.09,0.15,1.02,-0.07,0.13,0.45,
2.628,-0.09,0.15,1.02,-0.24,-0.02,0.39,
2.63,-0.09,0.14,1.02,-0.24,-0.02,0.39,
2.633,-0.09,0.14,1.02,-0.39,-0.17,0.42,
2.636,-0.10,0.14,1.03,-0.39,-0.17,0.42,
2.636,-0.09,0.14,1.03,-0.39,-0.17,0.42,
2.64,-0.09,0.13,1.02,-0.39,-0.17,0.42,
2.641,-0.09,0.13,1.02,-0.47,-0.26,0.49,
2.641,-0.09,0.14,1.02,-0.47,-0.26,0.49,
2.643,-0.08,0.13,1.03,-0.47,-0.26,0.49,
2.643,-0.08,0.13,1.03,-0.45,-0.29,0.49,
2.646,-0.07,0.14,1.02,-0.45,-0.29,0.49,
2.649,-0.07,0.14,1.02,-0.45,-0.29,0.49,
2.649,-0.07,0.14,1.02,-0.38,-0.30,0.50,
2.651,-0.07,0.15,1.02,-0.38,-0.30,0.50,
2.653,-0.07,0.15,1.01,-0.38,-0.30,0.50,
2.653,-0.07,0.15,1.01,-0.22,-0.24,0.45,
2.656,-0.07,0.16,1.01,-0.22,-0.24,0.45,
2.658,-0.07,0.16,1.01,-0.19,-0.16,0.38,
2.658,-0.07,0.16,1.00,-0.19,-0.16,0.38,
2.66,-0.06,0.16,0.99,-0.19,-0.16,0.38,
2.663,-0.06,0.17,0.99,-0.19,-0.16,0.38,
2.663,-0.06,0.17,0.99,-0.19,-0.06,0.25,
2.666,-0.07,0.17,0.98,-0.19,-0.06,0.25,
2.668,-0.07,0.17,0.98,-0.19,-0.06,0.25,
2.668,-0.07,0.17,0.98,-0.16,-0.00,0.13,
2.671,-0.07,0.18,0.97,-0.16,-0.00,0.13,
2.673,-0.07,0.18,0.96,-0.16,-0.00,0.13,
2.673,-0.07,0.18,0.96,-0.21,0.04,0.05,
2.675,-0.07,0.18,0.96,-0.21,0.04,0.05,
2.678,-0.07,0.18,0.96,-0.21,0.04,0.05,
2.678,-0.07,0.18,0.96,-0.25,0.11,-0.08,
2.68,-0.08,0.18,0.96,-0.25,0.11,-0.08,
2.683,-0.07,0.18,0.95,-0.25,0.11,-0.08,
2.684,-0.07,0.18,0.95,-0.25,0.11,-0.14,
2.685,-0.07,0.18,0.95,-0.25,0.11,-0.14,
2.688,-0.07,0.18,0.96,-0.25,0.11,-0.14,
2.688,-0.07,0.18,0.96,-0.29,0.11,-0.23,
2.69,-0.07,0.18,0.95,-0.29,0.11,-0.23,
2.693,-0.06,0.19,0.95,-0.29,0.11,-0.23,
2.693,-0.06,0.19,0.95,-0.27,0.14,-0.21,
2.696,-0.06,0.19,0.95,-0.27,0.14,-0.21,
2.699,-0.06,0.19,0.95,-0.27,0.14,-0.21,
2.699,-0.06,0.19,0.95,-0.20,0.15,-0.22,
2.7,-0.05,0.19,0.96,-0.20,0.15,-0.22,
2.704,-0.06,0.18,0.96,-0.20,0.15,-0.22,
2.705,-0.06,0.18,0.96,-0.16,0.19,-0.21,
2.705,-0.05,0.18,0.96,-0.16,0.19,-0.21,
2.708,-0.05,0.18,0.96,-0.13,0.15,-0.15,
2.708,-0.05,0.18,0.96,-0.13,0.15,-0.15,
2.71,-0.06,0.18,0.96,-0.13,0.15,-0.15,
2.713,-0.06,0.18,0.96,-0.13,0.15,-0.15,
2.713,-0.06,0.18,0.96,-0.12,0.13,-0.18,
2.717,-0.06,0.18,0.93,-0.12,0.13,-0.18,
2.717,-0.06,0.17,0.92,-0.12,0.13,-0.18,
2.717,-0.06,0.17,0.92,-0.22,0.06,-0.14,
2.72,-0.07,0.16,0.91,-0.22,0.06,-0.14,
2.722,-0.08,0.16,0.91,-0.22,0.06,-0.14,
2.723,-0.08,0.16,0.91,-0.19,0.01,-0.48,
2.727,-0.10,0.16,0.93,-0.19,0.01,-0.48,
2.727,-0.11,0.15,0.95,-0.19,0.01,-0.48,
2.727,-0.11,0.15,0.95,-0.35,-0.11,-0.62,
2.73,-0.11,0.15,0.96,-0.35,-0.11,-0.62,
2.732,-0.11,0.15,0.96,-0.61,-0.15,-0.30,
2.733,-0.11,0.14,0.97,-0.61,-0.15,-0.30,
2.734,-0.12,0.14,0.97,-0.61,-0.15,-0.30,
2.743,-0.12,0.14,0.98,-0.61,-0.15,-0.30,
2.745,-0.12,0.14,0.98,-0.71,-0.24,-0.07,
2.745,-0.12,0.13,0.98,-0.71,-0.24,-0.07,
2.745,-0.11,0.13,0.98,-0.71,-0.24,-0.07,
2.745,-0.11,0.13,0.98,-0.77,-0.30,0.04,
2.746,-0.10,0.14,0.98,-0.77,-0.30,0.04,
2.749,-0.10,0.14,0.98,-0.77,-0.30,0.04,
2.752,-0.10,0.14,0.98,-0.70,-0.35,0.09,
2.753,-0.09,0.14,0.98,-0.70,-0.35,0.09,
2.753,-0.09,0.14,0.97,-0.70,-0.35,0.09,
2.754,-0.09,0.14,0.97,-0.59,-0.30,0.07,
2.754,-0.08,0.15,0.97,-0.59,-0.30,0.07,
2.76,-0.08,0.15,0.97,-0.47,-0.22,-0.00,
2.761,-0.08,0.16,0.97,-0.47,-0.22,-0.00,
2.761,-0.07,0.16,0.96,-0.47,-0.22,-0.00,
2.761,-0.07,0.16,0.96,-0.37,-0.14,-0.03,
2.762,-0.07,0.17,0.97,-0.37,-0.14,-0.03,
2.764,-0.06,0.18,0.97,-0.37,-0.14,-0.03,
2.767,-0.06,0.17,0.97,-0.37,-0.14,-0.03,
2.767,-0.06,0.17,0.97,-0.30,-0.01,-0.05,
2.77,-0.05,0.18,0.98,-0.30,-0.01,-0.05,
2.776,-0.05,0.18,0.99,-0.30,-0.01,-0.05,
2.777,-0.05,0.18,0.99,-0.21,0.10,-0.01,
2.777,-0.04,0.18,1.00,-0.21,0.10,-0.01,
2.777,-0.03,0.18,1.00,-0.21,0.10,-0.01,
2.777,-0.03,0.18,1.00,-0.10,0.13,0.14,
2.779,-0.02,0.18,1.00,-0.10,0.13,0.14,
2.782,-0.02,0.18,1.00,0.09,0.14,0.22,
2.782,-0.02,0.18,1.01,0.09,0.14,0.22,
2.784,-0.02,0.18,1.01,0.09,0.14,0.22,
2.793,-0.02,0.18,1.01,0.09,0.14,0.22,
2.794,-0.02,0.18,1.01,0.18,0.16,0.27,
2.794,-0.01,0.18,1.02,0.18,0.16,0.27,
2.794,-0.01,0.18,1.02,0.18,0.16,0.27,
2.794,-0.01,0.18,1.02,0.23,0.15,0.33,
2.795,-0.01,0.18,1.02,0.23,0.15,0.33,
2.797,-0.01,0.17,1.02,0.23,0.15,0.33,
2.797,-0.01,0.17,1.02,0.27,0.12,0.41,
2.8,-0.02,0.17,1.03,0.27,0.12,0.41,
2.801,-0.02,0.16,1.03,0.27,0.12,0.41,
2.802,-0.02,0.16,1.03,0.27,0.12,0.41,
2.807,-0.02,0.16,1.03,0.27,0.12,0.41,
2.808,-0.02,0.16,1.03,0.21,0.01,0.54,
2.808,-0.03,0.15,1.04,0.21,0.01,0.54,
2.808,-0.03,0.14,1.04,0.21,0.01,0.54,
2.811,-0.03,0.14,1.03,0.21,0.01,0.54,
2.811,-0.03,0.14,1.03,0.15,-0.11,0.59,
2.814,-0.03,0.13,1.03,0.15,-0.11,0.59,
2.816,-0.03,0.13,1.02,0.15,-0.11,0.59,
2.816,-0.03,0.13,1.02,0.09,-0.23,0.56,
2.825,-0.04,0.13,1.01,0.09,-0.23,0.56,
2.826,-0.04,0.12,1.01,0.09,-0.23,0.56,
2.826,-0.04,0.12,1.01,0.07,-0.31,0.45,
2.826,-0.04,0.12,1.00,0.07,-0.31,0.45,
2.826,-0.04,0.12,1.00,0.07,-0.31,0.45,
2.827,-0.04,0.12,1.00,0.02,-0.38,0.31,
2.828,-0.05,0.12,1.00,0.02,-0.38,0.31,
2.831,-0.05,0.12,1.00,-0.02,-0.45,0.21,
2.831,-0.05,0.12,0.99,-0.02,-0.45,0.21,
2.834,-0.05,0.13,0.99,-0.02,-0.45,0.21,
2.843,-0.04,0.14,0.99,-0.02,-0.45,0.21,
2.843,-0.04,0.14,0.99,-0.12,-0.43,0.16,
2.844,-0.04,0.15,0.99,-0.12,-0.43,0.16,
2.844,-0.05,0.15,0.98,-0.12,-0.43,0.16,
2.844,-0.05,0.15,0.98,-0.13,-0.29,0.13,
2.844,-0.05,0.15,0.99,-0.13,-0.29,0.13,
