
time,gFx,gFy,gFz,ax,ay,az,
0.013,0.04,0.07,1.00,-0.14,-0.31,0.01,
0.014,0.04,0.07,1.00,-0.19,-0.31,0.09,
0.014,0.03,0.07,1.00,-0.19,-0.31,0.09,
0.014,0.02,0.07,1.01,-0.19,-0.31,0.09,
0.015,0.02,0.07,1.01,-0.39,-0.17,0.06,
0.015,0.02,0.08,1.01,-0.39,-0.17,0.06,
0.015,0.02,0.09,1.01,-0.39,-0.17,0.06,
0.015,0.02,0.09,1.01,-0.59,-0.09,0.12,
0.016,0.03,0.08,1.01,-0.59,-0.09,0.12,
0.016,0.03,0.08,1.01,-0.60,0.01,0.16,
0.016,0.04,0.08,1.01,-0.60,0.01,0.16,
0.016,0.04,0.08,1.00,-0.60,0.01,0.16,
0.017,0.05,0.08,1.01,-0.60,0.01,0.16,
0.017,0.05,0.08,1.01,-0.49,0.03,0.11,
0.017,0.06,0.08,1.01,-0.49,0.03,0.11,
0.017,0.07,0.08,1.01,-0.49,0.03,0.11,
0.017,0.07,0.08,1.01,-0.35,0.01,0.11,
0.026,0.07,0.08,1.02,-0.35,0.01,0.11,
0.027,0.08,0.08,1.02,-0.35,0.01,0.11,
0.027,0.08,0.08,1.02,-0.14,0.03,0.16,
0.027,0.09,0.08,1.02,-0.14,0.03,0.16,
0.027,0.09,0.08,1.01,-0.14,0.03,0.16,
0.027,0.09,0.08,1.01,-0.03,0.04,0.22,
0.029,0.09,0.07,1.01,-0.03,0.04,0.22,
0.031,0.09,0.07,1.01,0.07,0.01,0.17,
0.032,0.10,0.07,1.00,0.07,0.01,0.17,
0.035,0.11,0.08,1.00,0.07,0.01,0.17,
0.037,0.11,0.08,1.00,0.07,0.01,0.17,
0.037,0.11,0.08,1.00,0.15,-0.01,0.11,
0.039,0.10,0.08,0.99,0.15,-0.01,0.11,
0.042,0.11,0.08,0.99,0.15,-0.01,0.11,
0.043,0.11,0.08,0.99,0.26,0.04,0.04,
0.045,0.12,0.08,0.97,0.26,0.04,0.04,
0.047,0.18,0.08,0.88,0.26,0.04,0.04,
0.047,0.18,0.08,0.88,0.27,0.09,-0.07,
0.049,0.18,0.09,0.87,0.27,0.09,-0.07,
0.052,0.15,0.09,0.91,0.27,0.09,-0.07,
0.052,0.15,0.09,0.91,0.72,0.12,-0.70,
0.054,0.14,0.09,0.92,0.72,0.12,-0.70,
0.057,0.14,0.09,0.92,0.82,0.22,-1.07,
0.057,0.13,0.10,0.94,0.82,0.22,-1.07,
0.06,0.12,0.10,0.95,0.82,0.22,-1.07,
0.062,0.12,0.10,0.97,0.82,0.22,-1.07,
0.062,0.12,0.10,0.97,0.55,0.27,-0.64,
0.064,0.12,0.10,0.99,0.55,0.27,-0.64,
0.067,0.11,0.09,1.01,0.55,0.27,-0.64,
0.067,0.11,0.09,1.01,0.42,0.37,-0.31,
0.069,0.11,0.09,1.03,0.42,0.37,-0.31,
0.071,0.11,0.08,1.03,0.42,0.37,-0.31,
0.072,0.11,0.08,1.03,0.37,0.33,0.08,
0.073,0.10,0.07,1.04,0.37,0.33,0.08,
0.077,0.09,0.05,1.05,0.37,0.33,0.08,
0.077,0.09,0.05,1.05,0.33,0.21,0.33,
0.079,0.09,0.04,1.06,0.33,0.21,0.33,
0.082,0.09,0.04,1.06,0.23,0.03,0.46,
0.082,0.10,0.03,1.05,0.23,0.03,0.46,
0.084,0.13,0.03,1.05,0.23,0.03,0.46,
0.087,0.11,0.02,1.04,0.23,0.03,0.46,
0.087,0.11,0.02,1.04,0.24,-0.20,0.56,
0.089,0.11,0.02,1.04,0.24,-0.20,0.56,
0.092,0.10,0.03,1.04,0.24,-0.20,0.56,
0.092,0.10,0.03,1.04,0.51,-0.32,0.44,
0.094,0.10,0.03,1.03,0.51,-0.32,0.44,
0.097,0.09,0.03,1.03,0.51,-0.32,0.44,
0.097,0.09,0.03,1.03,0.39,-0.32,0.42,
0.099,0.08,0.04,1.02,0.39,-0.32,0.42,
0.105,0.07,0.04,1.01,0.39,-0.32,0.42,
0.106,0.07,0.04,1.01,0.30,-0.24,0.31,
0.106,0.06,0.04,1.01,0.30,-0.24,0.31,
0.107,0.06,0.04,1.01,0.14,-0.15,0.15,
0.107,0.05,0.04,1.00,0.14,-0.15,0.15,
0.109,0.05,0.05,0.99,0.14,-0.15,0.15,
0.111,0.04,0.05,0.98,0.14,-0.15,0.15,
0.112,0.04,0.05,0.98,-0.03,-0.09,0.03,
0.113,0.04,0.05,0.98,-0.03,-0.09,0.03,
0.116,0.04,0.05,0.98,-0.03,-0.09,0.03,
0.116,0.04,0.05,0.98,-0.09,-0.03,-0.12,
0.119,0.03,0.04,0.97,-0.09,-0.03,-0.12,
0.121,0.03,0.04,0.97,-0.09,-0.03,-0.12,
0.122,0.03,0.04,0.97,-0.12,-0.04,-0.23,
0.123,0.03,0.04,0.97,-0.12,-0.04,-0.23,
0.126,0.03,0.04,0.97,-0.12,-0.04,-0.23,
0.127,0.03,0.04,0.97,-0.19,-0.08,-0.29,
0.128,0.03,0.04,0.97,-0.19,-0.08,-0.29,
0.132,0.03,0.04,0.97,-0.14,-0.11,-0.30,
0.132,0.03,0.04,0.98,-0.14,-0.11,-0.30,
0.134,0.03,0.04,0.98,-0.14,-0.11,-0.30,
0.136,0.02,0.04,0.99,-0.14,-0.11,-0.30,
0.137,0.02,0.04,0.99,-0.16,-0.11,-0.22,
0.139,0.02,0.04,0.99,-0.16,-0.11,-0.22,
0.141,0.02,0.04,0.99,-0.16,-0.11,-0.22,
0.141,0.02,0.04,0.99,-0.17,-0.12,-0.15,
0.143,0.01,0.04,1.00,-0.17,-0.12,-0.15,
0.146,0.01,0.03,1.00,-0.17,-0.12,-0.15,
0.146,0.01,0.03,1.00,-0.17,-0.12,-0.12,
0.148,0.01,0.04,1.00,-0.17,-0.12,-0.12,
0.151,0.00,0.04,0.99,-0.17,-0.12,-0.12,
0.151,0.00,0.04,0.99,-0.25,-0.10,-0.03,
0.153,-0.01,0.04,0.99,-0.25,-0.10,-0.03,
0.156,-0.01,0.04,0.99,-0.32,-0.10,-0.04,
0.161,-0.01,0.04,1.00,-0.32,-0.10,-0.04,
0.161,-0.01,0.04,1.00,-0.32,-0.10,-0.04,
0.161,-0.02,0.04,0.99,-0.32,-0.10,-0.04,
0.163,-0.02,0.04,0.99,-0.42,-0.06,-0.07,
0.164,-0.03,0.04,0.99,-0.42,-0.06,-0.07,
0.166,-0.03,0.04,0.99,-0.42,-0.06,-0.07,
0.166,-0.03,0.04,0.99,-0.49,-0.09,-0.03,
0.168,-0.03,0.03,0.99,-0.49,-0.09,-0.03,
0.171,-0.04,0.04,0.98,-0.49,-0.09,-0.03,
0.171,-0.04,0.04,0.98,-0.55,-0.05,-0.07,
0.173,-0.04,0.04,0.98,-0.55,-0.05,-0.07,
0.175,-0.04,0.04,0.98,-0.63,-0.09,-0.15,
0.175,-0.04,0.04,0.98,-0.63,-0.09,-0.15,
0.178,-0.05,0.04,0.98,-0.63,-0.09,-0.15,
0.18,-0.05,0.04,0.98,-0.65,-0.03,-0.20,
0.18,-0.05,0.05,0.97,-0.65,-0.03,-0.20,
0.185,-0.05,0.04,0.97,-0.65,-0.03,-0.20,
0.186,-0.05,0.04,0.98,-0.65,-0.03,-0.20,
0.186,-0.05,0.04,0.98,-0.69,0.01,-0.25,
0.188,-0.05,0.04,0.98,-0.69,0.01,-0.25,
0.191,-0.05,0.05,0.98,-0.69,0.01,-0.25,
0.191,-0.05,0.05,0.98,-0.74,-0.00,-0.25,
0.193,-0.06,0.05,0.99,-0.74,-0.00,-0.25,
0.196,-0.06,0.05,0.99,-0.74,-0.00,-0.25,
0.196,-0.06,0.05,0.99,-0.75,0.03,-0.20,
0.198,-0.06,0.05,1.00,-0.75,0.03,-0.20,
0.201,-0.06,0.05,1.00,-0.75,0.03,-0.20,
0.201,-0.06,0.05,1.00,-0.78,0.04,-0.12,
0.203,-0.06,0.04,1.00,-0.78,0.04,-0.12,
0.205,-0.06,0.04,1.00,-0.78,0.05,-0.01,
0.205,-0.06,0.04,1.00,-0.78,0.05,-0.01,
0.208,-0.06,0.04,1.00,-0.78,0.05,-0.01,
0.21,-0.06,0.03,1.01,-0.78,0.05,-0.01,
0.211,-0.06,0.03,1.01,-0.78,-0.01,0.03,
0.213,-0.06,0.03,1.02,-0.78,-0.01,0.03,
0.216,-0.06,0.02,1.01,-0.78,-0.01,0.03,
0.216,-0.06,0.02,1.01,-0.79,-0.11,0.06,
0.223,-0.06,0.02,1.02,-0.79,-0.11,0.06,
0.224,-0.06,0.02,1.02,-0.79,-0.11,0.06,
0.225,-0.06,0.02,1.02,-0.79,-0.14,0.16,
0.225,-0.06,0.02,1.03,-0.79,-0.14,0.16,
0.225,-0.06,0.02,1.03,-0.78,-0.19,0.17,
0.225,-0.06,0.01,1.03,-0.78,-0.19,0.17,
0.227,-0.06,0.01,1.02,-0.78,-0.19,0.17,
0.23,-0.06,0.01,1.02,-0.81,-0.26,0.25,
0.23,-0.06,0.01,1.02,-0.81,-0.26,0.25,
0.232,-0.06,0.01,1.03,-0.81,-0.26,0.25,
0.235,-0.06,0.01,1.03,-0.80,-0.27,0.24,
0.236,-0.06,0.01,1.03,-0.80,-0.27,0.24,
0.237,-0.06,0.01,1.02,-0.80,-0.27,0.24,
0.24,-0.07,0.01,1.02,-0.80,-0.27,0.24,
0.24,-0.07,0.01,1.02,-0.78,-0.31,0.25,
0.243,-0.06,0.01,1.02,-0.78,-0.31,0.25,
0.245,-0.06,0.02,1.02,-0.78,-0.31,0.25,
0.245,-0.06,0.02,1.02,-0.82,-0.25,0.23,
0.247,-0.07,0.02,1.02,-0.82,-0.25,0.23,
0.25,-0.07,0.02,1.02,-0.82,-0.25,0.23,
0.25,-0.07,0.02,1.02,-0.81,-0.23,0.20,
0.252,-0.07,0.02,1.01,-0.81,-0.23,0.20,
0.255,-0.07,0.02,1.01,-0.85,-0.19,0.16,
0.255,-0.07,0.03,1.00,-0.85,-0.19,0.16,
0.258,-0.08,0.02,1.00,-0.85,-0.19,0.16,
0.26,-0.08,0.03,1.00,-0.85,-0.19,0.16,
0.26,-0.08,0.03,1.00,-0.82,-0.15,0.06,
0.263,-0.07,0.02,0.98,-0.82,-0.15,0.06,
0.265,-0.08,0.03,0.98,-0.82,-0.15,0.06,
0.266,-0.08,0.03,0.98,-0.90,-0.13,-0.01,
0.268,-0.08,0.03,0.98,-0.90,-0.13,-0.01,
0.27,-0.08,0.03,0.98,-0.90,-0.13,-0.01,
0.27,-0.08,0.03,0.98,-0.89,-0.13,-0.16,
0.272,-0.09,0.03,0.98,-0.89,-0.13,-0.16,
0.275,-0.09,0.04,0.98,-0.89,-0.13,-0.16,
0.275,-0.09,0.04,0.98,-0.93,-0.07,-0.19,
0.277,-0.10,0.04,0.98,-0.93,-0.07,-0.19,
0.28,-0.10,0.04,0.98,-1.02,-0.02,-0.21,
0.28,-0.10,0.04,0.98,-1.02,-0.02,-0.21,
0.282,-0.11,0.04,0.98,-1.02,-0.02,-0.21,
0.284,-0.11,0.04,0.99,-1.02,-0.02,-0.21,
0.285,-0.11,0.04,0.99,-1.10,-0.01,-0.20,
0.287,-0.10,0.04,0.99,-1.10,-0.01,-0.20,
0.289,-0.11,0.04,1.00,-1.10,-0.01,-0.20,
0.29,-0.11,0.04,1.00,-1.18,0.05,-0.12,
0.293,-0.11,0.05,1.02,-1.18,0.05,-0.12,
0.295,-0.11,0.05,1.02,-1.16,0.05,-0.01,
0.295,-0.11,0.04,1.02,-1.16,0.05,-0.01,
0.297,-0.10,0.04,1.04,-1.16,0.05,-0.01,
0.3,-0.10,0.05,1.05,-1.16,0.05,-0.01,
0.3,-0.10,0.05,1.05,-1.21,0.06,0.19,
0.303,-0.09,0.05,1.05,-1.21,0.06,0.19,
0.304,-0.09,0.05,1.05,-1.12,0.08,0.40,
0.304,-0.09,0.05,1.06,-1.12,0.08,0.40,
0.306,-0.09,0.04,1.06,-1.12,0.08,0.40,
0.31,-0.08,0.04,1.07,-1.12,0.08,0.40,
0.31,-0.08,0.04,1.07,-1.05,0.09,0.50,
0.312,-0.08,0.04,1.07,-1.05,0.09,0.50,
0.315,-0.08,0.04,1.08,-1.05,0.09,0.50,
0.315,-0.08,0.04,1.08,-0.98,0.06,0.63,
0.317,-0.07,0.04,1.07,-0.98,0.06,0.63,
0.325,-0.07,0.03,1.06,-0.98,0.06,0.63,
0.326,-0.07,0.03,1.06,-0.91,0.03,0.71,
0.328,-0.07,0.03,1.05,-0.91,0.03,0.71,
0.329,-0.07,0.02,1.05,-0.91,0.03,0.71,
0.329,-0.07,0.02,1.05,-0.84,-0.05,0.60,
0.329,-0.06,0.02,1.03,-0.84,-0.05,0.60,
0.329,-0.06,0.02,1.03,-0.80,-0.14,0.47,
0.33,-0.07,0.02,1.02,-0.80,-0.14,0.47,
0.331,-0.07,0.01,1.02,-0.80,-0.14,0.47,
0.336,-0.08,0.01,1.01,-0.80,-0.14,0.47,
0.337,-0.08,0.01,1.01,-0.77,-0.21,0.25,
0.337,-0.08,0.01,1.00,-0.77,-0.21,0.25,
0.339,-0.08,0.01,0.99,-0.77,-0.21,0.25,
0.339,-0.08,0.01,0.99,-0.86,-0.30,0.11,
0.341,-0.09,0.00,0.99,-0.86,-0.30,0.11,
0.344,-0.10,0.00,0.98,-0.86,-0.30,0.11,
0.344,-0.10,0.00,0.98,-0.92,-0.31,-0.09,
0.347,-0.11,0.01,0.97,-0.92,-0.31,-0.09,
0.349,-0.12,0.01,0.97,-0.92,-0.31,-0.09,
0.35,-0.12,0.01,0.97,-1.06,-0.39,-0.20,
0.352,-0.12,0.01,0.97,-1.06,-0.39,-0.20,
0.355,-0.12,0.01,0.97,-1.20,-0.34,-0.34,
0.355,-0.13,0.01,0.98,-1.20,-0.34,-0.34,
0.357,-0.14,0.00,0.98,-1.20,-0.34,-0.34,
0.359,-0.14,0.01,0.99,-1.20,-0.34,-0.34,
0.359,-0.14,0.01,0.99,-1.31,-0.32,-0.26,
0.361,-0.14,0.00,1.00,-1.31,-0.32,-0.26,
0.364,-0.15,0.00,1.01,-1.31,-0.32,-0.26,
0.364,-0.15,0.00,1.01,-1.40,-0.36,-0.18,
0.366,-0.15,0.00,1.01,-1.40,-0.36,-0.18,
0.369,-0.16,0.00,1.02,-1.40,-0.36,-0.18,
0.369,-0.16,0.00,1.02,-1.49,-0.35,0.02,
0.371,-0.16,0.00,1.04,-1.49,-0.35,0.02,
0.373,-0.16,0.01,1.04,-1.49,-0.35,0.02,
0.373,-0.16,0.01,1.04,-1.55,-0.35,0.16,
0.376,-0.15,0.01,1.05,-1.55,-0.35,0.16,
0.379,-0.15,0.01,1.05,-1.58,-0.33,0.35,
0.38,-0.15,0.01,1.05,-1.58,-0.33,0.35,
0.381,-0.15,0.01,1.06,-1.58,-0.33,0.35,
0.384,-0.14,0.01,1.06,-1.58,-0.33,0.35,
0.384,-0.14,0.01,1.06,-1.50,-0.32,0.46,
0.387,-0.13,0.01,1.05,-1.50,-0.32,0.46,
0.389,-0.13,0.01,1.05,-1.43,-0.29,0.51,
0.389,-0.13,0.01,1.06,-1.43,-0.29,0.51,
0.391,-0.12,0.02,1.06,-1.43,-0.29,0.51,
0.393,-0.12,0.02,1.06,-1.30,-0.29,0.51,
0.394,-0.12,0.01,1.05,-1.30,-0.29,0.51,
0.395,-0.12,0.02,1.04,-1.30,-0.29,0.51,
0.399,-0.12,0.02,1.04,-1.20,-0.26,0.49,
0.399,-0.12,0.02,1.04,-1.20,-0.26,0.49,
0.401,-0.12,0.01,1.04,-1.20,-0.26,0.49,
0.403,-0.12,0.01,1.04,-1.14,-0.24,0.39,
0.404,-0.12,0.01,1.03,-1.14,-0.24,0.39,
0.407,-0.11,0.01,1.02,-1.14,-0.24,0.39,
0.408,-0.11,0.01,1.02,-1.14,-0.24,0.39,
0.409,-0.11,0.01,1.02,-1.12,-0.29,0.28,
0.411,-0.11,0.01,1.01,-1.12,-0.29,0.28,
0.414,-0.11,0.01,1.00,-1.12,-0.29,0.28,
0.414,-0.11,0.01,1.00,-1.05,-0.32,0.12,
0.416,-0.12,0.01,0.99,-1.05,-0.32,0.12,
0.419,-0.12,0.01,0.99,-1.05,-0.32,0.12,
0.42,-0.12,0.01,0.99,-1.07,-0.34,0.02,
0.42,-0.12,0.01,0.98,-1.07,-0.34,0.02,
0.423,-0.12,0.01,0.98,-1.07,-0.34,0.02,
0.423,-0.12,0.01,0.98,-1.11,-0.34,-0.13,
0.426,-0.13,0.01,0.97,-1.11,-0.34,-0.13,
0.429,-0.13,0.01,0.97,-1.15,-0.38,-0.21,
0.429,-0.12,0.01,0.96,-1.15,-0.38,-0.21,
0.431,-0.13,0.01,0.96,-1.15,-0.38,-0.21,
0.433,-0.13,0.01,0.96,-1.15,-0.38,-0.21,
0.433,-0.13,0.01,0.96,-1.17,-0.40,-0.39,
0.441,-0.13,0.00,0.95,-1.17,-0.40,-0.39,
0.442,-0.12,0.01,0.95,-1.17,-0.40,-0.39,
0.443,-0.12,0.01,0.95,-1.17,-0.41,-0.41,
0.443,-0.12,0.02,0.95,-1.17,-0.41,-0.41,
0.444,-0.11,0.01,0.94,-1.17,-0.41,-0.41,
0.444,-0.11,0.01,0.94,-1.13,-0.43,-0.50,
0.445,-0.11,0.02,0.93,-1.13,-0.43,-0.50,
0.448,-0.11,0.02,0.94,-1.13,-0.43,-0.50,
0.448,-0.11,0.02,0.94,-1.05,-0.37,-0.56,
0.449,-0.10,0.03,0.94,-1.05,-0.37,-0.56,
0.452,-0.10,0.03,0.94,-0.97,-0.33,-0.65,
0.453,-0.09,0.03,0.93,-0.97,-0.33,-0.65,
0.455,-0.09,0.03,0.93,-0.97,-0.33,-0.65,
0.457,-0.09,0.04,0.93,-0.97,-0.33,-0.65,
0.458,-0.09,0.04,0.93,-0.82,-0.27,-0.65,
0.459,-0.08,0.05,0.94,-0.82,-0.27,-0.65,
0.462,-0.08,0.05,0.94,-0.82,-0.27,-0.65,
0.462,-0.08,0.05,0.94,-0.75,-0.20,-0.69,
0.464,-0.08,0.06,0.95,-0.75,-0.20,-0.69,
0.468,-0.07,0.06,0.95,-0.75,-0.20,-0.69,
0.469,-0.07,0.06,0.95,-0.68,-0.07,-0.59,
0.47,-0.07,0.06,0.96,-0.68,-0.07,-0.59,
0.472,-0.07,0.06,0.96,-0.62,-0.01,-0.48,
0.472,-0.07,0.07,0.96,-0.62,-0.01,-0.48,
0.474,-0.07,0.07,0.97,-0.62,-0.01,-0.48,
0.477,-0.07,0.07,0.97,-0.54,0.05,-0.39,
0.478,-0.06,0.07,0.96,-0.54,0.05,-0.39,
0.479,-0.06,0.06,0.97,-0.54,0.05,-0.39,
0.482,-0.06,0.06,0.98,-0.54,0.05,-0.39,
0.482,-0.06,0.06,0.98,-0.49,0.07,-0.34,
0.485,-0.05,0.06,0.97,-0.49,0.07,-0.34,
0.491,-0.06,0.06,0.98,-0.49,0.07,-0.34,
0.491,-0.06,0.06,0.98,-0.42,0.02,-0.23,
0.492,-0.05,0.06,0.97,-0.42,0.02,-0.23,
0.492,-0.04,0.05,0.97,-0.42,0.02,-0.23,
0.492,-0.04,0.05,0.97,-0.35,0.03,-0.23,
0.494,-0.05,0.06,0.98,-0.35,0.03,-0.23,
0.496,-0.04,0.06,0.98,-0.35,0.03,-0.23,
0.497,-0.04,0.06,0.98,-0.26,-0.04,-0.25,
0.499,-0.04,0.06,0.98,-0.26,-0.04,-0.25,
0.502,-0.04,0.06,0.98,-0.23,0.02,-0.21,
0.503,-0.04,0.07,0.98,-0.23,0.02,-0.21,
0.505,-0.03,0.08,0.98,-0.23,0.02,-0.21,
0.507,-0.03,0.08,0.98,-0.23,0.02,-0.21,
0.507,-0.03,0.08,0.98,-0.17,0.05,-0.17,
0.51,-0.03,0.09,0.98,-0.17,0.05,-0.17,
0.512,-0.03,0.09,0.98,-0.07,0.18,-0.17,
0.512,-0.02,0.09,0.99,-0.07,0.18,-0.17,
0.514,-0.02,0.10,0.99,-0.07,0.18,-0.17,
0.517,-0.01,0.10,0.98,-0.07,0.18,-0.17,
0.519,-0.01,0.10,0.98,0.00,0.29,-0.13,
0.519,-0.01,0.11,0.99,0.00,0.29,-0.13,
0.522,-0.00,0.11,0.98,0.00,0.29,-0.13,
0.523,-0.00,0.11,0.98,0.10,0.38,-0.13,
0.524,-0.00,0.12,0.98,0.10,0.38,-0.13,
0.527,-0.00,0.12,0.98,0.22,0.46,-0.14,
0.528,0.00,0.11,0.99,0.22,0.46,-0.14,
0.529,0.00,0.12,0.99,0.22,0.46,-0.14,
0.532,0.00,0.13,0.99,0.22,0.46,-0.14,
0.532,0.00,0.13,0.99,0.28,0.52,-0.14,
0.535,0.00,0.13,0.99,0.28,0.52,-0.14,
0.537,0.00,0.13,0.99,0.28,0.52,-0.14,
0.538,0.00,0.13,0.99,0.31,0.62,-0.10,
0.539,-0.00,0.13,0.99,0.31,0.62,-0.10,
0.542,-0.00,0.13,0.99,0.31,0.62,-0.10,
0.543,-0.00,0.13,0.99,0.29,0.66,-0.05,
0.544,-0.01,0.14,0.99,0.29,0.66,-0.05,
0.547,-0.02,0.14,0.99,0.29,0.66,-0.05,
0.547,-0.02,0.14,0.99,0.25,0.65,-0.10,
0.549,-0.02,0.14,0.99,0.25,0.65,-0.10,
0.556,-0.02,0.14,0.99,0.14,0.69,-0.04,
0.557,-0.03,0.14,0.99,0.14,0.69,-0.04,
0.557,-0.03,0.15,0.99,0.14,0.69,-0.04,
0.557,-0.03,0.15,1.00,0.14,0.69,-0.04,
0.557,-0.03,0.15,1.00,0.05,0.70,-0.03,
0.559,-0.03,0.15,1.00,0.05,0.70,-0.03,
0.561,-0.03,0.15,0.99,0.05,0.70,-0.03,
0.561,-0.03,0.15,0.99,-0.01,0.75,-0.03,
0.564,-0.04,0.15,0.99,-0.01,0.75,-0.03,
0.567,-0.03,0.15,0.99,-0.01,0.75,-0.03,
0.567,-0.03,0.15,0.99,-0.01,0.74,-0.02,
0.569,-0.03,0.15,0.98,-0.01,0.74,-0.02,
0.571,-0.03,0.15,0.97,-0.01,0.74,-0.02,
0.571,-0.03,0.15,0.97,-0.04,0.74,-0.07,
0.573,-0.03,0.15,0.96,-0.04,0.74,-0.07,
0.577,-0.03,0.14,0.96,-0.04,0.74,-0.07,
0.577,-0.03,0.14,0.96,0.01,0.72,-0.18,
0.579,-0.04,0.14,0.94,0.01,0.72,-0.18,
0.582,-0.03,0.13,0.93,0.01,0.72,-0.18,
0.582,-0.03,0.13,0.93,0.03,0.66,-0.34,
0.584,-0.03,0.13,0.93,0.03,0.66,-0.34,
0.586,-0.03,0.12,0.92,0.03,0.66,-0.34,
0.587,-0.03,0.12,0.92,0.00,0.57,-0.57,
0.59,-0.04,0.12,0.90,0.00,0.57,-0.57,
0.591,-0.04,0.12,0.90,0.04,0.44,-0.73,
0.591,-0.04,0.11,0.89,0.04,0.44,-0.73,
0.594,-0.04,0.11,0.89,0.04,0.44,-0.73,
0.596,-0.05,0.11,0.88,0.04,0.44,-0.73,
0.596,-0.05,0.11,0.88,-0.03,0.32,-0.95,
0.599,-0.05,0.10,0.87,-0.03,0.32,-0.95,
0.601,-0.06,0.10,0.86,-0.03,0.32,-0.95,
0.602,-0.06,0.10,0.86,-0.06,0.25,-1.10,
0.604,-0.06,0.10,0.85,-0.06,0.25,-1.10,
0.606,-0.06,0.10,0.85,-0.11,0.15,-1.26,
0.606,-0.07,0.10,0.85,-0.11,0.15,-1.26,
0.608,-0.07,0.10,0.85,-0.11,0.15,-1.26,
0.611,-0.07,0.09,0.85,-0.11,0.15,-1.26,
0.612,-0.07,0.09,0.85,-0.20,0.13,-1.36,
0.614,-0.07,0.09,0.86,-0.20,0.13,-1.36,
0.616,-0.08,0.09,0.86,-0.20,0.13,-1.36,
0.617,-0.08,0.09,0.86,-0.24,0.09,-1.35,
0.618,-0.08,0.09,0.87,-0.24,0.09,-1.35,
0.62,-0.07,0.09,0.88,-0.24,0.09,-1.35,
0.621,-0.07,0.09,0.88,-0.29,0.06,-1.25,
0.624,-0.07,0.09,0.88,-0.29,0.06,-1.25,
0.627,-0.07,0.09,0.89,-0.29,0.06,-1.25,
0.627,-0.07,0.09,0.89,-0.27,0.06,-1.13,
0.629,-0.06,0.09,0.90,-0.27,0.06,-1.13,
0.631,-0.05,0.09,0.91,-0.27,0.06,-1.13,
0.632,-0.05,0.09,0.91,-0.23,0.01,-0.96,
0.634,-0.05,0.09,0.92,-0.23,0.01,-0.96,
0.636,-0.03,0.09,0.92,-0.23,0.01,-0.96,
0.637,-0.03,0.09,0.92,-0.09,0.04,-0.81,
0.639,-0.03,0.08,0.94,-0.09,0.04,-0.81,
0.641,-0.02,0.09,0.94,-0.09,0.04,-0.81,
0.641,-0.02,0.09,0.94,0.05,0.01,-0.63,
0.643,-0.01,0.09,0.95,0.05,0.01,-0.63,
0.646,-0.00,0.09,0.95,0.05,0.01,-0.63,
0.646,-0.00,0.09,0.95,0.23,-0.01,-0.44,
0.648,0.01,0.09,0.96,0.23,-0.01,-0.44,
0.651,0.01,0.09,0.97,0.23,-0.01,-0.44,
0.654,0.01,0.09,0.97,0.37,-0.00,-0.31,
0.654,0.02,0.09,0.98,0.37,-0.00,-0.31,
0.661,0.03,0.09,0.98,0.37,-0.00,-0.31,
0.662,0.03,0.09,0.98,0.52,0.01,-0.17,
0.662,0.03,0.09,0.98,0.52,0.01,-0.17,
0.663,0.04,0.09,0.98,0.52,0.01,-0.17,
0.663,0.04,0.09,0.98,0.68,0.04,-0.05,
0.663,0.04,0.09,0.99,0.68,0.04,-0.05,
0.665,0.05,0.08,0.99,0.68,0.04,-0.05,
0.665,0.05,0.08,0.99,0.77,-0.00,-0.01,
0.667,0.06,0.08,0.98,0.77,-0.00,-0.01,
0.676,0.06,0.08,0.98,0.77,-0.00,-0.01,
0.677,0.06,0.08,0.98,0.87,0.01,0.06,
0.677,0.06,0.08,0.97,0.87,0.01,0.06,
0.677,0.07,0.07,0.97,0.87,0.01,0.06,
0.677,0.07,0.07,0.97,0.97,-0.07,-0.04,
0.678,0.07,0.06,0.95,0.97,-0.07,-0.04,
0.68,0.06,0.06,0.94,0.97,-0.07,-0.04,
0.68,0.06,0.06,0.94,1.03,-0.13,-0.15,
0.682,0.07,0.05,0.94,1.03,-0.13,-0.15,
0.685,0.07,0.05,0.92,1.03,-0.13,-0.15,
0.686,0.07,0.05,0.92,1.06,-0.23,-0.36,
0.687,0.06,0.04,0.92,1.06,-0.23,-0.36,
0.69,0.06,0.04,0.91,1.06,-0.23,-0.36,
0.69,0.06,0.04,0.91,1.08,-0.36,-0.52,
0.692,0.05,0.04,0.90,1.08,-0.36,-0.52,
0.695,0.05,0.04,0.90,1.00,-0.44,-0.69,
0.695,0.04,0.04,0.89,1.00,-0.44,-0.69,
0.697,0.03,0.03,0.89,1.00,-0.44,-0.69,
0.699,0.03,0.03,0.89,0.85,-0.48,-0.87,
0.7,0.02,0.04,0.88,0.85,-0.48,-0.87,
0.702,0.01,0.04,0.88,0.85,-0.48,-0.87,
0.704,0.00,0.03,0.87,0.85,-0.48,-0.87,
0.705,0.00,0.03,0.87,0.69,-0.49,-0.96,
0.707,-0.00,0.04,0.87,0.69,-0.49,-0.96,
0.709,-0.01,0.04,0.88,0.69,-0.49,-0.96,
0.71,-0.01,0.04,0.88,0.51,-0.47,-1.03,
0.712,-0.02,0.04,0.88,0.51,-0.47,-1.03,
0.715,-0.03,0.04,0.88,0.51,-0.47,-1.03,
0.716,-0.03,0.04,0.88,0.38,-0.44,-1.05,
0.717,-0.03,0.03,0.88,0.38,-0.44,-1.05,
0.72,-0.03,0.03,0.88,0.38,-0.44,-1.05,
0.721,-0.03,0.03,0.88,0.24,-0.45,-1.02,
0.722,-0.03,0.03,0.89,0.24,-0.45,-1.02,
0.725,-0.03,0.03,0.89,0.13,-0.52,-0.95,
0.725,-0.04,0.03,0.90,0.13,-0.52,-0.95,
0.727,-0.04,0.03,0.91,0.13,-0.52,-0.95,
0.729,-0.03,0.03,0.92,0.13,-0.52,-0.95,
0.73,-0.03,0.03,0.92,0.09,-0.50,-0.85,
0.731,-0.03,0.03,0.92,0.09,-0.50,-0.85,
0.734,-0.03,0.03,0.93,0.09,-0.50,-0.85,
0.735,-0.03,0.03,0.93,0.10,-0.50,-0.65,
0.738,-0.02,0.03,0.94,0.10,-0.50,-0.65,
0.739,-0.01,0.04,0.95,0.10,-0.50,-0.65,
0.74,-0.01,0.04,0.95,0.17,-0.49,-0.48,
0.742,-0.00,0.04,0.96,0.17,-0.49,-0.48,
0.745,0.01,0.05,0.96,0.17,-0.49,-0.48,
0.745,0.01,0.05,0.96,0.29,-0.44,-0.31,
0.746,0.02,0.05,0.96,0.29,-0.44,-0.31,
0.749,0.02,0.05,0.96,0.45,-0.37,-0.18,
0.75,0.03,0.05,0.96,0.45,-0.37,-0.18,
0.753,0.03,0.05,0.96,0.45,-0.37,-0.18,
0.755,0.04,0.06,0.95,0.45,-0.37,-0.18,
0.755,0.04,0.06,0.95,0.62,-0.31,-0.19,
0.756,0.05,0.06,0.94,0.62,-0.31,-0.19,
0.759,0.05,0.07,0.93,0.62,-0.31,-0.19,
0.76,0.05,0.07,0.93,0.74,-0.24,-0.26,
0.761,0.06,0.07,0.92,0.74,-0.24,-0.26,
0.764,0.07,0.07,0.91,0.74,-0.24,-0.26,
0.764,0.07,0.07,0.91,0.89,-0.16,-0.44,
0.767,0.07,0.08,0.90,0.89,-0.16,-0.44,
0.776,0.08,0.08,0.89,0.89,-0.16,-0.44,
0.777,0.08,0.08,0.89,1.03,-0.08,-0.62,
0.777,0.09,0.08,0.87,1.03,-0.08,-0.62,
0.778,0.09,0.09,0.86,1.03,-0.08,-0.62,
0.778,0.09,0.09,0.86,1.11,-0.02,-0.85,
0.778,0.09,0.09,0.86,1.11,-0.02,-0.85,
0.779,0.09,0.09,0.86,1.11,-0.02,-0.85,
0.779,0.09,0.09,0.86,1.23,0.04,-1.09,
0.781,0.09,0.09,0.85,1.23,0.04,-1.09,
0.784,0.10,0.09,0.84,1.23,0.04,-1.09,
0.784,0.10,0.09,0.84,1.26,0.08,-1.16,
0.789,0.09,0.09,0.85,1.26,0.08,-1.16,
0.79,0.09,0.09,0.85,1.26,0.08,-1.16,
0.79,0.09,0.09,0.85,1.30,0.09,-1.28,
0.791,0.09,0.08,0.85,1.30,0.09,-1.28,
0.794,0.09,0.08,0.85,1.30,0.09,-1.28,
0.794,0.09,0.08,0.85,1.29,0.08,-1.25,
0.796,0.09,0.07,0.85,1.29,0.08,-1.25,
0.798,0.09,0.07,0.85,1.24,0.00,-1.23,
0.799,0.08,0.07,0.85,1.24,0.00,-1.23,
0.801,0.07,0.06,0.85,1.24,0.00,-1.23,
0.803,0.06,0.05,0.86,1.24,0.00,-1.23,
0.804,0.06,0.05,0.86,1.15,-0.09,-1.20,
0.806,0.06,0.05,0.86,1.15,-0.09,-1.20,
0.809,0.06,0.05,0.86,0.98,-0.21,-1.21,
0.809,0.05,0.04,0.85,0.98,-0.21,-1.21,
0.811,0.04,0.03,0.85,0.98,-0.21,-1.21,
0.813,0.04,0.02,0.85,0.98,-0.21,-1.21,
0.814,0.04,0.02,0.85,0.84,-0.33,-1.18,
0.818,0.03,0.02,0.85,0.84,-0.33,-1.18,
0.819,0.02,0.02,0.86,0.84,-0.33,-1.18,
0.819,0.02,0.02,0.86,0.69,-0.48,-1.17,
0.823,0.02,0.01,0.87,0.69,-0.48,-1.17,
0.824,0.01,0.01,0.87,0.69,-0.48,-1.17,
0.824,0.01,0.01,0.87,0.55,-0.55,-1.18,
0.826,0.01,0.01,0.87,0.55,-0.55,-1.18,
0.829,0.01,0.01,0.87,0.45,-0.62,-1.04,
0.83,0.02,0.01,0.88,0.45,-0.62,-1.04,
0.831,0.02,0.02,0.89,0.45,-0.62,-1.04,
0.834,0.03,0.02,0.91,0.45,-0.62,-1.04,
0.834,0.03,0.02,0.91,0.44,-0.60,-0.96,
0.839,0.04,0.02,0.91,0.44,-0.60,-0.96,
0.839,0.05,0.02,0.93,0.44,-0.60,-0.96,
0.839,0.05,0.02,0.93,0.54,-0.54,-0.74,
0.841,0.06,0.02,0.94,0.54,-0.54,-0.74,
0.844,0.07,0.03,0.96,0.54,-0.54,-0.74,
0.844,0.07,0.03,0.96,0.68,-0.46,-0.52,
0.845,0.09,0.03,0.96,0.68,-0.46,-0.52,
0.849,0.09,0.03,0.96,0.87,-0.39,-0.24,
0.849,0.09,0.04,0.97,0.87,-0.39,-0.24,
0.851,0.11,0.04,0.98,0.87,-0.39,-0.24,
0.855,0.12,0.04,0.98,0.87,-0.39,-0.24,
0.855,0.12,0.04,0.98,1.07,-0.33,-0.10,
0.855,0.13,0.05,0.98,1.07,-0.33,-0.10,
0.858,0.13,0.05,0.98,1.32,-0.27,0.03,
0.859,0.15,0.04,0.98,1.32,-0.27,0.03,
0.862,0.15,0.04,0.98,1.32,-0.27,0.03,
0.864,0.16,0.04,0.98,1.32,-0.27,0.03,
0.864,0.16,0.04,0.98,1.50,-0.22,0.06,
0.866,0.17,0.03,0.97,1.50,-0.22,0.06,
0.869,0.18,0.03,0.96,1.50,-0.22,0.06,
0.869,0.18,0.03,0.96,1.62,-0.29,0.05,
0.874,0.18,0.03,0.95,1.62,-0.29,0.05,
0.875,0.18,0.03,0.95,1.80,-0.31,-0.10,
0.875,0.19,0.03,0.94,1.80,-0.31,-0.10,
0.875,0.20,0.02,0.93,1.80,-0.31,-0.10,
0.878,0.20,0.02,0.92,1.80,-0.31,-0.10,
0.878,0.20,0.02,0.92,1.89,-0.36,-0.26,
0.881,0.20,0.02,0.91,1.89,-0.36,-0.26,
0.883,0.20,0.02,0.91,1.89,-0.36,-0.26,
0.883,0.20,0.02,0.91,2.02,-0.42,-0.48,
0.886,0.21,0.02,0.89,2.02,-0.42,-0.48,
0.888,0.21,0.01,0.89,2.02,-0.42,-0.48,
0.889,0.21,0.01,0.89,2.01,-0.46,-0.62,
0.89,0.21,0.01,0.89,2.01,-0.46,-0.62,
0.893,0.21,0.01,0.89,2.08,-0.48,-0.78,
0.894,0.20,0.01,0.88,2.08,-0.48,-0.78,
0.896,0.21,0.01,0.89,2.08,-0.48,-0.78,
0.898,0.21,0.01,0.89,2.06,-0.52,-0.84,
0.899,0.21,0.00,0.89,2.06,-0.52,-0.84,
0.901,0.21,0.00,0.90,2.06,-0.52,-0.84,
0.903,0.21,0.00,0.91,2.06,-0.52,-0.84,
0.903,0.21,0.00,0.91,2.07,-0.54,-0.77,
0.906,0.22,0.00,0.92,2.07,-0.54,-0.77,
0.909,0.21,0.01,0.93,2.07,-0.54,-0.77,
0.909,0.21,0.01,0.93,2.10,-0.55,-0.66,
0.91,0.22,0.00,0.94,2.10,-0.55,-0.66,
0.913,0.22,0.01,0.95,2.10,-0.55,-0.66,
0.913,0.22,0.01,0.95,2.10,-0.50,-0.48,
0.916,0.22,0.00,0.96,2.10,-0.50,-0.48,
0.918,0.22,0.00,0.97,2.10,-0.50,-0.48,
0.919,0.22,0.00,0.97,2.13,-0.48,-0.27,
0.922,0.21,0.00,0.98,2.13,-0.48,-0.27,
0.924,0.21,0.00,0.98,2.10,-0.48,-0.03,
0.924,0.21,-0.00,0.99,2.10,-0.48,-0.03,
0.928,0.21,-0.00,1.00,2.10,-0.48,-0.03,
0.929,0.21,-0.00,1.01,2.10,-0.48,-0.03,
0.929,0.21,-0.00,1.01,2.05,-0.49,0.15,
0.931,0.21,-0.01,1.01,2.05,-0.49,0.15,
0.934,0.21,-0.01,1.01,2.05,-0.49,0.15,
0.934,0.21,-0.01,1.01,2.01,-0.48,0.29,
0.936,0.21,-0.01,1.01,2.01,-0.48,0.29,
0.938,0.21,-0.02,1.00,2.01,-0.48,0.29,
0.939,0.21,-0.02,1.00,1.97,-0.54,0.36,
0.94,0.20,-0.02,1.00,1.97,-0.54,0.36,
0.943,0.20,-0.02,1.00,1.97,-0.54,0.36,
0.944,0.20,-0.02,1.00,1.95,-0.57,0.33,
0.946,0.21,-0.02,0.99,1.95,-0.57,0.33,
0.947,0.21,-0.02,0.99,1.91,-0.59,0.28,
0.948,0.20,-0.02,0.99,1.91,-0.59,0.28,
0.949,0.20,-0.02,0.98,1.91,-0.59,0.28,
0.956,0.19,-0.02,0.97,1.91,-0.59,0.28,
0.957,0.19,-0.02,0.97,1.89,-0.57,0.15,
0.957,0.20,-0.02,0.96,1.89,-0.57,0.15,
0.958,0.20,-0.02,0.96,1.89,-0.57,0.15,
0.958,0.20,-0.02,0.96,1.80,-0.58,0.03,
0.959,0.19,-0.03,0.95,1.80,-0.58,0.03,
0.962,0.19,-0.03,0.95,1.80,-0.58,0.03,
0.963,0.19,-0.03,0.95,1.82,-0.59,-0.11,
0.964,0.19,-0.03,0.95,1.82,-0.59,-0.11,
0.967,0.19,-0.03,0.94,1.82,-0.59,-0.11,
0.967,0.19,-0.03,0.94,1.77,-0.61,-0.25,
0.969,0.20,-0.04,0.93,1.77,-0.61,-0.25,
0.972,0.20,-0.04,0.93,1.77,-0.61,-0.25,
0.973,0.20,-0.04,0.93,1.75,-0.63,-0.27,
0.974,0.20,-0.04,0.93,1.75,-0.63,-0.27,
0.977,0.20,-0.04,0.93,1.77,-0.68,-0.44,
0.978,0.21,-0.04,0.93,1.77,-0.68,-0.44,
0.979,0.22,-0.04,0.92,1.77,-0.68,-0.44,
0.983,0.22,-0.04,0.92,1.85,-0.68,-0.43,
0.984,0.22,-0.03,0.92,1.85,-0.68,-0.43,
0.985,0.23,-0.03,0.92,1.85,-0.68,-0.43,
0.995,0.24,-0.03,0.92,1.85,-0.68,-0.43,
0.996,0.24,-0.03,0.92,1.95,-0.64,-0.49,
0.996,0.24,-0.03,0.92,1.95,-0.64,-0.49,
0.996,0.25,-0.03,0.92,1.95,-0.64,-0.49,
0.997,0.25,-0.03,0.92,2.08,-0.60,-0.50,
0.997,0.25,-0.03,0.93,2.08,-0.60,-0.50,
0.998,0.25,-0.03,0.93,2.17,-0.54,-0.47,
0.998,0.26,-0.02,0.93,2.17,-0.54,-0.47,
0.999,0.26,-0.02,0.93,2.17,-0.54,-0.47,
1.002,0.27,-0.02,0.93,2.17,-0.54,-0.47,
1.002,0.27,-0.02,0.93,2.23,-0.52,-0.43,
1.01,0.28,-0.02,0.94,2.23,-0.52,-0.43,
1.011,0.28,-0.02,0.93,2.23,-0.52,-0.43,
1.011,0.28,-0.02,0.93,2.32,-0.46,-0.40,
1.011,0.28,-0.01,0.93,2.32,-0.46,-0.40,
1.012,0.29,-0.00,0.93,2.32,-0.46,-0.40,
1.012,0.29,-0.00,0.93,2.42,-0.43,-0.33,
1.014,0.29,-0.01,0.93,2.42,-0.43,-0.33,
1.016,0.29,-0.01,0.93,2.42,-0.43,-0.33,
1.017,0.29,-0.01,0.93,2.44,-0.33,-0.38,
1.018,0.29,-0.00,0.93,2.44,-0.33,-0.38,
1.021,0.29,-0.00,0.93,2.46,-0.30,-0.40,
1.022,0.29,-0.00,0.93,2.46,-0.30,-0.40,
1.023,0.29,-0.00,0.93,2.46,-0.30,-0.40,
1.026,0.29,-0.00,0.93,2.46,-0.30,-0.40,
1.027,0.29,-0.00,0.93,2.44,-0.26,-0.40,
1.028,0.29,-0.01,0.93,2.44,-0.26,-0.40,
1.031,0.29,-0.01,0.93,2.44,-0.26,-0.40,
1.031,0.29,-0.01,0.93,2.42,-0.25,-0.40,
1.033,0.29,-0.01,0.94,2.42,-0.25,-0.40,
1.038,0.28,-0.02,0.94,2.42,-0.25,-0.40,
1.039,0.28,-0.02,0.94,2.41,-0.29,-0.42,
1.039,0.28,-0.02,0.93,2.41,-0.29,-0.42,
1.041,0.28,-0.03,0.93,2.41,-0.29,-0.42,
1.042,0.28,-0.03,0.93,2.35,-0.36,-0.33,
1.044,0.28,-0.03,0.93,2.35,-0.36,-0.33,
1.047,0.28,-0.03,0.93,2.31,-0.45,-0.38,
1.047,0.28,-0.04,0.93,2.31,-0.45,-0.38,
1.049,0.28,-0.05,0.93,2.31,-0.45,-0.38,
1.051,0.29,-0.06,0.94,2.31,-0.45,-0.38,
1.051,0.29,-0.06,0.94,2.22,-0.52,-0.38,
1.055,0.29,-0.06,0.95,2.22,-0.52,-0.38,
1.056,0.29,-0.06,0.95,2.22,-0.52,-0.38,
1.057,0.29,-0.06,0.95,2.28,-0.65,-0.33,
1.059,0.29,-0.06,0.95,2.28,-0.65,-0.33,
1.061,0.30,-0.06,0.96,2.28,-0.65,-0.33,
1.062,0.30,-0.06,0.96,2.28,-0.66,-0.23,
1.063,0.30,-0.06,0.97,2.28,-0.66,-0.23,
1.066,0.31,-0.06,0.98,2.28,-0.66,-0.23,
1.067,0.31,-0.06,0.98,2.33,-0.68,-0.15,
1.068,0.31,-0.06,0.99,2.33,-0.68,-0.15,
1.071,0.31,-0.06,0.99,2.41,-0.65,0.03,
1.072,0.32,-0.06,0.99,2.41,-0.65,0.03,
1.073,0.32,-0.06,1.00,2.41,-0.65,0.03,
1.076,0.33,-0.06,1.01,2.41,-0.65,0.03,
1.077,0.33,-0.06,1.01,2.49,-0.65,0.20,
1.079,0.33,-0.06,1.03,2.49,-0.65,0.20,
1.081,0.34,-0.06,1.04,2.49,-0.65,0.20,
1.082,0.34,-0.06,1.04,2.56,-0.61,0.38,
1.083,0.33,-0.06,1.05,2.56,-0.61,0.38,
1.086,0.34,-0.05,1.06,2.56,-0.61,0.38,
1.086,0.34,-0.05,1.06,2.61,-0.59,0.62,
1.097,0.35,-0.05,1.06,2.61,-0.59,0.62,
1.098,0.35,-0.05,1.07,2.61,-0.59,0.62,
1.099,0.35,-0.05,1.07,2.61,-0.57,0.81,
1.1,0.35,-0.06,1.08,2.61,-0.57,0.81,
1.101,0.35,-0.06,1.08,2.69,-0.52,0.97,
1.101,0.35,-0.05,1.09,2.69,-0.52,0.97,
1.102,0.35,-0.05,1.09,2.69,-0.52,0.97,
1.103,0.35,-0.06,1.10,2.69,-0.52,0.97,
1.103,0.35,-0.06,1.10,2.66,-0.51,1.10,
1.104,0.35,-0.06,1.11,2.66,-0.51,1.10,
1.113,0.35,-0.06,1.11,2.66,-0.49,1.24,
1.114,0.35,-0.06,1.12,2.66,-0.49,1.24,
1.116,0.36,-0.06,1.12,2.66,-0.49,1.24,
1.116,0.36,-0.06,1.13,2.66,-0.49,1.24,
1.117,0.36,-0.06,1.13,2.64,-0.53,1.38,
1.117,0.36,-0.06,1.13,2.64,-0.53,1.38,
1.118,0.36,-0.07,1.13,2.64,-0.53,1.38,
1.118,0.36,-0.07,1.13,2.66,-0.57,1.50,
1.119,0.35,-0.07,1.14,2.66,-0.57,1.50,
1.125,0.35,-0.07,1.14,2.63,-0.56,1.60,
1.126,0.35,-0.07,1.15,2.63,-0.56,1.60,
1.126,0.35,-0.07,1.14,2.63,-0.56,1.60,
1.126,0.35,-0.08,1.15,2.63,-0.56,1.60,
1.127,0.35,-0.08,1.15,2.54,-0.59,1.68,
1.127,0.34,-0.08,1.15,2.54,-0.59,1.68,
1.13,0.35,-0.07,1.15,2.54,-0.59,1.68,
1.131,0.35,-0.07,1.15,2.49,-0.62,1.68,
1.133,0.34,-0.08,1.14,2.49,-0.62,1.68,
1.135,0.34,-0.08,1.14,2.41,-0.62,1.72,
1.135,0.34,-0.08,1.15,2.41,-0.62,1.72,
1.138,0.34,-0.08,1.14,2.41,-0.62,1.72,
1.14,0.33,-0.07,1.14,2.41,-0.62,1.72,
1.14,0.33,-0.07,1.14,2.32,-0.63,1.69,
1.143,0.32,-0.07,1.15,2.32,-0.63,1.69,
1.145,0.32,-0.07,1.15,2.25,-0.61,1.65,
1.148,0.32,-0.07,1.15,2.25,-0.61,1.65,
1.149,0.33,-0.06,1.15,2.25,-0.61,1.65,
1.15,0.33,-0.06,1.15,2.13,-0.51,1.72,
1.15,0.33,-0.06,1.16,2.13,-0.51,1.72,
1.152,0.33,-0.06,1.16,2.13,-0.51,1.72,
1.156,0.33,-0.05,1.16,2.13,-0.51,1.72,
1.156,0.33,-0.05,1.16,2.14,-0.46,1.76,
1.158,0.34,-0.05,1.16,2.14,-0.46,1.76,
1.16,0.34,-0.04,1.17,2.14,-0.46,1.76,
1.16,0.34,-0.04,1.17,2.16,-0.39,1.83,
1.163,0.35,-0.04,1.18,2.16,-0.39,1.83,
1.166,0.35,-0.03,1.18,2.16,-0.39,1.83,
1.166,0.35,-0.03,1.18,2.24,-0.29,1.89,
1.168,0.36,-0.03,1.18,2.24,-0.29,1.89,
1.171,0.36,-0.03,1.19,2.24,-0.29,1.89,
1.171,0.36,-0.03,1.19,2.32,-0.15,1.98,
1.173,0.36,-0.02,1.19,2.32,-0.15,1.98,
1.175,0.36,-0.01,1.19,2.32,-0.15,1.98,
1.175,0.36,-0.01,1.19,2.40,-0.09,2.05,
1.179,0.36,-0.01,1.19,2.40,-0.09,2.05,
1.18,0.36,-0.01,1.19,2.37,0.06,2.10,
1.18,0.35,-0.00,1.19,2.37,0.06,2.10,
1.183,0.35,0.01,1.19,2.37,0.06,2.10,
1.185,0.34,0.01,1.19,2.37,0.06,2.10,
1.186,0.34,0.01,1.19,2.32,0.15,2.08,
1.187,0.33,0.02,1.19,2.32,0.15,2.08,
1.194,0.33,0.03,1.19,2.32,0.15,2.08,
1.195,0.33,0.03,1.19,2.20,0.28,2.10,
1.195,0.32,0.03,1.18,2.20,0.28,2.10,
1.195,0.32,0.03,1.18,2.09,0.41,2.06,
1.196,0.32,0.04,1.18,2.09,0.41,2.06,
1.2,0.31,0.04,1.17,2.09,0.41,2.06,
1.2,0.31,0.05,1.17,2.09,0.41,2.06,
1.2,0.31,0.05,1.17,1.97,0.51,1.97,
1.202,0.30,0.05,1.16,1.97,0.51,1.97,
1.205,0.30,0.05,1.15,1.97,0.51,1.97,
1.205,0.30,0.05,1.15,1.86,0.61,1.86,
1.208,0.30,0.06,1.15,1.86,0.61,1.86,
1.21,0.30,0.06,1.15,1.86,0.61,1.86,
1.21,0.30,0.06,1.15,1.78,0.67,1.73,
1.212,0.29,0.06,1.14,1.78,0.67,1.73,
1.215,0.29,0.06,1.14,1.71,0.72,1.64,
1.215,0.29,0.06,1.13,1.71,0.72,1.64,
1.217,0.29,0.06,1.13,1.71,0.72,1.64,
1.22,0.29,0.06,1.13,1.66,0.75,1.54,
1.22,0.28,0.07,1.13,1.66,0.75,1.54,
1.222,0.28,0.07,1.12,1.66,0.75,1.54,
1.225,0.27,0.07,1.12,1.66,0.75,1.54,
1.225,0.27,0.07,1.12,1.60,0.79,1.44,
1.227,0.27,0.07,1.12,1.60,0.79,1.44,
1.23,0.26,0.08,1.12,1.60,0.79,1.44,
1.231,0.26,0.08,1.12,1.49,0.82,1.36,
1.233,0.26,0.08,1.12,1.49,0.82,1.36,
1.235,0.26,0.08,1.12,1.42,0.87,1.35,
1.236,0.26,0.08,1.11,1.42,0.87,1.35,
1.237,0.26,0.08,1.11,1.42,0.87,1.35,
1.24,0.26,0.08,1.11,1.37,0.93,1.29,
1.24,0.26,0.08,1.11,1.37,0.93,1.29,
1.242,0.26,0.08,1.10,1.37,0.93,1.29,
1.245,0.26,0.08,1.10,1.32,0.93,1.22,
1.245,0.25,0.09,1.10,1.32,0.93,1.22,
1.248,0.25,0.09,1.09,1.32,0.93,1.22,
1.25,0.24,0.09,1.09,1.32,0.93,1.22,
1.25,0.24,0.09,1.09,1.30,0.94,1.14,
1.252,0.24,0.09,1.08,1.30,0.94,1.14,
1.257,0.23,0.09,1.08,1.30,0.94,1.14,
1.257,0.23,0.09,1.08,1.20,0.95,1.04,
1.258,0.23,0.09,1.08,1.20,0.95,1.04,
1.259,0.22,0.09,1.07,1.20,0.95,1.04,
1.26,0.22,0.09,1.07,1.13,0.95,0.95,
1.263,0.22,0.08,1.06,1.13,0.95,0.95,
1.265,0.21,0.08,1.06,1.13,0.95,0.95,
1.265,0.21,0.08,1.06,1.03,0.93,0.87,
1.267,0.21,0.08,1.05,1.03,0.93,0.87,
1.27,0.21,0.08,1.05,0.93,0.90,0.74,
1.27,0.20,0.08,1.05,0.93,0.90,0.74,
1.273,0.19,0.08,1.05,0.93,0.90,0.74,
1.275,0.19,0.08,1.05,0.83,0.85,0.64,
1.275,0.18,0.08,1.05,0.83,0.85,0.64,
1.276,0.18,0.09,1.04,0.83,0.85,0.64,
1.28,0.18,0.08,1.05,0.83,0.85,0.64,
1.28,0.18,0.08,1.05,0.67,0.84,0.61,
1.282,0.17,0.08,1.06,0.67,0.84,0.61,
1.285,0.17,0.08,1.06,0.67,0.84,0.61,
1.285,0.17,0.08,1.06,0.58,0.89,0.56,
1.287,0.16,0.08,1.06,0.58,0.89,0.56,
1.291,0.16,0.09,1.07,0.58,0.89,0.56,
1.292,0.16,0.09,1.07,0.49,0.87,0.69,
1.292,0.15,0.08,1.08,0.49,0.87,0.69,
1.294,0.15,0.08,1.08,0.41,0.88,0.78,
1.295,0.15,0.08,1.08,0.41,0.88,0.78,
1.297,0.15,0.07,1.09,0.41,0.88,0.78,
1.3,0.15,0.06,1.09,0.41,0.88,0.78,
1.3,0.15,0.06,1.09,0.34,0.81,0.89,
1.302,0.16,0.06,1.09,0.34,0.81,0.89,
1.305,0.16,0.05,1.09,0.34,0.81,0.89,
1.305,0.16,0.05,1.09,0.32,0.67,1.00,
1.314,0.16,0.05,1.09,0.32,0.67,1.00,
1.315,0.16,0.04,1.09,0.32,0.67,1.00,
1.315,0.16,0.04,1.09,0.36,0.56,1.03,
1.318,0.16,0.04,1.09,0.36,0.56,1.03,
1.318,0.17,0.03,1.09,0.36,0.56,1.03,
1.318,0.17,0.03,1.09,0.39,0.44,1.02,
1.319,0.17,0.02,1.08,0.39,0.44,1.02,
1.319,0.17,0.02,1.08,0.41,0.31,0.99,
1.319,0.16,0.02,1.07,0.41,0.31,0.99,
1.321,0.16,0.01,1.06,0.41,0.31,0.99,
1.326,0.16,0.00,1.06,0.41,0.31,0.99,
1.327,0.16,0.00,1.06,0.39,0.18,0.85,
1.327,0.16,-0.00,1.05,0.39,0.18,0.85,
1.328,0.16,-0.01,1.03,0.39,0.18,0.85,
1.328,0.16,-0.01,1.03,0.35,0.04,0.71,
1.33,0.16,-0.01,1.02,0.35,0.04,0.71,
1.333,0.15,-0.02,1.01,0.35,0.04,0.71,
1.334,0.15,-0.02,1.01,0.34,-0.08,0.53,
1.335,0.15,-0.02,1.00,0.34,-0.08,0.53,
1.339,0.15,-0.02,0.99,0.34,-0.08,0.53,
1.339,0.15,-0.02,0.99,0.28,-0.19,0.30,
1.34,0.15,-0.03,0.97,0.28,-0.19,0.30,
1.343,0.15,-0.03,0.97,0.24,-0.27,0.05,
1.343,0.14,-0.03,0.96,0.24,-0.27,0.05,
1.345,0.13,-0.03,0.95,0.24,-0.27,0.05,
1.348,0.13,-0.04,0.93,0.24,-0.27,0.05,
1.348,0.13,-0.04,0.93,0.16,-0.38,-0.19,
1.35,0.12,-0.03,0.92,0.16,-0.38,-0.19,
1.353,0.12,-0.03,0.90,0.16,-0.38,-0.19,
1.353,0.12,-0.03,0.90,0.04,-0.43,-0.46,
1.357,0.11,-0.04,0.90,0.04,-0.43,-0.46,
1.359,0.11,-0.04,0.89,0.04,-0.43,-0.46,
1.36,0.11,-0.04,0.89,-0.05,-0.44,-0.72,
1.361,0.10,-0.04,0.87,-0.05,-0.44,-0.72,
1.363,0.10,-0.04,0.86,-0.05,-0.44,-0.72,
1.363,0.10,-0.04,0.86,-0.16,-0.46,-0.94,
1.365,0.09,-0.04,0.86,-0.16,-0.46,-0.94,
1.368,0.09,-0.04,0.86,-0.29,-0.49,-1.15,
1.368,0.09,-0.03,0.86,-0.29,-0.49,-1.15,
1.37,0.08,-0.03,0.85,-0.29,-0.49,-1.15,
1.373,0.08,-0.03,0.85,-0.29,-0.49,-1.15,
1.373,0.08,-0.03,0.85,-0.39,-0.49,-1.24,
1.375,0.08,-0.03,0.85,-0.39,-0.49,-1.24,
1.378,0.08,-0.02,0.85,-0.39,-0.49,-1.24,
1.378,0.08,-0.02,0.85,-0.50,-0.45,-1.31,
1.38,0.08,-0.02,0.86,-0.50,-0.45,-1.31,
1.383,0.08,-0.03,0.86,-0.50,-0.45,-1.31,
1.383,0.08,-0.03,0.86,-0.51,-0.36,-1.30,
1.385,0.09,-0.03,0.87,-0.51,-0.36,-1.30,
1.39,0.09,-0.02,0.89,-0.51,-0.36,-1.30,
1.391,0.09,-0.02,0.89,-0.49,-0.37,-1.21,
1.391,0.09,-0.03,0.89,-0.49,-0.37,-1.21,
1.393,0.09,-0.03,0.89,-0.43,-0.36,-1.01,
1.393,0.09,-0.03,0.90,-0.43,-0.36,-1.01,
1.395,0.10,-0.03,0.91,-0.43,-0.36,-1.01,
1.398,0.10,-0.04,0.91,-0.43,-0.36,-1.01,
1.398,0.10,-0.04,0.91,-0.40,-0.42,-0.83,
1.4,0.10,-0.04,0.91,-0.40,-0.42,-0.83,
1.402,0.10,-0.05,0.92,-0.40,-0.42,-0.83,
1.403,0.10,-0.05,0.92,-0.35,-0.48,-0.74,
1.406,0.11,-0.05,0.92,-0.35,-0.48,-0.74,
1.407,0.11,-0.06,0.92,-0.35,-0.48,-0.74,
1.41,0.11,-0.06,0.92,-0.34,-0.57,-0.68,
1.41,0.11,-0.06,0.92,-0.34,-0.57,-0.68,
1.413,0.11,-0.06,0.92,-0.34,-0.57,-0.68,
1.414,0.11,-0.06,0.92,-0.32,-0.67,-0.63,
1.414,0.11,-0.06,0.92,-0.32,-0.67,-0.63,
1.418,0.11,-0.06,0.92,-0.30,-0.71,-0.59,
1.419,0.11,-0.06,0.93,-0.30,-0.71,-0.59,
1.419,0.11,-0.06,0.92,-0.30,-0.71,-0.59,
1.426,0.11,-0.06,0.92,-0.30,-0.71,-0.59,
1.427,0.11,-0.06,0.92,-0.32,-0.74,-0.58,
1.427,0.11,-0.07,0.92,-0.32,-0.74,-0.58,
1.428,0.10,-0.06,0.91,-0.32,-0.74,-0.58,
1.428,0.10,-0.06,0.91,-0.33,-0.73,-0.63,
1.43,0.11,-0.06,0.91,-0.33,-0.73,-0.63,
1.432,0.11,-0.06,0.91,-0.33,-0.73,-0.63,
1.432,0.11,-0.06,0.91,-0.37,-0.75,-0.64,
1.434,0.11,-0.06,0.91,-0.37,-0.75,-0.64,
1.437,0.11,-0.06,0.90,-0.37,-0.75,-0.64,
1.437,0.11,-0.06,0.90,-0.33,-0.72,-0.67,
1.439,0.11,-0.06,0.90,-0.33,-0.72,-0.67,
1.442,0.11,-0.06,0.90,-0.32,-0.72,-0.73,
1.442,0.11,-0.06,0.89,-0.32,-0.72,-0.73,
1.444,0.10,-0.06,0.90,-0.32,-0.72,-0.73,
1.447,0.10,-0.06,0.89,-0.32,-0.72,-0.73,
1.447,0.10,-0.06,0.89,-0.34,-0.71,-0.82,
1.449,0.10,-0.06,0.89,-0.34,-0.71,-0.82,
1.452,0.09,-0.06,0.88,-0.34,-0.71,-0.82,
1.452,0.09,-0.06,0.88,-0.46,-0.69,-0.86,
1.454,0.09,-0.06,0.88,-0.46,-0.69,-0.86,
1.457,0.08,-0.05,0.88,-0.46,-0.69,-0.86,
1.458,0.08,-0.05,0.88,-0.52,-0.69,-0.93,
1.459,0.08,-0.05,0.88,-0.52,-0.69,-0.93,
1.462,0.07,-0.05,0.88,-0.52,-0.69,-0.93,
1.462,0.07,-0.05,0.88,-0.59,-0.63,-0.96,
1.464,0.07,-0.05,0.88,-0.59,-0.63,-0.96,
1.467,0.07,-0.05,0.88,-0.69,-0.59,-0.98,
1.467,0.06,-0.04,0.88,-0.69,-0.59,-0.98,
1.469,0.05,-0.04,0.87,-0.69,-0.59,-0.98,
1.473,0.05,-0.03,0.86,-0.69,-0.59,-0.98,
1.473,0.05,-0.03,0.86,-0.82,-0.52,-0.99,
1.474,0.04,-0.03,0.87,-0.82,-0.52,-0.99,
1.479,0.04,-0.02,0.87,-0.82,-0.52,-0.99,
1.48,0.04,-0.02,0.87,-0.94,-0.47,-1.09,
1.48,0.04,-0.02,0.86,-0.94,-0.47,-1.09,
1.482,0.03,-0.02,0.86,-0.94,-0.47,-1.09,
1.482,0.03,-0.02,0.86,-1.05,-0.36,-1.05,
1.485,0.03,-0.02,0.87,-1.05,-0.36,-1.05,
1.487,0.03,-0.02,0.87,-1.05,-0.36,-1.05,
1.488,0.03,-0.02,0.87,-1.11,-0.35,-1.12,
1.49,0.03,-0.02,0.87,-1.11,-0.35,-1.12,
1.492,0.03,-0.02,0.87,-1.17,-0.34,-1.08,
1.492,0.03,-0.02,0.86,-1.17,-0.34,-1.08,
1.495,0.03,-0.02,0.87,-1.17,-0.34,-1.08,
1.497,0.03,-0.03,0.86,-1.17,-0.34,-1.08,
1.498,0.03,-0.03,0.86,-1.22,-0.34,-1.07,
1.503,0.03,-0.03,0.86,-1.22,-0.34,-1.07,
1.503,0.03,-0.03,0.87,-1.22,-0.34,-1.07,
1.503,0.03,-0.03,0.87,-1.21,-0.37,-1.10,
1.504,0.04,-0.03,0.87,-1.21,-0.37,-1.10,
1.508,0.04,-0.03,0.87,-1.21,-0.37,-1.10,
1.508,0.04,-0.03,0.87,-1.16,-0.38,-1.08,
1.51,0.04,-0.04,0.87,-1.16,-0.38,-1.08,
1.513,0.05,-0.04,0.87,-1.16,-0.38,-1.08,
1.513,0.05,-0.04,0.87,-1.09,-0.40,-1.06,
1.514,0.05,-0.04,0.88,-1.09,-0.40,-1.06,
1.517,0.05,-0.04,0.88,-1.06,-0.47,-1.04,
1.517,0.05,-0.04,0.88,-1.06,-0.47,-1.04,
1.519,0.05,-0.05,0.88,-1.06,-0.47,-1.04,
1.522,0.05,-0.04,0.89,-1.06,-0.47,-1.04,
1.522,0.05,-0.04,0.89,-1.04,-0.52,-0.95,
1.528,0.04,-0.04,0.90,-1.04,-0.52,-0.95,
1.528,0.03,-0.04,0.90,-1.04,-0.52,-0.95,
1.528,0.03,-0.04,0.90,-1.06,-0.55,-0.87,
1.529,0.03,-0.04,0.91,-1.06,-0.55,-0.87,
1.532,0.02,-0.04,0.93,-1.06,-0.55,-0.87,
1.532,0.02,-0.04,0.93,-1.17,-0.49,-0.70,
1.534,-0.00,-0.05,0.93,-1.17,-0.49,-0.70,
1.537,-0.01,-0.05,0.94,-1.17,-0.49,-0.70,
1.537,-0.01,-0.05,0.94,-1.33,-0.50,-0.52,
1.54,-0.02,-0.05,0.95,-1.33,-0.50,-0.52,
1.541,-0.02,-0.05,0.95,-1.60,-0.53,-0.36,
1.542,-0.04,-0.06,0.95,-1.60,-0.53,-0.36,
1.544,-0.05,-0.07,0.95,-1.60,-0.53,-0.36,
1.547,-0.07,-0.08,0.95,-1.60,-0.53,-0.36,
1.547,-0.07,-0.08,0.95,-1.83,-0.61,-0.22,
1.55,-0.08,-0.08,0.95,-1.83,-0.61,-0.22,
1.552,-0.10,-0.09,0.95,-1.83,-0.61,-0.22,
1.552,-0.10,-0.09,0.95,-2.14,-0.74,-0.20,
1.554,-0.11,-0.10,0.94,-2.14,-0.74,-0.20,
1.558,-0.11,-0.10,0.94,-2.42,-0.87,-0.23,
1.559,-0.13,-0.10,0.92,-2.42,-0.87,-0.23,
1.559,-0.15,-0.11,0.92,-2.42,-0.87,-0.23,
1.562,-0.17,-0.11,0.90,-2.42,-0.87,-0.23,
1.562,-0.17,-0.11,0.90,-2.72,-1.00,-0.42,
1.564,-0.18,-0.11,0.89,-2.72,-1.00,-0.42,
1.566,-0.18,-0.11,0.89,-3.03,-1.07,-0.62,
1.567,-0.20,-0.11,0.88,-3.03,-1.07,-0.62,
1.569,-0.21,-0.10,0.87,-3.03,-1.07,-0.62,
1.572,-0.22,-0.11,0.86,-3.03,-1.07,-0.62,
1.572,-0.22,-0.11,0.86,-3.39,-1.09,-0.84,
1.574,-0.23,-0.10,0.86,-3.39,-1.09,-0.84,
1.577,-0.24,-0.10,0.85,-3.39,-1.09,-0.84,
1.577,-0.24,-0.10,0.85,-3.61,-1.04,-1.04,
1.579,-0.23,-0.10,0.84,-3.61,-1.04,-1.04,
1.582,-0.23,-0.09,0.85,-3.61,-1.04,-1.04,
1.582,-0.23,-0.09,0.85,-3.76,-1.00,-1.15,
1.584,-0.23,-0.09,0.86,-3.76,-1.00,-1.15,
1.587,-0.23,-0.09,0.86,-3.76,-0.93,-1.21,
1.588,-0.22,-0.09,0.85,-3.76,-0.93,-1.21,
1.589,-0.20,-0.08,0.87,-3.76,-0.93,-1.21,
1.593,-0.20,-0.08,0.87,-3.63,-0.83,-1.13,
1.593,-0.18,-0.08,0.88,-3.63,-0.83,-1.13,
1.594,-0.16,-0.08,0.90,-3.63,-0.83,-1.13,
1.596,-0.16,-0.08,0.90,-3.36,-0.76,-0.92,
1.597,-0.14,-0.07,0.92,-3.36,-0.76,-0.92,
1.599,-0.11,-0.07,0.94,-3.36,-0.76,-0.92,
1.601,-0.09,-0.06,0.96,-3.36,-0.76,-0.92,
1.602,-0.09,-0.06,0.96,-2.95,-0.69,-0.58,
1.604,-0.07,-0.06,0.98,-2.95,-0.69,-0.58,
1.606,-0.05,-0.05,1.00,-2.95,-0.69,-0.58,
1.607,-0.05,-0.05,1.00,-2.50,-0.57,-0.18,
1.61,-0.03,-0.05,1.01,-2.50,-0.57,-0.18,
1.611,-0.02,-0.04,1.02,-2.50,-0.57,-0.18,
1.611,-0.02,-0.04,1.02,-2.12,-0.47,0.19,
1.614,-0.00,-0.04,1.04,-2.12,-0.47,0.19,
1.616,-0.00,-0.04,1.04,-1.78,-0.35,0.46,
1.616,0.01,-0.03,1.05,-1.78,-0.35,0.46,
1.619,0.03,-0.02,1.05,-1.78,-0.35,0.46,
1.622,0.03,-0.02,1.06,-1.78,-0.35,0.46,
1.622,0.03,-0.02,1.06,-1.49,-0.23,0.71,
1.625,0.04,-0.02,1.06,-1.49,-0.23,0.71,
1.625,0.05,-0.02,1.07,-1.49,-0.23,0.71,
1.626,0.05,-0.02,1.07,-1.24,-0.11,0.85,
1.629,0.05,-0.02,1.07,-1.24,-0.11,0.85,
1.631,0.05,-0.02,1.07,-1.09,-0.03,0.93,
1.632,0.05,-0.02,1.08,-1.09,-0.03,0.93,
1.634,0.05,-0.01,1.07,-1.09,-0.03,0.93,
1.636,0.04,-0.01,1.07,-1.09,-0.03,0.93,
1.637,0.04,-0.01,1.07,-1.04,-0.03,1.02,
1.638,0.03,-0.01,1.06,-1.04,-0.03,1.02,
1.645,0.03,-0.01,1.06,-1.13,0.03,1.00,
1.649,0.01,-0.02,1.06,-1.13,0.03,1.00,
1.649,-0.01,-0.02,1.06,-1.13,0.03,1.00,
1.649,-0.03,-0.02,1.06,-1.13,0.03,1.00,
1.649,-0.03,-0.02,1.06,-1.35,0.02,0.92,
1.65,-0.05,-0.02,1.06,-1.35,0.02,0.92,
1.65,-0.05,-0.02,1.06,-1.71,-0.02,0.88,
1.651,-0.07,-0.03,1.05,-1.71,-0.02,0.88,
1.652,-0.08,-0.04,1.05,-1.71,-0.02,0.88,
1.655,-0.09,-0.04,1.05,-1.71,-0.02,0.88,
1.655,-0.09,-0.04,1.05,-2.11,-0.07,0.82,
1.658,-0.10,-0.05,1.06,-2.11,-0.07,0.82,
1.66,-0.11,-0.06,1.06,-2.11,-0.07,0.82,
1.66,-0.11,-0.06,1.06,-2.39,-0.18,0.82,
1.662,-0.11,-0.07,1.06,-2.39,-0.18,0.82,
1.665,-0.11,-0.07,1.06,-2.56,-0.35,0.86,
1.665,-0.11,-0.08,1.07,-2.56,-0.35,0.86,
1.667,-0.11,-0.09,1.07,-2.56,-0.35,0.86,
1.67,-0.11,-0.09,1.08,-2.56,-0.35,0.86,
1.67,-0.11,-0.09,1.08,-2.62,-0.49,0.92,
1.672,-0.11,-0.10,1.09,-2.62,-0.49,0.92,
1.675,-0.10,-0.10,1.09,-2.62,-0.49,0.92,
1.676,-0.10,-0.10,1.09,-2.64,-0.64,1.04,
1.677,-0.09,-0.10,1.10,-2.64,-0.64,1.04,
1.681,-0.09,-0.11,1.10,-2.64,-0.64,1.04,
1.681,-0.09,-0.11,1.10,-2.58,-0.71,1.21,
1.682,-0.08,-0.11,1.11,-2.58,-0.71,1.21,
1.685,-0.08,-0.11,1.11,-2.58,-0.71,1.21,
1.685,-0.08,-0.11,1.11,-2.47,-0.77,1.27,
1.687,-0.07,-0.11,1.11,-2.47,-0.77,1.27,
1.691,-0.07,-0.11,1.11,-2.36,-0.84,1.36,
1.691,-0.07,-0.11,1.12,-2.36,-0.84,1.36,
1.692,-0.07,-0.11,1.11,-2.36,-0.84,1.36,
1.694,-0.06,-0.11,1.11,-2.36,-0.84,1.36,
1.695,-0.06,-0.11,1.11,-2.26,-0.83,1.40,
1.697,-0.06,-0.10,1.10,-2.26,-0.83,1.40,
1.699,-0.05,-0.09,1.09,-2.26,-0.83,1.40,
1.7,-0.05,-0.09,1.09,-2.22,-0.79,1.37,
1.702,-0.05,-0.09,1.09,-2.22,-0.79,1.37,
1.705,-0.05,-0.09,1.08,-2.22,-0.79,1.37,
1.705,-0.05,-0.09,1.08,-2.13,-0.70,1.22,
1.708,-0.04,-0.09,1.07,-2.13,-0.70,1.22,
1.709,-0.03,-0.09,1.05,-2.13,-0.70,1.22,
1.71,-0.03,-0.09,1.05,-2.07,-0.65,1.11,
1.712,-0.03,-0.09,1.04,-2.07,-0.65,1.11,
1.715,-0.03,-0.09,1.04,-1.90,-0.65,0.86,
1.715,-0.03,-0.08,1.02,-1.90,-0.65,0.86,
1.717,-0.02,-0.08,1.01,-1.90,-0.65,0.86,
1.719,-0.02,-0.07,0.99,-1.90,-0.65,0.86,
1.72,-0.02,-0.07,0.99,-1.84,-0.58,0.58,
1.721,-0.02,-0.06,0.97,-1.84,-0.58,0.58,
1.724,-0.02,-0.05,0.96,-1.84,-0.58,0.58,
1.725,-0.02,-0.05,0.96,-1.77,-0.48,0.27,
1.727,-0.02,-0.05,0.94,-1.77,-0.48,0.27,
1.729,-0.02,-0.04,0.93,-1.77,-0.48,0.27,
1.73,-0.02,-0.04,0.93,-1.75,-0.32,-0.04,
1.732,-0.03,-0.03,0.92,-1.75,-0.32,-0.04,
1.735,-0.04,-0.02,0.91,-1.75,-0.32,-0.04,
1.736,-0.04,-0.02,0.91,-1.74,-0.15,-0.37,
1.737,-0.04,-0.02,0.90,-1.74,-0.15,-0.37,
1.751,-0.04,-0.02,0.90,-1.85,0.01,-0.59,
1.753,-0.04,-0.00,0.90,-1.85,0.01,-0.59,
1.754,-0.04,-0.00,0.90,-1.85,0.01,-0.59,
1.755,-0.04,0.01,0.90,-1.85,0.01,-0.59,
1.755,-0.04,0.01,0.90,-1.90,0.17,-0.72,
1.756,-0.04,0.01,0.91,-1.90,0.17,-0.72,
1.756,-0.05,0.01,0.91,-1.90,0.17,-0.72,
1.757,-0.05,0.01,0.91,-1.91,0.33,-0.71,
1.757,-0.04,0.02,0.91,-1.91,0.33,-0.71,
1.758,-0.04,0.03,0.93,-1.91,0.33,-0.71,
1.758,-0.04,0.03,0.93,-1.95,0.45,-0.60,
1.759,-0.05,0.02,0.94,-1.95,0.45,-0.60,
1.76,-0.05,0.03,0.95,-1.95,0.45,-0.60,
1.76,-0.05,0.03,0.95,-1.93,0.57,-0.50,
1.77,-0.05,0.03,0.97,-1.93,0.57,-0.50,
1.771,-0.05,0.03,0.97,-1.97,0.61,-0.25,
1.772,-0.05,0.03,0.98,-1.97,0.61,-0.25,
1.772,-0.05,0.02,1.00,-1.97,0.61,-0.25,
1.772,-0.05,0.02,1.01,-1.97,0.61,-0.25,
1.773,-0.05,0.02,1.01,-1.96,0.62,0.03,
1.773,-0.05,0.01,1.03,-1.96,0.62,0.03,
1.778,-0.05,0.01,1.04,-1.96,0.62,0.03,
1.779,-0.05,0.01,1.04,-2.00,0.59,0.33,
1.779,-0.05,0.00,1.06,-2.00,0.59,0.33,
1.779,-0.05,-0.01,1.07,-2.00,0.59,0.33,
1.78,-0.05,-0.01,1.07,-1.99,0.51,0.63,
1.781,-0.05,-0.02,1.08,-1.99,0.51,0.63,
1.783,-0.05,-0.03,1.09,-1.99,0.51,0.63,
1.784,-0.05,-0.03,1.09,-1.99,0.40,0.88,
1.786,-0.05,-0.03,1.10,-1.99,0.40,0.88,
1.788,-0.05,-0.03,1.10,-1.97,0.25,1.10,
1.789,-0.05,-0.04,1.10,-1.97,0.25,1.10,
1.791,-0.05,-0.05,1.11,-1.97,0.25,1.10,
1.793,-0.05,-0.06,1.11,-1.97,0.25,1.10,
1.794,-0.05,-0.06,1.11,-1.97,0.14,1.26,
1.796,-0.05,-0.06,1.11,-1.97,0.14,1.26,
1.799,-0.06,-0.06,1.11,-1.97,0.14,1.26,
1.799,-0.06,-0.06,1.11,-1.94,-0.00,1.37,
1.801,-0.06,-0.07,1.10,-1.94,-0.00,1.37,
1.803,-0.06,-0.07,1.10,-1.94,-0.00,1.37,
1.803,-0.06,-0.07,1.10,-2.00,-0.07,1.36,
1.807,-0.07,-0.07,1.10,-2.00,-0.07,1.36,
1.811,-0.08,-0.07,1.09,-2.00,-0.07,1.36,
1.812,-0.08,-0.07,1.09,-2.05,-0.10,1.28,
1.812,-0.08,-0.07,1.08,-2.05,-0.10,1.28,
1.813,-0.08,-0.07,1.08,-2.18,-0.10,1.17,
1.814,-0.08,-0.07,1.07,-2.18,-0.10,1.17,
1.815,-0.08,-0.07,1.06,-2.18,-0.10,1.17,
1.818,-0.08,-0.06,1.06,-2.18,-0.10,1.17,
1.819,-0.08,-0.06,1.06,-2.20,-0.07,1.02,
1.821,-0.08,-0.06,1.06,-2.20,-0.07,1.02,
1.824,-0.08,-0.06,1.06,-2.20,-0.07,1.02,
1.824,-0.08,-0.06,1.06,-2.24,-0.01,0.87,
1.826,-0.07,-0.06,1.05,-2.24,-0.01,0.87,
1.828,-0.07,-0.06,1.06,-2.24,-0.01,0.87,
1.828,-0.07,-0.06,1.06,-2.20,0.03,0.83,
1.831,-0.06,-0.06,1.05,-2.20,0.03,0.83,
1.834,-0.06,-0.06,1.06,-2.20,0.03,0.83,
1.834,-0.06,-0.06,1.06,-2.11,0.06,0.82,
1.836,-0.05,-0.06,1.06,-2.11,0.06,0.82,
1.839,-0.05,-0.06,1.06,-2.02,0.09,0.79,
1.839,-0.04,-0.06,1.06,-2.02,0.09,0.79,
1.847,-0.04,-0.05,1.07,-2.02,0.09,0.79,
1.848,-0.03,-0.05,1.07,-2.02,0.09,0.79,
1.848,-0.03,-0.05,1.07,-1.90,0.10,0.87,
1.849,-0.03,-0.06,1.08,-1.90,0.10,0.87,
1.849,-0.02,-0.06,1.08,-1.90,0.10,0.87,
1.849,-0.02,-0.06,1.08,-1.79,0.16,0.92,
1.85,-0.02,-0.06,1.08,-1.79,0.16,0.92,
1.853,-0.02,-0.06,1.09,-1.79,0.16,0.92,
1.854,-0.02,-0.06,1.09,-1.67,0.15,1.04,
1.856,-0.01,-0.06,1.09,-1.67,0.15,1.04,
1.861,-0.01,-0.07,1.10,-1.67,0.15,1.04,
1.862,-0.01,-0.07,1.10,-1.62,0.11,1.13,
1.862,-0.01,-0.07,1.11,-1.62,0.11,1.13,
1.863,-0.01,-0.07,1.11,-1.55,0.10,1.24,
1.863,-0.01,-0.07,1.11,-1.55,0.10,1.24,
1.866,-0.01,-0.07,1.13,-1.55,0.10,1.24,
1.868,-0.01,-0.07,1.14,-1.55,0.10,1.24,
1.868,-0.01,-0.07,1.14,-1.56,0.07,1.37,
1.871,-0.01,-0.08,1.15,-1.56,0.07,1.37,
1.873,-0.01,-0.08,1.15,-1.56,0.07,1.37,
1.873,-0.01,-0.08,1.15,-1.54,0.06,1.57,
1.876,0.00,-0.08,1.16,-1.54,0.06,1.57,
1.878,0.01,-0.08,1.16,-1.54,0.06,1.57,
1.879,0.01,-0.08,1.16,-1.53,-0.01,1.73,
1.88,0.01,-0.09,1.17,-1.53,-0.01,1.73,
1.883,0.01,-0.09,1.18,-1.53,-0.01,1.73,
1.883,0.01,-0.09,1.18,-1.44,-0.02,1.83,
1.886,0.01,-0.09,1.18,-1.44,-0.02,1.83,
1.888,0.01,-0.09,1.18,-1.38,-0.05,1.95,
1.889,0.01,-0.10,1.18,-1.38,-0.05,1.95,
1.891,0.02,-0.10,1.18,-1.38,-0.05,1.95,
1.893,0.02,-0.10,1.18,-1.38,-0.05,1.95,
1.893,0.02,-0.10,1.18,-1.35,-0.08,2.00,
1.896,0.02,-0.10,1.17,-1.35,-0.08,2.00,
1.898,0.03,-0.11,1.17,-1.35,-0.08,2.00,
1.898,0.03,-0.11,1.17,-1.28,-0.14,1.99,
1.901,0.03,-0.11,1.16,-1.28,-0.14,1.99,
1.903,0.02,-0.11,1.15,-1.28,-0.14,1.99,
1.903,0.02,-0.11,1.15,-1.20,-0.19,1.93,
1.906,0.02,-0.12,1.14,-1.20,-0.19,1.93,
1.91,0.02,-0.11,1.12,-1.20,-0.19,1.93,
1.91,0.02,-0.11,1.12,-1.19,-0.23,1.75,
1.91,0.02,-0.11,1.11,-1.19,-0.23,1.75,
1.913,0.02,-0.11,1.11,-1.22,-0.27,1.53,
1.913,0.02,-0.11,1.09,-1.22,-0.27,1.53,
1.916,0.02,-0.11,1.08,-1.22,-0.27,1.53,
1.919,0.02,-0.11,1.07,-1.22,-0.27,1.53,
1.919,0.02,-0.11,1.07,-1.21,-0.25,1.21,
1.921,0.02,-0.11,1.05,-1.21,-0.25,1.21,
1.923,0.02,-0.11,1.04,-1.21,-0.25,1.21,
1.924,0.02,-0.11,1.04,-1.20,-0.22,0.94,
1.927,0.02,-0.10,1.03,-1.20,-0.22,0.94,
1.927,0.02,-0.10,1.02,-1.20,-0.22,0.94,
1.928,0.02,-0.10,1.02,-1.19,-0.16,0.67,
1.93,0.02,-0.11,1.01,-1.19,-0.16,0.67,
1.934,0.02,-0.11,1.01,-1.19,-0.16,0.67,
1.934,0.02,-0.11,1.01,-1.16,-0.13,0.46,
1.936,0.03,-0.11,1.00,-1.16,-0.13,0.46,
1.938,0.03,-0.11,1.00,-1.13,-0.18,0.34,
1.939,0.03,-0.11,1.00,-1.13,-0.18,0.34,
1.94,0.03,-0.11,1.01,-1.13,-0.18,0.34,
1.943,0.03,-0.11,1.01,-1.13,-0.18,0.34,
1.944,0.03,-0.11,1.01,-1.07,-0.21,0.26,
1.945,0.04,-0.11,1.02,-1.07,-0.21,0.26,
1.948,0.04,-0.11,1.02,-1.07,-0.21,0.26,
1.949,0.04,-0.11,1.02,-1.04,-0.17,0.29,
1.951,0.05,-0.11,1.03,-1.04,-0.17,0.29,
1.953,0.05,-0.11,1.05,-1.04,-0.17,0.29,
1.953,0.05,-0.11,1.05,-0.90,-0.17,0.42,
1.955,0.05,-0.11,1.05,-0.90,-0.17,0.42,
1.958,0.05,-0.11,1.06,-0.90,-0.17,0.42,
1.958,0.05,-0.11,1.06,-0.81,-0.20,0.60,
1.965,0.06,-0.11,1.06,-0.81,-0.20,0.60,
1.966,0.06,-0.11,1.06,-0.75,-0.16,0.76,
1.966,0.06,-0.11,1.08,-0.75,-0.16,0.76,
1.966,0.07,-0.10,1.08,-0.75,-0.16,0.76,
1.968,0.06,-0.10,1.09,-0.75,-0.16,0.76,
1.968,0.06,-0.10,1.09,-0.68,-0.15,0.90,
1.97,0.06,-0.10,1.09,-0.68,-0.15,0.90,
1.973,0.07,-0.10,1.10,-0.68,-0.15,0.90,
1.973,0.07,-0.10,1.10,-0.64,-0.05,1.04,
1.977,0.07,-0.10,1.10,-0.64,-0.05,1.04,
1.977,0.08,-0.10,1.10,-0.64,-0.05,1.04,
1.978,0.08,-0.10,1.10,-0.59,-0.05,1.15,
1.979,0.07,-0.10,1.10,-0.59,-0.05,1.15,
1.982,0.07,-0.10,1.10,-0.59,-0.05,1.15,
1.982,0.07,-0.10,1.10,-0.52,-0.02,1.20,
1.985,0.08,-0.11,1.10,-0.52,-0.02,1.20,
1.987,0.08,-0.11,1.10,-0.51,-0.04,1.20,
1.988,0.08,-0.11,1.09,-0.51,-0.04,1.20,
1.99,0.08,-0.11,1.09,-0.51,-0.04,1.20,
1.992,0.08,-0.11,1.09,-0.51,-0.04,1.20,
1.992,0.08,-0.11,1.09,-0.46,-0.10,1.15,
1.995,0.08,-0.11,1.09,-0.46,-0.10,1.15,
1.997,0.08,-0.11,1.09,-0.43,-0.10,1.10,
1.998,0.07,-0.11,1.08,-0.43,-0.10,1.10,
1.999,0.07,-0.11,1.08,-0.43,-0.10,1.10,
2.002,0.07,-0.11,1.08,-0.43,-0.10,1.10,
2.002,0.07,-0.11,1.08,-0.44,-0.10,1.02,
2.004,0.07,-0.11,1.07,-0.44,-0.10,1.02,
2.006,0.06,-0.10,1.08,-0.44,-0.10,1.02,
2.007,0.06,-0.10,1.08,-0.46,-0.08,0.96,
2.009,0.06,-0.10,1.07,-0.46,-0.08,0.96,
2.011,0.06,-0.10,1.07,-0.53,-0.05,0.93,
2.012,0.07,-0.09,1.06,-0.53,-0.05,0.93,
2.014,0.06,-0.09,1.06,-0.53,-0.05,0.93,
2.017,0.06,-0.09,1.07,-0.53,-0.05,0.93,
2.017,0.06,-0.09,1.07,-0.49,0.05,0.83,
2.019,0.07,-0.08,1.06,-0.49,0.05,0.83,
2.021,0.07,-0.08,1.05,-0.49,0.05,0.83,
2.021,0.07,-0.08,1.05,-0.49,0.11,0.81,
2.023,0.08,-0.07,1.05,-0.49,0.11,0.81,
2.027,0.08,-0.07,1.05,-0.49,0.11,0.81,
2.028,0.08,-0.07,1.05,-0.43,0.19,0.71,
2.029,0.08,-0.07,1.04,-0.43,0.19,0.71,
2.031,0.08,-0.07,1.04,-0.43,0.19,0.71,
2.032,0.08,-0.07,1.04,-0.33,0.27,0.65,
2.033,0.08,-0.06,1.04,-0.33,0.27,0.65,
2.036,0.08,-0.06,1.04,-0.27,0.30,0.55,
2.037,0.08,-0.05,1.03,-0.27,0.30,0.55,
2.038,0.09,-0.05,1.03,-0.27,0.30,0.55,
2.049,0.09,-0.05,1.03,-0.27,0.30,0.55,
2.05,0.09,-0.05,1.03,-0.22,0.42,0.52,
2.051,0.09,-0.05,1.03,-0.22,0.42,0.52,
2.051,0.08,-0.04,1.02,-0.22,0.42,0.52,
2.052,0.08,-0.04,1.02,-0.17,0.46,0.44,
2.053,0.09,-0.04,1.03,-0.17,0.46,0.44,
2.053,0.08,-0.04,1.02,-0.17,0.46,0.44,
2.054,0.08,-0.04,1.02,-0.16,0.55,0.39,
2.054,0.09,-0.04,1.03,-0.16,0.55,0.39,
2.056,0.08,-0.04,1.03,-0.16,0.55,0.39,
2.056,0.08,-0.04,1.03,-0.14,0.58,0.41,
2.058,0.08,-0.04,1.03,-0.14,0.58,0.41,
2.067,0.08,-0.04,1.03,-0.12,0.58,0.45,
2.068,0.08,-0.04,1.03,-0.12,0.58,0.45,
2.069,0.08,-0.05,1.02,-0.12,0.58,0.45,
2.069,0.08,-0.05,1.03,-0.12,0.58,0.45,
2.069,0.08,-0.05,1.03,-0.13,0.57,0.40,
2.07,0.08,-0.05,1.02,-0.13,0.57,0.40,
2.071,0.07,-0.05,1.02,-0.13,0.57,0.40,
2.071,0.07,-0.05,1.02,-0.10,0.53,0.41,
2.073,0.07,-0.06,1.02,-0.10,0.53,0.41,
2.077,0.07,-0.06,1.02,-0.10,0.53,0.41,
2.077,0.07,-0.06,1.02,-0.13,0.49,0.35,
2.078,0.06,-0.05,1.01,-0.13,0.49,0.35,
2.08,0.06,-0.06,1.01,-0.13,0.49,0.35,
2.081,0.06,-0.06,1.01,-0.19,0.43,0.34,
2.083,0.05,-0.06,1.00,-0.19,0.43,0.34,
2.085,0.05,-0.06,1.00,-0.24,0.46,0.23,
2.086,0.05,-0.06,1.00,-0.24,0.46,0.23,
2.088,0.04,-0.05,0.99,-0.24,0.46,0.23,
2.09,0.04,-0.06,0.99,-0.24,0.46,0.23,
2.091,0.04,-0.06,0.99,-0.32,0.45,0.16,
2.093,0.04,-0.06,0.99,-0.32,0.45,0.16,
2.095,0.04,-0.06,0.99,-0.32,0.45,0.16,
2.096,0.04,-0.06,0.99,-0.37,0.45,0.07,
2.098,0.03,-0.06,0.99,-0.37,0.45,0.07,
2.101,0.03,-0.06,0.99,-0.37,0.45,0.07,
2.101,0.03,-0.06,0.99,-0.41,0.44,0.05,
2.103,0.03,-0.06,0.99,-0.41,0.44,0.05,
2.105,0.03,-0.06,1.00,-0.41,0.44,0.05,
2.106,0.03,-0.06,1.00,-0.43,0.41,0.06,
2.109,0.04,-0.06,1.00,-0.43,0.41,0.06,
2.112,0.04,-0.06,1.00,-0.40,0.38,0.06,
2.112,0.04,-0.06,1.01,-0.40,0.38,0.06,
2.113,0.05,-0.06,1.01,-0.40,0.38,0.06,
2.115,0.05,-0.07,1.02,-0.40,0.38,0.06,
2.116,0.05,-0.07,1.02,-0.30,0.39,0.16,
2.117,0.05,-0.07,1.03,-0.30,0.39,0.16,
2.121,0.05,-0.07,1.03,-0.18,0.37,0.28,
2.121,0.06,-0.07,1.03,-0.18,0.37,0.28,
2.123,0.06,-0.07,1.04,-0.18,0.37,0.28,
2.125,0.05,-0.07,1.05,-0.18,0.37,0.28,
2.125,0.05,-0.07,1.05,-0.10,0.34,0.40,
2.129,0.05,-0.08,1.06,-0.10,0.34,0.40,
2.13,0.05,-0.08,1.06,-0.10,0.34,0.40,
2.13,0.05,-0.08,1.06,-0.12,0.29,0.57,
2.132,0.05,-0.08,1.07,-0.12,0.29,0.57,
2.135,0.05,-0.08,1.07,-0.12,0.21,0.68,
2.139,0.05,-0.09,1.08,-0.12,0.21,0.68,
2.139,0.04,-0.10,1.09,-0.12,0.21,0.68,
2.14,0.05,-0.10,1.09,-0.12,0.21,0.68,
2.14,0.05,-0.10,1.09,-0.14,0.13,0.83,
2.143,0.05,-0.11,1.10,-0.14,0.13,0.83,
2.145,0.05,-0.11,1.10,-0.14,0.13,0.83,
2.145,0.05,-0.11,1.10,-0.16,0.02,1.03,
2.147,0.05,-0.12,1.10,-0.16,0.02,1.03,
2.151,0.05,-0.12,1.10,-0.16,0.02,1.03,
2.151,0.05,-0.12,1.10,-0.10,-0.08,1.07,
2.153,0.05,-0.12,1.11,-0.10,-0.08,1.07,
2.156,0.05,-0.12,1.09,-0.10,-0.08,1.07,
2.156,0.05,-0.12,1.09,-0.09,-0.16,1.08,
2.159,0.06,-0.13,1.09,-0.09,-0.16,1.08,
2.161,0.06,-0.13,1.09,-0.06,-0.23,1.09,
2.161,0.06,-0.13,1.08,-0.06,-0.23,1.09,
2.162,0.06,-0.13,1.08,-0.06,-0.23,1.09,
2.165,0.06,-0.13,1.07,-0.06,-0.23,1.09,
2.165,0.06,-0.13,1.07,0.02,-0.28,0.96,
2.168,0.05,-0.13,1.06,0.02,-0.28,0.96,
2.17,0.05,-0.13,1.05,0.02,-0.28,0.96,
2.171,0.05,-0.13,1.05,0.05,-0.32,0.85,
2.173,0.05,-0.13,1.05,0.05,-0.32,0.85,
2.175,0.05,-0.13,1.04,0.05,-0.32,0.85,
2.175,0.05,-0.13,1.04,0.00,-0.36,0.64,
2.182,0.05,-0.14,1.04,0.00,-0.36,0.64,
2.183,0.05,-0.13,1.03,0.00,-0.36,0.64,
2.183,0.05,-0.13,1.03,-0.03,-0.37,0.52,
2.184,0.05,-0.13,1.03,-0.03,-0.37,0.52,
2.185,0.05,-0.13,1.03,-0.03,-0.41,0.44,
2.186,0.06,-0.14,1.03,-0.03,-0.41,0.44,
2.187,0.06,-0.14,1.03,-0.03,-0.41,0.44,
2.19,0.07,-0.14,1.04,-0.03,-0.41,0.44,
2.19,0.07,-0.14,1.04,0.05,-0.42,0.38,
2.193,0.07,-0.14,1.04,0.05,-0.42,0.38,
2.195,0.08,-0.14,1.04,0.05,-0.42,0.38,
2.195,0.08,-0.14,1.04,0.16,-0.49,0.45,
2.197,0.09,-0.14,1.05,0.16,-0.49,0.45,
2.2,0.09,-0.14,1.05,0.16,-0.49,0.45,
2.2,0.09,-0.14,1.05,0.26,-0.54,0.48,
2.203,0.10,-0.14,1.05,0.26,-0.54,0.48,
2.206,0.10,-0.14,1.06,0.26,-0.54,0.48,
2.206,0.10,-0.14,1.06,0.41,-0.55,0.59,
2.207,0.11,-0.14,1.06,0.41,-0.55,0.59,
2.21,0.11,-0.14,1.06,0.54,-0.56,0.62,
2.21,0.11,-0.13,1.07,0.54,-0.56,0.62,
2.212,0.12,-0.13,1.06,0.54,-0.56,0.62,
2.215,0.12,-0.13,1.06,0.54,-0.56,0.62,
2.215,0.12,-0.13,1.06,0.62,-0.52,0.70,
2.217,0.12,-0.13,1.07,0.62,-0.52,0.70,
2.22,0.12,-0.13,1.06,0.62,-0.52,0.70,
2.22,0.12,-0.13,1.06,0.74,-0.50,0.68,
2.222,0.13,-0.12,1.06,0.74,-0.50,0.68,
2.225,0.13,-0.12,1.05,0.74,-0.50,0.68,
2.226,0.13,-0.12,1.05,0.77,-0.48,0.69,
2.228,0.13,-0.12,1.04,0.77,-0.48,0.69,
2.23,0.13,-0.12,1.04,0.77,-0.48,0.69,
2.231,0.13,-0.12,1.04,0.81,-0.43,0.60,
2.232,0.12,-0.12,1.04,0.81,-0.43,0.60,
2.235,0.12,-0.12,1.04,0.83,-0.42,0.48,
2.236,0.12,-0.12,1.03,0.83,-0.42,0.48,
2.238,0.12,-0.12,1.02,0.83,-0.42,0.48,
2.24,0.12,-0.11,1.02,0.83,-0.42,0.48,
2.24,0.12,-0.11,1.02,0.81,-0.41,0.36,
2.242,0.12,-0.12,1.01,0.81,-0.41,0.36,
2.245,0.12,-0.12,1.01,0.81,-0.41,0.36,
2.245,0.12,-0.12,1.01,0.80,-0.41,0.26,
2.247,0.11,-0.11,1.01,0.80,-0.41,0.26,
2.25,0.11,-0.11,1.01,0.80,-0.41,0.26,
2.25,0.11,-0.11,1.01,0.79,-0.42,0.17,
2.252,0.11,-0.10,1.01,0.79,-0.42,0.17,
2.255,0.11,-0.10,1.01,0.79,-0.42,0.17,
2.256,0.11,-0.10,1.01,0.77,-0.35,0.14,
2.258,0.12,-0.10,1.00,0.77,-0.35,0.14,
2.259,0.12,-0.10,1.00,0.79,-0.29,0.14,
2.26,0.12,-0.10,1.01,0.79,-0.29,0.14,
2.262,0.12,-0.10,1.01,0.79,-0.29,0.14,
2.265,0.12,-0.10,1.02,0.79,-0.29,0.14,
2.266,0.12,-0.10,1.02,0.83,-0.26,0.10,
2.266,0.12,-0.10,1.02,0.83,-0.26,0.10,
2.27,0.12,-0.10,1.03,0.83,-0.26,0.10,
2.271,0.12,-0.10,1.03,0.83,-0.27,0.19,
2.273,0.13,-0.10,1.03,0.83,-0.27,0.19,
2.275,0.13,-0.11,1.04,0.83,-0.27,0.19,
2.275,0.13,-0.11,1.04,0.88,-0.26,0.27,
2.283,0.13,-0.11,1.03,0.88,-0.26,0.27,
2.284,0.13,-0.11,1.04,0.88,-0.26,0.27,
2.285,0.13,-0.11,1.04,0.93,-0.35,0.38,
2.285,0.14,-0.12,1.04,0.93,-0.35,0.38,
2.286,0.14,-0.12,1.04,0.94,-0.37,0.37,
2.286,0.13,-0.11,1.04,0.94,-0.37,0.37,
2.286,0.13,-0.12,1.04,0.94,-0.37,0.37,
2.289,0.13,-0.12,1.04,0.94,-0.37,0.37,
2.289,0.13,-0.12,1.04,0.98,-0.43,0.38,
2.291,0.14,-0.12,1.04,0.98,-0.43,0.38,
2.299,0.14,-0.12,1.05,0.98,-0.43,0.38,
2.3,0.14,-0.12,1.05,0.98,-0.46,0.45,
2.3,0.14,-0.12,1.05,0.98,-0.46,0.45,
2.3,0.15,-0.12,1.06,0.98,-0.46,0.45,
2.301,0.15,-0.12,1.06,1.01,-0.51,0.46,
2.303,0.16,-0.12,1.07,1.01,-0.51,0.46,
2.304,0.17,-0.11,1.07,1.01,-0.51,0.46,
2.304,0.17,-0.11,1.07,1.14,-0.52,0.58,
2.305,0.17,-0.11,1.08,1.14,-0.52,0.58,
2.308,0.17,-0.11,1.08,1.29,-0.46,0.68,
2.308,0.18,-0.11,1.08,1.29,-0.46,0.68,
2.31,0.18,-0.11,1.08,1.29,-0.46,0.68,
2.313,0.19,-0.10,1.08,1.29,-0.46,0.68,
2.313,0.19,-0.10,1.08,1.38,-0.42,0.77,
2.315,0.19,-0.10,1.09,1.38,-0.42,0.77,
2.318,0.19,-0.09,1.08,1.38,-0.42,0.77,
2.318,0.19,-0.09,1.08,1.44,-0.37,0.79,
2.321,0.19,-0.09,1.07,1.44,-0.37,0.79,
2.323,0.18,-0.09,1.06,1.44,-0.37,0.79,
2.323,0.18,-0.09,1.06,1.50,-0.29,0.79,
2.327,0.18,-0.09,1.06,1.50,-0.29,0.79,
2.329,0.18,-0.08,1.05,1.50,-0.29,0.79,
2.329,0.18,-0.08,1.05,1.45,-0.24,0.64,
2.33,0.18,-0.07,1.04,1.45,-0.24,0.64,
2.334,0.18,-0.07,1.04,1.40,-0.19,0.53,
2.334,0.18,-0.08,1.03,1.40,-0.19,0.53,
2.335,0.17,-0.07,1.02,1.40,-0.19,0.53,
2.339,0.17,-0.07,1.01,1.40,-0.19,0.53,
2.34,0.17,-0.07,1.01,1.36,-0.13,0.32,
2.34,0.16,-0.06,1.01,1.36,-0.13,0.32,
2.344,0.16,-0.06,0.99,1.36,-0.13,0.32,
2.345,0.16,-0.06,0.99,1.27,-0.08,0.15,
2.345,0.16,-0.06,0.99,1.27,-0.08,0.15,
2.348,0.16,-0.06,0.98,1.27,-0.08,0.15,
2.349,0.16,-0.06,0.98,1.18,-0.03,-0.02,
2.351,0.16,-0.06,0.98,1.18,-0.03,-0.02,
2.353,0.17,-0.06,0.97,1.18,-0.03,-0.02,
2.354,0.17,-0.06,0.97,1.16,-0.01,-0.20,
2.356,0.17,-0.06,0.96,1.16,-0.01,-0.20,
2.358,0.17,-0.06,0.96,1.18,-0.04,-0.30,
2.359,0.17,-0.06,0.96,1.18,-0.04,-0.30,
2.362,0.17,-0.07,0.96,1.18,-0.04,-0.30,
2.363,0.17,-0.07,0.95,1.18,-0.04,-0.30,
2.364,0.17,-0.07,0.95,1.21,-0.11,-0.46,
2.365,0.17,-0.07,0.95,1.21,-0.11,-0.46,
2.368,0.17,-0.08,0.95,1.21,-0.11,-0.46,
2.369,0.17,-0.08,0.95,1.20,-0.21,-0.47,
2.37,0.17,-0.08,0.95,1.20,-0.21,-0.47,
2.373,0.17,-0.08,0.95,1.20,-0.21,-0.47,
2.373,0.17,-0.08,0.95,1.19,-0.28,-0.52,
2.375,0.17,-0.08,0.95,1.19,-0.28,-0.52,
2.378,0.17,-0.07,0.96,1.19,-0.28,-0.52,
2.379,0.17,-0.07,0.96,1.17,-0.31,-0.50,
2.38,0.16,-0.07,0.96,1.17,-0.31,-0.50,
2.383,0.16,-0.07,0.96,1.15,-0.28,-0.47,
2.384,0.16,-0.07,0.96,1.15,-0.28,-0.47,
2.385,0.16,-0.07,0.96,1.15,-0.28,-0.47,
2.388,0.16,-0.07,0.96,1.15,-0.28,-0.47,
2.388,0.16,-0.07,0.96,1.08,-0.27,-0.41,
2.39,0.16,-0.07,0.96,1.08,-0.27,-0.41,
2.403,0.15,-0.07,0.96,1.08,-0.27,-0.41,
2.404,0.15,-0.07,0.96,1.03,-0.24,-0.42,
2.404,0.15,-0.07,0.96,1.03,-0.24,-0.42,
2.405,0.16,-0.06,0.96,1.03,-0.24,-0.42,
2.406,0.16,-0.06,0.96,1.01,-0.27,-0.38,
2.406,0.15,-0.06,0.95,1.01,-0.27,-0.38,
2.407,0.15,-0.06,0.95,1.01,-0.27,-0.38,
2.408,0.15,-0.06,0.95,0.98,-0.21,-0.43,
2.409,0.16,-0.05,0.95,0.98,-0.21,-0.43,
2.409,0.16,-0.05,0.95,0.96,-0.17,-0.45,
2.41,0.16,-0.05,0.94,0.96,-0.17,-0.45,
2.411,0.16,-0.05,0.94,0.96,-0.17,-0.45,
2.424,0.16,-0.04,0.94,0.96,-0.17,-0.45,
2.425,0.16,-0.04,0.94,1.01,-0.11,-0.54,
2.426,0.17,-0.04,0.93,1.01,-0.11,-0.54,
2.426,0.17,-0.05,0.93,1.01,-0.11,-0.54,
2.426,0.17,-0.05,0.93,1.03,-0.04,-0.61,
2.427,0.17,-0.04,0.92,1.03,-0.04,-0.61,
2.427,0.17,-0.04,0.92,1.13,-0.03,-0.67,
2.428,0.17,-0.04,0.92,1.13,-0.03,-0.67,
2.428,0.17,-0.03,0.91,1.13,-0.03,-0.67,
2.428,0.18,-0.03,0.91,1.13,-0.03,-0.67,
2.429,0.18,-0.03,0.91,1.15,0.02,-0.76,
2.433,0.18,-0.03,0.90,1.15,0.02,-0.76,
2.434,0.19,-0.02,0.90,1.15,0.02,-0.76,
2.435,0.19,-0.02,0.90,1.15,0.08,-0.84,
2.435,0.18,-0.02,0.91,1.15,0.08,-0.84,
2.437,0.18,-0.02,0.91,1.15,0.08,-0.84,
2.437,0.18,-0.02,0.91,1.26,0.17,-0.91,
2.439,0.19,-0.02,0.91,1.26,0.17,-0.91,
2.442,0.18,-0.01,0.91,1.26,0.17,-0.91,
2.442,0.18,-0.01,0.91,1.21,0.19,-0.86,
2.444,0.18,-0.01,0.92,1.21,0.19,-0.86,
2.447,0.18,-0.01,0.93,1.21,0.19,-0.86,
2.447,0.18,-0.01,0.93,1.23,0.25,-0.82,
2.449,0.18,-0.01,0.93,1.23,0.25,-0.82,
2.452,0.18,-0.00,0.93,1.23,0.25,-0.82,
2.452,0.18,-0.00,0.93,1.18,0.29,-0.70,
2.454,0.18,-0.01,0.94,1.18,0.29,-0.70,
2.457,0.18,-0.01,0.94,1.17,0.31,-0.60,
2.457,0.18,-0.01,0.94,1.17,0.31,-0.60,
2.461,0.18,-0.01,0.94,1.17,0.31,-0.60,
2.463,0.18,-0.01,0.95,1.17,0.31,-0.60,
2.464,0.18,-0.01,0.95,1.14,0.30,-0.51,
2.465,0.18,-0.01,0.96,1.14,0.30,-0.51,
2.47,0.18,-0.01,0.97,1.14,0.30,-0.51,
2.47,0.18,-0.01,0.97,1.15,0.28,-0.43,
2.47,0.18,-0.01,0.96,1.15,0.28,-0.43,
2.474,0.18,-0.01,0.96,1.13,0.24,-0.29,
2.475,0.18,-0.02,0.96,1.13,0.24,-0.29,
2.476,0.18,-0.02,0.96,1.13,0.24,-0.29,
2.478,0.18,-0.02,0.96,1.13,0.24,-0.29,
2.478,0.18,-0.02,0.96,1.11,0.22,-0.30,
2.48,0.18,-0.01,0.95,1.11,0.22,-0.30,
2.482,0.18,-0.01,0.95,1.08,0.20,-0.35,
2.482,0.18,-0.01,0.95,1.08,0.20,-0.35,
2.485,0.18,-0.01,0.93,1.08,0.20,-0.35,
2.487,0.17,-0.01,0.93,1.08,0.20,-0.35,
2.488,0.17,-0.01,0.93,1.08,0.24,-0.40,
2.49,0.17,-0.01,0.94,1.08,0.24,-0.40,
2.492,0.18,-0.01,0.92,1.08,0.24,-0.40,
2.493,0.18,-0.01,0.92,1.07,0.28,-0.57,
2.499,0.18,-0.01,0.92,1.07,0.28,-0.57,
2.499,0.17,-0.01,0.92,1.07,0.28,-0.57,
2.5,0.17,-0.01,0.92,1.03,0.24,-0.61,
2.5,0.17,-0.01,0.92,1.03,0.24,-0.61,
2.503,0.17,-0.01,0.92,1.03,0.22,-0.73,
2.503,0.17,-0.02,0.91,1.03,0.22,-0.73,
2.504,0.17,-0.02,0.91,1.03,0.22,-0.73,
2.506,0.17,-0.02,0.91,1.03,0.22,-0.73,
2.507,0.17,-0.02,0.91,1.01,0.19,-0.77,
2.509,0.17,-0.02,0.90,1.01,0.19,-0.77,
2.512,0.17,-0.02,0.90,1.01,0.19,-0.77,
2.512,0.17,-0.02,0.90,0.97,0.15,-0.82,
2.514,0.17,-0.03,0.90,0.97,0.15,-0.82,
2.516,0.17,-0.03,0.90,0.98,0.13,-0.86,
2.517,0.17,-0.02,0.91,0.98,0.13,-0.86,
2.519,0.17,-0.02,0.91,0.98,0.13,-0.86,
2.522,0.18,-0.02,0.91,0.98,0.13,-0.86,
2.522,0.18,-0.02,0.91,1.01,0.09,-0.87,
2.524,0.18,-0.03,0.92,1.01,0.09,-0.87,
2.528,0.18,-0.03,0.93,1.01,0.09,-0.87,
2.528,0.18,-0.03,0.93,1.01,0.11,-0.78,
2.528,0.18,-0.03,0.94,1.01,0.11,-0.78,
2.532,0.18,-0.03,0.95,1.01,0.11,-0.78,
2.532,0.18,-0.03,0.95,1.02,0.08,-0.64,
2.534,0.18,-0.04,0.96,1.02,0.08,-0.64,
2.537,0.18,-0.04,0.96,1.02,0.08,-0.64,
2.537,0.18,-0.04,0.96,1.03,0.02,-0.46,
2.539,0.18,-0.04,0.98,1.03,0.02,-0.46,
2.542,0.18,-0.04,0.99,1.03,0.02,-0.46,
2.542,0.18,-0.04,0.99,1.06,-0.00,-0.32,
2.545,0.18,-0.04,1.00,1.06,-0.00,-0.32,
2.547,0.18,-0.04,1.00,1.06,-0.00,-0.32,
2.547,0.18,-0.04,1.00,1.03,-0.01,-0.09,
2.549,0.18,-0.04,1.01,1.03,-0.01,-0.09,
2.551,0.18,-0.05,1.02,1.03,-0.01,-0.09,
2.551,0.18,-0.05,1.02,1.03,-0.03,0.08,
2.553,0.18,-0.05,1.03,1.03,-0.03,0.08,
2.557,0.18,-0.05,1.03,1.00,-0.10,0.24,
2.557,0.18,-0.06,1.03,1.00,-0.10,0.24,
2.559,0.17,-0.07,1.04,1.00,-0.10,0.24,
2.562,0.17,-0.07,1.04,1.00,-0.10,0.24,
2.563,0.17,-0.07,1.04,0.96,-0.19,0.40,
2.564,0.17,-0.07,1.05,0.96,-0.19,0.40,
2.567,0.17,-0.07,1.05,0.96,-0.19,0.40,
2.567,0.17,-0.07,1.05,0.90,-0.27,0.53,
2.569,0.17,-0.07,1.05,0.90,-0.27,0.53,
2.571,0.18,-0.07,1.05,0.90,-0.27,0.53,
2.571,0.18,-0.07,1.05,0.84,-0.33,0.59,
2.574,0.19,-0.08,1.04,0.84,-0.33,0.59,
2.577,0.19,-0.07,1.03,0.84,-0.33,0.59,
2.577,0.19,-0.07,1.03,0.89,-0.34,0.60,
2.58,0.19,-0.07,1.01,0.89,-0.34,0.60,
2.582,0.19,-0.07,1.01,0.89,-0.34,0.60,
2.582,0.19,-0.07,1.01,1.04,-0.38,0.45,
2.584,0.19,-0.07,1.01,1.04,-0.38,0.45,
2.587,0.19,-0.06,1.00,1.04,-0.38,0.45,
2.587,0.19,-0.06,1.00,1.08,-0.33,0.22,
2.589,0.18,-0.05,1.00,1.08,-0.33,0.22,
2.591,0.17,-0.05,0.99,1.08,-0.33,0.22,
2.592,0.17,-0.05,0.99,1.02,-0.22,0.12,
2.594,0.17,-0.04,0.99,1.02,-0.22,0.12,
2.596,0.16,-0.04,0.98,1.02,-0.22,0.12,
2.597,0.16,-0.04,0.98,0.90,-0.09,0.01,
2.599,0.15,-0.04,0.98,0.90,-0.09,0.01,
2.601,0.15,-0.04,0.98,0.90,-0.09,0.01,
2.601,0.15,-0.04,0.98,0.82,-0.01,-0.07,
2.604,0.15,-0.05,0.97,0.82,-0.01,-0.07,
2.606,0.15,-0.05,0.97,0.72,-0.02,-0.12,
2.607,0.15,-0.05,0.96,0.72,-0.02,-0.12,
2.608,0.15,-0.05,0.96,0.72,-0.02,-0.12,
2.611,0.14,-0.05,0.95,0.72,-0.02,-0.12,
2.611,0.14,-0.05,0.95,0.75,-0.09,-0.26,
2.617,0.14,-0.06,0.95,0.75,-0.09,-0.26,
2.617,0.13,-0.06,0.95,0.75,-0.09,-0.26,
2.618,0.13,-0.06,0.95,0.69,-0.10,-0.33,
2.619,0.12,-0.06,0.94,0.69,-0.10,-0.33,
2.622,0.11,-0.06,0.95,0.69,-0.10,-0.33,
2.622,0.11,-0.06,0.95,0.57,-0.19,-0.39,
2.623,0.10,-0.06,0.94,0.57,-0.19,-0.39,
2.626,0.10,-0.06,0.94,0.44,-0.17,-0.44,
2.626,0.09,-0.06,0.94,0.44,-0.17,-0.44,
2.628,0.09,-0.06,0.94,0.44,-0.17,-0.44,
2.63,0.08,-0.06,0.95,0.44,-0.17,-0.44,
2.633,0.08,-0.06,0.95,0.21,-0.15,-0.48,
2.634,0.07,-0.06,0.95,0.21,-0.15,-0.48,
2.636,0.07,-0.06,0.95,0.11,-0.13,-0.44,
2.636,0.06,-0.06,0.95,0.11,-0.13,-0.44,
2.638,0.07,-0.06,0.96,0.11,-0.13,-0.44,
2.641,0.07,-0.06,0.97,0.11,-0.13,-0.44,
2.641,0.07,-0.06,0.97,-0.04,-0.10,-0.35,
2.643,0.08,-0.06,0.98,-0.04,-0.10,-0.35,
2.646,0.08,-0.05,1.00,-0.04,-0.10,-0.35,
2.646,0.08,-0.05,1.00,-0.04,-0.11,-0.23,
2.648,0.09,-0.05,1.01,-0.04,-0.11,-0.23,
2.651,0.09,-0.04,1.03,-0.04,-0.11,-0.23,
2.651,0.09,-0.04,1.03,0.10,-0.06,-0.02,
2.652,0.09,-0.03,1.04,0.10,-0.06,-0.02,
2.656,0.09,-0.03,1.04,0.18,0.06,0.31,
2.656,0.09,-0.02,1.05,0.18,0.06,0.31,
2.658,0.08,-0.02,1.05,0.18,0.06,0.31,
2.661,0.08,-0.02,1.05,0.19,0.23,0.50,
2.661,0.07,-0.02,1.05,0.19,0.23,0.50,
2.663,0.07,-0.02,1.04,0.19,0.23,0.50,
2.665,0.06,-0.02,1.03,0.19,0.23,0.50,
2.666,0.06,-0.02,1.03,0.03,0.25,0.56,
2.668,0.07,-0.02,1.02,0.03,0.25,0.56,
2.671,0.07,-0.02,1.01,0.03,0.25,0.56,
2.671,0.07,-0.02,1.01,-0.04,0.29,0.41,
2.673,0.07,-0.03,1.00,-0.04,0.29,0.41,
2.675,0.07,-0.03,0.99,-0.04,0.29,0.41,
2.675,0.07,-0.03,0.99,-0.04,0.23,0.22,
2.678,0.07,-0.02,0.98,-0.04,0.23,0.22,
2.68,0.07,-0.02,0.98,-0.02,0.18,0.02,
2.68,0.08,-0.03,0.97,-0.02,0.18,0.02,
2.683,0.08,-0.03,0.97,-0.02,0.18,0.02,
2.685,0.08,-0.03,0.97,0.02,0.17,-0.14,
2.685,0.08,-0.02,0.96,0.02,0.17,-0.14,
2.688,0.09,-0.02,0.97,0.02,0.17,-0.14,
2.691,0.09,-0.01,0.98,0.02,0.17,-0.14,
2.691,0.09,-0.01,0.98,0.06,0.18,-0.24,
2.693,0.09,-0.00,0.98,0.06,0.18,-0.24,
2.698,0.10,0.00,0.99,0.06,0.18,-0.24,
2.698,0.10,0.00,0.99,0.13,0.27,-0.18,
2.699,0.10,0.01,1.00,0.13,0.27,-0.18,
2.7,0.11,0.01,1.01,0.13,0.27,-0.18,
2.7,0.11,0.01,1.01,0.20,0.39,-0.08,
2.702,0.12,0.02,1.02,0.20,0.39,-0.08,
2.707,0.12,0.02,1.02,0.29,0.45,0.16,
2.707,0.13,0.03,1.02,0.29,0.45,0.16,
2.707,0.13,0.03,1.04,0.29,0.45,0.16,
2.71,0.14,0.03,1.05,0.29,0.45,0.16,
2.711,0.14,0.03,1.05,0.44,0.59,0.29,
2.718,0.14,0.04,1.04,0.44,0.59,0.29,
2.718,0.13,0.04,1.04,0.44,0.59,0.29,
2.719,0.13,0.04,1.04,0.55,0.61,0.48,
2.719,0.13,0.04,1.04,0.55,0.61,0.48,
2.719,0.13,0.04,1.04,0.55,0.61,0.48,
2.719,0.13,0.04,1.04,0.53,0.65,0.48,
2.722,0.12,0.04,1.03,0.53,0.65,0.48,
2.725,0.11,0.04,1.03,0.53,0.65,0.48,
2.725,0.11,0.04,1.03,0.46,0.65,0.44,
2.727,0.11,0.04,1.03,0.46,0.65,0.44,
2.73,0.11,0.04,1.03,0.34,0.67,0.37,
2.731,0.10,0.04,1.02,0.34,0.67,0.37,
2.732,0.09,0.04,1.02,0.34,0.67,0.37,
2.735,0.09,0.04,1.02,0.34,0.67,0.37,
2.735,0.09,0.04,1.02,0.24,0.63,0.30,
2.737,0.08,0.04,1.01,0.24,0.63,0.30,
2.74,0.06,0.03,1.01,0.24,0.63,0.30,
2.74,0.06,0.03,1.01,0.06,0.57,0.29,
2.742,0.05,0.02,1.00,0.06,0.57,0.29,
2.745,0.03,0.01,1.00,0.06,0.57,0.29,
2.745,0.03,0.01,1.00,-0.14,0.49,0.16,
2.747,0.02,0.00,1.00,-0.14,0.49,0.16,
2.75,0.01,-0.00,0.99,-0.14,0.49,0.16,
2.75,0.01,-0.00,0.99,-0.40,0.29,0.06,
2.753,0.00,-0.01,1.00,-0.40,0.29,0.06,
2.755,0.00,-0.01,1.00,-0.63,0.11,-0.01,
2.755,-0.00,-0.02,1.00,-0.63,0.11,-0.01,
2.757,-0.01,-0.04,1.00,-0.63,0.11,-0.01,
2.76,-0.02,-0.04,1.00,-0.63,0.11,-0.01,
2.76,-0.02,-0.04,1.00,-0.80,-0.08,0.02,
2.761,-0.03,-0.05,1.00,-0.80,-0.08,0.02,
2.765,-0.03,-0.06,1.00,-0.80,-0.08,0.02,
2.766,-0.03,-0.06,1.00,-0.98,-0.30,0.04,
2.767,-0.04,-0.07,1.00,-0.98,-0.30,0.04,
2.769,-0.05,-0.07,1.00,-0.98,-0.30,0.04,
2.769,-0.05,-0.07,1.00,-1.09,-0.44,0.04,
2.772,-0.06,-0.07,1.00,-1.09,-0.44,0.04,
2.775,-0.05,-0.07,1.00,-1.09,-0.44,0.04,
2.775,-0.05,-0.07,1.00,-1.22,-0.61,0.06,
2.777,-0.05,-0.07,1.00,-1.22,-0.61,0.06,
2.78,-0.05,-0.07,1.00,-1.29,-0.65,0.06,
2.78,-0.05,-0.07,1.00,-1.29,-0.65,0.06,
2.782,-0.04,-0.06,0.99,-1.29,-0.65,0.06,
2.784,-0.04,-0.06,0.99,-1.29,-0.65,0.06,
2.785,-0.04,-0.06,0.99,-1.25,-0.63,0.04,
2.787,-0.03,-0.06,0.98,-1.25,-0.63,0.04,
2.79,-0.03,-0.06,0.98,-1.16,-0.53,-0.02,
2.79,-0.03,-0.05,0.99,-1.16,-0.53,-0.02,
2.792,-0.02,-0.05,0.99,-1.16,-0.53,-0.02,
2.794,-0.01,-0.04,0.99,-1.16,-0.53,-0.02,
2.795,-0.01,-0.04,0.99,-1.08,-0.47,-0.07,
2.801,0.00,-0.03,0.99,-1.08,-0.47,-0.07,
2.801,0.02,-0.03,0.99,-1.08,-0.47,-0.07,
2.802,0.02,-0.03,0.99,-0.89,-0.39,-0.06,
2.802,0.03,-0.04,1.00,-0.89,-0.39,-0.06,
2.806,0.03,-0.04,1.00,-0.69,-0.29,-0.03,
2.806,0.03,-0.04,1.00,-0.69,-0.29,-0.03,
2.807,0.04,-0.03,1.01,-0.69,-0.29,-0.03,
2.809,0.04,-0.03,1.01,-0.69,-0.29,-0.03,
2.81,0.04,-0.03,1.01,-0.50,-0.32,0.07,
2.811,0.05,-0.04,1.01,-0.50,-0.32,0.07,
2.814,0.05,-0.03,1.02,-0.50,-0.32,0.07,
2.814,0.05,-0.03,1.02,-0.42,-0.30,0.15,
2.816,0.05,-0.03,1.02,-0.42,-0.30,0.15,
2.819,0.06,-0.03,1.02,-0.42,-0.30,0.15,
2.819,0.06,-0.03,1.02,-0.33,-0.34,0.20,
2.821,0.06,-0.03,1.01,-0.33,-0.34,0.20,
2.824,0.06,-0.02,1.01,-0.33,-0.34,0.20,
2.824,0.06,-0.02,1.01,-0.28,-0.30,0.22,
2.826,0.07,-0.02,1.00,-0.28,-0.30,0.22,
2.828,0.07,-0.02,1.00,-0.26,-0.28,0.16,
2.828,0.06,-0.02,1.00,-0.26,-0.28,0.16,
2.835,0.07,-0.01,0.99,-0.26,-0.28,0.16,
2.836,0.08,-0.00,0.98,-0.26,-0.28,0.16,
2.836,0.08,-0.00,0.98,-0.22,-0.24,0.04,
2.836,0.09,-0.00,0.97,-0.22,-0.24,0.04,
2.84,0.09,0.01,0.97,-0.22,-0.24,0.04,
2.841,0.09,0.01,0.97,-0.13,-0.13,-0.09,
2.841,0.10,0.01,0.97,-0.13,-0.13,-0.09,
2.843,0.11,0.01,0.96,-0.13,-0.13,-0.09,
2.843,0.11,0.01,0.96,-0.01,-0.07,-0.21,
2.846,0.12,0.02,0.96,-0.01,-0.07,-0.21,
2.849,0.12,0.02,0.96,-0.01,-0.07,-0.21,
2.849,0.12,0.02,0.96,0.14,-0.02,-0.28,
2.85,0.13,0.03,0.95,0.14,-0.02,-0.28,
2.854,0.13,0.03,0.95,0.26,0.06,-0.36,
2.854,0.13,0.04,0.96,0.26,0.06,-0.36,
2.856,0.14,0.04,0.95,0.26,0.06,-0.36,
2.859,0.14,0.04,0.95,0.26,0.06,-0.36,
2.859,0.14,0.04,0.95,0.33,0.17,-0.36,
2.862,0.15,0.04,0.95,0.33,0.17,-0.36,
2.863,0.15,0.05,0.95,0.33,0.17,-0.36,
2.864,0.15,0.05,0.95,0.44,0.23,-0.40,
2.866,0.16,0.05,0.95,0.44,0.23,-0.40,
2.868,0.16,0.05,0.95,0.44,0.23,-0.40,
2.869,0.16,0.05,0.95,0.52,0.25,-0.40,
2.87,0.16,0.05,0.94,0.52,0.25,-0.40,
2.873,0.16,0.05,0.94,0.52,0.25,-0.40,
2.873,0.16,0.05,0.94,0.57,0.31,-0.40,
2.877,0.15,0.05,0.94,0.57,0.31,-0.40,
2.881,0.15,0.05,0.94,0.56,0.27,-0.54,
2.881,0.15,0.05,0.94,0.56,0.27,-0.54,
2.881,0.14,0.05,0.94,0.56,0.27,-0.54,
2.883,0.14,0.04,0.95,0.56,0.27,-0.54,
2.884,0.14,0.04,0.95,0.50,0.29,-0.51,
2.885,0.13,0.04,0.95,0.50,0.29,-0.51,
2.889,0.13,0.04,0.95,0.50,0.29,-0.51,
2.889,0.13,0.04,0.95,0.39,0.23,-0.48,
2.891,0.12,0.04,0.96,0.39,0.23,-0.48,
2.893,0.11,0.03,0.96,0.39,0.23,-0.48,
2.894,0.11,0.03,0.96,0.30,0.17,-0.42,
2.895,0.11,0.02,0.96,0.30,0.17,-0.42,
2.898,0.09,0.02,0.97,0.30,0.17,-0.42,
2.898,0.09,0.02,0.97,0.15,0.10,-0.32,
2.901,0.08,0.01,0.99,0.15,0.10,-0.32,
2.903,0.08,0.01,0.99,-0.01,0.00,-0.22,
2.903,0.07,0.01,1.00,-0.01,0.00,-0.22,
2.906,0.06,0.00,1.02,-0.01,0.00,-0.22,
2.908,0.06,0.00,1.02,-0.23,-0.09,0.07,
2.909,0.05,-0.00,1.04,-0.23,-0.09,0.07,
2.911,0.05,-0.01,1.06,-0.23,-0.09,0.07,
2.915,0.04,-0.01,1.08,-0.23,-0.09,0.07,
2.915,0.04,-0.01,1.08,-0.40,-0.22,0.40,
2.916,0.03,-0.01,1.09,-0.40,-0.22,0.40,
2.918,0.03,-0.01,1.11,-0.40,-0.22,0.40,
2.918,0.03,-0.01,1.11,-0.52,-0.29,0.78,
2.92,0.02,-0.02,1.11,-0.52,-0.29,0.78,
2.924,0.01,-0.03,1.12,-0.52,-0.29,0.78,
2.924,0.01,-0.03,1.12,-0.66,-0.33,1.06,
2.924,0.00,-0.03,1.12,-0.66,-0.33,1.06,
2.928,0.00,-0.03,1.12,-0.79,-0.45,1.21,
2.928,0.00,-0.04,1.11,-0.79,-0.45,1.21,
2.935,-0.00,-0.04,1.10,-0.79,-0.45,1.21,
2.936,-0.01,-0.05,1.10,-0.79,-0.45,1.21,
2.936,-0.01,-0.05,1.10,-0.92,-0.55,1.18,
2.936,-0.01,-0.04,1.09,-0.92,-0.55,1.18,
2.937,-0.02,-0.05,1.08,-0.92,-0.55,1.18,
2.938,-0.02,-0.05,1.08,-0.98,-0.64,1.03,
2.94,-0.02,-0.05,1.07,-0.98,-0.64,1.03,
2.942,-0.02,-0.04,1.06,-0.98,-0.64,1.03,
2.943,-0.02,-0.04,1.06,-1.11,-0.66,0.91,
2.945,-0.05,-0.05,0.99,-1.11,-0.66,0.91,
2.947,-0.10,-0.06,0.83,-1.11,-0.66,0.91,
2.947,-0.10,-0.06,0.83,-1.16,-0.66,0.70,
2.95,-0.06,-0.02,0.66,-1.16,-0.66,0.70,
2.952,-0.06,-0.02,0.66,-1.69,-0.77,-0.83,
2.953,0.00,0.03,0.55,-1.69,-0.77,-0.83,
2.955,0.03,0.04,0.52,-1.69,-0.77,-0.83,
2.958,0.06,0.04,0.55,-1.69,-0.77,-0.83,
2.958,0.06,0.04,0.55,-1.20,-0.18,-3.78,
2.96,0.09,0.04,0.61,-1.20,-0.18,-3.78,
2.962,0.12,0.03,0.68,-1.20,-0.18,-3.78,
2.963,0.12,0.03,0.68,-0.45,0.22,-4.47,
2.965,0.15,0.01,0.77,-0.45,0.22,-4.47,
2.968,0.17,-0.00,0.86,-0.45,0.22,-4.47,
2.968,0.17,-0.00,0.86,0.16,0.14,-3.39,
2.969,0.17,-0.01,0.94,0.16,0.14,-3.39,
2.972,0.17,-0.02,0.99,0.16,0.14,-3.39,
2.972,0.17,-0.02,0.99,0.75,-0.10,-1.69,
2.975,0.16,-0.02,1.04,0.75,-0.10,-1.69,
2.977,0.16,-0.02,1.04,0.85,-0.21,-0.28,
2.977,0.15,-0.02,1.08,0.85,-0.21,-0.28,
2.982,0.13,-0.02,1.11,0.85,-0.21,-0.28,
2.982,0.12,-0.02,1.12,0.85,-0.21,-0.28,
2.982,0.12,-0.02,1.12,0.70,-0.24,0.67,
2.988,0.11,-0.01,1.14,0.70,-0.24,0.67,
2.988,0.09,-0.01,1.14,0.70,-0.24,0.67,
2.989,0.09,-0.01,1.14,0.44,-0.16,1.22,
2.989,0.08,-0.01,1.14,0.44,-0.16,1.22,
2.993,0.08,-0.01,1.14,0.20,-0.02,1.42,
2.993,0.08,-0.00,1.14,0.20,-0.02,1.42,
2.994,0.08,0.01,1.13,0.20,-0.02,1.42,
3.003,0.09,0.02,1.12,0.20,-0.02,1.42,
3.003,0.09,0.02,1.12,0.03,0.11,1.43,
3.003,0.09,0.02,1.11,0.03,0.11,1.43,
3.004,0.10,0.02,1.10,0.03,0.11,1.43,
3.004,0.10,0.02,1.10,0.06,0.29,1.27,
3.004,0.11,0.01,1.11,0.06,0.29,1.27,
3.019,0.12,0.02,1.11,0.06,0.29,1.27,
3.019,0.12,0.02,1.11,0.18,0.38,1.07,
3.02,0.13,0.01,1.11,0.18,0.38,1.07,
3.02,0.13,0.01,1.11,0.18,0.38,1.07,
3.02,0.13,0.01,1.11,0.35,0.33,1.13,
3.02,0.14,0.01,1.11,0.35,0.33,1.13,
3.021,0.14,0.01,1.11,0.46,0.28,1.13,
3.021,0.14,0.01,1.11,0.46,0.28,1.13,
3.021,0.15,0.00,1.11,0.46,0.28,1.13,
3.022,0.15,-0.00,1.09,0.46,0.28,1.13,
3.022,0.15,-0.00,1.09,0.57,0.23,1.11,
3.024,0.15,-0.00,1.08,0.57,0.23,1.11,
3.027,0.15,-0.01,1.07,0.57,0.23,1.11,
3.027,0.15,-0.01,1.07,0.61,0.14,1.05,
3.035,0.14,-0.02,1.05,0.61,0.14,1.05,
3.035,0.14,-0.04,1.04,0.61,0.14,1.05,
3.035,0.14,-0.04,1.04,0.59,0.06,0.82,
3.036,0.13,-0.05,1.01,0.59,0.06,0.82,
3.036,0.13,-0.05,1.01,0.48,-0.25,0.49,
3.036,0.12,-0.04,0.98,0.48,-0.25,0.49,
3.039,0.09,-0.02,0.96,0.48,-0.25,0.49,
3.042,0.09,-0.02,0.96,0.29,-0.40,0.03,
3.042,0.07,-0.00,0.95,0.29,-0.40,0.03,
3.044,0.05,0.01,0.93,0.29,-0.40,0.03,
3.056,0.05,0.01,0.92,0.29,-0.40,0.03,
3.056,0.05,0.01,0.92,-0.18,-0.12,-0.39,
3.056,0.04,0.01,0.92,-0.18,-0.12,-0.39,
3.056,0.04,0.00,0.92,-0.18,-0.12,-0.39,
3.057,0.04,0.00,0.92,-0.47,0.00,-0.65,
3.057,0.05,-0.01,0.92,-0.47,0.00,-0.65,
3.057,0.06,-0.02,0.93,-0.47,0.00,-0.65,
3.057,0.06,-0.02,0.93,-0.55,-0.03,-0.73,
3.058,0.07,-0.03,0.94,-0.55,-0.03,-0.73,
3.061,0.07,-0.03,0.95,-0.55,-0.03,-0.73,
3.061,0.07,-0.03,0.95,-0.44,-0.26,-0.66,
3.08,0.07,-0.04,0.96,-0.44,-0.26,-0.66,
3.081,0.07,-0.04,0.96,-0.29,-0.41,-0.48,
3.081,0.07,-0.04,0.98,-0.29,-0.41,-0.48,
3.081,0.07,-0.05,0.99,-0.29,-0.41,-0.48,
3.082,0.07,-0.04,1.00,-0.29,-0.41,-0.48,
3.082,0.07,-0.04,1.00,-0.25,-0.56,-0.24,
3.082,0.06,-0.04,1.01,-0.25,-0.56,-0.24,
3.083,0.06,-0.03,1.01,-0.25,-0.56,-0.24,
3.083,0.06,-0.03,1.01,-0.29,-0.59,-0.01,
3.083,0.05,-0.03,1.02,-0.29,-0.59,-0.01,
3.083,0.04,-0.03,1.03,-0.29,-0.59,-0.01,
3.084,0.04,-0.03,1.03,-0.32,-0.50,0.19,
3.084,0.04,-0.02,1.03,-0.32,-0.50,0.19,
