
time,gFx,gFy,gFz,ax,ay,az,
0.013,-0.02,0.15,0.99,-0.02,-0.03,-0.07,
0.013,-0.02,0.15,0.99,-0.07,-0.08,-0.07,
0.013,-0.02,0.15,0.99,-0.07,-0.08,-0.07,
0.013,-0.02,0.15,1.00,-0.07,-0.08,-0.07,
0.014,-0.02,0.15,1.00,-0.09,-0.09,0.01,
0.014,-0.02,0.15,1.00,-0.09,-0.09,0.01,
0.014,-0.02,0.15,1.00,-0.09,-0.09,0.01,
0.014,-0.02,0.15,1.00,-0.14,-0.07,0.05,
0.014,-0.02,0.15,1.01,-0.14,-0.07,0.05,
0.014,-0.02,0.15,1.01,-0.14,-0.07,0.05,
0.014,-0.02,0.15,1.01,-0.14,-0.04,0.12,
0.014,-0.02,0.15,1.01,-0.14,-0.04,0.12,
0.017,-0.02,0.15,1.01,-0.14,-0.04,0.12,
0.017,-0.02,0.15,1.01,-0.17,-0.02,0.17,
0.019,-0.01,0.15,1.01,-0.17,-0.02,0.17,
0.027,-0.01,0.15,1.01,-0.11,-0.02,0.18,
0.027,-0.01,0.15,1.01,-0.11,-0.02,0.18,
0.027,-0.02,0.15,1.00,-0.11,-0.02,0.18,
0.028,-0.01,0.15,1.01,-0.11,-0.02,0.18,
0.028,-0.01,0.15,1.01,-0.06,-0.01,0.19,
0.028,-0.01,0.15,1.01,-0.06,-0.01,0.19,
0.031,-0.01,0.15,1.00,-0.06,-0.01,0.19,
0.032,-0.01,0.15,1.00,-0.06,-0.02,0.14,
0.034,-0.01,0.15,1.00,-0.06,-0.02,0.14,
0.046,-0.01,0.15,0.99,-0.06,-0.02,0.14,
0.047,-0.01,0.15,0.99,-0.00,-0.02,0.13,
0.047,-0.01,0.16,0.98,-0.00,-0.02,0.13,
0.047,-0.02,0.16,0.97,-0.00,-0.02,0.13,
0.047,-0.02,0.16,0.97,-0.03,-0.02,0.02,
0.047,-0.02,0.16,0.96,-0.03,-0.02,0.02,
0.048,-0.02,0.15,0.95,-0.03,-0.02,0.02,
0.048,-0.02,0.15,0.95,-0.05,0.05,-0.13,
0.049,-0.03,0.16,0.94,-0.05,0.05,-0.13,
0.051,-0.02,0.16,0.93,-0.05,0.05,-0.13,
0.052,-0.02,0.16,0.93,-0.12,0.03,-0.34,
0.062,-0.03,0.16,0.92,-0.12,0.03,-0.34,
0.063,-0.03,0.16,0.92,-0.12,0.03,-0.34,
0.063,-0.03,0.16,0.92,-0.15,0.06,-0.53,
0.063,-0.03,0.16,0.91,-0.15,0.06,-0.53,
0.063,-0.02,0.16,0.91,-0.15,0.06,-0.53,
0.064,-0.02,0.16,0.91,-0.15,0.11,-0.70,
0.064,-0.02,0.17,0.90,-0.15,0.11,-0.70,
0.067,-0.02,0.16,0.91,-0.15,0.11,-0.70,
0.067,-0.02,0.16,0.91,-0.13,0.11,-0.78,
0.069,-0.02,0.16,0.91,-0.13,0.11,-0.78,
0.078,-0.01,0.16,0.93,-0.13,0.11,-0.78,
0.078,-0.01,0.16,0.93,-0.09,0.15,-0.82,
0.079,-0.01,0.16,0.93,-0.09,0.15,-0.82,
0.079,-0.01,0.16,0.95,-0.09,0.15,-0.82,
0.079,-0.01,0.16,0.95,-0.03,0.12,-0.67,
0.079,-0.01,0.16,0.97,-0.03,0.12,-0.67,
0.081,-0.01,0.15,0.98,-0.03,0.12,-0.67,
0.081,-0.01,0.15,0.98,-0.02,0.10,-0.46,
0.084,-0.01,0.15,0.99,-0.02,0.10,-0.46,
0.086,-0.01,0.15,1.00,-0.02,0.10,-0.46,
0.087,-0.01,0.15,1.00,0.01,0.06,-0.17,
0.096,-0.00,0.15,1.00,0.01,0.06,-0.17,
0.097,-0.00,0.14,1.01,0.01,0.06,-0.17,
0.097,-0.00,0.14,1.01,0.05,0.08,0.05,
0.097,-0.00,0.14,1.01,0.05,0.08,0.05,
0.098,-0.00,0.14,1.01,0.08,0.05,0.16,
0.098,-0.00,0.15,1.02,0.08,0.05,0.16,
0.098,0.00,0.14,1.02,0.08,0.05,0.16,
0.101,0.00,0.14,1.02,0.08,0.05,0.16,
0.101,0.00,0.14,1.02,0.10,0.04,0.26,
0.103,0.00,0.14,1.03,0.10,0.04,0.26,
0.112,0.00,0.14,1.03,0.10,0.04,0.26,
0.113,0.00,0.14,1.03,0.13,0.03,0.30,
0.113,0.00,0.13,1.02,0.13,0.03,0.30,
0.113,0.00,0.13,1.02,0.13,0.03,0.30,
0.114,0.00,0.13,1.02,0.14,0.01,0.36,
0.114,-0.00,0.13,1.02,0.14,0.01,0.36,
0.116,-0.00,0.13,1.02,0.14,0.01,0.36,
0.116,-0.00,0.13,1.02,0.15,-0.04,0.30,
0.118,-0.01,0.13,1.02,0.15,-0.04,0.30,
0.128,-0.01,0.13,1.00,0.15,-0.04,0.30,
0.129,-0.01,0.13,1.00,0.12,-0.06,0.28,
0.129,-0.01,0.13,1.01,0.12,-0.06,0.28,
0.13,-0.02,0.13,1.01,0.12,-0.06,0.28,
0.13,-0.02,0.13,1.01,0.08,-0.05,0.18,
0.13,-0.02,0.13,1.01,0.08,-0.05,0.18,
0.13,-0.02,0.14,1.01,0.08,-0.05,0.18,
0.131,-0.02,0.14,1.01,-0.01,-0.07,0.15,
0.133,-0.02,0.13,1.01,-0.01,-0.07,0.15,
0.136,-0.02,0.14,1.01,-0.01,-0.07,0.15,
0.137,-0.02,0.14,1.01,-0.07,0.03,0.20,
0.144,-0.03,0.14,1.01,-0.07,0.03,0.20,
0.145,-0.03,0.13,1.02,-0.07,0.03,0.20,
0.145,-0.03,0.13,1.02,-0.08,0.03,0.21,
0.145,-0.03,0.13,1.02,-0.08,0.03,0.21,
0.146,-0.02,0.13,1.02,-0.08,0.03,0.21,
0.146,-0.02,0.13,1.02,-0.12,0.03,0.24,
0.148,-0.02,0.13,1.02,-0.12,0.03,0.24,
0.151,-0.02,0.13,1.01,-0.12,0.03,0.24,
0.151,-0.02,0.13,1.01,-0.11,0.00,0.26,
0.153,-0.02,0.14,1.01,-0.11,0.00,0.26,
0.166,-0.02,0.13,1.01,-0.11,0.00,0.26,
0.166,-0.02,0.13,1.01,-0.03,-0.01,0.19,
0.167,-0.01,0.14,1.00,-0.03,-0.01,0.19,
0.167,-0.01,0.14,1.00,-0.03,-0.01,0.19,
0.17,-0.01,0.14,1.00,-0.00,0.03,0.17,
0.171,-0.02,0.15,1.00,-0.00,0.03,0.17,
0.171,-0.02,0.15,1.00,-0.00,0.03,0.17,
0.171,-0.02,0.15,1.00,0.06,0.09,0.08,
0.171,-0.02,0.16,0.99,0.06,0.09,0.08,
0.172,-0.02,0.16,0.99,0.06,0.09,0.08,
0.172,-0.02,0.16,0.99,-0.02,0.18,0.10,
0.172,-0.02,0.16,0.99,-0.02,0.18,0.10,
0.18,-0.03,0.16,0.98,-0.02,0.18,0.10,
0.18,-0.03,0.16,0.98,-0.03,0.24,-0.01,
0.18,-0.02,0.16,0.99,-0.03,0.24,-0.01,
0.18,-0.02,0.16,0.98,-0.03,0.24,-0.01,
0.181,-0.02,0.16,0.98,-0.06,0.28,-0.06,
0.183,-0.02,0.16,0.98,-0.06,0.28,-0.06,
0.185,-0.02,0.15,0.98,-0.06,0.28,-0.06,
0.186,-0.02,0.15,0.98,-0.01,0.29,-0.08,
0.195,-0.01,0.15,0.98,-0.01,0.29,-0.08,
0.196,-0.02,0.15,0.97,-0.01,0.29,-0.08,
0.196,-0.02,0.15,0.97,-0.00,0.23,-0.13,
0.196,-0.02,0.15,0.98,-0.00,0.23,-0.13,
0.197,-0.02,0.15,0.98,-0.00,0.23,-0.13,
0.197,-0.02,0.15,0.98,0.04,0.19,-0.16,
0.197,-0.03,0.14,0.99,0.04,0.19,-0.16,
0.2,-0.03,0.14,0.99,0.04,0.19,-0.16,
0.2,-0.03,0.14,0.99,-0.01,0.15,-0.13,
0.202,-0.03,0.14,0.99,-0.01,0.15,-0.13,
0.209,-0.04,0.13,0.99,-0.01,0.15,-0.13,
0.209,-0.04,0.13,0.99,-0.04,0.10,-0.07,
0.209,-0.04,0.13,0.99,-0.04,0.10,-0.07,
0.21,-0.04,0.13,1.00,-0.04,0.10,-0.07,
0.21,-0.04,0.13,1.00,-0.11,0.05,-0.02,
0.212,-0.04,0.12,1.00,-0.11,0.05,-0.02,
0.214,-0.05,0.11,1.00,-0.11,0.05,-0.02,
0.215,-0.05,0.11,1.00,-0.16,-0.01,0.03,
0.217,-0.05,0.11,1.01,-0.16,-0.01,0.03,
0.219,-0.06,0.11,1.01,-0.16,-0.01,0.03,
0.219,-0.06,0.11,1.01,-0.21,-0.09,0.07,
0.228,-0.06,0.11,1.01,-0.21,-0.09,0.07,
0.229,-0.06,0.11,1.02,-0.21,-0.09,0.07,
0.229,-0.06,0.11,1.02,-0.28,-0.14,0.13,
0.229,-0.08,0.11,1.01,-0.28,-0.14,0.13,
0.229,-0.08,0.11,1.02,-0.28,-0.14,0.13,
0.229,-0.08,0.11,1.02,-0.33,-0.17,0.19,
0.232,-0.08,0.11,1.02,-0.33,-0.17,0.19,
0.234,-0.08,0.11,1.02,-0.33,-0.17,0.19,
0.234,-0.08,0.11,1.02,-0.48,-0.18,0.22,
0.237,-0.09,0.11,1.02,-0.48,-0.18,0.22,
0.245,-0.10,0.11,1.01,-0.48,-0.18,0.22,
0.245,-0.10,0.11,1.01,-0.50,-0.17,0.25,
0.246,-0.11,0.11,1.02,-0.50,-0.17,0.25,
0.246,-0.11,0.11,1.02,-0.50,-0.17,0.25,
0.246,-0.11,0.11,1.02,-0.61,-0.15,0.23,
0.246,-0.11,0.11,1.02,-0.61,-0.15,0.23,
0.249,-0.12,0.11,1.02,-0.61,-0.15,0.23,
0.249,-0.12,0.11,1.02,-0.70,-0.16,0.23,
0.252,-0.12,0.11,1.02,-0.70,-0.16,0.23,
0.254,-0.12,0.11,1.01,-0.70,-0.16,0.23,
0.254,-0.12,0.11,1.01,-0.78,-0.14,0.23,
0.26,-0.12,0.11,1.01,-0.78,-0.14,0.23,
0.26,-0.13,0.11,1.00,-0.78,-0.14,0.23,
0.261,-0.13,0.11,1.00,-0.80,-0.12,0.17,
0.261,-0.12,0.11,1.00,-0.80,-0.12,0.17,
0.264,-0.13,0.11,1.00,-0.80,-0.12,0.17,
0.264,-0.13,0.11,1.00,-0.82,-0.12,0.10,
0.267,-0.14,0.11,1.00,-0.82,-0.12,0.10,
0.269,-0.14,0.11,1.00,-0.82,-0.08,0.06,
0.27,-0.13,0.11,0.99,-0.82,-0.08,0.06,
0.271,-0.13,0.11,1.00,-0.82,-0.08,0.06,
0.283,-0.13,0.11,1.00,-0.82,-0.08,0.06,
0.284,-0.13,0.11,1.00,-0.87,-0.11,0.01,
0.284,-0.14,0.11,0.99,-0.87,-0.11,0.01,
0.284,-0.13,0.11,0.99,-0.87,-0.11,0.01,
0.284,-0.13,0.11,0.99,-0.84,-0.07,0.01,
0.285,-0.13,0.11,1.00,-0.84,-0.07,0.01,
0.285,-0.14,0.10,1.00,-0.84,-0.07,0.01,
0.285,-0.14,0.10,1.00,-0.85,-0.06,-0.03,
0.287,-0.14,0.11,1.00,-0.85,-0.06,-0.03,
0.295,-0.13,0.10,1.01,-0.85,-0.06,-0.03,
0.295,-0.13,0.10,1.01,-0.82,-0.11,0.04,
0.296,-0.13,0.10,1.01,-0.82,-0.11,0.04,
0.296,-0.13,0.10,1.01,-0.81,-0.11,0.09,
0.296,-0.13,0.09,1.01,-0.81,-0.11,0.09,
0.296,-0.13,0.08,1.01,-0.81,-0.11,0.09,
0.299,-0.13,0.08,1.02,-0.81,-0.11,0.09,
0.299,-0.13,0.08,1.02,-0.78,-0.22,0.14,
0.301,-0.13,0.07,1.02,-0.78,-0.22,0.14,
0.304,-0.13,0.07,1.03,-0.78,-0.22,0.14,
0.304,-0.13,0.07,1.03,-0.78,-0.32,0.22,
0.314,-0.13,0.06,1.03,-0.78,-0.32,0.22,
0.315,-0.13,0.06,1.04,-0.78,-0.32,0.22,
0.315,-0.13,0.06,1.04,-0.72,-0.41,0.31,
0.315,-0.13,0.06,1.04,-0.72,-0.41,0.31,
0.315,-0.13,0.06,1.05,-0.72,-0.41,0.31,
0.315,-0.13,0.06,1.05,-0.74,-0.49,0.39,
0.316,-0.13,0.05,1.05,-0.74,-0.49,0.39,
0.319,-0.13,0.05,1.06,-0.74,-0.49,0.39,
0.319,-0.13,0.05,1.06,-0.73,-0.48,0.50,
0.328,-0.13,0.05,1.06,-0.73,-0.48,0.50,
0.328,-0.14,0.05,1.06,-0.73,-0.48,0.50,
0.328,-0.14,0.05,1.06,-0.73,-0.56,0.57,
0.33,-0.14,0.05,1.07,-0.73,-0.56,0.57,
0.331,-0.15,0.05,1.07,-0.73,-0.56,0.57,
0.331,-0.15,0.05,1.07,-0.77,-0.52,0.63,
0.331,-0.15,0.05,1.07,-0.77,-0.52,0.63,
0.333,-0.15,0.05,1.07,-0.77,-0.52,0.63,
0.334,-0.15,0.05,1.07,-0.84,-0.53,0.69,
0.335,-0.16,0.05,1.06,-0.84,-0.53,0.69,
0.343,-0.16,0.05,1.05,-0.84,-0.53,0.69,
0.343,-0.16,0.05,1.05,-0.91,-0.54,0.65,
0.344,-0.17,0.05,1.04,-0.91,-0.54,0.65,
0.344,-0.17,0.05,1.04,-0.91,-0.54,0.65,
0.344,-0.17,0.05,1.04,-0.97,-0.51,0.57,
0.345,-0.17,0.06,1.03,-0.97,-0.51,0.57,
0.348,-0.17,0.06,1.03,-1.04,-0.50,0.41,
0.348,-0.18,0.06,1.03,-1.04,-0.50,0.41,
0.351,-0.19,0.06,1.03,-1.04,-0.50,0.41,
0.353,-0.19,0.05,1.03,-1.04,-0.50,0.41,
0.354,-0.19,0.05,1.03,-1.13,-0.44,0.29,
0.359,-0.19,0.05,1.02,-1.13,-0.44,0.29,
0.36,-0.19,0.05,1.02,-1.13,-0.44,0.29,
0.36,-0.19,0.05,1.02,-1.26,-0.48,0.28,
0.36,-0.18,0.05,1.01,-1.26,-0.48,0.28,
0.363,-0.18,0.05,1.01,-1.26,-0.48,0.28,
0.363,-0.18,0.05,1.01,-1.23,-0.50,0.18,
0.365,-0.17,0.05,1.01,-1.23,-0.50,0.18,
0.367,-0.17,0.05,1.01,-1.23,-0.50,0.18,
0.368,-0.17,0.05,1.01,-1.13,-0.51,0.07,
0.37,-0.16,0.05,1.00,-1.13,-0.51,0.07,
0.381,-0.16,0.05,1.00,-1.13,-0.51,0.07,
0.382,-0.16,0.05,1.00,-1.06,-0.54,0.08,
0.382,-0.15,0.06,0.99,-1.06,-0.54,0.08,
0.382,-0.15,0.06,0.99,-1.06,-0.54,0.08,
0.383,-0.15,0.06,0.99,-0.95,-0.53,-0.05,
0.383,-0.15,0.07,0.99,-0.95,-0.53,-0.05,
0.383,-0.15,0.07,1.00,-0.95,-0.53,-0.05,
0.384,-0.15,0.07,1.00,-0.85,-0.44,-0.09,
0.385,-0.14,0.08,1.00,-0.85,-0.44,-0.09,
0.397,-0.14,0.08,0.99,-0.85,-0.44,-0.09,
0.398,-0.14,0.08,0.99,-0.84,-0.36,-0.07,
0.398,-0.14,0.09,1.00,-0.84,-0.36,-0.07,
0.398,-0.14,0.09,1.01,-0.84,-0.36,-0.07,
0.399,-0.14,0.09,1.01,-0.74,-0.23,-0.05,
0.399,-0.14,0.09,1.00,-0.74,-0.23,-0.05,
0.399,-0.14,0.09,1.00,-0.74,-0.23,-0.05,
0.399,-0.14,0.09,1.00,-0.74,-0.18,0.01,
0.4,-0.13,0.09,1.00,-0.74,-0.18,0.01,
0.402,-0.12,0.09,1.00,-0.74,-0.18,0.01,
0.402,-0.12,0.09,1.00,-0.70,-0.16,-0.02,
0.414,-0.12,0.09,1.00,-0.70,-0.16,-0.02,
0.415,-0.12,0.09,1.01,-0.70,-0.16,-0.02,
0.415,-0.12,0.09,1.01,-0.62,-0.16,-0.01,
0.415,-0.12,0.09,1.01,-0.62,-0.16,-0.01,
0.415,-0.11,0.09,1.01,-0.62,-0.16,-0.01,
0.416,-0.11,0.09,1.01,-0.54,-0.18,0.05,
0.416,-0.12,0.08,1.01,-0.54,-0.18,0.05,
0.418,-0.12,0.08,1.01,-0.52,-0.19,0.07,
0.418,-0.12,0.09,1.02,-0.52,-0.19,0.07,
0.419,-0.12,0.09,1.02,-0.52,-0.19,0.07,
0.429,-0.12,0.09,1.03,-0.52,-0.19,0.07,
0.43,-0.12,0.09,1.03,-0.52,-0.20,0.15,
0.43,-0.12,0.09,1.03,-0.52,-0.20,0.15,
0.43,-0.13,0.09,1.03,-0.52,-0.20,0.15,
0.431,-0.13,0.09,1.03,-0.53,-0.18,0.24,
0.431,-0.13,0.09,1.03,-0.53,-0.18,0.24,
0.432,-0.13,0.10,1.03,-0.53,-0.18,0.24,
0.432,-0.13,0.10,1.03,-0.60,-0.14,0.28,
0.434,-0.12,0.10,1.03,-0.60,-0.14,0.28,
0.437,-0.12,0.10,1.02,-0.60,-0.14,0.28,
0.437,-0.12,0.10,1.02,-0.62,-0.12,0.25,
0.443,-0.13,0.10,1.02,-0.62,-0.12,0.25,
0.444,-0.13,0.11,1.03,-0.62,-0.12,0.25,
0.444,-0.13,0.11,1.03,-0.59,-0.06,0.23,
0.445,-0.13,0.11,1.03,-0.59,-0.06,0.23,
0.447,-0.13,0.11,1.03,-0.63,-0.04,0.22,
0.447,-0.13,0.10,1.03,-0.63,-0.04,0.22,
0.449,-0.13,0.11,1.01,-0.63,-0.04,0.22,
0.451,-0.13,0.12,1.01,-0.63,-0.04,0.22,
0.452,-0.13,0.12,1.01,-0.66,-0.05,0.23,
0.454,-0.13,0.12,1.01,-0.66,-0.05,0.23,
0.461,-0.14,0.12,1.01,-0.66,-0.05,0.23,
0.462,-0.14,0.12,1.01,-0.69,0.03,0.11,
0.462,-0.13,0.12,1.00,-0.69,0.03,0.11,
0.462,-0.13,0.12,1.00,-0.69,0.03,0.11,
0.463,-0.13,0.12,1.00,-0.71,0.06,0.08,
0.464,-0.13,0.12,1.00,-0.71,0.06,0.08,
0.467,-0.13,0.12,1.00,-0.65,0.05,-0.06,
0.467,-0.12,0.12,0.99,-0.65,0.05,-0.06,
0.469,-0.12,0.11,0.98,-0.65,0.05,-0.06,
0.483,-0.12,0.12,0.99,-0.65,0.05,-0.06,
0.484,-0.12,0.12,0.99,-0.61,0.03,-0.07,
0.484,-0.12,0.12,0.98,-0.61,0.03,-0.07,
0.485,-0.11,0.12,0.98,-0.61,0.03,-0.07,
0.485,-0.11,0.12,0.98,-0.55,0.03,-0.16,
0.485,-0.11,0.12,0.99,-0.55,0.03,-0.16,
0.485,-0.11,0.12,0.99,-0.55,0.03,-0.16,
0.485,-0.11,0.12,0.99,-0.48,0.05,-0.18,
0.486,-0.10,0.12,0.99,-0.48,0.05,-0.18,
0.486,-0.10,0.13,0.99,-0.48,0.05,-0.18,
0.486,-0.10,0.13,0.99,-0.43,0.06,-0.13,
0.496,-0.10,0.13,0.99,-0.43,0.06,-0.13,
0.5,-0.10,0.12,1.00,-0.43,0.06,-0.13,
0.5,-0.10,0.12,1.00,-0.38,0.08,-0.13,
0.501,-0.10,0.12,1.00,-0.38,0.08,-0.13,
0.501,-0.10,0.12,1.00,-0.38,0.08,-0.13,
0.501,-0.10,0.12,1.00,-0.38,0.09,-0.04,
0.502,-0.10,0.12,1.01,-0.38,0.09,-0.04,
0.502,-0.10,0.12,1.01,-0.38,0.09,-0.04,
0.503,-0.10,0.12,1.01,-0.36,0.04,-0.00,
0.504,-0.10,0.12,1.01,-0.36,0.04,-0.00,
0.513,-0.10,0.11,1.01,-0.36,0.04,-0.00,
0.514,-0.10,0.11,1.01,-0.39,0.04,0.09,
0.515,-0.11,0.11,1.01,-0.39,0.04,0.09,
0.515,-0.10,0.11,1.01,-0.39,0.04,0.09,
0.515,-0.10,0.11,1.01,-0.40,-0.06,0.11,
0.516,-0.11,0.10,1.02,-0.40,-0.06,0.11,
0.516,-0.11,0.10,1.02,-0.45,-0.11,0.11,
0.516,-0.11,0.10,1.02,-0.45,-0.11,0.11,
0.519,-0.10,0.10,1.02,-0.45,-0.11,0.11,
0.525,-0.11,0.10,1.01,-0.45,-0.11,0.11,
0.525,-0.11,0.10,1.01,-0.44,-0.19,0.14,
0.526,-0.11,0.10,1.01,-0.44,-0.19,0.14,
0.526,-0.11,0.09,1.01,-0.44,-0.19,0.14,
0.526,-0.11,0.09,1.01,-0.45,-0.22,0.14,
0.53,-0.12,0.10,1.00,-0.45,-0.22,0.14,
0.531,-0.13,0.10,1.00,-0.45,-0.22,0.14,
0.532,-0.13,0.10,1.00,-0.52,-0.25,0.07,
0.534,-0.13,0.10,1.00,-0.52,-0.25,0.07,
0.537,-0.13,0.11,0.99,-0.52,-0.25,0.07,
0.537,-0.13,0.11,0.99,-0.61,-0.23,0.02,
0.539,-0.13,0.10,0.99,-0.61,-0.23,0.02,
0.545,-0.14,0.11,0.98,-0.61,-0.23,0.02,
0.545,-0.14,0.11,0.98,-0.68,-0.18,-0.07,
0.545,-0.14,0.11,0.97,-0.68,-0.18,-0.07,
0.546,-0.14,0.11,0.97,-0.68,-0.18,-0.07,
0.547,-0.14,0.11,0.97,-0.70,-0.15,-0.18,
0.549,-0.15,0.11,0.96,-0.70,-0.15,-0.18,
0.551,-0.15,0.12,0.95,-0.70,-0.15,-0.18,
0.551,-0.15,0.12,0.95,-0.80,-0.12,-0.29,
0.554,-0.15,0.11,0.95,-0.80,-0.12,-0.29,
0.556,-0.15,0.11,0.94,-0.80,-0.12,-0.29,
0.556,-0.15,0.11,0.94,-0.84,-0.09,-0.42,
0.562,-0.15,0.11,0.93,-0.84,-0.09,-0.42,
0.563,-0.16,0.11,0.93,-0.84,-0.09,-0.42,
0.563,-0.16,0.11,0.93,-0.87,-0.11,-0.51,
0.563,-0.16,0.11,0.93,-0.87,-0.11,-0.51,
0.566,-0.16,0.11,0.93,-0.88,-0.13,-0.66,
0.567,-0.16,0.11,0.93,-0.88,-0.13,-0.66,
0.569,-0.16,0.11,0.93,-0.88,-0.13,-0.66,
0.571,-0.16,0.12,0.93,-0.88,-0.13,-0.66,
0.571,-0.16,0.12,0.93,-0.88,-0.12,-0.71,
0.577,-0.16,0.12,0.93,-0.88,-0.12,-0.71,
0.578,-0.15,0.12,0.93,-0.88,-0.12,-0.71,
0.578,-0.15,0.12,0.93,-0.90,-0.12,-0.69,
0.579,-0.14,0.12,0.94,-0.90,-0.12,-0.69,
0.581,-0.14,0.12,0.95,-0.90,-0.12,-0.69,
0.581,-0.14,0.12,0.95,-0.87,-0.10,-0.68,
0.584,-0.14,0.13,0.95,-0.87,-0.10,-0.68,
0.586,-0.13,0.13,0.96,-0.87,-0.10,-0.68,
0.586,-0.13,0.13,0.96,-0.75,-0.05,-0.51,
0.589,-0.13,0.13,0.96,-0.75,-0.05,-0.51,
0.599,-0.12,0.13,0.97,-0.75,-0.05,-0.51,
0.599,-0.12,0.13,0.97,-0.69,-0.00,-0.42,
0.6,-0.12,0.13,0.98,-0.69,-0.00,-0.42,
0.6,-0.12,0.13,0.98,-0.59,-0.01,-0.29,
0.6,-0.11,0.13,0.98,-0.59,-0.01,-0.29,
0.6,-0.10,0.12,0.98,-0.59,-0.01,-0.29,
0.601,-0.10,0.12,0.99,-0.59,-0.01,-0.29,
0.601,-0.10,0.12,0.99,-0.52,-0.01,-0.17,
0.603,-0.09,0.12,0.99,-0.52,-0.01,-0.17,
0.615,-0.09,0.12,1.00,-0.52,-0.01,-0.17,
0.615,-0.09,0.12,1.00,-0.41,-0.06,-0.09,
0.616,-0.09,0.11,0.99,-0.41,-0.06,-0.09,
0.616,-0.09,0.11,0.99,-0.41,-0.06,-0.09,
0.616,-0.09,0.11,0.99,-0.30,-0.10,-0.01,
0.616,-0.08,0.11,1.00,-0.30,-0.10,-0.01,
0.616,-0.08,0.11,0.99,-0.30,-0.10,-0.01,
0.617,-0.08,0.11,0.99,-0.27,-0.17,-0.02,
0.618,-0.08,0.10,0.99,-0.27,-0.17,-0.02,
0.621,-0.09,0.10,0.99,-0.27,-0.17,-0.02,
0.621,-0.09,0.10,0.99,-0.22,-0.22,-0.03,
0.623,-0.09,0.10,0.99,-0.22,-0.22,-0.03,
0.631,-0.09,0.10,0.98,-0.22,-0.22,-0.03,
0.632,-0.09,0.10,0.98,-0.26,-0.26,-0.06,
0.632,-0.09,0.10,0.98,-0.26,-0.26,-0.06,
0.632,-0.09,0.10,0.97,-0.26,-0.26,-0.06,
0.632,-0.09,0.10,0.97,-0.30,-0.30,-0.10,
0.632,-0.09,0.10,0.98,-0.30,-0.30,-0.10,
0.635,-0.09,0.10,0.98,-0.30,-0.30,-0.10,
0.636,-0.09,0.10,0.98,-0.33,-0.32,-0.16,
0.637,-0.10,0.10,0.97,-0.33,-0.32,-0.16,
0.646,-0.10,0.09,0.97,-0.33,-0.32,-0.16,
0.647,-0.10,0.09,0.97,-0.34,-0.34,-0.18,
0.647,-0.10,0.10,0.97,-0.34,-0.34,-0.18,
0.648,-0.09,0.10,0.96,-0.34,-0.34,-0.18,
0.648,-0.09,0.10,0.96,-0.37,-0.37,-0.22,
0.648,-0.09,0.10,0.97,-0.37,-0.37,-0.22,
0.65,-0.09,0.10,0.96,-0.37,-0.37,-0.22,
0.651,-0.09,0.10,0.96,-0.34,-0.32,-0.27,
0.652,-0.09,0.10,0.96,-0.34,-0.32,-0.27,
0.654,-0.09,0.10,0.96,-0.34,-0.32,-0.27,
0.657,-0.09,0.10,0.96,-0.30,-0.35,-0.29,
0.662,-0.09,0.10,0.96,-0.30,-0.35,-0.29,
0.662,-0.08,0.09,0.95,-0.30,-0.35,-0.29,
0.663,-0.08,0.09,0.95,-0.23,-0.34,-0.36,
0.663,-0.08,0.09,0.94,-0.23,-0.34,-0.36,
0.664,-0.08,0.10,0.94,-0.23,-0.34,-0.36,
0.665,-0.08,0.10,0.94,-0.20,-0.35,-0.39,
0.667,-0.08,0.09,0.93,-0.20,-0.35,-0.39,
0.669,-0.08,0.09,0.93,-0.20,-0.35,-0.39,
0.669,-0.08,0.09,0.93,-0.15,-0.39,-0.51,
0.672,-0.08,0.09,0.93,-0.15,-0.39,-0.51,
0.679,-0.08,0.09,0.92,-0.15,-0.39,-0.51,
0.68,-0.08,0.09,0.92,-0.13,-0.42,-0.58,
0.68,-0.08,0.09,0.91,-0.13,-0.42,-0.58,
0.68,-0.08,0.09,0.91,-0.13,-0.42,-0.58,
0.68,-0.08,0.09,0.91,-0.12,-0.42,-0.69,
0.682,-0.08,0.09,0.90,-0.12,-0.42,-0.69,
0.684,-0.08,0.08,0.90,-0.12,-0.42,-0.69,
0.685,-0.08,0.08,0.90,-0.08,-0.44,-0.82,
0.687,-0.08,0.09,0.90,-0.08,-0.44,-0.82,
0.701,-0.08,0.08,0.91,-0.08,-0.44,-0.82,
0.702,-0.08,0.08,0.91,-0.07,-0.48,-0.87,
0.703,-0.09,0.08,0.92,-0.07,-0.48,-0.87,
0.703,-0.08,0.09,0.93,-0.07,-0.48,-0.87,
0.703,-0.08,0.09,0.93,-0.10,-0.46,-0.80,
0.703,-0.08,0.08,0.93,-0.10,-0.46,-0.80,
0.704,-0.08,0.08,0.94,-0.10,-0.46,-0.80,
0.704,-0.08,0.08,0.94,-0.11,-0.47,-0.65,
0.704,-0.08,0.07,0.95,-0.11,-0.47,-0.65,
0.704,-0.07,0.07,0.95,-0.11,-0.47,-0.65,
0.704,-0.07,0.07,0.95,-0.03,-0.52,-0.51,
0.713,-0.07,0.07,0.95,-0.03,-0.52,-0.51,
0.714,-0.07,0.07,0.96,-0.03,-0.52,-0.51,
0.714,-0.07,0.07,0.96,0.02,-0.59,-0.36,
0.715,-0.07,0.07,0.96,0.02,-0.59,-0.36,
0.715,-0.07,0.07,0.96,0.06,-0.64,-0.30,
0.715,-0.07,0.07,0.96,0.06,-0.64,-0.30,
0.717,-0.07,0.07,0.96,0.06,-0.64,-0.30,
0.719,-0.07,0.07,0.96,0.06,-0.64,-0.30,
0.72,-0.07,0.07,0.96,0.09,-0.65,-0.26,
0.721,-0.06,0.07,0.96,0.09,-0.65,-0.26,
0.731,-0.07,0.08,0.96,0.09,-0.65,-0.26,
0.732,-0.07,0.08,0.96,0.12,-0.62,-0.25,
0.732,-0.06,0.08,0.96,0.12,-0.62,-0.25,
0.733,-0.07,0.09,0.96,0.12,-0.62,-0.25,
0.733,-0.07,0.09,0.96,0.16,-0.56,-0.25,
0.733,-0.07,0.09,0.96,0.16,-0.56,-0.25,
0.734,-0.07,0.09,0.96,0.16,-0.56,-0.25,
0.734,-0.07,0.09,0.96,0.15,-0.50,-0.26,
0.736,-0.07,0.09,0.96,0.15,-0.50,-0.26,
0.739,-0.06,0.09,0.97,0.15,-0.50,-0.26,
0.739,-0.06,0.09,0.97,0.12,-0.46,-0.22,
0.746,-0.06,0.09,0.96,0.12,-0.46,-0.22,
0.746,-0.06,0.09,0.96,0.12,-0.46,-0.22,
0.746,-0.06,0.09,0.96,0.16,-0.45,-0.21,
0.747,-0.06,0.08,0.95,0.16,-0.45,-0.21,
0.749,-0.05,0.08,0.96,0.16,-0.45,-0.21,
0.749,-0.05,0.08,0.96,0.19,-0.44,-0.25,
0.751,-0.04,0.08,0.95,0.19,-0.44,-0.25,
0.753,-0.03,0.08,0.94,0.19,-0.44,-0.25,
0.754,-0.03,0.08,0.94,0.28,-0.50,-0.28,
0.761,-0.03,0.08,0.94,0.28,-0.50,-0.28,
0.761,-0.02,0.08,0.94,0.28,-0.50,-0.28,
0.762,-0.02,0.08,0.94,0.42,-0.55,-0.38,
0.762,-0.01,0.08,0.94,0.42,-0.55,-0.38,
0.763,-0.01,0.08,0.93,0.42,-0.55,-0.38,
0.764,-0.01,0.08,0.93,0.55,-0.56,-0.44,
0.766,0.00,0.08,0.93,0.55,-0.56,-0.44,
0.768,0.01,0.08,0.93,0.55,-0.56,-0.44,
0.768,0.01,0.08,0.93,0.69,-0.56,-0.46,
0.771,0.02,0.09,0.93,0.69,-0.56,-0.46,
0.778,0.02,0.09,0.93,0.69,-0.56,-0.46,
0.779,0.02,0.09,0.93,0.87,-0.53,-0.54,
0.779,0.03,0.10,0.93,0.87,-0.53,-0.54,
0.78,0.03,0.09,0.94,0.87,-0.53,-0.54,
0.78,0.03,0.09,0.94,0.99,-0.44,-0.52,
0.781,0.04,0.10,0.94,0.99,-0.44,-0.52,
0.783,0.04,0.10,0.94,1.05,-0.39,-0.44,
0.784,0.04,0.10,0.94,1.05,-0.39,-0.44,
0.786,0.04,0.10,0.94,1.05,-0.39,-0.44,
0.789,0.04,0.10,0.95,1.05,-0.39,-0.44,
0.789,0.04,0.10,0.95,1.14,-0.32,-0.41,
0.801,0.04,0.11,0.95,1.14,-0.32,-0.41,
0.802,0.04,0.11,0.96,1.14,-0.32,-0.41,
0.802,0.04,0.11,0.96,1.15,-0.30,-0.32,
0.803,0.04,0.10,0.96,1.15,-0.30,-0.32,
0.803,0.04,0.11,0.96,1.15,-0.30,-0.32,
0.803,0.04,0.11,0.96,1.18,-0.22,-0.25,
0.804,0.04,0.10,0.96,1.18,-0.22,-0.25,
0.804,0.04,0.10,0.97,1.18,-0.22,-0.25,
0.804,0.04,0.10,0.97,1.19,-0.26,-0.20,
0.805,0.05,0.10,0.97,1.19,-0.26,-0.20,
0.815,0.05,0.09,0.97,1.19,-0.26,-0.20,
0.815,0.05,0.09,0.97,1.23,-0.28,-0.18,
0.816,0.05,0.09,0.97,1.23,-0.28,-0.18,
0.816,0.05,0.09,0.97,1.25,-0.33,-0.10,
0.816,0.04,0.09,0.97,1.25,-0.33,-0.10,
0.816,0.04,0.08,0.97,1.25,-0.33,-0.10,
0.818,0.04,0.08,0.97,1.25,-0.33,-0.10,
0.818,0.04,0.08,0.97,1.23,-0.40,-0.08,
0.821,0.04,0.08,0.97,1.23,-0.40,-0.08,
0.824,0.04,0.08,0.97,1.23,-0.40,-0.08,
0.824,0.04,0.08,0.97,1.23,-0.45,-0.09,
0.833,0.03,0.07,0.97,1.23,-0.45,-0.09,
0.834,0.03,0.07,0.97,1.23,-0.45,-0.09,
0.834,0.03,0.07,0.97,1.18,-0.49,-0.08,
0.834,0.02,0.07,0.98,1.18,-0.49,-0.08,
0.834,0.02,0.07,0.98,1.18,-0.49,-0.08,
0.835,0.02,0.07,0.98,1.09,-0.54,-0.06,
0.836,0.02,0.06,0.98,1.09,-0.54,-0.06,
0.838,0.02,0.06,0.98,1.09,-0.54,-0.06,
0.838,0.02,0.06,0.98,1.04,-0.56,-0.03,
0.846,0.02,0.06,0.98,1.04,-0.56,-0.03,
0.847,0.02,0.05,0.99,1.04,-0.56,-0.03,
0.847,0.02,0.05,0.99,1.01,-0.58,0.02,
0.848,0.01,0.06,0.99,1.01,-0.58,0.02,
0.848,0.00,0.05,0.99,1.01,-0.58,0.02,
0.848,0.00,0.05,0.99,1.00,-0.62,0.05,
0.851,-0.00,0.05,0.98,1.00,-0.62,0.05,
0.854,-0.01,0.04,0.98,1.00,-0.62,0.05,
0.854,-0.01,0.04,0.98,0.88,-0.64,0.07,
0.855,-0.01,0.04,0.98,0.88,-0.64,0.07,
0.863,-0.02,0.03,0.96,0.88,-0.64,0.07,
0.864,-0.02,0.03,0.96,0.80,-0.76,0.02,
0.864,-0.02,0.03,0.96,0.80,-0.76,0.02,
0.864,-0.02,0.03,0.96,0.68,-0.84,-0.09,
0.865,-0.02,0.02,0.95,0.68,-0.84,-0.09,
0.865,-0.02,0.02,0.94,0.68,-0.84,-0.09,
0.868,-0.02,0.01,0.93,0.68,-0.84,-0.09,
0.869,-0.02,0.01,0.93,0.66,-0.94,-0.23,
0.87,-0.02,0.01,0.93,0.66,-0.94,-0.23,
0.873,-0.01,0.01,0.91,0.66,-0.94,-0.23,
0.873,-0.01,0.01,0.91,0.69,-1.03,-0.43,
0.879,-0.01,0.01,0.90,0.69,-1.03,-0.43,
0.879,-0.01,0.00,0.90,0.69,-1.03,-0.43,
0.879,-0.01,0.00,0.90,0.70,-1.10,-0.60,
0.881,-0.01,0.01,0.89,0.70,-1.10,-0.60,
0.883,-0.01,0.00,0.88,0.70,-1.10,-0.60,
0.883,-0.01,0.00,0.88,0.77,-1.10,-0.76,
0.886,-0.01,0.01,0.88,0.77,-1.10,-0.76,
0.888,-0.01,0.00,0.88,0.77,-1.10,-0.76,
0.888,-0.01,0.00,0.88,0.74,-1.13,-0.89,
0.89,-0.01,-0.00,0.86,0.74,-1.13,-0.89,
0.896,-0.01,0.00,0.86,0.74,-1.13,-0.89,
0.897,-0.01,0.00,0.86,0.72,-1.13,-0.97,
0.897,-0.01,0.00,0.86,0.72,-1.13,-0.97,
0.897,-0.00,0.00,0.86,0.72,-1.13,-0.97,
0.897,-0.00,0.00,0.86,0.76,-1.18,-1.07,
0.901,0.00,0.00,0.85,0.76,-1.18,-1.07,
0.903,0.00,0.00,0.84,0.76,-1.18,-1.07,
0.903,0.00,0.00,0.84,0.80,-1.16,-1.09,
0.905,0.01,0.00,0.84,0.80,-1.16,-1.09,
0.918,0.01,0.01,0.85,0.80,-1.16,-1.09,
0.919,0.01,0.01,0.85,0.89,-1.16,-1.21,
0.919,0.01,0.01,0.85,0.89,-1.16,-1.21,
0.919,0.01,0.01,0.85,0.96,-1.14,-1.22,
0.92,0.02,0.01,0.85,0.96,-1.14,-1.22,
0.92,0.02,0.02,0.86,0.96,-1.14,-1.22,
0.92,0.01,0.02,0.87,0.96,-1.14,-1.22,
0.92,0.01,0.02,0.87,1.00,-1.08,-1.18,
0.921,0.02,0.02,0.87,1.00,-1.08,-1.18,
0.923,0.02,0.03,0.88,1.00,-1.08,-1.18,
0.923,0.02,0.03,0.88,0.98,-1.01,-1.05,
0.932,0.02,0.03,0.88,0.98,-1.01,-1.05,
0.932,0.02,0.04,0.89,0.98,-1.01,-1.05,
0.933,0.02,0.04,0.89,1.00,-0.91,-0.91,
0.933,0.02,0.04,0.91,1.00,-0.91,-0.91,
0.933,0.02,0.05,0.91,1.00,-0.91,-0.91,
0.933,0.02,0.05,0.91,1.01,-0.84,-0.77,
0.935,0.02,0.05,0.93,1.01,-0.84,-0.77,
0.937,0.02,0.05,0.95,1.01,-0.84,-0.77,
0.938,0.02,0.05,0.95,0.97,-0.72,-0.56,
0.94,0.03,0.05,0.96,0.97,-0.72,-0.56,
0.949,0.03,0.05,0.97,0.97,-0.72,-0.56,
0.949,0.03,0.05,0.97,0.99,-0.67,-0.30,
0.95,0.04,0.05,0.98,0.99,-0.67,-0.30,
0.95,0.04,0.05,0.99,0.99,-0.67,-0.30,
0.95,0.04,0.05,0.99,1.01,-0.61,-0.05,
0.95,0.05,0.05,0.99,1.01,-0.61,-0.05,
0.952,0.06,0.04,0.99,1.01,-0.61,-0.05,
0.953,0.06,0.04,0.99,1.07,-0.63,0.18,
0.955,0.07,0.04,1.00,1.07,-0.63,0.18,
0.957,0.07,0.05,1.00,1.07,-0.63,0.18,
0.958,0.07,0.05,1.00,1.21,-0.66,0.20,
0.965,0.08,0.05,0.99,1.21,-0.66,0.20,
0.965,0.09,0.04,0.99,1.21,-0.66,0.20,
0.966,0.09,0.04,0.99,1.35,-0.66,0.30,
0.966,0.10,0.04,0.99,1.35,-0.66,0.30,
0.967,0.10,0.05,0.99,1.35,-0.66,0.30,
0.967,0.10,0.05,0.99,1.51,-0.64,0.20,
0.97,0.11,0.05,0.99,1.51,-0.64,0.20,
0.972,0.11,0.05,0.98,1.51,-0.64,0.20,
0.972,0.11,0.05,0.98,1.59,-0.63,0.21,
0.979,0.11,0.06,0.98,1.59,-0.63,0.21,
0.98,0.11,0.06,0.98,1.59,-0.63,0.21,
0.98,0.11,0.06,0.98,1.67,-0.58,0.17,
0.98,0.11,0.06,0.97,1.67,-0.58,0.17,
0.981,0.11,0.06,0.97,1.67,-0.58,0.17,
0.982,0.11,0.06,0.97,1.65,-0.48,0.12,
0.984,0.11,0.07,0.96,1.65,-0.48,0.12,
0.987,0.11,0.07,0.96,1.64,-0.44,0.03,
0.987,0.11,0.07,0.96,1.64,-0.44,0.03,
0.989,0.11,0.07,0.97,1.64,-0.44,0.03,
0.997,0.11,0.08,0.96,1.64,-0.44,0.03,
0.998,0.11,0.08,0.96,1.66,-0.34,-0.07,
0.998,0.11,0.08,0.95,1.66,-0.34,-0.07,
0.998,0.12,0.08,0.94,1.66,-0.34,-0.07,
0.998,0.12,0.08,0.94,1.66,-0.29,-0.08,
0.999,0.12,0.08,0.94,1.66,-0.29,-0.08,
1.001,0.12,0.08,0.93,1.66,-0.29,-0.08,
1.001,0.12,0.08,0.93,1.65,-0.24,-0.25,
1.004,0.12,0.08,0.93,1.65,-0.24,-0.25,
1.006,0.12,0.08,0.93,1.65,-0.24,-0.25,
1.006,0.12,0.08,0.93,1.69,-0.24,-0.34,
1.018,0.13,0.08,0.93,1.69,-0.24,-0.34,
1.019,0.13,0.08,0.93,1.69,-0.24,-0.34,
1.019,0.13,0.08,0.93,1.70,-0.23,-0.37,
1.019,0.14,0.09,0.93,1.70,-0.23,-0.37,
1.02,0.14,0.09,0.94,1.70,-0.23,-0.37,
1.02,0.14,0.09,0.94,1.76,-0.18,-0.38,
1.021,0.14,0.09,0.94,1.76,-0.18,-0.38,
1.021,0.15,0.10,0.94,1.76,-0.18,-0.38,
1.021,0.15,0.10,0.94,1.83,-0.09,-0.35,
1.023,0.15,0.10,0.95,1.83,-0.09,-0.35,
1.034,0.15,0.11,0.96,1.83,-0.09,-0.35,
1.034,0.15,0.11,0.96,1.87,-0.05,-0.26,
1.034,0.16,0.11,0.96,1.87,-0.05,-0.26,
1.035,0.16,0.11,0.96,1.87,-0.05,-0.26,
1.035,0.16,0.11,0.96,1.90,0.09,-0.18,
1.035,0.16,0.12,0.97,1.90,0.09,-0.18,
1.036,0.16,0.12,0.97,1.90,0.09,-0.18,
1.037,0.16,0.12,0.97,1.93,0.16,-0.11,
1.038,0.16,0.12,0.98,1.93,0.16,-0.11,
1.05,0.17,0.13,0.98,1.93,0.16,-0.11,
1.051,0.17,0.13,0.98,1.96,0.21,-0.02,
1.052,0.17,0.12,0.99,1.96,0.21,-0.02,
1.052,0.17,0.12,0.99,1.96,0.21,-0.02,
1.052,0.17,0.12,0.99,1.96,0.29,0.11,
1.052,0.18,0.12,0.99,1.96,0.29,0.11,
1.052,0.18,0.13,0.99,1.96,0.29,0.11,
1.053,0.18,0.13,0.99,1.95,0.29,0.16,
1.053,0.18,0.12,1.00,1.95,0.29,0.16,
1.056,0.18,0.12,1.00,1.95,0.29,0.16,
1.056,0.18,0.12,1.00,2.02,0.32,0.15,
1.064,0.18,0.12,0.99,2.02,0.32,0.15,
1.065,0.19,0.12,0.99,2.02,0.32,0.15,
1.065,0.19,0.12,0.99,2.03,0.29,0.25,
1.066,0.19,0.12,1.00,2.03,0.29,0.25,
1.066,0.19,0.12,1.00,2.03,0.29,0.25,
1.066,0.19,0.12,1.00,2.07,0.29,0.20,
1.068,0.19,0.11,1.00,2.07,0.29,0.20,
1.07,0.19,0.11,1.00,2.07,0.29,0.20,
1.071,0.19,0.11,1.00,2.07,0.27,0.26,
1.073,0.19,0.11,1.00,2.07,0.27,0.26,
1.081,0.19,0.11,1.00,2.07,0.27,0.26,
1.082,0.19,0.11,1.00,2.08,0.24,0.25,
1.082,0.19,0.10,0.99,2.08,0.24,0.25,
1.082,0.19,0.11,0.99,2.08,0.24,0.25,
1.082,0.19,0.11,0.99,2.07,0.20,0.23,
1.083,0.19,0.10,1.00,2.07,0.20,0.23,
1.085,0.19,0.10,1.00,2.07,0.19,0.18,
1.086,0.19,0.10,0.99,2.07,0.19,0.18,
1.088,0.19,0.10,0.99,2.07,0.19,0.18,
1.09,0.20,0.10,1.00,2.07,0.19,0.18,
1.09,0.20,0.10,1.00,2.05,0.18,0.21,
1.097,0.20,0.10,1.00,2.05,0.18,0.21,
1.097,0.20,0.10,1.00,2.05,0.18,0.21,
1.097,0.20,0.10,1.00,2.05,0.19,0.21,
1.098,0.20,0.10,1.01,2.05,0.19,0.21,
1.1,0.20,0.10,1.01,2.05,0.19,0.21,
1.1,0.20,0.10,1.01,2.04,0.18,0.27,
1.103,0.20,0.10,1.02,2.04,0.18,0.27,
1.105,0.20,0.10,1.02,2.04,0.18,0.27,
1.105,0.20,0.10,1.02,2.05,0.22,0.33,
1.115,0.20,0.10,1.02,2.05,0.22,0.33,
1.116,0.20,0.11,1.02,2.05,0.22,0.33,
1.116,0.20,0.11,1.02,2.06,0.24,0.42,
1.116,0.21,0.11,1.02,2.06,0.24,0.42,
1.116,0.21,0.11,1.03,2.06,0.24,0.42,
1.116,0.21,0.11,1.03,2.01,0.29,0.43,
1.118,0.21,0.12,1.03,2.01,0.29,0.43,
1.12,0.21,0.11,1.03,2.01,0.29,0.43,
1.12,0.21,0.11,1.03,2.09,0.35,0.51,
1.122,0.21,0.12,1.04,2.09,0.35,0.51,
1.136,0.21,0.12,1.03,2.09,0.35,0.51,
1.137,0.21,0.12,1.03,2.08,0.38,0.56,
1.137,0.21,0.12,1.03,2.08,0.38,0.56,
1.137,0.21,0.13,1.03,2.08,0.38,0.56,
1.138,0.21,0.13,1.03,2.07,0.45,0.59,
1.138,0.21,0.13,1.03,2.07,0.45,0.59,
1.138,0.21,0.13,1.03,2.06,0.52,0.55,
1.138,0.20,0.12,1.04,2.06,0.52,0.55,
1.138,0.20,0.13,1.04,2.06,0.52,0.55,
1.14,0.20,0.13,1.03,2.06,0.52,0.55,
1.14,0.20,0.13,1.03,2.00,0.53,0.59,
1.149,0.20,0.13,1.04,2.00,0.53,0.59,
1.15,0.20,0.13,1.04,2.00,0.53,0.59,
1.15,0.20,0.13,1.04,1.92,0.56,0.59,
1.15,0.20,0.14,1.03,1.92,0.56,0.59,
1.151,0.20,0.13,1.04,1.92,0.56,0.59,
1.153,0.20,0.13,1.04,1.91,0.60,0.60,
1.153,0.19,0.13,1.03,1.91,0.60,0.60,
1.155,0.19,0.13,1.03,1.91,0.60,0.60,
1.155,0.19,0.13,1.03,1.86,0.62,0.57,
1.157,0.19,0.12,1.02,1.86,0.62,0.57,
1.168,0.18,0.12,1.02,1.86,0.62,0.57,
1.169,0.18,0.12,1.02,1.76,0.60,0.54,
1.169,0.19,0.12,1.03,1.76,0.60,0.54,
1.172,0.19,0.11,1.02,1.76,0.60,0.54,
1.172,0.19,0.11,1.02,1.72,0.52,0.46,
1.172,0.18,0.10,1.02,1.72,0.52,0.46,
1.173,0.18,0.10,1.02,1.72,0.52,0.46,
1.173,0.18,0.10,1.02,1.72,0.47,0.46,
1.173,0.18,0.09,1.02,1.72,0.47,0.46,
1.175,0.18,0.09,1.02,1.72,0.47,0.46,
1.175,0.18,0.09,1.02,1.69,0.36,0.44,
1.182,0.18,0.09,1.02,1.69,0.36,0.44,
1.183,0.18,0.08,1.03,1.69,0.36,0.44,
1.183,0.18,0.08,1.03,1.66,0.31,0.45,
1.183,0.18,0.08,1.02,1.66,0.31,0.45,
1.185,0.17,0.08,1.02,1.66,0.31,0.45,
1.185,0.17,0.08,1.02,1.61,0.25,0.47,
1.188,0.18,0.07,1.02,1.61,0.25,0.47,
1.19,0.18,0.07,1.02,1.61,0.25,0.47,
1.19,0.18,0.07,1.02,1.58,0.18,0.43,
1.192,0.18,0.07,1.01,1.58,0.18,0.43,
1.198,0.17,0.06,1.02,1.58,0.18,0.43,
1.198,0.17,0.06,1.02,1.58,0.13,0.42,
1.198,0.17,0.06,1.02,1.58,0.13,0.42,
1.199,0.17,0.06,1.01,1.58,0.13,0.42,
1.2,0.17,0.06,1.01,1.57,0.06,0.36,
1.202,0.17,0.06,1.01,1.57,0.06,0.36,
1.205,0.17,0.06,1.01,1.57,0.06,0.36,
1.205,0.17,0.06,1.01,1.50,0.05,0.37,
1.207,0.16,0.07,1.01,1.50,0.05,0.37,
1.214,0.16,0.07,1.01,1.50,0.05,0.37,
1.215,0.16,0.07,1.01,1.48,0.07,0.32,
1.215,0.16,0.07,1.01,1.48,0.07,0.32,
1.215,0.15,0.08,1.01,1.48,0.07,0.32,
1.216,0.15,0.08,1.01,1.37,0.14,0.33,
1.217,0.15,0.09,1.01,1.37,0.14,0.33,
1.22,0.15,0.08,1.00,1.37,0.14,0.33,
1.22,0.15,0.08,1.00,1.31,0.19,0.31,
1.222,0.15,0.09,1.00,1.31,0.19,0.31,
1.225,0.15,0.10,1.00,1.31,0.19,0.31,
1.225,0.15,0.10,1.00,1.25,0.29,0.26,
1.236,0.15,0.09,1.00,1.25,0.29,0.26,
1.236,0.15,0.10,0.99,1.25,0.29,0.26,
1.237,0.15,0.10,0.99,1.25,0.38,0.22,
1.237,0.15,0.10,0.99,1.25,0.38,0.22,
1.237,0.15,0.10,0.99,1.27,0.40,0.15,
1.237,0.15,0.10,0.99,1.27,0.40,0.15,
1.238,0.14,0.10,0.97,1.27,0.40,0.15,
1.239,0.15,0.10,0.97,1.27,0.40,0.15,
1.24,0.15,0.10,0.97,1.26,0.44,0.08,
1.242,0.15,0.10,0.97,1.26,0.44,0.08,
1.251,0.14,0.10,0.96,1.26,0.44,0.08,
1.251,0.14,0.10,0.96,1.21,0.45,-0.04,
1.251,0.14,0.09,0.96,1.21,0.45,-0.04,
1.252,0.15,0.09,0.96,1.21,0.45,-0.04,
1.252,0.15,0.09,0.96,1.22,0.46,-0.18,
1.252,0.15,0.09,0.96,1.22,0.46,-0.18,
1.254,0.14,0.09,0.96,1.22,0.46,-0.18,
1.254,0.14,0.09,0.96,1.23,0.41,-0.21,
1.257,0.15,0.08,0.95,1.23,0.41,-0.21,
1.268,0.15,0.08,0.95,1.23,0.36,-0.23,
1.269,0.15,0.08,0.96,1.23,0.36,-0.23,
1.269,0.14,0.07,0.96,1.23,0.36,-0.23,
1.269,0.15,0.07,0.96,1.23,0.36,-0.23,
1.27,0.15,0.07,0.96,1.27,0.32,-0.20,
1.27,0.15,0.07,0.96,1.27,0.32,-0.20,
1.27,0.14,0.06,0.96,1.27,0.32,-0.20,
1.27,0.14,0.06,0.96,1.24,0.26,-0.18,
1.272,0.14,0.06,0.97,1.24,0.26,-0.18,
1.274,0.14,0.06,0.97,1.24,0.26,-0.18,
1.274,0.14,0.06,0.97,1.26,0.23,-0.14,
1.282,0.14,0.05,0.97,1.26,0.23,-0.14,
1.282,0.14,0.05,0.98,1.26,0.23,-0.14,
1.283,0.14,0.05,0.98,1.21,0.15,-0.11,
1.283,0.14,0.04,0.98,1.21,0.15,-0.11,
1.284,0.14,0.04,0.98,1.18,0.08,-0.03,
1.284,0.14,0.05,0.98,1.18,0.08,-0.03,
1.286,0.14,0.04,0.98,1.18,0.08,-0.03,
1.289,0.13,0.04,0.98,1.18,0.08,-0.03,
1.289,0.13,0.04,0.98,1.15,0.05,0.02,
1.291,0.13,0.04,0.99,1.15,0.05,0.02,
1.298,0.13,0.04,0.99,1.15,0.05,0.02,
1.299,0.13,0.04,0.99,1.12,0.02,0.03,
1.299,0.13,0.05,0.99,1.12,0.02,0.03,
1.299,0.12,0.05,0.99,1.12,0.02,0.03,
1.299,0.12,0.05,0.99,1.05,0.04,0.08,
1.301,0.12,0.06,0.99,1.05,0.04,0.08,
1.304,0.12,0.06,0.99,1.05,0.04,0.08,
1.304,0.12,0.06,0.99,1.01,0.12,0.10,
1.306,0.12,0.07,0.99,1.01,0.12,0.10,
1.308,0.12,0.07,0.99,0.93,0.26,0.11,
1.308,0.12,0.08,0.99,0.93,0.26,0.11,
1.314,0.12,0.08,0.99,0.93,0.26,0.11,
1.315,0.12,0.09,0.99,0.93,0.26,0.11,
1.315,0.12,0.09,0.99,0.93,0.41,0.11,
1.317,0.12,0.10,0.99,0.93,0.41,0.11,
1.318,0.12,0.11,0.98,0.93,0.41,0.11,
1.318,0.12,0.11,0.98,0.95,0.55,0.08,
1.32,0.12,0.11,0.99,0.95,0.55,0.08,
1.323,0.12,0.12,0.99,0.95,0.55,0.08,
1.323,0.12,0.12,0.99,0.95,0.69,0.06,
1.325,0.12,0.12,0.98,0.95,0.69,0.06,
1.332,0.12,0.12,0.98,0.95,0.69,0.06,
1.332,0.12,0.12,0.98,0.97,0.84,0.07,
1.333,0.12,0.12,0.98,0.97,0.84,0.07,
1.334,0.12,0.12,0.98,0.97,0.84,0.07,
1.334,0.12,0.12,0.98,0.98,0.90,0.02,
1.335,0.12,0.12,0.97,0.98,0.90,0.02,
1.338,0.12,0.12,0.97,0.97,0.93,0.00,
1.338,0.12,0.12,0.97,0.97,0.93,0.00,
1.34,0.13,0.11,0.98,0.97,0.93,0.00,
1.354,0.13,0.11,0.97,0.97,0.93,0.00,
1.355,0.13,0.11,0.97,0.98,0.90,-0.10,
1.356,0.13,0.10,0.97,0.98,0.90,-0.10,
1.356,0.13,0.10,0.97,0.98,0.90,-0.10,
1.356,0.13,0.10,0.97,1.03,0.86,-0.05,
1.356,0.13,0.09,0.97,1.03,0.86,-0.05,
1.357,0.14,0.08,0.97,1.03,0.86,-0.05,
1.357,0.14,0.08,0.97,1.03,0.75,-0.05,
1.357,0.14,0.08,0.97,1.03,0.75,-0.05,
1.358,0.14,0.07,0.97,1.03,0.75,-0.05,
1.358,0.14,0.07,0.97,1.08,0.62,-0.07,
1.367,0.14,0.06,0.97,1.08,0.62,-0.07,
1.368,0.14,0.05,0.98,1.08,0.62,-0.07,
1.368,0.14,0.05,0.98,1.13,0.50,-0.11,
1.368,0.14,0.04,0.98,1.13,0.50,-0.11,
1.368,0.14,0.04,0.98,1.13,0.50,-0.11,
1.369,0.14,0.04,0.98,1.15,0.36,-0.05,
1.37,0.14,0.03,0.98,1.15,0.36,-0.05,
1.372,0.14,0.02,0.99,1.15,0.36,-0.05,
1.373,0.14,0.02,0.99,1.16,0.24,0.00,
1.375,0.14,0.02,0.99,1.16,0.24,0.00,
1.385,0.13,0.01,0.99,1.16,0.24,0.00,
1.386,0.13,0.01,0.99,1.14,0.11,0.04,
1.386,0.13,0.01,0.99,1.14,0.11,0.04,
1.387,0.13,-0.00,0.98,1.14,0.11,0.04,
1.387,0.13,-0.00,0.98,1.08,-0.01,0.06,
1.387,0.12,0.01,0.98,1.08,-0.01,0.06,
1.388,0.12,0.00,0.98,1.08,-0.01,0.06,
1.388,0.12,0.00,0.98,0.99,-0.09,0.05,
1.39,0.11,0.01,0.98,0.99,-0.09,0.05,
1.392,0.11,0.02,0.98,0.99,-0.09,0.05,
1.392,0.11,0.02,0.98,0.90,-0.05,-0.00,
1.399,0.10,0.02,0.98,0.90,-0.05,-0.00,
1.4,0.10,0.03,0.97,0.90,-0.05,-0.00,
1.4,0.10,0.03,0.97,0.78,0.04,-0.00,
1.4,0.09,0.04,0.97,0.78,0.04,-0.00,
1.402,0.09,0.05,0.97,0.78,0.04,-0.00,
1.402,0.09,0.05,0.97,0.67,0.15,-0.06,
1.405,0.09,0.06,0.97,0.67,0.15,-0.06,
1.407,0.09,0.06,0.97,0.62,0.35,-0.08,
1.407,0.09,0.07,0.98,0.62,0.35,-0.08,
1.415,0.09,0.08,0.98,0.62,0.35,-0.08,
1.415,0.09,0.09,0.98,0.62,0.35,-0.08,
1.416,0.09,0.09,0.98,0.60,0.56,-0.06,
1.416,0.09,0.10,0.98,0.60,0.56,-0.06,
1.417,0.09,0.11,0.98,0.60,0.56,-0.06,
1.417,0.09,0.11,0.98,0.59,0.72,-0.00,
1.42,0.09,0.11,0.99,0.59,0.72,-0.00,
1.422,0.09,0.11,0.99,0.59,0.72,-0.00,
1.422,0.09,0.11,0.99,0.57,0.93,-0.01,
1.424,0.09,0.12,0.99,0.57,0.93,-0.01,
1.432,0.09,0.12,1.00,0.57,0.93,-0.01,
1.432,0.09,0.12,1.00,0.56,0.97,0.06,
1.433,0.09,0.12,0.99,0.56,0.97,0.06,
1.433,0.09,0.11,1.00,0.56,0.97,0.06,
1.433,0.09,0.11,1.00,0.59,1.09,0.11,
1.434,0.10,0.11,1.00,0.59,1.09,0.11,
1.437,0.11,0.11,1.00,0.59,1.09,0.11,
1.437,0.11,0.11,1.00,0.60,1.06,0.16,
1.44,0.11,0.11,1.00,0.60,1.06,0.16,
1.442,0.11,0.10,1.01,0.60,1.06,0.16,
1.442,0.11,0.10,1.01,0.68,1.01,0.22,
1.456,0.12,0.09,1.01,0.68,1.01,0.22,
1.457,0.12,0.08,1.02,0.68,1.01,0.22,
1.457,0.12,0.08,1.02,0.76,0.94,0.26,
1.457,0.12,0.08,1.02,0.76,0.94,0.26,
1.458,0.12,0.07,1.02,0.76,0.94,0.26,
1.458,0.12,0.07,1.02,0.85,0.82,0.32,
1.458,0.13,0.06,1.02,0.85,0.82,0.32,
1.458,0.13,0.05,1.02,0.85,0.82,0.32,
1.459,0.13,0.05,1.02,0.88,0.69,0.40,
1.459,0.12,0.05,1.03,0.88,0.69,0.40,
1.469,0.13,0.04,1.03,0.88,0.69,0.40,
1.47,0.13,0.04,1.03,0.90,0.56,0.41,
1.47,0.12,0.03,1.03,0.90,0.56,0.41,
1.471,0.12,0.03,1.03,0.90,0.56,0.41,
1.471,0.12,0.03,1.03,0.86,0.44,0.44,
1.471,0.12,0.02,1.03,0.86,0.44,0.44,
1.472,0.12,0.01,1.03,0.86,0.44,0.44,
1.472,0.12,0.01,1.03,0.80,0.32,0.50,
1.474,0.12,-0.00,1.02,0.80,0.32,0.50,
1.488,0.11,-0.01,1.03,0.80,0.32,0.50,
1.488,0.11,-0.01,1.03,0.78,0.17,0.45,
1.489,0.11,-0.02,1.02,0.78,0.17,0.45,
1.492,0.10,-0.03,1.02,0.78,0.17,0.45,
1.492,0.10,-0.03,1.02,0.74,0.01,0.42,
1.493,0.10,-0.03,1.01,0.74,0.01,0.42,
1.493,0.09,-0.03,1.02,0.74,0.01,0.42,
1.493,0.09,-0.03,1.02,0.64,-0.14,0.38,
1.494,0.07,-0.04,1.01,0.64,-0.14,0.38,
1.494,0.07,-0.03,1.00,0.64,-0.14,0.38,
1.494,0.07,-0.03,1.00,0.49,-0.21,0.32,
1.495,0.06,-0.03,1.00,0.49,-0.21,0.32,
1.501,0.05,-0.02,1.00,0.49,-0.21,0.32,
1.502,0.05,-0.02,1.00,0.29,-0.22,0.24,
1.502,0.05,-0.02,1.00,0.29,-0.22,0.24,
1.502,0.04,-0.02,0.99,0.29,-0.22,0.24,
1.503,0.04,-0.02,0.99,0.12,-0.15,0.15,
1.504,0.04,-0.01,1.00,0.12,-0.15,0.15,
1.507,0.04,-0.01,1.00,0.03,-0.08,0.13,
1.507,0.04,-0.01,1.00,0.03,-0.08,0.13,
1.509,0.04,-0.00,1.00,0.03,-0.08,0.13,
1.516,0.04,0.01,1.00,0.03,-0.08,0.13,
1.516,0.04,0.01,1.00,-0.01,0.02,0.15,
1.516,0.04,0.01,1.01,-0.01,0.02,0.15,
1.517,0.04,0.02,1.01,-0.01,0.02,0.15,
1.517,0.04,0.02,1.01,-0.02,0.16,0.15,
1.519,0.04,0.02,1.01,-0.02,0.16,0.15,
1.521,0.05,0.03,1.01,-0.02,0.16,0.15,
1.521,0.05,0.03,1.01,-0.00,0.29,0.25,
1.524,0.05,0.03,1.02,-0.00,0.29,0.25,
1.526,0.06,0.03,1.02,-0.00,0.29,0.25,
1.526,0.06,0.03,1.02,0.04,0.40,0.27,
1.531,0.07,0.04,1.02,0.04,0.40,0.27,
1.532,0.07,0.04,1.02,0.12,0.46,0.34,
1.532,0.07,0.03,1.03,0.12,0.46,0.34,
1.533,0.08,0.04,1.03,0.12,0.46,0.34,
1.536,0.09,0.04,1.04,0.12,0.46,0.34,
1.537,0.09,0.04,1.04,0.27,0.49,0.38,
1.539,0.10,0.03,1.04,0.27,0.49,0.38,
1.542,0.11,0.03,1.05,0.27,0.49,0.38,
1.543,0.11,0.03,1.05,0.43,0.51,0.47,
1.55,0.12,0.03,1.05,0.43,0.51,0.47,
1.55,0.12,0.02,1.05,0.43,0.51,0.47,
1.55,0.12,0.02,1.05,0.58,0.44,0.57,
1.55,0.13,0.02,1.06,0.58,0.44,0.57,
1.551,0.13,0.02,1.06,0.58,0.44,0.57,
1.551,0.13,0.02,1.06,0.72,0.42,0.62,
1.554,0.13,0.02,1.07,0.72,0.42,0.62,
1.556,0.13,0.01,1.07,0.72,0.42,0.62,
1.557,0.13,0.01,1.07,0.80,0.40,0.72,
1.559,0.12,0.01,1.07,0.80,0.40,0.72,
1.561,0.12,-0.00,1.06,0.80,0.40,0.72,
1.561,0.12,-0.00,1.06,0.79,0.35,0.79,
1.573,0.12,-0.01,1.06,0.79,0.35,0.79,
1.574,0.12,-0.01,1.07,0.79,0.35,0.79,
1.574,0.12,-0.01,1.07,0.75,0.23,0.76,
1.574,0.11,-0.01,1.06,0.75,0.23,0.76,
1.575,0.11,-0.02,1.06,0.75,0.23,0.76,
1.575,0.11,-0.02,1.06,0.71,0.12,0.73,
1.575,0.11,-0.03,1.05,0.71,0.12,0.73,
1.576,0.10,-0.04,1.04,0.71,0.12,0.73,
1.576,0.10,-0.04,1.04,0.65,0.02,0.68,
1.585,0.10,-0.05,1.04,0.65,0.02,0.68,
1.585,0.09,-0.06,1.04,0.65,0.02,0.68,
1.585,0.09,-0.06,1.04,0.58,-0.13,0.57,
1.586,0.08,-0.07,1.03,0.58,-0.13,0.57,
1.586,0.08,-0.07,1.03,0.58,-0.13,0.57,
1.586,0.08,-0.07,1.03,0.45,-0.30,0.46,
1.589,0.07,-0.08,1.02,0.45,-0.30,0.46,
1.591,0.07,-0.09,1.02,0.45,-0.30,0.46,
1.591,0.07,-0.09,1.02,0.32,-0.47,0.37,
1.594,0.06,-0.09,1.02,0.32,-0.47,0.37,
1.602,0.05,-0.09,1.02,0.32,-0.47,0.37,
1.603,0.05,-0.09,1.02,0.23,-0.58,0.30,
1.603,0.05,-0.09,1.01,0.23,-0.58,0.30,
1.604,0.04,-0.09,1.01,0.23,-0.58,0.30,
1.604,0.04,-0.09,1.01,0.07,-0.64,0.27,
1.604,0.04,-0.08,1.01,0.07,-0.64,0.27,
1.606,0.04,-0.08,1.01,-0.01,-0.61,0.21,
1.606,0.04,-0.08,1.00,-0.01,-0.61,0.21,
1.608,0.04,-0.08,1.00,-0.01,-0.61,0.21,
1.611,0.04,-0.08,1.01,-0.01,-0.61,0.21,
1.611,0.04,-0.08,1.01,-0.08,-0.54,0.16,
1.618,0.04,-0.06,1.01,-0.08,-0.54,0.16,
1.619,0.04,-0.06,1.01,-0.08,-0.54,0.16,
1.619,0.04,-0.06,1.01,-0.05,-0.48,0.13,
1.619,0.04,-0.06,1.02,-0.05,-0.48,0.13,
1.621,0.05,-0.04,1.02,-0.05,-0.48,0.13,
1.621,0.05,-0.04,1.02,-0.07,-0.33,0.18,
1.623,0.05,-0.04,1.03,-0.07,-0.33,0.18,
1.625,0.05,-0.03,1.03,-0.07,-0.33,0.18,
1.626,0.05,-0.03,1.03,-0.03,-0.23,0.25,
1.633,0.06,-0.03,1.04,-0.03,-0.23,0.25,
1.634,0.07,-0.02,1.05,-0.03,-0.23,0.25,
1.634,0.07,-0.02,1.05,0.01,-0.10,0.37,
1.634,0.06,-0.02,1.06,0.01,-0.10,0.37,
1.635,0.06,-0.01,1.06,0.01,-0.10,0.37,
1.636,0.06,-0.01,1.06,0.11,-0.00,0.48,
1.638,0.07,-0.01,1.06,0.11,-0.00,0.48,
1.641,0.07,-0.01,1.08,0.11,-0.00,0.48,
1.641,0.07,-0.01,1.08,0.12,0.11,0.64,
1.643,0.07,-0.00,1.08,0.12,0.11,0.64,
1.651,0.07,-0.01,1.08,0.12,0.11,0.64,
1.654,0.07,-0.01,1.08,0.16,0.16,0.75,
1.654,0.07,-0.01,1.09,0.16,0.16,0.75,
1.655,0.07,-0.00,1.09,0.16,0.16,0.75,
1.655,0.07,-0.00,1.09,0.15,0.19,0.87,
1.655,0.07,-0.01,1.09,0.15,0.19,0.87,
1.655,0.07,-0.01,1.10,0.15,0.19,0.87,
1.655,0.07,-0.01,1.10,0.18,0.17,0.94,
1.659,0.07,-0.02,1.10,0.18,0.17,0.94,
1.66,0.07,-0.02,1.09,0.18,0.17,0.94,
1.66,0.07,-0.02,1.09,0.18,0.09,0.98,
1.671,0.07,-0.03,1.09,0.18,0.09,0.98,
1.671,0.07,-0.04,1.08,0.18,0.09,0.98,
1.672,0.07,-0.04,1.08,0.17,0.01,0.95,
1.672,0.07,-0.05,1.08,0.17,0.01,0.95,
1.672,0.07,-0.06,1.08,0.17,0.01,0.95,
1.672,0.07,-0.06,1.08,0.17,-0.16,0.87,
1.673,0.06,-0.06,1.07,0.17,-0.16,0.87,
1.676,0.06,-0.07,1.07,0.17,-0.16,0.87,
1.676,0.06,-0.07,1.07,0.14,-0.32,0.83,
1.678,0.06,-0.08,1.07,0.14,-0.32,0.83,
1.685,0.06,-0.08,1.07,0.07,-0.44,0.70,
1.686,0.06,-0.09,1.07,0.07,-0.44,0.70,
1.686,0.06,-0.10,1.06,0.07,-0.44,0.70,
1.687,0.06,-0.10,1.05,0.07,-0.44,0.70,
1.687,0.06,-0.10,1.05,0.11,-0.61,0.68,
1.687,0.06,-0.10,1.05,0.11,-0.61,0.68,
1.69,0.05,-0.11,1.05,0.11,-0.61,0.68,
1.69,0.05,-0.11,1.05,0.09,-0.74,0.56,
1.693,0.05,-0.11,1.04,0.09,-0.74,0.56,
1.704,0.05,-0.11,1.05,0.09,-0.74,0.56,
1.705,0.05,-0.11,1.05,0.04,-0.80,0.48,
1.705,0.05,-0.10,1.04,0.04,-0.80,0.48,
1.705,0.04,-0.10,1.05,0.04,-0.80,0.48,
1.705,0.04,-0.10,1.05,-0.00,-0.83,0.42,
1.706,0.04,-0.10,1.05,-0.00,-0.83,0.42,
1.706,0.04,-0.10,1.04,-0.00,-0.83,0.42,
1.706,0.04,-0.10,1.04,-0.05,-0.75,0.42,
1.707,0.04,-0.09,1.04,-0.05,-0.75,0.42,
1.71,0.04,-0.08,1.04,-0.05,-0.75,0.42,
1.711,0.04,-0.08,1.04,-0.09,-0.74,0.42,
1.718,0.04,-0.08,1.04,-0.09,-0.74,0.42,
1.719,0.04,-0.08,1.04,-0.09,-0.74,0.42,
1.719,0.04,-0.08,1.04,-0.14,-0.63,0.36,
1.719,0.04,-0.07,1.04,-0.14,-0.63,0.36,
1.719,0.04,-0.06,1.04,-0.14,-0.63,0.36,
1.719,0.04,-0.06,1.04,-0.11,-0.55,0.34,
1.722,0.04,-0.05,1.04,-0.11,-0.55,0.34,
1.724,0.04,-0.05,1.04,-0.11,-0.55,0.34,
1.724,0.04,-0.05,1.04,-0.10,-0.44,0.39,
1.727,0.05,-0.04,1.05,-0.10,-0.44,0.39,
1.735,0.05,-0.04,1.05,-0.11,-0.29,0.41,
1.736,0.05,-0.04,1.05,-0.11,-0.29,0.41,
1.736,0.05,-0.03,1.06,-0.11,-0.29,0.41,
1.736,0.05,-0.02,1.06,-0.11,-0.29,0.41,
1.737,0.05,-0.02,1.06,-0.07,-0.21,0.46,
1.737,0.05,-0.02,1.06,-0.07,-0.21,0.46,
1.74,0.04,-0.02,1.06,-0.07,-0.21,0.46,
1.74,0.04,-0.02,1.06,-0.05,-0.10,0.55,
1.741,0.05,-0.01,1.06,-0.05,-0.10,0.55,
1.744,0.05,-0.01,1.06,-0.05,-0.10,0.55,
1.744,0.05,-0.01,1.06,-0.08,-0.07,0.57,
1.75,0.04,-0.01,1.07,-0.08,-0.07,0.57,
1.751,0.04,-0.01,1.08,-0.08,-0.07,0.57,
1.751,0.04,-0.01,1.08,-0.08,-0.02,0.59,
1.752,0.04,-0.01,1.07,-0.08,-0.02,0.59,
1.754,0.04,-0.01,1.07,-0.15,-0.02,0.67,
1.754,0.04,-0.01,1.07,-0.15,-0.02,0.67,
1.756,0.05,-0.02,1.06,-0.15,-0.02,0.67,
1.758,0.05,-0.02,1.06,-0.15,-0.02,0.67,
1.759,0.05,-0.02,1.06,-0.13,-0.04,0.64,
1.768,0.05,-0.03,1.06,-0.13,-0.04,0.64,
1.768,0.06,-0.03,1.05,-0.13,-0.04,0.64,
1.769,0.06,-0.03,1.05,-0.05,-0.15,0.55,
1.769,0.07,-0.04,1.04,-0.05,-0.15,0.55,
1.769,0.08,-0.04,1.04,-0.05,-0.15,0.55,
1.769,0.08,-0.04,1.04,0.01,-0.27,0.46,
1.771,0.07,-0.05,1.03,0.01,-0.27,0.46,
1.774,0.07,-0.05,1.03,0.20,-0.35,0.32,
1.774,0.07,-0.05,1.03,0.20,-0.35,0.32,
1.776,0.07,-0.05,1.02,0.20,-0.35,0.32,
1.789,0.07,-0.05,1.01,0.20,-0.35,0.32,
1.789,0.07,-0.05,1.01,0.22,-0.45,0.23,
1.79,0.06,-0.06,1.01,0.22,-0.45,0.23,
1.79,0.06,-0.06,1.00,0.22,-0.45,0.23,
1.79,0.06,-0.06,1.00,0.19,-0.50,0.11,
1.79,0.06,-0.06,1.00,0.19,-0.50,0.11,
1.791,0.06,-0.06,0.99,0.19,-0.50,0.11,
1.791,0.06,-0.06,0.99,0.12,-0.53,0.01,
1.792,0.05,-0.06,0.99,0.12,-0.53,0.01,
1.794,0.05,-0.06,0.99,0.12,-0.53,0.01,
1.794,0.05,-0.06,0.99,0.11,-0.54,-0.08,
1.802,0.05,-0.07,0.99,0.11,-0.54,-0.08,
1.803,0.06,-0.07,0.98,0.11,-0.54,-0.08,
1.803,0.06,-0.07,0.98,0.07,-0.57,-0.14,
1.804,0.05,-0.08,0.99,0.07,-0.57,-0.14,
1.804,0.05,-0.08,0.98,0.07,-0.57,-0.14,
1.804,0.05,-0.08,0.98,0.10,-0.63,-0.21,
1.806,0.05,-0.08,0.97,0.10,-0.63,-0.21,
1.808,0.05,-0.09,0.97,0.10,-0.63,-0.21,
1.808,0.05,-0.09,0.97,0.07,-0.73,-0.21,
1.811,0.05,-0.09,0.97,0.07,-0.73,-0.21,
1.82,0.05,-0.09,0.97,0.07,-0.73,-0.21,
1.821,0.05,-0.09,0.97,0.08,-0.81,-0.31,
1.821,0.05,-0.09,0.97,0.08,-0.81,-0.31,
1.821,0.05,-0.09,0.96,0.08,-0.81,-0.31,
1.821,0.05,-0.09,0.96,0.07,-0.86,-0.33,
1.822,0.05,-0.09,0.96,0.07,-0.86,-0.33,
1.823,0.05,-0.09,0.96,0.07,-0.86,-0.33,
1.823,0.05,-0.09,0.96,0.07,-0.89,-0.39,
1.826,0.04,-0.08,0.96,0.07,-0.89,-0.39,
1.83,0.04,-0.08,0.96,0.07,-0.89,-0.39,
1.831,0.04,-0.08,0.96,0.00,-0.88,-0.41,
1.832,0.04,-0.07,0.96,0.00,-0.88,-0.41,
1.835,0.03,-0.07,0.96,0.00,-0.88,-0.41,
1.835,0.03,-0.07,0.96,-0.09,-0.83,-0.42,
1.835,0.03,-0.06,0.96,-0.09,-0.83,-0.42,
1.839,0.02,-0.05,0.95,-0.09,-0.83,-0.42,
1.839,0.02,-0.05,0.95,-0.16,-0.71,-0.44,
1.841,0.02,-0.05,0.95,-0.16,-0.71,-0.44,
1.843,0.02,-0.04,0.95,-0.16,-0.71,-0.44,
1.843,0.02,-0.04,0.95,-0.23,-0.61,-0.49,
1.845,0.02,-0.04,0.95,-0.23,-0.61,-0.49,
1.85,0.02,-0.03,0.94,-0.23,-0.61,-0.49,
1.851,0.02,-0.03,0.94,-0.24,-0.51,-0.52,
1.851,0.02,-0.03,0.93,-0.24,-0.51,-0.52,
1.853,0.03,-0.03,0.93,-0.24,-0.51,-0.52,
1.854,0.03,-0.03,0.93,-0.27,-0.41,-0.57,
1.856,0.02,-0.02,0.93,-0.27,-0.41,-0.57,
1.858,0.03,-0.03,0.93,-0.27,-0.41,-0.57,
1.859,0.03,-0.03,0.93,-0.23,-0.40,-0.68,
1.861,0.03,-0.02,0.93,-0.23,-0.40,-0.68,
1.868,0.03,-0.02,0.93,-0.23,-0.40,-0.68,
1.868,0.03,-0.02,0.93,-0.23,-0.37,-0.66,
1.868,0.04,-0.02,0.92,-0.23,-0.37,-0.66,
1.869,0.04,-0.02,0.92,-0.23,-0.37,-0.66,
1.869,0.04,-0.02,0.92,-0.17,-0.35,-0.72,
1.871,0.04,-0.02,0.92,-0.17,-0.35,-0.72,
1.873,0.04,-0.02,0.92,-0.17,-0.35,-0.72,
1.873,0.04,-0.02,0.92,-0.10,-0.38,-0.74,
1.876,0.04,-0.02,0.92,-0.10,-0.38,-0.74,
1.878,0.04,-0.03,0.93,-0.10,-0.38,-0.74,
1.878,0.04,-0.03,0.93,-0.11,-0.36,-0.74,
1.89,0.04,-0.03,0.94,-0.11,-0.36,-0.74,
1.891,0.04,-0.03,0.94,-0.11,-0.36,-0.74,
1.891,0.04,-0.03,0.94,-0.08,-0.40,-0.68,
1.891,0.04,-0.03,0.94,-0.08,-0.40,-0.68,
1.891,0.04,-0.04,0.94,-0.08,-0.40,-0.68,
1.891,0.04,-0.04,0.94,-0.08,-0.43,-0.59,
1.892,0.04,-0.04,0.94,-0.08,-0.43,-0.59,
1.893,0.04,-0.05,0.93,-0.08,-0.43,-0.59,
1.893,0.04,-0.05,0.93,-0.08,-0.50,-0.54,
1.895,0.04,-0.06,0.93,-0.08,-0.50,-0.54,
1.902,0.04,-0.06,0.93,-0.08,-0.50,-0.54,
1.903,0.04,-0.06,0.93,-0.07,-0.62,-0.60,
1.903,0.04,-0.06,0.93,-0.07,-0.62,-0.60,
1.904,0.04,-0.06,0.93,-0.07,-0.72,-0.62,
1.904,0.04,-0.06,0.93,-0.07,-0.72,-0.62,
1.905,0.04,-0.06,0.94,-0.07,-0.72,-0.62,
1.908,0.03,-0.06,0.94,-0.07,-0.72,-0.62,
1.908,0.03,-0.06,0.94,-0.04,-0.74,-0.63,
1.91,0.03,-0.06,0.94,-0.04,-0.74,-0.63,
1.923,0.02,-0.06,0.94,-0.04,-0.74,-0.63,
1.924,0.02,-0.06,0.94,-0.12,-0.73,-0.55,
1.924,0.02,-0.06,0.95,-0.12,-0.73,-0.55,
1.924,0.01,-0.06,0.95,-0.12,-0.73,-0.55,
1.924,0.01,-0.06,0.95,-0.23,-0.70,-0.56,
1.925,0.01,-0.06,0.94,-0.23,-0.70,-0.56,
1.925,0.01,-0.06,0.94,-0.23,-0.70,-0.56,
1.925,0.01,-0.06,0.94,-0.34,-0.71,-0.45,
1.925,0.02,-0.06,0.94,-0.34,-0.71,-0.45,
1.928,0.01,-0.07,0.94,-0.34,-0.71,-0.45,
1.928,0.01,-0.07,0.94,-0.38,-0.71,-0.52,
1.937,0.02,-0.07,0.94,-0.38,-0.71,-0.52,
1.937,0.02,-0.07,0.94,-0.38,-0.71,-0.52,
1.937,0.02,-0.07,0.94,-0.33,-0.77,-0.55,
1.938,0.01,-0.07,0.93,-0.33,-0.77,-0.55,
1.938,0.01,-0.08,0.94,-0.33,-0.77,-0.55,
1.938,0.01,-0.08,0.94,-0.32,-0.79,-0.53,
1.939,0.01,-0.08,0.93,-0.32,-0.79,-0.53,
1.942,0.01,-0.08,0.92,-0.32,-0.79,-0.53,
1.943,0.01,-0.08,0.92,-0.39,-0.85,-0.57,
1.944,0.00,-0.08,0.92,-0.39,-0.85,-0.57,
1.952,-0.00,-0.08,0.92,-0.39,-0.85,-0.57,
1.953,-0.00,-0.08,0.92,-0.42,-0.90,-0.65,
1.953,-0.01,-0.08,0.92,-0.42,-0.90,-0.65,
1.953,-0.02,-0.08,0.92,-0.42,-0.90,-0.65,
1.954,-0.02,-0.08,0.92,-0.48,-0.88,-0.66,
1.954,-0.02,-0.08,0.91,-0.48,-0.88,-0.66,
1.957,-0.03,-0.07,0.92,-0.48,-0.88,-0.66,
1.957,-0.03,-0.07,0.92,-0.61,-0.90,-0.68,
1.959,-0.03,-0.08,0.91,-0.61,-0.90,-0.68,
1.961,-0.04,-0.08,0.91,-0.61,-0.90,-0.68,
1.962,-0.04,-0.08,0.91,-0.78,-0.87,-0.73,
1.968,-0.04,-0.08,0.91,-0.78,-0.87,-0.73,
1.968,-0.05,-0.08,0.91,-0.78,-0.87,-0.73,
1.968,-0.05,-0.08,0.91,-0.84,-0.91,-0.78,
1.969,-0.05,-0.08,0.91,-0.84,-0.91,-0.78,
1.971,-0.06,-0.08,0.92,-0.84,-0.91,-0.78,
1.972,-0.06,-0.08,0.92,-0.95,-0.90,-0.74,
1.974,-0.07,-0.08,0.92,-0.95,-0.90,-0.74,
1.976,-0.07,-0.08,0.93,-0.95,-0.90,-0.74,
1.977,-0.07,-0.08,0.93,-1.06,-0.92,-0.70,
1.979,-0.07,-0.08,0.93,-1.06,-0.92,-0.70,
1.986,-0.07,-0.08,0.93,-1.06,-0.92,-0.70,
1.987,-0.07,-0.08,0.93,-1.14,-0.92,-0.58,
1.987,-0.07,-0.09,0.93,-1.14,-0.92,-0.58,
1.988,-0.07,-0.09,0.94,-1.14,-0.92,-0.58,
1.988,-0.07,-0.09,0.94,-1.16,-0.96,-0.51,
1.989,-0.06,-0.10,0.94,-1.16,-0.96,-0.51,
1.991,-0.06,-0.10,0.93,-1.16,-0.96,-0.51,
1.991,-0.06,-0.10,0.93,-1.14,-1.06,-0.48,
1.994,-0.06,-0.10,0.94,-1.14,-1.06,-0.48,
2.007,-0.07,-0.11,0.93,-1.14,-1.06,-0.48,
2.008,-0.07,-0.11,0.93,-1.11,-1.15,-0.48,
2.009,-0.07,-0.11,0.93,-1.11,-1.15,-0.48,
2.009,-0.07,-0.11,0.93,-1.11,-1.15,-0.48,
2.009,-0.07,-0.11,0.93,-1.11,-1.21,-0.49,
2.009,-0.07,-0.11,0.93,-1.11,-1.21,-0.49,
2.01,-0.08,-0.10,0.93,-1.11,-1.21,-0.49,
2.01,-0.08,-0.10,0.93,-1.13,-1.23,-0.51,
2.01,-0.09,-0.10,0.93,-1.13,-1.23,-0.51,
2.011,-0.09,-0.09,0.94,-1.13,-1.23,-0.51,
2.011,-0.09,-0.09,0.94,-1.23,-1.20,-0.53,
2.021,-0.10,-0.09,0.94,-1.23,-1.20,-0.53,
2.021,-0.10,-0.09,0.94,-1.23,-1.20,-0.53,
2.022,-0.10,-0.09,0.94,-1.35,-1.11,-0.47,
2.022,-0.11,-0.08,0.95,-1.35,-1.11,-0.47,
2.022,-0.12,-0.08,0.96,-1.35,-1.11,-0.47,
2.022,-0.12,-0.08,0.96,-1.47,-1.05,-0.42,
2.023,-0.12,-0.07,0.96,-1.47,-1.05,-0.42,
2.026,-0.13,-0.07,0.96,-1.47,-1.05,-0.42,
2.026,-0.13,-0.07,0.96,-1.61,-0.96,-0.27,
2.028,-0.14,-0.07,0.96,-1.61,-0.96,-0.27,
2.04,-0.14,-0.07,0.96,-1.61,-0.96,-0.27,
2.04,-0.14,-0.07,0.96,-1.74,-0.88,-0.25,
2.041,-0.14,-0.07,0.96,-1.74,-0.88,-0.25,
2.041,-0.15,-0.07,0.96,-1.74,-0.88,-0.25,
2.041,-0.15,-0.07,0.96,-1.84,-0.91,-0.22,
2.042,-0.15,-0.07,0.96,-1.84,-0.91,-0.22,
2.042,-0.15,-0.07,0.96,-1.84,-0.91,-0.22,
2.042,-0.15,-0.07,0.96,-1.91,-0.91,-0.23,
2.043,-0.15,-0.07,0.95,-1.91,-0.91,-0.23,
2.046,-0.15,-0.07,0.95,-1.91,-0.91,-0.23,
2.046,-0.15,-0.07,0.95,-1.93,-0.90,-0.27,
2.052,-0.14,-0.07,0.95,-1.93,-0.90,-0.27,
2.053,-0.15,-0.07,0.96,-1.93,-0.90,-0.27,
2.053,-0.15,-0.07,0.96,-1.94,-0.90,-0.30,
2.054,-0.15,-0.06,0.96,-1.94,-0.90,-0.30,
2.056,-0.14,-0.06,0.95,-1.94,-0.90,-0.30,
2.056,-0.14,-0.06,0.95,-1.95,-0.86,-0.26,
2.058,-0.15,-0.05,0.96,-1.95,-0.86,-0.26,
2.061,-0.15,-0.04,0.96,-1.95,-0.86,-0.26,
2.061,-0.15,-0.04,0.96,-1.93,-0.80,-0.24,
2.068,-0.16,-0.04,0.97,-1.93,-0.80,-0.24,
2.069,-0.16,-0.03,0.97,-1.93,-0.80,-0.24,
2.069,-0.16,-0.03,0.97,-2.01,-0.67,-0.22,
2.069,-0.17,-0.03,0.97,-2.01,-0.67,-0.22,
2.07,-0.18,-0.03,0.98,-2.01,-0.67,-0.22,
2.071,-0.18,-0.03,0.98,-2.08,-0.57,-0.13,
2.073,-0.18,-0.02,0.97,-2.08,-0.57,-0.13,
2.076,-0.18,-0.02,0.98,-2.08,-0.57,-0.13,
2.076,-0.18,-0.02,0.98,-2.21,-0.50,-0.09,
2.078,-0.19,-0.02,0.97,-2.21,-0.50,-0.09,
2.086,-0.18,-0.02,0.98,-2.21,-0.50,-0.09,
2.087,-0.18,-0.02,0.98,-2.30,-0.42,-0.08,
2.087,-0.18,-0.02,0.99,-2.30,-0.42,-0.08,
2.087,-0.19,-0.02,0.99,-2.30,-0.42,-0.08,
2.087,-0.19,-0.02,0.99,-2.35,-0.36,-0.06,
2.088,-0.19,-0.02,0.99,-2.35,-0.36,-0.06,
2.09,-0.18,-0.02,0.99,-2.35,-0.36,-0.06,
2.09,-0.18,-0.02,0.99,-2.36,-0.36,0.05,
2.093,-0.19,-0.02,0.99,-2.36,-0.36,0.05,
2.095,-0.18,-0.03,0.99,-2.36,-0.36,0.05,
2.095,-0.18,-0.03,0.99,-2.36,-0.36,0.08,
2.109,-0.18,-0.03,1.00,-2.36,-0.36,0.08,
2.11,-0.18,-0.03,1.00,-2.36,-0.36,0.08,
2.11,-0.18,-0.03,1.00,-2.37,-0.42,0.08,
2.11,-0.18,-0.04,1.00,-2.37,-0.42,0.08,
2.111,-0.18,-0.04,1.00,-2.37,-0.42,0.08,
2.111,-0.18,-0.04,1.00,-2.35,-0.47,0.14,
2.111,-0.18,-0.05,1.00,-2.35,-0.47,0.14,
2.111,-0.18,-0.05,1.01,-2.35,-0.47,0.14,
2.112,-0.18,-0.05,1.01,-2.34,-0.58,0.17,
2.113,-0.18,-0.05,1.02,-2.34,-0.58,0.17,
2.122,-0.19,-0.05,1.02,-2.34,-0.58,0.17,
2.123,-0.19,-0.05,1.02,-2.35,-0.64,0.25,
2.123,-0.19,-0.05,1.03,-2.35,-0.64,0.25,
2.123,-0.20,-0.05,1.03,-2.35,-0.64,0.25,
2.124,-0.20,-0.05,1.03,-2.42,-0.65,0.36,
2.124,-0.20,-0.05,1.04,-2.42,-0.65,0.36,
2.126,-0.20,-0.06,1.05,-2.42,-0.65,0.36,
2.126,-0.20,-0.06,1.05,-2.55,-0.67,0.46,
2.127,-0.21,-0.06,1.05,-2.55,-0.67,0.46,
2.139,-0.21,-0.06,1.06,-2.55,-0.67,0.46,
2.14,-0.21,-0.06,1.06,-2.63,-0.69,0.60,
2.14,-0.21,-0.06,1.07,-2.63,-0.69,0.60,
2.14,-0.21,-0.06,1.07,-2.63,-0.69,0.60,
2.141,-0.21,-0.06,1.07,-2.69,-0.72,0.74,
2.141,-0.21,-0.06,1.08,-2.69,-0.72,0.74,
2.141,-0.22,-0.05,1.09,-2.69,-0.72,0.74,
2.144,-0.22,-0.05,1.09,-2.73,-0.70,0.87,
2.144,-0.22,-0.05,1.09,-2.73,-0.70,0.87,
2.146,-0.21,-0.04,1.09,-2.73,-0.70,0.87,
2.146,-0.21,-0.04,1.09,-2.80,-0.68,1.01,
2.147,-0.21,-0.04,1.09,-2.80,-0.68,1.01,
2.154,-0.22,-0.04,1.09,-2.80,-0.68,1.01,
2.155,-0.22,-0.04,1.09,-2.82,-0.60,1.08,
2.155,-0.22,-0.03,1.09,-2.82,-0.60,1.08,
2.155,-0.22,-0.04,1.09,-2.82,-0.60,1.08,
2.155,-0.22,-0.04,1.09,-2.84,-0.54,1.09,
2.158,-0.22,-0.03,1.09,-2.84,-0.54,1.09,
2.16,-0.22,-0.03,1.09,-2.84,-0.54,1.09,
2.16,-0.22,-0.03,1.09,-2.91,-0.51,1.10,
2.163,-0.23,-0.03,1.09,-2.91,-0.51,1.10,
2.17,-0.22,-0.03,1.09,-2.91,-0.51,1.10,
2.17,-0.22,-0.03,1.09,-2.91,-0.48,1.06,
2.17,-0.22,-0.03,1.09,-2.91,-0.48,1.06,
2.17,-0.22,-0.03,1.08,-2.91,-0.48,1.06,
2.171,-0.22,-0.03,1.08,-2.95,-0.48,1.05,
2.173,-0.22,-0.03,1.07,-2.95,-0.48,1.05,
2.175,-0.23,-0.03,1.06,-2.95,-0.48,1.05,
2.175,-0.23,-0.03,1.06,-2.91,-0.48,1.00,
2.179,-0.23,-0.03,1.06,-2.91,-0.48,1.00,
2.18,-0.23,-0.03,1.06,-2.95,-0.50,0.80,
2.181,-0.23,-0.03,1.05,-2.95,-0.50,0.80,
2.188,-0.23,-0.03,1.06,-2.95,-0.50,0.80,
2.188,-0.24,-0.03,1.07,-2.95,-0.50,0.80,
2.189,-0.24,-0.03,1.07,-2.96,-0.55,0.70,
2.189,-0.24,-0.02,1.07,-2.96,-0.55,0.70,
2.19,-0.24,-0.02,1.07,-2.96,-0.55,0.70,
2.19,-0.24,-0.02,1.07,-3.03,-0.56,0.79,
2.192,-0.24,-0.02,1.06,-3.03,-0.56,0.79,
2.195,-0.24,-0.02,1.06,-3.03,-0.56,0.79,
2.195,-0.24,-0.02,1.06,-3.05,-0.49,0.86,
2.198,-0.24,-0.03,1.06,-3.05,-0.49,0.86,
2.206,-0.24,-0.03,1.06,-3.05,-0.49,0.86,
2.206,-0.24,-0.03,1.06,-3.03,-0.54,0.78,
2.207,-0.23,-0.04,1.05,-3.03,-0.54,0.78,
2.207,-0.23,-0.03,1.05,-3.03,-0.54,0.78,
2.207,-0.23,-0.03,1.05,-3.00,-0.60,0.72,
2.207,-0.23,-0.03,1.05,-3.00,-0.60,0.72,
2.21,-0.23,-0.04,1.04,-3.00,-0.60,0.72,
2.21,-0.23,-0.04,1.04,-2.92,-0.67,0.66,
2.213,-0.23,-0.03,1.04,-2.92,-0.67,0.66,
2.214,-0.22,-0.02,1.04,-2.92,-0.67,0.66,
2.223,-0.22,-0.02,1.04,-2.85,-0.69,0.60,
2.223,-0.23,-0.02,1.03,-2.85,-0.69,0.60,
2.224,-0.23,-0.02,1.03,-2.85,-0.69,0.60,
2.224,-0.23,-0.02,1.03,-2.81,-0.62,0.54,
2.224,-0.23,-0.01,1.03,-2.81,-0.62,0.54,
2.224,-0.24,-0.01,1.03,-2.81,-0.62,0.54,
2.224,-0.24,-0.01,1.03,-2.79,-0.56,0.50,
2.227,-0.24,0.00,1.04,-2.79,-0.56,0.50,
2.23,-0.24,0.01,1.03,-2.79,-0.56,0.50,
2.23,-0.24,0.01,1.03,-2.87,-0.49,0.46,
2.24,-0.24,0.01,1.03,-2.87,-0.49,0.46,
2.241,-0.24,0.02,1.04,-2.87,-0.49,0.46,
2.241,-0.24,0.02,1.04,-2.88,-0.35,0.50,
2.241,-0.24,0.02,1.05,-2.88,-0.35,0.50,
2.241,-0.24,0.03,1.05,-2.88,-0.35,0.50,
2.241,-0.24,0.03,1.05,-2.93,-0.25,0.53,
2.242,-0.23,0.03,1.05,-2.93,-0.25,0.53,
2.244,-0.23,0.03,1.05,-2.91,-0.17,0.65,
2.244,-0.23,0.02,1.05,-2.91,-0.17,0.65,
2.247,-0.22,0.02,1.06,-2.91,-0.17,0.65,
2.254,-0.21,0.02,1.06,-2.91,-0.17,0.65,
2.255,-0.21,0.02,1.06,-2.81,-0.18,0.67,
2.255,-0.21,0.02,1.07,-2.81,-0.18,0.67,
2.255,-0.21,0.02,1.07,-2.81,-0.18,0.67,
2.256,-0.21,0.02,1.07,-2.65,-0.24,0.74,
2.256,-0.20,0.02,1.08,-2.65,-0.24,0.74,
2.259,-0.19,0.02,1.08,-2.65,-0.24,0.74,
2.259,-0.19,0.02,1.08,-2.54,-0.25,0.83,
2.262,-0.19,0.02,1.08,-2.54,-0.25,0.83,
2.264,-0.19,0.01,1.08,-2.54,-0.25,0.83,
2.264,-0.19,0.01,1.08,-2.46,-0.26,0.92,
2.27,-0.19,0.01,1.08,-2.46,-0.26,0.92,
2.271,-0.19,0.01,1.08,-2.46,-0.26,0.92,
2.271,-0.19,0.01,1.08,-2.39,-0.30,0.93,
2.271,-0.19,0.01,1.08,-2.39,-0.30,0.93,
2.274,-0.20,0.01,1.08,-2.39,-0.30,0.93,
2.274,-0.20,0.01,1.08,-2.37,-0.33,0.92,
2.277,-0.20,0.01,1.08,-2.37,-0.33,0.92,
2.279,-0.20,0.01,1.08,-2.37,-0.33,0.92,
2.279,-0.20,0.01,1.08,-2.40,-0.34,0.94,
2.281,-0.21,0.01,1.08,-2.40,-0.34,0.94,
2.288,-0.21,0.01,1.08,-2.40,-0.34,0.94,
2.288,-0.21,0.01,1.08,-2.43,-0.34,0.92,
2.289,-0.21,0.01,1.07,-2.43,-0.34,0.92,
2.289,-0.21,0.00,1.07,-2.43,-0.34,0.92,
2.289,-0.21,0.00,1.07,-2.51,-0.41,0.92,
2.292,-0.22,-0.00,1.07,-2.51,-0.41,0.92,
2.294,-0.21,-0.00,1.06,-2.51,-0.41,0.92,
2.294,-0.21,-0.00,1.06,-2.50,-0.43,0.83,
2.296,-0.21,-0.01,1.04,-2.50,-0.43,0.83,
2.309,-0.21,-0.02,1.04,-2.50,-0.43,0.83,
2.309,-0.21,-0.02,1.04,-2.55,-0.51,0.76,
2.31,-0.21,-0.03,1.03,-2.55,-0.51,0.76,
2.31,-0.22,-0.03,1.02,-2.55,-0.51,0.76,
2.31,-0.22,-0.03,1.02,-2.50,-0.63,0.55,
2.313,-0.23,-0.04,1.00,-2.50,-0.63,0.55,
2.313,-0.23,-0.04,0.99,-2.50,-0.63,0.55,
2.313,-0.23,-0.04,0.99,-2.56,-0.77,0.38,
2.313,-0.23,-0.05,0.98,-2.56,-0.77,0.38,
2.314,-0.23,-0.06,0.98,-2.56,-0.77,0.38,
2.314,-0.23,-0.06,0.98,-2.60,-0.90,0.10,
2.322,-0.23,-0.06,0.97,-2.60,-0.90,0.10,
2.323,-0.23,-0.06,0.96,-2.60,-0.90,0.10,
2.323,-0.23,-0.06,0.96,-2.60,-1.00,-0.07,
2.324,-0.23,-0.07,0.95,-2.60,-1.00,-0.07,
2.324,-0.23,-0.07,0.94,-2.60,-1.00,-0.07,
2.324,-0.23,-0.07,0.94,-2.63,-1.12,-0.22,
2.325,-0.23,-0.06,0.94,-2.63,-1.12,-0.22,
2.328,-0.23,-0.06,0.94,-2.63,-1.12,-0.22,
2.328,-0.23,-0.06,0.94,-2.56,-1.16,-0.38,
2.33,-0.23,-0.05,0.94,-2.56,-1.16,-0.38,
2.341,-0.23,-0.05,0.94,-2.56,-1.16,-0.38,
2.342,-0.23,-0.05,0.94,-2.57,-1.12,-0.45,
2.342,-0.23,-0.04,0.95,-2.57,-1.12,-0.45,
2.342,-0.22,-0.04,0.95,-2.57,-1.12,-0.45,
2.342,-0.22,-0.04,0.95,-2.53,-1.04,-0.44,
2.343,-0.21,-0.03,0.95,-2.53,-1.04,-0.44,
2.343,-0.21,-0.02,0.96,-2.53,-1.04,-0.44,
2.343,-0.21,-0.02,0.96,-2.44,-0.91,-0.33,
2.345,-0.19,-0.01,0.97,-2.44,-0.91,-0.33,
2.355,-0.18,0.00,0.98,-2.44,-0.91,-0.33,
2.356,-0.18,0.00,0.98,-2.30,-0.71,-0.29,
2.356,-0.17,0.01,0.99,-2.30,-0.71,-0.29,
2.356,-0.15,0.02,1.00,-2.30,-0.71,-0.29,
2.356,-0.15,0.02,1.00,-2.08,-0.52,-0.11,
2.356,-0.13,0.03,1.01,-2.08,-0.52,-0.11,
2.358,-0.11,0.05,1.01,-2.08,-0.52,-0.11,
2.358,-0.11,0.05,1.01,-1.79,-0.32,0.05,
2.36,-0.10,0.05,1.02,-1.79,-0.32,0.05,
2.362,-0.08,0.06,1.03,-1.79,-0.32,0.05,
2.363,-0.08,0.06,1.03,-1.44,-0.12,0.24,
2.369,-0.06,0.08,1.04,-1.44,-0.12,0.24,
2.37,-0.04,0.08,1.05,-1.44,-0.12,0.24,
2.37,-0.04,0.08,1.05,-1.16,0.09,0.37,
2.371,-0.02,0.09,1.05,-1.16,0.09,0.37,
2.373,-0.02,0.09,1.05,-0.81,0.30,0.54,
2.373,-0.01,0.10,1.06,-0.81,0.30,0.54,
2.375,0.01,0.11,1.07,-0.81,0.30,0.54,
2.377,0.01,0.11,1.07,-0.45,0.45,0.67,
2.378,0.02,0.12,1.08,-0.45,0.45,0.67,
2.38,0.04,0.12,1.08,-0.45,0.45,0.67,
2.387,0.05,0.13,1.09,-0.45,0.45,0.67,
2.387,0.05,0.13,1.09,-0.17,0.66,0.83,
2.388,0.05,0.14,1.09,-0.17,0.66,0.83,
2.388,0.06,0.14,1.09,-0.17,0.66,0.83,
2.388,0.06,0.14,1.09,0.07,0.79,0.95,
2.39,0.07,0.15,1.10,0.07,0.79,0.95,
2.392,0.07,0.15,1.10,0.07,0.79,0.95,
2.392,0.07,0.15,1.10,0.21,0.91,1.04,
2.395,0.07,0.15,1.10,0.21,0.91,1.04,
2.405,0.06,0.15,1.10,0.21,0.91,1.04,
2.405,0.06,0.15,1.10,0.33,1.00,1.09,
2.405,0.06,0.15,1.10,0.33,1.00,1.09,
2.406,0.06,0.14,1.10,0.33,1.00,1.09,
2.406,0.06,0.14,1.10,0.31,1.03,1.11,
2.406,0.06,0.13,1.10,0.31,1.03,1.11,
2.407,0.05,0.12,1.10,0.31,1.03,1.11,
2.407,0.05,0.12,1.10,0.25,0.98,1.11,
2.41,0.05,0.12,1.09,0.25,0.98,1.11,
2.412,0.04,0.11,1.09,0.25,0.98,1.11,
2.412,0.04,0.11,1.09,0.17,0.84,1.06,
2.414,0.03,0.10,1.09,0.17,0.84,1.06,
2.426,0.03,0.09,1.08,0.17,0.84,1.06,
2.427,0.03,0.09,1.08,0.09,0.69,1.01,
2.427,0.02,0.09,1.08,0.09,0.69,1.01,
2.428,0.02,0.08,1.08,0.09,0.69,1.01,
2.428,0.02,0.08,1.08,-0.04,0.53,0.97,
2.428,0.01,0.07,1.08,-0.04,0.53,0.97,
2.428,0.01,0.06,1.07,-0.04,0.53,0.97,
2.429,0.01,0.06,1.07,-0.10,0.41,0.88,
2.43,0.00,0.05,1.06,-0.10,0.41,0.88,
2.432,-0.00,0.04,1.06,-0.10,0.41,0.88,
2.433,-0.00,0.04,1.06,-0.18,0.28,0.81,
2.442,-0.01,0.04,1.06,-0.18,0.28,0.81,
2.443,-0.01,0.04,1.05,-0.18,0.28,0.81,
2.443,-0.01,0.04,1.05,-0.28,0.10,0.71,
2.443,-0.01,0.04,1.05,-0.28,0.10,0.71,
2.444,-0.02,0.04,1.05,-0.28,0.10,0.71,
2.444,-0.02,0.04,1.05,-0.34,0.04,0.63,
2.444,-0.02,0.03,1.05,-0.34,0.04,0.63,
2.447,-0.02,0.04,1.05,-0.34,0.04,0.63,
2.447,-0.02,0.04,1.05,-0.39,0.01,0.61,
2.459,-0.02,0.04,1.04,-0.39,0.01,0.61,
2.46,-0.02,0.03,1.04,-0.39,0.01,0.61,
2.46,-0.02,0.03,1.04,-0.41,-0.02,0.56,
2.461,-0.02,0.04,1.04,-0.41,-0.02,0.56,
2.461,-0.02,0.04,1.04,-0.41,-0.02,0.56,
2.462,-0.02,0.04,1.04,-0.38,-0.01,0.51,
2.462,-0.02,0.05,1.04,-0.38,-0.01,0.51,
2.462,-0.01,0.05,1.04,-0.38,-0.01,0.51,
2.462,-0.01,0.05,1.04,-0.36,0.03,0.50,
2.464,-0.01,0.06,1.04,-0.36,0.03,0.50,
2.474,-0.01,0.06,1.04,-0.36,0.03,0.50,
2.475,-0.01,0.06,1.04,-0.31,0.12,0.51,
2.476,-0.01,0.06,1.05,-0.31,0.12,0.51,
2.479,-0.01,0.07,1.05,-0.31,0.12,0.51,
2.479,-0.01,0.07,1.05,-0.22,0.20,0.51,
2.48,-0.00,0.07,1.05,-0.22,0.20,0.51,
2.48,0.00,0.07,1.05,-0.22,0.20,0.51,
2.481,0.00,0.07,1.05,-0.21,0.28,0.57,
2.481,0.00,0.07,1.04,-0.21,0.28,0.57,
2.482,0.00,0.07,1.04,-0.21,0.28,0.57,
2.482,0.00,0.07,1.04,-0.11,0.36,0.56,
2.488,0.01,0.07,1.04,-0.11,0.36,0.56,
2.489,0.00,0.07,1.04,-0.11,0.36,0.56,
2.489,0.00,0.07,1.04,-0.04,0.33,0.53,
2.49,0.01,0.06,1.04,-0.04,0.33,0.53,
2.492,0.01,0.06,1.03,-0.04,0.33,0.53,
2.493,0.01,0.06,1.03,-0.01,0.32,0.48,
2.494,0.01,0.05,1.03,-0.01,0.32,0.48,
2.498,0.01,0.05,1.02,-0.01,0.32,0.48,
2.499,0.01,0.05,1.02,0.04,0.25,0.42,
2.504,0.01,0.05,1.02,0.04,0.25,0.42,
2.505,0.02,0.05,1.02,0.04,0.25,0.42,
2.505,0.02,0.05,1.02,0.08,0.17,0.36,
2.505,0.02,0.04,1.01,0.08,0.17,0.36,
2.507,0.02,0.04,1.01,0.08,0.17,0.36,
2.508,0.02,0.04,1.01,0.13,0.16,0.29,
2.51,0.03,0.04,1.00,0.13,0.16,0.29,
2.512,0.04,0.04,1.00,0.13,0.16,0.29,
2.513,0.04,0.04,1.00,0.19,0.04,0.20,
2.514,0.04,0.03,1.01,0.19,0.04,0.20,
2.527,0.05,0.03,1.00,0.19,0.04,0.20,
2.528,0.05,0.03,1.00,0.33,0.03,0.10,
2.528,0.06,0.04,1.01,0.33,0.03,0.10,
2.528,0.06,0.04,1.01,0.48,-0.02,0.15,
2.528,0.08,0.04,1.01,0.48,-0.02,0.15,
2.529,0.09,0.05,1.01,0.48,-0.02,0.15,
2.529,0.10,0.05,1.01,0.48,-0.02,0.15,
2.529,0.10,0.05,1.01,0.69,0.05,0.21,
2.529,0.11,0.06,1.02,0.69,0.05,0.21,
2.531,0.13,0.07,1.03,0.69,0.05,0.21,
2.531,0.13,0.07,1.03,0.95,0.12,0.22,
2.54,0.13,0.08,1.03,0.95,0.12,0.22,
2.541,0.14,0.09,1.04,0.95,0.12,0.22,
2.541,0.14,0.09,1.04,1.15,0.26,0.33,
2.541,0.15,0.10,1.05,1.15,0.26,0.33,
2.541,0.16,0.11,1.06,1.15,0.26,0.33,
2.542,0.16,0.11,1.06,1.32,0.46,0.47,
2.543,0.17,0.12,1.06,1.32,0.46,0.47,
2.546,0.17,0.13,1.07,1.32,0.46,0.47,
2.547,0.17,0.13,1.07,1.46,0.64,0.64,
2.549,0.18,0.14,1.08,1.46,0.64,0.64,
2.559,0.19,0.15,1.09,1.46,0.64,0.64,
2.56,0.19,0.15,1.09,1.59,0.83,0.77,
2.56,0.20,0.16,1.10,1.59,0.83,0.77,
2.56,0.20,0.16,1.11,1.59,0.83,0.77,
2.561,0.20,0.16,1.11,1.74,1.02,0.93,
2.561,0.21,0.17,1.12,1.74,1.02,0.93,
2.561,0.21,0.17,1.13,1.74,1.02,0.93,
2.561,0.21,0.17,1.13,1.85,1.14,1.13,
2.564,0.21,0.17,1.14,1.85,1.14,1.13,
2.572,0.21,0.17,1.14,1.85,1.14,1.13,
2.573,0.21,0.17,1.14,1.95,1.21,1.35,
2.573,0.21,0.17,1.15,1.95,1.21,1.35,
2.573,0.21,0.16,1.15,1.95,1.21,1.35,
2.574,0.21,0.16,1.15,1.94,1.24,1.46,
2.574,0.21,0.16,1.16,1.94,1.24,1.46,
2.576,0.21,0.15,1.17,1.94,1.24,1.46,
2.578,0.21,0.15,1.17,1.92,1.18,1.58,
2.578,0.21,0.14,1.17,1.92,1.18,1.58,
2.581,0.20,0.13,1.18,1.92,1.18,1.58,
2.581,0.20,0.13,1.18,1.92,1.08,1.67,
2.588,0.20,0.13,1.18,1.92,1.08,1.67,
2.589,0.19,0.11,1.18,1.92,1.08,1.67,
2.589,0.19,0.11,1.18,1.85,0.91,1.78,
2.589,0.19,0.10,1.19,1.85,0.91,1.78,
2.591,0.18,0.10,1.19,1.85,0.91,1.78,
2.592,0.18,0.10,1.19,1.73,0.71,1.87,
2.593,0.18,0.08,1.18,1.73,0.71,1.87,
2.596,0.17,0.07,1.19,1.73,0.71,1.87,
2.597,0.17,0.07,1.19,1.61,0.52,1.90,
2.598,0.16,0.06,1.18,1.61,0.52,1.90,
2.606,0.16,0.06,1.18,1.61,0.52,1.90,
2.606,0.16,0.06,1.18,1.53,0.28,1.89,
2.606,0.16,0.05,1.17,1.53,0.28,1.89,
2.607,0.16,0.04,1.16,1.53,0.28,1.89,
2.607,0.16,0.04,1.16,1.39,0.10,1.83,
2.608,0.15,0.03,1.16,1.39,0.10,1.83,
2.61,0.15,0.02,1.14,1.39,0.10,1.83,
2.61,0.15,0.02,1.14,1.35,-0.07,1.67,
2.612,0.15,0.01,1.14,1.35,-0.07,1.67,
2.615,0.15,0.01,1.13,1.35,-0.07,1.67,
2.623,0.15,0.01,1.13,1.29,-0.27,1.55,
2.624,0.14,0.00,1.12,1.29,-0.27,1.55,
2.624,0.15,0.00,1.10,1.29,-0.27,1.55,
2.625,0.15,0.00,1.10,1.27,-0.42,1.37,
2.625,0.14,0.00,1.09,1.27,-0.42,1.37,
2.625,0.15,0.00,1.08,1.27,-0.42,1.37,
2.626,0.15,0.00,1.08,1.27,-0.51,1.14,
2.627,0.15,0.01,1.07,1.27,-0.51,1.14,
2.63,0.15,0.01,1.06,1.27,-0.51,1.14,
2.63,0.15,0.01,1.06,1.31,-0.56,0.91,
2.644,0.15,0.01,1.05,1.31,-0.56,0.91,
2.645,0.15,0.01,1.03,1.31,-0.56,0.91,
2.647,0.15,0.01,1.03,1.35,-0.52,0.70,
2.648,0.15,0.02,1.02,1.35,-0.52,0.70,
2.648,0.15,0.02,1.02,1.35,-0.52,0.70,
2.648,0.15,0.02,1.02,1.39,-0.51,0.45,
2.648,0.16,0.03,1.00,1.39,-0.51,0.45,
2.648,0.16,0.04,0.99,1.39,-0.51,0.45,
2.649,0.16,0.04,0.99,1.45,-0.44,0.26,
2.649,0.17,0.04,0.99,1.45,-0.44,0.26,
2.658,0.17,0.05,0.99,1.45,-0.44,0.26,
2.658,0.17,0.05,0.99,1.55,-0.37,0.03,
2.659,0.17,0.06,0.98,1.55,-0.37,0.03,
2.659,0.17,0.07,0.98,1.55,-0.37,0.03,
2.659,0.17,0.07,0.98,1.63,-0.27,-0.02,
2.659,0.17,0.08,0.98,1.63,-0.27,-0.02,
2.66,0.16,0.09,0.98,1.63,-0.27,-0.02,
2.66,0.16,0.09,0.98,1.67,-0.11,-0.11,
2.662,0.16,0.10,0.98,1.67,-0.11,-0.11,
2.664,0.15,0.11,0.99,1.67,-0.11,-0.11,
2.665,0.15,0.11,0.99,1.68,0.09,-0.13,
2.677,0.15,0.12,1.00,1.68,0.09,-0.13,
2.678,0.15,0.12,1.00,1.68,0.09,-0.13,
2.678,0.15,0.12,1.00,1.61,0.25,-0.07,
2.678,0.14,0.13,0.99,1.61,0.25,-0.07,
2.679,0.14,0.13,1.00,1.61,0.25,-0.07,
2.679,0.14,0.13,1.00,1.57,0.39,0.03,
2.679,0.13,0.14,1.01,1.57,0.39,0.03,
2.679,0.12,0.13,1.01,1.57,0.39,0.03,
2.68,0.12,0.13,1.01,1.50,0.47,0.07,
2.682,0.13,0.13,1.02,1.50,0.47,0.07,
2.689,0.13,0.13,1.02,1.50,0.47,0.07,
2.69,0.13,0.13,1.02,1.42,0.52,0.19,
2.69,0.12,0.12,1.01,1.42,0.52,0.19,
2.69,0.12,0.12,1.01,1.42,0.52,0.19,
2.691,0.12,0.12,1.01,1.41,0.48,0.25,
2.692,0.12,0.11,1.02,1.41,0.48,0.25,
2.695,0.12,0.10,1.01,1.41,0.48,0.25,
2.695,0.12,0.10,1.01,1.35,0.34,0.21,
2.697,0.12,0.10,1.02,1.35,0.34,0.21,
2.699,0.12,0.09,1.02,1.35,0.34,0.21,
2.699,0.12,0.09,1.02,1.35,0.23,0.23,
2.705,0.12,0.08,1.02,1.35,0.23,0.23,
2.705,0.13,0.08,1.02,1.35,0.23,0.23,
2.706,0.13,0.08,1.02,1.37,0.09,0.26,
2.707,0.13,0.08,1.02,1.37,0.09,0.26,
2.709,0.13,0.07,1.02,1.37,0.09,0.26,
2.709,0.13,0.07,1.02,1.41,-0.07,0.27,
2.711,0.13,0.07,1.02,1.41,-0.07,0.27,
2.715,0.14,0.07,1.01,1.41,-0.07,0.27,
2.715,0.14,0.07,1.01,1.44,-0.14,0.27,
2.721,0.14,0.07,1.01,1.44,-0.14,0.27,
2.722,0.14,0.07,1.01,1.44,-0.14,0.27,
2.722,0.14,0.07,1.01,1.49,-0.19,0.25,
2.722,0.14,0.07,1.01,1.49,-0.19,0.25,
2.724,0.14,0.07,1.01,1.49,-0.19,0.25,
2.724,0.14,0.07,1.01,1.59,-0.23,0.20,
2.726,0.15,0.07,1.00,1.59,-0.23,0.20,
2.729,0.15,0.07,0.99,1.59,-0.23,0.20,
2.729,0.15,0.07,0.99,1.61,-0.22,0.19,
2.731,0.15,0.07,0.99,1.61,-0.22,0.19,
2.738,0.15,0.07,0.99,1.61,-0.22,0.19,
2.739,0.15,0.07,0.99,1.68,-0.21,0.01,
2.739,0.15,0.08,0.98,1.68,-0.21,0.01,
2.739,0.15,0.07,0.97,1.68,-0.21,0.01,
2.74,0.15,0.07,0.97,1.69,-0.23,-0.02,
2.741,0.15,0.07,0.96,1.69,-0.23,-0.02,
2.746,0.15,0.08,0.96,1.69,-0.23,-0.02,
2.746,0.15,0.08,0.96,1.68,-0.18,-0.16,
2.746,0.14,0.08,0.95,1.68,-0.18,-0.16,
2.749,0.15,0.08,0.94,1.68,-0.18,-0.16,
2.749,0.15,0.08,0.94,1.66,-0.16,-0.29,
2.763,0.16,0.09,0.93,1.66,-0.16,-0.29,
2.764,0.16,0.09,0.93,1.66,-0.16,-0.29,
2.764,0.16,0.09,0.93,1.71,-0.11,-0.41,
2.764,0.16,0.09,0.93,1.71,-0.11,-0.41,
2.765,0.16,0.09,0.93,1.71,-0.11,-0.41,
2.765,0.16,0.09,0.93,1.81,-0.09,-0.58,
2.765,0.15,0.09,0.93,1.81,-0.09,-0.58,
2.765,0.15,0.09,0.93,1.81,-0.09,-0.58,
2.766,0.15,0.09,0.93,1.80,-0.04,-0.62,
2.766,0.14,0.10,0.93,1.80,-0.04,-0.62,
2.774,0.15,0.10,0.93,1.80,-0.04,-0.62,
2.775,0.15,0.10,0.93,1.78,-0.02,-0.61,
2.775,0.14,0.10,0.93,1.78,-0.02,-0.61,
2.775,0.14,0.11,0.94,1.78,-0.02,-0.61,
2.775,0.14,0.11,0.94,1.71,0.04,-0.59,
2.776,0.14,0.11,0.95,1.71,0.04,-0.59,
2.778,0.14,0.11,0.95,1.69,0.09,-0.52,
2.779,0.13,0.10,0.95,1.69,0.09,-0.52,
2.781,0.13,0.10,0.96,1.69,0.09,-0.52,
2.793,0.13,0.10,0.96,1.69,0.09,-0.52,
2.794,0.13,0.10,0.96,1.62,0.10,-0.36,
2.794,0.12,0.10,0.97,1.62,0.10,-0.36,
2.794,0.12,0.10,0.97,1.62,0.10,-0.36,
2.795,0.12,0.10,0.97,1.56,0.07,-0.27,
2.795,0.12,0.09,0.98,1.56,0.07,-0.27,
2.795,0.12,0.10,0.99,1.56,0.07,-0.27,
2.795,0.12,0.10,0.99,1.50,0.05,-0.22,
2.796,0.12,0.10,1.00,1.50,0.05,-0.22,
2.798,0.12,0.09,1.00,1.50,0.05,-0.22,
2.798,0.12,0.09,1.00,1.49,0.03,-0.05,
2.801,0.13,0.09,1.01,1.49,0.03,-0.05,
2.807,0.12,0.09,1.02,1.49,0.03,-0.05,
2.808,0.12,0.09,1.02,1.46,0.03,0.09,
2.808,0.13,0.10,1.02,1.46,0.03,0.09,
2.808,0.13,0.10,1.02,1.46,0.03,0.09,
2.808,0.13,0.10,1.02,1.50,0.02,0.25,
2.811,0.13,0.10,1.02,1.50,0.02,0.25,
2.813,0.13,0.09,1.02,1.50,0.02,0.25,
2.814,0.13,0.09,1.02,1.52,0.07,0.29,
2.816,0.14,0.10,1.02,1.52,0.07,0.29,
2.822,0.13,0.10,1.02,1.52,0.07,0.29,
2.823,0.13,0.10,1.02,1.55,0.04,0.32,
2.823,0.13,0.10,1.03,1.55,0.04,0.32,
2.823,0.14,0.10,1.02,1.55,0.04,0.32,
2.823,0.14,0.10,1.02,1.57,0.06,0.29,
2.826,0.14,0.10,1.02,1.57,0.06,0.29,
2.828,0.13,0.11,1.01,1.57,0.06,0.29,
2.828,0.13,0.11,1.01,1.55,0.09,0.34,
2.831,0.13,0.11,1.01,1.55,0.09,0.34,
2.833,0.14,0.11,1.01,1.55,0.09,0.34,
2.833,0.14,0.11,1.01,1.56,0.12,0.26,
2.842,0.13,0.11,1.01,1.56,0.12,0.26,
2.842,0.13,0.12,1.00,1.56,0.12,0.26,
2.843,0.13,0.12,1.00,1.55,0.15,0.17,
2.843,0.13,0.12,1.00,1.55,0.15,0.17,
2.844,0.12,0.11,0.99,1.55,0.15,0.17,
2.844,0.12,0.11,0.99,1.51,0.20,0.18,
2.848,0.12,0.11,0.99,1.51,0.20,0.18,
2.849,0.11,0.11,0.98,1.51,0.20,0.18,
2.849,0.11,0.11,0.98,1.47,0.19,0.06,
2.86,0.11,0.11,0.98,1.47,0.19,0.06,
2.861,0.10,0.11,0.97,1.47,0.19,0.06,
2.861,0.10,0.11,0.97,1.36,0.16,-0.02,
2.861,0.10,0.11,0.97,1.36,0.16,-0.02,
2.861,0.10,0.11,0.98,1.36,0.16,-0.02,
2.861,0.10,0.11,0.98,1.28,0.13,-0.11,
2.861,0.09,0.11,0.97,1.28,0.13,-0.11,
2.863,0.09,0.11,0.97,1.28,0.13,-0.11,
2.863,0.09,0.11,0.97,1.21,0.13,-0.15,
2.866,0.08,0.11,0.97,1.21,0.13,-0.15,
2.867,0.08,0.11,0.96,1.21,0.13,-0.15,
2.874,0.08,0.11,0.96,1.10,0.08,-0.17,
2.875,0.08,0.11,0.96,1.10,0.08,-0.17,
2.875,0.08,0.11,0.96,1.10,0.08,-0.17,
2.875,0.08,0.11,0.96,1.03,0.07,-0.22,
2.875,0.08,0.11,0.96,1.03,0.07,-0.22,
2.878,0.07,0.11,0.96,1.03,0.07,-0.22,
2.878,0.07,0.11,0.96,1.01,0.07,-0.26,
2.881,0.08,0.11,0.96,1.01,0.07,-0.26,
2.883,0.07,0.11,0.95,1.01,0.07,-0.26,
2.883,0.07,0.11,0.95,0.96,0.06,-0.29,
2.892,0.08,0.11,0.96,0.96,0.06,-0.29,
2.892,0.08,0.11,0.95,0.96,0.06,-0.29,
2.892,0.08,0.11,0.95,0.94,0.07,-0.33,
2.892,0.08,0.12,0.95,0.94,0.07,-0.33,
2.892,0.08,0.12,0.95,0.94,0.07,-0.33,
2.893,0.08,0.12,0.95,0.98,0.07,-0.36,
2.895,0.08,0.11,0.94,0.98,0.07,-0.36,
2.898,0.08,0.12,0.94,0.98,0.07,-0.36,
2.898,0.08,0.12,0.94,0.97,0.11,-0.37,
2.9,0.09,0.12,0.94,0.97,0.11,-0.37,
2.907,0.09,0.12,0.93,0.97,0.11,-0.37,
2.907,0.09,0.12,0.93,0.98,0.10,-0.47,
2.907,0.09,0.13,0.93,0.98,0.10,-0.47,
2.908,0.09,0.13,0.93,0.98,0.10,-0.47,
2.908,0.09,0.13,0.93,1.02,0.16,-0.52,
2.91,0.09,0.13,0.93,1.02,0.16,-0.52,
2.913,0.09,0.14,0.93,1.02,0.16,-0.52,
2.913,0.09,0.14,0.93,1.04,0.23,-0.59,
2.915,0.09,0.14,0.93,1.04,0.23,-0.59,
2.918,0.09,0.14,0.93,1.04,0.23,-0.59,
2.918,0.09,0.14,0.93,1.08,0.28,-0.60,
2.923,0.09,0.15,0.93,1.08,0.28,-0.60,
2.923,0.08,0.15,0.93,1.08,0.28,-0.60,
2.923,0.08,0.15,0.93,1.04,0.35,-0.56,
2.925,0.08,0.16,0.93,1.04,0.35,-0.56,
2.928,0.07,0.16,0.94,1.04,0.35,-0.56,
2.928,0.07,0.16,0.94,0.99,0.41,-0.58,
2.93,0.07,0.16,0.94,0.99,0.41,-0.58,
2.932,0.07,0.15,0.95,0.99,0.41,-0.58,
2.933,0.07,0.15,0.95,0.89,0.48,-0.54,
2.939,0.06,0.15,0.95,0.89,0.48,-0.54,
2.94,0.06,0.15,0.95,0.89,0.48,-0.54,
2.94,0.06,0.15,0.95,0.79,0.47,-0.43,
2.94,0.06,0.15,0.95,0.79,0.47,-0.43,
2.943,0.06,0.14,0.95,0.79,0.47,-0.43,
2.943,0.06,0.14,0.95,0.75,0.40,-0.41,
2.945,0.05,0.14,0.95,0.75,0.40,-0.41,
2.947,0.05,0.13,0.95,0.75,0.40,-0.41,
2.948,0.05,0.13,0.95,0.71,0.38,-0.35,
2.95,0.06,0.13,0.95,0.71,0.38,-0.35,
2.963,0.06,0.13,0.95,0.71,0.38,-0.35,
2.964,0.06,0.13,0.95,0.65,0.26,-0.36,
2.964,0.05,0.13,0.95,0.65,0.26,-0.36,
2.964,0.05,0.13,0.95,0.66,0.23,-0.37,
2.965,0.05,0.12,0.95,0.66,0.23,-0.37,
2.965,0.06,0.12,0.95,0.66,0.23,-0.37,
2.965,0.05,0.12,0.95,0.66,0.23,-0.37,
2.965,0.05,0.12,0.95,0.63,0.17,-0.34,
2.965,0.04,0.12,0.95,0.63,0.17,-0.34,
2.968,0.05,0.12,0.95,0.63,0.17,-0.34,
2.968,0.05,0.12,0.95,0.62,0.14,-0.35,
2.975,0.05,0.12,0.95,0.62,0.14,-0.35,
2.976,0.05,0.12,0.95,0.62,0.14,-0.35,
2.976,0.05,0.12,0.95,0.53,0.15,-0.35,
2.976,0.05,0.13,0.96,0.53,0.15,-0.35,
2.977,0.05,0.13,0.96,0.53,0.15,-0.35,
2.977,0.05,0.13,0.96,0.55,0.17,-0.36,
2.979,0.05,0.13,0.96,0.55,0.17,-0.36,
2.981,0.05,0.14,0.97,0.55,0.17,-0.36,
2.981,0.05,0.14,0.97,0.54,0.22,-0.29,
2.984,0.05,0.15,0.97,0.54,0.22,-0.29,
2.993,0.05,0.15,0.97,0.54,0.22,-0.29,
2.994,0.05,0.15,0.97,0.57,0.28,-0.23,
2.994,0.05,0.15,0.99,0.57,0.28,-0.23,
2.994,0.05,0.16,0.99,0.57,0.28,-0.23,
2.994,0.05,0.16,0.99,0.58,0.40,-0.13,
2.995,0.05,0.15,0.99,0.58,0.40,-0.13,
2.996,0.04,0.16,1.00,0.58,0.40,-0.13,
2.996,0.04,0.16,1.00,0.51,0.47,-0.02,
2.999,0.04,0.16,1.00,0.51,0.47,-0.02,
3.009,0.04,0.16,1.00,0.51,0.47,-0.02,
3.009,0.04,0.16,1.00,0.46,0.49,0.04,
3.01,0.04,0.16,1.00,0.46,0.49,0.04,
3.01,0.04,0.15,1.00,0.46,0.49,0.04,
3.01,0.04,0.15,1.00,0.42,0.54,0.09,
3.01,0.04,0.15,1.00,0.42,0.54,0.09,
3.011,0.04,0.15,1.00,0.42,0.54,0.09,
3.011,0.04,0.15,1.00,0.42,0.46,0.12,
3.014,0.04,0.15,1.01,0.42,0.46,0.12,
3.016,0.04,0.15,1.01,0.42,0.46,0.12,
3.016,0.04,0.15,1.01,0.39,0.44,0.12,
3.024,0.04,0.15,1.02,0.39,0.44,0.12,
3.024,0.04,0.15,1.02,0.39,0.44,0.12,
3.024,0.04,0.15,1.02,0.35,0.44,0.20,
3.025,0.03,0.15,1.02,0.35,0.44,0.20,
3.026,0.03,0.15,1.02,0.35,0.44,0.20,
3.026,0.03,0.15,1.02,0.37,0.42,0.32,
3.028,0.03,0.14,1.02,0.37,0.42,0.32,
3.031,0.03,0.14,1.03,0.37,0.42,0.32,
3.032,0.03,0.14,1.03,0.28,0.37,0.31,
3.033,0.02,0.13,1.02,0.28,0.37,0.31,
3.04,0.02,0.13,1.02,0.28,0.37,0.31,
3.041,0.02,0.13,1.02,0.21,0.32,0.35,
3.041,0.02,0.13,1.02,0.21,0.32,0.35,
3.041,0.02,0.12,1.02,0.21,0.32,0.35,
3.041,0.02,0.12,1.02,0.14,0.17,0.32,
3.044,0.02,0.11,1.02,0.14,0.17,0.32,
3.046,0.02,0.11,1.01,0.14,0.17,0.32,
3.047,0.02,0.11,1.01,0.14,0.12,0.31,
3.048,0.02,0.11,1.01,0.14,0.12,0.31,
3.05,0.01,0.10,1.01,0.14,0.12,0.31,
3.051,0.01,0.10,1.01,0.11,-0.02,0.27,
3.065,0.00,0.09,1.01,0.11,-0.02,0.27,
3.066,0.01,0.10,1.01,0.11,-0.02,0.27,
3.066,0.01,0.10,1.01,0.03,-0.10,0.22,
3.066,0.01,0.10,1.01,0.03,-0.10,0.22,
3.066,0.01,0.09,1.00,0.03,-0.10,0.22,
3.067,0.01,0.09,1.00,-0.05,-0.19,0.19,
3.067,0.01,0.09,1.00,-0.05,-0.19,0.19,
3.067,0.01,0.09,1.00,-0.05,-0.19,0.19,
3.067,0.01,0.09,1.00,-0.06,-0.21,0.17,
3.076,0.01,0.09,1.00,-0.06,-0.21,0.17,
3.076,0.01,0.09,0.99,-0.06,-0.21,0.17,
3.076,0.01,0.09,0.99,-0.06,-0.22,0.12,
3.077,0.01,0.09,1.00,-0.06,-0.22,0.12,
3.077,0.01,0.10,0.99,-0.06,-0.22,0.12,
3.077,0.01,0.10,0.99,-0.06,-0.26,0.08,
3.078,0.01,0.11,0.99,-0.06,-0.26,0.08,
3.08,0.02,0.11,0.98,-0.06,-0.26,0.08,
3.081,0.02,0.11,0.98,-0.06,-0.24,0.08,
3.084,0.02,0.11,0.99,-0.06,-0.24,0.08,
3.094,0.02,0.12,0.98,-0.06,-0.24,0.08,
3.094,0.02,0.12,0.98,-0.02,-0.12,-0.02,
3.095,0.02,0.12,0.98,-0.02,-0.12,-0.02,
3.095,0.03,0.13,0.99,-0.02,-0.12,-0.02,
3.095,0.03,0.13,0.99,0.02,-0.04,-0.03,
3.095,0.03,0.13,0.99,0.02,-0.04,-0.03,
3.096,0.03,0.13,1.00,0.02,-0.04,-0.03,
3.096,0.03,0.13,1.00,0.08,0.03,-0.02,
3.098,0.03,0.14,1.00,0.08,0.03,-0.02,
3.1,0.04,0.15,1.01,0.08,0.03,-0.02,
3.1,0.04,0.15,1.01,0.10,0.11,0.08,
3.108,0.04,0.15,1.02,0.10,0.11,0.08,
3.109,0.04,0.15,1.01,0.10,0.11,0.08,
3.109,0.04,0.15,1.01,0.18,0.21,0.16,
3.109,0.05,0.16,1.01,0.18,0.21,0.16,
3.11,0.05,0.16,1.02,0.18,0.21,0.16,
3.11,0.05,0.16,1.02,0.19,0.29,0.26,
3.112,0.06,0.16,1.01,0.19,0.29,0.26,
3.115,0.06,0.16,0.98,0.19,0.29,0.26,
3.115,0.06,0.16,0.98,0.28,0.37,0.30,
3.117,0.07,0.16,0.96,0.28,0.37,0.30,
3.123,0.08,0.16,0.96,0.28,0.37,0.30,
3.124,0.08,0.16,0.96,0.35,0.40,0.04,
3.124,0.08,0.16,0.97,0.35,0.40,0.04,
3.125,0.08,0.15,0.99,0.35,0.40,0.04,
3.125,0.08,0.15,0.99,0.50,0.40,-0.29,
3.127,0.07,0.14,1.00,0.50,0.40,-0.29,
3.13,0.07,0.14,1.00,0.50,0.40,-0.29,
3.132,0.07,0.14,1.00,0.54,0.31,-0.06,
3.133,0.07,0.14,1.00,0.54,0.31,-0.06,
3.135,0.06,0.14,0.99,0.54,0.31,-0.06,
3.135,0.06,0.14,0.99,0.47,0.23,0.13,
3.142,0.05,0.14,0.99,0.47,0.23,0.13,
3.144,0.04,0.14,0.98,0.47,0.23,0.13,
3.144,0.04,0.14,0.98,0.41,0.21,0.09,
3.144,0.04,0.14,0.97,0.41,0.21,0.09,
3.148,0.05,0.13,0.97,0.41,0.21,0.09,
3.148,0.05,0.13,0.97,0.25,0.20,-0.04,
3.148,0.04,0.13,0.96,0.25,0.20,-0.04,
3.151,0.04,0.13,0.97,0.25,0.20,-0.04,
3.151,0.04,0.13,0.97,0.22,0.18,-0.18,
3.158,0.03,0.13,0.97,0.22,0.18,-0.18,
3.159,0.03,0.13,0.97,0.22,0.18,-0.18,
3.159,0.03,0.13,0.97,0.16,0.15,-0.23,
3.159,0.03,0.12,0.97,0.16,0.15,-0.23,
3.16,0.03,0.12,0.97,0.10,0.12,-0.19,
3.16,0.03,0.12,0.97,0.10,0.12,-0.19,
3.162,0.03,0.11,0.98,0.10,0.12,-0.19,
3.165,0.02,0.11,0.99,0.10,0.12,-0.19,
3.165,0.02,0.11,0.99,0.09,0.06,-0.16,
3.168,0.03,0.10,0.99,0.09,0.06,-0.16,
3.181,0.02,0.10,1.01,0.09,0.06,-0.16,
3.181,0.02,0.10,1.01,0.05,-0.01,-0.03,
3.182,0.03,0.10,1.02,0.05,-0.01,-0.03,
3.182,0.03,0.10,1.03,0.05,-0.01,-0.03,
3.182,0.03,0.10,1.03,0.05,-0.08,0.11,
3.182,0.03,0.11,1.04,0.05,-0.08,0.11,
3.182,0.04,0.11,1.05,0.05,-0.08,0.11,
3.183,0.04,0.11,1.05,0.06,-0.08,0.35,
3.183,0.03,0.11,1.07,0.06,-0.08,0.35,
3.185,0.04,0.12,1.08,0.06,-0.08,0.35,
3.185,0.04,0.12,1.08,0.12,-0.03,0.56,
3.192,0.05,0.12,1.09,0.12,-0.03,0.56,
3.193,0.05,0.12,1.10,0.12,-0.03,0.56,
3.193,0.05,0.12,1.10,0.15,0.08,0.81,
3.193,0.05,0.13,1.10,0.15,0.08,0.81,
3.195,0.06,0.13,1.10,0.15,0.08,0.81,
3.195,0.06,0.13,1.10,0.25,0.13,1.03,
3.197,0.06,0.13,1.10,0.25,0.13,1.03,
3.2,0.07,0.14,1.09,0.25,0.13,1.03,
3.2,0.07,0.14,1.09,0.29,0.23,1.09,
3.202,0.07,0.14,1.08,0.29,0.23,1.09,
3.21,0.08,0.14,1.07,0.29,0.23,1.09,
3.21,0.08,0.14,1.07,0.34,0.23,1.01,
3.211,0.09,0.14,1.07,0.34,0.23,1.01,
3.211,0.09,0.14,1.05,0.34,0.23,1.01,
3.211,0.09,0.14,1.05,0.47,0.27,0.83,
3.212,0.09,0.14,1.05,0.47,0.27,0.83,
3.215,0.09,0.15,1.04,0.47,0.27,0.83,
3.215,0.09,0.15,1.04,0.56,0.24,0.66,
3.217,0.09,0.15,1.03,0.56,0.24,0.66,
3.226,0.09,0.15,1.03,0.56,0.24,0.66,
3.226,0.09,0.15,1.03,0.59,0.27,0.54,
3.227,0.08,0.15,1.02,0.59,0.27,0.54,
3.227,0.08,0.15,1.01,0.59,0.27,0.54,
3.227,0.08,0.15,1.01,0.55,0.27,0.36,
3.227,0.07,0.15,1.01,0.55,0.27,0.36,
