
time,gFx,gFy,gFz,ax,ay,az,
0.001,0.04,0.11,0.99,0.49,0.15,0.39,
0.002,0.04,0.11,0.99,0.43,0.12,0.18,
0.002,0.03,0.11,0.98,0.43,0.12,0.18,
0.002,0.03,0.11,0.98,0.43,0.12,0.18,
0.003,0.03,0.11,0.98,0.29,0.12,0.04,
0.004,0.02,0.11,0.97,0.29,0.12,0.04,
0.012,0.01,0.11,0.97,0.29,0.12,0.04,
0.013,0.01,0.11,0.97,0.16,0.09,-0.13,
0.013,0.01,0.11,0.96,0.16,0.09,-0.13,
0.013,0.00,0.11,0.96,0.16,0.09,-0.13,
0.013,0.00,0.11,0.96,0.03,0.07,-0.22,
0.015,-0.00,0.11,0.97,0.03,0.07,-0.22,
0.017,-0.01,0.11,0.96,0.03,0.07,-0.22,
0.017,-0.01,0.11,0.96,-0.07,0.04,-0.30,
0.019,-0.01,0.11,0.96,-0.07,0.04,-0.30,
0.022,-0.01,0.11,0.96,-0.07,0.04,-0.30,
0.022,-0.01,0.11,0.96,-0.19,-0.01,-0.28,
0.029,-0.01,0.10,0.96,-0.19,-0.01,-0.28,
0.029,-0.01,0.10,0.96,-0.23,-0.01,-0.34,
0.03,-0.01,0.10,0.96,-0.23,-0.01,-0.34,
0.03,-0.01,0.10,0.96,-0.23,-0.01,-0.34,
0.033,-0.01,0.09,0.97,-0.23,-0.01,-0.34,
0.033,-0.01,0.09,0.97,-0.25,-0.07,-0.33,
0.034,-0.02,0.09,0.97,-0.25,-0.07,-0.33,
0.037,-0.01,0.09,0.96,-0.25,-0.07,-0.33,
0.037,-0.01,0.09,0.96,-0.24,-0.12,-0.29,
0.039,-0.01,0.09,0.96,-0.24,-0.12,-0.29,
0.045,-0.01,0.09,0.96,-0.24,-0.19,-0.28,
0.045,-0.01,0.09,0.97,-0.24,-0.19,-0.28,
0.045,-0.01,0.08,0.97,-0.24,-0.19,-0.28,
0.047,-0.01,0.09,0.97,-0.24,-0.19,-0.28,
0.047,-0.01,0.09,0.97,-0.16,-0.21,-0.26,
0.049,-0.00,0.09,0.97,-0.16,-0.21,-0.26,
0.052,-0.00,0.09,0.97,-0.16,-0.22,-0.20,
0.052,-0.00,0.09,0.98,-0.16,-0.22,-0.20,
0.055,-0.00,0.09,0.98,-0.16,-0.22,-0.20,
0.057,-0.01,0.09,0.99,-0.16,-0.22,-0.20,
0.057,-0.01,0.09,0.99,-0.14,-0.19,-0.16,
0.064,-0.01,0.09,0.99,-0.14,-0.19,-0.16,
0.065,-0.01,0.10,0.99,-0.14,-0.19,-0.16,
0.065,-0.01,0.10,0.99,-0.14,-0.17,-0.08,
0.065,-0.01,0.10,1.00,-0.14,-0.17,-0.08,
0.067,-0.01,0.10,1.00,-0.14,-0.17,-0.08,
0.067,-0.01,0.10,1.00,-0.16,-0.09,-0.00,
0.069,-0.00,0.10,1.01,-0.16,-0.09,-0.00,
0.071,-0.00,0.10,1.01,-0.16,-0.09,-0.00,
0.072,-0.00,0.10,1.01,-0.16,-0.05,0.07,
0.074,-0.00,0.10,1.01,-0.16,-0.05,0.07,
0.079,-0.00,0.10,1.01,-0.09,-0.03,0.16,
0.079,-0.00,0.10,1.02,-0.09,-0.03,0.16,
0.079,0.01,0.10,1.02,-0.09,-0.03,0.16,
0.081,0.00,0.10,1.02,-0.09,-0.03,0.16,
0.082,0.00,0.10,1.02,-0.10,-0.02,0.21,
0.084,0.01,0.10,1.02,-0.10,-0.02,0.21,
0.086,0.01,0.10,1.02,-0.10,-0.02,0.21,
0.086,0.01,0.10,1.02,-0.02,0.00,0.24,
0.089,0.01,0.10,1.02,-0.02,0.00,0.24,
0.097,0.02,0.09,1.02,-0.02,0.00,0.24,
0.098,0.02,0.09,1.02,0.03,-0.05,0.26,
0.098,0.02,0.09,1.01,0.03,-0.05,0.26,
0.098,0.02,0.10,1.01,0.03,-0.05,0.26,
0.098,0.02,0.10,1.01,0.09,-0.04,0.26,
0.099,0.02,0.10,1.01,0.09,-0.04,0.26,
0.102,0.02,0.10,1.01,0.15,-0.05,0.18,
0.102,0.02,0.10,1.01,0.15,-0.05,0.18,
0.104,0.02,0.10,1.00,0.15,-0.05,0.18,
0.107,0.02,0.10,1.00,0.15,-0.05,0.18,
0.107,0.02,0.10,1.00,0.11,-0.03,0.14,
0.114,0.02,0.10,0.99,0.11,-0.03,0.14,
0.115,0.01,0.11,0.99,0.11,-0.03,0.14,
0.115,0.01,0.11,0.99,0.15,-0.02,0.03,
0.115,0.01,0.10,0.98,0.15,-0.02,0.03,
0.117,0.01,0.11,0.98,0.15,-0.02,0.03,
0.117,0.01,0.11,0.98,0.11,-0.00,-0.04,
0.119,0.01,0.11,0.98,0.11,-0.00,-0.04,
0.122,0.00,0.11,0.98,0.11,-0.00,-0.04,
0.122,0.00,0.11,0.98,0.05,0.04,-0.09,
0.124,-0.00,0.11,0.98,0.05,0.04,-0.09,
0.131,-0.00,0.11,0.98,-0.01,0.06,-0.13,
0.131,-0.00,0.11,0.97,-0.01,0.06,-0.13,
0.131,-0.00,0.11,0.97,-0.01,0.06,-0.13,
0.131,-0.00,0.11,0.97,-0.09,0.08,-0.15,
0.132,-0.01,0.11,0.98,-0.09,0.08,-0.15,
0.133,-0.01,0.11,0.97,-0.09,0.08,-0.15,
0.137,-0.01,0.11,0.97,-0.09,0.08,-0.15,
0.137,-0.01,0.11,0.97,-0.12,0.04,-0.17,
0.139,-0.01,0.11,0.97,-0.12,0.04,-0.17,
0.141,-0.01,0.11,0.97,-0.12,0.04,-0.17,
0.142,-0.01,0.11,0.97,-0.18,0.05,-0.20,
0.149,-0.01,0.11,0.97,-0.18,0.05,-0.20,
0.149,-0.01,0.11,0.97,-0.18,0.05,-0.20,
0.15,-0.01,0.11,0.97,-0.15,0.05,-0.21,
0.15,-0.01,0.10,0.96,-0.15,0.05,-0.21,
0.152,-0.01,0.10,0.96,-0.16,0.03,-0.21,
0.152,-0.01,0.11,0.95,-0.16,0.03,-0.21,
0.153,-0.01,0.11,0.96,-0.16,0.03,-0.21,
0.156,-0.01,0.11,0.96,-0.15,0.01,-0.34,
0.157,-0.00,0.11,0.96,-0.15,0.01,-0.34,
0.158,-0.01,0.11,0.96,-0.15,0.01,-0.34,
0.165,-0.01,0.11,0.96,-0.11,0.03,-0.29,
0.168,-0.01,0.10,0.96,-0.11,0.03,-0.29,
0.168,-0.01,0.11,0.96,-0.11,0.03,-0.29,
0.169,-0.01,0.11,0.96,-0.12,0.02,-0.28,
0.169,-0.01,0.11,0.96,-0.12,0.02,-0.28,
0.169,-0.00,0.11,0.96,-0.12,0.02,-0.28,
0.171,-0.01,0.11,0.97,-0.12,0.02,-0.28,
0.171,-0.01,0.11,0.97,-0.13,0.05,-0.30,
0.173,-0.00,0.11,0.97,-0.13,0.05,-0.30,
0.18,-0.00,0.11,0.97,-0.12,0.05,-0.29,
0.18,-0.01,0.11,0.97,-0.12,0.05,-0.29,
0.181,-0.01,0.11,0.97,-0.12,0.05,-0.29,
0.181,-0.01,0.11,0.97,-0.12,0.05,-0.29,
0.181,-0.01,0.11,0.97,-0.10,0.06,-0.24,
0.183,-0.01,0.11,0.98,-0.10,0.06,-0.24,
0.186,-0.01,0.11,0.98,-0.12,0.03,-0.25,
0.186,-0.00,0.11,0.97,-0.12,0.03,-0.25,
0.188,-0.00,0.10,0.98,-0.12,0.03,-0.25,
0.191,-0.00,0.10,0.97,-0.12,0.03,-0.25,
0.191,-0.00,0.10,0.97,-0.10,0.05,-0.15,
0.197,0.00,0.10,0.97,-0.10,0.05,-0.15,
0.197,0.00,0.09,0.98,-0.10,0.05,-0.15,
0.197,0.00,0.09,0.98,-0.07,-0.04,-0.15,
0.198,0.01,0.09,0.98,-0.07,-0.04,-0.15,
0.2,0.01,0.09,0.98,-0.02,-0.06,-0.15,
0.201,0.01,0.09,0.98,-0.02,-0.06,-0.15,
0.203,0.01,0.09,0.98,-0.02,-0.06,-0.15,
0.205,0.01,0.08,0.98,-0.02,-0.06,-0.15,
0.206,0.01,0.08,0.98,0.04,-0.10,-0.11,
0.207,0.02,0.09,0.98,0.04,-0.10,-0.11,
0.213,0.02,0.09,0.98,0.07,-0.14,-0.12,
0.213,0.02,0.08,0.97,0.07,-0.14,-0.12,
0.214,0.02,0.08,0.97,0.07,-0.14,-0.12,
0.215,0.01,0.09,0.97,0.07,-0.14,-0.12,
0.215,0.01,0.09,0.97,0.10,-0.14,-0.14,
0.217,0.01,0.09,0.98,0.10,-0.14,-0.14,
0.22,0.01,0.09,0.97,0.10,-0.14,-0.14,
0.221,0.01,0.09,0.97,0.10,-0.14,-0.18,
0.222,0.01,0.09,0.97,0.10,-0.14,-0.18,
0.23,0.01,0.09,0.97,0.10,-0.14,-0.18,
0.23,0.01,0.09,0.97,0.08,-0.13,-0.15,
0.231,0.01,0.09,0.97,0.08,-0.13,-0.15,
0.231,0.01,0.09,0.97,0.08,-0.13,-0.15,
0.231,0.01,0.09,0.97,0.06,-0.11,-0.19,
0.233,0.01,0.09,0.97,0.06,-0.11,-0.19,
0.235,0.01,0.09,0.97,0.08,-0.09,-0.21,
0.236,0.01,0.09,0.96,0.08,-0.09,-0.21,
0.237,0.00,0.09,0.96,0.08,-0.09,-0.21,
0.24,0.00,0.09,0.97,0.08,-0.09,-0.21,
0.24,0.00,0.09,0.97,0.04,-0.12,-0.24,
0.253,-0.00,0.09,0.97,0.04,-0.12,-0.24,
0.253,-0.01,0.09,0.97,0.04,-0.12,-0.24,
0.254,-0.01,0.09,0.97,-0.01,-0.12,-0.22,
0.254,-0.00,0.09,0.97,-0.01,-0.12,-0.22,
0.255,-0.00,0.09,0.97,-0.09,-0.11,-0.22,
0.255,-0.00,0.09,0.97,-0.09,-0.11,-0.22,
0.255,-0.00,0.09,0.96,-0.09,-0.11,-0.22,
0.255,-0.01,0.09,0.96,-0.09,-0.11,-0.22,
0.256,-0.01,0.09,0.96,-0.08,-0.11,-0.21,
0.257,-0.01,0.09,0.96,-0.08,-0.11,-0.21,
0.264,-0.00,0.08,0.96,-0.08,-0.11,-0.21,
0.265,-0.00,0.08,0.96,-0.10,-0.12,-0.26,
0.265,-0.00,0.09,0.95,-0.10,-0.12,-0.26,
0.266,-0.00,0.09,0.96,-0.10,-0.12,-0.26,
0.266,-0.00,0.09,0.96,-0.08,-0.13,-0.25,
0.267,-0.00,0.09,0.95,-0.08,-0.13,-0.25,
0.269,-0.00,0.08,0.96,-0.08,-0.13,-0.25,
0.27,-0.00,0.08,0.96,-0.07,-0.12,-0.30,
0.272,-0.00,0.08,0.96,-0.07,-0.12,-0.30,
0.283,-0.00,0.08,0.96,-0.08,-0.13,-0.32,
0.283,0.00,0.09,0.96,-0.08,-0.13,-0.32,
0.283,-0.00,0.09,0.96,-0.08,-0.13,-0.32,
0.284,0.01,0.09,0.96,-0.08,-0.13,-0.32,
0.284,0.01,0.09,0.96,-0.04,-0.13,-0.30,
0.284,0.01,0.08,0.94,-0.04,-0.13,-0.30,
0.284,0.01,0.08,0.95,-0.04,-0.13,-0.30,
0.285,0.01,0.08,0.95,-0.02,-0.10,-0.30,
0.287,0.00,0.08,0.96,-0.02,-0.10,-0.30,
0.289,0.01,0.08,0.95,-0.02,-0.10,-0.30,
0.29,0.01,0.08,0.95,0.02,-0.14,-0.39,
0.297,0.01,0.08,0.95,0.02,-0.14,-0.39,
0.298,0.01,0.08,0.94,0.02,-0.14,-0.39,
0.298,0.01,0.08,0.94,0.01,-0.15,-0.35,
0.299,0.02,0.08,0.95,0.01,-0.15,-0.35,
0.299,0.02,0.08,0.95,0.08,-0.15,-0.40,
0.3,0.03,0.08,0.94,0.08,-0.15,-0.40,
0.302,0.03,0.08,0.94,0.08,-0.15,-0.40,
0.305,0.04,0.08,0.94,0.08,-0.15,-0.40,
0.305,0.04,0.08,0.94,0.19,-0.13,-0.42,
0.306,0.04,0.08,0.93,0.19,-0.13,-0.42,
0.313,0.04,0.07,0.93,0.19,-0.13,-0.42,
0.314,0.04,0.07,0.93,0.29,-0.15,-0.48,
0.314,0.05,0.07,0.94,0.29,-0.15,-0.48,
0.315,0.05,0.07,0.94,0.29,-0.15,-0.48,
0.315,0.05,0.07,0.94,0.37,-0.19,-0.55,
0.317,0.05,0.07,0.93,0.37,-0.19,-0.55,
0.319,0.05,0.07,0.93,0.37,-0.19,-0.55,
0.32,0.05,0.07,0.93,0.43,-0.21,-0.47,
0.321,0.05,0.07,0.92,0.43,-0.21,-0.47,
0.324,0.05,0.07,0.92,0.49,-0.21,-0.55,
0.325,0.06,0.07,0.92,0.49,-0.21,-0.55,
0.329,0.05,0.07,0.93,0.49,-0.21,-0.55,
0.33,0.05,0.07,0.92,0.49,-0.21,-0.55,
0.33,0.05,0.07,0.92,0.51,-0.20,-0.62,
0.336,0.05,0.07,0.92,0.51,-0.20,-0.62,
0.337,0.05,0.07,0.93,0.51,-0.20,-0.62,
0.337,0.05,0.07,0.93,0.48,-0.21,-0.56,
0.337,0.05,0.07,0.92,0.48,-0.21,-0.56,
0.339,0.05,0.07,0.92,0.48,-0.21,-0.56,
0.34,0.05,0.07,0.92,0.45,-0.22,-0.58,
0.341,0.04,0.06,0.92,0.45,-0.22,-0.58,
0.353,0.05,0.06,0.92,0.45,-0.22,-0.58,
0.354,0.05,0.06,0.92,0.42,-0.24,-0.61,
0.354,0.05,0.06,0.92,0.42,-0.24,-0.61,
0.354,0.05,0.06,0.92,0.40,-0.30,-0.60,
0.354,0.05,0.06,0.92,0.40,-0.30,-0.60,
0.354,0.05,0.05,0.91,0.40,-0.30,-0.60,
0.354,0.05,0.06,0.91,0.40,-0.30,-0.60,
0.355,0.05,0.06,0.91,0.42,-0.31,-0.62,
0.357,0.05,0.06,0.91,0.42,-0.31,-0.62,
0.366,0.06,0.05,0.90,0.42,-0.31,-0.62,
0.366,0.06,0.05,0.90,0.45,-0.37,-0.69,
0.366,0.04,0.05,0.91,0.45,-0.37,-0.69,
0.366,0.05,0.05,0.90,0.45,-0.37,-0.69,
0.366,0.05,0.05,0.90,0.44,-0.35,-0.73,
0.367,0.06,0.05,0.89,0.44,-0.35,-0.73,
0.37,0.06,0.05,0.88,0.44,-0.35,-0.73,
0.37,0.06,0.05,0.88,0.35,-0.40,-0.74,
0.371,0.05,0.05,0.88,0.35,-0.40,-0.74,
0.374,0.05,0.05,0.87,0.35,-0.40,-0.74,
0.374,0.05,0.05,0.87,0.46,-0.44,-0.94,
0.384,0.05,0.05,0.86,0.46,-0.44,-0.94,
0.385,0.05,0.05,0.84,0.46,-0.44,-0.94,
0.385,0.05,0.05,0.84,0.41,-0.48,-1.05,
0.386,0.05,0.05,0.84,0.41,-0.48,-1.05,
0.386,0.05,0.05,0.83,0.41,-0.48,-1.05,
0.386,0.05,0.05,0.83,0.37,-0.47,-1.24,
0.386,0.04,0.06,0.82,0.37,-0.47,-1.24,
0.389,0.05,0.05,0.81,0.37,-0.47,-1.24,
0.389,0.05,0.05,0.81,0.36,-0.42,-1.37,
0.391,0.04,0.05,0.81,0.36,-0.42,-1.37,
0.399,0.04,0.06,0.81,0.36,-0.42,-1.37,
0.4,0.04,0.06,0.81,0.33,-0.42,-1.52,
0.4,0.05,0.06,0.80,0.33,-0.42,-1.52,
0.4,0.05,0.06,0.80,0.31,-0.41,-1.59,
0.4,0.05,0.06,0.79,0.31,-0.41,-1.59,
0.4,0.05,0.06,0.80,0.31,-0.41,-1.59,
0.403,0.05,0.05,0.80,0.31,-0.41,-1.59,
0.404,0.05,0.05,0.80,0.36,-0.41,-1.68,
0.406,0.05,0.06,0.80,0.36,-0.41,-1.68,
0.414,0.06,0.06,0.81,0.36,-0.41,-1.68,
0.415,0.06,0.06,0.81,0.36,-0.45,-1.64,
0.415,0.06,0.06,0.81,0.36,-0.45,-1.64,
0.415,0.06,0.06,0.80,0.36,-0.45,-1.64,
0.416,0.06,0.06,0.80,0.39,-0.43,-1.59,
0.416,0.06,0.06,0.80,0.39,-0.43,-1.59,
0.419,0.06,0.06,0.80,0.44,-0.45,-1.58,
0.419,0.07,0.05,0.81,0.44,-0.45,-1.58,
0.421,0.08,0.05,0.81,0.44,-0.45,-1.58,
0.424,0.08,0.05,0.81,0.49,-0.52,-1.53,
0.424,0.08,0.05,0.81,0.49,-0.52,-1.53,
0.425,0.08,0.05,0.82,0.49,-0.52,-1.53,
0.43,0.08,0.06,0.82,0.49,-0.52,-1.53,
0.43,0.08,0.06,0.82,0.64,-0.55,-1.50,
0.431,0.08,0.06,0.82,0.64,-0.55,-1.50,
0.434,0.08,0.06,0.83,0.64,-0.55,-1.50,
0.434,0.08,0.06,0.83,0.61,-0.49,-1.42,
0.436,0.08,0.07,0.82,0.61,-0.49,-1.42,
0.438,0.08,0.07,0.82,0.54,-0.43,-1.35,
0.439,0.08,0.07,0.82,0.54,-0.43,-1.35,
0.441,0.07,0.08,0.83,0.54,-0.43,-1.35,
0.447,0.07,0.08,0.83,0.54,-0.43,-1.35,
0.448,0.07,0.08,0.83,0.58,-0.37,-1.33,
0.448,0.07,0.08,0.83,0.58,-0.37,-1.33,
0.448,0.07,0.08,0.83,0.46,-0.29,-1.24,
0.448,0.07,0.08,0.83,0.46,-0.29,-1.24,
0.451,0.06,0.08,0.84,0.46,-0.29,-1.24,
0.453,0.07,0.08,0.84,0.46,-0.29,-1.24,
0.454,0.07,0.08,0.84,0.42,-0.30,-1.20,
0.455,0.07,0.08,0.84,0.42,-0.30,-1.20,
0.458,0.07,0.07,0.85,0.42,-0.30,-1.20,
0.458,0.07,0.07,0.85,0.39,-0.30,-1.15,
0.472,0.08,0.07,0.85,0.39,-0.30,-1.15,
0.474,0.08,0.07,0.85,0.39,-0.30,-1.15,
0.474,0.08,0.07,0.85,0.41,-0.36,-1.06,
0.474,0.09,0.07,0.84,0.41,-0.36,-1.06,
0.475,0.09,0.07,0.85,0.41,-0.36,-1.06,
0.475,0.09,0.07,0.85,0.50,-0.42,-1.03,
0.476,0.10,0.06,0.83,0.50,-0.42,-1.03,
0.476,0.10,0.06,0.83,0.57,-0.44,-1.04,
0.477,0.11,0.06,0.83,0.57,-0.44,-1.04,
0.477,0.12,0.06,0.82,0.57,-0.44,-1.04,
0.478,0.12,0.06,0.81,0.57,-0.44,-1.04,
0.478,0.12,0.06,0.81,0.70,-0.49,-1.18,
0.485,0.12,0.06,0.81,0.70,-0.49,-1.18,
0.486,0.13,0.06,0.81,0.70,-0.49,-1.18,
0.486,0.13,0.06,0.81,0.82,-0.53,-1.29,
0.487,0.13,0.06,0.80,0.82,-0.53,-1.29,
0.488,0.13,0.06,0.79,0.82,-0.53,-1.29,
0.488,0.13,0.06,0.79,0.89,-0.56,-1.36,
0.49,0.12,0.06,0.79,0.89,-0.56,-1.36,
0.494,0.12,0.07,0.78,0.89,-0.56,-1.36,
0.494,0.12,0.07,0.78,0.90,-0.56,-1.48,
0.505,0.11,0.06,0.77,0.90,-0.56,-1.48,
0.507,0.11,0.06,0.77,0.84,-0.52,-1.57,
0.507,0.11,0.06,0.77,0.84,-0.52,-1.57,
0.508,0.10,0.06,0.77,0.84,-0.52,-1.57,
0.508,0.10,0.06,0.76,0.84,-0.52,-1.57,
0.508,0.10,0.06,0.76,0.76,-0.51,-1.68,
0.508,0.10,0.06,0.75,0.76,-0.51,-1.68,
0.509,0.09,0.06,0.75,0.76,-0.51,-1.68,
0.509,0.09,0.06,0.75,0.65,-0.52,-1.71,
0.511,0.08,0.06,0.75,0.65,-0.52,-1.71,
0.516,0.08,0.05,0.74,0.65,-0.52,-1.71,
0.517,0.08,0.05,0.74,0.57,-0.55,-1.88,
0.518,0.08,0.05,0.73,0.57,-0.55,-1.88,
0.518,0.07,0.04,0.73,0.57,-0.55,-1.88,
0.518,0.07,0.04,0.73,0.46,-0.59,-1.93,
0.52,0.07,0.04,0.73,0.46,-0.59,-1.93,
0.522,0.07,0.04,0.72,0.46,-0.59,-1.93,
0.523,0.07,0.04,0.72,0.41,-0.70,-2.05,
0.525,0.07,0.04,0.72,0.41,-0.70,-2.05,
0.532,0.07,0.04,0.72,0.39,-0.75,-2.10,
0.533,0.06,0.04,0.72,0.39,-0.75,-2.10,
0.533,0.06,0.04,0.72,0.39,-0.75,-2.10,
0.533,0.06,0.04,0.72,0.39,-0.75,-2.10,
0.534,0.06,0.04,0.72,0.32,-0.79,-2.11,
0.534,0.06,0.04,0.71,0.32,-0.79,-2.11,
0.537,0.06,0.05,0.72,0.32,-0.79,-2.11,
0.537,0.06,0.05,0.72,0.27,-0.76,-2.11,
0.539,0.05,0.05,0.71,0.27,-0.76,-2.11,
0.542,0.05,0.05,0.71,0.26,-0.71,-2.16,
0.552,0.06,0.05,0.71,0.26,-0.71,-2.16,
0.553,0.06,0.06,0.71,0.26,-0.71,-2.16,
0.553,0.06,0.06,0.71,0.21,-0.66,-2.17,
0.553,0.06,0.06,0.71,0.21,-0.66,-2.17,
0.553,0.06,0.06,0.72,0.21,-0.66,-2.17,
0.554,0.06,0.07,0.71,0.21,-0.66,-2.17,
0.554,0.06,0.07,0.71,0.22,-0.61,-2.19,
0.554,0.07,0.07,0.71,0.22,-0.61,-2.19,
0.557,0.07,0.07,0.71,0.22,-0.61,-2.19,
0.557,0.07,0.07,0.71,0.24,-0.54,-2.13,
0.572,0.08,0.07,0.71,0.24,-0.54,-2.13,
0.574,0.08,0.08,0.70,0.24,-0.54,-2.13,
0.574,0.08,0.08,0.70,0.29,-0.46,-2.18,
0.574,0.08,0.08,0.71,0.29,-0.46,-2.18,
0.575,0.08,0.08,0.71,0.29,-0.46,-2.18,
0.575,0.08,0.08,0.71,0.37,-0.42,-2.22,
0.575,0.09,0.08,0.70,0.37,-0.42,-2.22,
0.575,0.09,0.08,0.70,0.39,-0.40,-2.16,
0.576,0.08,0.08,0.72,0.39,-0.40,-2.16,
0.576,0.08,0.08,0.72,0.39,-0.40,-2.16,
0.584,0.08,0.08,0.73,0.39,-0.40,-2.16,
0.585,0.08,0.08,0.73,0.41,-0.39,-2.11,
0.585,0.08,0.08,0.73,0.41,-0.39,-2.11,
0.585,0.08,0.08,0.75,0.41,-0.39,-2.11,
0.585,0.08,0.08,0.75,0.36,-0.36,-1.97,
0.586,0.08,0.09,0.75,0.36,-0.36,-1.97,
0.586,0.08,0.08,0.76,0.36,-0.36,-1.97,
0.587,0.08,0.08,0.76,0.33,-0.35,-1.81,
0.589,0.08,0.08,0.76,0.33,-0.35,-1.81,
0.591,0.09,0.07,0.77,0.33,-0.35,-1.81,
0.591,0.09,0.07,0.77,0.28,-0.33,-1.66,
0.602,0.09,0.07,0.78,0.28,-0.33,-1.66,
0.603,0.09,0.07,0.78,0.31,-0.37,-1.54,
0.603,0.09,0.07,0.79,0.31,-0.37,-1.54,
0.604,0.10,0.07,0.79,0.31,-0.37,-1.54,
0.604,0.10,0.06,0.79,0.31,-0.37,-1.54,
0.604,0.10,0.06,0.79,0.33,-0.41,-1.37,
0.604,0.10,0.06,0.80,0.33,-0.41,-1.37,
0.606,0.10,0.06,0.81,0.33,-0.41,-1.37,
0.606,0.10,0.06,0.81,0.40,-0.43,-1.32,
0.608,0.10,0.06,0.83,0.40,-0.43,-1.32,
0.617,0.10,0.07,0.83,0.40,-0.43,-1.32,
0.618,0.10,0.07,0.83,0.43,-0.41,-1.13,
0.618,0.10,0.07,0.84,0.43,-0.41,-1.13,
0.618,0.10,0.08,0.84,0.43,-0.41,-1.13,
0.619,0.10,0.08,0.84,0.38,-0.36,-0.91,
0.619,0.10,0.08,0.85,0.38,-0.36,-0.91,
0.621,0.10,0.08,0.85,0.33,-0.27,-0.79,
0.621,0.09,0.08,0.85,0.33,-0.27,-0.79,
0.623,0.09,0.09,0.86,0.33,-0.27,-0.79,
0.626,0.09,0.10,0.86,0.33,-0.27,-0.79,
0.627,0.09,0.10,0.86,0.28,-0.18,-0.71,
0.632,0.09,0.10,0.87,0.28,-0.18,-0.71,
0.633,0.09,0.10,0.87,0.28,-0.18,-0.71,
0.633,0.09,0.10,0.87,0.23,0.03,-0.57,
0.634,0.09,0.11,0.87,0.23,0.03,-0.57,
0.636,0.09,0.11,0.88,0.23,0.03,-0.57,
0.636,0.09,0.11,0.88,0.21,0.08,-0.53,
0.638,0.09,0.11,0.88,0.21,0.08,-0.53,
0.641,0.09,0.11,0.89,0.21,0.08,-0.53,
0.641,0.09,0.11,0.89,0.20,0.21,-0.44,
0.65,0.10,0.12,0.90,0.20,0.21,-0.44,
0.65,0.10,0.12,0.90,0.17,0.28,-0.34,
0.651,0.11,0.12,0.89,0.17,0.28,-0.34,
0.651,0.11,0.13,0.90,0.17,0.28,-0.34,
0.651,0.12,0.12,0.90,0.17,0.28,-0.34,
0.651,0.12,0.12,0.90,0.25,0.38,-0.26,
0.653,0.13,0.13,0.90,0.25,0.38,-0.26,
0.656,0.14,0.12,0.90,0.25,0.38,-0.26,
0.658,0.14,0.12,0.90,0.36,0.42,-0.22,
0.658,0.15,0.12,0.91,0.36,0.42,-0.22,
0.667,0.16,0.12,0.91,0.36,0.42,-0.22,
0.668,0.16,0.12,0.91,0.57,0.43,-0.24,
0.668,0.18,0.12,0.90,0.57,0.43,-0.24,
0.668,0.19,0.12,0.90,0.57,0.43,-0.24,
0.669,0.19,0.12,0.90,0.72,0.43,-0.13,
0.669,0.19,0.12,0.91,0.72,0.43,-0.13,
0.671,0.19,0.12,0.91,0.97,0.43,-0.18,
0.671,0.20,0.12,0.91,0.97,0.43,-0.18,
0.673,0.20,0.13,0.92,0.97,0.43,-0.18,
0.676,0.20,0.13,0.93,0.97,0.43,-0.18,
0.677,0.20,0.13,0.93,1.08,0.43,-0.10,
0.685,0.21,0.13,0.94,1.08,0.43,-0.10,
0.686,0.21,0.13,0.95,1.08,0.43,-0.10,
0.686,0.21,0.13,0.95,1.12,0.55,0.07,
0.686,0.21,0.14,0.96,1.12,0.55,0.07,
0.687,0.21,0.14,0.98,1.12,0.55,0.07,
0.687,0.21,0.14,0.98,1.17,0.58,0.20,
0.687,0.21,0.14,0.99,1.17,0.58,0.20,
0.691,0.20,0.14,1.01,1.17,0.58,0.20,
0.691,0.20,0.14,1.01,1.13,0.63,0.47,
0.693,0.20,0.14,1.02,1.13,0.63,0.47,
0.699,0.20,0.14,1.02,1.09,0.70,0.76,
0.7,0.20,0.14,1.04,1.09,0.70,0.76,
0.7,0.19,0.14,1.06,1.09,0.70,0.76,
0.701,0.19,0.14,1.07,1.09,0.70,0.76,
0.701,0.19,0.14,1.07,0.96,0.74,1.09,
0.703,0.18,0.13,1.08,0.96,0.74,1.09,
0.706,0.18,0.12,1.09,0.96,0.74,1.09,
0.706,0.18,0.12,1.09,0.84,0.72,1.39,
0.708,0.18,0.12,1.10,0.84,0.72,1.39,
0.719,0.17,0.11,1.11,0.84,0.72,1.39,
0.72,0.17,0.11,1.11,0.72,0.61,1.61,
0.72,0.17,0.11,1.12,0.72,0.61,1.61,
0.721,0.17,0.10,1.12,0.72,0.61,1.61,
0.721,0.17,0.10,1.12,0.66,0.54,1.76,
0.721,0.17,0.10,1.11,0.66,0.54,1.76,
0.721,0.17,0.10,1.11,0.60,0.44,1.89,
0.722,0.17,0.09,1.11,0.60,0.44,1.89,
0.723,0.17,0.08,1.10,0.60,0.44,1.89,
0.726,0.17,0.08,1.10,0.60,0.44,1.89,
0.726,0.17,0.08,1.10,0.59,0.34,1.79,
0.734,0.18,0.08,1.10,0.59,0.34,1.79,
0.735,0.18,0.07,1.10,0.59,0.34,1.79,
0.735,0.18,0.07,1.10,0.59,0.28,1.74,
0.735,0.18,0.07,1.11,0.59,0.28,1.74,
0.736,0.19,0.08,1.10,0.59,0.28,1.74,
0.736,0.19,0.08,1.10,0.67,0.24,1.73,
0.738,0.19,0.08,1.10,0.67,0.24,1.73,
0.741,0.19,0.08,1.10,0.67,0.24,1.73,
0.741,0.19,0.08,1.10,0.70,0.27,1.74,
0.743,0.19,0.09,1.09,0.70,0.27,1.74,
0.752,0.19,0.09,1.09,0.76,0.33,1.65,
0.752,0.18,0.09,1.09,0.76,0.33,1.65,
0.753,0.18,0.10,1.09,0.76,0.33,1.65,
0.753,0.17,0.11,1.09,0.76,0.33,1.65,
0.753,0.17,0.11,1.09,0.71,0.48,1.59,
0.753,0.17,0.12,1.09,0.71,0.48,1.59,
0.756,0.17,0.12,1.10,0.71,0.48,1.59,
0.756,0.17,0.12,1.10,0.62,0.61,1.57,
0.758,0.16,0.13,1.10,0.62,0.61,1.57,
0.761,0.16,0.13,1.10,0.62,0.61,1.57,
0.761,0.16,0.13,1.10,0.58,0.80,1.58,
0.768,0.15,0.14,1.11,0.58,0.80,1.58,
0.768,0.15,0.14,1.12,0.58,0.80,1.58,
0.769,0.15,0.14,1.12,0.48,0.95,1.66,
0.769,0.14,0.15,1.13,0.48,0.95,1.66,
0.771,0.14,0.15,1.13,0.36,1.05,1.77,
0.771,0.14,0.15,1.14,0.36,1.05,1.77,
0.773,0.14,0.15,1.15,0.36,1.05,1.77,
0.776,0.13,0.15,1.16,0.36,1.05,1.77,
0.776,0.13,0.15,1.16,0.26,1.14,1.96,
0.793,0.13,0.15,1.18,0.26,1.14,1.96,
0.794,0.12,0.15,1.19,0.26,1.14,1.96,
0.794,0.12,0.15,1.19,0.19,1.21,2.15,
0.794,0.12,0.15,1.19,0.19,1.21,2.15,
0.794,0.12,0.14,1.21,0.19,1.21,2.15,
0.795,0.12,0.14,1.21,0.09,1.20,2.42,
0.795,0.12,0.14,1.21,0.09,1.20,2.42,
0.795,0.12,0.12,1.22,0.09,1.20,2.42,
0.795,0.12,0.12,1.22,0.02,1.16,2.59,
0.796,0.12,0.11,1.22,0.02,1.16,2.59,
0.796,0.12,0.11,1.22,0.00,1.04,2.75,
0.796,0.13,0.11,1.22,0.00,1.04,2.75,
0.797,0.14,0.10,1.23,0.00,1.04,2.75,
0.8,0.15,0.08,1.22,0.00,1.04,2.75,
0.8,0.15,0.08,1.22,0.03,0.88,2.80,
0.802,0.16,0.07,1.22,0.03,0.88,2.80,
0.805,0.17,0.05,1.22,0.03,0.88,2.80,
0.806,0.17,0.05,1.22,0.18,0.68,2.79,
0.807,0.18,0.05,1.20,0.18,0.68,2.79,
0.809,0.18,0.04,1.20,0.18,0.68,2.79,
0.81,0.18,0.04,1.20,0.36,0.41,2.74,
0.814,0.18,0.03,1.20,0.36,0.41,2.74,
0.815,0.18,0.03,1.19,0.36,0.41,2.74,
0.816,0.18,0.03,1.19,0.47,0.24,2.58,
0.816,0.18,0.03,1.18,0.47,0.24,2.58,
0.819,0.18,0.03,1.18,0.43,0.12,2.49,
0.819,0.17,0.03,1.18,0.43,0.12,2.49,
0.823,0.17,0.03,1.18,0.43,0.12,2.49,
0.825,0.16,0.03,1.17,0.43,0.12,2.49,
0.825,0.16,0.03,1.17,0.35,0.09,2.35,
0.826,0.15,0.02,1.18,0.35,0.09,2.35,
0.829,0.13,0.03,1.18,0.35,0.09,2.35,
0.83,0.13,0.03,1.18,0.23,0.09,2.28,
0.831,0.12,0.03,1.19,0.23,0.09,2.28,
0.834,0.11,0.02,1.20,0.23,0.09,2.28,
0.834,0.11,0.02,1.20,-0.04,0.10,2.35,
0.836,0.10,0.03,1.21,-0.04,0.10,2.35,
0.839,0.08,0.03,1.22,-0.04,0.10,2.35,
0.839,0.08,0.03,1.22,-0.29,0.15,2.50,
0.841,0.07,0.03,1.22,-0.29,0.15,2.50,
0.845,0.07,0.03,1.22,-0.56,0.19,2.65,
0.846,0.06,0.03,1.22,-0.56,0.19,2.65,
0.846,0.05,0.02,1.23,-0.56,0.19,2.65,
0.849,0.05,0.02,1.23,-0.83,0.19,2.75,
0.849,0.04,0.02,1.24,-0.83,0.19,2.75,
0.851,0.03,0.00,1.24,-0.83,0.19,2.75,
0.854,0.03,0.00,1.24,-0.83,0.19,2.75,
0.854,0.03,0.00,1.24,-1.01,0.14,2.81,
0.856,0.03,0.00,1.25,-1.01,0.14,2.81,
0.859,0.03,0.00,1.25,-1.12,0.02,2.91,
0.859,0.03,-0.00,1.26,-1.12,0.02,2.91,
0.862,0.03,-0.00,1.27,-1.12,0.02,2.91,
0.864,0.03,-0.00,1.27,-1.12,0.02,2.91,
0.864,0.03,-0.00,1.27,-1.15,0.02,3.05,
0.867,0.03,-0.01,1.28,-1.15,0.02,3.05,
0.869,0.03,-0.01,1.28,-1.14,-0.00,3.16,
0.869,0.04,-0.01,1.27,-1.14,-0.00,3.16,
0.871,0.04,-0.01,1.27,-1.14,-0.00,3.16,
0.874,0.04,-0.01,1.27,-1.14,-0.00,3.16,
0.874,0.04,-0.01,1.27,-1.09,-0.01,3.21,
0.876,0.05,-0.02,1.26,-1.09,-0.01,3.21,
0.88,0.06,-0.02,1.25,-1.09,-0.01,3.21,
0.88,0.06,-0.02,1.25,-1.03,-0.03,3.13,
0.881,0.06,-0.02,1.25,-1.03,-0.03,3.13,
0.884,0.06,-0.02,1.25,-1.03,-0.03,3.13,
0.885,0.06,-0.02,1.25,-0.92,-0.04,3.01,
0.886,0.06,-0.02,1.24,-0.92,-0.04,3.01,
0.888,0.06,-0.02,1.24,-0.85,-0.03,2.90,
0.889,0.07,-0.02,1.23,-0.85,-0.03,2.90,
0.891,0.07,-0.02,1.23,-0.85,-0.03,2.90,
0.894,0.07,-0.02,1.23,-0.79,0.00,2.72,
0.894,0.06,-0.02,1.22,-0.79,0.00,2.72,
0.905,0.05,-0.02,1.21,-0.79,0.00,2.72,
0.906,0.05,-0.02,1.21,-0.79,0.00,2.72,
0.906,0.05,-0.02,1.21,-0.77,-0.01,2.64,
0.907,0.05,-0.02,1.21,-0.77,-0.01,2.64,
0.907,0.04,-0.02,1.20,-0.77,-0.01,2.64,
0.908,0.04,-0.02,1.20,-0.87,0.01,2.51,
0.909,0.03,-0.03,1.20,-0.87,0.01,2.51,
0.909,0.03,-0.03,1.21,-0.87,0.01,2.51,
0.91,0.03,-0.03,1.21,-0.94,0.05,2.43,
0.922,0.03,-0.03,1.21,-0.94,0.05,2.43,
0.923,0.03,-0.03,1.22,-0.94,0.05,2.43,
0.924,0.03,-0.03,1.22,-1.05,0.03,2.40,
0.924,0.02,-0.04,1.22,-1.05,0.03,2.40,
0.924,0.02,-0.04,1.22,-1.07,0.04,2.48,
0.925,0.02,-0.04,1.24,-1.07,0.04,2.48,
0.925,0.02,-0.04,1.26,-1.07,0.04,2.48,
0.926,0.02,-0.04,1.27,-1.07,0.04,2.48,
0.926,0.02,-0.04,1.27,-1.11,-0.03,2.67,
0.926,0.01,-0.04,1.28,-1.11,-0.03,2.67,
0.931,0.01,-0.05,1.30,-1.11,-0.03,2.67,
0.931,0.01,-0.05,1.30,-1.13,-0.00,2.96,
0.932,0.01,-0.05,1.31,-1.13,-0.00,2.96,
0.934,0.00,-0.05,1.33,-1.13,-0.00,2.96,
0.934,0.00,-0.05,1.33,-1.25,-0.01,3.25,
0.935,0.00,-0.05,1.34,-1.25,-0.01,3.25,
0.938,0.00,-0.06,1.35,-1.25,-0.01,3.25,
0.938,0.00,-0.06,1.35,-1.28,-0.02,3.52,
0.94,0.00,-0.06,1.36,-1.28,-0.02,3.52,
0.943,0.00,-0.06,1.36,-1.31,-0.02,3.77,
0.943,0.00,-0.06,1.36,-1.31,-0.02,3.77,
0.945,0.01,-0.06,1.37,-1.31,-0.02,3.77,
0.948,0.01,-0.07,1.37,-1.31,-0.02,3.77,
0.948,0.01,-0.07,1.37,-1.29,-0.07,3.87,
0.95,0.01,-0.07,1.37,-1.29,-0.07,3.87,
0.952,0.01,-0.07,1.38,-1.29,-0.07,3.87,
0.953,0.01,-0.07,1.38,-1.24,-0.11,3.93,
0.955,0.01,-0.08,1.37,-1.24,-0.11,3.93,
0.958,0.01,-0.08,1.36,-1.24,-0.11,3.93,
0.958,0.01,-0.08,1.36,-1.23,-0.15,3.99,
0.96,0.01,-0.08,1.35,-1.23,-0.15,3.99,
0.963,0.01,-0.08,1.34,-1.23,-0.15,3.99,
0.963,0.01,-0.08,1.34,-1.21,-0.19,3.85,
0.965,0.01,-0.08,1.34,-1.21,-0.19,3.85,
0.968,0.01,-0.08,1.34,-1.19,-0.20,3.71,
0.968,0.01,-0.08,1.32,-1.19,-0.20,3.71,
0.97,0.01,-0.08,1.31,-1.19,-0.20,3.71,
0.972,0.01,-0.08,1.30,-1.19,-0.20,3.71,
0.973,0.01,-0.08,1.30,-1.14,-0.18,3.52,
0.975,0.02,-0.07,1.29,-1.14,-0.18,3.52,
0.985,0.01,-0.07,1.28,-1.14,-0.18,3.52,
0.986,0.01,-0.07,1.28,-1.15,-0.17,3.30,
0.986,0.02,-0.07,1.27,-1.15,-0.17,3.30,
0.986,0.02,-0.06,1.26,-1.15,-0.17,3.30,
0.987,0.02,-0.06,1.26,-1.10,-0.11,3.09,
0.987,0.01,-0.06,1.25,-1.10,-0.11,3.09,
0.992,0.02,-0.06,1.24,-1.10,-0.11,3.09,
0.993,0.02,-0.06,1.24,-1.07,-0.05,2.85,
0.994,0.01,-0.05,1.24,-1.07,-0.05,2.85,
0.994,0.01,-0.05,1.24,-1.07,0.03,2.65,
0.995,0.02,-0.06,1.23,-1.07,0.03,2.65,
0.995,0.02,-0.05,1.22,-1.07,0.03,2.65,
1.0,0.02,-0.05,1.21,-1.07,0.03,2.65,
1.0,0.02,-0.05,1.21,-1.04,0.07,2.50,
1.001,0.03,-0.05,1.21,-1.04,0.07,2.50,
1.003,0.03,-0.04,1.20,-1.04,0.07,2.50,
1.004,0.03,-0.04,1.20,-0.99,0.12,2.33,
1.005,0.04,-0.04,1.20,-0.99,0.12,2.33,
1.008,0.05,-0.04,1.20,-0.99,0.12,2.33,
1.009,0.05,-0.04,1.20,-0.87,0.20,2.22,
1.009,0.05,-0.04,1.19,-0.87,0.20,2.22,
1.014,0.06,-0.04,1.19,-0.87,0.20,2.22,
1.014,0.06,-0.04,1.19,-0.74,0.24,2.13,
1.015,0.06,-0.04,1.19,-0.74,0.24,2.13,
1.019,0.06,-0.04,1.19,-0.60,0.28,2.03,
1.019,0.08,-0.03,1.18,-0.60,0.28,2.03,
1.02,0.09,-0.03,1.18,-0.60,0.28,2.03,
1.023,0.10,-0.03,1.17,-0.60,0.28,2.03,
1.023,0.10,-0.03,1.17,-0.41,0.31,2.00,
1.025,0.10,-0.03,1.16,-0.41,0.31,2.00,
1.028,0.12,-0.03,1.15,-0.41,0.31,2.00,
1.028,0.12,-0.03,1.15,-0.18,0.36,1.87,
1.03,0.12,-0.02,1.15,-0.18,0.36,1.87,
1.033,0.13,-0.02,1.14,-0.18,0.36,1.87,
1.033,0.13,-0.02,1.14,0.01,0.39,1.69,
1.035,0.13,-0.02,1.13,0.01,0.39,1.69,
1.038,0.14,-0.01,1.12,0.01,0.39,1.69,
1.039,0.14,-0.01,1.12,0.19,0.46,1.56,
1.041,0.14,-0.01,1.11,0.19,0.46,1.56,
1.043,0.14,-0.01,1.11,0.29,0.51,1.39,
1.043,0.14,-0.01,1.10,0.29,0.51,1.39,
1.045,0.15,-0.01,1.10,0.29,0.51,1.39,
1.048,0.15,-0.00,1.09,0.29,0.51,1.39,
1.049,0.15,-0.00,1.09,0.41,0.54,1.22,
1.05,0.15,-0.00,1.09,0.41,0.54,1.22,
1.053,0.15,-0.00,1.09,0.41,0.54,1.22,
1.053,0.15,-0.00,1.09,0.49,0.62,1.07,
1.055,0.15,-0.00,1.09,0.49,0.62,1.07,
1.058,0.14,-0.00,1.09,0.49,0.62,1.07,
1.058,0.14,-0.00,1.09,0.52,0.68,1.00,
1.06,0.14,0.00,1.09,0.52,0.68,1.00,
1.063,0.13,0.00,1.10,0.52,0.68,1.00,
1.064,0.13,0.00,1.10,0.49,0.69,1.02,
1.065,0.13,-0.00,1.11,0.49,0.69,1.02,
1.067,0.13,-0.00,1.11,0.42,0.75,1.07,
1.068,0.12,-0.01,1.11,0.42,0.75,1.07,
1.071,0.13,-0.02,1.12,0.42,0.75,1.07,
1.073,0.12,-0.02,1.13,0.42,0.75,1.07,
1.073,0.12,-0.02,1.13,0.37,0.66,1.20,
1.075,0.13,-0.03,1.14,0.37,0.66,1.20,
1.078,0.13,-0.03,1.16,0.37,0.66,1.20,
1.078,0.13,-0.03,1.16,0.38,0.58,1.39,
1.081,0.12,-0.04,1.16,0.38,0.58,1.39,
1.082,0.13,-0.04,1.17,0.38,0.58,1.39,
1.082,0.13,-0.04,1.17,0.41,0.47,1.58,
1.084,0.12,-0.04,1.18,0.41,0.47,1.58,
1.087,0.12,-0.04,1.19,0.41,0.47,1.58,
1.088,0.12,-0.04,1.19,0.42,0.40,1.75,
1.09,0.12,-0.05,1.19,0.42,0.40,1.75,
1.093,0.12,-0.05,1.19,0.40,0.38,1.90,
1.093,0.12,-0.05,1.19,0.40,0.38,1.90,
1.095,0.13,-0.05,1.20,0.40,0.38,1.90,
1.104,0.13,-0.06,1.20,0.40,0.38,1.90,
1.104,0.13,-0.06,1.20,0.44,0.36,1.98,
1.105,0.13,-0.06,1.19,0.44,0.36,1.98,
1.105,0.13,-0.05,1.20,0.44,0.36,1.98,
1.105,0.13,-0.05,1.20,0.49,0.30,2.03,
1.105,0.12,-0.05,1.20,0.49,0.30,2.03,
1.106,0.13,-0.05,1.20,0.49,0.30,2.03,
1.107,0.13,-0.05,1.20,0.51,0.34,2.03,
1.109,0.13,-0.06,1.20,0.51,0.34,2.03,
1.111,0.12,-0.05,1.20,0.51,0.34,2.03,
1.112,0.12,-0.05,1.20,0.51,0.38,2.05,
1.114,0.13,-0.05,1.19,0.51,0.38,2.05,
1.116,0.13,-0.05,1.19,0.53,0.38,2.02,
1.117,0.13,-0.05,1.20,0.53,0.38,2.02,
1.119,0.13,-0.06,1.20,0.53,0.38,2.02,
1.122,0.13,-0.06,1.20,0.53,0.38,2.02,
1.122,0.13,-0.06,1.20,0.59,0.42,1.96,
1.125,0.13,-0.06,1.21,0.59,0.42,1.96,
1.127,0.13,-0.06,1.21,0.59,0.42,1.96,
1.127,0.13,-0.06,1.21,0.60,0.36,2.05,
1.129,0.13,-0.06,1.22,0.60,0.36,2.05,
1.132,0.13,-0.07,1.21,0.60,0.36,2.05,
1.133,0.13,-0.07,1.21,0.62,0.32,2.12,
1.134,0.13,-0.07,1.22,0.62,0.32,2.12,
1.136,0.12,-0.07,1.22,0.62,0.32,2.12,
1.137,0.12,-0.07,1.22,0.62,0.29,2.16,
1.139,0.12,-0.07,1.22,0.62,0.29,2.16,
1.142,0.12,-0.07,1.22,0.59,0.25,2.18,
1.143,0.13,-0.07,1.22,0.59,0.25,2.18,
1.144,0.12,-0.07,1.21,0.59,0.25,2.18,
1.147,0.12,-0.07,1.22,0.59,0.25,2.18,
1.148,0.12,-0.07,1.22,0.60,0.25,2.17,
1.15,0.12,-0.06,1.21,0.60,0.25,2.17,
1.152,0.11,-0.06,1.21,0.60,0.25,2.17,
1.155,0.11,-0.06,1.21,0.57,0.29,2.14,
1.155,0.11,-0.06,1.21,0.57,0.29,2.14,
1.158,0.11,-0.06,1.21,0.51,0.30,2.12,
1.158,0.11,-0.05,1.20,0.51,0.30,2.12,
1.158,0.11,-0.05,1.20,0.51,0.30,2.12,
1.162,0.11,-0.05,1.20,0.46,0.36,2.01,
1.162,0.10,-0.05,1.19,0.46,0.36,2.01,
1.165,0.10,-0.05,1.19,0.46,0.36,2.01,
1.166,0.10,-0.05,1.19,0.45,0.38,1.89,
1.166,0.11,-0.06,1.18,0.45,0.38,1.89,
1.168,0.10,-0.06,1.17,0.45,0.38,1.89,
1.172,0.10,-0.07,1.15,0.45,0.38,1.89,
1.172,0.10,-0.07,1.15,0.45,0.35,1.78,
1.174,0.10,-0.07,1.15,0.45,0.35,1.78,
1.176,0.11,-0.07,1.14,0.45,0.35,1.78,
1.177,0.11,-0.07,1.14,0.44,0.24,1.55,
1.179,0.11,-0.07,1.13,0.44,0.24,1.55,
1.181,0.11,-0.08,1.12,0.44,0.24,1.55,
1.182,0.11,-0.08,1.12,0.49,0.18,1.41,
1.183,0.11,-0.08,1.11,0.49,0.18,1.41,
1.187,0.11,-0.08,1.10,0.49,0.18,1.41,
1.188,0.11,-0.08,1.10,0.53,0.09,1.20,
1.188,0.11,-0.08,1.09,0.53,0.09,1.20,
1.191,0.11,-0.08,1.09,0.57,0.03,1.00,
1.192,0.11,-0.08,1.09,0.57,0.03,1.00,
1.194,0.10,-0.08,1.08,0.57,0.03,1.00,
1.201,0.10,-0.07,1.07,0.57,0.03,1.00,
1.202,0.10,-0.07,1.07,0.55,-0.01,0.85,
1.202,0.09,-0.07,1.07,0.55,-0.01,0.85,
1.202,0.08,-0.07,1.06,0.55,-0.01,0.85,
1.203,0.08,-0.07,1.06,0.47,0.02,0.68,
1.203,0.08,-0.07,1.06,0.47,0.02,0.68,
1.205,0.08,-0.07,1.07,0.47,0.02,0.68,
1.206,0.08,-0.07,1.07,0.36,0.05,0.63,
1.208,0.07,-0.06,1.08,0.36,0.05,0.63,
1.211,0.07,-0.06,1.07,0.36,0.05,0.63,
1.212,0.07,-0.06,1.07,0.29,0.07,0.60,
1.214,0.07,-0.06,1.07,0.29,0.07,0.60,
1.216,0.07,-0.06,1.07,0.23,0.13,0.68,
1.216,0.06,-0.06,1.07,0.23,0.13,0.68,
1.218,0.06,-0.06,1.07,0.23,0.13,0.68,
1.221,0.06,-0.06,1.08,0.23,0.13,0.68,
1.222,0.06,-0.06,1.08,0.17,0.14,0.63,
1.223,0.06,-0.06,1.08,0.17,0.14,0.63,
1.226,0.06,-0.06,1.08,0.17,0.14,0.63,
1.226,0.06,-0.06,1.08,0.12,0.14,0.68,
1.228,0.06,-0.06,1.08,0.12,0.14,0.68,
1.231,0.07,-0.06,1.10,0.12,0.14,0.68,
1.232,0.07,-0.06,1.10,0.10,0.11,0.72,
1.234,0.07,-0.05,1.10,0.10,0.11,0.72,
1.236,0.08,-0.05,1.11,0.10,0.11,0.72,
1.236,0.08,-0.05,1.11,0.19,0.13,0.82,
1.238,0.07,-0.05,1.11,0.19,0.13,0.82,
1.242,0.07,-0.05,1.11,0.29,0.20,0.96,
1.242,0.08,-0.04,1.11,0.29,0.20,0.96,
1.242,0.08,-0.04,1.11,0.29,0.20,0.96,
1.246,0.08,-0.05,1.11,0.29,0.20,0.96,
1.246,0.08,-0.05,1.11,0.31,0.24,1.02,
1.248,0.09,-0.05,1.11,0.31,0.24,1.02,
1.251,0.09,-0.05,1.11,0.31,0.24,1.02,
1.251,0.09,-0.05,1.11,0.41,0.25,1.02,
1.253,0.10,-0.05,1.10,0.41,0.25,1.02,
1.256,0.10,-0.05,1.11,0.41,0.25,1.02,
1.256,0.10,-0.05,1.11,0.51,0.19,1.00,
1.258,0.09,-0.05,1.10,0.51,0.19,1.00,
1.261,0.09,-0.05,1.10,0.51,0.19,1.00,
1.261,0.09,-0.05,1.10,0.56,0.18,0.96,
1.264,0.09,-0.06,1.09,0.56,0.18,0.96,
1.266,0.09,-0.06,1.09,0.53,0.18,0.88,
1.267,0.09,-0.06,1.09,0.53,0.18,0.88,
1.268,0.08,-0.06,1.08,0.53,0.18,0.88,
1.27,0.07,-0.06,1.08,0.53,0.18,0.88,
1.271,0.07,-0.06,1.08,0.48,0.02,0.82,
1.273,0.07,-0.06,1.06,0.48,0.02,0.82,
1.276,0.06,-0.06,1.07,0.48,0.02,0.82,
1.276,0.06,-0.06,1.07,0.40,0.01,0.71,
1.278,0.05,-0.06,1.06,0.40,0.01,0.71,
1.281,0.04,-0.07,1.05,0.40,0.01,0.71,
1.281,0.04,-0.07,1.05,0.28,-0.02,0.55,
1.282,0.03,-0.07,1.05,0.28,-0.02,0.55,
1.285,0.03,-0.07,1.05,0.28,-0.02,0.55,
1.285,0.03,-0.07,1.05,0.13,-0.04,0.44,
1.288,0.02,-0.07,1.04,0.13,-0.04,0.44,
1.291,0.02,-0.07,1.04,-0.03,-0.12,0.39,
1.291,0.02,-0.07,1.04,-0.03,-0.12,0.39,
1.293,0.01,-0.07,1.03,-0.03,-0.12,0.39,
1.295,0.01,-0.06,1.03,-0.03,-0.12,0.39,
1.296,0.01,-0.06,1.03,-0.10,-0.11,0.28,
1.302,0.01,-0.07,1.03,-0.10,-0.11,0.28,
1.303,0.01,-0.07,1.04,-0.10,-0.11,0.28,
1.303,0.01,-0.07,1.04,-0.18,-0.11,0.23,
1.303,0.01,-0.07,1.04,-0.18,-0.11,0.23,
1.305,0.02,-0.07,1.04,-0.18,-0.11,0.23,
1.305,0.02,-0.07,1.04,-0.21,-0.18,0.23,
1.307,0.02,-0.07,1.04,-0.21,-0.18,0.23,
1.311,0.02,-0.07,1.04,-0.21,-0.18,0.23,
1.311,0.02,-0.07,1.04,-0.16,-0.18,0.26,
1.312,0.02,-0.06,1.05,-0.16,-0.18,0.26,
1.315,0.02,-0.06,1.05,-0.13,-0.19,0.29,
1.315,0.02,-0.06,1.04,-0.13,-0.19,0.29,
1.318,0.02,-0.06,1.04,-0.13,-0.19,0.29,
1.32,0.02,-0.06,1.05,-0.13,-0.19,0.29,
1.32,0.02,-0.06,1.05,-0.10,-0.12,0.35,
1.322,0.02,-0.05,1.05,-0.10,-0.12,0.35,
1.324,0.02,-0.05,1.05,-0.10,-0.12,0.35,
1.325,0.02,-0.05,1.05,-0.11,-0.12,0.32,
1.327,0.02,-0.05,1.05,-0.11,-0.12,0.32,
1.33,0.02,-0.05,1.05,-0.11,-0.12,0.32,
1.331,0.02,-0.05,1.05,-0.14,-0.08,0.35,
1.331,0.02,-0.05,1.05,-0.14,-0.08,0.35,
1.334,0.02,-0.05,1.05,-0.11,-0.07,0.39,
1.335,0.01,-0.04,1.05,-0.11,-0.07,0.39,
1.336,0.01,-0.04,1.04,-0.11,-0.07,0.39,
1.339,0.01,-0.04,1.04,-0.17,-0.07,0.36,
1.34,0.01,-0.04,1.04,-0.17,-0.07,0.36,
1.342,0.01,-0.04,1.03,-0.17,-0.07,0.36,
1.344,0.00,-0.04,1.02,-0.17,-0.07,0.36,
1.345,0.00,-0.04,1.02,-0.22,-0.06,0.28,
1.347,0.00,-0.04,1.02,-0.22,-0.06,0.28,
1.349,-0.00,-0.05,1.02,-0.22,-0.06,0.28,
1.35,-0.00,-0.05,1.02,-0.27,-0.07,0.16,
1.352,-0.00,-0.05,1.02,-0.27,-0.07,0.16,
1.354,-0.00,-0.05,1.01,-0.27,-0.07,0.16,
1.355,-0.00,-0.05,1.01,-0.30,-0.13,0.12,
1.356,-0.01,-0.05,1.01,-0.30,-0.13,0.12,
1.359,-0.01,-0.04,1.01,-0.30,-0.13,0.12,
1.36,-0.01,-0.04,1.01,-0.33,-0.18,0.02,
1.361,-0.01,-0.04,1.01,-0.33,-0.18,0.02,
1.365,-0.01,-0.04,1.01,-0.39,-0.17,0.02,
1.365,-0.02,-0.05,1.01,-0.39,-0.17,0.02,
1.367,-0.02,-0.04,1.01,-0.39,-0.17,0.02,
1.369,-0.02,-0.04,1.00,-0.39,-0.17,0.02,
1.369,-0.02,-0.04,1.00,-0.45,-0.20,-0.05,
1.372,-0.02,-0.05,1.00,-0.45,-0.20,-0.05,
1.374,-0.02,-0.05,1.00,-0.48,-0.19,-0.07,
1.374,-0.03,-0.05,1.01,-0.48,-0.19,-0.07,
1.377,-0.03,-0.06,1.01,-0.48,-0.19,-0.07,
1.38,-0.03,-0.06,1.01,-0.48,-0.19,-0.07,
1.38,-0.03,-0.06,1.01,-0.53,-0.27,-0.06,
1.381,-0.03,-0.06,1.01,-0.53,-0.27,-0.06,
1.385,-0.03,-0.06,1.02,-0.53,-0.27,-0.06,
1.385,-0.03,-0.06,1.02,-0.58,-0.38,-0.03,
1.386,-0.03,-0.07,1.02,-0.58,-0.38,-0.03,
1.389,-0.03,-0.07,1.02,-0.58,-0.40,0.02,
1.389,-0.03,-0.07,1.01,-0.58,-0.40,0.02,
1.392,-0.03,-0.08,1.02,-0.58,-0.40,0.02,
1.394,-0.03,-0.07,1.02,-0.58,-0.40,0.02,
1.394,-0.03,-0.07,1.02,-0.56,-0.52,0.03,
1.396,-0.02,-0.07,1.01,-0.56,-0.52,0.03,
1.398,-0.02,-0.07,1.02,-0.56,-0.52,0.03,
1.399,-0.02,-0.07,1.02,-0.57,-0.57,0.08,
1.401,-0.02,-0.07,1.01,-0.57,-0.57,0.08,
1.405,-0.01,-0.07,1.01,-0.57,-0.57,0.08,
1.405,-0.01,-0.07,1.01,-0.52,-0.52,0.02,
1.407,-0.01,-0.07,1.02,-0.52,-0.52,0.02,
1.41,-0.01,-0.07,1.01,-0.52,-0.52,0.02,
1.41,-0.01,-0.07,1.01,-0.44,-0.56,0.01,
1.411,-0.01,-0.06,1.01,-0.44,-0.56,0.01,
1.421,-0.01,-0.06,1.01,-0.44,-0.58,0.02,
1.422,-0.01,-0.06,1.02,-0.44,-0.58,0.02,
1.422,-0.01,-0.05,1.02,-0.44,-0.58,0.02,
1.422,-0.01,-0.05,1.01,-0.44,-0.58,0.02,
1.423,-0.01,-0.05,1.01,-0.40,-0.54,0.04,
1.423,-0.01,-0.05,1.01,-0.40,-0.54,0.04,
1.424,-0.01,-0.05,1.01,-0.40,-0.54,0.04,
1.425,-0.01,-0.05,1.01,-0.41,-0.49,-0.00,
1.425,-0.01,-0.04,1.00,-0.41,-0.49,-0.00,
1.428,-0.01,-0.04,1.00,-0.41,-0.49,-0.00,
1.428,-0.01,-0.04,1.00,-0.41,-0.49,-0.05,
1.43,-0.01,-0.04,1.00,-0.41,-0.49,-0.05,
1.434,-0.01,-0.03,0.98,-0.41,-0.49,-0.05,
1.434,-0.01,-0.03,0.98,-0.44,-0.43,-0.12,
1.435,-0.01,-0.03,0.98,-0.44,-0.43,-0.12,
1.439,-0.01,-0.03,0.98,-0.45,-0.41,-0.22,
1.439,-0.01,-0.02,0.97,-0.45,-0.41,-0.22,
1.441,-0.01,-0.02,0.96,-0.45,-0.41,-0.22,
1.444,-0.01,-0.02,0.95,-0.45,-0.41,-0.22,
1.444,-0.01,-0.02,0.95,-0.49,-0.34,-0.35,
1.446,-0.01,-0.02,0.95,-0.49,-0.34,-0.35,
1.448,-0.01,-0.02,0.94,-0.49,-0.34,-0.35,
1.449,-0.01,-0.02,0.94,-0.50,-0.33,-0.53,
1.451,-0.02,-0.02,0.93,-0.50,-0.33,-0.53,
1.453,-0.02,-0.02,0.93,-0.50,-0.33,-0.53,
1.454,-0.02,-0.02,0.93,-0.52,-0.39,-0.66,
1.455,-0.02,-0.03,0.93,-0.52,-0.39,-0.66,
1.459,-0.03,-0.02,0.92,-0.52,-0.39,-0.66,
1.459,-0.03,-0.02,0.92,-0.59,-0.37,-0.80,
1.461,-0.04,-0.02,0.91,-0.59,-0.37,-0.80,
1.463,-0.04,-0.02,0.91,-0.68,-0.44,-0.86,
1.463,-0.05,-0.02,0.92,-0.68,-0.44,-0.86,
1.467,-0.05,-0.03,0.92,-0.68,-0.44,-0.86,
1.469,-0.06,-0.03,0.91,-0.68,-0.44,-0.86,
1.47,-0.06,-0.03,0.91,-0.82,-0.44,-0.92,
1.471,-0.06,-0.03,0.92,-0.82,-0.44,-0.92,
1.473,-0.06,-0.03,0.92,-0.82,-0.44,-0.92,
1.474,-0.06,-0.03,0.92,-0.92,-0.50,-0.91,
1.476,-0.07,-0.03,0.93,-0.92,-0.50,-0.91,
1.479,-0.07,-0.03,0.93,-0.92,-0.50,-0.91,
1.479,-0.07,-0.03,0.93,-1.01,-0.53,-0.88,
1.481,-0.08,-0.03,0.93,-1.01,-0.53,-0.88,
1.485,-0.08,-0.04,0.94,-1.01,-0.53,-0.88,
1.486,-0.08,-0.04,0.94,-1.07,-0.60,-0.82,
1.486,-0.08,-0.04,0.95,-1.07,-0.60,-0.82,
1.489,-0.08,-0.04,0.95,-1.12,-0.63,-0.71,
1.489,-0.08,-0.04,0.95,-1.12,-0.63,-0.71,
1.49,-0.07,-0.04,0.95,-1.12,-0.63,-0.71,
1.494,-0.07,-0.04,0.95,-1.11,-0.65,-0.59,
1.494,-0.07,-0.04,0.95,-1.11,-0.65,-0.59,
1.496,-0.07,-0.04,0.95,-1.11,-0.65,-0.59,
1.498,-0.06,-0.04,0.95,-1.11,-0.65,-0.59,
1.499,-0.06,-0.04,0.95,-1.05,-0.69,-0.59,
1.501,-0.06,-0.04,0.95,-1.05,-0.69,-0.59,
1.503,-0.06,-0.04,0.96,-1.05,-0.69,-0.59,
1.503,-0.06,-0.04,0.96,-0.97,-0.71,-0.59,
1.505,-0.06,-0.03,0.95,-0.97,-0.71,-0.59,
1.508,-0.05,-0.03,0.94,-0.97,-0.71,-0.59,
1.509,-0.05,-0.03,0.94,-0.91,-0.69,-0.56,
1.511,-0.05,-0.03,0.95,-0.91,-0.69,-0.56,
1.513,-0.05,-0.02,0.94,-0.91,-0.69,-0.56,
1.514,-0.05,-0.02,0.94,-0.82,-0.60,-0.61,
1.522,-0.05,-0.02,0.94,-0.82,-0.60,-0.61,
1.523,-0.04,-0.01,0.94,-0.82,-0.60,-0.61,
1.523,-0.04,-0.01,0.94,-0.78,-0.58,-0.63,
1.523,-0.04,-0.01,0.93,-0.78,-0.58,-0.63,
1.523,-0.03,0.00,0.93,-0.78,-0.58,-0.63,
1.524,-0.03,0.00,0.93,-0.74,-0.52,-0.67,
1.525,-0.04,0.01,0.93,-0.74,-0.52,-0.67,
1.527,-0.03,0.01,0.93,-0.74,-0.52,-0.67,
1.527,-0.03,0.01,0.93,-0.64,-0.39,-0.75,
1.529,-0.03,0.01,0.93,-0.64,-0.39,-0.75,
1.533,-0.02,0.02,0.92,-0.64,-0.39,-0.75,
1.533,-0.02,0.02,0.92,-0.65,-0.33,-0.76,
1.534,-0.02,0.02,0.92,-0.65,-0.33,-0.76,
1.538,-0.02,0.02,0.92,-0.65,-0.33,-0.76,
1.538,-0.02,0.02,0.92,-0.54,-0.27,-0.81,
1.539,-0.02,0.02,0.92,-0.54,-0.27,-0.81,
1.543,-0.02,0.03,0.92,-0.54,-0.27,-0.81,
1.543,-0.02,0.03,0.92,-0.53,-0.25,-0.86,
1.545,-0.01,0.02,0.91,-0.53,-0.25,-0.86,
1.549,-0.01,0.02,0.91,-0.53,-0.25,-0.86,
1.55,-0.01,0.02,0.91,-0.49,-0.23,-0.87,
1.55,-0.01,0.02,0.91,-0.49,-0.23,-0.87,
1.553,-0.01,0.01,0.91,-0.49,-0.23,-0.87,
1.553,-0.01,0.01,0.91,-0.44,-0.28,-0.93,
1.555,-0.01,0.02,0.91,-0.44,-0.28,-0.93,
1.558,-0.01,0.01,0.91,-0.44,-0.28,-0.93,
1.558,-0.01,0.01,0.91,-0.42,-0.35,-0.95,
1.561,-0.02,0.01,0.91,-0.42,-0.35,-0.95,
1.563,-0.02,0.01,0.91,-0.44,-0.40,-0.96,
1.563,-0.02,0.00,0.90,-0.44,-0.40,-0.96,
1.566,-0.02,-0.01,0.91,-0.44,-0.40,-0.96,
1.568,-0.02,-0.01,0.91,-0.49,-0.49,-0.99,
1.568,-0.02,-0.00,0.91,-0.49,-0.49,-0.99,
1.57,-0.02,-0.00,0.91,-0.49,-0.49,-0.99,
1.572,-0.01,-0.01,0.91,-0.49,-0.49,-0.99,
1.573,-0.01,-0.01,0.91,-0.46,-0.59,-0.96,
1.575,-0.01,-0.01,0.91,-0.46,-0.59,-0.96,
1.578,-0.01,-0.01,0.91,-0.46,-0.59,-0.96,
1.578,-0.01,-0.01,0.91,-0.42,-0.60,-0.95,
1.58,-0.01,-0.00,0.91,-0.42,-0.60,-0.95,
1.583,-0.01,-0.00,0.91,-0.42,-0.60,-0.95,
1.584,-0.01,-0.00,0.91,-0.37,-0.62,-0.93,
1.584,-0.00,0.00,0.91,-0.37,-0.62,-0.93,
1.587,-0.00,0.00,0.91,-0.34,-0.59,-0.95,
1.587,-0.00,0.00,0.92,-0.34,-0.59,-0.95,
1.59,0.00,0.01,0.92,-0.34,-0.59,-0.95,
1.593,0.01,0.01,0.92,-0.34,-0.59,-0.95,
1.594,0.01,0.01,0.92,-0.28,-0.54,-0.87,
1.594,0.01,0.01,0.92,-0.28,-0.54,-0.87,
1.597,0.00,0.01,0.92,-0.28,-0.54,-0.87,
1.597,0.00,0.01,0.92,-0.21,-0.49,-0.82,
1.6,0.01,0.02,0.92,-0.21,-0.49,-0.82,
1.602,0.01,0.02,0.92,-0.21,-0.49,-0.82,
1.602,0.01,0.02,0.92,-0.19,-0.44,-0.81,
1.605,0.01,0.02,0.92,-0.19,-0.44,-0.81,
1.608,0.01,0.02,0.93,-0.19,-0.44,-0.81,
1.608,0.01,0.02,0.93,-0.16,-0.41,-0.83,
1.61,0.02,0.03,0.92,-0.16,-0.41,-0.83,
1.613,0.02,0.04,0.92,-0.16,-0.41,-0.83,
1.613,0.02,0.04,0.92,-0.15,-0.35,-0.77,
1.616,0.02,0.04,0.93,-0.15,-0.35,-0.77,
1.617,0.01,0.04,0.92,-0.15,-0.35,-0.77,
1.617,0.01,0.04,0.92,-0.07,-0.29,-0.79,
1.62,0.02,0.04,0.92,-0.07,-0.29,-0.79,
1.622,0.02,0.04,0.92,-0.07,-0.29,-0.79,
1.622,0.02,0.04,0.92,-0.09,-0.23,-0.80,
1.625,0.01,0.04,0.91,-0.09,-0.23,-0.80,
1.627,0.01,0.04,0.91,-0.09,-0.23,-0.80,
1.627,0.01,0.04,0.91,-0.08,-0.24,-0.84,
1.629,0.00,0.04,0.91,-0.08,-0.24,-0.84,
1.637,0.00,0.04,0.91,-0.18,-0.25,-0.93,
1.637,-0.00,0.03,0.90,-0.18,-0.25,-0.93,
1.638,-0.00,0.03,0.89,-0.18,-0.25,-0.93,
1.638,-0.00,0.03,0.89,-0.26,-0.32,-0.96,
1.638,-0.01,0.03,0.89,-0.26,-0.32,-0.96,
1.638,-0.02,0.03,0.89,-0.26,-0.32,-0.96,
1.641,-0.03,0.02,0.89,-0.26,-0.32,-0.96,
1.642,-0.03,0.02,0.89,-0.32,-0.38,-1.06,
1.644,-0.04,0.02,0.88,-0.32,-0.38,-1.06,
1.646,-0.04,0.02,0.87,-0.32,-0.38,-1.06,
1.65,-0.04,0.02,0.87,-0.49,-0.45,-1.10,
1.65,-0.05,0.01,0.87,-0.49,-0.45,-1.10,
1.652,-0.06,0.01,0.87,-0.49,-0.45,-1.10,
1.653,-0.06,0.01,0.87,-0.63,-0.52,-1.20,
1.653,-0.07,0.00,0.86,-0.63,-0.52,-1.20,
1.656,-0.07,0.00,0.86,-0.63,-0.52,-1.20,
1.657,-0.07,0.00,0.86,-0.81,-0.62,-1.26,
1.658,-0.08,-0.00,0.86,-0.81,-0.62,-1.26,
1.661,-0.08,-0.00,0.86,-0.95,-0.67,-1.40,
1.661,-0.08,0.00,0.86,-0.95,-0.67,-1.40,
1.664,-0.09,0.00,0.86,-0.95,-0.67,-1.40,
1.666,-0.09,0.00,0.86,-1.03,-0.72,-1.38,
1.667,-0.10,0.00,0.86,-1.03,-0.72,-1.38,
1.668,-0.10,0.00,0.86,-1.03,-0.72,-1.38,
1.671,-0.10,0.00,0.85,-1.03,-0.72,-1.38,
1.671,-0.10,0.00,0.85,-1.13,-0.71,-1.40,
1.674,-0.11,0.00,0.86,-1.13,-0.71,-1.40,
1.676,-0.11,-0.00,0.86,-1.13,-0.71,-1.40,
1.677,-0.11,-0.00,0.86,-1.23,-0.72,-1.39,
1.679,-0.11,-0.00,0.86,-1.23,-0.72,-1.39,
1.682,-0.12,-0.00,0.86,-1.23,-0.72,-1.39,
1.683,-0.12,-0.00,0.86,-1.28,-0.75,-1.38,
1.683,-0.11,-0.00,0.85,-1.28,-0.75,-1.38,
1.686,-0.11,-0.00,0.85,-1.34,-0.76,-1.38,
1.686,-0.12,-0.00,0.86,-1.34,-0.76,-1.38,
1.688,-0.11,-0.00,0.86,-1.34,-0.76,-1.38,
1.691,-0.11,-0.01,0.85,-1.34,-0.76,-1.38,
1.691,-0.11,-0.01,0.85,-1.35,-0.77,-1.40,
1.694,-0.11,-0.00,0.85,-1.35,-0.77,-1.40,
1.696,-0.11,0.00,0.85,-1.35,-0.77,-1.40,
1.696,-0.11,0.00,0.85,-1.31,-0.79,-1.39,
1.699,-0.10,0.01,0.85,-1.31,-0.79,-1.39,
1.701,-0.10,0.01,0.85,-1.31,-0.79,-1.39,
1.701,-0.10,0.01,0.85,-1.32,-0.77,-1.45,
1.703,-0.10,0.02,0.85,-1.32,-0.77,-1.45,
1.706,-0.10,0.02,0.85,-1.32,-0.77,-1.45,
1.707,-0.10,0.02,0.85,-1.22,-0.67,-1.43,
1.708,-0.09,0.02,0.85,-1.22,-0.67,-1.43,
1.711,-0.09,0.02,0.85,-1.16,-0.63,-1.46,
1.711,-0.09,0.03,0.85,-1.16,-0.63,-1.46,
1.713,-0.09,0.03,0.85,-1.16,-0.63,-1.46,
1.716,-0.09,0.04,0.84,-1.16,-0.63,-1.46,
1.716,-0.09,0.04,0.84,-1.11,-0.58,-1.44,
1.718,-0.09,0.04,0.85,-1.11,-0.58,-1.44,
1.72,-0.09,0.04,0.84,-1.11,-0.58,-1.44,
1.721,-0.09,0.04,0.84,-1.06,-0.46,-1.48,
1.723,-0.09,0.05,0.85,-1.06,-0.46,-1.48,
1.726,-0.09,0.05,0.85,-1.04,-0.38,-1.46,
1.726,-0.09,0.05,0.85,-1.04,-0.38,-1.46,
1.728,-0.08,0.05,0.85,-1.04,-0.38,-1.46,
1.731,-0.08,0.05,0.84,-1.04,-0.38,-1.46,
1.731,-0.08,0.05,0.84,-1.00,-0.36,-1.39,
1.737,-0.08,0.05,0.85,-1.00,-0.36,-1.39,
1.738,-0.08,0.05,0.85,-0.95,-0.31,-1.47,
1.738,-0.07,0.06,0.85,-0.95,-0.31,-1.47,
1.738,-0.07,0.06,0.85,-0.95,-0.31,-1.47,
1.74,-0.06,0.06,0.85,-0.95,-0.31,-1.47,
1.741,-0.06,0.06,0.85,-0.87,-0.27,-1.46,
1.742,-0.05,0.06,0.84,-0.87,-0.27,-1.46,
1.746,-0.05,0.06,0.84,-0.87,-0.27,-1.46,
1.746,-0.05,0.06,0.84,-0.77,-0.24,-1.44,
1.749,-0.05,0.07,0.84,-0.77,-0.24,-1.44,
1.751,-0.04,0.07,0.84,-0.77,-0.24,-1.44,
1.751,-0.04,0.07,0.84,-0.62,-0.20,-1.49,
1.752,-0.04,0.08,0.83,-0.62,-0.20,-1.49,
1.755,-0.04,0.08,0.83,-0.51,-0.14,-1.55,
1.755,-0.04,0.07,0.83,-0.51,-0.14,-1.55,
1.758,-0.04,0.08,0.83,-0.51,-0.14,-1.55,
1.76,-0.04,0.08,0.83,-0.46,-0.09,-1.58,
1.76,-0.04,0.09,0.83,-0.46,-0.09,-1.58,
1.763,-0.04,0.09,0.83,-0.46,-0.09,-1.58,
1.766,-0.05,0.09,0.83,-0.46,-0.09,-1.58,
1.767,-0.05,0.09,0.83,-0.44,-0.00,-1.61,
1.767,-0.05,0.09,0.83,-0.44,-0.00,-1.61,
1.77,-0.05,0.09,0.83,-0.44,-0.00,-1.61,
1.77,-0.05,0.09,0.83,-0.46,0.06,-1.59,
1.773,-0.05,0.09,0.83,-0.46,0.06,-1.59,
1.775,-0.05,0.09,0.84,-0.46,0.06,-1.59,
1.776,-0.05,0.09,0.84,-0.51,0.06,-1.57,
1.777,-0.06,0.09,0.83,-0.51,0.06,-1.57,
1.78,-0.06,0.09,0.84,-0.51,0.06,-1.57,
1.78,-0.06,0.09,0.84,-0.48,0.07,-1.56,
1.783,-0.05,0.08,0.84,-0.48,0.07,-1.56,
1.785,-0.05,0.08,0.84,-0.48,0.07,-1.56,
1.786,-0.05,0.08,0.84,-0.54,0.06,-1.53,
1.787,-0.06,0.08,0.86,-0.54,0.06,-1.53,
1.789,-0.06,0.08,0.86,-0.54,0.06,-1.53,
1.79,-0.06,0.08,0.86,-0.51,0.01,-1.48,
1.792,-0.06,0.08,0.85,-0.51,0.01,-1.48,
1.794,-0.06,0.08,0.87,-0.51,0.01,-1.48,
1.794,-0.06,0.08,0.87,-0.54,0.02,-1.33,
1.796,-0.06,0.08,0.87,-0.54,0.02,-1.33,
1.799,-0.06,0.07,0.88,-0.54,0.02,-1.33,
1.8,-0.06,0.07,0.88,-0.53,0.00,-1.26,
1.801,-0.06,0.07,0.89,-0.53,0.00,-1.26,
1.804,-0.05,0.07,0.88,-0.53,0.00,-1.26,
1.805,-0.05,0.07,0.88,-0.53,-0.06,-1.16,
1.806,-0.05,0.07,0.89,-0.53,-0.06,-1.16,
1.809,-0.05,0.07,0.89,-0.52,-0.09,-1.04,
1.809,-0.05,0.07,0.90,-0.52,-0.09,-1.04,
1.812,-0.05,0.07,0.90,-0.52,-0.09,-1.04,
1.817,-0.05,0.07,0.90,-0.52,-0.09,-1.04,
1.817,-0.05,0.07,0.90,-0.50,-0.11,-0.90,
1.818,-0.05,0.07,0.91,-0.50,-0.11,-0.90,
1.819,-0.05,0.07,0.91,-0.50,-0.11,-0.90,
1.819,-0.05,0.07,0.91,-0.43,-0.12,-0.86,
1.821,-0.05,0.07,0.92,-0.43,-0.12,-0.86,
1.824,-0.05,0.07,0.92,-0.43,-0.12,-0.86,
1.824,-0.05,0.07,0.92,-0.44,-0.12,-0.79,
1.826,-0.05,0.07,0.93,-0.44,-0.12,-0.79,
1.829,-0.05,0.07,0.93,-0.44,-0.12,-0.79,
1.829,-0.05,0.07,0.93,-0.46,-0.15,-0.66,
1.831,-0.05,0.07,0.94,-0.46,-0.15,-0.66,
1.834,-0.05,0.07,0.94,-0.47,-0.13,-0.59,
1.834,-0.06,0.07,0.94,-0.47,-0.13,-0.59,
1.836,-0.06,0.07,0.95,-0.47,-0.13,-0.59,
1.839,-0.06,0.07,0.95,-0.47,-0.13,-0.59,
1.839,-0.06,0.07,0.95,-0.54,-0.11,-0.47,
1.841,-0.06,0.07,0.95,-0.54,-0.11,-0.47,
1.844,-0.06,0.07,0.96,-0.54,-0.11,-0.47,
1.844,-0.06,0.07,0.96,-0.59,-0.16,-0.36,
1.846,-0.06,0.06,0.96,-0.59,-0.16,-0.36,
1.853,-0.06,0.07,0.95,-0.59,-0.16,-0.36,
1.854,-0.06,0.07,0.95,-0.58,-0.16,-0.31,
1.854,-0.06,0.07,0.95,-0.58,-0.16,-0.31,
1.854,-0.05,0.07,0.95,-0.58,-0.16,-0.31,
1.854,-0.05,0.07,0.95,-0.58,-0.18,-0.31,
1.856,-0.05,0.07,0.95,-0.58,-0.18,-0.31,
1.858,-0.05,0.07,0.95,-0.50,-0.17,-0.35,
1.859,-0.04,0.07,0.95,-0.50,-0.17,-0.35,
1.861,-0.04,0.07,0.95,-0.50,-0.17,-0.35,
1.865,-0.04,0.08,0.95,-0.50,-0.17,-0.35,
1.866,-0.04,0.08,0.95,-0.40,-0.15,-0.35,
1.866,-0.03,0.08,0.94,-0.40,-0.15,-0.35,
1.869,-0.03,0.09,0.95,-0.40,-0.15,-0.35,
1.869,-0.03,0.09,0.95,-0.31,-0.10,-0.36,
1.871,-0.03,0.09,0.94,-0.31,-0.10,-0.36,
1.873,-0.03,0.10,0.94,-0.31,-0.10,-0.36,
1.874,-0.03,0.10,0.94,-0.26,0.01,-0.39,
1.875,-0.02,0.10,0.93,-0.26,0.01,-0.39,
1.878,-0.02,0.10,0.93,-0.26,0.01,-0.39,
1.878,-0.02,0.10,0.93,-0.20,0.07,-0.45,
1.882,-0.01,0.10,0.93,-0.20,0.07,-0.45,
1.883,-0.01,0.10,0.93,-0.13,0.14,-0.50,
1.884,-0.01,0.11,0.93,-0.13,0.14,-0.50,
1.885,-0.00,0.11,0.93,-0.13,0.14,-0.50,
1.889,0.00,0.11,0.93,-0.13,0.14,-0.50,
1.889,0.00,0.11,0.93,-0.03,0.17,-0.54,
1.891,0.00,0.11,0.93,-0.03,0.17,-0.54,
1.893,0.00,0.11,0.93,0.06,0.20,-0.54,
1.894,0.01,0.11,0.93,0.06,0.20,-0.54,
1.895,0.01,0.11,0.93,0.06,0.20,-0.54,
1.898,0.01,0.12,0.93,0.06,0.20,-0.54,
1.899,0.01,0.12,0.93,0.13,0.22,-0.56,
1.9,0.01,0.12,0.93,0.13,0.22,-0.56,
1.904,0.00,0.11,0.93,0.13,0.22,-0.56,
1.904,0.00,0.11,0.93,0.15,0.25,-0.55,
1.906,-0.00,0.11,0.94,0.15,0.25,-0.55,
1.908,-0.00,0.11,0.94,0.12,0.26,-0.53,
1.908,-0.00,0.12,0.94,0.12,0.26,-0.53,
1.91,-0.01,0.12,0.95,0.12,0.26,-0.53,
1.916,-0.01,0.12,0.95,0.12,0.26,-0.53,
1.917,-0.01,0.12,0.95,0.05,0.29,-0.45,
1.918,-0.01,0.12,0.96,0.05,0.29,-0.45,
1.919,-0.01,0.12,0.96,0.05,0.29,-0.45,
1.919,-0.01,0.12,0.96,-0.00,0.32,-0.33,
1.92,-0.01,0.12,0.96,-0.00,0.32,-0.33,
1.923,-0.02,0.12,0.97,-0.00,0.32,-0.33,
1.924,-0.02,0.12,0.97,-0.02,0.32,-0.21,
1.925,-0.02,0.11,0.97,-0.02,0.32,-0.21,
1.928,-0.02,0.11,0.98,-0.02,0.32,-0.21,
1.929,-0.02,0.11,0.98,-0.08,0.29,-0.18,
1.93,-0.02,0.11,0.98,-0.08,0.29,-0.18,
1.933,-0.02,0.11,0.98,-0.11,0.22,-0.06,
1.934,-0.02,0.11,0.98,-0.11,0.22,-0.06,
1.935,-0.01,0.11,0.99,-0.11,0.22,-0.06,
1.939,-0.02,0.11,0.99,-0.11,0.22,-0.06,
1.94,-0.02,0.11,0.99,-0.12,0.24,-0.03,
1.94,-0.01,0.11,0.99,-0.12,0.24,-0.03,
1.944,-0.01,0.10,0.99,-0.12,0.24,-0.03,
1.944,-0.01,0.10,0.99,-0.08,0.22,0.07,
1.946,-0.01,0.11,0.99,-0.08,0.22,0.07,
1.948,-0.01,0.11,0.99,-0.05,0.18,0.11,
1.949,-0.01,0.11,0.99,-0.05,0.18,0.11,
1.956,-0.01,0.10,0.98,-0.05,0.18,0.11,
1.956,-0.01,0.11,0.99,-0.05,0.18,0.11,
1.957,-0.01,0.11,0.99,-0.06,0.16,0.05,
1.957,-0.02,0.11,0.98,-0.06,0.16,0.05,
1.957,-0.02,0.11,0.98,-0.05,0.15,0.02,
1.958,-0.02,0.11,0.98,-0.05,0.15,0.02,
1.96,-0.02,0.11,0.98,-0.05,0.15,0.02,
1.963,-0.02,0.11,0.98,-0.05,0.15,0.02,
1.964,-0.02,0.11,0.98,-0.09,0.16,-0.01,
1.966,-0.02,0.11,0.98,-0.09,0.16,-0.01,
1.968,-0.01,0.11,0.98,-0.09,0.16,-0.01,
1.968,-0.01,0.11,0.98,-0.11,0.18,0.00,
1.97,-0.01,0.12,0.98,-0.11,0.18,0.00,
1.973,-0.01,0.11,0.98,-0.11,0.18,0.00,
1.973,-0.01,0.11,0.98,-0.07,0.17,-0.02,
1.976,-0.01,0.11,0.98,-0.07,0.17,-0.02,
1.977,-0.01,0.11,0.98,-0.03,0.22,-0.03,
1.978,-0.01,0.11,0.98,-0.03,0.22,-0.03,
1.98,-0.00,0.11,0.98,-0.03,0.22,-0.03,
1.983,-0.00,0.11,0.98,-0.01,0.19,-0.03,
1.983,-0.00,0.11,0.98,-0.01,0.19,-0.03,
1.986,-0.00,0.11,0.98,-0.01,0.19,-0.03,
1.988,-0.00,0.11,0.97,-0.01,0.19,-0.03,
1.988,-0.00,0.11,0.97,0.05,0.18,-0.02,
1.99,0.00,0.12,0.97,0.05,0.18,-0.02,
1.993,0.00,0.12,0.97,0.05,0.18,-0.02,
1.993,0.00,0.12,0.97,0.06,0.18,-0.07,
1.995,0.01,0.11,0.97,0.06,0.18,-0.07,
1.998,0.01,0.12,0.96,0.06,0.18,-0.07,
1.998,0.01,0.12,0.96,0.10,0.22,-0.12,
2.0,0.01,0.12,0.96,0.10,0.22,-0.12,
2.003,0.01,0.12,0.95,0.10,0.22,-0.12,
2.004,0.01,0.12,0.95,0.13,0.20,-0.19,
2.005,0.01,0.12,0.95,0.13,0.20,-0.19,
2.008,0.01,0.12,0.95,0.18,0.22,-0.26,
2.008,0.02,0.12,0.95,0.18,0.22,-0.26,
2.01,0.01,0.12,0.94,0.18,0.22,-0.26,
2.013,0.02,0.11,0.94,0.18,0.22,-0.26,
2.013,0.02,0.11,0.94,0.22,0.21,-0.29,
2.015,0.02,0.12,0.95,0.22,0.21,-0.29,
2.018,0.02,0.12,0.95,0.22,0.21,-0.29,
2.018,0.02,0.12,0.95,0.23,0.19,-0.37,
2.02,0.01,0.12,0.95,0.23,0.19,-0.37,
2.022,0.01,0.12,0.96,0.23,0.19,-0.37,
2.023,0.01,0.12,0.96,0.26,0.23,-0.33,
2.025,0.00,0.12,0.96,0.26,0.23,-0.33,
2.028,0.00,0.11,0.97,0.26,0.23,-0.33,
2.028,0.00,0.11,0.97,0.18,0.19,-0.25,
2.03,0.01,0.12,0.97,0.18,0.19,-0.25,
2.034,0.01,0.12,0.97,0.10,0.19,-0.17,
2.034,-0.00,0.11,0.97,0.10,0.19,-0.17,
2.035,-0.01,0.11,0.98,0.10,0.19,-0.17,
2.037,-0.01,0.11,0.98,0.10,0.19,-0.17,
2.038,-0.01,0.11,0.98,0.07,0.17,-0.08,
2.04,-0.01,0.11,0.99,0.07,0.17,-0.08,
2.043,-0.02,0.10,1.00,0.07,0.17,-0.08,
2.043,-0.02,0.10,1.00,-0.04,0.14,0.01,
2.046,-0.02,0.10,1.00,-0.04,0.14,0.01,
2.048,-0.02,0.10,1.01,-0.04,0.14,0.01,
2.048,-0.02,0.10,1.01,-0.08,0.09,0.14,
2.05,-0.02,0.09,1.01,-0.08,0.09,0.14,
2.053,-0.03,0.09,1.02,-0.08,0.09,0.14,
2.053,-0.03,0.09,1.02,-0.12,0.03,0.27,
2.054,-0.03,0.09,1.03,-0.12,0.03,0.27,
2.058,-0.03,0.09,1.03,-0.18,-0.03,0.35,
2.058,-0.03,0.09,1.03,-0.18,-0.03,0.35,
2.06,-0.02,0.09,1.04,-0.18,-0.03,0.35,
2.063,-0.02,0.09,1.04,-0.22,-0.05,0.47,
2.063,-0.03,0.09,1.04,-0.22,-0.05,0.47,
2.065,-0.02,0.09,1.04,-0.22,-0.05,0.47,
2.073,-0.02,0.09,1.04,-0.22,-0.05,0.47,
2.074,-0.02,0.09,1.04,-0.20,-0.04,0.54,
2.074,-0.02,0.09,1.05,-0.20,-0.04,0.54,
2.074,-0.02,0.09,1.04,-0.20,-0.04,0.54,
2.075,-0.02,0.09,1.04,-0.14,-0.06,0.55,
2.075,-0.02,0.09,1.04,-0.14,-0.06,0.55,
2.077,-0.02,0.09,1.04,-0.14,-0.06,0.55,
2.078,-0.02,0.09,1.04,-0.14,-0.05,0.61,
2.079,-0.01,0.09,1.03,-0.14,-0.05,0.61,
2.083,-0.01,0.09,1.03,-0.11,-0.06,0.56,
2.083,-0.01,0.09,1.03,-0.11,-0.06,0.56,
2.084,-0.01,0.09,1.03,-0.11,-0.06,0.56,
2.086,-0.02,0.09,1.02,-0.11,-0.06,0.56,
2.087,-0.02,0.09,1.02,-0.07,-0.07,0.46,
2.088,-0.02,0.09,1.02,-0.07,-0.07,0.46,
2.091,-0.02,0.09,1.02,-0.07,-0.07,0.46,
2.091,-0.02,0.09,1.02,-0.11,-0.07,0.41,
2.094,-0.02,0.09,1.02,-0.11,-0.07,0.41,
2.096,-0.01,0.09,1.01,-0.11,-0.07,0.41,
2.097,-0.01,0.09,1.01,-0.10,-0.08,0.35,
2.099,-0.01,0.09,1.01,-0.10,-0.08,0.35,
2.103,-0.01,0.09,1.01,-0.09,-0.09,0.28,
2.103,-0.01,0.09,1.01,-0.09,-0.09,0.28,
2.104,-0.01,0.09,1.00,-0.09,-0.09,0.28,
2.107,-0.01,0.09,1.00,-0.09,-0.09,0.28,
2.107,-0.01,0.09,1.00,-0.06,-0.06,0.21,
2.108,-0.01,0.10,1.00,-0.06,-0.06,0.21,
2.111,-0.01,0.09,1.00,-0.06,-0.06,0.21,
2.112,-0.01,0.09,1.00,-0.05,-0.07,0.15,
2.113,-0.01,0.09,1.00,-0.05,-0.07,0.15,
2.117,-0.00,0.10,1.00,-0.05,-0.07,0.15,
2.117,-0.00,0.10,1.00,-0.02,-0.03,0.15,
2.118,0.00,0.10,1.00,-0.02,-0.03,0.15,
2.121,0.00,0.10,1.00,0.02,-0.00,0.13,
2.122,-0.00,0.10,1.00,0.02,-0.00,0.13,
2.123,-0.00,0.10,1.01,0.02,-0.00,0.13,
2.126,0.00,0.10,1.01,0.02,-0.00,0.13,
2.126,0.00,0.10,1.01,0.06,0.02,0.17,
2.128,-0.00,0.10,1.01,0.06,0.02,0.17,
2.131,-0.00,0.10,1.01,0.05,0.02,0.21,
2.131,-0.00,0.10,1.01,0.05,0.02,0.21,
2.134,-0.01,0.10,1.02,0.05,0.02,0.21,
2.136,-0.01,0.10,1.02,0.05,0.02,0.21,
2.137,-0.01,0.10,1.02,0.04,0.01,0.28,
2.138,-0.01,0.10,1.02,0.04,0.01,0.28,
2.141,-0.01,0.10,1.02,-0.04,0.04,0.36,
2.146,-0.01,0.11,1.02,-0.04,0.04,0.36,
2.146,-0.01,0.10,1.02,-0.04,0.04,0.36,
2.146,-0.02,0.10,1.02,-0.04,0.04,0.36,
2.147,-0.02,0.10,1.02,-0.04,0.04,0.38,
2.157,-0.02,0.11,1.02,-0.04,0.04,0.38,
2.158,-0.02,0.10,1.02,-0.04,0.04,0.38,
2.159,-0.02,0.10,1.02,-0.11,0.04,0.34,
2.159,-0.01,0.11,1.03,-0.11,0.04,0.34,
2.159,-0.01,0.11,1.03,-0.14,0.07,0.36,
2.16,-0.02,0.11,1.02,-0.14,0.07,0.36,
2.161,-0.02,0.11,1.02,-0.14,0.07,0.36,
2.161,-0.02,0.11,1.02,-0.14,0.07,0.36,
2.161,-0.02,0.11,1.02,-0.09,0.09,0.37,
2.163,-0.01,0.11,1.02,-0.09,0.09,0.37,
2.17,-0.01,0.11,1.01,-0.09,0.09,0.37,
2.17,-0.01,0.11,1.01,-0.12,0.08,0.34,
2.171,-0.01,0.11,1.01,-0.12,0.08,0.34,
2.171,-0.00,0.10,1.02,-0.12,0.08,0.34,
2.171,-0.00,0.10,1.02,-0.05,0.10,0.29,
2.173,0.00,0.10,1.01,-0.05,0.10,0.29,
2.176,0.00,0.10,1.01,-0.05,0.10,0.29,
2.176,0.00,0.10,1.01,0.03,0.08,0.29,
2.178,-0.00,0.10,1.01,0.03,0.08,0.29,
2.18,-0.00,0.10,1.01,0.08,0.03,0.24,
2.181,-0.00,0.10,1.01,0.08,0.03,0.24,
2.183,-0.00,0.10,1.01,0.08,0.03,0.24,
2.186,-0.00,0.10,1.00,0.08,0.03,0.24,
2.186,-0.00,0.10,1.00,0.05,0.02,0.24,
2.188,-0.00,0.11,0.96,0.05,0.02,0.24,
2.19,0.01,0.11,0.92,0.05,0.02,0.24,
2.19,0.01,0.11,0.92,0.04,0.00,0.20,
2.193,0.01,0.11,0.90,0.04,0.00,0.20,
2.196,0.00,0.11,0.90,0.04,0.00,0.20,
2.196,0.00,0.11,0.90,0.10,0.07,-0.41,
2.197,-0.00,0.10,0.91,0.10,0.07,-0.41,
2.2,-0.01,0.10,0.93,0.10,0.07,-0.41,
2.201,-0.01,0.10,0.93,0.13,0.05,-0.86,
2.203,-0.03,0.10,0.92,0.13,0.05,-0.86,
2.206,-0.03,0.10,0.92,0.02,-0.01,-0.64,
2.206,-0.03,0.09,0.93,0.02,-0.01,-0.64,
2.207,-0.04,0.09,0.93,0.02,-0.01,-0.64,
2.211,-0.04,0.09,0.93,0.02,-0.01,-0.64,
2.211,-0.04,0.09,0.93,-0.21,-0.07,-0.56,
2.212,-0.04,0.09,0.93,-0.21,-0.07,-0.56,
2.216,-0.03,0.09,0.93,-0.21,-0.07,-0.56,
2.217,-0.03,0.09,0.93,-0.28,-0.09,-0.54,
2.22,-0.03,0.09,0.93,-0.28,-0.09,-0.54,
2.22,-0.03,0.09,0.93,-0.28,-0.09,-0.54,
2.22,-0.03,0.09,0.93,-0.26,-0.10,-0.50,
2.223,-0.03,0.09,0.95,-0.26,-0.10,-0.50,
2.225,-0.02,0.09,0.96,-0.26,-0.10,-0.50,
2.226,-0.02,0.09,0.96,-0.19,-0.13,-0.50,
2.228,-0.02,0.10,0.97,-0.19,-0.13,-0.50,
2.23,-0.02,0.10,0.97,-0.15,-0.08,-0.31,
2.231,-0.02,0.10,0.97,-0.15,-0.08,-0.31,
2.238,-0.02,0.10,0.98,-0.15,-0.08,-0.31,
2.239,-0.02,0.10,0.99,-0.15,-0.08,-0.31,
2.239,-0.02,0.10,0.99,-0.13,0.00,-0.13,
2.239,-0.01,0.11,0.99,-0.13,0.00,-0.13,
2.24,-0.01,0.11,0.99,-0.10,0.03,0.03,
2.24,-0.01,0.11,1.00,-0.10,0.03,0.03,
2.243,-0.01,0.11,1.01,-0.10,0.03,0.03,
2.246,-0.00,0.11,1.01,-0.10,0.03,0.03,
2.246,-0.00,0.11,1.01,-0.02,0.08,0.10,
2.248,-0.01,0.11,1.01,-0.02,0.08,0.10,
2.256,-0.00,0.11,1.01,-0.02,0.08,0.10,
2.256,-0.00,0.11,1.01,0.02,0.07,0.24,
2.256,-0.00,0.11,1.02,0.02,0.07,0.24,
2.256,-0.00,0.11,1.02,0.05,0.07,0.30,
2.257,-0.00,0.11,1.02,0.05,0.07,0.30,
2.257,-0.01,0.11,1.03,0.05,0.07,0.30,
2.26,-0.00,0.10,1.03,0.05,0.07,0.30,
2.26,-0.00,0.10,1.03,0.04,0.10,0.34,
2.262,0.01,0.10,1.03,0.04,0.10,0.34,
2.265,0.01,0.10,1.03,0.04,0.10,0.34,
2.265,0.01,0.10,1.03,0.06,0.07,0.43,
2.272,0.02,0.10,1.03,0.06,0.07,0.43,
2.272,0.03,0.10,1.03,0.06,0.07,0.43,
2.273,0.03,0.10,1.03,0.19,0.01,0.43,
2.273,0.03,0.10,1.02,0.19,0.01,0.43,
2.274,0.03,0.10,1.02,0.32,-0.01,0.42,
2.274,0.03,0.10,1.01,0.32,-0.01,0.42,
2.276,0.03,0.10,1.01,0.32,-0.01,0.42,
2.28,0.03,0.10,1.00,0.32,-0.01,0.42,
2.28,0.03,0.10,1.00,0.36,0.00,0.29,
2.282,0.03,0.10,1.00,0.36,0.00,0.29,
2.295,0.03,0.11,1.00,0.36,0.00,0.29,
2.296,0.03,0.11,1.00,0.39,0.01,0.19,
2.296,0.03,0.11,0.99,0.39,0.01,0.19,
2.296,0.03,0.11,0.98,0.39,0.01,0.19,
2.296,0.03,0.11,0.98,0.36,0.04,0.15,
2.297,0.02,0.11,0.98,0.36,0.04,0.15,
2.297,0.02,0.11,0.97,0.36,0.04,0.15,
2.297,0.02,0.11,0.97,0.33,0.07,0.02,
2.297,0.02,0.11,0.97,0.33,0.07,0.02,
