
time,gFx,gFy,gFz,ax,ay,az,
0.005,-0.01,0.12,0.98,-0.33,-0.47,-0.05,
0.005,-0.01,0.13,0.97,-0.33,-0.47,-0.05,
0.005,-0.01,0.13,0.97,-0.47,-0.39,-0.08,
0.006,-0.01,0.13,0.97,-0.47,-0.39,-0.08,
0.006,-0.02,0.14,0.97,-0.47,-0.39,-0.08,
0.006,-0.02,0.14,0.97,-0.57,-0.29,-0.13,
0.018,-0.02,0.15,0.96,-0.57,-0.29,-0.13,
0.018,-0.02,0.15,0.96,-0.57,-0.29,-0.13,
0.019,-0.02,0.15,0.96,-0.61,-0.17,-0.18,
0.019,-0.02,0.16,0.96,-0.61,-0.17,-0.18,
0.019,-0.02,0.16,0.96,-0.61,-0.17,-0.18,
0.019,-0.02,0.16,0.96,-0.63,-0.03,-0.26,
0.02,-0.03,0.17,0.96,-0.63,-0.03,-0.26,
0.02,-0.02,0.17,0.96,-0.63,-0.03,-0.26,
0.02,-0.02,0.17,0.96,-0.60,0.06,-0.26,
0.03,-0.02,0.17,0.96,-0.60,0.06,-0.26,
0.031,-0.02,0.18,0.97,-0.60,0.06,-0.26,
0.031,-0.02,0.18,0.97,-0.59,0.14,-0.30,
0.031,-0.02,0.18,0.97,-0.59,0.14,-0.30,
0.032,-0.02,0.18,0.97,-0.59,0.14,-0.30,
0.032,-0.02,0.18,0.97,-0.55,0.16,-0.23,
0.032,-0.02,0.19,0.97,-0.55,0.16,-0.23,
0.034,-0.02,0.19,0.98,-0.55,0.16,-0.23,
0.035,-0.02,0.19,0.98,-0.49,0.24,-0.18,
0.037,-0.01,0.19,0.99,-0.49,0.24,-0.18,
0.047,-0.02,0.20,0.98,-0.49,0.24,-0.18,
0.048,-0.02,0.20,0.98,-0.46,0.28,-0.09,
0.048,-0.02,0.20,0.99,-0.46,0.28,-0.09,
0.048,-0.02,0.20,0.99,-0.39,0.31,-0.04,
0.049,-0.02,0.21,0.99,-0.39,0.31,-0.04,
0.049,-0.01,0.21,0.98,-0.39,0.31,-0.04,
0.049,-0.01,0.21,0.98,-0.39,0.31,-0.04,
0.049,-0.01,0.21,0.98,-0.39,0.41,-0.00,
0.052,-0.00,0.20,0.97,-0.39,0.41,-0.00,
0.054,-0.00,0.20,0.97,-0.39,0.41,-0.00,
0.055,-0.00,0.20,0.97,-0.30,0.40,-0.04,
0.064,0.00,0.19,0.96,-0.30,0.40,-0.04,
0.065,0.01,0.19,0.94,-0.30,0.40,-0.04,
0.065,0.01,0.19,0.94,-0.21,0.33,-0.14,
0.065,0.01,0.18,0.94,-0.21,0.33,-0.14,
0.065,0.01,0.18,0.93,-0.21,0.33,-0.14,
0.066,0.01,0.18,0.93,-0.12,0.23,-0.33,
0.066,0.01,0.18,0.92,-0.12,0.23,-0.33,
0.07,-0.00,0.17,0.88,-0.12,0.23,-0.33,
0.07,-0.00,0.17,0.88,-0.10,0.10,-0.50,
0.072,0.01,0.18,0.87,-0.10,0.10,-0.50,
0.08,0.01,0.18,0.91,-0.10,0.10,-0.50,
0.081,0.01,0.18,0.91,-0.13,0.03,-0.85,
0.081,0.01,0.17,0.93,-0.13,0.03,-0.85,
0.081,0.01,0.17,0.94,-0.13,0.03,-0.85,
0.082,0.01,0.17,0.94,-0.07,0.04,-0.89,
0.082,0.02,0.17,0.96,-0.07,0.04,-0.89,
0.084,0.06,0.17,0.97,-0.07,0.04,-0.89,
0.084,0.06,0.17,0.97,-0.04,0.00,-0.48,
0.087,0.13,0.17,0.98,-0.04,0.00,-0.48,
0.089,0.11,0.18,0.99,-0.04,0.00,-0.48,
0.089,0.11,0.18,0.99,0.25,0.00,-0.19,
0.097,0.10,0.19,0.96,0.25,0.00,-0.19,
0.097,0.16,0.23,0.90,0.25,0.00,-0.19,
0.097,0.16,0.23,0.90,1.05,0.03,0.00,
0.098,0.18,0.26,0.86,1.05,0.03,0.00,
0.098,0.15,0.26,0.88,1.05,0.03,0.00,
0.098,0.15,0.26,0.88,1.13,0.39,-0.51,
0.101,0.13,0.27,0.91,1.13,0.39,-0.51,
0.104,0.12,0.28,0.92,1.13,0.39,-0.51,
0.104,0.12,0.28,0.92,1.49,0.86,-1.09,
0.106,0.11,0.28,0.93,1.49,0.86,-1.09,
0.116,0.10,0.29,0.95,1.49,0.86,-1.09,
0.117,0.10,0.29,0.95,1.12,0.99,-0.67,
0.117,0.08,0.29,0.97,1.12,0.99,-0.67,
0.118,0.07,0.28,0.99,1.12,0.99,-0.67,
0.118,0.07,0.28,0.99,0.91,1.07,-0.40,
0.118,0.06,0.28,1.00,0.91,1.07,-0.40,
0.118,0.06,0.28,1.00,0.61,1.07,-0.00,
0.118,0.05,0.28,1.00,0.61,1.07,-0.00,
0.121,0.04,0.27,1.01,0.61,1.07,-0.00,
0.13,0.03,0.27,1.01,0.61,1.07,-0.00,
0.131,0.03,0.27,1.01,0.38,1.00,0.20,
0.131,0.03,0.26,1.01,0.38,1.00,0.20,
0.132,0.03,0.26,1.01,0.23,0.93,0.28,
0.132,0.03,0.26,1.01,0.23,0.93,0.28,
0.132,0.02,0.25,1.01,0.23,0.93,0.28,
0.134,0.01,0.25,1.02,0.23,0.93,0.28,
0.134,0.01,0.25,1.02,0.15,0.81,0.28,
0.136,0.01,0.25,1.02,0.15,0.81,0.28,
0.138,0.01,0.24,1.01,0.15,0.81,0.28,
0.139,0.01,0.24,1.01,0.04,0.70,0.33,
0.147,0.01,0.24,1.01,0.04,0.70,0.33,
0.148,0.01,0.24,1.01,0.04,0.70,0.33,
0.148,0.01,0.24,1.01,-0.02,0.60,0.32,
0.148,0.01,0.24,1.01,-0.02,0.60,0.32,
0.149,0.01,0.23,1.01,-0.02,0.60,0.32,
0.149,0.01,0.23,1.01,-0.01,0.55,0.30,
0.151,0.01,0.23,1.01,-0.01,0.55,0.30,
0.153,0.01,0.23,1.01,-0.06,0.49,0.29,
0.154,0.00,0.23,1.00,-0.06,0.49,0.29,
0.156,-0.00,0.22,1.00,-0.06,0.49,0.29,
0.164,0.00,0.22,0.99,-0.06,0.49,0.29,
0.165,0.00,0.22,0.99,-0.07,0.43,0.25,
0.165,-0.01,0.22,0.99,-0.07,0.43,0.25,
0.167,-0.01,0.22,0.98,-0.07,0.43,0.25,
0.168,-0.01,0.22,0.98,-0.10,0.37,0.13,
0.168,-0.01,0.22,0.99,-0.10,0.37,0.13,
0.168,-0.01,0.22,0.99,-0.10,0.37,0.13,
0.169,-0.01,0.22,0.99,-0.14,0.34,0.06,
0.173,-0.01,0.21,0.98,-0.14,0.34,0.06,
0.173,-0.02,0.21,0.98,-0.14,0.34,0.06,
0.179,-0.02,0.21,0.98,-0.19,0.30,0.05,
0.179,-0.02,0.20,0.98,-0.19,0.30,0.05,
0.18,-0.02,0.20,0.98,-0.19,0.30,0.05,
0.18,-0.02,0.20,0.98,-0.21,0.26,-0.01,
0.18,-0.02,0.20,0.98,-0.21,0.26,-0.01,
0.183,-0.03,0.20,0.98,-0.21,0.26,-0.01,
0.183,-0.03,0.20,0.98,-0.27,0.16,-0.01,
0.186,-0.03,0.19,0.98,-0.27,0.16,-0.01,
0.188,-0.04,0.19,0.99,-0.27,0.16,-0.01,
0.188,-0.04,0.19,0.99,-0.27,0.10,-0.06,
0.195,-0.04,0.19,0.99,-0.27,0.10,-0.06,
0.196,-0.04,0.19,1.00,-0.27,0.10,-0.06,
0.197,-0.04,0.19,1.00,-0.35,0.05,0.04,
0.197,-0.05,0.18,1.01,-0.35,0.05,0.04,
0.197,-0.05,0.18,1.02,-0.35,0.05,0.04,
0.198,-0.05,0.18,1.02,-0.39,-0.01,0.16,
0.201,-0.06,0.18,1.03,-0.39,-0.01,0.16,
0.204,-0.06,0.18,1.03,-0.45,-0.07,0.30,
0.204,-0.07,0.18,1.04,-0.45,-0.07,0.30,
0.206,-0.07,0.19,1.04,-0.45,-0.07,0.30,
0.211,-0.07,0.19,1.05,-0.45,-0.07,0.30,
0.212,-0.07,0.19,1.05,-0.54,-0.03,0.47,
0.212,-0.07,0.19,1.06,-0.54,-0.03,0.47,
0.212,-0.08,0.19,1.07,-0.54,-0.03,0.47,
0.213,-0.08,0.19,1.07,-0.58,0.01,0.64,
0.215,-0.08,0.20,1.08,-0.58,0.01,0.64,
0.217,-0.09,0.20,1.08,-0.58,0.01,0.64,
0.217,-0.09,0.20,1.08,-0.64,0.09,0.79,
0.22,-0.09,0.20,1.09,-0.64,0.09,0.79,
0.223,-0.10,0.20,1.10,-0.64,0.09,0.79,
0.223,-0.10,0.20,1.10,-0.69,0.12,0.96,
0.23,-0.10,0.20,1.10,-0.69,0.12,0.96,
0.231,-0.10,0.21,1.10,-0.69,0.12,0.96,
0.231,-0.10,0.21,1.10,-0.79,0.16,1.07,
0.231,-0.11,0.20,1.10,-0.79,0.16,1.07,
0.232,-0.11,0.20,1.10,-0.79,0.16,1.07,
0.232,-0.11,0.20,1.10,-0.84,0.19,1.10,
0.235,-0.12,0.20,1.10,-0.84,0.19,1.10,
0.237,-0.12,0.21,1.10,-0.84,0.19,1.10,
0.237,-0.12,0.21,1.10,-0.88,0.19,1.14,
0.247,-0.13,0.20,1.11,-0.88,0.19,1.14,
0.247,-0.13,0.20,1.11,-0.96,0.19,1.13,
0.247,-0.14,0.19,1.11,-0.96,0.19,1.13,
0.248,-0.14,0.19,1.11,-0.96,0.19,1.13,
0.248,-0.15,0.19,1.10,-0.96,0.19,1.13,
0.248,-0.15,0.19,1.10,-1.07,0.10,1.16,
0.25,-0.16,0.19,1.10,-1.07,0.10,1.16,
0.252,-0.15,0.19,1.10,-1.07,0.10,1.16,
0.252,-0.15,0.19,1.10,-1.16,0.09,1.12,
0.255,-0.16,0.18,1.10,-1.16,0.09,1.12,
0.257,-0.17,0.18,1.10,-1.16,0.09,1.12,
0.266,-0.17,0.18,1.10,-1.25,0.00,1.12,
0.266,-0.16,0.17,1.10,-1.25,0.00,1.12,
0.266,-0.16,0.17,1.10,-1.25,0.00,1.12,
0.267,-0.16,0.17,1.10,-1.30,-0.09,1.11,
0.267,-0.17,0.17,1.10,-1.30,-0.09,1.11,
0.267,-0.16,0.16,1.10,-1.30,-0.09,1.11,
0.267,-0.16,0.16,1.10,-1.28,-0.18,1.08,
0.27,-0.16,0.16,1.10,-1.28,-0.18,1.08,
0.272,-0.16,0.16,1.10,-1.28,-0.18,1.08,
0.272,-0.16,0.16,1.10,-1.28,-0.22,1.05,
0.28,-0.17,0.15,1.11,-1.28,-0.22,1.05,
0.28,-0.16,0.15,1.09,-1.28,-0.22,1.05,
0.28,-0.16,0.15,1.09,-1.23,-0.29,1.04,
0.281,-0.16,0.15,1.09,-1.23,-0.29,1.04,
0.282,-0.16,0.15,1.09,-1.23,-0.29,1.04,
0.282,-0.16,0.15,1.09,-1.25,-0.37,1.06,
0.284,-0.16,0.16,1.08,-1.25,-0.37,1.06,
0.287,-0.16,0.16,1.08,-1.25,-0.37,1.06,
0.287,-0.16,0.16,1.08,-1.20,-0.38,0.96,
0.29,-0.17,0.17,1.08,-1.20,-0.38,0.96,
0.297,-0.16,0.17,1.07,-1.20,-0.38,0.96,
0.298,-0.16,0.17,1.07,-1.17,-0.33,0.90,
0.298,-0.16,0.18,1.07,-1.17,-0.33,0.90,
0.298,-0.17,0.19,1.07,-1.17,-0.33,0.90,
0.298,-0.17,0.19,1.07,-1.17,-0.26,0.81,
0.299,-0.16,0.19,1.06,-1.17,-0.26,0.81,
0.302,-0.16,0.19,1.06,-1.16,-0.13,0.75,
0.302,-0.16,0.20,1.06,-1.16,-0.13,0.75,
0.304,-0.17,0.20,1.05,-1.16,-0.13,0.75,
0.307,-0.17,0.21,1.05,-1.16,-0.13,0.75,
0.307,-0.17,0.21,1.05,-1.15,-0.03,0.63,
0.313,-0.17,0.21,1.04,-1.15,-0.03,0.63,
0.314,-0.17,0.22,1.03,-1.15,-0.03,0.63,
0.314,-0.17,0.22,1.03,-1.19,0.08,0.55,
0.314,-0.17,0.22,1.03,-1.19,0.08,0.55,
0.317,-0.17,0.22,1.02,-1.19,0.08,0.55,
0.317,-0.17,0.22,1.02,-1.19,0.15,0.43,
0.319,-0.18,0.23,1.01,-1.19,0.15,0.43,
0.322,-0.18,0.22,1.00,-1.19,0.15,0.43,
0.322,-0.18,0.22,1.00,-1.19,0.18,0.31,
0.328,-0.18,0.22,0.99,-1.19,0.18,0.31,
0.329,-0.19,0.22,0.99,-1.19,0.18,0.31,
0.331,-0.19,0.22,0.99,-1.20,0.20,0.12,
0.332,-0.19,0.22,0.98,-1.20,0.20,0.12,
0.332,-0.20,0.21,0.97,-1.20,0.20,0.12,
0.332,-0.20,0.21,0.97,-1.23,0.14,0.00,
0.334,-0.21,0.21,0.97,-1.23,0.14,0.00,
0.337,-0.22,0.20,0.96,-1.23,0.14,0.00,
0.337,-0.22,0.20,0.96,-1.36,0.08,-0.15,
0.339,-0.23,0.20,0.95,-1.36,0.08,-0.15,
0.349,-0.24,0.20,0.93,-1.36,0.08,-0.15,
0.35,-0.24,0.20,0.93,-1.49,-0.02,-0.27,
0.35,-0.25,0.19,0.93,-1.49,-0.02,-0.27,
0.35,-0.27,0.19,0.92,-1.49,-0.02,-0.27,
0.351,-0.27,0.19,0.92,-1.67,-0.12,-0.48,
0.351,-0.27,0.18,0.92,-1.67,-0.12,-0.48,
0.351,-0.29,0.18,0.92,-1.67,-0.12,-0.48,
0.351,-0.29,0.18,0.92,-1.86,-0.20,-0.59,
0.353,-0.30,0.17,0.91,-1.86,-0.20,-0.59,
0.355,-0.30,0.16,0.91,-1.86,-0.20,-0.59,
0.356,-0.30,0.16,0.91,-2.03,-0.29,-0.67,
0.365,-0.31,0.16,0.91,-2.03,-0.29,-0.67,
0.366,-0.32,0.15,0.92,-2.03,-0.29,-0.67,
0.366,-0.32,0.15,0.92,-2.22,-0.43,-0.73,
0.367,-0.32,0.15,0.91,-2.22,-0.43,-0.73,
0.367,-0.31,0.15,0.91,-2.22,-0.43,-0.73,
0.367,-0.31,0.15,0.91,-2.31,-0.58,-0.70,
0.368,-0.31,0.14,0.91,-2.31,-0.58,-0.70,
0.37,-0.31,0.14,0.92,-2.31,-0.58,-0.70,
0.371,-0.31,0.14,0.92,-2.32,-0.63,-0.76,
0.373,-0.31,0.14,0.92,-2.32,-0.63,-0.76,
0.382,-0.31,0.14,0.92,-2.32,-0.63,-0.76,
0.383,-0.31,0.14,0.92,-2.27,-0.72,-0.69,
0.383,-0.30,0.13,0.92,-2.27,-0.72,-0.69,
0.383,-0.30,0.13,0.93,-2.27,-0.72,-0.69,
0.384,-0.30,0.13,0.93,-2.21,-0.78,-0.62,
0.384,-0.29,0.13,0.93,-2.21,-0.78,-0.62,
0.385,-0.29,0.13,0.93,-2.21,-0.78,-0.62,
0.385,-0.29,0.13,0.93,-2.12,-0.83,-0.59,
0.388,-0.29,0.13,0.94,-2.12,-0.83,-0.59,
0.397,-0.28,0.13,0.93,-2.12,-0.83,-0.59,
0.397,-0.28,0.13,0.93,-2.04,-0.87,-0.50,
0.397,-0.28,0.13,0.93,-2.04,-0.87,-0.50,
0.398,-0.28,0.13,0.94,-2.04,-0.87,-0.50,
0.398,-0.28,0.13,0.94,-1.98,-0.91,-0.49,
0.398,-0.28,0.12,0.94,-1.98,-0.91,-0.49,
0.401,-0.28,0.13,0.94,-1.98,-0.91,-0.49,
0.401,-0.28,0.13,0.94,-1.95,-0.92,-0.46,
0.403,-0.28,0.13,0.94,-1.95,-0.92,-0.46,
0.405,-0.28,0.13,0.93,-1.95,-0.92,-0.46,
0.405,-0.28,0.13,0.93,-1.96,-0.93,-0.44,
0.413,-0.28,0.13,0.92,-1.96,-0.93,-0.44,
0.413,-0.29,0.13,0.93,-1.96,-0.93,-0.44,
0.413,-0.29,0.13,0.93,-1.96,-0.93,-0.47,
0.414,-0.29,0.12,0.92,-1.96,-0.93,-0.47,
0.415,-0.29,0.12,0.91,-1.96,-0.93,-0.47,
0.415,-0.29,0.12,0.91,-1.98,-0.93,-0.53,
0.418,-0.30,0.12,0.90,-1.98,-0.93,-0.53,
0.421,-0.30,0.12,0.89,-1.98,-0.93,-0.53,
0.421,-0.30,0.12,0.89,-2.05,-1.02,-0.65,
0.422,-0.31,0.11,0.88,-2.05,-1.02,-0.65,
0.433,-0.32,0.11,0.87,-2.05,-1.02,-0.65,
0.433,-0.32,0.11,0.87,-2.12,-1.09,-0.82,
0.433,-0.32,0.11,0.85,-2.12,-1.09,-0.82,
0.434,-0.32,0.10,0.84,-2.12,-1.09,-0.82,
0.434,-0.32,0.10,0.84,-2.22,-1.14,-1.03,
0.434,-0.33,0.10,0.82,-2.22,-1.14,-1.03,
0.435,-0.33,0.09,0.82,-2.22,-1.14,-1.03,
0.435,-0.33,0.09,0.82,-2.27,-1.21,-1.31,
0.437,-0.34,0.09,0.81,-2.27,-1.21,-1.31,
0.44,-0.34,0.08,0.79,-2.27,-1.21,-1.31,
0.44,-0.34,0.08,0.79,-2.35,-1.30,-1.52,
0.451,-0.34,0.08,0.79,-2.35,-1.30,-1.52,
0.452,-0.34,0.08,0.78,-2.35,-1.30,-1.52,
0.452,-0.34,0.08,0.78,-2.42,-1.41,-1.71,
0.452,-0.34,0.07,0.77,-2.42,-1.41,-1.71,
0.453,-0.34,0.07,0.77,-2.45,-1.50,-1.84,
0.453,-0.34,0.07,0.76,-2.45,-1.50,-1.84,
0.453,-0.34,0.06,0.75,-2.45,-1.50,-1.84,
0.454,-0.33,0.06,0.75,-2.45,-1.50,-1.84,
0.455,-0.33,0.06,0.75,-2.42,-1.60,-2.04,
0.465,-0.32,0.05,0.74,-2.42,-1.60,-2.04,
0.466,-0.32,0.04,0.73,-2.42,-1.60,-2.04,
0.466,-0.32,0.04,0.73,-2.36,-1.69,-2.17,
0.467,-0.31,0.04,0.73,-2.36,-1.69,-2.17,
0.467,-0.29,0.04,0.73,-2.36,-1.69,-2.17,
0.467,-0.29,0.04,0.73,-2.21,-1.82,-2.25,
0.467,-0.28,0.03,0.73,-2.21,-1.82,-2.25,
0.469,-0.27,0.03,0.73,-2.21,-1.82,-2.25,
0.47,-0.27,0.03,0.73,-2.00,-1.88,-2.35,
0.473,-0.26,0.03,0.73,-2.00,-1.88,-2.35,
0.483,-0.25,0.03,0.73,-2.00,-1.88,-2.35,
0.484,-0.25,0.03,0.73,-1.76,-1.94,-2.33,
0.484,-0.24,0.03,0.74,-1.76,-1.94,-2.33,
0.484,-0.22,0.03,0.75,-1.76,-1.94,-2.33,
0.484,-0.22,0.03,0.75,-1.58,-1.94,-2.32,
0.485,-0.22,0.04,0.76,-1.58,-1.94,-2.32,
0.485,-0.21,0.04,0.77,-1.58,-1.94,-2.32,
0.485,-0.21,0.04,0.77,-1.38,-1.91,-2.14,
0.488,-0.19,0.05,0.79,-1.38,-1.91,-2.14,
0.489,-0.18,0.05,0.80,-1.38,-1.91,-2.14,
0.489,-0.18,0.05,0.80,-1.21,-1.82,-1.92,
0.492,-0.17,0.06,0.81,-1.21,-1.82,-1.92,
0.498,-0.16,0.06,0.82,-1.21,-1.82,-1.92,
0.498,-0.16,0.06,0.82,-0.99,-1.73,-1.68,
0.499,-0.16,0.07,0.84,-0.99,-1.73,-1.68,
0.499,-0.16,0.07,0.86,-0.99,-1.73,-1.68,
0.5,-0.16,0.07,0.86,-0.83,-1.62,-1.44,
0.502,-0.14,0.07,0.86,-0.83,-1.62,-1.44,
0.505,-0.14,0.07,0.86,-0.83,-1.62,-1.44,
0.505,-0.14,0.07,0.86,-0.74,-1.56,-1.13,
0.507,-0.14,0.07,0.87,-0.74,-1.56,-1.13,
0.517,-0.13,0.07,0.87,-0.74,-1.56,-1.13,
0.517,-0.13,0.07,0.87,-0.64,-1.54,-0.99,
0.518,-0.13,0.08,0.86,-0.64,-1.54,-0.99,
0.518,-0.13,0.08,0.86,-0.64,-1.54,-0.99,
0.518,-0.13,0.08,0.86,-0.56,-1.51,-0.90,
0.519,-0.13,0.08,0.86,-0.56,-1.51,-0.90,
0.519,-0.13,0.07,0.85,-0.56,-1.51,-0.90,
0.519,-0.13,0.07,0.85,-0.53,-1.46,-0.95,
0.522,-0.13,0.07,0.83,-0.53,-1.46,-0.95,
0.53,-0.12,0.07,0.81,-0.53,-1.46,-0.95,
0.53,-0.12,0.07,0.81,-0.50,-1.46,-1.05,
0.53,-0.12,0.07,0.79,-0.50,-1.46,-1.05,
0.53,-0.12,0.06,0.78,-0.50,-1.46,-1.05,
0.531,-0.12,0.06,0.78,-0.45,-1.51,-1.37,
0.532,-0.12,0.06,0.75,-0.45,-1.51,-1.37,
0.535,-0.12,0.06,0.73,-0.45,-1.51,-1.37,
0.535,-0.12,0.06,0.73,-0.40,-1.59,-1.71,
0.537,-0.12,0.05,0.70,-0.40,-1.59,-1.71,
0.539,-0.12,0.06,0.68,-0.40,-1.59,-1.71,
0.54,-0.12,0.06,0.68,-0.37,-1.65,-2.12,
0.541,-0.12,0.06,0.66,-0.37,-1.65,-2.12,
0.547,-0.13,0.06,0.64,-0.37,-1.65,-2.12,
0.547,-0.13,0.06,0.64,-0.38,-1.65,-2.58,
0.548,-0.13,0.06,0.63,-0.38,-1.65,-2.58,
0.55,-0.13,0.07,0.62,-0.38,-1.65,-2.58,
0.55,-0.13,0.07,0.62,-0.41,-1.60,-2.97,
0.552,-0.13,0.07,0.61,-0.41,-1.60,-2.97,
0.554,-0.13,0.07,0.60,-0.41,-1.60,-2.97,
0.555,-0.13,0.07,0.60,-0.44,-1.54,-3.22,
0.557,-0.13,0.07,0.60,-0.44,-1.54,-3.22,
0.568,-0.12,0.07,0.60,-0.44,-1.54,-3.22,
0.569,-0.12,0.07,0.60,-0.47,-1.49,-3.39,
0.569,-0.12,0.07,0.61,-0.47,-1.49,-3.39,
0.57,-0.11,0.07,0.62,-0.47,-1.49,-3.39,
0.57,-0.11,0.07,0.62,-0.44,-1.48,-3.41,
0.57,-0.11,0.06,0.63,-0.44,-1.48,-3.41,
0.57,-0.10,0.06,0.65,-0.44,-1.48,-3.41,
0.571,-0.10,0.06,0.65,-0.39,-1.47,-3.25,
0.571,-0.10,0.06,0.66,-0.39,-1.47,-3.25,
0.575,-0.09,0.05,0.68,-0.39,-1.47,-3.25,
0.575,-0.09,0.05,0.68,-0.30,-1.53,-3.03,
0.582,-0.08,0.04,0.70,-0.30,-1.53,-3.03,
0.583,-0.08,0.04,0.72,-0.30,-1.53,-3.03,
0.583,-0.08,0.04,0.72,-0.20,-1.60,-2.69,
0.583,-0.06,0.04,0.74,-0.20,-1.60,-2.69,
0.583,-0.06,0.03,0.76,-0.20,-1.60,-2.69,
0.583,-0.06,0.03,0.76,-0.11,-1.69,-2.32,
0.587,-0.04,0.03,0.78,-0.11,-1.69,-2.32,
0.589,-0.03,0.04,0.80,-0.11,-1.69,-2.32,
0.589,-0.03,0.04,0.80,0.03,-1.72,-1.95,
0.591,-0.03,0.04,0.82,0.03,-1.72,-1.95,
0.6,-0.02,0.03,0.84,0.03,-1.72,-1.95,
0.6,-0.02,0.03,0.84,0.19,-1.71,-1.54,
0.6,-0.01,0.04,0.86,0.19,-1.71,-1.54,
0.601,-0.00,0.03,0.88,0.19,-1.71,-1.54,
0.601,-0.00,0.03,0.88,0.32,-1.67,-1.11,
0.601,0.01,0.03,0.89,0.32,-1.67,-1.11,
0.604,0.01,0.03,0.89,0.47,-1.64,-0.75,
0.604,0.01,0.04,0.91,0.47,-1.64,-0.75,
0.606,0.02,0.03,0.92,0.47,-1.64,-0.75,
0.616,0.02,0.03,0.93,0.47,-1.64,-0.75,
0.616,0.02,0.03,0.93,0.57,-1.61,-0.47,
0.617,0.02,0.03,0.94,0.57,-1.61,-0.47,
0.617,0.02,0.02,0.94,0.57,-1.61,-0.47,
0.617,0.02,0.02,0.94,0.66,-1.62,-0.23,
0.617,0.02,0.02,0.94,0.66,-1.62,-0.23,
0.619,0.02,0.02,0.94,0.66,-1.62,-0.23,
0.619,0.02,0.02,0.94,0.68,-1.65,-0.11,
0.621,0.02,0.01,0.93,0.68,-1.65,-0.11,
0.623,0.03,-0.00,0.92,0.68,-1.65,-0.11,
0.623,0.03,-0.00,0.92,0.70,-1.70,-0.11,
0.63,0.03,-0.00,0.91,0.70,-1.70,-0.11,
0.631,0.03,-0.01,0.90,0.70,-1.70,-0.11,
0.631,0.03,-0.01,0.90,0.73,-1.82,-0.23,
0.631,0.03,-0.02,0.89,0.73,-1.82,-0.23,
0.633,0.03,-0.02,0.88,0.73,-1.82,-0.23,
0.633,0.03,-0.02,0.88,0.75,-1.89,-0.42,
0.635,0.03,-0.03,0.86,0.75,-1.89,-0.42,
0.639,0.04,-0.03,0.85,0.75,-1.89,-0.42,
0.639,0.04,-0.03,0.85,0.79,-1.98,-0.67,
0.64,0.04,-0.04,0.83,0.79,-1.98,-0.67,
0.652,0.05,-0.04,0.82,0.79,-1.98,-0.67,
0.653,0.05,-0.04,0.82,0.85,-2.04,-0.92,
0.653,0.06,-0.04,0.81,0.85,-2.04,-0.92,
0.654,0.06,-0.04,0.80,0.85,-2.04,-0.92,
0.654,0.06,-0.04,0.80,0.98,-2.11,-1.18,
0.654,0.07,-0.04,0.80,0.98,-2.11,-1.18,
0.654,0.07,-0.04,0.79,0.98,-2.11,-1.18,
0.654,0.07,-0.04,0.79,1.12,-2.12,-1.41,
0.655,0.08,-0.04,0.78,1.12,-2.12,-1.41,
0.657,0.10,-0.03,0.78,1.12,-2.12,-1.41,
0.658,0.10,-0.03,0.78,1.23,-2.14,-1.52,
0.67,0.10,-0.02,0.77,1.23,-2.14,-1.52,
0.671,0.11,-0.01,0.77,1.23,-2.14,-1.52,
0.672,0.11,-0.01,0.77,1.39,-2.03,-1.67,
0.672,0.12,-0.00,0.77,1.39,-2.03,-1.67,
0.672,0.13,0.01,0.77,1.39,-2.03,-1.67,
0.673,0.13,0.01,0.77,1.53,-1.85,-1.76,
0.673,0.14,0.02,0.77,1.53,-1.85,-1.76,
0.673,0.16,0.03,0.77,1.53,-1.85,-1.76,
0.673,0.16,0.03,0.77,1.71,-1.61,-1.77,
0.685,0.17,0.04,0.77,1.71,-1.61,-1.77,
0.686,0.18,0.05,0.78,1.71,-1.61,-1.77,
0.686,0.18,0.05,0.78,1.90,-1.39,-1.74,
0.686,0.20,0.05,0.78,1.90,-1.39,-1.74,
0.686,0.21,0.05,0.80,1.90,-1.39,-1.74,
0.687,0.21,0.05,0.80,2.12,-1.23,-1.66,
0.687,0.22,0.06,0.81,2.12,-1.23,-1.66,
0.687,0.23,0.07,0.80,2.12,-1.23,-1.66,
0.688,0.23,0.07,0.80,2.31,-1.11,-1.52,
0.691,0.24,0.07,0.81,2.31,-1.11,-1.52,
0.701,0.24,0.06,0.82,2.31,-1.11,-1.52,
0.701,0.24,0.06,0.82,2.48,-1.00,-1.38,
0.701,0.25,0.07,0.83,2.48,-1.00,-1.38,
0.702,0.26,0.07,0.82,2.48,-1.00,-1.38,
0.702,0.26,0.07,0.82,2.59,-0.96,-1.27,
0.702,0.26,0.06,0.82,2.59,-0.96,-1.27,
0.703,0.26,0.06,0.81,2.59,-0.96,-1.27,
0.703,0.26,0.06,0.81,2.70,-0.93,-1.16,
0.705,0.26,0.06,0.81,2.70,-0.93,-1.16,
0.707,0.26,0.06,0.81,2.70,-0.93,-1.16,
0.707,0.26,0.06,0.81,2.75,-0.95,-1.26,
0.716,0.25,0.05,0.81,2.75,-0.95,-1.26,
0.716,0.25,0.05,0.81,2.75,-0.95,-1.26,
0.716,0.25,0.05,0.81,2.70,-0.98,-1.31,
0.717,0.25,0.04,0.81,2.70,-0.98,-1.31,
0.717,0.24,0.03,0.81,2.70,-0.98,-1.31,
0.717,0.24,0.03,0.81,2.58,-1.05,-1.33,
0.719,0.24,0.03,0.81,2.58,-1.05,-1.33,
0.722,0.23,0.01,0.82,2.58,-1.05,-1.33,
0.723,0.23,0.01,0.82,2.50,-1.20,-1.32,
0.724,0.23,0.01,0.82,2.50,-1.20,-1.32,
0.73,0.23,-0.01,0.83,2.50,-1.20,-1.32,
0.731,0.23,-0.01,0.83,2.40,-1.31,-1.29,
0.731,0.22,-0.01,0.83,2.40,-1.31,-1.29,
0.732,0.22,-0.02,0.83,2.40,-1.31,-1.29,
0.732,0.22,-0.02,0.83,2.30,-1.46,-1.18,
0.735,0.22,-0.02,0.84,2.30,-1.46,-1.18,
0.737,0.21,-0.02,0.85,2.30,-1.46,-1.18,
0.737,0.21,-0.02,0.85,2.21,-1.58,-1.07,
0.739,0.21,-0.02,0.86,2.21,-1.58,-1.07,
0.742,0.20,-0.03,0.86,2.21,-1.58,-1.07,
0.742,0.20,-0.03,0.86,2.15,-1.61,-0.97,
0.748,0.20,-0.03,0.87,2.15,-1.61,-0.97,
0.748,0.20,-0.03,0.88,2.15,-1.61,-0.97,
0.749,0.20,-0.03,0.88,2.04,-1.60,-0.83,
0.749,0.21,-0.03,0.88,2.04,-1.60,-0.83,
0.752,0.22,-0.03,0.90,2.04,-1.60,-0.83,
0.752,0.22,-0.03,0.90,2.01,-1.58,-0.69,
0.754,0.24,-0.03,0.91,2.01,-1.58,-0.69,
0.756,0.25,-0.02,0.92,2.01,-1.58,-0.69,
0.757,0.25,-0.02,0.92,2.15,-1.54,-0.53,
0.765,0.27,-0.02,0.93,2.15,-1.54,-0.53,
0.765,0.29,-0.01,0.94,2.15,-1.54,-0.53,
0.766,0.29,-0.01,0.94,2.38,-1.46,-0.29,
0.766,0.30,-0.00,0.96,2.38,-1.46,-0.29,
0.767,0.32,0.00,0.96,2.38,-1.46,-0.29,
0.767,0.32,0.00,0.96,2.68,-1.32,-0.08,
0.769,0.34,0.01,0.97,2.68,-1.32,-0.08,
0.771,0.35,0.01,0.98,2.68,-1.32,-0.08,
0.772,0.35,0.01,0.98,2.99,-1.16,0.14,
0.774,0.36,0.03,0.99,2.99,-1.16,0.14,
0.787,0.38,0.03,0.99,2.99,-1.16,0.14,
0.788,0.38,0.03,0.99,3.28,-1.02,0.31,
0.788,0.39,0.04,0.99,3.28,-1.02,0.31,
0.789,0.40,0.05,0.99,3.28,-1.02,0.31,
0.789,0.40,0.05,0.99,3.52,-0.82,0.43,
0.789,0.40,0.05,0.99,3.52,-0.82,0.43,
0.789,0.40,0.06,0.97,3.52,-0.82,0.43,
0.789,0.40,0.06,0.97,3.72,-0.67,0.41,
0.79,0.40,0.06,0.97,3.72,-0.67,0.41,
0.791,0.40,0.07,0.96,3.72,-0.67,0.41,
0.791,0.40,0.07,0.96,3.79,-0.49,0.32,
0.8,0.40,0.08,0.94,3.79,-0.49,0.32,
0.801,0.40,0.08,0.94,3.78,-0.34,0.13,
0.801,0.40,0.08,0.93,3.78,-0.34,0.13,
0.801,0.39,0.09,0.91,3.78,-0.34,0.13,
0.802,0.39,0.09,0.90,3.78,-0.34,0.13,
0.802,0.39,0.09,0.90,3.72,-0.19,-0.14,
0.803,0.39,0.10,0.89,3.72,-0.19,-0.14,
0.806,0.38,0.11,0.88,3.72,-0.19,-0.14,
0.806,0.38,0.11,0.88,3.64,-0.07,-0.39,
0.809,0.38,0.10,0.86,3.64,-0.07,-0.39,
0.818,0.38,0.11,0.86,3.64,-0.07,-0.39,
0.819,0.38,0.11,0.86,3.57,0.04,-0.63,
0.819,0.38,0.11,0.86,3.57,0.04,-0.63,
0.819,0.38,0.11,0.85,3.57,0.04,-0.63,
0.819,0.38,0.11,0.85,3.53,0.11,-0.84,
0.82,0.38,0.11,0.85,3.53,0.11,-0.84,
0.821,0.38,0.11,0.85,3.47,0.15,-0.90,
0.824,0.38,0.10,0.86,3.47,0.15,-0.90,
0.824,0.39,0.10,0.87,3.47,0.15,-0.90,
0.832,0.40,0.09,0.88,3.47,0.15,-0.90,
0.833,0.40,0.09,0.88,3.49,0.15,-0.89,
0.833,0.40,0.08,0.90,3.49,0.15,-0.89,
0.833,0.41,0.08,0.92,3.49,0.15,-0.89,
0.833,0.41,0.08,0.92,3.56,0.06,-0.69,
0.833,0.42,0.07,0.94,3.56,0.06,-0.69,
0.836,0.43,0.05,0.96,3.56,0.06,-0.69,
0.836,0.43,0.05,0.96,3.67,-0.05,-0.34,
0.839,0.43,0.06,0.98,3.67,-0.05,-0.34,
0.841,0.44,0.05,0.99,3.67,-0.05,-0.34,
0.841,0.44,0.05,0.99,3.79,-0.17,0.02,
0.848,0.44,0.04,1.00,3.79,-0.17,0.02,
0.848,0.44,0.04,1.01,3.79,-0.17,0.02,
0.848,0.44,0.04,1.01,3.89,-0.24,0.36,
0.849,0.44,0.04,1.02,3.89,-0.24,0.36,
0.851,0.44,0.03,1.03,3.89,-0.24,0.36,
0.851,0.44,0.03,1.03,3.93,-0.28,0.57,
0.855,0.43,0.03,1.04,3.93,-0.28,0.57,
0.856,0.43,0.03,1.04,3.93,-0.28,0.57,
0.856,0.43,0.03,1.04,3.92,-0.30,0.75,
0.858,0.42,0.02,1.04,3.92,-0.30,0.75,
0.864,0.41,0.03,1.05,3.92,-0.30,0.75,
0.865,0.41,0.03,1.05,3.80,-0.36,0.89,
0.865,0.40,0.03,1.04,3.80,-0.36,0.89,
0.866,0.39,0.03,1.04,3.80,-0.36,0.89,
0.866,0.39,0.03,1.04,3.67,-0.35,0.92,
0.869,0.38,0.03,1.04,3.67,-0.35,0.92,
0.871,0.37,0.03,1.03,3.67,-0.35,0.92,
0.871,0.37,0.03,1.03,3.47,-0.24,0.89,
0.874,0.37,0.04,1.03,3.47,-0.24,0.89,
0.876,0.36,0.04,1.02,3.47,-0.24,0.89,
0.876,0.36,0.04,1.02,3.28,-0.20,0.81,
0.881,0.36,0.04,1.01,3.28,-0.20,0.81,
0.881,0.35,0.04,1.00,3.28,-0.20,0.81,
0.881,0.35,0.04,1.00,3.15,-0.12,0.71,
0.883,0.34,0.04,1.00,3.15,-0.12,0.71,
0.886,0.34,0.04,1.00,3.15,-0.12,0.71,
0.886,0.34,0.04,1.00,3.08,-0.05,0.52,
0.888,0.33,0.04,1.00,3.08,-0.05,0.52,
0.891,0.33,0.04,1.00,3.08,-0.05,0.52,
0.891,0.33,0.04,1.00,2.97,0.00,0.46,
0.906,0.33,0.04,1.00,2.97,0.00,0.46,
0.907,0.33,0.04,1.00,2.87,0.03,0.43,
0.907,0.32,0.03,1.00,2.87,0.03,0.43,
0.907,0.33,0.03,1.00,2.87,0.03,0.43,
0.907,0.33,0.03,1.01,2.87,0.03,0.43,
0.908,0.33,0.03,1.01,2.81,0.03,0.42,
0.908,0.34,0.02,1.02,2.81,0.03,0.42,
0.908,0.35,0.02,1.03,2.81,0.03,0.42,
0.908,0.35,0.02,1.03,2.85,-0.02,0.51,
0.909,0.36,0.01,1.05,2.85,-0.02,0.51,
0.918,0.37,-0.00,1.07,2.85,-0.02,0.51,
0.918,0.37,-0.00,1.07,3.00,-0.05,0.71,
0.919,0.39,-0.00,1.08,3.00,-0.05,0.71,
0.919,0.40,-0.01,1.10,3.00,-0.05,0.71,
0.919,0.40,-0.01,1.10,3.18,-0.20,0.99,
0.919,0.41,-0.02,1.11,3.18,-0.20,0.99,
0.921,0.42,-0.02,1.13,3.18,-0.20,0.99,
0.921,0.42,-0.02,1.13,3.43,-0.26,1.35,
0.923,0.44,-0.03,1.15,3.43,-0.26,1.35,
0.926,0.45,-0.03,1.16,3.43,-0.26,1.35,
0.926,0.45,-0.03,1.16,3.67,-0.35,1.63,
0.937,0.46,-0.03,1.17,3.67,-0.35,1.63,
0.937,0.47,-0.04,1.18,3.67,-0.35,1.63,
0.938,0.47,-0.04,1.18,3.92,-0.45,1.91,
0.938,0.48,-0.03,1.19,3.92,-0.45,1.91,
0.938,0.48,-0.03,1.19,3.92,-0.45,1.91,
0.938,0.48,-0.03,1.19,4.12,-0.44,2.13,
0.938,0.49,-0.02,1.19,4.12,-0.44,2.13,
0.941,0.48,-0.02,1.20,4.12,-0.44,2.13,
0.941,0.48,-0.02,1.20,4.21,-0.34,2.27,
0.943,0.48,-0.01,1.20,4.21,-0.34,2.27,
0.95,0.48,-0.01,1.19,4.21,-0.34,2.27,
0.951,0.48,-0.01,1.19,4.25,-0.24,2.32,
0.951,0.48,0.01,1.18,4.25,-0.24,2.32,
0.951,0.47,0.01,1.18,4.25,-0.24,2.32,
0.951,0.47,0.01,1.18,4.20,-0.11,2.31,
0.952,0.47,0.02,1.17,4.20,-0.11,2.31,
0.955,0.45,0.03,1.16,4.20,-0.11,2.31,
0.955,0.45,0.03,1.16,4.17,0.10,2.15,
0.958,0.44,0.04,1.15,4.17,0.10,2.15,
0.96,0.43,0.04,1.14,4.17,0.10,2.15,
0.96,0.43,0.04,1.14,4.00,0.24,2.01,
0.966,0.43,0.05,1.13,4.00,0.24,2.01,
0.966,0.42,0.05,1.12,4.00,0.24,2.01,
0.966,0.42,0.05,1.12,3.82,0.41,1.82,
0.968,0.41,0.05,1.11,3.82,0.41,1.82,
0.97,0.40,0.05,1.11,3.82,0.41,1.82,
0.97,0.40,0.05,1.11,3.67,0.52,1.56,
0.973,0.39,0.05,1.10,3.67,0.52,1.56,
0.975,0.38,0.05,1.09,3.67,0.52,1.56,
0.975,0.38,0.05,1.09,3.48,0.59,1.42,
0.977,0.37,0.05,1.09,3.48,0.59,1.42,
0.983,0.36,0.05,1.08,3.48,0.59,1.42,
0.984,0.36,0.05,1.08,3.30,0.60,1.26,
0.984,0.36,0.04,1.08,3.30,0.60,1.26,
0.985,0.35,0.04,1.08,3.30,0.60,1.26,
0.985,0.35,0.04,1.08,3.14,0.55,1.15,
0.987,0.35,0.03,1.07,3.14,0.55,1.15,
0.989,0.34,0.02,1.07,3.14,0.55,1.15,
0.989,0.34,0.02,1.07,3.03,0.52,1.11,
0.992,0.34,0.02,1.07,3.03,0.52,1.11,
1.005,0.35,0.01,1.07,3.03,0.52,1.11,
1.006,0.35,0.01,1.07,2.92,0.38,1.03,
1.007,0.34,0.00,1.08,2.92,0.38,1.03,
1.007,0.34,-0.01,1.08,2.92,0.38,1.03,
1.007,0.34,-0.01,1.08,2.91,0.26,1.05,
1.007,0.34,-0.01,1.08,2.91,0.26,1.05,
1.008,0.34,-0.02,1.09,2.91,0.26,1.05,
1.008,0.34,-0.02,1.09,2.89,0.12,1.09,
1.008,0.35,-0.03,1.09,2.89,0.12,1.09,
1.009,0.34,-0.03,1.09,2.89,0.12,1.09,
1.009,0.34,-0.03,1.09,2.87,0.00,1.16,
1.018,0.34,-0.04,1.10,2.87,0.00,1.16,
1.018,0.34,-0.04,1.11,2.87,0.00,1.16,
1.019,0.34,-0.04,1.11,2.89,-0.12,1.23,
1.019,0.33,-0.05,1.11,2.89,-0.12,1.23,
1.019,0.32,-0.05,1.12,2.89,-0.12,1.23,
1.019,0.32,-0.05,1.12,2.82,-0.20,1.38,
1.021,0.31,-0.05,1.14,2.82,-0.20,1.38,
1.024,0.31,-0.05,1.14,2.82,-0.20,1.38,
1.024,0.31,-0.05,1.14,2.70,-0.29,1.49,
1.026,0.30,-0.05,1.15,2.70,-0.29,1.49,
1.036,0.30,-0.05,1.16,2.70,-0.29,1.49,
1.037,0.30,-0.05,1.16,2.55,-0.28,1.70,
1.037,0.29,-0.04,1.16,2.55,-0.28,1.70,
1.037,0.29,-0.04,1.17,2.55,-0.28,1.70,
1.037,0.29,-0.04,1.17,2.42,-0.22,1.79,
1.037,0.29,-0.03,1.18,2.42,-0.22,1.79,
1.039,0.29,-0.03,1.18,2.42,-0.22,1.79,
1.039,0.29,-0.03,1.18,2.37,-0.14,1.91,
1.041,0.28,-0.02,1.18,2.37,-0.14,1.91,
1.051,0.29,-0.01,1.18,2.37,-0.14,1.91,
1.051,0.29,-0.01,1.18,2.33,-0.04,2.04,
1.052,0.29,-0.01,1.18,2.33,-0.04,2.04,
1.052,0.30,-0.01,1.18,2.33,-0.04,2.04,
1.053,0.30,-0.01,1.18,2.31,0.12,2.08,
1.053,0.30,0.01,1.18,2.31,0.12,2.08,
1.054,0.30,0.02,1.17,2.31,0.12,2.08,
1.054,0.30,0.02,1.17,2.40,0.21,2.08,
1.056,0.30,0.03,1.16,2.40,0.21,2.08,
1.059,0.30,0.04,1.16,2.40,0.21,2.08,
1.059,0.30,0.04,1.16,2.45,0.44,1.99,
1.066,0.30,0.05,1.15,2.45,0.44,1.99,
1.067,0.30,0.05,1.13,2.45,0.44,1.99,
1.067,0.30,0.05,1.13,2.46,0.64,1.85,
1.067,0.30,0.05,1.12,2.46,0.64,1.85,
1.069,0.30,0.05,1.12,2.50,0.78,1.61,
1.069,0.31,0.06,1.11,2.50,0.78,1.61,
1.071,0.31,0.06,1.10,2.50,0.78,1.61,
1.074,0.31,0.06,1.09,2.50,0.78,1.61,
1.074,0.31,0.06,1.09,2.54,0.86,1.38,
1.076,0.32,0.06,1.08,2.54,0.86,1.38,
1.083,0.31,0.06,1.07,2.54,0.86,1.38,
1.083,0.31,0.06,1.07,2.59,0.88,1.20,
1.083,0.32,0.05,1.07,2.59,0.88,1.20,
1.084,0.31,0.05,1.06,2.59,0.88,1.20,
1.084,0.31,0.05,1.06,2.65,0.87,1.02,
1.086,0.31,0.04,1.06,2.65,0.87,1.02,
1.088,0.31,0.04,1.05,2.65,0.87,1.02,
1.089,0.31,0.04,1.05,2.65,0.79,0.86,
1.091,0.31,0.03,1.05,2.65,0.79,0.86,
1.093,0.30,0.02,1.05,2.65,0.79,0.86,
1.093,0.30,0.02,1.05,2.60,0.68,0.79,
1.1,0.29,0.02,1.05,2.60,0.68,0.79,
1.1,0.29,0.01,1.04,2.60,0.68,0.79,
1.1,0.29,0.01,1.04,2.52,0.56,0.71,
1.101,0.29,0.00,1.05,2.52,0.56,0.71,
1.103,0.28,-0.01,1.05,2.52,0.56,0.71,
1.103,0.28,-0.01,1.05,2.41,0.41,0.68,
1.105,0.27,-0.02,1.05,2.41,0.41,0.68,
1.108,0.27,-0.04,1.06,2.41,0.41,0.68,
1.108,0.27,-0.04,1.06,2.30,0.24,0.73,
1.124,0.26,-0.05,1.06,2.30,0.24,0.73,
1.125,0.25,-0.06,1.07,2.30,0.24,0.73,
1.125,0.25,-0.06,1.07,2.15,-0.01,0.77,
1.125,0.25,-0.07,1.08,2.15,-0.01,0.77,
1.125,0.25,-0.07,1.08,2.00,-0.23,0.90,
1.126,0.24,-0.08,1.08,2.00,-0.23,0.90,
1.126,0.23,-0.09,1.08,2.00,-0.23,0.90,
1.126,0.22,-0.10,1.09,2.00,-0.23,0.90,
1.126,0.22,-0.10,1.09,1.85,-0.44,1.00,
1.127,0.22,-0.10,1.08,1.85,-0.44,1.00,
1.135,0.21,-0.10,1.09,1.85,-0.44,1.00,
1.136,0.21,-0.10,1.09,1.68,-0.61,1.05,
1.136,0.19,-0.11,1.09,1.68,-0.61,1.05,
1.136,0.19,-0.11,1.09,1.68,-0.61,1.05,
1.136,0.19,-0.11,1.09,1.55,-0.72,1.07,
1.136,0.18,-0.10,1.09,1.55,-0.72,1.07,
1.137,0.16,-0.10,1.08,1.55,-0.72,1.07,
1.138,0.16,-0.10,1.08,1.29,-0.75,1.11,
1.14,0.15,-0.10,1.08,1.29,-0.75,1.11,
1.143,0.15,-0.09,1.07,1.29,-0.75,1.11,
1.143,0.15,-0.09,1.07,1.10,-0.73,1.06,
1.155,0.14,-0.09,1.07,1.10,-0.73,1.06,
1.155,0.14,-0.10,1.05,1.10,-0.73,1.06,
1.155,0.14,-0.10,1.05,0.90,-0.65,0.99,
1.156,0.14,-0.09,1.04,0.90,-0.65,0.99,
1.159,0.14,-0.09,1.02,0.90,-0.65,0.99,
1.16,0.14,-0.09,1.02,0.80,-0.63,0.80,
1.16,0.14,-0.09,1.02,0.80,-0.63,0.80,
1.16,0.15,-0.09,1.00,0.80,-0.63,0.80,
1.16,0.15,-0.09,1.00,0.81,-0.59,0.52,
1.16,0.15,-0.09,0.98,0.81,-0.59,0.52,
1.168,0.15,-0.09,0.98,0.81,-0.59,0.52,
1.169,0.15,-0.09,0.98,0.86,-0.55,0.28,
1.169,0.15,-0.09,0.97,0.86,-0.55,0.28,
1.169,0.15,-0.09,0.97,0.95,-0.57,0.02,
1.17,0.16,-0.09,0.96,0.95,-0.57,0.02,
1.17,0.16,-0.10,0.95,0.95,-0.57,0.02,
1.173,0.17,-0.10,0.94,0.95,-0.57,0.02,
1.173,0.17,-0.10,0.94,1.02,-0.59,-0.15,
1.176,0.17,-0.10,0.93,1.02,-0.59,-0.15,
1.178,0.18,-0.11,0.92,1.02,-0.59,-0.15,
1.178,0.18,-0.11,0.92,1.10,-0.66,-0.37,
1.184,0.18,-0.11,0.91,1.10,-0.66,-0.37,
1.184,0.18,-0.12,0.91,1.10,-0.66,-0.37,
1.184,0.18,-0.12,0.91,1.18,-0.75,-0.56,
1.185,0.18,-0.13,0.90,1.18,-0.75,-0.56,
1.188,0.18,-0.13,0.90,1.24,-0.85,-0.66,
1.188,0.18,-0.13,0.90,1.24,-0.85,-0.66,
1.19,0.18,-0.13,0.90,1.24,-0.85,-0.66,
1.193,0.17,-0.13,0.91,1.24,-0.85,-0.66,
1.193,0.17,-0.13,0.91,1.24,-0.95,-0.75,
1.195,0.16,-0.13,0.91,1.24,-0.95,-0.75,
1.199,0.16,-0.14,0.90,1.24,-0.95,-0.75,
1.199,0.16,-0.14,0.90,1.15,-0.99,-0.72,
1.2,0.15,-0.14,0.90,1.15,-0.99,-0.72,
1.203,0.14,-0.14,0.90,1.15,-0.99,-0.72,
1.203,0.14,-0.14,0.90,1.00,-1.07,-0.69,
1.205,0.12,-0.14,0.90,1.00,-1.07,-0.69,
1.208,0.11,-0.14,0.90,1.00,-1.07,-0.69,
1.208,0.11,-0.14,0.90,0.82,-1.12,-0.74,
1.21,0.09,-0.12,0.91,0.82,-1.12,-0.74,
1.221,0.07,-0.11,0.90,0.82,-1.12,-0.74,
1.222,0.07,-0.11,0.90,0.49,-1.05,-0.74,
1.222,0.05,-0.10,0.90,0.49,-1.05,-0.74,
1.223,0.05,-0.10,0.90,0.13,-0.86,-0.71,
1.223,0.05,-0.10,0.90,0.13,-0.86,-0.71,
1.223,0.04,-0.09,0.90,0.13,-0.86,-0.71,
1.223,0.03,-0.09,0.91,0.13,-0.86,-0.71,
1.223,0.03,-0.09,0.91,-0.24,-0.71,-0.71,
1.226,0.02,-0.09,0.91,-0.24,-0.71,-0.71,
1.227,0.02,-0.10,0.91,-0.24,-0.71,-0.71,
1.228,0.02,-0.10,0.91,-0.44,-0.59,-0.68,
1.236,0.02,-0.10,0.92,-0.44,-0.59,-0.68,
1.236,0.02,-0.10,0.91,-0.44,-0.59,-0.68,
1.236,0.02,-0.10,0.91,-0.60,-0.67,-0.60,
1.237,0.01,-0.10,0.91,-0.60,-0.67,-0.60,
1.237,0.01,-0.10,0.91,-0.60,-0.67,-0.60,
1.237,0.01,-0.10,0.91,-0.69,-0.73,-0.60,
1.24,0.01,-0.10,0.90,-0.69,-0.73,-0.60,
1.242,0.01,-0.10,0.90,-0.69,-0.73,-0.60,
1.243,0.01,-0.10,0.90,-0.77,-0.74,-0.65,
1.245,0.01,-0.09,0.89,-0.77,-0.74,-0.65,
1.255,0.01,-0.10,0.88,-0.77,-0.74,-0.65,
1.255,0.01,-0.10,0.88,-0.83,-0.73,-0.72,
1.256,0.01,-0.10,0.89,-0.83,-0.73,-0.72,
1.256,0.02,-0.10,0.88,-0.83,-0.73,-0.72,
1.256,0.02,-0.10,0.88,-0.88,-0.67,-0.82,
1.256,0.02,-0.10,0.88,-0.88,-0.67,-0.82,
1.257,0.03,-0.11,0.88,-0.88,-0.67,-0.82,
1.257,0.03,-0.11,0.88,-0.86,-0.72,-0.89,
1.26,0.04,-0.11,0.89,-0.86,-0.72,-0.89,
1.262,0.05,-0.12,0.89,-0.86,-0.72,-0.89,
1.262,0.05,-0.12,0.89,-0.74,-0.74,-0.88,
1.27,0.05,-0.12,0.90,-0.74,-0.74,-0.88,
1.27,0.05,-0.12,0.91,-0.74,-0.74,-0.88,
1.271,0.05,-0.12,0.91,-0.60,-0.83,-0.80,
1.271,0.06,-0.12,0.92,-0.60,-0.83,-0.80,
1.272,0.05,-0.13,0.93,-0.60,-0.83,-0.80,
1.272,0.05,-0.13,0.93,-0.55,-0.85,-0.61,
1.275,0.06,-0.13,0.94,-0.55,-0.85,-0.61,
1.277,0.06,-0.13,0.95,-0.55,-0.85,-0.61,
1.277,0.06,-0.13,0.95,-0.52,-0.87,-0.43,
1.285,0.05,-0.13,0.96,-0.52,-0.87,-0.43,
1.286,0.05,-0.14,0.96,-0.52,-0.87,-0.43,
1.286,0.05,-0.14,0.96,-0.51,-0.89,-0.25,
1.286,0.04,-0.14,0.96,-0.51,-0.89,-0.25,
1.287,0.04,-0.14,0.97,-0.51,-0.89,-0.25,
1.287,0.04,-0.14,0.97,-0.58,-0.92,-0.10,
1.289,0.03,-0.14,0.97,-0.58,-0.92,-0.10,
1.292,0.03,-0.14,0.97,-0.67,-0.97,-0.03,
1.292,0.03,-0.15,0.98,-0.67,-0.97,-0.03,
1.294,0.02,-0.15,0.99,-0.67,-0.97,-0.03,
1.3,0.02,-0.15,0.99,-0.67,-0.97,-0.03,
1.301,0.02,-0.15,0.99,-0.79,-0.99,0.08,
1.301,0.00,-0.15,0.99,-0.79,-0.99,0.08,
1.301,-0.00,-0.15,0.99,-0.79,-0.99,0.08,
1.301,-0.00,-0.15,0.99,-0.94,-1.00,0.19,
1.304,-0.01,-0.15,1.00,-0.94,-1.00,0.19,
1.306,-0.02,-0.15,1.00,-0.94,-1.00,0.19,
1.306,-0.02,-0.15,1.00,-1.12,-1.00,0.24,
1.308,-0.03,-0.15,1.00,-1.12,-1.00,0.24,
1.311,-0.04,-0.15,1.00,-1.12,-1.00,0.24,
1.311,-0.04,-0.15,1.00,-1.28,-1.00,0.30,
1.318,-0.04,-0.15,0.99,-1.28,-1.00,0.30,
1.319,-0.04,-0.15,0.99,-1.28,-1.00,0.30,
1.321,-0.04,-0.15,0.99,-1.46,-0.97,0.31,
1.321,-0.05,-0.16,0.98,-1.46,-0.97,0.31,
1.322,-0.05,-0.16,0.98,-1.46,-0.97,0.31,
1.323,-0.05,-0.16,0.98,-1.58,-0.99,0.24,
1.323,-0.05,-0.17,0.97,-1.58,-0.99,0.24,
1.326,-0.05,-0.17,0.96,-1.58,-0.99,0.24,
1.326,-0.05,-0.17,0.96,-1.66,-1.04,0.11,
1.34,-0.05,-0.17,0.95,-1.66,-1.04,0.11,
1.341,-0.06,-0.17,0.95,-1.66,-1.04,0.11,
1.341,-0.06,-0.17,0.95,-1.71,-1.12,-0.04,
1.341,-0.06,-0.18,0.94,-1.71,-1.12,-0.04,
1.342,-0.06,-0.18,0.94,-1.71,-1.12,-0.04,
1.342,-0.06,-0.18,0.94,-1.80,-1.15,-0.16,
1.342,-0.06,-0.18,0.94,-1.80,-1.15,-0.16,
1.343,-0.06,-0.18,0.94,-1.80,-1.15,-0.16,
1.343,-0.06,-0.18,0.94,-1.87,-1.21,-0.23,
1.343,-0.06,-0.19,0.94,-1.87,-1.21,-0.23,
1.354,-0.07,-0.19,0.94,-1.87,-1.21,-0.23,
1.354,-0.07,-0.19,0.94,-1.90,-1.28,-0.27,
1.354,-0.07,-0.19,0.95,-1.90,-1.28,-0.27,
1.355,-0.07,-0.20,0.95,-1.90,-1.28,-0.27,
1.355,-0.07,-0.20,0.95,-1.96,-1.34,-0.24,
1.356,-0.08,-0.20,0.96,-1.96,-1.34,-0.24,
1.356,-0.09,-0.21,0.97,-1.96,-1.34,-0.24,
1.356,-0.09,-0.21,0.97,-2.04,-1.39,-0.14,
1.359,-0.10,-0.21,0.97,-2.04,-1.39,-0.14,
1.36,-0.11,-0.22,0.99,-2.04,-1.39,-0.14,
1.361,-0.11,-0.22,0.99,-2.20,-1.45,-0.02,
1.371,-0.11,-0.22,1.00,-2.20,-1.45,-0.02,
1.372,-0.12,-0.22,1.00,-2.20,-1.45,-0.02,
1.372,-0.12,-0.22,1.00,-2.38,-1.56,0.16,
1.373,-0.12,-0.23,1.02,-2.38,-1.56,0.16,
1.373,-0.12,-0.24,1.02,-2.38,-1.56,0.16,
1.373,-0.12,-0.24,1.02,-2.52,-1.61,0.36,
1.373,-0.13,-0.24,1.02,-2.52,-1.61,0.36,
1.375,-0.14,-0.24,1.03,-2.52,-1.61,0.36,
1.376,-0.14,-0.24,1.03,-2.62,-1.73,0.55,
1.378,-0.15,-0.24,1.03,-2.62,-1.73,0.55,
1.385,-0.15,-0.23,1.04,-2.62,-1.73,0.55,
1.386,-0.15,-0.23,1.04,-2.78,-1.76,0.61,
1.386,-0.15,-0.23,1.03,-2.78,-1.76,0.61,
1.386,-0.16,-0.23,1.04,-2.78,-1.76,0.61,
1.387,-0.16,-0.23,1.04,-2.91,-1.73,0.70,
1.388,-0.16,-0.22,1.04,-2.91,-1.73,0.70,
1.39,-0.16,-0.22,1.04,-3.02,-1.69,0.74,
1.391,-0.16,-0.22,1.04,-3.02,-1.69,0.74,
1.392,-0.16,-0.22,1.03,-3.02,-1.69,0.74,
1.401,-0.16,-0.21,1.03,-3.02,-1.69,0.74,
1.401,-0.16,-0.21,1.03,-3.06,-1.62,0.75,
1.402,-0.16,-0.21,1.02,-3.06,-1.62,0.75,
1.402,-0.15,-0.21,1.02,-3.06,-1.62,0.75,
1.402,-0.15,-0.21,1.02,-3.08,-1.56,0.66,
1.403,-0.16,-0.20,1.00,-3.08,-1.56,0.66,
1.405,-0.16,-0.19,1.00,-3.08,-1.56,0.66,
1.405,-0.16,-0.19,1.00,-3.07,-1.47,0.55,
1.408,-0.16,-0.19,0.99,-3.07,-1.47,0.55,
1.41,-0.16,-0.19,0.98,-3.07,-1.47,0.55,
1.41,-0.16,-0.19,0.98,-3.10,-1.40,0.38,
1.419,-0.16,-0.19,0.98,-3.10,-1.40,0.38,
1.42,-0.16,-0.19,0.98,-3.13,-1.36,0.22,
1.42,-0.17,-0.19,0.97,-3.13,-1.36,0.22,
1.42,-0.18,-0.18,0.97,-3.13,-1.36,0.22,
1.42,-0.18,-0.18,0.96,-3.13,-1.36,0.22,
1.42,-0.18,-0.18,0.96,-3.21,-1.30,0.13,
1.422,-0.19,-0.18,0.96,-3.21,-1.30,0.13,
1.425,-0.20,-0.18,0.96,-3.21,-1.30,0.13,
1.425,-0.20,-0.18,0.96,-3.37,-1.26,0.04,
1.427,-0.22,-0.17,0.95,-3.37,-1.26,0.04,
1.441,-0.23,-0.17,0.95,-3.37,-1.26,0.04,
1.442,-0.23,-0.17,0.95,-3.58,-1.25,-0.02,
1.442,-0.24,-0.17,0.94,-3.58,-1.25,-0.02,
1.443,-0.25,-0.18,0.94,-3.58,-1.25,-0.02,
1.443,-0.25,-0.18,0.94,-3.82,-1.20,-0.09,
1.443,-0.25,-0.18,0.94,-3.82,-1.20,-0.09,
1.443,-0.25,-0.18,0.94,-4.07,-1.26,-0.16,
1.444,-0.26,-0.18,0.94,-4.07,-1.26,-0.16,
1.444,-0.27,-0.19,0.94,-4.07,-1.26,-0.16,
1.445,-0.28,-0.19,0.94,-4.07,-1.26,-0.16,
1.445,-0.28,-0.19,0.94,-4.24,-1.32,-0.20,
1.453,-0.29,-0.20,0.93,-4.24,-1.32,-0.20,
1.454,-0.30,-0.20,0.93,-4.24,-1.32,-0.20,
1.455,-0.30,-0.20,0.93,-4.41,-1.46,-0.21,
1.455,-0.31,-0.21,0.93,-4.41,-1.46,-0.21,
1.455,-0.31,-0.21,0.92,-4.41,-1.46,-0.21,
1.455,-0.31,-0.21,0.92,-4.63,-1.59,-0.27,
1.457,-0.31,-0.21,0.92,-4.63,-1.59,-0.27,
1.459,-0.32,-0.21,0.92,-4.63,-1.59,-0.27,
1.459,-0.32,-0.21,0.92,-4.82,-1.69,-0.30,
1.462,-0.32,-0.21,0.92,-4.82,-1.69,-0.30,
1.472,-0.32,-0.21,0.92,-4.92,-1.74,-0.35,
1.472,-0.33,-0.21,0.92,-4.92,-1.74,-0.35,
1.473,-0.33,-0.21,0.92,-4.92,-1.74,-0.35,
1.473,-0.33,-0.20,0.92,-4.92,-1.74,-0.35,
1.473,-0.33,-0.20,0.92,-5.05,-1.76,-0.36,
1.473,-0.33,-0.20,0.92,-5.05,-1.76,-0.36,
1.474,-0.34,-0.19,0.92,-5.05,-1.76,-0.36,
1.474,-0.34,-0.19,0.92,-5.13,-1.74,-0.36,
1.477,-0.34,-0.18,0.93,-5.13,-1.74,-0.36,
1.486,-0.34,-0.17,0.93,-5.13,-1.74,-0.36,
1.487,-0.34,-0.17,0.93,-5.23,-1.64,-0.29,
1.49,-0.33,-0.16,0.93,-5.23,-1.64,-0.29,
1.49,-0.33,-0.16,0.93,-5.23,-1.64,-0.29,
1.49,-0.33,-0.16,0.93,-5.30,-1.49,-0.19,
1.491,-0.32,-0.16,0.93,-5.30,-1.49,-0.19,
1.491,-0.32,-0.16,0.93,-5.23,-1.40,-0.18,
1.491,-0.31,-0.16,0.94,-5.23,-1.40,-0.18,
1.492,-0.31,-0.16,0.94,-5.23,-1.40,-0.18,
1.497,-0.30,-0.16,0.94,-5.23,-1.40,-0.18,
1.498,-0.30,-0.16,0.94,-5.09,-1.37,-0.14,
1.498,-0.29,-0.16,0.93,-5.09,-1.37,-0.14,
1.503,-0.29,-0.16,0.94,-5.09,-1.37,-0.14,
1.504,-0.29,-0.16,0.94,-4.96,-1.37,-0.13,
1.504,-0.28,-0.15,0.94,-4.96,-1.37,-0.13,
1.504,-0.28,-0.15,0.93,-4.96,-1.37,-0.13,
1.504,-0.28,-0.15,0.93,-4.83,-1.35,-0.13,
1.507,-0.28,-0.15,0.93,-4.83,-1.35,-0.13,
1.51,-0.27,-0.15,0.93,-4.83,-1.35,-0.13,
1.51,-0.27,-0.15,0.93,-4.74,-1.30,-0.15,
1.512,-0.26,-0.14,0.93,-4.74,-1.30,-0.15,
1.518,-0.26,-0.15,0.92,-4.74,-1.30,-0.15,
1.519,-0.26,-0.15,0.92,-4.64,-1.23,-0.20,
1.519,-0.25,-0.14,0.91,-4.64,-1.23,-0.20,
1.519,-0.25,-0.14,0.91,-4.64,-1.23,-0.20,
1.519,-0.25,-0.14,0.91,-4.48,-1.16,-0.27,
1.522,-0.24,-0.13,0.91,-4.48,-1.16,-0.27,
1.525,-0.24,-0.13,0.91,-4.48,-1.16,-0.27,
1.525,-0.24,-0.13,0.91,-4.36,-1.09,-0.40,
1.527,-0.25,-0.13,0.91,-4.36,-1.09,-0.40,
1.529,-0.24,-0.13,0.90,-4.36,-1.09,-0.40,
1.53,-0.24,-0.13,0.90,-4.27,-0.97,-0.42,
1.536,-0.24,-0.12,0.90,-4.27,-0.97,-0.42,
1.537,-0.25,-0.12,0.91,-4.27,-0.97,-0.42,
1.537,-0.25,-0.12,0.91,-4.25,-0.92,-0.47,
1.537,-0.25,-0.11,0.91,-4.25,-0.92,-0.47,
1.54,-0.25,-0.11,0.92,-4.25,-0.92,-0.47,
1.54,-0.25,-0.11,0.92,-4.25,-0.78,-0.44,
1.542,-0.25,-0.11,0.93,-4.25,-0.78,-0.44,
1.544,-0.25,-0.11,0.93,-4.25,-0.78,-0.44,
1.545,-0.25,-0.11,0.93,-4.26,-0.67,-0.34,
1.547,-0.25,-0.11,0.95,-4.26,-0.67,-0.34,
1.56,-0.25,-0.11,0.97,-4.26,-0.67,-0.34,
1.561,-0.25,-0.11,0.97,-4.23,-0.63,-0.20,
1.561,-0.25,-0.11,0.98,-4.23,-0.63,-0.20,
1.561,-0.25,-0.12,1.00,-4.23,-0.63,-0.20,
1.562,-0.25,-0.12,1.00,-4.25,-0.63,0.08,
1.562,-0.26,-0.12,1.02,-4.25,-0.63,0.08,
1.562,-0.26,-0.12,1.02,-4.33,-0.62,0.39,
1.562,-0.25,-0.13,1.04,-4.33,-0.62,0.39,
1.563,-0.24,-0.13,1.07,-4.33,-0.62,0.39,
1.572,-0.23,-0.14,1.09,-4.33,-0.62,0.39,
1.572,-0.23,-0.14,1.09,-4.33,-0.68,0.83,
1.573,-0.22,-0.15,1.11,-4.33,-0.68,0.83,
1.573,-0.22,-0.15,1.11,-4.20,-0.78,1.27,
1.573,-0.21,-0.15,1.13,-4.20,-0.78,1.27,
1.573,-0.20,-0.16,1.16,-4.20,-0.78,1.27,
1.574,-0.18,-0.17,1.18,-4.20,-0.78,1.27,
1.574,-0.18,-0.17,1.18,-4.02,-0.86,1.71,
1.577,-0.17,-0.17,1.21,-4.02,-0.86,1.71,
1.579,-0.16,-0.18,1.24,-4.02,-0.86,1.71,
1.579,-0.16,-0.18,1.24,-3.80,-0.96,2.22,
1.588,-0.16,-0.19,1.26,-3.80,-0.96,2.22,
1.589,-0.15,-0.19,1.28,-3.80,-0.96,2.22,
1.589,-0.15,-0.19,1.28,-3.56,-1.01,2.72,
1.589,-0.15,-0.19,1.30,-3.56,-1.01,2.72,
1.589,-0.15,-0.19,1.30,-3.45,-1.11,3.11,
1.59,-0.15,-0.19,1.31,-3.45,-1.11,3.11,
1.591,-0.15,-0.20,1.32,-3.45,-1.11,3.11,
1.594,-0.15,-0.20,1.34,-3.45,-1.11,3.11,
1.594,-0.15,-0.20,1.34,-3.36,-1.11,3.50,
1.596,-0.15,-0.20,1.34,-3.36,-1.11,3.50,
1.603,-0.15,-0.20,1.35,-3.36,-1.11,3.50,
1.604,-0.15,-0.20,1.35,-3.36,-1.13,3.73,
1.604,-0.16,-0.20,1.35,-3.36,-1.13,3.73,
1.604,-0.16,-0.19,1.35,-3.36,-1.13,3.73,
1.605,-0.16,-0.19,1.35,-3.33,-1.10,3.84,
1.606,-0.16,-0.19,1.34,-3.33,-1.10,3.84,
1.609,-0.16,-0.20,1.34,-3.33,-1.10,3.84,
1.609,-0.16,-0.20,1.34,-3.34,-1.02,3.90,
1.611,-0.16,-0.20,1.34,-3.34,-1.02,3.90,
1.613,-0.15,-0.20,1.34,-3.34,-1.02,3.90,
1.613,-0.15,-0.20,1.34,-3.31,-0.96,3.82,
1.62,-0.15,-0.20,1.33,-3.31,-0.96,3.82,
1.62,-0.15,-0.21,1.33,-3.31,-0.96,3.82,
1.621,-0.15,-0.21,1.33,-3.22,-0.92,3.78,
1.621,-0.14,-0.20,1.33,-3.22,-0.92,3.78,
1.623,-0.14,-0.20,1.34,-3.22,-0.92,3.78,
1.623,-0.14,-0.20,1.34,-3.11,-0.96,3.69,
1.625,-0.14,-0.20,1.34,-3.11,-0.96,3.69,
1.628,-0.13,-0.19,1.33,-3.11,-0.96,3.69,
1.628,-0.13,-0.19,1.33,-2.93,-0.88,3.69,
1.636,-0.12,-0.19,1.34,-2.93,-0.88,3.69,
1.636,-0.12,-0.19,1.34,-2.93,-0.88,3.69,
1.636,-0.12,-0.19,1.34,-2.81,-0.78,3.69,
1.637,-0.11,-0.18,1.34,-2.81,-0.78,3.69,
1.638,-0.11,-0.18,1.34,-2.64,-0.64,3.72,
1.638,-0.11,-0.18,1.35,-2.64,-0.64,3.72,
1.64,-0.10,-0.17,1.36,-2.64,-0.64,3.72,
1.643,-0.09,-0.17,1.37,-2.64,-0.64,3.72,
1.643,-0.09,-0.17,1.37,-2.48,-0.56,3.78,
1.645,-0.08,-0.17,1.38,-2.48,-0.56,3.78,
1.648,-0.08,-0.16,1.39,-2.48,-0.56,3.78,
1.655,-0.08,-0.16,1.39,-2.31,-0.46,3.96,
1.656,-0.08,-0.16,1.40,-2.31,-0.46,3.96,
1.656,-0.07,-0.15,1.41,-2.31,-0.46,3.96,
1.656,-0.07,-0.15,1.41,-2.16,-0.38,4.13,
1.656,-0.07,-0.16,1.41,-2.16,-0.38,4.13,
1.658,-0.05,-0.16,1.41,-2.16,-0.38,4.13,
1.659,-0.05,-0.16,1.41,-2.07,-0.24,4.29,
1.661,-0.04,-0.16,1.42,-2.07,-0.24,4.29,
1.663,-0.04,-0.17,1.42,-2.07,-0.24,4.29,
1.663,-0.04,-0.17,1.42,-1.90,-0.25,4.39,
1.677,-0.03,-0.17,1.43,-1.90,-0.25,4.39,
1.678,-0.02,-0.17,1.43,-1.90,-0.25,4.39,
1.678,-0.02,-0.17,1.43,-1.69,-0.30,4.43,
1.678,-0.01,-0.17,1.43,-1.69,-0.30,4.43,
1.678,-0.00,-0.17,1.43,-1.69,-0.30,4.43,
1.679,-0.00,-0.17,1.43,-1.51,-0.34,4.53,
1.679,0.00,-0.18,1.43,-1.51,-0.34,4.53,
1.679,0.01,-0.17,1.43,-1.51,-0.34,4.53,
1.679,0.01,-0.17,1.43,-1.32,-0.35,4.52,
1.68,0.02,-0.17,1.42,-1.32,-0.35,4.52,
1.687,0.02,-0.17,1.42,-1.32,-0.35,4.52,
1.687,0.02,-0.17,1.42,-1.16,-0.38,4.51,
1.688,0.02,-0.18,1.41,-1.16,-0.38,4.51,
1.688,0.02,-0.18,1.41,-1.01,-0.36,4.41,
1.688,0.03,-0.17,1.41,-1.01,-0.36,4.41,
1.69,0.04,-0.18,1.41,-1.01,-0.36,4.41,
1.692,0.04,-0.18,1.40,-1.01,-0.36,4.41,
1.692,0.04,-0.18,1.40,-0.89,-0.36,4.30,
1.695,0.04,-0.18,1.39,-0.89,-0.36,4.30,
1.705,0.05,-0.19,1.38,-0.89,-0.36,4.30,
1.705,0.05,-0.19,1.38,-0.73,-0.40,4.22,
1.705,0.05,-0.19,1.37,-0.73,-0.40,4.22,
1.705,0.06,-0.19,1.37,-0.73,-0.40,4.22,
1.706,0.06,-0.19,1.37,-0.61,-0.44,4.01,
1.706,0.06,-0.19,1.36,-0.61,-0.44,4.01,
1.707,0.06,-0.19,1.34,-0.61,-0.44,4.01,
1.707,0.06,-0.19,1.34,-0.43,-0.47,3.83,
1.71,0.07,-0.19,1.34,-0.43,-0.47,3.83,
1.713,0.08,-0.19,1.33,-0.43,-0.47,3.83,
1.713,0.08,-0.19,1.33,-0.29,-0.46,3.65,
1.714,0.08,-0.19,1.33,-0.29,-0.46,3.65,
1.72,0.08,-0.18,1.32,-0.29,-0.46,3.65,
1.72,0.08,-0.18,1.32,-0.11,-0.45,3.49,
1.72,0.08,-0.18,1.32,-0.11,-0.45,3.49,
1.722,0.08,-0.17,1.31,-0.11,-0.45,3.49,
1.723,0.08,-0.17,1.31,0.02,-0.39,3.37,
1.725,0.08,-0.17,1.30,0.02,-0.39,3.37,
1.728,0.07,-0.16,1.29,0.02,-0.39,3.37,
1.728,0.07,-0.16,1.29,0.10,-0.30,3.23,
1.73,0.07,-0.16,1.29,0.10,-0.30,3.23,
1.736,0.06,-0.15,1.28,0.10,-0.30,3.23,
1.736,0.06,-0.15,1.28,0.12,-0.20,3.10,
1.737,0.06,-0.14,1.26,0.12,-0.20,3.10,
1.737,0.06,-0.14,1.26,0.07,-0.09,2.92,
1.737,0.05,-0.15,1.26,0.07,-0.09,2.92,
1.74,0.05,-0.14,1.25,0.07,-0.09,2.92,
1.742,0.05,-0.14,1.25,0.08,0.01,2.70,
1.743,0.05,-0.14,1.25,0.08,0.01,2.70,
1.745,0.04,-0.14,1.24,0.08,0.01,2.70,
1.747,0.04,-0.14,1.24,0.08,0.01,2.70,
1.748,0.04,-0.14,1.24,0.07,0.03,2.58,
1.754,0.04,-0.14,1.24,0.07,0.03,2.58,
1.755,0.04,-0.15,1.24,0.07,0.03,2.58,
1.755,0.04,-0.15,1.24,0.01,0.04,2.52,
1.755,0.04,-0.15,1.24,0.01,0.04,2.52,
1.757,0.04,-0.15,1.24,0.09,-0.01,2.48,
1.758,0.04,-0.15,1.24,0.09,-0.01,2.48,
1.76,0.05,-0.15,1.23,0.09,-0.01,2.48,
1.762,0.05,-0.16,1.23,0.09,-0.01,2.48,
1.762,0.05,-0.16,1.23,0.15,-0.06,2.47,
1.776,0.06,-0.16,1.23,0.15,-0.06,2.47,
1.777,0.07,-0.16,1.23,0.15,-0.06,2.47,
1.777,0.07,-0.16,1.23,0.27,-0.16,2.36,
1.777,0.07,-0.16,1.23,0.27,-0.16,2.36,
1.777,0.08,-0.16,1.23,0.27,-0.16,2.36,
1.777,0.08,-0.16,1.23,0.43,-0.20,2.37,
1.778,0.08,-0.17,1.23,0.43,-0.20,2.37,
1.778,0.09,-0.17,1.22,0.43,-0.20,2.37,
1.778,0.09,-0.17,1.22,0.55,-0.25,2.34,
1.779,0.10,-0.17,1.22,0.55,-0.25,2.34,
1.781,0.11,-0.17,1.21,0.55,-0.25,2.34,
1.782,0.11,-0.17,1.21,0.69,-0.35,2.26,
1.789,0.11,-0.17,1.21,0.69,-0.35,2.26,
1.789,0.12,-0.17,1.20,0.69,-0.35,2.26,
1.79,0.12,-0.17,1.20,0.90,-0.39,2.16,
1.79,0.13,-0.16,1.20,0.90,-0.39,2.16,
1.792,0.13,-0.16,1.19,0.90,-0.39,2.16,
1.792,0.13,-0.16,1.19,1.04,-0.40,2.08,
1.794,0.14,-0.16,1.17,1.04,-0.40,2.08,
1.797,0.15,-0.15,1.17,1.04,-0.40,2.08,
1.797,0.15,-0.15,1.17,1.22,-0.36,1.95,
1.806,0.16,-0.14,1.15,1.22,-0.36,1.95,
1.807,0.17,-0.14,1.14,1.22,-0.36,1.95,
1.807,0.17,-0.14,1.14,1.39,-0.38,1.74,
1.807,0.18,-0.14,1.12,1.39,-0.38,1.74,
1.808,0.19,-0.13,1.11,1.39,-0.38,1.74,
1.808,0.19,-0.13,1.11,1.61,-0.26,1.47,
1.809,0.19,-0.13,1.09,1.61,-0.26,1.47,
1.811,0.20,-0.13,1.08,1.61,-0.26,1.47,
1.814,0.20,-0.13,1.08,1.84,-0.24,1.18,
1.814,0.20,-0.12,1.06,1.84,-0.24,1.18,
1.822,0.20,-0.12,1.05,1.84,-0.24,1.18,
1.823,0.20,-0.12,1.05,2.01,-0.18,0.88,
1.824,0.20,-0.11,1.04,2.01,-0.18,0.88,
1.824,0.20,-0.12,1.03,2.01,-0.18,0.88,
1.824,0.20,-0.12,1.03,2.13,-0.08,0.57,
1.824,0.20,-0.11,1.02,2.13,-0.08,0.57,
1.826,0.20,-0.11,1.01,2.13,-0.08,0.57,
1.826,0.20,-0.11,1.01,2.19,-0.08,0.36,
1.828,0.19,-0.11,1.01,2.19,-0.08,0.36,
1.831,0.19,-0.11,1.00,2.19,-0.08,0.36,
1.831,0.19,-0.11,1.00,2.22,-0.06,0.18,
1.836,0.19,-0.11,1.00,2.22,-0.06,0.18,
1.837,0.19,-0.11,1.00,2.19,-0.07,0.07,
1.837,0.18,-0.11,1.00,2.19,-0.07,0.07,
1.838,0.18,-0.11,1.01,2.19,-0.07,0.07,
1.841,0.18,-0.11,1.01,2.18,-0.06,0.05,
1.841,0.17,-0.10,1.01,2.18,-0.06,0.05,
1.843,0.18,-0.09,1.02,2.18,-0.06,0.05,
1.845,0.17,-0.09,1.03,2.18,-0.06,0.05,
1.846,0.17,-0.09,1.03,2.11,-0.02,0.12,
1.854,0.17,-0.09,1.05,2.11,-0.02,0.12,
1.854,0.18,-0.08,1.05,2.11,-0.02,0.12,
1.854,0.18,-0.08,1.05,2.13,0.11,0.29,
1.855,0.18,-0.09,1.06,2.13,0.11,0.29,
1.855,0.19,-0.09,1.07,2.13,0.11,0.29,
1.856,0.19,-0.09,1.07,2.14,0.13,0.49,
1.858,0.19,-0.09,1.08,2.14,0.13,0.49,
1.86,0.20,-0.10,1.09,2.14,0.13,0.49,
1.861,0.20,-0.10,1.09,2.22,0.10,0.66,
1.863,0.21,-0.10,1.10,2.22,0.10,0.66,
1.871,0.22,-0.10,1.10,2.22,0.10,0.66,
1.872,0.22,-0.10,1.10,2.38,0.00,0.88,
1.872,0.23,-0.10,1.11,2.38,0.00,0.88,
1.872,0.24,-0.10,1.11,2.38,0.00,0.88,
1.873,0.24,-0.10,1.11,2.54,-0.09,1.02,
1.873,0.24,-0.10,1.11,2.54,-0.09,1.02,
1.875,0.24,-0.10,1.11,2.71,-0.13,1.06,
1.876,0.25,-0.10,1.11,2.71,-0.13,1.06,
1.878,0.25,-0.10,1.10,2.71,-0.13,1.06,
1.88,0.26,-0.09,1.10,2.71,-0.13,1.06,
1.88,0.26,-0.09,1.10,2.81,-0.13,1.10,
1.893,0.26,-0.09,1.08,2.81,-0.13,1.10,
1.894,0.27,-0.09,1.07,2.81,-0.13,1.10,
1.894,0.27,-0.09,1.07,2.92,-0.15,0.97,
1.894,0.28,-0.08,1.05,2.92,-0.15,0.97,
1.894,0.29,-0.07,1.03,2.92,-0.15,0.97,
1.895,0.29,-0.07,1.03,3.02,-0.13,0.72,
1.895,0.29,-0.06,1.01,3.02,-0.13,0.72,
1.895,0.30,-0.06,1.00,3.02,-0.13,0.72,
1.895,0.30,-0.06,1.00,3.15,-0.06,0.40,
1.906,0.30,-0.05,0.98,3.15,-0.06,0.40,
1.907,0.31,-0.04,0.95,3.15,-0.06,0.40,
1.907,0.31,-0.04,0.95,3.30,0.05,0.04,
1.908,0.31,-0.04,0.93,3.30,0.05,0.04,
1.908,0.32,-0.03,0.91,3.30,0.05,0.04,
1.908,0.32,-0.03,0.91,3.39,0.15,-0.37,
1.908,0.32,-0.02,0.89,3.39,0.15,-0.37,
1.91,0.32,-0.02,0.87,3.39,0.15,-0.37,
1.91,0.32,-0.02,0.87,3.51,0.26,-0.78,
1.912,0.32,-0.01,0.85,3.51,0.26,-0.78,
1.926,0.32,-0.01,0.84,3.51,0.26,-0.78,
1.927,0.32,-0.01,0.84,3.57,0.33,-1.18,
1.927,0.32,-0.00,0.82,3.57,0.33,-1.18,
1.927,0.31,0.01,0.81,3.57,0.33,-1.18,
1.927,0.31,0.01,0.81,3.56,0.39,-1.53,
1.927,0.30,0.01,0.80,3.56,0.39,-1.53,
1.928,0.30,0.01,0.80,3.56,0.39,-1.53,
1.928,0.30,0.01,0.80,3.51,0.50,-1.83,
1.928,0.29,0.01,0.79,3.51,0.50,-1.83,
1.93,0.28,0.02,0.79,3.51,0.50,-1.83,
1.931,0.28,0.02,0.79,3.39,0.56,-2.01,
1.938,0.28,0.02,0.80,3.39,0.56,-2.01,
1.939,0.28,0.02,0.80,3.27,0.59,-2.03,
1.939,0.27,0.02,0.80,3.27,0.59,-2.03,
1.94,0.27,0.01,0.81,3.27,0.59,-2.03,
1.94,0.26,0.01,0.82,3.27,0.59,-2.03,
1.94,0.26,0.01,0.82,3.12,0.60,-1.96,
1.942,0.26,0.01,0.84,3.12,0.60,-1.96,
1.945,0.26,0.01,0.85,3.12,0.60,-1.96,
1.946,0.26,0.01,0.85,3.02,0.51,-1.77,
1.947,0.26,0.01,0.87,3.02,0.51,-1.77,
1.954,0.25,0.00,0.89,3.02,0.51,-1.77,
1.955,0.25,0.00,0.89,2.96,0.51,-1.53,
1.955,0.25,-0.00,0.92,2.96,0.51,-1.53,
1.955,0.24,0.00,0.94,2.96,0.51,-1.53,
1.955,0.24,0.00,0.94,2.90,0.45,-1.18,
1.957,0.24,0.01,0.96,2.90,0.45,-1.18,
1.959,0.24,0.01,0.96,2.81,0.40,-0.70,
1.96,0.24,0.00,0.98,2.81,0.40,-0.70,
1.962,0.23,0.00,0.99,2.81,0.40,-0.70,
1.964,0.24,0.00,1.00,2.81,0.40,-0.70,
1.964,0.24,0.00,1.00,2.74,0.42,-0.32,
1.971,0.24,-0.00,1.01,2.74,0.42,-0.32,
1.971,0.24,-0.00,1.02,2.74,0.42,-0.32,
1.972,0.24,-0.00,1.02,2.67,0.39,-0.04,
1.972,0.24,-0.00,1.01,2.67,0.39,-0.04,
1.974,0.24,-0.01,1.01,2.67,0.39,-0.04,
1.975,0.24,-0.01,1.01,2.66,0.33,0.14,
1.977,0.24,-0.01,1.00,2.66,0.33,0.14,
1.979,0.24,-0.01,0.99,2.66,0.33,0.14,
1.98,0.24,-0.01,0.99,2.66,0.30,0.12,
1.982,0.23,-0.01,0.99,2.66,0.30,0.12,
1.997,0.23,-0.01,0.99,2.65,0.22,-0.00,
1.998,0.23,-0.02,0.98,2.65,0.22,-0.00,
1.998,0.24,-0.02,0.96,2.65,0.22,-0.00,
1.999,0.23,-0.01,0.95,2.65,0.22,-0.00,
1.999,0.23,-0.01,0.95,2.63,0.14,-0.18,
1.999,0.22,-0.02,0.93,2.63,0.14,-0.18,
1.999,0.22,-0.01,0.92,2.63,0.14,-0.18,
2.0,0.22,-0.01,0.92,2.63,0.11,-0.43,
2.0,0.22,-0.01,0.91,2.63,0.11,-0.43,
2.0,0.21,-0.01,0.90,2.63,0.11,-0.43,
2.001,0.21,-0.01,0.90,2.52,0.12,-0.69,
2.006,0.20,-0.01,0.89,2.52,0.12,-0.69,
2.006,0.20,-0.00,0.88,2.52,0.12,-0.69,
2.006,0.20,-0.00,0.88,2.46,0.13,-0.95,
2.007,0.19,-0.00,0.87,2.46,0.13,-0.95,
2.01,0.19,-0.00,0.87,2.46,0.13,-0.95,
2.01,0.19,-0.00,0.87,2.32,0.17,-1.15,
2.012,0.19,-0.00,0.86,2.32,0.17,-1.15,
2.015,0.18,-0.00,0.86,2.32,0.17,-1.15,
2.015,0.18,-0.00,0.86,2.24,0.17,-1.28,
2.025,0.18,0.00,0.85,2.24,0.17,-1.28,
2.025,0.17,0.00,0.84,2.24,0.17,-1.28,
2.025,0.17,0.00,0.84,2.17,0.13,-1.35,
2.026,0.17,0.01,0.84,2.17,0.13,-1.35,
2.026,0.16,0.02,0.84,2.17,0.13,-1.35,
2.026,0.16,0.02,0.84,2.10,0.18,-1.47,
2.026,0.16,0.02,0.83,2.10,0.18,-1.47,
2.03,0.16,0.02,0.82,2.10,0.18,-1.47,
2.03,0.16,0.02,0.82,1.97,0.27,-1.57,
2.032,0.16,0.02,0.82,1.97,0.27,-1.57,
2.04,0.17,0.02,0.82,1.97,0.27,-1.57,
2.04,0.17,0.02,0.82,1.94,0.33,-1.67,
2.04,0.17,0.03,0.82,1.94,0.33,-1.67,
2.041,0.17,0.03,0.82,1.94,0.33,-1.67,
2.041,0.17,0.03,0.82,1.96,0.32,-1.73,
2.041,0.17,0.03,0.82,1.96,0.32,-1.73,
2.044,0.17,0.04,0.83,1.96,0.32,-1.73,
2.044,0.17,0.04,0.83,1.97,0.41,-1.74,
2.047,0.17,0.04,0.83,1.97,0.41,-1.74,
2.049,0.17,0.04,0.84,1.97,0.41,-1.74,
2.049,0.17,0.04,0.84,1.94,0.43,-1.69,
2.055,0.17,0.04,0.86,1.94,0.43,-1.69,
2.055,0.19,0.05,0.89,1.94,0.43,-1.69,
2.056,0.19,0.05,0.89,1.91,0.42,-1.56,
2.056,0.30,0.09,1.05,1.91,0.42,-1.56,
2.059,0.30,0.09,1.05,2.02,0.48,-1.19,
2.06,0.44,0.13,1.33,2.02,0.48,-1.19,
2.062,0.44,0.16,1.37,2.02,0.48,-1.19,
2.064,0.31,0.17,1.09,2.02,0.48,-1.19,
2.064,0.31,0.17,1.09,3.90,1.13,1.91,
2.066,0.21,0.16,0.94,3.90,1.13,1.91,
2.072,0.18,0.14,0.92,3.90,1.13,1.91,
2.072,0.18,0.14,0.92,3.92,1.65,2.28,
2.073,0.19,0.11,0.97,3.92,1.65,2.28,
2.074,0.20,0.08,1.05,3.92,1.65,2.28,
2.074,0.20,0.08,1.05,2.20,1.43,-0.65,
2.077,0.21,0.05,1.08,2.20,1.43,-0.65,
2.079,0.20,0.03,1.08,2.20,1.43,-0.65,
2.079,0.20,0.03,1.08,2.15,0.88,0.10,
2.081,0.18,0.01,1.06,2.15,0.88,0.10,
2.088,0.14,-0.00,1.04,2.15,0.88,0.10,
2.089,0.14,-0.00,1.04,2.28,0.33,0.84,
2.089,0.12,-0.01,1.01,2.28,0.33,0.84,
2.089,0.09,-0.02,0.98,2.28,0.33,0.84,
2.09,0.09,-0.02,0.98,1.82,0.02,0.53,
2.092,0.07,-0.02,0.96,1.82,0.02,0.53,
2.094,0.05,-0.02,0.94,1.82,0.02,0.53,
2.094,0.05,-0.02,0.94,1.31,-0.19,-0.01,
2.097,0.04,-0.03,0.93,1.31,-0.19,-0.01,
2.099,0.03,-0.02,0.92,1.31,-0.19,-0.01,
2.099,0.03,-0.02,0.92,0.87,-0.26,-0.44,
2.11,0.01,-0.02,0.91,0.87,-0.26,-0.44,
2.111,0.01,-0.02,0.90,0.87,-0.26,-0.44,
2.111,0.01,-0.02,0.90,0.62,-0.32,-0.70,
2.111,0.00,-0.02,0.90,0.62,-0.32,-0.70,
2.112,0.00,-0.02,0.90,0.40,-0.32,-0.87,
2.112,-0.01,-0.01,0.90,0.40,-0.32,-0.87,
2.112,-0.01,-0.01,0.90,0.40,-0.32,-0.87,
2.113,-0.01,-0.00,0.90,0.40,-0.32,-0.87,
2.114,-0.01,-0.00,0.90,0.28,-0.24,-0.96,
2.115,-0.02,-0.00,0.90,0.28,-0.24,-0.96,
2.125,-0.02,-0.00,0.90,0.28,-0.24,-0.96,
2.125,-0.02,-0.00,0.90,0.19,-0.16,-0.95,
2.126,-0.01,0.00,0.91,0.19,-0.16,-0.95,
2.126,-0.01,0.00,0.91,0.19,-0.16,-0.95,
2.126,-0.01,0.00,0.91,0.14,-0.11,-0.90,
2.126,-0.01,0.01,0.90,0.14,-0.11,-0.90,
2.128,-0.01,0.01,0.90,0.14,-0.11,-0.90,
2.128,-0.01,0.01,0.90,0.19,-0.09,-0.89,
2.13,-0.01,0.00,0.90,0.19,-0.09,-0.89,
2.134,-0.01,0.01,0.90,0.19,-0.09,-0.89,
2.134,-0.01,0.01,0.90,0.21,-0.05,-0.90,
2.142,-0.01,0.01,0.90,0.21,-0.05,-0.90,
2.143,-0.01,0.01,0.89,0.21,-0.05,-0.90,
2.143,-0.01,0.01,0.89,0.21,-0.07,-0.96,
2.143,-0.00,0.01,0.89,0.21,-0.07,-0.96,
2.146,0.01,0.02,0.90,0.21,-0.07,-0.96,
2.146,0.01,0.02,0.90,0.21,-0.05,-0.98,
2.146,0.01,0.02,0.90,0.21,-0.05,-0.98,
2.148,-0.00,0.02,0.89,0.21,-0.05,-0.98,
2.148,-0.00,0.02,0.89,0.29,-0.01,-0.98,
2.157,-0.00,0.02,0.89,0.29,-0.01,-0.98,
2.158,-0.00,0.02,0.89,0.29,-0.01,-0.98,
2.158,-0.00,0.02,0.89,0.27,0.04,-0.99,
2.158,-0.01,0.02,0.89,0.27,0.04,-0.99,
2.158,-0.01,0.02,0.89,0.20,0.06,-1.01,
2.159,-0.01,0.02,0.90,0.20,0.06,-1.01,
2.16,-0.02,0.03,0.90,0.20,0.06,-1.01,
2.163,-0.01,0.03,0.90,0.20,0.06,-1.01,
2.163,-0.01,0.03,0.90,0.13,0.06,-0.99,
2.165,-0.02,0.04,0.90,0.13,0.06,-0.99,
2.171,-0.01,0.04,0.91,0.13,0.06,-0.99,
2.172,-0.01,0.04,0.91,0.05,0.14,-0.92,
2.172,-0.01,0.04,0.89,0.05,0.14,-0.92,
2.173,0.00,0.04,0.90,0.05,0.14,-0.92,
2.173,0.00,0.04,0.90,0.02,0.17,-0.89,
2.175,0.02,0.05,0.89,0.02,0.17,-0.89,
2.178,0.03,0.05,0.88,0.02,0.17,-0.89,
2.178,0.03,0.05,0.88,0.14,0.19,-0.98,
2.18,0.04,0.05,0.87,0.14,0.19,-0.98,
2.183,0.04,0.05,0.87,0.39,0.29,-1.07,
2.183,0.05,0.04,0.87,0.39,0.29,-1.07,
2.189,0.05,0.04,0.87,0.39,0.29,-1.07,
2.19,0.05,0.04,0.87,0.39,0.29,-1.07,
2.19,0.05,0.04,0.87,0.57,0.24,-1.17,
2.19,0.05,0.03,0.88,0.57,0.24,-1.17,
2.193,0.04,0.02,0.89,0.57,0.24,-1.17,
2.193,0.04,0.02,0.89,0.63,0.18,-1.17,
2.195,0.02,0.01,0.90,0.63,0.18,-1.17,
2.198,-0.01,-0.00,0.92,0.63,0.18,-1.17,
2.198,-0.01,-0.00,0.92,0.52,0.04,-1.07,
2.212,-0.02,-0.01,0.94,0.52,0.04,-1.07,
2.212,-0.03,-0.03,0.97,0.52,0.04,-1.07,
2.213,-0.03,-0.03,0.97,0.16,-0.14,-0.82,
2.213,-0.04,-0.04,0.98,0.16,-0.14,-0.82,
2.213,-0.04,-0.04,0.98,-0.16,-0.38,-0.40,
2.213,-0.03,-0.06,1.00,-0.16,-0.38,-0.40,
2.214,-0.03,-0.07,1.02,-0.16,-0.38,-0.40,
2.214,-0.03,-0.07,1.03,-0.16,-0.38,-0.40,
2.214,-0.03,-0.07,1.03,-0.22,-0.68,-0.04,
2.215,-0.04,-0.07,1.02,-0.22,-0.68,-0.04,
2.217,-0.05,-0.06,1.03,-0.22,-0.68,-0.04,
2.217,-0.05,-0.06,1.03,-0.20,-0.87,0.26,
2.224,-0.07,-0.05,1.04,-0.20,-0.87,0.26,
2.225,-0.09,-0.04,1.03,-0.20,-0.87,0.26,
2.225,-0.09,-0.04,1.03,-0.33,-0.76,0.34,
2.225,-0.09,-0.03,1.04,-0.33,-0.76,0.34,
2.227,-0.10,-0.03,1.04,-0.33,-0.76,0.34,
2.228,-0.10,-0.03,1.04,-0.66,-0.58,0.38,
2.23,-0.10,-0.03,1.05,-0.66,-0.58,0.38,
2.232,-0.10,-0.03,1.05,-0.66,-0.58,0.38,
2.233,-0.10,-0.03,1.05,-0.83,-0.43,0.47,
2.242,-0.10,-0.02,1.06,-0.83,-0.43,0.47,
2.243,-0.10,-0.02,1.06,-0.83,-0.43,0.47,
2.243,-0.10,-0.02,1.06,-0.87,-0.39,0.56,
2.243,-0.09,-0.02,1.06,-0.87,-0.39,0.56,
2.243,-0.09,-0.02,1.05,-0.87,-0.39,0.56,
2.243,-0.09,-0.02,1.05,-0.84,-0.35,0.63,
2.245,-0.08,-0.01,1.05,-0.84,-0.35,0.63,
2.247,-0.08,-0.01,1.05,-0.84,-0.35,0.63,
2.247,-0.08,-0.01,1.05,-0.78,-0.35,0.59,
2.25,-0.07,-0.01,1.04,-0.78,-0.35,0.59,
2.257,-0.06,-0.01,1.03,-0.78,-0.35,0.59,
2.258,-0.06,-0.01,1.03,-0.68,-0.28,0.55,
2.258,-0.06,-0.01,1.03,-0.68,-0.28,0.55,
2.258,-0.06,-0.01,1.03,-0.57,-0.27,0.41,
2.259,-0.04,-0.01,1.02,-0.57,-0.27,0.41,
2.259,-0.03,-0.00,1.02,-0.57,-0.27,0.41,
2.262,-0.02,0.00,1.01,-0.57,-0.27,0.41,
2.262,-0.02,0.00,1.01,-0.42,-0.22,0.31,
2.265,-0.01,0.01,1.01,-0.42,-0.22,0.31,
2.266,-0.00,0.01,1.01,-0.42,-0.22,0.31,
2.267,-0.00,0.01,1.01,-0.15,-0.15,0.20,
2.273,0.01,0.02,1.00,-0.15,-0.15,0.20,
2.273,0.02,0.02,1.00,-0.15,-0.15,0.20,
2.273,0.02,0.02,1.00,0.01,-0.11,0.12,
2.274,0.02,0.02,0.99,0.01,-0.11,0.12,
2.276,0.02,0.03,0.99,0.01,-0.11,0.12,
2.277,0.02,0.03,0.99,0.21,-0.01,0.04,
2.279,0.02,0.04,0.99,0.21,-0.01,0.04,
2.281,0.02,0.04,0.99,0.21,-0.01,0.04,
2.281,0.02,0.04,0.99,0.26,0.09,-0.03,
2.289,0.02,0.05,0.99,0.26,0.09,-0.03,
2.29,0.02,0.05,0.99,0.26,0.09,-0.03,
2.29,0.02,0.05,0.99,0.28,0.19,-0.03,
2.29,0.02,0.05,0.99,0.28,0.19,-0.03,
2.291,0.01,0.05,0.99,0.28,0.19,-0.03,
2.291,0.01,0.05,0.99,0.26,0.26,-0.05,
2.294,0.01,0.06,0.99,0.26,0.26,-0.05,
2.296,0.01,0.06,0.99,0.26,0.26,-0.05,
2.297,0.01,0.06,0.99,0.22,0.30,-0.05,
2.298,0.00,0.05,0.99,0.22,0.30,-0.05,
2.314,-0.01,0.05,0.99,0.22,0.30,-0.05,
2.315,-0.01,0.05,0.99,0.20,0.37,-0.04,
2.315,-0.01,0.05,0.99,0.20,0.37,-0.04,
2.315,-0.02,0.04,0.99,0.20,0.37,-0.04,
2.318,-0.02,0.04,0.99,0.06,0.32,-0.02,
2.319,-0.02,0.03,1.00,0.06,0.32,-0.02,
2.319,-0.03,0.02,1.00,0.06,0.32,-0.02,
2.32,-0.03,0.02,1.00,-0.07,0.24,-0.05,
2.32,-0.04,0.02,1.01,-0.07,0.24,-0.05,
2.321,-0.05,0.01,1.02,-0.07,0.24,-0.05,
2.321,-0.05,0.01,1.02,-0.20,0.06,0.08,
2.322,-0.05,0.00,1.03,-0.20,0.06,0.08,
2.323,-0.06,-0.00,1.04,-0.20,0.06,0.08,
2.323,-0.06,-0.00,1.04,-0.37,-0.04,0.23,
2.323,-0.06,-0.00,1.04,-0.37,-0.04,0.23,
2.327,-0.06,-0.00,1.05,-0.37,-0.04,0.23,
2.327,-0.06,-0.00,1.05,-0.49,-0.18,0.42,
2.328,-0.05,-0.00,1.05,-0.49,-0.18,0.42,
2.331,-0.05,-0.00,1.05,-0.49,-0.21,0.50,
2.331,-0.04,0.00,1.05,-0.49,-0.21,0.50,
2.333,-0.03,-0.00,1.06,-0.49,-0.21,0.50,
2.342,-0.02,0.00,1.06,-0.49,-0.21,0.50,
2.343,-0.02,0.00,1.06,-0.41,-0.18,0.58,
2.343,-0.02,0.01,1.07,-0.41,-0.18,0.58,
2.343,-0.01,0.01,1.07,-0.41,-0.18,0.58,
2.343,-0.01,0.01,1.07,-0.26,-0.18,0.68,
2.343,-0.00,0.02,1.06,-0.26,-0.18,0.68,
2.346,-0.00,0.02,1.07,-0.26,-0.18,0.68,
2.346,-0.00,0.02,1.07,-0.13,-0.07,0.73,
2.349,-0.00,0.03,1.07,-0.13,-0.07,0.73,
2.357,-0.01,0.03,1.07,-0.13,-0.07,0.73,
2.358,-0.01,0.03,1.07,-0.03,0.01,0.71,
2.358,-0.01,0.03,1.08,-0.03,0.01,0.71,
2.358,-0.01,0.02,1.08,-0.03,0.01,0.71,
2.358,-0.01,0.02,1.08,-0.08,0.08,0.75,
2.358,-0.01,0.02,1.07,-0.08,0.08,0.75,
2.361,-0.02,0.02,1.07,-0.08,0.08,0.75,
2.361,-0.02,0.02,1.07,-0.11,0.05,0.80,
2.363,-0.02,0.01,1.07,-0.11,0.05,0.80,
2.366,-0.03,0.01,1.05,-0.11,0.05,0.80,
2.366,-0.03,0.01,1.05,-0.22,-0.00,0.76,
2.368,-0.03,0.01,1.05,-0.22,-0.00,0.76,
2.373,-0.03,0.01,1.05,-0.22,-0.00,0.76,
2.374,-0.03,0.01,1.05,-0.32,-0.12,0.65,
2.374,-0.04,0.01,1.04,-0.32,-0.12,0.65,
2.376,-0.04,0.01,1.03,-0.32,-0.12,0.65,
2.376,-0.04,0.01,1.03,-0.44,-0.15,0.54,
2.378,-0.04,0.01,1.03,-0.44,-0.15,0.54,
2.381,-0.03,0.02,1.02,-0.44,-0.15,0.54,
2.381,-0.03,0.02,1.02,-0.50,-0.14,0.39,
2.383,-0.03,0.01,1.02,-0.50,-0.14,0.39,
2.391,-0.02,0.01,1.02,-0.50,-0.14,0.39,
2.391,-0.02,0.01,1.02,-0.49,-0.14,0.32,
2.392,-0.01,0.02,1.01,-0.49,-0.14,0.32,
2.392,-0.01,0.02,1.00,-0.49,-0.14,0.32,
2.392,-0.01,0.02,1.00,-0.40,-0.17,0.23,
2.393,0.01,0.02,1.00,-0.40,-0.17,0.23,
2.396,0.01,0.02,0.99,-0.40,-0.17,0.23,
2.396,0.01,0.02,0.99,-0.26,-0.14,0.10,
2.398,0.02,0.03,0.99,-0.26,-0.14,0.10,
2.401,0.03,0.02,0.99,-0.26,-0.14,0.10,
2.401,0.03,0.02,0.99,-0.07,-0.12,0.00,
2.406,0.03,0.02,1.00,-0.07,-0.12,0.00,
2.407,0.03,0.03,0.99,-0.07,-0.12,0.00,
2.407,0.03,0.03,0.99,0.05,-0.08,-0.01,
2.407,0.04,0.03,0.99,0.05,-0.08,-0.01,
2.41,0.04,0.03,0.99,0.05,-0.08,-0.01,
2.411,0.04,0.03,0.99,0.12,-0.10,-0.02,
2.413,0.04,0.03,0.99,0.12,-0.10,-0.02,
2.416,0.04,0.03,0.99,0.12,-0.10,-0.02,
2.416,0.04,0.03,0.99,0.19,-0.06,-0.03,
2.428,0.04,0.03,0.99,0.19,-0.06,-0.03,
2.429,0.04,0.04,0.99,0.19,-0.06,-0.03,
2.429,0.04,0.04,0.99,0.18,-0.06,-0.03,
2.429,0.04,0.04,0.99,0.18,-0.06,-0.03,
2.43,0.03,0.04,0.99,0.18,-0.06,-0.03,
2.43,0.03,0.04,0.99,0.18,-0.01,-0.04,
2.43,0.03,0.04,0.99,0.18,-0.01,-0.04,
2.43,0.03,0.04,0.98,0.18,-0.01,-0.04,
2.43,0.03,0.04,0.98,0.07,0.00,-0.05,
2.433,0.02,0.04,0.98,0.07,0.00,-0.05,
2.435,0.02,0.04,0.97,0.07,0.00,-0.05,
2.435,0.02,0.04,0.97,0.04,-0.02,-0.08,
2.442,0.01,0.04,0.98,0.04,-0.02,-0.08,
2.443,-0.00,0.04,0.98,0.04,-0.02,-0.08,
2.443,-0.00,0.04,0.98,-0.10,-0.03,-0.18,
2.443,-0.00,0.04,0.97,-0.10,-0.03,-0.18,
2.445,-0.00,0.04,0.97,-0.10,-0.03,-0.18,
2.446,-0.00,0.04,0.97,-0.26,-0.05,-0.17,
2.448,-0.00,0.03,0.96,-0.26,-0.05,-0.17,
2.45,-0.00,0.03,0.97,-0.26,-0.05,-0.17,
2.451,-0.00,0.03,0.97,-0.36,-0.07,-0.22,
2.46,-0.00,0.03,0.96,-0.36,-0.07,-0.22,
2.461,-0.00,0.03,0.96,-0.36,-0.07,-0.22,
2.461,-0.00,0.03,0.96,-0.40,-0.12,-0.28,
2.462,0.00,0.04,0.95,-0.40,-0.12,-0.28,
2.462,0.00,0.04,0.95,-0.40,-0.12,-0.28,
2.462,0.00,0.04,0.95,-0.38,-0.15,-0.35,
2.462,0.01,0.04,0.96,-0.38,-0.15,-0.35,
2.464,0.02,0.04,0.95,-0.38,-0.15,-0.35,
2.465,0.02,0.04,0.95,-0.35,-0.12,-0.39,
2.467,0.03,0.04,0.95,-0.35,-0.12,-0.39,
2.475,0.03,0.04,0.96,-0.35,-0.12,-0.39,
2.476,0.03,0.04,0.96,-0.22,-0.08,-0.38,
2.478,0.03,0.04,0.96,-0.22,-0.08,-0.38,
2.478,0.04,0.03,0.97,-0.22,-0.08,-0.38,
2.478,0.04,0.03,0.97,-0.14,-0.08,-0.38,
2.479,0.05,0.03,0.97,-0.14,-0.08,-0.38,
2.48,0.05,0.03,0.99,-0.14,-0.08,-0.38,
2.48,0.05,0.03,0.99,-0.07,-0.12,-0.31,
2.482,0.05,0.04,1.00,-0.07,-0.12,-0.31,
2.484,0.05,0.04,1.01,-0.07,-0.12,-0.31,
2.484,0.05,0.04,1.01,0.04,-0.17,-0.13,
2.491,0.05,0.04,1.02,0.04,-0.17,-0.13,
2.492,0.05,0.04,1.02,0.04,-0.17,-0.13,
2.492,0.05,0.04,1.02,0.06,-0.13,0.10,
2.492,0.04,0.04,1.03,0.06,-0.13,0.10,
2.494,0.04,0.04,1.03,0.06,-0.13,0.10,
2.494,0.04,0.04,1.03,0.03,-0.10,0.26,
2.497,0.03,0.04,1.02,0.03,-0.10,0.26,
2.499,0.02,0.03,1.02,0.03,-0.10,0.26,
2.499,0.02,0.03,1.02,-0.05,-0.10,0.33,
2.508,0.01,0.03,1.02,-0.05,-0.10,0.33,
2.508,0.01,0.02,1.02,-0.05,-0.10,0.33,
2.508,0.01,0.02,1.02,-0.21,-0.17,0.28,
2.509,0.00,0.02,1.02,-0.21,-0.17,0.28,
2.509,-0.00,0.02,1.02,-0.21,-0.17,0.28,
2.509,-0.00,0.02,1.02,-0.35,-0.27,0.28,
2.511,-0.01,0.02,1.01,-0.35,-0.27,0.28,
2.514,-0.02,0.02,1.01,-0.35,-0.27,0.28,
2.514,-0.02,0.02,1.01,-0.51,-0.34,0.23,
2.516,-0.02,0.03,1.00,-0.51,-0.34,0.23,
2.53,-0.02,0.03,1.00,-0.51,-0.34,0.23,
2.531,-0.02,0.03,1.00,-0.66,-0.32,0.16,
2.531,-0.01,0.02,1.00,-0.66,-0.32,0.16,
2.531,-0.01,0.02,1.00,-0.66,-0.32,0.16,
2.531,-0.01,0.02,1.00,-0.72,-0.28,0.09,
2.532,-0.01,0.03,0.99,-0.72,-0.28,0.09,
2.532,-0.01,0.03,0.99,-0.69,-0.34,0.06,
2.532,-0.02,0.05,0.90,-0.69,-0.34,0.06,
2.532,0.00,0.09,0.76,-0.69,-0.34,0.06,
2.534,0.08,0.13,0.68,-0.69,-0.34,0.06,
2.535,0.08,0.13,0.68,-0.76,-0.16,-0.49,
2.543,0.14,0.14,0.69,-0.76,-0.16,-0.49,
2.544,0.17,0.13,0.73,-0.76,-0.16,-0.49,
2.544,0.17,0.13,0.73,-0.19,0.52,-2.64,
2.544,0.18,0.12,0.79,-0.19,0.52,-2.64,
2.544,0.19,0.11,0.85,-0.19,0.52,-2.64,
2.545,0.19,0.11,0.85,0.94,0.73,-2.74,
2.546,0.22,0.11,0.90,0.94,0.73,-2.74,
2.549,0.24,0.11,0.96,0.94,0.73,-2.74,
2.549,0.24,0.11,0.96,1.23,0.60,-1.69,
2.561,0.25,0.11,1.00,1.23,0.60,-1.69,
2.562,0.23,0.11,1.03,1.23,0.60,-1.69,
2.562,0.23,0.11,1.03,1.69,0.54,-0.62,
2.562,0.21,0.10,1.05,1.69,0.54,-0.62,
2.563,0.18,0.09,1.06,1.69,0.54,-0.62,
2.563,0.18,0.09,1.06,1.76,0.53,0.23,
2.563,0.15,0.09,1.08,1.76,0.53,0.23,
2.563,0.13,0.08,1.09,1.76,0.53,0.23,
2.564,0.13,0.08,1.09,1.34,0.44,0.63,
2.576,0.10,0.07,1.09,1.34,0.44,0.63,
2.577,0.08,0.06,1.10,1.34,0.44,0.63,
2.577,0.08,0.06,1.10,0.80,0.33,0.92,
2.578,0.07,0.05,1.10,0.80,0.33,0.92,
2.578,0.04,0.04,1.10,0.80,0.33,0.92,
2.578,0.04,0.04,1.10,0.37,0.13,0.98,
2.578,0.03,0.03,1.09,0.37,0.13,0.98,
2.578,0.01,0.03,1.08,0.37,0.13,0.98,
2.579,0.01,0.03,1.08,0.02,-0.06,1.04,
2.582,0.00,0.02,1.06,0.02,-0.06,1.04,
2.584,-0.01,0.02,1.05,0.02,-0.06,1.04,
2.584,-0.01,0.02,1.05,-0.31,-0.18,0.91,
2.592,-0.01,0.02,1.04,-0.31,-0.18,0.91,
2.593,-0.01,0.02,1.03,-0.31,-0.18,0.91,
2.593,-0.01,0.02,1.03,-0.54,-0.28,0.62,
2.593,-0.00,0.02,1.03,-0.54,-0.28,0.62,
2.593,-0.00,0.02,1.04,-0.54,-0.28,0.62,
2.594,-0.00,0.02,1.04,-0.60,-0.27,0.45,
2.595,0.01,0.02,1.04,-0.60,-0.27,0.45,
2.599,0.01,0.03,1.05,-0.60,-0.27,0.45,
2.599,0.01,0.03,1.05,-0.56,-0.26,0.42,
2.601,0.03,0.04,1.05,-0.56,-0.26,0.42,
2.608,0.04,0.03,1.06,-0.56,-0.26,0.42,
2.609,0.04,0.03,1.06,-0.48,-0.25,0.53,
2.609,0.05,0.03,1.07,-0.48,-0.25,0.53,
2.609,0.08,0.01,1.06,-0.48,-0.25,0.53,
2.609,0.08,0.01,1.06,-0.25,-0.17,0.62,
2.611,0.11,-0.01,1.05,-0.25,-0.17,0.62,
2.614,0.11,0.00,1.03,-0.25,-0.17,0.62,
2.614,0.11,0.00,1.03,0.07,-0.33,0.69,
2.616,0.10,0.02,1.02,0.07,-0.33,0.69,
2.619,0.09,0.03,1.01,0.07,-0.33,0.69,
2.619,0.09,0.03,1.01,0.43,-0.57,0.47,
2.631,0.09,0.03,1.01,0.43,-0.57,0.47,
2.632,0.08,0.04,1.01,0.43,-0.57,0.47,
2.632,0.08,0.04,1.01,0.24,-0.31,0.26,
2.632,0.08,0.04,1.00,0.24,-0.31,0.26,
2.632,0.08,0.04,1.00,0.14,-0.18,0.18,
2.633,0.08,0.04,1.00,0.14,-0.18,0.18,
2.633,0.09,0.04,1.00,0.14,-0.18,0.18,
2.633,0.09,0.04,0.99,0.14,-0.18,0.18,
2.633,0.09,0.04,0.99,0.09,-0.15,0.13,
2.635,0.10,0.04,0.99,0.09,-0.15,0.13,
2.643,0.11,0.05,0.99,0.09,-0.15,0.13,
2.644,0.11,0.05,0.99,0.16,-0.19,0.04,
2.645,0.12,0.05,0.99,0.16,-0.19,0.04,
2.645,0.12,0.06,1.00,0.16,-0.19,0.04,
2.645,0.12,0.06,1.00,0.28,-0.16,0.00,
2.646,0.13,0.06,1.00,0.28,-0.16,0.00,
