
time,gFx,gFy,gFz,ax,ay,az,
0.009,0.10,0.31,1.17,0.96,0.25,1.02,
0.009,0.07,0.31,1.18,0.96,0.25,1.02,
0.01,0.07,0.31,1.18,1.26,0.26,1.77,
0.01,0.05,0.31,1.18,1.26,0.26,1.77,
0.01,0.02,0.31,1.17,1.26,0.26,1.77,
0.01,0.02,0.31,1.17,0.49,0.05,1.88,
0.01,-0.00,0.31,1.15,0.49,0.05,1.88,
0.011,-0.01,0.31,1.14,0.49,0.05,1.88,
0.011,-0.01,0.31,1.14,-0.06,-0.03,1.86,
0.011,-0.01,0.31,1.13,-0.06,-0.03,1.86,
0.011,-0.00,0.31,1.12,-0.06,-0.03,1.86,
0.012,-0.00,0.31,1.12,-0.45,-0.04,1.59,
0.018,0.03,0.31,1.09,-0.45,-0.04,1.59,
0.018,0.13,0.33,0.95,-0.45,-0.04,1.59,
0.018,0.13,0.33,0.95,-0.46,-0.08,1.40,
0.019,0.15,0.34,0.92,-0.46,-0.08,1.40,
0.026,0.13,0.33,0.97,-0.46,-0.08,1.40,
0.027,0.13,0.33,0.97,0.34,0.03,0.37,
0.027,0.11,0.34,1.00,0.34,0.03,0.37,
0.027,0.11,0.34,1.00,0.86,0.18,-0.36,
0.027,0.11,0.34,1.01,0.86,0.18,-0.36,
0.028,0.11,0.35,1.03,0.86,0.18,-0.36,
0.031,0.12,0.35,1.06,0.86,0.18,-0.36,
0.031,0.12,0.35,1.06,0.60,0.25,0.25,
0.033,0.13,0.35,1.07,0.60,0.25,0.25,
0.04,0.13,0.34,1.08,0.60,0.25,0.25,
0.04,0.13,0.34,1.08,0.59,0.32,0.64,
0.04,0.14,0.34,1.10,0.59,0.32,0.64,
0.04,0.14,0.34,1.10,0.59,0.32,0.64,
0.041,0.14,0.34,1.10,0.70,0.28,0.95,
0.044,0.15,0.34,1.10,0.70,0.28,0.95,
0.046,0.15,0.34,1.11,0.70,0.28,0.95,
0.046,0.15,0.34,1.11,0.79,0.19,1.15,
0.049,0.15,0.34,1.11,0.79,0.19,1.15,
0.051,0.15,0.34,1.11,0.91,0.17,1.19,
0.051,0.14,0.34,1.12,0.91,0.17,1.19,
0.06,0.13,0.35,1.12,0.91,0.17,1.19,
0.061,0.12,0.35,1.11,0.91,0.17,1.19,
0.061,0.12,0.35,1.11,0.84,0.19,1.29,
0.061,0.11,0.36,1.11,0.84,0.19,1.29,
0.061,0.11,0.36,1.11,0.84,0.19,1.29,
0.061,0.11,0.36,1.11,0.68,0.30,1.27,
0.064,0.10,0.36,1.10,0.68,0.30,1.27,
0.066,0.10,0.36,1.09,0.68,0.30,1.27,
0.066,0.10,0.36,1.09,0.53,0.34,1.19,
0.068,0.10,0.36,1.07,0.53,0.34,1.19,
0.077,0.10,0.35,1.07,0.53,0.34,1.19,
0.077,0.10,0.35,1.07,0.50,0.33,1.08,
0.078,0.11,0.35,1.06,0.50,0.33,1.08,
0.078,0.11,0.35,1.06,0.52,0.30,0.84,
0.078,0.11,0.35,1.04,0.52,0.30,0.84,
0.078,0.11,0.34,1.03,0.52,0.30,0.84,
0.081,0.11,0.34,1.03,0.58,0.22,0.61,
0.082,0.11,0.34,1.02,0.58,0.22,0.61,
0.084,0.11,0.33,1.00,0.58,0.22,0.61,
0.099,0.11,0.33,0.99,0.58,0.22,0.61,
0.1,0.11,0.33,0.99,0.64,0.09,0.37,
0.1,0.10,0.33,0.99,0.64,0.09,0.37,
0.1,0.10,0.32,0.98,0.64,0.09,0.37,
0.1,0.10,0.32,0.98,0.65,-0.01,0.12,
0.101,0.10,0.32,0.97,0.65,-0.01,0.12,
0.101,0.10,0.32,0.97,0.65,-0.01,0.12,
0.101,0.10,0.32,0.97,0.61,-0.12,-0.01,
0.101,0.10,0.32,0.96,0.61,-0.12,-0.01,
0.101,0.10,0.31,0.97,0.61,-0.12,-0.01,
0.102,0.10,0.31,0.97,0.55,-0.18,-0.13,
0.104,0.09,0.31,0.97,0.55,-0.18,-0.13,
0.107,0.09,0.31,0.97,0.55,-0.18,-0.13,
0.107,0.09,0.31,0.97,0.57,-0.25,-0.17,
0.108,0.10,0.31,0.97,0.57,-0.25,-0.17,
0.11,0.10,0.31,0.98,0.57,-0.25,-0.17,
0.11,0.10,0.31,0.98,0.54,-0.29,-0.14,
0.113,0.10,0.31,0.98,0.54,-0.29,-0.14,
0.116,0.10,0.32,0.97,0.54,-0.29,-0.14,
0.116,0.10,0.32,0.97,0.60,-0.31,-0.05,
0.118,0.09,0.32,0.99,0.60,-0.31,-0.05,
0.124,0.10,0.32,0.98,0.60,-0.31,-0.05,
0.125,0.10,0.32,0.98,0.58,-0.29,-0.04,
0.125,0.09,0.32,0.98,0.58,-0.29,-0.04,
0.126,0.09,0.33,0.98,0.58,-0.29,-0.04,
0.126,0.09,0.33,0.98,0.57,-0.29,0.05,
0.13,0.10,0.33,0.98,0.57,-0.29,0.05,
0.131,0.09,0.33,0.98,0.57,-0.29,0.05,
0.131,0.09,0.33,0.98,0.55,-0.26,0.04,
0.133,0.09,0.33,0.97,0.55,-0.26,0.04,
0.137,0.09,0.33,0.97,0.55,-0.26,0.04,
0.138,0.09,0.33,0.97,0.55,-0.26,0.03,
0.138,0.09,0.33,0.96,0.55,-0.26,0.03,
0.139,0.09,0.33,0.95,0.55,-0.26,0.03,
0.14,0.09,0.33,0.95,0.54,-0.25,-0.05,
0.142,0.09,0.34,0.95,0.54,-0.25,-0.05,
0.144,0.09,0.33,0.94,0.54,-0.25,-0.05,
0.145,0.09,0.33,0.94,0.52,-0.25,-0.16,
0.147,0.09,0.33,0.93,0.52,-0.25,-0.16,
0.15,0.08,0.33,0.92,0.52,-0.25,-0.16,
0.15,0.08,0.33,0.92,0.55,-0.25,-0.31,
0.152,0.08,0.32,0.91,0.55,-0.25,-0.31,
0.154,0.08,0.32,0.90,0.55,-0.25,-0.31,
0.155,0.08,0.32,0.90,0.49,-0.32,-0.46,
0.157,0.08,0.32,0.89,0.49,-0.32,-0.46,
0.16,0.07,0.32,0.88,0.49,-0.32,-0.46,
0.16,0.07,0.32,0.88,0.48,-0.40,-0.69,
0.162,0.06,0.31,0.87,0.48,-0.40,-0.69,
0.165,0.06,0.31,0.86,0.48,-0.40,-0.69,
0.166,0.06,0.31,0.86,0.43,-0.47,-0.81,
0.168,0.06,0.31,0.86,0.43,-0.47,-0.81,
0.17,0.05,0.31,0.85,0.43,-0.47,-0.81,
0.17,0.05,0.31,0.85,0.36,-0.53,-1.00,
0.173,0.05,0.30,0.85,0.36,-0.53,-1.00,
0.175,0.05,0.30,0.84,0.36,-0.53,-1.00,
0.175,0.05,0.30,0.84,0.32,-0.57,-1.12,
0.178,0.05,0.30,0.83,0.32,-0.57,-1.12,
0.18,0.05,0.29,0.83,0.32,-0.57,-1.12,
0.181,0.05,0.29,0.83,0.30,-0.62,-1.20,
0.183,0.05,0.29,0.83,0.30,-0.62,-1.20,
0.185,0.05,0.29,0.83,0.30,-0.62,-1.20,
0.186,0.05,0.29,0.83,0.27,-0.69,-1.33,
0.189,0.05,0.29,0.83,0.27,-0.69,-1.33,
0.19,0.05,0.29,0.83,0.27,-0.69,-1.33,
0.19,0.05,0.29,0.83,0.32,-0.71,-1.34,
0.192,0.05,0.29,0.82,0.32,-0.71,-1.34,
0.196,0.05,0.29,0.83,0.32,-0.71,-1.34,
0.196,0.05,0.29,0.83,0.39,-0.71,-1.34,
0.198,0.06,0.29,0.82,0.39,-0.71,-1.34,
0.2,0.06,0.29,0.82,0.39,-0.71,-1.34,
0.2,0.06,0.29,0.82,0.43,-0.76,-1.36,
0.202,0.06,0.28,0.82,0.43,-0.76,-1.36,
0.205,0.06,0.28,0.82,0.43,-0.76,-1.36,
0.206,0.06,0.28,0.82,0.54,-0.76,-1.39,
0.208,0.07,0.28,0.82,0.54,-0.76,-1.39,
0.21,0.07,0.28,0.81,0.54,-0.76,-1.39,
0.21,0.07,0.28,0.81,0.59,-0.79,-1.41,
0.213,0.07,0.28,0.80,0.59,-0.79,-1.41,
0.218,0.07,0.28,0.81,0.59,-0.79,-1.41,
0.219,0.07,0.28,0.81,0.68,-0.81,-1.46,
0.219,0.07,0.28,0.80,0.68,-0.81,-1.46,
0.225,0.07,0.28,0.80,0.68,-0.81,-1.46,
0.226,0.07,0.28,0.80,0.75,-0.80,-1.53,
0.226,0.08,0.28,0.79,0.75,-0.80,-1.53,
0.226,0.08,0.28,0.79,0.73,-0.80,-1.54,
0.227,0.07,0.29,0.80,0.73,-0.80,-1.54,
0.227,0.06,0.28,0.79,0.73,-0.80,-1.54,
0.229,0.06,0.29,0.78,0.73,-0.80,-1.54,
0.23,0.06,0.29,0.78,0.78,-0.73,-1.61,
0.232,0.07,0.29,0.78,0.78,-0.73,-1.61,
0.235,0.06,0.29,0.79,0.78,-0.73,-1.61,
0.236,0.06,0.29,0.79,0.72,-0.70,-1.70,
0.237,0.06,0.30,0.78,0.72,-0.70,-1.70,
0.24,0.07,0.30,0.77,0.72,-0.70,-1.70,
0.24,0.07,0.30,0.77,0.74,-0.62,-1.71,
0.242,0.07,0.30,0.77,0.74,-0.62,-1.71,
0.244,0.06,0.31,0.78,0.74,-0.62,-1.71,
0.244,0.06,0.31,0.78,0.76,-0.54,-1.77,
0.247,0.07,0.31,0.78,0.76,-0.54,-1.77,
0.249,0.07,0.31,0.78,0.76,-0.54,-1.77,
0.249,0.07,0.31,0.78,0.81,-0.49,-1.76,
0.251,0.07,0.32,0.79,0.81,-0.49,-1.76,
0.256,0.08,0.33,0.79,0.81,-0.49,-1.76,
0.257,0.08,0.33,0.79,0.82,-0.39,-1.70,
0.258,0.09,0.33,0.80,0.82,-0.39,-1.70,
0.258,0.09,0.34,0.81,0.82,-0.39,-1.70,
0.259,0.09,0.34,0.81,0.92,-0.25,-1.64,
0.261,0.09,0.34,0.81,0.92,-0.25,-1.64,
0.264,0.10,0.35,0.82,0.92,-0.25,-1.64,
0.265,0.10,0.35,0.82,1.03,-0.16,-1.48,
0.267,0.10,0.35,0.83,1.03,-0.16,-1.48,
0.268,0.11,0.35,0.83,1.03,-0.16,-1.48,
0.269,0.11,0.35,0.83,1.11,-0.06,-1.34,
0.272,0.11,0.36,0.83,1.11,-0.06,-1.34,
0.273,0.11,0.36,0.84,1.11,-0.06,-1.34,
0.274,0.11,0.36,0.84,1.21,0.01,-1.21,
0.277,0.12,0.35,0.83,1.21,0.01,-1.21,
0.279,0.12,0.35,0.84,1.21,0.01,-1.21,
0.279,0.12,0.35,0.84,1.25,0.08,-1.12,
0.282,0.12,0.35,0.84,1.25,0.08,-1.12,
0.284,0.12,0.35,0.84,1.25,0.08,-1.12,
0.284,0.12,0.35,0.84,1.32,0.04,-1.14,
0.288,0.12,0.34,0.84,1.32,0.04,-1.14,
0.289,0.12,0.33,0.84,1.32,0.04,-1.14,
0.289,0.12,0.33,0.84,1.34,-0.03,-1.11,
0.291,0.13,0.33,0.83,1.34,-0.03,-1.11,
0.293,0.13,0.32,0.83,1.34,-0.03,-1.11,
0.294,0.13,0.32,0.83,1.37,-0.14,-1.10,
0.296,0.12,0.31,0.82,1.37,-0.14,-1.10,
0.299,0.12,0.31,0.82,1.43,-0.25,-1.18,
0.299,0.12,0.31,0.82,1.43,-0.25,-1.18,
0.301,0.12,0.31,0.82,1.43,-0.25,-1.18,
0.303,0.11,0.30,0.81,1.43,-0.25,-1.18,
0.304,0.11,0.30,0.81,1.37,-0.36,-1.31,
0.306,0.11,0.30,0.81,1.37,-0.36,-1.31,
0.308,0.11,0.30,0.81,1.37,-0.36,-1.31,
0.308,0.11,0.30,0.81,1.32,-0.44,-1.33,
0.311,0.10,0.30,0.81,1.32,-0.44,-1.33,
0.313,0.10,0.30,0.80,1.32,-0.44,-1.33,
0.313,0.10,0.30,0.80,1.26,-0.46,-1.38,
0.315,0.09,0.30,0.81,1.26,-0.46,-1.38,
0.318,0.09,0.30,0.80,1.26,-0.46,-1.38,
0.318,0.09,0.30,0.80,1.20,-0.49,-1.41,
0.32,0.09,0.30,0.80,1.20,-0.49,-1.41,
0.323,0.09,0.31,0.80,1.20,-0.49,-1.41,
0.324,0.09,0.31,0.80,1.10,-0.49,-1.39,
0.325,0.09,0.31,0.80,1.10,-0.49,-1.39,
0.328,0.09,0.31,0.81,1.10,-0.49,-1.39,
0.328,0.09,0.31,0.81,1.10,-0.42,-1.46,
0.33,0.09,0.31,0.80,1.10,-0.42,-1.46,
0.333,0.09,0.31,0.80,1.10,-0.42,-1.46,
0.333,0.09,0.31,0.80,1.09,-0.39,-1.39,
0.335,0.09,0.32,0.80,1.09,-0.39,-1.39,
0.338,0.09,0.32,0.81,1.09,-0.39,-1.39,
0.338,0.09,0.32,0.81,1.13,-0.36,-1.43,
0.34,0.10,0.32,0.81,1.13,-0.36,-1.43,
0.343,0.10,0.32,0.81,1.13,-0.36,-1.43,
0.343,0.10,0.32,0.81,1.15,-0.32,-1.36,
0.345,0.10,0.32,0.81,1.15,-0.32,-1.36,
0.347,0.10,0.33,0.82,1.15,-0.32,-1.36,
0.347,0.10,0.33,0.82,1.19,-0.27,-1.28,
0.35,0.09,0.33,0.83,1.19,-0.27,-1.28,
0.352,0.09,0.33,0.83,1.19,-0.27,-1.28,
0.352,0.09,0.33,0.83,1.17,-0.27,-1.23,
0.356,0.09,0.33,0.84,1.17,-0.27,-1.23,
0.357,0.09,0.33,0.84,1.17,-0.27,-1.23,
0.357,0.09,0.33,0.84,1.12,-0.20,-1.11,
0.36,0.09,0.33,0.85,1.12,-0.20,-1.11,
0.362,0.10,0.33,0.85,1.12,-0.20,-1.11,
0.362,0.10,0.33,0.85,1.09,-0.22,-1.01,
0.365,0.10,0.32,0.86,1.09,-0.22,-1.01,
0.367,0.10,0.32,0.86,1.09,-0.22,-1.01,
0.367,0.10,0.32,0.86,1.14,-0.22,-0.89,
0.37,0.10,0.32,0.87,1.14,-0.22,-0.89,
0.372,0.11,0.32,0.87,1.14,-0.22,-0.89,
0.373,0.11,0.32,0.87,1.18,-0.27,-0.79,
0.375,0.11,0.31,0.88,1.18,-0.27,-0.79,
0.377,0.11,0.31,0.88,1.24,-0.30,-0.66,
0.377,0.11,0.31,0.88,1.24,-0.30,-0.66,
0.38,0.11,0.30,0.88,1.24,-0.30,-0.66,
0.382,0.11,0.30,0.88,1.24,-0.30,-0.66,
0.382,0.11,0.30,0.88,1.25,-0.40,-0.59,
0.385,0.11,0.30,0.87,1.25,-0.40,-0.59,
0.387,0.11,0.30,0.88,1.25,-0.40,-0.59,
0.387,0.11,0.30,0.88,1.26,-0.47,-0.54,
0.39,0.10,0.30,0.88,1.26,-0.47,-0.54,
0.392,0.10,0.29,0.88,1.26,-0.47,-0.54,
0.392,0.10,0.29,0.88,1.24,-0.51,-0.58,
0.395,0.10,0.29,0.88,1.24,-0.51,-0.58,
0.397,0.09,0.29,0.88,1.24,-0.51,-0.58,
0.397,0.09,0.29,0.88,1.19,-0.57,-0.56,
0.4,0.09,0.29,0.88,1.19,-0.57,-0.56,
0.402,0.09,0.28,0.87,1.19,-0.57,-0.56,
0.402,0.09,0.28,0.87,1.09,-0.64,-0.56,
0.405,0.08,0.28,0.87,1.09,-0.64,-0.56,
0.407,0.08,0.28,0.86,1.09,-0.64,-0.56,
0.407,0.08,0.28,0.86,1.05,-0.69,-0.60,
0.41,0.08,0.28,0.86,1.05,-0.69,-0.60,
0.412,0.07,0.28,0.85,1.05,-0.69,-0.60,
0.412,0.07,0.28,0.85,0.96,-0.72,-0.71,
0.415,0.06,0.28,0.85,0.96,-0.72,-0.71,
0.418,0.05,0.27,0.84,0.96,-0.72,-0.71,
0.418,0.05,0.27,0.84,0.88,-0.76,-0.76,
0.423,0.05,0.28,0.84,0.88,-0.76,-0.76,
0.424,0.05,0.28,0.84,0.88,-0.76,-0.76,
0.424,0.05,0.28,0.84,0.73,-0.80,-0.88,
0.425,0.05,0.28,0.83,0.73,-0.80,-0.88,
0.427,0.04,0.28,0.82,0.73,-0.80,-0.88,
0.427,0.04,0.28,0.82,0.65,-0.81,-0.93,
0.43,0.03,0.28,0.82,0.65,-0.81,-0.93,
0.432,0.03,0.28,0.81,0.65,-0.81,-0.93,
0.433,0.03,0.28,0.81,0.63,-0.79,-1.05,
0.436,0.03,0.29,0.81,0.63,-0.79,-1.05,
0.438,0.03,0.28,0.80,0.63,-0.79,-1.05,
0.438,0.03,0.28,0.80,0.52,-0.80,-1.12,
0.44,0.03,0.29,0.80,0.52,-0.80,-1.12,
0.442,0.04,0.29,0.78,0.52,-0.80,-1.12,
0.442,0.04,0.29,0.78,0.51,-0.76,-1.20,
0.445,0.03,0.29,0.78,0.51,-0.76,-1.20,
0.447,0.03,0.29,0.78,0.53,-0.72,-1.37,
0.447,0.04,0.29,0.78,0.53,-0.72,-1.37,
0.449,0.04,0.30,0.77,0.53,-0.72,-1.37,
0.451,0.04,0.30,0.76,0.53,-0.72,-1.37,
0.452,0.04,0.30,0.76,0.54,-0.70,-1.45,
0.455,0.04,0.29,0.76,0.54,-0.70,-1.45,
0.456,0.05,0.30,0.75,0.54,-0.70,-1.45,
0.457,0.05,0.30,0.75,0.58,-0.68,-1.59,
0.459,0.05,0.29,0.75,0.58,-0.68,-1.59,
0.461,0.05,0.29,0.74,0.58,-0.68,-1.59,
0.462,0.05,0.29,0.74,0.63,-0.69,-1.66,
0.465,0.05,0.29,0.74,0.63,-0.69,-1.66,
0.467,0.06,0.29,0.73,0.63,-0.69,-1.66,
0.467,0.06,0.29,0.73,0.68,-0.73,-1.74,
0.469,0.06,0.29,0.73,0.68,-0.73,-1.74,
0.471,0.06,0.29,0.72,0.68,-0.73,-1.74,
0.472,0.06,0.29,0.72,0.72,-0.74,-1.85,
0.474,0.06,0.29,0.72,0.72,-0.74,-1.85,
0.478,0.06,0.29,0.72,0.72,-0.74,-1.85,
0.479,0.06,0.29,0.72,0.81,-0.78,-1.92,
0.479,0.06,0.29,0.72,0.81,-0.78,-1.92,
0.482,0.06,0.29,0.72,0.81,-0.78,-1.92,
0.482,0.06,0.29,0.72,0.78,-0.79,-1.97,
0.484,0.06,0.28,0.72,0.78,-0.79,-1.97,
0.487,0.06,0.28,0.72,0.78,-0.79,-1.97,
0.487,0.06,0.28,0.72,0.79,-0.79,-1.95,
0.49,0.06,0.29,0.73,0.79,-0.79,-1.95,
0.492,0.07,0.28,0.73,0.79,-0.79,-1.95,
0.493,0.07,0.28,0.73,0.80,-0.83,-1.91,
0.494,0.07,0.28,0.74,0.80,-0.83,-1.91,
0.497,0.08,0.28,0.75,0.80,-0.83,-1.91,
0.497,0.08,0.28,0.75,0.89,-0.81,-1.84,
0.499,0.08,0.29,0.75,0.89,-0.81,-1.84,
0.502,0.08,0.28,0.75,0.89,-0.81,-1.84,
0.503,0.08,0.28,0.75,0.95,-0.78,-1.70,
0.504,0.08,0.28,0.76,0.95,-0.78,-1.70,
0.507,0.08,0.29,0.76,0.95,-0.78,-1.70,
0.507,0.08,0.29,0.76,1.01,-0.77,-1.60,
0.508,0.08,0.29,0.76,1.01,-0.77,-1.60,
0.511,0.08,0.29,0.77,1.01,-0.77,-1.60,
0.512,0.08,0.29,0.77,1.01,-0.76,-1.52,
0.514,0.08,0.29,0.77,1.01,-0.76,-1.52,
0.516,0.08,0.28,0.77,1.01,-0.76,-1.52,
0.517,0.08,0.28,0.77,1.03,-0.73,-1.46,
0.519,0.08,0.28,0.77,1.03,-0.73,-1.46,
0.521,0.07,0.29,0.78,1.03,-0.73,-1.46,
0.522,0.07,0.29,0.78,1.00,-0.73,-1.40,
0.524,0.07,0.29,0.78,1.00,-0.73,-1.40,
0.526,0.07,0.29,0.78,1.00,-0.73,-1.40,
0.527,0.07,0.29,0.78,0.94,-0.73,-1.37,
0.529,0.06,0.29,0.79,0.94,-0.73,-1.37,
0.532,0.05,0.29,0.79,0.94,-0.73,-1.37,
0.532,0.05,0.29,0.79,0.89,-0.71,-1.32,
0.534,0.05,0.29,0.79,0.89,-0.71,-1.32,
0.536,0.04,0.28,0.79,0.89,-0.71,-1.32,
0.537,0.04,0.28,0.79,0.77,-0.69,-1.22,
0.538,0.03,0.28,0.79,0.77,-0.69,-1.22,
0.541,0.03,0.28,0.79,0.77,-0.69,-1.22,
0.541,0.03,0.28,0.79,0.66,-0.71,-1.21,
0.544,0.03,0.28,0.79,0.66,-0.71,-1.21,
0.546,0.02,0.27,0.79,0.66,-0.71,-1.21,
0.546,0.02,0.27,0.79,0.53,-0.73,-1.22,
0.549,0.02,0.27,0.79,0.53,-0.73,-1.22,
0.551,0.01,0.27,0.79,0.53,-0.73,-1.22,
0.551,0.01,0.27,0.79,0.44,-0.78,-1.21,
0.553,0.01,0.26,0.79,0.44,-0.78,-1.21,
0.56,0.00,0.26,0.78,0.44,-0.78,-1.21,
0.561,0.00,0.26,0.78,0.35,-0.84,-1.21,
0.561,0.00,0.25,0.78,0.35,-0.84,-1.21,
0.561,-0.00,0.25,0.78,0.35,-0.84,-1.21,
0.561,-0.00,0.25,0.78,0.29,-0.93,-1.24,
0.563,-0.00,0.25,0.78,0.29,-0.93,-1.24,
0.566,-0.01,0.25,0.78,0.29,-0.93,-1.24,
0.566,-0.01,0.25,0.78,0.24,-1.03,-1.25,
0.569,-0.01,0.25,0.77,0.24,-1.03,-1.25,
0.571,-0.01,0.24,0.77,0.24,-1.03,-1.25,
0.573,-0.01,0.24,0.77,0.18,-1.06,-1.29,
0.573,-0.01,0.23,0.77,0.18,-1.06,-1.29,
0.576,-0.01,0.23,0.77,0.18,-1.06,-1.29,
0.576,-0.01,0.23,0.77,0.12,-1.11,-1.32,
0.578,-0.02,0.23,0.76,0.12,-1.11,-1.32,
0.581,-0.02,0.23,0.76,0.09,-1.19,-1.34,
0.581,-0.02,0.23,0.77,0.09,-1.19,-1.34,
0.584,-0.02,0.23,0.76,0.09,-1.19,-1.34,
0.586,-0.03,0.23,0.76,0.09,-1.19,-1.34,
0.586,-0.03,0.23,0.76,0.04,-1.20,-1.38,
0.588,-0.04,0.23,0.77,0.04,-1.20,-1.38,
0.591,-0.04,0.23,0.77,0.04,-1.20,-1.38,
0.592,-0.04,0.23,0.77,-0.03,-1.18,-1.38,
0.593,-0.04,0.23,0.77,-0.03,-1.18,-1.38,
0.595,-0.04,0.23,0.77,-0.14,-1.22,-1.32,
0.596,-0.04,0.23,0.78,-0.14,-1.22,-1.32,
0.599,-0.04,0.22,0.78,-0.14,-1.22,-1.32,
0.601,-0.05,0.22,0.78,-0.14,-1.22,-1.32,
0.601,-0.05,0.22,0.78,-0.17,-1.21,-1.27,
0.603,-0.05,0.22,0.78,-0.17,-1.21,-1.27,
0.606,-0.05,0.22,0.79,-0.17,-1.21,-1.27,
0.606,-0.05,0.22,0.79,-0.21,-1.25,-1.20,
0.609,-0.04,0.22,0.79,-0.21,-1.25,-1.20,
0.61,-0.04,0.22,0.79,-0.21,-1.25,-1.20,
0.61,-0.04,0.22,0.79,-0.23,-1.24,-1.16,
0.613,-0.05,0.21,0.79,-0.23,-1.24,-1.16,
0.615,-0.04,0.21,0.79,-0.23,-1.24,-1.16,
0.616,-0.04,0.21,0.79,-0.19,-1.26,-1.09,
0.617,-0.04,0.21,0.79,-0.19,-1.26,-1.09,
0.62,-0.04,0.21,0.78,-0.19,-1.26,-1.09,
0.62,-0.04,0.21,0.78,-0.20,-1.32,-1.07,
0.623,-0.05,0.20,0.78,-0.20,-1.32,-1.07,
0.625,-0.05,0.20,0.78,-0.20,-1.32,-1.07,
0.626,-0.05,0.20,0.78,-0.16,-1.33,-1.09,
0.628,-0.05,0.20,0.78,-0.16,-1.33,-1.09,
0.63,-0.05,0.20,0.78,-0.23,-1.38,-1.13,
0.63,-0.05,0.20,0.78,-0.23,-1.38,-1.13,
0.632,-0.06,0.20,0.77,-0.23,-1.38,-1.13,
0.635,-0.06,0.20,0.77,-0.23,-1.38,-1.13,
0.635,-0.06,0.20,0.77,-0.23,-1.41,-1.18,
0.639,-0.07,0.21,0.76,-0.23,-1.41,-1.18,
0.64,-0.07,0.21,0.76,-0.23,-1.41,-1.18,
0.64,-0.07,0.21,0.76,-0.31,-1.38,-1.26,
0.642,-0.08,0.20,0.76,-0.31,-1.38,-1.26,
0.645,-0.08,0.20,0.76,-0.41,-1.30,-1.28,
0.646,-0.08,0.21,0.76,-0.41,-1.30,-1.28,
0.647,-0.08,0.21,0.75,-0.41,-1.30,-1.28,
0.65,-0.08,0.21,0.75,-0.41,-1.30,-1.28,
0.65,-0.08,0.21,0.75,-0.50,-1.32,-1.32,
0.652,-0.09,0.21,0.74,-0.50,-1.32,-1.32,
0.656,-0.09,0.21,0.74,-0.54,-1.25,-1.37,
0.657,-0.09,0.22,0.74,-0.54,-1.25,-1.37,
0.658,-0.09,0.22,0.74,-0.54,-1.25,-1.37,
0.668,-0.10,0.22,0.73,-0.54,-1.25,-1.37,
0.669,-0.10,0.22,0.73,-0.58,-1.20,-1.45,
0.67,-0.10,0.22,0.74,-0.58,-1.20,-1.45,
0.67,-0.10,0.23,0.74,-0.58,-1.20,-1.45,
0.67,-0.10,0.23,0.74,-0.65,-1.16,-1.51,
0.671,-0.10,0.23,0.74,-0.65,-1.16,-1.51,
0.671,-0.10,0.23,0.74,-0.66,-1.08,-1.46,
0.671,-0.10,0.23,0.75,-0.66,-1.08,-1.46,
0.688,-0.10,0.24,0.75,-0.66,-1.08,-1.46,
0.689,-0.10,0.24,0.76,-0.66,-1.08,-1.46,
0.689,-0.10,0.24,0.76,-0.68,-1.04,-1.37,
0.69,-0.10,0.24,0.76,-0.68,-1.04,-1.37,
0.69,-0.10,0.24,0.77,-0.68,-1.04,-1.37,
0.69,-0.10,0.24,0.77,-0.69,-0.94,-1.28,
0.691,-0.11,0.24,0.77,-0.69,-0.94,-1.28,
0.691,-0.11,0.24,0.78,-0.69,-0.94,-1.28,
0.692,-0.11,0.24,0.78,-0.72,-0.97,-1.18,
0.692,-0.11,0.23,0.79,-0.72,-0.97,-1.18,
0.692,-0.11,0.23,0.80,-0.72,-0.97,-1.18,
0.692,-0.11,0.23,0.80,-0.79,-0.98,-1.05,
0.693,-0.11,0.22,0.80,-0.79,-0.98,-1.05,
0.694,-0.11,0.22,0.80,-0.80,-1.05,-0.87,
0.695,-0.11,0.22,0.81,-0.80,-1.05,-0.87,
0.697,-0.11,0.21,0.82,-0.80,-1.05,-0.87,
0.699,-0.11,0.21,0.82,-0.80,-1.05,-0.87,
0.699,-0.11,0.21,0.82,-0.84,-1.11,-0.79,
0.701,-0.12,0.20,0.82,-0.84,-1.11,-0.79,
0.704,-0.12,0.19,0.83,-0.84,-1.11,-0.79,
0.707,-0.12,0.19,0.83,-0.88,-1.23,-0.65,
0.707,-0.12,0.18,0.83,-0.88,-1.23,-0.65,
0.709,-0.13,0.18,0.83,-0.88,-1.23,-0.65,
0.709,-0.13,0.18,0.83,-0.93,-1.35,-0.58,
0.712,-0.13,0.17,0.83,-0.93,-1.35,-0.58,
0.717,-0.14,0.17,0.84,-0.93,-1.35,-0.58,
0.717,-0.14,0.17,0.84,-1.01,-1.49,-0.52,
0.718,-0.14,0.16,0.84,-1.01,-1.49,-0.52,
0.719,-0.15,0.15,0.84,-1.01,-1.49,-0.52,
0.719,-0.15,0.15,0.84,-1.08,-1.56,-0.48,
0.722,-0.15,0.15,0.84,-1.08,-1.56,-0.48,
0.723,-0.16,0.15,0.83,-1.08,-1.56,-0.48,
0.724,-0.16,0.15,0.83,-1.20,-1.69,-0.40,
0.726,-0.17,0.14,0.83,-1.20,-1.69,-0.40,
0.729,-0.17,0.14,0.83,-1.20,-1.69,-0.40,
0.729,-0.17,0.14,0.83,-1.33,-1.77,-0.46,
0.731,-0.18,0.13,0.83,-1.33,-1.77,-0.46,
0.734,-0.19,0.13,0.83,-1.33,-1.77,-0.46,
0.734,-0.19,0.13,0.83,-1.47,-1.83,-0.48,
0.736,-0.20,0.13,0.83,-1.47,-1.83,-0.48,
0.739,-0.21,0.13,0.82,-1.47,-1.83,-0.48,
0.74,-0.21,0.13,0.82,-1.63,-1.90,-0.52,
0.741,-0.22,0.12,0.81,-1.63,-1.90,-0.52,
0.743,-0.23,0.12,0.82,-1.63,-1.90,-0.52,
0.744,-0.23,0.12,0.82,-1.81,-1.92,-0.61,
0.746,-0.24,0.12,0.81,-1.81,-1.92,-0.61,
0.749,-0.24,0.12,0.81,-1.81,-1.92,-0.61,
0.749,-0.24,0.12,0.81,-1.99,-1.99,-0.67,
0.751,-0.25,0.12,0.80,-1.99,-1.99,-0.67,
0.753,-0.26,0.11,0.80,-1.99,-1.99,-0.67,
0.754,-0.26,0.11,0.80,-2.12,-2.02,-0.72,
0.764,-0.26,0.11,0.80,-2.12,-2.02,-0.72,
0.765,-0.27,0.11,0.80,-2.12,-2.02,-0.72,
0.767,-0.27,0.11,0.80,-2.26,-2.07,-0.78,
0.767,-0.27,0.11,0.80,-2.26,-2.07,-0.78,
0.768,-0.28,0.10,0.80,-2.26,-2.07,-0.78,
0.769,-0.28,0.10,0.80,-2.44,-2.11,-0.81,
0.769,-0.29,0.09,0.80,-2.44,-2.11,-0.81,
0.77,-0.29,0.09,0.80,-2.44,-2.11,-0.81,
0.77,-0.29,0.09,0.80,-2.53,-2.21,-0.80,
0.771,-0.29,0.09,0.80,-2.53,-2.21,-0.80,
0.78,-0.29,0.09,0.80,-2.53,-2.21,-0.80,
0.781,-0.29,0.09,0.80,-2.64,-2.32,-0.79,
0.781,-0.28,0.08,0.81,-2.64,-2.32,-0.79,
0.782,-0.28,0.09,0.81,-2.64,-2.32,-0.79,
0.782,-0.28,0.09,0.81,-2.62,-2.35,-0.77,
0.782,-0.28,0.09,0.80,-2.62,-2.35,-0.77,
0.783,-0.28,0.09,0.80,-2.62,-2.35,-0.77,
0.784,-0.28,0.09,0.80,-2.57,-2.37,-0.70,
0.786,-0.29,0.10,0.80,-2.57,-2.37,-0.70,
0.789,-0.28,0.10,0.80,-2.57,-2.37,-0.70,
0.79,-0.28,0.10,0.80,-2.59,-2.32,-0.76,
0.791,-0.29,0.11,0.81,-2.59,-2.32,-0.76,
0.793,-0.29,0.12,0.81,-2.59,-2.32,-0.76,
0.793,-0.29,0.12,0.81,-2.62,-2.24,-0.76,
0.796,-0.29,0.13,0.81,-2.62,-2.24,-0.76,
0.798,-0.29,0.14,0.82,-2.62,-2.24,-0.76,
0.799,-0.29,0.14,0.82,-2.66,-2.11,-0.67,
0.8,-0.30,0.14,0.82,-2.66,-2.11,-0.67,
0.803,-0.30,0.15,0.83,-2.66,-2.11,-0.67,
0.803,-0.30,0.15,0.83,-2.72,-1.90,-0.60,
0.806,-0.30,0.16,0.83,-2.72,-1.90,-0.60,
0.809,-0.31,0.16,0.83,-2.72,-1.90,-0.60,
0.809,-0.31,0.16,0.83,-2.81,-1.79,-0.49,
0.81,-0.30,0.18,0.84,-2.81,-1.79,-0.49,
0.813,-0.30,0.18,0.85,-2.81,-1.79,-0.49,
0.813,-0.30,0.18,0.85,-2.87,-1.64,-0.41,
0.816,-0.30,0.18,0.86,-2.87,-1.64,-0.41,
0.818,-0.30,0.18,0.86,-2.86,-1.46,-0.28,
0.823,-0.29,0.19,0.87,-2.86,-1.46,-0.28,
0.824,-0.28,0.19,0.87,-2.86,-1.46,-0.28,
0.825,-0.28,0.20,0.88,-2.86,-1.46,-0.28,
0.826,-0.28,0.20,0.88,-2.78,-1.40,-0.11,
0.826,-0.27,0.20,0.88,-2.78,-1.40,-0.11,
0.829,-0.26,0.20,0.89,-2.78,-1.40,-0.11,
0.83,-0.26,0.20,0.89,-2.70,-1.35,-0.00,
0.831,-0.26,0.20,0.89,-2.70,-1.35,-0.00,
0.833,-0.25,0.19,0.88,-2.70,-1.35,-0.00,
0.833,-0.25,0.19,0.88,-2.59,-1.32,0.09,
0.836,-0.25,0.20,0.89,-2.59,-1.32,0.09,
0.838,-0.24,0.20,0.89,-2.59,-1.32,0.09,
0.839,-0.24,0.20,0.89,-2.47,-1.33,0.13,
0.841,-0.24,0.20,0.89,-2.47,-1.33,0.13,
0.843,-0.24,0.20,0.88,-2.47,-1.33,0.13,
0.843,-0.24,0.20,0.88,-2.41,-1.29,0.18,
0.846,-0.24,0.20,0.87,-2.41,-1.29,0.18,
0.853,-0.24,0.20,0.87,-2.41,-1.32,0.12,
0.853,-0.24,0.20,0.87,-2.41,-1.32,0.12,
0.853,-0.24,0.20,0.86,-2.41,-1.32,0.12,
0.853,-0.24,0.20,0.85,-2.41,-1.32,0.12,
0.854,-0.24,0.20,0.85,-2.44,-1.31,-0.00,
0.861,-0.25,0.20,0.84,-2.44,-1.31,-0.00,
0.862,-0.25,0.21,0.83,-2.44,-1.31,-0.00,
0.862,-0.25,0.21,0.83,-2.49,-1.31,-0.15,
0.862,-0.25,0.21,0.82,-2.49,-1.31,-0.15,
0.863,-0.25,0.21,0.81,-2.49,-1.31,-0.15,
0.863,-0.25,0.21,0.81,-2.56,-1.28,-0.38,
0.865,-0.25,0.22,0.79,-2.56,-1.28,-0.38,
0.868,-0.25,0.21,0.78,-2.56,-1.28,-0.38,
0.868,-0.25,0.21,0.78,-2.61,-1.23,-0.55,
0.87,-0.25,0.22,0.77,-2.61,-1.23,-0.55,
0.872,-0.24,0.22,0.76,-2.61,-1.23,-0.55,
0.873,-0.24,0.22,0.76,-2.63,-1.19,-0.80,
0.875,-0.24,0.22,0.75,-2.63,-1.19,-0.80,
0.877,-0.23,0.22,0.75,-2.63,-1.19,-0.80,
0.877,-0.23,0.22,0.75,-2.59,-1.14,-1.00,
0.881,-0.22,0.22,0.75,-2.59,-1.14,-1.00,
0.883,-0.21,0.23,0.75,-2.59,-1.14,-1.00,
0.883,-0.21,0.23,0.75,-2.53,-1.12,-1.15,
0.885,-0.20,0.23,0.75,-2.53,-1.12,-1.15,
0.888,-0.18,0.24,0.76,-2.53,-1.12,-1.15,
0.888,-0.18,0.24,0.76,-2.36,-1.07,-1.13,
0.891,-0.17,0.24,0.77,-2.36,-1.07,-1.13,
0.892,-0.15,0.25,0.78,-2.36,-1.07,-1.13,
0.893,-0.15,0.25,0.78,-2.16,-0.99,-1.09,
0.896,-0.13,0.25,0.79,-2.16,-0.99,-1.09,
0.897,-0.12,0.26,0.81,-2.16,-0.99,-1.09,
0.897,-0.12,0.26,0.81,-1.87,-0.88,-0.90,
0.9,-0.11,0.26,0.82,-1.87,-0.88,-0.90,
0.903,-0.10,0.26,0.83,-1.87,-0.88,-0.90,
0.903,-0.10,0.26,0.83,-1.59,-0.75,-0.66,
0.905,-0.09,0.27,0.85,-1.59,-0.75,-0.66,
0.909,-0.09,0.27,0.86,-1.59,-0.75,-0.66,
0.91,-0.09,0.27,0.86,-1.43,-0.67,-0.43,
0.91,-0.08,0.28,0.87,-1.43,-0.67,-0.43,
0.913,-0.08,0.28,0.88,-1.43,-0.67,-0.43,
0.914,-0.08,0.28,0.88,-1.27,-0.55,-0.16,
0.915,-0.08,0.28,0.90,-1.27,-0.55,-0.16,
0.918,-0.08,0.28,0.90,-1.23,-0.46,0.06,
0.918,-0.09,0.28,0.92,-1.23,-0.46,0.06,
0.921,-0.09,0.28,0.92,-1.23,-0.46,0.06,
0.923,-0.09,0.28,0.93,-1.23,-0.46,0.06,
0.923,-0.09,0.28,0.93,-1.30,-0.36,0.34,
0.926,-0.10,0.27,0.93,-1.30,-0.36,0.34,
0.929,-0.10,0.27,0.94,-1.30,-0.36,0.34,
0.929,-0.10,0.27,0.94,-1.36,-0.36,0.54,
0.93,-0.10,0.27,0.95,-1.36,-0.36,0.54,
0.934,-0.11,0.26,0.96,-1.36,-0.36,0.54,
0.934,-0.11,0.26,0.96,-1.46,-0.38,0.61,
0.936,-0.11,0.26,0.96,-1.46,-0.38,0.61,
0.938,-0.12,0.25,0.97,-1.46,-0.38,0.61,
0.938,-0.12,0.25,0.97,-1.57,-0.40,0.76,
0.94,-0.12,0.25,0.97,-1.57,-0.40,0.76,
0.942,-0.12,0.25,0.97,-1.68,-0.46,0.84,
0.943,-0.12,0.24,0.97,-1.68,-0.46,0.84,
0.945,-0.12,0.23,0.97,-1.68,-0.46,0.84,
0.948,-0.13,0.23,0.97,-1.68,-0.46,0.84,
0.948,-0.13,0.23,0.97,-1.72,-0.50,0.87,
0.95,-0.13,0.22,0.97,-1.72,-0.50,0.87,
0.953,-0.14,0.21,0.96,-1.72,-0.50,0.87,
0.953,-0.14,0.21,0.96,-1.83,-0.60,0.85,
0.956,-0.14,0.21,0.96,-1.83,-0.60,0.85,
0.964,-0.15,0.21,0.96,-1.83,-0.60,0.85,
0.965,-0.15,0.21,0.96,-1.94,-0.71,0.80,
0.965,-0.15,0.20,0.95,-1.94,-0.71,0.80,
0.966,-0.16,0.20,0.95,-1.94,-0.71,0.80,
0.966,-0.16,0.20,0.95,-2.04,-0.77,0.74,
0.966,-0.16,0.19,0.95,-2.04,-0.77,0.74,
0.967,-0.16,0.19,0.95,-2.20,-0.84,0.65,
0.967,-0.16,0.19,0.95,-2.20,-0.84,0.65,
0.969,-0.16,0.18,0.95,-2.20,-0.84,0.65,
0.972,-0.16,0.19,0.94,-2.20,-0.84,0.65,
0.972,-0.16,0.19,0.94,-2.28,-0.89,0.61,
0.975,-0.16,0.19,0.95,-2.28,-0.89,0.61,
0.977,-0.16,0.18,0.95,-2.28,-0.89,0.61,
0.977,-0.16,0.18,0.95,-2.31,-0.88,0.57,
0.979,-0.15,0.18,0.95,-2.31,-0.88,0.57,
0.981,-0.15,0.18,0.96,-2.31,-0.88,0.57,
0.981,-0.15,0.18,0.96,-2.32,-0.84,0.62,
0.984,-0.14,0.19,0.97,-2.32,-0.84,0.62,
0.986,-0.13,0.19,0.97,-2.32,-0.84,0.62,
0.987,-0.13,0.19,0.97,-2.27,-0.83,0.68,
0.988,-0.13,0.18,0.98,-2.27,-0.83,0.68,
0.991,-0.12,0.18,0.98,-2.27,-0.83,0.68,
0.992,-0.12,0.18,0.98,-2.16,-0.77,0.78,
0.993,-0.11,0.19,0.99,-2.16,-0.77,0.78,
0.996,-0.10,0.19,0.99,-2.16,-0.77,0.78,
0.996,-0.10,0.19,0.99,-2.09,-0.78,0.87,
0.999,-0.09,0.19,0.99,-2.09,-0.78,0.87,
1.001,-0.08,0.19,0.99,-2.09,-0.78,0.87,
1.001,-0.08,0.19,0.99,-1.97,-0.70,0.94,
1.003,-0.08,0.19,0.99,-1.97,-0.70,0.94,
1.008,-0.07,0.19,1.00,-1.97,-0.70,0.94,
1.008,-0.07,0.19,1.00,-1.81,-0.63,1.00,
1.009,-0.05,0.19,1.00,-1.81,-0.63,1.00,
1.011,-0.05,0.19,1.00,-1.81,-0.63,1.00,
1.011,-0.05,0.19,1.00,-1.70,-0.60,1.02,
1.014,-0.04,0.19,1.00,-1.70,-0.60,1.02,
1.016,-0.04,0.19,1.00,-1.52,-0.55,1.02,
1.016,-0.03,0.20,0.99,-1.52,-0.55,1.02,
1.018,-0.02,0.19,1.00,-1.52,-0.55,1.02,
1.021,-0.01,0.20,1.00,-1.52,-0.55,1.02,
1.021,-0.01,0.20,1.00,-1.40,-0.47,1.00,
1.024,-0.01,0.20,1.01,-1.40,-0.47,1.00,
1.026,-0.01,0.20,1.01,-1.40,-0.47,1.00,
1.026,-0.01,0.20,1.01,-1.28,-0.44,1.05,
1.029,0.01,0.20,1.02,-1.28,-0.44,1.05,
1.031,0.01,0.20,1.01,-1.28,-0.44,1.05,
1.031,0.01,0.20,1.01,-1.22,-0.35,1.11,
1.033,0.02,0.20,1.01,-1.22,-0.35,1.11,
1.036,0.03,0.20,1.01,-1.22,-0.35,1.11,
1.036,0.03,0.20,1.01,-1.09,-0.30,1.17,
1.038,0.04,0.20,1.02,-1.09,-0.30,1.17,
1.041,0.04,0.19,1.02,-1.09,-0.30,1.17,
1.042,0.04,0.19,1.02,-0.98,-0.27,1.12,
1.043,0.05,0.20,1.02,-0.98,-0.27,1.12,
1.045,0.06,0.19,1.03,-0.98,-0.27,1.12,
1.046,0.06,0.19,1.03,-0.88,-0.28,1.16,
1.048,0.06,0.20,1.03,-0.88,-0.28,1.16,
1.051,0.06,0.20,1.03,-0.88,-0.28,1.16,
1.051,0.06,0.20,1.03,-0.78,-0.23,1.21,
1.053,0.07,0.20,1.03,-0.78,-0.23,1.21,
1.055,0.08,0.21,1.03,-0.78,-0.23,1.21,
1.055,0.08,0.21,1.03,-0.72,-0.13,1.26,
1.058,0.08,0.21,1.03,-0.72,-0.13,1.26,
1.061,0.08,0.21,1.03,-0.64,-0.07,1.30,
1.061,0.08,0.21,1.03,-0.64,-0.07,1.30,
1.063,0.08,0.21,1.03,-0.64,-0.07,1.30,
1.065,0.07,0.20,1.02,-0.64,-0.07,1.30,
1.065,0.07,0.20,1.02,-0.64,0.05,1.29,
1.068,0.06,0.19,1.01,-0.64,0.05,1.29,
1.07,0.05,0.19,1.00,-0.64,0.05,1.29,
1.071,0.05,0.19,1.00,-0.70,0.01,1.17,
1.079,0.04,0.18,0.99,-0.70,0.01,1.17,
1.08,0.04,0.17,0.98,-0.70,0.01,1.17,
1.08,0.04,0.17,0.98,-0.86,-0.06,1.04,
1.081,0.03,0.16,0.97,-0.86,-0.06,1.04,
1.081,0.03,0.15,0.97,-0.86,-0.06,1.04,
1.081,0.03,0.15,0.97,-1.01,-0.18,0.82,
1.083,0.03,0.14,0.96,-1.01,-0.18,0.82,
1.085,0.02,0.13,0.96,-1.01,-0.18,0.82,
1.085,0.02,0.13,0.96,-1.11,-0.32,0.65,
1.088,0.01,0.12,0.96,-1.11,-0.32,0.65,
1.091,0.01,0.11,0.95,-1.11,-0.32,0.65,
1.092,0.01,0.11,0.95,-1.21,-0.50,0.53,
1.093,0.01,0.09,0.96,-1.21,-0.50,0.53,
1.095,0.00,0.08,0.96,-1.21,-0.50,0.53,
1.095,0.00,0.08,0.96,-1.34,-0.67,0.47,
1.098,-0.00,0.07,0.97,-1.34,-0.67,0.47,
1.1,0.00,0.05,0.98,-1.34,-0.67,0.47,
1.1,0.00,0.05,0.98,-1.39,-0.88,0.50,
1.102,0.00,0.04,0.98,-1.39,-0.88,0.50,
1.105,-0.00,0.04,0.99,-1.39,-0.88,0.50,
1.105,-0.00,0.04,0.99,-1.47,-1.09,0.65,
1.117,-0.00,0.04,0.99,-1.49,-1.23,0.79,
1.118,-0.00,0.03,1.01,-1.49,-1.23,0.79,
1.119,-0.00,0.02,1.02,-1.49,-1.23,0.79,
1.119,0.00,0.01,1.03,-1.49,-1.23,0.79,
1.119,0.00,0.01,1.03,-1.54,-1.33,1.06,
1.12,0.00,0.01,1.05,-1.54,-1.33,1.06,
1.12,0.01,0.01,1.06,-1.54,-1.33,1.06,
1.12,0.01,0.01,1.08,-1.54,-1.33,1.06,
1.12,0.01,0.01,1.08,-1.52,-1.40,1.27,
1.122,0.01,0.01,1.09,-1.52,-1.40,1.27,
1.126,0.01,0.01,1.09,-1.51,-1.38,1.58,
1.127,0.01,0.02,1.11,-1.51,-1.38,1.58,
1.128,0.02,0.02,1.11,-1.51,-1.38,1.58,
1.13,0.03,0.03,1.12,-1.51,-1.38,1.58,
1.13,0.03,0.03,1.12,-1.54,-1.28,1.85,
1.132,0.03,0.03,1.12,-1.54,-1.28,1.85,
1.134,0.03,0.04,1.13,-1.54,-1.28,1.85,
1.135,0.03,0.04,1.13,-1.44,-1.15,2.00,
1.137,0.04,0.04,1.14,-1.44,-1.15,2.00,
1.141,0.04,0.04,1.14,-1.40,-0.97,2.12,
1.142,0.05,0.05,1.15,-1.40,-0.97,2.12,
1.142,0.05,0.06,1.15,-1.40,-0.97,2.12,
1.144,0.05,0.06,1.15,-1.40,-0.97,2.12,
1.145,0.05,0.06,1.15,-1.34,-0.84,2.27,
1.147,0.04,0.06,1.15,-1.34,-0.84,2.27,
1.15,0.04,0.07,1.15,-1.34,-0.84,2.27,
1.15,0.04,0.07,1.15,-1.34,-0.69,2.33,
1.152,0.04,0.07,1.14,-1.34,-0.69,2.33,
1.154,0.03,0.07,1.13,-1.34,-0.69,2.33,
1.155,0.03,0.07,1.13,-1.41,-0.59,2.33,
1.159,0.03,0.07,1.12,-1.41,-0.59,2.33,
1.16,0.03,0.07,1.11,-1.41,-0.59,2.33,
1.16,0.03,0.07,1.11,-1.50,-0.50,2.17,
1.162,0.02,0.06,1.10,-1.50,-0.50,2.17,
1.164,0.01,0.06,1.10,-1.50,-0.50,2.17,
1.165,0.01,0.06,1.10,-1.57,-0.49,2.00,
1.167,0.00,0.06,1.10,-1.57,-0.49,2.00,
1.17,-0.01,0.05,1.09,-1.57,-0.49,2.00,
1.17,-0.01,0.05,1.09,-1.74,-0.50,1.83,
1.172,-0.01,0.04,1.08,-1.74,-0.50,1.83,
1.176,-0.02,0.03,1.07,-1.74,-0.50,1.83,
1.177,-0.02,0.03,1.07,-1.89,-0.54,1.73,
1.177,-0.04,0.03,1.08,-1.89,-0.54,1.73,
1.18,-0.05,0.01,1.07,-1.89,-0.54,1.73,
1.181,-0.05,0.01,1.07,-2.05,-0.67,1.58,
1.182,-0.06,0.00,1.07,-2.05,-0.67,1.58,
1.184,-0.07,-0.01,1.06,-2.05,-0.67,1.58,
1.184,-0.07,-0.01,1.06,-2.30,-0.80,1.54,
1.187,-0.07,-0.03,1.06,-2.30,-0.80,1.54,
1.189,-0.08,-0.04,1.06,-2.30,-0.80,1.54,
1.189,-0.08,-0.04,1.06,-2.48,-0.99,1.45,
1.194,-0.08,-0.05,1.06,-2.48,-0.99,1.45,
1.194,-0.08,-0.06,1.06,-2.48,-0.99,1.45,
1.194,-0.08,-0.06,1.06,-2.62,-1.21,1.39,
1.197,-0.08,-0.07,1.06,-2.62,-1.21,1.39,
1.199,-0.08,-0.08,1.06,-2.62,-1.21,1.39,
1.199,-0.08,-0.08,1.06,-2.70,-1.36,1.41,
1.201,-0.08,-0.09,1.05,-2.70,-1.36,1.41,
1.204,-0.07,-0.09,1.05,-2.70,-1.36,1.41,
1.204,-0.07,-0.09,1.05,-2.70,-1.52,1.35,
1.207,-0.06,-0.10,1.05,-2.70,-1.52,1.35,
1.21,-0.06,-0.10,1.06,-2.70,-1.52,1.35,
1.21,-0.06,-0.10,1.06,-2.61,-1.60,1.29,
1.213,-0.04,-0.10,1.06,-2.61,-1.60,1.29,
1.217,-0.04,-0.10,1.06,-2.48,-1.70,1.34,
1.218,-0.02,-0.10,1.06,-2.48,-1.70,1.34,
1.218,-0.01,-0.10,1.08,-2.48,-1.70,1.34,
1.219,0.01,-0.09,1.09,-2.48,-1.70,1.34,
1.22,0.01,-0.09,1.09,-2.23,-1.64,1.39,
1.222,0.03,-0.08,1.10,-2.23,-1.64,1.39,
1.224,0.05,-0.07,1.11,-2.23,-1.64,1.39,
1.224,0.05,-0.07,1.11,-1.94,-1.52,1.60,
1.226,0.07,-0.05,1.14,-1.94,-1.52,1.60,
1.229,0.09,-0.04,1.16,-1.94,-1.52,1.60,
1.229,0.09,-0.04,1.16,-1.58,-1.28,1.83,
1.231,0.11,-0.02,1.18,-1.58,-1.28,1.83,
1.234,0.14,-0.01,1.19,-1.58,-1.28,1.83,
1.235,0.14,-0.01,1.19,-1.28,-0.95,2.24,
1.237,0.16,0.00,1.21,-1.28,-0.95,2.24,
1.239,0.18,0.01,1.23,-1.28,-0.95,2.24,
1.24,0.18,0.01,1.23,-0.88,-0.62,2.61,
1.242,0.20,0.02,1.25,-0.88,-0.62,2.61,
1.244,0.22,0.03,1.27,-0.88,-0.62,2.61,
1.244,0.22,0.03,1.27,-0.50,-0.36,2.98,
1.246,0.24,0.04,1.29,-0.50,-0.36,2.98,
1.249,0.25,0.04,1.30,-0.50,-0.36,2.98,
1.249,0.25,0.04,1.30,-0.11,-0.12,3.37,
1.252,0.26,0.05,1.31,-0.11,-0.12,3.37,
1.254,0.27,0.06,1.32,-0.11,-0.12,3.37,
1.254,0.27,0.06,1.32,0.16,0.09,3.68,
1.257,0.27,0.06,1.33,0.16,0.09,3.68,
1.259,0.27,0.06,1.34,0.16,0.09,3.68,
1.26,0.27,0.06,1.34,0.31,0.25,3.91,
1.261,0.27,0.07,1.34,0.31,0.25,3.91,
1.263,0.27,0.07,1.33,0.31,0.25,3.91,
1.264,0.27,0.07,1.33,0.37,0.37,4.05,
1.267,0.26,0.06,1.33,0.37,0.37,4.05,
1.269,0.25,0.06,1.32,0.37,0.37,4.05,
1.269,0.25,0.06,1.32,0.33,0.46,4.06,
1.271,0.24,0.06,1.31,0.33,0.46,4.06,
1.274,0.22,0.04,1.30,0.33,0.46,4.06,
1.274,0.22,0.04,1.30,0.20,0.46,3.95,
1.277,0.21,0.04,1.28,0.20,0.46,3.95,
1.279,0.21,0.04,1.28,-0.08,0.36,3.73,
1.28,0.19,0.02,1.27,-0.08,0.36,3.73,
1.283,0.17,0.01,1.25,-0.08,0.36,3.73,
1.283,0.15,-0.01,1.23,-0.08,0.36,3.73,
1.284,0.15,-0.01,1.23,-0.34,0.21,3.43,
1.287,0.13,-0.02,1.21,-0.34,0.21,3.43,
1.289,0.11,-0.04,1.20,-0.34,0.21,3.43,
1.289,0.11,-0.04,1.20,-0.72,-0.03,3.12,
1.291,0.09,-0.05,1.18,-0.72,-0.03,3.12,
1.297,0.07,-0.06,1.16,-0.72,-0.03,3.12,
1.298,0.07,-0.06,1.16,-1.09,-0.31,2.74,
1.298,0.06,-0.08,1.14,-1.09,-0.31,2.74,
1.298,0.03,-0.09,1.13,-1.09,-0.31,2.74,
1.299,0.03,-0.09,1.13,-1.45,-0.54,2.39,
1.301,0.01,-0.10,1.11,-1.45,-0.54,2.39,
1.303,0.01,-0.10,1.11,-1.78,-0.75,2.01,
1.304,-0.00,-0.11,1.10,-1.78,-0.75,2.01,
1.306,-0.02,-0.11,1.09,-1.78,-0.75,2.01,
1.31,-0.03,-0.12,1.09,-1.78,-0.75,2.01,
1.31,-0.03,-0.12,1.09,-2.14,-0.91,1.72,
1.311,-0.04,-0.12,1.09,-2.14,-0.91,1.72,
1.313,-0.03,-0.12,1.08,-2.14,-0.91,1.72,
1.316,-0.03,-0.12,1.08,-2.39,-0.98,1.56,
1.316,-0.02,-0.11,1.08,-2.39,-0.98,1.56,
1.319,-0.02,-0.11,1.09,-2.39,-0.98,1.56,
1.319,-0.02,-0.11,1.09,-2.48,-0.98,1.49,
1.321,-0.00,-0.11,1.10,-2.48,-0.98,1.49,
1.324,0.02,-0.11,1.12,-2.48,-0.98,1.49,
1.324,0.02,-0.11,1.12,-2.33,-0.91,1.54,
1.328,0.04,-0.11,1.14,-2.33,-0.91,1.54,
1.329,0.04,-0.11,1.14,-2.05,-0.87,1.73,
1.329,0.06,-0.11,1.15,-2.05,-0.87,1.73,
1.33,0.08,-0.12,1.17,-2.05,-0.87,1.73,
1.332,0.11,-0.11,1.19,-2.05,-0.87,1.73,
1.333,0.11,-0.11,1.19,-1.63,-0.82,2.07,
1.335,0.13,-0.10,1.20,-1.63,-0.82,2.07,
1.337,0.16,-0.10,1.22,-1.63,-0.82,2.07,
1.337,0.16,-0.10,1.22,-1.18,-0.75,2.45,
1.34,0.17,-0.10,1.24,-1.18,-0.75,2.45,
1.343,0.20,-0.09,1.25,-1.18,-0.75,2.45,
1.344,0.20,-0.09,1.25,-0.73,-0.63,2.74,
1.345,0.21,-0.08,1.26,-0.73,-0.63,2.74,
1.348,0.23,-0.08,1.27,-0.73,-0.63,2.74,
1.348,0.23,-0.08,1.27,-0.34,-0.46,3.06,
1.35,0.24,-0.07,1.28,-0.34,-0.46,3.06,
1.352,0.25,-0.06,1.28,-0.34,-0.46,3.06,
1.352,0.25,-0.06,1.28,-0.02,-0.30,3.24,
1.355,0.25,-0.05,1.29,-0.02,-0.30,3.24,
1.359,0.26,-0.04,1.29,-0.02,-0.30,3.24,
1.36,0.26,-0.04,1.29,0.23,-0.11,3.42,
1.36,0.26,-0.04,1.29,0.23,-0.11,3.42,
1.362,0.26,-0.04,1.28,0.23,-0.11,3.42,
1.363,0.26,-0.04,1.28,0.34,0.10,3.50,
1.365,0.25,-0.04,1.28,0.34,0.10,3.50,
1.368,0.24,-0.04,1.27,0.34,0.10,3.50,
1.369,0.24,-0.04,1.27,0.36,0.20,3.43,
1.37,0.23,-0.04,1.27,0.36,0.20,3.43,
1.373,0.21,-0.04,1.25,0.36,0.20,3.43,
1.374,0.21,-0.04,1.25,0.25,0.25,3.33,
1.377,0.20,-0.04,1.24,0.25,0.25,3.33,
1.378,0.18,-0.05,1.23,0.25,0.25,3.33,
1.378,0.18,-0.05,1.23,0.04,0.25,3.18,
1.38,0.16,-0.05,1.22,0.04,0.25,3.18,
1.382,0.14,-0.06,1.20,0.04,0.25,3.18,
1.382,0.14,-0.06,1.20,-0.26,0.25,2.92,
1.385,0.11,-0.07,1.19,-0.26,0.25,2.92,
1.387,0.10,-0.08,1.18,-0.26,0.25,2.92,
1.388,0.10,-0.08,1.18,-0.63,0.12,2.66,
1.389,0.07,-0.11,1.17,-0.63,0.12,2.66,
1.393,0.05,-0.12,1.16,-0.63,0.12,2.66,
1.393,0.05,-0.12,1.16,-1.01,-0.03,2.39,
1.394,0.03,-0.13,1.15,-1.01,-0.03,2.39,
1.397,0.02,-0.14,1.14,-1.01,-0.03,2.39,
1.397,0.02,-0.14,1.14,-1.38,-0.37,2.20,
1.399,0.00,-0.16,1.13,-1.38,-0.37,2.20,
1.402,-0.01,-0.17,1.12,-1.38,-0.37,2.20,
1.402,-0.01,-0.17,1.12,-1.69,-0.57,1.95,
1.405,-0.02,-0.17,1.11,-1.69,-0.57,1.95,
1.407,-0.03,-0.19,1.10,-1.69,-0.57,1.95,
1.407,-0.03,-0.19,1.10,-1.94,-0.82,1.77,
1.417,-0.04,-0.20,1.10,-1.94,-0.82,1.77,
1.418,-0.05,-0.20,1.10,-1.94,-0.82,1.77,
1.418,-0.05,-0.20,1.10,-2.13,-0.95,1.60,
1.419,-0.04,-0.21,1.09,-2.13,-0.95,1.60,
1.419,-0.04,-0.21,1.10,-2.13,-0.95,1.60,
1.419,-0.04,-0.21,1.10,-2.28,-1.12,1.50,
1.42,-0.03,-0.22,1.11,-2.28,-1.12,1.50,
1.422,-0.02,-0.22,1.11,-2.28,-1.12,1.50,
1.422,-0.02,-0.22,1.11,-2.24,-1.18,1.49,
1.424,-0.00,-0.22,1.12,-2.24,-1.18,1.49,
1.431,0.01,-0.22,1.14,-2.24,-1.18,1.49,
1.432,0.01,-0.22,1.14,-2.06,-1.22,1.60,
1.432,0.03,-0.22,1.15,-2.06,-1.22,1.60,
1.432,0.06,-0.22,1.17,-2.06,-1.22,1.60,
1.432,0.06,-0.22,1.17,-1.75,-1.23,1.80,
1.434,0.07,-0.22,1.17,-1.75,-1.23,1.80,
1.436,0.09,-0.22,1.19,-1.75,-1.23,1.80,
1.437,0.09,-0.22,1.19,-1.34,-1.19,2.09,
1.439,0.11,-0.21,1.20,-1.34,-1.19,2.09,
1.442,0.13,-0.21,1.21,-1.34,-1.19,2.09,
1.443,0.13,-0.21,1.21,-0.98,-1.10,2.28,
1.444,0.15,-0.21,1.22,-0.98,-1.10,2.28,
1.447,0.17,-0.20,1.23,-0.98,-1.10,2.28,
1.447,0.17,-0.20,1.23,-0.61,-1.02,2.55,
1.449,0.18,-0.20,1.23,-0.61,-1.02,2.55,
1.451,0.19,-0.18,1.24,-0.61,-1.02,2.55,
1.452,0.19,-0.18,1.24,-0.23,-0.89,2.71,
1.454,0.21,-0.18,1.24,-0.23,-0.89,2.71,
1.456,0.22,-0.17,1.24,-0.23,-0.89,2.71,
1.456,0.22,-0.17,1.24,0.04,-0.74,2.83,
1.459,0.22,-0.16,1.24,0.04,-0.74,2.83,
1.462,0.23,-0.15,1.24,0.04,-0.74,2.83,
1.462,0.23,-0.15,1.24,0.30,-0.56,2.87,
1.464,0.23,-0.15,1.24,0.30,-0.56,2.87,
1.466,0.23,-0.14,1.23,0.30,-0.56,2.87,
1.467,0.23,-0.14,1.23,0.42,-0.36,2.87,
1.469,0.23,-0.14,1.23,0.42,-0.36,2.87,
1.471,0.23,-0.14,1.23,0.42,-0.36,2.87,
1.471,0.23,-0.14,1.23,0.49,-0.23,2.79,
1.473,0.22,-0.14,1.23,0.49,-0.23,2.79,
1.476,0.21,-0.14,1.23,0.49,-0.23,2.79,
1.477,0.21,-0.14,1.23,0.48,-0.16,2.78,
1.482,0.20,-0.14,1.22,0.48,-0.16,2.78,
1.482,0.19,-0.14,1.21,0.48,-0.16,2.78,
1.483,0.19,-0.14,1.21,0.33,-0.16,2.72,
1.484,0.18,-0.15,1.20,0.33,-0.16,2.72,
1.486,0.18,-0.16,1.20,0.33,-0.16,2.72,
1.486,0.18,-0.16,1.20,0.17,-0.19,2.56,
1.489,0.16,-0.17,1.19,0.17,-0.19,2.56,
1.491,0.16,-0.17,1.18,0.17,-0.19,2.56,
1.491,0.16,-0.17,1.18,0.02,-0.28,2.43,
1.493,0.15,-0.18,1.18,0.02,-0.28,2.43,
1.496,0.14,-0.19,1.18,0.02,-0.28,2.43,
1.496,0.14,-0.19,1.18,-0.13,-0.42,2.32,
1.499,0.13,-0.19,1.19,-0.13,-0.42,2.32,
1.505,0.13,-0.19,1.19,-0.27,-0.53,2.20,
1.505,0.13,-0.20,1.18,-0.27,-0.53,2.20,
1.505,0.12,-0.20,1.18,-0.27,-0.53,2.20,
1.506,0.12,-0.21,1.18,-0.27,-0.53,2.20,
1.506,0.12,-0.21,1.18,-0.38,-0.63,2.23,
1.508,0.12,-0.21,1.18,-0.38,-0.63,2.23,
1.513,0.11,-0.21,1.18,-0.38,-0.63,2.23,
1.513,0.11,-0.21,1.18,-0.48,-0.73,2.18,
1.514,0.12,-0.21,1.19,-0.48,-0.73,2.18,
1.517,0.12,-0.20,1.20,-0.48,-0.73,2.18,
1.517,0.12,-0.20,1.20,-0.50,-0.71,2.22,
1.52,0.12,-0.20,1.20,-0.50,-0.71,2.22,
1.522,0.13,-0.19,1.21,-0.50,-0.71,2.22,
1.522,0.13,-0.19,1.21,-0.47,-0.67,2.34,
1.524,0.14,-0.19,1.22,-0.47,-0.67,2.34,
1.527,0.14,-0.19,1.22,-0.37,-0.57,2.44,
1.528,0.15,-0.19,1.23,-0.37,-0.57,2.44,
1.529,0.17,-0.18,1.24,-0.37,-0.57,2.44,
1.531,0.19,-0.18,1.24,-0.37,-0.57,2.44,
1.531,0.19,-0.18,1.24,-0.13,-0.51,2.65,
1.534,0.20,-0.17,1.26,-0.13,-0.51,2.65,
1.537,0.22,-0.17,1.26,-0.13,-0.51,2.65,
1.537,0.22,-0.17,1.26,0.19,-0.42,2.77,
1.54,0.24,-0.16,1.27,0.19,-0.42,2.77,
1.541,0.25,-0.16,1.27,0.19,-0.42,2.77,
1.541,0.25,-0.16,1.27,0.51,-0.29,2.96,
1.544,0.26,-0.15,1.28,0.51,-0.29,2.96,
1.546,0.27,-0.14,1.28,0.51,-0.29,2.96,
1.547,0.27,-0.14,1.28,0.86,-0.18,3.05,
1.549,0.29,-0.14,1.28,0.86,-0.18,3.05,
1.551,0.29,-0.14,1.28,1.08,-0.03,3.10,
1.552,0.30,-0.14,1.28,1.08,-0.03,3.10,
1.554,0.31,-0.13,1.27,1.08,-0.03,3.10,
1.556,0.32,-0.13,1.27,1.08,-0.03,3.10,
1.557,0.32,-0.13,1.27,1.38,0.09,3.11,
1.559,0.33,-0.12,1.26,1.38,0.09,3.11,
1.562,0.35,-0.13,1.25,1.38,0.09,3.11,
1.562,0.35,-0.13,1.25,1.62,0.16,3.03,
1.564,0.35,-0.12,1.25,1.62,0.16,3.03,
1.566,0.36,-0.12,1.24,1.62,0.16,3.03,
1.567,0.36,-0.12,1.24,1.88,0.23,2.87,
1.569,0.35,-0.11,1.23,1.88,0.23,2.87,
1.571,0.35,-0.11,1.22,1.88,0.23,2.87,
1.572,0.35,-0.11,1.22,2.05,0.29,2.74,
1.574,0.34,-0.11,1.21,2.05,0.29,2.74,
1.576,0.33,-0.12,1.20,2.05,0.29,2.74,
1.576,0.33,-0.12,1.20,2.08,0.36,2.57,
1.58,0.32,-0.12,1.19,2.08,0.36,2.57,
1.58,0.31,-0.12,1.18,2.08,0.36,2.57,
1.581,0.31,-0.12,1.18,1.96,0.35,2.33,
1.583,0.29,-0.12,1.17,1.96,0.35,2.33,
1.586,0.27,-0.12,1.16,1.96,0.35,2.33,
1.587,0.27,-0.12,1.16,1.80,0.34,2.15,
1.589,0.25,-0.13,1.15,1.80,0.34,2.15,
1.591,0.23,-0.13,1.14,1.80,0.34,2.15,
1.591,0.23,-0.13,1.14,1.52,0.27,1.93,
1.594,0.22,-0.14,1.13,1.52,0.27,1.93,
1.597,0.20,-0.14,1.13,1.52,0.27,1.93,
1.598,0.20,-0.14,1.13,1.22,0.21,1.69,
1.598,0.18,-0.15,1.12,1.22,0.21,1.69,
1.601,0.18,-0.15,1.12,0.91,0.12,1.58,
1.601,0.17,-0.15,1.12,0.91,0.12,1.58,
1.604,0.15,-0.15,1.12,0.91,0.12,1.58,
1.607,0.14,-0.15,1.12,0.91,0.12,1.58,
1.607,0.14,-0.15,1.12,0.65,0.04,1.46,
1.609,0.13,-0.15,1.13,0.65,0.04,1.46,
1.616,0.13,-0.15,1.13,0.65,0.04,1.46,
1.617,0.13,-0.15,1.13,0.45,0.03,1.46,
1.617,0.13,-0.16,1.14,0.45,0.03,1.46,
1.617,0.13,-0.16,1.15,0.45,0.03,1.46,
1.618,0.13,-0.16,1.15,0.31,0.02,1.52,
1.618,0.14,-0.17,1.15,0.31,0.02,1.52,
1.62,0.15,-0.18,1.16,0.31,0.02,1.52,
1.621,0.15,-0.18,1.16,0.33,-0.06,1.65,
1.622,0.16,-0.18,1.17,0.33,-0.06,1.65,
1.626,0.16,-0.18,1.17,0.48,-0.17,1.80,
1.626,0.17,-0.19,1.18,0.48,-0.17,1.80,
1.628,0.18,-0.19,1.19,0.48,-0.17,1.80,
1.63,0.19,-0.19,1.20,0.48,-0.17,1.80,
1.63,0.19,-0.19,1.20,0.74,-0.27,1.96,
1.632,0.20,-0.20,1.21,0.74,-0.27,1.96,
1.636,0.21,-0.20,1.23,0.74,-0.27,1.96,
1.636,0.21,-0.20,1.23,0.99,-0.35,2.19,
1.638,0.22,-0.20,1.24,0.99,-0.35,2.19,
1.64,0.22,-0.20,1.24,0.99,-0.35,2.19,
1.641,0.22,-0.20,1.24,1.19,-0.42,2.38,
1.643,0.23,-0.20,1.25,1.19,-0.42,2.38,
1.646,0.23,-0.20,1.26,1.19,-0.42,2.38,
1.647,0.23,-0.20,1.26,1.36,-0.43,2.57,
1.65,0.24,-0.20,1.26,1.36,-0.43,2.57,
1.651,0.24,-0.20,1.26,1.49,-0.39,2.71,
1.651,0.24,-0.19,1.26,1.49,-0.39,2.71,
1.652,0.24,-0.19,1.26,1.49,-0.39,2.71,
1.655,0.24,-0.19,1.26,1.49,-0.39,2.71,
1.655,0.24,-0.19,1.26,1.57,-0.38,2.73,
1.658,0.24,-0.19,1.26,1.57,-0.38,2.73,
1.66,0.24,-0.19,1.26,1.57,-0.38,2.73,
1.66,0.24,-0.19,1.26,1.65,-0.32,2.73,
1.662,0.23,-0.19,1.26,1.65,-0.32,2.73,
1.666,0.23,-0.19,1.25,1.65,-0.32,2.73,
1.666,0.23,-0.19,1.25,1.65,-0.32,2.74,
1.667,0.23,-0.19,1.26,1.65,-0.32,2.74,
1.669,0.22,-0.19,1.26,1.65,-0.32,2.74,
1.67,0.22,-0.19,1.26,1.60,-0.36,2.68,
1.672,0.22,-0.19,1.26,1.60,-0.36,2.68,
1.674,0.22,-0.19,1.26,1.53,-0.33,2.74,
1.675,0.22,-0.19,1.27,1.53,-0.33,2.74,
1.677,0.22,-0.20,1.27,1.53,-0.33,2.74,
1.679,0.22,-0.19,1.27,1.53,-0.33,2.74,
1.679,0.22,-0.19,1.27,1.55,-0.37,2.74,
1.682,0.22,-0.20,1.28,1.55,-0.37,2.74,
1.684,0.22,-0.20,1.28,1.57,-0.42,2.79,
1.685,0.23,-0.20,1.28,1.57,-0.42,2.79,
1.687,0.23,-0.21,1.29,1.57,-0.42,2.79,
1.689,0.23,-0.21,1.30,1.57,-0.42,2.79,
1.689,0.23,-0.21,1.30,1.63,-0.50,2.92,
1.691,0.24,-0.21,1.30,1.63,-0.50,2.92,
1.695,0.25,-0.21,1.31,1.63,-0.50,2.92,
1.695,0.25,-0.21,1.31,1.73,-0.57,3.05,
1.697,0.25,-0.22,1.33,1.73,-0.57,3.05,
1.699,0.25,-0.21,1.33,1.73,-0.57,3.05,
1.699,0.25,-0.21,1.33,1.85,-0.61,3.15,
1.701,0.26,-0.21,1.33,1.85,-0.61,3.15,
1.704,0.27,-0.21,1.33,1.85,-0.61,3.15,
1.705,0.27,-0.21,1.33,1.93,-0.66,3.30,
1.707,0.27,-0.21,1.33,1.93,-0.66,3.30,
1.709,0.27,-0.21,1.33,1.93,-0.66,3.30,
1.71,0.27,-0.21,1.33,2.12,-0.68,3.32,
1.721,0.28,-0.21,1.33,2.12,-0.68,3.32,
1.722,0.28,-0.21,1.33,2.22,-0.69,3.32,
1.723,0.29,-0.21,1.32,2.22,-0.69,3.32,
1.724,0.30,-0.21,1.32,2.22,-0.69,3.32,
1.724,0.30,-0.21,1.31,2.22,-0.69,3.32,
1.725,0.30,-0.21,1.31,2.37,-0.68,3.28,
1.725,0.30,-0.21,1.30,2.37,-0.68,3.28,
1.725,0.31,-0.21,1.30,2.37,-0.68,3.28,
1.726,0.31,-0.21,1.30,2.50,-0.69,3.17,
1.738,0.31,-0.20,1.29,2.50,-0.69,3.17,
1.739,0.31,-0.20,1.28,2.50,-0.69,3.17,
1.739,0.31,-0.20,1.28,2.59,-0.71,2.99,
1.739,0.31,-0.20,1.27,2.59,-0.71,2.99,
1.739,0.31,-0.20,1.27,2.65,-0.69,2.83,
1.74,0.30,-0.20,1.26,2.65,-0.69,2.83,
1.74,0.30,-0.20,1.25,2.65,-0.69,2.83,
1.74,0.29,-0.20,1.24,2.65,-0.69,2.83,
1.74,0.29,-0.20,1.24,2.61,-0.72,2.67,
1.741,0.29,-0.20,1.24,2.61,-0.72,2.67,
1.745,0.29,-0.19,1.23,2.61,-0.72,2.67,
1.746,0.29,-0.19,1.23,2.60,-0.71,2.42,
1.746,0.29,-0.19,1.22,2.60,-0.71,2.42,
1.749,0.29,-0.19,1.22,2.57,-0.67,2.27,
1.749,0.28,-0.19,1.22,2.57,-0.67,2.27,
1.751,0.28,-0.19,1.21,2.57,-0.67,2.27,
1.753,0.27,-0.18,1.21,2.57,-0.67,2.27,
1.753,0.27,-0.18,1.21,2.54,-0.65,2.13,
1.756,0.27,-0.18,1.21,2.54,-0.65,2.13,
1.758,0.27,-0.17,1.20,2.54,-0.65,2.13,
1.758,0.27,-0.17,1.20,2.49,-0.64,2.05,
1.761,0.26,-0.17,1.20,2.49,-0.64,2.05,
1.763,0.26,-0.17,1.20,2.49,-0.64,2.05,
1.763,0.26,-0.17,1.20,2.48,-0.59,1.99,
1.766,0.26,-0.16,1.20,2.48,-0.59,1.99,
1.769,0.26,-0.16,1.20,2.48,-0.59,1.99,
1.769,0.26,-0.16,1.20,2.43,-0.58,1.97,
1.771,0.26,-0.16,1.20,2.43,-0.58,1.97,
1.773,0.26,-0.16,1.20,2.43,-0.58,1.97,
1.773,0.26,-0.16,1.20,2.47,-0.54,1.93,
1.776,0.26,-0.16,1.19,2.47,-0.54,1.93,
1.78,0.26,-0.16,1.19,2.49,-0.54,1.88,
1.781,0.26,-0.16,1.19,2.49,-0.54,1.88,
1.783,0.25,-0.16,1.20,2.49,-0.54,1.88,
1.785,0.25,-0.16,1.19,2.49,-0.54,1.88,
1.785,0.25,-0.16,1.19,2.51,-0.53,1.83,
1.786,0.25,-0.16,1.19,2.51,-0.53,1.83,
1.788,0.25,-0.16,1.20,2.51,-0.53,1.83,
1.789,0.25,-0.16,1.20,2.48,-0.58,1.84,
1.79,0.25,-0.16,1.19,2.48,-0.58,1.84,
1.794,0.24,-0.16,1.19,2.48,-0.58,1.84,
1.795,0.24,-0.16,1.19,2.45,-0.60,1.86,
1.796,0.25,-0.16,1.19,2.45,-0.60,1.86,
1.799,0.25,-0.16,1.19,2.47,-0.65,1.81,
1.799,0.25,-0.16,1.19,2.47,-0.65,1.81,
1.801,0.25,-0.16,1.19,2.47,-0.65,1.81,
1.803,0.24,-0.17,1.19,2.47,-0.65,1.81,
1.804,0.24,-0.17,1.19,2.53,-0.67,1.79,
1.806,0.24,-0.17,1.19,2.53,-0.67,1.79,
1.808,0.25,-0.17,1.18,2.53,-0.67,1.79,
1.813,0.25,-0.17,1.18,2.54,-0.76,1.79,
1.814,0.25,-0.16,1.18,2.54,-0.76,1.79,
1.814,0.25,-0.17,1.18,2.54,-0.76,1.79,
1.815,0.25,-0.17,1.18,2.56,-0.80,1.72,
1.816,0.25,-0.16,1.18,2.56,-0.80,1.72,
1.823,0.25,-0.16,1.17,2.56,-0.80,1.72,
1.823,0.25,-0.16,1.17,2.60,-0.81,1.65,
1.823,0.25,-0.15,1.17,2.60,-0.81,1.65,
1.824,0.25,-0.15,1.17,2.67,-0.82,1.61,
1.824,0.26,-0.15,1.16,2.67,-0.82,1.61,
1.826,0.27,-0.14,1.15,2.67,-0.82,1.61,
1.833,0.27,-0.14,1.15,2.67,-0.82,1.61,
1.833,0.27,-0.14,1.15,2.73,-0.71,1.49,
1.834,0.27,-0.13,1.14,2.73,-0.71,1.49,
1.834,0.28,-0.12,1.13,2.73,-0.71,1.49,
1.834,0.28,-0.12,1.13,2.87,-0.67,1.35,
1.836,0.28,-0.12,1.13,2.87,-0.67,1.35,
1.838,0.29,-0.11,1.12,2.87,-0.67,1.35,
1.838,0.29,-0.11,1.12,2.98,-0.58,1.23,
1.84,0.29,-0.11,1.11,2.98,-0.58,1.23,
1.843,0.28,-0.10,1.11,2.98,-0.58,1.23,
1.844,0.28,-0.10,1.11,3.06,-0.53,1.07,
1.846,0.29,-0.09,1.10,3.06,-0.53,1.07,
1.848,0.29,-0.09,1.09,3.06,-0.53,1.07,
1.848,0.29,-0.09,1.09,3.08,-0.47,0.97,
1.85,0.29,-0.08,1.08,3.08,-0.47,0.97,
1.853,0.29,-0.07,1.08,3.08,-0.47,0.97,
1.853,0.29,-0.07,1.08,3.13,-0.40,0.82,
1.856,0.29,-0.07,1.08,3.13,-0.40,0.82,
1.858,0.29,-0.06,1.08,3.13,-0.40,0.82,
1.858,0.29,-0.06,1.08,3.16,-0.30,0.67,
1.861,0.29,-0.06,1.08,3.16,-0.30,0.67,
1.863,0.28,-0.05,1.09,3.16,-0.30,0.67,
1.864,0.28,-0.05,1.09,3.15,-0.24,0.63,
1.865,0.28,-0.05,1.10,3.15,-0.24,0.63,
1.868,0.27,-0.04,1.11,3.15,-0.24,0.63,
1.868,0.27,-0.04,1.11,3.11,-0.11,0.72,
1.871,0.26,-0.04,1.11,3.11,-0.11,0.72,
1.873,0.26,-0.04,1.12,3.11,-0.11,0.72,
1.873,0.26,-0.04,1.12,3.03,-0.07,0.86,
1.876,0.26,-0.05,1.12,3.03,-0.07,0.86,
1.877,0.26,-0.05,1.14,3.03,-0.07,0.86,
1.878,0.26,-0.05,1.14,2.93,-0.12,0.96,
1.885,0.26,-0.06,1.14,2.93,-0.12,0.96,
1.886,0.26,-0.07,1.15,2.93,-0.12,0.96,
1.886,0.26,-0.07,1.15,2.93,-0.23,1.13,
1.886,0.26,-0.07,1.15,2.93,-0.23,1.13,
1.887,0.26,-0.08,1.15,2.93,-0.23,1.13,
1.887,0.26,-0.08,1.15,2.97,-0.38,1.26,
1.89,0.26,-0.08,1.16,2.97,-0.38,1.26,
1.893,0.26,-0.08,1.17,2.97,-0.38,1.26,
1.893,0.26,-0.08,1.17,2.96,-0.54,1.34,
1.895,0.26,-0.09,1.17,2.96,-0.54,1.34,
1.897,0.26,-0.09,1.17,2.96,-0.54,1.34,
1.899,0.26,-0.09,1.17,2.96,-0.67,1.46,
1.9,0.26,-0.10,1.17,2.96,-0.67,1.46,
1.903,0.26,-0.10,1.17,2.96,-0.67,1.46,
1.903,0.26,-0.10,1.17,2.96,-0.80,1.48,
1.905,0.26,-0.10,1.16,2.96,-0.80,1.48,
1.908,0.27,-0.10,1.15,2.96,-0.80,1.48,
1.908,0.27,-0.10,1.15,2.98,-0.90,1.47,
1.91,0.26,-0.09,1.14,2.98,-0.90,1.47,
1.912,0.27,-0.09,1.13,2.98,-0.90,1.47,
1.913,0.27,-0.09,1.13,3.02,-0.95,1.35,
1.915,0.28,-0.09,1.11,3.02,-0.95,1.35,
1.917,0.28,-0.09,1.10,3.02,-0.95,1.35,
1.918,0.28,-0.09,1.10,3.02,-0.91,1.15,
1.921,0.28,-0.08,1.09,3.02,-0.91,1.15,
1.923,0.28,-0.08,1.09,3.13,-0.97,0.90,
1.923,0.28,-0.08,1.08,3.13,-0.97,0.90,
1.925,0.28,-0.08,1.07,3.13,-0.97,0.90,
1.928,0.29,-0.07,1.05,3.13,-0.97,0.90,
1.928,0.29,-0.07,1.05,3.16,-0.98,0.67,
1.935,0.29,-0.07,1.05,3.16,-0.98,0.67,
1.936,0.29,-0.06,1.04,3.16,-0.98,0.67,
1.936,0.29,-0.06,1.04,3.16,-0.97,0.42,
1.936,0.29,-0.06,1.03,3.16,-0.97,0.42,
1.937,0.30,-0.05,1.02,3.16,-0.97,0.42,
1.937,0.30,-0.05,1.02,3.25,-0.93,0.28,
1.94,0.30,-0.05,1.01,3.25,-0.93,0.28,
1.942,0.30,-0.04,1.01,3.25,-0.93,0.28,
1.943,0.30,-0.04,1.01,3.27,-0.88,0.08,
1.951,0.31,-0.03,1.00,3.27,-0.88,0.08,
1.952,0.31,-0.02,1.00,3.27,-0.88,0.08,
1.952,0.31,-0.02,1.00,3.33,-0.80,-0.03,
1.952,0.32,-0.02,1.00,3.33,-0.80,-0.03,
1.953,0.32,-0.02,0.99,3.33,-0.80,-0.03,
1.953,0.32,-0.02,0.99,3.38,-0.73,-0.12,
1.954,0.33,-0.01,0.99,3.38,-0.73,-0.12,
1.958,0.33,-0.00,1.00,3.38,-0.73,-0.12,
1.958,0.33,-0.00,1.00,3.49,-0.70,-0.19,
1.96,0.34,0.00,1.00,3.49,-0.70,-0.19,
1.962,0.34,0.01,1.01,3.49,-0.70,-0.19,
1.962,0.34,0.01,1.01,3.55,-0.64,-0.18,
1.965,0.34,0.02,1.02,3.55,-0.64,-0.18,
1.967,0.34,0.02,1.03,3.55,-0.64,-0.18,
1.968,0.34,0.02,1.03,3.62,-0.54,-0.08,
1.969,0.35,0.03,1.03,3.62,-0.54,-0.08,
1.972,0.35,0.04,1.04,3.62,-0.54,-0.08,
1.972,0.35,0.04,1.04,3.65,-0.48,0.09,
1.975,0.36,0.05,1.05,3.65,-0.48,0.09,
1.978,0.35,0.06,1.06,3.65,-0.48,0.09,
1.978,0.35,0.06,1.06,3.74,-0.35,0.23,
1.981,0.36,0.06,1.06,3.74,-0.35,0.23,
1.982,0.35,0.06,1.07,3.74,-0.35,0.23,
1.982,0.35,0.06,1.07,3.76,-0.25,0.40,
1.985,0.35,0.06,1.08,3.76,-0.25,0.40,
1.987,0.35,0.06,1.09,3.76,-0.25,0.40,
1.987,0.35,0.06,1.09,3.76,-0.20,0.50,
1.99,0.35,0.06,1.10,3.76,-0.20,0.50,
1.992,0.34,0.06,1.10,3.76,-0.20,0.50,
1.993,0.34,0.06,1.10,3.72,-0.24,0.71,
1.994,0.33,0.06,1.11,3.72,-0.24,0.71,
1.998,0.33,0.06,1.12,3.72,-0.24,0.71,
1.999,0.33,0.06,1.12,3.64,-0.28,0.85,
1.999,0.33,0.05,1.11,3.64,-0.28,0.85,
2.002,0.33,0.05,1.11,3.50,-0.35,0.99,
2.003,0.33,0.05,1.11,3.50,-0.35,0.99,
2.005,0.31,0.05,1.11,3.50,-0.35,0.99,
2.007,0.31,0.05,1.12,3.50,-0.35,0.99,
2.007,0.31,0.05,1.12,3.49,-0.45,0.99,
2.01,0.30,0.04,1.11,3.49,-0.45,0.99,
2.011,0.29,0.04,1.10,3.49,-0.45,0.99,
2.012,0.29,0.04,1.10,3.33,-0.53,1.01,
2.015,0.28,0.04,1.09,3.33,-0.53,1.01,
2.016,0.28,0.05,1.08,3.33,-0.53,1.01,
2.017,0.28,0.05,1.08,3.16,-0.63,0.88,
2.02,0.28,0.04,1.06,3.16,-0.63,0.88,
2.022,0.28,0.04,1.06,3.04,-0.68,0.72,
2.022,0.27,0.04,1.05,3.04,-0.68,0.72,
2.024,0.26,0.04,1.04,3.04,-0.68,0.72,
2.027,0.26,0.04,1.03,3.04,-0.68,0.72,
2.027,0.26,0.04,1.03,2.96,-0.77,0.46,
2.03,0.26,0.03,1.01,2.96,-0.77,0.46,
2.033,0.25,0.04,1.00,2.96,-0.77,0.46,
2.033,0.25,0.04,1.00,2.86,-0.85,0.21,
2.036,0.25,0.04,0.98,2.86,-0.85,0.21,
2.036,0.25,0.04,0.97,2.86,-0.85,0.21,
2.037,0.25,0.04,0.97,2.81,-0.91,-0.06,
2.04,0.25,0.05,0.96,2.81,-0.91,-0.06,
2.042,0.25,0.04,0.96,2.81,-0.91,-0.06,
2.043,0.25,0.04,0.96,2.80,-0.92,-0.32,
2.043,0.24,0.05,0.96,2.80,-0.92,-0.32,
2.053,0.25,0.06,0.95,2.80,-0.92,-0.32,
2.054,0.25,0.06,0.95,2.76,-0.91,-0.45,
2.054,0.25,0.07,0.95,2.76,-0.91,-0.45,
2.055,0.25,0.07,0.94,2.76,-0.91,-0.45,
2.055,0.25,0.07,0.94,2.74,-0.86,-0.52,
2.055,0.25,0.08,0.94,2.74,-0.86,-0.52,
2.055,0.25,0.08,0.94,2.74,-0.86,-0.52,
2.056,0.25,0.08,0.94,2.74,-0.79,-0.61,
2.058,0.25,0.08,0.94,2.74,-0.79,-0.61,
2.061,0.25,0.09,0.94,2.74,-0.79,-0.61,
2.061,0.25,0.09,0.94,2.77,-0.74,-0.66,
2.064,0.25,0.09,0.94,2.77,-0.74,-0.66,
2.066,0.25,0.10,0.94,2.77,-0.74,-0.66,
2.066,0.25,0.10,0.94,2.76,-0.71,-0.64,
2.069,0.24,0.11,0.94,2.76,-0.71,-0.64,
2.071,0.25,0.11,0.94,2.76,-0.71,-0.64,
2.071,0.25,0.11,0.94,2.76,-0.65,-0.62,
2.074,0.25,0.11,0.95,2.76,-0.65,-0.62,
2.076,0.25,0.12,0.95,2.76,-0.65,-0.62,
2.076,0.25,0.12,0.95,2.76,-0.60,-0.59,
2.078,0.25,0.12,0.95,2.76,-0.60,-0.59,
2.081,0.25,0.13,0.95,2.76,-0.60,-0.59,
2.081,0.25,0.13,0.95,2.80,-0.53,-0.51,
2.084,0.25,0.13,0.95,2.80,-0.53,-0.51,
2.086,0.25,0.13,0.95,2.81,-0.48,-0.53,
2.086,0.25,0.13,0.95,2.81,-0.48,-0.53,
2.089,0.25,0.13,0.94,2.81,-0.48,-0.53,
2.091,0.23,0.13,0.95,2.81,-0.48,-0.53,
2.091,0.23,0.13,0.95,2.83,-0.51,-0.49,
2.094,0.24,0.13,0.95,2.83,-0.51,-0.49,
2.097,0.24,0.13,0.95,2.74,-0.49,-0.53,
2.098,0.23,0.13,0.95,2.74,-0.49,-0.53,
2.098,0.22,0.14,0.96,2.74,-0.49,-0.53,
2.101,0.21,0.13,0.96,2.74,-0.49,-0.53,
2.102,0.21,0.13,0.96,2.69,-0.51,-0.43,
2.103,0.21,0.12,0.96,2.69,-0.51,-0.43,
2.106,0.21,0.12,0.96,2.56,-0.54,-0.39,
2.106,0.20,0.12,0.96,2.56,-0.54,-0.39,
2.109,0.19,0.12,0.95,2.56,-0.54,-0.39,
2.111,0.19,0.12,0.95,2.43,-0.68,-0.38,
2.112,0.19,0.11,0.95,2.43,-0.68,-0.38,
2.115,0.19,0.11,0.95,2.43,-0.68,-0.38,
2.115,0.18,0.10,0.95,2.43,-0.68,-0.38,
2.116,0.18,0.10,0.95,2.34,-0.80,-0.45,
2.118,0.18,0.09,0.95,2.34,-0.80,-0.45,
2.122,0.18,0.09,0.95,2.34,-0.80,-0.45,
2.122,0.18,0.09,0.95,2.28,-0.91,-0.46,
2.124,0.18,0.08,0.93,2.28,-0.91,-0.46,
2.125,0.18,0.08,0.94,2.28,-0.91,-0.46,
2.126,0.18,0.08,0.94,2.23,-1.07,-0.46,
2.129,0.18,0.08,0.93,2.23,-1.07,-0.46,
2.132,0.18,0.07,0.92,2.23,-1.07,-0.46,
2.133,0.18,0.07,0.92,2.23,-1.17,-0.58,
2.133,0.18,0.07,0.92,2.23,-1.17,-0.58,
2.135,0.18,0.07,0.92,2.22,-1.27,-0.67,
2.136,0.18,0.08,0.92,2.22,-1.27,-0.67,
2.139,0.18,0.08,0.91,2.22,-1.27,-0.67,
2.145,0.18,0.08,0.90,2.22,-1.27,-0.67,
2.145,0.18,0.08,0.90,2.24,-1.30,-0.69,
2.146,0.18,0.09,0.90,2.24,-1.30,-0.69,
2.146,0.19,0.09,0.89,2.24,-1.30,-0.69,
2.146,0.19,0.09,0.89,2.27,-1.30,-0.82,
2.155,0.19,0.10,0.88,2.27,-1.30,-0.82,
2.156,0.18,0.11,0.88,2.27,-1.30,-0.82,
2.156,0.18,0.11,0.88,2.32,-1.22,-0.91,
2.156,0.19,0.11,0.88,2.32,-1.22,-0.91,
2.157,0.19,0.12,0.87,2.32,-1.22,-0.91,
2.157,0.19,0.12,0.87,2.33,-1.11,-1.05,
2.158,0.19,0.13,0.87,2.33,-1.11,-1.05,
2.159,0.19,0.13,0.86,2.33,-1.11,-1.05,
2.16,0.19,0.13,0.86,2.36,-1.02,-1.08,
2.167,0.20,0.14,0.86,2.36,-1.02,-1.08,
2.168,0.20,0.15,0.86,2.36,-1.02,-1.08,
2.168,0.20,0.15,0.86,2.39,-0.95,-1.15,
2.168,0.21,0.15,0.85,2.39,-0.95,-1.15,
2.169,0.21,0.16,0.84,2.39,-0.95,-1.15,
2.169,0.21,0.16,0.84,2.48,-0.85,-1.26,
2.173,0.21,0.16,0.83,2.48,-0.85,-1.26,
2.175,0.22,0.16,0.83,2.48,-0.85,-1.26,
2.175,0.22,0.16,0.83,2.55,-0.76,-1.34,
2.177,0.22,0.17,0.83,2.55,-0.76,-1.34,
2.179,0.22,0.17,0.83,2.55,-0.76,-1.34,
2.179,0.22,0.17,0.83,2.63,-0.74,-1.49,
2.183,0.22,0.17,0.82,2.63,-0.74,-1.49,
2.184,0.21,0.18,0.82,2.63,-0.74,-1.49,
2.185,0.21,0.18,0.82,2.63,-0.66,-1.51,
2.187,0.21,0.18,0.81,2.63,-0.66,-1.51,
2.19,0.21,0.18,0.82,2.63,-0.66,-1.51,
2.19,0.21,0.18,0.82,2.62,-0.61,-1.63,
2.192,0.20,0.19,0.83,2.62,-0.61,-1.63,
2.195,0.20,0.19,0.82,2.62,-0.61,-1.63,
2.195,0.20,0.19,0.82,2.57,-0.58,-1.61,
2.198,0.19,0.19,0.82,2.57,-0.58,-1.61,
2.2,0.18,0.18,0.83,2.57,-0.58,-1.61,
2.201,0.18,0.18,0.83,2.47,-0.52,-1.53,
2.202,0.17,0.18,0.84,2.47,-0.52,-1.53,
2.205,0.16,0.18,0.84,2.47,-0.52,-1.53,
2.205,0.16,0.18,0.84,2.30,-0.59,-1.51,
2.207,0.15,0.17,0.84,2.30,-0.59,-1.51,
2.21,0.15,0.17,0.84,2.15,-0.65,-1.39,
2.21,0.14,0.17,0.85,2.15,-0.65,-1.39,
2.212,0.14,0.16,0.85,2.15,-0.65,-1.39,
2.217,0.13,0.16,0.85,2.15,-0.65,-1.39,
2.217,0.13,0.16,0.85,1.97,-0.76,-1.29,
2.217,0.12,0.15,0.85,1.97,-0.76,-1.29,
2.22,0.11,0.14,0.86,1.97,-0.76,-1.29,
2.22,0.11,0.14,0.86,1.83,-0.87,-1.23,
2.222,0.10,0.14,0.86,1.83,-0.87,-1.23,
2.225,0.09,0.13,0.87,1.83,-0.87,-1.23,
2.225,0.09,0.13,0.87,1.66,-1.03,-1.20,
2.227,0.09,0.12,0.87,1.66,-1.03,-1.20,
2.229,0.08,0.12,0.88,1.66,-1.03,-1.20,
2.229,0.08,0.12,0.88,1.49,-1.14,-1.13,
2.236,0.07,0.12,0.89,1.49,-1.14,-1.13,
2.236,0.08,0.11,0.89,1.49,-1.14,-1.13,
2.236,0.08,0.11,0.89,1.37,-1.25,-1.01,
2.237,0.07,0.11,0.89,1.37,-1.25,-1.01,
2.239,0.08,0.11,0.89,1.37,-1.25,-1.01,
2.24,0.08,0.11,0.89,1.29,-1.32,-0.89,
2.241,0.07,0.11,0.90,1.29,-1.32,-0.89,
2.244,0.07,0.11,0.90,1.29,-1.32,-0.89,
2.244,0.07,0.11,0.90,1.30,-1.37,-0.81,
2.248,0.07,0.11,0.89,1.30,-1.37,-0.81,
2.249,0.08,0.10,0.89,1.30,-1.37,-0.81,
2.249,0.08,0.10,0.89,1.27,-1.39,-0.75,
2.251,0.07,0.10,0.88,1.27,-1.39,-0.75,
2.253,0.08,0.10,0.88,1.27,-1.39,-0.75,
2.254,0.08,0.10,0.88,1.29,-1.43,-0.80,
2.257,0.08,0.10,0.87,1.29,-1.43,-0.80,
2.26,0.08,0.10,0.87,1.34,-1.50,-0.91,
2.26,0.07,0.10,0.86,1.34,-1.50,-0.91,
2.262,0.08,0.10,0.86,1.34,-1.50,-0.91,
2.264,0.08,0.10,0.85,1.34,-1.50,-0.91,
2.264,0.08,0.10,0.85,1.33,-1.52,-1.06,
2.267,0.08,0.10,0.85,1.33,-1.52,-1.06,
2.269,0.07,0.10,0.84,1.33,-1.52,-1.06,
2.27,0.07,0.10,0.84,1.33,-1.56,-1.16,
2.272,0.07,0.11,0.83,1.33,-1.56,-1.16,
2.274,0.07,0.11,0.83,1.33,-1.56,-1.16,
2.274,0.07,0.11,0.83,1.31,-1.55,-1.25,
2.277,0.07,0.12,0.82,1.31,-1.55,-1.25,
2.279,0.06,0.12,0.82,1.31,-1.55,-1.25,
2.279,0.06,0.12,0.82,1.24,-1.46,-1.39,
2.282,0.07,0.12,0.81,1.24,-1.46,-1.39,
2.284,0.07,0.12,0.81,1.23,-1.41,-1.48,
2.284,0.07,0.13,0.80,1.23,-1.41,-1.48,
2.286,0.07,0.13,0.79,1.23,-1.41,-1.48,
2.289,0.07,0.13,0.80,1.23,-1.41,-1.48,
2.289,0.07,0.13,0.80,1.24,-1.35,-1.59,
2.291,0.06,0.14,0.80,1.24,-1.35,-1.59,
2.294,0.06,0.14,0.79,1.24,-1.35,-1.59,
2.294,0.06,0.14,0.79,1.23,-1.31,-1.72,
2.296,0.06,0.15,0.80,1.23,-1.31,-1.72,
2.299,0.06,0.15,0.80,1.23,-1.31,-1.72,
2.3,0.06,0.15,0.80,1.18,-1.24,-1.71,
2.301,0.05,0.16,0.80,1.18,-1.24,-1.71,
2.303,0.05,0.16,0.80,1.18,-1.24,-1.71,
2.307,0.05,0.16,0.80,1.13,-1.16,-1.65,
2.307,0.05,0.16,0.80,1.13,-1.16,-1.65,
2.308,0.05,0.16,0.80,1.08,-1.11,-1.60,
2.309,0.05,0.16,0.80,1.08,-1.11,-1.60,
2.31,0.05,0.16,0.79,1.08,-1.11,-1.60,
2.315,0.05,0.16,0.80,1.08,-1.11,-1.60,
2.316,0.05,0.16,0.80,1.07,-1.09,-1.60,
2.317,0.05,0.16,0.80,1.07,-1.09,-1.60,
2.318,0.05,0.17,0.80,1.07,-1.09,-1.60,
2.318,0.05,0.17,0.80,1.06,-1.09,-1.67,
2.321,0.05,0.17,0.79,1.06,-1.09,-1.67,
2.323,0.05,0.16,0.80,1.06,-1.09,-1.67,
2.323,0.05,0.16,0.80,1.02,-1.11,-1.62,
2.326,0.05,0.16,0.80,1.02,-1.11,-1.62,
2.327,0.05,0.16,0.79,1.02,-1.11,-1.62,
2.328,0.05,0.16,0.79,1.01,-1.12,-1.62,
2.33,0.04,0.16,0.79,1.01,-1.12,-1.62,
2.332,0.04,0.16,0.80,1.01,-1.12,-1.62,
2.333,0.04,0.16,0.80,0.98,-1.15,-1.62,
2.335,0.04,0.15,0.80,0.98,-1.15,-1.62,
2.338,0.03,0.15,0.79,0.98,-1.15,-1.62,
2.338,0.03,0.15,0.79,0.93,-1.19,-1.66,
2.34,0.03,0.15,0.79,0.93,-1.19,-1.66,
2.343,0.03,0.14,0.80,0.93,-1.19,-1.66,
2.343,0.03,0.14,0.80,0.84,-1.28,-1.64,
2.345,0.03,0.14,0.80,0.84,-1.28,-1.64,
2.348,0.02,0.14,0.80,0.84,-1.28,-1.64,
2.349,0.02,0.14,0.80,0.80,-1.35,-1.60,
2.35,0.02,0.14,0.80,0.80,-1.35,-1.60,
2.352,0.02,0.13,0.80,0.80,-1.35,-1.60,
2.353,0.02,0.13,0.80,0.73,-1.38,-1.59,
2.355,0.01,0.13,0.80,0.73,-1.38,-1.59,
2.357,0.01,0.13,0.79,0.73,-1.38,-1.59,
2.358,0.01,0.13,0.79,0.66,-1.45,-1.56,
2.361,0.01,0.13,0.80,0.66,-1.45,-1.56,
2.362,0.01,0.13,0.80,0.66,-1.45,-1.56,
2.363,0.01,0.13,0.80,0.62,-1.50,-1.61,
2.373,0.01,0.13,0.80,0.62,-1.50,-1.61,
2.374,0.02,0.13,0.80,0.62,-1.50,-1.61,
2.375,0.02,0.13,0.80,0.60,-1.55,-1.58,
2.375,0.02,0.13,0.79,0.60,-1.55,-1.58,
2.376,0.02,0.14,0.79,0.60,-1.55,-1.58,
2.376,0.02,0.14,0.79,0.62,-1.53,-1.59,
2.377,0.02,0.14,0.79,0.62,-1.53,-1.59,
2.377,0.02,0.14,0.78,0.62,-1.53,-1.59,
2.378,0.02,0.14,0.78,0.67,-1.49,-1.63,
2.389,0.02,0.14,0.78,0.67,-1.49,-1.63,
2.39,0.02,0.15,0.78,0.67,-1.49,-1.63,
2.391,0.02,0.15,0.78,0.69,-1.45,-1.68,
2.391,0.02,0.16,0.77,0.69,-1.45,-1.68,
2.391,0.02,0.16,0.78,0.69,-1.45,-1.68,
2.392,0.02,0.16,0.78,0.69,-1.38,-1.72,
2.392,0.02,0.17,0.76,0.69,-1.38,-1.72,
2.392,0.02,0.17,0.76,0.69,-1.38,-1.72,
2.393,0.02,0.17,0.76,0.65,-1.26,-1.78,
2.395,0.01,0.18,0.77,0.65,-1.26,-1.78,
2.398,0.01,0.19,0.77,0.65,-1.26,-1.78,
2.398,0.01,0.19,0.77,0.66,-1.16,-1.88,
2.399,0.02,0.19,0.77,0.66,-1.16,-1.88,
2.402,0.01,0.19,0.78,0.66,-1.16,-1.88,
2.402,0.01,0.19,0.78,0.55,-1.04,-1.83,
2.404,0.02,0.20,0.78,0.55,-1.04,-1.83,
2.407,0.01,0.20,0.79,0.55,-1.04,-1.83,
2.407,0.01,0.20,0.79,0.56,-0.99,-1.77,
2.409,0.01,0.20,0.79,0.56,-0.99,-1.77,
2.412,0.01,0.21,0.79,0.56,-0.99,-1.77,
2.412,0.01,0.21,0.79,0.54,-0.88,-1.68,
2.415,0.01,0.21,0.80,0.54,-0.88,-1.68,
2.417,0.00,0.22,0.81,0.54,-0.88,-1.68,
2.417,0.00,0.22,0.81,0.48,-0.83,-1.58,
2.419,-0.00,0.23,0.81,0.48,-0.83,-1.58,
2.421,0.00,0.22,0.81,0.48,-0.83,-1.58,
2.422,0.00,0.22,0.81,0.40,-0.73,-1.46,
2.424,-0.01,0.22,0.81,0.40,-0.73,-1.46,
2.426,-0.00,0.23,0.81,0.40,-0.73,-1.46,
2.426,-0.00,0.23,0.81,0.35,-0.67,-1.44,
2.429,0.00,0.23,0.82,0.35,-0.67,-1.44,
2.431,0.00,0.23,0.81,0.35,-0.67,-1.44,
2.432,0.00,0.23,0.81,0.30,-0.69,-1.39,
2.434,0.01,0.23,0.81,0.30,-0.69,-1.39,
2.437,0.01,0.24,0.81,0.30,-0.69,-1.39,
2.437,0.01,0.24,0.81,0.34,-0.62,-1.37,
2.439,0.01,0.23,0.80,0.34,-0.62,-1.37,
2.441,0.01,0.23,0.79,0.34,-0.62,-1.37,
2.441,0.01,0.23,0.79,0.39,-0.58,-1.41,
2.445,0.02,0.23,0.78,0.39,-0.58,-1.41,
2.449,0.02,0.23,0.78,0.39,-0.58,-1.41,
2.45,0.02,0.23,0.78,0.45,-0.61,-1.54,
2.45,0.02,0.22,0.77,0.45,-0.61,-1.54,
2.452,0.02,0.22,0.77,0.45,-0.61,-1.54,
2.452,0.02,0.22,0.77,0.50,-0.65,-1.69,
2.454,0.02,0.22,0.76,0.50,-0.65,-1.69,
2.457,0.02,0.22,0.76,0.50,-0.72,-1.80,
2.457,0.02,0.21,0.76,0.50,-0.72,-1.80,
2.459,0.01,0.21,0.76,0.50,-0.72,-1.80,
2.461,0.01,0.21,0.77,0.50,-0.72,-1.80,
2.461,0.01,0.21,0.77,0.47,-0.77,-1.88,
2.472,-0.00,0.20,0.78,0.47,-0.77,-1.88,
2.473,-0.01,0.20,0.79,0.47,-0.77,-1.88,
2.474,-0.01,0.20,0.79,0.40,-0.80,-1.84,
2.48,-0.02,0.20,0.79,0.40,-0.80,-1.84,
2.48,-0.03,0.20,0.80,0.40,-0.80,-1.84,
2.481,-0.03,0.20,0.80,0.25,-0.85,-1.65,
2.482,-0.03,0.20,0.81,0.25,-0.85,-1.65,
2.482,-0.04,0.20,0.82,0.25,-0.85,-1.65,
2.482,-0.04,0.20,0.82,0.08,-0.87,-1.51,
2.483,-0.05,0.19,0.83,0.08,-0.87,-1.51,
2.483,-0.05,0.19,0.84,0.08,-0.87,-1.51,
2.484,-0.05,0.19,0.84,-0.05,-0.87,-1.33,
2.484,-0.06,0.19,0.84,-0.05,-0.87,-1.33,
2.489,-0.06,0.18,0.85,-0.05,-0.87,-1.33,
2.49,-0.06,0.18,0.85,-0.17,-0.92,-1.18,
2.49,-0.07,0.18,0.86,-0.17,-0.92,-1.18,
2.491,-0.07,0.18,0.85,-0.17,-0.92,-1.18,
2.491,-0.07,0.18,0.85,-0.29,-0.98,-1.03,
2.495,-0.07,0.18,0.86,-0.29,-0.98,-1.03,
2.496,-0.07,0.18,0.86,-0.29,-0.98,-1.03,
2.497,-0.07,0.18,0.86,-0.38,-1.02,-0.95,
2.5,-0.08,0.18,0.86,-0.38,-1.02,-0.95,
2.501,-0.08,0.17,0.86,-0.38,-1.02,-0.95,
2.501,-0.08,0.17,0.86,-0.38,-1.00,-0.93,
2.504,-0.08,0.17,0.86,-0.38,-1.00,-0.93,
2.506,-0.08,0.18,0.85,-0.38,-1.00,-0.93,
2.506,-0.08,0.18,0.85,-0.45,-1.00,-0.93,
2.509,-0.08,0.18,0.85,-0.45,-1.00,-0.93,
2.511,-0.09,0.18,0.85,-0.45,-1.00,-0.93,
2.511,-0.09,0.18,0.85,-0.49,-0.99,-0.96,
2.515,-0.09,0.19,0.85,-0.49,-0.99,-0.96,
2.516,-0.10,0.19,0.85,-0.49,-0.99,-0.96,
2.516,-0.10,0.19,0.85,-0.54,-0.94,-1.01,
2.519,-0.10,0.19,0.85,-0.54,-0.94,-1.01,
2.521,-0.10,0.20,0.85,-0.54,-0.94,-1.01,
2.521,-0.10,0.20,0.85,-0.63,-0.86,-1.00,
2.523,-0.10,0.20,0.85,-0.63,-0.86,-1.00,
2.526,-0.10,0.21,0.85,-0.63,-0.86,-1.00,
2.526,-0.10,0.21,0.85,-0.67,-0.77,-1.01,
2.528,-0.10,0.21,0.85,-0.67,-0.77,-1.01,
2.531,-0.09,0.21,0.85,-0.67,-0.77,-1.01,
2.531,-0.09,0.21,0.85,-0.70,-0.68,-1.02,
2.534,-0.09,0.21,0.84,-0.70,-0.68,-1.02,
2.536,-0.09,0.21,0.84,-0.70,-0.68,-1.02,
2.536,-0.09,0.21,0.84,-0.67,-0.63,-1.03,
2.538,-0.09,0.21,0.84,-0.67,-0.63,-1.03,
2.541,-0.09,0.20,0.84,-0.67,-0.63,-1.03,
2.541,-0.09,0.20,0.84,-0.63,-0.62,-1.10,
2.543,-0.08,0.20,0.84,-0.63,-0.62,-1.10,
2.546,-0.08,0.20,0.83,-0.63,-0.62,-1.10,
2.546,-0.08,0.20,0.83,-0.60,-0.64,-1.09,
2.548,-0.08,0.20,0.84,-0.60,-0.64,-1.09,
2.55,-0.07,0.19,0.83,-0.60,-0.64,-1.09,
2.551,-0.07,0.19,0.83,-0.53,-0.63,-1.18,
2.554,-0.08,0.19,0.83,-0.53,-0.63,-1.18,
2.556,-0.08,0.19,0.83,-0.49,-0.71,-1.16,
2.556,-0.07,0.19,0.83,-0.49,-0.71,-1.16,
2.558,-0.07,0.19,0.83,-0.49,-0.71,-1.16,
2.56,-0.06,0.18,0.84,-0.49,-0.71,-1.16,
2.56,-0.06,0.18,0.84,-0.48,-0.76,-1.20,
2.563,-0.06,0.19,0.85,-0.48,-0.76,-1.20,
2.57,-0.06,0.19,0.86,-0.48,-0.76,-1.20,
2.57,-0.06,0.19,0.86,-0.39,-0.78,-1.17,
2.571,-0.05,0.19,0.87,-0.39,-0.78,-1.17,
2.571,-0.05,0.19,0.88,-0.39,-0.78,-1.17,
2.571,-0.05,0.19,0.88,-0.37,-0.76,-0.99,
2.576,-0.06,0.19,0.89,-0.37,-0.76,-0.99,
2.576,-0.06,0.20,0.90,-0.37,-0.76,-0.99,
2.576,-0.06,0.20,0.90,-0.27,-0.69,-0.82,
2.578,-0.06,0.20,0.91,-0.27,-0.69,-0.82,
2.58,-0.07,0.20,0.92,-0.27,-0.69,-0.82,
2.581,-0.07,0.20,0.92,-0.31,-0.61,-0.62,
2.582,-0.07,0.20,0.93,-0.31,-0.61,-0.62,
2.585,-0.07,0.20,0.94,-0.31,-0.61,-0.62,
2.585,-0.07,0.20,0.94,-0.36,-0.55,-0.40,
2.587,-0.08,0.20,0.94,-0.36,-0.55,-0.40,
2.59,-0.08,0.20,0.95,-0.36,-0.55,-0.40,
2.59,-0.08,0.20,0.95,-0.44,-0.52,-0.21,
2.592,-0.09,0.20,0.95,-0.44,-0.52,-0.21,
2.595,-0.10,0.20,0.96,-0.44,-0.52,-0.21,
2.595,-0.10,0.20,0.96,-0.51,-0.51,-0.12,
2.597,-0.10,0.20,0.96,-0.51,-0.51,-0.12,
2.6,-0.11,0.19,0.95,-0.51,-0.51,-0.12,
2.6,-0.11,0.19,0.95,-0.60,-0.51,-0.01,
2.602,-0.11,0.19,0.94,-0.60,-0.51,-0.01,
2.605,-0.11,0.19,0.94,-0.60,-0.51,-0.01,
2.605,-0.11,0.19,0.94,-0.67,-0.51,-0.03,
2.607,-0.12,0.19,0.94,-0.67,-0.51,-0.03,
2.61,-0.12,0.18,0.94,-0.67,-0.51,-0.03,
2.61,-0.12,0.18,0.94,-0.71,-0.54,-0.17,
2.612,-0.13,0.18,0.94,-0.71,-0.54,-0.17,
2.615,-0.14,0.18,0.93,-0.71,-0.54,-0.17,
2.615,-0.14,0.18,0.93,-0.81,-0.55,-0.20,
2.617,-0.14,0.18,0.93,-0.81,-0.55,-0.20,
2.62,-0.15,0.18,0.92,-0.81,-0.55,-0.20,
2.62,-0.15,0.18,0.92,-0.90,-0.56,-0.25,
2.622,-0.16,0.17,0.92,-0.90,-0.56,-0.25,
2.624,-0.17,0.18,0.92,-0.90,-0.56,-0.25,
2.624,-0.17,0.18,0.92,-1.02,-0.60,-0.36,
2.627,-0.17,0.17,0.92,-1.02,-0.60,-0.36,
2.63,-0.18,0.17,0.91,-1.02,-0.60,-0.36,
2.63,-0.18,0.17,0.91,-1.15,-0.60,-0.44,
2.633,-0.18,0.18,0.91,-1.15,-0.60,-0.44,
2.635,-0.19,0.17,0.91,-1.15,-0.60,-0.44,
2.635,-0.19,0.17,0.91,-1.22,-0.60,-0.46,
2.637,-0.20,0.17,0.91,-1.22,-0.60,-0.46,
2.64,-0.20,0.17,0.91,-1.22,-0.60,-0.46,
2.64,-0.20,0.17,0.91,-1.33,-0.56,-0.49,
2.642,-0.21,0.17,0.91,-1.33,-0.56,-0.49,
2.645,-0.21,0.18,0.91,-1.33,-0.56,-0.49,
2.645,-0.21,0.18,0.91,-1.42,-0.57,-0.49,
2.647,-0.21,0.18,0.90,-1.42,-0.57,-0.49,
2.649,-0.21,0.18,0.90,-1.42,-0.57,-0.49,
2.649,-0.21,0.18,0.90,-1.48,-0.55,-0.55,
2.652,-0.21,0.19,0.89,-1.48,-0.55,-0.55,
2.655,-0.21,0.19,0.89,-1.48,-0.55,-0.55,
2.655,-0.21,0.19,0.89,-1.46,-0.46,-0.59,
2.657,-0.21,0.19,0.89,-1.46,-0.46,-0.59,
2.66,-0.21,0.19,0.89,-1.46,-0.46,-0.59,
2.66,-0.21,0.19,0.89,-1.46,-0.39,-0.67,
2.662,-0.21,0.19,0.88,-1.46,-0.39,-0.67,
2.668,-0.21,0.19,0.89,-1.46,-0.39,-0.67,
2.669,-0.21,0.19,0.89,-1.47,-0.39,-0.72,
2.669,-0.22,0.19,0.88,-1.47,-0.39,-0.72,
2.669,-0.22,0.19,0.88,-1.45,-0.36,-0.75,
2.67,-0.22,0.19,0.88,-1.45,-0.36,-0.75,
2.672,-0.22,0.19,0.88,-1.45,-0.36,-0.75,
2.675,-0.22,0.19,0.87,-1.45,-0.36,-0.75,
2.675,-0.22,0.19,0.87,-1.47,-0.34,-0.80,
2.677,-0.22,0.19,0.87,-1.47,-0.34,-0.80,
2.679,-0.22,0.19,0.87,-1.47,-0.34,-0.80,
2.68,-0.22,0.19,0.87,-1.50,-0.31,-0.83,
2.682,-0.22,0.19,0.87,-1.50,-0.31,-0.83,
2.684,-0.23,0.19,0.87,-1.50,-0.31,-0.83,
2.684,-0.23,0.19,0.87,-1.47,-0.34,-0.87,
2.687,-0.23,0.19,0.88,-1.47,-0.34,-0.87,
2.689,-0.23,0.19,0.87,-1.47,-0.34,-0.87,
2.69,-0.23,0.19,0.87,-1.52,-0.33,-0.86,
2.692,-0.23,0.18,0.88,-1.52,-0.33,-0.86,
2.694,-0.24,0.18,0.89,-1.52,-0.33,-0.86,
2.695,-0.24,0.18,0.89,-1.56,-0.33,-0.84,
2.697,-0.24,0.18,0.89,-1.56,-0.33,-0.84,
2.699,-0.25,0.18,0.89,-1.56,-0.33,-0.84,
2.7,-0.25,0.18,0.89,-1.61,-0.36,-0.77,
2.701,-0.25,0.18,0.90,-1.61,-0.36,-0.77,
2.704,-0.25,0.17,0.90,-1.61,-0.36,-0.77,
2.705,-0.25,0.17,0.90,-1.66,-0.39,-0.69,
2.707,-0.25,0.17,0.91,-1.66,-0.39,-0.69,
2.709,-0.26,0.16,0.91,-1.66,-0.39,-0.69,
2.709,-0.26,0.16,0.91,-1.71,-0.41,-0.61,
2.711,-0.26,0.16,0.92,-1.71,-0.41,-0.61,
2.717,-0.26,0.16,0.92,-1.75,-0.46,-0.54,
2.718,-0.26,0.16,0.92,-1.75,-0.46,-0.54,
2.718,-0.26,0.16,0.93,-1.75,-0.46,-0.54,
2.719,-0.26,0.16,0.93,-1.75,-0.46,-0.54,
2.719,-0.26,0.16,0.93,-1.78,-0.49,-0.41,
2.722,-0.27,0.16,0.93,-1.78,-0.49,-0.41,
2.724,-0.27,0.15,0.93,-1.78,-0.49,-0.41,
2.725,-0.27,0.15,0.93,-1.80,-0.49,-0.33,
2.727,-0.27,0.15,0.94,-1.80,-0.49,-0.33,
2.729,-0.27,0.15,0.94,-1.80,-0.49,-0.33,
2.73,-0.27,0.15,0.94,-1.91,-0.51,-0.31,
2.731,-0.28,0.15,0.94,-1.91,-0.51,-0.31,
2.735,-0.28,0.15,0.93,-1.91,-0.51,-0.31,
2.736,-0.28,0.15,0.93,-1.90,-0.56,-0.26,
2.739,-0.28,0.14,0.93,-1.90,-0.56,-0.26,
2.739,-0.28,0.14,0.94,-1.90,-0.56,-0.26,
2.739,-0.28,0.14,0.94,-1.94,-0.54,-0.26,
2.742,-0.28,0.15,0.93,-1.94,-0.54,-0.26,
2.744,-0.29,0.14,0.92,-1.94,-0.54,-0.26,
2.745,-0.29,0.14,0.92,-1.99,-0.57,-0.30,
2.747,-0.29,0.15,0.92,-1.99,-0.57,-0.30,
2.75,-0.29,0.15,0.91,-1.99,-0.57,-0.30,
2.75,-0.29,0.15,0.91,-2.01,-0.55,-0.39,
2.751,-0.29,0.15,0.91,-2.01,-0.55,-0.39,
2.754,-0.29,0.15,0.91,-2.04,-0.52,-0.49,
2.754,-0.29,0.15,0.90,-2.04,-0.52,-0.49,
2.757,-0.29,0.15,0.90,-2.04,-0.52,-0.49,
2.759,-0.29,0.15,0.89,-2.04,-0.52,-0.49,
2.759,-0.29,0.15,0.89,-2.05,-0.52,-0.61,
2.761,-0.29,0.15,0.90,-2.05,-0.52,-0.61,
2.764,-0.30,0.15,0.89,-2.05,-0.52,-0.61,
2.764,-0.30,0.15,0.89,-2.04,-0.48,-0.67,
2.766,-0.30,0.16,0.89,-2.04,-0.48,-0.67,
2.768,-0.29,0.16,0.88,-2.04,-0.48,-0.67,
2.768,-0.29,0.16,0.88,-2.07,-0.47,-0.70,
2.771,-0.29,0.16,0.88,-2.07,-0.47,-0.70,
2.773,-0.28,0.17,0.87,-2.07,-0.47,-0.70,
2.773,-0.28,0.17,0.87,-2.09,-0.39,-0.77,
2.776,-0.28,0.17,0.87,-2.09,-0.39,-0.77,
2.778,-0.28,0.17,0.87,-2.01,-0.34,-0.87,
2.778,-0.28,0.17,0.87,-2.01,-0.34,-0.87,
2.78,-0.27,0.18,0.87,-2.01,-0.34,-0.87,
2.788,-0.27,0.18,0.87,-2.01,-0.34,-0.87,
2.788,-0.27,0.18,0.87,-1.92,-0.26,-0.93,
2.788,-0.27,0.18,0.87,-1.92,-0.26,-0.93,
2.789,-0.27,0.19,0.87,-1.92,-0.26,-0.93,
2.789,-0.27,0.19,0.87,-1.84,-0.16,-0.92,
2.79,-0.26,0.20,0.88,-1.84,-0.16,-0.92,
2.793,-0.26,0.19,0.89,-1.84,-0.16,-0.92,
2.793,-0.26,0.19,0.89,-1.81,-0.07,-0.90,
2.795,-0.26,0.20,0.90,-1.81,-0.07,-0.90,
2.799,-0.25,0.20,0.90,-1.81,-0.07,-0.90,
2.803,-0.25,0.20,0.90,-1.73,-0.00,-0.77,
2.804,-0.25,0.20,0.91,-1.73,-0.00,-0.77,
2.804,-0.24,0.19,0.91,-1.73,-0.00,-0.77,
2.804,-0.24,0.19,0.91,-1.70,0.04,-0.64,
2.807,-0.24,0.19,0.92,-1.70,0.04,-0.64,
2.808,-0.23,0.19,0.93,-1.70,0.04,-0.64,
2.808,-0.23,0.19,0.93,-1.60,0.02,-0.54,
2.811,-0.23,0.19,0.94,-1.60,0.02,-0.54,
2.813,-0.23,0.19,0.95,-1.60,0.02,-0.54,
2.814,-0.23,0.19,0.95,-1.55,-0.04,-0.41,
2.817,-0.23,0.18,0.96,-1.55,-0.04,-0.41,
2.818,-0.23,0.18,0.96,-1.55,-0.04,-0.41,
2.818,-0.23,0.18,0.96,-1.53,-0.05,-0.20,
2.821,-0.23,0.18,0.97,-1.53,-0.05,-0.20,
2.823,-0.23,0.18,0.98,-1.53,-0.05,-0.20,
2.824,-0.23,0.18,0.98,-1.49,-0.10,-0.05,
2.825,-0.22,0.18,0.99,-1.49,-0.10,-0.05,
2.828,-0.23,0.18,0.99,-1.49,-0.10,-0.05,
2.829,-0.23,0.18,0.99,-1.50,-0.10,0.09,
2.831,-0.23,0.18,1.00,-1.50,-0.10,0.09,
2.833,-0.23,0.17,1.01,-1.50,-0.10,0.09,
2.833,-0.23,0.17,1.01,-1.49,-0.12,0.23,
2.838,-0.23,0.17,1.01,-1.49,-0.12,0.23,
2.838,-0.23,0.17,1.01,-1.53,-0.11,0.36,
2.839,-0.23,0.18,1.02,-1.53,-0.11,0.36,
2.841,-0.23,0.17,1.02,-1.53,-0.11,0.36,
2.843,-0.23,0.17,1.02,-1.53,-0.11,0.36,
2.843,-0.23,0.17,1.02,-1.56,-0.10,0.46,
2.845,-0.24,0.17,1.02,-1.56,-0.10,0.46,
2.848,-0.23,0.17,1.02,-1.56,-0.10,0.46,
2.848,-0.23,0.17,1.02,-1.60,-0.14,0.50,
2.85,-0.24,0.17,1.02,-1.60,-0.14,0.50,
2.853,-0.24,0.16,1.02,-1.60,-0.14,0.50,
2.853,-0.24,0.16,1.02,-1.62,-0.17,0.49,
2.855,-0.24,0.17,1.01,-1.62,-0.17,0.49,
2.857,-0.24,0.17,1.01,-1.62,-0.17,0.49,
2.857,-0.24,0.17,1.01,-1.65,-0.20,0.48,
2.861,-0.24,0.17,1.00,-1.65,-0.20,0.48,
2.863,-0.24,0.16,1.00,-1.65,-0.20,0.48,
2.863,-0.24,0.16,1.00,-1.68,-0.20,0.41,
2.865,-0.24,0.16,0.99,-1.68,-0.20,0.41,
2.867,-0.24,0.16,0.99,-1.68,-0.20,0.41,
2.868,-0.24,0.16,0.99,-1.67,-0.22,0.33,
2.87,-0.23,0.17,0.98,-1.67,-0.22,0.33,
2.872,-0.23,0.17,0.98,-1.67,-0.22,0.33,
2.873,-0.23,0.17,0.98,-1.66,-0.23,0.21,
2.876,-0.23,0.17,0.97,-1.66,-0.23,0.21,
2.878,-0.23,0.17,0.97,-1.64,-0.21,0.11,
2.878,-0.23,0.17,0.96,-1.64,-0.21,0.11,
2.88,-0.22,0.17,0.96,-1.64,-0.21,0.11,
2.882,-0.22,0.18,0.95,-1.64,-0.21,0.11,
2.887,-0.22,0.18,0.95,-1.62,-0.20,-0.03,
2.888,-0.22,0.18,0.95,-1.62,-0.20,-0.03,
2.888,-0.22,0.18,0.95,-1.62,-0.20,-0.03,
2.889,-0.22,0.18,0.95,-1.51,-0.15,-0.10,
2.89,-0.21,0.19,0.94,-1.51,-0.15,-0.10,
2.892,-0.21,0.19,0.94,-1.50,-0.08,-0.15,
2.892,-0.21,0.19,0.94,-1.50,-0.08,-0.15,
2.895,-0.20,0.20,0.94,-1.50,-0.08,-0.15,
2.897,-0.19,0.20,0.94,-1.50,-0.08,-0.15,
2.897,-0.19,0.20,0.94,-1.42,-0.00,-0.23,
2.91,-0.19,0.20,0.94,-1.42,-0.00,-0.23,
2.911,-0.18,0.21,0.94,-1.42,-0.00,-0.23,
2.911,-0.18,0.21,0.94,-1.31,0.06,-0.25,
2.911,-0.17,0.21,0.94,-1.31,0.06,-0.25,
2.912,-0.16,0.21,0.94,-1.31,0.06,-0.25,
2.912,-0.16,0.21,0.94,-1.21,0.13,-0.26,
2.912,-0.16,0.21,0.94,-1.21,0.13,-0.26,
2.912,-0.14,0.21,0.94,-1.21,0.13,-0.26,
2.913,-0.14,0.21,0.94,-1.07,0.17,-0.28,
2.916,-0.14,0.21,0.94,-1.07,0.17,-0.28,
2.918,-0.13,0.22,0.95,-1.07,0.17,-0.28,
2.918,-0.13,0.22,0.95,-0.90,0.18,-0.27,
2.92,-0.13,0.22,0.95,-0.90,0.18,-0.27,
2.922,-0.12,0.22,0.95,-0.90,0.18,-0.27,
2.922,-0.12,0.22,0.95,-0.74,0.21,-0.21,
2.925,-0.12,0.22,0.95,-0.74,0.21,-0.21,
2.928,-0.12,0.22,0.95,-0.66,0.25,-0.17,
2.929,-0.12,0.22,0.95,-0.66,0.25,-0.17,
2.929,-0.11,0.22,0.96,-0.66,0.25,-0.17,
2.933,-0.11,0.22,0.96,-0.66,0.25,-0.17,
2.933,-0.11,0.22,0.96,-0.60,0.26,-0.17,
2.936,-0.10,0.23,0.96,-0.60,0.26,-0.17,
2.937,-0.10,0.23,0.97,-0.60,0.26,-0.17,
2.937,-0.10,0.23,0.97,-0.54,0.29,-0.07,
2.94,-0.09,0.23,0.98,-0.54,0.29,-0.07,
2.942,-0.09,0.23,0.98,-0.54,0.29,-0.07,
2.943,-0.09,0.23,0.98,-0.44,0.36,-0.03,
2.945,-0.09,0.23,0.98,-0.44,0.36,-0.03,
2.947,-0.08,0.23,0.99,-0.44,0.36,-0.03,
2.948,-0.08,0.23,0.99,-0.37,0.37,0.12,
2.952,-0.09,0.23,0.99,-0.37,0.37,0.12,
2.952,-0.09,0.23,1.00,-0.37,0.37,0.12,
2.953,-0.09,0.23,1.00,-0.32,0.38,0.18,
2.954,-0.09,0.23,1.00,-0.32,0.38,0.18,
2.956,-0.08,0.23,1.00,-0.32,0.38,0.18,
2.957,-0.08,0.23,1.00,-0.31,0.43,0.27,
2.959,-0.08,0.23,1.01,-0.31,0.43,0.27,
2.962,-0.08,0.23,1.01,-0.30,0.44,0.33,
2.962,-0.08,0.24,1.02,-0.30,0.44,0.33,
2.967,-0.08,0.24,1.02,-0.30,0.44,0.33,
2.968,-0.08,0.23,1.02,-0.30,0.44,0.33,
2.968,-0.08,0.23,1.02,-0.26,0.44,0.44,
2.972,-0.08,0.23,1.03,-0.26,0.44,0.44,
2.973,-0.09,0.23,1.03,-0.26,0.44,0.44,
2.974,-0.09,0.23,1.03,-0.30,0.45,0.49,
2.974,-0.09,0.22,1.02,-0.30,0.45,0.49,
2.976,-0.09,0.22,1.03,-0.30,0.45,0.49,
2.977,-0.09,0.22,1.03,-0.32,0.38,0.57,
2.979,-0.09,0.22,1.03,-0.32,0.38,0.57,
2.981,-0.10,0.22,1.03,-0.32,0.38,0.57,
2.982,-0.10,0.22,1.03,-0.37,0.33,0.57,
2.986,-0.10,0.22,1.03,-0.37,0.33,0.57,
2.987,-0.10,0.22,1.02,-0.37,0.33,0.57,
2.987,-0.10,0.22,1.02,-0.41,0.30,0.59,
2.989,-0.10,0.21,1.02,-0.41,0.30,0.59,
2.991,-0.11,0.22,1.02,-0.41,0.30,0.59,
2.992,-0.11,0.22,1.02,-0.47,0.26,0.54,
2.993,-0.11,0.22,1.01,-0.47,0.26,0.54,
2.996,-0.11,0.22,1.01,-0.47,0.26,0.54,
2.996,-0.11,0.22,1.01,-0.54,0.26,0.52,
2.999,-0.11,0.22,1.00,-0.54,0.26,0.52,
3.008,-0.10,0.22,0.99,-0.54,0.26,0.52,
3.009,-0.10,0.22,0.99,-0.57,0.27,0.41,
3.01,-0.10,0.22,0.99,-0.57,0.27,0.41,
3.01,-0.10,0.22,0.98,-0.57,0.27,0.41,
3.011,-0.10,0.22,0.98,-0.56,0.26,0.26,
3.011,-0.11,0.22,0.97,-0.56,0.26,0.26,
3.012,-0.10,0.22,0.96,-0.56,0.26,0.26,
3.012,-0.10,0.22,0.96,-0.53,0.23,0.16,
3.014,-0.10,0.21,0.96,-0.53,0.23,0.16,
3.023,-0.10,0.21,0.94,-0.53,0.23,0.16,
3.024,-0.10,0.21,0.94,-0.54,0.23,-0.06,
3.026,-0.09,0.22,0.93,-0.54,0.23,-0.06,
3.026,-0.10,0.22,0.93,-0.54,0.23,-0.06,
3.026,-0.10,0.22,0.93,-0.49,0.19,-0.19,
3.027,-0.10,0.22,0.92,-0.49,0.19,-0.19,
3.027,-0.10,0.22,0.91,-0.49,0.19,-0.19,
3.027,-0.10,0.22,0.91,-0.46,0.21,-0.37,
3.028,-0.10,0.22,0.91,-0.46,0.21,-0.37,
3.03,-0.10,0.21,0.90,-0.46,0.21,-0.37,
3.031,-0.10,0.21,0.90,-0.48,0.21,-0.52,
3.034,-0.10,0.22,0.90,-0.48,0.21,-0.52,
3.037,-0.10,0.21,0.90,-0.48,0.21,-0.52,
3.037,-0.10,0.21,0.90,-0.48,0.18,-0.61,
3.038,-0.10,0.22,0.90,-0.48,0.18,-0.61,
3.04,-0.10,0.21,0.90,-0.48,0.18,-0.61,
3.041,-0.10,0.21,0.90,-0.50,0.18,-0.63,
3.043,-0.10,0.21,0.91,-0.50,0.18,-0.63,
3.045,-0.10,0.21,0.91,-0.50,0.18,-0.63,
3.046,-0.10,0.21,0.91,-0.50,0.16,-0.61,
3.048,-0.10,0.21,0.92,-0.50,0.16,-0.61,
3.051,-0.10,0.21,0.93,-0.50,0.16,-0.61,
3.052,-0.10,0.21,0.93,-0.50,0.13,-0.55,
3.054,-0.10,0.21,0.94,-0.50,0.13,-0.55,
3.055,-0.10,0.22,0.95,-0.50,0.13,-0.55,
3.056,-0.10,0.22,0.95,-0.49,0.15,-0.41,
3.058,-0.09,0.21,0.96,-0.49,0.15,-0.41,
3.06,-0.09,0.21,0.97,-0.49,0.15,-0.41,
3.06,-0.09,0.21,0.97,-0.49,0.18,-0.23,
3.063,-0.09,0.21,0.97,-0.49,0.18,-0.23,
3.065,-0.09,0.21,0.98,-0.49,0.18,-0.23,
3.066,-0.09,0.21,0.98,-0.46,0.16,0.00,
3.068,-0.09,0.21,0.99,-0.46,0.16,0.00,
3.07,-0.09,0.21,1.01,-0.46,0.16,0.00,
3.071,-0.09,0.21,1.01,-0.48,0.16,0.10,
3.073,-0.08,0.21,1.01,-0.48,0.16,0.10,
3.075,-0.08,0.21,1.01,-0.44,0.16,0.31,
3.076,-0.08,0.21,1.02,-0.44,0.16,0.31,
3.078,-0.08,0.20,1.03,-0.44,0.16,0.31,
3.08,-0.08,0.21,1.03,-0.44,0.16,0.31,
3.08,-0.08,0.21,1.03,-0.41,0.14,0.43,
3.083,-0.08,0.21,1.03,-0.41,0.14,0.43,
3.086,-0.08,0.21,1.04,-0.41,0.14,0.43,
3.087,-0.08,0.21,1.04,-0.37,0.13,0.58,
3.088,-0.08,0.21,1.04,-0.37,0.13,0.58,
3.09,-0.07,0.21,1.04,-0.37,0.13,0.58,
3.091,-0.07,0.21,1.04,-0.36,0.17,0.64,
3.093,-0.08,0.21,1.04,-0.36,0.17,0.64,
3.095,-0.08,0.21,1.04,-0.36,0.17,0.64,
3.096,-0.08,0.21,1.04,-0.32,0.18,0.72,
3.098,-0.07,0.21,1.04,-0.32,0.18,0.72,
3.118,-0.07,0.20,1.04,-0.32,0.18,0.72,
3.12,-0.07,0.20,1.04,-0.34,0.16,0.72,
3.12,-0.07,0.20,1.04,-0.34,0.16,0.72,
3.12,-0.07,0.20,1.03,-0.34,0.16,0.72,
3.122,-0.07,0.20,1.03,-0.27,0.15,0.68,
3.122,-0.06,0.20,1.03,-0.27,0.15,0.68,
3.123,-0.06,0.20,1.03,-0.27,0.15,0.68,
3.123,-0.06,0.20,1.03,-0.28,0.13,0.63,
3.125,-0.06,0.20,1.02,-0.28,0.13,0.63,
3.125,-0.06,0.20,1.01,-0.28,0.13,0.63,
3.125,-0.06,0.20,1.01,-0.18,0.10,0.55,
3.125,-0.05,0.20,1.01,-0.18,0.10,0.55,
3.126,-0.06,0.20,1.01,-0.18,0.10,0.55,
3.126,-0.06,0.20,1.01,-0.17,0.09,0.45,
3.126,-0.05,0.20,1.00,-0.17,0.09,0.45,
3.126,-0.05,0.20,1.00,-0.17,0.09,0.45,
3.127,-0.05,0.20,1.00,-0.12,0.11,0.38,
3.127,-0.05,0.20,0.99,-0.12,0.11,0.38,
3.13,-0.04,0.20,0.98,-0.12,0.11,0.38,
3.13,-0.04,0.20,0.98,-0.06,0.11,0.31,
3.134,-0.05,0.20,0.98,-0.06,0.11,0.31,
3.134,-0.04,0.20,0.98,-0.06,0.11,0.31,
3.135,-0.04,0.20,0.98,-0.01,0.13,0.15,
3.139,-0.04,0.21,0.98,-0.01,0.13,0.15,
3.14,-0.04,0.21,0.97,-0.01,0.13,0.15,
3.14,-0.04,0.21,0.97,0.01,0.14,0.13,
3.142,-0.03,0.21,0.97,0.01,0.14,0.13,
3.144,-0.03,0.21,0.97,0.01,0.14,0.13,
3.144,-0.03,0.21,0.97,0.05,0.16,0.06,
3.147,-0.02,0.21,0.96,0.05,0.16,0.06,
3.15,-0.02,0.21,0.95,0.05,0.16,0.06,
3.15,-0.02,0.21,0.95,0.11,0.18,-0.03,
3.152,-0.02,0.21,0.95,0.11,0.18,-0.03,
3.154,-0.02,0.21,0.96,0.11,0.18,-0.03,
3.155,-0.02,0.21,0.96,0.21,0.18,-0.13,
3.157,-0.02,0.21,0.95,0.21,0.18,-0.13,
3.16,-0.02,0.21,0.95,0.21,0.18,-0.13,
3.16,-0.02,0.21,0.95,0.24,0.20,-0.16,
3.162,-0.02,0.21,0.95,0.24,0.20,-0.16,
3.165,-0.02,0.21,0.95,0.24,0.20,-0.16,
3.165,-0.02,0.21,0.95,0.26,0.20,-0.21,
3.167,-0.02,0.21,0.95,0.26,0.20,-0.21,
3.169,-0.02,0.21,0.95,0.26,0.20,-0.21,
3.17,-0.02,0.21,0.95,0.22,0.22,-0.20,
3.172,-0.02,0.20,0.95,0.22,0.22,-0.20,
3.175,-0.02,0.20,0.96,0.22,0.22,-0.20,
3.175,-0.02,0.20,0.96,0.19,0.18,-0.21,
3.177,-0.02,0.20,0.96,0.19,0.18,-0.21,
3.179,-0.02,0.20,0.96,0.19,0.18,-0.21,
3.18,-0.02,0.20,0.96,0.20,0.12,-0.15,
3.182,-0.03,0.19,0.97,0.20,0.12,-0.15,
3.185,-0.03,0.19,0.97,0.20,0.12,-0.15,
3.185,-0.03,0.19,0.97,0.20,0.07,-0.12,
3.187,-0.04,0.19,0.98,0.20,0.07,-0.12,
3.189,-0.04,0.18,0.98,0.20,0.07,-0.12,
3.19,-0.04,0.18,0.98,0.15,0.00,0.02,
3.192,-0.04,0.18,0.99,0.15,0.00,0.02,
3.194,-0.04,0.18,1.00,0.15,0.00,0.02,
3.194,-0.04,0.18,1.00,0.05,-0.07,0.12,
3.197,-0.05,0.17,1.00,0.05,-0.07,0.12,
3.199,-0.04,0.17,1.00,0.05,-0.07,0.12,
3.199,-0.04,0.17,1.00,0.03,-0.10,0.23,
3.201,-0.05,0.17,1.01,0.03,-0.10,0.23,
3.203,-0.05,0.17,1.01,0.03,-0.10,0.23,
3.204,-0.05,0.17,1.01,-0.05,-0.15,0.28,
3.207,-0.05,0.17,1.01,-0.05,-0.15,0.28,
3.209,-0.05,0.17,1.01,-0.05,-0.15,0.28,
3.209,-0.05,0.17,1.01,-0.09,-0.18,0.35,
3.212,-0.05,0.17,1.01,-0.09,-0.18,0.35,
3.214,-0.05,0.17,1.01,-0.09,-0.18,0.35,
3.215,-0.05,0.17,1.01,-0.08,-0.21,0.36,
3.217,-0.05,0.17,1.01,-0.08,-0.21,0.36,
3.223,-0.04,0.17,1.01,-0.08,-0.21,0.36,
3.224,-0.04,0.17,1.01,-0.11,-0.18,0.36,
3.224,-0.04,0.17,1.01,-0.11,-0.18,0.36,
3.224,-0.04,0.17,1.01,-0.08,-0.19,0.36,
3.225,-0.05,0.17,1.01,-0.08,-0.19,0.36,
3.228,-0.05,0.18,1.00,-0.08,-0.19,0.36,
3.23,-0.04,0.18,1.01,-0.08,-0.19,0.36,
3.23,-0.04,0.18,1.01,-0.05,-0.13,0.39,
3.232,-0.04,0.18,1.01,-0.05,-0.13,0.39,
3.235,-0.04,0.19,1.00,-0.05,-0.13,0.39,
3.236,-0.04,0.19,1.00,-0.07,-0.11,0.32,
3.24,-0.04,0.19,1.01,-0.07,-0.11,0.32,
3.241,-0.04,0.19,1.00,-0.07,-0.11,0.32,
3.241,-0.04,0.19,1.00,-0.06,-0.03,0.31,
3.241,-0.03,0.19,1.00,-0.06,-0.03,0.31,
3.245,-0.03,0.19,1.00,-0.06,-0.03,0.31,
3.245,-0.03,0.19,1.00,-0.00,-0.02,0.32,
3.248,-0.03,0.19,1.00,-0.00,-0.02,0.32,
3.249,-0.04,0.19,1.00,-0.00,-0.02,0.32,
3.25,-0.04,0.19,1.00,0.03,0.03,0.30,
3.251,-0.03,0.19,1.01,0.03,0.03,0.30,
3.254,-0.04,0.20,1.00,0.03,0.03,0.30,
3.255,-0.04,0.20,1.00,0.01,0.01,0.30,
3.257,-0.04,0.20,0.99,0.01,0.01,0.30,
3.259,-0.04,0.20,1.00,0.01,0.01,0.30,
3.259,-0.04,0.20,1.00,0.01,0.05,0.32,
3.262,-0.03,0.20,1.00,0.01,0.05,0.32,
3.264,-0.03,0.20,1.00,-0.02,0.07,0.27,
3.264,-0.03,0.20,1.00,-0.02,0.07,0.27,
3.267,-0.03,0.20,1.00,-0.02,0.07,0.27,
3.27,-0.03,0.20,1.00,-0.02,0.07,0.27,
3.271,-0.03,0.20,1.00,0.01,0.07,0.30,
3.272,-0.03,0.20,1.00,0.01,0.07,0.30,
3.274,-0.03,0.20,0.99,0.01,0.07,0.30,
3.274,-0.03,0.20,0.99,0.04,0.07,0.29,
3.277,-0.03,0.20,0.99,0.04,0.07,0.29,
3.279,-0.02,0.20,0.98,0.04,0.07,0.29,
3.279,-0.02,0.20,0.98,0.07,0.08,0.22,
3.282,-0.02,0.20,0.99,0.07,0.08,0.22,
3.284,-0.02,0.20,0.98,0.07,0.08,0.22,
3.284,-0.02,0.20,0.98,0.11,0.08,0.13,
3.287,-0.02,0.20,0.98,0.11,0.08,0.13,
3.289,-0.02,0.20,0.98,0.13,0.06,0.11,
3.29,-0.02,0.20,0.98,0.13,0.06,0.11,
3.292,-0.02,0.20,0.98,0.13,0.06,0.11,
3.294,-0.02,0.20,0.98,0.13,0.06,0.11,
3.297,-0.02,0.20,0.98,0.14,0.06,0.07,
3.298,-0.02,0.20,0.98,0.14,0.06,0.07,
3.3,-0.01,0.20,0.99,0.14,0.06,0.07,
3.3,-0.01,0.20,0.99,0.16,0.09,0.12,
3.304,-0.01,0.21,0.99,0.16,0.09,0.12,
3.305,-0.01,0.20,0.99,0.16,0.09,0.12,
3.305,-0.01,0.20,0.99,0.18,0.09,0.12,
3.307,-0.01,0.21,1.00,0.18,0.09,0.12,
3.308,-0.01,0.21,1.01,0.18,0.09,0.12,
3.308,-0.01,0.21,1.01,0.22,0.14,0.20,
3.312,-0.01,0.21,1.00,0.22,0.14,0.20,
3.314,-0.01,0.21,1.00,0.23,0.17,0.30,
3.315,-0.01,0.21,1.01,0.23,0.17,0.30,
3.316,-0.01,0.21,1.01,0.23,0.17,0.30,
3.321,-0.01,0.21,1.01,0.23,0.17,0.30,
3.322,-0.01,0.21,1.01,0.25,0.17,0.33,
3.322,-0.01,0.21,1.01,0.25,0.17,0.33,
3.323,-0.01,0.21,1.02,0.25,0.17,0.33,
3.323,-0.01,0.21,1.02,0.25,0.19,0.40,
3.326,-0.01,0.20,1.02,0.25,0.19,0.40,
3.329,-0.01,0.20,1.03,0.25,0.19,0.40,
3.329,-0.01,0.20,1.03,0.21,0.20,0.44,
3.331,-0.02,0.20,1.03,0.21,0.20,0.44,
3.333,-0.02,0.20,1.03,0.21,0.20,0.44,
3.334,-0.02,0.20,1.03,0.20,0.15,0.52,
3.342,-0.02,0.20,1.03,0.20,0.15,0.52,
3.343,-0.02,0.20,1.03,0.14,0.09,0.52,
3.343,-0.02,0.20,1.02,0.14,0.09,0.52,
3.344,-0.03,0.20,1.03,0.14,0.09,0.52,
3.344,-0.03,0.19,1.02,0.14,0.09,0.52,
3.345,-0.03,0.19,1.02,0.13,0.07,0.49,
3.345,-0.03,0.19,1.02,0.13,0.07,0.49,
3.348,-0.02,0.20,1.00,0.13,0.07,0.49,
3.348,-0.02,0.20,1.00,0.06,0.04,0.50,
3.35,0.00,0.20,0.96,0.06,0.04,0.50,
3.361,0.02,0.21,0.94,0.06,0.04,0.50,
3.361,0.02,0.21,0.94,0.09,0.04,0.32,
3.362,0.02,0.22,0.91,0.09,0.04,0.32,
3.362,0.03,0.23,0.91,0.09,0.04,0.32,
3.362,0.03,0.23,0.91,0.41,0.15,-0.28,
3.362,0.02,0.24,0.92,0.41,0.15,-0.28,
3.363,0.02,0.24,0.92,0.58,0.34,-0.62,
3.363,0.01,0.24,0.93,0.58,0.34,-0.62,
3.365,-0.00,0.24,0.94,0.58,0.34,-0.62,
3.368,-0.01,0.24,0.94,0.58,0.34,-0.62,
3.369,-0.01,0.24,0.94,0.48,0.43,-0.49,
3.37,-0.01,0.24,0.94,0.48,0.43,-0.49,
3.377,-0.01,0.25,0.93,0.48,0.43,-0.49,
3.377,-0.01,0.25,0.93,0.29,0.45,-0.33,
3.377,-0.01,0.25,0.92,0.29,0.45,-0.33,
3.378,-0.01,0.25,0.92,0.29,0.45,-0.33,
3.378,-0.01,0.25,0.92,0.22,0.52,-0.41,
3.379,-0.02,0.25,0.92,0.22,0.52,-0.41,
3.382,-0.02,0.25,0.93,0.22,0.52,-0.41,
3.383,-0.02,0.25,0.93,0.22,0.59,-0.51,
3.385,-0.03,0.25,0.93,0.22,0.59,-0.51,
3.387,-0.04,0.24,0.94,0.22,0.59,-0.51,
3.388,-0.04,0.24,0.94,0.14,0.61,-0.48,
3.389,-0.05,0.24,0.95,0.14,0.61,-0.48,
3.392,-0.07,0.23,0.96,0.14,0.61,-0.48,
3.393,-0.07,0.23,0.96,-0.04,0.53,-0.33,
3.394,-0.07,0.22,0.98,-0.04,0.53,-0.33,
3.398,-0.08,0.21,0.99,-0.04,0.53,-0.33,
3.398,-0.08,0.21,0.99,-0.24,0.43,-0.15,
3.4,-0.07,0.20,1.00,-0.24,0.43,-0.15,
3.402,-0.07,0.18,1.02,-0.24,0.43,-0.15,
3.403,-0.07,0.18,1.02,-0.38,0.23,0.11,
3.407,-0.07,0.16,1.04,-0.38,0.23,0.11,
3.408,-0.07,0.15,1.05,-0.38,0.23,0.11,
3.408,-0.07,0.15,1.05,-0.37,-0.01,0.35,
3.41,-0.06,0.13,1.07,-0.37,-0.01,0.35,
3.413,-0.03,0.11,1.09,-0.37,-0.01,0.35,
3.413,-0.03,0.11,1.09,-0.33,-0.32,0.68,
3.415,0.01,0.10,1.10,-0.33,-0.32,0.68,
3.418,0.04,0.10,1.11,-0.33,-0.32,0.68,
3.418,0.04,0.10,1.11,-0.12,-0.64,1.02,
3.426,0.04,0.11,1.11,-0.12,-0.64,1.02,
3.427,0.03,0.12,1.11,-0.12,-0.64,1.02,
3.427,0.03,0.12,1.11,0.53,-0.89,1.27,
3.427,0.03,0.14,1.10,0.53,-0.89,1.27,
3.428,0.02,0.16,1.09,0.53,-0.89,1.27,
3.428,0.02,0.16,1.09,0.63,-0.70,1.33,
3.43,0.01,0.17,1.08,0.63,-0.70,1.33,
3.432,0.01,0.18,1.06,0.63,-0.70,1.33,
3.433,0.01,0.18,1.06,0.48,-0.39,1.16,
3.435,0.01,0.19,1.04,0.48,-0.39,1.16,
3.442,0.01,0.19,1.04,0.36,-0.11,0.92,
3.443,0.01,0.20,1.03,0.36,-0.11,0.92,
3.443,0.00,0.20,1.01,0.36,-0.11,0.92,
3.444,-0.00,0.20,0.99,0.36,-0.11,0.92,
3.444,-0.00,0.20,0.99,0.32,0.04,0.56,
3.444,-0.00,0.20,0.97,0.32,0.04,0.56,
3.447,-0.01,0.20,0.96,0.32,0.04,0.56,
3.447,-0.01,0.20,0.96,0.25,0.06,0.24,
3.45,-0.01,0.21,0.95,0.25,0.06,0.24,
3.452,-0.02,0.21,0.94,0.25,0.06,0.24,
3.452,-0.02,0.21,0.94,0.22,0.07,-0.08,
3.466,-0.02,0.21,0.94,0.22,0.07,-0.08,
3.467,-0.02,0.21,0.93,0.22,0.07,-0.08,
3.468,-0.02,0.21,0.93,0.10,0.10,-0.33,
3.471,-0.03,0.20,0.92,0.10,0.10,-0.33,
3.471,-0.03,0.20,0.92,0.10,0.10,-0.33,
3.471,-0.03,0.20,0.92,0.06,0.10,-0.45,
3.471,-0.03,0.20,0.92,0.06,0.10,-0.45,
3.472,-0.03,0.20,0.92,0.06,0.10,-0.45,
3.472,-0.03,0.20,0.92,-0.01,0.06,-0.53,
3.472,-0.03,0.19,0.92,-0.01,0.06,-0.53,
3.472,-0.03,0.19,0.92,-0.01,0.06,-0.53,
3.472,-0.03,0.19,0.92,-0.00,0.01,-0.57,
3.474,-0.03,0.18,0.92,-0.00,0.01,-0.57,
3.476,-0.04,0.18,0.92,-0.00,0.01,-0.57,
3.476,-0.04,0.18,0.92,-0.03,-0.07,-0.54,
3.479,-0.05,0.18,0.93,-0.03,-0.07,-0.54,
3.481,-0.05,0.18,0.93,-0.03,-0.07,-0.54,
3.481,-0.05,0.18,0.93,-0.05,-0.18,-0.51,
3.483,-0.05,0.18,0.93,-0.05,-0.18,-0.51,
3.486,-0.05,0.18,0.94,-0.05,-0.18,-0.51,
3.486,-0.05,0.18,0.94,-0.16,-0.20,-0.43,
3.489,-0.06,0.18,0.95,-0.16,-0.20,-0.43,
3.491,-0.06,0.18,0.95,-0.16,-0.20,-0.43,
3.491,-0.06,0.18,0.95,-0.18,-0.19,-0.38,
3.494,-0.07,0.18,0.95,-0.18,-0.19,-0.38,
3.497,-0.07,0.18,0.95,-0.18,-0.19,-0.38,
3.497,-0.07,0.18,0.95,-0.27,-0.20,-0.27,
3.499,-0.07,0.19,0.96,-0.27,-0.20,-0.27,
3.501,-0.07,0.19,0.96,-0.27,-0.20,-0.27,
3.502,-0.07,0.19,0.96,-0.36,-0.12,-0.24,
3.503,-0.07,0.19,0.95,-0.36,-0.12,-0.24,
3.506,-0.07,0.20,0.95,-0.36,-0.12,-0.24,
3.507,-0.07,0.20,0.95,-0.37,-0.06,-0.16,
3.508,-0.07,0.20,0.96,-0.37,-0.06,-0.16,
3.511,-0.07,0.19,0.96,-0.37,-0.06,-0.16,
3.511,-0.07,0.19,0.96,-0.36,0.01,-0.22,
3.514,-0.06,0.20,0.96,-0.36,0.01,-0.22,
3.516,-0.06,0.20,0.96,-0.36,0.01,-0.22,
3.516,-0.06,0.20,0.96,-0.34,0.01,-0.12,
3.519,-0.06,0.21,0.97,-0.34,0.01,-0.12,
3.521,-0.06,0.21,0.97,-0.34,0.01,-0.12,
3.521,-0.06,0.21,0.97,-0.25,0.06,-0.13,
3.524,-0.05,0.21,0.97,-0.25,0.06,-0.13,
3.526,-0.05,0.21,0.98,-0.25,0.06,-0.13,
3.526,-0.05,0.21,0.98,-0.20,0.12,-0.06,
3.529,-0.04,0.21,0.98,-0.20,0.12,-0.06,
3.531,-0.04,0.21,0.98,-0.20,0.12,-0.06,
3.531,-0.04,0.21,0.98,-0.11,0.14,0.01,
3.534,-0.04,0.21,0.98,-0.11,0.14,0.01,
3.54,-0.04,0.21,0.98,-0.03,0.15,0.08,
3.541,-0.03,0.21,0.98,-0.03,0.15,0.08,
3.541,-0.03,0.21,0.98,-0.03,0.15,0.08,
3.541,-0.03,0.21,0.98,-0.03,0.15,0.08,
3.542,-0.03,0.21,0.98,0.03,0.14,0.07,
3.544,-0.03,0.21,0.99,0.03,0.14,0.07,
3.546,-0.03,0.21,0.99,0.07,0.13,0.08,
3.546,-0.03,0.21,0.99,0.07,0.13,0.08,
3.548,-0.03,0.21,0.99,0.07,0.13,0.08,
3.551,-0.03,0.21,0.99,0.07,0.13,0.08,
3.551,-0.03,0.21,0.99,0.07,0.13,0.15,
3.553,-0.03,0.21,0.99,0.07,0.13,0.15,
3.556,-0.04,0.21,0.99,0.07,0.13,0.15,
3.556,-0.04,0.21,0.99,0.06,0.15,0.17,
3.558,-0.04,0.21,0.99,0.06,0.15,0.17,
3.561,-0.04,0.21,0.99,0.04,0.15,0.17,
3.562,-0.05,0.20,1.00,0.04,0.15,0.17,
3.564,-0.05,0.20,0.99,0.04,0.15,0.17,
3.566,-0.05,0.20,0.99,0.04,0.15,0.17,
3.566,-0.05,0.20,0.99,-0.04,0.12,0.21,
3.569,-0.04,0.20,0.99,-0.04,0.12,0.21,
3.571,-0.05,0.20,0.99,-0.04,0.12,0.21,
3.572,-0.05,0.20,0.99,-0.08,0.07,0.17,
3.574,-0.05,0.20,0.99,-0.08,0.07,0.17,
3.576,-0.05,0.20,0.99,-0.08,0.07,0.17,
3.576,-0.05,0.20,0.99,-0.07,0.10,0.11,
3.579,-0.06,0.20,1.00,-0.07,0.10,0.11,
3.581,-0.05,0.20,0.99,-0.07,0.10,0.11,
3.581,-0.05,0.20,0.99,-0.13,0.05,0.14,
3.583,-0.05,0.20,0.99,-0.13,0.05,0.14,
3.586,-0.05,0.20,0.99,-0.13,0.05,0.14,
3.586,-0.05,0.20,0.99,-0.16,0.08,0.19,
3.589,-0.05,0.20,0.99,-0.16,0.08,0.19,
3.592,-0.05,0.20,0.99,-0.16,0.08,0.19,
3.593,-0.05,0.20,0.99,-0.15,0.08,0.18,
3.593,-0.05,0.20,0.99,-0.15,0.08,0.18,
3.596,-0.04,0.20,0.98,-0.15,0.08,0.18,
3.597,-0.04,0.20,0.98,-0.13,0.05,0.19,
3.6,-0.05,0.20,0.99,-0.13,0.05,0.19,
3.601,-0.04,0.20,0.99,-0.13,0.05,0.19,
3.601,-0.04,0.20,0.99,-0.08,0.08,0.13,
3.603,-0.05,0.20,0.99,-0.08,0.08,0.13,
3.605,-0.05,0.20,0.99,-0.08,0.08,0.13,
3.606,-0.05,0.20,0.99,-0.07,0.08,0.12,
3.608,-0.05,0.20,0.99,-0.07,0.08,0.12,
3.611,-0.05,0.20,0.99,-0.07,0.08,0.12,
3.611,-0.05,0.20,0.99,-0.10,0.05,0.16,
3.614,-0.05,0.20,0.99,-0.10,0.05,0.16,
3.616,-0.05,0.20,1.00,-0.10,0.05,0.16,
3.617,-0.05,0.20,1.00,-0.10,0.05,0.17,
3.618,-0.05,0.20,1.00,-0.10,0.05,0.17,
3.621,-0.06,0.20,1.00,-0.10,0.05,0.17,
3.621,-0.06,0.20,1.00,-0.12,0.02,0.18,
3.623,-0.05,0.19,1.00,-0.12,0.02,0.18,
3.626,-0.05,0.19,1.00,-0.14,0.00,0.23,
3.626,-0.05,0.19,0.99,-0.14,0.00,0.23,
3.629,-0.06,0.19,0.99,-0.14,0.00,0.23,
3.63,-0.05,0.18,0.99,-0.14,0.00,0.23,
3.631,-0.05,0.18,0.99,-0.14,-0.03,0.23,
3.633,-0.05,0.18,1.00,-0.14,-0.03,0.23,
3.636,-0.05,0.18,1.00,-0.14,-0.03,0.23,
3.636,-0.05,0.18,1.00,-0.14,-0.10,0.17,
3.64,-0.05,0.18,0.99,-0.14,-0.10,0.17,
3.641,-0.05,0.18,0.99,-0.14,-0.10,0.17,
3.641,-0.05,0.18,0.99,-0.08,-0.13,0.20,
3.643,-0.05,0.18,1.00,-0.08,-0.13,0.20,
3.645,-0.05,0.17,1.00,-0.08,-0.13,0.20,
3.646,-0.05,0.17,1.00,-0.06,-0.15,0.17,
3.648,-0.05,0.17,1.00,-0.06,-0.15,0.17,
3.65,-0.05,0.17,1.00,-0.06,-0.15,0.17,
3.651,-0.05,0.17,1.00,-0.06,-0.19,0.23,
3.653,-0.05,0.17,0.99,-0.06,-0.19,0.23,
3.656,-0.05,0.16,1.00,-0.06,-0.19,0.23,
3.656,-0.05,0.16,1.00,-0.04,-0.26,0.22,
3.657,-0.05,0.16,0.99,-0.04,-0.26,0.22,
3.66,-0.05,0.15,0.99,-0.04,-0.26,0.22,
3.66,-0.05,0.15,0.99,-0.04,-0.31,0.19,
3.662,-0.05,0.15,1.00,-0.04,-0.31,0.19,
3.665,-0.05,0.14,1.00,-0.04,-0.31,0.19,
3.665,-0.05,0.14,1.00,-0.06,-0.41,0.17,
3.667,-0.06,0.14,1.00,-0.06,-0.41,0.17,
3.678,-0.06,0.14,1.00,-0.06,-0.41,0.17,
3.679,-0.06,0.14,1.00,-0.10,-0.47,0.21,
3.679,-0.06,0.14,0.99,-0.10,-0.47,0.21,
3.68,-0.07,0.14,0.99,-0.10,-0.47,0.21,
3.68,-0.07,0.14,0.99,-0.16,-0.54,0.23,
3.681,-0.07,0.13,1.00,-0.16,-0.54,0.23,
3.681,-0.08,0.13,1.00,-0.16,-0.54,0.23,
3.682,-0.08,0.13,1.00,-0.19,-0.55,0.16,
3.682,-0.08,0.13,0.99,-0.19,-0.55,0.16,
3.685,-0.08,0.13,0.99,-0.19,-0.55,0.16,
3.685,-0.08,0.13,0.99,-0.28,-0.60,0.20,
3.687,-0.08,0.12,0.99,-0.28,-0.60,0.20,
3.695,-0.09,0.12,0.99,-0.28,-0.60,0.20,
3.696,-0.09,0.12,0.99,-0.32,-0.63,0.13,
3.696,-0.09,0.13,0.99,-0.32,-0.63,0.13,
3.696,-0.09,0.13,0.99,-0.32,-0.63,0.13,
3.696,-0.09,0.13,0.99,-0.36,-0.67,0.12,
3.697,-0.10,0.13,0.98,-0.36,-0.67,0.12,
3.699,-0.10,0.13,0.97,-0.36,-0.67,0.12,
3.699,-0.10,0.13,0.97,-0.41,-0.63,0.08,
3.701,-0.10,0.13,0.97,-0.41,-0.63,0.08,
3.704,-0.10,0.14,0.98,-0.41,-0.63,0.08,
3.704,-0.10,0.14,0.98,-0.46,-0.62,-0.01,
3.706,-0.10,0.14,0.97,-0.46,-0.62,-0.01,
3.709,-0.10,0.14,0.97,-0.46,-0.62,-0.01,
3.709,-0.10,0.14,0.97,-0.50,-0.58,-0.02,
3.711,-0.11,0.15,0.96,-0.50,-0.58,-0.02,
3.714,-0.11,0.14,0.95,-0.50,-0.58,-0.02,
3.714,-0.11,0.14,0.95,-0.48,-0.50,-0.08,
3.716,-0.11,0.15,0.96,-0.48,-0.50,-0.08,
3.718,-0.11,0.15,0.95,-0.48,-0.50,-0.08,
3.719,-0.11,0.15,0.95,-0.54,-0.46,-0.17,
3.722,-0.11,0.16,0.95,-0.54,-0.46,-0.17,
3.724,-0.12,0.16,0.95,-0.54,-0.46,-0.17,
3.725,-0.12,0.16,0.95,-0.54,-0.38,-0.21,
3.727,-0.12,0.16,0.94,-0.54,-0.38,-0.21,
3.73,-0.12,0.16,0.94,-0.54,-0.38,-0.21,
3.73,-0.12,0.16,0.94,-0.60,-0.32,-0.30,
3.732,-0.12,0.17,0.93,-0.60,-0.32,-0.30,
3.735,-0.11,0.17,0.92,-0.60,-0.32,-0.30,
3.735,-0.11,0.17,0.92,-0.61,-0.31,-0.33,
3.737,-0.11,0.17,0.93,-0.61,-0.31,-0.33,
3.742,-0.11,0.17,0.93,-0.60,-0.20,-0.45,
3.742,-0.11,0.18,0.92,-0.60,-0.20,-0.45,
3.742,-0.11,0.18,0.92,-0.60,-0.20,-0.45,
3.744,-0.10,0.19,0.92,-0.60,-0.20,-0.45,
3.745,-0.10,0.19,0.92,-0.52,-0.18,-0.48,
3.747,-0.10,0.19,0.91,-0.52,-0.18,-0.48,
3.749,-0.10,0.19,0.91,-0.52,-0.18,-0.48,
3.749,-0.10,0.19,0.91,-0.46,-0.09,-0.55,
3.751,-0.09,0.19,0.91,-0.46,-0.09,-0.55,
3.758,-0.09,0.19,0.91,-0.46,-0.09,-0.55,
3.758,-0.09,0.19,0.91,-0.40,-0.05,-0.64,
3.758,-0.09,0.20,0.91,-0.40,-0.05,-0.64,
3.76,-0.09,0.20,0.91,-0.35,-0.02,-0.61,
3.76,-0.09,0.20,0.91,-0.35,-0.02,-0.61,
3.763,-0.09,0.20,0.92,-0.35,-0.02,-0.61,
3.763,-0.08,0.21,0.92,-0.35,-0.02,-0.61,
3.764,-0.08,0.21,0.92,-0.30,0.08,-0.60,
3.766,-0.08,0.21,0.92,-0.30,0.08,-0.60,
3.769,-0.08,0.21,0.92,-0.30,0.08,-0.60,
3.769,-0.08,0.21,0.92,-0.26,0.12,-0.52,
3.771,-0.08,0.21,0.92,-0.26,0.12,-0.52,
3.773,-0.07,0.21,0.93,-0.26,0.12,-0.52,
3.773,-0.07,0.21,0.93,-0.23,0.13,-0.49,
3.776,-0.07,0.20,0.93,-0.23,0.13,-0.49,
3.779,-0.07,0.20,0.93,-0.23,0.13,-0.49,
3.779,-0.07,0.20,0.93,-0.16,0.14,-0.45,
3.781,-0.07,0.20,0.93,-0.16,0.14,-0.45,
3.784,-0.07,0.20,0.94,-0.16,0.14,-0.45,
3.784,-0.07,0.20,0.94,-0.11,0.06,-0.42,
3.786,-0.07,0.20,0.94,-0.11,0.06,-0.42,
3.789,-0.07,0.19,0.95,-0.11,0.06,-0.42,
3.792,-0.07,0.19,0.95,-0.11,0.07,-0.33,
3.792,-0.07,0.19,0.95,-0.11,0.07,-0.33,
3.793,-0.07,0.19,0.96,-0.11,0.07,-0.33,
3.793,-0.07,0.19,0.96,-0.09,0.03,-0.24,
3.795,-0.07,0.19,0.96,-0.09,0.03,-0.24,
3.799,-0.07,0.19,0.96,-0.09,0.03,-0.24,
3.799,-0.07,0.19,0.96,-0.10,0.01,-0.13,
3.801,-0.07,0.19,0.97,-0.10,0.01,-0.13,
3.806,-0.07,0.19,0.96,-0.10,0.01,-0.13,
3.806,-0.07,0.19,0.96,-0.12,-0.02,-0.11,
3.807,-0.07,0.19,0.97,-0.12,-0.02,-0.11,
3.809,-0.07,0.19,0.97,-0.12,-0.02,-0.11,
3.809,-0.07,0.19,0.97,-0.14,-0.02,-0.04,
3.811,-0.07,0.19,0.98,-0.14,-0.02,-0.04,
3.813,-0.07,0.19,0.97,-0.14,-0.02,-0.04,
3.813,-0.07,0.19,0.97,-0.16,-0.04,-0.01,
3.816,-0.07,0.19,0.98,-0.16,-0.04,-0.01,
3.819,-0.07,0.20,0.98,-0.16,-0.04,-0.01,
3.819,-0.07,0.20,0.98,-0.13,-0.03,0.05,
3.82,-0.07,0.20,0.98,-0.13,-0.03,0.05,
3.824,-0.07,0.20,0.98,-0.14,0.04,0.09,
3.824,-0.07,0.20,0.98,-0.14,0.04,0.09,
3.826,-0.06,0.21,0.98,-0.14,0.04,0.09,
3.829,-0.06,0.21,0.98,-0.14,0.08,0.08,
3.829,-0.06,0.21,0.98,-0.14,0.08,0.08,
3.831,-0.06,0.21,0.98,-0.14,0.08,0.08,
3.833,-0.06,0.21,0.98,-0.14,0.08,0.08,
3.833,-0.06,0.21,0.98,-0.08,0.13,0.07,
3.836,-0.05,0.22,0.98,-0.08,0.13,0.07,
3.839,-0.05,0.22,0.98,-0.08,0.13,0.07,
3.839,-0.05,0.22,0.98,-0.02,0.18,0.11,
3.841,-0.04,0.22,0.98,-0.02,0.18,0.11,
3.843,-0.04,0.22,0.98,-0.02,0.18,0.11,
3.844,-0.04,0.22,0.98,0.04,0.22,0.12,
3.846,-0.03,0.23,0.98,0.04,0.22,0.12,
3.848,-0.02,0.23,0.97,0.04,0.22,0.12,
3.848,-0.02,0.23,0.97,0.09,0.26,0.10,
3.851,-0.01,0.23,0.97,0.09,0.26,0.10,
3.853,-0.01,0.23,0.97,0.09,0.26,0.10,
3.853,-0.01,0.23,0.97,0.22,0.32,0.02,
3.857,-0.00,0.23,0.96,0.22,0.32,0.02,
3.858,0.00,0.24,0.95,0.22,0.32,0.02,
3.858,0.00,0.24,0.95,0.35,0.34,-0.01,
3.861,0.01,0.24,0.95,0.35,0.34,-0.01,
3.863,0.01,0.24,0.95,0.46,0.36,-0.14,
3.864,0.01,0.24,0.95,0.46,0.36,-0.14,
3.866,0.02,0.24,0.94,0.46,0.36,-0.14,
3.867,0.02,0.25,0.94,0.46,0.36,-0.14,
3.868,0.02,0.25,0.94,0.52,0.40,-0.21,
3.87,0.02,0.24,0.93,0.52,0.40,-0.21,
3.872,0.02,0.24,0.93,0.52,0.40,-0.21,
3.873,0.02,0.24,0.93,0.61,0.43,-0.30,
3.875,0.02,0.24,0.93,0.61,0.43,-0.30,
3.877,0.02,0.24,0.94,0.61,0.43,-0.30,
3.877,0.02,0.24,0.94,0.62,0.42,-0.36,
3.879,0.02,0.24,0.94,0.62,0.42,-0.36,
3.882,0.02,0.24,0.94,0.62,0.42,-0.36,
3.882,0.02,0.24,0.94,0.62,0.42,-0.34,
3.885,0.02,0.24,0.94,0.62,0.42,-0.34,
3.896,0.01,0.24,0.94,0.62,0.42,-0.34,
3.897,0.01,0.24,0.94,0.62,0.42,-0.31,
3.897,0.02,0.24,0.95,0.62,0.42,-0.31,
3.898,0.02,0.24,0.96,0.62,0.42,-0.31,
3.898,0.02,0.24,0.96,0.55,0.39,-0.26,
3.898,0.01,0.23,0.96,0.55,0.39,-0.26,
3.899,0.01,0.23,0.96,0.55,0.39,-0.26,
3.899,0.01,0.23,0.96,0.57,0.37,-0.17,
3.9,0.01,0.23,0.97,0.57,0.37,-0.17,
3.902,0.01,0.23,0.96,0.57,0.37,-0.17,
3.902,0.01,0.23,0.96,0.52,0.33,-0.12,
3.913,0.01,0.23,0.98,0.52,0.33,-0.12,
3.914,0.01,0.22,0.97,0.52,0.33,-0.12,
3.914,0.01,0.22,0.97,0.49,0.27,-0.05,
3.915,0.00,0.22,0.98,0.49,0.27,-0.05,
3.915,-0.00,0.22,0.99,0.49,0.27,-0.05,
3.915,-0.00,0.22,0.99,0.47,0.28,0.05,
3.915,-0.01,0.22,0.99,0.47,0.28,0.05,
3.916,-0.01,0.21,0.99,0.47,0.28,0.05,
3.917,-0.01,0.21,0.99,0.36,0.19,0.13,
3.919,-0.02,0.21,1.00,0.36,0.19,0.13,
3.923,-0.02,0.21,1.00,0.36,0.19,0.13,
3.923,-0.02,0.21,1.00,0.25,0.17,0.20,
3.924,-0.02,0.21,1.00,0.25,0.17,0.20,
3.927,-0.02,0.21,1.00,0.21,0.10,0.28,
3.927,-0.02,0.20,1.00,0.21,0.10,0.28,
3.929,-0.03,0.20,1.00,0.21,0.10,0.28,
3.931,-0.03,0.20,1.00,0.21,0.10,0.28,
3.932,-0.03,0.20,1.00,0.16,0.07,0.28,
3.934,-0.02,0.19,0.99,0.16,0.07,0.28,
3.936,-0.02,0.19,0.99,0.16,0.07,0.28,
3.936,-0.02,0.19,0.99,0.07,0.01,0.26,
3.939,-0.03,0.19,1.00,0.07,0.01,0.26,
3.941,-0.03,0.19,0.99,0.07,0.01,0.26,
3.941,-0.03,0.19,0.99,0.12,-0.05,0.23,
3.944,-0.03,0.19,0.99,0.12,-0.05,0.23,
3.947,-0.03,0.18,0.98,0.12,-0.05,0.23,
3.947,-0.03,0.18,0.98,0.05,-0.10,0.23,
3.949,-0.03,0.18,0.99,0.05,-0.10,0.23,
3.951,-0.03,0.18,0.99,0.05,-0.10,0.23,
3.951,-0.03,0.18,0.99,0.02,-0.12,0.17,
3.956,-0.03,0.18,0.98,0.02,-0.12,0.17,
3.956,-0.03,0.18,0.98,0.02,-0.12,0.17,
3.956,-0.03,0.18,0.98,0.04,-0.15,0.15,
3.96,-0.03,0.18,0.98,0.04,-0.15,0.15,
3.962,-0.04,0.18,0.99,0.04,-0.15,0.15,
3.963,-0.04,0.18,0.99,0.02,-0.17,0.12,
3.964,-0.04,0.18,0.99,0.02,-0.17,0.12,
3.966,-0.04,0.18,0.99,-0.01,-0.18,0.14,
3.967,-0.03,0.18,0.99,-0.01,-0.18,0.14,
3.969,-0.03,0.17,0.99,-0.01,-0.18,0.14,
3.973,-0.03,0.17,0.99,-0.01,-0.18,0.14,
3.975,-0.03,0.17,0.99,-0.01,-0.19,0.16,
3.975,-0.03,0.17,1.00,-0.01,-0.19,0.16,
3.976,-0.03,0.17,1.00,-0.01,-0.19,0.16,
3.976,-0.03,0.17,1.00,0.02,-0.23,0.18,
3.98,-0.03,0.17,1.00,0.02,-0.23,0.18,
3.981,-0.03,0.17,1.00,0.01,-0.26,0.24,
3.981,-0.03,0.16,1.01,0.01,-0.26,0.24,
3.984,-0.04,0.17,1.01,0.01,-0.26,0.24,
3.987,-0.04,0.17,1.02,0.01,-0.26,0.24,
3.987,-0.04,0.17,1.02,-0.01,-0.29,0.33,
3.991,-0.03,0.16,1.02,-0.01,-0.29,0.33,
3.992,-0.03,0.17,1.02,-0.01,-0.29,0.33,
3.992,-0.03,0.17,1.02,-0.05,-0.26,0.41,
3.994,-0.03,0.17,1.03,-0.05,-0.26,0.41,
3.996,-0.03,0.17,1.03,-0.05,-0.26,0.41,
3.996,-0.03,0.17,1.03,-0.03,-0.27,0.48,
3.999,-0.02,0.17,1.03,-0.03,-0.27,0.48,
4.002,-0.03,0.17,1.03,-0.03,-0.27,0.48,
4.002,-0.03,0.17,1.03,-0.01,-0.26,0.52,
4.004,-0.02,0.17,1.03,-0.01,-0.26,0.52,
4.006,-0.02,0.17,1.03,-0.01,-0.26,0.52,
4.006,-0.02,0.17,1.03,0.04,-0.25,0.56,
4.008,-0.02,0.17,1.03,0.04,-0.25,0.56,
4.011,-0.02,0.18,1.03,0.04,-0.25,0.56,
4.011,-0.02,0.18,1.03,0.10,-0.23,0.56,
4.014,-0.01,0.18,1.03,0.10,-0.23,0.56,
4.016,-0.01,0.18,1.03,0.10,-0.23,0.56,
4.017,-0.01,0.18,1.03,0.11,-0.18,0.55,
4.019,-0.01,0.18,1.03,0.11,-0.18,0.55,
4.021,-0.01,0.18,1.02,0.11,-0.18,0.55,
4.021,-0.01,0.18,1.02,0.17,-0.15,0.54,
4.023,-0.00,0.19,1.02,0.17,-0.15,0.54,
4.026,-0.01,0.19,1.02,0.17,-0.15,0.54,
4.026,-0.01,0.19,1.02,0.16,-0.13,0.49,
4.028,-0.00,0.19,1.02,0.16,-0.13,0.49,
4.032,-0.00,0.20,1.01,0.16,-0.13,0.49,
4.032,-0.00,0.20,1.01,0.23,-0.07,0.42,
4.034,-0.00,0.20,1.01,0.23,-0.07,0.42,
4.036,-0.00,0.20,1.00,0.23,-0.07,0.42,
4.037,-0.00,0.20,1.00,0.25,-0.01,0.37,
4.04,-0.00,0.20,1.00,0.25,-0.01,0.37,
4.043,0.00,0.21,1.00,0.25,-0.01,0.37,
4.043,0.00,0.21,1.00,0.26,0.05,0.28,
4.043,0.00,0.21,1.00,0.26,0.05,0.28,
4.046,0.01,0.21,0.98,0.26,0.05,0.28,
4.046,0.01,0.21,0.98,0.28,0.11,0.20,
4.049,0.01,0.22,0.99,0.28,0.11,0.20,
4.051,0.01,0.22,0.99,0.28,0.11,0.20,
4.051,0.01,0.22,0.99,0.31,0.14,0.12,
4.054,0.01,0.22,0.98,0.31,0.14,0.12,
4.057,0.01,0.22,0.98,0.31,0.14,0.12,
4.057,0.01,0.22,0.98,0.36,0.23,0.08,
4.059,0.02,0.22,0.97,0.36,0.23,0.08,
4.061,0.02,0.22,0.97,0.36,0.23,0.08,
4.061,0.02,0.22,0.97,0.38,0.22,0.01,
4.064,0.02,0.22,0.97,0.38,0.22,0.01,
4.067,0.02,0.23,0.97,0.38,0.22,0.01,
4.067,0.02,0.23,0.97,0.45,0.25,-0.05,
4.069,0.02,0.23,0.97,0.45,0.25,-0.05,
4.071,0.01,0.23,0.97,0.45,0.25,-0.05,
4.071,0.01,0.23,0.97,0.45,0.29,-0.09,
4.074,0.01,0.23,0.97,0.45,0.29,-0.09,
4.075,0.01,0.23,0.97,0.39,0.32,-0.06,
4.075,0.01,0.23,0.98,0.39,0.32,-0.06,
4.078,0.01,0.23,0.97,0.39,0.32,-0.06,
4.081,0.02,0.23,0.98,0.39,0.32,-0.06,
4.082,0.02,0.23,0.98,0.37,0.34,-0.04,
4.084,0.01,0.23,0.98,0.37,0.34,-0.04,
4.086,0.02,0.23,0.98,0.37,0.34,-0.04,
4.087,0.02,0.23,0.98,0.38,0.35,-0.02,
4.088,0.01,0.23,0.98,0.38,0.35,-0.02,
4.091,0.01,0.22,0.98,0.38,0.35,-0.02,
4.092,0.01,0.22,0.98,0.37,0.34,0.02,
4.093,0.02,0.23,0.98,0.37,0.34,0.02,
4.096,0.02,0.22,0.98,0.37,0.34,0.02,
4.096,0.02,0.22,0.98,0.35,0.28,0.03,
4.098,0.02,0.22,0.99,0.35,0.28,0.03,
4.101,0.02,0.22,0.99,0.41,0.28,0.03,
4.102,0.02,0.22,0.99,0.41,0.28,0.03,
4.102,0.02,0.23,0.98,0.41,0.28,0.03,
4.115,0.02,0.22,0.98,0.41,0.28,0.03,
4.116,0.02,0.22,0.98,0.39,0.24,0.09,
4.116,0.02,0.22,0.98,0.39,0.24,0.09,
4.116,0.02,0.22,0.99,0.39,0.24,0.09,
4.117,0.02,0.22,0.99,0.39,0.26,0.05,
4.117,0.02,0.22,0.99,0.39,0.26,0.05,
4.118,0.02,0.22,0.99,0.39,0.26,0.05,
4.118,0.02,0.22,0.99,0.41,0.23,0.09,
4.118,0.02,0.22,0.99,0.41,0.23,0.09,
4.122,0.01,0.22,0.99,0.41,0.23,0.09,
4.122,0.01,0.22,0.99,0.40,0.22,0.09,
4.122,0.01,0.22,0.99,0.40,0.22,0.09,
4.132,0.01,0.22,0.98,0.40,0.22,0.09,
4.132,0.01,0.22,0.98,0.36,0.23,0.12,
4.133,0.01,0.22,0.99,0.36,0.23,0.12,
4.133,0.01,0.23,0.99,0.36,0.23,0.12,
4.133,0.01,0.23,0.99,0.32,0.22,0.09,
4.134,0.01,0.22,0.99,0.32,0.22,0.09,
4.134,0.01,0.22,0.99,0.32,0.22,0.09,
4.134,0.01,0.22,0.99,0.32,0.25,0.12,
4.137,0.01,0.22,0.98,0.32,0.25,0.12,
4.139,0.01,0.21,0.99,0.32,0.25,0.12,
4.14,0.01,0.21,0.99,0.28,0.20,0.10,
4.142,0.01,0.22,0.99,0.28,0.20,0.10,
4.145,0.01,0.21,0.98,0.28,0.20,0.10,
4.145,0.01,0.21,0.98,0.30,0.15,0.07,
4.148,0.01,0.21,0.98,0.30,0.15,0.07,
4.15,0.01,0.21,0.99,0.30,0.15,0.07,
4.15,0.01,0.21,0.99,0.30,0.15,0.07,
4.152,0.01,0.20,0.99,0.30,0.15,0.07,
4.155,0.00,0.20,0.99,0.30,0.15,0.07,
4.155,0.00,0.20,0.99,0.27,0.09,0.07,
4.158,-0.00,0.20,0.99,0.27,0.09,0.07,
4.161,-0.00,0.20,1.00,0.27,0.09,0.07,
4.161,-0.00,0.20,1.00,0.24,0.04,0.11,
4.163,-0.01,0.20,1.00,0.24,0.04,0.11,
4.165,-0.01,0.20,1.00,0.24,0.04,0.11,
4.165,-0.01,0.20,1.00,0.16,0.04,0.15,
4.168,-0.01,0.20,1.00,0.16,0.04,0.15,
4.17,-0.01,0.20,1.00,0.11,-0.00,0.20,
4.17,-0.01,0.20,1.00,0.11,-0.00,0.20,
4.172,-0.01,0.19,1.00,0.11,-0.00,0.20,
4.175,-0.02,0.19,1.00,0.11,-0.00,0.20,
4.176,-0.02,0.19,1.00,0.09,-0.03,0.20,
4.177,-0.01,0.19,1.00,0.09,-0.03,0.20,
4.18,-0.02,0.19,1.00,0.09,-0.03,0.20,
4.181,-0.02,0.19,1.00,0.02,-0.06,0.19,
4.183,-0.02,0.19,1.01,0.02,-0.06,0.19,
4.185,-0.02,0.18,1.00,0.02,-0.06,0.19,
4.186,-0.02,0.18,1.00,0.02,-0.09,0.20,
4.188,-0.02,0.19,1.00,0.02,-0.09,0.20,
4.196,-0.03,0.19,1.00,0.02,-0.09,0.20,
4.196,-0.03,0.19,1.00,-0.05,-0.12,0.24,
4.197,-0.02,0.19,1.00,-0.05,-0.12,0.24,
4.197,-0.02,0.19,1.00,-0.05,-0.12,0.24,
4.197,-0.02,0.19,1.00,-0.06,-0.08,0.21,
4.197,-0.03,0.19,1.00,-0.06,-0.08,0.21,
4.199,-0.02,0.20,1.00,-0.06,-0.08,0.21,
4.2,-0.02,0.20,1.00,-0.06,-0.09,0.21,
4.201,-0.03,0.19,1.00,-0.06,-0.09,0.21,
4.204,-0.03,0.19,1.00,-0.06,-0.09,0.21,
4.204,-0.03,0.19,1.00,-0.08,-0.06,0.18,
4.211,-0.03,0.19,1.00,-0.08,-0.06,0.18,
4.211,-0.03,0.19,1.00,-0.08,-0.06,0.18,
4.211,-0.03,0.19,1.00,-0.10,-0.11,0.18,
4.212,-0.02,0.19,0.99,-0.10,-0.11,0.18,
4.215,-0.02,0.19,0.99,-0.10,-0.11,0.18,
4.215,-0.02,0.19,0.99,-0.11,-0.11,0.17,
4.217,-0.02,0.19,0.99,-0.11,-0.11,0.17,
4.22,-0.01,0.19,0.99,-0.11,-0.11,0.17,
4.22,-0.01,0.19,0.99,-0.07,-0.10,0.14,
4.222,-0.01,0.19,0.98,-0.07,-0.10,0.14,
4.225,-0.01,0.19,0.98,-0.07,-0.10,0.14,
4.225,-0.01,0.19,0.98,-0.01,-0.13,0.09,
4.227,-0.01,0.19,0.98,-0.01,-0.13,0.09,
4.23,-0.01,0.19,0.98,-0.01,-0.13,0.09,
4.23,-0.01,0.19,0.98,0.05,-0.12,0.02,
4.232,-0.00,0.19,0.98,0.05,-0.12,0.02,
4.234,-0.00,0.19,0.98,0.05,-0.12,0.02,
4.235,-0.00,0.19,0.98,0.08,-0.10,0.03,
4.237,-0.01,0.19,0.98,0.08,-0.10,0.03,
4.241,-0.01,0.19,0.98,0.08,-0.10,0.03,
4.241,-0.01,0.19,0.98,0.11,-0.13,-0.01,
4.242,-0.00,0.18,0.98,0.11,-0.13,-0.01,
4.244,-0.00,0.18,0.98,0.11,-0.13,-0.01,
4.245,-0.00,0.18,0.98,0.10,-0.14,0.01,
4.247,0.00,0.19,0.98,0.10,-0.14,0.01,
4.249,0.00,0.19,0.98,0.10,-0.14,0.01,
4.249,0.00,0.19,0.98,0.14,-0.17,-0.02,
4.252,0.00,0.19,0.98,0.14,-0.17,-0.02,
4.254,0.00,0.19,0.98,0.14,-0.17,-0.02,
4.254,0.00,0.19,0.98,0.16,-0.15,-0.01,
4.259,-0.00,0.19,0.98,0.16,-0.15,-0.01,
4.259,-0.00,0.19,0.98,0.16,-0.15,-0.01,
4.26,-0.00,0.19,0.98,0.17,-0.13,0.03,
4.261,-0.00,0.19,0.99,0.17,-0.13,0.03,
4.264,0.00,0.20,0.99,0.17,-0.13,0.03,
4.264,0.00,0.20,0.99,0.14,-0.12,0.04,
4.267,-0.00,0.20,0.99,0.14,-0.12,0.04,
4.27,-0.01,0.19,0.99,0.14,-0.12,0.04,
4.27,-0.01,0.19,0.99,0.13,-0.07,0.07,
4.272,-0.01,0.19,1.00,0.13,-0.07,0.07,
4.274,-0.01,0.20,1.00,0.13,-0.07,0.07,
4.275,-0.01,0.20,1.00,0.11,-0.05,0.11,
4.277,-0.01,0.20,1.00,0.11,-0.05,0.11,
4.279,-0.01,0.20,1.00,0.11,-0.05,0.11,
4.279,-0.01,0.20,1.00,0.10,-0.06,0.18,
4.281,-0.01,0.20,1.00,0.10,-0.06,0.18,
4.284,-0.01,0.20,1.01,0.10,-0.06,0.18,
4.29,-0.01,0.20,1.01,0.07,-0.04,0.19,
4.29,-0.01,0.20,1.00,0.07,-0.04,0.19,
4.29,-0.01,0.20,1.01,0.07,-0.04,0.19,
4.291,-0.01,0.20,1.01,0.06,-0.01,0.23,
4.291,-0.02,0.21,1.01,0.06,-0.01,0.23,
4.294,-0.02,0.21,1.00,0.06,-0.01,0.23,
4.295,-0.02,0.21,1.00,0.03,0.04,0.25,
4.296,-0.04,0.22,0.96,0.03,0.04,0.25,
4.299,-0.04,0.22,0.96,-0.03,0.07,0.20,
4.299,-0.02,0.23,0.92,-0.03,0.07,0.20,
4.301,-0.00,0.24,0.90,-0.03,0.07,0.20,
4.303,0.01,0.24,0.91,-0.03,0.07,0.20,
4.303,0.01,0.24,0.91,-0.14,0.22,-0.40,
4.309,0.01,0.24,0.93,-0.14,0.22,-0.40,
4.309,-0.00,0.23,0.95,-0.14,0.22,-0.40,
4.31,-0.00,0.23,0.95,0.21,0.36,-0.72,
4.311,-0.01,0.22,0.97,0.21,0.36,-0.72,
4.313,-0.00,0.20,0.99,0.21,0.36,-0.72,
4.313,-0.00,0.20,0.99,0.20,0.31,-0.40,
4.315,0.00,0.20,0.99,0.20,0.31,-0.40,
4.318,-0.01,0.21,1.00,0.20,0.31,-0.40,
4.318,-0.01,0.21,1.00,0.15,0.09,-0.03,
4.32,-0.02,0.23,1.00,0.15,0.09,-0.03,
4.322,-0.02,0.24,1.00,0.15,0.09,-0.03,
4.323,-0.02,0.24,1.00,0.16,0.08,0.13,
4.328,-0.02,0.25,1.00,0.16,0.08,0.13,
4.328,-0.02,0.25,1.01,0.16,0.08,0.13,
4.328,-0.02,0.25,1.01,-0.01,0.31,0.21,
4.33,-0.01,0.24,1.00,-0.01,0.31,0.21,
4.332,-0.00,0.24,0.99,-0.01,0.31,0.21,
4.332,-0.00,0.24,0.99,0.01,0.45,0.26,
4.335,0.01,0.23,0.98,0.01,0.45,0.26,
4.338,0.02,0.23,0.98,0.01,0.45,0.26,
4.339,0.02,0.23,0.98,0.12,0.38,0.18,
4.342,0.02,0.22,0.98,0.12,0.38,0.18,
4.347,0.03,0.22,0.98,0.12,0.38,0.18,
4.347,0.03,0.22,0.98,0.32,0.27,0.02,
4.347,0.03,0.21,0.97,0.32,0.27,0.02,
4.348,0.03,0.21,0.97,0.45,0.15,-0.03,
4.348,0.02,0.21,0.97,0.45,0.15,-0.03,
4.351,0.02,0.21,0.97,0.45,0.15,-0.03,
4.353,0.01,0.21,0.98,0.45,0.15,-0.03,
4.353,0.01,0.21,0.98,0.40,0.10,-0.06,
4.356,0.00,0.21,0.98,0.40,0.10,-0.06,
4.366,-0.00,0.21,0.98,0.40,0.10,-0.06,
4.366,-0.00,0.21,0.98,0.34,0.07,-0.06,
4.367,-0.01,0.21,0.98,0.34,0.07,-0.06,
4.367,-0.02,0.20,0.98,0.34,0.07,-0.06,
4.367,-0.02,0.20,0.98,0.18,0.06,0.01,
4.367,-0.03,0.20,0.99,0.18,0.06,0.01,
4.367,-0.03,0.20,0.99,0.18,0.06,0.01,
4.368,-0.03,0.20,0.99,0.00,0.01,-0.00,
4.371,-0.03,0.19,0.99,0.00,0.01,-0.00,
4.373,-0.03,0.18,0.99,0.00,0.01,-0.00,
4.373,-0.03,0.18,0.99,-0.11,-0.05,0.08,
4.383,-0.03,0.18,0.99,-0.11,-0.05,0.08,
4.384,-0.04,0.18,0.99,-0.11,-0.05,0.08,
4.384,-0.04,0.18,0.99,-0.14,-0.16,0.10,
4.384,-0.04,0.17,1.00,-0.14,-0.16,0.10,
4.385,-0.04,0.17,1.00,-0.14,-0.16,0.10,
4.385,-0.04,0.17,1.00,-0.16,-0.25,0.14,
4.385,-0.04,0.16,1.00,-0.16,-0.25,0.14,
