
time,gFx,gFy,gFz,ax,ay,az,
0.006,0.01,-0.04,1.05,-0.49,-0.13,0.22,
0.007,0.01,-0.05,1.05,-0.49,-0.13,0.22,
0.007,0.01,-0.05,1.05,-0.43,-0.39,0.41,
0.007,0.01,-0.05,1.05,-0.43,-0.39,0.41,
0.007,0.01,-0.05,1.06,-0.43,-0.39,0.41,
0.008,0.01,-0.05,1.06,-0.44,-0.52,0.53,
0.008,0.00,-0.05,1.06,-0.44,-0.52,0.53,
0.008,-0.00,-0.05,1.07,-0.44,-0.52,0.53,
0.009,-0.00,-0.05,1.07,-0.44,-0.57,0.58,
0.009,-0.00,-0.04,1.07,-0.44,-0.57,0.58,
0.009,-0.00,-0.03,1.07,-0.44,-0.57,0.58,
0.009,-0.00,-0.03,1.07,-0.50,-0.56,0.64,
0.009,-0.01,-0.02,1.08,-0.50,-0.56,0.64,
0.013,-0.01,-0.02,1.08,-0.50,-0.56,0.64,
0.014,-0.01,-0.02,1.08,-0.53,-0.44,0.72,
0.014,0.00,-0.01,1.08,-0.53,-0.44,0.72,
0.023,0.01,-0.00,1.07,-0.53,-0.44,0.72,
0.023,0.01,-0.00,1.07,-0.57,-0.29,0.78,
0.023,0.02,-0.00,1.05,-0.57,-0.29,0.78,
0.024,0.03,0.01,1.06,-0.57,-0.29,0.78,
0.024,0.03,0.01,1.06,-0.43,-0.16,0.72,
0.024,0.06,-0.01,1.05,-0.43,-0.16,0.72,
0.027,0.10,-0.02,1.02,-0.43,-0.16,0.72,
0.027,0.10,-0.02,1.02,-0.22,-0.07,0.54,
0.029,0.12,-0.02,0.98,-0.22,-0.07,0.54,
0.034,0.13,-0.02,0.95,-0.22,-0.07,0.54,
0.034,0.13,-0.02,0.95,0.29,-0.22,0.32,
0.035,0.11,-0.01,0.97,0.29,-0.22,0.32,
0.036,0.11,-0.01,0.97,0.74,-0.29,-0.38,
0.036,0.11,0.01,0.98,0.74,-0.29,-0.38,
0.039,0.11,0.02,0.98,0.74,-0.29,-0.38,
0.042,0.11,0.02,0.98,0.61,-0.09,-0.27,
0.042,0.11,0.02,0.99,0.61,-0.09,-0.27,
0.044,0.11,0.03,0.99,0.61,-0.09,-0.27,
0.046,0.10,0.03,1.00,0.61,-0.09,-0.27,
0.046,0.10,0.03,1.00,0.59,0.11,-0.13,
0.048,0.10,0.03,1.00,0.59,0.11,-0.13,
0.051,0.09,0.03,1.00,0.59,0.11,-0.13,
0.051,0.09,0.03,1.00,0.55,0.18,-0.05,
0.054,0.09,0.02,1.01,0.55,0.18,-0.05,
0.056,0.09,0.02,1.00,0.55,0.18,-0.05,
0.057,0.09,0.02,1.00,0.49,0.21,-0.00,
0.059,0.08,0.01,1.00,0.49,0.21,-0.00,
0.062,0.07,0.01,1.00,0.49,0.21,-0.00,
0.062,0.07,0.01,1.00,0.44,0.15,0.03,
0.064,0.07,0.00,1.00,0.44,0.15,0.03,
0.067,0.07,0.00,1.00,0.35,0.03,-0.01,
0.067,0.06,-0.00,0.99,0.35,0.03,-0.01,
0.069,0.05,-0.01,0.99,0.35,0.03,-0.01,
0.071,0.05,-0.01,0.98,0.35,0.03,-0.01,
0.071,0.05,-0.01,0.98,0.26,-0.03,-0.08,
0.074,0.04,-0.01,0.98,0.26,-0.03,-0.08,
0.077,0.03,-0.01,0.98,0.26,-0.03,-0.08,
0.077,0.03,-0.01,0.98,0.16,-0.10,-0.21,
0.08,0.02,-0.01,0.97,0.16,-0.10,-0.21,
0.082,0.01,-0.01,0.97,0.16,-0.10,-0.21,
0.082,0.01,-0.01,0.97,-0.00,-0.13,-0.18,
0.084,0.01,-0.01,0.97,-0.00,-0.13,-0.18,
0.086,-0.00,-0.02,0.96,-0.00,-0.13,-0.18,
0.086,-0.00,-0.02,0.96,-0.14,-0.09,-0.30,
0.088,-0.01,-0.01,0.96,-0.14,-0.09,-0.30,
0.092,-0.01,-0.01,0.96,-0.26,-0.12,-0.34,
0.092,-0.01,-0.01,0.95,-0.26,-0.12,-0.34,
0.094,-0.02,-0.01,0.96,-0.26,-0.12,-0.34,
0.096,-0.02,-0.01,0.95,-0.26,-0.12,-0.34,
0.096,-0.02,-0.01,0.95,-0.35,-0.08,-0.44,
0.099,-0.03,-0.01,0.95,-0.35,-0.08,-0.44,
0.101,-0.03,-0.01,0.96,-0.35,-0.08,-0.44,
0.102,-0.03,-0.01,0.96,-0.46,-0.04,-0.45,
0.104,-0.03,-0.01,0.96,-0.46,-0.04,-0.45,
0.106,-0.03,-0.00,0.96,-0.46,-0.04,-0.45,
0.106,-0.03,-0.00,0.96,-0.50,-0.04,-0.46,
0.109,-0.04,-0.01,0.97,-0.50,-0.04,-0.46,
0.111,-0.04,-0.01,0.97,-0.53,-0.00,-0.37,
0.112,-0.03,-0.00,0.97,-0.53,-0.00,-0.37,
0.113,-0.03,0.00,0.97,-0.53,-0.00,-0.37,
0.115,-0.03,0.00,0.97,-0.52,-0.00,-0.32,
0.116,-0.02,0.00,0.97,-0.52,-0.00,-0.32,
0.119,-0.01,0.00,0.98,-0.52,-0.00,-0.32,
0.121,-0.01,-0.00,0.98,-0.52,-0.00,-0.32,
0.121,-0.01,-0.00,0.98,-0.42,0.06,-0.26,
0.124,-0.01,-0.01,0.98,-0.42,0.06,-0.26,
0.126,-0.01,-0.00,0.98,-0.42,0.06,-0.26,
0.127,-0.01,-0.00,0.98,-0.28,0.05,-0.22,
0.129,-0.00,-0.00,0.98,-0.28,0.05,-0.22,
0.131,0.00,-0.00,0.98,-0.28,0.05,-0.22,
0.131,0.00,-0.00,0.98,-0.22,-0.00,-0.15,
0.134,0.00,0.00,0.99,-0.22,-0.00,-0.15,
0.136,0.01,-0.00,0.99,-0.22,-0.00,-0.15,
0.136,0.01,-0.00,0.99,-0.17,-0.00,-0.15,
0.139,0.01,0.00,0.99,-0.17,-0.00,-0.15,
0.14,0.02,0.01,0.99,-0.17,-0.00,-0.15,
0.14,0.02,0.01,0.99,-0.08,0.01,-0.11,
0.142,0.02,0.01,0.98,-0.08,0.01,-0.11,
0.156,0.02,0.01,0.98,-0.08,0.01,-0.11,
0.157,0.02,0.01,0.98,0.01,0.04,-0.08,
0.157,0.02,0.01,0.98,0.01,0.04,-0.08,
0.157,0.02,0.01,0.98,0.01,0.04,-0.08,
0.158,0.02,0.01,0.98,0.02,0.05,-0.17,
0.158,0.02,0.01,0.97,0.02,0.05,-0.17,
0.161,0.02,0.01,0.97,0.05,0.06,-0.20,
0.161,0.02,0.02,0.96,0.05,0.06,-0.20,
0.162,0.02,0.02,0.96,0.05,0.06,-0.20,
0.162,0.02,0.03,0.95,0.05,0.06,-0.20,
0.162,0.02,0.03,0.95,0.06,0.12,-0.30,
0.162,0.02,0.03,0.95,0.06,0.12,-0.30,
0.165,0.02,0.03,0.95,0.04,0.16,-0.39,
0.165,0.02,0.03,0.95,0.04,0.16,-0.39,
0.171,0.01,0.03,0.94,0.04,0.16,-0.39,
0.171,0.01,0.04,0.93,0.04,0.16,-0.39,
0.171,0.01,0.04,0.93,0.04,0.22,-0.50,
0.173,0.01,0.04,0.94,0.04,0.22,-0.50,
0.175,0.00,0.04,0.94,0.04,0.22,-0.50,
0.175,0.00,0.04,0.94,-0.03,0.26,-0.61,
0.177,0.01,0.04,0.93,-0.03,0.26,-0.61,
0.181,0.01,0.04,0.93,-0.03,0.26,-0.61,
0.181,0.01,0.04,0.93,-0.09,0.26,-0.58,
0.182,0.00,0.04,0.94,-0.09,0.26,-0.58,
0.184,0.00,0.04,0.94,-0.09,0.26,-0.58,
0.184,0.00,0.04,0.94,-0.08,0.28,-0.61,
0.187,0.00,0.04,0.94,-0.08,0.28,-0.61,
0.19,0.00,0.04,0.94,-0.08,0.28,-0.61,
0.19,0.00,0.04,0.94,-0.10,0.29,-0.56,
0.193,0.01,0.04,0.95,-0.10,0.29,-0.56,
0.195,0.01,0.04,0.96,-0.10,0.29,-0.56,
0.195,0.01,0.04,0.96,-0.12,0.26,-0.53,
0.198,0.01,0.04,0.97,-0.12,0.26,-0.53,
0.2,0.02,0.04,0.98,-0.12,0.26,-0.53,
0.2,0.02,0.04,0.98,-0.05,0.27,-0.41,
0.202,0.02,0.03,0.99,-0.05,0.27,-0.41,
0.205,0.02,0.03,0.99,-0.05,0.27,-0.41,
0.206,0.02,0.03,0.99,0.03,0.26,-0.20,
0.208,0.03,0.04,1.00,0.03,0.26,-0.20,
0.21,0.03,0.03,1.01,0.03,0.26,-0.20,
0.211,0.03,0.03,1.01,0.08,0.20,-0.04,
0.213,0.03,0.03,1.01,0.08,0.20,-0.04,
0.215,0.03,0.03,1.01,0.13,0.20,0.09,
0.215,0.03,0.03,1.01,0.13,0.20,0.09,
0.218,0.03,0.02,1.01,0.13,0.20,0.09,
0.22,0.03,0.02,1.01,0.13,0.20,0.09,
0.22,0.03,0.02,1.01,0.14,0.15,0.17,
0.222,0.02,0.02,1.02,0.14,0.15,0.17,
0.225,0.02,0.02,1.02,0.12,0.11,0.19,
0.225,0.02,0.02,1.02,0.12,0.11,0.19,
0.227,0.03,0.02,1.02,0.12,0.11,0.19,
0.23,0.02,0.02,1.03,0.12,0.11,0.19,
0.23,0.02,0.02,1.03,0.09,0.07,0.27,
0.232,0.03,0.02,1.02,0.09,0.07,0.27,
0.234,0.03,0.01,1.02,0.09,0.07,0.27,
0.235,0.03,0.01,1.02,0.10,0.04,0.30,
0.237,0.03,0.02,1.02,0.10,0.04,0.30,
0.24,0.03,0.02,1.02,0.10,0.04,0.30,
0.24,0.03,0.02,1.02,0.15,0.03,0.25,
0.242,0.03,0.02,1.02,0.15,0.03,0.25,
0.245,0.02,0.02,1.02,0.15,0.03,0.25,
0.245,0.02,0.02,1.02,0.15,0.04,0.26,
0.247,0.03,0.02,1.02,0.15,0.04,0.26,
0.253,0.03,0.02,1.02,0.15,0.04,0.26,
0.254,0.03,0.02,1.02,0.13,0.09,0.23,
0.254,0.03,0.02,1.01,0.13,0.09,0.23,
0.255,0.03,0.03,1.01,0.13,0.09,0.23,
0.255,0.03,0.03,1.01,0.15,0.09,0.22,
0.257,0.03,0.03,1.00,0.15,0.09,0.22,
0.259,0.03,0.03,1.00,0.15,0.09,0.22,
0.259,0.03,0.03,1.00,0.16,0.11,0.11,
0.262,0.03,0.03,0.99,0.16,0.11,0.11,
0.264,0.03,0.03,0.99,0.16,0.11,0.11,
0.264,0.03,0.03,0.99,0.16,0.15,0.04,
0.266,0.02,0.03,0.98,0.16,0.15,0.04,
0.269,0.02,0.03,0.98,0.16,0.15,0.04,
0.269,0.02,0.03,0.98,0.15,0.13,-0.05,
0.272,0.03,0.03,0.97,0.15,0.13,-0.05,
0.275,0.02,0.04,0.98,0.15,0.13,-0.05,
0.275,0.02,0.04,0.98,0.11,0.13,-0.13,
0.277,0.03,0.04,0.97,0.11,0.13,-0.13,
0.28,0.03,0.04,0.97,0.11,0.13,-0.13,
0.282,0.03,0.04,0.97,0.15,0.18,-0.20,
0.283,0.03,0.04,0.97,0.15,0.18,-0.20,
0.285,0.03,0.04,0.97,0.15,0.18,-0.20,
0.285,0.03,0.04,0.97,0.18,0.19,-0.26,
0.287,0.04,0.04,0.97,0.18,0.19,-0.26,
0.289,0.04,0.04,0.97,0.24,0.20,-0.22,
0.29,0.04,0.04,0.96,0.24,0.20,-0.22,
0.292,0.05,0.05,0.97,0.24,0.20,-0.22,
0.295,0.05,0.04,0.97,0.24,0.20,-0.22,
0.295,0.05,0.04,0.97,0.32,0.21,-0.26,
0.297,0.05,0.04,0.97,0.32,0.21,-0.26,
0.3,0.05,0.03,0.97,0.32,0.21,-0.26,
0.301,0.05,0.03,0.97,0.38,0.21,-0.22,
0.303,0.05,0.03,0.97,0.38,0.21,-0.22,
0.305,0.05,0.03,0.97,0.38,0.21,-0.22,
0.305,0.05,0.03,0.97,0.36,0.13,-0.23,
0.307,0.05,0.03,0.97,0.36,0.13,-0.23,
0.31,0.04,0.03,0.97,0.36,0.13,-0.23,
0.31,0.04,0.03,0.97,0.40,0.10,-0.22,
0.312,0.04,0.03,0.97,0.40,0.10,-0.22,
0.317,0.04,0.03,0.97,0.40,0.10,-0.22,
0.317,0.04,0.03,0.97,0.32,0.06,-0.24,
0.318,0.03,0.02,0.96,0.32,0.06,-0.24,
0.318,0.02,0.02,0.97,0.32,0.06,-0.24,
0.322,0.02,0.02,0.97,0.24,0.04,-0.24,
0.322,0.02,0.02,0.96,0.24,0.04,-0.24,
0.324,0.02,0.02,0.96,0.24,0.04,-0.24,
0.325,0.02,0.02,0.96,0.14,-0.02,-0.28,
0.327,0.01,0.01,0.96,0.14,-0.02,-0.28,
0.329,0.01,0.01,0.96,0.06,-0.04,-0.30,
0.33,0.01,0.01,0.96,0.06,-0.04,-0.30,
0.331,0.01,0.02,0.96,0.06,-0.04,-0.30,
0.334,0.00,0.02,0.96,0.06,-0.04,-0.30,
0.335,0.00,0.02,0.96,-0.03,-0.10,-0.30,
0.336,-0.00,0.02,0.96,-0.03,-0.10,-0.30,
0.34,-0.00,0.02,0.96,-0.09,-0.09,-0.29,
0.34,-0.00,0.02,0.96,-0.09,-0.09,-0.29,
0.342,-0.00,0.01,0.95,-0.09,-0.09,-0.29,
0.344,-0.00,0.01,0.96,-0.09,-0.09,-0.29,
0.344,-0.00,0.01,0.96,-0.15,-0.07,-0.32,
0.346,-0.00,0.01,0.95,-0.15,-0.07,-0.32,
0.351,-0.00,0.01,0.96,-0.15,-0.07,-0.32,
0.351,-0.00,0.01,0.96,-0.15,-0.10,-0.35,
0.352,-0.00,0.01,0.96,-0.15,-0.10,-0.35,
0.353,-0.01,0.01,0.97,-0.15,-0.10,-0.35,
0.354,-0.01,0.01,0.97,-0.16,-0.12,-0.36,
0.357,0.00,0.01,0.97,-0.16,-0.12,-0.36,
0.359,0.00,0.01,0.97,-0.16,-0.12,-0.36,
0.36,0.00,0.01,0.97,-0.18,-0.12,-0.29,
0.362,0.01,0.01,0.98,-0.18,-0.12,-0.29,
0.364,0.01,0.01,0.98,-0.18,-0.12,-0.29,
0.364,0.01,0.01,0.98,-0.11,-0.11,-0.22,
0.371,0.01,0.01,0.98,-0.11,-0.11,-0.22,
0.372,0.02,0.01,0.99,-0.11,-0.11,-0.22,
0.373,0.02,0.01,0.99,-0.05,-0.09,-0.11,
0.373,0.02,0.01,0.99,-0.05,-0.09,-0.11,
0.373,0.03,0.01,0.99,-0.05,-0.09,-0.11,
0.374,0.03,0.01,0.99,0.03,-0.10,-0.06,
0.375,0.03,0.01,0.98,0.03,-0.10,-0.06,
0.378,0.04,0.01,0.99,0.03,-0.10,-0.06,
0.379,0.04,0.01,0.99,0.11,-0.10,-0.04,
0.38,0.04,0.00,0.97,0.11,-0.10,-0.04,
0.385,0.04,0.01,0.97,0.11,-0.10,-0.04,
0.386,0.04,0.01,0.97,0.24,-0.13,-0.07,
0.386,0.04,0.01,0.97,0.24,-0.13,-0.07,
0.387,0.05,0.01,0.96,0.24,-0.13,-0.07,
0.388,0.05,0.01,0.96,0.26,-0.16,-0.17,
0.39,0.05,0.01,0.95,0.26,-0.16,-0.17,
0.392,0.05,0.01,0.94,0.26,-0.16,-0.17,
0.392,0.05,0.01,0.94,0.32,-0.17,-0.26,
0.395,0.05,0.01,0.93,0.32,-0.17,-0.26,
0.398,0.05,0.01,0.93,0.32,-0.17,-0.26,
0.399,0.05,0.01,0.93,0.36,-0.14,-0.42,
0.4,0.05,0.01,0.92,0.36,-0.14,-0.42,
0.403,0.05,0.01,0.92,0.36,-0.14,-0.42,
0.403,0.05,0.01,0.92,0.39,-0.13,-0.55,
0.405,0.06,0.02,0.91,0.39,-0.13,-0.55,
0.407,0.06,0.02,0.89,0.39,-0.13,-0.55,
0.407,0.06,0.02,0.89,0.40,-0.11,-0.68,
0.41,0.05,0.02,0.89,0.40,-0.11,-0.68,
0.412,0.05,0.02,0.88,0.40,-0.11,-0.68,
0.412,0.05,0.02,0.88,0.48,-0.11,-0.87,
0.415,0.06,0.02,0.87,0.48,-0.11,-0.87,
0.417,0.06,0.02,0.87,0.48,-0.11,-0.87,
0.417,0.06,0.02,0.87,0.44,-0.05,-0.98,
0.42,0.05,0.03,0.86,0.44,-0.05,-0.98,
0.422,0.05,0.03,0.85,0.44,-0.05,-0.98,
0.423,0.05,0.03,0.85,0.46,-0.05,-1.16,
0.425,0.05,0.02,0.85,0.46,-0.05,-1.16,
0.427,0.05,0.03,0.84,0.46,-0.05,-1.16,
0.427,0.05,0.03,0.84,0.41,-0.04,-1.26,
0.429,0.04,0.03,0.84,0.41,-0.04,-1.26,
0.433,0.04,0.03,0.84,0.41,-0.04,-1.26,
0.434,0.04,0.03,0.84,0.38,-0.04,-1.37,
0.435,0.04,0.03,0.84,0.38,-0.04,-1.37,
0.437,0.04,0.03,0.84,0.38,-0.04,-1.37,
0.437,0.04,0.03,0.84,0.34,-0.04,-1.39,
0.439,0.03,0.03,0.85,0.34,-0.04,-1.39,
0.442,0.03,0.03,0.85,0.34,-0.04,-1.39,
0.443,0.03,0.03,0.85,0.30,-0.06,-1.34,
0.444,0.03,0.02,0.85,0.30,-0.06,-1.34,
0.447,0.03,0.02,0.85,0.30,-0.06,-1.34,
0.447,0.03,0.02,0.85,0.24,-0.07,-1.32,
0.45,0.04,0.02,0.85,0.24,-0.07,-1.32,
0.452,0.04,0.02,0.85,0.24,-0.07,-1.32,
0.453,0.04,0.02,0.85,0.23,-0.12,-1.26,
0.454,0.04,0.01,0.86,0.23,-0.12,-1.26,
0.457,0.04,0.00,0.86,0.23,-0.12,-1.26,
0.457,0.04,0.00,0.86,0.27,-0.17,-1.28,
0.461,0.04,0.00,0.86,0.27,-0.17,-1.28,
0.462,0.04,0.00,0.87,0.27,-0.17,-1.28,
0.462,0.04,0.00,0.87,0.26,-0.30,-1.18,
0.47,0.04,-0.00,0.87,0.26,-0.30,-1.18,
0.471,0.04,-0.01,0.87,0.26,-0.30,-1.18,
0.471,0.04,-0.01,0.87,0.26,-0.34,-1.13,
0.473,0.04,-0.01,0.87,0.26,-0.34,-1.13,
0.473,0.04,-0.01,0.87,0.26,-0.34,-1.13,
0.473,0.04,-0.01,0.87,0.26,-0.41,-1.02,
0.474,0.04,-0.02,0.86,0.26,-0.41,-1.02,
0.477,0.04,-0.02,0.87,0.26,-0.41,-1.02,
0.477,0.04,-0.02,0.87,0.26,-0.51,-1.05,
0.479,0.04,-0.02,0.86,0.26,-0.51,-1.05,
0.482,0.04,-0.03,0.86,0.26,-0.51,-1.05,
0.483,0.04,-0.03,0.86,0.29,-0.57,-1.07,
0.485,0.04,-0.03,0.86,0.29,-0.57,-1.07,
0.487,0.05,-0.03,0.86,0.29,-0.57,-1.07,
0.487,0.05,-0.03,0.86,0.28,-0.63,-1.11,
0.489,0.05,-0.03,0.85,0.28,-0.63,-1.11,
0.492,0.05,-0.03,0.85,0.28,-0.66,-1.10,
0.492,0.05,-0.03,0.85,0.28,-0.66,-1.10,
0.494,0.05,-0.03,0.85,0.28,-0.66,-1.10,
0.496,0.06,-0.03,0.85,0.28,-0.66,-1.10,
0.496,0.06,-0.03,0.85,0.33,-0.71,-1.21,
0.5,0.06,-0.03,0.85,0.33,-0.71,-1.21,
0.502,0.07,-0.03,0.85,0.33,-0.71,-1.21,
0.502,0.07,-0.03,0.85,0.39,-0.73,-1.20,
0.504,0.07,-0.02,0.84,0.39,-0.73,-1.20,
0.507,0.07,-0.02,0.84,0.39,-0.73,-1.20,
0.507,0.07,-0.02,0.84,0.48,-0.68,-1.18,
0.51,0.07,-0.02,0.84,0.48,-0.68,-1.18,
0.512,0.08,-0.01,0.84,0.48,-0.68,-1.18,
0.512,0.08,-0.01,0.84,0.53,-0.62,-1.23,
0.514,0.08,-0.01,0.84,0.53,-0.62,-1.23,
0.516,0.08,-0.00,0.85,0.53,-0.62,-1.23,
0.517,0.08,-0.00,0.85,0.54,-0.57,-1.21,
0.52,0.08,0.00,0.84,0.54,-0.57,-1.21,
0.521,0.08,0.00,0.85,0.54,-0.57,-1.21,
0.522,0.08,0.00,0.85,0.58,-0.49,-1.17,
0.525,0.08,0.01,0.85,0.58,-0.49,-1.17,
0.527,0.09,0.02,0.86,0.58,-0.49,-1.17,
0.527,0.09,0.02,0.86,0.58,-0.43,-1.17,
0.53,0.09,0.02,0.87,0.58,-0.43,-1.17,
0.532,0.09,0.02,0.87,0.58,-0.43,-1.17,
0.532,0.09,0.02,0.87,0.62,-0.34,-1.05,
0.535,0.10,0.02,0.88,0.62,-0.34,-1.05,
0.537,0.10,0.03,0.89,0.62,-0.34,-1.05,
0.537,0.10,0.03,0.89,0.66,-0.28,-0.91,
0.539,0.10,0.03,0.89,0.66,-0.28,-0.91,
0.542,0.11,0.03,0.89,0.66,-0.28,-0.91,
0.542,0.11,0.03,0.89,0.74,-0.23,-0.75,
0.544,0.11,0.03,0.89,0.74,-0.23,-0.75,
0.547,0.12,0.02,0.90,0.74,-0.23,-0.75,
0.547,0.12,0.02,0.90,0.77,-0.21,-0.69,
0.551,0.12,0.03,0.91,0.77,-0.21,-0.69,
0.551,0.12,0.02,0.91,0.77,-0.21,-0.69,
0.552,0.12,0.02,0.91,0.86,-0.25,-0.60,
0.555,0.13,0.02,0.91,0.86,-0.25,-0.60,
0.557,0.13,0.02,0.92,0.86,-0.25,-0.60,
0.557,0.13,0.02,0.92,0.89,-0.25,-0.48,
0.559,0.13,0.02,0.92,0.89,-0.25,-0.48,
0.562,0.13,0.01,0.93,0.89,-0.25,-0.48,
0.562,0.13,0.01,0.93,0.94,-0.30,-0.43,
0.564,0.13,0.02,0.93,0.94,-0.30,-0.43,
0.57,0.13,0.02,0.94,0.94,-0.30,-0.43,
0.571,0.13,0.02,0.94,0.94,-0.37,-0.33,
0.571,0.13,0.02,0.93,0.94,-0.37,-0.33,
0.571,0.13,0.02,0.93,0.94,-0.37,-0.33,
0.572,0.13,0.02,0.93,0.90,-0.37,-0.25,
0.573,0.12,0.02,0.93,0.90,-0.37,-0.25,
0.576,0.12,0.02,0.92,0.90,-0.37,-0.25,
0.576,0.12,0.02,0.92,0.85,-0.35,-0.26,
0.579,0.12,0.03,0.92,0.85,-0.35,-0.26,
0.581,0.12,0.03,0.92,0.85,-0.35,-0.26,
0.582,0.12,0.03,0.92,0.79,-0.35,-0.30,
0.584,0.12,0.04,0.92,0.79,-0.35,-0.30,
0.586,0.11,0.04,0.91,0.79,-0.35,-0.30,
0.587,0.11,0.04,0.91,0.72,-0.31,-0.36,
0.589,0.11,0.05,0.90,0.72,-0.31,-0.36,
0.591,0.11,0.05,0.90,0.72,-0.31,-0.36,
0.591,0.11,0.05,0.90,0.65,-0.24,-0.42,
0.594,0.10,0.06,0.90,0.65,-0.24,-0.42,
0.597,0.10,0.05,0.89,0.65,-0.24,-0.42,
0.597,0.10,0.05,0.89,0.60,-0.14,-0.54,
0.599,0.10,0.06,0.89,0.60,-0.14,-0.54,
0.602,0.10,0.07,0.89,0.60,-0.14,-0.54,
0.603,0.10,0.07,0.89,0.54,-0.09,-0.58,
0.604,0.10,0.07,0.89,0.54,-0.09,-0.58,
0.606,0.10,0.07,0.88,0.54,-0.09,-0.58,
0.606,0.10,0.07,0.88,0.52,-0.01,-0.64,
0.608,0.10,0.08,0.88,0.52,-0.01,-0.64,
0.61,0.10,0.09,0.88,0.52,-0.01,-0.64,
0.611,0.10,0.09,0.88,0.49,0.01,-0.68,
0.613,0.10,0.09,0.89,0.49,0.01,-0.68,
0.617,0.10,0.09,0.89,0.49,0.01,-0.68,
0.618,0.10,0.09,0.89,0.48,0.13,-0.69,
0.618,0.10,0.09,0.89,0.48,0.13,-0.69,
0.62,0.09,0.09,0.89,0.48,0.13,-0.69,
0.62,0.09,0.09,0.89,0.43,0.15,-0.65,
0.623,0.10,0.10,0.89,0.43,0.15,-0.65,
0.625,0.10,0.10,0.90,0.43,0.15,-0.65,
0.625,0.10,0.10,0.90,0.42,0.18,-0.59,
0.627,0.10,0.11,0.91,0.42,0.18,-0.59,
0.63,0.10,0.11,0.91,0.40,0.28,-0.55,
0.63,0.10,0.12,0.91,0.40,0.28,-0.55,
0.633,0.09,0.12,0.92,0.40,0.28,-0.55,
0.636,0.09,0.12,0.93,0.40,0.28,-0.55,
0.636,0.09,0.12,0.93,0.39,0.37,-0.40,
0.637,0.08,0.13,0.93,0.39,0.37,-0.40,
0.64,0.08,0.13,0.95,0.39,0.37,-0.40,
0.64,0.08,0.13,0.95,0.30,0.45,-0.24,
0.643,0.08,0.13,0.96,0.30,0.45,-0.24,
0.645,0.08,0.13,0.96,0.21,0.54,-0.10,
0.645,0.08,0.14,0.96,0.21,0.54,-0.10,
0.647,0.08,0.14,0.96,0.21,0.54,-0.10,
0.651,0.09,0.14,0.97,0.21,0.54,-0.10,
0.652,0.09,0.14,0.97,0.16,0.59,0.07,
0.654,0.09,0.15,0.98,0.16,0.59,0.07,
0.655,0.09,0.14,0.98,0.16,0.59,0.07,
0.656,0.09,0.14,0.98,0.19,0.64,0.17,
0.657,0.09,0.14,0.98,0.19,0.64,0.17,
0.66,0.09,0.15,0.98,0.19,0.64,0.17,
0.66,0.09,0.15,0.98,0.20,0.67,0.28,
0.662,0.09,0.14,0.98,0.20,0.67,0.28,
0.665,0.10,0.14,0.97,0.20,0.67,0.28,
0.665,0.10,0.14,0.97,0.23,0.68,0.32,
0.674,0.10,0.14,0.97,0.23,0.68,0.32,
0.675,0.10,0.13,0.97,0.23,0.68,0.32,
0.675,0.10,0.13,0.97,0.26,0.66,0.27,
0.675,0.10,0.13,0.96,0.26,0.66,0.27,
0.676,0.10,0.13,0.96,0.26,0.66,0.27,
0.676,0.10,0.13,0.96,0.28,0.60,0.17,
0.677,0.10,0.12,0.95,0.28,0.60,0.17,
0.679,0.10,0.12,0.95,0.28,0.60,0.17,
0.68,0.10,0.12,0.95,0.29,0.52,0.09,
0.689,0.10,0.12,0.94,0.29,0.52,0.09,
0.69,0.09,0.12,0.94,0.29,0.52,0.09,
0.69,0.09,0.12,0.94,0.27,0.47,0.00,
0.691,0.09,0.12,0.92,0.27,0.47,0.00,
0.691,0.08,0.12,0.92,0.27,0.47,0.00,
0.691,0.08,0.12,0.92,0.25,0.48,-0.12,
0.692,0.08,0.12,0.92,0.25,0.48,-0.12,
0.694,0.08,0.12,0.91,0.25,0.48,-0.12,
0.694,0.08,0.12,0.91,0.17,0.47,-0.25,
0.697,0.07,0.12,0.91,0.17,0.47,-0.25,
0.7,0.07,0.12,0.91,0.17,0.47,-0.25,
0.701,0.07,0.12,0.91,0.09,0.47,-0.31,
0.702,0.06,0.12,0.92,0.09,0.47,-0.31,
0.704,0.05,0.12,0.92,0.09,0.47,-0.31,
0.704,0.05,0.12,0.92,-0.01,0.47,-0.36,
0.706,0.05,0.12,0.92,-0.01,0.47,-0.36,
0.709,0.04,0.12,0.91,-0.01,0.47,-0.36,
0.71,0.04,0.12,0.91,-0.11,0.46,-0.32,
0.712,0.04,0.12,0.91,-0.11,0.46,-0.32,
0.714,0.03,0.11,0.91,-0.11,0.46,-0.32,
0.714,0.03,0.11,0.91,-0.23,0.49,-0.37,
0.716,0.02,0.11,0.91,-0.23,0.49,-0.37,
0.719,0.02,0.11,0.92,-0.23,0.49,-0.37,
0.72,0.02,0.11,0.92,-0.34,0.45,-0.40,
0.722,0.02,0.11,0.92,-0.34,0.45,-0.40,
0.724,0.02,0.11,0.94,-0.34,0.45,-0.40,
0.725,0.02,0.11,0.94,-0.44,0.45,-0.32,
0.726,0.02,0.11,0.95,-0.44,0.45,-0.32,
0.729,0.02,0.11,0.94,-0.44,0.45,-0.32,
0.73,0.02,0.11,0.94,-0.47,0.43,-0.20,
0.732,0.02,0.11,0.95,-0.47,0.43,-0.20,
0.735,0.02,0.11,0.95,-0.45,0.46,-0.04,
0.735,0.02,0.11,0.95,-0.45,0.46,-0.04,
0.737,0.02,0.11,0.96,-0.45,0.46,-0.04,
0.739,0.02,0.11,0.96,-0.45,0.46,-0.04,
0.74,0.02,0.11,0.96,-0.50,0.42,0.01,
0.742,0.03,0.11,0.96,-0.50,0.42,0.01,
0.744,0.04,0.11,0.96,-0.50,0.42,0.01,
0.745,0.04,0.11,0.96,-0.47,0.42,0.08,
0.747,0.04,0.11,0.97,-0.47,0.42,0.08,
0.751,0.05,0.11,0.97,-0.47,0.42,0.08,
0.752,0.05,0.11,0.97,-0.35,0.43,0.14,
0.753,0.06,0.11,0.97,-0.35,0.43,0.14,
0.754,0.07,0.11,0.97,-0.35,0.43,0.14,
0.755,0.07,0.11,0.97,-0.23,0.44,0.21,
0.756,0.08,0.10,0.97,-0.23,0.44,0.21,
0.759,0.08,0.10,0.97,-0.23,0.44,0.21,
0.76,0.08,0.10,0.97,-0.07,0.43,0.23,
0.762,0.10,0.10,0.96,-0.07,0.43,0.23,
0.764,0.10,0.10,0.96,0.10,0.39,0.17,
0.765,0.11,0.10,0.95,0.10,0.39,0.17,
0.768,0.11,0.09,0.95,0.10,0.39,0.17,
0.769,0.12,0.10,0.96,0.10,0.39,0.17,
0.77,0.12,0.10,0.96,0.30,0.36,0.06,
0.771,0.14,0.10,0.95,0.30,0.36,0.06,
0.774,0.14,0.10,0.95,0.30,0.36,0.06,
0.774,0.14,0.10,0.95,0.46,0.30,0.04,
0.776,0.15,0.10,0.96,0.46,0.30,0.04,
0.779,0.15,0.10,0.97,0.46,0.30,0.04,
0.78,0.15,0.10,0.97,0.66,0.32,0.04,
0.781,0.16,0.10,0.98,0.66,0.32,0.04,
0.792,0.15,0.10,0.98,0.66,0.32,0.04,
0.792,0.15,0.10,0.98,0.78,0.32,0.14,
0.793,0.15,0.11,0.99,0.78,0.32,0.14,
0.794,0.15,0.11,0.99,0.78,0.32,0.14,
0.795,0.15,0.11,0.99,0.81,0.34,0.28,
0.796,0.15,0.11,1.01,0.81,0.34,0.28,
0.796,0.14,0.12,1.01,0.81,0.34,0.28,
0.796,0.14,0.12,1.01,0.77,0.41,0.40,
0.797,0.13,0.12,1.02,0.77,0.41,0.40,
0.798,0.12,0.11,1.03,0.77,0.41,0.40,
0.799,0.12,0.11,1.03,0.68,0.46,0.56,
0.807,0.11,0.12,1.03,0.68,0.46,0.56,
0.808,0.10,0.12,1.04,0.68,0.46,0.56,
0.808,0.10,0.12,1.04,0.49,0.48,0.71,
0.809,0.09,0.12,1.04,0.49,0.48,0.71,
0.809,0.09,0.12,1.04,0.27,0.52,0.79,
0.809,0.08,0.12,1.05,0.27,0.52,0.79,
0.811,0.07,0.11,1.06,0.27,0.52,0.79,
0.813,0.06,0.11,1.07,0.27,0.52,0.79,
0.818,0.06,0.11,1.07,0.02,0.53,0.94,
0.818,0.05,0.10,1.08,0.02,0.53,0.94,
0.819,0.05,0.09,1.09,0.02,0.53,0.94,
0.819,0.05,0.09,1.09,-0.17,0.48,1.11,
0.822,0.04,0.09,1.10,-0.17,0.48,1.11,
0.824,0.04,0.07,1.10,-0.17,0.48,1.11,
0.824,0.04,0.07,1.10,-0.34,0.36,1.30,
0.826,0.04,0.06,1.10,-0.34,0.36,1.30,
0.828,0.04,0.05,1.11,-0.34,0.36,1.30,
0.829,0.04,0.05,1.11,-0.44,0.21,1.41,
0.831,0.04,0.04,1.11,-0.44,0.21,1.41,
0.836,0.04,0.02,1.11,-0.44,0.21,1.41,
0.836,0.04,0.02,1.11,-0.49,-0.04,1.47,
0.836,0.04,0.01,1.12,-0.49,-0.04,1.47,
0.839,0.04,0.00,1.12,-0.49,-0.04,1.47,
0.839,0.04,0.00,1.12,-0.49,-0.27,1.52,
0.841,0.04,-0.01,1.12,-0.49,-0.27,1.52,
0.843,0.05,-0.02,1.12,-0.49,-0.27,1.52,
0.843,0.05,-0.02,1.12,-0.49,-0.46,1.60,
0.846,0.05,-0.03,1.12,-0.49,-0.46,1.60,
0.849,0.05,-0.04,1.12,-0.49,-0.46,1.60,
0.849,0.05,-0.04,1.12,-0.48,-0.62,1.60,
0.851,0.06,-0.05,1.12,-0.48,-0.62,1.60,
0.855,0.06,-0.05,1.12,-0.48,-0.62,1.60,
0.855,0.06,-0.05,1.12,-0.43,-0.77,1.64,
0.856,0.07,-0.05,1.12,-0.43,-0.77,1.64,
0.859,0.07,-0.05,1.12,-0.33,-0.93,1.57,
0.859,0.08,-0.05,1.13,-0.33,-0.93,1.57,
0.862,0.08,-0.05,1.13,-0.33,-0.93,1.57,
0.864,0.08,-0.06,1.13,-0.33,-0.93,1.57,
0.864,0.08,-0.06,1.13,-0.18,-0.93,1.63,
0.866,0.09,-0.05,1.13,-0.18,-0.93,1.63,
0.868,0.09,-0.05,1.12,-0.18,-0.93,1.63,
0.869,0.09,-0.05,1.12,-0.14,-0.91,1.66,
0.871,0.09,-0.04,1.12,-0.14,-0.91,1.66,
0.873,0.09,-0.04,1.12,-0.14,-0.91,1.66,
0.873,0.09,-0.04,1.12,-0.04,-0.84,1.64,
0.876,0.09,-0.03,1.12,-0.04,-0.84,1.64,
0.879,0.08,-0.02,1.12,-0.04,-0.84,1.64,
0.879,0.08,-0.02,1.12,0.01,-0.69,1.60,
0.881,0.08,-0.02,1.12,0.01,-0.69,1.60,
0.89,0.08,-0.02,1.12,-0.00,-0.54,1.53,
0.891,0.08,-0.01,1.12,-0.00,-0.54,1.53,
0.891,0.07,-0.01,1.11,-0.00,-0.54,1.53,
0.891,0.07,-0.01,1.11,-0.00,-0.54,1.53,
0.891,0.07,-0.01,1.11,-0.04,-0.40,1.51,
0.892,0.06,-0.00,1.10,-0.04,-0.40,1.51,
0.893,0.05,0.00,1.10,-0.04,-0.40,1.51,
0.893,0.05,0.00,1.10,-0.13,-0.32,1.41,
0.895,0.04,-0.00,1.11,-0.13,-0.32,1.41,
0.898,0.04,0.00,1.10,-0.13,-0.32,1.41,
0.898,0.04,0.00,1.10,-0.22,-0.20,1.36,
0.901,0.03,0.01,1.10,-0.22,-0.20,1.36,
0.903,0.02,0.00,1.09,-0.22,-0.20,1.36,
0.904,0.02,0.00,1.09,-0.38,-0.15,1.36,
0.905,0.01,-0.00,1.09,-0.38,-0.15,1.36,
0.908,0.01,-0.00,1.09,-0.49,-0.10,1.26,
0.909,0.02,-0.01,1.09,-0.49,-0.10,1.26,
0.911,0.01,-0.01,1.08,-0.49,-0.10,1.26,
0.913,0.01,-0.01,1.07,-0.49,-0.10,1.26,
0.913,0.01,-0.01,1.07,-0.60,-0.15,1.20,
0.916,0.02,-0.02,1.07,-0.60,-0.15,1.20,
0.918,0.02,-0.02,1.06,-0.60,-0.15,1.20,
0.919,0.02,-0.02,1.06,-0.60,-0.16,1.04,
0.921,0.03,-0.03,1.06,-0.60,-0.16,1.04,
0.923,0.04,-0.04,1.05,-0.60,-0.16,1.04,
0.924,0.04,-0.04,1.05,-0.54,-0.28,0.95,
0.926,0.05,-0.04,1.05,-0.54,-0.28,0.95,
0.929,0.06,-0.04,1.05,-0.54,-0.28,0.95,
0.929,0.06,-0.04,1.05,-0.37,-0.38,0.86,
0.931,0.07,-0.05,1.04,-0.37,-0.38,0.86,
0.933,0.07,-0.05,1.04,-0.16,-0.47,0.81,
0.933,0.09,-0.05,1.04,-0.16,-0.47,0.81,
0.936,0.10,-0.06,1.04,-0.16,-0.47,0.81,
0.938,0.10,-0.07,1.04,-0.16,-0.47,0.81,
0.939,0.10,-0.07,1.04,0.06,-0.55,0.72,
0.94,0.11,-0.07,1.03,0.06,-0.55,0.72,
0.944,0.12,-0.07,1.02,0.06,-0.55,0.72,
0.944,0.12,-0.07,1.02,0.25,-0.65,0.66,
0.946,0.12,-0.07,1.02,0.25,-0.65,0.66,
0.948,0.12,-0.07,1.01,0.25,-0.65,0.66,
0.948,0.12,-0.07,1.01,0.36,-0.69,0.57,
0.95,0.12,-0.07,1.00,0.36,-0.69,0.57,
0.953,0.12,-0.07,0.99,0.36,-0.69,0.57,
0.954,0.12,-0.07,0.99,0.42,-0.73,0.41,
0.955,0.11,-0.07,0.99,0.42,-0.73,0.41,
0.958,0.11,-0.07,0.99,0.44,-0.72,0.25,
0.958,0.11,-0.07,0.98,0.44,-0.72,0.25,
0.961,0.11,-0.07,0.98,0.44,-0.72,0.25,
0.963,0.10,-0.07,0.97,0.44,-0.72,0.25,
0.963,0.10,-0.07,0.97,0.35,-0.69,0.14,
0.965,0.10,-0.06,0.96,0.35,-0.69,0.14,
0.97,0.09,-0.06,0.96,0.35,-0.69,0.14,
0.97,0.09,-0.06,0.96,0.28,-0.66,0.05,
0.971,0.08,-0.06,0.96,0.28,-0.66,0.05,
0.972,0.07,-0.06,0.95,0.28,-0.66,0.05,
0.972,0.07,-0.06,0.95,0.17,-0.60,-0.07,
0.975,0.06,-0.05,0.96,0.17,-0.60,-0.07,
0.977,0.05,-0.05,0.96,0.17,-0.60,-0.07,
0.977,0.05,-0.05,0.96,-0.01,-0.56,-0.11,
0.98,0.04,-0.04,0.96,-0.01,-0.56,-0.11,
0.981,0.04,-0.04,0.97,-0.01,-0.56,-0.11,
0.982,0.04,-0.04,0.97,-0.19,-0.45,-0.07,
0.985,0.03,-0.03,0.97,-0.19,-0.45,-0.07,
0.986,0.03,-0.03,0.97,-0.19,-0.45,-0.07,
0.987,0.03,-0.03,0.97,-0.32,-0.38,-0.04,
0.989,0.02,-0.02,0.98,-0.32,-0.38,-0.04,
0.992,0.02,-0.02,0.98,-0.32,-0.38,-0.04,
0.992,0.02,-0.02,0.98,-0.44,-0.25,-0.01,
0.994,0.01,-0.02,0.98,-0.44,-0.25,-0.01,
0.996,0.02,-0.01,0.99,-0.44,-0.25,-0.01,
0.997,0.02,-0.01,0.99,-0.54,-0.16,0.10,
0.999,0.01,-0.01,0.99,-0.54,-0.16,0.10,
1.007,0.02,-0.02,0.99,-0.54,-0.16,0.10,
1.008,0.02,-0.02,0.99,-0.58,-0.06,0.15,
1.009,0.02,-0.01,0.99,-0.58,-0.06,0.15,
1.009,0.02,-0.01,0.99,-0.54,-0.03,0.20,
1.009,0.03,-0.01,1.00,-0.54,-0.03,0.20,
1.009,0.04,-0.01,0.99,-0.54,-0.03,0.20,
1.011,0.04,-0.01,0.99,-0.54,-0.03,0.20,
1.011,0.04,-0.01,0.99,-0.44,0.04,0.24,
1.014,0.05,-0.02,1.00,-0.44,0.04,0.24,
1.016,0.05,-0.02,1.00,-0.44,0.04,0.24,
1.017,0.05,-0.02,1.00,-0.29,0.03,0.24,
1.022,0.06,-0.03,1.00,-0.29,0.03,0.24,
1.023,0.05,-0.03,1.00,-0.29,0.03,0.24,
1.023,0.05,-0.03,1.00,-0.20,-0.02,0.29,
1.023,0.06,-0.04,1.00,-0.20,-0.02,0.29,
1.026,0.05,-0.04,1.00,-0.20,-0.02,0.29,
1.026,0.05,-0.04,1.00,-0.15,-0.09,0.26,
1.029,0.06,-0.04,1.00,-0.15,-0.09,0.26,
1.031,0.06,-0.04,1.02,-0.15,-0.09,0.26,
1.031,0.06,-0.04,1.02,-0.14,-0.13,0.30,
1.034,0.05,-0.04,1.02,-0.14,-0.13,0.30,
1.037,0.05,-0.04,1.03,-0.14,-0.13,0.30,
1.037,0.05,-0.04,1.03,-0.13,-0.11,0.39,
1.038,0.05,-0.04,1.03,-0.13,-0.11,0.39,
1.041,0.04,-0.04,1.04,-0.13,-0.11,0.39,
1.042,0.04,-0.04,1.04,-0.17,-0.11,0.54,
1.043,0.04,-0.04,1.04,-0.17,-0.11,0.54,
1.046,0.04,-0.04,1.04,-0.24,-0.05,0.67,
1.047,0.04,-0.03,1.04,-0.24,-0.05,0.67,
1.048,0.03,-0.04,1.04,-0.24,-0.05,0.67,
1.051,0.03,-0.04,1.04,-0.24,-0.05,0.67,
1.052,0.03,-0.04,1.04,-0.31,0.01,0.70,
1.053,0.03,-0.04,1.05,-0.31,0.01,0.70,
1.056,0.03,-0.04,1.05,-0.37,0.02,0.70,
1.056,0.03,-0.04,1.06,-0.37,0.02,0.70,
1.058,0.03,-0.03,1.06,-0.37,0.02,0.70,
1.061,0.03,-0.03,1.07,-0.37,0.02,0.70,
1.061,0.03,-0.03,1.07,-0.38,0.06,0.84,
1.063,0.03,-0.03,1.07,-0.38,0.06,0.84,
1.066,0.03,-0.03,1.08,-0.38,0.06,0.84,
1.066,0.03,-0.03,1.08,-0.37,0.13,0.90,
1.068,0.03,-0.02,1.09,-0.37,0.13,0.90,
1.071,0.03,-0.03,1.10,-0.37,0.13,0.90,
1.071,0.03,-0.03,1.10,-0.33,0.16,1.05,
1.073,0.03,-0.03,1.11,-0.33,0.16,1.05,
1.075,0.02,-0.04,1.13,-0.33,0.16,1.05,
1.076,0.02,-0.04,1.13,-0.37,0.24,1.21,
1.078,0.02,-0.04,1.13,-0.37,0.24,1.21,
1.081,0.02,-0.04,1.13,-0.43,0.18,1.45,
1.081,0.02,-0.05,1.13,-0.43,0.18,1.45,
1.083,0.01,-0.06,1.14,-0.43,0.18,1.45,
1.087,0.01,-0.07,1.14,-0.43,0.18,1.45,
1.087,0.01,-0.07,1.14,-0.47,0.08,1.56,
1.088,0.00,-0.07,1.14,-0.47,0.08,1.56,
1.091,-0.00,-0.08,1.14,-0.47,0.08,1.56,
1.091,-0.00,-0.08,1.14,-0.56,-0.05,1.63,
1.093,-0.00,-0.09,1.14,-0.56,-0.05,1.63,
1.095,-0.00,-0.10,1.14,-0.56,-0.05,1.63,
1.096,-0.00,-0.10,1.14,-0.64,-0.18,1.65,
1.098,-0.01,-0.10,1.14,-0.64,-0.18,1.65,
1.111,-0.01,-0.11,1.14,-0.64,-0.18,1.65,
1.112,-0.01,-0.11,1.14,-0.66,-0.30,1.66,
1.113,-0.00,-0.10,1.13,-0.66,-0.30,1.66,
1.114,-0.01,-0.11,1.12,-0.66,-0.30,1.66,
1.114,-0.01,-0.11,1.12,-0.68,-0.39,1.60,
1.115,-0.00,-0.11,1.12,-0.68,-0.39,1.60,
1.116,0.00,-0.11,1.12,-0.68,-0.39,1.60,
1.116,0.00,-0.11,1.12,-0.67,-0.39,1.49,
1.117,0.00,-0.11,1.12,-0.67,-0.39,1.49,
1.118,0.00,-0.10,1.12,-0.67,-0.39,1.49,
1.118,0.00,-0.10,1.12,-0.60,-0.40,1.46,
1.119,0.01,-0.10,1.11,-0.60,-0.40,1.46,
1.127,0.01,-0.09,1.11,-0.60,-0.40,1.46,
1.128,0.01,-0.09,1.11,-0.57,-0.35,1.42,
1.129,0.01,-0.08,1.12,-0.57,-0.35,1.42,
1.129,0.01,-0.08,1.11,-0.57,-0.35,1.42,
1.129,0.01,-0.08,1.11,-0.47,-0.23,1.36,
1.13,0.01,-0.07,1.11,-0.47,-0.23,1.36,
1.13,0.01,-0.06,1.10,-0.47,-0.23,1.36,
1.13,0.01,-0.06,1.10,-0.42,-0.08,1.38,
1.133,0.01,-0.05,1.10,-0.42,-0.08,1.38,
1.136,0.01,-0.04,1.09,-0.42,-0.08,1.38,
1.136,0.01,-0.04,1.09,-0.42,0.09,1.27,
1.137,0.00,-0.03,1.09,-0.42,0.09,1.27,
1.14,0.00,-0.03,1.09,-0.42,0.09,1.27,
1.141,0.00,-0.03,1.09,-0.48,0.24,1.17,
1.143,0.01,-0.02,1.09,-0.48,0.24,1.17,
1.146,0.01,-0.01,1.09,-0.48,0.24,1.17,
1.147,0.01,-0.01,1.09,-0.52,0.44,1.10,
1.147,0.00,-0.01,1.09,-0.52,0.44,1.10,
1.15,0.01,-0.01,1.08,-0.52,0.44,1.10,
1.15,0.01,-0.01,1.08,-0.49,0.55,1.08,
1.153,0.01,-0.00,1.08,-0.49,0.55,1.08,
1.155,0.01,-0.00,1.08,-0.50,0.66,1.05,
1.157,0.01,-0.00,1.09,-0.50,0.66,1.05,
1.158,0.01,-0.00,1.09,-0.50,0.66,1.05,
1.16,0.02,0.00,1.09,-0.50,0.66,1.05,
1.16,0.02,0.00,1.09,-0.44,0.71,1.06,
1.163,0.02,0.00,1.09,-0.44,0.71,1.06,
1.165,0.03,0.00,1.10,-0.44,0.71,1.06,
1.165,0.03,0.00,1.10,-0.40,0.75,1.10,
1.168,0.03,0.00,1.10,-0.40,0.75,1.10,
1.17,0.03,-0.01,1.11,-0.40,0.75,1.10,
1.17,0.03,-0.01,1.11,-0.27,0.79,1.13,
1.172,0.03,-0.01,1.11,-0.27,0.79,1.13,
1.175,0.03,-0.01,1.12,-0.27,0.79,1.13,
1.175,0.03,-0.01,1.12,-0.23,0.76,1.23,
1.178,0.03,-0.02,1.12,-0.23,0.76,1.23,
1.18,0.03,-0.02,1.13,-0.23,0.76,1.23,
1.181,0.03,-0.02,1.13,-0.20,0.68,1.34,
1.183,0.03,-0.03,1.13,-0.20,0.68,1.34,
1.185,0.02,-0.03,1.13,-0.20,0.68,1.34,
1.185,0.02,-0.03,1.13,-0.24,0.63,1.41,
1.189,0.02,-0.04,1.14,-0.24,0.63,1.41,
1.189,0.02,-0.04,1.13,-0.24,0.63,1.41,
1.19,0.02,-0.04,1.13,-0.27,0.53,1.50,
1.193,0.01,-0.05,1.14,-0.27,0.53,1.50,
1.196,0.01,-0.06,1.14,-0.27,0.53,1.50,
1.196,0.01,-0.06,1.14,-0.33,0.43,1.53,
1.197,0.01,-0.06,1.14,-0.33,0.43,1.53,
1.2,0.01,-0.07,1.14,-0.33,0.43,1.53,
1.201,0.01,-0.07,1.14,-0.36,0.29,1.51,
1.203,0.00,-0.08,1.13,-0.36,0.29,1.51,
1.205,0.00,-0.08,1.13,-0.41,0.20,1.54,
1.206,0.01,-0.08,1.13,-0.41,0.20,1.54,
1.207,0.00,-0.08,1.13,-0.41,0.20,1.54,
1.21,0.00,-0.09,1.12,-0.41,0.20,1.54,
1.21,0.00,-0.09,1.12,-0.43,0.09,1.48,
1.213,0.00,-0.09,1.12,-0.43,0.09,1.48,
1.215,-0.00,-0.09,1.11,-0.43,0.09,1.48,
1.215,-0.00,-0.09,1.11,-0.45,0.04,1.42,
1.218,0.00,-0.09,1.11,-0.45,0.04,1.42,
1.225,0.01,-0.09,1.11,-0.45,0.04,1.42,
1.226,0.01,-0.09,1.11,-0.46,-0.00,1.32,
1.226,0.01,-0.10,1.11,-0.46,-0.00,1.32,
1.227,0.00,-0.10,1.11,-0.46,-0.00,1.32,
1.227,0.00,-0.10,1.11,-0.43,-0.01,1.26,
1.227,0.01,-0.09,1.11,-0.43,-0.01,1.26,
1.23,0.01,-0.08,1.11,-0.43,-0.01,1.26,
1.23,0.01,-0.08,1.11,-0.43,-0.06,1.20,
1.232,0.01,-0.09,1.12,-0.43,-0.06,1.20,
1.235,0.02,-0.09,1.13,-0.43,-0.06,1.20,
1.235,0.02,-0.09,1.13,-0.38,0.05,1.23,
1.237,0.02,-0.09,1.14,-0.38,0.05,1.23,
1.239,0.03,-0.09,1.15,-0.38,0.05,1.23,
1.24,0.03,-0.09,1.15,-0.33,0.06,1.38,
1.242,0.03,-0.09,1.17,-0.33,0.06,1.38,
1.245,0.02,-0.10,1.19,-0.33,0.06,1.38,
1.245,0.02,-0.10,1.19,-0.26,0.07,1.59,
1.247,0.02,-0.10,1.21,-0.26,0.07,1.59,
1.25,0.03,-0.11,1.23,-0.26,0.07,1.59,
1.25,0.03,-0.11,1.23,-0.25,0.01,1.93,
1.252,0.02,-0.12,1.25,-0.25,0.01,1.93,
1.257,0.02,-0.12,1.25,-0.26,-0.10,2.32,
1.257,0.02,-0.13,1.27,-0.26,-0.10,2.32,
1.257,0.01,-0.13,1.29,-0.26,-0.10,2.32,
1.26,0.00,-0.15,1.30,-0.26,-0.10,2.32,
1.26,0.00,-0.15,1.30,-0.31,-0.26,2.73,
1.262,-0.01,-0.15,1.32,-0.31,-0.26,2.73,
1.265,-0.01,-0.15,1.32,-0.47,-0.40,3.02,
1.265,-0.01,-0.16,1.33,-0.47,-0.40,3.02,
1.267,-0.02,-0.17,1.34,-0.47,-0.40,3.02,
1.271,-0.03,-0.18,1.34,-0.47,-0.40,3.02,
1.272,-0.03,-0.18,1.34,-0.61,-0.53,3.32,
1.273,-0.04,-0.19,1.34,-0.61,-0.53,3.32,
1.275,-0.05,-0.19,1.34,-0.61,-0.53,3.32,
1.275,-0.05,-0.19,1.34,-0.76,-0.65,3.46,
1.277,-0.05,-0.19,1.33,-0.76,-0.65,3.46,
1.279,-0.07,-0.20,1.32,-0.76,-0.65,3.46,
1.279,-0.07,-0.20,1.32,-0.92,-0.80,3.43,
1.281,-0.07,-0.20,1.31,-0.92,-0.80,3.43,
1.283,-0.08,-0.19,1.30,-0.92,-0.80,3.43,
1.284,-0.08,-0.19,1.30,-1.05,-0.83,3.30,
1.286,-0.08,-0.19,1.28,-1.05,-0.83,3.30,
1.288,-0.09,-0.19,1.27,-1.05,-0.83,3.30,
1.289,-0.09,-0.19,1.27,-1.22,-0.82,3.07,
1.291,-0.10,-0.18,1.25,-1.22,-0.82,3.07,
1.294,-0.10,-0.18,1.25,-1.30,-0.77,2.78,
1.294,-0.10,-0.18,1.24,-1.30,-0.77,2.78,
1.296,-0.10,-0.17,1.23,-1.30,-0.77,2.78,
1.298,-0.10,-0.15,1.22,-1.30,-0.77,2.78,
1.299,-0.10,-0.15,1.22,-1.37,-0.65,2.50,
1.301,-0.10,-0.14,1.21,-1.37,-0.65,2.50,
1.304,-0.10,-0.13,1.21,-1.37,-0.65,2.50,
1.305,-0.10,-0.13,1.21,-1.38,-0.46,2.26,
1.306,-0.09,-0.12,1.20,-1.38,-0.46,2.26,
1.308,-0.09,-0.11,1.20,-1.38,-0.46,2.26,
1.313,-0.09,-0.11,1.20,-1.40,-0.22,2.13,
1.314,-0.08,-0.09,1.20,-1.40,-0.22,2.13,
1.315,-0.07,-0.08,1.20,-1.40,-0.22,2.13,
1.315,-0.07,-0.08,1.20,-1.28,-0.03,2.04,
1.316,-0.05,-0.07,1.21,-1.28,-0.03,2.04,
1.329,-0.05,-0.07,1.21,-1.12,0.25,2.00,
1.33,-0.03,-0.06,1.20,-1.12,0.25,2.00,
1.331,-0.02,-0.05,1.21,-1.12,0.25,2.00,
1.331,-0.00,-0.04,1.21,-1.12,0.25,2.00,
1.331,-0.00,-0.04,1.21,-0.83,0.45,2.04,
1.331,0.01,-0.04,1.21,-0.83,0.45,2.04,
1.332,0.02,-0.03,1.21,-0.83,0.45,2.04,
1.332,0.02,-0.03,1.21,-0.49,0.59,2.06,
1.332,0.04,-0.03,1.22,-0.49,0.59,2.06,
1.333,0.05,-0.03,1.22,-0.49,0.59,2.06,
1.333,0.05,-0.03,1.22,-0.24,0.68,2.12,
1.342,0.05,-0.03,1.22,-0.24,0.68,2.12,
1.342,0.06,-0.03,1.20,-0.24,0.68,2.12,
1.343,0.06,-0.03,1.20,0.01,0.72,2.13,
1.343,0.07,-0.03,1.20,0.01,0.72,2.13,
1.343,0.07,-0.03,1.20,0.15,0.71,2.06,
1.343,0.08,-0.02,1.20,0.15,0.71,2.06,
1.345,0.08,-0.03,1.20,0.15,0.71,2.06,
1.349,0.09,-0.03,1.19,0.15,0.71,2.06,
1.349,0.09,-0.03,1.19,0.30,0.72,1.95,
1.351,0.09,-0.03,1.18,0.30,0.72,1.95,
1.353,0.10,-0.04,1.17,0.30,0.72,1.95,
1.354,0.10,-0.04,1.17,0.40,0.65,1.87,
1.356,0.11,-0.05,1.16,0.40,0.65,1.87,
1.358,0.11,-0.06,1.14,0.40,0.65,1.87,
1.358,0.11,-0.06,1.14,0.50,0.54,1.69,
1.361,0.11,-0.07,1.13,0.50,0.54,1.69,
1.363,0.12,-0.07,1.11,0.50,0.54,1.69,
1.364,0.12,-0.07,1.11,0.64,0.35,1.44,
1.366,0.12,-0.07,1.10,0.64,0.35,1.44,
1.368,0.13,-0.08,1.08,0.64,0.35,1.44,
1.369,0.13,-0.08,1.08,0.71,0.18,1.14,
1.371,0.13,-0.08,1.06,0.71,0.18,1.14,
1.373,0.13,-0.08,1.05,0.71,0.18,1.14,
1.373,0.13,-0.08,1.05,0.77,0.12,0.84,
1.376,0.13,-0.08,1.04,0.77,0.12,0.84,
1.378,0.14,-0.08,1.03,0.77,0.12,0.84,
1.378,0.14,-0.08,1.03,0.84,0.07,0.51,
1.381,0.14,-0.08,1.01,0.84,0.07,0.51,
1.384,0.15,-0.08,0.99,0.84,0.07,0.51,
1.384,0.15,-0.08,0.99,0.93,0.07,0.30,
1.385,0.16,-0.09,0.97,0.93,0.07,0.30,
1.387,0.16,-0.10,0.95,0.93,0.07,0.30,
1.388,0.16,-0.10,0.95,1.02,0.02,-0.05,
1.39,0.17,-0.10,0.93,1.02,0.02,-0.05,
1.393,0.17,-0.10,0.93,1.14,-0.09,-0.43,
1.393,0.17,-0.10,0.91,1.14,-0.09,-0.43,
1.396,0.17,-0.09,0.90,1.14,-0.09,-0.43,
1.398,0.18,-0.09,0.90,1.14,-0.09,-0.43,
1.398,0.18,-0.09,0.90,1.24,-0.15,-0.79,
1.401,0.18,-0.07,0.91,1.24,-0.15,-0.79,
1.402,0.19,-0.06,0.93,1.24,-0.15,-0.79,
1.404,0.19,-0.06,0.93,1.31,-0.05,-1.00,
1.405,0.19,-0.05,0.94,1.31,-0.05,-1.00,
1.408,0.19,-0.05,0.94,1.40,0.16,-0.82,
1.408,0.20,-0.04,0.95,1.40,0.16,-0.82,
1.411,0.19,-0.03,0.98,1.40,0.16,-0.82,
1.413,0.19,-0.02,1.00,1.40,0.16,-0.82,
1.413,0.19,-0.02,1.00,1.48,0.39,-0.57,
1.415,0.18,-0.02,1.01,1.48,0.39,-0.57,
1.418,0.18,-0.02,1.01,1.39,0.56,-0.13,
1.418,0.17,-0.03,1.03,1.39,0.56,-0.13,
1.421,0.16,-0.04,1.03,1.39,0.56,-0.13,
1.423,0.14,-0.05,1.03,1.39,0.56,-0.13,
1.423,0.14,-0.05,1.03,1.23,0.58,0.17,
1.425,0.13,-0.06,1.04,1.23,0.58,0.17,
1.428,0.12,-0.08,1.04,1.23,0.58,0.17,
1.429,0.12,-0.08,1.04,0.97,0.38,0.29,
1.431,0.10,-0.10,1.04,0.97,0.38,0.29,
1.433,0.08,-0.12,1.04,0.97,0.38,0.29,
1.433,0.08,-0.12,1.04,0.69,0.13,0.38,
1.435,0.07,-0.13,1.04,0.69,0.13,0.38,
1.441,0.06,-0.15,1.04,0.69,0.13,0.38,
1.442,0.06,-0.15,1.04,0.41,-0.22,0.36,
1.442,0.06,-0.16,1.03,0.41,-0.22,0.36,
1.442,0.06,-0.16,1.03,0.16,-0.50,0.34,
1.442,0.05,-0.17,1.02,0.16,-0.50,0.34,
1.445,0.04,-0.18,1.02,0.16,-0.50,0.34,
1.447,0.04,-0.19,1.01,0.16,-0.50,0.34,
1.447,0.04,-0.19,1.01,0.02,-0.76,0.23,
1.45,0.03,-0.20,1.00,0.02,-0.76,0.23,
1.453,0.02,-0.20,0.99,0.02,-0.76,0.23,
1.453,0.02,-0.20,0.99,-0.10,-0.98,0.08,
1.455,0.02,-0.20,0.97,-0.10,-0.98,0.08,
1.458,0.02,-0.20,0.96,-0.10,-0.98,0.08,
1.458,0.02,-0.20,0.96,-0.23,-1.07,-0.09,
1.46,0.02,-0.20,0.94,-0.23,-1.07,-0.09,
1.462,0.02,-0.20,0.92,-0.23,-1.07,-0.09,
1.463,0.02,-0.20,0.92,-0.29,-1.10,-0.37,
1.465,0.02,-0.21,0.90,-0.29,-1.10,-0.37,
1.468,0.02,-0.21,0.90,-0.25,-1.12,-0.68,
1.468,0.03,-0.21,0.88,-0.25,-1.12,-0.68,
1.471,0.04,-0.21,0.87,-0.25,-1.12,-0.68,
1.472,0.04,-0.20,0.85,-0.25,-1.12,-0.68,
1.472,0.04,-0.20,0.85,-0.20,-1.17,-1.07,
1.475,0.04,-0.20,0.84,-0.20,-1.17,-1.07,
1.477,0.04,-0.19,0.83,-0.20,-1.17,-1.07,
1.477,0.04,-0.19,0.83,-0.08,-1.11,-1.39,
1.48,0.05,-0.18,0.82,-0.08,-1.11,-1.39,
1.482,0.05,-0.18,0.82,-0.01,-0.98,-1.65,
1.482,0.05,-0.16,0.81,-0.01,-0.98,-1.65,
1.485,0.05,-0.14,0.82,-0.01,-0.98,-1.65,
1.488,0.05,-0.12,0.83,-0.01,-0.98,-1.65,
1.488,0.05,-0.12,0.83,0.04,-0.71,-1.82,
1.49,0.06,-0.10,0.85,0.04,-0.71,-1.82,
1.492,0.06,-0.10,0.85,0.06,-0.36,-1.69,
1.493,0.07,-0.08,0.89,0.06,-0.36,-1.69,
1.494,0.08,-0.04,0.92,0.06,-0.36,-1.69,
1.497,0.09,-0.02,0.96,0.06,-0.36,-1.69,
1.498,0.09,-0.02,0.96,0.13,0.09,-1.30,
1.5,0.10,0.00,1.00,0.13,0.09,-1.30,
1.503,0.11,0.02,1.03,0.13,0.09,-1.30,
1.503,0.11,0.02,1.03,0.34,0.66,-0.60,
1.506,0.11,0.04,1.07,0.34,0.66,-0.60,
1.507,0.09,0.05,1.10,0.34,0.66,-0.60,
1.507,0.09,0.05,1.10,0.47,1.13,0.18,
1.509,0.08,0.06,1.13,0.47,1.13,0.18,
1.512,0.07,0.05,1.15,0.47,1.13,0.18,
1.513,0.07,0.05,1.15,0.44,1.45,0.88,
1.515,0.06,0.04,1.16,0.44,1.45,0.88,
1.517,0.06,0.04,1.16,0.17,1.50,1.39,
1.517,0.03,0.03,1.17,0.17,1.50,1.39,
1.52,0.02,0.01,1.17,0.17,1.50,1.39,
1.523,0.02,0.01,1.17,-0.17,1.35,1.62,
1.524,0.00,-0.01,1.17,-0.17,1.35,1.62,
1.524,-0.01,-0.04,1.16,-0.17,1.35,1.62,
1.527,-0.02,-0.07,1.15,-0.17,1.35,1.62,
1.527,-0.02,-0.07,1.15,-0.52,0.96,1.69,
1.53,-0.02,-0.10,1.13,-0.52,0.96,1.69,
1.532,-0.02,-0.13,1.11,-0.52,0.96,1.69,
1.532,-0.02,-0.13,1.11,-0.76,0.45,1.52,
1.534,-0.02,-0.15,1.09,-0.76,0.45,1.52,
1.537,-0.02,-0.17,1.07,-0.76,0.45,1.52,
1.537,-0.02,-0.17,1.07,-0.88,-0.14,1.16,
1.545,-0.02,-0.19,1.05,-0.88,-0.14,1.16,
1.546,-0.02,-0.19,1.05,-0.88,-0.63,0.78,
1.546,-0.02,-0.20,1.03,-0.88,-0.63,0.78,
1.546,-0.01,-0.20,1.02,-0.88,-0.63,0.78,
1.547,-0.01,-0.21,1.00,-0.88,-0.63,0.78,
1.548,-0.01,-0.21,1.00,-0.88,-0.98,0.39,
1.549,-0.00,-0.21,1.00,-0.88,-0.98,0.39,
1.552,0.00,-0.21,0.98,-0.88,-0.98,0.39,
1.552,0.00,-0.21,0.98,-0.80,-1.07,0.12,
1.565,0.00,-0.20,0.97,-0.80,-1.07,0.12,
1.566,0.01,-0.20,0.97,-0.80,-1.07,0.12,
1.567,0.01,-0.20,0.97,-0.72,-1.07,-0.10,
1.567,0.02,-0.20,0.96,-0.72,-1.07,-0.10,
1.568,0.02,-0.19,0.95,-0.72,-1.07,-0.10,
1.568,0.02,-0.19,0.95,-0.65,-1.02,-0.28,
1.568,0.03,-0.19,0.95,-0.65,-1.02,-0.28,
1.569,0.04,-0.19,0.94,-0.65,-1.02,-0.28,
1.569,0.04,-0.19,0.94,-0.54,-0.96,-0.46,
1.569,0.05,-0.18,0.95,-0.54,-0.96,-0.46,
1.574,0.06,-0.16,0.96,-0.54,-0.96,-0.46,
1.575,0.06,-0.16,0.96,-0.42,-0.90,-0.53,
1.575,0.07,-0.15,0.97,-0.42,-0.90,-0.53,
1.575,0.08,-0.14,0.99,-0.42,-0.90,-0.53,
1.576,0.08,-0.14,0.99,-0.25,-0.70,-0.44,
1.578,0.09,-0.13,1.00,-0.25,-0.70,-0.44,
1.58,0.09,-0.12,1.03,-0.25,-0.70,-0.44,
1.581,0.09,-0.12,1.03,-0.04,-0.50,-0.18,
1.583,0.09,-0.10,1.05,-0.04,-0.50,-0.18,
1.585,0.10,-0.10,1.07,-0.04,-0.50,-0.18,
1.585,0.10,-0.10,1.07,0.07,-0.28,0.16,
1.588,0.10,-0.09,1.10,0.07,-0.28,0.16,
1.59,0.09,-0.08,1.11,0.07,-0.28,0.16,
1.591,0.09,-0.08,1.11,0.10,-0.02,0.61,
1.593,0.08,-0.08,1.13,0.10,-0.02,0.61,
1.596,0.08,-0.08,1.15,0.10,-0.02,0.61,
1.596,0.08,-0.08,1.15,0.06,0.16,1.03,
1.598,0.07,-0.08,1.15,0.06,0.16,1.03,
1.6,0.06,-0.08,1.16,0.06,0.16,1.03,
1.601,0.06,-0.08,1.16,-0.11,0.21,1.35,
1.605,0.05,-0.09,1.17,-0.11,0.21,1.35,
1.606,0.05,-0.10,1.17,-0.11,0.21,1.35,
1.606,0.05,-0.10,1.17,-0.29,0.22,1.55,
1.608,0.04,-0.10,1.16,-0.29,0.22,1.55,
1.61,0.04,-0.11,1.15,-0.29,0.22,1.55,
1.611,0.04,-0.11,1.15,-0.43,0.06,1.63,
1.613,0.05,-0.13,1.14,-0.43,0.06,1.63,
1.615,0.05,-0.14,1.12,-0.43,0.06,1.63,
1.616,0.05,-0.14,1.12,-0.48,-0.12,1.54,
1.618,0.05,-0.15,1.10,-0.48,-0.12,1.54,
1.622,0.06,-0.16,1.08,-0.48,-0.12,1.54,
1.624,0.06,-0.16,1.08,-0.44,-0.39,1.28,
1.624,0.07,-0.17,1.05,-0.44,-0.39,1.28,
1.625,0.07,-0.17,1.03,-0.44,-0.39,1.28,
1.626,0.07,-0.17,1.03,-0.37,-0.64,0.84,
1.629,0.07,-0.17,1.00,-0.37,-0.64,0.84,
1.63,0.07,-0.16,0.97,-0.37,-0.64,0.84,
1.63,0.07,-0.16,0.97,-0.25,-0.80,0.36,
1.633,0.07,-0.15,0.95,-0.25,-0.80,0.36,
1.635,0.08,-0.14,0.93,-0.25,-0.80,0.36,
1.635,0.08,-0.14,0.93,-0.22,-0.77,-0.18,
1.638,0.08,-0.13,0.91,-0.22,-0.77,-0.18,
1.645,0.09,-0.11,0.90,-0.22,-0.77,-0.18,
1.646,0.09,-0.11,0.90,-0.19,-0.59,-0.62,
1.646,0.09,-0.09,0.88,-0.19,-0.59,-0.62,
1.646,0.09,-0.08,0.87,-0.19,-0.59,-0.62,
1.647,0.09,-0.08,0.87,-0.10,-0.37,-0.97,
1.647,0.10,-0.05,0.87,-0.10,-0.37,-0.97,
1.65,0.11,-0.04,0.87,-0.10,-0.37,-0.97,
1.651,0.11,-0.04,0.87,-0.04,-0.05,-1.22,
1.653,0.12,-0.03,0.87,-0.04,-0.05,-1.22,
1.663,0.13,-0.01,0.88,-0.04,-0.05,-1.22,
1.666,0.13,-0.01,0.88,0.10,0.29,-1.30,
1.668,0.15,-0.00,0.89,0.10,0.29,-1.30,
1.669,0.16,0.01,0.90,0.10,0.29,-1.30,
1.67,0.16,0.01,0.90,0.29,0.56,-1.21,
1.67,0.17,0.01,0.92,0.29,0.56,-1.21,
1.67,0.17,0.01,0.92,0.52,0.78,-1.00,
1.67,0.18,0.01,0.94,0.52,0.78,-1.00,
1.671,0.19,0.02,0.95,0.52,0.78,-1.00,
1.671,0.19,0.01,0.98,0.52,0.78,-1.00,
1.671,0.19,0.01,0.98,0.73,0.88,-0.70,
1.672,0.19,0.01,0.99,0.73,0.88,-0.70,
1.675,0.18,0.01,1.01,0.73,0.88,-0.70,
1.675,0.18,0.01,1.01,0.81,0.90,-0.33,
1.677,0.18,-0.00,1.03,0.81,0.90,-0.33,
1.68,0.17,-0.01,1.04,0.81,0.90,-0.33,
1.68,0.17,-0.01,1.04,0.77,0.84,0.05,
1.683,0.15,-0.02,1.05,0.77,0.84,0.05,
1.685,0.14,-0.04,1.06,0.77,0.84,0.05,
1.685,0.14,-0.04,1.06,0.63,0.72,0.34,
1.688,0.12,-0.05,1.06,0.63,0.72,0.34,
1.69,0.12,-0.05,1.06,0.38,0.49,0.51,
1.691,0.11,-0.07,1.05,0.38,0.49,0.51,
1.693,0.09,-0.08,1.05,0.38,0.49,0.51,
1.694,0.07,-0.10,1.04,0.38,0.49,0.51,
1.695,0.07,-0.10,1.04,0.06,0.18,0.57,
1.698,0.04,-0.11,1.04,0.06,0.18,0.57,
1.7,0.02,-0.12,1.02,0.06,0.18,0.57,
1.7,0.02,-0.12,1.02,-0.29,-0.12,0.49,
1.703,0.01,-0.12,1.01,-0.29,-0.12,0.49,
1.705,-0.01,-0.13,1.00,-0.29,-0.12,0.49,
1.705,-0.01,-0.13,1.00,-0.70,-0.34,0.30,
1.708,-0.02,-0.13,1.00,-0.70,-0.34,0.30,
1.709,-0.04,-0.14,0.99,-0.70,-0.34,0.30,
1.71,-0.04,-0.14,0.99,-1.00,-0.44,0.09,
1.713,-0.05,-0.14,0.99,-1.00,-0.44,0.09,
1.715,-0.05,-0.14,0.99,-1.31,-0.55,-0.07,
1.715,-0.06,-0.13,0.98,-1.31,-0.55,-0.07,
1.718,-0.07,-0.14,0.98,-1.31,-0.55,-0.07,
1.72,-0.07,-0.14,0.98,-1.31,-0.55,-0.07,
1.721,-0.07,-0.14,0.98,-1.56,-0.52,-0.12,
1.723,-0.07,-0.14,0.97,-1.56,-0.52,-0.12,
1.725,-0.08,-0.14,0.97,-1.56,-0.52,-0.12,
1.725,-0.08,-0.14,0.97,-1.68,-0.56,-0.17,
1.728,-0.07,-0.14,0.97,-1.68,-0.56,-0.17,
1.73,-0.07,-0.14,0.97,-1.68,-0.56,-0.17,
1.731,-0.07,-0.14,0.97,-1.70,-0.58,-0.27,
1.733,-0.06,-0.14,0.96,-1.70,-0.58,-0.27,
1.735,-0.05,-0.13,0.97,-1.70,-0.58,-0.27,
1.735,-0.05,-0.13,0.97,-1.66,-0.57,-0.29,
1.737,-0.04,-0.13,0.97,-1.66,-0.57,-0.29,
1.74,-0.04,-0.13,0.97,-1.54,-0.52,-0.34,
1.741,-0.04,-0.12,0.97,-1.54,-0.52,-0.34,
1.741,-0.03,-0.12,0.97,-1.54,-0.52,-0.34,
1.745,-0.02,-0.11,0.97,-1.54,-0.52,-0.34,
1.745,-0.02,-0.11,0.97,-1.38,-0.43,-0.31,
1.747,-0.01,-0.11,0.97,-1.38,-0.43,-0.31,
1.749,-0.01,-0.11,0.97,-1.21,-0.31,-0.30,
1.75,0.00,-0.11,0.97,-1.21,-0.31,-0.30,
1.752,0.00,-0.10,0.98,-1.21,-0.31,-0.30,
1.761,0.00,-0.10,0.98,-1.06,-0.25,-0.25,
1.762,0.01,-0.09,0.98,-1.06,-0.25,-0.25,
1.762,0.01,-0.09,0.98,-1.06,-0.25,-0.25,
1.762,0.02,-0.08,0.98,-1.06,-0.25,-0.25,
1.763,0.02,-0.08,0.98,-0.96,-0.14,-0.21,
1.763,0.02,-0.07,0.99,-0.96,-0.14,-0.21,
1.764,0.02,-0.07,0.99,-0.92,-0.03,-0.17,
1.765,0.02,-0.07,1.00,-0.92,-0.03,-0.17,
1.766,0.02,-0.06,1.00,-0.92,-0.03,-0.17,
1.769,0.03,-0.06,1.01,-0.92,-0.03,-0.17,
1.769,0.03,-0.06,1.01,-0.89,0.10,-0.05,
1.772,0.03,-0.06,1.02,-0.89,0.10,-0.05,
1.775,0.03,-0.06,1.02,-0.89,0.10,-0.05,
1.775,0.03,-0.06,1.02,-0.85,0.19,0.09,
1.776,0.03,-0.07,1.03,-0.85,0.19,0.09,
1.779,0.03,-0.08,1.03,-0.85,0.19,0.09,
1.78,0.03,-0.08,1.03,-0.86,0.16,0.21,
1.782,0.03,-0.08,1.04,-0.86,0.16,0.21,
1.784,0.03,-0.09,1.04,-0.86,0.16,0.21,
1.784,0.03,-0.09,1.04,-0.83,0.04,0.34,
1.787,0.03,-0.09,1.03,-0.83,0.04,0.34,
1.789,0.03,-0.09,1.03,-0.87,-0.07,0.43,
1.79,0.04,-0.10,1.03,-0.87,-0.07,0.43,
1.792,0.03,-0.10,1.02,-0.87,-0.07,0.43,
1.794,0.04,-0.11,1.02,-0.87,-0.07,0.43,
1.795,0.04,-0.11,1.02,-0.85,-0.19,0.35,
1.796,0.04,-0.12,1.01,-0.85,-0.19,0.35,
1.799,0.04,-0.12,1.00,-0.85,-0.19,0.35,
1.799,0.04,-0.12,1.00,-0.83,-0.31,0.23,
1.801,0.03,-0.13,0.98,-0.83,-0.31,0.23,
1.804,0.04,-0.13,0.97,-0.83,-0.31,0.23,
1.807,0.04,-0.13,0.97,-0.84,-0.47,0.04,
1.808,0.03,-0.13,0.96,-0.84,-0.47,0.04,
1.811,0.04,-0.13,0.94,-0.84,-0.47,0.04,
1.812,0.04,-0.13,0.94,-0.85,-0.53,-0.22,
1.812,0.03,-0.13,0.93,-0.85,-0.53,-0.22,
1.813,0.03,-0.13,0.93,-0.85,-0.54,-0.47,
1.813,0.03,-0.13,0.92,-0.85,-0.54,-0.47,
1.815,0.03,-0.13,0.90,-0.85,-0.54,-0.47,
1.818,0.03,-0.13,0.89,-0.85,-0.54,-0.47,
1.819,0.03,-0.13,0.89,-0.87,-0.53,-0.73,
1.82,0.02,-0.13,0.88,-0.87,-0.53,-0.73,
1.823,0.02,-0.12,0.88,-0.87,-0.53,-0.73,
1.824,0.02,-0.12,0.88,-0.89,-0.55,-0.98,
1.825,0.02,-0.12,0.88,-0.89,-0.55,-0.98,
1.828,0.01,-0.11,0.87,-0.89,-0.55,-0.98,
1.828,0.01,-0.11,0.87,-0.99,-0.52,-1.11,
1.831,0.00,-0.11,0.87,-0.99,-0.52,-1.11,
1.833,0.00,-0.10,0.87,-0.99,-0.52,-1.11,
1.833,0.00,-0.10,0.87,-1.04,-0.40,-1.21,
1.835,0.01,-0.09,0.87,-1.04,-0.40,-1.21,
1.839,0.01,-0.08,0.88,-1.04,-0.40,-1.21,
1.84,0.01,-0.08,0.88,-1.14,-0.28,-1.26,
1.84,0.01,-0.08,0.89,-1.14,-0.28,-1.26,
1.843,0.01,-0.08,0.90,-1.14,-0.28,-1.26,
1.843,0.01,-0.08,0.90,-1.10,-0.13,-1.16,
1.845,0.01,-0.07,0.90,-1.10,-0.13,-1.16,
1.848,0.02,-0.07,0.91,-1.10,-0.13,-1.16,
1.848,0.02,-0.07,0.91,-1.06,-0.07,-1.01,
1.85,0.02,-0.07,0.92,-1.06,-0.07,-1.01,
1.853,0.03,-0.06,0.93,-1.06,-0.07,-1.01,
1.853,0.03,-0.06,0.93,-1.00,0.02,-0.87,
1.855,0.03,-0.06,0.94,-1.00,0.02,-0.87,
1.858,0.05,-0.06,0.95,-1.00,0.02,-0.87,
1.858,0.05,-0.06,0.95,-0.90,0.08,-0.66,
1.86,0.05,-0.05,0.97,-0.90,0.08,-0.66,
1.863,0.05,-0.05,0.97,-0.75,0.18,-0.46,
1.863,0.06,-0.05,0.99,-0.75,0.18,-0.46,
1.865,0.06,-0.04,1.00,-0.75,0.18,-0.46,
1.867,0.07,-0.05,1.01,-0.75,0.18,-0.46,
1.868,0.07,-0.05,1.01,-0.59,0.27,-0.15,
1.87,0.07,-0.04,1.02,-0.59,0.27,-0.15,
1.879,0.07,-0.05,1.03,-0.59,0.27,-0.15,
1.88,0.07,-0.05,1.03,-0.51,0.32,0.11,
1.88,0.07,-0.05,1.04,-0.51,0.32,0.11,
1.881,0.07,-0.06,1.04,-0.51,0.32,0.11,
1.881,0.07,-0.06,1.04,-0.47,0.30,0.29,
1.881,0.07,-0.06,1.04,-0.47,0.30,0.29,
1.883,0.06,-0.07,1.04,-0.47,0.30,0.29,
1.883,0.06,-0.07,1.04,-0.48,0.23,0.40,
1.885,0.06,-0.08,1.04,-0.48,0.23,0.40,
1.892,0.06,-0.09,1.03,-0.48,0.23,0.40,
1.893,0.06,-0.09,1.03,-0.53,0.11,0.46,
1.893,0.06,-0.10,1.02,-0.53,0.11,0.46,
1.894,0.06,-0.11,1.01,-0.53,0.11,0.46,
1.894,0.06,-0.11,1.01,-0.55,-0.07,0.39,
1.895,0.06,-0.11,1.01,-0.55,-0.07,0.39,
1.897,0.06,-0.12,0.99,-0.55,-0.07,0.39,
1.898,0.06,-0.12,0.99,-0.55,-0.25,0.22,
1.9,0.06,-0.13,0.97,-0.55,-0.25,0.22,
1.902,0.06,-0.13,0.95,-0.55,-0.25,0.22,
1.902,0.06,-0.13,0.95,-0.54,-0.42,0.03,
1.905,0.05,-0.14,0.93,-0.54,-0.42,0.03,
1.908,0.05,-0.14,0.91,-0.54,-0.42,0.03,
1.909,0.05,-0.14,0.91,-0.56,-0.57,-0.33,
1.909,0.05,-0.13,0.90,-0.56,-0.57,-0.33,
1.913,0.05,-0.13,0.90,-0.57,-0.65,-0.71,
1.913,0.05,-0.13,0.87,-0.57,-0.65,-0.71,
1.915,0.04,-0.12,0.85,-0.57,-0.65,-0.71,
1.918,0.04,-0.11,0.84,-0.57,-0.65,-0.71,
1.919,0.04,-0.11,0.84,-0.58,-0.58,-1.09,
1.92,0.04,-0.10,0.83,-0.58,-0.58,-1.09,
1.923,0.04,-0.09,0.82,-0.58,-0.58,-1.09,
1.923,0.04,-0.09,0.82,-0.66,-0.44,-1.44,
1.925,0.04,-0.08,0.82,-0.66,-0.44,-1.44,
1.927,0.04,-0.07,0.82,-0.66,-0.44,-1.44,
1.928,0.04,-0.07,0.82,-0.68,-0.26,-1.65,
1.929,0.04,-0.06,0.81,-0.68,-0.26,-1.65,
1.932,0.04,-0.04,0.81,-0.68,-0.26,-1.65,
1.932,0.04,-0.04,0.81,-0.67,-0.05,-1.74,
1.934,0.04,-0.03,0.82,-0.67,-0.05,-1.74,
1.937,0.04,-0.02,0.83,-0.67,-0.05,-1.74,
1.937,0.04,-0.02,0.83,-0.69,0.17,-1.77,
1.941,0.05,-0.01,0.84,-0.69,0.17,-1.77,
1.942,0.05,-0.01,0.83,-0.69,0.17,-1.77,
1.943,0.05,-0.01,0.83,-0.64,0.39,-1.69,
1.944,0.06,-0.01,0.84,-0.64,0.39,-1.69,
1.947,0.06,-0.00,0.84,-0.64,0.39,-1.69,
1.947,0.06,-0.00,0.84,-0.55,0.54,-1.57,
1.95,0.07,-0.00,0.86,-0.55,0.54,-1.57,
1.952,0.08,-0.01,0.86,-0.55,0.54,-1.57,
1.952,0.08,-0.01,0.86,-0.46,0.58,-1.47,
1.957,0.08,-0.01,0.85,-0.46,0.58,-1.47,
1.958,0.09,-0.01,0.86,-0.46,0.58,-1.47,
1.958,0.09,-0.01,0.86,-0.34,0.57,-1.35,
1.959,0.09,-0.01,0.86,-0.34,0.57,-1.35,
1.962,0.09,-0.01,0.86,-0.19,0.50,-1.36,
1.963,0.09,-0.02,0.86,-0.19,0.50,-1.36,
1.964,0.09,-0.02,0.86,-0.19,0.50,-1.36,
1.967,0.08,-0.03,0.86,-0.19,0.50,-1.36,
1.967,0.08,-0.03,0.86,-0.16,0.44,-1.34,
1.973,0.09,-0.02,0.85,-0.16,0.44,-1.34,
1.973,0.08,-0.02,0.86,-0.16,0.44,-1.34,
1.974,0.08,-0.02,0.86,-0.18,0.35,-1.30,
1.974,0.08,-0.02,0.86,-0.18,0.35,-1.30,
1.984,0.08,-0.02,0.86,-0.18,0.35,-1.30,
1.985,0.08,-0.02,0.86,-0.16,0.39,-1.36,
1.985,0.08,-0.02,0.86,-0.16,0.39,-1.36,
1.988,0.07,-0.02,0.86,-0.16,0.39,-1.36,
1.988,0.07,-0.02,0.86,-0.21,0.42,-1.32,
1.988,0.07,-0.02,0.86,-0.21,0.42,-1.32,
1.988,0.07,-0.02,0.86,-0.25,0.41,-1.32,
1.989,0.07,-0.02,0.86,-0.25,0.41,-1.32,
1.989,0.06,-0.03,0.86,-0.25,0.41,-1.32,
1.995,0.06,-0.03,0.86,-0.25,0.41,-1.32,
1.996,0.06,-0.03,0.86,-0.29,0.39,-1.35,
1.996,0.06,-0.02,0.86,-0.29,0.39,-1.35,
1.996,0.05,-0.02,0.86,-0.29,0.39,-1.35,
1.997,0.05,-0.02,0.86,-0.37,0.33,-1.33,
1.999,0.05,-0.02,0.86,-0.37,0.33,-1.33,
2.002,0.05,-0.03,0.85,-0.37,0.33,-1.33,
2.002,0.05,-0.03,0.85,-0.40,0.33,-1.32,
2.006,0.04,-0.03,0.85,-0.40,0.33,-1.32,
2.007,0.04,-0.03,0.85,-0.40,0.33,-1.32,
2.008,0.04,-0.03,0.85,-0.45,0.32,-1.35,
2.009,0.04,-0.03,0.85,-0.45,0.32,-1.35,
2.012,0.03,-0.04,0.86,-0.45,0.32,-1.35,
2.012,0.03,-0.04,0.86,-0.50,0.25,-1.36,
2.014,0.03,-0.03,0.86,-0.50,0.25,-1.36,
2.016,0.03,-0.04,0.86,-0.50,0.25,-1.36,
2.016,0.03,-0.04,0.86,-0.53,0.22,-1.36,
2.018,0.03,-0.04,0.86,-0.53,0.22,-1.36,
2.023,0.03,-0.04,0.86,-0.53,0.22,-1.36,
2.024,0.03,-0.04,0.86,-0.55,0.20,-1.33,
2.026,0.03,-0.05,0.86,-0.55,0.20,-1.33,
2.026,0.03,-0.04,0.86,-0.55,0.20,-1.33,
2.026,0.03,-0.04,0.86,-0.54,0.12,-1.31,
2.029,0.03,-0.04,0.86,-0.54,0.12,-1.31,
2.031,0.03,-0.05,0.86,-0.54,0.12,-1.31,
2.031,0.03,-0.05,0.86,-0.53,0.10,-1.30,
2.034,0.03,-0.05,0.87,-0.53,0.10,-1.30,
2.036,0.03,-0.05,0.87,-0.57,0.10,-1.32,
2.037,0.02,-0.05,0.87,-0.57,0.10,-1.32,
2.041,0.03,-0.05,0.87,-0.57,0.10,-1.32,
2.041,0.03,-0.05,0.87,-0.57,0.10,-1.32,
2.041,0.03,-0.05,0.87,-0.58,0.07,-1.21,
2.044,0.03,-0.06,0.87,-0.58,0.07,-1.21,
2.047,0.03,-0.06,0.87,-0.58,0.07,-1.21,
2.047,0.03,-0.06,0.87,-0.57,0.01,-1.20,
2.05,0.03,-0.06,0.88,-0.57,0.01,-1.20,
2.052,0.03,-0.07,0.88,-0.57,0.01,-1.20,
2.052,0.03,-0.07,0.88,-0.56,-0.06,-1.16,
2.054,0.03,-0.07,0.88,-0.56,-0.06,-1.16,
2.057,0.03,-0.08,0.88,-0.56,-0.06,-1.16,
2.057,0.03,-0.08,0.88,-0.55,-0.12,-1.12,
2.059,0.02,-0.08,0.89,-0.55,-0.12,-1.12,
2.062,0.02,-0.08,0.89,-0.54,-0.20,-1.09,
2.062,0.03,-0.08,0.89,-0.54,-0.20,-1.09,
2.064,0.03,-0.09,0.89,-0.54,-0.20,-1.09,
2.066,0.03,-0.09,0.90,-0.54,-0.20,-1.09,
2.067,0.03,-0.09,0.90,-0.54,-0.27,-1.02,
2.069,0.02,-0.09,0.90,-0.54,-0.27,-1.02,
2.072,0.02,-0.09,0.91,-0.54,-0.27,-1.02,
2.072,0.02,-0.09,0.91,-0.53,-0.33,-0.94,
2.075,0.02,-0.09,0.91,-0.53,-0.33,-0.94,
2.076,0.03,-0.09,0.91,-0.53,-0.33,-0.94,
2.076,0.03,-0.09,0.91,-0.57,-0.33,-0.87,
2.079,0.03,-0.09,0.91,-0.57,-0.33,-0.87,
2.082,0.03,-0.09,0.92,-0.57,-0.33,-0.87,
2.082,0.03,-0.09,0.92,-0.55,-0.36,-0.78,
2.084,0.03,-0.09,0.92,-0.55,-0.36,-0.78,
2.086,0.03,-0.09,0.92,-0.50,-0.33,-0.73,
2.087,0.03,-0.09,0.92,-0.50,-0.33,-0.73,
2.089,0.03,-0.09,0.93,-0.50,-0.33,-0.73,
2.097,0.04,-0.09,0.93,-0.50,-0.33,-0.73,
2.098,0.04,-0.09,0.93,-0.47,-0.35,-0.64,
2.098,0.05,-0.08,0.94,-0.47,-0.35,-0.64,
2.099,0.05,-0.08,0.94,-0.47,-0.35,-0.64,
2.099,0.05,-0.08,0.94,-0.42,-0.32,-0.58,
2.099,0.06,-0.07,0.96,-0.42,-0.32,-0.58,
2.1,0.07,-0.07,0.96,-0.42,-0.32,-0.58,
2.101,0.07,-0.07,0.96,-0.31,-0.24,-0.48,
2.103,0.08,-0.06,0.96,-0.31,-0.24,-0.48,
2.111,0.08,-0.06,0.97,-0.31,-0.24,-0.48,
2.112,0.08,-0.06,0.97,-0.15,-0.15,-0.30,
2.112,0.08,-0.06,0.97,-0.15,-0.15,-0.30,
2.112,0.08,-0.06,0.97,-0.03,-0.08,-0.23,
2.112,0.09,-0.06,0.98,-0.03,-0.08,-0.23,
2.113,0.09,-0.05,0.98,-0.03,-0.08,-0.23,
2.116,0.09,-0.05,0.98,-0.03,-0.08,-0.23,
2.116,0.09,-0.05,0.98,0.03,-0.06,-0.13,
2.119,0.09,-0.05,0.98,0.03,-0.06,-0.13,
2.121,0.10,-0.05,0.98,0.03,-0.06,-0.13,
2.121,0.10,-0.05,0.98,0.08,0.02,-0.07,
2.124,0.09,-0.05,0.97,0.08,0.02,-0.07,
2.125,0.09,-0.04,0.98,0.08,0.02,-0.07,
2.126,0.09,-0.04,0.98,0.13,0.05,-0.08,
2.128,0.09,-0.05,0.97,0.13,0.05,-0.08,
2.131,0.09,-0.05,0.97,0.13,0.05,-0.08,
2.131,0.09,-0.05,0.97,0.11,0.08,-0.14,
2.133,0.09,-0.04,0.96,0.11,0.08,-0.14,
2.137,0.09,-0.04,0.96,0.11,0.08,-0.14,
2.137,0.09,-0.04,0.96,0.13,0.08,-0.16,
2.137,0.09,-0.05,0.96,0.13,0.08,-0.16,
2.142,0.09,-0.05,0.95,0.13,0.08,-0.16,
2.142,0.09,-0.05,0.95,0.13,0.12,-0.27,
2.144,0.09,-0.04,0.96,0.13,0.12,-0.27,
2.145,0.09,-0.04,0.95,0.13,0.12,-0.27,
2.145,0.09,-0.04,0.95,0.13,0.08,-0.33,
2.148,0.09,-0.04,0.95,0.13,0.08,-0.33,
2.151,0.09,-0.04,0.95,0.13,0.08,-0.33,
2.151,0.09,-0.04,0.95,0.14,0.11,-0.35,
2.153,0.09,-0.03,0.96,0.14,0.11,-0.35,
2.156,0.09,-0.03,0.96,0.14,0.11,-0.35,
2.156,0.09,-0.03,0.96,0.13,0.16,-0.37,
2.158,0.09,-0.03,0.97,0.13,0.16,-0.37,
2.16,0.09,-0.03,0.97,0.10,0.19,-0.27,
2.16,0.09,-0.03,0.97,0.10,0.19,-0.27,
2.163,0.09,-0.03,0.97,0.10,0.19,-0.27,
2.166,0.09,-0.03,0.98,0.10,0.19,-0.27,
2.166,0.09,-0.03,0.98,0.08,0.26,-0.20,
2.169,0.09,-0.03,0.98,0.08,0.26,-0.20,
2.171,0.09,-0.03,0.98,0.12,0.22,-0.13,
2.171,0.09,-0.03,0.98,0.12,0.22,-0.13,
2.173,0.09,-0.03,0.98,0.12,0.22,-0.13,
2.175,0.09,-0.03,0.98,0.12,0.22,-0.13,
2.176,0.09,-0.03,0.98,0.13,0.20,-0.09,
2.177,0.10,-0.03,0.98,0.13,0.20,-0.09,
2.18,0.09,-0.03,0.98,0.13,0.20,-0.09,
2.181,0.09,-0.03,0.98,0.16,0.21,-0.06,
2.183,0.10,-0.04,0.98,0.16,0.21,-0.06,
2.185,0.10,-0.04,0.98,0.16,0.21,-0.06,
2.186,0.10,-0.04,0.98,0.16,0.19,-0.08,
2.188,0.10,-0.04,0.97,0.16,0.19,-0.08,
2.192,0.11,-0.05,0.95,0.16,0.19,-0.08,
2.193,0.11,-0.05,0.95,0.17,0.12,-0.10,
2.193,0.14,-0.06,0.84,0.17,0.12,-0.10,
2.195,0.20,-0.02,0.74,0.17,0.12,-0.10,
2.195,0.20,-0.02,0.74,0.26,0.06,-0.28,
2.197,0.25,0.01,0.72,0.26,0.06,-0.28,
2.2,0.24,0.01,0.76,0.26,0.06,-0.28,
2.2,0.24,0.01,0.76,0.91,0.13,-1.91,
2.203,0.21,-0.00,0.80,0.91,0.13,-1.91,
2.205,0.18,-0.01,0.85,0.91,0.13,-1.91,
2.205,0.18,-0.01,0.85,1.63,0.62,-2.44,
2.212,0.15,-0.01,0.88,1.63,0.62,-2.44,
2.212,0.15,-0.01,0.88,1.15,0.48,-1.60,
2.213,0.14,-0.01,0.91,1.15,0.48,-1.60,
2.213,0.12,-0.01,0.92,1.15,0.48,-1.60,
2.216,0.12,-0.01,0.92,1.15,0.48,-1.60,
2.216,0.12,-0.01,0.92,0.66,0.44,-0.92,
2.216,0.10,-0.00,0.92,0.66,0.44,-0.92,
2.22,0.09,-0.00,0.92,0.66,0.44,-0.92,
2.22,0.09,-0.00,0.92,0.40,0.50,-0.68,
2.222,0.09,-0.01,0.93,0.40,0.50,-0.68,
2.225,0.07,-0.02,0.95,0.40,0.50,-0.68,
2.226,0.07,-0.02,0.95,0.20,0.56,-0.66,
2.226,0.06,-0.03,0.96,0.20,0.56,-0.66,
2.229,0.05,-0.05,0.97,0.20,0.56,-0.66,
2.229,0.05,-0.05,0.97,0.02,0.45,-0.47,
2.232,0.03,-0.06,0.97,0.02,0.45,-0.47,
2.234,0.02,-0.07,0.97,0.02,0.45,-0.47,
2.234,0.02,-0.07,0.97,-0.23,0.28,-0.22,
2.237,0.01,-0.08,0.98,-0.23,0.28,-0.22,
2.24,-0.00,-0.09,0.99,-0.23,0.28,-0.22,
2.24,-0.00,-0.09,0.99,-0.54,0.07,-0.18,
2.243,-0.02,-0.10,1.00,-0.54,0.07,-0.18,
2.245,-0.02,-0.11,1.01,-0.54,0.07,-0.18,
2.245,-0.02,-0.11,1.01,-0.78,-0.10,-0.03,
2.247,-0.02,-0.12,1.02,-0.78,-0.10,-0.03,
2.249,-0.02,-0.12,1.04,-0.78,-0.10,-0.03,
2.249,-0.02,-0.12,1.04,-0.97,-0.30,0.17,
2.252,-0.01,-0.13,1.06,-0.97,-0.30,0.17,
2.255,-0.01,-0.14,1.08,-0.97,-0.30,0.17,
2.255,-0.01,-0.14,1.08,-0.97,-0.44,0.43,
2.258,-0.00,-0.14,1.09,-0.97,-0.44,0.43,
2.259,0.00,-0.13,1.11,-0.97,-0.44,0.43,
2.259,0.00,-0.13,1.11,-0.94,-0.57,0.87,
2.262,0.03,-0.11,1.12,-0.94,-0.57,0.87,
2.264,0.06,-0.07,1.12,-0.94,-0.57,0.87,
2.264,0.06,-0.07,1.12,-0.85,-0.55,1.10,
2.267,0.08,-0.06,1.12,-0.85,-0.55,1.10,
2.269,0.09,-0.06,1.12,-0.85,-0.55,1.10,
2.269,0.09,-0.06,1.12,-0.40,-0.09,1.33,
2.271,0.10,-0.05,1.12,-0.40,-0.09,1.33,
2.275,0.11,-0.05,1.11,-0.40,-0.09,1.33,
2.276,0.11,-0.05,1.11,-0.06,0.19,1.28,
2.276,0.12,-0.04,1.09,-0.06,0.19,1.28,
2.28,0.13,-0.04,1.08,-0.06,0.19,1.28,
2.28,0.13,-0.04,1.08,0.21,0.29,1.23,
2.282,0.13,-0.04,1.07,0.21,0.29,1.23,
2.283,0.13,-0.04,1.07,0.40,0.34,1.00,
2.284,0.13,-0.03,1.06,0.40,0.34,1.00,
2.287,0.12,-0.03,1.05,0.40,0.34,1.00,
2.289,0.12,-0.03,1.04,0.40,0.34,1.00,
2.289,0.12,-0.03,1.04,0.40,0.37,0.75,
2.293,0.11,-0.02,1.02,0.40,0.37,0.75,
2.293,0.10,-0.02,1.01,0.40,0.37,0.75,
2.293,0.10,-0.02,1.01,0.35,0.41,0.53,
