
time,gFx,gFy,gFz,ax,ay,az,
0.001,0.06,0.19,1.02,0.14,0.00,0.29,
0.001,0.06,0.19,1.02,0.05,0.05,0.37,
0.001,0.06,0.19,1.03,0.05,0.05,0.37,
0.003,0.06,0.19,1.03,0.05,0.05,0.37,
0.003,0.06,0.19,1.03,-0.01,0.06,0.44,
0.005,0.06,0.19,1.03,-0.01,0.06,0.44,
0.008,0.05,0.19,1.03,-0.01,0.06,0.44,
0.008,0.05,0.19,1.03,-0.03,0.06,0.49,
0.01,0.06,0.18,1.03,-0.03,0.06,0.49,
0.015,0.06,0.18,1.03,-0.07,0.06,0.49,
0.015,0.06,0.19,1.02,-0.07,0.06,0.49,
0.015,0.06,0.19,1.03,-0.07,0.06,0.49,
0.018,0.05,0.18,1.02,-0.07,0.06,0.49,
0.018,0.05,0.18,1.02,-0.02,0.03,0.47,
0.02,0.06,0.19,1.02,-0.02,0.03,0.47,
0.023,0.06,0.19,1.02,-0.02,0.03,0.47,
0.023,0.06,0.19,1.02,-0.04,0.03,0.43,
0.025,0.06,0.19,1.02,-0.04,0.03,0.43,
0.028,0.05,0.19,1.02,-0.04,0.03,0.43,
0.028,0.05,0.19,1.02,0.04,0.09,0.38,
0.031,0.05,0.19,1.02,0.04,0.09,0.38,
0.033,0.05,0.19,1.02,0.04,0.09,0.38,
0.033,0.05,0.19,1.02,-0.01,0.12,0.39,
0.035,0.05,0.19,1.02,-0.01,0.12,0.39,
0.038,0.04,0.19,1.02,-0.01,0.12,0.39,
0.038,0.04,0.19,1.02,-0.04,0.09,0.39,
0.04,0.05,0.19,1.02,-0.04,0.09,0.39,
0.043,0.04,0.19,1.03,-0.04,0.09,0.39,
0.043,0.04,0.19,1.03,-0.09,0.10,0.41,
0.045,0.03,0.19,1.02,-0.09,0.10,0.41,
0.047,0.04,0.19,1.02,-0.09,0.10,0.41,
0.048,0.04,0.19,1.02,-0.10,0.11,0.42,
0.05,0.03,0.19,1.01,-0.10,0.11,0.42,
0.052,0.02,0.19,1.01,-0.10,0.11,0.42,
0.053,0.02,0.19,1.01,-0.15,0.12,0.36,
0.055,0.03,0.19,1.01,-0.15,0.12,0.36,
0.057,0.03,0.18,1.00,-0.15,0.12,0.36,
0.057,0.03,0.18,1.00,-0.21,0.12,0.30,
0.06,0.03,0.17,0.99,-0.21,0.12,0.30,
0.062,0.03,0.16,0.99,-0.21,0.12,0.30,
0.062,0.03,0.16,0.99,-0.18,0.06,0.22,
0.065,0.04,0.16,0.98,-0.18,0.06,0.22,
0.067,0.04,0.16,0.98,-0.18,0.06,0.22,
0.067,0.04,0.16,0.98,-0.13,-0.07,0.07,
0.07,0.04,0.15,0.97,-0.13,-0.07,0.07,
0.072,0.05,0.15,0.96,-0.13,-0.07,0.07,
0.072,0.05,0.15,0.96,-0.06,-0.17,-0.06,
0.075,0.06,0.15,0.95,-0.06,-0.17,-0.06,
0.077,0.06,0.16,0.95,-0.06,-0.17,-0.06,
0.077,0.06,0.16,0.95,0.02,-0.21,-0.20,
0.08,0.06,0.15,0.96,0.02,-0.21,-0.20,
0.083,0.06,0.15,0.96,0.02,-0.21,-0.20,
0.083,0.06,0.15,0.96,0.14,-0.20,-0.31,
0.085,0.06,0.16,0.97,0.14,-0.20,-0.31,
0.087,0.06,0.16,0.97,0.14,-0.20,-0.31,
0.087,0.06,0.16,0.97,0.20,-0.19,-0.25,
0.09,0.06,0.16,0.98,0.20,-0.19,-0.25,
0.092,0.06,0.17,0.97,0.20,-0.19,-0.25,
0.092,0.06,0.17,0.97,0.16,-0.13,-0.15,
0.095,0.06,0.17,0.98,0.16,-0.13,-0.15,
0.097,0.05,0.17,1.00,0.16,-0.13,-0.15,
0.097,0.05,0.17,1.00,0.13,-0.05,-0.09,
0.1,0.05,0.18,0.99,0.13,-0.05,-0.09,
0.102,0.06,0.18,0.99,0.13,-0.05,-0.09,
0.102,0.06,0.18,0.99,0.12,0.02,0.05,
0.104,0.05,0.18,1.00,0.12,0.02,0.05,
0.107,0.05,0.18,1.00,0.12,0.02,0.05,
0.107,0.05,0.18,1.00,0.12,0.07,0.08,
0.109,0.05,0.18,1.00,0.12,0.07,0.08,
0.112,0.05,0.19,1.01,0.12,0.07,0.08,
0.112,0.05,0.19,1.01,0.11,0.14,0.18,
0.115,0.06,0.20,1.01,0.11,0.14,0.18,
0.117,0.06,0.20,1.01,0.11,0.14,0.18,
0.117,0.06,0.20,1.01,0.13,0.18,0.20,
0.119,0.06,0.20,1.01,0.13,0.18,0.20,
0.122,0.06,0.20,1.01,0.13,0.18,0.20,
0.123,0.06,0.20,1.01,0.20,0.27,0.20,
0.125,0.06,0.20,1.01,0.20,0.27,0.20,
0.128,0.06,0.21,1.01,0.20,0.27,0.20,
0.128,0.06,0.21,1.01,0.21,0.32,0.25,
0.13,0.05,0.21,1.02,0.21,0.32,0.25,
0.134,0.05,0.21,1.02,0.21,0.32,0.25,
0.134,0.05,0.21,1.02,0.20,0.36,0.27,
0.135,0.05,0.20,1.02,0.20,0.36,0.27,
0.137,0.05,0.20,1.01,0.20,0.36,0.27,
0.137,0.05,0.20,1.01,0.17,0.39,0.31,
0.14,0.06,0.20,1.01,0.17,0.39,0.31,
0.142,0.05,0.20,1.01,0.17,0.39,0.31,
0.142,0.05,0.20,1.01,0.19,0.35,0.28,
0.144,0.06,0.20,1.01,0.19,0.35,0.28,
0.147,0.05,0.19,1.01,0.19,0.35,0.28,
0.147,0.05,0.19,1.01,0.23,0.30,0.22,
0.15,0.05,0.19,1.01,0.23,0.30,0.22,
0.152,0.06,0.19,1.01,0.23,0.30,0.22,
0.152,0.06,0.19,1.01,0.22,0.24,0.23,
0.154,0.06,0.19,1.01,0.22,0.24,0.23,
0.158,0.05,0.18,1.01,0.22,0.24,0.23,
0.158,0.05,0.18,1.01,0.21,0.21,0.23,
0.159,0.04,0.19,1.01,0.21,0.21,0.23,
0.162,0.05,0.19,1.00,0.21,0.21,0.23,
0.164,0.05,0.19,1.00,0.23,0.16,0.17,
0.164,0.05,0.18,0.99,0.23,0.16,0.17,
0.167,0.04,0.18,0.99,0.23,0.16,0.17,
0.167,0.04,0.18,0.99,0.18,0.17,0.15,
0.169,0.04,0.18,1.00,0.18,0.17,0.15,
0.171,0.04,0.19,1.00,0.18,0.17,0.15,
0.172,0.04,0.19,1.00,0.18,0.14,0.05,
0.174,0.03,0.19,1.00,0.18,0.14,0.05,
0.176,0.04,0.19,0.99,0.18,0.14,0.05,
0.177,0.04,0.19,0.99,0.11,0.15,0.11,
0.179,0.04,0.19,0.99,0.11,0.15,0.11,
0.182,0.03,0.19,1.00,0.11,0.15,0.11,
0.183,0.03,0.19,1.00,0.09,0.20,0.08,
0.184,0.04,0.19,0.99,0.09,0.20,0.08,
0.186,0.03,0.19,0.99,0.09,0.20,0.08,
0.187,0.03,0.19,0.99,0.07,0.21,0.08,
0.189,0.03,0.19,0.99,0.07,0.21,0.08,
0.191,0.03,0.19,1.00,0.07,0.21,0.08,
0.191,0.03,0.19,1.00,0.07,0.17,0.05,
0.194,0.03,0.19,1.00,0.07,0.17,0.05,
0.196,0.03,0.19,1.00,0.07,0.17,0.05,
0.196,0.03,0.19,1.00,0.07,0.18,0.05,
0.2,0.03,0.19,1.00,0.07,0.18,0.05,
0.201,0.03,0.19,0.99,0.07,0.18,0.05,
0.201,0.03,0.19,0.99,0.05,0.18,0.09,
0.204,0.03,0.20,0.99,0.05,0.18,0.09,
0.206,0.02,0.19,0.99,0.05,0.18,0.09,
0.206,0.02,0.19,0.99,0.03,0.22,0.04,
0.209,0.02,0.19,0.98,0.03,0.22,0.04,
0.211,0.02,0.19,0.99,0.03,0.22,0.04,
0.211,0.02,0.19,0.99,0.01,0.23,0.05,
0.213,0.02,0.19,0.98,0.01,0.23,0.05,
0.219,0.02,0.19,0.98,0.01,0.23,0.05,
0.219,0.02,0.19,0.98,-0.01,0.21,-0.02,
0.219,0.02,0.19,0.98,-0.01,0.21,-0.02,
0.222,0.02,0.19,0.98,-0.01,0.21,-0.02,
0.222,0.02,0.19,0.98,-0.02,0.20,-0.10,
0.224,0.02,0.19,0.97,-0.02,0.20,-0.10,
0.226,0.02,0.19,0.98,-0.02,0.20,-0.10,
0.226,0.02,0.19,0.98,-0.01,0.17,-0.12,
0.228,0.02,0.19,0.97,-0.01,0.17,-0.12,
0.232,0.02,0.19,0.96,-0.01,0.17,-0.12,
0.232,0.02,0.19,0.96,0.00,0.20,-0.14,
0.234,0.02,0.19,0.97,0.00,0.20,-0.14,
0.236,0.01,0.19,0.96,0.00,0.20,-0.14,
0.236,0.01,0.19,0.96,-0.01,0.16,-0.21,
0.238,0.01,0.19,0.96,-0.01,0.16,-0.21,
0.241,0.01,0.19,0.96,-0.01,0.16,-0.21,
0.241,0.01,0.19,0.96,-0.05,0.16,-0.23,
0.243,0.01,0.19,0.97,-0.05,0.16,-0.23,
0.246,0.01,0.19,0.98,-0.05,0.16,-0.23,
0.246,0.01,0.19,0.98,-0.04,0.16,-0.24,
0.249,0.01,0.19,0.98,-0.04,0.16,-0.24,
0.251,0.01,0.19,0.99,-0.04,0.16,-0.24,
0.252,0.01,0.19,0.99,-0.06,0.16,-0.11,
0.253,0.01,0.19,0.98,-0.06,0.16,-0.11,
0.256,0.02,0.19,0.98,-0.06,0.16,-0.11,
0.256,0.02,0.19,0.98,-0.07,0.15,-0.04,
0.258,0.01,0.19,0.99,-0.07,0.15,-0.04,
0.261,0.01,0.18,1.00,-0.07,0.15,-0.04,
0.261,0.01,0.18,1.00,-0.00,0.13,-0.06,
0.263,0.01,0.18,1.00,-0.00,0.13,-0.06,
0.266,0.01,0.18,1.00,-0.00,0.13,-0.06,
0.267,0.01,0.18,1.00,-0.04,0.09,0.07,
0.268,0.01,0.18,1.00,-0.04,0.09,0.07,
0.27,0.01,0.17,1.01,-0.04,0.09,0.07,
0.271,0.01,0.17,1.01,-0.02,0.05,0.10,
0.273,0.01,0.17,1.01,-0.02,0.05,0.10,
0.275,0.01,0.17,1.01,-0.03,0.01,0.15,
0.276,0.01,0.17,1.00,-0.03,0.01,0.15,
0.278,0.01,0.17,1.00,-0.03,0.01,0.15,
0.28,0.02,0.17,1.00,-0.03,0.01,0.15,
0.282,0.02,0.17,1.00,-0.01,-0.03,0.17,
0.284,0.02,0.16,1.00,-0.01,-0.03,0.17,
0.285,0.02,0.16,1.00,0.02,-0.05,0.14,
0.286,0.02,0.16,1.00,0.02,-0.05,0.14,
0.288,0.02,0.16,1.00,0.02,-0.05,0.14,
0.29,0.02,0.16,1.00,0.02,-0.05,0.14,
0.29,0.02,0.16,1.00,0.11,-0.09,0.14,
0.293,0.02,0.16,0.99,0.11,-0.09,0.14,
0.295,0.02,0.16,0.99,0.11,-0.09,0.14,
0.295,0.02,0.16,0.99,0.10,-0.10,0.09,
0.299,0.02,0.16,0.98,0.10,-0.10,0.09,
0.3,0.03,0.16,0.98,0.10,-0.10,0.09,
0.3,0.03,0.16,0.98,0.12,-0.11,-0.01,
0.303,0.02,0.16,0.98,0.12,-0.11,-0.01,
0.305,0.03,0.16,0.97,0.12,-0.11,-0.01,
0.305,0.03,0.16,0.97,0.14,-0.12,-0.10,
0.308,0.02,0.16,0.96,0.14,-0.12,-0.10,
0.311,0.02,0.16,0.95,0.14,-0.12,-0.10,
0.311,0.02,0.16,0.95,0.16,-0.12,-0.15,
0.313,0.02,0.16,0.95,0.16,-0.12,-0.15,
0.316,0.02,0.16,0.95,0.16,-0.12,-0.15,
0.316,0.02,0.16,0.95,0.14,-0.15,-0.28,
0.318,0.02,0.16,0.94,0.14,-0.15,-0.28,
0.32,0.02,0.16,0.92,0.14,-0.15,-0.28,
0.321,0.02,0.16,0.92,0.14,-0.15,-0.39,
0.323,0.02,0.16,0.93,0.14,-0.15,-0.39,
0.325,0.03,0.16,0.92,0.14,-0.15,-0.39,
0.325,0.03,0.16,0.92,0.17,-0.16,-0.55,
0.327,0.02,0.15,0.91,0.17,-0.16,-0.55,
0.33,0.03,0.16,0.90,0.17,-0.16,-0.55,
0.33,0.03,0.16,0.90,0.19,-0.21,-0.60,
0.336,0.03,0.16,0.90,0.19,-0.21,-0.60,
0.337,0.03,0.16,0.90,0.19,-0.21,-0.60,
0.337,0.03,0.16,0.90,0.20,-0.25,-0.77,
0.341,0.02,0.15,0.89,0.20,-0.25,-0.77,
0.341,0.02,0.15,0.88,0.20,-0.25,-0.77,
0.342,0.02,0.15,0.88,0.21,-0.25,-0.84,
0.342,0.02,0.14,0.88,0.21,-0.25,-0.84,
0.345,0.01,0.14,0.87,0.21,-0.25,-0.84,
0.346,0.01,0.14,0.87,0.19,-0.33,-0.97,
0.347,0.01,0.14,0.87,0.19,-0.33,-0.97,
0.351,0.01,0.14,0.87,0.12,-0.40,-1.07,
0.351,0.01,0.14,0.86,0.12,-0.40,-1.07,
0.353,0.00,0.14,0.85,0.12,-0.40,-1.07,
0.355,0.00,0.13,0.85,0.12,-0.40,-1.07,
0.355,0.00,0.13,0.85,0.07,-0.44,-1.12,
0.358,0.00,0.13,0.84,0.07,-0.44,-1.12,
0.36,0.00,0.13,0.84,-0.00,-0.50,-1.27,
0.361,-0.00,0.12,0.83,-0.00,-0.50,-1.27,
0.363,-0.00,0.13,0.83,-0.00,-0.50,-1.27,
0.366,-0.00,0.12,0.83,-0.00,-0.50,-1.27,
0.367,-0.00,0.12,0.83,-0.02,-0.58,-1.37,
0.367,-0.01,0.12,0.82,-0.02,-0.58,-1.37,
0.37,-0.02,0.11,0.82,-0.02,-0.58,-1.37,
0.37,-0.02,0.11,0.82,-0.04,-0.60,-1.44,
0.372,-0.02,0.11,0.81,-0.04,-0.60,-1.44,
0.375,-0.03,0.11,0.81,-0.04,-0.60,-1.44,
0.376,-0.03,0.11,0.81,-0.15,-0.68,-1.53,
0.378,-0.03,0.11,0.80,-0.15,-0.68,-1.53,
0.38,-0.03,0.10,0.79,-0.15,-0.68,-1.53,
0.38,-0.03,0.10,0.79,-0.21,-0.73,-1.63,
0.383,-0.03,0.11,0.78,-0.21,-0.73,-1.63,
0.385,-0.03,0.11,0.78,-0.27,-0.77,-1.71,
0.386,-0.03,0.10,0.78,-0.27,-0.77,-1.71,
0.387,-0.03,0.10,0.77,-0.27,-0.77,-1.71,
0.39,-0.03,0.10,0.77,-0.27,-0.78,-1.83,
0.39,-0.04,0.11,0.77,-0.27,-0.78,-1.83,
0.393,-0.03,0.10,0.77,-0.27,-0.78,-1.83,
0.395,-0.03,0.10,0.76,-0.27,-0.78,-1.83,
0.395,-0.03,0.10,0.76,-0.27,-0.77,-1.95,
0.397,-0.04,0.11,0.76,-0.27,-0.77,-1.95,
0.399,-0.03,0.10,0.76,-0.27,-0.77,-1.95,
0.4,-0.03,0.10,0.76,-0.26,-0.80,-1.99,
0.402,-0.03,0.10,0.75,-0.26,-0.80,-1.99,
0.405,-0.03,0.09,0.75,-0.26,-0.80,-1.99,
0.405,-0.03,0.09,0.75,-0.27,-0.81,-2.03,
0.408,-0.03,0.09,0.75,-0.27,-0.81,-2.03,
0.41,-0.03,0.09,0.75,-0.21,-0.86,-2.12,
0.41,-0.03,0.09,0.74,-0.21,-0.86,-2.12,
0.412,-0.03,0.09,0.74,-0.21,-0.86,-2.12,
0.415,-0.02,0.09,0.74,-0.21,-0.86,-2.12,
0.415,-0.02,0.09,0.74,-0.16,-0.92,-2.13,
0.417,-0.02,0.09,0.73,-0.16,-0.92,-2.13,
0.419,-0.01,0.08,0.73,-0.16,-0.92,-2.13,
0.42,-0.01,0.08,0.73,-0.12,-0.94,-2.17,
0.423,-0.01,0.08,0.73,-0.12,-0.94,-2.17,
0.425,-0.01,0.08,0.73,-0.12,-0.94,-2.17,
0.425,-0.01,0.08,0.73,-0.04,-0.96,-2.24,
0.427,-0.00,0.08,0.73,-0.04,-0.96,-2.24,
0.43,0.00,0.07,0.73,-0.04,-0.96,-2.24,
0.43,0.00,0.07,0.73,0.06,-1.01,-2.23,
0.432,0.00,0.08,0.74,0.06,-1.01,-2.23,
0.438,0.00,0.07,0.73,0.06,-1.01,-2.23,
0.438,0.00,0.07,0.73,0.13,-1.05,-2.22,
0.438,0.01,0.06,0.73,0.13,-1.05,-2.22,
0.439,0.01,0.06,0.73,0.13,-1.05,-2.22,
0.439,0.01,0.06,0.73,0.17,-1.07,-2.17,
0.441,0.01,0.06,0.72,0.17,-1.07,-2.17,
0.444,0.02,0.07,0.72,0.17,-1.07,-2.17,
0.444,0.02,0.07,0.72,0.22,-1.15,-2.23,
0.447,0.02,0.06,0.71,0.22,-1.15,-2.23,
0.451,0.02,0.06,0.71,0.22,-1.15,-2.23,
0.451,0.02,0.06,0.71,0.30,-1.13,-2.32,
0.451,0.02,0.07,0.71,0.30,-1.13,-2.32,
0.454,0.01,0.06,0.71,0.30,-1.13,-2.32,
0.454,0.01,0.06,0.71,0.31,-1.15,-2.37,
0.457,0.02,0.07,0.70,0.31,-1.15,-2.37,
0.459,0.02,0.07,0.70,0.30,-1.12,-2.39,
0.459,0.01,0.07,0.70,0.30,-1.12,-2.39,
0.462,0.02,0.07,0.70,0.30,-1.12,-2.39,
0.463,0.02,0.08,0.69,0.30,-1.12,-2.39,
0.464,0.02,0.08,0.69,0.30,-1.08,-2.47,
0.468,0.02,0.08,0.69,0.30,-1.08,-2.47,
0.469,0.02,0.09,0.69,0.30,-1.08,-2.47,
0.469,0.02,0.09,0.69,0.30,-1.03,-2.48,
0.471,0.02,0.09,0.69,0.30,-1.03,-2.48,
0.474,0.02,0.10,0.69,0.30,-1.03,-2.48,
0.474,0.02,0.10,0.69,0.30,-0.94,-2.55,
0.476,0.02,0.11,0.70,0.30,-0.94,-2.55,
0.478,0.02,0.11,0.70,0.30,-0.94,-2.55,
0.479,0.02,0.11,0.70,0.32,-0.80,-2.51,
0.481,0.02,0.11,0.70,0.32,-0.80,-2.51,
0.484,0.02,0.12,0.71,0.32,-0.80,-2.51,
0.484,0.02,0.12,0.71,0.35,-0.69,-2.43,
0.486,0.01,0.13,0.72,0.35,-0.69,-2.43,
0.489,0.01,0.13,0.72,0.35,-0.69,-2.43,
0.489,0.01,0.13,0.72,0.32,-0.63,-2.34,
0.491,0.01,0.13,0.73,0.32,-0.63,-2.34,
0.493,0.01,0.13,0.73,0.32,-0.63,-2.34,
0.494,0.01,0.13,0.73,0.24,-0.51,-2.21,
0.496,0.01,0.13,0.74,0.24,-0.51,-2.21,
0.499,0.01,0.13,0.74,0.24,-0.51,-2.21,
0.5,0.01,0.13,0.74,0.24,-0.49,-2.10,
0.501,0.01,0.13,0.74,0.24,-0.49,-2.10,
0.505,0.02,0.13,0.74,0.24,-0.49,-2.10,
0.505,0.02,0.13,0.74,0.24,-0.47,-2.01,
0.506,0.02,0.12,0.74,0.24,-0.47,-2.01,
0.509,0.03,0.12,0.75,0.24,-0.47,-2.01,
0.51,0.03,0.12,0.75,0.30,-0.47,-1.98,
0.51,0.03,0.12,0.75,0.30,-0.47,-1.98,
0.513,0.04,0.12,0.75,0.30,-0.47,-1.98,
0.514,0.04,0.12,0.75,0.35,-0.54,-1.91,
0.516,0.05,0.11,0.76,0.35,-0.54,-1.91,
0.518,0.06,0.11,0.76,0.35,-0.54,-1.91,
0.518,0.06,0.11,0.76,0.46,-0.58,-1.86,
0.52,0.06,0.10,0.76,0.46,-0.58,-1.86,
0.524,0.07,0.11,0.76,0.46,-0.58,-1.86,
0.524,0.07,0.11,0.76,0.63,-0.64,-1.79,
0.525,0.07,0.10,0.76,0.63,-0.64,-1.79,
0.528,0.09,0.10,0.77,0.63,-0.64,-1.79,
0.529,0.09,0.10,0.77,0.75,-0.66,-1.78,
0.53,0.09,0.10,0.78,0.75,-0.66,-1.78,
0.538,0.10,0.11,0.77,0.75,-0.66,-1.78,
0.539,0.10,0.11,0.77,0.84,-0.67,-1.66,
0.539,0.10,0.10,0.78,0.84,-0.67,-1.66,
0.539,0.11,0.10,0.78,0.84,-0.67,-1.66,
0.539,0.11,0.10,0.78,0.98,-0.62,-1.58,
0.541,0.11,0.10,0.79,0.98,-0.62,-1.58,
0.543,0.11,0.11,0.79,0.98,-0.62,-1.58,
0.543,0.11,0.11,0.79,1.04,-0.64,-1.53,
0.545,0.11,0.11,0.80,1.04,-0.64,-1.53,
0.548,0.11,0.12,0.81,1.04,-0.64,-1.53,
0.55,0.11,0.12,0.81,1.10,-0.57,-1.44,
0.55,0.11,0.12,0.82,1.10,-0.57,-1.44,
0.553,0.11,0.13,0.83,1.10,-0.57,-1.44,
0.553,0.11,0.13,0.83,1.10,-0.49,-1.26,
0.555,0.12,0.13,0.82,1.10,-0.49,-1.26,
0.558,0.12,0.13,0.82,1.10,-0.40,-1.12,
0.558,0.11,0.13,0.82,1.10,-0.40,-1.12,
0.56,0.11,0.13,0.84,1.10,-0.40,-1.12,
0.563,0.11,0.14,0.84,1.10,-0.40,-1.12,
0.563,0.11,0.14,0.84,1.10,-0.33,-1.10,
0.566,0.11,0.14,0.84,1.10,-0.33,-1.10,
0.567,0.12,0.14,0.84,1.10,-0.33,-1.10,
0.568,0.12,0.14,0.84,1.06,-0.26,-0.97,
0.57,0.12,0.14,0.84,1.06,-0.26,-0.97,
0.573,0.12,0.14,0.84,1.06,-0.26,-0.97,
0.573,0.12,0.14,0.84,1.06,-0.20,-0.92,
0.575,0.11,0.15,0.84,1.06,-0.20,-0.92,
0.577,0.11,0.14,0.84,1.06,-0.20,-0.92,
0.578,0.11,0.14,0.84,1.09,-0.18,-0.91,
0.58,0.11,0.15,0.84,1.09,-0.18,-0.91,
0.585,0.11,0.15,0.84,1.05,-0.14,-0.90,
0.585,0.11,0.14,0.84,1.05,-0.14,-0.90,
0.586,0.10,0.15,0.84,1.05,-0.14,-0.90,
0.588,0.10,0.15,0.84,0.99,-0.16,-0.96,
0.589,0.09,0.16,0.84,0.99,-0.16,-0.96,
0.591,0.09,0.15,0.84,0.99,-0.16,-0.96,
0.592,0.08,0.15,0.84,0.99,-0.16,-0.96,
0.593,0.08,0.15,0.84,0.88,-0.06,-0.93,
0.595,0.08,0.16,0.84,0.88,-0.06,-0.93,
0.597,0.07,0.16,0.84,0.88,-0.06,-0.93,
0.597,0.07,0.16,0.84,0.76,-0.05,-0.92,
0.601,0.07,0.16,0.84,0.76,-0.05,-0.92,
0.604,0.08,0.15,0.83,0.76,-0.05,-0.92,
0.604,0.08,0.15,0.83,0.66,-0.04,-0.92,
0.605,0.08,0.16,0.83,0.66,-0.04,-0.92,
0.607,0.08,0.16,0.83,0.62,-0.05,-0.96,
0.608,0.08,0.16,0.82,0.62,-0.05,-0.96,
0.61,0.08,0.16,0.82,0.62,-0.05,-0.96,
0.613,0.09,0.16,0.82,0.62,-0.05,-0.96,
0.613,0.09,0.16,0.82,0.62,-0.02,-1.05,
0.614,0.09,0.16,0.83,0.62,-0.02,-1.05,
0.618,0.09,0.17,0.83,0.62,-0.02,-1.05,
0.618,0.09,0.17,0.83,0.71,-0.01,-1.09,
0.619,0.09,0.17,0.83,0.71,-0.01,-1.09,
0.622,0.09,0.18,0.84,0.71,-0.01,-1.09,
0.622,0.09,0.18,0.84,0.74,0.04,-1.01,
0.625,0.09,0.18,0.84,0.74,0.04,-1.01,
0.627,0.08,0.18,0.85,0.74,0.04,-1.01,
0.627,0.08,0.18,0.85,0.71,0.13,-0.92,
0.629,0.09,0.19,0.85,0.71,0.13,-0.92,
0.632,0.09,0.18,0.86,0.71,0.13,-0.92,
0.632,0.09,0.18,0.86,0.64,0.23,-0.84,
0.639,0.09,0.18,0.87,0.64,0.23,-0.84,
0.64,0.09,0.19,0.87,0.64,0.23,-0.84,
0.64,0.09,0.19,0.87,0.61,0.24,-0.70,
0.64,0.10,0.19,0.87,0.61,0.24,-0.70,
0.642,0.11,0.19,0.89,0.61,0.24,-0.70,
0.642,0.11,0.19,0.89,0.64,0.26,-0.60,
0.644,0.12,0.19,0.89,0.64,0.26,-0.60,
0.647,0.12,0.19,0.90,0.64,0.26,-0.60,
0.647,0.12,0.19,0.90,0.71,0.33,-0.48,
0.651,0.13,0.18,0.91,0.71,0.33,-0.48,
0.652,0.14,0.18,0.91,0.71,0.33,-0.48,
0.653,0.14,0.18,0.91,0.82,0.30,-0.32,
0.654,0.15,0.18,0.91,0.82,0.30,-0.32,
0.657,0.15,0.18,0.91,0.97,0.23,-0.24,
0.661,0.16,0.18,0.91,0.97,0.23,-0.24,
0.661,0.17,0.17,0.91,0.97,0.23,-0.24,
0.662,0.18,0.17,0.92,0.97,0.23,-0.24,
0.663,0.18,0.17,0.92,1.13,0.22,-0.17,
0.665,0.18,0.17,0.92,1.13,0.22,-0.17,
0.667,0.19,0.17,0.92,1.13,0.22,-0.17,
0.667,0.19,0.17,0.92,1.25,0.18,-0.11,
0.67,0.19,0.17,0.92,1.25,0.18,-0.11,
0.672,0.19,0.17,0.92,1.25,0.18,-0.11,
0.672,0.19,0.17,0.92,1.34,0.19,-0.09,
0.675,0.19,0.18,0.92,1.34,0.19,-0.09,
0.677,0.19,0.19,0.93,1.34,0.19,-0.09,
0.677,0.19,0.19,0.93,1.35,0.26,-0.11,
0.68,0.19,0.19,0.93,1.35,0.26,-0.11,
0.682,0.18,0.19,0.93,1.35,0.26,-0.11,
0.682,0.18,0.19,0.93,1.34,0.39,-0.06,
0.684,0.17,0.20,0.93,1.34,0.39,-0.06,
0.687,0.17,0.20,0.94,1.34,0.39,-0.06,
0.688,0.17,0.20,0.94,1.23,0.52,-0.02,
0.689,0.16,0.20,0.94,1.23,0.52,-0.02,
0.692,0.14,0.20,0.95,1.23,0.52,-0.02,
0.692,0.14,0.20,0.95,1.09,0.61,0.05,
0.695,0.13,0.19,0.95,1.09,0.61,0.05,
0.697,0.12,0.19,0.96,1.09,0.61,0.05,
0.697,0.12,0.19,0.96,0.88,0.65,0.16,
0.699,0.11,0.19,0.96,0.88,0.65,0.16,
0.701,0.10,0.18,0.97,0.88,0.65,0.16,
0.702,0.10,0.18,0.97,0.66,0.65,0.20,
0.704,0.10,0.17,0.98,0.66,0.65,0.20,
0.707,0.10,0.17,0.98,0.48,0.57,0.31,
0.707,0.08,0.17,0.98,0.48,0.57,0.31,
0.709,0.07,0.17,0.98,0.48,0.57,0.31,
0.712,0.07,0.16,0.99,0.48,0.57,0.31,
0.712,0.07,0.16,0.99,0.31,0.50,0.45,
0.713,0.06,0.15,0.99,0.31,0.50,0.45,
0.716,0.05,0.15,1.00,0.31,0.50,0.45,
0.717,0.05,0.15,1.00,0.12,0.50,0.49,
0.719,0.05,0.14,1.00,0.12,0.50,0.49,
0.721,0.05,0.13,1.01,0.12,0.50,0.49,
0.722,0.05,0.13,1.01,-0.03,0.41,0.58,
0.724,0.05,0.12,1.01,-0.03,0.41,0.58,
0.727,0.04,0.12,1.02,-0.03,0.41,0.58,
0.727,0.04,0.12,1.02,-0.09,0.32,0.65,
0.729,0.05,0.11,1.02,-0.09,0.32,0.65,
0.732,0.05,0.11,1.02,-0.13,0.23,0.75,
0.732,0.04,0.10,1.03,-0.13,0.23,0.75,
0.737,0.04,0.09,1.03,-0.13,0.23,0.75,
0.737,0.05,0.09,1.04,-0.13,0.23,0.75,
0.738,0.05,0.09,1.04,-0.14,0.16,0.85,
0.738,0.05,0.08,1.05,-0.14,0.16,0.85,
0.741,0.05,0.08,1.05,-0.15,0.04,0.96,
0.741,0.05,0.08,1.04,-0.15,0.04,0.96,
0.744,0.05,0.07,1.05,-0.15,0.04,0.96,
0.746,0.05,0.08,1.07,-0.15,0.04,0.96,
0.747,0.05,0.08,1.07,-0.13,-0.01,1.02,
0.749,0.06,0.07,1.07,-0.13,-0.01,1.02,
0.751,0.06,0.07,1.07,-0.13,-0.01,1.02,
0.751,0.06,0.07,1.07,-0.12,-0.02,1.16,
0.753,0.06,0.07,1.08,-0.12,-0.02,1.16,
0.756,0.06,0.07,1.08,-0.08,-0.02,1.28,
0.756,0.07,0.07,1.08,-0.08,-0.02,1.28,
0.759,0.07,0.07,1.08,-0.08,-0.02,1.28,
0.761,0.07,0.07,1.08,-0.08,-0.02,1.28,
0.761,0.07,0.07,1.08,0.00,0.01,1.35,
0.764,0.07,0.07,1.09,0.00,0.01,1.35,
0.766,0.08,0.08,1.10,0.00,0.01,1.35,
0.766,0.08,0.08,1.10,0.04,0.07,1.33,
0.769,0.08,0.07,1.09,0.04,0.07,1.33,
0.771,0.09,0.08,1.10,0.04,0.07,1.33,
0.771,0.09,0.08,1.10,0.06,0.11,1.47,
0.774,0.09,0.08,1.11,0.06,0.11,1.47,
0.776,0.09,0.08,1.11,0.06,0.11,1.47,
0.777,0.09,0.08,1.11,0.12,0.16,1.49,
0.779,0.10,0.08,1.11,0.12,0.16,1.49,
0.78,0.10,0.08,1.11,0.12,0.16,1.49,
0.781,0.10,0.08,1.11,0.18,0.21,1.58,
0.784,0.10,0.09,1.11,0.18,0.21,1.58,
0.786,0.10,0.09,1.12,0.18,0.21,1.58,
0.786,0.10,0.09,1.12,0.22,0.26,1.61,
0.788,0.09,0.09,1.12,0.22,0.26,1.61,
0.791,0.09,0.09,1.12,0.22,0.26,1.61,
0.791,0.09,0.09,1.12,0.20,0.37,1.64,
0.794,0.09,0.09,1.12,0.20,0.37,1.64,
0.795,0.09,0.09,1.12,0.20,0.37,1.64,
0.795,0.09,0.09,1.12,0.12,0.37,1.73,
0.798,0.09,0.09,1.12,0.12,0.37,1.73,
0.804,0.09,0.09,1.13,0.12,0.37,1.73,
0.805,0.09,0.09,1.13,0.06,0.42,1.69,
0.805,0.08,0.09,1.12,0.06,0.42,1.69,
0.805,0.09,0.09,1.12,0.06,0.42,1.69,
0.805,0.09,0.09,1.12,0.07,0.45,1.71,
0.808,0.09,0.09,1.12,0.07,0.45,1.71,
0.811,0.08,0.09,1.12,0.07,0.45,1.71,
0.811,0.08,0.09,1.12,0.01,0.47,1.70,
0.813,0.09,0.09,1.12,0.01,0.47,1.70,
0.818,0.09,0.09,1.12,0.01,0.47,1.70,
0.818,0.09,0.09,1.12,-0.01,0.49,1.67,
0.82,0.09,0.09,1.12,-0.01,0.49,1.67,
0.823,0.10,0.08,1.11,-0.01,0.49,1.67,
0.824,0.10,0.08,1.11,-0.03,0.46,1.64,
0.827,0.10,0.07,1.11,-0.03,0.46,1.64,
0.827,0.10,0.07,1.12,-0.03,0.46,1.64,
0.827,0.10,0.07,1.12,0.03,0.44,1.62,
0.828,0.11,0.06,1.11,0.03,0.44,1.62,
0.83,0.11,0.06,1.10,0.03,0.44,1.62,
0.83,0.11,0.06,1.10,0.09,0.33,1.60,
0.833,0.11,0.06,1.10,0.09,0.33,1.60,
0.837,0.12,0.06,1.10,0.09,0.33,1.60,
0.838,0.12,0.06,1.10,0.15,0.25,1.51,
0.838,0.12,0.06,1.10,0.15,0.25,1.51,
0.84,0.13,0.05,1.09,0.15,0.25,1.51,
0.841,0.13,0.05,1.09,0.20,0.20,1.48,
0.843,0.13,0.04,1.09,0.20,0.20,1.48,
0.845,0.13,0.05,1.09,0.20,0.20,1.48,
0.846,0.13,0.05,1.09,0.26,0.18,1.42,
0.848,0.13,0.05,1.08,0.26,0.18,1.42,
0.853,0.13,0.05,1.07,0.26,0.18,1.42,
0.853,0.13,0.05,1.07,0.31,0.11,1.32,
0.854,0.13,0.05,1.06,0.31,0.11,1.32,
0.855,0.13,0.05,1.06,0.34,0.16,1.18,
0.855,0.14,0.04,1.06,0.34,0.16,1.18,
0.857,0.14,0.05,1.05,0.34,0.16,1.18,
0.86,0.13,0.05,1.05,0.34,0.16,1.18,
0.86,0.13,0.05,1.05,0.36,0.14,1.04,
0.862,0.13,0.05,1.04,0.36,0.14,1.04,
0.865,0.13,0.05,1.03,0.36,0.14,1.04,
0.865,0.13,0.05,1.03,0.34,0.17,0.93,
0.867,0.12,0.05,1.03,0.34,0.17,0.93,
0.869,0.11,0.05,1.02,0.34,0.17,0.93,
0.871,0.11,0.05,1.02,0.29,0.19,0.82,
0.873,0.11,0.05,1.02,0.29,0.19,0.82,
0.874,0.11,0.05,1.02,0.29,0.19,0.82,
0.875,0.11,0.05,1.02,0.16,0.21,0.69,
0.877,0.10,0.05,1.02,0.16,0.21,0.69,
0.88,0.10,0.05,1.02,0.06,0.26,0.62,
0.88,0.09,0.05,1.03,0.06,0.26,0.62,
0.882,0.08,0.05,1.03,0.06,0.26,0.62,
0.885,0.07,0.05,1.04,0.06,0.26,0.62,
0.885,0.07,0.05,1.04,-0.09,0.28,0.68,
0.888,0.07,0.04,1.05,-0.09,0.28,0.68,
0.889,0.07,0.03,1.06,-0.09,0.28,0.68,
0.89,0.07,0.03,1.06,-0.24,0.29,0.76,
0.893,0.07,0.03,1.06,-0.24,0.29,0.76,
0.895,0.07,0.03,1.06,-0.30,0.24,0.94,
0.895,0.08,0.03,1.08,-0.30,0.24,0.94,
0.897,0.08,0.02,1.09,-0.30,0.24,0.94,
0.9,0.08,0.02,1.10,-0.30,0.24,0.94,
0.9,0.08,0.02,1.10,-0.31,0.20,1.16,
0.902,0.09,0.01,1.11,-0.31,0.20,1.16,
0.904,0.10,0.01,1.12,-0.31,0.20,1.16,
0.905,0.10,0.01,1.12,-0.25,0.12,1.34,
0.907,0.09,0.00,1.13,-0.25,0.12,1.34,
0.91,0.10,-0.00,1.13,-0.25,0.12,1.34,
0.91,0.10,-0.00,1.13,-0.15,0.05,1.57,
0.912,0.10,-0.01,1.14,-0.15,0.05,1.57,
0.915,0.10,-0.01,1.14,-0.15,0.05,1.57,
0.915,0.10,-0.01,1.14,-0.14,0.01,1.71,
0.919,0.10,-0.01,1.15,-0.14,0.01,1.71,
0.92,0.11,-0.01,1.14,-0.14,0.01,1.71,
0.92,0.11,-0.01,1.14,-0.13,-0.01,1.81,
0.922,0.11,-0.01,1.15,-0.13,-0.01,1.81,
0.925,0.11,-0.01,1.14,-0.13,-0.01,1.81,
0.925,0.11,-0.01,1.14,-0.07,-0.04,1.84,
0.927,0.11,-0.01,1.14,-0.07,-0.04,1.84,
0.93,0.11,-0.01,1.14,-0.03,0.00,1.84,
0.93,0.11,-0.01,1.13,-0.03,0.00,1.84,
0.932,0.10,-0.01,1.13,-0.03,0.00,1.84,
0.938,0.10,-0.01,1.12,-0.03,0.00,1.84,
0.939,0.10,-0.01,1.12,-0.05,0.01,1.74,
0.939,0.09,-0.01,1.12,-0.05,0.01,1.74,
0.939,0.09,-0.01,1.12,-0.05,0.01,1.74,
0.939,0.09,-0.01,1.12,-0.13,0.06,1.67,
0.941,0.08,-0.01,1.12,-0.13,0.06,1.67,
0.944,0.07,-0.01,1.11,-0.13,0.06,1.67,
0.944,0.07,-0.01,1.11,-0.25,0.11,1.57,
0.947,0.07,-0.01,1.11,-0.25,0.11,1.57,
0.949,0.06,-0.01,1.12,-0.25,0.11,1.57,
0.95,0.06,-0.01,1.12,-0.38,0.19,1.54,
0.952,0.06,-0.00,1.12,-0.38,0.19,1.54,
0.954,0.06,-0.00,1.13,-0.38,0.19,1.54,
0.954,0.06,-0.00,1.13,-0.50,0.22,1.53,
0.956,0.05,0.00,1.13,-0.50,0.22,1.53,
0.959,0.05,0.00,1.13,-0.50,0.22,1.53,
0.96,0.05,0.00,1.13,-0.56,0.31,1.61,
0.962,0.04,-0.01,1.14,-0.56,0.31,1.61,
0.964,0.04,-0.00,1.14,-0.56,0.31,1.61,
0.965,0.04,-0.00,1.14,-0.68,0.36,1.67,
0.967,0.04,-0.00,1.15,-0.68,0.36,1.67,
0.969,0.04,-0.00,1.15,-0.68,0.36,1.67,
0.97,0.04,-0.00,1.15,-0.78,0.34,1.77,
0.971,0.03,-0.01,1.15,-0.78,0.34,1.77,
0.973,0.03,-0.01,1.16,-0.78,0.34,1.77,
0.974,0.03,-0.01,1.16,-0.84,0.40,1.85,
0.977,0.03,-0.01,1.16,-0.84,0.40,1.85,
0.979,0.03,-0.02,1.16,-0.84,0.40,1.85,
0.979,0.03,-0.02,1.16,-0.91,0.34,1.88,
0.982,0.03,-0.03,1.16,-0.91,0.34,1.88,
0.985,0.03,-0.03,1.16,-0.91,0.34,1.88,
0.986,0.03,-0.03,1.16,-0.95,0.32,1.95,
0.986,0.04,-0.03,1.16,-0.95,0.32,1.95,
0.988,0.03,-0.03,1.16,-0.95,0.32,1.95,
0.989,0.03,-0.03,1.16,-0.95,0.22,1.95,
0.991,0.04,-0.03,1.15,-0.95,0.22,1.95,
0.993,0.04,-0.03,1.15,-0.95,0.22,1.95,
0.994,0.04,-0.03,1.15,-0.95,0.24,1.92,
0.996,0.04,-0.03,1.13,-0.95,0.24,1.92,
0.998,0.05,-0.04,1.13,-0.95,0.24,1.92,
0.999,0.05,-0.04,1.13,-0.88,0.22,1.84,
1.001,0.05,-0.04,1.13,-0.88,0.22,1.84,
1.003,0.05,-0.04,1.12,-0.88,0.22,1.84,
1.004,0.05,-0.04,1.12,-0.85,0.23,1.68,
1.006,0.06,-0.04,1.11,-0.85,0.23,1.68,
1.009,0.06,-0.03,1.11,-0.85,0.23,1.68,
1.009,0.06,-0.03,1.11,-0.81,0.22,1.60,
1.011,0.06,-0.04,1.10,-0.81,0.22,1.60,
1.014,0.06,-0.04,1.09,-0.81,0.22,1.60,
1.014,0.06,-0.04,1.09,-0.73,0.26,1.42,
1.015,0.07,-0.04,1.08,-0.73,0.26,1.42,
1.02,0.07,-0.04,1.08,-0.73,0.26,1.42,
1.02,0.07,-0.04,1.08,-0.71,0.28,1.31,
1.02,0.07,-0.04,1.07,-0.71,0.28,1.31,
1.023,0.07,-0.05,1.06,-0.71,0.28,1.31,
1.023,0.07,-0.05,1.06,-0.63,0.28,1.15,
1.026,0.07,-0.05,1.06,-0.63,0.28,1.15,
1.028,0.07,-0.05,1.06,-0.59,0.23,1.03,
1.028,0.07,-0.05,1.06,-0.59,0.23,1.03,
1.03,0.06,-0.06,1.05,-0.59,0.23,1.03,
1.033,0.05,-0.07,1.06,-0.59,0.23,1.03,
1.033,0.05,-0.07,1.06,-0.61,0.20,0.98,
1.039,0.04,-0.07,1.06,-0.61,0.20,0.98,
1.039,0.04,-0.08,1.06,-0.61,0.20,0.98,
1.039,0.04,-0.08,1.06,-0.72,0.10,0.90,
1.04,0.03,-0.08,1.06,-0.72,0.10,0.90,
1.043,0.01,-0.09,1.06,-0.72,0.10,0.90,
1.043,0.01,-0.09,1.06,-0.90,0.03,0.97,
1.045,0.00,-0.09,1.07,-0.90,0.03,0.97,
1.048,-0.01,-0.09,1.07,-0.90,0.03,0.97,
1.048,-0.01,-0.09,1.07,-1.09,-0.04,0.97,
1.052,-0.01,-0.09,1.07,-1.09,-0.04,0.97,
1.053,-0.03,-0.09,1.07,-1.09,-0.04,0.97,
1.054,-0.03,-0.09,1.07,-1.30,-0.07,1.03,
1.055,-0.04,-0.09,1.08,-1.30,-0.07,1.03,
1.057,-0.04,-0.09,1.08,-1.30,-0.07,1.03,
1.058,-0.04,-0.09,1.08,-1.49,-0.09,1.05,
1.06,-0.04,-0.09,1.08,-1.49,-0.09,1.05,
1.062,-0.04,-0.09,1.09,-1.49,-0.09,1.05,
1.063,-0.04,-0.09,1.09,-1.64,-0.06,1.14,
1.065,-0.05,-0.09,1.09,-1.64,-0.06,1.14,
1.068,-0.04,-0.09,1.08,-1.64,-0.06,1.14,
1.069,-0.04,-0.09,1.08,-1.70,-0.01,1.19,
1.07,-0.04,-0.08,1.08,-1.70,-0.01,1.19,
1.073,-0.04,-0.08,1.08,-1.70,-0.01,1.19,
1.074,-0.04,-0.08,1.08,-1.73,0.01,1.15,
1.075,-0.03,-0.08,1.09,-1.73,0.01,1.15,
1.077,-0.02,-0.08,1.08,-1.73,0.01,1.15,
1.078,-0.02,-0.08,1.08,-1.70,0.09,1.17,
1.081,-0.01,-0.07,1.08,-1.70,0.09,1.17,
1.082,-0.00,-0.07,1.08,-1.70,0.09,1.17,
1.083,-0.00,-0.07,1.08,-1.50,0.15,1.18,
1.085,0.01,-0.07,1.08,-1.50,0.15,1.18,
1.087,0.02,-0.06,1.08,-1.50,0.15,1.18,
1.087,0.02,-0.06,1.08,-1.36,0.24,1.17,
1.09,0.03,-0.06,1.08,-1.36,0.24,1.17,
1.092,0.03,-0.06,1.08,-1.16,0.31,1.17,
1.093,0.04,-0.06,1.08,-1.16,0.31,1.17,
1.095,0.06,-0.06,1.08,-1.16,0.31,1.17,
1.098,0.07,-0.06,1.07,-1.16,0.31,1.17,
1.098,0.07,-0.06,1.07,-0.95,0.36,1.11,
1.1,0.08,-0.07,1.06,-0.95,0.36,1.11,
1.103,0.08,-0.07,1.07,-0.95,0.36,1.11,
1.104,0.08,-0.07,1.07,-0.73,0.36,1.09,
1.104,0.09,-0.07,1.06,-0.73,0.36,1.09,
1.108,0.10,-0.07,1.07,-0.73,0.36,1.09,
1.108,0.10,-0.07,1.07,-0.55,0.32,0.99,
1.109,0.10,-0.07,1.06,-0.55,0.32,0.99,
1.113,0.11,-0.07,1.06,-0.55,0.32,0.99,
1.113,0.11,-0.07,1.06,-0.41,0.33,1.00,
1.114,0.11,-0.07,1.07,-0.41,0.33,1.00,
1.118,0.11,-0.07,1.07,-0.41,0.33,1.00,
1.118,0.11,-0.07,1.07,-0.30,0.31,0.96,
1.12,0.11,-0.07,1.07,-0.30,0.31,0.96,
1.122,0.11,-0.07,1.08,-0.30,0.31,0.96,
1.122,0.11,-0.07,1.08,-0.30,0.32,1.05,
1.124,0.11,-0.08,1.09,-0.30,0.32,1.05,
1.127,0.10,-0.07,1.09,-0.30,0.32,1.05,
1.127,0.10,-0.07,1.09,-0.28,0.36,1.10,
1.129,0.11,-0.07,1.10,-0.28,0.36,1.10,
1.132,0.10,-0.07,1.11,-0.28,0.36,1.10,
1.132,0.10,-0.07,1.11,-0.34,0.36,1.23,
1.139,0.10,-0.07,1.12,-0.34,0.36,1.23,
1.14,0.10,-0.07,1.13,-0.34,0.36,1.23,
1.14,0.10,-0.07,1.13,-0.34,0.39,1.37,
1.14,0.10,-0.08,1.14,-0.34,0.39,1.37,
1.142,0.10,-0.08,1.15,-0.34,0.39,1.37,
1.142,0.10,-0.08,1.15,-0.41,0.41,1.56,
1.144,0.10,-0.08,1.15,-0.41,0.41,1.56,
1.148,0.10,-0.08,1.16,-0.41,0.41,1.56,
1.148,0.10,-0.08,1.16,-0.43,0.37,1.75,
1.149,0.11,-0.09,1.17,-0.43,0.37,1.75,
1.152,0.11,-0.09,1.18,-0.43,0.37,1.75,
1.156,0.11,-0.09,1.18,-0.44,0.33,1.89,
1.157,0.11,-0.10,1.19,-0.44,0.33,1.89,
1.158,0.12,-0.10,1.20,-0.44,0.33,1.89,
1.158,0.12,-0.10,1.20,-0.37,0.25,2.05,
1.159,0.12,-0.10,1.21,-0.37,0.25,2.05,
1.162,0.13,-0.11,1.21,-0.37,0.25,2.05,
1.162,0.13,-0.11,1.21,-0.36,0.21,2.26,
1.164,0.13,-0.10,1.23,-0.36,0.21,2.26,
1.167,0.14,-0.10,1.23,-0.36,0.21,2.26,
1.167,0.14,-0.10,1.23,-0.28,0.16,2.43,
1.169,0.14,-0.11,1.24,-0.28,0.16,2.43,
1.171,0.14,-0.11,1.25,-0.28,0.16,2.43,
1.172,0.14,-0.11,1.25,-0.23,0.18,2.58,
1.174,0.15,-0.11,1.26,-0.23,0.18,2.58,
1.177,0.15,-0.11,1.26,-0.23,0.18,2.58,
1.178,0.15,-0.11,1.26,-0.19,0.13,2.73,
1.179,0.15,-0.11,1.27,-0.19,0.13,2.73,
1.182,0.15,-0.11,1.27,-0.19,0.13,2.73,
1.182,0.15,-0.11,1.27,-0.13,0.15,2.87,
1.184,0.16,-0.11,1.28,-0.13,0.15,2.87,
1.186,0.16,-0.11,1.28,-0.13,0.15,2.87,
1.187,0.16,-0.11,1.28,-0.11,0.15,2.97,
1.189,0.16,-0.11,1.29,-0.11,0.15,2.97,
1.192,0.16,-0.11,1.29,-0.03,0.17,3.07,
1.192,0.17,-0.11,1.29,-0.03,0.17,3.07,
1.194,0.17,-0.11,1.30,-0.03,0.17,3.07,
1.197,0.17,-0.11,1.30,-0.03,0.17,3.07,
1.197,0.17,-0.11,1.30,0.01,0.18,3.14,
1.199,0.18,-0.11,1.30,0.01,0.18,3.14,
1.202,0.18,-0.10,1.31,0.01,0.18,3.14,
1.202,0.18,-0.10,1.31,0.07,0.19,3.28,
1.204,0.19,-0.10,1.31,0.07,0.19,3.28,
1.206,0.19,-0.10,1.32,0.07,0.19,3.28,
1.206,0.19,-0.10,1.32,0.18,0.23,3.29,
1.209,0.20,-0.11,1.31,0.18,0.23,3.29,
1.212,0.21,-0.10,1.32,0.18,0.23,3.29,
1.212,0.21,-0.10,1.32,0.27,0.26,3.35,
1.214,0.21,-0.10,1.32,0.27,0.26,3.35,
1.217,0.22,-0.10,1.31,0.27,0.26,3.35,
1.217,0.22,-0.10,1.31,0.40,0.27,3.38,
1.218,0.22,-0.10,1.31,0.40,0.27,3.38,
1.221,0.23,-0.10,1.31,0.40,0.27,3.38,
1.221,0.23,-0.10,1.31,0.54,0.29,3.37,
1.224,0.23,-0.10,1.31,0.54,0.29,3.37,
1.227,0.23,-0.10,1.31,0.63,0.30,3.32,
1.227,0.23,-0.10,1.31,0.63,0.30,3.32,
1.229,0.23,-0.10,1.30,0.63,0.30,3.32,
1.231,0.23,-0.10,1.30,0.63,0.30,3.32,
1.232,0.23,-0.10,1.30,0.69,0.31,3.26,
1.233,0.23,-0.10,1.30,0.69,0.31,3.26,
1.24,0.23,-0.11,1.30,0.69,0.31,3.26,
1.241,0.23,-0.11,1.30,0.69,0.32,3.18,
1.241,0.22,-0.10,1.30,0.69,0.32,3.18,
1.241,0.22,-0.11,1.30,0.69,0.32,3.18,
1.241,0.22,-0.11,1.30,0.69,0.30,3.19,
1.243,0.21,-0.10,1.30,0.69,0.30,3.19,
1.246,0.20,-0.10,1.30,0.69,0.30,3.19,
1.246,0.20,-0.10,1.30,0.63,0.30,3.16,
1.249,0.20,-0.10,1.29,0.63,0.30,3.16,
1.251,0.19,-0.10,1.30,0.63,0.30,3.16,
1.252,0.19,-0.10,1.30,0.49,0.31,3.14,
1.254,0.19,-0.10,1.30,0.49,0.31,3.14,
1.255,0.19,-0.10,1.30,0.49,0.31,3.14,
1.256,0.19,-0.10,1.30,0.42,0.33,3.10,
1.258,0.19,-0.10,1.30,0.42,0.33,3.10,
1.261,0.19,-0.10,1.29,0.42,0.33,3.10,
1.261,0.19,-0.10,1.29,0.39,0.37,3.15,
1.263,0.20,-0.10,1.30,0.39,0.37,3.15,
1.266,0.20,-0.10,1.30,0.39,0.37,3.15,
1.266,0.20,-0.10,1.30,0.39,0.34,3.08,
1.268,0.21,-0.10,1.30,0.39,0.34,3.08,
1.272,0.21,-0.10,1.29,0.39,0.34,3.08,
1.272,0.21,-0.10,1.29,0.48,0.32,3.09,
1.273,0.21,-0.10,1.29,0.48,0.32,3.09,
1.276,0.21,-0.10,1.29,0.54,0.30,3.06,
1.276,0.22,-0.10,1.30,0.54,0.30,3.06,
1.279,0.23,-0.10,1.29,0.54,0.30,3.06,
1.281,0.24,-0.09,1.28,0.54,0.30,3.06,
1.281,0.24,-0.09,1.28,0.67,0.28,3.03,
1.283,0.24,-0.10,1.28,0.67,0.28,3.03,
1.286,0.24,-0.10,1.28,0.67,0.28,3.03,
1.287,0.24,-0.10,1.28,0.80,0.29,2.95,
1.289,0.24,-0.09,1.28,0.80,0.29,2.95,
1.29,0.25,-0.09,1.28,0.80,0.29,2.95,
1.29,0.25,-0.09,1.28,0.88,0.24,2.91,
1.293,0.25,-0.09,1.28,0.88,0.24,2.91,
1.295,0.25,-0.09,1.28,0.88,0.24,2.91,
1.295,0.25,-0.09,1.28,0.93,0.27,2.88,
1.298,0.25,-0.09,1.27,0.93,0.27,2.88,
1.3,0.25,-0.09,1.27,0.94,0.30,2.86,
1.3,0.25,-0.08,1.27,0.94,0.30,2.86,
1.303,0.24,-0.08,1.27,0.94,0.30,2.86,
1.305,0.24,-0.08,1.27,0.94,0.30,2.86,
1.305,0.24,-0.08,1.27,0.98,0.32,2.76,
1.307,0.24,-0.08,1.27,0.98,0.32,2.76,
1.311,0.23,-0.08,1.26,0.98,0.32,2.76,
1.311,0.23,-0.08,1.26,0.90,0.32,2.73,
1.312,0.23,-0.08,1.26,0.90,0.32,2.73,
1.315,0.23,-0.08,1.26,0.90,0.32,2.73,
1.315,0.23,-0.08,1.26,0.82,0.33,2.67,
1.317,0.22,-0.08,1.26,0.82,0.33,2.67,
1.321,0.22,-0.08,1.26,0.82,0.33,2.67,
1.321,0.22,-0.08,1.26,0.76,0.32,2.63,
1.322,0.22,-0.09,1.26,0.76,0.32,2.63,
1.325,0.22,-0.09,1.26,0.67,0.25,2.64,
1.325,0.22,-0.09,1.26,0.67,0.25,2.64,
1.327,0.21,-0.09,1.26,0.67,0.25,2.64,
1.33,0.21,-0.09,1.26,0.64,0.14,2.62,
1.33,0.20,-0.10,1.25,0.64,0.14,2.62,
1.332,0.21,-0.10,1.25,0.64,0.14,2.62,
1.34,0.21,-0.10,1.25,0.64,0.14,2.62,
1.34,0.21,-0.10,1.25,0.55,0.08,2.54,
1.341,0.20,-0.10,1.25,0.55,0.08,2.54,
1.341,0.20,-0.09,1.24,0.55,0.08,2.54,
1.341,0.20,-0.09,1.24,0.54,0.02,2.49,
1.342,0.20,-0.09,1.24,0.54,0.02,2.49,
1.344,0.19,-0.10,1.23,0.54,0.02,2.49,
1.346,0.19,-0.10,1.23,0.51,0.04,2.43,
1.347,0.20,-0.09,1.22,0.51,0.04,2.43,
1.35,0.20,-0.09,1.22,0.51,0.04,2.43,
1.35,0.20,-0.09,1.22,0.45,-0.00,2.32,
1.353,0.19,-0.09,1.21,0.45,-0.00,2.32,
1.355,0.19,-0.09,1.20,0.45,-0.00,2.32,
1.356,0.19,-0.09,1.20,0.46,0.01,2.16,
1.357,0.19,-0.09,1.19,0.46,0.01,2.16,
1.359,0.20,-0.09,1.19,0.46,0.01,2.16,
1.36,0.20,-0.09,1.19,0.41,0.01,2.01,
1.362,0.19,-0.08,1.18,0.41,0.01,2.01,
1.365,0.20,-0.08,1.17,0.41,0.01,2.01,
1.365,0.20,-0.08,1.17,0.47,-0.02,1.84,
1.367,0.20,-0.08,1.16,0.47,-0.02,1.84,
1.37,0.20,-0.08,1.15,0.47,-0.02,1.84,
1.371,0.20,-0.08,1.15,0.48,-0.00,1.67,
1.372,0.20,-0.08,1.15,0.48,-0.00,1.67,
1.374,0.19,-0.07,1.15,0.48,-0.00,1.67,
1.375,0.19,-0.07,1.15,0.52,0.02,1.52,
1.377,0.19,-0.07,1.15,0.52,0.02,1.52,
1.379,0.18,-0.06,1.14,0.52,0.02,1.52,
1.38,0.18,-0.06,1.14,0.50,0.03,1.41,
1.382,0.18,-0.05,1.14,0.50,0.03,1.41,
1.384,0.18,-0.04,1.14,0.50,0.03,1.41,
1.384,0.18,-0.04,1.14,0.43,0.11,1.37,
1.387,0.18,-0.04,1.14,0.43,0.11,1.37,
1.389,0.17,-0.03,1.14,0.43,0.11,1.37,
1.39,0.17,-0.03,1.14,0.38,0.22,1.30,
1.392,0.17,-0.03,1.13,0.38,0.22,1.30,
1.394,0.18,-0.02,1.13,0.38,0.22,1.30,
1.394,0.18,-0.02,1.13,0.32,0.33,1.32,
1.397,0.17,-0.01,1.12,0.32,0.33,1.32,
1.4,0.17,-0.01,1.11,0.32,0.33,1.32,
1.4,0.17,-0.01,1.11,0.33,0.39,1.24,
1.403,0.17,-0.01,1.12,0.33,0.39,1.24,
1.405,0.18,-0.01,1.11,0.33,0.39,1.24,
1.405,0.18,-0.01,1.11,0.32,0.45,1.10,
1.407,0.17,-0.01,1.10,0.32,0.45,1.10,
1.409,0.17,-0.01,1.09,0.32,0.45,1.10,
1.409,0.17,-0.01,1.09,0.35,0.43,1.02,
1.412,0.18,-0.01,1.08,0.35,0.43,1.02,
1.414,0.17,-0.01,1.07,0.35,0.43,1.02,
1.414,0.17,-0.01,1.07,0.34,0.39,0.86,
1.416,0.17,-0.01,1.06,0.34,0.39,0.86,
1.42,0.17,-0.00,1.05,0.34,0.39,0.86,
1.421,0.17,-0.00,1.05,0.37,0.36,0.67,
1.421,0.17,-0.00,1.05,0.37,0.36,0.67,
1.424,0.17,-0.00,1.05,0.37,0.36,0.67,
1.424,0.17,-0.00,1.05,0.32,0.35,0.47,
1.426,0.16,-0.00,1.04,0.32,0.35,0.47,
1.429,0.15,0.01,1.04,0.32,0.35,0.47,
1.429,0.15,0.01,1.04,0.33,0.35,0.37,
1.432,0.14,0.01,1.04,0.33,0.35,0.37,
1.434,0.13,0.00,1.03,0.33,0.35,0.37,
1.434,0.13,0.00,1.03,0.17,0.36,0.32,
1.437,0.13,0.01,1.04,0.17,0.36,0.32,
1.439,0.12,0.00,1.04,0.17,0.36,0.32,
1.439,0.12,0.00,1.04,0.03,0.34,0.22,
1.441,0.11,0.00,1.03,0.03,0.34,0.22,
1.444,0.11,0.01,1.03,0.03,0.34,0.22,
1.444,0.11,0.01,1.03,-0.10,0.31,0.27,
1.446,0.10,0.01,1.04,-0.10,0.31,0.27,
1.449,0.10,0.00,1.03,-0.10,0.31,0.27,
1.449,0.10,0.00,1.03,-0.19,0.28,0.20,
1.451,0.09,-0.00,1.03,-0.19,0.28,0.20,
1.457,0.09,-0.00,1.03,-0.19,0.28,0.20,
1.457,0.09,-0.00,1.03,-0.32,0.24,0.23,
1.458,0.08,-0.01,1.03,-0.32,0.24,0.23,
1.458,0.08,-0.00,1.02,-0.32,0.24,0.23,
1.459,0.08,-0.00,1.02,-0.40,0.13,0.15,
1.461,0.08,-0.00,1.02,-0.40,0.13,0.15,
1.464,0.08,-0.00,1.02,-0.40,0.13,0.15,
1.464,0.08,-0.00,1.02,-0.46,0.07,0.14,
1.466,0.07,-0.01,1.02,-0.46,0.07,0.14,
1.468,0.07,-0.01,1.02,-0.46,0.07,0.14,
1.471,0.07,-0.01,1.02,-0.51,0.04,0.11,
1.472,0.07,-0.01,1.02,-0.51,0.04,0.11,
1.473,0.07,-0.01,1.02,-0.51,0.04,0.11,
1.474,0.07,-0.01,1.02,-0.56,-0.04,0.09,
1.476,0.07,-0.01,1.02,-0.56,-0.04,0.09,
1.478,0.06,-0.01,1.02,-0.56,-0.04,0.09,
1.478,0.06,-0.01,1.02,-0.60,-0.09,0.10,
1.481,0.06,-0.01,1.02,-0.60,-0.09,0.10,
1.484,0.06,-0.02,1.03,-0.60,-0.09,0.10,
1.484,0.06,-0.02,1.03,-0.65,-0.14,0.11,
1.487,0.06,-0.02,1.03,-0.65,-0.14,0.11,
1.489,0.06,-0.02,1.03,-0.65,-0.14,0.11,
1.489,0.06,-0.02,1.03,-0.69,-0.19,0.13,
1.491,0.06,-0.02,1.03,-0.69,-0.19,0.13,
1.493,0.05,-0.02,1.03,-0.69,-0.19,0.13,
1.495,0.05,-0.02,1.03,-0.69,-0.26,0.20,
1.496,0.05,-0.02,1.03,-0.69,-0.26,0.20,
1.499,0.05,-0.02,1.03,-0.74,-0.33,0.20,
1.499,0.05,-0.03,1.03,-0.74,-0.33,0.20,
1.501,0.04,-0.03,1.04,-0.74,-0.33,0.20,
1.504,0.04,-0.03,1.03,-0.74,-0.33,0.20,
1.504,0.04,-0.03,1.03,-0.79,-0.40,0.19,
1.506,0.03,-0.03,1.02,-0.79,-0.40,0.19,
1.509,0.02,-0.04,1.02,-0.79,-0.40,0.19,
1.509,0.02,-0.04,1.02,-0.85,-0.48,0.21,
1.512,0.02,-0.04,1.02,-0.85,-0.48,0.21,
1.514,0.01,-0.04,1.02,-0.85,-0.48,0.21,
1.514,0.01,-0.04,1.02,-0.97,-0.53,0.11,
1.516,0.01,-0.03,1.01,-0.97,-0.53,0.11,
1.518,-0.00,-0.04,1.01,-0.97,-0.53,0.11,
1.518,-0.00,-0.04,1.01,-1.05,-0.59,0.08,
1.521,-0.00,-0.04,1.01,-1.05,-0.59,0.08,
1.523,-0.01,-0.04,1.01,-1.05,-0.59,0.08,
1.524,-0.01,-0.04,1.01,-1.17,-0.62,0.01,
1.527,-0.02,-0.04,1.00,-1.17,-0.62,0.01,
1.528,-0.03,-0.04,1.00,-1.17,-0.62,0.01,
1.528,-0.03,-0.04,1.00,-1.25,-0.67,-0.03,
1.53,-0.02,-0.04,1.00,-1.25,-0.67,-0.03,
1.533,-0.02,-0.04,0.99,-1.25,-0.67,-0.03,
1.534,-0.02,-0.04,0.99,-1.38,-0.69,-0.11,
1.539,-0.02,-0.04,0.98,-1.38,-0.69,-0.11,
1.539,-0.03,-0.04,0.98,-1.38,-0.69,-0.11,
1.54,-0.03,-0.04,0.98,-1.39,-0.71,-0.21,
1.54,-0.02,-0.03,0.98,-1.39,-0.71,-0.21,
1.543,-0.02,-0.03,0.98,-1.39,-0.71,-0.21,
1.543,-0.02,-0.03,0.98,-1.39,-0.74,-0.28,
1.546,-0.02,-0.03,0.97,-1.39,-0.74,-0.28,
1.548,-0.02,-0.03,0.97,-1.36,-0.69,-0.33,
1.548,-0.02,-0.02,0.98,-1.36,-0.69,-0.33,
1.551,-0.02,-0.02,0.98,-1.36,-0.69,-0.33,
1.553,-0.02,-0.02,0.98,-1.36,-0.69,-0.33,
1.553,-0.02,-0.02,0.98,-1.34,-0.66,-0.37,
1.556,-0.01,-0.01,0.98,-1.34,-0.66,-0.37,
1.557,-0.01,-0.01,0.98,-1.33,-0.64,-0.34,
1.558,-0.01,-0.01,0.98,-1.33,-0.64,-0.34,
1.561,-0.01,-0.01,0.98,-1.33,-0.64,-0.34,
1.563,-0.00,-0.00,0.98,-1.33,-0.64,-0.34,
1.563,-0.00,-0.00,0.98,-1.26,-0.56,-0.31,
1.566,0.00,0.00,0.97,-1.26,-0.56,-0.31,
1.568,0.01,0.01,0.97,-1.26,-0.56,-0.31,
1.568,0.01,0.01,0.97,-1.21,-0.53,-0.34,
1.571,0.01,0.01,0.97,-1.21,-0.53,-0.34,
1.572,0.01,0.01,0.96,-1.21,-0.53,-0.34,
1.573,0.01,0.01,0.96,-1.09,-0.44,-0.39,
1.575,0.02,0.01,0.96,-1.09,-0.44,-0.39,
1.578,0.02,0.01,0.95,-1.09,-0.44,-0.39,
1.578,0.02,0.01,0.95,-1.05,-0.44,-0.47,
1.581,0.03,0.01,0.95,-1.05,-0.44,-0.47,
1.583,0.03,0.01,0.95,-0.95,-0.45,-0.53,
1.583,0.04,0.01,0.96,-0.95,-0.45,-0.53,
1.586,0.04,0.01,0.95,-0.95,-0.45,-0.53,
1.588,0.05,0.01,0.94,-0.95,-0.45,-0.53,
1.589,0.05,0.01,0.94,-0.85,-0.48,-0.55,
1.59,0.05,0.01,0.95,-0.85,-0.48,-0.55,
1.592,0.06,0.01,0.95,-0.85,-0.48,-0.55,
1.593,0.06,0.01,0.95,-0.74,-0.46,-0.63,
1.595,0.06,0.01,0.94,-0.74,-0.46,-0.63,
1.598,0.06,0.01,0.94,-0.64,-0.50,-0.62,
1.598,0.06,0.01,0.93,-0.64,-0.50,-0.62,
1.6,0.06,0.01,0.94,-0.64,-0.50,-0.62,
1.603,0.07,0.01,0.94,-0.64,-0.50,-0.62,
1.603,0.07,0.01,0.94,-0.57,-0.53,-0.71,
1.606,0.07,0.00,0.93,-0.57,-0.53,-0.71,
1.607,0.07,-0.00,0.93,-0.57,-0.53,-0.71,
1.607,0.07,-0.00,0.93,-0.55,-0.59,-0.69,
1.61,0.07,0.00,0.93,-0.55,-0.59,-0.69,
1.613,0.07,-0.00,0.92,-0.55,-0.59,-0.69,
1.613,0.07,-0.00,0.92,-0.51,-0.67,-0.74,
1.615,0.07,-0.00,0.92,-0.51,-0.67,-0.74,
1.618,0.07,-0.00,0.92,-0.51,-0.67,-0.74,
1.618,0.07,-0.00,0.92,-0.51,-0.71,-0.84,
1.621,0.07,-0.01,0.91,-0.51,-0.71,-0.84,
1.622,0.07,-0.01,0.91,-0.51,-0.75,-0.88,
1.622,0.06,-0.01,0.91,-0.51,-0.75,-0.88,
1.625,0.06,-0.01,0.90,-0.51,-0.75,-0.88,
1.628,0.06,-0.01,0.90,-0.51,-0.75,-0.88,
1.628,0.06,-0.01,0.90,-0.53,-0.81,-0.97,
1.63,0.06,-0.01,0.89,-0.53,-0.81,-0.97,
1.633,0.06,-0.01,0.89,-0.53,-0.81,-0.97,
1.633,0.06,-0.01,0.89,-0.53,-0.87,-1.05,
1.635,0.06,-0.01,0.89,-0.53,-0.87,-1.05,
1.642,0.05,-0.00,0.88,-0.53,-0.87,-1.05,
1.642,0.05,-0.00,0.88,-0.55,-0.88,-1.11,
1.642,0.04,-0.00,0.88,-0.55,-0.88,-1.11,
1.643,0.05,0.01,0.87,-0.55,-0.88,-1.11,
1.643,0.05,0.01,0.87,-0.56,-0.86,-1.19,
1.645,0.05,0.01,0.87,-0.56,-0.86,-1.19,
1.647,0.05,0.01,0.87,-0.63,-0.80,-1.26,
1.65,0.04,0.01,0.87,-0.63,-0.80,-1.26,
1.65,0.04,0.02,0.86,-0.63,-0.80,-1.26,
1.653,0.04,0.02,0.86,-0.63,-0.80,-1.26,
1.653,0.04,0.02,0.86,-0.62,-0.74,-1.35,
1.655,0.04,0.03,0.85,-0.62,-0.74,-1.35,
1.657,0.04,0.03,0.86,-0.62,-0.74,-1.35,
1.657,0.04,0.03,0.86,-0.64,-0.67,-1.43,
1.66,0.03,0.03,0.86,-0.64,-0.67,-1.43,
1.662,0.03,0.03,0.86,-0.64,-0.67,-1.43,
1.663,0.03,0.03,0.86,-0.62,-0.60,-1.46,
1.665,0.03,0.04,0.86,-0.62,-0.60,-1.46,
1.667,0.03,0.03,0.87,-0.62,-0.60,-1.46,
1.667,0.03,0.03,0.87,-0.67,-0.60,-1.42,
1.671,0.03,0.04,0.87,-0.67,-0.60,-1.42,
1.672,0.03,0.04,0.87,-0.67,-0.57,-1.37,
1.672,0.03,0.04,0.87,-0.67,-0.57,-1.37,
1.674,0.03,0.05,0.87,-0.67,-0.57,-1.37,
1.677,0.03,0.05,0.87,-0.67,-0.57,-1.37,
1.677,0.03,0.05,0.87,-0.67,-0.55,-1.33,
1.679,0.03,0.05,0.87,-0.67,-0.55,-1.33,
1.682,0.04,0.05,0.86,-0.67,-0.55,-1.33,
1.682,0.04,0.05,0.86,-0.66,-0.49,-1.33,
1.685,0.04,0.05,0.86,-0.66,-0.49,-1.33,
1.688,0.04,0.06,0.86,-0.66,-0.49,-1.33,
1.688,0.04,0.06,0.86,-0.61,-0.46,-1.35,
1.689,0.05,0.06,0.86,-0.61,-0.46,-1.35,
1.692,0.06,0.06,0.85,-0.61,-0.46,-1.35,
1.692,0.06,0.06,0.85,-0.53,-0.47,-1.40,
1.694,0.06,0.06,0.85,-0.53,-0.47,-1.40,
1.697,0.06,0.06,0.85,-0.42,-0.43,-1.46,
1.697,0.07,0.06,0.85,-0.42,-0.43,-1.46,
1.699,0.08,0.06,0.85,-0.42,-0.43,-1.46,
1.702,0.08,0.07,0.85,-0.42,-0.43,-1.46,
1.702,0.08,0.07,0.85,-0.30,-0.40,-1.46,
1.704,0.09,0.07,0.84,-0.30,-0.40,-1.46,
1.707,0.10,0.07,0.83,-0.30,-0.40,-1.46,
1.707,0.10,0.07,0.83,-0.14,-0.41,-1.51,
1.709,0.10,0.08,0.83,-0.14,-0.41,-1.51,
1.712,0.10,0.08,0.83,-0.14,-0.41,-1.51,
1.712,0.10,0.08,0.83,0.02,-0.35,-1.64,
1.713,0.11,0.08,0.82,0.02,-0.35,-1.64,
1.717,0.11,0.08,0.82,0.02,-0.35,-1.64,
1.717,0.11,0.08,0.82,0.11,-0.29,-1.70,
1.719,0.11,0.08,0.82,0.11,-0.29,-1.70,
1.721,0.11,0.08,0.82,0.20,-0.28,-1.78,
1.721,0.11,0.08,0.82,0.20,-0.28,-1.78,
1.724,0.11,0.08,0.83,0.20,-0.28,-1.78,
1.727,0.11,0.08,0.82,0.20,-0.28,-1.78,
1.727,0.11,0.08,0.82,0.24,-0.29,-1.76,
1.729,0.11,0.08,0.82,0.24,-0.29,-1.76,
1.731,0.11,0.08,0.82,0.24,-0.29,-1.76,
1.732,0.11,0.08,0.82,0.24,-0.28,-1.74,
1.734,0.11,0.08,0.82,0.24,-0.28,-1.74,
1.736,0.10,0.07,0.83,0.24,-0.28,-1.74,
1.737,0.10,0.07,0.83,0.28,-0.32,-1.77,
1.739,0.10,0.07,0.83,0.28,-0.32,-1.77,
1.741,0.09,0.07,0.84,0.28,-0.32,-1.77,
1.741,0.09,0.07,0.84,0.19,-0.34,-1.71,
1.743,0.08,0.07,0.84,0.19,-0.34,-1.71,
1.746,0.08,0.07,0.84,0.12,-0.39,-1.59,
1.747,0.07,0.06,0.85,0.12,-0.39,-1.59,
1.749,0.06,0.06,0.86,0.12,-0.39,-1.59,
1.751,0.06,0.05,0.88,0.12,-0.39,-1.59,
1.752,0.06,0.05,0.88,-0.02,-0.41,-1.51,
1.753,0.05,0.05,0.88,-0.02,-0.41,-1.51,
1.759,0.05,0.04,0.88,-0.02,-0.41,-1.51,
1.76,0.05,0.04,0.88,-0.17,-0.53,-1.29,
1.76,0.04,0.03,0.89,-0.17,-0.53,-1.29,
1.763,0.03,0.02,0.90,-0.17,-0.53,-1.29,
1.763,0.03,0.02,0.90,-0.26,-0.59,-1.16,
1.763,0.03,0.02,0.91,-0.26,-0.59,-1.16,
1.766,0.02,0.02,0.92,-0.26,-0.59,-1.16,
1.766,0.02,0.02,0.92,-0.37,-0.75,-1.00,
1.769,0.02,0.02,0.92,-0.37,-0.75,-1.00,
1.772,0.01,0.02,0.93,-0.37,-0.75,-1.00,
1.773,0.01,0.02,0.93,-0.48,-0.81,-0.85,
1.773,0.01,0.01,0.92,-0.48,-0.81,-0.85,
1.776,0.01,0.01,0.93,-0.48,-0.81,-0.85,
1.776,0.01,0.01,0.93,-0.55,-0.80,-0.74,
1.779,0.01,0.01,0.93,-0.55,-0.80,-0.74,
1.781,0.00,0.01,0.92,-0.55,-0.80,-0.74,
1.781,0.00,0.01,0.92,-0.61,-0.86,-0.71,
1.783,0.01,0.01,0.92,-0.61,-0.86,-0.71,
1.786,0.01,0.01,0.92,-0.61,-0.86,-0.71,
1.786,0.01,0.01,0.92,-0.60,-0.89,-0.71,
1.788,0.02,0.01,0.91,-0.60,-0.89,-0.71,
1.79,0.02,0.01,0.90,-0.60,-0.89,-0.71,
1.791,0.02,0.01,0.90,-0.55,-0.88,-0.79,
1.793,0.03,0.02,0.89,-0.55,-0.88,-0.79,
1.795,0.03,0.03,0.88,-0.55,-0.88,-0.79,
1.795,0.03,0.03,0.88,-0.45,-0.86,-0.91,
1.797,0.03,0.02,0.86,-0.45,-0.86,-0.91,
1.8,0.04,0.02,0.85,-0.45,-0.86,-0.91,
1.8,0.04,0.02,0.85,-0.34,-0.73,-1.13,
1.802,0.03,0.03,0.84,-0.34,-0.73,-1.13,
1.805,0.03,0.03,0.83,-0.34,-0.73,-1.13,
1.806,0.03,0.03,0.83,-0.27,-0.75,-1.43,
1.808,0.03,0.04,0.83,-0.27,-0.75,-1.43,
1.811,0.02,0.05,0.83,-0.27,-0.75,-1.43,
1.811,0.02,0.05,0.83,-0.28,-0.66,-1.58,
1.814,0.02,0.06,0.83,-0.28,-0.66,-1.58,
1.815,0.01,0.06,0.83,-0.28,-0.66,-1.58,
1.816,0.01,0.06,0.83,-0.33,-0.48,-1.68,
1.818,0.00,0.07,0.83,-0.33,-0.48,-1.68,
1.82,-0.00,0.07,0.83,-0.33,-0.48,-1.68,
1.82,-0.00,0.07,0.83,-0.43,-0.39,-1.64,
1.825,-0.02,0.07,0.83,-0.43,-0.39,-1.64,
1.826,-0.02,0.07,0.83,-0.43,-0.39,-1.64,
1.826,-0.02,0.07,0.83,-0.56,-0.28,-1.67,
1.828,-0.03,0.07,0.82,-0.56,-0.28,-1.67,
1.83,-0.03,0.06,0.83,-0.56,-0.28,-1.67,
1.83,-0.03,0.06,0.83,-0.73,-0.27,-1.67,
1.834,-0.03,0.06,0.82,-0.73,-0.27,-1.67,
1.835,-0.04,0.06,0.83,-0.73,-0.27,-1.67,
1.835,-0.04,0.06,0.83,-0.79,-0.31,-1.69,
1.84,-0.03,0.06,0.83,-0.79,-0.31,-1.69,
1.84,-0.03,0.06,0.83,-0.79,-0.31,-1.69,
1.841,-0.03,0.06,0.83,-0.86,-0.34,-1.69,
1.842,-0.03,0.05,0.83,-0.86,-0.34,-1.69,
1.845,-0.03,0.05,0.83,-0.81,-0.37,-1.66,
1.845,-0.03,0.05,0.83,-0.81,-0.37,-1.66,
1.847,-0.02,0.05,0.82,-0.81,-0.37,-1.66,
1.851,-0.01,0.04,0.82,-0.81,-0.37,-1.66,
1.851,-0.01,0.04,0.82,-0.75,-0.46,-1.63,
1.853,-0.01,0.04,0.82,-0.75,-0.46,-1.63,
1.855,-0.00,0.04,0.82,-0.75,-0.46,-1.63,
1.855,-0.00,0.04,0.82,-0.59,-0.51,-1.71,
1.857,0.01,0.04,0.81,-0.59,-0.51,-1.71,
1.86,0.01,0.04,0.81,-0.59,-0.51,-1.71,
1.86,0.01,0.04,0.81,-0.49,-0.60,-1.73,
1.863,0.02,0.05,0.81,-0.49,-0.60,-1.73,
1.865,0.02,0.06,0.80,-0.49,-0.60,-1.73,
1.865,0.02,0.06,0.80,-0.37,-0.58,-1.82,
1.868,0.02,0.06,0.81,-0.37,-0.58,-1.82,
1.87,0.02,0.07,0.81,-0.37,-0.58,-1.82,
1.87,0.02,0.07,0.81,-0.26,-0.50,-1.87,
1.872,0.02,0.08,0.81,-0.26,-0.50,-1.87,
1.875,0.01,0.08,0.81,-0.26,-0.50,-1.87,
1.875,0.01,0.08,0.81,-0.25,-0.39,-1.82,
1.877,0.01,0.08,0.81,-0.25,-0.39,-1.82,
1.88,0.01,0.09,0.81,-0.25,-0.39,-1.82,
1.881,0.01,0.09,0.81,-0.27,-0.27,-1.81,
1.882,0.01,0.10,0.81,-0.27,-0.27,-1.81,
1.885,-0.00,0.10,0.81,-0.27,-0.27,-1.81,
1.885,-0.00,0.10,0.81,-0.35,-0.19,-1.80,
1.889,-0.01,0.10,0.81,-0.35,-0.19,-1.80,
1.89,-0.01,0.10,0.81,-0.35,-0.19,-1.80,
1.89,-0.01,0.10,0.81,-0.37,-0.07,-1.81,
1.892,-0.01,0.10,0.81,-0.37,-0.07,-1.81,
1.895,-0.01,0.10,0.81,-0.45,-0.06,-1.78,
1.895,-0.01,0.11,0.81,-0.45,-0.06,-1.78,
1.898,-0.01,0.11,0.81,-0.45,-0.06,-1.78,
1.9,-0.01,0.11,0.81,-0.45,-0.06,-1.78,
1.9,-0.01,0.11,0.81,-0.47,-0.02,-1.77,
1.902,-0.02,0.11,0.82,-0.47,-0.02,-1.77,
1.905,-0.02,0.12,0.82,-0.47,-0.02,-1.77,
1.906,-0.02,0.12,0.82,-0.48,-0.00,-1.74,
1.907,-0.01,0.11,0.83,-0.48,-0.00,-1.74,
1.91,-0.01,0.11,0.83,-0.48,-0.00,-1.74,
1.91,-0.01,0.11,0.83,-0.53,0.04,-1.65,
1.912,-0.00,0.12,0.83,-0.53,0.04,-1.65,
1.915,-0.00,0.12,0.82,-0.53,0.04,-1.65,
1.915,-0.00,0.12,0.82,-0.44,0.03,-1.61,
1.917,0.00,0.12,0.82,-0.44,0.03,-1.61,
1.92,0.01,0.12,0.82,-0.44,0.03,-1.61,
1.92,0.01,0.12,0.82,-0.37,0.05,-1.62,
1.922,0.01,0.12,0.82,-0.37,0.05,-1.62,
1.924,0.02,0.12,0.83,-0.37,0.05,-1.62,
1.924,0.02,0.12,0.83,-0.29,0.07,-1.65,
1.927,0.02,0.12,0.83,-0.29,0.07,-1.65,
1.93,0.02,0.12,0.83,-0.19,0.07,-1.63,
1.93,0.02,0.13,0.83,-0.19,0.07,-1.63,
1.932,0.03,0.13,0.83,-0.19,0.07,-1.63,
1.934,0.04,0.12,0.83,-0.19,0.07,-1.63,
1.934,0.04,0.12,0.83,-0.13,0.09,-1.58,
1.937,0.03,0.12,0.82,-0.13,0.09,-1.58,
1.939,0.04,0.13,0.82,-0.13,0.09,-1.58,
1.94,0.04,0.13,0.82,-0.04,0.07,-1.60,
1.942,0.04,0.13,0.82,-0.04,0.07,-1.60,
1.944,0.03,0.13,0.83,-0.04,0.07,-1.60,
1.945,0.03,0.13,0.83,0.00,0.06,-1.62,
1.947,0.04,0.13,0.83,0.00,0.06,-1.62,
1.949,0.03,0.13,0.83,0.00,0.06,-1.62,
1.95,0.03,0.13,0.83,0.04,0.08,-1.62,
1.952,0.03,0.13,0.83,0.04,0.08,-1.62,
1.958,0.03,0.13,0.83,0.04,0.08,-1.62,
1.959,0.03,0.13,0.83,-0.01,0.08,-1.58,
1.959,0.02,0.13,0.83,-0.01,0.08,-1.58,
1.961,0.02,0.13,0.84,-0.01,0.08,-1.58,
1.961,0.02,0.13,0.84,-0.05,0.10,-1.56,
1.961,0.01,0.13,0.84,-0.05,0.10,-1.56,
1.963,0.01,0.13,0.85,-0.05,0.10,-1.56,
1.964,0.01,0.13,0.85,-0.15,0.11,-1.47,
1.966,0.00,0.13,0.85,-0.15,0.11,-1.47,
1.968,0.00,0.13,0.85,-0.15,0.11,-1.47,
1.969,0.00,0.13,0.85,-0.23,0.08,-1.41,
1.972,-0.00,0.13,0.86,-0.23,0.08,-1.41,
1.973,0.00,0.13,0.86,-0.23,0.08,-1.41,
1.974,0.00,0.13,0.86,-0.29,0.08,-1.32,
1.976,0.00,0.12,0.86,-0.29,0.08,-1.32,
1.978,0.00,0.12,0.87,-0.29,0.08,-1.32,
1.979,0.00,0.12,0.87,-0.34,0.06,-1.25,
1.981,0.00,0.12,0.86,-0.34,0.06,-1.25,
1.984,0.01,0.12,0.87,-0.34,0.06,-1.25,
1.984,0.01,0.12,0.87,-0.30,-0.02,-1.20,
1.986,0.01,0.11,0.88,-0.30,-0.02,-1.20,
1.989,0.01,0.11,0.88,-0.30,-0.02,-1.20,
1.989,0.01,0.11,0.88,-0.27,-0.06,-1.17,
1.991,0.00,0.10,0.88,-0.27,-0.06,-1.17,
1.993,0.01,0.10,0.89,-0.27,-0.06,-1.17,
1.993,0.01,0.10,0.89,-0.26,-0.12,-1.04,
1.996,0.00,0.10,0.89,-0.26,-0.12,-1.04,
1.998,0.01,0.10,0.90,-0.26,-0.12,-1.04,
1.998,0.01,0.10,0.90,-0.29,-0.19,-0.98,
2.001,0.00,0.09,0.91,-0.29,-0.19,-0.98,
2.006,0.00,0.10,0.91,-0.29,-0.19,-0.98,
2.006,0.00,0.10,0.91,-0.29,-0.20,-0.84,
2.007,-0.00,0.10,0.92,-0.29,-0.20,-0.84,
2.008,-0.00,0.09,0.93,-0.29,-0.20,-0.84,
2.008,-0.00,0.09,0.93,-0.32,-0.25,-0.75,
2.01,-0.01,0.09,0.93,-0.32,-0.25,-0.75,
2.013,-0.00,0.09,0.94,-0.32,-0.25,-0.75,
2.013,-0.00,0.09,0.94,-0.36,-0.23,-0.60,
2.015,-0.01,0.09,0.94,-0.36,-0.23,-0.60,
2.019,-0.00,0.09,0.95,-0.36,-0.23,-0.60,
2.019,-0.00,0.09,0.95,-0.39,-0.26,-0.50,
2.02,-0.00,0.10,0.95,-0.39,-0.26,-0.50,
2.023,-0.01,0.10,0.95,-0.39,-0.26,-0.50,
2.024,-0.01,0.10,0.95,-0.38,-0.26,-0.40,
2.025,-0.01,0.09,0.95,-0.38,-0.26,-0.40,
2.029,-0.01,0.10,0.96,-0.38,-0.26,-0.40,
2.029,-0.01,0.10,0.96,-0.39,-0.21,-0.36,
2.03,-0.00,0.09,0.96,-0.39,-0.21,-0.36,
2.033,0.00,0.10,0.96,-0.39,-0.21,-0.36,
2.033,0.00,0.10,0.96,-0.40,-0.23,-0.27,
2.035,0.00,0.10,0.96,-0.40,-0.23,-0.27,
2.038,0.00,0.10,0.96,-0.40,-0.23,-0.27,
2.038,0.00,0.10,0.96,-0.36,-0.23,-0.23,
2.041,0.01,0.10,0.96,-0.36,-0.23,-0.23,
2.043,0.01,0.10,0.96,-0.36,-0.23,-0.23,
2.044,0.01,0.10,0.96,-0.33,-0.20,-0.23,
2.045,0.02,0.10,0.95,-0.33,-0.20,-0.23,
2.048,0.02,0.10,0.95,-0.33,-0.20,-0.23,
2.048,0.02,0.10,0.95,-0.27,-0.21,-0.20,
2.051,0.02,0.11,0.96,-0.27,-0.21,-0.20,
2.053,0.03,0.11,0.95,-0.27,-0.21,-0.20,
2.054,0.03,0.11,0.95,-0.18,-0.16,-0.28,
2.061,0.03,0.11,0.95,-0.18,-0.16,-0.28,
2.062,0.03,0.11,0.95,-0.18,-0.16,-0.28,
2.062,0.03,0.11,0.95,-0.09,-0.11,-0.27,
2.062,0.03,0.12,0.94,-0.09,-0.11,-0.27,
2.063,0.04,0.12,0.94,-0.09,-0.11,-0.27,
2.064,0.04,0.12,0.94,-0.06,-0.12,-0.35,
2.065,0.04,0.13,0.95,-0.06,-0.12,-0.35,
2.068,0.04,0.13,0.95,-0.06,-0.12,-0.35,
2.069,0.04,0.13,0.95,-0.01,-0.02,-0.39,
2.07,0.04,0.13,0.94,-0.01,-0.02,-0.39,
2.074,0.05,0.13,0.94,-0.01,-0.02,-0.39,
2.075,0.05,0.13,0.94,-0.01,0.04,-0.34,
2.075,0.05,0.14,0.94,-0.01,0.04,-0.34,
2.078,0.05,0.14,0.94,-0.01,0.04,-0.34,
2.078,0.05,0.14,0.94,0.05,0.10,-0.38,
2.08,0.05,0.14,0.94,0.05,0.10,-0.38,
2.082,0.05,0.15,0.94,0.05,0.10,-0.38,
2.083,0.05,0.15,0.94,0.09,0.14,-0.38,
2.085,0.06,0.15,0.94,0.09,0.14,-0.38,
2.088,0.06,0.15,0.94,0.09,0.14,-0.38,
2.088,0.06,0.15,0.94,0.09,0.21,-0.41,
2.091,0.06,0.15,0.95,0.09,0.21,-0.41,
2.092,0.07,0.15,0.95,0.09,0.21,-0.41,
2.093,0.07,0.15,0.95,0.16,0.25,-0.41,
2.095,0.07,0.16,0.95,0.16,0.25,-0.41,
2.098,0.07,0.16,0.95,0.16,0.25,-0.41,
2.098,0.07,0.16,0.95,0.21,0.27,-0.33,
2.099,0.08,0.16,0.95,0.21,0.27,-0.33,
2.102,0.08,0.16,0.95,0.21,0.27,-0.33,
2.103,0.08,0.16,0.95,0.26,0.32,-0.28,
2.108,0.08,0.16,0.95,0.26,0.32,-0.28,
2.109,0.08,0.15,0.96,0.26,0.32,-0.28,
2.109,0.08,0.15,0.96,0.31,0.31,-0.25,
2.109,0.08,0.16,0.96,0.31,0.31,-0.25,
2.113,0.08,0.16,0.96,0.31,0.31,-0.25,
2.113,0.08,0.16,0.96,0.32,0.32,-0.23,
2.114,0.08,0.16,0.97,0.32,0.32,-0.23,
2.118,0.08,0.16,0.97,0.32,0.32,-0.23,
2.118,0.08,0.16,0.97,0.35,0.36,-0.18,
2.119,0.08,0.16,0.98,0.35,0.36,-0.18,
2.124,0.09,0.16,0.98,0.35,0.36,-0.18,
2.125,0.09,0.16,0.98,0.34,0.34,-0.08,
2.125,0.08,0.16,0.99,0.34,0.34,-0.08,
2.128,0.09,0.16,0.99,0.34,0.34,-0.08,
2.128,0.09,0.16,0.99,0.36,0.36,0.03,
2.129,0.09,0.16,0.99,0.36,0.36,0.03,
2.132,0.09,0.16,1.00,0.36,0.36,0.03,
2.132,0.09,0.16,1.00,0.35,0.39,0.13,
2.134,0.08,0.17,1.01,0.35,0.39,0.13,
2.136,0.08,0.17,1.01,0.35,0.39,0.13,
2.147,0.08,0.17,1.01,0.40,0.38,0.19,
2.147,0.09,0.16,1.01,0.40,0.38,0.19,
2.148,0.08,0.16,1.02,0.40,0.38,0.19,
2.15,0.08,0.16,1.02,0.31,0.43,0.28,
2.151,0.08,0.16,1.02,0.31,0.43,0.28,
2.151,0.08,0.16,1.02,0.31,0.43,0.28,
2.151,0.08,0.16,1.02,0.32,0.40,0.35,
2.151,0.08,0.16,1.02,0.32,0.40,0.35,
2.152,0.08,0.16,1.02,0.32,0.40,0.35,
2.152,0.08,0.16,1.02,0.28,0.42,0.36,
2.155,0.08,0.16,1.02,0.28,0.42,0.36,
2.162,0.08,0.16,1.02,0.28,0.42,0.36,
2.163,0.08,0.16,1.02,0.25,0.39,0.39,
2.163,0.08,0.16,1.02,0.25,0.39,0.39,
2.163,0.07,0.16,1.02,0.25,0.39,0.39,
2.163,0.07,0.16,1.02,0.24,0.35,0.39,
2.164,0.07,0.16,1.01,0.24,0.35,0.39,
2.168,0.07,0.16,1.01,0.24,0.35,0.39,
2.168,0.07,0.16,1.01,0.20,0.35,0.41,
2.169,0.06,0.16,1.01,0.20,0.35,0.41,
2.172,0.06,0.16,1.01,0.20,0.35,0.41,
2.174,0.06,0.16,1.01,0.14,0.35,0.32,
2.175,0.06,0.16,1.01,0.14,0.35,0.32,
2.179,0.05,0.15,1.01,0.14,0.35,0.32,
2.179,0.05,0.15,1.01,0.10,0.33,0.31,
2.179,0.06,0.15,1.00,0.10,0.33,0.31,
2.181,0.06,0.16,1.01,0.10,0.33,0.31,
2.182,0.06,0.16,1.01,0.04,0.31,0.30,
2.184,0.06,0.15,1.01,0.04,0.31,0.30,
2.186,0.05,0.15,1.00,0.04,0.31,0.30,
2.187,0.05,0.15,1.00,0.04,0.32,0.25,
2.19,0.05,0.15,1.00,0.04,0.32,0.25,
2.192,0.05,0.15,1.00,0.04,0.32,0.25,
2.192,0.05,0.15,1.00,0.00,0.30,0.25,
2.194,0.06,0.15,1.00,0.00,0.30,0.25,
2.197,0.06,0.15,1.00,0.00,0.30,0.25,
2.197,0.06,0.15,1.00,-0.01,0.28,0.21,
2.199,0.06,0.14,0.99,-0.01,0.28,0.21,
2.201,0.06,0.15,1.00,-0.01,0.28,0.21,
2.202,0.06,0.15,1.00,0.02,0.21,0.19,
2.204,0.06,0.15,0.99,0.02,0.21,0.19,
2.206,0.05,0.15,0.99,0.02,0.21,0.19,
2.207,0.05,0.15,0.99,0.05,0.19,0.15,
2.209,0.06,0.15,0.99,0.05,0.19,0.15,
2.212,0.06,0.15,0.99,0.05,0.19,0.15,
2.212,0.06,0.15,0.99,0.03,0.22,0.13,
2.214,0.05,0.15,0.98,0.03,0.22,0.13,
2.217,0.05,0.15,0.98,0.01,0.20,0.08,
2.217,0.05,0.14,0.98,0.01,0.20,0.08,
2.219,0.05,0.14,0.98,0.01,0.20,0.08,
2.221,0.05,0.14,0.97,0.01,0.20,0.08,
2.222,0.05,0.14,0.97,-0.02,0.16,0.04,
2.224,0.04,0.14,0.97,-0.02,0.16,0.04,
2.226,0.04,0.14,0.97,-0.02,0.16,0.04,
2.227,0.04,0.14,0.97,-0.04,0.12,-0.02,
2.229,0.04,0.15,0.96,-0.04,0.12,-0.02,
2.232,0.05,0.14,0.96,-0.04,0.12,-0.02,
2.232,0.05,0.14,0.96,-0.11,0.15,-0.05,
2.234,0.04,0.14,0.96,-0.11,0.15,-0.05,
2.236,0.04,0.14,0.96,-0.11,0.15,-0.05,
2.238,0.04,0.14,0.96,-0.10,0.14,-0.18,
2.24,0.04,0.14,0.96,-0.10,0.14,-0.18,
2.241,0.04,0.14,0.96,-0.10,0.14,-0.18,
2.241,0.04,0.14,0.96,-0.12,0.13,-0.19,
2.244,0.04,0.14,0.97,-0.12,0.13,-0.19,
2.246,0.04,0.14,0.97,-0.12,0.13,-0.19,
2.246,0.04,0.14,0.97,-0.13,0.10,-0.20,
2.249,0.03,0.14,0.97,-0.13,0.10,-0.20,
2.251,0.04,0.14,0.98,-0.13,0.10,-0.20,
2.252,0.04,0.14,0.98,-0.11,0.08,-0.10,
2.253,0.04,0.13,0.98,-0.11,0.08,-0.10,
2.26,0.04,0.13,0.99,-0.11,0.08,-0.10,
2.261,0.04,0.13,0.99,-0.18,0.08,-0.04,
2.261,0.04,0.13,1.00,-0.18,0.08,-0.04,
2.261,0.03,0.13,0.99,-0.18,0.08,-0.04,
2.262,0.03,0.13,0.99,-0.15,0.05,0.05,
2.263,0.03,0.13,0.99,-0.15,0.05,0.05,
2.266,0.03,0.13,0.99,-0.18,0.03,0.14,
2.266,0.03,0.13,1.00,-0.18,0.03,0.14,
2.268,0.03,0.13,1.01,-0.18,0.03,0.14,
2.271,0.03,0.12,1.01,-0.18,0.03,0.14,
2.274,0.03,0.12,1.01,-0.23,0.02,0.18,
2.274,0.03,0.12,1.02,-0.23,0.02,0.18,
2.276,0.03,0.12,1.02,-0.23,0.02,0.18,
2.276,0.03,0.12,1.02,-0.25,-0.03,0.34,
2.278,0.03,0.12,1.02,-0.25,-0.03,0.34,
2.28,0.03,0.12,1.02,-0.25,-0.03,0.34,
2.281,0.03,0.12,1.02,-0.25,-0.06,0.39,
2.283,0.03,0.11,1.03,-0.25,-0.06,0.39,
2.286,0.03,0.11,1.03,-0.25,-0.06,0.39,
2.286,0.03,0.11,1.03,-0.25,-0.10,0.44,
2.288,0.03,0.11,1.02,-0.25,-0.10,0.44,
2.29,0.03,0.11,1.02,-0.25,-0.10,0.44,
2.291,0.03,0.11,1.02,-0.26,-0.16,0.45,
2.293,0.03,0.11,1.01,-0.26,-0.16,0.45,
2.295,0.03,0.11,1.01,-0.26,-0.16,0.45,
2.295,0.03,0.11,1.01,-0.25,-0.17,0.42,
2.298,0.03,0.11,1.01,-0.25,-0.17,0.42,
2.3,0.03,0.11,1.01,-0.25,-0.17,0.42,
2.3,0.03,0.11,1.01,-0.21,-0.17,0.30,
2.303,0.03,0.11,1.00,-0.21,-0.17,0.30,
2.306,0.04,0.11,0.99,-0.21,-0.17,0.30,
2.307,0.04,0.11,0.99,-0.23,-0.14,0.25,
2.309,0.04,0.11,0.98,-0.23,-0.14,0.25,
2.31,0.04,0.12,0.98,-0.23,-0.14,0.25,
2.31,0.04,0.12,0.98,-0.17,-0.16,0.16,
2.312,0.04,0.12,0.98,-0.17,-0.16,0.16,
2.315,0.05,0.12,0.97,-0.17,-0.16,0.16,
2.315,0.05,0.12,0.97,-0.16,-0.13,0.01,
2.318,0.05,0.13,0.97,-0.16,-0.13,0.01,
2.32,0.05,0.13,0.98,-0.16,-0.13,0.01,
2.321,0.05,0.13,0.98,-0.09,-0.08,-0.04,
2.324,0.06,0.13,0.97,-0.09,-0.08,-0.04,
2.326,0.06,0.14,0.97,-0.09,-0.08,-0.04,
2.326,0.06,0.14,0.97,-0.03,-0.01,-0.04,
2.328,0.06,0.14,0.97,-0.03,-0.01,-0.04,
2.331,0.07,0.14,0.97,-0.03,-0.01,-0.04,
2.331,0.07,0.14,0.97,0.06,0.04,-0.09,
2.333,0.07,0.14,0.97,0.06,0.04,-0.09,
2.336,0.07,0.14,0.97,0.06,0.04,-0.09,
2.336,0.07,0.14,0.97,0.11,0.07,-0.10,
2.338,0.07,0.15,0.97,0.11,0.07,-0.10,
2.34,0.07,0.15,0.97,0.11,0.07,-0.10,
2.341,0.07,0.15,0.97,0.15,0.10,-0.08,
2.342,0.07,0.15,0.94,0.15,0.10,-0.08,
2.344,0.08,0.16,0.92,0.15,0.10,-0.08,
2.345,0.08,0.16,0.92,0.16,0.14,-0.07,
2.348,0.08,0.15,0.92,0.16,0.14,-0.07,
2.35,0.09,0.15,0.93,0.16,0.14,-0.07,
2.35,0.09,0.15,0.93,0.16,0.20,-0.52,
2.353,0.08,0.15,0.95,0.16,0.20,-0.52,
2.355,0.07,0.14,0.98,0.16,0.20,-0.52,
2.355,0.07,0.14,0.98,0.26,0.20,-0.54,
2.361,0.07,0.14,0.99,0.26,0.20,-0.54,
2.361,0.07,0.14,1.01,0.26,0.20,-0.54,
2.362,0.07,0.14,1.01,0.18,0.14,-0.12,
2.362,0.06,0.13,1.01,0.18,0.14,-0.12,
2.364,0.05,0.13,1.02,0.18,0.14,-0.12,
2.365,0.05,0.13,1.02,0.09,0.06,0.22,
2.367,0.05,0.13,1.03,0.09,0.06,0.22,
2.371,0.05,0.13,1.04,0.09,0.06,0.22,
2.372,0.05,0.13,1.04,-0.03,0.02,0.38,
2.372,0.05,0.12,1.04,-0.03,0.02,0.38,
2.374,0.05,0.12,1.05,-0.03,0.02,0.38,
2.374,0.05,0.12,1.05,-0.09,-0.02,0.54,
2.38,0.05,0.12,1.05,-0.09,-0.02,0.54,
2.38,0.06,0.12,1.06,-0.09,-0.02,0.54,
2.38,0.06,0.12,1.06,-0.12,-0.10,0.65,
2.383,0.06,0.11,1.06,-0.12,-0.10,0.65,
2.384,0.06,0.11,1.06,-0.12,-0.10,0.65,
2.384,0.06,0.11,1.06,-0.04,-0.10,0.76,
2.387,0.06,0.10,1.06,-0.04,-0.10,0.76,
2.398,0.06,0.10,1.06,0.01,-0.20,0.78,
2.398,0.06,0.10,1.06,0.01,-0.20,0.78,
2.398,0.06,0.10,1.05,0.01,-0.20,0.78,
2.399,0.07,0.09,1.05,0.01,-0.20,0.78,
2.399,0.07,0.09,1.05,0.00,-0.28,0.76,
2.399,0.07,0.09,1.04,0.00,-0.28,0.76,
2.4,0.06,0.09,1.05,0.00,-0.28,0.76,
2.401,0.06,0.09,1.05,0.06,-0.32,0.67,
2.403,0.07,0.10,1.04,0.06,-0.32,0.67,
2.406,0.06,0.10,1.03,0.06,-0.32,0.67,
2.406,0.06,0.10,1.03,0.06,-0.35,0.60,
2.412,0.06,0.10,1.03,0.06,-0.35,0.60,
2.413,0.06,0.11,1.03,0.06,-0.35,0.60,
2.413,0.06,0.11,1.03,0.07,-0.28,0.52,
2.413,0.06,0.11,1.02,0.07,-0.28,0.52,
2.414,0.06,0.11,1.02,0.03,-0.25,0.45,
2.414,0.05,0.12,1.02,0.03,-0.25,0.45,
2.417,0.05,0.12,1.01,0.03,-0.25,0.45,
2.419,0.05,0.13,1.00,0.03,-0.25,0.45,
2.419,0.05,0.13,1.00,-0.02,-0.16,0.34,
2.421,0.05,0.13,1.00,-0.02,-0.16,0.34,
2.429,0.05,0.13,0.99,-0.02,-0.16,0.34,
2.43,0.05,0.13,0.99,-0.08,-0.08,0.23,
2.43,0.04,0.13,0.98,-0.08,-0.08,0.23,
2.43,0.05,0.13,0.97,-0.08,-0.08,0.23,
2.431,0.05,0.13,0.97,-0.09,-0.03,0.10,
2.447,0.05,0.14,0.97,-0.09,-0.03,0.10,
2.448,0.05,0.14,0.96,-0.09,-0.03,0.10,
2.449,0.05,0.14,0.96,-0.10,-0.00,-0.08,
2.449,0.05,0.14,0.97,-0.10,-0.00,-0.08,
2.449,0.05,0.14,0.95,-0.10,-0.00,-0.08,
2.449,0.05,0.14,0.95,-0.02,0.03,-0.22,
2.45,0.05,0.14,0.95,-0.02,0.03,-0.22,
2.45,0.05,0.14,0.95,-0.03,0.03,-0.23,
2.45,0.05,0.14,0.95,-0.03,0.03,-0.23,
2.45,0.05,0.14,0.95,-0.03,0.03,-0.23,
2.451,0.05,0.14,0.95,-0.03,0.03,-0.23,
2.451,0.05,0.14,0.95,-0.00,0.05,-0.33,
2.451,0.05,0.15,0.94,-0.00,0.05,-0.33,
2.454,0.05,0.15,0.95,-0.00,0.05,-0.33,
2.454,0.05,0.15,0.95,-0.02,0.03,-0.32,
2.462,0.04,0.15,0.95,-0.02,0.03,-0.32,
2.462,0.04,0.15,0.96,-0.02,0.03,-0.32,
2.462,0.04,0.15,0.96,-0.02,0.09,-0.37,
2.463,0.04,0.15,0.96,-0.02,0.09,-0.37,
