
time,gFx,gFy,gFz,ax,ay,az,
0.003,0.02,0.17,0.94,-0.01,-0.05,-0.34,
0.003,0.02,0.17,0.94,0.06,-0.06,-0.45,
0.003,0.02,0.17,0.94,0.06,-0.06,-0.45,
0.004,0.03,0.17,0.94,0.06,-0.06,-0.45,
0.004,0.03,0.17,0.94,0.14,-0.05,-0.46,
0.004,0.03,0.17,0.96,0.14,-0.05,-0.46,
0.004,0.03,0.17,0.97,0.14,-0.05,-0.46,
0.005,0.03,0.17,0.97,0.16,-0.05,-0.40,
0.009,0.02,0.17,0.97,0.16,-0.05,-0.40,
0.01,0.02,0.17,0.98,0.16,-0.05,-0.40,
0.01,0.02,0.17,0.98,0.19,-0.01,-0.20,
0.012,0.02,0.17,0.99,0.19,-0.01,-0.20,
0.015,0.02,0.17,1.00,0.19,-0.01,-0.20,
0.015,0.02,0.17,1.00,0.13,0.02,-0.08,
0.017,0.01,0.17,1.01,0.13,0.02,-0.08,
0.02,0.01,0.17,1.03,0.13,0.02,-0.08,
0.02,0.01,0.17,1.03,0.11,-0.01,0.14,
0.022,0.00,0.16,1.03,0.11,-0.01,0.14,
0.027,-0.00,0.16,1.03,0.11,-0.01,0.14,
0.028,-0.00,0.16,1.03,0.02,-0.03,0.35,
0.028,-0.01,0.16,1.04,0.02,-0.03,0.35,
0.029,-0.01,0.16,1.04,0.02,-0.03,0.35,
0.03,-0.01,0.16,1.04,-0.05,-0.07,0.41,
0.032,-0.01,0.16,1.04,-0.05,-0.07,0.41,
0.035,-0.01,0.16,1.04,-0.05,-0.07,0.41,
0.035,-0.01,0.16,1.04,-0.13,-0.07,0.54,
0.036,-0.01,0.16,1.03,-0.13,-0.07,0.54,
0.039,-0.02,0.16,1.04,-0.13,-0.07,0.54,
0.04,-0.02,0.16,1.04,-0.12,-0.06,0.50,
0.042,-0.02,0.17,1.03,-0.12,-0.06,0.50,
0.044,-0.02,0.17,1.03,-0.18,-0.04,0.50,
0.044,-0.01,0.16,1.02,-0.18,-0.04,0.50,
0.047,-0.02,0.16,1.02,-0.18,-0.04,0.50,
0.049,-0.02,0.17,1.02,-0.18,-0.04,0.50,
0.05,-0.02,0.17,1.02,-0.17,-0.04,0.42,
0.052,-0.02,0.17,1.01,-0.17,-0.04,0.42,
0.054,-0.02,0.17,1.01,-0.17,-0.04,0.42,
0.055,-0.02,0.17,1.01,-0.21,-0.04,0.36,
0.056,-0.02,0.17,1.00,-0.21,-0.04,0.36,
0.061,-0.01,0.17,0.99,-0.21,-0.04,0.36,
0.062,-0.01,0.17,0.99,-0.21,0.03,0.24,
0.062,-0.01,0.17,0.99,-0.21,0.03,0.24,
0.064,-0.01,0.17,0.98,-0.21,0.03,0.24,
0.064,-0.01,0.17,0.98,-0.14,0.03,0.06,
0.066,-0.01,0.17,0.97,-0.14,0.03,0.06,
0.069,-0.00,0.17,0.96,-0.14,0.03,0.06,
0.069,-0.00,0.17,0.96,-0.09,0.03,-0.06,
0.072,-0.01,0.17,0.96,-0.09,0.03,-0.06,
0.076,-0.01,0.17,0.95,-0.09,0.03,-0.06,
0.076,-0.01,0.17,0.95,-0.06,0.03,-0.20,
0.077,-0.01,0.17,0.95,-0.06,0.03,-0.20,
0.079,-0.00,0.17,0.95,-0.06,0.03,-0.20,
0.079,-0.00,0.17,0.95,-0.06,0.04,-0.30,
0.082,-0.01,0.17,0.94,-0.06,0.04,-0.30,
0.084,-0.01,0.17,0.94,-0.06,0.04,-0.30,
0.084,-0.01,0.17,0.94,-0.05,0.04,-0.36,
0.086,-0.01,0.17,0.94,-0.05,0.04,-0.36,
0.089,-0.02,0.17,0.93,-0.05,0.04,-0.36,
0.09,-0.02,0.17,0.93,-0.06,0.04,-0.42,
0.092,-0.02,0.18,0.93,-0.06,0.04,-0.42,
0.093,-0.02,0.18,0.93,-0.06,0.04,-0.42,
0.094,-0.02,0.18,0.93,-0.15,0.08,-0.50,
0.096,-0.02,0.18,0.93,-0.15,0.08,-0.50,
0.099,-0.02,0.18,0.93,-0.15,0.08,-0.50,
0.099,-0.02,0.18,0.93,-0.18,0.11,-0.52,
0.101,-0.02,0.18,0.94,-0.18,0.11,-0.52,
0.104,-0.02,0.18,0.94,-0.18,0.11,-0.52,
0.104,-0.02,0.18,0.94,-0.18,0.15,-0.55,
0.106,-0.01,0.19,0.95,-0.18,0.15,-0.55,
0.108,-0.01,0.19,0.95,-0.18,0.15,-0.55,
0.109,-0.01,0.19,0.95,-0.18,0.16,-0.44,
0.111,-0.01,0.19,0.96,-0.18,0.16,-0.44,
0.114,-0.00,0.19,0.97,-0.18,0.16,-0.44,
0.114,-0.00,0.19,0.97,-0.11,0.24,-0.36,
0.116,0.00,0.19,0.97,-0.11,0.24,-0.36,
0.119,0.00,0.19,0.97,-0.02,0.24,-0.17,
0.119,0.00,0.19,0.98,-0.02,0.24,-0.17,
0.122,0.01,0.19,0.98,-0.02,0.24,-0.17,
0.124,0.01,0.18,0.98,-0.02,0.24,-0.17,
0.124,0.01,0.18,0.98,0.04,0.25,-0.11,
0.126,0.01,0.18,0.99,0.04,0.25,-0.11,
0.128,0.01,0.18,0.99,0.04,0.25,-0.11,
0.128,0.01,0.18,0.99,0.11,0.27,-0.03,
0.131,0.01,0.18,1.01,0.11,0.27,-0.03,
0.133,0.02,0.18,1.01,0.11,0.27,-0.03,
0.133,0.02,0.18,1.01,0.12,0.20,0.04,
0.135,0.01,0.17,1.02,0.12,0.20,0.04,
0.138,0.02,0.18,1.02,0.12,0.20,0.04,
0.138,0.02,0.18,1.02,0.16,0.21,0.22,
0.142,0.01,0.17,1.03,0.16,0.21,0.22,
0.143,0.01,0.16,1.03,0.16,0.21,0.22,
0.143,0.01,0.16,1.03,0.16,0.15,0.36,
0.145,0.01,0.16,1.05,0.16,0.15,0.36,
0.148,0.00,0.17,1.05,0.16,0.15,0.36,
0.148,0.00,0.17,1.05,0.15,0.11,0.43,
0.15,0.00,0.16,1.06,0.15,0.11,0.43,
0.153,0.01,0.16,1.06,0.15,0.11,0.43,
0.153,0.01,0.16,1.06,0.09,0.09,0.60,
0.156,-0.00,0.16,1.07,0.09,0.09,0.60,
0.162,0.00,0.16,1.08,0.09,0.09,0.60,
0.165,0.00,0.16,1.08,0.06,0.07,0.70,
0.166,0.01,0.16,1.07,0.06,0.07,0.70,
0.167,0.01,0.16,1.05,0.06,0.07,0.70,
0.167,0.01,0.16,1.05,0.02,0.03,0.83,
0.167,0.02,0.16,1.04,0.02,0.03,0.83,
0.169,0.02,0.16,1.04,0.13,0.01,0.68,
0.169,0.03,0.16,1.03,0.13,0.01,0.68,
0.171,0.03,0.15,1.03,0.13,0.01,0.68,
0.173,0.03,0.15,1.02,0.13,0.01,0.68,
0.173,0.03,0.15,1.02,0.24,-0.00,0.47,
0.176,0.03,0.15,1.02,0.24,-0.00,0.47,
0.178,0.03,0.15,1.02,0.28,-0.08,0.33,
0.178,0.02,0.15,1.01,0.28,-0.08,0.33,
0.181,0.02,0.14,1.01,0.28,-0.08,0.33,
0.182,0.02,0.15,1.01,0.28,-0.08,0.33,
0.183,0.02,0.15,1.01,0.27,-0.12,0.25,
0.185,0.02,0.15,1.00,0.27,-0.12,0.25,
0.188,0.01,0.15,1.01,0.27,-0.12,0.25,
0.188,0.01,0.15,1.01,0.19,-0.15,0.18,
0.19,0.01,0.15,1.00,0.19,-0.15,0.18,
0.193,0.01,0.15,0.99,0.19,-0.15,0.18,
0.193,0.01,0.15,0.99,0.13,-0.13,0.15,
0.195,0.01,0.16,0.99,0.13,-0.13,0.15,
0.197,0.00,0.16,0.99,0.13,-0.13,0.15,
0.197,0.00,0.16,0.99,0.12,-0.10,0.06,
0.2,0.00,0.16,0.99,0.12,-0.10,0.06,
0.203,-0.00,0.16,0.98,0.12,-0.10,0.06,
0.203,-0.00,0.16,0.98,0.08,-0.04,0.02,
0.205,0.00,0.17,0.98,0.08,-0.04,0.02,
0.208,-0.00,0.17,0.97,0.08,-0.04,0.02,
0.209,-0.00,0.17,0.97,0.04,-0.01,-0.06,
0.21,-0.00,0.17,0.97,0.04,-0.01,-0.06,
0.213,-0.00,0.17,0.97,0.04,-0.01,-0.06,
0.213,-0.00,0.17,0.97,0.03,0.03,-0.13,
0.215,-0.01,0.17,0.97,0.03,0.03,-0.13,
0.218,-0.01,0.17,0.96,0.03,0.03,-0.13,
0.218,-0.01,0.17,0.96,-0.00,0.05,-0.19,
0.221,-0.00,0.17,0.95,-0.00,0.05,-0.19,
0.223,-0.00,0.16,0.95,-0.00,0.05,-0.19,
0.223,-0.00,0.16,0.95,-0.01,0.03,-0.24,
0.226,-0.01,0.16,0.95,-0.01,0.03,-0.24,
0.227,-0.00,0.16,0.95,-0.01,0.03,-0.24,
0.227,-0.00,0.16,0.95,0.01,0.02,-0.35,
0.23,0.00,0.16,0.94,0.01,0.02,-0.35,
0.233,0.00,0.16,0.94,0.01,0.02,-0.35,
0.233,0.00,0.16,0.94,0.00,-0.02,-0.37,
0.235,0.00,0.16,0.94,0.00,-0.02,-0.37,
0.238,0.00,0.17,0.94,0.00,-0.02,-0.37,
0.238,0.00,0.17,0.94,0.08,-0.05,-0.43,
0.24,0.00,0.16,0.94,0.08,-0.05,-0.43,
0.243,0.00,0.17,0.93,0.08,-0.05,-0.43,
0.243,0.00,0.17,0.93,0.09,-0.02,-0.45,
0.244,0.00,0.17,0.93,0.09,-0.02,-0.45,
0.248,0.00,0.17,0.93,0.09,-0.02,-0.45,
0.248,0.00,0.17,0.93,0.11,-0.03,-0.51,
0.25,-0.00,0.17,0.93,0.11,-0.03,-0.51,
0.252,-0.01,0.17,0.93,0.11,-0.03,-0.51,
0.253,-0.01,0.17,0.93,0.09,-0.01,-0.51,
0.255,-0.00,0.17,0.93,0.09,-0.01,-0.51,
0.257,-0.01,0.18,0.93,0.09,-0.01,-0.51,
0.257,-0.01,0.18,0.93,0.04,0.03,-0.51,
0.259,-0.01,0.17,0.93,0.04,0.03,-0.51,
0.262,-0.02,0.18,0.94,0.04,0.03,-0.51,
0.263,-0.02,0.18,0.94,0.04,0.06,-0.54,
0.265,-0.02,0.18,0.94,0.04,0.06,-0.54,
0.267,-0.02,0.18,0.94,-0.04,0.05,-0.49,
0.268,-0.02,0.17,0.94,-0.04,0.05,-0.49,
0.27,-0.02,0.17,0.95,-0.04,0.05,-0.49,
0.273,-0.02,0.17,0.94,-0.04,0.05,-0.49,
0.273,-0.02,0.17,0.94,-0.11,0.05,-0.45,
0.275,-0.02,0.17,0.94,-0.11,0.05,-0.45,
0.28,-0.03,0.17,0.95,-0.11,0.05,-0.45,
0.28,-0.03,0.17,0.95,-0.12,0.02,-0.41,
0.281,-0.03,0.16,0.94,-0.12,0.02,-0.41,
0.282,-0.03,0.16,0.94,-0.12,0.02,-0.41,
0.282,-0.03,0.16,0.94,-0.16,0.00,-0.38,
0.284,-0.03,0.16,0.93,-0.16,0.00,-0.38,
0.287,-0.03,0.16,0.93,-0.17,-0.08,-0.42,
0.288,-0.03,0.16,0.94,-0.17,-0.08,-0.42,
0.29,-0.03,0.16,0.93,-0.17,-0.08,-0.42,
0.291,-0.03,0.17,0.93,-0.17,-0.08,-0.42,
0.292,-0.03,0.17,0.93,-0.19,-0.06,-0.45,
0.295,-0.03,0.17,0.93,-0.19,-0.06,-0.45,
0.297,-0.03,0.16,0.93,-0.19,-0.06,-0.45,
0.297,-0.03,0.16,0.93,-0.16,-0.04,-0.50,
0.299,-0.03,0.16,0.92,-0.16,-0.04,-0.50,
0.302,-0.03,0.16,0.92,-0.16,-0.04,-0.50,
0.302,-0.03,0.16,0.92,-0.19,-0.07,-0.52,
0.305,-0.03,0.16,0.91,-0.19,-0.07,-0.52,
0.306,-0.03,0.17,0.91,-0.19,-0.07,-0.52,
0.306,-0.03,0.17,0.91,-0.15,-0.07,-0.63,
0.31,-0.03,0.17,0.91,-0.15,-0.07,-0.63,
0.311,-0.03,0.17,0.89,-0.15,-0.07,-0.63,
0.311,-0.03,0.17,0.89,-0.14,-0.06,-0.68,
0.314,-0.02,0.17,0.89,-0.14,-0.06,-0.68,
0.317,-0.02,0.17,0.89,-0.14,-0.06,-0.68,
0.317,-0.02,0.17,0.89,-0.12,-0.03,-0.78,
0.319,-0.02,0.17,0.88,-0.12,-0.03,-0.78,
0.321,-0.02,0.17,0.88,-0.12,-0.03,-0.78,
0.321,-0.02,0.17,0.88,-0.06,-0.01,-0.90,
0.324,-0.02,0.17,0.87,-0.06,-0.01,-0.90,
0.326,-0.02,0.17,0.87,-0.06,-0.01,-0.90,
0.327,-0.02,0.17,0.87,-0.07,-0.02,-0.98,
0.329,-0.02,0.17,0.86,-0.07,-0.02,-0.98,
0.331,-0.01,0.17,0.85,-0.07,-0.02,-0.98,
0.331,-0.01,0.17,0.85,-0.06,-0.01,-1.05,
0.333,-0.02,0.17,0.85,-0.06,-0.01,-1.05,
0.336,-0.02,0.18,0.85,-0.06,-0.01,-1.05,
0.336,-0.02,0.18,0.85,-0.02,-0.01,-1.16,
0.338,-0.02,0.18,0.84,-0.02,-0.01,-1.16,
0.341,-0.02,0.18,0.85,-0.02,-0.01,-1.16,
0.341,-0.02,0.18,0.85,-0.01,-0.02,-1.25,
0.343,-0.01,0.18,0.84,-0.01,-0.02,-1.25,
0.347,-0.01,0.18,0.85,-0.01,-0.02,-1.25,
0.347,-0.01,0.18,0.85,-0.02,0.01,-1.25,
0.348,-0.01,0.18,0.84,-0.02,0.01,-1.25,
0.351,-0.01,0.17,0.84,-0.02,0.01,-1.25,
0.351,-0.01,0.17,0.84,0.01,0.02,-1.26,
0.353,-0.02,0.17,0.84,0.01,0.02,-1.26,
0.356,-0.02,0.18,0.85,0.01,0.02,-1.26,
0.356,-0.02,0.18,0.85,0.01,-0.01,-1.26,
0.363,-0.01,0.17,0.84,0.01,-0.01,-1.26,
0.364,-0.01,0.17,0.84,0.01,-0.01,-1.26,
0.364,-0.01,0.17,0.84,-0.02,-0.01,-1.24,
0.364,-0.01,0.17,0.84,-0.02,-0.01,-1.24,
0.366,-0.01,0.17,0.84,-0.02,-0.01,-1.24,
0.366,-0.01,0.17,0.84,0.06,-0.07,-1.26,
0.368,-0.01,0.16,0.84,0.06,-0.07,-1.26,
0.371,-0.01,0.16,0.84,0.06,-0.07,-1.26,
0.371,-0.01,0.16,0.84,0.02,-0.09,-1.25,
0.373,-0.01,0.16,0.85,0.02,-0.09,-1.25,
0.377,-0.01,0.16,0.85,0.02,-0.09,-1.25,
0.377,-0.01,0.16,0.85,0.01,-0.15,-1.22,
0.378,-0.01,0.16,0.85,0.01,-0.15,-1.22,
0.38,-0.01,0.15,0.86,0.01,-0.15,-1.22,
0.381,-0.01,0.15,0.86,0.03,-0.18,-1.16,
0.383,-0.02,0.15,0.86,0.03,-0.18,-1.16,
0.385,-0.01,0.15,0.85,0.03,-0.18,-1.16,
0.386,-0.01,0.15,0.85,0.03,-0.20,-1.10,
0.388,-0.00,0.14,0.86,0.03,-0.20,-1.10,
0.39,-0.00,0.14,0.86,0.03,-0.20,-1.10,
0.391,-0.00,0.14,0.86,0.01,-0.27,-1.08,
0.393,-0.01,0.14,0.85,0.01,-0.27,-1.08,
0.395,-0.01,0.13,0.86,0.01,-0.27,-1.08,
0.396,-0.01,0.13,0.86,0.07,-0.33,-1.04,
0.398,-0.01,0.14,0.86,0.07,-0.33,-1.04,
0.4,-0.01,0.13,0.86,0.07,-0.33,-1.04,
0.401,-0.01,0.13,0.86,0.04,-0.37,-1.05,
0.403,-0.00,0.13,0.85,0.04,-0.37,-1.05,
0.405,0.00,0.13,0.85,0.04,-0.37,-1.05,
0.405,0.00,0.13,0.85,0.03,-0.40,-0.97,
0.408,0.01,0.13,0.84,0.03,-0.40,-0.97,
0.41,0.01,0.12,0.84,0.03,-0.40,-0.97,
0.411,0.01,0.12,0.84,0.06,-0.46,-1.04,
0.413,0.02,0.12,0.83,0.06,-0.46,-1.04,
0.415,0.02,0.12,0.83,0.14,-0.50,-1.17,
0.416,0.02,0.12,0.82,0.14,-0.50,-1.17,
0.418,0.02,0.12,0.81,0.14,-0.50,-1.17,
0.42,0.03,0.12,0.81,0.14,-0.50,-1.17,
0.42,0.03,0.12,0.81,0.21,-0.55,-1.28,
0.423,0.03,0.12,0.80,0.21,-0.55,-1.28,
0.426,0.03,0.12,0.79,0.21,-0.55,-1.28,
0.426,0.03,0.12,0.79,0.29,-0.62,-1.42,
0.428,0.04,0.12,0.78,0.29,-0.62,-1.42,
0.43,0.04,0.12,0.77,0.29,-0.62,-1.42,
0.431,0.04,0.12,0.77,0.31,-0.63,-1.56,
0.432,0.05,0.12,0.76,0.31,-0.63,-1.56,
0.435,0.05,0.12,0.75,0.31,-0.63,-1.56,
0.435,0.05,0.12,0.75,0.39,-0.60,-1.74,
0.437,0.06,0.12,0.74,0.39,-0.60,-1.74,
0.44,0.06,0.12,0.74,0.49,-0.68,-1.90,
0.44,0.06,0.12,0.73,0.49,-0.68,-1.90,
0.444,0.06,0.12,0.72,0.49,-0.68,-1.90,
0.446,0.07,0.12,0.71,0.49,-0.68,-1.90,
0.447,0.07,0.12,0.71,0.55,-0.67,-2.08,
0.447,0.08,0.12,0.71,0.55,-0.67,-2.08,
0.45,0.08,0.12,0.69,0.55,-0.67,-2.08,
0.45,0.08,0.12,0.69,0.63,-0.70,-2.23,
0.452,0.09,0.12,0.68,0.63,-0.70,-2.23,
0.455,0.09,0.12,0.67,0.63,-0.70,-2.23,
0.455,0.09,0.12,0.67,0.76,-0.74,-2.39,
0.457,0.09,0.12,0.68,0.76,-0.74,-2.39,
0.465,0.09,0.13,0.66,0.76,-0.74,-2.39,
0.466,0.09,0.13,0.66,0.80,-0.73,-2.57,
0.466,0.09,0.13,0.66,0.80,-0.73,-2.57,
0.467,0.09,0.13,0.66,0.80,-0.73,-2.57,
0.468,0.09,0.13,0.66,0.81,-0.75,-2.64,
0.468,0.09,0.13,0.66,0.81,-0.75,-2.64,
0.47,0.09,0.14,0.65,0.81,-0.75,-2.64,
0.47,0.09,0.14,0.65,0.79,-0.73,-2.72,
0.472,0.08,0.14,0.65,0.79,-0.73,-2.72,
0.475,0.08,0.14,0.65,0.78,-0.68,-2.72,
0.477,0.09,0.14,0.65,0.78,-0.68,-2.72,
0.477,0.09,0.13,0.65,0.78,-0.68,-2.72,
0.48,0.09,0.13,0.65,0.77,-0.71,-2.78,
0.481,0.08,0.13,0.65,0.77,-0.71,-2.78,
0.483,0.09,0.13,0.65,0.77,-0.71,-2.78,
0.485,0.09,0.13,0.65,0.77,-0.75,-2.73,
0.485,0.09,0.13,0.65,0.77,-0.75,-2.73,
0.488,0.08,0.13,0.66,0.77,-0.75,-2.73,
0.489,0.08,0.13,0.67,0.77,-0.75,-2.73,
0.49,0.08,0.13,0.67,0.76,-0.79,-2.75,
0.493,0.08,0.13,0.68,0.76,-0.79,-2.75,
0.494,0.09,0.13,0.69,0.76,-0.79,-2.75,
0.495,0.09,0.13,0.69,0.71,-0.82,-2.58,
0.497,0.09,0.13,0.69,0.71,-0.82,-2.58,
0.499,0.08,0.13,0.70,0.71,-0.82,-2.58,
0.5,0.08,0.13,0.70,0.73,-0.85,-2.40,
0.502,0.08,0.12,0.71,0.73,-0.85,-2.40,
0.504,0.08,0.12,0.71,0.72,-0.88,-2.24,
0.504,0.08,0.12,0.72,0.72,-0.88,-2.24,
0.507,0.08,0.12,0.74,0.72,-0.88,-2.24,
0.51,0.07,0.11,0.75,0.72,-0.88,-2.24,
0.511,0.07,0.11,0.75,0.66,-0.92,-2.03,
0.512,0.07,0.11,0.77,0.66,-0.92,-2.03,
0.514,0.07,0.11,0.79,0.66,-0.92,-2.03,
0.515,0.07,0.11,0.79,0.58,-1.01,-1.74,
0.517,0.07,0.10,0.80,0.58,-1.01,-1.74,
0.52,0.07,0.09,0.82,0.58,-1.01,-1.74,
0.52,0.07,0.09,0.82,0.51,-1.09,-1.42,
0.522,0.07,0.08,0.83,0.51,-1.09,-1.42,
0.524,0.07,0.07,0.85,0.51,-1.09,-1.42,
0.525,0.07,0.07,0.85,0.48,-1.22,-1.09,
0.527,0.07,0.06,0.86,0.48,-1.22,-1.09,
0.53,0.07,0.06,0.88,0.48,-1.22,-1.09,
0.53,0.07,0.06,0.88,0.48,-1.40,-0.76,
0.532,0.08,0.05,0.89,0.48,-1.40,-0.76,
0.534,0.08,0.05,0.90,0.48,-1.40,-0.76,
0.535,0.08,0.05,0.90,0.46,-1.53,-0.50,
0.537,0.07,0.04,0.91,0.46,-1.53,-0.50,
0.54,0.07,0.04,0.92,0.46,-1.53,-0.50,
0.54,0.07,0.04,0.92,0.49,-1.64,-0.26,
0.542,0.07,0.04,0.92,0.49,-1.64,-0.26,
0.544,0.07,0.04,0.92,0.49,-1.64,-0.26,
0.544,0.07,0.04,0.92,0.41,-1.72,-0.09,
0.547,0.07,0.04,0.93,0.41,-1.72,-0.09,
0.55,0.08,0.04,0.93,0.41,-1.72,-0.09,
0.55,0.08,0.04,0.93,0.38,-1.75,0.03,
0.552,0.07,0.04,0.93,0.38,-1.75,0.03,
0.554,0.07,0.06,0.94,0.38,-1.75,0.03,
0.554,0.07,0.06,0.94,0.40,-1.73,0.09,
0.556,0.07,0.07,0.93,0.40,-1.73,0.09,
0.563,0.07,0.08,0.93,0.40,-1.73,0.09,
0.564,0.07,0.08,0.93,0.39,-1.62,0.15,
0.564,0.07,0.09,0.92,0.39,-1.62,0.15,
0.564,0.07,0.10,0.92,0.39,-1.62,0.15,
0.565,0.07,0.10,0.92,0.39,-1.41,0.09,
0.566,0.07,0.12,0.91,0.39,-1.41,0.09,
0.569,0.08,0.14,0.91,0.39,-1.41,0.09,
0.569,0.08,0.14,0.91,0.35,-1.20,0.01,
0.572,0.08,0.15,0.90,0.35,-1.20,0.01,
0.574,0.08,0.17,0.89,0.35,-1.20,0.01,
0.574,0.08,0.17,0.89,0.38,-0.89,-0.08,
0.577,0.08,0.19,0.89,0.38,-0.89,-0.08,
0.578,0.09,0.21,0.88,0.38,-0.89,-0.08,
0.579,0.09,0.21,0.88,0.44,-0.59,-0.23,
0.582,0.09,0.22,0.88,0.44,-0.59,-0.23,
0.584,0.09,0.24,0.87,0.44,-0.59,-0.23,
0.584,0.09,0.24,0.87,0.52,-0.25,-0.31,
0.586,0.09,0.26,0.86,0.52,-0.25,-0.31,
0.589,0.10,0.27,0.85,0.52,-0.25,-0.31,
0.589,0.10,0.27,0.85,0.60,0.09,-0.43,
0.592,0.09,0.29,0.86,0.60,0.09,-0.43,
0.594,0.10,0.30,0.85,0.60,0.09,-0.43,
0.594,0.10,0.30,0.85,0.61,0.40,-0.58,
0.596,0.10,0.32,0.84,0.61,0.40,-0.58,
0.599,0.10,0.33,0.84,0.61,0.40,-0.58,
0.599,0.10,0.33,0.84,0.63,0.70,-0.62,
0.602,0.09,0.34,0.84,0.63,0.70,-0.62,
0.604,0.09,0.34,0.84,0.63,0.70,-0.62,
0.604,0.09,0.34,0.84,0.64,0.96,-0.73,
0.606,0.09,0.34,0.84,0.64,0.96,-0.73,
0.609,0.09,0.34,0.84,0.64,0.96,-0.73,
0.609,0.09,0.34,0.84,0.58,1.11,-0.75,
0.612,0.10,0.34,0.84,0.58,1.11,-0.75,
0.613,0.10,0.34,0.85,0.58,1.11,-0.75,
0.614,0.10,0.34,0.85,0.57,1.15,-0.74,
0.616,0.10,0.33,0.86,0.57,1.15,-0.74,
0.619,0.10,0.33,0.86,0.57,1.15,-0.74,
0.619,0.10,0.33,0.86,0.57,1.13,-0.66,
0.621,0.11,0.32,0.87,0.57,1.13,-0.66,
0.624,0.11,0.31,0.88,0.57,1.13,-0.66,
0.624,0.11,0.31,0.88,0.58,1.02,-0.54,
0.626,0.11,0.30,0.89,0.58,1.02,-0.54,
0.628,0.12,0.29,0.90,0.58,1.02,-0.54,
0.628,0.12,0.29,0.90,0.63,0.93,-0.37,
0.631,0.12,0.28,0.92,0.63,0.93,-0.37,
0.634,0.13,0.27,0.92,0.63,0.93,-0.37,
0.634,0.13,0.27,0.92,0.65,0.71,-0.17,
0.636,0.13,0.26,0.93,0.65,0.71,-0.17,
0.638,0.14,0.25,0.94,0.65,0.71,-0.17,
0.639,0.14,0.25,0.94,0.69,0.53,0.04,
0.641,0.14,0.24,0.96,0.69,0.53,0.04,
0.647,0.14,0.24,0.96,0.69,0.53,0.04,
0.648,0.14,0.24,0.96,0.74,0.36,0.22,
0.648,0.13,0.23,0.97,0.74,0.36,0.22,
0.648,0.14,0.23,0.98,0.74,0.36,0.22,
0.648,0.14,0.23,0.98,0.73,0.22,0.43,
0.651,0.13,0.22,0.97,0.73,0.22,0.43,
0.653,0.13,0.23,0.98,0.73,0.22,0.43,
0.655,0.13,0.23,0.98,0.64,0.10,0.58,
0.656,0.12,0.23,0.98,0.64,0.10,0.58,
0.657,0.12,0.23,0.98,0.64,0.10,0.58,
0.658,0.12,0.23,0.98,0.56,0.10,0.56,
0.66,0.11,0.24,0.98,0.56,0.10,0.56,
0.663,0.11,0.25,0.98,0.56,0.10,0.56,
0.663,0.11,0.25,0.98,0.43,0.17,0.64,
0.665,0.09,0.26,0.98,0.43,0.17,0.64,
0.667,0.09,0.26,0.98,0.43,0.17,0.64,
0.668,0.09,0.26,0.98,0.30,0.31,0.63,
0.67,0.08,0.27,0.98,0.30,0.31,0.63,
0.672,0.08,0.28,0.97,0.30,0.31,0.63,
0.673,0.08,0.28,0.97,0.08,0.47,0.60,
0.675,0.08,0.29,0.96,0.08,0.47,0.60,
0.677,0.08,0.29,0.95,0.08,0.47,0.60,
0.678,0.08,0.29,0.95,-0.01,0.64,0.55,
0.68,0.08,0.30,0.94,-0.01,0.64,0.55,
0.682,0.09,0.30,0.94,-0.01,0.64,0.55,
0.682,0.09,0.30,0.94,-0.02,0.81,0.36,
0.685,0.09,0.30,0.93,-0.02,0.81,0.36,
0.687,0.09,0.31,0.92,-0.02,0.81,0.36,
0.688,0.09,0.31,0.92,0.00,0.94,0.21,
0.69,0.10,0.30,0.92,0.00,0.94,0.21,
0.693,0.11,0.31,0.91,0.00,0.94,0.21,
0.693,0.11,0.31,0.91,0.08,0.99,0.03,
0.695,0.11,0.31,0.91,0.08,0.99,0.03,
0.697,0.12,0.30,0.91,0.08,0.99,0.03,
0.698,0.12,0.30,0.91,0.21,1.02,-0.06,
0.7,0.14,0.29,0.91,0.21,1.02,-0.06,
0.702,0.15,0.29,0.91,0.21,1.02,-0.06,
0.702,0.15,0.29,0.91,0.34,1.02,-0.11,
0.705,0.16,0.29,0.91,0.34,1.02,-0.11,
0.707,0.17,0.28,0.92,0.34,1.02,-0.11,
0.707,0.17,0.28,0.92,0.54,0.94,-0.12,
0.711,0.17,0.28,0.92,0.54,0.94,-0.12,
0.712,0.18,0.27,0.92,0.54,0.94,-0.12,
0.712,0.18,0.27,0.92,0.74,0.87,-0.08,
0.715,0.18,0.27,0.93,0.74,0.87,-0.08,
0.717,0.18,0.26,0.93,0.74,0.87,-0.08,
0.717,0.18,0.26,0.93,0.86,0.79,-0.03,
0.719,0.19,0.26,0.93,0.86,0.79,-0.03,
0.722,0.19,0.25,0.93,0.86,0.79,-0.03,
0.722,0.19,0.25,0.93,0.93,0.71,0.03,
0.724,0.19,0.24,0.94,0.93,0.71,0.03,
0.728,0.19,0.25,0.94,0.93,0.71,0.03,
0.729,0.19,0.25,0.94,0.99,0.65,0.09,
0.729,0.19,0.24,0.95,0.99,0.65,0.09,
0.732,0.18,0.24,0.95,0.99,0.65,0.09,
0.732,0.18,0.24,0.95,0.98,0.62,0.17,
0.734,0.18,0.23,0.96,0.98,0.62,0.17,
0.737,0.17,0.23,0.96,0.98,0.62,0.17,
0.737,0.17,0.23,0.96,0.92,0.60,0.25,
0.739,0.17,0.23,0.96,0.92,0.60,0.25,
0.742,0.16,0.23,0.96,0.92,0.60,0.25,
0.742,0.16,0.23,0.96,0.78,0.53,0.29,
0.745,0.16,0.22,0.96,0.78,0.53,0.29,
0.747,0.14,0.22,0.97,0.78,0.53,0.29,
0.747,0.14,0.22,0.97,0.66,0.58,0.36,
0.749,0.14,0.21,0.98,0.66,0.58,0.36,
0.752,0.14,0.21,0.97,0.66,0.58,0.36,
0.752,0.14,0.21,0.97,0.52,0.53,0.40,
0.754,0.12,0.21,0.98,0.52,0.53,0.40,
0.756,0.12,0.19,1.00,0.52,0.53,0.40,
0.757,0.12,0.19,1.00,0.38,0.48,0.44,
0.76,0.11,0.18,1.01,0.38,0.48,0.44,
0.762,0.10,0.18,1.02,0.38,0.48,0.44,
0.762,0.10,0.18,1.02,0.20,0.40,0.58,
0.764,0.09,0.16,1.03,0.20,0.40,0.58,
0.767,0.08,0.16,1.05,0.20,0.40,0.58,
0.767,0.08,0.16,1.05,-0.00,0.27,0.82,
0.769,0.07,0.15,1.06,-0.00,0.27,0.82,
0.771,0.07,0.14,1.07,-0.00,0.27,0.82,
0.772,0.07,0.14,1.07,-0.17,0.12,1.09,
0.774,0.06,0.13,1.08,-0.17,0.12,1.09,
0.781,0.06,0.12,1.09,-0.17,0.12,1.09,
0.781,0.06,0.12,1.09,-0.34,0.03,1.30,
0.782,0.05,0.11,1.10,-0.34,0.03,1.30,
0.782,0.05,0.11,1.10,-0.34,0.03,1.30,
0.782,0.05,0.11,1.10,-0.45,-0.16,1.47,
0.784,0.04,0.10,1.10,-0.45,-0.16,1.47,
0.786,0.03,0.10,1.11,-0.45,-0.16,1.47,
0.787,0.03,0.10,1.11,-0.54,-0.24,1.59,
0.789,0.02,0.09,1.10,-0.54,-0.24,1.59,
0.791,0.02,0.09,1.11,-0.54,-0.24,1.59,
0.791,0.02,0.09,1.11,-0.66,-0.29,1.63,
0.795,0.03,0.09,1.10,-0.66,-0.29,1.63,
0.796,0.03,0.09,1.10,-0.66,-0.29,1.63,
0.797,0.03,0.09,1.10,-0.79,-0.30,1.64,
0.799,0.05,0.10,1.09,-0.79,-0.30,1.64,
0.801,0.07,0.10,1.09,-0.79,-0.30,1.64,
0.801,0.07,0.10,1.09,-0.71,-0.24,1.59,
0.804,0.09,0.11,1.09,-0.71,-0.24,1.59,
0.806,0.11,0.12,1.08,-0.71,-0.24,1.59,
0.806,0.11,0.12,1.08,-0.40,-0.13,1.51,
0.809,0.12,0.13,1.08,-0.40,-0.13,1.51,
0.811,0.13,0.13,1.08,-0.40,-0.13,1.51,
0.812,0.13,0.13,1.08,-0.02,0.01,1.39,
0.813,0.14,0.14,1.07,-0.02,0.01,1.39,
0.816,0.16,0.14,1.07,-0.02,0.01,1.39,
0.816,0.16,0.14,1.07,0.24,0.23,1.37,
0.819,0.18,0.15,1.06,0.24,0.23,1.37,
0.821,0.19,0.15,1.06,0.24,0.23,1.37,
0.822,0.19,0.15,1.06,0.49,0.35,1.27,
0.824,0.20,0.15,1.06,0.49,0.35,1.27,
0.826,0.21,0.15,1.05,0.49,0.35,1.27,
0.827,0.21,0.15,1.05,0.85,0.46,1.18,
0.829,0.22,0.15,1.04,0.85,0.46,1.18,
0.831,0.22,0.14,1.03,0.85,0.46,1.18,
0.831,0.22,0.14,1.03,1.02,0.49,1.05,
0.833,0.22,0.15,1.03,1.02,0.49,1.05,
0.836,0.22,0.14,1.01,1.02,0.49,1.05,
0.836,0.22,0.14,1.01,1.17,0.51,0.89,
0.839,0.22,0.14,1.00,1.17,0.51,0.89,
0.841,0.22,0.14,0.99,1.17,0.51,0.89,
0.842,0.22,0.14,0.99,1.21,0.50,0.70,
0.843,0.22,0.14,0.99,1.21,0.50,0.70,
0.846,0.21,0.15,0.97,1.21,0.50,0.70,
0.846,0.21,0.15,0.97,1.18,0.49,0.52,
0.849,0.21,0.14,0.97,1.18,0.49,0.52,
0.851,0.20,0.14,0.97,1.18,0.49,0.52,
0.851,0.20,0.14,0.97,1.12,0.56,0.35,
0.854,0.19,0.15,0.96,1.12,0.56,0.35,
0.856,0.19,0.14,0.95,1.12,0.56,0.35,
0.856,0.19,0.14,0.95,0.97,0.56,0.25,
0.859,0.17,0.14,0.96,0.97,0.56,0.25,
0.863,0.16,0.14,0.96,0.97,0.56,0.25,
0.863,0.16,0.14,0.96,0.82,0.58,0.09,
0.864,0.15,0.13,0.96,0.82,0.58,0.09,
0.866,0.14,0.13,0.97,0.82,0.58,0.09,
0.866,0.14,0.13,0.97,0.57,0.58,0.14,
0.868,0.12,0.12,0.99,0.57,0.58,0.14,
0.871,0.11,0.11,0.99,0.57,0.58,0.14,
0.871,0.11,0.11,0.99,0.32,0.51,0.19,
0.874,0.11,0.10,1.00,0.32,0.51,0.19,
0.876,0.11,0.08,1.02,0.32,0.51,0.19,
0.876,0.11,0.08,1.02,0.06,0.38,0.42,
0.878,0.11,0.07,1.02,0.06,0.38,0.42,
0.88,0.11,0.06,1.03,0.06,0.38,0.42,
0.881,0.11,0.06,1.03,-0.09,0.19,0.62,
0.883,0.11,0.05,1.04,-0.09,0.19,0.62,
0.886,0.12,0.04,1.04,-0.09,0.19,0.62,
0.886,0.12,0.04,1.04,-0.14,0.02,0.77,
0.888,0.14,0.03,1.05,-0.14,0.02,0.77,
0.891,0.15,0.02,1.07,-0.14,0.02,0.77,
0.891,0.15,0.02,1.07,-0.04,-0.16,0.91,
0.893,0.15,0.02,1.07,-0.04,-0.16,0.91,
0.895,0.17,0.01,1.08,-0.04,-0.16,0.91,
0.896,0.17,0.01,1.08,0.17,-0.28,1.10,
0.898,0.17,0.01,1.09,0.17,-0.28,1.10,
0.9,0.18,0.01,1.09,0.17,-0.28,1.10,
0.901,0.18,0.01,1.09,0.33,-0.33,1.26,
0.904,0.18,0.00,1.10,0.33,-0.33,1.26,
0.906,0.18,0.00,1.10,0.33,-0.33,1.26,
0.906,0.18,0.00,1.10,0.42,-0.38,1.38,
0.908,0.18,0.00,1.11,0.42,-0.38,1.38,
0.91,0.18,0.00,1.11,0.42,-0.38,1.38,
0.911,0.18,0.00,1.11,0.45,-0.38,1.47,
0.913,0.17,0.00,1.12,0.45,-0.38,1.47,
0.916,0.16,-0.00,1.13,0.45,-0.38,1.47,
0.916,0.16,-0.00,1.13,0.45,-0.32,1.56,
0.918,0.16,0.00,1.13,0.45,-0.32,1.56,
0.921,0.15,-0.00,1.13,0.45,-0.32,1.56,
0.921,0.15,-0.00,1.13,0.32,-0.28,1.70,
0.924,0.14,-0.00,1.14,0.32,-0.28,1.70,
0.926,0.14,-0.01,1.14,0.32,-0.28,1.70,
0.926,0.14,-0.01,1.14,0.23,-0.24,1.76,
0.929,0.14,-0.01,1.14,0.23,-0.24,1.76,
0.931,0.13,-0.01,1.14,0.23,-0.24,1.76,
0.931,0.13,-0.01,1.14,0.09,-0.20,1.83,
0.933,0.13,-0.01,1.14,0.09,-0.20,1.83,
0.936,0.12,-0.02,1.14,0.09,-0.20,1.83,
0.936,0.12,-0.02,1.14,0.02,-0.18,1.83,
0.938,0.12,-0.02,1.15,0.02,-0.18,1.83,
0.941,0.13,-0.02,1.15,0.02,-0.18,1.83,
0.941,0.13,-0.02,1.15,-0.06,-0.19,1.87,
0.943,0.12,-0.03,1.15,-0.06,-0.19,1.87,
0.945,0.12,-0.03,1.15,-0.06,-0.19,1.87,
0.947,0.12,-0.03,1.15,-0.10,-0.19,1.91,
0.948,0.12,-0.03,1.15,-0.10,-0.19,1.91,
0.95,0.13,-0.04,1.14,-0.10,-0.19,1.91,
0.95,0.13,-0.04,1.14,-0.15,-0.19,1.90,
0.953,0.13,-0.04,1.14,-0.15,-0.19,1.90,
0.955,0.13,-0.04,1.14,-0.15,-0.19,1.90,
0.955,0.13,-0.04,1.14,-0.11,-0.20,1.89,
0.957,0.14,-0.04,1.13,-0.11,-0.20,1.89,
0.96,0.14,-0.04,1.13,-0.11,-0.20,1.89,
0.96,0.14,-0.04,1.13,-0.06,-0.19,1.80,
0.962,0.15,-0.05,1.13,-0.06,-0.19,1.80,
0.965,0.15,-0.05,1.12,-0.06,-0.19,1.80,
0.965,0.15,-0.05,1.12,0.05,-0.20,1.73,
0.967,0.16,-0.05,1.12,0.05,-0.20,1.73,
0.969,0.16,-0.05,1.12,0.05,-0.20,1.73,
0.97,0.16,-0.05,1.12,0.13,-0.21,1.64,
0.972,0.16,-0.05,1.12,0.13,-0.21,1.64,
0.975,0.16,-0.05,1.11,0.13,-0.21,1.64,
0.975,0.16,-0.05,1.11,0.24,-0.17,1.59,
0.982,0.16,-0.05,1.11,0.24,-0.17,1.59,
0.982,0.16,-0.06,1.11,0.24,-0.17,1.59,
0.983,0.16,-0.06,1.11,0.23,-0.13,1.55,
0.983,0.15,-0.06,1.10,0.23,-0.13,1.55,
0.985,0.15,-0.06,1.10,0.23,-0.13,1.55,
0.985,0.15,-0.06,1.10,0.19,-0.15,1.55,
0.987,0.14,-0.06,1.10,0.19,-0.15,1.55,
0.989,0.14,-0.06,1.10,0.11,-0.15,1.44,
0.99,0.13,-0.07,1.11,0.11,-0.15,1.44,
0.992,0.13,-0.08,1.10,0.11,-0.15,1.44,
0.995,0.11,-0.08,1.10,0.11,-0.15,1.44,
0.996,0.11,-0.08,1.10,-0.02,-0.19,1.45,
0.997,0.10,-0.08,1.11,-0.02,-0.19,1.45,
0.999,0.10,-0.09,1.11,-0.02,-0.19,1.45,
1.0,0.10,-0.09,1.11,-0.20,-0.27,1.42,
1.002,0.09,-0.09,1.11,-0.20,-0.27,1.42,
1.004,0.09,-0.09,1.12,-0.20,-0.27,1.42,
1.004,0.09,-0.09,1.12,-0.37,-0.29,1.50,
1.007,0.07,-0.09,1.13,-0.37,-0.29,1.50,
1.009,0.06,-0.09,1.13,-0.37,-0.29,1.50,
1.009,0.06,-0.09,1.13,-0.51,-0.29,1.55,
1.011,0.06,-0.09,1.13,-0.51,-0.29,1.55,
1.014,0.06,-0.09,1.14,-0.51,-0.29,1.55,
1.014,0.06,-0.09,1.14,-0.73,-0.25,1.65,
1.016,0.06,-0.09,1.14,-0.73,-0.25,1.65,
1.019,0.05,-0.09,1.16,-0.73,-0.25,1.65,
1.019,0.05,-0.09,1.16,-0.80,-0.23,1.76,
1.022,0.05,-0.09,1.16,-0.80,-0.23,1.76,
1.024,0.05,-0.09,1.16,-0.80,-0.23,1.76,
1.024,0.05,-0.09,1.16,-0.85,-0.18,1.90,
1.026,0.05,-0.09,1.17,-0.85,-0.18,1.90,
1.03,0.05,-0.10,1.17,-0.85,-0.18,1.90,
1.03,0.05,-0.10,1.17,-0.87,-0.15,1.98,
1.031,0.05,-0.10,1.18,-0.87,-0.15,1.98,
1.034,0.05,-0.11,1.19,-0.87,-0.15,1.98,
1.034,0.05,-0.11,1.19,-0.86,-0.15,2.07,
1.036,0.05,-0.10,1.19,-0.86,-0.15,2.07,
1.039,0.05,-0.11,1.18,-0.86,-0.15,2.07,
1.039,0.05,-0.11,1.18,-0.88,-0.19,2.20,
1.041,0.05,-0.11,1.18,-0.88,-0.19,2.20,
1.044,0.05,-0.11,1.19,-0.88,-0.19,2.20,
1.045,0.05,-0.11,1.19,-0.88,-0.17,2.21,
1.047,0.05,-0.12,1.19,-0.88,-0.17,2.21,
1.049,0.05,-0.12,1.19,-0.88,-0.17,2.21,
1.049,0.05,-0.12,1.19,-0.84,-0.18,2.21,
1.051,0.06,-0.12,1.19,-0.84,-0.18,2.21,
1.054,0.06,-0.12,1.19,-0.84,-0.18,2.21,
1.054,0.06,-0.12,1.19,-0.85,-0.19,2.24,
1.056,0.05,-0.12,1.19,-0.85,-0.19,2.24,
1.059,0.05,-0.12,1.19,-0.85,-0.19,2.24,
1.059,0.05,-0.12,1.19,-0.81,-0.19,2.29,
1.062,0.06,-0.12,1.19,-0.81,-0.19,2.29,
1.063,0.05,-0.12,1.20,-0.81,-0.19,2.29,
1.064,0.05,-0.12,1.20,-0.83,-0.18,2.24,
1.066,0.05,-0.12,1.19,-0.83,-0.18,2.24,
1.069,0.05,-0.12,1.19,-0.83,-0.18,2.24,
1.069,0.05,-0.12,1.19,-0.80,-0.13,2.31,
1.071,0.05,-0.13,1.19,-0.80,-0.13,2.31,
1.073,0.05,-0.12,1.20,-0.80,-0.13,2.31,
1.074,0.05,-0.12,1.20,-0.82,-0.12,2.28,
1.076,0.05,-0.12,1.20,-0.82,-0.12,2.28,
1.082,0.05,-0.13,1.19,-0.82,-0.12,2.28,
1.083,0.05,-0.13,1.19,-0.79,-0.11,2.28,
1.083,0.05,-0.13,1.20,-0.79,-0.11,2.28,
1.084,0.04,-0.13,1.20,-0.79,-0.11,2.28,
1.084,0.04,-0.13,1.20,-0.79,-0.08,2.29,
1.086,0.04,-0.14,1.20,-0.79,-0.08,2.29,
1.088,0.05,-0.14,1.20,-0.79,-0.08,2.29,
1.089,0.05,-0.14,1.20,-0.79,-0.10,2.30,
1.091,0.05,-0.14,1.20,-0.79,-0.10,2.30,
1.093,0.05,-0.14,1.20,-0.79,-0.10,2.30,
1.093,0.05,-0.14,1.20,-0.79,-0.13,2.32,
1.096,0.05,-0.15,1.19,-0.79,-0.13,2.32,
1.099,0.04,-0.15,1.20,-0.79,-0.13,2.32,
1.1,0.04,-0.15,1.20,-0.76,-0.16,2.32,
1.101,0.04,-0.15,1.20,-0.76,-0.16,2.32,
1.103,0.04,-0.15,1.20,-0.76,-0.16,2.32,
1.103,0.04,-0.15,1.20,-0.75,-0.19,2.26,
1.106,0.03,-0.15,1.20,-0.75,-0.19,2.26,
1.108,0.03,-0.15,1.20,-0.75,-0.19,2.26,
1.108,0.03,-0.15,1.20,-0.79,-0.22,2.28,
1.112,0.03,-0.15,1.20,-0.79,-0.22,2.28,
1.114,0.02,-0.14,1.20,-0.79,-0.22,2.28,
1.114,0.02,-0.14,1.20,-0.89,-0.18,2.29,
1.115,0.02,-0.14,1.20,-0.89,-0.18,2.29,
1.118,0.02,-0.14,1.20,-0.89,-0.18,2.29,
1.118,0.02,-0.14,1.20,-0.93,-0.13,2.29,
1.121,0.02,-0.14,1.20,-0.93,-0.13,2.29,
1.123,0.02,-0.14,1.20,-0.93,-0.13,2.29,
1.123,0.02,-0.14,1.20,-0.97,-0.04,2.25,
1.125,0.02,-0.14,1.20,-0.97,-0.04,2.25,
1.13,0.03,-0.13,1.20,-0.97,-0.04,2.25,
1.131,0.03,-0.13,1.20,-0.94,-0.04,2.26,
1.132,0.03,-0.13,1.20,-0.94,-0.04,2.26,
1.133,0.04,-0.13,1.20,-0.94,-0.04,2.26,
1.134,0.04,-0.13,1.20,-0.89,0.00,2.29,
1.136,0.04,-0.14,1.20,-0.89,0.00,2.29,
1.138,0.05,-0.13,1.19,-0.89,0.00,2.29,
1.138,0.05,-0.13,1.19,-0.81,0.02,2.28,
1.14,0.05,-0.13,1.19,-0.81,0.02,2.28,
1.143,0.06,-0.13,1.20,-0.81,0.02,2.28,
1.143,0.06,-0.13,1.20,-0.72,-0.02,2.22,
1.145,0.06,-0.13,1.20,-0.72,-0.02,2.22,
1.148,0.06,-0.13,1.20,-0.72,-0.02,2.22,
1.154,0.06,-0.13,1.20,-0.62,-0.01,2.24,
1.154,0.06,-0.14,1.21,-0.62,-0.01,2.24,
1.155,0.06,-0.14,1.21,-0.62,-0.01,2.24,
1.156,0.06,-0.14,1.21,-0.59,-0.02,2.24,
1.156,0.06,-0.14,1.21,-0.59,-0.02,2.24,
1.158,0.07,-0.13,1.21,-0.59,-0.02,2.24,
1.158,0.07,-0.13,1.21,-0.60,-0.05,2.34,
1.16,0.06,-0.13,1.22,-0.60,-0.05,2.34,
1.163,0.06,-0.13,1.22,-0.60,-0.05,2.34,
1.164,0.06,-0.13,1.22,-0.56,-0.03,2.33,
1.165,0.06,-0.14,1.22,-0.56,-0.03,2.33,
1.168,0.06,-0.13,1.22,-0.56,-0.03,2.33,
1.168,0.06,-0.13,1.22,-0.62,-0.04,2.42,
1.171,0.06,-0.13,1.22,-0.62,-0.04,2.42,
1.173,0.06,-0.14,1.23,-0.62,-0.04,2.42,
1.173,0.06,-0.14,1.23,-0.63,-0.07,2.44,
1.175,0.05,-0.14,1.23,-0.63,-0.07,2.44,
1.178,0.05,-0.14,1.23,-0.63,-0.06,2.47,
1.178,0.05,-0.14,1.23,-0.63,-0.06,2.47,
1.184,0.06,-0.14,1.23,-0.63,-0.06,2.47,
1.184,0.06,-0.15,1.22,-0.63,-0.06,2.47,
1.184,0.06,-0.15,1.22,-0.66,-0.12,2.51,
1.185,0.06,-0.15,1.23,-0.66,-0.12,2.51,
1.188,0.06,-0.15,1.22,-0.66,-0.12,2.51,
1.188,0.06,-0.15,1.22,-0.63,-0.17,2.44,
1.19,0.07,-0.15,1.22,-0.63,-0.17,2.44,
1.192,0.07,-0.15,1.22,-0.63,-0.17,2.44,
1.193,0.07,-0.15,1.22,-0.56,-0.21,2.43,
1.195,0.07,-0.16,1.22,-0.56,-0.21,2.43,
1.197,0.07,-0.16,1.21,-0.56,-0.21,2.43,
1.198,0.07,-0.16,1.21,-0.48,-0.22,2.37,
1.2,0.08,-0.16,1.21,-0.48,-0.22,2.37,
1.203,0.08,-0.16,1.22,-0.48,-0.22,2.37,
1.203,0.08,-0.16,1.22,-0.43,-0.29,2.31,
1.205,0.08,-0.16,1.21,-0.43,-0.29,2.31,
1.208,0.09,-0.15,1.21,-0.43,-0.29,2.31,
1.208,0.09,-0.15,1.21,-0.36,-0.30,2.31,
1.21,0.09,-0.15,1.21,-0.36,-0.30,2.31,
1.213,0.10,-0.15,1.20,-0.36,-0.30,2.31,
1.214,0.10,-0.15,1.20,-0.28,-0.26,2.24,
1.215,0.10,-0.15,1.20,-0.28,-0.26,2.24,
1.217,0.10,-0.15,1.20,-0.20,-0.24,2.20,
1.217,0.10,-0.14,1.20,-0.20,-0.24,2.20,
1.22,0.10,-0.14,1.19,-0.20,-0.24,2.20,
1.223,0.10,-0.14,1.19,-0.10,-0.16,2.10,
1.223,0.10,-0.13,1.19,-0.10,-0.16,2.10,
1.225,0.11,-0.13,1.19,-0.10,-0.16,2.10,
1.227,0.12,-0.13,1.18,-0.10,-0.16,2.10,
1.227,0.12,-0.13,1.18,-0.05,-0.09,2.02,
1.229,0.12,-0.13,1.18,-0.05,-0.09,2.02,
1.232,0.13,-0.13,1.18,-0.05,-0.09,2.02,
1.232,0.13,-0.13,1.18,0.06,-0.06,1.98,
1.235,0.13,-0.12,1.18,0.06,-0.06,1.98,
1.238,0.13,-0.12,1.18,0.06,-0.06,1.98,
1.238,0.13,-0.12,1.18,0.16,-0.02,1.90,
1.24,0.14,-0.12,1.18,0.16,-0.02,1.90,
1.242,0.14,-0.12,1.19,0.16,-0.02,1.90,
1.243,0.14,-0.12,1.19,0.23,0.02,1.88,
1.245,0.14,-0.11,1.19,0.23,0.02,1.88,
1.247,0.14,-0.11,1.19,0.31,0.08,1.94,
1.248,0.14,-0.11,1.19,0.31,0.08,1.94,
1.249,0.15,-0.11,1.20,0.31,0.08,1.94,
1.252,0.15,-0.11,1.20,0.36,0.15,2.02,
1.253,0.15,-0.10,1.21,0.36,0.15,2.02,
1.255,0.14,-0.10,1.22,0.36,0.15,2.02,
1.258,0.15,-0.10,1.22,0.36,0.15,2.02,
1.258,0.15,-0.10,1.22,0.40,0.20,2.18,
1.26,0.15,-0.10,1.22,0.40,0.20,2.18,
1.262,0.15,-0.10,1.22,0.37,0.22,2.25,
1.262,0.15,-0.10,1.22,0.37,0.22,2.25,
1.265,0.16,-0.10,1.23,0.37,0.22,2.25,
1.267,0.16,-0.10,1.23,0.37,0.22,2.25,
1.268,0.16,-0.10,1.23,0.44,0.22,2.30,
1.27,0.16,-0.09,1.23,0.44,0.22,2.30,
1.273,0.16,-0.09,1.23,0.50,0.25,2.36,
1.273,0.16,-0.09,1.24,0.50,0.25,2.36,
1.275,0.16,-0.09,1.24,0.50,0.25,2.36,
1.277,0.17,-0.09,1.24,0.50,0.25,2.36,
1.277,0.17,-0.09,1.24,0.54,0.28,2.40,
1.283,0.17,-0.09,1.24,0.54,0.28,2.40,
1.284,0.17,-0.10,1.25,0.54,0.28,2.40,
1.284,0.17,-0.10,1.25,0.58,0.28,2.48,
1.284,0.17,-0.10,1.24,0.58,0.28,2.48,
1.286,0.17,-0.10,1.23,0.58,0.28,2.48,
1.287,0.17,-0.10,1.23,0.61,0.24,2.48,
1.289,0.16,-0.10,1.23,0.61,0.24,2.48,
1.291,0.16,-0.11,1.23,0.61,0.24,2.48,
1.291,0.16,-0.11,1.23,0.62,0.17,2.39,
1.294,0.16,-0.11,1.22,0.62,0.17,2.39,
1.297,0.16,-0.11,1.22,0.62,0.17,2.39,
1.298,0.16,-0.11,1.22,0.61,0.11,2.35,
1.299,0.15,-0.11,1.22,0.61,0.11,2.35,
1.301,0.15,-0.11,1.22,0.61,0.11,2.35,
1.301,0.15,-0.11,1.22,0.57,0.05,2.25,
1.303,0.15,-0.11,1.20,0.57,0.05,2.25,
1.306,0.15,-0.11,1.20,0.57,0.05,2.25,
1.306,0.15,-0.11,1.20,0.49,0.01,2.20,
1.308,0.14,-0.11,1.19,0.49,0.01,2.20,
1.311,0.14,-0.11,1.18,0.49,0.01,2.20,
1.311,0.14,-0.11,1.18,0.50,-0.01,2.00,
1.315,0.14,-0.11,1.18,0.50,-0.01,2.00,
1.318,0.14,-0.11,1.17,0.50,-0.01,2.00,
1.318,0.14,-0.11,1.17,0.45,-0.02,1.83,
1.319,0.14,-0.11,1.16,0.45,-0.02,1.83,
1.321,0.14,-0.11,1.16,0.45,-0.02,1.83,
1.321,0.14,-0.11,1.16,0.43,0.00,1.72,
1.323,0.14,-0.10,1.15,0.43,0.00,1.72,
1.326,0.14,-0.10,1.14,0.43,0.00,1.72,
1.326,0.14,-0.10,1.14,0.43,-0.01,1.57,
1.33,0.14,-0.10,1.14,0.43,-0.01,1.57,
1.332,0.13,-0.10,1.14,0.43,-0.01,1.57,
1.332,0.13,-0.10,1.14,0.42,-0.02,1.47,
1.333,0.13,-0.10,1.13,0.42,-0.02,1.47,
1.336,0.13,-0.09,1.13,0.42,-0.02,1.47,
1.337,0.13,-0.09,1.13,0.39,0.02,1.40,
1.339,0.13,-0.08,1.13,0.39,0.02,1.40,
1.341,0.13,-0.07,1.12,0.39,0.02,1.40,
1.341,0.13,-0.07,1.12,0.36,0.03,1.29,
1.344,0.13,-0.07,1.12,0.36,0.03,1.29,
1.347,0.12,-0.06,1.11,0.36,0.03,1.29,
1.348,0.12,-0.06,1.11,0.36,0.12,1.20,
1.348,0.13,-0.06,1.10,0.36,0.12,1.20,
1.351,0.13,-0.05,1.10,0.36,0.12,1.20,
1.351,0.13,-0.05,1.10,0.31,0.23,1.09,
1.354,0.13,-0.04,1.10,0.31,0.23,1.09,
1.356,0.13,-0.03,1.09,0.31,0.23,1.09,
1.357,0.13,-0.03,1.09,0.33,0.31,0.96,
1.358,0.13,-0.03,1.08,0.33,0.31,0.96,
1.361,0.13,-0.03,1.08,0.33,0.31,0.96,
1.361,0.13,-0.03,1.08,0.36,0.42,0.87,
1.364,0.14,-0.02,1.07,0.36,0.42,0.87,
1.366,0.14,-0.02,1.07,0.36,0.42,0.87,
1.366,0.14,-0.02,1.07,0.39,0.46,0.77,
1.369,0.14,-0.02,1.06,0.39,0.46,0.77,
1.371,0.15,-0.02,1.06,0.39,0.46,0.77,
1.372,0.15,-0.02,1.06,0.43,0.49,0.65,
1.373,0.15,-0.01,1.05,0.43,0.49,0.65,
1.376,0.16,-0.01,1.05,0.43,0.49,0.65,
1.376,0.16,-0.01,1.05,0.50,0.52,0.57,
1.378,0.16,-0.01,1.05,0.50,0.52,0.57,
1.386,0.16,-0.01,1.05,0.50,0.52,0.57,
1.387,0.16,-0.01,1.05,0.58,0.54,0.49,
1.387,0.16,-0.01,1.05,0.58,0.54,0.49,
1.388,0.16,-0.01,1.05,0.58,0.54,0.49,
1.388,0.16,-0.01,1.05,0.68,0.53,0.43,
1.388,0.16,-0.00,1.05,0.68,0.53,0.43,
1.391,0.15,-0.01,1.06,0.68,0.53,0.43,
1.391,0.15,-0.01,1.06,0.65,0.52,0.45,
1.393,0.15,-0.01,1.06,0.65,0.52,0.45,
1.401,0.14,-0.00,1.06,0.65,0.52,0.45,
1.401,0.14,-0.00,1.06,0.58,0.53,0.47,
1.402,0.13,-0.01,1.06,0.58,0.53,0.47,
1.402,0.13,-0.01,1.06,0.58,0.53,0.47,
1.402,0.13,-0.01,1.06,0.49,0.50,0.52,
1.403,0.12,-0.01,1.07,0.49,0.50,0.52,
1.406,0.12,-0.01,1.06,0.49,0.50,0.52,
1.406,0.12,-0.01,1.06,0.39,0.45,0.57,
1.408,0.12,-0.02,1.06,0.39,0.45,0.57,
1.41,0.11,-0.02,1.07,0.39,0.45,0.57,
1.41,0.11,-0.02,1.07,0.31,0.41,0.60,
1.413,0.11,-0.02,1.06,0.31,0.41,0.60,
1.415,0.11,-0.03,1.05,0.31,0.41,0.60,
1.415,0.11,-0.03,1.05,0.23,0.34,0.58,
1.417,0.10,-0.03,1.05,0.23,0.34,0.58,
1.42,0.11,-0.02,1.03,0.23,0.34,0.58,
1.42,0.11,-0.02,1.03,0.17,0.24,0.49,
1.422,0.11,-0.03,1.02,0.17,0.24,0.49,
1.425,0.11,-0.03,1.01,0.17,0.24,0.49,
1.425,0.11,-0.03,1.01,0.16,0.20,0.30,
1.427,0.10,-0.02,1.00,0.16,0.20,0.30,
1.43,0.10,-0.02,0.99,0.16,0.20,0.30,
1.432,0.10,-0.02,0.99,0.20,0.17,0.04,
1.432,0.09,-0.02,0.98,0.20,0.17,0.04,
1.435,0.09,-0.01,0.98,0.20,0.17,0.04,
1.435,0.09,-0.01,0.98,0.14,0.21,-0.11,
1.437,0.08,-0.01,0.96,0.14,0.21,-0.11,
1.44,0.07,-0.01,0.96,0.14,0.21,-0.11,
1.44,0.07,-0.01,0.96,0.04,0.25,-0.27,
1.442,0.07,-0.00,0.95,0.04,0.25,-0.27,
1.444,0.07,0.00,0.95,0.04,0.25,-0.27,
1.445,0.07,0.00,0.95,-0.08,0.27,-0.44,
1.448,0.07,0.00,0.95,-0.08,0.27,-0.44,
1.45,0.07,0.01,0.95,-0.08,0.27,-0.44,
1.45,0.07,0.01,0.95,-0.10,0.34,-0.53,
1.452,0.07,0.01,0.95,-0.10,0.34,-0.53,
1.455,0.08,0.01,0.96,-0.10,0.34,-0.53,
1.455,0.08,0.01,0.96,-0.11,0.40,-0.57,
1.457,0.08,0.02,0.96,-0.11,0.40,-0.57,
1.459,0.09,0.02,0.96,-0.11,0.40,-0.57,
1.46,0.09,0.02,0.96,-0.05,0.43,-0.52,
1.467,0.10,0.02,0.97,-0.05,0.43,-0.52,
1.468,0.10,0.03,0.97,-0.05,0.43,-0.52,
1.468,0.10,0.03,0.97,0.03,0.48,-0.45,
1.468,0.11,0.03,0.98,0.03,0.48,-0.45,
1.469,0.11,0.03,0.98,0.03,0.48,-0.45,
1.47,0.11,0.03,0.98,0.17,0.53,-0.37,
1.472,0.11,0.04,0.99,0.17,0.53,-0.37,
1.474,0.12,0.04,1.00,0.17,0.53,-0.37,
1.474,0.12,0.04,1.00,0.27,0.58,-0.27,
1.477,0.12,0.03,1.00,0.27,0.58,-0.27,
1.48,0.11,0.03,1.02,0.27,0.58,-0.27,
1.48,0.11,0.03,1.02,0.34,0.61,-0.16,
1.482,0.11,0.03,1.03,0.34,0.61,-0.16,
1.484,0.11,0.03,1.03,0.34,0.61,-0.16,
1.485,0.11,0.03,1.03,0.34,0.56,0.02,
1.487,0.11,0.03,1.04,0.34,0.56,0.02,
1.489,0.11,0.02,1.05,0.34,0.56,0.02,
1.49,0.11,0.02,1.05,0.31,0.51,0.23,
1.492,0.09,0.01,1.05,0.31,0.51,0.23,
1.494,0.08,0.01,1.05,0.31,0.51,0.23,
1.494,0.08,0.01,1.05,0.25,0.45,0.34,
1.498,0.08,-0.00,1.05,0.25,0.45,0.34,
1.5,0.07,-0.01,1.05,0.25,0.45,0.34,
1.5,0.07,-0.01,1.05,0.06,0.31,0.43,
1.502,0.06,-0.02,1.05,0.06,0.31,0.43,
1.505,0.05,-0.03,1.04,0.06,0.31,0.43,
1.506,0.05,-0.03,1.04,-0.08,0.13,0.41,
1.507,0.05,-0.04,1.04,-0.08,0.13,0.41,
1.509,0.05,-0.04,1.04,-0.08,0.13,0.41,
1.51,0.05,-0.04,1.04,-0.22,-0.04,0.37,
1.512,0.04,-0.05,1.03,-0.22,-0.04,0.37,
1.515,0.04,-0.05,1.03,-0.22,-0.04,0.37,
1.515,0.04,-0.05,1.03,-0.26,-0.21,0.31,
1.517,0.04,-0.05,1.02,-0.26,-0.21,0.31,
1.519,0.04,-0.06,1.02,-0.26,-0.21,0.31,
1.52,0.04,-0.06,1.02,-0.35,-0.34,0.19,
1.523,0.03,-0.06,1.01,-0.35,-0.34,0.19,
1.525,0.03,-0.06,1.01,-0.35,-0.34,0.19,
1.525,0.03,-0.06,1.01,-0.39,-0.42,0.09,
1.527,0.03,-0.06,1.00,-0.39,-0.42,0.09,
1.529,0.03,-0.06,1.01,-0.39,-0.42,0.09,
1.53,0.03,-0.06,1.01,-0.45,-0.49,0.02,
1.531,0.02,-0.06,1.01,-0.45,-0.49,0.02,
1.534,0.03,-0.06,1.00,-0.45,-0.49,0.02,
1.534,0.03,-0.06,1.00,-0.50,-0.49,-0.05,
1.537,0.03,-0.05,1.00,-0.50,-0.49,-0.05,
1.54,0.02,-0.05,1.00,-0.50,-0.49,-0.05,
1.54,0.02,-0.05,1.00,-0.53,-0.50,-0.04,
1.542,0.02,-0.05,1.00,-0.53,-0.50,-0.04,
1.544,0.02,-0.05,1.00,-0.53,-0.50,-0.04,
1.545,0.02,-0.05,1.00,-0.54,-0.46,-0.08,
1.549,0.03,-0.04,1.00,-0.54,-0.46,-0.08,
1.549,0.03,-0.04,1.00,-0.54,-0.46,-0.08,
1.549,0.03,-0.04,1.00,-0.57,-0.46,-0.07,
1.552,0.03,-0.04,1.01,-0.57,-0.46,-0.07,
1.555,0.03,-0.04,1.01,-0.53,-0.38,-0.10,
1.556,0.04,-0.03,1.00,-0.53,-0.38,-0.10,
1.557,0.05,-0.03,1.00,-0.53,-0.38,-0.10,
1.56,0.05,-0.03,1.00,-0.53,-0.38,-0.10,
1.56,0.05,-0.03,1.00,-0.47,-0.38,-0.05,
1.562,0.06,-0.02,1.00,-0.47,-0.38,-0.05,
1.565,0.07,-0.02,0.99,-0.47,-0.38,-0.05,
1.566,0.07,-0.02,0.99,-0.36,-0.35,-0.05,
1.567,0.08,-0.02,0.99,-0.36,-0.35,-0.05,
1.57,0.09,-0.00,0.98,-0.36,-0.35,-0.05,
1.57,0.09,-0.00,0.98,-0.23,-0.31,-0.11,
1.571,0.09,0.00,0.97,-0.23,-0.31,-0.11,
1.574,0.09,0.00,0.96,-0.23,-0.31,-0.11,
1.575,0.09,0.00,0.96,-0.04,-0.26,-0.23,
1.577,0.10,0.01,0.96,-0.04,-0.26,-0.23,
1.58,0.10,0.01,0.96,-0.04,-0.26,-0.23,
1.58,0.10,0.01,0.96,0.04,-0.15,-0.39,
1.587,0.11,0.02,0.95,0.04,-0.15,-0.39,
1.588,0.11,0.02,0.95,0.04,-0.15,-0.39,
1.588,0.11,0.02,0.95,0.13,-0.11,-0.46,
1.588,0.12,0.03,0.94,0.13,-0.11,-0.46,
1.589,0.12,0.02,0.95,0.13,-0.11,-0.46,
1.589,0.12,0.02,0.95,0.24,-0.03,-0.54,
1.591,0.12,0.02,0.94,0.24,-0.03,-0.54,
1.594,0.12,0.02,0.94,0.24,-0.03,-0.54,
1.594,0.12,0.02,0.94,0.33,-0.04,-0.61,
1.598,0.12,0.02,0.94,0.33,-0.04,-0.61,
1.599,0.11,0.02,0.94,0.33,-0.04,-0.61,
1.599,0.11,0.02,0.94,0.35,-0.10,-0.66,
1.602,0.10,0.01,0.94,0.35,-0.10,-0.66,
1.604,0.09,0.01,0.94,0.35,-0.10,-0.66,
1.604,0.09,0.01,0.94,0.30,-0.15,-0.66,
1.607,0.09,0.00,0.94,0.30,-0.15,-0.66,
1.609,0.07,-0.01,0.94,0.30,-0.15,-0.66,
1.609,0.07,-0.01,0.94,0.16,-0.23,-0.68,
1.611,0.06,-0.01,0.96,0.16,-0.23,-0.68,
1.613,0.05,-0.02,0.96,0.16,-0.23,-0.68,
1.613,0.05,-0.02,0.96,0.00,-0.34,-0.67,
1.617,0.04,-0.02,0.96,0.00,-0.34,-0.67,
1.619,0.03,-0.02,0.96,0.00,-0.34,-0.67,
1.619,0.03,-0.02,0.96,-0.23,-0.48,-0.49,
1.621,0.02,-0.03,0.96,-0.23,-0.48,-0.49,
1.624,0.01,-0.04,0.97,-0.23,-0.48,-0.49,
1.624,0.01,-0.04,0.97,-0.42,-0.58,-0.43,
1.627,0.00,-0.04,0.97,-0.42,-0.58,-0.43,
1.629,-0.00,-0.04,0.97,-0.42,-0.58,-0.43,
1.63,-0.00,-0.04,0.97,-0.55,-0.67,-0.40,
1.632,-0.01,-0.04,0.97,-0.55,-0.67,-0.40,
1.635,-0.01,-0.04,0.96,-0.55,-0.67,-0.40,
1.635,-0.01,-0.04,0.96,-0.72,-0.78,-0.38,
1.637,-0.01,-0.05,0.96,-0.72,-0.78,-0.38,
1.639,-0.01,-0.05,0.96,-0.72,-0.78,-0.38,
1.639,-0.01,-0.05,0.96,-0.75,-0.80,-0.40,
1.642,-0.01,-0.05,0.95,-0.75,-0.80,-0.40,
1.644,-0.00,-0.05,0.95,-0.75,-0.80,-0.40,
1.647,-0.00,-0.05,0.95,-0.75,-0.87,-0.43,
1.647,0.00,-0.04,0.95,-0.75,-0.87,-0.43,
1.651,0.01,-0.03,0.95,-0.75,-0.87,-0.43,
1.651,0.01,-0.03,0.95,-0.72,-0.86,-0.52,
1.651,0.01,-0.03,0.94,-0.72,-0.86,-0.52,
1.653,0.02,-0.03,0.93,-0.72,-0.86,-0.52,
1.654,0.02,-0.03,0.93,-0.63,-0.80,-0.58,
1.656,0.02,-0.03,0.93,-0.63,-0.80,-0.58,
1.659,0.03,-0.03,0.93,-0.63,-0.80,-0.58,
1.659,0.03,-0.03,0.93,-0.51,-0.71,-0.69,
1.661,0.03,-0.02,0.93,-0.51,-0.71,-0.69,
1.666,0.03,-0.02,0.92,-0.51,-0.71,-0.69,
1.666,0.03,-0.02,0.92,-0.41,-0.71,-0.75,
1.667,0.03,-0.02,0.92,-0.41,-0.71,-0.75,
1.669,0.03,-0.01,0.92,-0.41,-0.71,-0.75,
1.669,0.03,-0.01,0.92,-0.37,-0.68,-0.78,
1.671,0.03,-0.01,0.92,-0.37,-0.68,-0.78,
1.674,0.03,-0.01,0.92,-0.37,-0.68,-0.78,
1.674,0.03,-0.01,0.92,-0.30,-0.65,-0.83,
1.677,0.03,-0.01,0.92,-0.30,-0.65,-0.83,
1.679,0.03,-0.01,0.92,-0.30,-0.65,-0.83,
1.679,0.03,-0.01,0.92,-0.31,-0.64,-0.86,
1.681,0.02,-0.01,0.92,-0.31,-0.64,-0.86,
1.688,0.02,-0.01,0.93,-0.31,-0.64,-0.86,
1.689,0.02,-0.01,0.93,-0.33,-0.63,-0.86,
1.689,0.02,-0.01,0.93,-0.33,-0.63,-0.86,
1.689,0.02,-0.01,0.93,-0.38,-0.67,-0.77,
1.689,0.01,-0.01,0.92,-0.38,-0.67,-0.77,
1.691,0.01,-0.01,0.93,-0.38,-0.67,-0.77,
1.692,0.00,-0.01,0.93,-0.38,-0.67,-0.77,
1.693,0.00,-0.01,0.93,-0.45,-0.68,-0.77,
1.695,-0.00,-0.02,0.93,-0.45,-0.68,-0.77,
1.7,-0.01,-0.02,0.92,-0.45,-0.68,-0.77,
1.701,-0.01,-0.02,0.92,-0.54,-0.73,-0.75,
1.701,-0.01,-0.01,0.92,-0.54,-0.73,-0.75,
1.702,-0.01,-0.01,0.92,-0.54,-0.73,-0.75,
1.703,-0.01,-0.01,0.92,-0.61,-0.77,-0.79,
1.705,-0.02,-0.02,0.91,-0.61,-0.77,-0.79,
1.707,-0.02,-0.01,0.91,-0.61,-0.77,-0.79,
1.707,-0.02,-0.01,0.91,-0.66,-0.75,-0.84,
1.709,-0.02,-0.01,0.90,-0.66,-0.75,-0.84,
1.712,-0.02,-0.01,0.90,-0.66,-0.75,-0.84,
1.712,-0.02,-0.01,0.90,-0.69,-0.78,-0.93,
1.715,-0.02,-0.01,0.89,-0.69,-0.78,-0.93,
1.717,-0.02,-0.01,0.88,-0.69,-0.78,-0.93,
1.717,-0.02,-0.01,0.88,-0.72,-0.74,-1.03,
1.72,-0.02,-0.01,0.88,-0.72,-0.74,-1.03,
1.722,-0.03,-0.01,0.88,-0.72,-0.74,-1.03,
1.722,-0.03,-0.01,0.88,-0.69,-0.77,-1.12,
1.724,-0.03,-0.02,0.88,-0.69,-0.77,-1.12,
1.727,-0.03,-0.01,0.88,-0.69,-0.77,-1.12,
1.727,-0.03,-0.01,0.88,-0.71,-0.81,-1.19,
1.729,-0.04,-0.02,0.88,-0.71,-0.81,-1.19,
1.733,-0.04,-0.02,0.87,-0.71,-0.81,-1.19,
1.733,-0.04,-0.02,0.87,-0.73,-0.84,-1.22,
1.734,-0.04,-0.02,0.87,-0.73,-0.84,-1.22,
1.737,-0.04,-0.02,0.87,-0.73,-0.84,-1.22,
1.737,-0.04,-0.02,0.87,-0.78,-0.87,-1.26,
1.739,-0.04,-0.02,0.87,-0.78,-0.87,-1.26,
1.742,-0.04,-0.02,0.87,-0.78,-0.87,-1.26,
1.742,-0.04,-0.02,0.87,-0.81,-0.91,-1.28,
1.744,-0.05,-0.01,0.87,-0.81,-0.91,-1.28,
1.75,-0.05,-0.01,0.86,-0.81,-0.91,-1.28,
1.751,-0.05,-0.01,0.86,-0.84,-0.88,-1.31,
1.751,-0.05,-0.00,0.86,-0.84,-0.88,-1.31,
1.752,-0.05,0.00,0.87,-0.84,-0.88,-1.31,
1.753,-0.05,0.00,0.87,-0.86,-0.81,-1.32,
1.755,-0.05,0.00,0.88,-0.86,-0.81,-1.32,
1.757,-0.04,0.01,0.87,-0.86,-0.81,-1.32,
1.758,-0.04,0.01,0.87,-0.86,-0.73,-1.30,
1.759,-0.04,0.02,0.88,-0.86,-0.73,-1.30,
1.762,-0.04,0.02,0.89,-0.86,-0.73,-1.30,
1.762,-0.04,0.02,0.89,-0.80,-0.72,-1.22,
1.766,-0.03,0.02,0.89,-0.80,-0.72,-1.22,
1.767,-0.03,0.03,0.90,-0.80,-0.72,-1.22,
1.768,-0.03,0.03,0.90,-0.76,-0.61,-1.13,
1.769,-0.03,0.03,0.91,-0.76,-0.61,-1.13,
1.772,-0.03,0.03,0.91,-0.76,-0.61,-1.13,
1.773,-0.03,0.03,0.91,-0.64,-0.53,-1.04,
1.775,-0.02,0.03,0.92,-0.64,-0.53,-1.04,
1.777,-0.02,0.03,0.92,-0.64,-0.53,-1.04,
1.777,-0.02,0.03,0.92,-0.60,-0.47,-0.90,
1.779,-0.02,0.03,0.92,-0.60,-0.47,-0.90,
1.79,-0.02,0.03,0.93,-0.60,-0.47,-0.90,
1.79,-0.02,0.03,0.93,-0.53,-0.48,-0.80,
1.791,-0.03,0.03,0.94,-0.53,-0.48,-0.80,
1.791,-0.03,0.04,0.94,-0.53,-0.48,-0.80,
1.792,-0.03,0.04,0.94,-0.55,-0.47,-0.72,
1.792,-0.03,0.04,0.96,-0.55,-0.47,-0.72,
1.793,-0.03,0.04,0.95,-0.55,-0.47,-0.72,
1.793,-0.03,0.04,0.95,-0.61,-0.47,-0.57,
1.794,-0.03,0.04,0.95,-0.61,-0.47,-0.57,
1.797,-0.04,0.04,0.96,-0.61,-0.47,-0.57,
1.797,-0.04,0.04,0.96,-0.60,-0.45,-0.42,
1.808,-0.04,0.04,0.96,-0.60,-0.45,-0.42,
1.808,-0.03,0.04,0.95,-0.60,-0.45,-0.42,
1.809,-0.03,0.04,0.95,-0.62,-0.42,-0.42,
1.81,-0.03,0.04,0.95,-0.62,-0.42,-0.42,
1.81,-0.03,0.04,0.95,-0.62,-0.42,-0.42,
1.81,-0.03,0.04,0.95,-0.62,-0.43,-0.43,
1.82,-0.03,0.04,0.94,-0.62,-0.43,-0.43,
1.82,-0.03,0.04,0.93,-0.62,-0.43,-0.43,
1.821,-0.03,0.04,0.93,-0.60,-0.42,-0.48,
1.822,-0.03,0.05,0.92,-0.60,-0.42,-0.48,
1.822,-0.03,0.04,0.91,-0.60,-0.42,-0.48,
1.823,-0.03,0.04,0.91,-0.56,-0.40,-0.61,
1.823,-0.03,0.04,0.91,-0.56,-0.40,-0.61,
1.824,-0.03,0.05,0.90,-0.56,-0.40,-0.61,
1.824,-0.03,0.05,0.90,-0.53,-0.37,-0.78,
1.825,-0.03,0.05,0.89,-0.53,-0.37,-0.78,
1.83,-0.03,0.05,0.89,-0.53,-0.37,-0.78,
1.831,-0.03,0.05,0.89,-0.51,-0.38,-0.94,
1.831,-0.03,0.04,0.89,-0.51,-0.38,-0.94,
1.831,-0.04,0.05,0.88,-0.51,-0.38,-0.94,
1.832,-0.04,0.05,0.88,-0.53,-0.36,-1.06,
1.834,-0.03,0.05,0.88,-0.53,-0.36,-1.06,
1.837,-0.03,0.05,0.88,-0.55,-0.39,-1.12,
1.837,-0.04,0.05,0.87,-0.55,-0.39,-1.12,
1.839,-0.04,0.05,0.87,-0.55,-0.39,-1.12,
1.841,-0.04,0.05,0.87,-0.55,-0.39,-1.12,
1.842,-0.04,0.05,0.87,-0.56,-0.37,-1.20,
1.844,-0.04,0.06,0.87,-0.56,-0.37,-1.20,
1.849,-0.04,0.06,0.87,-0.56,-0.37,-1.20,
1.849,-0.04,0.06,0.87,-0.55,-0.31,-1.26,
1.85,-0.04,0.06,0.86,-0.55,-0.31,-1.26,
1.852,-0.04,0.06,0.87,-0.55,-0.31,-1.26,
1.852,-0.04,0.06,0.87,-0.59,-0.30,-1.26,
1.853,-0.04,0.06,0.87,-0.59,-0.30,-1.26,
1.856,-0.04,0.07,0.87,-0.59,-0.30,-1.26,
1.856,-0.04,0.07,0.87,-0.55,-0.24,-1.28,
1.859,-0.04,0.07,0.87,-0.55,-0.24,-1.28,
1.861,-0.04,0.07,0.88,-0.55,-0.24,-1.28,
1.861,-0.04,0.07,0.88,-0.55,-0.22,-1.28,
1.864,-0.03,0.07,0.88,-0.55,-0.22,-1.28,
1.866,-0.03,0.07,0.88,-0.55,-0.22,-1.28,
1.867,-0.03,0.07,0.88,-0.55,-0.19,-1.19,
1.868,-0.03,0.07,0.89,-0.55,-0.19,-1.19,
1.871,-0.03,0.07,0.90,-0.55,-0.19,-1.19,
1.871,-0.03,0.07,0.90,-0.49,-0.22,-1.12,
1.874,-0.03,0.07,0.90,-0.49,-0.22,-1.12,
1.876,-0.03,0.07,0.91,-0.49,-0.22,-1.12,
1.877,-0.03,0.07,0.91,-0.46,-0.20,-1.01,
1.879,-0.02,0.08,0.92,-0.46,-0.20,-1.01,
1.886,-0.02,0.08,0.92,-0.46,-0.20,-1.01,
1.886,-0.02,0.08,0.92,-0.43,-0.19,-0.87,
1.887,-0.02,0.08,0.92,-0.43,-0.19,-0.87,
1.887,-0.02,0.08,0.93,-0.43,-0.19,-0.87,
1.887,-0.02,0.08,0.93,-0.35,-0.12,-0.73,
1.888,-0.02,0.08,0.93,-0.35,-0.12,-0.73,
1.891,-0.02,0.08,0.94,-0.35,-0.12,-0.73,
1.891,-0.02,0.08,0.94,-0.37,-0.08,-0.68,
1.893,-0.02,0.09,0.94,-0.37,-0.08,-0.68,
1.897,-0.02,0.09,0.94,-0.37,-0.08,-0.68,
1.897,-0.02,0.09,0.94,-0.35,-0.05,-0.59,
1.899,-0.01,0.09,0.95,-0.35,-0.05,-0.59,
1.9,-0.01,0.09,0.95,-0.33,-0.00,-0.54,
1.901,-0.01,0.09,0.95,-0.33,-0.00,-0.54,
1.903,-0.01,0.10,0.95,-0.33,-0.00,-0.54,
1.906,-0.01,0.10,0.95,-0.33,-0.00,-0.54,
1.906,-0.01,0.10,0.95,-0.25,0.06,-0.44,
1.908,-0.00,0.10,0.95,-0.25,0.06,-0.44,
1.911,-0.00,0.10,0.94,-0.25,0.06,-0.44,
1.911,-0.00,0.10,0.94,-0.25,0.15,-0.48,
1.913,-0.00,0.11,0.94,-0.25,0.15,-0.48,
1.916,-0.00,0.11,0.94,-0.25,0.15,-0.48,
1.916,-0.00,0.11,0.94,-0.15,0.16,-0.47,
1.918,0.00,0.10,0.94,-0.15,0.16,-0.47,
1.921,0.01,0.11,0.93,-0.15,0.16,-0.47,
1.921,0.01,0.11,0.93,-0.12,0.21,-0.53,
1.923,0.00,0.10,0.93,-0.12,0.21,-0.53,
1.926,0.00,0.10,0.93,-0.12,0.21,-0.53,
1.926,0.00,0.10,0.93,-0.03,0.21,-0.58,
1.928,-0.00,0.10,0.93,-0.03,0.21,-0.58,
1.93,-0.00,0.09,0.94,-0.03,0.21,-0.58,
1.931,-0.00,0.09,0.94,-0.04,0.16,-0.62,
1.933,-0.01,0.09,0.93,-0.04,0.16,-0.62,
1.935,-0.01,0.09,0.93,-0.04,0.16,-0.62,
1.935,-0.01,0.09,0.93,-0.07,0.10,-0.59,
1.938,-0.02,0.09,0.93,-0.07,0.10,-0.59,
1.94,-0.03,0.09,0.93,-0.07,0.10,-0.59,
1.941,-0.03,0.09,0.93,-0.15,0.07,-0.63,
1.943,-0.03,0.08,0.93,-0.15,0.07,-0.63,
1.945,-0.04,0.08,0.92,-0.15,0.07,-0.63,
1.946,-0.04,0.08,0.92,-0.25,0.04,-0.67,
1.948,-0.05,0.08,0.92,-0.25,0.04,-0.67,
1.95,-0.06,0.08,0.92,-0.25,0.04,-0.67,
1.95,-0.06,0.08,0.92,-0.36,-0.00,-0.68,
1.952,-0.07,0.08,0.91,-0.36,-0.00,-0.68,
1.955,-0.07,0.08,0.92,-0.36,-0.00,-0.68,
1.956,-0.07,0.08,0.92,-0.51,-0.04,-0.73,
1.957,-0.08,0.07,0.90,-0.51,-0.04,-0.73,
1.96,-0.08,0.07,0.90,-0.51,-0.04,-0.73,
1.961,-0.08,0.07,0.90,-0.66,-0.09,-0.79,
1.964,-0.08,0.07,0.89,-0.66,-0.09,-0.79,
1.966,-0.08,0.07,0.88,-0.66,-0.09,-0.79,
1.966,-0.08,0.07,0.88,-0.72,-0.13,-0.92,
1.967,-0.08,0.07,0.87,-0.72,-0.13,-0.92,
1.97,-0.08,0.07,0.87,-0.72,-0.13,-0.92,
1.97,-0.08,0.07,0.87,-0.76,-0.15,-1.03,
1.973,-0.08,0.07,0.86,-0.76,-0.15,-1.03,
1.975,-0.08,0.07,0.84,-0.76,-0.15,-1.03,
1.975,-0.08,0.07,0.84,-0.72,-0.16,-1.22,
1.977,-0.08,0.08,0.83,-0.72,-0.16,-1.22,
1.98,-0.07,0.08,0.82,-0.72,-0.16,-1.22,
1.981,-0.07,0.08,0.82,-0.66,-0.17,-1.39,
1.989,-0.07,0.08,0.81,-0.66,-0.17,-1.39,
1.989,-0.06,0.08,0.80,-0.66,-0.17,-1.39,
1.99,-0.06,0.08,0.80,-0.62,-0.15,-1.64,
1.99,-0.06,0.09,0.80,-0.62,-0.15,-1.64,
1.99,-0.06,0.10,0.78,-0.62,-0.15,-1.64,
1.99,-0.06,0.10,0.78,-0.52,-0.12,-1.81,
1.992,-0.06,0.10,0.78,-0.52,-0.12,-1.81,
1.994,-0.06,0.10,0.77,-0.52,-0.12,-1.81,
1.995,-0.06,0.10,0.77,-0.47,-0.05,-1.97,
1.997,-0.06,0.11,0.77,-0.47,-0.05,-1.97,
1.999,-0.05,0.12,0.77,-0.47,-0.05,-1.97,
2.0,-0.05,0.12,0.77,-0.44,-0.00,-2.13,
2.001,-0.05,0.12,0.78,-0.44,-0.00,-2.13,
2.005,-0.05,0.12,0.78,-0.44,-0.00,-2.13,
2.005,-0.05,0.12,0.78,-0.42,0.12,-2.13,
2.006,-0.05,0.13,0.79,-0.42,0.12,-2.13,
2.009,-0.04,0.12,0.80,-0.42,0.12,-2.13,
2.01,-0.04,0.12,0.80,-0.35,0.18,-2.08,
2.012,-0.03,0.13,0.80,-0.35,0.18,-2.08,
2.015,-0.03,0.13,0.81,-0.35,0.18,-2.08,
2.015,-0.03,0.13,0.81,-0.30,0.22,-1.90,
2.018,-0.02,0.13,0.83,-0.30,0.22,-1.90,
2.019,-0.02,0.13,0.84,-0.30,0.22,-1.90,
2.019,-0.02,0.13,0.84,-0.22,0.26,-1.76,
2.021,-0.02,0.13,0.86,-0.22,0.26,-1.76,
2.024,-0.02,0.13,0.88,-0.22,0.26,-1.76,
2.024,-0.02,0.13,0.88,-0.09,0.27,-1.50,
2.026,-0.01,0.13,0.89,-0.09,0.27,-1.50,
2.029,-0.02,0.12,0.91,-0.09,0.27,-1.50,
2.029,-0.02,0.12,0.91,-0.10,0.24,-1.15,
2.033,-0.02,0.11,0.92,-0.10,0.24,-1.15,
2.035,-0.03,0.11,0.94,-0.10,0.24,-1.15,
2.035,-0.03,0.11,0.94,-0.07,0.20,-0.87,
2.036,-0.03,0.11,0.96,-0.07,0.20,-0.87,
2.038,-0.03,0.10,0.97,-0.07,0.20,-0.87,
2.039,-0.03,0.10,0.97,-0.14,0.12,-0.55,
2.041,-0.03,0.10,0.99,-0.14,0.12,-0.55,
2.044,-0.03,0.10,1.00,-0.14,0.12,-0.55,
2.044,-0.03,0.10,1.00,-0.21,0.02,-0.20,
2.046,-0.04,0.09,1.00,-0.21,0.02,-0.20,
2.049,-0.04,0.08,1.01,-0.21,0.02,-0.20,
2.05,-0.04,0.08,1.01,-0.24,-0.02,0.05,
2.051,-0.04,0.09,1.01,-0.24,-0.02,0.05,
2.054,-0.04,0.09,1.01,-0.24,-0.02,0.05,
2.054,-0.04,0.09,1.01,-0.29,-0.11,0.15,
2.056,-0.04,0.08,1.01,-0.29,-0.11,0.15,
2.059,-0.05,0.08,1.00,-0.29,-0.11,0.15,
2.059,-0.05,0.08,1.00,-0.33,-0.13,0.22,
2.061,-0.05,0.08,1.00,-0.33,-0.13,0.22,
2.063,-0.05,0.08,0.99,-0.33,-0.13,0.22,
2.063,-0.05,0.08,0.99,-0.35,-0.19,0.20,
2.067,-0.05,0.08,0.99,-0.35,-0.19,0.20,
2.068,-0.05,0.08,0.98,-0.35,-0.19,0.20,
2.069,-0.05,0.08,0.98,-0.39,-0.20,0.06,
2.071,-0.05,0.08,0.97,-0.39,-0.20,0.06,
2.074,-0.05,0.08,0.96,-0.39,-0.20,0.06,
2.074,-0.05,0.08,0.96,-0.38,-0.22,-0.04,
2.076,-0.05,0.08,0.96,-0.38,-0.22,-0.04,
2.078,-0.05,0.08,0.95,-0.38,-0.22,-0.04,
2.078,-0.05,0.08,0.95,-0.38,-0.23,-0.20,
2.082,-0.05,0.09,0.94,-0.38,-0.23,-0.20,
2.087,-0.05,0.09,0.93,-0.38,-0.23,-0.20,
2.091,-0.05,0.09,0.93,-0.35,-0.22,-0.33,
2.091,-0.04,0.10,0.93,-0.35,-0.22,-0.33,
2.091,-0.04,0.10,0.92,-0.35,-0.22,-0.33,
2.092,-0.04,0.10,0.92,-0.33,-0.14,-0.53,
2.092,-0.04,0.10,0.92,-0.33,-0.14,-0.53,
2.093,-0.04,0.10,0.91,-0.33,-0.14,-0.53,
2.094,-0.04,0.10,0.91,-0.29,-0.08,-0.61,
2.096,-0.04,0.10,0.91,-0.29,-0.08,-0.61,
2.099,-0.03,0.11,0.90,-0.29,-0.08,-0.61,
2.099,-0.03,0.11,0.90,-0.25,-0.06,-0.68,
2.101,-0.03,0.11,0.91,-0.25,-0.06,-0.68,
2.103,-0.02,0.11,0.90,-0.25,-0.06,-0.68,
2.104,-0.02,0.11,0.90,-0.20,-0.03,-0.77,
2.106,-0.01,0.11,0.90,-0.20,-0.03,-0.77,
2.108,-0.02,0.11,0.90,-0.20,-0.03,-0.77,
2.108,-0.02,0.11,0.90,-0.12,-0.02,-0.78,
2.111,-0.02,0.11,0.90,-0.12,-0.02,-0.78,
2.113,-0.01,0.12,0.90,-0.12,-0.02,-0.78,
2.114,-0.01,0.12,0.90,-0.02,0.02,-0.83,
2.116,-0.01,0.12,0.90,-0.02,0.02,-0.83,
2.118,-0.02,0.12,0.90,-0.02,0.02,-0.83,
2.118,-0.02,0.12,0.90,-0.01,0.02,-0.82,
2.121,-0.01,0.12,0.90,-0.01,0.02,-0.82,
2.123,-0.01,0.13,0.90,-0.01,0.02,-0.82,
2.124,-0.01,0.13,0.90,-0.01,0.06,-0.79,
2.126,-0.02,0.12,0.91,-0.01,0.06,-0.79,
2.129,-0.02,0.12,0.91,-0.01,0.06,-0.79,
2.129,-0.02,0.12,0.91,0.02,0.09,-0.76,
2.131,-0.01,0.13,0.92,0.02,0.09,-0.76,
2.133,-0.02,0.13,0.93,0.02,0.09,-0.76,
2.134,-0.02,0.13,0.93,-0.04,0.09,-0.65,
2.136,-0.02,0.13,0.92,-0.04,0.09,-0.65,
2.138,-0.01,0.12,0.93,-0.04,0.09,-0.65,
2.141,-0.01,0.12,0.93,-0.01,0.14,-0.56,
2.141,-0.01,0.13,0.94,-0.01,0.14,-0.56,
2.144,-0.02,0.13,0.95,-0.01,0.14,-0.56,
2.144,-0.02,0.13,0.95,-0.01,0.11,-0.53,
2.146,-0.02,0.12,0.96,-0.01,0.11,-0.53,
2.15,-0.01,0.12,0.97,-0.01,0.11,-0.53,
2.151,-0.01,0.12,0.97,-0.02,0.16,-0.35,
2.151,-0.02,0.12,0.97,-0.02,0.16,-0.35,
2.153,-0.03,0.12,0.98,-0.02,0.16,-0.35,
2.153,-0.03,0.12,0.98,-0.03,0.09,-0.14,
2.156,-0.02,0.12,0.99,-0.03,0.09,-0.14,
2.158,-0.02,0.12,0.99,-0.03,0.09,-0.14,
2.159,-0.02,0.12,0.99,-0.09,0.10,-0.04,
2.161,-0.02,0.12,0.99,-0.09,0.10,-0.04,
2.163,-0.03,0.11,0.99,-0.09,0.10,-0.04,
2.164,-0.03,0.11,0.99,-0.10,0.08,0.08,
2.165,-0.03,0.11,1.00,-0.10,0.08,0.08,
2.168,-0.03,0.11,1.00,-0.10,0.08,0.08,
2.168,-0.03,0.11,1.00,-0.12,0.02,0.11,
2.171,-0.04,0.11,1.00,-0.12,0.02,0.11,
2.174,-0.04,0.11,1.00,-0.19,0.02,0.23,
2.174,-0.04,0.11,1.01,-0.19,0.02,0.23,
2.176,-0.04,0.11,1.00,-0.19,0.02,0.23,
2.179,-0.05,0.11,1.01,-0.19,0.02,0.23,
2.179,-0.05,0.11,1.01,-0.25,-0.03,0.24,
2.181,-0.05,0.12,1.01,-0.25,-0.03,0.24,
2.187,-0.05,0.11,1.00,-0.25,-0.03,0.24,
2.188,-0.05,0.11,1.00,-0.29,-0.01,0.25,
2.188,-0.05,0.11,1.01,-0.29,-0.01,0.25,
2.189,-0.05,0.12,1.01,-0.29,-0.01,0.25,
2.189,-0.05,0.12,1.01,-0.33,0.03,0.25,
2.19,-0.05,0.12,1.01,-0.33,0.03,0.25,
2.193,-0.05,0.12,1.01,-0.33,0.03,0.25,
2.193,-0.05,0.12,1.01,-0.34,0.04,0.27,
2.195,-0.05,0.12,1.01,-0.34,0.04,0.27,
2.197,-0.05,0.12,1.01,-0.33,0.07,0.26,
2.198,-0.05,0.12,1.00,-0.33,0.07,0.26,
2.2,-0.05,0.13,1.00,-0.33,0.07,0.26,
2.202,-0.04,0.12,1.00,-0.33,0.07,0.26,
2.203,-0.04,0.12,1.00,-0.35,0.11,0.24,
2.206,-0.04,0.13,1.00,-0.35,0.11,0.24,
2.207,-0.04,0.13,0.99,-0.35,0.11,0.24,
2.208,-0.04,0.13,0.99,-0.30,0.12,0.21,
2.21,-0.03,0.13,0.99,-0.30,0.12,0.21,
2.213,-0.03,0.13,0.99,-0.30,0.12,0.21,
2.213,-0.03,0.13,0.99,-0.23,0.18,0.14,
2.215,-0.02,0.13,0.98,-0.23,0.18,0.14,
2.218,-0.02,0.14,0.98,-0.23,0.18,0.14,
2.218,-0.02,0.14,0.98,-0.15,0.18,0.09,
2.22,-0.02,0.13,0.97,-0.15,0.18,0.09,
2.223,-0.01,0.13,0.97,-0.15,0.18,0.09,
2.223,-0.01,0.13,0.97,-0.06,0.19,-0.01,
2.225,-0.01,0.13,0.97,-0.06,0.19,-0.01,
2.228,-0.01,0.13,0.97,-0.06,0.19,-0.01,
2.228,-0.01,0.13,0.97,0.01,0.17,-0.12,
2.23,-0.01,0.13,0.96,0.01,0.17,-0.12,
2.234,-0.01,0.14,0.96,0.01,0.17,-0.12,
2.234,-0.01,0.14,0.96,0.07,0.16,-0.14,
2.235,-0.00,0.14,0.96,0.07,0.16,-0.14,
2.237,-0.01,0.13,0.96,0.07,0.16,-0.14,
2.238,-0.01,0.13,0.96,0.08,0.14,-0.20,
2.24,-0.01,0.14,0.95,0.08,0.14,-0.20,
2.242,-0.01,0.14,0.95,0.08,0.14,-0.20,
2.243,-0.01,0.14,0.95,0.10,0.17,-0.22,
2.245,-0.01,0.14,0.95,0.10,0.17,-0.22,
2.247,-0.01,0.14,0.95,0.05,0.16,-0.26,
2.248,-0.01,0.14,0.95,0.05,0.16,-0.26,
2.25,-0.02,0.14,0.95,0.05,0.16,-0.26,
2.252,-0.03,0.13,0.94,0.05,0.16,-0.26,
2.252,-0.03,0.13,0.94,0.02,0.18,-0.27,
2.255,-0.03,0.13,0.95,0.02,0.18,-0.27,
2.257,-0.03,0.13,0.94,0.02,0.18,-0.27,
2.258,-0.03,0.13,0.94,-0.09,0.15,-0.32,
2.26,-0.04,0.13,0.94,-0.09,0.15,-0.32,
2.262,-0.04,0.13,0.94,-0.09,0.15,-0.32,
2.263,-0.04,0.13,0.94,-0.12,0.11,-0.32,
2.265,-0.04,0.13,0.94,-0.12,0.11,-0.32,
2.267,-0.03,0.13,0.94,-0.12,0.11,-0.32,
2.268,-0.03,0.13,0.94,-0.20,0.10,-0.33,
2.27,-0.04,0.12,0.94,-0.20,0.10,-0.33,
2.272,-0.04,0.12,0.94,-0.20,0.10,-0.33,
2.273,-0.04,0.12,0.94,-0.19,0.04,-0.37,
2.275,-0.04,0.12,0.95,-0.19,0.04,-0.37,
2.278,-0.03,0.12,0.94,-0.19,0.04,-0.37,
2.278,-0.03,0.12,0.94,-0.21,-0.00,-0.35,
2.28,-0.03,0.12,0.94,-0.21,-0.00,-0.35,
2.282,-0.03,0.12,0.94,-0.18,-0.01,-0.32,
2.283,-0.03,0.12,0.94,-0.18,-0.01,-0.32,
2.29,-0.02,0.12,0.94,-0.18,-0.01,-0.32,
2.29,-0.03,0.12,0.95,-0.18,-0.01,-0.32,
2.291,-0.03,0.12,0.95,-0.12,-0.03,-0.33,
2.291,-0.03,0.12,0.96,-0.12,-0.03,-0.33,
2.292,-0.03,0.12,0.96,-0.12,-0.03,-0.33,
2.292,-0.03,0.12,0.96,-0.10,-0.04,-0.28,
2.294,-0.02,0.12,0.96,-0.10,-0.04,-0.28,
2.297,-0.02,0.13,0.96,-0.10,-0.04,-0.28,
2.297,-0.02,0.13,0.96,-0.12,-0.03,-0.17,
2.301,-0.02,0.13,0.96,-0.12,-0.03,-0.17,
2.301,-0.02,0.13,0.96,-0.12,-0.03,-0.17,
2.302,-0.02,0.13,0.96,-0.08,0.01,-0.13,
2.305,-0.03,0.13,0.98,-0.08,0.01,-0.13,
2.307,-0.03,0.13,0.99,-0.08,0.01,-0.13,
2.308,-0.03,0.13,0.99,-0.08,0.03,-0.12,
2.309,-0.03,0.13,0.99,-0.08,0.03,-0.12,
2.311,-0.02,0.13,0.99,-0.08,0.03,-0.12,
2.312,-0.02,0.13,0.99,-0.12,0.07,0.08,
2.314,-0.03,0.13,1.00,-0.12,0.07,0.08,
2.317,-0.03,0.13,1.00,-0.12,0.07,0.08,
2.317,-0.03,0.13,1.00,-0.11,0.05,0.13,
2.32,-0.03,0.13,1.00,-0.11,0.05,0.13,
2.323,-0.03,0.13,1.00,-0.11,0.05,0.13,
2.323,-0.03,0.13,1.00,-0.14,0.06,0.19,
2.324,-0.02,0.13,1.00,-0.14,0.06,0.19,
2.326,-0.02,0.13,1.00,-0.14,0.06,0.19,
2.327,-0.02,0.13,1.00,-0.19,0.06,0.23,
2.329,-0.02,0.13,1.00,-0.19,0.06,0.23,
2.331,-0.02,0.12,1.00,-0.19,0.06,0.23,
2.331,-0.02,0.12,1.00,-0.08,0.04,0.22,
2.334,-0.02,0.12,1.00,-0.08,0.04,0.22,
2.336,-0.01,0.12,1.00,-0.08,0.04,0.22,
2.336,-0.01,0.12,1.00,-0.11,0.01,0.26,
2.339,-0.01,0.12,1.00,-0.11,0.01,0.26,
2.341,-0.01,0.12,0.99,-0.11,0.01,0.26,
2.341,-0.01,0.12,0.99,-0.05,-0.05,0.20,
2.343,-0.01,0.12,0.99,-0.05,-0.05,0.20,
2.346,-0.01,0.12,0.99,-0.05,-0.05,0.20,
2.346,-0.01,0.12,0.99,0.03,-0.05,0.16,
2.349,-0.01,0.12,0.99,0.03,-0.05,0.16,
2.351,-0.00,0.12,0.99,0.03,-0.05,0.16,
2.352,-0.00,0.12,0.99,0.05,-0.06,0.13,
2.354,0.00,0.12,0.99,0.05,-0.06,0.13,
2.356,-0.00,0.12,0.99,0.05,-0.06,0.13,
2.357,-0.00,0.12,0.99,0.07,-0.07,0.09,
2.359,-0.00,0.12,0.98,0.07,-0.07,0.09,
2.361,-0.00,0.11,0.99,0.07,-0.07,0.09,
2.362,-0.00,0.11,0.99,0.11,-0.06,0.11,
2.364,-0.00,0.11,0.98,0.11,-0.06,0.11,
2.366,-0.00,0.12,0.98,0.11,-0.06,0.11,
2.369,-0.00,0.12,0.98,0.10,-0.09,0.07,
2.37,-0.01,0.11,0.99,0.10,-0.09,0.07,
2.371,-0.01,0.11,0.99,0.10,-0.11,0.05,
2.371,-0.01,0.11,0.99,0.10,-0.11,0.05,
2.374,-0.01,0.11,0.99,0.10,-0.11,0.05,
2.376,-0.01,0.11,0.99,0.10,-0.11,0.05,
2.377,-0.01,0.11,0.99,0.04,-0.14,0.11,
2.379,-0.01,0.11,0.99,0.04,-0.14,0.11,
2.381,-0.01,0.11,1.00,0.04,-0.14,0.11,
2.382,-0.01,0.11,1.00,-0.01,-0.11,0.13,
2.388,-0.01,0.11,1.01,-0.01,-0.11,0.13,
2.388,-0.02,0.11,1.01,-0.01,-0.11,0.13,
2.389,-0.02,0.11,1.01,-0.01,-0.13,0.19,
2.389,-0.02,0.11,1.01,-0.01,-0.13,0.19,
2.391,-0.02,0.10,1.01,-0.01,-0.13,0.19,
2.391,-0.02,0.10,1.01,-0.06,-0.15,0.27,
2.393,-0.02,0.10,1.02,-0.06,-0.15,0.27,
2.396,-0.02,0.10,1.01,-0.06,-0.15,0.27,
2.396,-0.02,0.10,1.01,-0.07,-0.19,0.33,
2.399,-0.02,0.10,1.02,-0.07,-0.19,0.33,
2.401,-0.02,0.11,1.01,-0.07,-0.19,0.33,
2.402,-0.02,0.11,1.01,-0.12,-0.25,0.34,
2.404,-0.02,0.11,1.02,-0.12,-0.25,0.34,
2.405,-0.01,0.10,1.02,-0.12,-0.25,0.34,
2.406,-0.01,0.10,1.02,-0.11,-0.18,0.35,
2.409,-0.01,0.10,1.02,-0.11,-0.18,0.35,
2.411,-0.01,0.10,1.02,-0.11,-0.18,0.35,
2.411,-0.01,0.10,1.02,-0.05,-0.18,0.37,
2.413,-0.01,0.11,1.02,-0.05,-0.18,0.37,
2.416,-0.01,0.12,1.02,-0.05,-0.18,0.37,
2.416,-0.01,0.12,1.02,0.00,-0.21,0.41,
2.419,-0.01,0.11,1.02,0.00,-0.21,0.41,
2.421,-0.00,0.12,1.02,0.00,-0.21,0.41,
2.422,-0.00,0.12,1.02,0.03,-0.09,0.39,
2.423,-0.00,0.12,1.01,0.03,-0.09,0.39,
2.426,-0.00,0.13,1.01,0.03,-0.09,0.39,
2.426,-0.00,0.13,1.01,0.04,-0.08,0.37,
2.428,0.00,0.13,1.01,0.04,-0.08,0.37,
2.43,0.00,0.13,1.01,0.04,-0.08,0.37,
2.431,0.00,0.13,1.01,0.07,0.01,0.32,
2.433,0.01,0.14,1.01,0.07,0.01,0.32,
2.436,0.01,0.14,1.01,0.14,0.06,0.31,
2.437,0.01,0.14,1.01,0.14,0.06,0.31,
2.438,0.01,0.14,1.00,0.14,0.06,0.31,
2.44,0.01,0.15,1.01,0.14,0.06,0.31,
2.441,0.01,0.15,1.01,0.18,0.14,0.29,
2.443,0.01,0.15,1.01,0.18,0.14,0.29,
2.446,0.01,0.15,1.01,0.22,0.20,0.24,
2.446,0.01,0.15,1.01,0.22,0.20,0.24,
2.449,0.01,0.15,0.99,0.22,0.20,0.24,
2.452,0.02,0.15,0.96,0.22,0.20,0.24,
2.453,0.02,0.15,0.96,0.19,0.23,0.25,
2.453,0.03,0.15,0.91,0.19,0.23,0.25,
2.455,0.03,0.16,0.88,0.19,0.23,0.25,
2.456,0.03,0.16,0.88,0.27,0.26,-0.05,
2.458,0.03,0.16,0.88,0.27,0.26,-0.05,
2.461,0.02,0.15,0.90,0.27,0.26,-0.05,
2.461,0.02,0.15,0.90,0.41,0.30,-0.86,
2.463,0.02,0.15,0.92,0.41,0.30,-0.86,
2.466,0.00,0.15,0.94,0.41,0.30,-0.86,
2.466,0.00,0.15,0.94,0.37,0.28,-0.91,
2.469,-0.01,0.15,0.95,0.37,0.28,-0.91,
2.473,-0.01,0.15,0.95,0.19,0.26,-0.47,
2.473,-0.01,0.16,0.94,0.19,0.26,-0.47,
2.474,-0.01,0.16,0.94,0.19,0.26,-0.47,
2.475,-0.02,0.16,0.94,0.19,0.26,-0.47,
2.475,-0.02,0.16,0.94,0.04,0.27,-0.34,
2.48,-0.01,0.16,0.95,0.04,0.27,-0.34,
2.48,-0.01,0.15,0.95,0.04,0.27,-0.34,
2.481,-0.01,0.15,0.95,-0.04,0.33,-0.37,
2.482,-0.01,0.15,0.96,-0.04,0.33,-0.37,
2.488,-0.01,0.15,0.97,-0.04,0.33,-0.37,
2.488,-0.01,0.15,0.97,-0.02,0.29,-0.28,
2.489,-0.00,0.14,0.99,-0.02,0.29,-0.28,
2.497,-0.01,0.14,1.00,-0.02,0.29,-0.28,
2.497,-0.01,0.14,1.00,-0.00,0.24,-0.12,
2.498,-0.02,0.13,1.02,-0.00,0.24,-0.12,
2.498,-0.02,0.13,1.04,-0.00,0.24,-0.12,
2.498,-0.02,0.13,1.04,0.02,0.15,0.14,
2.498,-0.03,0.13,1.04,0.02,0.15,0.14,
2.509,-0.02,0.13,1.05,0.02,0.15,0.14,
2.509,-0.02,0.13,1.05,-0.10,0.03,0.51,
2.509,-0.01,0.13,1.06,-0.10,0.03,0.51,
2.51,-0.01,0.13,1.07,-0.10,0.03,0.51,
2.51,-0.01,0.13,1.07,-0.15,0.04,0.67,
2.51,0.01,0.13,1.07,-0.15,0.04,0.67,
2.51,0.01,0.13,1.07,-0.15,0.04,0.67,
2.51,0.01,0.13,1.07,-0.02,0.07,0.84,
2.512,0.03,0.13,1.07,-0.02,0.07,0.84,
2.515,0.04,0.13,1.06,-0.02,0.07,0.84,
2.515,0.04,0.13,1.06,0.18,0.06,0.86,
2.526,0.05,0.13,1.05,0.18,0.06,0.86,
2.528,0.05,0.13,1.05,0.40,0.04,0.83,
2.528,0.05,0.13,1.05,0.40,0.04,0.83,
2.528,0.06,0.13,1.04,0.40,0.04,0.83,
2.529,0.06,0.13,1.03,0.40,0.04,0.83,
2.529,0.06,0.13,1.03,0.57,0.05,0.65,
2.529,0.05,0.13,1.02,0.57,0.05,0.65,
2.529,0.04,0.13,1.02,0.57,0.05,0.65,
2.529,0.04,0.13,1.02,0.63,0.03,0.47,
2.531,0.05,0.13,1.01,0.63,0.03,0.47,
2.543,0.04,0.14,0.99,0.63,0.03,0.47,
2.544,0.04,0.14,0.99,0.56,0.03,0.33,
2.544,0.04,0.14,0.99,0.56,0.03,0.33,
2.545,0.03,0.14,0.98,0.56,0.03,0.33,
2.545,0.03,0.14,0.98,0.49,0.05,0.15,
2.545,0.02,0.14,0.98,0.49,0.05,0.15,
2.545,0.02,0.14,0.97,0.49,0.05,0.15,
2.546,0.02,0.14,0.97,0.40,0.06,0.04,
2.546,0.02,0.14,0.98,0.40,0.06,0.04,
