
time,gFx,gFy,gFz,ax,ay,az,
0.004,0.00,0.11,1.00,-0.28,-0.38,0.11,
0.005,0.00,0.12,1.00,-0.28,-0.38,0.11,
0.005,0.00,0.12,1.00,-0.36,-0.37,0.13,
0.005,0.01,0.13,1.00,-0.36,-0.37,0.13,
0.005,0.01,0.13,1.00,-0.36,-0.37,0.13,
0.006,0.01,0.13,1.00,-0.32,-0.35,0.17,
0.012,0.02,0.14,1.00,-0.32,-0.35,0.17,
0.012,0.01,0.14,1.01,-0.32,-0.35,0.17,
0.013,0.01,0.14,1.01,-0.24,-0.21,0.16,
0.013,0.02,0.15,1.00,-0.24,-0.21,0.16,
0.014,0.02,0.15,0.99,-0.24,-0.21,0.16,
0.014,0.02,0.15,0.99,-0.17,-0.11,0.17,
0.016,0.03,0.15,0.99,-0.17,-0.11,0.17,
0.019,0.03,0.15,0.99,-0.17,-0.11,0.17,
0.019,0.03,0.15,0.99,-0.11,-0.02,0.12,
0.022,0.04,0.16,0.99,-0.11,-0.02,0.12,
0.03,0.04,0.15,0.99,-0.11,-0.02,0.12,
0.031,0.04,0.15,0.99,-0.01,0.03,0.08,
0.031,0.05,0.16,0.98,-0.01,0.03,0.08,
0.031,0.05,0.16,0.99,-0.01,0.03,0.08,
0.031,0.05,0.16,0.99,0.13,0.04,0.04,
0.032,0.05,0.16,1.00,0.13,0.04,0.04,
0.034,0.06,0.16,1.00,0.13,0.04,0.04,
0.034,0.06,0.16,1.00,0.24,0.08,0.01,
0.036,0.06,0.16,1.00,0.24,0.08,0.01,
0.051,0.05,0.16,1.00,0.24,0.08,0.01,
0.052,0.05,0.16,1.00,0.29,0.09,0.12,
0.052,0.04,0.16,1.00,0.29,0.09,0.12,
0.052,0.04,0.16,1.00,0.29,0.09,0.12,
0.052,0.04,0.16,1.00,0.29,0.12,0.12,
0.052,0.02,0.16,0.99,0.29,0.12,0.12,
0.052,0.01,0.16,1.00,0.29,0.12,0.12,
0.052,0.01,0.16,1.00,0.17,0.13,0.10,
0.052,0.01,0.16,1.00,0.17,0.13,0.10,
0.054,-0.00,0.15,0.99,0.17,0.13,0.10,
0.054,-0.00,0.15,0.99,-0.02,0.09,0.08,
0.06,-0.01,0.15,1.00,-0.02,0.09,0.08,
0.061,-0.01,0.15,0.99,-0.02,0.09,0.08,
0.061,-0.01,0.15,0.99,-0.15,0.09,0.09,
0.061,-0.02,0.15,0.99,-0.15,0.09,0.09,
0.064,-0.02,0.15,1.00,-0.15,0.09,0.09,
0.064,-0.02,0.15,1.00,-0.28,0.06,0.08,
0.066,-0.03,0.15,0.99,-0.28,0.06,0.08,
0.069,-0.03,0.14,0.99,-0.28,0.06,0.08,
0.069,-0.03,0.14,0.99,-0.36,0.02,0.07,
0.071,-0.03,0.14,0.99,-0.36,0.02,0.07,
0.08,-0.03,0.14,0.98,-0.36,0.02,0.07,
0.081,-0.03,0.14,0.98,-0.39,0.01,0.02,
0.081,-0.03,0.14,0.97,-0.39,0.01,0.02,
0.081,-0.01,0.15,0.95,-0.39,0.01,0.02,
0.081,-0.01,0.15,0.95,-0.42,0.02,-0.02,
0.081,0.00,0.15,0.93,-0.42,0.02,-0.02,
0.084,0.01,0.15,0.92,-0.42,0.02,-0.02,
0.084,0.01,0.15,0.92,-0.27,0.05,-0.24,
0.086,0.01,0.15,0.92,-0.27,0.05,-0.24,
0.089,0.01,0.15,0.92,-0.27,0.05,-0.24,
0.098,0.01,0.15,0.92,-0.02,0.11,-0.57,
0.098,0.02,0.15,0.91,-0.02,0.11,-0.57,
0.098,0.01,0.15,0.91,-0.02,0.11,-0.57,
0.099,0.01,0.15,0.91,0.03,0.13,-0.67,
0.099,0.01,0.15,0.91,0.03,0.13,-0.67,
0.099,0.01,0.15,0.91,0.03,0.13,-0.67,
0.099,0.01,0.15,0.91,0.04,0.16,-0.76,
0.101,0.01,0.15,0.91,0.04,0.16,-0.76,
0.104,0.01,0.15,0.92,0.04,0.16,-0.76,
0.104,0.01,0.15,0.92,0.03,0.16,-0.78,
0.115,0.01,0.15,0.94,0.03,0.16,-0.78,
0.115,0.00,0.14,0.94,0.03,0.16,-0.78,
0.116,0.00,0.14,0.94,0.03,0.14,-0.68,
0.116,0.01,0.15,0.95,0.03,0.14,-0.68,
0.116,0.00,0.15,0.96,0.03,0.14,-0.68,
0.116,0.00,0.15,0.96,-0.03,0.13,-0.46,
0.116,-0.00,0.15,0.97,-0.03,0.13,-0.46,
0.119,0.01,0.15,0.98,-0.03,0.13,-0.46,
0.119,0.01,0.15,0.98,-0.02,0.17,-0.31,
0.121,0.01,0.15,0.99,-0.02,0.17,-0.31,
0.13,-0.00,0.15,1.00,-0.02,0.17,-0.31,
0.131,-0.00,0.15,1.00,-0.03,0.19,-0.08,
0.131,0.00,0.15,1.01,-0.03,0.19,-0.08,
0.131,0.01,0.15,1.01,-0.03,0.19,-0.08,
0.131,0.01,0.15,1.01,-0.06,0.19,0.12,
0.132,0.01,0.15,1.02,-0.06,0.19,0.12,
0.133,0.01,0.15,1.03,-0.06,0.19,0.12,
0.134,0.01,0.15,1.03,0.01,0.21,0.24,
0.136,0.02,0.14,1.03,0.01,0.21,0.24,
0.139,0.02,0.14,1.03,0.01,0.21,0.24,
0.139,0.02,0.14,1.03,0.05,0.21,0.35,
0.148,0.02,0.14,1.04,0.05,0.21,0.35,
0.149,0.03,0.14,1.04,0.05,0.21,0.35,
0.149,0.03,0.14,1.04,0.13,0.18,0.43,
0.149,0.03,0.13,1.04,0.13,0.18,0.43,
0.149,0.02,0.13,1.03,0.13,0.18,0.43,
0.149,0.02,0.13,1.03,0.15,0.14,0.51,
0.151,0.02,0.13,1.02,0.15,0.14,0.51,
0.153,0.02,0.12,1.03,0.15,0.14,0.51,
0.153,0.02,0.12,1.03,0.16,0.06,0.42,
0.156,0.01,0.12,1.03,0.16,0.06,0.42,
0.163,0.01,0.11,1.02,0.16,0.06,0.42,
0.163,0.01,0.11,1.02,0.15,0.02,0.35,
0.164,0.01,0.11,1.02,0.15,0.02,0.35,
0.167,0.00,0.11,1.01,0.15,0.02,0.35,
0.167,0.00,0.11,1.01,0.06,-0.07,0.35,
0.168,-0.00,0.10,1.01,0.06,-0.07,0.35,
0.168,-0.01,0.10,1.01,0.06,-0.07,0.35,
0.168,-0.01,0.10,1.01,-0.02,-0.12,0.24,
0.171,-0.01,0.10,1.01,-0.02,-0.12,0.24,
0.173,-0.02,0.09,1.01,-0.02,-0.12,0.24,
0.174,-0.02,0.09,1.01,-0.08,-0.20,0.24,
0.18,-0.02,0.09,1.01,-0.08,-0.20,0.24,
0.181,-0.02,0.09,1.01,-0.08,-0.20,0.24,
0.181,-0.02,0.09,1.01,-0.16,-0.26,0.20,
0.181,-0.03,0.09,1.01,-0.16,-0.26,0.20,
0.183,-0.03,0.09,1.01,-0.16,-0.26,0.20,
0.183,-0.03,0.09,1.01,-0.24,-0.27,0.24,
0.186,-0.03,0.09,1.00,-0.24,-0.27,0.24,
0.188,-0.03,0.09,1.01,-0.24,-0.27,0.24,
0.188,-0.03,0.09,1.01,-0.31,-0.24,0.20,
0.19,-0.04,0.09,1.00,-0.31,-0.24,0.20,
0.194,-0.04,0.09,1.01,-0.31,-0.24,0.20,
0.195,-0.04,0.09,1.01,-0.35,-0.22,0.14,
0.195,-0.04,0.10,1.00,-0.35,-0.22,0.14,
0.198,-0.04,0.09,1.00,-0.35,-0.22,0.14,
0.198,-0.04,0.09,1.00,-0.39,-0.23,0.14,
0.2,-0.05,0.10,1.00,-0.39,-0.23,0.14,
0.203,-0.05,0.10,1.00,-0.39,-0.23,0.14,
0.203,-0.05,0.10,1.00,-0.41,-0.20,0.09,
0.205,-0.05,0.10,1.00,-0.41,-0.20,0.09,
0.211,-0.06,0.11,1.00,-0.41,-0.20,0.09,
0.212,-0.06,0.11,1.00,-0.45,-0.13,0.06,
0.212,-0.06,0.12,1.01,-0.45,-0.13,0.06,
0.212,-0.06,0.12,1.01,-0.45,-0.13,0.06,
0.213,-0.06,0.12,1.01,-0.52,-0.08,0.11,
0.215,-0.07,0.12,1.01,-0.52,-0.08,0.11,
0.218,-0.08,0.12,1.02,-0.52,-0.08,0.11,
0.218,-0.08,0.12,1.02,-0.55,0.03,0.15,
0.22,-0.08,0.11,1.01,-0.55,0.03,0.15,
0.222,-0.08,0.12,1.02,-0.55,0.03,0.15,
0.223,-0.08,0.12,1.02,-0.65,0.07,0.23,
0.229,-0.08,0.11,1.02,-0.65,0.07,0.23,
0.229,-0.08,0.11,1.02,-0.65,0.07,0.23,
0.23,-0.08,0.11,1.02,-0.69,0.03,0.23,
0.23,-0.08,0.11,1.02,-0.69,0.03,0.23,
0.232,-0.09,0.11,1.02,-0.69,0.03,0.23,
0.232,-0.09,0.11,1.02,-0.69,0.02,0.28,
0.235,-0.09,0.11,1.02,-0.69,0.02,0.28,
0.237,-0.09,0.10,1.02,-0.69,0.02,0.28,
0.239,-0.09,0.10,1.02,-0.73,-0.01,0.25,
0.239,-0.09,0.10,1.02,-0.73,-0.01,0.25,
0.246,-0.10,0.10,1.03,-0.73,-0.01,0.25,
0.247,-0.10,0.10,1.03,-0.75,-0.02,0.26,
0.247,-0.11,0.10,1.03,-0.75,-0.02,0.26,
0.247,-0.12,0.10,1.03,-0.75,-0.02,0.26,
0.247,-0.12,0.10,1.03,-0.81,-0.04,0.30,
0.25,-0.12,0.09,1.03,-0.81,-0.04,0.30,
0.252,-0.13,0.09,1.03,-0.81,-0.04,0.30,
0.252,-0.13,0.09,1.03,-0.95,-0.05,0.33,
0.255,-0.14,0.10,1.03,-0.95,-0.05,0.33,
0.257,-0.14,0.09,1.03,-0.95,-0.05,0.33,
0.257,-0.14,0.09,1.03,-1.06,-0.09,0.36,
0.261,-0.15,0.09,1.03,-1.06,-0.09,0.36,
0.262,-0.15,0.09,1.03,-1.06,-0.09,0.36,
0.262,-0.15,0.09,1.03,-1.17,-0.08,0.38,
0.265,-0.16,0.09,1.03,-1.17,-0.08,0.38,
0.267,-0.16,0.09,1.03,-1.17,-0.08,0.38,
0.267,-0.16,0.09,1.03,-1.25,-0.09,0.35,
0.27,-0.17,0.09,1.02,-1.25,-0.09,0.35,
0.272,-0.18,0.09,1.02,-1.25,-0.09,0.35,
0.272,-0.18,0.09,1.02,-1.33,-0.10,0.30,
0.28,-0.18,0.09,1.01,-1.33,-0.10,0.30,
0.28,-0.19,0.09,1.02,-1.33,-0.10,0.30,
0.28,-0.19,0.09,1.02,-1.42,-0.10,0.24,
0.28,-0.19,0.09,1.01,-1.42,-0.10,0.24,
0.282,-0.19,0.09,1.00,-1.42,-0.10,0.24,
0.282,-0.19,0.09,1.00,-1.50,-0.07,0.19,
0.284,-0.19,0.09,1.00,-1.50,-0.07,0.19,
0.287,-0.19,0.09,0.99,-1.50,-0.07,0.19,
0.287,-0.19,0.09,0.99,-1.54,-0.06,0.11,
0.289,-0.19,0.09,0.98,-1.54,-0.06,0.11,
0.295,-0.20,0.09,0.99,-1.54,-0.06,0.11,
0.296,-0.20,0.09,0.99,-1.54,-0.07,0.00,
0.296,-0.20,0.08,0.98,-1.54,-0.07,0.00,
0.296,-0.19,0.09,0.97,-1.54,-0.07,0.00,
0.296,-0.19,0.09,0.97,-1.54,-0.05,-0.10,
0.299,-0.19,0.08,0.98,-1.54,-0.05,-0.10,
0.302,-0.19,0.08,0.98,-1.54,-0.05,-0.10,
0.302,-0.19,0.08,0.98,-1.51,-0.10,-0.16,
0.304,-0.19,0.08,0.97,-1.51,-0.10,-0.16,
0.307,-0.19,0.07,0.97,-1.51,-0.10,-0.16,
0.307,-0.19,0.07,0.97,-1.49,-0.15,-0.16,
0.311,-0.19,0.06,0.97,-1.49,-0.15,-0.16,
0.312,-0.19,0.06,0.97,-1.49,-0.15,-0.16,
0.312,-0.19,0.06,0.97,-1.44,-0.21,-0.23,
0.314,-0.19,0.05,0.96,-1.44,-0.21,-0.23,
0.317,-0.20,0.05,0.96,-1.44,-0.21,-0.23,
0.317,-0.20,0.05,0.96,-1.46,-0.32,-0.28,
0.319,-0.20,0.04,0.96,-1.46,-0.32,-0.28,
0.322,-0.21,0.04,0.96,-1.46,-0.32,-0.28,
0.322,-0.21,0.04,0.96,-1.49,-0.41,-0.35,
0.332,-0.21,0.03,0.95,-1.49,-0.41,-0.35,
0.332,-0.22,0.03,0.95,-1.49,-0.41,-0.35,
0.335,-0.22,0.03,0.95,-1.55,-0.54,-0.38,
0.335,-0.22,0.03,0.95,-1.55,-0.54,-0.38,
0.335,-0.22,0.03,0.95,-1.55,-0.54,-0.38,
0.335,-0.22,0.03,0.95,-1.63,-0.61,-0.46,
0.336,-0.23,0.02,0.95,-1.63,-0.61,-0.46,
0.336,-0.23,0.02,0.95,-1.63,-0.61,-0.46,
0.336,-0.23,0.02,0.95,-1.69,-0.64,-0.45,
0.339,-0.24,0.02,0.96,-1.69,-0.64,-0.45,
0.346,-0.24,0.02,0.96,-1.69,-0.64,-0.45,
0.347,-0.24,0.02,0.96,-1.79,-0.69,-0.43,
0.347,-0.24,0.02,0.96,-1.79,-0.69,-0.43,
0.347,-0.24,0.02,0.96,-1.86,-0.67,-0.36,
0.347,-0.25,0.02,0.97,-1.86,-0.67,-0.36,
0.349,-0.25,0.02,0.99,-1.86,-0.67,-0.36,
0.351,-0.25,0.02,0.99,-1.86,-0.67,-0.36,
0.352,-0.25,0.02,0.99,-1.95,-0.66,-0.28,
0.354,-0.25,0.02,0.99,-1.95,-0.66,-0.28,
0.356,-0.25,0.03,0.99,-1.95,-0.66,-0.28,
0.357,-0.25,0.03,0.99,-2.00,-0.67,-0.08,
0.366,-0.25,0.03,1.01,-2.00,-0.67,-0.08,
0.366,-0.25,0.03,1.01,-2.00,-0.67,-0.08,
0.367,-0.25,0.03,1.01,-2.00,-0.60,-0.01,
0.367,-0.24,0.04,1.01,-2.00,-0.60,-0.01,
0.367,-0.25,0.04,1.02,-2.00,-0.60,-0.01,
0.367,-0.25,0.04,1.02,-2.01,-0.54,0.15,
0.368,-0.24,0.04,1.03,-2.01,-0.54,0.15,
0.37,-0.24,0.05,1.03,-2.01,-0.54,0.15,
0.371,-0.24,0.05,1.03,-1.93,-0.46,0.24,
0.373,-0.23,0.05,1.03,-1.93,-0.46,0.24,
0.38,-0.22,0.05,1.03,-1.93,-0.46,0.24,
0.38,-0.22,0.05,1.03,-1.87,-0.44,0.34,
0.381,-0.22,0.06,1.02,-1.87,-0.44,0.34,
0.381,-0.22,0.06,1.03,-1.87,-0.44,0.34,
0.381,-0.22,0.06,1.03,-1.74,-0.36,0.33,
0.383,-0.21,0.07,1.02,-1.74,-0.36,0.33,
0.385,-0.21,0.08,1.01,-1.74,-0.36,0.33,
0.385,-0.21,0.08,1.01,-1.66,-0.25,0.32,
0.388,-0.20,0.08,1.00,-1.66,-0.25,0.32,
0.391,-0.20,0.08,1.00,-1.66,-0.25,0.32,
0.391,-0.20,0.08,1.00,-1.54,-0.10,0.22,
0.397,-0.19,0.08,0.98,-1.54,-0.10,0.22,
0.397,-0.19,0.07,0.97,-1.54,-0.10,0.22,
0.398,-0.19,0.07,0.97,-1.43,-0.06,0.05,
0.398,-0.18,0.08,0.96,-1.43,-0.06,0.05,
0.4,-0.18,0.07,0.96,-1.43,-0.06,0.05,
0.4,-0.18,0.07,0.96,-1.32,-0.11,-0.23,
0.403,-0.18,0.07,0.95,-1.32,-0.11,-0.23,
0.405,-0.18,0.07,0.96,-1.32,-0.11,-0.23,
0.405,-0.18,0.07,0.96,-1.24,-0.10,-0.38,
0.412,-0.18,0.06,0.95,-1.24,-0.10,-0.38,
0.413,-0.17,0.06,0.95,-1.24,-0.10,-0.38,
0.413,-0.17,0.06,0.95,-1.20,-0.15,-0.41,
0.413,-0.17,0.06,0.94,-1.20,-0.15,-0.41,
0.415,-0.18,0.06,0.94,-1.20,-0.15,-0.41,
0.415,-0.18,0.06,0.94,-1.16,-0.20,-0.45,
0.417,-0.18,0.06,0.95,-1.16,-0.20,-0.45,
0.42,-0.17,0.05,0.95,-1.16,-0.20,-0.45,
0.421,-0.17,0.05,0.95,-1.09,-0.22,-0.50,
0.422,-0.17,0.05,0.95,-1.09,-0.22,-0.50,
0.428,-0.18,0.04,0.95,-1.09,-0.22,-0.50,
0.428,-0.18,0.04,0.95,-1.10,-0.30,-0.42,
0.428,-0.18,0.04,0.96,-1.10,-0.30,-0.42,
0.43,-0.18,0.04,0.97,-1.10,-0.30,-0.42,
0.43,-0.18,0.04,0.97,-1.08,-0.39,-0.43,
0.432,-0.19,0.03,0.97,-1.08,-0.39,-0.43,
0.435,-0.19,0.03,0.97,-1.08,-0.39,-0.43,
0.435,-0.19,0.03,0.97,-1.15,-0.41,-0.30,
0.437,-0.19,0.04,0.98,-1.15,-0.41,-0.30,
0.44,-0.19,0.03,0.99,-1.15,-0.41,-0.30,
0.44,-0.19,0.03,0.99,-1.18,-0.46,-0.24,
0.446,-0.19,0.03,1.00,-1.18,-0.46,-0.24,
0.447,-0.20,0.03,1.01,-1.18,-0.46,-0.24,
0.447,-0.20,0.03,1.01,-1.25,-0.46,-0.05,
0.447,-0.20,0.04,1.03,-1.25,-0.46,-0.05,
0.45,-0.20,0.03,1.04,-1.25,-0.46,-0.05,
0.45,-0.20,0.03,1.04,-1.27,-0.45,0.15,
0.452,-0.20,0.03,1.05,-1.27,-0.45,0.15,
0.455,-0.19,0.03,1.06,-1.27,-0.45,0.15,
0.455,-0.19,0.03,1.06,-1.31,-0.44,0.41,
0.457,-0.18,0.03,1.07,-1.31,-0.44,0.41,
0.468,-0.17,0.03,1.07,-1.31,-0.44,0.41,
0.469,-0.17,0.03,1.07,-1.25,-0.52,0.57,
0.469,-0.17,0.03,1.07,-1.25,-0.52,0.57,
0.469,-0.16,0.03,1.07,-1.25,-0.52,0.57,
0.469,-0.16,0.03,1.07,-1.09,-0.51,0.70,
0.47,-0.16,0.02,1.07,-1.09,-0.51,0.70,
0.47,-0.15,0.02,1.06,-1.09,-0.51,0.70,
0.47,-0.15,0.02,1.06,-0.99,-0.54,0.76,
0.472,-0.14,0.02,1.06,-0.99,-0.54,0.76,
0.474,-0.14,0.02,1.05,-0.99,-0.54,0.76,
0.475,-0.14,0.02,1.05,-0.90,-0.60,0.69,
0.485,-0.15,0.02,1.04,-0.90,-0.60,0.69,
0.485,-0.14,0.01,1.03,-0.90,-0.60,0.69,
0.485,-0.14,0.01,1.03,-0.77,-0.64,0.57,
0.486,-0.13,0.01,1.01,-0.77,-0.64,0.57,
0.486,-0.13,0.01,0.99,-0.77,-0.64,0.57,
0.486,-0.13,0.01,0.99,-0.74,-0.67,0.35,
0.487,-0.12,0.00,0.98,-0.74,-0.67,0.35,
0.489,-0.12,-0.00,0.96,-0.74,-0.67,0.35,
0.49,-0.12,-0.00,0.96,-0.62,-0.73,0.03,
0.492,-0.12,-0.00,0.94,-0.62,-0.73,0.03,
0.499,-0.12,-0.01,0.93,-0.62,-0.73,0.03,
0.499,-0.12,-0.01,0.93,-0.54,-0.84,-0.25,
0.5,-0.12,-0.01,0.93,-0.54,-0.84,-0.25,
0.5,-0.11,-0.01,0.91,-0.54,-0.84,-0.25,
0.5,-0.11,-0.01,0.91,-0.50,-0.89,-0.57,
0.502,-0.11,-0.01,0.90,-0.50,-0.89,-0.57,
0.506,-0.11,-0.01,0.90,-0.50,-0.89,-0.57,
0.506,-0.11,-0.01,0.90,-0.44,-0.94,-0.73,
0.507,-0.10,-0.01,0.90,-0.44,-0.94,-0.73,
0.512,-0.10,-0.01,0.91,-0.44,-0.94,-0.73,
0.512,-0.10,-0.01,0.91,-0.35,-0.95,-0.91,
0.513,-0.10,-0.00,0.90,-0.35,-0.95,-0.91,
0.515,-0.09,-0.01,0.91,-0.35,-0.95,-0.91,
0.515,-0.09,-0.01,0.91,-0.28,-0.94,-0.88,
0.517,-0.09,0.00,0.92,-0.28,-0.94,-0.88,
0.519,-0.09,0.01,0.93,-0.28,-0.94,-0.88,
0.52,-0.09,0.01,0.93,-0.21,-0.91,-0.86,
0.522,-0.09,0.01,0.94,-0.21,-0.91,-0.86,
0.524,-0.09,0.02,0.95,-0.21,-0.91,-0.86,
0.525,-0.09,0.02,0.95,-0.19,-0.80,-0.67,
0.529,-0.09,0.02,0.96,-0.19,-0.80,-0.67,
0.529,-0.09,0.02,0.98,-0.19,-0.80,-0.67,
0.529,-0.09,0.02,0.98,-0.17,-0.69,-0.44,
0.532,-0.08,0.03,1.00,-0.17,-0.69,-0.44,
0.534,-0.08,0.03,1.00,-0.17,-0.69,-0.44,
0.535,-0.08,0.03,1.00,-0.20,-0.65,-0.21,
0.537,-0.08,0.03,1.02,-0.20,-0.65,-0.21,
0.539,-0.08,0.03,1.02,-0.20,-0.65,-0.21,
0.54,-0.08,0.03,1.02,-0.16,-0.59,0.10,
0.542,-0.07,0.03,1.03,-0.16,-0.59,0.10,
0.546,-0.07,0.02,1.03,-0.16,-0.59,0.10,
0.546,-0.07,0.02,1.03,-0.12,-0.57,0.27,
0.547,-0.06,0.02,1.04,-0.12,-0.57,0.27,
0.549,-0.06,0.03,1.04,-0.12,-0.57,0.27,
0.549,-0.06,0.03,1.04,-0.03,-0.59,0.38,
0.552,-0.05,0.03,1.05,-0.03,-0.59,0.38,
0.554,-0.04,0.03,1.05,-0.03,-0.59,0.38,
0.554,-0.04,0.03,1.05,0.06,-0.58,0.46,
0.557,-0.04,0.03,1.06,0.06,-0.58,0.46,
0.566,-0.03,0.04,1.05,0.06,-0.58,0.46,
0.567,-0.03,0.04,1.05,0.17,-0.53,0.55,
0.567,-0.03,0.04,1.05,0.17,-0.53,0.55,
0.567,-0.02,0.04,1.05,0.17,-0.53,0.55,
0.567,-0.02,0.04,1.05,0.31,-0.47,0.60,
0.568,-0.01,0.04,1.06,0.31,-0.47,0.60,
0.569,-0.01,0.04,1.06,0.31,-0.47,0.60,
0.569,-0.01,0.04,1.06,0.43,-0.45,0.59,
0.572,-0.01,0.03,1.06,0.43,-0.45,0.59,
0.574,0.00,0.03,1.06,0.43,-0.45,0.59,
0.574,0.00,0.03,1.06,0.54,-0.42,0.61,
0.58,0.01,0.03,1.06,0.54,-0.42,0.61,
0.581,0.00,0.02,1.07,0.54,-0.42,0.61,
0.581,0.00,0.02,1.07,0.62,-0.48,0.64,
0.581,0.01,0.02,1.06,0.62,-0.48,0.64,
0.584,0.01,0.02,1.06,0.62,-0.48,0.64,
0.584,0.01,0.02,1.06,0.70,-0.57,0.69,
0.586,0.01,0.02,1.06,0.70,-0.57,0.69,
0.589,0.02,0.02,1.06,0.70,-0.57,0.69,
0.589,0.02,0.02,1.06,0.77,-0.62,0.63,
0.591,0.02,0.01,1.05,0.77,-0.62,0.63,
0.599,0.02,0.01,1.05,0.77,-0.62,0.63,
0.6,0.02,0.01,1.05,0.84,-0.63,0.62,
0.6,0.03,0.01,1.05,0.84,-0.63,0.62,
0.601,0.03,0.01,1.06,0.84,-0.63,0.62,
0.601,0.03,0.01,1.06,0.90,-0.69,0.56,
0.601,0.03,0.01,1.05,0.90,-0.69,0.56,
0.603,0.03,0.01,1.05,0.90,-0.69,0.56,
0.603,0.03,0.01,1.05,0.93,-0.70,0.59,
0.606,0.02,0.01,1.05,0.93,-0.70,0.59,
0.616,0.03,0.02,1.04,0.93,-0.70,0.59,
0.616,0.03,0.02,1.04,0.97,-0.68,0.53,
0.617,0.03,0.02,1.04,0.97,-0.68,0.53,
0.617,0.02,0.03,1.03,0.97,-0.68,0.53,
0.617,0.02,0.03,1.03,0.94,-0.66,0.47,
0.617,0.02,0.03,1.03,0.94,-0.66,0.47,
0.619,0.02,0.04,1.02,0.94,-0.66,0.47,
0.619,0.02,0.04,1.02,0.95,-0.56,0.38,
0.621,0.03,0.04,1.01,0.95,-0.56,0.38,
0.624,0.02,0.04,1.01,0.95,-0.56,0.38,
0.624,0.02,0.04,1.01,0.92,-0.47,0.28,
0.63,0.02,0.04,1.01,0.92,-0.47,0.28,
0.631,0.02,0.04,1.00,0.92,-0.47,0.28,
0.631,0.02,0.04,1.00,0.96,-0.41,0.18,
0.631,0.02,0.04,0.99,0.96,-0.41,0.18,
0.633,0.01,0.04,0.99,0.96,-0.41,0.18,
0.633,0.01,0.04,0.99,0.93,-0.42,0.06,
0.635,0.01,0.04,0.99,0.93,-0.42,0.06,
0.639,0.00,0.04,0.98,0.93,-0.42,0.06,
0.639,0.00,0.04,0.98,0.85,-0.41,-0.03,
0.64,0.00,0.04,0.98,0.85,-0.41,-0.03,
0.647,-0.00,0.03,0.97,0.85,-0.41,-0.03,
0.648,-0.00,0.03,0.97,0.75,-0.44,-0.13,
0.648,-0.00,0.03,0.97,0.75,-0.44,-0.13,
0.648,-0.00,0.03,0.96,0.75,-0.44,-0.13,
0.648,-0.00,0.03,0.96,0.73,-0.52,-0.20,
0.65,-0.01,0.02,0.96,0.73,-0.52,-0.20,
0.653,-0.01,0.02,0.95,0.73,-0.52,-0.20,
0.653,-0.01,0.02,0.95,0.69,-0.58,-0.31,
0.655,-0.01,0.01,0.95,0.69,-0.58,-0.31,
0.657,-0.01,0.01,0.95,0.69,-0.58,-0.31,
0.658,-0.01,0.01,0.95,0.64,-0.70,-0.38,
0.665,-0.02,0.00,0.94,0.64,-0.70,-0.38,
0.665,-0.02,-0.00,0.94,0.64,-0.70,-0.38,
0.666,-0.02,-0.00,0.94,0.59,-0.83,-0.45,
0.666,-0.02,-0.01,0.94,0.59,-0.83,-0.45,
0.667,-0.02,-0.01,0.94,0.59,-0.83,-0.45,
0.668,-0.02,-0.01,0.94,0.56,-0.92,-0.50,
0.67,-0.02,-0.01,0.94,0.56,-0.92,-0.50,
0.672,-0.02,-0.02,0.93,0.56,-0.92,-0.50,
0.673,-0.02,-0.02,0.93,0.54,-1.02,-0.53,
0.687,-0.02,-0.02,0.92,0.54,-1.02,-0.53,
0.688,-0.02,-0.02,0.92,0.54,-1.02,-0.53,
0.688,-0.02,-0.02,0.92,0.52,-1.07,-0.58,
0.688,-0.02,-0.03,0.93,0.52,-1.07,-0.58,
0.689,-0.01,-0.03,0.92,0.52,-1.07,-0.58,
0.689,-0.01,-0.03,0.92,0.52,-1.16,-0.68,
0.689,-0.01,-0.03,0.91,0.52,-1.16,-0.68,
0.689,-0.01,-0.03,0.92,0.52,-1.16,-0.68,
0.69,-0.01,-0.03,0.92,0.54,-1.21,-0.66,
0.69,-0.01,-0.03,0.92,0.54,-1.21,-0.66,
0.699,0.00,-0.02,0.91,0.54,-1.21,-0.66,
0.7,0.00,-0.02,0.91,0.61,-1.24,-0.74,
0.7,0.01,-0.02,0.91,0.61,-1.24,-0.74,
0.7,0.01,-0.02,0.91,0.61,-1.24,-0.74,
0.701,0.01,-0.02,0.91,0.67,-1.19,-0.74,
0.701,0.02,-0.01,0.91,0.67,-1.19,-0.74,
0.702,0.03,-0.01,0.92,0.67,-1.19,-0.74,
0.702,0.03,-0.01,0.92,0.77,-1.17,-0.80,
0.705,0.04,-0.01,0.91,0.77,-1.17,-0.80,
0.707,0.04,-0.00,0.91,0.77,-1.17,-0.80,
0.707,0.04,-0.00,0.91,0.90,-1.09,-0.76,
0.717,0.04,0.00,0.92,0.90,-1.09,-0.76,
0.718,0.04,0.01,0.92,0.90,-1.09,-0.76,
0.719,0.04,0.01,0.92,1.03,-1.01,-0.75,
0.719,0.05,0.01,0.92,1.03,-1.01,-0.75,
0.719,0.04,0.01,0.93,1.03,-1.01,-0.75,
0.719,0.04,0.01,0.93,1.06,-0.91,-0.64,
0.719,0.05,0.02,0.93,1.06,-0.91,-0.64,
0.722,0.04,0.02,0.94,1.06,-0.91,-0.64,
0.723,0.04,0.02,0.94,1.10,-0.87,-0.61,
0.725,0.04,0.02,0.93,1.10,-0.87,-0.61,
0.733,0.04,0.02,0.94,1.10,-0.87,-0.61,
0.733,0.04,0.02,0.94,1.08,-0.77,-0.53,
0.733,0.03,0.02,0.94,1.08,-0.77,-0.53,
0.734,0.02,0.02,0.94,1.08,-0.77,-0.53,
0.734,0.02,0.02,0.94,1.04,-0.77,-0.51,
0.734,0.02,0.02,0.95,1.04,-0.77,-0.51,
0.737,0.02,0.02,0.94,1.04,-0.77,-0.51,
0.737,0.02,0.02,0.94,0.93,-0.79,-0.47,
0.739,0.02,0.01,0.93,0.93,-0.79,-0.47,
0.742,0.02,0.01,0.93,0.86,-0.81,-0.46,
0.742,0.01,0.00,0.93,0.86,-0.81,-0.46,
0.748,0.01,-0.01,0.92,0.86,-0.81,-0.46,
0.748,0.01,-0.01,0.91,0.86,-0.81,-0.46,
0.748,0.01,-0.01,0.91,0.82,-0.90,-0.59,
0.749,0.01,-0.01,0.90,0.82,-0.90,-0.59,
0.752,0.00,-0.02,0.90,0.82,-0.90,-0.59,
0.752,0.00,-0.02,0.90,0.77,-1.07,-0.72,
0.754,0.01,-0.02,0.89,0.77,-1.07,-0.72,
0.756,0.00,-0.02,0.89,0.77,-1.07,-0.72,
0.757,0.00,-0.02,0.89,0.73,-1.10,-0.82,
0.765,0.01,-0.02,0.88,0.73,-1.10,-0.82,
0.766,0.01,-0.02,0.87,0.73,-1.10,-0.82,
0.766,0.01,-0.02,0.87,0.71,-1.12,-0.94,
0.766,0.01,-0.02,0.88,0.71,-1.12,-0.94,
0.767,0.01,-0.02,0.88,0.71,-1.12,-0.94,
0.768,0.01,-0.02,0.88,0.73,-1.12,-1.08,
0.769,0.02,-0.02,0.88,0.73,-1.12,-1.08,
0.772,0.02,-0.02,0.88,0.73,-1.12,-1.08,
0.772,0.02,-0.02,0.88,0.76,-1.16,-1.02,
0.774,0.02,-0.02,0.89,0.76,-1.16,-1.02,
0.787,0.03,-0.02,0.90,0.76,-1.16,-1.02,
0.788,0.03,-0.02,0.90,0.82,-1.17,-1.01,
0.788,0.03,-0.02,0.90,0.82,-1.17,-1.01,
0.789,0.04,-0.03,0.91,0.82,-1.17,-1.01,
0.789,0.04,-0.03,0.91,0.86,-1.18,-0.88,
0.789,0.04,-0.02,0.91,0.86,-1.18,-0.88,
0.79,0.05,-0.02,0.91,0.86,-1.18,-0.88,
0.79,0.05,-0.02,0.91,0.98,-1.18,-0.79,
0.79,0.06,-0.01,0.91,0.98,-1.18,-0.79,
0.791,0.06,-0.01,0.92,0.98,-1.18,-0.79,
0.792,0.06,-0.01,0.92,1.05,-1.14,-0.70,
0.8,0.07,-0.01,0.92,1.05,-1.14,-0.70,
0.8,0.08,-0.01,0.92,1.05,-1.14,-0.70,
0.801,0.08,-0.01,0.92,1.18,-1.08,-0.66,
0.801,0.08,-0.00,0.92,1.18,-1.08,-0.66,
0.802,0.09,-0.00,0.92,1.18,-1.08,-0.66,
0.802,0.09,-0.00,0.92,1.30,-1.05,-0.63,
0.804,0.09,0.01,0.92,1.30,-1.05,-0.63,
0.806,0.09,0.01,0.92,1.30,-1.05,-0.63,
0.806,0.09,0.01,0.92,1.39,-0.96,-0.62,
0.808,0.10,0.01,0.92,1.39,-0.96,-0.62,
0.819,0.10,0.02,0.91,1.39,-0.96,-0.62,
0.819,0.10,0.02,0.91,1.43,-0.87,-0.64,
0.82,0.10,0.02,0.92,1.43,-0.87,-0.64,
0.82,0.10,0.02,0.92,1.50,-0.80,-0.66,
0.82,0.10,0.02,0.92,1.50,-0.80,-0.66,
0.82,0.10,0.01,0.92,1.50,-0.80,-0.66,
0.821,0.11,0.02,0.92,1.50,-0.80,-0.66,
0.824,0.11,0.02,0.92,1.47,-0.77,-0.66,
0.825,0.11,0.01,0.91,1.47,-0.77,-0.66,
0.833,0.10,0.01,0.92,1.47,-0.77,-0.66,
0.834,0.10,0.01,0.92,1.53,-0.77,-0.62,
0.834,0.11,0.01,0.92,1.53,-0.77,-0.62,
0.834,0.10,0.00,0.91,1.53,-0.77,-0.62,
0.835,0.10,0.00,0.91,1.51,-0.83,-0.65,
0.835,0.10,0.00,0.91,1.51,-0.83,-0.65,
0.836,0.09,-0.00,0.91,1.51,-0.83,-0.65,
0.837,0.09,-0.00,0.91,1.52,-0.87,-0.65,
0.839,0.09,-0.01,0.90,1.52,-0.87,-0.65,
0.843,0.09,-0.01,0.91,1.52,-0.87,-0.65,
0.843,0.09,-0.01,0.91,1.42,-0.93,-0.71,
0.844,0.09,-0.02,0.91,1.42,-0.93,-0.71,
0.848,0.09,-0.03,0.91,1.42,-0.93,-0.71,
0.848,0.09,-0.03,0.91,1.38,-1.00,-0.75,
0.848,0.09,-0.03,0.91,1.38,-1.00,-0.75,
0.851,0.09,-0.03,0.91,1.38,-1.00,-0.75,
0.852,0.09,-0.03,0.91,1.35,-1.12,-0.74,
0.854,0.09,-0.04,0.91,1.35,-1.12,-0.74,
0.857,0.10,-0.04,0.90,1.35,-1.12,-0.74,
0.857,0.10,-0.04,0.90,1.31,-1.21,-0.70,
0.858,0.10,-0.05,0.90,1.31,-1.21,-0.70,
0.866,0.10,-0.04,0.91,1.31,-1.21,-0.70,
0.866,0.10,-0.04,0.91,1.37,-1.27,-0.77,
0.867,0.10,-0.05,0.90,1.37,-1.27,-0.77,
0.867,0.11,-0.05,0.91,1.37,-1.27,-0.77,
0.867,0.11,-0.05,0.91,1.40,-1.30,-0.76,
0.869,0.12,-0.04,0.91,1.40,-1.30,-0.76,
0.871,0.12,-0.04,0.91,1.40,-1.30,-0.76,
0.871,0.12,-0.04,0.91,1.48,-1.31,-0.75,
0.874,0.13,-0.03,0.91,1.48,-1.31,-0.75,
0.876,0.13,-0.02,0.91,1.48,-1.31,-0.75,
0.876,0.13,-0.02,0.91,1.59,-1.22,-0.71,
0.881,0.14,-0.02,0.91,1.59,-1.22,-0.71,
0.882,0.15,-0.01,0.92,1.59,-1.22,-0.71,
0.882,0.15,-0.01,0.92,1.69,-1.10,-0.71,
0.884,0.15,-0.00,0.92,1.69,-1.10,-0.71,
0.886,0.15,0.00,0.93,1.69,-1.10,-0.71,
0.886,0.15,0.00,0.93,1.77,-0.95,-0.64,
0.889,0.16,0.01,0.93,1.77,-0.95,-0.64,
0.891,0.17,0.01,0.93,1.77,-0.95,-0.64,
0.891,0.17,0.01,0.93,1.83,-0.84,-0.53,
0.905,0.18,0.01,0.93,1.83,-0.84,-0.53,
0.906,0.18,0.02,0.94,1.83,-0.84,-0.53,
0.906,0.18,0.02,0.94,1.92,-0.73,-0.49,
0.906,0.18,0.02,0.94,1.92,-0.73,-0.49,
0.906,0.19,0.01,0.94,1.92,-0.73,-0.49,
0.907,0.19,0.01,0.94,2.06,-0.65,-0.42,
0.907,0.20,0.01,0.94,2.06,-0.65,-0.42,
0.907,0.19,0.01,0.94,2.06,-0.65,-0.42,
0.907,0.19,0.01,0.94,2.12,-0.67,-0.37,
0.908,0.20,0.01,0.93,2.12,-0.67,-0.37,
0.91,0.19,0.00,0.93,2.12,-0.67,-0.37,
0.91,0.19,0.00,0.93,2.19,-0.71,-0.38,
0.918,0.19,-0.00,0.93,2.19,-0.71,-0.38,
0.919,0.18,-0.01,0.91,2.19,-0.71,-0.38,
0.919,0.18,-0.01,0.91,2.18,-0.75,-0.49,
0.919,0.18,-0.02,0.91,2.18,-0.75,-0.49,
0.921,0.17,-0.02,0.90,2.18,-0.75,-0.49,
0.921,0.17,-0.02,0.90,2.06,-0.87,-0.58,
0.923,0.17,-0.03,0.90,2.06,-0.87,-0.58,
0.925,0.17,-0.03,0.88,2.06,-0.87,-0.58,
0.926,0.17,-0.03,0.88,1.96,-0.98,-0.73,
0.936,0.16,-0.03,0.89,1.96,-0.98,-0.73,
0.937,0.15,-0.03,0.88,1.96,-0.98,-0.73,
0.937,0.15,-0.03,0.88,1.87,-1.09,-0.86,
0.938,0.15,-0.03,0.88,1.87,-1.09,-0.86,
0.938,0.15,-0.03,0.87,1.87,-1.09,-0.86,
0.938,0.15,-0.03,0.87,1.74,-1.09,-0.93,
0.938,0.16,-0.03,0.88,1.74,-1.09,-0.93,
0.941,0.16,-0.03,0.87,1.74,-1.09,-0.93,
0.941,0.16,-0.03,0.87,1.73,-1.06,-1.01,
0.943,0.17,-0.03,0.87,1.73,-1.06,-1.01,
0.95,0.16,-0.02,0.88,1.73,-1.06,-1.01,
0.95,0.16,-0.02,0.88,1.75,-1.05,-1.01,
0.95,0.17,-0.02,0.88,1.75,-1.05,-1.01,
0.951,0.18,-0.02,0.88,1.75,-1.05,-1.01,
0.951,0.18,-0.02,0.88,1.82,-1.00,-1.02,
0.953,0.18,-0.02,0.88,1.82,-1.00,-1.02,
0.955,0.18,-0.01,0.89,1.82,-1.00,-1.02,
0.956,0.18,-0.01,0.89,1.88,-0.94,-0.96,
0.958,0.18,-0.01,0.90,1.88,-0.94,-0.96,
0.96,0.18,-0.00,0.89,1.88,-0.94,-0.96,
0.961,0.18,-0.00,0.89,1.88,-0.88,-0.89,
0.967,0.18,0.00,0.90,1.88,-0.88,-0.89,
0.967,0.19,0.00,0.89,1.88,-0.88,-0.89,
0.967,0.19,0.00,0.89,1.91,-0.79,-0.80,
0.968,0.20,0.00,0.89,1.91,-0.79,-0.80,
0.969,0.20,0.00,0.89,1.91,-0.79,-0.80,
0.97,0.20,0.00,0.89,1.94,-0.71,-0.79,
0.972,0.20,0.00,0.89,1.94,-0.71,-0.79,
0.974,0.20,0.01,0.90,1.94,-0.71,-0.79,
0.975,0.20,0.01,0.90,2.05,-0.68,-0.81,
0.982,0.21,0.01,0.89,2.05,-0.68,-0.81,
0.983,0.21,0.01,0.88,2.05,-0.68,-0.81,
0.983,0.21,0.01,0.88,2.02,-0.66,-0.81,
0.983,0.21,0.00,0.88,2.02,-0.66,-0.81,
0.984,0.21,0.01,0.88,2.02,-0.66,-0.81,
0.985,0.21,0.01,0.88,2.07,-0.62,-0.89,
0.987,0.21,0.01,0.89,2.07,-0.62,-0.89,
0.989,0.21,0.01,0.88,2.07,-0.62,-0.89,
0.99,0.21,0.01,0.88,2.07,-0.61,-0.92,
0.992,0.21,0.02,0.88,2.07,-0.61,-0.92,
1.0,0.22,0.01,0.88,2.07,-0.61,-0.92,
1.0,0.22,0.01,0.88,2.09,-0.57,-0.85,
1.001,0.23,0.02,0.87,2.09,-0.57,-0.85,
1.001,0.23,0.01,0.87,2.09,-0.57,-0.85,
1.001,0.23,0.01,0.87,2.13,-0.52,-0.90,
1.002,0.23,0.01,0.88,2.13,-0.52,-0.90,
1.004,0.24,0.00,0.87,2.13,-0.52,-0.90,
1.004,0.24,0.00,0.87,2.22,-0.53,-0.98,
1.007,0.24,0.01,0.86,2.22,-0.53,-0.98,
1.009,0.25,0.00,0.86,2.22,-0.53,-0.98,
1.009,0.25,0.00,0.86,2.29,-0.60,-1.01,
1.023,0.25,0.00,0.86,2.29,-0.60,-1.01,
1.023,0.24,0.01,0.86,2.29,-0.60,-1.01,
1.024,0.24,0.01,0.86,2.36,-0.58,-1.14,
1.024,0.24,0.01,0.86,2.36,-0.58,-1.14,
1.024,0.24,0.01,0.86,2.36,-0.58,-1.14,
1.024,0.24,0.01,0.86,2.35,-0.60,-1.12,
1.025,0.24,0.00,0.87,2.35,-0.60,-1.12,
1.025,0.24,0.01,0.88,2.35,-0.60,-1.12,
1.025,0.24,0.01,0.88,2.31,-0.53,-1.09,
1.027,0.25,0.01,0.89,2.31,-0.53,-1.09,
1.035,0.25,-0.00,0.90,2.31,-0.53,-1.09,
1.035,0.25,-0.00,0.90,2.29,-0.54,-0.99,
1.035,0.25,-0.00,0.91,2.29,-0.54,-0.99,
1.036,0.24,-0.00,0.93,2.29,-0.54,-0.99,
1.036,0.24,-0.00,0.93,2.28,-0.54,-0.79,
1.036,0.24,-0.01,0.94,2.28,-0.54,-0.79,
1.039,0.24,-0.01,0.94,2.25,-0.54,-0.51,
1.039,0.24,-0.01,0.95,2.25,-0.54,-0.51,
1.041,0.24,-0.01,0.96,2.25,-0.54,-0.51,
1.053,0.24,-0.01,0.97,2.25,-0.54,-0.51,
1.054,0.24,-0.01,0.97,2.20,-0.57,-0.26,
1.054,0.24,-0.01,0.98,2.20,-0.57,-0.26,
1.055,0.24,-0.00,0.99,2.20,-0.57,-0.26,
1.055,0.24,-0.00,0.99,2.14,-0.59,-0.11,
1.055,0.24,-0.00,1.00,2.14,-0.59,-0.11,
1.055,0.25,-0.00,1.00,2.14,-0.59,-0.11,
1.056,0.25,-0.00,1.00,2.16,-0.51,0.12,
1.056,0.26,0.00,1.00,2.16,-0.51,0.12,
1.059,0.26,0.01,1.00,2.16,-0.51,0.12,
1.06,0.26,0.01,1.00,2.20,-0.46,0.25,
1.067,0.27,0.02,1.00,2.20,-0.46,0.25,
1.067,0.27,0.02,1.00,2.20,-0.46,0.25,
1.068,0.27,0.02,1.00,2.31,-0.33,0.24,
1.068,0.28,0.03,0.99,2.31,-0.33,0.24,
1.068,0.28,0.03,0.98,2.31,-0.33,0.24,
1.069,0.28,0.03,0.98,2.39,-0.20,0.23,
1.071,0.29,0.04,0.98,2.39,-0.20,0.23,
1.073,0.29,0.04,0.97,2.39,-0.20,0.23,
1.074,0.29,0.04,0.97,2.49,-0.08,0.14,
1.076,0.29,0.05,0.97,2.49,-0.08,0.14,
1.082,0.29,0.06,0.97,2.49,-0.08,0.14,
1.083,0.29,0.06,0.97,2.54,0.07,0.05,
1.083,0.30,0.07,0.97,2.54,0.07,0.05,
1.084,0.30,0.06,0.97,2.54,0.07,0.05,
1.084,0.30,0.06,0.97,2.59,0.21,-0.03,
1.086,0.30,0.06,0.97,2.59,0.21,-0.03,
1.088,0.30,0.07,0.97,2.59,0.21,-0.03,
1.089,0.30,0.07,0.97,2.64,0.33,-0.05,
1.091,0.30,0.07,0.97,2.64,0.33,-0.05,
1.093,0.30,0.07,0.97,2.64,0.33,-0.05,
1.093,0.30,0.07,0.97,2.65,0.39,-0.05,
1.102,0.30,0.06,0.98,2.65,0.39,-0.05,
1.103,0.30,0.07,0.98,2.65,0.39,-0.05,
1.103,0.30,0.07,0.98,2.65,0.43,-0.01,
1.104,0.30,0.06,0.98,2.65,0.43,-0.01,
1.104,0.30,0.06,0.99,2.65,0.43,-0.01,
1.104,0.30,0.06,0.99,2.62,0.41,0.04,
1.106,0.30,0.05,1.00,2.62,0.41,0.04,
1.108,0.30,0.05,1.00,2.62,0.41,0.04,
1.108,0.30,0.05,1.00,2.60,0.36,0.12,
1.12,0.30,0.04,1.01,2.60,0.36,0.12,
1.121,0.30,0.04,1.01,2.53,0.29,0.26,
1.122,0.29,0.03,1.03,2.53,0.29,0.26,
1.122,0.29,0.03,1.03,2.53,0.29,0.26,
1.122,0.29,0.02,1.04,2.53,0.29,0.26,
1.122,0.29,0.02,1.04,2.51,0.18,0.45,
1.123,0.30,0.02,1.04,2.51,0.18,0.45,
1.123,0.29,0.01,1.05,2.51,0.18,0.45,
1.123,0.29,0.01,1.05,2.43,0.09,0.61,
1.126,0.29,0.01,1.05,2.43,0.09,0.61,
1.136,0.30,0.01,1.06,2.43,0.09,0.61,
1.136,0.30,0.01,1.06,2.43,0.01,0.70,
1.137,0.30,-0.00,1.06,2.43,0.01,0.70,
1.137,0.30,-0.01,1.07,2.43,0.01,0.70,
1.137,0.30,-0.01,1.07,2.44,-0.05,0.78,
1.137,0.30,-0.02,1.06,2.44,-0.05,0.78,
1.138,0.30,-0.02,1.06,2.44,-0.05,0.78,
1.139,0.30,-0.02,1.06,2.46,-0.15,0.85,
1.141,0.30,-0.02,1.06,2.46,-0.15,0.85,
1.143,0.30,-0.02,1.07,2.46,-0.15,0.85,
1.144,0.30,-0.02,1.07,2.43,-0.26,0.84,
1.153,0.30,-0.02,1.07,2.43,-0.26,0.84,
1.153,0.30,-0.02,1.06,2.43,-0.26,0.84,
1.154,0.30,-0.02,1.06,2.40,-0.31,0.87,
1.154,0.30,-0.01,1.07,2.40,-0.31,0.87,
1.156,0.30,-0.00,1.07,2.40,-0.31,0.87,
1.157,0.30,-0.00,1.07,2.34,-0.26,0.87,
1.157,0.29,0.00,1.06,2.34,-0.26,0.87,
1.158,0.29,0.01,1.06,2.34,-0.26,0.87,
1.158,0.29,0.01,1.06,2.34,-0.13,0.89,
1.16,0.30,0.01,1.06,2.34,-0.13,0.89,
1.169,0.30,0.02,1.06,2.34,-0.13,0.89,
1.17,0.30,0.02,1.06,2.27,0.01,0.84,
1.17,0.31,0.02,1.06,2.27,0.01,0.84,
1.17,0.31,0.03,1.05,2.27,0.01,0.84,
1.171,0.31,0.03,1.05,2.31,0.11,0.83,
1.171,0.32,0.04,1.05,2.31,0.11,0.83,
1.173,0.32,0.05,1.04,2.31,0.11,0.83,
1.174,0.32,0.05,1.04,2.40,0.22,0.77,
1.176,0.32,0.05,1.03,2.40,0.22,0.77,
1.178,0.32,0.06,1.02,2.40,0.22,0.77,
1.178,0.32,0.06,1.02,2.46,0.36,0.65,
1.184,0.32,0.06,1.02,2.46,0.36,0.65,
1.185,0.32,0.07,1.01,2.46,0.36,0.65,
1.185,0.32,0.07,1.01,2.49,0.48,0.50,
1.185,0.32,0.08,1.02,2.49,0.48,0.50,
1.188,0.32,0.08,1.02,2.49,0.48,0.50,
1.188,0.32,0.08,1.02,2.48,0.62,0.39,
1.19,0.33,0.09,1.02,2.48,0.62,0.39,
1.192,0.34,0.09,1.02,2.48,0.62,0.39,
1.193,0.34,0.09,1.02,2.51,0.73,0.39,
1.199,0.34,0.09,1.02,2.51,0.73,0.39,
1.2,0.35,0.09,1.02,2.51,0.73,0.39,
1.2,0.35,0.09,1.02,2.60,0.82,0.45,
1.2,0.35,0.08,1.01,2.60,0.82,0.45,
1.202,0.36,0.07,1.01,2.60,0.82,0.45,
1.202,0.36,0.07,1.01,2.68,0.80,0.44,
1.205,0.37,0.06,1.01,2.68,0.80,0.44,
1.207,0.38,0.05,1.00,2.68,0.80,0.44,
1.208,0.38,0.05,1.00,2.84,0.71,0.32,
1.21,0.38,0.05,1.00,2.84,0.71,0.32,
1.221,0.38,0.04,1.00,2.84,0.71,0.32,
1.221,0.38,0.04,1.00,2.96,0.53,0.28,
1.221,0.38,0.03,1.00,2.96,0.53,0.28,
1.222,0.38,0.03,0.99,2.96,0.53,0.28,
1.222,0.38,0.03,0.99,3.00,0.38,0.21,
1.222,0.38,0.02,0.98,3.00,0.38,0.21,
1.222,0.36,0.02,0.99,3.00,0.38,0.21,
1.222,0.36,0.02,0.99,3.00,0.27,0.16,
1.225,0.36,0.02,0.98,3.00,0.27,0.16,
1.227,0.35,0.01,0.98,3.00,0.27,0.16,
1.227,0.35,0.01,0.98,2.91,0.19,0.08,
1.234,0.34,0.01,0.98,2.91,0.19,0.08,
1.234,0.33,-0.00,0.98,2.91,0.19,0.08,
1.234,0.33,-0.00,0.98,2.78,0.13,0.06,
1.235,0.31,-0.00,0.98,2.78,0.13,0.06,
1.237,0.29,-0.01,0.97,2.78,0.13,0.06,
1.237,0.29,-0.01,0.97,2.52,0.02,0.05,
1.24,0.28,-0.01,0.97,2.52,0.02,0.05,
1.242,0.26,-0.01,0.97,2.52,0.02,0.05,
1.242,0.26,-0.01,0.97,2.17,-0.04,-0.01,
1.245,0.25,-0.00,0.96,2.17,-0.04,-0.01,
1.251,0.24,-0.00,0.96,2.17,-0.04,-0.01,
1.252,0.24,-0.00,0.96,1.90,-0.05,-0.05,
1.252,0.23,0.00,0.96,1.90,-0.05,-0.05,
1.252,0.22,0.01,0.96,1.90,-0.05,-0.05,
1.253,0.22,0.01,0.96,1.64,0.00,-0.14,
1.255,0.21,0.02,0.96,1.64,0.00,-0.14,
1.257,0.20,0.03,0.95,1.64,0.00,-0.14,
1.257,0.20,0.03,0.95,1.42,0.10,-0.16,
1.26,0.20,0.04,0.96,1.42,0.10,-0.16,
1.262,0.20,0.05,0.96,1.42,0.10,-0.16,
1.262,0.20,0.05,0.96,1.24,0.32,-0.20,
1.268,0.21,0.06,0.95,1.24,0.32,-0.20,
1.269,0.21,0.07,0.95,1.24,0.32,-0.20,
1.269,0.21,0.07,0.95,1.18,0.51,-0.18,
1.269,0.22,0.07,0.96,1.18,0.51,-0.18,
1.272,0.23,0.08,0.97,1.18,0.51,-0.18,
1.272,0.23,0.08,0.97,1.28,0.73,-0.23,
1.275,0.23,0.09,0.97,1.28,0.73,-0.23,
1.277,0.24,0.09,0.98,1.28,0.73,-0.23,
1.277,0.24,0.09,0.98,1.42,0.83,-0.12,
1.283,0.25,0.09,0.99,1.42,0.83,-0.12,
1.284,0.26,0.09,0.99,1.42,0.83,-0.12,
1.284,0.26,0.09,0.99,1.53,0.97,0.01,
1.284,0.27,0.10,0.99,1.53,0.97,0.01,
1.287,0.28,0.10,1.00,1.53,0.97,0.01,
1.287,0.28,0.10,1.00,1.72,0.99,0.12,
1.29,0.28,0.09,1.00,1.72,0.99,0.12,
1.292,0.29,0.09,1.01,1.72,0.99,0.12,
1.292,0.29,0.09,1.01,1.86,1.07,0.19,
1.294,0.30,0.08,1.02,1.86,1.07,0.19,
1.3,0.30,0.07,1.02,1.86,1.07,0.19,
1.301,0.30,0.07,1.02,2.00,1.04,0.28,
1.301,0.31,0.07,1.02,2.00,1.04,0.28,
1.301,0.31,0.06,1.01,2.00,1.04,0.28,
1.301,0.31,0.06,1.01,2.15,0.92,0.38,
1.304,0.32,0.04,1.01,2.15,0.92,0.38,
1.307,0.32,0.03,1.00,2.15,0.92,0.38,
1.307,0.32,0.03,1.00,2.24,0.79,0.36,
1.309,0.32,0.02,1.00,2.24,0.79,0.36,
1.311,0.32,0.00,1.00,2.24,0.79,0.36,
1.311,0.32,0.00,1.00,2.30,0.56,0.27,
1.317,0.31,-0.01,1.00,2.30,0.56,0.27,
1.317,0.30,-0.01,1.00,2.30,0.56,0.27,
1.319,0.30,-0.01,1.00,2.30,0.36,0.20,
1.319,0.29,-0.02,1.00,2.30,0.36,0.20,
1.321,0.29,-0.03,1.00,2.30,0.36,0.20,
1.322,0.29,-0.03,1.00,2.20,0.17,0.19,
1.323,0.28,-0.05,1.01,2.20,0.17,0.19,
1.326,0.26,-0.06,1.01,2.20,0.17,0.19,
1.326,0.26,-0.06,1.01,2.06,0.03,0.24,
1.339,0.25,-0.07,1.01,2.06,0.03,0.24,
1.34,0.23,-0.09,1.03,2.06,0.03,0.24,
1.34,0.23,-0.09,1.03,1.85,-0.18,0.30,
1.341,0.22,-0.10,1.03,1.85,-0.18,0.30,
1.341,0.21,-0.11,1.03,1.85,-0.18,0.30,
1.341,0.21,-0.11,1.03,1.57,-0.40,0.43,
1.342,0.19,-0.11,1.03,1.57,-0.40,0.43,
1.342,0.19,-0.12,1.03,1.57,-0.40,0.43,
1.342,0.19,-0.12,1.03,1.32,-0.57,0.52,
1.344,0.18,-0.12,1.03,1.32,-0.57,0.52,
1.353,0.16,-0.12,1.03,1.32,-0.57,0.52,
1.353,0.16,-0.12,1.03,1.08,-0.68,0.56,
1.354,0.16,-0.12,1.04,1.08,-0.68,0.56,
1.354,0.15,-0.12,1.04,1.08,-0.68,0.56,
1.354,0.15,-0.12,1.04,0.87,-0.69,0.51,
1.354,0.14,-0.12,1.03,0.87,-0.69,0.51,
1.356,0.14,-0.11,1.04,0.87,-0.69,0.51,
1.356,0.14,-0.11,1.04,0.70,-0.65,0.58,
1.359,0.13,-0.10,1.04,0.70,-0.65,0.58,
1.362,0.13,-0.09,1.04,0.70,-0.65,0.58,
1.363,0.13,-0.09,1.04,0.57,-0.55,0.58,
1.374,0.14,-0.08,1.04,0.57,-0.55,0.58,
1.375,0.14,-0.08,1.03,0.57,-0.55,0.58,
1.376,0.14,-0.08,1.03,0.51,-0.39,0.63,
1.376,0.15,-0.06,1.03,0.51,-0.39,0.63,
1.376,0.17,-0.05,1.03,0.51,-0.39,0.63,
1.376,0.17,-0.05,1.03,0.59,-0.20,0.57,
1.377,0.18,-0.05,1.03,0.59,-0.20,0.57,
1.377,0.20,-0.04,1.02,0.59,-0.20,0.57,
1.377,0.20,-0.04,1.02,0.78,0.04,0.51,
1.378,0.22,-0.03,1.01,0.78,0.04,0.51,
1.386,0.23,-0.03,1.01,0.78,0.04,0.51,
1.387,0.23,-0.03,1.01,1.07,0.19,0.46,
1.387,0.24,-0.02,1.00,1.07,0.19,0.46,
1.387,0.24,-0.02,0.99,1.07,0.19,0.46,
1.388,0.24,-0.02,0.99,1.41,0.36,0.28,
1.388,0.26,-0.02,0.99,1.41,0.36,0.28,
1.391,0.26,-0.01,0.98,1.41,0.36,0.28,
1.392,0.26,-0.01,0.98,1.57,0.45,0.19,
1.393,0.27,-0.01,0.98,1.57,0.45,0.19,
1.396,0.28,-0.01,0.99,1.57,0.45,0.19,
1.396,0.28,-0.01,0.99,1.74,0.55,0.08,
1.4,0.29,-0.01,0.99,1.74,0.55,0.08,
1.401,0.29,-0.02,0.99,1.74,0.55,0.08,
1.401,0.29,-0.02,0.99,1.90,0.58,0.07,
1.403,0.30,-0.02,0.99,1.90,0.58,0.07,
1.405,0.30,-0.03,1.00,1.90,0.58,0.07,
1.406,0.30,-0.03,1.00,2.02,0.57,0.14,
1.408,0.30,-0.03,1.00,2.02,0.57,0.14,
1.411,0.30,-0.04,1.02,2.02,0.57,0.14,
1.411,0.30,-0.04,1.02,2.15,0.52,0.17,
1.417,0.30,-0.05,1.03,2.15,0.52,0.17,
1.418,0.29,-0.06,1.04,2.15,0.52,0.17,
1.418,0.29,-0.06,1.04,2.14,0.42,0.32,
1.418,0.29,-0.07,1.05,2.14,0.42,0.32,
1.42,0.28,-0.08,1.06,2.14,0.42,0.32,
1.42,0.28,-0.08,1.06,2.09,0.29,0.53,
1.422,0.27,-0.09,1.07,2.09,0.29,0.53,
1.426,0.26,-0.09,1.08,2.09,0.29,0.53,
1.426,0.26,-0.09,1.08,1.96,0.12,0.79,
1.427,0.25,-0.10,1.09,1.96,0.12,0.79,
1.436,0.23,-0.11,1.10,1.96,0.12,0.79,
1.437,0.23,-0.11,1.10,1.76,-0.04,0.96,
1.437,0.22,-0.11,1.11,1.76,-0.04,0.96,
1.438,0.20,-0.12,1.11,1.76,-0.04,0.96,
1.438,0.20,-0.12,1.11,1.50,-0.18,1.16,
1.438,0.19,-0.12,1.12,1.50,-0.18,1.16,
1.44,0.18,-0.12,1.12,1.50,-0.18,1.16,
1.441,0.18,-0.12,1.12,1.21,-0.26,1.31,
1.442,0.17,-0.12,1.13,1.21,-0.26,1.31,
1.445,0.16,-0.12,1.13,1.21,-0.26,1.31,
1.457,0.16,-0.12,1.13,0.99,-0.28,1.41,
1.458,0.15,-0.12,1.14,0.99,-0.28,1.41,
1.458,0.14,-0.12,1.13,0.99,-0.28,1.41,
1.458,0.14,-0.12,1.13,0.78,-0.30,1.48,
1.459,0.14,-0.11,1.13,0.78,-0.30,1.48,
1.459,0.13,-0.11,1.13,0.78,-0.30,1.48,
1.459,0.13,-0.11,1.13,0.55,-0.28,1.51,
1.46,0.13,-0.11,1.12,0.55,-0.28,1.51,
1.46,0.13,-0.11,1.11,0.55,-0.28,1.51,
1.46,0.13,-0.11,1.11,0.46,-0.20,1.48,
1.471,0.13,-0.10,1.10,0.46,-0.20,1.48,
1.472,0.13,-0.10,1.10,0.46,-0.20,1.48,
1.472,0.13,-0.10,1.10,0.39,-0.18,1.36,
1.472,0.13,-0.10,1.09,0.39,-0.18,1.36,
1.473,0.12,-0.09,1.09,0.39,-0.18,1.36,
1.473,0.12,-0.09,1.09,0.36,-0.10,1.19,
1.473,0.13,-0.09,1.08,0.36,-0.10,1.19,
1.474,0.13,-0.10,1.08,0.36,-0.10,1.19,
1.476,0.13,-0.10,1.08,0.36,-0.05,1.09,
1.477,0.13,-0.08,1.07,0.36,-0.05,1.09,
1.488,0.13,-0.08,1.07,0.36,-0.05,1.09,
1.488,0.13,-0.08,1.07,0.43,-0.03,0.99,
1.491,0.14,-0.08,1.07,0.43,-0.03,0.99,
1.493,0.14,-0.08,1.06,0.43,-0.03,0.99,
1.493,0.14,-0.08,1.06,0.41,0.06,0.89,
1.493,0.14,-0.08,1.06,0.41,0.06,0.89,
1.494,0.14,-0.08,1.06,0.41,0.06,0.89,
1.495,0.14,-0.08,1.06,0.46,0.07,0.82,
1.495,0.14,-0.08,1.07,0.46,0.07,0.82,
1.495,0.15,-0.08,1.07,0.46,0.07,0.82,
1.496,0.15,-0.08,1.07,0.50,0.10,0.79,
1.503,0.15,-0.09,1.07,0.50,0.10,0.79,
1.503,0.16,-0.09,1.08,0.50,0.10,0.79,
1.504,0.16,-0.09,1.08,0.57,0.06,0.84,
1.504,0.16,-0.09,1.09,0.57,0.06,0.84,
1.505,0.17,-0.09,1.09,0.57,0.06,0.84,
1.505,0.17,-0.09,1.09,0.66,0.01,0.93,
1.507,0.17,-0.10,1.10,0.66,0.01,0.93,
1.509,0.17,-0.11,1.12,0.66,0.01,0.93,
1.51,0.17,-0.11,1.12,0.71,-0.03,1.07,
1.513,0.17,-0.11,1.12,0.71,-0.03,1.07,
1.519,0.17,-0.11,1.12,0.71,-0.03,1.07,
1.519,0.17,-0.11,1.12,0.75,-0.16,1.25,
1.519,0.17,-0.13,1.13,0.75,-0.16,1.25,
1.52,0.17,-0.13,1.13,0.75,-0.16,1.25,
1.52,0.17,-0.13,1.13,0.77,-0.25,1.34,
1.522,0.17,-0.14,1.14,0.77,-0.25,1.34,
1.525,0.16,-0.14,1.13,0.77,-0.25,1.34,
1.525,0.16,-0.14,1.13,0.75,-0.43,1.43,
1.527,0.16,-0.15,1.13,0.75,-0.43,1.43,
1.529,0.15,-0.15,1.13,0.75,-0.43,1.43,
1.53,0.15,-0.15,1.13,0.69,-0.54,1.49,
1.535,0.14,-0.16,1.12,0.69,-0.54,1.49,
1.535,0.14,-0.16,1.12,0.56,-0.61,1.47,
1.535,0.14,-0.17,1.13,0.56,-0.61,1.47,
1.537,0.14,-0.18,1.12,0.56,-0.61,1.47,
1.539,0.13,-0.18,1.12,0.56,-0.61,1.47,
1.54,0.13,-0.18,1.12,0.44,-0.78,1.39,
1.542,0.12,-0.19,1.11,0.44,-0.78,1.39,
1.544,0.11,-0.19,1.10,0.44,-0.78,1.39,
1.545,0.11,-0.19,1.10,0.35,-0.89,1.34,
1.547,0.11,-0.20,1.08,0.35,-0.89,1.34,
1.557,0.11,-0.20,1.08,0.35,-0.89,1.34,
1.557,0.11,-0.20,1.08,0.17,-1.02,1.16,
1.558,0.11,-0.20,1.07,0.17,-1.02,1.16,
1.558,0.11,-0.20,1.06,0.17,-1.02,1.16,
1.558,0.11,-0.20,1.06,0.11,-1.14,0.96,
1.558,0.11,-0.20,1.06,0.11,-1.14,0.96,
1.559,0.11,-0.20,1.05,0.11,-1.14,0.96,
1.559,0.11,-0.20,1.05,0.08,-1.13,0.81,
1.562,0.11,-0.20,1.04,0.08,-1.13,0.81,
1.57,0.11,-0.20,1.04,0.08,-1.13,0.81,
1.572,0.11,-0.20,1.04,0.08,-1.17,0.67,
1.572,0.12,-0.19,1.04,0.08,-1.17,0.67,
1.572,0.12,-0.18,1.03,0.08,-1.17,0.67,
1.572,0.12,-0.18,1.03,0.14,-1.15,0.55,
1.573,0.12,-0.18,1.04,0.14,-1.15,0.55,
1.574,0.12,-0.17,1.04,0.14,-1.15,0.55,
1.574,0.12,-0.17,1.04,0.19,-1.06,0.49,
1.577,0.13,-0.17,1.03,0.19,-1.06,0.49,
1.579,0.13,-0.16,1.03,0.19,-1.06,0.49,
1.581,0.13,-0.16,1.03,0.22,-0.99,0.50,
1.581,0.14,-0.15,1.02,0.22,-0.99,0.50,
1.586,0.14,-0.15,1.03,0.22,-0.99,0.50,
1.587,0.14,-0.15,1.03,0.27,-0.89,0.44,
1.587,0.15,-0.14,1.03,0.27,-0.89,0.44,
1.589,0.15,-0.14,1.03,0.27,-0.89,0.44,
1.589,0.15,-0.14,1.03,0.35,-0.75,0.40,
1.591,0.16,-0.13,1.03,0.35,-0.75,0.40,
1.594,0.16,-0.13,1.03,0.35,-0.75,0.40,
1.594,0.16,-0.13,1.03,0.46,-0.70,0.41,
1.596,0.16,-0.13,1.03,0.46,-0.70,0.41,
1.603,0.17,-0.12,1.02,0.46,-0.70,0.41,
1.604,0.17,-0.12,1.02,0.53,-0.63,0.42,
1.604,0.18,-0.12,1.03,0.53,-0.63,0.42,
1.604,0.18,-0.11,1.03,0.53,-0.63,0.42,
1.604,0.18,-0.11,1.03,0.60,-0.59,0.36,
1.606,0.19,-0.11,1.04,0.60,-0.59,0.36,
1.609,0.19,-0.11,1.03,0.60,-0.59,0.36,
1.609,0.19,-0.11,1.03,0.70,-0.52,0.43,
1.611,0.20,-0.10,1.03,0.70,-0.52,0.43,
1.619,0.20,-0.10,1.02,0.70,-0.52,0.43,
1.619,0.20,-0.10,1.02,0.80,-0.47,0.43,
1.619,0.20,-0.10,1.01,0.80,-0.47,0.43,
1.62,0.21,-0.10,1.01,0.80,-0.47,0.43,
1.62,0.21,-0.10,1.01,0.89,-0.42,0.37,
1.621,0.21,-0.11,1.00,0.89,-0.42,0.37,
1.623,0.20,-0.11,0.99,0.89,-0.42,0.37,
1.624,0.20,-0.11,0.99,0.94,-0.48,0.25,
1.626,0.20,-0.12,0.98,0.94,-0.48,0.25,
1.628,0.19,-0.12,0.97,0.94,-0.48,0.25,
1.629,0.19,-0.12,0.97,0.91,-0.58,0.09,
1.63,0.19,-0.11,0.97,0.91,-0.58,0.09,
1.637,0.18,-0.11,0.96,0.91,-0.58,0.09,
1.638,0.18,-0.11,0.96,0.83,-0.67,-0.11,
1.638,0.17,-0.12,0.96,0.83,-0.67,-0.11,
1.638,0.16,-0.12,0.97,0.83,-0.67,-0.11,
1.638,0.16,-0.12,0.97,0.71,-0.66,-0.23,
1.641,0.15,-0.13,0.96,0.71,-0.66,-0.23,
1.643,0.15,-0.13,0.96,0.71,-0.66,-0.23,
1.644,0.15,-0.13,0.96,0.58,-0.72,-0.22,
1.646,0.14,-0.13,0.96,0.58,-0.72,-0.22,
1.648,0.14,-0.14,0.95,0.58,-0.72,-0.22,
1.649,0.14,-0.14,0.95,0.43,-0.84,-0.29,
1.657,0.12,-0.15,0.96,0.43,-0.84,-0.29,
1.658,0.12,-0.15,0.97,0.43,-0.84,-0.29,
1.658,0.12,-0.15,0.97,0.31,-0.96,-0.30,
1.658,0.10,-0.15,0.97,0.31,-0.96,-0.30,
1.658,0.10,-0.16,0.98,0.31,-0.96,-0.30,
1.659,0.10,-0.16,0.98,0.13,-1.10,-0.25,
1.661,0.08,-0.16,0.98,0.13,-1.10,-0.25,
1.663,0.08,-0.17,0.99,0.13,-1.10,-0.25,
1.663,0.08,-0.17,0.99,-0.07,-1.16,-0.15,
1.67,0.07,-0.17,0.99,-0.07,-1.16,-0.15,
1.67,0.06,-0.17,0.99,-0.07,-1.16,-0.15,
1.67,0.06,-0.17,0.99,-0.22,-1.28,-0.03,
1.671,0.07,-0.17,0.99,-0.22,-1.28,-0.03,
1.673,0.06,-0.18,0.99,-0.22,-1.28,-0.03,
1.673,0.06,-0.18,0.99,-0.34,-1.34,0.02,
1.676,0.05,-0.18,0.99,-0.34,-1.34,0.02,
1.678,0.05,-0.18,0.99,-0.34,-1.34,0.02,
1.678,0.05,-0.18,0.99,-0.40,-1.40,0.03,
1.681,0.05,-0.17,0.98,-0.40,-1.40,0.03,
1.687,0.04,-0.17,0.98,-0.40,-1.40,0.03,
1.688,0.04,-0.17,0.98,-0.49,-1.44,0.01,
1.688,0.03,-0.17,0.98,-0.49,-1.44,0.01,
1.688,0.03,-0.17,0.97,-0.49,-1.44,0.01,
1.688,0.03,-0.17,0.97,-0.54,-1.42,-0.06,
1.69,0.02,-0.16,0.96,-0.54,-1.42,-0.06,
1.693,0.02,-0.16,0.96,-0.54,-1.42,-0.06,
1.693,0.02,-0.16,0.96,-0.70,-1.44,-0.16,
1.695,0.01,-0.15,0.95,-0.70,-1.44,-0.16,
1.703,0.00,-0.15,0.94,-0.70,-1.44,-0.16,
1.703,0.00,-0.15,0.94,-0.80,-1.35,-0.31,
1.704,-0.00,-0.15,0.94,-0.80,-1.35,-0.31,
1.704,-0.00,-0.15,0.93,-0.80,-1.35,-0.31,
1.704,-0.00,-0.15,0.93,-0.92,-1.31,-0.47,
1.705,-0.00,-0.14,0.92,-0.92,-1.31,-0.47,
1.707,-0.00,-0.13,0.92,-0.92,-1.31,-0.47,
1.707,-0.00,-0.13,0.92,-1.00,-1.28,-0.56,
1.71,-0.00,-0.12,0.92,-1.00,-1.28,-0.56,
1.712,-0.00,-0.12,0.92,-1.00,-1.28,-0.56,
1.712,-0.00,-0.12,0.92,-0.99,-1.14,-0.65,
1.72,0.01,-0.11,0.91,-0.99,-1.14,-0.65,
1.72,0.01,-0.11,0.90,-0.99,-1.14,-0.65,
1.721,0.01,-0.11,0.90,-0.97,-1.03,-0.66,
1.721,0.02,-0.10,0.90,-0.97,-1.03,-0.66,
1.722,0.02,-0.10,0.91,-0.97,-1.03,-0.66,
1.723,0.02,-0.10,0.91,-0.83,-0.98,-0.79,
1.724,0.02,-0.10,0.90,-0.83,-0.98,-0.79,
1.727,0.03,-0.09,0.92,-0.83,-0.98,-0.79,
1.727,0.03,-0.09,0.92,-0.72,-0.95,-0.83,
1.729,0.03,-0.08,0.92,-0.72,-0.95,-0.83,
1.736,0.03,-0.08,0.93,-0.72,-0.95,-0.83,
1.736,0.03,-0.08,0.93,-0.69,-0.91,-0.78,
1.736,0.03,-0.08,0.94,-0.69,-0.91,-0.78,
1.737,0.03,-0.07,0.94,-0.69,-0.91,-0.78,
1.737,0.03,-0.07,0.94,-0.61,-0.75,-0.63,
1.739,0.03,-0.07,0.95,-0.61,-0.75,-0.63,
1.742,0.04,-0.08,0.95,-0.61,-0.75,-0.63,
1.742,0.04,-0.08,0.95,-0.61,-0.69,-0.50,
1.744,0.04,-0.08,0.95,-0.61,-0.69,-0.50,
1.747,0.03,-0.09,0.96,-0.61,-0.69,-0.50,
1.747,0.03,-0.09,0.96,-0.59,-0.69,-0.38,
1.756,0.03,-0.09,0.96,-0.59,-0.69,-0.38,
1.757,0.03,-0.09,0.97,-0.59,-0.69,-0.38,
1.757,0.03,-0.09,0.97,-0.56,-0.82,-0.30,
1.757,0.03,-0.11,0.98,-0.56,-0.82,-0.30,
1.758,0.02,-0.11,0.98,-0.56,-0.82,-0.30,
1.758,0.02,-0.11,0.98,-0.59,-0.89,-0.21,
1.759,0.02,-0.11,0.98,-0.59,-0.89,-0.21,
1.762,0.01,-0.12,0.98,-0.59,-0.89,-0.21,
1.762,0.01,-0.12,0.98,-0.66,-1.04,-0.11,
1.777,-0.00,-0.12,0.98,-0.66,-1.04,-0.11,
1.778,-0.01,-0.12,0.99,-0.66,-1.04,-0.11,
1.778,-0.01,-0.12,0.99,-0.80,-1.11,-0.11,
1.778,-0.02,-0.13,0.99,-0.80,-1.11,-0.11,
1.779,-0.02,-0.13,0.99,-0.80,-1.11,-0.11,
1.779,-0.02,-0.13,0.99,-0.98,-1.21,-0.04,
1.779,-0.03,-0.13,0.99,-0.98,-1.21,-0.04,
1.779,-0.04,-0.13,0.99,-0.98,-1.21,-0.04,
1.779,-0.04,-0.13,0.99,-1.10,-1.28,0.02,
1.78,-0.04,-0.13,0.99,-1.10,-1.28,0.02,
1.79,-0.05,-0.12,0.99,-1.10,-1.28,0.02,
1.791,-0.05,-0.12,0.99,-1.25,-1.31,0.01,
1.791,-0.06,-0.12,0.98,-1.25,-1.31,0.01,
1.791,-0.07,-0.12,0.97,-1.25,-1.31,0.01,
1.792,-0.07,-0.12,0.97,-1.36,-1.28,-0.02,
1.792,-0.07,-0.12,0.97,-1.36,-1.28,-0.02,
1.792,-0.08,-0.12,0.96,-1.36,-1.28,-0.02,
1.792,-0.08,-0.12,0.96,-1.55,-1.30,-0.09,
1.794,-0.08,-0.12,0.95,-1.55,-1.30,-0.09,
1.796,-0.09,-0.13,0.94,-1.55,-1.30,-0.09,
1.796,-0.09,-0.13,0.94,-1.65,-1.32,-0.26,
1.806,-0.09,-0.13,0.93,-1.65,-1.32,-0.26,
1.807,-0.10,-0.13,0.93,-1.65,-1.32,-0.26,
1.807,-0.10,-0.13,0.93,-1.76,-1.37,-0.41,
1.808,-0.10,-0.14,0.92,-1.76,-1.37,-0.41,
1.808,-0.11,-0.14,0.91,-1.76,-1.37,-0.41,
1.808,-0.11,-0.14,0.91,-1.84,-1.43,-0.58,
1.808,-0.12,-0.14,0.90,-1.84,-1.43,-0.58,
1.811,-0.12,-0.15,0.89,-1.84,-1.43,-0.58,
1.814,-0.12,-0.15,0.89,-1.97,-1.57,-0.74,
1.814,-0.13,-0.15,0.89,-1.97,-1.57,-0.74,
1.821,-0.14,-0.15,0.88,-1.97,-1.57,-0.74,
1.822,-0.14,-0.15,0.88,-2.11,-1.64,-0.88,
1.822,-0.16,-0.15,0.88,-2.11,-1.64,-0.88,
1.822,-0.17,-0.15,0.87,-2.11,-1.64,-0.88,
1.822,-0.17,-0.15,0.87,-2.24,-1.71,-1.00,
1.823,-0.17,-0.16,0.87,-2.24,-1.71,-1.00,
1.826,-0.18,-0.16,0.86,-2.24,-1.71,-1.00,
1.827,-0.18,-0.16,0.86,-2.48,-1.76,-1.08,
1.829,-0.19,-0.16,0.86,-2.48,-1.76,-1.08,
1.837,-0.19,-0.16,0.86,-2.64,-1.84,-1.20,
1.837,-0.20,-0.16,0.86,-2.64,-1.84,-1.20,
1.838,-0.21,-0.16,0.85,-2.64,-1.84,-1.20,
1.838,-0.21,-0.17,0.85,-2.64,-1.84,-1.20,
1.838,-0.21,-0.17,0.85,-2.82,-1.87,-1.26,
1.839,-0.21,-0.16,0.86,-2.82,-1.87,-1.26,
1.841,-0.22,-0.15,0.86,-2.82,-1.87,-1.26,
1.841,-0.22,-0.15,0.86,-2.94,-1.90,-1.31,
1.844,-0.21,-0.15,0.86,-2.94,-1.90,-1.31,
1.846,-0.21,-0.15,0.86,-2.94,-1.90,-1.31,
1.846,-0.21,-0.15,0.86,-2.99,-1.81,-1.22,
1.854,-0.21,-0.15,0.86,-2.99,-1.81,-1.22,
1.855,-0.20,-0.14,0.87,-2.99,-1.81,-1.22,
1.855,-0.20,-0.14,0.87,-2.94,-1.78,-1.22,
1.855,-0.20,-0.14,0.87,-2.94,-1.78,-1.22,
1.856,-0.19,-0.13,0.87,-2.94,-1.78,-1.22,
1.856,-0.19,-0.13,0.87,-2.89,-1.71,-1.17,
1.858,-0.18,-0.13,0.87,-2.89,-1.71,-1.17,
1.861,-0.17,-0.12,0.88,-2.89,-1.71,-1.17,
1.861,-0.17,-0.12,0.88,-2.79,-1.61,-1.13,
1.864,-0.16,-0.12,0.89,-2.79,-1.61,-1.13,
1.87,-0.15,-0.12,0.89,-2.79,-1.61,-1.13,
1.87,-0.15,-0.12,0.89,-2.63,-1.52,-1.05,
1.871,-0.14,-0.11,0.89,-2.63,-1.52,-1.05,
1.871,-0.13,-0.11,0.89,-2.63,-1.52,-1.05,
1.871,-0.13,-0.11,0.89,-2.46,-1.46,-0.93,
1.874,-0.12,-0.11,0.89,-2.46,-1.46,-0.93,
1.876,-0.12,-0.10,0.89,-2.46,-1.46,-0.93,
1.876,-0.12,-0.10,0.89,-2.28,-1.39,-0.90,
1.878,-0.12,-0.10,0.89,-2.28,-1.39,-0.90,
1.881,-0.11,-0.09,0.90,-2.28,-1.39,-0.90,
1.881,-0.11,-0.09,0.90,-2.16,-1.35,-0.87,
1.891,-0.11,-0.09,0.90,-2.16,-1.35,-0.87,
1.892,-0.12,-0.10,0.90,-2.16,-1.35,-0.87,
1.892,-0.12,-0.10,0.90,-2.11,-1.27,-0.86,
1.893,-0.12,-0.09,0.90,-2.11,-1.27,-0.86,
1.893,-0.12,-0.09,0.91,-2.11,-1.27,-0.86,
1.893,-0.12,-0.09,0.91,-2.14,-1.25,-0.79,
1.893,-0.12,-0.09,0.91,-2.14,-1.25,-0.79,
1.896,-0.12,-0.09,0.91,-2.14,-1.25,-0.79,
1.896,-0.12,-0.09,0.91,-2.15,-1.20,-0.73,
1.906,-0.12,-0.09,0.91,-2.15,-1.20,-0.73,
1.907,-0.12,-0.08,0.91,-2.15,-1.20,-0.73,
1.907,-0.12,-0.08,0.91,-2.19,-1.18,-0.68,
1.907,-0.12,-0.08,0.91,-2.19,-1.18,-0.68,
1.907,-0.13,-0.08,0.92,-2.19,-1.18,-0.68,
1.908,-0.13,-0.08,0.92,-2.18,-1.15,-0.67,
1.908,-0.13,-0.08,0.91,-2.18,-1.15,-0.67,
1.911,-0.14,-0.09,0.92,-2.18,-1.15,-0.67,
1.911,-0.14,-0.09,0.92,-2.25,-1.12,-0.65,
1.913,-0.15,-0.09,0.92,-2.25,-1.12,-0.65,
1.923,-0.16,-0.09,0.92,-2.25,-1.12,-0.65,
1.924,-0.16,-0.09,0.92,-2.40,-1.13,-0.64,
1.924,-0.16,-0.09,0.91,-2.40,-1.13,-0.64,
1.924,-0.17,-0.09,0.91,-2.40,-1.13,-0.64,
1.925,-0.17,-0.09,0.91,-2.53,-1.16,-0.60,
1.925,-0.18,-0.10,0.91,-2.53,-1.16,-0.60,
1.925,-0.19,-0.10,0.91,-2.53,-1.16,-0.60,
1.925,-0.19,-0.10,0.91,-2.64,-1.19,-0.68,
1.928,-0.20,-0.10,0.91,-2.64,-1.19,-0.68,
1.931,-0.21,-0.09,0.91,-2.64,-1.19,-0.68,
1.931,-0.21,-0.09,0.91,-2.82,-1.20,-0.71,
1.938,-0.22,-0.09,0.91,-2.82,-1.20,-0.71,
1.939,-0.23,-0.09,0.92,-2.82,-1.20,-0.71,
1.939,-0.23,-0.09,0.92,-3.01,-1.17,-0.70,
1.939,-0.23,-0.09,0.92,-3.01,-1.17,-0.70,
1.941,-0.24,-0.10,0.92,-3.01,-1.17,-0.70,
1.941,-0.24,-0.10,0.92,-3.21,-1.13,-0.64,
1.943,-0.24,-0.09,0.92,-3.21,-1.13,-0.64,
1.946,-0.25,-0.09,0.92,-3.21,-1.13,-0.64,
1.946,-0.25,-0.09,0.92,-3.33,-1.13,-0.59,
1.948,-0.25,-0.10,0.92,-3.33,-1.13,-0.59,
1.953,-0.25,-0.10,0.92,-3.33,-1.13,-0.59,
1.954,-0.25,-0.10,0.92,-3.44,-1.07,-0.60,
1.954,-0.25,-0.10,0.92,-3.44,-1.07,-0.60,
1.955,-0.25,-0.10,0.92,-3.47,-1.12,-0.59,
1.956,-0.24,-0.10,0.91,-3.47,-1.12,-0.59,
1.958,-0.24,-0.09,0.91,-3.47,-1.12,-0.59,
1.96,-0.23,-0.10,0.90,-3.47,-1.12,-0.59,
1.96,-0.23,-0.10,0.90,-3.45,-1.10,-0.65,
1.962,-0.23,-0.09,0.90,-3.45,-1.10,-0.65,
1.965,-0.22,-0.09,0.90,-3.45,-1.10,-0.65,
1.966,-0.22,-0.09,0.90,-3.37,-1.08,-0.72,
1.972,-0.20,-0.09,0.89,-3.37,-1.08,-0.72,
1.973,-0.19,-0.09,0.90,-3.37,-1.08,-0.72,
1.973,-0.19,-0.09,0.90,-3.24,-1.04,-0.77,
1.973,-0.18,-0.08,0.89,-3.24,-1.04,-0.77,
1.975,-0.18,-0.08,0.88,-3.24,-1.04,-0.77,
1.975,-0.18,-0.08,0.88,-3.03,-0.99,-0.82,
1.978,-0.18,-0.07,0.88,-3.03,-0.99,-0.82,
1.98,-0.17,-0.06,0.88,-3.03,-0.99,-0.82,
1.98,-0.17,-0.06,0.88,-2.88,-0.93,-0.91,
1.983,-0.16,-0.05,0.87,-2.88,-0.93,-0.91,
1.993,-0.16,-0.04,0.88,-2.88,-0.93,-0.91,
1.994,-0.16,-0.04,0.88,-2.84,-0.73,-0.96,
1.994,-0.17,-0.02,0.89,-2.84,-0.73,-0.96,
1.994,-0.17,-0.01,0.88,-2.84,-0.73,-0.96,
1.995,-0.17,-0.01,0.88,-2.73,-0.54,-1.02,
1.995,-0.17,-0.01,0.88,-2.73,-0.54,-1.02,
1.995,-0.17,-0.02,0.89,-2.73,-0.54,-1.02,
1.995,-0.17,-0.02,0.89,-2.76,-0.28,-0.90,
1.997,-0.17,-0.02,0.90,-2.76,-0.28,-0.90,
2.007,-0.17,-0.02,0.89,-2.76,-0.28,-0.90,
2.007,-0.17,-0.02,0.89,-2.76,-0.21,-0.86,
2.008,-0.17,-0.03,0.90,-2.76,-0.21,-0.86,
2.008,-0.18,-0.03,0.90,-2.76,-0.21,-0.86,
2.008,-0.18,-0.03,0.90,-2.79,-0.28,-0.79,
2.008,-0.18,-0.04,0.91,-2.79,-0.28,-0.79,
2.009,-0.19,-0.05,0.92,-2.79,-0.28,-0.79,
2.009,-0.19,-0.05,0.92,-2.84,-0.35,-0.75,
2.011,-0.19,-0.06,0.92,-2.84,-0.35,-0.75,
2.014,-0.20,-0.07,0.93,-2.84,-0.35,-0.75,
2.014,-0.20,-0.07,0.93,-2.95,-0.48,-0.61,
2.024,-0.21,-0.07,0.93,-2.95,-0.48,-0.61,
2.025,-0.22,-0.08,0.94,-2.95,-0.48,-0.61,
2.025,-0.22,-0.08,0.94,-3.06,-0.64,-0.49,
2.025,-0.22,-0.09,0.94,-3.06,-0.64,-0.49,
2.025,-0.23,-0.09,0.95,-3.06,-0.64,-0.49,
2.026,-0.23,-0.09,0.95,-3.22,-0.78,-0.36,
2.026,-0.23,-0.10,0.95,-3.22,-0.78,-0.36,
2.029,-0.24,-0.09,0.96,-3.22,-0.78,-0.36,
2.029,-0.24,-0.09,0.96,-3.34,-0.89,-0.28,
2.031,-0.24,-0.10,0.96,-3.34,-0.89,-0.28,
2.039,-0.24,-0.10,0.96,-3.34,-0.89,-0.28,
2.04,-0.24,-0.10,0.96,-3.46,-0.91,-0.19,
2.04,-0.24,-0.10,0.97,-3.46,-0.91,-0.19,
2.04,-0.23,-0.10,0.98,-3.46,-0.91,-0.19,
2.04,-0.23,-0.10,0.98,-3.51,-0.96,-0.14,
2.041,-0.22,-0.10,0.97,-3.51,-0.96,-0.14,
2.044,-0.22,-0.09,0.98,-3.51,-0.96,-0.14,
2.044,-0.22,-0.09,0.98,-3.50,-0.94,-0.02,
2.046,-0.20,-0.09,0.97,-3.50,-0.94,-0.02,
2.053,-0.19,-0.09,0.98,-3.50,-0.94,-0.02,
2.054,-0.19,-0.09,0.98,-3.41,-0.88,0.05,
2.054,-0.19,-0.08,0.98,-3.41,-0.88,0.05,
2.054,-0.18,-0.08,0.98,-3.41,-0.88,0.05,
2.055,-0.18,-0.08,0.98,-3.22,-0.78,0.04,
2.056,-0.17,-0.08,0.98,-3.22,-0.78,0.04,
2.059,-0.17,-0.08,0.98,-3.09,-0.72,0.05,
2.059,-0.16,-0.09,0.99,-3.09,-0.72,0.05,
2.061,-0.14,-0.08,1.00,-3.09,-0.72,0.05,
2.064,-0.13,-0.09,1.02,-3.09,-0.72,0.05,
2.065,-0.13,-0.09,1.02,-2.91,-0.73,0.16,
2.07,-0.12,-0.09,1.03,-2.91,-0.73,0.16,
2.071,-0.11,-0.09,1.04,-2.91,-0.73,0.16,
2.071,-0.11,-0.09,1.04,-2.66,-0.70,0.37,
2.071,-0.10,-0.09,1.05,-2.66,-0.70,0.37,
2.073,-0.09,-0.09,1.06,-2.66,-0.70,0.37,
2.074,-0.09,-0.09,1.06,-2.49,-0.72,0.59,
2.076,-0.08,-0.09,1.06,-2.49,-0.72,0.59,
2.079,-0.08,-0.09,1.06,-2.31,-0.69,0.80,
2.079,-0.08,-0.09,1.08,-2.31,-0.69,0.80,
2.081,-0.08,-0.09,1.09,-2.31,-0.69,0.80,
2.088,-0.08,-0.10,1.10,-2.31,-0.69,0.80,
2.089,-0.08,-0.10,1.10,-2.17,-0.67,1.00,
2.089,-0.07,-0.11,1.11,-2.17,-0.67,1.00,
2.089,-0.07,-0.11,1.12,-2.17,-0.67,1.00,
2.089,-0.07,-0.11,1.12,-2.15,-0.70,1.22,
2.091,-0.08,-0.10,1.13,-2.15,-0.70,1.22,
2.093,-0.09,-0.10,1.14,-2.15,-0.70,1.22,
2.093,-0.09,-0.10,1.14,-2.11,-0.79,1.42,
2.096,-0.10,-0.09,1.15,-2.11,-0.79,1.42,
2.098,-0.11,-0.09,1.15,-2.11,-0.79,1.42,
2.098,-0.11,-0.09,1.15,-2.24,-0.72,1.64,
2.11,-0.12,-0.09,1.16,-2.24,-0.72,1.64,
2.111,-0.13,-0.08,1.16,-2.24,-0.72,1.64,
2.111,-0.13,-0.08,1.16,-2.40,-0.57,1.77,
2.112,-0.13,-0.07,1.16,-2.40,-0.57,1.77,
2.112,-0.14,-0.07,1.16,-2.40,-0.57,1.77,
2.112,-0.14,-0.07,1.16,-2.61,-0.47,1.85,
2.112,-0.15,-0.07,1.16,-2.61,-0.47,1.85,
2.113,-0.15,-0.07,1.16,-2.61,-0.47,1.85,
2.114,-0.15,-0.07,1.16,-2.72,-0.33,1.87,
2.124,-0.16,-0.07,1.16,-2.72,-0.33,1.87,
2.124,-0.16,-0.07,1.17,-2.72,-0.33,1.87,
2.125,-0.16,-0.07,1.17,-2.83,-0.32,1.88,
2.125,-0.16,-0.07,1.16,-2.83,-0.32,1.88,
2.125,-0.15,-0.07,1.16,-2.83,-0.32,1.88,
2.125,-0.15,-0.07,1.16,-2.93,-0.26,1.88,
2.126,-0.15,-0.07,1.15,-2.93,-0.26,1.88,
2.128,-0.15,-0.07,1.15,-2.93,-0.26,1.88,
2.128,-0.15,-0.07,1.15,-2.87,-0.25,1.85,
2.13,-0.14,-0.07,1.15,-2.87,-0.25,1.85,
2.142,-0.13,-0.07,1.15,-2.87,-0.25,1.85,
2.142,-0.13,-0.07,1.15,-2.79,-0.25,1.75,
2.143,-0.13,-0.07,1.15,-2.79,-0.25,1.75,
2.143,-0.12,-0.07,1.14,-2.79,-0.25,1.75,
2.143,-0.12,-0.07,1.14,-2.65,-0.25,1.75,
2.143,-0.12,-0.08,1.13,-2.65,-0.25,1.75,
2.146,-0.11,-0.08,1.13,-2.65,-0.25,1.75,
2.146,-0.11,-0.08,1.13,-2.50,-0.27,1.68,
2.147,-0.11,-0.08,1.12,-2.50,-0.27,1.68,
2.148,-0.10,-0.09,1.11,-2.50,-0.27,1.68,
2.148,-0.10,-0.09,1.11,-2.37,-0.31,1.55,
2.156,-0.10,-0.09,1.11,-2.37,-0.31,1.55,
2.157,-0.11,-0.09,1.11,-2.37,-0.31,1.55,
2.157,-0.11,-0.09,1.11,-2.28,-0.36,1.37,
2.157,-0.11,-0.08,1.12,-2.28,-0.36,1.37,
2.16,-0.11,-0.09,1.13,-2.28,-0.36,1.37,
2.16,-0.11,-0.09,1.13,-2.23,-0.39,1.32,
2.161,-0.12,-0.08,1.13,-2.23,-0.39,1.32,
2.163,-0.12,-0.08,1.13,-2.23,-0.39,1.32,
2.163,-0.12,-0.08,1.13,-2.26,-0.31,1.42,
2.166,-0.12,-0.08,1.14,-2.26,-0.31,1.42,
2.17,-0.12,-0.07,1.14,-2.26,-0.31,1.42,
2.17,-0.12,-0.07,1.14,-2.32,-0.24,1.50,
2.17,-0.12,-0.07,1.14,-2.32,-0.24,1.50,
2.173,-0.13,-0.07,1.16,-2.32,-0.24,1.50,
2.173,-0.13,-0.07,1.16,-2.37,-0.18,1.61,
2.176,-0.14,-0.07,1.17,-2.37,-0.18,1.61,
2.178,-0.14,-0.06,1.18,-2.37,-0.18,1.61,
2.178,-0.14,-0.06,1.18,-2.40,-0.08,1.69,
2.181,-0.14,-0.07,1.19,-2.40,-0.08,1.69,
2.183,-0.14,-0.07,1.19,-2.40,-0.08,1.69,
2.183,-0.14,-0.07,1.19,-2.50,-0.01,1.92,
2.193,-0.14,-0.07,1.20,-2.50,-0.01,1.92,
2.194,-0.13,-0.08,1.20,-2.50,-0.01,1.92,
2.194,-0.13,-0.08,1.20,-2.52,-0.07,2.08,
2.195,-0.13,-0.09,1.21,-2.52,-0.07,2.08,
2.195,-0.12,-0.09,1.20,-2.52,-0.07,2.08,
2.195,-0.12,-0.09,1.20,-2.44,-0.09,2.19,
2.195,-0.11,-0.10,1.21,-2.44,-0.09,2.19,
2.198,-0.11,-0.10,1.21,-2.44,-0.09,2.19,
2.198,-0.11,-0.10,1.21,-2.35,-0.19,2.25,
2.207,-0.10,-0.11,1.21,-2.35,-0.19,2.25,
2.207,-0.09,-0.12,1.21,-2.35,-0.19,2.25,
2.208,-0.09,-0.12,1.21,-2.18,-0.29,2.25,
2.208,-0.08,-0.13,1.22,-2.18,-0.29,2.25,
2.208,-0.07,-0.14,1.22,-2.18,-0.29,2.25,
2.208,-0.07,-0.14,1.22,-2.05,-0.42,2.25,
2.21,-0.06,-0.14,1.22,-2.05,-0.42,2.25,
2.212,-0.05,-0.15,1.23,-2.05,-0.42,2.25,
2.213,-0.05,-0.15,1.23,-1.87,-0.56,2.40,
2.215,-0.04,-0.15,1.23,-1.87,-0.56,2.40,
2.225,-0.03,-0.15,1.23,-1.87,-0.56,2.40,
2.225,-0.03,-0.15,1.23,-1.67,-0.67,2.40,
2.226,-0.02,-0.16,1.23,-1.67,-0.67,2.40,
2.226,-0.00,-0.16,1.23,-1.67,-0.67,2.40,
2.226,-0.00,-0.16,1.23,-1.49,-0.73,2.46,
2.226,0.01,-0.16,1.23,-1.49,-0.73,2.46,
2.228,0.02,-0.17,1.23,-1.49,-0.73,2.46,
2.228,0.02,-0.17,1.23,-1.21,-0.78,2.43,
2.23,0.03,-0.17,1.22,-1.21,-0.78,2.43,
2.232,0.03,-0.17,1.22,-1.21,-0.78,2.43,
2.232,0.03,-0.17,1.22,-0.95,-0.82,2.44,
2.239,0.04,-0.16,1.21,-0.95,-0.82,2.44,
2.24,0.04,-0.16,1.21,-0.95,-0.82,2.44,
2.24,0.04,-0.16,1.21,-0.78,-0.85,2.32,
2.24,0.04,-0.16,1.20,-0.78,-0.85,2.32,
2.242,0.04,-0.16,1.18,-0.78,-0.85,2.32,
2.242,0.04,-0.16,1.18,-0.70,-0.78,2.21,
2.245,0.04,-0.15,1.18,-0.70,-0.78,2.21,
2.247,0.03,-0.15,1.17,-0.70,-0.78,2.21,
2.248,0.03,-0.15,1.17,-0.64,-0.76,2.04,
2.25,0.02,-0.14,1.17,-0.64,-0.76,2.04,
2.255,0.02,-0.14,1.17,-0.66,-0.63,1.91,
2.255,0.02,-0.14,1.17,-0.66,-0.63,1.91,
2.256,0.01,-0.14,1.16,-0.66,-0.63,1.91,
2.257,-0.01,-0.13,1.16,-0.66,-0.63,1.91,
2.258,-0.01,-0.13,1.16,-0.75,-0.53,1.82,
2.26,-0.02,-0.13,1.16,-0.75,-0.53,1.82,
2.262,-0.03,-0.13,1.15,-0.75,-0.53,1.82,
2.262,-0.03,-0.13,1.15,-0.89,-0.50,1.72,
2.265,-0.04,-0.13,1.15,-0.89,-0.50,1.72,
2.273,-0.06,-0.13,1.15,-0.89,-0.50,1.72,
2.273,-0.06,-0.13,1.15,-1.08,-0.44,1.65,
2.273,-0.06,-0.13,1.14,-1.08,-0.44,1.65,
2.273,-0.07,-0.13,1.13,-1.08,-0.44,1.65,
2.274,-0.07,-0.13,1.13,-1.26,-0.43,1.58,
2.274,-0.07,-0.13,1.12,-1.26,-0.43,1.58,
2.277,-0.07,-0.13,1.12,-1.35,-0.42,1.44,
2.277,-0.07,-0.13,1.11,-1.35,-0.42,1.44,
2.279,-0.07,-0.13,1.10,-1.35,-0.42,1.44,
2.281,-0.07,-0.13,1.09,-1.35,-0.42,1.44,
2.282,-0.07,-0.13,1.09,-1.38,-0.41,1.22,
2.291,-0.06,-0.13,1.09,-1.38,-0.41,1.22,
2.292,-0.05,-0.13,1.08,-1.38,-0.41,1.22,
2.292,-0.05,-0.13,1.08,-1.32,-0.46,1.06,
2.292,-0.04,-0.13,1.08,-1.32,-0.46,1.06,
2.292,-0.03,-0.12,1.07,-1.32,-0.46,1.06,
2.293,-0.03,-0.12,1.07,-1.18,-0.41,0.95,
2.294,-0.02,-0.11,1.07,-1.18,-0.41,0.95,
2.297,-0.00,-0.10,1.07,-1.18,-0.41,0.95,
2.297,-0.00,-0.10,1.07,-0.96,-0.38,0.85,
2.299,0.01,-0.09,1.07,-0.96,-0.38,0.85,
2.312,0.02,-0.09,1.07,-0.96,-0.38,0.85,
2.313,0.02,-0.09,1.07,-0.68,-0.19,0.77,
2.313,0.03,-0.08,1.07,-0.68,-0.19,0.77,
2.314,0.05,-0.08,1.08,-0.68,-0.19,0.77,
2.316,0.05,-0.08,1.08,-0.46,-0.06,0.79,
2.316,0.07,-0.07,1.08,-0.46,-0.06,0.79,
2.316,0.08,-0.07,1.09,-0.46,-0.06,0.79,
2.317,0.08,-0.07,1.09,-0.16,0.04,0.85,
2.317,0.10,-0.08,1.09,-0.16,0.04,0.85,
2.317,0.11,-0.08,1.10,-0.16,0.04,0.85,
2.317,0.11,-0.08,1.10,0.20,0.10,0.90,
2.325,0.13,-0.08,1.09,0.20,0.10,0.90,
2.325,0.14,-0.08,1.10,0.20,0.10,0.90,
2.326,0.14,-0.08,1.10,0.49,0.07,1.01,
2.326,0.16,-0.08,1.09,0.49,0.07,1.01,
2.326,0.16,-0.08,1.09,0.49,0.07,1.01,
2.327,0.16,-0.08,1.09,0.80,0.05,1.03,
2.328,0.18,-0.09,1.09,0.80,0.05,1.03,
2.331,0.18,-0.08,1.09,0.80,0.05,1.03,
2.331,0.18,-0.08,1.09,1.05,0.02,0.98,
2.343,0.19,-0.08,1.08,1.05,0.02,0.98,
2.344,0.20,-0.08,1.08,1.05,0.02,0.98,
2.344,0.20,-0.08,1.08,1.25,-0.05,0.99,
2.344,0.22,-0.08,1.08,1.25,-0.05,0.99,
2.345,0.23,-0.08,1.08,1.25,-0.05,0.99,
2.345,0.23,-0.08,1.08,1.45,-0.03,0.88,
2.345,0.23,-0.08,1.07,1.45,-0.03,0.88,
2.346,0.24,-0.07,1.07,1.45,-0.03,0.88,
2.346,0.24,-0.07,1.07,1.70,-0.03,0.85,
2.349,0.24,-0.06,1.06,1.70,-0.03,0.85,
2.357,0.23,-0.05,1.06,1.70,-0.03,0.85,
2.357,0.23,-0.05,1.06,1.88,0.03,0.78,
2.357,0.22,-0.05,1.07,1.88,0.03,0.78,
2.358,0.22,-0.04,1.08,1.88,0.03,0.78,
2.358,0.22,-0.04,1.08,1.88,0.19,0.68,
2.358,0.20,-0.03,1.09,1.88,0.19,0.68,
2.36,0.18,-0.03,1.10,1.88,0.19,0.68,
2.361,0.18,-0.03,1.10,1.76,0.27,0.81,
2.364,0.17,-0.02,1.10,1.76,0.27,0.81,
2.365,0.15,-0.02,1.11,1.76,0.27,0.81,
2.366,0.15,-0.02,1.11,1.50,0.42,0.98,
2.373,0.13,-0.01,1.12,1.50,0.42,0.98,
2.374,0.12,-0.01,1.12,1.50,0.42,0.98,
2.374,0.12,-0.01,1.12,1.25,0.52,1.12,
2.374,0.10,-0.01,1.12,1.25,0.52,1.12,
2.376,0.10,-0.01,1.12,0.97,0.53,1.23,
2.376,0.08,-0.01,1.13,0.97,0.53,1.23,
2.378,0.07,-0.02,1.14,0.97,0.53,1.23,
2.38,0.06,-0.02,1.14,0.97,0.53,1.23,
2.382,0.06,-0.02,1.14,0.66,0.52,1.31,
2.383,0.05,-0.03,1.15,0.66,0.52,1.31,
2.39,0.04,-0.03,1.15,0.66,0.52,1.31,
2.391,0.04,-0.03,1.15,0.39,0.46,1.44,
2.391,0.04,-0.04,1.15,0.39,0.46,1.44,
2.392,0.04,-0.04,1.15,0.39,0.46,1.44,
2.392,0.04,-0.04,1.15,0.22,0.35,1.54,
2.393,0.04,-0.05,1.16,0.22,0.35,1.54,
2.396,0.05,-0.06,1.15,0.22,0.35,1.54,
2.397,0.05,-0.06,1.15,0.17,0.27,1.54,
2.398,0.07,-0.06,1.16,0.17,0.27,1.54,
2.401,0.08,-0.07,1.17,0.17,0.27,1.54,
2.402,0.08,-0.07,1.17,0.24,0.15,1.57,
2.408,0.09,-0.07,1.17,0.24,0.15,1.57,
2.409,0.10,-0.07,1.17,0.24,0.15,1.57,
2.409,0.10,-0.07,1.17,0.49,0.04,1.65,
2.409,0.12,-0.09,1.18,0.49,0.04,1.65,
2.41,0.13,-0.09,1.18,0.49,0.04,1.65,
2.41,0.13,-0.09,1.18,0.74,-0.02,1.72,
2.413,0.14,-0.10,1.18,0.74,-0.02,1.72,
2.416,0.16,-0.10,1.18,0.74,-0.02,1.72,
2.416,0.16,-0.10,1.18,1.00,-0.22,1.80,
2.432,0.17,-0.10,1.18,1.00,-0.22,1.80,
2.433,0.18,-0.10,1.19,1.00,-0.22,1.80,
2.433,0.18,-0.10,1.19,1.27,-0.33,1.81,
2.433,0.18,-0.11,1.18,1.27,-0.33,1.81,
2.434,0.19,-0.11,1.18,1.27,-0.33,1.81,
2.434,0.19,-0.11,1.18,1.50,-0.33,1.83,
2.434,0.19,-0.11,1.18,1.50,-0.33,1.83,
2.434,0.20,-0.11,1.18,1.50,-0.33,1.83,
2.435,0.20,-0.11,1.18,1.62,-0.35,1.80,
2.435,0.20,-0.11,1.18,1.62,-0.35,1.80,
2.435,0.20,-0.11,1.17,1.62,-0.35,1.80,
2.443,0.20,-0.11,1.17,1.77,-0.38,1.76,
2.443,0.21,-0.12,1.17,1.77,-0.38,1.76,
2.444,0.20,-0.12,1.18,1.77,-0.38,1.76,
2.444,0.20,-0.12,1.18,1.83,-0.41,1.72,
2.444,0.20,-0.12,1.17,1.83,-0.41,1.72,
2.446,0.19,-0.12,1.16,1.83,-0.41,1.72,
2.446,0.19,-0.12,1.16,1.89,-0.48,1.70,
2.447,0.18,-0.12,1.16,1.89,-0.48,1.70,
2.45,0.17,-0.12,1.15,1.89,-0.48,1.70,
2.45,0.17,-0.12,1.15,1.84,-0.47,1.64,
2.46,0.16,-0.12,1.15,1.84,-0.47,1.64,
2.46,0.14,-0.12,1.14,1.84,-0.47,1.64,
2.46,0.14,-0.12,1.14,1.66,-0.47,1.50,
2.461,0.13,-0.12,1.14,1.66,-0.47,1.50,
2.461,0.13,-0.11,1.13,1.66,-0.47,1.50,
2.461,0.13,-0.11,1.13,1.44,-0.45,1.43,
2.462,0.12,-0.11,1.12,1.44,-0.45,1.43,
2.464,0.11,-0.11,1.12,1.44,-0.45,1.43,
2.465,0.11,-0.11,1.12,1.30,-0.43,1.31,
2.467,0.10,-0.10,1.11,1.30,-0.43,1.31,
2.474,0.10,-0.10,1.11,1.30,-0.43,1.31,
2.475,0.10,-0.10,1.11,1.18,-0.36,1.18,
2.477,0.08,-0.09,1.11,1.18,-0.36,1.18,
2.477,0.07,-0.09,1.10,1.18,-0.36,1.18,
2.478,0.07,-0.09,1.10,1.05,-0.31,1.12,
2.479,0.07,-0.10,1.10,1.05,-0.31,1.12,
2.479,0.06,-0.10,1.10,1.05,-0.31,1.12,
2.48,0.06,-0.10,1.10,0.89,-0.23,1.04,
2.482,0.05,-0.10,1.10,0.89,-0.23,1.04,
2.484,0.05,-0.10,1.10,0.89,-0.23,1.04,
2.485,0.05,-0.10,1.10,0.77,-0.28,1.00,
2.49,0.05,-0.10,1.09,0.77,-0.28,1.00,
2.491,0.05,-0.10,1.09,0.77,-0.28,1.00,
2.491,0.05,-0.10,1.09,0.69,-0.28,0.95,
2.492,0.05,-0.11,1.10,0.69,-0.28,0.95,
2.495,0.04,-0.11,1.10,0.69,-0.28,0.95,
2.495,0.04,-0.11,1.10,0.68,-0.30,0.92,
2.498,0.04,-0.11,1.10,0.68,-0.30,0.92,
2.499,0.04,-0.12,1.10,0.68,-0.30,0.92,
2.5,0.04,-0.12,1.10,0.65,-0.37,0.94,
2.508,0.04,-0.12,1.11,0.65,-0.37,0.94,
2.508,0.04,-0.11,1.11,0.65,-0.37,0.94,
2.508,0.04,-0.11,1.11,0.65,-0.44,1.01,
2.508,0.04,-0.12,1.12,0.65,-0.44,1.01,
2.509,0.04,-0.13,1.12,0.65,-0.44,1.01,
2.509,0.04,-0.13,1.12,0.65,-0.45,1.05,
2.512,0.05,-0.13,1.12,0.65,-0.45,1.05,
2.515,0.05,-0.13,1.13,0.65,-0.45,1.05,
2.515,0.05,-0.13,1.13,0.65,-0.54,1.12,
2.517,0.05,-0.14,1.13,0.65,-0.54,1.12,
2.53,0.05,-0.14,1.13,0.65,-0.54,1.12,
2.531,0.05,-0.14,1.13,0.71,-0.60,1.22,
2.531,0.06,-0.15,1.13,0.71,-0.60,1.22,
2.531,0.07,-0.15,1.13,0.71,-0.60,1.22,
2.531,0.07,-0.15,1.13,0.79,-0.71,1.25,
2.532,0.08,-0.16,1.14,0.79,-0.71,1.25,
2.532,0.08,-0.16,1.13,0.79,-0.71,1.25,
2.532,0.08,-0.16,1.13,0.92,-0.79,1.29,
2.532,0.09,-0.15,1.13,0.92,-0.79,1.29,
2.535,0.09,-0.15,1.13,0.92,-0.79,1.29,
2.535,0.09,-0.15,1.13,1.07,-0.85,1.31,
2.545,0.10,-0.15,1.13,1.07,-0.85,1.31,
2.545,0.11,-0.15,1.12,1.07,-0.85,1.31,
2.545,0.11,-0.15,1.12,1.16,-0.79,1.27,
2.546,0.11,-0.14,1.12,1.16,-0.79,1.27,
2.546,0.12,-0.14,1.11,1.16,-0.79,1.27,
2.546,0.12,-0.14,1.11,1.34,-0.78,1.24,
2.546,0.13,-0.13,1.11,1.34,-0.78,1.24,
2.549,0.13,-0.13,1.11,1.34,-0.78,1.24,
2.55,0.13,-0.13,1.11,1.48,-0.73,1.10,
2.552,0.14,-0.13,1.11,1.48,-0.73,1.10,
2.56,0.14,-0.13,1.11,1.48,-0.73,1.10,
2.561,0.14,-0.13,1.11,1.61,-0.66,1.08,
2.561,0.15,-0.14,1.11,1.61,-0.66,1.08,
2.561,0.14,-0.13,1.12,1.61,-0.66,1.08,
2.562,0.14,-0.13,1.12,1.73,-0.65,1.03,
2.562,0.16,-0.13,1.11,1.73,-0.65,1.03,
2.564,0.16,-0.14,1.11,1.73,-0.65,1.03,
2.564,0.16,-0.14,1.11,1.79,-0.68,1.08,
2.567,0.16,-0.14,1.11,1.79,-0.68,1.08,
2.575,0.17,-0.14,1.11,1.79,-0.68,1.08,
2.575,0.17,-0.14,1.11,1.94,-0.67,1.08,
2.575,0.16,-0.14,1.12,1.94,-0.67,1.08,
2.576,0.16,-0.14,1.12,2.01,-0.74,1.08,
2.576,0.16,-0.13,1.12,2.01,-0.74,1.08,
2.576,0.16,-0.13,1.12,2.01,-0.74,1.08,
2.579,0.15,-0.14,1.11,2.01,-0.74,1.08,
2.579,0.15,-0.14,1.11,2.00,-0.73,1.10,
2.582,0.16,-0.13,1.11,2.00,-0.73,1.10,
2.584,0.15,-0.12,1.12,2.00,-0.73,1.10,
2.584,0.15,-0.12,1.12,1.96,-0.73,1.10,
2.591,0.15,-0.12,1.11,1.96,-0.73,1.10,
2.591,0.14,-0.12,1.10,1.96,-0.73,1.10,
2.592,0.14,-0.12,1.10,1.96,-0.68,1.07,
2.592,0.14,-0.11,1.10,1.96,-0.68,1.07,
2.593,0.14,-0.10,1.09,1.96,-0.68,1.07,
2.594,0.14,-0.10,1.09,1.92,-0.61,0.96,
2.596,0.14,-0.09,1.09,1.92,-0.61,0.96,
2.599,0.13,-0.09,1.08,1.92,-0.61,0.96,
2.599,0.13,-0.09,1.08,1.87,-0.46,0.87,
2.601,0.13,-0.08,1.06,1.87,-0.46,0.87,
2.609,0.13,-0.07,1.06,1.87,-0.46,0.87,
2.609,0.13,-0.07,1.06,1.84,-0.36,0.76,
2.609,0.13,-0.07,1.05,1.84,-0.36,0.76,
2.61,0.12,-0.07,1.04,1.84,-0.36,0.76,
2.61,0.12,-0.07,1.04,1.81,-0.26,0.56,
2.611,0.12,-0.06,1.03,1.81,-0.26,0.56,
2.613,0.12,-0.06,1.01,1.81,-0.26,0.56,
2.613,0.12,-0.06,1.01,1.79,-0.22,0.39,
2.615,0.11,-0.07,1.01,1.79,-0.22,0.39,
2.618,0.12,-0.07,1.00,1.79,-0.22,0.39,
2.618,0.12,-0.07,1.00,1.75,-0.17,0.17,
2.624,0.11,-0.07,0.99,1.75,-0.17,0.17,
2.625,0.11,-0.08,0.98,1.75,-0.17,0.17,
2.625,0.11,-0.08,0.98,1.72,-0.22,-0.03,
2.625,0.11,-0.08,0.98,1.72,-0.22,-0.03,
2.628,0.11,-0.08,0.98,1.72,-0.22,-0.03,
2.628,0.11,-0.08,0.98,1.67,-0.28,-0.19,
2.63,0.11,-0.09,0.97,1.67,-0.28,-0.19,
2.633,0.10,-0.08,0.97,1.67,-0.28,-0.19,
2.633,0.10,-0.08,0.97,1.67,-0.41,-0.26,
2.647,0.09,-0.08,0.97,1.67,-0.41,-0.26,
2.65,0.09,-0.09,0.97,1.67,-0.41,-0.26,
2.651,0.09,-0.09,0.97,1.65,-0.44,-0.34,
2.651,0.09,-0.09,0.96,1.65,-0.44,-0.34,
2.651,0.09,-0.08,0.96,1.65,-0.44,-0.34,
2.652,0.09,-0.08,0.96,1.56,-0.48,-0.38,
2.652,0.09,-0.08,0.96,1.56,-0.48,-0.38,
2.652,0.09,-0.08,0.95,1.56,-0.48,-0.38,
2.652,0.09,-0.08,0.95,1.52,-0.51,-0.44,
2.653,0.09,-0.08,0.95,1.52,-0.51,-0.44,
2.66,0.10,-0.08,0.95,1.52,-0.51,-0.44,
2.661,0.10,-0.08,0.95,1.53,-0.47,-0.49,
2.661,0.10,-0.07,0.95,1.53,-0.47,-0.49,
2.661,0.10,-0.06,0.95,1.53,-0.47,-0.49,
2.662,0.10,-0.06,0.95,1.59,-0.46,-0.52,
2.662,0.10,-0.06,0.95,1.59,-0.46,-0.52,
2.662,0.11,-0.06,0.95,1.59,-0.46,-0.52,
2.663,0.11,-0.06,0.95,1.65,-0.36,-0.55,
2.665,0.11,-0.06,0.94,1.65,-0.36,-0.55,
2.667,0.11,-0.05,0.94,1.65,-0.36,-0.55,
2.668,0.11,-0.05,0.94,1.74,-0.34,-0.52,
2.678,0.12,-0.06,0.94,1.74,-0.34,-0.52,
2.678,0.12,-0.05,0.93,1.74,-0.34,-0.52,
2.679,0.12,-0.05,0.93,1.80,-0.30,-0.62,
2.679,0.13,-0.04,0.93,1.80,-0.30,-0.62,
2.679,0.13,-0.04,0.93,1.80,-0.30,-0.62,
2.679,0.13,-0.04,0.93,1.86,-0.27,-0.67,
2.68,0.14,-0.03,0.93,1.86,-0.27,-0.67,
2.682,0.15,-0.03,0.92,1.86,-0.27,-0.67,
2.683,0.15,-0.03,0.92,1.97,-0.18,-0.71,
2.685,0.15,-0.02,0.92,1.97,-0.18,-0.71,
2.692,0.15,-0.01,0.93,1.97,-0.18,-0.71,
2.693,0.15,-0.01,0.93,2.12,-0.07,-0.78,
2.693,0.15,-0.01,0.92,2.12,-0.07,-0.78,
2.693,0.16,-0.00,0.91,2.12,-0.07,-0.78,
2.693,0.16,-0.00,0.91,2.17,0.06,-0.78,
2.695,0.16,0.01,0.91,2.17,0.06,-0.78,
2.697,0.16,0.01,0.91,2.17,0.06,-0.78,
2.697,0.16,0.01,0.91,2.23,0.11,-0.86,
2.7,0.16,0.02,0.90,2.23,0.11,-0.86,
2.708,0.16,0.02,0.90,2.23,0.11,-0.86,
2.708,0.16,0.02,0.90,2.26,0.26,-0.96,
2.708,0.16,0.03,0.90,2.26,0.26,-0.96,
2.709,0.15,0.04,0.90,2.26,0.26,-0.96,
2.709,0.15,0.04,0.90,2.25,0.33,-0.99,
2.71,0.15,0.04,0.90,2.25,0.33,-0.99,
2.712,0.16,0.04,0.88,2.25,0.33,-0.99,
2.712,0.16,0.04,0.88,2.25,0.45,-1.01,
2.715,0.15,0.05,0.89,2.25,0.45,-1.01,
2.717,0.15,0.05,0.89,2.25,0.45,-1.01,
2.717,0.15,0.05,0.89,2.23,0.53,-1.10,
2.724,0.14,0.04,0.88,2.23,0.53,-1.10,
2.725,0.14,0.04,0.88,2.23,0.53,-1.10,
2.725,0.14,0.04,0.88,2.16,0.56,-1.13,
2.725,0.16,0.04,0.89,2.16,0.56,-1.13,
2.727,0.19,0.04,0.90,2.16,0.56,-1.13,
2.727,0.19,0.04,0.90,2.10,0.49,-1.18,
2.729,0.22,0.03,0.92,2.10,0.49,-1.18,
2.732,0.24,0.03,0.94,2.10,0.49,-1.18,
2.733,0.24,0.03,0.94,2.39,0.49,-1.05,
2.734,0.25,0.04,0.96,2.39,0.49,-1.05,
2.741,0.22,0.05,0.95,2.39,0.49,-1.05,
2.742,0.22,0.05,0.95,2.93,0.41,-0.68,
2.742,0.18,0.07,0.94,2.93,0.41,-0.68,
2.742,0.14,0.07,0.91,2.93,0.41,-0.68,
2.743,0.14,0.07,0.91,2.97,0.54,-0.44,
2.744,0.11,0.08,0.90,2.97,0.54,-0.44,
2.747,0.09,0.08,0.89,2.97,0.54,-0.44,
2.748,0.09,0.08,0.89,2.27,0.73,-0.75,
2.749,0.09,0.07,0.87,2.27,0.73,-0.75,
2.751,0.09,0.06,0.87,2.27,0.73,-0.75,
2.752,0.09,0.06,0.87,1.67,0.78,-1.08,
2.767,0.09,0.06,0.87,1.67,0.78,-1.08,
2.768,0.11,0.04,0.87,1.67,0.78,-1.08,
2.768,0.11,0.04,0.87,1.52,0.65,-1.28,
2.768,0.12,0.04,0.88,1.52,0.65,-1.28,
2.768,0.13,0.03,0.88,1.52,0.65,-1.28,
2.768,0.13,0.03,0.88,1.64,0.47,-1.26,
2.769,0.12,0.02,0.89,1.64,0.47,-1.26,
2.769,0.11,0.02,0.89,1.64,0.47,-1.26,
2.769,0.11,0.02,0.89,1.83,0.30,-1.19,
2.77,0.11,0.01,0.89,1.83,0.30,-1.19,
2.78,0.10,0.01,0.89,1.83,0.30,-1.19,
2.78,0.10,0.01,0.89,1.78,0.14,-1.07,
2.78,0.08,0.01,0.89,1.78,0.14,-1.07,
2.781,0.07,0.00,0.88,1.78,0.14,-1.07,
2.781,0.07,0.00,0.88,1.60,0.06,-1.08,
2.781,0.06,0.00,0.89,1.60,0.06,-1.08,
2.781,0.06,-0.00,0.89,1.60,0.06,-1.08,
2.782,0.06,-0.00,0.89,1.36,0.00,-1.12,
2.785,0.06,-0.01,0.89,1.36,0.00,-1.12,
2.786,0.05,-0.01,0.90,1.36,0.00,-1.12,
2.787,0.05,-0.01,0.90,1.16,-0.09,-1.08,
2.794,0.06,-0.01,0.91,1.16,-0.09,-1.08,
2.795,0.06,-0.00,0.91,1.16,-0.09,-1.08,
2.795,0.06,-0.00,0.91,1.10,-0.18,-1.01,
2.795,0.06,-0.00,0.91,1.10,-0.18,-1.01,
2.797,0.06,0.00,0.92,1.10,-0.18,-1.01,
2.797,0.06,0.00,0.92,1.08,-0.21,-0.93,
2.8,0.06,0.01,0.92,1.08,-0.21,-0.93,
2.802,0.07,0.03,0.92,1.08,-0.21,-0.93,
2.805,0.07,0.03,0.92,1.09,-0.14,-0.82,
2.805,0.08,0.03,0.91,1.09,-0.14,-0.82,
2.809,0.08,0.03,0.91,1.09,-0.14,-0.82,
2.809,0.08,0.03,0.91,1.11,0.02,-0.81,
2.81,0.08,0.03,0.91,1.11,0.02,-0.81,
2.812,0.08,0.03,0.91,1.11,0.02,-0.81,
2.812,0.08,0.03,0.91,1.20,0.11,-0.88,
2.815,0.08,0.02,0.91,1.20,0.11,-0.88,
2.817,0.08,0.02,0.91,1.20,0.11,-0.88,
2.818,0.08,0.02,0.91,1.20,0.08,-0.91,
2.82,0.07,0.02,0.91,1.20,0.08,-0.91,
2.825,0.06,0.01,0.91,1.20,0.08,-0.91,
2.826,0.06,0.01,0.91,1.13,-0.04,-0.89,
2.826,0.06,0.00,0.91,1.13,-0.04,-0.89,
2.826,0.05,-0.00,0.92,1.13,-0.04,-0.89,
2.826,0.05,-0.00,0.92,0.96,-0.15,-0.88,
2.829,0.05,-0.01,0.91,0.96,-0.15,-0.88,
2.831,0.04,-0.01,0.92,0.96,-0.15,-0.88,
2.832,0.04,-0.01,0.92,0.84,-0.26,-0.86,
2.834,0.04,-0.02,0.92,0.84,-0.26,-0.86,
2.837,0.04,-0.02,0.93,0.84,-0.26,-0.86,
2.837,0.04,-0.02,0.93,0.74,-0.39,-0.83,
2.844,0.04,-0.02,0.93,0.74,-0.39,-0.83,
2.845,0.04,-0.03,0.94,0.74,-0.39,-0.83,
2.846,0.04,-0.03,0.94,0.66,-0.51,-0.73,
2.846,0.03,-0.03,0.95,0.66,-0.51,-0.73,
2.846,0.02,-0.03,0.96,0.66,-0.51,-0.73,
2.847,0.02,-0.03,0.96,0.61,-0.55,-0.64,
2.849,0.02,-0.03,0.96,0.61,-0.55,-0.64,
2.851,0.02,-0.03,0.98,0.61,-0.55,-0.64,
2.852,0.02,-0.03,0.98,0.47,-0.67,-0.45,
2.866,0.02,-0.03,0.99,0.47,-0.67,-0.45,
2.866,0.02,-0.02,0.99,0.47,-0.67,-0.45,
2.866,0.02,-0.02,0.99,0.36,-0.66,-0.29,
2.866,0.03,-0.02,0.99,0.36,-0.66,-0.29,
2.866,0.04,-0.01,1.00,0.36,-0.66,-0.29,
2.867,0.04,-0.01,1.00,0.38,-0.66,-0.11,
2.867,0.04,-0.00,1.01,0.38,-0.66,-0.11,
2.867,0.04,0.01,1.00,0.38,-0.66,-0.11,
2.867,0.04,0.01,1.00,0.47,-0.56,-0.01,
2.869,0.04,0.01,0.99,0.47,-0.56,-0.01,
2.877,0.05,0.02,0.99,0.47,-0.56,-0.01,
2.877,0.05,0.02,0.99,0.54,-0.39,0.03,
2.878,0.04,0.03,0.99,0.54,-0.39,0.03,
2.878,0.05,0.03,0.99,0.54,-0.39,0.03,
2.878,0.05,0.03,0.99,0.55,-0.29,-0.07,
2.878,0.04,0.04,0.99,0.55,-0.29,-0.07,
2.881,0.04,0.04,0.99,0.55,-0.29,-0.07,
2.881,0.04,0.04,0.99,0.50,-0.20,-0.08,
2.884,0.03,0.04,0.99,0.50,-0.20,-0.08,
2.886,0.04,0.05,0.99,0.50,-0.20,-0.08,
2.886,0.04,0.05,0.99,0.42,-0.15,-0.07,
2.894,0.03,0.05,0.99,0.42,-0.15,-0.07,
2.895,0.03,0.05,0.99,0.42,-0.15,-0.07,
2.895,0.03,0.05,0.99,0.33,-0.11,-0.05,
2.895,0.02,0.05,0.99,0.33,-0.11,-0.05,
2.895,0.02,0.05,0.99,0.24,-0.08,-0.08,
2.896,0.01,0.05,0.97,0.24,-0.08,-0.08,
2.898,0.01,0.05,0.97,0.24,-0.08,-0.08,
2.901,0.01,0.05,0.96,0.24,-0.08,-0.08,
2.901,0.01,0.05,0.96,0.09,-0.12,-0.19,
2.903,0.01,0.04,0.96,0.09,-0.12,-0.19,
2.911,0.01,0.05,0.96,0.09,-0.12,-0.19,
2.911,0.01,0.05,0.96,-0.04,-0.15,-0.33,
2.912,0.01,0.04,0.95,-0.04,-0.15,-0.33,
2.912,0.02,0.04,0.96,-0.04,-0.15,-0.33,
2.912,0.02,0.04,0.96,-0.11,-0.24,-0.39,
2.913,0.03,0.04,0.96,-0.11,-0.24,-0.39,
2.916,0.06,0.05,0.96,-0.11,-0.24,-0.39,
2.916,0.06,0.05,0.96,-0.04,-0.30,-0.41,
2.919,0.08,0.06,0.96,-0.04,-0.30,-0.41,
2.925,0.08,0.07,0.97,-0.04,-0.30,-0.41,
2.925,0.08,0.07,0.97,0.20,-0.29,-0.37,
2.925,0.09,0.07,0.97,0.20,-0.29,-0.37,
2.926,0.10,0.08,0.97,0.20,-0.29,-0.37,
2.926,0.10,0.08,0.97,0.48,-0.17,-0.31,
2.928,0.11,0.10,0.98,0.48,-0.17,-0.31,
2.93,0.12,0.11,0.99,0.48,-0.17,-0.31,
2.931,0.12,0.11,0.99,0.61,-0.04,-0.23,
2.933,0.12,0.11,0.98,0.61,-0.04,-0.23,
2.935,0.13,0.13,0.98,0.61,-0.04,-0.23,
2.936,0.13,0.13,0.98,0.74,0.16,-0.10,
2.942,0.13,0.13,0.97,0.74,0.16,-0.10,
2.943,0.14,0.14,0.97,0.74,0.16,-0.10,
2.943,0.14,0.14,0.97,0.86,0.33,-0.18,
2.943,0.14,0.15,0.97,0.86,0.33,-0.18,
2.945,0.15,0.15,0.96,0.86,0.33,-0.18,
2.946,0.15,0.15,0.96,0.94,0.45,-0.25,
2.948,0.15,0.15,0.96,0.94,0.45,-0.25,
2.95,0.15,0.15,0.97,0.94,0.45,-0.25,
2.95,0.15,0.15,0.97,1.01,0.55,-0.30,
2.953,0.15,0.15,0.98,1.01,0.55,-0.30,
2.959,0.14,0.14,0.99,1.01,0.55,-0.30,
2.959,0.14,0.14,0.99,1.05,0.56,-0.26,
2.96,0.15,0.14,1.00,1.05,0.56,-0.26,
2.96,0.15,0.14,0.99,1.05,0.56,-0.26,
2.96,0.15,0.14,0.99,0.98,0.50,-0.09,
2.962,0.15,0.13,0.98,0.98,0.50,-0.09,
2.964,0.14,0.13,0.98,0.98,0.50,-0.09,
2.965,0.14,0.13,0.98,1.02,0.40,-0.02,
2.967,0.12,0.12,0.98,1.02,0.40,-0.02,
2.969,0.10,0.12,0.97,1.02,0.40,-0.02,
2.97,0.10,0.12,0.97,0.92,0.31,-0.12,
2.984,0.08,0.11,0.97,0.92,0.31,-0.12,
2.985,0.06,0.11,0.97,0.92,0.31,-0.12,
2.985,0.06,0.11,0.97,0.60,0.20,-0.17,
2.985,0.05,0.10,0.97,0.60,0.20,-0.17,
2.986,0.04,0.09,0.96,0.60,0.20,-0.17,
2.986,0.04,0.09,0.96,0.19,0.07,-0.20,
2.986,0.03,0.09,0.95,0.19,0.07,-0.20,
2.986,0.02,0.07,0.88,0.19,0.07,-0.20,
2.987,0.02,0.07,0.88,-0.05,-0.08,-0.27,
2.987,0.00,0.07,0.78,-0.05,-0.08,-0.27,
2.989,0.02,0.08,0.73,-0.05,-0.08,-0.27,
2.99,0.02,0.08,0.73,-0.30,-0.27,-0.76,
2.992,0.04,0.08,0.76,-0.30,-0.27,-0.76,
2.994,0.04,0.08,0.76,-0.43,-0.30,-2.30,
2.995,0.04,0.06,0.81,-0.43,-0.30,-2.30,
2.997,0.05,0.05,0.86,-0.43,-0.30,-2.30,
2.999,0.05,0.03,0.89,-0.43,-0.30,-2.30,
3.0,0.05,0.03,0.89,-0.12,-0.35,-2.04,
3.002,0.06,0.02,0.92,-0.12,-0.35,-2.04,
3.007,0.07,0.01,0.95,-0.12,-0.35,-2.04,
3.008,0.07,0.01,0.95,-0.02,-0.66,-1.17,
3.008,0.07,0.02,0.98,-0.02,-0.66,-1.17,
3.01,0.06,0.03,1.01,-0.02,-0.66,-1.17,
3.011,0.06,0.03,1.01,0.12,-0.85,-0.57,
3.012,0.06,0.04,1.02,0.12,-0.85,-0.57,
3.015,0.06,0.06,1.04,0.12,-0.85,-0.57,
3.015,0.06,0.06,1.04,0.16,-0.77,-0.00,
3.017,0.06,0.07,1.06,0.16,-0.77,-0.00,
3.019,0.07,0.08,1.06,0.16,-0.77,-0.00,
3.019,0.07,0.08,1.06,0.10,-0.45,0.37,
3.024,0.08,0.09,1.07,0.10,-0.45,0.37,
3.025,0.09,0.09,1.09,0.10,-0.45,0.37,
3.025,0.09,0.09,1.09,0.14,-0.22,0.66,
3.026,0.09,0.10,1.10,0.14,-0.22,0.66,
3.03,0.11,0.10,1.12,0.14,-0.22,0.66,
3.03,0.11,0.10,1.12,0.35,-0.06,0.88,
3.032,0.11,0.11,1.13,0.35,-0.06,0.88,
3.034,0.12,0.11,1.13,0.35,-0.06,0.88,
3.034,0.12,0.11,1.13,0.54,0.03,1.17,
3.037,0.13,0.12,1.13,0.54,0.03,1.17,
3.044,0.13,0.13,1.13,0.54,0.03,1.17,
3.045,0.13,0.13,1.13,0.70,0.15,1.33,
3.045,0.13,0.14,1.11,0.70,0.15,1.33,
3.045,0.12,0.14,1.11,0.70,0.15,1.33,
3.046,0.12,0.14,1.11,0.76,0.25,1.31,
3.046,0.13,0.15,1.09,0.76,0.25,1.31,
3.049,0.14,0.15,1.07,0.76,0.25,1.31,
3.049,0.14,0.15,1.07,0.72,0.41,1.13,
3.053,0.14,0.15,1.06,0.72,0.41,1.13,
3.054,0.16,0.15,1.05,0.72,0.41,1.13,
3.054,0.16,0.15,1.05,0.80,0.47,0.86,
3.057,0.16,0.14,1.05,0.80,0.47,0.86,
3.06,0.17,0.14,1.04,0.80,0.47,0.86,
3.06,0.17,0.14,1.04,0.93,0.44,0.59,
3.061,0.18,0.13,1.04,0.93,0.44,0.59,
3.063,0.17,0.12,1.04,0.93,0.44,0.59,
3.064,0.17,0.12,1.04,1.08,0.34,0.48,
3.066,0.17,0.12,1.04,1.08,0.34,0.48,
3.068,0.15,0.11,1.04,1.08,0.34,0.48,
3.07,0.15,0.11,1.04,1.11,0.16,0.47,
3.073,0.14,0.11,1.04,1.11,0.16,0.47,
3.074,0.13,0.11,1.05,1.11,0.16,0.47,
3.074,0.13,0.11,1.05,0.94,-0.02,0.49,
