
time,gFx,gFy,gFz,ax,ay,az,
0.004,0.01,0.10,1.01,-0.20,-0.22,-0.10,
0.004,0.01,0.10,1.01,-0.10,-0.18,0.01,
0.005,0.01,0.10,1.02,-0.10,-0.18,0.01,
0.005,0.01,0.10,1.02,-0.08,-0.09,0.11,
0.005,0.01,0.10,1.02,-0.08,-0.09,0.11,
0.005,0.01,0.10,1.02,-0.08,-0.09,0.11,
0.006,0.01,0.10,1.02,-0.08,-0.09,0.11,
0.006,0.01,0.10,1.02,-0.00,-0.07,0.22,
0.007,0.01,0.10,1.02,-0.00,-0.07,0.22,
0.012,0.01,0.10,1.02,-0.00,-0.07,0.22,
0.012,0.01,0.10,1.02,-0.00,-0.05,0.22,
0.013,0.02,0.10,1.01,-0.00,-0.05,0.22,
0.014,0.02,0.10,1.02,-0.00,-0.05,0.22,
0.015,0.02,0.10,1.02,0.01,-0.04,0.23,
0.017,0.02,0.10,1.02,0.01,-0.04,0.23,
0.019,0.02,0.11,1.01,0.01,-0.04,0.23,
0.02,0.02,0.11,1.01,0.14,-0.00,0.18,
0.024,0.02,0.11,1.01,0.14,-0.00,0.18,
0.025,0.02,0.11,1.01,0.11,0.01,0.17,
0.025,0.02,0.11,1.01,0.11,0.01,0.17,
0.027,0.02,0.12,1.00,0.11,0.01,0.17,
0.029,0.01,0.12,1.00,0.11,0.01,0.17,
0.03,0.01,0.12,1.00,0.10,0.07,0.12,
0.032,0.01,0.12,1.00,0.10,0.07,0.12,
0.034,0.01,0.12,1.00,0.10,0.07,0.12,
0.035,0.01,0.12,1.00,0.05,0.14,0.04,
0.038,0.01,0.12,1.00,0.05,0.14,0.04,
0.039,0.03,0.14,1.01,0.05,0.14,0.04,
0.04,0.03,0.14,1.01,-0.01,0.16,-0.01,
0.042,0.02,0.14,1.00,-0.01,0.16,-0.01,
0.044,0.01,0.15,0.99,-0.01,0.16,-0.01,
0.045,0.01,0.15,0.99,0.13,0.30,0.07,
0.046,0.00,0.15,0.99,0.13,0.30,0.07,
0.049,-0.00,0.15,0.98,0.13,0.30,0.07,
0.049,-0.00,0.15,0.98,0.09,0.42,0.01,
0.051,-0.01,0.14,0.97,0.09,0.42,0.01,
0.06,-0.02,0.13,0.96,0.09,0.42,0.01,
0.06,-0.02,0.13,0.96,-0.06,0.45,-0.13,
0.061,-0.03,0.12,0.95,-0.06,0.45,-0.13,
0.061,-0.04,0.11,0.94,-0.06,0.45,-0.13,
0.061,-0.04,0.11,0.94,-0.20,0.31,-0.31,
0.062,-0.04,0.10,0.94,-0.20,0.31,-0.31,
0.065,-0.03,0.10,0.93,-0.20,0.31,-0.31,
0.065,-0.03,0.10,0.93,-0.38,0.18,-0.52,
0.067,-0.01,0.09,0.95,-0.38,0.18,-0.52,
0.071,0.02,0.09,0.97,-0.38,0.18,-0.52,
0.072,0.02,0.09,0.97,-0.43,0.01,-0.61,
0.072,-0.00,0.09,0.96,-0.43,0.01,-0.61,
0.075,-0.00,0.09,0.96,-0.01,-0.09,-0.37,
0.075,-0.02,0.10,0.95,-0.01,-0.09,-0.37,
0.077,-0.01,0.10,0.95,-0.01,-0.09,-0.37,
0.08,-0.00,0.10,0.95,-0.01,-0.09,-0.37,
0.08,-0.00,0.10,0.95,-0.15,-0.04,-0.42,
0.082,0.02,0.11,0.98,-0.15,-0.04,-0.42,
0.085,0.11,0.13,1.18,-0.15,-0.04,-0.42,
0.086,0.11,0.13,1.18,-0.15,0.03,-0.43,
0.088,0.15,0.13,1.23,-0.15,0.03,-0.43,
0.09,0.16,0.12,1.19,-0.15,0.03,-0.43,
0.09,0.16,0.12,1.19,0.57,0.21,0.83,
0.092,0.15,0.13,1.17,0.57,0.21,0.83,
0.095,0.14,0.13,1.15,0.57,0.21,0.83,
0.095,0.14,0.13,1.15,1.41,0.31,2.06,
0.097,0.13,0.13,1.12,1.41,0.31,2.06,
0.1,0.13,0.13,1.12,1.32,0.30,1.57,
0.101,0.12,0.14,1.10,1.32,0.30,1.57,
0.102,0.11,0.14,1.08,1.32,0.30,1.57,
0.106,0.10,0.15,1.06,1.32,0.30,1.57,
0.107,0.10,0.15,1.06,1.19,0.35,1.08,
0.107,0.09,0.15,1.04,1.19,0.35,1.08,
0.11,0.08,0.16,1.03,1.19,0.35,1.08,
0.11,0.08,0.16,1.03,1.01,0.45,0.68,
0.112,0.08,0.16,1.03,1.01,0.45,0.68,
0.116,0.09,0.16,1.01,1.01,0.45,0.68,
0.116,0.09,0.16,1.01,0.82,0.53,0.37,
0.116,0.09,0.16,1.01,0.82,0.53,0.37,
0.12,0.10,0.15,1.00,0.82,0.53,0.37,
0.12,0.10,0.15,1.00,0.83,0.58,0.19,
0.123,0.10,0.14,0.99,0.83,0.58,0.19,
0.125,0.10,0.14,0.99,0.94,0.49,0.04,
0.125,0.11,0.13,0.99,0.94,0.49,0.04,
0.126,0.11,0.13,0.99,0.94,0.49,0.04,
0.13,0.12,0.12,0.99,0.94,0.49,0.04,
0.13,0.12,0.12,0.99,1.05,0.35,-0.09,
0.132,0.12,0.12,0.98,1.05,0.35,-0.09,
0.135,0.12,0.12,0.98,1.05,0.35,-0.09,
0.135,0.12,0.12,0.98,1.15,0.21,-0.14,
0.137,0.12,0.12,0.98,1.15,0.21,-0.14,
0.14,0.10,0.12,0.98,1.15,0.21,-0.14,
0.141,0.10,0.12,0.98,1.17,0.15,-0.19,
0.142,0.10,0.12,0.98,1.17,0.15,-0.19,
0.144,0.10,0.12,0.98,1.08,0.15,-0.19,
0.144,0.08,0.12,0.99,1.08,0.15,-0.19,
0.146,0.07,0.12,0.99,1.08,0.15,-0.19,
0.149,0.07,0.12,0.99,0.90,0.13,-0.16,
0.149,0.07,0.12,0.98,0.90,0.13,-0.16,
0.151,0.07,0.12,0.99,0.90,0.13,-0.16,
0.155,0.06,0.12,0.99,0.90,0.13,-0.16,
0.156,0.06,0.12,0.99,0.72,0.15,-0.15,
0.157,0.05,0.12,1.00,0.72,0.15,-0.15,
0.159,0.05,0.11,1.00,0.72,0.15,-0.15,
0.163,0.05,0.11,1.00,0.60,0.13,-0.09,
0.163,0.05,0.11,1.00,0.60,0.13,-0.09,
0.164,0.05,0.10,1.00,0.60,0.13,-0.09,
0.165,0.05,0.10,1.00,0.48,0.08,-0.01,
0.167,0.05,0.10,1.01,0.48,0.08,-0.01,
0.169,0.05,0.09,1.02,0.48,0.08,-0.01,
0.169,0.05,0.09,1.02,0.49,-0.01,0.02,
0.178,0.06,0.09,1.02,0.49,-0.01,0.02,
0.178,0.06,0.09,1.02,0.49,-0.12,0.13,
0.179,0.06,0.09,1.03,0.49,-0.12,0.13,
0.179,0.07,0.09,1.03,0.49,-0.12,0.13,
0.18,0.07,0.09,1.04,0.49,-0.12,0.13,
0.18,0.07,0.09,1.04,0.58,-0.19,0.26,
0.181,0.07,0.09,1.05,0.58,-0.19,0.26,
0.184,0.07,0.09,1.06,0.58,-0.19,0.26,
0.184,0.07,0.09,1.06,0.63,-0.20,0.37,
0.187,0.07,0.09,1.07,0.63,-0.20,0.37,
0.199,0.07,0.09,1.06,0.63,-0.20,0.37,
0.2,0.07,0.09,1.06,0.66,-0.21,0.53,
0.2,0.08,0.10,1.07,0.66,-0.21,0.53,
0.2,0.08,0.10,1.08,0.66,-0.21,0.53,
0.2,0.08,0.10,1.08,0.69,-0.15,0.62,
0.2,0.08,0.10,1.08,0.69,-0.15,0.62,
0.2,0.08,0.10,1.08,0.73,-0.11,0.73,
0.2,0.08,0.10,1.09,0.73,-0.11,0.73,
0.2,0.08,0.10,1.09,0.73,-0.11,0.73,
0.203,0.08,0.10,1.09,0.73,-0.11,0.73,
0.203,0.08,0.10,1.09,0.73,-0.06,0.82,
0.206,0.08,0.10,1.09,0.73,-0.06,0.82,
0.208,0.09,0.10,1.08,0.73,-0.06,0.82,
0.208,0.09,0.10,1.08,0.76,-0.06,0.84,
0.211,0.09,0.10,1.09,0.76,-0.06,0.84,
0.213,0.09,0.10,1.09,0.81,-0.05,0.80,
0.213,0.10,0.11,1.09,0.81,-0.05,0.80,
0.215,0.10,0.11,1.08,0.81,-0.05,0.80,
0.218,0.10,0.12,1.08,0.81,-0.05,0.80,
0.219,0.10,0.12,1.08,0.91,0.01,0.81,
0.22,0.10,0.12,1.08,0.91,0.01,0.81,
0.222,0.10,0.12,1.08,0.98,0.08,0.72,
0.223,0.11,0.12,1.06,0.98,0.08,0.72,
0.225,0.10,0.12,1.06,0.98,0.08,0.72,
0.228,0.10,0.13,1.05,0.98,0.08,0.72,
0.229,0.10,0.13,1.05,1.04,0.15,0.63,
0.231,0.10,0.13,1.05,1.04,0.15,0.63,
0.233,0.10,0.13,1.05,1.02,0.17,0.45,
0.233,0.11,0.13,1.04,1.02,0.17,0.45,
0.236,0.10,0.13,1.03,1.02,0.17,0.45,
0.239,0.10,0.13,1.02,1.02,0.17,0.45,
0.239,0.10,0.13,1.02,1.05,0.21,0.34,
0.24,0.10,0.13,1.02,1.05,0.21,0.34,
0.243,0.10,0.12,1.01,1.05,0.21,0.34,
0.243,0.10,0.12,1.01,1.05,0.20,0.18,
0.246,0.10,0.12,1.00,1.05,0.20,0.18,
0.248,0.10,0.12,1.00,1.04,0.15,0.07,
0.249,0.11,0.12,1.00,1.04,0.15,0.07,
0.251,0.11,0.12,0.99,1.04,0.15,0.07,
0.253,0.11,0.12,0.98,1.04,0.15,0.07,
0.254,0.11,0.12,0.98,1.07,0.15,-0.08,
0.256,0.11,0.12,0.98,1.07,0.15,-0.08,
0.258,0.11,0.12,0.98,1.07,0.15,-0.08,
0.259,0.11,0.12,0.98,1.11,0.11,-0.19,
0.26,0.11,0.12,0.98,1.11,0.11,-0.19,
0.264,0.11,0.12,0.98,1.11,0.11,-0.19,
0.264,0.11,0.12,0.98,1.12,0.12,-0.24,
0.265,0.11,0.12,0.98,1.12,0.12,-0.24,
0.268,0.12,0.13,0.99,1.12,0.12,-0.24,
0.268,0.12,0.13,0.99,1.15,0.11,-0.23,
0.27,0.12,0.13,0.99,1.15,0.11,-0.23,
0.273,0.12,0.13,0.99,1.18,0.12,-0.18,
0.274,0.12,0.13,1.00,1.18,0.12,-0.18,
0.275,0.13,0.13,1.00,1.18,0.12,-0.18,
0.279,0.13,0.13,1.01,1.18,0.12,-0.18,
0.279,0.13,0.13,1.01,1.23,0.14,-0.07,
0.281,0.13,0.14,1.02,1.23,0.14,-0.07,
0.284,0.14,0.13,1.02,1.23,0.14,-0.07,
0.284,0.14,0.13,1.02,1.28,0.15,0.03,
0.284,0.15,0.13,1.03,1.28,0.15,0.03,
0.288,0.15,0.13,1.04,1.28,0.15,0.03,
0.289,0.15,0.13,1.04,1.36,0.17,0.17,
0.296,0.16,0.13,1.03,1.36,0.17,0.17,
0.297,0.16,0.13,1.04,1.36,0.17,0.17,
0.297,0.16,0.13,1.04,1.47,0.13,0.26,
0.297,0.17,0.13,1.04,1.47,0.13,0.26,
0.298,0.17,0.13,1.04,1.57,0.15,0.31,
0.298,0.18,0.13,1.05,1.57,0.15,0.31,
0.299,0.18,0.13,1.04,1.57,0.15,0.31,
0.302,0.18,0.14,1.05,1.57,0.15,0.31,
0.303,0.18,0.14,1.05,1.68,0.16,0.41,
0.306,0.18,0.14,1.05,1.68,0.16,0.41,
0.307,0.18,0.14,1.05,1.68,0.16,0.41,
0.307,0.18,0.14,1.05,1.74,0.18,0.39,
0.309,0.18,0.14,1.06,1.74,0.18,0.39,
0.312,0.18,0.14,1.05,1.74,0.18,0.39,
0.312,0.18,0.14,1.05,1.74,0.20,0.45,
0.314,0.18,0.14,1.05,1.74,0.20,0.45,
0.317,0.18,0.15,1.06,1.74,0.20,0.45,
0.318,0.18,0.15,1.06,1.73,0.25,0.47,
0.319,0.18,0.15,1.06,1.73,0.25,0.47,
0.323,0.18,0.15,1.06,1.74,0.25,0.44,
0.323,0.18,0.15,1.04,1.74,0.25,0.44,
0.327,0.18,0.16,1.04,1.74,0.25,0.44,
0.327,0.18,0.16,1.04,1.74,0.25,0.44,
0.328,0.18,0.16,1.04,1.70,0.32,0.40,
0.329,0.17,0.16,1.02,1.70,0.32,0.40,
0.332,0.17,0.17,1.02,1.70,0.32,0.40,
0.332,0.17,0.17,1.02,1.70,0.38,0.30,
0.334,0.17,0.17,1.01,1.70,0.38,0.30,
0.336,0.17,0.17,1.00,1.70,0.38,0.30,
0.336,0.17,0.17,1.00,1.67,0.43,0.12,
0.339,0.16,0.17,0.99,1.67,0.43,0.12,
0.341,0.16,0.17,0.98,1.67,0.43,0.12,
0.342,0.16,0.17,0.98,1.66,0.45,0.01,
0.343,0.16,0.17,0.97,1.66,0.45,0.01,
0.347,0.16,0.17,0.97,1.57,0.46,-0.22,
0.347,0.16,0.17,0.96,1.57,0.46,-0.22,
0.349,0.17,0.17,0.95,1.57,0.46,-0.22,
0.351,0.17,0.17,0.94,1.57,0.46,-0.22,
0.352,0.17,0.17,0.94,1.59,0.41,-0.41,
0.354,0.17,0.17,0.93,1.59,0.41,-0.41,
0.357,0.18,0.17,0.93,1.59,0.41,-0.41,
0.357,0.18,0.17,0.93,1.64,0.43,-0.61,
0.359,0.17,0.17,0.92,1.64,0.43,-0.61,
0.362,0.17,0.17,0.91,1.64,0.43,-0.61,
0.362,0.17,0.17,0.91,1.70,0.37,-0.75,
0.363,0.18,0.17,0.90,1.70,0.37,-0.75,
0.366,0.18,0.17,0.89,1.70,0.37,-0.75,
0.366,0.18,0.17,0.89,1.68,0.36,-0.89,
0.368,0.18,0.17,0.88,1.68,0.36,-0.89,
0.379,0.18,0.17,0.88,1.71,0.30,-1.06,
0.38,0.18,0.17,0.87,1.71,0.30,-1.06,
0.381,0.18,0.18,0.86,1.71,0.30,-1.06,
0.381,0.18,0.18,0.85,1.71,0.30,-1.06,
0.381,0.18,0.18,0.85,1.71,0.31,-1.28,
0.382,0.17,0.18,0.84,1.71,0.31,-1.28,
0.382,0.17,0.18,0.83,1.71,0.31,-1.28,
0.383,0.17,0.18,0.83,1.69,0.31,-1.44,
0.384,0.16,0.18,0.82,1.69,0.31,-1.44,
0.386,0.16,0.19,0.81,1.69,0.31,-1.44,
0.387,0.16,0.19,0.81,1.63,0.29,-1.60,
0.395,0.16,0.18,0.80,1.63,0.29,-1.60,
0.395,0.16,0.18,0.79,1.63,0.29,-1.60,
0.396,0.16,0.18,0.79,1.55,0.32,-1.80,
0.396,0.15,0.18,0.79,1.55,0.32,-1.80,
0.396,0.15,0.18,0.79,1.52,0.24,-1.96,
0.397,0.15,0.18,0.78,1.52,0.24,-1.96,
0.398,0.15,0.18,0.77,1.52,0.24,-1.96,
0.401,0.14,0.18,0.77,1.52,0.24,-1.96,
0.401,0.14,0.18,0.77,1.41,0.21,-2.07,
0.403,0.13,0.17,0.77,1.41,0.21,-2.07,
0.406,0.13,0.17,0.76,1.41,0.21,-2.07,
0.406,0.13,0.17,0.76,1.33,0.14,-2.19,
0.408,0.12,0.17,0.76,1.33,0.14,-2.19,
0.411,0.12,0.17,0.75,1.33,0.14,-2.19,
0.411,0.12,0.17,0.75,1.18,0.06,-2.25,
0.413,0.11,0.16,0.76,1.18,0.06,-2.25,
0.416,0.10,0.15,0.75,1.18,0.06,-2.25,
0.416,0.10,0.15,0.75,1.05,0.02,-2.32,
0.418,0.10,0.15,0.75,1.05,0.02,-2.32,
0.421,0.10,0.15,0.75,0.95,-0.11,-2.30,
0.421,0.10,0.14,0.75,0.95,-0.11,-2.30,
0.424,0.09,0.14,0.76,0.95,-0.11,-2.30,
0.426,0.09,0.14,0.75,0.95,-0.11,-2.30,
0.426,0.09,0.14,0.75,0.88,-0.23,-2.29,
0.428,0.09,0.14,0.75,0.88,-0.23,-2.29,
0.431,0.09,0.13,0.75,0.88,-0.23,-2.29,
0.431,0.09,0.13,0.75,0.79,-0.31,-2.26,
0.433,0.09,0.13,0.76,0.79,-0.31,-2.26,
0.436,0.09,0.12,0.76,0.79,-0.31,-2.26,
0.436,0.09,0.12,0.76,0.78,-0.37,-2.25,
0.44,0.09,0.12,0.76,0.78,-0.37,-2.25,
0.442,0.09,0.12,0.76,0.78,-0.37,-2.25,
0.443,0.09,0.12,0.76,0.75,-0.48,-2.18,
0.443,0.10,0.12,0.77,0.75,-0.48,-2.18,
0.446,0.10,0.12,0.77,0.78,-0.51,-2.19,
0.446,0.10,0.12,0.77,0.78,-0.51,-2.19,
0.448,0.10,0.12,0.77,0.78,-0.51,-2.19,
0.45,0.10,0.13,0.77,0.78,-0.51,-2.19,
0.451,0.10,0.13,0.77,0.84,-0.51,-2.11,
0.453,0.10,0.13,0.77,0.84,-0.51,-2.11,
0.457,0.10,0.13,0.77,0.84,-0.51,-2.11,
0.458,0.10,0.13,0.77,0.85,-0.50,-2.07,
0.458,0.10,0.14,0.76,0.85,-0.50,-2.07,
0.46,0.10,0.14,0.77,0.85,-0.50,-2.07,
0.461,0.10,0.14,0.77,0.84,-0.48,-2.07,
0.463,0.10,0.14,0.77,0.84,-0.48,-2.07,
0.466,0.10,0.15,0.77,0.84,-0.48,-2.07,
0.466,0.10,0.15,0.77,0.82,-0.41,-2.08,
0.468,0.10,0.15,0.76,0.82,-0.41,-2.08,
0.471,0.10,0.15,0.76,0.83,-0.34,-2.06,
0.471,0.10,0.16,0.76,0.83,-0.34,-2.06,
0.475,0.10,0.16,0.77,0.83,-0.34,-2.06,
0.476,0.10,0.17,0.76,0.83,-0.34,-2.06,
0.476,0.10,0.17,0.76,0.78,-0.29,-2.08,
0.478,0.11,0.17,0.75,0.78,-0.29,-2.08,
0.48,0.10,0.16,0.76,0.78,-0.29,-2.08,
0.481,0.10,0.16,0.76,0.78,-0.23,-2.06,
0.483,0.10,0.16,0.75,0.78,-0.23,-2.06,
0.485,0.11,0.16,0.75,0.78,-0.23,-2.06,
0.486,0.11,0.16,0.75,0.80,-0.23,-2.12,
0.487,0.12,0.16,0.74,0.80,-0.23,-2.12,
0.491,0.11,0.16,0.74,0.80,-0.23,-2.12,
0.492,0.11,0.16,0.74,0.76,-0.26,-2.13,
0.495,0.12,0.16,0.74,0.76,-0.26,-2.13,
0.496,0.12,0.16,0.74,0.87,-0.34,-2.24,
0.496,0.13,0.15,0.73,0.87,-0.34,-2.24,
0.497,0.13,0.15,0.73,0.87,-0.34,-2.24,
0.5,0.14,0.15,0.73,0.87,-0.34,-2.24,
0.5,0.14,0.15,0.73,0.97,-0.38,-2.26,
0.503,0.14,0.16,0.72,0.97,-0.38,-2.26,
0.506,0.14,0.16,0.71,0.97,-0.38,-2.26,
0.506,0.14,0.16,0.71,1.05,-0.44,-2.31,
0.512,0.14,0.15,0.72,1.05,-0.44,-2.31,
0.512,0.14,0.15,0.72,1.05,-0.44,-2.31,
0.513,0.14,0.15,0.72,1.08,-0.39,-2.41,
0.513,0.14,0.16,0.71,1.08,-0.39,-2.41,
0.515,0.13,0.15,0.71,1.08,-0.39,-2.41,
0.515,0.13,0.15,0.71,1.05,-0.45,-2.39,
0.517,0.13,0.16,0.70,1.05,-0.45,-2.39,
0.521,0.13,0.16,0.70,0.97,-0.48,-2.47,
0.521,0.12,0.16,0.70,0.97,-0.48,-2.47,
0.524,0.10,0.15,0.69,0.97,-0.48,-2.47,
0.525,0.10,0.15,0.69,0.97,-0.48,-2.47,
0.525,0.10,0.15,0.69,0.84,-0.48,-2.50,
0.527,0.09,0.16,0.69,0.84,-0.48,-2.50,
0.53,0.08,0.16,0.69,0.84,-0.48,-2.50,
0.53,0.08,0.16,0.69,0.65,-0.52,-2.58,
0.533,0.07,0.16,0.68,0.65,-0.52,-2.58,
0.535,0.06,0.16,0.68,0.65,-0.52,-2.58,
0.535,0.06,0.16,0.68,0.45,-0.50,-2.60,
0.537,0.05,0.17,0.68,0.45,-0.50,-2.60,
0.54,0.04,0.16,0.69,0.45,-0.50,-2.60,
0.541,0.04,0.16,0.69,0.27,-0.52,-2.65,
0.543,0.03,0.17,0.68,0.27,-0.52,-2.65,
0.545,0.03,0.17,0.68,0.06,-0.46,-2.63,
0.545,0.02,0.16,0.69,0.06,-0.46,-2.63,
0.547,0.01,0.16,0.68,0.06,-0.46,-2.63,
0.55,0.00,0.16,0.68,0.06,-0.46,-2.63,
0.55,0.00,0.16,0.68,-0.15,-0.48,-2.59,
0.552,0.00,0.16,0.69,-0.15,-0.48,-2.59,
0.555,-0.01,0.16,0.70,-0.15,-0.48,-2.59,
0.555,-0.01,0.16,0.70,-0.35,-0.56,-2.59,
0.558,-0.00,0.15,0.70,-0.35,-0.56,-2.59,
0.56,-0.01,0.15,0.70,-0.35,-0.56,-2.59,
0.56,-0.01,0.15,0.70,-0.48,-0.57,-2.45,
0.562,-0.00,0.15,0.71,-0.48,-0.57,-2.45,
0.566,-0.00,0.15,0.72,-0.48,-0.57,-2.45,
0.566,-0.00,0.15,0.72,-0.53,-0.66,-2.39,
0.567,0.00,0.14,0.73,-0.53,-0.66,-2.39,
0.57,0.00,0.14,0.73,-0.52,-0.74,-2.24,
0.57,0.01,0.13,0.73,-0.52,-0.74,-2.24,
0.572,0.01,0.12,0.73,-0.52,-0.74,-2.24,
0.575,0.02,0.13,0.74,-0.52,-0.74,-2.24,
0.575,0.02,0.13,0.74,-0.49,-0.90,-2.10,
0.577,0.02,0.12,0.74,-0.49,-0.90,-2.10,
0.58,0.03,0.11,0.74,-0.49,-0.90,-2.10,
0.58,0.03,0.11,0.74,-0.40,-0.99,-2.01,
0.582,0.03,0.11,0.75,-0.40,-0.99,-2.01,
0.585,0.03,0.11,0.75,-0.33,-1.09,-1.93,
0.585,0.04,0.11,0.75,-0.33,-1.09,-1.93,
0.587,0.04,0.11,0.76,-0.33,-1.09,-1.93,
0.589,0.05,0.11,0.76,-0.33,-1.09,-1.93,
0.589,0.05,0.11,0.76,-0.27,-1.17,-1.80,
0.591,0.05,0.11,0.77,-0.27,-1.17,-1.80,
0.595,0.05,0.11,0.77,-0.22,-1.16,-1.71,
0.595,0.05,0.11,0.77,-0.22,-1.16,-1.71,
0.598,0.05,0.11,0.78,-0.22,-1.16,-1.71,
0.6,0.05,0.11,0.79,-0.22,-1.16,-1.71,
0.6,0.05,0.11,0.79,-0.19,-1.19,-1.56,
0.602,0.05,0.12,0.78,-0.19,-1.19,-1.56,
0.605,0.05,0.12,0.78,-0.19,-1.19,-1.56,
0.606,0.05,0.12,0.78,-0.18,-1.19,-1.49,
0.613,0.05,0.11,0.78,-0.18,-1.19,-1.49,
0.614,0.05,0.11,0.78,-0.18,-1.19,-1.49,
0.614,0.05,0.11,0.78,-0.18,-1.16,-1.44,
0.614,0.05,0.11,0.79,-0.18,-1.16,-1.44,
0.614,0.05,0.10,0.80,-0.18,-1.16,-1.44,
0.615,0.05,0.10,0.80,-0.21,-1.28,-1.45,
0.616,0.04,0.11,0.80,-0.21,-1.28,-1.45,
0.619,0.04,0.11,0.80,-0.26,-1.32,-1.33,
0.619,0.05,0.10,0.79,-0.26,-1.32,-1.33,
0.622,0.04,0.10,0.79,-0.26,-1.32,-1.33,
0.624,0.04,0.10,0.79,-0.31,-1.33,-1.30,
0.625,0.03,0.10,0.80,-0.31,-1.33,-1.30,
0.627,0.02,0.10,0.80,-0.31,-1.33,-1.30,
0.629,0.02,0.10,0.79,-0.31,-1.33,-1.30,
0.629,0.02,0.10,0.79,-0.40,-1.42,-1.27,
0.632,0.01,0.10,0.80,-0.40,-1.42,-1.27,
0.634,0.00,0.10,0.79,-0.40,-1.42,-1.27,
0.635,0.00,0.10,0.79,-0.57,-1.40,-1.28,
0.637,0.00,0.10,0.78,-0.57,-1.40,-1.28,
0.642,-0.01,0.11,0.78,-0.57,-1.40,-1.28,
0.642,-0.01,0.11,0.78,-0.72,-1.42,-1.28,
0.643,-0.01,0.11,0.77,-0.72,-1.42,-1.28,
0.645,-0.01,0.11,0.77,-0.83,-1.38,-1.38,
0.645,-0.01,0.11,0.77,-0.83,-1.38,-1.38,
0.647,-0.02,0.11,0.76,-0.83,-1.38,-1.38,
0.649,-0.02,0.11,0.76,-0.94,-1.39,-1.46,
0.649,-0.02,0.11,0.76,-0.94,-1.39,-1.46,
0.652,-0.02,0.11,0.75,-0.94,-1.39,-1.46,
0.654,-0.01,0.11,0.74,-0.94,-1.39,-1.46,
0.657,-0.01,0.11,0.74,-1.00,-1.36,-1.56,
0.657,-0.01,0.12,0.73,-1.00,-1.36,-1.56,
0.661,-0.01,0.11,0.73,-1.00,-1.36,-1.56,
0.661,-0.01,0.11,0.73,-1.01,-1.39,-1.65,
0.661,-0.01,0.11,0.72,-1.01,-1.39,-1.65,
0.664,0.00,0.11,0.72,-1.01,-1.39,-1.65,
0.664,0.00,0.11,0.72,-0.94,-1.37,-1.83,
0.667,0.00,0.11,0.70,-0.94,-1.37,-1.83,
0.669,0.00,0.11,0.70,-0.89,-1.40,-1.92,
0.669,0.01,0.11,0.70,-0.89,-1.40,-1.92,
0.671,0.01,0.11,0.69,-0.89,-1.40,-1.92,
0.676,0.02,0.11,0.68,-0.89,-1.40,-1.92,
0.677,0.02,0.11,0.68,-0.85,-1.42,-2.06,
0.677,0.02,0.11,0.67,-0.85,-1.42,-2.06,
0.678,0.02,0.10,0.66,-0.85,-1.42,-2.06,
0.679,0.02,0.10,0.66,-0.79,-1.48,-2.25,
0.681,0.02,0.10,0.66,-0.79,-1.48,-2.25,
0.683,0.02,0.10,0.66,-0.76,-1.52,-2.39,
0.684,0.01,0.10,0.66,-0.76,-1.52,-2.39,
0.685,0.01,0.10,0.66,-0.76,-1.52,-2.39,
0.688,0.01,0.10,0.66,-0.76,-1.52,-2.39,
0.688,0.01,0.10,0.66,-0.80,-1.57,-2.47,
0.691,0.00,0.09,0.66,-0.80,-1.57,-2.47,
0.693,0.00,0.09,0.66,-0.88,-1.58,-2.44,
0.693,0.00,0.09,0.67,-0.88,-1.58,-2.44,
0.695,-0.01,0.09,0.67,-0.88,-1.58,-2.44,
0.698,-0.02,0.09,0.68,-0.88,-1.58,-2.44,
0.699,-0.02,0.09,0.68,-0.94,-1.64,-2.37,
0.7,-0.02,0.08,0.68,-0.94,-1.64,-2.37,
0.704,-0.04,0.08,0.69,-0.94,-1.64,-2.37,
0.704,-0.04,0.08,0.69,-1.08,-1.68,-2.26,
0.705,-0.04,0.08,0.70,-1.08,-1.68,-2.26,
0.709,-0.06,0.08,0.70,-1.08,-1.68,-2.26,
0.709,-0.06,0.08,0.70,-1.26,-1.75,-2.11,
0.71,-0.07,0.07,0.72,-1.26,-1.75,-2.11,
0.713,-0.09,0.08,0.73,-1.26,-1.75,-2.11,
0.714,-0.09,0.08,0.73,-1.48,-1.74,-1.97,
0.715,-0.10,0.08,0.74,-1.48,-1.74,-1.97,
0.718,-0.10,0.08,0.74,-1.73,-1.77,-1.74,
0.718,-0.11,0.07,0.75,-1.73,-1.77,-1.74,
0.72,-0.12,0.08,0.75,-1.73,-1.77,-1.74,
0.731,-0.12,0.07,0.76,-1.73,-1.77,-1.74,
0.733,-0.12,0.07,0.76,-1.96,-1.76,-1.57,
0.733,-0.13,0.07,0.77,-1.96,-1.76,-1.57,
0.734,-0.13,0.06,0.78,-1.96,-1.76,-1.57,
0.734,-0.13,0.06,0.78,-2.12,-1.73,-1.42,
0.735,-0.13,0.06,0.78,-2.12,-1.73,-1.42,
0.735,-0.13,0.05,0.79,-2.12,-1.73,-1.42,
0.736,-0.13,0.05,0.79,-2.25,-1.81,-1.25,
0.736,-0.13,0.05,0.78,-2.25,-1.81,-1.25,
0.738,-0.13,0.05,0.79,-2.25,-1.81,-1.25,
0.738,-0.13,0.05,0.79,-2.29,-1.87,-1.13,
0.75,-0.13,0.05,0.79,-2.29,-1.87,-1.13,
0.751,-0.13,0.05,0.79,-2.30,-1.89,-1.13,
0.751,-0.13,0.05,0.78,-2.30,-1.89,-1.13,
0.751,-0.12,0.04,0.78,-2.30,-1.89,-1.13,
0.752,-0.12,0.04,0.77,-2.30,-1.89,-1.13,
0.752,-0.12,0.04,0.77,-2.28,-1.93,-1.11,
0.753,-0.11,0.04,0.76,-2.28,-1.93,-1.11,
0.753,-0.10,0.04,0.76,-2.28,-1.93,-1.11,
0.753,-0.10,0.04,0.76,-2.19,-2.01,-1.22,
0.756,-0.09,0.03,0.74,-2.19,-2.01,-1.22,
0.759,-0.09,0.04,0.73,-2.19,-2.01,-1.22,
0.761,-0.09,0.04,0.73,-2.09,-2.00,-1.37,
0.761,-0.09,0.04,0.72,-2.09,-2.00,-1.37,
0.762,-0.08,0.04,0.72,-2.09,-2.00,-1.37,
0.763,-0.08,0.04,0.72,-1.97,-2.01,-1.58,
0.765,-0.08,0.04,0.72,-1.97,-2.01,-1.58,
0.767,-0.08,0.04,0.72,-1.94,-1.96,-1.72,
0.767,-0.08,0.05,0.72,-1.94,-1.96,-1.72,
0.769,-0.08,0.05,0.73,-1.94,-1.96,-1.72,
0.772,-0.08,0.06,0.74,-1.94,-1.96,-1.72,
0.772,-0.08,0.06,0.74,-1.90,-1.85,-1.69,
0.775,-0.08,0.06,0.75,-1.90,-1.85,-1.69,
0.777,-0.07,0.07,0.75,-1.90,-1.85,-1.69,
0.777,-0.07,0.07,0.75,-1.90,-1.76,-1.58,
0.78,-0.07,0.06,0.76,-1.90,-1.76,-1.58,
0.782,-0.08,0.06,0.78,-1.90,-1.76,-1.58,
0.782,-0.08,0.06,0.78,-1.89,-1.65,-1.42,
0.784,-0.08,0.06,0.79,-1.89,-1.65,-1.42,
0.787,-0.08,0.06,0.80,-1.89,-1.65,-1.42,
0.787,-0.08,0.06,0.80,-1.90,-1.63,-1.22,
0.789,-0.09,0.05,0.82,-1.90,-1.63,-1.22,
0.792,-0.09,0.05,0.82,-1.95,-1.65,-1.00,
0.793,-0.09,0.04,0.83,-1.95,-1.65,-1.00,
0.794,-0.10,0.04,0.85,-1.95,-1.65,-1.00,
0.797,-0.10,0.03,0.87,-1.95,-1.65,-1.00,
0.797,-0.10,0.03,0.87,-2.08,-1.73,-0.69,
0.799,-0.11,0.02,0.89,-2.08,-1.73,-0.69,
0.802,-0.12,0.02,0.90,-2.08,-1.73,-0.69,
0.802,-0.12,0.02,0.90,-2.20,-1.82,-0.35,
0.804,-0.13,0.01,0.91,-2.20,-1.82,-0.35,
0.808,-0.14,0.01,0.92,-2.20,-1.82,-0.35,
0.808,-0.14,0.01,0.92,-2.37,-1.89,-0.04,
0.809,-0.15,-0.00,0.93,-2.37,-1.89,-0.04,
0.812,-0.16,-0.01,0.94,-2.37,-1.89,-0.04,
0.813,-0.16,-0.01,0.94,-2.57,-1.99,0.19,
0.814,-0.17,-0.01,0.94,-2.57,-1.99,0.19,
0.817,-0.17,-0.01,0.94,-2.79,-2.08,0.40,
0.817,-0.18,-0.02,0.93,-2.79,-2.08,0.40,
0.823,-0.20,-0.03,0.93,-2.79,-2.08,0.40,
0.824,-0.20,-0.03,0.92,-2.79,-2.08,0.40,
0.825,-0.20,-0.03,0.92,-3.03,-2.17,0.37,
0.825,-0.22,-0.04,0.91,-3.03,-2.17,0.37,
0.831,-0.22,-0.04,0.90,-3.03,-2.17,0.37,
0.832,-0.22,-0.04,0.90,-3.27,-2.25,0.26,
0.833,-0.23,-0.04,0.89,-3.27,-2.25,0.26,
0.834,-0.23,-0.05,0.87,-3.27,-2.25,0.26,
0.834,-0.23,-0.05,0.87,-3.47,-2.31,0.09,
0.834,-0.23,-0.05,0.85,-3.47,-2.31,0.09,
0.836,-0.23,-0.05,0.84,-3.47,-2.31,0.09,
0.837,-0.23,-0.05,0.84,-3.57,-2.38,-0.16,
0.839,-0.23,-0.05,0.83,-3.57,-2.38,-0.16,
0.845,-0.23,-0.05,0.83,-3.61,-2.39,-0.47,
0.845,-0.23,-0.05,0.81,-3.61,-2.39,-0.47,
0.846,-0.24,-0.05,0.79,-3.61,-2.39,-0.47,
0.847,-0.24,-0.05,0.79,-3.65,-2.35,-0.78,
0.847,-0.23,-0.05,0.77,-3.65,-2.35,-0.78,
0.849,-0.24,-0.05,0.74,-3.65,-2.35,-0.78,
0.851,-0.24,-0.04,0.73,-3.65,-2.35,-0.78,
0.852,-0.24,-0.04,0.73,-3.68,-2.31,-1.17,
0.854,-0.24,-0.04,0.72,-3.68,-2.31,-1.17,
0.858,-0.24,-0.04,0.70,-3.68,-2.31,-1.17,
0.859,-0.24,-0.04,0.70,-3.70,-2.25,-1.54,
0.859,-0.24,-0.04,0.69,-3.70,-2.25,-1.54,
0.862,-0.24,-0.03,0.68,-3.70,-2.25,-1.54,
0.863,-0.24,-0.03,0.68,-3.71,-2.18,-1.82,
0.863,-0.24,-0.03,0.68,-3.71,-2.18,-1.82,
0.868,-0.24,-0.03,0.68,-3.74,-2.10,-2.06,
0.868,-0.24,-0.03,0.69,-3.74,-2.10,-2.06,
0.87,-0.23,-0.03,0.69,-3.74,-2.10,-2.06,
0.873,-0.22,-0.03,0.69,-3.74,-2.10,-2.06,
0.873,-0.22,-0.03,0.69,-3.72,-2.02,-2.05,
0.875,-0.21,-0.03,0.70,-3.72,-2.02,-2.05,
0.877,-0.21,-0.03,0.70,-3.58,-1.98,-1.98,
0.877,-0.20,-0.03,0.72,-3.58,-1.98,-1.98,
0.879,-0.18,-0.04,0.73,-3.58,-1.98,-1.98,
0.881,-0.18,-0.04,0.75,-3.58,-1.98,-1.98,
0.882,-0.18,-0.04,0.75,-3.40,-1.96,-1.83,
0.884,-0.16,-0.04,0.77,-3.40,-1.96,-1.83,
0.888,-0.15,-0.05,0.79,-3.40,-1.96,-1.83,
0.888,-0.15,-0.05,0.79,-3.20,-1.96,-1.52,
0.888,-0.14,-0.05,0.81,-3.20,-1.96,-1.52,
0.893,-0.14,-0.05,0.81,-2.98,-1.95,-1.15,
0.894,-0.13,-0.05,0.83,-2.98,-1.95,-1.15,
0.894,-0.12,-0.05,0.85,-2.98,-1.95,-1.15,
0.897,-0.12,-0.06,0.87,-2.98,-1.95,-1.15,
0.897,-0.12,-0.06,0.87,-2.79,-1.94,-0.75,
0.899,-0.11,-0.06,0.89,-2.79,-1.94,-0.75,
0.902,-0.11,-0.06,0.89,-2.68,-1.93,-0.32,
0.902,-0.11,-0.06,0.92,-2.68,-1.93,-0.32,
0.904,-0.10,-0.07,0.94,-2.68,-1.93,-0.32,
0.907,-0.10,-0.07,0.96,-2.68,-1.93,-0.32,
0.907,-0.10,-0.07,0.96,-2.58,-1.91,0.09,
0.91,-0.11,-0.08,0.99,-2.58,-1.91,0.09,
0.912,-0.11,-0.09,1.00,-2.58,-1.91,0.09,
0.912,-0.11,-0.09,1.00,-2.56,-1.94,0.53,
0.914,-0.11,-0.09,1.02,-2.56,-1.94,0.53,
0.917,-0.11,-0.09,1.02,-2.61,-1.98,0.99,
0.917,-0.11,-0.10,1.04,-2.61,-1.98,0.99,
0.919,-0.12,-0.11,1.05,-2.61,-1.98,0.99,
0.922,-0.12,-0.12,1.07,-2.61,-1.98,0.99,
0.922,-0.12,-0.12,1.07,-2.66,-2.05,1.30,
0.924,-0.13,-0.14,1.07,-2.66,-2.05,1.30,
0.927,-0.15,-0.15,1.09,-2.66,-2.05,1.30,
0.928,-0.15,-0.15,1.09,-2.80,-2.17,1.59,
0.929,-0.16,-0.16,1.09,-2.80,-2.17,1.59,
0.931,-0.18,-0.18,1.10,-2.80,-2.17,1.59,
0.931,-0.18,-0.18,1.10,-3.01,-2.35,1.78,
0.934,-0.20,-0.19,1.11,-3.01,-2.35,1.78,
0.936,-0.21,-0.20,1.11,-3.01,-2.35,1.78,
0.937,-0.21,-0.20,1.11,-3.33,-2.56,1.91,
0.939,-0.23,-0.21,1.11,-3.33,-2.56,1.91,
0.941,-0.25,-0.23,1.12,-3.33,-2.56,1.91,
0.941,-0.25,-0.23,1.12,-3.69,-2.77,2.03,
0.949,-0.27,-0.24,1.12,-3.69,-2.77,2.03,
0.949,-0.29,-0.24,1.12,-3.69,-2.77,2.03,
0.95,-0.29,-0.24,1.12,-4.01,-2.95,2.08,
0.95,-0.30,-0.25,1.13,-4.01,-2.95,2.08,
0.951,-0.32,-0.26,1.13,-4.01,-2.95,2.08,
0.951,-0.32,-0.26,1.13,-4.41,-3.04,2.15,
0.954,-0.33,-0.27,1.14,-4.41,-3.04,2.15,
0.955,-0.33,-0.27,1.15,-4.41,-3.04,2.15,
0.956,-0.33,-0.27,1.15,-4.70,-3.13,2.26,
0.959,-0.33,-0.27,1.17,-4.70,-3.13,2.26,
0.961,-0.33,-0.26,1.18,-4.70,-3.13,2.26,
0.961,-0.33,-0.26,1.18,-4.85,-3.16,2.40,
0.963,-0.33,-0.26,1.19,-4.85,-3.16,2.40,
0.966,-0.33,-0.26,1.19,-4.91,-3.07,2.61,
0.967,-0.33,-0.26,1.20,-4.91,-3.07,2.61,
0.968,-0.33,-0.25,1.20,-4.91,-3.07,2.61,
0.971,-0.33,-0.25,1.20,-4.89,-2.95,2.85,
0.971,-0.33,-0.25,1.21,-4.89,-2.95,2.85,
0.973,-0.32,-0.25,1.21,-4.89,-2.95,2.85,
0.977,-0.30,-0.24,1.21,-4.89,-2.95,2.85,
0.978,-0.30,-0.24,1.21,-4.80,-2.76,2.91,
0.978,-0.29,-0.23,1.21,-4.80,-2.76,2.91,
0.981,-0.29,-0.23,1.21,-4.80,-2.76,2.91,
0.981,-0.29,-0.23,1.21,-4.64,-2.62,2.98,
0.982,-0.27,-0.22,1.21,-4.64,-2.62,2.98,
0.985,-0.26,-0.21,1.21,-4.64,-2.62,2.98,
0.985,-0.26,-0.21,1.21,-4.41,-2.42,2.94,
0.987,-0.25,-0.20,1.21,-4.41,-2.42,2.94,
0.99,-0.25,-0.20,1.21,-4.17,-2.18,2.96,
0.99,-0.24,-0.20,1.20,-4.17,-2.18,2.96,
0.993,-0.23,-0.19,1.21,-4.17,-2.18,2.96,
0.995,-0.22,-0.18,1.20,-4.17,-2.18,2.96,
0.995,-0.22,-0.18,1.20,-3.93,-1.94,2.90,
0.997,-0.21,-0.18,1.20,-3.93,-1.94,2.90,
1.0,-0.19,-0.18,1.20,-3.93,-1.94,2.90,
1.0,-0.19,-0.18,1.20,-3.67,-1.75,2.86,
1.002,-0.18,-0.17,1.21,-3.67,-1.75,2.86,
1.005,-0.18,-0.17,1.22,-3.67,-1.75,2.86,
1.005,-0.18,-0.17,1.22,-3.44,-1.60,2.83,
1.007,-0.17,-0.18,1.23,-3.44,-1.60,2.83,
1.01,-0.16,-0.19,1.24,-3.44,-1.60,2.83,
1.01,-0.16,-0.19,1.24,-3.23,-1.47,2.93,
1.012,-0.16,-0.18,1.25,-3.23,-1.47,2.93,
1.015,-0.16,-0.18,1.25,-3.06,-1.46,3.14,
1.015,-0.15,-0.18,1.27,-3.06,-1.46,3.14,
1.017,-0.15,-0.19,1.29,-3.06,-1.46,3.14,
1.019,-0.16,-0.18,1.30,-3.06,-1.46,3.14,
1.02,-0.16,-0.18,1.30,-2.94,-1.36,3.40,
1.022,-0.16,-0.18,1.32,-2.94,-1.36,3.40,
1.026,-0.16,-0.19,1.34,-2.94,-1.36,3.40,
1.027,-0.16,-0.19,1.34,-2.91,-1.31,3.71,
1.028,-0.17,-0.19,1.35,-2.91,-1.31,3.71,
1.03,-0.18,-0.19,1.36,-2.91,-1.31,3.71,
1.03,-0.18,-0.19,1.36,-2.95,-1.22,4.01,
1.032,-0.18,-0.20,1.37,-2.95,-1.22,4.01,
1.035,-0.19,-0.20,1.38,-2.95,-1.22,4.01,
1.035,-0.19,-0.20,1.38,-3.05,-1.20,4.26,
1.038,-0.20,-0.21,1.40,-3.05,-1.20,4.26,
1.04,-0.20,-0.21,1.40,-3.18,-1.22,4.48,
1.041,-0.21,-0.21,1.41,-3.18,-1.22,4.48,
1.044,-0.21,-0.21,1.43,-3.18,-1.22,4.48,
1.046,-0.22,-0.22,1.44,-3.18,-1.22,4.48,
1.046,-0.22,-0.22,1.44,-3.34,-1.20,4.73,
1.047,-0.22,-0.22,1.45,-3.34,-1.20,4.73,
1.05,-0.22,-0.22,1.47,-3.34,-1.20,4.73,
1.051,-0.22,-0.22,1.47,-3.43,-1.18,4.99,
1.052,-0.22,-0.22,1.49,-3.43,-1.18,4.99,
1.055,-0.23,-0.22,1.50,-3.43,-1.18,4.99,
1.055,-0.23,-0.22,1.50,-3.52,-1.15,5.22,
1.056,-0.23,-0.22,1.52,-3.52,-1.15,5.22,
1.066,-0.21,-0.23,1.54,-3.52,-1.15,5.22,
1.067,-0.21,-0.23,1.54,-3.56,-1.09,5.60,
1.068,-0.21,-0.23,1.56,-3.56,-1.09,5.60,
1.068,-0.21,-0.23,1.56,-3.51,-1.06,5.98,
1.069,-0.20,-0.23,1.58,-3.51,-1.06,5.98,
1.07,-0.19,-0.24,1.59,-3.51,-1.06,5.98,
1.07,-0.19,-0.24,1.61,-3.51,-1.06,5.98,
1.071,-0.19,-0.24,1.61,-3.40,-1.07,6.30,
1.072,-0.18,-0.25,1.63,-3.40,-1.07,6.30,
1.082,-0.17,-0.26,1.64,-3.40,-1.07,6.30,
1.083,-0.17,-0.26,1.64,-3.25,-1.10,6.63,
1.084,-0.16,-0.27,1.65,-3.25,-1.10,6.63,
1.084,-0.16,-0.27,1.65,-3.25,-1.10,6.63,
1.084,-0.16,-0.27,1.65,-3.10,-1.15,6.91,
1.084,-0.16,-0.28,1.65,-3.10,-1.15,6.91,
1.085,-0.16,-0.28,1.66,-3.10,-1.15,6.91,
1.085,-0.16,-0.28,1.66,-2.98,-1.24,7.07,
1.087,-0.17,-0.29,1.65,-2.98,-1.24,7.07,
1.089,-0.17,-0.29,1.65,-2.99,-1.29,7.12,
1.089,-0.17,-0.30,1.64,-2.99,-1.29,7.12,
1.092,-0.18,-0.31,1.63,-2.99,-1.29,7.12,
1.096,-0.20,-0.32,1.62,-2.99,-1.29,7.12,
1.096,-0.20,-0.32,1.62,-3.04,-1.42,7.04,
1.096,-0.21,-0.32,1.61,-3.04,-1.42,7.04,
1.1,-0.22,-0.32,1.60,-3.04,-1.42,7.04,
1.1,-0.22,-0.32,1.60,-3.24,-1.51,6.82,
1.101,-0.23,-0.33,1.58,-3.24,-1.51,6.82,
1.104,-0.24,-0.33,1.56,-3.24,-1.51,6.82,
1.105,-0.24,-0.33,1.56,-3.45,-1.54,6.57,
1.106,-0.24,-0.33,1.54,-3.45,-1.54,6.57,
1.111,-0.25,-0.34,1.53,-3.45,-1.54,6.57,
1.111,-0.25,-0.34,1.53,-3.59,-1.57,6.21,
1.112,-0.24,-0.34,1.51,-3.59,-1.57,6.21,
1.114,-0.24,-0.34,1.51,-3.65,-1.56,5.86,
1.115,-0.24,-0.33,1.50,-3.65,-1.56,5.86,
1.117,-0.23,-0.34,1.49,-3.65,-1.56,5.86,
1.123,-0.22,-0.33,1.49,-3.65,-1.56,5.86,
1.123,-0.22,-0.33,1.49,-3.57,-1.51,5.60,
1.124,-0.21,-0.33,1.49,-3.57,-1.51,5.60,
1.124,-0.18,-0.32,1.48,-3.57,-1.51,5.60,
1.124,-0.18,-0.32,1.48,-3.37,-1.45,5.43,
1.127,-0.16,-0.31,1.48,-3.37,-1.45,5.43,
1.129,-0.14,-0.29,1.48,-3.37,-1.45,5.43,
1.129,-0.14,-0.29,1.48,-3.01,-1.28,5.34,
1.131,-0.12,-0.28,1.49,-3.01,-1.28,5.34,
1.134,-0.10,-0.26,1.49,-3.01,-1.28,5.34,
1.135,-0.10,-0.26,1.49,-2.57,-1.01,5.28,
1.136,-0.07,-0.25,1.49,-2.57,-1.01,5.28,
1.139,-0.07,-0.25,1.49,-2.11,-0.67,5.39,
1.139,-0.04,-0.23,1.50,-2.11,-0.67,5.39,
1.141,-0.01,-0.22,1.51,-2.11,-0.67,5.39,
1.144,0.02,-0.20,1.52,-2.11,-0.67,5.39,
1.144,0.02,-0.20,1.52,-1.52,-0.36,5.42,
1.146,0.03,-0.19,1.52,-1.52,-0.36,5.42,
1.148,0.06,-0.18,1.53,-1.52,-0.36,5.42,
1.152,0.06,-0.18,1.53,-0.96,-0.03,5.57,
1.152,0.08,-0.17,1.53,-0.96,-0.03,5.57,
1.154,0.09,-0.16,1.53,-0.96,-0.03,5.57,
1.154,0.09,-0.16,1.53,-0.51,0.27,5.65,
1.156,0.11,-0.15,1.53,-0.51,0.27,5.65,
1.158,0.12,-0.15,1.54,-0.51,0.27,5.65,
1.159,0.12,-0.15,1.54,-0.09,0.51,5.71,
1.163,0.13,-0.14,1.54,-0.09,0.51,5.71,
1.164,0.13,-0.14,1.54,0.23,0.67,5.80,
1.164,0.13,-0.14,1.54,0.23,0.67,5.80,
1.166,0.13,-0.14,1.55,0.23,0.67,5.80,
1.168,0.12,-0.14,1.55,0.23,0.67,5.80,
1.169,0.12,-0.14,1.55,0.35,0.81,5.83,
1.17,0.12,-0.14,1.56,0.35,0.81,5.83,
1.173,0.12,-0.14,1.56,0.37,0.84,5.91,
1.174,0.10,-0.15,1.57,0.37,0.84,5.91,
1.176,0.09,-0.16,1.57,0.37,0.84,5.91,
1.179,0.08,-0.16,1.58,0.37,0.84,5.91,
1.179,0.08,-0.16,1.58,0.22,0.80,6.04,
1.181,0.05,-0.17,1.57,0.22,0.80,6.04,
1.184,0.03,-0.18,1.58,0.22,0.80,6.04,
1.184,0.03,-0.18,1.58,0.00,0.70,6.11,
1.187,0.01,-0.18,1.57,0.00,0.70,6.11,
1.189,0.01,-0.18,1.57,-0.39,0.57,6.09,
1.189,-0.01,-0.20,1.57,-0.39,0.57,6.09,
1.192,-0.03,-0.21,1.56,-0.39,0.57,6.09,
1.195,-0.05,-0.22,1.55,-0.39,0.57,6.09,
1.196,-0.05,-0.22,1.55,-0.77,0.46,6.02,
1.196,-0.07,-0.23,1.54,-0.77,0.46,6.02,
1.2,-0.07,-0.24,1.53,-0.77,0.46,6.02,
1.2,-0.07,-0.24,1.53,-1.09,0.23,5.85,
1.2,-0.07,-0.26,1.52,-1.09,0.23,5.85,
1.203,-0.08,-0.26,1.51,-1.09,0.23,5.85,
1.204,-0.08,-0.26,1.51,-1.35,0.04,5.66,
1.206,-0.08,-0.27,1.50,-1.35,0.04,5.66,
1.209,-0.07,-0.28,1.49,-1.35,0.04,5.66,
1.209,-0.07,-0.28,1.49,-1.35,-0.16,5.46,
1.212,-0.06,-0.29,1.49,-1.35,-0.16,5.46,
1.213,-0.05,-0.29,1.48,-1.35,-0.16,5.46,
1.214,-0.05,-0.29,1.48,-1.28,-0.30,5.28,
1.216,-0.03,-0.29,1.48,-1.28,-0.30,5.28,
1.218,-0.01,-0.30,1.48,-1.28,-0.30,5.28,
1.218,-0.01,-0.30,1.48,-1.06,-0.42,5.10,
1.221,0.01,-0.29,1.47,-1.06,-0.42,5.10,
1.223,0.02,-0.29,1.47,-1.06,-0.42,5.10,
1.224,0.02,-0.29,1.47,-0.73,-0.48,5.02,
1.226,0.04,-0.28,1.46,-0.73,-0.48,5.02,
1.228,0.06,-0.27,1.46,-0.73,-0.48,5.02,
1.229,0.06,-0.27,1.46,-0.33,-0.40,4.95,
1.23,0.08,-0.26,1.46,-0.33,-0.40,4.95,
1.234,0.09,-0.25,1.46,-0.33,-0.40,4.95,
1.234,0.09,-0.25,1.46,0.01,-0.23,4.89,
1.235,0.11,-0.24,1.45,0.01,-0.23,4.89,
1.239,0.11,-0.24,1.45,0.40,-0.07,4.80,
1.239,0.12,-0.23,1.45,0.40,-0.07,4.80,
1.241,0.13,-0.23,1.45,0.40,-0.07,4.80,
1.246,0.14,-0.22,1.44,0.40,-0.07,4.80,
1.246,0.14,-0.22,1.44,0.69,0.11,4.74,
1.247,0.15,-0.21,1.44,0.69,0.11,4.74,
1.248,0.16,-0.20,1.44,0.69,0.11,4.74,
1.248,0.16,-0.20,1.44,0.93,0.25,4.66,
1.251,0.16,-0.20,1.44,0.93,0.25,4.66,
1.254,0.16,-0.19,1.43,0.93,0.25,4.66,
1.254,0.16,-0.19,1.43,1.12,0.39,4.57,
1.256,0.16,-0.19,1.44,1.12,0.39,4.57,
1.258,0.16,-0.18,1.43,1.12,0.39,4.57,
1.259,0.16,-0.18,1.43,1.23,0.52,4.55,
1.265,0.14,-0.18,1.43,1.23,0.52,4.55,
1.266,0.14,-0.18,1.43,1.22,0.63,4.53,
1.266,0.14,-0.18,1.44,1.22,0.63,4.53,
1.267,0.13,-0.19,1.44,1.22,0.63,4.53,
1.268,0.12,-0.20,1.45,1.22,0.63,4.53,
1.268,0.12,-0.20,1.45,1.07,0.64,4.52,
1.27,0.11,-0.20,1.45,1.07,0.64,4.52,
1.273,0.10,-0.21,1.46,1.07,0.64,4.52,
1.273,0.10,-0.21,1.46,0.98,0.54,4.58,
1.275,0.09,-0.21,1.46,0.98,0.54,4.58,
1.277,0.08,-0.23,1.46,0.98,0.54,4.58,
1.278,0.08,-0.23,1.46,0.80,0.40,4.67,
1.28,0.08,-0.23,1.45,0.80,0.40,4.67,
1.283,0.06,-0.24,1.46,0.80,0.40,4.67,
1.283,0.06,-0.24,1.46,0.61,0.28,4.72,
1.284,0.06,-0.24,1.46,0.61,0.28,4.72,
1.287,0.06,-0.24,1.46,0.52,0.10,4.66,
1.288,0.06,-0.25,1.46,0.52,0.10,4.66,
1.289,0.06,-0.25,1.45,0.52,0.10,4.66,
1.295,0.06,-0.25,1.45,0.52,0.10,4.66,
1.295,0.06,-0.25,1.45,0.45,0.02,4.68,
1.296,0.06,-0.26,1.46,0.45,0.02,4.68,
1.298,0.07,-0.26,1.46,0.45,0.02,4.68,
1.299,0.07,-0.26,1.46,0.50,-0.02,4.60,
1.299,0.08,-0.26,1.45,0.50,-0.02,4.60,
1.302,0.08,-0.27,1.46,0.50,-0.02,4.60,
1.302,0.08,-0.27,1.46,0.62,-0.09,4.61,
1.304,0.10,-0.26,1.46,0.62,-0.09,4.61,
1.307,0.11,-0.27,1.47,0.62,-0.09,4.61,
1.307,0.11,-0.27,1.47,0.80,-0.17,4.60,
1.31,0.12,-0.27,1.48,0.80,-0.17,4.60,
1.312,0.12,-0.27,1.48,1.10,-0.21,4.69,
1.312,0.14,-0.27,1.48,1.10,-0.21,4.69,
1.315,0.16,-0.27,1.48,1.10,-0.21,4.69,
1.317,0.17,-0.27,1.48,1.10,-0.21,4.69,
1.317,0.17,-0.27,1.48,1.38,-0.27,4.82,
1.319,0.19,-0.27,1.48,1.38,-0.27,4.82,
1.322,0.21,-0.27,1.48,1.38,-0.27,4.82,
1.324,0.21,-0.27,1.48,1.74,-0.26,4.84,
1.324,0.22,-0.27,1.48,1.74,-0.26,4.84,
1.328,0.24,-0.28,1.48,1.74,-0.26,4.84,
1.328,0.24,-0.28,1.48,2.10,-0.29,4.81,
1.329,0.24,-0.27,1.47,2.10,-0.29,4.81,
1.332,0.26,-0.28,1.47,2.10,-0.29,4.81,
1.333,0.26,-0.28,1.47,2.42,-0.32,4.77,
1.335,0.27,-0.27,1.46,2.42,-0.32,4.77,
1.337,0.27,-0.27,1.46,2.65,-0.35,4.62,
1.337,0.27,-0.27,1.45,2.65,-0.35,4.62,
1.339,0.28,-0.27,1.45,2.65,-0.35,4.62,
1.342,0.28,-0.27,1.43,2.65,-0.35,4.62,
1.342,0.28,-0.27,1.43,2.84,-0.37,4.47,
1.346,0.27,-0.26,1.42,2.84,-0.37,4.47,
1.346,0.28,-0.25,1.41,2.84,-0.37,4.47,
1.347,0.28,-0.25,1.41,2.92,-0.35,4.32,
1.349,0.28,-0.25,1.40,2.92,-0.35,4.32,
1.352,0.27,-0.25,1.39,2.92,-0.35,4.32,
1.352,0.27,-0.25,1.39,2.92,-0.26,4.05,
1.354,0.27,-0.25,1.37,2.92,-0.26,4.05,
1.356,0.26,-0.25,1.36,2.92,-0.26,4.05,
1.357,0.26,-0.25,1.36,2.95,-0.28,3.81,
1.36,0.25,-0.25,1.35,2.95,-0.28,3.81,
1.362,0.25,-0.25,1.35,2.90,-0.32,3.54,
1.362,0.24,-0.25,1.34,2.90,-0.32,3.54,
1.364,0.22,-0.25,1.34,2.90,-0.32,3.54,
1.367,0.22,-0.25,1.34,2.67,-0.37,3.30,
1.367,0.21,-0.25,1.32,2.67,-0.37,3.30,
1.369,0.20,-0.25,1.31,2.67,-0.37,3.30,
1.372,0.18,-0.25,1.31,2.67,-0.37,3.30,
1.372,0.18,-0.25,1.31,2.46,-0.39,3.13,
1.375,0.17,-0.25,1.30,2.46,-0.39,3.13,
1.376,0.17,-0.25,1.31,2.46,-0.39,3.13,
1.376,0.17,-0.25,1.31,2.22,-0.41,2.96,
1.381,0.16,-0.25,1.30,2.22,-0.41,2.96,
1.382,0.16,-0.25,1.31,2.22,-0.41,2.96,
1.382,0.16,-0.25,1.31,2.07,-0.43,2.87,
1.383,0.16,-0.25,1.32,2.07,-0.43,2.87,
1.386,0.16,-0.25,1.32,2.03,-0.46,2.86,
1.386,0.17,-0.26,1.32,2.03,-0.46,2.86,
1.39,0.18,-0.26,1.33,2.03,-0.46,2.86,
1.392,0.18,-0.26,1.35,2.03,-0.46,2.86,
1.392,0.18,-0.26,1.35,2.10,-0.56,2.98,
1.393,0.20,-0.27,1.36,2.10,-0.56,2.98,
1.397,0.23,-0.27,1.37,2.10,-0.56,2.98,
1.397,0.23,-0.27,1.37,2.29,-0.64,3.19,
1.398,0.25,-0.27,1.39,2.29,-0.64,3.19,
1.402,0.27,-0.28,1.40,2.29,-0.64,3.19,
1.402,0.27,-0.28,1.40,2.65,-0.73,3.43,
1.404,0.29,-0.28,1.41,2.65,-0.73,3.43,
1.407,0.31,-0.28,1.42,2.65,-0.73,3.43,
1.407,0.31,-0.28,1.42,3.13,-0.81,3.74,
1.409,0.33,-0.28,1.42,3.13,-0.81,3.74,
1.411,0.33,-0.28,1.42,3.57,-0.86,3.93,
1.411,0.35,-0.29,1.43,3.57,-0.86,3.93,
1.414,0.36,-0.29,1.42,3.57,-0.86,3.93,
1.416,0.37,-0.29,1.42,3.57,-0.86,3.93,
1.417,0.37,-0.29,1.42,3.97,-0.98,3.98,
1.419,0.38,-0.29,1.41,3.97,-0.98,3.98,
1.422,0.37,-0.29,1.40,3.97,-0.98,3.98,
1.422,0.37,-0.29,1.40,4.28,-1.02,3.92,
1.424,0.38,-0.29,1.39,4.28,-1.02,3.92,
1.427,0.38,-0.28,1.38,4.28,-1.02,3.92,
1.427,0.38,-0.28,1.38,4.36,-1.05,3.73,
1.43,0.37,-0.28,1.37,4.36,-1.05,3.73,
1.432,0.37,-0.27,1.35,4.36,-1.05,3.73,
1.432,0.37,-0.27,1.35,4.42,-1.05,3.54,
1.434,0.37,-0.27,1.33,4.42,-1.05,3.54,
1.437,0.36,-0.27,1.31,4.42,-1.05,3.54,
1.437,0.36,-0.27,1.31,4.40,-1.02,3.28,
1.439,0.35,-0.27,1.29,4.40,-1.02,3.28,
1.442,0.34,-0.27,1.27,4.40,-1.02,3.28,
1.442,0.34,-0.27,1.27,4.32,-1.03,2.90,
1.444,0.33,-0.27,1.24,4.32,-1.03,2.90,
1.447,0.32,-0.26,1.22,4.32,-1.03,2.90,
1.447,0.32,-0.26,1.22,4.20,-1.04,2.46,
1.448,0.31,-0.26,1.20,4.20,-1.04,2.46,
1.451,0.30,-0.26,1.18,4.20,-1.04,2.46,
1.452,0.30,-0.26,1.18,4.01,-1.06,2.00,
1.454,0.29,-0.26,1.16,4.01,-1.06,2.00,
1.456,0.28,-0.25,1.15,4.01,-1.06,2.00,
1.456,0.28,-0.25,1.15,3.82,-1.07,1.53,
1.459,0.27,-0.24,1.14,3.82,-1.07,1.53,
1.46,0.27,-0.24,1.14,3.64,-1.07,1.25,
1.461,0.26,-0.24,1.13,3.64,-1.07,1.25,
1.463,0.26,-0.23,1.13,3.64,-1.07,1.25,
1.467,0.25,-0.22,1.13,3.64,-1.07,1.25,
1.467,0.25,-0.22,1.13,3.48,-1.00,1.03,
1.469,0.24,-0.22,1.13,3.48,-1.00,1.03,
1.472,0.25,-0.22,1.15,3.48,-1.00,1.03,
1.472,0.25,-0.22,1.15,3.37,-0.93,0.99,
1.473,0.24,-0.22,1.16,3.37,-0.93,0.99,
1.476,0.24,-0.22,1.18,3.37,-0.93,0.99,
1.476,0.24,-0.22,1.18,3.31,-0.94,1.06,
1.484,0.24,-0.22,1.19,3.31,-0.94,1.06,
1.488,0.25,-0.23,1.21,3.31,-0.94,1.06,
1.488,0.25,-0.23,1.21,3.28,-0.95,1.32,
1.488,0.25,-0.24,1.23,3.28,-0.95,1.32,
1.488,0.25,-0.24,1.23,3.30,-1.08,1.63,
1.489,0.25,-0.24,1.24,3.30,-1.08,1.63,
1.489,0.26,-0.25,1.25,3.30,-1.08,1.63,
1.491,0.26,-0.25,1.26,3.30,-1.08,1.63,
1.491,0.26,-0.25,1.26,3.37,-1.24,1.93,
1.493,0.27,-0.25,1.27,3.37,-1.24,1.93,
1.498,0.26,-0.26,1.27,3.37,-1.24,1.93,
1.499,0.26,-0.26,1.27,3.42,-1.38,2.16,
1.499,0.27,-0.26,1.27,3.42,-1.38,2.16,
1.501,0.27,-0.27,1.26,3.42,-1.38,2.16,
1.501,0.27,-0.27,1.26,3.49,-1.49,2.27,
1.503,0.27,-0.27,1.25,3.49,-1.49,2.27,
1.506,0.27,-0.27,1.25,3.49,-1.49,2.27,
1.506,0.27,-0.27,1.25,3.52,-1.64,2.23,
1.508,0.27,-0.26,1.24,3.52,-1.64,2.23,
1.51,0.27,-0.26,1.24,3.55,-1.71,2.06,
1.511,0.26,-0.26,1.23,3.55,-1.71,2.06,
1.513,0.26,-0.26,1.21,3.55,-1.71,2.06,
1.517,0.26,-0.26,1.21,3.53,-1.71,1.90,
1.517,0.25,-0.26,1.19,3.53,-1.71,1.90,
1.517,0.25,-0.26,1.18,3.53,-1.71,1.90,
1.521,0.25,-0.25,1.15,3.53,-1.71,1.90,
1.521,0.25,-0.25,1.15,3.46,-1.75,1.58,
1.523,0.24,-0.25,1.14,3.46,-1.75,1.58,
1.526,0.23,-0.25,1.12,3.46,-1.75,1.58,
1.526,0.23,-0.25,1.12,3.40,-1.74,1.21,
1.529,0.22,-0.25,1.10,3.40,-1.74,1.21,
1.531,0.22,-0.25,1.10,3.32,-1.75,0.88,
1.531,0.21,-0.24,1.09,3.32,-1.75,0.88,
1.533,0.21,-0.25,1.07,3.32,-1.75,0.88,
1.535,0.21,-0.25,1.07,3.16,-1.77,0.53,
1.536,0.20,-0.24,1.06,3.16,-1.77,0.53,
1.538,0.19,-0.24,1.04,3.16,-1.77,0.53,
1.54,0.18,-0.24,1.02,3.16,-1.77,0.53,
1.541,0.18,-0.24,1.02,3.09,-1.80,0.23,
1.543,0.17,-0.23,1.01,3.09,-1.80,0.23,
1.545,0.16,-0.23,1.00,3.09,-1.80,0.23,
1.545,0.16,-0.23,1.00,2.94,-1.78,-0.11,
1.548,0.16,-0.22,0.99,2.94,-1.78,-0.11,
1.55,0.16,-0.21,0.97,2.94,-1.78,-0.11,
1.55,0.16,-0.21,0.97,2.78,-1.76,-0.32,
1.553,0.16,-0.21,0.97,2.78,-1.76,-0.32,
1.555,0.16,-0.20,0.96,2.78,-1.76,-0.32,
1.556,0.16,-0.20,0.96,2.77,-1.66,-0.58,
1.557,0.17,-0.19,0.96,2.77,-1.66,-0.58,
1.56,0.17,-0.19,0.96,2.77,-1.62,-0.72,
1.56,0.18,-0.18,0.95,2.77,-1.62,-0.72,
1.563,0.19,-0.17,0.96,2.77,-1.62,-0.72,
1.565,0.20,-0.17,0.96,2.77,-1.62,-0.72,
1.566,0.20,-0.17,0.96,2.98,-1.51,-0.80,
1.568,0.21,-0.16,0.97,2.98,-1.51,-0.80,
1.571,0.22,-0.14,0.98,2.98,-1.51,-0.80,
1.571,0.22,-0.14,0.98,3.18,-1.36,-0.76,
1.573,0.24,-0.14,0.98,3.18,-1.36,-0.76,
1.575,0.25,-0.13,0.99,3.18,-1.36,-0.76,
1.576,0.25,-0.13,0.99,3.37,-1.23,-0.65,
1.577,0.26,-0.12,1.00,3.37,-1.23,-0.65,
1.58,0.27,-0.11,1.01,3.37,-1.23,-0.65,
1.581,0.27,-0.11,1.01,3.61,-1.08,-0.54,
1.582,0.27,-0.11,1.01,3.61,-1.08,-0.54,
1.585,0.27,-0.11,1.01,3.79,-0.98,-0.35,
1.585,0.28,-0.10,1.02,3.79,-0.98,-0.35,
1.587,0.28,-0.10,1.02,3.79,-0.98,-0.35,
1.59,0.27,-0.10,1.03,3.79,-0.98,-0.35,
1.591,0.27,-0.10,1.03,3.87,-0.91,-0.25,
1.593,0.27,-0.09,1.02,3.87,-0.91,-0.25,
1.594,0.27,-0.10,1.03,3.87,-0.91,-0.25,
1.595,0.27,-0.10,1.03,3.91,-0.90,-0.16,
1.603,0.26,-0.09,1.03,3.91,-0.90,-0.16,
1.604,0.26,-0.09,1.02,3.91,-0.90,-0.16,
1.604,0.26,-0.09,1.02,3.81,-0.91,-0.15,
1.605,0.26,-0.09,1.02,3.81,-0.91,-0.15,
1.605,0.25,-0.09,1.01,3.81,-0.91,-0.15,
1.605,0.25,-0.09,1.01,3.72,-0.96,-0.15,
1.606,0.25,-0.10,1.01,3.72,-0.96,-0.15,
1.609,0.24,-0.10,1.00,3.72,-0.96,-0.15,
1.609,0.24,-0.10,1.00,3.64,-1.00,-0.24,
1.618,0.23,-0.11,1.00,3.64,-1.00,-0.24,
1.619,0.22,-0.11,1.00,3.64,-1.00,-0.24,
1.619,0.22,-0.11,1.00,3.50,-1.11,-0.35,
1.619,0.21,-0.11,1.00,3.50,-1.11,-0.35,
1.619,0.20,-0.11,1.00,3.50,-1.11,-0.35,
1.62,0.20,-0.11,1.00,3.33,-1.21,-0.39,
1.621,0.19,-0.12,1.00,3.33,-1.21,-0.39,
1.623,0.18,-0.12,1.00,3.33,-1.21,-0.39,
1.624,0.18,-0.12,1.00,3.11,-1.32,-0.42,
1.626,0.17,-0.12,1.00,3.11,-1.32,-0.42,
1.628,0.16,-0.12,1.00,3.11,-1.32,-0.42,
1.629,0.16,-0.12,1.00,2.87,-1.41,-0.41,
1.63,0.15,-0.12,1.00,2.87,-1.41,-0.41,
1.633,0.15,-0.12,1.00,2.67,-1.48,-0.38,
1.634,0.14,-0.12,1.00,2.67,-1.48,-0.38,
1.635,0.13,-0.12,1.00,2.67,-1.48,-0.38,
1.638,0.12,-0.12,1.00,2.67,-1.48,-0.38,
1.638,0.12,-0.12,1.00,2.44,-1.49,-0.35,
1.641,0.11,-0.12,1.00,2.44,-1.49,-0.35,
1.644,0.11,-0.12,0.99,2.44,-1.49,-0.35,
1.649,0.11,-0.12,0.99,2.24,-1.60,-0.37,
1.649,0.10,-0.12,0.99,2.24,-1.60,-0.37,
1.65,0.10,-0.12,0.98,2.24,-1.60,-0.37,
1.65,0.10,-0.12,0.98,2.10,-1.60,-0.43,
1.653,0.10,-0.11,0.97,2.10,-1.60,-0.43,
1.654,0.10,-0.11,0.95,2.10,-1.60,-0.43,
1.654,0.10,-0.11,0.95,2.01,-1.64,-0.55,
1.656,0.10,-0.11,0.95,2.01,-1.64,-0.55,
1.659,0.10,-0.11,0.95,2.00,-1.64,-0.76,
1.659,0.11,-0.10,0.94,2.00,-1.64,-0.76,
1.661,0.11,-0.10,0.92,2.00,-1.64,-0.76,
1.664,0.12,-0.09,0.92,2.00,-1.64,-0.76,
1.664,0.12,-0.09,0.92,2.03,-1.61,-0.95,
1.666,0.12,-0.08,0.91,2.03,-1.61,-0.95,
1.669,0.13,-0.08,0.90,2.03,-1.61,-0.95,
1.669,0.13,-0.08,0.90,2.16,-1.54,-1.14,
1.671,0.14,-0.07,0.90,2.16,-1.54,-1.14,
1.674,0.14,-0.06,0.89,2.16,-1.54,-1.14,
1.674,0.14,-0.06,0.89,2.24,-1.47,-1.28,
1.676,0.14,-0.05,0.88,2.24,-1.47,-1.28,
1.682,0.15,-0.04,0.87,2.24,-1.47,-1.28,
1.683,0.15,-0.04,0.87,2.34,-1.34,-1.41,
1.683,0.16,-0.03,0.86,2.34,-1.34,-1.41,
1.683,0.16,-0.03,0.86,2.43,-1.18,-1.55,
1.684,0.16,-0.03,0.86,2.43,-1.18,-1.55,
1.685,0.17,-0.02,0.86,2.43,-1.18,-1.55,
1.688,0.18,-0.02,0.86,2.43,-1.18,-1.55,
1.688,0.18,-0.02,0.86,2.56,-1.12,-1.69,
1.691,0.18,-0.01,0.85,2.56,-1.12,-1.69,
1.694,0.18,-0.01,0.85,2.56,-1.12,-1.69,
1.694,0.18,-0.01,0.85,2.67,-1.04,-1.72,
1.696,0.18,-0.00,0.85,2.67,-1.04,-1.72,
1.698,0.18,0.00,0.85,2.67,-1.04,-1.72,
1.699,0.18,0.00,0.85,2.75,-0.99,-1.78,
1.701,0.18,0.00,0.86,2.75,-0.99,-1.78,
1.704,0.18,0.01,0.86,2.75,-0.99,-1.78,
1.704,0.18,0.01,0.86,2.74,-0.96,-1.76,
1.706,0.17,0.01,0.87,2.74,-0.96,-1.76,
1.709,0.17,0.01,0.87,2.71,-0.94,-1.66,
1.709,0.17,0.00,0.88,2.71,-0.94,-1.66,
1.711,0.16,0.01,0.89,2.71,-0.94,-1.66,
1.714,0.16,0.00,0.90,2.71,-0.94,-1.66,
1.714,0.16,0.00,0.90,2.61,-0.96,-1.57,
1.717,0.15,0.00,0.92,2.61,-0.96,-1.57,
1.719,0.15,0.00,0.93,2.61,-0.96,-1.57,
1.719,0.15,0.00,0.93,2.51,-1.01,-1.34,
1.721,0.13,0.01,0.94,2.51,-1.01,-1.34,
1.723,0.14,0.01,0.95,2.51,-1.01,-1.34,
1.723,0.14,0.01,0.95,2.37,-1.06,-1.03,
1.726,0.13,0.01,0.97,2.37,-1.06,-1.03,
1.728,0.13,0.01,0.98,2.37,-1.06,-1.03,
1.731,0.13,0.01,0.98,2.22,-1.06,-0.81,
1.732,0.13,0.01,0.98,2.22,-1.06,-0.81,
1.734,0.13,0.01,0.99,2.22,-1.06,-0.81,
1.734,0.13,0.01,0.99,2.18,-1.03,-0.57,
1.735,0.13,0.01,1.00,2.18,-1.03,-0.57,
1.739,0.12,0.01,1.00,2.18,-1.03,-0.57,
1.739,0.12,0.01,1.00,2.10,-1.08,-0.41,
1.741,0.12,0.01,0.99,2.10,-1.08,-0.41,
1.743,0.12,0.01,0.99,2.10,-1.08,-0.41,
1.744,0.12,0.01,0.99,2.06,-1.13,-0.26,
1.746,0.12,0.01,0.99,2.06,-1.13,-0.26,
1.748,0.11,0.01,0.98,2.06,-1.13,-0.26,
1.749,0.11,0.01,0.98,2.03,-1.15,-0.33,
1.75,0.11,0.01,0.97,2.03,-1.15,-0.33,
1.754,0.10,0.01,0.95,2.03,-1.15,-0.33,
1.754,0.10,0.01,0.95,1.92,-1.20,-0.42,
1.756,0.11,0.01,0.94,1.92,-1.20,-0.42,
1.758,0.10,0.01,0.93,1.92,-1.20,-0.42,
1.758,0.10,0.01,0.93,1.84,-1.22,-0.65,
1.761,0.10,0.01,0.92,1.84,-1.22,-0.65,
1.763,0.10,0.01,0.90,1.84,-1.22,-0.65,
1.764,0.10,0.01,0.90,1.81,-1.28,-0.90,
1.765,0.10,0.01,0.89,1.81,-1.28,-0.90,
1.768,0.09,0.01,0.88,1.81,-1.28,-0.90,
1.769,0.09,0.01,0.88,1.78,-1.32,-1.12,
1.771,0.09,0.02,0.87,1.78,-1.32,-1.12,
1.773,0.09,0.02,0.87,1.71,-1.37,-1.38,
1.774,0.09,0.02,0.86,1.71,-1.37,-1.38,
1.776,0.08,0.02,0.85,1.71,-1.37,-1.38,
1.778,0.08,0.02,0.85,1.71,-1.37,-1.38,
1.779,0.08,0.02,0.85,1.65,-1.35,-1.56,
1.782,0.08,0.02,0.85,1.65,-1.35,-1.56,
1.783,0.08,0.02,0.85,1.52,-1.34,-1.66,
1.783,0.08,0.02,0.84,1.52,-1.34,-1.66,
1.785,0.08,0.02,0.85,1.52,-1.34,-1.66,
1.789,0.07,0.02,0.84,1.52,-1.34,-1.66,
1.789,0.07,0.02,0.84,1.51,-1.37,-1.70,
1.789,0.07,0.02,0.84,1.51,-1.37,-1.70,
1.793,0.07,0.02,0.85,1.51,-1.37,-1.70,
1.793,0.07,0.02,0.85,1.45,-1.41,-1.70,
1.794,0.07,0.02,0.85,1.45,-1.41,-1.70,
1.798,0.07,0.02,0.86,1.45,-1.41,-1.70,
1.799,0.07,0.02,0.86,1.36,-1.44,-1.70,
1.8,0.07,0.03,0.86,1.36,-1.44,-1.70,
1.802,0.08,0.03,0.86,1.36,-1.44,-1.70,
1.803,0.08,0.03,0.86,1.34,-1.48,-1.60,
1.804,0.08,0.03,0.86,1.34,-1.48,-1.60,
1.807,0.08,0.03,0.86,1.40,-1.48,-1.53,
1.807,0.09,0.03,0.87,1.40,-1.48,-1.53,
1.811,0.10,0.04,0.86,1.40,-1.48,-1.53,
1.812,0.11,0.04,0.87,1.40,-1.48,-1.53,
1.812,0.11,0.04,0.87,1.52,-1.48,-1.47,
1.82,0.12,0.04,0.87,1.52,-1.48,-1.47,
1.821,0.12,0.04,0.87,1.52,-1.48,-1.47,
1.822,0.12,0.04,0.87,1.66,-1.42,-1.46,
1.822,0.12,0.05,0.87,1.66,-1.42,-1.46,
1.823,0.12,0.05,0.86,1.66,-1.42,-1.46,
1.823,0.12,0.05,0.86,1.77,-1.41,-1.44,
1.824,0.12,0.06,0.85,1.77,-1.41,-1.44,
1.827,0.12,0.06,0.84,1.77,-1.41,-1.44,
1.827,0.12,0.06,0.84,1.77,-1.39,-1.47,
1.835,0.12,0.07,0.83,1.77,-1.39,-1.47,
1.836,0.12,0.07,0.83,1.79,-1.33,-1.59,
1.836,0.12,0.08,0.83,1.79,-1.33,-1.59,
1.836,0.11,0.09,0.82,1.79,-1.33,-1.59,
1.837,0.11,0.09,0.81,1.79,-1.33,-1.59,
1.837,0.11,0.09,0.81,1.78,-1.20,-1.77,
1.838,0.11,0.09,0.80,1.78,-1.20,-1.77,
1.842,0.10,0.09,0.80,1.78,-1.20,-1.77,
1.842,0.10,0.09,0.80,1.72,-1.13,-1.94,
1.843,0.10,0.10,0.78,1.72,-1.13,-1.94,
1.846,0.10,0.11,0.78,1.72,-1.13,-1.94,
1.846,0.10,0.11,0.78,1.64,-1.09,-2.05,
1.849,0.09,0.11,0.78,1.64,-1.09,-2.05,
1.852,0.09,0.11,0.77,1.64,-1.09,-2.05,
1.852,0.09,0.11,0.77,1.57,-1.04,-2.22,
1.853,0.09,0.11,0.76,1.57,-1.04,-2.22,
1.856,0.09,0.11,0.76,1.49,-1.00,-2.27,
1.857,0.09,0.12,0.76,1.49,-1.00,-2.27,
1.858,0.09,0.12,0.75,1.49,-1.00,-2.27,
1.861,0.09,0.12,0.75,1.49,-1.00,-2.27,
1.861,0.09,0.12,0.75,1.47,-0.97,-2.37,
1.864,0.10,0.11,0.74,1.47,-0.97,-2.37,
1.867,0.09,0.11,0.74,1.47,-0.97,-2.37,
1.868,0.09,0.11,0.74,1.49,-0.98,-2.47,
1.869,0.10,0.12,0.74,1.49,-0.98,-2.47,
1.872,0.10,0.12,0.73,1.49,-0.98,-2.47,
1.873,0.10,0.12,0.73,1.53,-1.01,-2.54,
1.875,0.10,0.12,0.74,1.53,-1.01,-2.54,
1.877,0.10,0.12,0.74,1.53,-1.01,-2.54,
1.877,0.10,0.12,0.74,1.58,-1.00,-2.61,
1.88,0.10,0.12,0.73,1.58,-1.00,-2.61,
1.882,0.10,0.12,0.73,1.59,-1.00,-2.60,
1.883,0.11,0.13,0.73,1.59,-1.00,-2.60,
1.884,0.11,0.13,0.74,1.59,-1.00,-2.60,
1.887,0.11,0.13,0.73,1.59,-1.00,-2.60,
1.887,0.11,0.13,0.73,1.62,-0.97,-2.60,
1.89,0.12,0.14,0.75,1.62,-0.97,-2.60,
1.892,0.12,0.14,0.75,1.67,-0.91,-2.59,
1.892,0.12,0.14,0.75,1.67,-0.91,-2.59,
1.895,0.13,0.15,0.75,1.67,-0.91,-2.59,
1.898,0.13,0.14,0.76,1.67,-0.91,-2.59,
1.898,0.13,0.14,0.76,1.72,-0.86,-2.46,
1.899,0.13,0.14,0.77,1.72,-0.86,-2.46,
1.901,0.14,0.14,0.78,1.72,-0.86,-2.46,
1.902,0.14,0.14,0.78,1.81,-0.83,-2.38,
1.904,0.14,0.15,0.79,1.81,-0.83,-2.38,
1.907,0.14,0.15,0.79,1.83,-0.85,-2.17,
1.907,0.15,0.15,0.81,1.83,-0.85,-2.17,
1.909,0.15,0.15,0.82,1.83,-0.85,-2.17,
1.912,0.14,0.15,0.83,1.83,-0.85,-2.17,
1.912,0.14,0.15,0.83,1.92,-0.85,-1.93,
1.915,0.15,0.15,0.83,1.92,-0.85,-1.93,
1.917,0.14,0.15,0.84,1.92,-0.85,-1.93,
1.917,0.14,0.15,0.84,1.90,-0.82,-1.71,
1.918,0.14,0.15,0.84,1.90,-0.82,-1.71,
1.922,0.15,0.16,0.84,1.90,-0.82,-1.71,
1.922,0.15,0.16,0.84,1.86,-0.84,-1.57,
1.924,0.14,0.16,0.84,1.86,-0.84,-1.57,
1.927,0.15,0.16,0.84,1.86,-0.84,-1.57,
1.927,0.15,0.16,0.84,1.85,-0.82,-1.52,
1.935,0.15,0.16,0.83,1.85,-0.82,-1.52,
1.936,0.15,0.16,0.83,1.86,-0.80,-1.52,
1.936,0.16,0.16,0.83,1.86,-0.80,-1.52,
1.936,0.16,0.16,0.83,1.86,-0.80,-1.52,
1.937,0.15,0.15,0.82,1.86,-0.80,-1.52,
1.937,0.15,0.15,0.82,1.94,-0.83,-1.59,
1.939,0.15,0.15,0.82,1.94,-0.83,-1.59,
1.941,0.14,0.16,0.81,1.94,-0.83,-1.59,
1.941,0.14,0.16,0.81,1.91,-0.87,-1.62,
1.943,0.13,0.16,0.81,1.91,-0.87,-1.62,
1.947,0.13,0.16,0.81,1.91,-0.87,-1.62,
1.947,0.13,0.16,0.81,1.86,-0.89,-1.69,
1.948,0.12,0.16,0.80,1.86,-0.89,-1.69,
1.951,0.12,0.16,0.80,1.86,-0.89,-1.69,
1.951,0.12,0.16,0.80,1.70,-0.91,-1.75,
1.953,0.11,0.16,0.79,1.70,-0.91,-1.75,
1.956,0.11,0.16,0.79,1.60,-0.89,-1.85,
1.957,0.11,0.16,0.79,1.60,-0.89,-1.85,
1.958,0.10,0.15,0.78,1.60,-0.89,-1.85,
1.961,0.10,0.15,0.78,1.60,-0.89,-1.85,
1.961,0.10,0.15,0.78,1.49,-0.94,-1.92,
1.964,0.10,0.15,0.77,1.49,-0.94,-1.92,
1.966,0.10,0.15,0.76,1.49,-0.94,-1.92,
1.966,0.10,0.15,0.76,1.43,-1.02,-2.05,
1.969,0.09,0.15,0.76,1.43,-1.02,-2.05,
1.97,0.09,0.15,0.75,1.43,-1.02,-2.05,
1.971,0.09,0.15,0.75,1.40,-1.04,-2.15,
1.973,0.09,0.15,0.74,1.40,-1.04,-2.15,
1.976,0.08,0.15,0.74,1.40,-1.04,-2.15,
1.976,0.08,0.15,0.74,1.31,-1.12,-2.21,
1.978,0.08,0.15,0.73,1.31,-1.12,-2.21,
1.982,0.08,0.15,0.73,1.29,-1.14,-2.37,
1.983,0.08,0.15,0.72,1.29,-1.14,-2.37,
1.983,0.07,0.16,0.72,1.29,-1.14,-2.37,
1.985,0.06,0.16,0.71,1.29,-1.14,-2.37,
1.986,0.06,0.16,0.71,1.22,-1.10,-2.52,
1.988,0.05,0.16,0.71,1.22,-1.10,-2.52,
1.99,0.05,0.16,0.70,1.22,-1.10,-2.52,
1.99,0.05,0.16,0.70,1.08,-1.11,-2.59,
1.993,0.04,0.17,0.70,1.08,-1.11,-2.59,
1.995,0.04,0.17,0.69,1.08,-1.11,-2.59,
1.995,0.04,0.17,0.69,0.94,-1.11,-2.70,
1.997,0.04,0.16,0.68,0.94,-1.11,-2.70,
2.0,0.04,0.17,0.68,0.94,-1.11,-2.70,
2.001,0.04,0.17,0.68,0.85,-1.06,-2.78,
2.002,0.03,0.16,0.68,0.85,-1.06,-2.78,
2.006,0.03,0.16,0.68,0.80,-1.09,-2.88,
2.006,0.03,0.17,0.68,0.80,-1.09,-2.88,
2.007,0.03,0.17,0.67,0.80,-1.09,-2.88,
2.01,0.02,0.17,0.67,0.80,-1.09,-2.88,
2.011,0.02,0.17,0.67,0.70,-1.11,-2.92,
2.013,0.02,0.17,0.66,0.70,-1.11,-2.92,
2.016,0.02,0.18,0.66,0.70,-1.11,-2.92,
2.017,0.02,0.18,0.66,0.66,-1.08,-2.96,
2.017,0.02,0.18,0.67,0.66,-1.08,-2.96,
2.02,0.02,0.18,0.66,0.66,-1.08,-2.96,
2.02,0.02,0.18,0.66,0.60,-1.06,-3.02,
2.023,0.02,0.18,0.66,0.60,-1.06,-3.02,
2.025,0.03,0.18,0.65,0.60,-1.06,-3.02,
2.025,0.03,0.18,0.65,0.62,-1.04,-3.02,
2.027,0.03,0.17,0.66,0.62,-1.04,-3.02,
2.03,0.03,0.17,0.66,0.63,-1.04,-3.08,
2.03,0.03,0.17,0.66,0.63,-1.04,-3.08,
2.032,0.03,0.17,0.65,0.63,-1.04,-3.08,
2.035,0.02,0.17,0.65,0.63,-1.04,-3.08,
2.035,0.02,0.17,0.65,0.65,-1.11,-3.06,
2.037,0.02,0.16,0.64,0.65,-1.11,-3.06,
2.04,0.02,0.17,0.64,0.65,-1.11,-3.06,
2.041,0.02,0.17,0.64,0.63,-1.19,-3.13,
2.043,0.01,0.16,0.64,0.63,-1.19,-3.13,
2.045,0.01,0.16,0.64,0.63,-1.19,-3.13,
2.046,0.01,0.16,0.64,0.59,-1.23,-3.16,
2.048,0.01,0.15,0.64,0.59,-1.23,-3.16,
2.05,0.00,0.15,0.65,0.59,-1.23,-3.16,
2.051,0.00,0.15,0.65,0.49,-1.29,-3.19,
2.052,-0.00,0.14,0.65,0.49,-1.29,-3.19,
2.055,-0.00,0.14,0.65,0.42,-1.39,-3.13,
2.055,-0.01,0.14,0.66,0.42,-1.39,-3.13,
2.058,-0.02,0.13,0.67,0.42,-1.39,-3.13,
2.06,-0.02,0.13,0.67,0.42,-1.39,-3.13,
2.06,-0.02,0.13,0.67,0.32,-1.49,-3.06,
2.062,-0.03,0.12,0.68,0.32,-1.49,-3.06,
2.065,-0.04,0.12,0.70,0.32,-1.49,-3.06,
2.066,-0.04,0.12,0.70,0.21,-1.57,-2.89,
2.068,-0.05,0.12,0.71,0.21,-1.57,-2.89,
2.07,-0.06,0.12,0.72,0.21,-1.57,-2.89,
2.07,-0.06,0.12,0.72,0.02,-1.62,-2.67,
2.072,-0.07,0.12,0.73,0.02,-1.62,-2.67,
2.075,-0.07,0.12,0.74,0.02,-1.62,-2.67,
2.076,-0.07,0.12,0.74,-0.12,-1.67,-2.43,
2.077,-0.08,0.11,0.75,-0.12,-1.67,-2.43,
2.08,-0.08,0.11,0.75,-0.30,-1.67,-2.24,
2.08,-0.08,0.11,0.76,-0.30,-1.67,-2.24,
2.083,-0.09,0.12,0.76,-0.30,-1.67,-2.24,
2.085,-0.09,0.12,0.77,-0.30,-1.67,-2.24,
2.085,-0.09,0.12,0.77,-0.40,-1.68,-2.02,
2.088,-0.09,0.13,0.78,-0.40,-1.68,-2.02,
2.09,-0.09,0.13,0.78,-0.48,-1.60,-1.92,
2.09,-0.10,0.14,0.78,-0.48,-1.60,-1.92,
2.093,-0.10,0.14,0.77,-0.48,-1.60,-1.92,
2.095,-0.10,0.15,0.78,-0.48,-1.60,-1.92,
2.095,-0.10,0.15,0.78,-0.55,-1.47,-1.80,
2.098,-0.10,0.15,0.78,-0.55,-1.47,-1.80,
2.099,-0.10,0.16,0.78,-0.55,-1.47,-1.80,
2.099,-0.10,0.16,0.78,-0.59,-1.37,-1.84,
2.102,-0.11,0.16,0.78,-0.59,-1.37,-1.84,
2.104,-0.11,0.16,0.78,-0.65,-1.26,-1.78,
2.105,-0.11,0.17,0.78,-0.65,-1.26,-1.78,
2.108,-0.12,0.18,0.78,-0.65,-1.26,-1.78,
2.11,-0.12,0.18,0.79,-0.65,-1.26,-1.78,
2.11,-0.12,0.18,0.79,-0.75,-1.15,-1.77,
2.112,-0.12,0.18,0.79,-0.75,-1.15,-1.77,
2.117,-0.12,0.19,0.79,-0.75,-1.15,-1.77,
2.117,-0.12,0.19,0.79,-0.81,-1.04,-1.73,
2.118,-0.12,0.19,0.79,-0.81,-1.04,-1.73,
2.119,-0.12,0.20,0.79,-0.81,-1.04,-1.73,
2.12,-0.12,0.20,0.79,-0.88,-0.98,-1.65,
2.122,-0.13,0.20,0.80,-0.88,-0.98,-1.65,
2.125,-0.13,0.20,0.80,-0.88,-0.98,-1.65,
2.125,-0.13,0.20,0.80,-0.88,-0.89,-1.64,
2.127,-0.13,0.20,0.78,-0.88,-0.89,-1.64,
2.13,-0.13,0.20,0.78,-0.93,-0.84,-1.61,
2.13,-0.12,0.21,0.78,-0.93,-0.84,-1.61,
2.137,-0.13,0.20,0.78,-0.93,-0.84,-1.61,
2.137,-0.12,0.21,0.77,-0.93,-0.84,-1.61,
2.137,-0.12,0.21,0.77,-0.91,-0.79,-1.76,
2.138,-0.12,0.21,0.76,-0.91,-0.79,-1.76,
2.139,-0.12,0.21,0.76,-0.91,-0.79,-1.76,
2.142,-0.12,0.21,0.76,-0.93,-0.78,-1.83,
2.143,-0.12,0.21,0.75,-0.93,-0.78,-1.83,
2.143,-0.12,0.20,0.75,-0.93,-0.78,-1.83,
2.144,-0.12,0.20,0.75,-0.91,-0.77,-1.95,
2.146,-0.12,0.20,0.75,-0.91,-0.77,-1.95,
2.148,-0.12,0.20,0.74,-0.91,-0.77,-1.95,
2.149,-0.12,0.20,0.74,-0.90,-0.80,-2.03,
2.15,-0.12,0.20,0.75,-0.90,-0.80,-2.03,
2.153,-0.12,0.20,0.75,-0.89,-0.81,-2.09,
2.153,-0.12,0.20,0.74,-0.89,-0.81,-2.09,
2.155,-0.13,0.21,0.75,-0.89,-0.81,-2.09,
2.159,-0.13,0.21,0.75,-0.89,-0.81,-2.09,
2.159,-0.13,0.21,0.75,-0.93,-0.82,-2.08,
2.161,-0.14,0.21,0.75,-0.93,-0.82,-2.08,
2.163,-0.15,0.21,0.76,-0.93,-0.82,-2.08,
2.164,-0.15,0.21,0.76,-1.00,-0.77,-2.02,
2.166,-0.16,0.21,0.77,-1.00,-0.77,-2.02,
2.168,-0.17,0.21,0.77,-1.00,-0.77,-2.02,
2.169,-0.17,0.21,0.77,-1.16,-0.75,-1.96,
2.171,-0.18,0.22,0.78,-1.16,-0.75,-1.96,
2.174,-0.18,0.22,0.79,-1.16,-0.75,-1.96,
2.175,-0.18,0.22,0.79,-1.30,-0.72,-1.82,
2.176,-0.19,0.21,0.81,-1.30,-0.72,-1.82,
2.179,-0.19,0.21,0.81,-1.46,-0.65,-1.64,
2.18,-0.20,0.21,0.82,-1.46,-0.65,-1.64,
2.183,-0.21,0.21,0.83,-1.46,-0.65,-1.64,
2.185,-0.21,0.21,0.83,-1.65,-0.65,-1.41,
2.185,-0.22,0.22,0.84,-1.65,-0.65,-1.41,
2.186,-0.22,0.21,0.86,-1.65,-0.65,-1.41,
2.188,-0.23,0.21,0.87,-1.65,-0.65,-1.41,
2.189,-0.23,0.21,0.87,-1.81,-0.62,-1.18,
2.191,-0.24,0.21,0.89,-1.81,-0.62,-1.18,
2.195,-0.24,0.21,0.89,-1.95,-0.61,-0.88,
2.195,-0.24,0.22,0.90,-1.95,-0.61,-0.88,
2.195,-0.24,0.21,0.91,-1.95,-0.61,-0.88,
2.199,-0.24,0.22,0.92,-1.95,-0.61,-0.88,
2.2,-0.24,0.22,0.92,-2.05,-0.58,-0.62,
2.2,-0.25,0.22,0.93,-2.05,-0.58,-0.62,
2.204,-0.25,0.22,0.93,-2.10,-0.54,-0.43,
2.204,-0.25,0.22,0.94,-2.10,-0.54,-0.43,
2.206,-0.25,0.22,0.96,-2.10,-0.54,-0.43,
2.209,-0.25,0.22,0.96,-2.10,-0.54,-0.43,
2.209,-0.25,0.22,0.96,-2.14,-0.46,-0.22,
2.211,-0.24,0.22,0.96,-2.14,-0.46,-0.22,
2.214,-0.24,0.22,0.96,-2.16,-0.48,-0.03,
2.214,-0.24,0.22,0.97,-2.16,-0.48,-0.03,
2.217,-0.24,0.22,0.98,-2.16,-0.48,-0.03,
2.22,-0.24,0.22,0.99,-2.16,-0.48,-0.03,
2.22,-0.24,0.22,0.99,-2.14,-0.45,0.08,
2.22,-0.23,0.22,0.99,-2.14,-0.45,0.08,
2.224,-0.23,0.22,0.99,-2.14,-0.45,0.08,
2.224,-0.23,0.22,0.99,-2.12,-0.44,0.21,
2.225,-0.23,0.23,0.99,-2.12,-0.44,0.21,
2.229,-0.23,0.23,0.99,-2.04,-0.40,0.28,
2.23,-0.22,0.23,0.99,-2.04,-0.40,0.28,
2.23,-0.22,0.23,0.99,-2.04,-0.40,0.28,
2.237,-0.22,0.24,0.99,-2.04,-0.40,0.28,
2.237,-0.22,0.24,0.99,-1.97,-0.33,0.30,
2.238,-0.22,0.24,0.98,-1.97,-0.33,0.30,
2.238,-0.22,0.24,0.98,-1.97,-0.33,0.30,
2.238,-0.22,0.24,0.98,-1.94,-0.29,0.26,
2.241,-0.22,0.24,0.98,-1.94,-0.29,0.26,
2.243,-0.22,0.24,0.97,-1.94,-0.29,0.26,
2.243,-0.22,0.24,0.97,-1.94,-0.24,0.18,
2.245,-0.22,0.24,0.97,-1.94,-0.24,0.18,
2.249,-0.21,0.24,0.97,-1.94,-0.24,0.18,
2.249,-0.21,0.24,0.97,-1.90,-0.23,0.14,
2.251,-0.20,0.24,0.96,-1.90,-0.23,0.14,
2.253,-0.20,0.24,0.96,-1.88,-0.23,0.07,
2.253,-0.21,0.24,0.95,-1.88,-0.23,0.07,
2.255,-0.20,0.24,0.94,-1.88,-0.23,0.07,
2.258,-0.20,0.24,0.93,-1.88,-0.23,0.07,
2.258,-0.20,0.24,0.93,-1.79,-0.20,-0.08,
2.26,-0.20,0.24,0.93,-1.79,-0.20,-0.08,
2.263,-0.20,0.24,0.93,-1.79,-0.20,-0.08,
2.264,-0.20,0.24,0.93,-1.76,-0.23,-0.24,
2.267,-0.21,0.24,0.92,-1.76,-0.23,-0.24,
2.268,-0.21,0.24,0.92,-1.74,-0.20,-0.31,
2.268,-0.21,0.24,0.92,-1.74,-0.20,-0.31,
2.27,-0.21,0.24,0.92,-1.74,-0.20,-0.31,
2.273,-0.22,0.24,0.92,-1.74,-0.20,-0.31,
2.273,-0.22,0.24,0.92,-1.84,-0.22,-0.40,
2.275,-0.22,0.24,0.92,-1.84,-0.22,-0.40,
2.278,-0.22,0.24,0.92,-1.88,-0.17,-0.41,
2.278,-0.22,0.24,0.92,-1.88,-0.17,-0.41,
2.28,-0.22,0.24,0.92,-1.88,-0.17,-0.41,
2.283,-0.23,0.24,0.93,-1.88,-0.17,-0.41,
2.283,-0.23,0.24,0.93,-1.92,-0.18,-0.39,
2.285,-0.22,0.25,0.92,-1.92,-0.18,-0.39,
2.287,-0.22,0.25,0.92,-1.99,-0.18,-0.36,
2.287,-0.23,0.24,0.92,-1.99,-0.18,-0.36,
2.29,-0.22,0.24,0.93,-1.99,-0.18,-0.36,
2.293,-0.22,0.24,0.92,-1.99,-0.18,-0.36,
2.293,-0.22,0.24,0.92,-1.99,-0.16,-0.40,
2.295,-0.22,0.24,0.92,-1.99,-0.16,-0.40,
2.298,-0.21,0.25,0.91,-1.99,-0.16,-0.40,
2.298,-0.21,0.25,0.91,-1.94,-0.14,-0.37,
2.301,-0.21,0.25,0.91,-1.94,-0.14,-0.37,
2.303,-0.21,0.25,0.91,-1.86,-0.13,-0.48,
2.304,-0.20,0.25,0.92,-1.86,-0.13,-0.48,
2.308,-0.20,0.25,0.91,-1.86,-0.13,-0.48,
2.308,-0.19,0.25,0.91,-1.86,-0.13,-0.48,
2.309,-0.19,0.25,0.91,-1.80,-0.11,-0.48,
2.309,-0.19,0.25,0.91,-1.80,-0.11,-0.48,
2.312,-0.18,0.25,0.91,-1.80,-0.11,-0.48,
2.313,-0.18,0.25,0.91,-1.67,-0.03,-0.51,
2.315,-0.17,0.25,0.91,-1.67,-0.03,-0.51,
2.317,-0.17,0.25,0.91,-1.67,-0.03,-0.51,
2.317,-0.17,0.25,0.91,-1.59,-0.09,-0.53,
2.319,-0.17,0.25,0.91,-1.59,-0.09,-0.53,
2.323,-0.17,0.25,0.91,-1.59,-0.09,-0.53,
2.324,-0.17,0.25,0.91,-1.48,-0.08,-0.53,
2.324,-0.16,0.25,0.92,-1.48,-0.08,-0.53,
2.327,-0.16,0.25,0.92,-1.48,-0.08,-0.53,
2.328,-0.16,0.25,0.92,-1.48,-0.05,-0.50,
2.329,-0.16,0.25,0.92,-1.48,-0.05,-0.50,
2.336,-0.15,0.25,0.92,-1.48,-0.05,-0.50,
2.336,-0.15,0.25,0.92,-1.41,-0.07,-0.44,
2.336,-0.15,0.25,0.93,-1.41,-0.07,-0.44,
2.336,-0.15,0.25,0.93,-1.41,-0.07,-0.44,
2.337,-0.15,0.25,0.93,-1.35,-0.04,-0.40,
2.34,-0.14,0.25,0.94,-1.35,-0.04,-0.40,
2.342,-0.14,0.25,0.94,-1.35,-0.04,-0.40,
2.342,-0.14,0.25,0.94,-1.27,-0.05,-0.34,
2.344,-0.14,0.25,0.93,-1.27,-0.05,-0.34,
2.347,-0.14,0.25,0.93,-1.27,-0.05,-0.34,
2.347,-0.14,0.25,0.93,-1.25,-0.05,-0.26,
2.351,-0.14,0.25,0.93,-1.25,-0.05,-0.26,
2.352,-0.14,0.25,0.93,-1.21,-0.05,-0.32,
2.352,-0.13,0.25,0.93,-1.21,-0.05,-0.32,
2.354,-0.14,0.25,0.93,-1.21,-0.05,-0.32,
2.356,-0.13,0.26,0.92,-1.21,-0.05,-0.32,
2.357,-0.13,0.26,0.92,-1.18,-0.02,-0.31,
2.359,-0.13,0.26,0.92,-1.18,-0.02,-0.31,
2.362,-0.13,0.26,0.92,-1.18,-0.02,-0.31,
2.362,-0.13,0.26,0.92,-1.17,0.04,-0.39,
2.364,-0.13,0.26,0.92,-1.17,0.04,-0.39,
2.366,-0.13,0.26,0.92,-1.17,0.04,-0.39,
2.367,-0.13,0.26,0.92,-1.11,0.08,-0.43,
2.368,-0.12,0.26,0.92,-1.11,0.08,-0.43,
2.371,-0.12,0.27,0.92,-1.11,0.08,-0.43,
2.372,-0.12,0.27,0.92,-1.11,0.13,-0.45,
2.374,-0.12,0.27,0.91,-1.11,0.13,-0.45,
2.377,-0.12,0.27,0.91,-1.04,0.18,-0.48,
2.377,-0.11,0.27,0.91,-1.04,0.18,-0.48,
2.379,-0.11,0.27,0.91,-1.04,0.18,-0.48,
2.381,-0.10,0.27,0.90,-1.04,0.18,-0.48,
2.381,-0.10,0.27,0.90,-0.97,0.25,-0.50,
2.384,-0.10,0.27,0.90,-0.97,0.25,-0.50,
2.387,-0.10,0.27,0.91,-0.97,0.25,-0.50,
2.387,-0.10,0.27,0.91,-0.89,0.23,-0.59,
2.389,-0.09,0.26,0.90,-0.89,0.23,-0.59,
2.391,-0.10,0.26,0.91,-0.89,0.23,-0.59,
2.391,-0.10,0.26,0.91,-0.85,0.19,-0.60,
2.394,-0.10,0.25,0.91,-0.85,0.19,-0.60,
2.396,-0.11,0.24,0.92,-0.85,0.19,-0.60,
2.397,-0.11,0.24,0.92,-0.84,0.13,-0.57,
2.399,-0.11,0.24,0.92,-0.84,0.13,-0.57,
2.401,-0.11,0.24,0.92,-0.93,0.00,-0.48,
2.402,-0.11,0.24,0.93,-0.93,0.00,-0.48,
2.403,-0.11,0.23,0.94,-0.93,0.00,-0.48,
2.406,-0.12,0.23,0.95,-0.93,0.00,-0.48,
2.406,-0.12,0.23,0.95,-0.98,-0.07,-0.40,
2.409,-0.12,0.22,0.96,-0.98,-0.07,-0.40,
2.411,-0.12,0.22,0.97,-0.98,-0.07,-0.40,
2.411,-0.12,0.22,0.97,-1.03,-0.13,-0.17,
2.414,-0.13,0.22,0.98,-1.03,-0.13,-0.17,
2.416,-0.13,0.21,1.00,-1.03,-0.13,-0.17,
2.417,-0.13,0.21,1.00,-1.14,-0.24,-0.01,
2.418,-0.13,0.21,1.01,-1.14,-0.24,-0.01,
2.421,-0.13,0.21,1.01,-1.20,-0.30,0.24,
2.421,-0.13,0.20,1.02,-1.20,-0.30,0.24,
2.423,-0.13,0.19,1.02,-1.20,-0.30,0.24,
2.426,-0.13,0.19,1.02,-1.25,-0.38,0.47,
2.426,-0.13,0.19,1.03,-1.25,-0.38,0.47,
2.428,-0.12,0.19,1.03,-1.25,-0.38,0.47,
2.431,-0.12,0.19,1.04,-1.25,-0.38,0.47,
2.431,-0.12,0.19,1.04,-1.25,-0.46,0.59,
2.434,-0.12,0.19,1.04,-1.25,-0.46,0.59,
2.436,-0.11,0.19,1.04,-1.25,-0.46,0.59,
2.436,-0.11,0.19,1.04,-1.17,-0.46,0.67,
2.438,-0.10,0.20,1.04,-1.17,-0.46,0.67,
2.441,-0.10,0.20,1.04,-1.13,-0.45,0.74,
2.441,-0.10,0.20,1.04,-1.13,-0.45,0.74,
2.443,-0.09,0.20,1.04,-1.13,-0.45,0.74,
2.446,-0.09,0.21,1.04,-1.13,-0.45,0.74,
2.446,-0.09,0.21,1.04,-1.00,-0.41,0.73,
2.448,-0.09,0.21,1.04,-1.00,-0.41,0.73,
2.455,-0.09,0.21,1.04,-0.89,-0.33,0.71,
2.455,-0.08,0.22,1.03,-0.89,-0.33,0.71,
2.456,-0.08,0.22,1.03,-0.89,-0.33,0.71,
2.456,-0.08,0.22,1.02,-0.89,-0.33,0.71,
2.456,-0.08,0.22,1.02,-0.86,-0.26,0.65,
2.458,-0.08,0.23,1.01,-0.86,-0.26,0.65,
2.46,-0.07,0.24,1.01,-0.86,-0.26,0.65,
2.461,-0.07,0.24,1.01,-0.85,-0.19,0.53,
2.463,-0.08,0.24,1.00,-0.85,-0.19,0.53,
2.468,-0.08,0.25,1.00,-0.85,-0.19,0.53,
2.468,-0.08,0.25,1.00,-0.80,-0.07,0.41,
2.469,-0.07,0.25,1.00,-0.80,-0.07,0.41,
2.472,-0.07,0.25,0.99,-0.80,-0.07,0.41,
2.472,-0.07,0.25,0.99,-0.82,0.02,0.34,
2.473,-0.07,0.25,0.99,-0.82,0.02,0.34,
2.476,-0.07,0.25,0.99,-0.78,0.04,0.29,
2.476,-0.06,0.25,0.99,-0.78,0.04,0.29,
2.478,-0.06,0.25,0.98,-0.78,0.04,0.29,
2.481,-0.06,0.24,0.97,-0.78,0.04,0.29,
2.481,-0.06,0.24,0.97,-0.72,0.07,0.20,
2.484,-0.06,0.24,0.97,-0.72,0.07,0.20,
2.486,-0.05,0.24,0.97,-0.72,0.07,0.20,
2.487,-0.05,0.24,0.97,-0.69,0.02,0.12,
2.488,-0.05,0.24,0.97,-0.69,0.02,0.12,
2.49,-0.05,0.24,0.97,-0.69,0.02,0.12,
2.491,-0.05,0.24,0.97,-0.65,-0.00,0.05,
2.493,-0.04,0.24,0.97,-0.65,-0.00,0.05,
2.495,-0.04,0.24,0.96,-0.65,-0.00,0.05,
2.496,-0.04,0.24,0.96,-0.60,-0.02,0.04,
2.498,-0.04,0.24,0.96,-0.60,-0.02,0.04,
2.5,-0.04,0.24,0.96,-0.58,-0.06,0.01,
2.501,-0.04,0.24,0.96,-0.58,-0.06,0.01,
2.503,-0.03,0.24,0.97,-0.58,-0.06,0.01,
2.505,-0.03,0.24,0.96,-0.58,-0.06,0.01,
2.505,-0.03,0.24,0.96,-0.55,-0.06,-0.04,
2.508,-0.03,0.25,0.96,-0.55,-0.06,-0.04,
2.51,-0.03,0.25,0.96,-0.52,-0.04,-0.02,
2.511,-0.02,0.25,0.96,-0.52,-0.04,-0.02,
2.513,-0.02,0.25,0.95,-0.52,-0.04,-0.02,
2.515,-0.02,0.25,0.95,-0.52,-0.04,-0.02,
2.516,-0.02,0.25,0.95,-0.44,-0.01,-0.05,
2.519,-0.02,0.25,0.95,-0.44,-0.01,-0.05,
2.52,-0.01,0.26,0.94,-0.44,-0.01,-0.05,
2.521,-0.01,0.26,0.94,-0.41,0.04,-0.12,
2.522,-0.01,0.26,0.93,-0.41,0.04,-0.12,
2.526,-0.01,0.26,0.93,-0.40,0.06,-0.16,
2.526,-0.01,0.26,0.94,-0.40,0.06,-0.16,
2.528,-0.01,0.26,0.94,-0.40,0.06,-0.16,
2.53,-0.01,0.27,0.95,-0.40,0.06,-0.16,
2.531,-0.01,0.27,0.95,-0.37,0.12,-0.26,
2.533,-0.01,0.27,0.94,-0.37,0.12,-0.26,
2.537,-0.01,0.27,0.94,-0.39,0.17,-0.19,
2.538,-0.01,0.27,0.93,-0.39,0.17,-0.19,
2.538,-0.01,0.27,0.93,-0.39,0.17,-0.19,
2.54,-0.00,0.27,0.94,-0.39,0.17,-0.19,
2.54,-0.00,0.27,0.94,-0.36,0.20,-0.30,
2.542,-0.00,0.27,0.93,-0.36,0.20,-0.30,
2.546,-0.00,0.27,0.93,-0.32,0.18,-0.26,
2.546,-0.01,0.27,0.94,-0.32,0.18,-0.26,
2.548,-0.01,0.26,0.94,-0.32,0.18,-0.26,
2.551,-0.01,0.26,0.94,-0.36,0.17,-0.28,
2.552,-0.01,0.26,0.94,-0.36,0.17,-0.28,
2.552,-0.01,0.26,0.94,-0.36,0.17,-0.28,
2.555,-0.01,0.26,0.93,-0.36,0.17,-0.28,
2.555,-0.01,0.26,0.93,-0.37,0.14,-0.27,
2.558,-0.01,0.26,0.94,-0.37,0.14,-0.27,
2.561,-0.01,0.25,0.94,-0.37,0.14,-0.27,
2.561,-0.01,0.25,0.94,-0.41,0.10,-0.27,
2.562,-0.01,0.26,0.94,-0.41,0.10,-0.27,
2.565,-0.01,0.26,0.94,-0.41,0.10,-0.27,
2.565,-0.01,0.26,0.94,-0.45,0.07,-0.23,
2.575,-0.02,0.26,0.95,-0.45,0.07,-0.23,
2.577,-0.01,0.26,0.95,-0.45,0.07,-0.23,
2.577,-0.01,0.26,0.95,-0.45,0.12,-0.21,
2.577,-0.01,0.26,0.95,-0.45,0.12,-0.21,
2.577,-0.01,0.26,0.95,-0.46,0.15,-0.13,
2.578,-0.01,0.26,0.96,-0.46,0.15,-0.13,
2.578,-0.01,0.26,0.96,-0.46,0.15,-0.13,
2.58,-0.00,0.27,0.96,-0.46,0.15,-0.13,
2.58,-0.00,0.27,0.96,-0.40,0.17,-0.09,
2.582,-0.00,0.26,0.96,-0.40,0.17,-0.09,
2.585,0.01,0.27,0.97,-0.40,0.17,-0.09,
2.585,0.01,0.27,0.97,-0.37,0.22,-0.01,
2.593,0.01,0.27,0.96,-0.37,0.22,-0.01,
2.593,0.00,0.27,0.97,-0.37,0.22,-0.01,
2.594,0.00,0.27,0.97,-0.31,0.22,0.01,
2.594,0.01,0.27,0.97,-0.31,0.22,0.01,
2.594,0.02,0.27,0.96,-0.31,0.22,0.01,
2.594,0.02,0.27,0.96,-0.28,0.25,-0.00,
2.597,0.02,0.27,0.96,-0.28,0.25,-0.00,
2.599,0.02,0.27,0.96,-0.20,0.26,-0.02,
2.599,0.02,0.27,0.95,-0.20,0.26,-0.02,
2.602,0.02,0.27,0.95,-0.20,0.26,-0.02,
2.607,0.02,0.26,0.94,-0.20,0.26,-0.02,
2.607,0.02,0.26,0.94,-0.16,0.29,-0.10,
2.608,0.02,0.26,0.95,-0.16,0.29,-0.10,
2.609,0.02,0.26,0.95,-0.16,0.29,-0.10,
2.61,0.02,0.26,0.95,-0.13,0.24,-0.19,
2.612,0.02,0.26,0.95,-0.13,0.24,-0.19,
2.614,0.02,0.26,0.95,-0.13,0.24,-0.19,
2.614,0.02,0.26,0.95,-0.13,0.23,-0.16,
2.616,0.02,0.25,0.95,-0.13,0.23,-0.16,
2.619,0.03,0.26,0.96,-0.13,0.23,-0.16,
2.62,0.03,0.26,0.96,-0.15,0.21,-0.18,
2.621,0.03,0.26,0.99,-0.15,0.21,-0.18,
2.625,0.03,0.26,0.99,-0.14,0.19,-0.14,
2.625,0.04,0.26,1.01,-0.14,0.19,-0.14,
2.627,0.05,0.26,1.04,-0.14,0.19,-0.14,
2.629,0.05,0.26,1.04,-0.04,0.23,0.30,
2.629,0.07,0.26,1.06,-0.04,0.23,0.30,
2.631,0.08,0.25,1.07,-0.04,0.23,0.30,
2.633,0.08,0.25,1.08,-0.04,0.23,0.30,
2.637,0.08,0.25,1.08,0.18,0.21,0.79,
2.637,0.09,0.25,1.09,0.18,0.21,0.79,
2.639,0.09,0.25,1.09,0.18,0.21,0.79,
2.639,0.09,0.25,1.09,0.40,0.12,1.08,
2.641,0.09,0.25,1.09,0.40,0.12,1.08,
2.644,0.09,0.26,1.09,0.40,0.12,1.08,
2.644,0.09,0.26,1.09,0.49,0.15,1.22,
2.646,0.08,0.26,1.08,0.49,0.15,1.22,
2.649,0.08,0.26,1.08,0.47,0.18,1.17,
2.649,0.07,0.25,1.08,0.47,0.18,1.17,
2.656,0.07,0.25,1.09,0.47,0.18,1.17,
2.656,0.06,0.24,1.09,0.47,0.18,1.17,
2.657,0.06,0.24,1.09,0.33,0.16,1.15,
2.657,0.05,0.23,1.08,0.33,0.16,1.15,
2.658,0.04,0.22,1.07,0.33,0.16,1.15,
2.659,0.04,0.22,1.07,0.24,0.04,1.18,
2.661,0.04,0.22,1.06,0.24,0.04,1.18,
2.664,0.03,0.21,1.06,0.24,0.04,1.18,
2.664,0.03,0.21,1.06,0.06,-0.13,1.09,
2.666,0.02,0.20,1.05,0.06,-0.13,1.09,
2.671,0.01,0.20,1.05,0.06,-0.13,1.09,
2.672,0.01,0.20,1.05,-0.12,-0.29,0.92,
2.672,0.00,0.20,1.05,-0.12,-0.29,0.92,
2.674,0.00,0.20,1.05,-0.31,-0.39,0.82,
2.674,-0.00,0.20,1.04,-0.31,-0.39,0.82,
2.676,-0.01,0.20,1.04,-0.31,-0.39,0.82,
2.679,-0.01,0.21,1.03,-0.31,-0.39,0.82,
2.679,-0.01,0.21,1.03,-0.43,-0.42,0.77,
2.681,-0.01,0.22,1.03,-0.43,-0.42,0.77,
2.685,-0.02,0.22,1.02,-0.43,-0.42,0.77,
2.686,-0.02,0.22,1.02,-0.50,-0.39,0.68,
2.686,-0.02,0.22,1.01,-0.50,-0.39,0.68,
2.69,-0.02,0.22,1.01,-0.56,-0.29,0.56,
2.69,-0.02,0.22,1.00,-0.56,-0.29,0.56,
2.69,-0.03,0.23,0.99,-0.56,-0.29,0.56,
2.694,-0.03,0.23,0.98,-0.56,-0.29,0.56,
2.694,-0.03,0.23,0.98,-0.64,-0.25,0.37,
2.695,-0.03,0.23,0.98,-0.64,-0.25,0.37,
2.699,-0.03,0.23,0.98,-0.70,-0.22,0.18,
2.699,-0.03,0.23,0.97,-0.70,-0.22,0.18,
2.701,-0.02,0.23,0.97,-0.70,-0.22,0.18,
2.705,-0.02,0.23,0.96,-0.70,-0.22,0.18,
2.705,-0.02,0.23,0.96,-0.73,-0.21,0.10,
2.705,-0.01,0.23,0.95,-0.73,-0.21,0.10,
2.709,-0.01,0.23,0.96,-0.73,-0.21,0.10,
2.71,-0.01,0.23,0.96,-0.62,-0.21,-0.02,
2.711,-0.01,0.23,0.96,-0.62,-0.21,-0.02,
2.714,-0.00,0.23,0.95,-0.62,-0.21,-0.02,
2.714,-0.00,0.23,0.95,-0.54,-0.20,-0.10,
2.716,0.01,0.23,0.95,-0.54,-0.20,-0.10,
2.719,0.01,0.23,0.95,-0.54,-0.20,-0.10,
2.719,0.01,0.23,0.95,-0.46,-0.18,-0.13,
2.72,0.01,0.24,0.95,-0.46,-0.18,-0.13,
2.724,0.01,0.24,0.95,-0.33,-0.15,-0.18,
2.724,0.02,0.24,0.95,-0.33,-0.15,-0.18,
2.726,0.02,0.24,0.94,-0.33,-0.15,-0.18,
2.729,0.03,0.25,0.95,-0.33,-0.15,-0.18,
2.729,0.03,0.25,0.95,-0.27,-0.09,-0.18,
2.731,0.03,0.25,0.95,-0.27,-0.09,-0.18,
2.736,0.03,0.25,0.96,-0.27,-0.09,-0.18,
2.737,0.03,0.25,0.96,-0.17,-0.01,-0.20,
2.737,0.04,0.26,0.97,-0.17,-0.01,-0.20,
2.739,0.04,0.26,0.97,-0.17,-0.01,-0.20,
2.739,0.04,0.26,0.97,-0.10,0.06,-0.13,
2.74,0.05,0.26,0.99,-0.10,0.06,-0.13,
2.743,0.05,0.26,0.99,-0.01,0.12,0.03,
2.743,0.05,0.25,0.99,-0.01,0.12,0.03,
2.745,0.04,0.25,0.99,-0.01,0.12,0.03,
2.749,0.04,0.25,0.99,0.08,0.11,0.20,
2.749,0.04,0.26,1.00,0.08,0.11,0.20,
2.751,0.04,0.25,1.00,0.08,0.11,0.20,
2.754,0.04,0.25,1.01,0.08,0.11,0.20,
2.754,0.04,0.25,1.01,0.02,0.11,0.29,
2.755,0.04,0.25,1.01,0.02,0.11,0.29,
2.758,0.02,0.24,1.01,0.02,0.11,0.29,
2.759,0.02,0.24,1.01,-0.03,0.08,0.37,
2.761,0.02,0.24,1.00,-0.03,0.08,0.37,
2.763,0.02,0.24,1.01,-0.03,0.08,0.37,
2.763,0.02,0.24,1.01,-0.11,0.03,0.39,
2.766,0.01,0.24,1.01,-0.11,0.03,0.39,
2.768,0.02,0.23,1.00,-0.11,0.03,0.39,
2.77,0.02,0.23,1.00,-0.22,0.01,0.37,
2.77,0.02,0.23,1.00,-0.22,0.01,0.37,
2.772,0.02,0.23,1.00,-0.26,-0.08,0.39,
2.773,0.01,0.23,1.00,-0.26,-0.08,0.39,
2.774,0.02,0.23,0.99,-0.26,-0.08,0.39,
2.777,0.02,0.23,0.99,-0.26,-0.08,0.39,
2.777,0.02,0.23,0.99,-0.27,-0.11,0.30,
2.779,0.01,0.23,0.99,-0.27,-0.11,0.30,
2.782,0.01,0.24,0.98,-0.27,-0.11,0.30,
2.783,0.01,0.24,0.98,-0.26,-0.11,0.26,
2.791,0.02,0.24,0.98,-0.26,-0.11,0.26,
2.792,0.02,0.24,0.98,-0.26,-0.11,0.26,
2.793,0.02,0.24,0.98,-0.31,-0.08,0.19,
2.793,0.02,0.24,0.97,-0.31,-0.08,0.19,
2.793,0.02,0.25,0.97,-0.31,-0.08,0.19,
2.794,0.02,0.25,0.97,-0.29,-0.04,0.13,
2.794,0.03,0.25,0.96,-0.29,-0.04,0.13,
2.797,0.03,0.25,0.96,-0.28,-0.02,0.00,
2.797,0.03,0.25,0.96,-0.28,-0.02,0.00,
2.801,0.03,0.25,0.96,-0.28,-0.02,0.00,
2.812,0.04,0.25,0.96,-0.28,-0.02,0.00,
2.812,0.04,0.25,0.96,-0.18,0.01,-0.07,
2.813,0.04,0.25,0.95,-0.18,0.01,-0.07,
2.813,0.04,0.25,0.96,-0.18,0.01,-0.07,
2.813,0.04,0.25,0.96,-0.13,0.01,-0.06,
2.813,0.04,0.25,0.96,-0.13,0.01,-0.06,
2.813,0.04,0.25,0.96,-0.13,0.01,-0.06,
2.813,0.04,0.25,0.96,-0.10,0.03,-0.10,
2.815,0.04,0.25,0.97,-0.10,0.03,-0.10,
2.82,0.05,0.25,0.97,-0.10,0.03,-0.10,
2.82,0.05,0.25,0.97,-0.07,0.04,-0.05,
2.82,0.06,0.25,0.98,-0.07,0.04,-0.05,
2.822,0.06,0.25,0.98,-0.04,0.07,0.01,
2.822,0.06,0.26,0.98,-0.04,0.07,0.01,
2.825,0.06,0.26,0.98,-0.04,0.07,0.01,
2.828,0.06,0.26,0.98,-0.04,0.07,0.01,
2.829,0.06,0.26,0.98,0.05,0.09,0.13,
2.829,0.05,0.26,0.98,0.05,0.09,0.13,
2.832,0.05,0.26,0.97,0.05,0.09,0.13,
2.832,0.05,0.26,0.97,0.06,0.12,0.12,
2.834,0.05,0.26,0.98,0.06,0.12,0.12,
2.837,0.05,0.26,0.97,0.06,0.12,0.12,
2.837,0.05,0.26,0.97,-0.01,0.12,0.10,
2.839,0.05,0.26,0.97,-0.01,0.12,0.10,
2.842,0.05,0.25,0.96,-0.01,0.12,0.10,
2.842,0.05,0.25,0.96,-0.04,0.11,0.07,
2.844,0.06,0.25,0.96,-0.04,0.11,0.07,
2.847,0.06,0.25,0.96,-0.01,0.06,-0.01,
2.847,0.06,0.25,0.96,-0.01,0.06,-0.01,
2.849,0.07,0.25,0.96,-0.01,0.06,-0.01,
2.852,0.07,0.25,0.96,-0.01,0.06,-0.01,
2.852,0.07,0.25,0.96,0.05,0.02,-0.02,
2.854,0.07,0.25,0.96,0.05,0.02,-0.02,
2.857,0.07,0.26,0.97,0.05,0.02,-0.02,
2.857,0.07,0.26,0.97,0.12,0.04,-0.04,
2.859,0.07,0.26,0.97,0.12,0.04,-0.04,
2.862,0.07,0.25,0.97,0.12,0.04,-0.04,
2.862,0.07,0.25,0.97,0.13,0.07,-0.01,
2.864,0.08,0.25,0.96,0.13,0.07,-0.01,
2.867,0.08,0.26,0.97,0.13,0.07,-0.01,
2.867,0.08,0.26,0.97,0.17,0.04,0.03,
2.869,0.08,0.26,0.97,0.17,0.04,0.03,
2.872,0.08,0.25,0.97,0.17,0.04,0.03,
2.873,0.08,0.25,0.97,0.21,0.05,0.02,
2.874,0.08,0.26,0.97,0.21,0.05,0.02,
2.877,0.08,0.26,0.97,0.21,0.05,0.02,
2.877,0.08,0.26,0.97,0.25,0.04,0.02,
2.879,0.08,0.25,0.97,0.25,0.04,0.02,
2.882,0.08,0.25,0.98,0.25,0.04,0.02,
2.882,0.08,0.25,0.98,0.23,0.06,0.04,
2.884,0.08,0.25,0.97,0.23,0.06,0.04,
2.886,0.08,0.25,0.97,0.20,0.02,0.08,
2.886,0.08,0.25,0.97,0.20,0.02,0.08,
2.889,0.08,0.24,0.98,0.20,0.02,0.08,
2.892,0.08,0.24,0.98,0.20,0.02,0.08,
2.892,0.08,0.24,0.98,0.17,-0.02,0.08,
2.894,0.07,0.24,0.98,0.17,-0.02,0.08,
2.897,0.07,0.24,0.98,0.17,-0.08,0.16,
2.897,0.07,0.24,0.98,0.17,-0.08,0.16,
2.899,0.07,0.24,0.98,0.17,-0.08,0.16,
2.907,0.06,0.24,0.99,0.17,-0.08,0.16,
2.907,0.06,0.24,0.99,0.10,-0.11,0.14,
2.908,0.06,0.24,0.98,0.10,-0.11,0.14,
2.908,0.06,0.24,0.99,0.10,-0.11,0.14,
2.908,0.06,0.24,0.99,0.03,-0.13,0.18,
2.908,0.06,0.24,0.99,0.03,-0.13,0.18,
2.911,0.05,0.24,0.99,0.03,-0.13,0.18,
2.911,0.05,0.24,0.99,-0.03,-0.15,0.19,
2.913,0.05,0.24,0.99,-0.03,-0.15,0.19,
2.916,0.05,0.23,0.98,-0.03,-0.15,0.19,
2.916,0.05,0.23,0.98,-0.08,-0.13,0.23,
2.919,0.04,0.24,1.00,-0.08,-0.13,0.23,
2.921,0.04,0.24,1.00,-0.15,-0.17,0.23,
2.922,0.04,0.24,0.99,-0.15,-0.17,0.23,
2.923,0.04,0.24,0.96,-0.15,-0.17,0.23,
2.927,0.03,0.25,0.91,-0.15,-0.17,0.23,
2.927,0.03,0.25,0.91,-0.20,-0.14,0.28,
2.929,0.04,0.27,0.85,-0.20,-0.14,0.28,
2.931,0.07,0.28,0.82,-0.20,-0.14,0.28,
2.931,0.07,0.28,0.82,-0.29,-0.03,-0.27,
2.934,0.09,0.29,0.82,-0.29,-0.03,-0.27,
2.937,0.09,0.28,0.84,-0.29,-0.03,-0.27,
2.938,0.09,0.28,0.84,-0.09,0.22,-1.26,
2.938,0.09,0.28,0.87,-0.09,0.22,-1.26,
2.941,0.09,0.27,0.90,-0.09,0.22,-1.26,
2.942,0.09,0.27,0.90,0.26,0.32,-1.33,
2.944,0.09,0.26,0.94,0.26,0.32,-1.33,
2.945,0.09,0.26,0.94,0.28,0.24,-0.77,
2.945,0.08,0.25,0.96,0.28,0.24,-0.77,
2.949,0.07,0.24,0.98,0.28,0.24,-0.77,
2.951,0.06,0.24,0.99,0.28,0.24,-0.77,
2.951,0.06,0.24,0.99,0.19,0.06,-0.11,
2.954,0.05,0.23,1.01,0.19,0.06,-0.11,
2.955,0.05,0.24,1.02,0.19,0.06,-0.11,
2.955,0.05,0.24,1.02,0.01,-0.09,0.26,
2.958,0.05,0.24,1.03,0.01,-0.09,0.26,
2.961,0.06,0.25,1.05,0.01,-0.09,0.26,
2.961,0.06,0.25,1.05,-0.10,-0.12,0.48,
2.963,0.07,0.25,1.06,-0.10,-0.12,0.48,
2.966,0.08,0.26,1.08,-0.10,-0.12,0.48,
2.966,0.08,0.26,1.08,-0.01,-0.02,0.76,
2.967,0.09,0.26,1.08,-0.01,-0.02,0.76,
2.97,0.09,0.26,1.08,0.17,0.08,1.03,
2.97,0.10,0.27,1.08,0.17,0.08,1.03,
2.973,0.10,0.26,1.07,0.17,0.08,1.03,
2.976,0.10,0.26,1.06,0.17,0.08,1.03,
2.976,0.10,0.26,1.06,0.35,0.17,1.12,
2.978,0.09,0.25,1.05,0.35,0.17,1.12,
2.98,0.09,0.25,1.04,0.35,0.17,1.12,
2.98,0.09,0.25,1.04,0.37,0.14,0.99,
2.982,0.08,0.24,1.03,0.37,0.14,0.99,
2.99,0.08,0.24,1.01,0.37,0.14,0.99,
2.991,0.08,0.24,1.01,0.31,0.04,0.75,
2.991,0.08,0.23,1.01,0.31,0.04,0.75,
2.991,0.07,0.22,1.00,0.31,0.04,0.75,
2.991,0.07,0.22,1.00,0.21,-0.09,0.53,
2.993,0.07,0.22,0.99,0.21,-0.09,0.53,
2.995,0.07,0.22,0.99,0.16,-0.25,0.36,
2.996,0.09,0.21,0.98,0.16,-0.25,0.36,
2.997,0.09,0.21,0.97,0.16,-0.25,0.36,
3.0,0.08,0.22,0.96,0.16,-0.25,0.36,
3.001,0.08,0.22,0.96,0.20,-0.33,0.16,
3.017,0.07,0.23,0.95,0.20,-0.33,0.16,
3.017,0.06,0.23,0.96,0.20,-0.33,0.16,
3.018,0.06,0.23,0.96,0.26,-0.36,-0.04,
3.018,0.06,0.23,0.95,0.26,-0.36,-0.04,
3.018,0.05,0.23,0.95,0.26,-0.36,-0.04,
3.018,0.05,0.23,0.95,0.07,-0.25,-0.14,
3.019,0.04,0.23,0.95,0.07,-0.25,-0.14,
3.019,0.03,0.23,0.95,0.07,-0.25,-0.14,
3.019,0.03,0.23,0.95,-0.06,-0.24,-0.15,
3.019,0.03,0.22,0.95,-0.06,-0.24,-0.15,
3.02,0.03,0.23,0.96,-0.06,-0.24,-0.15,
3.02,0.03,0.23,0.96,-0.25,-0.25,-0.20,
3.022,0.03,0.22,0.96,-0.25,-0.25,-0.20,
3.027,0.04,0.22,0.96,-0.25,-0.25,-0.20,
3.027,0.04,0.22,0.96,-0.28,-0.28,-0.12,
3.028,0.04,0.22,0.97,-0.28,-0.28,-0.12,
