
time,gFx,gFy,gFz,ax,ay,az,
0.007,0.08,0.14,0.95,0.02,0.12,-0.36,
0.007,0.08,0.14,0.95,0.00,0.13,-0.43,
0.008,0.08,0.14,0.95,0.00,0.13,-0.43,
0.008,0.08,0.14,0.96,0.00,0.13,-0.43,
0.008,0.08,0.14,0.96,-0.05,0.12,-0.39,
0.008,0.07,0.14,0.96,-0.05,0.12,-0.39,
0.009,0.07,0.13,0.96,-0.05,0.12,-0.39,
0.009,0.07,0.13,0.96,-0.06,0.13,-0.34,
0.009,0.07,0.13,0.96,-0.06,0.13,-0.34,
0.009,0.07,0.13,0.97,-0.06,0.13,-0.34,
0.009,0.07,0.13,0.97,-0.16,0.12,-0.24,
0.013,0.07,0.13,0.97,-0.16,0.12,-0.24,
0.013,0.07,0.13,0.97,-0.16,0.12,-0.24,
0.014,0.07,0.13,0.97,-0.17,0.11,-0.19,
0.016,0.08,0.13,0.97,-0.17,0.11,-0.19,
0.019,0.08,0.13,0.97,-0.17,0.11,-0.19,
0.019,0.08,0.13,0.97,-0.10,0.07,-0.15,
0.021,0.08,0.13,0.96,-0.10,0.07,-0.15,
0.025,0.08,0.13,0.97,-0.10,0.07,-0.15,
0.025,0.08,0.13,0.97,-0.03,0.06,-0.20,
0.026,0.07,0.13,0.98,-0.03,0.06,-0.20,
0.028,0.07,0.13,0.98,-0.03,0.06,-0.20,
0.028,0.07,0.13,0.98,-0.06,0.07,-0.22,
0.031,0.08,0.13,0.98,-0.06,0.07,-0.22,
0.033,0.07,0.13,0.99,-0.06,0.07,-0.22,
0.033,0.07,0.13,0.99,-0.09,0.11,-0.11,
0.035,0.07,0.12,0.99,-0.09,0.11,-0.11,
0.038,0.07,0.12,1.00,-0.09,0.11,-0.11,
0.038,0.07,0.12,1.00,-0.10,0.10,-0.06,
0.04,0.07,0.12,1.00,-0.10,0.10,-0.06,
0.044,0.07,0.12,1.01,-0.10,0.10,-0.06,
0.044,0.07,0.12,1.01,-0.15,0.06,0.09,
0.045,0.07,0.12,1.02,-0.15,0.06,0.09,
0.049,0.08,0.12,1.03,-0.15,0.06,0.09,
0.049,0.08,0.12,1.03,-0.13,0.01,0.20,
0.051,0.08,0.12,1.04,-0.13,0.01,0.20,
0.053,0.08,0.12,1.05,-0.13,0.01,0.20,
0.054,0.08,0.12,1.05,-0.07,0.01,0.37,
0.059,0.08,0.12,1.05,-0.07,0.01,0.37,
0.059,0.09,0.12,1.06,-0.07,0.01,0.37,
0.06,0.09,0.12,1.06,-0.01,0.01,0.53,
0.06,0.09,0.11,1.06,-0.01,0.01,0.53,
0.063,0.09,0.11,1.06,-0.01,0.01,0.53,
0.063,0.09,0.11,1.06,0.05,0.02,0.62,
0.065,0.08,0.12,1.06,0.05,0.02,0.62,
0.068,0.08,0.12,1.06,0.05,0.02,0.62,
0.069,0.08,0.12,1.06,0.06,-0.03,0.67,
0.071,0.09,0.12,1.06,0.06,-0.03,0.67,
0.086,0.09,0.13,1.06,0.06,-0.03,0.67,
0.087,0.09,0.13,1.06,0.04,0.04,0.70,
0.087,0.09,0.12,1.05,0.04,0.04,0.70,
0.087,0.10,0.12,1.04,0.04,0.04,0.70,
0.087,0.10,0.12,1.04,0.08,0.06,0.64,
0.087,0.11,0.12,1.03,0.08,0.06,0.64,
0.087,0.12,0.12,1.02,0.08,0.06,0.64,
0.087,0.12,0.12,1.02,0.18,0.06,0.56,
0.087,0.11,0.13,1.01,0.18,0.06,0.56,
0.088,0.12,0.13,0.99,0.18,0.06,0.56,
0.088,0.12,0.13,0.99,0.35,0.04,0.31,
0.091,0.11,0.13,0.98,0.35,0.04,0.31,
0.092,0.11,0.14,0.97,0.35,0.04,0.31,
0.093,0.11,0.14,0.97,0.37,0.09,0.07,
0.095,0.10,0.13,0.96,0.37,0.09,0.07,
0.098,0.10,0.13,0.95,0.37,0.09,0.07,
0.098,0.10,0.13,0.95,0.34,0.14,-0.17,
0.1,0.09,0.13,0.95,0.34,0.14,-0.17,
0.103,0.09,0.13,0.96,0.34,0.14,-0.17,
0.103,0.09,0.13,0.96,0.26,0.12,-0.32,
0.105,0.09,0.13,0.95,0.26,0.12,-0.32,
0.108,0.09,0.13,0.95,0.26,0.12,-0.32,
0.108,0.09,0.13,0.95,0.14,0.09,-0.35,
0.111,0.08,0.12,0.95,0.14,0.09,-0.35,
0.112,0.08,0.12,0.95,0.14,0.09,-0.35,
0.113,0.08,0.12,0.95,0.13,0.05,-0.43,
0.115,0.08,0.12,0.95,0.13,0.05,-0.43,
0.118,0.08,0.11,0.95,0.13,0.05,-0.43,
0.118,0.08,0.11,0.95,0.10,-0.02,-0.38,
0.12,0.08,0.12,0.96,0.10,-0.02,-0.38,
0.122,0.08,0.12,0.96,0.10,-0.02,-0.38,
0.122,0.08,0.12,0.96,0.08,-0.07,-0.39,
0.125,0.08,0.11,0.97,0.08,-0.07,-0.39,
0.127,0.08,0.11,0.97,0.08,-0.07,-0.39,
0.128,0.08,0.11,0.97,0.08,-0.08,-0.31,
0.13,0.07,0.11,0.98,0.08,-0.08,-0.31,
0.133,0.08,0.11,0.99,0.08,-0.08,-0.31,
0.133,0.08,0.11,0.99,0.09,-0.12,-0.16,
0.135,0.08,0.11,1.00,0.09,-0.12,-0.16,
0.138,0.08,0.11,1.00,0.09,-0.12,-0.16,
0.138,0.08,0.11,1.00,0.07,-0.13,-0.02,
0.14,0.08,0.11,1.01,0.07,-0.13,-0.02,
0.142,0.07,0.11,1.02,0.07,-0.13,-0.02,
0.142,0.07,0.11,1.02,0.10,-0.16,0.06,
0.146,0.07,0.11,1.02,0.10,-0.16,0.06,
0.148,0.08,0.11,1.02,0.10,-0.16,0.06,
0.148,0.08,0.11,1.02,0.08,-0.14,0.24,
0.15,0.08,0.10,1.02,0.08,-0.14,0.24,
0.153,0.08,0.10,1.02,0.08,-0.14,0.24,
0.153,0.08,0.10,1.02,0.08,-0.16,0.30,
0.155,0.08,0.10,1.03,0.08,-0.16,0.30,
0.158,0.09,0.10,1.02,0.08,-0.16,0.30,
0.161,0.09,0.10,1.02,0.16,-0.19,0.32,
0.162,0.09,0.10,1.03,0.16,-0.19,0.32,
0.162,0.09,0.10,1.03,0.16,-0.19,0.32,
0.163,0.09,0.10,1.03,0.20,-0.21,0.33,
0.165,0.10,0.09,1.03,0.20,-0.21,0.33,
0.167,0.09,0.09,1.03,0.20,-0.21,0.33,
0.167,0.09,0.09,1.03,0.28,-0.24,0.36,
0.169,0.09,0.10,1.03,0.28,-0.24,0.36,
0.172,0.10,0.09,1.03,0.28,-0.24,0.36,
0.172,0.10,0.09,1.03,0.35,-0.26,0.36,
0.175,0.09,0.09,1.03,0.35,-0.26,0.36,
0.179,0.09,0.09,1.03,0.35,-0.26,0.36,
0.179,0.09,0.09,1.03,0.33,-0.24,0.39,
0.179,0.10,0.09,1.03,0.33,-0.24,0.39,
0.182,0.10,0.10,1.02,0.33,-0.24,0.39,
0.182,0.10,0.10,1.02,0.33,-0.26,0.36,
0.184,0.11,0.10,1.01,0.33,-0.26,0.36,
0.187,0.11,0.10,1.01,0.43,-0.23,0.28,
0.187,0.11,0.10,1.02,0.43,-0.23,0.28,
0.195,0.11,0.10,1.01,0.43,-0.23,0.28,
0.196,0.11,0.10,1.01,0.43,-0.23,0.28,
0.196,0.11,0.10,1.01,0.48,-0.22,0.19,
0.201,0.11,0.10,1.00,0.48,-0.22,0.19,
0.201,0.11,0.11,0.99,0.48,-0.22,0.19,
0.201,0.11,0.11,0.99,0.52,-0.22,0.12,
0.202,0.11,0.11,1.00,0.52,-0.22,0.12,
0.202,0.11,0.11,0.99,0.52,-0.22,0.12,
0.203,0.11,0.11,0.99,0.57,-0.14,0.04,
0.204,0.11,0.11,0.99,0.57,-0.14,0.04,
0.206,0.11,0.12,0.98,0.57,-0.14,0.04,
0.207,0.11,0.12,0.98,0.60,-0.10,0.00,
0.212,0.11,0.12,0.98,0.60,-0.10,0.00,
0.213,0.11,0.12,0.98,0.59,-0.06,-0.06,
0.213,0.11,0.12,0.98,0.59,-0.06,-0.06,
0.214,0.12,0.13,0.98,0.59,-0.06,-0.06,
0.216,0.11,0.13,0.97,0.59,-0.06,-0.06,
0.216,0.11,0.13,0.97,0.59,0.01,-0.13,
0.219,0.12,0.14,0.97,0.59,0.01,-0.13,
0.221,0.12,0.14,0.97,0.59,0.01,-0.13,
0.221,0.12,0.14,0.97,0.65,0.07,-0.19,
0.223,0.12,0.15,0.96,0.65,0.07,-0.19,
0.227,0.12,0.14,0.96,0.65,0.07,-0.19,
0.227,0.12,0.14,0.96,0.69,0.15,-0.22,
0.229,0.12,0.14,0.96,0.69,0.15,-0.22,
0.231,0.13,0.15,0.96,0.69,0.15,-0.22,
0.232,0.13,0.15,0.96,0.72,0.21,-0.33,
0.234,0.13,0.15,0.96,0.72,0.21,-0.33,
0.236,0.14,0.15,0.96,0.72,0.21,-0.33,
0.236,0.14,0.15,0.96,0.79,0.22,-0.31,
0.239,0.14,0.15,0.96,0.79,0.22,-0.31,
0.241,0.15,0.15,0.97,0.79,0.22,-0.31,
0.242,0.15,0.15,0.97,0.88,0.26,-0.34,
0.243,0.15,0.15,0.97,0.88,0.26,-0.34,
0.246,0.15,0.16,0.98,0.88,0.26,-0.34,
0.247,0.15,0.16,0.98,0.95,0.28,-0.29,
0.249,0.15,0.15,0.99,0.95,0.28,-0.29,
0.251,0.16,0.16,0.99,0.95,0.28,-0.29,
0.251,0.16,0.16,0.99,0.99,0.29,-0.14,
0.254,0.17,0.16,0.99,0.99,0.29,-0.14,
0.258,0.17,0.16,1.00,0.99,0.29,-0.14,
0.258,0.17,0.16,1.00,1.10,0.30,-0.06,
0.259,0.18,0.16,1.01,1.10,0.30,-0.06,
0.262,0.18,0.16,1.02,1.10,0.30,-0.06,
0.263,0.18,0.16,1.02,1.22,0.33,0.02,
0.263,0.18,0.15,1.02,1.22,0.33,0.02,
0.266,0.18,0.15,1.02,1.22,0.33,0.02,
0.267,0.18,0.15,1.02,1.30,0.33,0.18,
0.269,0.19,0.15,1.03,1.30,0.33,0.18,
0.271,0.18,0.15,1.03,1.30,0.33,0.18,
0.271,0.18,0.15,1.03,1.32,0.27,0.29,
0.276,0.19,0.15,1.03,1.32,0.27,0.29,
0.276,0.19,0.15,1.03,1.32,0.27,0.29,
0.276,0.19,0.15,1.03,1.38,0.25,0.36,
0.278,0.19,0.14,1.04,1.38,0.25,0.36,
0.282,0.19,0.14,1.04,1.38,0.25,0.36,
0.282,0.19,0.14,1.04,1.40,0.22,0.36,
0.284,0.18,0.13,1.03,1.40,0.22,0.36,
0.286,0.18,0.13,1.03,1.40,0.22,0.36,
0.287,0.18,0.13,1.03,1.42,0.17,0.44,
0.289,0.18,0.13,1.03,1.42,0.17,0.44,
0.291,0.17,0.13,1.02,1.42,0.17,0.44,
0.292,0.17,0.13,1.02,1.38,0.08,0.38,
0.293,0.17,0.13,1.02,1.38,0.08,0.38,
0.296,0.16,0.13,1.02,1.38,0.08,0.38,
0.296,0.16,0.13,1.02,1.35,0.07,0.28,
0.299,0.16,0.13,1.00,1.35,0.07,0.28,
0.301,0.15,0.13,1.00,1.35,0.07,0.28,
0.301,0.15,0.13,1.00,1.26,0.07,0.22,
0.304,0.15,0.13,0.99,1.26,0.07,0.22,
0.306,0.15,0.14,0.99,1.26,0.07,0.22,
0.306,0.15,0.14,0.99,1.19,0.03,0.06,
0.312,0.14,0.14,0.97,1.19,0.03,0.06,
0.313,0.14,0.14,0.97,1.12,0.03,-0.06,
0.313,0.14,0.14,0.96,1.12,0.03,-0.06,
0.313,0.13,0.14,0.95,1.12,0.03,-0.06,
0.315,0.14,0.14,0.93,1.12,0.03,-0.06,
0.316,0.14,0.14,0.93,1.07,0.10,-0.26,
0.318,0.13,0.14,0.93,1.07,0.10,-0.26,
0.321,0.13,0.14,0.92,1.07,0.10,-0.26,
0.321,0.13,0.14,0.92,1.03,0.09,-0.51,
0.324,0.13,0.15,0.90,1.03,0.09,-0.51,
0.326,0.13,0.15,0.89,1.03,0.09,-0.51,
0.327,0.13,0.15,0.89,1.00,0.12,-0.70,
0.328,0.12,0.15,0.87,1.00,0.12,-0.70,
0.33,0.12,0.15,0.87,1.00,0.12,-0.70,
0.331,0.12,0.15,0.87,1.01,0.14,-0.96,
0.333,0.12,0.15,0.85,1.01,0.14,-0.96,
0.336,0.12,0.16,0.84,1.01,0.14,-0.96,
0.336,0.12,0.16,0.84,0.97,0.15,-1.19,
0.338,0.12,0.15,0.83,0.97,0.15,-1.19,
0.342,0.12,0.16,0.82,0.97,0.15,-1.19,
0.343,0.12,0.16,0.82,0.98,0.17,-1.39,
0.343,0.12,0.16,0.81,0.98,0.17,-1.39,
0.346,0.12,0.15,0.80,0.98,0.17,-1.39,
0.346,0.12,0.15,0.80,0.98,0.16,-1.60,
0.348,0.12,0.15,0.79,0.98,0.16,-1.60,
0.35,0.12,0.16,0.79,0.98,0.16,-1.60,
0.351,0.12,0.16,0.79,0.99,0.15,-1.77,
0.353,0.12,0.16,0.77,0.99,0.15,-1.77,
0.355,0.12,0.15,0.77,0.99,0.15,-1.77,
0.355,0.12,0.15,0.77,1.01,0.14,-1.92,
0.357,0.12,0.15,0.77,1.01,0.14,-1.92,
0.361,0.12,0.15,0.76,1.01,0.14,-1.92,
0.361,0.12,0.15,0.76,1.02,0.12,-2.06,
0.363,0.12,0.15,0.76,1.02,0.12,-2.06,
0.366,0.12,0.15,0.76,1.02,0.09,-2.15,
0.366,0.11,0.15,0.76,1.02,0.09,-2.15,
0.368,0.11,0.15,0.76,1.02,0.09,-2.15,
0.371,0.11,0.15,0.75,1.02,0.09,-2.15,
0.371,0.11,0.15,0.75,0.97,0.08,-2.14,
0.373,0.11,0.15,0.75,0.97,0.08,-2.14,
0.377,0.11,0.15,0.76,0.97,0.08,-2.14,
0.377,0.11,0.15,0.76,0.96,0.08,-2.18,
0.378,0.12,0.16,0.76,0.96,0.08,-2.18,
0.38,0.11,0.16,0.76,0.96,0.08,-2.18,
0.38,0.11,0.16,0.76,0.92,0.10,-2.15,
0.383,0.11,0.16,0.76,0.92,0.10,-2.15,
0.386,0.11,0.16,0.76,0.96,0.13,-2.14,
0.386,0.11,0.16,0.76,0.96,0.13,-2.14,
0.388,0.11,0.16,0.76,0.96,0.13,-2.14,
0.39,0.11,0.16,0.76,0.96,0.13,-2.14,
0.39,0.11,0.16,0.76,0.93,0.13,-2.11,
0.394,0.11,0.16,0.76,0.93,0.13,-2.11,
0.396,0.11,0.16,0.76,0.93,0.13,-2.11,
0.396,0.11,0.16,0.76,0.91,0.15,-2.11,
0.398,0.11,0.17,0.75,0.91,0.15,-2.11,
0.4,0.11,0.16,0.75,0.91,0.15,-2.11,
0.401,0.11,0.16,0.75,0.93,0.19,-2.10,
0.403,0.11,0.16,0.75,0.93,0.19,-2.10,
0.405,0.11,0.16,0.75,0.93,0.19,-2.10,
0.406,0.11,0.16,0.75,0.92,0.22,-2.12,
0.412,0.12,0.16,0.74,0.92,0.22,-2.12,
0.413,0.12,0.16,0.74,0.92,0.22,-2.12,
0.413,0.12,0.16,0.74,0.93,0.19,-2.17,
0.413,0.12,0.17,0.74,0.93,0.19,-2.17,
0.414,0.12,0.17,0.74,0.93,0.19,-2.17,
0.415,0.12,0.17,0.74,0.98,0.19,-2.23,
0.417,0.11,0.16,0.74,0.98,0.19,-2.23,
0.42,0.11,0.17,0.74,0.98,0.19,-2.23,
0.42,0.11,0.17,0.74,0.96,0.24,-2.22,
0.423,0.11,0.17,0.74,0.96,0.24,-2.22,
0.425,0.11,0.17,0.73,0.96,0.24,-2.22,
0.425,0.11,0.17,0.73,0.91,0.23,-2.18,
0.427,0.10,0.17,0.74,0.91,0.23,-2.18,
0.429,0.10,0.17,0.74,0.88,0.29,-2.24,
0.43,0.10,0.17,0.74,0.88,0.29,-2.24,
0.432,0.09,0.17,0.74,0.88,0.29,-2.24,
0.435,0.09,0.17,0.74,0.88,0.29,-2.24,
0.435,0.09,0.17,0.74,0.77,0.32,-2.16,
0.437,0.09,0.17,0.74,0.77,0.32,-2.16,
0.44,0.09,0.17,0.74,0.77,0.32,-2.16,
0.44,0.09,0.17,0.74,0.73,0.32,-2.16,
0.443,0.10,0.17,0.74,0.73,0.32,-2.16,
0.445,0.10,0.16,0.73,0.73,0.32,-2.16,
0.446,0.10,0.16,0.73,0.72,0.29,-2.13,
0.448,0.09,0.16,0.74,0.72,0.29,-2.13,
0.449,0.09,0.15,0.74,0.72,0.29,-2.13,
0.45,0.09,0.15,0.74,0.74,0.25,-2.18,
0.452,0.09,0.15,0.74,0.74,0.25,-2.18,
0.454,0.09,0.15,0.73,0.74,0.25,-2.18,
0.455,0.09,0.15,0.73,0.68,0.18,-2.13,
0.457,0.09,0.15,0.74,0.68,0.18,-2.13,
0.46,0.09,0.15,0.74,0.69,0.16,-2.18,
0.46,0.09,0.15,0.73,0.69,0.16,-2.18,
0.463,0.10,0.14,0.72,0.69,0.16,-2.18,
0.465,0.10,0.14,0.72,0.69,0.16,-2.18,
0.465,0.10,0.14,0.72,0.67,0.13,-2.19,
0.466,0.10,0.13,0.72,0.67,0.13,-2.19,
0.469,0.10,0.13,0.72,0.76,0.06,-2.32,
0.469,0.11,0.13,0.71,0.76,0.06,-2.32,
0.472,0.11,0.12,0.70,0.76,0.06,-2.32,
0.478,0.11,0.13,0.70,0.76,0.06,-2.32,
0.479,0.11,0.13,0.70,0.78,-0.00,-2.33,
0.479,0.11,0.12,0.70,0.78,-0.00,-2.33,
0.48,0.11,0.12,0.70,0.83,-0.07,-2.48,
0.48,0.11,0.12,0.70,0.83,-0.07,-2.48,
0.481,0.11,0.12,0.69,0.83,-0.07,-2.48,
0.484,0.10,0.12,0.69,0.83,-0.07,-2.48,
0.484,0.10,0.12,0.69,0.79,-0.10,-2.48,
0.486,0.10,0.12,0.69,0.79,-0.10,-2.48,
0.49,0.08,0.12,0.70,0.79,-0.10,-2.48,
0.49,0.08,0.12,0.70,0.74,-0.11,-2.56,
0.495,0.08,0.12,0.69,0.74,-0.11,-2.56,
0.496,0.08,0.13,0.70,0.74,-0.11,-2.56,
0.497,0.08,0.13,0.70,0.58,-0.08,-2.47,
0.497,0.06,0.13,0.70,0.58,-0.08,-2.47,
0.499,0.06,0.13,0.71,0.58,-0.08,-2.47,
0.499,0.06,0.13,0.71,0.45,-0.01,-2.48,
0.501,0.06,0.13,0.71,0.45,-0.01,-2.48,
0.504,0.05,0.14,0.71,0.45,-0.01,-2.48,
0.505,0.05,0.14,0.71,0.27,0.03,-2.36,
0.506,0.05,0.14,0.71,0.27,0.03,-2.36,
0.508,0.05,0.14,0.71,0.27,0.03,-2.36,
0.509,0.05,0.14,0.71,0.19,0.09,-2.33,
0.512,0.04,0.15,0.71,0.19,0.09,-2.33,
0.513,0.04,0.15,0.72,0.19,0.09,-2.33,
0.514,0.04,0.15,0.72,0.14,0.18,-2.31,
0.516,0.03,0.15,0.72,0.14,0.18,-2.31,
0.519,0.03,0.15,0.72,0.14,0.18,-2.31,
0.519,0.03,0.15,0.72,0.03,0.24,-2.22,
0.521,0.03,0.15,0.73,0.03,0.24,-2.22,
0.524,0.02,0.15,0.73,0.03,0.24,-2.22,
0.524,0.02,0.15,0.73,-0.08,0.27,-2.15,
0.528,0.02,0.15,0.73,-0.08,0.27,-2.15,
0.528,0.02,0.14,0.73,-0.08,0.27,-2.15,
0.528,0.02,0.14,0.73,-0.15,0.27,-2.08,
0.531,0.02,0.13,0.73,-0.15,0.27,-2.08,
0.534,0.02,0.13,0.74,-0.15,0.27,-2.08,
0.534,0.02,0.13,0.74,-0.20,0.25,-2.04,
0.536,0.02,0.13,0.74,-0.20,0.25,-2.04,
0.538,0.03,0.12,0.74,-0.20,0.25,-2.04,
0.538,0.03,0.12,0.74,-0.22,0.13,-2.00,
0.543,0.03,0.11,0.73,-0.22,0.13,-2.00,
0.543,0.02,0.10,0.73,-0.22,0.13,-2.00,
0.543,0.02,0.10,0.73,-0.24,0.05,-1.98,
0.545,0.02,0.09,0.73,-0.24,0.05,-1.98,
0.548,0.02,0.09,0.73,-0.24,0.05,-1.98,
0.548,0.02,0.09,0.73,-0.26,-0.10,-2.02,
0.551,0.02,0.08,0.74,-0.26,-0.10,-2.02,
0.553,0.02,0.08,0.73,-0.26,-0.10,-2.02,
0.555,0.02,0.08,0.73,-0.33,-0.24,-2.03,
0.555,0.02,0.07,0.73,-0.33,-0.24,-2.03,
0.559,0.01,0.07,0.73,-0.33,-0.24,-2.03,
0.56,0.01,0.07,0.73,-0.37,-0.33,-1.96,
0.561,0.01,0.06,0.74,-0.37,-0.33,-1.96,
0.563,-0.00,0.06,0.74,-0.37,-0.33,-1.96,
0.563,-0.00,0.06,0.74,-0.45,-0.43,-1.95,
0.565,-0.02,0.05,0.74,-0.45,-0.43,-1.95,
0.568,-0.02,0.05,0.75,-0.45,-0.43,-1.95,
0.568,-0.02,0.05,0.75,-0.61,-0.50,-1.87,
0.571,-0.04,0.05,0.75,-0.61,-0.50,-1.87,
0.573,-0.05,0.04,0.76,-0.61,-0.50,-1.87,
0.573,-0.05,0.04,0.76,-0.86,-0.59,-1.83,
0.576,-0.06,0.04,0.76,-0.86,-0.59,-1.83,
0.578,-0.07,0.04,0.76,-0.86,-0.59,-1.83,
0.578,-0.07,0.04,0.76,-1.15,-0.61,-1.73,
0.58,-0.08,0.04,0.77,-1.15,-0.61,-1.73,
0.583,-0.09,0.04,0.77,-1.15,-0.61,-1.73,
0.585,-0.09,0.04,0.77,-1.36,-0.62,-1.68,
0.585,-0.09,0.03,0.77,-1.36,-0.62,-1.68,
0.588,-0.10,0.03,0.77,-1.36,-0.62,-1.68,
0.588,-0.10,0.03,0.77,-1.54,-0.64,-1.59,
0.591,-0.11,0.03,0.78,-1.54,-0.64,-1.59,
0.593,-0.12,0.03,0.79,-1.54,-0.64,-1.59,
0.594,-0.12,0.03,0.79,-1.68,-0.64,-1.53,
0.595,-0.12,0.03,0.80,-1.68,-0.64,-1.53,
0.599,-0.12,0.02,0.81,-1.68,-0.64,-1.53,
0.599,-0.12,0.02,0.81,-1.85,-0.65,-1.42,
0.6,-0.13,0.02,0.82,-1.85,-0.65,-1.42,
0.602,-0.13,0.02,0.83,-1.85,-0.65,-1.42,
0.603,-0.13,0.02,0.83,-1.96,-0.68,-1.21,
0.605,-0.13,0.01,0.84,-1.96,-0.68,-1.21,
0.609,-0.13,0.01,0.84,-1.96,-0.68,-1.21,
0.61,-0.13,0.01,0.84,-2.04,-0.72,-0.99,
0.611,-0.14,0.00,0.85,-2.04,-0.72,-0.99,
0.613,-0.14,-0.00,0.85,-2.04,-0.72,-0.99,
0.613,-0.14,-0.00,0.85,-2.08,-0.74,-0.85,
0.615,-0.15,-0.01,0.86,-2.08,-0.74,-0.85,
0.618,-0.14,-0.01,0.87,-2.08,-0.74,-0.85,
0.618,-0.14,-0.01,0.87,-2.15,-0.80,-0.72,
0.62,-0.14,-0.02,0.87,-2.15,-0.80,-0.72,
0.623,-0.13,-0.03,0.88,-2.15,-0.80,-0.72,
0.623,-0.13,-0.03,0.88,-2.20,-0.85,-0.59,
0.629,-0.13,-0.04,0.88,-2.20,-0.85,-0.59,
0.63,-0.12,-0.04,0.88,-2.20,-0.85,-0.59,
0.63,-0.12,-0.04,0.88,-2.11,-0.94,-0.50,
0.63,-0.11,-0.05,0.89,-2.11,-0.94,-0.50,
0.632,-0.10,-0.07,0.91,-2.11,-0.94,-0.50,
0.632,-0.10,-0.07,0.91,-2.00,-1.08,-0.44,
0.634,-0.09,-0.08,0.90,-2.00,-1.08,-0.44,
0.637,-0.08,-0.08,0.90,-2.00,-1.08,-0.44,
0.637,-0.08,-0.08,0.90,-1.85,-1.22,-0.27,
0.639,-0.08,-0.09,0.92,-1.85,-1.22,-0.27,
0.643,-0.07,-0.10,0.93,-1.85,-1.22,-0.27,
0.643,-0.07,-0.10,0.93,-1.71,-1.35,-0.21,
0.644,-0.07,-0.11,0.93,-1.71,-1.35,-0.21,
0.647,-0.07,-0.11,0.94,-1.71,-1.35,-0.21,
0.648,-0.07,-0.11,0.94,-1.63,-1.50,-0.02,
0.649,-0.07,-0.12,0.95,-1.63,-1.50,-0.02,
0.652,-0.07,-0.12,0.96,-1.63,-1.50,-0.02,
0.654,-0.07,-0.12,0.96,-1.56,-1.58,0.06,
0.654,-0.07,-0.12,0.95,-1.56,-1.58,0.06,
0.657,-0.07,-0.12,0.96,-1.56,-1.58,0.06,
0.657,-0.07,-0.12,0.96,-1.63,-1.63,0.26,
0.659,-0.08,-0.12,0.97,-1.63,-1.63,0.26,
0.661,-0.08,-0.12,0.98,-1.63,-1.63,0.26,
0.662,-0.08,-0.12,0.98,-1.67,-1.60,0.31,
0.665,-0.08,-0.12,0.98,-1.67,-1.60,0.31,
0.666,-0.08,-0.13,0.98,-1.67,-1.60,0.31,
0.667,-0.08,-0.13,0.98,-1.75,-1.57,0.46,
0.669,-0.08,-0.12,0.99,-1.75,-1.57,0.46,
0.672,-0.08,-0.12,0.99,-1.75,-1.57,0.46,
0.672,-0.08,-0.12,0.99,-1.76,-1.54,0.52,
0.675,-0.08,-0.11,1.00,-1.76,-1.54,0.52,
0.677,-0.08,-0.11,1.00,-1.76,-1.54,0.52,
0.678,-0.08,-0.11,1.00,-1.77,-1.44,0.59,
0.679,-0.09,-0.10,1.00,-1.77,-1.44,0.59,
0.681,-0.09,-0.10,1.01,-1.77,-1.44,0.59,
0.682,-0.09,-0.10,1.01,-1.83,-1.31,0.72,
0.684,-0.10,-0.09,1.01,-1.83,-1.31,0.72,
0.686,-0.10,-0.09,1.02,-1.83,-1.31,0.72,
0.687,-0.10,-0.09,1.02,-1.92,-1.18,0.75,
0.689,-0.10,-0.09,1.02,-1.92,-1.18,0.75,
0.692,-0.11,-0.08,1.02,-1.92,-1.18,0.75,
0.693,-0.11,-0.08,1.02,-2.00,-1.04,0.88,
0.694,-0.10,-0.08,1.02,-2.00,-1.04,0.88,
0.696,-0.11,-0.08,1.02,-2.00,-1.04,0.88,
0.696,-0.11,-0.08,1.02,-2.04,-0.94,0.92,
0.699,-0.10,-0.08,1.02,-2.04,-0.94,0.92,
0.701,-0.10,-0.08,1.02,-2.04,-0.94,0.92,
0.702,-0.10,-0.08,1.02,-2.04,-0.85,0.93,
0.704,-0.11,-0.08,1.02,-2.04,-0.85,0.93,
0.706,-0.11,-0.08,1.02,-2.03,-0.80,0.91,
0.707,-0.10,-0.08,1.02,-2.03,-0.80,0.91,
0.709,-0.10,-0.08,1.02,-2.03,-0.80,0.91,
0.711,-0.10,-0.09,1.03,-2.03,-0.80,0.91,
0.711,-0.10,-0.09,1.03,-2.04,-0.77,0.87,
0.713,-0.11,-0.09,1.04,-2.04,-0.77,0.87,
0.716,-0.10,-0.09,1.05,-2.04,-0.77,0.87,
0.716,-0.10,-0.09,1.05,-2.01,-0.78,0.95,
0.719,-0.10,-0.10,1.05,-2.01,-0.78,0.95,
0.721,-0.09,-0.11,1.05,-2.01,-0.78,0.95,
0.721,-0.09,-0.11,1.05,-2.06,-0.76,1.13,
0.723,-0.09,-0.13,1.04,-2.06,-0.76,1.13,
0.727,-0.09,-0.15,1.04,-2.06,-0.76,1.13,
0.727,-0.09,-0.15,1.04,-1.97,-0.92,1.19,
0.728,-0.08,-0.17,1.03,-1.97,-0.92,1.19,
0.731,-0.08,-0.19,1.03,-1.97,-0.92,1.19,
0.731,-0.08,-0.19,1.03,-1.90,-1.21,1.09,
0.733,-0.08,-0.20,1.02,-1.90,-1.21,1.09,
0.736,-0.09,-0.21,1.01,-1.90,-1.21,1.09,
0.736,-0.09,-0.21,1.01,-1.83,-1.53,0.98,
0.738,-0.09,-0.23,1.01,-1.83,-1.53,0.98,
0.75,-0.10,-0.23,1.01,-1.83,-1.53,0.98,
0.751,-0.10,-0.23,1.01,-1.88,-1.78,0.86,
0.752,-0.11,-0.24,1.01,-1.88,-1.78,0.86,
0.752,-0.12,-0.25,1.01,-1.88,-1.78,0.86,
0.753,-0.12,-0.25,1.01,-2.01,-1.98,0.78,
0.753,-0.13,-0.25,1.01,-2.01,-1.98,0.78,
0.753,-0.15,-0.25,1.01,-2.01,-1.98,0.78,
0.754,-0.15,-0.25,1.01,-2.23,-2.06,0.78,
0.754,-0.16,-0.25,1.01,-2.23,-2.06,0.78,
0.756,-0.17,-0.25,1.01,-2.23,-2.06,0.78,
0.756,-0.17,-0.25,1.01,-2.44,-2.09,0.79,
0.763,-0.18,-0.25,1.01,-2.44,-2.09,0.79,
0.764,-0.19,-0.25,1.01,-2.44,-2.09,0.79,
0.764,-0.19,-0.25,1.01,-2.73,-2.10,0.79,
0.765,-0.19,-0.25,1.00,-2.73,-2.10,0.79,
0.765,-0.20,-0.25,1.01,-2.73,-2.10,0.79,
0.766,-0.20,-0.25,1.01,-2.92,-2.08,0.79,
0.768,-0.20,-0.24,1.01,-2.92,-2.08,0.79,
0.77,-0.20,-0.24,1.01,-3.03,-2.00,0.75,
0.771,-0.21,-0.23,1.02,-3.03,-2.00,0.75,
0.773,-0.21,-0.23,1.03,-3.03,-2.00,0.75,
0.776,-0.21,-0.22,1.04,-3.03,-2.00,0.75,
0.776,-0.21,-0.22,1.04,-3.13,-1.85,0.86,
0.778,-0.21,-0.21,1.06,-3.13,-1.85,0.86,
0.78,-0.21,-0.21,1.07,-3.13,-1.85,0.86,
0.78,-0.21,-0.21,1.07,-3.20,-1.71,1.08,
0.783,-0.21,-0.21,1.08,-3.20,-1.71,1.08,
0.785,-0.21,-0.21,1.09,-3.20,-1.71,1.08,
0.786,-0.21,-0.21,1.09,-3.28,-1.54,1.34,
0.788,-0.19,-0.21,1.10,-3.28,-1.54,1.34,
0.79,-0.18,-0.21,1.10,-3.28,-1.54,1.34,
0.79,-0.18,-0.21,1.10,-3.25,-1.53,1.55,
0.794,-0.18,-0.21,1.12,-3.25,-1.53,1.55,
0.795,-0.17,-0.21,1.12,-3.25,-1.53,1.55,
0.797,-0.17,-0.21,1.12,-3.07,-1.51,1.69,
0.798,-0.16,-0.22,1.14,-3.07,-1.51,1.69,
0.8,-0.16,-0.22,1.14,-2.93,-1.48,1.86,
0.801,-0.16,-0.22,1.15,-2.93,-1.48,1.86,
0.803,-0.15,-0.22,1.15,-2.93,-1.48,1.86,
0.805,-0.14,-0.23,1.15,-2.93,-1.48,1.86,
0.806,-0.14,-0.23,1.15,-2.82,-1.49,2.09,
0.808,-0.15,-0.24,1.15,-2.82,-1.49,2.09,
0.811,-0.15,-0.24,1.16,-2.82,-1.49,2.09,
0.811,-0.15,-0.24,1.16,-2.74,-1.53,2.20,
0.813,-0.15,-0.25,1.16,-2.74,-1.53,2.20,
0.815,-0.16,-0.25,1.18,-2.74,-1.53,2.20,
0.816,-0.16,-0.25,1.18,-2.76,-1.63,2.21,
0.821,-0.17,-0.26,1.20,-2.76,-1.63,2.21,
0.821,-0.18,-0.26,1.20,-2.76,-1.63,2.21,
0.822,-0.18,-0.26,1.20,-2.89,-1.68,2.36,
0.823,-0.18,-0.27,1.21,-2.89,-1.68,2.36,
0.825,-0.19,-0.28,1.23,-2.89,-1.68,2.36,
0.826,-0.19,-0.28,1.23,-3.08,-1.77,2.65,
0.828,-0.19,-0.29,1.23,-3.08,-1.77,2.65,
0.83,-0.19,-0.29,1.23,-3.20,-1.91,2.82,
0.831,-0.19,-0.30,1.23,-3.20,-1.91,2.82,
0.833,-0.19,-0.31,1.23,-3.20,-1.91,2.82,
0.836,-0.19,-0.31,1.23,-3.25,-2.04,2.91,
0.836,-0.18,-0.32,1.23,-3.25,-2.04,2.91,
0.839,-0.18,-0.33,1.24,-3.25,-2.04,2.91,
0.841,-0.18,-0.34,1.24,-3.25,-2.04,2.91,
0.841,-0.18,-0.34,1.24,-3.26,-2.19,2.96,
0.849,-0.18,-0.33,1.24,-3.26,-2.19,2.96,
0.849,-0.18,-0.34,1.23,-3.26,-2.19,2.96,
0.85,-0.18,-0.34,1.23,-3.23,-2.31,3.01,
0.85,-0.17,-0.34,1.24,-3.23,-2.31,3.01,
0.85,-0.18,-0.34,1.24,-3.23,-2.31,3.01,
0.85,-0.18,-0.34,1.24,-3.19,-2.32,2.98,
0.853,-0.18,-0.34,1.24,-3.19,-2.32,2.98,
0.855,-0.18,-0.33,1.24,-3.19,-2.32,2.98,
0.856,-0.18,-0.33,1.24,-3.16,-2.30,3.01,
0.858,-0.17,-0.33,1.23,-3.16,-2.30,3.01,
0.863,-0.17,-0.33,1.23,-3.16,-2.30,3.01,
0.863,-0.17,-0.33,1.23,-3.20,-2.24,2.97,
0.864,-0.17,-0.33,1.23,-3.20,-2.24,2.97,
0.865,-0.17,-0.33,1.22,-3.20,-2.24,2.97,
0.865,-0.17,-0.33,1.22,-3.18,-2.17,2.92,
0.868,-0.16,-0.33,1.22,-3.18,-2.17,2.92,
0.87,-0.15,-0.34,1.22,-3.18,-2.17,2.92,
0.871,-0.15,-0.34,1.22,-3.13,-2.13,2.85,
0.872,-0.15,-0.34,1.22,-3.13,-2.13,2.85,
0.875,-0.15,-0.34,1.22,-3.13,-2.13,2.85,
0.875,-0.15,-0.34,1.22,-3.01,-2.14,2.81,
0.878,-0.15,-0.34,1.21,-3.01,-2.14,2.81,
0.88,-0.15,-0.35,1.20,-3.01,-2.14,2.81,
0.88,-0.15,-0.35,1.20,-2.95,-2.18,2.76,
0.882,-0.14,-0.35,1.20,-2.95,-2.18,2.76,
0.884,-0.14,-0.36,1.20,-2.95,-2.18,2.76,
0.885,-0.14,-0.36,1.20,-2.92,-2.18,2.67,
0.888,-0.14,-0.36,1.20,-2.92,-2.18,2.67,
0.89,-0.14,-0.36,1.20,-2.92,-2.18,2.67,
0.89,-0.14,-0.36,1.20,-2.84,-2.26,2.56,
0.893,-0.15,-0.36,1.21,-2.84,-2.26,2.56,
0.894,-0.15,-0.37,1.22,-2.84,-2.26,2.56,
0.895,-0.15,-0.37,1.22,-2.84,-2.25,2.55,
0.898,-0.14,-0.37,1.22,-2.84,-2.25,2.55,
0.899,-0.14,-0.37,1.23,-2.84,-2.25,2.55,
0.9,-0.14,-0.37,1.23,-2.87,-2.30,2.72,
0.902,-0.14,-0.37,1.24,-2.87,-2.30,2.72,
0.905,-0.14,-0.38,1.25,-2.87,-2.30,2.72,
0.905,-0.14,-0.38,1.25,-2.84,-2.32,2.80,
0.907,-0.14,-0.39,1.26,-2.84,-2.32,2.80,
0.909,-0.13,-0.39,1.27,-2.84,-2.32,2.80,
0.91,-0.13,-0.39,1.27,-2.79,-2.34,3.00,
0.912,-0.14,-0.39,1.28,-2.79,-2.34,3.00,
0.914,-0.13,-0.39,1.28,-2.79,-2.34,3.00,
0.915,-0.13,-0.39,1.28,-2.74,-2.40,3.18,
0.918,-0.12,-0.39,1.29,-2.74,-2.40,3.18,
0.92,-0.12,-0.39,1.29,-2.74,-2.40,3.18,
0.92,-0.12,-0.39,1.29,-2.68,-2.38,3.33,
0.922,-0.11,-0.40,1.30,-2.68,-2.38,3.33,
0.925,-0.10,-0.39,1.30,-2.68,-2.38,3.33,
0.925,-0.10,-0.39,1.30,-2.55,-2.35,3.43,
0.927,-0.09,-0.39,1.30,-2.55,-2.35,3.43,
0.93,-0.09,-0.39,1.30,-2.39,-2.35,3.47,
0.93,-0.07,-0.38,1.30,-2.39,-2.35,3.47,
0.932,-0.06,-0.38,1.30,-2.39,-2.35,3.47,
0.935,-0.05,-0.38,1.30,-2.39,-2.35,3.47,
0.935,-0.05,-0.38,1.30,-2.17,-2.24,3.50,
0.937,-0.04,-0.37,1.29,-2.17,-2.24,3.50,
0.94,-0.03,-0.36,1.29,-2.17,-2.24,3.50,
0.94,-0.03,-0.36,1.29,-1.96,-2.11,3.49,
0.945,-0.02,-0.35,1.29,-1.96,-2.11,3.49,
0.945,-0.01,-0.35,1.28,-1.96,-2.11,3.49,
0.946,-0.01,-0.35,1.28,-1.75,-1.96,3.40,
0.947,0.00,-0.35,1.28,-1.75,-1.96,3.40,
0.95,0.00,-0.35,1.28,-1.50,-1.82,3.33,
0.95,0.01,-0.34,1.27,-1.50,-1.82,3.33,
0.951,0.02,-0.34,1.27,-1.50,-1.82,3.33,
0.954,0.02,-0.34,1.27,-1.30,-1.73,3.20,
0.955,0.03,-0.33,1.26,-1.30,-1.73,3.20,
0.957,0.04,-0.33,1.25,-1.30,-1.73,3.20,
0.965,0.04,-0.33,1.25,-1.10,-1.60,3.08,
0.965,0.05,-0.33,1.25,-1.10,-1.60,3.08,
0.965,0.05,-0.32,1.24,-1.10,-1.60,3.08,
0.966,0.06,-0.32,1.24,-1.10,-1.60,3.08,
0.966,0.06,-0.32,1.24,-0.94,-1.53,2.95,
0.967,0.06,-0.31,1.24,-0.94,-1.53,2.95,
0.969,0.06,-0.31,1.24,-0.82,-1.37,2.83,
0.969,0.06,-0.31,1.23,-0.82,-1.37,2.83,
0.971,0.06,-0.30,1.24,-0.82,-1.37,2.83,
0.974,0.06,-0.30,1.24,-0.82,-1.37,2.83,
0.974,0.06,-0.30,1.24,-0.74,-1.28,2.79,
0.978,0.06,-0.29,1.25,-0.74,-1.28,2.79,
0.979,0.06,-0.29,1.25,-0.74,-1.28,2.79,
0.979,0.06,-0.29,1.25,-0.70,-1.16,2.85,
0.981,0.06,-0.28,1.25,-0.70,-1.16,2.85,
0.984,0.06,-0.28,1.26,-0.70,-1.16,2.85,
0.984,0.06,-0.28,1.26,-0.67,-1.05,2.94,
0.987,0.06,-0.29,1.26,-0.67,-1.05,2.94,
0.989,0.06,-0.29,1.25,-0.67,-1.05,2.94,
0.989,0.06,-0.29,1.25,-0.65,-0.94,2.96,
0.992,0.07,-0.29,1.25,-0.65,-0.94,2.96,
0.995,0.06,-0.29,1.25,-0.65,-0.94,2.96,
0.995,0.06,-0.29,1.25,-0.64,-0.95,2.97,
0.997,0.06,-0.29,1.24,-0.64,-0.95,2.97,
0.999,0.06,-0.30,1.24,-0.64,-0.95,2.97,
0.999,0.06,-0.30,1.24,-0.61,-0.96,2.91,
1.001,0.06,-0.30,1.23,-0.61,-0.96,2.91,
1.004,0.06,-0.30,1.23,-0.60,-0.99,2.79,
1.004,0.06,-0.30,1.21,-0.60,-0.99,2.79,
1.007,0.06,-0.31,1.20,-0.60,-0.99,2.79,
1.009,0.06,-0.31,1.19,-0.60,-0.99,2.79,
1.009,0.06,-0.31,1.19,-0.59,-1.02,2.59,
1.012,0.06,-0.31,1.18,-0.59,-1.02,2.59,
1.014,0.06,-0.31,1.16,-0.59,-1.02,2.59,
1.014,0.06,-0.31,1.16,-0.55,-1.08,2.32,
1.017,0.06,-0.32,1.14,-0.55,-1.08,2.32,
1.018,0.07,-0.31,1.13,-0.55,-1.08,2.32,
1.018,0.07,-0.31,1.13,-0.49,-1.10,2.05,
1.02,0.07,-0.32,1.13,-0.49,-1.10,2.05,
1.023,0.07,-0.32,1.12,-0.49,-1.10,2.05,
1.023,0.07,-0.32,1.12,-0.46,-1.13,1.77,
1.027,0.07,-0.31,1.11,-0.46,-1.13,1.77,
1.028,0.07,-0.31,1.11,-0.46,-1.13,1.77,
1.028,0.07,-0.31,1.11,-0.40,-1.15,1.60,
1.03,0.07,-0.30,1.10,-0.40,-1.15,1.60,
1.033,0.07,-0.30,1.10,-0.40,-1.15,1.60,
1.033,0.07,-0.30,1.10,-0.37,-1.09,1.45,
1.035,0.07,-0.30,1.10,-0.37,-1.09,1.45,
1.038,0.08,-0.30,1.11,-0.37,-1.09,1.45,
1.038,0.08,-0.30,1.11,-0.32,-1.01,1.35,
1.041,0.09,-0.29,1.11,-0.32,-1.01,1.35,
1.045,0.09,-0.29,1.11,-0.32,-1.01,1.35,
1.046,0.09,-0.29,1.11,-0.30,-0.94,1.40,
1.046,0.09,-0.28,1.12,-0.30,-0.94,1.40,
1.048,0.11,-0.28,1.13,-0.30,-0.94,1.40,
1.048,0.11,-0.28,1.13,-0.18,-0.85,1.46,
1.05,0.12,-0.28,1.14,-0.18,-0.85,1.46,
1.053,0.12,-0.28,1.14,-0.06,-0.80,1.60,
1.054,0.13,-0.27,1.14,-0.06,-0.80,1.60,
1.055,0.14,-0.27,1.14,-0.06,-0.80,1.60,
1.058,0.16,-0.27,1.14,-0.06,-0.80,1.60,
1.058,0.16,-0.27,1.14,0.17,-0.71,1.72,
1.061,0.17,-0.26,1.15,0.17,-0.71,1.72,
1.064,0.18,-0.26,1.14,0.17,-0.71,1.72,
1.064,0.18,-0.26,1.14,0.40,-0.66,1.75,
1.065,0.19,-0.25,1.15,0.40,-0.66,1.75,
1.068,0.21,-0.25,1.16,0.40,-0.66,1.75,
1.068,0.21,-0.25,1.16,0.65,-0.55,1.77,
1.07,0.21,-0.25,1.17,0.65,-0.55,1.77,
1.073,0.22,-0.24,1.18,0.65,-0.55,1.77,
1.073,0.22,-0.24,1.18,0.87,-0.47,1.84,
1.075,0.23,-0.24,1.19,0.87,-0.47,1.84,
1.087,0.24,-0.23,1.20,0.87,-0.47,1.84,
1.088,0.24,-0.23,1.20,1.05,-0.39,2.05,
1.089,0.24,-0.23,1.21,1.05,-0.39,2.05,
1.089,0.24,-0.22,1.22,1.05,-0.39,2.05,
1.09,0.24,-0.22,1.22,1.20,-0.29,2.25,
1.091,0.25,-0.21,1.22,1.20,-0.29,2.25,
1.091,0.24,-0.21,1.23,1.20,-0.29,2.25,
1.092,0.24,-0.21,1.23,1.30,-0.16,2.42,
1.092,0.24,-0.21,1.23,1.30,-0.16,2.42,
1.094,0.24,-0.21,1.22,1.30,-0.16,2.42,
1.095,0.24,-0.21,1.22,1.33,-0.03,2.54,
1.103,0.25,-0.21,1.23,1.33,-0.03,2.54,
1.104,0.24,-0.22,1.22,1.33,-0.03,2.54,
1.104,0.24,-0.22,1.22,1.35,0.00,2.53,
1.104,0.24,-0.22,1.22,1.35,0.00,2.53,
1.105,0.25,-0.23,1.21,1.35,0.00,2.53,
1.105,0.25,-0.23,1.21,1.38,-0.03,2.52,
1.105,0.25,-0.23,1.21,1.38,-0.03,2.52,
1.107,0.25,-0.24,1.20,1.38,-0.03,2.52,
1.107,0.25,-0.24,1.20,1.42,-0.14,2.41,
1.111,0.25,-0.25,1.19,1.42,-0.14,2.41,
1.112,0.25,-0.26,1.18,1.42,-0.14,2.41,
1.112,0.25,-0.26,1.18,1.48,-0.23,2.28,
1.114,0.25,-0.27,1.17,1.48,-0.23,2.28,
1.117,0.25,-0.27,1.16,1.48,-0.23,2.28,
1.117,0.25,-0.27,1.16,1.56,-0.40,2.08,
1.119,0.25,-0.28,1.15,1.56,-0.40,2.08,
1.123,0.25,-0.28,1.15,1.57,-0.52,1.87,
1.123,0.25,-0.28,1.14,1.57,-0.52,1.87,
1.124,0.24,-0.28,1.13,1.57,-0.52,1.87,
1.128,0.24,-0.28,1.12,1.57,-0.52,1.87,
1.128,0.24,-0.28,1.12,1.54,-0.63,1.68,
1.129,0.24,-0.28,1.12,1.54,-0.63,1.68,
1.132,0.24,-0.28,1.11,1.54,-0.63,1.68,
1.132,0.24,-0.28,1.11,1.54,-0.61,1.53,
1.134,0.25,-0.28,1.10,1.54,-0.61,1.53,
1.137,0.25,-0.27,1.10,1.54,-0.61,1.53,
1.137,0.25,-0.27,1.10,1.55,-0.61,1.40,
1.139,0.24,-0.27,1.10,1.55,-0.61,1.40,
1.142,0.25,-0.26,1.10,1.55,-0.61,1.40,
1.142,0.25,-0.26,1.10,1.62,-0.55,1.24,
1.145,0.25,-0.25,1.10,1.62,-0.55,1.24,
1.147,0.25,-0.24,1.10,1.62,-0.55,1.24,
1.15,0.25,-0.24,1.10,1.65,-0.43,1.23,
1.151,0.25,-0.24,1.11,1.65,-0.43,1.23,
1.152,0.25,-0.24,1.11,1.66,-0.28,1.24,
1.152,0.25,-0.23,1.11,1.66,-0.28,1.24,
1.154,0.25,-0.22,1.12,1.66,-0.28,1.24,
1.156,0.25,-0.21,1.12,1.66,-0.28,1.24,
1.157,0.25,-0.21,1.12,1.71,-0.15,1.30,
1.159,0.25,-0.21,1.13,1.71,-0.15,1.30,
1.163,0.25,-0.21,1.13,1.71,-0.15,1.30,
1.163,0.25,-0.21,1.13,1.71,0.00,1.39,
1.165,0.25,-0.20,1.13,1.71,0.00,1.39,
1.167,0.25,-0.20,1.13,1.71,0.00,1.39,
1.167,0.25,-0.20,1.13,1.71,0.09,1.49,
1.17,0.25,-0.20,1.14,1.71,0.09,1.49,
1.172,0.25,-0.20,1.13,1.71,0.09,1.49,
1.172,0.25,-0.20,1.13,1.71,0.16,1.53,
1.178,0.26,-0.21,1.13,1.71,0.16,1.53,
1.178,0.26,-0.21,1.13,1.71,0.16,1.53,
1.178,0.26,-0.21,1.13,1.74,0.17,1.52,
1.183,0.26,-0.22,1.13,1.74,0.17,1.52,
1.184,0.26,-0.22,1.13,1.74,0.17,1.52,
1.184,0.26,-0.22,1.13,1.82,0.10,1.49,
1.184,0.26,-0.22,1.13,1.82,0.10,1.49,
1.186,0.26,-0.23,1.12,1.82,0.10,1.49,
1.187,0.26,-0.23,1.12,1.84,-0.01,1.47,
1.19,0.26,-0.24,1.11,1.84,-0.01,1.47,
1.191,0.26,-0.25,1.11,1.84,-0.01,1.47,
1.192,0.26,-0.25,1.11,1.88,-0.09,1.44,
1.195,0.25,-0.26,1.11,1.88,-0.09,1.44,
1.197,0.25,-0.27,1.10,1.88,-0.09,1.44,
1.197,0.25,-0.27,1.10,1.89,-0.25,1.29,
1.199,0.25,-0.28,1.10,1.89,-0.25,1.29,
1.202,0.25,-0.28,1.10,1.84,-0.43,1.22,
1.202,0.25,-0.29,1.09,1.84,-0.43,1.22,
1.204,0.24,-0.30,1.08,1.84,-0.43,1.22,
1.207,0.24,-0.31,1.07,1.84,-0.43,1.22,
1.207,0.24,-0.31,1.07,1.83,-0.63,1.09,
1.209,0.25,-0.31,1.07,1.83,-0.63,1.09,
1.212,0.24,-0.32,1.07,1.83,-0.63,1.09,
1.212,0.24,-0.32,1.07,1.82,-0.80,0.95,
1.214,0.24,-0.32,1.08,1.82,-0.80,0.95,
1.216,0.24,-0.32,1.07,1.82,-0.80,0.95,
1.217,0.24,-0.32,1.07,1.87,-0.91,0.88,
1.218,0.24,-0.31,1.08,1.87,-0.91,0.88,
1.222,0.24,-0.31,1.08,1.87,-0.91,0.88,
1.222,0.24,-0.31,1.08,1.82,-0.94,0.91,
1.224,0.24,-0.30,1.09,1.82,-0.94,0.91,
1.227,0.24,-0.29,1.10,1.82,-0.94,0.91,
1.227,0.24,-0.29,1.10,1.82,-0.86,0.98,
1.229,0.24,-0.28,1.10,1.82,-0.86,0.98,
1.231,0.24,-0.27,1.11,1.82,-0.86,0.98,
1.233,0.24,-0.27,1.11,1.81,-0.73,1.08,
1.233,0.24,-0.26,1.11,1.81,-0.73,1.08,
1.237,0.24,-0.26,1.12,1.81,-0.73,1.08,
1.237,0.24,-0.26,1.12,1.83,-0.54,1.19,
1.24,0.25,-0.25,1.13,1.83,-0.54,1.19,
1.242,0.25,-0.24,1.12,1.83,-0.54,1.19,
1.243,0.25,-0.24,1.12,1.85,-0.39,1.31,
1.244,0.25,-0.24,1.12,1.85,-0.39,1.31,
1.247,0.26,-0.23,1.13,1.85,-0.39,1.31,
1.247,0.26,-0.23,1.13,1.93,-0.28,1.36,
1.249,0.26,-0.23,1.12,1.93,-0.28,1.36,
1.252,0.27,-0.22,1.12,1.93,-0.28,1.36,
1.252,0.27,-0.22,1.12,1.97,-0.17,1.34,
1.255,0.27,-0.22,1.12,1.97,-0.17,1.34,
1.257,0.27,-0.22,1.12,2.06,-0.10,1.32,
1.257,0.28,-0.22,1.12,2.06,-0.10,1.32,
1.259,0.28,-0.21,1.11,2.06,-0.10,1.32,
1.263,0.29,-0.22,1.10,2.06,-0.10,1.32,
1.264,0.29,-0.22,1.10,2.18,-0.07,1.29,
1.266,0.29,-0.22,1.10,2.18,-0.07,1.29,
1.266,0.29,-0.22,1.10,2.18,-0.07,1.29,
1.266,0.29,-0.22,1.10,2.27,-0.04,1.15,
1.27,0.30,-0.22,1.09,2.27,-0.04,1.15,
1.272,0.30,-0.22,1.09,2.35,-0.11,1.09,
1.272,0.30,-0.22,1.09,2.35,-0.11,1.09,
1.274,0.30,-0.23,1.09,2.35,-0.11,1.09,
1.276,0.30,-0.23,1.08,2.35,-0.11,1.09,
1.277,0.30,-0.23,1.08,2.41,-0.12,1.00,
1.279,0.30,-0.23,1.09,2.41,-0.12,1.00,
1.282,0.30,-0.23,1.09,2.41,-0.12,1.00,
1.282,0.30,-0.23,1.09,2.41,-0.19,0.92,
1.283,0.30,-0.24,1.09,2.41,-0.19,0.92,
1.286,0.30,-0.24,1.09,2.41,-0.19,0.92,
1.287,0.30,-0.24,1.09,2.41,-0.27,0.98,
1.289,0.30,-0.25,1.10,2.41,-0.27,0.98,
1.291,0.30,-0.25,1.10,2.42,-0.35,0.97,
1.291,0.30,-0.24,1.10,2.42,-0.35,0.97,
1.293,0.31,-0.25,1.11,2.42,-0.35,0.97,
1.301,0.31,-0.25,1.11,2.42,-0.35,0.97,
1.302,0.31,-0.25,1.11,2.44,-0.43,1.06,
1.303,0.31,-0.25,1.11,2.44,-0.43,1.06,
1.303,0.31,-0.24,1.11,2.44,-0.43,1.06,
1.303,0.31,-0.24,1.11,2.48,-0.48,1.10,
1.303,0.31,-0.24,1.12,2.48,-0.48,1.10,
1.305,0.32,-0.24,1.12,2.48,-0.48,1.10,
1.305,0.32,-0.24,1.12,2.48,-0.46,1.15,
1.307,0.31,-0.23,1.12,2.48,-0.46,1.15,
1.313,0.31,-0.22,1.13,2.48,-0.46,1.15,
1.314,0.31,-0.22,1.13,2.52,-0.43,1.22,
1.317,0.31,-0.21,1.13,2.52,-0.43,1.22,
1.317,0.31,-0.21,1.13,2.52,-0.43,1.22,
1.318,0.31,-0.21,1.13,2.51,-0.32,1.26,
1.318,0.31,-0.20,1.13,2.51,-0.32,1.26,
1.32,0.31,-0.20,1.13,2.46,-0.20,1.32,
1.32,0.30,-0.19,1.13,2.46,-0.20,1.32,
1.322,0.30,-0.18,1.14,2.46,-0.20,1.32,
1.325,0.30,-0.18,1.14,2.38,-0.03,1.32,
1.325,0.30,-0.17,1.14,2.38,-0.03,1.32,
1.329,0.30,-0.16,1.13,2.38,-0.03,1.32,
1.33,0.30,-0.16,1.13,2.38,-0.03,1.32,
1.33,0.30,-0.16,1.13,2.34,0.12,1.35,
1.332,0.30,-0.15,1.13,2.34,0.12,1.35,
1.335,0.30,-0.15,1.13,2.34,0.12,1.35,
1.336,0.30,-0.15,1.13,2.30,0.26,1.32,
1.337,0.29,-0.14,1.13,2.30,0.26,1.32,
1.341,0.30,-0.14,1.12,2.30,0.26,1.32,
1.342,0.30,-0.14,1.12,2.30,0.32,1.30,
1.342,0.30,-0.14,1.11,2.30,0.32,1.30,
1.346,0.30,-0.15,1.12,2.30,0.32,1.30,
1.346,0.30,-0.15,1.12,2.31,0.37,1.19,
1.347,0.30,-0.15,1.11,2.31,0.37,1.19,
1.349,0.29,-0.15,1.10,2.31,0.37,1.19,
1.35,0.29,-0.15,1.10,2.34,0.31,1.11,
1.352,0.30,-0.15,1.10,2.34,0.31,1.11,
1.354,0.29,-0.16,1.09,2.34,0.31,1.11,
1.355,0.29,-0.16,1.09,2.31,0.26,1.01,
1.357,0.29,-0.16,1.09,2.31,0.26,1.01,
1.359,0.29,-0.17,1.09,2.31,0.26,1.01,
1.359,0.29,-0.17,1.09,2.30,0.16,0.87,
1.362,0.29,-0.17,1.10,2.30,0.16,0.87,
1.364,0.29,-0.17,1.10,2.30,0.16,0.87,
1.365,0.29,-0.17,1.10,2.27,0.06,0.84,
1.367,0.29,-0.18,1.10,2.27,0.06,0.84,
1.369,0.30,-0.18,1.11,2.27,0.06,0.84,
1.37,0.30,-0.18,1.11,2.30,0.01,0.92,
1.372,0.30,-0.17,1.12,2.30,0.01,0.92,
1.374,0.30,-0.18,1.12,2.30,0.01,0.92,
1.374,0.30,-0.18,1.12,2.34,-0.13,1.00,
1.377,0.30,-0.18,1.12,2.34,-0.13,1.00,
1.38,0.30,-0.18,1.13,2.34,-0.13,1.00,
1.381,0.30,-0.18,1.13,2.40,-0.12,1.11,
1.382,0.31,-0.18,1.14,2.40,-0.12,1.11,
1.384,0.30,-0.18,1.14,2.40,-0.12,1.11,
1.384,0.30,-0.18,1.14,2.38,-0.18,1.18,
1.387,0.31,-0.18,1.14,2.38,-0.18,1.18,
1.389,0.31,-0.18,1.14,2.38,-0.18,1.18,
1.389,0.31,-0.18,1.14,2.41,-0.22,1.27,
1.392,0.32,-0.18,1.14,2.41,-0.22,1.27,
1.394,0.32,-0.18,1.15,2.41,-0.22,1.27,
1.394,0.32,-0.18,1.15,2.46,-0.22,1.32,
1.397,0.32,-0.18,1.15,2.46,-0.22,1.32,
1.399,0.32,-0.18,1.15,2.46,-0.22,1.32,
1.399,0.32,-0.18,1.15,2.51,-0.22,1.33,
1.402,0.32,-0.17,1.15,2.51,-0.22,1.33,
1.404,0.31,-0.18,1.15,2.51,-0.22,1.33,
1.404,0.31,-0.18,1.15,2.50,-0.25,1.40,
1.406,0.31,-0.17,1.15,2.50,-0.25,1.40,
1.409,0.30,-0.17,1.14,2.50,-0.25,1.40,
1.409,0.30,-0.17,1.14,2.47,-0.25,1.38,
1.417,0.31,-0.17,1.14,2.47,-0.25,1.38,
1.418,0.30,-0.17,1.14,2.47,-0.25,1.38,
1.418,0.30,-0.17,1.14,2.40,-0.23,1.29,
1.421,0.30,-0.16,1.13,2.40,-0.23,1.29,
1.421,0.29,-0.16,1.13,2.40,-0.23,1.29,
1.422,0.29,-0.16,1.13,2.36,-0.22,1.25,
1.422,0.29,-0.16,1.12,2.36,-0.22,1.25,
1.424,0.29,-0.16,1.13,2.36,-0.22,1.25,
1.424,0.29,-0.16,1.13,2.27,-0.21,1.16,
1.426,0.29,-0.17,1.12,2.27,-0.21,1.16,
1.43,0.28,-0.17,1.12,2.27,-0.21,1.16,
1.43,0.28,-0.17,1.12,2.25,-0.23,1.10,
1.431,0.27,-0.16,1.11,2.25,-0.23,1.10,
1.434,0.27,-0.17,1.11,2.25,-0.23,1.10,
1.434,0.27,-0.17,1.11,2.17,-0.31,1.05,
1.436,0.26,-0.16,1.11,2.17,-0.31,1.05,
1.438,0.26,-0.16,1.10,2.17,-0.31,1.05,
1.439,0.26,-0.16,1.10,2.05,-0.30,0.94,
1.441,0.26,-0.17,1.10,2.05,-0.30,0.94,
1.444,0.25,-0.17,1.09,2.05,-0.30,0.94,
1.444,0.25,-0.17,1.09,1.99,-0.33,0.89,
1.447,0.25,-0.17,1.09,1.99,-0.33,0.89,
1.448,0.25,-0.17,1.08,1.99,-0.33,0.89,
1.449,0.25,-0.17,1.08,1.93,-0.39,0.77,
1.451,0.25,-0.18,1.08,1.93,-0.39,0.77,
1.453,0.25,-0.18,1.08,1.93,-0.39,0.77,
1.453,0.25,-0.18,1.08,1.91,-0.48,0.67,
1.456,0.24,-0.18,1.07,1.91,-0.48,0.67,
1.458,0.24,-0.18,1.07,1.91,-0.48,0.67,
1.459,0.24,-0.18,1.07,1.90,-0.56,0.60,
1.463,0.24,-0.18,1.06,1.90,-0.56,0.60,
1.466,0.23,-0.19,1.06,1.90,-0.56,0.60,
1.466,0.23,-0.19,1.06,1.85,-0.61,0.51,
1.466,0.23,-0.19,1.06,1.85,-0.61,0.51,
1.468,0.23,-0.19,1.06,1.85,-0.61,0.51,
1.469,0.23,-0.19,1.06,1.80,-0.72,0.39,
1.471,0.23,-0.20,1.05,1.80,-0.72,0.39,
1.473,0.23,-0.19,1.04,1.80,-0.72,0.39,
1.474,0.23,-0.19,1.04,1.77,-0.80,0.40,
1.476,0.23,-0.19,1.04,1.77,-0.80,0.40,
1.48,0.23,-0.19,1.04,1.77,-0.80,0.40,
1.48,0.23,-0.19,1.04,1.76,-0.86,0.24,
1.484,0.23,-0.18,1.03,1.76,-0.86,0.24,
1.484,0.23,-0.17,1.04,1.76,-0.86,0.24,
1.485,0.23,-0.17,1.04,1.77,-0.85,0.16,
1.486,0.22,-0.16,1.02,1.77,-0.85,0.16,
1.489,0.22,-0.15,1.02,1.77,-0.85,0.16,
1.489,0.22,-0.15,1.02,1.77,-0.75,0.13,
1.49,0.22,-0.14,1.02,1.77,-0.75,0.13,
1.494,0.23,-0.13,1.01,1.77,-0.75,0.13,
1.494,0.23,-0.13,1.01,1.73,-0.57,-0.01,
1.496,0.23,-0.13,1.00,1.73,-0.57,-0.01,
1.498,0.23,-0.12,0.99,1.73,-0.57,-0.01,
1.498,0.23,-0.12,0.99,1.77,-0.42,-0.10,
1.501,0.23,-0.11,0.99,1.77,-0.42,-0.10,
1.504,0.24,-0.11,0.98,1.77,-0.42,-0.10,
1.504,0.24,-0.11,0.98,1.82,-0.32,-0.28,
1.506,0.25,-0.10,0.98,1.82,-0.32,-0.28,
1.509,0.25,-0.10,0.97,1.82,-0.32,-0.28,
1.509,0.25,-0.10,0.97,1.89,-0.24,-0.38,
1.511,0.25,-0.09,0.96,1.89,-0.24,-0.38,
1.518,0.25,-0.09,0.97,1.89,-0.24,-0.38,
1.519,0.25,-0.09,0.97,1.99,-0.16,-0.49,
1.519,0.25,-0.09,0.96,1.99,-0.16,-0.49,
1.52,0.25,-0.09,0.96,2.04,-0.13,-0.57,
1.52,0.24,-0.09,0.96,2.04,-0.13,-0.57,
1.521,0.24,-0.09,0.97,2.04,-0.13,-0.57,
1.523,0.24,-0.09,0.96,2.04,-0.13,-0.57,
1.523,0.24,-0.09,0.96,2.00,-0.13,-0.59,
1.526,0.23,-0.09,0.96,2.00,-0.13,-0.59,
1.53,0.23,-0.09,0.97,2.00,-0.13,-0.59,
1.53,0.23,-0.09,0.97,1.96,-0.16,-0.57,
1.53,0.22,-0.09,0.96,1.96,-0.16,-0.57,
1.533,0.22,-0.09,0.96,1.96,-0.16,-0.57,
1.533,0.22,-0.09,0.96,1.83,-0.18,-0.56,
1.536,0.21,-0.10,0.96,1.83,-0.18,-0.56,
1.538,0.20,-0.10,0.95,1.83,-0.18,-0.56,
1.538,0.20,-0.10,0.95,1.72,-0.26,-0.60,
1.541,0.20,-0.10,0.96,1.72,-0.26,-0.60,
1.543,0.19,-0.11,0.96,1.72,-0.26,-0.60,
1.543,0.19,-0.11,0.96,1.60,-0.37,-0.64,
1.545,0.19,-0.11,0.95,1.60,-0.37,-0.64,
1.548,0.19,-0.11,0.95,1.60,-0.37,-0.64,
1.549,0.19,-0.11,0.95,1.52,-0.42,-0.66,
1.55,0.19,-0.11,0.94,1.52,-0.42,-0.66,
1.553,0.19,-0.12,0.94,1.52,-0.42,-0.66,
1.553,0.19,-0.12,0.94,1.44,-0.53,-0.75,
1.556,0.18,-0.12,0.94,1.44,-0.53,-0.75,
1.559,0.18,-0.12,0.93,1.44,-0.53,-0.75,
1.559,0.18,-0.12,0.93,1.43,-0.58,-0.80,
1.56,0.18,-0.11,0.93,1.43,-0.58,-0.80,
1.563,0.17,-0.11,0.93,1.43,-0.58,-0.80,
1.564,0.17,-0.11,0.93,1.36,-0.64,-0.86,
1.565,0.18,-0.11,0.92,1.36,-0.64,-0.86,
1.568,0.18,-0.10,0.92,1.36,-0.64,-0.86,
1.568,0.18,-0.10,0.92,1.34,-0.61,-0.93,
1.57,0.18,-0.09,0.92,1.34,-0.61,-0.93,
1.573,0.18,-0.09,0.92,1.34,-0.61,-0.93,
1.573,0.18,-0.09,0.92,1.34,-0.57,-1.01,
1.576,0.18,-0.09,0.91,1.34,-0.57,-1.01,
1.578,0.19,-0.08,0.90,1.34,-0.57,-1.01,
1.578,0.19,-0.08,0.90,1.35,-0.46,-1.04,
1.58,0.19,-0.08,0.90,1.35,-0.46,-1.04,
1.583,0.20,-0.08,0.90,1.35,-0.46,-1.04,
1.583,0.20,-0.08,0.90,1.42,-0.41,-1.15,
1.586,0.20,-0.08,0.90,1.42,-0.41,-1.15,
1.588,0.20,-0.08,0.90,1.53,-0.35,-1.19,
1.589,0.20,-0.07,0.89,1.53,-0.35,-1.19,
1.59,0.21,-0.07,0.89,1.53,-0.35,-1.19,
1.593,0.22,-0.06,0.89,1.53,-0.35,-1.19,
1.593,0.22,-0.06,0.89,1.57,-0.35,-1.21,
1.597,0.21,-0.06,0.89,1.57,-0.35,-1.21,
1.598,0.21,-0.06,0.89,1.57,-0.35,-1.21,
1.598,0.21,-0.06,0.89,1.67,-0.29,-1.27,
1.6,0.22,-0.06,0.88,1.67,-0.29,-1.27,
1.603,0.21,-0.05,0.88,1.67,-0.29,-1.27,
1.604,0.21,-0.05,0.88,1.66,-0.27,-1.29,
1.606,0.22,-0.05,0.88,1.66,-0.27,-1.29,
1.608,0.21,-0.05,0.88,1.66,-0.27,-1.29,
1.608,0.21,-0.05,0.88,1.68,-0.23,-1.40,
1.611,0.21,-0.05,0.88,1.68,-0.23,-1.40,
1.612,0.20,-0.04,0.88,1.68,-0.23,-1.40,
1.613,0.20,-0.04,0.88,1.67,-0.20,-1.38,
1.615,0.20,-0.04,0.88,1.67,-0.20,-1.38,
1.618,0.20,-0.04,0.88,1.67,-0.20,-1.38,
1.618,0.20,-0.04,0.88,1.58,-0.18,-1.36,
1.621,0.20,-0.04,0.88,1.58,-0.18,-1.36,
1.623,0.20,-0.04,0.88,1.48,-0.18,-1.40,
1.623,0.20,-0.04,0.88,1.48,-0.18,-1.40,
1.626,0.19,-0.04,0.89,1.48,-0.18,-1.40,
1.628,0.19,-0.04,0.89,1.48,-0.18,-1.40,
1.628,0.19,-0.04,0.89,1.47,-0.18,-1.35,
1.634,0.19,-0.04,0.90,1.47,-0.18,-1.35,
1.635,0.18,-0.04,0.90,1.47,-0.18,-1.35,
1.635,0.18,-0.04,0.90,1.38,-0.18,-1.25,
1.635,0.18,-0.04,0.90,1.38,-0.18,-1.25,
1.637,0.17,-0.03,0.90,1.38,-0.18,-1.25,
1.637,0.17,-0.03,0.90,1.32,-0.20,-1.21,
1.64,0.17,-0.04,0.90,1.32,-0.20,-1.21,
1.642,0.17,-0.04,0.90,1.32,-0.20,-1.21,
1.645,0.17,-0.04,0.90,1.23,-0.20,-1.20,
1.645,0.17,-0.03,0.90,1.23,-0.20,-1.20,
1.648,0.17,-0.03,0.91,1.23,-0.20,-1.20,
1.648,0.17,-0.03,0.91,1.13,-0.23,-1.18,
1.65,0.16,-0.03,0.91,1.13,-0.23,-1.18,
1.652,0.16,-0.03,0.91,1.13,-0.23,-1.18,
1.652,0.16,-0.03,0.91,1.13,-0.17,-1.11,
1.655,0.16,-0.03,0.91,1.13,-0.17,-1.11,
1.657,0.16,-0.04,0.91,1.13,-0.17,-1.11,
1.658,0.16,-0.04,0.91,1.03,-0.21,-1.05,
1.66,0.16,-0.04,0.91,1.03,-0.21,-1.05,
1.662,0.17,-0.04,0.90,1.03,-0.21,-1.05,
1.663,0.17,-0.04,0.90,1.02,-0.26,-1.06,
1.665,0.18,-0.04,0.90,1.02,-0.26,-1.06,
1.667,0.18,-0.04,0.89,1.02,-0.26,-1.06,
1.668,0.18,-0.04,0.89,1.06,-0.31,-1.11,
1.669,0.19,-0.04,0.89,1.06,-0.31,-1.11,
1.672,0.19,-0.04,0.89,1.06,-0.31,-1.11,
1.672,0.19,-0.04,0.89,1.20,-0.33,-1.21,
1.674,0.19,-0.04,0.88,1.20,-0.33,-1.21,
1.676,0.19,-0.04,0.87,1.20,-0.33,-1.21,
1.677,0.19,-0.04,0.87,1.25,-0.35,-1.28,
1.679,0.19,-0.04,0.87,1.25,-0.35,-1.28,
1.682,0.19,-0.04,0.87,1.25,-0.35,-1.28,
1.683,0.19,-0.04,0.87,1.24,-0.37,-1.37,
1.684,0.19,-0.04,0.87,1.24,-0.37,-1.37,
1.686,0.19,-0.04,0.86,1.24,-0.37,-1.37,
1.687,0.19,-0.04,0.86,1.22,-0.39,-1.40,
1.689,0.19,-0.04,0.85,1.22,-0.39,-1.40,
1.691,0.19,-0.04,0.85,1.22,-0.39,-1.40,
1.692,0.19,-0.04,0.85,1.19,-0.46,-1.49,
1.694,0.19,-0.04,0.85,1.19,-0.46,-1.49,
1.697,0.18,-0.04,0.85,1.19,-0.46,-1.49,
1.698,0.18,-0.04,0.85,1.17,-0.46,-1.59,
1.699,0.18,-0.04,0.84,1.17,-0.46,-1.59,
1.701,0.18,-0.04,0.84,1.17,-0.46,-1.59,
1.702,0.18,-0.04,0.84,1.14,-0.50,-1.63,
1.704,0.18,-0.03,0.84,1.14,-0.50,-1.63,
1.706,0.18,-0.03,0.83,1.14,-0.50,-1.63,
1.706,0.18,-0.03,0.83,1.10,-0.47,-1.71,
1.709,0.18,-0.03,0.83,1.10,-0.47,-1.71,
1.711,0.18,-0.03,0.82,1.10,-0.47,-1.71,
1.712,0.18,-0.03,0.82,1.09,-0.44,-1.77,
1.715,0.18,-0.03,0.83,1.09,-0.44,-1.77,
1.716,0.18,-0.03,0.83,1.09,-0.44,-1.77,
1.717,0.18,-0.03,0.83,1.06,-0.47,-1.82,
1.719,0.18,-0.03,0.82,1.06,-0.47,-1.82,
1.722,0.18,-0.03,0.82,1.06,-0.49,-1.82,
1.722,0.17,-0.03,0.82,1.06,-0.49,-1.82,
1.724,0.17,-0.04,0.83,1.06,-0.49,-1.82,
1.727,0.17,-0.04,0.83,1.06,-0.49,-1.82,
1.728,0.17,-0.04,0.83,1.02,-0.54,-1.86,
1.729,0.17,-0.03,0.83,1.02,-0.54,-1.86,
1.738,0.17,-0.03,0.83,1.02,-0.54,-1.86,
1.739,0.17,-0.03,0.83,1.01,-0.58,-1.81,
1.74,0.17,-0.03,0.84,1.01,-0.58,-1.81,
1.74,0.17,-0.03,0.84,0.98,-0.59,-1.77,
1.741,0.16,-0.02,0.84,0.98,-0.59,-1.77,
1.742,0.17,-0.02,0.83,0.98,-0.59,-1.77,
1.742,0.17,-0.01,0.83,0.98,-0.59,-1.77,
1.743,0.17,-0.01,0.83,0.92,-0.50,-1.70,
1.743,0.17,-0.01,0.83,0.92,-0.50,-1.70,
1.758,0.16,-0.01,0.83,0.92,-0.50,-1.70,
1.759,0.16,-0.01,0.83,0.93,-0.44,-1.75,
1.76,0.16,-0.00,0.82,0.93,-0.44,-1.75,
1.761,0.17,0.01,0.81,0.93,-0.44,-1.75,
1.761,0.17,0.01,0.81,0.89,-0.40,-1.80,
1.762,0.17,0.02,0.81,0.89,-0.40,-1.80,
1.762,0.17,0.02,0.81,0.89,-0.40,-1.80,
1.763,0.17,0.02,0.81,0.90,-0.30,-1.87,
1.763,0.17,0.03,0.81,0.90,-0.30,-1.87,
1.763,0.17,0.04,0.81,0.90,-0.30,-1.87,
1.764,0.17,0.04,0.81,0.89,-0.16,-1.94,
1.764,0.17,0.04,0.81,0.89,-0.16,-1.94,
1.769,0.17,0.05,0.81,0.89,-0.16,-1.94,
1.77,0.17,0.05,0.81,0.90,-0.04,-1.96,
1.77,0.18,0.06,0.81,0.90,-0.04,-1.96,
1.771,0.18,0.06,0.81,0.90,-0.04,-1.96,
1.771,0.18,0.06,0.81,0.92,0.05,-1.94,
1.773,0.18,0.06,0.81,0.92,0.05,-1.94,
1.775,0.19,0.07,0.81,0.92,0.05,-1.94,
1.775,0.19,0.07,0.81,0.97,0.18,-1.92,
1.778,0.19,0.07,0.80,0.97,0.18,-1.92,
1.78,0.19,0.07,0.80,0.97,0.18,-1.92,
1.781,0.19,0.07,0.80,1.04,0.20,-1.93,
1.783,0.20,0.08,0.81,1.04,0.20,-1.93,
1.785,0.20,0.08,0.80,1.04,0.20,-1.93,
1.785,0.20,0.08,0.80,1.08,0.27,-1.98,
1.788,0.20,0.08,0.80,1.08,0.27,-1.98,
1.79,0.20,0.08,0.80,1.08,0.27,-1.98,
1.79,0.20,0.08,0.80,1.14,0.30,-1.97,
1.792,0.20,0.08,0.81,1.14,0.30,-1.97,
1.795,0.20,0.08,0.81,1.14,0.30,-1.97,
1.795,0.20,0.08,0.81,1.11,0.28,-1.99,
1.797,0.20,0.07,0.82,1.11,0.28,-1.99,
1.8,0.20,0.07,0.82,1.11,0.28,-1.99,
1.8,0.20,0.07,0.82,1.14,0.28,-1.91,
1.802,0.20,0.07,0.82,1.14,0.28,-1.91,
1.805,0.20,0.07,0.83,1.14,0.28,-1.91,
1.805,0.20,0.07,0.83,1.10,0.22,-1.78,
1.809,0.20,0.07,0.84,1.10,0.22,-1.78,
1.81,0.19,0.06,0.85,1.10,0.22,-1.78,
1.81,0.19,0.06,0.85,1.10,0.18,-1.72,
1.821,0.19,0.06,0.85,1.10,0.18,-1.72,
1.822,0.19,0.05,0.86,1.10,0.18,-1.72,
1.822,0.19,0.05,0.86,1.02,0.14,-1.58,
1.822,0.18,0.05,0.87,1.02,0.14,-1.58,
1.823,0.18,0.05,0.89,1.02,0.14,-1.58,
1.823,0.18,0.05,0.89,0.98,0.06,-1.45,
1.823,0.17,0.06,0.90,0.98,0.06,-1.45,
1.825,0.16,0.05,0.92,0.98,0.06,-1.45,
1.826,0.16,0.05,0.92,0.86,0.04,-1.16,
1.828,0.16,0.05,0.93,0.86,0.04,-1.16,
1.832,0.15,0.05,0.94,0.86,0.04,-1.16,
1.832,0.15,0.05,0.94,0.74,0.04,-0.89,
1.832,0.15,0.05,0.95,0.74,0.04,-0.89,
1.836,0.15,0.05,0.96,0.74,0.04,-0.89,
1.836,0.15,0.05,0.96,0.63,0.02,-0.62,
1.837,0.15,0.05,0.96,0.63,0.02,-0.62,
1.84,0.15,0.05,0.96,0.63,0.02,-0.62,
1.84,0.15,0.05,0.96,0.52,-0.03,-0.46,
1.843,0.15,0.05,0.96,0.52,-0.03,-0.46,
1.845,0.14,0.05,0.95,0.52,-0.03,-0.46,
1.845,0.14,0.05,0.95,0.49,-0.03,-0.43,
1.847,0.14,0.05,0.96,0.49,-0.03,-0.43,
1.85,0.14,0.05,0.95,0.49,-0.03,-0.43,
1.85,0.14,0.05,0.95,0.46,0.01,-0.45,
1.852,0.14,0.06,0.94,0.46,0.01,-0.45,
1.855,0.14,0.05,0.94,0.46,0.01,-0.45,
1.855,0.14,0.05,0.94,0.39,0.00,-0.48,
1.858,0.14,0.05,0.94,0.39,0.00,-0.48,
1.86,0.15,0.05,0.93,0.39,0.00,-0.48,
1.861,0.15,0.05,0.93,0.40,0.02,-0.56,
1.863,0.14,0.05,0.93,0.40,0.02,-0.56,
1.865,0.14,0.05,0.92,0.40,0.02,-0.56,
1.865,0.14,0.05,0.92,0.43,-0.00,-0.65,
1.868,0.15,0.05,0.92,0.43,-0.00,-0.65,
1.869,0.16,0.05,0.92,0.43,-0.00,-0.65,
1.87,0.16,0.05,0.92,0.41,-0.01,-0.70,
1.873,0.15,0.06,0.91,0.41,-0.01,-0.70,
1.875,0.15,0.06,0.91,0.41,-0.01,-0.70,
1.876,0.15,0.06,0.91,0.49,-0.01,-0.81,
1.878,0.16,0.07,0.92,0.49,-0.01,-0.81,
1.88,0.16,0.07,0.91,0.49,-0.01,-0.81,
1.88,0.16,0.07,0.91,0.48,0.03,-0.84,
1.883,0.16,0.07,0.90,0.48,0.03,-0.84,
1.885,0.16,0.06,0.88,0.48,0.03,-0.84,
1.885,0.16,0.06,0.88,0.52,0.09,-0.81,
1.888,0.17,0.06,0.87,0.52,0.09,-0.81,
1.891,0.17,0.06,0.86,0.52,0.09,-0.81,
1.891,0.17,0.06,0.86,0.55,0.01,-1.05,
1.893,0.17,0.06,0.84,0.55,0.01,-1.05,
1.895,0.17,0.07,0.83,0.55,0.01,-1.05,
1.895,0.17,0.07,0.83,0.66,-0.05,-1.34,
1.899,0.17,0.07,0.82,0.66,-0.05,-1.34,
1.9,0.17,0.07,0.82,0.66,-0.05,-1.34,
1.901,0.17,0.07,0.82,0.69,-0.02,-1.58,
1.902,0.16,0.08,0.81,0.69,-0.02,-1.58,
1.906,0.15,0.08,0.81,0.69,-0.02,-1.58,
1.906,0.15,0.08,0.81,0.68,0.02,-1.74,
1.906,0.14,0.09,0.81,0.68,0.02,-1.74,
1.911,0.13,0.09,0.80,0.68,0.02,-1.74,
1.911,0.13,0.09,0.80,0.52,0.07,-1.83,
1.913,0.12,0.09,0.80,0.52,0.07,-1.83,
1.916,0.11,0.09,0.80,0.52,0.07,-1.83,
1.916,0.11,0.09,0.80,0.32,0.13,-1.86,
1.917,0.11,0.08,0.80,0.32,0.13,-1.86,
1.919,0.10,0.08,0.81,0.32,0.13,-1.86,
1.92,0.10,0.08,0.81,0.15,0.14,-1.89,
1.923,0.10,0.09,0.81,0.15,0.14,-1.89,
1.925,0.09,0.09,0.81,0.15,0.14,-1.89,
1.925,0.09,0.09,0.81,0.09,0.08,-1.89,
1.927,0.10,0.08,0.81,0.09,0.08,-1.89,
1.93,0.10,0.08,0.81,0.09,0.08,-1.89,
1.93,0.10,0.08,0.81,0.00,0.07,-1.80,
1.937,0.10,0.08,0.81,0.00,0.07,-1.80,
1.937,0.09,0.08,0.81,0.00,0.07,-1.80,
1.937,0.09,0.08,0.81,-0.01,0.01,-1.79,
1.938,0.09,0.09,0.82,-0.01,0.01,-1.79,
1.939,0.09,0.08,0.83,-0.01,0.01,-1.79,
1.94,0.09,0.08,0.83,-0.03,0.03,-1.79,
1.942,0.09,0.08,0.84,-0.03,0.03,-1.79,
1.944,0.09,0.08,0.85,-0.03,0.03,-1.79,
1.944,0.09,0.08,0.85,-0.11,0.02,-1.65,
1.948,0.08,0.08,0.86,-0.11,0.02,-1.65,
1.949,0.09,0.07,0.87,-0.11,0.02,-1.65,
1.95,0.09,0.07,0.87,-0.13,-0.01,-1.44,
1.951,0.08,0.06,0.89,-0.13,-0.01,-1.44,
1.953,0.08,0.06,0.91,-0.13,-0.01,-1.44,
1.954,0.08,0.06,0.91,-0.15,-0.08,-1.22,
1.956,0.08,0.05,0.92,-0.15,-0.08,-1.22,
1.959,0.08,0.05,0.93,-0.15,-0.08,-1.22,
1.959,0.08,0.05,0.93,-0.18,-0.20,-0.93,
1.961,0.08,0.04,0.94,-0.18,-0.20,-0.93,
1.965,0.08,0.04,0.95,-0.18,-0.20,-0.93,
1.966,0.08,0.04,0.95,-0.19,-0.30,-0.69,
1.966,0.08,0.04,0.96,-0.19,-0.30,-0.69,
1.968,0.08,0.03,0.97,-0.19,-0.30,-0.69,
1.969,0.08,0.03,0.97,-0.19,-0.38,-0.49,
1.971,0.07,0.03,0.97,-0.19,-0.38,-0.49,
1.974,0.08,0.03,0.97,-0.19,-0.38,-0.49,
1.974,0.08,0.03,0.97,-0.22,-0.44,-0.28,
1.976,0.08,0.03,0.97,-0.22,-0.44,-0.28,
1.978,0.08,0.03,0.97,-0.22,-0.44,-0.28,
1.979,0.08,0.03,0.97,-0.25,-0.53,-0.21,
1.982,0.08,0.03,0.97,-0.25,-0.53,-0.21,
1.984,0.08,0.03,0.97,-0.25,-0.53,-0.21,
1.985,0.08,0.03,0.97,-0.19,-0.52,-0.19,
1.986,0.09,0.02,0.96,-0.19,-0.52,-0.19,
1.988,0.10,0.01,0.93,-0.19,-0.52,-0.19,
1.988,0.10,0.01,0.93,-0.18,-0.52,-0.24,
1.991,0.10,-0.00,0.91,-0.18,-0.52,-0.24,
1.993,0.10,0.00,0.89,-0.18,-0.52,-0.24,
1.994,0.10,0.00,0.89,-0.04,-0.63,-0.50,
1.996,0.10,0.01,0.89,-0.04,-0.63,-0.50,
1.998,0.09,0.02,0.90,-0.04,-0.63,-0.50,
1.999,0.09,0.02,0.90,0.06,-0.76,-0.92,
2.001,0.08,0.03,0.90,0.06,-0.76,-0.92,
2.003,0.06,0.04,0.92,0.06,-0.76,-0.92,
2.003,0.06,0.04,0.92,-0.03,-0.65,-0.98,
2.006,0.05,0.04,0.93,-0.03,-0.65,-0.98,
2.008,0.04,0.05,0.93,-0.03,-0.65,-0.98,
2.009,0.04,0.05,0.93,-0.24,-0.43,-0.77,
2.01,0.04,0.05,0.94,-0.24,-0.43,-0.77,
2.017,0.03,0.05,0.94,-0.24,-0.43,-0.77,
2.017,0.03,0.05,0.94,-0.50,-0.30,-0.61,
2.018,0.03,0.06,0.94,-0.50,-0.30,-0.61,
2.019,0.04,0.05,0.94,-0.50,-0.30,-0.61,
2.019,0.04,0.05,0.94,-0.60,-0.29,-0.51,
2.021,0.04,0.05,0.93,-0.60,-0.29,-0.51,
2.023,0.05,0.05,0.94,-0.60,-0.29,-0.51,
2.024,0.05,0.05,0.94,-0.61,-0.25,-0.51,
2.026,0.06,0.05,0.94,-0.61,-0.25,-0.51,
2.028,0.07,0.06,0.94,-0.61,-0.25,-0.51,
2.028,0.07,0.06,0.94,-0.48,-0.28,-0.55,
2.032,0.07,0.06,0.95,-0.48,-0.28,-0.55,
2.033,0.07,0.06,0.94,-0.48,-0.28,-0.55,
2.034,0.07,0.06,0.94,-0.36,-0.24,-0.49,
2.036,0.07,0.06,0.94,-0.36,-0.24,-0.49,
2.038,0.07,0.07,0.94,-0.36,-0.24,-0.49,
2.038,0.07,0.07,0.94,-0.33,-0.21,-0.43,
2.041,0.07,0.07,0.94,-0.33,-0.21,-0.43,
2.043,0.08,0.08,0.93,-0.33,-0.21,-0.43,
2.043,0.08,0.08,0.93,-0.27,-0.16,-0.50,
2.045,0.07,0.08,0.93,-0.27,-0.16,-0.50,
2.056,0.07,0.09,0.93,-0.27,-0.16,-0.50,
2.057,0.07,0.09,0.93,-0.23,-0.08,-0.56,
2.057,0.07,0.09,0.93,-0.23,-0.08,-0.56,
2.058,0.06,0.09,0.93,-0.23,-0.08,-0.56,
2.058,0.06,0.09,0.93,-0.26,-0.01,-0.59,
2.059,0.05,0.10,0.93,-0.26,-0.01,-0.59,
2.059,0.05,0.09,0.93,-0.26,-0.01,-0.59,
2.06,0.05,0.09,0.93,-0.33,0.07,-0.62,
2.06,0.04,0.09,0.93,-0.33,0.07,-0.62,
2.062,0.03,0.09,0.94,-0.33,0.07,-0.62,
2.063,0.03,0.09,0.94,-0.46,0.08,-0.61,
2.074,0.03,0.09,0.94,-0.46,0.08,-0.61,
2.075,0.02,0.08,0.94,-0.46,0.08,-0.61,
2.075,0.02,0.08,0.94,-0.59,0.02,-0.54,
2.076,0.02,0.08,0.95,-0.59,0.02,-0.54,
2.076,0.02,0.07,0.95,-0.59,0.02,-0.54,
2.077,0.02,0.07,0.95,-0.65,-0.05,-0.51,
2.077,0.01,0.07,0.96,-0.65,-0.05,-0.51,
2.077,0.01,0.07,0.97,-0.65,-0.05,-0.51,
2.078,0.01,0.07,0.97,-0.73,-0.13,-0.40,
2.08,0.01,0.06,0.98,-0.73,-0.13,-0.40,
2.082,0.01,0.05,0.99,-0.73,-0.13,-0.40,
2.083,0.01,0.05,0.99,-0.78,-0.21,-0.25,
2.085,0.00,0.05,1.00,-0.78,-0.21,-0.25,
2.087,-0.01,0.04,1.01,-0.78,-0.21,-0.25,
2.087,-0.01,0.04,1.01,-0.79,-0.30,-0.07,
2.089,-0.01,0.04,1.01,-0.79,-0.30,-0.07,
2.092,-0.02,0.04,1.01,-0.79,-0.30,-0.07,
2.092,-0.02,0.04,1.01,-0.89,-0.42,0.15,
2.095,-0.01,0.04,1.02,-0.89,-0.42,0.15,
2.099,-0.02,0.04,1.03,-0.89,-0.42,0.15,
2.099,-0.02,0.04,1.03,-0.99,-0.46,0.21,
2.099,-0.03,0.03,1.03,-0.99,-0.46,0.21,
2.102,-0.03,0.03,1.03,-0.99,-0.46,0.21,
2.102,-0.03,0.03,1.03,-1.05,-0.52,0.33,
2.104,-0.03,0.03,1.02,-1.05,-0.52,0.33,
2.107,-0.03,0.03,1.02,-1.05,-0.52,0.33,
2.107,-0.03,0.03,1.02,-1.15,-0.58,0.38,
2.109,-0.03,0.03,1.01,-1.15,-0.58,0.38,
2.112,-0.03,0.03,1.01,-1.15,-0.58,0.38,
2.112,-0.03,0.03,1.01,-1.12,-0.61,0.31,
2.115,-0.03,0.04,1.00,-1.12,-0.61,0.31,
2.117,-0.03,0.04,0.99,-1.12,-0.61,0.31,
2.117,-0.03,0.04,0.99,-1.09,-0.60,0.20,
2.119,-0.02,0.04,0.98,-1.09,-0.60,0.20,
2.122,-0.03,0.05,0.98,-1.09,-0.60,0.20,
2.122,-0.03,0.05,0.98,-1.09,-0.54,0.07,
2.124,-0.02,0.05,0.96,-1.09,-0.54,0.07,
2.127,-0.02,0.06,0.96,-1.09,-0.54,0.07,
2.127,-0.02,0.06,0.96,-1.05,-0.46,-0.11,
2.129,-0.02,0.07,0.95,-1.05,-0.46,-0.11,
2.133,-0.03,0.07,0.94,-1.05,-0.46,-0.11,
2.134,-0.03,0.07,0.94,-1.00,-0.37,-0.29,
2.134,-0.03,0.08,0.95,-1.00,-0.37,-0.29,
2.137,-0.03,0.08,0.94,-1.00,-0.37,-0.29,
2.142,-0.03,0.08,0.94,-0.98,-0.28,-0.42,
2.143,-0.03,0.09,0.94,-0.98,-0.28,-0.42,
2.143,-0.04,0.10,0.93,-0.98,-0.28,-0.42,
2.144,-0.04,0.10,0.93,-1.06,-0.18,-0.44,
2.145,-0.04,0.10,0.94,-1.06,-0.18,-0.44,
2.147,-0.04,0.10,0.94,-1.06,-0.18,-0.44,
2.147,-0.04,0.10,0.94,-1.07,-0.08,-0.54,
2.156,-0.04,0.11,0.93,-1.07,-0.08,-0.54,
2.157,-0.04,0.11,0.94,-1.07,-0.08,-0.54,
2.157,-0.04,0.11,0.94,-1.13,0.02,-0.52,
2.157,-0.03,0.11,0.93,-1.13,0.02,-0.52,
2.157,-0.03,0.11,0.93,-1.13,0.02,-0.52,
2.158,-0.03,0.11,0.93,-1.10,0.05,-0.54,
2.159,-0.03,0.12,0.94,-1.10,0.05,-0.54,
2.162,-0.03,0.12,0.94,-1.10,0.05,-0.54,
2.162,-0.03,0.12,0.94,-1.02,0.09,-0.57,
2.172,-0.03,0.12,0.94,-1.02,0.09,-0.57,
2.173,-0.03,0.12,0.94,-1.02,0.09,-0.57,
2.173,-0.03,0.12,0.94,-0.97,0.12,-0.52,
2.174,-0.03,0.12,0.94,-0.97,0.12,-0.52,
2.174,-0.03,0.12,0.95,-0.97,0.12,-0.52,
2.174,-0.03,0.12,0.95,-0.94,0.13,-0.47,
2.174,-0.03,0.11,0.95,-0.94,0.13,-0.47,
2.177,-0.03,0.11,0.96,-0.94,0.13,-0.47,
2.177,-0.03,0.11,0.96,-0.97,0.12,-0.43,
2.181,-0.03,0.11,0.97,-0.97,0.12,-0.43,
2.181,-0.03,0.11,0.97,-0.92,0.03,-0.33,
2.181,-0.03,0.10,0.97,-0.92,0.03,-0.33,
2.184,-0.03,0.10,0.98,-0.92,0.03,-0.33,
2.186,-0.03,0.10,0.98,-0.90,-0.00,-0.17,
2.187,-0.04,0.10,1.00,-0.90,-0.00,-0.17,
2.189,-0.04,0.10,1.00,-0.90,-0.00,-0.17,
2.191,-0.05,0.10,1.01,-0.90,-0.00,-0.17,
2.192,-0.05,0.10,1.01,-0.94,-0.05,-0.01,
2.194,-0.05,0.10,1.02,-0.94,-0.05,-0.01,
2.196,-0.05,0.09,1.02,-0.94,-0.05,-0.01,
2.196,-0.05,0.09,1.02,-1.03,-0.07,0.14,
2.198,-0.05,0.09,1.02,-1.03,-0.07,0.14,
2.201,-0.05,0.09,1.02,-1.03,-0.07,0.14,
2.201,-0.05,0.09,1.02,-1.04,-0.11,0.28,
2.204,-0.06,0.09,1.02,-1.04,-0.11,0.28,
2.207,-0.06,0.09,1.02,-1.04,-0.11,0.28,
2.207,-0.06,0.09,1.02,-1.06,-0.12,0.27,
2.209,-0.06,0.09,1.00,-1.06,-0.12,0.27,
2.211,-0.06,0.09,1.00,-1.06,-0.12,0.27,
2.212,-0.06,0.09,1.00,-1.08,-0.18,0.28,
2.214,-0.06,0.09,0.99,-1.08,-0.18,0.28,
2.217,-0.07,0.09,0.98,-1.08,-0.18,0.28,
2.217,-0.07,0.09,0.98,-1.11,-0.17,0.11,
2.218,-0.07,0.09,0.98,-1.11,-0.17,0.11,
2.222,-0.07,0.09,0.97,-1.11,-0.17,0.11,
2.222,-0.07,0.09,0.97,-1.15,-0.18,-0.02,
2.224,-0.08,0.08,0.97,-1.15,-0.18,-0.02,
2.226,-0.08,0.09,0.96,-1.15,-0.18,-0.02,
2.227,-0.08,0.09,0.96,-1.15,-0.18,-0.14,
2.229,-0.08,0.09,0.96,-1.15,-0.18,-0.14,
2.231,-0.08,0.09,0.95,-1.15,-0.18,-0.14,
2.234,-0.08,0.09,0.95,-1.18,-0.22,-0.23,
2.234,-0.09,0.09,0.95,-1.18,-0.22,-0.23,
2.236,-0.09,0.09,0.95,-1.18,-0.22,-0.23,
2.236,-0.09,0.09,0.95,-1.19,-0.17,-0.34,
2.239,-0.10,0.10,0.96,-1.19,-0.17,-0.34,
2.241,-0.10,0.10,0.95,-1.19,-0.17,-0.34,
2.242,-0.10,0.10,0.95,-1.24,-0.16,-0.36,
2.244,-0.11,0.10,0.96,-1.24,-0.16,-0.36,
2.246,-0.11,0.09,0.96,-1.24,-0.16,-0.36,
2.247,-0.11,0.09,0.96,-1.33,-0.14,-0.34,
2.248,-0.11,0.09,0.96,-1.33,-0.14,-0.34,
2.254,-0.11,0.09,0.96,-1.33,-0.14,-0.34,
2.255,-0.11,0.09,0.96,-1.41,-0.14,-0.31,
2.255,-0.11,0.09,0.96,-1.41,-0.14,-0.31,
2.256,-0.11,0.08,0.96,-1.41,-0.14,-0.31,
2.256,-0.11,0.08,0.96,-1.42,-0.18,-0.27,
2.258,-0.11,0.08,0.96,-1.42,-0.18,-0.27,
2.262,-0.11,0.08,0.96,-1.42,-0.18,-0.27,
2.262,-0.11,0.08,0.96,-1.42,-0.24,-0.26,
2.263,-0.11,0.08,0.95,-1.42,-0.24,-0.26,
2.266,-0.11,0.08,0.95,-1.42,-0.24,-0.26,
2.267,-0.11,0.08,0.95,-1.41,-0.28,-0.29,
2.269,-0.11,0.08,0.95,-1.41,-0.28,-0.29,
2.27,-0.11,0.08,0.94,-1.41,-0.28,-0.29,
2.271,-0.11,0.08,0.94,-1.38,-0.31,-0.38,
2.273,-0.10,0.08,0.94,-1.38,-0.31,-0.38,
2.276,-0.10,0.09,0.94,-1.38,-0.31,-0.38,
2.276,-0.10,0.09,0.94,-1.31,-0.30,-0.43,
2.278,-0.10,0.09,0.94,-1.31,-0.30,-0.43,
2.281,-0.10,0.10,0.93,-1.31,-0.30,-0.43,
2.281,-0.10,0.10,0.93,-1.26,-0.25,-0.52,
2.283,-0.10,0.10,0.93,-1.26,-0.25,-0.52,
2.287,-0.10,0.10,0.93,-1.19,-0.17,-0.53,
2.287,-0.10,0.10,0.93,-1.19,-0.17,-0.53,
2.289,-0.10,0.11,0.93,-1.19,-0.17,-0.53,
2.291,-0.10,0.11,0.93,-1.19,-0.17,-0.53,
2.291,-0.10,0.11,0.93,-1.21,-0.10,-0.58,
2.293,-0.10,0.11,0.92,-1.21,-0.10,-0.58,
2.296,-0.10,0.12,0.92,-1.21,-0.10,-0.58,
2.296,-0.10,0.12,0.92,-1.16,-0.04,-0.59,
2.298,-0.09,0.11,0.93,-1.16,-0.04,-0.59,
2.301,-0.09,0.12,0.92,-1.16,-0.04,-0.59,
2.302,-0.09,0.12,0.92,-1.13,0.01,-0.66,
2.305,-0.09,0.11,0.92,-1.13,0.01,-0.66,
2.306,-0.09,0.11,0.93,-1.13,0.01,-0.66,
2.306,-0.09,0.11,0.93,-1.07,0.03,-0.64,
2.308,-0.09,0.10,0.93,-1.07,0.03,-0.64,
2.31,-0.09,0.10,0.93,-1.07,0.03,-0.64,
2.31,-0.09,0.10,0.93,-1.07,-0.03,-0.63,
2.312,-0.10,0.10,0.94,-1.07,-0.03,-0.63,
2.317,-0.10,0.10,0.94,-1.07,-0.03,-0.63,
2.318,-0.10,0.10,0.94,-1.06,-0.09,-0.57,
2.318,-0.10,0.09,0.94,-1.06,-0.09,-0.57,
2.32,-0.11,0.09,0.95,-1.06,-0.09,-0.57,
2.32,-0.11,0.09,0.95,-1.11,-0.13,-0.51,
2.322,-0.11,0.08,0.95,-1.11,-0.13,-0.51,
2.325,-0.11,0.07,0.96,-1.11,-0.13,-0.51,
2.325,-0.11,0.07,0.96,-1.15,-0.22,-0.41,
2.327,-0.11,0.07,0.96,-1.15,-0.22,-0.41,
2.33,-0.11,0.07,0.97,-1.15,-0.22,-0.41,
2.33,-0.11,0.07,0.97,-1.18,-0.30,-0.31,
2.334,-0.11,0.06,0.98,-1.18,-0.30,-0.31,
2.336,-0.11,0.06,0.98,-1.18,-0.30,-0.31,
2.336,-0.11,0.06,0.98,-1.19,-0.39,-0.21,
2.337,-0.12,0.06,0.99,-1.19,-0.39,-0.21,
2.34,-0.12,0.06,0.99,-1.19,-0.39,-0.21,
2.34,-0.12,0.06,0.99,-1.20,-0.47,-0.08,
2.342,-0.12,0.05,1.00,-1.20,-0.47,-0.08,
2.344,-0.12,0.06,1.01,-1.20,-0.47,-0.08,
2.344,-0.12,0.06,1.01,-1.25,-0.49,0.01,
2.347,-0.13,0.06,1.01,-1.25,-0.49,0.01,
2.349,-0.13,0.06,1.02,-1.25,-0.49,0.01,
2.35,-0.13,0.06,1.02,-1.28,-0.52,0.16,
2.352,-0.13,0.06,1.02,-1.28,-0.52,0.16,
2.354,-0.13,0.06,1.02,-1.28,-0.52,0.16,
2.354,-0.13,0.06,1.02,-1.35,-0.48,0.26,
2.357,-0.13,0.06,1.03,-1.35,-0.48,0.26,
2.359,-0.12,0.07,1.03,-1.35,-0.48,0.26,
2.359,-0.12,0.07,1.03,-1.31,-0.42,0.31,
2.362,-0.12,0.07,1.03,-1.31,-0.42,0.31,
2.364,-0.12,0.07,1.02,-1.31,-0.42,0.31,
2.366,-0.12,0.07,1.02,-1.27,-0.39,0.37,
2.373,-0.12,0.07,1.02,-1.27,-0.39,0.37,
2.374,-0.11,0.08,1.01,-1.27,-0.39,0.37,
2.374,-0.11,0.08,1.01,-1.24,-0.35,0.34,
2.375,-0.11,0.08,1.00,-1.24,-0.35,0.34,
2.375,-0.10,0.08,1.00,-1.24,-0.35,0.34,
2.375,-0.10,0.08,1.00,-1.18,-0.33,0.23,
2.377,-0.10,0.08,0.99,-1.18,-0.33,0.23,
2.379,-0.10,0.08,0.98,-1.18,-0.33,0.23,
2.379,-0.10,0.08,0.98,-1.07,-0.29,0.10,
2.382,-0.09,0.08,0.98,-1.07,-0.29,0.10,
2.388,-0.09,0.09,0.96,-1.07,-0.29,0.10,
2.389,-0.09,0.09,0.96,-0.97,-0.28,-0.06,
2.389,-0.08,0.08,0.96,-0.97,-0.28,-0.06,
2.389,-0.08,0.08,0.95,-0.97,-0.28,-0.06,
2.389,-0.08,0.08,0.95,-0.89,-0.22,-0.20,
2.392,-0.07,0.08,0.95,-0.89,-0.22,-0.20,
2.394,-0.07,0.09,0.95,-0.89,-0.22,-0.20,
2.394,-0.07,0.09,0.95,-0.80,-0.24,-0.31,
2.397,-0.06,0.09,0.94,-0.80,-0.24,-0.31,
2.4,-0.06,0.09,0.94,-0.80,-0.24,-0.31,
2.4,-0.06,0.09,0.94,-0.70,-0.24,-0.42,
2.401,-0.06,0.09,0.94,-0.70,-0.24,-0.42,
2.404,-0.06,0.10,0.93,-0.70,-0.24,-0.42,
2.404,-0.06,0.10,0.93,-0.60,-0.16,-0.49,
2.406,-0.05,0.10,0.93,-0.60,-0.16,-0.49,
2.409,-0.05,0.10,0.93,-0.60,-0.16,-0.49,
2.409,-0.05,0.10,0.93,-0.60,-0.12,-0.51,
2.411,-0.04,0.11,0.93,-0.60,-0.12,-0.51,
2.414,-0.03,0.11,0.94,-0.60,-0.12,-0.51,
2.414,-0.03,0.11,0.94,-0.52,-0.06,-0.53,
2.416,-0.03,0.11,0.94,-0.52,-0.06,-0.53,
2.418,-0.03,0.12,0.95,-0.52,-0.06,-0.53,
2.419,-0.03,0.12,0.95,-0.37,0.03,-0.52,
2.421,-0.02,0.12,0.95,-0.37,0.03,-0.52,
2.424,-0.02,0.12,0.95,-0.32,0.04,-0.44,
2.424,-0.02,0.11,0.95,-0.32,0.04,-0.44,
2.426,-0.02,0.12,0.96,-0.32,0.04,-0.44,
2.429,-0.01,0.11,0.96,-0.32,0.04,-0.44,
2.429,-0.01,0.11,0.96,-0.24,0.08,-0.38,
2.431,-0.02,0.12,0.97,-0.24,0.08,-0.38,
2.434,-0.01,0.12,0.97,-0.24,0.08,-0.38,
2.435,-0.01,0.12,0.97,-0.17,0.09,-0.28,
2.436,-0.01,0.11,0.98,-0.17,0.09,-0.28,
2.439,-0.01,0.11,0.98,-0.17,0.10,-0.20,
2.439,-0.01,0.11,0.98,-0.17,0.10,-0.20,
2.441,-0.01,0.11,0.99,-0.17,0.10,-0.20,
2.443,-0.02,0.11,0.99,-0.17,0.10,-0.20,
2.444,-0.02,0.11,0.99,-0.15,0.02,-0.09,
2.446,-0.02,0.11,1.01,-0.15,0.02,-0.09,
2.45,-0.02,0.10,1.01,-0.15,0.02,-0.09,
2.45,-0.02,0.10,1.01,-0.20,0.02,0.02,
2.451,-0.02,0.10,1.02,-0.20,0.02,0.02,
2.454,-0.02,0.10,1.02,-0.25,-0.02,0.21,
2.454,-0.02,0.10,1.02,-0.25,-0.02,0.21,
2.456,-0.03,0.10,1.03,-0.25,-0.02,0.21,
2.458,-0.03,0.10,1.03,-0.25,-0.02,0.21,
2.459,-0.03,0.10,1.03,-0.26,-0.05,0.29,
2.461,-0.03,0.09,1.04,-0.26,-0.05,0.29,
2.463,-0.04,0.09,1.05,-0.26,-0.05,0.29,
2.464,-0.04,0.09,1.05,-0.36,-0.07,0.40,
2.467,-0.04,0.09,1.05,-0.36,-0.07,0.40,
2.474,-0.04,0.09,1.06,-0.36,-0.07,0.40,
2.475,-0.04,0.09,1.06,-0.36,-0.12,0.53,
2.475,-0.05,0.08,1.06,-0.36,-0.12,0.53,
2.476,-0.05,0.08,1.06,-0.36,-0.12,0.53,
2.476,-0.05,0.08,1.06,-0.44,-0.16,0.65,
2.477,-0.06,0.08,1.07,-0.44,-0.16,0.65,
2.479,-0.06,0.08,1.07,-0.44,-0.16,0.65,
2.48,-0.06,0.08,1.07,-0.51,-0.20,0.71,
2.482,-0.06,0.08,1.06,-0.51,-0.20,0.71,
2.49,-0.05,0.08,1.06,-0.51,-0.20,0.71,
2.491,-0.05,0.08,1.06,-0.57,-0.23,0.76,
2.491,-0.04,0.08,1.05,-0.57,-0.23,0.76,
2.492,-0.04,0.08,1.04,-0.57,-0.23,0.76,
2.492,-0.04,0.08,1.04,-0.56,-0.25,0.66,
2.492,-0.04,0.08,1.04,-0.56,-0.25,0.66,
2.493,-0.04,0.09,1.03,-0.56,-0.25,0.66,
2.494,-0.04,0.09,1.03,-0.45,-0.24,0.52,
2.496,-0.03,0.09,1.02,-0.45,-0.24,0.52,
2.499,-0.03,0.09,1.01,-0.45,-0.24,0.52,
2.499,-0.03,0.09,1.01,-0.38,-0.20,0.40,
2.502,-0.02,0.10,1.01,-0.38,-0.20,0.40,
2.503,-0.02,0.10,1.00,-0.38,-0.20,0.40,
2.503,-0.02,0.10,1.00,-0.31,-0.16,0.23,
2.508,-0.02,0.11,0.98,-0.31,-0.16,0.23,
2.508,-0.01,0.11,0.98,-0.31,-0.16,0.23,
2.509,-0.01,0.11,0.98,-0.25,-0.05,0.09,
2.511,-0.01,0.12,0.97,-0.25,-0.05,0.09,
2.513,-0.01,0.13,0.97,-0.25,-0.05,0.09,
2.513,-0.01,0.13,0.97,-0.20,0.05,-0.11,
2.517,-0.01,0.13,0.96,-0.20,0.05,-0.11,
2.518,-0.01,0.13,0.96,-0.20,0.05,-0.11,
2.518,-0.01,0.13,0.96,-0.16,0.12,-0.21,
2.521,-0.01,0.14,0.96,-0.16,0.12,-0.21,
2.523,-0.00,0.14,0.95,-0.16,0.12,-0.21,
2.523,-0.00,0.14,0.95,-0.14,0.17,-0.31,
2.526,0.02,0.15,0.95,-0.14,0.17,-0.31,
2.528,0.05,0.16,0.94,-0.14,0.17,-0.31,
2.529,0.05,0.16,0.94,-0.09,0.28,-0.38,
2.531,0.07,0.18,0.94,-0.09,0.28,-0.38,
2.535,0.10,0.20,0.94,-0.09,0.28,-0.38,
2.536,0.10,0.20,0.94,0.29,0.44,-0.45,
2.536,0.13,0.22,0.94,0.29,0.44,-0.45,
2.538,0.15,0.24,0.95,0.29,0.44,-0.45,
2.539,0.15,0.24,0.95,0.78,0.72,-0.47,
2.541,0.16,0.24,0.98,0.78,0.72,-0.47,
2.543,0.15,0.25,1.00,0.78,0.72,-0.47,
2.544,0.15,0.25,1.00,1.30,1.14,-0.43,
2.546,0.13,0.24,1.01,1.30,1.14,-0.43,
2.548,0.11,0.23,1.02,1.30,1.14,-0.43,
2.549,0.11,0.23,1.02,1.41,1.25,-0.03,
2.551,0.10,0.23,1.02,1.41,1.25,-0.03,
2.554,0.10,0.23,1.02,1.09,1.18,0.26,
2.554,0.09,0.21,1.02,1.09,1.18,0.26,
2.556,0.08,0.20,1.02,1.09,1.18,0.26,
2.558,0.07,0.18,1.01,1.09,1.18,0.26,
2.559,0.07,0.18,1.01,0.86,1.00,0.27,
2.561,0.05,0.16,0.99,0.86,1.00,0.27,
2.564,0.04,0.15,0.99,0.86,1.00,0.27,
2.564,0.04,0.15,0.99,0.65,0.68,0.20,
2.566,0.02,0.14,0.98,0.65,0.68,0.20,
2.57,0.01,0.13,0.99,0.65,0.68,0.20,
2.571,0.01,0.13,0.99,0.34,0.37,-0.00,
2.572,0.00,0.13,0.99,0.34,0.37,-0.00,
2.573,0.00,0.12,0.99,0.34,0.37,-0.00,
2.573,0.00,0.12,0.99,0.10,0.19,-0.05,
2.575,0.00,0.12,0.99,0.10,0.19,-0.05,
2.578,0.01,0.12,0.99,0.10,0.19,-0.05,
2.579,0.01,0.12,0.99,-0.04,0.05,0.01,
2.581,0.00,0.11,1.00,-0.04,0.05,0.01,
2.583,0.00,0.12,0.99,-0.04,0.05,0.01,
2.583,0.00,0.12,0.99,-0.02,-0.04,0.02,
2.589,0.00,0.12,0.99,-0.02,-0.04,0.02,
2.59,0.00,0.12,0.99,-0.02,-0.04,0.02,
2.59,0.00,0.12,0.99,-0.04,-0.04,0.03,
2.59,0.00,0.11,0.99,-0.04,-0.04,0.03,
2.593,-0.00,0.11,1.00,-0.04,-0.04,0.03,
2.593,-0.00,0.11,1.00,-0.04,-0.02,0.01,
2.595,0.00,0.11,0.99,-0.04,-0.02,0.01,
2.597,0.01,0.11,0.99,-0.04,-0.02,0.01,
2.598,0.01,0.11,0.99,-0.06,-0.06,0.03,
2.6,0.01,0.11,0.99,-0.06,-0.06,0.03,
2.603,0.01,0.12,0.99,-0.06,-0.06,0.03,
2.603,0.01,0.12,0.99,-0.01,-0.08,0.01,
2.605,0.01,0.12,0.99,-0.01,-0.08,0.01,
2.607,0.01,0.12,0.98,-0.01,-0.08,0.01,
2.607,0.01,0.12,0.98,0.01,-0.03,-0.03,
2.609,0.01,0.12,0.98,0.01,-0.03,-0.03,
2.612,0.01,0.12,0.98,0.06,0.01,-0.05,
2.612,0.01,0.13,0.99,0.06,0.01,-0.05,
2.614,0.01,0.13,0.98,0.06,0.01,-0.05,
2.618,0.01,0.13,0.98,0.06,0.01,-0.05,
2.619,0.01,0.13,0.98,0.03,0.05,-0.05,
2.62,0.02,0.13,0.98,0.03,0.05,-0.05,
2.622,0.01,0.13,0.98,0.03,0.05,-0.05,
2.622,0.01,0.13,0.98,0.04,0.07,-0.12,
2.624,0.01,0.12,0.98,0.04,0.07,-0.12,
2.627,0.01,0.12,0.98,0.05,0.07,-0.12,
2.628,0.01,0.13,0.97,0.05,0.07,-0.12,
2.63,0.00,0.12,0.97,0.05,0.07,-0.12,
2.632,-0.00,0.12,0.98,0.05,0.07,-0.12,
2.635,-0.00,0.12,0.98,0.00,0.05,-0.15,
2.635,-0.00,0.11,0.98,0.00,0.05,-0.15,
2.638,-0.00,0.11,0.98,0.00,0.05,-0.15,
2.638,-0.00,0.11,0.98,-0.05,0.02,-0.13,
2.64,-0.01,0.11,0.98,-0.05,0.02,-0.13,
2.642,-0.02,0.10,0.99,-0.05,0.02,-0.13,
2.642,-0.02,0.10,0.99,-0.11,-0.06,-0.09,
2.645,-0.02,0.10,0.99,-0.11,-0.06,-0.09,
2.647,-0.03,0.10,0.99,-0.11,-0.06,-0.09,
2.647,-0.03,0.10,0.99,-0.21,-0.13,-0.04,
2.649,-0.03,0.09,0.99,-0.21,-0.13,-0.04,
2.653,-0.03,0.09,0.99,-0.29,-0.22,-0.02,
2.653,-0.03,0.09,0.98,-0.29,-0.22,-0.02,
2.654,-0.04,0.09,0.98,-0.29,-0.22,-0.02,
2.656,-0.04,0.09,0.97,-0.29,-0.22,-0.02,
2.656,-0.04,0.09,0.97,-0.33,-0.26,-0.06,
2.659,-0.04,0.09,0.97,-0.33,-0.26,-0.06,
2.662,-0.04,0.09,0.97,-0.33,-0.26,-0.06,
2.663,-0.04,0.09,0.97,-0.40,-0.26,-0.15,
2.664,-0.04,0.09,0.97,-0.40,-0.26,-0.15,
2.667,-0.04,0.09,0.97,-0.40,-0.26,-0.15,
2.668,-0.04,0.09,0.97,-0.44,-0.31,-0.21,
2.669,-0.04,0.08,0.96,-0.44,-0.31,-0.21,
2.671,-0.03,0.09,0.97,-0.44,-0.31,-0.21,
2.672,-0.03,0.09,0.97,-0.39,-0.31,-0.21,
2.673,-0.03,0.09,0.97,-0.39,-0.31,-0.21,
2.677,-0.02,0.09,0.97,-0.39,-0.31,-0.21,
2.677,-0.02,0.09,0.97,-0.34,-0.32,-0.24,
2.679,-0.02,0.09,0.98,-0.34,-0.32,-0.24,
2.681,-0.02,0.09,0.99,-0.34,-0.32,-0.24,
2.681,-0.02,0.09,0.99,-0.26,-0.31,-0.20,
2.69,-0.02,0.09,0.99,-0.26,-0.31,-0.20,
2.691,-0.01,0.09,1.01,-0.26,-0.31,-0.20,
2.692,-0.01,0.09,1.01,-0.20,-0.32,-0.06,
2.692,-0.01,0.10,1.00,-0.20,-0.32,-0.06,
2.692,-0.01,0.10,1.00,-0.13,-0.26,0.09,
2.692,-0.01,0.11,1.00,-0.13,-0.26,0.09,
2.694,-0.01,0.11,1.01,-0.13,-0.26,0.09,
2.696,-0.00,0.11,1.00,-0.13,-0.26,0.09,
2.696,-0.00,0.11,1.00,-0.08,-0.15,0.13,
2.698,-0.00,0.12,1.00,-0.08,-0.15,0.13,
2.703,-0.00,0.12,1.01,-0.08,-0.15,0.13,
2.704,-0.00,0.12,1.01,-0.02,-0.05,0.15,
2.704,0.01,0.13,1.01,-0.02,-0.05,0.15,
2.706,0.01,0.14,1.01,-0.02,-0.05,0.15,
2.706,0.01,0.14,1.01,0.01,0.04,0.14,
2.708,0.01,0.14,1.01,0.01,0.04,0.14,
2.711,0.02,0.14,1.01,0.01,0.04,0.14,
2.711,0.02,0.14,1.01,0.09,0.15,0.19,
2.713,0.01,0.14,1.02,0.09,0.15,0.19,
2.716,0.02,0.14,1.01,0.09,0.15,0.19,
2.716,0.02,0.14,1.01,0.17,0.22,0.18,
2.72,0.02,0.15,1.01,0.17,0.22,0.18,
2.72,0.02,0.15,1.01,0.17,0.22,0.18,
2.721,0.02,0.15,1.01,0.18,0.23,0.24,
2.723,0.03,0.15,1.00,0.18,0.23,0.24,
2.726,0.03,0.15,1.00,0.18,0.23,0.24,
2.726,0.03,0.15,1.00,0.25,0.29,0.18,
2.728,0.03,0.15,1.00,0.25,0.29,0.18,
2.73,0.03,0.15,1.00,0.25,0.29,0.18,
2.73,0.03,0.15,1.00,0.30,0.31,0.10,
2.735,0.03,0.16,1.00,0.30,0.31,0.10,
2.736,0.03,0.15,1.00,0.30,0.31,0.10,
2.737,0.03,0.15,1.00,0.33,0.30,0.09,
2.738,0.03,0.15,1.00,0.33,0.30,0.09,
2.74,0.03,0.15,0.99,0.33,0.30,0.09,
2.741,0.03,0.15,0.99,0.31,0.34,0.05,
2.743,0.02,0.15,0.99,0.31,0.34,0.05,
2.745,0.02,0.14,0.99,0.31,0.34,0.05,
2.746,0.02,0.14,0.99,0.28,0.27,0.04,
2.748,0.01,0.14,0.99,0.28,0.27,0.04,
2.751,0.01,0.14,0.99,0.28,0.27,0.04,
2.752,0.01,0.14,0.99,0.17,0.25,0.02,
2.753,0.00,0.13,0.99,0.17,0.25,0.02,
2.755,0.00,0.12,0.98,0.17,0.25,0.02,
2.756,0.00,0.12,0.98,0.09,0.17,-0.03,
2.758,-0.00,0.12,0.99,0.09,0.17,-0.03,
2.76,-0.00,0.11,0.98,0.09,0.17,-0.03,
2.76,-0.00,0.11,0.98,0.01,0.06,-0.03,
2.763,-0.00,0.11,0.99,0.01,0.06,-0.03,
2.765,-0.00,0.11,0.99,0.01,0.06,-0.03,
2.765,-0.00,0.11,0.99,-0.03,-0.04,-0.04,
2.768,-0.00,0.10,0.98,-0.03,-0.04,-0.04,
2.77,-0.01,0.11,0.98,-0.03,-0.04,-0.04,
2.77,-0.01,0.11,0.98,-0.04,-0.11,-0.05,
2.773,-0.01,0.11,0.98,-0.04,-0.11,-0.05,
2.775,-0.01,0.11,0.99,-0.04,-0.11,-0.05,
2.776,-0.01,0.11,0.99,-0.09,-0.14,-0.07,
2.777,-0.01,0.11,0.98,-0.09,-0.14,-0.07,
2.78,-0.01,0.11,0.98,-0.14,-0.13,-0.07,
2.78,-0.01,0.11,0.98,-0.14,-0.13,-0.07,
2.782,-0.02,0.11,0.99,-0.14,-0.13,-0.07,
2.786,-0.01,0.11,0.99,-0.14,-0.13,-0.07,
2.787,-0.01,0.11,0.99,-0.16,-0.10,-0.08,
2.788,-0.01,0.12,0.98,-0.16,-0.10,-0.08,
2.79,-0.01,0.11,0.99,-0.16,-0.10,-0.08,
2.79,-0.01,0.11,0.99,-0.19,-0.07,-0.04,
2.792,-0.01,0.12,0.99,-0.19,-0.07,-0.04,
2.795,-0.02,0.11,0.99,-0.19,-0.07,-0.04,
2.795,-0.02,0.11,0.99,-0.17,-0.05,-0.05,
2.799,-0.01,0.12,0.98,-0.17,-0.05,-0.05,
2.8,-0.01,0.11,0.97,-0.17,-0.05,-0.05,
2.8,-0.01,0.11,0.97,-0.21,-0.04,-0.04,
2.81,-0.01,0.12,0.98,-0.21,-0.04,-0.04,
2.811,-0.01,0.12,0.98,-0.21,-0.04,-0.04,
2.811,-0.01,0.12,0.98,-0.18,-0.04,-0.11,
2.812,-0.01,0.11,0.98,-0.18,-0.04,-0.11,
2.812,-0.01,0.12,0.99,-0.18,-0.04,-0.11,
2.812,-0.01,0.12,0.99,-0.16,-0.00,-0.09,
2.813,-0.00,0.11,0.99,-0.16,-0.00,-0.09,
2.815,-0.00,0.11,0.99,-0.13,-0.04,-0.05,
2.816,0.00,0.11,0.98,-0.13,-0.04,-0.05,
2.82,0.01,0.11,0.98,-0.13,-0.04,-0.05,
2.82,0.01,0.11,0.99,-0.13,-0.04,-0.05,
2.821,0.01,0.11,0.99,-0.07,-0.07,-0.05,
2.826,0.01,0.11,0.99,-0.07,-0.07,-0.05,
2.827,0.01,0.11,0.99,-0.07,-0.07,-0.05,
2.828,0.01,0.11,0.99,-0.00,-0.05,-0.04,
2.828,0.02,0.11,1.00,-0.00,-0.05,-0.04,
2.83,0.02,0.11,0.99,-0.00,-0.05,-0.04,
2.83,0.02,0.11,0.99,0.03,-0.06,-0.03,
2.832,0.02,0.11,1.00,0.03,-0.06,-0.03,
2.836,0.02,0.11,0.98,0.03,-0.06,-0.03,
2.836,0.02,0.11,0.98,0.11,-0.05,0.04,
2.837,0.03,0.10,0.97,0.11,-0.05,0.04,
2.84,0.03,0.10,0.94,0.11,-0.05,0.04,
2.84,0.03,0.10,0.94,0.13,-0.08,0.02,
2.843,0.03,0.11,0.94,0.13,-0.08,0.02,
2.844,0.02,0.11,0.94,0.13,-0.08,0.02,
2.845,0.02,0.11,0.94,0.20,-0.11,-0.34,
2.847,0.01,0.11,0.95,0.20,-0.11,-0.34,
2.849,0.01,0.11,0.96,0.20,-0.11,-0.34,
2.849,0.01,0.11,0.96,0.19,-0.08,-0.49,
2.852,-0.00,0.11,0.98,0.19,-0.08,-0.49,
2.855,-0.01,0.11,0.99,0.19,-0.08,-0.49,
2.855,-0.01,0.11,0.99,0.01,-0.08,-0.35,
2.857,-0.01,0.10,0.99,0.01,-0.08,-0.35,
2.859,-0.01,0.10,1.00,0.01,-0.08,-0.35,
2.859,-0.01,0.10,1.00,-0.14,-0.09,-0.05,
2.862,-0.01,0.10,0.99,-0.14,-0.09,-0.05,
2.865,-0.01,0.09,1.00,-0.14,-0.09,-0.05,
2.865,-0.01,0.09,1.00,-0.19,-0.15,0.07,
2.869,-0.00,0.09,1.00,-0.19,-0.15,0.07,
2.87,-0.00,0.09,1.00,-0.19,-0.15,0.07,
2.87,-0.00,0.09,1.00,-0.16,-0.18,0.06,
2.872,-0.00,0.09,0.99,-0.16,-0.18,0.06,
2.874,-0.00,0.09,0.99,-0.16,-0.18,0.06,
2.874,-0.00,0.09,0.99,-0.11,-0.21,0.08,
2.876,-0.00,0.10,0.99,-0.11,-0.21,0.08,
2.88,-0.00,0.10,0.99,-0.11,-0.21,0.08,
2.88,-0.00,0.10,0.99,-0.12,-0.19,-0.02,
2.882,-0.00,0.11,1.00,-0.12,-0.19,-0.02,
2.886,0.00,0.11,1.01,-0.12,-0.19,-0.02,
2.887,0.00,0.11,1.01,-0.14,-0.11,0.03,
2.887,0.00,0.12,1.01,-0.14,-0.11,0.03,
2.889,0.01,0.11,1.01,-0.14,-0.11,0.03,
2.889,0.01,0.11,1.01,-0.11,-0.05,0.15,
2.892,0.02,0.11,1.02,-0.11,-0.05,0.15,
2.894,0.02,0.12,1.02,-0.11,-0.05,0.15,
2.894,0.02,0.12,1.02,-0.04,0.03,0.20,
2.897,0.02,0.12,1.03,-0.04,0.03,0.20,
2.9,0.02,0.12,1.03,-0.04,0.03,0.20,
2.9,0.02,0.12,1.03,0.06,0.03,0.30,
2.906,0.03,0.12,1.02,0.06,0.03,0.30,
2.907,0.04,0.12,1.02,0.06,0.03,0.30,
2.907,0.04,0.12,1.02,0.12,0.07,0.37,
2.907,0.04,0.12,1.02,0.12,0.07,0.37,
2.909,0.04,0.12,1.03,0.12,0.07,0.37,
2.909,0.04,0.12,1.03,0.21,0.10,0.31,
2.911,0.04,0.11,1.03,0.21,0.10,0.31,
2.914,0.03,0.11,1.02,0.21,0.10,0.31,
2.914,0.03,0.11,1.02,0.24,0.06,0.31,
2.917,0.03,0.11,1.01,0.24,0.06,0.31,
2.921,0.03,0.11,1.01,0.24,0.06,0.31,
2.921,0.03,0.11,1.01,0.21,0.01,0.33,
2.922,0.03,0.11,1.00,0.21,0.01,0.33,
2.924,0.03,0.11,1.00,0.21,0.01,0.33,
2.924,0.03,0.11,1.00,0.13,0.02,0.17,
2.928,0.03,0.11,0.99,0.13,0.02,0.17,
2.929,0.03,0.11,0.99,0.13,0.02,0.17,
2.929,0.03,0.11,0.99,0.09,-0.04,0.08,
2.931,0.03,0.11,0.98,0.09,-0.04,0.08,
2.934,0.03,0.11,0.99,0.09,-0.04,0.08,
2.934,0.03,0.11,0.99,0.11,-0.05,-0.03,
2.938,0.03,0.11,0.98,0.11,-0.05,-0.03,
