
time,gFx,gFy,gFz,ax,ay,az,
0.002,-0.00,0.20,1.01,0.41,-0.07,0.51,
0.002,-0.00,0.20,1.01,0.43,-0.11,0.34,
0.002,-0.01,0.20,1.00,0.43,-0.11,0.34,
0.003,-0.02,0.21,0.99,0.43,-0.11,0.34,
0.003,-0.02,0.21,0.99,0.32,-0.09,0.32,
0.005,-0.03,0.21,0.99,0.32,-0.09,0.32,
0.008,-0.04,0.22,0.99,0.32,-0.09,0.32,
0.008,-0.04,0.22,0.99,0.16,-0.03,0.22,
0.01,-0.04,0.22,0.98,0.16,-0.03,0.22,
0.013,-0.05,0.22,0.97,0.16,-0.03,0.22,
0.013,-0.05,0.22,0.97,-0.02,0.02,0.13,
0.016,-0.05,0.23,0.97,-0.02,0.02,0.13,
0.018,-0.05,0.23,0.96,-0.02,0.02,0.13,
0.018,-0.05,0.23,0.96,-0.13,0.07,-0.00,
0.02,-0.06,0.22,0.96,-0.13,0.07,-0.00,
0.023,-0.06,0.22,0.96,-0.13,0.07,-0.00,
0.023,-0.06,0.22,0.96,-0.18,0.15,-0.08,
0.025,-0.06,0.22,0.95,-0.18,0.15,-0.08,
0.028,-0.06,0.22,0.95,-0.18,0.15,-0.08,
0.028,-0.06,0.22,0.95,-0.27,0.09,-0.14,
0.032,-0.05,0.22,0.96,-0.27,0.09,-0.14,
0.033,-0.05,0.22,0.95,-0.27,0.09,-0.14,
0.033,-0.05,0.22,0.95,-0.26,0.10,-0.20,
0.035,-0.05,0.21,0.94,-0.26,0.10,-0.20,
0.038,-0.05,0.21,0.94,-0.21,0.03,-0.21,
0.038,-0.05,0.21,0.95,-0.21,0.03,-0.21,
0.04,-0.05,0.21,0.94,-0.21,0.03,-0.21,
0.043,-0.05,0.20,0.94,-0.21,0.03,-0.21,
0.043,-0.05,0.20,0.94,-0.19,-0.03,-0.28,
0.045,-0.05,0.20,0.94,-0.19,-0.03,-0.28,
0.048,-0.05,0.21,0.93,-0.19,-0.03,-0.28,
0.048,-0.05,0.21,0.93,-0.18,-0.08,-0.31,
0.05,-0.05,0.20,0.94,-0.18,-0.08,-0.31,
0.053,-0.04,0.20,0.94,-0.18,-0.08,-0.31,
0.053,-0.04,0.20,0.94,-0.12,-0.08,-0.36,
0.055,-0.05,0.20,0.93,-0.12,-0.08,-0.36,
0.057,-0.05,0.21,0.94,-0.12,-0.08,-0.36,
0.057,-0.05,0.21,0.94,-0.10,-0.11,-0.35,
0.06,-0.05,0.22,0.94,-0.10,-0.11,-0.35,
0.062,-0.05,0.22,0.95,-0.10,-0.11,-0.35,
0.062,-0.05,0.22,0.95,-0.13,-0.04,-0.35,
0.065,-0.05,0.22,0.95,-0.13,-0.04,-0.35,
0.067,-0.05,0.22,0.95,-0.13,-0.04,-0.35,
0.068,-0.05,0.22,0.95,-0.12,0.03,-0.27,
0.069,-0.05,0.22,0.96,-0.12,0.03,-0.27,
0.072,-0.05,0.23,0.97,-0.12,0.03,-0.27,
0.072,-0.05,0.23,0.97,-0.14,0.09,-0.20,
0.074,-0.05,0.23,0.97,-0.14,0.09,-0.20,
0.077,-0.05,0.23,0.97,-0.14,0.09,-0.20,
0.077,-0.05,0.23,0.97,-0.14,0.13,-0.10,
0.079,-0.05,0.23,0.98,-0.14,0.13,-0.10,
0.082,-0.04,0.23,0.98,-0.14,0.13,-0.10,
0.083,-0.04,0.23,0.98,-0.15,0.16,-0.01,
0.084,-0.04,0.23,0.99,-0.15,0.16,-0.01,
0.087,-0.04,0.23,1.00,-0.15,0.16,-0.01,
0.087,-0.04,0.23,1.00,-0.10,0.20,0.09,
0.089,-0.04,0.22,1.00,-0.10,0.20,0.09,
0.092,-0.04,0.22,1.01,-0.10,0.20,0.09,
0.092,-0.04,0.22,1.01,-0.07,0.19,0.25,
0.094,-0.03,0.22,1.02,-0.07,0.19,0.25,
0.097,-0.03,0.22,1.02,-0.07,0.19,0.25,
0.097,-0.03,0.22,1.02,-0.03,0.12,0.30,
0.099,-0.03,0.22,1.01,-0.03,0.12,0.30,
0.102,-0.03,0.21,1.01,-0.03,0.12,0.30,
0.102,-0.03,0.21,1.01,0.05,0.12,0.42,
0.105,-0.02,0.21,1.02,0.05,0.12,0.42,
0.107,-0.02,0.22,1.02,0.05,0.12,0.42,
0.107,-0.02,0.22,1.02,0.06,0.06,0.39,
0.109,-0.02,0.22,1.02,0.06,0.06,0.39,
0.112,-0.02,0.21,1.02,0.06,0.06,0.39,
0.112,-0.02,0.21,1.02,0.12,0.05,0.43,
0.116,-0.02,0.21,1.02,0.12,0.05,0.43,
0.117,-0.02,0.21,1.02,0.12,0.05,0.43,
0.117,-0.02,0.21,1.02,0.14,0.03,0.44,
0.119,-0.02,0.21,1.02,0.14,0.03,0.44,
0.122,-0.02,0.21,1.02,0.14,0.03,0.44,
0.122,-0.02,0.21,1.02,0.16,0.01,0.47,
0.124,-0.02,0.20,1.02,0.16,0.01,0.47,
0.127,-0.03,0.20,1.01,0.16,0.01,0.47,
0.127,-0.03,0.20,1.01,0.15,-0.02,0.42,
0.129,-0.02,0.20,1.01,0.15,-0.02,0.42,
0.132,-0.03,0.20,1.01,0.15,-0.02,0.42,
0.132,-0.03,0.20,1.01,0.10,-0.05,0.39,
0.134,-0.03,0.20,1.01,0.10,-0.05,0.39,
0.137,-0.03,0.20,1.00,0.10,-0.05,0.39,
0.137,-0.03,0.20,1.00,0.09,-0.05,0.29,
0.139,-0.03,0.20,1.00,0.09,-0.05,0.29,
0.142,-0.03,0.20,1.00,0.09,-0.05,0.29,
0.142,-0.03,0.20,1.00,0.06,-0.07,0.30,
0.144,-0.03,0.20,1.00,0.06,-0.07,0.30,
0.147,-0.03,0.20,0.99,0.06,-0.07,0.30,
0.147,-0.03,0.20,0.99,0.07,-0.11,0.26,
0.149,-0.03,0.20,0.99,0.07,-0.11,0.26,
0.152,-0.04,0.20,0.99,0.07,-0.11,0.26,
0.152,-0.04,0.20,0.99,0.03,-0.10,0.19,
0.154,-0.03,0.20,1.00,0.03,-0.10,0.19,
0.156,-0.03,0.20,0.99,0.03,-0.10,0.19,
0.157,-0.03,0.20,0.99,0.01,-0.10,0.16,
0.159,-0.03,0.20,0.99,0.01,-0.10,0.16,
0.161,-0.03,0.20,0.99,0.01,-0.10,0.16,
0.162,-0.03,0.20,0.99,0.02,-0.12,0.14,
0.164,-0.03,0.20,0.98,0.02,-0.12,0.14,
0.166,-0.03,0.20,0.98,0.02,-0.12,0.14,
0.167,-0.03,0.20,0.98,0.03,-0.10,0.09,
0.169,-0.03,0.20,0.98,0.03,-0.10,0.09,
0.171,-0.03,0.20,0.98,0.03,-0.10,0.09,
0.171,-0.03,0.20,0.98,0.02,-0.10,0.04,
0.174,-0.03,0.20,0.97,0.02,-0.10,0.04,
0.176,-0.03,0.20,0.97,0.02,-0.10,0.04,
0.176,-0.03,0.20,0.97,0.03,-0.08,0.03,
0.178,-0.03,0.20,0.97,0.03,-0.08,0.03,
0.181,-0.03,0.20,0.97,0.03,-0.08,0.03,
0.181,-0.03,0.20,0.97,0.05,-0.08,-0.03,
0.183,-0.03,0.20,0.97,0.05,-0.08,-0.03,
0.186,-0.03,0.20,0.97,0.06,-0.07,-0.03,
0.186,-0.03,0.21,0.97,0.06,-0.07,-0.03,
0.188,-0.03,0.21,0.96,0.06,-0.07,-0.03,
0.191,-0.03,0.21,0.96,0.06,-0.07,-0.03,
0.191,-0.03,0.21,0.96,0.08,-0.06,-0.07,
0.193,-0.03,0.21,0.96,0.08,-0.06,-0.07,
0.196,-0.03,0.21,0.95,0.08,-0.06,-0.07,
0.196,-0.03,0.21,0.95,0.09,-0.03,-0.15,
0.198,-0.03,0.21,0.95,0.09,-0.03,-0.15,
0.201,-0.04,0.21,0.95,0.09,-0.03,-0.15,
0.201,-0.04,0.21,0.95,0.03,-0.04,-0.21,
0.203,-0.04,0.21,0.95,0.03,-0.04,-0.21,
0.206,-0.03,0.21,0.94,0.03,-0.04,-0.21,
0.206,-0.03,0.21,0.94,0.02,-0.03,-0.24,
0.208,-0.03,0.21,0.94,0.02,-0.03,-0.24,
0.211,-0.04,0.21,0.94,0.02,-0.03,-0.24,
0.211,-0.04,0.21,0.94,0.03,0.00,-0.30,
0.213,-0.04,0.22,0.94,0.03,0.00,-0.30,
0.216,-0.04,0.22,0.94,0.03,-0.00,-0.32,
0.216,-0.03,0.22,0.93,0.03,-0.00,-0.32,
0.218,-0.03,0.22,0.92,0.03,-0.00,-0.32,
0.221,-0.04,0.21,0.92,0.03,-0.00,-0.32,
0.221,-0.04,0.21,0.92,0.02,0.05,-0.42,
0.223,-0.03,0.22,0.92,0.02,0.05,-0.42,
0.226,-0.03,0.22,0.91,0.02,0.05,-0.42,
0.226,-0.03,0.22,0.91,0.04,0.03,-0.54,
0.228,-0.03,0.22,0.91,0.04,0.03,-0.54,
0.231,-0.03,0.22,0.90,0.04,0.03,-0.54,
0.231,-0.03,0.22,0.90,0.07,0.04,-0.59,
0.233,-0.03,0.22,0.90,0.07,0.04,-0.59,
0.236,-0.03,0.22,0.89,0.07,0.04,-0.59,
0.236,-0.03,0.22,0.89,0.06,0.04,-0.68,
0.238,-0.03,0.21,0.88,0.06,0.04,-0.68,
0.24,-0.02,0.21,0.88,0.06,0.04,-0.68,
0.241,-0.02,0.21,0.88,0.12,0.02,-0.79,
0.243,-0.03,0.21,0.88,0.12,0.02,-0.79,
0.246,-0.03,0.21,0.87,0.12,0.02,-0.79,
0.246,-0.03,0.21,0.87,0.14,0.00,-0.90,
0.248,-0.03,0.22,0.87,0.14,0.00,-0.90,
0.251,-0.03,0.22,0.86,0.14,0.00,-0.90,
0.251,-0.03,0.22,0.86,0.05,-0.02,-0.97,
0.253,-0.03,0.22,0.86,0.05,-0.02,-0.97,
0.257,-0.03,0.22,0.86,0.05,-0.02,-0.97,
0.257,-0.03,0.22,0.86,0.10,0.05,-1.04,
0.258,-0.03,0.22,0.85,0.10,0.05,-1.04,
0.26,-0.03,0.22,0.85,0.10,0.05,-1.04,
0.26,-0.03,0.22,0.85,0.06,0.05,-1.08,
0.262,-0.03,0.22,0.84,0.06,0.05,-1.08,
0.265,-0.03,0.22,0.83,0.06,0.05,-1.08,
0.266,-0.03,0.22,0.83,0.09,0.05,-1.18,
0.267,-0.03,0.22,0.84,0.09,0.05,-1.18,
0.27,-0.03,0.22,0.83,0.09,0.05,-1.18,
0.27,-0.03,0.22,0.83,0.09,0.05,-1.24,
0.272,-0.03,0.22,0.84,0.09,0.05,-1.24,
0.275,-0.03,0.22,0.83,0.09,0.05,-1.24,
0.275,-0.03,0.22,0.83,0.09,0.04,-1.28,
0.277,-0.03,0.22,0.83,0.09,0.04,-1.28,
0.28,-0.03,0.22,0.83,0.09,0.04,-1.28,
0.28,-0.03,0.22,0.83,0.09,0.03,-1.29,
0.282,-0.03,0.22,0.83,0.09,0.03,-1.29,
0.285,-0.03,0.22,0.82,0.09,0.03,-1.29,
0.285,-0.03,0.22,0.82,0.05,0.02,-1.31,
0.287,-0.02,0.22,0.83,0.05,0.02,-1.31,
0.29,-0.01,0.22,0.82,0.05,0.02,-1.31,
0.29,-0.01,0.22,0.82,0.10,0.01,-1.33,
0.292,-0.01,0.22,0.82,0.10,0.01,-1.33,
0.295,-0.01,0.22,0.82,0.10,0.01,-1.33,
0.295,-0.01,0.22,0.82,0.20,0.04,-1.37,
0.297,-0.00,0.22,0.81,0.20,0.04,-1.37,
0.3,-0.00,0.22,0.81,0.29,0.03,-1.38,
0.3,0.01,0.22,0.81,0.29,0.03,-1.38,
0.302,0.01,0.22,0.80,0.29,0.03,-1.38,
0.305,0.02,0.22,0.80,0.29,0.03,-1.38,
0.305,0.02,0.22,0.80,0.38,0.02,-1.48,
0.307,0.02,0.22,0.79,0.38,0.02,-1.48,
0.31,0.02,0.22,0.79,0.49,-0.00,-1.55,
0.31,0.03,0.22,0.79,0.49,-0.00,-1.55,
0.312,0.03,0.21,0.78,0.49,-0.00,-1.55,
0.316,0.03,0.21,0.78,0.49,-0.00,-1.55,
0.317,0.03,0.21,0.78,0.57,-0.01,-1.59,
0.317,0.04,0.21,0.78,0.57,-0.01,-1.59,
0.32,0.05,0.21,0.78,0.57,-0.01,-1.59,
0.32,0.05,0.21,0.78,0.66,-0.03,-1.68,
0.322,0.05,0.21,0.78,0.66,-0.03,-1.68,
0.325,0.05,0.20,0.77,0.66,-0.03,-1.68,
0.325,0.05,0.20,0.77,0.75,-0.06,-1.68,
0.327,0.05,0.20,0.77,0.75,-0.06,-1.68,
0.33,0.05,0.20,0.77,0.75,-0.06,-1.68,
0.33,0.05,0.20,0.77,0.78,-0.12,-1.73,
0.332,0.05,0.20,0.77,0.78,-0.12,-1.73,
0.335,0.05,0.20,0.77,0.79,-0.16,-1.73,
0.335,0.05,0.19,0.77,0.79,-0.16,-1.73,
0.337,0.06,0.19,0.77,0.79,-0.16,-1.73,
0.34,0.06,0.19,0.77,0.79,-0.16,-1.73,
0.34,0.06,0.19,0.77,0.79,-0.22,-1.76,
0.342,0.06,0.19,0.77,0.79,-0.22,-1.76,
0.345,0.06,0.19,0.78,0.79,-0.22,-1.76,
0.345,0.06,0.19,0.78,0.84,-0.26,-1.75,
0.347,0.07,0.19,0.78,0.84,-0.26,-1.75,
0.35,0.07,0.19,0.78,0.85,-0.30,-1.66,
0.35,0.07,0.19,0.78,0.85,-0.30,-1.66,
0.352,0.07,0.19,0.78,0.85,-0.30,-1.66,
0.355,0.07,0.18,0.77,0.85,-0.30,-1.66,
0.355,0.07,0.18,0.77,0.89,-0.29,-1.58,
0.357,0.07,0.18,0.76,0.89,-0.29,-1.58,
0.36,0.07,0.18,0.76,0.91,-0.33,-1.68,
0.36,0.07,0.18,0.76,0.91,-0.33,-1.68,
0.362,0.07,0.17,0.75,0.91,-0.33,-1.68,
0.364,0.08,0.17,0.74,0.91,-0.33,-1.68,
0.364,0.08,0.17,0.74,0.92,-0.42,-1.76,
0.367,0.08,0.17,0.74,0.92,-0.42,-1.76,
0.37,0.08,0.17,0.74,0.93,-0.51,-1.89,
0.37,0.08,0.17,0.73,0.93,-0.51,-1.89,
0.372,0.08,0.17,0.72,0.93,-0.51,-1.89,
0.375,0.08,0.16,0.70,0.93,-0.51,-1.89,
0.375,0.08,0.16,0.70,0.96,-0.55,-2.00,
0.377,0.08,0.16,0.69,0.96,-0.55,-2.00,
0.379,0.08,0.16,0.69,0.96,-0.55,-2.00,
0.38,0.08,0.16,0.69,0.94,-0.62,-2.21,
0.382,0.08,0.16,0.69,0.94,-0.62,-2.21,
0.385,0.07,0.16,0.67,0.94,-0.62,-2.21,
0.386,0.07,0.16,0.67,0.95,-0.66,-2.37,
0.388,0.07,0.16,0.67,0.95,-0.66,-2.37,
0.389,0.07,0.16,0.67,0.86,-0.69,-2.47,
0.39,0.07,0.16,0.66,0.86,-0.69,-2.47,
0.391,0.06,0.16,0.65,0.86,-0.69,-2.47,
0.394,0.06,0.17,0.65,0.86,-0.69,-2.47,
0.395,0.06,0.17,0.65,0.80,-0.69,-2.61,
0.396,0.06,0.17,0.65,0.80,-0.69,-2.61,
0.401,0.06,0.17,0.65,0.72,-0.65,-2.74,
0.402,0.06,0.17,0.63,0.72,-0.65,-2.74,
0.402,0.06,0.18,0.63,0.72,-0.65,-2.74,
0.405,0.06,0.18,0.63,0.72,-0.65,-2.74,
0.405,0.06,0.18,0.63,0.69,-0.58,-2.81,
0.406,0.06,0.18,0.63,0.69,-0.58,-2.81,
0.41,0.06,0.18,0.63,0.70,-0.55,-2.86,
0.41,0.07,0.18,0.62,0.70,-0.55,-2.86,
0.416,0.07,0.18,0.63,0.70,-0.55,-2.86,
0.416,0.07,0.18,0.62,0.70,-0.55,-2.86,
0.417,0.07,0.18,0.62,0.77,-0.53,-2.88,
0.418,0.07,0.18,0.62,0.77,-0.53,-2.88,
0.419,0.08,0.17,0.62,0.77,-0.53,-2.88,
0.42,0.08,0.17,0.62,0.82,-0.53,-2.91,
0.421,0.08,0.17,0.62,0.82,-0.53,-2.91,
0.425,0.08,0.17,0.62,0.85,-0.56,-2.90,
0.425,0.08,0.17,0.63,0.85,-0.56,-2.90,
0.426,0.08,0.16,0.63,0.85,-0.56,-2.90,
0.43,0.08,0.17,0.64,0.85,-0.56,-2.90,
0.43,0.08,0.17,0.64,0.88,-0.62,-2.84,
0.432,0.08,0.16,0.64,0.88,-0.62,-2.84,
0.434,0.09,0.17,0.64,0.88,-0.62,-2.84,
0.434,0.09,0.17,0.64,0.87,-0.69,-2.76,
0.436,0.09,0.16,0.65,0.87,-0.69,-2.76,
0.44,0.10,0.16,0.67,0.87,-0.69,-2.76,
0.44,0.10,0.16,0.67,0.88,-0.69,-2.65,
0.442,0.10,0.17,0.68,0.88,-0.69,-2.65,
0.444,0.10,0.16,0.70,0.88,-0.69,-2.65,
0.444,0.10,0.16,0.70,0.95,-0.69,-2.49,
0.446,0.11,0.16,0.71,0.95,-0.69,-2.49,
0.455,0.11,0.16,0.71,0.99,-0.67,-2.19,
0.456,0.11,0.16,0.72,0.99,-0.67,-2.19,
0.456,0.12,0.16,0.73,0.99,-0.67,-2.19,
0.456,0.12,0.15,0.75,0.99,-0.67,-2.19,
0.456,0.12,0.15,0.75,1.04,-0.70,-1.95,
0.457,0.12,0.15,0.77,1.04,-0.70,-1.95,
0.459,0.12,0.15,0.78,1.04,-0.70,-1.95,
0.459,0.12,0.15,0.78,1.05,-0.73,-1.63,
0.462,0.12,0.14,0.79,1.05,-0.73,-1.63,
0.464,0.12,0.14,0.80,1.05,-0.73,-1.63,
0.464,0.12,0.14,0.80,1.01,-0.76,-1.36,
0.467,0.12,0.13,0.81,1.01,-0.76,-1.36,
0.469,0.12,0.12,0.82,1.01,-0.76,-1.36,
0.469,0.12,0.12,0.82,0.99,-0.85,-1.15,
0.471,0.12,0.12,0.83,0.99,-0.85,-1.15,
0.474,0.12,0.12,0.83,0.96,-0.95,-0.95,
0.474,0.12,0.11,0.83,0.96,-0.95,-0.95,
0.476,0.12,0.11,0.84,0.96,-0.95,-0.95,
0.479,0.11,0.10,0.86,0.96,-0.95,-0.95,
0.479,0.11,0.10,0.86,0.93,-1.03,-0.78,
0.481,0.11,0.10,0.87,0.93,-1.03,-0.78,
0.484,0.12,0.10,0.87,0.93,-1.03,-0.78,
0.485,0.12,0.10,0.87,0.85,-1.09,-0.58,
0.486,0.11,0.09,0.88,0.85,-1.09,-0.58,
0.489,0.11,0.09,0.88,0.85,-1.09,-0.58,
0.489,0.11,0.09,0.88,0.81,-1.15,-0.44,
0.491,0.10,0.08,0.89,0.81,-1.15,-0.44,
0.494,0.10,0.08,0.89,0.81,-1.15,-0.44,
0.495,0.10,0.08,0.89,0.72,-1.19,-0.33,
0.496,0.10,0.08,0.90,0.72,-1.19,-0.33,
0.498,0.10,0.08,0.90,0.59,-1.20,-0.23,
0.499,0.09,0.08,0.90,0.59,-1.20,-0.23,
0.501,0.09,0.08,0.91,0.59,-1.20,-0.23,
0.505,0.08,0.08,0.92,0.59,-1.20,-0.23,
0.505,0.08,0.08,0.92,0.49,-1.21,-0.11,
0.506,0.08,0.08,0.93,0.49,-1.21,-0.11,
0.509,0.08,0.09,0.94,0.49,-1.21,-0.11,
0.509,0.08,0.09,0.94,0.42,-1.17,0.04,
0.511,0.07,0.09,0.94,0.42,-1.17,0.04,
0.514,0.07,0.09,0.95,0.42,-1.17,0.04,
0.514,0.07,0.09,0.95,0.31,-1.10,0.19,
0.516,0.07,0.09,0.95,0.31,-1.10,0.19,
0.518,0.07,0.09,0.95,0.24,-1.02,0.28,
0.519,0.06,0.10,0.95,0.24,-1.02,0.28,
0.52,0.05,0.09,0.95,0.24,-1.02,0.28,
0.524,0.05,0.09,0.95,0.20,-0.93,0.34,
0.524,0.06,0.10,0.95,0.20,-0.93,0.34,
0.526,0.06,0.10,0.95,0.20,-0.93,0.34,
0.529,0.06,0.10,0.95,0.20,-0.93,0.34,
0.529,0.06,0.10,0.95,0.11,-0.89,0.37,
0.531,0.06,0.10,0.95,0.11,-0.89,0.37,
0.535,0.06,0.10,0.94,0.11,-0.89,0.37,
0.535,0.06,0.10,0.94,0.15,-0.83,0.35,
0.535,0.06,0.10,0.95,0.15,-0.83,0.35,
0.538,0.06,0.10,0.94,0.15,-0.83,0.35,
0.539,0.06,0.10,0.94,0.19,-0.81,0.28,
0.541,0.06,0.11,0.95,0.19,-0.81,0.28,
0.543,0.06,0.11,0.95,0.19,-0.81,0.28,
0.544,0.06,0.11,0.95,0.19,-0.72,0.26,
0.546,0.06,0.11,0.95,0.19,-0.72,0.26,
0.548,0.06,0.11,0.95,0.24,-0.60,0.29,
0.549,0.07,0.12,0.94,0.24,-0.60,0.29,
0.554,0.08,0.13,0.94,0.24,-0.60,0.29,
0.555,0.08,0.13,0.95,0.24,-0.60,0.29,
0.555,0.08,0.13,0.95,0.29,-0.55,0.26,
0.555,0.09,0.14,0.95,0.29,-0.55,0.26,
0.558,0.09,0.14,0.95,0.29,-0.55,0.26,
0.558,0.09,0.14,0.95,0.41,-0.39,0.26,
0.56,0.09,0.15,0.95,0.41,-0.39,0.26,
0.564,0.09,0.15,0.95,0.48,-0.25,0.26,
0.564,0.08,0.16,0.96,0.48,-0.25,0.26,
0.565,0.09,0.16,0.96,0.48,-0.25,0.26,
0.569,0.09,0.17,0.97,0.48,-0.25,0.26,
0.569,0.09,0.17,0.97,0.46,-0.05,0.34,
0.57,0.09,0.18,0.97,0.46,-0.05,0.34,
0.572,0.09,0.18,0.97,0.50,0.06,0.41,
0.573,0.10,0.18,0.97,0.50,0.06,0.41,
0.575,0.10,0.19,0.98,0.50,0.06,0.41,
0.578,0.11,0.19,0.98,0.50,0.06,0.41,
0.578,0.11,0.19,0.98,0.52,0.20,0.50,
0.58,0.11,0.19,0.99,0.52,0.20,0.50,
0.583,0.11,0.19,0.99,0.52,0.20,0.50,
0.583,0.11,0.19,0.99,0.58,0.30,0.54,
0.585,0.11,0.19,0.99,0.58,0.30,0.54,
0.587,0.12,0.19,0.99,0.58,0.30,0.54,
0.588,0.12,0.19,0.99,0.64,0.34,0.60,
0.59,0.12,0.19,0.99,0.64,0.34,0.60,
0.593,0.12,0.19,0.99,0.67,0.40,0.63,
0.593,0.12,0.19,0.98,0.67,0.40,0.63,
0.595,0.13,0.19,0.99,0.67,0.40,0.63,
0.598,0.13,0.19,0.99,0.70,0.41,0.61,
0.598,0.12,0.18,0.99,0.70,0.41,0.61,
0.602,0.12,0.18,0.99,0.70,0.41,0.61,
0.602,0.13,0.18,0.98,0.70,0.41,0.61,
0.602,0.13,0.18,0.98,0.71,0.40,0.62,
0.604,0.12,0.17,0.99,0.71,0.40,0.62,
0.608,0.12,0.17,0.98,0.71,0.40,0.62,
0.608,0.12,0.17,0.98,0.69,0.37,0.56,
0.609,0.12,0.17,0.99,0.69,0.37,0.56,
0.612,0.12,0.16,0.99,0.69,0.37,0.56,
0.612,0.12,0.16,0.99,0.63,0.31,0.56,
0.614,0.12,0.15,1.00,0.63,0.31,0.56,
0.619,0.12,0.15,1.00,0.61,0.24,0.60,
0.619,0.13,0.15,1.00,0.61,0.24,0.60,
0.619,0.13,0.15,1.00,0.61,0.24,0.60,
0.623,0.13,0.15,1.00,0.59,0.18,0.67,
0.623,0.13,0.14,1.00,0.59,0.18,0.67,
0.625,0.13,0.14,1.00,0.59,0.18,0.67,
0.627,0.14,0.13,1.01,0.59,0.18,0.67,
0.627,0.14,0.13,1.01,0.64,0.12,0.69,
0.63,0.14,0.12,1.01,0.64,0.12,0.69,
0.632,0.14,0.12,1.02,0.64,0.12,0.69,
0.632,0.14,0.12,1.02,0.66,0.04,0.74,
0.635,0.13,0.12,1.02,0.66,0.04,0.74,
0.637,0.14,0.12,1.02,0.66,0.04,0.74,
0.637,0.14,0.12,1.02,0.67,-0.04,0.84,
0.64,0.14,0.11,1.02,0.67,-0.04,0.84,
0.643,0.14,0.11,1.02,0.67,-0.04,0.84,
0.644,0.14,0.11,1.02,0.64,-0.06,0.90,
0.644,0.14,0.10,1.02,0.64,-0.06,0.90,
0.647,0.14,0.10,1.02,0.65,-0.11,0.90,
0.647,0.14,0.10,1.02,0.65,-0.11,0.90,
0.649,0.13,0.10,1.02,0.65,-0.11,0.90,
0.652,0.13,0.10,1.02,0.65,-0.11,0.90,
0.652,0.13,0.10,1.02,0.64,-0.16,0.89,
0.654,0.13,0.09,1.02,0.64,-0.16,0.89,
0.658,0.12,0.09,1.02,0.64,-0.16,0.89,
0.661,0.12,0.09,1.02,0.57,-0.18,0.85,
0.661,0.12,0.09,1.01,0.57,-0.18,0.85,
0.661,0.12,0.09,1.01,0.49,-0.21,0.83,
0.662,0.11,0.09,1.01,0.49,-0.21,0.83,
0.664,0.10,0.09,1.01,0.49,-0.21,0.83,
0.673,0.10,0.09,1.01,0.49,-0.21,0.83,
0.673,0.10,0.09,1.01,0.39,-0.17,0.75,
0.673,0.09,0.09,1.00,0.39,-0.17,0.75,
0.674,0.09,0.09,1.00,0.22,-0.13,0.71,
0.674,0.09,0.10,1.00,0.22,-0.13,0.71,
0.674,0.08,0.10,1.00,0.22,-0.13,0.71,
0.676,0.07,0.10,0.99,0.22,-0.13,0.71,
0.677,0.07,0.10,0.99,0.12,-0.05,0.62,
0.679,0.07,0.11,0.99,0.12,-0.05,0.62,
0.681,0.06,0.11,1.00,0.12,-0.05,0.62,
0.682,0.06,0.11,1.00,-0.04,0.03,0.59,
0.684,0.06,0.11,0.99,-0.04,0.03,0.59,
0.686,0.05,0.11,0.99,-0.04,0.03,0.59,
0.686,0.05,0.11,0.99,-0.13,0.12,0.57,
0.689,0.05,0.11,0.99,-0.13,0.12,0.57,
0.691,0.05,0.11,0.99,-0.22,0.18,0.50,
0.691,0.05,0.11,0.99,-0.22,0.18,0.50,
0.693,0.06,0.11,0.99,-0.22,0.18,0.50,
0.697,0.06,0.11,0.99,-0.28,0.23,0.51,
0.697,0.06,0.11,0.99,-0.28,0.23,0.51,
0.698,0.06,0.11,0.99,-0.28,0.23,0.51,
0.702,0.06,0.10,1.00,-0.28,0.23,0.51,
0.703,0.06,0.10,1.00,-0.27,0.20,0.53,
0.703,0.06,0.10,1.00,-0.27,0.20,0.53,
0.706,0.07,0.10,1.00,-0.27,0.20,0.53,
0.706,0.07,0.10,1.00,-0.25,0.24,0.55,
0.708,0.08,0.10,1.01,-0.25,0.24,0.55,
0.711,0.08,0.10,1.02,-0.25,0.24,0.55,
0.711,0.08,0.10,1.02,-0.20,0.23,0.62,
0.713,0.09,0.10,1.02,-0.20,0.23,0.62,
0.716,0.11,0.10,1.02,-0.20,0.23,0.62,
0.716,0.11,0.10,1.02,-0.11,0.26,0.73,
0.718,0.11,0.10,1.03,-0.11,0.26,0.73,
0.721,0.11,0.10,1.03,0.04,0.28,0.78,
0.721,0.12,0.10,1.03,0.04,0.28,0.78,
0.723,0.13,0.10,1.04,0.04,0.28,0.78,
0.726,0.14,0.10,1.04,0.04,0.28,0.78,
0.726,0.14,0.10,1.04,0.22,0.32,0.91,
0.728,0.14,0.11,1.04,0.22,0.32,0.91,
0.731,0.14,0.11,1.05,0.22,0.32,0.91,
0.731,0.14,0.11,1.05,0.36,0.37,0.99,
0.734,0.14,0.11,1.06,0.36,0.37,0.99,
0.736,0.14,0.11,1.06,0.36,0.37,0.99,
0.736,0.14,0.11,1.06,0.40,0.45,1.03,
0.738,0.14,0.11,1.06,0.40,0.45,1.03,
0.741,0.13,0.11,1.07,0.40,0.45,1.03,
0.741,0.13,0.11,1.07,0.36,0.50,1.15,
0.743,0.13,0.10,1.08,0.36,0.50,1.15,
0.746,0.13,0.10,1.08,0.36,0.50,1.15,
0.746,0.13,0.10,1.08,0.28,0.54,1.22,
0.748,0.12,0.10,1.09,0.28,0.54,1.22,
0.751,0.11,0.09,1.09,0.28,0.54,1.22,
0.752,0.11,0.09,1.09,0.17,0.52,1.36,
0.753,0.10,0.09,1.10,0.17,0.52,1.36,
0.756,0.10,0.08,1.11,0.17,0.52,1.36,
0.756,0.10,0.08,1.11,0.05,0.50,1.48,
0.758,0.09,0.08,1.11,0.05,0.50,1.48,
0.761,0.09,0.08,1.11,-0.12,0.45,1.58,
0.761,0.09,0.07,1.11,-0.12,0.45,1.58,
0.763,0.09,0.06,1.12,-0.12,0.45,1.58,
0.765,0.08,0.06,1.13,-0.12,0.45,1.58,
0.766,0.08,0.06,1.13,-0.25,0.38,1.64,
0.768,0.08,0.05,1.13,-0.25,0.38,1.64,
0.77,0.08,0.05,1.13,-0.35,0.28,1.80,
0.771,0.08,0.04,1.14,-0.35,0.28,1.80,
0.773,0.07,0.04,1.14,-0.35,0.28,1.80,
0.776,0.06,0.03,1.14,-0.35,0.28,1.80,
0.776,0.06,0.03,1.14,-0.43,0.15,1.86,
0.778,0.06,0.02,1.14,-0.43,0.15,1.86,
0.78,0.06,0.02,1.14,-0.43,0.15,1.86,
0.781,0.06,0.02,1.14,-0.58,0.09,1.90,
0.782,0.06,0.01,1.14,-0.58,0.09,1.90,
0.79,0.06,0.01,1.14,-0.58,0.09,1.90,
0.791,0.06,0.01,1.14,-0.65,0.03,1.96,
0.791,0.06,0.01,1.14,-0.65,0.03,1.96,
0.791,0.07,0.00,1.14,-0.65,0.03,1.96,
0.792,0.07,0.00,1.14,-0.66,-0.06,1.94,
0.792,0.07,0.01,1.14,-0.66,-0.06,1.94,
0.795,0.07,0.01,1.14,-0.67,-0.07,1.90,
0.795,0.07,0.00,1.14,-0.67,-0.07,1.90,
0.797,0.08,0.00,1.14,-0.67,-0.07,1.90,
0.802,0.09,-0.00,1.14,-0.67,-0.07,1.90,
0.802,0.09,-0.00,1.14,-0.61,-0.05,1.87,
0.802,0.09,0.00,1.14,-0.61,-0.05,1.87,
0.805,0.10,0.00,1.14,-0.61,-0.05,1.87,
0.805,0.10,0.00,1.14,-0.52,-0.04,1.91,
0.807,0.11,0.00,1.15,-0.52,-0.04,1.91,
0.81,0.11,0.00,1.15,-0.42,0.02,1.91,
0.81,0.12,-0.00,1.15,-0.42,0.02,1.91,
0.812,0.13,-0.00,1.15,-0.42,0.02,1.91,
0.815,0.13,-0.00,1.15,-0.26,0.04,1.99,
0.815,0.13,-0.00,1.15,-0.26,0.04,1.99,
0.82,0.14,-0.00,1.16,-0.26,0.04,1.99,
0.821,0.14,-0.00,1.16,-0.12,0.06,1.98,
0.821,0.14,-0.00,1.16,-0.12,0.06,1.98,
0.823,0.14,-0.01,1.16,-0.12,0.06,1.98,
0.826,0.14,-0.01,1.17,-0.12,0.06,1.98,
0.826,0.14,-0.01,1.17,-0.07,0.09,2.07,
0.827,0.14,-0.01,1.18,-0.07,0.09,2.07,
0.83,0.13,-0.02,1.18,-0.07,0.09,2.07,
0.831,0.13,-0.02,1.18,-0.06,0.08,2.13,
0.833,0.12,-0.03,1.19,-0.06,0.08,2.13,
0.836,0.12,-0.03,1.20,-0.06,0.08,2.13,
0.836,0.12,-0.03,1.20,-0.14,0.05,2.28,
0.837,0.11,-0.04,1.21,-0.14,0.05,2.28,
0.84,0.09,-0.04,1.22,-0.14,0.05,2.28,
0.84,0.09,-0.04,1.22,-0.29,-0.01,2.39,
0.843,0.09,-0.05,1.23,-0.29,-0.01,2.39,
0.846,0.09,-0.05,1.23,-0.50,-0.09,2.56,
0.846,0.08,-0.06,1.25,-0.50,-0.09,2.56,
0.847,0.07,-0.07,1.26,-0.50,-0.09,2.56,
0.85,0.07,-0.07,1.26,-0.68,-0.18,2.85,
0.85,0.06,-0.07,1.27,-0.68,-0.18,2.85,
0.852,0.05,-0.08,1.28,-0.68,-0.18,2.85,
0.855,0.05,-0.08,1.28,-0.92,-0.25,3.05,
0.855,0.05,-0.08,1.29,-0.92,-0.25,3.05,
0.857,0.04,-0.09,1.31,-0.92,-0.25,3.05,
0.86,0.05,-0.10,1.30,-0.92,-0.25,3.05,
0.86,0.05,-0.10,1.30,-1.07,-0.31,3.29,
0.862,0.05,-0.11,1.31,-1.07,-0.31,3.29,
0.865,0.05,-0.11,1.32,-1.07,-0.31,3.29,
0.865,0.05,-0.11,1.32,-1.12,-0.42,3.46,
0.867,0.06,-0.11,1.32,-1.12,-0.42,3.46,
0.873,0.06,-0.11,1.32,-1.06,-0.52,3.51,
0.873,0.06,-0.12,1.33,-1.06,-0.52,3.51,
0.873,0.06,-0.12,1.33,-1.06,-0.52,3.51,
0.874,0.07,-0.12,1.33,-1.06,-0.52,3.51,
0.875,0.07,-0.12,1.33,-1.00,-0.54,3.62,
0.877,0.08,-0.12,1.34,-1.00,-0.54,3.62,
0.88,0.07,-0.12,1.34,-1.00,-0.54,3.62,
0.88,0.07,-0.12,1.34,-0.94,-0.54,3.69,
0.882,0.08,-0.12,1.33,-0.94,-0.54,3.69,
0.884,0.07,-0.11,1.33,-0.94,-0.54,3.69,
0.884,0.07,-0.11,1.33,-0.88,-0.56,3.73,
0.887,0.08,-0.12,1.32,-0.88,-0.56,3.73,
0.889,0.08,-0.11,1.31,-0.88,-0.56,3.73,
0.89,0.08,-0.11,1.31,-0.90,-0.48,3.65,
0.892,0.08,-0.11,1.31,-0.90,-0.48,3.65,
0.895,0.08,-0.11,1.31,-0.84,-0.42,3.53,
0.895,0.09,-0.10,1.29,-0.84,-0.42,3.53,
0.897,0.09,-0.10,1.29,-0.84,-0.42,3.53,
0.9,0.10,-0.10,1.28,-0.84,-0.42,3.53,
0.9,0.10,-0.10,1.28,-0.81,-0.34,3.35,
0.902,0.10,-0.10,1.28,-0.81,-0.34,3.35,
0.904,0.10,-0.09,1.27,-0.81,-0.34,3.35,
0.905,0.10,-0.09,1.27,-0.73,-0.22,3.21,
0.907,0.10,-0.09,1.26,-0.73,-0.22,3.21,
0.91,0.10,-0.09,1.25,-0.73,-0.22,3.21,
0.911,0.10,-0.09,1.25,-0.67,-0.17,3.07,
0.912,0.10,-0.08,1.25,-0.67,-0.17,3.07,
0.915,0.10,-0.08,1.23,-0.67,-0.17,3.07,
0.915,0.10,-0.08,1.23,-0.67,-0.07,2.91,
0.916,0.10,-0.08,1.23,-0.67,-0.07,2.91,
0.92,0.10,-0.08,1.23,-0.67,0.02,2.72,
0.92,0.10,-0.08,1.23,-0.67,0.02,2.72,
0.921,0.10,-0.08,1.22,-0.67,0.02,2.72,
0.924,0.10,-0.08,1.22,-0.66,0.03,2.63,
0.924,0.11,-0.08,1.22,-0.66,0.03,2.63,
0.927,0.10,-0.08,1.22,-0.66,0.03,2.63,
0.93,0.10,-0.08,1.22,-0.66,0.03,2.63,
0.93,0.10,-0.08,1.22,-0.63,0.06,2.53,
0.932,0.11,-0.08,1.21,-0.63,0.06,2.53,
0.935,0.10,-0.08,1.21,-0.63,0.06,2.53,
0.935,0.10,-0.08,1.21,-0.64,0.07,2.47,
0.937,0.09,-0.08,1.22,-0.64,0.07,2.47,
0.939,0.09,-0.08,1.22,-0.65,0.09,2.43,
0.939,0.09,-0.09,1.21,-0.65,0.09,2.43,
0.942,0.09,-0.09,1.22,-0.65,0.09,2.43,
0.944,0.09,-0.09,1.22,-0.75,0.03,2.44,
0.945,0.09,-0.09,1.21,-0.75,0.03,2.44,
0.946,0.09,-0.09,1.22,-0.75,0.03,2.44,
0.949,0.09,-0.09,1.22,-0.75,0.03,2.44,
0.95,0.09,-0.09,1.22,-0.76,-0.01,2.43,
0.953,0.09,-0.10,1.22,-0.76,-0.01,2.43,
0.954,0.09,-0.10,1.22,-0.76,-0.01,2.43,
0.954,0.09,-0.10,1.22,-0.75,-0.01,2.44,
0.956,0.10,-0.10,1.22,-0.75,-0.01,2.44,
0.959,0.09,-0.10,1.22,-0.75,-0.01,2.44,
0.96,0.09,-0.10,1.22,-0.75,-0.04,2.47,
0.962,0.10,-0.10,1.21,-0.75,-0.04,2.47,
0.964,0.10,-0.11,1.21,-0.75,-0.04,2.47,
0.964,0.10,-0.11,1.21,-0.70,-0.08,2.44,
0.966,0.11,-0.11,1.21,-0.70,-0.08,2.44,
0.97,0.11,-0.11,1.21,-0.61,-0.10,2.36,
0.971,0.11,-0.11,1.21,-0.61,-0.10,2.36,
0.971,0.11,-0.10,1.20,-0.61,-0.10,2.36,
0.973,0.12,-0.10,1.20,-0.61,-0.10,2.36,
0.974,0.12,-0.10,1.20,-0.55,-0.10,2.34,
0.976,0.12,-0.09,1.20,-0.55,-0.10,2.34,
0.978,0.11,-0.09,1.19,-0.55,-0.10,2.34,
0.979,0.11,-0.09,1.19,-0.48,-0.01,2.24,
0.981,0.11,-0.08,1.19,-0.48,-0.01,2.24,
0.983,0.11,-0.08,1.18,-0.48,-0.01,2.24,
0.983,0.11,-0.08,1.18,-0.46,0.08,2.18,
0.986,0.11,-0.08,1.18,-0.46,0.08,2.18,
0.989,0.12,-0.08,1.17,-0.46,0.08,2.18,
0.989,0.12,-0.08,1.17,-0.46,0.18,2.05,
0.99,0.11,-0.07,1.17,-0.46,0.18,2.05,
0.993,0.11,-0.07,1.17,-0.45,0.21,1.98,
0.994,0.11,-0.07,1.16,-0.45,0.21,1.98,
0.995,0.12,-0.07,1.16,-0.45,0.21,1.98,
0.998,0.12,-0.07,1.16,-0.45,0.21,1.98,
0.998,0.12,-0.07,1.16,-0.44,0.30,1.89,
1.0,0.12,-0.07,1.15,-0.44,0.30,1.89,
1.008,0.13,-0.07,1.15,-0.44,0.30,1.89,
1.009,0.13,-0.07,1.15,-0.35,0.33,1.80,
1.009,0.13,-0.07,1.15,-0.35,0.33,1.80,
1.009,0.13,-0.06,1.14,-0.35,0.33,1.80,
1.009,0.13,-0.06,1.14,-0.28,0.34,1.70,
1.011,0.13,-0.07,1.14,-0.28,0.34,1.70,
1.016,0.13,-0.07,1.14,-0.21,0.35,1.62,
1.016,0.13,-0.06,1.14,-0.21,0.35,1.62,
1.016,0.14,-0.06,1.14,-0.21,0.35,1.62,
1.018,0.14,-0.06,1.14,-0.18,0.36,1.57,
1.019,0.14,-0.06,1.14,-0.18,0.36,1.57,
1.022,0.14,-0.06,1.14,-0.18,0.36,1.57,
1.023,0.15,-0.06,1.14,-0.18,0.36,1.57,
1.023,0.15,-0.06,1.14,-0.10,0.38,1.58,
1.026,0.14,-0.06,1.14,-0.10,0.38,1.58,
1.029,0.14,-0.06,1.14,-0.03,0.42,1.55,
1.029,0.14,-0.06,1.14,-0.03,0.42,1.55,
1.031,0.15,-0.06,1.14,-0.03,0.42,1.55,
1.033,0.15,-0.06,1.15,-0.03,0.42,1.55,
1.034,0.15,-0.06,1.15,-0.02,0.41,1.54,
1.035,0.15,-0.05,1.15,-0.02,0.41,1.54,
1.038,0.15,-0.05,1.15,-0.02,0.41,1.54,
1.038,0.15,-0.05,1.15,0.02,0.44,1.62,
1.043,0.15,-0.05,1.15,0.02,0.44,1.62,
1.043,0.15,-0.05,1.15,0.06,0.48,1.62,
1.043,0.15,-0.05,1.16,0.06,0.48,1.62,
1.046,0.15,-0.06,1.16,0.06,0.48,1.62,
1.048,0.15,-0.06,1.16,0.06,0.48,1.62,
1.049,0.15,-0.06,1.16,0.10,0.49,1.68,
1.05,0.15,-0.06,1.17,0.10,0.49,1.68,
1.053,0.16,-0.06,1.17,0.10,0.49,1.68,
1.053,0.16,-0.06,1.17,0.10,0.45,1.73,
1.056,0.16,-0.07,1.17,0.10,0.45,1.73,
1.058,0.16,-0.07,1.18,0.10,0.45,1.73,
1.058,0.16,-0.07,1.18,0.15,0.39,1.86,
1.061,0.16,-0.07,1.19,0.15,0.39,1.86,
1.063,0.16,-0.08,1.19,0.15,0.39,1.86,
1.064,0.16,-0.08,1.19,0.18,0.30,1.86,
1.065,0.16,-0.08,1.19,0.18,0.30,1.86,
1.068,0.16,-0.08,1.19,0.19,0.24,2.01,
1.068,0.16,-0.08,1.20,0.19,0.24,2.01,
1.07,0.16,-0.08,1.21,0.19,0.24,2.01,
1.073,0.16,-0.08,1.22,0.19,0.24,2.01,
1.073,0.16,-0.08,1.22,0.17,0.21,2.09,
1.076,0.16,-0.07,1.23,0.17,0.21,2.09,
1.078,0.16,-0.07,1.24,0.17,0.21,2.09,
1.078,0.16,-0.07,1.24,0.18,0.22,2.22,
1.08,0.16,-0.06,1.24,0.18,0.22,2.22,
1.083,0.16,-0.06,1.24,0.18,0.22,2.22,
1.083,0.16,-0.06,1.24,0.16,0.30,2.42,
1.085,0.16,-0.05,1.26,0.16,0.30,2.42,
1.087,0.16,-0.05,1.27,0.16,0.30,2.42,
1.088,0.16,-0.05,1.27,0.22,0.39,2.49,
1.09,0.16,-0.05,1.27,0.22,0.39,2.49,
1.093,0.16,-0.05,1.27,0.21,0.46,2.69,
1.093,0.16,-0.05,1.27,0.21,0.46,2.69,
1.095,0.17,-0.05,1.28,0.21,0.46,2.69,
1.098,0.17,-0.06,1.28,0.21,0.46,2.69,
1.098,0.17,-0.06,1.28,0.24,0.49,2.75,
1.1,0.18,-0.05,1.28,0.24,0.49,2.75,
1.102,0.18,-0.05,1.28,0.24,0.49,2.75,
1.102,0.18,-0.05,1.28,0.31,0.44,2.83,
1.108,0.18,-0.06,1.28,0.31,0.44,2.83,
1.108,0.18,-0.06,1.28,0.31,0.44,2.83,
1.109,0.18,-0.06,1.28,0.36,0.44,2.83,
1.11,0.18,-0.06,1.28,0.36,0.44,2.83,
1.112,0.17,-0.07,1.28,0.36,0.44,2.83,
1.113,0.17,-0.07,1.28,0.39,0.34,2.80,
1.114,0.18,-0.06,1.28,0.39,0.34,2.80,
1.117,0.18,-0.06,1.28,0.38,0.29,2.82,
1.118,0.18,-0.06,1.27,0.38,0.29,2.82,
1.12,0.18,-0.07,1.27,0.38,0.29,2.82,
1.122,0.17,-0.07,1.27,0.38,0.29,2.82,
1.122,0.17,-0.07,1.27,0.39,0.27,2.73,
1.125,0.17,-0.07,1.27,0.39,0.27,2.73,
1.127,0.16,-0.07,1.26,0.39,0.27,2.73,
1.127,0.16,-0.07,1.26,0.36,0.23,2.67,
1.13,0.16,-0.07,1.26,0.36,0.23,2.67,
1.132,0.15,-0.06,1.26,0.36,0.23,2.67,
1.133,0.15,-0.06,1.26,0.30,0.21,2.64,
1.135,0.15,-0.06,1.26,0.30,0.21,2.64,
1.137,0.14,-0.06,1.26,0.30,0.21,2.64,
1.137,0.14,-0.06,1.26,0.22,0.23,2.56,
1.139,0.14,-0.06,1.25,0.22,0.23,2.56,
1.142,0.14,-0.06,1.25,0.12,0.20,2.54,
1.142,0.14,-0.06,1.24,0.12,0.20,2.54,
1.145,0.13,-0.06,1.23,0.12,0.20,2.54,
1.147,0.13,-0.06,1.23,0.12,0.20,2.54,
1.147,0.13,-0.06,1.23,0.07,0.23,2.43,
1.149,0.14,-0.06,1.22,0.07,0.23,2.43,
1.153,0.14,-0.06,1.22,0.07,0.23,2.43,
1.157,0.14,-0.06,1.22,0.07,0.20,2.23,
1.157,0.14,-0.06,1.20,0.07,0.20,2.23,
1.157,0.14,-0.06,1.20,0.13,0.18,2.11,
1.157,0.14,-0.06,1.19,0.13,0.18,2.11,
1.159,0.14,-0.06,1.18,0.13,0.18,2.11,
1.162,0.14,-0.06,1.17,0.13,0.18,2.11,
1.162,0.14,-0.06,1.17,0.17,0.17,1.91,
1.164,0.15,-0.06,1.17,0.17,0.17,1.91,
1.167,0.15,-0.06,1.17,0.22,0.09,1.70,
1.167,0.14,-0.06,1.16,0.22,0.09,1.70,
1.17,0.14,-0.06,1.15,0.22,0.09,1.70,
1.173,0.14,-0.06,1.15,0.22,0.09,1.70,
1.173,0.14,-0.06,1.15,0.27,0.08,1.54,
1.174,0.14,-0.05,1.15,0.27,0.08,1.54,
1.176,0.14,-0.05,1.15,0.28,0.10,1.41,
1.177,0.14,-0.04,1.14,0.28,0.10,1.41,
1.179,0.14,-0.04,1.14,0.28,0.10,1.41,
1.182,0.15,-0.03,1.13,0.28,0.10,1.41,
1.182,0.15,-0.03,1.13,0.30,0.16,1.33,
1.184,0.15,-0.03,1.14,0.30,0.16,1.33,
1.187,0.15,-0.03,1.14,0.33,0.22,1.24,
1.187,0.15,-0.03,1.14,0.33,0.22,1.24,
1.189,0.15,-0.03,1.14,0.33,0.22,1.24,
1.192,0.15,-0.03,1.14,0.39,0.24,1.26,
1.192,0.15,-0.03,1.14,0.39,0.24,1.26,
1.194,0.16,-0.02,1.15,0.39,0.24,1.26,
1.196,0.16,-0.02,1.16,0.39,0.24,1.26,
1.197,0.16,-0.02,1.16,0.46,0.27,1.32,
1.199,0.16,-0.01,1.16,0.46,0.27,1.32,
1.202,0.16,-0.02,1.16,0.46,0.27,1.32,
1.202,0.16,-0.02,1.16,0.51,0.32,1.37,
1.204,0.17,-0.01,1.15,0.51,0.32,1.37,
1.206,0.17,-0.01,1.16,0.51,0.32,1.37,
1.207,0.17,-0.01,1.16,0.54,0.31,1.42,
1.21,0.18,-0.02,1.16,0.54,0.31,1.42,
1.212,0.18,-0.01,1.15,0.54,0.31,1.42,
1.212,0.18,-0.01,1.15,0.64,0.30,1.41,
1.214,0.18,-0.01,1.16,0.64,0.30,1.41,
1.216,0.18,-0.01,1.16,0.68,0.25,1.39,
1.217,0.17,-0.01,1.15,0.68,0.25,1.39,
1.219,0.17,-0.01,1.15,0.68,0.25,1.39,
1.224,0.16,-0.01,1.14,0.68,0.25,1.39,
1.225,0.16,-0.01,1.14,0.65,0.25,1.36,
1.225,0.16,-0.01,1.13,0.65,0.25,1.36,
1.227,0.15,-0.01,1.13,0.65,0.25,1.36,
1.227,0.15,-0.01,1.13,0.59,0.19,1.26,
1.228,0.14,-0.00,1.12,0.59,0.19,1.26,
1.231,0.13,-0.01,1.11,0.59,0.19,1.26,
1.231,0.13,-0.01,1.11,0.42,0.19,1.11,
1.234,0.13,-0.01,1.10,0.42,0.19,1.11,
1.236,0.12,-0.01,1.09,0.42,0.19,1.11,
1.236,0.12,-0.01,1.09,0.28,0.17,0.99,
1.239,0.11,-0.01,1.08,0.28,0.17,0.99,
1.241,0.11,-0.01,1.08,0.16,0.11,0.79,
1.241,0.11,-0.01,1.08,0.16,0.11,0.79,
1.243,0.11,-0.01,1.07,0.16,0.11,0.79,
1.246,0.11,-0.01,1.07,0.02,0.05,0.63,
1.247,0.10,-0.01,1.06,0.02,0.05,0.63,
1.249,0.09,-0.01,1.05,0.02,0.05,0.63,
1.251,0.09,-0.01,1.05,0.02,0.05,0.63,
1.252,0.09,-0.01,1.05,-0.02,0.02,0.48,
1.254,0.08,-0.01,1.04,-0.02,0.02,0.48,
1.256,0.07,-0.01,1.04,-0.02,0.02,0.48,
1.256,0.07,-0.01,1.04,-0.13,-0.04,0.33,
1.259,0.07,-0.01,1.04,-0.13,-0.04,0.33,
1.262,0.07,-0.00,1.03,-0.13,-0.04,0.33,
1.262,0.07,-0.00,1.03,-0.25,-0.04,0.23,
1.263,0.06,-0.01,1.04,-0.25,-0.04,0.23,
1.266,0.06,-0.01,1.04,-0.35,-0.04,0.20,
1.266,0.06,0.00,1.05,-0.35,-0.04,0.20,
1.268,0.06,0.01,1.05,-0.35,-0.04,0.20,
1.27,0.06,0.01,1.06,-0.35,-0.04,0.20,
1.271,0.06,0.01,1.06,-0.41,-0.03,0.28,
1.273,0.06,0.01,1.07,-0.41,-0.03,0.28,
1.276,0.05,0.01,1.07,-0.41,-0.03,0.28,
1.277,0.05,0.01,1.07,-0.42,0.03,0.38,
1.279,0.05,0.01,1.08,-0.42,0.03,0.38,
1.28,0.05,0.01,1.09,-0.42,0.03,0.38,
1.281,0.05,0.01,1.09,-0.46,0.06,0.53,
1.282,0.05,0.00,1.10,-0.46,0.06,0.53,
1.285,0.05,0.00,1.10,-0.46,0.06,0.53,
1.285,0.05,0.00,1.10,-0.49,0.03,0.67,
1.289,0.05,-0.00,1.11,-0.49,0.03,0.67,
1.29,0.05,-0.00,1.11,-0.50,-0.05,0.84,
1.29,0.05,-0.01,1.12,-0.50,-0.05,0.84,
1.292,0.05,-0.01,1.12,-0.50,-0.05,0.84,
1.295,0.05,-0.01,1.12,-0.49,-0.16,0.95,
1.296,0.06,-0.02,1.12,-0.49,-0.16,0.95,
1.297,0.06,-0.02,1.13,-0.49,-0.16,0.95,
1.3,0.06,-0.03,1.12,-0.49,-0.16,0.95,
1.3,0.06,-0.03,1.12,-0.44,-0.28,0.99,
1.304,0.06,-0.03,1.12,-0.44,-0.28,0.99,
1.306,0.06,-0.03,1.11,-0.44,-0.28,0.99,
1.306,0.06,-0.03,1.11,-0.42,-0.39,1.03,
1.307,0.05,-0.04,1.10,-0.42,-0.39,1.03,
1.31,0.06,-0.03,1.10,-0.42,-0.39,1.03,
1.31,0.06,-0.03,1.10,-0.42,-0.47,0.94,
1.312,0.06,-0.04,1.09,-0.42,-0.47,0.94,
1.315,0.06,-0.04,1.09,-0.47,-0.53,0.80,
1.316,0.07,-0.04,1.08,-0.47,-0.53,0.80,
1.318,0.07,-0.04,1.08,-0.47,-0.53,0.80,
1.325,0.08,-0.05,1.08,-0.47,-0.53,0.80,
1.326,0.08,-0.05,1.08,-0.37,-0.62,0.66,
1.326,0.08,-0.04,1.07,-0.37,-0.62,0.66,
1.326,0.08,-0.04,1.06,-0.37,-0.62,0.66,
1.327,0.08,-0.04,1.06,-0.28,-0.68,0.59,
1.327,0.08,-0.04,1.06,-0.28,-0.68,0.59,
1.33,0.08,-0.03,1.05,-0.28,-0.68,0.59,
1.33,0.08,-0.03,1.05,-0.21,-0.68,0.47,
1.332,0.08,-0.03,1.05,-0.21,-0.68,0.47,
1.335,0.08,-0.02,1.04,-0.21,-0.68,0.47,
1.335,0.08,-0.02,1.04,-0.21,-0.63,0.37,
1.337,0.07,-0.02,1.04,-0.21,-0.63,0.37,
1.34,0.07,-0.02,1.04,-0.24,-0.57,0.26,
1.34,0.06,-0.01,1.03,-0.24,-0.57,0.26,
1.342,0.06,-0.01,1.03,-0.24,-0.57,0.26,
1.345,0.06,-0.01,1.02,-0.24,-0.57,0.26,
1.345,0.06,-0.01,1.02,-0.35,-0.50,0.18,
1.347,0.05,-0.00,1.02,-0.35,-0.50,0.18,
1.349,0.05,0.00,1.02,-0.35,-0.50,0.18,
1.35,0.05,0.00,1.02,-0.38,-0.44,0.07,
1.352,0.05,-0.00,1.02,-0.38,-0.44,0.07,
1.354,0.04,0.00,1.02,-0.38,-0.44,0.07,
1.355,0.04,0.00,1.02,-0.49,-0.40,0.05,
1.357,0.04,0.00,1.02,-0.49,-0.40,0.05,
1.36,0.04,0.00,1.02,-0.49,-0.40,0.05,
1.36,0.04,0.00,1.02,-0.54,-0.43,0.05,
1.362,0.04,-0.00,1.02,-0.54,-0.43,0.05,
1.365,0.04,-0.00,1.02,-0.58,-0.45,0.02,
1.365,0.04,-0.00,1.02,-0.58,-0.45,0.02,
1.367,0.03,-0.00,1.01,-0.58,-0.45,0.02,
1.371,0.04,-0.01,1.00,-0.58,-0.45,0.02,
1.371,0.04,-0.01,1.00,-0.57,-0.54,0.03,
1.372,0.04,-0.00,1.00,-0.57,-0.54,0.03,
1.374,0.04,-0.01,1.00,-0.57,-0.54,0.03,
1.375,0.04,-0.01,1.00,-0.60,-0.57,-0.08,
1.376,0.04,-0.01,0.99,-0.60,-0.57,-0.08,
1.379,0.04,-0.01,0.99,-0.60,-0.57,-0.08,
1.38,0.04,-0.01,0.99,-0.61,-0.61,-0.17,
1.381,0.05,-0.01,0.98,-0.61,-0.61,-0.17,
1.384,0.04,-0.01,0.97,-0.61,-0.61,-0.17,
1.384,0.04,-0.01,0.97,-0.57,-0.64,-0.24,
1.388,0.04,-0.01,0.97,-0.57,-0.64,-0.24,
1.389,0.04,-0.01,0.97,-0.53,-0.66,-0.40,
1.39,0.04,-0.00,0.96,-0.53,-0.66,-0.40,
1.391,0.04,0.00,0.95,-0.53,-0.66,-0.40,
1.394,0.04,-0.00,0.94,-0.53,-0.66,-0.40,
1.395,0.04,-0.00,0.94,-0.54,-0.67,-0.52,
1.396,0.04,-0.00,0.94,-0.54,-0.67,-0.52,
1.399,0.05,-0.00,0.94,-0.54,-0.67,-0.52,
1.399,0.05,-0.00,0.94,-0.51,-0.66,-0.69,
1.401,0.05,0.01,0.94,-0.51,-0.66,-0.69,
1.405,0.05,0.01,0.94,-0.51,-0.66,-0.69,
1.405,0.05,0.01,0.94,-0.49,-0.69,-0.78,
1.406,0.04,0.01,0.94,-0.49,-0.69,-0.78,
1.409,0.04,0.01,0.93,-0.49,-0.69,-0.78,
1.409,0.04,0.01,0.93,-0.47,-0.65,-0.76,
1.411,0.04,0.02,0.94,-0.47,-0.65,-0.76,
1.414,0.04,0.02,0.94,-0.52,-0.64,-0.77,
1.414,0.03,0.02,0.94,-0.52,-0.64,-0.77,
1.416,0.03,0.02,0.94,-0.52,-0.64,-0.77,
1.419,0.02,0.03,0.94,-0.52,-0.64,-0.77,
1.419,0.02,0.03,0.94,-0.53,-0.58,-0.75,
1.425,0.02,0.03,0.94,-0.53,-0.58,-0.75,
1.425,0.02,0.03,0.94,-0.66,-0.54,-0.74,
1.425,0.02,0.03,0.95,-0.66,-0.54,-0.74,
1.426,0.01,0.04,0.94,-0.66,-0.54,-0.74,
1.429,0.01,0.04,0.94,-0.69,-0.48,-0.69,
1.429,0.01,0.04,0.95,-0.69,-0.48,-0.69,
1.431,0.01,0.03,0.95,-0.69,-0.48,-0.69,
1.434,0.01,0.03,0.94,-0.69,-0.48,-0.69,
1.434,0.01,0.03,0.94,-0.74,-0.47,-0.67,
1.438,0.01,0.03,0.94,-0.74,-0.47,-0.67,
1.44,0.01,0.03,0.94,-0.75,-0.53,-0.69,
1.44,0.01,0.03,0.94,-0.75,-0.53,-0.69,
1.441,0.01,0.02,0.94,-0.75,-0.53,-0.69,
1.444,0.01,0.02,0.94,-0.75,-0.53,-0.69,
1.444,0.01,0.02,0.94,-0.76,-0.56,-0.72,
1.446,0.01,0.02,0.93,-0.76,-0.56,-0.72,
1.449,0.02,0.01,0.94,-0.76,-0.56,-0.72,
1.449,0.02,0.01,0.94,-0.74,-0.63,-0.74,
1.451,0.02,0.01,0.94,-0.74,-0.63,-0.74,
1.456,0.02,0.01,0.94,-0.74,-0.63,-0.74,
1.456,0.02,0.01,0.94,-0.67,-0.69,-0.78,
1.456,0.02,0.01,0.94,-0.67,-0.69,-0.78,
1.459,0.02,0.01,0.95,-0.67,-0.69,-0.78,
1.459,0.02,0.01,0.95,-0.62,-0.77,-0.72,
1.461,0.02,0.01,0.96,-0.62,-0.77,-0.72,
1.463,0.02,0.01,0.96,-0.58,-0.78,-0.68,
1.464,0.02,0.01,0.96,-0.58,-0.78,-0.68,
1.466,0.02,0.01,0.96,-0.58,-0.78,-0.68,
1.468,0.02,0.01,0.97,-0.58,-0.78,-0.68,
1.468,0.02,0.01,0.97,-0.54,-0.81,-0.55,
1.471,0.02,0.01,0.98,-0.54,-0.81,-0.55,
1.473,0.03,0.01,0.98,-0.54,-0.81,-0.55,
1.473,0.03,0.01,0.98,-0.57,-0.82,-0.49,
1.476,0.03,0.01,0.99,-0.57,-0.82,-0.49,
1.479,0.03,0.01,0.99,-0.57,-0.82,-0.49,
1.479,0.03,0.01,0.99,-0.51,-0.81,-0.32,
1.481,0.03,0.01,0.99,-0.51,-0.81,-0.32,
1.483,0.04,0.02,0.99,-0.51,-0.81,-0.32,
1.484,0.04,0.02,0.99,-0.48,-0.81,-0.22,
1.485,0.04,0.02,0.99,-0.48,-0.81,-0.22,
1.488,0.04,0.02,0.99,-0.48,-0.81,-0.22,
1.489,0.04,0.02,0.99,-0.40,-0.76,-0.20,
1.49,0.05,0.02,0.99,-0.40,-0.76,-0.20,
1.495,0.05,0.02,0.99,-0.40,-0.76,-0.20,
1.495,0.05,0.02,0.99,-0.32,-0.69,-0.19,
1.496,0.05,0.02,0.99,-0.32,-0.69,-0.19,
1.498,0.05,0.03,0.98,-0.32,-0.69,-0.19,
1.499,0.05,0.03,0.98,-0.25,-0.72,-0.20,
1.501,0.05,0.03,0.98,-0.25,-0.72,-0.20,
1.506,0.05,0.03,0.98,-0.25,-0.72,-0.20,
1.506,0.05,0.03,0.98,-0.20,-0.71,-0.23,
1.506,0.05,0.03,0.97,-0.20,-0.71,-0.23,
1.508,0.04,0.03,0.97,-0.20,-0.71,-0.23,
1.509,0.04,0.03,0.97,-0.20,-0.69,-0.34,
1.51,0.04,0.03,0.96,-0.20,-0.69,-0.34,
1.513,0.04,0.03,0.96,-0.21,-0.64,-0.40,
1.513,0.04,0.04,0.96,-0.21,-0.64,-0.40,
1.515,0.04,0.04,0.95,-0.21,-0.64,-0.40,
1.518,0.03,0.04,0.94,-0.21,-0.64,-0.40,
1.519,0.03,0.04,0.94,-0.27,-0.61,-0.51,
1.521,0.02,0.03,0.94,-0.27,-0.61,-0.51,
1.523,0.02,0.03,0.94,-0.29,-0.60,-0.65,
1.524,0.02,0.03,0.93,-0.29,-0.60,-0.65,
1.525,0.02,0.03,0.93,-0.29,-0.60,-0.65,
1.528,0.01,0.03,0.92,-0.29,-0.60,-0.65,
1.528,0.01,0.03,0.92,-0.36,-0.64,-0.76,
1.53,0.01,0.03,0.92,-0.36,-0.64,-0.76,
1.533,0.00,0.03,0.92,-0.36,-0.64,-0.76,
1.533,0.00,0.03,0.92,-0.40,-0.70,-0.85,
1.535,-0.00,0.03,0.91,-0.40,-0.70,-0.85,
1.54,-0.00,0.03,0.91,-0.47,-0.68,-0.91,
1.54,-0.00,0.03,0.92,-0.47,-0.68,-0.91,
1.54,-0.01,0.02,0.92,-0.47,-0.68,-0.91,
1.543,-0.01,0.02,0.91,-0.47,-0.68,-0.91,
1.543,-0.01,0.02,0.91,-0.51,-0.72,-0.94,
1.545,-0.01,0.02,0.92,-0.51,-0.72,-0.94,
1.548,-0.01,0.02,0.92,-0.55,-0.75,-0.97,
1.549,-0.02,0.02,0.92,-0.55,-0.75,-0.97,
1.55,-0.02,0.03,0.92,-0.55,-0.75,-0.97,
1.553,-0.02,0.03,0.92,-0.55,-0.75,-0.97,
1.553,-0.02,0.03,0.92,-0.61,-0.74,-0.89,
1.555,-0.02,0.02,0.92,-0.61,-0.74,-0.89,
1.558,-0.02,0.02,0.93,-0.61,-0.74,-0.89,
1.558,-0.02,0.02,0.93,-0.62,-0.72,-0.90,
1.561,-0.02,0.03,0.93,-0.62,-0.72,-0.90,
1.563,-0.02,0.03,0.93,-0.62,-0.73,-0.84,
1.563,-0.02,0.02,0.93,-0.62,-0.73,-0.84,
1.565,-0.02,0.02,0.94,-0.62,-0.73,-0.84,
1.568,-0.02,0.02,0.94,-0.62,-0.73,-0.84,
1.568,-0.02,0.02,0.94,-0.59,-0.74,-0.79,
1.57,-0.02,0.03,0.94,-0.59,-0.74,-0.79,
1.573,-0.01,0.02,0.93,-0.59,-0.74,-0.79,
1.573,-0.01,0.02,0.93,-0.58,-0.74,-0.71,
1.575,-0.01,0.02,0.94,-0.58,-0.74,-0.71,
1.577,-0.00,0.03,0.93,-0.58,-0.74,-0.71,
1.578,-0.00,0.03,0.93,-0.51,-0.73,-0.75,
1.58,0.00,0.03,0.93,-0.51,-0.73,-0.75,
1.583,0.00,0.03,0.93,-0.51,-0.73,-0.75,
1.583,0.00,0.03,0.93,-0.43,-0.74,-0.75,
1.585,0.01,0.03,0.92,-0.43,-0.74,-0.75,
1.589,0.01,0.03,0.92,-0.32,-0.73,-0.79,
1.59,0.01,0.03,0.92,-0.32,-0.73,-0.79,
1.59,0.02,0.03,0.92,-0.32,-0.73,-0.79,
1.592,0.01,0.03,0.92,-0.32,-0.73,-0.79,
1.593,0.01,0.03,0.92,-0.21,-0.69,-0.85,
1.595,0.01,0.03,0.91,-0.21,-0.69,-0.85,
1.598,0.01,0.04,0.91,-0.21,-0.69,-0.85,
1.598,0.01,0.04,0.91,-0.16,-0.72,-0.89,
1.6,0.00,0.04,0.90,-0.16,-0.72,-0.89,
1.603,-0.00,0.04,0.90,-0.16,-0.72,-0.89,
1.603,-0.00,0.04,0.90,-0.21,-0.66,-0.96,
1.605,-0.01,0.04,0.89,-0.21,-0.66,-0.96,
1.607,-0.01,0.05,0.89,-0.21,-0.66,-0.96,
1.607,-0.01,0.05,0.89,-0.25,-0.62,-1.06,
1.609,-0.02,0.05,0.88,-0.25,-0.62,-1.06,
1.613,-0.02,0.05,0.88,-0.30,-0.59,-1.15,
1.613,-0.02,0.04,0.87,-0.30,-0.59,-1.15,
1.615,-0.03,0.05,0.87,-0.30,-0.59,-1.15,
1.618,-0.03,0.05,0.87,-0.30,-0.59,-1.15,
1.618,-0.03,0.05,0.87,-0.37,-0.60,-1.28,
1.62,-0.03,0.05,0.86,-0.37,-0.60,-1.28,
1.623,-0.04,0.05,0.85,-0.37,-0.60,-1.28,
1.623,-0.04,0.05,0.85,-0.46,-0.58,-1.35,
1.624,-0.04,0.05,0.85,-0.46,-0.58,-1.35,
1.627,-0.05,0.05,0.84,-0.46,-0.58,-1.35,
1.628,-0.05,0.05,0.84,-0.51,-0.60,-1.48,
1.63,-0.05,0.05,0.84,-0.51,-0.60,-1.48,
1.632,-0.05,0.05,0.83,-0.51,-0.60,-1.48,
1.633,-0.05,0.05,0.83,-0.57,-0.59,-1.62,
1.635,-0.05,0.06,0.83,-0.57,-0.59,-1.62,
1.637,-0.05,0.06,0.83,-0.57,-0.60,-1.69,
1.637,-0.05,0.06,0.83,-0.57,-0.60,-1.69,
1.642,-0.05,0.06,0.83,-0.57,-0.60,-1.69,
1.642,-0.05,0.06,0.83,-0.57,-0.60,-1.69,
1.643,-0.05,0.06,0.83,-0.56,-0.55,-1.74,
1.644,-0.05,0.06,0.82,-0.56,-0.55,-1.74,
1.647,-0.04,0.06,0.82,-0.56,-0.55,-1.74,
1.649,-0.04,0.06,0.82,-0.55,-0.53,-1.75,
1.649,-0.04,0.06,0.81,-0.55,-0.53,-1.75,
1.652,-0.04,0.06,0.81,-0.45,-0.50,-1.82,
1.652,-0.04,0.07,0.82,-0.45,-0.50,-1.82,
1.655,-0.04,0.07,0.81,-0.45,-0.50,-1.82,
1.657,-0.04,0.07,0.81,-0.45,-0.50,-1.82,
1.657,-0.04,0.07,0.81,-0.38,-0.49,-1.85,
1.659,-0.04,0.07,0.81,-0.38,-0.49,-1.85,
1.661,-0.04,0.07,0.81,-0.36,-0.47,-1.88,
1.662,-0.03,0.08,0.80,-0.36,-0.47,-1.88,
1.663,-0.03,0.08,0.80,-0.36,-0.47,-1.88,
1.666,-0.03,0.08,0.80,-0.26,-0.42,-1.94,
1.667,-0.03,0.08,0.79,-0.26,-0.42,-1.94,
1.669,-0.02,0.09,0.79,-0.26,-0.42,-1.94,
1.673,-0.02,0.10,0.79,-0.26,-0.42,-1.94,
1.674,-0.02,0.10,0.79,-0.19,-0.36,-2.05,
1.674,-0.01,0.10,0.78,-0.19,-0.36,-2.05,
1.676,-0.01,0.10,0.78,-0.19,-0.36,-2.05,
1.677,-0.01,0.10,0.78,-0.09,-0.27,-2.10,
1.678,-0.02,0.11,0.77,-0.09,-0.27,-2.10,
1.681,-0.02,0.11,0.77,-0.09,-0.27,-2.10,
1.682,-0.02,0.11,0.77,0.00,-0.22,-2.20,
1.684,-0.02,0.11,0.77,0.00,-0.22,-2.20,
1.686,-0.02,0.11,0.77,-0.06,-0.13,-2.26,
1.686,-0.02,0.12,0.76,-0.06,-0.13,-2.26,
1.688,-0.03,0.12,0.76,-0.06,-0.13,-2.26,
1.691,-0.03,0.13,0.76,-0.06,-0.13,-2.26,
1.691,-0.03,0.13,0.76,-0.03,-0.06,-2.31,
1.693,-0.03,0.13,0.76,-0.03,-0.06,-2.31,
1.696,-0.04,0.12,0.76,-0.03,-0.06,-2.31,
1.697,-0.04,0.12,0.76,-0.08,0.02,-2.36,
1.698,-0.04,0.12,0.75,-0.08,0.02,-2.36,
1.701,-0.05,0.12,0.76,-0.08,0.02,-2.36,
1.701,-0.05,0.12,0.76,-0.13,0.03,-2.36,
1.703,-0.05,0.12,0.76,-0.13,0.03,-2.36,
1.708,-0.05,0.12,0.76,-0.20,0.01,-2.36,
1.708,-0.06,0.13,0.76,-0.20,0.01,-2.36,
1.709,-0.06,0.13,0.77,-0.20,0.01,-2.36,
1.713,-0.06,0.13,0.77,-0.28,0.03,-2.31,
1.713,-0.07,0.13,0.77,-0.28,0.03,-2.31,
1.713,-0.07,0.12,0.79,-0.28,0.03,-2.31,
1.716,-0.07,0.12,0.79,-0.28,0.03,-2.31,
1.716,-0.07,0.12,0.79,-0.35,0.06,-2.22,
1.718,-0.08,0.12,0.80,-0.35,0.06,-2.22,
1.722,-0.08,0.12,0.80,-0.35,0.06,-2.22,
1.722,-0.08,0.12,0.80,-0.41,0.02,-2.05,
1.724,-0.08,0.12,0.81,-0.41,0.02,-2.05,
1.727,-0.09,0.13,0.82,-0.41,0.02,-2.05,
1.727,-0.09,0.13,0.82,-0.45,0.01,-1.93,
1.728,-0.09,0.12,0.82,-0.45,0.01,-1.93,
1.731,-0.09,0.12,0.83,-0.45,0.01,-1.93,
1.731,-0.09,0.12,0.83,-0.50,0.04,-1.77,
1.733,-0.10,0.12,0.84,-0.50,0.04,-1.77,
1.736,-0.10,0.12,0.84,-0.55,0.05,-1.66,
1.736,-0.09,0.12,0.84,-0.55,0.05,-1.66,
1.739,-0.09,0.12,0.84,-0.55,0.05,-1.66,
1.741,-0.09,0.12,0.84,-0.55,0.05,-1.66,
1.741,-0.09,0.12,0.84,-0.56,0.03,-1.50,
1.743,-0.09,0.11,0.85,-0.56,0.03,-1.50,
1.746,-0.09,0.11,0.85,-0.56,0.03,-1.50,
1.746,-0.09,0.11,0.85,-0.53,0.02,-1.50,
1.748,-0.09,0.12,0.84,-0.53,0.02,-1.50,
1.75,-0.09,0.12,0.84,-0.53,0.02,-1.50,
1.751,-0.09,0.12,0.84,-0.55,-0.05,-1.43,
1.753,-0.09,0.12,0.83,-0.55,-0.05,-1.43,
1.759,-0.09,0.12,0.82,-0.55,-0.05,-1.43,
1.76,-0.09,0.12,0.82,-0.51,-0.01,-1.52,
1.76,-0.09,0.12,0.82,-0.51,-0.01,-1.52,
1.761,-0.09,0.12,0.82,-0.48,0.03,-1.64,
1.761,-0.09,0.12,0.83,-0.48,0.03,-1.64,
1.763,-0.09,0.13,0.82,-0.48,0.03,-1.64,
1.765,-0.09,0.14,0.83,-0.48,0.03,-1.64,
1.766,-0.09,0.14,0.83,-0.49,0.04,-1.64,
1.768,-0.09,0.14,0.82,-0.49,0.04,-1.64,
1.77,-0.09,0.15,0.82,-0.49,0.04,-1.64,
1.771,-0.09,0.15,0.82,-0.48,0.17,-1.65,
1.772,-0.09,0.15,0.82,-0.48,0.17,-1.65,
1.776,-0.09,0.15,0.81,-0.48,0.17,-1.65,
1.776,-0.09,0.15,0.81,-0.47,0.25,-1.70,
1.778,-0.09,0.15,0.80,-0.47,0.25,-1.70,
1.78,-0.08,0.15,0.79,-0.47,0.25,-1.70,
1.781,-0.08,0.15,0.79,-0.48,0.27,-1.74,
1.782,-0.08,0.15,0.78,-0.48,0.27,-1.74,
1.785,-0.08,0.15,0.78,-0.42,0.30,-1.92,
1.785,-0.07,0.15,0.78,-0.42,0.30,-1.92,
1.789,-0.07,0.15,0.77,-0.42,0.30,-1.92,
1.79,-0.05,0.15,0.77,-0.42,0.30,-1.92,
1.79,-0.05,0.15,0.77,-0.32,0.25,-2.07,
1.792,-0.05,0.15,0.76,-0.32,0.25,-2.07,
1.795,-0.04,0.15,0.76,-0.32,0.25,-2.07,
1.796,-0.04,0.15,0.76,-0.17,0.22,-2.17,
1.797,-0.04,0.15,0.76,-0.17,0.22,-2.17,
1.8,-0.04,0.15,0.76,-0.17,0.22,-2.17,
1.8,-0.04,0.15,0.76,-0.03,0.19,-2.25,
1.802,-0.03,0.16,0.76,-0.03,0.19,-2.25,
1.806,-0.04,0.15,0.76,-0.03,0.19,-2.25,
1.806,-0.04,0.15,0.76,0.00,0.21,-2.25,
1.808,-0.03,0.15,0.77,0.00,0.21,-2.25,
1.812,-0.03,0.16,0.76,0.00,0.21,-2.25,
1.813,-0.03,0.16,0.76,0.06,0.22,-2.21,
1.816,-0.03,0.16,0.77,0.06,0.22,-2.21,
1.816,-0.03,0.16,0.78,0.06,0.22,-2.21,
1.816,-0.03,0.16,0.78,0.09,0.22,-2.19,
1.817,-0.03,0.16,0.78,0.09,0.22,-2.19,
1.82,-0.03,0.15,0.79,0.09,0.22,-2.19,
1.82,-0.03,0.15,0.79,0.11,0.23,-2.12,
1.823,-0.03,0.15,0.79,0.11,0.23,-2.12,
1.825,-0.03,0.15,0.79,0.08,0.20,-1.98,
1.825,-0.03,0.15,0.80,0.08,0.20,-1.98,
1.827,-0.02,0.15,0.82,0.08,0.20,-1.98,
1.831,-0.03,0.15,0.82,0.08,0.20,-1.98,
1.831,-0.03,0.15,0.82,0.11,0.18,-1.86,
1.832,-0.03,0.15,0.83,0.11,0.18,-1.86,
1.835,-0.03,0.15,0.83,0.11,0.18,-1.86,
1.835,-0.03,0.15,0.83,0.10,0.16,-1.65,
1.838,-0.03,0.15,0.85,0.10,0.16,-1.65,
1.84,-0.04,0.14,0.85,0.10,0.16,-1.65,
1.84,-0.04,0.14,0.85,0.05,0.14,-1.51,
1.842,-0.04,0.14,0.86,0.05,0.14,-1.51,
1.845,-0.05,0.14,0.88,0.05,0.14,-1.51,
1.846,-0.05,0.14,0.88,-0.01,0.11,-1.32,
1.847,-0.05,0.14,0.89,-0.01,0.11,-1.32,
1.85,-0.05,0.14,0.89,-0.09,0.08,-1.11,
1.851,-0.04,0.14,0.89,-0.09,0.08,-1.11,
1.852,-0.04,0.14,0.90,-0.09,0.08,-1.11,
1.86,-0.04,0.14,0.91,-0.09,0.08,-1.11,
1.861,-0.04,0.14,0.91,-0.12,0.07,-0.95,
1.861,-0.04,0.13,0.93,-0.12,0.07,-0.95,
1.861,-0.04,0.13,0.93,-0.08,0.05,-0.77,
1.862,-0.04,0.13,0.93,-0.08,0.05,-0.77,
1.863,-0.04,0.13,0.94,-0.08,0.05,-0.77,
1.865,-0.04,0.13,0.95,-0.08,0.05,-0.77,
1.865,-0.04,0.13,0.95,-0.13,0.02,-0.54,
1.867,-0.04,0.13,0.96,-0.13,0.02,-0.54,
1.87,-0.04,0.13,0.97,-0.13,0.02,-0.54,
1.871,-0.04,0.13,0.97,-0.13,0.02,-0.39,
1.872,-0.04,0.13,0.97,-0.13,0.02,-0.39,
1.874,-0.04,0.13,0.97,-0.09,0.01,-0.18,
1.875,-0.03,0.13,0.97,-0.09,0.01,-0.18,
1.877,-0.03,0.13,0.98,-0.09,0.01,-0.18,
1.88,-0.03,0.14,0.98,-0.09,0.01,-0.18,
1.88,-0.03,0.14,0.98,-0.07,0.04,-0.12,
1.881,-0.02,0.14,0.98,-0.07,0.04,-0.12,
1.885,-0.01,0.14,0.98,-0.07,0.04,-0.12,
1.886,-0.01,0.14,0.98,0.00,0.08,-0.07,
1.887,-0.01,0.14,0.98,0.00,0.08,-0.07,
1.89,0.00,0.14,0.98,0.00,0.08,-0.07,
1.891,0.00,0.14,0.98,0.12,0.11,-0.03,
1.892,0.01,0.14,0.98,0.12,0.11,-0.03,
1.895,0.01,0.14,0.98,0.22,0.14,-0.03,
1.895,0.01,0.15,0.97,0.22,0.14,-0.03,
1.897,0.02,0.15,0.97,0.22,0.14,-0.03,
1.9,0.02,0.15,0.97,0.33,0.17,-0.11,
1.9,0.03,0.16,0.95,0.33,0.17,-0.11,
1.902,0.04,0.16,0.95,0.33,0.17,-0.11,
1.905,0.04,0.17,0.94,0.33,0.17,-0.11,
1.905,0.04,0.17,0.94,0.46,0.26,-0.26,
1.907,0.04,0.17,0.94,0.46,0.26,-0.26,
1.91,0.05,0.17,0.93,0.46,0.26,-0.26,
1.91,0.05,0.17,0.93,0.59,0.34,-0.39,
1.912,0.05,0.17,0.92,0.59,0.34,-0.39,
1.915,0.05,0.17,0.92,0.67,0.39,-0.51,
1.915,0.05,0.17,0.91,0.67,0.39,-0.51,
1.916,0.06,0.18,0.91,0.67,0.39,-0.51,
1.92,0.06,0.18,0.91,0.67,0.39,-0.51,
1.92,0.06,0.18,0.91,0.74,0.42,-0.64,
1.922,0.06,0.18,0.90,0.74,0.42,-0.64,
1.924,0.06,0.18,0.90,0.79,0.45,-0.71,
1.924,0.05,0.18,0.91,0.79,0.45,-0.71,
1.926,0.05,0.19,0.90,0.79,0.45,-0.71,
1.93,0.05,0.18,0.90,0.79,0.45,-0.71,
1.93,0.05,0.18,0.90,0.76,0.50,-0.77,
1.932,0.04,0.18,0.90,0.76,0.50,-0.77,
1.934,0.04,0.18,0.91,0.76,0.50,-0.77,
1.935,0.04,0.18,0.91,0.69,0.52,-0.79,
1.936,0.03,0.18,0.92,0.69,0.52,-0.79,
1.94,0.03,0.18,0.92,0.69,0.52,-0.79,
1.94,0.03,0.18,0.92,0.59,0.48,-0.75,
1.941,0.03,0.18,0.92,0.59,0.48,-0.75,
1.944,0.03,0.18,0.93,0.59,0.48,-0.75,
1.944,0.03,0.18,0.93,0.51,0.45,-0.65,
1.946,0.02,0.17,0.93,0.51,0.45,-0.65,
1.948,0.02,0.17,0.93,0.46,0.43,-0.56,
1.949,0.02,0.17,0.94,0.46,0.43,-0.56,
1.951,0.02,0.16,0.94,0.46,0.43,-0.56,
1.954,0.01,0.16,0.96,0.46,0.43,-0.56,
1.954,0.01,0.16,0.96,0.40,0.36,-0.47,
1.957,0.01,0.16,0.96,0.40,0.36,-0.47,
1.958,0.01,0.15,0.97,0.40,0.36,-0.47,
1.959,0.01,0.15,0.97,0.34,0.27,-0.32,
1.961,0.01,0.15,0.98,0.34,0.27,-0.32,
1.963,0.01,0.15,0.99,0.34,0.27,-0.32,
1.964,0.01,0.15,0.99,0.29,0.23,-0.14,
1.965,0.00,0.15,1.00,0.29,0.23,-0.14,
1.968,0.00,0.15,1.01,0.29,0.23,-0.14,
1.969,0.00,0.15,1.01,0.27,0.19,0.01,
1.97,-0.01,0.15,1.02,0.27,0.19,0.01,
1.977,-0.01,0.15,1.02,0.19,0.16,0.20,
1.978,-0.01,0.15,1.03,0.19,0.16,0.20,
1.978,-0.01,0.15,1.04,0.19,0.16,0.20,
1.98,-0.01,0.15,1.05,0.19,0.16,0.20,
1.98,-0.01,0.15,1.05,0.06,0.18,0.40,
1.981,-0.01,0.15,1.05,0.06,0.18,0.40,
1.983,-0.01,0.15,1.06,0.06,0.18,0.40,
1.983,-0.01,0.15,1.06,0.04,0.19,0.57,
1.985,-0.01,0.15,1.06,0.04,0.19,0.57,
1.991,-0.01,0.15,1.06,0.04,0.19,0.57,
1.991,-0.01,0.15,1.06,-0.01,0.21,0.70,
1.992,-0.01,0.15,1.06,-0.01,0.21,0.70,
1.993,-0.01,0.14,1.06,-0.01,0.21,0.70,
1.993,-0.01,0.14,1.06,-0.00,0.18,0.74,
1.995,-0.01,0.14,1.06,-0.00,0.18,0.74,
1.998,-0.01,0.14,1.06,-0.01,0.14,0.73,
1.998,-0.01,0.14,1.05,-0.01,0.14,0.73,
2.0,-0.01,0.14,1.04,-0.01,0.14,0.73,
2.003,-0.00,0.14,1.03,-0.01,0.14,0.73,
2.003,-0.00,0.14,1.03,-0.01,0.08,0.67,
2.007,-0.00,0.14,1.02,-0.01,0.08,0.67,
2.009,-0.00,0.14,1.02,-0.01,0.08,0.67,
2.009,-0.00,0.14,1.02,0.06,0.09,0.51,
2.01,-0.01,0.14,1.01,0.06,0.09,0.51,
2.013,-0.01,0.14,1.00,0.06,0.09,0.51,
2.013,-0.01,0.14,1.00,0.09,0.06,0.33,
2.015,-0.01,0.14,1.00,0.09,0.06,0.33,
2.019,-0.01,0.15,0.99,0.09,0.06,0.33,
2.019,-0.01,0.15,0.99,0.07,0.09,0.22,
2.02,-0.01,0.15,0.98,0.07,0.09,0.22,
2.023,-0.01,0.15,0.98,0.04,0.12,0.08,
2.024,-0.01,0.15,0.97,0.04,0.12,0.08,
2.025,-0.02,0.15,0.97,0.04,0.12,0.08,
2.028,-0.02,0.15,0.96,0.04,0.12,0.08,
2.028,-0.02,0.15,0.96,0.02,0.14,-0.10,
2.03,-0.01,0.15,0.95,0.02,0.14,-0.10,
2.033,-0.02,0.14,0.95,0.02,0.14,-0.10,
2.033,-0.02,0.14,0.95,-0.00,0.17,-0.18,
2.035,-0.02,0.14,0.95,-0.00,0.17,-0.18,
2.038,-0.01,0.14,0.94,-0.00,0.17,-0.18,
2.038,-0.01,0.14,0.94,0.01,0.09,-0.35,
2.041,-0.02,0.14,0.94,0.01,0.09,-0.35,
2.043,-0.02,0.14,0.94,0.01,0.09,-0.35,
2.043,-0.02,0.14,0.94,0.01,0.05,-0.37,
2.045,-0.02,0.13,0.94,0.01,0.05,-0.37,
2.048,-0.02,0.13,0.94,-0.01,0.01,-0.43,
2.048,-0.02,0.13,0.95,-0.01,0.01,-0.43,
2.05,-0.02,0.13,0.95,-0.01,0.01,-0.43,
2.052,-0.02,0.13,0.95,-0.01,0.01,-0.43,
2.053,-0.02,0.13,0.95,-0.03,-0.04,-0.39,
2.055,-0.02,0.13,0.96,-0.03,-0.04,-0.39,
2.057,-0.03,0.13,0.96,-0.03,-0.04,-0.39,
2.058,-0.03,0.13,0.96,-0.04,-0.07,-0.34,
2.06,-0.03,0.12,0.96,-0.04,-0.07,-0.34,
2.062,-0.03,0.12,0.97,-0.04,-0.07,-0.34,
2.063,-0.03,0.12,0.97,-0.12,-0.08,-0.23,
2.065,-0.04,0.12,0.98,-0.12,-0.08,-0.23,
2.067,-0.04,0.12,0.99,-0.12,-0.08,-0.23,
2.067,-0.04,0.12,0.99,-0.17,-0.15,-0.19,
2.07,-0.04,0.12,0.99,-0.17,-0.15,-0.19,
2.077,-0.04,0.12,0.99,-0.23,-0.17,-0.02,
2.077,-0.04,0.11,1.00,-0.23,-0.17,-0.02,
2.078,-0.04,0.11,1.00,-0.23,-0.17,-0.02,
2.078,-0.04,0.11,1.01,-0.23,-0.17,-0.02,
2.078,-0.04,0.11,1.01,-0.28,-0.20,0.10,
2.081,-0.04,0.11,1.02,-0.28,-0.20,0.10,
2.082,-0.04,0.11,1.02,-0.28,-0.20,0.10,
2.082,-0.04,0.11,1.02,-0.27,-0.21,0.22,
2.084,-0.05,0.11,1.02,-0.27,-0.21,0.22,
2.087,-0.05,0.11,1.03,-0.27,-0.21,0.22,
2.087,-0.05,0.11,1.03,-0.30,-0.23,0.33,
2.091,-0.05,0.11,1.03,-0.30,-0.23,0.33,
2.093,-0.05,0.11,1.03,-0.30,-0.23,0.33,
2.093,-0.05,0.11,1.03,-0.38,-0.20,0.38,
2.094,-0.05,0.11,1.03,-0.38,-0.20,0.38,
2.097,-0.05,0.11,1.03,-0.39,-0.24,0.42,
2.097,-0.05,0.11,1.03,-0.39,-0.24,0.42,
2.099,-0.05,0.11,1.03,-0.39,-0.24,0.42,
2.102,-0.05,0.10,1.02,-0.39,-0.24,0.42,
2.102,-0.05,0.10,1.02,-0.41,-0.23,0.42,
2.104,-0.05,0.11,1.00,-0.41,-0.23,0.42,
2.108,-0.04,0.11,0.96,-0.41,-0.23,0.42,
2.109,-0.04,0.11,0.96,-0.37,-0.26,0.43,
2.11,-0.03,0.11,0.92,-0.37,-0.26,0.43,
2.114,-0.01,0.11,0.91,-0.37,-0.26,0.43,
2.115,-0.01,0.11,0.91,-0.30,-0.25,-0.08,
2.115,-0.02,0.11,0.92,-0.30,-0.25,-0.08,
2.117,-0.03,0.11,0.94,-0.30,-0.25,-0.08,
2.117,-0.03,0.11,0.94,-0.09,-0.22,-0.69,
2.119,-0.04,0.11,0.95,-0.09,-0.22,-0.69,
2.127,-0.04,0.11,0.95,-0.14,-0.26,-0.51,
2.128,-0.05,0.11,0.96,-0.14,-0.26,-0.51,
2.128,-0.05,0.12,0.95,-0.14,-0.26,-0.51,
2.129,-0.05,0.13,0.94,-0.14,-0.26,-0.51,
2.129,-0.05,0.13,0.94,-0.31,-0.20,-0.32,
2.129,-0.05,0.13,0.93,-0.31,-0.20,-0.32,
2.132,-0.05,0.13,0.93,-0.31,-0.20,-0.32,
2.132,-0.05,0.13,0.93,-0.38,-0.09,-0.40,
2.134,-0.05,0.14,0.93,-0.38,-0.09,-0.40,
2.137,-0.05,0.14,0.93,-0.39,-0.02,-0.55,
2.137,-0.04,0.14,0.93,-0.39,-0.02,-0.55,
2.14,-0.03,0.14,0.93,-0.39,-0.02,-0.55,
2.143,-0.02,0.14,0.94,-0.39,-0.02,-0.55,
2.148,-0.02,0.14,0.94,-0.29,0.08,-0.53,
2.148,-0.01,0.14,0.94,-0.29,0.08,-0.53,
2.149,-0.01,0.14,0.94,-0.10,0.12,-0.48,
2.149,-0.01,0.14,0.95,-0.10,0.12,-0.48,
2.149,0.01,0.14,0.96,-0.10,0.12,-0.48,
2.152,0.01,0.14,0.96,-0.10,0.12,-0.48,
2.152,0.01,0.14,0.96,0.04,0.14,-0.38,
2.154,0.01,0.14,0.96,0.04,0.14,-0.38,
2.159,0.01,0.14,0.96,0.21,0.15,-0.27,
2.159,0.01,0.14,0.97,0.21,0.15,-0.27,
2.16,0.02,0.14,0.98,0.21,0.15,-0.27,
2.164,0.02,0.15,0.98,0.21,0.15,-0.27,
2.165,0.02,0.15,0.98,0.24,0.16,-0.19,
2.165,0.02,0.14,0.99,0.24,0.16,-0.19,
2.167,0.02,0.15,1.00,0.24,0.16,-0.19,
2.167,0.02,0.15,1.00,0.29,0.18,-0.05,
2.169,0.01,0.14,1.02,0.29,0.18,-0.05,
2.172,0.01,0.14,1.02,0.30,0.21,0.11,
2.172,0.01,0.14,1.03,0.30,0.21,0.11,
2.174,0.02,0.14,1.04,0.30,0.21,0.11,
2.177,0.03,0.14,1.04,0.30,0.21,0.11,
2.177,0.03,0.14,1.04,0.25,0.17,0.36,
2.178,0.03,0.14,1.05,0.25,0.17,0.36,
2.182,0.04,0.15,1.06,0.25,0.17,0.36,
2.182,0.04,0.15,1.06,0.34,0.16,0.56,
2.184,0.04,0.14,1.07,0.34,0.16,0.56,
2.186,0.04,0.15,1.08,0.34,0.16,0.56,
2.187,0.04,0.15,1.08,0.47,0.24,0.66,
2.189,0.04,0.16,1.09,0.47,0.24,0.66,
2.195,0.05,0.16,1.09,0.47,0.24,0.66,
2.195,0.05,0.16,1.09,0.49,0.23,0.86,
2.195,0.04,0.16,1.10,0.49,0.23,0.86,
2.197,0.04,0.16,1.10,0.53,0.35,1.04,
2.197,0.04,0.16,1.09,0.53,0.35,1.04,
2.199,0.04,0.16,1.09,0.53,0.35,1.04,
2.201,0.03,0.16,1.08,0.53,0.35,1.04,
2.202,0.03,0.16,1.08,0.51,0.36,1.04,
2.203,0.03,0.16,1.08,0.51,0.36,1.04,
2.206,0.03,0.15,1.07,0.51,0.36,1.04,
2.207,0.03,0.15,1.07,0.40,0.35,0.97,
