
time,gFx,gFy,gFz,ax,ay,az,
0.003,-0.01,0.14,0.98,-0.11,-0.37,-0.30,
0.004,-0.01,0.14,0.98,-0.06,-0.40,-0.21,
0.004,-0.01,0.15,0.98,-0.06,-0.40,-0.21,
0.004,-0.02,0.15,0.98,-0.06,-0.40,-0.21,
0.005,-0.02,0.15,0.98,-0.02,-0.42,-0.13,
0.005,-0.01,0.15,0.98,-0.02,-0.42,-0.13,
0.005,-0.01,0.16,0.98,-0.02,-0.42,-0.13,
0.005,-0.01,0.16,0.98,-0.08,-0.37,-0.05,
0.005,-0.02,0.16,0.99,-0.08,-0.37,-0.05,
0.01,-0.01,0.16,0.99,-0.08,-0.37,-0.05,
0.01,-0.01,0.16,0.99,-0.06,-0.31,-0.06,
0.01,-0.02,0.16,1.00,-0.06,-0.31,-0.06,
0.012,-0.01,0.16,1.00,-0.06,-0.31,-0.06,
0.012,-0.01,0.16,1.00,-0.07,-0.26,0.04,
0.024,-0.01,0.16,1.00,-0.07,-0.26,0.04,
0.025,-0.01,0.16,1.00,-0.07,-0.26,0.04,
0.025,-0.01,0.16,1.00,-0.06,-0.28,0.12,
0.025,-0.00,0.16,1.01,-0.06,-0.28,0.12,
0.025,-0.01,0.16,1.00,-0.06,-0.28,0.12,
0.025,-0.01,0.16,1.00,0.00,-0.28,0.15,
0.026,-0.01,0.16,1.01,0.00,-0.28,0.15,
0.027,-0.01,0.16,1.00,0.00,-0.28,0.15,
0.027,-0.01,0.16,1.00,0.05,-0.25,0.18,
0.029,-0.01,0.16,1.00,0.05,-0.25,0.18,
0.04,-0.01,0.16,0.99,0.05,-0.25,0.18,
0.042,-0.01,0.16,0.99,0.04,-0.22,0.17,
0.042,-0.01,0.17,0.99,0.04,-0.22,0.17,
0.042,-0.02,0.17,0.98,0.04,-0.22,0.17,
0.042,-0.02,0.17,0.98,0.05,-0.24,0.09,
0.042,-0.02,0.17,0.98,0.05,-0.24,0.09,
0.043,-0.02,0.17,0.97,0.05,-0.24,0.09,
0.043,-0.02,0.17,0.97,0.02,-0.12,0.01,
0.044,-0.02,0.17,0.97,0.02,-0.12,0.01,
0.047,-0.02,0.17,0.96,0.02,-0.12,0.01,
0.047,-0.02,0.17,0.96,-0.03,-0.12,-0.14,
0.059,-0.02,0.17,0.96,-0.03,-0.12,-0.14,
0.059,-0.02,0.17,0.96,-0.03,-0.12,-0.14,
0.059,-0.02,0.17,0.96,-0.03,-0.14,-0.23,
0.059,-0.01,0.17,0.96,-0.03,-0.14,-0.23,
0.059,-0.02,0.17,0.96,-0.03,-0.14,-0.23,
0.06,-0.02,0.17,0.96,-0.00,-0.14,-0.26,
0.06,-0.02,0.17,0.95,-0.00,-0.14,-0.26,
0.061,-0.02,0.18,0.95,-0.00,-0.14,-0.26,
0.062,-0.02,0.18,0.95,0.09,-0.12,-0.27,
0.075,-0.02,0.18,0.95,0.09,-0.12,-0.27,
0.076,-0.02,0.18,0.95,0.09,-0.12,-0.27,
0.076,-0.02,0.18,0.95,0.07,-0.07,-0.31,
0.076,-0.00,0.20,0.94,0.07,-0.07,-0.31,
0.077,-0.00,0.20,0.94,0.07,-0.04,-0.31,
0.077,0.02,0.24,0.94,0.07,-0.04,-0.31,
0.077,0.01,0.23,0.95,0.07,-0.04,-0.31,
0.077,-0.00,0.22,0.95,0.07,-0.04,-0.31,
0.077,-0.00,0.22,0.95,0.35,0.40,-0.40,
0.079,-0.01,0.22,0.95,0.35,0.40,-0.40,
0.094,-0.02,0.22,0.94,0.35,0.40,-0.40,
0.095,-0.02,0.22,0.94,0.29,0.44,-0.36,
0.095,-0.03,0.21,0.94,0.29,0.44,-0.36,
0.095,-0.03,0.21,0.94,0.29,0.44,-0.36,
0.096,-0.03,0.21,0.94,0.13,0.31,-0.40,
0.096,-0.04,0.20,0.94,0.13,0.31,-0.40,
0.096,-0.04,0.20,0.95,0.13,0.31,-0.40,
0.096,-0.04,0.20,0.95,-0.02,0.22,-0.40,
0.097,-0.04,0.19,0.96,-0.02,0.22,-0.40,
0.097,-0.04,0.18,0.96,-0.02,0.22,-0.40,
0.097,-0.04,0.18,0.96,-0.10,0.12,-0.34,
0.108,-0.05,0.18,0.96,-0.10,0.12,-0.34,
0.109,-0.06,0.18,0.97,-0.10,0.12,-0.34,
0.109,-0.06,0.18,0.97,-0.16,-0.02,-0.21,
0.109,-0.06,0.17,0.98,-0.16,-0.02,-0.21,
0.11,-0.07,0.17,0.98,-0.16,-0.02,-0.21,
0.11,-0.07,0.17,0.98,-0.25,-0.07,-0.16,
0.11,-0.07,0.17,0.98,-0.25,-0.07,-0.16,
0.11,-0.06,0.16,0.98,-0.25,-0.07,-0.16,
0.111,-0.06,0.16,0.98,-0.37,-0.17,-0.03,
0.114,-0.06,0.16,0.98,-0.37,-0.17,-0.03,
0.122,-0.06,0.16,0.97,-0.37,-0.17,-0.03,
0.123,-0.06,0.16,0.97,-0.40,-0.24,-0.04,
0.123,-0.06,0.15,0.98,-0.40,-0.24,-0.04,
0.123,-0.05,0.15,0.97,-0.40,-0.24,-0.04,
0.124,-0.05,0.15,0.97,-0.33,-0.32,-0.06,
0.124,-0.05,0.15,0.98,-0.33,-0.32,-0.06,
0.126,-0.04,0.15,0.98,-0.33,-0.32,-0.06,
0.126,-0.04,0.15,0.98,-0.31,-0.38,-0.05,
0.129,-0.04,0.16,0.98,-0.31,-0.38,-0.05,
0.131,-0.03,0.16,0.99,-0.31,-0.38,-0.05,
0.131,-0.03,0.16,0.99,-0.22,-0.40,-0.01,
0.14,0.01,0.17,0.98,-0.22,-0.40,-0.01,
0.14,0.03,0.18,0.96,-0.22,-0.40,-0.01,
0.141,0.03,0.18,0.96,-0.09,-0.33,0.02,
0.141,0.02,0.18,0.96,-0.09,-0.33,0.02,
0.141,0.01,0.18,0.96,-0.09,-0.33,0.02,
0.141,0.01,0.18,0.96,0.39,-0.20,-0.12,
0.144,0.00,0.18,0.96,0.39,-0.20,-0.12,
0.146,-0.00,0.18,0.94,0.39,-0.20,-0.12,
0.146,-0.00,0.18,0.94,0.35,-0.14,-0.19,
0.156,-0.01,0.19,0.95,0.35,-0.14,-0.19,
0.157,-0.02,0.19,0.95,0.35,-0.14,-0.19,
0.157,-0.02,0.19,0.95,0.23,-0.12,-0.29,
0.157,-0.02,0.19,0.95,0.23,-0.12,-0.29,
0.158,-0.03,0.19,0.95,0.23,-0.12,-0.29,
0.16,-0.03,0.19,0.95,0.10,-0.03,-0.28,
0.161,-0.03,0.19,0.95,0.10,-0.03,-0.28,
0.161,-0.03,0.19,0.95,0.10,-0.03,-0.28,
0.161,-0.03,0.19,0.95,0.00,-0.04,-0.27,
0.162,-0.03,0.19,0.95,0.00,-0.04,-0.27,
0.175,-0.02,0.19,0.95,0.00,-0.04,-0.27,
0.176,-0.02,0.19,0.95,-0.04,0.00,-0.28,
0.176,-0.02,0.19,0.95,-0.04,0.00,-0.28,
0.177,-0.02,0.18,0.96,-0.04,0.00,-0.28,
0.177,-0.02,0.18,0.96,-0.01,-0.05,-0.28,
0.177,-0.02,0.18,0.97,-0.01,-0.05,-0.28,
0.177,-0.02,0.18,0.96,-0.01,-0.05,-0.28,
0.178,-0.02,0.18,0.96,0.04,-0.06,-0.20,
0.178,-0.03,0.19,0.96,0.04,-0.06,-0.20,
0.179,-0.02,0.18,0.97,0.04,-0.06,-0.20,
0.18,-0.02,0.18,0.97,0.04,-0.06,-0.12,
0.188,-0.02,0.18,0.97,0.04,-0.06,-0.12,
0.188,-0.03,0.19,0.97,0.04,-0.06,-0.12,
0.189,-0.03,0.19,0.97,0.05,-0.06,-0.12,
0.189,-0.02,0.19,0.96,0.05,-0.06,-0.12,
0.19,-0.02,0.19,0.96,0.05,-0.06,-0.12,
0.19,-0.02,0.19,0.96,0.06,-0.04,-0.11,
0.192,-0.02,0.19,0.96,0.06,-0.04,-0.11,
0.194,-0.02,0.19,0.96,0.06,-0.04,-0.11,
0.194,-0.02,0.19,0.96,0.08,-0.01,-0.16,
0.197,-0.02,0.19,0.96,0.08,-0.01,-0.16,
0.207,-0.02,0.19,0.96,0.08,-0.01,-0.16,
0.207,-0.02,0.19,0.96,0.13,0.05,-0.17,
0.208,-0.01,0.19,0.95,0.13,0.05,-0.17,
0.208,-0.02,0.20,0.94,0.13,0.05,-0.17,
0.208,-0.02,0.20,0.94,0.10,0.04,-0.21,
0.208,-0.02,0.19,0.95,0.10,0.04,-0.21,
0.209,-0.02,0.19,0.95,0.10,0.04,-0.21,
0.21,-0.02,0.19,0.95,0.17,0.04,-0.32,
0.211,-0.03,0.19,0.94,0.17,0.04,-0.32,
0.222,-0.02,0.19,0.94,0.17,0.04,-0.32,
0.223,-0.02,0.19,0.94,0.12,0.04,-0.27,
0.223,-0.03,0.19,0.94,0.12,0.04,-0.27,
0.223,-0.02,0.19,0.94,0.12,0.04,-0.27,
0.223,-0.02,0.19,0.94,0.07,-0.02,-0.33,
0.224,-0.03,0.19,0.93,0.07,-0.02,-0.33,
0.224,-0.03,0.18,0.93,0.07,-0.02,-0.33,
0.225,-0.03,0.18,0.93,0.06,-0.01,-0.35,
0.227,-0.03,0.19,0.93,0.06,-0.01,-0.35,
0.229,-0.04,0.19,0.93,0.06,-0.01,-0.35,
0.23,-0.04,0.19,0.93,-0.01,-0.04,-0.45,
0.238,-0.04,0.18,0.92,-0.01,-0.04,-0.45,
0.238,-0.04,0.19,0.92,-0.01,-0.04,-0.45,
0.239,-0.04,0.19,0.92,-0.04,-0.02,-0.49,
0.239,-0.04,0.18,0.92,-0.04,-0.02,-0.49,
0.239,-0.04,0.19,0.91,-0.04,-0.02,-0.49,
0.24,-0.04,0.19,0.91,-0.06,-0.05,-0.55,
0.241,-0.03,0.19,0.91,-0.06,-0.05,-0.55,
0.244,-0.04,0.18,0.91,-0.06,-0.05,-0.55,
0.244,-0.04,0.18,0.91,-0.09,-0.06,-0.58,
0.247,-0.04,0.19,0.91,-0.09,-0.06,-0.58,
0.257,-0.03,0.19,0.91,-0.09,-0.06,-0.58,
0.258,-0.03,0.19,0.91,-0.04,-0.07,-0.65,
0.258,-0.03,0.19,0.91,-0.04,-0.07,-0.65,
0.259,-0.03,0.20,0.91,-0.04,-0.07,-0.65,
0.259,-0.03,0.20,0.91,-0.02,-0.06,-0.63,
0.26,-0.02,0.20,0.91,-0.02,-0.06,-0.63,
0.261,-0.01,0.20,0.92,-0.02,-0.06,-0.63,
0.261,-0.01,0.20,0.92,0.03,0.03,-0.62,
0.262,-0.01,0.20,0.92,0.03,0.03,-0.62,
0.28,-0.01,0.21,0.92,0.03,0.03,-0.62,
0.281,-0.01,0.21,0.92,0.14,0.04,-0.57,
0.282,-0.00,0.21,0.93,0.14,0.04,-0.57,
0.282,-0.00,0.20,0.93,0.14,0.04,-0.57,
0.282,-0.00,0.20,0.93,0.20,0.09,-0.52,
0.283,-0.00,0.20,0.93,0.20,0.09,-0.52,
0.283,0.00,0.20,0.93,0.20,0.09,-0.52,
0.283,0.00,0.20,0.93,0.26,0.09,-0.42,
0.284,0.01,0.20,0.93,0.26,0.09,-0.42,
0.284,0.01,0.19,0.93,0.26,0.09,-0.42,
0.284,0.01,0.19,0.93,0.28,0.03,-0.42,
0.285,0.01,0.18,0.93,0.28,0.03,-0.42,
0.285,0.01,0.18,0.93,0.28,0.03,-0.42,
0.285,0.01,0.18,0.93,0.33,-0.04,-0.38,
0.286,0.01,0.18,0.93,0.33,-0.04,-0.38,
0.288,-0.00,0.18,0.93,0.33,-0.04,-0.38,
0.289,-0.00,0.18,0.93,0.31,-0.15,-0.40,
0.291,-0.00,0.18,0.92,0.31,-0.15,-0.40,
0.293,-0.00,0.18,0.92,0.31,-0.15,-0.40,
0.294,-0.00,0.18,0.92,0.28,-0.16,-0.39,
0.296,-0.01,0.18,0.92,0.28,-0.16,-0.39,
0.3,-0.01,0.18,0.92,0.28,-0.16,-0.39,
0.3,-0.01,0.18,0.92,0.23,-0.21,-0.48,
0.302,-0.02,0.18,0.92,0.23,-0.21,-0.48,
0.303,-0.02,0.18,0.92,0.23,-0.21,-0.48,
0.304,-0.02,0.18,0.92,0.12,-0.22,-0.46,
0.306,-0.03,0.19,0.92,0.12,-0.22,-0.46,
0.309,-0.02,0.18,0.92,0.12,-0.22,-0.46,
0.309,-0.02,0.18,0.92,0.06,-0.19,-0.45,
0.31,-0.03,0.18,0.91,0.06,-0.19,-0.45,
0.313,-0.03,0.18,0.92,0.06,-0.19,-0.45,
0.314,-0.03,0.18,0.92,0.01,-0.19,-0.49,
0.316,-0.02,0.18,0.92,0.01,-0.19,-0.49,
0.318,-0.02,0.18,0.91,0.01,-0.19,-0.49,
0.319,-0.02,0.18,0.91,-0.00,-0.18,-0.51,
0.322,-0.02,0.18,0.91,-0.00,-0.18,-0.51,
0.324,-0.02,0.18,0.91,-0.00,-0.18,-0.51,
0.324,-0.02,0.18,0.91,0.04,-0.18,-0.51,
0.326,-0.01,0.18,0.91,0.04,-0.18,-0.51,
0.329,-0.01,0.18,0.91,0.04,-0.18,-0.51,
0.329,-0.01,0.18,0.91,0.08,-0.18,-0.55,
0.331,-0.01,0.18,0.91,0.08,-0.18,-0.55,
0.334,-0.01,0.18,0.91,0.08,-0.18,-0.55,
0.334,-0.01,0.18,0.91,0.14,-0.19,-0.55,
0.336,-0.01,0.18,0.91,0.14,-0.19,-0.55,
0.339,-0.01,0.19,0.91,0.14,-0.19,-0.55,
0.339,-0.01,0.19,0.91,0.17,-0.18,-0.54,
0.341,-0.01,0.19,0.91,0.17,-0.18,-0.54,
0.343,-0.01,0.19,0.92,0.17,-0.18,-0.54,
0.344,-0.01,0.19,0.92,0.16,-0.18,-0.51,
0.346,-0.01,0.19,0.92,0.16,-0.18,-0.51,
0.349,-0.01,0.19,0.92,0.16,-0.18,-0.51,
0.349,-0.01,0.19,0.92,0.18,-0.10,-0.48,
0.351,-0.01,0.19,0.92,0.18,-0.10,-0.48,
0.353,-0.01,0.19,0.92,0.18,-0.10,-0.48,
0.353,-0.01,0.19,0.92,0.16,-0.08,-0.44,
0.356,-0.01,0.19,0.92,0.16,-0.08,-0.44,
0.359,-0.00,0.19,0.92,0.16,-0.08,-0.44,
0.359,-0.00,0.19,0.92,0.16,-0.07,-0.42,
0.361,-0.00,0.19,0.92,0.16,-0.07,-0.42,
0.364,0.00,0.20,0.91,0.16,-0.07,-0.42,
0.364,0.00,0.20,0.91,0.18,-0.08,-0.43,
0.365,0.00,0.19,0.92,0.18,-0.08,-0.43,
0.371,0.01,0.20,0.92,0.18,-0.08,-0.43,
0.372,0.01,0.20,0.92,0.23,-0.07,-0.45,
0.372,0.01,0.20,0.92,0.23,-0.07,-0.45,
0.373,0.01,0.20,0.93,0.23,-0.07,-0.45,
0.374,0.01,0.20,0.93,0.27,-0.06,-0.40,
0.375,0.02,0.20,0.93,0.27,-0.06,-0.40,
0.378,0.02,0.19,0.93,0.27,-0.06,-0.40,
0.379,0.02,0.19,0.93,0.34,-0.05,-0.35,
0.381,0.03,0.19,0.93,0.34,-0.05,-0.35,
0.383,0.02,0.19,0.93,0.34,-0.05,-0.35,
0.384,0.02,0.19,0.93,0.39,-0.07,-0.35,
0.386,0.02,0.20,0.93,0.39,-0.07,-0.35,
0.388,0.02,0.19,0.93,0.39,-0.07,-0.35,
0.388,0.02,0.19,0.93,0.45,-0.07,-0.32,
0.391,0.02,0.19,0.93,0.45,-0.07,-0.32,
0.394,0.02,0.20,0.93,0.45,-0.07,-0.32,
0.394,0.02,0.20,0.93,0.42,-0.06,-0.28,
0.396,0.02,0.19,0.93,0.42,-0.06,-0.28,
0.398,0.02,0.19,0.93,0.42,-0.06,-0.28,
0.399,0.02,0.19,0.93,0.39,-0.06,-0.28,
0.401,0.02,0.19,0.93,0.39,-0.06,-0.28,
0.403,0.02,0.19,0.93,0.39,-0.06,-0.28,
0.404,0.02,0.19,0.93,0.40,-0.10,-0.32,
0.405,0.03,0.19,0.93,0.40,-0.10,-0.32,
0.408,0.03,0.18,0.93,0.40,-0.10,-0.32,
0.408,0.03,0.18,0.93,0.41,-0.09,-0.31,
0.411,0.03,0.18,0.93,0.41,-0.09,-0.31,
0.414,0.04,0.18,0.93,0.41,-0.09,-0.31,
0.414,0.04,0.18,0.93,0.45,-0.16,-0.31,
0.416,0.04,0.17,0.93,0.45,-0.16,-0.31,
0.419,0.05,0.17,0.92,0.45,-0.16,-0.31,
0.42,0.05,0.17,0.92,0.52,-0.21,-0.26,
0.421,0.04,0.17,0.93,0.52,-0.21,-0.26,
0.423,0.04,0.17,0.93,0.52,-0.21,-0.26,
0.423,0.04,0.17,0.93,0.61,-0.30,-0.32,
0.426,0.03,0.17,0.93,0.61,-0.30,-0.32,
0.429,0.03,0.17,0.92,0.61,-0.30,-0.32,
0.429,0.03,0.17,0.92,0.58,-0.29,-0.28,
0.431,0.02,0.17,0.93,0.58,-0.29,-0.28,
0.434,0.01,0.17,0.93,0.58,-0.29,-0.28,
0.434,0.01,0.17,0.93,0.47,-0.30,-0.32,
0.435,0.00,0.17,0.93,0.47,-0.30,-0.32,
0.438,-0.01,0.17,0.93,0.47,-0.30,-0.32,
0.438,-0.01,0.17,0.93,0.33,-0.28,-0.31,
0.44,-0.01,0.18,0.92,0.33,-0.28,-0.31,
0.443,-0.03,0.18,0.93,0.33,-0.28,-0.31,
0.443,-0.03,0.18,0.93,0.19,-0.29,-0.31,
0.446,-0.03,0.17,0.92,0.19,-0.29,-0.31,
0.448,-0.04,0.18,0.92,0.19,-0.29,-0.31,
0.449,-0.04,0.18,0.92,0.02,-0.24,-0.31,
0.452,-0.05,0.18,0.92,0.02,-0.24,-0.31,
0.452,-0.06,0.18,0.92,0.02,-0.24,-0.31,
0.453,-0.06,0.18,0.92,-0.13,-0.27,-0.38,
0.455,-0.06,0.18,0.91,-0.13,-0.27,-0.38,
0.458,-0.06,0.18,0.92,-0.13,-0.27,-0.38,
0.458,-0.06,0.18,0.92,-0.28,-0.26,-0.36,
0.46,-0.06,0.18,0.91,-0.28,-0.26,-0.36,
0.463,-0.06,0.18,0.90,-0.28,-0.26,-0.36,
0.463,-0.06,0.18,0.90,-0.31,-0.21,-0.40,
0.465,-0.06,0.19,0.90,-0.31,-0.21,-0.40,
0.472,-0.06,0.19,0.90,-0.36,-0.20,-0.48,
0.473,-0.06,0.19,0.90,-0.36,-0.20,-0.48,
0.473,-0.06,0.18,0.90,-0.36,-0.20,-0.48,
0.474,-0.05,0.18,0.89,-0.36,-0.20,-0.48,
0.474,-0.05,0.18,0.89,-0.34,-0.17,-0.56,
0.475,-0.05,0.19,0.89,-0.34,-0.17,-0.56,
0.477,-0.04,0.18,0.88,-0.34,-0.17,-0.56,
0.477,-0.04,0.18,0.88,-0.25,-0.21,-0.60,
0.479,-0.03,0.19,0.88,-0.25,-0.21,-0.60,
0.484,-0.03,0.19,0.87,-0.25,-0.21,-0.60,
0.484,-0.03,0.19,0.87,-0.17,-0.21,-0.68,
0.485,-0.01,0.20,0.87,-0.17,-0.21,-0.68,
0.487,-0.00,0.20,0.87,-0.17,-0.21,-0.68,
0.488,-0.00,0.20,0.87,-0.01,-0.18,-0.72,
0.489,0.00,0.20,0.86,-0.01,-0.18,-0.72,
0.492,0.01,0.20,0.87,-0.01,-0.18,-0.72,
0.492,0.01,0.20,0.87,0.18,-0.09,-0.79,
0.495,0.01,0.20,0.87,0.18,-0.09,-0.79,
0.497,0.03,0.21,0.86,0.18,-0.09,-0.79,
0.498,0.03,0.21,0.86,0.31,-0.10,-0.82,
0.5,0.03,0.21,0.87,0.31,-0.10,-0.82,
0.501,0.04,0.21,0.87,0.31,-0.10,-0.82,
0.502,0.04,0.21,0.87,0.44,-0.07,-0.80,
0.504,0.05,0.21,0.87,0.44,-0.07,-0.80,
0.506,0.06,0.22,0.87,0.44,-0.07,-0.80,
0.507,0.06,0.22,0.87,0.60,-0.06,-0.80,
0.509,0.07,0.22,0.87,0.60,-0.06,-0.80,
0.512,0.07,0.22,0.87,0.71,0.00,-0.73,
0.512,0.07,0.22,0.88,0.71,0.00,-0.73,
0.513,0.08,0.23,0.88,0.71,0.00,-0.73,
0.517,0.08,0.23,0.88,0.71,0.00,-0.73,
0.517,0.08,0.23,0.88,0.83,0.04,-0.70,
0.521,0.08,0.23,0.88,0.83,0.04,-0.70,
0.521,0.08,0.24,0.88,0.83,0.04,-0.70,
0.522,0.08,0.24,0.88,0.90,0.13,-0.65,
0.524,0.08,0.24,0.88,0.90,0.13,-0.65,
0.526,0.08,0.24,0.87,0.90,0.13,-0.65,
0.527,0.08,0.24,0.87,0.92,0.15,-0.65,
0.529,0.08,0.24,0.87,0.92,0.15,-0.65,
0.531,0.07,0.24,0.87,0.92,0.15,-0.65,
0.532,0.07,0.24,0.87,0.92,0.15,-0.66,
0.535,0.07,0.24,0.87,0.92,0.15,-0.66,
0.536,0.06,0.24,0.86,0.92,0.15,-0.66,
0.537,0.06,0.24,0.86,0.85,0.19,-0.71,
0.538,0.06,0.24,0.87,0.85,0.19,-0.71,
0.541,0.06,0.24,0.87,0.85,0.19,-0.71,
0.542,0.06,0.24,0.87,0.74,0.16,-0.74,
0.543,0.05,0.24,0.87,0.74,0.16,-0.74,
0.546,0.05,0.24,0.87,0.65,0.12,-0.68,
0.547,0.05,0.23,0.87,0.65,0.12,-0.68,
0.55,0.04,0.23,0.87,0.65,0.12,-0.68,
0.551,0.04,0.23,0.87,0.56,0.09,-0.72,
0.552,0.04,0.22,0.87,0.56,0.09,-0.72,
0.554,0.03,0.22,0.87,0.56,0.09,-0.72,
0.557,0.03,0.21,0.87,0.56,0.09,-0.72,
0.557,0.03,0.21,0.87,0.47,-0.02,-0.68,
0.559,0.03,0.21,0.86,0.47,-0.02,-0.68,
0.561,0.02,0.21,0.87,0.47,-0.02,-0.68,
0.561,0.02,0.21,0.87,0.36,-0.11,-0.66,
0.563,0.02,0.20,0.87,0.36,-0.11,-0.66,
0.572,0.02,0.21,0.86,0.36,-0.11,-0.66,
0.572,0.02,0.21,0.86,0.29,-0.18,-0.72,
0.573,0.02,0.21,0.86,0.29,-0.18,-0.72,
0.573,0.03,0.21,0.86,0.29,-0.18,-0.72,
0.573,0.03,0.21,0.86,0.28,-0.19,-0.73,
0.573,0.03,0.21,0.86,0.28,-0.19,-0.73,
0.576,0.03,0.22,0.86,0.28,-0.19,-0.73,
0.576,0.03,0.22,0.86,0.31,-0.15,-0.75,
0.578,0.03,0.22,0.85,0.31,-0.15,-0.75,
0.58,0.03,0.23,0.86,0.31,-0.15,-0.75,
0.581,0.03,0.23,0.86,0.36,-0.10,-0.76,
0.584,0.03,0.23,0.86,0.36,-0.10,-0.76,
0.585,0.03,0.23,0.86,0.36,-0.10,-0.76,
0.586,0.03,0.23,0.86,0.40,-0.02,-0.78,
0.588,0.03,0.24,0.86,0.40,-0.02,-0.78,
0.59,0.02,0.24,0.86,0.40,-0.02,-0.78,
0.591,0.02,0.24,0.86,0.35,0.03,-0.77,
0.593,0.01,0.24,0.86,0.35,0.03,-0.77,
0.595,0.01,0.24,0.87,0.35,0.03,-0.77,
0.596,0.01,0.24,0.87,0.29,0.13,-0.75,
0.598,0.00,0.25,0.88,0.29,0.13,-0.75,
0.6,-0.01,0.26,0.88,0.29,0.13,-0.75,
0.601,-0.01,0.26,0.88,0.17,0.20,-0.65,
0.605,-0.01,0.26,0.89,0.17,0.20,-0.65,
0.606,-0.02,0.27,0.89,0.17,0.20,-0.65,
0.606,-0.02,0.27,0.89,0.06,0.34,-0.55,
0.608,-0.02,0.27,0.90,0.06,0.34,-0.55,
0.61,-0.02,0.26,0.90,0.06,0.34,-0.55,
0.61,-0.02,0.26,0.90,-0.07,0.43,-0.44,
0.612,-0.03,0.27,0.90,-0.07,0.43,-0.44,
0.615,-0.02,0.26,0.91,-0.07,0.43,-0.44,
0.615,-0.02,0.26,0.91,-0.14,0.46,-0.37,
0.617,-0.02,0.26,0.91,-0.14,0.46,-0.37,
0.62,-0.03,0.26,0.92,-0.14,0.46,-0.37,
0.62,-0.03,0.26,0.92,-0.18,0.44,-0.29,
0.622,-0.02,0.25,0.92,-0.18,0.44,-0.29,
0.625,-0.02,0.25,0.93,-0.18,0.44,-0.29,
0.626,-0.02,0.25,0.93,-0.19,0.42,-0.16,
0.627,-0.02,0.25,0.93,-0.19,0.42,-0.16,
0.63,-0.02,0.24,0.93,-0.19,0.42,-0.16,
0.63,-0.02,0.24,0.93,-0.13,0.35,-0.09,
0.632,-0.01,0.23,0.94,-0.13,0.35,-0.09,
0.635,-0.01,0.23,0.94,-0.14,0.25,-0.05,
0.635,-0.00,0.23,0.93,-0.14,0.25,-0.05,
0.637,-0.00,0.23,0.94,-0.14,0.25,-0.05,
0.64,0.00,0.22,0.93,-0.14,0.25,-0.05,
0.64,0.00,0.22,0.93,-0.07,0.17,-0.02,
0.642,0.00,0.22,0.93,-0.07,0.17,-0.02,
0.645,-0.00,0.21,0.93,-0.07,0.17,-0.02,
0.645,-0.00,0.21,0.93,-0.03,0.13,0.00,
0.647,0.00,0.21,0.94,-0.03,0.13,0.00,
0.656,0.00,0.21,0.94,-0.03,0.13,0.00,
0.661,0.00,0.21,0.94,-0.03,0.02,-0.02,
0.661,0.01,0.20,0.94,-0.03,0.02,-0.02,
0.662,0.01,0.19,0.95,-0.03,0.02,-0.02,
0.662,0.01,0.19,0.95,-0.01,-0.03,-0.00,
0.663,0.01,0.19,0.95,-0.01,-0.03,-0.00,
0.663,0.02,0.18,0.95,-0.01,-0.03,-0.00,
0.663,0.02,0.18,0.95,0.03,-0.11,0.08,
0.664,0.03,0.18,0.95,0.03,-0.11,0.08,
0.665,0.03,0.17,0.95,0.03,-0.11,0.08,
0.665,0.03,0.17,0.95,0.05,-0.22,0.11,
0.672,0.03,0.17,0.95,0.05,-0.22,0.11,
0.672,0.03,0.16,0.95,0.05,-0.22,0.11,
0.673,0.03,0.16,0.95,0.15,-0.31,0.13,
0.673,0.03,0.16,0.95,0.15,-0.31,0.13,
0.675,0.03,0.15,0.95,0.15,-0.31,0.13,
0.675,0.03,0.15,0.95,0.15,-0.39,0.08,
0.678,0.02,0.14,0.95,0.15,-0.39,0.08,
0.68,0.02,0.14,0.95,0.14,-0.43,0.10,
0.681,0.03,0.15,0.94,0.14,-0.43,0.10,
0.683,0.02,0.14,0.95,0.14,-0.43,0.10,
0.687,0.02,0.13,0.95,0.14,-0.43,0.10,
0.688,0.02,0.13,0.95,0.10,-0.54,0.07,
0.689,0.02,0.13,0.95,0.10,-0.54,0.07,
0.69,0.01,0.13,0.95,0.10,-0.54,0.07,
0.691,0.01,0.13,0.95,0.04,-0.59,0.11,
0.692,0.01,0.13,0.96,0.04,-0.59,0.11,
0.695,0.00,0.13,0.96,0.04,-0.59,0.11,
0.695,0.00,0.13,0.96,-0.01,-0.62,0.10,
0.698,-0.00,0.14,0.98,-0.01,-0.62,0.10,
0.702,-0.01,0.15,0.98,-0.01,-0.62,0.10,
0.702,-0.01,0.15,0.98,-0.12,-0.58,0.21,
0.702,-0.01,0.16,1.00,-0.12,-0.58,0.21,
0.705,-0.01,0.16,1.00,-0.23,-0.45,0.37,
0.706,-0.01,0.16,1.01,-0.23,-0.45,0.37,
0.708,-0.02,0.17,1.01,-0.23,-0.45,0.37,
0.71,-0.02,0.17,1.03,-0.23,-0.45,0.37,
0.71,-0.02,0.17,1.03,-0.31,-0.29,0.58,
0.713,-0.01,0.18,1.04,-0.31,-0.29,0.58,
0.715,-0.01,0.19,1.05,-0.31,-0.29,0.58,
0.715,-0.01,0.19,1.05,-0.38,-0.16,0.78,
0.717,-0.01,0.18,1.06,-0.38,-0.16,0.78,
0.72,-0.00,0.18,1.06,-0.38,-0.16,0.78,
0.72,-0.00,0.18,1.06,-0.35,-0.01,1.00,
0.722,0.00,0.18,1.07,-0.35,-0.01,1.00,
0.725,0.01,0.18,1.07,-0.35,-0.01,1.00,
0.725,0.01,0.18,1.07,-0.32,0.01,1.13,
0.728,0.02,0.18,1.07,-0.32,0.01,1.13,
0.73,0.02,0.18,1.07,-0.16,0.04,1.22,
0.73,0.02,0.18,1.08,-0.16,0.04,1.22,
0.732,0.03,0.18,1.08,-0.16,0.04,1.22,
0.736,0.03,0.18,1.08,-0.16,0.04,1.22,
0.736,0.03,0.18,1.08,-0.06,0.01,1.26,
0.737,0.03,0.19,1.07,-0.06,0.01,1.26,
0.74,0.03,0.19,1.07,-0.06,0.01,1.26,
0.741,0.03,0.19,1.07,0.04,0.02,1.27,
0.743,0.03,0.19,1.07,0.04,0.02,1.27,
0.745,0.03,0.20,1.07,0.04,0.02,1.27,
0.745,0.03,0.20,1.07,0.03,0.11,1.17,
0.748,0.03,0.21,1.07,0.03,0.11,1.17,
0.75,0.03,0.21,1.07,0.03,0.11,1.17,
0.75,0.03,0.21,1.07,0.04,0.21,1.14,
0.753,0.03,0.21,1.06,0.04,0.21,1.14,
0.755,0.03,0.23,1.06,0.04,0.21,1.14,
0.755,0.03,0.23,1.06,0.04,0.36,1.13,
0.757,0.02,0.22,1.06,0.04,0.36,1.13,
0.76,0.03,0.22,1.05,0.04,0.36,1.13,
0.761,0.03,0.22,1.05,0.02,0.44,1.07,
0.762,0.02,0.22,1.05,0.02,0.44,1.07,
0.765,0.02,0.22,1.05,0.02,0.44,1.07,
0.765,0.02,0.22,1.05,-0.03,0.48,1.02,
0.767,0.02,0.22,1.04,-0.03,0.48,1.02,
0.778,0.02,0.21,1.03,-0.03,0.48,1.02,
0.779,0.02,0.21,1.03,-0.07,0.46,0.91,
0.779,0.02,0.21,1.02,-0.07,0.46,0.91,
0.779,0.02,0.20,1.02,-0.07,0.46,0.91,
0.779,0.02,0.20,1.02,-0.05,0.40,0.74,
0.779,0.03,0.20,1.01,-0.05,0.40,0.74,
0.78,0.03,0.20,1.01,-0.09,0.29,0.60,
0.78,0.03,0.19,1.00,-0.09,0.29,0.60,
0.781,0.03,0.19,1.01,-0.09,0.29,0.60,
0.786,0.04,0.18,0.99,-0.09,0.29,0.60,
0.787,0.04,0.18,0.99,-0.03,0.24,0.48,
0.787,0.04,0.18,0.98,-0.03,0.24,0.48,
0.789,0.04,0.18,0.98,-0.03,0.24,0.48,
0.789,0.04,0.18,0.98,0.02,0.12,0.39,
0.791,0.05,0.18,0.98,0.02,0.12,0.39,
0.795,0.05,0.18,0.97,0.02,0.12,0.39,
0.795,0.05,0.18,0.97,0.10,0.08,0.22,
0.797,0.05,0.18,0.96,0.10,0.08,0.22,
0.798,0.06,0.18,0.96,0.10,0.08,0.22,
0.799,0.06,0.18,0.96,0.17,0.07,0.15,
0.802,0.06,0.18,0.95,0.17,0.07,0.15,
0.803,0.08,0.18,0.95,0.17,0.07,0.15,
0.805,0.08,0.18,0.95,0.24,0.04,0.02,
0.806,0.08,0.18,0.95,0.24,0.04,0.02,
0.809,0.09,0.17,0.94,0.24,0.04,0.02,
0.809,0.09,0.17,0.94,0.37,0.06,-0.09,
0.811,0.09,0.18,0.93,0.37,0.06,-0.09,
0.813,0.10,0.17,0.93,0.37,0.06,-0.09,
0.813,0.10,0.17,0.93,0.50,0.03,-0.12,
0.817,0.10,0.17,0.92,0.50,0.03,-0.12,
0.82,0.10,0.16,0.92,0.50,0.03,-0.12,
0.82,0.10,0.16,0.92,0.62,0.02,-0.26,
0.821,0.10,0.16,0.92,0.62,0.02,-0.26,
0.823,0.10,0.16,0.91,0.62,0.02,-0.26,
0.824,0.10,0.16,0.91,0.64,-0.03,-0.36,
0.825,0.09,0.16,0.89,0.64,-0.03,-0.36,
0.828,0.09,0.15,0.89,0.64,-0.03,-0.36,
0.828,0.09,0.15,0.89,0.63,-0.07,-0.45,
0.83,0.08,0.15,0.88,0.63,-0.07,-0.45,
0.833,0.08,0.15,0.88,0.63,-0.07,-0.45,
0.834,0.08,0.15,0.88,0.53,-0.14,-0.64,
0.836,0.07,0.15,0.88,0.53,-0.14,-0.64,
0.838,0.06,0.15,0.88,0.53,-0.14,-0.64,
0.838,0.06,0.15,0.88,0.44,-0.19,-0.75,
0.841,0.06,0.15,0.87,0.44,-0.19,-0.75,
0.843,0.05,0.15,0.87,0.44,-0.19,-0.75,
0.843,0.05,0.15,0.87,0.28,-0.19,-0.78,
0.845,0.04,0.14,0.87,0.28,-0.19,-0.78,
0.848,0.04,0.14,0.87,0.28,-0.19,-0.78,
0.848,0.04,0.14,0.87,0.15,-0.19,-0.87,
0.852,0.03,0.13,0.87,0.15,-0.19,-0.87,
0.854,0.02,0.13,0.88,0.15,-0.19,-0.87,
0.854,0.02,0.13,0.88,0.00,-0.23,-0.85,
0.855,0.02,0.13,0.89,0.00,-0.23,-0.85,
0.858,0.01,0.12,0.90,0.00,-0.23,-0.85,
0.859,0.01,0.12,0.90,-0.11,-0.29,-0.79,
0.861,0.01,0.12,0.92,-0.11,-0.29,-0.79,
0.863,0.01,0.12,0.92,-0.11,-0.29,-0.79,
0.863,0.01,0.12,0.92,-0.23,-0.35,-0.58,
0.865,0.01,0.11,0.93,-0.23,-0.35,-0.58,
0.879,0.01,0.11,0.94,-0.23,-0.35,-0.58,
0.879,0.01,0.11,0.94,-0.25,-0.39,-0.34,
0.88,0.01,0.10,0.95,-0.25,-0.39,-0.34,
0.881,0.01,0.10,0.95,-0.25,-0.39,-0.34,
0.881,0.01,0.10,0.95,-0.27,-0.43,-0.18,
0.881,0.01,0.09,0.97,-0.27,-0.43,-0.18,
0.882,0.01,0.09,0.98,-0.27,-0.43,-0.18,
0.883,0.01,0.09,0.98,-0.26,-0.50,-0.03,
0.883,0.02,0.09,0.98,-0.26,-0.50,-0.03,
0.884,0.03,0.09,0.99,-0.26,-0.50,-0.03,
0.884,0.03,0.09,0.99,-0.27,-0.54,0.16,
0.894,0.03,0.08,0.99,-0.27,-0.54,0.16,
0.895,0.04,0.08,0.99,-0.27,-0.54,0.16,
0.895,0.04,0.08,0.99,-0.14,-0.54,0.28,
0.895,0.04,0.08,1.00,-0.14,-0.54,0.28,
0.896,0.05,0.08,0.99,-0.14,-0.54,0.28,
0.896,0.05,0.08,0.99,-0.05,-0.55,0.35,
0.896,0.06,0.08,1.00,-0.05,-0.55,0.35,
0.897,0.07,0.09,0.99,-0.05,-0.55,0.35,
0.898,0.07,0.09,0.99,0.03,-0.54,0.36,
0.9,0.08,0.08,0.99,0.03,-0.54,0.36,
0.902,0.08,0.08,0.99,0.03,-0.54,0.36,
0.903,0.08,0.08,0.99,0.19,-0.50,0.36,
0.905,0.10,0.09,0.99,0.19,-0.50,0.36,
0.907,0.10,0.09,0.99,0.33,-0.47,0.34,
0.908,0.10,0.09,0.99,0.33,-0.47,0.34,
0.91,0.11,0.09,0.99,0.33,-0.47,0.34,
0.912,0.11,0.09,0.98,0.33,-0.47,0.34,
0.912,0.11,0.09,0.98,0.51,-0.37,0.31,
0.914,0.12,0.10,0.98,0.51,-0.37,0.31,
0.917,0.11,0.11,0.98,0.51,-0.37,0.31,
0.917,0.11,0.11,0.98,0.62,-0.34,0.25,
0.92,0.11,0.10,0.98,0.62,-0.34,0.25,
0.922,0.12,0.11,0.97,0.62,-0.34,0.25,
0.923,0.12,0.11,0.97,0.63,-0.20,0.20,
0.924,0.12,0.11,0.97,0.63,-0.20,0.20,
0.927,0.12,0.11,0.97,0.63,-0.20,0.20,
0.928,0.12,0.11,0.97,0.61,-0.18,0.15,
0.93,0.11,0.11,0.96,0.61,-0.18,0.15,
0.932,0.11,0.10,0.96,0.61,-0.18,0.15,
0.933,0.11,0.10,0.96,0.61,-0.12,0.12,
0.935,0.10,0.11,0.96,0.61,-0.12,0.12,
0.937,0.10,0.10,0.96,0.61,-0.12,0.12,
0.937,0.10,0.10,0.96,0.50,-0.13,-0.00,
0.94,0.10,0.11,0.96,0.50,-0.13,-0.00,
0.942,0.09,0.11,0.96,0.50,-0.13,-0.00,
0.943,0.09,0.11,0.96,0.44,-0.14,-0.03,
0.944,0.08,0.11,0.96,0.44,-0.14,-0.03,
0.949,0.08,0.10,0.97,0.44,-0.14,-0.03,
0.949,0.08,0.10,0.97,0.31,-0.09,0.02,
0.949,0.07,0.10,0.97,0.31,-0.09,0.02,
0.953,0.06,0.10,0.97,0.31,-0.09,0.02,
0.953,0.06,0.10,0.97,0.16,-0.10,0.05,
0.954,0.06,0.10,0.98,0.16,-0.10,0.05,
0.957,0.06,0.10,0.98,0.02,-0.12,0.10,
0.957,0.06,0.10,0.98,0.02,-0.12,0.10,
0.959,0.06,0.09,0.99,0.02,-0.12,0.10,
0.962,0.05,0.08,1.00,0.02,-0.12,0.10,
0.962,0.05,0.08,1.00,-0.08,-0.11,0.19,
0.964,0.05,0.08,1.01,-0.08,-0.11,0.19,
0.967,0.05,0.07,1.02,-0.08,-0.11,0.19,
0.967,0.05,0.07,1.02,-0.12,-0.19,0.35,
0.979,0.06,0.07,1.03,-0.12,-0.19,0.35,
0.98,0.06,0.06,1.04,-0.12,-0.19,0.35,
0.98,0.06,0.06,1.04,-0.17,-0.27,0.52,
0.981,0.06,0.05,1.05,-0.17,-0.27,0.52,
0.981,0.06,0.05,1.06,-0.17,-0.27,0.52,
0.982,0.06,0.05,1.06,-0.14,-0.35,0.72,
0.983,0.06,0.05,1.06,-0.14,-0.35,0.72,
0.988,0.06,0.05,1.06,-0.14,-0.47,0.87,
0.989,0.06,0.04,1.07,-0.14,-0.47,0.87,
0.989,0.07,0.04,1.07,-0.14,-0.47,0.87,
0.989,0.08,0.04,1.08,-0.14,-0.47,0.87,
0.99,0.08,0.04,1.08,-0.13,-0.49,0.98,
0.99,0.08,0.04,1.08,-0.13,-0.49,0.98,
0.997,0.08,0.04,1.08,-0.13,-0.49,0.98,
0.998,0.08,0.04,1.08,-0.05,-0.51,1.09,
0.998,0.08,0.05,1.09,-0.05,-0.51,1.09,
0.998,0.08,0.05,1.09,-0.05,-0.51,1.09,
0.999,0.08,0.05,1.09,-0.02,-0.45,1.14,
0.999,0.09,0.06,1.09,-0.02,-0.45,1.14,
1.002,0.09,0.06,1.09,-0.02,-0.45,1.14,
1.002,0.09,0.06,1.09,0.00,-0.36,1.20,
1.006,0.10,0.06,1.10,0.00,-0.36,1.20,
1.006,0.10,0.06,1.10,0.04,-0.24,1.24,
1.006,0.10,0.07,1.11,0.04,-0.24,1.24,
1.009,0.10,0.07,1.11,0.04,-0.24,1.24,
1.012,0.10,0.07,1.10,0.04,-0.24,1.24,
1.012,0.10,0.07,1.10,0.13,-0.15,1.35,
1.014,0.10,0.07,1.10,0.13,-0.15,1.35,
1.017,0.10,0.07,1.10,0.13,-0.15,1.35,
1.017,0.10,0.07,1.10,0.14,-0.10,1.38,
1.021,0.10,0.06,1.09,0.14,-0.10,1.38,
1.022,0.10,0.06,1.09,0.12,-0.08,1.35,
1.022,0.10,0.07,1.09,0.12,-0.08,1.35,
1.023,0.09,0.07,1.09,0.12,-0.08,1.35,
1.026,0.10,0.06,1.08,0.12,-0.08,1.35,
1.027,0.10,0.06,1.08,0.08,-0.07,1.22,
1.029,0.10,0.06,1.08,0.08,-0.07,1.22,
1.031,0.10,0.06,1.08,0.06,-0.08,1.16,
1.031,0.09,0.06,1.07,0.06,-0.08,1.16,
1.033,0.08,0.06,1.06,0.06,-0.08,1.16,
1.037,0.08,0.06,1.05,0.06,-0.08,1.16,
1.038,0.08,0.06,1.05,0.04,-0.08,1.03,
1.038,0.08,0.06,1.05,0.04,-0.08,1.03,
1.041,0.07,0.05,1.04,0.04,-0.08,1.03,
1.041,0.07,0.05,1.04,-0.07,-0.10,0.88,
1.044,0.06,0.05,1.04,-0.07,-0.10,0.88,
1.046,0.05,0.05,1.04,-0.07,-0.10,0.88,
1.046,0.05,0.05,1.04,-0.13,-0.11,0.74,
1.049,0.04,0.05,1.03,-0.13,-0.11,0.74,
1.051,0.04,0.05,1.02,-0.13,-0.11,0.74,
1.052,0.04,0.05,1.02,-0.34,-0.12,0.66,
1.053,0.03,0.05,1.03,-0.34,-0.12,0.66,
1.056,0.03,0.05,1.03,-0.47,-0.10,0.58,
1.056,0.02,0.05,1.03,-0.47,-0.10,0.58,
1.059,0.02,0.05,1.03,-0.47,-0.10,0.58,
1.062,0.01,0.05,1.03,-0.47,-0.10,0.58,
1.062,0.01,0.05,1.03,-0.60,-0.11,0.58,
1.064,0.01,0.05,1.04,-0.60,-0.11,0.58,
1.066,0.01,0.05,1.04,-0.60,-0.11,0.58,
1.067,0.01,0.05,1.04,-0.72,-0.10,0.60,
1.069,0.01,0.05,1.04,-0.72,-0.10,0.60,
1.074,0.01,0.05,1.05,-0.72,-0.10,0.60,
1.075,0.01,0.05,1.05,-0.79,-0.07,0.65,
1.075,0.02,0.06,1.04,-0.79,-0.07,0.65,
1.076,0.03,0.06,1.04,-0.79,-0.07,0.65,
1.077,0.03,0.06,1.04,-0.76,-0.01,0.71,
1.078,0.04,0.06,1.04,-0.76,-0.01,0.71,
1.082,0.04,0.06,1.04,-0.65,0.06,0.69,
1.082,0.05,0.06,1.04,-0.65,0.06,0.69,
1.083,0.06,0.07,1.05,-0.65,0.06,0.69,
1.086,0.07,0.07,1.05,-0.65,0.06,0.69,
1.086,0.07,0.07,1.05,-0.45,0.11,0.72,
1.089,0.09,0.07,1.06,-0.45,0.11,0.72,
1.091,0.10,0.07,1.06,-0.45,0.11,0.72,
1.091,0.10,0.07,1.06,-0.28,0.20,0.80,
1.093,0.11,0.07,1.06,-0.28,0.20,0.80,
1.096,0.13,0.07,1.07,-0.28,0.20,0.80,
1.097,0.13,0.07,1.07,-0.02,0.24,0.84,
1.099,0.13,0.07,1.07,-0.02,0.24,0.84,
1.101,0.14,0.07,1.09,-0.02,0.24,0.84,
1.101,0.14,0.07,1.09,0.20,0.29,0.91,
1.103,0.15,0.07,1.09,0.20,0.29,0.91,
1.106,0.15,0.07,1.09,0.20,0.29,0.91,
1.107,0.15,0.07,1.09,0.36,0.28,1.07,
1.108,0.16,0.07,1.09,0.36,0.28,1.07,
1.111,0.16,0.07,1.09,0.47,0.32,1.18,
1.111,0.15,0.07,1.10,0.47,0.32,1.18,
1.113,0.16,0.06,1.10,0.47,0.32,1.18,
1.116,0.15,0.07,1.09,0.47,0.32,1.18,
1.116,0.15,0.07,1.09,0.51,0.28,1.22,
1.118,0.15,0.07,1.10,0.51,0.28,1.22,
1.121,0.14,0.07,1.10,0.51,0.28,1.22,
1.121,0.14,0.07,1.10,0.48,0.29,1.22,
1.123,0.14,0.06,1.10,0.48,0.29,1.22,
1.125,0.12,0.07,1.10,0.48,0.29,1.22,
1.126,0.12,0.07,1.10,0.37,0.31,1.25,
1.128,0.12,0.07,1.10,0.37,0.31,1.25,
1.131,0.12,0.07,1.10,0.21,0.32,1.24,
1.131,0.11,0.07,1.10,0.21,0.32,1.24,
1.133,0.10,0.07,1.09,0.21,0.32,1.24,
1.136,0.09,0.07,1.10,0.21,0.32,1.24,
1.136,0.09,0.07,1.10,0.04,0.37,1.22,
1.138,0.08,0.07,1.10,0.04,0.37,1.22,
1.141,0.07,0.07,1.10,0.04,0.37,1.22,
1.141,0.07,0.07,1.10,-0.17,0.39,1.20,
1.143,0.06,0.08,1.11,-0.17,0.39,1.20,
1.146,0.05,0.08,1.12,-0.17,0.39,1.20,
1.149,0.05,0.08,1.12,-0.35,0.45,1.23,
1.149,0.05,0.08,1.12,-0.35,0.45,1.23,
1.15,0.04,0.07,1.13,-0.35,0.45,1.23,
1.15,0.04,0.07,1.13,-0.52,0.49,1.38,
1.152,0.03,0.07,1.14,-0.52,0.49,1.38,
1.155,0.03,0.07,1.14,-0.65,0.48,1.47,
1.155,0.03,0.07,1.14,-0.65,0.48,1.47,
1.157,0.02,0.06,1.15,-0.65,0.48,1.47,
1.161,0.02,0.07,1.15,-0.65,0.48,1.47,
1.161,0.02,0.07,1.15,-0.80,0.46,1.64,
1.163,0.02,0.06,1.16,-0.80,0.46,1.64,
1.165,0.02,0.06,1.16,-0.80,0.46,1.64,
1.166,0.02,0.06,1.16,-0.88,0.41,1.71,
1.168,0.02,0.06,1.17,-0.88,0.41,1.71,
1.175,0.02,0.06,1.17,-0.88,0.41,1.71,
1.176,0.02,0.06,1.17,-0.92,0.41,1.83,
1.176,0.03,0.06,1.17,-0.92,0.41,1.83,
1.176,0.03,0.06,1.17,-0.90,0.40,1.89,
1.177,0.03,0.06,1.16,-0.90,0.40,1.89,
1.177,0.04,0.06,1.17,-0.90,0.40,1.89,
1.18,0.04,0.06,1.17,-0.83,0.42,1.85,
1.18,0.04,0.06,1.17,-0.83,0.42,1.85,
1.182,0.05,0.06,1.16,-0.83,0.42,1.85,
1.185,0.05,0.05,1.16,-0.83,0.42,1.85,
1.185,0.05,0.05,1.16,-0.74,0.38,1.89,
1.187,0.06,0.05,1.16,-0.74,0.38,1.89,
1.19,0.06,0.06,1.15,-0.74,0.38,1.89,
1.19,0.06,0.06,1.15,-0.65,0.39,1.81,
1.192,0.06,0.06,1.15,-0.65,0.39,1.81,
1.195,0.07,0.06,1.14,-0.65,0.39,1.81,
1.196,0.07,0.06,1.14,-0.56,0.40,1.76,
1.197,0.08,0.06,1.13,-0.56,0.40,1.76,
1.2,0.08,0.06,1.14,-0.56,0.40,1.76,
1.2,0.08,0.06,1.14,-0.47,0.42,1.65,
1.201,0.08,0.06,1.13,-0.47,0.42,1.65,
1.205,0.08,0.06,1.13,-0.34,0.46,1.53,
1.206,0.09,0.06,1.12,-0.34,0.46,1.53,
1.206,0.09,0.07,1.12,-0.34,0.46,1.53,
1.209,0.10,0.07,1.12,-0.34,0.46,1.53,
1.209,0.10,0.07,1.12,-0.29,0.50,1.43,
1.211,0.10,0.07,1.11,-0.29,0.50,1.43,
1.214,0.10,0.07,1.11,-0.29,0.50,1.43,
1.215,0.10,0.07,1.11,-0.21,0.55,1.39,
1.216,0.10,0.07,1.11,-0.21,0.55,1.39,
1.221,0.10,0.07,1.11,-0.18,0.59,1.28,
1.221,0.10,0.07,1.11,-0.18,0.59,1.28,
1.221,0.10,0.07,1.11,-0.18,0.59,1.28,
1.224,0.10,0.07,1.12,-0.18,0.59,1.28,
1.224,0.10,0.07,1.12,-0.17,0.60,1.28,
1.226,0.10,0.07,1.12,-0.17,0.60,1.28,
1.229,0.10,0.07,1.12,-0.19,0.61,1.32,
1.229,0.09,0.07,1.12,-0.19,0.61,1.32,
1.231,0.09,0.07,1.11,-0.19,0.61,1.32,
1.234,0.09,0.07,1.12,-0.19,0.61,1.32,
1.234,0.09,0.07,1.12,-0.22,0.59,1.35,
1.237,0.09,0.07,1.11,-0.22,0.59,1.35,
1.239,0.09,0.07,1.11,-0.22,0.59,1.35,
1.239,0.09,0.07,1.11,-0.25,0.54,1.30,
1.241,0.09,0.07,1.11,-0.25,0.54,1.30,
1.244,0.09,0.07,1.11,-0.26,0.56,1.29,
1.244,0.09,0.07,1.11,-0.26,0.56,1.29,
1.246,0.08,0.07,1.10,-0.26,0.56,1.29,
1.249,0.08,0.07,1.10,-0.29,0.57,1.27,
1.25,0.08,0.07,1.10,-0.29,0.57,1.27,
1.251,0.07,0.07,1.10,-0.29,0.57,1.27,
1.254,0.07,0.07,1.10,-0.34,0.57,1.15,
1.255,0.08,0.07,1.09,-0.34,0.57,1.15,
1.256,0.08,0.07,1.09,-0.34,0.57,1.15,
1.259,0.08,0.07,1.09,-0.34,0.57,1.15,
1.259,0.08,0.07,1.09,-0.39,0.59,1.13,
1.261,0.07,0.07,1.07,-0.39,0.59,1.13,
1.264,0.07,0.07,1.07,-0.39,0.59,1.13,
1.264,0.07,0.07,1.07,-0.38,0.59,1.02,
1.267,0.07,0.07,1.06,-0.38,0.59,1.02,
1.269,0.07,0.07,1.06,-0.41,0.59,0.85,
1.27,0.07,0.07,1.06,-0.41,0.59,0.85,
1.28,0.06,0.07,1.05,-0.41,0.59,0.85,
1.281,0.07,0.07,1.05,-0.41,0.59,0.85,
1.281,0.07,0.07,1.05,-0.45,0.58,0.76,
1.282,0.07,0.07,1.04,-0.45,0.58,0.76,
1.283,0.07,0.07,1.04,-0.45,0.54,0.64,
1.283,0.07,0.06,1.03,-0.45,0.54,0.64,
1.284,0.07,0.06,1.03,-0.45,0.54,0.64,
1.284,0.08,0.06,1.03,-0.45,0.54,0.64,
1.285,0.08,0.06,1.03,-0.41,0.53,0.50,
1.286,0.08,0.06,1.03,-0.41,0.53,0.50,
1.297,0.08,0.06,1.03,-0.41,0.53,0.50,
1.298,0.08,0.06,1.03,-0.32,0.51,0.44,
1.298,0.09,0.06,1.02,-0.32,0.51,0.44,
1.298,0.09,0.06,1.02,-0.25,0.48,0.43,
1.298,0.10,0.06,1.03,-0.25,0.48,0.43,
1.299,0.10,0.06,1.03,-0.25,0.48,0.43,
1.299,0.10,0.06,1.04,-0.25,0.48,0.43,
1.299,0.10,0.06,1.04,-0.14,0.52,0.40,
1.3,0.11,0.07,1.04,-0.14,0.52,0.40,
1.304,0.11,0.07,1.04,-0.06,0.53,0.47,
1.305,0.11,0.07,1.04,-0.06,0.53,0.47,
1.305,0.11,0.07,1.05,-0.06,0.53,0.47,
1.309,0.12,0.07,1.06,-0.06,0.53,0.47,
1.309,0.12,0.07,1.06,0.01,0.57,0.56,
1.311,0.13,0.07,1.07,0.01,0.57,0.56,
1.313,0.12,0.07,1.08,0.01,0.57,0.56,
1.314,0.12,0.07,1.08,0.09,0.61,0.69,
1.315,0.13,0.07,1.08,0.09,0.61,0.69,
1.318,0.13,0.07,1.09,0.09,0.61,0.69,
1.319,0.13,0.07,1.09,0.17,0.65,0.86,
1.321,0.13,0.07,1.10,0.17,0.65,0.86,
1.324,0.13,0.07,1.10,0.17,0.65,0.86,
1.324,0.13,0.07,1.10,0.21,0.67,1.00,
1.325,0.13,0.07,1.11,0.21,0.67,1.00,
1.328,0.13,0.07,1.11,0.23,0.67,1.13,
1.328,0.13,0.06,1.11,0.23,0.67,1.13,
1.331,0.14,0.06,1.12,0.23,0.67,1.13,
1.333,0.14,0.06,1.12,0.24,0.58,1.23,
1.334,0.14,0.06,1.12,0.24,0.58,1.23,
1.336,0.15,0.05,1.12,0.24,0.58,1.23,
1.339,0.15,0.05,1.12,0.24,0.58,1.23,
1.339,0.15,0.05,1.12,0.32,0.53,1.32,
1.34,0.15,0.05,1.12,0.32,0.53,1.32,
1.344,0.15,0.04,1.12,0.32,0.53,1.32,
1.344,0.15,0.04,1.12,0.38,0.48,1.33,
1.346,0.15,0.04,1.11,0.38,0.48,1.33,
1.349,0.15,0.04,1.11,0.38,0.48,1.33,
1.349,0.15,0.04,1.11,0.41,0.39,1.30,
1.351,0.15,0.04,1.11,0.41,0.39,1.30,
1.354,0.15,0.04,1.11,0.42,0.37,1.19,
1.354,0.15,0.04,1.09,0.42,0.37,1.19,
1.36,0.14,0.04,1.09,0.42,0.37,1.19,
1.361,0.14,0.04,1.09,0.42,0.37,1.19,
1.361,0.14,0.04,1.09,0.42,0.36,1.07,
1.361,0.13,0.04,1.08,0.42,0.36,1.07,
1.363,0.13,0.04,1.08,0.42,0.36,1.07,
1.363,0.13,0.04,1.08,0.33,0.33,0.97,
1.365,0.13,0.03,1.06,0.33,0.33,0.97,
1.368,0.13,0.03,1.06,0.33,0.33,0.97,
1.368,0.13,0.03,1.06,0.27,0.32,0.83,
1.371,0.12,0.02,1.05,0.27,0.32,0.83,
1.374,0.13,0.02,1.05,0.27,0.32,0.83,
1.374,0.13,0.02,1.05,0.24,0.26,0.64,
1.375,0.13,0.02,1.04,0.24,0.26,0.64,
1.378,0.13,0.02,1.04,0.20,0.18,0.56,
1.379,0.13,0.01,1.04,0.20,0.18,0.56,
1.381,0.13,0.01,1.03,0.20,0.18,0.56,
1.383,0.13,0.01,1.03,0.20,0.18,0.56,
1.384,0.13,0.01,1.03,0.21,0.11,0.44,
1.386,0.13,0.01,1.03,0.21,0.11,0.44,
1.39,0.13,0.00,1.03,0.21,0.11,0.44,
1.39,0.13,0.00,1.03,0.25,0.04,0.33,
1.39,0.13,0.00,1.02,0.25,0.04,0.33,
1.394,0.14,0.01,1.02,0.25,0.04,0.33,
1.394,0.14,0.01,1.02,0.29,-0.02,0.31,
1.396,0.13,0.00,1.01,0.29,-0.02,0.31,
1.398,0.13,0.01,1.01,0.29,-0.02,0.31,
1.398,0.13,0.01,1.01,0.31,-0.02,0.23,
1.4,0.12,0.01,1.01,0.31,-0.02,0.23,
1.403,0.12,0.01,1.01,0.27,-0.00,0.17,
1.403,0.12,0.01,1.02,0.27,-0.00,0.17,
1.406,0.12,0.02,1.02,0.27,-0.00,0.17,
1.408,0.12,0.03,1.03,0.27,-0.00,0.17,
1.409,0.12,0.03,1.03,0.18,0.07,0.18,
1.411,0.12,0.03,1.03,0.18,0.07,0.18,
1.413,0.13,0.03,1.03,0.18,0.07,0.18,
1.413,0.13,0.03,1.03,0.18,0.17,0.26,
1.416,0.13,0.04,1.04,0.18,0.17,0.26,
1.419,0.13,0.04,1.04,0.18,0.17,0.26,
1.419,0.13,0.04,1.04,0.22,0.26,0.34,
1.421,0.13,0.04,1.05,0.22,0.26,0.34,
1.424,0.14,0.04,1.05,0.22,0.26,0.34,
1.424,0.14,0.04,1.05,0.28,0.34,0.41,
1.426,0.14,0.04,1.05,0.28,0.34,0.41,
1.428,0.14,0.04,1.05,0.33,0.31,0.50,
1.428,0.14,0.04,1.05,0.33,0.31,0.50,
1.43,0.15,0.04,1.06,0.33,0.31,0.50,
1.433,0.15,0.03,1.06,0.33,0.31,0.50,
1.433,0.15,0.03,1.06,0.39,0.29,0.55,
1.435,0.15,0.03,1.06,0.39,0.29,0.55,
1.44,0.16,0.02,1.06,0.39,0.29,0.55,
1.441,0.16,0.02,1.06,0.46,0.24,0.61,
1.441,0.15,0.03,1.06,0.46,0.24,0.61,
1.442,0.15,0.02,1.07,0.46,0.24,0.61,
1.443,0.15,0.02,1.07,0.55,0.17,0.61,
1.445,0.15,0.02,1.07,0.55,0.17,0.61,
1.447,0.15,0.02,1.07,0.51,0.16,0.63,
1.448,0.15,0.02,1.07,0.51,0.16,0.63,
1.449,0.14,0.02,1.07,0.51,0.16,0.63,
1.452,0.14,0.02,1.07,0.47,0.11,0.70,
1.452,0.14,0.02,1.06,0.47,0.11,0.70,
1.455,0.13,0.01,1.07,0.47,0.11,0.70,
1.457,0.13,0.01,1.07,0.47,0.11,0.70,
1.457,0.13,0.01,1.07,0.39,0.08,0.64,
1.46,0.13,0.01,1.07,0.39,0.08,0.64,
1.462,0.13,0.00,1.06,0.39,0.08,0.64,
1.463,0.13,0.00,1.06,0.32,0.03,0.65,
1.464,0.13,-0.00,1.05,0.32,0.03,0.65,
1.467,0.12,-0.00,1.05,0.32,0.03,0.65,
1.468,0.12,-0.00,1.05,0.28,-0.03,0.61,
1.469,0.13,-0.00,1.05,0.28,-0.03,0.61,
1.481,0.12,-0.01,1.04,0.28,-0.03,0.61,
1.481,0.12,-0.01,1.04,0.24,-0.10,0.50,
1.482,0.12,-0.01,1.04,0.24,-0.10,0.50,
1.487,0.12,-0.01,1.04,0.25,-0.17,0.42,
1.488,0.12,-0.02,1.04,0.25,-0.17,0.42,
1.488,0.12,-0.02,1.03,0.25,-0.17,0.42,
1.488,0.11,-0.02,1.03,0.25,-0.17,0.42,
1.489,0.11,-0.02,1.03,0.20,-0.21,0.33,
1.489,0.11,-0.01,1.03,0.20,-0.21,0.33,
1.489,0.11,-0.01,1.02,0.20,-0.21,0.33,
1.49,0.11,-0.01,1.02,0.16,-0.25,0.26,
1.49,0.11,-0.02,1.02,0.16,-0.25,0.26,
1.491,0.11,-0.02,1.03,0.16,-0.25,0.26,
1.492,0.11,-0.02,1.03,0.14,-0.24,0.22,
1.494,0.11,-0.02,1.03,0.14,-0.24,0.22,
1.496,0.10,-0.02,1.03,0.14,-0.24,0.22,
1.497,0.10,-0.02,1.03,0.07,-0.27,0.23,
1.499,0.10,-0.01,1.03,0.07,-0.27,0.23,
1.501,0.10,-0.01,1.03,0.08,-0.27,0.25,
1.502,0.10,-0.01,1.04,0.08,-0.27,0.25,
1.503,0.10,-0.01,1.05,0.08,-0.27,0.25,
1.507,0.10,-0.01,1.05,0.08,-0.27,0.25,
1.507,0.10,-0.01,1.05,0.02,-0.22,0.30,
1.509,0.09,-0.00,1.06,0.02,-0.22,0.30,
1.511,0.10,-0.00,1.07,0.02,-0.22,0.30,
1.512,0.10,-0.00,1.07,-0.02,-0.16,0.43,
1.514,0.10,0.01,1.07,-0.02,-0.16,0.43,
1.517,0.10,0.01,1.08,-0.02,-0.16,0.43,
1.517,0.10,0.01,1.08,-0.02,-0.10,0.54,
1.519,0.11,0.01,1.08,-0.02,-0.10,0.54,
1.523,0.11,0.01,1.09,-0.02,-0.10,0.54,
1.524,0.11,0.01,1.09,0.03,-0.03,0.69,
1.524,0.12,0.01,1.10,0.03,-0.03,0.69,
1.527,0.13,0.01,1.10,0.03,-0.03,0.69,
1.528,0.13,0.01,1.10,0.07,-0.02,0.79,
1.528,0.13,0.01,1.10,0.07,-0.02,0.79,
1.531,0.13,0.01,1.10,0.19,-0.01,0.88,
1.531,0.13,0.01,1.10,0.19,-0.01,0.88,
1.533,0.14,0.02,1.11,0.19,-0.01,0.88,
1.536,0.14,0.02,1.11,0.26,0.01,0.92,
1.536,0.14,0.02,1.10,0.26,0.01,0.92,
1.539,0.15,0.02,1.10,0.26,0.01,0.92,
1.541,0.15,0.02,1.11,0.26,0.01,0.92,
1.541,0.15,0.02,1.11,0.35,0.06,0.95,
1.543,0.15,0.02,1.10,0.35,0.06,0.95,
1.546,0.17,0.02,1.10,0.35,0.06,0.95,
1.546,0.17,0.02,1.10,0.41,0.06,0.93,
1.548,0.17,0.02,1.09,0.41,0.06,0.93,
1.551,0.17,0.02,1.09,0.52,0.06,0.90,
1.551,0.17,0.02,1.09,0.52,0.06,0.90,
1.553,0.17,0.02,1.09,0.52,0.06,0.90,
1.557,0.17,0.02,1.09,0.54,0.02,0.81,
1.558,0.17,0.01,1.08,0.54,0.02,0.81,
1.558,0.17,0.01,1.07,0.54,0.02,0.81,
1.561,0.17,0.01,1.06,0.54,0.02,0.81,
1.561,0.17,0.01,1.06,0.57,-0.01,0.72,
1.563,0.18,0.00,1.06,0.57,-0.01,0.72,
1.566,0.18,-0.00,1.05,0.57,-0.01,0.72,
1.567,0.18,-0.00,1.05,0.59,-0.10,0.52,
1.568,0.18,-0.01,1.04,0.59,-0.10,0.52,
1.575,0.18,-0.01,1.03,0.59,-0.10,0.52,
1.577,0.18,-0.01,1.03,0.64,-0.18,0.39,
1.578,0.18,-0.01,1.02,0.64,-0.18,0.39,
1.578,0.18,-0.01,1.02,0.64,-0.28,0.23,
1.579,0.17,-0.01,1.01,0.64,-0.28,0.23,
1.579,0.17,-0.01,1.01,0.64,-0.28,0.23,
1.593,0.16,-0.01,1.00,0.64,-0.28,0.23,
1.593,0.16,-0.01,1.00,0.58,-0.31,0.04,
1.593,0.16,-0.00,1.00,0.58,-0.31,0.04,
1.594,0.15,0.00,1.00,0.58,-0.31,0.04,
1.594,0.15,0.00,1.00,0.50,-0.28,-0.07,
1.594,0.15,0.01,1.01,0.50,-0.28,-0.07,
1.594,0.14,0.01,1.01,0.50,-0.28,-0.07,
1.595,0.14,0.01,1.01,0.38,-0.18,-0.09,
1.595,0.13,0.01,1.02,0.38,-0.18,-0.09,
1.595,0.13,0.02,1.03,0.38,-0.18,-0.09,
1.595,0.13,0.02,1.03,0.27,-0.10,0.00,
1.597,0.13,0.02,1.04,0.27,-0.10,0.00,
1.6,0.13,0.02,1.04,0.12,-0.01,0.14,
1.6,0.13,0.02,1.06,0.12,-0.01,0.14,
1.603,0.13,0.03,1.07,0.12,-0.01,0.14,
1.608,0.12,0.03,1.08,0.12,-0.01,0.14,
1.608,0.12,0.03,1.08,0.05,0.02,0.39,
1.608,0.12,0.03,1.10,0.05,0.02,0.39,
1.611,0.12,0.03,1.10,-0.00,0.07,0.65,
1.611,0.11,0.03,1.11,-0.00,0.07,0.65,
1.613,0.11,0.02,1.13,-0.00,0.07,0.65,
1.615,0.12,0.02,1.14,-0.00,0.07,0.65,
1.615,0.12,0.02,1.14,-0.11,0.10,0.91,
1.617,0.12,0.01,1.14,-0.11,0.10,0.91,
1.621,0.11,0.00,1.16,-0.11,0.10,0.91,
1.621,0.11,0.00,1.16,-0.11,-0.00,1.22,
1.623,0.11,0.00,1.16,-0.11,-0.00,1.22,
1.625,0.11,0.00,1.16,-0.12,-0.12,1.35,
1.625,0.11,-0.00,1.16,-0.12,-0.12,1.35,
1.627,0.11,-0.01,1.16,-0.12,-0.12,1.35,
1.63,0.12,-0.01,1.16,-0.12,-0.12,1.35,
1.63,0.12,-0.01,1.16,-0.16,-0.22,1.42,
1.633,0.11,-0.01,1.15,-0.16,-0.22,1.42,
1.636,0.12,-0.01,1.14,-0.16,-0.22,1.42,
1.636,0.12,-0.01,1.14,-0.15,-0.29,1.42,
1.638,0.12,-0.00,1.14,-0.15,-0.29,1.42,
1.64,0.12,-0.00,1.14,-0.15,-0.29,1.42,
1.644,0.12,-0.00,1.14,-0.16,-0.28,1.30,
1.645,0.12,-0.00,1.13,-0.16,-0.28,1.30,
1.645,0.12,0.00,1.12,-0.16,-0.28,1.30,
1.645,0.12,0.00,1.12,-0.13,-0.23,1.20,
1.647,0.12,0.01,1.11,-0.13,-0.23,1.20,
1.65,0.12,0.01,1.11,-0.09,-0.23,1.04,
1.651,0.11,0.01,1.10,-0.09,-0.23,1.04,
1.652,0.11,0.00,1.09,-0.09,-0.23,1.04,
1.655,0.11,0.01,1.08,-0.09,-0.23,1.04,
1.655,0.11,0.01,1.08,-0.16,-0.14,0.84,
1.658,0.11,0.01,1.07,-0.16,-0.14,0.84,
1.66,0.11,0.01,1.05,-0.16,-0.14,0.84,
1.661,0.11,0.01,1.05,-0.18,-0.17,0.68,
1.663,0.11,0.01,1.04,-0.18,-0.17,0.68,
1.665,0.10,0.01,1.03,-0.18,-0.17,0.68,
1.666,0.10,0.01,1.03,-0.23,-0.16,0.40,
1.667,0.11,0.02,1.01,-0.23,-0.16,0.40,
1.67,0.10,0.02,1.00,-0.23,-0.16,0.40,
1.671,0.10,0.02,1.00,-0.24,-0.16,0.15,
1.672,0.10,0.02,0.98,-0.24,-0.16,0.15,
1.676,0.10,0.02,0.98,-0.27,-0.11,-0.16,
1.676,0.10,0.03,0.97,-0.27,-0.11,-0.16,
1.677,0.09,0.04,0.96,-0.27,-0.11,-0.16,
1.68,0.08,0.05,0.95,-0.27,-0.11,-0.16,
1.68,0.08,0.05,0.95,-0.29,-0.04,-0.46,
1.682,0.08,0.07,0.95,-0.29,-0.04,-0.46,
1.685,0.08,0.08,0.94,-0.29,-0.04,-0.46,
1.685,0.08,0.08,0.94,-0.39,0.15,-0.66,
1.687,0.08,0.08,0.94,-0.39,0.15,-0.66,
1.691,0.08,0.08,0.95,-0.39,0.15,-0.66,
1.691,0.08,0.08,0.95,-0.43,0.42,-0.73,
1.692,0.07,0.08,0.95,-0.43,0.42,-0.73,
1.695,0.07,0.08,0.95,-0.43,0.42,-0.73,
1.695,0.07,0.08,0.95,-0.46,0.48,-0.71,
1.696,0.07,0.07,0.97,-0.46,0.48,-0.71,
1.7,0.07,0.07,0.97,-0.51,0.43,-0.63,
1.7,0.06,0.06,0.98,-0.51,0.43,-0.63,
1.702,0.06,0.06,0.98,-0.51,0.43,-0.63,
1.705,0.06,0.05,0.99,-0.51,0.43,-0.63,
1.705,0.06,0.05,0.99,-0.57,0.32,-0.43,
1.707,0.06,0.04,1.00,-0.57,0.32,-0.43,
1.709,0.06,0.04,1.01,-0.57,0.32,-0.43,
1.71,0.06,0.04,1.01,-0.63,0.19,-0.27,
1.712,0.07,0.04,1.02,-0.63,0.19,-0.27,
1.715,0.07,0.04,1.02,-0.63,0.19,-0.27,
1.715,0.07,0.04,1.02,-0.62,0.06,-0.10,
1.717,0.07,0.03,1.03,-0.62,0.06,-0.10,
1.72,0.07,0.03,1.04,-0.62,0.06,-0.10,
1.72,0.07,0.03,1.04,-0.57,0.00,0.04,
1.722,0.07,0.02,1.05,-0.57,0.00,0.04,
1.724,0.07,0.02,1.05,-0.54,-0.09,0.18,
1.725,0.07,0.02,1.05,-0.54,-0.09,0.18,
1.726,0.07,0.03,1.06,-0.54,-0.09,0.18,
1.73,0.08,0.03,1.07,-0.54,-0.09,0.18,
1.73,0.08,0.03,1.07,-0.55,-0.14,0.33,
1.732,0.07,0.03,1.07,-0.55,-0.14,0.33,
1.735,0.07,0.03,1.07,-0.55,-0.14,0.33,
1.735,0.07,0.03,1.07,-0.52,-0.09,0.46,
1.737,0.08,0.03,1.07,-0.52,-0.09,0.46,
1.741,0.08,0.03,1.07,-0.52,-0.09,0.46,
1.741,0.08,0.03,1.07,-0.51,-0.08,0.50,
1.741,0.08,0.03,1.06,-0.51,-0.08,0.50,
1.745,0.08,0.02,1.06,-0.51,-0.08,0.50,
1.745,0.08,0.02,1.06,-0.49,-0.08,0.48,
1.747,0.07,0.02,1.06,-0.49,-0.08,0.48,
1.749,0.07,0.02,1.06,-0.48,-0.13,0.42,
1.75,0.07,0.02,1.05,-0.48,-0.13,0.42,
1.752,0.07,0.02,1.04,-0.48,-0.13,0.42,
1.754,0.07,0.02,1.04,-0.55,-0.24,0.34,
1.755,0.06,0.01,1.04,-0.55,-0.24,0.34,
1.757,0.06,0.01,1.04,-0.55,-0.24,0.34,
1.759,0.06,0.01,1.04,-0.55,-0.24,0.34,
1.759,0.06,0.01,1.04,-0.64,-0.29,0.23,
1.762,0.05,0.02,1.03,-0.64,-0.29,0.23,
1.764,0.06,0.02,1.03,-0.64,-0.29,0.23,
1.765,0.06,0.02,1.03,-0.71,-0.35,0.20,
1.767,0.06,0.03,1.03,-0.71,-0.35,0.20,
1.77,0.06,0.03,1.03,-0.71,-0.35,0.20,
1.77,0.06,0.03,1.03,-0.72,-0.26,0.15,
1.772,0.06,0.04,1.04,-0.72,-0.26,0.15,
1.778,0.06,0.04,1.05,-0.72,-0.26,0.15,
1.779,0.06,0.04,1.05,-0.72,-0.18,0.15,
1.779,0.06,0.04,1.05,-0.72,-0.18,0.15,
1.779,0.06,0.05,1.06,-0.72,-0.18,0.15,
1.779,0.06,0.05,1.06,-0.73,-0.09,0.25,
1.783,0.06,0.05,1.07,-0.73,-0.09,0.25,
1.784,0.06,0.05,1.07,-0.73,-0.09,0.25,
1.784,0.06,0.05,1.07,-0.72,-0.03,0.37,
1.786,0.06,0.06,1.08,-0.72,-0.03,0.37,
1.789,0.05,0.05,1.09,-0.72,-0.03,0.37,
1.79,0.05,0.05,1.09,-0.73,0.02,0.52,
1.792,0.05,0.05,1.09,-0.73,0.02,0.52,
1.794,0.05,0.04,1.09,-0.73,0.02,0.52,
1.794,0.05,0.04,1.09,-0.77,0.01,0.65,
1.796,0.05,0.03,1.09,-0.77,0.01,0.65,
1.799,0.05,0.03,1.09,-0.83,-0.12,0.73,
1.8,0.05,0.03,1.09,-0.83,-0.12,0.73,
1.801,0.05,0.02,1.08,-0.83,-0.12,0.73,
1.804,0.06,0.02,1.08,-0.83,-0.12,0.73,
1.804,0.06,0.02,1.08,-0.80,-0.24,0.67,
1.808,0.06,0.02,1.07,-0.80,-0.24,0.67,
1.811,0.06,0.02,1.06,-0.80,-0.24,0.67,
1.811,0.06,0.02,1.06,-0.77,-0.35,0.60,
1.812,0.06,0.02,1.05,-0.77,-0.35,0.60,
1.814,0.06,0.02,1.03,-0.77,-0.35,0.60,
1.814,0.06,0.02,1.03,-0.68,-0.40,0.41,
1.815,0.05,0.02,1.02,-0.68,-0.40,0.41,
1.818,0.05,0.02,1.01,-0.68,-0.40,0.41,
1.819,0.05,0.02,1.01,-0.71,-0.40,0.19,
1.82,0.04,0.02,0.99,-0.71,-0.40,0.19,
1.824,0.04,0.03,0.98,-0.71,-0.40,0.19,
1.825,0.04,0.03,0.98,-0.76,-0.39,-0.04,
1.827,0.03,0.03,0.96,-0.76,-0.39,-0.04,
1.828,0.02,0.03,0.96,-0.76,-0.39,-0.04,
1.828,0.02,0.03,0.96,-0.84,-0.37,-0.32,
1.83,0.02,0.02,0.94,-0.84,-0.37,-0.32,
1.833,0.02,0.03,0.93,-0.84,-0.37,-0.32,
1.833,0.02,0.03,0.93,-0.94,-0.34,-0.57,
1.835,0.02,0.03,0.92,-0.94,-0.34,-0.57,
1.838,0.02,0.03,0.91,-0.94,-0.34,-0.57,
1.838,0.02,0.03,0.91,-0.96,-0.39,-0.81,
1.84,0.02,0.03,0.90,-0.96,-0.39,-0.81,
1.843,0.02,0.04,0.89,-0.96,-0.39,-0.81,
1.843,0.02,0.04,0.89,-0.99,-0.35,-1.03,
1.845,0.01,0.03,0.89,-0.99,-0.35,-1.03,
1.848,0.01,0.03,0.89,-1.00,-0.34,-1.20,
1.849,0.02,0.03,0.88,-1.00,-0.34,-1.20,
1.85,0.02,0.04,0.88,-1.00,-0.34,-1.20,
1.853,0.03,0.06,0.89,-1.00,-0.34,-1.20,
1.853,0.03,0.06,0.89,-1.01,-0.35,-1.29,
1.855,0.03,0.06,0.89,-1.01,-0.35,-1.29,
1.858,0.04,0.06,0.90,-1.01,-0.35,-1.29,
1.859,0.04,0.06,0.90,-0.91,-0.19,-1.27,
1.86,0.05,0.08,0.91,-0.91,-0.19,-1.27,
1.863,0.06,0.09,0.94,-0.91,-0.19,-1.27,
1.863,0.06,0.09,0.94,-0.82,-0.09,-1.14,
1.865,0.06,0.10,0.96,-0.82,-0.09,-1.14,
1.868,0.07,0.11,0.98,-0.82,-0.09,-1.14,
1.868,0.07,0.11,0.98,-0.66,0.11,-0.85,
1.87,0.07,0.12,1.01,-0.66,0.11,-0.85,
1.882,0.07,0.12,1.01,-0.55,0.32,-0.40,
1.883,0.08,0.12,1.03,-0.55,0.32,-0.40,
1.883,0.08,0.12,1.06,-0.55,0.32,-0.40,
1.884,0.09,0.12,1.08,-0.55,0.32,-0.40,
1.884,0.09,0.12,1.08,-0.44,0.47,0.07,
1.885,0.09,0.11,1.09,-0.44,0.47,0.07,
1.885,0.09,0.10,1.11,-0.44,0.47,0.07,
1.886,0.09,0.10,1.11,-0.40,0.44,0.54,
1.887,0.10,0.08,1.13,-0.40,0.44,0.54,
1.888,0.09,0.07,1.14,-0.40,0.44,0.54,
1.888,0.09,0.07,1.14,-0.37,0.31,0.89,
1.9,0.10,0.05,1.15,-0.37,0.31,0.89,
1.9,0.09,0.04,1.16,-0.37,0.31,0.89,
1.901,0.09,0.04,1.16,-0.32,0.05,1.20,
1.901,0.09,0.02,1.16,-0.32,0.05,1.20,
1.902,0.09,0.02,1.16,-0.35,-0.24,1.38,
1.902,0.09,0.01,1.16,-0.35,-0.24,1.38,
1.902,0.08,-0.00,1.15,-0.35,-0.24,1.38,
1.903,0.08,-0.01,1.15,-0.35,-0.24,1.38,
1.903,0.08,-0.01,1.15,-0.42,-0.52,1.39,
1.905,0.07,-0.02,1.13,-0.42,-0.52,1.39,
1.908,0.06,-0.03,1.11,-0.42,-0.52,1.39,
1.908,0.06,-0.03,1.11,-0.45,-0.78,1.30,
1.91,0.05,-0.04,1.10,-0.45,-0.78,1.30,
1.912,0.04,-0.04,1.09,-0.45,-0.78,1.30,
1.912,0.04,-0.04,1.09,-0.58,-0.94,1.04,
1.915,0.03,-0.04,1.07,-0.58,-0.94,1.04,
1.917,0.03,-0.04,1.07,-0.73,-1.04,0.76,
1.917,0.03,-0.03,1.05,-0.73,-1.04,0.76,
1.919,0.02,-0.03,1.03,-0.73,-1.04,0.76,
1.922,0.02,-0.03,1.03,-0.87,-1.04,0.43,
1.922,0.01,-0.02,1.02,-0.87,-1.04,0.43,
1.924,0.01,-0.01,1.00,-0.87,-1.04,0.43,
1.927,0.00,-0.01,0.98,-0.87,-1.04,0.43,
1.927,0.00,-0.01,0.98,-1.02,-0.93,0.06,
1.929,0.00,0.00,0.96,-1.02,-0.93,0.06,
1.932,0.00,0.01,0.94,-1.02,-0.93,0.06,
1.932,0.00,0.01,0.94,-1.07,-0.81,-0.25,
1.934,-0.00,0.02,0.92,-1.07,-0.81,-0.25,
1.937,0.00,0.04,0.91,-1.07,-0.81,-0.25,
1.937,0.00,0.04,0.91,-1.07,-0.64,-0.67,
1.939,0.00,0.04,0.89,-1.07,-0.64,-0.67,
1.942,0.01,0.05,0.87,-1.07,-0.64,-0.67,
1.942,0.01,0.05,0.87,-1.06,-0.44,-1.02,
1.944,0.01,0.06,0.86,-1.06,-0.44,-1.02,
1.947,0.01,0.06,0.86,-1.00,-0.32,-1.34,
1.947,0.02,0.07,0.84,-1.00,-0.32,-1.34,
1.949,0.03,0.08,0.82,-1.00,-0.32,-1.34,
1.952,0.04,0.09,0.82,-1.00,-0.32,-1.34,
1.952,0.04,0.09,0.82,-0.88,-0.13,-1.67,
1.954,0.05,0.10,0.81,-0.88,-0.13,-1.67,
1.964,0.06,0.11,0.80,-0.88,-0.13,-1.67,
1.964,0.06,0.11,0.80,-0.71,0.00,-1.93,
1.965,0.06,0.12,0.79,-0.71,0.00,-1.93,
1.965,0.06,0.12,0.79,-0.71,0.00,-1.93,
1.966,0.06,0.12,0.79,-0.55,0.17,-2.11,
1.966,0.07,0.13,0.79,-0.55,0.17,-2.11,
1.967,0.08,0.14,0.79,-0.55,0.17,-2.11,
1.967,0.08,0.14,0.79,-0.45,0.30,-2.20,
1.969,0.08,0.14,0.79,-0.45,0.30,-2.20,
1.972,0.08,0.14,0.80,-0.45,0.30,-2.20,
1.972,0.08,0.14,0.80,-0.33,0.41,-2.23,
1.978,0.08,0.14,0.81,-0.33,0.41,-2.23,
1.979,0.08,0.14,0.82,-0.33,0.41,-2.23,
1.979,0.08,0.14,0.82,-0.32,0.43,-2.17,
1.979,0.08,0.14,0.84,-0.32,0.43,-2.17,
1.982,0.08,0.15,0.86,-0.32,0.43,-2.17,
1.982,0.08,0.15,0.86,-0.34,0.47,-1.93,
1.985,0.08,0.15,0.86,-0.34,0.47,-1.93,
1.987,0.09,0.15,0.87,-0.34,0.47,-1.93,
1.988,0.09,0.15,0.87,-0.33,0.46,-1.62,
1.989,0.09,0.14,0.89,-0.33,0.46,-1.62,
1.993,0.09,0.13,0.91,-0.33,0.46,-1.62,
1.993,0.09,0.13,0.91,-0.33,0.47,-1.42,
1.994,0.09,0.13,0.93,-0.33,0.47,-1.42,
1.997,0.09,0.13,0.93,-0.33,0.35,-1.09,
1.997,0.09,0.12,0.93,-0.33,0.35,-1.09,
1.999,0.09,0.11,0.95,-0.33,0.35,-1.09,
2.001,0.09,0.09,0.97,-0.33,0.35,-1.09,
2.001,0.09,0.09,0.97,-0.34,0.23,-0.80,
2.004,0.09,0.09,0.98,-0.34,0.23,-0.80,
2.007,0.09,0.08,0.99,-0.34,0.23,-0.80,
2.007,0.09,0.08,0.99,-0.37,0.02,-0.50,
2.01,0.09,0.07,1.00,-0.37,0.02,-0.50,
2.012,0.10,0.07,1.00,-0.37,0.02,-0.50,
2.012,0.10,0.07,1.00,-0.38,-0.18,-0.24,
2.014,0.10,0.06,1.00,-0.38,-0.18,-0.24,
2.017,0.10,0.05,1.01,-0.38,-0.18,-0.24,
2.018,0.10,0.05,1.01,-0.34,-0.30,-0.10,
2.019,0.11,0.05,1.01,-0.34,-0.30,-0.10,
2.022,0.11,0.05,1.01,-0.26,-0.44,-0.03,
2.022,0.12,0.06,1.01,-0.26,-0.44,-0.03,
2.024,0.12,0.06,1.01,-0.26,-0.44,-0.03,
2.027,0.12,0.06,1.01,-0.26,-0.44,-0.03,
2.027,0.12,0.06,1.01,-0.16,-0.42,-0.02,
2.029,0.12,0.07,1.01,-0.16,-0.42,-0.02,
2.032,0.12,0.07,1.01,-0.10,-0.41,-0.01,
2.032,0.12,0.07,1.01,-0.10,-0.41,-0.01,
2.035,0.12,0.08,1.01,-0.10,-0.41,-0.01,
2.037,0.12,0.09,1.00,-0.10,-0.41,-0.01,
2.037,0.12,0.09,1.00,-0.07,-0.28,-0.03,
2.039,0.12,0.10,1.00,-0.07,-0.28,-0.03,
2.042,0.12,0.11,0.99,-0.07,-0.28,-0.03,
2.043,0.12,0.11,0.99,-0.12,-0.14,-0.05,
2.044,0.11,0.12,0.99,-0.12,-0.14,-0.05,
2.047,0.11,0.12,0.99,-0.13,0.04,-0.15,
2.047,0.12,0.12,0.98,-0.13,0.04,-0.15,
2.05,0.12,0.13,0.97,-0.13,0.04,-0.15,
2.052,0.12,0.14,0.96,-0.13,0.04,-0.15,
2.052,0.12,0.14,0.96,-0.15,0.16,-0.28,
2.054,0.12,0.15,0.95,-0.15,0.16,-0.28,
2.057,0.13,0.16,0.94,-0.15,0.16,-0.28,
2.057,0.13,0.16,0.94,-0.11,0.31,-0.47,
2.06,0.13,0.17,0.94,-0.11,0.31,-0.47,
2.062,0.14,0.18,0.94,-0.11,0.31,-0.47,
2.062,0.14,0.18,0.94,-0.04,0.46,-0.61,
2.064,0.15,0.19,0.94,-0.04,0.46,-0.61,
2.067,0.15,0.19,0.94,0.07,0.63,-0.68,
2.067,0.16,0.19,0.93,0.07,0.63,-0.68,
2.069,0.16,0.18,0.93,0.07,0.63,-0.68,
2.072,0.16,0.18,0.93,0.24,0.75,-0.72,
2.072,0.16,0.19,0.93,0.24,0.75,-0.72,
2.074,0.16,0.19,0.94,0.24,0.75,-0.72,
2.082,0.17,0.19,0.94,0.24,0.75,-0.72,
2.082,0.17,0.19,0.94,0.30,0.75,-0.73,
2.083,0.17,0.19,0.95,0.30,0.75,-0.73,
2.083,0.17,0.18,0.94,0.30,0.75,-0.73,
2.083,0.17,0.18,0.94,0.34,0.76,-0.65,
2.083,0.16,0.17,0.95,0.34,0.76,-0.65,
2.087,0.16,0.17,0.95,0.34,0.76,-0.65,
2.087,0.16,0.17,0.95,0.36,0.67,-0.64,
2.088,0.15,0.16,0.95,0.36,0.67,-0.64,
2.093,0.15,0.15,0.96,0.36,0.67,-0.64,
2.094,0.15,0.15,0.96,0.30,0.53,-0.54,
2.094,0.14,0.13,0.96,0.30,0.53,-0.54,
2.096,0.14,0.13,0.96,0.19,0.34,-0.53,
2.096,0.13,0.13,0.96,0.19,0.34,-0.53,
2.098,0.13,0.12,0.95,0.19,0.34,-0.53,
2.101,0.12,0.11,0.95,0.19,0.34,-0.53,
2.102,0.12,0.11,0.95,0.04,0.12,-0.49,
2.103,0.11,0.11,0.96,0.04,0.12,-0.49,
2.106,0.10,0.11,0.96,0.04,0.12,-0.49,
2.106,0.10,0.11,0.96,-0.07,-0.04,-0.53,
2.109,0.09,0.10,0.96,-0.07,-0.04,-0.53,
2.112,0.08,0.10,0.96,-0.07,-0.04,-0.53,
2.112,0.08,0.10,0.96,-0.27,-0.12,-0.48,
2.113,0.07,0.10,0.96,-0.27,-0.12,-0.48,
2.116,0.07,0.10,0.96,-0.44,-0.21,-0.45,
2.116,0.06,0.10,0.96,-0.44,-0.21,-0.45,
2.118,0.05,0.10,0.97,-0.44,-0.21,-0.45,
2.121,0.05,0.10,0.97,-0.64,-0.21,-0.44,
2.121,0.04,0.11,0.97,-0.64,-0.21,-0.44,
2.123,0.03,0.11,0.98,-0.64,-0.21,-0.44,
2.126,0.03,0.11,0.98,-0.64,-0.21,-0.44,
2.126,0.03,0.11,0.98,-0.80,-0.17,-0.36,
2.128,0.02,0.11,0.99,-0.80,-0.17,-0.36,
2.13,0.02,0.11,1.00,-0.80,-0.17,-0.36,
2.131,0.02,0.11,1.00,-0.96,-0.12,-0.26,
2.133,0.02,0.12,1.00,-0.96,-0.12,-0.26,
2.135,0.02,0.11,1.01,-0.96,-0.12,-0.26,
2.138,0.02,0.11,1.01,-1.01,-0.09,-0.12,
2.139,0.02,0.11,1.02,-1.01,-0.09,-0.12,
2.14,0.02,0.12,1.02,-1.01,-0.09,-0.12,
2.14,0.02,0.12,1.02,-1.06,-0.10,-0.05,
2.143,0.03,0.12,1.03,-1.06,-0.10,-0.05,
2.145,0.03,0.12,1.03,-1.07,-0.09,0.12,
2.145,0.03,0.12,1.04,-1.07,-0.09,0.12,
2.147,0.04,0.12,1.05,-1.07,-0.09,0.12,
2.15,0.04,0.12,1.06,-1.07,-0.09,0.12,
2.15,0.04,0.12,1.06,-0.95,-0.01,0.28,
2.152,0.05,0.12,1.07,-0.95,-0.01,0.28,
2.155,0.05,0.12,1.08,-0.95,-0.01,0.28,
2.155,0.05,0.12,1.08,-0.85,-0.01,0.46,
2.157,0.06,0.12,1.09,-0.85,-0.01,0.46,
2.16,0.06,0.11,1.09,-0.85,-0.01,0.46,
2.161,0.06,0.11,1.09,-0.76,-0.03,0.67,
2.162,0.06,0.11,1.09,-0.76,-0.03,0.67,
2.166,0.07,0.12,1.10,-0.76,-0.03,0.67,
2.166,0.07,0.12,1.10,-0.67,-0.07,0.82,
2.167,0.07,0.11,1.10,-0.67,-0.07,0.82,
2.17,0.07,0.11,1.10,-0.62,-0.09,0.87,
2.17,0.08,0.12,1.09,-0.62,-0.09,0.87,
2.172,0.08,0.12,1.09,-0.62,-0.09,0.87,
2.179,0.08,0.12,1.08,-0.62,-0.09,0.87,
2.18,0.08,0.12,1.08,-0.53,-0.06,0.86,
2.182,0.08,0.12,1.07,-0.53,-0.06,0.86,
2.184,0.09,0.13,1.05,-0.53,-0.06,0.86,
2.184,0.09,0.13,1.05,-0.43,-0.02,0.75,
2.184,0.08,0.13,1.04,-0.43,-0.02,0.75,
2.185,0.08,0.14,1.02,-0.43,-0.02,0.75,
2.186,0.08,0.14,1.02,-0.37,-0.01,0.50,
2.187,0.08,0.14,1.01,-0.37,-0.01,0.50,
2.19,0.07,0.14,1.00,-0.37,-0.01,0.50,
2.19,0.07,0.14,1.00,-0.39,0.07,0.23,
2.191,0.07,0.15,0.99,-0.39,0.07,0.23,
2.196,0.07,0.15,0.99,-0.40,0.11,-0.02,
2.196,0.06,0.15,0.97,-0.40,0.11,-0.02,
2.197,0.06,0.15,0.97,-0.40,0.11,-0.02,
2.2,0.05,0.15,0.96,-0.40,0.11,-0.02,
2.2,0.05,0.15,0.96,-0.49,0.19,-0.25,
2.202,0.05,0.15,0.94,-0.49,0.19,-0.25,
2.205,0.05,0.15,0.93,-0.49,0.19,-0.25,
2.205,0.05,0.15,0.93,-0.57,0.21,-0.45,
2.207,0.05,0.15,0.92,-0.57,0.21,-0.45,
2.211,0.05,0.15,0.92,-0.57,0.21,-0.45,
2.211,0.05,0.15,0.92,-0.63,0.20,-0.68,
2.213,0.05,0.16,0.92,-0.63,0.20,-0.68,
2.215,0.06,0.15,0.93,-0.63,0.20,-0.68,
2.215,0.06,0.15,0.93,-0.59,0.21,-0.85,
2.217,0.07,0.16,0.92,-0.59,0.21,-0.85,
2.22,0.07,0.16,0.92,-0.53,0.20,-0.81,
2.22,0.07,0.16,0.92,-0.53,0.20,-0.81,
2.222,0.07,0.16,0.94,-0.53,0.20,-0.81,
2.226,0.08,0.15,0.94,-0.53,0.20,-0.81,
2.227,0.08,0.15,0.94,-0.39,0.21,-0.82,
2.227,0.08,0.15,0.94,-0.39,0.21,-0.82,
2.23,0.08,0.15,0.94,-0.39,0.21,-0.82,
2.23,0.08,0.15,0.94,-0.32,0.17,-0.67,
2.232,0.09,0.15,0.95,-0.32,0.17,-0.67,
2.235,0.09,0.15,0.96,-0.32,0.17,-0.67,
2.235,0.09,0.15,0.96,-0.27,0.12,-0.62,
2.237,0.10,0.16,0.96,-0.27,0.12,-0.62,
2.24,0.11,0.16,0.96,-0.27,0.12,-0.62,
2.24,0.11,0.16,0.96,-0.16,0.13,-0.50,
2.242,0.12,0.16,0.96,-0.16,0.13,-0.50,
2.244,0.12,0.16,0.96,0.04,0.15,-0.44,
2.244,0.13,0.16,0.96,0.04,0.15,-0.44,
2.247,0.13,0.16,0.96,0.04,0.15,-0.44,
2.25,0.13,0.16,0.95,0.04,0.15,-0.44,
2.25,0.13,0.16,0.95,0.20,0.13,-0.45,
2.252,0.13,0.16,0.95,0.20,0.13,-0.45,
2.255,0.14,0.16,0.94,0.20,0.13,-0.45,
2.255,0.14,0.16,0.94,0.29,0.11,-0.50,
2.257,0.14,0.16,0.93,0.29,0.11,-0.50,
2.26,0.14,0.17,0.92,0.29,0.11,-0.50,
2.261,0.14,0.17,0.92,0.30,0.11,-0.58,
2.262,0.14,0.17,0.92,0.30,0.11,-0.58,
2.264,0.13,0.17,0.92,0.30,0.11,-0.58,
2.265,0.13,0.17,0.92,0.34,0.15,-0.77,
2.267,0.13,0.18,0.91,0.34,0.15,-0.77,
2.27,0.13,0.18,0.91,0.32,0.15,-0.83,
2.27,0.13,0.18,0.91,0.32,0.15,-0.83,
2.272,0.13,0.18,0.91,0.32,0.15,-0.83,
2.274,0.13,0.18,0.90,0.32,0.15,-0.83,
2.275,0.13,0.18,0.90,0.29,0.20,-0.94,
2.282,0.13,0.18,0.89,0.29,0.20,-0.94,
2.283,0.13,0.17,0.90,0.29,0.20,-0.94,
2.283,0.13,0.17,0.90,0.30,0.19,-0.97,
2.284,0.13,0.17,0.89,0.30,0.19,-0.97,
2.284,0.13,0.17,0.88,0.30,0.19,-0.97,
2.284,0.13,0.17,0.88,0.29,0.15,-1.06,
2.286,0.13,0.16,0.87,0.29,0.15,-1.06,
2.289,0.14,0.17,0.87,0.29,0.15,-1.06,
2.289,0.14,0.17,0.87,0.33,0.08,-1.17,
2.291,0.14,0.16,0.86,0.33,0.08,-1.17,
2.294,0.14,0.16,0.86,0.35,0.03,-1.27,
2.294,0.14,0.16,0.86,0.35,0.03,-1.27,
2.296,0.14,0.16,0.86,0.35,0.03,-1.27,
2.299,0.13,0.15,0.85,0.35,0.03,-1.27,
2.299,0.13,0.15,0.85,0.38,-0.04,-1.37,
2.302,0.13,0.15,0.85,0.38,-0.04,-1.37,
2.304,0.13,0.15,0.85,0.38,-0.04,-1.37,
2.304,0.13,0.15,0.85,0.36,-0.11,-1.46,
2.307,0.12,0.16,0.85,0.36,-0.11,-1.46,
2.31,0.11,0.16,0.85,0.36,-0.11,-1.46,
2.31,0.11,0.16,0.85,0.30,-0.13,-1.49,
2.312,0.11,0.16,0.85,0.30,-0.13,-1.49,
2.314,0.11,0.16,0.86,0.30,-0.13,-1.49,
2.315,0.11,0.16,0.86,0.20,-0.08,-1.51,
2.316,0.10,0.16,0.86,0.20,-0.08,-1.51,
2.319,0.10,0.16,0.86,0.11,-0.06,-1.41,
2.319,0.10,0.16,0.87,0.11,-0.06,-1.41,
2.322,0.10,0.16,0.88,0.11,-0.06,-1.41,
2.324,0.10,0.16,0.89,0.11,-0.06,-1.41,
2.325,0.10,0.16,0.89,0.05,-0.05,-1.34,
2.328,0.10,0.15,0.90,0.05,-0.05,-1.34,
2.329,0.09,0.15,0.90,0.05,-0.05,-1.34,
2.329,0.09,0.15,0.90,0.03,-0.08,-1.16,
2.331,0.09,0.15,0.91,0.03,-0.08,-1.16,
2.334,0.08,0.15,0.93,0.03,-0.08,-1.16,
2.334,0.08,0.15,0.93,-0.01,-0.11,-0.99,
2.336,0.09,0.15,0.93,-0.01,-0.11,-0.99,
2.339,0.08,0.14,0.94,-0.01,-0.11,-0.99,
2.34,0.08,0.14,0.94,-0.09,-0.12,-0.80,
2.341,0.08,0.14,0.95,-0.09,-0.12,-0.80,
2.345,0.08,0.14,0.95,-0.09,-0.18,-0.63,
2.346,0.08,0.14,0.96,-0.09,-0.18,-0.63,
2.346,0.09,0.15,0.97,-0.09,-0.18,-0.63,
2.348,0.08,0.14,0.97,-0.09,-0.18,-0.63,
2.349,0.08,0.14,0.97,-0.10,-0.20,-0.43,
2.352,0.08,0.13,0.97,-0.10,-0.20,-0.43,
2.354,0.08,0.13,0.97,-0.10,-0.20,-0.43,
2.354,0.08,0.13,0.97,-0.09,-0.17,-0.32,
2.356,0.08,0.13,0.97,-0.09,-0.17,-0.32,
2.359,0.07,0.13,0.97,-0.09,-0.17,-0.32,
2.359,0.07,0.13,0.97,-0.12,-0.27,-0.28,
2.362,0.08,0.13,0.96,-0.12,-0.27,-0.28,
2.364,0.08,0.13,0.96,-0.12,-0.27,-0.28,
2.365,0.08,0.13,0.96,-0.16,-0.28,-0.31,
2.366,0.08,0.13,0.95,-0.16,-0.28,-0.31,
2.368,0.08,0.13,0.95,-0.12,-0.30,-0.39,
2.369,0.08,0.13,0.94,-0.12,-0.30,-0.39,
2.371,0.09,0.13,0.94,-0.12,-0.30,-0.39,
2.374,0.09,0.13,0.94,-0.08,-0.31,-0.54,
2.374,0.09,0.13,0.93,-0.08,-0.31,-0.54,
2.376,0.10,0.13,0.92,-0.08,-0.31,-0.54,
2.384,0.09,0.13,0.91,-0.08,-0.31,-0.54,
2.385,0.09,0.13,0.91,-0.02,-0.31,-0.69,
2.386,0.09,0.13,0.90,-0.02,-0.31,-0.69,
2.386,0.09,0.13,0.90,0.06,-0.26,-0.83,
2.386,0.09,0.13,0.90,0.06,-0.26,-0.83,
2.386,0.09,0.14,0.89,0.06,-0.26,-0.83,
2.388,0.09,0.14,0.88,0.06,-0.26,-0.83,
2.388,0.09,0.14,0.88,0.04,-0.25,-1.00,
2.39,0.10,0.14,0.87,0.04,-0.25,-1.00,
2.395,0.10,0.14,0.87,0.06,-0.22,-1.16,
2.396,0.10,0.14,0.86,0.06,-0.22,-1.16,
2.396,0.10,0.15,0.85,0.06,-0.22,-1.16,
2.398,0.10,0.15,0.84,0.06,-0.22,-1.16,
2.398,0.10,0.15,0.84,0.10,-0.18,-1.35,
2.401,0.10,0.15,0.83,0.10,-0.18,-1.35,
2.403,0.09,0.16,0.83,0.10,-0.18,-1.35,
2.403,0.09,0.16,0.83,0.10,-0.10,-1.53,
2.406,0.10,0.16,0.82,0.10,-0.10,-1.53,
2.409,0.09,0.16,0.82,0.10,-0.10,-1.53,
2.409,0.09,0.16,0.82,0.10,-0.04,-1.63,
2.411,0.10,0.17,0.82,0.10,-0.04,-1.63,
2.413,0.10,0.17,0.82,0.10,0.00,-1.74,
2.414,0.10,0.17,0.82,0.10,0.00,-1.74,
2.415,0.10,0.17,0.82,0.10,0.00,-1.74,
2.418,0.10,0.17,0.82,0.11,0.08,-1.74,
2.418,0.10,0.17,0.83,0.11,0.08,-1.74,
2.42,0.10,0.17,0.83,0.11,0.08,-1.74,
2.423,0.11,0.17,0.83,0.11,0.08,-1.74,
2.423,0.11,0.17,0.83,0.17,0.08,-1.71,
2.425,0.10,0.17,0.83,0.17,0.08,-1.71,
2.428,0.10,0.17,0.83,0.17,0.08,-1.71,
2.429,0.10,0.17,0.83,0.18,0.07,-1.67,
2.431,0.11,0.17,0.83,0.18,0.07,-1.67,
2.433,0.11,0.17,0.83,0.18,0.07,-1.67,
2.433,0.11,0.17,0.83,0.16,0.04,-1.67,
2.435,0.11,0.17,0.83,0.16,0.04,-1.67,
2.438,0.11,0.17,0.82,0.16,0.04,-1.67,
2.438,0.11,0.17,0.82,0.19,0.03,-1.65,
2.441,0.11,0.16,0.83,0.19,0.03,-1.65,
2.443,0.11,0.16,0.83,0.21,0.01,-1.70,
2.444,0.11,0.17,0.82,0.21,0.01,-1.70,
2.447,0.11,0.16,0.82,0.21,0.01,-1.70,
2.448,0.11,0.15,0.82,0.21,0.01,-1.70,
2.448,0.11,0.15,0.82,0.19,-0.00,-1.69,
2.45,0.11,0.15,0.82,0.19,-0.00,-1.69,
2.453,0.10,0.14,0.82,0.19,-0.00,-1.69,
2.453,0.10,0.14,0.82,0.18,-0.08,-1.72,
2.455,0.11,0.13,0.82,0.18,-0.08,-1.72,
2.458,0.10,0.13,0.81,0.18,-0.08,-1.72,
2.458,0.10,0.13,0.81,0.20,-0.16,-1.74,
2.462,0.11,0.12,0.83,0.20,-0.16,-1.74,
2.463,0.11,0.12,0.86,0.20,-0.16,-1.74,
2.464,0.11,0.12,0.86,0.20,-0.32,-1.77,
2.465,0.12,0.11,0.91,0.20,-0.32,-1.77,
2.471,0.12,0.11,0.91,0.24,-0.39,-1.48,
2.471,0.15,0.11,0.95,0.24,-0.39,-1.48,
2.471,0.16,0.11,1.00,0.24,-0.39,-1.48,
2.472,0.17,0.10,1.02,0.24,-0.39,-1.48,
2.473,0.17,0.10,1.02,0.51,-0.49,-0.67,
2.475,0.15,0.10,1.02,0.51,-0.49,-0.67,
2.482,0.12,0.10,1.00,0.51,-0.49,-0.67,
2.484,0.12,0.10,1.00,0.83,-0.55,0.10,
2.485,0.10,0.11,0.99,0.83,-0.55,0.10,
2.485,0.07,0.11,0.98,0.83,-0.55,0.10,
2.486,0.07,0.11,0.98,0.57,-0.58,0.11,
2.486,0.06,0.12,0.98,0.57,-0.58,0.11,
2.487,0.06,0.14,0.98,0.57,-0.58,0.11,
2.487,0.06,0.14,0.98,0.08,-0.50,-0.15,
2.491,0.06,0.15,0.99,0.08,-0.50,-0.15,
2.493,0.06,0.15,0.99,-0.13,-0.30,-0.17,
2.493,0.07,0.16,0.99,-0.13,-0.30,-0.17,
2.501,0.08,0.17,0.98,-0.13,-0.30,-0.17,
2.501,0.08,0.18,0.96,-0.13,-0.30,-0.17,
2.502,0.08,0.18,0.96,-0.06,-0.06,-0.06,
2.502,0.07,0.18,0.94,-0.06,-0.06,-0.06,
2.502,0.07,0.19,0.91,-0.06,-0.06,-0.06,
2.502,0.07,0.19,0.91,0.09,0.12,-0.28,
2.505,0.06,0.19,0.90,0.09,0.12,-0.28,
2.507,0.06,0.19,0.89,0.09,0.12,-0.28,
2.507,0.06,0.19,0.89,0.05,0.17,-0.68,
2.509,0.06,0.19,0.87,0.05,0.17,-0.68,
2.512,0.06,0.19,0.86,0.05,0.17,-0.68,
2.512,0.06,0.19,0.86,-0.02,0.17,-1.00,
2.514,0.07,0.19,0.85,-0.02,0.17,-1.00,
2.517,0.07,0.19,0.85,0.02,0.20,-1.26,
2.517,0.06,0.20,0.84,0.02,0.20,-1.26,
2.519,0.07,0.19,0.83,0.02,0.20,-1.26,
2.522,0.07,0.19,0.82,0.02,0.20,-1.26,
2.522,0.07,0.19,0.82,0.04,0.20,-1.48,
2.524,0.07,0.19,0.82,0.04,0.20,-1.48,
2.529,0.07,0.19,0.82,0.04,0.20,-1.48,
2.529,0.07,0.19,0.82,0.11,0.17,-1.69,
2.529,0.07,0.18,0.83,0.11,0.17,-1.69,
2.532,0.07,0.18,0.83,0.11,0.17,-1.69,
2.532,0.07,0.18,0.83,0.12,0.12,-1.68,
2.534,0.07,0.18,0.84,0.12,0.12,-1.68,
2.537,0.07,0.17,0.85,0.12,0.12,-1.68,
2.538,0.07,0.17,0.85,0.11,0.00,-1.59,
2.539,0.06,0.17,0.86,0.11,0.00,-1.59,
2.542,0.06,0.17,0.86,0.07,-0.09,-1.45,
2.543,0.06,0.16,0.86,0.07,-0.09,-1.45,
2.545,0.05,0.16,0.87,0.07,-0.09,-1.45,
2.547,0.05,0.16,0.88,0.07,-0.09,-1.45,
2.548,0.05,0.16,0.88,-0.03,-0.15,-1.31,
2.549,0.04,0.16,0.90,-0.03,-0.15,-1.31,
2.552,0.04,0.15,0.91,-0.03,-0.15,-1.31,
2.552,0.04,0.15,0.91,-0.14,-0.21,-1.14,
2.554,0.04,0.15,0.92,-0.14,-0.21,-1.14,
2.557,0.04,0.15,0.92,-0.22,-0.27,-0.88,
2.557,0.04,0.14,0.94,-0.22,-0.27,-0.88,
2.559,0.04,0.14,0.95,-0.22,-0.27,-0.88,
2.561,0.04,0.13,0.96,-0.22,-0.27,-0.88,
2.562,0.04,0.13,0.96,-0.27,-0.34,-0.63,
2.564,0.04,0.13,0.97,-0.27,-0.34,-0.63,
2.566,0.04,0.13,0.97,-0.21,-0.42,-0.36,
2.566,0.05,0.13,0.97,-0.21,-0.42,-0.36,
2.569,0.05,0.13,0.98,-0.21,-0.42,-0.36,
2.572,0.05,0.13,0.98,-0.21,-0.42,-0.36,
2.572,0.05,0.13,0.98,-0.19,-0.47,-0.26,
2.574,0.06,0.13,0.98,-0.19,-0.47,-0.26,
2.576,0.06,0.13,0.98,-0.19,-0.47,-0.26,
2.577,0.06,0.13,0.98,-0.13,-0.47,-0.15,
2.584,0.06,0.13,0.99,-0.13,-0.47,-0.15,
2.585,0.06,0.13,1.00,-0.13,-0.47,-0.15,
2.585,0.06,0.13,1.00,-0.06,-0.46,-0.10,
2.585,0.06,0.13,1.01,-0.06,-0.46,-0.10,
2.587,0.06,0.13,1.01,-0.06,-0.46,-0.10,
2.587,0.06,0.13,1.01,-0.06,-0.45,0.02,
2.589,0.06,0.14,1.01,-0.06,-0.45,0.02,
2.591,0.06,0.14,1.01,-0.05,-0.41,0.12,
2.591,0.07,0.14,1.01,-0.05,-0.41,0.12,
2.593,0.07,0.14,1.01,-0.05,-0.41,0.12,
2.596,0.07,0.14,1.01,-0.05,-0.41,0.12,
2.596,0.07,0.14,1.01,0.01,-0.35,0.19,
2.598,0.07,0.14,1.01,0.01,-0.35,0.19,
2.601,0.07,0.15,1.01,0.01,-0.35,0.19,
2.601,0.07,0.15,1.01,0.09,-0.33,0.19,
2.604,0.07,0.15,1.00,0.09,-0.33,0.19,
2.607,0.07,0.15,0.99,0.09,-0.33,0.19,
2.607,0.07,0.15,0.99,0.09,-0.26,0.17,
2.609,0.06,0.16,0.99,0.09,-0.26,0.17,
2.613,0.06,0.16,0.99,0.09,-0.26,0.17,
2.613,0.06,0.16,0.99,0.03,-0.19,0.04,
2.613,0.07,0.16,0.98,0.03,-0.19,0.04,
2.616,0.07,0.16,0.98,0.02,-0.10,-0.06,
2.617,0.06,0.17,0.97,0.02,-0.10,-0.06,
2.618,0.06,0.17,0.97,0.02,-0.10,-0.06,
2.62,0.05,0.17,0.96,0.02,-0.10,-0.06,
2.621,0.05,0.17,0.96,0.04,-0.05,-0.17,
2.623,0.05,0.18,0.96,0.04,-0.05,-0.17,
2.626,0.05,0.18,0.96,0.04,-0.05,-0.17,
2.629,0.05,0.18,0.96,-0.03,0.02,-0.30,
2.629,0.05,0.18,0.95,-0.03,0.02,-0.30,
2.631,0.04,0.18,0.95,-0.03,0.02,-0.30,
2.634,0.04,0.18,0.95,-0.11,0.09,-0.34,
2.634,0.04,0.18,0.95,-0.11,0.09,-0.34,
2.635,0.04,0.18,0.95,-0.11,0.09,-0.34,
2.636,0.04,0.18,0.95,-0.14,0.10,-0.39,
2.637,0.03,0.18,0.95,-0.14,0.10,-0.39,
2.64,0.03,0.18,0.95,-0.19,0.08,-0.43,
2.641,0.04,0.18,0.95,-0.19,0.08,-0.43,
2.642,0.03,0.17,0.95,-0.19,0.08,-0.43,
2.645,0.03,0.17,0.95,-0.19,0.08,-0.43,
2.646,0.03,0.17,0.95,-0.23,0.07,-0.45,
2.647,0.03,0.17,0.95,-0.23,0.07,-0.45,
2.65,0.03,0.17,0.95,-0.25,-0.04,-0.44,
2.65,0.03,0.16,0.95,-0.25,-0.04,-0.44,
2.652,0.04,0.17,0.95,-0.25,-0.04,-0.44,
2.655,0.04,0.16,0.96,-0.25,-0.04,-0.44,
2.655,0.04,0.16,0.96,-0.26,-0.04,-0.39,
2.657,0.04,0.16,0.96,-0.26,-0.04,-0.39,
2.661,0.04,0.16,0.96,-0.26,-0.04,-0.39,
2.662,0.04,0.16,0.96,-0.20,-0.08,-0.36,
2.663,0.04,0.16,0.97,-0.20,-0.08,-0.36,
2.665,0.04,0.16,0.97,-0.20,-0.12,-0.30,
2.665,0.04,0.16,0.97,-0.20,-0.12,-0.30,
2.667,0.05,0.16,0.98,-0.20,-0.12,-0.30,
2.669,0.05,0.16,0.98,-0.20,-0.12,-0.30,
2.67,0.05,0.16,0.98,-0.14,-0.12,-0.22,
2.672,0.06,0.16,0.98,-0.14,-0.12,-0.22,
2.675,0.06,0.16,0.99,-0.14,-0.12,-0.22,
2.676,0.06,0.16,0.99,-0.07,-0.11,-0.14,
2.686,0.07,0.17,0.98,-0.07,-0.11,-0.14,
2.687,0.07,0.17,0.98,-0.07,-0.11,-0.14,
2.688,0.07,0.17,0.98,-0.00,-0.09,-0.08,
2.688,0.07,0.17,0.98,-0.00,-0.09,-0.08,
2.688,0.08,0.17,0.98,-0.00,-0.09,-0.08,
2.689,0.08,0.17,0.98,0.07,-0.01,-0.08,
2.69,0.08,0.18,0.98,0.07,-0.01,-0.08,
2.69,0.08,0.18,0.98,0.14,0.01,-0.11,
2.69,0.08,0.18,0.98,0.14,0.01,-0.11,
2.692,0.07,0.18,0.98,0.14,0.01,-0.11,
2.704,0.07,0.18,0.98,0.14,0.01,-0.11,
2.705,0.07,0.18,0.98,0.14,0.04,-0.09,
2.705,0.07,0.19,0.98,0.14,0.04,-0.09,
2.705,0.07,0.19,0.98,0.09,0.10,-0.10,
2.705,0.08,0.19,0.98,0.09,0.10,-0.10,
2.705,0.08,0.20,0.98,0.09,0.10,-0.10,
2.706,0.09,0.19,0.99,0.09,0.10,-0.10,
2.706,0.09,0.19,0.99,0.09,0.17,-0.09,
2.707,0.09,0.19,1.00,0.09,0.17,-0.09,
2.709,0.09,0.19,1.00,0.09,0.17,-0.09,
2.709,0.09,0.19,1.00,0.22,0.22,-0.03,
2.711,0.10,0.19,1.00,0.22,0.22,-0.03,
2.714,0.10,0.19,1.00,0.28,0.19,0.09,
2.714,0.10,0.20,1.01,0.28,0.19,0.09,
2.717,0.10,0.19,1.01,0.28,0.19,0.09,
2.719,0.10,0.20,1.02,0.28,0.19,0.09,
2.719,0.10,0.20,1.02,0.32,0.19,0.13,
2.721,0.09,0.20,1.03,0.32,0.19,0.13,
2.724,0.09,0.19,1.03,0.32,0.19,0.13,
2.724,0.09,0.19,1.03,0.30,0.20,0.26,
2.726,0.09,0.20,1.04,0.30,0.20,0.26,
2.73,0.09,0.19,1.04,0.30,0.20,0.26,
2.73,0.09,0.19,1.04,0.23,0.20,0.39,
2.731,0.09,0.20,1.04,0.23,0.20,0.39,
2.734,0.08,0.20,1.03,0.23,0.20,0.39,
2.734,0.08,0.20,1.03,0.22,0.17,0.47,
2.736,0.08,0.19,1.03,0.22,0.17,0.47,
2.739,0.08,0.19,1.03,0.18,0.18,0.43,
2.739,0.07,0.19,1.02,0.18,0.18,0.43,
2.741,0.07,0.19,1.01,0.18,0.18,0.43,
2.745,0.07,0.19,1.00,0.18,0.18,0.43,
2.745,0.07,0.19,1.00,0.05,0.10,0.35,
2.746,0.07,0.19,1.00,0.05,0.10,0.35,
2.749,0.07,0.19,0.98,0.05,0.10,0.35,
2.749,0.07,0.19,0.98,-0.02,0.09,0.17,
2.751,0.06,0.19,0.98,-0.02,0.09,0.17,
2.754,0.06,0.19,0.97,-0.02,0.09,0.17,
2.754,0.06,0.19,0.97,-0.02,0.08,-0.01,
2.756,0.06,0.19,0.95,-0.02,0.08,-0.01,
2.759,0.06,0.19,0.94,-0.02,0.08,-0.01,
2.759,0.06,0.19,0.94,-0.07,0.06,-0.17,
2.762,0.06,0.19,0.95,-0.07,0.06,-0.17,
2.764,0.06,0.19,0.95,-0.08,0.04,-0.42,
2.764,0.06,0.19,0.95,-0.08,0.04,-0.42,
2.766,0.07,0.19,0.95,-0.08,0.04,-0.42,
2.769,0.07,0.20,0.96,-0.08,0.04,-0.42,
2.769,0.07,0.20,0.96,-0.09,0.06,-0.38,
2.771,0.08,0.20,0.97,-0.09,0.06,-0.38,
2.774,0.08,0.20,0.97,-0.09,0.06,-0.38,
2.774,0.08,0.20,0.97,-0.02,0.10,-0.33,
2.776,0.08,0.21,0.98,-0.02,0.10,-0.33,
2.789,0.08,0.21,0.99,-0.02,0.10,-0.33,
2.789,0.08,0.21,0.99,0.03,0.15,-0.16,
2.79,0.08,0.21,1.00,0.03,0.15,-0.16,
2.79,0.08,0.22,1.00,0.03,0.15,-0.16,
2.791,0.08,0.22,1.00,0.05,0.22,-0.02,
2.791,0.08,0.21,1.00,0.05,0.22,-0.02,
2.792,0.08,0.21,1.00,0.04,0.27,0.09,
2.792,0.09,0.21,1.00,0.04,0.27,0.09,
2.793,0.09,0.22,1.00,0.04,0.27,0.09,
2.795,0.10,0.21,1.00,0.04,0.27,0.09,
2.795,0.10,0.21,1.00,0.06,0.25,0.11,
2.8,0.10,0.21,1.00,0.06,0.25,0.11,
2.8,0.13,0.18,0.96,0.06,0.25,0.11,
2.8,0.13,0.18,0.96,0.16,0.22,0.14,
2.801,0.13,0.16,0.83,0.16,0.22,0.14,
2.807,0.16,0.18,0.72,0.16,0.22,0.14,
2.808,0.16,0.18,0.72,0.33,0.06,-0.06,
2.808,0.21,0.21,0.69,0.33,0.06,-0.06,
2.808,0.23,0.21,0.73,0.33,0.06,-0.06,
2.809,0.23,0.21,0.73,0.61,-0.21,-2.05,
2.811,0.22,0.20,0.79,0.61,-0.21,-2.05,
2.815,0.22,0.20,0.79,1.30,0.17,-2.70,
2.815,0.20,0.19,0.86,1.30,0.17,-2.70,
2.816,0.17,0.17,0.92,1.30,0.17,-2.70,
2.818,0.16,0.16,0.97,1.30,0.17,-2.70,
2.818,0.16,0.16,0.97,1.22,0.05,-1.55,
2.821,0.14,0.14,1.02,1.22,0.05,-1.55,
2.824,0.12,0.12,1.05,1.22,0.05,-1.55,
2.824,0.12,0.12,1.05,0.84,-0.22,-0.38,
2.825,0.11,0.12,1.07,0.84,-0.22,-0.38,
2.829,0.09,0.12,1.08,0.84,-0.22,-0.38,
2.829,0.09,0.12,1.08,0.54,-0.49,0.45,
2.838,0.08,0.12,1.10,0.54,-0.49,0.45,
2.838,0.06,0.13,1.10,0.54,-0.49,0.45,
2.839,0.06,0.13,1.10,0.25,-0.58,0.86,
2.839,0.04,0.14,1.12,0.25,-0.58,0.86,
2.839,0.04,0.14,1.12,-0.01,-0.50,1.10,
2.839,0.03,0.16,1.12,-0.01,-0.50,1.10,
2.841,0.01,0.17,1.13,-0.01,-0.50,1.10,
2.844,-0.00,0.19,1.12,-0.01,-0.50,1.10,
2.844,-0.00,0.19,1.12,-0.28,-0.20,1.29,
2.852,-0.01,0.20,1.11,-0.28,-0.20,1.29,
2.852,-0.03,0.21,1.10,-0.28,-0.20,1.29,
2.852,-0.03,0.21,1.10,-0.58,0.11,1.31,
2.852,-0.03,0.22,1.08,-0.58,0.11,1.31,
2.852,-0.04,0.22,1.07,-0.58,0.11,1.31,
2.853,-0.04,0.22,1.07,-0.80,0.38,1.11,
2.856,-0.03,0.22,1.05,-0.80,0.38,1.11,
2.858,-0.02,0.21,1.06,-0.80,0.38,1.11,
2.859,-0.02,0.21,1.06,-0.93,0.51,0.83,
2.861,-0.00,0.21,1.06,-0.93,0.51,0.83,
2.869,-0.00,0.21,1.06,-0.85,0.51,0.63,
2.87,0.01,0.21,1.06,-0.85,0.51,0.63,
2.87,0.02,0.20,1.06,-0.85,0.51,0.63,
2.87,0.03,0.19,1.06,-0.85,0.51,0.63,
2.87,0.03,0.19,1.06,-0.60,0.41,0.66,
2.871,0.05,0.19,1.06,-0.60,0.41,0.66,
2.89,0.05,0.19,1.06,-0.60,0.41,0.66,
2.891,0.05,0.19,1.06,-0.36,0.24,0.70,
2.891,0.06,0.18,1.06,-0.36,0.24,0.70,
2.891,0.07,0.18,1.05,-0.36,0.24,0.70,
2.891,0.07,0.18,1.05,-0.18,0.17,0.66,
2.892,0.08,0.17,1.04,-0.18,0.17,0.66,
2.892,0.09,0.15,1.04,-0.18,0.17,0.66,
2.892,0.09,0.15,1.04,-0.07,0.10,0.63,
2.892,0.10,0.11,1.03,-0.07,0.10,0.63,
2.892,0.10,0.11,1.03,0.06,-0.14,0.51,
2.893,0.10,0.08,1.02,0.06,-0.14,0.51,
2.893,0.10,0.09,1.01,0.06,-0.14,0.51,
2.893,0.10,0.12,0.98,0.06,-0.14,0.51,
2.893,0.10,0.12,0.98,0.19,-0.82,0.36,
2.905,0.10,0.15,0.96,0.19,-0.82,0.36,
2.906,0.09,0.17,0.94,0.19,-0.82,0.36,
2.906,0.09,0.17,0.94,0.15,-0.75,0.07,
2.906,0.09,0.19,0.92,0.15,-0.75,0.07,
2.906,0.09,0.20,0.91,0.15,-0.75,0.07,
2.907,0.09,0.20,0.91,0.05,-0.25,-0.36,
2.907,0.09,0.22,0.90,0.05,-0.25,-0.36,
2.907,0.09,0.22,0.90,-0.02,0.07,-0.67,
2.907,0.11,0.23,0.91,-0.02,0.07,-0.67,
2.91,0.12,0.23,0.91,-0.02,0.07,-0.67,
2.922,0.12,0.23,0.91,0.09,0.32,-0.78,
2.923,0.12,0.23,0.91,0.09,0.32,-0.78,
2.923,0.13,0.23,0.91,0.09,0.32,-0.78,
2.923,0.14,0.23,0.92,0.09,0.32,-0.78,
2.924,0.14,0.23,0.92,0.26,0.40,-0.68,
2.924,0.15,0.22,0.93,0.26,0.40,-0.68,
2.924,0.16,0.22,0.94,0.26,0.40,-0.68,
2.924,0.16,0.22,0.94,0.36,0.41,-0.67,
2.924,0.16,0.21,0.94,0.36,0.41,-0.67,
