
time,gFx,gFy,gFz,ax,ay,az,
0.005,0.06,0.06,0.98,-0.98,-0.33,-0.12,
0.005,0.05,0.05,0.98,-0.98,-0.33,-0.12,
0.006,0.06,0.05,0.98,-0.98,-0.33,-0.12,
0.006,0.05,0.05,0.98,-0.98,-0.33,-0.12,
0.006,0.05,0.05,0.98,-0.97,-0.44,-0.03,
0.006,0.05,0.05,0.98,-0.97,-0.44,-0.03,
0.007,0.05,0.05,0.99,-0.97,-0.44,-0.03,
0.007,0.05,0.05,0.99,-0.98,-0.54,-0.01,
0.007,0.05,0.05,0.99,-0.98,-0.54,-0.01,
0.011,0.05,0.05,0.99,-0.98,-0.54,-0.01,
0.011,0.05,0.05,0.99,-1.03,-0.55,0.04,
0.012,0.05,0.05,0.99,-1.03,-0.55,0.04,
0.014,0.06,0.05,0.98,-1.03,-0.55,0.04,
0.014,0.06,0.05,0.98,-1.01,-0.53,0.07,
0.02,0.06,0.05,0.98,-1.01,-0.53,0.07,
0.021,0.06,0.05,0.98,-0.94,-0.50,0.03,
0.021,0.06,0.06,0.98,-0.94,-0.50,0.03,
0.021,0.07,0.06,0.98,-0.94,-0.50,0.03,
0.024,0.07,0.06,0.97,-0.94,-0.50,0.03,
0.024,0.07,0.06,0.97,-0.89,-0.43,-0.01,
0.026,0.08,0.07,0.96,-0.89,-0.43,-0.01,
0.029,0.08,0.08,0.95,-0.89,-0.43,-0.01,
0.029,0.08,0.08,0.95,-0.76,-0.35,-0.08,
0.031,0.08,0.08,0.94,-0.76,-0.35,-0.08,
0.042,0.08,0.09,0.94,-0.76,-0.35,-0.08,
0.043,0.08,0.09,0.94,-0.63,-0.21,-0.26,
0.043,0.08,0.09,0.92,-0.63,-0.21,-0.26,
0.043,0.08,0.09,0.92,-0.63,-0.21,-0.26,
0.043,0.08,0.09,0.92,-0.56,-0.09,-0.42,
0.044,0.07,0.09,0.92,-0.56,-0.09,-0.42,
0.044,0.07,0.09,0.92,-0.55,-0.02,-0.58,
0.044,0.07,0.09,0.92,-0.55,-0.02,-0.58,
0.046,0.07,0.09,0.92,-0.55,-0.02,-0.58,
0.066,0.07,0.09,0.91,-0.55,-0.02,-0.58,
0.067,0.07,0.09,0.91,-0.60,0.00,-0.62,
0.067,0.06,0.09,0.92,-0.60,0.00,-0.62,
0.067,0.06,0.09,0.92,-0.60,0.00,-0.62,
0.067,0.06,0.09,0.92,-0.58,0.03,-0.65,
0.068,0.06,0.08,0.92,-0.58,0.03,-0.65,
0.068,0.06,0.08,0.93,-0.58,0.03,-0.65,
0.068,0.06,0.08,0.93,-0.63,0.07,-0.62,
0.069,0.05,0.08,0.94,-0.63,0.07,-0.62,
0.069,0.06,0.07,0.94,-0.63,0.07,-0.62,
0.069,0.06,0.07,0.94,-0.61,0.03,-0.56,
0.069,0.06,0.07,0.94,-0.61,0.03,-0.56,
0.07,0.05,0.07,0.95,-0.61,0.03,-0.56,
0.07,0.05,0.07,0.95,-0.61,0.02,-0.43,
0.07,0.05,0.07,0.96,-0.61,0.02,-0.43,
0.073,0.05,0.07,0.96,-0.57,-0.03,-0.35,
0.074,0.05,0.07,0.97,-0.57,-0.03,-0.35,
0.076,0.05,0.07,0.98,-0.57,-0.03,-0.35,
0.079,0.05,0.07,0.98,-0.57,-0.03,-0.35,
0.079,0.05,0.07,0.98,-0.57,-0.02,-0.16,
0.081,0.05,0.06,1.00,-0.57,-0.02,-0.16,
0.083,0.04,0.07,1.00,-0.57,-0.02,-0.16,
0.084,0.04,0.07,1.00,-0.52,0.00,-0.03,
0.085,0.04,0.06,1.01,-0.52,0.00,-0.03,
0.089,0.04,0.06,1.02,-0.52,0.00,-0.03,
0.089,0.04,0.06,1.02,-0.57,-0.03,0.15,
0.091,0.04,0.06,1.03,-0.57,-0.03,0.15,
0.093,0.04,0.06,1.03,-0.56,0.01,0.29,
0.094,0.04,0.06,1.03,-0.56,0.01,0.29,
0.095,0.04,0.06,1.03,-0.56,0.01,0.29,
0.098,0.05,0.06,1.04,-0.56,0.01,0.29,
0.098,0.05,0.06,1.04,-0.54,0.04,0.41,
0.101,0.05,0.06,1.05,-0.54,0.04,0.41,
0.103,0.05,0.06,1.06,-0.54,0.04,0.41,
0.103,0.05,0.06,1.06,-0.48,0.05,0.51,
0.105,0.05,0.06,1.06,-0.48,0.05,0.51,
0.108,0.05,0.06,1.06,-0.42,0.08,0.62,
0.108,0.06,0.07,1.06,-0.42,0.08,0.62,
0.11,0.06,0.07,1.06,-0.42,0.08,0.62,
0.113,0.07,0.07,1.06,-0.42,0.08,0.62,
0.113,0.07,0.07,1.06,-0.33,0.14,0.67,
0.115,0.08,0.08,1.04,-0.33,0.14,0.67,
0.117,0.08,0.08,1.04,-0.19,0.19,0.67,
0.118,0.08,0.08,1.03,-0.19,0.19,0.67,
0.12,0.07,0.08,1.02,-0.19,0.19,0.67,
0.123,0.06,0.07,1.00,-0.19,0.19,0.67,
0.123,0.06,0.07,1.00,-0.09,0.28,0.45,
0.125,0.04,0.07,0.97,-0.09,0.28,0.45,
0.128,0.04,0.07,0.97,-0.19,0.29,0.19,
0.128,0.02,0.07,0.95,-0.19,0.29,0.19,
0.13,0.01,0.06,0.93,-0.19,0.29,0.19,
0.132,-0.01,0.05,0.91,-0.19,0.29,0.19,
0.133,-0.01,0.05,0.91,-0.46,0.19,-0.31,
0.135,-0.02,0.05,0.90,-0.46,0.19,-0.31,
0.137,-0.03,0.04,0.89,-0.46,0.19,-0.31,
0.137,-0.03,0.04,0.89,-0.76,0.07,-0.69,
0.139,-0.02,0.05,0.88,-0.76,0.07,-0.69,
0.143,-0.02,0.05,0.88,-0.94,-0.02,-0.92,
0.143,-0.01,0.05,0.88,-0.94,-0.02,-0.92,
0.144,-0.02,0.04,0.87,-0.94,-0.02,-0.92,
0.148,-0.02,0.03,0.88,-0.94,-0.02,-0.92,
0.148,-0.02,0.03,0.88,-0.89,0.06,-1.08,
0.15,-0.03,0.02,0.89,-0.89,0.06,-1.08,
0.152,-0.03,0.01,0.89,-0.89,0.06,-1.08,
0.153,-0.03,0.01,0.89,-0.89,-0.05,-1.09,
0.155,-0.02,-0.00,0.90,-0.89,-0.05,-1.09,
0.158,-0.03,-0.01,0.91,-0.89,-0.05,-1.09,
0.16,-0.03,-0.01,0.91,-0.96,-0.27,-0.94,
0.16,-0.03,-0.02,0.92,-0.96,-0.27,-0.94,
0.162,-0.03,-0.02,0.94,-0.96,-0.27,-0.94,
0.162,-0.03,-0.02,0.94,-0.90,-0.47,-0.79,
0.165,-0.03,-0.03,0.95,-0.90,-0.47,-0.79,
0.167,-0.03,-0.03,0.95,-0.94,-0.57,-0.59,
0.168,-0.03,-0.04,0.97,-0.94,-0.57,-0.59,
0.169,-0.03,-0.04,0.98,-0.94,-0.57,-0.59,
0.172,-0.03,-0.04,0.99,-0.94,-0.57,-0.59,
0.172,-0.03,-0.04,0.99,-0.94,-0.67,-0.30,
0.175,-0.03,-0.04,0.99,-0.94,-0.67,-0.30,
0.177,-0.02,-0.03,1.00,-0.94,-0.67,-0.30,
0.178,-0.02,-0.03,1.00,-0.91,-0.68,-0.05,
0.179,-0.01,-0.03,1.00,-0.91,-0.68,-0.05,
0.183,-0.01,-0.02,1.00,-0.91,-0.68,-0.05,
0.184,-0.01,-0.02,1.00,-0.85,-0.65,0.06,
0.184,0.08,0.02,0.94,-0.85,-0.65,0.06,
0.187,0.15,0.06,0.88,-0.85,-0.65,0.06,
0.187,0.15,0.06,0.88,-0.72,-0.55,0.13,
0.189,0.12,0.05,0.91,-0.72,-0.55,0.13,
0.192,0.12,0.05,0.91,0.49,0.11,-0.74,
0.192,0.11,0.07,0.92,0.49,0.11,-0.74,
0.194,0.12,0.08,0.91,0.49,0.11,-0.74,
0.197,0.12,0.09,0.91,0.49,0.11,-0.74,
0.197,0.12,0.09,0.91,0.55,0.31,-0.72,
0.198,0.11,0.10,0.92,0.55,0.31,-0.72,
0.203,0.10,0.11,0.94,0.55,0.31,-0.72,
0.203,0.10,0.11,0.94,0.60,0.60,-0.72,
0.204,0.08,0.11,0.95,0.60,0.60,-0.72,
0.207,0.07,0.11,0.97,0.60,0.60,-0.72,
0.207,0.07,0.11,0.97,0.42,0.78,-0.54,
0.21,0.07,0.11,0.99,0.42,0.78,-0.54,
0.212,0.07,0.11,1.01,0.42,0.78,-0.54,
0.212,0.07,0.11,1.01,0.17,0.86,-0.26,
0.214,0.06,0.10,1.04,0.17,0.86,-0.26,
0.217,0.06,0.10,1.04,0.04,0.88,0.14,
0.218,0.05,0.10,1.06,0.04,0.88,0.14,
0.219,0.05,0.09,1.08,0.04,0.88,0.14,
0.222,0.05,0.09,1.11,0.04,0.88,0.14,
0.222,0.05,0.09,1.11,-0.05,0.77,0.58,
0.224,0.04,0.08,1.13,-0.05,0.77,0.58,
0.227,0.04,0.08,1.13,-0.14,0.70,1.05,
0.227,0.04,0.07,1.14,-0.14,0.70,1.05,
0.229,0.04,0.06,1.16,-0.14,0.70,1.05,
0.232,0.03,0.05,1.18,-0.14,0.70,1.05,
0.232,0.03,0.05,1.18,-0.22,0.55,1.41,
0.234,0.03,0.04,1.19,-0.22,0.55,1.41,
0.236,0.02,0.03,1.20,-0.22,0.55,1.41,
0.237,0.02,0.03,1.20,-0.32,0.38,1.76,
0.239,0.02,0.02,1.21,-0.32,0.38,1.76,
0.241,0.02,0.02,1.21,-0.41,0.18,2.02,
0.241,0.01,0.01,1.22,-0.41,0.18,2.02,
0.243,-0.00,-0.00,1.22,-0.41,0.18,2.02,
0.246,-0.00,-0.00,1.22,-0.54,0.03,2.15,
0.247,-0.00,-0.01,1.22,-0.54,0.03,2.15,
0.249,-0.01,-0.02,1.23,-0.54,0.03,2.15,
0.251,-0.01,-0.02,1.22,-0.54,0.03,2.15,
0.252,-0.01,-0.02,1.22,-0.65,-0.16,2.24,
0.253,-0.02,-0.03,1.21,-0.65,-0.16,2.24,
0.256,-0.03,-0.04,1.19,-0.65,-0.16,2.24,
0.256,-0.03,-0.04,1.19,-0.76,-0.31,2.25,
0.258,-0.03,-0.04,1.17,-0.76,-0.31,2.25,
0.261,-0.03,-0.03,1.15,-0.76,-0.31,2.25,
0.261,-0.03,-0.03,1.15,-0.86,-0.43,2.03,
0.263,-0.03,-0.03,1.12,-0.86,-0.43,2.03,
0.266,-0.03,-0.03,1.12,-0.94,-0.47,1.59,
0.266,-0.03,-0.03,1.09,-0.94,-0.47,1.59,
0.268,-0.03,-0.02,1.07,-0.94,-0.47,1.59,
0.271,-0.03,-0.02,1.05,-0.94,-0.47,1.59,
0.272,-0.03,-0.02,1.05,-0.94,-0.42,1.05,
0.273,-0.04,-0.02,1.05,-0.94,-0.42,1.05,
0.277,-0.03,-0.02,1.05,-0.94,-0.42,1.05,
0.277,-0.03,-0.02,1.05,-0.94,-0.31,0.65,
0.279,-0.03,-0.01,1.04,-0.94,-0.31,0.65,
0.281,-0.03,-0.01,1.04,-0.94,-0.31,0.65,
0.281,-0.03,-0.01,1.04,-0.96,-0.31,0.52,
0.284,-0.02,-0.02,1.04,-0.96,-0.31,0.52,
0.286,-0.02,-0.02,1.04,-0.96,-0.31,0.52,
0.286,-0.02,-0.02,1.04,-0.91,-0.26,0.44,
0.29,-0.02,-0.03,1.03,-0.91,-0.26,0.44,
0.291,-0.02,-0.03,1.03,-0.82,-0.35,0.41,
0.291,-0.01,-0.03,1.04,-0.82,-0.35,0.41,
0.293,-0.01,-0.04,1.04,-0.82,-0.35,0.41,
0.296,-0.01,-0.05,1.04,-0.82,-0.35,0.41,
0.296,-0.01,-0.05,1.04,-0.76,-0.45,0.38,
0.298,-0.01,-0.05,1.03,-0.76,-0.45,0.38,
0.301,-0.01,-0.06,1.03,-0.76,-0.45,0.38,
0.301,-0.01,-0.06,1.03,-0.69,-0.58,0.42,
0.304,-0.01,-0.06,1.03,-0.69,-0.58,0.42,
0.306,-0.01,-0.06,1.02,-0.69,-0.58,0.42,
0.306,-0.01,-0.06,1.02,-0.68,-0.68,0.33,
0.308,-0.01,-0.06,1.03,-0.68,-0.68,0.33,
0.311,-0.01,-0.05,1.02,-0.68,-0.68,0.33,
0.311,-0.01,-0.05,1.02,-0.66,-0.70,0.27,
0.313,-0.01,-0.05,1.02,-0.66,-0.70,0.27,
0.317,-0.01,-0.05,1.02,-0.66,-0.70,0.24,
0.317,-0.01,-0.05,1.01,-0.66,-0.70,0.24,
0.317,-0.01,-0.05,1.01,-0.66,-0.70,0.24,
0.32,-0.02,-0.05,1.01,-0.66,-0.70,0.24,
0.321,-0.02,-0.05,1.01,-0.72,-0.65,0.17,
0.323,-0.02,-0.05,1.00,-0.72,-0.65,0.17,
0.326,-0.02,-0.05,1.00,-0.71,-0.61,0.13,
0.327,-0.02,-0.04,1.00,-0.71,-0.61,0.13,
0.328,-0.02,-0.04,0.99,-0.71,-0.61,0.13,
0.331,-0.03,-0.04,0.99,-0.71,-0.61,0.13,
0.331,-0.03,-0.04,0.99,-0.76,-0.58,0.04,
0.335,-0.03,-0.04,0.99,-0.76,-0.58,0.04,
0.335,-0.03,-0.03,0.99,-0.76,-0.58,0.04,
0.335,-0.03,-0.03,0.99,-0.78,-0.54,-0.04,
0.337,-0.03,-0.03,0.98,-0.78,-0.54,-0.04,
0.34,-0.03,-0.03,0.98,-0.80,-0.52,-0.11,
0.34,-0.02,-0.03,0.98,-0.80,-0.52,-0.11,
0.343,-0.02,-0.03,0.99,-0.80,-0.52,-0.11,
0.346,-0.02,-0.02,0.98,-0.80,-0.52,-0.11,
0.347,-0.02,-0.02,0.98,-0.77,-0.47,-0.15,
0.347,-0.01,-0.02,0.98,-0.77,-0.47,-0.15,
0.35,-0.01,-0.02,0.98,-0.77,-0.47,-0.15,
0.35,-0.01,-0.02,0.98,-0.69,-0.45,-0.14,
0.353,-0.01,-0.02,0.98,-0.69,-0.45,-0.14,
0.355,0.00,-0.01,0.99,-0.69,-0.45,-0.14,
0.355,0.00,-0.01,0.99,-0.61,-0.40,-0.17,
0.358,0.01,-0.01,1.00,-0.61,-0.40,-0.17,
0.361,0.01,-0.01,1.00,-0.61,-0.40,-0.17,
0.361,0.01,-0.01,1.00,-0.52,-0.34,-0.13,
0.363,0.01,-0.00,1.01,-0.52,-0.34,-0.13,
0.366,0.01,-0.00,1.01,-0.42,-0.28,0.01,
0.366,0.01,-0.00,1.01,-0.42,-0.28,0.01,
0.372,0.02,0.00,1.01,-0.42,-0.28,0.01,
0.372,0.01,0.00,1.03,-0.42,-0.28,0.01,
0.372,0.01,0.00,1.03,-0.38,-0.22,0.11,
0.372,0.01,0.00,1.03,-0.38,-0.22,0.11,
0.376,0.01,0.00,1.03,-0.38,-0.22,0.11,
0.376,0.01,0.00,1.03,-0.35,-0.20,0.21,
0.378,0.01,0.01,1.03,-0.35,-0.20,0.21,
0.381,0.02,-0.00,1.03,-0.35,-0.20,0.21,
0.381,0.02,-0.00,1.03,-0.36,-0.21,0.30,
0.383,0.01,0.00,1.04,-0.36,-0.21,0.30,
0.385,0.01,-0.01,1.04,-0.36,-0.21,0.30,
0.386,0.01,-0.01,1.04,-0.34,-0.20,0.35,
0.387,0.01,-0.01,1.04,-0.34,-0.20,0.35,
0.39,0.01,-0.01,1.04,-0.35,-0.25,0.37,
0.39,0.01,-0.01,1.04,-0.35,-0.25,0.37,
0.393,0.01,-0.01,1.04,-0.35,-0.25,0.37,
0.395,0.01,-0.01,1.04,-0.35,-0.25,0.37,
0.395,0.01,-0.01,1.04,-0.36,-0.29,0.38,
0.397,0.01,-0.01,1.03,-0.36,-0.29,0.38,
0.402,0.01,-0.01,1.03,-0.37,-0.31,0.43,
0.402,0.01,-0.00,1.03,-0.37,-0.31,0.43,
0.403,0.00,-0.01,1.04,-0.37,-0.31,0.43,
0.405,0.00,-0.01,1.03,-0.37,-0.31,0.43,
0.406,0.00,-0.01,1.03,-0.36,-0.29,0.34,
0.407,0.00,-0.01,1.03,-0.36,-0.29,0.34,
0.41,0.00,-0.01,1.02,-0.36,-0.29,0.34,
0.41,0.00,-0.01,1.02,-0.41,-0.29,0.34,
0.412,-0.01,-0.01,1.02,-0.41,-0.29,0.34,
0.414,-0.00,-0.00,1.02,-0.41,-0.29,0.34,
0.415,-0.00,-0.00,1.02,-0.41,-0.32,0.24,
0.418,-0.01,-0.00,1.01,-0.41,-0.32,0.24,
0.42,-0.01,-0.00,1.02,-0.41,-0.32,0.24,
0.421,-0.01,-0.00,1.02,-0.46,-0.29,0.17,
0.423,-0.01,-0.00,1.01,-0.46,-0.29,0.17,
0.425,-0.01,-0.00,1.01,-0.46,-0.29,0.17,
0.425,-0.01,-0.00,1.01,-0.50,-0.27,0.16,
0.427,-0.02,-0.00,1.01,-0.50,-0.27,0.16,
0.43,-0.02,0.00,1.01,-0.50,-0.27,0.16,
0.43,-0.02,0.00,1.01,-0.52,-0.26,0.10,
0.432,-0.01,0.01,1.01,-0.52,-0.26,0.10,
0.434,-0.01,0.00,1.00,-0.52,-0.26,0.10,
0.435,-0.01,0.00,1.00,-0.53,-0.25,0.11,
0.437,-0.01,0.01,1.00,-0.53,-0.25,0.11,
0.44,-0.01,0.01,1.00,-0.53,-0.25,0.11,
0.44,-0.01,0.01,1.00,-0.49,-0.21,0.05,
0.442,-0.01,0.01,0.99,-0.49,-0.21,0.05,
0.444,-0.01,0.01,0.99,-0.49,-0.21,0.05,
0.444,-0.01,0.01,0.99,-0.44,-0.16,-0.03,
0.447,-0.00,0.01,0.99,-0.44,-0.16,-0.03,
0.45,0.00,0.02,0.99,-0.44,-0.16,-0.03,
0.45,0.00,0.02,0.99,-0.43,-0.16,-0.09,
0.453,0.00,0.02,0.99,-0.43,-0.16,-0.09,
0.455,0.01,0.02,0.98,-0.43,-0.16,-0.09,
0.455,0.01,0.02,0.98,-0.34,-0.10,-0.11,
0.457,0.01,0.01,0.98,-0.34,-0.10,-0.11,
0.459,0.01,0.02,0.98,-0.34,-0.10,-0.11,
0.459,0.01,0.02,0.98,-0.26,-0.10,-0.14,
0.462,0.02,0.02,0.97,-0.26,-0.10,-0.14,
0.464,0.02,0.02,0.97,-0.26,-0.10,-0.14,
0.465,0.02,0.02,0.97,-0.18,-0.12,-0.21,
0.473,0.02,0.02,0.97,-0.18,-0.12,-0.21,
0.473,0.02,0.02,0.96,-0.18,-0.12,-0.21,
0.474,0.02,0.02,0.96,-0.13,-0.09,-0.28,
0.474,0.03,0.02,0.96,-0.13,-0.09,-0.28,
0.474,0.03,0.02,0.96,-0.13,-0.09,-0.28,
0.474,0.03,0.02,0.96,-0.09,-0.07,-0.36,
0.476,0.03,0.02,0.97,-0.09,-0.07,-0.36,
0.479,0.03,0.02,0.97,-0.09,-0.07,-0.36,
0.479,0.03,0.02,0.97,-0.03,-0.06,-0.35,
0.481,0.03,0.03,0.97,-0.03,-0.06,-0.35,
0.485,0.04,0.02,0.97,-0.03,-0.06,-0.35,
0.486,0.04,0.02,0.97,-0.00,-0.05,-0.31,
0.486,0.04,0.03,0.96,-0.00,-0.05,-0.31,
0.489,0.04,0.02,0.96,-0.00,-0.05,-0.31,
0.489,0.04,0.02,0.96,0.06,-0.04,-0.30,
0.491,0.04,0.02,0.96,0.06,-0.04,-0.30,
0.495,0.05,0.02,0.96,0.06,-0.04,-0.30,
0.495,0.05,0.02,0.96,0.09,-0.04,-0.38,
0.497,0.05,0.02,0.96,0.09,-0.04,-0.38,
0.501,0.06,0.02,0.96,0.09,-0.04,-0.38,
0.501,0.06,0.02,0.96,0.19,-0.08,-0.38,
0.501,0.06,0.02,0.95,0.19,-0.08,-0.38,
0.504,0.06,0.02,0.95,0.19,-0.08,-0.38,
0.505,0.06,0.02,0.95,0.27,-0.11,-0.41,
0.507,0.06,0.02,0.94,0.27,-0.11,-0.41,
0.509,0.06,0.02,0.93,0.27,-0.11,-0.41,
0.509,0.06,0.02,0.93,0.34,-0.14,-0.47,
0.511,0.06,0.02,0.93,0.34,-0.14,-0.47,
0.514,0.07,0.02,0.93,0.34,-0.14,-0.47,
0.515,0.07,0.02,0.93,0.37,-0.14,-0.61,
0.517,0.07,0.01,0.92,0.37,-0.14,-0.61,
0.519,0.07,0.02,0.92,0.37,-0.14,-0.61,
0.519,0.07,0.02,0.92,0.43,-0.16,-0.68,
0.521,0.07,0.02,0.91,0.43,-0.16,-0.68,
0.524,0.07,0.02,0.91,0.43,-0.16,-0.68,
0.524,0.07,0.02,0.91,0.47,-0.18,-0.78,
0.526,0.07,0.02,0.90,0.47,-0.18,-0.78,
0.529,0.08,0.02,0.90,0.47,-0.18,-0.78,
0.529,0.08,0.02,0.90,0.51,-0.16,-0.84,
0.531,0.08,0.02,0.91,0.51,-0.16,-0.84,
0.533,0.08,0.02,0.90,0.51,-0.16,-0.84,
0.534,0.08,0.02,0.90,0.57,-0.14,-0.93,
0.536,0.09,0.03,0.91,0.57,-0.14,-0.93,
0.539,0.09,0.03,0.91,0.57,-0.14,-0.93,
0.539,0.09,0.03,0.91,0.61,-0.15,-0.89,
0.541,0.09,0.03,0.91,0.61,-0.15,-0.89,
0.544,0.09,0.03,0.92,0.61,-0.15,-0.89,
0.545,0.09,0.03,0.92,0.71,-0.07,-0.86,
0.546,0.09,0.04,0.92,0.71,-0.07,-0.86,
0.549,0.09,0.04,0.92,0.70,-0.05,-0.78,
0.55,0.09,0.04,0.92,0.70,-0.05,-0.78,
0.552,0.09,0.04,0.92,0.70,-0.05,-0.78,
0.555,0.09,0.04,0.93,0.70,-0.05,-0.78,
0.555,0.09,0.04,0.93,0.73,-0.00,-0.72,
0.555,0.09,0.04,0.93,0.73,-0.00,-0.72,
0.559,0.09,0.04,0.94,0.73,-0.00,-0.72,
0.559,0.09,0.04,0.94,0.74,0.03,-0.67,
0.561,0.09,0.04,0.94,0.74,0.03,-0.67,
0.564,0.09,0.04,0.93,0.74,0.03,-0.67,
0.564,0.09,0.04,0.93,0.70,0.06,-0.60,
0.566,0.09,0.04,0.94,0.70,0.06,-0.60,
0.574,0.09,0.04,0.94,0.70,0.06,-0.60,
0.575,0.09,0.04,0.94,0.70,0.05,-0.59,
0.575,0.09,0.04,0.94,0.70,0.05,-0.59,
0.575,0.09,0.04,0.94,0.70,0.05,-0.59,
0.575,0.09,0.04,0.94,0.72,0.03,-0.55,
0.576,0.09,0.05,0.95,0.72,0.03,-0.55,
0.579,0.09,0.05,0.94,0.72,0.03,-0.55,
0.579,0.09,0.05,0.94,0.73,0.04,-0.51,
0.58,0.09,0.05,0.95,0.73,0.04,-0.51,
0.583,0.08,0.06,0.95,0.73,0.04,-0.51,
0.583,0.08,0.06,0.95,0.70,0.07,-0.49,
0.585,0.08,0.06,0.96,0.70,0.07,-0.49,
0.588,0.08,0.06,0.96,0.70,0.07,-0.49,
0.588,0.08,0.06,0.96,0.66,0.14,-0.41,
0.59,0.07,0.06,0.97,0.66,0.14,-0.41,
0.593,0.07,0.07,0.98,0.66,0.14,-0.41,
0.593,0.07,0.07,0.98,0.60,0.19,-0.30,
0.595,0.07,0.07,0.98,0.60,0.19,-0.30,
0.597,0.06,0.07,0.99,0.60,0.19,-0.30,
0.598,0.06,0.07,0.99,0.52,0.24,-0.20,
0.6,0.06,0.07,0.99,0.52,0.24,-0.20,
0.602,0.05,0.07,1.00,0.52,0.24,-0.20,
0.603,0.05,0.07,1.00,0.46,0.26,-0.09,
0.604,0.05,0.07,1.00,0.46,0.26,-0.09,
0.607,0.04,0.07,1.01,0.46,0.26,-0.09,
0.608,0.04,0.07,1.01,0.38,0.30,-0.03,
0.609,0.04,0.07,1.02,0.38,0.30,-0.03,
0.612,0.04,0.07,1.01,0.38,0.30,-0.03,
0.613,0.04,0.07,1.01,0.29,0.32,0.13,
0.614,0.04,0.07,1.01,0.29,0.32,0.13,
0.619,0.04,0.07,1.01,0.26,0.30,0.21,
0.619,0.04,0.06,1.02,0.26,0.30,0.21,
0.62,0.03,0.07,1.03,0.26,0.30,0.21,
0.622,0.04,0.06,1.03,0.26,0.30,0.21,
0.623,0.04,0.06,1.03,0.22,0.26,0.23,
0.625,0.04,0.06,1.03,0.22,0.26,0.23,
0.627,0.04,0.06,1.03,0.22,0.26,0.23,
0.628,0.04,0.06,1.03,0.18,0.23,0.32,
0.63,0.03,0.05,1.03,0.18,0.23,0.32,
0.632,0.03,0.05,1.03,0.18,0.23,0.32,
0.633,0.03,0.05,1.03,0.21,0.20,0.35,
0.636,0.03,0.04,1.03,0.21,0.20,0.35,
0.637,0.03,0.04,1.03,0.21,0.20,0.35,
0.638,0.03,0.04,1.03,0.15,0.13,0.34,
0.639,0.03,0.04,1.03,0.15,0.13,0.34,
0.642,0.03,0.04,1.03,0.15,0.13,0.34,
0.643,0.03,0.04,1.03,0.16,0.05,0.31,
0.645,0.03,0.04,1.03,0.16,0.05,0.31,
0.647,0.03,0.04,1.03,0.15,0.03,0.34,
0.648,0.02,0.04,1.02,0.15,0.03,0.34,
0.649,0.03,0.04,1.01,0.15,0.03,0.34,
0.653,0.03,0.04,1.01,0.15,0.03,0.34,
0.659,0.03,0.04,1.01,0.13,0.01,0.27,
0.66,0.03,0.04,1.01,0.13,0.01,0.27,
0.661,0.03,0.04,1.00,0.13,0.01,0.27,
0.662,0.03,0.04,1.00,0.16,0.01,0.15,
0.662,0.03,0.04,0.99,0.16,0.01,0.15,
0.663,0.03,0.05,0.99,0.16,0.01,0.15,
0.664,0.03,0.05,0.99,0.17,0.02,0.07,
0.665,0.03,0.04,0.99,0.17,0.02,0.07,
0.667,0.03,0.04,0.99,0.17,0.02,0.07,
0.668,0.03,0.04,0.99,0.17,0.06,-0.02,
0.67,0.04,0.05,0.99,0.17,0.06,-0.02,
0.674,0.04,0.06,0.99,0.17,0.06,-0.02,
0.674,0.04,0.06,0.99,0.23,0.05,-0.01,
0.674,0.04,0.06,1.00,0.23,0.05,-0.01,
0.677,0.05,0.07,1.01,0.23,0.05,-0.01,
0.678,0.05,0.07,1.01,0.33,0.19,-0.04,
0.68,0.05,0.07,1.02,0.33,0.19,-0.04,
0.682,0.05,0.08,1.02,0.33,0.19,-0.04,
0.682,0.05,0.08,1.02,0.36,0.28,0.06,
0.685,0.06,0.08,1.03,0.36,0.28,0.06,
0.69,0.06,0.08,1.03,0.36,0.28,0.06,
0.691,0.06,0.08,1.03,0.44,0.37,0.20,
0.691,0.06,0.08,1.04,0.44,0.37,0.20,
0.692,0.07,0.09,1.04,0.44,0.37,0.20,
0.692,0.07,0.09,1.04,0.50,0.43,0.32,
0.694,0.07,0.08,1.05,0.50,0.43,0.32,
0.697,0.07,0.08,1.05,0.50,0.43,0.32,
0.697,0.07,0.08,1.05,0.57,0.44,0.43,
0.7,0.07,0.08,1.06,0.57,0.44,0.43,
0.703,0.07,0.08,1.06,0.57,0.44,0.43,
0.704,0.07,0.08,1.06,0.59,0.42,0.56,
0.704,0.07,0.08,1.06,0.59,0.42,0.56,
0.707,0.08,0.07,1.06,0.59,0.42,0.56,
0.707,0.08,0.07,1.06,0.61,0.36,0.63,
0.711,0.08,0.07,1.06,0.61,0.36,0.63,
0.713,0.08,0.07,1.07,0.61,0.36,0.63,
0.713,0.08,0.07,1.07,0.67,0.32,0.64,
0.715,0.08,0.06,1.06,0.67,0.32,0.64,
0.717,0.08,0.06,1.06,0.68,0.22,0.67,
0.718,0.07,0.06,1.06,0.68,0.22,0.67,
0.721,0.07,0.06,1.05,0.68,0.22,0.67,
0.723,0.07,0.06,1.05,0.68,0.22,0.67,
0.723,0.07,0.06,1.05,0.66,0.17,0.62,
0.724,0.07,0.06,1.04,0.66,0.17,0.62,
0.727,0.07,0.06,1.04,0.66,0.17,0.62,
0.727,0.07,0.06,1.04,0.62,0.15,0.51,
0.729,0.07,0.06,1.02,0.62,0.15,0.51,
0.732,0.06,0.06,1.02,0.62,0.15,0.51,
0.732,0.06,0.06,1.02,0.60,0.10,0.43,
0.734,0.06,0.06,1.01,0.60,0.10,0.43,
0.737,0.06,0.06,1.00,0.60,0.10,0.43,
0.738,0.06,0.06,1.00,0.55,0.09,0.25,
0.74,0.06,0.06,0.99,0.55,0.09,0.25,
0.742,0.06,0.06,0.98,0.55,0.09,0.25,
0.742,0.06,0.06,0.98,0.52,0.06,0.09,
0.744,0.05,0.06,0.97,0.52,0.06,0.09,
0.747,0.05,0.05,0.96,0.52,0.06,0.09,
0.747,0.05,0.05,0.96,0.49,0.07,-0.13,
0.749,0.04,0.05,0.95,0.49,0.07,-0.13,
0.752,0.04,0.05,0.95,0.43,-0.02,-0.29,
0.752,0.04,0.05,0.94,0.43,-0.02,-0.29,
0.755,0.04,0.05,0.93,0.43,-0.02,-0.29,
0.756,0.04,0.05,0.92,0.43,-0.02,-0.29,
0.757,0.04,0.05,0.92,0.36,-0.04,-0.49,
0.759,0.04,0.05,0.92,0.36,-0.04,-0.49,
0.762,0.03,0.05,0.92,0.36,-0.04,-0.49,
0.762,0.03,0.05,0.92,0.35,-0.09,-0.70,
0.765,0.03,0.04,0.91,0.35,-0.09,-0.70,
0.767,0.03,0.04,0.91,0.31,-0.13,-0.76,
0.767,0.03,0.04,0.91,0.31,-0.13,-0.76,
0.769,0.03,0.04,0.91,0.31,-0.13,-0.76,
0.773,0.03,0.04,0.91,0.31,-0.13,-0.76,
0.773,0.03,0.04,0.91,0.31,-0.18,-0.81,
0.774,0.03,0.04,0.91,0.31,-0.18,-0.81,
0.777,0.03,0.04,0.91,0.32,-0.19,-0.81,
0.777,0.03,0.05,0.91,0.32,-0.19,-0.81,
0.779,0.02,0.05,0.92,0.32,-0.19,-0.81,
0.782,0.03,0.05,0.92,0.32,-0.19,-0.81,
0.782,0.03,0.05,0.92,0.30,-0.19,-0.81,
0.784,0.03,0.05,0.92,0.30,-0.19,-0.81,
0.791,0.03,0.05,0.93,0.30,-0.19,-0.81,
0.791,0.03,0.05,0.93,0.25,-0.14,-0.74,
0.792,0.03,0.04,0.93,0.25,-0.14,-0.74,
0.792,0.03,0.05,0.94,0.25,-0.14,-0.74,
0.792,0.03,0.05,0.94,0.26,-0.15,-0.65,
0.793,0.04,0.04,0.94,0.26,-0.15,-0.65,
0.796,0.04,0.04,0.95,0.26,-0.15,-0.65,
0.797,0.04,0.04,0.95,0.30,-0.19,-0.56,
0.798,0.04,0.04,0.95,0.30,-0.19,-0.56,
0.801,0.04,0.04,0.95,0.35,-0.22,-0.45,
0.802,0.04,0.04,0.95,0.35,-0.22,-0.45,
0.804,0.04,0.03,0.95,0.35,-0.22,-0.45,
0.806,0.05,0.03,0.95,0.35,-0.22,-0.45,
0.807,0.05,0.03,0.95,0.39,-0.26,-0.38,
0.808,0.05,0.03,0.95,0.39,-0.26,-0.38,
0.812,0.05,0.03,0.95,0.39,-0.26,-0.38,
0.812,0.05,0.03,0.95,0.44,-0.30,-0.36,
0.814,0.06,0.03,0.95,0.44,-0.30,-0.36,
0.816,0.06,0.02,0.95,0.44,-0.30,-0.36,
0.817,0.06,0.02,0.95,0.46,-0.36,-0.35,
0.82,0.07,0.02,0.95,0.46,-0.36,-0.35,
0.823,0.07,0.03,0.95,0.46,-0.36,-0.35,
0.824,0.07,0.03,0.95,0.55,-0.35,-0.36,
0.824,0.06,0.03,0.94,0.55,-0.35,-0.36,
0.825,0.06,0.03,0.94,0.62,-0.36,-0.39,
0.826,0.06,0.03,0.94,0.62,-0.36,-0.39,
0.827,0.07,0.03,0.94,0.62,-0.36,-0.39,
0.83,0.07,0.03,0.93,0.62,-0.36,-0.39,
0.83,0.07,0.03,0.93,0.59,-0.33,-0.49,
0.832,0.06,0.03,0.93,0.59,-0.33,-0.49,
0.836,0.06,0.03,0.92,0.59,-0.33,-0.49,
0.837,0.06,0.03,0.92,0.63,-0.30,-0.51,
0.837,0.06,0.03,0.93,0.63,-0.30,-0.51,
0.84,0.06,0.03,0.91,0.63,-0.30,-0.51,
0.84,0.06,0.03,0.91,0.61,-0.33,-0.60,
0.843,0.06,0.03,0.91,0.61,-0.33,-0.60,
0.845,0.06,0.03,0.91,0.61,-0.33,-0.60,
0.845,0.06,0.03,0.91,0.60,-0.33,-0.66,
0.847,0.06,0.03,0.91,0.60,-0.33,-0.66,
0.85,0.06,0.03,0.91,0.60,-0.32,-0.73,
0.85,0.06,0.03,0.90,0.60,-0.32,-0.73,
0.852,0.05,0.03,0.91,0.60,-0.32,-0.73,
0.855,0.05,0.03,0.91,0.60,-0.32,-0.73,
0.855,0.05,0.03,0.91,0.56,-0.33,-0.78,
0.857,0.05,0.03,0.91,0.56,-0.33,-0.78,
0.86,0.04,0.03,0.90,0.56,-0.33,-0.78,
0.86,0.04,0.03,0.90,0.51,-0.36,-0.75,
0.862,0.04,0.02,0.90,0.51,-0.36,-0.75,
0.865,0.04,0.02,0.90,0.51,-0.36,-0.75,
0.865,0.04,0.02,0.90,0.43,-0.35,-0.76,
0.867,0.03,0.02,0.91,0.43,-0.35,-0.76,
0.87,0.03,0.02,0.90,0.43,-0.35,-0.76,
0.87,0.03,0.02,0.90,0.36,-0.37,-0.78,
0.872,0.03,0.02,0.90,0.36,-0.37,-0.78,
0.875,0.03,0.02,0.90,0.31,-0.36,-0.79,
0.875,0.02,0.02,0.90,0.31,-0.36,-0.79,
0.877,0.02,0.02,0.89,0.31,-0.36,-0.79,
0.88,0.02,0.02,0.89,0.31,-0.36,-0.79,
0.88,0.02,0.02,0.89,0.28,-0.42,-0.82,
0.882,0.02,0.02,0.89,0.28,-0.42,-0.82,
0.894,0.03,0.02,0.89,0.28,-0.42,-0.82,
0.895,0.03,0.02,0.89,0.24,-0.43,-0.88,
0.896,0.03,0.03,0.90,0.24,-0.43,-0.88,
0.896,0.03,0.03,0.90,0.24,-0.43,-0.88,
0.896,0.03,0.03,0.90,0.25,-0.44,-0.84,
0.897,0.03,0.03,0.90,0.25,-0.44,-0.84,
0.897,0.03,0.04,0.91,0.25,-0.44,-0.84,
0.898,0.03,0.04,0.91,0.26,-0.33,-0.79,
0.898,0.03,0.04,0.91,0.26,-0.33,-0.79,
0.9,0.03,0.04,0.91,0.32,-0.25,-0.69,
0.9,0.04,0.04,0.93,0.32,-0.25,-0.69,
0.902,0.04,0.04,0.93,0.32,-0.25,-0.69,
0.912,0.05,0.05,0.93,0.32,-0.25,-0.69,
0.912,0.05,0.05,0.93,0.32,-0.21,-0.57,
0.913,0.06,0.05,0.94,0.32,-0.21,-0.57,
0.913,0.07,0.05,0.94,0.32,-0.21,-0.57,
0.913,0.07,0.05,0.94,0.43,-0.14,-0.44,
0.914,0.08,0.05,0.94,0.43,-0.14,-0.44,
0.914,0.09,0.05,0.94,0.43,-0.14,-0.44,
0.915,0.09,0.05,0.94,0.56,-0.10,-0.37,
0.916,0.09,0.04,0.94,0.56,-0.10,-0.37,
0.92,0.10,0.04,0.93,0.56,-0.10,-0.37,
0.92,0.10,0.04,0.93,0.74,-0.12,-0.36,
0.921,0.11,0.04,0.93,0.74,-0.12,-0.36,
0.924,0.11,0.04,0.93,0.89,-0.25,-0.42,
0.924,0.11,0.03,0.93,0.89,-0.25,-0.42,
0.926,0.12,0.03,0.92,0.89,-0.25,-0.42,
0.929,0.12,0.03,0.91,0.89,-0.25,-0.42,
0.929,0.12,0.03,0.91,1.00,-0.29,-0.47,
0.931,0.13,0.03,0.91,1.00,-0.29,-0.47,
0.934,0.13,0.03,0.91,1.00,-0.29,-0.47,
0.934,0.13,0.03,0.91,1.10,-0.34,-0.59,
0.937,0.13,0.03,0.90,1.10,-0.34,-0.59,
0.941,0.13,0.03,0.89,1.10,-0.34,-0.59,
0.941,0.13,0.03,0.89,1.15,-0.38,-0.67,
0.941,0.13,0.03,0.88,1.15,-0.38,-0.67,
0.944,0.13,0.03,0.88,1.15,-0.38,-0.67,
0.944,0.13,0.03,0.88,1.15,-0.35,-0.78,
0.946,0.13,0.04,0.87,1.15,-0.35,-0.78,
0.949,0.13,0.04,0.87,1.14,-0.37,-0.91,
0.949,0.13,0.04,0.87,1.14,-0.37,-0.91,
0.951,0.13,0.04,0.87,1.14,-0.37,-0.91,
0.956,0.12,0.04,0.87,1.14,-0.37,-0.91,
0.956,0.12,0.04,0.87,1.11,-0.29,-1.01,
0.957,0.12,0.04,0.86,1.11,-0.29,-1.01,
0.959,0.12,0.05,0.86,1.11,-0.29,-1.01,
0.959,0.12,0.05,0.86,1.05,-0.28,-1.01,
0.961,0.11,0.04,0.86,1.05,-0.28,-1.01,
0.964,0.10,0.04,0.87,1.05,-0.28,-1.01,
0.964,0.10,0.04,0.87,0.97,-0.25,-1.05,
0.966,0.11,0.04,0.87,0.97,-0.25,-1.05,
0.971,0.10,0.04,0.87,0.97,-0.25,-1.05,
0.972,0.10,0.04,0.87,0.87,-0.24,-1.01,
0.972,0.10,0.04,0.87,0.87,-0.24,-1.01,
0.974,0.10,0.04,0.87,0.85,-0.27,-0.96,
0.974,0.10,0.04,0.87,0.85,-0.27,-0.96,
0.976,0.10,0.04,0.87,0.85,-0.27,-0.96,
0.979,0.10,0.03,0.88,0.85,-0.27,-0.96,
0.98,0.10,0.03,0.88,0.80,-0.25,-0.96,
0.981,0.10,0.04,0.89,0.80,-0.25,-0.96,
0.985,0.10,0.03,0.89,0.80,-0.25,-0.96,
0.986,0.10,0.03,0.89,0.76,-0.32,-0.88,
0.987,0.10,0.02,0.90,0.76,-0.32,-0.88,
0.99,0.10,0.02,0.90,0.76,-0.32,-0.88,
0.991,0.10,0.02,0.90,0.77,-0.30,-0.74,
0.992,0.10,0.02,0.91,0.77,-0.30,-0.74,
0.995,0.10,0.02,0.91,0.77,-0.30,-0.74,
0.996,0.10,0.02,0.91,0.79,-0.41,-0.66,
0.997,0.10,0.02,0.91,0.79,-0.41,-0.66,
0.999,0.10,0.02,0.91,0.78,-0.43,-0.55,
0.999,0.10,0.01,0.91,0.78,-0.43,-0.55,
1.001,0.10,0.01,0.91,0.78,-0.43,-0.55,
1.004,0.11,0.01,0.91,0.78,-0.43,-0.55,
1.004,0.11,0.01,0.91,0.78,-0.46,-0.55,
1.008,0.10,0.01,0.91,0.78,-0.46,-0.55,
1.009,0.10,0.01,0.92,0.78,-0.46,-0.55,
1.01,0.10,0.01,0.92,0.78,-0.48,-0.52,
1.012,0.11,0.00,0.91,0.78,-0.48,-0.52,
1.014,0.11,0.00,0.92,0.78,-0.48,-0.52,
1.014,0.11,0.00,0.92,0.76,-0.51,-0.50,
1.016,0.11,0.00,0.92,0.76,-0.51,-0.50,
1.019,0.12,0.00,0.91,0.76,-0.51,-0.50,
1.019,0.12,0.00,0.91,0.80,-0.53,-0.49,
1.026,0.12,0.00,0.92,0.80,-0.53,-0.49,
1.027,0.12,0.00,0.92,0.83,-0.53,-0.47,
1.027,0.13,0.00,0.92,0.83,-0.53,-0.47,
1.027,0.13,0.01,0.92,0.83,-0.53,-0.47,
1.029,0.14,0.00,0.92,0.83,-0.53,-0.47,
1.029,0.14,0.00,0.92,0.92,-0.52,-0.46,
1.03,0.14,0.01,0.92,0.92,-0.52,-0.46,
1.034,0.15,0.01,0.92,0.92,-0.52,-0.46,
1.035,0.15,0.01,0.92,1.03,-0.49,-0.46,
1.036,0.15,0.01,0.92,1.03,-0.49,-0.46,
1.039,0.16,0.01,0.92,1.03,-0.49,-0.46,
1.039,0.16,0.01,0.92,1.09,-0.45,-0.44,
1.04,0.16,0.01,0.93,1.09,-0.45,-0.44,
1.043,0.17,0.01,0.93,1.09,-0.45,-0.44,
1.044,0.17,0.01,0.93,1.16,-0.43,-0.41,
1.046,0.18,0.02,0.93,1.16,-0.43,-0.41,
1.049,0.18,0.02,0.93,1.25,-0.40,-0.34,
1.049,0.18,0.02,0.93,1.25,-0.40,-0.34,
1.051,0.18,0.03,0.94,1.25,-0.40,-0.34,
1.053,0.19,0.02,0.94,1.25,-0.40,-0.34,
1.053,0.19,0.02,0.94,1.36,-0.33,-0.29,
1.056,0.19,0.02,0.93,1.36,-0.33,-0.29,
1.058,0.19,0.02,0.93,1.39,-0.27,-0.23,
1.058,0.20,0.03,0.93,1.39,-0.27,-0.23,
1.061,0.20,0.03,0.94,1.39,-0.27,-0.23,
1.064,0.20,0.03,0.94,1.39,-0.27,-0.23,
1.064,0.20,0.03,0.94,1.47,-0.26,-0.27,
1.066,0.20,0.02,0.93,1.47,-0.26,-0.27,
1.069,0.20,0.02,0.93,1.47,-0.26,-0.27,
1.069,0.20,0.02,0.93,1.51,-0.24,-0.24,
1.073,0.20,0.02,0.93,1.51,-0.24,-0.24,
1.073,0.20,0.02,0.93,1.48,-0.26,-0.29,
1.074,0.21,0.02,0.93,1.48,-0.26,-0.29,
1.076,0.21,0.02,0.92,1.48,-0.26,-0.29,
1.078,0.21,0.02,0.92,1.48,-0.26,-0.29,
1.079,0.21,0.02,0.92,1.49,-0.29,-0.27,
1.08,0.21,0.02,0.92,1.49,-0.29,-0.27,
1.084,0.21,0.01,0.92,1.49,-0.29,-0.27,
1.084,0.21,0.01,0.92,1.50,-0.28,-0.35,
1.086,0.21,0.01,0.92,1.50,-0.28,-0.35,
1.089,0.22,0.01,0.92,1.50,-0.28,-0.35,
1.089,0.22,0.01,0.92,1.48,-0.33,-0.39,
1.091,0.22,0.00,0.91,1.48,-0.33,-0.39,
1.093,0.22,-0.00,0.91,1.48,-0.33,-0.39,
1.093,0.22,-0.00,0.91,1.52,-0.38,-0.42,
1.096,0.22,-0.00,0.91,1.52,-0.38,-0.42,
1.099,0.22,-0.00,0.91,1.52,-0.43,-0.45,
1.099,0.22,-0.01,0.91,1.52,-0.43,-0.45,
1.101,0.22,-0.01,0.90,1.52,-0.43,-0.45,
1.103,0.23,-0.01,0.90,1.52,-0.43,-0.45,
1.104,0.23,-0.01,0.90,1.52,-0.47,-0.48,
1.106,0.23,-0.01,0.89,1.52,-0.47,-0.48,
1.108,0.24,-0.01,0.90,1.52,-0.47,-0.48,
1.108,0.24,-0.01,0.90,1.56,-0.51,-0.59,
1.111,0.24,-0.01,0.90,1.56,-0.51,-0.59,
1.113,0.25,-0.01,0.90,1.56,-0.51,-0.59,
1.114,0.25,-0.01,0.90,1.63,-0.48,-0.60,
1.116,0.25,-0.00,0.90,1.63,-0.48,-0.60,
1.119,0.26,-0.00,0.91,1.63,-0.48,-0.60,
1.119,0.26,-0.00,0.91,1.73,-0.44,-0.56,
1.127,0.26,0.01,0.92,1.73,-0.44,-0.56,
1.128,0.26,0.01,0.92,1.73,-0.44,-0.56,
1.128,0.26,0.01,0.92,1.80,-0.34,-0.50,
1.129,0.27,0.02,0.93,1.80,-0.34,-0.50,
1.129,0.27,0.02,0.94,1.80,-0.34,-0.50,
1.129,0.27,0.02,0.94,1.86,-0.23,-0.35,
1.129,0.27,0.03,0.95,1.86,-0.23,-0.35,
1.132,0.27,0.03,0.95,1.92,-0.09,-0.20,
1.133,0.27,0.03,0.97,1.92,-0.09,-0.20,
1.135,0.28,0.04,0.99,1.92,-0.09,-0.20,
1.139,0.28,0.04,0.99,1.92,0.03,0.06,
1.139,0.28,0.04,0.99,1.92,0.03,0.06,
1.14,0.28,0.04,1.01,1.92,0.03,0.06,
1.142,0.28,0.05,1.02,1.92,0.03,0.06,
1.143,0.28,0.05,1.02,1.95,0.18,0.32,
1.145,0.28,0.04,1.03,1.95,0.18,0.32,
1.148,0.28,0.04,1.03,1.93,0.22,0.53,
1.151,0.28,0.04,1.04,1.93,0.22,0.53,
1.152,0.28,0.04,1.04,1.93,0.22,0.53,
1.153,0.28,0.03,1.05,1.93,0.22,0.53,
1.153,0.28,0.03,1.05,1.94,0.22,0.75,
1.155,0.28,0.03,1.06,1.94,0.22,0.75,
1.158,0.28,0.02,1.07,1.94,0.22,0.75,
1.158,0.28,0.02,1.07,1.90,0.20,0.89,
1.16,0.28,0.02,1.07,1.90,0.20,0.89,
1.162,0.28,0.02,1.07,1.87,0.16,1.07,
1.163,0.28,0.02,1.07,1.87,0.16,1.07,
1.164,0.27,0.02,1.08,1.87,0.16,1.07,
1.168,0.27,0.02,1.08,1.87,0.16,1.07,
1.168,0.27,0.02,1.08,1.83,0.12,1.10,
1.169,0.28,0.01,1.07,1.83,0.12,1.10,
1.172,0.28,0.02,1.06,1.83,0.12,1.10,
1.172,0.28,0.02,1.06,1.75,0.12,1.17,
1.175,0.27,0.02,1.06,1.75,0.12,1.17,
1.177,0.27,0.02,1.07,1.75,0.12,1.17,
1.178,0.27,0.02,1.07,1.75,0.11,1.07,
1.179,0.27,0.02,1.06,1.75,0.11,1.07,
1.183,0.27,0.02,1.06,1.75,0.11,1.07,
1.183,0.27,0.02,1.06,1.71,0.15,1.04,
1.185,0.27,0.01,1.05,1.71,0.15,1.04,
1.19,0.26,0.02,1.06,1.71,0.15,1.04,
1.191,0.26,0.02,1.06,1.68,0.19,0.95,
1.191,0.26,0.02,1.05,1.68,0.19,0.95,
1.192,0.26,0.02,1.05,1.68,0.19,0.95,
1.192,0.26,0.02,1.05,1.62,0.19,0.95,
1.194,0.26,0.02,1.05,1.62,0.19,0.95,
1.198,0.26,0.02,1.05,1.59,0.24,0.92,
1.198,0.26,0.01,1.05,1.59,0.24,0.92,
1.2,0.25,0.02,1.05,1.59,0.24,0.92,
1.202,0.25,0.02,1.04,1.59,0.24,0.92,
1.203,0.25,0.02,1.04,1.54,0.24,0.90,
1.206,0.25,0.01,1.04,1.54,0.24,0.90,
1.208,0.24,0.01,1.04,1.54,0.24,0.90,
1.208,0.24,0.01,1.04,1.45,0.26,0.83,
1.209,0.24,0.00,1.04,1.45,0.26,0.83,
1.214,0.24,-0.00,1.04,1.45,0.26,0.83,
1.215,0.24,-0.00,1.04,1.39,0.18,0.76,
1.215,0.23,-0.00,1.03,1.39,0.18,0.76,
1.217,0.24,-0.01,1.04,1.39,0.18,0.76,
1.217,0.24,-0.01,1.04,1.33,0.16,0.76,
1.219,0.23,-0.01,1.05,1.33,0.16,0.76,
1.226,0.23,-0.01,1.05,1.27,0.13,0.76,
1.227,0.23,-0.01,1.06,1.27,0.13,0.76,
1.227,0.24,-0.01,1.06,1.27,0.13,0.76,
1.227,0.23,-0.01,1.07,1.27,0.13,0.76,
1.227,0.23,-0.01,1.07,1.22,0.12,0.92,
1.229,0.23,-0.00,1.08,1.22,0.12,0.92,
1.232,0.23,-0.01,1.08,1.22,0.12,0.92,
1.232,0.23,-0.01,1.08,1.25,0.14,1.04,
1.234,0.23,-0.00,1.08,1.25,0.14,1.04,
1.237,0.23,-0.00,1.09,1.25,0.14,1.04,
1.237,0.23,-0.00,1.09,1.20,0.19,1.17,
1.24,0.23,-0.00,1.09,1.20,0.19,1.17,
1.242,0.24,-0.00,1.08,1.20,0.19,1.17,
1.242,0.24,-0.00,1.08,1.21,0.22,1.21,
1.244,0.24,0.00,1.08,1.21,0.22,1.21,
1.247,0.24,0.00,1.08,1.24,0.27,1.21,
1.247,0.24,0.00,1.08,1.24,0.27,1.21,
1.249,0.24,0.01,1.08,1.24,0.27,1.21,
1.252,0.25,0.01,1.07,1.24,0.27,1.21,
1.252,0.25,0.01,1.07,1.27,0.32,1.21,
1.254,0.25,0.01,1.08,1.27,0.32,1.21,
1.257,0.26,0.01,1.07,1.27,0.32,1.21,
1.258,0.26,0.01,1.07,1.34,0.39,1.14,
1.259,0.25,0.01,1.07,1.34,0.39,1.14,
1.261,0.26,0.02,1.06,1.34,0.39,1.14,
1.262,0.26,0.02,1.06,1.42,0.42,1.10,
1.264,0.26,0.02,1.07,1.42,0.42,1.10,
1.266,0.25,0.02,1.07,1.42,0.42,1.10,
1.267,0.25,0.02,1.07,1.42,0.49,1.06,
1.269,0.25,0.03,1.07,1.42,0.49,1.06,
1.273,0.25,0.03,1.07,1.42,0.56,1.05,
1.273,0.25,0.03,1.08,1.42,0.56,1.05,
1.274,0.25,0.03,1.08,1.42,0.56,1.05,
1.277,0.25,0.04,1.09,1.42,0.56,1.05,
1.277,0.25,0.04,1.09,1.36,0.67,1.11,
1.278,0.24,0.04,1.09,1.36,0.67,1.11,
1.282,0.24,0.05,1.10,1.36,0.67,1.11,
1.282,0.24,0.05,1.10,1.32,0.77,1.19,
1.284,0.24,0.05,1.10,1.32,0.77,1.19,
1.287,0.23,0.04,1.10,1.32,0.77,1.19,
1.287,0.23,0.04,1.10,1.25,0.85,1.28,
1.29,0.23,0.04,1.11,1.25,0.85,1.28,
1.291,0.23,0.03,1.11,1.25,0.85,1.28,
1.291,0.23,0.03,1.11,1.18,0.86,1.36,
1.293,0.23,0.03,1.11,1.18,0.86,1.36,
1.296,0.23,0.03,1.11,1.11,0.77,1.42,
1.297,0.22,0.03,1.11,1.11,0.77,1.42,
1.298,0.22,0.02,1.11,1.11,0.77,1.42,
1.3,0.22,0.02,1.10,1.11,0.77,1.42,
1.302,0.22,0.02,1.10,1.06,0.71,1.47,
1.303,0.22,0.01,1.11,1.06,0.71,1.47,
1.306,0.22,0.01,1.10,1.06,0.71,1.47,
1.307,0.22,0.01,1.10,1.01,0.64,1.40,
1.308,0.21,0.01,1.10,1.01,0.64,1.40,
1.31,0.21,0.01,1.09,1.01,0.64,1.40,
1.311,0.21,0.01,1.09,1.00,0.55,1.41,
1.315,0.21,0.01,1.08,1.00,0.55,1.41,
1.316,0.21,0.00,1.08,1.00,0.55,1.41,
1.317,0.21,0.00,1.08,0.90,0.52,1.30,
1.317,0.21,-0.00,1.07,0.90,0.52,1.30,
1.321,0.21,0.00,1.07,0.90,0.52,1.30,
1.322,0.21,0.00,1.07,0.88,0.49,1.17,
1.325,0.21,0.01,1.06,0.88,0.49,1.17,
1.326,0.21,0.00,1.06,0.88,0.49,1.17,
1.326,0.21,0.00,1.06,0.85,0.44,1.05,
1.328,0.21,0.01,1.05,0.85,0.44,1.05,
1.331,0.21,0.01,1.05,0.86,0.49,0.92,
1.331,0.21,0.01,1.05,0.86,0.49,0.92,
1.333,0.21,0.01,1.05,0.86,0.49,0.92,
1.336,0.22,0.01,1.05,0.86,0.49,0.92,
1.336,0.22,0.01,1.05,0.87,0.49,0.84,
1.34,0.22,0.01,1.05,0.87,0.49,0.84,
1.34,0.22,0.01,1.04,0.87,0.49,0.84,
1.34,0.22,0.01,1.04,0.89,0.50,0.80,
1.348,0.22,0.01,1.04,0.89,0.50,0.80,
1.348,0.23,0.01,1.04,0.89,0.50,0.80,
1.349,0.23,0.01,1.04,0.91,0.51,0.77,
1.349,0.22,0.01,1.04,0.91,0.51,0.77,
1.35,0.22,0.01,1.04,1.00,0.54,0.75,
1.35,0.23,0.01,1.04,1.00,0.54,0.75,
1.353,0.22,0.01,1.03,1.00,0.54,0.75,
1.356,0.22,0.00,1.03,1.00,0.54,0.75,
1.356,0.22,0.00,1.03,0.99,0.50,0.75,
1.358,0.22,0.00,1.03,0.99,0.50,0.75,
1.36,0.22,0.00,1.03,0.99,0.50,0.75,
1.36,0.22,0.00,1.03,0.97,0.46,0.68,
1.363,0.21,0.00,1.03,0.97,0.46,0.68,
1.365,0.21,-0.00,1.02,0.97,0.46,0.68,
1.365,0.21,-0.00,1.02,0.93,0.43,0.67,
1.369,0.21,-0.00,1.02,0.93,0.43,0.67,
1.37,0.21,-0.00,1.02,0.85,0.42,0.60,
1.37,0.20,0.00,1.02,0.85,0.42,0.60,
1.372,0.19,0.00,1.02,0.85,0.42,0.60,
1.376,0.19,0.00,1.02,0.85,0.42,0.60,
1.376,0.19,0.00,1.02,0.76,0.43,0.56,
1.377,0.18,0.00,1.02,0.76,0.43,0.56,
1.38,0.17,-0.00,1.02,0.76,0.43,0.56,
1.38,0.17,-0.00,1.02,0.64,0.42,0.56,
1.383,0.17,-0.00,1.02,0.64,0.42,0.56,
1.385,0.16,-0.00,1.02,0.64,0.42,0.56,
1.385,0.16,-0.00,1.02,0.50,0.42,0.56,
1.387,0.16,-0.01,1.03,0.50,0.42,0.56,
1.39,0.16,-0.01,1.03,0.50,0.42,0.56,
1.391,0.16,-0.01,1.03,0.39,0.40,0.56,
1.393,0.15,-0.01,1.03,0.39,0.40,0.56,
1.395,0.15,-0.01,1.03,0.32,0.37,0.63,
1.395,0.15,-0.02,1.04,0.32,0.37,0.63,
1.397,0.14,-0.02,1.04,0.32,0.37,0.63,
1.4,0.14,-0.02,1.05,0.32,0.37,0.63,
1.4,0.14,-0.02,1.05,0.20,0.31,0.68,
1.402,0.13,-0.02,1.04,0.20,0.31,0.68,
1.407,0.13,-0.02,1.04,0.12,0.25,0.76,
1.407,0.13,-0.03,1.04,0.12,0.25,0.76,
1.407,0.13,-0.03,1.05,0.12,0.25,0.76,
1.409,0.12,-0.03,1.05,0.12,0.25,0.76,
1.41,0.12,-0.03,1.05,0.04,0.21,0.76,
1.411,0.12,-0.03,1.05,0.04,0.21,0.76,
1.415,0.11,-0.04,1.05,0.04,0.21,0.76,
1.415,0.11,-0.04,1.05,-0.04,0.18,0.83,
1.416,0.12,-0.04,1.06,-0.04,0.18,0.83,
1.42,0.12,-0.04,1.06,-0.10,0.13,0.83,
1.42,0.12,-0.04,1.06,-0.10,0.13,0.83,
1.423,0.12,-0.03,1.06,-0.10,0.13,0.83,
1.425,0.12,-0.04,1.06,-0.10,0.13,0.83,
1.425,0.12,-0.04,1.06,-0.13,0.11,0.91,
1.426,0.12,-0.04,1.07,-0.13,0.11,0.91,
1.43,0.12,-0.04,1.06,-0.13,0.11,0.91,
1.43,0.12,-0.04,1.06,-0.14,0.10,0.94,
1.432,0.12,-0.05,1.06,-0.14,0.10,0.94,
1.435,0.12,-0.05,1.06,-0.14,0.10,0.94,
1.435,0.12,-0.05,1.06,-0.11,0.04,0.94,
1.437,0.12,-0.05,1.05,-0.11,0.04,0.94,
1.44,0.12,-0.05,1.05,-0.11,0.04,0.94,
1.441,0.12,-0.05,1.05,-0.13,-0.01,0.92,
1.442,0.12,-0.05,1.04,-0.13,-0.01,0.92,
1.444,0.12,-0.05,1.04,-0.13,0.01,0.81,
1.445,0.12,-0.05,1.04,-0.13,0.01,0.81,
1.447,0.12,-0.05,1.04,-0.13,0.01,0.81,
1.45,0.12,-0.05,1.04,-0.11,-0.01,0.74,
1.45,0.12,-0.05,1.03,-0.11,-0.01,0.74,
1.452,0.11,-0.05,1.03,-0.11,-0.01,0.74,
1.454,0.11,-0.05,1.02,-0.11,-0.01,0.74,
1.455,0.11,-0.05,1.02,-0.13,-0.01,0.64,
1.461,0.12,-0.05,1.01,-0.13,-0.01,0.64,
1.462,0.12,-0.05,1.01,-0.13,-0.01,0.64,
1.462,0.12,-0.05,1.01,-0.15,-0.01,0.57,
1.462,0.12,-0.05,1.01,-0.15,-0.01,0.57,
1.464,0.11,-0.05,1.00,-0.15,-0.01,0.57,
1.465,0.11,-0.05,1.00,-0.10,0.00,0.45,
1.466,0.11,-0.05,1.00,-0.10,0.00,0.45,
1.469,0.11,-0.05,1.00,-0.13,0.01,0.37,
1.469,0.11,-0.05,1.00,-0.13,0.01,0.37,
1.473,0.12,-0.05,1.00,-0.13,0.01,0.37,
1.474,0.11,-0.05,1.01,-0.13,0.01,0.37,
1.474,0.11,-0.05,1.01,-0.14,-0.00,0.32,
1.476,0.11,-0.05,1.00,-0.14,-0.00,0.32,
1.479,0.12,-0.05,1.00,-0.14,-0.00,0.32,
1.479,0.12,-0.05,1.00,-0.16,-0.00,0.34,
1.481,0.11,-0.05,1.01,-0.16,-0.00,0.34,
1.484,0.11,-0.05,1.02,-0.16,-0.00,0.34,
1.484,0.11,-0.05,1.02,-0.13,0.02,0.33,
1.485,0.11,-0.05,1.02,-0.13,0.02,0.33,
1.49,0.10,-0.06,1.03,-0.13,0.02,0.33,
1.491,0.10,-0.06,1.03,-0.17,-0.01,0.45,
1.491,0.10,-0.06,1.03,-0.17,-0.01,0.45,
1.493,0.10,-0.06,1.03,-0.20,-0.05,0.52,
1.494,0.11,-0.06,1.03,-0.20,-0.05,0.52,
1.495,0.10,-0.06,1.04,-0.20,-0.05,0.52,
1.498,0.10,-0.06,1.04,-0.20,-0.05,0.52,
1.499,0.10,-0.06,1.04,-0.22,-0.11,0.59,
1.501,0.10,-0.07,1.04,-0.22,-0.11,0.59,
1.503,0.10,-0.07,1.04,-0.22,-0.11,0.59,
1.504,0.10,-0.07,1.04,-0.26,-0.12,0.67,
1.506,0.10,-0.07,1.04,-0.26,-0.12,0.67,
1.508,0.11,-0.08,1.04,-0.26,-0.12,0.67,
1.508,0.11,-0.08,1.04,-0.23,-0.21,0.70,
1.512,0.10,-0.08,1.04,-0.23,-0.21,0.70,
1.514,0.10,-0.08,1.03,-0.23,-0.21,0.70,
1.514,0.10,-0.08,1.03,-0.22,-0.23,0.70,
1.516,0.10,-0.09,1.03,-0.22,-0.23,0.70,
1.519,0.10,-0.09,1.03,-0.23,-0.27,0.65,
1.519,0.11,-0.09,1.02,-0.23,-0.27,0.65,
1.521,0.10,-0.09,1.02,-0.23,-0.27,0.65,
1.524,0.10,-0.09,1.02,-0.23,-0.27,0.65,
1.525,0.10,-0.09,1.02,-0.20,-0.34,0.54,
1.526,0.10,-0.09,1.02,-0.20,-0.34,0.54,
1.529,0.10,-0.09,1.02,-0.20,-0.34,0.54,
1.529,0.10,-0.09,1.02,-0.22,-0.37,0.49,
1.531,0.10,-0.09,1.02,-0.22,-0.37,0.49,
1.534,0.10,-0.09,1.01,-0.22,-0.37,0.49,
1.534,0.10,-0.09,1.01,-0.20,-0.38,0.48,
1.536,0.10,-0.09,1.01,-0.20,-0.38,0.48,
1.539,0.10,-0.09,1.01,-0.20,-0.38,0.48,
1.539,0.10,-0.09,1.01,-0.19,-0.37,0.45,
1.542,0.11,-0.09,1.00,-0.19,-0.37,0.45,
1.544,0.11,-0.09,1.00,-0.22,-0.40,0.36,
1.544,0.10,-0.09,1.00,-0.22,-0.40,0.36,
1.546,0.10,-0.09,0.99,-0.22,-0.40,0.36,
1.549,0.10,-0.10,0.99,-0.22,-0.40,0.36,
1.55,0.10,-0.10,0.99,-0.14,-0.40,0.27,
1.551,0.11,-0.09,0.98,-0.14,-0.40,0.27,
1.554,0.11,-0.09,0.97,-0.14,-0.40,0.27,
1.554,0.11,-0.09,0.97,-0.15,-0.44,0.17,
1.556,0.11,-0.09,0.97,-0.15,-0.44,0.17,
1.562,0.11,-0.09,0.97,-0.11,-0.39,0.07,
1.563,0.11,-0.09,0.97,-0.11,-0.39,0.07,
1.563,0.11,-0.09,0.96,-0.11,-0.39,0.07,
1.566,0.11,-0.08,0.96,-0.11,-0.39,0.07,
1.566,0.11,-0.08,0.96,-0.11,-0.39,0.07,
1.566,0.11,-0.08,0.96,-0.07,-0.38,-0.00,
1.569,0.10,-0.08,0.96,-0.07,-0.38,-0.00,
1.57,0.10,-0.08,0.96,-0.06,-0.34,-0.06,
1.571,0.10,-0.07,0.96,-0.06,-0.34,-0.06,
1.582,0.10,-0.07,0.95,-0.06,-0.34,-0.06,
1.583,0.10,-0.07,0.95,-0.07,-0.27,-0.12,
1.583,0.10,-0.06,0.95,-0.07,-0.27,-0.12,
1.583,0.10,-0.06,0.96,-0.07,-0.27,-0.12,
1.584,0.10,-0.06,0.96,-0.10,-0.19,-0.18,
1.584,0.09,-0.06,0.96,-0.10,-0.19,-0.18,
1.584,0.09,-0.05,0.95,-0.10,-0.19,-0.18,
1.584,0.09,-0.05,0.95,-0.12,-0.10,-0.18,
1.586,0.09,-0.05,0.96,-0.12,-0.10,-0.18,
1.589,0.08,-0.05,0.95,-0.12,-0.10,-0.18,
1.589,0.08,-0.05,0.95,-0.19,-0.06,-0.16,
1.591,0.09,-0.05,0.96,-0.19,-0.06,-0.16,
1.593,0.09,-0.05,0.96,-0.22,0.01,-0.17,
1.594,0.08,-0.05,0.95,-0.22,0.01,-0.17,
1.595,0.08,-0.05,0.96,-0.22,0.01,-0.17,
1.598,0.08,-0.05,0.95,-0.22,0.01,-0.17,
1.598,0.08,-0.05,0.95,-0.23,-0.02,-0.16,
1.6,0.08,-0.05,0.95,-0.23,-0.02,-0.16,
1.603,0.08,-0.06,0.95,-0.23,-0.02,-0.16,
1.604,0.08,-0.06,0.95,-0.25,-0.05,-0.18,
1.605,0.08,-0.06,0.94,-0.25,-0.05,-0.18,
1.608,0.08,-0.06,0.94,-0.25,-0.05,-0.18,
1.609,0.08,-0.06,0.94,-0.24,-0.05,-0.23,
1.61,0.07,-0.05,0.94,-0.24,-0.05,-0.23,
1.613,0.07,-0.05,0.95,-0.24,-0.05,-0.23,
1.613,0.07,-0.05,0.95,-0.26,-0.08,-0.28,
1.615,0.07,-0.05,0.94,-0.26,-0.08,-0.28,
1.618,0.07,-0.05,0.94,-0.29,-0.05,-0.26,
1.618,0.07,-0.05,0.95,-0.29,-0.05,-0.26,
1.62,0.07,-0.04,0.95,-0.29,-0.05,-0.26,
1.624,0.07,-0.04,0.95,-0.29,-0.05,-0.26,
1.625,0.07,-0.04,0.95,-0.31,-0.05,-0.28,
1.625,0.07,-0.04,0.96,-0.31,-0.05,-0.28,
1.628,0.07,-0.03,0.96,-0.31,-0.05,-0.28,
1.628,0.07,-0.03,0.96,-0.30,0.06,-0.23,
1.63,0.07,-0.03,0.96,-0.30,0.06,-0.23,
1.633,0.07,-0.03,0.97,-0.30,0.06,-0.23,
1.633,0.07,-0.03,0.97,-0.30,0.12,-0.11,
1.635,0.08,-0.03,0.97,-0.30,0.12,-0.11,
1.638,0.08,-0.03,0.98,-0.30,0.12,-0.11,
1.638,0.08,-0.03,0.98,-0.27,0.18,-0.07,
1.641,0.08,-0.03,0.98,-0.27,0.18,-0.07,
1.643,0.08,-0.03,0.98,-0.18,0.17,0.04,
1.647,0.09,-0.03,0.98,-0.18,0.17,0.04,
1.648,0.09,-0.03,0.99,-0.18,0.17,0.04,
1.648,0.09,-0.03,0.98,-0.18,0.17,0.04,
1.648,0.09,-0.03,0.98,-0.12,0.19,0.09,
1.65,0.09,-0.03,0.98,-0.12,0.19,0.09,
1.652,0.09,-0.04,0.98,-0.12,0.19,0.09,
1.653,0.09,-0.04,0.98,-0.07,0.14,0.11,
1.654,0.09,-0.04,0.98,-0.07,0.14,0.11,
1.657,0.09,-0.04,0.98,-0.07,0.14,0.11,
1.657,0.09,-0.04,0.98,-0.02,0.13,0.10,
1.659,0.09,-0.04,0.98,-0.02,0.13,0.10,
1.665,0.09,-0.05,0.98,-0.02,0.13,0.10,
1.665,0.09,-0.05,0.98,-0.02,0.13,0.10,
1.666,0.09,-0.05,0.98,0.00,0.05,0.10,
1.667,0.09,-0.05,0.98,-0.04,0.03,0.08,
1.668,0.08,-0.05,0.98,-0.04,0.03,0.08,
1.67,0.08,-0.05,0.97,-0.04,0.03,0.08,
1.672,0.07,-0.06,0.96,-0.04,0.03,0.08,
1.673,0.07,-0.06,0.96,-0.07,-0.03,0.06,
1.679,0.07,-0.06,0.96,-0.07,-0.03,0.06,
1.68,0.06,-0.06,0.95,-0.07,-0.03,0.06,
1.68,0.06,-0.06,0.95,-0.17,-0.08,-0.06,
1.68,0.06,-0.07,0.95,-0.17,-0.08,-0.06,
1.681,0.05,-0.06,0.95,-0.17,-0.08,-0.06,
1.682,0.05,-0.06,0.95,-0.24,-0.12,-0.20,
1.684,0.05,-0.07,0.95,-0.24,-0.12,-0.20,
1.687,0.05,-0.07,0.95,-0.24,-0.12,-0.20,
1.688,0.05,-0.07,0.95,-0.32,-0.14,-0.19,
1.689,0.04,-0.07,0.95,-0.32,-0.14,-0.19,
1.692,0.04,-0.07,0.95,-0.37,-0.21,-0.20,
1.693,0.04,-0.08,0.96,-0.37,-0.21,-0.20,
1.694,0.03,-0.08,0.96,-0.37,-0.21,-0.20,
1.697,0.02,-0.08,0.97,-0.37,-0.21,-0.20,
1.697,0.02,-0.08,0.97,-0.47,-0.23,-0.16,
1.699,0.02,-0.08,0.97,-0.47,-0.23,-0.16,
1.702,0.02,-0.08,0.97,-0.47,-0.23,-0.16,
1.702,0.02,-0.08,0.97,-0.55,-0.27,-0.09,
1.704,0.02,-0.08,0.97,-0.55,-0.27,-0.09,
1.708,0.02,-0.08,0.97,-0.55,-0.27,-0.09,
1.708,0.02,-0.08,0.97,-0.63,-0.30,-0.06,
1.709,0.01,-0.08,0.98,-0.63,-0.30,-0.06,
1.712,0.01,-0.08,0.98,-0.63,-0.30,-0.06,
1.712,0.01,-0.08,0.98,-0.67,-0.28,-0.02,
1.715,0.02,-0.08,0.99,-0.67,-0.28,-0.02,
1.717,0.02,-0.08,0.99,-0.69,-0.29,0.02,
1.717,0.02,-0.09,0.99,-0.69,-0.29,0.02,
1.719,0.02,-0.09,0.99,-0.69,-0.29,0.02,
1.722,0.02,-0.09,0.99,-0.69,-0.29,0.02,
1.722,0.02,-0.09,0.99,-0.66,-0.31,0.15,
1.724,0.02,-0.08,0.99,-0.66,-0.31,0.15,
1.727,0.02,-0.09,0.99,-0.66,-0.31,0.15,
1.729,0.02,-0.09,0.99,-0.64,-0.32,0.16,
1.729,0.02,-0.09,0.99,-0.64,-0.32,0.16,
1.732,0.03,-0.09,0.99,-0.64,-0.32,0.16,
1.732,0.03,-0.09,0.99,-0.61,-0.32,0.14,
1.734,0.03,-0.08,0.99,-0.61,-0.32,0.14,
1.737,0.03,-0.09,0.98,-0.61,-0.32,0.14,
1.737,0.03,-0.09,0.98,-0.57,-0.31,0.18,
1.739,0.03,-0.08,0.98,-0.57,-0.31,0.18,
1.742,0.03,-0.08,0.98,-0.51,-0.31,0.10,
1.742,0.03,-0.08,0.98,-0.51,-0.31,0.10,
1.744,0.04,-0.08,0.97,-0.51,-0.31,0.10,
1.747,0.04,-0.09,0.96,-0.51,-0.31,0.10,
1.747,0.04,-0.09,0.96,-0.54,-0.29,0.06,
1.749,0.04,-0.08,0.96,-0.54,-0.29,0.06,
1.752,0.04,-0.08,0.96,-0.54,-0.29,0.06,
1.752,0.04,-0.08,0.96,-0.44,-0.28,-0.05,
1.754,0.04,-0.08,0.94,-0.44,-0.28,-0.05,
1.756,0.04,-0.08,0.94,-0.44,-0.28,-0.05,
1.757,0.04,-0.08,0.94,-0.46,-0.23,-0.16,
1.758,0.04,-0.07,0.94,-0.46,-0.23,-0.16,
1.761,0.04,-0.08,0.94,-0.46,-0.23,-0.16,
1.762,0.04,-0.08,0.94,-0.44,-0.21,-0.31,
1.763,0.04,-0.08,0.94,-0.44,-0.21,-0.31,
1.767,0.04,-0.08,0.94,-0.45,-0.19,-0.30,
1.767,0.04,-0.07,0.94,-0.45,-0.19,-0.30,
1.769,0.04,-0.07,0.94,-0.45,-0.19,-0.30,
1.771,0.03,-0.07,0.95,-0.45,-0.19,-0.30,
1.772,0.03,-0.07,0.95,-0.50,-0.19,-0.32,
1.773,0.04,-0.07,0.96,-0.50,-0.19,-0.32,
1.779,0.04,-0.07,0.97,-0.50,-0.19,-0.32,
1.78,0.04,-0.07,0.97,-0.52,-0.13,-0.24,
1.78,0.04,-0.07,0.98,-0.52,-0.13,-0.24,
1.783,0.04,-0.07,0.99,-0.52,-0.13,-0.24,
1.783,0.04,-0.07,0.99,-0.50,-0.08,-0.05,
1.783,0.04,-0.07,1.01,-0.50,-0.08,-0.05,
1.786,0.04,-0.07,1.01,-0.50,-0.08,-0.05,
1.786,0.04,-0.07,1.01,-0.51,-0.08,0.15,
1.788,0.04,-0.08,1.02,-0.51,-0.08,0.15,
1.792,0.04,-0.08,1.02,-0.55,-0.09,0.38,
1.793,0.04,-0.08,1.03,-0.55,-0.09,0.38,
1.793,0.04,-0.07,1.04,-0.55,-0.09,0.38,
1.796,0.05,-0.07,1.05,-0.55,-0.09,0.38,
1.796,0.05,-0.07,1.05,-0.51,-0.16,0.55,
1.798,0.05,-0.08,1.06,-0.51,-0.16,0.55,
1.802,0.05,-0.08,1.07,-0.51,-0.16,0.55,
1.802,0.05,-0.08,1.07,-0.49,-0.12,0.74,
1.804,0.06,-0.08,1.06,-0.49,-0.12,0.74,
1.806,0.06,-0.08,1.06,-0.49,-0.12,0.74,
1.806,0.06,-0.08,1.06,-0.43,-0.18,0.89,
1.81,0.07,-0.08,1.06,-0.43,-0.18,0.89,
1.814,0.07,-0.07,1.07,-0.43,-0.18,0.89,
1.815,0.07,-0.07,1.07,-0.42,-0.18,0.87,
1.816,0.07,-0.08,1.07,-0.42,-0.18,0.87,
1.816,0.07,-0.08,1.07,-0.33,-0.15,0.89,
1.817,0.07,-0.07,1.06,-0.33,-0.15,0.89,
1.818,0.07,-0.07,1.05,-0.33,-0.15,0.89,
1.82,0.07,-0.07,1.05,-0.33,-0.15,0.89,
1.821,0.07,-0.07,1.05,-0.32,-0.13,0.87,
1.823,0.07,-0.07,1.04,-0.32,-0.13,0.87,
1.825,0.07,-0.06,1.03,-0.32,-0.13,0.87,
1.826,0.07,-0.06,1.03,-0.34,-0.11,0.71,
1.828,0.07,-0.06,1.02,-0.34,-0.11,0.71,
1.831,0.07,-0.06,1.01,-0.34,-0.11,0.71,
1.831,0.07,-0.06,1.01,-0.32,-0.06,0.57,
1.833,0.07,-0.06,1.01,-0.32,-0.06,0.57,
1.836,0.06,-0.06,1.00,-0.32,-0.06,0.57,
1.836,0.06,-0.06,1.00,-0.34,-0.06,0.36,
1.838,0.07,-0.06,0.98,-0.34,-0.06,0.36,
1.84,0.07,-0.06,0.98,-0.37,-0.02,0.26,
1.84,0.07,-0.06,0.98,-0.37,-0.02,0.26,
1.843,0.06,-0.06,0.97,-0.37,-0.02,0.26,
1.845,0.06,-0.06,0.97,-0.37,-0.02,0.26,
1.846,0.06,-0.06,0.97,-0.36,-0.05,0.05,
1.848,0.06,-0.05,0.96,-0.36,-0.05,0.05,
1.851,0.06,-0.05,0.96,-0.36,-0.05,0.05,
1.851,0.06,-0.05,0.96,-0.40,-0.03,-0.05,
1.853,0.06,-0.05,0.96,-0.40,-0.03,-0.05,
1.856,0.05,-0.05,0.96,-0.40,-0.03,-0.05,
1.856,0.05,-0.05,0.96,-0.43,0.01,-0.14,
1.859,0.05,-0.04,0.95,-0.43,0.01,-0.14,
1.861,0.05,-0.04,0.95,-0.43,0.04,-0.18,
1.861,0.05,-0.04,0.96,-0.43,0.04,-0.18,
1.863,0.05,-0.04,0.95,-0.43,0.04,-0.18,
1.868,0.05,-0.04,0.95,-0.50,0.12,-0.21,
1.868,0.05,-0.04,0.95,-0.50,0.12,-0.21,
1.868,0.05,-0.03,0.95,-0.50,0.12,-0.21,
1.872,0.05,-0.04,0.94,-0.50,0.12,-0.21,
1.872,0.05,-0.04,0.94,-0.51,0.14,-0.27,
1.872,0.05,-0.03,0.95,-0.51,0.14,-0.27,
1.876,0.05,-0.03,0.95,-0.50,0.19,-0.30,
1.877,0.05,-0.03,0.95,-0.50,0.19,-0.30,
1.877,0.05,-0.02,0.96,-0.50,0.19,-0.30,
1.881,0.05,-0.03,0.96,-0.50,0.19,-0.30,
1.881,0.05,-0.03,0.96,-0.49,0.22,-0.25,
1.883,0.05,-0.03,0.96,-0.49,0.22,-0.25,
1.886,0.05,-0.03,0.97,-0.49,0.22,-0.25,
1.886,0.05,-0.03,0.97,-0.48,0.29,-0.16,
1.888,0.05,-0.03,0.98,-0.48,0.29,-0.16,
1.891,0.05,-0.03,0.98,-0.48,0.29,-0.16,
1.891,0.05,-0.03,0.98,-0.46,0.25,-0.08,
1.9,0.05,-0.03,0.99,-0.46,0.25,-0.08,
1.9,0.05,-0.03,0.99,-0.46,0.25,-0.08,
1.901,0.05,-0.03,0.99,-0.52,0.23,0.05,
1.901,0.05,-0.03,0.99,-0.52,0.23,0.05,
1.901,0.05,-0.03,0.99,-0.50,0.29,0.15,
1.902,0.04,-0.03,1.00,-0.50,0.29,0.15,
1.902,0.04,-0.02,1.00,-0.50,0.29,0.15,
1.904,0.04,-0.03,1.01,-0.50,0.29,0.15,
1.905,0.04,-0.03,1.01,-0.58,0.30,0.19,
1.915,0.04,-0.03,1.02,-0.58,0.30,0.19,
1.915,0.03,-0.02,1.01,-0.58,0.30,0.19,
1.916,0.03,-0.02,1.01,-0.63,0.30,0.31,
1.916,0.03,-0.03,1.01,-0.63,0.30,0.31,
1.916,0.03,-0.04,1.01,-0.63,0.30,0.31,
1.917,0.03,-0.04,1.01,-0.67,0.31,0.38,
1.917,0.02,-0.03,1.01,-0.67,0.31,0.38,
1.919,0.02,-0.03,1.01,-0.72,0.24,0.33,
1.92,0.02,-0.04,1.01,-0.72,0.24,0.33,
1.922,0.02,-0.04,1.02,-0.72,0.24,0.33,
1.924,0.03,-0.04,1.02,-0.72,0.24,0.33,
1.925,0.03,-0.04,1.02,-0.78,0.22,0.37,
1.927,0.03,-0.04,1.01,-0.78,0.22,0.37,
1.929,0.03,-0.04,1.02,-0.78,0.22,0.37,
1.929,0.03,-0.04,1.02,-0.75,0.17,0.39,
1.931,0.03,-0.04,1.02,-0.75,0.17,0.39,
1.935,0.03,-0.05,1.02,-0.75,0.17,0.39,
1.935,0.03,-0.05,1.02,-0.77,0.16,0.38,
1.937,0.03,-0.05,1.02,-0.77,0.16,0.38,
1.94,0.03,-0.05,1.01,-0.77,0.16,0.38,
1.94,0.03,-0.05,1.01,-0.74,0.14,0.42,
1.942,0.03,-0.06,1.01,-0.74,0.14,0.42,
1.945,0.03,-0.05,1.01,-0.74,0.14,0.42,
1.945,0.03,-0.05,1.01,-0.75,0.07,0.37,
1.946,0.03,-0.05,1.00,-0.75,0.07,0.37,
1.95,0.03,-0.06,0.99,-0.75,0.07,0.37,
1.95,0.03,-0.06,0.99,-0.76,0.02,0.29,
1.952,0.03,-0.06,0.99,-0.76,0.02,0.29,
1.955,0.03,-0.06,0.99,-0.76,0.02,0.29,
1.955,0.03,-0.06,0.99,-0.76,-0.01,0.20,
1.957,0.02,-0.07,0.98,-0.76,-0.01,0.20,
1.96,0.02,-0.06,0.97,-0.76,-0.01,0.20,
1.96,0.02,-0.06,0.97,-0.77,-0.08,0.12,
1.962,0.02,-0.07,0.96,-0.77,-0.08,0.12,
1.965,0.01,-0.07,0.96,-0.77,-0.08,0.12,
1.965,0.01,-0.07,0.96,-0.82,-0.11,0.02,
1.967,0.01,-0.07,0.96,-0.82,-0.11,0.02,
1.97,0.01,-0.07,0.96,-0.82,-0.11,0.02,
1.97,0.01,-0.07,0.96,-0.87,-0.12,-0.13,
1.972,0.01,-0.07,0.96,-0.87,-0.12,-0.13,
1.977,0.00,-0.07,0.96,-0.87,-0.12,-0.13,
1.977,0.00,-0.07,0.96,-0.93,-0.18,-0.16,
1.978,0.01,-0.07,0.95,-0.93,-0.18,-0.16,
1.981,0.01,-0.07,0.95,-0.93,-0.18,-0.16,
1.982,0.01,-0.07,0.95,-0.96,-0.16,-0.19,
1.983,0.00,-0.06,0.95,-0.96,-0.16,-0.19,
1.984,0.01,-0.06,0.95,-0.96,-0.16,-0.19,
1.985,0.01,-0.06,0.95,-0.96,-0.15,-0.23,
1.986,0.01,-0.06,0.95,-0.96,-0.15,-0.23,
1.989,0.02,-0.06,0.96,-0.96,-0.15,-0.23,
1.989,0.02,-0.06,0.96,-0.98,-0.13,-0.22,
1.992,0.02,-0.06,0.97,-0.98,-0.13,-0.22,
1.995,0.03,-0.06,0.97,-0.98,-0.13,-0.22,
1.996,0.03,-0.06,0.97,-0.90,-0.10,-0.19,
1.996,0.03,-0.06,0.96,-0.90,-0.10,-0.19,
1.999,0.04,-0.06,0.97,-0.90,-0.10,-0.19,
1.999,0.04,-0.06,0.97,-0.80,-0.08,-0.10,
2.002,0.04,-0.06,0.97,-0.80,-0.08,-0.10,
2.004,0.04,-0.06,0.98,-0.80,-0.08,-0.10,
2.005,0.04,-0.06,0.98,-0.70,-0.08,-0.08,
2.006,0.05,-0.06,0.98,-0.70,-0.08,-0.08,
2.014,0.05,-0.06,0.98,-0.70,-0.08,-0.08,
2.014,0.05,-0.06,0.98,-0.64,-0.12,0.00,
2.015,0.05,-0.06,0.99,-0.64,-0.12,0.00,
2.015,0.05,-0.05,0.99,-0.64,-0.12,0.00,
2.015,0.05,-0.05,0.99,-0.60,-0.13,0.07,
2.015,0.05,-0.05,0.99,-0.60,-0.13,0.07,
2.019,0.05,-0.05,0.99,-0.60,-0.13,0.07,
2.019,0.05,-0.05,0.99,-0.56,-0.07,0.14,
2.021,0.05,-0.06,0.98,-0.56,-0.07,0.14,
2.023,0.04,-0.05,0.98,-0.56,-0.07,0.14,
2.024,0.04,-0.05,0.98,-0.58,-0.07,0.14,
2.026,0.03,-0.05,0.98,-0.58,-0.07,0.14,
2.029,0.03,-0.06,0.97,-0.58,-0.07,0.14,
2.029,0.03,-0.06,0.97,-0.66,-0.10,0.05,
2.031,0.03,-0.05,0.96,-0.66,-0.10,0.05,
2.034,0.02,-0.06,0.96,-0.66,-0.10,0.05,
2.035,0.02,-0.06,0.96,-0.78,-0.08,0.00,
2.036,0.01,-0.06,0.96,-0.78,-0.08,0.00,
2.039,0.01,-0.06,0.95,-0.78,-0.08,0.00,
2.039,0.01,-0.06,0.95,-0.84,-0.10,-0.16,
2.041,0.01,-0.06,0.94,-0.84,-0.10,-0.16,
2.043,0.01,-0.06,0.94,-0.84,-0.10,-0.16,
2.044,0.01,-0.06,0.94,-0.93,-0.13,-0.22,
2.046,0.01,-0.07,0.93,-0.93,-0.13,-0.22,
2.048,0.01,-0.07,0.93,-0.93,-0.13,-0.22,
2.049,0.01,-0.07,0.93,-0.96,-0.15,-0.34,
2.051,0.01,-0.08,0.92,-0.96,-0.15,-0.34,
2.054,0.01,-0.08,0.92,-0.96,-0.15,-0.34,
2.054,0.01,-0.08,0.92,-0.98,-0.21,-0.43,
2.056,0.02,-0.08,0.91,-0.98,-0.21,-0.43,
2.058,0.02,-0.09,0.91,-0.98,-0.21,-0.43,
2.058,0.02,-0.09,0.91,-0.95,-0.31,-0.50,
2.061,0.02,-0.09,0.91,-0.95,-0.31,-0.50,
2.064,0.02,-0.09,0.91,-0.92,-0.36,-0.60,
2.066,0.03,-0.09,0.91,-0.92,-0.36,-0.60,
2.066,0.03,-0.09,0.91,-0.92,-0.36,-0.60,
2.068,0.03,-0.09,0.91,-0.84,-0.38,-0.58,
2.07,0.03,-0.10,0.91,-0.84,-0.38,-0.58,
2.071,0.04,-0.09,0.92,-0.84,-0.38,-0.58,
2.074,0.04,-0.09,0.93,-0.84,-0.38,-0.58,
2.074,0.04,-0.09,0.93,-0.77,-0.45,-0.60,
2.077,0.05,-0.08,0.93,-0.77,-0.45,-0.60,
2.078,0.05,-0.08,0.93,-0.70,-0.41,-0.47,
2.08,0.06,-0.08,0.94,-0.70,-0.41,-0.47,
2.082,0.06,-0.08,0.96,-0.70,-0.41,-0.47,
2.083,0.07,-0.07,0.97,-0.70,-0.41,-0.47,
2.084,0.07,-0.07,0.97,-0.61,-0.34,-0.36,
2.086,0.07,-0.07,0.97,-0.61,-0.34,-0.36,
2.088,0.07,-0.07,0.98,-0.61,-0.34,-0.36,
2.089,0.07,-0.07,0.98,-0.47,-0.27,-0.08,
2.091,0.08,-0.07,0.99,-0.47,-0.27,-0.08,
2.094,0.08,-0.07,0.99,-0.41,-0.22,0.05,
2.095,0.07,-0.07,0.99,-0.41,-0.22,0.05,
2.095,0.07,-0.07,0.99,-0.41,-0.22,0.05,
2.098,0.07,-0.07,0.98,-0.41,-0.22,0.05,
2.099,0.07,-0.07,0.98,-0.42,-0.20,0.18,
2.1,0.07,-0.07,0.98,-0.42,-0.20,0.18,
2.103,0.07,-0.07,0.98,-0.44,-0.24,0.16,
2.103,0.07,-0.08,0.97,-0.44,-0.24,0.16,
2.105,0.07,-0.08,0.95,-0.44,-0.24,0.16,
2.109,0.07,-0.08,0.95,-0.44,-0.26,0.02,
2.109,0.07,-0.08,0.94,-0.44,-0.26,0.02,
2.109,0.07,-0.08,0.93,-0.44,-0.26,0.02,
2.116,0.07,-0.09,0.92,-0.44,-0.26,0.02,
2.117,0.07,-0.09,0.92,-0.42,-0.28,-0.23,
2.117,0.06,-0.09,0.91,-0.42,-0.28,-0.23,
2.117,0.06,-0.09,0.89,-0.42,-0.28,-0.23,
2.118,0.06,-0.09,0.89,-0.47,-0.34,-0.45,
2.12,0.06,-0.09,0.88,-0.47,-0.34,-0.45,
2.123,0.06,-0.09,0.88,-0.53,-0.36,-0.67,
2.123,0.05,-0.09,0.87,-0.53,-0.36,-0.67,
2.125,0.05,-0.09,0.86,-0.53,-0.36,-0.67,
2.129,0.05,-0.10,0.86,-0.53,-0.36,-0.67,
2.13,0.05,-0.10,0.86,-0.53,-0.38,-0.89,
2.13,0.04,-0.09,0.85,-0.53,-0.38,-0.89,
2.132,0.04,-0.10,0.84,-0.53,-0.38,-0.89,
2.132,0.04,-0.10,0.84,-0.59,-0.40,-1.08,
2.134,0.04,-0.10,0.84,-0.59,-0.40,-1.08,
2.138,0.04,-0.09,0.83,-0.59,-0.40,-1.08,
2.141,0.04,-0.09,0.83,-0.63,-0.40,-1.23,
2.141,0.04,-0.09,0.83,-0.63,-0.40,-1.23,
2.143,0.04,-0.09,0.84,-0.63,-0.40,-1.23,
2.144,0.04,-0.09,0.84,-0.68,-0.39,-1.29,
2.145,0.03,-0.08,0.83,-0.68,-0.39,-1.29,
2.147,0.03,-0.08,0.84,-0.68,-0.39,-1.29,
2.147,0.03,-0.08,0.84,-0.65,-0.34,-1.27,
2.149,0.04,-0.08,0.85,-0.65,-0.34,-1.27,
2.152,0.04,-0.08,0.85,-0.65,-0.34,-1.27,
2.152,0.04,-0.08,0.85,-0.67,-0.21,-1.26,
2.154,0.04,-0.08,0.85,-0.67,-0.21,-1.26,
2.156,0.04,-0.08,0.86,-0.67,-0.21,-1.26,
2.157,0.04,-0.08,0.86,-0.61,-0.20,-1.10,
2.159,0.04,-0.08,0.86,-0.61,-0.20,-1.10,
2.163,0.05,-0.08,0.87,-0.61,-0.20,-1.10,
2.163,0.05,-0.08,0.87,-0.57,-0.16,-1.04,
2.164,0.04,-0.08,0.87,-0.57,-0.16,-1.04,
2.167,0.04,-0.08,0.87,-0.57,-0.16,-1.04,
2.167,0.04,-0.08,0.87,-0.55,-0.15,-0.93,
2.17,0.05,-0.09,0.88,-0.55,-0.15,-0.93,
2.172,0.04,-0.08,0.89,-0.55,-0.15,-0.93,
2.172,0.04,-0.08,0.89,-0.55,-0.19,-0.87,
2.174,0.04,-0.08,0.89,-0.55,-0.19,-0.87,
2.177,0.04,-0.08,0.90,-0.55,-0.19,-0.87,
2.177,0.04,-0.08,0.90,-0.53,-0.17,-0.75,
2.179,0.04,-0.08,0.90,-0.53,-0.17,-0.75,
2.183,0.04,-0.07,0.91,-0.53,-0.17,-0.75,
2.183,0.04,-0.07,0.91,-0.59,-0.15,-0.62,
2.184,0.03,-0.07,0.93,-0.59,-0.15,-0.62,
2.188,0.03,-0.07,0.93,-0.59,-0.15,-0.62,
2.188,0.03,-0.07,0.93,-0.65,-0.09,-0.50,
2.19,0.03,-0.07,0.94,-0.65,-0.09,-0.50,
2.192,0.02,-0.07,0.96,-0.65,-0.09,-0.50,
2.193,0.02,-0.07,0.96,-0.73,0.00,-0.30,
2.196,0.02,-0.07,0.97,-0.73,0.00,-0.30,
2.197,0.02,-0.07,0.97,-0.73,0.00,-0.30,
2.197,0.02,-0.07,0.97,-0.77,0.03,-0.07,
2.2,0.02,-0.07,0.98,-0.77,0.03,-0.07,
2.202,0.02,-0.08,0.99,-0.77,0.03,-0.07,
2.203,0.02,-0.08,0.99,-0.82,0.03,0.14,
2.204,0.02,-0.08,1.00,-0.82,0.03,0.14,
2.208,0.02,-0.08,1.00,-0.82,0.03,0.14,
2.208,0.02,-0.08,1.00,-0.84,-0.02,0.29,
2.211,0.03,-0.08,1.01,-0.84,-0.02,0.29,
2.213,0.03,-0.09,1.01,-0.84,-0.02,0.29,
2.213,0.03,-0.09,1.01,-0.80,-0.06,0.45,
2.214,0.03,-0.09,1.02,-0.80,-0.06,0.45,
2.217,0.03,-0.09,1.02,-0.80,-0.06,0.45,
2.217,0.03,-0.09,1.02,-0.79,-0.09,0.53,
2.219,0.03,-0.09,1.02,-0.79,-0.09,0.53,
2.222,0.03,-0.10,1.02,-0.79,-0.09,0.53,
2.223,0.03,-0.10,1.02,-0.80,-0.14,0.59,
2.225,0.03,-0.10,1.01,-0.80,-0.14,0.59,
2.23,0.03,-0.10,1.02,-0.80,-0.14,0.59,
2.23,0.03,-0.10,1.02,-0.81,-0.17,0.57,
2.231,0.03,-0.09,1.01,-0.81,-0.17,0.57,
2.231,0.03,-0.09,1.00,-0.81,-0.17,0.57,
2.232,0.03,-0.09,1.00,-0.80,-0.17,0.56,
2.233,0.03,-0.10,1.00,-0.80,-0.17,0.56,
2.236,0.03,-0.09,1.01,-0.80,-0.17,0.56,
2.236,0.03,-0.09,1.01,-0.80,-0.11,0.47,
2.24,0.04,-0.09,1.00,-0.80,-0.11,0.47,
2.241,0.04,-0.09,0.99,-0.80,-0.11,0.47,
2.241,0.04,-0.09,0.99,-0.75,-0.12,0.45,
2.243,0.04,-0.08,0.99,-0.75,-0.12,0.45,
2.246,0.04,-0.09,0.99,-0.75,-0.12,0.45,
2.246,0.04,-0.09,0.99,-0.70,-0.06,0.39,
2.248,0.04,-0.09,0.99,-0.70,-0.06,0.39,
2.251,0.04,-0.10,0.99,-0.70,-0.06,0.39,
2.251,0.04,-0.10,0.99,-0.68,-0.01,0.29,
2.253,0.04,-0.10,0.98,-0.68,-0.01,0.29,
2.255,0.05,-0.10,0.99,-0.68,-0.01,0.29,
2.256,0.05,-0.10,0.99,-0.65,-0.09,0.30,
2.258,0.05,-0.11,0.99,-0.65,-0.09,0.30,
2.261,0.05,-0.11,0.99,-0.65,-0.09,0.30,
2.261,0.05,-0.11,0.99,-0.63,-0.14,0.27,
2.263,0.04,-0.12,0.99,-0.63,-0.14,0.27,
2.266,0.04,-0.12,0.99,-0.60,-0.21,0.30,
2.266,0.03,-0.12,0.99,-0.60,-0.21,0.30,
2.268,0.03,-0.13,0.99,-0.60,-0.21,0.30,
2.27,0.03,-0.13,0.99,-0.60,-0.21,0.30,
2.271,0.03,-0.13,0.99,-0.72,-0.31,0.31,
2.273,0.02,-0.13,1.00,-0.72,-0.31,0.31,
2.278,0.01,-0.13,1.00,-0.72,-0.31,0.31,
2.279,0.01,-0.13,1.00,-0.82,-0.33,0.32,
2.279,0.01,-0.14,1.01,-0.82,-0.33,0.32,
2.28,0.01,-0.14,1.02,-0.82,-0.33,0.32,
2.281,0.01,-0.14,1.02,-0.96,-0.39,0.41,
2.282,0.00,-0.14,1.02,-0.96,-0.39,0.41,
2.285,0.00,-0.15,1.03,-0.96,-0.39,0.41,
2.286,0.00,-0.15,1.03,-1.03,-0.43,0.55,
2.288,0.01,-0.14,1.04,-1.03,-0.43,0.55,
2.29,0.01,-0.14,1.04,-1.08,-0.47,0.67,
2.29,0.00,-0.14,1.05,-1.08,-0.47,0.67,
2.292,0.01,-0.14,1.06,-1.08,-0.47,0.67,
2.295,0.01,-0.14,1.07,-1.08,-0.47,0.67,
2.296,0.01,-0.14,1.07,-1.06,-0.43,0.82,
2.297,0.01,-0.14,1.07,-1.06,-0.43,0.82,
2.3,0.02,-0.14,1.08,-1.06,-0.43,0.82,
2.301,0.02,-0.14,1.08,-1.05,-0.41,1.03,
2.303,0.02,-0.14,1.09,-1.05,-0.41,1.03,
2.305,0.03,-0.14,1.10,-1.05,-0.41,1.03,
2.305,0.03,-0.14,1.10,-0.99,-0.37,1.11,
2.307,0.04,-0.14,1.11,-0.99,-0.37,1.11,
2.31,0.04,-0.13,1.12,-0.99,-0.37,1.11,
2.311,0.04,-0.13,1.12,-0.88,-0.33,1.28,
2.312,0.04,-0.13,1.12,-0.88,-0.33,1.28,
2.315,0.04,-0.13,1.12,-0.78,-0.30,1.47,
2.315,0.04,-0.14,1.12,-0.78,-0.30,1.47,
2.318,0.04,-0.13,1.13,-0.78,-0.30,1.47,
2.321,0.04,-0.13,1.13,-0.78,-0.30,1.47,
2.321,0.04,-0.13,1.13,-0.75,-0.27,1.54,
2.323,0.04,-0.13,1.13,-0.75,-0.27,1.54,
2.332,0.04,-0.13,1.12,-0.75,-0.27,1.54,
2.333,0.04,-0.13,1.12,-0.76,-0.21,1.61,
2.333,0.04,-0.13,1.12,-0.76,-0.21,1.61,
2.333,0.03,-0.12,1.12,-0.76,-0.21,1.61,
2.334,0.03,-0.12,1.12,-0.74,-0.21,1.56,
2.334,0.03,-0.12,1.11,-0.74,-0.21,1.56,
2.335,0.03,-0.12,1.11,-0.80,-0.11,1.49,
2.335,0.03,-0.13,1.11,-0.80,-0.11,1.49,
2.337,0.02,-0.12,1.10,-0.80,-0.11,1.49,
2.34,0.02,-0.12,1.10,-0.84,-0.11,1.39,
2.342,0.02,-0.12,1.10,-0.84,-0.11,1.39,
2.342,0.02,-0.12,1.09,-0.84,-0.11,1.39,
2.345,0.02,-0.12,1.09,-0.91,-0.09,1.27,
2.345,0.02,-0.12,1.08,-0.91,-0.09,1.27,
2.348,0.02,-0.12,1.07,-0.91,-0.09,1.27,
2.35,0.02,-0.12,1.07,-0.91,-0.09,1.27,
2.35,0.02,-0.12,1.07,-0.93,-0.06,1.14,
2.352,0.02,-0.12,1.06,-0.93,-0.06,1.14,
2.355,0.02,-0.12,1.06,-0.93,-0.06,1.14,
2.355,0.02,-0.12,1.06,-0.94,-0.03,0.99,
2.357,0.02,-0.12,1.05,-0.94,-0.03,0.99,
2.361,0.02,-0.13,1.05,-0.94,-0.03,0.99,
2.361,0.02,-0.13,1.05,-0.89,-0.02,0.85,
2.362,0.02,-0.13,1.05,-0.89,-0.02,0.85,
2.365,0.02,-0.13,1.05,-0.88,-0.07,0.81,
2.365,0.03,-0.13,1.05,-0.88,-0.07,0.81,
2.368,0.03,-0.13,1.04,-0.88,-0.07,0.81,
2.37,0.03,-0.13,1.04,-0.88,-0.07,0.81,
2.37,0.03,-0.13,1.04,-0.84,-0.08,0.75,
2.372,0.04,-0.13,1.04,-0.84,-0.08,0.75,
2.375,0.04,-0.13,1.03,-0.84,-0.08,0.75,
2.375,0.04,-0.13,1.03,-0.77,-0.06,0.70,
2.377,0.04,-0.13,1.03,-0.77,-0.06,0.70,
2.38,0.04,-0.12,1.04,-0.77,-0.06,0.70,
2.38,0.04,-0.12,1.04,-0.72,-0.05,0.64,
2.382,0.05,-0.12,1.03,-0.72,-0.05,0.64,
2.385,0.05,-0.12,1.03,-0.72,-0.05,0.64,
2.385,0.05,-0.12,1.03,-0.67,-0.05,0.60,
2.387,0.05,-0.12,1.03,-0.67,-0.05,0.60,
2.39,0.05,-0.12,1.03,-0.60,-0.01,0.58,
2.39,0.06,-0.12,1.02,-0.60,-0.01,0.58,
2.392,0.05,-0.12,1.03,-0.60,-0.01,0.58,
2.394,0.06,-0.12,1.03,-0.60,-0.01,0.58,
2.395,0.06,-0.12,1.03,-0.55,-0.01,0.51,
2.397,0.05,-0.12,1.03,-0.55,-0.01,0.51,
2.4,0.06,-0.12,1.02,-0.55,-0.01,0.51,
2.4,0.06,-0.12,1.02,-0.55,0.03,0.52,
2.402,0.05,-0.12,1.03,-0.55,0.03,0.52,
2.405,0.05,-0.13,1.02,-0.55,0.03,0.52,
2.405,0.05,-0.13,1.02,-0.55,0.03,0.50,
2.407,0.05,-0.13,1.02,-0.55,0.03,0.50,
2.409,0.05,-0.13,1.03,-0.55,0.03,0.50,
2.409,0.05,-0.13,1.03,-0.58,0.01,0.48,
2.412,0.05,-0.13,1.03,-0.58,0.01,0.48,
2.416,0.05,-0.13,1.02,-0.58,0.01,0.48,
2.416,0.05,-0.13,1.02,-0.60,-0.00,0.47,
2.418,0.05,-0.13,1.02,-0.60,-0.00,0.47,
2.419,0.04,-0.14,1.03,-0.60,-0.00,0.47,
2.419,0.04,-0.14,1.03,-0.63,-0.02,0.49,
2.422,0.04,-0.14,1.02,-0.63,-0.02,0.49,
2.425,0.03,-0.14,1.03,-0.63,-0.02,0.49,
2.425,0.03,-0.14,1.03,-0.66,-0.06,0.49,
2.427,0.03,-0.14,1.02,-0.66,-0.06,0.49,
2.429,0.04,-0.14,1.02,-0.66,-0.06,0.49,
2.43,0.04,-0.14,1.02,-0.72,-0.09,0.49,
2.432,0.03,-0.14,1.02,-0.72,-0.09,0.49,
2.434,0.03,-0.15,1.01,-0.72,-0.09,0.49,
2.435,0.03,-0.15,1.01,-0.72,-0.12,0.44,
2.437,0.03,-0.15,1.00,-0.72,-0.12,0.44,
2.44,0.03,-0.15,1.00,-0.73,-0.14,0.36,
2.44,0.03,-0.15,1.01,-0.73,-0.14,0.36,
2.442,0.03,-0.15,1.01,-0.73,-0.14,0.36,
2.448,0.03,-0.15,1.00,-0.73,-0.14,0.36,
2.448,0.03,-0.15,1.00,-0.77,-0.17,0.29,
2.449,0.03,-0.15,1.00,-0.77,-0.17,0.29,
2.449,0.03,-0.15,1.00,-0.78,-0.15,0.30,
2.449,0.03,-0.14,1.01,-0.78,-0.15,0.30,
2.451,0.04,-0.14,1.00,-0.78,-0.15,0.30,
2.454,0.04,-0.14,1.00,-0.78,-0.15,0.30,
2.454,0.04,-0.14,1.00,-0.72,-0.10,0.28,
2.456,0.04,-0.14,0.99,-0.72,-0.10,0.28,
2.46,0.05,-0.14,0.99,-0.72,-0.10,0.28,
2.461,0.05,-0.14,0.99,-0.64,-0.07,0.24,
2.461,0.05,-0.14,1.00,-0.64,-0.07,0.24,
2.463,0.05,-0.14,1.00,-0.57,-0.02,0.16,
2.464,0.05,-0.14,1.00,-0.57,-0.02,0.16,
2.466,0.06,-0.13,0.99,-0.57,-0.02,0.16,
2.468,0.06,-0.13,0.99,-0.53,-0.02,0.18,
2.469,0.06,-0.13,0.98,-0.53,-0.02,0.18,
2.47,0.06,-0.13,0.98,-0.53,-0.02,0.18,
2.473,0.06,-0.13,0.97,-0.53,-0.02,0.18,
2.474,0.06,-0.13,0.97,-0.45,0.08,0.06,
2.479,0.07,-0.13,0.98,-0.45,0.08,0.06,
2.48,0.08,-0.13,0.97,-0.45,0.08,0.06,
2.48,0.08,-0.13,0.97,-0.41,0.10,-0.00,
2.48,0.09,-0.13,0.98,-0.41,0.10,-0.00,
2.483,0.09,-0.13,0.98,-0.41,0.10,-0.00,
2.484,0.09,-0.13,0.98,-0.25,0.13,-0.01,
2.485,0.10,-0.13,0.98,-0.25,0.13,-0.01,
2.488,0.10,-0.13,0.98,-0.12,0.13,0.00,
2.489,0.10,-0.13,0.97,-0.12,0.13,0.00,
2.49,0.11,-0.13,0.98,-0.12,0.13,0.00,
2.494,0.11,-0.14,0.98,-0.12,0.13,0.00,
2.494,0.11,-0.14,0.98,-0.04,0.08,-0.02,
2.495,0.11,-0.15,0.98,-0.04,0.08,-0.02,
2.498,0.11,-0.14,0.99,-0.04,0.08,-0.02,
2.498,0.11,-0.14,0.99,0.05,0.05,0.06,
2.5,0.11,-0.14,0.99,0.05,0.05,0.06,
2.503,0.11,-0.14,1.00,0.05,0.05,0.06,
2.503,0.11,-0.14,1.00,0.07,-0.00,0.09,
2.505,0.11,-0.15,1.01,0.07,-0.00,0.09,
2.508,0.11,-0.15,1.01,0.07,-0.01,0.20,
2.508,0.10,-0.15,1.02,0.07,-0.01,0.20,
2.51,0.10,-0.14,1.02,0.07,-0.01,0.20,
2.513,0.10,-0.14,1.02,0.02,-0.07,0.33,
2.513,0.10,-0.15,1.02,0.02,-0.07,0.33,
2.515,0.09,-0.16,1.02,0.02,-0.07,0.33,
2.519,0.10,-0.16,1.02,0.02,-0.07,0.33,
2.519,0.10,-0.16,1.02,-0.04,-0.05,0.39,
2.52,0.09,-0.16,1.03,-0.04,-0.05,0.39,
2.523,0.09,-0.17,1.03,-0.04,-0.05,0.39,
2.523,0.09,-0.17,1.03,-0.08,-0.14,0.45,
2.525,0.09,-0.16,1.03,-0.08,-0.14,0.45,
2.528,0.09,-0.17,1.03,-0.08,-0.14,0.45,
2.529,0.09,-0.17,1.03,-0.14,-0.19,0.49,
2.53,0.09,-0.17,1.04,-0.14,-0.19,0.49,
2.533,0.09,-0.16,1.05,-0.14,-0.19,0.49,
2.534,0.09,-0.16,1.05,-0.14,-0.18,0.54,
2.535,0.08,-0.16,1.05,-0.14,-0.18,0.54,
2.539,0.08,-0.16,1.05,-0.16,-0.14,0.65,
2.54,0.09,-0.16,1.06,-0.16,-0.14,0.65,
2.54,0.09,-0.16,1.06,-0.16,-0.14,0.65,
2.552,0.08,-0.16,1.06,-0.16,-0.14,0.65,
2.554,0.08,-0.16,1.06,-0.18,-0.13,0.74,
2.554,0.09,-0.15,1.07,-0.18,-0.13,0.74,
2.554,0.09,-0.15,1.08,-0.18,-0.13,0.74,
2.555,0.09,-0.15,1.08,-0.17,-0.06,0.78,
2.556,0.09,-0.15,1.08,-0.17,-0.06,0.78,
2.556,0.09,-0.15,1.08,-0.17,-0.06,0.78,
2.557,0.09,-0.15,1.08,-0.16,-0.02,0.90,
2.558,0.09,-0.15,1.07,-0.16,-0.02,0.90,
2.558,0.09,-0.15,1.08,-0.16,-0.02,0.90,
2.559,0.09,-0.15,1.08,-0.13,-0.02,0.95,
2.57,0.09,-0.15,1.08,-0.13,-0.02,0.95,
2.571,0.09,-0.15,1.08,-0.09,0.01,0.93,
2.571,0.10,-0.15,1.07,-0.09,0.01,0.93,
2.571,0.10,-0.15,1.07,-0.09,0.01,0.93,
2.572,0.10,-0.15,1.06,-0.09,0.01,0.93,
2.572,0.10,-0.15,1.06,-0.07,0.03,0.93,
2.572,0.10,-0.15,1.06,-0.07,0.03,0.93,
2.573,0.10,-0.15,1.06,-0.07,0.03,0.93,
2.573,0.10,-0.15,1.06,-0.00,0.02,0.84,
2.575,0.10,-0.15,1.06,-0.00,0.02,0.84,
2.578,0.09,-0.15,1.05,-0.00,0.02,0.84,
2.579,0.09,-0.15,1.05,-0.00,0.05,0.78,
2.58,0.10,-0.15,1.05,-0.00,0.05,0.78,
2.583,0.09,-0.15,1.05,-0.00,0.05,0.78,
2.583,0.09,-0.15,1.05,-0.01,0.07,0.68,
2.584,0.09,-0.15,1.05,-0.01,0.07,0.68,
2.588,0.09,-0.15,1.05,-0.02,0.10,0.66,
2.588,0.09,-0.15,1.05,-0.02,0.10,0.66,
2.589,0.09,-0.15,1.06,-0.02,0.10,0.66,
2.592,0.09,-0.14,1.06,-0.02,0.10,0.66,
2.592,0.09,-0.14,1.06,-0.06,0.10,0.65,
2.594,0.09,-0.15,1.06,-0.06,0.10,0.65,
2.597,0.09,-0.15,1.06,-0.06,0.10,0.65,
2.597,0.09,-0.15,1.06,-0.03,0.13,0.72,
2.6,0.09,-0.15,1.07,-0.03,0.13,0.72,
2.602,0.10,-0.15,1.07,-0.03,0.13,0.72,
2.602,0.10,-0.15,1.07,-0.02,0.10,0.74,
2.604,0.10,-0.15,1.07,-0.02,0.10,0.74,
2.607,0.11,-0.15,1.07,-0.02,0.10,0.74,
2.607,0.11,-0.15,1.07,0.03,0.13,0.80,
2.611,0.10,-0.15,1.08,0.03,0.13,0.80,
2.613,0.10,-0.15,1.08,0.12,0.10,0.84,
2.613,0.10,-0.15,1.08,0.12,0.10,0.84,
2.614,0.10,-0.15,1.08,0.12,0.10,0.84,
2.617,0.10,-0.15,1.08,0.12,0.10,0.84,
2.617,0.10,-0.15,1.08,0.13,0.09,0.87,
2.619,0.10,-0.16,1.07,0.13,0.09,0.87,
2.622,0.11,-0.16,1.07,0.13,0.09,0.87,
2.623,0.11,-0.16,1.07,0.12,0.05,0.86,
2.624,0.10,-0.16,1.06,0.12,0.05,0.86,
2.629,0.11,-0.16,1.06,0.12,0.05,0.86,
2.63,0.11,-0.16,1.06,0.17,0.01,0.77,
2.63,0.10,-0.16,1.05,0.17,0.01,0.77,
2.632,0.10,-0.16,1.04,0.17,0.01,0.77,
2.637,0.10,-0.16,1.04,0.17,0.01,0.68,
2.638,0.10,-0.16,1.03,0.17,0.01,0.68,
2.639,0.10,-0.16,1.03,0.16,0.01,0.53,
2.64,0.10,-0.16,1.03,0.16,0.01,0.53,
2.64,0.10,-0.16,1.02,0.16,0.01,0.53,
2.642,0.10,-0.16,1.02,0.16,0.01,0.53,
2.642,0.10,-0.16,1.02,0.17,0.02,0.38,
2.646,0.10,-0.16,1.01,0.17,0.02,0.38,
2.647,0.11,-0.16,1.00,0.17,0.02,0.38,
2.648,0.11,-0.16,1.00,0.19,-0.01,0.27,
2.649,0.11,-0.16,1.00,0.19,-0.01,0.27,
2.652,0.11,-0.16,0.99,0.19,-0.01,0.27,
2.652,0.11,-0.16,0.99,0.26,-0.02,0.12,
2.655,0.11,-0.17,0.98,0.26,-0.02,0.12,
2.658,0.12,-0.17,0.98,0.26,-0.02,0.12,
2.658,0.12,-0.17,0.98,0.30,-0.06,0.02,
2.66,0.12,-0.17,0.98,0.30,-0.06,0.02,
2.667,0.12,-0.17,0.98,0.36,-0.09,-0.12,
2.667,0.12,-0.17,0.98,0.36,-0.09,-0.12,
2.667,0.12,-0.17,0.97,0.36,-0.09,-0.12,
2.668,0.12,-0.17,0.96,0.36,-0.09,-0.12,
2.668,0.12,-0.17,0.96,0.41,-0.15,-0.17,
2.669,0.12,-0.17,0.96,0.41,-0.15,-0.17,
2.672,0.12,-0.17,0.96,0.41,-0.15,-0.17,
2.672,0.12,-0.17,0.96,0.45,-0.15,-0.26,
2.674,0.11,-0.17,0.96,0.45,-0.15,-0.26,
2.677,0.11,-0.17,0.95,0.45,-0.15,-0.26,
2.677,0.11,-0.17,0.95,0.46,-0.12,-0.29,
2.679,0.11,-0.17,0.95,0.46,-0.12,-0.29,
2.682,0.11,-0.17,0.95,0.46,-0.12,-0.29,
2.682,0.11,-0.17,0.95,0.42,-0.15,-0.34,
2.684,0.10,-0.17,0.96,0.42,-0.15,-0.34,
2.687,0.10,-0.17,0.96,0.40,-0.11,-0.42,
2.687,0.10,-0.17,0.96,0.40,-0.11,-0.42,
2.689,0.10,-0.17,0.97,0.40,-0.11,-0.42,
2.692,0.10,-0.17,0.97,0.40,-0.11,-0.42,
2.692,0.10,-0.17,0.97,0.33,-0.12,-0.34,
2.694,0.10,-0.17,0.97,0.33,-0.12,-0.34,
2.697,0.10,-0.17,0.97,0.33,-0.12,-0.34,
2.698,0.10,-0.17,0.97,0.33,-0.10,-0.22,
2.699,0.11,-0.17,0.99,0.33,-0.10,-0.22,
2.702,0.11,-0.17,1.00,0.33,-0.10,-0.22,
2.702,0.11,-0.17,1.00,0.35,-0.11,-0.19,
2.704,0.11,-0.17,1.01,0.35,-0.11,-0.19,
2.707,0.11,-0.17,1.01,0.35,-0.11,-0.19,
2.707,0.11,-0.17,1.01,0.40,-0.08,0.01,
2.709,0.11,-0.17,1.02,0.40,-0.08,0.01,
2.713,0.11,-0.17,1.02,0.44,-0.08,0.19,
2.713,0.12,-0.17,1.02,0.44,-0.08,0.19,
2.714,0.12,-0.17,1.02,0.44,-0.08,0.19,
2.716,0.12,-0.16,1.02,0.44,-0.08,0.19,
2.716,0.12,-0.16,1.02,0.48,-0.09,0.26,
2.719,0.12,-0.17,1.02,0.48,-0.09,0.26,
2.722,0.12,-0.16,1.02,0.48,-0.09,0.26,
2.722,0.12,-0.16,1.02,0.53,-0.04,0.31,
2.724,0.13,-0.16,1.03,0.53,-0.04,0.31,
2.727,0.13,-0.16,1.02,0.53,-0.04,0.31,
2.727,0.13,-0.16,1.02,0.54,-0.03,0.29,
2.729,0.13,-0.16,1.02,0.54,-0.03,0.29,
2.731,0.13,-0.16,1.02,0.54,-0.03,0.29,
2.731,0.13,-0.16,1.02,0.60,0.01,0.33,
2.733,0.13,-0.15,1.02,0.60,0.01,0.33,
2.737,0.13,-0.15,1.02,0.61,0.02,0.28,
2.737,0.14,-0.15,1.01,0.61,0.02,0.28,
2.739,0.14,-0.15,1.00,0.61,0.02,0.28,
2.741,0.13,-0.15,1.00,0.61,0.02,0.28,
2.742,0.13,-0.15,1.00,0.67,0.10,0.18,
2.744,0.13,-0.15,0.99,0.67,0.10,0.18,
2.746,0.13,-0.15,0.99,0.67,0.10,0.18,
2.746,0.13,-0.15,0.99,0.70,0.07,0.08,
2.749,0.13,-0.15,0.98,0.70,0.07,0.08,
2.752,0.13,-0.15,0.97,0.70,0.07,0.08,
2.752,0.13,-0.15,0.97,0.65,0.09,-0.04,
2.754,0.13,-0.15,0.98,0.65,0.09,-0.04,
2.757,0.13,-0.16,0.97,0.65,0.09,-0.04,
2.757,0.13,-0.16,0.97,0.67,0.06,-0.17,
2.759,0.13,-0.15,0.97,0.67,0.06,-0.17,
2.761,0.13,-0.15,0.97,0.64,0.04,-0.20,
2.761,0.13,-0.15,0.96,0.64,0.04,-0.20,
2.768,0.13,-0.15,0.97,0.64,0.04,-0.20,
2.769,0.13,-0.15,0.97,0.64,0.04,-0.20,
2.769,0.13,-0.15,0.97,0.69,0.08,-0.28,
2.769,0.13,-0.14,0.98,0.69,0.08,-0.28,
2.774,0.13,-0.15,0.98,0.69,0.08,-0.28,
2.774,0.13,-0.15,0.98,0.71,0.10,-0.22,
2.774,0.13,-0.15,1.00,0.71,0.10,-0.22,
2.776,0.13,-0.15,1.00,0.71,0.10,-0.22,
2.776,0.13,-0.15,1.00,0.72,0.13,-0.13,
2.779,0.12,-0.15,1.01,0.72,0.13,-0.13,
2.781,0.12,-0.15,1.01,0.72,0.13,-0.13,
2.782,0.12,-0.15,1.01,0.68,0.13,0.03,
2.783,0.12,-0.15,1.01,0.68,0.13,0.03,
2.785,0.12,-0.15,1.01,0.64,0.12,0.13,
2.786,0.11,-0.15,1.02,0.64,0.12,0.13,
2.787,0.11,-0.15,1.02,0.64,0.12,0.13,
2.791,0.11,-0.15,1.03,0.64,0.12,0.13,
2.791,0.11,-0.15,1.03,0.55,0.11,0.20,
2.792,0.11,-0.15,1.04,0.55,0.11,0.20,
2.795,0.11,-0.16,1.03,0.55,0.11,0.20,
2.796,0.11,-0.16,1.03,0.52,0.10,0.31,
2.8,0.11,-0.15,1.03,0.52,0.10,0.31,
2.801,0.11,-0.15,1.03,0.52,0.10,0.31,
2.801,0.11,-0.15,1.03,0.53,0.07,0.39,
2.802,0.11,-0.15,1.03,0.53,0.07,0.39,
2.806,0.10,-0.15,1.03,0.53,0.07,0.39,
2.806,0.10,-0.15,1.03,0.54,0.08,0.36,
2.807,0.10,-0.16,1.03,0.54,0.08,0.36,
2.81,0.10,-0.16,1.03,0.50,0.07,0.34,
2.81,0.10,-0.15,1.02,0.50,0.07,0.34,
2.813,0.10,-0.15,1.01,0.50,0.07,0.34,
2.815,0.10,-0.15,1.01,0.50,0.07,0.34,
2.815,0.10,-0.15,1.01,0.47,0.05,0.28,
2.817,0.10,-0.15,1.01,0.47,0.05,0.28,
2.82,0.10,-0.14,1.01,0.47,0.05,0.28,
2.82,0.10,-0.14,1.01,0.43,0.11,0.18,
2.823,0.10,-0.14,1.00,0.43,0.11,0.18,
2.825,0.10,-0.14,1.00,0.43,0.11,0.18,
2.825,0.10,-0.14,1.00,0.46,0.14,0.15,
2.827,0.09,-0.14,1.00,0.46,0.14,0.15,
2.832,0.10,-0.14,1.00,0.46,0.14,0.15,
2.833,0.10,-0.14,1.00,0.43,0.22,0.07,
2.833,0.09,-0.13,1.00,0.43,0.22,0.07,
2.835,0.09,-0.13,1.00,0.43,0.21,0.03,
2.835,0.10,-0.14,1.00,0.43,0.21,0.03,
2.837,0.09,-0.14,1.00,0.43,0.21,0.03,
2.84,0.09,-0.14,1.00,0.43,0.21,0.03,
2.84,0.09,-0.14,1.00,0.44,0.23,0.04,
2.842,0.10,-0.14,1.00,0.44,0.23,0.04,
2.846,0.09,-0.14,1.00,0.44,0.23,0.04,
2.846,0.09,-0.14,1.00,0.42,0.18,0.04,
2.847,0.09,-0.14,1.00,0.42,0.18,0.04,
2.85,0.08,-0.15,1.00,0.42,0.18,0.04,
2.85,0.08,-0.15,1.00,0.42,0.15,0.05,
2.852,0.09,-0.15,0.99,0.42,0.15,0.05,
2.855,0.09,-0.15,1.00,0.42,0.15,0.05,
2.855,0.09,-0.15,1.00,0.37,0.09,0.02,
2.857,0.08,-0.16,0.99,0.37,0.09,0.02,
2.86,0.08,-0.16,0.99,0.39,0.07,-0.02,
2.86,0.08,-0.15,0.99,0.39,0.07,-0.02,
2.863,0.07,-0.15,0.99,0.39,0.07,-0.02,
2.866,0.07,-0.15,0.99,0.31,0.00,-0.06,
2.866,0.08,-0.16,0.99,0.31,0.00,-0.06,
2.867,0.07,-0.16,0.99,0.31,0.00,-0.06,
2.87,0.07,-0.16,0.99,0.31,0.00,-0.06,
2.87,0.07,-0.16,0.99,0.29,-0.00,-0.06,
2.872,0.06,-0.16,1.00,0.29,-0.00,-0.06,
2.875,0.06,-0.16,1.00,0.29,-0.00,-0.06,
2.875,0.06,-0.16,1.00,0.27,-0.07,-0.04,
2.877,0.07,-0.16,1.01,0.27,-0.07,-0.04,
2.889,0.07,-0.16,1.01,0.27,-0.07,-0.04,
2.891,0.07,-0.16,1.01,0.18,-0.06,0.03,
2.891,0.07,-0.16,1.02,0.18,-0.06,0.03,
2.892,0.07,-0.16,1.02,0.25,-0.07,0.10,
2.892,0.08,-0.17,1.03,0.25,-0.07,0.10,
2.893,0.08,-0.16,1.03,0.25,-0.07,0.10,
2.893,0.09,-0.17,1.03,0.25,-0.07,0.10,
2.895,0.09,-0.17,1.03,0.30,-0.09,0.27,
2.896,0.09,-0.17,1.04,0.30,-0.09,0.27,
2.897,0.09,-0.17,1.04,0.30,-0.09,0.27,
2.897,0.09,-0.17,1.04,0.37,-0.11,0.32,
2.898,0.09,-0.18,1.04,0.37,-0.11,0.32,
2.909,0.10,-0.18,1.03,0.37,-0.11,0.32,
2.91,0.10,-0.18,1.03,0.47,-0.20,0.39,
2.91,0.10,-0.18,1.03,0.47,-0.20,0.39,
2.911,0.10,-0.18,1.03,0.47,-0.20,0.39,
2.911,0.10,-0.18,1.03,0.51,-0.23,0.37,
2.911,0.11,-0.18,1.03,0.51,-0.23,0.37,
2.912,0.11,-0.18,1.03,0.57,-0.25,0.35,
2.912,0.11,-0.18,1.02,0.57,-0.25,0.35,
2.912,0.11,-0.18,1.02,0.57,-0.25,0.35,
2.915,0.11,-0.18,1.01,0.57,-0.25,0.35,
2.916,0.11,-0.18,1.01,0.64,-0.26,0.27,
2.916,0.11,-0.17,1.01,0.64,-0.26,0.27,
2.919,0.11,-0.17,1.01,0.64,-0.26,0.27,
2.919,0.11,-0.17,1.01,0.65,-0.24,0.16,
2.921,0.11,-0.17,1.00,0.65,-0.24,0.16,
2.924,0.11,-0.17,0.99,0.65,-0.24,0.16,
2.924,0.11,-0.17,0.99,0.65,-0.19,0.07,
2.926,0.11,-0.16,0.99,0.65,-0.19,0.07,
2.931,0.11,-0.17,0.99,0.65,-0.19,0.07,
2.932,0.11,-0.17,0.99,0.66,-0.17,-0.06,
2.932,0.11,-0.16,0.98,0.66,-0.17,-0.06,
2.934,0.11,-0.16,0.98,0.69,-0.15,-0.12,
2.935,0.11,-0.16,0.98,0.69,-0.15,-0.12,
2.936,0.11,-0.16,0.98,0.69,-0.15,-0.12,
2.94,0.11,-0.16,0.98,0.69,-0.15,-0.12,
2.94,0.11,-0.16,0.98,0.69,-0.13,-0.21,
2.943,0.11,-0.16,0.98,0.69,-0.13,-0.21,
2.945,0.11,-0.16,0.98,0.69,-0.13,-0.21,
2.945,0.11,-0.16,0.98,0.70,-0.11,-0.22,
2.947,0.11,-0.16,0.98,0.70,-0.11,-0.22,
2.949,0.12,-0.16,0.98,0.70,-0.11,-0.22,
2.95,0.12,-0.16,0.98,0.69,-0.15,-0.21,
2.952,0.12,-0.16,0.98,0.69,-0.15,-0.21,
2.955,0.11,-0.16,0.98,0.69,-0.15,-0.21,
2.955,0.11,-0.16,0.98,0.71,-0.11,-0.21,
2.957,0.11,-0.16,0.98,0.71,-0.11,-0.21,
2.959,0.11,-0.16,0.98,0.73,-0.16,-0.23,
2.96,0.12,-0.16,0.97,0.73,-0.16,-0.23,
2.961,0.12,-0.16,0.97,0.73,-0.16,-0.23,
2.968,0.12,-0.16,0.97,0.73,-0.15,-0.24,
2.968,0.12,-0.17,0.98,0.73,-0.15,-0.24,
2.969,0.12,-0.16,0.99,0.73,-0.15,-0.24,
2.969,0.13,-0.16,0.99,0.73,-0.15,-0.24,
2.969,0.13,-0.16,0.99,0.78,-0.19,-0.24,
2.972,0.12,-0.15,0.99,0.78,-0.19,-0.24,
2.974,0.12,-0.15,0.99,0.78,-0.19,-0.24,
2.974,0.12,-0.15,0.99,0.81,-0.15,-0.14,
2.976,0.13,-0.16,1.00,0.81,-0.15,-0.14,
2.98,0.13,-0.16,1.00,0.81,-0.15,-0.14,
2.98,0.13,-0.16,1.00,0.80,-0.10,-0.09,
2.98,0.13,-0.16,1.01,0.80,-0.10,-0.09,
2.984,0.13,-0.16,1.01,0.86,-0.17,0.03,
2.985,0.13,-0.16,1.01,0.86,-0.17,0.03,
2.986,0.13,-0.16,1.01,0.86,-0.17,0.03,
2.992,0.14,-0.17,1.02,0.86,-0.17,0.03,
2.992,0.14,-0.17,1.02,0.88,-0.14,0.09,
2.992,0.14,-0.17,1.02,0.88,-0.14,0.09,
2.994,0.14,-0.17,1.03,0.88,-0.14,0.09,
2.994,0.14,-0.17,1.03,0.92,-0.20,0.14,
2.999,0.14,-0.17,1.03,0.92,-0.20,0.14,
2.999,0.14,-0.17,1.03,0.92,-0.20,0.14,
2.999,0.14,-0.17,1.03,0.97,-0.26,0.22,
3.001,0.14,-0.17,1.03,0.97,-0.26,0.22,
3.003,0.14,-0.16,1.03,0.97,-0.26,0.22,
3.003,0.14,-0.16,1.03,0.99,-0.24,0.27,
3.005,0.14,-0.16,1.04,0.99,-0.24,0.27,
3.009,0.14,-0.16,1.04,0.97,-0.22,0.29,
3.009,0.14,-0.16,1.04,0.97,-0.22,0.29,
3.011,0.14,-0.16,1.03,0.97,-0.22,0.29,
3.013,0.14,-0.16,1.03,0.97,-0.22,0.29,
3.014,0.14,-0.16,1.03,0.92,-0.21,0.35,
3.015,0.13,-0.16,1.03,0.92,-0.21,0.35,
3.019,0.13,-0.16,1.02,0.92,-0.21,0.35,
3.019,0.13,-0.16,1.02,0.93,-0.19,0.28,
3.021,0.12,-0.16,1.02,0.93,-0.19,0.28,
3.024,0.12,-0.16,1.02,0.93,-0.19,0.28,
3.024,0.12,-0.16,1.02,0.87,-0.19,0.25,
3.026,0.12,-0.15,1.02,0.87,-0.19,0.25,
3.029,0.12,-0.15,1.01,0.87,-0.19,0.25,
3.029,0.12,-0.15,1.01,0.78,-0.17,0.16,
3.031,0.12,-0.15,1.00,0.78,-0.17,0.16,
3.034,0.12,-0.15,1.00,0.78,-0.17,0.16,
3.034,0.12,-0.15,1.00,0.79,-0.13,0.08,
3.036,0.11,-0.15,0.98,0.79,-0.13,0.08,
3.039,0.11,-0.14,0.98,0.79,-0.13,0.08,
3.039,0.11,-0.14,0.98,0.77,-0.10,-0.06,
3.041,0.11,-0.14,0.98,0.77,-0.10,-0.06,
3.044,0.11,-0.14,0.98,0.77,-0.10,-0.06,
3.044,0.11,-0.14,0.98,0.70,-0.08,-0.20,
3.046,0.11,-0.14,0.97,0.70,-0.08,-0.20,
3.049,0.11,-0.14,0.97,0.70,-0.08,-0.20,
3.05,0.11,-0.14,0.97,0.72,-0.05,-0.23,
3.05,0.11,-0.14,0.97,0.72,-0.05,-0.23,
3.054,0.11,-0.13,0.97,0.72,-0.05,-0.23,
3.054,0.11,-0.13,0.97,0.69,-0.02,-0.31,
3.056,0.11,-0.14,0.97,0.69,-0.02,-0.31,
3.059,0.11,-0.14,0.97,0.70,-0.02,-0.34,
3.059,0.11,-0.13,0.96,0.70,-0.02,-0.34,
3.061,0.11,-0.14,0.96,0.70,-0.02,-0.34,
3.064,0.11,-0.13,0.96,0.70,-0.02,-0.34,
3.065,0.11,-0.13,0.96,0.71,-0.01,-0.39,
3.065,0.11,-0.14,0.96,0.71,-0.01,-0.39,
3.069,0.11,-0.14,0.96,0.71,-0.01,-0.39,
3.069,0.11,-0.14,0.96,0.72,-0.02,-0.40,
3.071,0.11,-0.14,0.96,0.72,-0.02,-0.40,
3.073,0.11,-0.14,0.95,0.72,-0.02,-0.40,
3.074,0.11,-0.14,0.95,0.72,-0.03,-0.42,
3.076,0.11,-0.14,0.96,0.72,-0.03,-0.42,
3.078,0.11,-0.14,0.96,0.72,-0.03,-0.42,
3.079,0.11,-0.14,0.96,0.72,-0.05,-0.45,
3.081,0.11,-0.13,0.96,0.72,-0.05,-0.45,
3.083,0.11,-0.13,0.96,0.72,-0.05,-0.45,
3.083,0.11,-0.13,0.96,0.72,-0.04,-0.41,
3.086,0.10,-0.12,0.97,0.72,-0.04,-0.41,
3.088,0.11,-0.13,0.98,0.72,-0.04,-0.41,
3.089,0.11,-0.13,0.98,0.70,0.01,-0.39,
3.09,0.11,-0.12,0.99,0.70,0.01,-0.39,
3.093,0.11,-0.12,0.99,0.70,0.01,-0.39,
3.094,0.11,-0.12,0.99,0.68,0.06,-0.25,
3.096,0.10,-0.12,1.00,0.68,0.06,-0.25,
3.103,0.11,-0.12,1.00,0.68,0.06,-0.25,
3.104,0.11,-0.12,1.00,0.70,0.08,-0.11,
3.104,0.11,-0.12,1.01,0.70,0.08,-0.11,
3.104,0.12,-0.12,1.02,0.70,0.08,-0.11,
3.104,0.12,-0.12,1.02,0.67,0.06,0.01,
3.105,0.12,-0.12,1.02,0.67,0.06,0.01,
3.107,0.12,-0.12,1.02,0.75,0.07,0.10,
3.107,0.12,-0.12,1.02,0.75,0.07,0.10,
3.11,0.11,-0.12,1.02,0.75,0.07,0.10,
3.114,0.12,-0.12,1.02,0.75,0.07,0.10,
3.115,0.12,-0.12,1.02,0.78,0.10,0.17,
3.115,0.12,-0.11,1.03,0.78,0.10,0.17,
3.117,0.12,-0.11,1.02,0.78,0.10,0.17,
3.118,0.12,-0.11,1.02,0.79,0.12,0.21,
3.119,0.12,-0.11,1.02,0.79,0.12,0.21,
3.123,0.12,-0.11,1.02,0.79,0.12,0.21,
3.123,0.12,-0.11,1.02,0.84,0.15,0.23,
3.125,0.13,-0.11,1.02,0.84,0.15,0.23,
3.128,0.13,-0.11,1.02,0.86,0.16,0.19,
3.13,0.13,-0.10,1.02,0.86,0.16,0.19,
3.13,0.14,-0.10,1.01,0.86,0.16,0.19,
3.133,0.14,-0.10,1.01,0.86,0.16,0.19,
3.133,0.14,-0.10,1.01,0.91,0.21,0.16,
3.134,0.14,-0.09,1.00,0.91,0.21,0.16,
3.137,0.14,-0.09,1.00,1.00,0.25,0.09,
3.137,0.14,-0.09,1.00,1.00,0.25,0.09,
3.14,0.14,-0.09,1.00,1.00,0.25,0.09,
3.142,0.14,-0.09,1.00,1.00,0.25,0.09,
3.143,0.14,-0.09,1.00,1.02,0.33,0.00,
3.145,0.14,-0.09,0.99,1.02,0.33,0.00,
3.148,0.14,-0.09,0.99,1.02,0.33,0.00,
3.149,0.14,-0.09,0.99,1.03,0.33,-0.05,
3.149,0.14,-0.10,0.99,1.03,0.33,-0.05,
3.152,0.14,-0.10,0.99,1.03,0.33,-0.05,
3.153,0.14,-0.10,0.99,1.04,0.29,-0.11,
3.155,0.14,-0.09,0.99,1.04,0.29,-0.11,
3.157,0.14,-0.09,0.99,1.05,0.25,-0.12,
3.158,0.14,-0.10,0.99,1.05,0.25,-0.12,
3.159,0.14,-0.10,0.99,1.05,0.25,-0.12,
3.162,0.14,-0.10,0.99,1.05,0.25,-0.13,
3.163,0.14,-0.10,0.99,1.05,0.25,-0.13,
3.165,0.14,-0.10,1.00,1.05,0.25,-0.13,
3.167,0.14,-0.10,1.00,1.05,0.25,-0.13,
3.167,0.14,-0.10,1.00,1.03,0.20,-0.09,
3.169,0.13,-0.11,1.00,1.03,0.20,-0.09,
3.172,0.13,-0.11,1.00,1.03,0.20,-0.09,
3.173,0.13,-0.11,1.00,1.04,0.16,-0.02,
3.174,0.13,-0.11,1.01,1.04,0.16,-0.02,
3.177,0.13,-0.12,1.01,1.04,0.16,-0.02,
3.177,0.13,-0.12,1.01,0.97,0.11,-0.00,
3.18,0.12,-0.12,1.01,0.97,0.11,-0.00,
3.182,0.12,-0.12,1.01,0.93,0.00,0.06,
3.183,0.12,-0.13,1.01,0.93,0.00,0.06,
3.184,0.12,-0.13,1.02,0.93,0.00,0.06,
3.187,0.12,-0.14,1.01,0.93,0.00,0.06,
3.187,0.12,-0.14,1.01,0.86,-0.07,0.06,
3.19,0.12,-0.14,1.01,0.86,-0.07,0.06,
3.192,0.12,-0.14,1.00,0.86,-0.07,0.06,
3.192,0.12,-0.14,1.00,0.85,-0.16,0.09,
3.194,0.12,-0.14,1.00,0.85,-0.16,0.09,
3.196,0.12,-0.14,0.99,0.85,-0.16,0.09,
3.197,0.12,-0.14,0.99,0.86,-0.20,0.01,
3.203,0.12,-0.14,0.98,0.86,-0.20,0.01,
3.203,0.12,-0.14,0.97,0.86,-0.20,0.01,
3.204,0.12,-0.14,0.97,0.90,-0.25,-0.10,
3.204,0.13,-0.15,0.97,0.90,-0.25,-0.10,
3.208,0.13,-0.15,0.97,0.91,-0.30,-0.25,
3.208,0.12,-0.14,0.96,0.91,-0.30,-0.25,
3.209,0.12,-0.14,0.96,0.91,-0.30,-0.25,
3.212,0.12,-0.14,0.96,0.91,-0.32,-0.37,
3.212,0.12,-0.14,0.95,0.91,-0.32,-0.37,
3.218,0.12,-0.14,0.95,0.91,-0.32,-0.37,
3.219,0.12,-0.13,0.94,0.91,-0.32,-0.37,
3.219,0.12,-0.13,0.94,0.89,-0.30,-0.46,
3.22,0.11,-0.14,0.94,0.89,-0.30,-0.46,
3.221,0.11,-0.13,0.93,0.89,-0.30,-0.46,
3.222,0.11,-0.13,0.93,0.83,-0.26,-0.60,
3.224,0.11,-0.13,0.93,0.83,-0.26,-0.60,
3.227,0.11,-0.12,0.93,0.83,-0.26,-0.60,
3.227,0.11,-0.12,0.93,0.81,-0.25,-0.69,
3.229,0.11,-0.12,0.93,0.81,-0.25,-0.69,
3.231,0.11,-0.12,0.93,0.74,-0.18,-0.74,
3.232,0.11,-0.12,0.93,0.74,-0.18,-0.74,
3.234,0.10,-0.11,0.93,0.74,-0.18,-0.74,
3.236,0.11,-0.11,0.92,0.74,-0.18,-0.74,
3.236,0.11,-0.11,0.92,0.74,-0.16,-0.73,
3.239,0.11,-0.10,0.92,0.74,-0.16,-0.73,
3.242,0.10,-0.10,0.93,0.74,-0.16,-0.73,
3.242,0.10,-0.10,0.93,0.69,-0.09,-0.76,
3.244,0.10,-0.10,0.93,0.69,-0.09,-0.76,
3.247,0.11,-0.09,0.93,0.69,-0.09,-0.76,
3.247,0.11,-0.09,0.93,0.68,-0.02,-0.75,
3.249,0.10,-0.09,0.94,0.68,-0.02,-0.75,
3.252,0.11,-0.09,0.94,0.68,-0.02,-0.75,
3.252,0.11,-0.09,0.94,0.66,0.05,-0.71,
3.253,0.11,-0.09,0.94,0.66,0.05,-0.71,
3.257,0.11,-0.09,0.94,0.66,0.04,-0.63,
3.257,0.11,-0.09,0.94,0.66,0.04,-0.63,
3.259,0.11,-0.09,0.95,0.66,0.04,-0.63,
3.262,0.11,-0.09,0.95,0.66,0.04,-0.63,
3.262,0.11,-0.09,0.95,0.69,0.02,-0.59,
3.264,0.12,-0.10,0.95,0.69,0.02,-0.59,
3.267,0.12,-0.10,0.95,0.69,0.02,-0.59,
3.268,0.12,-0.10,0.95,0.70,0.00,-0.49,
3.269,0.12,-0.10,0.95,0.70,0.00,-0.49,
3.272,0.12,-0.10,0.95,0.70,0.00,-0.49,
3.272,0.12,-0.10,0.95,0.75,-0.08,-0.50,
3.273,0.13,-0.11,0.95,0.75,-0.08,-0.50,
3.277,0.13,-0.11,0.95,0.78,-0.10,-0.45,
3.277,0.12,-0.11,0.96,0.78,-0.10,-0.45,
3.278,0.12,-0.11,0.96,0.78,-0.10,-0.45,
3.283,0.12,-0.11,0.96,0.79,-0.18,-0.43,
3.284,0.12,-0.11,0.96,0.79,-0.18,-0.43,
3.284,0.12,-0.12,0.97,0.79,-0.18,-0.43,
3.286,0.12,-0.12,0.97,0.79,-0.18,-0.43,
3.286,0.12,-0.12,0.97,0.77,-0.23,-0.38,
3.289,0.12,-0.13,0.97,0.77,-0.23,-0.38,
3.291,0.12,-0.13,0.96,0.77,-0.23,-0.38,
3.292,0.12,-0.13,0.96,0.74,-0.29,-0.33,
3.296,0.11,-0.13,0.96,0.74,-0.29,-0.33,
3.297,0.11,-0.14,0.95,0.74,-0.29,-0.33,
3.297,0.11,-0.14,0.95,0.69,-0.41,-0.32,
3.298,0.10,-0.13,0.96,0.69,-0.41,-0.32,
3.301,0.10,-0.13,0.95,0.69,-0.41,-0.32,
3.302,0.10,-0.13,0.95,0.59,-0.46,-0.42,
3.303,0.10,-0.13,0.95,0.59,-0.46,-0.42,
3.306,0.10,-0.13,0.95,0.52,-0.42,-0.42,
3.306,0.12,-0.12,0.94,0.52,-0.42,-0.42,
3.308,0.17,-0.11,0.93,0.52,-0.42,-0.42,
3.31,0.25,-0.08,0.93,0.52,-0.42,-0.42,
3.311,0.25,-0.08,0.93,0.58,-0.37,-0.52,
3.313,0.35,-0.04,0.93,0.58,-0.37,-0.52,
3.321,0.42,-0.01,0.96,0.58,-0.37,-0.52,
3.322,0.42,-0.01,0.96,1.55,-0.06,-0.64,
3.322,0.41,0.02,0.96,1.55,-0.06,-0.64,
3.322,0.33,0.04,0.94,1.55,-0.06,-0.64,
3.322,0.33,0.04,0.94,3.24,0.60,-0.51,
3.323,0.23,0.04,0.90,3.24,0.60,-0.51,
3.325,0.14,0.04,0.89,3.24,0.60,-0.51,
3.326,0.14,0.04,0.89,3.08,1.08,-0.43,
3.328,0.11,0.04,0.89,3.08,1.08,-0.43,
3.332,0.11,0.04,0.89,1.26,1.18,-1.00,
3.332,0.14,0.05,0.89,1.26,1.18,-1.00,
3.333,0.20,0.06,0.90,1.26,1.18,-1.00,
3.336,0.27,0.07,0.93,1.26,1.18,-1.00,
3.336,0.27,0.07,0.93,0.63,1.21,-1.05,
3.337,0.31,0.07,0.97,0.63,1.21,-1.05,
3.341,0.32,0.05,1.01,0.63,1.21,-1.05,
3.341,0.32,0.05,1.01,1.69,1.40,-0.74,
3.343,0.28,0.04,1.04,1.69,1.40,-0.74,
3.346,0.24,0.02,1.06,1.69,1.40,-0.74,
3.346,0.24,0.02,1.06,2.47,1.35,-0.06,
3.347,0.20,-0.00,1.07,2.47,1.35,-0.06,
3.35,0.17,-0.02,1.07,2.47,1.35,-0.06,
3.351,0.17,-0.02,1.07,1.95,1.01,0.53,
3.353,0.15,-0.04,1.07,1.95,1.01,0.53,
3.355,0.15,-0.04,1.07,1.17,0.59,0.73,
3.355,0.14,-0.05,1.06,1.17,0.59,0.73,
3.357,0.13,-0.06,1.06,1.17,0.59,0.73,
3.361,0.13,-0.06,1.06,0.77,0.28,0.66,
3.362,0.13,-0.08,1.07,0.77,0.28,0.66,
3.362,0.12,-0.08,1.06,0.77,0.28,0.66,
3.366,0.12,-0.09,1.05,0.77,0.28,0.66,
3.367,0.12,-0.09,1.05,0.62,0.01,0.69,
3.367,0.11,-0.09,1.04,0.62,0.01,0.69,
3.37,0.10,-0.09,1.02,0.62,0.01,0.69,
3.37,0.10,-0.09,1.02,0.52,-0.16,0.61,
3.372,0.08,-0.09,1.00,0.52,-0.16,0.61,
3.375,0.06,-0.09,0.99,0.52,-0.16,0.61,
3.376,0.06,-0.09,0.99,0.38,-0.26,0.28,
3.377,0.04,-0.09,0.97,0.38,-0.26,0.28,
3.381,0.04,-0.09,0.97,0.02,-0.25,-0.06,
3.381,0.02,-0.10,0.96,0.02,-0.25,-0.06,
3.383,0.01,-0.10,0.96,0.02,-0.25,-0.06,
3.385,0.01,-0.10,0.96,-0.35,-0.31,-0.33,
3.386,-0.01,-0.11,0.95,-0.35,-0.31,-0.33,
3.387,-0.02,-0.11,0.94,-0.35,-0.31,-0.33,
3.39,-0.02,-0.11,0.93,-0.35,-0.31,-0.33,
3.391,-0.02,-0.11,0.93,-0.65,-0.40,-0.44,
3.392,-0.03,-0.11,0.94,-0.65,-0.40,-0.44,
3.395,-0.04,-0.12,0.93,-0.65,-0.40,-0.44,
3.395,-0.04,-0.12,0.93,-0.85,-0.45,-0.57,
3.397,-0.04,-0.12,0.93,-0.85,-0.45,-0.57,
3.4,-0.04,-0.12,0.93,-0.85,-0.45,-0.57,
3.401,-0.04,-0.12,0.93,-1.01,-0.53,-0.61,
3.402,-0.04,-0.12,0.93,-1.01,-0.53,-0.61,
3.405,-0.04,-0.12,0.93,-1.05,-0.58,-0.69,
3.406,-0.04,-0.12,0.94,-1.05,-0.58,-0.69,
3.407,-0.04,-0.12,0.95,-1.05,-0.58,-0.69,
3.411,-0.04,-0.12,0.96,-1.05,-0.58,-0.69,
3.412,-0.04,-0.12,0.96,-1.11,-0.63,-0.59,
3.412,-0.04,-0.12,0.97,-1.11,-0.63,-0.59,
3.415,-0.03,-0.12,0.98,-1.11,-0.63,-0.59,
3.415,-0.03,-0.12,0.98,-1.11,-0.64,-0.43,
3.422,-0.03,-0.11,1.00,-1.11,-0.64,-0.43,
3.423,-0.02,-0.11,1.01,-1.11,-0.64,-0.43,
3.423,-0.02,-0.11,1.01,-1.06,-0.63,-0.19,
3.423,-0.01,-0.10,1.03,-1.06,-0.63,-0.19,
3.427,-0.00,-0.09,1.04,-1.06,-0.63,-0.19,
3.428,-0.00,-0.09,1.04,-1.00,-0.54,0.04,
3.428,0.01,-0.09,1.05,-1.00,-0.54,0.04,
3.43,0.01,-0.09,1.05,-0.84,-0.43,0.34,
3.43,0.02,-0.08,1.06,-0.84,-0.43,0.34,
3.45,0.03,-0.07,1.06,-0.84,-0.43,0.34,
3.451,0.05,-0.06,1.07,-0.84,-0.43,0.34,
3.451,0.05,-0.06,1.07,-0.64,-0.32,0.56,
3.451,0.06,-0.05,1.07,-0.64,-0.32,0.56,
3.451,0.08,-0.04,1.08,-0.64,-0.32,0.56,
3.451,0.08,-0.04,1.08,-0.40,-0.15,0.70,
3.451,0.09,-0.03,1.07,-0.40,-0.15,0.70,
3.451,0.10,-0.02,1.07,-0.40,-0.15,0.70,
3.452,0.10,-0.02,1.07,-0.15,0.02,0.78,
3.452,0.10,-0.01,1.07,-0.15,0.02,0.78,
3.452,0.11,-0.01,1.07,-0.15,0.02,0.78,
3.452,0.11,-0.01,1.07,0.08,0.18,0.71,
3.452,0.11,-0.01,1.06,0.08,0.18,0.71,
3.455,0.11,-0.01,1.06,0.15,0.30,0.70,
3.455,0.11,-0.00,1.06,0.15,0.30,0.70,
3.456,0.10,0.00,1.05,0.15,0.30,0.70,
3.459,0.10,-0.00,1.04,0.15,0.30,0.70,
3.459,0.10,-0.00,1.04,0.18,0.35,0.62,
3.461,0.10,-0.00,1.04,0.18,0.35,0.62,
3.464,0.10,-0.01,1.03,0.18,0.35,0.62,
3.464,0.10,-0.01,1.03,0.11,0.36,0.48,
3.467,0.10,-0.01,1.01,0.11,0.36,0.48,
3.47,0.10,-0.01,1.00,0.11,0.36,0.48,
3.471,0.10,-0.01,1.00,0.07,0.27,0.33,
3.471,0.09,-0.01,1.00,0.07,0.27,0.33,
3.474,0.09,-0.01,1.00,0.04,0.20,0.10,
3.474,0.08,-0.02,0.99,0.04,0.20,0.10,
3.476,0.07,-0.02,0.99,0.04,0.20,0.10,
3.479,0.07,-0.02,0.99,-0.07,0.13,-0.01,
3.479,0.06,-0.02,0.98,-0.07,0.13,-0.01,
3.483,0.06,-0.02,0.98,-0.07,0.13,-0.01,
3.483,0.06,-0.02,0.98,-0.07,0.13,-0.01,
3.484,0.06,-0.02,0.98,-0.26,0.07,-0.10,
3.485,0.05,-0.03,0.97,-0.26,0.07,-0.10,
3.488,0.05,-0.03,0.97,-0.38,0.03,-0.17,
3.489,0.05,-0.03,0.97,-0.38,0.03,-0.17,
3.492,0.05,-0.03,0.96,-0.38,0.03,-0.17,
3.494,0.05,-0.04,0.95,-0.38,0.03,-0.17,
3.494,0.05,-0.04,0.95,-0.46,-0.06,-0.25,
3.496,0.04,-0.04,0.95,-0.46,-0.06,-0.25,
3.5,0.04,-0.05,0.94,-0.46,-0.06,-0.25,
3.501,0.04,-0.05,0.94,-0.51,-0.13,-0.38,
3.501,0.04,-0.05,0.94,-0.51,-0.13,-0.38,
3.504,0.04,-0.05,0.94,-0.55,-0.23,-0.51,
3.504,0.03,-0.05,0.94,-0.55,-0.23,-0.51,
3.506,0.03,-0.05,0.95,-0.55,-0.23,-0.51,
3.509,0.03,-0.05,0.95,-0.55,-0.23,-0.51,
3.509,0.03,-0.05,0.95,-0.62,-0.27,-0.54,
3.511,0.03,-0.04,0.95,-0.62,-0.27,-0.54,
3.513,0.03,-0.05,0.96,-0.62,-0.27,-0.54,
3.514,0.03,-0.05,0.96,-0.70,-0.29,-0.49,
3.516,0.04,-0.04,0.97,-0.70,-0.29,-0.49,
3.519,0.04,-0.04,0.97,-0.70,-0.29,-0.49,
3.519,0.04,-0.04,0.97,-0.65,-0.26,-0.43,
3.521,0.04,-0.04,0.98,-0.65,-0.26,-0.43,
3.524,0.04,-0.04,0.98,-0.61,-0.22,-0.26,
3.524,0.05,-0.03,0.99,-0.61,-0.22,-0.26,
3.526,0.05,-0.03,1.00,-0.61,-0.22,-0.26,
3.528,0.05,-0.03,1.00,-0.54,-0.15,-0.10,
3.528,0.05,-0.03,1.01,-0.54,-0.15,-0.10,
3.531,0.05,-0.03,1.02,-0.54,-0.15,-0.10,
3.541,0.05,-0.02,1.03,-0.54,-0.15,-0.10,
3.543,0.05,-0.02,1.03,-0.49,-0.13,0.10,
3.543,0.05,-0.02,1.04,-0.49,-0.13,0.10,
3.543,0.06,-0.02,1.04,-0.49,-0.13,0.10,
3.543,0.06,-0.02,1.04,-0.52,-0.07,0.27,
3.544,0.06,-0.01,1.05,-0.52,-0.07,0.27,
3.544,0.06,-0.01,1.05,-0.52,-0.07,0.27,
3.544,0.06,-0.01,1.05,-0.50,-0.03,0.43,
3.545,0.07,-0.01,1.05,-0.50,-0.03,0.43,
3.551,0.07,-0.02,1.05,-0.50,-0.03,0.43,
3.552,0.07,-0.02,1.05,-0.44,0.03,0.50,
3.552,0.07,-0.02,1.04,-0.44,0.03,0.50,
3.553,0.07,-0.02,1.04,-0.40,0.00,0.50,
3.553,0.08,-0.02,1.03,-0.40,0.00,0.50,
3.555,0.07,-0.03,1.03,-0.40,0.00,0.50,
3.558,0.08,-0.03,1.02,-0.40,0.00,0.50,
3.558,0.08,-0.03,1.02,-0.34,-0.05,0.38,
3.56,0.08,-0.03,1.01,-0.34,-0.05,0.38,
3.564,0.08,-0.04,1.00,-0.34,-0.05,0.38,
3.564,0.08,-0.04,1.00,-0.33,-0.14,0.25,
3.565,0.08,-0.04,0.99,-0.33,-0.14,0.25,
3.568,0.08,-0.04,0.99,-0.29,-0.20,0.11,
3.569,0.09,-0.04,0.99,-0.29,-0.20,0.11,
3.57,0.08,-0.04,0.98,-0.29,-0.20,0.11,
3.573,0.08,-0.04,0.98,-0.29,-0.20,0.11,
3.573,0.08,-0.04,0.98,-0.23,-0.26,-0.06,
3.575,0.07,-0.04,0.97,-0.23,-0.26,-0.06,
3.579,0.07,-0.04,0.97,-0.28,-0.31,-0.13,
3.58,0.07,-0.04,0.97,-0.28,-0.31,-0.13,
3.58,0.06,-0.04,0.96,-0.28,-0.31,-0.13,
3.584,0.06,-0.04,0.97,-0.28,-0.31,-0.13,
3.585,0.06,-0.04,0.97,-0.36,-0.30,-0.25,
3.585,0.06,-0.04,0.96,-0.36,-0.30,-0.25,
3.588,0.06,-0.04,0.96,-0.36,-0.30,-0.25,
3.588,0.06,-0.04,0.96,-0.44,-0.28,-0.30,
3.59,0.06,-0.03,0.97,-0.44,-0.28,-0.30,
3.593,0.06,-0.02,0.97,-0.44,-0.28,-0.30,
3.593,0.06,-0.02,0.97,-0.47,-0.23,-0.33,
3.595,0.06,-0.02,0.97,-0.47,-0.23,-0.33,
3.598,0.06,-0.02,0.97,-0.47,-0.23,-0.33,
3.598,0.06,-0.02,0.97,-0.45,-0.15,-0.26,
3.602,0.06,-0.02,0.97,-0.45,-0.15,-0.26,
3.603,0.06,-0.02,0.97,-0.45,-0.15,-0.26,
3.603,0.06,-0.02,0.97,-0.47,-0.08,-0.23,
3.604,0.06,-0.02,0.97,-0.47,-0.08,-0.23,
3.607,0.05,-0.02,0.98,-0.47,-0.08,-0.23,
3.608,0.05,-0.02,0.98,-0.46,-0.06,-0.21,
3.609,0.06,-0.02,0.98,-0.46,-0.06,-0.21,
3.612,0.06,-0.02,0.97,-0.46,-0.06,-0.21,
3.612,0.06,-0.02,0.97,-0.49,-0.05,-0.23,
3.615,0.06,-0.02,0.98,-0.49,-0.05,-0.23,
3.617,0.06,-0.02,0.98,-0.47,-0.06,-0.20,
3.618,0.06,-0.02,0.98,-0.47,-0.06,-0.20,
3.62,0.06,-0.02,0.99,-0.47,-0.06,-0.20,
3.622,0.06,-0.02,1.00,-0.47,-0.06,-0.20,
3.624,0.06,-0.02,1.00,-0.49,-0.06,-0.16,
3.624,0.06,-0.02,1.00,-0.49,-0.06,-0.16,
3.627,0.06,-0.02,1.00,-0.51,-0.09,-0.01,
3.628,0.07,-0.02,1.01,-0.51,-0.09,-0.01,
3.629,0.08,-0.02,1.02,-0.51,-0.09,-0.01,
3.635,0.08,-0.01,1.03,-0.51,-0.09,-0.01,
3.636,0.08,-0.01,1.03,-0.41,-0.08,0.12,
3.636,0.09,-0.01,1.03,-0.41,-0.08,0.12,
3.637,0.10,-0.01,1.03,-0.41,-0.08,0.12,
3.637,0.10,-0.01,1.03,-0.27,-0.03,0.27,
3.641,0.10,-0.01,1.03,-0.27,-0.03,0.27,
3.641,0.11,-0.01,1.03,-0.27,-0.03,0.27,
3.642,0.11,-0.01,1.03,-0.16,-0.02,0.30,
3.644,0.11,-0.01,1.03,-0.16,-0.02,0.30,
3.647,0.11,-0.01,1.03,-0.03,0.01,0.30,
3.647,0.12,-0.01,1.03,-0.03,0.01,0.30,
3.649,0.12,-0.01,1.04,-0.03,0.01,0.30,
3.652,0.12,-0.01,1.04,0.05,0.00,0.38,
3.652,0.12,-0.01,1.03,0.05,0.00,0.38,
3.654,0.12,-0.00,1.03,0.05,0.00,0.38,
3.657,0.13,-0.01,1.03,0.05,0.00,0.38,
3.657,0.13,-0.01,1.03,0.10,-0.03,0.38,
3.659,0.12,-0.00,1.02,0.10,-0.03,0.38,
3.663,0.12,0.00,1.03,0.10,-0.03,0.38,
3.663,0.12,0.00,1.03,0.10,-0.01,0.32,
3.664,0.12,0.00,1.02,0.10,-0.01,0.32,
3.666,0.11,0.00,1.01,0.10,-0.01,0.32,
3.667,0.11,0.00,1.01,0.06,0.02,0.30,
3.669,0.11,0.00,1.01,0.06,0.02,0.30,
3.672,0.11,0.00,0.99,0.06,0.02,0.30,
3.672,0.11,0.00,0.99,0.01,0.03,0.16,
3.675,0.10,-0.00,0.98,0.01,0.03,0.16,
3.677,0.10,-0.00,0.98,-0.04,0.00,0.04,
3.677,0.10,0.00,0.98,-0.04,0.00,0.04,
3.679,0.09,-0.00,0.97,-0.04,0.00,0.04,
3.684,0.09,-0.00,0.96,-0.04,0.00,0.04,
3.685,0.09,-0.00,0.96,-0.13,-0.01,-0.17,
3.685,0.08,-0.01,0.95,-0.13,-0.01,-0.17,
3.686,0.08,-0.01,0.95,-0.13,-0.01,-0.17,
3.687,0.08,-0.01,0.95,-0.24,-0.08,-0.32,
3.69,0.08,-0.01,0.94,-0.24,-0.08,-0.32,
3.692,0.08,-0.02,0.93,-0.24,-0.08,-0.32,
3.692,0.08,-0.02,0.93,-0.32,-0.15,-0.46,
3.694,0.08,-0.02,0.93,-0.32,-0.15,-0.46,
3.697,0.08,-0.02,0.93,-0.35,-0.19,-0.55,
3.697,0.07,-0.01,0.93,-0.35,-0.19,-0.55,
3.699,0.07,-0.02,0.93,-0.35,-0.19,-0.55,
3.702,0.07,-0.02,0.94,-0.35,-0.19,-0.55,
3.702,0.07,-0.02,0.94,-0.40,-0.20,-0.60,
3.704,0.08,-0.01,0.94,-0.40,-0.20,-0.60,
3.707,0.08,-0.02,0.95,-0.40,-0.20,-0.60,
3.707,0.08,-0.02,0.95,-0.41,-0.23,-0.59,
3.709,0.09,-0.01,0.95,-0.41,-0.23,-0.59,
3.712,0.09,-0.02,0.96,-0.41,-0.23,-0.59,
3.712,0.09,-0.02,0.96,-0.34,-0.20,-0.48,
3.714,0.09,-0.01,0.96,-0.34,-0.20,-0.48,
3.717,0.09,-0.01,0.97,-0.34,-0.20,-0.48,
3.718,0.09,-0.01,0.97,-0.27,-0.19,-0.38,
3.718,0.09,-0.01,0.98,-0.27,-0.19,-0.38,
3.722,0.09,-0.01,0.98,-0.27,-0.19,-0.38,
3.722,0.09,-0.01,0.98,-0.25,-0.17,-0.25,
3.724,0.09,-0.02,0.99,-0.25,-0.17,-0.25,
3.726,0.09,-0.02,0.99,-0.22,-0.17,-0.15,
3.727,0.09,-0.02,0.99,-0.22,-0.17,-0.15,
3.729,0.10,-0.02,0.99,-0.22,-0.17,-0.15,
3.732,0.09,-0.02,1.00,-0.22,-0.17,-0.15,
3.732,0.09,-0.02,1.00,-0.22,-0.20,-0.03,
3.734,0.09,-0.02,1.00,-0.22,-0.20,-0.03,
3.736,0.09,-0.01,1.01,-0.22,-0.20,-0.03,
3.736,0.09,-0.01,1.01,-0.20,-0.21,0.03,
3.739,0.09,-0.01,1.01,-0.20,-0.21,0.03,
3.742,0.09,-0.01,1.01,-0.20,-0.21,0.03,
3.742,0.09,-0.01,1.01,-0.23,-0.19,0.10,
3.744,0.09,-0.01,1.01,-0.23,-0.19,0.10,
3.747,0.10,-0.01,1.01,-0.23,-0.19,0.10,
3.747,0.10,-0.01,1.01,-0.22,-0.14,0.13,
3.749,0.10,-0.01,1.01,-0.22,-0.14,0.13,
3.755,0.10,-0.01,1.01,-0.20,-0.11,0.16,
3.756,0.10,-0.01,1.01,-0.20,-0.11,0.16,
3.756,0.09,-0.01,1.01,-0.20,-0.11,0.16,
3.756,0.09,-0.00,1.01,-0.20,-0.11,0.16,
3.757,0.09,-0.00,1.01,-0.20,-0.07,0.16,
3.758,0.09,-0.00,1.02,-0.20,-0.07,0.16,
3.761,0.08,-0.01,1.02,-0.20,-0.07,0.16,
3.761,0.08,-0.01,1.02,-0.24,-0.06,0.18,
3.763,0.08,-0.01,1.02,-0.24,-0.06,0.18,
3.77,0.08,-0.01,1.03,-0.24,-0.06,0.18,
3.771,0.08,-0.01,1.03,-0.32,-0.07,0.25,
3.771,0.08,-0.01,1.04,-0.32,-0.07,0.25,
3.772,0.08,-0.01,1.04,-0.38,-0.09,0.31,
3.772,0.08,-0.01,1.04,-0.38,-0.09,0.31,
3.772,0.09,-0.02,1.05,-0.38,-0.09,0.31,
3.776,0.09,-0.02,1.05,-0.37,-0.14,0.46,
3.776,0.09,-0.01,1.05,-0.37,-0.14,0.46,
3.777,0.09,-0.01,1.06,-0.37,-0.14,0.46,
3.78,0.09,-0.02,1.06,-0.37,-0.14,0.46,
3.781,0.09,-0.02,1.06,-0.33,-0.18,0.52,
3.783,0.09,-0.01,1.05,-0.33,-0.18,0.52,
3.786,0.09,-0.01,1.05,-0.33,-0.18,0.52,
3.786,0.09,-0.01,1.05,-0.31,-0.20,0.61,
3.789,0.08,-0.01,1.05,-0.31,-0.20,0.61,
3.79,0.09,0.00,1.04,-0.31,-0.20,0.61,
3.791,0.09,0.00,1.04,-0.32,-0.17,0.55,
3.792,0.08,0.00,1.04,-0.32,-0.17,0.55,
3.795,0.08,0.01,1.03,-0.32,-0.17,0.55,
3.795,0.08,0.01,1.03,-0.37,-0.10,0.50,
3.797,0.08,0.01,1.01,-0.37,-0.10,0.50,
3.801,0.08,0.01,1.01,-0.44,-0.05,0.37,
3.802,0.07,0.00,1.01,-0.44,-0.05,0.37,
3.802,0.07,0.00,1.01,-0.44,-0.05,0.37,
3.805,0.07,-0.00,1.00,-0.44,-0.05,0.37,
3.806,0.07,-0.00,1.00,-0.50,-0.07,0.19,
3.807,0.06,-0.00,0.99,-0.50,-0.07,0.19,
3.81,0.07,0.00,0.99,-0.50,-0.07,0.19,
3.81,0.07,0.00,0.99,-0.53,-0.13,0.08,
3.812,0.06,-0.01,0.98,-0.53,-0.13,0.08,
3.815,0.06,-0.00,0.98,-0.53,-0.13,0.08,
3.815,0.06,-0.00,0.98,-0.61,-0.16,-0.04,
3.817,0.06,0.00,0.98,-0.61,-0.16,-0.04,
3.82,0.06,-0.00,0.97,-0.61,-0.16,-0.04,
3.821,0.06,-0.00,0.97,-0.66,-0.20,-0.14,
3.822,0.07,-0.00,0.97,-0.66,-0.20,-0.14,
3.825,0.07,0.00,0.96,-0.66,-0.20,-0.14,
3.825,0.07,0.00,0.96,-0.67,-0.16,-0.17,
3.827,0.08,0.00,0.97,-0.67,-0.16,-0.17,
3.83,0.09,0.00,0.97,-0.67,-0.16,-0.17,
3.83,0.09,0.00,0.97,-0.59,-0.18,-0.26,
3.835,0.10,0.00,0.97,-0.59,-0.18,-0.26,
3.836,0.11,0.00,0.96,-0.59,-0.18,-0.26,
3.836,0.11,0.00,0.96,-0.46,-0.16,-0.23,
3.837,0.13,0.00,0.91,-0.46,-0.16,-0.23,
3.84,0.14,0.02,0.83,-0.46,-0.16,-0.23,
3.84,0.14,0.02,0.83,-0.28,-0.16,-0.26,
3.842,0.16,0.05,0.76,-0.28,-0.16,-0.26,
3.845,0.19,0.08,0.73,-0.28,-0.16,-0.26,
3.846,0.19,0.08,0.73,0.00,-0.07,-1.16,
3.847,0.21,0.10,0.74,0.00,-0.07,-1.16,
3.852,0.24,0.10,0.79,0.00,-0.07,-1.16,
3.853,0.24,0.10,0.79,0.40,0.48,-2.38,
3.854,0.25,0.09,0.87,0.40,0.48,-2.38,
3.859,0.26,0.09,0.94,0.40,0.48,-2.38,
3.86,0.26,0.09,0.94,0.87,0.79,-2.14,
3.86,0.27,0.08,1.00,0.87,0.79,-2.14,
3.86,0.28,0.08,1.05,0.87,0.79,-2.14,
3.861,0.28,0.08,1.05,1.13,0.72,-0.79,
3.862,0.29,0.07,1.08,1.13,0.72,-0.79,
3.865,0.29,0.07,1.08,1.13,0.72,-0.79,
3.865,0.29,0.07,1.08,1.33,0.64,0.40,
3.873,0.29,0.07,1.08,1.33,0.64,0.40,
3.873,0.27,0.06,1.07,1.33,0.64,0.40,
3.874,0.27,0.06,1.07,1.49,0.62,0.91,
3.874,0.26,0.06,1.05,1.49,0.62,0.91,
3.875,0.26,0.06,1.05,1.41,0.57,0.84,
3.876,0.24,0.05,1.04,1.41,0.57,0.84,
3.887,0.22,0.04,1.04,1.41,0.57,0.84,
3.888,0.20,0.03,1.03,1.41,0.57,0.84,
3.888,0.20,0.03,1.03,1.13,0.45,0.60,
3.889,0.17,0.01,1.02,1.13,0.45,0.60,
3.889,0.14,0.00,1.02,1.13,0.45,0.60,
3.889,0.14,0.00,1.02,0.74,0.29,0.50,
3.889,0.12,-0.01,1.01,0.74,0.29,0.50,
3.889,0.09,-0.02,1.00,0.74,0.29,0.50,
3.89,0.09,-0.02,1.00,0.23,0.02,0.33,
3.891,0.08,-0.03,0.99,0.23,0.02,0.33,
3.894,0.07,-0.04,0.98,0.23,0.02,0.33,
3.894,0.07,-0.04,0.98,-0.28,-0.15,0.17,
3.896,0.06,-0.04,0.98,-0.28,-0.15,0.17,
3.901,0.06,-0.04,0.98,-0.61,-0.35,0.02,
3.901,0.05,-0.05,0.99,-0.61,-0.35,0.02,
3.902,0.04,-0.05,0.99,-0.61,-0.35,0.02,
3.905,0.04,-0.05,1.01,-0.61,-0.35,0.02,
3.905,0.04,-0.05,1.01,-0.76,-0.49,-0.01,
3.906,0.05,-0.05,1.02,-0.76,-0.49,-0.01,
3.909,0.04,-0.04,1.04,-0.76,-0.49,-0.01,
3.909,0.04,-0.04,1.04,-0.89,-0.54,0.15,
3.911,0.04,-0.04,1.05,-0.89,-0.54,0.15,
3.914,0.05,-0.03,1.05,-0.89,-0.54,0.15,
3.914,0.05,-0.03,1.05,-0.89,-0.45,0.41,
3.917,0.05,-0.03,1.06,-0.89,-0.45,0.41,
3.919,0.05,-0.02,1.06,-0.89,-0.45,0.41,
3.92,0.05,-0.02,1.06,-0.86,-0.39,0.63,
3.921,0.06,-0.01,1.06,-0.86,-0.39,0.63,
3.924,0.06,-0.01,1.06,-0.80,-0.26,0.70,
3.924,0.07,-0.00,1.06,-0.80,-0.26,0.70,
3.926,0.10,0.00,1.06,-0.80,-0.26,0.70,
3.929,0.13,0.00,1.06,-0.80,-0.26,0.70,
3.929,0.13,0.00,1.06,-0.70,-0.11,0.73,
3.931,0.14,0.01,1.05,-0.70,-0.11,0.73,
3.935,0.13,0.01,1.05,-0.70,-0.11,0.73,
3.936,0.13,0.01,1.05,-0.25,-0.03,0.68,
3.936,0.13,0.01,1.04,-0.25,-0.03,0.68,
3.939,0.12,0.01,1.05,-0.25,-0.03,0.68,
3.939,0.12,0.01,1.05,-0.02,-0.02,0.61,
3.941,0.12,0.01,1.05,-0.02,-0.02,0.61,
3.944,0.11,0.01,1.05,-0.02,-0.02,0.61,
3.944,0.11,0.01,1.05,-0.12,-0.02,0.55,
3.946,0.10,0.01,1.04,-0.12,-0.02,0.55,
3.949,0.10,0.01,1.04,-0.25,-0.04,0.57,
3.949,0.10,0.01,1.03,-0.25,-0.04,0.57,
3.952,0.09,0.01,1.02,-0.25,-0.04,0.57,
3.956,0.08,0.00,1.00,-0.25,-0.04,0.57,
3.957,0.08,0.00,1.00,-0.40,-0.06,0.44,
3.957,0.08,-0.00,0.99,-0.40,-0.06,0.44,
