
time,gFx,gFy,gFz,ax,ay,az,
0.006,0.02,0.05,1.01,-0.25,-0.50,-0.43,
0.007,0.02,0.05,1.01,-0.18,-0.45,-0.14,
0.007,0.03,0.06,1.02,-0.18,-0.45,-0.14,
0.007,0.02,0.07,1.03,-0.18,-0.45,-0.14,
0.007,0.02,0.07,1.03,-0.13,-0.38,0.14,
0.008,0.02,0.08,1.04,-0.13,-0.38,0.14,
0.008,0.02,0.08,1.04,-0.09,-0.26,0.30,
0.008,0.02,0.08,1.05,-0.09,-0.26,0.30,
0.008,0.02,0.09,1.05,-0.09,-0.26,0.30,
0.008,0.02,0.09,1.06,-0.09,-0.26,0.30,
0.009,0.02,0.09,1.06,-0.11,-0.11,0.50,
0.012,0.02,0.09,1.06,-0.11,-0.11,0.50,
0.023,0.02,0.10,1.07,-0.11,-0.11,0.50,
0.023,0.02,0.10,1.07,-0.11,-0.02,0.59,
0.023,0.02,0.10,1.06,-0.11,-0.02,0.59,
0.023,0.02,0.10,1.06,-0.11,-0.02,0.59,
0.023,0.02,0.10,1.06,-0.11,0.04,0.68,
0.024,0.02,0.10,1.06,-0.11,0.04,0.68,
0.024,0.02,0.10,1.05,-0.11,0.04,0.68,
0.024,0.02,0.10,1.05,-0.09,0.09,0.64,
0.026,0.02,0.10,1.04,-0.09,0.09,0.64,
0.029,0.02,0.10,1.04,-0.09,0.09,0.64,
0.029,0.02,0.10,1.04,-0.06,0.14,0.57,
0.042,0.02,0.10,1.04,-0.06,0.14,0.57,
0.043,0.02,0.09,1.04,-0.06,0.14,0.57,
0.043,0.02,0.09,1.04,-0.04,0.09,0.46,
0.043,0.03,0.10,1.01,-0.04,0.09,0.46,
0.043,0.05,0.10,0.94,-0.04,0.09,0.46,
0.043,0.05,0.10,0.94,-0.05,0.08,0.42,
0.044,0.06,0.11,0.85,-0.05,0.08,0.42,
0.044,0.04,0.11,0.87,-0.05,0.08,0.42,
0.044,0.04,0.11,0.87,0.11,0.09,-0.19,
0.045,0.02,0.11,0.89,0.11,0.09,-0.19,
0.061,0.02,0.11,0.89,0.11,0.09,-0.19,
0.062,0.02,0.11,0.89,0.24,0.18,-1.29,
0.062,0.01,0.11,0.90,0.24,0.18,-1.29,
0.062,0.01,0.11,0.90,-0.04,0.23,-1.04,
0.063,0.01,0.12,0.91,-0.04,0.23,-1.04,
0.063,0.01,0.12,0.92,-0.04,0.23,-1.04,
0.063,0.01,0.11,0.94,-0.04,0.23,-1.04,
0.063,0.01,0.11,0.94,-0.17,0.27,-0.85,
0.063,0.01,0.10,0.95,-0.17,0.27,-0.85,
0.064,0.01,0.10,0.95,-0.17,0.27,-0.85,
0.064,0.01,0.10,0.95,-0.18,0.25,-0.63,
0.074,0.01,0.09,0.96,-0.18,0.25,-0.63,
0.075,0.01,0.08,0.97,-0.18,0.25,-0.63,
0.075,0.01,0.08,0.97,-0.15,0.17,-0.43,
0.075,0.03,0.08,0.97,-0.15,0.17,-0.43,
0.075,0.03,0.08,0.97,-0.15,0.17,-0.43,
0.075,0.03,0.08,0.97,-0.14,0.04,-0.28,
0.076,0.02,0.07,0.98,-0.14,0.04,-0.28,
0.079,0.02,0.07,0.98,-0.01,-0.04,-0.21,
0.079,0.03,0.07,0.99,-0.01,-0.04,-0.21,
0.081,0.03,0.08,1.00,-0.01,-0.04,-0.21,
0.098,0.03,0.08,1.00,-0.01,-0.04,-0.21,
0.099,0.03,0.08,1.00,-0.03,-0.11,-0.03,
0.099,0.02,0.08,1.01,-0.03,-0.11,-0.03,
0.1,0.02,0.08,1.01,-0.03,-0.11,-0.03,
0.1,0.02,0.08,1.01,-0.02,-0.04,0.06,
0.1,0.02,0.08,1.02,-0.02,-0.04,0.06,
0.101,0.02,0.09,1.02,-0.02,-0.04,0.06,
0.101,0.02,0.09,1.02,-0.07,-0.00,0.19,
0.101,0.02,0.09,1.02,-0.07,-0.00,0.19,
0.101,0.03,0.09,1.03,-0.07,-0.00,0.19,
0.102,0.03,0.09,1.03,-0.06,0.05,0.28,
0.103,0.03,0.08,1.03,-0.06,0.05,0.28,
0.103,0.03,0.08,1.03,-0.06,0.05,0.28,
0.104,0.03,0.08,1.03,-0.04,0.06,0.32,
0.106,0.03,0.09,1.03,-0.04,0.06,0.32,
0.108,0.03,0.08,1.03,-0.04,0.06,0.32,
0.108,0.03,0.08,1.03,-0.01,0.04,0.36,
0.111,0.03,0.08,1.03,-0.01,0.04,0.36,
0.113,0.03,0.08,1.03,-0.01,0.04,0.36,
0.114,0.03,0.08,1.03,0.02,0.06,0.39,
0.116,0.03,0.07,1.03,0.02,0.06,0.39,
0.118,0.03,0.07,1.03,0.02,0.06,0.39,
0.119,0.03,0.07,1.03,0.02,-0.03,0.31,
0.121,0.03,0.08,1.02,0.02,-0.03,0.31,
0.123,0.02,0.07,1.03,0.02,-0.03,0.31,
0.123,0.02,0.07,1.03,-0.01,-0.05,0.33,
0.126,0.02,0.07,1.03,-0.01,-0.05,0.33,
0.129,0.02,0.07,1.03,-0.04,-0.06,0.29,
0.129,0.02,0.07,1.03,-0.04,-0.06,0.29,
0.131,0.02,0.07,1.03,-0.04,-0.06,0.29,
0.134,0.01,0.06,1.04,-0.04,-0.06,0.29,
0.135,0.01,0.06,1.04,-0.09,-0.10,0.36,
0.135,0.01,0.06,1.03,-0.09,-0.10,0.36,
0.138,0.01,0.06,1.03,-0.09,-0.10,0.36,
0.138,0.01,0.06,1.03,-0.16,-0.12,0.36,
0.141,0.01,0.06,1.03,-0.16,-0.12,0.36,
0.143,0.01,0.05,1.03,-0.16,-0.12,0.36,
0.143,0.01,0.05,1.03,-0.19,-0.18,0.34,
0.146,0.01,0.05,1.03,-0.19,-0.18,0.34,
0.148,0.01,0.05,1.03,-0.19,-0.24,0.36,
0.148,0.00,0.05,1.03,-0.19,-0.24,0.36,
0.152,0.01,0.05,1.03,-0.19,-0.24,0.36,
0.152,0.01,0.05,1.03,-0.19,-0.24,0.36,
0.153,0.01,0.05,1.03,-0.22,-0.27,0.32,
0.156,0.01,0.05,1.03,-0.22,-0.27,0.32,
0.157,0.02,0.05,1.02,-0.22,-0.27,0.32,
0.16,0.02,0.05,1.02,-0.17,-0.26,0.33,
0.161,0.02,0.05,1.02,-0.17,-0.26,0.33,
0.162,0.02,0.06,1.01,-0.17,-0.26,0.33,
0.162,0.02,0.06,1.01,-0.11,-0.28,0.27,
0.172,0.02,0.07,1.01,-0.11,-0.28,0.27,
0.173,0.03,0.06,1.00,-0.11,-0.28,0.27,
0.173,0.03,0.06,1.00,-0.06,-0.20,0.17,
0.173,0.03,0.07,1.00,-0.06,-0.20,0.17,
0.174,0.03,0.07,1.00,-0.06,-0.20,0.17,
0.174,0.03,0.07,1.00,-0.00,-0.14,0.08,
0.174,0.03,0.08,1.00,-0.00,-0.14,0.08,
0.178,0.04,0.08,1.00,-0.00,-0.14,0.08,
0.178,0.04,0.08,1.00,0.03,-0.09,0.05,
0.18,0.03,0.09,0.99,0.03,-0.09,0.05,
0.185,0.04,0.10,0.98,0.03,-0.09,0.05,
0.186,0.04,0.10,0.98,0.10,0.02,0.02,
0.186,0.04,0.10,0.99,0.10,0.02,0.02,
0.187,0.04,0.10,0.99,0.10,0.02,0.02,
0.187,0.04,0.10,0.99,0.13,0.13,-0.09,
0.19,0.05,0.10,0.99,0.13,0.13,-0.09,
0.192,0.04,0.10,0.99,0.13,0.13,-0.09,
0.193,0.04,0.10,0.99,0.18,0.17,-0.06,
0.195,0.04,0.10,0.99,0.18,0.17,-0.06,
0.198,0.04,0.09,0.99,0.18,0.17,-0.06,
0.198,0.04,0.09,0.99,0.21,0.18,-0.06,
0.201,0.04,0.09,0.99,0.21,0.18,-0.06,
0.202,0.04,0.09,0.99,0.19,0.14,-0.05,
0.202,0.05,0.09,0.99,0.19,0.14,-0.05,
0.205,0.04,0.09,0.99,0.19,0.14,-0.05,
0.208,0.05,0.09,1.00,0.19,0.14,-0.05,
0.208,0.05,0.09,1.00,0.18,0.11,-0.05,
0.21,0.04,0.08,0.99,0.18,0.11,-0.05,
0.212,0.04,0.08,1.00,0.18,0.11,-0.05,
0.212,0.04,0.08,1.00,0.19,0.05,-0.03,
0.214,0.04,0.08,1.00,0.19,0.05,-0.03,
0.217,0.05,0.08,1.00,0.19,0.05,-0.03,
0.218,0.05,0.08,1.00,0.15,-0.02,-0.01,
0.22,0.04,0.07,1.00,0.15,-0.02,-0.01,
0.222,0.05,0.07,1.00,0.15,-0.02,-0.01,
0.223,0.05,0.07,1.00,0.20,-0.04,0.02,
0.224,0.05,0.06,1.00,0.20,-0.04,0.02,
0.227,0.05,0.06,0.99,0.20,-0.04,0.02,
0.228,0.05,0.06,0.99,0.20,-0.09,0.03,
0.23,0.05,0.07,0.99,0.20,-0.09,0.03,
0.232,0.05,0.06,0.99,0.20,-0.09,0.03,
0.232,0.05,0.06,0.99,0.22,-0.17,-0.01,
0.236,0.05,0.07,0.99,0.22,-0.17,-0.01,
0.237,0.05,0.06,0.98,0.22,-0.17,-0.01,
0.237,0.05,0.06,0.98,0.26,-0.16,-0.07,
0.24,0.05,0.06,0.98,0.26,-0.16,-0.07,
0.242,0.05,0.07,0.97,0.26,-0.16,-0.07,
0.242,0.05,0.07,0.97,0.28,-0.18,-0.13,
0.245,0.06,0.07,0.96,0.28,-0.18,-0.13,
0.247,0.06,0.07,0.95,0.28,-0.18,-0.13,
0.248,0.06,0.07,0.95,0.28,-0.17,-0.24,
0.25,0.06,0.07,0.95,0.28,-0.17,-0.24,
0.252,0.06,0.07,0.95,0.32,-0.13,-0.41,
0.253,0.06,0.07,0.94,0.32,-0.13,-0.41,
0.254,0.05,0.07,0.93,0.32,-0.13,-0.41,
0.257,0.05,0.07,0.93,0.32,-0.13,-0.41,
0.258,0.05,0.07,0.93,0.34,-0.11,-0.51,
0.26,0.04,0.07,0.92,0.34,-0.11,-0.51,
0.261,0.05,0.07,0.91,0.34,-0.11,-0.51,
0.262,0.05,0.07,0.91,0.26,-0.10,-0.65,
0.265,0.05,0.07,0.90,0.26,-0.10,-0.65,
0.273,0.04,0.07,0.90,0.26,-0.10,-0.65,
0.274,0.04,0.07,0.90,0.26,-0.09,-0.77,
0.274,0.04,0.07,0.90,0.26,-0.09,-0.77,
0.274,0.04,0.07,0.89,0.26,-0.09,-0.77,
0.274,0.04,0.07,0.89,0.27,-0.12,-0.91,
0.275,0.05,0.07,0.89,0.27,-0.12,-0.91,
0.277,0.05,0.07,0.89,0.25,-0.13,-0.95,
0.277,0.05,0.07,0.88,0.25,-0.13,-0.95,
0.279,0.04,0.07,0.88,0.25,-0.13,-0.95,
0.281,0.04,0.07,0.88,0.25,-0.13,-0.95,
0.281,0.04,0.07,0.88,0.27,-0.12,-1.07,
0.284,0.05,0.07,0.88,0.27,-0.12,-1.07,
0.286,0.04,0.07,0.88,0.27,-0.12,-1.07,
0.286,0.04,0.07,0.88,0.22,-0.12,-1.09,
0.289,0.04,0.07,0.87,0.22,-0.12,-1.09,
0.291,0.04,0.08,0.87,0.22,-0.12,-1.09,
0.292,0.04,0.08,0.87,0.22,-0.09,-1.10,
0.294,0.04,0.08,0.87,0.22,-0.09,-1.10,
0.296,0.03,0.08,0.87,0.22,-0.09,-1.10,
0.297,0.03,0.08,0.87,0.23,-0.07,-1.13,
0.299,0.04,0.08,0.87,0.23,-0.07,-1.13,
0.302,0.04,0.08,0.87,0.17,-0.07,-1.18,
0.303,0.04,0.08,0.87,0.17,-0.07,-1.18,
0.304,0.04,0.08,0.87,0.17,-0.07,-1.18,
0.306,0.04,0.08,0.87,0.17,-0.07,-1.18,
0.307,0.04,0.08,0.87,0.19,-0.05,-1.16,
0.309,0.04,0.08,0.87,0.19,-0.05,-1.16,
0.312,0.04,0.08,0.86,0.19,-0.05,-1.16,
0.312,0.04,0.08,0.86,0.20,-0.04,-1.17,
0.314,0.04,0.08,0.87,0.20,-0.04,-1.17,
0.317,0.05,0.08,0.86,0.20,-0.04,-1.17,
0.318,0.05,0.08,0.86,0.24,0.02,-1.18,
0.318,0.05,0.08,0.86,0.24,0.02,-1.18,
0.322,0.05,0.08,0.86,0.24,0.02,-1.18,
0.322,0.05,0.08,0.86,0.25,-0.03,-1.16,
0.325,0.06,0.09,0.87,0.25,-0.03,-1.16,
0.327,0.06,0.09,0.87,0.32,-0.01,-1.18,
0.327,0.05,0.08,0.86,0.32,-0.01,-1.18,
0.329,0.06,0.08,0.86,0.32,-0.01,-1.18,
0.331,0.06,0.08,0.86,0.32,-0.01,-1.18,
0.332,0.06,0.08,0.86,0.34,0.02,-1.17,
0.335,0.05,0.08,0.86,0.34,0.02,-1.17,
0.337,0.06,0.08,0.87,0.34,0.02,-1.17,
0.337,0.06,0.08,0.87,0.39,-0.01,-1.20,
0.338,0.06,0.08,0.85,0.39,-0.01,-1.20,
0.341,0.06,0.09,0.86,0.39,-0.01,-1.20,
0.342,0.06,0.09,0.86,0.35,0.01,-1.15,
0.344,0.06,0.08,0.86,0.35,0.01,-1.15,
0.346,0.06,0.08,0.85,0.35,0.01,-1.15,
0.346,0.06,0.08,0.85,0.36,0.03,-1.22,
0.348,0.05,0.08,0.85,0.36,0.03,-1.22,
0.35,0.05,0.08,0.85,0.36,0.03,-1.22,
0.351,0.05,0.08,0.85,0.35,0.01,-1.20,
0.353,0.05,0.08,0.85,0.35,0.01,-1.20,
0.357,0.05,0.08,0.84,0.35,0.01,-1.20,
0.358,0.05,0.08,0.84,0.30,-0.01,-1.27,
0.358,0.05,0.09,0.84,0.30,-0.01,-1.27,
0.365,0.05,0.08,0.84,0.30,-0.01,-1.27,
0.366,0.05,0.08,0.84,0.25,-0.01,-1.30,
0.366,0.05,0.08,0.85,0.25,-0.01,-1.30,
0.366,0.05,0.08,0.85,0.25,-0.01,-1.30,
0.367,0.05,0.08,0.85,0.26,0.01,-1.33,
0.369,0.06,0.08,0.84,0.26,0.01,-1.33,
0.37,0.06,0.08,0.84,0.26,0.01,-1.33,
0.37,0.06,0.08,0.84,0.24,-0.03,-1.25,
0.372,0.06,0.08,0.84,0.24,-0.03,-1.25,
0.375,0.06,0.08,0.84,0.30,-0.03,-1.30,
0.375,0.06,0.08,0.85,0.30,-0.03,-1.30,
0.377,0.05,0.07,0.85,0.30,-0.03,-1.30,
0.38,0.05,0.07,0.86,0.30,-0.03,-1.30,
0.381,0.05,0.07,0.86,0.30,-0.05,-1.25,
0.385,0.06,0.07,0.86,0.30,-0.05,-1.25,
0.385,0.06,0.07,0.86,0.30,-0.05,-1.25,
0.386,0.06,0.07,0.86,0.23,-0.08,-1.15,
0.388,0.05,0.07,0.87,0.23,-0.08,-1.15,
0.39,0.06,0.07,0.86,0.23,-0.08,-1.15,
0.39,0.06,0.07,0.86,0.26,-0.12,-1.05,
0.393,0.06,0.07,0.87,0.26,-0.12,-1.05,
0.395,0.06,0.07,0.87,0.26,-0.11,-1.01,
0.395,0.06,0.07,0.88,0.26,-0.11,-1.01,
0.397,0.07,0.07,0.88,0.26,-0.11,-1.01,
0.4,0.07,0.07,0.89,0.26,-0.11,-1.01,
0.401,0.07,0.07,0.89,0.28,-0.12,-0.95,
0.403,0.06,0.06,0.89,0.28,-0.12,-0.95,
0.405,0.06,0.06,0.89,0.28,-0.12,-0.95,
0.405,0.06,0.06,0.89,0.31,-0.12,-0.80,
0.408,0.07,0.05,0.88,0.31,-0.12,-0.80,
0.41,0.06,0.05,0.89,0.31,-0.12,-0.80,
0.411,0.06,0.05,0.89,0.27,-0.18,-0.79,
0.413,0.06,0.05,0.88,0.27,-0.18,-0.79,
0.415,0.06,0.05,0.88,0.27,-0.18,-0.79,
0.415,0.06,0.05,0.88,0.30,-0.22,-0.80,
0.417,0.06,0.04,0.88,0.30,-0.22,-0.80,
0.42,0.07,0.04,0.87,0.30,-0.22,-0.80,
0.421,0.07,0.04,0.87,0.26,-0.29,-0.83,
0.423,0.06,0.04,0.88,0.26,-0.29,-0.83,
0.425,0.06,0.04,0.88,0.26,-0.31,-0.89,
0.425,0.06,0.04,0.87,0.26,-0.31,-0.89,
0.427,0.07,0.04,0.86,0.26,-0.31,-0.89,
0.43,0.06,0.05,0.86,0.26,-0.31,-0.89,
0.43,0.06,0.05,0.86,0.23,-0.33,-0.90,
0.433,0.06,0.04,0.87,0.23,-0.33,-0.90,
0.435,0.06,0.04,0.86,0.23,-0.33,-0.90,
0.436,0.06,0.04,0.86,0.24,-0.30,-0.99,
0.439,0.06,0.05,0.87,0.24,-0.30,-0.99,
0.439,0.06,0.05,0.86,0.24,-0.30,-0.99,
0.44,0.06,0.05,0.86,0.19,-0.28,-0.97,
0.442,0.06,0.05,0.86,0.19,-0.28,-0.97,
0.445,0.06,0.06,0.85,0.19,-0.28,-0.97,
0.446,0.06,0.06,0.85,0.16,-0.22,-0.97,
0.448,0.06,0.06,0.85,0.16,-0.22,-0.97,
0.45,0.06,0.06,0.86,0.16,-0.22,-0.97,
0.45,0.06,0.06,0.86,0.20,-0.14,-1.05,
0.453,0.06,0.07,0.85,0.20,-0.14,-1.05,
0.455,0.07,0.07,0.85,0.20,-0.14,-1.05,
0.455,0.07,0.07,0.85,0.18,-0.08,-1.04,
0.458,0.07,0.07,0.86,0.18,-0.08,-1.04,
0.46,0.07,0.07,0.86,0.18,-0.08,-1.04,
0.46,0.07,0.07,0.86,0.21,0.00,-1.08,
0.462,0.08,0.08,0.86,0.21,0.00,-1.08,
0.465,0.08,0.07,0.86,0.21,0.00,-1.08,
0.465,0.08,0.07,0.86,0.26,0.01,-1.00,
0.468,0.09,0.07,0.86,0.26,0.01,-1.00,
0.47,0.09,0.07,0.87,0.26,0.01,-1.00,
0.47,0.09,0.07,0.87,0.32,0.07,-1.00,
0.472,0.09,0.07,0.87,0.32,0.07,-1.00,
0.475,0.09,0.06,0.87,0.32,0.07,-1.00,
0.475,0.09,0.06,0.87,0.37,0.03,-0.94,
0.478,0.09,0.06,0.87,0.37,0.03,-0.94,
0.48,0.09,0.06,0.86,0.37,0.03,-0.94,
0.48,0.09,0.06,0.86,0.40,-0.01,-0.87,
0.482,0.09,0.06,0.87,0.40,-0.01,-0.87,
0.485,0.09,0.05,0.86,0.40,-0.01,-0.87,
0.486,0.09,0.05,0.86,0.41,-0.04,-0.87,
0.488,0.09,0.04,0.86,0.41,-0.04,-0.87,
0.491,0.09,0.04,0.86,0.40,-0.12,-0.89,
0.491,0.09,0.03,0.85,0.40,-0.12,-0.89,
0.492,0.09,0.03,0.85,0.40,-0.12,-0.89,
0.494,0.09,0.02,0.84,0.40,-0.12,-0.89,
0.495,0.09,0.02,0.84,0.38,-0.25,-0.97,
0.498,0.09,0.02,0.84,0.38,-0.25,-0.97,
0.506,0.09,0.02,0.84,0.33,-0.38,-1.10,
0.507,0.09,0.01,0.83,0.33,-0.38,-1.10,
0.507,0.09,0.01,0.83,0.33,-0.38,-1.10,
0.508,0.09,0.01,0.83,0.33,-0.38,-1.10,
0.508,0.09,0.01,0.83,0.35,-0.48,-1.17,
0.508,0.09,0.01,0.83,0.35,-0.48,-1.17,
0.509,0.09,0.01,0.83,0.35,-0.48,-1.17,
0.509,0.09,0.01,0.83,0.33,-0.50,-1.20,
0.511,0.09,0.02,0.83,0.33,-0.50,-1.20,
0.513,0.09,0.02,0.83,0.33,-0.50,-1.20,
0.514,0.09,0.02,0.83,0.33,-0.51,-1.19,
0.52,0.09,0.02,0.83,0.33,-0.51,-1.19,
0.52,0.09,0.03,0.83,0.33,-0.51,-1.19,
0.521,0.09,0.03,0.83,0.34,-0.42,-1.19,
0.521,0.09,0.03,0.83,0.34,-0.42,-1.19,
0.523,0.10,0.04,0.84,0.34,-0.42,-1.19,
0.524,0.10,0.04,0.84,0.37,-0.33,-1.20,
0.526,0.10,0.05,0.84,0.37,-0.33,-1.20,
0.529,0.10,0.05,0.84,0.40,-0.24,-1.11,
0.529,0.11,0.06,0.83,0.40,-0.24,-1.11,
0.53,0.11,0.06,0.84,0.40,-0.24,-1.11,
0.534,0.12,0.06,0.84,0.40,-0.24,-1.11,
0.535,0.12,0.06,0.84,0.49,-0.08,-1.08,
0.536,0.12,0.07,0.84,0.49,-0.08,-1.08,
0.538,0.13,0.08,0.84,0.49,-0.08,-1.08,
0.539,0.13,0.08,0.84,0.58,0.03,-1.05,
0.54,0.13,0.08,0.84,0.58,0.03,-1.05,
0.543,0.14,0.08,0.84,0.58,0.03,-1.05,
0.543,0.14,0.08,0.84,0.65,0.11,-1.04,
0.546,0.14,0.08,0.84,0.65,0.11,-1.04,
0.548,0.14,0.08,0.84,0.65,0.11,-1.04,
0.549,0.14,0.08,0.84,0.73,0.18,-1.02,
0.551,0.15,0.08,0.83,0.73,0.18,-1.02,
0.553,0.15,0.08,0.83,0.73,0.18,-1.02,
0.553,0.15,0.08,0.83,0.81,0.21,-1.04,
0.556,0.14,0.09,0.83,0.81,0.21,-1.04,
0.558,0.15,0.09,0.83,0.81,0.21,-1.04,
0.558,0.15,0.09,0.83,0.85,0.22,-1.07,
0.561,0.15,0.08,0.83,0.85,0.22,-1.07,
0.564,0.15,0.08,0.84,0.85,0.22,-1.07,
0.564,0.15,0.08,0.84,0.84,0.25,-1.08,
0.565,0.15,0.08,0.84,0.84,0.25,-1.08,
0.569,0.15,0.08,0.85,0.84,0.25,-1.08,
0.57,0.15,0.08,0.85,0.88,0.21,-1.03,
0.571,0.15,0.08,0.86,0.88,0.21,-1.03,
0.573,0.14,0.07,0.86,0.88,0.21,-1.03,
0.573,0.14,0.07,0.86,0.83,0.21,-0.93,
0.576,0.14,0.07,0.87,0.83,0.21,-0.93,
0.578,0.13,0.07,0.88,0.83,0.21,-0.93,
0.579,0.13,0.07,0.88,0.77,0.15,-0.76,
0.581,0.13,0.07,0.89,0.77,0.15,-0.76,
0.583,0.13,0.07,0.90,0.77,0.15,-0.76,
0.584,0.13,0.07,0.90,0.65,0.13,-0.62,
0.586,0.13,0.06,0.90,0.65,0.13,-0.62,
0.588,0.13,0.06,0.92,0.65,0.13,-0.62,
0.588,0.13,0.06,0.92,0.63,0.12,-0.42,
0.591,0.13,0.06,0.92,0.63,0.12,-0.42,
0.594,0.13,0.05,0.93,0.63,0.12,-0.42,
0.594,0.13,0.05,0.93,0.58,0.03,-0.28,
0.596,0.13,0.04,0.94,0.58,0.03,-0.28,
0.598,0.13,0.04,0.94,0.53,-0.03,-0.11,
0.599,0.13,0.04,0.94,0.53,-0.03,-0.11,
0.606,0.13,0.04,0.95,0.53,-0.03,-0.11,
0.606,0.13,0.03,0.95,0.53,-0.03,-0.11,
0.606,0.13,0.03,0.95,0.52,-0.13,0.00,
0.607,0.14,0.02,0.95,0.52,-0.13,0.00,
0.608,0.14,0.02,0.96,0.52,-0.13,0.00,
0.608,0.14,0.02,0.96,0.55,-0.22,0.09,
0.61,0.14,0.02,0.96,0.55,-0.22,0.09,
0.613,0.14,0.02,0.96,0.55,-0.22,0.09,
0.613,0.14,0.02,0.96,0.61,-0.28,0.16,
0.616,0.14,0.02,0.97,0.61,-0.28,0.16,
0.618,0.14,0.02,0.97,0.61,-0.28,0.16,
0.619,0.14,0.02,0.97,0.62,-0.34,0.21,
0.621,0.14,0.01,0.98,0.62,-0.34,0.21,
0.623,0.14,0.01,0.98,0.60,-0.32,0.34,
0.624,0.14,0.02,0.98,0.60,-0.32,0.34,
0.626,0.13,0.03,0.98,0.60,-0.32,0.34,
0.628,0.12,0.03,0.98,0.60,-0.32,0.34,
0.629,0.12,0.03,0.98,0.53,-0.30,0.39,
0.631,0.12,0.02,0.98,0.53,-0.30,0.39,
0.633,0.11,0.03,0.97,0.53,-0.30,0.39,
0.633,0.11,0.03,0.97,0.42,-0.20,0.38,
0.636,0.11,0.03,0.98,0.42,-0.20,0.38,
0.638,0.10,0.02,0.98,0.42,-0.20,0.38,
0.639,0.10,0.02,0.98,0.32,-0.19,0.34,
0.641,0.10,0.02,0.98,0.32,-0.19,0.34,
0.642,0.09,0.02,0.98,0.32,-0.19,0.34,
0.643,0.09,0.02,0.98,0.22,-0.18,0.38,
0.645,0.09,0.02,0.99,0.22,-0.18,0.38,
0.647,0.09,0.03,0.99,0.22,-0.18,0.38,
0.648,0.09,0.03,0.99,0.12,-0.18,0.39,
0.653,0.08,0.02,0.99,0.12,-0.18,0.39,
0.653,0.09,0.02,0.99,0.12,-0.18,0.39,
0.657,0.09,0.02,0.99,0.04,-0.13,0.44,
0.657,0.09,0.02,0.99,0.04,-0.13,0.44,
0.657,0.08,0.02,0.99,0.04,-0.13,0.44,
0.66,0.08,0.02,0.99,0.00,-0.13,0.48,
0.66,0.09,0.02,0.99,0.00,-0.13,0.48,
0.664,0.09,0.01,0.99,0.00,-0.13,0.48,
0.665,0.09,0.01,0.99,0.01,-0.15,0.46,
0.665,0.08,0.01,0.99,0.01,-0.15,0.46,
0.669,0.09,0.01,0.99,0.01,-0.15,0.46,
0.67,0.09,0.01,0.99,0.01,-0.14,0.50,
0.67,0.09,0.01,1.00,0.01,-0.14,0.50,
0.672,0.09,0.00,1.00,0.01,-0.14,0.50,
0.672,0.09,0.00,1.00,-0.01,-0.19,0.44,
0.675,0.10,0.00,1.01,-0.01,-0.19,0.44,
0.676,0.11,0.01,1.01,-0.01,-0.19,0.44,
0.677,0.11,0.01,1.01,0.04,-0.19,0.51,
0.68,0.11,0.00,1.02,0.04,-0.19,0.51,
0.681,0.12,0.00,1.03,0.04,-0.19,0.51,
0.682,0.12,0.00,1.03,0.15,-0.20,0.65,
0.685,0.12,0.00,1.03,0.15,-0.20,0.65,
0.688,0.13,0.00,1.03,0.15,-0.20,0.65,
0.688,0.13,0.00,1.03,0.26,-0.20,0.75,
0.69,0.13,0.00,1.03,0.26,-0.20,0.75,
0.692,0.13,0.00,1.03,0.26,-0.20,0.75,
0.692,0.13,0.00,1.03,0.32,-0.16,0.82,
0.695,0.13,0.00,1.02,0.32,-0.16,0.82,
0.697,0.13,0.01,1.02,0.32,-0.16,0.82,
0.698,0.13,0.01,1.02,0.33,-0.14,0.83,
0.7,0.13,0.01,1.02,0.33,-0.14,0.83,
0.705,0.13,0.01,1.02,0.33,-0.14,0.83,
0.705,0.13,0.01,1.02,0.35,-0.09,0.73,
0.706,0.13,0.01,1.01,0.35,-0.09,0.73,
0.706,0.14,0.02,1.01,0.35,-0.09,0.73,
0.706,0.14,0.02,1.01,0.34,-0.02,0.70,
0.71,0.13,0.02,1.01,0.34,-0.02,0.70,
0.712,0.14,0.03,1.01,0.34,-0.02,0.70,
0.712,0.14,0.03,1.01,0.38,0.05,0.64,
0.714,0.14,0.03,1.01,0.38,0.05,0.64,
0.717,0.14,0.03,1.01,0.38,0.05,0.64,
0.717,0.14,0.03,1.01,0.37,0.15,0.60,
0.719,0.14,0.04,1.01,0.37,0.15,0.60,
0.721,0.14,0.05,1.02,0.37,0.15,0.60,
0.722,0.14,0.05,1.02,0.39,0.24,0.59,
0.724,0.14,0.05,1.02,0.39,0.24,0.59,
0.727,0.14,0.05,1.03,0.39,0.24,0.59,
0.727,0.14,0.05,1.03,0.37,0.33,0.62,
0.729,0.13,0.05,1.03,0.37,0.33,0.62,
0.732,0.13,0.05,1.04,0.37,0.33,0.62,
0.732,0.13,0.05,1.04,0.34,0.39,0.74,
0.736,0.13,0.05,1.05,0.34,0.39,0.74,
0.736,0.12,0.05,1.05,0.34,0.39,0.74,
0.737,0.12,0.05,1.05,0.25,0.39,0.86,
0.739,0.12,0.05,1.05,0.25,0.39,0.86,
0.741,0.12,0.05,1.06,0.25,0.39,0.86,
0.741,0.12,0.05,1.06,0.17,0.45,0.98,
0.744,0.11,0.05,1.06,0.17,0.45,0.98,
0.747,0.12,0.05,1.06,0.17,0.45,0.98,
0.747,0.12,0.05,1.06,0.06,0.46,1.02,
0.749,0.12,0.05,1.07,0.06,0.46,1.02,
0.753,0.12,0.05,1.06,0.06,0.46,1.02,
0.753,0.12,0.05,1.06,0.02,0.46,1.06,
0.754,0.13,0.05,1.06,0.02,0.46,1.06,
0.756,0.13,0.05,1.07,0.02,0.46,1.06,
0.756,0.13,0.05,1.07,0.06,0.48,1.13,
0.759,0.14,0.05,1.06,0.06,0.48,1.13,
0.762,0.14,0.05,1.06,0.06,0.48,1.13,
0.762,0.14,0.05,1.06,0.16,0.49,1.10,
0.764,0.15,0.05,1.05,0.16,0.49,1.10,
0.766,0.15,0.05,1.05,0.16,0.49,1.10,
0.767,0.15,0.05,1.05,0.22,0.48,1.08,
0.769,0.15,0.05,1.05,0.22,0.48,1.08,
0.771,0.16,0.04,1.04,0.22,0.48,1.08,
0.771,0.16,0.04,1.04,0.29,0.50,0.95,
0.774,0.16,0.05,1.04,0.29,0.50,0.95,
0.777,0.17,0.05,1.03,0.29,0.50,0.95,
0.777,0.17,0.05,1.03,0.39,0.48,0.89,
0.779,0.17,0.05,1.04,0.39,0.48,0.89,
0.781,0.16,0.05,1.03,0.39,0.48,0.89,
0.781,0.16,0.05,1.03,0.48,0.51,0.81,
0.784,0.16,0.05,1.03,0.48,0.51,0.81,
0.786,0.16,0.05,1.03,0.48,0.51,0.81,
0.787,0.16,0.05,1.03,0.47,0.53,0.78,
0.788,0.15,0.04,1.03,0.47,0.53,0.78,
0.791,0.14,0.04,1.02,0.47,0.53,0.78,
0.792,0.14,0.04,1.02,0.41,0.55,0.74,
0.794,0.13,0.04,1.04,0.41,0.55,0.74,
0.796,0.13,0.04,1.04,0.29,0.50,0.69,
0.797,0.13,0.03,1.04,0.29,0.50,0.69,
0.799,0.12,0.03,1.04,0.29,0.50,0.69,
0.804,0.11,0.02,1.05,0.29,0.50,0.69,
0.805,0.11,0.02,1.05,0.13,0.51,0.84,
0.805,0.10,0.01,1.05,0.13,0.51,0.84,
0.806,0.09,-0.00,1.06,0.13,0.51,0.84,
0.806,0.09,-0.00,1.06,-0.04,0.40,0.87,
0.808,0.09,-0.01,1.07,-0.04,0.40,0.87,
0.81,0.08,-0.02,1.07,-0.04,0.40,0.87,
0.811,0.08,-0.02,1.07,-0.20,0.26,0.97,
0.813,0.08,-0.02,1.08,-0.20,0.26,0.97,
0.815,0.07,-0.03,1.09,-0.20,0.26,0.97,
0.815,0.07,-0.03,1.09,-0.33,0.11,1.12,
0.818,0.07,-0.04,1.10,-0.33,0.11,1.12,
0.825,0.07,-0.04,1.11,-0.33,0.11,1.12,
0.826,0.07,-0.04,1.11,-0.41,0.01,1.27,
0.826,0.07,-0.04,1.12,-0.41,0.01,1.27,
0.826,0.07,-0.04,1.12,-0.41,0.01,1.27,
0.827,0.07,-0.04,1.12,-0.51,-0.08,1.45,
0.827,0.06,-0.05,1.13,-0.51,-0.08,1.45,
0.83,0.06,-0.05,1.15,-0.51,-0.08,1.45,
0.83,0.06,-0.05,1.15,-0.52,-0.10,1.61,
0.832,0.06,-0.05,1.15,-0.52,-0.10,1.61,
0.837,0.06,-0.05,1.16,-0.52,-0.10,1.61,
0.838,0.06,-0.05,1.16,-0.56,-0.12,1.78,
0.838,0.06,-0.05,1.17,-0.56,-0.12,1.78,
0.84,0.06,-0.05,1.17,-0.56,-0.12,1.78,
0.84,0.06,-0.05,1.17,-0.60,-0.11,1.93,
0.842,0.06,-0.05,1.18,-0.60,-0.11,1.93,
0.845,0.06,-0.05,1.18,-0.60,-0.11,1.93,
0.845,0.06,-0.05,1.18,-0.64,-0.06,2.07,
0.847,0.06,-0.06,1.18,-0.64,-0.06,2.07,
0.85,0.07,-0.07,1.18,-0.64,-0.06,2.07,
0.85,0.07,-0.07,1.18,-0.59,-0.08,2.16,
0.852,0.07,-0.07,1.18,-0.59,-0.08,2.16,
0.855,0.07,-0.09,1.17,-0.59,-0.08,2.16,
0.855,0.07,-0.09,1.17,-0.56,-0.21,2.19,
0.857,0.07,-0.09,1.17,-0.56,-0.21,2.19,
0.86,0.08,-0.09,1.16,-0.56,-0.21,2.19,
0.86,0.08,-0.09,1.16,-0.52,-0.31,2.09,
0.862,0.08,-0.10,1.15,-0.52,-0.31,2.09,
0.865,0.07,-0.10,1.14,-0.52,-0.31,2.09,
0.865,0.07,-0.10,1.14,-0.45,-0.42,1.97,
0.869,0.08,-0.10,1.13,-0.45,-0.42,1.97,
0.87,0.08,-0.10,1.13,-0.44,-0.46,1.79,
0.871,0.08,-0.10,1.12,-0.44,-0.46,1.79,
0.872,0.07,-0.10,1.11,-0.44,-0.46,1.79,
0.874,0.08,-0.10,1.10,-0.44,-0.46,1.79,
0.875,0.08,-0.10,1.10,-0.40,-0.47,1.59,
0.877,0.07,-0.09,1.09,-0.40,-0.47,1.59,
0.88,0.07,-0.09,1.07,-0.40,-0.47,1.59,
0.88,0.07,-0.09,1.07,-0.40,-0.42,1.37,
0.882,0.07,-0.09,1.06,-0.40,-0.42,1.37,
0.885,0.07,-0.09,1.06,-0.40,-0.42,1.37,
0.885,0.07,-0.09,1.06,-0.44,-0.37,1.14,
0.887,0.07,-0.09,1.05,-0.44,-0.37,1.14,
0.89,0.07,-0.09,1.04,-0.44,-0.37,1.14,
0.89,0.07,-0.09,1.04,-0.40,-0.32,0.92,
0.892,0.08,-0.09,1.04,-0.40,-0.32,0.92,
0.894,0.08,-0.09,1.04,-0.40,-0.32,0.92,
0.895,0.08,-0.09,1.04,-0.39,-0.28,0.80,
0.897,0.09,-0.09,1.04,-0.39,-0.28,0.80,
0.899,0.09,-0.09,1.03,-0.39,-0.28,0.80,
0.9,0.09,-0.09,1.03,-0.30,-0.31,0.70,
0.902,0.09,-0.09,1.03,-0.30,-0.31,0.70,
0.904,0.09,-0.08,1.03,-0.30,-0.31,0.70,
0.905,0.09,-0.08,1.03,-0.22,-0.30,0.67,
0.907,0.09,-0.09,1.03,-0.22,-0.30,0.67,
0.91,0.09,-0.08,1.03,-0.22,-0.30,0.67,
0.91,0.09,-0.08,1.03,-0.18,-0.26,0.60,
0.912,0.09,-0.08,1.03,-0.18,-0.26,0.60,
0.914,0.09,-0.08,1.04,-0.18,-0.26,0.60,
0.915,0.09,-0.08,1.04,-0.19,-0.19,0.67,
0.917,0.09,-0.08,1.03,-0.19,-0.19,0.67,
0.921,0.09,-0.08,1.03,-0.14,-0.15,0.68,
0.922,0.09,-0.08,1.03,-0.14,-0.15,0.68,
0.923,0.09,-0.08,1.03,-0.14,-0.15,0.68,
0.925,0.08,-0.08,1.03,-0.14,-0.15,0.68,
0.925,0.08,-0.08,1.03,-0.11,-0.16,0.62,
0.927,0.09,-0.08,1.03,-0.11,-0.16,0.62,
0.929,0.08,-0.08,1.03,-0.11,-0.16,0.62,
0.93,0.08,-0.08,1.03,-0.17,-0.13,0.63,
0.932,0.08,-0.07,1.03,-0.17,-0.13,0.63,
0.934,0.08,-0.08,1.03,-0.17,-0.13,0.63,
0.948,0.08,-0.08,1.03,-0.18,-0.09,0.59,
0.949,0.08,-0.08,1.03,-0.18,-0.09,0.59,
0.95,0.08,-0.08,1.03,-0.18,-0.09,0.59,
0.951,0.08,-0.08,1.03,-0.21,-0.04,0.60,
0.951,0.08,-0.08,1.03,-0.21,-0.04,0.60,
0.952,0.08,-0.08,1.03,-0.18,-0.07,0.62,
0.953,0.08,-0.08,1.03,-0.18,-0.07,0.62,
0.953,0.09,-0.08,1.04,-0.18,-0.07,0.62,
0.954,0.09,-0.08,1.04,-0.18,-0.07,0.62,
0.955,0.09,-0.08,1.04,-0.19,-0.07,0.65,
0.955,0.09,-0.08,1.05,-0.19,-0.07,0.65,
0.956,0.09,-0.08,1.05,-0.19,-0.07,0.65,
0.956,0.09,-0.08,1.05,-0.13,-0.08,0.70,
0.957,0.09,-0.09,1.06,-0.13,-0.08,0.70,
0.968,0.10,-0.09,1.07,-0.13,-0.08,0.70,
0.971,0.10,-0.09,1.07,-0.10,-0.04,0.77,
0.972,0.10,-0.09,1.07,-0.10,-0.04,0.77,
0.972,0.11,-0.10,1.07,-0.10,-0.04,0.77,
0.972,0.11,-0.10,1.07,-0.04,-0.08,0.92,
0.973,0.11,-0.10,1.08,-0.04,-0.08,0.92,
0.973,0.12,-0.11,1.08,-0.04,-0.08,0.92,
0.973,0.12,-0.11,1.08,0.05,-0.12,1.02,
0.974,0.12,-0.11,1.08,0.05,-0.12,1.02,
0.974,0.12,-0.12,1.09,0.05,-0.12,1.02,
0.974,0.12,-0.12,1.09,0.13,-0.22,1.07,
0.976,0.12,-0.12,1.08,0.13,-0.22,1.07,
0.978,0.13,-0.13,1.08,0.13,-0.22,1.07,
0.979,0.13,-0.13,1.08,0.20,-0.27,1.14,
0.981,0.13,-0.13,1.07,0.20,-0.27,1.14,
0.983,0.13,-0.13,1.07,0.20,-0.27,1.14,
0.984,0.13,-0.13,1.07,0.23,-0.35,1.12,
0.987,0.13,-0.14,1.08,0.23,-0.35,1.12,
0.988,0.14,-0.14,1.07,0.23,-0.35,1.12,
0.989,0.14,-0.14,1.07,0.30,-0.38,1.02,
0.991,0.14,-0.14,1.07,0.30,-0.38,1.02,
0.993,0.14,-0.13,1.07,0.30,-0.38,1.02,
0.994,0.14,-0.13,1.07,0.33,-0.42,1.06,
0.996,0.14,-0.14,1.07,0.33,-0.42,1.06,
0.999,0.14,-0.13,1.06,0.33,-0.42,1.06,
1.0,0.14,-0.13,1.06,0.39,-0.39,0.97,
1.002,0.14,-0.13,1.06,0.39,-0.39,0.97,
1.004,0.14,-0.13,1.06,0.39,-0.39,0.97,
1.005,0.14,-0.13,1.06,0.39,-0.37,0.95,
1.007,0.14,-0.12,1.06,0.39,-0.37,0.95,
1.008,0.13,-0.12,1.06,0.39,-0.37,0.95,
1.009,0.13,-0.12,1.06,0.34,-0.29,0.93,
1.011,0.13,-0.11,1.07,0.34,-0.29,0.93,
1.013,0.13,-0.11,1.07,0.31,-0.18,0.93,
1.014,0.12,-0.11,1.06,0.31,-0.18,0.93,
1.016,0.11,-0.10,1.07,0.31,-0.18,0.93,
1.018,0.11,-0.10,1.07,0.31,-0.18,0.93,
1.019,0.11,-0.10,1.07,0.18,-0.05,0.95,
1.021,0.09,-0.10,1.09,0.18,-0.05,0.95,
1.023,0.08,-0.09,1.10,0.18,-0.05,0.95,
1.023,0.08,-0.09,1.10,0.03,0.00,1.02,
1.026,0.07,-0.09,1.11,0.03,0.00,1.02,
1.029,0.06,-0.09,1.13,0.03,0.00,1.02,
1.029,0.06,-0.09,1.13,-0.21,0.09,1.23,
1.031,0.04,-0.08,1.13,-0.21,0.09,1.23,
1.034,0.03,-0.08,1.14,-0.21,0.09,1.23,
1.034,0.03,-0.08,1.14,-0.42,0.17,1.47,
1.041,0.02,-0.08,1.16,-0.42,0.17,1.47,
1.041,0.01,-0.08,1.16,-0.42,0.17,1.47,
1.041,0.01,-0.08,1.16,-0.68,0.25,1.66,
1.042,0.01,-0.08,1.17,-0.68,0.25,1.66,
1.044,-0.00,-0.08,1.17,-0.68,0.25,1.66,
1.044,-0.00,-0.08,1.17,-0.89,0.31,1.86,
1.046,-0.01,-0.08,1.17,-0.89,0.31,1.86,
1.048,-0.01,-0.09,1.18,-0.89,0.31,1.86,
1.048,-0.01,-0.09,1.18,-0.99,0.31,1.94,
1.051,-0.01,-0.10,1.17,-0.99,0.31,1.94,
1.054,-0.01,-0.10,1.18,-0.99,0.31,1.94,
1.055,-0.01,-0.10,1.18,-1.08,0.26,1.98,
1.056,-0.01,-0.11,1.17,-1.08,0.26,1.98,
1.058,-0.01,-0.11,1.17,-1.08,0.26,1.98,
1.058,-0.01,-0.11,1.17,-1.15,0.18,2.00,
1.061,-0.00,-0.12,1.17,-1.15,0.18,2.00,
1.063,-0.00,-0.12,1.17,-1.15,0.18,2.00,
1.064,-0.00,-0.12,1.17,-1.09,0.06,1.98,
1.066,0.00,-0.13,1.17,-1.09,0.06,1.98,
1.069,0.01,-0.13,1.17,-1.09,0.06,1.98,
1.069,0.01,-0.13,1.17,-1.05,-0.04,1.95,
1.071,0.01,-0.14,1.17,-1.05,-0.04,1.95,
1.073,0.01,-0.14,1.16,-1.05,-0.04,1.95,
1.073,0.01,-0.14,1.16,-0.96,-0.13,1.93,
1.076,0.01,-0.14,1.17,-0.96,-0.13,1.93,
1.079,0.01,-0.15,1.16,-0.96,-0.13,1.93,
1.079,0.01,-0.15,1.16,-0.95,-0.20,1.89,
1.082,0.01,-0.15,1.16,-0.95,-0.20,1.89,
1.084,0.01,-0.15,1.16,-0.92,-0.23,1.84,
1.084,0.01,-0.15,1.16,-0.92,-0.23,1.84,
1.086,0.02,-0.14,1.16,-0.92,-0.23,1.84,
1.088,0.02,-0.14,1.16,-0.92,-0.23,1.84,
1.089,0.02,-0.14,1.16,-0.88,-0.24,1.81,
1.091,0.02,-0.14,1.16,-0.88,-0.24,1.81,
1.094,0.02,-0.14,1.16,-0.83,-0.19,1.80,
1.094,0.02,-0.14,1.16,-0.83,-0.19,1.80,
1.096,0.02,-0.13,1.17,-0.83,-0.19,1.80,
1.098,0.01,-0.13,1.16,-0.83,-0.19,1.80,
1.099,0.01,-0.13,1.16,-0.83,-0.13,1.82,
1.101,0.01,-0.13,1.16,-0.83,-0.13,1.82,
1.104,0.01,-0.14,1.15,-0.83,-0.13,1.82,
1.104,0.01,-0.14,1.15,-0.85,-0.09,1.83,
1.106,0.00,-0.14,1.15,-0.85,-0.09,1.83,
1.109,0.00,-0.14,1.14,-0.85,-0.09,1.83,
1.109,0.00,-0.14,1.14,-0.88,-0.10,1.76,
1.111,0.00,-0.14,1.14,-0.88,-0.10,1.76,
1.114,-0.00,-0.14,1.14,-0.88,-0.10,1.76,
1.114,-0.00,-0.14,1.14,-0.95,-0.10,1.67,
1.116,-0.00,-0.14,1.14,-0.95,-0.10,1.67,
1.118,-0.01,-0.13,1.13,-0.95,-0.10,1.67,
1.119,-0.01,-0.13,1.13,-0.96,-0.12,1.60,
1.122,-0.01,-0.13,1.13,-0.96,-0.12,1.60,
1.122,-0.01,-0.13,1.13,-1.03,-0.08,1.54,
1.123,-0.02,-0.13,1.12,-1.03,-0.08,1.54,
1.125,-0.01,-0.13,1.13,-1.03,-0.08,1.54,
1.127,-0.01,-0.13,1.12,-1.03,-0.08,1.54,
1.128,-0.01,-0.13,1.12,-1.11,-0.05,1.46,
1.13,-0.02,-0.13,1.12,-1.11,-0.05,1.46,
1.132,-0.02,-0.13,1.12,-1.11,-0.05,1.46,
1.132,-0.02,-0.13,1.12,-1.08,-0.02,1.40,
1.134,-0.02,-0.13,1.11,-1.08,-0.02,1.40,
1.138,-0.02,-0.13,1.11,-1.08,-0.02,1.40,
1.139,-0.02,-0.13,1.11,-1.13,-0.04,1.36,
1.14,-0.01,-0.13,1.11,-1.13,-0.04,1.36,
1.142,-0.01,-0.13,1.11,-1.13,-0.04,1.36,
1.143,-0.01,-0.13,1.11,-1.10,0.00,1.25,
1.144,-0.01,-0.14,1.11,-1.10,0.00,1.25,
1.147,-0.01,-0.14,1.12,-1.10,0.00,1.25,
1.152,-0.01,-0.14,1.12,-1.06,-0.05,1.26,
1.153,-0.01,-0.15,1.12,-1.06,-0.05,1.26,
1.153,-0.01,-0.15,1.12,-1.06,-0.05,1.26,
1.154,-0.01,-0.15,1.12,-1.05,-0.13,1.29,
1.162,-0.01,-0.15,1.13,-1.05,-0.13,1.29,
1.163,-0.01,-0.16,1.14,-1.05,-0.13,1.29,
1.163,-0.01,-0.16,1.14,-0.98,-0.22,1.34,
1.164,-0.00,-0.17,1.14,-0.98,-0.22,1.34,
1.164,0.00,-0.17,1.15,-0.98,-0.22,1.34,
1.164,0.00,-0.17,1.15,-0.98,-0.29,1.46,
1.165,0.00,-0.18,1.15,-0.98,-0.29,1.46,
1.167,0.01,-0.18,1.16,-0.98,-0.29,1.46,
1.167,0.01,-0.18,1.16,-0.91,-0.43,1.57,
1.175,0.02,-0.18,1.17,-0.91,-0.43,1.57,
1.176,0.02,-0.19,1.17,-0.91,-0.43,1.57,
1.176,0.02,-0.19,1.17,-0.84,-0.48,1.71,
1.177,0.02,-0.19,1.17,-0.84,-0.48,1.71,
1.177,0.02,-0.19,1.17,-0.84,-0.48,1.71,
1.177,0.02,-0.19,1.17,-0.70,-0.56,1.82,
1.179,0.03,-0.19,1.17,-0.70,-0.56,1.82,
1.181,0.03,-0.19,1.17,-0.70,-0.56,1.82,
1.182,0.03,-0.19,1.17,-0.67,-0.59,1.83,
1.184,0.03,-0.19,1.15,-0.67,-0.59,1.83,
1.187,0.03,-0.18,1.16,-0.67,-0.59,1.83,
1.188,0.03,-0.18,1.16,-0.58,-0.59,1.79,
1.189,0.03,-0.18,1.15,-0.58,-0.59,1.79,
1.191,0.03,-0.18,1.14,-0.58,-0.59,1.79,
1.192,0.03,-0.18,1.14,-0.57,-0.53,1.66,
1.194,0.04,-0.17,1.13,-0.57,-0.53,1.66,
1.196,0.04,-0.17,1.12,-0.57,-0.53,1.66,
1.197,0.04,-0.17,1.12,-0.51,-0.49,1.54,
1.199,0.03,-0.16,1.12,-0.51,-0.49,1.54,
1.201,0.03,-0.15,1.12,-0.51,-0.49,1.54,
1.201,0.03,-0.15,1.12,-0.41,-0.40,1.38,
1.204,0.04,-0.15,1.11,-0.41,-0.40,1.38,
1.206,0.03,-0.15,1.10,-0.41,-0.40,1.38,
1.207,0.03,-0.15,1.10,-0.42,-0.27,1.28,
1.209,0.03,-0.14,1.10,-0.42,-0.27,1.28,
1.211,0.03,-0.14,1.10,-0.42,-0.27,1.28,
1.211,0.03,-0.14,1.10,-0.41,-0.16,1.17,
1.214,0.03,-0.15,1.10,-0.41,-0.16,1.17,
1.216,0.03,-0.14,1.10,-0.41,-0.16,1.17,
1.217,0.03,-0.14,1.10,-0.43,-0.14,1.08,
1.221,0.03,-0.14,1.10,-0.43,-0.14,1.08,
1.222,0.03,-0.14,1.09,-0.43,-0.14,1.08,
1.223,0.03,-0.14,1.09,-0.38,-0.13,1.06,
1.224,0.04,-0.15,1.09,-0.38,-0.13,1.06,
1.228,0.04,-0.15,1.09,-0.36,-0.11,1.04,
1.228,0.04,-0.15,1.09,-0.36,-0.11,1.04,
1.229,0.05,-0.16,1.09,-0.36,-0.11,1.04,
1.231,0.05,-0.16,1.09,-0.36,-0.11,1.04,
1.231,0.05,-0.16,1.09,-0.26,-0.21,0.99,
1.234,0.05,-0.16,1.10,-0.26,-0.21,0.99,
1.238,0.05,-0.17,1.10,-0.26,-0.21,0.99,
1.239,0.05,-0.17,1.10,-0.19,-0.27,1.00,
1.239,0.06,-0.17,1.11,-0.19,-0.27,1.00,
1.241,0.06,-0.18,1.11,-0.19,-0.27,1.00,
1.241,0.06,-0.18,1.11,-0.12,-0.33,1.07,
1.243,0.07,-0.18,1.11,-0.12,-0.33,1.07,
1.246,0.07,-0.18,1.11,-0.12,-0.33,1.07,
1.246,0.07,-0.18,1.11,-0.02,-0.43,1.15,
1.248,0.08,-0.19,1.11,-0.02,-0.43,1.15,
1.251,0.08,-0.19,1.11,-0.02,-0.43,1.15,
1.251,0.08,-0.19,1.11,0.09,-0.50,1.15,
1.258,0.08,-0.19,1.11,0.09,-0.50,1.15,
1.259,0.08,-0.19,1.11,0.09,-0.50,1.15,
1.259,0.08,-0.19,1.11,0.18,-0.56,1.18,
1.26,0.09,-0.19,1.11,0.18,-0.56,1.18,
1.261,0.09,-0.19,1.11,0.18,-0.56,1.18,
1.261,0.09,-0.19,1.11,0.20,-0.60,1.15,
1.263,0.09,-0.19,1.10,0.20,-0.60,1.15,
1.266,0.09,-0.19,1.10,0.27,-0.58,1.12,
1.266,0.09,-0.19,1.09,0.27,-0.58,1.12,
1.268,0.09,-0.19,1.09,0.27,-0.58,1.12,
1.272,0.10,-0.20,1.08,0.27,-0.58,1.12,
1.272,0.10,-0.20,1.08,0.28,-0.62,1.01,
1.273,0.10,-0.19,1.07,0.28,-0.62,1.01,
1.276,0.09,-0.18,1.06,0.28,-0.62,1.01,
1.277,0.09,-0.18,1.06,0.33,-0.65,0.90,
1.278,0.09,-0.19,1.05,0.33,-0.65,0.90,
1.281,0.09,-0.18,1.05,0.33,-0.65,0.90,
1.281,0.09,-0.18,1.05,0.35,-0.59,0.69,
1.283,0.09,-0.17,1.04,0.35,-0.59,0.69,
1.285,0.10,-0.16,1.03,0.35,-0.59,0.69,
1.285,0.10,-0.16,1.03,0.31,-0.56,0.53,
1.288,0.10,-0.15,1.02,0.31,-0.56,0.53,
1.291,0.10,-0.14,1.02,0.31,-0.56,0.53,
1.291,0.10,-0.14,1.02,0.35,-0.35,0.36,
1.293,0.11,-0.12,1.02,0.35,-0.35,0.36,
1.295,0.12,-0.11,1.01,0.35,-0.35,0.36,
1.296,0.12,-0.11,1.01,0.43,-0.15,0.22,
1.298,0.12,-0.10,1.01,0.43,-0.15,0.22,
1.3,0.13,-0.10,1.01,0.43,-0.15,0.22,
1.301,0.13,-0.10,1.01,0.54,0.09,0.19,
1.304,0.14,-0.10,1.02,0.54,0.09,0.19,
1.305,0.15,-0.09,1.03,0.54,0.09,0.19,
1.306,0.15,-0.09,1.03,0.70,0.21,0.15,
1.308,0.15,-0.09,1.04,0.70,0.21,0.15,
1.31,0.16,-0.09,1.04,0.70,0.21,0.15,
1.311,0.16,-0.09,1.04,0.84,0.27,0.26,
1.313,0.16,-0.08,1.06,0.84,0.27,0.26,
1.316,0.16,-0.08,1.06,0.93,0.31,0.43,
1.316,0.16,-0.09,1.08,0.93,0.31,0.43,
1.318,0.16,-0.09,1.09,0.93,0.31,0.43,
1.322,0.16,-0.09,1.11,0.93,0.31,0.43,
1.323,0.16,-0.09,1.11,0.97,0.37,0.72,
1.323,0.17,-0.10,1.12,0.97,0.37,0.72,
1.325,0.17,-0.10,1.13,0.97,0.37,0.72,
1.326,0.17,-0.10,1.13,0.97,0.31,0.97,
1.328,0.17,-0.11,1.14,0.97,0.31,0.97,
1.33,0.18,-0.11,1.14,0.97,0.31,0.97,
1.33,0.18,-0.11,1.14,1.02,0.24,1.20,
1.333,0.18,-0.11,1.15,1.02,0.24,1.20,
1.336,0.17,-0.11,1.15,1.02,0.24,1.20,
1.336,0.17,-0.11,1.15,1.05,0.14,1.38,
1.339,0.18,-0.11,1.15,1.05,0.14,1.38,
1.342,0.18,-0.10,1.15,1.05,0.14,1.38,
1.343,0.18,-0.10,1.15,1.05,0.13,1.44,
1.343,0.18,-0.10,1.16,1.05,0.13,1.44,
1.346,0.19,-0.09,1.15,1.05,0.13,1.44,
1.346,0.19,-0.09,1.15,1.07,0.17,1.47,
1.348,0.19,-0.09,1.15,1.07,0.17,1.47,
1.351,0.19,-0.08,1.14,1.07,0.17,1.47,
1.351,0.19,-0.08,1.14,1.14,0.21,1.47,
1.353,0.19,-0.08,1.14,1.14,0.21,1.47,
1.356,0.20,-0.07,1.13,1.14,0.21,1.47,
1.357,0.20,-0.07,1.13,1.19,0.32,1.39,
1.357,0.19,-0.07,1.12,1.19,0.32,1.39,
1.361,0.19,-0.06,1.11,1.19,0.32,1.39,
1.361,0.19,-0.06,1.11,1.25,0.42,1.25,
1.363,0.19,-0.06,1.09,1.25,0.42,1.25,
1.365,0.18,-0.06,1.09,1.25,0.42,1.25,
1.366,0.18,-0.06,1.09,1.20,0.51,1.09,
1.368,0.19,-0.06,1.07,1.20,0.51,1.09,
1.37,0.18,-0.06,1.06,1.20,0.51,1.09,
1.371,0.18,-0.06,1.06,1.18,0.54,0.84,
1.377,0.17,-0.06,1.03,1.18,0.54,0.84,
1.378,0.17,-0.06,1.02,1.18,0.54,0.84,
1.378,0.17,-0.06,1.02,1.15,0.56,0.56,
1.378,0.16,-0.06,1.00,1.15,0.56,0.56,
1.38,0.15,-0.07,0.98,1.15,0.56,0.56,
1.38,0.15,-0.07,0.98,1.04,0.54,0.22,
1.383,0.15,-0.07,0.97,1.04,0.54,0.22,
1.386,0.14,-0.07,0.95,1.04,0.54,0.22,
1.386,0.14,-0.07,0.95,0.89,0.44,-0.13,
1.397,0.13,-0.08,0.94,0.89,0.44,-0.13,
1.398,0.13,-0.08,0.92,0.89,0.44,-0.13,
1.398,0.13,-0.08,0.92,0.78,0.39,-0.48,
1.398,0.12,-0.07,0.92,0.78,0.39,-0.48,
1.399,0.11,-0.07,0.92,0.78,0.39,-0.48,
1.399,0.11,-0.07,0.92,0.63,0.31,-0.76,
1.399,0.09,-0.07,0.93,0.63,0.31,-0.76,
1.4,0.09,-0.07,0.93,0.63,0.31,-0.76,
1.4,0.09,-0.07,0.93,0.48,0.37,-0.89,
1.402,0.08,-0.08,0.94,0.48,0.37,-0.89,
1.406,0.07,-0.08,0.96,0.48,0.37,-0.89,
1.406,0.07,-0.08,0.96,0.28,0.34,-0.73,
1.408,0.05,-0.08,0.97,0.28,0.34,-0.73,
1.41,0.04,-0.08,0.99,0.28,0.34,-0.73,
1.41,0.04,-0.08,0.99,0.09,0.27,-0.53,
1.413,0.02,-0.09,1.02,0.09,0.27,-0.53,
1.415,0.00,-0.09,1.04,0.09,0.27,-0.53,
1.415,0.00,-0.09,1.04,-0.19,0.21,-0.23,
1.418,-0.02,-0.10,1.05,-0.19,0.21,-0.23,
1.42,-0.03,-0.11,1.06,-0.19,0.21,-0.23,
1.421,-0.03,-0.11,1.06,-0.53,0.13,0.19,
1.423,-0.04,-0.12,1.08,-0.53,0.13,0.19,
1.425,-0.04,-0.12,1.10,-0.53,0.13,0.19,
1.425,-0.04,-0.12,1.10,-0.86,0.02,0.52,
1.428,-0.04,-0.13,1.10,-0.86,0.02,0.52,
1.43,-0.04,-0.14,1.10,-0.86,0.02,0.52,
1.43,-0.04,-0.14,1.10,-1.03,-0.14,0.83,
1.433,-0.04,-0.14,1.11,-1.03,-0.14,0.83,
1.435,-0.03,-0.15,1.11,-1.03,-0.14,0.83,
1.435,-0.03,-0.15,1.11,-1.07,-0.29,0.94,
1.437,-0.03,-0.15,1.11,-1.07,-0.29,0.94,
1.439,-0.02,-0.15,1.12,-1.07,-0.29,0.94,
1.44,-0.02,-0.15,1.12,-0.99,-0.39,1.03,
1.442,-0.00,-0.15,1.10,-0.99,-0.39,1.03,
1.445,-0.00,-0.14,1.10,-0.99,-0.39,1.03,
1.445,-0.00,-0.14,1.10,-0.87,-0.43,1.05,
1.447,0.01,-0.14,1.10,-0.87,-0.43,1.05,
1.45,0.02,-0.14,1.09,-0.87,-0.43,1.05,
1.45,0.02,-0.14,1.09,-0.68,-0.41,0.95,
1.453,0.02,-0.13,1.09,-0.68,-0.41,0.95,
1.458,0.03,-0.13,1.09,-0.68,-0.41,0.95,
1.459,0.03,-0.13,1.09,-0.54,-0.34,0.88,
1.459,0.04,-0.13,1.08,-0.54,-0.34,0.88,
1.46,0.05,-0.13,1.06,-0.54,-0.34,0.88,
1.46,0.05,-0.13,1.06,-0.39,-0.28,0.81,
1.462,0.05,-0.13,1.05,-0.39,-0.28,0.81,
1.464,0.06,-0.13,1.05,-0.39,-0.28,0.81,
1.464,0.06,-0.13,1.05,-0.23,-0.27,0.62,
1.467,0.06,-0.13,1.03,-0.23,-0.27,0.62,
1.469,0.06,-0.12,1.02,-0.23,-0.27,0.62,
1.469,0.06,-0.12,1.02,-0.14,-0.30,0.40,
1.472,0.06,-0.12,1.00,-0.14,-0.30,0.40,
1.475,0.06,-0.12,0.99,-0.14,-0.30,0.40,
1.475,0.06,-0.12,0.99,-0.09,-0.27,0.15,
1.477,0.06,-0.11,0.98,-0.09,-0.27,0.15,
1.48,0.06,-0.10,0.97,-0.09,-0.27,0.15,
1.481,0.06,-0.10,0.97,-0.09,-0.23,-0.13,
1.482,0.06,-0.09,0.95,-0.09,-0.23,-0.13,
1.485,0.06,-0.08,0.95,-0.09,-0.23,-0.13,
1.485,0.06,-0.08,0.95,-0.08,-0.10,-0.37,
1.487,0.06,-0.07,0.94,-0.08,-0.10,-0.37,
1.49,0.06,-0.06,0.95,-0.08,-0.10,-0.37,
1.49,0.06,-0.06,0.95,-0.09,0.08,-0.58,
1.492,0.05,-0.05,0.96,-0.09,0.08,-0.58,
1.494,0.05,-0.04,0.96,-0.09,0.08,-0.58,
1.494,0.05,-0.04,0.96,-0.11,0.31,-0.61,
1.497,0.05,-0.03,0.97,-0.11,0.31,-0.61,
1.499,0.05,-0.03,0.98,-0.11,0.31,-0.61,
1.499,0.05,-0.03,0.98,-0.16,0.52,-0.48,
1.501,0.04,-0.02,0.99,-0.16,0.52,-0.48,
1.504,0.04,-0.03,1.01,-0.16,0.52,-0.48,
1.504,0.04,-0.03,1.01,-0.22,0.65,-0.29,
1.506,0.04,-0.02,1.02,-0.22,0.65,-0.29,
1.509,0.03,-0.03,1.03,-0.22,0.65,-0.29,
1.509,0.03,-0.03,1.03,-0.31,0.70,-0.08,
1.511,0.04,-0.04,1.04,-0.31,0.70,-0.08,
1.514,0.03,-0.04,1.05,-0.31,0.70,-0.08,
1.514,0.03,-0.04,1.05,-0.35,0.68,0.15,
1.517,0.03,-0.05,1.06,-0.35,0.68,0.15,
1.519,0.04,-0.05,1.08,-0.35,0.68,0.15,
1.519,0.04,-0.05,1.08,-0.36,0.56,0.37,
1.521,0.04,-0.05,1.09,-0.36,0.56,0.37,
1.523,0.04,-0.06,1.09,-0.36,0.56,0.37,
1.524,0.04,-0.06,1.09,-0.39,0.47,0.61,
1.526,0.04,-0.06,1.10,-0.39,0.47,0.61,
1.528,0.04,-0.07,1.10,-0.39,0.47,0.61,
1.528,0.04,-0.07,1.10,-0.37,0.39,0.78,
1.53,0.04,-0.08,1.09,-0.37,0.39,0.78,
1.533,0.04,-0.08,1.09,-0.37,0.39,0.78,
1.533,0.04,-0.08,1.09,-0.38,0.27,0.87,
1.535,0.04,-0.09,1.08,-0.38,0.27,0.87,
1.539,0.04,-0.09,1.07,-0.38,0.27,0.87,
1.54,0.04,-0.09,1.07,-0.38,0.15,0.81,
1.54,0.04,-0.09,1.07,-0.38,0.15,0.81,
1.543,0.05,-0.09,1.06,-0.38,0.15,0.81,
1.543,0.05,-0.09,1.06,-0.39,0.09,0.68,
1.546,0.05,-0.08,1.04,-0.39,0.09,0.68,
1.548,0.05,-0.09,1.03,-0.39,0.09,0.68,
1.548,0.05,-0.09,1.03,-0.33,0.08,0.53,
1.55,0.06,-0.09,1.02,-0.33,0.08,0.53,
1.553,0.06,-0.09,1.01,-0.33,0.08,0.53,
1.553,0.06,-0.09,1.01,-0.24,0.09,0.28,
1.555,0.06,-0.09,1.00,-0.24,0.09,0.28,
1.558,0.06,-0.09,0.98,-0.24,0.09,0.28,
1.558,0.06,-0.09,0.98,-0.21,0.06,0.04,
1.56,0.06,-0.09,0.97,-0.21,0.06,0.04,
1.563,0.06,-0.09,0.97,-0.18,0.03,-0.20,
1.563,0.06,-0.10,0.96,-0.18,0.03,-0.20,
1.565,0.06,-0.09,0.95,-0.18,0.03,-0.20,
1.567,0.06,-0.09,0.94,-0.18,0.03,-0.20,
1.568,0.06,-0.09,0.94,-0.20,-0.03,-0.44,
1.57,0.06,-0.09,0.94,-0.20,-0.03,-0.44,
1.579,0.06,-0.09,0.94,-0.20,-0.03,-0.44,
1.58,0.06,-0.09,0.94,-0.20,0.02,-0.60,
1.58,0.06,-0.08,0.95,-0.20,0.02,-0.60,
1.581,0.06,-0.08,0.96,-0.20,0.02,-0.60,
1.581,0.06,-0.08,0.96,-0.25,0.05,-0.65,
1.582,0.05,-0.08,0.98,-0.25,0.05,-0.65,
1.582,0.05,-0.08,1.00,-0.25,0.05,-0.65,
1.583,0.05,-0.08,1.00,-0.28,0.11,-0.49,
1.586,0.04,-0.09,1.03,-0.28,0.11,-0.49,
1.597,0.03,-0.09,1.05,-0.28,0.11,-0.49,
1.598,0.03,-0.09,1.05,-0.37,0.11,-0.13,
1.598,0.02,-0.09,1.07,-0.37,0.11,-0.13,
1.599,0.01,-0.10,1.10,-0.37,0.11,-0.13,
1.599,0.01,-0.10,1.10,-0.55,0.07,0.31,
1.599,-0.00,-0.10,1.12,-0.55,0.07,0.31,
1.599,-0.01,-0.09,1.14,-0.55,0.07,0.31,
1.6,-0.01,-0.09,1.14,-0.72,0.04,0.77,
1.6,-0.03,-0.09,1.17,-0.72,0.04,0.77,
1.602,-0.03,-0.09,1.19,-0.72,0.04,0.77,
1.603,-0.03,-0.09,1.19,-0.97,0.06,1.22,
1.605,-0.03,-0.10,1.20,-0.97,0.06,1.22,
1.608,-0.03,-0.10,1.22,-0.97,0.06,1.22,
1.609,-0.03,-0.10,1.22,-1.20,0.08,1.67,
1.61,-0.03,-0.11,1.23,-1.20,0.08,1.67,
1.612,-0.03,-0.11,1.23,-1.21,0.02,1.97,
1.613,-0.02,-0.12,1.23,-1.21,0.02,1.97,
1.615,-0.02,-0.12,1.23,-1.21,0.02,1.97,
1.617,-0.01,-0.13,1.22,-1.21,0.02,1.97,
1.617,-0.01,-0.13,1.22,-1.16,-0.09,2.18,
1.619,-0.01,-0.14,1.21,-1.16,-0.09,2.18,
1.622,-0.00,-0.15,1.20,-1.16,-0.09,2.18,
1.622,-0.00,-0.15,1.20,-1.04,-0.18,2.14,
1.625,0.01,-0.16,1.18,-1.04,-0.18,2.14,
1.627,0.01,-0.16,1.16,-1.04,-0.18,2.14,
1.627,0.01,-0.16,1.16,-0.92,-0.35,1.93,
1.63,0.01,-0.16,1.14,-0.92,-0.35,1.93,
1.632,0.02,-0.16,1.12,-0.92,-0.35,1.93,
1.632,0.02,-0.16,1.12,-0.77,-0.50,1.60,
1.634,0.02,-0.15,1.09,-0.77,-0.50,1.60,
1.637,0.02,-0.15,1.07,-0.77,-0.50,1.60,
1.638,0.02,-0.15,1.07,-0.68,-0.58,1.16,
1.641,0.02,-0.15,1.05,-0.68,-0.58,1.16,
1.642,0.01,-0.14,1.02,-0.68,-0.58,1.16,
1.647,0.01,-0.14,1.02,-0.64,-0.50,0.70,
1.648,0.00,-0.13,1.00,-0.64,-0.50,0.70,
1.649,0.00,-0.13,1.00,-0.64,-0.42,0.22,
1.65,0.01,-0.12,0.98,-0.64,-0.42,0.22,
1.65,0.00,-0.10,0.95,-0.64,-0.42,0.22,
1.653,-0.00,-0.09,0.93,-0.64,-0.42,0.22,
1.653,-0.00,-0.09,0.93,-0.71,-0.24,-0.24,
1.655,-0.00,-0.07,0.91,-0.71,-0.24,-0.24,
1.658,-0.01,-0.06,0.91,-0.71,-0.24,-0.24,
1.659,-0.01,-0.06,0.91,-0.76,0.01,-0.71,
1.659,-0.01,-0.05,0.91,-0.76,0.01,-0.71,
1.662,-0.01,-0.05,0.91,-0.78,0.26,-0.99,
1.663,0.00,-0.04,0.91,-0.78,0.26,-0.99,
1.665,0.01,-0.03,0.91,-0.78,0.26,-0.99,
1.668,0.02,-0.02,0.93,-0.78,0.26,-0.99,
1.668,0.02,-0.02,0.93,-0.76,0.47,-1.02,
1.67,0.02,-0.02,0.94,-0.76,0.47,-1.02,
1.673,0.02,-0.02,0.96,-0.76,0.47,-1.02,
1.673,0.02,-0.02,0.96,-0.62,0.63,-0.90,
1.675,0.03,-0.02,0.98,-0.62,0.63,-0.90,
1.677,0.03,-0.02,1.00,-0.62,0.63,-0.90,
1.677,0.03,-0.02,1.00,-0.54,0.65,-0.60,
1.68,0.02,-0.02,1.02,-0.54,0.65,-0.60,
1.683,0.03,-0.03,1.04,-0.54,0.65,-0.60,
1.684,0.03,-0.03,1.04,-0.52,0.65,-0.21,
1.684,0.02,-0.04,1.06,-0.52,0.65,-0.21,
1.687,0.03,-0.06,1.07,-0.52,0.65,-0.21,
1.687,0.03,-0.06,1.07,-0.54,0.52,0.18,
1.693,0.03,-0.07,1.07,-0.54,0.52,0.18,
1.693,0.03,-0.08,1.08,-0.54,0.52,0.18,
1.694,0.03,-0.08,1.08,-0.52,0.29,0.50,
1.694,0.03,-0.09,1.08,-0.52,0.29,0.50,
1.697,0.03,-0.10,1.08,-0.52,0.29,0.50,
1.697,0.03,-0.10,1.08,-0.52,0.03,0.63,
1.699,0.03,-0.11,1.07,-0.52,0.03,0.63,
1.702,0.02,-0.12,1.07,-0.52,0.03,0.63,
1.702,0.02,-0.12,1.07,-0.53,-0.21,0.69,
1.705,0.01,-0.13,1.06,-0.53,-0.21,0.69,
1.707,0.01,-0.13,1.05,-0.53,-0.21,0.69,
1.707,0.01,-0.13,1.05,-0.56,-0.39,0.56,
1.709,0.01,-0.14,1.03,-0.56,-0.39,0.56,
1.712,0.01,-0.14,1.03,-0.66,-0.57,0.38,
1.712,-0.00,-0.14,1.02,-0.66,-0.57,0.38,
1.715,-0.01,-0.14,1.01,-0.66,-0.57,0.38,
1.717,-0.02,-0.14,1.00,-0.66,-0.57,0.38,
1.717,-0.02,-0.14,1.00,-0.73,-0.65,0.15,
1.719,-0.03,-0.14,0.98,-0.73,-0.65,0.15,
1.722,-0.03,-0.14,0.98,-0.91,-0.68,-0.10,
1.722,-0.04,-0.14,0.95,-0.91,-0.68,-0.10,
1.724,-0.04,-0.14,0.93,-0.91,-0.68,-0.10,
1.727,-0.05,-0.14,0.91,-0.91,-0.68,-0.10,
1.727,-0.05,-0.14,0.91,-1.06,-0.74,-0.48,
1.729,-0.05,-0.13,0.90,-1.06,-0.74,-0.48,
1.732,-0.05,-0.13,0.90,-1.16,-0.74,-0.90,
1.732,-0.05,-0.13,0.89,-1.16,-0.74,-0.90,
1.736,-0.05,-0.12,0.88,-1.16,-0.74,-0.90,
1.738,-0.05,-0.12,0.88,-1.18,-0.70,-1.18,
1.738,-0.04,-0.12,0.87,-1.18,-0.70,-1.18,
1.74,-0.04,-0.11,0.86,-1.18,-0.70,-1.18,
1.742,-0.04,-0.10,0.86,-1.18,-0.70,-1.18,
1.742,-0.04,-0.10,0.86,-1.13,-0.61,-1.35,
1.744,-0.04,-0.09,0.87,-1.13,-0.61,-1.35,
1.746,-0.03,-0.09,0.88,-1.13,-0.61,-1.35,
1.747,-0.03,-0.09,0.88,-1.07,-0.50,-1.48,
1.749,-0.03,-0.07,0.89,-1.07,-0.50,-1.48,
1.752,-0.02,-0.06,0.90,-1.07,-0.50,-1.48,
1.753,-0.02,-0.06,0.90,-1.02,-0.36,-1.37,
1.754,-0.02,-0.05,0.92,-1.02,-0.36,-1.37,
1.757,-0.01,-0.04,0.93,-1.02,-0.36,-1.37,
1.758,-0.01,-0.04,0.93,-0.96,-0.14,-1.16,
1.759,-0.00,-0.04,0.94,-0.96,-0.14,-1.16,
1.762,-0.00,-0.04,0.94,-0.84,0.00,-0.88,
1.762,0.01,-0.04,0.96,-0.84,0.00,-0.88,
1.764,0.02,-0.04,0.97,-0.84,0.00,-0.88,
1.767,0.02,-0.04,0.98,-0.84,0.00,-0.88,
1.767,0.02,-0.04,0.98,-0.71,0.09,-0.59,
1.769,0.03,-0.05,0.99,-0.71,0.09,-0.59,
1.772,0.04,-0.05,0.99,-0.71,0.09,-0.59,
1.772,0.04,-0.05,0.99,-0.55,0.06,-0.35,
1.775,0.05,-0.05,0.99,-0.55,0.06,-0.35,
1.776,0.05,-0.05,1.00,-0.55,0.06,-0.35,
1.776,0.05,-0.05,1.00,-0.40,-0.04,-0.23,
1.779,0.05,-0.06,0.99,-0.40,-0.04,-0.23,
1.782,0.06,-0.06,0.98,-0.40,-0.04,-0.23,
1.782,0.06,-0.06,0.98,-0.26,-0.11,-0.18,
1.784,0.06,-0.06,0.98,-0.26,-0.11,-0.18,
1.787,0.06,-0.06,0.96,-0.26,-0.11,-0.18,
1.787,0.06,-0.06,0.96,-0.20,-0.18,-0.24,
1.789,0.06,-0.07,0.95,-0.20,-0.18,-0.24,
1.798,0.05,-0.07,0.94,-0.20,-0.18,-0.24,
1.799,0.05,-0.07,0.94,-0.19,-0.23,-0.41,
1.799,0.05,-0.07,0.92,-0.19,-0.23,-0.41,
1.799,0.05,-0.07,0.92,-0.20,-0.30,-0.63,
1.8,0.04,-0.06,0.91,-0.20,-0.30,-0.63,
1.8,0.03,-0.06,0.90,-0.20,-0.30,-0.63,
1.8,0.03,-0.06,0.88,-0.20,-0.30,-0.63,
1.801,0.03,-0.06,0.88,-0.29,-0.30,-0.97,
1.803,0.03,-0.05,0.87,-0.29,-0.30,-0.97,
1.812,0.02,-0.05,0.85,-0.29,-0.30,-0.97,
1.812,0.02,-0.05,0.85,-0.42,-0.27,-1.21,
1.816,0.01,-0.04,0.83,-0.42,-0.27,-1.21,
1.816,0.01,-0.04,0.83,-0.50,-0.18,-1.50,
1.817,0.01,-0.03,0.82,-0.50,-0.18,-1.50,
1.817,-0.00,-0.03,0.81,-0.50,-0.18,-1.50,
1.817,-0.00,-0.03,0.80,-0.50,-0.18,-1.50,
1.818,-0.00,-0.03,0.80,-0.61,-0.09,-1.81,
1.818,-0.01,-0.02,0.79,-0.61,-0.09,-1.81,
1.82,-0.01,-0.02,0.79,-0.61,-0.09,-1.81,
1.82,-0.01,-0.02,0.79,-0.74,-0.01,-2.04,
1.823,-0.02,-0.01,0.78,-0.74,-0.01,-2.04,
1.826,-0.02,-0.01,0.79,-0.74,-0.01,-2.04,
1.826,-0.02,-0.01,0.79,-0.85,0.04,-2.20,
1.827,-0.03,-0.01,0.80,-0.85,0.04,-2.20,
1.83,-0.03,-0.00,0.80,-0.85,0.04,-2.20,
1.83,-0.03,-0.00,0.80,-0.94,0.11,-2.23,
1.832,-0.03,-0.01,0.81,-0.94,0.11,-2.23,
1.835,-0.03,-0.01,0.81,-1.00,0.15,-2.07,
1.835,-0.03,-0.00,0.82,-1.00,0.15,-2.07,
1.837,-0.03,-0.01,0.83,-1.00,0.15,-2.07,
1.841,-0.03,-0.01,0.85,-1.00,0.15,-2.07,
1.842,-0.03,-0.01,0.85,-0.99,0.15,-1.87,
1.843,-0.02,-0.01,0.86,-0.99,0.15,-1.87,
1.845,-0.03,-0.02,0.87,-0.99,0.15,-1.87,
1.845,-0.03,-0.02,0.87,-0.99,0.09,-1.66,
1.847,-0.03,-0.02,0.88,-0.99,0.09,-1.66,
1.85,-0.03,-0.03,0.89,-0.99,0.09,-1.66,
1.851,-0.03,-0.03,0.89,-1.00,0.02,-1.38,
1.852,-0.02,-0.03,0.90,-1.00,0.02,-1.38,
1.857,-0.02,-0.04,0.91,-1.00,0.02,-1.38,
1.858,-0.02,-0.04,0.91,-1.03,-0.09,-1.21,
1.858,-0.01,-0.04,0.91,-1.03,-0.09,-1.21,
1.86,-0.01,-0.04,0.91,-0.97,-0.19,-1.04,
1.861,-0.01,-0.04,0.91,-0.97,-0.19,-1.04,
1.862,-0.01,-0.04,0.92,-0.97,-0.19,-1.04,
1.865,-0.00,-0.05,0.91,-0.97,-0.19,-1.04,
1.866,-0.00,-0.05,0.91,-0.91,-0.25,-0.96,
1.868,-0.00,-0.05,0.91,-0.91,-0.25,-0.96,
1.87,0.00,-0.05,0.90,-0.91,-0.25,-0.96,
1.87,0.00,-0.05,0.90,-0.83,-0.30,-0.91,
1.873,0.00,-0.06,0.90,-0.83,-0.30,-0.91,
1.876,-0.00,-0.06,0.88,-0.83,-0.30,-0.91,
1.876,-0.00,-0.06,0.88,-0.77,-0.37,-0.99,
1.877,-0.00,-0.06,0.87,-0.77,-0.37,-0.99,
1.88,-0.00,-0.06,0.86,-0.77,-0.37,-0.99,
1.88,-0.00,-0.06,0.86,-0.75,-0.43,-1.14,
1.883,-0.00,-0.06,0.84,-0.75,-0.43,-1.14,
1.885,-0.00,-0.06,0.84,-0.79,-0.45,-1.40,
1.885,-0.00,-0.05,0.82,-0.79,-0.45,-1.40,
1.887,-0.01,-0.05,0.81,-0.79,-0.45,-1.40,
1.891,-0.01,-0.05,0.80,-0.79,-0.45,-1.40,
1.892,-0.01,-0.05,0.80,-0.78,-0.45,-1.71,
1.892,-0.01,-0.04,0.77,-0.78,-0.45,-1.71,
1.895,-0.01,-0.04,0.77,-0.78,-0.45,-1.71,
1.895,-0.01,-0.04,0.77,-0.82,-0.41,-1.98,
1.897,-0.02,-0.03,0.75,-0.82,-0.41,-1.98,
1.9,-0.03,-0.02,0.75,-0.82,-0.41,-1.98,
1.9,-0.03,-0.02,0.75,-0.87,-0.33,-2.30,
1.902,-0.03,-0.02,0.74,-0.87,-0.33,-2.30,
1.904,-0.03,-0.01,0.73,-0.87,-0.33,-2.30,
1.905,-0.03,-0.01,0.73,-0.95,-0.22,-2.49,
1.916,-0.03,-0.00,0.74,-0.95,-0.22,-2.49,
1.917,-0.03,-0.00,0.74,-1.01,-0.12,-2.62,
1.918,-0.04,0.01,0.75,-1.01,-0.12,-2.62,
1.918,-0.04,0.01,0.77,-1.01,-0.12,-2.62,
1.919,-0.04,0.02,0.79,-1.01,-0.12,-2.62,
1.919,-0.04,0.02,0.79,-1.08,0.06,-2.53,
1.92,-0.04,0.02,0.80,-1.08,0.06,-2.53,
1.92,-0.04,0.02,0.82,-1.08,0.06,-2.53,
1.921,-0.04,0.02,0.82,-1.17,0.18,-2.20,
1.933,-0.03,0.02,0.84,-1.17,0.18,-2.20,
1.934,-0.03,0.02,0.86,-1.17,0.18,-2.20,
1.935,-0.03,0.02,0.86,-1.18,0.24,-1.85,
1.935,-0.03,0.01,0.88,-1.18,0.24,-1.85,
1.935,-0.01,0.00,0.89,-1.18,0.24,-1.85,
1.936,-0.01,0.00,0.89,-1.12,0.18,-1.48,
1.936,-0.01,-0.00,0.89,-1.12,0.18,-1.48,
1.937,-0.01,-0.01,0.91,-1.12,0.18,-1.48,
1.937,-0.01,-0.01,0.91,-1.04,0.05,-1.18,
1.937,0.00,-0.02,0.92,-1.04,0.05,-1.18,
1.94,0.01,-0.02,0.92,-1.04,0.05,-1.18,
1.941,0.01,-0.02,0.92,-0.98,-0.09,-0.97,
1.941,0.01,-0.03,0.93,-0.98,-0.09,-0.97,
1.944,0.02,-0.04,0.93,-0.98,-0.09,-0.97,
1.944,0.02,-0.04,0.93,-0.83,-0.22,-0.78,
1.947,0.03,-0.04,0.93,-0.83,-0.22,-0.78,
1.949,0.04,-0.04,0.93,-0.83,-0.22,-0.78,
1.949,0.04,-0.04,0.93,-0.72,-0.34,-0.71,
1.951,0.04,-0.05,0.93,-0.72,-0.34,-0.71,
1.954,0.04,-0.05,0.93,-0.72,-0.34,-0.71,
1.954,0.04,-0.05,0.93,-0.59,-0.41,-0.68,
1.957,0.04,-0.05,0.92,-0.59,-0.41,-0.68,
1.959,0.04,-0.05,0.91,-0.59,-0.41,-0.68,
1.96,0.04,-0.05,0.91,-0.55,-0.48,-0.72,
1.961,0.04,-0.05,0.91,-0.55,-0.48,-0.72,
1.964,0.04,-0.04,0.90,-0.55,-0.48,-0.72,
1.964,0.04,-0.04,0.90,-0.53,-0.51,-0.83,
1.966,0.03,-0.05,0.89,-0.53,-0.51,-0.83,
1.969,0.03,-0.05,0.89,-0.53,-0.51,-0.83,
1.969,0.03,-0.05,0.89,-0.56,-0.51,-0.95,
1.971,0.03,-0.05,0.88,-0.56,-0.51,-0.95,
1.975,0.02,-0.04,0.87,-0.56,-0.51,-0.95,
1.976,0.02,-0.04,0.87,-0.61,-0.53,-1.07,
1.977,0.02,-0.04,0.87,-0.61,-0.53,-1.07,
1.981,0.02,-0.03,0.86,-0.61,-0.53,-1.07,
1.982,0.02,-0.03,0.86,-0.68,-0.48,-1.19,
1.982,0.03,-0.03,0.86,-0.68,-0.48,-1.19,
1.984,0.03,-0.02,0.87,-0.68,-0.48,-1.19,
1.984,0.03,-0.02,0.87,-0.71,-0.44,-1.30,
1.986,0.03,-0.02,0.86,-0.71,-0.44,-1.30,
1.992,0.03,-0.02,0.87,-0.71,-0.44,-1.30,
1.993,0.03,-0.02,0.87,-0.65,-0.34,-1.32,
1.993,0.03,-0.01,0.87,-0.65,-0.34,-1.32,
1.994,0.03,-0.00,0.87,-0.65,-0.34,-1.32,
1.994,0.03,-0.00,0.87,-0.62,-0.26,-1.31,
1.998,0.04,0.00,0.88,-0.62,-0.26,-1.31,
2.0,0.04,0.00,0.89,-0.62,-0.26,-1.31,
2.0,0.04,0.00,0.89,-0.63,-0.16,-1.24,
2.001,0.04,0.01,0.89,-0.63,-0.16,-1.24,
2.004,0.05,0.01,0.90,-0.63,-0.16,-1.24,
2.004,0.05,0.01,0.90,-0.56,-0.08,-1.11,
2.006,0.05,0.01,0.91,-0.56,-0.08,-1.11,
2.014,0.06,0.01,0.91,-0.56,-0.08,-1.11,
2.015,0.06,0.01,0.91,-0.49,0.02,-1.00,
2.015,0.06,0.01,0.92,-0.49,0.02,-1.00,
2.016,0.06,0.01,0.92,-0.49,0.02,-1.00,
2.016,0.06,0.01,0.92,-0.39,0.03,-0.86,
2.017,0.08,0.01,0.92,-0.39,0.03,-0.86,
2.018,0.08,0.01,0.93,-0.39,0.03,-0.86,
2.019,0.08,0.01,0.93,-0.32,0.02,-0.78,
2.021,0.09,0.00,0.93,-0.32,0.02,-0.78,
2.024,0.09,-0.00,0.93,-0.32,0.02,-0.78,
2.025,0.09,-0.00,0.93,-0.16,-0.03,-0.70,
2.026,0.09,-0.00,0.93,-0.16,-0.03,-0.70,
2.028,0.09,-0.00,0.92,-0.16,-0.03,-0.70,
2.028,0.09,-0.00,0.92,-0.05,-0.11,-0.64,
2.031,0.10,-0.01,0.93,-0.05,-0.11,-0.64,
2.033,0.10,-0.01,0.93,-0.01,-0.15,-0.71,
2.033,0.10,-0.01,0.93,-0.01,-0.15,-0.71,
2.036,0.09,-0.01,0.93,-0.01,-0.15,-0.71,
2.039,0.09,-0.01,0.93,-0.01,-0.15,-0.71,
2.039,0.09,-0.01,0.93,0.05,-0.21,-0.67,
2.04,0.09,-0.01,0.92,0.05,-0.21,-0.67,
2.043,0.08,-0.01,0.92,0.05,-0.21,-0.67,
2.044,0.08,-0.01,0.92,0.01,-0.22,-0.66,
2.049,0.08,-0.01,0.91,0.01,-0.22,-0.66,
2.049,0.07,-0.01,0.91,0.01,-0.22,-0.66,
2.049,0.07,-0.01,0.91,-0.07,-0.20,-0.76,
2.051,0.07,-0.01,0.91,-0.07,-0.20,-0.76,
2.053,0.06,-0.00,0.91,-0.07,-0.20,-0.76,
2.054,0.06,-0.00,0.91,-0.14,-0.20,-0.82,
2.056,0.06,-0.00,0.90,-0.14,-0.20,-0.82,
2.058,0.06,-0.00,0.90,-0.14,-0.20,-0.82,
2.059,0.06,-0.00,0.90,-0.24,-0.18,-0.83,
2.062,0.06,0.00,0.90,-0.24,-0.18,-0.83,
2.063,0.05,0.01,0.89,-0.24,-0.18,-0.83,
2.063,0.05,0.01,0.89,-0.29,-0.14,-0.95,
2.066,0.05,0.01,0.89,-0.29,-0.14,-0.95,
2.069,0.05,0.01,0.90,-0.29,-0.14,-0.95,
2.069,0.05,0.01,0.90,-0.34,-0.08,-0.96,
2.071,0.05,0.01,0.90,-0.34,-0.08,-0.96,
2.073,0.05,0.01,0.90,-0.34,-0.08,-0.96,
2.075,0.05,0.01,0.90,-0.37,-0.07,-0.99,
2.075,0.05,0.01,0.91,-0.37,-0.07,-0.99,
2.078,0.05,0.01,0.91,-0.37,-0.07,-0.99,
2.078,0.05,0.01,0.91,-0.40,-0.05,-0.95,
2.081,0.05,0.02,0.92,-0.40,-0.05,-0.95,
2.084,0.05,0.02,0.92,-0.35,-0.02,-0.88,
2.084,0.05,0.02,0.92,-0.35,-0.02,-0.88,
2.086,0.05,0.02,0.92,-0.35,-0.02,-0.88,
2.088,0.05,0.03,0.94,-0.35,-0.02,-0.88,
2.089,0.05,0.03,0.94,-0.37,0.04,-0.76,
2.092,0.06,0.03,0.94,-0.37,0.04,-0.76,
2.093,0.05,0.03,0.94,-0.37,0.04,-0.76,
2.093,0.05,0.03,0.94,-0.36,0.10,-0.63,
2.095,0.06,0.03,0.95,-0.36,0.10,-0.63,
2.099,0.06,0.03,0.97,-0.36,0.10,-0.63,
2.099,0.06,0.03,0.97,-0.35,0.13,-0.50,
2.101,0.06,0.03,0.98,-0.35,0.13,-0.50,
2.103,0.06,0.03,0.99,-0.35,0.13,-0.50,
2.103,0.06,0.03,0.99,-0.32,0.16,-0.32,
2.106,0.07,0.03,1.00,-0.32,0.16,-0.32,
2.109,0.07,0.02,1.00,-0.32,0.16,-0.32,
2.11,0.07,0.02,1.00,-0.29,0.13,-0.07,
2.11,0.07,0.02,1.00,-0.29,0.13,-0.07,
2.113,0.08,0.02,1.01,-0.29,0.13,-0.07,
2.113,0.08,0.02,1.01,-0.26,0.08,0.04,
2.116,0.08,0.02,1.01,-0.26,0.08,0.04,
2.118,0.08,0.02,1.01,-0.26,0.08,0.04,
2.119,0.08,0.02,1.01,-0.21,0.04,0.10,
2.121,0.09,0.01,1.02,-0.21,0.04,0.10,
2.123,0.09,0.02,1.01,-0.21,0.04,0.10,
2.123,0.09,0.02,1.01,-0.20,-0.00,0.19,
2.131,0.09,0.02,1.02,-0.20,-0.00,0.19,
2.132,0.09,0.02,1.02,-0.08,-0.05,0.19,
2.132,0.10,0.02,1.01,-0.08,-0.05,0.19,
2.132,0.10,0.02,1.00,-0.08,-0.05,0.19,
2.132,0.10,0.02,1.00,-0.06,-0.03,0.18,
2.132,0.10,0.02,1.00,-0.06,-0.03,0.18,
2.135,0.10,0.03,1.00,-0.06,-0.03,0.18,
2.137,0.10,0.03,0.99,-0.06,-0.03,0.18,
2.14,0.10,0.03,0.99,0.01,-0.02,0.10,
2.141,0.10,0.03,0.98,0.01,-0.02,0.10,
2.143,0.10,0.04,0.97,0.01,-0.02,0.10,
2.144,0.10,0.04,0.97,-0.01,0.05,0.00,
2.145,0.09,0.05,0.97,-0.01,0.05,0.00,
2.147,0.09,0.05,0.96,-0.01,0.05,0.00,
2.148,0.09,0.05,0.96,-0.01,0.10,-0.16,
2.15,0.08,0.05,0.95,-0.01,0.10,-0.16,
2.152,0.08,0.06,0.95,-0.01,0.10,-0.16,
2.153,0.08,0.06,0.95,-0.11,0.20,-0.31,
2.155,0.08,0.06,0.95,-0.11,0.20,-0.31,
2.159,0.08,0.06,0.95,-0.13,0.27,-0.44,
2.16,0.08,0.06,0.95,-0.13,0.27,-0.44,
2.16,0.08,0.07,0.95,-0.13,0.27,-0.44,
2.163,0.07,0.07,0.95,-0.13,0.27,-0.44,
2.164,0.07,0.07,0.95,-0.17,0.34,-0.46,
2.165,0.08,0.07,0.95,-0.17,0.34,-0.46,
2.167,0.08,0.06,0.95,-0.17,0.34,-0.46,
2.167,0.08,0.06,0.95,-0.21,0.38,-0.43,
2.17,0.07,0.07,0.96,-0.21,0.38,-0.43,
2.173,0.07,0.06,0.97,-0.21,0.38,-0.43,
2.173,0.07,0.06,0.97,-0.18,0.37,-0.40,
2.175,0.07,0.06,0.97,-0.18,0.37,-0.40,
2.178,0.07,0.05,0.97,-0.18,0.37,-0.40,
2.178,0.07,0.05,0.97,-0.23,0.34,-0.28,
2.18,0.07,0.05,0.98,-0.23,0.34,-0.28,
2.182,0.07,0.05,0.98,-0.27,0.27,-0.21,
2.182,0.07,0.05,0.98,-0.27,0.27,-0.21,
2.185,0.07,0.04,0.99,-0.27,0.27,-0.21,
2.187,0.07,0.04,1.00,-0.27,0.27,-0.21,
2.187,0.07,0.04,1.00,-0.25,0.19,-0.13,
2.19,0.07,0.03,1.00,-0.25,0.19,-0.13,
2.193,0.07,0.03,1.01,-0.25,0.19,-0.13,
2.194,0.07,0.03,1.01,-0.22,0.11,-0.02,
2.194,0.07,0.02,1.01,-0.22,0.11,-0.02,
2.197,0.07,0.02,1.01,-0.22,0.11,-0.02,
2.198,0.07,0.02,1.01,-0.21,0.06,0.08,
2.2,0.07,0.02,1.02,-0.21,0.06,0.08,
2.202,0.06,0.02,1.02,-0.21,0.06,0.08,
2.202,0.06,0.02,1.02,-0.24,-0.05,0.18,
2.205,0.06,0.01,1.02,-0.24,-0.05,0.18,
2.207,0.06,0.01,1.02,-0.26,-0.09,0.25,
2.208,0.05,0.01,1.03,-0.26,-0.09,0.25,
2.211,0.05,0.01,1.03,-0.26,-0.09,0.25,
2.211,0.05,0.00,1.04,-0.26,-0.09,0.25,
2.212,0.05,0.00,1.04,-0.36,-0.16,0.31,
2.214,0.05,0.01,1.04,-0.36,-0.16,0.31,
2.217,0.05,0.01,1.04,-0.36,-0.16,0.31,
2.218,0.05,0.01,1.04,-0.40,-0.19,0.41,
2.22,0.05,0.00,1.05,-0.40,-0.19,0.41,
2.222,0.04,0.00,1.04,-0.40,-0.19,0.41,
2.222,0.04,0.00,1.04,-0.43,-0.18,0.47,
2.224,0.05,0.00,1.04,-0.43,-0.18,0.47,
2.231,0.05,0.00,1.05,-0.43,-0.18,0.47,
2.232,0.05,0.00,1.05,-0.46,-0.23,0.51,
2.232,0.05,-0.00,1.04,-0.46,-0.23,0.51,
2.232,0.05,-0.00,1.04,-0.43,-0.24,0.50,
2.233,0.05,-0.00,1.04,-0.43,-0.24,0.50,
2.234,0.04,-0.00,1.04,-0.43,-0.24,0.50,
2.236,0.04,-0.00,1.04,-0.43,-0.24,0.50,
2.237,0.04,-0.00,1.04,-0.41,-0.28,0.47,
2.239,0.04,0.00,1.04,-0.41,-0.28,0.47,
2.243,0.04,0.00,1.04,-0.41,-0.28,0.47,
2.243,0.04,0.00,1.04,-0.44,-0.27,0.47,
2.244,0.04,-0.00,1.04,-0.44,-0.27,0.47,
2.246,0.04,0.00,1.04,-0.44,-0.27,0.47,
2.247,0.04,0.00,1.04,-0.48,-0.25,0.42,
2.249,0.03,0.01,1.04,-0.48,-0.25,0.42,
2.252,0.03,0.01,1.04,-0.48,-0.25,0.42,
2.252,0.03,0.01,1.04,-0.52,-0.26,0.43,
2.254,0.03,0.01,1.04,-0.52,-0.26,0.43,
2.257,0.03,0.02,1.05,-0.52,-0.26,0.43,
2.257,0.03,0.02,1.05,-0.56,-0.22,0.44,
2.26,0.03,0.02,1.04,-0.56,-0.22,0.44,
2.261,0.03,0.02,1.05,-0.56,-0.22,0.44,
2.261,0.03,0.02,1.05,-0.57,-0.14,0.48,
2.263,0.04,0.02,1.05,-0.57,-0.14,0.48,
2.266,0.04,0.03,1.04,-0.57,-0.14,0.48,
2.267,0.04,0.03,1.04,-0.57,-0.10,0.50,
2.27,0.05,0.03,1.05,-0.57,-0.10,0.50,
2.272,0.05,0.03,1.05,-0.53,-0.06,0.50,
2.272,0.05,0.03,1.04,-0.53,-0.06,0.50,
2.274,0.06,0.03,1.04,-0.53,-0.06,0.50,
2.277,0.07,0.03,1.04,-0.53,-0.06,0.50,
2.278,0.07,0.03,1.04,-0.40,-0.02,0.48,
2.28,0.08,0.04,1.03,-0.40,-0.02,0.48,
2.282,0.09,0.04,1.02,-0.40,-0.02,0.48,
2.282,0.09,0.04,1.02,-0.25,-0.03,0.41,
2.284,0.10,0.05,1.01,-0.25,-0.03,0.41,
2.286,0.13,0.04,0.94,-0.25,-0.03,0.41,
2.287,0.13,0.04,0.94,-0.08,0.04,0.28,
2.289,0.18,0.06,0.80,-0.08,0.04,0.28,
2.291,0.24,0.11,0.71,-0.08,0.04,0.28,
2.291,0.24,0.11,0.71,0.25,0.05,-0.19,
2.295,0.27,0.12,0.73,0.25,0.05,-0.19,
2.295,0.25,0.12,0.77,0.25,0.05,-0.19,
2.296,0.25,0.12,0.77,1.16,0.45,-2.33,
2.299,0.22,0.11,0.79,1.16,0.45,-2.33,
2.302,0.17,0.10,0.82,1.16,0.45,-2.33,
2.302,0.17,0.10,0.82,1.67,0.80,-2.42,
2.306,0.12,0.10,0.83,1.67,0.80,-2.42,
2.306,0.12,0.10,0.83,1.04,0.68,-1.86,
2.307,0.08,0.10,0.84,1.04,0.68,-1.86,
2.308,0.05,0.10,0.85,1.04,0.68,-1.86,
2.315,0.04,0.10,0.87,1.04,0.68,-1.86,
2.316,0.04,0.10,0.87,0.18,0.63,-1.52,
2.317,0.03,0.09,0.91,0.18,0.63,-1.52,
2.317,0.03,0.09,0.95,0.18,0.63,-1.52,
2.318,0.03,0.09,0.95,-0.39,0.66,-1.28,
2.318,0.03,0.08,0.98,-0.39,0.66,-1.28,
2.322,0.03,0.07,1.02,-0.39,0.66,-1.28,
2.322,0.03,0.07,1.02,-0.57,0.60,-0.65,
2.322,0.02,0.06,1.05,-0.57,0.60,-0.65,
2.33,0.03,0.05,1.09,-0.57,0.60,-0.65,
2.331,0.03,0.05,1.09,-0.57,0.45,0.08,
2.331,0.06,0.05,1.11,-0.57,0.45,0.08,
2.331,0.14,0.08,1.12,-0.57,0.45,0.08,
2.331,0.14,0.08,1.12,-0.60,0.32,0.74,
2.332,0.17,0.08,1.13,-0.60,0.32,0.74,
2.336,0.16,0.07,1.13,-0.60,0.32,0.74,
2.336,0.16,0.07,1.13,0.15,0.41,1.19,
2.337,0.18,0.07,1.14,0.15,0.41,1.19,
2.341,0.20,0.07,1.15,0.15,0.41,1.19,
2.341,0.20,0.07,1.15,0.72,0.48,1.36,
2.352,0.19,0.07,1.16,0.72,0.48,1.36,
2.353,0.18,0.07,1.15,0.72,0.48,1.36,
2.353,0.18,0.07,1.15,0.95,0.49,1.51,
2.353,0.16,0.07,1.15,0.95,0.49,1.51,
2.353,0.16,0.07,1.15,0.92,0.46,1.58,
2.353,0.15,0.07,1.15,0.92,0.46,1.58,
2.354,0.14,0.07,1.14,0.92,0.46,1.58,
2.356,0.12,0.07,1.13,0.92,0.46,1.58,
2.356,0.12,0.07,1.13,0.64,0.41,1.54,
2.368,0.12,0.07,1.12,0.64,0.41,1.54,
2.368,0.11,0.07,1.12,0.64,0.41,1.54,
2.369,0.11,0.07,1.12,0.38,0.43,1.37,
2.369,0.09,0.07,1.10,0.38,0.43,1.37,
2.369,0.09,0.06,1.09,0.38,0.43,1.37,
2.37,0.09,0.06,1.09,0.21,0.43,1.21,
2.37,0.08,0.06,1.07,0.21,0.43,1.21,
2.37,0.07,0.06,1.06,0.21,0.43,1.21,
2.371,0.07,0.06,1.06,-0.00,0.33,0.98,
