
time,gFx,gFy,gFz,ax,ay,az,
0.005,-0.06,0.16,1.02,-0.40,-0.15,0.19,
0.005,-0.05,0.16,1.02,-0.40,-0.15,0.19,
0.005,-0.05,0.16,1.02,-0.37,-0.13,0.25,
0.006,-0.03,0.16,1.02,-0.37,-0.13,0.25,
0.006,-0.02,0.16,1.03,-0.37,-0.13,0.25,
0.006,-0.02,0.16,1.03,-0.32,-0.09,0.40,
0.006,-0.02,0.17,1.03,-0.32,-0.09,0.40,
0.01,-0.02,0.17,1.03,-0.32,-0.09,0.40,
0.01,-0.02,0.17,1.03,-0.03,-0.05,0.41,
0.011,-0.01,0.18,1.04,-0.03,-0.05,0.41,
0.014,-0.01,0.19,1.04,-0.03,-0.05,0.41,
0.014,-0.01,0.19,1.04,0.02,0.04,0.50,
0.017,0.01,0.18,1.03,0.02,0.04,0.50,
0.019,0.03,0.18,1.01,0.02,0.04,0.50,
0.019,0.03,0.18,1.01,0.13,0.20,0.57,
0.021,0.03,0.18,1.00,0.13,0.20,0.57,
0.028,0.02,0.18,0.99,0.13,0.20,0.57,
0.028,0.02,0.18,0.99,0.46,0.15,0.34,
0.028,0.01,0.18,0.99,0.46,0.15,0.34,
0.029,0.00,0.19,0.98,0.46,0.15,0.34,
0.029,0.00,0.19,0.98,0.49,0.15,0.15,
0.031,-0.00,0.19,0.98,0.49,0.15,0.15,
0.034,-0.02,0.19,0.98,0.49,0.15,0.15,
0.034,-0.02,0.19,0.98,0.33,0.21,0.01,
0.037,-0.02,0.19,0.98,0.33,0.21,0.01,
0.039,-0.03,0.20,0.98,0.33,0.21,0.01,
0.039,-0.03,0.20,0.98,0.15,0.24,-0.03,
0.041,-0.03,0.20,0.98,0.15,0.24,-0.03,
0.043,-0.02,0.20,0.99,0.15,0.24,-0.03,
0.044,-0.02,0.20,0.99,0.02,0.30,-0.03,
0.046,-0.02,0.19,1.00,0.02,0.30,-0.03,
0.049,-0.02,0.18,1.01,0.02,0.30,-0.03,
0.049,-0.02,0.18,1.01,0.04,0.34,0.02,
0.051,-0.01,0.18,1.02,0.04,0.34,0.02,
0.054,-0.01,0.18,1.02,0.04,0.34,0.02,
0.054,-0.01,0.18,1.02,0.07,0.24,0.19,
0.056,-0.01,0.18,1.03,0.07,0.24,0.19,
0.058,-0.01,0.18,1.04,0.07,0.24,0.19,
0.058,-0.01,0.18,1.04,0.14,0.22,0.34,
0.061,-0.01,0.18,1.04,0.14,0.22,0.34,
0.064,-0.00,0.18,1.04,0.14,0.22,0.34,
0.064,-0.00,0.18,1.04,0.18,0.20,0.49,
0.066,-0.01,0.18,1.05,0.18,0.20,0.49,
0.069,-0.01,0.18,1.05,0.18,0.20,0.49,
0.069,-0.01,0.18,1.05,0.21,0.17,0.56,
0.071,-0.01,0.18,1.04,0.21,0.17,0.56,
0.074,-0.01,0.18,1.05,0.21,0.17,0.56,
0.074,-0.01,0.18,1.05,0.19,0.18,0.61,
0.076,-0.01,0.17,1.04,0.19,0.18,0.61,
0.078,-0.01,0.18,1.03,0.19,0.18,0.61,
0.078,-0.01,0.18,1.03,0.16,0.15,0.57,
0.081,-0.02,0.18,1.03,0.16,0.15,0.57,
0.084,-0.02,0.18,1.03,0.15,0.13,0.50,
0.084,-0.02,0.18,1.02,0.15,0.13,0.50,
0.086,-0.02,0.18,1.02,0.15,0.13,0.50,
0.089,-0.03,0.18,1.01,0.15,0.13,0.50,
0.09,-0.03,0.18,1.01,0.08,0.16,0.39,
0.091,-0.03,0.18,1.00,0.08,0.16,0.39,
0.093,-0.03,0.19,0.99,0.08,0.16,0.39,
0.093,-0.03,0.19,0.99,0.04,0.19,0.30,
0.095,-0.04,0.19,0.98,0.04,0.19,0.30,
0.098,-0.04,0.19,0.98,0.04,0.19,0.30,
0.099,-0.04,0.19,0.98,0.02,0.21,0.07,
0.101,-0.03,0.19,0.97,0.02,0.21,0.07,
0.103,-0.04,0.19,0.97,0.02,0.21,0.07,
0.104,-0.04,0.19,0.97,-0.05,0.24,-0.07,
0.107,-0.05,0.19,0.97,-0.05,0.24,-0.07,
0.108,-0.05,0.19,0.96,-0.05,0.24,-0.07,
0.108,-0.05,0.19,0.96,-0.05,0.25,-0.16,
0.11,-0.05,0.19,0.97,-0.05,0.25,-0.16,
0.113,-0.05,0.19,0.97,-0.13,0.23,-0.20,
0.114,-0.05,0.19,0.96,-0.13,0.23,-0.20,
0.116,-0.05,0.19,0.96,-0.13,0.23,-0.20,
0.118,-0.06,0.19,0.96,-0.13,0.23,-0.20,
0.118,-0.06,0.19,0.96,-0.16,0.25,-0.20,
0.121,-0.06,0.19,0.96,-0.16,0.25,-0.20,
0.127,-0.06,0.19,0.97,-0.16,0.25,-0.20,
0.127,-0.06,0.19,0.97,-0.22,0.23,-0.25,
0.128,-0.06,0.18,0.97,-0.22,0.23,-0.25,
0.128,-0.06,0.18,0.97,-0.22,0.23,-0.25,
0.128,-0.06,0.18,0.97,-0.25,0.23,-0.19,
0.13,-0.06,0.18,0.98,-0.25,0.23,-0.19,
0.133,-0.07,0.19,0.99,-0.25,0.23,-0.19,
0.133,-0.07,0.19,0.99,-0.22,0.17,-0.13,
0.136,-0.07,0.19,0.99,-0.22,0.17,-0.13,
0.137,-0.07,0.19,0.99,-0.22,0.17,-0.13,
0.138,-0.07,0.19,0.99,-0.28,0.18,-0.02,
0.141,-0.08,0.19,1.00,-0.28,0.18,-0.02,
0.143,-0.08,0.19,1.01,-0.28,0.18,-0.02,
0.144,-0.08,0.19,1.01,-0.35,0.20,0.04,
0.145,-0.09,0.19,1.01,-0.35,0.20,0.04,
0.147,-0.09,0.19,1.02,-0.35,0.20,0.04,
0.147,-0.09,0.19,1.02,-0.41,0.21,0.17,
0.149,-0.09,0.19,1.02,-0.41,0.21,0.17,
0.152,-0.10,0.19,1.03,-0.41,0.21,0.17,
0.152,-0.10,0.19,1.03,-0.48,0.22,0.25,
0.158,-0.10,0.19,1.03,-0.48,0.22,0.25,
0.159,-0.09,0.19,1.03,-0.48,0.22,0.25,
0.159,-0.09,0.19,1.03,-0.52,0.26,0.40,
0.16,-0.10,0.20,1.04,-0.52,0.26,0.40,
0.162,-0.10,0.20,1.04,-0.52,0.26,0.40,
0.162,-0.10,0.20,1.04,-0.54,0.29,0.43,
0.164,-0.10,0.20,1.04,-0.54,0.29,0.43,
0.167,-0.10,0.20,1.04,-0.54,0.29,0.43,
0.167,-0.10,0.20,1.04,-0.54,0.33,0.47,
0.17,-0.10,0.20,1.04,-0.54,0.33,0.47,
0.173,-0.10,0.20,1.04,-0.54,0.33,0.47,
0.173,-0.10,0.20,1.04,-0.54,0.33,0.51,
0.174,-0.10,0.20,1.04,-0.54,0.33,0.51,
0.177,-0.10,0.20,1.04,-0.54,0.33,0.51,
0.177,-0.10,0.20,1.04,-0.54,0.32,0.52,
0.18,-0.10,0.20,1.04,-0.54,0.32,0.52,
0.182,-0.10,0.20,1.04,-0.52,0.32,0.48,
0.182,-0.11,0.19,1.04,-0.52,0.32,0.48,
0.185,-0.11,0.19,1.04,-0.52,0.32,0.48,
0.187,-0.11,0.20,1.04,-0.52,0.32,0.48,
0.187,-0.11,0.20,1.04,-0.59,0.29,0.48,
0.19,-0.11,0.19,1.03,-0.59,0.29,0.48,
0.192,-0.11,0.19,1.04,-0.59,0.29,0.48,
0.192,-0.11,0.19,1.04,-0.58,0.28,0.49,
0.194,-0.11,0.18,1.03,-0.58,0.28,0.49,
0.197,-0.12,0.18,1.03,-0.58,0.28,0.49,
0.197,-0.12,0.18,1.03,-0.59,0.23,0.43,
0.199,-0.12,0.17,1.03,-0.59,0.23,0.43,
0.202,-0.13,0.18,1.03,-0.59,0.23,0.43,
0.202,-0.13,0.18,1.03,-0.61,0.13,0.37,
0.204,-0.13,0.17,1.03,-0.61,0.13,0.37,
0.207,-0.14,0.17,1.03,-0.61,0.13,0.37,
0.208,-0.14,0.17,1.03,-0.71,0.10,0.35,
0.209,-0.14,0.17,1.02,-0.71,0.10,0.35,
0.211,-0.14,0.17,1.02,-0.71,0.10,0.35,
0.212,-0.14,0.17,1.02,-0.78,0.06,0.34,
0.214,-0.15,0.16,1.02,-0.78,0.06,0.34,
0.216,-0.16,0.16,1.02,-0.78,0.06,0.34,
0.217,-0.16,0.16,1.02,-0.81,0.02,0.30,
0.219,-0.16,0.16,1.02,-0.81,0.02,0.30,
0.221,-0.17,0.16,1.02,-0.81,0.02,0.30,
0.228,-0.17,0.16,1.02,-0.94,-0.02,0.31,
0.228,-0.18,0.16,1.03,-0.94,-0.02,0.31,
0.229,-0.18,0.15,1.02,-0.94,-0.02,0.31,
0.229,-0.18,0.15,1.02,-1.03,-0.05,0.29,
0.23,-0.18,0.15,1.03,-1.03,-0.05,0.29,
0.231,-0.19,0.14,1.03,-1.03,-0.05,0.29,
0.231,-0.19,0.14,1.03,-1.11,-0.12,0.33,
0.234,-0.19,0.14,1.03,-1.11,-0.12,0.33,
0.236,-0.19,0.14,1.02,-1.11,-0.12,0.33,
0.237,-0.19,0.14,1.02,-1.18,-0.19,0.37,
0.24,-0.20,0.14,1.02,-1.18,-0.19,0.37,
0.241,-0.20,0.14,1.03,-1.18,-0.19,0.37,
0.242,-0.20,0.14,1.03,-1.20,-0.24,0.33,
0.244,-0.20,0.14,1.02,-1.20,-0.24,0.33,
0.246,-0.20,0.14,1.02,-1.20,-0.24,0.33,
0.246,-0.20,0.14,1.02,-1.27,-0.28,0.28,
0.249,-0.21,0.13,1.02,-1.27,-0.28,0.28,
0.251,-0.21,0.13,1.02,-1.29,-0.28,0.28,
0.251,-0.21,0.13,1.01,-1.29,-0.28,0.28,
0.253,-0.21,0.13,1.01,-1.29,-0.28,0.28,
0.258,-0.22,0.13,1.01,-1.29,-0.28,0.28,
0.259,-0.22,0.13,1.01,-1.35,-0.32,0.23,
0.259,-0.21,0.13,1.01,-1.35,-0.32,0.23,
0.261,-0.22,0.13,1.00,-1.35,-0.32,0.23,
0.261,-0.22,0.13,1.00,-1.41,-0.33,0.18,
0.264,-0.22,0.13,0.99,-1.41,-0.33,0.18,
0.266,-0.22,0.12,1.00,-1.41,-0.33,0.18,
0.266,-0.22,0.12,1.00,-1.41,-0.37,0.12,
0.268,-0.22,0.13,1.00,-1.41,-0.37,0.12,
0.271,-0.22,0.13,0.99,-1.41,-0.37,0.12,
0.271,-0.22,0.13,0.99,-1.41,-0.42,0.04,
0.273,-0.22,0.13,0.99,-1.41,-0.42,0.04,
0.276,-0.22,0.13,0.98,-1.41,-0.42,0.04,
0.276,-0.22,0.13,0.98,-1.41,-0.42,0.00,
0.278,-0.22,0.13,0.98,-1.41,-0.42,0.00,
0.281,-0.22,0.12,0.98,-1.41,-0.42,0.00,
0.281,-0.22,0.12,0.98,-1.39,-0.42,-0.06,
0.283,-0.22,0.12,0.98,-1.39,-0.42,-0.06,
0.286,-0.22,0.11,0.98,-1.39,-0.42,-0.06,
0.286,-0.22,0.11,0.98,-1.36,-0.47,-0.11,
0.288,-0.22,0.11,0.98,-1.36,-0.47,-0.11,
0.291,-0.22,0.11,0.99,-1.36,-0.47,-0.11,
0.292,-0.22,0.11,0.99,-1.37,-0.58,-0.11,
0.293,-0.22,0.10,1.00,-1.37,-0.58,-0.11,
0.296,-0.21,0.10,0.99,-1.37,-0.58,-0.11,
0.296,-0.21,0.10,0.99,-1.38,-0.65,-0.06,
0.298,-0.21,0.10,0.99,-1.38,-0.65,-0.06,
0.301,-0.21,0.10,1.00,-1.38,-0.65,-0.06,
0.302,-0.21,0.10,1.00,-1.32,-0.69,0.04,
0.303,-0.21,0.10,1.00,-1.32,-0.69,0.04,
0.307,-0.20,0.09,1.00,-1.32,-0.69,0.04,
0.308,-0.20,0.09,1.00,-1.27,-0.72,0.04,
0.308,-0.20,0.09,1.00,-1.27,-0.72,0.04,
0.311,-0.20,0.10,1.00,-1.27,-0.72,0.04,
0.311,-0.20,0.10,1.00,-1.20,-0.78,0.09,
0.313,-0.20,0.09,1.00,-1.20,-0.78,0.09,
0.315,-0.20,0.09,1.00,-1.20,-0.78,0.09,
0.316,-0.20,0.09,1.00,-1.20,-0.77,0.10,
0.318,-0.21,0.10,1.00,-1.20,-0.77,0.10,
0.321,-0.21,0.10,1.00,-1.20,-0.77,0.10,
0.321,-0.21,0.10,1.00,-1.16,-0.79,0.09,
0.324,-0.21,0.10,0.99,-1.16,-0.79,0.09,
0.325,-0.21,0.10,0.99,-1.16,-0.79,0.09,
0.328,-0.21,0.10,0.99,-1.20,-0.78,0.09,
0.328,-0.21,0.10,0.99,-1.20,-0.78,0.09,
0.331,-0.21,0.10,0.99,-1.20,-0.78,0.09,
0.331,-0.21,0.10,0.99,-1.26,-0.74,0.00,
0.333,-0.21,0.11,0.98,-1.26,-0.74,0.00,
0.336,-0.21,0.11,0.98,-1.26,-0.74,0.00,
0.336,-0.21,0.11,0.98,-1.24,-0.74,-0.02,
0.338,-0.22,0.11,0.97,-1.24,-0.74,-0.02,
0.344,-0.21,0.11,0.98,-1.24,-0.74,-0.02,
0.345,-0.21,0.11,0.98,-1.25,-0.70,-0.08,
0.345,-0.21,0.11,0.97,-1.25,-0.70,-0.08,
0.345,-0.21,0.11,0.97,-1.25,-0.70,-0.08,
0.345,-0.21,0.11,0.97,-1.27,-0.70,-0.14,
0.35,-0.21,0.12,0.96,-1.27,-0.70,-0.14,
0.35,-0.21,0.12,0.96,-1.27,-0.70,-0.14,
0.35,-0.21,0.12,0.96,-1.19,-0.69,-0.21,
0.353,-0.21,0.11,0.95,-1.19,-0.69,-0.21,
0.355,-0.21,0.12,0.95,-1.19,-0.69,-0.21,
0.355,-0.21,0.12,0.95,-1.19,-0.62,-0.28,
0.361,-0.21,0.12,0.95,-1.19,-0.62,-0.28,
0.362,-0.21,0.12,0.95,-1.19,-0.62,-0.28,
0.362,-0.21,0.12,0.95,-1.19,-0.66,-0.36,
0.366,-0.21,0.12,0.95,-1.19,-0.66,-0.36,
0.366,-0.21,0.12,0.95,-1.19,-0.66,-0.36,
0.366,-0.21,0.12,0.95,-1.18,-0.63,-0.37,
0.367,-0.21,0.13,0.94,-1.18,-0.63,-0.37,
0.37,-0.21,0.13,0.95,-1.18,-0.63,-0.37,
0.371,-0.21,0.13,0.95,-1.21,-0.62,-0.39,
0.373,-0.21,0.13,0.95,-1.21,-0.62,-0.39,
0.375,-0.21,0.13,0.95,-1.21,-0.62,-0.39,
0.375,-0.21,0.13,0.95,-1.19,-0.57,-0.39,
0.378,-0.20,0.13,0.95,-1.19,-0.57,-0.39,
0.381,-0.20,0.13,0.94,-1.19,-0.57,-0.39,
0.381,-0.20,0.13,0.94,-1.17,-0.55,-0.37,
0.383,-0.20,0.13,0.94,-1.17,-0.55,-0.37,
0.385,-0.19,0.13,0.94,-1.17,-0.55,-0.37,
0.385,-0.19,0.13,0.94,-1.10,-0.56,-0.39,
0.388,-0.19,0.13,0.93,-1.10,-0.56,-0.39,
0.392,-0.19,0.14,0.93,-1.10,-0.56,-0.39,
0.392,-0.19,0.14,0.93,-1.04,-0.55,-0.45,
0.392,-0.19,0.14,0.94,-1.04,-0.55,-0.45,
0.395,-0.19,0.14,0.94,-1.04,-0.55,-0.45,
0.395,-0.19,0.14,0.94,-1.00,-0.53,-0.53,
0.398,-0.19,0.14,0.93,-1.00,-0.53,-0.53,
0.4,-0.19,0.14,0.94,-1.00,-0.53,-0.53,
0.401,-0.19,0.14,0.94,-1.00,-0.53,-0.45,
0.403,-0.19,0.14,0.94,-1.00,-0.53,-0.45,
0.405,-0.19,0.15,0.93,-1.00,-0.53,-0.45,
0.405,-0.19,0.15,0.93,-0.96,-0.50,-0.47,
0.408,-0.19,0.15,0.94,-0.96,-0.50,-0.47,
0.41,-0.18,0.15,0.93,-0.96,-0.50,-0.47,
0.41,-0.18,0.15,0.93,-0.94,-0.45,-0.47,
0.412,-0.18,0.14,0.92,-0.94,-0.45,-0.47,
0.416,-0.17,0.14,0.93,-0.94,-0.45,-0.47,
0.416,-0.17,0.14,0.93,-0.93,-0.43,-0.49,
0.418,-0.17,0.14,0.92,-0.93,-0.43,-0.49,
0.42,-0.16,0.13,0.91,-0.93,-0.43,-0.49,
0.42,-0.16,0.13,0.91,-0.82,-0.50,-0.58,
0.423,-0.17,0.14,0.91,-0.82,-0.50,-0.58,
0.425,-0.17,0.14,0.91,-0.74,-0.56,-0.69,
0.425,-0.16,0.13,0.91,-0.74,-0.56,-0.69,
0.427,-0.16,0.13,0.91,-0.74,-0.56,-0.69,
0.43,-0.16,0.13,0.91,-0.74,-0.56,-0.69,
0.43,-0.16,0.13,0.91,-0.72,-0.58,-0.74,
0.433,-0.16,0.13,0.90,-0.72,-0.58,-0.74,
0.435,-0.16,0.13,0.90,-0.72,-0.58,-0.74,
0.435,-0.16,0.13,0.90,-0.71,-0.65,-0.73,
0.437,-0.15,0.13,0.90,-0.71,-0.65,-0.73,
0.445,-0.15,0.13,0.90,-0.71,-0.65,-0.73,
0.446,-0.15,0.13,0.90,-0.69,-0.68,-0.77,
0.446,-0.14,0.13,0.91,-0.69,-0.68,-0.77,
0.446,-0.14,0.13,0.91,-0.69,-0.68,-0.77,
0.446,-0.14,0.13,0.91,-0.60,-0.67,-0.79,
0.447,-0.13,0.13,0.92,-0.60,-0.67,-0.79,
0.449,-0.13,0.13,0.92,-0.52,-0.67,-0.70,
0.45,-0.13,0.13,0.92,-0.52,-0.67,-0.70,
0.452,-0.13,0.13,0.93,-0.52,-0.67,-0.70,
0.455,-0.12,0.13,0.93,-0.52,-0.67,-0.70,
0.456,-0.12,0.13,0.93,-0.43,-0.65,-0.62,
0.458,-0.12,0.13,0.94,-0.43,-0.65,-0.62,
0.46,-0.11,0.12,0.94,-0.43,-0.65,-0.62,
0.46,-0.11,0.12,0.94,-0.38,-0.65,-0.50,
0.462,-0.11,0.12,0.94,-0.38,-0.65,-0.50,
0.464,-0.10,0.12,0.95,-0.38,-0.65,-0.50,
0.464,-0.10,0.12,0.95,-0.30,-0.74,-0.39,
0.467,-0.10,0.12,0.96,-0.30,-0.74,-0.39,
0.47,-0.10,0.12,0.96,-0.30,-0.74,-0.39,
0.47,-0.10,0.12,0.96,-0.22,-0.77,-0.32,
0.472,-0.10,0.12,0.96,-0.22,-0.77,-0.32,
0.476,-0.09,0.12,0.97,-0.22,-0.77,-0.32,
0.477,-0.09,0.12,0.97,-0.18,-0.82,-0.22,
0.477,-0.09,0.11,0.97,-0.18,-0.82,-0.22,
0.479,-0.09,0.11,0.97,-0.18,-0.82,-0.22,
0.479,-0.09,0.11,0.97,-0.14,-0.82,-0.15,
0.481,-0.09,0.12,0.96,-0.14,-0.82,-0.15,
0.484,-0.09,0.12,0.96,-0.14,-0.82,-0.15,
0.484,-0.09,0.12,0.96,-0.13,-0.87,-0.11,
0.486,-0.09,0.12,0.96,-0.13,-0.87,-0.11,
0.489,-0.09,0.13,0.95,-0.13,-0.87,-0.11,
0.489,-0.09,0.13,0.95,-0.10,-0.83,-0.20,
0.491,-0.08,0.12,0.94,-0.10,-0.83,-0.20,
0.494,-0.08,0.12,0.93,-0.10,-0.83,-0.20,
0.494,-0.08,0.12,0.93,-0.08,-0.80,-0.23,
0.497,-0.09,0.13,0.93,-0.08,-0.80,-0.23,
0.499,-0.09,0.13,0.93,-0.03,-0.79,-0.43,
0.499,-0.08,0.13,0.92,-0.03,-0.79,-0.43,
0.501,-0.09,0.12,0.91,-0.03,-0.79,-0.43,
0.504,-0.08,0.13,0.90,-0.03,-0.79,-0.43,
0.505,-0.08,0.13,0.90,-0.07,-0.75,-0.51,
0.506,-0.08,0.13,0.90,-0.07,-0.75,-0.51,
0.509,-0.08,0.13,0.90,-0.07,-0.75,-0.51,
0.51,-0.08,0.13,0.90,-0.08,-0.79,-0.69,
0.511,-0.08,0.13,0.90,-0.08,-0.79,-0.69,
0.514,-0.08,0.13,0.90,-0.08,-0.79,-0.69,
0.514,-0.08,0.13,0.90,-0.02,-0.76,-0.76,
0.516,-0.07,0.14,0.89,-0.02,-0.76,-0.76,
0.519,-0.07,0.14,0.89,-0.02,-0.76,-0.76,
0.519,-0.07,0.14,0.89,-0.01,-0.76,-0.78,
0.521,-0.06,0.14,0.88,-0.01,-0.76,-0.78,
0.525,-0.06,0.14,0.88,-0.01,-0.76,-0.78,
0.526,-0.06,0.14,0.88,0.06,-0.68,-0.86,
0.526,-0.06,0.15,0.88,0.06,-0.68,-0.86,
0.529,-0.05,0.15,0.89,0.06,-0.68,-0.86,
0.529,-0.05,0.15,0.89,0.13,-0.64,-0.94,
0.531,-0.04,0.15,0.88,0.13,-0.64,-0.94,
0.533,-0.04,0.15,0.88,0.13,-0.64,-0.94,
0.533,-0.04,0.15,0.88,0.20,-0.58,-0.92,
0.536,-0.04,0.16,0.88,0.20,-0.58,-0.92,
0.539,-0.03,0.16,0.88,0.20,-0.58,-0.92,
0.539,-0.03,0.16,0.88,0.30,-0.55,-0.93,
0.541,-0.02,0.16,0.87,0.30,-0.55,-0.93,
0.544,-0.02,0.16,0.87,0.30,-0.55,-0.93,
0.544,-0.02,0.16,0.87,0.39,-0.52,-0.95,
0.546,-0.02,0.17,0.87,0.39,-0.52,-0.95,
0.548,-0.02,0.17,0.87,0.49,-0.50,-1.03,
0.548,-0.01,0.16,0.86,0.49,-0.50,-1.03,
0.551,-0.01,0.16,0.86,0.49,-0.50,-1.03,
0.553,-0.00,0.15,0.86,0.49,-0.50,-1.03,
0.553,-0.00,0.15,0.86,0.53,-0.47,-1.07,
0.555,-0.00,0.15,0.86,0.53,-0.47,-1.07,
0.559,0.00,0.16,0.86,0.53,-0.47,-1.07,
0.559,0.00,0.16,0.86,0.62,-0.53,-1.09,
0.561,0.00,0.15,0.85,0.62,-0.53,-1.09,
0.563,0.01,0.16,0.86,0.62,-0.53,-1.09,
0.563,0.01,0.16,0.86,0.64,-0.54,-1.10,
0.565,0.01,0.15,0.86,0.64,-0.54,-1.10,
0.568,0.02,0.15,0.85,0.64,-0.54,-1.10,
0.568,0.02,0.15,0.85,0.70,-0.54,-1.14,
0.57,0.02,0.16,0.86,0.70,-0.54,-1.14,
0.573,0.02,0.16,0.87,0.70,-0.54,-1.14,
0.573,0.02,0.16,0.87,0.77,-0.55,-1.14,
0.579,0.01,0.16,0.87,0.77,-0.55,-1.14,
0.579,0.01,0.16,0.88,0.77,-0.55,-1.14,
0.579,0.01,0.16,0.88,0.77,-0.50,-1.08,
0.58,0.01,0.16,0.88,0.77,-0.50,-1.08,
0.583,0.01,0.16,0.88,0.77,-0.50,-1.08,
0.583,0.01,0.16,0.88,0.71,-0.49,-0.94,
0.585,0.01,0.16,0.88,0.71,-0.49,-0.94,
0.588,0.01,0.16,0.89,0.71,-0.49,-0.94,
0.588,0.01,0.16,0.89,0.67,-0.46,-0.92,
0.591,0.01,0.15,0.90,0.67,-0.46,-0.92,
0.594,0.00,0.15,0.90,0.67,-0.46,-0.92,
0.594,0.00,0.15,0.90,0.64,-0.52,-0.82,
0.595,0.01,0.15,0.91,0.64,-0.52,-0.82,
0.598,0.01,0.14,0.90,0.64,-0.52,-0.82,
0.598,0.01,0.14,0.90,0.59,-0.55,-0.74,
0.6,0.01,0.14,0.91,0.59,-0.55,-0.74,
0.603,0.01,0.14,0.91,0.59,-0.55,-0.74,
0.603,0.01,0.14,0.91,0.58,-0.62,-0.65,
0.606,0.01,0.13,0.91,0.58,-0.62,-0.65,
0.608,0.02,0.13,0.92,0.58,-0.62,-0.65,
0.609,0.02,0.13,0.92,0.57,-0.64,-0.59,
0.61,0.02,0.12,0.93,0.57,-0.64,-0.59,
0.612,0.03,0.12,0.93,0.57,-0.64,-0.59,
0.614,0.03,0.12,0.93,0.63,-0.72,-0.53,
0.615,0.03,0.11,0.94,0.63,-0.72,-0.53,
0.617,0.04,0.11,0.93,0.63,-0.72,-0.53,
0.618,0.04,0.11,0.93,0.67,-0.77,-0.41,
0.62,0.04,0.11,0.93,0.67,-0.77,-0.41,
0.622,0.04,0.11,0.93,0.67,-0.77,-0.41,
0.623,0.04,0.11,0.93,0.79,-0.89,-0.36,
0.625,0.05,0.11,0.93,0.79,-0.89,-0.36,
0.627,0.05,0.11,0.94,0.79,-0.89,-0.36,
0.628,0.05,0.11,0.94,0.86,-0.90,-0.38,
0.63,0.05,0.10,0.95,0.86,-0.90,-0.38,
0.632,0.06,0.10,0.96,0.86,-0.90,-0.38,
0.633,0.06,0.10,0.96,0.93,-0.89,-0.34,
0.635,0.06,0.10,0.96,0.93,-0.89,-0.34,
0.637,0.06,0.10,0.95,0.93,-0.89,-0.34,
0.637,0.06,0.10,0.95,0.97,-0.93,-0.18,
0.64,0.07,0.09,0.94,0.97,-0.93,-0.18,
0.643,0.07,0.09,0.95,0.97,-0.93,-0.18,
0.643,0.07,0.09,0.95,1.01,-0.95,-0.21,
0.645,0.08,0.09,0.94,1.01,-0.95,-0.21,
0.647,0.08,0.09,0.94,1.01,-0.95,-0.21,
0.647,0.08,0.09,0.94,1.13,-0.98,-0.26,
0.65,0.09,0.09,0.94,1.13,-0.98,-0.26,
0.652,0.09,0.09,0.94,1.13,-0.98,-0.26,
0.652,0.09,0.09,0.94,1.17,-0.99,-0.33,
0.654,0.09,0.09,0.93,1.17,-0.99,-0.33,
0.657,0.09,0.09,0.93,1.17,-0.99,-0.33,
0.658,0.09,0.09,0.93,1.25,-1.00,-0.35,
0.665,0.09,0.09,0.93,1.25,-1.00,-0.35,
0.666,0.09,0.09,0.93,1.25,-1.00,-0.35,
0.666,0.09,0.09,0.93,1.28,-1.00,-0.39,
0.666,0.09,0.09,0.93,1.28,-1.00,-0.39,
0.667,0.09,0.09,0.92,1.28,-1.00,-0.39,
0.668,0.09,0.09,0.92,1.27,-0.97,-0.44,
0.67,0.10,0.09,0.92,1.27,-0.97,-0.44,
0.672,0.10,0.09,0.92,1.27,-0.97,-0.44,
0.672,0.10,0.09,0.92,1.29,-0.94,-0.47,
0.676,0.10,0.09,0.92,1.29,-0.94,-0.47,
0.679,0.10,0.10,0.92,1.29,-0.94,-0.47,
0.679,0.10,0.10,0.92,1.35,-0.93,-0.49,
0.679,0.10,0.09,0.92,1.35,-0.93,-0.49,
0.682,0.10,0.10,0.91,1.35,-0.93,-0.49,
0.682,0.10,0.10,0.91,1.39,-0.89,-0.52,
0.685,0.10,0.10,0.92,1.39,-0.89,-0.52,
0.687,0.11,0.10,0.91,1.39,-0.89,-0.52,
0.687,0.11,0.10,0.91,1.39,-0.86,-0.59,
0.69,0.11,0.10,0.92,1.39,-0.86,-0.59,
0.693,0.11,0.10,0.91,1.39,-0.86,-0.59,
0.694,0.11,0.10,0.91,1.41,-0.79,-0.57,
0.695,0.11,0.11,0.91,1.41,-0.79,-0.57,
0.697,0.12,0.11,0.90,1.41,-0.79,-0.57,
0.697,0.12,0.11,0.90,1.45,-0.77,-0.56,
0.699,0.12,0.11,0.90,1.45,-0.77,-0.56,
0.702,0.13,0.11,0.89,1.45,-0.77,-0.56,
0.702,0.13,0.11,0.89,1.50,-0.71,-0.64,
0.705,0.13,0.11,0.89,1.50,-0.71,-0.64,
0.707,0.13,0.11,0.89,1.57,-0.69,-0.75,
0.707,0.13,0.11,0.89,1.57,-0.69,-0.75,
0.709,0.13,0.11,0.89,1.57,-0.69,-0.75,
0.712,0.14,0.11,0.90,1.57,-0.69,-0.75,
0.712,0.14,0.11,0.90,1.63,-0.66,-0.80,
0.714,0.14,0.11,0.90,1.63,-0.66,-0.80,
0.717,0.14,0.11,0.90,1.63,-0.66,-0.80,
0.717,0.14,0.11,0.90,1.64,-0.67,-0.77,
0.72,0.14,0.11,0.89,1.64,-0.67,-0.77,
0.723,0.14,0.11,0.89,1.64,-0.67,-0.77,
0.723,0.14,0.11,0.89,1.71,-0.68,-0.71,
0.725,0.14,0.11,0.88,1.71,-0.68,-0.71,
0.727,0.14,0.11,0.88,1.71,-0.68,-0.71,
0.727,0.14,0.11,0.88,1.70,-0.64,-0.83,
0.729,0.14,0.11,0.89,1.70,-0.64,-0.83,
0.732,0.15,0.10,0.88,1.70,-0.64,-0.83,
0.732,0.15,0.10,0.88,1.68,-0.64,-0.90,
0.735,0.15,0.10,0.87,1.68,-0.64,-0.90,
0.737,0.15,0.09,0.88,1.68,-0.64,-0.90,
0.738,0.15,0.09,0.88,1.68,-0.65,-0.85,
0.739,0.15,0.09,0.88,1.68,-0.65,-0.85,
0.743,0.15,0.09,0.87,1.68,-0.65,-0.85,
0.744,0.15,0.09,0.87,1.74,-0.76,-0.96,
0.744,0.15,0.08,0.87,1.74,-0.76,-0.96,
0.747,0.15,0.08,0.87,1.69,-0.83,-0.92,
0.747,0.14,0.08,0.87,1.69,-0.83,-0.92,
0.749,0.15,0.08,0.87,1.69,-0.83,-0.92,
0.752,0.15,0.07,0.87,1.69,-0.83,-0.92,
0.752,0.15,0.07,0.87,1.68,-0.88,-1.03,
0.754,0.16,0.07,0.87,1.68,-0.88,-1.03,
0.757,0.15,0.07,0.87,1.68,-0.88,-1.03,
0.757,0.15,0.07,0.87,1.69,-0.90,-1.00,
0.76,0.15,0.06,0.87,1.69,-0.90,-1.00,
0.761,0.15,0.06,0.88,1.69,-0.90,-1.00,
0.761,0.15,0.06,0.88,1.74,-0.93,-1.03,
0.764,0.15,0.06,0.88,1.74,-0.93,-1.03,
0.767,0.15,0.06,0.87,1.74,-0.93,-1.03,
0.767,0.15,0.06,0.87,1.63,-0.99,-0.92,
0.769,0.15,0.06,0.87,1.63,-0.99,-0.92,
0.772,0.15,0.06,0.88,1.63,-0.99,-0.92,
0.772,0.15,0.06,0.88,1.64,-0.98,-0.96,
0.774,0.16,0.06,0.88,1.64,-0.98,-0.96,
0.779,0.16,0.07,0.88,1.64,-0.98,-0.96,
0.78,0.16,0.07,0.88,1.64,-1.01,-0.93,
0.78,0.16,0.07,0.87,1.64,-1.01,-0.93,
0.781,0.17,0.08,0.87,1.64,-1.01,-0.93,
0.782,0.17,0.08,0.87,1.66,-0.89,-0.94,
0.783,0.17,0.08,0.88,1.66,-0.89,-0.94,
0.786,0.17,0.09,0.88,1.66,-0.89,-0.94,
0.786,0.17,0.09,0.88,1.73,-0.82,-0.96,
0.788,0.18,0.09,0.88,1.73,-0.82,-0.96,
0.791,0.18,0.09,0.87,1.73,-0.82,-0.96,
0.791,0.18,0.09,0.87,1.77,-0.70,-0.92,
0.794,0.18,0.10,0.88,1.77,-0.70,-0.92,
0.796,0.18,0.10,0.89,1.77,-0.70,-0.92,
0.796,0.18,0.10,0.89,1.82,-0.63,-0.95,
0.798,0.19,0.10,0.88,1.82,-0.63,-0.95,
0.801,0.20,0.10,0.87,1.82,-0.63,-0.95,
0.801,0.20,0.10,0.87,1.79,-0.53,-0.86,
0.803,0.20,0.10,0.88,1.79,-0.53,-0.86,
0.805,0.20,0.10,0.89,1.79,-0.53,-0.86,
0.806,0.20,0.10,0.89,1.91,-0.50,-0.91,
0.81,0.21,0.10,0.89,1.91,-0.50,-0.91,
0.81,0.22,0.10,0.89,1.91,-0.50,-0.91,
0.811,0.22,0.10,0.89,1.96,-0.49,-0.85,
0.813,0.22,0.10,0.90,1.96,-0.49,-0.85,
0.816,0.23,0.11,0.90,1.96,-0.49,-0.85,
0.817,0.23,0.11,0.90,2.09,-0.47,-0.76,
0.818,0.23,0.12,0.91,2.09,-0.47,-0.76,
0.821,0.23,0.12,0.91,2.15,-0.40,-0.74,
0.823,0.23,0.12,0.91,2.15,-0.40,-0.74,
0.824,0.24,0.12,0.92,2.15,-0.40,-0.74,
0.827,0.25,0.12,0.93,2.15,-0.40,-0.74,
0.827,0.25,0.12,0.93,2.15,-0.26,-0.59,
0.829,0.25,0.12,0.93,2.15,-0.26,-0.59,
0.83,0.25,0.12,0.93,2.15,-0.26,-0.59,
0.83,0.25,0.12,0.93,2.26,-0.19,-0.46,
0.833,0.26,0.13,0.93,2.26,-0.19,-0.46,
0.835,0.26,0.13,0.93,2.26,-0.19,-0.46,
0.836,0.26,0.13,0.93,2.30,-0.17,-0.39,
0.839,0.26,0.13,0.94,2.30,-0.17,-0.39,
0.84,0.27,0.13,0.94,2.30,-0.17,-0.39,
0.84,0.27,0.13,0.94,2.31,-0.10,-0.38,
0.843,0.27,0.13,0.94,2.31,-0.10,-0.38,
0.845,0.27,0.13,0.95,2.31,-0.10,-0.38,
0.845,0.27,0.13,0.95,2.37,-0.05,-0.34,
0.848,0.27,0.13,0.96,2.37,-0.05,-0.34,
0.85,0.27,0.13,0.96,2.37,-0.05,-0.34,
0.851,0.27,0.13,0.96,2.37,-0.03,-0.26,
0.853,0.26,0.13,0.97,2.37,-0.03,-0.26,
0.855,0.27,0.13,0.98,2.37,-0.03,-0.26,
0.856,0.27,0.13,0.98,2.35,-0.04,-0.15,
0.857,0.27,0.13,0.97,2.35,-0.04,-0.15,
0.861,0.27,0.12,0.97,2.35,-0.04,-0.15,
0.861,0.27,0.12,0.97,2.26,-0.01,-0.02,
0.863,0.27,0.13,0.98,2.26,-0.01,-0.02,
0.865,0.26,0.13,0.98,2.26,-0.01,-0.02,
0.865,0.26,0.13,0.98,2.27,-0.02,-0.02,
0.868,0.26,0.12,0.99,2.27,-0.02,-0.02,
0.87,0.26,0.12,0.99,2.24,0.01,0.08,
0.87,0.26,0.13,1.00,2.24,0.01,0.08,
0.872,0.26,0.13,1.00,2.24,0.01,0.08,
0.88,0.26,0.13,1.01,2.24,0.01,0.08,
0.881,0.26,0.13,1.01,2.13,0.01,0.22,
0.881,0.25,0.13,1.01,2.13,0.01,0.22,
0.881,0.25,0.13,1.01,2.13,0.01,0.22,
0.881,0.25,0.13,1.01,2.08,0.06,0.32,
0.882,0.25,0.13,1.01,2.08,0.06,0.32,
0.885,0.25,0.13,1.01,2.08,0.06,0.32,
0.885,0.25,0.13,1.01,1.97,0.11,0.38,
0.887,0.25,0.13,1.01,1.97,0.11,0.38,
0.89,0.25,0.13,1.01,1.97,0.11,0.38,
0.89,0.25,0.13,1.01,1.94,0.13,0.38,
0.893,0.25,0.13,1.02,1.94,0.13,0.38,
0.895,0.25,0.13,1.02,1.94,0.13,0.38,
0.895,0.25,0.13,1.02,1.93,0.11,0.37,
0.897,0.25,0.12,1.01,1.93,0.11,0.37,
0.9,0.25,0.12,1.01,1.93,0.11,0.37,
0.901,0.25,0.12,1.01,1.93,0.10,0.40,
0.902,0.26,0.12,1.01,1.93,0.10,0.40,
0.905,0.26,0.12,1.01,1.93,0.10,0.40,
0.906,0.26,0.12,1.01,1.91,0.06,0.36,
0.907,0.27,0.12,1.01,1.91,0.06,0.36,
0.91,0.27,0.12,1.01,1.91,0.06,0.36,
0.911,0.27,0.12,1.01,1.96,0.05,0.38,
0.912,0.28,0.12,1.01,1.96,0.05,0.38,
0.915,0.28,0.12,1.01,1.96,0.05,0.38,
0.915,0.28,0.12,1.01,2.02,0.06,0.37,
0.917,0.28,0.12,1.01,2.02,0.06,0.37,
0.919,0.28,0.12,1.01,2.10,0.09,0.32,
0.92,0.27,0.12,1.02,2.10,0.09,0.32,
0.922,0.28,0.11,1.01,2.10,0.09,0.32,
0.924,0.29,0.11,1.01,2.10,0.09,0.32,
0.927,0.29,0.11,1.01,2.04,0.08,0.36,
0.927,0.29,0.11,0.99,2.04,0.08,0.36,
0.93,0.29,0.10,1.00,2.04,0.08,0.36,
0.931,0.29,0.10,1.00,2.11,0.06,0.33,
0.932,0.29,0.10,1.00,2.11,0.06,0.33,
0.934,0.29,0.10,1.00,2.11,0.06,0.33,
0.935,0.29,0.10,1.00,2.11,0.01,0.21,
0.937,0.29,0.09,1.00,2.11,0.01,0.21,
0.939,0.30,0.09,1.00,2.11,0.01,0.21,
0.939,0.30,0.09,1.00,2.10,-0.05,0.20,
0.942,0.30,0.08,0.99,2.10,-0.05,0.20,
0.945,0.30,0.08,0.99,2.12,-0.15,0.21,
0.946,0.30,0.08,1.00,2.12,-0.15,0.21,
0.947,0.30,0.07,0.99,2.12,-0.15,0.21,
0.949,0.29,0.07,0.99,2.12,-0.15,0.21,
0.949,0.29,0.07,0.99,2.16,-0.21,0.19,
0.952,0.29,0.07,0.99,2.16,-0.21,0.19,
0.954,0.29,0.07,1.00,2.16,-0.21,0.19,
0.954,0.29,0.07,1.00,2.09,-0.23,0.17,
0.956,0.28,0.07,1.00,2.09,-0.23,0.17,
0.964,0.28,0.08,1.00,2.09,-0.23,0.17,
0.964,0.28,0.08,1.00,2.02,-0.25,0.20,
0.965,0.28,0.08,1.01,2.02,-0.25,0.20,
0.965,0.27,0.09,1.01,2.02,-0.25,0.20,
0.965,0.27,0.09,1.01,1.93,-0.17,0.24,
0.967,0.28,0.09,1.02,1.93,-0.17,0.24,
0.969,0.28,0.10,1.02,1.93,-0.17,0.24,
0.969,0.28,0.10,1.02,1.85,-0.08,0.33,
0.973,0.28,0.10,1.03,1.85,-0.08,0.33,
0.974,0.28,0.10,1.03,1.85,-0.08,0.33,
0.975,0.28,0.10,1.03,1.88,0.06,0.45,
0.977,0.28,0.10,1.04,1.88,0.06,0.45,
0.979,0.29,0.11,1.04,1.88,0.06,0.45,
0.979,0.29,0.11,1.04,1.88,0.13,0.51,
0.981,0.29,0.11,1.04,1.88,0.13,0.51,
0.984,0.29,0.11,1.05,1.88,0.13,0.51,
0.984,0.29,0.11,1.05,1.89,0.20,0.62,
0.986,0.29,0.12,1.05,1.89,0.20,0.62,
0.989,0.29,0.12,1.06,1.89,0.20,0.62,
0.989,0.29,0.12,1.06,1.90,0.31,0.68,
0.991,0.29,0.12,1.05,1.90,0.31,0.68,
0.995,0.29,0.12,1.06,1.90,0.31,0.68,
0.996,0.29,0.12,1.06,1.94,0.35,0.75,
0.997,0.30,0.12,1.06,1.94,0.35,0.75,
0.999,0.30,0.12,1.07,1.94,0.35,0.75,
0.999,0.30,0.12,1.07,1.93,0.38,0.75,
1.001,0.30,0.11,1.07,1.93,0.38,0.75,
1.004,0.30,0.11,1.06,1.93,0.38,0.75,
1.004,0.30,0.11,1.06,1.98,0.40,0.85,
1.006,0.31,0.11,1.07,1.98,0.40,0.85,
1.009,0.31,0.11,1.06,1.98,0.40,0.85,
1.01,0.31,0.11,1.06,2.01,0.36,0.84,
1.011,0.31,0.11,1.07,2.01,0.36,0.84,
1.014,0.32,0.10,1.07,2.01,0.36,0.84,
1.014,0.32,0.10,1.07,2.05,0.35,0.87,
1.016,0.32,0.10,1.07,2.05,0.35,0.87,
1.019,0.32,0.10,1.07,2.09,0.30,0.85,
1.019,0.32,0.10,1.06,2.09,0.30,0.85,
1.021,0.33,0.10,1.06,2.09,0.30,0.85,
1.025,0.32,0.10,1.06,2.09,0.30,0.85,
1.025,0.32,0.10,1.06,2.11,0.25,0.86,
1.027,0.33,0.09,1.06,2.11,0.25,0.86,
1.028,0.33,0.09,1.07,2.11,0.25,0.86,
1.028,0.33,0.09,1.07,2.14,0.29,0.81,
1.032,0.33,0.10,1.07,2.14,0.29,0.81,
1.034,0.32,0.09,1.07,2.14,0.29,0.81,
1.034,0.32,0.09,1.07,2.14,0.21,0.85,
1.036,0.32,0.09,1.07,2.14,0.21,0.85,
1.039,0.33,0.09,1.07,2.14,0.21,0.85,
1.039,0.33,0.09,1.07,2.12,0.25,0.89,
1.042,0.32,0.09,1.07,2.12,0.25,0.89,
1.043,0.32,0.10,1.07,2.12,0.25,0.89,
1.043,0.32,0.10,1.07,2.10,0.25,0.88,
1.046,0.31,0.09,1.07,2.10,0.25,0.88,
1.049,0.31,0.10,1.08,2.10,0.25,0.88,
1.049,0.31,0.10,1.08,2.03,0.28,0.88,
1.052,0.30,0.10,1.08,2.03,0.28,0.88,
1.054,0.30,0.10,1.08,1.93,0.32,0.94,
1.054,0.30,0.10,1.07,1.93,0.32,0.94,
1.057,0.30,0.10,1.08,1.93,0.32,0.94,
1.059,0.30,0.10,1.08,1.93,0.32,0.94,
1.059,0.30,0.10,1.08,1.82,0.38,0.93,
1.061,0.30,0.11,1.07,1.82,0.38,0.93,
1.063,0.31,0.11,1.07,1.82,0.38,0.93,
1.063,0.31,0.11,1.07,1.78,0.40,0.97,
1.066,0.31,0.11,1.07,1.78,0.40,0.97,
1.069,0.31,0.12,1.07,1.78,0.40,0.97,
1.069,0.31,0.12,1.07,1.83,0.49,0.90,
1.071,0.31,0.12,1.08,1.83,0.49,0.90,
1.074,0.31,0.13,1.08,1.83,0.49,0.90,
1.074,0.31,0.13,1.08,1.84,0.52,0.91,
1.076,0.31,0.13,1.08,1.84,0.52,0.91,
1.078,0.31,0.14,1.08,1.84,0.52,0.91,
1.079,0.31,0.14,1.08,1.89,0.62,0.94,
1.081,0.32,0.15,1.08,1.89,0.62,0.94,
1.084,0.31,0.15,1.08,1.89,0.62,0.94,
1.084,0.31,0.15,1.08,1.88,0.75,0.96,
1.086,0.32,0.15,1.09,1.88,0.75,0.96,
1.089,0.33,0.16,1.09,1.88,0.75,0.96,
1.089,0.33,0.16,1.09,1.90,0.89,0.94,
1.091,0.33,0.16,1.09,1.90,0.89,0.94,
1.093,0.34,0.17,1.09,1.90,0.89,0.94,
1.094,0.34,0.17,1.09,1.99,0.97,1.06,
1.099,0.34,0.16,1.09,1.99,0.97,1.06,
1.1,0.35,0.17,1.08,1.99,0.97,1.06,
1.1,0.35,0.17,1.08,2.05,1.04,1.07,
1.1,0.35,0.17,1.09,2.05,1.04,1.07,
1.103,0.36,0.16,1.08,2.05,1.04,1.07,
1.103,0.36,0.16,1.08,2.15,1.07,1.02,
1.105,0.36,0.16,1.08,2.15,1.07,1.02,
1.109,0.36,0.16,1.07,2.15,1.07,1.02,
1.109,0.36,0.16,1.07,2.25,1.05,1.00,
1.11,0.36,0.16,1.07,2.25,1.05,1.00,
1.112,0.36,0.15,1.07,2.25,1.05,1.00,
1.113,0.36,0.15,1.07,2.32,1.01,0.89,
1.115,0.37,0.15,1.07,2.32,1.01,0.89,
1.118,0.37,0.15,1.06,2.32,1.01,0.89,
1.118,0.37,0.15,1.06,2.31,0.97,0.83,
1.121,0.36,0.15,1.06,2.31,0.97,0.83,
1.123,0.36,0.14,1.06,2.31,0.97,0.83,
1.123,0.36,0.14,1.06,2.34,0.91,0.76,
1.126,0.36,0.14,1.05,2.34,0.91,0.76,
1.128,0.35,0.13,1.05,2.34,0.91,0.76,
1.129,0.35,0.13,1.05,2.31,0.85,0.72,
1.13,0.35,0.14,1.05,2.31,0.85,0.72,
1.132,0.34,0.14,1.05,2.31,0.85,0.72,
1.133,0.34,0.14,1.05,2.23,0.78,0.65,
1.135,0.33,0.13,1.05,2.23,0.78,0.65,
1.138,0.32,0.13,1.05,2.23,0.78,0.65,
1.138,0.32,0.13,1.05,2.11,0.77,0.66,
1.14,0.31,0.13,1.05,2.11,0.77,0.66,
1.142,0.31,0.14,1.04,2.11,0.77,0.66,
1.142,0.31,0.14,1.04,1.95,0.71,0.66,
1.145,0.30,0.14,1.05,1.95,0.71,0.66,
1.147,0.30,0.14,1.04,1.95,0.71,0.66,
1.147,0.30,0.14,1.04,1.79,0.74,0.60,
1.15,0.30,0.14,1.05,1.79,0.74,0.60,
1.152,0.29,0.13,1.05,1.79,0.74,0.60,
1.153,0.29,0.13,1.05,1.68,0.76,0.61,
1.155,0.30,0.14,1.05,1.68,0.76,0.61,
1.157,0.29,0.13,1.05,1.68,0.76,0.61,
1.158,0.29,0.13,1.05,1.59,0.72,0.61,
1.159,0.29,0.13,1.04,1.59,0.72,0.61,
1.163,0.29,0.13,1.05,1.59,0.72,0.61,
1.163,0.29,0.13,1.05,1.57,0.69,0.62,
1.164,0.29,0.13,1.05,1.57,0.69,0.62,
1.167,0.29,0.13,1.05,1.51,0.66,0.59,
1.167,0.29,0.13,1.05,1.51,0.66,0.59,
1.169,0.30,0.13,1.05,1.51,0.66,0.59,
1.172,0.30,0.13,1.05,1.51,0.66,0.59,
1.172,0.30,0.13,1.05,1.49,0.63,0.61,
1.175,0.30,0.13,1.05,1.49,0.63,0.61,
1.178,0.30,0.12,1.04,1.49,0.63,0.61,
1.179,0.30,0.12,1.04,1.56,0.58,0.62,
1.179,0.29,0.12,1.05,1.56,0.58,0.62,
1.182,0.29,0.12,1.04,1.56,0.58,0.62,
1.182,0.29,0.12,1.04,1.55,0.53,0.58,
1.184,0.30,0.12,1.05,1.55,0.53,0.58,
1.187,0.29,0.12,1.04,1.55,0.53,0.58,
1.187,0.29,0.12,1.04,1.47,0.51,0.61,
1.189,0.29,0.11,1.04,1.47,0.51,0.61,
1.192,0.29,0.11,1.04,1.47,0.51,0.61,
1.192,0.29,0.11,1.04,1.50,0.45,0.61,
1.199,0.29,0.11,1.03,1.50,0.45,0.61,
1.199,0.29,0.09,1.03,1.50,0.45,0.61,
1.199,0.29,0.09,1.03,1.44,0.38,0.53,
1.2,0.28,0.09,1.02,1.44,0.38,0.53,
1.202,0.28,0.09,1.02,1.44,0.38,0.53,
1.202,0.28,0.09,1.02,1.41,0.23,0.45,
1.204,0.28,0.08,1.02,1.41,0.23,0.45,
1.207,0.28,0.08,1.01,1.41,0.23,0.45,
1.207,0.28,0.08,1.01,1.36,0.14,0.37,
1.209,0.28,0.08,1.01,1.36,0.14,0.37,
1.213,0.27,0.07,1.01,1.36,0.14,0.37,
1.213,0.27,0.07,1.01,1.34,0.00,0.31,
1.214,0.26,0.06,1.00,1.34,0.00,0.31,
1.217,0.26,0.06,1.00,1.27,-0.08,0.22,
1.217,0.25,0.06,1.00,1.27,-0.08,0.22,
1.219,0.25,0.06,1.00,1.27,-0.08,0.22,
1.221,0.25,0.05,0.99,1.27,-0.08,0.22,
1.221,0.25,0.05,0.99,1.12,-0.19,0.16,
1.224,0.25,0.04,0.98,1.12,-0.19,0.16,
1.226,0.25,0.04,0.98,1.12,-0.19,0.16,
1.227,0.25,0.04,0.98,1.06,-0.26,0.12,
1.229,0.25,0.04,0.98,1.06,-0.26,0.12,
1.231,0.24,0.04,0.98,1.06,-0.26,0.12,
1.231,0.24,0.04,0.98,1.05,-0.38,0.00,
1.234,0.24,0.03,0.98,1.05,-0.38,0.00,
1.236,0.24,0.03,0.98,1.05,-0.38,0.00,
1.237,0.24,0.03,0.98,1.00,-0.45,-0.05,
1.239,0.24,0.03,0.98,1.00,-0.45,-0.05,
1.242,0.23,0.02,0.97,1.00,-0.45,-0.05,
1.242,0.23,0.02,0.97,1.00,-0.54,-0.05,
1.245,0.23,0.02,0.97,1.00,-0.54,-0.05,
1.247,0.21,0.03,0.97,1.00,-0.54,-0.05,
1.247,0.21,0.03,0.97,0.92,-0.58,-0.07,
1.249,0.20,0.03,0.96,0.92,-0.58,-0.07,
1.251,0.20,0.03,0.97,0.92,-0.58,-0.07,
1.251,0.20,0.03,0.97,0.79,-0.59,-0.16,
1.254,0.20,0.03,0.97,0.79,-0.59,-0.16,
1.256,0.20,0.04,0.96,0.79,-0.59,-0.16,
1.256,0.20,0.04,0.96,0.62,-0.55,-0.19,
1.259,0.19,0.04,0.95,0.62,-0.55,-0.19,
1.262,0.19,0.04,0.95,0.62,-0.55,-0.19,
1.262,0.19,0.04,0.95,0.58,-0.52,-0.18,
1.263,0.19,0.04,0.95,0.58,-0.52,-0.18,
1.267,0.19,0.05,0.95,0.58,-0.52,-0.18,
1.267,0.19,0.05,0.95,0.55,-0.49,-0.36,
1.269,0.18,0.05,0.94,0.55,-0.49,-0.36,
1.271,0.18,0.07,0.94,0.55,-0.49,-0.36,
1.271,0.18,0.07,0.94,0.49,-0.43,-0.38,
1.274,0.18,0.08,0.94,0.49,-0.43,-0.38,
1.276,0.18,0.08,0.94,0.49,-0.43,-0.38,
1.276,0.18,0.08,0.94,0.46,-0.30,-0.40,
1.279,0.17,0.10,0.95,0.46,-0.30,-0.40,
1.282,0.17,0.10,0.95,0.46,-0.30,-0.40,
1.282,0.17,0.10,0.95,0.45,-0.11,-0.42,
1.283,0.17,0.11,0.95,0.45,-0.11,-0.42,
1.286,0.17,0.11,0.95,0.36,0.06,-0.33,
1.286,0.18,0.12,0.95,0.36,0.06,-0.33,
1.288,0.18,0.12,0.96,0.36,0.06,-0.33,
1.291,0.18,0.12,0.96,0.37,0.19,-0.28,
1.291,0.18,0.12,0.95,0.37,0.19,-0.28,
1.293,0.17,0.13,0.96,0.37,0.19,-0.28,
1.297,0.17,0.12,0.96,0.37,0.19,-0.28,
1.297,0.17,0.12,0.96,0.39,0.25,-0.26,
1.298,0.17,0.13,0.97,0.39,0.25,-0.26,
1.301,0.17,0.13,0.97,0.32,0.26,-0.23,
1.301,0.17,0.12,0.97,0.32,0.26,-0.23,
1.303,0.17,0.13,0.96,0.32,0.26,-0.23,
1.305,0.18,0.13,0.96,0.32,0.26,-0.23,
1.306,0.18,0.13,0.96,0.29,0.25,-0.13,
1.308,0.18,0.12,0.96,0.29,0.25,-0.13,
1.311,0.17,0.12,0.96,0.29,0.25,-0.13,
1.312,0.17,0.12,0.96,0.34,0.25,-0.22,
1.318,0.17,0.11,0.96,0.34,0.25,-0.22,
1.318,0.17,0.11,0.97,0.34,0.25,-0.22,
1.32,0.17,0.11,0.97,0.34,0.20,-0.20,
1.32,0.17,0.10,0.96,0.34,0.20,-0.20,
1.321,0.17,0.09,0.96,0.34,0.20,-0.20,
1.321,0.17,0.09,0.96,0.32,0.11,-0.16,
1.323,0.15,0.08,0.97,0.32,0.11,-0.16,
1.326,0.15,0.08,0.97,0.32,0.11,-0.16,
1.326,0.15,0.08,0.97,0.32,-0.01,-0.21,
1.329,0.14,0.07,0.97,0.32,-0.01,-0.21,
1.331,0.13,0.05,0.97,0.32,-0.01,-0.21,
1.331,0.13,0.05,0.97,0.20,-0.20,-0.14,
1.333,0.13,0.04,0.97,0.20,-0.20,-0.14,
1.336,0.12,0.03,0.97,0.20,-0.20,-0.14,
1.336,0.12,0.03,0.97,0.06,-0.36,-0.09,
1.338,0.11,0.03,0.97,0.06,-0.36,-0.09,
1.342,0.10,0.01,0.98,0.06,-0.36,-0.09,
1.342,0.10,0.01,0.98,-0.08,-0.58,-0.12,
1.343,0.10,0.00,0.98,-0.08,-0.58,-0.12,
1.346,0.09,-0.00,0.98,-0.08,-0.58,-0.12,
1.346,0.09,-0.00,0.98,-0.21,-0.73,-0.08,
1.348,0.08,-0.01,0.99,-0.21,-0.73,-0.08,
1.351,0.08,-0.01,0.99,-0.33,-0.91,-0.04,
1.352,0.07,-0.01,0.99,-0.33,-0.91,-0.04,
1.353,0.07,-0.02,0.98,-0.33,-0.91,-0.04,
1.356,0.07,-0.02,0.98,-0.45,-1.01,0.06,
1.356,0.06,-0.02,0.99,-0.45,-1.01,0.06,
1.358,0.05,-0.03,0.98,-0.45,-1.01,0.06,
1.361,0.04,-0.03,0.99,-0.45,-1.01,0.06,
1.361,0.04,-0.03,0.99,-0.55,-1.08,0.03,
1.363,0.03,-0.04,0.98,-0.55,-1.08,0.03,
1.366,0.03,-0.04,0.98,-0.55,-1.08,0.03,
1.366,0.03,-0.04,0.98,-0.71,-1.17,0.02,
1.368,0.02,-0.04,0.98,-0.71,-1.17,0.02,
1.371,0.02,-0.03,0.98,-0.71,-1.17,0.02,
1.371,0.02,-0.03,0.98,-0.83,-1.24,-0.01,
1.373,0.01,-0.03,0.97,-0.83,-1.24,-0.01,
1.376,0.00,-0.03,0.98,-0.83,-1.24,-0.01,
1.376,0.00,-0.03,0.98,-0.94,-1.21,-0.02,
1.378,0.00,-0.03,0.98,-0.94,-1.21,-0.02,
1.38,-0.00,-0.02,0.97,-0.94,-1.21,-0.02,
1.38,-0.00,-0.02,0.97,-1.04,-1.17,-0.05,
1.383,-0.00,-0.02,0.97,-1.04,-1.17,-0.05,
1.386,-0.00,-0.02,0.97,-1.09,-1.12,-0.09,
1.386,-0.00,-0.02,0.96,-1.09,-1.12,-0.09,
1.388,-0.01,-0.01,0.96,-1.09,-1.12,-0.09,
1.39,-0.01,-0.01,0.96,-1.11,-1.04,-0.18,
1.391,-0.01,-0.01,0.97,-1.11,-1.04,-0.18,
1.393,-0.01,-0.00,0.96,-1.11,-1.04,-0.18,
1.397,-0.00,-0.01,0.95,-1.11,-1.04,-0.18,
1.398,-0.00,-0.01,0.95,-1.15,-0.94,-0.20,
1.398,0.00,-0.00,0.95,-1.15,-0.94,-0.20,
1.401,0.01,0.00,0.95,-1.15,-0.94,-0.20,
1.401,0.01,0.00,0.95,-1.11,-0.94,-0.31,
1.403,0.01,-0.00,0.95,-1.11,-0.94,-0.31,
1.405,0.01,0.00,0.94,-1.11,-0.94,-0.31,
1.405,0.01,0.00,0.94,-1.03,-0.88,-0.34,
1.407,0.01,0.01,0.94,-1.03,-0.88,-0.34,
1.41,0.01,0.01,0.94,-1.03,-0.88,-0.34,
1.41,0.01,0.01,0.94,-0.97,-0.88,-0.38,
1.416,0.02,0.01,0.94,-0.97,-0.88,-0.38,
1.416,0.02,0.01,0.93,-0.97,-0.88,-0.38,
1.417,0.02,0.01,0.93,-0.93,-0.82,-0.41,
1.417,0.03,0.01,0.94,-0.93,-0.82,-0.41,
1.42,0.03,0.01,0.94,-0.93,-0.82,-0.41,
1.42,0.03,0.01,0.94,-0.85,-0.78,-0.47,
1.422,0.03,0.01,0.93,-0.85,-0.78,-0.47,
1.425,0.04,0.01,0.92,-0.85,-0.78,-0.47,
1.426,0.04,0.01,0.92,-0.76,-0.79,-0.45,
1.427,0.04,0.01,0.92,-0.76,-0.79,-0.45,
1.429,0.04,0.01,0.93,-0.76,-0.79,-0.45,
1.43,0.04,0.01,0.93,-0.70,-0.81,-0.56,
1.432,0.04,0.01,0.93,-0.70,-0.81,-0.56,
1.434,0.05,0.00,0.93,-0.70,-0.81,-0.56,
1.434,0.05,0.00,0.93,-0.61,-0.79,-0.55,
1.437,0.05,0.00,0.92,-0.61,-0.79,-0.55,
1.439,0.05,0.00,0.92,-0.56,-0.80,-0.56,
1.44,0.05,0.00,0.92,-0.56,-0.80,-0.56,
1.442,0.04,0.00,0.92,-0.56,-0.80,-0.56,
1.445,0.04,0.01,0.92,-0.56,-0.80,-0.56,
1.445,0.04,0.01,0.92,-0.55,-0.84,-0.59,
1.447,0.04,0.00,0.92,-0.55,-0.84,-0.59,
1.449,0.03,-0.00,0.91,-0.55,-0.84,-0.59,
1.45,0.03,-0.00,0.91,-0.60,-0.82,-0.62,
1.452,0.02,-0.00,0.91,-0.60,-0.82,-0.62,
1.454,0.02,0.00,0.92,-0.60,-0.82,-0.62,
1.454,0.02,0.00,0.92,-0.65,-0.83,-0.63,
1.456,0.01,0.00,0.91,-0.65,-0.83,-0.63,
1.459,-0.00,0.01,0.91,-0.65,-0.83,-0.63,
1.459,-0.00,0.01,0.91,-0.77,-0.84,-0.69,
1.464,-0.00,0.01,0.91,-0.77,-0.84,-0.69,
1.465,-0.00,0.01,0.91,-0.77,-0.84,-0.69,
1.465,-0.00,0.01,0.91,-0.93,-0.78,-0.76,
1.467,-0.01,0.01,0.90,-0.93,-0.78,-0.76,
1.469,-0.01,0.02,0.89,-0.93,-0.78,-0.76,
1.469,-0.01,0.02,0.89,-0.96,-0.71,-0.72,
1.471,-0.01,0.03,0.89,-0.96,-0.71,-0.72,
1.474,-0.01,0.03,0.89,-0.96,-0.71,-0.72,
1.474,-0.01,0.03,0.89,-1.00,-0.63,-0.85,
1.476,-0.01,0.04,0.90,-1.00,-0.63,-0.85,
1.479,-0.01,0.04,0.89,-1.00,-0.63,-0.85,
1.481,-0.01,0.04,0.89,-1.03,-0.52,-0.91,
1.483,-0.02,0.05,0.90,-1.03,-0.52,-0.91,
1.484,-0.02,0.06,0.90,-1.03,-0.52,-0.91,
1.484,-0.02,0.06,0.90,-1.02,-0.40,-0.88,
1.487,-0.02,0.07,0.90,-1.02,-0.40,-0.88,
1.489,-0.02,0.07,0.90,-1.06,-0.27,-0.79,
1.489,-0.01,0.07,0.91,-1.06,-0.27,-0.79,
1.492,-0.01,0.07,0.91,-1.06,-0.27,-0.79,
1.494,-0.01,0.07,0.92,-1.06,-0.27,-0.79,
1.494,-0.01,0.07,0.92,-1.02,-0.11,-0.77,
1.496,-0.01,0.07,0.93,-1.02,-0.11,-0.77,
1.499,-0.01,0.07,0.94,-1.02,-0.11,-0.77,
1.499,-0.01,0.07,0.94,-1.02,-0.05,-0.67,
1.501,-0.01,0.08,0.94,-1.02,-0.05,-0.67,
1.504,0.00,0.07,0.95,-1.02,-0.05,-0.67,
1.504,0.00,0.07,0.95,-0.98,-0.04,-0.50,
1.506,0.01,0.07,0.96,-0.98,-0.04,-0.50,
1.509,0.01,0.07,0.97,-0.98,-0.04,-0.50,
1.509,0.01,0.07,0.97,-0.90,-0.03,-0.36,
1.511,0.02,0.06,0.97,-0.90,-0.03,-0.36,
1.515,0.02,0.06,0.97,-0.78,-0.07,-0.20,
1.515,0.03,0.06,0.98,-0.78,-0.07,-0.20,
1.516,0.04,0.06,0.99,-0.78,-0.07,-0.20,
1.518,0.04,0.06,0.99,-0.66,-0.11,-0.05,
1.519,0.04,0.06,1.00,-0.66,-0.11,-0.05,
1.521,0.04,0.06,1.01,-0.66,-0.11,-0.05,
1.523,0.04,0.06,1.02,-0.66,-0.11,-0.05,
1.523,0.04,0.06,1.02,-0.53,-0.10,0.09,
1.526,0.04,0.05,1.02,-0.53,-0.10,0.09,
1.534,0.05,0.05,1.03,-0.53,-0.10,0.09,
1.534,0.05,0.05,1.03,-0.52,-0.10,0.27,
1.535,0.04,0.05,1.03,-0.52,-0.10,0.27,
1.535,0.03,0.04,1.04,-0.52,-0.10,0.27,
1.535,0.03,0.04,1.04,-0.48,-0.15,0.40,
1.537,0.04,0.04,1.04,-0.48,-0.15,0.40,
1.538,0.04,0.04,1.04,-0.48,-0.15,0.40,
1.538,0.04,0.04,1.04,-0.54,-0.21,0.47,
1.541,0.04,0.03,1.03,-0.54,-0.21,0.47,
1.543,0.04,0.02,1.03,-0.54,-0.21,0.47,
1.543,0.04,0.02,1.03,-0.53,-0.27,0.58,
1.549,0.03,0.02,1.02,-0.53,-0.27,0.58,
1.549,0.02,0.01,1.02,-0.53,-0.27,0.58,
1.55,0.02,0.01,1.02,-0.56,-0.38,0.43,
1.551,0.03,0.01,1.02,-0.56,-0.38,0.43,
1.553,0.03,0.01,1.02,-0.56,-0.38,0.43,
1.554,0.03,0.01,1.02,-0.64,-0.51,0.38,
1.555,0.03,0.00,1.01,-0.64,-0.51,0.38,
1.559,0.03,0.00,1.01,-0.66,-0.54,0.35,
1.559,0.02,-0.00,1.01,-0.66,-0.54,0.35,
1.561,0.02,-0.00,1.00,-0.66,-0.54,0.35,
1.564,0.02,-0.00,1.00,-0.66,-0.64,0.26,
1.565,0.01,-0.01,0.99,-0.66,-0.64,0.26,
1.565,0.00,-0.02,1.00,-0.66,-0.64,0.26,
1.568,0.00,-0.02,0.98,-0.66,-0.64,0.26,
1.568,0.00,-0.02,0.98,-0.74,-0.68,0.10,
1.57,-0.00,-0.02,0.98,-0.74,-0.68,0.10,
1.573,-0.01,-0.03,0.98,-0.74,-0.68,0.10,
1.573,-0.01,-0.03,0.98,-0.86,-0.78,0.02,
1.575,-0.02,-0.03,0.97,-0.86,-0.78,0.02,
1.578,-0.02,-0.04,0.97,-0.86,-0.78,0.02,
1.578,-0.02,-0.04,0.97,-0.96,-0.88,-0.03,
1.58,-0.03,-0.03,0.98,-0.96,-0.88,-0.03,
1.583,-0.04,-0.04,0.99,-0.96,-0.88,-0.03,
1.583,-0.04,-0.04,0.99,-1.08,-0.94,-0.13,
1.585,-0.04,-0.04,0.98,-1.08,-0.94,-0.13,
1.588,-0.04,-0.05,0.97,-1.08,-0.94,-0.13,
1.588,-0.04,-0.05,0.97,-1.19,-0.95,-0.02,
1.59,-0.05,-0.05,0.96,-1.19,-0.95,-0.02,
1.593,-0.05,-0.05,0.96,-1.27,-1.05,-0.06,
1.593,-0.05,-0.06,0.96,-1.27,-1.05,-0.06,
1.597,-0.06,-0.06,0.95,-1.27,-1.05,-0.06,
1.599,-0.06,-0.06,0.96,-1.27,-1.05,-0.06,
1.599,-0.06,-0.06,0.96,-1.35,-1.13,-0.26,
1.6,-0.06,-0.06,0.96,-1.35,-1.13,-0.26,
1.603,-0.05,-0.06,0.95,-1.35,-1.13,-0.26,
1.603,-0.05,-0.06,0.95,-1.44,-1.17,-0.29,
1.605,-0.05,-0.06,0.95,-1.44,-1.17,-0.29,
1.608,-0.06,-0.06,0.94,-1.44,-1.17,-0.29,
1.608,-0.06,-0.06,0.94,-1.37,-1.23,-0.30,
1.61,-0.06,-0.06,0.94,-1.37,-1.23,-0.30,
1.614,-0.06,-0.06,0.94,-1.39,-1.18,-0.41,
1.614,-0.06,-0.05,0.94,-1.39,-1.18,-0.41,
1.615,-0.06,-0.05,0.94,-1.39,-1.18,-0.41,
1.617,-0.06,-0.05,0.94,-1.39,-1.18,-0.41,
1.618,-0.06,-0.05,0.94,-1.45,-1.17,-0.45,
1.62,-0.06,-0.05,0.93,-1.45,-1.17,-0.45,
1.622,-0.05,-0.05,0.93,-1.45,-1.17,-0.45,
1.623,-0.05,-0.05,0.93,-1.47,-1.13,-0.45,
1.625,-0.05,-0.06,0.92,-1.47,-1.13,-0.45,
1.627,-0.05,-0.06,0.92,-1.47,-1.13,-0.45,
1.627,-0.05,-0.06,0.92,-1.40,-1.15,-0.50,
1.635,-0.05,-0.06,0.92,-1.40,-1.15,-0.50,
1.636,-0.06,-0.06,0.91,-1.40,-1.15,-0.50,
1.636,-0.06,-0.06,0.91,-1.37,-1.24,-0.62,
1.637,-0.05,-0.07,0.93,-1.37,-1.24,-0.62,
1.638,-0.05,-0.07,0.93,-1.42,-1.28,-0.66,
1.638,-0.05,-0.07,0.93,-1.42,-1.28,-0.66,
1.64,-0.04,-0.08,0.92,-1.42,-1.28,-0.66,
1.642,-0.04,-0.07,0.91,-1.42,-1.28,-0.66,
1.642,-0.04,-0.07,0.91,-1.39,-1.37,-0.56,
1.645,-0.04,-0.06,0.91,-1.39,-1.37,-0.56,
1.648,-0.04,-0.07,0.91,-1.39,-1.37,-0.56,
1.648,-0.04,-0.07,0.91,-1.28,-1.40,-0.65,
1.65,-0.04,-0.06,0.92,-1.28,-1.40,-0.65,
1.652,-0.04,-0.06,0.92,-1.28,-1.40,-0.65,
1.652,-0.04,-0.06,0.92,-1.26,-1.31,-0.67,
1.655,-0.04,-0.05,0.92,-1.26,-1.31,-0.67,
1.657,-0.04,-0.05,0.93,-1.26,-1.31,-0.67,
1.657,-0.04,-0.05,0.93,-1.28,-1.28,-0.61,
1.66,-0.04,-0.05,0.94,-1.28,-1.28,-0.61,
1.662,-0.04,-0.05,0.94,-1.34,-1.20,-0.53,
1.662,-0.04,-0.05,0.94,-1.34,-1.20,-0.53,
1.665,-0.04,-0.05,0.94,-1.34,-1.20,-0.53,
1.667,-0.05,-0.05,0.94,-1.34,-1.20,-0.53,
1.667,-0.05,-0.05,0.94,-1.36,-1.20,-0.42,
1.67,-0.05,-0.06,0.93,-1.36,-1.20,-0.42,
1.672,-0.06,-0.06,0.94,-1.36,-1.20,-0.42,
1.672,-0.06,-0.06,0.94,-1.39,-1.23,-0.43,
1.674,-0.06,-0.06,0.93,-1.39,-1.23,-0.43,
1.677,-0.07,-0.06,0.94,-1.39,-1.23,-0.43,
1.677,-0.07,-0.06,0.94,-1.51,-1.29,-0.45,
1.681,-0.08,-0.06,0.94,-1.51,-1.29,-0.45,
1.682,-0.08,-0.06,0.94,-1.51,-1.29,-0.45,
1.684,-0.08,-0.06,0.94,-1.63,-1.30,-0.42,
1.685,-0.08,-0.07,0.95,-1.63,-1.30,-0.42,
1.688,-0.08,-0.07,0.96,-1.63,-1.30,-0.42,
1.688,-0.08,-0.07,0.96,-1.75,-1.30,-0.40,
1.69,-0.09,-0.08,0.96,-1.75,-1.30,-0.40,
1.692,-0.09,-0.08,0.95,-1.75,-1.30,-0.40,
1.692,-0.09,-0.08,0.95,-1.79,-1.36,-0.27,
1.695,-0.09,-0.08,0.96,-1.79,-1.36,-0.27,
1.697,-0.10,-0.08,0.96,-1.79,-1.36,-0.27,
1.698,-0.10,-0.08,0.96,-1.87,-1.43,-0.25,
1.7,-0.10,-0.08,0.96,-1.87,-1.43,-0.25,
1.702,-0.10,-0.08,0.96,-1.87,-1.43,-0.25,
1.702,-0.10,-0.08,0.96,-1.92,-1.48,-0.23,
1.705,-0.09,-0.08,0.97,-1.92,-1.48,-0.23,
1.707,-0.09,-0.08,0.98,-1.92,-1.48,-0.23,
1.707,-0.09,-0.08,0.98,-1.94,-1.44,-0.17,
1.71,-0.10,-0.08,0.99,-1.94,-1.44,-0.17,
1.712,-0.10,-0.08,0.99,-1.94,-1.44,-0.17,
1.712,-0.10,-0.08,0.99,-1.93,-1.42,-0.08,
1.714,-0.10,-0.08,0.98,-1.93,-1.42,-0.08,
1.717,-0.11,-0.08,0.99,-1.93,-1.42,-0.08,
1.717,-0.11,-0.08,0.99,-1.98,-1.39,0.09,
1.72,-0.10,-0.08,0.99,-1.98,-1.39,0.09,
1.722,-0.10,-0.08,0.99,-2.06,-1.41,0.06,
1.722,-0.11,-0.08,1.01,-2.06,-1.41,0.06,
1.725,-0.11,-0.07,1.01,-2.06,-1.41,0.06,
1.727,-0.10,-0.07,1.01,-2.06,-1.41,0.06,
1.727,-0.10,-0.07,1.01,-2.09,-1.38,0.20,
1.73,-0.09,-0.06,1.01,-2.09,-1.38,0.20,
1.735,-0.09,-0.06,1.02,-2.09,-1.38,0.20,
1.736,-0.09,-0.06,1.02,-2.05,-1.30,0.27,
1.736,-0.08,-0.05,1.01,-2.05,-1.30,0.27,
1.736,-0.08,-0.05,1.01,-2.00,-1.19,0.35,
1.737,-0.08,-0.05,1.01,-2.00,-1.19,0.35,
1.739,-0.08,-0.05,1.01,-2.00,-1.19,0.35,
1.741,-0.07,-0.04,1.01,-2.00,-1.19,0.35,
1.742,-0.07,-0.04,1.01,-1.91,-1.10,0.30,
1.744,-0.08,-0.04,1.01,-1.91,-1.10,0.30,
1.747,-0.08,-0.03,1.01,-1.91,-1.10,0.30,
1.747,-0.08,-0.03,1.01,-1.86,-1.02,0.28,
1.749,-0.08,-0.02,1.01,-1.86,-1.02,0.28,
1.751,-0.08,-0.02,1.02,-1.86,-1.02,0.28,
1.751,-0.08,-0.02,1.02,-1.89,-0.90,0.29,
1.754,-0.07,-0.01,1.01,-1.89,-0.90,0.29,
1.757,-0.06,-0.01,1.01,-1.89,-0.90,0.29,
1.757,-0.06,-0.01,1.01,-1.90,-0.75,0.32,
1.759,-0.06,-0.00,0.99,-1.90,-0.75,0.32,
1.762,-0.06,-0.00,0.99,-1.90,-0.75,0.32,
1.762,-0.06,-0.00,0.99,-1.81,-0.68,0.29,
1.764,-0.06,-0.00,0.99,-1.81,-0.68,0.29,
1.766,-0.06,0.01,0.99,-1.81,-0.68,0.29,
1.767,-0.06,0.01,0.99,-1.73,-0.58,0.13,
1.769,-0.07,0.01,1.00,-1.73,-0.58,0.13,
1.772,-0.07,0.02,1.00,-1.73,-0.58,0.13,
1.772,-0.07,0.02,1.00,-1.77,-0.52,0.12,
1.774,-0.08,0.02,0.99,-1.77,-0.52,0.12,
1.777,-0.08,0.03,0.99,-1.77,-0.52,0.12,
1.778,-0.08,0.03,0.99,-1.86,-0.42,0.23,
1.779,-0.08,0.03,0.99,-1.86,-0.42,0.23,
1.782,-0.09,0.04,0.99,-1.86,-0.42,0.23,
1.783,-0.09,0.04,0.99,-1.93,-0.30,0.12,
1.784,-0.09,0.04,0.99,-1.93,-0.30,0.12,
1.786,-0.09,0.04,0.99,-1.93,-0.30,0.12,
1.786,-0.09,0.04,0.99,-2.02,-0.19,0.13,
1.789,-0.09,0.04,0.99,-2.02,-0.19,0.13,
1.791,-0.10,0.03,0.99,-2.02,-0.19,0.13,
1.792,-0.10,0.03,0.99,-2.09,-0.13,0.11,
1.794,-0.10,0.04,0.99,-2.09,-0.13,0.11,
1.796,-0.10,0.04,0.99,-2.09,-0.13,0.11,
1.797,-0.10,0.04,0.99,-2.10,-0.15,0.13,
1.799,-0.10,0.04,0.99,-2.10,-0.15,0.13,
1.801,-0.11,0.03,0.99,-2.10,-0.15,0.13,
1.801,-0.11,0.03,0.99,-2.15,-0.15,0.14,
1.804,-0.11,0.03,0.99,-2.15,-0.15,0.14,
1.806,-0.11,0.03,0.98,-2.15,-0.15,0.14,
1.807,-0.11,0.03,0.98,-2.19,-0.14,0.12,
1.809,-0.11,0.03,0.97,-2.19,-0.14,0.12,
1.811,-0.11,0.03,0.97,-2.19,-0.14,0.12,
1.814,-0.11,0.03,0.97,-2.25,-0.20,0.03,
1.814,-0.11,0.03,0.97,-2.25,-0.20,0.03,
1.816,-0.11,0.03,0.96,-2.25,-0.20,0.03,
1.817,-0.11,0.03,0.96,-2.25,-0.21,-0.10,
1.818,-0.11,0.02,0.95,-2.25,-0.21,-0.10,
1.821,-0.11,0.02,0.95,-2.25,-0.21,-0.10,
1.822,-0.11,0.02,0.95,-2.27,-0.22,-0.17,
1.824,-0.11,0.03,0.95,-2.27,-0.22,-0.17,
1.826,-0.11,0.03,0.95,-2.27,-0.22,-0.17,
1.826,-0.11,0.03,0.95,-2.26,-0.25,-0.26,
1.828,-0.12,0.03,0.95,-2.26,-0.25,-0.26,
1.832,-0.11,0.03,0.95,-2.26,-0.25,-0.26,
1.832,-0.11,0.03,0.95,-2.22,-0.18,-0.30,
1.833,-0.11,0.03,0.94,-2.22,-0.18,-0.30,
1.835,-0.11,0.03,0.94,-2.20,-0.16,-0.31,
1.836,-0.12,0.03,0.93,-2.20,-0.16,-0.31,
1.838,-0.11,0.03,0.93,-2.20,-0.16,-0.31,
1.841,-0.11,0.04,0.93,-2.20,-0.16,-0.31,
1.841,-0.11,0.04,0.93,-2.19,-0.17,-0.44,
1.843,-0.11,0.05,0.94,-2.19,-0.17,-0.44,
1.846,-0.11,0.06,0.94,-2.19,-0.17,-0.44,
1.846,-0.11,0.06,0.94,-2.17,-0.11,-0.45,
1.852,-0.11,0.07,0.95,-2.17,-0.11,-0.45,
1.853,-0.11,0.08,0.96,-2.17,-0.11,-0.45,
1.853,-0.11,0.08,0.96,-2.15,0.08,-0.36,
1.853,-0.11,0.09,0.97,-2.15,0.08,-0.36,
1.855,-0.11,0.10,0.98,-2.15,0.08,-0.36,
1.855,-0.11,0.10,0.98,-2.12,0.28,-0.22,
1.857,-0.10,0.11,0.98,-2.12,0.28,-0.22,
1.86,-0.10,0.11,1.00,-2.12,0.28,-0.22,
1.86,-0.10,0.11,1.00,-2.10,0.52,-0.05,
1.862,-0.09,0.11,1.00,-2.10,0.52,-0.05,
1.865,-0.08,0.12,1.01,-2.10,0.52,-0.05,
1.866,-0.08,0.12,1.01,-2.02,0.63,0.12,
1.867,-0.07,0.13,1.02,-2.02,0.63,0.12,
1.87,-0.06,0.13,1.04,-2.02,0.63,0.12,
1.87,-0.06,0.13,1.04,-1.88,0.73,0.32,
1.873,-0.05,0.14,1.05,-1.88,0.73,0.32,
1.875,-0.04,0.14,1.06,-1.88,0.73,0.32,
1.875,-0.04,0.14,1.06,-1.68,0.86,0.52,
1.877,-0.04,0.14,1.07,-1.68,0.86,0.52,
1.88,-0.03,0.14,1.09,-1.68,0.86,0.52,
1.882,-0.03,0.14,1.09,-1.47,0.95,0.77,
1.882,-0.03,0.15,1.10,-1.47,0.95,0.77,
1.885,-0.03,0.15,1.11,-1.47,0.95,0.77,
1.885,-0.03,0.15,1.11,-1.43,1.01,1.03,
1.888,-0.03,0.16,1.12,-1.43,1.01,1.03,
1.89,-0.02,0.16,1.13,-1.43,1.01,1.03,
1.89,-0.02,0.16,1.13,-1.40,1.09,1.23,
1.892,-0.02,0.15,1.14,-1.40,1.09,1.23,
1.895,-0.02,0.15,1.14,-1.40,1.09,1.23,
1.895,-0.02,0.15,1.14,-1.39,1.17,1.44,
1.898,-0.01,0.14,1.13,-1.39,1.17,1.44,
1.9,-0.01,0.14,1.13,-1.39,1.17,1.44,
1.901,-0.01,0.14,1.13,-1.32,1.13,1.55,
1.902,-0.01,0.13,1.14,-1.32,1.13,1.55,
1.905,-0.02,0.12,1.15,-1.32,1.13,1.55,
1.905,-0.02,0.12,1.15,-1.27,1.01,1.49,
1.907,-0.03,0.12,1.15,-1.27,1.01,1.49,
1.909,-0.04,0.12,1.16,-1.27,1.01,1.49,
1.91,-0.04,0.12,1.16,-1.31,0.84,1.60,
1.912,-0.04,0.11,1.16,-1.31,0.84,1.60,
1.914,-0.03,0.10,1.15,-1.31,0.84,1.60,
1.919,-0.03,0.10,1.15,-1.52,0.82,1.74,
1.92,-0.02,0.08,1.13,-1.52,0.82,1.74,
1.92,-0.01,0.06,1.11,-1.52,0.82,1.74,
1.92,-0.01,0.06,1.11,-1.53,0.72,1.74,
1.922,-0.01,0.04,1.10,-1.53,0.72,1.74,
1.925,-0.01,0.03,1.08,-1.53,0.72,1.74,
1.925,-0.01,0.03,1.08,-1.30,0.36,1.42,
1.927,-0.01,0.02,1.07,-1.30,0.36,1.42,
1.929,-0.01,0.02,1.07,-1.23,0.04,1.08,
1.93,-0.02,0.03,1.07,-1.23,0.04,1.08,
1.932,-0.04,0.03,1.08,-1.23,0.04,1.08,
1.935,-0.05,0.04,1.08,-1.23,0.04,1.08,
1.935,-0.05,0.04,1.08,-1.30,-0.07,0.90,
1.937,-0.06,0.04,1.08,-1.30,-0.07,0.90,
1.939,-0.07,0.05,1.08,-1.30,-0.07,0.90,
1.939,-0.07,0.05,1.08,-1.59,0.03,0.94,
1.942,-0.07,0.05,1.08,-1.59,0.03,0.94,
1.944,-0.07,0.05,1.08,-1.72,0.12,0.99,
1.944,-0.07,0.06,1.08,-1.72,0.12,0.99,
1.947,-0.08,0.06,1.08,-1.72,0.12,0.99,
1.952,-0.08,0.06,1.08,-1.72,0.12,0.99,
1.953,-0.08,0.06,1.08,-1.81,0.24,0.96,
1.953,-0.08,0.06,1.08,-1.81,0.24,0.96,
1.954,-0.09,0.07,1.09,-1.81,0.24,0.96,
1.954,-0.09,0.07,1.09,-1.89,0.27,0.98,
1.957,-0.09,0.08,1.09,-1.89,0.27,0.98,
1.959,-0.08,0.08,1.10,-1.89,0.27,0.98,
1.959,-0.08,0.08,1.10,-1.94,0.35,1.03,
1.961,-0.08,0.08,1.11,-1.94,0.35,1.03,
1.965,-0.07,0.08,1.11,-1.94,0.35,1.03,
1.966,-0.07,0.08,1.11,-1.94,0.46,1.13,
1.967,-0.06,0.08,1.11,-1.94,0.46,1.13,
1.969,-0.04,0.08,1.13,-1.94,0.46,1.13,
1.969,-0.04,0.08,1.13,-1.86,0.52,1.25,
1.972,-0.03,0.08,1.14,-1.86,0.52,1.25,
1.974,-0.02,0.07,1.14,-1.86,0.52,1.25,
1.974,-0.02,0.07,1.14,-1.63,0.50,1.38,
1.976,-0.00,0.07,1.15,-1.63,0.50,1.38,
1.979,0.01,0.08,1.15,-1.63,0.50,1.38,
1.979,0.01,0.08,1.15,-1.38,0.52,1.56,
1.982,0.02,0.07,1.16,-1.38,0.52,1.56,
1.984,0.02,0.07,1.16,-1.10,0.50,1.64,
1.985,0.03,0.07,1.17,-1.10,0.50,1.64,
1.986,0.04,0.07,1.17,-1.10,0.50,1.64,
1.99,0.04,0.07,1.18,-1.10,0.50,1.64,
1.99,0.04,0.07,1.18,-0.92,0.48,1.79,
1.992,0.04,0.07,1.18,-0.92,0.48,1.79,
1.994,0.05,0.07,1.18,-0.92,0.48,1.79,
1.994,0.05,0.07,1.18,-0.78,0.52,1.88,
1.997,0.05,0.07,1.18,-0.78,0.52,1.88,
1.999,0.05,0.07,1.18,-0.78,0.52,1.88,
1.999,0.05,0.07,1.18,-0.71,0.51,1.92,
2.003,0.05,0.06,1.17,-0.71,0.51,1.92,
2.004,0.05,0.06,1.16,-0.71,0.51,1.92,
2.004,0.05,0.06,1.16,-0.68,0.54,1.91,
2.007,0.05,0.06,1.15,-0.68,0.54,1.91,
2.009,0.05,0.06,1.15,-0.65,0.45,1.75,
2.01,0.05,0.06,1.15,-0.65,0.45,1.75,
2.012,0.04,0.05,1.14,-0.65,0.45,1.75,
2.014,0.04,0.05,1.13,-0.65,0.45,1.75,
2.015,0.04,0.05,1.13,-0.67,0.43,1.64,
2.017,0.03,0.05,1.12,-0.67,0.43,1.64,
2.019,0.02,0.05,1.12,-0.67,0.43,1.64,
2.019,0.02,0.05,1.12,-0.70,0.36,1.49,
2.022,0.02,0.05,1.11,-0.70,0.36,1.49,
2.024,0.02,0.05,1.11,-0.84,0.36,1.31,
2.024,0.02,0.04,1.11,-0.84,0.36,1.31,
2.027,0.02,0.03,1.10,-0.84,0.36,1.31,
2.029,0.01,0.03,1.09,-0.84,0.36,1.31,
2.029,0.01,0.03,1.09,-0.88,0.32,1.23,
2.032,0.02,0.02,1.08,-0.88,0.32,1.23,
2.034,0.02,0.01,1.08,-0.88,0.32,1.23,
2.034,0.02,0.01,1.08,-0.91,0.20,1.07,
2.036,0.02,0.01,1.07,-0.91,0.20,1.07,
2.039,0.02,0.00,1.07,-0.91,0.20,1.07,
2.04,0.02,0.00,1.07,-0.85,0.05,0.95,
2.042,0.02,-0.00,1.06,-0.85,0.05,0.95,
2.044,0.03,-0.00,1.07,-0.85,0.05,0.95,
2.044,0.03,-0.00,1.07,-0.81,-0.04,0.81,
2.046,0.03,-0.00,1.06,-0.81,-0.04,0.81,
2.049,0.03,-0.01,1.07,-0.81,-0.04,0.81,
2.049,0.03,-0.01,1.07,-0.80,-0.13,0.78,
2.051,0.03,-0.01,1.07,-0.80,-0.13,0.78,
2.053,0.03,-0.01,1.07,-0.75,-0.15,0.78,
2.054,0.04,-0.01,1.08,-0.75,-0.15,0.78,
2.057,0.05,-0.01,1.08,-0.75,-0.15,0.78,
2.059,0.06,0.00,1.08,-0.75,-0.15,0.78,
2.059,0.06,0.00,1.08,-0.65,-0.17,0.88,
2.061,0.07,0.00,1.08,-0.65,-0.17,0.88,
2.064,0.07,0.01,1.09,-0.65,-0.17,0.88,
2.064,0.07,0.01,1.09,-0.49,-0.13,0.89,
2.071,0.08,0.01,1.10,-0.49,-0.13,0.89,
2.071,0.09,0.02,1.11,-0.49,-0.13,0.89,
2.072,0.09,0.02,1.11,-0.35,-0.06,0.97,
2.072,0.10,0.02,1.12,-0.35,-0.06,0.97,
2.074,0.11,0.03,1.12,-0.35,-0.06,0.97,
2.075,0.11,0.03,1.12,-0.18,0.04,1.14,
2.076,0.12,0.04,1.13,-0.18,0.04,1.14,
2.078,0.12,0.04,1.13,-0.18,0.04,1.14,
2.078,0.12,0.04,1.13,-0.02,0.16,1.28,
2.081,0.13,0.05,1.14,-0.02,0.16,1.28,
2.084,0.14,0.05,1.14,-0.02,0.16,1.28,
2.084,0.14,0.05,1.14,0.10,0.24,1.38,
2.086,0.14,0.05,1.14,0.10,0.24,1.38,
2.088,0.15,0.06,1.14,0.10,0.24,1.38,
2.088,0.15,0.06,1.14,0.21,0.37,1.51,
2.091,0.15,0.06,1.14,0.21,0.37,1.51,
2.093,0.15,0.07,1.15,0.21,0.37,1.51,
2.094,0.15,0.07,1.15,0.32,0.41,1.53,
2.096,0.15,0.06,1.15,0.32,0.41,1.53,
2.098,0.15,0.07,1.14,0.32,0.41,1.53,
2.099,0.15,0.07,1.14,0.39,0.49,1.52,
2.101,0.16,0.07,1.13,0.39,0.49,1.52,
2.103,0.16,0.06,1.12,0.39,0.49,1.52,
2.103,0.16,0.06,1.12,0.40,0.48,1.53,
2.105,0.16,0.06,1.12,0.40,0.48,1.53,
2.108,0.16,0.07,1.10,0.40,0.48,1.53,
2.109,0.16,0.07,1.10,0.51,0.48,1.39,
2.111,0.16,0.07,1.09,0.51,0.48,1.39,
2.113,0.16,0.06,1.08,0.51,0.48,1.39,
2.113,0.16,0.06,1.08,0.51,0.45,1.19,
2.116,0.15,0.06,1.07,0.51,0.45,1.19,
2.118,0.16,0.05,1.07,0.51,0.45,1.19,
2.118,0.16,0.05,1.07,0.55,0.45,0.95,
2.12,0.16,0.05,1.05,0.55,0.45,0.95,
2.123,0.16,0.05,1.03,0.55,0.45,0.95,
2.123,0.16,0.05,1.03,0.51,0.35,0.79,
2.126,0.16,0.04,1.01,0.51,0.35,0.79,
2.127,0.15,0.03,1.02,0.51,0.35,0.79,
2.127,0.15,0.03,1.02,0.55,0.25,0.47,
2.13,0.15,0.02,1.02,0.55,0.25,0.47,
2.134,0.14,0.01,1.01,0.55,0.25,0.47,
2.134,0.14,0.01,1.01,0.56,0.11,0.25,
2.135,0.14,0.01,1.00,0.56,0.11,0.25,
2.137,0.14,0.01,0.99,0.56,0.11,0.25,
2.138,0.14,0.01,0.99,0.50,-0.09,0.26,
2.14,0.14,0.01,0.98,0.50,-0.09,0.26,
2.142,0.13,0.01,0.98,0.50,-0.09,0.26,
2.143,0.13,0.01,0.98,0.49,-0.18,0.02,
2.146,0.12,0.01,0.97,0.49,-0.18,0.02,
2.147,0.12,0.00,0.97,0.49,-0.18,0.02,
2.147,0.12,0.00,0.97,0.43,-0.18,-0.11,
2.151,0.12,0.00,0.97,0.43,-0.18,-0.11,
2.152,0.11,-0.00,0.98,0.43,-0.18,-0.11,
2.153,0.11,-0.00,0.98,0.36,-0.24,-0.15,
2.155,0.09,-0.01,1.00,0.36,-0.24,-0.15,
2.157,0.08,0.01,1.02,0.36,-0.24,-0.15,
2.157,0.08,0.01,1.02,0.28,-0.31,-0.15,
2.159,0.08,0.02,1.03,0.28,-0.31,-0.15,
2.163,0.09,0.02,1.03,0.28,-0.31,-0.15,
2.163,0.09,0.02,1.03,0.01,-0.32,0.16,
2.164,0.10,0.01,1.02,0.01,-0.32,0.16,
2.172,0.13,0.01,1.02,0.01,-0.32,0.16,
2.172,0.13,0.01,1.02,-0.01,-0.15,0.40,
2.173,0.14,0.00,1.01,-0.01,-0.15,0.40,
2.173,0.14,0.00,1.01,-0.01,-0.15,0.40,
2.173,0.14,0.00,1.01,0.32,-0.26,0.28,
2.175,0.15,0.01,1.01,0.32,-0.26,0.28,
2.177,0.15,0.02,1.01,0.32,-0.26,0.28,
2.177,0.15,0.02,1.01,0.60,-0.36,0.20,
2.179,0.14,0.03,1.00,0.60,-0.36,0.20,
2.182,0.13,0.04,1.01,0.60,-0.36,0.20,
2.182,0.13,0.04,1.01,0.68,-0.25,0.16,
2.185,0.12,0.05,1.02,0.68,-0.25,0.16,
2.187,0.11,0.06,1.02,0.68,-0.25,0.16,
2.187,0.11,0.06,1.02,0.56,-0.10,0.16,
2.189,0.10,0.08,1.03,0.56,-0.10,0.16,
2.192,0.10,0.08,1.04,0.56,-0.10,0.16,
2.192,0.10,0.08,1.04,0.36,0.08,0.28,
2.194,0.10,0.09,1.03,0.36,0.08,0.28,
2.197,0.11,0.08,1.04,0.36,0.08,0.28,
2.197,0.11,0.08,1.04,0.22,0.31,0.45,
2.202,0.11,0.08,1.04,0.22,0.31,0.45,
2.203,0.13,0.08,1.03,0.22,0.31,0.45,
2.203,0.13,0.08,1.03,0.25,0.36,0.44,
2.204,0.14,0.08,1.03,0.25,0.36,0.44,
2.207,0.14,0.07,1.03,0.25,0.36,0.44,
2.207,0.14,0.07,1.03,0.39,0.28,0.43,
2.209,0.15,0.06,1.04,0.39,0.28,0.43,
2.212,0.15,0.06,1.04,0.60,0.18,0.37,
2.212,0.16,0.05,1.03,0.60,0.18,0.37,
2.215,0.17,0.04,1.02,0.60,0.18,0.37,
2.218,0.17,0.04,1.02,0.60,0.18,0.37,
2.219,0.17,0.04,1.02,0.78,-0.00,0.42,
2.22,0.16,0.03,1.02,0.78,-0.00,0.42,
2.222,0.16,0.03,1.02,0.78,-0.00,0.42,
2.223,0.16,0.03,1.02,0.87,-0.14,0.31,
2.225,0.15,0.03,1.02,0.87,-0.14,0.31,
2.227,0.15,0.03,1.02,0.87,-0.14,0.31,
2.227,0.15,0.03,1.02,0.80,-0.23,0.28,
2.23,0.15,0.03,1.02,0.80,-0.23,0.28,
2.232,0.15,0.02,1.02,0.80,-0.23,0.28,
2.232,0.15,0.02,1.02,0.74,-0.27,0.28,
2.234,0.15,0.01,1.01,0.74,-0.27,0.28,
2.237,0.15,0.01,1.01,0.74,-0.27,0.28,
2.238,0.15,0.01,1.01,0.69,-0.37,0.24,
2.24,0.15,0.00,1.00,0.69,-0.37,0.24,
2.242,0.15,0.00,1.00,0.70,-0.48,0.20,
2.242,0.15,-0.00,1.00,0.70,-0.48,0.20,
2.244,0.15,-0.01,1.00,0.70,-0.48,0.20,
2.247,0.15,-0.01,1.01,0.70,-0.48,0.20,
2.247,0.15,-0.01,1.01,0.74,-0.58,0.10,
2.249,0.15,-0.01,1.01,0.74,-0.58,0.10,
2.252,0.14,-0.01,1.01,0.74,-0.58,0.10,
2.252,0.14,-0.01,1.01,0.72,-0.68,0.12,
2.254,0.14,-0.01,1.01,0.72,-0.68,0.12,
2.257,0.13,-0.01,1.02,0.72,-0.68,0.12,
2.257,0.13,-0.01,1.02,0.70,-0.72,0.15,
2.259,0.13,-0.00,1.03,0.70,-0.72,0.15,
2.262,0.12,0.00,1.03,0.70,-0.72,0.15,
2.262,0.12,0.00,1.03,0.63,-0.69,0.23,
2.264,0.12,0.01,1.03,0.63,-0.69,0.23,
2.266,0.11,0.01,1.04,0.63,-0.69,0.23,
2.268,0.11,0.01,1.04,0.50,-0.60,0.37,
2.269,0.11,0.01,1.04,0.50,-0.60,0.37,
2.272,0.11,0.01,1.05,0.50,-0.60,0.37,
2.272,0.11,0.01,1.05,0.43,-0.56,0.43,
2.274,0.12,0.02,1.05,0.43,-0.56,0.43,
2.277,0.13,0.02,1.06,0.43,-0.56,0.43,
2.277,0.13,0.02,1.06,0.43,-0.52,0.54,
2.28,0.13,0.02,1.06,0.43,-0.52,0.54,
2.282,0.14,0.02,1.07,0.43,-0.52,0.54,
2.282,0.14,0.02,1.07,0.53,-0.45,0.62,
2.289,0.14,0.01,1.07,0.53,-0.45,0.62,
2.289,0.14,0.01,1.07,0.53,-0.45,0.62,
2.29,0.14,0.01,1.07,0.64,-0.42,0.73,
2.29,0.15,0.02,1.08,0.64,-0.42,0.73,
2.292,0.15,0.01,1.07,0.64,-0.42,0.73,
2.292,0.15,0.01,1.07,0.73,-0.49,0.77,
2.294,0.16,0.01,1.07,0.73,-0.49,0.77,
2.296,0.17,0.00,1.07,0.73,-0.49,0.77,
2.296,0.17,0.00,1.07,0.80,-0.49,0.81,
2.298,0.17,-0.00,1.06,0.80,-0.49,0.81,
2.302,0.17,-0.00,1.05,0.80,-0.49,0.81,
2.302,0.17,-0.00,1.05,0.92,-0.58,0.80,
2.303,0.17,-0.01,1.05,0.92,-0.58,0.80,
2.306,0.18,-0.02,1.05,0.92,-0.58,0.80,
2.308,0.18,-0.02,1.05,1.03,-0.67,0.63,
2.308,0.18,-0.02,1.05,1.03,-0.67,0.63,
2.311,0.18,-0.02,1.05,1.05,-0.80,0.58,
2.311,0.19,-0.02,1.04,1.05,-0.80,0.58,
2.313,0.19,-0.03,1.04,1.05,-0.80,0.58,
2.315,0.19,-0.04,1.04,1.05,-0.80,0.58,
2.317,0.19,-0.04,1.04,1.21,-0.87,0.49,
2.32,0.19,-0.03,1.03,1.21,-0.87,0.49,
2.321,0.19,-0.03,1.02,1.21,-0.87,0.49,
2.321,0.19,-0.03,1.02,1.27,-1.00,0.50,
2.323,0.19,-0.03,1.01,1.27,-1.00,0.50,
2.327,0.20,-0.03,1.00,1.27,-1.00,0.50,
2.327,0.20,-0.03,1.00,1.29,-0.99,0.32,
2.328,0.20,-0.03,1.00,1.29,-0.99,0.32,
2.33,0.20,-0.02,0.99,1.29,-0.99,0.32,
2.331,0.20,-0.02,0.99,1.30,-1.02,0.13,
2.335,0.21,-0.02,0.99,1.30,-1.02,0.13,
2.335,0.21,-0.02,0.99,1.30,-1.02,0.13,
2.335,0.21,-0.02,0.99,1.37,-0.94,0.04,
2.338,0.22,-0.01,0.99,1.37,-0.94,0.04,
2.34,0.22,-0.01,0.99,1.46,-0.91,-0.02,
2.34,0.22,-0.01,0.99,1.46,-0.91,-0.02,
2.344,0.22,-0.00,0.99,1.46,-0.91,-0.02,
2.346,0.23,-0.00,1.01,1.46,-0.91,-0.02,
2.346,0.23,-0.00,1.01,1.56,-0.86,-0.02,
2.348,0.23,-0.00,1.00,1.56,-0.86,-0.02,
2.35,0.23,0.00,1.00,1.56,-0.86,-0.02,
2.35,0.23,0.00,1.00,1.64,-0.76,0.07,
2.353,0.23,0.01,1.01,1.64,-0.76,0.07,
2.356,0.23,0.01,1.01,1.67,-0.75,0.10,
2.356,0.23,0.01,1.02,1.67,-0.75,0.10,
2.358,0.23,0.01,1.03,1.67,-0.75,0.10,
2.361,0.23,0.01,1.03,1.67,-0.65,0.22,
2.361,0.24,0.02,1.03,1.67,-0.65,0.22,
2.363,0.24,0.02,1.04,1.67,-0.65,0.22,
2.366,0.24,0.02,1.05,1.67,-0.65,0.22,
2.366,0.24,0.02,1.05,1.72,-0.62,0.36,
2.371,0.24,0.03,1.05,1.72,-0.62,0.36,
2.372,0.24,0.03,1.05,1.72,-0.62,0.36,
2.372,0.24,0.03,1.05,1.79,-0.54,0.50,
2.372,0.24,0.03,1.06,1.79,-0.54,0.50,
2.375,0.24,0.03,1.06,1.79,-0.54,0.50,
2.375,0.24,0.03,1.06,1.81,-0.50,0.60,
2.378,0.23,0.02,1.06,1.81,-0.50,0.60,
2.381,0.23,0.02,1.06,1.81,-0.50,0.60,
2.381,0.23,0.02,1.06,1.78,-0.49,0.66,
2.383,0.24,0.02,1.06,1.78,-0.49,0.66,
2.385,0.24,0.02,1.05,1.78,-0.49,0.66,
2.385,0.24,0.02,1.05,1.75,-0.53,0.62,
2.388,0.24,0.02,1.04,1.75,-0.53,0.62,
2.39,0.24,0.03,1.04,1.75,-0.53,0.62,
2.39,0.24,0.03,1.04,1.82,-0.54,0.58,
2.393,0.23,0.03,1.03,1.82,-0.54,0.58,
2.395,0.23,0.02,1.02,1.82,-0.54,0.58,
2.396,0.23,0.02,1.02,1.88,-0.53,0.47,
2.398,0.24,0.03,1.01,1.88,-0.53,0.47,
2.4,0.24,0.03,1.00,1.88,-0.53,0.47,
2.4,0.24,0.03,1.00,1.81,-0.53,0.26,
2.403,0.24,0.04,0.99,1.81,-0.53,0.26,
2.405,0.24,0.03,0.99,1.81,-0.53,0.26,
2.405,0.24,0.03,0.99,1.90,-0.47,0.08,
2.407,0.24,0.03,0.98,1.90,-0.47,0.08,
2.41,0.25,0.03,0.96,1.90,-0.47,0.08,
2.41,0.25,0.03,0.96,1.95,-0.43,-0.04,
2.413,0.24,0.02,0.95,1.95,-0.43,-0.04,
2.415,0.25,0.03,0.93,1.95,-0.43,-0.04,
2.415,0.25,0.03,0.93,1.99,-0.49,-0.26,
2.419,0.25,0.03,0.92,1.99,-0.49,-0.26,
2.42,0.25,0.03,0.92,1.99,-0.49,-0.26,
2.42,0.25,0.03,0.92,2.05,-0.52,-0.52,
2.423,0.25,0.03,0.90,2.05,-0.52,-0.52,
2.425,0.26,0.04,0.89,2.05,-0.52,-0.52,
2.426,0.26,0.04,0.89,2.12,-0.48,-0.74,
2.428,0.26,0.04,0.88,2.12,-0.48,-0.74,
2.43,0.26,0.04,0.87,2.12,-0.48,-0.74,
2.431,0.26,0.04,0.87,2.17,-0.45,-0.99,
2.433,0.26,0.06,0.87,2.17,-0.45,-0.99,
2.436,0.25,0.05,0.88,2.17,-0.45,-0.99,
2.437,0.25,0.05,0.88,2.23,-0.37,-1.14,
2.437,0.24,0.06,0.89,2.23,-0.37,-1.14,
2.44,0.24,0.06,0.90,2.23,-0.37,-1.14,
2.44,0.24,0.06,0.90,2.17,-0.26,-1.13,
2.443,0.24,0.06,0.90,2.17,-0.26,-1.13,
2.445,0.21,0.05,0.91,2.17,-0.26,-1.13,
2.446,0.21,0.05,0.91,2.08,-0.23,-0.97,
2.448,0.21,0.07,0.94,2.08,-0.23,-0.97,
2.45,0.20,0.09,0.95,2.08,-0.23,-0.97,
2.45,0.20,0.09,0.95,1.91,-0.28,-0.86,
2.452,0.21,0.10,0.97,1.91,-0.28,-0.86,
2.454,0.22,0.09,0.97,1.91,-0.28,-0.86,
2.455,0.22,0.09,0.97,1.69,-0.03,-0.45,
2.457,0.24,0.08,0.96,1.69,-0.03,-0.45,
2.46,0.26,0.05,0.95,1.69,-0.03,-0.45,
2.46,0.26,0.05,0.95,1.80,0.05,-0.24,
2.462,0.27,0.03,0.92,1.80,0.05,-0.24,
2.465,0.28,0.02,0.93,1.80,0.05,-0.24,
2.465,0.28,0.02,0.93,2.14,-0.24,-0.36,
2.466,0.31,0.01,0.94,2.14,-0.24,-0.36,
2.47,0.36,-0.01,0.96,2.14,-0.24,-0.36,
2.47,0.36,-0.01,0.96,2.44,-0.63,-0.66,
2.473,0.47,-0.04,1.03,2.44,-0.63,-0.66,
2.474,0.56,-0.07,1.12,2.44,-0.63,-0.66,
2.474,0.56,-0.07,1.12,2.98,-0.90,-0.43,
2.476,0.53,-0.04,1.16,2.98,-0.90,-0.43,
2.479,0.36,0.05,1.12,2.98,-0.90,-0.43,
2.479,0.36,0.05,1.12,4.74,-1.45,0.78,
2.481,0.18,0.15,1.07,4.74,-1.45,0.78,
2.489,0.07,0.21,1.03,4.74,-1.45,0.78,
2.49,0.07,0.21,1.03,4.09,-0.88,1.48,
2.49,0.02,0.23,1.01,4.09,-0.88,1.48,
2.49,0.03,0.23,0.99,4.09,-0.88,1.48,
2.491,0.03,0.23,0.99,0.96,0.79,0.58,
2.493,0.06,0.20,0.97,0.96,0.79,0.58,
2.494,0.11,0.16,0.97,0.96,0.79,0.58,
2.494,0.11,0.16,0.97,-0.04,1.26,0.10,
2.496,0.18,0.11,0.98,-0.04,1.26,0.10,
2.499,0.24,0.07,1.00,-0.04,1.26,0.10,
2.5,0.24,0.07,1.00,0.57,0.74,-0.18,
2.502,0.29,0.03,1.02,0.57,0.74,-0.18,
2.503,0.32,0.01,1.01,0.57,0.74,-0.18,
2.504,0.32,0.01,1.01,1.79,-0.17,-0.02,
2.506,0.31,0.01,1.00,1.79,-0.17,-0.02,
2.509,0.28,0.01,0.99,1.79,-0.17,-0.02,
2.51,0.28,0.01,0.99,2.71,-0.87,0.22,
2.512,0.24,0.03,0.97,2.71,-0.87,0.22,
2.514,0.21,0.04,0.95,2.71,-0.87,0.22,
2.515,0.21,0.04,0.95,2.63,-0.99,0.05,
2.517,0.20,0.06,0.95,2.63,-0.99,0.05,
2.519,0.19,0.06,0.94,2.63,-0.99,0.05,
2.519,0.19,0.06,0.94,1.95,-0.76,-0.32,
2.521,0.19,0.07,0.95,1.95,-0.76,-0.32,
2.524,0.19,0.07,0.95,1.61,-0.57,-0.44,
2.524,0.20,0.06,0.95,1.61,-0.57,-0.44,
2.527,0.20,0.06,0.95,1.61,-0.57,-0.44,
2.529,0.20,0.06,0.95,1.61,-0.57,-0.44,
2.529,0.20,0.06,0.95,1.61,-0.55,-0.40,
2.532,0.21,0.06,0.95,1.61,-0.55,-0.40,
2.534,0.21,0.06,0.95,1.61,-0.55,-0.40,
2.534,0.21,0.06,0.95,1.67,-0.61,-0.35,
2.536,0.20,0.05,0.94,1.67,-0.61,-0.35,
2.538,0.19,0.06,0.93,1.67,-0.61,-0.35,
2.539,0.19,0.06,0.93,1.77,-0.66,-0.38,
2.542,0.18,0.07,0.93,1.77,-0.66,-0.38,
2.544,0.16,0.08,0.93,1.77,-0.66,-0.38,
2.544,0.16,0.08,0.93,1.61,-0.70,-0.52,
2.547,0.16,0.08,0.92,1.61,-0.70,-0.52,
2.549,0.15,0.09,0.92,1.61,-0.70,-0.52,
2.549,0.15,0.09,0.92,1.43,-0.59,-0.55,
2.553,0.14,0.09,0.92,1.43,-0.59,-0.55,
2.554,0.13,0.09,0.90,1.43,-0.59,-0.55,
2.554,0.13,0.09,0.90,1.26,-0.49,-0.66,
2.557,0.12,0.10,0.90,1.26,-0.49,-0.66,
2.559,0.12,0.10,0.90,1.11,-0.45,-0.76,
2.559,0.09,0.12,0.90,1.11,-0.45,-0.76,
2.561,0.06,0.13,0.90,1.11,-0.45,-0.76,
2.564,0.05,0.15,0.90,1.11,-0.45,-0.76,
2.564,0.05,0.15,0.90,0.85,-0.27,-0.83,
2.567,0.04,0.15,0.90,0.85,-0.27,-0.83,
2.57,0.04,0.16,0.90,0.85,-0.27,-0.83,
2.57,0.04,0.16,0.90,0.39,0.00,-0.83,
2.571,0.03,0.16,0.91,0.39,0.00,-0.83,
2.574,0.03,0.16,0.91,0.21,0.17,-0.81,
2.574,0.04,0.16,0.91,0.21,0.17,-0.81,
2.576,0.04,0.15,0.91,0.21,0.17,-0.81,
2.579,0.05,0.13,0.92,0.21,0.17,-0.81,
2.579,0.05,0.13,0.92,0.19,0.18,-0.75,
2.581,0.06,0.13,0.92,0.19,0.18,-0.75,
2.583,0.06,0.12,0.93,0.19,0.18,-0.75,
2.584,0.06,0.12,0.93,0.27,-0.02,-0.67,
2.586,0.07,0.11,0.93,0.27,-0.02,-0.67,
2.588,0.08,0.11,0.93,0.27,-0.02,-0.67,
2.588,0.08,0.11,0.93,0.45,-0.16,-0.62,
2.591,0.08,0.10,0.94,0.45,-0.16,-0.62,
2.594,0.09,0.10,0.96,0.45,-0.16,-0.62,
2.594,0.09,0.10,0.96,0.57,-0.29,-0.52,
2.595,0.09,0.10,0.96,0.57,-0.29,-0.52,
2.598,0.09,0.10,0.98,0.57,-0.29,-0.52,
2.599,0.09,0.10,0.98,0.64,-0.41,-0.35,
2.6,0.09,0.10,0.98,0.64,-0.41,-0.35,
2.608,0.09,0.10,0.99,0.64,-0.41,-0.35,
2.608,0.09,0.10,0.99,0.70,-0.37,-0.15,
2.608,0.09,0.10,0.99,0.70,-0.37,-0.15,
2.608,0.10,0.10,0.99,0.70,-0.37,-0.15,
2.609,0.10,0.10,0.99,0.65,-0.35,0.03,
2.61,0.11,0.11,0.99,0.65,-0.35,0.03,
2.612,0.11,0.11,0.98,0.65,-0.35,0.03,
2.613,0.11,0.11,0.98,0.73,-0.35,0.06,
2.615,0.12,0.12,0.98,0.73,-0.35,0.06,
2.619,0.12,0.12,0.98,0.73,-0.35,0.06,
2.62,0.12,0.12,0.98,0.84,-0.28,0.00,
2.621,0.12,0.12,0.97,0.84,-0.28,0.00,
2.622,0.12,0.13,0.96,0.84,-0.28,0.00,
2.623,0.12,0.13,0.96,0.95,-0.19,-0.05,
2.625,0.13,0.13,0.96,0.95,-0.19,-0.05,
2.628,0.12,0.13,0.95,0.95,-0.19,-0.05,
2.628,0.12,0.13,0.95,0.94,-0.12,-0.18,
2.63,0.13,0.13,0.95,0.94,-0.12,-0.18,
2.632,0.14,0.13,0.95,0.94,-0.12,-0.18,
2.632,0.14,0.13,0.95,0.98,-0.03,-0.33,
2.636,0.14,0.13,0.94,0.98,-0.03,-0.33,
2.64,0.13,0.13,0.94,0.98,-0.03,-0.33,
2.64,0.13,0.13,0.94,1.06,-0.03,-0.35,
2.641,0.13,0.13,0.94,1.06,-0.03,-0.35,
2.642,0.13,0.13,0.94,1.07,-0.04,-0.44,
2.642,0.12,0.13,0.93,1.07,-0.04,-0.44,
2.645,0.12,0.13,0.94,1.07,-0.04,-0.44,
2.649,0.12,0.13,0.94,0.97,-0.05,-0.50,
2.649,0.13,0.14,0.94,0.97,-0.05,-0.50,
2.65,0.12,0.14,0.95,0.97,-0.05,-0.50,
2.653,0.11,0.14,0.95,0.97,-0.05,-0.50,
2.654,0.11,0.14,0.95,0.96,-0.02,-0.44,
2.656,0.11,0.13,0.95,0.96,-0.02,-0.44,
2.658,0.10,0.13,0.96,0.96,-0.02,-0.44,
2.658,0.10,0.13,0.96,0.88,-0.00,-0.38,
2.661,0.09,0.13,0.97,0.88,-0.00,-0.38,
2.663,0.09,0.14,0.96,0.88,-0.00,-0.38,
2.663,0.09,0.14,0.96,0.73,-0.04,-0.27,
2.665,0.09,0.14,0.97,0.73,-0.04,-0.27,
2.667,0.09,0.14,0.97,0.73,-0.04,-0.27,
2.667,0.09,0.14,0.97,0.60,-0.03,-0.20,
2.67,0.09,0.14,0.98,0.60,-0.03,-0.20,
2.673,0.10,0.15,0.99,0.60,-0.03,-0.20,
2.673,0.10,0.15,0.99,0.59,-0.01,-0.15,
2.675,0.11,0.14,0.99,0.59,-0.01,-0.15,
2.677,0.11,0.15,1.00,0.59,-0.01,-0.15,
2.677,0.11,0.15,1.00,0.59,0.04,-0.01,
2.68,0.11,0.15,1.00,0.59,0.04,-0.01,
2.682,0.11,0.14,1.01,0.59,0.04,-0.01,
2.682,0.11,0.14,1.01,0.70,0.01,0.08,
2.685,0.12,0.15,1.01,0.70,0.01,0.08,
2.687,0.12,0.15,1.01,0.70,0.01,0.08,
2.687,0.12,0.15,1.01,0.69,-0.00,0.20,
2.69,0.12,0.16,1.00,0.69,-0.00,0.20,
2.692,0.12,0.16,1.00,0.69,-0.00,0.20,
2.692,0.12,0.16,1.00,0.74,0.03,0.25,
2.695,0.13,0.15,1.01,0.74,0.03,0.25,
2.697,0.13,0.15,1.01,0.74,0.03,0.25,
2.697,0.13,0.15,1.01,0.71,0.08,0.16,
2.7,0.12,0.15,1.00,0.71,0.08,0.16,
2.706,0.11,0.14,1.00,0.71,0.08,0.16,
2.706,0.11,0.14,1.00,0.76,0.00,0.23,
2.706,0.11,0.15,1.00,0.76,0.00,0.23,
2.706,0.10,0.14,1.00,0.76,0.00,0.23,
2.707,0.10,0.14,1.00,0.61,-0.08,0.17,
2.709,0.10,0.14,0.99,0.61,-0.08,0.17,
2.712,0.10,0.14,0.99,0.61,-0.08,0.17,
2.712,0.10,0.14,0.99,0.47,-0.10,0.18,
2.714,0.10,0.14,0.98,0.47,-0.10,0.18,
2.718,0.10,0.14,0.98,0.44,-0.15,0.06,
2.718,0.09,0.15,0.97,0.44,-0.15,0.06,
2.72,0.09,0.15,0.97,0.44,-0.15,0.06,
2.722,0.08,0.15,0.97,0.44,-0.15,0.06,
2.722,0.08,0.15,0.97,0.35,-0.15,-0.06,
2.724,0.08,0.15,0.95,0.35,-0.15,-0.06,
2.727,0.07,0.15,0.96,0.35,-0.15,-0.06,
2.727,0.07,0.15,0.96,0.27,-0.11,-0.09,
2.729,0.06,0.15,0.96,0.27,-0.11,-0.09,
2.732,0.06,0.15,0.96,0.27,-0.11,-0.09,
2.732,0.06,0.15,0.96,0.15,-0.08,-0.23,
2.735,0.06,0.15,0.96,0.15,-0.08,-0.23,
2.737,0.06,0.15,0.97,0.15,-0.08,-0.23,
2.738,0.06,0.15,0.97,0.03,-0.11,-0.16,
2.739,0.06,0.15,0.97,0.03,-0.11,-0.16,
2.741,0.05,0.15,0.97,0.03,-0.11,-0.16,
2.742,0.05,0.15,0.97,0.03,-0.09,-0.15,
2.744,0.05,0.15,0.98,0.03,-0.09,-0.15,
2.747,0.05,0.15,0.99,0.03,-0.09,-0.15,
2.747,0.05,0.15,0.99,-0.02,-0.11,-0.10,
2.749,0.05,0.15,0.99,-0.02,-0.11,-0.10,
2.752,0.05,0.14,1.00,-0.02,-0.11,-0.10,
2.752,0.05,0.14,1.00,-0.09,-0.11,0.06,
2.754,0.05,0.14,1.01,-0.09,-0.11,0.06,
2.756,0.05,0.13,1.02,-0.09,-0.11,0.06,
2.756,0.05,0.13,1.02,-0.12,-0.16,0.16,
2.759,0.05,0.13,1.03,-0.12,-0.16,0.16,
2.762,0.05,0.13,1.03,-0.12,-0.16,0.16,
2.762,0.05,0.13,1.03,-0.10,-0.25,0.34,
2.764,0.05,0.13,1.04,-0.10,-0.25,0.34,
2.767,0.04,0.13,1.04,-0.10,-0.25,0.34,
2.767,0.04,0.13,1.04,-0.10,-0.31,0.47,
2.769,0.04,0.13,1.05,-0.10,-0.31,0.47,
2.772,0.04,0.13,1.06,-0.10,-0.31,0.47,
2.772,0.04,0.13,1.06,-0.16,-0.28,0.60,
2.774,0.04,0.13,1.06,-0.16,-0.28,0.60,
2.777,0.04,0.13,1.06,-0.16,-0.28,0.60,
2.777,0.04,0.13,1.06,-0.21,-0.30,0.71,
2.779,0.04,0.13,1.06,-0.21,-0.30,0.71,
2.781,0.04,0.13,1.06,-0.21,-0.30,0.71,
2.782,0.04,0.13,1.06,-0.25,-0.34,0.76,
2.784,0.04,0.13,1.06,-0.25,-0.34,0.76,
2.786,0.04,0.14,1.05,-0.25,-0.34,0.76,
2.786,0.04,0.14,1.05,-0.26,-0.31,0.81,
2.788,0.05,0.14,1.05,-0.26,-0.31,0.81,
2.791,0.05,0.14,1.04,-0.26,-0.31,0.81,
2.791,0.05,0.14,1.04,-0.25,-0.28,0.73,
2.794,0.05,0.15,1.03,-0.25,-0.28,0.73,
2.796,0.06,0.15,1.03,-0.25,-0.28,0.73,
2.797,0.06,0.15,1.03,-0.25,-0.22,0.64,
2.799,0.06,0.15,1.03,-0.25,-0.22,0.64,
2.801,0.07,0.16,1.02,-0.25,-0.22,0.64,
2.804,0.07,0.16,1.02,-0.18,-0.20,0.54,
2.804,0.08,0.16,1.01,-0.18,-0.20,0.54,
2.807,0.08,0.17,1.01,-0.18,-0.20,0.54,
2.807,0.08,0.17,1.01,-0.15,-0.15,0.43,
2.808,0.09,0.17,1.00,-0.15,-0.15,0.43,
2.811,0.09,0.17,1.00,-0.15,-0.15,0.43,
2.812,0.09,0.17,1.00,-0.02,-0.03,0.30,
2.814,0.09,0.17,1.00,-0.02,-0.03,0.30,
2.816,0.09,0.16,0.99,-0.02,-0.03,0.30,
2.817,0.09,0.16,0.99,0.02,-0.06,0.23,
2.819,0.09,0.17,0.99,0.02,-0.06,0.23,
2.825,0.09,0.17,0.99,0.02,-0.06,0.23,
2.825,0.09,0.17,0.99,0.01,-0.09,0.19,
2.826,0.10,0.17,0.98,0.01,-0.09,0.19,
2.826,0.10,0.17,0.98,0.01,-0.09,0.19,
2.826,0.10,0.17,0.98,0.04,-0.07,0.11,
2.829,0.11,0.18,0.98,0.04,-0.07,0.11,
2.831,0.11,0.18,0.98,0.10,-0.07,0.01,
2.831,0.12,0.18,0.98,0.10,-0.07,0.01,
2.833,0.12,0.18,0.98,0.10,-0.07,0.01,
2.838,0.13,0.19,0.98,0.10,-0.07,0.01,
2.838,0.13,0.19,0.98,0.23,0.02,0.04,
2.839,0.13,0.19,0.98,0.23,0.02,0.04,
2.84,0.13,0.19,0.98,0.26,0.08,0.03,
2.841,0.13,0.20,0.98,0.26,0.08,0.03,
2.844,0.14,0.20,0.98,0.26,0.08,0.03,
2.846,0.15,0.21,0.97,0.26,0.08,0.03,
2.846,0.15,0.21,0.97,0.33,0.14,0.07,
2.848,0.15,0.21,0.97,0.33,0.14,0.07,
2.851,0.16,0.21,0.98,0.33,0.14,0.07,
2.851,0.16,0.21,0.98,0.46,0.24,0.03,
2.855,0.16,0.20,0.99,0.46,0.24,0.03,
2.855,0.16,0.20,0.99,0.52,0.26,0.04,
2.856,0.17,0.20,0.99,0.52,0.26,0.04,
2.858,0.18,0.19,0.99,0.52,0.26,0.04,
2.86,0.18,0.19,0.99,0.52,0.26,0.04,
2.86,0.18,0.19,0.99,0.64,0.16,0.15,
2.863,0.18,0.18,0.99,0.64,0.16,0.15,
2.866,0.18,0.18,0.98,0.64,0.16,0.15,
2.866,0.18,0.18,0.98,0.76,0.09,0.12,
2.868,0.19,0.17,0.92,0.76,0.09,0.12,
2.872,0.21,0.18,0.86,0.76,0.09,0.12,
2.872,0.21,0.18,0.86,0.76,-0.00,0.10,
2.873,0.22,0.18,0.83,0.76,-0.00,0.10,
2.876,0.23,0.18,0.85,0.76,-0.00,0.10,
2.876,0.23,0.18,0.85,0.93,-0.09,-0.85,
2.878,0.22,0.17,0.89,0.93,-0.09,-0.85,
2.881,0.21,0.16,0.95,0.93,-0.09,-0.85,
2.881,0.21,0.16,0.95,1.15,-0.02,-1.29,
2.883,0.18,0.15,1.00,1.15,-0.02,-1.29,
2.885,0.17,0.16,1.02,1.15,-0.02,-1.29,
2.885,0.17,0.16,1.02,1.09,-0.20,-0.50,
2.889,0.16,0.17,1.03,1.09,-0.20,-0.50,
2.892,0.16,0.17,1.03,0.71,-0.28,0.32,
2.893,0.15,0.16,1.06,0.71,-0.28,0.32,
2.893,0.13,0.15,1.08,0.71,-0.28,0.32,
2.895,0.12,0.15,1.09,0.71,-0.28,0.32,
2.895,0.12,0.15,1.09,0.52,-0.16,0.70,
2.898,0.12,0.15,1.09,0.52,-0.16,0.70,
2.9,0.11,0.16,1.09,0.52,-0.16,0.70,
2.901,0.11,0.16,1.09,0.26,-0.27,1.12,
2.902,0.11,0.16,1.09,0.26,-0.27,1.12,
2.909,0.11,0.16,1.08,0.26,-0.27,1.12,
2.91,0.11,0.16,1.08,0.18,-0.25,1.14,
2.91,0.11,0.16,1.08,0.18,-0.25,1.14,
2.91,0.11,0.16,1.08,0.15,-0.19,1.08,
2.91,0.11,0.16,1.07,0.15,-0.19,1.08,
2.925,0.12,0.16,1.06,0.15,-0.19,1.08,
2.926,0.12,0.15,1.05,0.15,-0.19,1.08,
2.926,0.12,0.15,1.05,0.15,-0.21,0.98,
2.927,0.13,0.15,1.03,0.15,-0.21,0.98,
2.927,0.13,0.15,1.03,0.15,-0.21,0.98,
2.927,0.13,0.15,1.03,0.23,-0.27,0.78,
2.927,0.12,0.15,1.02,0.23,-0.27,0.78,
2.927,0.12,0.15,1.02,0.23,-0.27,0.78,
2.928,0.12,0.15,1.02,0.29,-0.32,0.52,
2.928,0.12,0.14,1.01,0.29,-0.32,0.52,
2.943,0.12,0.14,1.02,0.29,-0.32,0.52,
2.943,0.12,0.14,1.02,0.23,-0.36,0.40,
2.944,0.11,0.14,1.02,0.23,-0.36,0.40,
2.944,0.11,0.14,1.02,0.23,-0.36,0.40,
2.944,0.11,0.14,1.02,0.21,-0.42,0.37,
2.944,0.11,0.14,1.02,0.21,-0.42,0.37,
2.945,0.12,0.14,1.02,0.21,-0.42,0.37,
2.945,0.12,0.14,1.02,0.19,-0.48,0.42,
2.945,0.12,0.15,1.01,0.19,-0.48,0.42,
2.945,0.11,0.15,1.01,0.19,-0.48,0.42,
2.945,0.11,0.15,1.01,0.20,-0.45,0.41,
2.969,0.11,0.15,1.01,0.20,-0.45,0.41,
2.969,0.12,0.16,1.01,0.20,-0.45,0.41,
2.97,0.12,0.16,1.01,0.19,-0.37,0.35,
2.97,0.11,0.16,1.01,0.19,-0.37,0.35,
2.97,0.10,0.16,1.02,0.19,-0.37,0.35,
2.97,0.10,0.16,1.02,0.18,-0.35,0.37,
2.971,0.10,0.16,1.02,0.18,-0.35,0.37,
2.971,0.11,0.16,1.02,0.18,-0.35,0.37,
2.971,0.11,0.16,1.02,0.14,-0.30,0.41,
2.971,0.11,0.17,1.02,0.14,-0.30,0.41,
2.972,0.10,0.17,1.02,0.14,-0.30,0.41,
2.972,0.10,0.17,1.02,0.11,-0.26,0.43,
2.974,0.10,0.16,1.02,0.11,-0.26,0.43,
2.975,0.11,0.17,1.03,0.11,-0.26,0.43,
2.975,0.11,0.17,1.03,0.12,-0.21,0.45,
2.975,0.11,0.17,1.02,0.12,-0.21,0.45,
2.976,0.10,0.17,1.02,0.12,-0.21,0.45,
2.977,0.10,0.17,1.02,0.12,-0.22,0.48,
2.977,0.11,0.17,1.02,0.12,-0.22,0.48,
2.979,0.11,0.17,1.01,0.12,-0.22,0.48,
2.979,0.11,0.17,1.01,0.14,-0.18,0.46,
2.982,0.11,0.18,1.02,0.14,-0.18,0.46,
2.984,0.12,0.18,1.01,0.14,-0.18,0.46,
2.984,0.12,0.18,1.01,0.21,-0.17,0.39,
2.988,0.12,0.18,1.01,0.21,-0.17,0.39,
2.989,0.12,0.19,1.01,0.21,-0.17,0.39,
2.989,0.12,0.19,1.01,0.28,-0.11,0.37,
