
time,gFx,gFy,gFz,ax,ay,az,
0.004,0.03,0.20,1.00,-0.04,-0.01,0.11,
0.005,0.03,0.20,1.00,-0.04,-0.01,0.11,
0.005,0.03,0.20,0.99,-0.04,-0.01,0.11,
0.005,0.04,0.21,0.99,-0.04,-0.01,0.11,
0.006,0.04,0.21,0.99,0.04,0.03,0.24,
0.006,0.04,0.21,0.99,0.04,0.03,0.24,
0.006,0.04,0.22,0.99,0.04,0.03,0.24,
0.006,0.04,0.22,0.99,0.10,0.09,0.19,
0.012,0.05,0.22,0.99,0.10,0.09,0.19,
0.012,0.05,0.22,0.98,0.10,0.09,0.19,
0.012,0.05,0.22,0.98,0.15,0.19,0.18,
0.012,0.06,0.22,0.98,0.15,0.19,0.18,
0.021,0.05,0.22,0.99,0.15,0.19,0.18,
0.021,0.05,0.22,0.99,0.25,0.22,0.11,
0.021,0.05,0.22,0.99,0.25,0.22,0.11,
0.021,0.05,0.23,0.98,0.25,0.22,0.11,
0.021,0.05,0.23,0.98,0.30,0.26,0.12,
0.022,0.05,0.22,0.98,0.30,0.26,0.12,
0.025,0.05,0.22,0.99,0.30,0.26,0.12,
0.025,0.05,0.22,0.99,0.28,0.29,0.09,
0.027,0.04,0.23,0.98,0.28,0.29,0.09,
0.03,0.05,0.22,0.98,0.28,0.29,0.09,
0.03,0.05,0.22,0.98,0.25,0.26,0.11,
0.039,0.04,0.22,0.98,0.25,0.26,0.11,
0.04,0.04,0.23,0.97,0.25,0.26,0.11,
0.04,0.04,0.23,0.97,0.23,0.28,0.03,
0.04,0.03,0.22,0.98,0.23,0.28,0.03,
0.04,0.03,0.22,0.97,0.23,0.28,0.03,
0.041,0.03,0.22,0.97,0.18,0.28,0.01,
0.042,0.03,0.22,0.97,0.18,0.28,0.01,
0.045,0.03,0.22,0.97,0.09,0.23,-0.01,
0.045,0.03,0.21,0.96,0.09,0.23,-0.01,
0.047,0.02,0.21,0.95,0.09,0.23,-0.01,
0.06,0.01,0.21,0.92,0.09,0.23,-0.01,
0.06,0.01,0.21,0.92,0.04,0.18,-0.10,
0.06,0.01,0.21,0.92,0.04,0.18,-0.10,
0.061,0.01,0.20,0.90,0.04,0.18,-0.10,
0.061,0.01,0.20,0.90,-0.05,0.13,-0.40,
0.061,0.01,0.20,0.89,-0.05,0.13,-0.40,
0.061,0.01,0.20,0.88,-0.05,0.13,-0.40,
0.061,0.01,0.20,0.88,-0.08,0.06,-0.65,
0.062,0.00,0.20,0.89,-0.08,0.06,-0.65,
0.064,-0.00,0.20,0.89,-0.08,0.06,-0.65,
0.065,-0.00,0.20,0.89,-0.13,0.03,-0.86,
0.072,0.00,0.20,0.90,-0.13,0.03,-0.86,
0.072,0.01,0.20,0.89,-0.13,0.03,-0.86,
0.073,0.01,0.20,0.89,-0.18,0.04,-0.80,
0.073,0.01,0.20,0.90,-0.18,0.04,-0.80,
0.075,0.01,0.21,0.90,-0.18,0.04,-0.80,
0.075,0.01,0.21,0.90,-0.15,0.05,-0.74,
0.077,0.01,0.21,0.90,-0.15,0.05,-0.74,
0.079,0.01,0.21,0.91,-0.15,0.05,-0.74,
0.08,0.01,0.21,0.91,-0.12,0.06,-0.69,
0.081,0.02,0.21,0.90,-0.12,0.06,-0.69,
0.093,0.02,0.21,0.90,-0.09,0.13,-0.65,
0.093,0.02,0.21,0.91,-0.09,0.13,-0.65,
0.093,0.02,0.21,0.91,-0.09,0.13,-0.65,
0.094,0.03,0.21,0.91,-0.09,0.13,-0.65,
0.094,0.03,0.21,0.91,-0.02,0.13,-0.64,
0.094,0.02,0.21,0.91,-0.02,0.13,-0.64,
0.094,0.03,0.21,0.92,-0.02,0.13,-0.64,
0.094,0.03,0.21,0.92,0.03,0.13,-0.58,
0.097,0.03,0.21,0.92,0.03,0.13,-0.58,
0.106,0.03,0.20,0.93,0.03,0.13,-0.58,
0.107,0.03,0.20,0.93,0.05,0.17,-0.56,
0.107,0.03,0.21,0.93,0.05,0.17,-0.56,
0.107,0.03,0.21,0.93,0.05,0.17,-0.56,
0.108,0.03,0.21,0.93,0.05,0.12,-0.47,
0.108,0.03,0.21,0.93,0.05,0.12,-0.47,
0.109,0.03,0.21,0.93,0.09,0.14,-0.39,
0.11,0.04,0.20,0.93,0.09,0.14,-0.39,
0.111,0.03,0.20,0.93,0.09,0.14,-0.39,
0.114,0.04,0.20,0.93,0.09,0.14,-0.39,
0.114,0.04,0.20,0.93,0.13,0.14,-0.40,
0.123,0.05,0.19,0.93,0.13,0.14,-0.40,
0.124,0.05,0.20,0.93,0.13,0.14,-0.40,
0.124,0.05,0.20,0.93,0.18,0.07,-0.38,
0.124,0.05,0.19,0.93,0.18,0.07,-0.38,
0.125,0.05,0.19,0.93,0.18,0.07,-0.38,
0.125,0.05,0.19,0.93,0.26,0.06,-0.39,
0.127,0.05,0.19,0.94,0.26,0.06,-0.39,
0.129,0.05,0.19,0.93,0.26,0.06,-0.39,
0.129,0.05,0.19,0.93,0.28,0.02,-0.35,
0.131,0.05,0.20,0.93,0.28,0.02,-0.35,
0.139,0.05,0.20,0.93,0.33,0.06,-0.35,
0.14,0.05,0.20,0.93,0.33,0.06,-0.35,
0.14,0.05,0.20,0.94,0.33,0.06,-0.35,
0.141,0.05,0.20,0.94,0.33,0.06,-0.35,
0.141,0.05,0.20,0.94,0.32,0.09,-0.35,
0.141,0.05,0.20,0.94,0.32,0.09,-0.35,
0.144,0.05,0.20,0.95,0.32,0.09,-0.35,
0.145,0.05,0.20,0.95,0.32,0.10,-0.28,
0.146,0.05,0.21,0.94,0.32,0.10,-0.28,
0.149,0.05,0.20,0.95,0.32,0.10,-0.28,
0.149,0.05,0.20,0.95,0.28,0.14,-0.24,
0.157,0.06,0.21,0.95,0.28,0.14,-0.24,
0.157,0.06,0.21,0.95,0.28,0.14,-0.24,
0.158,0.06,0.21,0.95,0.29,0.18,-0.22,
0.158,0.06,0.21,0.95,0.29,0.18,-0.22,
0.159,0.06,0.21,0.95,0.33,0.20,-0.20,
0.163,0.06,0.20,0.95,0.33,0.20,-0.20,
0.163,0.06,0.20,0.94,0.33,0.20,-0.20,
0.164,0.06,0.20,0.94,0.32,0.18,-0.19,
0.165,0.06,0.21,0.94,0.32,0.18,-0.19,
0.165,0.07,0.21,0.93,0.32,0.18,-0.19,
0.181,0.07,0.21,0.93,0.32,0.18,-0.19,
0.182,0.07,0.21,0.93,0.34,0.18,-0.24,
0.182,0.06,0.21,0.93,0.34,0.18,-0.24,
0.182,0.06,0.21,0.93,0.34,0.18,-0.24,
0.183,0.06,0.21,0.93,0.39,0.20,-0.36,
0.183,0.07,0.20,0.92,0.39,0.20,-0.36,
0.184,0.07,0.20,0.92,0.39,0.20,-0.36,
0.184,0.07,0.20,0.92,0.36,0.19,-0.39,
0.184,0.06,0.20,0.92,0.36,0.19,-0.39,
0.184,0.06,0.20,0.92,0.40,0.16,-0.47,
0.186,0.06,0.20,0.91,0.40,0.16,-0.47,
0.186,0.06,0.20,0.91,0.40,0.16,-0.47,
0.188,0.06,0.20,0.91,0.40,0.16,-0.47,
0.189,0.06,0.20,0.91,0.36,0.15,-0.50,
0.19,0.06,0.21,0.90,0.36,0.15,-0.50,
0.193,0.06,0.20,0.90,0.36,0.15,-0.50,
0.193,0.06,0.20,0.90,0.34,0.14,-0.58,
0.196,0.06,0.20,0.90,0.34,0.14,-0.58,
0.198,0.06,0.20,0.90,0.34,0.14,-0.58,
0.198,0.06,0.20,0.90,0.31,0.18,-0.60,
0.2,0.06,0.20,0.90,0.31,0.18,-0.60,
0.204,0.06,0.20,0.90,0.31,0.18,-0.60,
0.204,0.06,0.20,0.90,0.31,0.15,-0.64,
0.206,0.06,0.20,0.90,0.31,0.15,-0.64,
0.21,0.06,0.20,0.90,0.33,0.14,-0.64,
0.21,0.07,0.20,0.90,0.33,0.14,-0.64,
0.21,0.07,0.20,0.90,0.33,0.14,-0.64,
0.213,0.06,0.20,0.90,0.33,0.14,-0.64,
0.213,0.06,0.20,0.90,0.35,0.12,-0.61,
0.215,0.07,0.20,0.90,0.35,0.12,-0.61,
0.217,0.07,0.21,0.91,0.35,0.12,-0.61,
0.218,0.07,0.21,0.91,0.34,0.14,-0.62,
0.22,0.06,0.20,0.91,0.34,0.14,-0.62,
0.222,0.06,0.21,0.92,0.34,0.14,-0.62,
0.223,0.06,0.21,0.92,0.37,0.19,-0.55,
0.225,0.06,0.21,0.92,0.37,0.19,-0.55,
0.228,0.06,0.21,0.92,0.37,0.19,-0.55,
0.228,0.06,0.21,0.92,0.32,0.21,-0.47,
0.231,0.06,0.21,0.92,0.32,0.21,-0.47,
0.234,0.06,0.21,0.93,0.32,0.21,-0.47,
0.235,0.06,0.21,0.93,0.31,0.23,-0.38,
0.235,0.05,0.21,0.94,0.31,0.23,-0.38,
0.238,0.05,0.20,0.93,0.31,0.23,-0.38,
0.238,0.05,0.20,0.93,0.28,0.23,-0.37,
0.24,0.04,0.20,0.94,0.28,0.23,-0.37,
0.243,0.05,0.20,0.94,0.28,0.23,-0.37,
0.243,0.05,0.20,0.94,0.22,0.18,-0.27,
0.245,0.04,0.20,0.94,0.22,0.18,-0.27,
0.248,0.04,0.19,0.93,0.22,0.18,-0.27,
0.248,0.04,0.19,0.93,0.15,0.17,-0.23,
0.251,0.04,0.20,0.93,0.15,0.17,-0.23,
0.253,0.04,0.19,0.94,0.15,0.17,-0.23,
0.253,0.04,0.19,0.94,0.13,0.13,-0.25,
0.255,0.04,0.19,0.94,0.13,0.13,-0.25,
0.257,0.04,0.19,0.94,0.11,0.13,-0.27,
0.258,0.03,0.19,0.93,0.11,0.13,-0.27,
0.259,0.03,0.19,0.94,0.11,0.13,-0.27,
0.263,0.04,0.19,0.94,0.11,0.13,-0.27,
0.263,0.04,0.19,0.94,0.07,0.08,-0.26,
0.264,0.04,0.19,0.93,0.07,0.08,-0.26,
0.27,0.04,0.18,0.93,0.07,0.08,-0.26,
0.27,0.04,0.18,0.93,0.07,0.10,-0.26,
0.27,0.04,0.18,0.93,0.07,0.10,-0.26,
0.272,0.05,0.19,0.93,0.07,0.10,-0.26,
0.273,0.05,0.19,0.93,0.12,0.06,-0.29,
0.274,0.04,0.19,0.93,0.12,0.06,-0.29,
0.277,0.05,0.19,0.93,0.12,0.06,-0.29,
0.278,0.05,0.19,0.93,0.17,0.05,-0.30,
0.279,0.06,0.19,0.93,0.17,0.05,-0.30,
0.286,0.06,0.19,0.93,0.21,0.11,-0.31,
0.287,0.06,0.19,0.93,0.21,0.11,-0.31,
0.287,0.07,0.18,0.93,0.21,0.11,-0.31,
0.287,0.08,0.18,0.92,0.21,0.11,-0.31,
0.287,0.08,0.18,0.92,0.29,0.09,-0.29,
0.289,0.08,0.18,0.92,0.29,0.09,-0.29,
0.291,0.08,0.18,0.92,0.42,0.06,-0.36,
0.292,0.08,0.18,0.92,0.42,0.06,-0.36,
0.294,0.08,0.18,0.93,0.42,0.06,-0.36,
0.297,0.09,0.18,0.92,0.42,0.06,-0.36,
0.297,0.09,0.18,0.92,0.47,0.05,-0.38,
0.299,0.09,0.17,0.92,0.47,0.05,-0.38,
0.301,0.10,0.18,0.92,0.47,0.05,-0.38,
0.302,0.10,0.18,0.92,0.53,0.00,-0.37,
0.304,0.10,0.18,0.91,0.53,0.00,-0.37,
0.306,0.10,0.18,0.91,0.63,-0.01,-0.41,
0.307,0.10,0.17,0.91,0.63,-0.01,-0.41,
0.309,0.11,0.17,0.92,0.63,-0.01,-0.41,
0.312,0.11,0.17,0.90,0.63,-0.01,-0.41,
0.313,0.11,0.17,0.90,0.69,-0.00,-0.46,
0.314,0.12,0.17,0.91,0.69,-0.00,-0.46,
0.317,0.12,0.16,0.91,0.69,-0.00,-0.46,
0.318,0.12,0.16,0.91,0.76,-0.05,-0.49,
0.319,0.12,0.16,0.90,0.76,-0.05,-0.49,
0.322,0.12,0.16,0.90,0.76,-0.05,-0.49,
0.322,0.12,0.16,0.90,0.85,-0.07,-0.52,
0.325,0.12,0.16,0.90,0.85,-0.07,-0.52,
0.327,0.12,0.16,0.90,0.85,-0.07,-0.52,
0.327,0.12,0.16,0.90,0.88,-0.08,-0.57,
0.329,0.12,0.17,0.90,0.88,-0.08,-0.57,
0.332,0.12,0.17,0.90,0.87,-0.08,-0.57,
0.332,0.11,0.17,0.91,0.87,-0.08,-0.57,
0.334,0.11,0.17,0.91,0.87,-0.08,-0.57,
0.337,0.11,0.17,0.91,0.87,-0.08,-0.57,
0.337,0.11,0.17,0.91,0.79,-0.04,-0.52,
0.338,0.10,0.17,0.92,0.79,-0.04,-0.52,
0.342,0.10,0.17,0.92,0.79,-0.04,-0.52,
0.342,0.10,0.17,0.92,0.72,0.03,-0.44,
0.344,0.09,0.18,0.92,0.72,0.03,-0.44,
0.347,0.09,0.18,0.92,0.72,0.03,-0.44,
0.347,0.09,0.18,0.92,0.61,0.06,-0.37,
0.349,0.09,0.17,0.93,0.61,0.06,-0.37,
0.351,0.09,0.17,0.94,0.61,0.06,-0.37,
0.351,0.09,0.17,0.94,0.58,0.13,-0.34,
0.354,0.09,0.17,0.94,0.58,0.13,-0.34,
0.356,0.09,0.17,0.94,0.59,0.08,-0.26,
0.357,0.09,0.17,0.94,0.59,0.08,-0.26,
0.359,0.10,0.17,0.94,0.59,0.08,-0.26,
0.362,0.10,0.16,0.95,0.59,0.08,-0.26,
0.362,0.10,0.16,0.95,0.59,0.04,-0.20,
0.364,0.10,0.16,0.95,0.59,0.04,-0.20,
0.37,0.10,0.16,0.95,0.59,0.04,-0.20,
0.371,0.10,0.16,0.95,0.62,0.03,-0.12,
0.371,0.10,0.16,0.95,0.62,0.03,-0.12,
0.371,0.11,0.15,0.96,0.62,0.03,-0.12,
0.371,0.11,0.15,0.96,0.65,-0.02,-0.06,
0.373,0.11,0.15,0.96,0.65,-0.02,-0.06,
0.376,0.12,0.15,0.96,0.65,-0.02,-0.06,
0.376,0.12,0.15,0.96,0.71,-0.03,-0.05,
0.378,0.12,0.16,0.96,0.71,-0.03,-0.05,
0.381,0.12,0.16,0.96,0.76,-0.08,0.01,
0.381,0.11,0.16,0.96,0.76,-0.08,0.01,
0.383,0.12,0.16,0.96,0.76,-0.08,0.01,
0.385,0.12,0.16,0.96,0.76,-0.08,0.01,
0.386,0.12,0.16,0.96,0.80,-0.02,0.02,
0.388,0.12,0.16,0.96,0.80,-0.02,0.02,
0.391,0.12,0.16,0.97,0.80,-0.02,0.02,
0.392,0.12,0.16,0.97,0.81,0.00,0.01,
0.394,0.12,0.17,0.97,0.81,0.00,0.01,
0.396,0.12,0.17,0.97,0.81,0.02,0.07,
0.396,0.12,0.17,0.96,0.81,0.02,0.07,
0.398,0.13,0.17,0.97,0.81,0.02,0.07,
0.401,0.13,0.18,0.97,0.81,0.02,0.07,
0.401,0.13,0.18,0.97,0.84,0.13,0.05,
0.403,0.13,0.18,0.96,0.84,0.13,0.05,
0.406,0.13,0.17,0.96,0.84,0.13,0.05,
0.406,0.13,0.17,0.96,0.90,0.21,0.05,
0.408,0.13,0.18,0.96,0.90,0.21,0.05,
0.41,0.13,0.18,0.95,0.90,0.21,0.05,
0.411,0.13,0.18,0.95,0.93,0.21,-0.01,
0.413,0.13,0.18,0.95,0.93,0.21,-0.01,
0.417,0.14,0.18,0.95,0.93,0.21,-0.01,
0.418,0.14,0.18,0.95,0.95,0.26,-0.04,
0.418,0.14,0.18,0.95,0.95,0.26,-0.04,
0.421,0.14,0.18,0.95,0.95,0.26,-0.04,
0.421,0.14,0.18,0.95,0.99,0.27,-0.10,
0.422,0.15,0.18,0.95,0.99,0.27,-0.10,
0.425,0.15,0.18,0.94,0.99,0.27,-0.10,
0.425,0.15,0.18,0.94,1.03,0.29,-0.13,
0.427,0.14,0.19,0.94,1.03,0.29,-0.13,
0.43,0.14,0.19,0.94,1.09,0.31,-0.17,
0.43,0.14,0.18,0.94,1.09,0.31,-0.17,
0.434,0.14,0.18,0.94,1.09,0.31,-0.17,
0.435,0.14,0.18,0.94,1.09,0.31,-0.17,
0.435,0.14,0.18,0.94,1.05,0.34,-0.24,
0.437,0.14,0.17,0.93,1.05,0.34,-0.24,
0.44,0.14,0.17,0.93,1.05,0.34,-0.24,
0.44,0.14,0.17,0.93,1.01,0.27,-0.21,
0.442,0.14,0.16,0.94,1.01,0.27,-0.21,
0.445,0.15,0.16,0.93,1.01,0.27,-0.21,
0.445,0.15,0.16,0.93,1.05,0.22,-0.31,
0.447,0.14,0.15,0.93,1.05,0.22,-0.31,
0.45,0.14,0.14,0.93,1.05,0.22,-0.31,
0.451,0.14,0.14,0.93,1.07,0.09,-0.24,
0.452,0.14,0.13,0.94,1.07,0.09,-0.24,
0.455,0.14,0.13,0.94,1.03,-0.02,-0.27,
0.456,0.13,0.13,0.93,1.03,-0.02,-0.27,
0.457,0.13,0.12,0.94,1.03,-0.02,-0.27,
0.46,0.13,0.12,0.94,1.03,-0.02,-0.27,
0.46,0.13,0.12,0.94,0.98,-0.14,-0.26,
0.462,0.12,0.11,0.95,0.98,-0.14,-0.26,
0.465,0.12,0.11,0.96,0.98,-0.14,-0.26,
0.465,0.12,0.11,0.96,0.90,-0.23,-0.21,
0.467,0.11,0.10,0.96,0.90,-0.23,-0.21,
0.47,0.11,0.10,0.96,0.90,-0.23,-0.21,
0.47,0.11,0.10,0.96,0.82,-0.34,-0.07,
0.472,0.10,0.09,0.97,0.82,-0.34,-0.07,
0.475,0.10,0.09,0.97,0.71,-0.41,-0.01,
0.475,0.09,0.09,0.98,0.71,-0.41,-0.01,
0.477,0.08,0.08,0.98,0.71,-0.41,-0.01,
0.479,0.08,0.08,0.98,0.57,-0.48,0.12,
0.48,0.08,0.08,0.98,0.57,-0.48,0.12,
0.482,0.08,0.07,0.98,0.57,-0.48,0.12,
0.49,0.07,0.07,0.98,0.57,-0.48,0.12,
0.491,0.07,0.07,0.98,0.44,-0.57,0.18,
0.492,0.07,0.07,0.99,0.44,-0.57,0.18,
0.495,0.07,0.07,0.99,0.38,-0.64,0.17,
0.496,0.07,0.07,0.98,0.38,-0.64,0.17,
0.496,0.06,0.06,0.98,0.38,-0.64,0.17,
0.496,0.06,0.06,0.98,0.38,-0.64,0.17,
0.496,0.06,0.06,0.98,0.31,-0.65,0.22,
0.497,0.06,0.06,0.97,0.31,-0.65,0.22,
0.5,0.06,0.06,0.97,0.31,-0.65,0.22,
0.5,0.06,0.06,0.97,0.28,-0.71,0.16,
0.503,0.05,0.06,0.97,0.28,-0.71,0.16,
0.505,0.05,0.06,0.97,0.25,-0.67,0.05,
0.505,0.06,0.07,0.96,0.25,-0.67,0.05,
0.507,0.05,0.07,0.96,0.25,-0.67,0.05,
0.51,0.05,0.07,0.95,0.25,-0.67,0.05,
0.51,0.05,0.07,0.95,0.23,-0.65,0.00,
0.512,0.05,0.07,0.95,0.23,-0.65,0.00,
0.515,0.05,0.08,0.94,0.23,-0.65,0.00,
0.515,0.05,0.08,0.94,0.20,-0.59,-0.08,
0.517,0.05,0.09,0.93,0.20,-0.59,-0.08,
0.52,0.06,0.09,0.93,0.20,-0.59,-0.08,
0.52,0.06,0.09,0.93,0.22,-0.52,-0.21,
0.523,0.05,0.10,0.93,0.22,-0.52,-0.21,
0.525,0.05,0.10,0.92,0.22,-0.52,-0.21,
0.525,0.05,0.10,0.92,0.26,-0.38,-0.30,
0.527,0.05,0.10,0.92,0.26,-0.38,-0.30,
0.53,0.05,0.10,0.92,0.23,-0.28,-0.36,
0.53,0.06,0.11,0.92,0.23,-0.28,-0.36,
0.532,0.06,0.11,0.91,0.23,-0.28,-0.36,
0.534,0.06,0.11,0.91,0.25,-0.23,-0.40,
0.535,0.07,0.11,0.91,0.25,-0.23,-0.40,
0.537,0.06,0.11,0.91,0.25,-0.23,-0.40,
0.539,0.06,0.12,0.91,0.25,-0.23,-0.40,
0.54,0.06,0.12,0.91,0.35,-0.16,-0.49,
0.541,0.07,0.12,0.90,0.35,-0.16,-0.49,
0.544,0.07,0.12,0.90,0.36,-0.09,-0.54,
0.544,0.07,0.12,0.90,0.36,-0.09,-0.54,
0.547,0.07,0.12,0.89,0.36,-0.09,-0.54,
0.549,0.07,0.12,0.89,0.36,-0.09,-0.54,
0.55,0.07,0.12,0.89,0.40,-0.04,-0.63,
0.551,0.07,0.13,0.89,0.40,-0.04,-0.63,
0.554,0.07,0.13,0.89,0.40,-0.02,-0.67,
0.555,0.06,0.13,0.88,0.40,-0.02,-0.67,
0.556,0.07,0.13,0.88,0.40,-0.02,-0.67,
0.56,0.06,0.13,0.87,0.40,-0.02,-0.67,
0.56,0.06,0.13,0.87,0.38,0.05,-0.73,
0.562,0.06,0.12,0.87,0.38,0.05,-0.73,
0.565,0.06,0.12,0.87,0.38,0.05,-0.73,
0.565,0.06,0.12,0.87,0.38,0.05,-0.81,
0.571,0.06,0.12,0.86,0.38,0.05,-0.81,
0.571,0.05,0.11,0.86,0.38,0.05,-0.81,
0.571,0.05,0.11,0.86,0.33,-0.01,-0.88,
0.571,0.05,0.10,0.86,0.33,-0.01,-0.88,
0.574,0.05,0.10,0.86,0.33,-0.01,-0.88,
0.574,0.05,0.10,0.86,0.32,-0.08,-0.93,
0.576,0.05,0.09,0.85,0.32,-0.08,-0.93,
0.58,0.05,0.09,0.85,0.27,-0.15,-0.97,
0.58,0.04,0.08,0.86,0.27,-0.15,-0.97,
0.581,0.03,0.08,0.86,0.27,-0.15,-0.97,
0.584,0.02,0.07,0.85,0.27,-0.15,-0.97,
0.584,0.02,0.07,0.85,0.19,-0.31,-1.00,
0.586,0.01,0.07,0.85,0.19,-0.31,-1.00,
0.589,0.01,0.06,0.84,0.19,-0.31,-1.00,
0.589,0.01,0.06,0.84,0.05,-0.37,-1.02,
0.591,-0.00,0.06,0.84,0.05,-0.37,-1.02,
0.594,-0.01,0.05,0.83,0.05,-0.37,-1.02,
0.595,-0.01,0.05,0.83,-0.12,-0.46,-1.11,
0.597,-0.02,0.05,0.83,-0.12,-0.46,-1.11,
0.599,-0.03,0.05,0.82,-0.12,-0.46,-1.11,
0.599,-0.03,0.05,0.82,-0.25,-0.57,-1.17,
0.602,-0.04,0.04,0.82,-0.25,-0.57,-1.17,
0.604,-0.05,0.05,0.81,-0.25,-0.57,-1.17,
0.605,-0.05,0.05,0.81,-0.41,-0.57,-1.26,
0.606,-0.05,0.05,0.81,-0.41,-0.57,-1.26,
0.609,-0.06,0.05,0.81,-0.41,-0.57,-1.26,
0.609,-0.06,0.05,0.81,-0.62,-0.62,-1.34,
0.612,-0.06,0.05,0.80,-0.62,-0.62,-1.34,
0.614,-0.07,0.06,0.80,-0.62,-0.62,-1.34,
0.614,-0.07,0.06,0.80,-0.75,-0.58,-1.40,
0.616,-0.07,0.07,0.80,-0.75,-0.58,-1.40,
0.618,-0.07,0.07,0.80,-0.88,-0.47,-1.48,
0.619,-0.08,0.07,0.79,-0.88,-0.47,-1.48,
0.621,-0.08,0.08,0.80,-0.88,-0.47,-1.48,
0.624,-0.08,0.09,0.80,-0.88,-0.47,-1.48,
0.624,-0.08,0.09,0.80,-0.97,-0.36,-1.50,
0.626,-0.09,0.09,0.80,-0.97,-0.36,-1.50,
0.629,-0.09,0.09,0.80,-1.05,-0.22,-1.48,
0.63,-0.09,0.09,0.80,-1.05,-0.22,-1.48,
0.631,-0.09,0.10,0.81,-1.05,-0.22,-1.48,
0.634,-0.09,0.10,0.81,-1.05,-0.22,-1.48,
0.634,-0.09,0.10,0.81,-1.16,-0.14,-1.46,
0.636,-0.09,0.10,0.81,-1.16,-0.14,-1.46,
0.638,-0.10,0.10,0.81,-1.16,-0.14,-1.46,
0.639,-0.10,0.10,0.81,-1.20,-0.06,-1.38,
0.642,-0.10,0.10,0.82,-1.20,-0.06,-1.38,
0.644,-0.10,0.10,0.83,-1.20,-0.06,-1.38,
0.645,-0.10,0.10,0.83,-1.25,-0.03,-1.32,
0.646,-0.10,0.10,0.84,-1.25,-0.03,-1.32,
0.649,-0.10,0.09,0.84,-1.25,-0.03,-1.32,
0.649,-0.10,0.09,0.84,-1.29,-0.02,-1.20,
0.652,-0.10,0.09,0.85,-1.29,-0.02,-1.20,
0.654,-0.10,0.09,0.85,-1.33,-0.06,-1.02,
0.657,-0.09,0.08,0.86,-1.33,-0.06,-1.02,
0.657,-0.09,0.07,0.86,-1.33,-0.06,-1.02,
0.659,-0.09,0.07,0.87,-1.33,-0.06,-1.02,
0.659,-0.09,0.07,0.87,-1.32,-0.16,-0.91,
0.661,-0.10,0.06,0.87,-1.32,-0.16,-0.91,
0.664,-0.09,0.05,0.88,-1.32,-0.16,-0.91,
0.664,-0.09,0.05,0.88,-1.32,-0.27,-0.80,
0.666,-0.09,0.05,0.89,-1.32,-0.27,-0.80,
0.669,-0.09,0.05,0.90,-1.32,-0.27,-0.80,
0.67,-0.09,0.05,0.90,-1.36,-0.37,-0.66,
0.67,-0.10,0.04,0.90,-1.36,-0.37,-0.66,
0.673,-0.09,0.03,0.91,-1.36,-0.37,-0.66,
0.673,-0.09,0.03,0.91,-1.37,-0.45,-0.52,
0.676,-0.10,0.02,0.91,-1.37,-0.45,-0.52,
0.678,-0.10,0.02,0.91,-1.42,-0.57,-0.41,
0.678,-0.10,0.01,0.91,-1.42,-0.57,-0.41,
0.68,-0.11,0.01,0.92,-1.42,-0.57,-0.41,
0.682,-0.11,-0.00,0.93,-1.42,-0.57,-0.41,
0.683,-0.11,-0.00,0.93,-1.50,-0.67,-0.30,
0.685,-0.11,-0.00,0.93,-1.50,-0.67,-0.30,
0.687,-0.11,-0.01,0.93,-1.50,-0.67,-0.30,
0.688,-0.11,-0.01,0.93,-1.57,-0.78,-0.20,
0.689,-0.11,-0.01,0.94,-1.57,-0.78,-0.20,
0.692,-0.12,-0.01,0.94,-1.57,-0.78,-0.20,
0.693,-0.12,-0.01,0.94,-1.62,-0.83,-0.12,
0.694,-0.12,-0.01,0.94,-1.62,-0.83,-0.12,
0.698,-0.12,-0.01,0.93,-1.62,-0.83,-0.12,
0.698,-0.12,-0.01,0.93,-1.69,-0.84,-0.08,
0.699,-0.13,-0.01,0.94,-1.69,-0.84,-0.08,
0.706,-0.13,-0.01,0.94,-1.76,-0.80,-0.11,
0.707,-0.13,-0.01,0.94,-1.76,-0.80,-0.11,
0.707,-0.14,-0.00,0.93,-1.76,-0.80,-0.11,
0.708,-0.14,0.00,0.94,-1.76,-0.80,-0.11,
0.708,-0.14,0.00,0.94,-1.82,-0.74,-0.08,
0.71,-0.14,0.00,0.94,-1.82,-0.74,-0.08,
0.712,-0.14,0.00,0.94,-1.89,-0.64,-0.08,
0.713,-0.14,0.01,0.94,-1.89,-0.64,-0.08,
0.715,-0.14,0.01,0.95,-1.89,-0.64,-0.08,
0.718,-0.14,0.02,0.95,-1.89,-0.64,-0.08,
0.719,-0.14,0.02,0.95,-1.94,-0.53,-0.07,
0.719,-0.14,0.02,0.95,-1.94,-0.53,-0.07,
0.722,-0.14,0.02,0.96,-1.94,-0.53,-0.07,
0.722,-0.14,0.02,0.96,-1.98,-0.43,0.01,
0.724,-0.14,0.02,0.96,-1.98,-0.43,0.01,
0.727,-0.14,0.02,0.96,-1.98,-0.35,0.07,
0.727,-0.13,0.01,0.96,-1.98,-0.35,0.07,
0.729,-0.13,0.02,0.96,-1.98,-0.35,0.07,
0.732,-0.13,0.01,0.97,-1.98,-0.35,0.07,
0.732,-0.13,0.01,0.97,-1.93,-0.35,0.09,
0.737,-0.12,0.01,0.96,-1.93,-0.35,0.09,
0.738,-0.11,0.01,0.96,-1.93,-0.35,0.09,
0.738,-0.11,0.01,0.96,-1.89,-0.33,0.19,
0.739,-0.11,0.00,0.96,-1.89,-0.33,0.19,
0.742,-0.11,-0.00,0.98,-1.89,-0.33,0.19,
0.742,-0.11,-0.00,0.98,-1.78,-0.37,0.16,
0.744,-0.10,0.00,0.98,-1.78,-0.37,0.16,
0.747,-0.10,-0.00,0.99,-1.78,-0.37,0.16,
0.747,-0.10,-0.00,0.99,-1.70,-0.40,0.24,
0.749,-0.10,-0.01,0.99,-1.70,-0.40,0.24,
0.753,-0.10,-0.01,0.99,-1.70,-0.40,0.24,
0.754,-0.10,-0.01,0.99,-1.67,-0.39,0.36,
0.754,-0.10,-0.01,1.00,-1.67,-0.39,0.36,
0.757,-0.10,-0.01,1.00,-1.67,-0.39,0.36,
0.757,-0.10,-0.01,1.00,-1.64,-0.44,0.45,
0.759,-0.10,-0.02,1.01,-1.64,-0.44,0.45,
0.761,-0.11,-0.02,1.01,-1.64,-0.44,0.45,
0.762,-0.11,-0.02,1.01,-1.69,-0.45,0.51,
0.764,-0.11,-0.02,1.02,-1.69,-0.45,0.51,
0.768,-0.12,-0.03,1.02,-1.69,-0.45,0.51,
0.768,-0.12,-0.03,1.02,-1.75,-0.52,0.62,
0.77,-0.12,-0.03,1.03,-1.75,-0.52,0.62,
0.771,-0.13,-0.04,1.04,-1.75,-0.52,0.62,
0.772,-0.13,-0.04,1.04,-1.88,-0.53,0.72,
0.774,-0.13,-0.04,1.04,-1.88,-0.53,0.72,
0.776,-0.13,-0.04,1.04,-1.98,-0.57,0.86,
0.777,-0.13,-0.04,1.05,-1.98,-0.57,0.86,
0.778,-0.13,-0.05,1.05,-1.98,-0.57,0.86,
0.781,-0.14,-0.06,1.06,-1.98,-0.57,0.86,
0.782,-0.14,-0.06,1.06,-2.06,-0.61,0.96,
0.783,-0.14,-0.06,1.07,-2.06,-0.61,0.96,
0.787,-0.15,-0.06,1.07,-2.06,-0.61,0.96,
0.788,-0.15,-0.06,1.07,-2.15,-0.68,1.05,
0.789,-0.15,-0.06,1.07,-2.15,-0.68,1.05,
0.791,-0.15,-0.07,1.07,-2.15,-0.68,1.05,
0.792,-0.15,-0.07,1.07,-2.23,-0.74,1.18,
0.794,-0.16,-0.08,1.08,-2.23,-0.74,1.18,
0.796,-0.16,-0.09,1.07,-2.23,-0.74,1.18,
0.797,-0.16,-0.09,1.07,-2.33,-0.78,1.23,
0.798,-0.17,-0.10,1.08,-2.33,-0.78,1.23,
0.807,-0.17,-0.10,1.08,-2.43,-0.89,1.25,
0.807,-0.17,-0.10,1.08,-2.43,-0.89,1.25,
0.808,-0.17,-0.11,1.08,-2.43,-0.89,1.25,
0.808,-0.18,-0.12,1.09,-2.43,-0.89,1.25,
0.808,-0.18,-0.12,1.09,-2.53,-1.01,1.33,
0.808,-0.18,-0.12,1.09,-2.53,-1.01,1.33,
0.811,-0.18,-0.13,1.09,-2.53,-1.01,1.33,
0.811,-0.18,-0.13,1.09,-2.57,-1.10,1.35,
0.813,-0.19,-0.14,1.09,-2.57,-1.10,1.35,
0.816,-0.19,-0.14,1.09,-2.57,-1.10,1.35,
0.816,-0.19,-0.14,1.09,-2.64,-1.21,1.36,
0.821,-0.19,-0.14,1.09,-2.64,-1.21,1.36,
0.821,-0.20,-0.14,1.09,-2.64,-1.21,1.36,
0.821,-0.20,-0.14,1.09,-2.74,-1.27,1.37,
0.823,-0.20,-0.15,1.10,-2.74,-1.27,1.37,
0.826,-0.20,-0.15,1.10,-2.82,-1.30,1.42,
0.827,-0.20,-0.15,1.10,-2.82,-1.30,1.42,
0.828,-0.20,-0.15,1.10,-2.82,-1.30,1.42,
0.831,-0.21,-0.16,1.11,-2.82,-1.30,1.42,
0.831,-0.21,-0.16,1.11,-2.91,-1.32,1.48,
0.833,-0.21,-0.15,1.11,-2.91,-1.32,1.48,
0.836,-0.21,-0.15,1.12,-2.91,-1.32,1.48,
0.838,-0.21,-0.15,1.12,-2.94,-1.34,1.54,
0.838,-0.21,-0.15,1.11,-2.94,-1.34,1.54,
0.841,-0.21,-0.16,1.12,-2.94,-1.34,1.54,
0.841,-0.21,-0.16,1.12,-2.99,-1.27,1.61,
0.844,-0.20,-0.16,1.12,-2.99,-1.27,1.61,
0.846,-0.19,-0.15,1.12,-2.99,-1.27,1.61,
0.847,-0.19,-0.15,1.12,-3.00,-1.29,1.60,
0.85,-0.19,-0.15,1.13,-3.00,-1.29,1.60,
0.852,-0.19,-0.15,1.13,-2.90,-1.24,1.69,
0.852,-0.18,-0.16,1.13,-2.90,-1.24,1.69,
0.854,-0.18,-0.15,1.13,-2.90,-1.24,1.69,
0.856,-0.16,-0.15,1.14,-2.90,-1.24,1.69,
0.856,-0.16,-0.15,1.14,-2.82,-1.20,1.77,
0.859,-0.16,-0.15,1.14,-2.82,-1.20,1.77,
0.861,-0.15,-0.15,1.15,-2.82,-1.20,1.77,
0.862,-0.15,-0.15,1.15,-2.67,-1.15,1.79,
0.864,-0.14,-0.14,1.16,-2.67,-1.15,1.79,
0.866,-0.13,-0.14,1.17,-2.67,-1.15,1.79,
0.867,-0.13,-0.14,1.17,-2.53,-1.06,1.93,
0.868,-0.12,-0.13,1.17,-2.53,-1.06,1.93,
0.871,-0.12,-0.13,1.18,-2.53,-1.06,1.93,
0.871,-0.12,-0.13,1.18,-2.39,-0.95,2.07,
0.873,-0.11,-0.13,1.18,-2.39,-0.95,2.07,
0.876,-0.11,-0.13,1.18,-2.24,-0.84,2.22,
0.876,-0.10,-0.13,1.19,-2.24,-0.84,2.22,
0.878,-0.09,-0.13,1.20,-2.24,-0.84,2.22,
0.881,-0.08,-0.13,1.21,-2.24,-0.84,2.22,
0.881,-0.08,-0.13,1.21,-2.11,-0.80,2.30,
0.884,-0.08,-0.12,1.21,-2.11,-0.80,2.30,
0.886,-0.08,-0.12,1.21,-2.11,-0.80,2.30,
0.886,-0.08,-0.12,1.21,-1.95,-0.73,2.49,
0.888,-0.07,-0.12,1.21,-1.95,-0.73,2.49,
0.891,-0.07,-0.11,1.21,-1.95,-0.73,2.49,
0.892,-0.07,-0.11,1.21,-1.87,-0.65,2.52,
0.894,-0.07,-0.12,1.21,-1.87,-0.65,2.52,
0.896,-0.07,-0.12,1.21,-1.87,-0.65,2.52,
0.896,-0.07,-0.12,1.21,-1.83,-0.55,2.54,
0.898,-0.07,-0.11,1.20,-1.83,-0.55,2.54,
0.9,-0.07,-0.11,1.20,-1.81,-0.51,2.49,
0.901,-0.07,-0.12,1.20,-1.81,-0.51,2.49,
0.903,-0.07,-0.12,1.20,-1.81,-0.51,2.49,
0.906,-0.07,-0.12,1.19,-1.81,-0.51,2.49,
0.906,-0.07,-0.12,1.19,-1.82,-0.46,2.44,
0.908,-0.07,-0.12,1.18,-1.82,-0.46,2.44,
0.911,-0.07,-0.12,1.18,-1.82,-0.46,2.44,
0.911,-0.07,-0.12,1.18,-1.79,-0.46,2.37,
0.913,-0.07,-0.13,1.17,-1.79,-0.46,2.37,
0.917,-0.08,-0.13,1.17,-1.79,-0.46,2.37,
0.917,-0.08,-0.13,1.17,-1.78,-0.45,2.21,
0.923,-0.07,-0.14,1.16,-1.78,-0.45,2.21,
0.924,-0.08,-0.14,1.16,-1.78,-0.45,2.21,
0.924,-0.08,-0.14,1.16,-1.85,-0.52,2.10,
0.924,-0.08,-0.15,1.15,-1.85,-0.52,2.10,
0.925,-0.08,-0.15,1.15,-1.84,-0.57,2.01,
0.925,-0.09,-0.15,1.15,-1.84,-0.57,2.01,
0.927,-0.09,-0.16,1.15,-1.84,-0.57,2.01,
0.931,-0.09,-0.16,1.14,-1.84,-0.57,2.01,
0.931,-0.09,-0.16,1.14,-1.92,-0.65,1.90,
0.933,-0.09,-0.16,1.14,-1.92,-0.65,1.90,
0.937,-0.09,-0.16,1.14,-1.96,-0.72,1.86,
0.937,-0.09,-0.16,1.14,-1.96,-0.72,1.86,
0.937,-0.08,-0.17,1.14,-1.96,-0.72,1.86,
0.94,-0.08,-0.17,1.14,-1.96,-0.71,1.78,
0.941,-0.08,-0.17,1.14,-1.96,-0.71,1.78,
0.943,-0.08,-0.16,1.15,-1.96,-0.71,1.78,
0.946,-0.08,-0.16,1.15,-1.90,-0.73,1.80,
0.946,-0.08,-0.16,1.15,-1.90,-0.73,1.80,
0.947,-0.08,-0.16,1.15,-1.90,-0.73,1.80,
0.95,-0.08,-0.16,1.15,-1.85,-0.64,1.86,
0.95,-0.07,-0.16,1.16,-1.85,-0.64,1.86,
0.953,-0.05,-0.16,1.16,-1.85,-0.64,1.86,
0.955,-0.05,-0.15,1.18,-1.85,-0.64,1.86,
0.956,-0.05,-0.15,1.18,-1.81,-0.64,1.92,
0.957,-0.04,-0.15,1.19,-1.81,-0.64,1.92,
0.96,-0.04,-0.15,1.19,-1.62,-0.54,2.11,
0.96,-0.03,-0.14,1.19,-1.62,-0.54,2.11,
0.962,-0.02,-0.14,1.20,-1.62,-0.54,2.11,
0.965,-0.01,-0.13,1.21,-1.62,-0.54,2.11,
0.965,-0.01,-0.13,1.21,-1.45,-0.45,2.28,
0.967,-0.01,-0.13,1.22,-1.45,-0.45,2.28,
0.97,0.00,-0.13,1.22,-1.45,-0.45,2.28,
0.97,0.00,-0.13,1.22,-1.32,-0.32,2.45,
0.972,0.01,-0.12,1.22,-1.32,-0.32,2.45,
0.975,0.01,-0.12,1.22,-1.20,-0.23,2.54,
0.975,0.02,-0.11,1.23,-1.20,-0.23,2.54,
0.977,0.03,-0.12,1.22,-1.20,-0.23,2.54,
0.979,0.03,-0.12,1.23,-1.20,-0.23,2.54,
0.98,0.03,-0.12,1.23,-1.06,-0.09,2.60,
0.982,0.03,-0.11,1.22,-1.06,-0.09,2.60,
0.986,0.04,-0.11,1.21,-1.06,-0.09,2.60,
0.986,0.04,-0.11,1.21,-0.92,-0.09,2.61,
0.99,0.04,-0.11,1.21,-0.92,-0.09,2.61,
0.991,0.03,-0.11,1.20,-0.92,-0.09,2.61,
0.991,0.03,-0.11,1.20,-0.89,-0.02,2.53,
0.992,0.04,-0.11,1.19,-0.89,-0.02,2.53,
0.995,0.04,-0.11,1.18,-0.89,-0.02,2.53,
0.996,0.04,-0.11,1.18,-0.84,0.04,2.44,
0.998,0.03,-0.11,1.17,-0.84,0.04,2.44,
1.0,0.03,-0.11,1.17,-0.83,0.01,2.22,
1.001,0.03,-0.11,1.16,-0.83,0.01,2.22,
1.003,0.03,-0.12,1.15,-0.83,0.01,2.22,
1.008,0.02,-0.13,1.14,-0.83,0.01,2.22,
1.008,0.02,-0.13,1.14,-0.87,0.01,2.01,
1.009,0.02,-0.13,1.13,-0.87,0.01,2.01,
1.01,0.02,-0.13,1.13,-0.89,-0.10,1.78,
1.011,0.02,-0.14,1.11,-0.89,-0.10,1.78,
1.013,0.02,-0.14,1.10,-0.89,-0.10,1.78,
1.015,0.02,-0.15,1.09,-0.89,-0.10,1.78,
1.016,0.02,-0.15,1.09,-0.95,-0.18,1.53,
1.017,0.01,-0.16,1.08,-0.95,-0.18,1.53,
1.02,0.01,-0.17,1.06,-0.95,-0.18,1.53,
1.02,0.01,-0.17,1.06,-0.96,-0.29,1.26,
1.022,0.00,-0.18,1.05,-0.96,-0.29,1.26,
1.026,0.00,-0.18,1.05,-1.00,-0.47,1.05,
1.026,-0.00,-0.19,1.05,-1.00,-0.47,1.05,
1.026,-0.01,-0.18,1.05,-1.00,-0.47,1.05,
1.03,-0.02,-0.19,1.04,-1.00,-0.47,1.05,
1.03,-0.02,-0.19,1.04,-1.08,-0.62,0.87,
1.032,-0.01,-0.19,1.04,-1.08,-0.62,0.87,
1.035,-0.01,-0.19,1.04,-1.08,-0.62,0.87,
1.035,-0.01,-0.19,1.04,-1.19,-0.65,0.78,
1.042,-0.02,-0.19,1.05,-1.19,-0.65,0.78,
1.042,-0.02,-0.19,1.05,-1.19,-0.65,0.78,
1.043,-0.02,-0.19,1.05,-1.18,-0.63,0.74,
1.043,-0.02,-0.18,1.06,-1.18,-0.63,0.74,
1.045,-0.01,-0.18,1.07,-1.18,-0.63,0.74,
1.045,-0.01,-0.18,1.07,-1.24,-0.64,0.84,
1.046,-0.02,-0.17,1.08,-1.24,-0.64,0.84,
1.049,-0.02,-0.17,1.08,-1.20,-0.54,1.01,
1.05,-0.01,-0.16,1.09,-1.20,-0.54,1.01,
1.052,-0.01,-0.16,1.10,-1.20,-0.54,1.01,
1.054,-0.00,-0.15,1.11,-1.20,-0.54,1.01,
1.055,-0.00,-0.15,1.11,-1.18,-0.41,1.18,
1.057,0.00,-0.15,1.12,-1.18,-0.41,1.18,
1.059,0.01,-0.15,1.13,-1.18,-0.41,1.18,
1.06,0.01,-0.15,1.13,-1.11,-0.30,1.35,
1.062,0.02,-0.15,1.13,-1.11,-0.30,1.35,
1.065,0.02,-0.15,1.14,-1.11,-0.30,1.35,
1.065,0.02,-0.15,1.14,-0.99,-0.25,1.57,
1.067,0.03,-0.15,1.14,-0.99,-0.25,1.57,
1.07,0.04,-0.15,1.14,-0.99,-0.25,1.57,
1.07,0.04,-0.15,1.14,-0.88,-0.22,1.66,
1.072,0.04,-0.16,1.14,-0.88,-0.22,1.66,
1.075,0.05,-0.16,1.14,-0.88,-0.22,1.66,
1.075,0.05,-0.16,1.14,-0.75,-0.24,1.70,
1.077,0.06,-0.16,1.14,-0.75,-0.24,1.70,
1.079,0.06,-0.16,1.13,-0.75,-0.24,1.70,
1.079,0.06,-0.16,1.13,-0.63,-0.32,1.69,
1.082,0.06,-0.17,1.13,-0.63,-0.32,1.69,
1.084,0.06,-0.17,1.13,-0.56,-0.32,1.66,
1.085,0.06,-0.17,1.12,-0.56,-0.32,1.66,
1.088,0.06,-0.17,1.11,-0.56,-0.32,1.66,
1.09,0.06,-0.17,1.11,-0.56,-0.39,1.52,
1.09,0.05,-0.17,1.11,-0.56,-0.39,1.52,
1.093,0.05,-0.18,1.09,-0.56,-0.39,1.52,
1.094,0.04,-0.18,1.09,-0.56,-0.39,1.52,
1.094,0.04,-0.18,1.09,-0.58,-0.44,1.39,
1.096,0.04,-0.19,1.08,-0.58,-0.44,1.39,
1.098,0.04,-0.19,1.08,-0.67,-0.53,1.21,
1.099,0.04,-0.19,1.08,-0.67,-0.53,1.21,
1.101,0.03,-0.19,1.07,-0.67,-0.53,1.21,
1.104,0.03,-0.20,1.06,-0.67,-0.53,1.21,
1.105,0.03,-0.20,1.06,-0.71,-0.60,1.07,
1.106,0.03,-0.20,1.07,-0.71,-0.60,1.07,
1.108,0.04,-0.20,1.06,-0.71,-0.60,1.07,
1.109,0.04,-0.20,1.06,-0.77,-0.67,0.95,
1.111,0.04,-0.19,1.06,-0.77,-0.67,0.95,
1.113,0.04,-0.20,1.06,-0.77,-0.67,0.95,
1.114,0.04,-0.20,1.06,-0.75,-0.70,0.94,
1.115,0.05,-0.20,1.07,-0.75,-0.70,0.94,
1.12,0.05,-0.19,1.07,-0.75,-0.70,0.94,
1.121,0.05,-0.19,1.07,-0.67,-0.68,0.89,
1.121,0.06,-0.19,1.07,-0.67,-0.68,0.89,
1.123,0.06,-0.19,1.07,-0.59,-0.68,0.96,
1.124,0.07,-0.18,1.08,-0.59,-0.68,0.96,
1.125,0.07,-0.18,1.09,-0.59,-0.68,0.96,
1.128,0.08,-0.18,1.11,-0.59,-0.68,0.96,
1.129,0.08,-0.18,1.11,-0.46,-0.59,1.05,
1.13,0.09,-0.17,1.11,-0.46,-0.59,1.05,
1.133,0.09,-0.16,1.12,-0.46,-0.59,1.05,
1.134,0.09,-0.16,1.12,-0.35,-0.50,1.27,
1.138,0.10,-0.15,1.13,-0.35,-0.50,1.27,
1.139,0.11,-0.15,1.14,-0.35,-0.50,1.27,
1.14,0.11,-0.15,1.14,-0.24,-0.39,1.41,
1.14,0.12,-0.14,1.15,-0.24,-0.39,1.41,
1.144,0.12,-0.14,1.16,-0.24,-0.39,1.41,
1.144,0.12,-0.14,1.16,-0.11,-0.26,1.61,
1.145,0.13,-0.13,1.18,-0.11,-0.26,1.61,
1.148,0.13,-0.13,1.18,0.05,-0.14,1.82,
1.157,0.13,-0.12,1.18,0.05,-0.14,1.82,
1.158,0.14,-0.12,1.19,0.05,-0.14,1.82,
1.159,0.14,-0.11,1.19,0.05,-0.14,1.82,
1.159,0.14,-0.11,1.19,0.16,0.00,2.05,
1.16,0.14,-0.10,1.19,0.16,0.00,2.05,
1.16,0.14,-0.09,1.19,0.16,0.00,2.05,
1.161,0.14,-0.09,1.19,0.22,0.13,2.15,
1.161,0.14,-0.09,1.20,0.22,0.13,2.15,
1.173,0.15,-0.09,1.20,0.22,0.13,2.15,
1.173,0.15,-0.09,1.20,0.23,0.28,2.17,
1.174,0.15,-0.08,1.20,0.23,0.28,2.17,
1.174,0.15,-0.09,1.19,0.23,0.28,2.17,
1.174,0.15,-0.09,1.19,0.28,0.36,2.22,
1.175,0.16,-0.09,1.19,0.28,0.36,2.22,
1.175,0.16,-0.09,1.19,0.37,0.38,2.19,
1.175,0.16,-0.09,1.19,0.37,0.38,2.19,
1.175,0.16,-0.10,1.18,0.37,0.38,2.19,
1.178,0.16,-0.11,1.18,0.37,0.38,2.19,
1.178,0.16,-0.11,1.18,0.45,0.30,2.09,
1.181,0.16,-0.11,1.17,0.45,0.30,2.09,
1.183,0.17,-0.12,1.17,0.45,0.30,2.09,
1.183,0.17,-0.12,1.17,0.48,0.21,2.02,
1.185,0.16,-0.12,1.17,0.48,0.21,2.02,
1.188,0.17,-0.13,1.16,0.48,0.21,2.02,
1.188,0.17,-0.13,1.16,0.52,0.06,1.91,
1.19,0.17,-0.14,1.15,0.52,0.06,1.91,
1.193,0.17,-0.14,1.15,0.52,0.06,1.91,
1.193,0.17,-0.14,1.15,0.54,-0.02,1.84,
1.195,0.17,-0.15,1.15,0.54,-0.02,1.84,
1.198,0.17,-0.15,1.15,0.58,-0.16,1.72,
1.198,0.17,-0.15,1.14,0.58,-0.16,1.72,
1.2,0.17,-0.16,1.13,0.58,-0.16,1.72,
1.204,0.16,-0.16,1.13,0.58,-0.16,1.72,
1.205,0.16,-0.16,1.13,0.61,-0.27,1.64,
1.205,0.16,-0.16,1.13,0.61,-0.27,1.64,
1.208,0.15,-0.16,1.13,0.61,-0.27,1.64,
1.208,0.15,-0.16,1.13,0.57,-0.39,1.51,
1.21,0.15,-0.17,1.13,0.57,-0.39,1.51,
1.213,0.15,-0.17,1.14,0.57,-0.39,1.51,
1.213,0.15,-0.17,1.14,0.52,-0.43,1.47,
1.215,0.14,-0.17,1.14,0.52,-0.43,1.47,
1.218,0.14,-0.17,1.14,0.52,-0.43,1.47,
1.218,0.14,-0.17,1.14,0.44,-0.50,1.49,
1.22,0.14,-0.17,1.15,0.44,-0.50,1.49,
1.222,0.14,-0.17,1.15,0.36,-0.51,1.58,
1.222,0.13,-0.16,1.15,0.36,-0.51,1.58,
1.225,0.13,-0.16,1.15,0.36,-0.51,1.58,
1.228,0.13,-0.16,1.15,0.30,-0.50,1.64,
1.228,0.13,-0.16,1.15,0.30,-0.50,1.64,
1.23,0.13,-0.16,1.17,0.30,-0.50,1.64,
1.232,0.13,-0.16,1.16,0.30,-0.50,1.64,
1.233,0.13,-0.16,1.16,0.29,-0.49,1.70,
1.235,0.13,-0.16,1.17,0.29,-0.49,1.70,
1.238,0.13,-0.15,1.16,0.29,-0.49,1.70,
1.239,0.13,-0.15,1.16,0.29,-0.48,1.79,
1.239,0.13,-0.15,1.16,0.29,-0.48,1.79,
1.243,0.14,-0.15,1.16,0.29,-0.48,1.79,
1.243,0.14,-0.15,1.16,0.29,-0.46,1.78,
1.244,0.14,-0.14,1.15,0.29,-0.46,1.78,
1.247,0.14,-0.14,1.15,0.32,-0.42,1.72,
1.248,0.15,-0.15,1.15,0.32,-0.42,1.72,
1.25,0.15,-0.15,1.14,0.32,-0.42,1.72,
1.258,0.15,-0.14,1.14,0.32,-0.42,1.72,
1.259,0.15,-0.14,1.14,0.40,-0.42,1.61,
1.259,0.15,-0.14,1.13,0.40,-0.42,1.61,
1.259,0.15,-0.14,1.13,0.47,-0.42,1.55,
1.259,0.16,-0.14,1.12,0.47,-0.42,1.55,
1.26,0.16,-0.14,1.11,0.47,-0.42,1.55,
1.262,0.16,-0.14,1.10,0.47,-0.42,1.55,
1.262,0.16,-0.14,1.10,0.51,-0.42,1.37,
1.264,0.16,-0.14,1.10,0.51,-0.42,1.37,
1.267,0.16,-0.14,1.09,0.51,-0.42,1.37,
1.268,0.16,-0.14,1.09,0.57,-0.44,1.19,
1.269,0.17,-0.14,1.08,0.57,-0.44,1.19,
1.271,0.17,-0.14,1.08,0.61,-0.50,1.03,
1.272,0.17,-0.14,1.06,0.61,-0.50,1.03,
1.274,0.18,-0.14,1.06,0.61,-0.50,1.03,
1.277,0.19,-0.14,1.05,0.61,-0.50,1.03,
1.277,0.19,-0.14,1.05,0.69,-0.48,0.81,
1.279,0.19,-0.13,1.04,0.69,-0.48,0.81,
1.282,0.19,-0.14,1.04,0.69,-0.48,0.81,
1.283,0.19,-0.14,1.04,0.82,-0.48,0.65,
1.284,0.19,-0.13,1.04,0.82,-0.48,0.65,
1.288,0.19,-0.13,1.03,0.82,-0.48,0.65,
1.288,0.19,-0.13,1.03,0.88,-0.48,0.54,
1.288,0.19,-0.13,1.03,0.88,-0.48,0.54,
1.292,0.19,-0.12,1.04,0.88,-0.48,0.54,
1.292,0.19,-0.12,1.04,0.92,-0.49,0.44,
1.294,0.19,-0.12,1.04,0.92,-0.49,0.44,
1.297,0.19,-0.12,1.04,0.93,-0.42,0.44,
1.297,0.19,-0.12,1.04,0.93,-0.42,0.44,
1.299,0.19,-0.12,1.04,0.93,-0.42,0.44,
1.302,0.20,-0.12,1.04,0.93,-0.42,0.44,
1.302,0.20,-0.12,1.04,0.92,-0.38,0.47,
1.305,0.20,-0.11,1.05,0.92,-0.38,0.47,
1.306,0.20,-0.12,1.06,0.92,-0.38,0.47,
1.307,0.20,-0.12,1.06,0.98,-0.39,0.51,
1.309,0.21,-0.11,1.06,0.98,-0.39,0.51,
1.311,0.21,-0.11,1.06,1.06,-0.38,0.62,
1.311,0.21,-0.11,1.07,1.06,-0.38,0.62,
1.314,0.21,-0.11,1.07,1.06,-0.38,0.62,
1.316,0.22,-0.11,1.07,1.06,-0.38,0.62,
1.316,0.22,-0.11,1.07,1.13,-0.36,0.72,
1.318,0.22,-0.11,1.08,1.13,-0.36,0.72,
1.321,0.22,-0.11,1.08,1.15,-0.38,0.79,
1.322,0.22,-0.11,1.08,1.15,-0.38,0.79,
1.323,0.22,-0.10,1.08,1.15,-0.38,0.79,
1.326,0.22,-0.11,1.08,1.15,-0.38,0.79,
1.326,0.22,-0.11,1.08,1.17,-0.35,0.91,
1.328,0.22,-0.10,1.09,1.17,-0.35,0.91,
1.331,0.22,-0.10,1.09,1.17,-0.35,0.91,
1.331,0.22,-0.10,1.09,1.20,-0.36,0.90,
1.333,0.23,-0.10,1.09,1.20,-0.36,0.90,
1.337,0.22,-0.11,1.09,1.20,-0.36,0.90,
1.338,0.22,-0.11,1.09,1.22,-0.33,0.94,
1.339,0.22,-0.10,1.09,1.22,-0.33,0.94,
1.341,0.22,-0.10,1.09,1.23,-0.37,0.95,
1.341,0.23,-0.11,1.09,1.23,-0.37,0.95,
1.343,0.23,-0.11,1.09,1.23,-0.37,0.95,
1.346,0.23,-0.11,1.09,1.20,-0.40,0.92,
1.346,0.22,-0.12,1.08,1.20,-0.40,0.92,
1.348,0.23,-0.12,1.08,1.20,-0.40,0.92,
1.351,0.23,-0.12,1.09,1.20,-0.40,0.92,
1.352,0.23,-0.12,1.09,1.21,-0.51,0.89,
1.355,0.23,-0.13,1.09,1.21,-0.51,0.89,
1.356,0.24,-0.13,1.08,1.21,-0.51,0.89,
1.356,0.24,-0.13,1.08,1.26,-0.60,0.89,
1.359,0.24,-0.14,1.09,1.26,-0.60,0.89,
1.361,0.24,-0.15,1.09,1.26,-0.60,0.89,
1.361,0.24,-0.15,1.09,1.30,-0.69,0.90,
1.363,0.24,-0.15,1.09,1.30,-0.69,0.90,
1.365,0.24,-0.15,1.09,1.30,-0.69,0.90,
1.366,0.24,-0.15,1.09,1.38,-0.85,0.92,
1.368,0.24,-0.16,1.09,1.38,-0.85,0.92,
1.374,0.24,-0.16,1.10,1.38,-0.85,0.92,
1.375,0.24,-0.16,1.10,1.39,-0.91,0.94,
1.375,0.24,-0.16,1.10,1.39,-0.91,0.94,
1.376,0.25,-0.16,1.10,1.39,-0.91,0.94,
1.376,0.25,-0.16,1.10,1.39,-0.98,0.98,
1.377,0.25,-0.16,1.10,1.39,-0.98,0.98,
1.38,0.26,-0.16,1.10,1.39,-0.98,0.98,
1.381,0.26,-0.16,1.10,1.42,-1.01,1.02,
1.382,0.26,-0.16,1.10,1.42,-1.01,1.02,
1.387,0.26,-0.16,1.10,1.42,-1.01,1.02,
1.387,0.26,-0.16,1.10,1.51,-1.02,1.02,
1.388,0.27,-0.16,1.09,1.51,-1.02,1.02,
1.39,0.27,-0.16,1.10,1.51,-1.02,1.02,
1.39,0.27,-0.16,1.10,1.59,-1.05,1.03,
1.393,0.27,-0.16,1.10,1.59,-1.05,1.03,
1.395,0.27,-0.16,1.10,1.65,-1.00,0.99,
1.395,0.28,-0.15,1.10,1.65,-1.00,0.99,
1.397,0.28,-0.14,1.10,1.65,-1.00,0.99,
1.4,0.29,-0.14,1.09,1.65,-1.00,0.99,
1.4,0.29,-0.14,1.09,1.74,-0.94,0.99,
1.405,0.29,-0.14,1.10,1.74,-0.94,0.99,
1.406,0.29,-0.13,1.09,1.74,-0.94,0.99,
1.407,0.29,-0.13,1.09,1.81,-0.85,0.96,
1.408,0.29,-0.13,1.09,1.81,-0.85,0.96,
1.41,0.30,-0.12,1.09,1.81,-0.85,0.96,
1.41,0.30,-0.12,1.09,1.91,-0.76,0.95,
1.413,0.31,-0.12,1.08,1.91,-0.76,0.95,
1.415,0.31,-0.11,1.09,1.91,-0.76,0.95,
1.416,0.31,-0.11,1.09,2.00,-0.68,0.90,
1.417,0.32,-0.11,1.08,2.00,-0.68,0.90,
1.421,0.32,-0.11,1.08,2.12,-0.60,0.85,
1.421,0.32,-0.10,1.08,2.12,-0.60,0.85,
1.422,0.33,-0.11,1.08,2.12,-0.60,0.85,
1.425,0.33,-0.10,1.07,2.12,-0.60,0.85,
1.425,0.33,-0.10,1.07,2.26,-0.50,0.80,
1.427,0.34,-0.10,1.08,2.26,-0.50,0.80,
1.43,0.34,-0.10,1.08,2.36,-0.48,0.76,
1.43,0.34,-0.10,1.07,2.36,-0.48,0.76,
1.433,0.34,-0.10,1.07,2.36,-0.48,0.76,
1.435,0.35,-0.10,1.07,2.36,-0.48,0.76,
1.436,0.35,-0.10,1.07,2.49,-0.43,0.74,
1.438,0.35,-0.10,1.07,2.49,-0.43,0.74,
1.44,0.35,-0.10,1.07,2.49,-0.43,0.74,
1.441,0.35,-0.10,1.07,2.55,-0.44,0.69,
1.442,0.35,-0.09,1.06,2.55,-0.44,0.69,
1.445,0.35,-0.09,1.06,2.61,-0.45,0.68,
1.446,0.35,-0.10,1.07,2.61,-0.45,0.68,
1.447,0.35,-0.10,1.06,2.61,-0.45,0.68,
1.45,0.35,-0.10,1.06,2.61,-0.45,0.68,
1.45,0.35,-0.10,1.06,2.63,-0.43,0.61,
1.452,0.35,-0.10,1.07,2.63,-0.43,0.61,
1.456,0.35,-0.09,1.07,2.63,-0.43,0.61,
1.457,0.35,-0.09,1.07,2.68,-0.47,0.61,
1.458,0.35,-0.09,1.07,2.68,-0.47,0.61,
1.46,0.35,-0.09,1.07,2.68,-0.47,0.61,
1.461,0.35,-0.09,1.07,2.69,-0.47,0.64,
1.462,0.34,-0.08,1.07,2.69,-0.47,0.64,
1.465,0.34,-0.09,1.07,2.69,-0.47,0.64,
1.466,0.34,-0.09,1.07,2.65,-0.44,0.64,
1.467,0.34,-0.08,1.07,2.65,-0.44,0.64,
1.479,0.34,-0.08,1.07,2.61,-0.40,0.68,
1.48,0.34,-0.08,1.08,2.61,-0.40,0.68,
1.48,0.33,-0.07,1.08,2.61,-0.40,0.68,
1.48,0.33,-0.06,1.08,2.61,-0.40,0.68,
1.482,0.33,-0.06,1.08,2.57,-0.35,0.71,
1.482,0.32,-0.06,1.08,2.57,-0.35,0.71,
1.487,0.32,-0.05,1.08,2.57,-0.35,0.71,
1.488,0.32,-0.05,1.08,2.49,-0.27,0.76,
1.488,0.32,-0.05,1.07,2.49,-0.27,0.76,
1.488,0.32,-0.05,1.07,2.49,-0.27,0.76,
1.489,0.32,-0.05,1.07,2.45,-0.17,0.76,
1.489,0.32,-0.04,1.06,2.45,-0.17,0.76,
1.489,0.32,-0.04,1.05,2.45,-0.17,0.76,
1.49,0.32,-0.04,1.05,2.43,-0.11,0.65,
1.496,0.32,-0.04,1.05,2.43,-0.11,0.65,
1.496,0.32,-0.04,1.05,2.45,-0.09,0.53,
1.496,0.32,-0.03,1.04,2.45,-0.09,0.53,
1.496,0.32,-0.03,1.03,2.45,-0.09,0.53,
1.499,0.32,-0.02,1.03,2.45,-0.09,0.53,
1.5,0.32,-0.02,1.03,2.44,-0.07,0.41,
1.502,0.32,-0.03,1.02,2.44,-0.07,0.41,
1.505,0.32,-0.02,1.02,2.44,-0.07,0.41,
1.505,0.32,-0.02,1.02,2.47,-0.00,0.28,
1.507,0.31,-0.02,1.02,2.47,-0.00,0.28,
1.509,0.31,-0.02,1.01,2.47,-0.00,0.28,
1.51,0.31,-0.02,1.01,2.46,0.00,0.19,
1.512,0.31,-0.02,1.01,2.46,0.00,0.19,
1.515,0.31,-0.02,1.01,2.46,0.00,0.19,
1.515,0.31,-0.02,1.01,2.42,-0.01,0.10,
1.517,0.31,-0.02,1.00,2.42,-0.01,0.10,
1.521,0.31,-0.02,1.00,2.41,-0.00,0.04,
1.521,0.31,-0.02,1.00,2.41,-0.00,0.04,
1.521,0.30,-0.01,1.00,2.41,-0.00,0.04,
1.524,0.30,-0.02,0.99,2.41,-0.00,0.04,
1.525,0.30,-0.02,0.99,2.41,-0.02,-0.06,
1.526,0.30,-0.02,0.99,2.41,-0.02,-0.06,
1.53,0.29,-0.01,0.98,2.41,-0.02,-0.06,
1.53,0.29,-0.01,0.98,2.33,-0.02,-0.12,
1.531,0.29,-0.01,0.98,2.33,-0.02,-0.12,
1.534,0.29,-0.01,0.98,2.33,-0.02,-0.12,
1.534,0.29,-0.01,0.98,2.33,-0.06,-0.19,
1.536,0.29,-0.01,0.98,2.33,-0.06,-0.19,
1.54,0.28,-0.01,0.98,2.33,-0.06,-0.19,
1.54,0.28,-0.01,0.98,2.31,-0.04,-0.27,
1.542,0.29,-0.01,0.98,2.31,-0.04,-0.27,
1.544,0.29,-0.01,0.98,2.28,-0.04,-0.25,
1.544,0.28,-0.01,0.98,2.28,-0.04,-0.25,
1.546,0.28,-0.00,0.97,2.28,-0.04,-0.25,
1.55,0.27,-0.00,0.97,2.28,-0.04,-0.25,
1.55,0.27,-0.00,0.97,2.27,-0.04,-0.27,
1.552,0.26,0.01,0.97,2.27,-0.04,-0.27,
1.554,0.26,0.01,0.97,2.27,-0.04,-0.27,
1.555,0.26,0.01,0.97,2.18,0.00,-0.35,
1.557,0.25,0.01,0.98,2.18,0.00,-0.35,
1.559,0.25,0.01,0.98,2.18,0.00,-0.35,
1.56,0.25,0.01,0.98,2.08,0.07,-0.34,
1.562,0.25,0.01,0.98,2.08,0.07,-0.34,
1.564,0.25,0.01,0.97,2.08,0.07,-0.34,
1.564,0.25,0.01,0.97,2.03,0.07,-0.29,
1.567,0.24,0.01,0.98,2.03,0.07,-0.29,
1.569,0.24,0.01,0.98,1.99,0.08,-0.30,
1.57,0.24,0.02,0.98,1.99,0.08,-0.30,
1.571,0.24,0.02,0.98,1.99,0.08,-0.30,
1.574,0.24,0.02,0.98,1.91,0.07,-0.28,
1.574,0.23,0.01,0.97,1.91,0.07,-0.28,
1.577,0.23,0.01,0.97,1.91,0.07,-0.28,
1.579,0.23,0.01,0.97,1.86,0.05,-0.32,
1.58,0.23,0.01,0.97,1.86,0.05,-0.32,
1.582,0.22,0.01,0.97,1.86,0.05,-0.32,
1.584,0.22,0.00,0.96,1.86,0.05,-0.32,
1.585,0.22,0.00,0.96,1.83,-0.01,-0.35,
1.586,0.21,-0.00,0.96,1.83,-0.01,-0.35,
1.592,0.21,-0.00,0.95,1.83,-0.01,-0.35,
1.593,0.21,-0.00,0.95,1.79,-0.10,-0.42,
1.593,0.21,-0.00,0.94,1.79,-0.10,-0.42,
1.594,0.21,-0.00,0.94,1.68,-0.19,-0.51,
1.594,0.21,-0.00,0.93,1.68,-0.19,-0.51,
1.596,0.20,-0.00,0.93,1.68,-0.19,-0.51,
1.598,0.20,0.00,0.93,1.68,-0.19,-0.51,
1.599,0.20,0.00,0.93,1.65,-0.22,-0.66,
1.601,0.20,-0.00,0.92,1.65,-0.22,-0.66,
1.604,0.20,-0.00,0.92,1.60,-0.23,-0.77,
1.604,0.19,0.00,0.91,1.60,-0.23,-0.77,
1.606,0.19,0.00,0.91,1.60,-0.23,-0.77,
1.608,0.19,0.01,0.91,1.60,-0.23,-0.77,
1.609,0.19,0.01,0.91,1.55,-0.24,-0.87,
1.611,0.19,0.01,0.90,1.55,-0.24,-0.87,
1.614,0.19,0.01,0.91,1.55,-0.24,-0.87,
1.614,0.19,0.01,0.91,1.51,-0.23,-0.93,
1.616,0.18,0.02,0.90,1.51,-0.23,-0.93,
1.619,0.18,0.02,0.90,1.51,-0.23,-0.93,
1.619,0.18,0.02,0.90,1.47,-0.21,-0.98,
1.622,0.18,0.03,0.90,1.47,-0.21,-0.98,
1.624,0.18,0.03,0.89,1.47,-0.21,-0.98,
1.624,0.18,0.03,0.89,1.43,-0.13,-1.03,
1.626,0.17,0.04,0.89,1.43,-0.13,-1.03,
1.628,0.17,0.04,0.88,1.43,-0.13,-1.03,
1.629,0.17,0.04,0.88,1.40,-0.09,-1.09,
1.631,0.17,0.04,0.88,1.40,-0.09,-1.09,
1.634,0.17,0.05,0.89,1.40,-0.09,-1.09,
1.635,0.17,0.05,0.89,1.37,-0.01,-1.17,
1.636,0.17,0.05,0.88,1.37,-0.01,-1.17,
1.638,0.17,0.05,0.88,1.37,-0.01,-1.17,
1.639,0.17,0.05,0.88,1.37,0.04,-1.21,
1.641,0.17,0.05,0.88,1.37,0.04,-1.21,
1.644,0.17,0.05,0.88,1.36,0.04,-1.21,
1.646,0.17,0.04,0.88,1.36,0.04,-1.21,
1.647,0.16,0.04,0.88,1.36,0.04,-1.21,
1.649,0.16,0.04,0.88,1.36,0.04,-1.21,
1.649,0.16,0.04,0.88,1.33,0.01,-1.19,
1.651,0.16,0.03,0.89,1.33,0.01,-1.19,
1.654,0.16,0.03,0.89,1.27,-0.07,-1.21,
1.654,0.16,0.03,0.89,1.27,-0.07,-1.21,
1.656,0.16,0.02,0.90,1.27,-0.07,-1.21,
1.658,0.15,0.02,0.90,1.27,-0.07,-1.21,
1.658,0.15,0.02,0.90,1.23,-0.17,-1.10,
1.66,0.15,0.02,0.91,1.23,-0.17,-1.10,
1.662,0.15,0.02,0.92,1.23,-0.17,-1.10,
1.663,0.15,0.02,0.92,1.16,-0.25,-0.97,
1.665,0.15,0.01,0.93,1.16,-0.25,-0.97,
1.667,0.14,0.01,0.93,1.16,-0.25,-0.97,
1.668,0.14,0.01,0.93,1.10,-0.31,-0.83,
1.671,0.14,0.00,0.94,1.10,-0.31,-0.83,
1.673,0.14,0.01,0.95,1.10,-0.31,-0.83,
1.674,0.14,0.01,0.95,1.05,-0.38,-0.70,
1.675,0.14,-0.00,0.96,1.05,-0.38,-0.70,
1.677,0.14,-0.00,0.96,1.01,-0.45,-0.59,
1.678,0.14,-0.00,0.96,1.01,-0.45,-0.59,
1.68,0.14,0.00,0.96,1.01,-0.45,-0.59,
1.684,0.14,-0.00,0.97,1.01,-0.45,-0.59,
1.685,0.14,-0.00,0.97,0.97,-0.53,-0.42,
1.685,0.14,-0.01,0.97,0.97,-0.53,-0.42,
1.696,0.14,-0.01,0.97,0.97,-0.53,-0.42,
1.697,0.14,-0.01,0.97,0.95,-0.51,-0.36,
1.698,0.14,-0.02,0.97,0.95,-0.51,-0.36,
1.698,0.14,-0.02,0.97,0.95,-0.61,-0.31,
1.699,0.14,-0.02,0.97,0.95,-0.61,-0.31,
1.699,0.15,-0.02,0.96,0.95,-0.61,-0.31,
1.7,0.14,-0.02,0.97,0.95,-0.61,-0.31,
1.7,0.14,-0.02,0.97,1.00,-0.71,-0.32,
1.701,0.15,-0.02,0.96,1.00,-0.71,-0.32,
1.702,0.15,-0.02,0.97,1.00,-0.71,-0.32,
1.703,0.15,-0.02,0.97,1.00,-0.72,-0.35,
1.714,0.15,-0.02,0.96,1.00,-0.72,-0.35,
1.715,0.16,-0.02,0.95,1.00,-0.72,-0.35,
1.715,0.16,-0.02,0.95,1.03,-0.78,-0.35,
1.715,0.15,-0.02,0.96,1.03,-0.78,-0.35,
1.716,0.16,-0.03,0.95,1.03,-0.78,-0.35,
1.716,0.16,-0.03,0.95,1.09,-0.81,-0.44,
1.716,0.17,-0.03,0.95,1.09,-0.81,-0.44,
1.717,0.17,-0.03,0.95,1.10,-0.84,-0.44,
1.717,0.17,-0.03,0.95,1.10,-0.84,-0.44,
1.719,0.17,-0.02,0.94,1.10,-0.84,-0.44,
1.722,0.18,-0.03,0.94,1.10,-0.84,-0.44,
1.723,0.18,-0.03,0.94,1.22,-0.90,-0.49,
1.725,0.18,-0.02,0.94,1.22,-0.90,-0.49,
1.727,0.18,-0.02,0.94,1.22,-0.90,-0.49,
1.727,0.18,-0.02,0.94,1.26,-0.87,-0.57,
1.729,0.18,-0.02,0.95,1.26,-0.87,-0.57,
1.732,0.18,-0.01,0.95,1.26,-0.87,-0.57,
1.732,0.18,-0.01,0.95,1.32,-0.88,-0.56,
1.734,0.18,-0.01,0.96,1.32,-0.88,-0.56,
1.739,0.18,0.00,0.96,1.32,-0.88,-0.56,
1.739,0.18,0.00,0.96,1.34,-0.81,-0.50,
1.739,0.18,0.01,0.95,1.34,-0.81,-0.50,
1.742,0.18,0.01,0.95,1.36,-0.72,-0.43,
1.742,0.17,0.02,0.96,1.36,-0.72,-0.43,
1.744,0.18,0.02,0.96,1.36,-0.72,-0.43,
1.747,0.18,0.02,0.96,1.30,-0.57,-0.44,
1.747,0.18,0.02,0.96,1.30,-0.57,-0.44,
1.749,0.17,0.04,0.96,1.30,-0.57,-0.44,
1.751,0.18,0.04,0.97,1.30,-0.57,-0.44,
1.752,0.18,0.04,0.97,1.33,-0.50,-0.35,
1.756,0.17,0.05,0.97,1.33,-0.50,-0.35,
1.756,0.17,0.05,0.97,1.33,-0.50,-0.35,
1.757,0.17,0.05,0.97,1.31,-0.35,-0.32,
1.759,0.17,0.06,0.97,1.31,-0.35,-0.32,
1.761,0.17,0.07,0.96,1.31,-0.35,-0.32,
1.762,0.17,0.07,0.96,1.28,-0.25,-0.29,
1.764,0.17,0.07,0.96,1.28,-0.25,-0.29,
1.767,0.17,0.08,0.96,1.28,-0.25,-0.29,
1.767,0.17,0.08,0.96,1.28,-0.14,-0.34,
1.769,0.17,0.08,0.96,1.28,-0.14,-0.34,
1.771,0.17,0.08,0.95,1.28,-0.14,-0.34,
1.772,0.17,0.08,0.95,1.26,-0.08,-0.39,
1.774,0.17,0.09,0.95,1.26,-0.08,-0.39,
1.777,0.16,0.09,0.94,1.26,-0.08,-0.39,
1.777,0.16,0.09,0.94,1.26,-0.03,-0.43,
1.779,0.16,0.09,0.94,1.26,-0.03,-0.43,
1.781,0.16,0.09,0.94,1.26,-0.03,-0.43,
1.782,0.16,0.09,0.94,1.20,-0.02,-0.51,
1.784,0.16,0.09,0.93,1.20,-0.02,-0.51,
1.786,0.15,0.08,0.93,1.20,-0.02,-0.51,
1.787,0.15,0.08,0.93,1.19,-0.03,-0.55,
1.789,0.15,0.08,0.93,1.19,-0.03,-0.55,
1.791,0.15,0.08,0.93,1.14,-0.08,-0.64,
1.792,0.14,0.09,0.93,1.14,-0.08,-0.64,
1.793,0.14,0.09,0.92,1.14,-0.08,-0.64,
1.796,0.14,0.09,0.92,1.14,-0.08,-0.64,
1.797,0.14,0.09,0.92,1.06,-0.12,-0.67,
1.799,0.14,0.08,0.91,1.06,-0.12,-0.67,
1.801,0.13,0.08,0.91,1.06,-0.12,-0.67,
1.802,0.13,0.08,0.91,1.04,-0.11,-0.75,
1.814,0.14,0.09,0.90,1.04,-0.11,-0.75,
1.815,0.13,0.08,0.90,1.04,-0.11,-0.75,
1.816,0.13,0.08,0.90,1.00,-0.18,-0.84,
1.822,0.12,0.08,0.90,1.00,-0.18,-0.84,
1.823,0.12,0.08,0.89,1.00,-0.18,-0.84,
1.823,0.12,0.08,0.89,0.98,-0.21,-0.91,
1.824,0.12,0.08,0.89,0.98,-0.21,-0.91,
1.825,0.12,0.08,0.89,0.92,-0.28,-0.96,
1.826,0.11,0.08,0.89,0.92,-0.28,-0.96,
1.826,0.12,0.08,0.89,0.92,-0.28,-0.96,
1.827,0.11,0.08,0.88,0.92,-0.28,-0.96,
1.827,0.11,0.08,0.88,0.84,-0.30,-1.04,
1.828,0.11,0.09,0.87,0.84,-0.30,-1.04,
1.829,0.12,0.08,0.87,0.84,-0.30,-1.04,
1.83,0.12,0.08,0.87,0.82,-0.33,-1.07,
1.83,0.11,0.09,0.87,0.82,-0.33,-1.07,
1.831,0.11,0.09,0.87,0.82,-0.33,-1.07,
1.832,0.11,0.09,0.87,0.84,-0.30,-1.20,
1.834,0.11,0.09,0.87,0.84,-0.30,-1.20,
1.836,0.11,0.10,0.87,0.84,-0.30,-1.20,
1.836,0.11,0.10,0.87,0.82,-0.26,-1.18,
1.838,0.11,0.10,0.86,0.82,-0.26,-1.18,
1.841,0.12,0.11,0.86,0.82,-0.26,-1.18,
1.841,0.12,0.11,0.86,0.86,-0.23,-1.23,
1.843,0.12,0.11,0.86,0.86,-0.23,-1.23,
1.847,0.12,0.11,0.86,0.86,-0.23,-1.23,
1.847,0.12,0.11,0.86,0.87,-0.17,-1.28,
1.849,0.12,0.12,0.87,0.87,-0.17,-1.28,
1.851,0.12,0.12,0.87,0.94,-0.13,-1.28,
1.852,0.13,0.12,0.87,0.94,-0.13,-1.28,
1.853,0.13,0.12,0.87,0.94,-0.13,-1.28,
1.855,0.13,0.12,0.87,1.00,-0.05,-1.23,
1.856,0.13,0.14,0.87,1.00,-0.05,-1.23,
1.858,0.13,0.14,0.87,1.00,-0.05,-1.23,
1.861,0.13,0.14,0.87,1.04,0.02,-1.22,
1.861,0.13,0.14,0.87,1.04,0.02,-1.22,
1.863,0.13,0.15,0.87,1.04,0.02,-1.22,
1.866,0.13,0.15,0.87,1.04,0.08,-1.18,
1.866,0.13,0.15,0.88,1.04,0.08,-1.18,
1.868,0.13,0.15,0.88,1.04,0.08,-1.18,
1.871,0.13,0.16,0.88,1.04,0.08,-1.18,
1.871,0.13,0.16,0.88,1.04,0.19,-1.15,
1.873,0.13,0.15,0.89,1.04,0.19,-1.15,
1.876,0.13,0.15,0.89,1.04,0.19,-1.15,
1.876,0.13,0.15,0.89,1.06,0.22,-1.04,
1.879,0.13,0.16,0.89,1.06,0.22,-1.04,
1.882,0.12,0.15,0.90,1.06,0.22,-1.04,
1.882,0.12,0.15,0.90,1.05,0.19,-0.98,
1.884,0.12,0.15,0.90,1.05,0.19,-0.98,
1.886,0.12,0.15,0.90,1.04,0.19,-0.94,
1.887,0.12,0.15,0.90,1.04,0.19,-0.94,
1.888,0.12,0.15,0.90,1.04,0.19,-0.94,
1.891,0.12,0.15,0.90,1.01,0.16,-0.90,
1.891,0.11,0.15,0.90,1.01,0.16,-0.90,
1.893,0.11,0.14,0.90,1.01,0.16,-0.90,
1.896,0.11,0.14,0.91,1.01,0.16,-0.90,
1.897,0.11,0.14,0.91,0.95,0.12,-0.87,
1.898,0.10,0.14,0.90,0.95,0.12,-0.87,
1.901,0.10,0.14,0.90,0.95,0.12,-0.87,
1.901,0.10,0.14,0.90,0.91,0.05,-0.81,
1.904,0.10,0.13,0.91,0.91,0.05,-0.81,
1.91,0.09,0.12,0.91,0.91,0.05,-0.81,
1.911,0.09,0.12,0.91,0.86,-0.01,-0.82,
1.911,0.10,0.12,0.91,0.86,-0.01,-0.82,
1.912,0.09,0.12,0.91,0.86,-0.01,-0.82,
1.912,0.09,0.12,0.91,0.80,-0.10,-0.79,
1.915,0.09,0.12,0.92,0.80,-0.10,-0.79,
1.915,0.09,0.12,0.92,0.80,-0.17,-0.75,
1.915,0.08,0.11,0.92,0.80,-0.17,-0.75,
1.917,0.08,0.11,0.92,0.80,-0.17,-0.75,
1.921,0.07,0.11,0.92,0.80,-0.17,-0.75,
1.921,0.07,0.11,0.92,0.68,-0.24,-0.68,
1.923,0.07,0.11,0.92,0.68,-0.24,-0.68,
1.925,0.07,0.10,0.92,0.68,-0.24,-0.68,
1.926,0.07,0.10,0.92,0.59,-0.30,-0.68,
1.928,0.06,0.10,0.92,0.59,-0.30,-0.68,
1.931,0.06,0.10,0.92,0.55,-0.34,-0.62,
1.931,0.06,0.10,0.92,0.55,-0.34,-0.62,
1.933,0.06,0.10,0.93,0.55,-0.34,-0.62,
1.936,0.06,0.10,0.93,0.55,-0.34,-0.62,
1.936,0.06,0.10,0.93,0.49,-0.42,-0.61,
1.938,0.06,0.10,0.92,0.49,-0.42,-0.61,
1.94,0.06,0.10,0.92,0.47,-0.43,-0.58,
1.94,0.06,0.10,0.92,0.47,-0.43,-0.58,
1.943,0.06,0.10,0.91,0.47,-0.43,-0.58,
1.945,0.06,0.10,0.91,0.47,-0.43,-0.58,
1.946,0.06,0.10,0.91,0.47,-0.46,-0.65,
1.947,0.06,0.10,0.91,0.47,-0.46,-0.65,
1.95,0.06,0.10,0.90,0.47,-0.46,-0.65,
1.951,0.06,0.10,0.90,0.45,-0.45,-0.75,
1.954,0.05,0.10,0.90,0.45,-0.45,-0.75,
1.955,0.05,0.10,0.89,0.45,-0.45,-0.75,
1.956,0.05,0.10,0.89,0.44,-0.46,-0.81,
1.958,0.05,0.10,0.88,0.44,-0.46,-0.81,
1.961,0.05,0.11,0.88,0.44,-0.46,-0.81,
1.961,0.05,0.11,0.88,0.35,-0.43,-0.88,
1.962,0.05,0.11,0.87,0.35,-0.43,-0.88,
1.964,0.05,0.11,0.87,0.36,-0.43,-1.00,
1.965,0.05,0.11,0.87,0.36,-0.43,-1.00,
1.967,0.05,0.11,0.87,0.36,-0.43,-1.00,
1.97,0.05,0.12,0.86,0.36,-0.43,-1.00,
1.97,0.05,0.12,0.86,0.40,-0.42,-1.09,
1.972,0.05,0.12,0.86,0.40,-0.42,-1.09,
1.977,0.04,0.13,0.86,0.40,-0.42,-1.09,
1.977,0.04,0.13,0.86,0.38,-0.40,-1.14,
1.978,0.04,0.13,0.85,0.38,-0.40,-1.14,
1.98,0.04,0.14,0.85,0.38,-0.40,-1.14,
1.98,0.04,0.14,0.85,0.35,-0.31,-1.19,
1.982,0.05,0.14,0.85,0.35,-0.31,-1.19,
1.984,0.04,0.14,0.84,0.35,-0.31,-1.19,
1.985,0.04,0.14,0.84,0.32,-0.25,-1.30,
1.987,0.04,0.14,0.84,0.32,-0.25,-1.30,
1.99,0.04,0.14,0.84,0.32,-0.23,-1.33,
1.991,0.04,0.14,0.83,0.32,-0.23,-1.33,
1.992,0.04,0.14,0.82,0.32,-0.23,-1.33,
1.995,0.04,0.14,0.82,0.32,-0.23,-1.33,
1.995,0.04,0.14,0.82,0.26,-0.22,-1.45,
1.996,0.04,0.14,0.82,0.26,-0.22,-1.45,
1.999,0.04,0.14,0.82,0.25,-0.24,-1.53,
2.0,0.04,0.14,0.81,0.25,-0.24,-1.53,
2.001,0.03,0.14,0.81,0.25,-0.24,-1.53,
2.004,0.03,0.14,0.81,0.25,-0.24,-1.53,
2.005,0.03,0.14,0.81,0.26,-0.27,-1.60,
2.007,0.03,0.14,0.81,0.26,-0.27,-1.60,
2.009,0.03,0.14,0.81,0.26,-0.27,-1.60,
2.009,0.03,0.14,0.81,0.23,-0.30,-1.62,
2.012,0.03,0.13,0.81,0.23,-0.30,-1.62,
2.015,0.03,0.13,0.81,0.23,-0.32,-1.69,
2.015,0.03,0.13,0.81,0.23,-0.32,-1.69,
2.016,0.03,0.14,0.81,0.23,-0.32,-1.69,
2.019,0.03,0.13,0.81,0.23,-0.32,-1.69,
2.02,0.03,0.13,0.81,0.18,-0.36,-1.68,
2.031,0.03,0.13,0.81,0.18,-0.36,-1.68,
2.032,0.03,0.14,0.82,0.18,-0.36,-1.68,
2.033,0.03,0.14,0.82,0.15,-0.38,-1.62,
2.033,0.02,0.14,0.83,0.15,-0.38,-1.62,
2.034,0.02,0.14,0.83,0.15,-0.38,-1.62,
2.034,0.02,0.14,0.83,0.18,-0.37,-1.56,
2.035,0.02,0.15,0.84,0.18,-0.37,-1.56,
2.035,0.02,0.14,0.85,0.18,-0.37,-1.56,
2.036,0.02,0.14,0.85,0.12,-0.36,-1.42,
2.036,0.01,0.15,0.85,0.12,-0.36,-1.42,
2.049,0.01,0.15,0.85,0.10,-0.29,-1.31,
2.05,0.01,0.15,0.86,0.10,-0.29,-1.31,
2.051,0.01,0.14,0.86,0.10,-0.29,-1.31,
2.051,0.01,0.15,0.87,0.10,-0.29,-1.31,
2.051,0.01,0.15,0.87,0.04,-0.28,-1.18,
2.051,0.02,0.15,0.86,0.04,-0.28,-1.18,
2.052,0.02,0.15,0.86,0.04,-0.28,-1.18,
2.052,0.02,0.15,0.86,-0.00,-0.26,-1.08,
2.052,0.02,0.15,0.87,-0.00,-0.26,-1.08,
2.053,0.02,0.15,0.87,-0.00,-0.26,-1.08,
2.054,0.02,0.15,0.87,0.06,-0.22,-1.10,
2.056,0.02,0.16,0.87,0.06,-0.22,-1.10,
2.058,0.03,0.16,0.87,0.06,-0.22,-1.10,
2.059,0.03,0.16,0.87,0.06,-0.20,-1.05,
2.06,0.03,0.16,0.86,0.06,-0.20,-1.05,
2.063,0.03,0.16,0.86,0.13,-0.15,-1.06,
2.064,0.03,0.16,0.86,0.13,-0.15,-1.06,
2.066,0.03,0.16,0.86,0.13,-0.15,-1.06,
2.068,0.03,0.16,0.86,0.13,-0.15,-1.06,
2.069,0.03,0.16,0.86,0.16,-0.12,-1.09,
2.07,0.03,0.16,0.86,0.16,-0.12,-1.09,
2.073,0.03,0.16,0.86,0.16,-0.12,-1.09,
2.074,0.03,0.16,0.86,0.21,-0.10,-1.10,
2.075,0.03,0.16,0.86,0.21,-0.10,-1.10,
2.078,0.03,0.16,0.86,0.21,-0.10,-1.10,
2.079,0.03,0.16,0.86,0.22,-0.11,-1.12,
2.08,0.03,0.17,0.86,0.22,-0.11,-1.12,
2.083,0.03,0.17,0.85,0.22,-0.11,-1.12,
2.083,0.03,0.17,0.85,0.19,-0.10,-1.16,
2.085,0.03,0.16,0.85,0.19,-0.10,-1.16,
2.089,0.03,0.16,0.85,0.20,-0.05,-1.18,
2.09,0.03,0.16,0.84,0.20,-0.05,-1.18,
2.09,0.03,0.16,0.83,0.20,-0.05,-1.18,
2.093,0.03,0.16,0.83,0.20,-0.05,-1.18,
2.093,0.03,0.16,0.83,0.19,-0.10,-1.27,
2.096,0.03,0.15,0.82,0.19,-0.10,-1.27,
2.098,0.03,0.15,0.81,0.19,-0.10,-1.27,
2.098,0.03,0.15,0.81,0.22,-0.12,-1.39,
2.1,0.03,0.15,0.81,0.22,-0.12,-1.39,
2.104,0.03,0.15,0.80,0.22,-0.12,-1.39,
2.104,0.03,0.15,0.80,0.19,-0.19,-1.54,
2.107,0.03,0.15,0.79,0.19,-0.19,-1.54,
2.108,0.03,0.15,0.79,0.19,-0.19,-1.54,
2.109,0.03,0.15,0.79,0.19,-0.24,-1.65,
2.11,0.02,0.15,0.79,0.19,-0.24,-1.65,
2.113,0.02,0.15,0.79,0.17,-0.25,-1.78,
2.114,0.02,0.15,0.79,0.17,-0.25,-1.78,
2.115,0.02,0.15,0.79,0.17,-0.25,-1.78,
2.119,0.02,0.15,0.79,0.17,-0.25,-1.78,
2.119,0.02,0.15,0.79,0.12,-0.25,-1.78,
2.12,0.01,0.15,0.80,0.12,-0.25,-1.78,
2.124,0.01,0.16,0.80,0.12,-0.25,-1.78,
2.125,0.01,0.16,0.80,0.06,-0.25,-1.79,
2.125,0.01,0.16,0.81,0.06,-0.25,-1.79,
2.128,0.01,0.16,0.81,0.01,-0.17,-1.69,
2.129,0.00,0.17,0.82,0.01,-0.17,-1.69,
2.13,-0.01,0.17,0.83,0.01,-0.17,-1.69,
2.133,-0.01,0.17,0.83,-0.08,-0.10,-1.53,
2.134,-0.01,0.18,0.84,-0.08,-0.10,-1.53,
2.135,-0.01,0.18,0.85,-0.08,-0.10,-1.53,
2.138,-0.01,0.18,0.85,-0.22,0.00,-1.37,
2.144,-0.02,0.19,0.86,-0.22,0.00,-1.37,
2.145,-0.02,0.19,0.86,-0.22,0.00,-1.37,
2.146,-0.03,0.20,0.88,-0.22,0.00,-1.37,
2.147,-0.03,0.20,0.88,-0.30,0.12,-1.17,
2.148,-0.03,0.20,0.89,-0.30,0.12,-1.17,
2.149,-0.04,0.21,0.90,-0.30,0.12,-1.17,
2.15,-0.04,0.21,0.90,-0.39,0.23,-0.96,
2.151,-0.05,0.21,0.91,-0.39,0.23,-0.96,
2.163,-0.06,0.21,0.91,-0.39,0.23,-0.96,
2.164,-0.06,0.21,0.91,-0.49,0.30,-0.72,
2.164,-0.06,0.21,0.91,-0.49,0.30,-0.72,
2.165,-0.07,0.21,0.92,-0.49,0.30,-0.72,
2.165,-0.07,0.21,0.92,-0.62,0.37,-0.60,
2.165,-0.07,0.20,0.92,-0.62,0.37,-0.60,
2.166,-0.07,0.20,0.92,-0.76,0.37,-0.54,
2.166,-0.07,0.20,0.92,-0.76,0.37,-0.54,
2.166,-0.07,0.19,0.92,-0.76,0.37,-0.54,
2.168,-0.07,0.18,0.93,-0.76,0.37,-0.54,
2.168,-0.07,0.18,0.93,-0.82,0.27,-0.47,
2.17,-0.07,0.17,0.93,-0.82,0.27,-0.47,
2.176,-0.07,0.17,0.93,-0.82,0.17,-0.46,
2.177,-0.07,0.17,0.92,-0.82,0.17,-0.46,
2.177,-0.06,0.16,0.92,-0.82,0.17,-0.46,
2.178,-0.06,0.16,0.92,-0.82,0.17,-0.46,
2.178,-0.06,0.16,0.92,-0.76,0.04,-0.47,
2.18,-0.06,0.16,0.92,-0.76,0.04,-0.47,
2.183,-0.05,0.15,0.91,-0.76,0.04,-0.47,
2.183,-0.05,0.15,0.91,-0.69,-0.04,-0.52,
2.185,-0.05,0.14,0.91,-0.69,-0.04,-0.52,
2.188,-0.05,0.14,0.91,-0.62,-0.12,-0.56,
2.188,-0.05,0.14,0.91,-0.62,-0.12,-0.56,
2.19,-0.05,0.14,0.91,-0.62,-0.12,-0.56,
2.193,-0.05,0.14,0.91,-0.62,-0.12,-0.56,
2.193,-0.05,0.14,0.91,-0.58,-0.21,-0.58,
2.195,-0.05,0.13,0.92,-0.58,-0.21,-0.58,
2.197,-0.06,0.14,0.92,-0.58,-0.21,-0.58,
2.198,-0.06,0.14,0.92,-0.58,-0.22,-0.58,
2.2,-0.06,0.14,0.93,-0.58,-0.22,-0.58,
2.203,-0.06,0.14,0.93,-0.58,-0.22,-0.58,
2.203,-0.06,0.14,0.93,-0.59,-0.23,-0.52,
2.205,-0.06,0.15,0.94,-0.59,-0.23,-0.52,
2.207,-0.06,0.15,0.94,-0.61,-0.16,-0.45,
2.208,-0.07,0.16,0.95,-0.61,-0.16,-0.45,
2.209,-0.08,0.15,0.96,-0.61,-0.16,-0.45,
2.213,-0.08,0.16,0.97,-0.61,-0.16,-0.45,
2.213,-0.08,0.16,0.97,-0.68,-0.02,-0.28,
2.215,-0.08,0.16,0.98,-0.68,-0.02,-0.28,
2.218,-0.08,0.16,0.98,-0.79,0.04,-0.09,
2.218,-0.08,0.16,0.99,-0.79,0.04,-0.09,
2.22,-0.08,0.17,0.99,-0.79,0.04,-0.09,
2.223,-0.09,0.17,1.00,-0.79,0.04,-0.09,
2.223,-0.09,0.17,1.00,-0.84,0.12,0.09,
2.225,-0.08,0.18,1.00,-0.84,0.12,0.09,
2.227,-0.09,0.18,1.01,-0.84,0.12,0.09,
2.228,-0.09,0.18,1.01,-0.88,0.18,0.21,
2.23,-0.09,0.18,1.01,-0.88,0.18,0.21,
2.233,-0.09,0.18,1.01,-0.89,0.25,0.30,
2.233,-0.09,0.18,1.02,-0.89,0.25,0.30,
2.235,-0.09,0.18,1.02,-0.89,0.25,0.30,
2.238,-0.09,0.18,1.02,-0.92,0.28,0.38,
2.238,-0.09,0.19,1.02,-0.92,0.28,0.38,
2.239,-0.09,0.19,1.02,-0.92,0.28,0.38,
2.245,-0.10,0.18,1.03,-0.92,0.28,0.38,
2.246,-0.10,0.18,1.03,-0.92,0.38,0.45,
2.246,-0.09,0.19,1.02,-0.92,0.38,0.45,
2.247,-0.09,0.19,1.02,-0.92,0.38,0.45,
2.248,-0.09,0.19,1.02,-0.95,0.36,0.50,
2.249,-0.09,0.19,1.01,-0.95,0.36,0.50,
2.252,-0.09,0.19,1.01,-0.90,0.40,0.45,
2.252,-0.09,0.18,1.02,-0.90,0.40,0.45,
2.255,-0.08,0.18,1.01,-0.90,0.40,0.45,
2.257,-0.08,0.18,1.01,-0.90,0.40,0.45,
2.258,-0.08,0.18,1.01,-0.86,0.37,0.40,
2.26,-0.08,0.18,1.00,-0.86,0.37,0.40,
2.262,-0.08,0.18,1.00,-0.81,0.32,0.31,
2.262,-0.08,0.17,1.00,-0.81,0.32,0.31,
2.264,-0.08,0.17,0.99,-0.81,0.32,0.31,
2.268,-0.09,0.16,0.99,-0.81,0.32,0.31,
2.268,-0.09,0.16,0.99,-0.79,0.27,0.23,
2.269,-0.09,0.16,0.98,-0.79,0.27,0.23,
2.272,-0.09,0.16,0.98,-0.79,0.27,0.23,
2.273,-0.09,0.16,0.98,-0.81,0.19,0.14,
2.275,-0.09,0.16,0.97,-0.81,0.19,0.14,
2.278,-0.10,0.15,0.97,-0.81,0.19,0.14,
2.278,-0.10,0.15,0.97,-0.87,0.13,0.06,
2.28,-0.10,0.15,0.96,-0.87,0.13,0.06,
2.282,-0.10,0.14,0.96,-0.87,0.13,0.06,
2.282,-0.10,0.14,0.96,-0.90,0.07,-0.06,
2.284,-0.10,0.14,0.96,-0.90,0.07,-0.06,
2.287,-0.10,0.14,0.96,-0.90,-0.01,-0.13,
2.287,-0.11,0.14,0.95,-0.90,-0.01,-0.13,
2.288,-0.10,0.14,0.95,-0.90,-0.01,-0.13,
2.291,-0.11,0.14,0.95,-0.90,-0.01,-0.13,
2.292,-0.11,0.14,0.95,-0.95,-0.03,-0.21,
2.293,-0.11,0.14,0.95,-0.95,-0.03,-0.21,
2.296,-0.12,0.14,0.95,-0.95,-0.03,-0.21,
2.296,-0.12,0.14,0.95,-0.97,-0.06,-0.20,
2.298,-0.12,0.14,0.95,-0.97,-0.06,-0.20,
2.301,-0.12,0.14,0.95,-0.97,-0.06,-0.20,
2.301,-0.12,0.14,0.95,-1.03,-0.06,-0.23,
2.304,-0.12,0.14,0.95,-1.03,-0.06,-0.23,
2.307,-0.12,0.15,0.96,-1.03,-0.06,-0.23,
2.308,-0.12,0.15,0.96,-1.08,-0.04,-0.21,
2.308,-0.12,0.15,0.96,-1.08,-0.04,-0.21,
2.311,-0.12,0.15,0.96,-1.08,0.03,-0.17,
2.311,-0.12,0.15,0.97,-1.08,0.03,-0.17,
2.313,-0.13,0.16,0.97,-1.08,0.03,-0.17,
2.316,-0.13,0.16,0.97,-1.10,0.10,-0.08,
2.316,-0.13,0.16,0.98,-1.10,0.10,-0.08,
2.318,-0.13,0.17,0.99,-1.10,0.10,-0.08,
2.321,-0.13,0.17,0.99,-1.10,0.10,-0.08,
2.321,-0.13,0.17,0.99,-1.17,0.18,0.04,
2.325,-0.13,0.18,1.00,-1.17,0.18,0.04,
2.326,-0.13,0.18,1.01,-1.17,0.18,0.04,
2.326,-0.13,0.18,1.01,-1.20,0.25,0.15,
2.329,-0.13,0.18,1.01,-1.20,0.25,0.15,
2.331,-0.14,0.19,1.02,-1.20,0.25,0.15,
2.331,-0.14,0.19,1.02,-1.19,0.34,0.29,
2.334,-0.13,0.18,1.02,-1.19,0.34,0.29,
2.336,-0.13,0.18,1.02,-1.23,0.43,0.39,
2.336,-0.13,0.19,1.03,-1.23,0.43,0.39,
2.338,-0.13,0.19,1.03,-1.23,0.43,0.39,
2.345,-0.14,0.18,1.03,-1.23,0.43,0.39,
2.345,-0.14,0.18,1.03,-1.19,0.45,0.48,
2.345,-0.14,0.18,1.03,-1.19,0.45,0.48,
2.346,-0.14,0.17,1.04,-1.19,0.45,0.48,
2.346,-0.14,0.17,1.04,-1.22,0.45,0.53,
2.349,-0.14,0.17,1.03,-1.22,0.45,0.53,
2.35,-0.14,0.17,1.04,-1.22,0.45,0.53,
2.351,-0.14,0.17,1.04,-1.26,0.36,0.57,
2.353,-0.15,0.16,1.04,-1.26,0.36,0.57,
2.355,-0.15,0.15,1.04,-1.26,0.36,0.57,
2.356,-0.15,0.15,1.04,-1.26,0.28,0.59,
2.358,-0.15,0.15,1.04,-1.26,0.28,0.59,
2.36,-0.15,0.15,1.04,-1.36,0.19,0.60,
2.361,-0.15,0.14,1.04,-1.36,0.19,0.60,
2.364,-0.15,0.14,1.04,-1.36,0.19,0.60,
2.366,-0.15,0.14,1.04,-1.35,0.08,0.60,
2.366,-0.16,0.13,1.03,-1.35,0.08,0.60,
2.368,-0.16,0.13,1.03,-1.35,0.08,0.60,
2.371,-0.15,0.12,1.03,-1.35,0.08,0.60,
2.371,-0.15,0.12,1.03,-1.39,-0.01,0.54,
2.373,-0.16,0.12,1.02,-1.39,-0.01,0.54,
2.376,-0.15,0.12,1.02,-1.39,-0.01,0.54,
2.377,-0.15,0.12,1.02,-1.36,-0.08,0.48,
2.378,-0.15,0.12,1.01,-1.36,-0.08,0.48,
2.381,-0.15,0.12,1.01,-1.36,-0.08,0.48,
2.381,-0.15,0.12,1.01,-1.36,-0.14,0.41,
2.383,-0.16,0.12,1.00,-1.36,-0.14,0.41,
2.386,-0.16,0.12,1.00,-1.36,-0.14,0.41,
2.387,-0.16,0.12,1.00,-1.34,-0.13,0.35,
2.388,-0.16,0.12,1.01,-1.34,-0.13,0.35,
2.392,-0.16,0.12,1.00,-1.34,-0.13,0.35,
2.393,-0.16,0.12,1.00,-1.38,-0.15,0.22,
2.393,-0.17,0.12,1.01,-1.38,-0.15,0.22,
2.396,-0.17,0.12,1.01,-1.43,-0.13,0.27,
2.396,-0.17,0.12,1.01,-1.43,-0.13,0.27,
2.398,-0.17,0.13,1.01,-1.43,-0.13,0.27,
2.401,-0.17,0.13,1.01,-1.43,-0.13,0.27,
2.401,-0.17,0.13,1.01,-1.44,-0.09,0.27,
2.403,-0.17,0.13,1.01,-1.44,-0.09,0.27,
2.406,-0.17,0.13,1.01,-1.44,-0.09,0.27,
2.406,-0.17,0.13,1.01,-1.46,-0.02,0.28,
2.408,-0.16,0.13,1.01,-1.46,-0.02,0.28,
2.411,-0.16,0.13,1.01,-1.46,-0.01,0.32,
2.412,-0.16,0.13,1.01,-1.46,-0.01,0.32,
2.413,-0.16,0.14,1.01,-1.46,-0.01,0.32,
2.416,-0.16,0.14,1.01,-1.46,-0.01,0.32,
2.416,-0.16,0.14,1.01,-1.36,-0.01,0.36,
2.418,-0.15,0.14,1.02,-1.36,-0.01,0.36,
2.421,-0.15,0.14,1.01,-1.36,-0.01,0.36,
2.421,-0.15,0.14,1.01,-1.34,0.06,0.32,
2.423,-0.15,0.14,1.02,-1.34,0.06,0.32,
2.426,-0.15,0.14,1.02,-1.34,0.06,0.32,
2.427,-0.15,0.14,1.02,-1.25,0.08,0.36,
2.427,-0.14,0.13,1.02,-1.25,0.08,0.36,
2.431,-0.14,0.13,1.02,-1.25,0.08,0.36,
2.431,-0.14,0.13,1.02,-1.23,0.07,0.39,
2.433,-0.14,0.13,1.02,-1.23,0.07,0.39,
2.436,-0.14,0.13,1.02,-1.18,-0.02,0.42,
2.436,-0.13,0.13,1.02,-1.18,-0.02,0.42,
2.438,-0.13,0.12,1.02,-1.18,-0.02,0.42,
2.44,-0.13,0.12,1.01,-1.18,-0.02,0.42,
2.44,-0.13,0.12,1.01,-1.12,0.02,0.41,
2.447,-0.12,0.11,1.01,-1.12,0.02,0.41,
2.448,-0.11,0.12,1.01,-1.12,0.02,0.41,
2.448,-0.11,0.12,1.01,-1.03,-0.08,0.36,
2.448,-0.11,0.11,1.00,-1.03,-0.08,0.36,
2.45,-0.11,0.11,1.00,-1.03,-0.08,0.36,
2.451,-0.11,0.11,1.00,-0.91,-0.11,0.30,
2.452,-0.10,0.12,1.00,-0.91,-0.11,0.30,
2.455,-0.10,0.11,1.00,-0.91,-0.11,0.30,
2.455,-0.10,0.11,1.00,-0.85,-0.14,0.23,
2.459,-0.10,0.11,1.01,-0.85,-0.14,0.23,
2.46,-0.10,0.12,1.01,-0.85,-0.14,0.23,
2.461,-0.10,0.12,1.01,-0.75,-0.11,0.22,
2.462,-0.10,0.12,1.01,-0.75,-0.11,0.22,
2.465,-0.10,0.12,1.01,-0.70,-0.09,0.26,
2.466,-0.10,0.12,1.01,-0.70,-0.09,0.26,
2.468,-0.09,0.12,1.01,-0.70,-0.09,0.26,
2.471,-0.09,0.12,1.01,-0.69,-0.05,0.27,
2.471,-0.09,0.12,1.01,-0.69,-0.05,0.27,
2.472,-0.09,0.13,1.02,-0.69,-0.05,0.27,
2.475,-0.09,0.13,1.02,-0.69,-0.05,0.27,
2.476,-0.09,0.13,1.02,-0.65,0.00,0.31,
2.477,-0.09,0.12,1.01,-0.65,0.00,0.31,
2.479,-0.09,0.12,1.02,-0.65,0.00,0.31,
2.48,-0.09,0.12,1.02,-0.63,0.05,0.35,
2.482,-0.09,0.12,1.02,-0.63,0.05,0.35,
2.485,-0.09,0.12,1.02,-0.60,0.02,0.34,
2.485,-0.09,0.12,1.03,-0.60,0.02,0.34,
2.487,-0.08,0.12,1.03,-0.60,0.02,0.34,
2.49,-0.09,0.12,1.03,-0.60,0.02,0.34,
2.49,-0.09,0.12,1.03,-0.57,-0.02,0.43,
2.493,-0.08,0.11,1.03,-0.57,-0.02,0.43,
2.495,-0.08,0.11,1.03,-0.57,-0.02,0.43,
2.495,-0.08,0.11,1.03,-0.55,-0.02,0.45,
2.497,-0.09,0.11,1.03,-0.55,-0.02,0.45,
2.5,-0.09,0.11,1.03,-0.52,-0.09,0.47,
2.5,-0.08,0.11,1.03,-0.52,-0.09,0.47,
2.502,-0.09,0.10,1.04,-0.52,-0.09,0.47,
2.505,-0.09,0.10,1.04,-0.52,-0.09,0.47,
2.507,-0.09,0.10,1.04,-0.54,-0.12,0.50,
2.507,-0.09,0.10,1.04,-0.54,-0.12,0.50,
2.51,-0.09,0.10,1.04,-0.57,-0.15,0.55,
2.511,-0.09,0.10,1.04,-0.57,-0.15,0.55,
2.512,-0.09,0.10,1.04,-0.57,-0.15,0.55,
2.514,-0.09,0.10,1.04,-0.57,-0.15,0.55,
2.515,-0.09,0.10,1.04,-0.58,-0.15,0.56,
2.516,-0.09,0.10,1.03,-0.58,-0.15,0.56,
2.52,-0.09,0.10,1.03,-0.61,-0.18,0.54,
2.52,-0.10,0.10,1.03,-0.61,-0.18,0.54,
2.522,-0.10,0.09,1.03,-0.61,-0.18,0.54,
2.525,-0.09,0.10,1.02,-0.61,-0.18,0.54,
2.526,-0.09,0.10,1.02,-0.65,-0.18,0.49,
2.526,-0.09,0.10,1.02,-0.65,-0.18,0.49,
2.53,-0.09,0.10,1.02,-0.63,-0.22,0.43,
2.53,-0.10,0.09,1.02,-0.63,-0.22,0.43,
2.531,-0.10,0.09,1.01,-0.63,-0.22,0.43,
2.534,-0.10,0.09,1.01,-0.63,-0.24,0.36,
2.534,-0.10,0.09,1.01,-0.63,-0.24,0.36,
2.536,-0.09,0.09,1.00,-0.63,-0.24,0.36,
2.539,-0.09,0.09,1.00,-0.63,-0.24,0.36,
2.539,-0.09,0.09,1.00,-0.66,-0.30,0.28,
2.541,-0.09,0.08,1.00,-0.66,-0.30,0.28,
2.544,-0.09,0.09,0.99,-0.66,-0.30,0.28,
2.544,-0.09,0.09,0.99,-0.60,-0.30,0.19,
2.546,-0.09,0.09,0.99,-0.60,-0.30,0.19,
2.549,-0.09,0.09,0.99,-0.61,-0.31,0.13,
2.549,-0.09,0.09,0.99,-0.61,-0.31,0.13,
2.551,-0.09,0.09,0.98,-0.61,-0.31,0.13,
2.554,-0.09,0.09,0.98,-0.61,-0.31,0.13,
2.554,-0.09,0.09,0.98,-0.57,-0.30,0.05,
2.556,-0.09,0.09,0.98,-0.57,-0.30,0.05,
2.561,-0.09,0.09,0.98,-0.59,-0.27,0.02,
2.562,-0.09,0.09,0.99,-0.59,-0.27,0.02,
2.562,-0.09,0.09,0.99,-0.59,-0.27,0.02,
2.564,-0.09,0.10,0.99,-0.59,-0.27,0.02,
2.564,-0.09,0.10,0.99,-0.59,-0.27,0.04,
2.566,-0.09,0.10,0.99,-0.59,-0.27,0.04,
2.569,-0.08,0.10,0.99,-0.59,-0.27,0.04,
2.569,-0.08,0.10,0.99,-0.58,-0.24,0.09,
2.571,-0.08,0.10,0.99,-0.58,-0.24,0.09,
2.574,-0.08,0.10,0.99,-0.58,-0.24,0.09,
2.574,-0.08,0.10,0.99,-0.52,-0.22,0.11,
2.576,-0.08,0.10,0.99,-0.52,-0.22,0.11,
2.578,-0.07,0.10,0.99,-0.52,-0.22,0.11,
2.579,-0.07,0.10,0.99,-0.49,-0.22,0.12,
2.581,-0.07,0.10,1.00,-0.49,-0.22,0.12,
2.584,-0.07,0.10,1.00,-0.44,-0.19,0.08,
2.584,-0.07,0.11,1.00,-0.44,-0.19,0.08,
2.586,-0.06,0.11,1.01,-0.44,-0.19,0.08,
2.589,-0.06,0.10,1.01,-0.44,-0.19,0.08,
2.589,-0.06,0.10,1.01,-0.39,-0.14,0.18,
2.591,-0.06,0.11,1.01,-0.39,-0.14,0.18,
2.593,-0.06,0.12,1.01,-0.39,-0.14,0.18,
2.594,-0.06,0.12,1.01,-0.32,-0.13,0.25,
2.595,-0.05,0.12,1.01,-0.32,-0.13,0.25,
2.599,-0.05,0.12,1.01,-0.28,-0.05,0.31,
2.599,-0.05,0.12,1.01,-0.28,-0.05,0.31,
2.601,-0.05,0.12,1.02,-0.28,-0.05,0.31,
2.604,-0.05,0.12,1.02,-0.28,-0.05,0.31,
2.604,-0.05,0.12,1.02,-0.22,-0.00,0.31,
2.606,-0.05,0.13,1.02,-0.22,-0.00,0.31,
2.609,-0.05,0.13,1.02,-0.20,0.01,0.36,
2.609,-0.04,0.13,1.02,-0.20,0.01,0.36,
2.611,-0.04,0.13,1.02,-0.20,0.01,0.36,
2.613,-0.04,0.13,1.02,-0.20,0.01,0.36,
2.613,-0.04,0.13,1.02,-0.14,0.07,0.37,
2.616,-0.04,0.13,1.03,-0.14,0.07,0.37,
2.619,-0.04,0.14,1.03,-0.14,0.07,0.37,
2.619,-0.04,0.14,1.03,-0.10,0.10,0.37,
2.621,-0.04,0.14,1.03,-0.10,0.10,0.37,
2.623,-0.03,0.14,1.03,-0.10,0.10,0.37,
2.624,-0.03,0.14,1.03,-0.09,0.16,0.44,
2.626,-0.03,0.15,1.03,-0.09,0.16,0.44,
2.629,-0.03,0.15,1.04,-0.09,0.16,0.44,
2.629,-0.03,0.15,1.04,-0.05,0.21,0.49,
2.631,-0.04,0.15,1.03,-0.05,0.21,0.49,
2.633,-0.04,0.15,1.03,-0.06,0.27,0.50,
2.636,-0.03,0.15,1.02,-0.06,0.27,0.50,
2.636,-0.04,0.15,1.02,-0.06,0.27,0.50,
2.638,-0.04,0.15,1.02,-0.08,0.24,0.44,
2.639,-0.04,0.15,1.02,-0.08,0.24,0.44,
2.64,-0.03,0.15,1.02,-0.08,0.24,0.44,
2.643,-0.03,0.14,1.02,-0.08,0.24,0.44,
2.643,-0.03,0.14,1.02,-0.12,0.24,0.38,
2.645,-0.04,0.14,1.01,-0.12,0.24,0.38,
2.648,-0.04,0.13,1.01,-0.12,0.24,0.38,
2.649,-0.04,0.13,1.01,-0.09,0.22,0.32,
2.65,-0.04,0.13,1.00,-0.09,0.22,0.32,
2.653,-0.05,0.12,1.00,-0.09,0.22,0.32,
2.654,-0.05,0.12,1.00,-0.16,0.12,0.24,
2.656,-0.05,0.12,1.00,-0.16,0.12,0.24,
2.658,-0.05,0.12,1.00,-0.19,0.01,0.13,
2.658,-0.05,0.11,0.99,-0.19,0.01,0.13,
2.664,-0.06,0.11,0.99,-0.19,0.01,0.13,
2.665,-0.06,0.11,0.98,-0.19,0.01,0.13,
2.665,-0.06,0.11,0.98,-0.24,-0.08,0.08,
2.665,-0.06,0.10,0.98,-0.24,-0.08,0.08,
2.668,-0.07,0.10,0.98,-0.24,-0.08,0.08,
2.669,-0.07,0.10,0.98,-0.30,-0.15,0.01,
2.67,-0.07,0.10,0.98,-0.30,-0.15,0.01,
2.673,-0.07,0.10,0.98,-0.37,-0.22,-0.05,
2.673,-0.07,0.10,0.98,-0.37,-0.22,-0.05,
2.676,-0.06,0.10,0.98,-0.37,-0.22,-0.05,
2.679,-0.07,0.10,0.98,-0.37,-0.22,-0.05,
2.679,-0.07,0.10,0.98,-0.39,-0.21,-0.04,
2.679,-0.07,0.11,0.98,-0.39,-0.21,-0.04,
2.683,-0.07,0.11,0.98,-0.37,-0.23,-0.06,
2.683,-0.07,0.11,0.98,-0.37,-0.23,-0.06,
2.684,-0.07,0.11,0.98,-0.37,-0.23,-0.06,
2.687,-0.07,0.11,0.98,-0.41,-0.17,-0.04,
2.688,-0.07,0.11,0.98,-0.41,-0.17,-0.04,
2.689,-0.07,0.11,0.99,-0.41,-0.17,-0.04,
2.693,-0.06,0.11,0.99,-0.41,-0.17,-0.04,
2.694,-0.06,0.11,0.99,-0.41,-0.15,-0.01,
2.696,-0.06,0.11,1.00,-0.41,-0.15,-0.01,
2.697,-0.05,0.12,1.00,-0.41,-0.15,-0.01,
2.698,-0.05,0.12,1.00,-0.38,-0.12,0.07,
2.699,-0.05,0.12,1.00,-0.38,-0.12,0.07,
2.702,-0.05,0.12,1.00,-0.38,-0.12,0.07,
2.703,-0.05,0.12,1.00,-0.31,-0.10,0.15,
2.704,-0.04,0.12,1.01,-0.31,-0.10,0.15,
2.708,-0.04,0.12,1.01,-0.26,-0.08,0.17,
2.709,-0.04,0.12,1.01,-0.26,-0.08,0.17,
2.711,-0.04,0.13,1.01,-0.26,-0.08,0.17,
2.712,-0.04,0.13,1.02,-0.26,-0.08,0.17,
2.712,-0.04,0.13,1.02,-0.19,-0.04,0.29,
2.714,-0.04,0.13,1.02,-0.19,-0.04,0.29,
2.717,-0.04,0.14,1.02,-0.19,-0.04,0.29,
2.718,-0.04,0.14,1.02,-0.17,-0.01,0.30,
2.719,-0.04,0.14,1.01,-0.17,-0.01,0.30,
2.722,-0.03,0.14,1.01,-0.17,-0.01,0.30,
2.722,-0.03,0.14,1.01,-0.15,0.06,0.32,
2.724,-0.04,0.14,1.01,-0.15,0.06,0.32,
2.727,-0.04,0.14,1.01,-0.15,0.06,0.32,
2.728,-0.04,0.14,1.01,-0.16,0.08,0.28,
2.729,-0.04,0.14,1.01,-0.16,0.08,0.28,
2.732,-0.04,0.14,1.01,-0.20,0.09,0.26,
2.733,-0.05,0.14,1.00,-0.20,0.09,0.26,
2.734,-0.05,0.14,1.00,-0.20,0.09,0.26,
2.737,-0.05,0.14,1.00,-0.20,0.09,0.26,
2.738,-0.05,0.14,1.00,-0.27,0.06,0.22,
2.739,-0.05,0.14,0.99,-0.27,0.06,0.22,
2.743,-0.05,0.14,0.99,-0.27,0.06,0.22,
2.744,-0.05,0.14,0.99,-0.31,0.08,0.15,
2.744,-0.04,0.14,0.99,-0.31,0.08,0.15,
2.747,-0.04,0.14,0.98,-0.31,0.08,0.15,
2.747,-0.04,0.14,0.98,-0.31,0.03,0.09,
2.749,-0.04,0.14,0.98,-0.31,0.03,0.09,
2.752,-0.04,0.14,0.98,-0.31,0.03,0.09,
2.752,-0.04,0.14,0.98,-0.26,0.02,-0.01,
2.754,-0.04,0.14,0.97,-0.26,0.02,-0.01,
2.757,-0.04,0.14,0.97,-0.25,-0.01,-0.08,
2.757,-0.04,0.14,0.96,-0.25,-0.01,-0.08,
2.76,-0.04,0.14,0.97,-0.25,-0.01,-0.08,
2.762,-0.04,0.14,0.96,-0.25,-0.01,-0.08,
2.762,-0.04,0.14,0.96,-0.23,0.01,-0.16,
2.764,-0.03,0.14,0.95,-0.23,0.01,-0.16,
2.767,-0.03,0.14,0.95,-0.23,0.01,-0.16,
2.768,-0.03,0.14,0.95,-0.24,-0.01,-0.22,
2.769,-0.03,0.14,0.94,-0.24,-0.01,-0.22,
2.771,-0.03,0.14,0.94,-0.24,-0.01,-0.22,
2.772,-0.03,0.14,0.94,-0.18,0.02,-0.35,
2.774,-0.03,0.14,0.94,-0.18,0.02,-0.35,
2.788,-0.03,0.14,0.94,-0.18,0.02,-0.35,
2.789,-0.03,0.14,0.94,-0.17,0.00,-0.43,
2.789,-0.03,0.14,0.93,-0.17,0.00,-0.43,
2.79,-0.03,0.14,0.93,-0.13,-0.02,-0.45,
2.791,-0.03,0.13,0.93,-0.13,-0.02,-0.45,
2.791,-0.03,0.13,0.95,-0.13,-0.02,-0.45,
2.792,-0.03,0.13,0.94,-0.13,-0.02,-0.45,
2.793,-0.03,0.13,0.94,-0.13,-0.06,-0.48,
2.793,-0.03,0.13,0.94,-0.13,-0.06,-0.48,
2.793,-0.03,0.13,0.95,-0.13,-0.06,-0.48,
2.794,-0.03,0.13,0.95,-0.11,-0.07,-0.36,
2.794,-0.03,0.13,0.95,-0.11,-0.07,-0.36,
2.809,-0.03,0.14,0.97,-0.11,-0.07,-0.36,
2.81,-0.03,0.14,0.97,-0.14,-0.09,-0.33,
2.814,-0.03,0.13,0.97,-0.14,-0.09,-0.33,
2.814,-0.03,0.14,0.97,-0.14,-0.09,-0.33,
2.815,-0.03,0.14,0.97,-0.14,-0.06,-0.21,
2.816,-0.02,0.14,0.99,-0.14,-0.06,-0.21,
2.816,-0.02,0.14,0.99,-0.13,-0.04,-0.10,
2.816,-0.02,0.13,0.99,-0.13,-0.04,-0.10,
2.817,-0.02,0.14,1.00,-0.13,-0.04,-0.10,
2.817,-0.01,0.14,1.00,-0.13,-0.04,-0.10,
2.818,-0.01,0.14,1.00,-0.07,-0.05,0.08,
2.818,-0.01,0.13,1.00,-0.07,-0.05,0.08,
2.818,-0.01,0.13,1.01,-0.07,-0.05,0.08,
2.819,-0.01,0.13,1.01,-0.04,-0.04,0.18,
2.819,-0.01,0.13,1.02,-0.04,-0.04,0.18,
2.821,-0.01,0.13,1.02,0.02,-0.08,0.26,
2.821,-0.01,0.14,1.03,0.02,-0.08,0.26,
2.823,-0.01,0.13,1.03,0.02,-0.08,0.26,
2.831,-0.01,0.13,1.03,0.02,-0.08,0.26,
2.831,-0.01,0.13,1.03,0.02,-0.06,0.38,
2.832,-0.01,0.13,1.03,0.02,-0.06,0.38,
2.832,-0.01,0.13,1.03,0.02,-0.08,0.43,
2.832,-0.01,0.13,1.03,0.02,-0.08,0.43,
2.833,-0.01,0.13,1.02,0.02,-0.08,0.43,
2.837,-0.01,0.13,1.02,-0.01,-0.09,0.43,
2.837,-0.00,0.12,1.03,-0.01,-0.09,0.43,
2.838,-0.00,0.13,1.03,-0.01,-0.09,0.43,
2.841,-0.01,0.13,1.02,-0.01,-0.09,0.43,
2.841,-0.01,0.13,1.02,0.03,-0.15,0.40,
2.843,-0.00,0.13,1.02,0.03,-0.15,0.40,
2.846,-0.00,0.13,1.02,0.03,-0.15,0.40,
2.846,-0.00,0.13,1.02,0.02,-0.09,0.42,
2.848,0.00,0.13,1.01,0.02,-0.09,0.42,
2.851,0.00,0.14,1.01,0.02,-0.09,0.42,
2.851,0.00,0.14,1.01,0.03,-0.14,0.32,
2.853,0.00,0.14,1.01,0.03,-0.14,0.32,
2.856,0.00,0.14,1.01,0.07,-0.06,0.28,
2.856,-0.00,0.14,1.00,0.07,-0.06,0.28,
2.858,-0.00,0.14,1.00,0.07,-0.06,0.28,
2.861,-0.00,0.14,0.99,0.07,-0.06,0.28,
2.861,-0.00,0.14,0.99,0.04,-0.05,0.18,
2.863,-0.00,0.15,0.99,0.04,-0.05,0.18,
2.865,-0.00,0.15,0.98,0.04,-0.05,0.18,
2.866,-0.00,0.15,0.98,0.02,-0.02,0.10,
2.868,-0.00,0.15,0.97,0.02,-0.02,0.10,
2.871,-0.00,0.15,0.97,0.01,0.03,0.01,
2.871,-0.00,0.15,0.97,0.01,0.03,0.01,
2.873,-0.00,0.14,0.97,0.01,0.03,0.01,
2.881,-0.00,0.15,0.97,0.01,0.03,0.01,
2.881,-0.00,0.15,0.97,-0.00,0.03,-0.09,
2.882,-0.00,0.14,0.97,-0.00,0.03,-0.09,
2.882,-0.00,0.14,0.97,-0.00,0.03,-0.09,
2.882,-0.00,0.14,0.97,-0.01,-0.01,-0.13,
2.882,-0.00,0.14,0.96,-0.01,-0.01,-0.13,
2.885,-0.00,0.14,0.96,0.00,-0.04,-0.16,
2.886,-0.00,0.14,0.96,0.00,-0.04,-0.16,
2.888,-0.01,0.14,0.96,0.00,-0.04,-0.16,
2.891,-0.00,0.14,0.97,0.00,-0.04,-0.16,
2.891,-0.00,0.14,0.97,-0.00,-0.04,-0.20,
2.895,-0.01,0.14,0.97,-0.00,-0.04,-0.20,
2.895,-0.01,0.14,0.97,-0.00,-0.04,-0.20,
2.895,-0.01,0.14,0.97,-0.04,-0.06,-0.18,
2.898,-0.01,0.14,0.97,-0.04,-0.06,-0.18,
2.901,-0.01,0.14,0.97,-0.05,-0.06,-0.12,
2.901,-0.01,0.14,0.97,-0.05,-0.06,-0.12,
2.903,-0.01,0.13,0.97,-0.05,-0.06,-0.12,
2.905,-0.01,0.13,0.97,-0.09,-0.09,-0.11,
2.905,-0.01,0.13,0.98,-0.09,-0.09,-0.11,
2.908,-0.01,0.13,0.99,-0.09,-0.09,-0.11,
2.91,-0.01,0.14,0.98,-0.09,-0.09,-0.11,
2.91,-0.01,0.14,0.98,-0.05,-0.12,-0.08,
2.913,-0.00,0.14,0.98,-0.05,-0.12,-0.08,
2.916,-0.01,0.14,0.98,-0.05,-0.12,-0.08,
2.916,-0.01,0.14,0.98,-0.06,-0.11,0.01,
2.917,-0.00,0.14,0.99,-0.06,-0.11,0.01,
2.92,0.00,0.14,1.00,-0.06,-0.11,0.01,
2.921,0.00,0.14,1.00,-0.03,-0.07,0.01,
2.923,-0.00,0.14,0.99,-0.03,-0.07,0.01,
2.925,0.00,0.14,1.00,-0.03,-0.07,0.01,
2.925,0.00,0.14,1.00,-0.01,-0.07,0.12,
2.927,0.01,0.15,1.00,-0.01,-0.07,0.12,
2.93,0.01,0.15,1.00,-0.01,-0.04,0.13,
2.93,0.01,0.15,0.99,-0.01,-0.04,0.13,
2.933,0.02,0.15,1.00,-0.01,-0.04,0.13,
2.936,0.02,0.15,1.00,0.09,0.03,0.13,
2.936,0.03,0.16,1.00,0.09,0.03,0.13,
2.938,0.03,0.16,1.00,0.09,0.03,0.13,
2.94,0.04,0.17,1.01,0.09,0.03,0.13,
2.94,0.04,0.17,1.01,0.21,0.10,0.15,
2.942,0.05,0.17,1.01,0.21,0.10,0.15,
2.945,0.06,0.17,1.01,0.21,0.10,0.15,
2.946,0.06,0.17,1.01,0.35,0.17,0.21,
2.947,0.06,0.17,1.01,0.35,0.17,0.21,
2.95,0.06,0.17,1.01,0.50,0.23,0.25,
2.95,0.07,0.18,1.01,0.50,0.23,0.25,
2.952,0.07,0.19,1.02,0.50,0.23,0.25,
2.955,0.07,0.19,1.02,0.60,0.28,0.29,
2.956,0.07,0.19,1.02,0.60,0.28,0.29,
2.957,0.08,0.19,1.02,0.60,0.28,0.29,
2.96,0.08,0.19,1.02,0.64,0.38,0.35,
2.961,0.08,0.19,1.02,0.64,0.38,0.35,
2.961,0.08,0.20,1.02,0.64,0.38,0.35,
2.965,0.08,0.20,1.02,0.64,0.38,0.35,
2.965,0.08,0.20,1.02,0.73,0.40,0.36,
2.967,0.08,0.20,1.01,0.73,0.40,0.36,
2.97,0.08,0.20,1.01,0.73,0.40,0.36,
2.97,0.08,0.20,1.01,0.74,0.50,0.36,
2.972,0.07,0.20,1.01,0.74,0.50,0.36,
2.975,0.07,0.20,1.00,0.74,0.50,0.36,
2.975,0.07,0.20,1.00,0.72,0.50,0.26,
2.977,0.07,0.19,1.00,0.72,0.50,0.26,
2.979,0.07,0.19,1.00,0.67,0.47,0.17,
2.979,0.07,0.19,1.00,0.67,0.47,0.17,
2.981,0.06,0.19,0.99,0.67,0.47,0.17,
2.984,0.06,0.18,1.00,0.67,0.47,0.17,
2.984,0.06,0.18,1.00,0.60,0.37,0.14,
2.986,0.06,0.18,0.99,0.60,0.37,0.14,
2.989,0.05,0.18,0.99,0.60,0.37,0.14,
2.989,0.05,0.18,0.99,0.54,0.34,0.10,
3.001,0.05,0.17,0.99,0.54,0.34,0.10,
3.002,0.05,0.17,0.99,0.54,0.34,0.10,
3.003,0.05,0.17,0.99,0.47,0.26,0.07,
3.003,0.04,0.18,0.98,0.47,0.26,0.07,
3.003,0.04,0.17,0.99,0.47,0.26,0.07,
3.004,0.04,0.17,0.99,0.40,0.23,0.05,
3.005,0.03,0.17,0.99,0.40,0.23,0.05,
3.005,0.03,0.17,0.99,0.33,0.22,0.03,
3.005,0.03,0.17,0.99,0.33,0.22,0.03,
3.006,0.03,0.17,0.99,0.33,0.22,0.03,
3.019,0.03,0.17,1.00,0.33,0.22,0.03,
3.019,0.03,0.17,1.00,0.23,0.17,0.07,
3.02,0.02,0.16,0.99,0.23,0.17,0.07,
3.02,0.03,0.17,0.99,0.23,0.17,0.07,
3.021,0.03,0.17,0.99,0.22,0.18,0.07,
3.021,0.02,0.17,0.99,0.22,0.18,0.07,
3.021,0.03,0.17,0.99,0.22,0.18,0.07,
3.022,0.03,0.17,0.99,0.17,0.15,0.06,
3.022,0.03,0.17,0.99,0.17,0.15,0.06,
3.024,0.02,0.17,0.99,0.17,0.15,0.06,
3.024,0.02,0.17,0.99,0.17,0.15,0.07,
3.027,0.03,0.16,0.99,0.17,0.15,0.07,
3.029,0.03,0.16,0.99,0.18,0.14,0.04,
3.029,0.02,0.16,0.98,0.18,0.14,0.04,
3.031,0.02,0.15,0.97,0.18,0.14,0.04,
3.033,0.02,0.15,0.97,0.18,0.14,0.04,
3.034,0.02,0.15,0.97,0.18,0.09,-0.01,
3.036,0.02,0.16,0.96,0.18,0.09,-0.01,
3.039,0.01,0.15,0.96,0.18,0.09,-0.01,
3.039,0.01,0.15,0.96,0.11,0.00,-0.17,
3.041,0.01,0.15,0.95,0.11,0.00,-0.17,
3.043,0.00,0.15,0.94,0.11,0.00,-0.17,
3.044,0.00,0.15,0.94,0.05,-0.00,-0.24,
3.046,0.00,0.14,0.94,0.05,-0.00,-0.24,
3.048,0.00,0.15,0.94,0.05,-0.00,-0.24,
3.049,0.00,0.15,0.94,-0.01,-0.04,-0.39,
3.051,-0.00,0.15,0.94,-0.01,-0.04,-0.39,
3.054,-0.00,0.15,0.94,-0.05,-0.08,-0.39,
3.054,-0.00,0.14,0.94,-0.05,-0.08,-0.39,
3.056,0.00,0.14,0.95,-0.05,-0.08,-0.39,
3.06,0.00,0.14,0.95,-0.05,-0.08,-0.39,
3.06,0.00,0.14,0.95,-0.10,-0.07,-0.42,
3.061,0.00,0.14,0.95,-0.10,-0.07,-0.42,
3.063,-0.00,0.14,0.96,-0.10,-0.07,-0.42,
3.064,-0.00,0.14,0.96,-0.04,-0.11,-0.33,
3.066,0.00,0.13,0.95,-0.04,-0.11,-0.33,
3.068,-0.00,0.13,0.95,-0.04,-0.11,-0.33,
3.069,-0.00,0.13,0.95,-0.07,-0.15,-0.29,
3.071,-0.01,0.13,0.95,-0.07,-0.15,-0.29,
3.073,-0.01,0.13,0.95,-0.07,-0.15,-0.29,
3.074,-0.01,0.13,0.95,-0.08,-0.19,-0.32,
3.077,-0.01,0.13,0.95,-0.08,-0.19,-0.32,
3.079,-0.01,0.13,0.95,-0.15,-0.19,-0.31,
3.079,-0.01,0.13,0.96,-0.15,-0.19,-0.31,
3.081,-0.01,0.14,0.95,-0.15,-0.19,-0.31,
3.084,-0.01,0.13,0.96,-0.15,-0.19,-0.31,
3.084,-0.01,0.13,0.96,-0.17,-0.19,-0.27,
3.085,-0.01,0.13,0.96,-0.17,-0.19,-0.27,
3.089,-0.01,0.14,0.96,-0.17,-0.19,-0.27,
3.09,-0.01,0.14,0.96,-0.21,-0.18,-0.24,
3.091,-0.01,0.14,0.97,-0.21,-0.18,-0.24,
3.094,-0.02,0.14,0.97,-0.21,-0.18,-0.24,
3.096,-0.02,0.14,0.97,-0.19,-0.14,-0.19,
3.097,-0.01,0.14,0.97,-0.19,-0.14,-0.19,
3.099,-0.01,0.14,0.98,-0.19,-0.14,-0.19,
3.099,-0.01,0.14,0.98,-0.21,-0.14,-0.14,
3.1,-0.00,0.15,0.99,-0.21,-0.14,-0.14,
3.104,-0.00,0.15,0.99,-0.15,-0.07,-0.05,
3.105,0.00,0.14,0.99,-0.15,-0.07,-0.05,
3.106,0.00,0.15,0.99,-0.15,-0.07,-0.05,
3.108,0.01,0.15,0.99,-0.15,-0.07,-0.05,
3.109,0.01,0.15,0.99,-0.07,-0.04,0.04,
3.121,0.02,0.16,1.00,-0.07,-0.04,0.04,
3.123,0.01,0.16,1.00,-0.07,-0.04,0.04,
3.123,0.01,0.16,1.00,0.01,0.03,0.08,
3.124,0.02,0.16,1.01,0.01,0.03,0.08,
3.124,0.02,0.16,1.01,0.08,0.10,0.16,
3.125,0.02,0.16,1.02,0.08,0.10,0.16,
3.125,0.02,0.17,1.01,0.08,0.10,0.16,
3.126,0.02,0.17,1.02,0.08,0.10,0.16,
3.126,0.02,0.17,1.02,0.11,0.14,0.29,
3.127,0.02,0.17,1.02,0.11,0.14,0.29,
3.14,0.02,0.17,1.02,0.12,0.21,0.31,
3.146,0.02,0.17,1.02,0.12,0.21,0.31,
3.148,0.02,0.17,1.02,0.12,0.21,0.31,
3.149,0.02,0.17,1.03,0.12,0.21,0.31,
3.149,0.02,0.17,1.03,0.14,0.21,0.37,
3.149,0.02,0.17,1.03,0.14,0.21,0.37,
3.15,0.02,0.17,1.02,0.14,0.21,0.37,
3.15,0.02,0.17,1.02,0.15,0.20,0.38,
3.151,0.02,0.17,1.01,0.15,0.20,0.38,
3.151,0.02,0.17,1.02,0.15,0.20,0.38,
3.151,0.02,0.17,1.02,0.16,0.18,0.36,
3.152,0.02,0.16,1.01,0.16,0.18,0.36,
3.152,0.02,0.16,1.01,0.16,0.18,0.36,
3.152,0.02,0.16,1.01,0.14,0.20,0.30,
3.153,0.02,0.16,1.00,0.14,0.20,0.30,
3.153,0.02,0.16,1.00,0.12,0.14,0.26,
3.153,0.01,0.16,1.00,0.12,0.14,0.26,
3.156,0.01,0.16,1.00,0.12,0.14,0.26,
3.158,0.01,0.15,0.99,0.12,0.14,0.26,
3.158,0.01,0.15,0.99,0.08,0.09,0.18,
3.161,0.01,0.15,0.99,0.08,0.09,0.18,
3.163,0.01,0.15,0.98,0.08,0.09,0.18,
3.163,0.01,0.15,0.98,0.04,0.06,0.08,
3.165,0.00,0.15,0.97,0.04,0.06,0.08,
3.168,-0.00,0.15,0.98,0.04,0.06,0.08,
3.168,-0.00,0.15,0.98,0.04,0.01,-0.03,
3.17,-0.00,0.15,0.98,0.04,0.01,-0.03,
3.175,-0.00,0.15,0.97,0.04,0.01,-0.03,
3.176,-0.00,0.15,0.97,-0.05,-0.01,-0.11,
3.176,-0.01,0.14,0.97,-0.05,-0.01,-0.11,
3.177,-0.01,0.14,0.97,-0.05,-0.01,-0.11,
3.178,-0.01,0.14,0.97,-0.09,-0.04,-0.12,
3.18,-0.01,0.14,0.97,-0.09,-0.04,-0.12,
3.183,-0.01,0.14,0.97,-0.14,-0.10,-0.14,
3.183,-0.01,0.13,0.97,-0.14,-0.10,-0.14,
3.185,-0.02,0.13,0.97,-0.14,-0.10,-0.14,
3.188,-0.02,0.13,0.97,-0.14,-0.10,-0.14,
3.188,-0.02,0.13,0.97,-0.19,-0.15,-0.18,
3.19,-0.03,0.13,0.97,-0.19,-0.15,-0.18,
3.195,-0.03,0.13,0.97,-0.27,-0.15,-0.14,
3.195,-0.03,0.14,0.97,-0.27,-0.15,-0.14,
3.196,-0.02,0.13,0.97,-0.27,-0.15,-0.14,
3.198,-0.02,0.13,0.98,-0.27,-0.15,-0.14,
3.198,-0.02,0.13,0.98,-0.32,-0.15,-0.16,
3.2,-0.02,0.13,0.98,-0.32,-0.15,-0.16,
3.203,-0.02,0.13,0.98,-0.29,-0.19,-0.07,
3.204,-0.02,0.13,0.98,-0.29,-0.19,-0.07,
3.205,-0.02,0.14,0.98,-0.29,-0.19,-0.07,
3.208,-0.02,0.14,0.98,-0.28,-0.18,-0.02,
3.208,-0.01,0.14,0.98,-0.28,-0.18,-0.02,
3.21,-0.01,0.14,0.98,-0.28,-0.18,-0.02,
3.216,-0.00,0.14,0.98,-0.28,-0.18,-0.02,
3.217,-0.00,0.14,0.98,-0.23,-0.11,-0.03,
3.217,0.00,0.14,0.99,-0.23,-0.11,-0.03,
3.218,0.00,0.14,0.99,-0.23,-0.11,-0.03,
3.218,0.00,0.14,0.99,-0.16,-0.11,-0.02,
3.219,0.01,0.14,0.99,-0.16,-0.11,-0.02,
3.222,0.01,0.15,1.00,-0.16,-0.11,-0.02,
3.223,0.01,0.15,1.00,-0.08,-0.09,0.06,
3.224,0.02,0.15,1.00,-0.08,-0.09,0.06,
3.228,0.02,0.15,1.00,-0.08,-0.09,0.06,
3.229,0.02,0.15,1.00,-0.01,-0.02,0.12,
3.23,0.02,0.15,1.00,-0.01,-0.02,0.12,
3.232,0.02,0.15,1.00,-0.01,-0.02,0.12,
3.233,0.02,0.15,1.00,0.09,0.01,0.13,
3.235,0.02,0.16,1.01,0.09,0.01,0.13,
3.238,0.02,0.15,1.01,0.09,0.01,0.13,
3.238,0.02,0.15,1.01,0.09,0.04,0.16,
3.24,0.03,0.16,1.01,0.09,0.04,0.16,
3.242,0.03,0.16,1.01,0.09,0.04,0.16,
3.242,0.03,0.16,1.01,0.12,0.10,0.23,
3.245,0.03,0.16,1.01,0.12,0.10,0.23,
3.248,0.02,0.16,1.01,0.12,0.10,0.23,
3.248,0.02,0.16,1.01,0.18,0.12,0.25,
3.249,0.03,0.16,1.02,0.18,0.12,0.25,
3.252,0.03,0.16,1.02,0.16,0.13,0.28,
3.252,0.03,0.16,1.01,0.16,0.13,0.28,
3.255,0.04,0.16,1.01,0.16,0.13,0.28,
3.258,0.03,0.16,1.02,0.16,0.13,0.28,
3.258,0.03,0.16,1.02,0.17,0.17,0.28,
3.259,0.03,0.16,1.01,0.17,0.17,0.28,
3.262,0.03,0.15,1.02,0.17,0.17,0.28,
3.262,0.03,0.15,1.02,0.23,0.14,0.28,
3.265,0.03,0.15,1.01,0.23,0.14,0.28,
3.267,0.03,0.16,1.01,0.23,0.14,0.28,
3.267,0.03,0.16,1.01,0.20,0.10,0.28,
3.27,0.03,0.15,1.00,0.20,0.10,0.28,
3.273,0.02,0.15,1.00,0.20,0.10,0.28,
3.273,0.02,0.15,1.00,0.21,0.09,0.24,
3.275,0.02,0.15,1.01,0.21,0.09,0.24,
3.279,0.02,0.15,1.01,0.14,0.03,0.15,
3.28,0.02,0.15,1.00,0.14,0.03,0.15,
3.28,0.02,0.15,1.00,0.14,0.03,0.15,
3.282,0.01,0.15,0.99,0.14,0.03,0.15,
3.282,0.01,0.15,0.99,0.05,0.04,0.15,
3.284,0.01,0.15,0.99,0.05,0.04,0.15,
3.288,0.01,0.15,0.99,0.04,-0.01,0.08,
3.288,0.00,0.14,0.99,0.04,-0.01,0.08,
3.29,0.01,0.14,0.99,0.04,-0.01,0.08,
3.292,0.01,0.14,0.99,-0.03,-0.03,0.06,
3.293,0.01,0.14,0.99,-0.03,-0.03,0.06,
3.297,0.01,0.13,0.99,-0.03,-0.03,0.06,
3.297,0.01,0.13,0.98,-0.03,-0.03,0.06,
3.297,0.01,0.13,0.98,-0.02,-0.08,0.06,
3.301,0.01,0.13,0.99,-0.02,-0.08,0.06,
3.302,0.01,0.13,0.99,-0.03,-0.14,0.01,
3.302,0.01,0.13,0.99,-0.03,-0.14,0.01,
3.304,0.01,0.13,0.99,-0.03,-0.14,0.01,
3.307,0.01,0.13,0.99,-0.03,-0.14,0.01,
3.307,0.01,0.13,0.99,-0.03,-0.14,-0.01,
3.308,0.01,0.14,0.99,-0.03,-0.14,-0.01,
3.311,0.01,0.14,0.99,-0.03,-0.14,-0.01,
3.312,0.01,0.14,0.99,-0.00,-0.15,0.01,
3.314,0.00,0.14,0.98,-0.00,-0.15,0.01,
3.317,-0.00,0.14,0.99,-0.00,-0.15,0.01,
3.317,-0.00,0.14,0.99,-0.05,-0.11,-0.00,
3.319,-0.00,0.14,0.99,-0.05,-0.11,-0.00,
3.322,-0.00,0.15,0.99,-0.05,-0.11,-0.00,
3.322,-0.00,0.15,0.99,-0.09,-0.06,-0.01,
3.324,-0.01,0.14,1.00,-0.09,-0.06,-0.01,
3.327,-0.01,0.14,1.00,-0.13,-0.03,0.01,
3.327,-0.01,0.14,0.99,-0.13,-0.03,0.01,
3.333,-0.00,0.14,0.99,-0.13,-0.03,0.01,
3.334,-0.01,0.14,0.99,-0.13,-0.03,0.01,
3.334,-0.01,0.14,0.99,-0.16,-0.05,0.08,
3.334,-0.01,0.14,0.99,-0.16,-0.05,0.08,
3.337,-0.00,0.14,0.99,-0.16,-0.05,0.08,
3.337,-0.00,0.14,0.99,-0.15,-0.08,0.04,
3.338,-0.00,0.14,0.99,-0.15,-0.08,0.04,
3.342,-0.00,0.14,0.99,-0.15,-0.08,0.04,
3.342,-0.00,0.14,0.99,-0.15,-0.11,0.02,
3.345,-0.00,0.14,0.98,-0.15,-0.11,0.02,
3.346,-0.00,0.14,0.98,-0.15,-0.11,0.02,
3.346,-0.00,0.14,0.98,-0.13,-0.11,0.01,
3.348,-0.00,0.14,0.98,-0.13,-0.11,0.01,
3.351,-0.00,0.14,0.98,-0.12,-0.08,-0.05,
3.352,0.00,0.14,0.98,-0.12,-0.08,-0.05,
3.353,-0.00,0.14,0.98,-0.12,-0.08,-0.05,
3.356,0.01,0.14,0.99,-0.12,-0.08,-0.05,
3.356,0.01,0.14,0.99,-0.08,-0.10,-0.03,
3.358,0.01,0.14,0.99,-0.08,-0.10,-0.03,
3.362,0.01,0.14,0.98,-0.08,-0.10,-0.03,
3.363,0.01,0.14,0.98,-0.06,-0.09,-0.00,
3.364,0.02,0.14,0.99,-0.06,-0.09,-0.00,
3.366,0.02,0.14,0.99,-0.06,-0.09,-0.00,
3.367,0.02,0.14,0.99,0.01,-0.08,-0.01,
3.368,0.02,0.14,0.99,0.01,-0.08,-0.01,
3.371,0.02,0.14,0.99,0.01,-0.08,-0.01,
3.371,0.02,0.14,0.99,0.08,-0.06,0.02,
3.373,0.01,0.14,0.99,0.08,-0.06,0.02,
3.377,0.01,0.14,0.99,0.11,-0.04,0.06,
3.377,0.02,0.15,0.99,0.11,-0.04,0.06,
3.379,0.01,0.15,0.99,0.11,-0.04,0.06,
3.381,0.01,0.15,0.99,0.11,-0.04,0.06,
3.381,0.01,0.15,0.99,0.06,-0.01,0.04,
3.384,0.01,0.16,0.99,0.06,-0.01,0.04,
3.386,0.00,0.16,0.99,0.06,-0.01,0.04,
3.386,0.00,0.16,0.99,0.03,0.03,0.06,
3.388,0.00,0.16,0.99,0.03,0.03,0.06,
3.391,0.00,0.16,0.99,0.03,0.03,0.06,
3.391,0.00,0.16,0.99,-0.02,0.09,0.04,
3.393,0.00,0.16,0.99,-0.02,0.09,0.04,
3.396,-0.00,0.15,0.99,-0.02,0.09,0.04,
3.396,-0.00,0.15,0.99,-0.04,0.07,0.05,
3.398,0.00,0.15,0.99,-0.04,0.07,0.05,
3.401,0.00,0.15,0.99,-0.06,0.09,0.03,
3.401,-0.00,0.15,0.99,-0.06,0.09,0.03,
3.404,0.00,0.15,0.99,-0.06,0.09,0.03,
3.406,-0.00,0.14,0.99,-0.06,0.09,0.03,
3.406,-0.00,0.14,0.99,-0.07,0.05,0.03,
3.408,0.00,0.14,0.99,-0.07,0.05,0.03,
3.413,0.00,0.15,0.98,-0.07,0.05,0.03,
3.414,0.00,0.15,0.98,-0.07,-0.01,0.03,
3.414,0.00,0.14,0.99,-0.07,-0.01,0.03,
3.416,0.00,0.14,0.99,-0.07,-0.01,0.03,
3.416,0.00,0.14,0.99,-0.03,-0.04,-0.01,
3.418,-0.00,0.14,0.99,-0.03,-0.04,-0.01,
3.421,-0.00,0.14,0.99,-0.03,-0.04,-0.01,
3.421,-0.00,0.14,0.99,-0.03,-0.10,0.04,
3.423,-0.00,0.14,0.99,-0.03,-0.10,0.04,
3.426,-0.00,0.14,0.99,-0.08,-0.06,0.05,
3.426,-0.00,0.15,0.99,-0.08,-0.06,0.05,
3.434,-0.01,0.14,1.00,-0.08,-0.06,0.05,
3.435,-0.01,0.14,0.99,-0.08,-0.06,0.05,
3.435,-0.01,0.14,0.99,-0.10,-0.03,0.04,
3.435,-0.01,0.14,0.99,-0.10,-0.03,0.04,
3.436,-0.01,0.14,0.99,-0.10,-0.03,0.04,
3.436,-0.01,0.14,0.99,-0.16,-0.06,0.09,
3.437,-0.00,0.14,0.98,-0.16,-0.06,0.09,
3.44,-0.00,0.14,0.99,-0.16,-0.06,0.09,
3.44,-0.00,0.14,0.99,-0.14,-0.08,0.02,
3.442,-0.00,0.13,0.98,-0.14,-0.08,0.02,
3.446,-0.00,0.14,0.98,-0.14,-0.08,0.02,
3.447,-0.00,0.14,0.98,-0.09,-0.10,-0.02,
3.447,-0.00,0.14,0.97,-0.09,-0.10,-0.02,
3.45,-0.00,0.14,0.97,-0.08,-0.11,-0.03,
3.45,-0.01,0.14,0.97,-0.08,-0.11,-0.03,
3.453,0.00,0.14,0.98,-0.08,-0.11,-0.03,
3.455,0.01,0.14,0.97,-0.08,-0.11,-0.03,
3.455,0.01,0.14,0.97,-0.11,-0.11,-0.12,
3.457,0.00,0.14,0.97,-0.11,-0.11,-0.12,
3.46,0.00,0.15,0.96,-0.11,-0.11,-0.12,
3.46,0.00,0.15,0.96,-0.02,-0.10,-0.11,
3.462,0.01,0.15,0.97,-0.02,-0.10,-0.11,
3.465,0.00,0.15,0.96,-0.02,-0.10,-0.11,
3.465,0.00,0.15,0.96,-0.03,-0.05,-0.20,
3.467,0.01,0.15,0.96,-0.03,-0.05,-0.20,
3.47,0.01,0.15,0.96,-0.03,-0.05,-0.20,
3.471,0.01,0.15,0.96,-0.02,-0.01,-0.21,
3.472,0.01,0.15,0.97,-0.02,-0.01,-0.21,
3.475,0.01,0.15,0.97,-0.01,0.02,-0.22,
3.475,0.00,0.16,0.96,-0.01,0.02,-0.22,
3.478,0.00,0.16,0.96,-0.01,0.02,-0.22,
3.479,0.01,0.16,0.96,-0.01,0.02,-0.22,
3.48,0.01,0.16,0.96,-0.01,0.05,-0.21,
3.482,0.00,0.16,0.96,-0.01,0.05,-0.21,
3.485,0.00,0.16,0.96,-0.01,0.05,-0.21,
3.485,0.00,0.16,0.96,0.01,0.07,-0.26,
3.487,0.00,0.16,0.96,0.01,0.07,-0.26,
3.49,0.00,0.16,0.97,0.01,0.07,-0.26,
3.49,0.00,0.16,0.97,-0.03,0.09,-0.21,
3.491,0.00,0.16,0.97,-0.03,0.09,-0.21,
3.495,0.00,0.16,0.97,-0.03,0.09,-0.21,
3.496,0.00,0.16,0.97,-0.02,0.08,-0.20,
3.496,0.00,0.16,0.98,-0.02,0.08,-0.20,
3.5,0.00,0.16,0.98,-0.02,0.11,-0.14,
3.5,-0.00,0.16,0.98,-0.02,0.11,-0.14,
3.501,-0.00,0.16,0.98,-0.02,0.11,-0.14,
3.504,-0.00,0.15,0.98,-0.02,0.11,-0.14,
3.504,-0.00,0.15,0.98,-0.08,0.08,-0.06,
3.507,0.00,0.16,0.98,-0.08,0.08,-0.06,
3.509,-0.00,0.16,0.99,-0.08,0.08,-0.06,
3.51,-0.00,0.16,0.99,-0.07,0.06,-0.05,
3.511,0.00,0.16,0.99,-0.07,0.06,-0.05,
3.514,0.00,0.15,0.99,-0.07,0.06,-0.05,
3.515,0.00,0.15,0.99,-0.05,0.08,-0.01,
3.517,0.00,0.15,0.98,-0.05,0.08,-0.01,
3.52,0.01,0.15,0.99,-0.05,0.08,-0.01,
3.52,0.01,0.15,0.99,-0.05,0.05,0.01,
3.522,0.00,0.15,0.99,-0.05,0.05,0.01,
3.525,0.00,0.15,1.00,-0.05,0.05,0.01,
3.525,0.00,0.15,1.00,-0.02,0.01,0.02,
3.527,0.01,0.15,0.99,-0.02,0.01,0.02,
3.532,0.01,0.15,0.99,-0.02,0.01,0.02,
3.532,0.01,0.15,0.99,-0.02,-0.02,0.08,
3.532,0.01,0.15,1.00,-0.02,-0.02,0.08,
3.534,0.01,0.15,1.00,-0.02,-0.02,0.08,
3.535,0.01,0.15,1.00,0.03,0.01,0.07,
3.536,0.01,0.15,1.00,0.03,0.01,0.07,
3.539,0.01,0.15,0.99,0.03,0.01,0.07,
3.539,0.01,0.15,0.99,0.05,-0.00,0.11,
3.541,0.01,0.15,0.99,0.05,-0.00,0.11,
3.544,0.01,0.14,0.98,0.05,-0.00,0.11,
3.544,0.01,0.14,0.98,0.04,0.00,0.08,
3.547,0.02,0.14,0.98,0.04,0.00,0.08,
3.549,0.02,0.14,0.98,0.06,-0.04,0.00,
3.549,0.02,0.15,0.98,0.06,-0.04,0.00,
3.551,0.02,0.15,0.97,0.06,-0.04,0.00,
3.555,0.01,0.16,0.97,0.06,-0.04,0.00,
3.555,0.01,0.16,0.97,0.10,-0.04,-0.09,
3.556,0.01,0.16,0.97,0.10,-0.04,-0.09,
3.56,0.01,0.16,0.96,0.10,-0.04,-0.09,
3.56,0.01,0.16,0.96,0.08,0.02,-0.14,
3.563,0.01,0.16,0.95,0.08,0.02,-0.14,
3.564,0.01,0.16,0.95,0.08,0.02,-0.14,
3.564,0.01,0.16,0.95,0.07,0.05,-0.23,
3.567,0.01,0.16,0.95,0.07,0.05,-0.23,
3.569,0.02,0.16,0.94,0.07,0.05,-0.23,
3.569,0.02,0.16,0.94,0.07,0.07,-0.32,
3.571,0.01,0.16,0.94,0.07,0.07,-0.32,
3.575,0.01,0.16,0.94,0.11,0.08,-0.36,
3.575,0.01,0.17,0.94,0.11,0.08,-0.36,
3.576,0.01,0.16,0.94,0.11,0.08,-0.36,
3.579,0.01,0.16,0.94,0.11,0.08,-0.36,
3.579,0.01,0.16,0.94,0.08,0.12,-0.41,
3.581,0.01,0.16,0.95,0.08,0.12,-0.41,
3.584,0.01,0.16,0.95,0.08,0.12,-0.41,
3.584,0.01,0.16,0.95,0.04,0.10,-0.38,
3.587,0.01,0.16,0.95,0.04,0.10,-0.38,
3.589,0.01,0.16,0.95,0.03,0.09,-0.33,
3.589,0.01,0.16,0.96,0.03,0.09,-0.33,
3.591,0.01,0.16,0.97,0.03,0.09,-0.33,
3.594,0.01,0.16,0.97,0.05,0.05,-0.27,
3.594,0.01,0.16,0.97,0.05,0.05,-0.27,
3.597,0.01,0.15,0.98,0.05,0.05,-0.27,
3.598,0.01,0.15,0.98,0.08,0.04,-0.10,
3.599,0.00,0.15,0.99,0.08,0.04,-0.10,
3.601,0.01,0.15,0.99,0.08,0.04,-0.10,
3.605,0.00,0.15,1.00,0.08,0.04,-0.10,
3.605,0.00,0.15,1.00,-0.00,0.01,0.01,
3.605,0.00,0.15,1.00,-0.00,0.01,0.01,
3.609,0.00,0.14,1.01,-0.00,0.01,0.01,
3.609,0.00,0.14,1.01,-0.01,-0.00,0.09,
3.613,-0.00,0.14,1.01,-0.01,-0.00,0.09,
3.614,-0.00,0.14,1.01,-0.05,-0.06,0.17,
3.614,0.00,0.14,1.01,-0.05,-0.06,0.17,
3.616,0.00,0.14,1.02,-0.05,-0.06,0.17,
3.619,0.00,0.14,1.02,-0.05,-0.06,0.17,
3.619,0.00,0.14,1.02,-0.08,-0.11,0.30,
3.621,0.00,0.14,1.02,-0.08,-0.11,0.30,
3.625,0.00,0.14,1.02,-0.06,-0.08,0.33,
3.628,0.01,0.13,1.02,-0.06,-0.08,0.33,
3.629,0.01,0.13,1.02,-0.06,-0.08,0.33,
3.629,0.02,0.13,1.01,-0.06,-0.08,0.33,
3.629,0.02,0.13,1.01,-0.00,-0.14,0.34,
3.633,0.01,0.13,1.02,-0.00,-0.14,0.34,
3.634,0.01,0.13,1.01,-0.00,-0.14,0.34,
3.634,0.01,0.13,1.01,0.07,-0.17,0.30,
3.635,0.01,0.13,1.01,0.07,-0.17,0.30,
3.638,0.01,0.14,1.01,0.07,-0.17,0.30,
3.639,0.01,0.14,1.01,0.04,-0.13,0.29,
3.641,0.01,0.14,1.01,0.04,-0.13,0.29,
3.644,0.01,0.14,1.01,0.04,-0.12,0.25,
3.644,0.01,0.14,1.01,0.04,-0.12,0.25,
3.653,0.02,0.14,1.01,0.04,-0.12,0.25,
3.654,0.02,0.14,1.01,-0.01,-0.09,0.23,
3.654,0.02,0.14,1.00,-0.01,-0.09,0.23,
3.655,0.02,0.14,0.99,-0.01,-0.09,0.23,
3.655,0.03,0.14,0.98,-0.01,-0.09,0.23,
3.655,0.03,0.14,0.98,0.06,-0.05,0.19,
3.656,0.03,0.14,0.95,0.06,-0.05,0.19,
3.657,0.04,0.15,0.93,0.06,-0.05,0.19,
3.658,0.04,0.15,0.93,0.12,-0.07,-0.01,
3.66,0.04,0.15,0.92,0.12,-0.07,-0.01,
3.666,0.03,0.15,0.92,0.12,-0.07,-0.01,
3.666,0.03,0.15,0.92,0.20,-0.03,-0.44,
3.667,0.02,0.16,0.94,0.20,-0.03,-0.44,
3.667,0.02,0.16,0.94,0.20,-0.03,-0.44,
3.667,0.02,0.16,0.94,0.17,0.06,-0.61,
3.669,0.01,0.16,0.95,0.17,0.06,-0.61,
3.673,0.01,0.16,0.95,0.17,0.06,-0.61,
3.673,0.01,0.16,0.95,0.06,0.08,-0.42,
3.676,0.01,0.16,0.95,0.06,0.08,-0.42,
3.678,0.00,0.15,0.95,0.06,0.08,-0.42,
3.679,0.00,0.15,0.95,-0.06,0.09,-0.31,
3.687,0.00,0.15,0.96,-0.06,0.09,-0.31,
3.688,-0.00,0.15,0.96,-0.06,0.09,-0.31,
3.688,-0.00,0.15,0.96,-0.10,0.07,-0.30,
3.688,-0.01,0.15,0.96,-0.10,0.07,-0.30,
3.689,-0.01,0.15,0.96,-0.10,0.07,-0.30,
3.689,-0.01,0.15,0.96,-0.15,0.04,-0.24,
3.689,-0.01,0.14,0.96,-0.15,0.04,-0.24,
3.693,-0.01,0.14,0.96,-0.22,-0.00,-0.22,
3.693,-0.02,0.14,0.96,-0.22,-0.00,-0.22,
3.694,-0.03,0.14,0.96,-0.22,-0.00,-0.22,
3.703,-0.03,0.14,0.97,-0.22,-0.00,-0.22,
3.703,-0.03,0.14,0.97,-0.30,-0.07,-0.22,
3.703,-0.03,0.13,0.97,-0.30,-0.07,-0.22,
3.703,-0.03,0.13,0.98,-0.30,-0.07,-0.22,
3.704,-0.03,0.13,0.98,-0.40,-0.10,-0.18,
3.704,-0.03,0.13,0.99,-0.40,-0.10,-0.18,
3.708,-0.03,0.13,1.00,-0.40,-0.10,-0.18,
3.708,-0.03,0.13,1.00,-0.43,-0.14,-0.06,
3.71,-0.03,0.13,1.00,-0.43,-0.14,-0.06,
3.716,-0.03,0.13,1.00,-0.45,-0.14,0.11,
3.717,-0.02,0.13,1.02,-0.45,-0.14,0.11,
3.717,-0.01,0.13,1.03,-0.45,-0.14,0.11,
3.717,0.00,0.13,1.03,-0.45,-0.14,0.11,
3.717,0.00,0.13,1.03,-0.34,-0.20,0.27,
3.735,0.01,0.13,1.04,-0.34,-0.20,0.27,
3.736,0.02,0.14,1.04,-0.34,-0.20,0.27,
3.736,0.02,0.14,1.04,-0.19,-0.17,0.45,
3.736,0.04,0.14,1.04,-0.19,-0.17,0.45,
3.736,0.04,0.15,1.05,-0.19,-0.17,0.45,
3.736,0.04,0.15,1.05,0.03,-0.09,0.56,
3.737,0.05,0.16,1.04,0.03,-0.09,0.56,
3.737,0.06,0.17,1.03,0.03,-0.09,0.56,
3.737,0.06,0.17,1.03,0.25,0.01,0.58,
3.737,0.06,0.17,1.03,0.25,0.01,0.58,
3.738,0.06,0.17,1.02,0.25,0.01,0.58,
3.738,0.06,0.17,1.02,0.36,0.17,0.53,
3.74,0.05,0.17,1.03,0.36,0.17,0.53,
3.742,0.05,0.17,1.02,0.36,0.17,0.53,
3.742,0.05,0.17,1.02,0.40,0.27,0.39,
3.744,0.05,0.17,1.01,0.40,0.27,0.39,
3.752,0.04,0.16,1.01,0.40,0.27,0.39,
3.753,0.04,0.16,1.01,0.34,0.26,0.38,
3.753,0.04,0.16,1.01,0.34,0.26,0.38,
3.753,0.04,0.16,1.00,0.34,0.26,0.38,
3.753,0.04,0.16,1.00,0.26,0.16,0.25,
3.754,0.03,0.15,1.00,0.26,0.16,0.25,
