
time,gFx,gFy,gFz,ax,ay,az,
0.002,0.10,0.11,0.97,0.11,0.13,0.00,
0.002,0.10,0.11,0.97,-0.04,0.08,-0.14,
0.002,0.10,0.11,0.97,-0.04,0.08,-0.14,
0.003,0.09,0.11,0.98,-0.04,0.08,-0.14,
0.004,0.09,0.11,0.98,-0.11,0.02,-0.26,
0.006,0.10,0.11,0.97,-0.11,0.02,-0.26,
0.008,0.11,0.11,0.97,-0.11,0.02,-0.26,
0.008,0.11,0.11,0.97,-0.15,-0.04,-0.21,
0.011,0.11,0.10,0.98,-0.15,-0.04,-0.21,
0.014,0.11,0.10,0.99,-0.15,-0.04,-0.21,
0.015,0.11,0.10,0.99,-0.06,-0.04,-0.22,
0.016,0.11,0.10,1.00,-0.06,-0.04,-0.22,
0.018,0.11,0.10,1.00,-0.06,-0.04,-0.22,
0.018,0.11,0.10,1.00,-0.04,-0.13,-0.07,
0.02,0.11,0.10,1.01,-0.04,-0.13,-0.07,
0.023,0.11,0.10,1.01,-0.02,-0.13,0.05,
0.023,0.11,0.10,1.01,-0.02,-0.13,0.05,
0.025,0.11,0.10,1.01,-0.02,-0.13,0.05,
0.031,0.11,0.10,1.01,0.00,-0.18,0.13,
0.031,0.11,0.10,1.02,0.00,-0.18,0.13,
0.031,0.11,0.10,1.02,0.00,-0.18,0.13,
0.033,0.11,0.10,1.02,0.00,-0.18,0.13,
0.033,0.11,0.10,1.02,-0.00,-0.16,0.21,
0.035,0.11,0.10,1.01,-0.00,-0.16,0.21,
0.038,0.11,0.10,1.02,-0.00,-0.16,0.21,
0.038,0.11,0.10,1.02,-0.04,-0.15,0.22,
0.04,0.10,0.10,1.02,-0.04,-0.15,0.22,
0.043,0.11,0.10,1.02,-0.04,-0.15,0.22,
0.043,0.11,0.10,1.02,-0.01,-0.15,0.22,
0.048,0.10,0.11,1.01,-0.01,-0.15,0.22,
0.049,0.10,0.11,1.01,-0.01,-0.15,0.22,
0.049,0.10,0.11,1.01,-0.05,-0.11,0.24,
0.05,0.09,0.11,1.01,-0.05,-0.11,0.24,
0.053,0.09,0.11,1.01,-0.09,-0.09,0.16,
0.053,0.10,0.11,0.99,-0.09,-0.09,0.16,
0.055,0.10,0.11,0.98,-0.09,-0.09,0.16,
0.058,0.09,0.11,0.98,-0.09,-0.09,0.16,
0.058,0.09,0.11,0.98,-0.11,-0.05,0.03,
0.06,0.09,0.11,0.97,-0.11,-0.05,0.03,
0.065,0.09,0.11,0.97,-0.11,-0.05,0.03,
0.066,0.09,0.11,0.97,-0.12,-0.03,-0.13,
0.066,0.10,0.11,0.97,-0.12,-0.03,-0.13,
0.068,0.11,0.12,0.97,-0.12,-0.03,-0.13,
0.068,0.11,0.12,0.97,-0.14,-0.05,-0.21,
0.07,0.17,0.14,0.98,-0.14,-0.05,-0.21,
0.073,0.17,0.14,0.98,-0.14,-0.05,-0.21,
0.073,0.17,0.14,0.98,0.01,0.01,-0.24,
0.075,0.16,0.13,0.97,0.01,0.01,-0.24,
0.078,0.16,0.13,0.97,0.68,0.23,-0.16,
0.078,0.15,0.13,0.99,0.68,0.23,-0.16,
0.082,0.14,0.13,0.99,0.68,0.23,-0.16,
0.083,0.13,0.13,0.98,0.68,0.23,-0.16,
0.083,0.13,0.13,0.98,0.51,0.16,-0.14,
0.085,0.13,0.14,0.99,0.51,0.16,-0.14,
0.087,0.12,0.14,0.99,0.51,0.16,-0.14,
0.088,0.12,0.14,0.99,0.35,0.15,-0.12,
0.09,0.12,0.14,0.98,0.35,0.15,-0.12,
0.093,0.12,0.13,0.99,0.35,0.15,-0.12,
0.093,0.12,0.13,0.99,0.23,0.19,-0.08,
0.095,0.12,0.14,0.99,0.23,0.19,-0.08,
0.099,0.12,0.13,0.99,0.23,0.19,-0.08,
0.099,0.12,0.13,0.99,0.17,0.20,-0.10,
0.1,0.13,0.13,0.99,0.17,0.20,-0.10,
0.102,0.14,0.13,1.00,0.17,0.20,-0.10,
0.102,0.14,0.13,1.00,0.19,0.19,-0.04,
0.105,0.15,0.13,1.00,0.19,0.19,-0.04,
0.107,0.16,0.13,0.99,0.19,0.19,-0.04,
0.107,0.16,0.13,0.99,0.32,0.12,-0.02,
0.109,0.19,0.13,0.97,0.32,0.12,-0.02,
0.115,0.22,0.13,0.94,0.32,0.12,-0.02,
0.115,0.22,0.13,0.94,0.51,0.10,-0.04,
0.115,0.20,0.13,0.94,0.51,0.10,-0.04,
0.117,0.20,0.12,0.94,0.51,0.10,-0.04,
0.117,0.20,0.12,0.94,1.00,0.08,-0.43,
0.119,0.20,0.13,0.94,1.00,0.08,-0.43,
0.122,0.20,0.13,0.94,1.00,0.08,-0.43,
0.122,0.20,0.13,0.94,0.98,0.06,-0.53,
0.124,0.19,0.13,0.94,0.98,0.06,-0.53,
0.127,0.19,0.14,0.94,0.98,0.06,-0.53,
0.127,0.19,0.14,0.94,0.95,0.10,-0.52,
0.131,0.18,0.13,0.93,0.95,0.10,-0.52,
0.132,0.18,0.14,0.93,0.95,0.10,-0.52,
0.132,0.18,0.14,0.93,0.82,0.15,-0.53,
0.134,0.17,0.14,0.93,0.82,0.15,-0.53,
0.137,0.16,0.14,0.93,0.82,0.15,-0.53,
0.137,0.16,0.14,0.93,0.74,0.13,-0.58,
0.139,0.17,0.13,0.93,0.74,0.13,-0.58,
0.142,0.16,0.14,0.93,0.74,0.13,-0.58,
0.142,0.16,0.14,0.93,0.62,0.18,-0.60,
0.144,0.16,0.14,0.92,0.62,0.18,-0.60,
0.147,0.16,0.14,0.92,0.62,0.18,-0.60,
0.148,0.16,0.14,0.92,0.57,0.13,-0.64,
0.149,0.16,0.13,0.92,0.57,0.13,-0.64,
0.152,0.16,0.13,0.92,0.57,0.13,-0.64,
0.152,0.16,0.13,0.92,0.53,0.12,-0.66,
0.154,0.16,0.13,0.93,0.53,0.12,-0.66,
0.157,0.16,0.13,0.93,0.53,0.12,-0.66,
0.157,0.16,0.13,0.93,0.49,0.08,-0.66,
0.159,0.17,0.13,0.94,0.49,0.08,-0.66,
0.162,0.17,0.13,0.95,0.49,0.08,-0.66,
0.163,0.17,0.13,0.95,0.51,0.02,-0.60,
0.166,0.18,0.13,0.95,0.51,0.02,-0.60,
0.167,0.19,0.13,0.96,0.51,0.02,-0.60,
0.167,0.19,0.13,0.96,0.62,0.06,-0.45,
0.169,0.19,0.13,0.97,0.62,0.06,-0.45,
0.172,0.20,0.14,0.97,0.62,0.06,-0.45,
0.172,0.20,0.14,0.97,0.75,0.05,-0.34,
0.174,0.20,0.14,0.98,0.75,0.05,-0.34,
0.177,0.21,0.14,0.98,0.75,0.05,-0.34,
0.177,0.21,0.14,0.98,0.84,0.07,-0.18,
0.183,0.21,0.14,0.98,0.84,0.07,-0.18,
0.183,0.21,0.14,0.98,0.90,0.16,-0.08,
0.183,0.22,0.15,0.99,0.90,0.16,-0.08,
0.184,0.22,0.15,1.00,0.90,0.16,-0.08,
0.187,0.22,0.15,1.00,0.90,0.16,-0.08,
0.187,0.22,0.15,1.00,0.98,0.18,0.02,
0.189,0.22,0.16,1.00,0.98,0.18,0.02,
0.191,0.22,0.16,1.01,0.98,0.18,0.02,
0.192,0.22,0.16,1.01,1.07,0.26,0.11,
0.194,0.22,0.16,1.00,1.07,0.26,0.11,
0.199,0.22,0.16,1.01,1.07,0.26,0.11,
0.199,0.22,0.16,1.01,1.04,0.34,0.18,
0.199,0.22,0.16,1.00,1.04,0.34,0.18,
0.202,0.21,0.16,1.01,1.04,0.34,0.18,
0.202,0.21,0.16,1.01,1.05,0.32,0.17,
0.204,0.21,0.16,1.00,1.05,0.32,0.17,
0.206,0.21,0.16,1.00,1.05,0.32,0.17,
0.207,0.21,0.16,1.00,0.99,0.35,0.18,
0.209,0.21,0.16,0.99,0.99,0.35,0.18,
0.211,0.21,0.16,0.99,0.99,0.35,0.18,
0.212,0.21,0.16,0.99,0.93,0.36,0.13,
0.216,0.21,0.16,0.99,0.93,0.36,0.13,
0.216,0.21,0.16,0.98,0.93,0.36,0.13,
0.216,0.21,0.16,0.98,0.91,0.35,0.04,
0.218,0.20,0.16,0.98,0.91,0.35,0.04,
0.221,0.20,0.16,0.99,0.91,0.35,0.04,
0.221,0.20,0.16,0.99,0.92,0.31,-0.01,
0.223,0.19,0.16,0.99,0.92,0.31,-0.01,
0.226,0.18,0.16,0.98,0.92,0.31,-0.01,
0.226,0.18,0.16,0.98,0.85,0.34,-0.02,
0.228,0.18,0.16,0.98,0.85,0.34,-0.02,
0.232,0.18,0.17,0.98,0.85,0.34,-0.02,
0.232,0.18,0.17,0.98,0.71,0.31,-0.05,
0.233,0.17,0.16,0.98,0.71,0.31,-0.05,
0.236,0.16,0.16,0.98,0.71,0.31,-0.05,
0.236,0.16,0.16,0.98,0.64,0.36,-0.06,
0.238,0.16,0.16,0.99,0.64,0.36,-0.06,
0.241,0.16,0.16,0.98,0.64,0.36,-0.06,
0.241,0.16,0.16,0.98,0.54,0.35,-0.05,
0.243,0.16,0.16,0.99,0.54,0.35,-0.05,
0.248,0.15,0.16,1.00,0.54,0.35,-0.05,
0.248,0.15,0.16,1.00,0.48,0.31,-0.05,
0.248,0.15,0.16,1.00,0.48,0.31,-0.05,
0.251,0.15,0.16,1.01,0.48,0.31,-0.05,
0.251,0.15,0.16,1.01,0.42,0.30,0.05,
0.253,0.15,0.15,1.00,0.42,0.30,0.05,
0.256,0.15,0.15,1.00,0.42,0.30,0.05,
0.256,0.15,0.15,1.00,0.35,0.28,0.12,
0.258,0.15,0.15,1.00,0.35,0.28,0.12,
0.261,0.14,0.15,1.00,0.35,0.28,0.12,
0.261,0.14,0.15,1.00,0.36,0.22,0.11,
0.265,0.15,0.15,1.01,0.36,0.22,0.11,
0.266,0.15,0.15,1.00,0.36,0.22,0.11,
0.266,0.15,0.15,1.00,0.34,0.22,0.14,
0.268,0.15,0.15,1.00,0.34,0.22,0.14,
0.271,0.15,0.14,1.00,0.34,0.22,0.14,
0.271,0.15,0.14,1.00,0.37,0.17,0.16,
0.273,0.16,0.15,1.00,0.37,0.17,0.16,
0.276,0.16,0.14,1.00,0.37,0.17,0.16,
0.276,0.16,0.14,1.00,0.39,0.14,0.14,
0.278,0.16,0.14,1.00,0.39,0.14,0.14,
0.281,0.16,0.14,0.99,0.39,0.14,0.14,
0.282,0.16,0.14,0.99,0.41,0.12,0.11,
0.283,0.16,0.14,0.99,0.41,0.12,0.11,
0.285,0.16,0.15,0.99,0.41,0.12,0.11,
0.286,0.16,0.15,0.99,0.42,0.10,0.04,
0.288,0.16,0.15,0.98,0.42,0.10,0.04,
0.29,0.16,0.15,0.98,0.42,0.10,0.04,
0.291,0.16,0.15,0.98,0.44,0.12,0.01,
0.293,0.16,0.15,0.98,0.44,0.12,0.01,
0.295,0.16,0.15,0.98,0.44,0.12,0.01,
0.295,0.16,0.15,0.98,0.41,0.14,-0.05,
0.3,0.16,0.16,0.98,0.41,0.14,-0.05,
0.3,0.16,0.16,0.98,0.41,0.14,-0.05,
0.301,0.16,0.16,0.98,0.44,0.15,-0.11,
0.303,0.16,0.16,0.97,0.44,0.15,-0.11,
0.305,0.16,0.16,0.98,0.44,0.15,-0.11,
0.305,0.16,0.16,0.98,0.42,0.20,-0.08,
0.307,0.16,0.16,0.98,0.42,0.20,-0.08,
0.31,0.16,0.16,0.98,0.42,0.20,-0.08,
0.31,0.16,0.16,0.98,0.41,0.18,-0.12,
0.315,0.17,0.16,0.98,0.41,0.18,-0.12,
0.315,0.17,0.16,0.98,0.41,0.18,-0.12,
0.315,0.17,0.16,0.98,0.46,0.22,-0.09,
0.317,0.17,0.16,0.98,0.46,0.22,-0.09,
0.32,0.16,0.16,0.98,0.46,0.22,-0.09,
0.32,0.16,0.16,0.98,0.48,0.19,-0.09,
0.322,0.16,0.15,0.99,0.48,0.19,-0.09,
0.325,0.16,0.15,0.98,0.48,0.19,-0.09,
0.325,0.16,0.15,0.98,0.47,0.18,-0.07,
0.327,0.17,0.15,0.98,0.47,0.18,-0.07,
0.333,0.16,0.15,0.98,0.47,0.18,-0.07,
0.333,0.16,0.15,0.98,0.47,0.13,-0.05,
0.333,0.16,0.15,0.98,0.47,0.13,-0.05,
0.335,0.17,0.15,0.98,0.47,0.13,-0.05,
0.335,0.17,0.15,0.98,0.48,0.09,-0.11,
0.337,0.16,0.15,0.97,0.48,0.09,-0.11,
0.34,0.16,0.14,0.97,0.48,0.09,-0.11,
0.34,0.16,0.14,0.97,0.49,0.08,-0.11,
0.342,0.16,0.15,0.97,0.49,0.08,-0.11,
0.345,0.16,0.15,0.97,0.49,0.08,-0.11,
0.345,0.16,0.15,0.97,0.46,0.03,-0.18,
0.348,0.16,0.15,0.97,0.46,0.03,-0.18,
0.35,0.15,0.16,0.96,0.46,0.03,-0.18,
0.35,0.15,0.16,0.96,0.48,0.09,-0.20,
0.352,0.15,0.16,0.96,0.48,0.09,-0.20,
0.355,0.15,0.15,0.96,0.48,0.09,-0.20,
0.355,0.15,0.15,0.96,0.44,0.11,-0.24,
0.357,0.15,0.15,0.96,0.44,0.11,-0.24,
0.36,0.15,0.15,0.96,0.44,0.11,-0.24,
0.36,0.15,0.15,0.96,0.43,0.13,-0.29,
0.362,0.15,0.15,0.96,0.43,0.13,-0.29,
0.365,0.15,0.15,0.95,0.43,0.13,-0.29,
0.365,0.15,0.15,0.95,0.41,0.14,-0.31,
0.367,0.14,0.15,0.95,0.41,0.14,-0.31,
0.37,0.14,0.15,0.94,0.41,0.14,-0.31,
0.37,0.14,0.15,0.94,0.39,0.13,-0.33,
0.372,0.14,0.14,0.94,0.39,0.13,-0.33,
0.375,0.14,0.14,0.95,0.39,0.13,-0.33,
0.375,0.14,0.14,0.95,0.38,0.08,-0.40,
0.377,0.15,0.13,0.94,0.38,0.08,-0.40,
0.381,0.15,0.13,0.94,0.38,0.08,-0.40,
0.381,0.15,0.13,0.94,0.38,0.01,-0.43,
0.382,0.14,0.12,0.94,0.38,0.01,-0.43,
0.384,0.14,0.12,0.94,0.38,0.01,-0.43,
0.385,0.14,0.12,0.94,0.43,-0.04,-0.44,
0.387,0.15,0.12,0.94,0.43,-0.04,-0.44,
0.389,0.15,0.11,0.94,0.43,-0.04,-0.44,
0.389,0.15,0.11,0.94,0.42,-0.14,-0.47,
0.392,0.15,0.11,0.93,0.42,-0.14,-0.47,
0.394,0.14,0.10,0.94,0.42,-0.14,-0.47,
0.394,0.14,0.10,0.94,0.47,-0.18,-0.51,
0.4,0.15,0.10,0.93,0.47,-0.18,-0.51,
0.4,0.15,0.09,0.93,0.47,-0.18,-0.51,
0.4,0.15,0.09,0.93,0.45,-0.29,-0.50,
0.402,0.14,0.08,0.93,0.45,-0.29,-0.50,
0.404,0.14,0.08,0.92,0.45,-0.29,-0.50,
0.404,0.14,0.08,0.92,0.52,-0.38,-0.56,
0.406,0.15,0.07,0.92,0.52,-0.38,-0.56,
0.409,0.15,0.06,0.91,0.52,-0.38,-0.56,
0.41,0.15,0.06,0.91,0.46,-0.51,-0.63,
0.412,0.14,0.06,0.90,0.46,-0.51,-0.63,
0.416,0.14,0.05,0.90,0.46,-0.51,-0.63,
0.416,0.14,0.05,0.90,0.49,-0.60,-0.70,
0.417,0.14,0.05,0.89,0.49,-0.60,-0.70,
0.419,0.13,0.04,0.88,0.49,-0.60,-0.70,
0.419,0.13,0.04,0.88,0.43,-0.71,-0.83,
0.421,0.13,0.04,0.88,0.43,-0.71,-0.83,
0.424,0.13,0.03,0.87,0.43,-0.71,-0.83,
0.424,0.13,0.03,0.87,0.42,-0.81,-0.96,
0.426,0.12,0.03,0.87,0.42,-0.81,-0.96,
0.429,0.12,0.03,0.86,0.42,-0.81,-0.96,
0.429,0.12,0.03,0.86,0.37,-0.90,-1.11,
0.433,0.12,0.02,0.86,0.37,-0.90,-1.11,
0.434,0.12,0.03,0.86,0.37,-0.90,-1.11,
0.434,0.12,0.03,0.86,0.28,-0.92,-1.15,
0.436,0.11,0.03,0.86,0.28,-0.92,-1.15,
0.439,0.11,0.03,0.86,0.28,-0.92,-1.15,
0.439,0.11,0.03,0.86,0.27,-0.98,-1.23,
0.441,0.10,0.03,0.86,0.27,-0.98,-1.23,
0.444,0.10,0.03,0.85,0.27,-0.98,-1.23,
0.444,0.10,0.03,0.85,0.21,-0.94,-1.23,
0.446,0.09,0.04,0.85,0.21,-0.94,-1.23,
0.45,0.09,0.03,0.85,0.21,-0.94,-1.23,
0.45,0.09,0.03,0.85,0.11,-0.90,-1.27,
0.451,0.09,0.03,0.85,0.11,-0.90,-1.27,
0.454,0.10,0.03,0.84,0.11,-0.90,-1.27,
0.454,0.10,0.03,0.84,0.03,-0.86,-1.27,
0.456,0.09,0.04,0.84,0.03,-0.86,-1.27,
0.459,0.09,0.04,0.84,0.03,-0.86,-1.27,
0.459,0.09,0.04,0.84,0.06,-0.87,-1.33,
0.461,0.09,0.04,0.84,0.06,-0.87,-1.33,
0.465,0.09,0.05,0.84,0.06,-0.87,-1.33,
0.466,0.09,0.05,0.84,0.03,-0.82,-1.32,
0.466,0.09,0.04,0.85,0.03,-0.82,-1.32,
0.469,0.09,0.04,0.84,0.03,-0.82,-1.32,
0.469,0.09,0.04,0.84,0.03,-0.77,-1.32,
0.471,0.10,0.05,0.83,0.03,-0.77,-1.32,
0.474,0.10,0.05,0.83,0.03,-0.77,-1.32,
0.474,0.10,0.05,0.83,0.05,-0.78,-1.31,
0.476,0.10,0.05,0.83,0.05,-0.78,-1.31,
0.479,0.10,0.06,0.83,0.05,-0.78,-1.31,
0.479,0.10,0.06,0.83,0.08,-0.74,-1.37,
0.482,0.09,0.06,0.82,0.08,-0.74,-1.37,
0.484,0.09,0.06,0.82,0.10,-0.66,-1.39,
0.484,0.09,0.06,0.82,0.10,-0.66,-1.39,
0.486,0.09,0.06,0.82,0.10,-0.66,-1.39,
0.488,0.09,0.06,0.81,0.10,-0.66,-1.39,
0.488,0.09,0.06,0.81,0.03,-0.64,-1.48,
0.491,0.09,0.07,0.82,0.03,-0.64,-1.48,
0.495,0.09,0.07,0.82,0.03,-0.64,-1.48,
0.496,0.09,0.07,0.82,0.03,-0.60,-1.52,
0.496,0.09,0.07,0.82,0.03,-0.60,-1.52,
0.499,0.09,0.07,0.81,0.03,-0.60,-1.52,
0.499,0.09,0.07,0.81,0.01,-0.56,-1.43,
0.501,0.09,0.07,0.81,0.01,-0.56,-1.43,
0.503,0.08,0.07,0.82,0.01,-0.56,-1.43,
0.503,0.08,0.07,0.82,-0.01,-0.56,-1.49,
0.505,0.08,0.08,0.81,-0.01,-0.56,-1.49,
0.508,0.08,0.08,0.81,-0.01,-0.56,-1.49,
0.508,0.08,0.08,0.81,-0.06,-0.55,-1.49,
0.51,0.08,0.08,0.82,-0.06,-0.55,-1.49,
0.513,0.07,0.08,0.82,-0.06,-0.55,-1.49,
0.513,0.07,0.08,0.82,-0.10,-0.46,-1.49,
0.517,0.06,0.08,0.82,-0.10,-0.46,-1.49,
0.518,0.06,0.08,0.83,-0.10,-0.46,-1.49,
0.518,0.06,0.08,0.83,-0.16,-0.43,-1.43,
0.52,0.05,0.08,0.83,-0.16,-0.43,-1.43,
0.523,0.05,0.08,0.83,-0.29,-0.41,-1.35,
0.523,0.06,0.09,0.84,-0.29,-0.41,-1.35,
0.525,0.05,0.09,0.85,-0.29,-0.41,-1.35,
0.528,0.05,0.09,0.85,-0.29,-0.41,-1.35,
0.528,0.05,0.09,0.85,-0.35,-0.36,-1.25,
0.533,0.05,0.09,0.86,-0.35,-0.36,-1.25,
0.533,0.05,0.09,0.86,-0.35,-0.36,-1.25,
0.533,0.05,0.09,0.86,-0.37,-0.34,-1.11,
0.535,0.04,0.09,0.87,-0.37,-0.34,-1.11,
0.538,0.05,0.08,0.87,-0.37,-0.34,-1.11,
0.538,0.05,0.08,0.87,-0.42,-0.32,-1.01,
0.54,0.04,0.08,0.87,-0.42,-0.32,-1.01,
0.543,0.04,0.07,0.87,-0.42,-0.32,-1.01,
0.543,0.04,0.07,0.87,-0.45,-0.34,-0.91,
0.545,0.04,0.07,0.87,-0.45,-0.34,-0.91,
0.551,0.04,0.07,0.87,-0.49,-0.41,-0.84,
0.551,0.04,0.07,0.88,-0.49,-0.41,-0.84,
0.551,0.03,0.06,0.88,-0.49,-0.41,-0.84,
0.553,0.03,0.05,0.88,-0.49,-0.41,-0.84,
0.553,0.03,0.05,0.88,-0.49,-0.47,-0.83,
0.555,0.03,0.05,0.88,-0.49,-0.47,-0.83,
0.558,0.03,0.04,0.88,-0.49,-0.47,-0.83,
0.558,0.03,0.04,0.88,-0.57,-0.58,-0.79,
0.56,0.02,0.04,0.88,-0.57,-0.58,-0.79,
0.563,0.02,0.04,0.88,-0.57,-0.58,-0.79,
0.563,0.02,0.04,0.88,-0.62,-0.68,-0.79,
0.567,0.02,0.04,0.87,-0.62,-0.68,-0.79,
0.568,0.01,0.04,0.88,-0.62,-0.68,-0.79,
0.568,0.01,0.04,0.88,-0.69,-0.74,-0.80,
0.57,0.00,0.04,0.88,-0.69,-0.74,-0.80,
0.573,0.00,0.04,0.88,-0.75,-0.70,-0.81,
0.573,-0.00,0.04,0.88,-0.75,-0.70,-0.81,
0.576,-0.00,0.04,0.88,-0.75,-0.70,-0.81,
0.579,-0.00,0.04,0.88,-0.88,-0.69,-0.80,
0.579,-0.01,0.05,0.88,-0.88,-0.69,-0.80,
0.581,-0.01,0.05,0.88,-0.88,-0.69,-0.80,
0.59,-0.01,0.05,0.88,-0.88,-0.69,-0.80,
0.591,-0.01,0.05,0.88,-0.98,-0.64,-0.79,
0.591,-0.02,0.04,0.88,-0.98,-0.64,-0.79,
0.591,-0.03,0.05,0.88,-0.98,-0.64,-0.79,
0.591,-0.03,0.05,0.88,-1.03,-0.59,-0.76,
0.592,-0.03,0.05,0.88,-1.03,-0.59,-0.76,
0.594,-0.03,0.05,0.88,-1.13,-0.56,-0.79,
0.594,-0.03,0.05,0.88,-1.13,-0.56,-0.79,
0.596,-0.03,0.06,0.88,-1.13,-0.56,-0.79,
0.599,-0.03,0.06,0.88,-1.17,-0.50,-0.77,
0.599,-0.03,0.06,0.88,-1.17,-0.50,-0.77,
0.609,-0.03,0.06,0.88,-1.17,-0.50,-0.77,
0.61,-0.03,0.07,0.89,-1.17,-0.50,-0.77,
0.61,-0.03,0.07,0.89,-1.19,-0.42,-0.74,
0.611,-0.01,0.07,0.89,-1.19,-0.42,-0.74,
0.611,-0.01,0.08,0.88,-1.19,-0.42,-0.74,
0.612,-0.01,0.08,0.88,-1.16,-0.33,-0.72,
0.612,-0.01,0.08,0.88,-1.16,-0.33,-0.72,
0.613,-0.01,0.08,0.89,-1.16,-0.33,-0.72,
0.614,-0.01,0.08,0.89,-1.04,-0.26,-0.69,
0.631,-0.00,0.08,0.89,-1.04,-0.26,-0.69,
0.633,0.00,0.07,0.88,-1.04,-0.26,-0.69,
0.633,0.00,0.07,0.88,-0.99,-0.22,-0.67,
0.633,0.01,0.07,0.88,-0.99,-0.22,-0.67,
0.634,0.01,0.07,0.88,-0.93,-0.23,-0.67,
0.634,0.01,0.07,0.89,-0.93,-0.23,-0.67,
0.634,0.02,0.07,0.89,-0.93,-0.23,-0.67,
0.635,0.02,0.06,0.89,-0.93,-0.23,-0.67,
0.635,0.02,0.06,0.89,-0.83,-0.24,-0.65,
0.635,0.02,0.06,0.90,-0.83,-0.24,-0.65,
0.636,0.03,0.06,0.90,-0.83,-0.24,-0.65,
0.636,0.03,0.06,0.90,-0.79,-0.32,-0.60,
0.636,0.02,0.05,0.90,-0.79,-0.32,-0.60,
0.637,0.02,0.05,0.90,-0.79,-0.32,-0.60,
0.638,0.02,0.05,0.90,-0.72,-0.38,-0.54,
0.64,0.02,0.05,0.91,-0.72,-0.38,-0.54,
0.642,0.02,0.05,0.91,-0.72,-0.38,-0.54,
0.643,0.02,0.05,0.91,-0.75,-0.41,-0.53,
0.644,0.01,0.04,0.92,-0.75,-0.41,-0.53,
0.647,0.01,0.04,0.92,-0.81,-0.42,-0.41,
0.647,-0.00,0.05,0.93,-0.81,-0.42,-0.41,
0.65,-0.00,0.04,0.94,-0.81,-0.42,-0.41,
0.652,-0.01,0.04,0.94,-0.81,-0.42,-0.41,
0.652,-0.01,0.04,0.94,-0.98,-0.41,-0.29,
0.655,-0.02,0.04,0.95,-0.98,-0.41,-0.29,
0.657,-0.03,0.04,0.96,-0.98,-0.41,-0.29,
0.662,-0.03,0.04,0.96,-1.09,-0.43,-0.13,
0.663,-0.03,0.04,0.96,-1.09,-0.43,-0.13,
0.663,-0.03,0.03,0.96,-1.09,-0.43,-0.13,
0.664,-0.03,0.03,0.96,-1.28,-0.42,0.01,
0.665,-0.04,0.03,0.96,-1.28,-0.42,0.01,
0.667,-0.04,0.02,0.97,-1.28,-0.42,0.01,
0.669,-0.04,0.02,0.97,-1.40,-0.49,0.11,
0.67,-0.05,0.02,0.97,-1.40,-0.49,0.11,
0.673,-0.05,0.02,0.97,-1.50,-0.59,0.13,
0.673,-0.06,0.02,0.98,-1.50,-0.59,0.13,
0.675,-0.06,0.01,0.97,-1.50,-0.59,0.13,
0.678,-0.06,0.00,0.98,-1.50,-0.59,0.13,
0.679,-0.06,0.00,0.98,-1.65,-0.63,0.23,
0.68,-0.05,-0.00,0.98,-1.65,-0.63,0.23,
0.683,-0.05,0.00,0.97,-1.65,-0.63,0.23,
0.684,-0.05,0.00,0.97,-1.70,-0.72,0.24,
0.684,-0.05,0.00,0.97,-1.70,-0.72,0.24,
0.687,-0.05,0.00,0.97,-1.70,-0.72,0.24,
0.687,-0.05,0.00,0.97,-1.69,-0.76,0.22,
0.69,-0.05,0.00,0.97,-1.69,-0.76,0.22,
0.693,-0.05,0.01,0.97,-1.69,-0.76,0.22,
0.693,-0.05,0.01,0.97,-1.69,-0.72,0.21,
0.695,-0.05,0.01,0.97,-1.69,-0.72,0.21,
0.698,-0.05,0.01,0.97,-1.69,-0.67,0.17,
0.698,-0.04,0.02,0.97,-1.69,-0.67,0.17,
0.7,-0.04,0.02,0.96,-1.69,-0.67,0.17,
0.702,-0.03,0.02,0.95,-1.69,-0.67,0.17,
0.703,-0.03,0.02,0.95,-1.68,-0.60,0.14,
0.704,-0.03,0.02,0.95,-1.68,-0.60,0.14,
0.708,-0.03,0.02,0.94,-1.68,-0.60,0.14,
0.708,-0.03,0.02,0.94,-1.59,-0.52,0.06,
0.71,-0.02,0.03,0.94,-1.59,-0.52,0.06,
0.712,-0.02,0.03,0.94,-1.59,-0.52,0.06,
0.712,-0.02,0.03,0.94,-1.53,-0.48,-0.04,
0.714,-0.01,0.03,0.94,-1.53,-0.48,-0.04,
0.72,-0.01,0.03,0.94,-1.45,-0.35,-0.09,
0.72,-0.01,0.03,0.93,-1.45,-0.35,-0.09,
0.72,0.00,0.04,0.93,-1.45,-0.35,-0.09,
0.722,0.00,0.04,0.93,-1.35,-0.34,-0.17,
0.723,0.01,0.04,0.93,-1.35,-0.34,-0.17,
0.724,0.01,0.04,0.92,-1.35,-0.34,-0.17,
0.727,0.02,0.03,0.91,-1.35,-0.34,-0.17,
0.728,0.02,0.03,0.91,-1.21,-0.27,-0.20,
0.73,0.02,0.04,0.91,-1.21,-0.27,-0.20,
0.732,0.02,0.03,0.91,-1.21,-0.27,-0.20,
0.733,0.02,0.03,0.91,-1.14,-0.27,-0.34,
0.734,0.02,0.03,0.91,-1.14,-0.27,-0.34,
0.737,0.02,0.03,0.91,-1.14,-0.27,-0.34,
0.737,0.02,0.03,0.91,-1.07,-0.25,-0.37,
0.739,0.02,0.02,0.90,-1.07,-0.25,-0.37,
0.742,0.02,0.02,0.91,-1.07,-0.25,-0.37,
0.743,0.02,0.02,0.91,-1.04,-0.31,-0.39,
0.744,0.01,0.02,0.90,-1.04,-0.31,-0.39,
0.747,0.01,0.02,0.90,-1.10,-0.33,-0.44,
0.748,0.01,0.02,0.90,-1.10,-0.33,-0.44,
0.749,-0.00,0.01,0.89,-1.10,-0.33,-0.44,
0.752,-0.01,0.01,0.89,-1.10,-0.33,-0.44,
0.753,-0.01,0.01,0.89,-1.20,-0.34,-0.49,
0.754,-0.02,0.01,0.88,-1.20,-0.34,-0.49,
0.756,-0.03,0.01,0.88,-1.20,-0.34,-0.49,
0.757,-0.03,0.01,0.88,-1.34,-0.39,-0.55,
0.76,-0.04,0.01,0.88,-1.34,-0.39,-0.55,
0.762,-0.05,0.01,0.89,-1.34,-0.39,-0.55,
0.763,-0.05,0.01,0.89,-1.51,-0.38,-0.69,
0.764,-0.06,0.02,0.89,-1.51,-0.38,-0.69,
0.766,-0.06,0.03,0.90,-1.51,-0.38,-0.69,
0.766,-0.06,0.03,0.90,-1.73,-0.31,-0.62,
0.769,-0.07,0.03,0.90,-1.73,-0.31,-0.62,
0.772,-0.07,0.03,0.91,-1.73,-0.31,-0.62,
0.772,-0.07,0.03,0.91,-1.92,-0.16,-0.52,
0.774,-0.08,0.04,0.92,-1.92,-0.16,-0.52,
0.777,-0.08,0.04,0.93,-1.92,-0.16,-0.52,
0.777,-0.08,0.04,0.93,-2.02,-0.06,-0.40,
0.78,-0.08,0.04,0.94,-2.02,-0.06,-0.40,
0.782,-0.07,0.04,0.96,-2.02,-0.06,-0.40,
0.782,-0.07,0.04,0.96,-2.12,0.06,-0.20,
0.785,-0.07,0.04,0.97,-2.12,0.06,-0.20,
0.787,-0.06,0.03,0.99,-2.12,0.06,-0.20,
0.787,-0.06,0.03,0.99,-2.12,0.10,0.03,
0.789,-0.06,0.03,1.01,-2.12,0.10,0.03,
0.792,-0.05,0.02,1.02,-2.12,0.10,0.03,
0.792,-0.05,0.02,1.02,-2.08,0.10,0.32,
0.795,-0.03,0.02,1.03,-2.08,0.10,0.32,
0.798,-0.03,0.02,1.03,-1.92,0.03,0.65,
0.799,-0.02,0.01,1.04,-1.92,0.03,0.65,
0.799,-0.02,0.00,1.05,-1.92,0.03,0.65,
0.803,-0.01,-0.00,1.05,-1.92,0.03,0.65,
0.804,-0.01,-0.00,1.05,-1.73,-0.05,0.87,
0.804,-0.00,-0.01,1.06,-1.73,-0.05,0.87,
0.806,0.00,-0.01,1.06,-1.73,-0.05,0.87,
0.806,0.00,-0.01,1.06,-1.58,-0.17,1.01,
0.808,0.01,-0.01,1.05,-1.58,-0.17,1.01,
0.811,0.01,-0.01,1.05,-1.49,-0.21,1.09,
0.811,0.01,-0.01,1.05,-1.49,-0.21,1.09,
0.813,0.01,-0.02,1.05,-1.49,-0.21,1.09,
0.824,0.01,-0.02,1.04,-1.49,-0.21,1.09,
0.825,0.01,-0.02,1.04,-1.42,-0.20,1.03,
0.825,0.02,-0.02,1.03,-1.42,-0.20,1.03,
0.825,0.02,-0.01,1.02,-1.42,-0.20,1.03,
0.826,0.02,-0.01,1.02,-1.41,-0.22,0.95,
0.83,0.03,-0.01,1.01,-1.41,-0.22,0.95,
0.83,0.03,-0.01,1.00,-1.41,-0.22,0.95,
0.83,0.03,-0.01,1.00,-1.35,-0.15,0.75,
0.831,0.04,-0.01,0.99,-1.35,-0.15,0.75,
0.831,0.04,-0.00,0.98,-1.35,-0.15,0.75,
0.832,0.04,-0.00,0.98,-1.25,-0.14,0.58,
0.839,0.04,-0.01,0.97,-1.25,-0.14,0.58,
0.84,0.04,-0.01,0.97,-1.14,-0.04,0.38,
0.841,0.04,-0.01,0.96,-1.14,-0.04,0.38,
0.841,0.04,-0.01,0.95,-1.14,-0.04,0.38,
0.841,0.04,-0.00,0.95,-1.14,-0.04,0.38,
0.841,0.04,-0.00,0.95,-1.13,-0.01,0.16,
0.842,0.03,-0.00,0.94,-1.13,-0.01,0.16,
0.845,0.03,-0.00,0.94,-1.13,-0.01,0.16,
0.845,0.03,-0.00,0.94,-1.15,0.04,0.02,
0.847,0.03,0.00,0.94,-1.15,0.04,0.02,
0.85,0.03,0.00,0.94,-1.15,0.04,0.02,
0.85,0.03,0.00,0.94,-1.22,0.09,-0.04,
0.852,0.04,0.00,0.94,-1.22,0.09,-0.04,
0.855,0.04,0.00,0.94,-1.22,0.16,-0.07,
0.855,0.04,-0.00,0.94,-1.22,0.16,-0.07,
0.857,0.04,-0.01,0.94,-1.22,0.16,-0.07,
0.86,0.04,-0.01,0.94,-1.20,0.16,-0.07,
0.861,0.04,-0.01,0.93,-1.20,0.16,-0.07,
0.862,0.05,-0.02,0.94,-1.20,0.16,-0.07,
0.865,0.05,-0.02,0.94,-1.20,0.16,-0.07,
0.865,0.05,-0.02,0.94,-1.16,0.11,-0.09,
0.867,0.05,-0.02,0.94,-1.16,0.11,-0.09,
0.87,0.05,-0.03,0.93,-1.16,0.11,-0.09,
0.87,0.05,-0.03,0.93,-1.14,0.03,-0.05,
0.872,0.04,-0.03,0.93,-1.14,0.03,-0.05,
0.875,0.04,-0.04,0.92,-1.14,0.03,-0.05,
0.875,0.04,-0.04,0.92,-1.17,-0.03,-0.08,
0.877,0.03,-0.04,0.92,-1.17,-0.03,-0.08,
0.88,0.04,-0.04,0.92,-1.17,-0.03,-0.08,
0.881,0.04,-0.04,0.92,-1.22,-0.09,-0.19,
0.882,0.03,-0.05,0.91,-1.22,-0.09,-0.19,
0.885,0.03,-0.05,0.91,-1.22,-0.09,-0.19,
0.886,0.03,-0.05,0.91,-1.31,-0.13,-0.26,
0.887,0.04,-0.05,0.90,-1.31,-0.13,-0.26,
0.891,0.03,-0.05,0.91,-1.31,-0.13,-0.26,
0.891,0.03,-0.05,0.91,-1.35,-0.15,-0.33,
0.892,0.03,-0.05,0.90,-1.35,-0.15,-0.33,
0.897,0.03,-0.05,0.91,-1.35,-0.15,-0.33,
0.898,0.03,-0.05,0.91,-1.35,-0.18,-0.38,
0.899,0.03,-0.05,0.91,-1.35,-0.18,-0.38,
0.902,0.03,-0.06,0.91,-1.35,-0.18,-0.38,
0.903,0.03,-0.06,0.91,-1.40,-0.15,-0.37,
0.903,0.02,-0.06,0.91,-1.40,-0.15,-0.37,
0.905,0.03,-0.06,0.92,-1.40,-0.15,-0.37,
0.906,0.03,-0.06,0.92,-1.46,-0.17,-0.30,
0.908,0.02,-0.07,0.92,-1.46,-0.17,-0.30,
0.91,0.01,-0.07,0.93,-1.46,-0.17,-0.30,
0.91,0.01,-0.07,0.93,-1.49,-0.20,-0.25,
0.912,0.01,-0.09,0.93,-1.49,-0.20,-0.25,
0.915,0.01,-0.10,0.93,-1.49,-0.20,-0.25,
0.915,0.01,-0.10,0.93,-1.58,-0.31,-0.16,
0.918,0.01,-0.10,0.94,-1.58,-0.31,-0.16,
0.921,0.00,-0.10,0.95,-1.58,-0.31,-0.16,
0.922,0.00,-0.10,0.95,-1.68,-0.45,-0.08,
0.922,-0.00,-0.11,0.96,-1.68,-0.45,-0.08,
0.926,-0.00,-0.12,0.97,-1.68,-0.45,-0.08,
0.927,-0.00,-0.12,0.97,-1.74,-0.52,0.07,
0.928,-0.00,-0.12,0.98,-1.74,-0.52,0.07,
0.93,0.00,-0.12,0.99,-1.74,-0.52,0.07,
0.931,0.00,-0.12,0.99,-1.80,-0.60,0.25,
0.932,0.01,-0.12,1.00,-1.80,-0.60,0.25,
0.952,0.01,-0.12,1.00,-1.81,-0.61,0.42,
0.953,0.01,-0.12,1.01,-1.81,-0.61,0.42,
0.953,0.01,-0.12,1.01,-1.81,-0.61,0.42,
0.954,0.02,-0.11,1.03,-1.81,-0.61,0.42,
0.954,0.02,-0.11,1.03,-1.76,-0.58,0.66,
0.954,0.03,-0.11,1.04,-1.76,-0.58,0.66,
0.955,0.04,-0.10,1.05,-1.76,-0.58,0.66,
0.955,0.04,-0.10,1.05,-1.67,-0.50,0.81,
0.956,0.05,-0.10,1.05,-1.67,-0.50,0.81,
0.956,0.06,-0.09,1.05,-1.67,-0.50,0.81,
0.957,0.06,-0.09,1.05,-1.47,-0.40,1.03,
0.957,0.07,-0.09,1.06,-1.47,-0.40,1.03,
0.957,0.07,-0.08,1.06,-1.47,-0.40,1.03,
0.958,0.07,-0.08,1.06,-1.30,-0.27,1.11,
0.958,0.09,-0.08,1.06,-1.30,-0.27,1.11,
0.959,0.09,-0.08,1.06,-1.18,-0.16,1.21,
0.96,0.09,-0.08,1.06,-1.18,-0.16,1.21,
0.961,0.10,-0.07,1.06,-1.18,-0.16,1.21,
0.964,0.10,-0.06,1.06,-1.18,-0.16,1.21,
0.964,0.10,-0.06,1.06,-1.00,-0.05,1.23,
0.968,0.11,-0.05,1.05,-1.00,-0.05,1.23,
0.969,0.11,-0.05,1.04,-1.00,-0.05,1.23,
0.969,0.11,-0.05,1.04,-0.90,0.12,1.20,
0.971,0.11,-0.04,1.03,-0.90,0.12,1.20,
0.974,0.10,-0.04,1.02,-0.90,0.12,1.20,
0.974,0.10,-0.04,1.02,-0.84,0.26,1.06,
0.976,0.11,-0.04,1.01,-0.84,0.26,1.06,
0.98,0.10,-0.04,1.01,-0.84,0.26,1.06,
0.98,0.10,-0.04,1.01,-0.87,0.42,0.85,
0.981,0.10,-0.03,1.00,-0.87,0.42,0.85,
0.984,0.10,-0.03,1.00,-0.85,0.48,0.73,
0.985,0.10,-0.03,0.99,-0.85,0.48,0.73,
0.986,0.10,-0.04,0.99,-0.85,0.48,0.73,
0.989,0.10,-0.04,0.99,-0.85,0.48,0.73,
0.99,0.10,-0.04,0.99,-0.91,0.58,0.53,
0.992,0.10,-0.04,0.99,-0.91,0.58,0.53,
0.994,0.09,-0.05,0.99,-0.91,0.58,0.53,
0.994,0.09,-0.05,0.99,-0.92,0.54,0.49,
0.997,0.09,-0.06,0.99,-0.92,0.54,0.49,
0.999,0.08,-0.07,0.99,-0.92,0.54,0.49,
0.999,0.08,-0.07,0.99,-0.93,0.46,0.52,
1.002,0.08,-0.07,1.00,-0.93,0.46,0.52,
1.004,0.07,-0.08,1.01,-0.93,0.46,0.52,
1.005,0.07,-0.08,1.01,-0.99,0.37,0.53,
1.006,0.06,-0.09,1.02,-0.99,0.37,0.53,
1.011,0.06,-0.09,1.02,-1.08,0.24,0.68,
1.011,0.05,-0.10,1.03,-1.08,0.24,0.68,
1.011,0.05,-0.11,1.05,-1.08,0.24,0.68,
1.014,0.05,-0.12,1.07,-1.08,0.24,0.68,
1.014,0.05,-0.12,1.07,-1.26,0.09,0.89,
1.016,0.04,-0.12,1.07,-1.26,0.09,0.89,
1.019,0.04,-0.13,1.09,-1.26,0.09,0.89,
1.019,0.04,-0.13,1.09,-1.38,-0.01,1.19,
1.021,0.04,-0.14,1.10,-1.38,-0.01,1.19,
1.024,0.04,-0.15,1.11,-1.38,-0.01,1.19,
1.024,0.04,-0.15,1.11,-1.45,-0.13,1.43,
1.027,0.04,-0.16,1.12,-1.45,-0.13,1.43,
1.029,0.04,-0.17,1.12,-1.45,-0.13,1.43,
1.029,0.04,-0.17,1.12,-1.50,-0.27,1.63,
1.031,0.05,-0.17,1.13,-1.50,-0.27,1.63,
1.034,0.05,-0.17,1.13,-1.44,-0.42,1.78,
1.034,0.05,-0.17,1.13,-1.44,-0.42,1.78,
1.039,0.06,-0.18,1.15,-1.44,-0.42,1.78,
1.04,0.07,-0.17,1.15,-1.44,-0.42,1.78,
1.04,0.07,-0.17,1.15,-1.39,-0.47,1.91,
1.041,0.08,-0.18,1.16,-1.39,-0.47,1.91,
1.044,0.08,-0.18,1.16,-1.39,-0.47,1.91,
1.045,0.08,-0.18,1.16,-1.24,-0.48,2.07,
1.046,0.09,-0.18,1.17,-1.24,-0.48,2.07,
1.049,0.09,-0.18,1.17,-1.24,-0.48,2.07,
1.05,0.09,-0.18,1.17,-1.11,-0.50,2.20,
1.052,0.09,-0.18,1.18,-1.11,-0.50,2.20,
1.053,0.09,-0.18,1.18,-1.04,-0.48,2.29,
1.054,0.09,-0.18,1.18,-1.04,-0.48,2.29,
1.056,0.09,-0.19,1.18,-1.04,-0.48,2.29,
1.059,0.09,-0.19,1.18,-1.04,-0.50,2.37,
1.059,0.09,-0.20,1.18,-1.04,-0.50,2.37,
1.061,0.09,-0.21,1.17,-1.04,-0.50,2.37,
1.064,0.09,-0.22,1.17,-1.04,-0.50,2.37,
1.064,0.09,-0.22,1.17,-1.06,-0.63,2.36,
1.066,0.09,-0.22,1.17,-1.06,-0.63,2.36,
1.068,0.10,-0.23,1.17,-1.06,-0.63,2.36,
1.068,0.10,-0.23,1.17,-1.07,-0.79,2.31,
1.071,0.10,-0.24,1.17,-1.07,-0.79,2.31,
1.073,0.10,-0.24,1.17,-1.05,-0.87,2.26,
1.073,0.10,-0.24,1.16,-1.05,-0.87,2.26,
1.076,0.10,-0.25,1.15,-1.05,-0.87,2.26,
1.078,0.10,-0.25,1.15,-1.05,-0.87,2.26,
1.079,0.10,-0.25,1.15,-1.03,-1.01,2.19,
1.081,0.10,-0.25,1.15,-1.03,-1.01,2.19,
1.083,0.10,-0.25,1.15,-0.99,-1.07,2.06,
1.084,0.10,-0.25,1.14,-0.99,-1.07,2.06,
1.086,0.10,-0.26,1.14,-0.99,-1.07,2.06,
1.088,0.10,-0.26,1.14,-0.99,-1.07,2.06,
1.088,0.10,-0.26,1.14,-0.96,-1.10,2.01,
1.09,0.10,-0.26,1.13,-0.96,-1.10,2.01,
1.094,0.10,-0.26,1.13,-0.96,-1.14,1.98,
1.094,0.10,-0.26,1.13,-0.96,-1.14,1.98,
1.096,0.11,-0.27,1.13,-0.96,-1.14,1.98,
1.098,0.11,-0.27,1.13,-0.96,-1.14,1.98,
1.099,0.11,-0.27,1.13,-0.94,-1.17,1.86,
1.101,0.11,-0.27,1.13,-0.94,-1.17,1.86,
1.103,0.11,-0.27,1.12,-0.94,-1.17,1.86,
1.104,0.11,-0.27,1.12,-0.90,-1.20,1.83,
1.106,0.12,-0.26,1.12,-0.90,-1.20,1.83,
1.108,0.12,-0.26,1.12,-0.86,-1.18,1.81,
1.109,0.12,-0.26,1.12,-0.86,-1.18,1.81,
1.111,0.12,-0.25,1.12,-0.86,-1.18,1.81,
1.114,0.13,-0.25,1.12,-0.86,-1.18,1.81,
1.114,0.13,-0.25,1.12,-0.77,-1.07,1.74,
1.116,0.13,-0.24,1.13,-0.77,-1.07,1.74,
1.12,0.13,-0.23,1.13,-0.77,-1.07,1.74,
1.12,0.13,-0.23,1.13,-0.71,-0.97,1.75,
1.121,0.14,-0.23,1.13,-0.71,-0.97,1.75,
1.123,0.14,-0.22,1.13,-0.71,-0.97,1.75,
1.123,0.14,-0.22,1.13,-0.63,-0.78,1.81,
1.125,0.15,-0.21,1.14,-0.63,-0.78,1.81,
1.127,0.15,-0.21,1.14,-0.63,-0.78,1.81,
1.128,0.15,-0.21,1.14,-0.54,-0.65,1.84,
1.13,0.15,-0.21,1.15,-0.54,-0.65,1.84,
1.132,0.15,-0.21,1.15,-0.46,-0.55,1.94,
1.133,0.15,-0.20,1.15,-0.46,-0.55,1.94,
1.141,0.16,-0.21,1.16,-0.46,-0.55,1.94,
1.142,0.16,-0.21,1.18,-0.46,-0.55,1.94,
1.143,0.16,-0.21,1.18,-0.41,-0.46,2.02,
1.143,0.16,-0.21,1.18,-0.41,-0.46,2.02,
1.143,0.17,-0.21,1.19,-0.41,-0.46,2.02,
1.144,0.17,-0.21,1.19,-0.33,-0.45,2.21,
1.145,0.17,-0.21,1.19,-0.33,-0.45,2.21,
1.147,0.18,-0.21,1.19,-0.33,-0.45,2.21,
1.148,0.18,-0.21,1.19,-0.27,-0.45,2.33,
1.149,0.18,-0.20,1.20,-0.27,-0.45,2.33,
1.155,0.18,-0.20,1.20,-0.17,-0.42,2.39,
1.159,0.18,-0.20,1.20,-0.17,-0.42,2.39,
1.159,0.19,-0.20,1.21,-0.17,-0.42,2.39,
1.16,0.19,-0.20,1.21,-0.11,-0.35,2.53,
1.16,0.19,-0.20,1.21,-0.11,-0.35,2.53,
1.16,0.20,-0.20,1.21,-0.11,-0.35,2.53,
1.162,0.20,-0.20,1.22,-0.11,-0.35,2.53,
1.163,0.20,-0.20,1.22,-0.03,-0.30,2.55,
1.164,0.20,-0.20,1.22,-0.03,-0.30,2.55,
1.169,0.20,-0.20,1.22,-0.03,-0.30,2.55,
1.17,0.20,-0.20,1.22,0.03,-0.27,2.59,
1.17,0.20,-0.20,1.21,0.03,-0.27,2.59,
1.172,0.20,-0.20,1.22,0.03,-0.27,2.59,
1.172,0.20,-0.20,1.22,0.08,-0.25,2.64,
1.174,0.19,-0.21,1.22,0.08,-0.25,2.64,
1.177,0.19,-0.21,1.21,0.08,-0.25,2.64,
1.177,0.19,-0.21,1.21,0.07,-0.29,2.61,
1.179,0.19,-0.21,1.21,0.07,-0.29,2.61,
1.182,0.19,-0.21,1.21,0.05,-0.32,2.59,
1.182,0.19,-0.21,1.21,0.05,-0.32,2.59,
1.185,0.19,-0.22,1.20,0.05,-0.32,2.59,
1.188,0.19,-0.21,1.20,0.05,-0.32,2.59,
1.188,0.19,-0.21,1.20,0.04,-0.34,2.53,
1.189,0.18,-0.22,1.20,0.04,-0.34,2.53,
1.192,0.18,-0.22,1.19,0.04,-0.34,2.53,
1.192,0.18,-0.22,1.19,0.01,-0.36,2.43,
1.194,0.17,-0.22,1.19,0.01,-0.36,2.43,
1.2,0.17,-0.22,1.17,0.01,-0.36,2.43,
1.2,0.17,-0.22,1.17,-0.05,-0.37,2.36,
1.201,0.17,-0.22,1.17,-0.05,-0.37,2.36,
1.204,0.17,-0.22,1.17,-0.05,-0.37,2.36,
1.205,0.17,-0.22,1.17,-0.10,-0.38,2.22,
1.205,0.17,-0.21,1.17,-0.10,-0.38,2.22,
1.207,0.17,-0.21,1.17,-0.10,-0.37,2.15,
1.207,0.17,-0.21,1.16,-0.10,-0.37,2.15,
1.209,0.18,-0.21,1.16,-0.10,-0.37,2.15,
1.212,0.17,-0.21,1.16,-0.10,-0.37,2.15,
1.212,0.17,-0.21,1.16,-0.08,-0.31,2.04,
1.214,0.18,-0.21,1.16,-0.08,-0.31,2.04,
1.216,0.18,-0.21,1.15,-0.08,-0.31,2.04,
1.217,0.18,-0.21,1.15,-0.03,-0.26,2.03,
1.219,0.18,-0.21,1.15,-0.03,-0.26,2.03,
1.222,0.19,-0.21,1.14,-0.03,-0.26,2.03,
1.222,0.19,-0.21,1.14,0.02,-0.27,1.92,
1.224,0.19,-0.21,1.15,0.02,-0.27,1.92,
1.227,0.19,-0.21,1.15,0.02,-0.27,1.92,
1.227,0.19,-0.21,1.15,0.12,-0.27,1.85,
1.229,0.19,-0.21,1.14,0.12,-0.27,1.85,
1.231,0.19,-0.21,1.14,0.18,-0.28,1.89,
1.232,0.19,-0.22,1.14,0.18,-0.28,1.89,
1.234,0.19,-0.21,1.15,0.18,-0.28,1.89,
1.245,0.19,-0.22,1.14,0.18,-0.28,1.89,
1.246,0.19,-0.22,1.14,0.20,-0.30,1.80,
1.247,0.19,-0.22,1.14,0.20,-0.30,1.80,
1.247,0.20,-0.21,1.13,0.20,-0.30,1.80,
1.247,0.20,-0.21,1.13,0.20,-0.31,1.79,
1.248,0.19,-0.21,1.14,0.20,-0.31,1.79,
1.249,0.19,-0.21,1.14,0.20,-0.31,1.79,
1.249,0.19,-0.21,1.14,0.23,-0.29,1.72,
1.25,0.19,-0.20,1.14,0.23,-0.29,1.72,
1.253,0.19,-0.20,1.13,0.23,-0.29,1.72,
1.254,0.19,-0.20,1.13,0.22,-0.26,1.72,
1.254,0.19,-0.20,1.13,0.22,-0.26,1.72,
1.257,0.19,-0.20,1.13,0.22,-0.16,1.67,
1.257,0.19,-0.19,1.13,0.22,-0.16,1.67,
1.258,0.20,-0.19,1.13,0.22,-0.16,1.67,
1.261,0.21,-0.18,1.13,0.22,-0.16,1.67,
1.262,0.21,-0.18,1.13,0.26,-0.10,1.62,
1.264,0.22,-0.18,1.13,0.26,-0.10,1.62,
1.266,0.22,-0.17,1.14,0.26,-0.10,1.62,
1.267,0.22,-0.17,1.14,0.40,0.00,1.62,
1.269,0.23,-0.17,1.14,0.40,0.00,1.62,
1.271,0.24,-0.17,1.14,0.40,0.00,1.62,
1.271,0.24,-0.17,1.14,0.55,0.11,1.67,
1.273,0.24,-0.16,1.14,0.55,0.11,1.67,
1.276,0.24,-0.16,1.14,0.71,0.16,1.70,
1.277,0.25,-0.16,1.14,0.71,0.16,1.70,
1.279,0.26,-0.16,1.13,0.71,0.16,1.70,
1.281,0.26,-0.16,1.13,0.84,0.23,1.67,
1.281,0.26,-0.16,1.12,0.84,0.23,1.67,
1.283,0.27,-0.16,1.12,0.84,0.23,1.67,
1.286,0.27,-0.16,1.11,0.84,0.23,1.67,
1.286,0.27,-0.16,1.11,0.98,0.24,1.54,
1.288,0.27,-0.16,1.10,0.98,0.24,1.54,
1.291,0.27,-0.16,1.09,0.98,0.24,1.54,
1.291,0.27,-0.16,1.09,1.10,0.19,1.40,
1.293,0.27,-0.16,1.07,1.10,0.19,1.40,
1.296,0.27,-0.16,1.06,1.10,0.19,1.40,
1.296,0.27,-0.16,1.06,1.16,0.16,1.19,
1.298,0.27,-0.16,1.05,1.16,0.16,1.19,
1.301,0.27,-0.16,1.05,1.16,0.16,1.19,
1.301,0.27,-0.16,1.05,1.18,0.17,0.96,
1.311,0.27,-0.16,1.04,1.18,0.17,0.96,
1.311,0.27,-0.16,1.04,1.13,0.17,0.77,
1.311,0.26,-0.16,1.03,1.13,0.17,0.77,
1.311,0.26,-0.16,1.02,1.13,0.17,0.77,
1.311,0.26,-0.16,1.02,1.10,0.16,0.60,
1.311,0.26,-0.15,1.01,1.10,0.16,0.60,
1.313,0.25,-0.15,1.01,1.10,0.16,0.60,
1.316,0.24,-0.15,1.00,1.10,0.16,0.60,
1.316,0.24,-0.15,1.00,1.08,0.19,0.44,
1.318,0.24,-0.15,1.00,1.08,0.19,0.44,
1.321,0.24,-0.15,1.00,1.08,0.19,0.44,
1.321,0.24,-0.15,1.00,0.98,0.20,0.31,
1.323,0.24,-0.14,1.00,0.98,0.20,0.31,
1.326,0.24,-0.14,1.00,0.95,0.23,0.24,
1.326,0.24,-0.14,1.00,0.95,0.23,0.24,
1.328,0.24,-0.14,1.00,0.95,0.23,0.24,
1.331,0.24,-0.14,1.00,0.91,0.27,0.21,
1.331,0.24,-0.14,0.99,0.91,0.27,0.21,
1.333,0.24,-0.14,0.99,0.91,0.27,0.21,
1.337,0.24,-0.15,0.99,0.91,0.27,0.21,
1.337,0.24,-0.15,0.99,0.92,0.26,0.22,
1.337,0.24,-0.15,0.99,0.92,0.26,0.22,
1.34,0.23,-0.14,0.99,0.92,0.26,0.22,
1.341,0.23,-0.14,0.99,0.93,0.22,0.17,
1.343,0.24,-0.15,1.00,0.93,0.22,0.17,
1.346,0.24,-0.15,1.00,0.93,0.22,0.17,
1.346,0.24,-0.15,1.00,0.91,0.20,0.16,
1.347,0.23,-0.15,1.01,0.91,0.20,0.16,
1.351,0.24,-0.15,1.02,0.91,0.20,0.16,
1.351,0.24,-0.15,1.02,0.93,0.19,0.22,
1.352,0.24,-0.15,1.02,0.93,0.19,0.22,
1.356,0.24,-0.15,1.02,0.93,0.13,0.35,
1.356,0.25,-0.15,1.03,0.93,0.13,0.35,
1.358,0.25,-0.15,1.03,0.93,0.13,0.35,
1.361,0.26,-0.15,1.04,0.93,0.13,0.35,
1.361,0.26,-0.15,1.04,1.03,0.19,0.49,
1.363,0.27,-0.15,1.05,1.03,0.19,0.49,
1.366,0.27,-0.15,1.06,1.03,0.19,0.49,
1.366,0.27,-0.15,1.06,1.15,0.21,0.57,
1.368,0.29,-0.15,1.07,1.15,0.21,0.57,
1.37,0.30,-0.15,1.07,1.15,0.21,0.57,
1.371,0.30,-0.15,1.07,1.32,0.15,0.75,
1.373,0.30,-0.15,1.09,1.32,0.15,0.75,
1.376,0.31,-0.15,1.10,1.32,0.15,0.75,
1.376,0.31,-0.15,1.10,1.53,0.18,0.93,
1.378,0.32,-0.14,1.10,1.53,0.18,0.93,
1.381,0.32,-0.14,1.10,1.66,0.20,1.13,
1.381,0.32,-0.14,1.11,1.66,0.20,1.13,
1.383,0.33,-0.14,1.12,1.66,0.20,1.13,
1.385,0.34,-0.14,1.12,1.66,0.20,1.13,
1.387,0.34,-0.14,1.12,1.79,0.26,1.28,
1.388,0.34,-0.14,1.12,1.79,0.26,1.28,
1.391,0.34,-0.15,1.12,1.79,0.26,1.28,
1.391,0.34,-0.15,1.12,1.97,0.27,1.35,
1.393,0.34,-0.15,1.12,1.97,0.27,1.35,
1.396,0.34,-0.16,1.12,1.97,0.27,1.35,
1.396,0.34,-0.16,1.12,2.02,0.25,1.38,
1.398,0.34,-0.16,1.11,2.02,0.25,1.38,
1.401,0.33,-0.16,1.11,2.02,0.25,1.38,
1.401,0.33,-0.16,1.11,2.04,0.18,1.34,
1.403,0.32,-0.16,1.10,2.04,0.18,1.34,
1.405,0.32,-0.16,1.10,2.00,0.13,1.25,
1.406,0.32,-0.16,1.09,2.00,0.13,1.25,
1.408,0.31,-0.16,1.09,2.00,0.13,1.25,
1.41,0.30,-0.17,1.09,2.00,0.13,1.25,
1.411,0.30,-0.17,1.09,1.88,0.11,1.14,
1.413,0.29,-0.17,1.09,1.88,0.11,1.14,
1.416,0.28,-0.17,1.07,1.88,0.11,1.14,
1.416,0.28,-0.17,1.07,1.75,0.03,1.03,
1.418,0.27,-0.18,1.07,1.75,0.03,1.03,
1.42,0.25,-0.18,1.05,1.75,0.03,1.03,
1.421,0.25,-0.18,1.05,1.58,-0.02,0.95,
1.422,0.25,-0.18,1.05,1.58,-0.02,0.95,
1.426,0.24,-0.19,1.06,1.58,-0.02,0.95,
1.426,0.24,-0.19,1.06,1.38,-0.08,0.75,
1.427,0.23,-0.19,1.04,1.38,-0.08,0.75,
1.431,0.23,-0.19,1.04,1.22,-0.15,0.68,
1.431,0.22,-0.19,1.04,1.22,-0.15,0.68,
1.432,0.22,-0.19,1.04,1.22,-0.15,0.68,
1.435,0.21,-0.20,1.04,1.22,-0.15,0.68,
1.435,0.21,-0.20,1.04,1.07,-0.24,0.58,
1.437,0.20,-0.20,1.03,1.07,-0.24,0.58,
1.441,0.20,-0.20,1.03,1.07,-0.24,0.58,
1.441,0.20,-0.20,1.03,0.99,-0.28,0.54,
1.443,0.20,-0.21,1.03,0.99,-0.28,0.54,
1.445,0.19,-0.21,1.03,0.99,-0.28,0.54,
1.445,0.19,-0.21,1.03,0.89,-0.34,0.42,
1.447,0.19,-0.21,1.03,0.89,-0.34,0.42,
1.449,0.19,-0.21,1.03,0.89,-0.34,0.42,
1.45,0.19,-0.21,1.03,0.86,-0.42,0.43,
1.452,0.20,-0.21,1.03,0.86,-0.42,0.43,
1.461,0.20,-0.21,1.03,0.86,-0.46,0.43,
1.461,0.20,-0.21,1.03,0.86,-0.46,0.43,
1.462,0.21,-0.20,1.04,0.86,-0.46,0.43,
1.462,0.21,-0.20,1.04,0.86,-0.46,0.43,
1.463,0.21,-0.20,1.04,0.95,-0.45,0.42,
1.463,0.22,-0.19,1.04,0.95,-0.45,0.42,
1.464,0.23,-0.18,1.04,0.95,-0.45,0.42,
1.464,0.23,-0.18,1.04,1.03,-0.39,0.48,
1.466,0.23,-0.17,1.04,1.03,-0.39,0.48,
1.474,0.24,-0.16,1.05,1.03,-0.39,0.48,
1.475,0.24,-0.16,1.05,1.18,-0.26,0.54,
1.475,0.25,-0.16,1.05,1.18,-0.26,0.54,
1.476,0.25,-0.15,1.05,1.18,-0.26,0.54,
1.476,0.25,-0.15,1.05,1.32,-0.10,0.54,
1.476,0.26,-0.15,1.05,1.32,-0.10,0.54,
1.479,0.26,-0.15,1.05,1.43,0.01,0.59,
1.479,0.26,-0.14,1.04,1.43,0.01,0.59,
1.481,0.27,-0.14,1.04,1.43,0.01,0.59,
1.484,0.27,-0.14,1.04,1.43,0.01,0.59,
1.485,0.27,-0.14,1.04,1.56,0.07,0.55,
1.486,0.27,-0.14,1.03,1.56,0.07,0.55,
1.489,0.27,-0.14,1.03,1.56,0.07,0.55,
1.49,0.27,-0.14,1.03,1.68,0.13,0.49,
1.491,0.27,-0.14,1.02,1.68,0.13,0.49,
1.494,0.28,-0.14,1.02,1.68,0.13,0.49,
1.494,0.28,-0.14,1.02,1.71,0.09,0.38,
1.496,0.28,-0.14,1.01,1.71,0.09,0.38,
1.499,0.28,-0.14,1.00,1.71,0.09,0.38,
1.499,0.28,-0.14,1.00,1.75,0.06,0.27,
1.501,0.28,-0.15,0.99,1.75,0.06,0.27,
1.504,0.28,-0.15,0.99,1.82,0.03,0.14,
1.505,0.29,-0.15,0.99,1.82,0.03,0.14,
1.505,0.29,-0.14,0.98,1.82,0.03,0.14,
1.509,0.29,-0.14,0.98,1.82,0.03,0.14,
1.509,0.29,-0.14,0.98,1.87,-0.02,-0.01,
1.511,0.29,-0.14,0.98,1.87,-0.02,-0.01,
1.514,0.29,-0.14,0.97,1.87,-0.02,-0.01,
1.514,0.29,-0.14,0.97,1.90,-0.01,-0.11,
1.516,0.29,-0.13,0.97,1.90,-0.01,-0.11,
1.52,0.28,-0.13,0.97,1.90,-0.01,-0.11,
1.52,0.28,-0.13,0.97,1.89,0.01,-0.19,
1.521,0.28,-0.13,0.98,1.89,0.01,-0.19,
1.524,0.29,-0.13,0.98,1.89,0.01,-0.19,
1.524,0.29,-0.13,0.98,1.89,0.03,-0.25,
1.526,0.29,-0.13,0.98,1.89,0.03,-0.25,
1.529,0.29,-0.13,0.98,1.90,0.06,-0.17,
1.529,0.28,-0.12,0.99,1.90,0.06,-0.17,
1.531,0.29,-0.13,0.99,1.90,0.06,-0.17,
1.534,0.29,-0.13,0.99,1.90,0.06,-0.17,
1.534,0.29,-0.13,0.99,1.90,0.08,-0.10,
1.536,0.28,-0.13,0.99,1.90,0.08,-0.10,
1.539,0.28,-0.13,0.99,1.90,0.08,-0.10,
1.539,0.28,-0.13,0.99,1.93,0.00,-0.09,
1.541,0.28,-0.14,1.00,1.93,0.00,-0.09,
1.544,0.28,-0.14,0.99,1.93,0.00,-0.09,
1.544,0.28,-0.14,0.99,1.89,-0.02,-0.05,
1.547,0.28,-0.14,0.99,1.89,-0.02,-0.05,
1.55,0.28,-0.15,0.99,1.89,-0.02,-0.05,
1.55,0.28,-0.15,0.99,1.86,-0.14,-0.02,
1.551,0.27,-0.15,0.99,1.86,-0.14,-0.02,
1.558,0.27,-0.15,0.99,1.86,-0.17,-0.08,
1.559,0.26,-0.15,0.99,1.86,-0.17,-0.08,
1.559,0.26,-0.14,1.00,1.86,-0.17,-0.08,
1.559,0.25,-0.14,1.00,1.86,-0.17,-0.08,
1.559,0.25,-0.14,1.00,1.77,-0.19,-0.05,
1.561,0.25,-0.14,1.01,1.77,-0.19,-0.05,
1.563,0.24,-0.15,1.01,1.77,-0.19,-0.05,
1.564,0.24,-0.15,1.01,1.64,-0.15,0.04,
1.566,0.23,-0.14,1.01,1.64,-0.15,0.04,
1.569,0.23,-0.14,1.01,1.64,-0.15,0.04,
1.569,0.23,-0.14,1.01,1.56,-0.18,0.13,
1.571,0.22,-0.14,1.01,1.56,-0.18,0.13,
1.573,0.22,-0.14,1.01,1.56,-0.18,0.13,
1.573,0.22,-0.14,1.01,1.46,-0.13,0.13,
1.575,0.21,-0.14,1.01,1.46,-0.13,0.13,
1.579,0.21,-0.14,1.01,1.36,-0.17,0.16,
1.579,0.20,-0.14,1.01,1.36,-0.17,0.16,
1.581,0.19,-0.14,1.02,1.36,-0.17,0.16,
1.584,0.18,-0.14,1.02,1.36,-0.17,0.16,
1.584,0.18,-0.14,1.02,1.23,-0.16,0.16,
1.586,0.18,-0.15,1.02,1.23,-0.16,0.16,
1.589,0.18,-0.15,1.02,1.23,-0.16,0.16,
1.589,0.18,-0.15,1.02,1.11,-0.18,0.21,
1.591,0.18,-0.15,1.02,1.11,-0.18,0.21,
1.593,0.18,-0.16,1.02,1.11,-0.18,0.21,
1.594,0.18,-0.16,1.02,1.03,-0.25,0.20,
1.596,0.18,-0.16,1.02,1.03,-0.25,0.20,
1.599,0.18,-0.16,1.03,1.03,-0.25,0.20,
1.6,0.18,-0.16,1.03,1.04,-0.30,0.24,
1.6,0.18,-0.16,1.02,1.04,-0.30,0.24,
1.603,0.18,-0.16,1.02,1.03,-0.35,0.28,
1.603,0.17,-0.16,1.03,1.03,-0.35,0.28,
1.607,0.18,-0.15,1.03,1.03,-0.35,0.28,
1.608,0.18,-0.16,1.04,1.03,-0.35,0.28,
1.609,0.18,-0.16,1.04,1.06,-0.33,0.27,
1.61,0.19,-0.15,1.04,1.06,-0.33,0.27,
1.614,0.19,-0.15,1.04,1.14,-0.30,0.36,
1.614,0.19,-0.15,1.04,1.14,-0.30,0.36,
1.616,0.20,-0.15,1.04,1.14,-0.30,0.36,
1.618,0.20,-0.15,1.04,1.14,-0.30,0.36,
1.619,0.20,-0.15,1.04,1.22,-0.29,0.38,
1.623,0.20,-0.15,1.04,1.22,-0.29,0.38,
1.624,0.20,-0.14,1.04,1.22,-0.29,0.38,
1.624,0.20,-0.14,1.04,1.35,-0.28,0.38,
1.625,0.21,-0.14,1.04,1.35,-0.28,0.38,
1.628,0.21,-0.14,1.04,1.40,-0.23,0.40,
1.629,0.21,-0.14,1.04,1.40,-0.23,0.40,
1.63,0.22,-0.14,1.04,1.40,-0.23,0.40,
1.633,0.22,-0.14,1.05,1.40,-0.23,0.40,
1.633,0.22,-0.14,1.05,1.47,-0.23,0.41,
1.634,0.23,-0.14,1.05,1.47,-0.23,0.41,
1.639,0.23,-0.14,1.05,1.47,-0.23,0.41,
1.64,0.23,-0.14,1.05,1.57,-0.23,0.42,
1.641,0.23,-0.14,1.05,1.57,-0.23,0.42,
1.643,0.23,-0.14,1.05,1.70,-0.26,0.46,
1.644,0.24,-0.14,1.05,1.70,-0.26,0.46,
1.645,0.23,-0.14,1.05,1.70,-0.26,0.46,
1.647,0.23,-0.14,1.06,1.70,-0.26,0.46,
1.652,0.23,-0.14,1.06,1.73,-0.23,0.50,
1.653,0.23,-0.14,1.06,1.73,-0.23,0.50,
1.653,0.23,-0.14,1.06,1.75,-0.30,0.55,
1.654,0.23,-0.14,1.07,1.75,-0.30,0.55,
1.655,0.23,-0.14,1.07,1.75,-0.30,0.55,
1.658,0.23,-0.14,1.07,1.75,-0.30,0.55,
1.659,0.23,-0.14,1.07,1.71,-0.27,0.61,
1.66,0.22,-0.14,1.07,1.71,-0.27,0.61,
1.663,0.23,-0.14,1.07,1.71,-0.27,0.61,
1.663,0.23,-0.14,1.07,1.71,-0.26,0.66,
1.665,0.23,-0.13,1.07,1.71,-0.26,0.66,
1.667,0.23,-0.14,1.07,1.71,-0.26,0.66,
1.668,0.23,-0.14,1.07,1.69,-0.30,0.70,
1.669,0.23,-0.14,1.07,1.69,-0.30,0.70,
1.679,0.23,-0.14,1.07,1.69,-0.30,0.70,
1.68,0.23,-0.14,1.07,1.72,-0.27,0.66,
1.681,0.23,-0.14,1.07,1.72,-0.27,0.66,
1.681,0.23,-0.14,1.07,1.73,-0.30,0.64,
1.681,0.23,-0.14,1.07,1.73,-0.30,0.64,
1.682,0.23,-0.13,1.07,1.73,-0.30,0.64,
1.683,0.23,-0.13,1.07,1.73,-0.31,0.63,
1.683,0.23,-0.13,1.06,1.73,-0.31,0.63,
1.684,0.23,-0.13,1.07,1.73,-0.31,0.63,
1.697,0.23,-0.12,1.07,1.73,-0.31,0.63,
1.698,0.23,-0.12,1.07,1.71,-0.27,0.60,
1.698,0.23,-0.12,1.07,1.71,-0.27,0.60,
1.698,0.23,-0.12,1.06,1.71,-0.27,0.60,
1.699,0.23,-0.12,1.06,1.69,-0.23,0.59,
1.699,0.23,-0.12,1.06,1.69,-0.23,0.59,
1.699,0.23,-0.12,1.06,1.70,-0.18,0.55,
1.7,0.23,-0.12,1.06,1.70,-0.18,0.55,
1.7,0.22,-0.12,1.06,1.70,-0.18,0.55,
1.702,0.22,-0.12,1.06,1.70,-0.18,0.55,
1.702,0.22,-0.12,1.06,1.73,-0.19,0.53,
1.704,0.22,-0.12,1.07,1.73,-0.19,0.53,
1.706,0.22,-0.11,1.07,1.73,-0.19,0.53,
1.707,0.22,-0.11,1.07,1.66,-0.20,0.51,
1.709,0.22,-0.12,1.07,1.66,-0.20,0.51,
1.712,0.22,-0.11,1.07,1.66,-0.20,0.51,
1.712,0.22,-0.11,1.07,1.62,-0.19,0.55,
1.714,0.22,-0.11,1.08,1.62,-0.19,0.55,
1.716,0.21,-0.11,1.08,1.62,-0.19,0.55,
1.717,0.21,-0.11,1.08,1.64,-0.20,0.59,
1.719,0.21,-0.12,1.08,1.64,-0.20,0.59,
1.722,0.20,-0.11,1.08,1.64,-0.20,0.59,
1.723,0.20,-0.11,1.08,1.61,-0.22,0.63,
1.723,0.20,-0.11,1.09,1.61,-0.22,0.63,
1.727,0.20,-0.11,1.09,1.61,-0.22,0.63,
1.727,0.20,-0.11,1.09,1.53,-0.24,0.68,
1.729,0.19,-0.12,1.09,1.53,-0.24,0.68,
1.731,0.19,-0.12,1.08,1.53,-0.24,0.68,
1.731,0.19,-0.12,1.08,1.45,-0.24,0.71,
1.733,0.19,-0.12,1.08,1.45,-0.24,0.71,
1.736,0.18,-0.12,1.07,1.45,-0.24,0.71,
1.737,0.18,-0.12,1.07,1.38,-0.29,0.66,
1.739,0.18,-0.13,1.07,1.38,-0.29,0.66,
1.741,0.17,-0.13,1.06,1.38,-0.29,0.66,
1.742,0.17,-0.13,1.06,1.37,-0.36,0.58,
1.744,0.17,-0.13,1.05,1.37,-0.36,0.58,
1.747,0.17,-0.14,1.05,1.37,-0.36,0.58,
1.748,0.17,-0.14,1.05,1.26,-0.45,0.44,
1.749,0.17,-0.14,1.04,1.26,-0.45,0.44,
1.751,0.16,-0.14,1.03,1.26,-0.45,0.44,
1.752,0.16,-0.14,1.03,1.20,-0.53,0.31,
1.755,0.15,-0.14,1.02,1.20,-0.53,0.31,
1.758,0.15,-0.14,1.01,1.20,-0.53,0.31,
1.759,0.15,-0.14,1.01,1.19,-0.60,0.16,
1.759,0.14,-0.14,1.00,1.19,-0.60,0.16,
1.761,0.14,-0.14,1.00,1.10,-0.59,-0.02,
1.762,0.13,-0.14,0.99,1.10,-0.59,-0.02,
1.763,0.13,-0.14,0.98,1.10,-0.59,-0.02,
1.767,0.13,-0.14,0.98,1.00,-0.62,-0.22,
1.768,0.13,-0.13,0.97,1.00,-0.62,-0.22,
1.768,0.12,-0.13,0.96,1.00,-0.62,-0.22,
1.779,0.12,-0.12,0.96,1.00,-0.62,-0.22,
1.78,0.12,-0.12,0.96,0.94,-0.59,-0.40,
1.78,0.11,-0.11,0.96,0.94,-0.59,-0.40,
1.78,0.11,-0.11,0.96,0.94,-0.59,-0.40,
1.781,0.11,-0.11,0.96,0.87,-0.51,-0.54,
1.781,0.11,-0.10,0.95,0.87,-0.51,-0.54,
1.781,0.11,-0.09,0.95,0.87,-0.51,-0.54,
1.782,0.11,-0.09,0.95,0.82,-0.39,-0.60,
1.783,0.11,-0.09,0.96,0.82,-0.39,-0.60,
1.786,0.11,-0.09,0.97,0.82,-0.39,-0.60,
1.786,0.11,-0.09,0.97,0.82,-0.30,-0.61,
1.794,0.10,-0.09,0.97,0.82,-0.30,-0.61,
1.794,0.09,-0.09,0.97,0.82,-0.30,-0.61,
1.795,0.09,-0.09,0.97,0.80,-0.22,-0.54,
1.795,0.10,-0.09,0.97,0.80,-0.22,-0.54,
1.796,0.09,-0.09,0.97,0.80,-0.22,-0.54,
1.796,0.09,-0.09,0.97,0.70,-0.21,-0.48,
1.798,0.10,-0.09,0.96,0.70,-0.21,-0.48,
1.801,0.10,-0.10,0.97,0.70,-0.21,-0.48,
1.801,0.10,-0.10,0.97,0.71,-0.25,-0.49,
1.803,0.10,-0.10,0.97,0.71,-0.25,-0.49,
1.805,0.11,-0.10,0.96,0.71,-0.25,-0.49,
1.806,0.11,-0.10,0.96,0.74,-0.31,-0.49,
1.808,0.11,-0.11,0.96,0.74,-0.31,-0.49,
1.811,0.11,-0.11,0.96,0.74,-0.31,-0.49,
1.811,0.11,-0.11,0.96,0.82,-0.41,-0.49,
1.815,0.11,-0.11,0.96,0.82,-0.41,-0.49,
1.816,0.11,-0.11,0.95,0.82,-0.41,-0.49,
1.816,0.11,-0.11,0.95,0.87,-0.49,-0.53,
1.818,0.12,-0.11,0.95,0.87,-0.49,-0.53,
1.822,0.12,-0.11,0.95,0.87,-0.49,-0.53,
1.823,0.12,-0.11,0.95,0.90,-0.56,-0.59,
1.823,0.12,-0.11,0.94,0.90,-0.56,-0.59,
1.825,0.12,-0.10,0.94,0.90,-0.56,-0.59,
1.826,0.12,-0.10,0.94,0.97,-0.56,-0.64,
1.827,0.12,-0.10,0.94,0.97,-0.56,-0.64,
1.831,0.12,-0.10,0.94,0.98,-0.51,-0.71,
1.831,0.13,-0.10,0.94,0.98,-0.51,-0.71,
1.834,0.12,-0.09,0.93,0.98,-0.51,-0.71,
1.836,0.12,-0.10,0.93,0.98,-0.51,-0.71,
1.836,0.12,-0.10,0.93,1.04,-0.51,-0.75,
1.839,0.12,-0.09,0.93,1.04,-0.51,-0.75,
1.841,0.12,-0.09,0.92,1.04,-0.51,-0.75,
1.842,0.12,-0.09,0.92,0.99,-0.47,-0.80,
1.843,0.12,-0.09,0.92,0.99,-0.47,-0.80,
1.846,0.13,-0.08,0.91,0.99,-0.47,-0.80,
1.846,0.13,-0.08,0.91,1.02,-0.45,-0.85,
1.848,0.12,-0.08,0.91,1.02,-0.45,-0.85,
1.851,0.12,-0.08,0.91,1.06,-0.42,-0.99,
1.851,0.13,-0.08,0.90,1.06,-0.42,-0.99,
1.853,0.13,-0.08,0.90,1.06,-0.42,-0.99,
1.855,0.13,-0.08,0.89,1.06,-0.42,-0.99,
1.856,0.13,-0.08,0.89,1.07,-0.42,-1.07,
1.858,0.12,-0.08,0.88,1.07,-0.42,-1.07,
1.861,0.12,-0.07,0.87,1.07,-0.42,-1.07,
1.862,0.12,-0.07,0.87,1.10,-0.42,-1.17,
1.864,0.11,-0.07,0.87,1.10,-0.42,-1.17,
1.866,0.11,-0.07,0.87,1.10,-0.42,-1.17,
1.866,0.11,-0.07,0.87,1.03,-0.39,-1.34,
1.868,0.11,-0.06,0.87,1.03,-0.39,-1.34,
1.871,0.10,-0.06,0.88,1.03,-0.39,-1.34,
1.872,0.10,-0.06,0.88,0.94,-0.36,-1.40,
1.874,0.10,-0.05,0.88,0.94,-0.36,-1.40,
1.876,0.10,-0.05,0.88,0.88,-0.29,-1.34,
1.876,0.09,-0.04,0.89,0.88,-0.29,-1.34,
1.878,0.09,-0.04,0.90,0.88,-0.29,-1.34,
1.881,0.09,-0.03,0.91,0.88,-0.29,-1.34,
1.881,0.09,-0.03,0.91,0.77,-0.17,-1.23,
1.883,0.09,-0.03,0.93,0.77,-0.17,-1.23,
1.886,0.08,-0.02,0.93,0.77,-0.17,-1.23,
1.886,0.08,-0.02,0.93,0.71,-0.09,-1.04,
1.888,0.08,-0.02,0.94,0.71,-0.09,-1.04,
1.896,0.08,-0.02,0.95,0.71,-0.09,-1.04,
1.897,0.08,-0.02,0.95,0.65,0.01,-0.84,
1.897,0.08,-0.03,0.97,0.65,0.01,-0.84,
1.897,0.08,-0.02,0.97,0.65,0.01,-0.84,
1.897,0.08,-0.02,0.97,0.62,0.02,-0.66,
1.898,0.08,-0.03,0.98,0.62,0.02,-0.66,
1.901,0.08,-0.03,0.98,0.59,-0.01,-0.41,
1.902,0.08,-0.03,0.98,0.59,-0.01,-0.41,
1.902,0.09,-0.03,1.00,0.59,-0.01,-0.41,
1.907,0.09,-0.03,1.00,0.59,-0.01,-0.41,
1.908,0.09,-0.03,1.00,0.60,-0.06,-0.29,
1.908,0.09,-0.04,1.00,0.60,-0.06,-0.29,
1.91,0.09,-0.04,1.00,0.60,-0.06,-0.29,
1.91,0.09,-0.04,1.00,0.63,-0.11,-0.14,
1.913,0.09,-0.04,1.01,0.63,-0.11,-0.14,
1.915,0.09,-0.04,1.00,0.63,-0.11,-0.14,
1.916,0.09,-0.04,1.00,0.62,-0.19,-0.11,
1.918,0.09,-0.05,1.00,0.62,-0.19,-0.11,
1.921,0.09,-0.05,0.99,0.62,-0.19,-0.11,
1.921,0.09,-0.05,0.99,0.66,-0.26,-0.08,
1.924,0.09,-0.05,0.99,0.66,-0.26,-0.08,
1.925,0.09,-0.05,0.99,0.66,-0.31,-0.15,
1.925,0.09,-0.04,0.98,0.66,-0.31,-0.15,
1.928,0.08,-0.05,0.97,0.66,-0.31,-0.15,
1.93,0.07,-0.05,0.97,0.66,-0.31,-0.15,
1.93,0.07,-0.05,0.97,0.64,-0.32,-0.26,
1.933,0.07,-0.05,0.96,0.64,-0.32,-0.26,
1.935,0.06,-0.05,0.94,0.64,-0.32,-0.26,
1.935,0.06,-0.05,0.94,0.56,-0.34,-0.41,
1.938,0.05,-0.05,0.93,0.56,-0.34,-0.41,
1.94,0.05,-0.05,0.92,0.56,-0.34,-0.41,
1.941,0.05,-0.05,0.92,0.46,-0.39,-0.60,
1.942,0.04,-0.04,0.91,0.46,-0.39,-0.60,
1.945,0.02,-0.04,0.90,0.46,-0.39,-0.60,
1.945,0.02,-0.04,0.90,0.32,-0.38,-0.83,
1.948,0.01,-0.04,0.89,0.32,-0.38,-0.83,
1.95,0.01,-0.04,0.89,0.14,-0.33,-1.02,
1.951,0.01,-0.04,0.88,0.14,-0.33,-1.02,
1.952,-0.00,-0.04,0.87,0.14,-0.33,-1.02,
1.955,-0.00,-0.03,0.86,0.14,-0.33,-1.02,
1.955,-0.00,-0.03,0.86,-0.03,-0.36,-1.26,
1.958,-0.00,-0.04,0.85,-0.03,-0.36,-1.26,
1.961,-0.01,-0.03,0.85,-0.03,-0.36,-1.26,
1.961,-0.01,-0.03,0.85,-0.15,-0.30,-1.44,
1.962,-0.02,-0.03,0.84,-0.15,-0.30,-1.44,
1.966,-0.01,-0.03,0.84,-0.15,-0.30,-1.44,
1.966,-0.01,-0.03,0.84,-0.17,-0.31,-1.59,
1.967,-0.02,-0.03,0.84,-0.17,-0.31,-1.59,
1.97,-0.01,-0.03,0.84,-0.17,-0.31,-1.59,
1.97,-0.01,-0.03,0.84,-0.26,-0.33,-1.67,
1.973,-0.01,-0.02,0.84,-0.26,-0.33,-1.67,
1.975,-0.01,-0.02,0.84,-0.25,-0.27,-1.65,
1.976,0.00,-0.01,0.85,-0.25,-0.27,-1.65,
1.978,0.01,-0.01,0.86,-0.25,-0.27,-1.65,
1.981,0.02,-0.00,0.87,-0.25,-0.27,-1.65,
1.981,0.02,-0.00,0.87,-0.13,-0.17,-1.60,
1.982,0.03,-0.00,0.88,-0.13,-0.17,-1.60,
1.984,0.04,-0.00,0.89,-0.13,-0.17,-1.60,
1.985,0.04,-0.00,0.89,0.06,-0.12,-1.39,
1.986,0.04,0.00,0.90,0.06,-0.12,-1.39,
1.99,0.05,0.01,0.90,0.06,-0.12,-1.39,
1.991,0.05,0.01,0.90,0.19,-0.09,-1.21,
1.991,0.05,0.00,0.91,0.19,-0.09,-1.21,
1.994,0.06,0.01,0.91,0.19,-0.09,-1.21,
1.994,0.06,0.01,0.91,0.29,-0.04,-1.07,
1.996,0.07,0.01,0.92,0.29,-0.04,-1.07,
1.999,0.07,0.01,0.92,0.39,-0.06,-0.93,
1.999,0.08,0.01,0.93,0.39,-0.06,-0.93,
2.001,0.09,0.01,0.93,0.39,-0.06,-0.93,
2.003,0.09,0.01,0.93,0.39,-0.06,-0.93,
2.004,0.09,0.01,0.93,0.50,-0.05,-0.77,
2.011,0.10,0.01,0.93,0.50,-0.05,-0.77,
2.012,0.10,0.01,0.93,0.50,-0.05,-0.77,
2.012,0.10,0.01,0.93,0.65,-0.05,-0.76,
2.012,0.11,0.01,0.93,0.65,-0.05,-0.76,
2.014,0.12,0.01,0.93,0.65,-0.05,-0.76,
2.014,0.12,0.01,0.93,0.76,-0.03,-0.72,
2.016,0.11,0.02,0.93,0.76,-0.03,-0.72,
2.018,0.12,0.01,0.93,0.76,-0.03,-0.72,
2.019,0.12,0.01,0.93,0.86,-0.06,-0.74,
2.021,0.12,0.01,0.93,0.86,-0.06,-0.74,
2.024,0.12,0.01,0.93,0.86,-0.05,-0.77,
2.024,0.12,0.02,0.92,0.86,-0.05,-0.77,
2.026,0.11,0.02,0.92,0.86,-0.05,-0.77,
2.028,0.10,0.02,0.93,0.86,-0.05,-0.77,
2.029,0.10,0.02,0.93,0.86,-0.06,-0.80,
2.03,0.10,0.02,0.93,0.86,-0.06,-0.80,
2.033,0.09,0.01,0.93,0.86,-0.06,-0.80,
2.034,0.09,0.01,0.93,0.78,-0.06,-0.77,
2.035,0.08,0.01,0.92,0.78,-0.06,-0.77,
2.04,0.07,0.00,0.93,0.78,-0.06,-0.77,
2.041,0.07,0.00,0.93,0.65,-0.11,-0.75,
2.041,0.07,0.01,0.92,0.65,-0.11,-0.75,
2.043,0.06,0.00,0.92,0.65,-0.11,-0.75,
2.044,0.06,0.00,0.92,0.45,-0.18,-0.80,
2.045,0.04,0.00,0.92,0.45,-0.18,-0.80,
2.048,0.04,0.00,0.92,0.28,-0.21,-0.82,
2.048,0.03,-0.00,0.91,0.28,-0.21,-0.82,
2.051,0.02,0.01,0.91,0.28,-0.21,-0.82,
2.053,0.03,0.00,0.90,0.28,-0.21,-0.82,
2.053,0.03,0.00,0.90,0.07,-0.25,-0.87,
2.056,0.02,0.00,0.89,0.07,-0.25,-0.87,
2.058,0.02,0.01,0.89,0.07,-0.25,-0.87,
2.059,0.02,0.01,0.89,-0.07,-0.21,-0.98,
2.06,0.02,0.00,0.88,-0.07,-0.21,-0.98,
2.063,0.01,0.00,0.87,-0.07,-0.21,-0.98,
2.064,0.01,0.00,0.87,-0.14,-0.23,-1.12,
2.065,0.01,0.01,0.86,-0.14,-0.23,-1.12,
2.068,0.01,0.01,0.86,-0.14,-0.23,-1.12,
2.068,0.01,0.01,0.86,-0.18,-0.24,-1.29,
2.07,0.02,0.02,0.84,-0.18,-0.24,-1.29,
2.073,0.02,0.02,0.84,-0.20,-0.16,-1.40,
2.074,0.02,0.02,0.84,-0.20,-0.16,-1.40,
2.075,0.02,0.03,0.84,-0.20,-0.16,-1.40,
2.078,0.03,0.03,0.83,-0.20,-0.16,-1.40,
2.079,0.03,0.03,0.83,-0.16,-0.09,-1.59,
2.08,0.04,0.03,0.84,-0.16,-0.09,-1.59,
2.083,0.04,0.04,0.83,-0.16,-0.09,-1.59,
2.084,0.04,0.04,0.83,-0.10,-0.02,-1.64,
2.085,0.05,0.05,0.83,-0.10,-0.02,-1.64,
2.088,0.05,0.05,0.83,-0.10,-0.02,-1.64,
2.089,0.05,0.05,0.83,0.04,0.05,-1.66,
2.091,0.06,0.05,0.83,0.04,0.05,-1.66,
2.093,0.07,0.06,0.83,0.04,0.05,-1.66,
2.093,0.07,0.06,0.83,0.13,0.17,-1.71,
2.096,0.08,0.06,0.84,0.13,0.17,-1.71,
2.101,0.08,0.07,0.85,0.13,0.17,-1.71,
2.102,0.08,0.07,0.85,0.25,0.25,-1.64,
2.103,0.09,0.08,0.85,0.25,0.25,-1.64,
2.103,0.09,0.07,0.86,0.25,0.25,-1.64,
2.104,0.09,0.07,0.86,0.36,0.37,-1.53,
2.116,0.09,0.08,0.87,0.36,0.37,-1.53,
2.118,0.09,0.08,0.87,0.36,0.37,-1.53,
2.118,0.09,0.08,0.87,0.46,0.44,-1.40,
2.119,0.10,0.08,0.88,0.46,0.44,-1.40,
2.119,0.10,0.08,0.88,0.48,0.49,-1.28,
2.12,0.10,0.08,0.89,0.48,0.49,-1.28,
2.12,0.11,0.08,0.89,0.48,0.49,-1.28,
2.12,0.11,0.08,0.89,0.48,0.49,-1.28,
2.121,0.11,0.08,0.89,0.55,0.49,-1.13,
2.121,0.11,0.08,0.91,0.55,0.49,-1.13,
2.133,0.11,0.08,0.92,0.55,0.49,-1.13,
2.133,0.11,0.08,0.92,0.58,0.48,-1.07,
2.134,0.11,0.07,0.92,0.58,0.48,-1.07,
2.134,0.11,0.07,0.92,0.58,0.48,-1.07,
2.134,0.11,0.07,0.92,0.61,0.47,-0.87,
2.135,0.11,0.07,0.93,0.61,0.47,-0.87,
2.135,0.10,0.07,0.93,0.61,0.47,-0.87,
2.135,0.10,0.07,0.93,0.55,0.43,-0.79,
2.135,0.10,0.06,0.94,0.55,0.43,-0.79,
2.137,0.10,0.06,0.94,0.49,0.41,-0.67,
2.137,0.09,0.06,0.95,0.49,0.41,-0.67,
2.139,0.08,0.06,0.95,0.49,0.41,-0.67,
2.142,0.08,0.06,0.95,0.49,0.41,-0.67,
2.146,0.08,0.06,0.95,0.38,0.33,-0.55,
2.146,0.07,0.05,0.95,0.38,0.33,-0.55,
2.147,0.07,0.05,0.95,0.38,0.33,-0.55,
2.147,0.07,0.05,0.95,0.25,0.30,-0.46,
2.149,0.07,0.05,0.95,0.25,0.30,-0.46,
2.152,0.06,0.05,0.95,0.25,0.30,-0.46,
2.152,0.06,0.05,0.95,0.13,0.27,-0.48,
2.154,0.06,0.04,0.96,0.13,0.27,-0.48,
2.158,0.06,0.04,0.95,0.13,0.27,-0.48,
2.159,0.06,0.04,0.95,0.05,0.24,-0.46,
2.159,0.06,0.04,0.95,0.05,0.24,-0.46,
2.163,0.06,0.04,0.95,-0.01,0.14,-0.43,
2.163,0.06,0.03,0.95,-0.01,0.14,-0.43,
2.165,0.06,0.03,0.95,-0.01,0.14,-0.43,
2.168,0.06,0.03,0.94,-0.01,0.14,-0.43,
2.168,0.06,0.03,0.94,-0.01,0.10,-0.49,
2.17,0.07,0.02,0.94,-0.01,0.10,-0.49,
2.174,0.07,0.02,0.93,-0.01,0.10,-0.49,
2.175,0.07,0.02,0.93,-0.03,0.05,-0.52,
2.175,0.06,0.03,0.93,-0.03,0.05,-0.52,
2.177,0.06,0.03,0.93,0.03,0.01,-0.60,
2.177,0.06,0.03,0.92,0.03,0.01,-0.60,
2.179,0.08,0.03,0.92,0.03,0.01,-0.60,
2.182,0.08,0.02,0.92,0.03,0.01,-0.60,
2.182,0.08,0.02,0.92,0.01,0.04,-0.69,
2.184,0.07,0.03,0.92,0.01,0.04,-0.69,
2.188,0.07,0.03,0.92,0.11,0.03,-0.78,
2.188,0.08,0.03,0.92,0.11,0.03,-0.78,
2.19,0.07,0.04,0.91,0.11,0.03,-0.78,
2.192,0.07,0.04,0.91,0.11,0.03,-0.78,
2.192,0.07,0.04,0.91,0.09,0.08,-0.79,
2.194,0.07,0.04,0.90,0.09,0.08,-0.79,
2.197,0.07,0.05,0.89,0.09,0.08,-0.79,
2.197,0.07,0.05,0.89,0.06,0.17,-0.89,
2.2,0.06,0.05,0.89,0.06,0.17,-0.89,
2.202,0.06,0.06,0.89,0.06,0.17,-0.89,
2.202,0.06,0.06,0.89,0.01,0.23,-0.99,
2.205,0.06,0.06,0.89,0.01,0.23,-0.99,
2.207,0.06,0.07,0.89,0.01,0.23,-0.99,
2.207,0.06,0.07,0.89,-0.04,0.34,-1.02,
2.21,0.06,0.07,0.89,-0.04,0.34,-1.02,
2.212,0.06,0.07,0.89,-0.06,0.41,-1.00,
2.213,0.06,0.07,0.89,-0.06,0.41,-1.00,
2.215,0.06,0.08,0.89,-0.06,0.41,-1.00,
2.217,0.06,0.08,0.88,-0.06,0.41,-1.00,
2.217,0.06,0.08,0.88,-0.09,0.51,-1.05,
2.219,0.06,0.08,0.89,-0.09,0.51,-1.05,
2.223,0.06,0.09,0.90,-0.09,0.51,-1.05,
2.223,0.06,0.09,0.90,-0.08,0.57,-1.08,
2.228,0.05,0.08,0.90,-0.08,0.57,-1.08,
2.229,0.06,0.09,0.91,-0.08,0.57,-1.08,
2.229,0.06,0.09,0.91,-0.14,0.61,-0.96,
2.229,0.06,0.09,0.91,-0.14,0.61,-0.96,
2.232,0.07,0.08,0.92,-0.14,0.61,-0.96,
2.232,0.07,0.08,0.92,-0.16,0.64,-0.86,
2.234,0.07,0.08,0.93,-0.16,0.64,-0.86,
2.237,0.07,0.08,0.93,-0.05,0.65,-0.74,
2.237,0.07,0.08,0.93,-0.05,0.65,-0.74,
2.239,0.07,0.07,0.95,-0.05,0.65,-0.74,
2.242,0.07,0.07,0.95,-0.05,0.65,-0.74,
2.242,0.07,0.07,0.95,-0.04,0.60,-0.60,
2.244,0.07,0.06,0.95,-0.04,0.60,-0.60,
2.246,0.07,0.06,0.96,-0.04,0.60,-0.60,
2.247,0.07,0.06,0.96,-0.08,0.51,-0.43,
2.25,0.06,0.05,0.96,-0.08,0.51,-0.43,
2.253,0.06,0.05,0.96,-0.08,0.51,-0.43,
2.253,0.06,0.05,0.96,-0.08,0.42,-0.41,
2.254,0.05,0.04,0.97,-0.08,0.42,-0.41,
2.256,0.05,0.04,0.96,-0.08,0.42,-0.41,
2.257,0.05,0.04,0.96,-0.16,0.32,-0.31,
2.259,0.03,0.03,0.96,-0.16,0.32,-0.31,
2.263,0.03,0.03,0.96,-0.28,0.24,-0.28,
2.263,0.02,0.03,0.96,-0.28,0.24,-0.28,
2.263,0.01,0.02,0.96,-0.28,0.24,-0.28,
2.267,0.00,0.02,0.95,-0.28,0.24,-0.28,
2.267,0.00,0.02,0.95,-0.50,0.14,-0.34,
2.269,-0.01,0.02,0.95,-0.50,0.14,-0.34,
2.272,-0.03,0.01,0.94,-0.50,0.14,-0.34,
2.272,-0.03,0.01,0.94,-0.66,0.06,-0.41,
2.274,-0.04,0.01,0.93,-0.66,0.06,-0.41,
2.277,-0.04,0.01,0.93,-0.66,0.06,-0.41,
2.278,-0.04,0.01,0.93,-0.90,0.01,-0.47,
2.279,-0.06,0.01,0.92,-0.90,0.01,-0.47,
2.282,-0.07,0.01,0.92,-0.90,0.01,-0.47,
2.283,-0.07,0.01,0.92,-1.09,0.00,-0.62,
2.284,-0.08,0.00,0.91,-1.09,0.00,-0.62,
2.287,-0.08,0.00,0.91,-1.31,-0.03,-0.70,
2.287,-0.09,0.01,0.91,-1.31,-0.03,-0.70,
2.289,-0.09,0.01,0.91,-1.31,-0.03,-0.70,
2.292,-0.10,0.01,0.90,-1.31,-0.03,-0.70,
2.293,-0.10,0.01,0.90,-1.45,-0.05,-0.78,
2.293,-0.11,0.01,0.91,-1.45,-0.05,-0.78,
2.297,-0.11,0.01,0.91,-1.45,-0.05,-0.78,
2.297,-0.11,0.01,0.91,-1.56,-0.04,-0.86,
2.299,-0.12,0.01,0.91,-1.56,-0.04,-0.86,
2.302,-0.12,0.01,0.92,-1.56,-0.04,-0.86,
2.302,-0.12,0.01,0.92,-1.68,-0.02,-0.83,
2.304,-0.11,0.01,0.92,-1.68,-0.02,-0.83,
2.307,-0.12,0.01,0.92,-1.68,-0.02,-0.83,
2.307,-0.12,0.01,0.92,-1.76,0.02,-0.77,
2.31,-0.12,0.01,0.92,-1.76,0.02,-0.77,
2.316,-0.12,0.01,0.93,-1.76,0.02,-0.77,
2.316,-0.12,0.01,0.93,-1.76,0.03,-0.72,
2.317,-0.13,0.01,0.93,-1.76,0.03,-0.72,
2.317,-0.13,0.00,0.94,-1.76,0.03,-0.72,
2.317,-0.13,0.00,0.94,-1.81,0.01,-0.65,
2.318,-0.13,-0.00,0.94,-1.81,0.01,-0.65,
2.321,-0.13,-0.01,0.93,-1.81,0.01,-0.65,
2.322,-0.13,-0.01,0.93,-1.89,-0.01,-0.55,
2.323,-0.13,-0.01,0.94,-1.89,-0.01,-0.55,
2.33,-0.13,-0.02,0.94,-1.89,-0.01,-0.55,
2.331,-0.13,-0.02,0.94,-1.91,-0.12,-0.55,
2.331,-0.14,-0.02,0.94,-1.91,-0.12,-0.55,
2.331,-0.14,-0.02,0.93,-1.91,-0.12,-0.55,
2.331,-0.14,-0.02,0.93,-1.90,-0.22,-0.54,
2.333,-0.15,-0.03,0.92,-1.90,-0.22,-0.54,
2.336,-0.15,-0.03,0.93,-1.90,-0.22,-0.54,
2.336,-0.15,-0.03,0.93,-1.99,-0.26,-0.57,
2.338,-0.16,-0.03,0.93,-1.99,-0.26,-0.57,
2.341,-0.17,-0.04,0.92,-1.99,-0.26,-0.57,
2.341,-0.17,-0.04,0.92,-2.09,-0.36,-0.67,
2.343,-0.18,-0.03,0.93,-2.09,-0.36,-0.67,
2.345,-0.18,-0.03,0.93,-2.09,-0.36,-0.67,
2.346,-0.18,-0.03,0.93,-2.23,-0.38,-0.65,
2.348,-0.18,-0.02,0.93,-2.23,-0.38,-0.65,
2.35,-0.19,-0.02,0.94,-2.23,-0.38,-0.65,
2.351,-0.19,-0.02,0.94,-2.35,-0.36,-0.60,
2.352,-0.19,-0.03,0.94,-2.35,-0.36,-0.60,
2.355,-0.19,-0.02,0.95,-2.35,-0.36,-0.60,
2.355,-0.19,-0.02,0.95,-2.42,-0.28,-0.54,
2.358,-0.19,-0.02,0.96,-2.42,-0.28,-0.54,
2.36,-0.18,-0.02,0.97,-2.42,-0.28,-0.54,
2.361,-0.18,-0.02,0.97,-2.45,-0.25,-0.45,
2.362,-0.18,-0.02,0.98,-2.45,-0.25,-0.45,
2.365,-0.17,-0.02,0.98,-2.45,-0.25,-0.45,
2.366,-0.17,-0.02,0.98,-2.41,-0.22,-0.27,
2.367,-0.16,-0.02,0.99,-2.41,-0.22,-0.27,
2.37,-0.15,-0.03,0.99,-2.41,-0.22,-0.27,
2.37,-0.15,-0.03,0.99,-2.33,-0.22,-0.14,
2.372,-0.15,-0.04,0.99,-2.33,-0.22,-0.14,
2.375,-0.14,-0.04,0.99,-2.33,-0.22,-0.14,
2.376,-0.14,-0.04,0.99,-2.19,-0.25,-0.02,
2.377,-0.13,-0.05,0.99,-2.19,-0.25,-0.02,
2.381,-0.12,-0.06,0.99,-2.19,-0.25,-0.02,
2.381,-0.12,-0.06,0.99,-2.05,-0.43,-0.00,
2.382,-0.13,-0.08,0.99,-2.05,-0.43,-0.00,
2.385,-0.13,-0.08,0.99,-2.05,-0.43,-0.00,
2.385,-0.13,-0.08,0.99,-1.91,-0.59,0.03,
2.387,-0.13,-0.09,0.99,-1.91,-0.59,0.03,
2.392,-0.13,-0.09,0.99,-1.91,-0.59,0.03,
2.393,-0.13,-0.09,0.99,-1.90,-0.79,-0.01,
2.393,-0.13,-0.10,0.99,-1.90,-0.79,-0.01,
2.395,-0.13,-0.10,0.99,-1.90,-0.79,-0.01,
2.395,-0.13,-0.10,0.99,-1.93,-0.88,-0.01,
2.398,-0.13,-0.11,0.99,-1.93,-0.88,-0.01,
2.4,-0.14,-0.11,0.99,-1.93,-0.88,-0.01,
2.4,-0.14,-0.11,0.99,-1.96,-0.96,-0.01,
2.402,-0.14,-0.11,0.98,-1.96,-0.96,-0.01,
2.405,-0.14,-0.11,0.99,-1.96,-0.96,-0.01,
2.405,-0.14,-0.11,0.99,-1.99,-1.07,-0.04,
2.409,-0.14,-0.12,0.99,-1.99,-1.07,-0.04,
2.41,-0.14,-0.12,0.99,-2.05,-1.08,-0.03,
2.411,-0.14,-0.11,0.99,-2.05,-1.08,-0.03,
2.412,-0.14,-0.11,0.99,-2.05,-1.08,-0.03,
2.415,-0.14,-0.11,1.00,-2.05,-1.08,-0.03,
2.415,-0.14,-0.11,1.00,-2.05,-1.09,0.01,
2.417,-0.13,-0.11,1.00,-2.05,-1.09,0.01,
2.421,-0.12,-0.11,0.99,-2.05,-1.09,0.01,
2.421,-0.12,-0.11,0.99,-1.99,-1.04,0.05,
2.422,-0.12,-0.10,0.99,-1.99,-1.04,0.05,
2.426,-0.11,-0.10,0.99,-1.99,-1.04,0.05,
2.427,-0.11,-0.10,0.99,-1.87,-1.02,0.03,
2.428,-0.10,-0.10,0.99,-1.87,-1.02,0.03,
2.43,-0.09,-0.09,1.00,-1.87,-1.02,0.03,
2.43,-0.09,-0.09,1.00,-1.73,-0.93,0.03,
2.432,-0.08,-0.09,1.00,-1.73,-0.93,0.03,
2.435,-0.08,-0.08,1.00,-1.73,-0.93,0.03,
2.436,-0.08,-0.08,1.00,-1.56,-0.85,0.06,
2.437,-0.07,-0.07,1.00,-1.56,-0.85,0.06,
2.439,-0.06,-0.07,1.00,-1.56,-0.85,0.06,
2.44,-0.06,-0.07,1.00,-1.42,-0.70,0.10,
2.449,-0.06,-0.06,1.01,-1.42,-0.70,0.10,
2.45,-0.06,-0.06,1.01,-1.30,-0.59,0.11,
2.45,-0.05,-0.06,1.01,-1.30,-0.59,0.11,
2.451,-0.05,-0.05,1.01,-1.30,-0.59,0.11,
2.451,-0.04,-0.06,1.02,-1.30,-0.59,0.11,
2.451,-0.04,-0.06,1.02,-1.16,-0.46,0.18,
2.452,-0.03,-0.05,1.02,-1.16,-0.46,0.18,
2.455,-0.03,-0.05,1.02,-1.16,-0.46,0.18,
2.455,-0.03,-0.05,1.02,-1.06,-0.40,0.20,
2.456,-0.03,-0.05,1.03,-1.06,-0.40,0.20,
2.468,-0.03,-0.05,1.04,-1.06,-0.40,0.20,
2.47,-0.03,-0.05,1.04,-0.94,-0.38,0.31,
2.47,-0.03,-0.05,1.04,-0.94,-0.38,0.31,
2.47,-0.02,-0.05,1.05,-0.94,-0.38,0.31,
2.471,-0.02,-0.05,1.05,-0.92,-0.36,0.43,
2.471,-0.02,-0.05,1.06,-0.92,-0.36,0.43,
2.472,-0.02,-0.05,1.06,-0.92,-0.36,0.43,
2.472,-0.02,-0.05,1.06,-0.90,-0.35,0.53,
2.472,-0.02,-0.05,1.07,-0.90,-0.35,0.53,
2.478,-0.02,-0.04,1.08,-0.90,-0.35,0.53,
2.479,-0.02,-0.04,1.08,-0.87,-0.30,0.69,
2.479,-0.02,-0.04,1.09,-0.87,-0.30,0.69,
2.48,-0.02,-0.04,1.09,-0.87,-0.30,0.69,
2.48,-0.02,-0.04,1.09,-0.87,-0.25,0.87,
2.482,-0.01,-0.03,1.10,-0.87,-0.25,0.87,
2.484,-0.01,-0.03,1.10,-0.87,-0.25,0.87,
2.484,-0.01,-0.03,1.10,-0.86,-0.18,0.98,
2.487,-0.01,-0.04,1.11,-0.86,-0.18,0.98,
2.489,-0.01,-0.03,1.11,-0.86,-0.18,0.98,
2.49,-0.01,-0.03,1.11,-0.82,-0.15,1.09,
2.494,-0.00,-0.03,1.10,-0.82,-0.15,1.09,
2.495,-0.00,-0.03,1.10,-0.82,-0.15,1.09,
2.495,-0.00,-0.03,1.10,-0.82,-0.15,1.15,
2.496,0.00,-0.03,1.10,-0.82,-0.15,1.15,
2.499,0.01,-0.03,1.09,-0.82,-0.15,1.15,
2.499,0.01,-0.03,1.09,-0.73,-0.11,1.06,
2.502,0.01,-0.03,1.09,-0.73,-0.11,1.06,
2.504,0.01,-0.03,1.08,-0.73,-0.11,1.06,
2.504,0.01,-0.03,1.08,-0.68,-0.10,1.01,
2.506,0.01,-0.02,1.08,-0.68,-0.10,1.01,
2.508,0.02,-0.03,1.07,-0.68,-0.10,1.01,
2.509,0.02,-0.03,1.07,-0.63,-0.09,0.97,
2.511,0.02,-0.02,1.06,-0.63,-0.09,0.97,
2.514,0.02,-0.02,1.05,-0.63,-0.09,0.97,
2.514,0.02,-0.02,1.05,-0.58,-0.06,0.81,
2.516,0.03,-0.02,1.05,-0.58,-0.06,0.81,
2.519,0.03,-0.02,1.05,-0.58,-0.06,0.81,
2.519,0.03,-0.02,1.05,-0.53,-0.05,0.62,
2.521,0.03,-0.01,1.04,-0.53,-0.05,0.62,
2.524,0.04,-0.01,1.03,-0.53,-0.05,0.62,
2.524,0.04,-0.01,1.03,-0.47,0.01,0.59,
2.526,0.04,-0.00,1.03,-0.47,0.01,0.59,
2.528,0.04,0.00,1.03,-0.47,0.01,0.59,
2.529,0.04,0.00,1.03,-0.38,0.10,0.44,
2.531,0.04,0.01,1.02,-0.38,0.10,0.44,
2.534,0.05,0.01,1.02,-0.38,0.10,0.44,
2.534,0.05,0.01,1.02,-0.35,0.16,0.35,
2.536,0.04,0.01,1.02,-0.35,0.16,0.35,
2.539,0.04,0.02,1.02,-0.35,0.16,0.35,
2.539,0.04,0.02,1.02,-0.28,0.23,0.25,
2.541,0.04,0.02,1.01,-0.28,0.23,0.25,
2.547,0.03,0.01,1.01,-0.28,0.23,0.25,
2.547,0.03,0.01,1.01,-0.34,0.28,0.24,
2.548,0.03,0.02,1.01,-0.34,0.28,0.24,
2.548,0.02,0.02,1.01,-0.34,0.28,0.24,
2.549,0.02,0.02,1.01,-0.35,0.29,0.19,
2.55,0.02,0.02,1.01,-0.35,0.29,0.19,
2.553,0.02,0.02,1.01,-0.35,0.29,0.19,
2.554,0.02,0.02,1.01,-0.45,0.30,0.16,
2.555,0.02,0.02,1.00,-0.45,0.30,0.16,
2.559,0.02,0.02,1.00,-0.45,0.30,0.16,
2.56,0.02,0.02,1.00,-0.52,0.31,0.16,
2.56,0.02,0.01,1.00,-0.52,0.31,0.16,
2.564,0.03,0.01,1.00,-0.52,0.31,0.16,
2.564,0.03,0.01,1.00,-0.48,0.31,0.11,
2.566,0.03,0.02,1.00,-0.48,0.31,0.11,
2.569,0.04,0.02,0.99,-0.48,0.31,0.11,
2.569,0.04,0.02,0.99,-0.46,0.25,0.10,
2.572,0.04,0.01,0.99,-0.46,0.25,0.10,
2.574,0.05,0.01,0.99,-0.46,0.25,0.10,
2.574,0.05,0.01,0.99,-0.38,0.29,0.05,
2.577,0.06,0.01,0.99,-0.38,0.29,0.05,
2.579,0.06,0.01,0.99,-0.38,0.29,0.05,
2.579,0.06,0.01,0.99,-0.26,0.23,-0.01,
2.58,0.06,0.01,0.99,-0.26,0.23,-0.01,
2.583,0.07,0.02,0.99,-0.26,0.23,-0.01,
2.583,0.07,0.02,0.99,-0.17,0.24,0.02,
2.586,0.08,0.02,1.00,-0.17,0.24,0.02,
2.588,0.08,0.03,1.01,-0.17,0.24,0.02,
2.589,0.08,0.03,1.01,-0.09,0.26,0.02,
2.591,0.09,0.03,1.01,-0.09,0.26,0.02,
2.594,0.09,0.04,1.02,-0.09,0.26,0.02,
2.594,0.09,0.04,1.02,-0.01,0.34,0.12,
2.595,0.09,0.04,1.03,-0.01,0.34,0.12,
2.598,0.09,0.04,1.03,0.07,0.44,0.24,
2.599,0.10,0.04,1.03,0.07,0.44,0.24,
2.6,0.10,0.04,1.03,0.07,0.44,0.24,
2.604,0.11,0.05,1.05,0.07,0.44,0.24,
2.604,0.11,0.05,1.05,0.14,0.51,0.36,
2.605,0.12,0.06,1.05,0.14,0.51,0.36,
2.608,0.13,0.05,1.05,0.14,0.51,0.36,
2.608,0.13,0.05,1.05,0.22,0.54,0.48,
2.611,0.14,0.05,1.05,0.22,0.54,0.48,
2.613,0.14,0.05,1.05,0.38,0.59,0.58,
2.613,0.15,0.06,1.05,0.38,0.59,0.58,
2.616,0.16,0.05,1.05,0.38,0.59,0.58,
2.618,0.15,0.05,1.05,0.38,0.59,0.58,
2.619,0.15,0.05,1.05,0.56,0.58,0.60,
2.62,0.14,0.05,1.04,0.56,0.58,0.60,
2.624,0.14,0.05,1.04,0.60,0.55,0.56,
2.624,0.13,0.04,1.04,0.60,0.55,0.56,
2.627,0.11,0.03,1.04,0.60,0.55,0.56,
2.628,0.10,0.03,1.03,0.60,0.55,0.56,
2.628,0.10,0.03,1.03,0.42,0.43,0.48,
2.63,0.09,0.02,1.03,0.42,0.43,0.48,
2.633,0.07,0.01,1.03,0.42,0.43,0.48,
2.634,0.07,0.01,1.03,0.15,0.27,0.43,
2.635,0.06,0.00,1.03,0.15,0.27,0.43,
2.638,0.05,-0.01,1.03,0.15,0.27,0.43,
2.641,0.05,-0.01,1.03,-0.14,0.11,0.39,
2.641,0.05,-0.01,1.02,-0.14,0.11,0.39,
2.644,0.05,-0.01,1.02,-0.39,-0.07,0.36,
2.644,0.04,-0.02,1.01,-0.39,-0.07,0.36,
2.645,0.04,-0.03,1.01,-0.39,-0.07,0.36,
2.648,0.04,-0.03,1.01,-0.50,-0.23,0.24,
2.648,0.03,-0.04,1.01,-0.50,-0.23,0.24,
2.65,0.03,-0.04,1.01,-0.50,-0.23,0.24,
2.653,0.03,-0.04,1.00,-0.50,-0.23,0.24,
2.653,0.03,-0.04,1.00,-0.61,-0.41,0.19,
2.655,0.03,-0.05,1.00,-0.61,-0.41,0.19,
2.657,0.03,-0.05,1.00,-0.61,-0.41,0.19,
2.657,0.03,-0.05,1.00,-0.66,-0.48,0.14,
2.665,0.03,-0.05,1.00,-0.66,-0.48,0.14,
2.666,0.03,-0.05,1.00,-0.66,-0.48,0.14,
2.666,0.03,-0.05,1.00,-0.70,-0.56,0.10,
2.666,0.04,-0.05,1.01,-0.70,-0.56,0.10,
2.667,0.04,-0.04,1.01,-0.70,-0.56,0.10,
2.667,0.04,-0.04,1.01,-0.69,-0.58,0.13,
2.669,0.04,-0.04,1.01,-0.69,-0.58,0.13,
2.672,0.05,-0.04,1.02,-0.69,-0.58,0.13,
2.672,0.05,-0.04,1.02,-0.61,-0.55,0.16,
2.674,0.05,-0.02,1.02,-0.61,-0.55,0.16,
2.677,0.06,-0.02,1.02,-0.61,-0.55,0.16,
2.677,0.06,-0.02,1.02,-0.56,-0.46,0.23,
2.68,0.08,-0.01,1.02,-0.56,-0.46,0.23,
2.683,0.09,0.00,1.03,-0.56,-0.46,0.23,
2.683,0.09,0.00,1.03,-0.43,-0.30,0.30,
2.684,0.10,0.02,1.02,-0.43,-0.30,0.30,
2.687,0.11,0.02,1.02,-0.43,-0.30,0.30,
2.687,0.11,0.02,1.02,-0.24,-0.13,0.36,
2.69,0.11,0.02,1.03,-0.24,-0.13,0.36,
2.692,0.12,0.03,1.03,-0.24,-0.13,0.36,
2.692,0.12,0.03,1.03,-0.04,0.06,0.32,
2.694,0.13,0.03,1.02,-0.04,0.06,0.32,
2.697,0.13,0.04,1.01,-0.04,0.06,0.32,
2.697,0.13,0.04,1.01,0.08,0.11,0.36,
2.699,0.14,0.04,1.02,0.08,0.11,0.36,
2.703,0.15,0.04,1.01,0.08,0.11,0.36,
2.703,0.15,0.04,1.01,0.19,0.18,0.27,
2.705,0.14,0.04,1.01,0.19,0.18,0.27,
2.707,0.14,0.04,1.00,0.19,0.18,0.27,
2.708,0.14,0.04,1.00,0.27,0.18,0.22,
2.711,0.15,0.04,1.00,0.27,0.18,0.22,
2.713,0.16,0.04,1.00,0.27,0.18,0.22,
2.713,0.16,0.04,1.00,0.26,0.20,0.17,
2.715,0.16,0.04,0.99,0.26,0.20,0.17,
2.717,0.16,0.05,0.98,0.26,0.20,0.17,
2.718,0.16,0.05,0.98,0.34,0.19,0.15,
2.72,0.17,0.05,0.98,0.34,0.19,0.15,
2.722,0.17,0.05,0.97,0.34,0.19,0.15,
2.723,0.17,0.05,0.97,0.39,0.17,0.01,
2.724,0.17,0.05,0.96,0.39,0.17,0.01,
2.727,0.16,0.05,0.95,0.39,0.17,0.01,
2.728,0.16,0.05,0.95,0.46,0.23,-0.15,
2.729,0.16,0.06,0.94,0.46,0.23,-0.15,
2.732,0.15,0.06,0.94,0.46,0.23,-0.15,
2.733,0.15,0.06,0.94,0.41,0.23,-0.33,
2.735,0.15,0.06,0.94,0.41,0.23,-0.33,
2.737,0.14,0.06,0.93,0.41,0.23,-0.33,
2.738,0.14,0.06,0.93,0.30,0.27,-0.42,
2.741,0.14,0.05,0.93,0.30,0.27,-0.42,
2.742,0.13,0.05,0.93,0.30,0.27,-0.42,
2.742,0.13,0.05,0.93,0.15,0.22,-0.52,
2.746,0.13,0.05,0.92,0.15,0.22,-0.52,
2.747,0.14,0.04,0.91,0.15,0.22,-0.52,
2.747,0.14,0.04,0.91,0.07,0.15,-0.57,
2.749,0.14,0.04,0.91,0.07,0.15,-0.57,
2.752,0.14,0.04,0.91,0.07,0.15,-0.57,
2.752,0.14,0.04,0.91,0.05,0.06,-0.68,
2.754,0.14,0.03,0.92,0.05,0.06,-0.68,
2.757,0.14,0.03,0.93,0.05,0.06,-0.68,
2.757,0.14,0.03,0.93,0.04,-0.00,-0.72,
2.758,0.14,0.03,0.93,0.04,-0.00,-0.72,
2.761,0.14,0.02,0.93,0.04,-0.00,-0.72,
2.762,0.14,0.02,0.93,0.05,-0.09,-0.59,
2.764,0.14,0.03,0.94,0.05,-0.09,-0.59,
2.766,0.14,0.03,0.94,0.05,-0.09,-0.59,
2.767,0.14,0.03,0.94,0.02,-0.15,-0.53,
2.769,0.14,0.04,0.94,0.02,-0.15,-0.53,
2.771,0.14,0.04,0.95,0.02,-0.15,-0.53,
2.772,0.14,0.04,0.95,-0.02,-0.12,-0.45,
2.774,0.14,0.04,0.95,-0.02,-0.12,-0.45,
2.781,0.15,0.05,0.96,-0.02,-0.12,-0.45,
2.782,0.15,0.05,0.96,-0.08,-0.09,-0.37,
2.782,0.15,0.05,0.96,-0.08,-0.09,-0.37,
2.783,0.15,0.05,0.96,-0.08,-0.09,-0.37,
2.783,0.15,0.05,0.96,-0.05,-0.00,-0.29,
2.783,0.15,0.05,0.96,-0.05,-0.00,-0.29,
2.786,0.15,0.05,0.96,0.01,0.03,-0.21,
2.786,0.16,0.05,0.96,0.01,0.03,-0.21,
2.789,0.17,0.05,0.95,0.01,0.03,-0.21,
2.791,0.17,0.05,0.96,0.01,0.03,-0.21,
2.791,0.17,0.05,0.96,0.04,-0.01,-0.22,
2.795,0.17,0.05,0.96,0.04,-0.01,-0.22,
2.796,0.17,0.05,0.95,0.04,-0.01,-0.22,
2.796,0.17,0.05,0.95,0.12,0.03,-0.22,
2.799,0.17,0.05,0.95,0.12,0.03,-0.22,
2.801,0.17,0.05,0.95,0.12,0.03,-0.22,
2.802,0.17,0.05,0.95,0.11,-0.02,-0.23,
2.805,0.16,0.05,0.95,0.11,-0.02,-0.23,
2.806,0.16,0.05,0.95,0.11,-0.02,-0.23,
2.807,0.16,0.05,0.95,0.10,-0.02,-0.32,
2.808,0.16,0.05,0.95,0.10,-0.02,-0.32,
2.811,0.15,0.05,0.96,0.10,-0.02,-0.32,
2.812,0.15,0.05,0.96,0.02,-0.04,-0.29,
2.813,0.14,0.04,0.97,0.02,-0.04,-0.29,
2.816,0.14,0.04,0.97,-0.10,-0.08,-0.23,
2.816,0.12,0.03,0.98,-0.10,-0.08,-0.23,
2.818,0.12,0.03,0.99,-0.10,-0.08,-0.23,
2.821,0.12,0.03,0.99,-0.10,-0.08,-0.23,
2.821,0.12,0.03,0.99,-0.33,-0.16,-0.05,
2.823,0.11,0.03,0.99,-0.33,-0.16,-0.05,
2.829,0.11,0.03,1.00,-0.33,-0.16,-0.05,
2.829,0.11,0.03,1.00,-0.46,-0.21,0.11,
2.83,0.11,0.03,1.02,-0.46,-0.21,0.11,
2.83,0.10,0.02,1.02,-0.46,-0.21,0.11,
2.831,0.10,0.02,1.02,-0.52,-0.27,0.17,
2.833,0.10,0.03,1.03,-0.52,-0.27,0.17,
2.836,0.09,0.03,1.04,-0.52,-0.27,0.17,
2.836,0.09,0.03,1.04,-0.61,-0.26,0.37,
2.837,0.09,0.03,1.04,-0.61,-0.26,0.37,
2.84,0.09,0.03,1.04,-0.61,-0.26,0.37,
2.841,0.09,0.03,1.04,-0.70,-0.25,0.50,
2.844,0.09,0.03,1.04,-0.70,-0.25,0.50,
2.847,0.09,0.03,1.04,-0.70,-0.25,0.50,
2.847,0.09,0.03,1.04,-0.75,-0.22,0.56,
2.848,0.10,0.03,1.03,-0.75,-0.22,0.56,
2.85,0.10,0.03,1.04,-0.75,-0.22,0.56,
2.85,0.10,0.03,1.04,-0.77,-0.20,0.58,
2.853,0.10,0.03,1.04,-0.77,-0.20,0.58,
2.856,0.10,0.03,1.04,-0.72,-0.21,0.55,
2.856,0.11,0.03,1.02,-0.72,-0.21,0.55,
2.858,0.11,0.03,1.02,-0.72,-0.21,0.55,
2.861,0.11,0.03,1.02,-0.69,-0.24,0.50,
2.861,0.11,0.04,1.00,-0.69,-0.24,0.50,
2.863,0.10,0.06,0.93,-0.69,-0.24,0.50,
2.867,0.12,0.09,0.85,-0.69,-0.24,0.50,
2.867,0.12,0.09,0.85,-0.69,-0.18,0.30,
2.868,0.15,0.12,0.80,-0.69,-0.18,0.30,
2.871,0.20,0.14,0.77,-0.69,-0.18,0.30,
2.871,0.20,0.14,0.77,-0.72,0.24,-0.81,
2.873,0.23,0.14,0.77,-0.72,0.24,-0.81,
2.876,0.25,0.13,0.79,-0.72,0.24,-0.81,
2.876,0.25,0.13,0.79,-0.09,0.72,-1.89,
2.881,0.26,0.12,0.81,-0.09,0.72,-1.89,
2.882,0.27,0.10,0.85,-0.09,0.72,-1.89,
2.882,0.27,0.10,0.85,0.54,0.80,-1.93,
2.882,0.29,0.09,0.88,0.54,0.80,-1.93,
2.887,0.29,0.09,0.88,0.83,0.57,-1.43,
2.888,0.29,0.07,0.91,0.83,0.57,-1.43,
2.888,0.29,0.06,0.93,0.83,0.57,-1.43,
2.89,0.29,0.05,0.97,0.83,0.57,-1.43,
2.89,0.29,0.05,0.97,1.02,0.30,-0.82,
2.892,0.28,0.03,1.01,1.02,0.30,-0.82,
2.895,0.27,0.02,1.04,1.02,0.30,-0.82,
2.895,0.27,0.02,1.04,1.04,0.01,-0.22,
2.9,0.27,0.02,1.07,1.04,0.01,-0.22,
2.9,0.26,0.02,1.09,1.04,0.01,-0.22,
2.901,0.26,0.02,1.09,0.93,-0.22,0.47,
2.902,0.25,0.03,1.10,0.93,-0.22,0.47,
2.905,0.25,0.03,1.10,0.81,-0.24,1.01,
2.906,0.24,0.04,1.12,0.81,-0.24,1.01,
2.907,0.23,0.05,1.12,0.81,-0.24,1.01,
2.919,0.21,0.06,1.12,0.81,-0.24,1.01,
2.92,0.21,0.06,1.12,0.63,-0.13,1.31,
2.92,0.21,0.07,1.12,0.63,-0.13,1.31,
2.92,0.21,0.07,1.12,0.41,0.08,1.41,
2.92,0.19,0.07,1.12,0.41,0.08,1.41,
2.921,0.18,0.08,1.11,0.41,0.08,1.41,
2.921,0.18,0.08,1.11,0.17,0.26,1.39,
2.921,0.17,0.08,1.11,0.17,0.26,1.39,
2.923,0.17,0.08,1.10,0.17,0.26,1.39,
2.924,0.16,0.09,1.09,0.17,0.26,1.39,
2.924,0.16,0.09,1.09,-0.03,0.34,1.32,
2.936,0.15,0.09,1.08,-0.03,0.34,1.32,
2.936,0.14,0.08,1.08,-0.03,0.34,1.32,
2.937,0.14,0.08,1.08,-0.16,0.40,1.15,
2.937,0.14,0.08,1.08,-0.16,0.40,1.15,
2.937,0.15,0.07,1.07,-0.16,0.40,1.15,
2.937,0.15,0.07,1.07,-0.32,0.36,1.03,
2.938,0.15,0.06,1.06,-0.32,0.36,1.03,
2.94,0.15,0.06,1.06,-0.33,0.25,0.92,
2.94,0.16,0.05,1.05,-0.33,0.25,0.92,
2.941,0.16,0.05,1.04,-0.33,0.25,0.92,
2.949,0.15,0.06,1.02,-0.33,0.25,0.92,
2.949,0.15,0.06,1.02,-0.25,0.07,0.77,
2.949,0.15,0.06,1.01,-0.25,0.07,0.77,
2.95,0.15,0.07,1.01,-0.25,0.07,0.77,
2.95,0.15,0.07,1.01,-0.26,0.05,0.50,
2.952,0.15,0.07,1.00,-0.26,0.05,0.50,
2.955,0.15,0.07,0.99,-0.26,0.05,0.50,
2.955,0.15,0.07,0.99,-0.32,0.14,0.31,
2.957,0.14,0.08,0.98,-0.32,0.14,0.31,
2.96,0.14,0.08,0.97,-0.32,0.14,0.31,
2.96,0.14,0.08,0.97,-0.36,0.18,0.15,
2.967,0.14,0.08,0.97,-0.36,0.18,0.15,
2.967,0.15,0.08,0.97,-0.36,0.18,0.15,
2.967,0.15,0.08,0.97,-0.38,0.22,0.01,
2.968,0.16,0.08,0.96,-0.38,0.22,0.01,
2.971,0.16,0.08,0.96,-0.38,0.22,0.01,
2.971,0.16,0.08,0.96,-0.37,0.20,-0.03,
2.971,0.17,0.08,0.97,-0.37,0.20,-0.03,
