
time,gFx,gFy,gFz,ax,ay,az,
0.002,0.06,0.18,0.96,0.30,0.02,-0.21,
0.002,0.06,0.18,0.96,0.40,0.02,-0.29,
0.002,0.06,0.18,0.96,0.40,0.02,-0.29,
0.004,0.05,0.18,0.98,0.40,0.02,-0.29,
0.004,0.05,0.18,0.98,0.39,0.03,-0.23,
0.007,0.05,0.18,0.98,0.39,0.03,-0.23,
0.009,0.04,0.18,0.98,0.39,0.03,-0.23,
0.009,0.04,0.18,0.98,0.33,0.03,-0.13,
0.011,0.04,0.18,0.99,0.33,0.03,-0.13,
0.014,0.04,0.18,1.00,0.33,0.03,-0.13,
0.015,0.04,0.18,1.00,0.23,0.08,0.01,
0.016,0.03,0.19,1.00,0.23,0.08,0.01,
0.019,0.03,0.19,1.00,0.23,0.08,0.01,
0.019,0.03,0.19,1.00,0.20,0.08,0.09,
0.021,0.03,0.18,1.00,0.20,0.08,0.09,
0.024,0.03,0.18,1.00,0.17,0.14,0.17,
0.024,0.03,0.18,1.00,0.17,0.14,0.17,
0.026,0.03,0.19,1.00,0.17,0.14,0.17,
0.028,0.02,0.19,1.00,0.17,0.14,0.17,
0.029,0.02,0.19,1.00,0.14,0.10,0.19,
0.031,0.02,0.18,1.01,0.14,0.10,0.19,
0.034,0.02,0.18,1.01,0.14,0.10,0.19,
0.034,0.02,0.18,1.01,0.12,0.13,0.17,
0.037,0.01,0.18,1.01,0.12,0.13,0.17,
0.039,0.01,0.18,1.01,0.12,0.13,0.17,
0.039,0.01,0.18,1.01,0.06,0.11,0.23,
0.041,-0.00,0.18,1.01,0.06,0.11,0.23,
0.044,-0.01,0.18,1.01,0.06,0.11,0.23,
0.044,-0.01,0.18,1.01,-0.01,0.11,0.27,
0.047,-0.01,0.18,1.01,-0.01,0.11,0.27,
0.049,-0.01,0.18,1.01,-0.15,0.09,0.25,
0.049,-0.01,0.18,1.01,-0.15,0.09,0.25,
0.051,-0.02,0.18,1.02,-0.15,0.09,0.25,
0.054,-0.02,0.18,1.02,-0.15,0.09,0.25,
0.054,-0.02,0.18,1.02,-0.22,0.11,0.25,
0.057,-0.03,0.18,1.02,-0.22,0.11,0.25,
0.059,-0.03,0.18,1.01,-0.22,0.11,0.25,
0.059,-0.03,0.18,1.01,-0.27,0.12,0.32,
0.062,-0.03,0.17,1.02,-0.27,0.12,0.32,
0.063,-0.04,0.17,1.02,-0.27,0.12,0.32,
0.064,-0.04,0.17,1.02,-0.34,0.08,0.30,
0.068,-0.04,0.17,1.01,-0.34,0.08,0.30,
0.068,-0.04,0.17,1.01,-0.34,0.08,0.30,
0.069,-0.04,0.17,1.01,-0.40,0.00,0.32,
0.071,-0.05,0.16,1.00,-0.40,0.00,0.32,
0.074,-0.05,0.16,1.00,-0.47,-0.01,0.20,
0.074,-0.05,0.15,0.99,-0.47,-0.01,0.20,
0.077,-0.05,0.14,0.99,-0.47,-0.01,0.20,
0.079,-0.05,0.14,0.98,-0.47,-0.01,0.20,
0.079,-0.05,0.14,0.98,-0.57,-0.16,0.09,
0.081,-0.05,0.13,0.98,-0.57,-0.16,0.09,
0.083,-0.04,0.13,0.98,-0.57,-0.16,0.09,
0.084,-0.04,0.13,0.98,-0.57,-0.29,-0.03,
0.086,-0.03,0.13,0.98,-0.57,-0.29,-0.03,
0.088,-0.02,0.13,0.97,-0.57,-0.29,-0.03,
0.088,-0.02,0.13,0.97,-0.50,-0.37,-0.09,
0.091,-0.02,0.13,0.98,-0.50,-0.37,-0.09,
0.093,-0.00,0.13,0.98,-0.50,-0.37,-0.09,
0.094,-0.00,0.13,0.98,-0.32,-0.41,-0.10,
0.096,0.00,0.14,0.98,-0.32,-0.41,-0.10,
0.099,0.00,0.14,0.98,-0.16,-0.36,-0.06,
0.099,0.01,0.14,0.98,-0.16,-0.36,-0.06,
0.101,0.01,0.15,0.98,-0.16,-0.36,-0.06,
0.103,0.02,0.15,0.98,-0.16,-0.36,-0.06,
0.104,0.02,0.15,0.98,-0.01,-0.27,-0.02,
0.106,0.02,0.15,0.98,-0.01,-0.27,-0.02,
0.109,0.02,0.16,0.99,-0.01,-0.27,-0.02,
0.109,0.02,0.16,0.99,0.11,-0.17,-0.02,
0.111,0.02,0.16,0.98,0.11,-0.17,-0.02,
0.114,0.02,0.16,0.99,0.11,-0.17,-0.02,
0.114,0.02,0.16,0.99,0.17,-0.10,0.00,
0.117,0.02,0.17,0.99,0.17,-0.10,0.00,
0.118,0.02,0.17,1.00,0.17,-0.10,0.00,
0.12,0.02,0.17,1.00,0.15,-0.03,0.01,
0.12,0.01,0.17,1.00,0.15,-0.03,0.01,
0.123,0.01,0.17,1.00,0.15,-0.03,0.01,
0.124,0.01,0.17,1.00,0.11,0.06,0.12,
0.126,0.00,0.18,1.00,0.11,0.06,0.12,
0.129,-0.00,0.17,1.00,0.11,0.06,0.12,
0.129,-0.00,0.17,1.00,0.06,0.05,0.13,
0.13,-0.01,0.17,1.00,0.06,0.05,0.13,
0.133,-0.02,0.17,1.00,0.06,0.05,0.13,
0.134,-0.02,0.17,1.00,-0.05,0.07,0.18,
0.137,-0.02,0.17,1.00,-0.05,0.07,0.18,
0.138,-0.01,0.16,1.00,-0.05,0.07,0.18,
0.138,-0.01,0.16,1.00,-0.15,0.05,0.18,
0.141,-0.02,0.16,1.00,-0.15,0.05,0.18,
0.144,-0.02,0.16,1.01,-0.15,0.05,0.18,
0.145,-0.02,0.16,1.01,-0.18,-0.01,0.14,
0.146,-0.02,0.16,1.00,-0.18,-0.01,0.14,
0.15,-0.02,0.16,1.00,-0.21,-0.04,0.18,
0.151,-0.03,0.16,1.00,-0.21,-0.04,0.18,
0.151,-0.03,0.16,1.00,-0.21,-0.04,0.18,
0.153,-0.04,0.15,1.00,-0.21,-0.04,0.18,
0.154,-0.04,0.15,1.00,-0.28,-0.07,0.16,
0.157,-0.04,0.15,1.01,-0.28,-0.07,0.16,
0.159,-0.03,0.15,1.00,-0.28,-0.07,0.16,
0.159,-0.03,0.15,1.00,-0.33,-0.15,0.15,
0.161,-0.04,0.15,1.00,-0.33,-0.15,0.15,
0.163,-0.04,0.15,1.00,-0.33,-0.15,0.15,
0.167,-0.04,0.15,1.00,-0.38,-0.15,0.19,
0.167,-0.05,0.15,1.00,-0.38,-0.15,0.19,
0.175,-0.05,0.15,1.00,-0.38,-0.15,0.19,
0.176,-0.05,0.15,1.00,-0.42,-0.20,0.15,
0.177,-0.05,0.15,1.00,-0.42,-0.20,0.15,
0.177,-0.05,0.15,1.00,-0.46,-0.21,0.14,
0.178,-0.04,0.14,0.99,-0.46,-0.21,0.14,
0.178,-0.04,0.14,1.00,-0.46,-0.21,0.14,
0.179,-0.04,0.14,0.99,-0.46,-0.21,0.14,
0.179,-0.04,0.14,0.99,-0.47,-0.22,0.11,
0.18,-0.04,0.14,0.98,-0.47,-0.22,0.11,
0.187,-0.04,0.14,0.98,-0.47,-0.22,0.11,
0.188,-0.04,0.14,0.98,-0.40,-0.27,0.09,
0.189,-0.03,0.14,0.97,-0.40,-0.27,0.09,
0.189,-0.03,0.14,0.97,-0.40,-0.27,0.09,
0.189,-0.03,0.14,0.97,-0.35,-0.29,-0.05,
0.19,-0.03,0.14,0.97,-0.35,-0.29,-0.05,
0.193,-0.03,0.14,0.96,-0.35,-0.29,-0.05,
0.193,-0.03,0.14,0.96,-0.30,-0.30,-0.17,
0.195,-0.02,0.14,0.95,-0.30,-0.30,-0.17,
0.199,-0.02,0.15,0.95,-0.30,-0.30,-0.17,
0.202,-0.02,0.15,0.95,-0.29,-0.29,-0.21,
0.202,-0.02,0.15,0.95,-0.29,-0.29,-0.21,
0.203,-0.02,0.15,0.94,-0.29,-0.29,-0.21,
0.203,-0.02,0.15,0.94,-0.20,-0.26,-0.37,
0.205,-0.02,0.15,0.94,-0.20,-0.26,-0.37,
0.207,-0.02,0.15,0.94,-0.17,-0.23,-0.41,
0.207,-0.02,0.15,0.94,-0.17,-0.23,-0.41,
0.212,-0.01,0.15,0.93,-0.17,-0.23,-0.41,
0.212,-0.02,0.16,0.93,-0.17,-0.23,-0.41,
0.212,-0.02,0.16,0.93,-0.14,-0.23,-0.45,
0.214,-0.01,0.16,0.93,-0.14,-0.23,-0.45,
0.217,-0.01,0.16,0.93,-0.14,-0.23,-0.45,
0.218,-0.01,0.16,0.93,-0.10,-0.17,-0.53,
0.219,-0.02,0.16,0.92,-0.10,-0.17,-0.53,
0.222,-0.02,0.16,0.92,-0.09,-0.15,-0.55,
0.222,-0.02,0.16,0.92,-0.09,-0.15,-0.55,
0.224,-0.02,0.16,0.92,-0.09,-0.15,-0.55,
0.226,-0.02,0.17,0.92,-0.09,-0.15,-0.55,
0.226,-0.02,0.17,0.92,-0.11,-0.14,-0.59,
0.229,-0.02,0.16,0.92,-0.11,-0.14,-0.59,
0.231,-0.02,0.16,0.91,-0.11,-0.14,-0.59,
0.232,-0.02,0.16,0.91,-0.13,-0.07,-0.60,
0.235,-0.02,0.16,0.91,-0.13,-0.07,-0.60,
0.237,-0.01,0.16,0.91,-0.13,-0.07,-0.60,
0.237,-0.01,0.16,0.91,-0.11,-0.09,-0.68,
0.24,-0.01,0.17,0.90,-0.11,-0.09,-0.68,
0.242,-0.01,0.17,0.90,-0.11,-0.09,-0.68,
0.242,-0.01,0.17,0.90,-0.08,-0.08,-0.73,
0.244,-0.01,0.17,0.89,-0.08,-0.08,-0.73,
0.247,-0.01,0.17,0.89,-0.08,-0.08,-0.73,
0.247,-0.01,0.17,0.89,-0.05,-0.05,-0.77,
0.252,-0.00,0.17,0.89,-0.05,-0.05,-0.77,
0.252,-0.00,0.18,0.88,-0.05,-0.05,-0.77,
0.253,-0.00,0.18,0.88,-0.01,-0.01,-0.87,
0.255,0.00,0.17,0.88,-0.01,-0.01,-0.87,
0.257,0.00,0.17,0.88,-0.01,-0.01,-0.87,
0.257,0.00,0.17,0.88,0.06,0.02,-0.90,
0.259,0.00,0.18,0.87,0.06,0.02,-0.90,
0.262,0.00,0.18,0.87,0.06,0.02,-0.90,
0.262,0.00,0.18,0.87,0.10,0.00,-0.97,
0.264,0.01,0.18,0.87,0.10,0.00,-0.97,
0.267,0.01,0.18,0.87,0.10,0.00,-0.97,
0.267,0.01,0.18,0.87,0.11,0.05,-1.07,
0.269,0.00,0.18,0.86,0.11,0.05,-1.07,
0.272,0.00,0.18,0.86,0.15,0.02,-1.07,
0.272,0.00,0.18,0.85,0.15,0.02,-1.07,
0.274,0.00,0.18,0.85,0.15,0.02,-1.07,
0.277,0.00,0.18,0.85,0.11,0.03,-1.18,
0.277,0.00,0.18,0.85,0.11,0.03,-1.18,
0.279,0.00,0.17,0.84,0.11,0.03,-1.18,
0.282,0.01,0.17,0.83,0.11,0.03,-1.18,
0.283,0.01,0.17,0.83,0.09,0.03,-1.22,
0.284,0.00,0.17,0.84,0.09,0.03,-1.22,
0.286,0.01,0.17,0.83,0.09,0.03,-1.22,
0.286,0.01,0.17,0.83,0.11,-0.02,-1.33,
0.289,0.01,0.17,0.82,0.11,-0.02,-1.33,
0.291,0.01,0.16,0.82,0.11,-0.02,-1.33,
0.292,0.01,0.16,0.82,0.14,-0.05,-1.35,
0.294,0.01,0.16,0.82,0.14,-0.05,-1.35,
0.297,0.02,0.16,0.82,0.14,-0.05,-1.35,
0.297,0.02,0.16,0.82,0.22,-0.09,-1.48,
0.299,0.02,0.16,0.81,0.22,-0.09,-1.48,
0.301,0.02,0.16,0.81,0.22,-0.09,-1.48,
0.302,0.02,0.16,0.81,0.24,-0.13,-1.46,
0.304,0.02,0.16,0.81,0.24,-0.13,-1.46,
0.307,0.02,0.15,0.81,0.24,-0.13,-1.46,
0.307,0.02,0.15,0.81,0.29,-0.14,-1.51,
0.309,0.02,0.15,0.81,0.29,-0.14,-1.51,
0.311,0.03,0.15,0.81,0.29,-0.14,-1.51,
0.312,0.03,0.15,0.81,0.29,-0.19,-1.52,
0.314,0.03,0.15,0.81,0.29,-0.19,-1.52,
0.316,0.03,0.14,0.80,0.29,-0.19,-1.52,
0.317,0.03,0.14,0.80,0.30,-0.24,-1.53,
0.319,0.03,0.14,0.80,0.30,-0.24,-1.53,
0.321,0.03,0.14,0.80,0.35,-0.28,-1.58,
0.322,0.03,0.14,0.80,0.35,-0.28,-1.58,
0.323,0.03,0.13,0.80,0.35,-0.28,-1.58,
0.326,0.04,0.13,0.79,0.35,-0.28,-1.58,
0.326,0.04,0.13,0.79,0.36,-0.36,-1.62,
0.33,0.04,0.13,0.79,0.36,-0.36,-1.62,
0.334,0.05,0.13,0.79,0.36,-0.36,-1.62,
0.335,0.05,0.13,0.79,0.39,-0.41,-1.64,
0.335,0.05,0.12,0.79,0.39,-0.41,-1.64,
0.337,0.05,0.12,0.78,0.39,-0.41,-1.64,
0.337,0.05,0.12,0.78,0.47,-0.46,-1.68,
0.338,0.05,0.12,0.77,0.47,-0.46,-1.68,
0.341,0.05,0.12,0.77,0.50,-0.50,-1.71,
0.341,0.05,0.12,0.77,0.50,-0.50,-1.71,
0.343,0.04,0.12,0.77,0.50,-0.50,-1.71,
0.345,0.04,0.12,0.77,0.51,-0.50,-1.81,
0.346,0.04,0.12,0.77,0.51,-0.50,-1.81,
0.348,0.04,0.12,0.76,0.51,-0.50,-1.81,
0.35,0.04,0.11,0.76,0.51,-0.50,-1.81,
0.351,0.04,0.11,0.76,0.44,-0.54,-1.82,
0.353,0.04,0.11,0.75,0.44,-0.54,-1.82,
0.356,0.03,0.11,0.75,0.44,-0.54,-1.82,
0.356,0.03,0.11,0.75,0.43,-0.54,-1.92,
0.358,0.04,0.11,0.75,0.43,-0.54,-1.92,
0.36,0.04,0.11,0.75,0.43,-0.54,-1.92,
0.361,0.04,0.11,0.75,0.37,-0.56,-2.02,
0.363,0.04,0.12,0.74,0.37,-0.56,-2.02,
0.374,0.04,0.11,0.74,0.37,-0.56,-2.02,
0.374,0.04,0.11,0.74,0.38,-0.56,-2.00,
0.375,0.04,0.11,0.74,0.38,-0.56,-2.00,
0.375,0.04,0.11,0.74,0.39,-0.55,-2.06,
0.376,0.04,0.11,0.73,0.39,-0.55,-2.06,
0.376,0.04,0.11,0.74,0.39,-0.55,-2.06,
0.376,0.04,0.11,0.73,0.39,-0.55,-2.06,
0.377,0.04,0.11,0.73,0.41,-0.55,-2.13,
0.378,0.05,0.12,0.73,0.41,-0.55,-2.13,
0.38,0.05,0.12,0.74,0.41,-0.55,-2.13,
0.38,0.05,0.12,0.74,0.41,-0.53,-2.12,
0.387,0.05,0.12,0.74,0.41,-0.53,-2.12,
0.388,0.06,0.12,0.73,0.41,-0.53,-2.12,
0.388,0.06,0.12,0.73,0.49,-0.49,-2.10,
0.389,0.07,0.12,0.73,0.49,-0.49,-2.10,
0.39,0.08,0.12,0.73,0.49,-0.49,-2.10,
0.39,0.08,0.12,0.73,0.55,-0.47,-2.08,
0.392,0.09,0.12,0.74,0.55,-0.47,-2.08,
0.395,0.08,0.13,0.74,0.55,-0.47,-2.08,
0.395,0.08,0.13,0.74,0.72,-0.41,-2.10,
0.399,0.09,0.12,0.74,0.72,-0.41,-2.10,
0.4,0.09,0.12,0.75,0.72,-0.41,-2.10,
0.4,0.09,0.12,0.75,0.81,-0.38,-1.99,
0.403,0.10,0.12,0.76,0.81,-0.38,-1.99,
0.405,0.10,0.12,0.76,0.81,-0.38,-1.99,
0.405,0.10,0.12,0.76,0.84,-0.39,-1.96,
0.407,0.11,0.12,0.76,0.84,-0.39,-1.96,
0.41,0.11,0.11,0.76,0.84,-0.39,-1.96,
0.41,0.11,0.11,0.76,0.94,-0.40,-1.82,
0.412,0.11,0.11,0.77,0.94,-0.40,-1.82,
0.416,0.11,0.11,0.78,0.94,-0.40,-1.82,
0.417,0.11,0.11,0.78,0.98,-0.44,-1.79,
0.417,0.11,0.10,0.78,0.98,-0.44,-1.79,
0.42,0.11,0.10,0.78,1.02,-0.48,-1.69,
0.42,0.11,0.10,0.78,1.02,-0.48,-1.69,
0.422,0.10,0.10,0.78,1.02,-0.48,-1.69,
0.424,0.10,0.09,0.80,1.02,-0.48,-1.69,
0.425,0.10,0.09,0.80,0.98,-0.51,-1.63,
0.427,0.10,0.10,0.80,0.98,-0.51,-1.63,
0.43,0.09,0.09,0.81,0.98,-0.51,-1.63,
0.43,0.09,0.09,0.81,0.87,-0.55,-1.49,
0.433,0.08,0.09,0.81,0.87,-0.55,-1.49,
0.435,0.09,0.09,0.81,0.87,-0.55,-1.49,
0.435,0.09,0.09,0.81,0.80,-0.55,-1.35,
0.437,0.08,0.09,0.82,0.80,-0.55,-1.35,
0.44,0.08,0.09,0.83,0.80,-0.55,-1.35,
0.44,0.08,0.09,0.83,0.72,-0.58,-1.31,
0.442,0.08,0.08,0.83,0.72,-0.58,-1.31,
0.445,0.08,0.08,0.83,0.65,-0.57,-1.16,
0.445,0.08,0.08,0.83,0.65,-0.57,-1.16,
0.447,0.08,0.08,0.83,0.65,-0.57,-1.16,
0.451,0.08,0.08,0.83,0.65,-0.57,-1.16,
0.451,0.08,0.08,0.83,0.64,-0.59,-1.11,
0.452,0.07,0.08,0.84,0.64,-0.59,-1.11,
0.454,0.07,0.08,0.85,0.64,-0.59,-1.11,
0.455,0.07,0.08,0.85,0.64,-0.60,-1.08,
0.457,0.07,0.08,0.86,0.64,-0.60,-1.08,
0.459,0.07,0.09,0.86,0.64,-0.60,-1.08,
0.46,0.07,0.09,0.86,0.52,-0.57,-0.97,
0.462,0.07,0.08,0.87,0.52,-0.57,-0.97,
0.464,0.07,0.09,0.87,0.52,-0.57,-0.97,
0.465,0.07,0.09,0.87,0.57,-0.50,-0.81,
0.473,0.08,0.09,0.88,0.57,-0.50,-0.81,
0.474,0.08,0.09,0.88,0.56,-0.47,-0.68,
0.475,0.08,0.09,0.89,0.56,-0.47,-0.68,
0.475,0.08,0.09,0.90,0.56,-0.47,-0.68,
0.475,0.09,0.09,0.90,0.56,-0.47,-0.68,
0.476,0.09,0.09,0.90,0.58,-0.45,-0.53,
0.476,0.09,0.10,0.90,0.58,-0.45,-0.53,
0.479,0.10,0.09,0.90,0.58,-0.45,-0.53,
0.48,0.10,0.09,0.90,0.66,-0.39,-0.41,
0.486,0.11,0.09,0.91,0.66,-0.39,-0.41,
0.487,0.11,0.10,0.91,0.66,-0.39,-0.41,
0.487,0.11,0.10,0.91,0.75,-0.35,-0.37,
0.488,0.12,0.09,0.90,0.75,-0.35,-0.37,
0.489,0.13,0.09,0.90,0.75,-0.35,-0.37,
0.489,0.13,0.09,0.90,0.82,-0.35,-0.34,
0.492,0.14,0.09,0.90,0.82,-0.35,-0.34,
0.496,0.14,0.09,0.90,0.95,-0.37,-0.38,
0.496,0.15,0.09,0.90,0.95,-0.37,-0.38,
0.496,0.15,0.09,0.88,0.95,-0.37,-0.38,
0.5,0.16,0.08,0.88,0.95,-0.37,-0.38,
0.5,0.16,0.08,0.88,1.14,-0.38,-0.41,
0.502,0.17,0.08,0.87,1.14,-0.38,-0.41,
0.504,0.17,0.08,0.87,1.14,-0.38,-0.41,
0.504,0.17,0.08,0.87,1.24,-0.43,-0.59,
0.507,0.17,0.07,0.87,1.24,-0.43,-0.59,
0.512,0.17,0.07,0.86,1.24,-0.43,-0.59,
0.512,0.17,0.07,0.86,1.34,-0.49,-0.70,
0.512,0.17,0.07,0.86,1.34,-0.49,-0.70,
0.514,0.17,0.07,0.87,1.34,-0.49,-0.70,
0.514,0.17,0.07,0.87,1.32,-0.54,-0.76,
0.517,0.17,0.06,0.86,1.32,-0.54,-0.76,
0.519,0.17,0.06,0.86,1.32,-0.59,-0.75,
0.519,0.16,0.06,0.86,1.32,-0.59,-0.75,
0.522,0.15,0.05,0.87,1.32,-0.59,-0.75,
0.524,0.15,0.06,0.87,1.32,-0.59,-0.75,
0.524,0.15,0.06,0.87,1.23,-0.64,-0.77,
0.527,0.14,0.05,0.86,1.23,-0.64,-0.77,
0.529,0.13,0.05,0.87,1.23,-0.64,-0.77,
0.529,0.13,0.05,0.87,1.12,-0.69,-0.71,
0.533,0.12,0.05,0.87,1.12,-0.69,-0.71,
0.534,0.11,0.05,0.87,1.12,-0.69,-0.71,
0.535,0.11,0.05,0.87,0.92,-0.70,-0.69,
0.537,0.10,0.04,0.87,0.92,-0.70,-0.69,
0.539,0.09,0.04,0.87,0.92,-0.70,-0.69,
0.539,0.09,0.04,0.87,0.72,-0.71,-0.65,
0.542,0.08,0.04,0.87,0.72,-0.71,-0.65,
0.544,0.08,0.04,0.87,0.50,-0.76,-0.65,
0.544,0.07,0.04,0.88,0.50,-0.76,-0.65,
0.547,0.06,0.03,0.87,0.50,-0.76,-0.65,
0.55,0.06,0.04,0.87,0.50,-0.76,-0.65,
0.55,0.06,0.04,0.87,0.32,-0.81,-0.62,
0.552,0.05,0.03,0.87,0.32,-0.81,-0.62,
0.554,0.05,0.03,0.86,0.32,-0.81,-0.62,
0.554,0.05,0.03,0.86,0.20,-0.83,-0.68,
0.557,0.06,0.03,0.86,0.20,-0.83,-0.68,
0.559,0.05,0.03,0.86,0.20,-0.83,-0.68,
0.559,0.05,0.03,0.86,0.11,-0.85,-0.71,
0.562,0.05,0.03,0.85,0.11,-0.85,-0.71,
0.564,0.05,0.03,0.85,0.11,-0.85,-0.71,
0.564,0.05,0.03,0.85,0.09,-0.85,-0.79,
0.57,0.06,0.04,0.84,0.09,-0.85,-0.79,
0.57,0.06,0.04,0.84,0.08,-0.85,-0.86,
0.57,0.06,0.04,0.84,0.08,-0.85,-0.86,
0.571,0.07,0.05,0.84,0.08,-0.85,-0.86,
0.573,0.08,0.06,0.84,0.08,-0.85,-0.86,
0.573,0.08,0.06,0.84,0.18,-0.75,-0.98,
0.577,0.09,0.07,0.84,0.18,-0.75,-0.98,
0.578,0.10,0.07,0.84,0.18,-0.75,-0.98,
0.578,0.10,0.07,0.84,0.30,-0.61,-0.98,
0.581,0.11,0.08,0.84,0.30,-0.61,-0.98,
0.586,0.11,0.09,0.85,0.30,-0.61,-0.98,
0.586,0.11,0.09,0.85,0.43,-0.43,-0.91,
0.586,0.11,0.10,0.85,0.43,-0.43,-0.91,
0.588,0.12,0.11,0.86,0.43,-0.43,-0.91,
0.589,0.12,0.11,0.86,0.57,-0.25,-0.90,
0.591,0.13,0.11,0.86,0.57,-0.25,-0.90,
0.594,0.13,0.11,0.86,0.66,-0.08,-0.81,
0.594,0.14,0.12,0.86,0.66,-0.08,-0.81,
0.596,0.14,0.13,0.87,0.66,-0.08,-0.81,
0.599,0.15,0.13,0.88,0.66,-0.08,-0.81,
0.599,0.15,0.13,0.88,0.78,0.08,-0.72,
0.601,0.16,0.14,0.88,0.78,0.08,-0.72,
0.604,0.17,0.13,0.89,0.78,0.08,-0.72,
0.604,0.17,0.13,0.89,0.90,0.20,-0.57,
0.606,0.18,0.14,0.90,0.90,0.20,-0.57,
0.608,0.18,0.14,0.91,0.90,0.20,-0.57,
0.609,0.18,0.14,0.91,1.03,0.29,-0.47,
0.611,0.19,0.13,0.92,1.03,0.29,-0.47,
0.614,0.19,0.13,0.92,1.16,0.33,-0.31,
0.614,0.18,0.13,0.93,1.16,0.33,-0.31,
0.616,0.18,0.13,0.94,1.16,0.33,-0.31,
0.619,0.18,0.13,0.94,1.18,0.32,-0.11,
0.619,0.19,0.13,0.95,1.18,0.32,-0.11,
0.621,0.19,0.13,0.96,1.18,0.32,-0.11,
0.623,0.19,0.13,0.97,1.18,0.32,-0.11,
0.624,0.19,0.13,0.97,1.13,0.34,0.11,
0.626,0.19,0.13,0.98,1.13,0.34,0.11,
0.629,0.19,0.13,0.98,1.15,0.37,0.31,
0.629,0.19,0.12,0.99,1.15,0.37,0.31,
0.631,0.19,0.12,1.00,1.15,0.37,0.31,
0.635,0.19,0.12,1.00,1.15,0.37,0.31,
0.635,0.19,0.12,1.00,1.15,0.35,0.48,
0.635,0.18,0.12,1.02,1.15,0.35,0.48,
0.638,0.18,0.11,1.02,1.15,0.35,0.48,
0.638,0.18,0.11,1.02,1.09,0.36,0.61,
0.641,0.18,0.11,1.02,1.09,0.36,0.61,
0.644,0.18,0.11,1.02,0.98,0.33,0.81,
0.644,0.17,0.11,1.03,0.98,0.33,0.81,
0.646,0.16,0.11,1.04,0.98,0.33,0.81,
0.648,0.15,0.10,1.04,0.98,0.33,0.81,
0.648,0.15,0.10,1.04,0.87,0.32,0.85,
0.65,0.14,0.11,1.04,0.87,0.32,0.85,
0.653,0.14,0.11,1.04,0.87,0.32,0.85,
0.653,0.14,0.11,1.04,0.67,0.32,0.97,
0.655,0.14,0.11,1.05,0.67,0.32,0.97,
0.659,0.14,0.10,1.05,0.67,0.32,0.97,
0.662,0.14,0.10,1.05,0.53,0.38,1.00,
0.662,0.13,0.11,1.05,0.53,0.38,1.00,
0.663,0.12,0.10,1.06,0.53,0.38,1.00,
0.663,0.12,0.10,1.06,0.47,0.40,1.06,
0.665,0.12,0.11,1.05,0.47,0.40,1.06,
0.674,0.12,0.11,1.05,0.37,0.43,1.11,
0.675,0.12,0.11,1.06,0.37,0.43,1.11,
0.676,0.12,0.11,1.07,0.37,0.43,1.11,
0.676,0.11,0.11,1.07,0.37,0.43,1.11,
0.676,0.11,0.11,1.07,0.31,0.49,1.13,
0.676,0.12,0.11,1.07,0.31,0.49,1.13,
0.677,0.12,0.11,1.08,0.31,0.49,1.13,
0.678,0.12,0.11,1.08,0.22,0.54,1.25,
0.68,0.12,0.11,1.08,0.22,0.54,1.25,
0.689,0.12,0.12,1.09,0.22,0.54,1.25,
0.69,0.12,0.12,1.09,0.22,0.60,1.32,
0.69,0.12,0.12,1.10,0.22,0.60,1.32,
0.69,0.12,0.12,1.10,0.21,0.68,1.40,
0.691,0.12,0.12,1.10,0.21,0.68,1.40,
0.691,0.13,0.12,1.11,0.21,0.68,1.40,
0.692,0.13,0.12,1.11,0.23,0.76,1.55,
0.692,0.13,0.12,1.12,0.23,0.76,1.55,
0.695,0.14,0.13,1.13,0.23,0.76,1.55,
0.698,0.14,0.13,1.13,0.23,0.76,1.55,
0.698,0.14,0.13,1.13,0.28,0.82,1.68,
0.7,0.15,0.13,1.14,0.28,0.82,1.68,
0.702,0.15,0.13,1.14,0.28,0.82,1.68,
0.702,0.15,0.13,1.14,0.38,0.89,1.85,
0.704,0.16,0.14,1.15,0.38,0.89,1.85,
0.707,0.17,0.13,1.16,0.38,0.89,1.85,
0.707,0.17,0.13,1.16,0.44,0.95,1.93,
0.71,0.17,0.13,1.16,0.44,0.95,1.93,
0.713,0.18,0.13,1.15,0.44,0.95,1.93,
0.713,0.18,0.13,1.15,0.56,1.00,2.02,
0.715,0.19,0.13,1.16,0.56,1.00,2.02,
0.717,0.19,0.13,1.16,0.56,1.00,2.02,
0.718,0.19,0.13,1.16,0.65,0.99,2.06,
0.719,0.19,0.13,1.16,0.65,0.99,2.06,
0.722,0.19,0.13,1.16,0.65,0.99,2.06,
0.722,0.19,0.13,1.16,0.74,1.06,2.08,
0.724,0.19,0.13,1.16,0.74,1.06,2.08,
0.727,0.19,0.13,1.15,0.74,1.06,2.08,
0.727,0.19,0.13,1.15,0.73,1.00,2.11,
0.73,0.19,0.12,1.15,0.73,1.00,2.11,
0.732,0.19,0.12,1.14,0.73,1.00,2.11,
0.732,0.19,0.12,1.14,0.72,1.03,2.04,
0.734,0.19,0.12,1.14,0.72,1.03,2.04,
0.737,0.19,0.12,1.14,0.71,0.95,1.94,
0.738,0.19,0.12,1.13,0.71,0.95,1.94,
0.739,0.18,0.12,1.13,0.71,0.95,1.94,
0.742,0.18,0.12,1.13,0.67,0.96,1.86,
0.743,0.18,0.11,1.12,0.67,0.96,1.86,
0.745,0.16,0.11,1.12,0.67,0.96,1.86,
0.747,0.15,0.11,1.12,0.67,0.96,1.86,
0.747,0.15,0.11,1.12,0.56,0.95,1.72,
0.75,0.14,0.11,1.11,0.56,0.95,1.72,
0.752,0.13,0.11,1.11,0.56,0.95,1.72,
0.753,0.13,0.11,1.11,0.34,0.94,1.65,
0.755,0.13,0.11,1.10,0.34,0.94,1.65,
0.757,0.11,0.10,1.10,0.34,0.94,1.65,
0.758,0.11,0.10,1.10,0.14,0.96,1.56,
0.76,0.10,0.10,1.10,0.14,0.96,1.56,
0.762,0.10,0.09,1.10,0.14,0.96,1.56,
0.762,0.10,0.09,1.10,-0.05,0.91,1.47,
0.765,0.10,0.08,1.10,-0.05,0.91,1.47,
0.772,0.09,0.07,1.10,-0.05,0.91,1.47,
0.772,0.09,0.07,1.10,-0.24,0.84,1.47,
0.773,0.08,0.06,1.10,-0.24,0.84,1.47,
0.773,0.08,0.05,1.10,-0.24,0.84,1.47,
0.773,0.08,0.05,1.10,-0.36,0.67,1.43,
0.774,0.07,0.04,1.10,-0.36,0.67,1.43,
0.776,0.07,0.04,1.10,-0.36,0.67,1.43,
0.777,0.07,0.04,1.10,-0.47,0.49,1.45,
0.779,0.06,0.03,1.11,-0.47,0.49,1.45,
0.782,0.06,0.02,1.11,-0.47,0.49,1.45,
0.782,0.06,0.02,1.11,-0.59,0.34,1.46,
0.784,0.06,0.01,1.11,-0.59,0.34,1.46,
0.787,0.06,0.01,1.12,-0.59,0.34,1.46,
0.787,0.06,0.01,1.12,-0.69,0.20,1.52,
0.789,0.06,0.01,1.13,-0.69,0.20,1.52,
0.792,0.06,0.01,1.13,-0.72,0.10,1.59,
0.792,0.06,0.01,1.13,-0.72,0.10,1.59,
0.794,0.06,0.01,1.13,-0.72,0.10,1.59,
0.797,0.07,0.00,1.14,-0.72,0.10,1.59,
0.797,0.07,0.00,1.14,-0.73,0.09,1.73,
0.8,0.06,0.01,1.14,-0.73,0.09,1.73,
0.802,0.06,0.01,1.15,-0.73,0.09,1.73,
0.802,0.06,0.01,1.15,-0.66,0.10,1.75,
0.805,0.07,0.02,1.14,-0.66,0.10,1.75,
0.807,0.06,0.02,1.15,-0.66,0.10,1.75,
0.807,0.06,0.02,1.15,-0.66,0.18,1.84,
0.809,0.07,0.02,1.16,-0.66,0.18,1.84,
0.812,0.07,0.02,1.16,-0.66,0.18,1.84,
0.812,0.07,0.02,1.16,-0.65,0.27,1.88,
0.814,0.07,0.02,1.17,-0.65,0.27,1.88,
0.817,0.07,0.02,1.17,-0.62,0.33,2.02,
0.817,0.07,0.02,1.17,-0.62,0.33,2.02,
0.819,0.08,0.02,1.16,-0.62,0.33,2.02,
0.822,0.08,0.02,1.16,-0.62,0.33,2.02,
0.822,0.08,0.02,1.16,-0.59,0.36,2.07,
0.827,0.08,0.01,1.16,-0.59,0.36,2.07,
0.827,0.08,-0.00,1.15,-0.59,0.36,2.07,
0.828,0.08,-0.00,1.15,-0.54,0.36,1.98,
0.828,0.09,-0.01,1.15,-0.54,0.36,1.98,
0.831,0.09,-0.01,1.13,-0.54,0.36,1.98,
0.831,0.09,-0.01,1.13,-0.48,0.26,1.95,
0.834,0.08,-0.01,1.13,-0.48,0.26,1.95,
0.836,0.08,-0.02,1.13,-0.48,0.26,1.95,
0.836,0.08,-0.02,1.13,-0.44,0.21,1.81,
0.838,0.09,-0.03,1.12,-0.44,0.21,1.81,
0.841,0.09,-0.03,1.12,-0.46,0.12,1.67,
0.842,0.09,-0.03,1.11,-0.46,0.12,1.67,
0.843,0.08,-0.04,1.10,-0.46,0.12,1.67,
0.846,0.08,-0.05,1.10,-0.46,0.12,1.67,
0.847,0.08,-0.05,1.10,-0.42,0.01,1.52,
0.849,0.08,-0.05,1.09,-0.42,0.01,1.52,
0.851,0.07,-0.05,1.09,-0.42,0.01,1.52,
0.851,0.07,-0.05,1.09,-0.45,-0.11,1.39,
0.854,0.07,-0.05,1.09,-0.45,-0.11,1.39,
0.855,0.06,-0.06,1.08,-0.45,-0.11,1.39,
0.855,0.06,-0.06,1.08,-0.54,-0.16,1.28,
0.858,0.05,-0.06,1.08,-0.54,-0.16,1.28,
0.86,0.04,-0.06,1.09,-0.54,-0.16,1.28,
0.861,0.04,-0.06,1.09,-0.63,-0.16,1.22,
0.864,0.03,-0.07,1.09,-0.63,-0.16,1.22,
0.866,0.03,-0.07,1.09,-0.79,-0.20,1.21,
0.866,0.02,-0.07,1.09,-0.79,-0.20,1.21,
0.872,0.02,-0.08,1.09,-0.79,-0.20,1.21,
0.872,0.02,-0.08,1.09,-0.79,-0.20,1.21,
0.872,0.02,-0.08,1.09,-0.94,-0.27,1.25,
0.875,0.00,-0.08,1.09,-0.94,-0.27,1.25,
0.876,-0.01,-0.09,1.10,-0.94,-0.27,1.25,
0.876,-0.01,-0.09,1.10,-1.00,-0.34,1.25,
0.878,-0.01,-0.08,1.10,-1.00,-0.34,1.25,
0.881,-0.02,-0.09,1.09,-1.00,-0.34,1.25,
0.881,-0.02,-0.09,1.09,-1.22,-0.37,1.32,
0.884,-0.03,-0.08,1.09,-1.22,-0.37,1.32,
0.886,-0.03,-0.09,1.09,-1.22,-0.37,1.32,
0.886,-0.03,-0.09,1.09,-1.37,-0.37,1.30,
0.888,-0.03,-0.08,1.09,-1.37,-0.37,1.30,
0.891,-0.03,-0.08,1.09,-1.48,-0.36,1.27,
0.891,-0.03,-0.08,1.09,-1.48,-0.36,1.27,
0.893,-0.03,-0.08,1.08,-1.48,-0.36,1.27,
0.896,-0.03,-0.08,1.09,-1.48,-0.36,1.27,
0.896,-0.03,-0.08,1.09,-1.50,-0.33,1.27,
0.898,-0.03,-0.08,1.09,-1.50,-0.33,1.27,
0.9,-0.02,-0.07,1.09,-1.50,-0.33,1.27,
0.9,-0.02,-0.07,1.09,-1.47,-0.31,1.20,
0.903,-0.01,-0.07,1.08,-1.47,-0.31,1.20,
0.905,-0.01,-0.06,1.08,-1.47,-0.31,1.20,
0.906,-0.01,-0.06,1.08,-1.40,-0.23,1.21,
0.908,0.00,-0.06,1.09,-1.40,-0.23,1.21,
0.91,0.01,-0.05,1.09,-1.40,-0.23,1.21,
0.911,0.01,-0.05,1.09,-1.25,-0.13,1.16,
0.913,0.02,-0.05,1.08,-1.25,-0.13,1.16,
0.915,0.03,-0.04,1.09,-1.25,-0.13,1.16,
0.916,0.03,-0.04,1.09,-1.07,0.01,1.19,
0.918,0.04,-0.04,1.09,-1.07,0.01,1.19,
0.92,0.05,-0.04,1.09,-1.07,0.01,1.19,
0.92,0.05,-0.04,1.09,-0.88,0.08,1.16,
0.922,0.05,-0.03,1.09,-0.88,0.08,1.16,
0.925,0.06,-0.04,1.09,-0.88,0.08,1.16,
0.926,0.06,-0.04,1.09,-0.76,0.13,1.22,
0.928,0.06,-0.03,1.09,-0.76,0.13,1.22,
0.93,0.06,-0.03,1.10,-0.76,0.13,1.22,
0.93,0.06,-0.03,1.10,-0.60,0.18,1.25,
0.933,0.06,-0.03,1.10,-0.60,0.18,1.25,
0.935,0.07,-0.03,1.10,-0.60,0.18,1.25,
0.935,0.07,-0.03,1.10,-0.55,0.25,1.28,
0.937,0.07,-0.03,1.10,-0.55,0.25,1.28,
0.94,0.07,-0.03,1.10,-0.51,0.26,1.32,
0.94,0.07,-0.03,1.11,-0.51,0.26,1.32,
0.943,0.07,-0.03,1.11,-0.51,0.26,1.32,
0.945,0.06,-0.03,1.12,-0.51,0.26,1.32,
0.945,0.06,-0.03,1.12,-0.47,0.28,1.35,
0.947,0.07,-0.03,1.12,-0.47,0.28,1.35,
0.95,0.06,-0.03,1.13,-0.47,0.28,1.35,
0.95,0.06,-0.03,1.13,-0.50,0.29,1.44,
0.953,0.06,-0.03,1.13,-0.50,0.29,1.44,
0.954,0.06,-0.03,1.14,-0.50,0.29,1.44,
0.955,0.06,-0.03,1.14,-0.51,0.29,1.56,
0.958,0.05,-0.04,1.14,-0.51,0.29,1.56,
0.96,0.04,-0.04,1.15,-0.51,0.29,1.56,
0.96,0.04,-0.04,1.15,-0.58,0.32,1.64,
0.962,0.04,-0.04,1.15,-0.58,0.32,1.64,
0.965,0.04,-0.05,1.15,-0.58,0.32,1.64,
0.965,0.04,-0.05,1.15,-0.67,0.26,1.75,
0.967,0.04,-0.05,1.16,-0.67,0.26,1.75,
0.974,0.03,-0.06,1.15,-0.67,0.26,1.75,
0.974,0.03,-0.06,1.15,-0.74,0.21,1.77,
0.974,0.04,-0.07,1.16,-0.74,0.21,1.77,
0.975,0.04,-0.07,1.16,-0.74,0.21,1.77,
0.975,0.04,-0.07,1.16,-0.78,0.17,1.82,
0.976,0.04,-0.08,1.15,-0.78,0.17,1.82,
0.979,0.04,-0.08,1.15,-0.78,0.17,1.82,
0.979,0.04,-0.08,1.15,-0.76,0.02,1.84,
0.981,0.04,-0.09,1.15,-0.76,0.02,1.84,
0.985,0.04,-0.09,1.14,-0.76,0.02,1.84,
0.985,0.04,-0.09,1.14,-0.73,-0.05,1.76,
0.986,0.04,-0.09,1.13,-0.73,-0.05,1.76,
0.989,0.04,-0.09,1.13,-0.71,-0.13,1.71,
0.989,0.04,-0.09,1.14,-0.71,-0.13,1.71,
0.991,0.03,-0.09,1.13,-0.71,-0.13,1.71,
0.994,0.03,-0.09,1.13,-0.71,-0.13,1.71,
0.994,0.03,-0.09,1.13,-0.73,-0.13,1.61,
0.996,0.03,-0.09,1.12,-0.73,-0.13,1.61,
0.998,0.04,-0.08,1.13,-0.73,-0.13,1.61,
0.999,0.04,-0.08,1.13,-0.74,-0.09,1.57,
1.001,0.04,-0.08,1.12,-0.74,-0.09,1.57,
1.005,0.04,-0.07,1.12,-0.74,-0.09,1.57,
1.005,0.04,-0.07,1.12,-0.73,-0.05,1.49,
1.006,0.04,-0.07,1.12,-0.73,-0.05,1.49,
1.008,0.05,-0.06,1.11,-0.73,-0.05,1.49,
1.009,0.05,-0.06,1.11,-0.67,0.03,1.45,
1.011,0.06,-0.06,1.12,-0.67,0.03,1.45,
1.013,0.06,-0.06,1.12,-0.60,0.12,1.38,
1.014,0.06,-0.06,1.11,-0.60,0.12,1.38,
1.016,0.07,-0.06,1.10,-0.60,0.12,1.38,
1.018,0.07,-0.05,1.10,-0.60,0.12,1.38,
1.019,0.07,-0.05,1.10,-0.49,0.21,1.37,
1.021,0.08,-0.04,1.10,-0.49,0.21,1.37,
1.023,0.09,-0.04,1.09,-0.49,0.21,1.37,
1.024,0.09,-0.04,1.09,-0.37,0.26,1.23,
1.026,0.09,-0.04,1.09,-0.37,0.26,1.23,
1.028,0.09,-0.04,1.10,-0.37,0.26,1.23,
1.029,0.09,-0.04,1.10,-0.25,0.39,1.18,
1.031,0.10,-0.04,1.09,-0.25,0.39,1.18,
1.035,0.10,-0.04,1.09,-0.25,0.39,1.18,
1.036,0.10,-0.04,1.09,-0.16,0.37,1.17,
1.037,0.11,-0.04,1.08,-0.16,0.37,1.17,
1.039,0.11,-0.04,1.08,-0.07,0.39,1.09,
1.039,0.11,-0.03,1.09,-0.07,0.39,1.09,
1.041,0.11,-0.03,1.09,-0.07,0.39,1.09,
1.043,0.11,-0.03,1.09,-0.07,0.39,1.09,
1.044,0.11,-0.03,1.09,-0.02,0.47,1.07,
1.046,0.11,-0.02,1.10,-0.02,0.47,1.07,
1.048,0.11,-0.02,1.10,-0.02,0.47,1.07,
1.049,0.11,-0.02,1.10,0.03,0.51,1.11,
1.052,0.11,-0.02,1.10,0.03,0.51,1.11,
1.053,0.11,-0.02,1.10,0.03,0.51,1.11,
1.054,0.11,-0.02,1.10,0.04,0.60,1.19,
1.056,0.11,-0.02,1.12,0.04,0.60,1.19,
1.059,0.12,-0.02,1.12,0.04,0.60,1.19,
1.059,0.12,-0.02,1.12,0.02,0.60,1.25,
1.061,0.12,-0.02,1.12,0.02,0.60,1.25,
1.063,0.12,-0.02,1.12,0.06,0.64,1.37,
1.064,0.12,-0.03,1.13,0.06,0.64,1.37,
1.066,0.12,-0.03,1.15,0.06,0.64,1.37,
1.076,0.12,-0.04,1.14,0.06,0.64,1.37,
1.077,0.12,-0.04,1.14,0.10,0.58,1.49,
1.077,0.12,-0.04,1.16,0.10,0.58,1.49,
1.078,0.13,-0.04,1.17,0.10,0.58,1.49,
1.078,0.13,-0.04,1.17,0.11,0.50,1.64,
1.078,0.13,-0.04,1.18,0.11,0.50,1.64,
1.079,0.13,-0.04,1.18,0.11,0.50,1.64,
1.079,0.13,-0.04,1.18,0.15,0.45,1.81,
1.081,0.13,-0.05,1.20,0.15,0.45,1.81,
1.083,0.13,-0.05,1.20,0.15,0.45,1.81,
1.083,0.13,-0.05,1.20,0.15,0.42,1.96,
1.091,0.12,-0.05,1.21,0.15,0.42,1.96,
1.093,0.13,-0.06,1.22,0.15,0.42,1.96,
1.093,0.13,-0.06,1.22,0.14,0.38,2.18,
1.093,0.13,-0.06,1.22,0.14,0.38,2.18,
1.093,0.13,-0.06,1.23,0.14,0.38,2.18,
1.094,0.13,-0.06,1.23,0.14,0.34,2.29,
1.095,0.13,-0.06,1.23,0.14,0.34,2.29,
1.098,0.14,-0.06,1.23,0.14,0.34,2.29,
1.098,0.14,-0.06,1.23,0.16,0.34,2.40,
1.102,0.14,-0.06,1.23,0.16,0.34,2.40,
1.103,0.15,-0.06,1.23,0.16,0.34,2.40,
1.103,0.15,-0.06,1.23,0.24,0.33,2.47,
1.105,0.15,-0.06,1.23,0.24,0.33,2.47,
1.107,0.16,-0.06,1.23,0.24,0.33,2.47,
1.108,0.16,-0.06,1.23,0.32,0.32,2.45,
1.11,0.16,-0.06,1.23,0.32,0.32,2.45,
1.113,0.16,-0.06,1.23,0.40,0.30,2.44,
1.113,0.17,-0.06,1.24,0.40,0.30,2.44,
1.115,0.18,-0.06,1.24,0.40,0.30,2.44,
1.118,0.18,-0.06,1.23,0.40,0.30,2.44,
1.119,0.18,-0.06,1.23,0.54,0.31,2.48,
1.12,0.18,-0.06,1.23,0.54,0.31,2.48,
1.123,0.18,-0.06,1.24,0.54,0.31,2.48,
1.123,0.18,-0.06,1.24,0.65,0.32,2.47,
1.125,0.18,-0.06,1.24,0.65,0.32,2.47,
1.127,0.18,-0.06,1.24,0.65,0.32,2.47,
1.128,0.18,-0.06,1.24,0.71,0.34,2.44,
1.13,0.18,-0.06,1.25,0.71,0.34,2.44,
1.132,0.19,-0.05,1.24,0.71,0.34,2.44,
1.133,0.19,-0.05,1.24,0.72,0.35,2.50,
1.135,0.18,-0.05,1.25,0.72,0.35,2.50,
1.137,0.18,-0.05,1.25,0.72,0.39,2.53,
1.138,0.18,-0.06,1.25,0.72,0.39,2.53,
1.14,0.19,-0.05,1.25,0.72,0.39,2.53,
1.142,0.17,-0.05,1.25,0.72,0.39,2.53,
1.143,0.17,-0.05,1.25,0.72,0.40,2.55,
1.145,0.18,-0.06,1.24,0.72,0.40,2.55,
1.147,0.18,-0.06,1.25,0.72,0.40,2.55,
1.148,0.18,-0.06,1.25,0.70,0.40,2.58,
1.15,0.17,-0.07,1.25,0.70,0.40,2.58,
1.153,0.17,-0.07,1.24,0.70,0.40,2.58,
1.159,0.17,-0.07,1.24,0.68,0.35,2.55,
1.16,0.17,-0.07,1.24,0.68,0.35,2.55,
1.161,0.16,-0.07,1.24,0.68,0.35,2.55,
1.161,0.16,-0.07,1.24,0.62,0.26,2.52,
1.162,0.16,-0.08,1.23,0.62,0.26,2.52,
1.163,0.16,-0.08,1.23,0.57,0.23,2.43,
1.163,0.16,-0.08,1.23,0.57,0.23,2.43,
1.165,0.16,-0.08,1.22,0.57,0.23,2.43,
1.167,0.15,-0.08,1.21,0.57,0.23,2.43,
1.168,0.15,-0.08,1.21,0.52,0.13,2.32,
1.176,0.15,-0.09,1.21,0.52,0.13,2.32,
1.177,0.15,-0.09,1.21,0.52,0.13,2.32,
1.178,0.15,-0.09,1.21,0.49,0.07,2.23,
1.178,0.15,-0.09,1.20,0.49,0.07,2.23,
1.178,0.15,-0.09,1.19,0.49,0.07,2.23,
1.178,0.15,-0.09,1.19,0.45,0.01,2.15,
1.18,0.15,-0.09,1.19,0.45,0.01,2.15,
1.183,0.14,-0.09,1.18,0.45,0.01,2.15,
1.183,0.14,-0.09,1.18,0.42,-0.03,2.01,
1.186,0.14,-0.09,1.17,0.42,-0.03,2.01,
1.188,0.14,-0.09,1.16,0.42,-0.03,2.01,
1.188,0.14,-0.09,1.16,0.41,-0.00,1.85,
1.189,0.14,-0.08,1.16,0.41,-0.00,1.85,
1.192,0.13,-0.08,1.15,0.41,-0.00,1.85,
1.192,0.13,-0.08,1.15,0.35,-0.00,1.67,
1.195,0.14,-0.08,1.15,0.35,-0.00,1.67,
1.197,0.13,-0.09,1.15,0.35,-0.00,1.67,
1.198,0.13,-0.09,1.15,0.31,0.01,1.58,
1.2,0.12,-0.08,1.14,0.31,0.01,1.58,
1.202,0.12,-0.08,1.14,0.31,0.01,1.58,
1.202,0.12,-0.08,1.14,0.32,-0.02,1.51,
1.205,0.12,-0.08,1.15,0.32,-0.02,1.51,
1.207,0.12,-0.08,1.15,0.32,-0.02,1.51,
1.207,0.12,-0.08,1.15,0.22,0.00,1.46,
1.21,0.12,-0.08,1.15,0.22,0.00,1.46,
1.213,0.12,-0.08,1.16,0.22,0.00,1.46,
1.213,0.12,-0.08,1.16,0.19,0.01,1.46,
1.215,0.11,-0.07,1.16,0.19,0.01,1.46,
1.217,0.11,-0.07,1.17,0.19,0.01,1.46,
1.218,0.11,-0.07,1.17,0.16,0.03,1.56,
1.219,0.11,-0.07,1.16,0.16,0.03,1.56,
1.222,0.11,-0.07,1.17,0.16,0.03,1.56,
1.223,0.11,-0.07,1.17,0.11,0.06,1.65,
1.224,0.11,-0.07,1.17,0.11,0.06,1.65,
1.227,0.11,-0.07,1.17,0.11,0.06,1.65,
1.228,0.11,-0.07,1.17,0.10,0.11,1.66,
1.23,0.11,-0.07,1.17,0.10,0.11,1.66,
1.232,0.11,-0.07,1.18,0.10,0.11,1.66,
1.232,0.11,-0.07,1.18,0.07,0.10,1.70,
1.235,0.12,-0.07,1.17,0.07,0.10,1.70,
1.237,0.12,-0.07,1.17,0.12,0.09,1.72,
1.238,0.12,-0.07,1.17,0.12,0.09,1.72,
1.239,0.13,-0.08,1.17,0.12,0.09,1.72,
1.242,0.13,-0.08,1.17,0.18,0.05,1.72,
1.243,0.13,-0.08,1.16,0.18,0.05,1.72,
1.245,0.13,-0.08,1.16,0.18,0.05,1.72,
1.247,0.14,-0.07,1.15,0.18,0.05,1.72,
1.247,0.14,-0.07,1.15,0.24,-0.04,1.62,
1.25,0.14,-0.08,1.15,0.24,-0.04,1.62,
1.253,0.14,-0.08,1.14,0.24,-0.04,1.62,
1.254,0.14,-0.08,1.14,0.32,-0.03,1.52,
1.254,0.14,-0.08,1.14,0.32,-0.03,1.52,
1.257,0.15,-0.08,1.14,0.32,-0.03,1.52,
1.257,0.15,-0.08,1.14,0.38,-0.09,1.42,
1.26,0.14,-0.07,1.14,0.38,-0.09,1.42,
1.262,0.14,-0.08,1.14,0.38,-0.09,1.42,
1.262,0.14,-0.08,1.14,0.42,-0.05,1.36,
1.265,0.14,-0.08,1.14,0.42,-0.05,1.36,
1.267,0.14,-0.07,1.15,0.42,-0.05,1.36,
1.267,0.14,-0.07,1.15,0.39,-0.06,1.37,
1.273,0.14,-0.07,1.15,0.39,-0.06,1.37,
1.274,0.13,-0.07,1.15,0.39,-0.06,1.37,
1.274,0.13,-0.07,1.15,0.37,-0.07,1.37,
1.275,0.12,-0.07,1.15,0.37,-0.07,1.37,
1.277,0.12,-0.07,1.16,0.37,-0.07,1.37,
1.277,0.12,-0.07,1.16,0.31,-0.05,1.41,
1.279,0.11,-0.07,1.15,0.31,-0.05,1.41,
1.281,0.10,-0.06,1.15,0.31,-0.05,1.41,
1.282,0.10,-0.06,1.15,0.19,-0.03,1.45,
1.284,0.10,-0.07,1.15,0.19,-0.03,1.45,
1.287,0.10,-0.07,1.15,0.06,-0.00,1.40,
1.287,0.10,-0.07,1.14,0.06,-0.00,1.40,
1.289,0.09,-0.07,1.13,0.06,-0.00,1.40,
1.291,0.09,-0.06,1.12,0.06,-0.00,1.40,
1.292,0.09,-0.06,1.12,-0.01,-0.02,1.30,
1.294,0.09,-0.07,1.12,-0.01,-0.02,1.30,
1.296,0.09,-0.07,1.11,-0.01,-0.02,1.30,
1.297,0.09,-0.07,1.11,-0.05,-0.00,1.15,
1.298,0.09,-0.07,1.11,-0.05,-0.00,1.15,
1.303,0.09,-0.08,1.10,-0.05,-0.00,1.15,
1.304,0.09,-0.08,1.10,-0.05,-0.06,1.00,
1.304,0.09,-0.07,1.09,-0.05,-0.06,1.00,
1.306,0.09,-0.08,1.09,-0.05,-0.06,1.00,
1.307,0.09,-0.08,1.09,-0.06,-0.15,0.91,
1.308,0.08,-0.08,1.09,-0.06,-0.15,0.91,
1.311,0.08,-0.08,1.09,-0.06,-0.14,0.75,
1.312,0.08,-0.07,1.07,-0.06,-0.14,0.75,
1.313,0.08,-0.07,1.07,-0.06,-0.14,0.75,
1.316,0.07,-0.07,1.06,-0.06,-0.14,0.75,
1.316,0.07,-0.07,1.06,-0.12,-0.15,0.63,
1.319,0.07,-0.07,1.07,-0.12,-0.15,0.63,
1.322,0.07,-0.07,1.08,-0.12,-0.15,0.63,
1.323,0.07,-0.07,1.08,-0.14,-0.11,0.49,
1.323,0.07,-0.07,1.07,-0.14,-0.11,0.49,
1.326,0.07,-0.06,1.07,-0.14,-0.11,0.49,
1.326,0.07,-0.06,1.07,-0.22,-0.10,0.56,
1.328,0.07,-0.06,1.07,-0.22,-0.10,0.56,
1.331,0.07,-0.06,1.07,-0.22,-0.10,0.56,
1.331,0.07,-0.06,1.07,-0.21,-0.08,0.53,
1.333,0.07,-0.06,1.07,-0.21,-0.08,0.53,
1.338,0.07,-0.05,1.08,-0.21,-0.08,0.53,
1.338,0.07,-0.05,1.08,-0.18,-0.03,0.54,
1.339,0.06,-0.05,1.08,-0.18,-0.03,0.54,
1.341,0.07,-0.05,1.08,-0.18,-0.03,0.54,
1.341,0.07,-0.05,1.08,-0.23,0.01,0.56,
1.343,0.07,-0.05,1.08,-0.23,0.01,0.56,
1.345,0.07,-0.05,1.08,-0.23,0.01,0.56,
1.345,0.07,-0.05,1.08,-0.25,0.01,0.57,
1.348,0.08,-0.04,1.07,-0.25,0.01,0.57,
1.35,0.07,-0.04,1.08,-0.25,0.01,0.57,
1.351,0.07,-0.04,1.08,-0.19,0.02,0.56,
1.353,0.08,-0.04,1.07,-0.19,0.02,0.56,
1.355,0.07,-0.04,1.07,-0.19,0.02,0.56,
1.356,0.07,-0.04,1.07,-0.14,0.06,0.55,
1.358,0.06,-0.04,1.07,-0.14,0.06,0.55,
1.36,0.06,-0.04,1.07,-0.17,0.07,0.50,
1.361,0.06,-0.04,1.07,-0.17,0.07,0.50,
1.363,0.06,-0.04,1.07,-0.17,0.07,0.50,
1.365,0.06,-0.04,1.06,-0.17,0.07,0.50,
1.366,0.06,-0.04,1.06,-0.26,0.10,0.48,
1.379,0.06,-0.04,1.06,-0.26,0.10,0.48,
1.38,0.06,-0.05,1.06,-0.26,0.10,0.48,
1.381,0.06,-0.05,1.06,-0.27,0.05,0.44,
1.381,0.05,-0.05,1.05,-0.27,0.05,0.44,
1.382,0.05,-0.05,1.05,-0.27,0.05,0.44,
1.382,0.05,-0.05,1.05,-0.30,0.00,0.37,
1.383,0.05,-0.05,1.04,-0.30,0.00,0.37,
1.383,0.05,-0.05,1.04,-0.30,0.00,0.37,
1.383,0.05,-0.05,1.04,-0.35,-0.05,0.28,
1.384,0.05,-0.05,1.03,-0.35,-0.05,0.28,
1.4,0.05,-0.05,1.03,-0.35,-0.05,0.20,
1.403,0.05,-0.05,1.03,-0.35,-0.05,0.20,
1.404,0.06,-0.05,1.02,-0.35,-0.05,0.20,
1.404,0.06,-0.06,1.02,-0.35,-0.05,0.20,
1.405,0.06,-0.06,1.02,-0.34,-0.08,0.09,
1.406,0.06,-0.06,1.01,-0.34,-0.08,0.09,
1.406,0.06,-0.06,1.01,-0.34,-0.08,0.09,
1.406,0.06,-0.06,1.01,-0.31,-0.14,-0.01,
1.407,0.06,-0.07,1.00,-0.31,-0.14,-0.01,
1.407,0.06,-0.07,1.01,-0.31,-0.14,-0.01,
1.407,0.06,-0.07,1.01,-0.29,-0.22,-0.09,
1.408,0.06,-0.07,1.00,-0.29,-0.22,-0.09,
1.408,0.05,-0.07,1.00,-0.29,-0.22,-0.09,
1.408,0.05,-0.07,1.00,-0.30,-0.29,-0.16,
1.409,0.05,-0.08,0.99,-0.30,-0.29,-0.16,
1.41,0.05,-0.08,0.99,-0.30,-0.29,-0.16,
1.41,0.05,-0.08,0.99,-0.31,-0.35,-0.22,
1.412,0.04,-0.07,0.99,-0.31,-0.35,-0.22,
1.415,0.04,-0.07,0.98,-0.31,-0.35,-0.22,
1.415,0.04,-0.07,0.98,-0.37,-0.38,-0.26,
1.417,0.04,-0.07,0.99,-0.37,-0.38,-0.26,
1.42,0.04,-0.07,0.99,-0.37,-0.38,-0.26,
1.421,0.04,-0.07,0.99,-0.42,-0.34,-0.34,
1.422,0.04,-0.07,0.98,-0.42,-0.34,-0.34,
1.424,0.04,-0.07,0.98,-0.42,-0.34,-0.34,
1.425,0.04,-0.07,0.98,-0.42,-0.34,-0.33,
1.427,0.05,-0.07,0.97,-0.42,-0.34,-0.33,
1.429,0.04,-0.07,0.97,-0.42,-0.34,-0.33,
1.43,0.04,-0.07,0.97,-0.41,-0.37,-0.41,
1.432,0.04,-0.07,0.97,-0.41,-0.37,-0.41,
1.434,0.04,-0.07,0.97,-0.41,-0.37,-0.41,
1.435,0.04,-0.07,0.97,-0.37,-0.35,-0.47,
1.437,0.04,-0.07,0.96,-0.37,-0.35,-0.47,
1.44,0.04,-0.07,0.95,-0.37,-0.35,-0.47,
1.44,0.04,-0.07,0.95,-0.40,-0.35,-0.52,
1.442,0.04,-0.07,0.94,-0.40,-0.35,-0.52,
1.445,0.04,-0.07,0.94,-0.40,-0.35,-0.52,
1.445,0.04,-0.07,0.94,-0.43,-0.33,-0.66,
1.447,0.04,-0.07,0.95,-0.43,-0.33,-0.66,
1.45,0.04,-0.07,0.94,-0.43,-0.33,-0.66,
1.45,0.04,-0.07,0.94,-0.43,-0.35,-0.77,
1.452,0.04,-0.07,0.94,-0.43,-0.35,-0.77,
1.454,0.04,-0.07,0.94,-0.43,-0.35,-0.77,
1.455,0.04,-0.07,0.94,-0.38,-0.33,-0.75,
1.458,0.04,-0.07,0.94,-0.38,-0.33,-0.75,
1.46,0.04,-0.07,0.94,-0.35,-0.35,-0.79,
1.461,0.04,-0.07,0.93,-0.35,-0.35,-0.79,
1.462,0.04,-0.07,0.93,-0.35,-0.35,-0.79,
1.465,0.03,-0.07,0.93,-0.35,-0.35,-0.79,
1.465,0.03,-0.07,0.93,-0.36,-0.32,-0.81,
1.467,0.03,-0.07,0.93,-0.36,-0.32,-0.81,
1.476,0.03,-0.07,0.93,-0.36,-0.32,-0.81,
1.476,0.03,-0.07,0.93,-0.40,-0.35,-0.85,
1.476,0.03,-0.07,0.93,-0.40,-0.35,-0.85,
1.477,0.03,-0.08,0.93,-0.40,-0.35,-0.85,
1.477,0.03,-0.08,0.93,-0.41,-0.34,-0.85,
1.477,0.02,-0.08,0.94,-0.41,-0.34,-0.85,
1.479,0.02,-0.08,0.94,-0.41,-0.34,-0.85,
1.48,0.02,-0.08,0.94,-0.42,-0.41,-0.85,
1.482,0.03,-0.08,0.94,-0.42,-0.41,-0.85,
1.485,0.03,-0.08,0.94,-0.44,-0.42,-0.78,
1.485,0.02,-0.09,0.95,-0.44,-0.42,-0.78,
1.487,0.02,-0.08,0.94,-0.44,-0.42,-0.78,
1.489,0.02,-0.08,0.95,-0.44,-0.42,-0.78,
1.489,0.02,-0.08,0.95,-0.41,-0.47,-0.73,
1.492,0.02,-0.08,0.95,-0.41,-0.47,-0.73,
1.502,0.02,-0.08,0.96,-0.41,-0.47,-0.73,
1.502,0.02,-0.08,0.96,-0.42,-0.45,-0.71,
1.502,0.01,-0.08,0.97,-0.42,-0.45,-0.71,
1.503,0.01,-0.08,0.96,-0.42,-0.45,-0.71,
1.503,0.01,-0.08,0.96,-0.45,-0.43,-0.61,
1.503,0.01,-0.08,0.96,-0.45,-0.43,-0.61,
1.504,0.01,-0.09,0.96,-0.45,-0.43,-0.61,
1.505,0.01,-0.09,0.96,-0.52,-0.44,-0.56,
1.506,0.00,-0.08,0.96,-0.52,-0.44,-0.56,
1.509,0.00,-0.08,0.95,-0.52,-0.44,-0.56,
1.51,0.00,-0.08,0.95,-0.52,-0.45,-0.55,
1.512,0.00,-0.08,0.95,-0.52,-0.45,-0.55,
1.514,-0.00,-0.08,0.95,-0.52,-0.45,-0.55,
1.514,-0.00,-0.08,0.95,-0.53,-0.43,-0.62,
1.516,0.00,-0.08,0.95,-0.53,-0.43,-0.62,
1.521,0.00,-0.08,0.95,-0.53,-0.43,-0.62,
1.522,0.00,-0.08,0.95,-0.53,-0.44,-0.66,
1.522,-0.00,-0.09,0.94,-0.53,-0.44,-0.66,
1.524,-0.00,-0.09,0.93,-0.53,-0.44,-0.66,
1.524,-0.00,-0.09,0.93,-0.51,-0.44,-0.69,
1.526,-0.00,-0.08,0.93,-0.51,-0.44,-0.69,
1.529,-0.01,-0.08,0.92,-0.51,-0.44,-0.69,
1.529,-0.01,-0.08,0.92,-0.55,-0.49,-0.82,
1.531,-0.01,-0.09,0.92,-0.55,-0.49,-0.82,
1.534,-0.01,-0.09,0.92,-0.56,-0.47,-0.91,
1.534,-0.01,-0.08,0.91,-0.56,-0.47,-0.91,
1.537,-0.02,-0.08,0.90,-0.56,-0.47,-0.91,
1.539,-0.02,-0.08,0.90,-0.56,-0.47,-0.91,
1.539,-0.02,-0.08,0.90,-0.57,-0.50,-1.05,
1.541,-0.03,-0.07,0.89,-0.57,-0.50,-1.05,
1.544,-0.03,-0.07,0.89,-0.63,-0.49,-1.17,
1.544,-0.02,-0.07,0.88,-0.63,-0.49,-1.17,
1.547,-0.03,-0.07,0.87,-0.63,-0.49,-1.17,
1.549,-0.04,-0.07,0.86,-0.63,-0.49,-1.17,
1.549,-0.04,-0.07,0.86,-0.68,-0.43,-1.36,
1.551,-0.04,-0.07,0.86,-0.68,-0.43,-1.36,
1.554,-0.04,-0.07,0.85,-0.68,-0.43,-1.36,
1.554,-0.04,-0.07,0.85,-0.74,-0.43,-1.52,
1.556,-0.05,-0.07,0.84,-0.74,-0.43,-1.52,
1.559,-0.05,-0.07,0.84,-0.80,-0.43,-1.61,
1.56,-0.05,-0.06,0.84,-0.80,-0.43,-1.61,
1.562,-0.05,-0.06,0.83,-0.80,-0.43,-1.61,
1.564,-0.05,-0.06,0.83,-0.80,-0.43,-1.61,
1.564,-0.05,-0.06,0.83,-0.84,-0.42,-1.77,
1.566,-0.05,-0.05,0.83,-0.84,-0.42,-1.77,
1.569,-0.05,-0.04,0.82,-0.84,-0.42,-1.77,
1.569,-0.05,-0.04,0.82,-0.85,-0.39,-1.84,
1.574,-0.05,-0.04,0.82,-0.85,-0.39,-1.84,
1.575,-0.06,-0.04,0.83,-0.85,-0.39,-1.84,
1.575,-0.06,-0.04,0.83,-0.82,-0.30,-1.89,
1.576,-0.06,-0.03,0.83,-0.82,-0.30,-1.89,
1.578,-0.06,-0.03,0.83,-0.82,-0.30,-1.89,
1.578,-0.06,-0.03,0.83,-0.87,-0.26,-1.89,
1.581,-0.06,-0.03,0.83,-0.87,-0.26,-1.89,
1.584,-0.05,-0.02,0.83,-0.87,-0.26,-1.89,
1.584,-0.05,-0.02,0.83,-0.86,-0.20,-1.84,
1.586,-0.05,-0.02,0.83,-0.86,-0.20,-1.84,
1.588,-0.05,-0.02,0.84,-0.86,-0.20,-1.84,
1.589,-0.05,-0.02,0.84,-0.84,-0.15,-1.83,
1.59,-0.05,-0.02,0.84,-0.84,-0.15,-1.83,
1.593,-0.05,-0.02,0.84,-0.84,-0.15,-1.83,
1.593,-0.05,-0.02,0.84,-0.81,-0.12,-1.77,
1.596,-0.04,-0.02,0.85,-0.81,-0.12,-1.77,
1.598,-0.04,-0.02,0.85,-0.77,-0.12,-1.74,
1.599,-0.04,-0.02,0.85,-0.77,-0.12,-1.74,
1.601,-0.03,-0.02,0.86,-0.77,-0.12,-1.74,
1.603,-0.02,-0.02,0.86,-0.77,-0.12,-1.74,
1.603,-0.02,-0.02,0.86,-0.68,-0.17,-1.63,
1.605,-0.02,-0.02,0.86,-0.68,-0.17,-1.63,
1.608,-0.01,-0.03,0.87,-0.68,-0.17,-1.63,
1.608,-0.01,-0.03,0.87,-0.52,-0.19,-1.50,
1.611,-0.01,-0.03,0.87,-0.52,-0.19,-1.50,
1.613,-0.00,-0.02,0.87,-0.52,-0.19,-1.50,
1.613,-0.00,-0.02,0.87,-0.45,-0.23,-1.48,
1.616,0.00,-0.03,0.87,-0.45,-0.23,-1.48,
1.618,0.00,-0.02,0.87,-0.45,-0.23,-1.48,
1.619,0.00,-0.02,0.87,-0.35,-0.25,-1.43,
1.621,0.00,-0.02,0.87,-0.35,-0.25,-1.43,
1.623,0.00,-0.01,0.88,-0.35,-0.25,-1.43,
1.624,0.00,-0.01,0.88,-0.28,-0.24,-1.40,
1.626,0.01,-0.01,0.87,-0.28,-0.24,-1.40,
1.628,0.01,-0.01,0.87,-0.28,-0.24,-1.40,
1.629,0.01,-0.01,0.87,-0.25,-0.14,-1.36,
1.631,0.01,-0.00,0.87,-0.25,-0.14,-1.36,
1.634,0.01,-0.00,0.87,-0.21,-0.09,-1.43,
1.635,0.01,0.01,0.86,-0.21,-0.09,-1.43,
1.635,0.01,0.01,0.86,-0.21,-0.09,-1.43,
1.639,0.00,0.01,0.85,-0.21,-0.09,-1.43,
1.64,0.00,0.01,0.85,-0.21,0.03,-1.46,
1.64,0.01,0.02,0.85,-0.21,0.03,-1.46,
1.643,0.01,0.02,0.85,-0.21,0.03,-1.46,
1.643,0.01,0.02,0.85,-0.21,0.10,-1.55,
1.646,0.01,0.03,0.85,-0.21,0.10,-1.55,
1.649,-0.00,0.03,0.84,-0.21,0.10,-1.55,
1.652,-0.00,0.03,0.84,-0.17,0.15,-1.60,
1.653,0.00,0.03,0.85,-0.17,0.15,-1.60,
1.656,-0.00,0.03,0.84,-0.17,0.15,-1.60,
1.656,-0.00,0.03,0.84,-0.21,0.23,-1.63,
1.657,-0.01,0.03,0.84,-0.21,0.23,-1.63,
1.658,-0.01,0.03,0.84,-0.23,0.25,-1.63,
1.658,-0.01,0.03,0.84,-0.23,0.25,-1.63,
1.661,-0.02,0.03,0.85,-0.23,0.25,-1.63,
1.663,-0.02,0.03,0.85,-0.23,0.25,-1.63,
1.664,-0.02,0.03,0.85,-0.33,0.29,-1.67,
1.666,-0.03,0.03,0.85,-0.33,0.29,-1.67,
1.668,-0.03,0.03,0.85,-0.33,0.29,-1.67,
1.669,-0.03,0.03,0.85,-0.39,0.25,-1.60,
1.676,-0.03,0.02,0.86,-0.39,0.25,-1.60,
1.676,-0.03,0.02,0.86,-0.39,0.25,-1.60,
1.676,-0.03,0.02,0.86,-0.46,0.22,-1.56,
1.677,-0.04,0.01,0.87,-0.46,0.22,-1.56,
1.678,-0.05,0.01,0.87,-0.46,0.22,-1.56,
1.678,-0.05,0.01,0.87,-0.50,0.17,-1.49,
1.68,-0.05,0.01,0.88,-0.50,0.17,-1.49,
1.682,-0.05,0.00,0.88,-0.50,0.17,-1.49,
1.683,-0.05,0.00,0.88,-0.62,0.06,-1.37,
1.685,-0.05,0.00,0.88,-0.62,0.06,-1.37,
1.688,-0.04,-0.01,0.89,-0.62,0.06,-1.37,
1.688,-0.04,-0.01,0.89,-0.66,0.02,-1.25,
1.689,-0.05,-0.02,0.89,-0.66,0.02,-1.25,
1.692,-0.05,-0.02,0.89,-0.66,0.02,-1.25,
1.693,-0.05,-0.02,0.89,-0.62,-0.07,-1.24,
1.694,-0.05,-0.02,0.90,-0.62,-0.07,-1.24,
1.697,-0.04,-0.03,0.91,-0.62,-0.07,-1.24,
1.697,-0.04,-0.03,0.91,-0.66,-0.18,-1.14,
1.699,-0.04,-0.03,0.91,-0.66,-0.18,-1.14,
1.701,-0.04,-0.03,0.91,-0.66,-0.18,-1.14,
1.702,-0.04,-0.03,0.91,-0.61,-0.25,-1.04,
1.704,-0.04,-0.03,0.92,-0.61,-0.25,-1.04,
1.707,-0.04,-0.03,0.92,-0.55,-0.32,-0.99,
1.707,-0.05,-0.04,0.92,-0.55,-0.32,-0.99,
1.709,-0.05,-0.04,0.93,-0.55,-0.32,-0.99,
1.712,-0.04,-0.03,0.94,-0.55,-0.32,-0.99,
1.712,-0.04,-0.03,0.94,-0.56,-0.31,-0.86,
1.714,-0.05,-0.04,0.95,-0.56,-0.31,-0.86,
1.717,-0.04,-0.04,0.95,-0.56,-0.31,-0.86,
1.717,-0.04,-0.04,0.95,-0.57,-0.32,-0.72,
1.721,-0.04,-0.04,0.96,-0.57,-0.32,-0.72,
1.722,-0.04,-0.03,0.96,-0.57,-0.32,-0.72,
1.722,-0.04,-0.03,0.96,-0.55,-0.33,-0.60,
1.724,-0.04,-0.03,0.97,-0.55,-0.33,-0.60,
1.726,-0.04,-0.03,0.98,-0.55,-0.33,-0.60,
1.726,-0.04,-0.03,0.98,-0.53,-0.29,-0.45,
1.729,-0.03,-0.02,0.99,-0.53,-0.29,-0.45,
1.731,-0.03,-0.02,1.00,-0.53,-0.29,-0.45,
1.731,-0.03,-0.02,1.00,-0.51,-0.21,-0.31,
1.734,-0.03,-0.02,1.00,-0.51,-0.21,-0.31,
1.738,-0.02,-0.02,1.01,-0.51,-0.21,-0.31,
1.739,-0.02,-0.02,1.01,-0.46,-0.15,-0.14,
1.739,-0.02,-0.02,1.01,-0.46,-0.15,-0.14,
1.741,-0.01,-0.02,1.01,-0.46,-0.15,-0.14,
1.741,-0.01,-0.02,1.01,-0.40,-0.16,-0.01,
1.744,-0.01,-0.02,1.01,-0.40,-0.16,-0.01,
1.746,-0.00,-0.02,1.01,-0.40,-0.16,-0.01,
1.747,-0.00,-0.02,1.01,-0.28,-0.14,0.03,
1.749,0.00,-0.02,1.01,-0.28,-0.14,0.03,
1.751,0.01,-0.03,1.01,-0.28,-0.14,0.03,
1.751,0.01,-0.03,1.01,-0.16,-0.15,0.05,
1.755,0.01,-0.03,1.00,-0.16,-0.15,0.05,
1.756,0.02,-0.03,0.99,-0.16,-0.15,0.05,
1.757,0.02,-0.03,0.99,-0.08,-0.19,-0.02,
1.758,0.02,-0.03,0.98,-0.08,-0.19,-0.02,
1.762,0.02,-0.03,0.98,-0.08,-0.19,-0.02,
1.762,0.02,-0.03,0.98,0.01,-0.22,-0.15,
1.763,0.02,-0.03,0.97,0.01,-0.22,-0.15,
1.767,0.02,-0.03,0.96,0.01,-0.22,-0.15,
1.767,0.02,-0.03,0.96,0.08,-0.28,-0.26,
1.768,0.02,-0.04,0.95,0.08,-0.28,-0.26,
1.771,0.02,-0.03,0.94,0.08,-0.28,-0.26,
1.772,0.02,-0.03,0.94,0.10,-0.32,-0.41,
1.773,0.01,-0.03,0.94,0.10,-0.32,-0.41,
1.777,0.01,-0.02,0.94,0.10,-0.32,-0.41,
1.777,0.01,-0.02,0.94,0.09,-0.30,-0.59,
1.778,0.00,-0.02,0.94,0.09,-0.30,-0.59,
1.781,0.00,-0.02,0.94,-0.00,-0.25,-0.67,
1.781,-0.01,-0.01,0.93,-0.00,-0.25,-0.67,
1.783,-0.01,-0.01,0.93,-0.00,-0.25,-0.67,
1.786,-0.02,-0.01,0.93,-0.00,-0.25,-0.67,
1.786,-0.02,-0.01,0.93,-0.11,-0.18,-0.71,
1.794,-0.02,-0.00,0.93,-0.11,-0.18,-0.71,
1.795,-0.03,-0.01,0.93,-0.11,-0.18,-0.71,
1.795,-0.03,-0.01,0.93,-0.22,-0.14,-0.78,
1.795,-0.04,-0.01,0.93,-0.22,-0.14,-0.78,
1.798,-0.04,-0.01,0.93,-0.22,-0.14,-0.78,
1.798,-0.04,-0.01,0.93,-0.36,-0.13,-0.79,
1.798,-0.04,-0.01,0.93,-0.36,-0.13,-0.79,
1.801,-0.05,-0.00,0.93,-0.36,-0.13,-0.79,
1.801,-0.05,-0.00,0.93,-0.48,-0.13,-0.75,
1.807,-0.05,-0.00,0.93,-0.48,-0.13,-0.75,
1.808,-0.05,-0.01,0.93,-0.48,-0.13,-0.75,
1.808,-0.05,-0.01,0.93,-0.51,-0.14,-0.75,
1.808,-0.05,-0.01,0.93,-0.51,-0.14,-0.75,
1.81,-0.05,-0.00,0.94,-0.51,-0.14,-0.75,
1.811,-0.05,-0.00,0.94,-0.54,-0.15,-0.72,
1.814,-0.04,0.00,0.94,-0.54,-0.15,-0.72,
1.816,-0.04,0.00,0.94,-0.52,-0.14,-0.69,
1.816,-0.03,0.00,0.93,-0.52,-0.14,-0.69,
1.818,-0.03,0.00,0.94,-0.52,-0.14,-0.69,
1.821,-0.02,0.00,0.94,-0.52,-0.14,-0.69,
1.822,-0.02,0.00,0.94,-0.44,-0.11,-0.68,
1.823,-0.01,0.00,0.94,-0.44,-0.11,-0.68,
1.826,-0.01,0.00,0.94,-0.29,-0.10,-0.67,
1.826,-0.00,0.00,0.94,-0.29,-0.10,-0.67,
1.829,0.00,0.01,0.94,-0.29,-0.10,-0.67,
1.832,0.01,0.01,0.94,-0.29,-0.10,-0.67,
1.832,0.01,0.01,0.94,-0.13,-0.12,-0.67,
1.833,0.01,0.01,0.93,-0.13,-0.12,-0.67,
1.835,0.02,0.02,0.93,-0.13,-0.12,-0.67,
1.835,0.02,0.02,0.93,0.01,-0.07,-0.67,
1.838,0.04,0.02,0.94,0.01,-0.07,-0.67,
1.841,0.03,0.03,0.94,0.01,-0.07,-0.67,
1.841,0.03,0.03,0.94,0.12,-0.00,-0.72,
1.843,0.03,0.03,0.94,0.12,-0.00,-0.72,
1.846,0.03,0.03,0.94,0.28,0.07,-0.66,
1.846,0.04,0.04,0.94,0.28,0.07,-0.66,
1.848,0.03,0.04,0.95,0.28,0.07,-0.66,
1.851,0.03,0.05,0.95,0.28,0.07,-0.66,
1.851,0.03,0.05,0.95,0.26,0.17,-0.65,
1.852,0.03,0.05,0.94,0.26,0.17,-0.65,
1.856,0.03,0.05,0.94,0.26,0.17,-0.65,
1.857,0.03,0.05,0.94,0.23,0.25,-0.55,
1.858,0.02,0.05,0.94,0.23,0.25,-0.55,
1.861,0.02,0.05,0.93,0.23,0.25,-0.55,
1.862,0.02,0.05,0.93,0.23,0.32,-0.61,
1.864,0.02,0.05,0.93,0.23,0.32,-0.61,
1.866,0.01,0.05,0.93,0.23,0.32,-0.61,
1.866,0.01,0.05,0.93,0.16,0.29,-0.65,
1.868,0.02,0.05,0.92,0.16,0.29,-0.65,
1.876,0.02,0.04,0.92,0.16,0.29,-0.65,
1.877,0.02,0.04,0.92,0.13,0.27,-0.69,
1.877,0.01,0.04,0.92,0.13,0.27,-0.69,
1.877,0.01,0.04,0.91,0.13,0.27,-0.69,
1.878,0.01,0.04,0.91,0.10,0.21,-0.81,
1.878,0.01,0.03,0.91,0.10,0.21,-0.81,
1.88,0.01,0.03,0.91,0.10,0.21,-0.81,
1.88,0.01,0.03,0.91,0.07,0.10,-0.82,
1.882,0.01,0.03,0.90,0.07,0.10,-0.82,
1.885,0.00,0.03,0.89,0.07,0.10,-0.82,
1.885,0.00,0.03,0.89,0.05,0.04,-0.89,
1.889,0.00,0.02,0.89,0.05,0.04,-0.89,
1.89,-0.00,0.02,0.89,0.05,0.04,-0.89,
1.89,-0.00,0.02,0.89,0.00,-0.03,-1.01,
1.893,-0.01,0.02,0.88,0.00,-0.03,-1.01,
1.895,-0.01,0.02,0.88,0.00,-0.03,-1.01,
1.896,-0.01,0.02,0.88,-0.06,-0.08,-1.07,
1.898,-0.02,0.01,0.88,-0.06,-0.08,-1.07,
1.901,-0.02,0.02,0.87,-0.06,-0.08,-1.07,
1.901,-0.02,0.02,0.87,-0.15,-0.14,-1.13,
1.902,-0.02,0.02,0.87,-0.15,-0.14,-1.13,
1.905,-0.02,0.02,0.87,-0.15,-0.14,-1.13,
1.905,-0.02,0.02,0.87,-0.21,-0.19,-1.18,
1.908,-0.02,0.02,0.87,-0.21,-0.19,-1.18,
1.909,-0.03,0.02,0.87,-0.21,-0.19,-1.18,
1.91,-0.03,0.02,0.87,-0.25,-0.19,-1.21,
1.913,-0.04,0.02,0.88,-0.25,-0.19,-1.21,
1.915,-0.03,0.02,0.88,-0.25,-0.19,-1.21,
1.915,-0.03,0.02,0.88,-0.30,-0.18,-1.20,
1.918,-0.03,0.02,0.88,-0.30,-0.18,-1.20,
1.92,-0.03,0.03,0.88,-0.30,-0.18,-1.20,
1.92,-0.03,0.03,0.88,-0.37,-0.15,-1.10,
1.923,-0.03,0.02,0.89,-0.37,-0.15,-1.10,
1.924,-0.03,0.03,0.90,-0.37,-0.15,-1.10,
1.925,-0.03,0.03,0.90,-0.36,-0.11,-1.08,
1.928,-0.03,0.03,0.90,-0.36,-0.11,-1.08,
1.93,-0.03,0.03,0.91,-0.36,-0.11,-1.08,
1.93,-0.03,0.03,0.91,-0.34,-0.10,-0.93,
1.932,-0.03,0.04,0.91,-0.34,-0.10,-0.93,
1.935,-0.02,0.04,0.92,-0.34,-0.10,-0.93,
1.935,-0.02,0.04,0.92,-0.32,-0.04,-0.85,
1.939,-0.03,0.04,0.93,-0.32,-0.04,-0.85,
1.94,-0.03,0.04,0.93,-0.32,-0.04,-0.85,
1.94,-0.03,0.04,0.93,-0.27,0.00,-0.75,
1.943,-0.03,0.04,0.93,-0.27,0.00,-0.75,
1.945,-0.03,0.04,0.93,-0.27,0.00,-0.75,
1.945,-0.03,0.04,0.93,-0.29,0.01,-0.59,
1.948,-0.02,0.04,0.94,-0.29,0.01,-0.59,
1.95,-0.02,0.03,0.95,-0.29,0.01,-0.59,
1.95,-0.02,0.03,0.95,-0.29,0.00,-0.56,
1.952,-0.02,0.03,0.96,-0.29,0.00,-0.56,
1.956,-0.02,0.03,0.96,-0.25,-0.02,-0.41,
1.957,-0.01,0.03,0.95,-0.25,-0.02,-0.41,
1.957,-0.01,0.03,0.96,-0.25,-0.02,-0.41,
1.959,-0.01,0.03,0.96,-0.25,-0.02,-0.41,
1.96,-0.01,0.03,0.96,-0.18,-0.09,-0.33,
1.962,-0.01,0.03,0.96,-0.18,-0.09,-0.33,
1.964,0.00,0.03,0.95,-0.18,-0.09,-0.33,
1.965,0.00,0.03,0.95,-0.10,-0.07,-0.29,
1.967,0.01,0.03,0.95,-0.10,-0.07,-0.29,
1.969,0.01,0.03,0.95,-0.10,-0.07,-0.29,
1.969,0.01,0.03,0.95,-0.01,-0.06,-0.33,
1.972,0.01,0.03,0.95,-0.01,-0.06,-0.33,
1.975,0.01,0.03,0.94,-0.01,-0.06,-0.33,
1.976,0.01,0.03,0.94,0.08,-0.08,-0.34,
1.977,0.01,0.03,0.94,0.08,-0.08,-0.34,
1.981,0.01,0.03,0.94,0.08,-0.08,-0.34,
1.981,0.01,0.03,0.94,0.13,-0.05,-0.41,
1.982,0.01,0.04,0.93,0.13,-0.05,-0.41,
1.984,0.01,0.04,0.94,0.13,-0.05,-0.41,
1.984,0.01,0.04,0.94,0.13,-0.06,-0.46,
1.986,0.00,0.05,0.93,0.13,-0.06,-0.46,
1.996,0.01,0.05,0.93,0.13,-0.06,-0.46,
1.996,0.01,0.05,0.93,0.08,0.02,-0.51,
1.997,0.00,0.04,0.93,0.08,0.02,-0.51,
1.997,-0.00,0.04,0.93,0.08,0.02,-0.51,
1.997,-0.00,0.04,0.93,0.06,0.07,-0.53,
1.998,-0.00,0.04,0.93,0.06,0.07,-0.53,
1.999,-0.00,0.04,0.93,0.06,0.07,-0.53,
1.999,-0.00,0.04,0.93,0.01,0.04,-0.54,
2.001,-0.01,0.05,0.93,0.01,0.04,-0.54,
2.011,-0.01,0.04,0.93,0.01,0.04,-0.54,
2.012,-0.01,0.04,0.93,-0.03,0.04,-0.57,
2.012,-0.01,0.04,0.93,-0.03,0.04,-0.57,
2.012,-0.01,0.04,0.93,-0.10,0.04,-0.56,
2.013,-0.02,0.04,0.93,-0.10,0.04,-0.56,
2.013,-0.01,0.04,0.93,-0.10,0.04,-0.56,
2.013,-0.02,0.04,0.94,-0.10,0.04,-0.56,
2.014,-0.02,0.04,0.94,-0.14,0.01,-0.53,
2.016,-0.02,0.04,0.93,-0.14,0.01,-0.53,
2.018,-0.02,0.04,0.93,-0.14,0.01,-0.53,
2.019,-0.02,0.04,0.93,-0.16,-0.02,-0.50,
2.022,-0.02,0.04,0.93,-0.16,-0.02,-0.50,
2.024,-0.02,0.03,0.93,-0.16,-0.02,-0.50,
2.025,-0.02,0.03,0.93,-0.19,-0.01,-0.51,
2.026,-0.02,0.03,0.94,-0.19,-0.01,-0.51,
2.028,-0.02,0.03,0.94,-0.19,-0.01,-0.51,
2.029,-0.02,0.03,0.94,-0.18,-0.07,-0.47,
2.031,-0.03,0.04,0.95,-0.18,-0.07,-0.47,
2.034,-0.03,0.04,0.95,-0.18,-0.07,-0.47,
2.035,-0.03,0.04,0.95,-0.22,-0.11,-0.39,
2.036,-0.02,0.03,0.95,-0.22,-0.11,-0.39,
2.039,-0.03,0.03,0.95,-0.22,-0.11,-0.39,
2.039,-0.03,0.03,0.95,-0.29,-0.08,-0.35,
2.041,-0.02,0.03,0.95,-0.29,-0.08,-0.35,
2.043,-0.02,0.03,0.96,-0.29,-0.08,-0.35,
2.044,-0.02,0.03,0.96,-0.26,-0.16,-0.28,
2.046,-0.03,0.03,0.97,-0.26,-0.16,-0.28,
2.048,-0.03,0.03,0.97,-0.26,-0.16,-0.28,
2.049,-0.03,0.03,0.97,-0.25,-0.12,-0.25,
2.051,-0.03,0.03,0.98,-0.25,-0.12,-0.25,
2.053,-0.02,0.03,0.99,-0.25,-0.12,-0.25,
2.054,-0.02,0.03,0.99,-0.33,-0.14,-0.11,
2.057,-0.02,0.02,0.99,-0.33,-0.14,-0.11,
2.058,-0.01,0.02,0.99,-0.33,-0.14,-0.11,
2.059,-0.01,0.02,0.99,-0.25,-0.14,0.03,
2.061,-0.02,0.02,1.00,-0.25,-0.14,0.03,
2.064,-0.01,0.03,0.99,-0.25,-0.14,0.03,
2.064,-0.01,0.03,0.99,-0.19,-0.20,0.06,
2.066,-0.01,0.02,0.99,-0.19,-0.20,0.06,
2.068,-0.01,0.02,1.00,-0.19,-0.20,0.06,
2.069,-0.01,0.02,1.00,-0.18,-0.17,0.12,
2.073,-0.01,0.02,1.00,-0.18,-0.17,0.12,
2.074,-0.01,0.02,1.00,-0.18,-0.17,0.12,
2.075,-0.01,0.02,1.00,-0.13,-0.17,0.12,
2.076,-0.01,0.03,1.00,-0.13,-0.17,0.12,
2.079,-0.01,0.03,1.00,-0.13,-0.17,0.12,
2.079,-0.01,0.03,1.00,-0.12,-0.19,0.18,
2.081,-0.01,0.03,1.00,-0.12,-0.19,0.18,
2.083,-0.01,0.03,1.00,-0.12,-0.19,0.18,
2.084,-0.01,0.03,1.00,-0.11,-0.12,0.18,
2.086,-0.01,0.03,1.00,-0.11,-0.12,0.18,
2.097,-0.00,0.03,1.00,-0.11,-0.12,0.18,
2.098,-0.00,0.03,1.00,-0.08,-0.07,0.18,
2.098,0.00,0.03,1.00,-0.08,-0.07,0.18,
2.099,0.01,0.04,1.00,-0.08,-0.07,0.18,
2.1,0.01,0.04,1.00,-0.04,-0.07,0.19,
2.1,0.01,0.04,1.00,-0.04,-0.07,0.19,
2.101,0.02,0.04,1.00,-0.04,-0.07,0.19,
2.101,0.02,0.04,1.00,0.05,-0.05,0.18,
2.102,0.02,0.04,1.01,0.05,-0.05,0.18,
2.103,0.02,0.04,1.01,0.05,-0.05,0.18,
2.103,0.02,0.04,1.01,0.12,0.01,0.16,
2.11,0.02,0.04,1.01,0.12,0.01,0.16,
2.111,0.02,0.05,1.01,0.12,0.01,0.16,
2.111,0.02,0.05,1.01,0.17,0.00,0.26,
2.111,0.03,0.05,1.01,0.17,0.00,0.26,
2.113,0.02,0.05,1.01,0.17,0.00,0.26,
2.113,0.02,0.05,1.01,0.21,0.04,0.24,
2.115,0.02,0.04,1.01,0.21,0.04,0.24,
2.117,0.02,0.05,1.01,0.21,0.04,0.24,
2.117,0.02,0.05,1.01,0.22,0.07,0.25,
2.12,0.03,0.05,1.02,0.22,0.07,0.25,
2.124,0.03,0.05,1.02,0.22,0.07,0.25,
2.125,0.03,0.05,1.02,0.21,0.05,0.25,
2.125,0.03,0.05,1.02,0.21,0.05,0.25,
2.128,0.03,0.05,1.02,0.21,0.05,0.25,
2.128,0.03,0.05,1.02,0.26,0.08,0.33,
2.13,0.03,0.05,1.02,0.26,0.08,0.33,
2.132,0.03,0.05,1.02,0.26,0.08,0.33,
2.133,0.03,0.05,1.02,0.27,0.07,0.33,
2.135,0.03,0.05,1.02,0.27,0.07,0.33,
2.139,0.03,0.05,1.02,0.27,0.07,0.33,
2.14,0.03,0.05,1.02,0.24,0.08,0.36,
2.14,0.02,0.05,1.02,0.24,0.08,0.36,
2.142,0.02,0.05,1.02,0.24,0.08,0.36,
2.147,0.02,0.05,1.02,0.26,0.06,0.33,
2.147,0.02,0.05,1.02,0.26,0.06,0.33,
2.148,0.02,0.05,1.02,0.26,0.06,0.33,
2.148,0.02,0.05,1.02,0.19,0.08,0.36,
2.15,0.01,0.05,1.01,0.19,0.08,0.36,
2.152,0.02,0.05,1.01,0.19,0.08,0.36,
2.153,0.02,0.05,1.01,0.16,0.09,0.32,
2.157,0.02,0.05,1.01,0.16,0.09,0.32,
2.158,0.01,0.05,1.00,0.16,0.09,0.32,
2.158,0.01,0.05,1.00,0.12,0.06,0.25,
2.161,0.01,0.05,1.00,0.12,0.06,0.25,
2.163,0.01,0.05,1.00,0.12,0.06,0.25,
2.163,0.01,0.05,1.00,0.12,0.08,0.17,
2.165,0.02,0.05,0.99,0.12,0.08,0.17,
2.168,0.02,0.04,0.98,0.12,0.08,0.17,
2.168,0.02,0.04,0.98,0.09,0.07,0.12,
2.17,0.02,0.04,0.98,0.09,0.07,0.12,
2.176,0.02,0.05,0.97,0.09,0.07,0.12,
2.177,0.02,0.05,0.97,0.13,0.02,0.01,
2.178,0.02,0.04,0.97,0.13,0.02,0.01,
2.178,0.02,0.04,0.97,0.16,0.00,-0.07,
2.178,0.02,0.05,0.97,0.16,0.00,-0.07,
2.18,0.02,0.05,0.97,0.16,0.00,-0.07,
2.183,0.02,0.05,0.97,0.16,0.00,-0.07,
2.183,0.02,0.05,0.97,0.16,0.01,-0.17,
2.185,0.02,0.05,0.96,0.16,0.01,-0.17,
2.188,0.02,0.05,0.96,0.16,0.03,-0.16,
2.188,0.02,0.05,0.96,0.16,0.03,-0.16,
2.197,0.01,0.05,0.98,0.16,0.03,-0.16,
2.197,0.01,0.05,0.98,0.16,0.03,-0.16,
2.198,0.01,0.05,0.98,0.16,0.07,-0.21,
2.198,0.01,0.06,0.98,0.16,0.07,-0.21,
2.198,0.01,0.07,0.98,0.16,0.07,-0.21,
2.198,0.01,0.07,0.98,0.10,0.08,-0.09,
2.199,0.01,0.06,0.98,0.10,0.08,-0.09,
2.202,0.01,0.07,0.98,0.10,0.08,-0.09,
2.203,0.01,0.07,0.98,0.06,0.17,-0.03,
2.206,0.01,0.07,0.98,0.06,0.17,-0.03,
2.208,0.01,0.07,0.98,0.06,0.17,-0.03,
2.208,0.01,0.07,0.98,0.08,0.16,-0.07,
2.209,0.01,0.07,0.98,0.08,0.16,-0.07,
2.212,0.01,0.07,0.98,0.04,0.20,-0.01,
2.213,0.01,0.07,0.99,0.04,0.20,-0.01,
2.215,0.01,0.08,0.99,0.04,0.20,-0.01,
2.217,0.01,0.07,0.99,0.04,0.20,-0.01,
2.217,0.01,0.07,0.99,0.08,0.23,0.01,
2.219,0.02,0.07,0.99,0.08,0.23,0.01,
2.222,0.01,0.07,0.99,0.08,0.23,0.01,
2.222,0.01,0.07,0.99,0.07,0.24,0.03,
2.224,0.01,0.07,0.99,0.07,0.24,0.03,
2.227,0.02,0.07,0.98,0.07,0.24,0.03,
2.228,0.02,0.07,0.98,0.11,0.24,0.04,
2.229,0.02,0.07,0.99,0.11,0.24,0.04,
2.232,0.01,0.07,0.99,0.11,0.24,0.04,
2.232,0.01,0.07,0.99,0.13,0.24,-0.01,
2.235,0.02,0.07,0.99,0.13,0.24,-0.01,
2.237,0.02,0.07,0.99,0.13,0.21,0.04,
2.237,0.02,0.07,0.99,0.13,0.21,0.04,
2.24,0.02,0.07,0.99,0.13,0.21,0.04,
2.242,0.01,0.07,0.95,0.13,0.21,0.04,
2.242,0.01,0.07,0.95,0.15,0.23,0.07,
2.244,0.02,0.07,0.89,0.15,0.23,0.07,
2.247,0.05,0.08,0.84,0.15,0.23,0.07,
2.247,0.05,0.08,0.84,0.12,0.23,-0.12,
2.25,0.06,0.08,0.85,0.12,0.23,-0.12,
2.252,0.05,0.07,0.88,0.12,0.23,-0.12,
2.252,0.05,0.07,0.88,0.34,0.25,-1.17,
2.255,0.03,0.07,0.91,0.34,0.25,-1.17,
2.258,0.03,0.07,0.91,0.50,0.28,-1.20,
2.258,0.01,0.06,0.94,0.50,0.28,-1.20,
2.259,-0.00,0.07,0.94,0.50,0.28,-1.20,
2.264,-0.01,0.07,0.95,0.50,0.28,-1.20,
2.265,-0.01,0.07,0.95,0.19,0.18,-0.54,
2.265,-0.01,0.07,0.95,0.19,0.18,-0.54,
2.266,-0.02,0.07,0.95,0.19,0.18,-0.54,
2.266,-0.02,0.07,0.95,-0.06,0.24,-0.36,
2.27,-0.02,0.06,0.95,-0.06,0.24,-0.36,
2.272,-0.03,0.07,0.96,-0.06,0.24,-0.36,
2.272,-0.03,0.07,0.96,-0.17,0.24,-0.27,
2.274,-0.03,0.06,0.97,-0.17,0.24,-0.27,
2.277,-0.01,0.06,0.98,-0.17,0.24,-0.27,
2.278,-0.01,0.06,0.98,-0.23,0.21,-0.23,
2.278,-0.01,0.05,0.98,-0.23,0.21,-0.23,
2.282,-0.02,0.05,1.00,-0.23,0.21,-0.23,
2.282,-0.02,0.05,1.00,-0.17,0.20,-0.06,
2.283,-0.03,0.05,1.02,-0.17,0.20,-0.06,
2.286,-0.03,0.04,1.05,-0.17,0.20,-0.06,
2.287,-0.03,0.04,1.05,-0.13,0.13,0.08,
2.289,-0.03,0.03,1.06,-0.13,0.13,0.08,
2.294,-0.03,0.02,1.08,-0.13,0.13,0.08,
2.295,-0.03,0.02,1.08,-0.28,0.09,0.50,
2.295,-0.02,0.02,1.09,-0.28,0.09,0.50,
2.295,-0.01,0.01,1.10,-0.28,0.09,0.50,
2.296,-0.01,0.01,1.10,-0.30,-0.10,0.86,
2.299,-0.01,0.02,1.11,-0.30,-0.10,0.86,
2.3,-0.00,0.01,1.12,-0.30,-0.10,0.86,
2.301,-0.00,0.01,1.12,-0.18,-0.21,1.11,
2.303,0.00,0.02,1.13,-0.18,-0.21,1.11,
2.318,0.01,0.02,1.14,-0.18,-0.21,1.11,
2.318,0.01,0.02,1.14,-0.03,-0.21,1.25,
2.321,0.02,0.02,1.14,-0.03,-0.21,1.25,
2.321,0.02,0.02,1.13,-0.03,-0.21,1.25,
2.321,0.02,0.02,1.13,0.08,-0.20,1.48,
2.322,0.03,0.02,1.12,0.08,-0.20,1.48,
2.322,0.03,0.03,1.11,0.08,-0.20,1.48,
2.322,0.03,0.03,1.11,0.22,-0.16,1.43,
2.322,0.03,0.03,1.09,0.22,-0.16,1.43,
2.323,0.03,0.03,1.08,0.22,-0.16,1.43,
2.323,0.03,0.03,1.08,0.29,-0.13,1.22,
2.323,0.03,0.03,1.07,0.29,-0.13,1.22,
2.336,0.03,0.04,1.05,0.29,-0.13,1.22,
2.337,0.03,0.04,1.05,0.32,-0.11,0.95,
2.337,0.03,0.04,1.03,0.32,-0.11,0.95,
2.337,0.03,0.05,1.02,0.32,-0.11,0.95,
2.337,0.03,0.05,1.02,0.30,-0.06,0.66,
2.337,0.03,0.05,1.00,0.30,-0.06,0.66,
2.338,0.02,0.06,0.99,0.30,-0.06,0.66,
2.338,0.02,0.06,0.99,0.30,0.01,0.33,
2.338,0.01,0.06,0.98,0.30,0.01,0.33,
2.35,0.01,0.06,0.97,0.30,0.01,0.33,
2.35,0.01,0.06,0.97,0.22,0.06,0.05,
2.35,0.00,0.07,0.96,0.22,0.06,0.05,
2.351,-0.00,0.07,0.95,0.22,0.06,0.05,
2.351,-0.00,0.07,0.95,0.13,0.10,-0.18,
2.351,-0.01,0.07,0.94,0.13,0.10,-0.18,
2.351,-0.01,0.07,0.94,0.13,0.10,-0.18,
2.352,-0.01,0.07,0.94,0.03,0.17,-0.35,
