
time,gFx,gFy,gFz,ax,ay,az,
0.004,-0.05,0.09,0.99,-0.56,-0.31,0.30,
0.004,-0.05,0.09,0.99,-0.47,-0.28,0.11,
0.005,-0.04,0.09,0.98,-0.47,-0.28,0.11,
0.005,-0.03,0.09,0.98,-0.47,-0.28,0.11,
0.005,-0.03,0.09,0.98,-0.33,-0.16,-0.07,
0.005,0.02,0.09,0.96,-0.33,-0.16,-0.07,
0.005,0.07,0.08,0.92,-0.33,-0.16,-0.07,
0.006,0.07,0.08,0.92,-0.18,-0.12,-0.15,
0.008,0.04,0.10,0.93,-0.18,-0.12,-0.15,
0.009,0.01,0.11,0.93,-0.18,-0.12,-0.15,
0.011,0.01,0.11,0.93,0.61,-0.19,-0.57,
0.013,-0.01,0.13,0.93,0.61,-0.19,-0.57,
0.021,-0.03,0.14,0.94,0.61,-0.19,-0.57,
0.022,-0.03,0.14,0.94,0.36,0.02,-0.64,
0.022,-0.03,0.15,0.96,0.36,0.02,-0.64,
0.022,-0.04,0.16,0.95,0.36,0.02,-0.64,
0.022,-0.04,0.16,0.95,-0.03,0.27,-0.59,
0.022,-0.05,0.17,0.96,-0.03,0.27,-0.59,
0.025,-0.05,0.17,0.96,-0.03,0.27,-0.59,
0.025,-0.05,0.17,0.96,-0.19,0.44,-0.38,
0.027,-0.05,0.17,0.96,-0.19,0.44,-0.38,
0.029,-0.04,0.17,0.96,-0.19,0.44,-0.38,
0.03,-0.04,0.17,0.96,-0.34,0.58,-0.35,
0.039,-0.04,0.17,0.96,-0.34,0.58,-0.35,
0.039,-0.03,0.16,0.96,-0.34,0.58,-0.35,
0.04,-0.03,0.16,0.96,-0.33,0.57,-0.34,
0.04,-0.03,0.17,0.96,-0.33,0.57,-0.34,
0.04,-0.02,0.16,0.97,-0.33,0.57,-0.34,
0.04,-0.02,0.16,0.97,-0.20,0.53,-0.30,
0.042,-0.02,0.16,0.98,-0.20,0.53,-0.30,
0.045,-0.01,0.16,0.99,-0.20,0.53,-0.30,
0.045,-0.01,0.16,0.99,-0.10,0.51,-0.23,
0.055,-0.01,0.16,0.99,-0.10,0.51,-0.23,
0.056,-0.00,0.16,0.99,-0.10,0.51,-0.23,
0.056,-0.00,0.16,0.99,-0.01,0.44,-0.09,
0.056,-0.00,0.15,1.00,-0.01,0.44,-0.09,
0.056,-0.00,0.15,1.00,0.06,0.42,-0.03,
0.056,-0.00,0.16,1.00,0.06,0.42,-0.03,
0.057,-0.00,0.15,1.01,0.06,0.42,-0.03,
0.06,-0.00,0.16,1.01,0.06,0.42,-0.03,
0.06,-0.00,0.16,1.01,0.08,0.40,0.07,
0.062,-0.01,0.15,1.01,0.08,0.40,0.07,
0.07,-0.01,0.15,1.01,0.08,0.40,0.07,
0.071,-0.01,0.15,1.01,0.08,0.38,0.14,
0.071,-0.01,0.15,1.01,0.08,0.38,0.14,
0.071,-0.01,0.15,1.01,0.05,0.37,0.16,
0.072,-0.01,0.15,1.00,0.05,0.37,0.16,
0.072,-0.01,0.15,1.00,0.05,0.37,0.16,
0.075,-0.02,0.14,1.01,0.05,0.37,0.16,
0.075,-0.02,0.14,1.01,-0.00,0.36,0.12,
0.077,-0.02,0.15,1.01,-0.00,0.36,0.12,
0.079,-0.02,0.14,1.00,-0.00,0.36,0.12,
0.08,-0.02,0.14,1.00,-0.04,0.31,0.13,
0.09,-0.03,0.14,1.01,-0.04,0.31,0.13,
0.09,-0.03,0.14,1.01,-0.04,0.31,0.13,
0.091,-0.03,0.14,1.01,-0.09,0.29,0.13,
0.091,-0.03,0.14,1.01,-0.09,0.29,0.13,
0.091,-0.03,0.14,1.01,-0.09,0.29,0.13,
0.091,-0.03,0.14,1.01,-0.17,0.28,0.12,
0.092,-0.03,0.14,1.01,-0.17,0.28,0.12,
0.094,-0.04,0.14,1.01,-0.17,0.28,0.12,
0.094,-0.04,0.14,1.01,-0.15,0.27,0.15,
0.096,-0.05,0.14,1.02,-0.15,0.27,0.15,
0.104,-0.05,0.14,1.02,-0.15,0.27,0.15,
0.105,-0.05,0.14,1.02,-0.21,0.27,0.18,
0.105,-0.06,0.14,1.02,-0.21,0.27,0.18,
0.105,-0.06,0.14,1.02,-0.34,0.28,0.23,
0.105,-0.06,0.14,1.02,-0.34,0.28,0.23,
0.107,-0.07,0.15,1.02,-0.34,0.28,0.23,
0.109,-0.07,0.15,1.02,-0.34,0.28,0.23,
0.109,-0.07,0.15,1.02,-0.40,0.26,0.26,
0.112,-0.08,0.15,1.02,-0.40,0.26,0.26,
0.122,-0.08,0.15,1.02,-0.40,0.26,0.26,
0.122,-0.08,0.15,1.02,-0.53,0.36,0.23,
0.123,-0.08,0.15,1.02,-0.53,0.36,0.23,
0.123,-0.09,0.15,1.02,-0.53,0.36,0.23,
0.123,-0.09,0.15,1.02,-0.60,0.38,0.24,
0.123,-0.09,0.15,1.02,-0.60,0.38,0.24,
0.123,-0.09,0.15,1.02,-0.60,0.38,0.24,
0.124,-0.09,0.15,1.02,-0.64,0.39,0.24,
0.126,-0.10,0.15,1.02,-0.64,0.39,0.24,
0.128,-0.10,0.15,1.01,-0.64,0.39,0.24,
0.128,-0.10,0.15,1.01,-0.69,0.37,0.26,
0.136,-0.10,0.15,1.02,-0.69,0.37,0.26,
0.137,-0.10,0.15,1.01,-0.69,0.37,0.26,
0.137,-0.10,0.15,1.01,-0.76,0.37,0.19,
0.138,-0.10,0.14,1.01,-0.76,0.37,0.19,
0.138,-0.10,0.14,1.01,-0.76,0.37,0.19,
0.138,-0.10,0.14,1.01,-0.77,0.34,0.18,
0.14,-0.10,0.13,1.01,-0.77,0.34,0.18,
0.143,-0.10,0.13,1.00,-0.77,0.34,0.18,
0.143,-0.10,0.13,1.00,-0.78,0.27,0.12,
0.145,-0.10,0.13,1.00,-0.78,0.27,0.12,
0.153,-0.10,0.13,1.00,-0.78,0.27,0.12,
0.153,-0.10,0.13,1.00,-0.73,0.18,0.09,
0.154,-0.10,0.12,1.01,-0.73,0.18,0.09,
0.154,-0.10,0.12,1.01,-0.74,0.12,0.05,
0.154,-0.10,0.12,1.00,-0.74,0.12,0.05,
0.155,-0.11,0.12,1.01,-0.74,0.12,0.05,
0.158,-0.11,0.12,1.01,-0.74,0.12,0.05,
0.161,-0.11,0.12,1.01,-0.77,0.05,0.08,
0.161,-0.11,0.12,1.01,-0.77,0.05,0.08,
0.17,-0.11,0.11,1.02,-0.77,0.05,0.08,
0.171,-0.11,0.11,1.02,-0.79,0.04,0.15,
0.171,-0.11,0.11,1.02,-0.79,0.04,0.15,
0.172,-0.11,0.11,1.03,-0.79,0.04,0.15,
0.172,-0.11,0.11,1.03,-0.82,-0.01,0.18,
0.172,-0.12,0.11,1.02,-0.82,-0.01,0.18,
0.173,-0.12,0.11,1.03,-0.82,-0.01,0.18,
0.174,-0.12,0.11,1.03,-0.84,-0.01,0.27,
0.176,-0.12,0.11,1.04,-0.84,-0.01,0.27,
0.179,-0.12,0.12,1.04,-0.84,-0.01,0.27,
0.179,-0.12,0.12,1.04,-0.86,-0.04,0.30,
0.18,-0.13,0.11,1.04,-0.86,-0.04,0.30,
0.188,-0.13,0.12,1.05,-0.86,-0.04,0.30,
0.189,-0.13,0.12,1.05,-0.91,0.02,0.39,
0.189,-0.14,0.13,1.05,-0.91,0.02,0.39,
0.189,-0.14,0.13,1.05,-0.91,0.02,0.39,
0.189,-0.14,0.13,1.05,-0.98,0.03,0.46,
0.191,-0.14,0.13,1.05,-0.98,0.03,0.46,
0.193,-0.14,0.14,1.05,-0.98,0.03,0.46,
0.193,-0.14,0.14,1.05,-1.03,0.13,0.49,
0.196,-0.15,0.14,1.06,-1.03,0.13,0.49,
0.204,-0.16,0.14,1.05,-1.03,0.13,0.49,
0.205,-0.16,0.14,1.05,-1.09,0.21,0.51,
0.205,-0.16,0.15,1.05,-1.09,0.21,0.51,
0.205,-0.16,0.14,1.06,-1.09,0.21,0.51,
0.205,-0.16,0.14,1.06,-1.16,0.27,0.56,
0.205,-0.16,0.14,1.06,-1.16,0.27,0.56,
0.208,-0.16,0.14,1.06,-1.16,0.27,0.56,
0.208,-0.16,0.14,1.06,-1.22,0.30,0.54,
0.211,-0.16,0.14,1.06,-1.22,0.30,0.54,
0.213,-0.16,0.14,1.06,-1.22,0.30,0.54,
0.213,-0.16,0.14,1.06,-1.21,0.29,0.55,
0.222,-0.16,0.14,1.05,-1.21,0.29,0.55,
0.222,-0.16,0.14,1.05,-1.21,0.29,0.55,
0.223,-0.16,0.14,1.05,-1.19,0.28,0.56,
0.223,-0.16,0.14,1.05,-1.19,0.28,0.56,
0.223,-0.16,0.14,1.05,-1.19,0.28,0.56,
0.223,-0.16,0.14,1.05,-1.18,0.26,0.50,
0.226,-0.17,0.13,1.05,-1.18,0.26,0.50,
0.228,-0.17,0.13,1.05,-1.18,0.26,0.50,
0.228,-0.17,0.13,1.05,-1.17,0.25,0.45,
0.23,-0.17,0.12,1.05,-1.17,0.25,0.45,
0.238,-0.17,0.12,1.05,-1.17,0.25,0.45,
0.239,-0.17,0.12,1.05,-1.26,0.15,0.51,
0.239,-0.18,0.11,1.05,-1.26,0.15,0.51,
0.24,-0.18,0.11,1.05,-1.26,0.15,0.51,
0.24,-0.18,0.11,1.05,-1.24,0.05,0.47,
0.24,-0.17,0.11,1.05,-1.24,0.05,0.47,
0.243,-0.17,0.10,1.05,-1.24,0.05,0.47,
0.243,-0.17,0.10,1.05,-1.26,-0.05,0.44,
0.245,-0.18,0.09,1.04,-1.26,-0.05,0.44,
0.247,-0.18,0.09,1.05,-1.26,-0.05,0.44,
0.248,-0.18,0.09,1.05,-1.22,-0.13,0.42,
0.255,-0.18,0.09,1.04,-1.22,-0.13,0.42,
0.255,-0.18,0.09,1.04,-1.22,-0.13,0.42,
0.256,-0.18,0.09,1.04,-1.25,-0.21,0.41,
0.256,-0.17,0.09,1.05,-1.25,-0.21,0.41,
0.258,-0.17,0.10,1.05,-1.25,-0.21,0.41,
0.258,-0.17,0.10,1.05,-1.23,-0.21,0.39,
0.261,-0.17,0.10,1.04,-1.23,-0.21,0.39,
0.262,-0.18,0.10,1.04,-1.23,-0.21,0.39,
0.263,-0.18,0.10,1.04,-1.18,-0.18,0.45,
0.27,-0.18,0.10,1.04,-1.18,-0.18,0.45,
0.271,-0.17,0.10,1.05,-1.18,-0.18,0.45,
0.271,-0.17,0.10,1.05,-1.18,-0.15,0.39,
0.271,-0.17,0.10,1.04,-1.18,-0.15,0.39,
0.272,-0.17,0.10,1.04,-1.18,-0.15,0.39,
0.272,-0.17,0.10,1.04,-1.16,-0.13,0.38,
0.275,-0.17,0.10,1.04,-1.16,-0.13,0.38,
0.278,-0.17,0.09,1.03,-1.16,-0.13,0.38,
0.278,-0.17,0.09,1.03,-1.13,-0.16,0.37,
0.28,-0.17,0.09,1.03,-1.13,-0.16,0.37,
0.287,-0.18,0.09,1.03,-1.13,-0.16,0.37,
0.288,-0.18,0.09,1.03,-1.12,-0.21,0.30,
0.288,-0.18,0.09,1.03,-1.12,-0.21,0.30,
0.288,-0.18,0.09,1.02,-1.12,-0.21,0.30,
0.288,-0.18,0.09,1.02,-1.13,-0.25,0.22,
0.29,-0.18,0.09,1.01,-1.13,-0.25,0.22,
0.292,-0.18,0.09,1.01,-1.13,-0.25,0.22,
0.292,-0.18,0.09,1.01,-1.15,-0.26,0.19,
0.295,-0.18,0.09,1.01,-1.15,-0.26,0.19,
0.296,-0.19,0.10,1.00,-1.15,-0.26,0.19,
0.297,-0.19,0.10,1.00,-1.16,-0.26,0.07,
0.31,-0.19,0.10,1.00,-1.16,-0.26,0.07,
0.311,-0.19,0.10,0.98,-1.16,-0.26,0.07,
0.311,-0.19,0.10,0.98,-1.18,-0.24,-0.01,
0.311,-0.19,0.10,0.99,-1.18,-0.24,-0.01,
0.312,-0.19,0.09,0.98,-1.18,-0.24,-0.01,
0.312,-0.19,0.09,0.98,-1.20,-0.23,-0.14,
0.312,-0.20,0.09,0.97,-1.20,-0.23,-0.14,
0.312,-0.21,0.09,0.97,-1.20,-0.23,-0.14,
0.313,-0.21,0.09,0.97,-1.24,-0.28,-0.22,
0.324,-0.21,0.08,0.96,-1.24,-0.28,-0.22,
0.325,-0.21,0.08,0.95,-1.24,-0.28,-0.22,
0.325,-0.21,0.08,0.95,-1.33,-0.36,-0.35,
0.325,-0.22,0.08,0.95,-1.33,-0.36,-0.35,
0.325,-0.21,0.07,0.94,-1.33,-0.36,-0.35,
0.325,-0.21,0.07,0.94,-1.34,-0.41,-0.50,
0.328,-0.22,0.08,0.94,-1.34,-0.41,-0.50,
0.328,-0.22,0.08,0.93,-1.34,-0.41,-0.50,
0.329,-0.22,0.08,0.93,-1.38,-0.47,-0.56,
0.329,-0.22,0.07,0.93,-1.38,-0.47,-0.56,
0.342,-0.23,0.07,0.93,-1.38,-0.47,-0.56,
0.342,-0.23,0.07,0.93,-1.40,-0.50,-0.67,
0.343,-0.23,0.07,0.93,-1.40,-0.50,-0.67,
0.343,-0.24,0.07,0.93,-1.40,-0.50,-0.67,
0.343,-0.24,0.07,0.93,-1.45,-0.56,-0.68,
0.344,-0.24,0.06,0.94,-1.45,-0.56,-0.68,
0.344,-0.24,0.06,0.93,-1.45,-0.56,-0.68,
0.344,-0.24,0.06,0.93,-1.54,-0.61,-0.67,
0.344,-0.24,0.05,0.93,-1.54,-0.61,-0.67,
0.347,-0.24,0.05,0.93,-1.54,-0.61,-0.67,
0.347,-0.24,0.05,0.93,-1.58,-0.67,-0.64,
0.355,-0.23,0.05,0.93,-1.58,-0.67,-0.64,
0.356,-0.23,0.04,0.93,-1.58,-0.67,-0.64,
0.356,-0.23,0.04,0.93,-1.59,-0.75,-0.66,
0.356,-0.22,0.04,0.93,-1.59,-0.75,-0.66,
0.357,-0.23,0.04,0.92,-1.59,-0.75,-0.66,
0.357,-0.23,0.04,0.92,-1.49,-0.86,-0.67,
0.358,-0.22,0.03,0.92,-1.49,-0.86,-0.67,
0.361,-0.22,0.03,0.92,-1.49,-0.86,-0.67,
0.361,-0.22,0.03,0.92,-1.44,-0.91,-0.72,
0.363,-0.22,0.03,0.92,-1.44,-0.91,-0.72,
0.371,-0.22,0.03,0.92,-1.44,-0.91,-0.72,
0.372,-0.22,0.03,0.92,-1.37,-1.02,-0.76,
0.372,-0.21,0.03,0.91,-1.37,-1.02,-0.76,
0.372,-0.21,0.04,0.92,-1.37,-1.02,-0.76,
0.373,-0.21,0.04,0.92,-1.36,-1.04,-0.78,
0.373,-0.20,0.03,0.91,-1.36,-1.04,-0.78,
0.377,-0.20,0.04,0.91,-1.36,-1.04,-0.78,
0.377,-0.20,0.04,0.91,-1.32,-1.03,-0.81,
0.378,-0.20,0.04,0.91,-1.32,-1.03,-0.81,
0.388,-0.19,0.05,0.90,-1.32,-1.03,-0.81,
0.389,-0.19,0.05,0.90,-1.21,-1.01,-0.86,
0.389,-0.18,0.05,0.90,-1.21,-1.01,-0.86,
0.389,-0.18,0.06,0.90,-1.21,-1.01,-0.86,
0.389,-0.18,0.06,0.90,-1.12,-0.91,-0.88,
0.389,-0.17,0.06,0.90,-1.12,-0.91,-0.88,
0.39,-0.17,0.06,0.89,-1.12,-0.91,-0.88,
0.391,-0.17,0.06,0.89,-0.99,-0.85,-0.89,
0.393,-0.16,0.06,0.90,-0.99,-0.85,-0.89,
0.395,-0.15,0.07,0.90,-0.99,-0.85,-0.89,
0.396,-0.15,0.07,0.90,-0.89,-0.81,-0.94,
0.411,-0.15,0.07,0.90,-0.89,-0.81,-0.94,
0.412,-0.15,0.07,0.90,-0.75,-0.74,-0.92,
0.412,-0.16,0.07,0.90,-0.75,-0.74,-0.92,
0.413,-0.16,0.07,0.91,-0.75,-0.74,-0.92,
0.413,-0.16,0.07,0.91,-0.75,-0.74,-0.92,
0.413,-0.16,0.07,0.91,-0.73,-0.70,-0.93,
0.413,-0.16,0.07,0.91,-0.73,-0.70,-0.93,
0.414,-0.16,0.07,0.91,-0.73,-0.70,-0.93,
0.414,-0.16,0.07,0.91,-0.73,-0.70,-0.83,
0.414,-0.16,0.06,0.92,-0.73,-0.70,-0.83,
0.424,-0.17,0.07,0.92,-0.73,-0.70,-0.83,
0.425,-0.17,0.07,0.92,-0.78,-0.69,-0.80,
0.425,-0.17,0.07,0.91,-0.78,-0.69,-0.80,
0.425,-0.17,0.07,0.92,-0.78,-0.69,-0.80,
0.426,-0.17,0.07,0.92,-0.81,-0.75,-0.75,
0.426,-0.17,0.07,0.91,-0.81,-0.75,-0.75,
0.426,-0.17,0.06,0.91,-0.81,-0.75,-0.75,
0.426,-0.17,0.06,0.91,-0.86,-0.73,-0.75,
0.428,-0.17,0.06,0.90,-0.86,-0.73,-0.75,
0.431,-0.16,0.06,0.89,-0.86,-0.73,-0.75,
0.431,-0.16,0.06,0.89,-0.83,-0.78,-0.81,
0.443,-0.16,0.06,0.89,-0.83,-0.78,-0.81,
0.443,-0.16,0.05,0.88,-0.83,-0.78,-0.81,
0.444,-0.16,0.05,0.88,-0.78,-0.82,-0.91,
0.444,-0.16,0.05,0.88,-0.78,-0.82,-0.91,
0.444,-0.15,0.05,0.87,-0.78,-0.82,-0.91,
0.444,-0.15,0.05,0.87,-0.76,-0.89,-1.04,
0.445,-0.15,0.05,0.86,-0.76,-0.89,-1.04,
0.445,-0.14,0.05,0.85,-0.76,-0.89,-1.04,
0.445,-0.14,0.05,0.85,-0.69,-0.94,-1.15,
0.447,-0.13,0.05,0.84,-0.69,-0.94,-1.15,
0.457,-0.13,0.05,0.84,-0.55,-0.93,-1.32,
0.457,-0.13,0.05,0.84,-0.55,-0.93,-1.32,
0.458,-0.12,0.05,0.83,-0.55,-0.93,-1.32,
0.458,-0.11,0.05,0.82,-0.55,-0.93,-1.32,
0.458,-0.11,0.05,0.82,-0.43,-0.97,-1.44,
0.458,-0.11,0.06,0.81,-0.43,-0.97,-1.44,
0.46,-0.10,0.05,0.81,-0.43,-0.97,-1.44,
0.461,-0.10,0.05,0.81,-0.28,-0.97,-1.58,
0.462,-0.09,0.06,0.80,-0.28,-0.97,-1.58,
0.471,-0.09,0.06,0.80,-0.28,-0.97,-1.58,
0.471,-0.09,0.06,0.80,-0.17,-0.96,-1.72,
0.471,-0.09,0.06,0.79,-0.17,-0.96,-1.72,
0.472,-0.08,0.07,0.79,-0.17,-0.96,-1.72,
0.472,-0.08,0.07,0.79,-0.06,-0.94,-1.82,
0.472,-0.08,0.07,0.79,-0.06,-0.94,-1.82,
0.475,-0.08,0.07,0.79,-0.01,-0.91,-1.86,
0.475,-0.08,0.07,0.79,-0.01,-0.91,-1.86,
0.477,-0.07,0.07,0.79,-0.01,-0.91,-1.86,
0.479,-0.06,0.08,0.80,-0.01,-0.91,-1.86,
0.48,-0.06,0.08,0.80,0.06,-0.84,-1.86,
0.488,-0.06,0.08,0.80,0.06,-0.84,-1.86,
0.488,-0.06,0.08,0.80,0.06,-0.84,-1.86,
0.488,-0.06,0.08,0.80,0.16,-0.81,-1.84,
0.489,-0.06,0.08,0.80,0.16,-0.81,-1.84,
0.491,-0.05,0.08,0.80,0.16,-0.81,-1.84,
0.491,-0.05,0.08,0.80,0.22,-0.80,-1.78,
0.492,-0.05,0.08,0.81,0.22,-0.80,-1.78,
0.494,-0.05,0.07,0.80,0.22,-0.80,-1.78,
0.496,-0.05,0.07,0.80,0.24,-0.81,-1.78,
0.498,-0.05,0.06,0.80,0.24,-0.81,-1.78,
0.509,-0.05,0.05,0.79,0.24,-0.81,-1.78,
0.51,-0.05,0.05,0.79,0.30,-0.90,-1.72,
0.51,-0.05,0.04,0.79,0.30,-0.90,-1.72,
0.51,-0.04,0.04,0.79,0.30,-0.90,-1.72,
0.511,-0.04,0.04,0.79,0.31,-1.06,-1.80,
0.512,-0.05,0.03,0.79,0.31,-1.06,-1.80,
0.512,-0.04,0.02,0.78,0.31,-1.06,-1.80,
0.512,-0.04,0.02,0.78,0.33,-1.22,-1.83,
0.512,-0.04,0.02,0.78,0.33,-1.22,-1.83,
0.514,-0.04,0.02,0.78,0.33,-1.22,-1.83,
0.515,-0.04,0.02,0.78,0.33,-1.36,-1.88,
0.522,-0.04,0.01,0.78,0.33,-1.36,-1.88,
0.523,-0.04,0.01,0.78,0.33,-1.36,-1.88,
0.523,-0.04,0.01,0.78,0.34,-1.48,-1.93,
0.523,-0.04,0.02,0.78,0.34,-1.48,-1.93,
0.524,-0.03,0.02,0.79,0.34,-1.48,-1.93,
0.524,-0.03,0.02,0.79,0.39,-1.52,-1.91,
0.527,-0.03,0.02,0.79,0.39,-1.52,-1.91,
0.53,-0.03,0.02,0.79,0.39,-1.52,-1.91,
0.53,-0.03,0.02,0.79,0.41,-1.48,-1.85,
0.538,-0.03,0.02,0.80,0.41,-1.48,-1.85,
0.538,-0.02,0.02,0.81,0.41,-1.48,-1.85,
0.539,-0.02,0.02,0.81,0.43,-1.47,-1.76,
0.539,-0.02,0.02,0.81,0.43,-1.47,-1.76,
0.539,-0.01,0.02,0.82,0.43,-1.47,-1.76,
0.539,-0.01,0.02,0.82,0.45,-1.44,-1.62,
0.542,-0.01,0.03,0.83,0.45,-1.44,-1.62,
0.545,-0.01,0.03,0.83,0.51,-1.44,-1.53,
0.545,-0.00,0.03,0.82,0.51,-1.44,-1.53,
0.547,0.00,0.03,0.83,0.51,-1.44,-1.53,
0.556,-0.00,0.03,0.83,0.51,-1.44,-1.53,
0.556,-0.00,0.03,0.83,0.55,-1.42,-1.43,
0.556,0.00,0.03,0.84,0.55,-1.42,-1.43,
0.556,0.01,0.03,0.83,0.55,-1.42,-1.43,
0.557,0.01,0.03,0.83,0.62,-1.40,-1.38,
0.557,0.02,0.04,0.84,0.62,-1.40,-1.38,
0.559,0.02,0.04,0.84,0.62,-1.40,-1.38,
0.56,0.02,0.04,0.84,0.66,-1.37,-1.32,
0.562,0.03,0.04,0.84,0.66,-1.37,-1.32,
0.565,0.03,0.04,0.85,0.66,-1.37,-1.32,
0.565,0.03,0.04,0.85,0.76,-1.35,-1.27,
0.57,0.04,0.03,0.85,0.76,-1.35,-1.27,
0.571,0.04,0.03,0.86,0.76,-1.35,-1.27,
0.571,0.04,0.03,0.86,0.84,-1.36,-1.19,
0.571,0.05,0.02,0.87,0.84,-1.36,-1.19,
0.574,0.05,0.02,0.87,0.84,-1.36,-1.19,
0.575,0.05,0.02,0.87,0.93,-1.40,-1.10,
0.577,0.06,0.02,0.88,0.93,-1.40,-1.10,
0.579,0.06,0.01,0.88,0.93,-1.40,-1.10,
0.58,0.06,0.01,0.88,1.01,-1.48,-0.95,
0.582,0.07,0.01,0.89,1.01,-1.48,-0.95,
0.588,0.08,0.01,0.89,1.01,-1.48,-0.95,
0.588,0.08,0.01,0.89,1.12,-1.59,-0.87,
0.588,0.08,-0.00,0.89,1.12,-1.59,-0.87,
0.589,0.08,-0.01,0.89,1.12,-1.59,-0.87,
0.589,0.08,-0.01,0.89,1.21,-1.66,-0.75,
0.592,0.08,-0.01,0.89,1.21,-1.66,-0.75,
0.594,0.09,-0.01,0.89,1.21,-1.66,-0.75,
0.594,0.09,-0.01,0.89,1.25,-1.78,-0.74,
0.597,0.09,-0.01,0.90,1.25,-1.78,-0.74,
0.605,0.09,-0.01,0.90,1.30,-1.87,-0.71,
0.606,0.10,-0.02,0.89,1.30,-1.87,-0.71,
0.606,0.10,-0.02,0.89,1.30,-1.87,-0.71,
0.606,0.10,-0.02,0.89,1.38,-1.88,-0.71,
0.606,0.11,-0.02,0.89,1.38,-1.88,-0.71,
0.606,0.11,-0.02,0.88,1.38,-1.88,-0.71,
0.609,0.12,-0.01,0.87,1.38,-1.88,-0.71,
0.609,0.12,-0.01,0.87,1.50,-1.93,-0.76,
0.612,0.13,-0.01,0.86,1.50,-1.93,-0.76,
0.614,0.14,-0.01,0.85,1.50,-1.93,-0.76,
0.614,0.14,-0.01,0.85,1.61,-1.91,-0.91,
0.616,0.15,-0.01,0.84,1.61,-1.91,-0.91,
0.627,0.16,0.00,0.83,1.61,-1.91,-0.91,
0.627,0.16,0.00,0.83,1.75,-1.88,-1.05,
0.628,0.18,-0.00,0.82,1.75,-1.88,-1.05,
0.628,0.18,-0.00,0.81,1.75,-1.88,-1.05,
0.628,0.18,-0.00,0.81,1.93,-1.81,-1.24,
0.628,0.19,0.00,0.80,1.93,-1.81,-1.24,
0.628,0.20,0.00,0.80,1.93,-1.81,-1.24,
0.629,0.20,0.00,0.80,2.17,-1.84,-1.40,
0.631,0.21,0.00,0.79,2.17,-1.84,-1.40,
0.641,0.21,0.01,0.79,2.17,-1.84,-1.40,
0.641,0.21,0.01,0.79,2.31,-1.78,-1.57,
0.642,0.21,0.01,0.79,2.31,-1.78,-1.57,
0.642,0.22,0.01,0.79,2.31,-1.78,-1.57,
0.642,0.22,0.01,0.79,2.41,-1.77,-1.65,
0.642,0.22,0.01,0.79,2.41,-1.77,-1.65,
0.644,0.22,0.01,0.80,2.41,-1.77,-1.65,
0.644,0.22,0.01,0.80,2.47,-1.76,-1.64,
0.646,0.22,0.01,0.80,2.47,-1.76,-1.64,
0.648,0.22,0.02,0.81,2.47,-1.76,-1.64,
0.658,0.22,0.02,0.81,2.49,-1.72,-1.59,
0.659,0.23,0.01,0.81,2.49,-1.72,-1.59,
0.659,0.23,0.01,0.82,2.49,-1.72,-1.59,
0.661,0.23,0.01,0.82,2.50,-1.72,-1.51,
0.661,0.23,0.01,0.83,2.50,-1.72,-1.51,
0.661,0.24,0.01,0.83,2.50,-1.72,-1.51,
0.662,0.24,0.01,0.83,2.52,-1.74,-1.36,
0.662,0.24,0.01,0.84,2.52,-1.74,-1.36,
0.663,0.25,0.01,0.85,2.52,-1.74,-1.36,
0.663,0.25,0.01,0.85,2.57,-1.76,-1.24,
0.665,0.26,0.01,0.86,2.57,-1.76,-1.24,
0.673,0.27,0.01,0.86,2.57,-1.76,-1.24,
0.673,0.27,0.01,0.86,2.61,-1.75,-1.10,
0.674,0.27,0.01,0.87,2.61,-1.75,-1.10,
0.674,0.28,0.01,0.88,2.61,-1.75,-1.10,
0.674,0.28,0.01,0.88,2.76,-1.77,-0.94,
0.675,0.29,0.01,0.89,2.76,-1.77,-0.94,
0.677,0.30,0.02,0.90,2.76,-1.77,-0.94,
0.678,0.30,0.02,0.90,2.90,-1.72,-0.83,
0.68,0.31,0.03,0.91,2.90,-1.72,-0.83,
0.688,0.32,0.03,0.92,2.90,-1.72,-0.83,
0.689,0.32,0.03,0.92,3.01,-1.67,-0.62,
0.689,0.32,0.04,0.92,3.01,-1.67,-0.62,
0.689,0.34,0.05,0.93,3.01,-1.67,-0.62,
0.689,0.34,0.05,0.93,3.19,-1.49,-0.41,
0.69,0.34,0.05,0.94,3.19,-1.49,-0.41,
0.692,0.35,0.06,0.95,3.19,-1.49,-0.41,
0.693,0.35,0.06,0.95,3.32,-1.34,-0.31,
0.696,0.36,0.07,0.95,3.32,-1.34,-0.31,
0.697,0.37,0.08,0.96,3.32,-1.34,-0.31,
0.698,0.37,0.08,0.96,3.47,-1.17,-0.12,
0.7,0.37,0.08,0.96,3.47,-1.17,-0.12,
0.706,0.38,0.09,0.97,3.47,-1.17,-0.12,
0.707,0.38,0.09,0.97,3.58,-0.98,-0.04,
0.707,0.38,0.10,0.98,3.58,-0.98,-0.04,
0.707,0.39,0.10,0.99,3.58,-0.98,-0.04,
0.708,0.39,0.10,0.99,3.69,-0.83,0.06,
0.71,0.40,0.11,1.00,3.69,-0.83,0.06,
0.712,0.40,0.12,1.00,3.69,-0.83,0.06,
0.713,0.40,0.12,1.00,3.76,-0.70,0.23,
0.715,0.40,0.12,1.02,3.76,-0.70,0.23,
0.726,0.40,0.13,1.03,3.76,-0.70,0.23,
0.727,0.40,0.13,1.03,3.86,-0.53,0.41,
0.727,0.41,0.14,1.04,3.86,-0.53,0.41,
0.728,0.41,0.14,1.05,3.86,-0.53,0.41,
0.728,0.41,0.14,1.05,3.87,-0.36,0.60,
0.728,0.41,0.14,1.06,3.87,-0.36,0.60,
0.728,0.40,0.15,1.07,3.87,-0.36,0.60,
0.729,0.40,0.15,1.07,3.89,-0.21,0.81,
0.729,0.40,0.15,1.08,3.89,-0.21,0.81,
0.732,0.40,0.15,1.08,3.89,-0.21,0.81,
0.732,0.40,0.15,1.08,3.85,-0.09,0.99,
0.741,0.40,0.16,1.09,3.85,-0.09,0.99,
0.741,0.39,0.15,1.10,3.85,-0.09,0.99,
0.742,0.39,0.15,1.10,3.78,0.00,1.18,
0.742,0.39,0.15,1.10,3.78,0.00,1.18,
0.742,0.38,0.16,1.11,3.78,0.00,1.18,
0.742,0.38,0.16,1.11,3.72,0.05,1.30,
0.744,0.38,0.15,1.12,3.72,0.05,1.30,
0.748,0.38,0.15,1.12,3.72,0.05,1.30,
0.748,0.38,0.15,1.12,3.59,0.07,1.41,
0.759,0.37,0.15,1.12,3.59,0.07,1.41,
0.76,0.37,0.14,1.12,3.59,0.07,1.41,
0.76,0.37,0.14,1.12,3.53,0.04,1.51,
0.76,0.37,0.14,1.12,3.53,0.04,1.51,
0.76,0.36,0.14,1.11,3.53,0.04,1.51,
0.761,0.36,0.14,1.11,3.40,0.03,1.56,
0.761,0.35,0.14,1.11,3.40,0.03,1.56,
0.762,0.35,0.13,1.11,3.40,0.03,1.56,
0.762,0.35,0.13,1.11,3.31,-0.04,1.46,
0.764,0.35,0.12,1.10,3.31,-0.04,1.46,
0.773,0.35,0.13,1.09,3.31,-0.04,1.46,
0.773,0.35,0.13,1.09,3.23,-0.07,1.37,
0.774,0.34,0.13,1.08,3.23,-0.07,1.37,
0.774,0.35,0.13,1.06,3.23,-0.07,1.37,
0.774,0.35,0.13,1.06,3.19,-0.13,1.24,
0.774,0.35,0.13,1.05,3.19,-0.13,1.24,
0.777,0.35,0.12,1.05,3.19,-0.13,1.24,
0.777,0.35,0.12,1.05,3.13,-0.10,1.01,
0.779,0.35,0.13,1.04,3.13,-0.10,1.01,
0.782,0.35,0.12,1.03,3.13,-0.10,1.01,
0.783,0.35,0.12,1.03,3.13,-0.11,0.82,
0.789,0.35,0.12,1.03,3.13,-0.11,0.82,
0.789,0.35,0.12,1.02,3.13,-0.11,0.82,
0.789,0.35,0.12,1.02,3.11,-0.11,0.66,
0.79,0.36,0.12,1.01,3.11,-0.11,0.66,
0.791,0.36,0.11,1.01,3.11,-0.11,0.66,
0.792,0.36,0.11,1.01,3.13,-0.15,0.52,
0.794,0.36,0.11,1.01,3.13,-0.15,0.52,
0.797,0.37,0.11,1.00,3.13,-0.15,0.52,
0.798,0.37,0.11,1.00,3.17,-0.18,0.42,
0.799,0.37,0.11,1.00,3.17,-0.18,0.42,
0.805,0.37,0.11,1.00,3.17,-0.18,0.42,
0.805,0.37,0.11,1.00,3.24,-0.22,0.32,
0.806,0.37,0.10,1.00,3.24,-0.22,0.32,
0.806,0.37,0.10,1.01,3.24,-0.22,0.32,
0.807,0.37,0.10,1.01,3.27,-0.21,0.32,
0.809,0.37,0.10,1.02,3.27,-0.21,0.32,
0.811,0.37,0.10,1.02,3.27,-0.21,0.32,
0.812,0.37,0.10,1.02,3.27,-0.27,0.34,
0.814,0.38,0.09,1.02,3.27,-0.27,0.34,
0.817,0.38,0.09,1.02,3.24,-0.30,0.45,
0.817,0.37,0.10,1.02,3.24,-0.30,0.45,
0.821,0.37,0.10,1.03,3.24,-0.30,0.45,
0.828,0.37,0.10,1.03,3.21,-0.30,0.46,
0.829,0.37,0.10,1.03,3.21,-0.30,0.46,
0.83,0.37,0.09,1.03,3.21,-0.30,0.46,
0.83,0.37,0.10,1.03,3.21,-0.30,0.46,
0.83,0.37,0.10,1.03,3.16,-0.26,0.56,
0.831,0.37,0.10,1.04,3.16,-0.26,0.56,
0.832,0.37,0.10,1.04,3.16,-0.26,0.56,
0.832,0.37,0.10,1.04,3.15,-0.26,0.56,
0.848,0.37,0.10,1.04,3.15,-0.26,0.56,
0.848,0.38,0.10,1.04,3.15,-0.26,0.56,
0.848,0.38,0.10,1.04,3.16,-0.22,0.65,
0.849,0.38,0.11,1.04,3.16,-0.22,0.65,
0.849,0.37,0.11,1.04,3.16,-0.22,0.65,
0.849,0.37,0.11,1.04,3.16,-0.18,0.64,
0.849,0.38,0.11,1.04,3.16,-0.18,0.64,
0.849,0.37,0.12,1.04,3.16,-0.18,0.64,
0.849,0.37,0.12,1.04,3.14,-0.06,0.68,
0.849,0.38,0.12,1.04,3.14,-0.06,0.68,
0.857,0.38,0.12,1.03,3.14,-0.06,0.68,
0.858,0.38,0.12,1.03,3.13,0.02,0.68,
0.858,0.38,0.12,1.03,3.13,0.02,0.68,
0.858,0.38,0.13,1.02,3.13,0.02,0.68,
0.858,0.38,0.13,1.02,3.16,0.10,0.60,
0.859,0.38,0.13,1.02,3.16,0.10,0.60,
0.862,0.38,0.13,1.01,3.16,0.10,0.60,
0.862,0.38,0.13,1.01,3.20,0.15,0.50,
0.864,0.38,0.13,1.01,3.20,0.15,0.50,
0.866,0.38,0.14,1.01,3.20,0.15,0.50,
0.867,0.38,0.14,1.01,3.19,0.19,0.41,
0.875,0.37,0.13,1.00,3.19,0.19,0.41,
0.876,0.38,0.13,0.99,3.19,0.19,0.41,
0.876,0.38,0.13,0.99,3.18,0.28,0.31,
0.877,0.38,0.13,0.98,3.18,0.28,0.31,
0.877,0.37,0.13,0.97,3.18,0.28,0.31,
0.877,0.37,0.13,0.97,3.13,0.28,0.18,
0.879,0.37,0.13,0.97,3.13,0.28,0.18,
0.881,0.37,0.12,0.96,3.13,0.28,0.18,
0.881,0.37,0.12,0.96,3.13,0.28,0.03,
0.884,0.36,0.12,0.96,3.13,0.28,0.03,
0.891,0.36,0.12,0.95,3.13,0.28,0.03,
0.892,0.36,0.12,0.95,3.06,0.25,-0.11,
0.892,0.36,0.11,0.95,3.06,0.25,-0.11,
0.892,0.36,0.11,0.95,3.06,0.25,-0.11,
0.893,0.36,0.11,0.95,3.01,0.22,-0.20,
0.893,0.35,0.11,0.95,3.01,0.22,-0.20,
0.896,0.35,0.11,0.95,2.97,0.18,-0.26,
0.896,0.34,0.11,0.94,2.97,0.18,-0.26,
0.899,0.34,0.11,0.94,2.97,0.18,-0.26,
0.901,0.34,0.11,0.95,2.97,0.18,-0.26,
0.901,0.34,0.11,0.95,2.88,0.19,-0.29,
0.907,0.34,0.11,0.95,2.88,0.19,-0.29,
0.907,0.33,0.11,0.95,2.88,0.19,-0.29,
0.908,0.33,0.11,0.95,2.77,0.16,-0.31,
0.908,0.32,0.11,0.96,2.77,0.16,-0.31,
0.911,0.32,0.11,0.96,2.77,0.16,-0.31,
0.911,0.32,0.11,0.96,2.72,0.19,-0.25,
0.914,0.31,0.11,0.97,2.72,0.19,-0.25,
0.916,0.31,0.11,0.97,2.72,0.19,-0.25,
0.916,0.31,0.11,0.97,2.60,0.24,-0.20,
0.922,0.30,0.11,0.98,2.60,0.24,-0.20,
0.923,0.30,0.11,0.98,2.60,0.24,-0.20,
0.923,0.30,0.11,0.98,2.48,0.24,-0.08,
0.923,0.29,0.11,0.99,2.48,0.24,-0.08,
0.926,0.29,0.11,1.00,2.48,0.24,-0.08,
0.926,0.29,0.11,1.00,2.36,0.29,0.03,
0.928,0.28,0.11,1.00,2.36,0.29,0.03,
0.931,0.28,0.11,1.01,2.36,0.29,0.03,
0.931,0.28,0.11,1.01,2.28,0.30,0.19,
0.933,0.28,0.10,1.01,2.28,0.30,0.19,
0.943,0.28,0.10,1.02,2.28,0.30,0.19,
0.944,0.28,0.10,1.02,2.21,0.33,0.28,
0.944,0.28,0.10,1.02,2.21,0.33,0.28,
0.944,0.28,0.09,1.02,2.21,0.33,0.28,
0.945,0.28,0.09,1.02,2.14,0.30,0.35,
0.945,0.29,0.09,1.01,2.14,0.30,0.35,
0.945,0.29,0.09,1.01,2.18,0.27,0.39,
0.945,0.29,0.09,1.01,2.18,0.27,0.39,
0.948,0.30,0.08,1.01,2.18,0.27,0.39,
0.951,0.29,0.08,1.01,2.18,0.27,0.39,
0.951,0.29,0.08,1.01,2.24,0.22,0.35,
0.958,0.30,0.07,1.00,2.24,0.22,0.35,
0.958,0.31,0.07,1.00,2.24,0.22,0.35,
0.959,0.31,0.07,1.00,2.28,0.15,0.29,
0.959,0.30,0.07,0.99,2.28,0.15,0.29,
0.96,0.31,0.06,0.99,2.28,0.15,0.29,
0.961,0.31,0.06,0.99,2.37,0.09,0.22,
0.963,0.31,0.06,0.99,2.37,0.09,0.22,
0.965,0.31,0.06,0.98,2.37,0.09,0.22,
0.966,0.31,0.06,0.98,2.37,0.04,0.12,
0.968,0.30,0.05,0.98,2.37,0.04,0.12,
0.977,0.30,0.05,0.98,2.37,0.04,0.12,
0.977,0.30,0.05,0.98,2.38,0.04,0.06,
0.978,0.30,0.05,0.98,2.38,0.04,0.06,
0.978,0.29,0.06,0.98,2.38,0.04,0.06,
0.978,0.29,0.06,0.98,2.33,-0.01,-0.00,
0.978,0.29,0.06,0.98,2.33,-0.01,-0.00,
0.979,0.27,0.06,0.98,2.33,-0.01,-0.00,
0.98,0.27,0.06,0.98,2.23,0.02,0.02,
0.983,0.27,0.07,0.98,2.23,0.02,0.02,
0.985,0.26,0.07,0.98,2.23,0.02,0.02,
0.99,0.26,0.07,0.98,2.10,0.10,0.03,
0.991,0.26,0.07,0.98,2.10,0.10,0.03,
0.991,0.25,0.07,0.98,2.10,0.10,0.03,
0.992,0.25,0.07,0.98,1.97,0.19,0.05,
0.992,0.25,0.08,0.98,1.97,0.19,0.05,
0.994,0.25,0.07,0.98,1.97,0.19,0.05,
0.995,0.25,0.07,0.98,1.88,0.25,0.03,
0.997,0.25,0.07,0.98,1.88,0.25,0.03,
1.0,0.25,0.07,0.99,1.88,0.25,0.03,
1.007,0.25,0.07,0.99,1.80,0.32,0.04,
1.008,0.24,0.06,0.99,1.80,0.32,0.04,
1.008,0.25,0.07,0.99,1.80,0.32,0.04,
1.008,0.25,0.07,0.99,1.79,0.30,0.05,
1.009,0.24,0.06,0.99,1.79,0.30,0.05,
1.009,0.25,0.06,0.99,1.79,0.30,0.05,
1.009,0.25,0.06,0.99,1.76,0.29,0.08,
1.012,0.25,0.06,1.00,1.76,0.29,0.08,
1.014,0.25,0.05,1.00,1.76,0.29,0.08,
1.015,0.25,0.05,1.00,1.74,0.27,0.09,
1.017,0.25,0.05,1.00,1.74,0.27,0.09,
1.023,0.25,0.05,1.00,1.79,0.24,0.16,
1.024,0.25,0.05,1.00,1.79,0.24,0.16,
1.024,0.26,0.04,1.01,1.79,0.24,0.16,
1.025,0.27,0.03,1.01,1.79,0.24,0.16,
1.025,0.27,0.03,1.01,1.84,0.21,0.23,
1.027,0.27,0.03,1.01,1.84,0.21,0.23,
1.029,0.28,0.03,1.01,1.84,0.21,0.23,
1.029,0.28,0.03,1.01,1.93,0.15,0.25,
1.031,0.28,0.03,1.02,1.93,0.15,0.25,
1.041,0.28,0.02,1.02,1.93,0.15,0.25,
1.041,0.28,0.02,1.02,2.02,0.08,0.29,
1.042,0.28,0.03,1.03,2.02,0.08,0.29,
1.042,0.28,0.03,1.03,2.02,0.08,0.29,
1.042,0.28,0.03,1.03,2.08,0.08,0.36,
1.042,0.27,0.03,1.03,2.08,0.08,0.36,
1.044,0.27,0.03,1.03,2.06,0.12,0.47,
1.044,0.28,0.03,1.03,2.06,0.12,0.47,
1.046,0.27,0.03,1.04,2.06,0.12,0.47,
1.049,0.27,0.03,1.04,2.06,0.12,0.47,
1.049,0.27,0.03,1.04,1.99,0.16,0.48,
1.062,0.27,0.03,1.05,1.99,0.16,0.48,
1.063,0.27,0.04,1.05,1.99,0.16,0.48,
1.063,0.27,0.04,1.05,1.96,0.20,0.54,
1.064,0.27,0.03,1.05,1.96,0.20,0.54,
1.064,0.26,0.03,1.06,1.96,0.20,0.54,
1.064,0.26,0.03,1.06,1.91,0.28,0.63,
1.064,0.26,0.03,1.06,1.91,0.28,0.63,
1.065,0.26,0.03,1.06,1.91,0.28,0.63,
1.065,0.26,0.03,1.06,1.88,0.26,0.71,
1.066,0.26,0.04,1.06,1.88,0.26,0.71,
1.076,0.26,0.04,1.07,1.88,0.26,0.71,
1.076,0.26,0.04,1.07,1.86,0.31,0.75,
1.077,0.27,0.04,1.07,1.86,0.31,0.75,
1.077,0.26,0.04,1.06,1.86,0.31,0.75,
1.077,0.26,0.04,1.06,1.81,0.39,0.80,
1.077,0.27,0.04,1.06,1.81,0.39,0.80,
1.079,0.26,0.03,1.06,1.81,0.39,0.80,
1.079,0.26,0.03,1.06,1.85,0.38,0.80,
1.081,0.26,0.03,1.06,1.85,0.38,0.80,
1.083,0.26,0.03,1.06,1.85,0.38,0.80,
1.084,0.26,0.03,1.06,1.84,0.38,0.78,
1.093,0.26,0.03,1.06,1.84,0.38,0.78,
1.094,0.26,0.03,1.05,1.84,0.38,0.78,
1.094,0.26,0.03,1.05,1.81,0.35,0.74,
1.095,0.27,0.03,1.05,1.81,0.35,0.74,
1.095,0.27,0.03,1.05,1.81,0.34,0.69,
1.095,0.26,0.02,1.05,1.81,0.34,0.69,
1.096,0.27,0.02,1.04,1.81,0.34,0.69,
1.098,0.27,0.02,1.04,1.81,0.34,0.69,
1.098,0.27,0.02,1.04,1.83,0.30,0.62,
1.101,0.27,0.01,1.03,1.83,0.30,0.62,
1.108,0.27,0.01,1.03,1.83,0.30,0.62,
1.109,0.27,0.01,1.03,1.85,0.27,0.57,
1.109,0.27,0.01,1.02,1.85,0.27,0.57,
1.109,0.26,0.00,1.03,1.85,0.27,0.57,
1.11,0.26,0.00,1.03,1.86,0.23,0.45,
1.111,0.26,-0.00,1.02,1.86,0.23,0.45,
1.113,0.26,-0.00,1.02,1.86,0.23,0.45,
1.113,0.26,-0.00,1.02,1.82,0.17,0.41,
1.116,0.26,-0.01,1.02,1.82,0.17,0.41,
1.124,0.26,-0.01,1.02,1.82,0.17,0.41,
1.125,0.26,-0.01,1.02,1.78,0.11,0.37,
1.125,0.26,-0.02,1.02,1.78,0.11,0.37,
1.125,0.25,-0.02,1.02,1.78,0.11,0.37,
1.125,0.25,-0.02,1.02,1.75,0.02,0.32,
1.126,0.24,-0.03,1.02,1.75,0.02,0.32,
1.128,0.24,-0.04,1.03,1.75,0.02,0.32,
1.128,0.24,-0.04,1.03,1.70,-0.05,0.35,
1.131,0.23,-0.03,1.03,1.70,-0.05,0.35,
1.133,0.23,-0.03,1.02,1.70,-0.05,0.35,
1.133,0.23,-0.03,1.02,1.56,-0.13,0.40,
1.14,0.22,-0.03,1.02,1.56,-0.13,0.40,
1.141,0.21,-0.04,1.03,1.56,-0.13,0.40,
1.141,0.21,-0.04,1.03,1.44,-0.13,0.39,
1.141,0.20,-0.04,1.03,1.44,-0.13,0.39,
1.144,0.19,-0.04,1.03,1.44,-0.13,0.39,
1.144,0.19,-0.04,1.03,1.27,-0.14,0.40,
1.145,0.19,-0.04,1.03,1.27,-0.14,0.40,
1.148,0.18,-0.03,1.04,1.27,-0.14,0.40,
1.151,0.18,-0.03,1.04,1.11,-0.12,0.47,
1.151,0.18,-0.04,1.04,1.11,-0.12,0.47,
1.157,0.18,-0.04,1.03,1.11,-0.12,0.47,
1.158,0.18,-0.04,1.03,0.98,-0.10,0.50,
1.158,0.18,-0.04,1.04,0.98,-0.10,0.50,
1.158,0.17,-0.04,1.04,0.98,-0.10,0.50,
1.159,0.17,-0.04,1.04,0.96,-0.11,0.52,
1.162,0.17,-0.04,1.04,0.96,-0.11,0.52,
1.163,0.17,-0.04,1.04,0.96,-0.11,0.52,
1.163,0.17,-0.04,1.04,0.90,-0.11,0.51,
1.165,0.17,-0.04,1.04,0.90,-0.11,0.51,
1.168,0.17,-0.04,1.04,0.90,-0.11,0.51,
1.168,0.17,-0.04,1.04,0.86,-0.11,0.51,
1.177,0.17,-0.04,1.04,0.86,-0.11,0.51,
1.178,0.17,-0.05,1.04,0.86,-0.11,0.51,
1.179,0.17,-0.05,1.04,0.81,-0.10,0.50,
1.179,0.16,-0.05,1.03,0.81,-0.10,0.50,
1.179,0.16,-0.05,1.03,0.81,-0.10,0.50,
1.18,0.16,-0.05,1.03,0.78,-0.15,0.53,
1.182,0.16,-0.06,1.03,0.78,-0.15,0.53,
1.183,0.16,-0.06,1.02,0.78,-0.15,0.53,
1.183,0.16,-0.06,1.02,0.73,-0.16,0.43,
1.191,0.16,-0.07,1.02,0.73,-0.16,0.43,
1.191,0.16,-0.07,1.02,0.73,-0.16,0.43,
1.191,0.16,-0.07,1.02,0.72,-0.28,0.40,
1.191,0.16,-0.08,1.01,0.72,-0.28,0.40,
1.193,0.15,-0.08,1.01,0.72,-0.28,0.40,
1.194,0.15,-0.08,1.01,0.69,-0.33,0.35,
1.195,0.15,-0.09,1.01,0.69,-0.33,0.35,
1.199,0.15,-0.10,1.01,0.69,-0.33,0.35,
1.199,0.15,-0.10,1.01,0.66,-0.45,0.28,
1.2,0.14,-0.11,1.01,0.66,-0.45,0.28,
1.209,0.14,-0.11,1.00,0.66,-0.45,0.28,
1.209,0.14,-0.11,1.00,0.60,-0.57,0.25,
1.209,0.14,-0.12,1.00,0.60,-0.57,0.25,
1.21,0.13,-0.12,1.00,0.60,-0.57,0.25,
1.21,0.13,-0.12,1.00,0.48,-0.69,0.18,
1.21,0.12,-0.13,1.01,0.48,-0.69,0.18,
1.213,0.11,-0.14,1.01,0.48,-0.69,0.18,
1.213,0.11,-0.14,1.01,0.40,-0.81,0.19,
1.215,0.10,-0.14,1.01,0.40,-0.81,0.19,
1.218,0.08,-0.15,1.02,0.40,-0.81,0.19,
1.218,0.08,-0.15,1.02,0.20,-0.90,0.24,
1.225,0.07,-0.15,1.03,0.20,-0.90,0.24,
1.226,0.06,-0.16,1.03,0.20,-0.90,0.24,
1.226,0.06,-0.16,1.03,-0.02,-1.00,0.30,
1.226,0.05,-0.16,1.04,-0.02,-1.00,0.30,
1.227,0.04,-0.17,1.04,-0.02,-1.00,0.30,
1.227,0.04,-0.17,1.04,-0.27,-1.08,0.45,
1.23,0.04,-0.17,1.05,-0.27,-1.08,0.45,
1.233,0.03,-0.17,1.05,-0.27,-1.08,0.45,
1.233,0.03,-0.17,1.05,-0.45,-1.17,0.54,
1.235,0.03,-0.18,1.06,-0.45,-1.17,0.54,
1.241,0.02,-0.18,1.07,-0.45,-1.17,0.54,
1.242,0.02,-0.18,1.07,-0.60,-1.24,0.67,
1.242,0.01,-0.19,1.07,-0.60,-1.24,0.67,
1.242,0.01,-0.19,1.07,-0.60,-1.24,0.67,
1.242,0.01,-0.19,1.07,-0.72,-1.33,0.75,
1.245,-0.00,-0.18,1.07,-0.72,-1.33,0.75,
1.248,-0.00,-0.19,1.07,-0.72,-1.33,0.75,
1.248,-0.00,-0.19,1.07,-0.85,-1.36,0.85,
1.25,-0.01,-0.18,1.07,-0.85,-1.36,0.85,
1.259,-0.01,-0.18,1.07,-0.85,-1.36,0.85,
1.259,-0.01,-0.18,1.07,-0.99,-1.32,0.85,
1.26,-0.00,-0.18,1.06,-0.99,-1.32,0.85,
1.26,-0.00,-0.18,1.05,-0.99,-1.32,0.85,
1.26,-0.00,-0.18,1.05,-1.03,-1.29,0.82,
1.26,-0.00,-0.17,1.05,-1.03,-1.29,0.82,
1.262,0.00,-0.18,1.04,-1.03,-1.29,0.82,
1.263,0.00,-0.18,1.04,-1.03,-1.26,0.68,
1.265,0.01,-0.17,1.04,-1.03,-1.26,0.68,
1.267,0.01,-0.17,1.03,-1.03,-1.26,0.68,
1.268,0.01,-0.17,1.03,-1.02,-1.24,0.59,
1.281,0.01,-0.17,1.02,-1.02,-1.24,0.59,
1.281,0.02,-0.16,1.02,-1.02,-1.24,0.59,
1.281,0.02,-0.16,1.02,-0.93,-1.22,0.50,
1.282,0.02,-0.16,1.01,-0.93,-1.22,0.50,
1.282,0.02,-0.16,1.01,-0.93,-1.22,0.50,
1.282,0.02,-0.16,1.01,-0.92,-1.16,0.35,
1.282,0.03,-0.15,0.99,-0.92,-1.16,0.35,
1.283,0.03,-0.15,0.99,-0.92,-1.16,0.35,
1.283,0.03,-0.15,0.99,-0.86,-1.13,0.25,
1.285,0.03,-0.16,0.99,-0.86,-1.13,0.25,
1.293,0.03,-0.16,0.98,-0.86,-1.13,0.25,
1.293,0.03,-0.16,0.98,-0.79,-1.06,0.07,
1.294,0.03,-0.16,0.98,-0.79,-1.06,0.07,
1.294,0.03,-0.15,0.98,-0.79,-1.06,0.07,
1.294,0.03,-0.15,0.98,-0.77,-1.15,0.01,
1.294,0.03,-0.15,0.98,-0.77,-1.15,0.01,
1.298,0.02,-0.15,0.98,-0.77,-1.15,0.01,
1.298,0.02,-0.15,0.98,-0.80,-1.13,-0.07,
1.3,0.02,-0.15,0.98,-0.80,-1.13,-0.07,
1.313,0.01,-0.15,0.98,-0.80,-1.13,-0.07,
1.314,0.01,-0.15,0.98,-0.89,-1.07,-0.07,
1.314,0.00,-0.15,0.98,-0.89,-1.07,-0.07,
1.315,-0.01,-0.14,0.98,-0.89,-1.07,-0.07,
1.315,-0.01,-0.14,0.98,-1.01,-1.06,-0.06,
1.315,-0.02,-0.14,0.99,-1.01,-1.06,-0.06,
1.316,-0.03,-0.14,0.99,-1.01,-1.06,-0.06,
1.316,-0.03,-0.14,0.99,-1.16,-1.02,-0.05,
1.319,-0.04,-0.14,1.00,-1.16,-1.02,-0.05,
1.319,-0.04,-0.14,1.00,-1.36,-1.02,0.05,
1.319,-0.05,-0.15,1.01,-1.36,-1.02,0.05,
1.326,-0.06,-0.14,1.01,-1.36,-1.02,0.05,
1.327,-0.07,-0.14,1.00,-1.36,-1.02,0.05,
1.327,-0.07,-0.14,1.00,-1.63,-1.03,0.16,
1.327,-0.08,-0.15,1.01,-1.63,-1.03,0.16,
1.327,-0.09,-0.15,1.02,-1.63,-1.03,0.16,
1.328,-0.09,-0.15,1.02,-1.83,-0.99,0.20,
1.329,-0.09,-0.16,1.01,-1.83,-0.99,0.20,
1.331,-0.09,-0.16,1.01,-1.99,-1.09,0.28,
1.331,-0.10,-0.17,1.01,-1.99,-1.09,0.28,
1.333,-0.10,-0.17,1.03,-1.99,-1.09,0.28,
1.337,-0.10,-0.17,1.03,-1.99,-1.09,0.28,
1.337,-0.10,-0.17,1.03,-2.11,-1.21,0.29,
1.342,-0.10,-0.18,1.03,-2.11,-1.21,0.29,
1.343,-0.10,-0.18,1.05,-2.11,-1.21,0.29,
1.343,-0.10,-0.18,1.05,-2.18,-1.30,0.46,
1.345,-0.10,-0.19,1.05,-2.18,-1.30,0.46,
1.346,-0.10,-0.18,1.06,-2.18,-1.30,0.46,
1.346,-0.10,-0.18,1.06,-2.20,-1.38,0.58,
1.348,-0.10,-0.19,1.06,-2.20,-1.38,0.58,
1.352,-0.10,-0.19,1.07,-2.20,-1.38,0.58,
1.352,-0.10,-0.19,1.07,-2.26,-1.43,0.72,
1.358,-0.10,-0.20,1.07,-2.26,-1.43,0.72,
1.359,-0.10,-0.20,1.06,-2.26,-1.43,0.72,
1.359,-0.10,-0.20,1.06,-2.28,-1.47,0.79,
1.361,-0.11,-0.20,1.06,-2.28,-1.47,0.79,
1.361,-0.11,-0.20,1.07,-2.28,-1.47,0.79,
1.361,-0.11,-0.20,1.07,-2.31,-1.58,0.83,
1.363,-0.12,-0.20,1.07,-2.31,-1.58,0.83,
1.366,-0.12,-0.20,1.07,-2.39,-1.64,0.82,
1.366,-0.12,-0.20,1.06,-2.39,-1.64,0.82,
1.368,-0.12,-0.19,1.05,-2.39,-1.64,0.82,
1.378,-0.12,-0.19,1.06,-2.39,-1.64,0.82,
1.379,-0.12,-0.19,1.06,-2.49,-1.60,0.80,
1.379,-0.13,-0.18,1.04,-2.49,-1.60,0.80,
1.379,-0.13,-0.17,1.04,-2.49,-1.60,0.80,
1.379,-0.13,-0.17,1.04,-2.56,-1.55,0.71,
1.379,-0.13,-0.17,1.03,-2.56,-1.55,0.71,
1.381,-0.14,-0.16,1.02,-2.56,-1.55,0.71,
1.381,-0.14,-0.16,1.02,-2.67,-1.44,0.58,
1.383,-0.14,-0.15,1.01,-2.67,-1.44,0.58,
1.399,-0.15,-0.14,0.99,-2.67,-1.44,0.58,
1.4,-0.15,-0.14,0.99,-2.74,-1.32,0.44,
1.401,-0.16,-0.14,0.99,-2.74,-1.32,0.44,
1.401,-0.16,-0.14,0.98,-2.74,-1.32,0.44,
1.401,-0.16,-0.14,0.98,-2.84,-1.18,0.19,
1.402,-0.16,-0.13,0.96,-2.84,-1.18,0.19,
1.402,-0.16,-0.13,0.95,-2.84,-1.18,0.19,
1.402,-0.16,-0.13,0.95,-2.96,-1.09,0.03,
1.403,-0.17,-0.13,0.95,-2.96,-1.09,0.03,
1.403,-0.17,-0.13,0.94,-2.96,-1.09,0.03,
1.403,-0.17,-0.13,0.94,-2.97,-1.04,-0.23,
1.404,-0.18,-0.13,0.93,-2.97,-1.04,-0.23,
1.412,-0.18,-0.13,0.93,-2.97,-1.04,-0.23,
1.413,-0.18,-0.13,0.93,-3.09,-1.02,-0.34,
1.413,-0.19,-0.12,0.92,-3.09,-1.02,-0.34,
1.413,-0.18,-0.12,0.92,-3.09,-1.02,-0.34,
1.413,-0.18,-0.12,0.92,-3.19,-1.02,-0.49,
1.413,-0.19,-0.12,0.91,-3.19,-1.02,-0.49,
1.415,-0.19,-0.12,0.91,-3.24,-0.95,-0.61,
1.416,-0.19,-0.12,0.91,-3.24,-0.95,-0.61,
1.418,-0.19,-0.12,0.91,-3.24,-0.95,-0.61,
1.429,-0.19,-0.12,0.91,-3.24,-0.95,-0.61,
1.43,-0.19,-0.12,0.91,-3.28,-0.95,-0.68,
1.43,-0.20,-0.12,0.91,-3.28,-0.95,-0.68,
1.431,-0.20,-0.12,0.91,-3.28,-0.95,-0.68,
1.431,-0.20,-0.12,0.91,-3.30,-0.92,-0.72,
1.431,-0.19,-0.11,0.91,-3.30,-0.92,-0.72,
1.431,-0.20,-0.11,0.92,-3.30,-0.92,-0.72,
1.432,-0.20,-0.11,0.92,-3.36,-0.91,-0.68,
1.432,-0.20,-0.11,0.92,-3.36,-0.91,-0.68,
1.435,-0.20,-0.11,0.93,-3.36,-0.91,-0.68,
1.435,-0.20,-0.11,0.93,-3.37,-0.83,-0.61,
1.442,-0.21,-0.11,0.93,-3.37,-0.83,-0.61,
1.443,-0.20,-0.12,0.94,-3.37,-0.83,-0.61,
1.443,-0.20,-0.12,0.94,-3.43,-0.84,-0.52,
1.443,-0.20,-0.12,0.95,-3.43,-0.84,-0.52,
1.445,-0.20,-0.11,0.95,-3.43,-0.84,-0.52,
1.445,-0.20,-0.11,0.95,-3.47,-0.87,-0.41,
1.448,-0.19,-0.12,0.96,-3.47,-0.87,-0.41,
1.45,-0.19,-0.13,0.96,-3.47,-0.87,-0.41,
1.45,-0.19,-0.13,0.96,-3.46,-0.86,-0.26,
1.452,-0.19,-0.13,0.97,-3.46,-0.86,-0.26,
1.458,-0.18,-0.13,0.97,-3.46,-0.86,-0.26,
1.459,-0.18,-0.13,0.97,-3.40,-0.93,-0.15,
1.459,-0.18,-0.14,0.98,-3.40,-0.93,-0.15,
1.46,-0.18,-0.14,0.98,-3.40,-0.93,-0.15,
1.46,-0.18,-0.14,0.98,-3.35,-0.97,-0.04,
1.462,-0.18,-0.15,0.98,-3.35,-0.97,-0.04,
1.465,-0.18,-0.15,0.98,-3.35,-0.97,-0.04,
1.465,-0.18,-0.15,0.98,-3.28,-1.10,0.02,
1.467,-0.18,-0.15,0.98,-3.28,-1.10,0.02,
1.476,-0.19,-0.15,0.98,-3.28,-1.10,0.02,
1.476,-0.19,-0.15,0.98,-3.27,-1.16,0.05,
1.477,-0.19,-0.16,0.98,-3.27,-1.16,0.05,
1.477,-0.20,-0.15,0.98,-3.27,-1.16,0.05,
1.477,-0.20,-0.15,0.98,-3.34,-1.17,0.07,
1.477,-0.20,-0.16,0.97,-3.34,-1.17,0.07,
1.481,-0.21,-0.15,0.98,-3.34,-1.17,0.07,
1.481,-0.21,-0.15,0.98,-3.46,-1.20,0.07,
1.482,-0.21,-0.15,0.97,-3.46,-1.20,0.07,
1.485,-0.22,-0.15,0.97,-3.46,-1.20,0.07,
1.485,-0.22,-0.15,0.97,-3.57,-1.16,-0.01,
1.496,-0.23,-0.15,0.96,-3.57,-1.16,-0.01,
1.496,-0.23,-0.16,0.97,-3.57,-1.16,-0.01,
1.496,-0.23,-0.16,0.97,-3.67,-1.12,-0.05,
1.496,-0.23,-0.15,0.96,-3.67,-1.12,-0.05,
1.496,-0.23,-0.15,0.96,-3.67,-1.12,-0.05,
1.497,-0.23,-0.15,0.96,-3.74,-1.14,-0.10,
1.497,-0.23,-0.16,0.96,-3.74,-1.14,-0.10,
1.5,-0.24,-0.16,0.95,-3.74,-1.14,-0.10,
1.5,-0.24,-0.16,0.95,-3.78,-1.10,-0.15,
1.502,-0.24,-0.16,0.95,-3.78,-1.10,-0.15,
1.511,-0.24,-0.17,0.95,-3.78,-1.10,-0.15,
1.512,-0.24,-0.17,0.95,-3.77,-1.10,-0.24,
1.512,-0.25,-0.16,0.94,-3.77,-1.10,-0.24,
1.513,-0.26,-0.17,0.94,-3.77,-1.10,-0.24,
1.513,-0.26,-0.17,0.94,-3.82,-1.15,-0.27,
1.513,-0.26,-0.17,0.95,-3.82,-1.15,-0.27,
1.515,-0.26,-0.17,0.94,-3.82,-1.15,-0.27,
1.515,-0.26,-0.17,0.94,-3.91,-1.12,-0.33,
1.517,-0.27,-0.18,0.94,-3.91,-1.12,-0.33,
1.52,-0.28,-0.17,0.95,-3.91,-1.12,-0.33,
1.52,-0.28,-0.17,0.95,-3.93,-1.14,-0.32,
1.528,-0.28,-0.17,0.95,-3.93,-1.14,-0.32,
1.529,-0.28,-0.17,0.95,-3.93,-1.14,-0.32,
1.529,-0.28,-0.17,0.95,-4.04,-1.16,-0.32,
1.529,-0.29,-0.17,0.96,-4.04,-1.16,-0.32,
1.53,-0.29,-0.17,0.96,-4.04,-1.16,-0.32,
1.53,-0.29,-0.17,0.96,-4.08,-1.12,-0.22,
1.532,-0.29,-0.18,0.97,-4.08,-1.12,-0.22,
1.535,-0.29,-0.18,0.98,-4.08,-1.12,-0.22,
1.535,-0.29,-0.18,0.98,-4.13,-1.08,-0.15,
1.544,-0.29,-0.17,0.98,-4.13,-1.08,-0.15,
1.545,-0.29,-0.17,0.98,-4.16,-1.08,0.01,
1.545,-0.29,-0.17,0.98,-4.16,-1.08,0.01,
1.545,-0.28,-0.18,0.99,-4.16,-1.08,0.01,
1.546,-0.28,-0.17,1.00,-4.16,-1.08,0.01,
1.546,-0.28,-0.17,1.00,-4.08,-0.99,0.06,
1.547,-0.28,-0.17,1.00,-4.08,-0.99,0.06,
1.55,-0.28,-0.17,1.01,-4.08,-0.99,0.06,
1.55,-0.28,-0.17,1.01,-4.00,-1.00,0.20,
1.552,-0.27,-0.17,1.01,-4.00,-1.00,0.20,
1.561,-0.27,-0.16,1.02,-4.00,-1.00,0.20,
1.562,-0.27,-0.16,1.02,-3.99,-0.94,0.31,
1.562,-0.26,-0.17,1.03,-3.99,-0.94,0.31,
1.562,-0.25,-0.17,1.04,-3.99,-0.94,0.31,
1.563,-0.25,-0.17,1.04,-3.87,-0.86,0.40,
1.563,-0.25,-0.17,1.04,-3.87,-0.86,0.40,
1.565,-0.25,-0.17,1.04,-3.78,-0.88,0.56,
1.565,-0.24,-0.16,1.05,-3.78,-0.88,0.56,
1.567,-0.24,-0.16,1.05,-3.78,-0.88,0.56,
1.569,-0.24,-0.16,1.06,-3.78,-0.88,0.56,
1.57,-0.24,-0.16,1.06,-3.67,-0.79,0.69,
1.577,-0.23,-0.16,1.07,-3.67,-0.79,0.69,
1.577,-0.22,-0.16,1.08,-3.67,-0.79,0.69,
1.577,-0.22,-0.16,1.08,-3.57,-0.72,0.82,
1.578,-0.22,-0.17,1.07,-3.57,-0.72,0.82,
1.579,-0.22,-0.16,1.08,-3.57,-0.72,0.82,
1.58,-0.22,-0.16,1.08,-3.43,-0.73,0.96,
1.582,-0.21,-0.16,1.09,-3.43,-0.73,0.96,
1.584,-0.21,-0.17,1.09,-3.43,-0.73,0.96,
1.584,-0.21,-0.17,1.09,-3.36,-0.71,1.01,
1.587,-0.20,-0.17,1.10,-3.36,-0.71,1.01,
1.593,-0.20,-0.17,1.10,-3.26,-0.70,1.15,
1.594,-0.20,-0.17,1.10,-3.26,-0.70,1.15,
1.594,-0.19,-0.16,1.10,-3.26,-0.70,1.15,
1.594,-0.19,-0.17,1.10,-3.26,-0.70,1.15,
1.594,-0.19,-0.17,1.10,-3.14,-0.67,1.21,
1.596,-0.18,-0.17,1.11,-3.14,-0.67,1.21,
1.598,-0.18,-0.17,1.10,-3.14,-0.67,1.21,
1.598,-0.18,-0.17,1.10,-3.02,-0.64,1.24,
1.601,-0.17,-0.16,1.11,-3.02,-0.64,1.24,
1.603,-0.18,-0.16,1.11,-3.02,-0.64,1.24,
1.604,-0.18,-0.16,1.11,-2.90,-0.61,1.26,
1.617,-0.17,-0.16,1.11,-2.90,-0.61,1.26,
1.618,-0.17,-0.16,1.11,-2.90,-0.61,1.26,
1.618,-0.17,-0.16,1.11,-2.83,-0.53,1.35,
1.618,-0.17,-0.16,1.11,-2.83,-0.53,1.35,
1.619,-0.17,-0.16,1.11,-2.77,-0.48,1.28,
1.619,-0.16,-0.15,1.11,-2.77,-0.48,1.28,
1.619,-0.16,-0.15,1.11,-2.77,-0.48,1.28,
1.619,-0.16,-0.15,1.11,-2.77,-0.48,1.28,
1.619,-0.16,-0.15,1.11,-2.70,-0.45,1.30,
1.628,-0.15,-0.15,1.11,-2.70,-0.45,1.30,
1.629,-0.15,-0.16,1.11,-2.70,-0.45,1.30,
1.629,-0.15,-0.16,1.11,-2.62,-0.37,1.28,
1.629,-0.14,-0.15,1.10,-2.62,-0.37,1.28,
1.63,-0.14,-0.15,1.10,-2.62,-0.37,1.28,
1.63,-0.14,-0.15,1.10,-2.51,-0.38,1.30,
1.63,-0.13,-0.15,1.10,-2.51,-0.38,1.30,
1.633,-0.13,-0.15,1.09,-2.51,-0.38,1.30,
1.633,-0.13,-0.15,1.09,-2.38,-0.33,1.19,
1.635,-0.12,-0.15,1.09,-2.38,-0.33,1.19,
1.646,-0.12,-0.15,1.08,-2.38,-0.33,1.19,
1.647,-0.12,-0.15,1.08,-2.29,-0.34,1.15,
1.647,-0.11,-0.15,1.08,-2.29,-0.34,1.15,
1.647,-0.11,-0.15,1.08,-2.29,-0.34,1.15,
1.649,-0.11,-0.15,1.08,-2.17,-0.29,1.07,
1.65,-0.10,-0.14,1.08,-2.17,-0.29,1.07,
1.65,-0.10,-0.14,1.08,-2.17,-0.29,1.07,
1.651,-0.10,-0.14,1.08,-2.04,-0.27,1.01,
1.651,-0.09,-0.14,1.09,-2.04,-0.27,1.01,
1.653,-0.08,-0.14,1.09,-2.04,-0.27,1.01,
1.653,-0.08,-0.14,1.09,-1.94,-0.19,1.02,
1.661,-0.08,-0.14,1.10,-1.94,-0.19,1.02,
1.661,-0.07,-0.13,1.10,-1.94,-0.19,1.02,
1.661,-0.07,-0.13,1.10,-1.81,-0.15,1.10,
1.662,-0.06,-0.13,1.11,-1.81,-0.15,1.10,
1.663,-0.06,-0.13,1.11,-1.67,-0.08,1.19,
1.663,-0.05,-0.13,1.11,-1.67,-0.08,1.19,
1.665,-0.04,-0.13,1.12,-1.67,-0.08,1.19,
1.668,-0.04,-0.13,1.12,-1.67,-0.08,1.19,
1.668,-0.04,-0.13,1.12,-1.50,-0.02,1.28,
1.67,-0.03,-0.13,1.12,-1.50,-0.02,1.28,
1.676,-0.02,-0.13,1.13,-1.50,-0.02,1.28,
1.677,-0.02,-0.13,1.13,-1.34,-0.01,1.42,
1.677,-0.01,-0.13,1.13,-1.34,-0.01,1.42,
1.677,-0.00,-0.13,1.14,-1.34,-0.01,1.42,
1.678,-0.00,-0.13,1.14,-1.17,0.02,1.46,
1.68,0.01,-0.13,1.14,-1.17,0.02,1.46,
1.683,0.01,-0.13,1.14,-0.99,0.02,1.53,
1.683,0.01,-0.13,1.14,-0.99,0.02,1.53,
1.685,0.02,-0.13,1.14,-0.99,0.02,1.53,
1.687,0.02,-0.13,1.14,-0.83,0.03,1.58,
1.688,0.02,-0.13,1.14,-0.83,0.03,1.58,
1.694,0.02,-0.13,1.14,-0.83,0.03,1.58,
1.695,0.03,-0.13,1.14,-0.83,0.03,1.58,
1.695,0.03,-0.13,1.14,-0.74,0.04,1.58,
1.695,0.03,-0.14,1.14,-0.74,0.04,1.58,
1.697,0.03,-0.13,1.14,-0.74,0.04,1.58,
1.698,0.03,-0.13,1.14,-0.64,0.05,1.57,
1.7,0.03,-0.14,1.14,-0.64,0.05,1.57,
1.702,0.03,-0.14,1.14,-0.64,0.05,1.57,
1.703,0.03,-0.14,1.14,-0.61,0.02,1.59,
1.716,0.02,-0.14,1.14,-0.61,0.02,1.59,
1.717,0.02,-0.14,1.14,-0.61,0.02,1.59,
1.717,0.02,-0.14,1.14,-0.58,0.00,1.58,
1.717,0.02,-0.15,1.13,-0.58,0.00,1.58,
1.717,0.02,-0.15,1.13,-0.63,-0.04,1.54,
1.718,0.02,-0.15,1.13,-0.63,-0.04,1.54,
1.718,0.01,-0.15,1.13,-0.63,-0.04,1.54,
1.718,0.00,-0.16,1.13,-0.63,-0.04,1.54,
1.719,0.00,-0.16,1.13,-0.64,-0.11,1.47,
1.72,0.00,-0.16,1.12,-0.64,-0.11,1.47,
1.729,-0.00,-0.17,1.12,-0.64,-0.11,1.47,
1.73,-0.00,-0.17,1.12,-0.73,-0.13,1.45,
1.73,-0.01,-0.17,1.12,-0.73,-0.13,1.45,
1.73,-0.02,-0.17,1.12,-0.73,-0.13,1.45,
1.73,-0.02,-0.17,1.12,-0.78,-0.22,1.35,
1.731,-0.01,-0.18,1.12,-0.78,-0.22,1.35,
1.732,-0.02,-0.18,1.12,-0.78,-0.22,1.35,
1.732,-0.02,-0.18,1.12,-0.87,-0.27,1.32,
1.735,-0.02,-0.18,1.11,-0.87,-0.27,1.32,
1.747,-0.02,-0.19,1.12,-0.87,-0.27,1.32,
1.748,-0.02,-0.19,1.12,-0.89,-0.35,1.32,
1.748,-0.02,-0.19,1.12,-0.89,-0.35,1.32,
1.748,-0.02,-0.19,1.12,-0.89,-0.35,1.32,
1.749,-0.02,-0.19,1.12,-0.92,-0.41,1.30,
1.749,-0.01,-0.20,1.13,-0.92,-0.41,1.30,
1.749,-0.01,-0.20,1.14,-0.92,-0.41,1.30,
1.749,-0.01,-0.20,1.14,-0.88,-0.45,1.37,
1.75,-0.01,-0.20,1.14,-0.88,-0.45,1.37,
1.752,-0.01,-0.20,1.15,-0.88,-0.45,1.37,
1.752,-0.01,-0.20,1.15,-0.77,-0.48,1.49,
1.761,0.00,-0.20,1.15,-0.77,-0.48,1.49,
1.762,0.00,-0.20,1.15,-0.77,-0.48,1.49,
1.762,0.00,-0.20,1.15,-0.75,-0.53,1.57,
1.762,-0.00,-0.21,1.15,-0.75,-0.53,1.57,
1.763,0.00,-0.21,1.14,-0.75,-0.53,1.57,
1.763,0.00,-0.21,1.14,-0.64,-0.55,1.64,
1.764,-0.00,-0.21,1.13,-0.64,-0.55,1.64,
1.766,-0.01,-0.21,1.13,-0.64,-0.55,1.64,
1.767,-0.01,-0.21,1.13,-0.64,-0.58,1.60,
1.769,-0.01,-0.21,1.12,-0.64,-0.58,1.60,
1.776,-0.01,-0.21,1.12,-0.64,-0.58,1.60,
1.777,-0.01,-0.21,1.12,-0.67,-0.64,1.46,
1.777,-0.01,-0.21,1.11,-0.67,-0.64,1.46,
1.777,-0.01,-0.22,1.10,-0.67,-0.64,1.46,
1.778,-0.01,-0.22,1.10,-0.67,-0.63,1.31,
1.779,-0.01,-0.21,1.09,-0.67,-0.63,1.31,
1.781,-0.01,-0.21,1.09,-0.67,-0.63,1.31,
1.782,-0.01,-0.21,1.09,-0.69,-0.64,1.15,
1.785,-0.00,-0.21,1.08,-0.69,-0.64,1.15,
1.787,-0.00,-0.21,1.08,-0.63,-0.63,1.03,
1.787,0.00,-0.21,1.07,-0.63,-0.63,1.03,
1.794,0.01,-0.20,1.07,-0.63,-0.63,1.03,
1.795,0.02,-0.19,1.07,-0.63,-0.63,1.03,
1.795,0.02,-0.19,1.07,-0.51,-0.59,0.89,
1.796,0.03,-0.18,1.06,-0.51,-0.59,0.89,
1.796,0.04,-0.18,1.07,-0.51,-0.59,0.89,
1.797,0.04,-0.18,1.07,-0.33,-0.43,0.81,
1.799,0.05,-0.18,1.08,-0.33,-0.43,0.81,
1.801,0.07,-0.17,1.08,-0.33,-0.43,0.81,
1.802,0.07,-0.17,1.08,-0.12,-0.32,0.80,
1.804,0.09,-0.17,1.08,-0.12,-0.32,0.80,
1.817,0.10,-0.16,1.08,-0.12,-0.32,0.80,
1.818,0.10,-0.16,1.08,0.13,-0.29,0.92,
1.823,0.11,-0.16,1.09,0.13,-0.29,0.92,
1.823,0.13,-0.16,1.08,0.13,-0.29,0.92,
1.824,0.13,-0.16,1.08,0.45,-0.21,0.92,
1.824,0.14,-0.16,1.09,0.45,-0.21,0.92,
1.824,0.15,-0.15,1.09,0.45,-0.21,0.92,
1.824,0.15,-0.15,1.09,0.74,-0.17,0.95,
1.824,0.16,-0.15,1.09,0.74,-0.17,0.95,
1.825,0.17,-0.14,1.10,0.74,-0.17,0.95,
1.825,0.17,-0.14,1.10,0.98,-0.11,1.04,
1.825,0.18,-0.14,1.10,0.98,-0.11,1.04,
1.829,0.18,-0.14,1.10,0.98,-0.11,1.04,
1.83,0.18,-0.14,1.10,1.21,-0.04,1.04,
1.83,0.19,-0.14,1.10,1.21,-0.04,1.04,
1.832,0.19,-0.14,1.10,1.36,0.01,1.11,
1.832,0.19,-0.13,1.11,1.36,0.01,1.11,
1.834,0.19,-0.13,1.11,1.36,0.01,1.11,
1.837,0.20,-0.13,1.10,1.36,0.01,1.11,
1.837,0.20,-0.13,1.10,1.45,0.05,1.14,
1.839,0.20,-0.13,1.10,1.45,0.05,1.14,
1.846,0.20,-0.13,1.09,1.45,0.05,1.14,
1.847,0.20,-0.13,1.09,1.53,0.10,1.13,
1.847,0.20,-0.14,1.09,1.53,0.10,1.13,
1.848,0.19,-0.14,1.09,1.53,0.10,1.13,
1.848,0.19,-0.14,1.09,1.55,0.07,1.02,
1.849,0.19,-0.14,1.07,1.55,0.07,1.02,
1.851,0.19,-0.14,1.07,1.55,-0.01,0.95,
1.851,0.20,-0.14,1.07,1.55,-0.01,0.95,
1.854,0.19,-0.15,1.07,1.55,-0.01,0.95,
1.862,0.19,-0.15,1.06,1.55,-0.01,0.95,
1.863,0.19,-0.15,1.06,1.57,-0.03,0.81,
1.863,0.18,-0.15,1.06,1.57,-0.03,0.81,
1.863,0.18,-0.15,1.05,1.57,-0.03,0.81,
1.863,0.18,-0.15,1.05,1.52,-0.09,0.73,
1.864,0.17,-0.15,1.05,1.52,-0.09,0.73,
1.866,0.17,-0.15,1.05,1.52,-0.09,0.73,
1.867,0.17,-0.15,1.05,1.45,-0.13,0.61,
1.869,0.16,-0.15,1.05,1.45,-0.13,0.61,
1.871,0.16,-0.15,1.05,1.45,-0.13,0.61,
1.871,0.16,-0.15,1.05,1.36,-0.13,0.56,
1.879,0.16,-0.15,1.06,1.36,-0.13,0.56,
1.88,0.15,-0.14,1.06,1.36,-0.13,0.56,
1.88,0.15,-0.14,1.06,1.29,-0.15,0.58,
1.881,0.16,-0.15,1.05,1.29,-0.15,0.58,
1.881,0.17,-0.14,1.06,1.29,-0.15,0.58,
1.881,0.17,-0.14,1.06,1.26,-0.13,0.63,
1.884,0.17,-0.13,1.07,1.26,-0.13,0.63,
1.886,0.17,-0.14,1.07,1.26,-0.13,0.63,
1.887,0.17,-0.14,1.07,1.32,-0.12,0.61,
1.889,0.18,-0.14,1.07,1.32,-0.12,0.61,
1.897,0.19,-0.14,1.07,1.32,-0.12,0.61,
1.897,0.19,-0.14,1.07,1.42,-0.06,0.72,
1.898,0.19,-0.14,1.07,1.42,-0.06,0.72,
1.898,0.19,-0.14,1.07,1.42,-0.06,0.72,
1.898,0.19,-0.14,1.07,1.53,-0.12,0.74,
1.898,0.19,-0.15,1.07,1.53,-0.12,0.74,
1.901,0.20,-0.14,1.07,1.53,-0.12,0.74,
1.901,0.20,-0.14,1.07,1.62,-0.18,0.75,
1.903,0.21,-0.14,1.06,1.62,-0.18,0.75,
1.906,0.21,-0.14,1.07,1.62,-0.18,0.75,
1.906,0.21,-0.14,1.07,1.69,-0.22,0.72,
1.912,0.21,-0.14,1.06,1.69,-0.22,0.72,
1.912,0.21,-0.14,1.06,1.80,-0.18,0.70,
1.912,0.22,-0.14,1.06,1.80,-0.18,0.70,
1.914,0.22,-0.13,1.06,1.80,-0.18,0.70,
1.916,0.22,-0.13,1.06,1.88,-0.18,0.66,
1.916,0.23,-0.13,1.05,1.88,-0.18,0.66,
1.918,0.23,-0.13,1.05,1.88,-0.18,0.66,
1.921,0.24,-0.12,1.04,1.88,-0.18,0.66,
1.921,0.24,-0.12,1.04,1.98,-0.13,0.58,
1.933,0.24,-0.12,1.03,1.98,-0.13,0.58,
1.934,0.24,-0.12,1.02,1.98,-0.13,0.58,
1.934,0.24,-0.12,1.02,2.08,-0.10,0.49,
1.934,0.25,-0.12,1.02,2.08,-0.10,0.49,
1.935,0.25,-0.12,1.01,2.08,-0.10,0.49,
1.935,0.25,-0.12,1.01,2.17,-0.08,0.30,
1.935,0.25,-0.12,0.99,2.17,-0.08,0.30,
1.935,0.25,-0.12,0.99,2.24,-0.09,0.15,
1.935,0.26,-0.11,0.98,2.24,-0.09,0.15,
1.938,0.25,-0.11,0.98,2.24,-0.09,0.15,
1.947,0.25,-0.11,0.98,2.24,-0.09,0.15,
1.948,0.25,-0.11,0.98,2.30,-0.09,-0.07,
1.948,0.25,-0.10,0.97,2.30,-0.09,-0.07,
1.948,0.26,-0.10,0.96,2.30,-0.09,-0.07,
1.949,0.26,-0.10,0.96,2.30,-0.07,-0.17,
1.949,0.26,-0.10,0.96,2.30,-0.07,-0.17,
1.95,0.26,-0.10,0.96,2.33,-0.02,-0.32,
1.95,0.26,-0.10,0.96,2.33,-0.02,-0.32,
1.952,0.26,-0.09,0.96,2.33,-0.02,-0.32,
1.955,0.26,-0.09,0.96,2.33,-0.02,-0.32,
1.955,0.26,-0.09,0.96,2.39,-0.00,-0.38,
1.964,0.27,-0.09,0.96,2.39,-0.00,-0.38,
1.965,0.27,-0.08,0.96,2.39,-0.00,-0.38,
1.965,0.27,-0.08,0.96,2.41,0.09,-0.35,
1.966,0.28,-0.08,0.97,2.41,0.09,-0.35,
1.966,0.28,-0.08,0.97,2.41,0.09,-0.35,
1.966,0.28,-0.08,0.97,2.47,0.10,-0.35,
1.967,0.28,-0.07,0.98,2.47,0.10,-0.35,
1.969,0.29,-0.07,0.98,2.47,0.10,-0.35,
1.97,0.29,-0.07,0.98,2.54,0.18,-0.26,
1.979,0.30,-0.08,0.98,2.54,0.18,-0.26,
1.982,0.30,-0.08,0.99,2.54,0.18,-0.26,
1.982,0.30,-0.08,0.99,2.63,0.18,-0.18,
1.982,0.30,-0.07,1.00,2.63,0.18,-0.18,
1.983,0.31,-0.07,1.00,2.63,0.18,-0.18,
1.983,0.31,-0.07,1.00,2.72,0.13,-0.12,
1.983,0.31,-0.07,1.00,2.72,0.13,-0.12,
1.986,0.31,-0.07,1.00,2.80,0.16,0.02,
1.986,0.31,-0.07,1.00,2.80,0.16,0.02,
1.988,0.32,-0.07,1.01,2.80,0.16,0.02,
1.99,0.32,-0.07,1.00,2.80,0.16,0.02,
1.99,0.32,-0.07,1.00,2.89,0.15,0.01,
1.996,0.32,-0.06,1.00,2.89,0.15,0.01,
1.997,0.32,-0.06,1.00,2.89,0.15,0.01,
1.997,0.32,-0.06,1.00,2.97,0.18,0.04,
1.997,0.33,-0.06,1.00,2.97,0.18,0.04,
2.0,0.32,-0.05,0.99,2.97,0.18,0.04,
2.0,0.32,-0.05,0.99,2.98,0.26,0.04,
2.003,0.32,-0.04,0.99,2.98,0.26,0.04,
2.006,0.32,-0.04,0.99,2.98,0.26,0.04,
2.006,0.32,-0.04,0.99,3.00,0.33,-0.05,
2.014,0.32,-0.04,0.98,3.00,0.33,-0.05,
2.014,0.31,-0.04,0.97,3.00,0.33,-0.05,
2.014,0.31,-0.04,0.97,2.96,0.40,-0.10,
2.015,0.31,-0.03,0.97,2.96,0.40,-0.10,
2.015,0.30,-0.04,0.96,2.96,0.40,-0.10,
2.015,0.30,-0.04,0.96,2.89,0.39,-0.23,
2.017,0.29,-0.04,0.96,2.89,0.39,-0.23,
2.019,0.29,-0.04,0.95,2.89,0.39,-0.23,
2.019,0.29,-0.04,0.95,2.84,0.44,-0.35,
2.023,0.29,-0.04,0.94,2.84,0.44,-0.35,
2.03,0.28,-0.03,0.94,2.84,0.44,-0.35,
2.031,0.28,-0.03,0.94,2.72,0.41,-0.44,
2.031,0.27,-0.04,0.93,2.72,0.41,-0.44,
2.031,0.27,-0.03,0.93,2.72,0.41,-0.44,
2.031,0.27,-0.03,0.93,2.63,0.43,-0.56,
2.032,0.26,-0.03,0.94,2.63,0.43,-0.56,
2.035,0.26,-0.03,0.94,2.49,0.41,-0.63,
2.035,0.25,-0.03,0.94,2.49,0.41,-0.63,
2.037,0.25,-0.03,0.94,2.49,0.41,-0.63,
2.039,0.24,-0.03,0.95,2.49,0.41,-0.63,
2.039,0.24,-0.03,0.95,2.38,0.43,-0.58,
2.046,0.24,-0.03,0.95,2.38,0.43,-0.58,
2.047,0.23,-0.03,0.96,2.38,0.43,-0.58,
2.047,0.23,-0.03,0.96,2.28,0.43,-0.53,
2.047,0.23,-0.03,0.97,2.28,0.43,-0.53,
2.05,0.23,-0.03,0.97,2.28,0.43,-0.53,
2.05,0.23,-0.03,0.97,2.15,0.41,-0.44,
2.052,0.22,-0.03,0.98,2.15,0.41,-0.44,
2.054,0.22,-0.03,0.98,2.15,0.41,-0.44,
2.055,0.22,-0.03,0.98,2.06,0.40,-0.29,
2.056,0.23,-0.03,0.99,2.06,0.40,-0.29,
2.064,0.23,-0.03,0.99,2.02,0.38,-0.19,
2.065,0.23,-0.03,0.99,2.02,0.38,-0.19,
2.065,0.23,-0.02,0.99,2.02,0.38,-0.19,
2.065,0.24,-0.03,0.99,2.02,0.38,-0.19,
2.066,0.24,-0.03,0.99,2.09,0.42,-0.12,
2.066,0.24,-0.03,0.99,2.09,0.42,-0.12,
2.069,0.24,-0.03,0.99,2.09,0.42,-0.12,
2.07,0.24,-0.03,0.99,2.13,0.41,-0.08,
2.072,0.25,-0.03,0.99,2.13,0.41,-0.08,
2.08,0.25,-0.03,0.99,2.13,0.41,-0.08,
2.081,0.25,-0.03,0.99,2.18,0.35,-0.06,
2.081,0.25,-0.03,0.99,2.18,0.35,-0.06,
2.081,0.24,-0.03,0.98,2.18,0.35,-0.06,
2.081,0.24,-0.03,0.98,2.22,0.33,-0.09,
2.082,0.24,-0.03,0.98,2.22,0.33,-0.09,
2.085,0.24,-0.03,0.98,2.22,0.33,-0.09,
2.085,0.24,-0.03,0.98,2.19,0.34,-0.13,
2.087,0.24,-0.02,0.97,2.19,0.34,-0.13,
2.089,0.24,-0.02,0.97,2.19,0.34,-0.13,
2.089,0.24,-0.02,0.97,2.16,0.33,-0.16,
2.095,0.23,-0.02,0.97,2.16,0.33,-0.16,
2.096,0.23,-0.01,0.97,2.16,0.33,-0.16,
2.096,0.23,-0.01,0.97,2.10,0.36,-0.26,
2.096,0.23,-0.01,0.97,2.10,0.36,-0.26,
2.099,0.22,-0.01,0.96,2.10,0.36,-0.26,
2.099,0.22,-0.01,0.96,2.06,0.40,-0.32,
2.102,0.21,-0.01,0.96,2.06,0.40,-0.32,
2.104,0.21,-0.01,0.96,2.06,0.40,-0.32,
2.104,0.21,-0.01,0.96,1.96,0.45,-0.31,
2.106,0.20,-0.01,0.96,1.96,0.45,-0.31,
2.112,0.20,-0.01,0.96,1.96,0.45,-0.31,
2.113,0.20,-0.01,0.96,1.83,0.46,-0.36,
2.113,0.19,-0.01,0.96,1.83,0.46,-0.36,
2.113,0.18,-0.01,0.95,1.83,0.46,-0.36,
2.113,0.18,-0.01,0.95,1.72,0.46,-0.40,
2.116,0.18,-0.01,0.95,1.72,0.46,-0.40,
2.119,0.18,-0.01,0.95,1.72,0.46,-0.40,
2.119,0.18,-0.01,0.95,1.58,0.41,-0.45,
2.121,0.17,-0.01,0.95,1.58,0.41,-0.45,
2.134,0.17,-0.01,0.95,1.58,0.41,-0.45,
2.135,0.17,-0.01,0.95,1.49,0.39,-0.50,
2.135,0.17,-0.02,0.95,1.49,0.39,-0.50,
2.135,0.16,-0.02,0.95,1.49,0.39,-0.50,
2.135,0.16,-0.02,0.95,1.43,0.35,-0.47,
2.135,0.17,-0.02,0.95,1.43,0.35,-0.47,
2.136,0.16,-0.03,0.95,1.43,0.35,-0.47,
2.136,0.16,-0.03,0.95,1.35,0.24,-0.48,
2.136,0.16,-0.03,0.95,1.35,0.24,-0.48,
2.139,0.15,-0.02,0.95,1.35,0.24,-0.48,
2.141,0.15,-0.02,0.95,1.33,0.20,-0.49,
2.141,0.15,-0.02,0.95,1.33,0.20,-0.49,
2.148,0.15,-0.03,0.95,1.33,0.20,-0.49,
2.149,0.15,-0.03,0.95,1.25,0.20,-0.47,
2.149,0.15,-0.03,0.95,1.25,0.20,-0.47,
2.149,0.14,-0.03,0.95,1.25,0.20,-0.47,
2.149,0.14,-0.03,0.95,1.17,0.19,-0.47,
2.15,0.14,-0.02,0.95,1.17,0.19,-0.47,
2.153,0.14,-0.02,0.95,1.17,0.19,-0.47,
2.154,0.14,-0.02,0.95,1.12,0.16,-0.49,
2.155,0.14,-0.03,0.95,1.12,0.16,-0.49,
2.165,0.14,-0.03,0.95,1.12,0.16,-0.49,
2.166,0.14,-0.03,0.95,1.02,0.18,-0.45,
2.166,0.14,-0.03,0.94,1.02,0.18,-0.45,
2.167,0.14,-0.03,0.95,1.02,0.18,-0.45,
2.167,0.14,-0.03,0.95,1.03,0.12,-0.47,
2.167,0.14,-0.03,0.95,1.03,0.12,-0.47,
2.167,0.14,-0.03,0.95,1.03,0.12,-0.47,
2.168,0.14,-0.03,0.95,1.03,0.11,-0.51,
2.17,0.14,-0.03,0.95,1.03,0.11,-0.51,
2.172,0.14,-0.03,0.95,1.03,0.11,-0.51,
2.173,0.14,-0.03,0.95,1.00,0.07,-0.50,
2.179,0.16,-0.03,0.95,1.00,0.07,-0.50,
2.18,0.17,-0.02,0.95,1.00,0.07,-0.50,
2.18,0.17,-0.02,0.95,1.01,0.06,-0.51,
2.18,0.19,-0.01,0.96,1.01,0.06,-0.51,
2.183,0.19,-0.01,0.96,1.24,0.12,-0.45,
2.183,0.20,-0.00,0.96,1.24,0.12,-0.45,
2.185,0.21,0.00,0.97,1.24,0.12,-0.45,
2.187,0.20,0.00,0.98,1.24,0.12,-0.45,
2.187,0.20,0.00,0.98,1.51,0.32,-0.37,
2.197,0.19,0.01,0.98,1.51,0.32,-0.37,
2.197,0.18,0.01,0.99,1.51,0.32,-0.37,
2.197,0.18,0.01,0.99,1.60,0.39,-0.23,
2.198,0.16,0.00,0.99,1.60,0.39,-0.23,
2.198,0.14,0.00,0.99,1.60,0.39,-0.23,
2.198,0.14,0.00,0.99,1.39,0.47,-0.13,
2.2,0.13,0.00,1.00,1.39,0.47,-0.13,
2.202,0.12,-0.01,1.00,1.39,0.47,-0.13,
2.202,0.12,-0.01,1.00,1.04,0.37,-0.06,
2.205,0.12,-0.01,1.00,1.04,0.37,-0.06,
2.213,0.12,-0.02,1.00,1.04,0.37,-0.06,
2.213,0.12,-0.02,1.00,0.80,0.31,0.02,
2.214,0.12,-0.03,1.00,0.80,0.31,0.02,
2.214,0.11,-0.04,1.00,0.80,0.31,0.02,
2.214,0.11,-0.04,1.00,0.71,0.15,0.02,
2.215,0.12,-0.04,1.00,0.71,0.15,0.02,
2.217,0.12,-0.04,1.00,0.71,0.15,0.02,
2.218,0.12,-0.04,1.00,0.66,-0.04,0.03,
2.22,0.11,-0.04,1.00,0.66,-0.04,0.03,
2.222,0.11,-0.04,0.99,0.66,-0.04,0.03,
2.222,0.11,-0.04,0.99,0.65,-0.13,-0.02,
2.229,0.10,-0.04,0.99,0.65,-0.13,-0.02,
2.23,0.11,-0.04,1.00,0.65,-0.13,-0.02,
2.23,0.11,-0.04,1.00,0.60,-0.16,-0.05,
2.23,0.10,-0.03,0.99,0.60,-0.16,-0.05,
2.232,0.10,-0.03,0.99,0.53,-0.15,-0.03,
2.232,0.11,-0.03,0.99,0.53,-0.15,-0.03,
2.235,0.10,-0.03,0.99,0.53,-0.15,-0.03,
2.237,0.10,-0.03,0.99,0.53,-0.15,-0.03,
2.238,0.10,-0.03,0.99,0.53,-0.12,-0.06,
2.239,0.10,-0.03,0.99,0.53,-0.12,-0.06,
2.252,0.10,-0.02,0.99,0.53,-0.12,-0.06,
2.252,0.10,-0.02,0.99,0.49,-0.08,-0.08,
2.253,0.10,-0.02,0.98,0.49,-0.08,-0.08,
2.253,0.09,-0.02,0.97,0.49,-0.08,-0.08,
2.253,0.09,-0.02,0.97,0.50,-0.07,-0.09,
2.253,0.09,-0.02,0.96,0.50,-0.07,-0.09,
2.254,0.08,-0.03,0.95,0.50,-0.07,-0.09,
2.254,0.08,-0.03,0.95,0.44,-0.05,-0.21,
2.254,0.07,-0.03,0.94,0.44,-0.05,-0.21,
2.267,0.07,-0.03,0.94,0.29,-0.13,-0.44,
2.268,0.06,-0.03,0.93,0.29,-0.13,-0.44,
2.268,0.06,-0.03,0.92,0.29,-0.13,-0.44,
2.268,0.05,-0.03,0.91,0.29,-0.13,-0.44,
2.268,0.05,-0.03,0.91,0.11,-0.16,-0.65,
2.269,0.05,-0.03,0.91,0.11,-0.16,-0.65,
2.269,0.05,-0.03,0.91,0.11,-0.16,-0.65,
2.269,0.05,-0.03,0.91,0.01,-0.20,-0.79,
2.269,0.05,-0.03,0.91,0.01,-0.20,-0.79,
2.272,0.05,-0.03,0.91,0.01,-0.20,-0.79,
2.273,0.05,-0.03,0.91,-0.03,-0.27,-0.85,
2.283,0.04,-0.03,0.92,-0.03,-0.27,-0.85,
2.283,0.04,-0.03,0.92,-0.03,-0.27,-0.85,
2.284,0.04,-0.03,0.92,-0.06,-0.28,-0.83,
2.284,0.03,-0.03,0.93,-0.06,-0.28,-0.83,
2.284,0.04,-0.03,0.95,-0.06,-0.28,-0.83,
2.284,0.04,-0.03,0.95,-0.11,-0.28,-0.75,
2.285,0.04,-0.03,0.96,-0.11,-0.28,-0.75,
2.287,0.04,-0.03,0.96,-0.17,-0.29,-0.57,
2.287,0.04,-0.03,0.97,-0.17,-0.29,-0.57,
2.289,0.04,-0.03,0.98,-0.17,-0.29,-0.57,
2.298,0.04,-0.03,0.99,-0.17,-0.29,-0.57,
2.299,0.04,-0.03,0.99,-0.17,-0.28,-0.30,
2.299,0.04,-0.03,1.00,-0.17,-0.28,-0.30,
2.299,0.04,-0.03,1.01,-0.17,-0.28,-0.30,
2.299,0.04,-0.03,1.01,-0.18,-0.30,-0.11,
2.3,0.04,-0.03,1.02,-0.18,-0.30,-0.11,
2.301,0.04,-0.02,1.02,-0.18,-0.30,-0.11,
2.302,0.04,-0.02,1.02,-0.18,-0.25,0.07,
2.304,0.05,-0.03,1.02,-0.18,-0.25,0.07,
2.307,0.06,-0.01,1.02,-0.18,-0.25,0.07,
2.307,0.06,-0.01,1.02,-0.15,-0.26,0.19,
2.313,0.06,-0.01,1.03,-0.15,-0.26,0.19,
2.314,0.07,-0.01,1.03,-0.15,-0.26,0.19,
2.314,0.07,-0.01,1.03,-0.03,-0.20,0.24,
2.315,0.08,0.00,1.03,-0.03,-0.20,0.24,
2.316,0.08,0.01,1.03,-0.03,-0.20,0.24,
2.317,0.08,0.01,1.03,0.10,-0.09,0.32,
2.321,0.08,0.01,1.02,0.10,-0.09,0.32,
2.322,0.08,0.02,1.02,0.10,-0.09,0.32,
2.322,0.08,0.02,1.02,0.19,-0.00,0.28,
2.331,0.08,0.02,1.02,0.19,-0.00,0.28,
2.332,0.08,0.02,1.01,0.19,-0.00,0.28,
2.332,0.08,0.02,1.01,0.19,0.08,0.26,
2.332,0.08,0.02,1.00,0.19,0.08,0.26,
2.332,0.08,0.02,1.00,0.19,0.08,0.26,
2.333,0.08,0.02,1.00,0.19,0.14,0.18,
2.334,0.07,0.02,0.99,0.19,0.14,0.18,
2.337,0.07,0.02,0.99,0.19,0.14,0.18,
2.337,0.07,0.02,0.99,0.22,0.15,0.03,
2.339,0.07,0.02,0.98,0.22,0.15,0.03,
2.348,0.07,0.02,0.98,0.22,0.15,0.03,
2.349,0.07,0.02,0.98,0.13,0.10,-0.05,
2.349,0.07,0.01,0.97,0.13,0.10,-0.05,
2.349,0.07,0.01,0.98,0.13,0.10,-0.05,
2.349,0.07,0.01,0.98,0.12,0.06,-0.16,
2.35,0.06,0.02,0.97,0.12,0.06,-0.16,
2.352,0.06,0.01,0.97,0.12,0.06,-0.16,
2.352,0.06,0.01,0.97,0.05,-0.00,-0.20,
2.354,0.06,0.01,0.98,0.05,-0.00,-0.20,
2.357,0.05,0.01,0.98,0.05,-0.00,-0.20,
2.357,0.05,0.01,0.98,0.00,-0.00,-0.23,
2.369,0.05,0.01,0.98,0.00,-0.00,-0.23,
2.37,0.05,0.01,0.99,0.00,-0.00,-0.23,
2.37,0.05,0.01,0.99,-0.09,-0.07,-0.20,
2.371,0.05,0.00,0.99,-0.09,-0.07,-0.20,
2.371,0.04,0.00,1.00,-0.09,-0.07,-0.20,
2.371,0.04,0.00,1.00,-0.14,-0.11,-0.12,
2.371,0.05,0.00,1.01,-0.14,-0.11,-0.12,
2.372,0.05,0.00,1.02,-0.14,-0.11,-0.12,
2.372,0.05,0.00,1.02,-0.20,-0.17,0.02,
2.374,0.05,-0.01,1.02,-0.20,-0.17,0.02,
2.382,0.05,-0.01,1.02,-0.20,-0.17,0.02,
2.383,0.05,-0.01,1.02,-0.21,-0.19,0.17,
2.383,0.05,-0.00,1.02,-0.21,-0.19,0.17,
2.383,0.05,-0.00,1.02,-0.21,-0.29,0.22,
2.383,0.05,0.00,1.02,-0.21,-0.29,0.22,
2.383,0.05,0.00,1.02,-0.21,-0.29,0.22,
2.387,0.05,0.01,1.03,-0.21,-0.29,0.22,
2.387,0.05,0.01,1.03,-0.21,-0.23,0.25,
2.389,0.05,0.01,1.02,-0.21,-0.23,0.25,
2.391,0.06,0.01,1.02,-0.21,-0.23,0.25,
2.391,0.06,0.01,1.02,-0.25,-0.22,0.28,
2.401,0.06,0.01,1.01,-0.25,-0.22,0.28,
2.402,0.06,0.02,1.01,-0.25,-0.22,0.28,
2.402,0.06,0.02,1.01,-0.21,-0.18,0.24,
2.403,0.07,0.02,1.01,-0.21,-0.18,0.24,
2.403,0.07,0.02,1.00,-0.21,-0.18,0.24,
2.403,0.07,0.02,1.00,-0.17,-0.17,0.13,
2.403,0.07,0.03,1.00,-0.17,-0.17,0.13,
2.406,0.08,0.02,0.99,-0.17,-0.17,0.13,
2.406,0.08,0.02,0.99,-0.12,-0.12,0.08,
2.408,0.08,0.02,0.98,-0.12,-0.12,0.08,
2.414,0.08,0.02,0.98,-0.12,-0.12,0.08,
2.414,0.08,0.02,0.98,-0.09,-0.12,-0.02,
2.414,0.08,0.02,0.98,-0.09,-0.12,-0.02,
2.415,0.07,0.02,0.97,-0.09,-0.12,-0.02,
2.416,0.07,0.02,0.97,-0.05,-0.14,-0.13,
2.418,0.07,0.02,0.97,-0.05,-0.14,-0.13,
2.42,0.08,0.02,0.97,-0.05,-0.14,-0.13,
2.421,0.08,0.02,0.97,-0.07,-0.17,-0.18,
2.423,0.07,0.01,0.98,-0.07,-0.17,-0.18,
2.429,0.08,0.01,0.98,-0.07,-0.17,-0.18,
2.429,0.08,0.01,0.98,-0.12,-0.23,-0.24,
2.43,0.08,0.01,0.98,-0.12,-0.23,-0.24,
2.43,0.08,0.01,0.98,-0.12,-0.23,-0.24,
2.431,0.08,0.01,0.98,-0.12,-0.28,-0.16,
2.433,0.09,0.00,1.00,-0.12,-0.28,-0.16,
2.435,0.09,-0.00,1.00,-0.12,-0.28,-0.16,
2.435,0.09,-0.00,1.00,-0.08,-0.36,-0.12,
2.438,0.09,0.00,1.00,-0.08,-0.36,-0.12,
2.441,0.09,0.01,1.00,-0.08,-0.36,-0.12,
2.441,0.09,0.01,1.00,0.02,-0.44,0.05,
2.453,0.10,0.02,1.00,0.02,-0.44,0.05,
2.453,0.09,0.02,1.00,0.02,-0.44,0.05,
2.454,0.09,0.02,1.00,0.05,-0.40,0.08,
2.454,0.09,0.03,0.99,0.05,-0.40,0.08,
2.454,0.10,0.04,0.99,0.05,-0.40,0.08,
2.454,0.10,0.04,0.99,0.04,-0.27,0.05,
2.455,0.10,0.05,0.98,0.04,-0.27,0.05,
2.456,0.09,0.06,0.98,0.04,-0.27,0.05,
2.456,0.09,0.06,0.98,0.04,-0.15,-0.06,
2.457,0.09,0.06,0.97,0.04,-0.15,-0.06,
2.466,0.09,0.06,0.97,0.04,-0.15,-0.06,
2.467,0.09,0.06,0.97,0.06,0.08,-0.15,
2.467,0.09,0.06,0.97,0.06,0.08,-0.15,
2.467,0.09,0.06,0.97,0.06,0.08,-0.15,
2.467,0.09,0.06,0.97,0.04,0.15,-0.21,
2.467,0.08,0.06,0.97,0.04,0.15,-0.21,
2.47,0.09,0.05,0.97,0.04,0.15,-0.21,
2.471,0.09,0.05,0.97,-0.02,0.14,-0.21,
2.472,0.08,0.05,0.96,-0.02,0.14,-0.21,
2.486,0.08,0.04,0.97,-0.02,0.14,-0.21,
2.486,0.08,0.04,0.97,-0.04,0.08,-0.23,
2.487,0.08,0.04,0.98,-0.04,0.08,-0.23,
2.487,0.08,0.04,0.98,-0.04,0.08,-0.23,
2.487,0.08,0.04,0.98,-0.06,-0.03,-0.25,
2.487,0.08,0.04,0.98,-0.06,-0.03,-0.25,
2.488,0.09,0.03,0.98,-0.06,-0.03,-0.25,
2.488,0.09,0.03,0.98,-0.08,-0.11,-0.13,
2.488,0.08,0.04,0.98,-0.08,-0.11,-0.13,
2.489,0.09,0.03,0.99,-0.08,-0.11,-0.13,
2.49,0.09,0.03,0.99,-0.07,-0.16,-0.12,
2.498,0.09,0.04,0.99,-0.07,-0.16,-0.12,
2.498,0.10,0.04,1.00,-0.07,-0.16,-0.12,
2.499,0.10,0.04,1.00,-0.06,-0.18,-0.07,
2.499,0.11,0.04,0.99,-0.06,-0.18,-0.07,
2.499,0.11,0.05,0.99,-0.06,-0.18,-0.07,
2.499,0.11,0.05,0.99,0.03,-0.11,0.01,
2.502,0.11,0.05,0.99,0.03,-0.11,0.01,
2.504,0.11,0.05,0.98,0.03,-0.11,0.01,
2.505,0.11,0.05,0.98,0.12,-0.09,-0.05,
2.507,0.11,0.05,0.98,0.12,-0.09,-0.05,
2.514,0.11,0.06,0.98,0.12,-0.09,-0.05,
2.514,0.11,0.06,0.98,0.12,-0.08,-0.09,
2.515,0.11,0.05,0.97,0.12,-0.08,-0.09,
2.515,0.11,0.05,0.97,0.12,-0.08,-0.09,
2.515,0.11,0.05,0.97,0.12,-0.04,-0.15,
2.517,0.11,0.05,0.97,0.12,-0.04,-0.15,
2.519,0.11,0.05,0.97,0.12,-0.04,-0.15,
2.519,0.11,0.05,0.97,0.12,-0.06,-0.19,
2.522,0.10,0.05,0.97,0.12,-0.06,-0.19,
2.524,0.11,0.05,0.97,0.12,-0.06,-0.19,
2.524,0.11,0.05,0.97,0.10,-0.07,-0.20,
2.531,0.11,0.05,0.97,0.10,-0.07,-0.20,
2.531,0.11,0.05,0.97,0.04,-0.11,-0.22,
2.531,0.11,0.05,0.97,0.04,-0.11,-0.22,
2.532,0.11,0.05,0.96,0.04,-0.11,-0.22,
2.534,0.11,0.06,0.96,0.04,-0.11,-0.22,
2.534,0.11,0.06,0.96,0.08,-0.11,-0.23,
2.536,0.11,0.06,0.96,0.08,-0.11,-0.23,
2.539,0.12,0.06,0.96,0.08,-0.11,-0.23,
2.539,0.12,0.06,0.96,0.08,-0.08,-0.27,
2.542,0.12,0.07,0.96,0.08,-0.08,-0.27,
2.548,0.13,0.07,0.96,0.08,-0.08,-0.27,
2.548,0.13,0.07,0.96,0.12,-0.02,-0.26,
2.549,0.14,0.07,0.96,0.12,-0.02,-0.26,
2.549,0.14,0.07,0.96,0.12,-0.02,-0.26,
2.549,0.14,0.07,0.96,0.19,0.06,-0.30,
2.551,0.14,0.08,0.96,0.19,0.06,-0.30,
2.554,0.14,0.08,0.96,0.31,0.08,-0.30,
2.554,0.14,0.07,0.96,0.31,0.08,-0.30,
2.556,0.14,0.08,0.96,0.31,0.08,-0.30,
2.572,0.14,0.08,0.96,0.31,0.08,-0.30,
2.572,0.14,0.08,0.96,0.33,0.11,-0.28,
2.573,0.14,0.08,0.96,0.33,0.11,-0.28,
2.573,0.13,0.07,0.97,0.33,0.11,-0.28,
2.573,0.13,0.07,0.97,0.27,0.14,-0.27,
2.573,0.13,0.07,0.97,0.27,0.14,-0.27,
2.574,0.12,0.06,0.97,0.27,0.14,-0.27,
2.574,0.12,0.06,0.97,0.21,0.10,-0.24,
2.574,0.12,0.06,0.96,0.21,0.10,-0.24,
2.574,0.12,0.05,0.96,0.21,0.10,-0.24,
2.574,0.12,0.05,0.96,0.12,-0.01,-0.19,
2.583,0.10,0.05,0.96,0.12,-0.01,-0.19,
2.584,0.10,0.05,0.96,0.12,-0.01,-0.19,
2.584,0.10,0.05,0.96,0.07,-0.08,-0.24,
2.584,0.10,0.04,0.96,0.07,-0.08,-0.24,
2.584,0.09,0.04,0.97,0.07,-0.08,-0.24,
2.585,0.09,0.04,0.97,-0.12,-0.14,-0.29,
2.586,0.10,0.04,0.97,-0.12,-0.14,-0.29,
2.588,0.10,0.04,0.97,-0.12,-0.14,-0.29,
2.589,0.10,0.04,0.97,-0.16,-0.20,-0.22,
2.591,0.10,0.04,0.97,-0.16,-0.20,-0.22,
2.601,0.10,0.04,0.98,-0.16,-0.20,-0.22,
2.601,0.10,0.04,0.98,-0.14,-0.26,-0.19,
2.602,0.11,0.04,0.98,-0.14,-0.26,-0.19,
2.602,0.10,0.05,0.98,-0.14,-0.26,-0.19,
2.602,0.10,0.05,0.98,-0.10,-0.22,-0.14,
2.602,0.10,0.05,0.98,-0.10,-0.22,-0.14,
2.603,0.10,0.05,0.99,-0.10,-0.22,-0.14,
2.603,0.10,0.05,0.99,-0.07,-0.18,-0.06,
2.606,0.10,0.05,1.00,-0.07,-0.18,-0.06,
2.608,0.09,0.05,1.00,-0.07,-0.18,-0.06,
2.608,0.09,0.05,1.00,-0.09,-0.09,-0.00,
2.615,0.09,0.06,1.00,-0.09,-0.09,-0.00,
2.616,0.09,0.06,1.01,-0.09,-0.09,-0.00,
2.616,0.09,0.06,1.01,-0.16,-0.11,0.13,
2.616,0.10,0.05,1.02,-0.16,-0.11,0.13,
2.618,0.10,0.06,1.02,-0.16,-0.11,0.13,
2.618,0.10,0.06,1.02,-0.20,-0.07,0.21,
2.621,0.10,0.06,1.01,-0.20,-0.07,0.21,
2.623,0.10,0.05,1.02,-0.20,-0.07,0.21,
2.623,0.10,0.05,1.02,-0.16,-0.07,0.30,
2.632,0.10,0.05,1.02,-0.16,-0.07,0.30,
2.633,0.10,0.06,1.01,-0.16,-0.07,0.30,
2.633,0.10,0.06,1.01,-0.16,-0.09,0.27,
2.634,0.11,0.05,1.01,-0.16,-0.09,0.27,
2.634,0.11,0.05,1.01,-0.16,-0.09,0.27,
2.636,0.11,0.05,1.01,-0.14,-0.11,0.24,
2.637,0.12,0.06,1.01,-0.14,-0.11,0.24,
2.638,0.12,0.05,1.01,-0.14,-0.11,0.24,
2.638,0.12,0.05,1.01,-0.06,-0.11,0.24,
2.64,0.13,0.06,1.00,-0.06,-0.11,0.24,
2.654,0.13,0.06,1.00,-0.06,-0.11,0.24,
2.655,0.13,0.06,1.00,0.01,-0.09,0.19,
2.655,0.13,0.06,1.00,0.01,-0.09,0.19,
2.655,0.12,0.06,0.99,0.01,-0.09,0.19,
2.657,0.12,0.06,0.99,0.04,-0.09,0.13,
2.658,0.11,0.06,0.96,0.04,-0.09,0.13,
2.66,0.11,0.06,0.96,0.01,-0.06,0.11,
2.66,0.11,0.07,0.94,0.01,-0.06,0.11,
2.66,0.11,0.07,0.91,0.01,-0.06,0.11,
2.66,0.11,0.07,0.89,0.01,-0.06,0.11,
2.661,0.11,0.07,0.89,-0.20,-0.06,-0.34,
2.661,0.12,0.07,0.89,-0.20,-0.06,-0.34,
2.669,0.13,0.07,0.90,-0.20,-0.06,-0.34,
2.67,0.13,0.07,0.90,-0.18,-0.02,-0.80,
2.67,0.14,0.07,0.91,-0.18,-0.02,-0.80,
2.67,0.15,0.07,0.92,-0.18,-0.02,-0.80,
2.67,0.15,0.07,0.92,-0.04,0.04,-0.91,
2.672,0.16,0.07,0.95,-0.04,0.04,-0.91,
2.673,0.17,0.06,0.97,-0.04,0.04,-0.91,
2.673,0.17,0.06,0.97,0.15,0.03,-0.68,
2.676,0.16,0.06,0.99,0.15,0.03,-0.68,
2.682,0.16,0.05,1.01,0.15,0.03,-0.68,
2.683,0.16,0.05,1.01,0.35,-0.02,-0.25,
2.683,0.15,0.06,1.04,0.35,-0.02,-0.25,
2.683,0.15,0.06,1.05,0.35,-0.02,-0.25,
2.683,0.15,0.06,1.05,0.33,-0.13,0.17,
2.702,0.15,0.06,1.06,0.33,-0.13,0.17,
2.703,0.15,0.06,1.07,0.33,-0.13,0.17,
2.703,0.15,0.06,1.07,0.26,-0.06,0.58,
2.703,0.14,0.07,1.08,0.26,-0.06,0.58,
2.703,0.15,0.07,1.07,0.26,-0.06,0.58,
2.704,0.15,0.07,1.07,0.23,-0.03,0.80,
2.704,0.15,0.07,1.07,0.23,-0.03,0.80,
2.704,0.15,0.07,1.08,0.23,-0.03,0.80,
2.704,0.15,0.07,1.08,0.17,0.06,0.86,
2.704,0.14,0.07,1.07,0.17,0.06,0.86,
2.705,0.14,0.07,1.07,0.22,0.08,0.86,
2.705,0.15,0.07,1.06,0.22,0.08,0.86,
2.705,0.16,0.07,1.06,0.22,0.08,0.86,
2.716,0.17,0.07,1.06,0.22,0.08,0.86,
2.716,0.17,0.07,1.06,0.19,0.12,0.76,
2.716,0.18,0.06,1.05,0.19,0.12,0.76,
2.717,0.20,0.05,1.04,0.19,0.12,0.76,
2.717,0.20,0.05,1.04,0.39,0.05,0.69,
2.717,0.18,0.05,1.03,0.39,0.05,0.69,
2.717,0.15,0.05,1.02,0.39,0.05,0.69,
2.717,0.15,0.05,1.02,0.61,-0.06,0.53,
2.731,0.12,0.06,1.00,0.61,-0.06,0.53,
2.732,0.10,0.06,0.99,0.61,-0.06,0.53,
2.732,0.10,0.06,0.99,0.36,-0.14,0.32,
2.732,0.09,0.06,0.98,0.36,-0.14,0.32,
2.733,0.08,0.06,0.97,0.36,-0.14,0.32,
2.733,0.08,0.06,0.97,-0.19,-0.05,0.10,
2.733,0.08,0.06,0.95,-0.19,-0.05,0.10,
2.733,0.10,0.07,0.94,-0.19,-0.05,0.10,
2.733,0.10,0.07,0.94,-0.44,-0.04,-0.15,
2.735,0.12,0.06,0.94,-0.44,-0.04,-0.15,
2.749,0.13,0.06,0.95,-0.44,-0.04,-0.15,
2.75,0.13,0.06,0.95,-0.39,-0.04,-0.40,
2.75,0.15,0.07,0.95,-0.39,-0.04,-0.40,
2.751,0.16,0.07,0.95,-0.39,-0.04,-0.40,
2.751,0.16,0.07,0.95,-0.05,-0.06,-0.44,
2.751,0.17,0.07,0.96,-0.05,-0.06,-0.44,
2.751,0.18,0.07,0.98,-0.05,-0.06,-0.44,
2.751,0.18,0.07,0.98,0.23,-0.04,-0.36,
2.752,0.17,0.07,0.98,0.23,-0.04,-0.36,
