
time,gFx,gFy,gFz,ax,ay,az,
0.004,0.03,0.19,0.99,0.30,0.04,-0.00,
0.004,0.03,0.19,0.99,0.21,-0.10,0.02,
0.005,0.03,0.19,0.99,0.21,-0.10,0.02,
0.005,0.03,0.19,0.99,0.21,-0.10,0.02,
0.005,0.03,0.19,0.99,0.18,-0.15,0.15,
0.005,0.03,0.19,1.00,0.18,-0.15,0.15,
0.006,0.03,0.19,1.00,0.18,-0.15,0.15,
0.006,0.03,0.19,1.00,0.16,-0.19,0.17,
0.006,0.02,0.19,1.00,0.16,-0.19,0.17,
0.011,0.02,0.19,1.00,0.16,-0.19,0.17,
0.011,0.02,0.19,1.00,0.15,-0.22,0.24,
0.011,0.01,0.18,1.00,0.15,-0.22,0.24,
0.014,0.01,0.18,1.00,0.08,-0.21,0.26,
0.015,0.02,0.18,0.99,0.08,-0.21,0.26,
0.017,0.01,0.19,1.00,0.08,-0.21,0.26,
0.019,0.01,0.19,1.00,0.08,-0.21,0.26,
0.02,0.01,0.19,1.00,0.05,-0.25,0.22,
0.027,0.00,0.19,1.00,0.05,-0.25,0.22,
0.027,0.00,0.19,1.00,0.05,-0.25,0.22,
0.028,0.00,0.19,1.00,0.01,-0.22,0.22,
0.028,-0.00,0.19,1.00,0.01,-0.22,0.22,
0.028,-0.00,0.19,1.00,0.01,-0.22,0.22,
0.029,-0.00,0.19,1.00,-0.07,-0.20,0.28,
0.031,-0.00,0.20,1.00,-0.07,-0.20,0.28,
0.033,-0.01,0.20,0.99,-0.07,-0.20,0.28,
0.033,-0.01,0.20,0.99,-0.09,-0.19,0.26,
0.035,-0.00,0.20,0.99,-0.09,-0.19,0.26,
0.048,-0.00,0.20,0.99,-0.09,-0.19,0.26,
0.049,-0.00,0.20,0.99,-0.12,-0.10,0.18,
0.05,-0.00,0.20,0.99,-0.12,-0.10,0.18,
0.05,-0.00,0.20,0.98,-0.12,-0.10,0.18,
0.05,-0.00,0.20,0.98,-0.09,-0.11,0.15,
0.05,0.00,0.20,0.98,-0.09,-0.11,0.15,
0.051,0.00,0.21,0.98,-0.09,-0.11,0.15,
0.051,0.00,0.21,0.98,-0.08,-0.06,0.08,
0.051,0.01,0.21,0.97,-0.08,-0.06,0.08,
0.062,0.01,0.21,0.96,-0.08,-0.06,0.08,
0.063,0.01,0.21,0.96,-0.06,-0.01,0.03,
0.063,0.01,0.22,0.97,-0.06,-0.01,0.03,
0.063,0.01,0.22,0.96,-0.06,-0.01,0.03,
0.063,0.01,0.22,0.96,0.04,0.04,-0.10,
0.064,0.01,0.22,0.96,0.04,0.04,-0.10,
0.064,0.00,0.23,0.95,0.04,0.04,-0.10,
0.064,0.00,0.23,0.95,0.02,0.14,-0.10,
0.066,-0.00,0.23,0.95,0.02,0.14,-0.10,
0.069,-0.00,0.23,0.95,0.02,0.14,-0.10,
0.069,-0.00,0.23,0.95,-0.01,0.19,-0.19,
0.07,0.00,0.23,0.95,-0.01,0.19,-0.19,
0.077,0.00,0.23,0.96,-0.01,0.19,-0.19,
0.078,0.00,0.23,0.96,-0.07,0.22,-0.22,
0.078,-0.00,0.23,0.96,-0.07,0.22,-0.22,
0.078,-0.01,0.22,0.96,-0.07,0.22,-0.22,
0.078,-0.01,0.22,0.96,-0.05,0.22,-0.20,
0.081,-0.01,0.22,0.95,-0.05,0.22,-0.20,
0.084,-0.02,0.21,0.95,-0.05,0.22,-0.20,
0.084,-0.02,0.21,0.95,-0.09,0.15,-0.18,
0.086,-0.01,0.20,0.96,-0.09,0.15,-0.18,
0.095,-0.00,0.20,0.97,-0.09,0.15,-0.18,
0.096,-0.00,0.20,0.97,-0.19,0.07,-0.21,
0.096,0.00,0.19,0.96,-0.19,0.07,-0.21,
0.096,0.01,0.20,0.97,-0.19,0.07,-0.21,
0.096,0.02,0.20,0.98,-0.19,0.07,-0.21,
0.096,0.02,0.20,0.98,-0.09,-0.06,-0.13,
0.098,0.02,0.20,0.98,0.02,-0.08,-0.08,
0.099,0.02,0.20,0.98,0.02,-0.08,-0.08,
0.101,0.01,0.19,0.99,0.02,-0.08,-0.08,
0.103,0.01,0.20,0.99,0.02,-0.08,-0.08,
0.104,0.01,0.20,0.99,0.13,-0.07,0.04,
0.111,0.01,0.20,1.00,0.13,-0.07,0.04,
0.112,0.01,0.20,1.00,0.11,-0.05,0.13,
0.112,0.01,0.20,1.00,0.11,-0.05,0.13,
0.112,0.01,0.20,1.01,0.11,-0.05,0.13,
0.113,0.00,0.20,1.02,0.11,-0.05,0.13,
0.114,0.00,0.20,1.02,0.10,-0.03,0.23,
0.115,0.00,0.20,1.02,0.10,-0.03,0.23,
0.118,-0.00,0.20,1.03,0.10,-0.03,0.23,
0.118,-0.00,0.20,1.03,0.04,-0.01,0.37,
0.128,-0.01,0.20,1.03,0.04,-0.01,0.37,
0.128,-0.00,0.20,1.03,0.04,-0.01,0.37,
0.129,-0.00,0.20,1.03,0.01,0.00,0.45,
0.129,-0.01,0.19,1.03,0.01,0.00,0.45,
0.129,-0.01,0.19,1.03,-0.04,0.01,0.50,
0.129,-0.01,0.19,1.04,-0.04,0.01,0.50,
0.131,-0.01,0.19,1.04,-0.04,0.01,0.50,
0.132,-0.01,0.19,1.04,-0.05,-0.05,0.57,
0.133,-0.01,0.19,1.04,-0.05,-0.05,0.57,
0.135,-0.01,0.19,1.04,-0.05,-0.05,0.57,
0.147,-0.00,0.19,1.04,-0.05,-0.05,0.57,
0.148,-0.00,0.19,1.04,-0.08,-0.06,0.60,
0.148,-0.00,0.18,1.04,-0.08,-0.06,0.60,
0.148,-0.00,0.18,1.04,-0.00,-0.10,0.60,
0.149,-0.00,0.18,1.04,-0.00,-0.10,0.60,
0.149,-0.00,0.18,1.03,-0.00,-0.10,0.60,
0.149,-0.00,0.18,1.03,-0.00,-0.10,0.60,
0.149,-0.00,0.18,1.03,0.03,-0.15,0.61,
0.149,-0.00,0.18,1.03,0.03,-0.15,0.61,
0.153,-0.00,0.18,1.03,0.02,-0.18,0.51,
0.153,-0.00,0.18,1.03,0.02,-0.18,0.51,
0.161,0.00,0.18,1.02,0.02,-0.18,0.51,
0.161,0.00,0.18,1.02,0.03,-0.18,0.49,
0.163,-0.00,0.18,1.02,0.03,-0.18,0.49,
0.164,-0.00,0.18,1.01,0.03,-0.18,0.49,
0.164,-0.00,0.18,1.01,0.03,-0.18,0.49,
0.164,-0.00,0.18,1.01,0.04,-0.20,0.40,
0.164,0.00,0.18,1.01,0.04,-0.20,0.40,
0.167,-0.00,0.18,1.01,0.04,-0.20,0.40,
0.167,-0.00,0.18,1.01,0.03,-0.15,0.27,
0.169,0.00,0.18,0.99,0.03,-0.15,0.27,
0.18,0.00,0.19,0.99,0.03,-0.15,0.27,
0.181,0.00,0.19,0.99,0.06,-0.16,0.24,
0.181,0.00,0.19,0.98,0.06,-0.16,0.24,
0.181,0.00,0.19,0.98,0.11,-0.14,0.08,
0.182,-0.00,0.19,0.98,0.11,-0.14,0.08,
0.182,0.00,0.19,0.97,0.11,-0.14,0.08,
0.182,0.00,0.19,0.97,0.10,-0.09,-0.01,
0.183,0.00,0.19,0.97,0.10,-0.09,-0.01,
0.184,-0.00,0.19,0.96,0.10,-0.09,-0.01,
0.194,-0.00,0.20,0.96,0.10,-0.09,-0.01,
0.195,-0.00,0.20,0.96,0.11,-0.08,-0.11,
0.195,-0.00,0.20,0.96,0.11,-0.08,-0.11,
0.196,-0.00,0.20,0.96,0.11,-0.08,-0.11,
0.196,-0.00,0.20,0.96,0.08,-0.05,-0.23,
0.196,-0.01,0.20,0.95,0.08,-0.05,-0.23,
0.197,-0.01,0.20,0.95,0.08,-0.05,-0.23,
0.197,-0.01,0.20,0.95,0.09,-0.05,-0.20,
0.199,-0.00,0.20,0.95,0.09,-0.05,-0.20,
0.202,-0.01,0.20,0.95,0.09,-0.05,-0.20,
0.202,-0.01,0.20,0.95,0.04,0.00,-0.27,
0.209,-0.01,0.20,0.94,0.04,0.00,-0.27,
0.209,-0.01,0.20,0.94,0.07,-0.01,-0.30,
0.21,-0.01,0.20,0.94,0.07,-0.01,-0.30,
0.21,-0.01,0.20,0.94,0.07,-0.01,-0.30,
0.211,-0.01,0.21,0.94,0.07,-0.01,-0.30,
0.212,-0.01,0.21,0.94,0.03,-0.02,-0.38,
0.214,-0.01,0.20,0.94,0.03,-0.02,-0.38,
0.217,-0.01,0.20,0.93,0.03,-0.02,-0.38,
0.217,-0.01,0.20,0.93,0.02,0.02,-0.39,
0.219,-0.01,0.21,0.93,0.02,0.02,-0.39,
0.228,-0.01,0.21,0.94,0.02,0.02,-0.39,
0.229,-0.01,0.21,0.94,0.03,-0.00,-0.40,
0.229,-0.01,0.20,0.94,0.03,-0.00,-0.40,
0.23,-0.02,0.20,0.95,0.03,-0.00,-0.40,
0.23,-0.02,0.20,0.95,0.02,0.02,-0.41,
0.23,-0.02,0.20,0.95,0.02,0.02,-0.41,
0.232,-0.02,0.20,0.95,-0.00,-0.00,-0.33,
0.233,-0.02,0.20,0.95,-0.00,-0.00,-0.33,
0.234,-0.02,0.21,0.94,-0.00,-0.00,-0.33,
0.237,-0.02,0.20,0.94,-0.00,-0.00,-0.33,
0.238,-0.02,0.20,0.94,-0.01,-0.03,-0.29,
0.246,-0.02,0.20,0.94,-0.01,-0.03,-0.29,
0.25,-0.02,0.20,0.94,-0.01,-0.03,-0.29,
0.25,-0.02,0.20,0.94,-0.05,0.00,-0.34,
0.25,-0.02,0.20,0.94,-0.05,0.00,-0.34,
0.25,-0.01,0.20,0.94,-0.05,0.00,-0.34,
0.25,-0.01,0.20,0.94,-0.03,-0.00,-0.34,
0.251,-0.01,0.20,0.94,-0.03,-0.00,-0.34,
0.251,-0.00,0.21,0.93,-0.03,-0.00,-0.34,
0.252,-0.00,0.21,0.93,0.00,-0.01,-0.35,
0.253,-0.01,0.21,0.92,0.00,-0.01,-0.35,
0.262,-0.01,0.21,0.92,0.08,-0.01,-0.41,
0.263,-0.01,0.20,0.93,0.08,-0.01,-0.41,
0.263,-0.01,0.21,0.93,0.08,-0.01,-0.41,
0.263,-0.01,0.21,0.93,0.07,0.01,-0.48,
0.263,-0.01,0.21,0.92,0.07,0.01,-0.48,
0.263,-0.02,0.21,0.92,0.07,0.01,-0.48,
0.267,-0.01,0.21,0.92,0.07,0.01,-0.48,
0.267,-0.01,0.21,0.92,0.07,0.02,-0.49,
0.269,-0.02,0.21,0.91,0.07,0.02,-0.49,
0.271,-0.02,0.21,0.91,0.07,0.02,-0.49,
0.271,-0.02,0.21,0.91,0.02,0.01,-0.57,
0.279,-0.02,0.21,0.91,0.02,0.01,-0.57,
0.279,-0.02,0.21,0.90,0.02,0.01,-0.57,
0.28,-0.02,0.21,0.90,0.02,0.01,-0.61,
0.28,-0.01,0.21,0.89,0.02,0.01,-0.61,
0.281,-0.01,0.21,0.89,0.02,0.04,-0.67,
0.282,-0.01,0.21,0.89,0.02,0.04,-0.67,
0.284,-0.01,0.20,0.88,0.02,0.04,-0.67,
0.287,-0.01,0.20,0.88,0.02,0.04,-0.67,
0.287,-0.01,0.20,0.88,0.07,0.04,-0.79,
0.294,-0.01,0.21,0.87,0.07,0.04,-0.79,
0.294,-0.01,0.21,0.87,0.07,0.04,-0.79,
0.294,-0.01,0.21,0.87,0.08,-0.01,-0.91,
0.295,-0.01,0.20,0.86,0.08,-0.01,-0.91,
0.296,-0.01,0.20,0.86,0.11,0.03,-0.98,
0.297,-0.01,0.21,0.86,0.11,0.03,-0.98,
0.298,-0.01,0.21,0.86,0.11,0.03,-0.98,
0.301,-0.00,0.21,0.86,0.11,0.03,-0.98,
0.302,-0.00,0.21,0.86,0.14,-0.00,-1.03,
0.304,-0.00,0.20,0.85,0.14,-0.00,-1.03,
0.309,-0.00,0.20,0.85,0.17,-0.00,-1.08,
0.309,-0.00,0.20,0.84,0.17,-0.00,-1.08,
0.31,-0.00,0.20,0.84,0.17,-0.00,-1.08,
0.311,-0.00,0.20,0.84,0.17,-0.00,-1.08,
0.312,-0.00,0.20,0.84,0.20,-0.02,-1.16,
0.314,-0.00,0.19,0.84,0.20,-0.02,-1.16,
0.316,-0.00,0.19,0.84,0.20,-0.02,-1.16,
0.317,-0.00,0.19,0.84,0.20,-0.07,-1.22,
0.318,-0.01,0.19,0.85,0.20,-0.07,-1.22,
0.327,-0.00,0.18,0.85,0.20,-0.07,-1.22,
0.327,-0.00,0.18,0.85,0.21,-0.11,-1.21,
0.33,-0.00,0.18,0.85,0.21,-0.11,-1.21,
0.33,-0.01,0.19,0.85,0.21,-0.11,-1.21,
0.33,-0.01,0.19,0.85,0.19,-0.17,-1.16,
0.331,-0.01,0.19,0.86,0.19,-0.17,-1.16,
0.331,-0.01,0.19,0.86,0.16,-0.19,-1.09,
0.331,-0.01,0.18,0.86,0.16,-0.19,-1.09,
0.333,-0.01,0.18,0.86,0.16,-0.19,-1.09,
0.336,-0.01,0.17,0.87,0.16,-0.19,-1.09,
0.336,-0.01,0.17,0.87,0.15,-0.20,-1.01,
0.338,-0.01,0.17,0.87,0.15,-0.20,-1.01,
0.347,-0.01,0.16,0.87,0.15,-0.20,-1.01,
0.348,-0.01,0.16,0.87,0.13,-0.27,-0.92,
0.348,-0.01,0.16,0.87,0.13,-0.27,-0.92,
0.349,-0.01,0.16,0.88,0.13,-0.27,-0.92,
0.349,-0.01,0.16,0.88,0.11,-0.33,-0.88,
0.349,-0.00,0.15,0.88,0.11,-0.33,-0.88,
0.351,-0.00,0.15,0.88,0.16,-0.41,-0.84,
0.351,-0.00,0.15,0.87,0.16,-0.41,-0.84,
0.353,-0.00,0.14,0.87,0.16,-0.41,-0.84,
0.363,-0.00,0.14,0.87,0.20,-0.48,-0.83,
0.363,0.00,0.14,0.87,0.20,-0.48,-0.83,
0.364,0.01,0.14,0.87,0.20,-0.48,-0.83,
0.364,0.01,0.13,0.86,0.20,-0.48,-0.83,
0.364,0.01,0.13,0.86,0.24,-0.57,-0.83,
0.364,0.01,0.13,0.86,0.24,-0.57,-0.83,
0.365,0.01,0.12,0.86,0.24,-0.57,-0.83,
0.365,0.01,0.12,0.86,0.29,-0.66,-0.91,
0.367,0.02,0.12,0.85,0.29,-0.66,-0.91,
0.37,0.02,0.12,0.85,0.29,-0.66,-0.91,
0.37,0.02,0.12,0.85,0.35,-0.74,-0.93,
0.38,0.02,0.11,0.84,0.35,-0.74,-0.93,
0.381,0.03,0.11,0.83,0.35,-0.74,-0.93,
0.381,0.03,0.11,0.83,0.39,-0.80,-1.05,
0.381,0.02,0.11,0.83,0.39,-0.80,-1.05,
0.381,0.02,0.11,0.83,0.43,-0.83,-1.16,
0.382,0.02,0.11,0.82,0.43,-0.83,-1.16,
0.382,0.02,0.11,0.82,0.43,-0.83,-1.16,
0.385,0.02,0.11,0.81,0.43,-0.83,-1.16,
0.385,0.02,0.11,0.81,0.40,-0.83,-1.30,
0.387,0.03,0.11,0.80,0.40,-0.83,-1.30,
0.394,0.03,0.11,0.79,0.40,-0.83,-1.30,
0.395,0.03,0.11,0.79,0.41,-0.86,-1.38,
0.395,0.03,0.12,0.78,0.41,-0.86,-1.38,
0.395,0.04,0.12,0.78,0.41,-0.86,-1.38,
0.395,0.04,0.12,0.78,0.48,-0.82,-1.55,
0.397,0.04,0.12,0.76,0.48,-0.82,-1.55,
0.4,0.04,0.13,0.75,0.48,-0.82,-1.55,
0.4,0.04,0.13,0.75,0.52,-0.76,-1.68,
0.402,0.05,0.13,0.75,0.52,-0.76,-1.68,
0.411,0.05,0.13,0.75,0.63,-0.71,-1.88,
0.411,0.05,0.13,0.74,0.63,-0.71,-1.88,
0.411,0.05,0.13,0.74,0.63,-0.71,-1.88,
0.412,0.05,0.13,0.73,0.63,-0.71,-1.88,
0.412,0.05,0.13,0.73,0.69,-0.65,-2.00,
0.412,0.05,0.14,0.73,0.69,-0.65,-2.00,
0.415,0.06,0.14,0.72,0.69,-0.65,-2.00,
0.415,0.06,0.14,0.72,0.70,-0.61,-2.05,
0.417,0.07,0.14,0.72,0.70,-0.61,-2.05,
0.42,0.07,0.14,0.72,0.70,-0.61,-2.05,
0.421,0.07,0.14,0.72,0.76,-0.56,-2.13,
0.426,0.07,0.15,0.72,0.76,-0.56,-2.13,
0.427,0.07,0.15,0.72,0.76,-0.56,-2.13,
0.427,0.07,0.15,0.72,0.86,-0.54,-2.21,
0.427,0.07,0.15,0.71,0.86,-0.54,-2.21,
0.43,0.07,0.15,0.71,0.88,-0.47,-2.21,
0.43,0.07,0.15,0.71,0.88,-0.47,-2.21,
0.432,0.07,0.15,0.72,0.88,-0.47,-2.21,
0.434,0.07,0.15,0.72,0.88,-0.47,-2.21,
0.435,0.07,0.15,0.72,0.85,-0.45,-2.23,
0.436,0.06,0.15,0.73,0.85,-0.45,-2.23,
0.451,0.06,0.16,0.73,0.85,-0.45,-2.23,
0.452,0.06,0.16,0.73,0.82,-0.42,-2.16,
0.453,0.06,0.16,0.74,0.82,-0.42,-2.16,
0.453,0.05,0.16,0.74,0.82,-0.42,-2.16,
0.453,0.05,0.16,0.74,0.79,-0.38,-2.05,
0.453,0.05,0.16,0.75,0.79,-0.38,-2.05,
0.454,0.05,0.16,0.75,0.71,-0.33,-1.94,
0.454,0.05,0.16,0.75,0.71,-0.33,-1.94,
0.454,0.05,0.16,0.76,0.71,-0.33,-1.94,
0.455,0.05,0.16,0.76,0.65,-0.31,-1.80,
0.455,0.04,0.15,0.76,0.65,-0.31,-1.80,
0.463,0.04,0.15,0.78,0.65,-0.31,-1.80,
0.464,0.04,0.14,0.78,0.65,-0.31,-1.80,
0.464,0.04,0.14,0.78,0.60,-0.35,-1.71,
0.464,0.04,0.14,0.78,0.60,-0.35,-1.71,
0.465,0.04,0.14,0.79,0.60,-0.35,-1.71,
0.465,0.04,0.14,0.79,0.54,-0.44,-1.52,
0.466,0.04,0.14,0.80,0.54,-0.44,-1.52,
0.469,0.04,0.14,0.81,0.54,-0.44,-1.52,
0.469,0.04,0.14,0.81,0.54,-0.47,-1.48,
0.472,0.05,0.13,0.81,0.54,-0.47,-1.48,
0.48,0.05,0.12,0.82,0.54,-0.47,-1.48,
0.481,0.05,0.12,0.82,0.53,-0.48,-1.30,
0.481,0.05,0.12,0.82,0.53,-0.48,-1.30,
0.481,0.05,0.12,0.82,0.58,-0.55,-1.18,
0.482,0.05,0.12,0.82,0.58,-0.55,-1.18,
0.482,0.03,0.12,0.84,0.58,-0.55,-1.18,
0.484,0.03,0.12,0.84,0.56,-0.57,-1.11,
0.484,0.03,0.12,0.84,0.56,-0.57,-1.11,
0.486,0.03,0.12,0.86,0.56,-0.57,-1.11,
0.495,0.03,0.12,0.86,0.56,-0.57,-1.11,
0.496,0.03,0.12,0.86,0.44,-0.59,-0.93,
0.496,0.03,0.12,0.86,0.44,-0.59,-0.93,
0.496,0.04,0.12,0.86,0.44,-0.59,-0.93,
0.497,0.04,0.12,0.86,0.43,-0.58,-0.75,
0.497,0.04,0.12,0.87,0.43,-0.58,-0.75,
0.499,0.04,0.12,0.88,0.43,-0.58,-0.75,
0.499,0.04,0.12,0.88,0.45,-0.57,-0.71,
0.502,0.05,0.12,0.89,0.45,-0.57,-0.71,
0.504,0.05,0.12,0.89,0.51,-0.58,-0.60,
0.504,0.05,0.12,0.89,0.51,-0.58,-0.60,
0.512,0.05,0.12,0.89,0.51,-0.58,-0.60,
0.512,0.06,0.12,0.89,0.51,-0.58,-0.60,
0.513,0.06,0.12,0.89,0.55,-0.53,-0.47,
0.513,0.06,0.12,0.89,0.55,-0.53,-0.47,
0.514,0.06,0.12,0.90,0.55,-0.53,-0.47,
0.514,0.06,0.12,0.90,0.62,-0.52,-0.46,
0.517,0.07,0.12,0.89,0.62,-0.52,-0.46,
0.519,0.07,0.12,0.89,0.62,-0.52,-0.46,
0.52,0.07,0.12,0.89,0.62,-0.47,-0.37,
0.521,0.08,0.12,0.88,0.62,-0.47,-0.37,
0.528,0.09,0.13,0.88,0.62,-0.47,-0.37,
0.528,0.09,0.13,0.88,0.72,-0.49,-0.44,
0.528,0.10,0.12,0.87,0.72,-0.49,-0.44,
0.529,0.10,0.12,0.87,0.85,-0.44,-0.53,
0.529,0.11,0.13,0.87,0.85,-0.44,-0.53,
0.531,0.11,0.13,0.86,0.85,-0.44,-0.53,
0.533,0.11,0.13,0.86,0.85,-0.44,-0.53,
0.534,0.11,0.13,0.86,1.02,-0.43,-0.64,
0.537,0.12,0.13,0.85,1.02,-0.43,-0.64,
0.546,0.12,0.13,0.85,1.12,-0.39,-0.71,
0.547,0.13,0.13,0.85,1.12,-0.39,-0.71,
0.547,0.13,0.14,0.85,1.12,-0.39,-0.71,
0.547,0.13,0.14,0.84,1.12,-0.39,-0.71,
0.547,0.13,0.14,0.84,1.20,-0.37,-0.84,
0.547,0.13,0.15,0.84,1.20,-0.37,-0.84,
0.549,0.13,0.16,0.84,1.20,-0.37,-0.84,
0.549,0.13,0.16,0.84,1.28,-0.28,-0.88,
0.551,0.14,0.17,0.84,1.28,-0.28,-0.88,
0.554,0.14,0.17,0.84,1.28,-0.16,-0.91,
0.554,0.14,0.17,0.84,1.28,-0.16,-0.91,
0.555,0.14,0.18,0.84,1.28,-0.16,-0.91,
0.564,0.13,0.19,0.84,1.28,-0.16,-0.91,
0.564,0.13,0.19,0.84,1.30,-0.00,-0.89,
0.565,0.14,0.19,0.84,1.30,-0.00,-0.89,
0.565,0.14,0.20,0.84,1.30,-0.00,-0.89,
0.565,0.14,0.20,0.84,1.27,0.17,-0.90,
0.565,0.14,0.21,0.85,1.27,0.17,-0.90,
0.569,0.14,0.21,0.84,1.27,0.17,-0.90,
0.569,0.14,0.21,0.84,1.23,0.25,-0.87,
0.571,0.14,0.21,0.84,1.23,0.25,-0.87,
0.581,0.13,0.22,0.84,1.23,0.25,-0.87,
0.582,0.13,0.22,0.84,1.22,0.36,-0.84,
0.582,0.13,0.22,0.83,1.22,0.36,-0.84,
0.582,0.13,0.22,0.83,1.20,0.40,-0.88,
0.582,0.14,0.22,0.83,1.20,0.40,-0.88,
0.583,0.15,0.22,0.82,1.20,0.40,-0.88,
0.583,0.15,0.22,0.83,1.20,0.40,-0.88,
0.583,0.15,0.22,0.83,1.18,0.44,-0.96,
0.586,0.15,0.23,0.82,1.18,0.44,-0.96,
0.588,0.16,0.23,0.82,1.18,0.44,-0.96,
0.589,0.16,0.23,0.82,1.26,0.47,-1.00,
0.596,0.16,0.22,0.83,1.26,0.47,-1.00,
0.596,0.15,0.22,0.83,1.26,0.47,-1.00,
0.596,0.15,0.22,0.83,1.29,0.50,-1.01,
0.597,0.15,0.22,0.84,1.29,0.50,-1.01,
0.598,0.15,0.22,0.83,1.29,0.50,-1.01,
0.599,0.15,0.22,0.83,1.26,0.45,-0.93,
0.601,0.15,0.21,0.84,1.26,0.45,-0.93,
0.603,0.15,0.21,0.84,1.17,0.45,-0.90,
0.604,0.14,0.21,0.85,1.17,0.45,-0.90,
0.605,0.14,0.20,0.85,1.17,0.45,-0.90,
0.612,0.14,0.19,0.85,1.17,0.45,-0.90,
0.613,0.14,0.19,0.85,1.07,0.34,-0.79,
0.613,0.14,0.19,0.86,1.07,0.34,-0.79,
0.613,0.13,0.18,0.87,1.07,0.34,-0.79,
0.613,0.13,0.18,0.87,1.01,0.25,-0.71,
0.615,0.13,0.17,0.87,1.01,0.25,-0.71,
0.618,0.13,0.16,0.87,1.01,0.25,-0.71,
0.619,0.13,0.16,0.87,0.90,0.12,-0.60,
0.621,0.12,0.15,0.87,0.90,0.12,-0.60,
0.631,0.12,0.15,0.87,0.81,-0.03,-0.59,
0.631,0.12,0.14,0.87,0.81,-0.03,-0.59,
0.632,0.12,0.13,0.88,0.81,-0.03,-0.59,
0.632,0.12,0.13,0.88,0.81,-0.03,-0.59,
0.632,0.12,0.13,0.88,0.74,-0.16,-0.56,
0.632,0.12,0.12,0.88,0.74,-0.16,-0.56,
0.633,0.12,0.11,0.88,0.74,-0.16,-0.56,
0.633,0.12,0.11,0.88,0.69,-0.29,-0.48,
0.635,0.12,0.11,0.89,0.69,-0.29,-0.48,
0.638,0.11,0.11,0.90,0.69,-0.29,-0.48,
0.638,0.11,0.11,0.90,0.64,-0.36,-0.43,
0.651,0.11,0.11,0.90,0.64,-0.36,-0.43,
0.651,0.11,0.10,0.91,0.64,-0.36,-0.43,
0.652,0.11,0.10,0.91,0.60,-0.40,-0.33,
0.652,0.12,0.10,0.92,0.60,-0.40,-0.33,
0.652,0.12,0.10,0.94,0.60,-0.40,-0.33,
0.652,0.12,0.10,0.94,0.56,-0.39,-0.19,
0.653,0.11,0.10,0.95,0.56,-0.39,-0.19,
0.653,0.11,0.10,0.95,0.56,-0.39,0.00,
0.655,0.11,0.10,0.95,0.56,-0.39,0.00,
0.655,0.11,0.10,0.97,0.56,-0.39,0.00,
0.666,0.11,0.09,0.98,0.56,-0.39,0.00,
0.666,0.11,0.09,0.98,0.51,-0.34,0.20,
0.667,0.11,0.09,0.98,0.51,-0.34,0.20,
0.667,0.11,0.09,0.99,0.51,-0.34,0.20,
0.667,0.11,0.09,0.99,0.47,-0.33,0.40,
0.667,0.11,0.09,0.99,0.47,-0.33,0.40,
0.667,0.11,0.09,0.99,0.42,-0.30,0.50,
0.668,0.11,0.09,0.99,0.42,-0.30,0.50,
0.67,0.11,0.09,1.00,0.42,-0.30,0.50,
0.683,0.11,0.09,1.00,0.42,-0.30,0.50,
0.683,0.11,0.09,1.00,0.40,-0.27,0.58,
0.684,0.10,0.09,1.01,0.40,-0.27,0.58,
0.684,0.10,0.09,1.01,0.39,-0.25,0.67,
0.684,0.11,0.09,1.00,0.39,-0.25,0.67,
0.684,0.11,0.08,1.00,0.39,-0.25,0.67,
0.685,0.10,0.08,1.00,0.39,-0.25,0.67,
0.685,0.10,0.08,1.00,0.34,-0.23,0.69,
0.685,0.10,0.08,0.99,0.34,-0.23,0.69,
0.687,0.10,0.08,0.99,0.34,-0.23,0.69,
0.688,0.10,0.08,0.99,0.34,-0.23,0.64,
0.696,0.10,0.08,0.98,0.34,-0.23,0.64,
0.697,0.10,0.09,0.98,0.34,-0.23,0.64,
0.697,0.10,0.09,0.98,0.30,-0.18,0.53,
0.697,0.10,0.09,0.97,0.30,-0.18,0.53,
0.699,0.09,0.09,0.97,0.30,-0.18,0.53,
0.699,0.09,0.09,0.97,0.29,-0.12,0.42,
0.7,0.09,0.09,0.96,0.29,-0.12,0.42,
0.703,0.09,0.09,0.96,0.21,-0.06,0.33,
0.703,0.09,0.09,0.96,0.21,-0.06,0.33,
0.705,0.08,0.09,0.96,0.21,-0.06,0.33,
0.713,0.07,0.09,0.95,0.21,-0.06,0.33,
0.713,0.07,0.09,0.95,0.15,-0.01,0.23,
0.713,0.06,0.09,0.95,0.15,-0.01,0.23,
0.714,0.06,0.09,0.94,0.15,-0.01,0.23,
0.714,0.06,0.09,0.94,-0.01,0.05,0.14,
0.714,0.06,0.09,0.93,-0.01,0.05,0.14,
0.717,0.05,0.09,0.92,-0.01,0.05,0.14,
0.717,0.05,0.09,0.92,-0.15,0.08,0.04,
0.719,0.05,0.09,0.92,-0.15,0.08,0.04,
0.721,0.05,0.08,0.92,-0.15,0.08,0.04,
0.722,0.05,0.08,0.92,-0.22,0.11,-0.10,
0.727,0.05,0.08,0.92,-0.22,0.11,-0.10,
0.728,0.05,0.08,0.92,-0.26,0.08,-0.17,
0.728,0.05,0.07,0.92,-0.26,0.08,-0.17,
0.73,0.04,0.07,0.92,-0.26,0.08,-0.17,
0.732,0.03,0.07,0.91,-0.26,0.08,-0.17,
0.732,0.03,0.07,0.91,-0.33,0.04,-0.19,
0.735,0.03,0.06,0.91,-0.33,0.04,-0.19,
0.737,0.02,0.05,0.91,-0.33,0.04,-0.19,
0.737,0.02,0.05,0.91,-0.44,-0.01,-0.23,
0.739,0.02,0.05,0.92,-0.44,-0.01,-0.23,
0.752,0.01,0.05,0.92,-0.44,-0.01,-0.23,
0.752,0.01,0.05,0.92,-0.55,-0.11,-0.25,
0.753,0.01,0.04,0.92,-0.55,-0.11,-0.25,
0.753,0.01,0.04,0.93,-0.55,-0.11,-0.25,
0.753,0.01,0.04,0.93,-0.68,-0.15,-0.20,
0.753,0.00,0.04,0.94,-0.68,-0.15,-0.20,
0.754,0.00,0.04,0.94,-0.76,-0.19,-0.12,
0.754,-0.00,0.03,0.95,-0.76,-0.19,-0.12,
0.754,-0.00,0.03,0.96,-0.76,-0.19,-0.12,
0.763,-0.00,0.03,0.97,-0.76,-0.19,-0.12,
0.764,-0.00,0.03,0.97,-0.87,-0.17,0.06,
0.764,0.00,0.03,0.98,-0.87,-0.17,0.06,
0.764,0.00,0.03,0.98,-0.87,-0.17,0.06,
0.765,0.00,0.03,0.98,-0.91,-0.17,0.24,
0.765,0.01,0.03,1.00,-0.91,-0.17,0.24,
0.767,0.01,0.03,1.01,-0.91,-0.17,0.24,
0.767,0.01,0.03,1.01,-0.90,-0.15,0.40,
0.769,0.02,0.03,1.02,-0.90,-0.15,0.40,
0.771,0.03,0.03,1.03,-0.90,-0.15,0.40,
0.772,0.03,0.03,1.03,-0.87,-0.12,0.64,
0.782,0.03,0.03,1.04,-0.87,-0.12,0.64,
0.782,0.03,0.03,1.04,-0.74,-0.08,0.86,
0.783,0.05,0.03,1.05,-0.74,-0.08,0.86,
0.783,0.05,0.03,1.06,-0.74,-0.08,0.86,
0.783,0.06,0.03,1.07,-0.74,-0.08,0.86,
0.783,0.06,0.03,1.07,-0.63,-0.02,1.05,
0.784,0.06,0.04,1.08,-0.63,-0.02,1.05,
0.787,0.08,0.04,1.09,-0.63,-0.02,1.05,
0.787,0.08,0.04,1.09,-0.51,0.03,1.25,
0.789,0.09,0.04,1.09,-0.51,0.03,1.25,
0.797,0.09,0.04,1.09,-0.41,0.16,1.43,
0.798,0.10,0.05,1.10,-0.41,0.16,1.43,
0.798,0.11,0.05,1.11,-0.41,0.16,1.43,
0.799,0.11,0.04,1.11,-0.41,0.16,1.43,
0.799,0.11,0.04,1.11,-0.22,0.25,1.56,
0.799,0.13,0.05,1.11,-0.22,0.25,1.56,
0.801,0.13,0.05,1.11,-0.09,0.29,1.66,
0.801,0.13,0.05,1.12,-0.09,0.29,1.66,
0.803,0.13,0.04,1.12,-0.09,0.29,1.66,
0.806,0.13,0.05,1.12,-0.09,0.29,1.66,
0.807,0.13,0.05,1.12,0.05,0.35,1.73,
0.811,0.13,0.04,1.12,0.05,0.35,1.73,
0.812,0.13,0.04,1.12,0.05,0.35,1.73,
0.812,0.13,0.04,1.12,0.09,0.38,1.80,
0.813,0.13,0.04,1.11,0.09,0.38,1.80,
0.816,0.13,0.04,1.11,0.09,0.38,1.80,
0.816,0.13,0.04,1.11,0.05,0.38,1.78,
0.819,0.13,0.04,1.11,0.05,0.38,1.78,
0.821,0.13,0.04,1.10,0.05,0.38,1.78,
0.821,0.13,0.04,1.10,0.04,0.40,1.67,
0.829,0.13,0.03,1.10,0.04,0.40,1.67,
0.83,0.13,0.03,1.10,-0.01,0.41,1.60,
0.831,0.12,0.03,1.10,-0.01,0.41,1.60,
0.831,0.11,0.03,1.10,-0.01,0.41,1.60,
0.831,0.11,0.02,1.10,-0.01,0.41,1.60,
0.832,0.11,0.02,1.10,-0.04,0.37,1.53,
0.832,0.11,0.02,1.10,-0.04,0.37,1.53,
0.836,0.10,0.01,1.10,-0.04,0.37,1.53,
0.836,0.10,0.01,1.10,-0.16,0.33,1.54,
0.838,0.11,0.01,1.10,-0.16,0.33,1.54,
0.848,0.11,-0.00,1.10,-0.16,0.33,1.54,
0.849,0.11,-0.00,1.10,-0.26,0.28,1.51,
0.849,0.10,-0.00,1.10,-0.26,0.28,1.51,
0.849,0.09,-0.01,1.11,-0.26,0.28,1.51,
0.849,0.09,-0.01,1.11,-0.26,0.19,1.55,
0.849,0.09,-0.01,1.12,-0.26,0.19,1.55,
0.851,0.09,-0.01,1.12,-0.39,0.15,1.63,
0.851,0.09,-0.01,1.13,-0.39,0.15,1.63,
0.853,0.08,-0.01,1.15,-0.39,0.15,1.63,
0.856,0.08,-0.01,1.16,-0.39,0.15,1.63,
0.856,0.08,-0.01,1.16,-0.49,0.14,1.81,
0.863,0.09,-0.02,1.17,-0.49,0.14,1.81,
0.863,0.09,-0.02,1.18,-0.49,0.14,1.81,
0.864,0.09,-0.02,1.18,-0.55,0.13,2.04,
0.864,0.09,-0.02,1.19,-0.55,0.13,2.04,
0.866,0.10,-0.02,1.21,-0.55,0.13,2.04,
0.866,0.10,-0.02,1.21,-0.52,0.12,2.27,
0.868,0.10,-0.02,1.22,-0.52,0.12,2.27,
0.871,0.10,-0.02,1.22,-0.51,0.16,2.49,
0.871,0.10,-0.02,1.23,-0.51,0.16,2.49,
0.873,0.11,-0.02,1.24,-0.51,0.16,2.49,
0.88,0.11,-0.02,1.24,-0.50,0.19,2.76,
0.881,0.12,-0.02,1.25,-0.50,0.19,2.76,
0.881,0.12,-0.02,1.26,-0.50,0.19,2.76,
0.881,0.12,-0.02,1.26,-0.40,0.19,2.92,
0.881,0.13,-0.02,1.26,-0.40,0.19,2.92,
0.883,0.13,-0.02,1.26,-0.40,0.19,2.92,
0.886,0.13,-0.02,1.26,-0.34,0.21,3.08,
0.886,0.13,-0.02,1.26,-0.34,0.21,3.08,
0.888,0.14,-0.03,1.27,-0.34,0.21,3.08,
0.898,0.14,-0.03,1.26,-0.34,0.21,3.08,
0.898,0.14,-0.03,1.26,-0.34,0.22,3.10,
0.898,0.14,-0.04,1.26,-0.34,0.22,3.10,
0.899,0.14,-0.04,1.26,-0.27,0.15,3.12,
0.899,0.14,-0.04,1.25,-0.27,0.15,3.12,
0.899,0.14,-0.04,1.25,-0.27,0.15,3.12,
0.9,0.14,-0.04,1.25,-0.25,0.09,3.02,
0.9,0.13,-0.04,1.25,-0.25,0.09,3.02,
0.903,0.13,-0.04,1.23,-0.25,0.09,3.02,
0.906,0.12,-0.04,1.23,-0.25,0.09,3.02,
0.906,0.12,-0.04,1.23,-0.34,0.08,2.95,
0.913,0.12,-0.04,1.22,-0.34,0.08,2.95,
0.913,0.11,-0.04,1.21,-0.34,0.08,2.95,
0.914,0.11,-0.04,1.21,-0.41,0.12,2.78,
0.914,0.11,-0.04,1.20,-0.41,0.12,2.78,
0.915,0.11,-0.04,1.19,-0.41,0.12,2.78,
0.916,0.11,-0.04,1.19,-0.54,0.17,2.62,
0.917,0.10,-0.03,1.18,-0.54,0.17,2.62,
0.92,0.10,-0.03,1.18,-0.61,0.17,2.42,
0.92,0.10,-0.04,1.17,-0.61,0.17,2.42,
0.922,0.09,-0.04,1.17,-0.61,0.17,2.42,
0.929,0.09,-0.04,1.17,-0.71,0.25,2.25,
0.929,0.09,-0.04,1.16,-0.71,0.25,2.25,
0.93,0.08,-0.04,1.16,-0.71,0.25,2.25,
0.93,0.09,-0.04,1.15,-0.71,0.25,2.25,
0.93,0.09,-0.04,1.15,-0.81,0.24,2.11,
0.932,0.09,-0.04,1.14,-0.81,0.24,2.11,
0.935,0.10,-0.04,1.13,-0.81,0.24,2.11,
0.935,0.10,-0.04,1.13,-0.85,0.23,1.99,
0.937,0.10,-0.04,1.12,-0.85,0.23,1.99,
0.94,0.10,-0.04,1.12,-0.85,0.23,1.99,
0.941,0.10,-0.04,1.12,-0.75,0.22,1.80,
0.951,0.11,-0.04,1.11,-0.75,0.22,1.80,
0.952,0.11,-0.04,1.11,-0.75,0.22,1.80,
0.952,0.11,-0.04,1.11,-0.69,0.25,1.65,
0.952,0.12,-0.04,1.10,-0.69,0.25,1.65,
0.953,0.12,-0.04,1.10,-0.59,0.28,1.57,
0.953,0.13,-0.04,1.10,-0.59,0.28,1.57,
0.953,0.13,-0.04,1.09,-0.59,0.28,1.57,
0.954,0.14,-0.05,1.09,-0.59,0.28,1.57,
0.954,0.14,-0.05,1.09,-0.45,0.33,1.44,
0.966,0.15,-0.04,1.08,-0.45,0.33,1.44,
0.967,0.16,-0.04,1.08,-0.45,0.33,1.44,
0.967,0.16,-0.04,1.08,-0.32,0.30,1.38,
0.968,0.16,-0.05,1.07,-0.32,0.30,1.38,
0.968,0.17,-0.05,1.07,-0.32,0.30,1.38,
0.968,0.17,-0.05,1.07,-0.17,0.32,1.22,
0.968,0.18,-0.05,1.06,-0.17,0.32,1.22,
0.969,0.18,-0.06,1.06,-0.17,0.32,1.22,
0.969,0.18,-0.06,1.06,-0.04,0.28,1.14,
0.971,0.18,-0.05,1.06,-0.04,0.28,1.14,
0.983,0.18,-0.05,1.06,0.06,0.23,1.09,
0.983,0.18,-0.05,1.06,0.06,0.23,1.09,
0.984,0.18,-0.05,1.05,0.06,0.23,1.09,
0.984,0.18,-0.06,1.06,0.06,0.23,1.09,
0.984,0.18,-0.06,1.06,0.07,0.26,1.05,
0.984,0.18,-0.05,1.06,0.07,0.26,1.05,
0.986,0.17,-0.05,1.05,0.07,0.26,1.05,
0.987,0.17,-0.05,1.05,0.07,0.28,0.99,
0.987,0.17,-0.05,1.06,0.07,0.28,0.99,
0.99,0.17,-0.04,1.07,0.07,0.28,0.99,
0.99,0.17,-0.04,1.07,0.01,0.35,1.00,
0.996,0.16,-0.04,1.07,0.01,0.35,1.00,
0.997,0.16,-0.05,1.08,0.01,0.35,1.00,
0.997,0.16,-0.05,1.08,-0.06,0.38,1.10,
0.997,0.16,-0.05,1.10,-0.06,0.38,1.10,
0.999,0.16,-0.05,1.10,-0.17,0.40,1.22,
0.999,0.15,-0.05,1.10,-0.17,0.40,1.22,
1.001,0.15,-0.06,1.11,-0.17,0.40,1.22,
1.004,0.14,-0.06,1.13,-0.17,0.40,1.22,
1.004,0.14,-0.06,1.13,-0.22,0.37,1.43,
1.006,0.14,-0.07,1.15,-0.22,0.37,1.43,
1.014,0.15,-0.08,1.15,-0.22,0.37,1.43,
1.014,0.15,-0.08,1.15,-0.34,0.27,1.65,
1.015,0.14,-0.08,1.17,-0.34,0.27,1.65,
1.015,0.14,-0.10,1.18,-0.34,0.27,1.65,
1.015,0.14,-0.10,1.18,-0.35,0.18,1.93,
1.016,0.13,-0.11,1.19,-0.35,0.18,1.93,
1.018,0.14,-0.11,1.20,-0.35,0.18,1.93,
1.019,0.14,-0.11,1.20,-0.41,0.05,2.18,
1.021,0.13,-0.12,1.21,-0.41,0.05,2.18,
1.029,0.13,-0.12,1.21,-0.48,-0.12,2.38,
1.029,0.13,-0.12,1.22,-0.48,-0.12,2.38,
1.029,0.13,-0.13,1.23,-0.48,-0.12,2.38,
1.03,0.13,-0.13,1.24,-0.48,-0.12,2.38,
1.03,0.13,-0.13,1.24,-0.52,-0.24,2.54,
1.03,0.13,-0.14,1.24,-0.52,-0.24,2.54,
1.033,0.14,-0.15,1.25,-0.52,-0.24,2.54,
1.034,0.14,-0.15,1.25,-0.53,-0.26,2.75,
1.035,0.14,-0.14,1.26,-0.53,-0.26,2.75,
1.038,0.14,-0.15,1.26,-0.53,-0.26,2.75,
1.038,0.14,-0.15,1.26,-0.51,-0.39,2.87,
1.049,0.13,-0.15,1.27,-0.51,-0.39,2.87,
1.05,0.13,-0.15,1.27,-0.51,-0.39,2.87,
1.05,0.13,-0.15,1.27,-0.49,-0.39,3.03,
1.05,0.13,-0.15,1.28,-0.49,-0.39,3.03,
1.05,0.14,-0.14,1.28,-0.49,-0.39,3.03,
1.051,0.14,-0.14,1.28,-0.52,-0.36,3.10,
1.051,0.14,-0.13,1.29,-0.52,-0.36,3.10,
1.054,0.14,-0.13,1.29,-0.52,-0.36,3.10,
1.054,0.14,-0.13,1.29,-0.50,-0.29,3.20,
1.055,0.14,-0.13,1.29,-0.50,-0.29,3.20,
1.067,0.14,-0.13,1.28,-0.50,-0.29,3.20,
1.068,0.14,-0.13,1.28,-0.47,-0.17,3.25,
1.068,0.15,-0.12,1.29,-0.47,-0.17,3.25,
1.069,0.15,-0.11,1.29,-0.47,-0.17,3.25,
1.069,0.15,-0.11,1.29,-0.40,-0.10,3.23,
1.069,0.15,-0.11,1.29,-0.40,-0.10,3.23,
1.069,0.16,-0.10,1.29,-0.40,-0.10,3.23,
1.069,0.16,-0.10,1.29,-0.33,0.05,3.23,
1.07,0.17,-0.10,1.29,-0.33,0.05,3.23,
1.073,0.17,-0.10,1.29,-0.23,0.15,3.24,
1.073,0.18,-0.10,1.29,-0.23,0.15,3.24,
1.081,0.18,-0.10,1.29,-0.23,0.15,3.24,
1.082,0.19,-0.09,1.28,-0.23,0.15,3.24,
1.082,0.19,-0.09,1.28,-0.08,0.26,3.21,
1.082,0.20,-0.09,1.28,-0.08,0.26,3.21,
1.083,0.20,-0.09,1.29,-0.08,0.26,3.21,
1.083,0.20,-0.09,1.29,0.07,0.32,3.18,
1.085,0.21,-0.09,1.28,0.07,0.32,3.18,
1.088,0.21,-0.08,1.28,0.07,0.32,3.18,
1.088,0.21,-0.08,1.28,0.21,0.36,3.16,
1.1,0.21,-0.08,1.28,0.21,0.36,3.16,
1.101,0.21,-0.08,1.29,0.21,0.36,3.16,
1.101,0.21,-0.08,1.29,0.28,0.45,3.13,
1.101,0.21,-0.08,1.29,0.28,0.45,3.13,
1.102,0.21,-0.08,1.29,0.30,0.49,3.13,
1.102,0.21,-0.08,1.28,0.30,0.49,3.13,
1.102,0.21,-0.07,1.28,0.30,0.49,3.13,
1.102,0.21,-0.07,1.28,0.30,0.49,3.13,
1.103,0.21,-0.07,1.28,0.30,0.51,3.13,
1.105,0.21,-0.07,1.27,0.30,0.51,3.13,
1.113,0.21,-0.07,1.26,0.30,0.51,3.13,
1.114,0.21,-0.07,1.26,0.37,0.57,3.07,
1.114,0.21,-0.07,1.26,0.37,0.57,3.07,
1.114,0.21,-0.07,1.26,0.37,0.57,3.07,
1.115,0.21,-0.07,1.26,0.38,0.58,2.94,
1.115,0.22,-0.07,1.26,0.38,0.58,2.94,
1.117,0.22,-0.06,1.25,0.38,0.58,2.94,
1.118,0.22,-0.06,1.25,0.41,0.60,2.88,
1.12,0.23,-0.07,1.24,0.41,0.60,2.88,
1.122,0.23,-0.07,1.24,0.50,0.66,2.77,
1.123,0.23,-0.06,1.24,0.50,0.66,2.77,
1.129,0.22,-0.06,1.24,0.50,0.66,2.77,
1.13,0.23,-0.06,1.23,0.50,0.66,2.77,
1.13,0.23,-0.06,1.23,0.58,0.67,2.64,
1.13,0.22,-0.06,1.23,0.58,0.67,2.64,
1.132,0.22,-0.06,1.22,0.58,0.67,2.64,
1.132,0.22,-0.06,1.22,0.56,0.72,2.57,
1.135,0.23,-0.05,1.22,0.56,0.72,2.57,
1.137,0.23,-0.05,1.22,0.54,0.72,2.47,
1.137,0.22,-0.05,1.22,0.54,0.72,2.47,
1.139,0.22,-0.05,1.22,0.54,0.72,2.47,
1.151,0.23,-0.04,1.21,0.54,0.72,2.47,
1.152,0.23,-0.04,1.21,0.56,0.76,2.44,
1.153,0.23,-0.05,1.21,0.56,0.76,2.44,
1.153,0.23,-0.05,1.21,0.58,0.77,2.36,
1.156,0.22,-0.04,1.21,0.58,0.77,2.36,
1.156,0.22,-0.05,1.20,0.58,0.77,2.36,
1.156,0.22,-0.05,1.20,0.58,0.77,2.36,
1.156,0.22,-0.05,1.20,0.57,0.78,2.29,
1.157,0.22,-0.04,1.20,0.57,0.78,2.29,
1.157,0.22,-0.05,1.19,0.57,0.78,2.29,
1.157,0.22,-0.05,1.19,0.57,0.74,2.21,
1.168,0.22,-0.05,1.20,0.57,0.74,2.21,
1.169,0.22,-0.05,1.18,0.57,0.74,2.21,
1.169,0.22,-0.05,1.18,0.55,0.76,2.12,
1.169,0.22,-0.06,1.18,0.55,0.76,2.12,
1.169,0.22,-0.06,1.18,0.55,0.76,2.12,
1.17,0.22,-0.06,1.18,0.56,0.64,2.07,
1.17,0.22,-0.06,1.17,0.56,0.64,2.07,
1.173,0.22,-0.06,1.17,0.56,0.59,1.96,
1.173,0.22,-0.06,1.17,0.56,0.59,1.96,
1.174,0.22,-0.06,1.17,0.56,0.59,1.96,
1.184,0.23,-0.06,1.17,0.56,0.59,1.96,
1.184,0.23,-0.06,1.17,0.59,0.54,1.90,
1.185,0.23,-0.07,1.16,0.59,0.54,1.90,
1.185,0.23,-0.07,1.16,0.59,0.54,1.90,
1.185,0.23,-0.07,1.16,0.63,0.47,1.84,
1.185,0.23,-0.07,1.15,0.63,0.47,1.84,
1.187,0.23,-0.07,1.15,0.63,0.47,1.84,
1.187,0.23,-0.07,1.15,0.67,0.43,1.72,
1.19,0.23,-0.08,1.14,0.67,0.43,1.72,
1.196,0.23,-0.07,1.14,0.67,0.43,1.72,
1.197,0.23,-0.07,1.14,0.70,0.37,1.67,
1.198,0.23,-0.07,1.15,0.70,0.37,1.67,
1.2,0.23,-0.07,1.15,0.70,0.37,1.67,
1.2,0.23,-0.07,1.15,0.72,0.32,1.55,
1.201,0.23,-0.07,1.16,0.72,0.32,1.55,
1.202,0.22,-0.07,1.17,0.72,0.32,1.55,
1.202,0.22,-0.07,1.17,0.72,0.35,1.60,
1.205,0.22,-0.07,1.17,0.72,0.35,1.60,
1.207,0.22,-0.06,1.18,0.72,0.35,1.60,
1.207,0.22,-0.06,1.18,0.67,0.37,1.74,
1.211,0.21,-0.06,1.19,0.67,0.37,1.74,
1.212,0.21,-0.06,1.19,0.62,0.37,1.84,
1.212,0.21,-0.06,1.20,0.62,0.37,1.84,
1.215,0.20,-0.06,1.21,0.62,0.37,1.84,
1.217,0.20,-0.06,1.22,0.62,0.37,1.84,
1.217,0.20,-0.06,1.22,0.57,0.40,2.04,
1.219,0.20,-0.07,1.23,0.57,0.40,2.04,
1.221,0.19,-0.07,1.24,0.57,0.40,2.04,
1.222,0.19,-0.07,1.24,0.48,0.37,2.25,
1.224,0.19,-0.07,1.25,0.48,0.37,2.25,
1.23,0.18,-0.08,1.25,0.48,0.37,2.25,
1.23,0.18,-0.08,1.25,0.40,0.30,2.42,
1.231,0.18,-0.08,1.26,0.40,0.30,2.42,
1.232,0.18,-0.08,1.26,0.34,0.24,2.55,
1.232,0.18,-0.08,1.26,0.34,0.24,2.55,
1.234,0.18,-0.08,1.26,0.34,0.24,2.55,
1.237,0.18,-0.08,1.26,0.32,0.15,2.65,
1.237,0.19,-0.09,1.26,0.32,0.15,2.65,
1.239,0.18,-0.09,1.26,0.32,0.15,2.65,
1.247,0.18,-0.10,1.26,0.32,0.15,2.65,
1.248,0.18,-0.10,1.26,0.35,0.12,2.59,
1.248,0.18,-0.09,1.25,0.35,0.12,2.59,
1.248,0.18,-0.10,1.24,0.35,0.12,2.59,
1.248,0.18,-0.10,1.24,0.30,0.02,2.60,
1.25,0.18,-0.09,1.23,0.30,0.02,2.60,
1.251,0.18,-0.10,1.23,0.30,0.02,2.60,
1.252,0.18,-0.10,1.23,0.33,-0.00,2.47,
1.254,0.18,-0.10,1.22,0.33,-0.00,2.47,
1.257,0.18,-0.10,1.21,0.33,-0.00,2.47,
1.257,0.18,-0.10,1.21,0.34,-0.05,2.27,
1.268,0.17,-0.10,1.21,0.34,-0.05,2.27,
1.269,0.17,-0.10,1.21,0.36,-0.08,2.15,
1.269,0.17,-0.10,1.20,0.36,-0.08,2.15,
1.269,0.16,-0.10,1.19,0.36,-0.08,2.15,
1.27,0.16,-0.10,1.19,0.27,-0.11,2.00,
1.27,0.16,-0.09,1.18,0.27,-0.11,2.00,
1.27,0.16,-0.10,1.17,0.27,-0.11,2.00,
1.272,0.15,-0.10,1.16,0.27,-0.11,2.00,
1.272,0.15,-0.10,1.16,0.25,-0.11,1.80,
1.274,0.15,-0.10,1.15,0.25,-0.11,1.80,
1.283,0.15,-0.09,1.15,0.25,-0.11,1.80,
1.283,0.15,-0.09,1.15,0.20,-0.13,1.63,
1.284,0.15,-0.09,1.13,0.20,-0.13,1.63,
1.284,0.15,-0.09,1.13,0.20,-0.13,1.63,
1.284,0.15,-0.09,1.13,0.18,-0.15,1.46,
1.284,0.14,-0.09,1.13,0.18,-0.15,1.46,
1.286,0.14,-0.09,1.13,0.18,-0.13,1.26,
1.287,0.14,-0.09,1.12,0.18,-0.13,1.26,
1.289,0.14,-0.08,1.11,0.18,-0.13,1.26,
1.291,0.14,-0.07,1.11,0.18,-0.13,1.26,
1.292,0.14,-0.07,1.11,0.13,-0.16,1.16,
1.301,0.14,-0.07,1.10,0.13,-0.16,1.16,
1.301,0.13,-0.06,1.09,0.13,-0.16,1.16,
1.302,0.13,-0.06,1.09,0.11,-0.07,1.01,
1.302,0.13,-0.05,1.09,0.11,-0.07,1.01,
1.302,0.13,-0.05,1.08,0.11,-0.07,1.01,
1.302,0.13,-0.05,1.08,0.11,0.03,0.87,
1.303,0.13,-0.04,1.08,0.11,0.03,0.87,
1.306,0.13,-0.04,1.08,0.11,0.03,0.87,
1.307,0.13,-0.04,1.08,0.10,0.13,0.80,
1.315,0.12,-0.03,1.08,0.10,0.13,0.80,
1.316,0.11,-0.03,1.08,0.10,0.13,0.80,
1.316,0.11,-0.03,1.08,0.05,0.20,0.75,
1.318,0.11,-0.02,1.08,0.05,0.20,0.75,
1.319,0.10,-0.02,1.08,0.05,0.20,0.75,
1.319,0.10,-0.02,1.08,-0.04,0.25,0.74,
1.319,0.10,-0.02,1.07,-0.04,0.25,0.74,
1.32,0.09,-0.02,1.07,-0.04,0.25,0.74,
1.321,0.09,-0.02,1.07,-0.11,0.27,0.69,
1.323,0.09,-0.03,1.08,-0.11,0.27,0.69,
1.331,0.08,-0.03,1.07,-0.11,0.27,0.69,
1.331,0.08,-0.03,1.07,-0.24,0.25,0.64,
1.331,0.09,-0.03,1.06,-0.24,0.25,0.64,
1.332,0.09,-0.03,1.06,-0.24,0.25,0.64,
1.332,0.09,-0.03,1.06,-0.32,0.19,0.67,
1.332,0.09,-0.03,1.06,-0.32,0.19,0.67,
1.335,0.09,-0.03,1.06,-0.28,0.16,0.55,
1.336,0.09,-0.03,1.05,-0.28,0.16,0.55,
1.337,0.09,-0.03,1.05,-0.28,0.16,0.55,
1.34,0.09,-0.03,1.05,-0.28,0.16,0.55,
1.34,0.09,-0.03,1.05,-0.29,0.09,0.48,
1.352,0.08,-0.04,1.05,-0.29,0.09,0.48,
1.353,0.08,-0.04,1.05,-0.29,0.09,0.48,
1.353,0.08,-0.04,1.05,-0.26,0.02,0.43,
1.353,0.08,-0.05,1.05,-0.26,0.02,0.43,
1.353,0.08,-0.05,1.05,-0.26,0.02,0.43,
1.354,0.08,-0.05,1.05,-0.33,-0.07,0.38,
1.354,0.07,-0.06,1.04,-0.33,-0.07,0.38,
1.355,0.07,-0.06,1.05,-0.33,-0.07,0.38,
1.355,0.07,-0.06,1.05,-0.35,-0.19,0.37,
1.357,0.07,-0.06,1.06,-0.35,-0.19,0.37,
1.366,0.07,-0.06,1.06,-0.45,-0.29,0.39,
1.366,0.06,-0.06,1.06,-0.45,-0.29,0.39,
1.367,0.05,-0.06,1.06,-0.45,-0.29,0.39,
1.367,0.05,-0.06,1.06,-0.45,-0.29,0.39,
1.367,0.05,-0.06,1.06,-0.50,-0.38,0.46,
1.367,0.05,-0.06,1.07,-0.50,-0.38,0.46,
1.37,0.05,-0.06,1.07,-0.50,-0.38,0.46,
1.37,0.05,-0.06,1.07,-0.57,-0.38,0.52,
1.372,0.05,-0.05,1.07,-0.57,-0.38,0.52,
1.383,0.06,-0.05,1.07,-0.57,-0.38,0.52,
1.384,0.06,-0.05,1.07,-0.57,-0.36,0.61,
1.384,0.06,-0.05,1.07,-0.57,-0.36,0.61,
1.384,0.07,-0.05,1.07,-0.57,-0.36,0.61,
1.385,0.07,-0.05,1.07,-0.54,-0.33,0.58,
1.385,0.06,-0.05,1.08,-0.54,-0.33,0.58,
1.385,0.06,-0.05,1.08,-0.46,-0.31,0.62,
1.385,0.07,-0.05,1.08,-0.46,-0.31,0.62,
1.387,0.07,-0.05,1.08,-0.46,-0.31,0.62,
1.39,0.08,-0.05,1.08,-0.46,-0.31,0.62,
1.39,0.08,-0.05,1.08,-0.43,-0.35,0.65,
1.399,0.08,-0.05,1.08,-0.43,-0.35,0.65,
1.4,0.08,-0.05,1.09,-0.43,-0.35,0.65,
1.4,0.08,-0.05,1.09,-0.34,-0.36,0.67,
1.4,0.08,-0.05,1.08,-0.34,-0.36,0.67,
1.401,0.09,-0.04,1.08,-0.34,-0.36,0.67,
1.401,0.09,-0.04,1.08,-0.29,-0.36,0.74,
1.402,0.09,-0.04,1.08,-0.29,-0.36,0.74,
1.404,0.09,-0.04,1.08,-0.29,-0.36,0.74,
1.405,0.09,-0.04,1.08,-0.24,-0.34,0.70,
1.407,0.09,-0.04,1.08,-0.24,-0.34,0.70,
1.414,0.09,-0.04,1.08,-0.18,-0.35,0.67,
1.415,0.09,-0.04,1.08,-0.18,-0.35,0.67,
1.415,0.09,-0.04,1.07,-0.18,-0.35,0.67,
1.415,0.09,-0.04,1.07,-0.18,-0.35,0.67,
1.416,0.09,-0.04,1.07,-0.15,-0.36,0.63,
1.416,0.09,-0.04,1.07,-0.15,-0.36,0.63,
1.419,0.08,-0.04,1.06,-0.15,-0.36,0.63,
1.419,0.08,-0.04,1.06,-0.16,-0.33,0.59,
1.421,0.08,-0.04,1.06,-0.16,-0.33,0.59,
1.424,0.07,-0.04,1.06,-0.16,-0.33,0.59,
1.425,0.07,-0.04,1.06,-0.22,-0.33,0.52,
1.431,0.06,-0.03,1.06,-0.22,-0.33,0.52,
1.432,0.06,-0.03,1.06,-0.22,-0.33,0.52,
1.432,0.06,-0.03,1.06,-0.31,-0.36,0.48,
1.432,0.06,-0.03,1.05,-0.31,-0.36,0.48,
1.434,0.06,-0.03,1.05,-0.41,-0.32,0.51,
1.434,0.06,-0.03,1.05,-0.41,-0.32,0.51,
1.436,0.06,-0.03,1.05,-0.41,-0.32,0.51,
1.439,0.05,-0.03,1.04,-0.41,-0.32,0.51,
1.439,0.05,-0.03,1.04,-0.43,-0.31,0.39,
1.448,0.05,-0.03,1.04,-0.43,-0.31,0.39,
1.448,0.05,-0.03,1.04,-0.45,-0.37,0.32,
1.449,0.05,-0.04,1.04,-0.45,-0.37,0.32,
1.449,0.05,-0.04,1.03,-0.45,-0.37,0.32,
1.449,0.05,-0.04,1.03,-0.45,-0.37,0.32,
1.449,0.05,-0.04,1.03,-0.47,-0.44,0.27,
1.451,0.04,-0.04,1.03,-0.47,-0.44,0.27,
1.454,0.04,-0.05,1.02,-0.47,-0.44,0.27,
1.454,0.04,-0.05,1.02,-0.47,-0.49,0.16,
1.456,0.04,-0.05,1.01,-0.47,-0.49,0.16,
1.47,0.04,-0.05,1.01,-0.53,-0.57,0.11,
1.471,0.04,-0.06,1.01,-0.53,-0.57,0.11,
1.471,0.03,-0.07,1.01,-0.53,-0.57,0.11,
1.471,0.03,-0.08,1.01,-0.53,-0.57,0.11,
1.471,0.03,-0.08,1.01,-0.52,-0.68,-0.00,
1.472,0.03,-0.08,1.01,-0.52,-0.68,-0.00,
1.472,0.02,-0.07,1.00,-0.52,-0.68,-0.00,
1.472,0.02,-0.07,1.00,-0.57,-0.88,-0.02,
1.472,0.02,-0.07,1.00,-0.57,-0.88,-0.02,
1.474,0.02,-0.07,1.01,-0.57,-0.88,-0.02,
1.474,0.02,-0.07,1.01,-0.59,-0.90,-0.10,
1.486,0.01,-0.07,1.00,-0.59,-0.90,-0.10,
1.527,0.01,-0.07,0.99,-0.59,-0.90,-0.10,
1.527,0.01,-0.07,0.99,-0.64,-0.91,-0.10,
1.527,0.01,-0.06,0.99,-0.64,-0.91,-0.10,
1.528,0.01,-0.06,0.99,-0.69,-0.93,-0.20,
1.528,0.01,-0.06,0.99,-0.69,-0.93,-0.20,
1.528,0.01,-0.06,0.98,-0.69,-0.93,-0.20,
1.528,0.01,-0.05,0.98,-0.69,-0.93,-0.20,
1.528,0.01,-0.05,0.98,-0.69,-0.86,-0.23,
1.529,0.01,-0.05,0.98,-0.69,-0.86,-0.23,
1.529,0.01,-0.04,0.97,-0.69,-0.86,-0.23,
1.529,0.01,-0.04,0.97,-0.68,-0.81,-0.33,
1.529,0.02,-0.03,0.96,-0.68,-0.81,-0.33,
1.529,0.02,-0.03,0.96,-0.68,-0.81,-0.33,
1.53,0.02,-0.03,0.96,-0.64,-0.73,-0.42,
1.53,0.03,-0.03,0.96,-0.64,-0.73,-0.42,
1.53,0.03,-0.03,0.96,-0.54,-0.66,-0.57,
1.53,0.03,-0.02,0.95,-0.54,-0.66,-0.57,
1.531,0.03,-0.01,0.94,-0.54,-0.66,-0.57,
1.531,0.03,-0.01,0.94,-0.42,-0.57,-0.61,
1.531,0.04,-0.01,0.94,-0.42,-0.57,-0.61,
1.531,0.04,-0.00,0.94,-0.42,-0.57,-0.61,
1.532,0.04,-0.00,0.94,-0.38,-0.49,-0.71,
1.532,0.05,0.01,0.93,-0.38,-0.49,-0.71,
1.532,0.05,0.01,0.94,-0.38,-0.49,-0.71,
1.532,0.05,0.01,0.94,-0.28,-0.40,-0.76,
1.532,0.05,0.02,0.94,-0.28,-0.40,-0.76,
1.533,0.05,0.02,0.95,-0.28,-0.40,-0.76,
1.533,0.05,0.02,0.94,-0.28,-0.40,-0.76,
1.533,0.05,0.02,0.94,-0.26,-0.30,-0.73,
1.533,0.05,0.03,0.94,-0.26,-0.30,-0.73,
1.533,0.05,0.03,0.94,-0.26,-0.30,-0.73,
1.534,0.05,0.03,0.94,-0.26,-0.29,-0.68,
1.534,0.05,0.03,0.95,-0.26,-0.29,-0.68,
1.534,0.05,0.03,0.95,-0.26,-0.23,-0.70,
1.534,0.05,0.03,0.95,-0.26,-0.23,-0.70,
1.536,0.05,0.03,0.95,-0.26,-0.23,-0.70,
1.539,0.05,0.03,0.95,-0.26,-0.23,-0.70,
1.539,0.05,0.03,0.95,-0.25,-0.23,-0.62,
1.541,0.05,0.03,0.94,-0.25,-0.23,-0.62,
1.545,0.05,0.03,0.94,-0.25,-0.27,-0.63,
1.545,0.05,0.02,0.94,-0.25,-0.27,-0.63,
1.545,0.04,0.02,0.94,-0.25,-0.27,-0.63,
1.549,0.05,0.01,0.94,-0.25,-0.27,-0.63,
1.549,0.05,0.01,0.94,-0.25,-0.34,-0.69,
1.551,0.04,0.01,0.94,-0.25,-0.34,-0.69,
1.554,0.04,0.00,0.93,-0.25,-0.34,-0.69,
1.554,0.04,0.00,0.93,-0.26,-0.47,-0.67,
1.556,0.04,-0.00,0.93,-0.26,-0.47,-0.67,
1.559,0.04,-0.00,0.93,-0.29,-0.58,-0.77,
1.559,0.04,-0.01,0.93,-0.29,-0.58,-0.77,
1.565,0.04,-0.01,0.93,-0.29,-0.58,-0.77,
1.565,0.04,-0.01,0.92,-0.29,-0.58,-0.77,
1.566,0.04,-0.01,0.92,-0.29,-0.69,-0.80,
1.566,0.03,-0.01,0.93,-0.29,-0.69,-0.80,
1.568,0.03,-0.01,0.93,-0.29,-0.69,-0.80,
1.568,0.03,-0.01,0.93,-0.31,-0.74,-0.83,
1.57,0.03,-0.01,0.94,-0.31,-0.74,-0.83,
1.574,0.02,-0.01,0.93,-0.31,-0.74,-0.83,
1.574,0.02,-0.01,0.93,-0.35,-0.79,-0.78,
1.576,0.02,-0.01,0.94,-0.35,-0.79,-0.78,
1.578,0.02,-0.01,0.94,-0.35,-0.79,-0.78,
1.578,0.02,-0.01,0.94,-0.40,-0.79,-0.74,
1.58,0.01,-0.01,0.94,-0.40,-0.79,-0.74,
1.583,0.01,-0.01,0.94,-0.45,-0.80,-0.71,
1.583,0.01,-0.00,0.95,-0.45,-0.80,-0.71,
1.586,0.01,-0.00,0.95,-0.45,-0.80,-0.71,
1.588,0.01,0.00,0.96,-0.45,-0.80,-0.71,
1.589,0.01,0.00,0.96,-0.52,-0.78,-0.62,
1.591,0.00,0.01,0.96,-0.52,-0.78,-0.62,
1.595,0.00,0.01,0.95,-0.52,-0.78,-0.62,
1.595,0.00,0.01,0.95,-0.54,-0.76,-0.55,
1.595,0.01,0.01,0.95,-0.54,-0.76,-0.55,
1.598,0.01,0.01,0.95,-0.54,-0.76,-0.55,
1.598,0.01,0.01,0.95,-0.56,-0.72,-0.53,
1.601,0.01,0.02,0.95,-0.56,-0.72,-0.53,
1.603,0.01,0.01,0.94,-0.56,-0.72,-0.53,
1.603,0.01,0.01,0.94,-0.53,-0.70,-0.57,
1.606,0.01,0.01,0.94,-0.53,-0.70,-0.57,
1.608,0.01,0.01,0.94,-0.48,-0.69,-0.65,
1.609,0.01,0.02,0.93,-0.48,-0.69,-0.65,
1.611,0.01,0.02,0.93,-0.48,-0.69,-0.65,
1.612,0.02,0.02,0.93,-0.48,-0.69,-0.65,
1.613,0.02,0.02,0.93,-0.46,-0.68,-0.69,
1.614,0.02,0.03,0.92,-0.46,-0.68,-0.69,
1.617,0.02,0.03,0.92,-0.46,-0.68,-0.69,
1.618,0.02,0.03,0.92,-0.39,-0.65,-0.74,
1.62,0.02,0.03,0.91,-0.39,-0.65,-0.74,
1.622,0.02,0.03,0.91,-0.39,-0.65,-0.74,
1.622,0.02,0.03,0.91,-0.37,-0.62,-0.84,
1.624,0.02,0.04,0.91,-0.37,-0.62,-0.84,
1.628,0.02,0.04,0.91,-0.37,-0.62,-0.84,
1.628,0.02,0.04,0.91,-0.32,-0.61,-0.95,
1.629,0.02,0.03,0.90,-0.32,-0.61,-0.95,
1.632,0.02,0.03,0.90,-0.30,-0.60,-0.98,
1.632,0.02,0.03,0.89,-0.30,-0.60,-0.98,
1.635,0.01,0.03,0.88,-0.30,-0.60,-0.98,
1.637,0.01,0.04,0.87,-0.30,-0.60,-0.98,
1.638,0.01,0.04,0.87,-0.35,-0.67,-1.10,
1.639,0.01,0.04,0.87,-0.35,-0.67,-1.10,
1.648,-0.00,0.04,0.85,-0.35,-0.67,-1.10,
1.65,-0.00,0.04,0.85,-0.39,-0.68,-1.29,
1.65,-0.01,0.04,0.84,-0.39,-0.68,-1.29,
1.65,-0.02,0.04,0.84,-0.39,-0.68,-1.29,
1.651,-0.02,0.04,0.84,-0.45,-0.68,-1.43,
1.651,-0.02,0.04,0.83,-0.45,-0.68,-1.43,
1.652,-0.02,0.04,0.83,-0.57,-0.68,-1.62,
1.652,-0.03,0.05,0.82,-0.57,-0.68,-1.62,
1.654,-0.04,0.05,0.81,-0.57,-0.68,-1.62,
1.657,-0.04,0.05,0.81,-0.71,-0.66,-1.74,
1.657,-0.05,0.05,0.81,-0.71,-0.66,-1.74,
1.661,-0.07,0.05,0.81,-0.71,-0.66,-1.74,
1.662,-0.07,0.05,0.80,-0.71,-0.66,-1.74,
1.662,-0.07,0.05,0.80,-0.86,-0.65,-1.89,
1.664,-0.08,0.05,0.79,-0.86,-0.65,-1.89,
1.667,-0.08,0.05,0.79,-0.86,-0.65,-1.89,
1.667,-0.08,0.05,0.79,-1.04,-0.66,-1.96,
1.669,-0.08,0.05,0.78,-1.04,-0.66,-1.96,
1.672,-0.09,0.05,0.78,-1.04,-0.66,-1.96,
1.672,-0.09,0.05,0.78,-1.12,-0.66,-2.07,
1.674,-0.08,0.04,0.78,-1.12,-0.66,-2.07,
1.677,-0.08,0.04,0.78,-1.12,-0.66,-2.07,
1.677,-0.08,0.04,0.78,-1.13,-0.72,-2.17,
1.679,-0.09,0.04,0.78,-1.13,-0.72,-2.17,
1.682,-0.09,0.04,0.78,-1.11,-0.77,-2.18,
1.682,-0.09,0.04,0.78,-1.11,-0.77,-2.18,
1.684,-0.08,0.04,0.78,-1.11,-0.77,-2.18,
1.687,-0.08,0.04,0.78,-1.11,-0.77,-2.18,
1.687,-0.08,0.04,0.78,-1.13,-0.83,-2.15,
1.689,-0.08,0.04,0.78,-1.13,-0.83,-2.15,
1.692,-0.08,0.04,0.78,-1.13,-0.83,-2.15,
1.692,-0.08,0.04,0.78,-1.05,-0.83,-2.19,
1.694,-0.08,0.04,0.78,-1.05,-0.83,-2.19,
1.697,-0.07,0.04,0.77,-1.05,-0.83,-2.19,
1.697,-0.07,0.04,0.77,-1.01,-0.83,-2.17,
1.699,-0.08,0.05,0.78,-1.01,-0.83,-2.17,
1.702,-0.08,0.05,0.78,-1.01,-0.83,-2.17,
1.702,-0.08,0.05,0.78,-0.94,-0.80,-2.18,
1.704,-0.07,0.06,0.78,-0.94,-0.80,-2.18,
1.706,-0.07,0.06,0.78,-0.96,-0.74,-2.12,
1.707,-0.07,0.06,0.78,-0.96,-0.74,-2.12,
1.708,-0.07,0.06,0.78,-0.96,-0.74,-2.12,
1.711,-0.07,0.06,0.79,-0.96,-0.74,-2.12,
1.712,-0.07,0.06,0.79,-0.90,-0.69,-2.13,
1.714,-0.07,0.07,0.79,-0.90,-0.69,-2.13,
1.716,-0.07,0.07,0.79,-0.90,-0.69,-2.13,
1.717,-0.07,0.07,0.79,-0.86,-0.66,-2.06,
1.719,-0.06,0.08,0.79,-0.86,-0.66,-2.06,
1.721,-0.06,0.08,0.79,-0.86,-0.66,-2.06,
1.721,-0.06,0.08,0.79,-0.84,-0.54,-2.02,
1.723,-0.05,0.08,0.79,-0.84,-0.54,-2.02,
1.731,-0.05,0.09,0.80,-0.84,-0.54,-2.02,
1.732,-0.05,0.09,0.80,-0.77,-0.49,-1.97,
1.732,-0.05,0.10,0.79,-0.77,-0.49,-1.97,
1.732,-0.05,0.10,0.79,-0.67,-0.41,-1.97,
1.733,-0.04,0.10,0.79,-0.67,-0.41,-1.97,
1.734,-0.04,0.10,0.79,-0.67,-0.41,-1.97,
1.737,-0.03,0.11,0.78,-0.67,-0.41,-1.97,
1.737,-0.03,0.11,0.78,-0.58,-0.33,-1.98,
1.738,-0.03,0.11,0.78,-0.58,-0.33,-1.98,
1.741,-0.02,0.11,0.78,-0.58,-0.33,-1.98,
1.741,-0.02,0.11,0.78,-0.46,-0.23,-2.03,
1.745,-0.02,0.12,0.78,-0.46,-0.23,-2.03,
1.746,-0.01,0.12,0.77,-0.46,-0.23,-2.03,
1.746,-0.01,0.12,0.77,-0.38,-0.17,-2.08,
1.749,-0.01,0.12,0.77,-0.38,-0.17,-2.08,
1.752,-0.00,0.13,0.77,-0.38,-0.17,-2.08,
1.752,-0.00,0.13,0.77,-0.27,-0.12,-2.15,
1.753,0.00,0.13,0.76,-0.27,-0.12,-2.15,
1.756,0.00,0.13,0.76,-0.18,-0.02,-2.18,
1.756,0.00,0.13,0.76,-0.18,-0.02,-2.18,
1.759,0.01,0.12,0.76,-0.18,-0.02,-2.18,
1.761,0.01,0.12,0.77,-0.18,-0.02,-2.18,
1.762,0.01,0.12,0.77,-0.12,-0.03,-2.25,
1.763,0.01,0.12,0.77,-0.12,-0.03,-2.25,
1.767,0.01,0.12,0.78,-0.12,-0.03,-2.25,
1.767,0.01,0.12,0.78,-0.05,-0.07,-2.23,
1.768,0.02,0.12,0.79,-0.05,-0.07,-2.23,
1.772,0.01,0.12,0.80,-0.05,-0.07,-2.23,
1.772,0.01,0.12,0.80,-0.02,-0.12,-2.13,
1.774,0.01,0.11,0.81,-0.02,-0.12,-2.13,
1.776,0.01,0.11,0.81,0.00,-0.12,-1.94,
1.777,0.01,0.11,0.82,0.00,-0.12,-1.94,
1.779,0.01,0.11,0.82,0.00,-0.12,-1.94,
1.782,0.01,0.11,0.82,-0.04,-0.17,-1.76,
1.782,0.00,0.11,0.83,-0.04,-0.17,-1.76,
1.783,-0.00,0.10,0.85,-0.04,-0.17,-1.76,
1.786,-0.00,0.10,0.85,-0.12,-0.19,-1.60,
1.786,-0.01,0.10,0.85,-0.12,-0.19,-1.60,
1.788,-0.01,0.10,0.87,-0.12,-0.19,-1.60,
1.791,-0.01,0.10,0.87,-0.12,-0.19,-1.60,
1.791,-0.01,0.10,0.87,-0.24,-0.27,-1.37,
1.795,-0.02,0.10,0.88,-0.24,-0.27,-1.37,
1.795,-0.03,0.09,0.88,-0.24,-0.27,-1.37,
1.796,-0.03,0.09,0.88,-0.30,-0.32,-1.18,
1.798,-0.03,0.09,0.89,-0.30,-0.32,-1.18,
1.802,-0.03,0.09,0.89,-0.43,-0.35,-1.06,
1.803,-0.03,0.08,0.90,-0.43,-0.35,-1.06,
1.803,-0.03,0.07,0.89,-0.43,-0.35,-1.06,
1.805,-0.03,0.07,0.89,-0.53,-0.48,-0.91,
1.806,-0.04,0.07,0.90,-0.53,-0.48,-0.91,
1.812,-0.05,0.06,0.90,-0.53,-0.48,-0.91,
1.812,-0.06,0.05,0.89,-0.53,-0.48,-0.91,
1.813,-0.06,0.05,0.89,-0.61,-0.59,-0.93,
1.813,-0.07,0.03,0.88,-0.61,-0.59,-0.93,
1.819,-0.09,0.01,0.88,-0.61,-0.59,-0.93,
1.82,-0.09,0.01,0.88,-0.79,-0.76,-0.91,
1.821,-0.10,-0.01,0.88,-0.79,-0.76,-0.91,
1.821,-0.11,-0.01,0.87,-0.79,-0.76,-0.91,
1.821,-0.11,-0.01,0.87,-1.04,-1.10,-1.04,
1.824,-0.11,0.00,0.87,-1.04,-1.10,-1.04,
1.826,-0.11,0.02,0.87,-1.04,-1.10,-1.04,
1.827,-0.11,0.02,0.87,-1.30,-1.39,-1.09,
1.828,-0.10,0.04,0.87,-1.30,-1.39,-1.09,
1.831,-0.10,0.04,0.87,-1.33,-1.21,-1.14,
1.831,-0.09,0.06,0.87,-1.33,-1.21,-1.14,
1.833,-0.07,0.08,0.87,-1.33,-1.21,-1.14,
1.836,-0.07,0.08,0.87,-1.16,-0.85,-1.18,
1.836,-0.06,0.10,0.86,-1.16,-0.85,-1.18,
1.838,-0.05,0.11,0.85,-1.16,-0.85,-1.18,
1.841,-0.04,0.12,0.84,-1.16,-0.85,-1.18,
1.841,-0.04,0.12,0.84,-0.89,-0.51,-1.21,
1.842,-0.04,0.14,0.83,-0.89,-0.51,-1.21,
1.847,-0.03,0.15,0.82,-0.89,-0.51,-1.21,
1.848,-0.03,0.15,0.82,-0.70,-0.23,-1.41,
1.848,-0.03,0.16,0.81,-0.70,-0.23,-1.41,
1.851,-0.03,0.16,0.80,-0.70,-0.23,-1.41,
1.851,-0.03,0.16,0.80,-0.59,0.02,-1.57,
1.852,-0.02,0.17,0.80,-0.59,0.02,-1.57,
1.856,-0.02,0.17,0.80,-0.52,0.17,-1.75,
1.856,-0.02,0.16,0.79,-0.52,0.17,-1.75,
1.858,-0.01,0.16,0.79,-0.52,0.17,-1.75,
1.86,-0.01,0.16,0.79,-0.52,0.17,-1.75,
1.861,-0.01,0.16,0.79,-0.43,0.20,-1.87,
1.863,-0.01,0.15,0.79,-0.43,0.20,-1.87,
1.865,-0.01,0.15,0.79,-0.37,0.17,-1.92,
1.865,-0.01,0.15,0.80,-0.37,0.17,-1.92,
1.868,-0.01,0.14,0.82,-0.37,0.17,-1.92,
1.871,-0.00,0.13,0.82,-0.37,0.17,-1.92,
1.871,-0.00,0.13,0.82,-0.33,0.08,-1.81,
1.872,-0.00,0.13,0.83,-0.33,0.08,-1.81,
1.877,-0.00,0.13,0.84,-0.33,0.08,-1.81,
1.877,-0.00,0.13,0.84,-0.27,-0.03,-1.64,
1.879,0.00,0.13,0.85,-0.27,-0.03,-1.64,
1.881,0.00,0.13,0.85,-0.23,-0.08,-1.47,
1.881,0.00,0.12,0.86,-0.23,-0.08,-1.47,
1.882,0.00,0.13,0.86,-0.23,-0.08,-1.47,
1.885,0.00,0.13,0.87,-0.23,-0.08,-1.47,
1.886,0.00,0.13,0.87,-0.17,-0.10,-1.28,
1.887,0.00,0.13,0.88,-0.17,-0.10,-1.28,
1.89,0.01,0.13,0.89,-0.17,-0.10,-1.28,
1.891,0.01,0.13,0.89,-0.15,-0.08,-1.13,
1.893,0.01,0.13,0.90,-0.15,-0.08,-1.13,
1.895,0.01,0.13,0.91,-0.15,-0.08,-1.13,
1.896,0.01,0.13,0.91,-0.14,-0.04,-0.94,
1.897,0.01,0.13,0.92,-0.14,-0.04,-0.94,
1.9,0.01,0.13,0.93,-0.14,-0.04,-0.94,
1.901,0.01,0.13,0.93,-0.10,-0.03,-0.78,
1.902,0.01,0.13,0.93,-0.10,-0.03,-0.78,
1.905,0.01,0.13,0.93,-0.07,0.00,-0.62,
1.905,0.01,0.13,0.94,-0.07,0.00,-0.62,
1.907,0.02,0.13,0.94,-0.07,0.00,-0.62,
1.91,0.01,0.13,0.94,-0.07,0.00,-0.62,
1.91,0.01,0.13,0.94,-0.07,0.05,-0.47,
1.912,0.01,0.13,0.94,-0.07,0.05,-0.47,
1.916,0.01,0.13,0.95,-0.07,0.05,-0.47,
1.916,0.01,0.13,0.95,-0.05,0.02,-0.41,
1.918,0.01,0.13,0.95,-0.05,0.02,-0.41,
1.92,0.01,0.13,0.95,-0.05,0.02,-0.41,
1.92,0.01,0.13,0.95,-0.08,0.06,-0.35,
1.922,0.00,0.13,0.96,-0.08,0.06,-0.35,
1.925,-0.00,0.13,0.95,-0.08,0.06,-0.35,
1.925,-0.00,0.13,0.95,-0.11,0.03,-0.35,
1.929,-0.00,0.14,0.95,-0.11,0.03,-0.35,
1.931,-0.00,0.14,0.95,-0.18,0.09,-0.29,
1.931,-0.01,0.13,0.95,-0.18,0.09,-0.29,
1.932,-0.01,0.13,0.95,-0.18,0.09,-0.29,
1.935,-0.01,0.14,0.94,-0.18,0.09,-0.29,
1.935,-0.01,0.14,0.94,-0.23,0.11,-0.31,
1.937,-0.01,0.14,0.94,-0.23,0.11,-0.31,
1.94,-0.01,0.14,0.94,-0.23,0.11,-0.31,
1.94,-0.01,0.14,0.94,-0.25,0.12,-0.35,
1.941,-0.01,0.14,0.94,-0.25,0.12,-0.35,
1.949,-0.01,0.14,0.92,-0.25,0.12,-0.35,
1.95,-0.01,0.14,0.92,-0.27,0.15,-0.40,
1.95,-0.02,0.14,0.92,-0.27,0.15,-0.40,
1.952,-0.01,0.14,0.92,-0.27,0.15,-0.40,
1.952,-0.01,0.14,0.92,-0.30,0.18,-0.53,
1.953,-0.01,0.14,0.91,-0.30,0.18,-0.53,
1.954,-0.01,0.14,0.91,-0.28,0.15,-0.65,
1.954,-0.01,0.14,0.90,-0.28,0.15,-0.65,
1.956,-0.01,0.14,0.90,-0.28,0.15,-0.65,
1.959,-0.01,0.13,0.90,-0.28,0.15,-0.65,
1.959,-0.01,0.13,0.90,-0.27,0.11,-0.76,
1.964,-0.01,0.14,0.90,-0.27,0.11,-0.76,
1.965,-0.01,0.14,0.90,-0.27,0.11,-0.76,
1.965,-0.01,0.14,0.90,-0.24,0.12,-0.82,
1.966,-0.01,0.14,0.89,-0.24,0.12,-0.82,
1.969,-0.01,0.14,0.89,-0.24,0.12,-0.82,
1.969,-0.01,0.14,0.89,-0.23,0.13,-0.86,
1.971,-0.01,0.14,0.89,-0.23,0.13,-0.86,
1.975,-0.01,0.14,0.90,-0.23,0.13,-0.86,
1.975,-0.01,0.14,0.90,-0.26,0.11,-0.88,
1.976,-0.01,0.14,0.90,-0.26,0.11,-0.88,
1.981,-0.01,0.14,0.90,-0.25,0.15,-0.89,
1.982,-0.01,0.15,0.90,-0.25,0.15,-0.89,
1.982,-0.01,0.15,0.90,-0.25,0.15,-0.89,
1.984,-0.00,0.14,0.91,-0.25,0.15,-0.89,
1.984,-0.00,0.14,0.91,-0.24,0.20,-0.81,
1.987,0.00,0.14,0.92,-0.24,0.20,-0.81,
1.989,0.00,0.15,0.92,-0.24,0.20,-0.81,
1.989,0.00,0.15,0.92,-0.19,0.22,-0.75,
1.991,0.01,0.14,0.93,-0.19,0.22,-0.75,
1.997,0.02,0.14,0.93,-0.19,0.22,-0.75,
2.002,0.02,0.14,0.93,-0.09,0.22,-0.61,
2.003,0.02,0.14,0.94,-0.09,0.22,-0.61,
2.003,0.03,0.14,0.95,-0.09,0.22,-0.61,
2.003,0.03,0.14,0.95,0.02,0.22,-0.53,
2.003,0.03,0.14,0.96,0.02,0.22,-0.53,
2.003,0.03,0.14,0.96,0.09,0.19,-0.37,
2.004,0.03,0.13,0.97,0.09,0.19,-0.37,
2.006,0.03,0.14,0.98,0.09,0.19,-0.37,
2.009,0.04,0.14,0.99,0.09,0.19,-0.37,
2.01,0.04,0.14,0.99,0.14,0.16,-0.14,
2.014,0.04,0.13,1.00,0.14,0.16,-0.14,
2.014,0.04,0.14,1.00,0.14,0.16,-0.14,
2.015,0.04,0.14,1.00,0.19,0.19,0.04,
2.016,0.05,0.14,1.01,0.19,0.19,0.04,
2.019,0.05,0.15,1.01,0.19,0.19,0.04,
2.019,0.05,0.15,1.01,0.25,0.19,0.21,
2.021,0.04,0.14,1.02,0.25,0.19,0.21,
2.024,0.05,0.15,1.02,0.25,0.19,0.21,
2.024,0.05,0.15,1.02,0.28,0.29,0.24,
2.026,0.05,0.15,1.02,0.28,0.29,0.24,
2.029,0.05,0.15,1.02,0.27,0.28,0.31,
2.03,0.05,0.15,1.02,0.27,0.28,0.31,
2.031,0.05,0.15,1.03,0.27,0.28,0.31,
2.034,0.05,0.15,1.03,0.27,0.28,0.31,
2.034,0.05,0.15,1.03,0.29,0.38,0.35,
2.035,0.05,0.15,1.03,0.29,0.38,0.35,
2.039,0.05,0.15,1.03,0.29,0.38,0.35,
2.039,0.05,0.15,1.03,0.27,0.38,0.46,
2.041,0.05,0.15,1.03,0.27,0.38,0.46,
2.044,0.05,0.15,1.02,0.27,0.38,0.46,
2.044,0.05,0.15,1.02,0.25,0.38,0.45,
2.049,0.05,0.16,1.02,0.25,0.38,0.45,
2.05,0.05,0.16,1.02,0.29,0.40,0.41,
2.05,0.04,0.15,1.02,0.29,0.40,0.41,
2.051,0.04,0.15,1.02,0.29,0.40,0.41,
2.054,0.04,0.15,1.02,0.23,0.40,0.34,
2.054,0.04,0.15,1.02,0.23,0.40,0.34,
2.055,0.04,0.15,1.01,0.23,0.40,0.34,
2.059,0.05,0.15,1.01,0.23,0.40,0.34,
2.059,0.05,0.15,1.01,0.21,0.34,0.32,
2.061,0.04,0.15,1.00,0.21,0.34,0.32,
2.064,0.04,0.14,1.00,0.21,0.34,0.32,
2.065,0.04,0.14,1.00,0.22,0.34,0.26,
2.065,0.04,0.15,0.99,0.22,0.34,0.26,
2.068,0.04,0.15,0.99,0.22,0.34,0.26,
2.069,0.04,0.15,0.99,0.22,0.33,0.18,
2.07,0.05,0.15,0.99,0.22,0.33,0.18,
2.073,0.04,0.15,0.99,0.22,0.33,0.18,
2.074,0.04,0.15,0.99,0.20,0.32,0.05,
2.075,0.04,0.15,0.98,0.20,0.32,0.05,
2.08,0.04,0.15,0.98,0.24,0.34,0.07,
2.081,0.04,0.15,0.98,0.24,0.34,0.07,
2.081,0.04,0.15,0.98,0.24,0.34,0.07,
2.084,0.04,0.14,0.98,0.24,0.34,0.07,
2.084,0.04,0.14,0.98,0.21,0.31,-0.02,
2.085,0.04,0.15,0.98,0.21,0.31,-0.02,
2.088,0.04,0.15,0.98,0.22,0.28,-0.00,
2.088,0.05,0.15,0.98,0.22,0.28,-0.00,
2.09,0.04,0.15,0.98,0.22,0.28,-0.00,
2.093,0.05,0.14,0.98,0.22,0.28,-0.00,
2.093,0.05,0.14,0.98,0.22,0.32,-0.05,
2.096,0.04,0.14,0.98,0.22,0.32,-0.05,
2.098,0.04,0.14,0.98,0.22,0.32,-0.05,
2.098,0.04,0.14,0.98,0.24,0.28,-0.03,
2.102,0.04,0.14,0.99,0.24,0.28,-0.03,
2.103,0.04,0.14,0.99,0.20,0.25,-0.01,
2.103,0.04,0.14,0.99,0.20,0.25,-0.01,
2.105,0.04,0.14,0.99,0.20,0.25,-0.01,
2.107,0.04,0.14,0.99,0.20,0.25,-0.01,
2.107,0.04,0.14,0.99,0.21,0.25,0.04,
2.11,0.04,0.14,0.99,0.21,0.25,0.04,
2.113,0.05,0.14,0.99,0.21,0.25,0.04,
2.113,0.05,0.14,0.99,0.20,0.23,0.09,
2.115,0.04,0.14,0.99,0.20,0.23,0.09,
2.118,0.04,0.14,0.99,0.22,0.23,0.08,
2.118,0.04,0.14,0.99,0.22,0.23,0.08,
2.12,0.05,0.14,0.99,0.22,0.23,0.08,
2.122,0.05,0.14,0.99,0.22,0.23,0.08,
2.123,0.05,0.14,0.99,0.19,0.23,0.08,
2.125,0.04,0.14,1.00,0.19,0.23,0.08,
2.133,0.04,0.14,1.00,0.24,0.25,0.09,
2.134,0.04,0.14,0.99,0.24,0.25,0.09,
2.134,0.04,0.13,0.99,0.24,0.25,0.09,
2.134,0.04,0.13,1.00,0.24,0.25,0.09,
2.134,0.04,0.13,1.00,0.20,0.24,0.11,
2.135,0.04,0.13,1.00,0.20,0.24,0.11,
2.137,0.03,0.13,1.00,0.20,0.24,0.11,
2.14,0.03,0.13,1.00,0.18,0.19,0.10,
2.14,0.03,0.13,1.00,0.18,0.19,0.10,
2.143,0.03,0.13,1.01,0.18,0.19,0.10,
2.143,0.03,0.13,1.01,0.14,0.15,0.15,
2.145,0.03,0.12,1.01,0.14,0.15,0.15,
2.147,0.03,0.12,1.01,0.14,0.15,0.15,
2.148,0.03,0.12,1.01,0.06,0.13,0.20,
2.15,0.02,0.12,1.02,0.06,0.13,0.20,
2.154,0.02,0.12,1.02,0.06,0.13,0.20,
2.154,0.02,0.12,1.02,0.05,0.09,0.26,
2.154,0.01,0.12,1.02,0.05,0.09,0.26,
2.158,0.01,0.11,1.02,0.05,0.09,0.26,
2.158,0.01,0.11,1.02,-0.02,0.07,0.33,
2.16,0.02,0.12,1.02,-0.02,0.07,0.33,
2.163,0.01,0.12,1.02,-0.02,0.07,0.33,
2.163,0.01,0.12,1.02,-0.06,0.03,0.35,
2.165,0.01,0.12,1.03,-0.06,0.03,0.35,
2.167,0.01,0.12,1.03,-0.06,0.03,0.35,
2.168,0.01,0.12,1.03,-0.06,0.05,0.37,
2.169,0.01,0.12,1.03,-0.06,0.05,0.37,
2.173,0.01,0.12,1.02,-0.06,0.05,0.37,
2.173,0.01,0.12,1.02,-0.12,0.04,0.44,
2.175,0.01,0.12,1.03,-0.12,0.04,0.44,
2.177,0.01,0.12,1.03,-0.08,0.03,0.39,
2.178,0.01,0.12,1.03,-0.08,0.03,0.39,
2.18,0.00,0.12,1.02,-0.08,0.03,0.39,
2.182,0.00,0.12,1.02,-0.12,0.03,0.40,
2.182,0.00,0.11,1.02,-0.12,0.03,0.40,
2.185,0.01,0.12,1.01,-0.12,0.03,0.40,
2.188,0.01,0.11,1.00,-0.12,0.03,0.40,
2.188,0.01,0.11,1.00,-0.15,0.02,0.31,
2.19,0.01,0.12,1.00,-0.15,0.02,0.31,
2.192,0.01,0.12,0.98,-0.15,0.02,0.31,
2.193,0.01,0.12,0.98,-0.08,0.02,0.20,
2.195,0.01,0.11,0.91,-0.08,0.02,0.20,
2.197,0.02,0.12,0.81,-0.08,0.02,0.20,
2.197,0.02,0.12,0.81,-0.04,0.05,0.04,
2.199,0.06,0.13,0.79,-0.04,0.05,0.04,
2.204,0.06,0.13,0.79,-0.03,0.01,-1.22,
2.205,0.06,0.13,0.82,-0.03,0.01,-1.22,
2.205,0.04,0.12,0.87,-0.03,0.01,-1.22,
2.207,0.01,0.12,0.90,-0.03,0.01,-1.22,
2.208,0.01,0.12,0.90,0.45,0.15,-1.77,
2.208,-0.00,0.12,0.91,0.45,0.15,-1.77,
2.216,-0.01,0.12,0.92,0.45,0.15,-1.77,
2.216,-0.01,0.12,0.92,0.11,0.10,-1.00,
2.216,-0.01,0.11,0.92,0.11,0.10,-1.00,
2.217,-0.02,0.12,0.92,0.11,0.10,-1.00,
2.217,-0.02,0.12,0.92,-0.19,0.08,-0.68,
2.219,-0.03,0.12,0.92,-0.19,0.08,-0.68,
2.221,-0.02,0.12,0.92,-0.19,0.08,-0.68,
2.222,-0.02,0.12,0.92,-0.29,0.04,-0.62,
2.225,-0.01,0.11,0.94,-0.29,0.04,-0.62,
2.227,-0.00,0.11,0.94,-0.29,0.04,-0.62,
2.227,-0.00,0.11,0.94,-0.35,0.09,-0.60,
2.23,0.01,0.11,0.96,-0.35,0.09,-0.60,
2.231,0.02,0.10,0.98,-0.35,0.09,-0.60,
2.232,0.02,0.10,0.98,-0.17,0.07,-0.43,
2.233,0.02,0.10,0.99,-0.17,0.07,-0.43,
2.237,0.02,0.10,1.01,-0.17,0.07,-0.43,
2.237,0.02,0.10,1.01,-0.00,0.02,-0.14,
2.239,0.02,0.09,1.02,-0.00,0.02,-0.14,
2.241,0.02,0.09,1.03,-0.00,0.02,-0.14,
2.242,0.02,0.09,1.03,0.08,-0.04,0.14,
2.243,0.01,0.09,1.05,0.08,-0.04,0.14,
2.25,0.01,0.09,1.06,0.08,-0.04,0.14,
2.251,0.01,0.09,1.06,0.06,-0.11,0.37,
2.251,0.01,0.09,1.07,0.06,-0.11,0.37,
2.253,0.01,0.09,1.08,0.06,-0.11,0.37,
2.253,0.01,0.09,1.08,-0.01,-0.11,0.65,
2.254,0.01,0.09,1.09,-0.01,-0.11,0.65,
2.256,0.00,0.09,1.09,-0.01,-0.11,0.65,
2.256,0.00,0.09,1.09,-0.06,-0.09,0.89,
2.258,0.00,0.08,1.10,-0.06,-0.09,0.89,
2.263,0.00,0.08,1.11,-0.06,-0.09,0.89,
2.263,0.00,0.08,1.11,-0.08,-0.12,1.03,
2.264,-0.00,0.08,1.12,-0.08,-0.12,1.03,
2.266,-0.00,0.08,1.13,-0.08,-0.12,1.03,
2.266,-0.00,0.08,1.13,-0.11,-0.17,1.15,
2.268,0.00,0.08,1.11,-0.11,-0.17,1.15,
2.271,0.00,0.08,1.11,-0.16,-0.19,1.33,
2.271,0.01,0.08,1.11,-0.16,-0.19,1.33,
2.273,0.01,0.08,1.11,-0.16,-0.19,1.33,
2.276,0.01,0.08,1.10,-0.16,-0.19,1.33,
2.276,0.01,0.08,1.10,-0.10,-0.17,1.23,
2.28,0.03,0.08,1.08,-0.10,-0.17,1.23,
2.281,0.03,0.08,1.07,-0.10,-0.17,1.23,
2.282,0.03,0.08,1.07,-0.01,-0.18,1.13,
2.283,0.04,0.09,1.04,-0.01,-0.18,1.13,
2.286,0.06,0.10,1.03,-0.01,-0.18,1.13,
2.286,0.06,0.10,1.03,0.15,-0.18,0.86,
2.288,0.06,0.10,1.02,0.15,-0.18,0.86,
2.292,0.06,0.10,1.00,0.15,-0.18,0.86,
2.292,0.06,0.10,1.00,0.32,-0.10,0.48,
2.293,0.07,0.10,0.98,0.32,-0.10,0.48,
2.297,0.07,0.11,0.97,0.32,-0.10,0.48,
2.298,0.07,0.11,0.97,0.43,-0.05,0.23,
2.298,0.07,0.11,0.96,0.43,-0.05,0.23,
