
time,gFx,gFy,gFz,ax,ay,az,
0.004,-0.06,0.08,1.03,0.00,0.11,0.17,
0.005,-0.06,0.08,1.04,0.00,0.11,0.17,
0.005,-0.06,0.08,1.04,-0.08,0.16,0.32,
0.005,-0.06,0.08,1.05,-0.08,0.16,0.32,
0.005,-0.06,0.07,1.05,-0.08,0.16,0.32,
0.005,-0.06,0.07,1.05,-0.14,0.13,0.46,
0.006,-0.05,0.07,1.07,-0.14,0.13,0.46,
0.011,-0.05,0.06,1.07,-0.14,0.13,0.46,
0.011,-0.05,0.06,1.07,-0.12,0.14,0.59,
0.011,-0.04,0.06,1.07,-0.12,0.14,0.59,
0.013,-0.04,0.06,1.08,-0.12,0.14,0.59,
0.013,-0.04,0.06,1.08,-0.03,0.05,0.80,
0.015,-0.04,0.05,1.09,-0.03,0.05,0.80,
0.028,-0.04,0.05,1.09,0.04,0.01,0.83,
0.028,-0.04,0.05,1.09,0.04,0.01,0.83,
0.029,-0.03,0.05,1.09,0.04,0.01,0.83,
0.029,-0.03,0.05,1.08,0.04,0.01,0.83,
0.029,-0.03,0.05,1.08,0.09,-0.05,0.95,
0.029,-0.03,0.05,1.08,0.09,-0.05,0.95,
0.03,-0.03,0.05,1.07,0.09,-0.05,0.95,
0.03,-0.03,0.05,1.07,0.18,-0.05,0.91,
0.03,-0.04,0.05,1.07,0.18,-0.05,0.91,
0.032,-0.04,0.05,1.06,0.18,-0.05,0.91,
0.032,-0.04,0.05,1.06,0.12,-0.03,0.81,
0.042,-0.05,0.05,1.05,0.12,-0.03,0.81,
0.043,-0.06,0.05,1.04,0.12,-0.03,0.81,
0.043,-0.06,0.05,1.04,0.04,-0.02,0.65,
0.044,-0.06,0.05,1.03,0.04,-0.02,0.65,
0.044,-0.06,0.05,1.03,-0.10,-0.04,0.51,
0.044,-0.06,0.05,1.03,-0.10,-0.04,0.51,
0.044,-0.06,0.05,1.02,-0.10,-0.04,0.51,
0.048,-0.06,0.05,1.02,-0.10,-0.04,0.51,
0.048,-0.06,0.05,1.02,-0.15,-0.05,0.35,
0.05,-0.04,0.05,1.04,-0.15,-0.05,0.35,
0.058,-0.04,0.05,1.03,-0.15,-0.05,0.35,
0.058,-0.04,0.05,1.03,-0.13,-0.02,0.26,
0.058,-0.03,0.04,1.03,-0.13,-0.02,0.26,
0.059,-0.02,0.05,1.02,-0.13,-0.02,0.26,
0.059,-0.02,0.05,1.02,0.02,-0.05,0.38,
0.059,-0.01,0.06,1.02,0.02,-0.05,0.38,
0.062,-0.01,0.06,1.02,0.02,-0.05,0.38,
0.063,-0.01,0.06,1.02,0.15,-0.07,0.32,
0.065,-0.01,0.06,1.02,0.15,-0.07,0.32,
0.078,-0.01,0.06,1.02,0.29,0.03,0.22,
0.078,-0.01,0.06,1.03,0.29,0.03,0.22,
0.079,-0.01,0.06,1.04,0.29,0.03,0.22,
0.079,-0.00,0.06,1.03,0.29,0.03,0.22,
0.079,-0.00,0.06,1.03,0.29,0.06,0.26,
0.079,0.00,0.06,1.04,0.29,0.06,0.26,
0.079,0.00,0.06,1.04,0.32,0.09,0.36,
0.08,0.01,0.06,1.04,0.32,0.09,0.36,
0.08,0.01,0.07,1.05,0.32,0.09,0.36,
0.082,0.01,0.06,1.06,0.32,0.09,0.36,
0.083,0.01,0.06,1.06,0.37,0.12,0.42,
0.093,0.02,0.06,1.07,0.37,0.12,0.42,
0.093,0.02,0.07,1.08,0.37,0.12,0.42,
0.093,0.02,0.07,1.08,0.41,0.12,0.58,
0.094,0.03,0.06,1.08,0.41,0.12,0.58,
0.094,0.03,0.06,1.08,0.51,0.12,0.70,
0.094,0.03,0.07,1.09,0.51,0.12,0.70,
0.094,0.03,0.07,1.09,0.51,0.12,0.70,
0.097,0.03,0.07,1.09,0.51,0.12,0.70,
0.097,0.03,0.07,1.09,0.55,0.13,0.85,
0.099,0.03,0.07,1.09,0.55,0.13,0.85,
0.107,0.03,0.07,1.10,0.55,0.13,0.85,
0.107,0.03,0.07,1.10,0.54,0.17,0.88,
0.108,0.03,0.07,1.10,0.54,0.17,0.88,
0.108,0.03,0.07,1.10,0.54,0.21,0.91,
0.108,0.03,0.07,1.10,0.54,0.21,0.91,
0.108,0.03,0.07,1.10,0.54,0.21,0.91,
0.112,0.02,0.07,1.10,0.54,0.21,0.91,
0.112,0.02,0.07,1.10,0.49,0.17,0.98,
0.115,0.02,0.06,1.11,0.49,0.17,0.98,
0.117,0.02,0.06,1.11,0.48,0.15,0.97,
0.117,0.02,0.06,1.10,0.48,0.15,0.97,
0.124,0.02,0.06,1.10,0.48,0.15,0.97,
0.125,0.02,0.05,1.09,0.48,0.15,0.97,
0.125,0.02,0.05,1.09,0.41,0.06,0.98,
0.125,0.02,0.05,1.09,0.41,0.06,0.98,
0.127,0.02,0.05,1.08,0.41,0.06,0.98,
0.127,0.02,0.05,1.08,0.39,-0.00,0.88,
0.129,0.01,0.05,1.08,0.39,-0.00,0.88,
0.132,0.01,0.04,1.07,0.39,-0.00,0.88,
0.132,0.01,0.04,1.07,0.38,-0.08,0.76,
0.139,-0.00,0.04,1.06,0.38,-0.08,0.76,
0.14,-0.00,0.05,1.05,0.38,-0.08,0.76,
0.14,-0.00,0.05,1.05,0.28,-0.14,0.67,
0.14,-0.01,0.05,1.04,0.28,-0.14,0.67,
0.141,-0.01,0.05,1.04,0.16,-0.14,0.48,
0.141,-0.02,0.05,1.03,0.16,-0.14,0.48,
0.144,-0.02,0.06,1.02,0.16,-0.14,0.48,
0.147,-0.02,0.06,1.02,0.16,-0.14,0.48,
0.148,-0.02,0.06,1.02,0.02,-0.12,0.29,
0.148,-0.02,0.06,1.02,0.02,-0.12,0.29,
0.154,-0.02,0.07,1.01,0.02,-0.12,0.29,
0.155,-0.02,0.07,1.01,0.03,-0.03,0.15,
0.155,-0.01,0.07,1.00,0.03,-0.03,0.15,
0.157,-0.00,0.08,1.01,0.03,-0.03,0.15,
0.157,-0.00,0.08,1.01,0.02,0.01,0.06,
0.159,0.00,0.07,1.01,0.02,0.01,0.06,
0.162,0.01,0.08,1.01,0.02,0.01,0.06,
0.162,0.01,0.08,1.01,0.13,0.05,-0.02,
0.163,0.02,0.08,1.01,0.13,0.05,-0.02,
0.166,0.02,0.08,1.02,0.13,0.05,-0.02,
0.167,0.02,0.08,1.02,0.25,0.07,0.01,
0.172,0.04,0.08,1.02,0.25,0.07,0.01,
0.172,0.04,0.09,1.03,0.25,0.07,0.01,
0.172,0.04,0.09,1.03,0.38,0.09,0.08,
0.173,0.05,0.09,1.03,0.38,0.09,0.08,
0.176,0.05,0.09,1.03,0.38,0.09,0.08,
0.176,0.05,0.09,1.03,0.58,0.14,0.17,
0.178,0.06,0.09,1.03,0.58,0.14,0.17,
0.181,0.06,0.10,1.03,0.58,0.14,0.17,
0.181,0.06,0.10,1.03,0.66,0.17,0.23,
0.194,0.06,0.10,1.03,0.66,0.17,0.23,
0.195,0.06,0.09,1.04,0.66,0.17,0.23,
0.195,0.06,0.09,1.04,0.72,0.19,0.25,
0.196,0.05,0.10,1.04,0.72,0.19,0.25,
0.196,0.05,0.10,1.04,0.72,0.21,0.30,
0.196,0.05,0.10,1.04,0.72,0.21,0.30,
0.197,0.05,0.10,1.04,0.72,0.21,0.30,
0.197,0.05,0.10,1.04,0.72,0.21,0.30,
0.197,0.05,0.10,1.04,0.71,0.21,0.33,
0.198,0.05,0.10,1.04,0.71,0.21,0.33,
0.208,0.05,0.10,1.04,0.71,0.21,0.33,
0.208,0.05,0.10,1.04,0.68,0.23,0.33,
0.209,0.05,0.10,1.04,0.68,0.23,0.33,
0.209,0.04,0.11,1.05,0.68,0.23,0.33,
0.209,0.04,0.11,1.05,0.68,0.25,0.33,
0.209,0.04,0.10,1.05,0.68,0.25,0.33,
0.211,0.04,0.10,1.05,0.63,0.26,0.35,
0.211,0.05,0.11,1.05,0.63,0.26,0.35,
0.213,0.04,0.11,1.06,0.63,0.26,0.35,
0.216,0.04,0.11,1.06,0.60,0.25,0.44,
0.216,0.04,0.11,1.05,0.60,0.25,0.44,
0.225,0.04,0.11,1.06,0.60,0.25,0.44,
0.226,0.04,0.10,1.06,0.60,0.25,0.44,
0.226,0.04,0.10,1.06,0.59,0.25,0.44,
0.226,0.05,0.11,1.06,0.59,0.25,0.44,
0.227,0.05,0.11,1.04,0.59,0.25,0.44,
0.227,0.05,0.11,1.04,0.58,0.24,0.49,
0.228,0.04,0.11,1.05,0.58,0.24,0.49,
0.23,0.04,0.11,1.05,0.68,0.25,0.40,
0.231,0.05,0.11,1.04,0.68,0.25,0.40,
0.232,0.05,0.11,1.03,0.68,0.25,0.40,
0.24,0.05,0.11,1.04,0.68,0.25,0.40,
0.241,0.05,0.11,1.04,0.67,0.25,0.37,
0.241,0.05,0.11,1.03,0.67,0.25,0.37,
0.242,0.05,0.11,1.03,0.72,0.26,0.29,
0.242,0.05,0.12,1.03,0.72,0.26,0.29,
0.242,0.06,0.12,1.03,0.72,0.26,0.29,
0.245,0.06,0.12,1.02,0.72,0.26,0.29,
0.245,0.06,0.12,1.02,0.73,0.28,0.22,
0.247,0.05,0.12,1.03,0.73,0.28,0.22,
0.256,0.06,0.13,1.02,0.73,0.28,0.22,
0.257,0.06,0.13,1.02,0.76,0.31,0.15,
0.257,0.05,0.13,1.03,0.76,0.31,0.15,
0.257,0.05,0.13,1.02,0.76,0.31,0.15,
0.257,0.05,0.13,1.02,0.73,0.36,0.16,
0.257,0.06,0.14,1.01,0.73,0.36,0.16,
0.26,0.06,0.14,1.01,0.73,0.36,0.16,
0.26,0.06,0.14,1.01,0.72,0.43,0.16,
0.263,0.06,0.14,1.02,0.72,0.43,0.16,
0.265,0.06,0.14,1.02,0.80,0.48,0.03,
0.265,0.06,0.15,1.02,0.80,0.48,0.03,
0.267,0.06,0.14,1.02,0.80,0.48,0.03,
0.272,0.06,0.15,1.03,0.80,0.48,0.03,
0.272,0.06,0.15,1.03,0.80,0.51,0.10,
0.272,0.07,0.15,1.03,0.80,0.51,0.10,
0.275,0.07,0.15,1.02,0.80,0.51,0.10,
0.275,0.07,0.15,1.02,0.80,0.51,0.16,
0.278,0.06,0.14,1.04,0.80,0.51,0.16,
0.28,0.07,0.15,1.04,0.80,0.51,0.16,
0.28,0.07,0.15,1.04,0.88,0.51,0.16,
0.282,0.07,0.15,1.04,0.88,0.51,0.16,
0.295,0.08,0.15,1.05,0.88,0.51,0.16,
0.295,0.08,0.15,1.05,0.85,0.48,0.30,
0.296,0.08,0.15,1.05,0.85,0.48,0.30,
0.296,0.08,0.15,1.05,0.90,0.46,0.35,
0.296,0.08,0.14,1.05,0.90,0.46,0.35,
0.296,0.08,0.14,1.05,0.90,0.46,0.35,
0.296,0.08,0.15,1.05,0.90,0.46,0.35,
0.297,0.08,0.15,1.05,0.96,0.43,0.41,
0.297,0.08,0.14,1.06,0.96,0.43,0.41,
0.3,0.08,0.14,1.06,0.96,0.43,0.41,
0.3,0.08,0.14,1.06,0.98,0.41,0.44,
0.308,0.08,0.14,1.04,0.98,0.41,0.44,
0.309,0.09,0.13,1.04,0.98,0.41,0.44,
0.309,0.09,0.13,1.04,0.96,0.35,0.45,
0.309,0.08,0.13,1.04,0.96,0.35,0.45,
0.309,0.08,0.14,1.03,0.96,0.35,0.45,
0.31,0.08,0.14,1.03,0.99,0.29,0.33,
0.312,0.08,0.13,1.02,0.99,0.29,0.33,
0.315,0.08,0.13,1.01,0.99,0.29,0.33,
0.315,0.08,0.13,1.01,0.97,0.27,0.23,
0.317,0.07,0.13,1.01,0.97,0.27,0.23,
0.327,0.07,0.13,1.00,0.97,0.27,0.23,
0.328,0.07,0.13,1.00,0.95,0.24,0.07,
0.328,0.06,0.13,0.99,0.95,0.24,0.07,
0.328,0.06,0.13,0.98,0.95,0.24,0.07,
0.331,0.06,0.13,0.98,0.86,0.19,-0.06,
0.331,0.05,0.13,0.98,0.86,0.19,-0.06,
0.331,0.05,0.13,0.97,0.86,0.19,-0.06,
0.331,0.05,0.13,0.97,0.79,0.18,-0.23,
0.332,0.05,0.13,0.96,0.79,0.18,-0.23,
0.334,0.05,0.13,0.96,0.79,0.18,-0.23,
0.334,0.05,0.13,0.96,0.73,0.17,-0.35,
0.341,0.04,0.12,0.95,0.73,0.17,-0.35,
0.341,0.04,0.12,0.95,0.69,0.16,-0.50,
0.342,0.04,0.13,0.95,0.69,0.16,-0.50,
0.342,0.04,0.13,0.95,0.69,0.16,-0.50,
0.345,0.04,0.12,0.95,0.69,0.16,-0.50,
0.345,0.04,0.12,0.95,0.65,0.10,-0.60,
0.347,0.03,0.12,0.94,0.65,0.10,-0.60,
0.35,0.03,0.12,0.94,0.65,0.10,-0.60,
0.35,0.03,0.12,0.94,0.60,0.07,-0.60,
0.357,0.03,0.12,0.95,0.60,0.07,-0.60,
0.358,0.03,0.12,0.95,0.60,0.07,-0.60,
0.359,0.03,0.12,0.95,0.52,0.06,-0.62,
0.359,0.03,0.12,0.95,0.52,0.06,-0.62,
0.359,0.02,0.12,0.96,0.52,0.06,-0.62,
0.359,0.02,0.12,0.96,0.53,0.04,-0.58,
0.361,0.03,0.13,0.96,0.53,0.04,-0.58,
0.364,0.03,0.13,0.96,0.51,0.03,-0.50,
0.364,0.03,0.13,0.96,0.51,0.03,-0.50,
0.366,0.03,0.13,0.97,0.51,0.03,-0.50,
0.373,0.03,0.13,0.97,0.52,0.06,-0.42,
0.374,0.03,0.13,0.97,0.52,0.06,-0.42,
0.374,0.03,0.13,0.98,0.52,0.06,-0.42,
0.374,0.04,0.13,0.97,0.52,0.06,-0.42,
0.374,0.04,0.13,0.97,0.55,0.05,-0.33,
0.376,0.04,0.13,0.97,0.55,0.05,-0.33,
0.379,0.04,0.13,0.97,0.55,0.05,-0.33,
0.379,0.04,0.13,0.97,0.58,0.03,-0.28,
0.381,0.05,0.13,0.98,0.58,0.03,-0.28,
0.383,0.05,0.14,0.98,0.58,0.03,-0.28,
0.384,0.05,0.14,0.98,0.65,0.06,-0.29,
0.391,0.05,0.14,0.97,0.65,0.06,-0.29,
0.392,0.05,0.14,0.97,0.74,0.08,-0.25,
0.392,0.05,0.14,0.97,0.74,0.08,-0.25,
0.392,0.06,0.14,0.96,0.74,0.08,-0.25,
0.393,0.06,0.15,0.95,0.74,0.08,-0.25,
0.394,0.06,0.15,0.95,0.74,0.14,-0.35,
0.395,0.06,0.14,0.96,0.74,0.14,-0.35,
0.398,0.06,0.15,0.95,0.74,0.14,-0.35,
0.398,0.06,0.15,0.95,0.80,0.15,-0.46,
0.412,0.06,0.14,0.94,0.80,0.15,-0.46,
0.412,0.06,0.14,0.94,0.81,0.14,-0.50,
0.413,0.06,0.15,0.93,0.81,0.14,-0.50,
0.413,0.06,0.15,0.92,0.81,0.14,-0.50,
0.414,0.06,0.14,0.93,0.81,0.14,-0.50,
0.414,0.06,0.14,0.93,0.82,0.16,-0.65,
0.414,0.06,0.15,0.92,0.82,0.16,-0.65,
0.414,0.06,0.15,0.92,0.84,0.13,-0.74,
0.415,0.06,0.15,0.91,0.84,0.13,-0.74,
0.415,0.06,0.15,0.90,0.84,0.13,-0.74,
0.425,0.06,0.15,0.90,0.84,0.13,-0.74,
0.426,0.06,0.15,0.90,0.85,0.18,-0.83,
0.426,0.06,0.15,0.89,0.85,0.18,-0.83,
0.427,0.07,0.15,0.89,0.85,0.18,-0.83,
0.427,0.07,0.15,0.89,0.87,0.14,-0.95,
0.427,0.06,0.15,0.89,0.87,0.14,-0.95,
0.428,0.06,0.14,0.89,0.87,0.14,-0.95,
0.428,0.06,0.14,0.89,0.89,0.11,-1.03,
0.431,0.06,0.14,0.89,0.89,0.11,-1.03,
0.433,0.06,0.14,0.89,0.89,0.11,-1.03,
0.433,0.06,0.14,0.89,0.86,0.08,-1.03,
0.444,0.05,0.15,0.88,0.86,0.08,-1.03,
0.445,0.05,0.15,0.88,0.85,0.06,-1.06,
0.445,0.05,0.14,0.87,0.85,0.06,-1.06,
0.445,0.05,0.14,0.87,0.85,0.06,-1.06,
0.445,0.05,0.14,0.87,0.85,0.06,-1.06,
0.446,0.05,0.14,0.87,0.79,0.07,-1.14,
0.446,0.04,0.15,0.86,0.79,0.07,-1.14,
0.448,0.04,0.15,0.86,0.75,0.04,-1.19,
0.449,0.04,0.14,0.86,0.75,0.04,-1.19,
0.451,0.03,0.14,0.86,0.75,0.04,-1.19,
0.458,0.02,0.15,0.86,0.75,0.04,-1.19,
0.459,0.02,0.15,0.86,0.66,0.04,-1.25,
0.459,0.02,0.15,0.86,0.66,0.04,-1.25,
0.459,0.02,0.15,0.86,0.66,0.04,-1.25,
0.459,0.02,0.15,0.86,0.55,0.06,-1.25,
0.46,0.02,0.15,0.85,0.55,0.06,-1.25,
0.463,0.02,0.15,0.85,0.47,0.10,-1.28,
0.464,0.01,0.16,0.86,0.47,0.10,-1.28,
0.466,0.01,0.16,0.85,0.47,0.10,-1.28,
0.473,0.01,0.17,0.85,0.47,0.10,-1.28,
0.474,0.01,0.17,0.85,0.44,0.13,-1.31,
0.474,0.01,0.17,0.85,0.44,0.13,-1.31,
0.474,0.01,0.17,0.85,0.38,0.18,-1.34,
0.475,0.00,0.17,0.84,0.38,0.18,-1.34,
0.475,0.00,0.18,0.84,0.38,0.18,-1.34,
0.478,0.00,0.18,0.84,0.35,0.24,-1.41,
0.479,-0.00,0.18,0.85,0.35,0.24,-1.41,
0.48,-0.00,0.19,0.83,0.35,0.24,-1.41,
0.483,0.00,0.19,0.83,0.35,0.24,-1.41,
0.483,0.00,0.19,0.83,0.29,0.27,-1.38,
0.485,0.00,0.19,0.83,0.29,0.27,-1.38,
0.492,0.00,0.19,0.83,0.29,0.36,-1.51,
0.493,0.00,0.19,0.83,0.29,0.36,-1.51,
0.496,0.00,0.19,0.82,0.29,0.36,-1.51,
0.496,0.01,0.19,0.82,0.29,0.36,-1.51,
0.496,0.01,0.19,0.82,0.31,0.35,-1.54,
0.496,0.01,0.19,0.82,0.31,0.35,-1.54,
0.498,0.00,0.19,0.82,0.31,0.35,-1.54,
0.498,0.00,0.19,0.82,0.31,0.37,-1.60,
0.5,0.00,0.19,0.83,0.31,0.37,-1.60,
0.51,0.00,0.19,0.83,0.31,0.37,-1.60,
0.51,0.00,0.19,0.83,0.34,0.37,-1.61,
0.511,0.00,0.19,0.82,0.34,0.37,-1.61,
0.511,0.00,0.19,0.82,0.34,0.37,-1.61,
0.511,0.00,0.19,0.82,0.30,0.33,-1.54,
0.511,0.01,0.19,0.82,0.30,0.33,-1.54,
0.513,0.01,0.19,0.82,0.30,0.34,-1.58,
0.513,0.01,0.18,0.83,0.30,0.34,-1.58,
0.515,0.00,0.19,0.83,0.30,0.34,-1.58,
0.517,0.00,0.19,0.83,0.33,0.30,-1.55,
0.517,0.00,0.18,0.83,0.33,0.30,-1.55,
0.523,0.01,0.18,0.83,0.33,0.30,-1.55,
0.524,0.01,0.18,0.84,0.33,0.30,-1.55,
0.524,0.01,0.18,0.84,0.28,0.29,-1.48,
0.524,0.01,0.18,0.85,0.28,0.29,-1.48,
0.527,0.01,0.18,0.85,0.28,0.29,-1.48,
0.527,0.01,0.18,0.85,0.38,0.23,-1.40,
0.529,0.01,0.18,0.87,0.38,0.23,-1.40,
0.532,0.02,0.18,0.88,0.38,0.23,-1.40,
0.533,0.02,0.18,0.88,0.38,0.27,-1.25,
0.534,0.02,0.18,0.88,0.38,0.27,-1.25,
0.539,0.02,0.18,0.88,0.41,0.28,-1.07,
0.539,0.02,0.18,0.89,0.41,0.28,-1.07,
0.539,0.02,0.18,0.90,0.41,0.28,-1.07,
0.542,0.02,0.18,0.90,0.46,0.26,-0.92,
0.542,0.02,0.18,0.90,0.46,0.26,-0.92,
0.545,0.02,0.17,0.90,0.46,0.26,-0.92,
0.547,0.02,0.17,0.90,0.46,0.26,-0.92,
0.547,0.02,0.17,0.90,0.44,0.26,-0.80,
0.549,0.02,0.17,0.90,0.44,0.26,-0.80,
0.556,0.02,0.17,0.90,0.44,0.26,-0.80,
0.557,0.02,0.17,0.90,0.45,0.19,-0.77,
0.557,0.02,0.16,0.89,0.45,0.19,-0.77,
0.557,0.02,0.16,0.89,0.45,0.19,-0.77,
0.557,0.02,0.16,0.89,0.46,0.16,-0.78,
0.559,0.03,0.15,0.88,0.46,0.16,-0.78,
0.562,0.03,0.15,0.88,0.49,0.11,-0.85,
0.562,0.02,0.15,0.88,0.49,0.11,-0.85,
0.564,0.02,0.15,0.87,0.49,0.11,-0.85,
0.567,0.02,0.15,0.87,0.49,0.11,-0.85,
0.567,0.02,0.15,0.87,0.53,0.02,-0.99,
0.572,0.02,0.15,0.87,0.53,0.02,-0.99,
0.572,0.01,0.15,0.85,0.53,0.02,-0.99,
0.572,0.01,0.15,0.85,0.46,0.01,-1.07,
0.574,0.01,0.15,0.85,0.46,0.01,-1.07,
0.577,0.01,0.15,0.85,0.46,0.01,-1.07,
0.577,0.01,0.15,0.85,0.42,0.02,-1.18,
0.579,0.01,0.16,0.84,0.42,0.02,-1.18,
0.581,0.01,0.16,0.85,0.42,0.02,-1.18,
0.582,0.01,0.16,0.85,0.35,0.03,-1.25,
0.584,0.01,0.17,0.84,0.35,0.03,-1.25,
0.588,0.01,0.16,0.83,0.35,0.03,-1.25,
0.588,0.01,0.16,0.83,0.33,0.13,-1.32,
0.589,0.01,0.16,0.83,0.33,0.13,-1.32,
0.591,0.01,0.17,0.82,0.33,0.13,-1.32,
0.591,0.01,0.17,0.82,0.34,0.13,-1.43,
0.594,0.01,0.17,0.82,0.34,0.13,-1.43,
0.597,0.00,0.16,0.83,0.34,0.13,-1.43,
0.597,0.00,0.16,0.83,0.33,0.14,-1.49,
0.599,0.00,0.16,0.83,0.33,0.14,-1.49,
0.605,0.00,0.16,0.83,0.33,0.14,-1.49,
0.605,0.00,0.16,0.83,0.30,0.14,-1.51,
0.606,-0.00,0.16,0.83,0.30,0.14,-1.51,
0.606,-0.00,0.16,0.83,0.30,0.14,-1.51,
0.606,-0.00,0.16,0.83,0.26,0.13,-1.49,
0.609,-0.00,0.16,0.83,0.26,0.13,-1.49,
0.611,0.00,0.16,0.83,0.26,0.13,-1.49,
0.612,0.00,0.16,0.83,0.22,0.09,-1.43,
0.614,-0.00,0.15,0.84,0.22,0.09,-1.43,
0.616,-0.00,0.15,0.84,0.22,0.09,-1.43,
0.617,-0.00,0.15,0.84,0.21,0.07,-1.43,
0.624,-0.00,0.15,0.84,0.21,0.07,-1.43,
0.625,-0.00,0.14,0.85,0.21,0.07,-1.43,
0.625,-0.00,0.14,0.85,0.20,-0.00,-1.33,
0.625,-0.00,0.14,0.85,0.20,-0.00,-1.33,
0.626,-0.00,0.14,0.84,0.20,-0.00,-1.33,
0.626,-0.00,0.14,0.84,0.19,-0.04,-1.29,
0.628,-0.00,0.13,0.85,0.19,-0.04,-1.29,
0.631,-0.00,0.13,0.85,0.16,-0.11,-1.28,
0.631,-0.01,0.13,0.85,0.16,-0.11,-1.28,
0.634,-0.01,0.13,0.84,0.16,-0.11,-1.28,
0.639,-0.01,0.12,0.85,0.16,-0.11,-1.28,
0.64,-0.01,0.12,0.85,0.13,-0.17,-1.26,
0.64,-0.02,0.12,0.84,0.13,-0.17,-1.26,
0.641,-0.02,0.11,0.85,0.13,-0.17,-1.26,
0.641,-0.02,0.11,0.85,0.08,-0.22,-1.27,
0.643,-0.02,0.10,0.84,0.08,-0.22,-1.27,
0.646,-0.03,0.10,0.84,0.08,-0.22,-1.27,
0.646,-0.03,0.10,0.84,0.03,-0.30,-1.27,
0.648,-0.03,0.10,0.84,0.03,-0.30,-1.27,
0.651,-0.04,0.09,0.84,0.03,-0.30,-1.27,
0.652,-0.04,0.09,0.84,-0.08,-0.43,-1.31,
0.659,-0.04,0.09,0.84,-0.08,-0.43,-1.31,
0.66,-0.05,0.09,0.83,-0.08,-0.43,-1.31,
0.66,-0.05,0.09,0.83,-0.15,-0.47,-1.31,
0.66,-0.06,0.09,0.84,-0.15,-0.47,-1.31,
0.661,-0.06,0.08,0.84,-0.15,-0.47,-1.31,
0.661,-0.06,0.08,0.84,-0.26,-0.51,-1.37,
0.663,-0.07,0.08,0.84,-0.26,-0.51,-1.37,
0.666,-0.07,0.08,0.84,-0.38,-0.54,-1.34,
0.667,-0.08,0.08,0.84,-0.38,-0.54,-1.34,
0.668,-0.08,0.08,0.84,-0.38,-0.54,-1.34,
0.674,-0.09,0.08,0.84,-0.38,-0.54,-1.34,
0.674,-0.09,0.08,0.84,-0.53,-0.56,-1.35,
0.675,-0.09,0.08,0.84,-0.53,-0.56,-1.35,
0.676,-0.10,0.07,0.83,-0.53,-0.56,-1.35,
0.676,-0.10,0.07,0.83,-0.64,-0.59,-1.34,
0.678,-0.10,0.07,0.83,-0.64,-0.59,-1.34,
0.68,-0.10,0.06,0.84,-0.64,-0.59,-1.34,
0.681,-0.10,0.06,0.84,-0.70,-0.60,-1.36,
0.683,-0.11,0.06,0.83,-0.70,-0.60,-1.36,
0.688,-0.11,0.06,0.83,-0.79,-0.65,-1.35,
0.689,-0.11,0.06,0.84,-0.79,-0.65,-1.35,
0.689,-0.11,0.06,0.84,-0.79,-0.65,-1.35,
0.69,-0.12,0.05,0.83,-0.79,-0.65,-1.35,
0.691,-0.12,0.05,0.83,-0.86,-0.69,-1.35,
0.693,-0.12,0.05,0.83,-0.86,-0.69,-1.35,
0.695,-0.12,0.04,0.83,-0.86,-0.69,-1.35,
0.696,-0.12,0.04,0.83,-0.92,-0.75,-1.34,
0.698,-0.12,0.05,0.83,-0.92,-0.75,-1.34,
0.7,-0.12,0.04,0.83,-0.92,-0.75,-1.34,
0.7,-0.12,0.04,0.83,-0.95,-0.80,-1.39,
0.705,-0.12,0.03,0.83,-0.95,-0.80,-1.39,
0.705,-0.12,0.03,0.83,-1.01,-0.83,-1.39,
0.705,-0.13,0.03,0.83,-1.01,-0.83,-1.39,
0.707,-0.13,0.03,0.83,-1.01,-0.83,-1.39,
0.71,-0.13,0.03,0.83,-1.06,-0.95,-1.42,
0.711,-0.13,0.02,0.83,-1.06,-0.95,-1.42,
0.712,-0.13,0.02,0.83,-1.06,-0.95,-1.42,
0.715,-0.13,0.02,0.83,-1.14,-1.02,-1.40,
0.715,-0.14,0.02,0.83,-1.14,-1.02,-1.40,
0.717,-0.14,0.02,0.83,-1.14,-1.02,-1.40,
0.724,-0.15,0.01,0.82,-1.14,-1.02,-1.40,
0.724,-0.15,0.01,0.82,-1.15,-1.06,-1.41,
0.724,-0.14,0.01,0.82,-1.15,-1.06,-1.41,
0.725,-0.14,0.01,0.83,-1.15,-1.06,-1.41,
0.725,-0.14,0.01,0.83,-1.28,-1.09,-1.42,
0.727,-0.15,0.02,0.83,-1.28,-1.09,-1.42,
0.73,-0.15,0.02,0.83,-1.28,-1.09,-1.42,
0.73,-0.15,0.02,0.83,-1.27,-1.10,-1.39,
0.732,-0.14,0.02,0.83,-1.27,-1.10,-1.39,
0.736,-0.15,0.02,0.84,-1.27,-1.10,-1.39,
0.736,-0.15,0.02,0.84,-1.35,-1.05,-1.35,
0.74,-0.14,0.02,0.84,-1.35,-1.05,-1.35,
0.74,-0.14,0.02,0.83,-1.35,-1.05,-1.35,
0.74,-0.14,0.02,0.83,-1.35,-1.02,-1.32,
0.742,-0.14,0.02,0.84,-1.35,-1.02,-1.32,
0.745,-0.14,0.02,0.84,-1.35,-1.02,-1.32,
0.745,-0.14,0.02,0.84,-1.35,-1.00,-1.34,
0.747,-0.14,0.02,0.84,-1.35,-1.00,-1.34,
0.75,-0.14,0.03,0.83,-1.35,-1.00,-1.34,
0.75,-0.14,0.03,0.83,-1.36,-0.96,-1.27,
0.758,-0.14,0.02,0.84,-1.36,-0.96,-1.27,
0.758,-0.14,0.02,0.84,-1.37,-0.93,-1.31,
0.759,-0.14,0.02,0.84,-1.37,-0.93,-1.31,
0.759,-0.14,0.02,0.84,-1.37,-0.93,-1.31,
0.76,-0.13,0.02,0.84,-1.37,-0.93,-1.31,
0.76,-0.13,0.02,0.84,-1.38,-0.95,-1.28,
0.762,-0.14,0.02,0.84,-1.38,-0.95,-1.28,
0.765,-0.14,0.02,0.84,-1.38,-0.95,-1.28,
0.765,-0.14,0.02,0.84,-1.36,-0.94,-1.31,
0.767,-0.14,0.02,0.84,-1.36,-0.94,-1.31,
0.774,-0.14,0.01,0.84,-1.36,-0.94,-1.31,
0.775,-0.14,0.01,0.84,-1.38,-0.93,-1.29,
0.775,-0.14,0.01,0.84,-1.38,-0.93,-1.29,
0.775,-0.14,0.01,0.84,-1.38,-0.93,-1.29,
0.775,-0.14,0.01,0.84,-1.41,-0.96,-1.27,
0.778,-0.13,0.00,0.85,-1.41,-0.96,-1.27,
0.78,-0.13,0.00,0.85,-1.43,-1.01,-1.26,
0.78,-0.14,-0.00,0.84,-1.43,-1.01,-1.26,
0.783,-0.14,-0.00,0.84,-1.43,-1.01,-1.26,
0.785,-0.14,-0.00,0.84,-1.43,-1.05,-1.22,
0.785,-0.14,-0.01,0.84,-1.43,-1.05,-1.22,
0.789,-0.13,-0.01,0.84,-1.43,-1.05,-1.22,
0.79,-0.14,-0.01,0.85,-1.43,-1.05,-1.22,
0.79,-0.14,-0.01,0.85,-1.44,-1.07,-1.23,
0.792,-0.13,-0.02,0.85,-1.44,-1.07,-1.23,
0.794,-0.14,-0.02,0.85,-1.44,-1.07,-1.23,
0.795,-0.14,-0.02,0.85,-1.45,-1.09,-1.21,
0.797,-0.13,-0.02,0.86,-1.45,-1.09,-1.21,
0.799,-0.13,-0.02,0.85,-1.45,-1.09,-1.21,
0.799,-0.13,-0.02,0.85,-1.46,-1.11,-1.18,
0.802,-0.13,-0.02,0.86,-1.46,-1.11,-1.18,
0.806,-0.13,-0.03,0.86,-1.46,-1.11,-1.18,
0.806,-0.13,-0.03,0.86,-1.45,-1.10,-1.11,
0.807,-0.13,-0.03,0.87,-1.45,-1.10,-1.11,
0.809,-0.13,-0.03,0.87,-1.44,-1.15,-1.07,
0.809,-0.14,-0.03,0.86,-1.44,-1.15,-1.07,
0.812,-0.14,-0.03,0.87,-1.44,-1.15,-1.07,
0.814,-0.14,-0.03,0.87,-1.48,-1.11,-1.03,
0.815,-0.15,-0.03,0.88,-1.48,-1.11,-1.03,
0.817,-0.15,-0.03,0.88,-1.48,-1.11,-1.03,
0.822,-0.16,-0.03,0.88,-1.48,-1.11,-1.03,
0.824,-0.16,-0.03,0.88,-1.57,-1.09,-0.90,
0.824,-0.16,-0.03,0.89,-1.57,-1.09,-0.90,
0.824,-0.16,-0.03,0.89,-1.67,-1.08,-0.85,
0.824,-0.16,-0.03,0.89,-1.67,-1.08,-0.85,
0.826,-0.16,-0.03,0.90,-1.67,-1.08,-0.85,
0.829,-0.16,-0.03,0.90,-1.75,-1.05,-0.78,
0.829,-0.16,-0.04,0.90,-1.75,-1.05,-0.78,
0.831,-0.16,-0.04,0.91,-1.75,-1.05,-0.78,
0.835,-0.16,-0.04,0.90,-1.75,-1.05,-0.78,
0.835,-0.16,-0.04,0.90,-1.77,-1.04,-0.70,
0.841,-0.16,-0.05,0.91,-1.77,-1.04,-0.70,
0.841,-0.16,-0.05,0.91,-1.79,-1.05,-0.65,
0.841,-0.16,-0.05,0.92,-1.79,-1.05,-0.65,
0.842,-0.15,-0.05,0.92,-1.79,-1.05,-0.65,
0.844,-0.16,-0.05,0.91,-1.79,-1.05,-0.65,
0.844,-0.16,-0.05,0.91,-1.79,-1.07,-0.55,
0.846,-0.16,-0.05,0.92,-1.79,-1.07,-0.55,
0.849,-0.15,-0.04,0.92,-1.79,-1.07,-0.55,
0.849,-0.15,-0.04,0.92,-1.75,-1.03,-0.54,
0.851,-0.15,-0.05,0.91,-1.75,-1.03,-0.54,
0.856,-0.14,-0.05,0.91,-1.75,-1.03,-0.54,
0.857,-0.14,-0.05,0.91,-1.76,-0.98,-0.50,
0.857,-0.14,-0.05,0.91,-1.76,-0.98,-0.50,
0.859,-0.14,-0.05,0.91,-1.70,-0.99,-0.55,
0.859,-0.14,-0.06,0.91,-1.70,-0.99,-0.55,
0.861,-0.13,-0.06,0.91,-1.70,-0.99,-0.55,
0.864,-0.13,-0.06,0.91,-1.66,-1.00,-0.58,
0.864,-0.13,-0.07,0.90,-1.66,-1.00,-0.58,
0.866,-0.13,-0.08,0.90,-1.66,-1.00,-0.58,
0.869,-0.12,-0.09,0.90,-1.66,-1.00,-0.58,
0.869,-0.12,-0.09,0.90,-1.61,-1.09,-0.65,
0.874,-0.12,-0.09,0.90,-1.61,-1.09,-0.65,
0.874,-0.12,-0.10,0.90,-1.61,-1.09,-0.65,
0.874,-0.12,-0.10,0.90,-1.55,-1.23,-0.69,
0.876,-0.12,-0.10,0.90,-1.55,-1.23,-0.69,
0.879,-0.12,-0.10,0.91,-1.55,-1.23,-0.69,
0.879,-0.12,-0.10,0.91,-1.53,-1.29,-0.66,
0.881,-0.12,-0.10,0.92,-1.53,-1.29,-0.66,
0.884,-0.12,-0.10,0.92,-1.53,-1.29,-0.66,
0.884,-0.12,-0.10,0.92,-1.52,-1.31,-0.60,
0.886,-0.12,-0.10,0.93,-1.52,-1.31,-0.60,
0.889,-0.12,-0.10,0.94,-1.52,-1.31,-0.60,
0.89,-0.12,-0.10,0.94,-1.59,-1.31,-0.46,
0.891,-0.13,-0.10,0.95,-1.59,-1.31,-0.46,
0.893,-0.13,-0.09,0.96,-1.59,-1.31,-0.46,
0.894,-0.13,-0.09,0.96,-1.64,-1.24,-0.32,
0.896,-0.13,-0.09,0.96,-1.64,-1.24,-0.32,
0.898,-0.13,-0.09,0.97,-1.64,-1.24,-0.32,
0.898,-0.13,-0.09,0.97,-1.69,-1.19,-0.15,
0.901,-0.13,-0.09,0.99,-1.69,-1.19,-0.15,
0.906,-0.13,-0.09,0.99,-1.72,-1.12,0.00,
0.907,-0.12,-0.09,0.99,-1.72,-1.12,0.00,
0.907,-0.12,-0.09,1.00,-1.72,-1.12,0.00,
0.908,-0.12,-0.09,1.00,-1.71,-1.07,0.21,
0.908,-0.12,-0.09,1.01,-1.71,-1.07,0.21,
0.911,-0.12,-0.09,1.02,-1.71,-1.07,0.21,
0.913,-0.12,-0.09,1.02,-1.71,-1.07,0.21,
0.914,-0.12,-0.09,1.02,-1.70,-1.04,0.38,
0.915,-0.12,-0.09,1.03,-1.70,-1.04,0.38,
0.919,-0.12,-0.09,1.04,-1.70,-1.04,0.38,
0.919,-0.12,-0.09,1.04,-1.71,-0.97,0.53,
0.923,-0.12,-0.09,1.05,-1.71,-0.97,0.53,
0.924,-0.12,-0.09,1.05,-1.71,-0.97,0.53,
0.924,-0.12,-0.09,1.05,-1.76,-0.93,0.70,
0.925,-0.12,-0.09,1.05,-1.76,-0.93,0.70,
0.928,-0.12,-0.08,1.06,-1.76,-0.93,0.70,
0.928,-0.12,-0.08,1.06,-1.77,-0.88,0.80,
0.93,-0.12,-0.08,1.05,-1.77,-0.88,0.80,
0.933,-0.12,-0.08,1.04,-1.77,-0.88,0.80,
0.934,-0.12,-0.08,1.04,-1.78,-0.82,0.82,
0.935,-0.12,-0.09,1.05,-1.78,-0.82,0.82,
0.94,-0.12,-0.08,1.04,-1.78,-0.82,0.82,
0.94,-0.12,-0.08,1.04,-1.83,-0.73,0.78,
0.94,-0.12,-0.09,1.03,-1.83,-0.73,0.78,
0.944,-0.13,-0.09,1.03,-1.83,-0.73,0.78,
0.944,-0.13,-0.09,1.03,-1.87,-0.75,0.74,
0.945,-0.13,-0.10,1.02,-1.87,-0.75,0.74,
0.948,-0.13,-0.11,1.01,-1.87,-0.75,0.74,
0.948,-0.13,-0.11,1.01,-1.90,-0.77,0.61,
0.95,-0.13,-0.11,1.00,-1.90,-0.77,0.61,
0.964,-0.13,-0.12,1.00,-1.90,-0.77,0.61,
0.964,-0.13,-0.12,1.00,-1.94,-0.84,0.50,
0.965,-0.13,-0.13,0.99,-1.94,-0.84,0.50,
0.965,-0.13,-0.13,0.99,-1.97,-0.94,0.32,
0.965,-0.13,-0.13,0.98,-1.97,-0.94,0.32,
0.965,-0.13,-0.14,0.97,-1.97,-0.94,0.32,
0.965,-0.13,-0.15,0.96,-1.97,-0.94,0.32,
0.965,-0.13,-0.15,0.96,-2.00,-1.08,0.17,
0.965,-0.13,-0.15,0.95,-2.00,-1.08,0.17,
0.968,-0.13,-0.15,0.95,-1.98,-1.16,-0.01,
0.968,-0.13,-0.16,0.95,-1.98,-1.16,-0.01,
0.975,-0.12,-0.17,0.94,-1.98,-1.16,-0.01,
0.976,-0.12,-0.17,0.94,-1.98,-1.16,-0.01,
0.976,-0.12,-0.17,0.94,-1.97,-1.29,-0.17,
0.976,-0.12,-0.18,0.94,-1.97,-1.29,-0.17,
0.977,-0.12,-0.18,0.94,-1.91,-1.40,-0.26,
0.978,-0.11,-0.19,0.94,-1.91,-1.40,-0.26,
0.98,-0.11,-0.20,0.94,-1.91,-1.40,-0.26,
0.983,-0.11,-0.20,0.94,-1.89,-1.53,-0.31,
0.983,-0.11,-0.20,0.95,-1.89,-1.53,-0.31,
0.985,-0.11,-0.20,0.95,-1.89,-1.53,-0.31,
0.991,-0.11,-0.20,0.97,-1.89,-1.53,-0.31,
0.992,-0.11,-0.20,0.97,-1.89,-1.62,-0.21,
0.992,-0.11,-0.20,0.98,-1.89,-1.62,-0.21,
0.992,-0.11,-0.20,0.98,-1.91,-1.59,-0.05,
0.992,-0.11,-0.20,0.99,-1.91,-1.59,-0.05,
0.995,-0.10,-0.20,1.00,-1.91,-1.59,-0.05,
0.997,-0.10,-0.20,1.02,-1.91,-1.59,-0.05,
0.997,-0.10,-0.20,1.02,-1.91,-1.55,0.20,
1.0,-0.10,-0.19,1.04,-1.91,-1.55,0.20,
1.002,-0.10,-0.19,1.05,-1.91,-1.55,0.20,
1.002,-0.10,-0.19,1.05,-1.89,-1.48,0.44,
1.008,-0.09,-0.18,1.07,-1.89,-1.48,0.44,
1.009,-0.09,-0.18,1.07,-1.90,-1.38,0.79,
1.009,-0.09,-0.18,1.07,-1.90,-1.38,0.79,
1.009,-0.08,-0.17,1.09,-1.90,-1.38,0.79,
1.012,-0.08,-0.17,1.10,-1.90,-1.38,0.79,
1.012,-0.08,-0.17,1.10,-1.85,-1.25,1.06,
1.014,-0.07,-0.17,1.12,-1.85,-1.25,1.06,
1.017,-0.07,-0.17,1.12,-1.85,-1.25,1.06,
1.017,-0.07,-0.17,1.12,-1.85,-1.14,1.29,
1.019,-0.06,-0.16,1.12,-1.85,-1.14,1.29,
1.023,-0.05,-0.17,1.13,-1.85,-1.14,1.29,
1.023,-0.05,-0.17,1.13,-1.77,-1.07,1.51,
1.024,-0.05,-0.17,1.14,-1.77,-1.07,1.51,
1.027,-0.04,-0.17,1.14,-1.77,-1.07,1.51,
1.027,-0.04,-0.17,1.14,-1.71,-1.02,1.63,
1.029,-0.04,-0.17,1.15,-1.71,-1.02,1.63,
1.033,-0.04,-0.17,1.15,-1.71,-1.02,1.63,
1.033,-0.04,-0.17,1.15,-1.65,-1.02,1.75,
1.034,-0.04,-0.18,1.14,-1.65,-1.02,1.75,
1.04,-0.03,-0.19,1.14,-1.65,-1.02,1.75,
1.041,-0.03,-0.19,1.14,-1.60,-1.03,1.80,
1.041,-0.03,-0.20,1.15,-1.60,-1.03,1.80,
1.042,-0.03,-0.20,1.14,-1.60,-1.03,1.80,
1.042,-0.03,-0.20,1.14,-1.58,-1.13,1.75,
1.045,-0.02,-0.21,1.14,-1.58,-1.13,1.75,
1.047,-0.03,-0.21,1.14,-1.58,-1.13,1.75,
1.047,-0.03,-0.21,1.14,-1.54,-1.22,1.79,
1.049,-0.03,-0.21,1.14,-1.54,-1.22,1.79,
1.052,-0.03,-0.22,1.14,-1.54,-1.22,1.79,
1.052,-0.03,-0.22,1.14,-1.54,-1.29,1.75,
1.06,-0.02,-0.22,1.15,-1.54,-1.29,1.75,
1.061,-0.02,-0.22,1.15,-1.56,-1.30,1.77,
1.061,-0.02,-0.22,1.15,-1.56,-1.30,1.77,
1.062,-0.02,-0.22,1.14,-1.56,-1.30,1.77,
1.063,-0.01,-0.22,1.15,-1.56,-1.30,1.77,
1.063,-0.01,-0.22,1.15,-1.55,-1.32,1.81,
1.064,-0.02,-0.23,1.16,-1.55,-1.32,1.81,
1.067,-0.01,-0.22,1.15,-1.55,-1.32,1.81,
1.067,-0.01,-0.22,1.15,-1.52,-1.31,1.82,
1.069,-0.00,-0.22,1.16,-1.52,-1.31,1.82,
1.075,-0.00,-0.22,1.16,-1.52,-1.31,1.82,
1.076,-0.00,-0.22,1.16,-1.47,-1.28,1.88,
1.076,0.00,-0.23,1.17,-1.47,-1.28,1.88,
1.077,0.01,-0.23,1.18,-1.47,-1.28,1.88,
1.077,0.01,-0.23,1.18,-1.39,-1.24,1.94,
1.079,0.01,-0.23,1.18,-1.39,-1.24,1.94,
1.082,0.02,-0.22,1.19,-1.39,-1.24,1.94,
1.082,0.02,-0.22,1.19,-1.33,-1.22,2.11,
1.084,0.02,-0.22,1.19,-1.33,-1.22,2.11,
1.086,0.03,-0.22,1.19,-1.33,-1.22,2.11,
1.087,0.03,-0.22,1.19,-1.25,-1.19,2.19,
1.092,0.03,-0.22,1.20,-1.25,-1.19,2.19,
1.092,0.03,-0.22,1.20,-1.18,-1.11,2.25,
1.092,0.04,-0.22,1.20,-1.18,-1.11,2.25,
1.094,0.04,-0.22,1.21,-1.18,-1.11,2.25,
1.096,0.04,-0.22,1.21,-1.18,-1.11,2.25,
1.097,0.04,-0.22,1.21,-1.08,-1.08,2.37,
1.099,0.05,-0.21,1.21,-1.08,-1.08,2.37,
1.101,0.05,-0.21,1.21,-1.08,-1.08,2.37,
1.101,0.05,-0.21,1.21,-1.03,-1.04,2.40,
1.107,0.06,-0.21,1.22,-1.03,-1.04,2.40,
1.108,0.05,-0.21,1.22,-1.03,-1.04,2.40,
1.108,0.05,-0.21,1.22,-0.95,-0.97,2.45,
1.108,0.06,-0.21,1.22,-0.95,-0.97,2.45,
1.111,0.06,-0.21,1.22,-0.95,-0.97,2.45,
1.111,0.06,-0.21,1.22,-0.93,-0.96,2.55,
1.113,0.06,-0.21,1.22,-0.93,-0.96,2.55,
1.116,0.06,-0.21,1.22,-0.93,-0.93,2.53,
1.116,0.06,-0.21,1.22,-0.93,-0.93,2.53,
1.119,0.06,-0.21,1.22,-0.93,-0.93,2.53,
1.124,0.06,-0.20,1.22,-0.93,-0.93,2.53,
1.124,0.06,-0.20,1.22,-0.92,-0.88,2.53,
1.124,0.05,-0.20,1.22,-0.92,-0.88,2.53,
1.126,0.05,-0.19,1.23,-0.92,-0.88,2.53,
1.126,0.05,-0.19,1.23,-0.98,-0.84,2.52,
1.128,0.04,-0.20,1.23,-0.98,-0.84,2.52,
1.131,0.04,-0.20,1.23,-1.05,-0.74,2.61,
1.131,0.03,-0.19,1.24,-1.05,-0.74,2.61,
1.133,0.03,-0.20,1.25,-1.05,-0.74,2.61,
1.136,0.02,-0.20,1.26,-1.05,-0.74,2.61,
1.136,0.02,-0.20,1.26,-1.20,-0.73,2.70,
1.14,0.02,-0.19,1.26,-1.20,-0.73,2.70,
1.141,0.02,-0.19,1.26,-1.29,-0.74,2.88,
1.141,0.01,-0.21,1.27,-1.29,-0.74,2.88,
1.144,0.01,-0.22,1.28,-1.29,-0.74,2.88,
1.146,0.01,-0.22,1.28,-1.39,-0.77,2.97,
1.146,0.00,-0.23,1.28,-1.39,-0.77,2.97,
1.148,-0.01,-0.24,1.28,-1.39,-0.77,2.97,
1.151,-0.01,-0.25,1.28,-1.39,-0.77,2.97,
1.151,-0.01,-0.25,1.28,-1.51,-0.97,3.07,
1.153,-0.02,-0.26,1.28,-1.51,-0.97,3.07,
1.158,-0.02,-0.26,1.28,-1.63,-1.17,3.08,
1.158,-0.03,-0.27,1.28,-1.63,-1.17,3.08,
1.158,-0.03,-0.29,1.28,-1.63,-1.17,3.08,
1.161,-0.05,-0.30,1.28,-1.63,-1.17,3.08,
1.161,-0.05,-0.30,1.28,-1.79,-1.41,3.12,
1.163,-0.05,-0.32,1.27,-1.79,-1.41,3.12,
1.166,-0.05,-0.32,1.27,-1.96,-1.67,3.10,
1.166,-0.06,-0.33,1.26,-1.96,-1.67,3.10,
1.168,-0.07,-0.34,1.26,-1.96,-1.67,3.10,
1.176,-0.08,-0.35,1.25,-1.96,-1.67,3.10,
1.176,-0.08,-0.35,1.25,-2.14,-1.93,2.95,
1.176,-0.09,-0.36,1.23,-2.14,-1.93,2.95,
1.176,-0.09,-0.37,1.22,-2.14,-1.93,2.95,
1.176,-0.09,-0.37,1.22,-2.27,-2.18,2.79,
1.178,-0.10,-0.38,1.20,-2.27,-2.18,2.79,
1.181,-0.10,-0.38,1.20,-2.43,-2.39,2.51,
1.181,-0.11,-0.40,1.19,-2.43,-2.39,2.51,
1.183,-0.11,-0.40,1.17,-2.43,-2.39,2.51,
1.185,-0.11,-0.40,1.15,-2.43,-2.39,2.51,
1.186,-0.11,-0.40,1.15,-2.54,-2.61,2.21,
1.192,-0.11,-0.40,1.14,-2.54,-2.61,2.21,
1.192,-0.11,-0.40,1.12,-2.54,-2.61,2.21,
1.192,-0.11,-0.40,1.12,-2.61,-2.75,1.86,
1.193,-0.10,-0.39,1.11,-2.61,-2.75,1.86,
1.195,-0.10,-0.38,1.10,-2.61,-2.75,1.86,
1.195,-0.10,-0.38,1.10,-2.60,-2.75,1.56,
1.198,-0.09,-0.37,1.10,-2.60,-2.75,1.56,
1.2,-0.08,-0.36,1.09,-2.60,-2.75,1.56,
1.201,-0.08,-0.36,1.09,-2.55,-2.64,1.35,
1.202,-0.07,-0.34,1.09,-2.55,-2.64,1.35,
1.212,-0.07,-0.34,1.09,-2.41,-2.44,1.23,
1.212,-0.06,-0.32,1.08,-2.41,-2.44,1.23,
1.212,-0.05,-0.30,1.08,-2.41,-2.44,1.23,
1.213,-0.05,-0.30,1.08,-2.22,-2.09,1.13,
1.213,-0.03,-0.28,1.08,-2.22,-2.09,1.13,
1.213,-0.01,-0.25,1.08,-2.22,-2.09,1.13,
1.216,-0.01,-0.25,1.08,-1.96,-1.70,1.07,
1.216,0.00,-0.24,1.08,-1.96,-1.70,1.07,
1.218,0.02,-0.22,1.08,-1.96,-1.70,1.07,
1.221,0.05,-0.20,1.08,-1.96,-1.70,1.07,
1.221,0.05,-0.20,1.08,-1.62,-1.31,1.05,
1.228,0.06,-0.18,1.08,-1.62,-1.31,1.05,
1.228,0.08,-0.16,1.09,-1.62,-1.31,1.05,
1.228,0.08,-0.16,1.09,-1.22,-0.95,1.07,
1.229,0.10,-0.15,1.10,-1.22,-0.95,1.07,
1.231,0.11,-0.13,1.11,-1.22,-0.95,1.07,
1.231,0.11,-0.13,1.11,-0.84,-0.59,1.15,
1.233,0.13,-0.12,1.11,-0.84,-0.59,1.15,
1.236,0.13,-0.12,1.11,-0.53,-0.25,1.27,
1.236,0.14,-0.11,1.12,-0.53,-0.25,1.27,
1.238,0.15,-0.10,1.13,-0.53,-0.25,1.27,
1.244,0.16,-0.09,1.14,-0.53,-0.25,1.27,
1.244,0.16,-0.09,1.14,-0.26,0.04,1.40,
1.245,0.17,-0.08,1.15,-0.26,0.04,1.40,
1.245,0.17,-0.08,1.15,-0.06,0.25,1.60,
1.245,0.17,-0.08,1.16,-0.06,0.25,1.60,
1.248,0.18,-0.08,1.16,-0.06,0.25,1.60,
1.25,0.19,-0.08,1.17,-0.06,0.25,1.60,
1.251,0.19,-0.08,1.17,0.13,0.41,1.79,
1.253,0.20,-0.08,1.17,0.13,0.41,1.79,
1.26,0.21,-0.08,1.18,0.13,0.41,1.79,
1.261,0.21,-0.08,1.18,0.30,0.48,1.91,
1.261,0.22,-0.08,1.18,0.30,0.48,1.91,
1.261,0.22,-0.08,1.18,0.30,0.48,1.91,
1.261,0.22,-0.08,1.18,0.51,0.51,2.02,
1.263,0.22,-0.09,1.19,0.51,0.51,2.02,
1.265,0.23,-0.10,1.19,0.51,0.51,2.02,
1.265,0.23,-0.10,1.19,0.68,0.51,2.05,
1.268,0.23,-0.10,1.18,0.68,0.51,2.05,
1.27,0.23,-0.10,1.18,0.78,0.45,2.12,
1.271,0.22,-0.11,1.19,0.78,0.45,2.12,
1.283,0.22,-0.12,1.18,0.78,0.45,2.12,
1.283,0.22,-0.12,1.18,0.78,0.38,2.08,
1.284,0.21,-0.12,1.17,0.78,0.38,2.08,
1.284,0.21,-0.13,1.17,0.78,0.38,2.08,
1.284,0.20,-0.14,1.16,0.78,0.38,2.08,
1.284,0.20,-0.14,1.16,0.76,0.25,2.00,
1.285,0.19,-0.15,1.15,0.76,0.25,2.00,
1.285,0.18,-0.16,1.15,0.76,0.25,2.00,
1.285,0.18,-0.16,1.15,0.67,0.13,1.86,
1.287,0.19,-0.17,1.14,0.67,0.13,1.86,
1.297,0.19,-0.17,1.14,0.53,-0.05,1.71,
1.297,0.17,-0.19,1.14,0.53,-0.05,1.71,
1.298,0.16,-0.20,1.12,0.53,-0.05,1.71,
1.298,0.16,-0.20,1.12,0.51,-0.25,1.58,
1.298,0.16,-0.21,1.11,0.51,-0.25,1.58,
1.298,0.15,-0.21,1.09,0.51,-0.25,1.58,
1.3,0.14,-0.22,1.09,0.51,-0.25,1.58,
1.3,0.14,-0.22,1.09,0.38,-0.45,1.37,
1.302,0.13,-0.22,1.08,0.38,-0.45,1.37,
1.305,0.12,-0.23,1.08,0.38,-0.45,1.37,
1.305,0.12,-0.23,1.08,0.27,-0.62,1.12,
1.314,0.11,-0.23,1.06,0.27,-0.62,1.12,
1.315,0.11,-0.23,1.05,0.27,-0.62,1.12,
1.315,0.11,-0.23,1.05,0.09,-0.71,0.99,
1.315,0.10,-0.23,1.04,0.09,-0.71,0.99,
1.315,0.10,-0.23,1.04,-0.01,-0.73,0.78,
1.318,0.09,-0.23,1.03,-0.01,-0.73,0.78,
1.318,0.09,-0.24,1.02,-0.01,-0.73,0.78,
1.319,0.08,-0.24,1.01,-0.01,-0.73,0.78,
1.32,0.08,-0.24,1.01,-0.12,-0.78,0.55,
1.327,0.08,-0.24,1.01,-0.12,-0.78,0.55,
1.328,0.08,-0.24,1.00,-0.12,-0.78,0.55,
1.328,0.08,-0.24,1.00,-0.18,-0.85,0.33,
1.328,0.08,-0.24,1.00,-0.18,-0.85,0.33,
1.329,0.07,-0.24,0.99,-0.18,-0.85,0.33,
1.329,0.07,-0.24,0.99,-0.26,-0.90,0.26,
1.331,0.08,-0.24,0.98,-0.26,-0.90,0.26,
1.334,0.07,-0.23,0.98,-0.26,-0.90,0.26,
1.334,0.07,-0.23,0.98,-0.29,-0.95,0.11,
1.336,0.07,-0.23,0.97,-0.29,-0.95,0.11,
1.344,0.07,-0.23,0.97,-0.32,-0.95,-0.02,
1.345,0.08,-0.23,0.97,-0.32,-0.95,-0.02,
1.345,0.07,-0.22,0.97,-0.32,-0.95,-0.02,
1.345,0.07,-0.22,0.97,-0.31,-0.91,-0.12,
1.345,0.07,-0.21,0.97,-0.31,-0.91,-0.12,
1.346,0.08,-0.20,0.97,-0.31,-0.91,-0.12,
1.349,0.08,-0.20,0.97,-0.33,-0.85,-0.10,
1.349,0.08,-0.19,0.97,-0.33,-0.85,-0.10,
1.351,0.08,-0.18,0.97,-0.33,-0.85,-0.10,
1.354,0.09,-0.18,0.97,-0.33,-0.85,-0.10,
1.354,0.09,-0.18,0.97,-0.33,-0.69,-0.11,
1.36,0.09,-0.17,0.97,-0.33,-0.69,-0.11,
1.361,0.09,-0.17,0.97,-0.29,-0.56,-0.11,
1.361,0.10,-0.16,0.98,-0.29,-0.56,-0.11,
1.361,0.12,-0.15,0.98,-0.29,-0.56,-0.11,
1.363,0.12,-0.15,0.99,-0.29,-0.56,-0.11,
1.364,0.12,-0.15,0.99,-0.19,-0.43,-0.07,
1.366,0.13,-0.14,0.99,-0.19,-0.43,-0.07,
1.369,0.14,-0.13,0.99,-0.19,-0.43,-0.07,
1.369,0.14,-0.13,0.99,-0.02,-0.36,-0.01,
1.371,0.15,-0.13,1.00,-0.02,-0.36,-0.01,
1.383,0.15,-0.13,1.00,0.11,-0.25,0.10,
1.384,0.16,-0.13,1.00,0.11,-0.25,0.10,
1.385,0.17,-0.12,1.01,0.11,-0.25,0.10,
1.385,0.17,-0.11,1.01,0.11,-0.25,0.10,
1.385,0.17,-0.11,1.01,0.23,-0.21,0.15,
1.385,0.18,-0.11,1.02,0.23,-0.21,0.15,
1.385,0.19,-0.10,1.02,0.23,-0.21,0.15,
1.386,0.19,-0.10,1.02,0.35,-0.13,0.28,
1.386,0.20,-0.10,1.03,0.35,-0.13,0.28,
1.388,0.20,-0.10,1.03,0.47,-0.04,0.36,
1.389,0.21,-0.09,1.04,0.47,-0.04,0.36,
1.395,0.23,-0.09,1.04,0.47,-0.04,0.36,
1.396,0.23,-0.09,1.05,0.47,-0.04,0.36,
1.396,0.23,-0.09,1.05,0.65,0.05,0.52,
1.397,0.24,-0.09,1.05,0.65,0.05,0.52,
1.399,0.24,-0.09,1.05,0.84,0.12,0.64,
1.399,0.26,-0.08,1.06,0.84,0.12,0.64,
1.4,0.26,-0.08,1.06,0.84,0.12,0.64,
1.403,0.26,-0.08,1.06,1.01,0.17,0.73,
1.404,0.26,-0.08,1.07,1.01,0.17,0.73,
1.411,0.27,-0.07,1.07,1.01,0.17,0.73,
1.412,0.27,-0.07,1.07,1.11,0.24,0.82,
1.412,0.27,-0.07,1.08,1.11,0.24,0.82,
1.413,0.27,-0.07,1.08,1.11,0.24,0.82,
1.413,0.27,-0.07,1.08,1.20,0.31,0.93,
1.413,0.28,-0.07,1.08,1.20,0.31,0.93,
1.415,0.28,-0.07,1.08,1.20,0.31,0.93,
1.418,0.29,-0.07,1.08,1.20,0.31,0.93,
1.418,0.29,-0.07,1.08,1.27,0.33,0.98,
1.42,0.29,-0.08,1.09,1.27,0.33,0.98,
1.426,0.29,-0.08,1.09,1.38,0.34,1.00,
1.427,0.29,-0.08,1.09,1.38,0.34,1.00,
1.427,0.30,-0.08,1.09,1.38,0.34,1.00,
1.428,0.30,-0.09,1.08,1.38,0.34,1.00,
1.428,0.30,-0.09,1.08,1.48,0.31,1.04,
1.43,0.30,-0.09,1.08,1.48,0.31,1.04,
1.433,0.29,-0.09,1.08,1.48,0.31,1.04,
1.434,0.29,-0.09,1.08,1.58,0.27,1.00,
1.435,0.29,-0.10,1.08,1.58,0.27,1.00,
1.438,0.29,-0.10,1.08,1.56,0.20,0.94,
1.439,0.29,-0.11,1.08,1.56,0.20,0.94,
1.444,0.29,-0.11,1.07,1.56,0.20,0.94,
1.445,0.28,-0.12,1.07,1.56,0.20,0.94,
1.445,0.28,-0.12,1.07,1.55,0.07,0.93,
1.446,0.28,-0.13,1.07,1.55,0.07,0.93,
1.448,0.28,-0.13,1.07,1.51,-0.03,0.82,
1.449,0.27,-0.14,1.06,1.51,-0.03,0.82,
1.45,0.27,-0.14,1.06,1.51,-0.03,0.82,
1.453,0.26,-0.14,1.06,1.51,-0.03,0.82,
1.454,0.26,-0.14,1.06,1.46,-0.18,0.78,
1.462,0.25,-0.14,1.07,1.46,-0.18,0.78,
1.463,0.25,-0.14,1.08,1.46,-0.18,0.78,
1.463,0.25,-0.14,1.08,1.38,-0.22,0.76,
1.464,0.24,-0.14,1.08,1.38,-0.22,0.76,
1.464,0.23,-0.14,1.08,1.38,-0.22,0.76,
1.465,0.23,-0.14,1.08,1.26,-0.26,0.83,
1.465,0.23,-0.14,1.09,1.26,-0.26,0.83,
1.468,0.22,-0.13,1.09,1.26,-0.26,0.83,
1.469,0.22,-0.13,1.09,1.13,-0.24,0.90,
1.47,0.21,-0.12,1.10,1.13,-0.24,0.90,
1.484,0.21,-0.12,1.10,1.13,-0.24,0.90,
1.485,0.21,-0.12,1.10,1.03,-0.18,1.01,
1.486,0.21,-0.11,1.11,1.03,-0.18,1.01,
1.486,0.21,-0.11,1.11,0.92,-0.07,1.09,
1.486,0.21,-0.11,1.12,0.92,-0.07,1.09,
1.49,0.21,-0.11,1.12,0.92,-0.07,1.09,
1.491,0.21,-0.11,1.13,0.92,-0.07,1.09,
1.491,0.21,-0.11,1.13,0.86,0.02,1.25,
1.491,0.21,-0.11,1.13,0.86,0.02,1.25,
1.492,0.21,-0.11,1.12,0.86,0.02,1.25,
1.492,0.21,-0.11,1.12,0.85,0.03,1.32,
1.493,0.22,-0.11,1.12,0.85,0.03,1.32,
1.493,0.22,-0.11,1.12,0.87,0.05,1.33,
1.493,0.22,-0.10,1.12,0.87,0.05,1.33,
1.495,0.23,-0.11,1.12,0.87,0.05,1.33,
1.497,0.23,-0.10,1.12,0.87,0.05,1.33,
1.498,0.23,-0.10,1.12,0.93,0.06,1.30,
1.5,0.24,-0.10,1.12,0.93,0.06,1.30,
1.502,0.24,-0.10,1.12,0.93,0.06,1.30,
1.503,0.24,-0.10,1.12,1.03,0.04,1.29,
1.505,0.25,-0.10,1.12,1.03,0.04,1.29,
1.512,0.25,-0.10,1.12,1.12,0.08,1.27,
1.512,0.25,-0.10,1.12,1.12,0.08,1.27,
1.512,0.25,-0.10,1.11,1.12,0.08,1.27,
1.512,0.25,-0.10,1.11,1.12,0.08,1.27,
1.512,0.25,-0.10,1.11,1.16,0.04,1.25,
1.514,0.25,-0.10,1.10,1.16,0.04,1.25,
1.517,0.25,-0.10,1.10,1.22,0.06,1.16,
1.517,0.25,-0.11,1.09,1.22,0.06,1.16,
1.519,0.25,-0.11,1.09,1.22,0.06,1.16,
1.526,0.25,-0.11,1.09,1.21,0.00,1.04,
1.526,0.25,-0.11,1.08,1.21,0.00,1.04,
1.526,0.25,-0.12,1.07,1.21,0.00,1.04,
1.527,0.25,-0.12,1.05,1.21,0.00,1.04,
1.527,0.25,-0.12,1.05,1.20,-0.08,0.93,
1.529,0.25,-0.13,1.05,1.20,-0.08,0.93,
1.532,0.25,-0.13,1.05,1.20,-0.08,0.93,
1.532,0.25,-0.13,1.05,1.19,-0.18,0.68,
1.534,0.25,-0.13,1.03,1.19,-0.18,0.68,
1.537,0.25,-0.13,1.03,1.19,-0.18,0.68,
1.537,0.25,-0.13,1.03,1.21,-0.27,0.56,
1.542,0.25,-0.13,1.03,1.21,-0.27,0.56,
1.543,0.24,-0.13,1.02,1.21,-0.27,0.56,
1.543,0.24,-0.13,1.02,1.20,-0.34,0.37,
1.544,0.24,-0.13,1.01,1.20,-0.34,0.37,
1.547,0.24,-0.13,1.01,1.17,-0.32,0.30,
1.547,0.24,-0.12,1.01,1.17,-0.32,0.30,
1.55,0.23,-0.11,1.01,1.17,-0.32,0.30,
1.552,0.23,-0.11,1.01,1.17,-0.32,0.30,
1.552,0.23,-0.11,1.01,1.13,-0.28,0.21,
1.554,0.23,-0.11,1.01,1.13,-0.28,0.21,
1.561,0.23,-0.10,1.01,1.13,-0.28,0.21,
1.561,0.23,-0.10,1.01,1.06,-0.19,0.20,
1.561,0.22,-0.10,1.01,1.06,-0.19,0.20,
1.562,0.23,-0.09,1.01,1.06,-0.19,0.20,
1.562,0.23,-0.09,1.01,1.03,-0.14,0.18,
1.564,0.22,-0.09,1.02,1.03,-0.14,0.18,
1.567,0.23,-0.09,1.02,1.03,-0.14,0.18,
1.567,0.23,-0.09,1.02,0.97,-0.05,0.21,
1.569,0.23,-0.09,1.02,0.97,-0.05,0.21,
1.571,0.23,-0.09,1.02,0.97,-0.05,0.21,
1.572,0.23,-0.09,1.02,0.96,0.03,0.27,
1.578,0.23,-0.09,1.02,0.96,0.03,0.27,
1.579,0.23,-0.09,1.02,0.96,0.03,0.27,
1.579,0.23,-0.09,1.02,0.98,0.01,0.27,
1.579,0.23,-0.09,1.02,0.98,0.01,0.27,
1.582,0.23,-0.09,1.02,0.98,0.01,0.27,
1.582,0.23,-0.09,1.02,1.02,0.02,0.28,
1.584,0.23,-0.09,1.02,1.02,0.02,0.28,
1.587,0.23,-0.09,1.03,1.02,0.02,0.28,
1.587,0.23,-0.09,1.03,0.98,-0.01,0.29,
1.589,0.23,-0.09,1.03,0.98,-0.01,0.29,
1.597,0.23,-0.10,1.03,0.98,-0.01,0.29,
1.597,0.23,-0.10,1.03,1.01,-0.03,0.33,
1.597,0.23,-0.09,1.03,1.01,-0.03,0.33,
1.597,0.22,-0.10,1.04,1.01,-0.03,0.33,
1.597,0.22,-0.10,1.04,0.98,-0.07,0.38,
1.599,0.20,-0.10,1.04,0.98,-0.07,0.38,
1.602,0.20,-0.11,1.04,0.98,-0.07,0.38,
1.602,0.20,-0.11,1.04,0.92,-0.09,0.43,
1.604,0.19,-0.10,1.04,0.92,-0.09,0.43,
1.612,0.19,-0.11,1.05,0.92,-0.09,0.43,
1.612,0.19,-0.11,1.05,0.74,-0.15,0.49,
1.612,0.18,-0.11,1.05,0.74,-0.15,0.49,
1.612,0.18,-0.11,1.05,0.74,-0.15,0.49,
1.612,0.18,-0.11,1.05,0.64,-0.19,0.51,
1.614,0.18,-0.12,1.05,0.64,-0.19,0.51,
1.617,0.18,-0.12,1.05,0.64,-0.19,0.51,
1.617,0.18,-0.12,1.05,0.56,-0.21,0.52,
1.619,0.17,-0.13,1.05,0.56,-0.21,0.52,
1.622,0.17,-0.13,1.05,0.54,-0.34,0.54,
1.622,0.17,-0.14,1.05,0.54,-0.34,0.54,
1.63,0.17,-0.14,1.04,0.54,-0.34,0.54,
1.63,0.17,-0.15,1.05,0.54,-0.34,0.54,
1.63,0.17,-0.15,1.05,0.48,-0.45,0.53,
1.63,0.17,-0.15,1.05,0.48,-0.45,0.53,
1.631,0.18,-0.15,1.04,0.48,-0.45,0.53,
1.631,0.18,-0.15,1.04,0.47,-0.53,0.50,
1.634,0.18,-0.15,1.05,0.47,-0.53,0.50,
1.636,0.19,-0.15,1.05,0.47,-0.53,0.50,
1.637,0.19,-0.15,1.05,0.55,-0.59,0.50,
1.639,0.19,-0.15,1.05,0.55,-0.59,0.50,
1.647,0.20,-0.15,1.05,0.55,-0.59,0.50,
1.647,0.20,-0.15,1.05,0.64,-0.63,0.53,
1.647,0.20,-0.15,1.05,0.64,-0.63,0.53,
1.65,0.20,-0.15,1.05,0.72,-0.62,0.54,
1.65,0.21,-0.15,1.06,0.72,-0.62,0.54,
1.65,0.21,-0.14,1.06,0.72,-0.62,0.54,
1.652,0.21,-0.14,1.06,0.82,-0.64,0.60,
1.652,0.21,-0.14,1.07,0.82,-0.64,0.60,
1.654,0.22,-0.14,1.07,0.82,-0.64,0.60,
1.663,0.22,-0.14,1.08,0.82,-0.64,0.60,
1.664,0.22,-0.14,1.08,0.86,-0.57,0.70,
1.664,0.22,-0.13,1.08,0.86,-0.57,0.70,
1.664,0.22,-0.13,1.08,0.90,-0.55,0.76,
1.664,0.22,-0.13,1.09,0.90,-0.55,0.76,
1.665,0.22,-0.13,1.09,0.90,-0.55,0.76,
1.666,0.22,-0.13,1.09,0.91,-0.51,0.87,
1.667,0.23,-0.13,1.09,0.91,-0.51,0.87,
1.668,0.23,-0.12,1.09,0.91,-0.51,0.87,
1.671,0.23,-0.12,1.09,0.91,-0.51,0.87,
1.671,0.23,-0.12,1.09,0.94,-0.46,0.91,
1.673,0.23,-0.12,1.09,0.94,-0.46,0.91,
1.68,0.23,-0.12,1.09,0.94,-0.46,0.91,
1.68,0.23,-0.12,1.09,0.94,-0.45,0.94,
1.68,0.23,-0.12,1.09,0.94,-0.45,0.94,
1.681,0.23,-0.12,1.08,0.94,-0.45,0.94,
1.681,0.23,-0.12,1.08,0.96,-0.46,0.89,
1.683,0.23,-0.12,1.08,0.96,-0.46,0.89,
1.685,0.23,-0.12,1.08,0.96,-0.46,0.91,
1.685,0.23,-0.12,1.08,0.96,-0.46,0.91,
1.688,0.22,-0.12,1.09,0.96,-0.46,0.91,
1.7,0.22,-0.13,1.09,0.96,-0.46,0.91,
1.7,0.22,-0.13,1.09,0.93,-0.44,0.85,
1.7,0.22,-0.12,1.09,0.93,-0.44,0.85,
1.7,0.22,-0.12,1.09,0.93,-0.44,0.85,
1.701,0.22,-0.12,1.09,0.87,-0.49,0.94,
1.701,0.21,-0.13,1.09,0.87,-0.49,0.94,
1.701,0.21,-0.12,1.08,0.87,-0.49,0.94,
1.701,0.21,-0.12,1.08,0.83,-0.51,0.89,
1.703,0.21,-0.12,1.08,0.83,-0.51,0.89,
1.706,0.21,-0.13,1.08,0.83,-0.51,0.89,
1.706,0.21,-0.13,1.08,0.79,-0.53,0.86,
1.715,0.21,-0.12,1.08,0.79,-0.53,0.86,
1.715,0.21,-0.12,1.08,0.79,-0.53,0.86,
1.716,0.21,-0.12,1.08,0.72,-0.53,0.82,
1.716,0.21,-0.11,1.08,0.72,-0.53,0.82,
1.716,0.21,-0.11,1.08,0.72,-0.53,0.82,
1.716,0.21,-0.11,1.08,0.72,-0.51,0.81,
1.718,0.21,-0.11,1.08,0.72,-0.51,0.81,
1.721,0.22,-0.11,1.07,0.72,-0.51,0.81,
1.721,0.22,-0.11,1.07,0.74,-0.46,0.80,
1.723,0.23,-0.10,1.07,0.74,-0.46,0.80,
1.738,0.23,-0.10,1.06,0.74,-0.46,0.80,
1.739,0.23,-0.10,1.06,0.79,-0.43,0.76,
1.739,0.24,-0.10,1.06,0.79,-0.43,0.76,
1.739,0.25,-0.09,1.06,0.79,-0.43,0.76,
1.74,0.25,-0.09,1.06,0.91,-0.37,0.68,
1.74,0.26,-0.09,1.06,0.91,-0.37,0.68,
1.74,0.26,-0.09,1.06,0.91,-0.37,0.68,
1.74,0.26,-0.09,1.06,1.05,-0.34,0.60,
1.74,0.27,-0.08,1.06,1.05,-0.34,0.60,
1.741,0.28,-0.08,1.05,1.05,-0.34,0.60,
1.741,0.28,-0.08,1.05,1.21,-0.31,0.57,
1.749,0.28,-0.07,1.05,1.21,-0.31,0.57,
1.75,0.29,-0.07,1.05,1.21,-0.31,0.57,
1.75,0.29,-0.07,1.05,1.35,-0.21,0.55,
1.751,0.29,-0.06,1.05,1.35,-0.21,0.55,
1.751,0.29,-0.05,1.05,1.35,-0.21,0.55,
1.751,0.29,-0.05,1.05,1.42,-0.14,0.52,
1.753,0.30,-0.05,1.05,1.42,-0.14,0.52,
1.755,0.30,-0.05,1.05,1.42,-0.14,0.52,
1.756,0.30,-0.05,1.05,1.49,-0.05,0.51,
1.765,0.31,-0.04,1.05,1.49,-0.05,0.51,
1.766,0.31,-0.04,1.05,1.49,-0.05,0.51,
1.766,0.31,-0.04,1.05,1.57,0.01,0.52,
1.766,0.32,-0.04,1.05,1.57,0.01,0.52,
1.767,0.32,-0.03,1.05,1.57,0.01,0.52,
1.767,0.32,-0.03,1.05,1.64,0.07,0.53,
1.767,0.32,-0.03,1.05,1.64,0.07,0.53,
1.769,0.32,-0.03,1.05,1.70,0.12,0.52,
1.77,0.32,-0.03,1.06,1.70,0.12,0.52,
1.772,0.32,-0.03,1.06,1.70,0.12,0.52,
1.783,0.32,-0.03,1.06,1.70,0.12,0.52,
1.785,0.32,-0.03,1.06,1.69,0.12,0.54,
1.785,0.32,-0.03,1.06,1.69,0.12,0.54,
1.786,0.32,-0.03,1.06,1.69,0.12,0.54,
1.787,0.32,-0.03,1.06,1.69,0.15,0.59,
1.787,0.33,-0.03,1.06,1.69,0.15,0.59,
1.788,0.33,-0.04,1.06,1.69,0.15,0.59,
1.788,0.33,-0.04,1.06,1.75,0.12,0.58,
1.789,0.33,-0.04,1.06,1.75,0.12,0.58,
1.81,0.32,-0.04,1.06,1.75,0.12,0.58,
1.811,0.32,-0.04,1.06,1.79,0.08,0.61,
1.811,0.32,-0.04,1.06,1.79,0.08,0.61,
1.811,0.32,-0.04,1.06,1.79,0.08,0.61,
1.812,0.32,-0.04,1.06,1.78,-0.01,0.57,
1.812,0.32,-0.05,1.06,1.78,-0.01,0.57,
1.812,0.31,-0.05,1.07,1.78,-0.01,0.57,
1.813,0.31,-0.05,1.07,1.71,-0.03,0.58,
1.813,0.31,-0.05,1.06,1.71,-0.03,0.58,
1.813,0.30,-0.05,1.06,1.71,-0.03,0.58,
1.814,0.30,-0.05,1.06,1.68,-0.11,0.61,
1.814,0.30,-0.05,1.06,1.68,-0.11,0.61,
1.815,0.30,-0.05,1.06,1.68,-0.11,0.61,
1.818,0.30,-0.05,1.06,1.61,-0.09,0.60,
1.818,0.30,-0.05,1.06,1.61,-0.09,0.60,
1.818,0.30,-0.05,1.06,1.61,-0.09,0.60,
1.818,0.30,-0.05,1.06,1.56,-0.10,0.57,
1.819,0.30,-0.05,1.05,1.56,-0.10,0.57,
1.819,0.29,-0.04,1.06,1.56,-0.10,0.57,
1.819,0.29,-0.04,1.06,1.55,-0.12,0.56,
1.822,0.29,-0.04,1.06,1.55,-0.12,0.56,
1.825,0.29,-0.04,1.05,1.55,-0.12,0.56,
1.826,0.29,-0.04,1.05,1.52,-0.08,0.53,
1.827,0.28,-0.03,1.05,1.52,-0.08,0.53,
1.83,0.28,-0.04,1.05,1.52,-0.08,0.53,
1.83,0.28,-0.04,1.05,1.46,-0.06,0.53,
1.832,0.29,-0.03,1.05,1.46,-0.06,0.53,
1.834,0.29,-0.02,1.05,1.46,-0.06,0.53,
1.835,0.29,-0.02,1.05,1.46,-0.04,0.46,
1.837,0.29,-0.02,1.05,1.46,-0.04,0.46,
1.84,0.29,-0.02,1.05,1.51,0.04,0.45,
1.84,0.29,-0.02,1.05,1.51,0.04,0.45,
1.842,0.29,-0.02,1.05,1.51,0.04,0.45,
1.844,0.30,-0.02,1.05,1.51,0.04,0.45,
1.844,0.30,-0.02,1.05,1.51,0.07,0.43,
1.846,0.30,-0.02,1.05,1.51,0.07,0.43,
1.849,0.30,-0.02,1.04,1.51,0.07,0.43,
1.849,0.30,-0.02,1.04,1.56,0.07,0.43,
1.851,0.30,-0.02,1.04,1.56,0.07,0.43,
1.854,0.30,-0.02,1.05,1.56,0.07,0.43,
1.854,0.30,-0.02,1.05,1.60,0.07,0.38,
1.856,0.30,-0.02,1.04,1.60,0.07,0.38,
1.859,0.30,-0.02,1.05,1.60,0.07,0.38,
1.86,0.30,-0.02,1.05,1.60,0.05,0.39,
1.861,0.30,-0.02,1.05,1.60,0.05,0.39,
1.864,0.30,-0.02,1.05,1.63,0.02,0.39,
1.865,0.30,-0.02,1.05,1.63,0.02,0.39,
1.867,0.30,-0.01,1.05,1.63,0.02,0.39,
1.869,0.30,-0.01,1.05,1.63,0.02,0.39,
1.869,0.30,-0.01,1.05,1.60,0.01,0.43,
1.871,0.29,-0.01,1.05,1.60,0.01,0.43,
1.875,0.29,-0.01,1.05,1.60,0.01,0.43,
1.876,0.29,-0.01,1.05,1.60,0.05,0.44,
1.876,0.29,-0.01,1.05,1.60,0.05,0.44,
1.879,0.29,-0.01,1.05,1.60,0.05,0.44,
1.879,0.29,-0.01,1.05,1.53,0.04,0.39,
1.882,0.29,-0.01,1.05,1.53,0.04,0.39,
1.885,0.28,-0.01,1.05,1.53,0.04,0.39,
1.885,0.28,-0.01,1.05,1.50,0.00,0.41,
1.886,0.28,-0.01,1.05,1.50,0.00,0.41,
1.889,0.28,-0.01,1.05,1.46,-0.02,0.41,
1.89,0.28,-0.02,1.05,1.46,-0.02,0.41,
1.891,0.27,-0.02,1.06,1.46,-0.02,0.41,
1.896,0.27,-0.02,1.06,1.46,-0.02,0.41,
1.896,0.27,-0.02,1.06,1.40,-0.09,0.42,
1.897,0.26,-0.02,1.06,1.40,-0.09,0.42,
1.899,0.26,-0.02,1.06,1.40,-0.09,0.42,
1.899,0.26,-0.02,1.06,1.32,-0.13,0.45,
1.901,0.26,-0.02,1.06,1.32,-0.13,0.45,
1.904,0.25,-0.03,1.06,1.32,-0.13,0.45,
1.904,0.25,-0.03,1.06,1.23,-0.17,0.45,
1.906,0.25,-0.02,1.06,1.23,-0.17,0.45,
1.909,0.25,-0.03,1.06,1.23,-0.17,0.45,
1.909,0.25,-0.03,1.06,1.18,-0.24,0.46,
1.911,0.25,-0.03,1.06,1.18,-0.24,0.46,
1.913,0.25,-0.03,1.06,1.14,-0.32,0.46,
1.914,0.25,-0.04,1.05,1.14,-0.32,0.46,
1.917,0.25,-0.04,1.05,1.14,-0.32,0.46,
1.919,0.25,-0.04,1.06,1.14,-0.32,0.46,
1.92,0.25,-0.04,1.06,1.12,-0.40,0.44,
1.921,0.25,-0.04,1.05,1.12,-0.40,0.44,
1.925,0.25,-0.03,1.05,1.12,-0.40,0.44,
1.925,0.25,-0.03,1.05,1.16,-0.45,0.41,
1.928,0.25,-0.03,1.05,1.16,-0.45,0.41,
1.93,0.25,-0.03,1.05,1.15,-0.47,0.32,
1.93,0.25,-0.03,1.04,1.15,-0.47,0.32,
1.931,0.25,-0.03,1.04,1.15,-0.47,0.32,
1.934,0.24,-0.02,1.04,1.15,-0.47,0.32,
1.934,0.24,-0.02,1.04,1.18,-0.47,0.27,
1.936,0.24,-0.02,1.04,1.18,-0.47,0.27,
1.939,0.24,-0.02,1.04,1.15,-0.45,0.21,
1.939,0.24,-0.02,1.03,1.15,-0.45,0.21,
1.941,0.23,-0.02,1.03,1.15,-0.45,0.21,
1.943,0.23,-0.02,1.03,1.15,-0.45,0.21,
1.944,0.23,-0.02,1.03,1.14,-0.43,0.20,
1.946,0.23,-0.01,1.02,1.14,-0.43,0.20,
1.949,0.23,-0.01,1.02,1.14,-0.43,0.20,
1.949,0.23,-0.01,1.02,1.07,-0.42,0.13,
1.951,0.23,-0.01,1.02,1.07,-0.42,0.13,
1.954,0.23,-0.01,1.02,1.03,-0.39,0.04,
1.955,0.22,-0.01,1.02,1.03,-0.39,0.04,
1.957,0.22,-0.01,1.01,1.03,-0.39,0.04,
1.96,0.22,-0.00,1.01,1.03,-0.39,0.04,
1.96,0.22,-0.00,1.01,1.02,-0.36,0.07,
1.961,0.22,0.00,1.01,1.02,-0.36,0.07,
1.963,0.22,0.00,1.01,0.99,-0.34,-0.02,
1.964,0.22,0.00,1.00,0.99,-0.34,-0.02,
1.965,0.22,0.00,1.00,0.99,-0.34,-0.02,
1.969,0.22,0.00,1.00,1.01,-0.32,-0.13,
1.969,0.22,0.01,1.00,1.01,-0.32,-0.13,
1.971,0.22,0.01,0.99,1.01,-0.32,-0.13,
1.974,0.22,0.02,0.99,1.01,-0.32,-0.13,
1.974,0.22,0.02,0.99,1.06,-0.32,-0.21,
1.977,0.23,0.02,0.97,1.06,-0.32,-0.21,
1.981,0.22,0.02,0.97,1.06,-0.32,-0.21,
1.982,0.22,0.02,0.97,1.06,-0.25,-0.24,
1.982,0.22,0.03,0.97,1.06,-0.25,-0.24,
1.984,0.22,0.04,0.97,1.06,-0.25,-0.24,
1.984,0.22,0.04,0.97,1.14,-0.19,-0.42,
1.985,0.23,0.04,0.97,1.14,-0.19,-0.42,
1.988,0.23,0.04,0.97,1.14,-0.11,-0.42,
1.989,0.23,0.04,0.97,1.14,-0.11,-0.42,
1.991,0.23,0.05,0.97,1.14,-0.11,-0.42,
1.993,0.23,0.06,0.97,1.14,-0.11,-0.42,
1.993,0.23,0.06,0.97,1.21,-0.06,-0.46,
1.995,0.23,0.06,0.97,1.21,-0.06,-0.46,
1.998,0.23,0.07,0.98,1.21,-0.06,-0.46,
1.999,0.23,0.07,0.98,1.22,0.05,-0.47,
2.001,0.22,0.07,0.98,1.22,0.05,-0.47,
2.003,0.22,0.07,0.98,1.22,0.05,-0.47,
2.004,0.22,0.07,0.98,1.24,0.10,-0.41,
2.005,0.22,0.06,0.99,1.24,0.10,-0.41,
2.015,0.22,0.06,0.99,1.17,0.11,-0.33,
2.015,0.21,0.07,0.99,1.17,0.11,-0.33,
2.016,0.20,0.07,0.99,1.17,0.11,-0.33,
2.016,0.20,0.07,0.99,1.11,0.05,-0.25,
2.016,0.20,0.07,1.00,1.11,0.05,-0.25,
2.017,0.19,0.06,1.00,1.11,0.05,-0.25,
2.017,0.18,0.07,1.00,1.11,0.05,-0.25,
2.017,0.18,0.07,1.00,1.01,0.04,-0.21,
2.019,0.18,0.06,1.00,1.01,0.04,-0.21,
2.022,0.17,0.05,1.00,1.01,0.04,-0.21,
2.022,0.17,0.05,1.00,0.87,-0.00,-0.14,
2.029,0.17,0.05,1.00,0.87,-0.00,-0.14,
2.03,0.16,0.05,1.00,0.87,-0.00,-0.14,
2.03,0.16,0.05,1.00,0.81,-0.10,-0.16,
2.03,0.16,0.05,1.00,0.81,-0.10,-0.16,
2.032,0.16,0.06,0.99,0.81,-0.10,-0.16,
2.032,0.16,0.06,0.99,0.74,-0.19,-0.17,
2.034,0.16,0.06,0.99,0.74,-0.19,-0.17,
2.038,0.16,0.06,0.99,0.69,-0.18,-0.20,
2.038,0.16,0.06,0.98,0.69,-0.18,-0.20,
2.039,0.15,0.06,0.98,0.69,-0.18,-0.20,
2.043,0.15,0.06,0.97,0.69,-0.18,-0.20,
2.043,0.15,0.06,0.97,0.70,-0.18,-0.32,
2.044,0.14,0.07,0.97,0.70,-0.18,-0.32,
2.048,0.14,0.07,0.95,0.70,-0.18,-0.32,
2.048,0.14,0.07,0.95,0.59,-0.21,-0.41,
2.049,0.14,0.07,0.95,0.59,-0.21,-0.41,
2.052,0.14,0.08,0.94,0.59,-0.21,-0.41,
2.052,0.14,0.08,0.94,0.56,-0.16,-0.53,
2.054,0.13,0.08,0.94,0.56,-0.16,-0.53,
2.057,0.13,0.08,0.94,0.56,-0.16,-0.53,
2.057,0.13,0.08,0.94,0.55,-0.15,-0.65,
2.059,0.13,0.08,0.93,0.55,-0.15,-0.65,
2.062,0.13,0.08,0.92,0.55,-0.15,-0.65,
2.062,0.13,0.08,0.92,0.48,-0.15,-0.72,
2.064,0.13,0.08,0.92,0.48,-0.15,-0.72,
2.066,0.13,0.08,0.91,0.48,-0.15,-0.72,
2.067,0.13,0.08,0.91,0.48,-0.19,-0.83,
2.069,0.13,0.08,0.91,0.48,-0.19,-0.83,
2.072,0.12,0.08,0.90,0.48,-0.19,-0.83,
2.072,0.12,0.08,0.90,0.47,-0.26,-0.94,
2.074,0.12,0.09,0.89,0.47,-0.26,-0.94,
2.077,0.12,0.09,0.89,0.47,-0.26,-0.94,
2.078,0.12,0.09,0.89,0.44,-0.26,-1.07,
2.079,0.11,0.10,0.88,0.44,-0.26,-1.07,
2.081,0.12,0.10,0.88,0.44,-0.26,-1.07,
2.081,0.12,0.10,0.88,0.40,-0.22,-1.20,
2.084,0.11,0.10,0.87,0.40,-0.22,-1.20,
2.086,0.11,0.10,0.87,0.37,-0.17,-1.27,
2.087,0.12,0.10,0.87,0.37,-0.17,-1.27,
2.088,0.12,0.09,0.86,0.37,-0.17,-1.27,
2.097,0.12,0.09,0.85,0.37,-0.17,-1.27,
2.097,0.12,0.09,0.85,0.37,-0.21,-1.37,
2.097,0.12,0.09,0.84,0.37,-0.21,-1.37,
2.098,0.12,0.08,0.85,0.37,-0.21,-1.37,
2.098,0.12,0.08,0.85,0.41,-0.32,-1.50,
2.1,0.11,0.08,0.84,0.41,-0.32,-1.50,
2.101,0.11,0.09,0.83,0.41,-0.32,-1.50,
2.101,0.11,0.09,0.83,0.39,-0.43,-1.61,
2.103,0.11,0.09,0.83,0.39,-0.43,-1.61,
2.106,0.11,0.10,0.83,0.39,-0.43,-1.61,
2.106,0.11,0.10,0.83,0.38,-0.45,-1.71,
2.109,0.11,0.11,0.83,0.38,-0.45,-1.71,
2.111,0.11,0.11,0.83,0.36,-0.38,-1.77,
2.111,0.11,0.11,0.82,0.36,-0.38,-1.77,
2.114,0.10,0.12,0.82,0.36,-0.38,-1.77,
2.116,0.10,0.13,0.83,0.36,-0.38,-1.77,
2.116,0.10,0.13,0.83,0.33,-0.27,-1.78,
2.118,0.10,0.13,0.83,0.33,-0.27,-1.78,
2.121,0.11,0.13,0.84,0.33,-0.27,-1.78,
2.121,0.11,0.13,0.84,0.30,-0.15,-1.76,
2.123,0.11,0.13,0.83,0.30,-0.15,-1.76,
2.128,0.12,0.14,0.83,0.30,-0.15,-1.76,
2.128,0.12,0.14,0.83,0.36,-0.07,-1.68,
2.128,0.12,0.14,0.83,0.36,-0.07,-1.68,
2.131,0.13,0.13,0.83,0.36,-0.07,-1.68,
2.131,0.13,0.13,0.83,0.45,-0.05,-1.72,
2.133,0.13,0.14,0.83,0.45,-0.05,-1.72,
2.137,0.13,0.14,0.83,0.55,-0.08,-1.72,
2.137,0.13,0.13,0.83,0.55,-0.08,-1.72,
2.139,0.13,0.13,0.83,0.55,-0.08,-1.72,
2.141,0.13,0.13,0.83,0.55,-0.08,-1.72,
2.141,0.13,0.13,0.83,0.60,-0.10,-1.74,
2.145,0.13,0.13,0.84,0.60,-0.10,-1.74,
2.146,0.13,0.13,0.84,0.60,-0.10,-1.74,
2.146,0.13,0.13,0.84,0.61,-0.16,-1.73,
2.148,0.13,0.13,0.83,0.61,-0.16,-1.73,
2.151,0.13,0.13,0.83,0.61,-0.16,-1.73,
2.152,0.13,0.13,0.83,0.60,-0.19,-1.62,
2.153,0.13,0.14,0.83,0.60,-0.19,-1.62,
2.156,0.13,0.14,0.83,0.60,-0.19,-1.62,
2.156,0.13,0.14,0.83,0.60,-0.15,-1.67,
2.158,0.13,0.14,0.83,0.60,-0.15,-1.67,
2.161,0.13,0.14,0.83,0.63,-0.12,-1.67,
2.161,0.13,0.14,0.83,0.63,-0.12,-1.67,
2.164,0.12,0.15,0.83,0.63,-0.12,-1.67,
2.166,0.12,0.15,0.83,0.63,-0.12,-1.67,
2.166,0.12,0.15,0.83,0.59,-0.09,-1.69,
2.168,0.12,0.15,0.83,0.59,-0.09,-1.69,
2.171,0.12,0.15,0.82,0.59,-0.09,-1.69,
2.171,0.12,0.15,0.82,0.56,-0.05,-1.70,
2.174,0.12,0.15,0.82,0.56,-0.05,-1.70,
2.177,0.12,0.15,0.83,0.56,-0.05,-1.70,
2.178,0.12,0.15,0.83,0.57,-0.02,-1.74,
2.178,0.12,0.15,0.83,0.57,-0.02,-1.74,
2.181,0.12,0.15,0.83,0.57,-0.02,-1.74,
2.181,0.12,0.15,0.83,0.55,0.01,-1.73,
2.184,0.12,0.15,0.83,0.55,0.01,-1.73,
2.186,0.12,0.15,0.83,0.56,-0.01,-1.69,
2.187,0.11,0.15,0.82,0.56,-0.01,-1.69,
2.188,0.11,0.15,0.82,0.56,-0.01,-1.69,
2.191,0.11,0.14,0.81,0.56,-0.01,-1.69,
2.192,0.11,0.14,0.81,0.56,-0.04,-1.72,
2.194,0.11,0.14,0.81,0.56,-0.04,-1.72,
2.196,0.11,0.14,0.82,0.56,-0.04,-1.72,
2.197,0.11,0.14,0.82,0.50,-0.08,-1.78,
2.198,0.10,0.14,0.82,0.50,-0.08,-1.78,
2.201,0.10,0.14,0.81,0.50,-0.08,-1.78,
2.201,0.10,0.14,0.81,0.50,-0.14,-1.81,
2.203,0.10,0.14,0.80,0.50,-0.14,-1.81,
2.206,0.10,0.14,0.80,0.50,-0.14,-1.81,
2.207,0.10,0.14,0.80,0.42,-0.17,-1.83,
2.208,0.10,0.14,0.80,0.42,-0.17,-1.83,
2.211,0.10,0.14,0.80,0.44,-0.17,-1.96,
2.212,0.10,0.14,0.79,0.44,-0.17,-1.96,
2.213,0.09,0.14,0.79,0.44,-0.17,-1.96,
2.216,0.09,0.14,0.79,0.44,-0.17,-1.96,
2.216,0.09,0.14,0.79,0.40,-0.18,-2.00,
2.218,0.10,0.14,0.79,0.40,-0.18,-2.00,
2.221,0.10,0.14,0.79,0.40,-0.18,-2.00,
2.221,0.10,0.14,0.79,0.39,-0.19,-2.03,
2.223,0.10,0.14,0.80,0.39,-0.19,-2.03,
2.226,0.10,0.14,0.80,0.39,-0.19,-2.03,
2.226,0.10,0.14,0.80,0.42,-0.17,-2.03,
2.233,0.10,0.15,0.80,0.42,-0.17,-2.03,
2.234,0.10,0.15,0.81,0.42,-0.17,-2.03,
2.234,0.10,0.15,0.81,0.43,-0.15,-1.96,
2.234,0.10,0.15,0.81,0.43,-0.15,-1.96,
2.238,0.10,0.15,0.81,0.47,-0.09,-1.92,
2.239,0.10,0.14,0.81,0.47,-0.09,-1.92,
2.239,0.10,0.15,0.82,0.47,-0.09,-1.92,
2.24,0.10,0.15,0.83,0.47,-0.09,-1.92,
2.241,0.10,0.15,0.83,0.47,-0.10,-1.85,
2.244,0.10,0.15,0.82,0.47,-0.10,-1.85,
2.245,0.10,0.15,0.83,0.47,-0.10,-1.85,
2.245,0.10,0.15,0.83,0.48,-0.06,-1.69,
2.248,0.11,0.15,0.84,0.48,-0.06,-1.69,
2.25,0.10,0.15,0.84,0.48,-0.06,-1.69,
2.25,0.10,0.15,0.84,0.46,-0.09,-1.66,
2.253,0.10,0.14,0.84,0.46,-0.09,-1.66,
2.255,0.10,0.14,0.84,0.46,-0.09,-1.66,
2.256,0.10,0.14,0.84,0.49,-0.07,-1.55,
2.258,0.10,0.15,0.84,0.49,-0.07,-1.55,
2.261,0.10,0.15,0.84,0.43,-0.13,-1.56,
2.261,0.10,0.14,0.84,0.43,-0.13,-1.56,
2.264,0.09,0.14,0.84,0.43,-0.13,-1.56,
2.266,0.10,0.15,0.85,0.43,-0.13,-1.56,
2.266,0.10,0.15,0.85,0.46,-0.11,-1.54,
2.267,0.09,0.15,0.85,0.46,-0.11,-1.54,
2.27,0.09,0.15,0.85,0.46,-0.11,-1.54,
2.27,0.09,0.15,0.85,0.37,-0.10,-1.50,
2.273,0.08,0.16,0.85,0.37,-0.10,-1.50,
2.278,0.08,0.16,0.85,0.37,-0.10,-1.50,
2.279,0.08,0.16,0.85,0.30,-0.06,-1.47,
2.279,0.07,0.16,0.86,0.30,-0.06,-1.47,
2.281,0.07,0.16,0.86,0.22,-0.02,-1.41,
2.281,0.06,0.16,0.86,0.22,-0.02,-1.41,
2.283,0.07,0.17,0.87,0.22,-0.02,-1.41,
2.285,0.07,0.17,0.87,0.11,0.00,-1.31,
2.285,0.06,0.17,0.87,0.11,0.00,-1.31,
2.288,0.06,0.17,0.88,0.11,0.00,-1.31,
2.29,0.06,0.17,0.89,0.11,0.00,-1.31,
2.291,0.06,0.17,0.89,0.08,0.06,-1.22,
2.295,0.06,0.17,0.90,0.08,0.06,-1.22,
2.295,0.05,0.17,0.90,0.08,0.06,-1.22,
2.295,0.05,0.17,0.90,0.04,0.09,-1.08,
2.297,0.05,0.17,0.91,0.04,0.09,-1.08,
2.301,0.05,0.16,0.91,0.04,0.09,-1.08,
2.301,0.05,0.16,0.91,0.00,0.07,-0.92,
2.303,0.05,0.16,0.91,0.00,0.07,-0.92,
2.306,0.05,0.16,0.91,-0.01,0.04,-0.84,
2.309,0.05,0.16,0.91,-0.01,0.04,-0.84,
2.309,0.05,0.16,0.91,-0.01,0.04,-0.84,
2.312,0.05,0.16,0.91,-0.04,-0.02,-0.79,
2.312,0.05,0.16,0.91,-0.04,-0.02,-0.79,
2.313,0.05,0.16,0.91,-0.04,-0.02,-0.79,
2.315,0.06,0.16,0.90,-0.04,-0.02,-0.79,
2.315,0.06,0.16,0.90,-0.04,-0.05,-0.80,
2.317,0.06,0.16,0.90,-0.04,-0.05,-0.80,
2.32,0.07,0.16,0.89,-0.04,-0.05,-0.80,
2.321,0.07,0.16,0.89,0.00,-0.03,-0.87,
2.322,0.07,0.16,0.89,0.00,-0.03,-0.87,
2.326,0.07,0.16,0.89,0.00,-0.03,-0.87,
2.326,0.07,0.16,0.89,0.09,-0.07,-0.97,
2.333,0.08,0.16,0.88,0.09,-0.07,-0.97,
2.334,0.08,0.16,0.88,0.09,-0.07,-0.97,
2.334,0.08,0.16,0.88,0.15,-0.02,-1.04,
2.334,0.08,0.17,0.88,0.15,-0.02,-1.04,
2.334,0.09,0.17,0.89,0.15,-0.02,-1.04,
2.335,0.09,0.17,0.89,0.25,-0.05,-1.09,
2.337,0.08,0.17,0.89,0.25,-0.05,-1.09,
2.339,0.08,0.17,0.89,0.25,-0.05,-1.09,
2.339,0.08,0.17,0.89,0.31,0.03,-1.08,
2.342,0.08,0.17,0.89,0.31,0.03,-1.08,
2.344,0.07,0.17,0.89,0.31,0.03,-1.08,
2.345,0.07,0.17,0.89,0.23,0.07,-1.04,
2.347,0.07,0.17,0.89,0.23,0.07,-1.04,
2.349,0.06,0.17,0.90,0.23,0.07,-1.04,
2.35,0.06,0.17,0.90,0.20,0.08,-0.98,
2.351,0.05,0.17,0.90,0.20,0.08,-0.98,
2.354,0.05,0.17,0.90,0.10,0.08,-0.96,
2.354,0.05,0.17,0.91,0.10,0.08,-0.96,
2.357,0.05,0.16,0.91,0.10,0.08,-0.96,
2.36,0.04,0.17,0.92,0.10,0.08,-0.96,
2.36,0.04,0.17,0.92,-0.01,0.04,-0.83,
2.362,0.03,0.17,0.91,-0.01,0.04,-0.83,
2.366,0.02,0.17,0.91,-0.01,0.04,-0.83,
2.366,0.02,0.17,0.91,-0.10,0.04,-0.76,
2.366,0.02,0.17,0.91,-0.10,0.04,-0.76,
2.37,0.02,0.17,0.91,-0.10,0.04,-0.76,
2.37,0.02,0.17,0.91,-0.24,0.05,-0.79,
2.372,0.02,0.16,0.91,-0.24,0.05,-0.79,
2.375,0.01,0.16,0.91,-0.24,0.05,-0.79,
2.375,0.01,0.16,0.91,-0.28,0.07,-0.83,
2.378,0.01,0.15,0.90,-0.28,0.07,-0.83,
2.379,0.01,0.16,0.91,-0.28,0.07,-0.83,
2.38,0.01,0.16,0.91,-0.32,-0.00,-0.85,
2.382,0.00,0.15,0.91,-0.32,-0.00,-0.85,
2.384,0.00,0.15,0.91,-0.41,-0.06,-0.88,
2.384,0.00,0.14,0.91,-0.41,-0.06,-0.88,
2.387,0.00,0.15,0.91,-0.41,-0.06,-0.88,
2.39,0.00,0.15,0.91,-0.41,-0.06,-0.88,
2.39,0.00,0.15,0.91,-0.43,-0.13,-0.84,
2.392,-0.00,0.15,0.91,-0.43,-0.13,-0.84,
2.395,-0.00,0.15,0.92,-0.43,-0.13,-0.84,
2.395,-0.00,0.15,0.92,-0.43,-0.11,-0.79,
2.397,-0.01,0.15,0.92,-0.43,-0.11,-0.79,
2.399,-0.01,0.15,0.92,-0.43,-0.11,-0.79,
2.4,-0.01,0.15,0.92,-0.48,-0.13,-0.75,
2.401,-0.02,0.15,0.93,-0.48,-0.13,-0.75,
2.405,-0.02,0.15,0.93,-0.48,-0.13,-0.75,
2.405,-0.02,0.15,0.93,-0.54,-0.11,-0.69,
2.407,-0.03,0.15,0.94,-0.54,-0.11,-0.69,
2.409,-0.03,0.15,0.94,-0.63,-0.08,-0.59,
2.41,-0.04,0.15,0.96,-0.63,-0.08,-0.59,
2.413,-0.04,0.15,0.96,-0.63,-0.08,-0.59,
2.414,-0.04,0.15,0.96,-0.77,-0.06,-0.43,
2.414,-0.05,0.15,0.97,-0.77,-0.06,-0.43,
2.416,-0.05,0.15,0.97,-0.77,-0.06,-0.43,
2.419,-0.06,0.15,0.97,-0.77,-0.06,-0.43,
2.419,-0.06,0.15,0.97,-0.89,-0.06,-0.30,
2.421,-0.06,0.15,0.98,-0.89,-0.06,-0.30,
2.424,-0.07,0.15,0.98,-0.89,-0.06,-0.30,
2.425,-0.07,0.15,0.98,-0.98,-0.06,-0.18,
2.426,-0.07,0.15,0.98,-0.98,-0.06,-0.18,
2.43,-0.07,0.15,0.99,-0.98,-0.06,-0.18,
2.43,-0.07,0.15,0.99,-1.07,-0.05,-0.12,
2.43,-0.07,0.15,0.98,-1.07,-0.05,-0.12,
2.434,-0.07,0.15,0.98,-1.09,-0.07,-0.08,
2.434,-0.07,0.15,0.98,-1.09,-0.07,-0.08,
2.436,-0.07,0.15,0.98,-1.09,-0.07,-0.08,
2.439,-0.07,0.15,0.97,-1.09,-0.07,-0.08,
2.439,-0.07,0.15,0.97,-1.15,-0.11,-0.08,
2.441,-0.07,0.14,0.97,-1.15,-0.11,-0.08,
2.451,-0.07,0.14,0.97,-1.15,-0.11,-0.08,
2.452,-0.07,0.14,0.97,-1.17,-0.11,-0.16,
2.452,-0.07,0.13,0.96,-1.17,-0.11,-0.16,
2.453,-0.07,0.13,0.96,-1.17,-0.11,-0.16,
2.453,-0.07,0.13,0.96,-1.16,-0.16,-0.24,
2.453,-0.07,0.13,0.96,-1.16,-0.16,-0.24,
2.453,-0.08,0.13,0.96,-1.16,-0.16,-0.24,
2.454,-0.08,0.13,0.96,-1.15,-0.26,-0.29,
2.458,-0.08,0.13,0.96,-1.15,-0.26,-0.29,
2.459,-0.08,0.13,0.96,-1.19,-0.29,-0.33,
2.459,-0.08,0.13,0.95,-1.19,-0.29,-0.33,
2.464,-0.08,0.13,0.94,-1.19,-0.29,-0.33,
2.465,-0.08,0.13,0.95,-1.19,-0.29,-0.33,
2.465,-0.08,0.13,0.95,-1.22,-0.29,-0.39,
2.466,-0.09,0.13,0.94,-1.22,-0.29,-0.39,
2.469,-0.09,0.13,0.94,-1.22,-0.29,-0.39,
2.469,-0.09,0.13,0.94,-1.27,-0.29,-0.48,
2.473,-0.10,0.13,0.94,-1.27,-0.29,-0.48,
2.473,-0.11,0.13,0.93,-1.27,-0.29,-0.48,
2.473,-0.11,0.13,0.93,-1.33,-0.29,-0.52,
2.475,-0.11,0.13,0.93,-1.33,-0.29,-0.52,
2.478,-0.11,0.13,0.93,-1.45,-0.28,-0.56,
2.478,-0.11,0.12,0.93,-1.45,-0.28,-0.56,
2.48,-0.11,0.12,0.92,-1.45,-0.28,-0.56,
2.483,-0.11,0.12,0.92,-1.52,-0.32,-0.61,
2.483,-0.12,0.13,0.92,-1.52,-0.32,-0.61,
2.485,-0.12,0.13,0.93,-1.52,-0.32,-0.61,
2.488,-0.12,0.13,0.93,-1.57,-0.35,-0.67,
2.488,-0.12,0.12,0.93,-1.57,-0.35,-0.67,
2.49,-0.13,0.13,0.93,-1.57,-0.35,-0.67,
2.493,-0.13,0.13,0.93,-1.57,-0.35,-0.67,
2.493,-0.13,0.13,0.93,-1.61,-0.34,-0.63,
2.496,-0.13,0.13,0.94,-1.61,-0.34,-0.63,
2.498,-0.14,0.13,0.94,-1.61,-0.34,-0.63,
2.498,-0.14,0.13,0.94,-1.69,-0.30,-0.61,
2.5,-0.14,0.13,0.95,-1.69,-0.30,-0.61,
2.502,-0.14,0.13,0.95,-1.69,-0.30,-0.61,
2.503,-0.14,0.13,0.95,-1.73,-0.27,-0.53,
2.505,-0.14,0.14,0.95,-1.73,-0.27,-0.53,
2.507,-0.14,0.14,0.95,-1.73,-0.27,-0.53,
2.508,-0.14,0.14,0.95,-1.75,-0.29,-0.42,
2.511,-0.14,0.14,0.95,-1.75,-0.29,-0.42,
2.513,-0.14,0.13,0.96,-1.75,-0.29,-0.42,
2.513,-0.14,0.13,0.96,-1.76,-0.25,-0.42,
2.514,-0.14,0.13,0.96,-1.76,-0.25,-0.42,
2.518,-0.14,0.13,0.96,-1.76,-0.25,-0.42,
2.518,-0.14,0.13,0.96,-1.72,-0.28,-0.36,
2.52,-0.14,0.13,0.97,-1.72,-0.28,-0.36,
2.523,-0.14,0.14,0.97,-1.72,-0.28,-0.36,
2.523,-0.14,0.14,0.97,-1.75,-0.31,-0.28,
2.525,-0.13,0.13,0.96,-1.75,-0.31,-0.28,
2.528,-0.12,0.13,0.96,-1.75,-0.31,-0.28,
2.528,-0.12,0.13,0.96,-1.71,-0.31,-0.22,
2.53,-0.12,0.13,0.96,-1.71,-0.31,-0.22,
2.533,-0.12,0.13,0.96,-1.58,-0.29,-0.29,
2.533,-0.12,0.13,0.96,-1.58,-0.29,-0.29,
2.536,-0.12,0.14,0.95,-1.58,-0.29,-0.29,
2.538,-0.11,0.14,0.96,-1.58,-0.29,-0.29,
2.538,-0.11,0.14,0.96,-1.53,-0.30,-0.31,
2.54,-0.11,0.15,0.95,-1.53,-0.30,-0.31,
2.543,-0.11,0.15,0.95,-1.53,-0.30,-0.31,
2.543,-0.11,0.15,0.95,-1.48,-0.22,-0.35,
2.545,-0.11,0.15,0.95,-1.48,-0.22,-0.35,
2.547,-0.12,0.15,0.95,-1.48,-0.22,-0.35,
2.548,-0.12,0.15,0.95,-1.45,-0.17,-0.41,
2.55,-0.12,0.15,0.95,-1.45,-0.17,-0.41,
2.553,-0.12,0.15,0.95,-1.45,-0.17,-0.41,
2.553,-0.12,0.15,0.95,-1.45,-0.16,-0.38,
2.555,-0.12,0.14,0.95,-1.45,-0.16,-0.38,
2.558,-0.12,0.14,0.95,-1.47,-0.16,-0.43,
2.558,-0.13,0.14,0.94,-1.47,-0.16,-0.43,
2.56,-0.12,0.14,0.95,-1.47,-0.16,-0.43,
2.566,-0.13,0.13,0.94,-1.47,-0.16,-0.43,
2.567,-0.13,0.13,0.94,-1.50,-0.20,-0.45,
2.567,-0.13,0.13,0.94,-1.50,-0.20,-0.45,
2.567,-0.14,0.13,0.94,-1.50,-0.20,-0.45,
2.568,-0.14,0.13,0.94,-1.53,-0.24,-0.45,
2.569,-0.14,0.13,0.95,-1.53,-0.24,-0.45,
2.572,-0.15,0.12,0.94,-1.53,-0.24,-0.45,
2.572,-0.15,0.12,0.94,-1.61,-0.30,-0.51,
2.574,-0.15,0.12,0.95,-1.61,-0.30,-0.51,
2.578,-0.16,0.11,0.94,-1.61,-0.30,-0.51,
2.579,-0.16,0.11,0.94,-1.68,-0.37,-0.46,
2.579,-0.16,0.11,0.95,-1.68,-0.37,-0.46,
2.582,-0.16,0.11,0.95,-1.76,-0.43,-0.44,
2.582,-0.17,0.11,0.94,-1.76,-0.43,-0.44,
2.584,-0.18,0.10,0.94,-1.76,-0.43,-0.44,
2.587,-0.18,0.10,0.94,-1.76,-0.43,-0.44,
2.588,-0.18,0.10,0.94,-1.85,-0.51,-0.44,
2.589,-0.19,0.10,0.95,-1.85,-0.51,-0.44,
2.592,-0.19,0.09,0.96,-1.85,-0.51,-0.44,
2.592,-0.19,0.09,0.96,-1.98,-0.56,-0.47,
2.594,-0.19,0.09,0.96,-1.98,-0.56,-0.47,
2.597,-0.19,0.09,0.97,-1.98,-0.56,-0.47,
2.597,-0.19,0.09,0.97,-2.06,-0.64,-0.36,
2.6,-0.20,0.09,0.98,-2.06,-0.64,-0.36,
2.602,-0.20,0.08,0.98,-2.06,-0.64,-0.36,
2.602,-0.20,0.08,0.98,-2.08,-0.67,-0.24,
2.604,-0.20,0.08,0.98,-2.08,-0.67,-0.24,
2.607,-0.20,0.08,0.98,-2.13,-0.75,-0.12,
2.607,-0.20,0.08,0.99,-2.13,-0.75,-0.12,
2.609,-0.19,0.08,0.99,-2.13,-0.75,-0.12,
2.612,-0.19,0.08,0.99,-2.13,-0.75,-0.12,
2.612,-0.19,0.08,0.99,-2.16,-0.75,-0.02,
2.615,-0.19,0.08,1.00,-2.16,-0.75,-0.02,
2.616,-0.19,0.08,1.00,-2.16,-0.75,-0.02,
2.617,-0.19,0.08,1.00,-2.08,-0.75,0.01,
2.619,-0.19,0.08,1.00,-2.08,-0.75,0.01,
2.622,-0.18,0.09,1.00,-2.08,-0.75,0.01,
2.622,-0.18,0.09,1.00,-2.06,-0.77,0.09,
2.624,-0.17,0.09,1.00,-2.06,-0.77,0.09,
2.627,-0.17,0.10,1.00,-2.06,-0.77,0.09,
2.628,-0.17,0.10,1.00,-2.01,-0.75,0.12,
2.63,-0.17,0.10,1.00,-2.01,-0.75,0.12,
2.632,-0.17,0.10,1.00,-1.91,-0.67,0.12,
2.632,-0.17,0.10,1.00,-1.91,-0.67,0.12,
2.634,-0.16,0.11,1.00,-1.91,-0.67,0.12,
2.637,-0.15,0.12,0.99,-1.91,-0.67,0.12,
2.638,-0.15,0.12,0.99,-1.86,-0.62,0.11,
2.64,-0.14,0.12,0.99,-1.86,-0.62,0.11,
2.642,-0.14,0.13,0.99,-1.86,-0.62,0.11,
2.642,-0.14,0.13,0.99,-1.75,-0.51,0.07,
2.647,-0.13,0.13,0.98,-1.75,-0.51,0.07,
2.647,-0.12,0.14,0.97,-1.75,-0.51,0.07,
2.648,-0.12,0.14,0.97,-1.58,-0.38,-0.03,
2.649,-0.11,0.15,0.97,-1.58,-0.38,-0.03,
2.652,-0.11,0.15,0.97,-1.58,-0.38,-0.03,
2.652,-0.11,0.15,0.97,-1.43,-0.25,-0.13,
2.655,-0.11,0.16,0.96,-1.43,-0.25,-0.13,
2.657,-0.11,0.16,0.96,-1.29,-0.11,-0.20,
2.657,-0.10,0.17,0.96,-1.29,-0.11,-0.20,
2.659,-0.10,0.17,0.95,-1.29,-0.11,-0.20,
2.661,-0.10,0.18,0.94,-1.29,-0.11,-0.20,
2.661,-0.10,0.18,0.94,-1.19,-0.01,-0.30,
2.669,-0.09,0.18,0.94,-1.19,-0.01,-0.30,
2.67,-0.09,0.18,0.94,-1.19,-0.01,-0.30,
2.67,-0.09,0.18,0.94,-1.13,0.07,-0.44,
2.67,-0.09,0.18,0.94,-1.13,0.07,-0.44,
2.67,-0.09,0.18,0.94,-1.13,0.07,-0.44,
2.671,-0.09,0.18,0.94,-1.04,0.11,-0.45,
2.674,-0.09,0.18,0.94,-1.04,0.11,-0.45,
2.676,-0.09,0.18,0.94,-1.04,0.11,-0.45,
2.676,-0.09,0.18,0.94,-1.04,0.13,-0.48,
2.681,-0.09,0.17,0.94,-1.04,0.13,-0.48,
2.681,-0.09,0.17,0.94,-1.03,0.12,-0.49,
2.681,-0.09,0.17,0.93,-1.03,0.12,-0.49,
2.683,-0.09,0.17,0.94,-1.03,0.12,-0.49,
2.686,-0.10,0.16,0.94,-1.03,0.12,-0.49,
2.686,-0.10,0.16,0.94,-1.04,0.02,-0.53,
2.689,-0.10,0.16,0.94,-1.04,0.02,-0.53,
2.691,-0.10,0.16,0.94,-1.04,0.02,-0.53,
2.692,-0.10,0.16,0.94,-1.07,-0.07,-0.50,
2.694,-0.10,0.15,0.95,-1.07,-0.07,-0.50,
2.697,-0.11,0.15,0.95,-1.07,-0.07,-0.50,
2.698,-0.11,0.15,0.95,-1.14,-0.12,-0.48,
2.7,-0.11,0.15,0.95,-1.14,-0.12,-0.48,
2.702,-0.11,0.14,0.95,-1.14,-0.12,-0.48,
2.702,-0.11,0.14,0.95,-1.19,-0.19,-0.40,
2.703,-0.11,0.14,0.96,-1.19,-0.19,-0.40,
2.706,-0.11,0.14,0.96,-1.20,-0.25,-0.36,
2.706,-0.10,0.14,0.96,-1.20,-0.25,-0.36,
2.708,-0.10,0.13,0.96,-1.20,-0.25,-0.36,
2.713,-0.10,0.14,0.96,-1.20,-0.25,-0.36,
2.714,-0.10,0.14,0.96,-1.17,-0.33,-0.30,
2.714,-0.10,0.13,0.97,-1.17,-0.33,-0.30,
2.717,-0.10,0.13,0.96,-1.17,-0.33,-0.30,
2.717,-0.10,0.13,0.96,-1.15,-0.33,-0.26,
2.718,-0.09,0.14,0.96,-1.15,-0.33,-0.26,
2.721,-0.09,0.13,0.97,-1.15,-0.33,-0.26,
2.722,-0.09,0.13,0.97,-1.11,-0.36,-0.21,
2.724,-0.09,0.14,0.97,-1.11,-0.36,-0.21,
2.726,-0.09,0.14,0.97,-1.11,-0.36,-0.21,
2.727,-0.09,0.14,0.97,-1.07,-0.35,-0.19,
2.73,-0.08,0.14,0.97,-1.07,-0.35,-0.19,
2.73,-0.08,0.14,0.97,-1.03,-0.31,-0.19,
2.731,-0.08,0.14,0.97,-1.03,-0.31,-0.19,
2.733,-0.08,0.15,0.97,-1.03,-0.31,-0.19,
2.736,-0.08,0.14,0.97,-1.03,-0.31,-0.19,
2.736,-0.08,0.14,0.97,-0.98,-0.29,-0.20,
2.738,-0.07,0.15,0.97,-0.98,-0.29,-0.20,
2.741,-0.07,0.15,0.96,-0.98,-0.29,-0.20,
2.742,-0.07,0.15,0.96,-0.93,-0.24,-0.19,
2.743,-0.06,0.16,0.96,-0.93,-0.24,-0.19,
2.746,-0.06,0.16,0.96,-0.93,-0.24,-0.19,
2.747,-0.06,0.16,0.96,-0.85,-0.20,-0.24,
2.747,-0.06,0.16,0.96,-0.85,-0.20,-0.24,
2.75,-0.05,0.17,0.96,-0.85,-0.20,-0.24,
2.751,-0.05,0.17,0.96,-0.72,-0.13,-0.25,
2.753,-0.04,0.18,0.96,-0.72,-0.13,-0.25,
2.756,-0.04,0.18,0.96,-0.68,-0.05,-0.26,
2.756,-0.04,0.18,0.97,-0.68,-0.05,-0.26,
2.758,-0.04,0.18,0.96,-0.68,-0.05,-0.26,
2.76,-0.04,0.19,0.96,-0.68,-0.05,-0.26,
2.761,-0.04,0.19,0.96,-0.59,0.08,-0.26,
2.763,-0.03,0.19,0.97,-0.59,0.08,-0.26,
2.766,-0.03,0.19,0.97,-0.59,0.08,-0.26,
2.766,-0.03,0.19,0.97,-0.54,0.14,-0.24,
2.768,-0.02,0.19,0.97,-0.54,0.14,-0.24,
2.77,-0.03,0.19,0.98,-0.54,0.14,-0.24,
2.77,-0.03,0.19,0.98,-0.44,0.16,-0.18,
2.773,-0.02,0.19,0.97,-0.44,0.16,-0.18,
2.776,-0.02,0.19,0.97,-0.44,0.16,-0.18,
2.776,-0.02,0.19,0.97,-0.40,0.19,-0.12,
2.778,-0.02,0.19,0.97,-0.40,0.19,-0.12,
2.785,-0.03,0.19,0.98,-0.40,0.19,-0.12,
2.786,-0.03,0.19,0.98,-0.38,0.18,-0.14,
2.786,-0.02,0.19,0.98,-0.38,0.18,-0.14,
2.786,-0.03,0.18,0.98,-0.38,0.18,-0.14,
2.786,-0.03,0.18,0.98,-0.40,0.15,-0.13,
2.787,-0.03,0.18,0.98,-0.40,0.15,-0.13,
2.79,-0.03,0.18,0.98,-0.40,0.15,-0.13,
2.79,-0.03,0.18,0.98,-0.42,0.15,-0.09,
2.792,-0.03,0.18,0.98,-0.42,0.15,-0.09,
2.798,-0.03,0.18,0.98,-0.42,0.15,-0.09,
2.798,-0.03,0.18,0.98,-0.42,0.11,-0.05,
2.798,-0.03,0.18,0.99,-0.42,0.11,-0.05,
2.8,-0.03,0.18,0.99,-0.42,0.11,-0.05,
2.803,-0.03,0.18,0.99,-0.46,0.09,-0.04,
2.803,-0.03,0.18,0.99,-0.46,0.09,-0.04,
2.805,-0.03,0.18,0.99,-0.46,0.09,-0.04,
2.805,-0.03,0.18,0.99,-0.46,0.06,-0.00,
2.806,-0.03,0.18,0.99,-0.46,0.06,-0.00,
2.81,-0.03,0.17,0.99,-0.46,0.06,-0.00,
2.81,-0.03,0.17,0.99,-0.50,0.04,0.00,
2.815,-0.03,0.17,0.99,-0.50,0.04,0.00,
2.816,-0.03,0.17,0.99,-0.50,0.04,0.00,
2.816,-0.03,0.17,0.99,-0.52,0.02,0.03,
2.817,-0.03,0.17,0.99,-0.52,0.02,0.03,
2.819,-0.04,0.17,0.99,-0.52,0.02,0.03,
2.819,-0.04,0.17,0.99,-0.49,-0.04,-0.01,
2.822,-0.04,0.17,0.99,-0.49,-0.04,-0.01,
2.825,-0.04,0.17,0.99,-0.49,-0.04,-0.01,
2.825,-0.04,0.17,0.99,-0.51,-0.05,-0.01,
2.827,-0.04,0.17,0.99,-0.51,-0.05,-0.01,
2.829,-0.04,0.17,0.99,-0.55,-0.04,0.01,
2.829,-0.04,0.17,0.99,-0.55,-0.04,0.01,
2.832,-0.04,0.17,0.98,-0.55,-0.04,0.01,
2.834,-0.04,0.17,0.98,-0.55,-0.04,0.01,
2.834,-0.04,0.17,0.98,-0.54,-0.02,-0.00,
2.836,-0.04,0.17,0.98,-0.54,-0.02,-0.00,
2.84,-0.03,0.18,0.98,-0.54,-0.02,-0.00,
2.84,-0.03,0.18,0.98,-0.52,-0.04,-0.07,
2.842,-0.04,0.18,0.98,-0.52,-0.04,-0.07,
2.845,-0.04,0.18,0.98,-0.51,0.00,-0.08,
2.845,-0.04,0.18,0.98,-0.51,0.00,-0.08,
2.847,-0.04,0.18,0.98,-0.51,0.00,-0.08,
2.849,-0.05,0.18,0.98,-0.51,0.00,-0.08,
2.849,-0.05,0.18,0.98,-0.56,0.02,-0.06,
2.851,-0.05,0.18,0.98,-0.56,0.02,-0.06,
2.854,-0.05,0.18,0.98,-0.58,0.04,-0.06,
2.855,-0.05,0.18,0.98,-0.58,0.04,-0.06,
2.857,-0.05,0.18,0.97,-0.58,0.04,-0.06,
2.859,-0.05,0.18,0.98,-0.58,0.04,-0.06,
2.86,-0.05,0.18,0.98,-0.65,0.06,-0.08,
2.861,-0.05,0.17,0.97,-0.65,0.06,-0.08,
2.864,-0.05,0.17,0.97,-0.65,0.06,-0.08,
2.864,-0.05,0.17,0.97,-0.64,0.03,-0.12,
2.867,-0.05,0.17,0.98,-0.64,0.03,-0.12,
2.869,-0.05,0.17,0.98,-0.63,-0.00,-0.14,
2.869,-0.05,0.17,0.97,-0.63,-0.00,-0.14,
2.872,-0.05,0.18,0.97,-0.63,-0.00,-0.14,
2.875,-0.05,0.18,0.97,-0.65,-0.04,-0.10,
2.875,-0.05,0.17,0.97,-0.65,-0.04,-0.10,
2.877,-0.05,0.17,0.97,-0.65,-0.04,-0.10,
2.879,-0.05,0.17,0.97,-0.62,0.01,-0.14,
2.879,-0.05,0.17,0.97,-0.62,0.01,-0.14,
2.885,-0.04,0.17,0.98,-0.62,0.01,-0.14,
2.886,-0.04,0.17,0.97,-0.62,0.01,-0.14,
2.886,-0.04,0.17,0.97,-0.61,-0.04,-0.12,
2.886,-0.04,0.17,0.98,-0.61,-0.04,-0.12,
2.889,-0.03,0.17,0.98,-0.61,-0.04,-0.12,
2.889,-0.03,0.17,0.98,-0.56,-0.04,-0.09,
2.891,-0.03,0.17,0.98,-0.56,-0.04,-0.09,
2.894,-0.03,0.18,0.98,-0.56,-0.04,-0.09,
2.894,-0.03,0.18,0.98,-0.51,-0.01,-0.07,
2.897,-0.02,0.18,0.99,-0.51,-0.01,-0.07,
2.899,-0.02,0.18,0.99,-0.51,-0.01,-0.07,
2.899,-0.02,0.18,0.99,-0.42,0.01,-0.06,
2.901,-0.02,0.18,0.99,-0.42,0.01,-0.06,
2.904,-0.01,0.18,1.00,-0.42,0.01,-0.06,
2.905,-0.01,0.18,1.00,-0.33,0.01,0.03,
2.906,-0.01,0.18,1.00,-0.33,0.01,0.03,
2.909,-0.00,0.18,1.00,-0.33,0.01,0.03,
2.909,-0.00,0.18,1.00,-0.28,0.03,0.10,
2.912,0.01,0.18,0.99,-0.28,0.03,0.10,
2.915,0.04,0.19,0.98,-0.28,0.03,0.10,
2.915,0.04,0.19,0.98,-0.21,0.05,0.11,
2.916,0.07,0.20,0.98,-0.21,0.05,0.11,
2.919,0.10,0.21,0.99,-0.21,0.05,0.11,
2.92,0.10,0.21,0.99,0.05,0.13,0.00,
2.921,0.15,0.22,1.02,0.05,0.13,0.00,
2.925,0.19,0.24,1.05,0.05,0.13,0.00,
2.925,0.19,0.24,1.05,0.66,0.33,-0.02,
2.925,0.20,0.25,1.08,0.66,0.33,-0.02,
2.93,0.20,0.25,1.08,1.48,0.55,0.43,
2.931,0.18,0.25,1.10,1.48,0.55,0.43,
2.931,0.16,0.25,1.10,1.48,0.55,0.43,
2.934,0.13,0.25,1.09,1.48,0.55,0.43,
2.934,0.13,0.25,1.09,1.64,0.75,0.99,
2.935,0.10,0.24,1.07,1.64,0.75,0.99,
2.938,0.10,0.24,1.07,1.20,0.78,1.08,
2.939,0.07,0.23,1.05,1.20,0.78,1.08,
2.941,0.05,0.21,1.03,1.20,0.78,1.08,
2.943,0.03,0.19,1.01,1.20,0.78,1.08,
2.944,0.03,0.19,1.01,0.65,0.57,0.72,
2.945,0.01,0.17,1.00,0.65,0.57,0.72,
2.949,-0.01,0.16,1.00,0.65,0.57,0.72,
2.95,-0.01,0.16,1.00,0.24,0.24,0.32,
2.95,-0.02,0.15,1.01,0.24,0.24,0.32,
2.953,-0.02,0.15,1.01,-0.11,-0.07,0.14,
2.953,-0.03,0.14,1.01,-0.11,-0.07,0.14,
2.956,-0.03,0.13,1.01,-0.11,-0.07,0.14,
2.959,-0.03,0.13,1.00,-0.11,-0.07,0.14,
2.959,-0.03,0.13,1.00,-0.35,-0.33,0.21,
2.96,-0.03,0.13,1.00,-0.35,-0.33,0.21,
2.964,-0.03,0.13,1.00,-0.35,-0.33,0.21,
2.964,-0.03,0.13,1.00,-0.39,-0.41,0.15,
2.967,-0.03,0.13,1.00,-0.39,-0.41,0.15,
2.968,-0.02,0.13,1.01,-0.39,-0.41,0.15,
2.969,-0.02,0.13,1.01,-0.36,-0.40,0.09,
2.97,-0.03,0.13,1.01,-0.36,-0.40,0.09,
2.973,-0.02,0.13,1.01,-0.36,-0.40,0.09,
2.973,-0.02,0.13,1.01,-0.37,-0.45,0.16,
2.975,-0.02,0.13,1.01,-0.37,-0.45,0.16,
2.978,-0.02,0.13,1.01,-0.36,-0.41,0.19,
2.978,-0.02,0.13,1.01,-0.36,-0.41,0.19,
2.982,-0.02,0.14,1.01,-0.36,-0.41,0.19,
2.982,-0.02,0.14,1.01,-0.36,-0.41,0.19,
2.982,-0.02,0.14,1.01,-0.31,-0.39,0.18,
2.985,-0.02,0.15,1.01,-0.31,-0.39,0.18,
2.988,-0.01,0.15,1.00,-0.31,-0.39,0.18,
2.988,-0.01,0.15,1.00,-0.30,-0.35,0.22,
2.99,-0.02,0.15,1.00,-0.30,-0.35,0.22,
2.993,-0.02,0.16,0.99,-0.30,-0.35,0.22,
2.993,-0.02,0.16,0.99,-0.28,-0.27,0.15,
2.995,-0.02,0.17,0.99,-0.28,-0.27,0.15,
3.001,-0.02,0.17,0.98,-0.28,-0.27,0.15,
3.002,-0.02,0.17,0.98,-0.32,-0.16,0.06,
3.002,-0.02,0.17,0.98,-0.32,-0.16,0.06,
3.002,-0.02,0.17,0.98,-0.30,-0.06,-0.05,
3.002,-0.03,0.18,0.97,-0.30,-0.06,-0.05,
3.004,-0.03,0.18,0.96,-0.30,-0.06,-0.05,
3.007,-0.03,0.18,0.96,-0.30,-0.06,-0.05,
3.007,-0.03,0.18,0.96,-0.37,-0.02,-0.14,
3.01,-0.03,0.18,0.97,-0.37,-0.02,-0.14,
3.013,-0.02,0.18,0.97,-0.37,-0.02,-0.14,
3.014,-0.02,0.18,0.97,-0.39,-0.01,-0.25,
3.014,-0.02,0.19,0.96,-0.39,-0.01,-0.25,
3.017,-0.01,0.19,0.96,-0.39,-0.01,-0.25,
3.018,-0.01,0.19,0.96,-0.39,0.00,-0.20,
3.02,-0.01,0.18,0.97,-0.39,0.00,-0.20,
3.023,-0.01,0.19,0.97,-0.39,0.00,-0.20,
3.023,-0.01,0.19,0.97,-0.26,0.06,-0.24,
3.025,-0.00,0.19,0.96,-0.26,0.06,-0.24,
3.027,-0.00,0.19,0.96,-0.20,0.03,-0.21,
3.027,-0.00,0.18,0.96,-0.20,0.03,-0.21,
3.03,-0.01,0.18,0.96,-0.20,0.03,-0.21,
3.032,-0.00,0.18,0.95,-0.20,0.03,-0.21,
3.032,-0.00,0.18,0.95,-0.17,0.02,-0.25,
3.034,0.00,0.18,0.95,-0.17,0.02,-0.25,
3.037,-0.00,0.18,0.95,-0.17,0.02,-0.25,
3.037,-0.00,0.18,0.95,-0.17,-0.01,-0.30,
3.04,0.00,0.18,0.96,-0.17,-0.01,-0.30,
3.042,0.00,0.18,0.96,-0.14,-0.04,-0.33,
3.043,0.01,0.18,0.96,-0.14,-0.04,-0.33,
3.045,0.00,0.18,0.96,-0.14,-0.04,-0.33,
3.047,0.01,0.18,0.97,-0.14,-0.04,-0.33,
3.047,0.01,0.18,0.97,-0.09,-0.07,-0.28,
3.049,0.01,0.18,0.97,-0.09,-0.07,-0.28,
3.052,0.01,0.18,0.97,-0.04,-0.08,-0.18,
3.053,0.01,0.18,0.98,-0.04,-0.08,-0.18,
3.055,0.01,0.17,0.99,-0.04,-0.08,-0.18,
3.057,0.01,0.18,0.99,-0.04,-0.08,-0.18,
3.057,0.01,0.18,0.99,-0.03,-0.07,-0.10,
3.059,0.01,0.18,1.00,-0.03,-0.07,-0.10,
3.064,0.01,0.18,1.00,-0.03,-0.07,-0.10,
3.064,0.01,0.18,1.00,-0.03,-0.09,0.03,
3.065,0.00,0.18,1.01,-0.03,-0.09,0.03,
3.067,-0.00,0.18,1.01,-0.03,-0.09,0.03,
3.068,-0.00,0.18,1.01,-0.00,-0.06,0.14,
3.069,-0.00,0.18,1.01,-0.00,-0.06,0.14,
3.072,-0.00,0.18,1.01,-0.00,-0.06,0.14,
3.072,-0.00,0.18,1.01,-0.07,-0.06,0.20,
3.073,-0.00,0.18,1.01,-0.07,-0.06,0.20,
3.077,-0.00,0.18,1.01,-0.09,-0.06,0.22,
3.077,0.00,0.18,1.01,-0.09,-0.06,0.22,
3.079,0.01,0.18,1.00,-0.09,-0.06,0.22,
3.081,0.01,0.19,1.00,-0.09,-0.06,0.22,
3.082,0.01,0.19,1.00,-0.06,-0.05,0.22,
3.084,0.01,0.19,1.00,-0.06,-0.05,0.22,
3.086,0.01,0.19,1.00,0.02,-0.02,0.17,
3.087,0.02,0.19,1.00,0.02,-0.02,0.17,
3.088,0.02,0.19,1.00,0.02,-0.02,0.17,
3.091,0.02,0.19,0.99,0.02,-0.02,0.17,
3.091,0.02,0.19,0.99,0.06,0.03,0.13,
3.093,0.02,0.20,0.99,0.06,0.03,0.13,
3.1,0.02,0.20,0.99,0.06,0.03,0.13,
3.101,0.02,0.20,0.99,0.09,0.07,0.08,
3.101,0.02,0.20,0.99,0.09,0.07,0.08,
3.102,0.02,0.20,0.99,0.13,0.13,0.07,
3.102,0.02,0.20,0.99,0.13,0.13,0.07,
3.103,0.02,0.20,0.99,0.13,0.13,0.07,
3.106,0.02,0.20,0.99,0.13,0.13,0.07,
3.106,0.02,0.20,0.99,0.17,0.14,0.04,
3.108,0.02,0.21,0.99,0.17,0.14,0.04,
3.111,0.02,0.21,0.99,0.17,0.14,0.04,
3.111,0.02,0.21,0.99,0.14,0.12,0.03,
3.114,0.02,0.20,0.99,0.14,0.12,0.03,
3.116,0.02,0.20,0.99,0.14,0.12,0.03,
3.116,0.02,0.20,0.99,0.12,0.21,0.03,
3.118,0.02,0.20,0.99,0.12,0.21,0.03,
3.121,0.01,0.20,1.00,0.12,0.21,0.03,
3.121,0.01,0.20,1.00,0.15,0.18,0.03,
3.123,0.01,0.20,1.00,0.15,0.18,0.03,
3.126,0.01,0.20,1.00,0.06,0.19,0.07,
3.126,0.01,0.20,1.00,0.06,0.19,0.07,
3.128,0.01,0.20,0.99,0.06,0.19,0.07,
3.131,0.00,0.20,1.00,0.06,0.19,0.07,
3.132,0.00,0.20,1.00,0.06,0.17,0.12,
3.135,-0.00,0.19,0.99,0.06,0.17,0.12,
3.137,-0.01,0.19,0.99,0.06,0.17,0.12,
3.138,-0.01,0.19,0.99,-0.02,0.12,0.07,
3.138,-0.02,0.19,0.99,-0.02,0.12,0.07,
3.141,-0.03,0.18,0.99,-0.02,0.12,0.07,
3.141,-0.03,0.18,0.99,-0.11,0.05,0.07,
3.143,-0.03,0.17,0.98,-0.11,0.05,0.07,
3.146,-0.04,0.16,0.98,-0.11,0.05,0.07,
3.146,-0.04,0.16,0.98,-0.29,-0.04,0.01,
3.149,-0.05,0.15,0.98,-0.29,-0.04,0.01,
3.151,-0.05,0.15,0.98,-0.44,-0.19,-0.07,
3.151,-0.05,0.15,0.99,-0.44,-0.19,-0.07,
3.154,-0.05,0.14,0.98,-0.44,-0.19,-0.07,
3.156,-0.07,0.14,0.95,-0.44,-0.19,-0.07,
3.156,-0.07,0.14,0.95,-0.56,-0.35,-0.02,
3.159,-0.06,0.13,0.91,-0.56,-0.35,-0.02,
3.161,-0.04,0.13,0.89,-0.56,-0.35,-0.02,
3.161,-0.04,0.13,0.89,-0.65,-0.46,-0.24,
3.164,-0.04,0.12,0.89,-0.65,-0.46,-0.24,
3.166,-0.07,0.13,0.90,-0.65,-0.46,-0.24,
3.166,-0.07,0.13,0.90,-0.59,-0.54,-0.83,
3.167,-0.09,0.13,0.91,-0.59,-0.54,-0.83,
3.17,-0.10,0.13,0.94,-0.59,-0.54,-0.83,
3.17,-0.10,0.13,0.94,-0.60,-0.57,-0.90,
3.173,-0.10,0.13,0.96,-0.60,-0.57,-0.90,
3.175,-0.10,0.13,0.96,-0.99,-0.53,-0.58,
3.175,-0.10,0.13,0.98,-0.99,-0.53,-0.58,
3.178,-0.09,0.13,0.98,-0.99,-0.53,-0.58,
3.181,-0.08,0.13,0.98,-0.99,-0.53,-0.58,
3.181,-0.08,0.13,0.98,-1.05,-0.54,-0.15,
3.182,-0.08,0.12,0.99,-1.05,-0.54,-0.15,
3.186,-0.08,0.12,0.99,-0.89,-0.53,-0.02,
3.186,-0.08,0.13,1.00,-0.89,-0.53,-0.02,
3.187,-0.07,0.13,1.00,-0.89,-0.53,-0.02,
3.191,-0.07,0.14,1.01,-0.89,-0.53,-0.02,
3.191,-0.07,0.14,1.01,-0.79,-0.52,0.11,
3.193,-0.06,0.15,1.02,-0.79,-0.52,0.11,
3.195,-0.06,0.16,1.03,-0.79,-0.52,0.11,
3.195,-0.06,0.16,1.03,-0.73,-0.40,0.21,
3.198,-0.05,0.17,1.03,-0.73,-0.40,0.21,
3.2,-0.05,0.17,1.03,-0.62,-0.21,0.39,
3.2,-0.03,0.18,1.04,-0.62,-0.21,0.39,
3.203,-0.02,0.19,1.04,-0.62,-0.21,0.39,
3.205,-0.01,0.18,1.03,-0.62,-0.21,0.39,
3.205,-0.01,0.18,1.03,-0.43,-0.02,0.49,
3.208,0.00,0.18,1.03,-0.43,-0.02,0.49,
3.211,0.01,0.18,1.02,-0.43,-0.02,0.49,
3.211,0.01,0.18,1.02,-0.18,0.09,0.51,
3.219,0.02,0.18,1.01,-0.18,0.09,0.51,
3.22,0.03,0.18,1.01,-0.18,0.09,0.51,
3.22,0.03,0.18,1.01,0.04,0.06,0.35,
3.22,0.03,0.18,1.00,0.04,0.06,0.35,
3.221,0.03,0.17,1.00,0.04,0.06,0.35,
3.221,0.03,0.17,1.00,0.17,0.04,0.23,
