
time,gFx,gFy,gFz,ax,ay,az,
0.001,-0.01,0.19,0.94,-0.07,-0.15,-0.41,
0.001,-0.01,0.19,0.94,-0.10,-0.06,-0.39,
0.001,-0.02,0.19,0.95,-0.10,-0.06,-0.39,
0.004,-0.01,0.19,0.95,-0.10,-0.06,-0.39,
0.004,-0.01,0.19,0.95,-0.10,0.01,-0.36,
0.006,-0.01,0.19,0.94,-0.10,0.01,-0.36,
0.011,-0.01,0.19,0.94,-0.10,0.01,-0.36,
0.011,-0.01,0.19,0.94,-0.12,0.06,-0.33,
0.011,-0.01,0.18,0.93,-0.12,0.06,-0.33,
0.014,-0.01,0.18,0.94,-0.12,0.06,-0.33,
0.014,-0.01,0.18,0.94,-0.07,0.06,-0.37,
0.016,-0.02,0.19,0.94,-0.07,0.06,-0.37,
0.019,-0.02,0.18,0.94,-0.07,0.06,-0.37,
0.019,-0.02,0.18,0.94,-0.10,-0.00,-0.45,
0.021,-0.02,0.18,0.94,-0.10,-0.00,-0.45,
0.024,-0.01,0.19,0.94,-0.10,-0.00,-0.45,
0.024,-0.01,0.19,0.94,-0.13,0.01,-0.38,
0.028,-0.02,0.19,0.94,-0.13,0.01,-0.38,
0.029,-0.02,0.18,0.94,-0.13,0.01,-0.38,
0.029,-0.02,0.18,0.94,-0.11,0.01,-0.40,
0.031,-0.01,0.19,0.94,-0.11,0.01,-0.40,
0.034,-0.01,0.19,0.94,-0.11,0.01,-0.40,
0.034,-0.01,0.19,0.94,-0.12,0.02,-0.36,
0.036,-0.01,0.19,0.94,-0.12,0.02,-0.36,
0.038,-0.01,0.19,0.94,-0.12,0.02,-0.36,
0.039,-0.01,0.19,0.94,-0.09,0.09,-0.34,
0.041,-0.01,0.19,0.94,-0.09,0.09,-0.34,
0.045,-0.00,0.19,0.94,-0.09,0.09,-0.34,
0.045,-0.00,0.19,0.94,-0.03,0.09,-0.35,
0.046,-0.01,0.19,0.95,-0.03,0.09,-0.35,
0.048,-0.00,0.19,0.95,-0.03,0.09,-0.35,
0.048,-0.00,0.19,0.95,0.01,0.11,-0.34,
0.051,-0.01,0.18,0.95,0.01,0.11,-0.34,
0.053,-0.00,0.18,0.96,0.01,0.11,-0.34,
0.053,-0.00,0.18,0.96,0.01,0.09,-0.27,
0.056,-0.01,0.18,0.97,0.01,0.09,-0.27,
0.062,-0.00,0.18,0.98,0.01,0.09,-0.27,
0.062,-0.00,0.18,0.98,0.02,0.06,-0.22,
0.062,-0.00,0.17,0.99,0.02,0.06,-0.22,
0.063,-0.00,0.16,1.00,0.02,0.06,-0.22,
0.063,-0.00,0.16,1.00,0.01,0.04,-0.06,
0.066,-0.00,0.16,1.00,0.01,0.04,-0.06,
0.068,-0.00,0.17,1.01,0.01,0.04,-0.06,
0.068,-0.00,0.17,1.01,0.04,-0.09,0.14,
0.07,-0.01,0.17,1.02,0.04,-0.09,0.14,
0.073,-0.00,0.17,1.02,0.04,-0.09,0.14,
0.073,-0.00,0.17,1.02,0.02,-0.06,0.26,
0.078,-0.00,0.16,1.03,0.02,-0.06,0.26,
0.078,-0.00,0.17,1.04,0.02,-0.06,0.26,
0.078,-0.00,0.17,1.04,0.02,-0.03,0.38,
0.08,-0.00,0.17,1.03,0.02,-0.03,0.38,
0.083,0.00,0.17,1.03,0.02,-0.03,0.38,
0.083,0.00,0.17,1.03,0.02,-0.01,0.50,
0.085,0.00,0.18,1.03,0.02,-0.01,0.50,
0.088,0.01,0.18,1.03,0.02,-0.01,0.50,
0.088,0.01,0.18,1.03,0.06,0.05,0.50,
0.09,0.01,0.18,1.03,0.06,0.05,0.50,
0.096,0.02,0.19,1.03,0.06,0.05,0.50,
0.096,0.02,0.19,1.03,0.12,0.10,0.50,
0.096,0.02,0.18,1.04,0.12,0.10,0.50,
0.098,0.02,0.18,1.04,0.12,0.10,0.50,
0.098,0.02,0.18,1.04,0.22,0.17,0.51,
0.1,0.03,0.18,1.05,0.22,0.17,0.51,
0.103,0.03,0.17,1.05,0.22,0.17,0.51,
0.103,0.03,0.17,1.05,0.26,0.12,0.56,
0.105,0.03,0.17,1.05,0.26,0.12,0.56,
0.108,0.03,0.17,1.05,0.26,0.12,0.56,
0.108,0.03,0.17,1.05,0.31,0.12,0.65,
0.112,0.03,0.17,1.05,0.31,0.12,0.65,
0.113,0.03,0.17,1.05,0.33,0.07,0.64,
0.113,0.02,0.17,1.06,0.33,0.07,0.64,
0.115,0.03,0.17,1.05,0.33,0.07,0.64,
0.118,0.03,0.17,1.04,0.33,0.07,0.64,
0.118,0.03,0.17,1.04,0.31,0.05,0.66,
0.12,0.02,0.17,1.04,0.31,0.05,0.66,
0.123,0.02,0.17,1.04,0.31,0.05,0.66,
0.123,0.02,0.17,1.04,0.32,0.03,0.60,
0.128,0.01,0.17,1.04,0.32,0.03,0.60,
0.129,0.01,0.17,1.03,0.32,0.03,0.60,
0.129,0.01,0.17,1.03,0.25,0.05,0.56,
0.13,0.00,0.17,1.03,0.25,0.05,0.56,
0.133,0.01,0.18,1.02,0.25,0.05,0.56,
0.133,0.01,0.18,1.02,0.16,0.05,0.47,
0.135,0.00,0.17,1.02,0.16,0.05,0.47,
0.137,0.00,0.17,1.02,0.16,0.05,0.47,
0.138,0.00,0.17,1.02,0.11,0.06,0.41,
0.14,0.00,0.17,1.01,0.11,0.06,0.41,
0.145,-0.00,0.18,1.00,0.11,0.06,0.41,
0.145,-0.00,0.18,1.00,0.09,0.02,0.32,
0.145,-0.01,0.17,1.01,0.09,0.02,0.32,
0.147,-0.01,0.17,0.99,0.09,0.02,0.32,
0.147,-0.01,0.17,0.99,0.08,0.04,0.21,
0.15,-0.01,0.17,0.99,0.08,0.04,0.21,
0.152,-0.01,0.18,0.99,0.08,0.04,0.21,
0.152,-0.01,0.18,0.99,-0.00,0.02,0.14,
0.155,-0.01,0.18,0.99,-0.00,0.02,0.14,
0.157,-0.01,0.18,0.99,-0.00,0.02,0.14,
0.157,-0.01,0.18,0.99,0.02,0.02,0.05,
0.16,-0.01,0.17,0.99,0.02,0.02,0.05,
0.162,-0.01,0.18,0.99,0.02,0.02,0.05,
0.164,-0.01,0.18,0.99,0.00,0.03,0.03,
0.165,-0.01,0.18,0.98,0.00,0.03,0.03,
0.167,-0.00,0.18,0.98,0.00,0.03,0.03,
0.167,-0.00,0.18,0.98,0.01,0.01,-0.00,
0.17,-0.00,0.17,0.99,0.01,0.01,-0.00,
0.172,0.00,0.18,0.98,0.01,0.01,-0.00,
0.172,0.00,0.18,0.98,0.03,0.01,-0.04,
0.174,0.00,0.18,0.98,0.03,0.01,-0.04,
0.177,0.00,0.17,0.97,0.03,0.01,-0.04,
0.178,0.00,0.17,0.97,0.08,-0.03,-0.03,
0.179,0.00,0.18,0.97,0.08,-0.03,-0.03,
0.182,0.01,0.18,0.96,0.08,-0.03,-0.03,
0.182,0.01,0.18,0.96,0.10,-0.04,-0.11,
0.184,0.01,0.18,0.96,0.10,-0.04,-0.11,
0.187,0.01,0.18,0.96,0.10,-0.04,-0.11,
0.187,0.01,0.18,0.96,0.15,-0.02,-0.18,
0.189,0.01,0.19,0.95,0.15,-0.02,-0.18,
0.196,0.02,0.18,0.95,0.15,-0.02,-0.18,
0.197,0.02,0.18,0.95,0.19,-0.05,-0.23,
0.197,0.02,0.18,0.95,0.19,-0.05,-0.23,
0.197,0.01,0.18,0.95,0.19,-0.05,-0.23,
0.197,0.01,0.18,0.95,0.24,-0.02,-0.32,
0.199,0.01,0.18,0.94,0.24,-0.02,-0.32,
0.202,0.01,0.18,0.94,0.24,-0.02,-0.32,
0.202,0.01,0.18,0.94,0.21,-0.08,-0.33,
0.204,0.01,0.19,0.94,0.21,-0.08,-0.33,
0.207,-0.00,0.19,0.94,0.21,-0.08,-0.33,
0.207,-0.00,0.19,0.94,0.20,-0.04,-0.42,
0.211,0.00,0.19,0.93,0.20,-0.04,-0.42,
0.212,-0.01,0.18,0.93,0.20,-0.04,-0.42,
0.212,-0.01,0.18,0.93,0.13,-0.02,-0.43,
0.214,-0.01,0.19,0.93,0.13,-0.02,-0.43,
0.217,-0.01,0.19,0.93,0.13,-0.02,-0.43,
0.217,-0.01,0.19,0.93,0.09,-0.02,-0.47,
0.219,-0.02,0.19,0.93,0.09,-0.02,-0.47,
0.222,-0.01,0.18,0.93,0.09,-0.02,-0.47,
0.222,-0.01,0.18,0.93,-0.02,0.00,-0.49,
0.224,-0.02,0.18,0.93,-0.02,0.00,-0.49,
0.229,-0.02,0.18,0.93,-0.02,0.00,-0.49,
0.229,-0.02,0.18,0.93,-0.03,-0.05,-0.47,
0.229,-0.02,0.18,0.93,-0.03,-0.05,-0.47,
0.232,-0.02,0.18,0.93,-0.03,-0.05,-0.47,
0.232,-0.02,0.18,0.93,-0.05,-0.07,-0.47,
0.234,-0.02,0.19,0.93,-0.05,-0.07,-0.47,
0.236,-0.02,0.18,0.93,-0.05,-0.07,-0.47,
0.237,-0.02,0.18,0.93,-0.08,-0.10,-0.48,
0.24,-0.03,0.18,0.93,-0.08,-0.10,-0.48,
0.242,-0.04,0.18,0.93,-0.08,-0.10,-0.48,
0.243,-0.04,0.18,0.93,-0.09,-0.05,-0.44,
0.25,-0.03,0.18,0.93,-0.09,-0.05,-0.44,
0.251,-0.03,0.18,0.93,-0.09,-0.05,-0.44,
0.251,-0.03,0.18,0.93,-0.16,-0.10,-0.48,
0.251,-0.03,0.18,0.93,-0.16,-0.10,-0.48,
0.252,-0.03,0.18,0.93,-0.16,-0.10,-0.48,
0.252,-0.03,0.18,0.93,-0.13,-0.12,-0.46,
0.255,-0.03,0.18,0.93,-0.13,-0.12,-0.46,
0.257,-0.03,0.18,0.93,-0.15,-0.10,-0.46,
0.257,-0.03,0.18,0.93,-0.15,-0.10,-0.46,
0.259,-0.03,0.18,0.93,-0.15,-0.10,-0.46,
0.266,-0.02,0.18,0.92,-0.15,-0.10,-0.46,
0.266,-0.02,0.18,0.92,-0.11,-0.07,-0.49,
0.267,-0.02,0.18,0.92,-0.11,-0.07,-0.49,
0.267,-0.02,0.17,0.92,-0.11,-0.07,-0.49,
0.267,-0.02,0.17,0.92,-0.08,-0.08,-0.49,
0.27,-0.01,0.18,0.92,-0.08,-0.08,-0.49,
0.272,-0.01,0.18,0.91,-0.08,-0.08,-0.49,
0.272,-0.01,0.18,0.91,0.01,-0.12,-0.54,
0.274,-0.01,0.18,0.90,0.01,-0.12,-0.54,
0.283,-0.00,0.18,0.90,0.01,-0.12,-0.54,
0.284,-0.00,0.18,0.90,0.05,-0.10,-0.60,
0.284,-0.01,0.18,0.90,0.05,-0.10,-0.60,
0.285,-0.01,0.18,0.90,0.13,-0.12,-0.72,
0.285,-0.01,0.17,0.90,0.13,-0.12,-0.72,
0.285,-0.00,0.17,0.89,0.13,-0.12,-0.72,
0.286,-0.00,0.18,0.89,0.13,-0.12,-0.72,
0.286,-0.00,0.18,0.89,0.13,-0.13,-0.74,
0.288,-0.00,0.17,0.89,0.13,-0.13,-0.74,
0.291,0.00,0.17,0.88,0.13,-0.13,-0.74,
0.291,0.00,0.17,0.88,0.16,-0.14,-0.83,
0.303,0.00,0.17,0.88,0.16,-0.14,-0.83,
0.304,-0.00,0.17,0.87,0.16,-0.14,-0.83,
0.304,-0.00,0.17,0.87,0.21,-0.16,-0.88,
0.305,-0.00,0.17,0.86,0.21,-0.16,-0.88,
0.305,-0.00,0.17,0.86,0.21,-0.16,-0.88,
0.305,-0.00,0.17,0.86,0.20,-0.18,-0.97,
0.306,0.00,0.16,0.86,0.20,-0.18,-0.97,
0.306,0.00,0.16,0.86,0.18,-0.21,-1.06,
0.306,-0.01,0.16,0.86,0.18,-0.21,-1.06,
0.308,-0.01,0.16,0.86,0.18,-0.21,-1.06,
0.319,-0.01,0.16,0.85,0.18,-0.21,-1.06,
0.319,-0.01,0.16,0.85,0.17,-0.26,-1.10,
0.32,-0.01,0.16,0.84,0.17,-0.26,-1.10,
0.32,-0.02,0.15,0.84,0.17,-0.26,-1.10,
0.32,-0.02,0.15,0.84,0.08,-0.27,-1.15,
0.32,-0.02,0.15,0.84,0.08,-0.27,-1.15,
0.321,-0.02,0.15,0.83,0.08,-0.27,-1.15,
0.321,-0.02,0.15,0.83,0.05,-0.32,-1.21,
0.323,-0.02,0.15,0.83,0.05,-0.32,-1.21,
0.335,-0.03,0.15,0.83,0.05,-0.32,-1.21,
0.336,-0.03,0.15,0.83,0.04,-0.40,-1.26,
0.338,-0.02,0.14,0.82,0.04,-0.40,-1.26,
0.338,-0.02,0.14,0.82,-0.04,-0.41,-1.29,
0.339,-0.02,0.14,0.82,-0.04,-0.41,-1.29,
0.339,-0.02,0.14,0.82,-0.04,-0.41,-1.29,
0.339,-0.02,0.14,0.81,-0.04,-0.41,-1.29,
0.339,-0.02,0.14,0.81,-0.02,-0.45,-1.39,
0.34,-0.03,0.14,0.81,-0.02,-0.45,-1.39,
0.342,-0.02,0.14,0.81,-0.02,-0.45,-1.39,
0.342,-0.02,0.14,0.81,0.01,-0.48,-1.44,
0.349,-0.02,0.13,0.80,0.01,-0.48,-1.44,
0.349,-0.02,0.13,0.80,0.01,-0.48,-1.44,
0.35,-0.02,0.13,0.80,-0.03,-0.50,-1.51,
0.35,-0.02,0.13,0.79,-0.03,-0.50,-1.51,
0.35,-0.01,0.13,0.79,-0.03,-0.50,-1.51,
0.351,-0.01,0.13,0.79,0.02,-0.55,-1.55,
0.353,-0.01,0.13,0.79,0.02,-0.55,-1.55,
0.356,-0.01,0.13,0.79,0.07,-0.58,-1.62,
0.357,-0.01,0.13,0.78,0.07,-0.58,-1.62,
0.358,-0.01,0.13,0.78,0.07,-0.58,-1.62,
0.365,-0.01,0.13,0.78,0.07,-0.58,-1.62,
0.365,-0.01,0.13,0.78,0.12,-0.57,-1.66,
0.366,-0.01,0.13,0.78,0.12,-0.57,-1.66,
0.366,-0.01,0.12,0.78,0.12,-0.57,-1.66,
0.366,-0.01,0.12,0.78,0.13,-0.60,-1.71,
0.368,-0.01,0.13,0.78,0.13,-0.60,-1.71,
0.37,-0.00,0.13,0.78,0.13,-0.60,-1.71,
0.371,-0.00,0.13,0.78,0.11,-0.62,-1.69,
0.373,0.00,0.13,0.77,0.11,-0.62,-1.69,
0.375,-0.00,0.13,0.79,0.11,-0.62,-1.69,
0.376,-0.00,0.13,0.79,0.17,-0.59,-1.69,
0.382,0.00,0.13,0.78,0.17,-0.59,-1.69,
0.382,0.00,0.13,0.78,0.21,-0.56,-1.68,
0.382,0.01,0.13,0.77,0.21,-0.56,-1.68,
0.383,0.01,0.13,0.78,0.21,-0.56,-1.68,
0.385,0.01,0.13,0.78,0.26,-0.54,-1.67,
0.386,0.01,0.14,0.79,0.26,-0.54,-1.67,
0.387,0.01,0.14,0.79,0.26,-0.54,-1.67,
0.39,0.01,0.14,0.80,0.26,-0.54,-1.67,
0.39,0.01,0.14,0.80,0.29,-0.51,-1.59,
0.393,0.01,0.15,0.81,0.29,-0.51,-1.59,
0.404,0.01,0.14,0.81,0.29,-0.51,-1.59,
0.405,0.01,0.14,0.81,0.28,-0.47,-1.50,
0.406,0.02,0.14,0.81,0.28,-0.47,-1.50,
0.406,0.02,0.14,0.81,0.28,-0.47,-1.50,
0.406,0.02,0.14,0.81,0.30,-0.45,-1.33,
0.406,0.02,0.14,0.81,0.30,-0.45,-1.33,
0.406,0.02,0.14,0.81,0.34,-0.47,-1.34,
0.407,0.03,0.14,0.80,0.34,-0.47,-1.34,
0.407,0.03,0.13,0.81,0.34,-0.47,-1.34,
0.417,0.03,0.13,0.81,0.34,-0.47,-1.34,
0.418,0.03,0.13,0.81,0.37,-0.51,-1.35,
0.418,0.04,0.13,0.81,0.37,-0.51,-1.35,
0.418,0.04,0.12,0.80,0.37,-0.51,-1.35,
0.418,0.04,0.12,0.80,0.46,-0.56,-1.31,
0.418,0.05,0.12,0.79,0.46,-0.56,-1.31,
0.42,0.05,0.12,0.79,0.46,-0.56,-1.31,
0.42,0.05,0.12,0.79,0.51,-0.64,-1.36,
0.422,0.05,0.12,0.78,0.51,-0.64,-1.36,
0.426,0.06,0.12,0.78,0.51,-0.64,-1.36,
0.426,0.06,0.12,0.78,0.59,-0.70,-1.49,
0.434,0.05,0.12,0.77,0.59,-0.70,-1.49,
0.435,0.05,0.12,0.77,0.65,-0.71,-1.57,
0.435,0.06,0.12,0.76,0.65,-0.71,-1.57,
0.436,0.06,0.12,0.76,0.65,-0.71,-1.57,
0.436,0.06,0.12,0.75,0.65,-0.71,-1.57,
0.436,0.06,0.12,0.75,0.67,-0.73,-1.67,
0.437,0.06,0.12,0.75,0.67,-0.73,-1.67,
0.44,0.06,0.12,0.75,0.71,-0.78,-1.78,
0.44,0.07,0.12,0.74,0.71,-0.78,-1.78,
0.442,0.07,0.12,0.74,0.71,-0.78,-1.78,
0.449,0.07,0.12,0.73,0.71,-0.78,-1.78,
0.449,0.07,0.12,0.73,0.77,-0.81,-1.89,
0.45,0.07,0.12,0.72,0.77,-0.81,-1.89,
0.45,0.07,0.12,0.72,0.77,-0.81,-1.89,
0.45,0.07,0.12,0.72,0.76,-0.80,-1.96,
0.452,0.07,0.12,0.71,0.76,-0.80,-1.96,
0.455,0.07,0.12,0.71,0.76,-0.80,-2.10,
0.455,0.07,0.13,0.71,0.76,-0.80,-2.10,
0.457,0.07,0.13,0.71,0.76,-0.80,-2.10,
0.465,0.07,0.13,0.71,0.76,-0.80,-2.10,
0.466,0.07,0.13,0.71,0.76,-0.78,-2.13,
0.466,0.07,0.13,0.71,0.76,-0.78,-2.13,
0.466,0.07,0.14,0.71,0.76,-0.78,-2.13,
0.467,0.07,0.14,0.71,0.72,-0.75,-2.16,
0.467,0.07,0.14,0.72,0.72,-0.75,-2.16,
0.47,0.06,0.13,0.72,0.72,-0.75,-2.16,
0.47,0.06,0.13,0.72,0.70,-0.72,-2.17,
0.472,0.06,0.13,0.72,0.70,-0.72,-2.17,
0.474,0.07,0.13,0.72,0.70,-0.72,-2.17,
0.474,0.07,0.13,0.72,0.62,-0.74,-2.06,
0.483,0.06,0.13,0.72,0.62,-0.74,-2.06,
0.484,0.06,0.13,0.72,0.60,-0.79,-2.00,
0.484,0.06,0.13,0.72,0.60,-0.79,-2.00,
0.484,0.06,0.13,0.73,0.60,-0.79,-2.00,
0.484,0.07,0.12,0.73,0.60,-0.79,-2.00,
0.485,0.07,0.12,0.73,0.54,-0.82,-1.97,
0.487,0.06,0.12,0.74,0.54,-0.82,-1.97,
0.49,0.06,0.11,0.74,0.54,-0.82,-1.97,
0.49,0.06,0.11,0.74,0.54,-0.87,-1.92,
0.492,0.06,0.11,0.74,0.54,-0.87,-1.92,
0.494,0.06,0.11,0.75,0.54,-0.87,-1.92,
0.495,0.06,0.11,0.75,0.51,-0.96,-1.80,
0.504,0.07,0.11,0.75,0.51,-0.96,-1.80,
0.504,0.07,0.11,0.76,0.51,-0.96,-1.80,
0.504,0.07,0.11,0.76,0.50,-1.01,-1.75,
0.505,0.07,0.11,0.77,0.50,-1.01,-1.75,
0.505,0.07,0.11,0.77,0.52,-0.99,-1.62,
0.505,0.08,0.12,0.77,0.52,-0.99,-1.62,
0.506,0.07,0.12,0.77,0.52,-0.99,-1.62,
0.51,0.07,0.12,0.78,0.52,-0.99,-1.62,
0.51,0.07,0.12,0.78,0.56,-0.97,-1.47,
0.516,0.08,0.14,0.79,0.56,-0.97,-1.47,
0.516,0.08,0.14,0.79,0.53,-0.86,-1.39,
0.516,0.09,0.15,0.79,0.53,-0.86,-1.39,
0.516,0.09,0.15,0.79,0.53,-0.86,-1.39,
0.519,0.10,0.15,0.80,0.53,-0.86,-1.39,
0.52,0.10,0.15,0.80,0.61,-0.67,-1.27,
0.522,0.10,0.16,0.80,0.61,-0.67,-1.27,
0.525,0.11,0.16,0.80,0.61,-0.67,-1.27,
0.525,0.11,0.16,0.80,0.68,-0.56,-1.22,
0.527,0.11,0.17,0.80,0.68,-0.56,-1.22,
0.534,0.11,0.17,0.80,0.81,-0.45,-1.15,
0.535,0.12,0.18,0.80,0.81,-0.45,-1.15,
0.535,0.13,0.18,0.80,0.81,-0.45,-1.15,
0.535,0.13,0.18,0.80,0.88,-0.28,-1.13,
0.536,0.13,0.19,0.80,0.88,-0.28,-1.13,
0.536,0.14,0.19,0.81,0.88,-0.28,-1.13,
0.539,0.14,0.19,0.80,0.88,-0.28,-1.13,
0.54,0.14,0.19,0.80,0.97,-0.20,-1.10,
0.542,0.15,0.19,0.81,0.97,-0.20,-1.10,
0.549,0.16,0.19,0.81,0.97,-0.20,-1.10,
0.55,0.16,0.19,0.81,1.07,-0.11,-1.09,
0.55,0.16,0.19,0.81,1.07,-0.11,-1.09,
0.55,0.17,0.19,0.81,1.07,-0.11,-1.09,
0.55,0.17,0.19,0.81,1.20,-0.05,-1.08,
0.551,0.17,0.19,0.82,1.20,-0.05,-1.08,
0.554,0.17,0.19,0.82,1.29,-0.05,-1.04,
0.554,0.18,0.19,0.82,1.29,-0.05,-1.04,
0.556,0.18,0.19,0.82,1.29,-0.05,-1.04,
0.559,0.18,0.19,0.82,1.29,-0.05,-1.04,
0.56,0.18,0.19,0.82,1.35,-0.03,-0.99,
0.566,0.18,0.18,0.83,1.35,-0.03,-0.99,
0.566,0.19,0.19,0.83,1.35,-0.03,-0.99,
0.567,0.19,0.19,0.83,1.37,-0.01,-0.93,
0.567,0.18,0.19,0.84,1.37,-0.01,-0.93,
0.569,0.18,0.19,0.84,1.37,-0.01,-0.93,
0.57,0.18,0.19,0.84,1.40,-0.02,-0.87,
0.571,0.18,0.19,0.85,1.40,-0.02,-0.87,
0.574,0.18,0.20,0.85,1.40,-0.02,-0.87,
0.575,0.18,0.20,0.85,1.33,0.07,-0.76,
0.576,0.17,0.20,0.86,1.33,0.07,-0.76,
0.582,0.17,0.20,0.86,1.30,0.15,-0.65,
0.583,0.17,0.19,0.86,1.30,0.15,-0.65,
0.583,0.17,0.19,0.87,1.30,0.15,-0.65,
0.584,0.17,0.19,0.87,1.30,0.15,-0.65,
0.584,0.17,0.19,0.87,1.25,0.17,-0.61,
0.586,0.17,0.19,0.88,1.25,0.17,-0.61,
0.589,0.17,0.19,0.88,1.25,0.17,-0.61,
0.589,0.17,0.19,0.88,1.22,0.17,-0.48,
0.591,0.17,0.19,0.89,1.22,0.17,-0.48,
0.593,0.17,0.19,0.90,1.22,0.17,-0.48,
0.594,0.17,0.19,0.90,1.17,0.21,-0.39,
0.604,0.17,0.19,0.91,1.17,0.21,-0.39,
0.605,0.16,0.19,0.92,1.17,0.21,-0.39,
0.605,0.16,0.19,0.92,1.14,0.25,-0.22,
0.605,0.17,0.19,0.93,1.14,0.25,-0.22,
0.605,0.17,0.19,0.94,1.14,0.25,-0.22,
0.605,0.17,0.19,0.94,1.06,0.27,-0.07,
0.606,0.17,0.19,0.94,1.06,0.27,-0.07,
0.609,0.16,0.19,0.95,1.06,0.27,-0.07,
0.61,0.16,0.19,0.95,1.06,0.31,0.11,
0.619,0.16,0.19,0.96,1.06,0.31,0.11,
0.62,0.16,0.18,0.96,1.06,0.31,0.11,
0.62,0.16,0.18,0.96,1.02,0.34,0.27,
0.62,0.16,0.18,0.97,1.02,0.34,0.27,
0.621,0.16,0.18,0.98,1.02,0.34,0.27,
0.621,0.16,0.18,0.98,0.97,0.31,0.37,
0.621,0.16,0.17,0.97,0.97,0.31,0.37,
0.623,0.16,0.17,0.97,0.96,0.28,0.50,
0.623,0.16,0.17,0.98,0.96,0.28,0.50,
0.626,0.16,0.17,0.99,0.96,0.28,0.50,
0.637,0.16,0.17,0.99,0.91,0.22,0.53,
0.638,0.16,0.16,0.99,0.91,0.22,0.53,
0.638,0.15,0.16,0.99,0.91,0.22,0.53,
0.638,0.15,0.15,0.99,0.91,0.22,0.53,
0.639,0.15,0.15,0.99,0.88,0.21,0.62,
0.639,0.14,0.15,1.00,0.88,0.21,0.62,
0.639,0.14,0.14,1.00,0.88,0.21,0.62,
0.639,0.14,0.14,1.00,0.81,0.13,0.64,
0.64,0.13,0.13,1.01,0.81,0.13,0.64,
0.643,0.13,0.13,1.00,0.81,0.13,0.64,
0.643,0.13,0.13,1.00,0.68,0.06,0.72,
0.65,0.13,0.12,1.01,0.68,0.06,0.72,
0.651,0.12,0.12,1.01,0.68,0.06,0.72,
0.651,0.12,0.12,1.01,0.58,-0.00,0.78,
0.651,0.12,0.11,1.01,0.58,-0.00,0.78,
0.653,0.12,0.11,1.01,0.52,-0.08,0.81,
0.653,0.12,0.11,1.02,0.52,-0.08,0.81,
0.655,0.11,0.10,1.02,0.52,-0.08,0.81,
0.658,0.11,0.10,1.02,0.52,-0.08,0.81,
0.66,0.11,0.10,1.02,0.42,-0.12,0.86,
0.661,0.11,0.10,1.02,0.42,-0.12,0.86,
0.666,0.10,0.09,1.03,0.42,-0.12,0.86,
0.667,0.10,0.09,1.03,0.36,-0.18,0.88,
0.668,0.10,0.09,1.03,0.36,-0.18,0.88,
0.668,0.10,0.09,1.03,0.36,-0.18,0.88,
0.668,0.10,0.09,1.03,0.27,-0.22,0.92,
0.67,0.10,0.09,1.04,0.27,-0.22,0.92,
0.673,0.10,0.09,1.04,0.27,-0.22,0.92,
0.673,0.10,0.09,1.04,0.21,-0.24,0.96,
0.675,0.09,0.09,1.04,0.21,-0.24,0.96,
0.684,0.09,0.09,1.04,0.17,-0.19,1.06,
0.685,0.09,0.09,1.04,0.17,-0.19,1.06,
0.685,0.10,0.09,1.04,0.17,-0.19,1.06,
0.686,0.10,0.09,1.05,0.17,-0.19,1.06,
0.686,0.10,0.09,1.05,0.15,-0.16,1.09,
0.686,0.10,0.09,1.04,0.15,-0.16,1.09,
0.688,0.10,0.09,1.04,0.15,-0.16,1.09,
0.688,0.10,0.09,1.04,0.20,-0.13,1.10,
0.69,0.10,0.09,1.04,0.20,-0.13,1.10,
0.692,0.10,0.09,1.02,0.20,-0.13,1.10,
0.693,0.10,0.09,1.02,0.20,-0.04,1.09,
0.701,0.10,0.09,1.02,0.20,-0.04,1.09,
0.702,0.10,0.09,1.01,0.20,-0.04,1.09,
0.702,0.10,0.09,1.01,0.23,-0.02,0.95,
0.702,0.10,0.09,1.01,0.23,-0.02,0.95,
0.702,0.10,0.09,1.01,0.23,0.01,0.79,
0.703,0.10,0.09,1.00,0.23,0.01,0.79,
0.704,0.10,0.09,1.00,0.23,0.01,0.79,
0.707,0.09,0.09,1.00,0.23,0.01,0.79,
0.707,0.09,0.09,1.00,0.23,0.05,0.69,
0.71,0.09,0.09,0.99,0.23,0.05,0.69,
0.717,0.09,0.09,0.99,0.20,0.11,0.61,
0.717,0.08,0.09,0.98,0.20,0.11,0.61,
0.717,0.07,0.09,0.98,0.20,0.11,0.61,
0.717,0.06,0.09,0.97,0.20,0.11,0.61,
0.717,0.06,0.09,0.97,0.09,0.17,0.48,
0.72,0.06,0.09,0.98,0.09,0.17,0.48,
0.723,0.06,0.09,0.98,0.09,0.17,0.48,
0.723,0.06,0.09,0.98,-0.08,0.21,0.40,
0.725,0.05,0.08,0.98,-0.08,0.21,0.40,
0.728,0.05,0.08,0.98,-0.16,0.22,0.38,
0.728,0.04,0.07,0.98,-0.16,0.22,0.38,
0.736,0.05,0.07,0.98,-0.16,0.22,0.38,
0.737,0.05,0.07,0.99,-0.16,0.22,0.38,
0.737,0.05,0.07,0.99,-0.30,0.13,0.38,
0.737,0.05,0.07,1.00,-0.30,0.13,0.38,
0.738,0.06,0.07,1.00,-0.30,0.13,0.38,
0.738,0.06,0.07,1.00,-0.25,0.13,0.47,
0.74,0.06,0.07,1.02,-0.25,0.13,0.47,
0.743,0.06,0.07,1.03,-0.25,0.13,0.47,
0.743,0.06,0.07,1.03,-0.20,0.15,0.59,
0.75,0.07,0.07,1.04,-0.20,0.15,0.59,
0.751,0.07,0.07,1.05,-0.20,0.15,0.59,
0.751,0.07,0.07,1.05,-0.19,0.21,0.80,
0.751,0.08,0.06,1.06,-0.19,0.21,0.80,
0.752,0.08,0.06,1.06,-0.08,0.22,0.99,
0.752,0.10,0.06,1.07,-0.08,0.22,0.99,
0.755,0.11,0.06,1.08,-0.08,0.22,0.99,
0.757,0.11,0.05,1.10,-0.08,0.22,0.99,
0.757,0.11,0.05,1.10,0.07,0.20,1.25,
0.759,0.11,0.05,1.11,0.07,0.20,1.25,
0.767,0.12,0.05,1.11,0.07,0.20,1.25,
0.767,0.12,0.05,1.11,0.24,0.18,1.47,
0.768,0.12,0.05,1.13,0.24,0.18,1.47,
0.768,0.12,0.05,1.13,0.24,0.18,1.47,
0.768,0.12,0.05,1.13,0.29,0.18,1.65,
0.769,0.12,0.05,1.13,0.29,0.18,1.65,
0.772,0.12,0.05,1.15,0.29,0.18,1.65,
0.772,0.12,0.05,1.15,0.32,0.23,1.83,
0.774,0.11,0.04,1.16,0.32,0.23,1.83,
0.777,0.11,0.04,1.16,0.23,0.26,1.91,
0.777,0.10,0.04,1.16,0.23,0.26,1.91,
0.784,0.10,0.04,1.17,0.23,0.26,1.91,
0.784,0.08,0.03,1.18,0.23,0.26,1.91,
0.785,0.08,0.03,1.18,0.09,0.25,2.13,
0.785,0.07,0.02,1.20,0.09,0.25,2.13,
0.787,0.07,0.02,1.20,0.09,0.25,2.13,
0.788,0.07,0.02,1.20,-0.10,0.22,2.28,
0.79,0.06,0.01,1.21,-0.10,0.22,2.28,
0.792,0.05,0.00,1.23,-0.10,0.22,2.28,
0.792,0.05,0.00,1.23,-0.31,0.14,2.49,
0.794,0.04,-0.00,1.23,-0.31,0.14,2.49,
0.806,0.02,-0.01,1.23,-0.31,0.14,2.49,
0.806,0.02,-0.01,1.23,-0.54,0.07,2.70,
0.807,0.02,-0.02,1.24,-0.54,0.07,2.70,
0.807,0.02,-0.02,1.24,-0.78,-0.02,2.79,
0.807,0.01,-0.03,1.24,-0.78,-0.02,2.79,
0.807,0.00,-0.04,1.24,-0.78,-0.02,2.79,
0.807,0.00,-0.04,1.24,-0.95,-0.13,2.85,
0.808,-0.01,-0.04,1.25,-0.95,-0.13,2.85,
0.809,-0.02,-0.04,1.24,-0.95,-0.13,2.85,
0.819,-0.03,-0.05,1.24,-0.95,-0.13,2.85,
0.819,-0.03,-0.05,1.24,-1.16,-0.24,2.91,
0.819,-0.03,-0.06,1.23,-1.16,-0.24,2.91,
0.82,-0.03,-0.06,1.23,-1.16,-0.24,2.91,
0.82,-0.03,-0.06,1.23,-1.37,-0.30,2.86,
0.82,-0.02,-0.07,1.22,-1.37,-0.30,2.86,
0.822,-0.02,-0.07,1.22,-1.45,-0.35,2.74,
0.822,-0.02,-0.07,1.21,-1.45,-0.35,2.74,
0.825,-0.00,-0.07,1.19,-1.45,-0.35,2.74,
0.827,-0.00,-0.07,1.19,-1.37,-0.39,2.58,
0.827,0.01,-0.08,1.18,-1.37,-0.39,2.58,
0.838,0.03,-0.08,1.17,-1.37,-0.39,2.58,
0.839,0.04,-0.08,1.17,-1.37,-0.39,2.58,
0.839,0.04,-0.08,1.17,-1.17,-0.44,2.32,
0.839,0.05,-0.08,1.16,-1.17,-0.44,2.32,
0.839,0.06,-0.07,1.16,-1.17,-0.44,2.32,
0.839,0.06,-0.07,1.16,-0.92,-0.45,2.13,
0.84,0.07,-0.06,1.16,-0.92,-0.45,2.13,
0.841,0.08,-0.06,1.16,-0.92,-0.45,2.13,
0.841,0.08,-0.06,1.16,-0.70,-0.38,2.03,
0.843,0.09,-0.05,1.16,-0.70,-0.38,2.03,
0.851,0.10,-0.04,1.17,-0.70,-0.38,2.03,
0.852,0.10,-0.04,1.17,-0.53,-0.24,2.05,
0.852,0.10,-0.04,1.18,-0.53,-0.24,2.05,
0.852,0.10,-0.04,1.18,-0.38,-0.07,2.07,
0.852,0.10,-0.02,1.18,-0.38,-0.07,2.07,
0.853,0.11,-0.02,1.18,-0.38,-0.07,2.07,
0.856,0.11,-0.01,1.19,-0.38,-0.07,2.07,
0.856,0.11,-0.01,1.19,-0.34,0.14,2.21,
0.858,0.10,-0.01,1.20,-0.34,0.14,2.21,
0.86,0.10,-0.00,1.21,-0.34,0.14,2.21,
0.861,0.10,-0.00,1.21,-0.33,0.33,2.30,
0.867,0.11,0.00,1.22,-0.33,0.33,2.30,
0.867,0.10,0.00,1.23,-0.33,0.33,2.30,
0.868,0.10,0.00,1.23,-0.38,0.46,2.48,
0.868,0.10,-0.00,1.24,-0.38,0.46,2.48,
0.87,0.10,-0.01,1.25,-0.38,0.46,2.48,
0.871,0.10,-0.01,1.25,-0.41,0.54,2.67,
0.872,0.11,-0.01,1.26,-0.41,0.54,2.67,
0.875,0.11,-0.01,1.26,-0.47,0.48,2.91,
0.875,0.10,-0.02,1.27,-0.47,0.48,2.91,
0.877,0.10,-0.03,1.28,-0.47,0.48,2.91,
0.884,0.10,-0.04,1.29,-0.47,0.48,2.91,
0.884,0.10,-0.04,1.29,-0.46,0.42,3.05,
0.884,0.10,-0.05,1.29,-0.46,0.42,3.05,
0.885,0.10,-0.06,1.29,-0.46,0.42,3.05,
0.885,0.10,-0.06,1.29,-0.51,0.27,3.25,
0.888,0.10,-0.06,1.29,-0.51,0.27,3.25,
0.89,0.10,-0.07,1.29,-0.51,0.27,3.25,
0.891,0.10,-0.07,1.29,-0.54,0.15,3.28,
0.892,0.10,-0.07,1.28,-0.54,0.15,3.28,
0.907,0.10,-0.07,1.28,-0.54,0.15,3.28,
0.908,0.10,-0.07,1.28,-0.57,0.06,3.28,
0.908,0.10,-0.07,1.27,-0.57,0.06,3.28,
0.909,0.10,-0.07,1.27,-0.61,0.01,3.18,
0.909,0.10,-0.07,1.27,-0.61,0.01,3.18,
0.909,0.10,-0.07,1.26,-0.61,0.01,3.18,
0.909,0.10,-0.07,1.25,-0.61,0.01,3.18,
0.91,0.10,-0.07,1.25,-0.59,0.03,3.06,
0.91,0.10,-0.06,1.24,-0.59,0.03,3.06,
0.91,0.10,-0.06,1.24,-0.57,0.08,2.91,
0.91,0.10,-0.06,1.22,-0.57,0.08,2.91,
0.914,0.10,-0.05,1.21,-0.57,0.08,2.91,
0.916,0.11,-0.05,1.20,-0.57,0.08,2.91,
0.916,0.11,-0.05,1.20,-0.57,0.18,2.67,
0.917,0.11,-0.05,1.18,-0.57,0.18,2.67,
0.92,0.12,-0.05,1.17,-0.57,0.18,2.67,
0.92,0.12,-0.05,1.17,-0.51,0.29,2.40,
0.922,0.13,-0.05,1.16,-0.51,0.29,2.40,
0.925,0.13,-0.05,1.16,-0.38,0.32,2.14,
0.925,0.13,-0.05,1.15,-0.38,0.32,2.14,
0.927,0.13,-0.05,1.14,-0.38,0.32,2.14,
0.932,0.14,-0.05,1.13,-0.38,0.32,2.14,
0.933,0.14,-0.05,1.13,-0.24,0.35,1.91,
0.934,0.14,-0.05,1.12,-0.24,0.35,1.91,
0.935,0.13,-0.05,1.11,-0.24,0.35,1.91,
0.935,0.13,-0.05,1.11,-0.17,0.34,1.71,
0.938,0.13,-0.05,1.11,-0.17,0.34,1.71,
0.941,0.13,-0.04,1.10,-0.17,0.34,1.71,
0.941,0.13,-0.04,1.10,-0.16,0.40,1.49,
0.943,0.12,-0.04,1.10,-0.16,0.40,1.49,
0.946,0.11,-0.04,1.10,-0.16,0.40,1.49,
0.946,0.11,-0.04,1.10,-0.21,0.46,1.40,
0.948,0.11,-0.04,1.10,-0.21,0.46,1.40,
0.95,0.11,-0.04,1.10,-0.32,0.51,1.33,
0.95,0.10,-0.04,1.09,-0.32,0.51,1.33,
0.952,0.09,-0.04,1.10,-0.32,0.51,1.33,
0.955,0.09,-0.04,1.10,-0.43,0.54,1.29,
0.956,0.09,-0.03,1.10,-0.43,0.54,1.29,
0.958,0.09,-0.04,1.10,-0.43,0.54,1.29,
0.96,0.09,-0.04,1.11,-0.43,0.54,1.29,
0.96,0.09,-0.04,1.11,-0.51,0.61,1.31,
0.962,0.09,-0.04,1.12,-0.51,0.61,1.31,
0.967,0.09,-0.05,1.14,-0.51,0.61,1.31,
0.967,0.09,-0.05,1.14,-0.55,0.61,1.39,
0.967,0.10,-0.05,1.15,-0.55,0.61,1.39,
0.97,0.10,-0.05,1.16,-0.55,0.61,1.39,
0.97,0.10,-0.05,1.16,-0.55,0.56,1.61,
0.972,0.10,-0.06,1.17,-0.55,0.56,1.61,
0.975,0.10,-0.07,1.17,-0.55,0.56,1.61,
0.975,0.10,-0.07,1.17,-0.48,0.49,1.83,
0.977,0.10,-0.08,1.18,-0.48,0.49,1.83,
0.983,0.11,-0.09,1.18,-0.48,0.49,1.83,
0.984,0.11,-0.09,1.18,-0.46,0.37,2.00,
0.984,0.11,-0.09,1.19,-0.46,0.37,2.00,
0.984,0.11,-0.09,1.19,-0.46,0.37,2.00,
0.985,0.11,-0.09,1.19,-0.42,0.21,2.09,
0.987,0.12,-0.09,1.19,-0.42,0.21,2.09,
0.99,0.12,-0.10,1.19,-0.42,0.21,2.09,
0.99,0.12,-0.10,1.19,-0.39,0.14,2.17,
0.992,0.11,-0.10,1.19,-0.39,0.14,2.17,
0.995,0.11,-0.10,1.18,-0.39,0.14,2.17,
0.995,0.11,-0.10,1.18,-0.36,0.10,2.19,
0.997,0.11,-0.10,1.18,-0.36,0.10,2.19,
1.0,0.11,-0.10,1.18,-0.39,0.09,2.12,
1.0,0.11,-0.10,1.18,-0.39,0.09,2.12,
1.001,0.11,-0.11,1.18,-0.39,0.09,2.12,
1.004,0.11,-0.11,1.18,-0.42,0.08,2.08,
1.005,0.11,-0.11,1.17,-0.42,0.08,2.08,
1.006,0.10,-0.12,1.17,-0.42,0.08,2.08,
1.01,0.10,-0.12,1.17,-0.42,0.08,2.08,
1.01,0.10,-0.12,1.17,-0.45,-0.02,2.03,
1.012,0.10,-0.12,1.17,-0.45,-0.02,2.03,
1.016,0.10,-0.13,1.18,-0.45,-0.02,2.03,
1.017,0.10,-0.13,1.18,-0.50,-0.11,2.00,
1.017,0.10,-0.13,1.18,-0.50,-0.11,2.00,
1.019,0.09,-0.14,1.18,-0.50,-0.11,2.00,
1.02,0.09,-0.14,1.18,-0.51,-0.16,2.03,
1.022,0.09,-0.14,1.18,-0.51,-0.16,2.03,
1.024,0.09,-0.14,1.18,-0.55,-0.26,2.07,
1.024,0.09,-0.14,1.19,-0.55,-0.26,2.07,
1.027,0.09,-0.14,1.19,-0.55,-0.26,2.07,
1.031,0.09,-0.13,1.19,-0.55,-0.26,2.07,
1.031,0.09,-0.13,1.19,-0.63,-0.29,2.11,
1.032,0.09,-0.14,1.20,-0.63,-0.29,2.11,
1.034,0.09,-0.14,1.20,-0.62,-0.25,2.19,
1.034,0.09,-0.13,1.21,-0.62,-0.25,2.19,
1.037,0.09,-0.13,1.21,-0.62,-0.25,2.19,
1.04,0.09,-0.13,1.22,-0.62,-0.25,2.19,
1.04,0.09,-0.13,1.22,-0.56,-0.22,2.26,
1.042,0.10,-0.12,1.22,-0.56,-0.22,2.26,
1.044,0.10,-0.12,1.22,-0.56,-0.22,2.26,
1.044,0.10,-0.12,1.22,-0.54,-0.18,2.36,
1.046,0.10,-0.12,1.23,-0.54,-0.18,2.36,
1.049,0.10,-0.12,1.23,-0.46,-0.08,2.44,
1.049,0.11,-0.12,1.23,-0.46,-0.08,2.44,
1.051,0.12,-0.11,1.23,-0.46,-0.08,2.44,
1.055,0.12,-0.11,1.23,-0.46,-0.08,2.44,
1.055,0.12,-0.11,1.23,-0.37,-0.03,2.48,
1.057,0.13,-0.11,1.23,-0.37,-0.03,2.48,
1.059,0.13,-0.11,1.23,-0.37,-0.03,2.48,
1.06,0.13,-0.11,1.23,-0.24,0.02,2.52,
1.061,0.14,-0.11,1.23,-0.24,0.02,2.52,
1.064,0.14,-0.10,1.24,-0.24,0.02,2.52,
1.064,0.14,-0.10,1.24,-0.09,0.04,2.51,
1.067,0.15,-0.10,1.24,-0.09,0.04,2.51,
1.069,0.15,-0.10,1.24,0.02,0.12,2.51,
1.07,0.16,-0.10,1.24,0.02,0.12,2.51,
1.071,0.16,-0.09,1.24,0.02,0.12,2.51,
1.074,0.16,-0.09,1.24,0.18,0.16,2.57,
1.074,0.17,-0.09,1.25,0.18,0.16,2.57,
1.076,0.17,-0.09,1.25,0.18,0.16,2.57,
1.079,0.17,-0.08,1.25,0.18,0.16,2.57,
1.079,0.17,-0.08,1.25,0.29,0.27,2.61,
1.085,0.17,-0.08,1.25,0.29,0.27,2.61,
1.086,0.18,-0.08,1.24,0.29,0.27,2.61,
1.086,0.18,-0.08,1.24,0.39,0.33,2.66,
1.086,0.18,-0.08,1.25,0.39,0.33,2.66,
1.088,0.19,-0.07,1.25,0.39,0.33,2.66,
1.088,0.19,-0.07,1.25,0.46,0.35,2.59,
1.091,0.19,-0.07,1.24,0.46,0.35,2.59,
1.093,0.19,-0.07,1.24,0.46,0.35,2.59,
1.094,0.19,-0.07,1.24,0.58,0.41,2.59,
1.096,0.20,-0.07,1.24,0.58,0.41,2.59,
1.098,0.20,-0.07,1.24,0.63,0.47,2.49,
1.098,0.19,-0.07,1.24,0.63,0.47,2.49,
1.101,0.20,-0.07,1.23,0.63,0.47,2.49,
1.104,0.19,-0.07,1.23,0.63,0.47,2.49,
1.104,0.19,-0.07,1.23,0.71,0.42,2.48,
1.106,0.19,-0.07,1.22,0.71,0.42,2.48,
1.109,0.19,-0.06,1.21,0.71,0.42,2.48,
1.109,0.19,-0.06,1.21,0.71,0.46,2.36,
1.111,0.19,-0.06,1.21,0.71,0.46,2.36,
1.114,0.19,-0.07,1.21,0.71,0.46,2.36,
1.115,0.19,-0.07,1.21,0.68,0.48,2.26,
1.116,0.18,-0.07,1.20,0.68,0.48,2.26,
1.118,0.18,-0.06,1.20,0.68,0.48,2.26,
1.119,0.18,-0.06,1.20,0.68,0.48,2.18,
1.12,0.18,-0.06,1.19,0.68,0.48,2.18,
1.124,0.18,-0.06,1.19,0.63,0.49,2.05,
1.124,0.17,-0.06,1.19,0.63,0.49,2.05,
1.126,0.17,-0.06,1.20,0.63,0.49,2.05,
1.129,0.17,-0.06,1.20,0.63,0.49,2.05,
1.129,0.17,-0.06,1.20,0.59,0.52,2.00,
1.131,0.16,-0.06,1.20,0.59,0.52,2.00,
1.133,0.16,-0.06,1.20,0.59,0.52,2.00,
1.133,0.16,-0.06,1.20,0.57,0.50,2.02,
1.135,0.16,-0.06,1.20,0.57,0.50,2.02,
1.139,0.16,-0.06,1.20,0.49,0.43,2.00,
1.139,0.17,-0.07,1.20,0.49,0.43,2.00,
1.141,0.17,-0.06,1.20,0.49,0.43,2.00,
1.143,0.17,-0.06,1.21,0.49,0.43,2.00,
1.144,0.17,-0.06,1.21,0.55,0.39,2.01,
1.146,0.17,-0.06,1.20,0.55,0.39,2.01,
1.148,0.17,-0.06,1.20,0.54,0.41,2.07,
1.148,0.16,-0.06,1.20,0.54,0.41,2.07,
1.15,0.16,-0.06,1.21,0.54,0.41,2.07,
1.153,0.17,-0.06,1.20,0.54,0.41,2.07,
1.156,0.17,-0.06,1.20,0.55,0.39,2.04,
1.157,0.16,-0.06,1.20,0.55,0.39,2.04,
1.158,0.16,-0.06,1.20,0.55,0.39,2.04,
1.159,0.16,-0.06,1.20,0.56,0.39,2.04,
1.16,0.16,-0.05,1.21,0.56,0.39,2.04,
1.163,0.16,-0.06,1.21,0.56,0.39,2.04,
1.165,0.16,-0.06,1.21,0.56,0.37,2.03,
1.166,0.16,-0.06,1.20,0.56,0.37,2.03,
1.167,0.17,-0.07,1.20,0.56,0.37,2.03,
1.168,0.17,-0.07,1.20,0.55,0.39,2.07,
1.17,0.17,-0.06,1.20,0.55,0.39,2.07,
1.172,0.17,-0.06,1.20,0.60,0.30,1.98,
1.173,0.16,-0.06,1.20,0.60,0.30,1.98,
1.175,0.16,-0.06,1.20,0.60,0.30,1.98,
1.178,0.16,-0.06,1.20,0.60,0.30,1.98,
1.178,0.16,-0.06,1.20,0.61,0.30,1.93,
1.181,0.16,-0.06,1.19,0.61,0.30,1.93,
1.182,0.16,-0.05,1.19,0.61,0.30,1.93,
1.182,0.16,-0.05,1.19,0.61,0.27,1.92,
1.185,0.16,-0.06,1.18,0.61,0.27,1.92,
1.187,0.15,-0.06,1.18,0.61,0.27,1.92,
1.188,0.15,-0.06,1.18,0.61,0.31,1.85,
1.19,0.15,-0.06,1.18,0.61,0.31,1.85,
1.193,0.14,-0.06,1.18,0.61,0.31,1.85,
1.193,0.14,-0.06,1.18,0.57,0.28,1.75,
1.194,0.15,-0.05,1.18,0.57,0.28,1.75,
1.202,0.15,-0.05,1.18,0.52,0.27,1.73,
1.202,0.14,-0.05,1.18,0.52,0.27,1.73,
1.203,0.13,-0.04,1.18,0.52,0.27,1.73,
1.203,0.13,-0.04,1.18,0.52,0.27,1.73,
1.203,0.13,-0.04,1.18,0.49,0.30,1.71,
1.204,0.13,-0.04,1.18,0.49,0.30,1.71,
1.207,0.13,-0.03,1.17,0.49,0.30,1.71,
1.207,0.13,-0.03,1.17,0.40,0.37,1.71,
1.209,0.13,-0.03,1.17,0.40,0.37,1.71,
1.214,0.12,-0.03,1.17,0.40,0.37,1.71,
1.214,0.12,-0.03,1.17,0.39,0.42,1.67,
1.215,0.13,-0.03,1.16,0.39,0.42,1.67,
1.217,0.13,-0.02,1.16,0.39,0.42,1.67,
1.217,0.13,-0.02,1.16,0.38,0.43,1.61,
1.219,0.13,-0.03,1.15,0.38,0.43,1.61,
1.222,0.13,-0.03,1.15,0.41,0.44,1.49,
1.222,0.13,-0.03,1.15,0.41,0.44,1.49,
1.224,0.13,-0.03,1.15,0.41,0.44,1.49,
1.227,0.13,-0.02,1.15,0.41,0.44,1.49,
1.227,0.13,-0.02,1.15,0.45,0.40,1.38,
1.23,0.13,-0.02,1.14,0.45,0.40,1.38,
1.233,0.13,-0.02,1.14,0.45,0.40,1.38,
1.233,0.13,-0.02,1.14,0.45,0.39,1.37,
1.234,0.13,-0.03,1.14,0.45,0.39,1.37,
1.237,0.13,-0.02,1.14,0.45,0.39,1.37,
1.237,0.13,-0.02,1.14,0.49,0.37,1.31,
1.239,0.13,-0.02,1.14,0.49,0.37,1.31,
1.242,0.13,-0.02,1.13,0.49,0.37,1.31,
1.242,0.13,-0.02,1.13,0.52,0.33,1.23,
1.244,0.13,-0.02,1.13,0.52,0.33,1.23,
1.247,0.13,-0.02,1.13,0.53,0.33,1.19,
1.248,0.13,-0.02,1.12,0.53,0.33,1.19,
1.249,0.13,-0.02,1.12,0.53,0.33,1.19,
1.253,0.12,-0.01,1.12,0.53,0.33,1.19,
1.253,0.12,-0.01,1.12,0.51,0.32,1.08,
1.254,0.12,-0.01,1.12,0.51,0.32,1.08,
1.257,0.12,-0.01,1.11,0.51,0.32,1.08,
1.257,0.12,-0.01,1.11,0.48,0.30,1.02,
1.259,0.12,-0.02,1.10,0.48,0.30,1.02,
1.261,0.11,-0.02,1.11,0.48,0.30,1.02,
1.262,0.11,-0.02,1.11,0.45,0.29,0.96,
1.265,0.11,-0.02,1.10,0.45,0.29,0.96,
1.266,0.11,-0.02,1.10,0.43,0.21,0.88,
1.267,0.10,-0.02,1.10,0.43,0.21,0.88,
1.268,0.10,-0.02,1.09,0.43,0.21,0.88,
1.271,0.10,-0.02,1.09,0.35,0.15,0.80,
1.272,0.10,-0.02,1.09,0.35,0.15,0.80,
1.273,0.10,-0.02,1.08,0.35,0.15,0.80,
1.276,0.10,-0.02,1.07,0.35,0.15,0.80,
1.276,0.10,-0.02,1.07,0.30,0.13,0.72,
1.278,0.10,-0.01,1.07,0.30,0.13,0.72,
1.282,0.09,-0.01,1.07,0.30,0.13,0.72,
1.282,0.09,-0.01,1.07,0.30,0.13,0.57,
1.283,0.09,-0.02,1.06,0.30,0.13,0.57,
1.286,0.09,-0.01,1.06,0.30,0.13,0.57,
1.286,0.09,-0.01,1.06,0.27,0.12,0.48,
1.288,0.09,-0.01,1.05,0.27,0.12,0.48,
1.291,0.09,-0.01,1.06,0.27,0.12,0.48,
1.291,0.09,-0.01,1.06,0.24,0.11,0.38,
1.293,0.09,-0.01,1.06,0.24,0.11,0.38,
1.301,0.09,-0.01,1.06,0.20,0.08,0.34,
1.302,0.09,-0.01,1.06,0.20,0.08,0.34,
1.302,0.09,-0.02,1.06,0.20,0.08,0.34,
1.302,0.08,-0.01,1.06,0.20,0.08,0.34,
1.303,0.08,-0.01,1.06,0.22,0.05,0.37,
1.303,0.08,-0.01,1.07,0.22,0.05,0.37,
1.306,0.08,-0.02,1.06,0.22,0.05,0.37,
1.306,0.08,-0.02,1.06,0.22,0.02,0.37,
1.308,0.08,-0.02,1.06,0.22,0.02,0.37,
1.312,0.07,-0.02,1.07,0.22,0.02,0.37,
1.312,0.07,-0.02,1.07,0.16,0.00,0.43,
1.314,0.08,-0.02,1.07,0.16,0.00,0.43,
1.318,0.08,-0.02,1.07,0.16,0.00,0.43,
1.318,0.08,-0.02,1.07,0.13,-0.04,0.45,
1.32,0.08,-0.02,1.07,0.13,-0.04,0.45,
1.321,0.08,-0.02,1.07,0.18,-0.10,0.47,
1.322,0.08,-0.02,1.07,0.18,-0.10,0.47,
1.323,0.08,-0.02,1.07,0.18,-0.10,0.47,
1.327,0.08,-0.02,1.07,0.18,-0.10,0.47,
1.327,0.08,-0.02,1.07,0.23,-0.14,0.45,
1.328,0.08,-0.02,1.07,0.23,-0.14,0.45,
1.331,0.08,-0.02,1.07,0.23,-0.14,0.45,
1.332,0.08,-0.02,1.07,0.24,-0.12,0.46,
1.334,0.08,-0.01,1.06,0.24,-0.12,0.46,
1.336,0.08,-0.01,1.06,0.24,-0.12,0.46,
1.337,0.08,-0.01,1.06,0.22,-0.12,0.41,
1.339,0.08,-0.01,1.05,0.22,-0.12,0.41,
1.341,0.08,-0.01,1.05,0.22,-0.12,0.41,
1.342,0.08,-0.01,1.05,0.21,-0.10,0.35,
1.346,0.07,-0.01,1.04,0.21,-0.10,0.35,
1.346,0.07,-0.01,1.04,0.20,-0.12,0.25,
1.347,0.07,-0.01,1.05,0.20,-0.12,0.25,
1.349,0.06,-0.01,1.04,0.20,-0.12,0.25,
1.351,0.06,-0.01,1.04,0.17,-0.14,0.20,
1.351,0.06,-0.01,1.04,0.17,-0.14,0.20,
1.353,0.06,-0.01,1.03,0.17,-0.14,0.20,
1.356,0.06,-0.01,1.03,0.17,-0.14,0.20,
1.356,0.06,-0.01,1.03,0.07,-0.16,0.15,
1.358,0.05,-0.01,1.02,0.07,-0.16,0.15,
1.361,0.05,-0.01,1.02,0.07,-0.16,0.15,
1.361,0.05,-0.01,1.02,0.02,-0.14,0.05,
1.363,0.04,-0.01,1.02,0.02,-0.14,0.05,
1.366,0.04,-0.01,1.01,0.02,-0.14,0.05,
1.366,0.04,-0.01,1.01,-0.05,-0.15,-0.08,
1.368,0.03,-0.01,1.00,-0.05,-0.15,-0.08,
1.371,0.03,-0.01,1.00,-0.14,-0.18,-0.12,
1.372,0.03,-0.02,1.01,-0.14,-0.18,-0.12,
1.373,0.02,-0.02,1.01,-0.14,-0.18,-0.12,
1.376,0.02,-0.02,1.01,-0.14,-0.18,-0.12,
1.376,0.02,-0.02,1.01,-0.23,-0.29,-0.17,
1.378,0.01,-0.02,1.02,-0.23,-0.29,-0.17,
1.386,0.00,-0.02,1.01,-0.23,-0.29,-0.17,
1.387,0.00,-0.02,1.01,-0.32,-0.35,-0.16,
1.387,-0.00,-0.02,1.01,-0.32,-0.35,-0.16,
1.387,-0.00,-0.02,1.01,-0.45,-0.39,-0.10,
1.387,-0.01,-0.02,1.02,-0.45,-0.39,-0.10,
1.387,-0.02,-0.02,1.02,-0.45,-0.39,-0.10,
1.391,-0.02,-0.03,1.02,-0.45,-0.39,-0.10,
1.391,-0.02,-0.03,1.02,-0.60,-0.43,-0.11,
1.393,-0.02,-0.03,1.02,-0.60,-0.43,-0.11,
1.396,-0.03,-0.04,1.02,-0.60,-0.43,-0.11,
1.396,-0.03,-0.04,1.02,-0.68,-0.48,-0.07,
1.398,-0.03,-0.04,1.03,-0.68,-0.48,-0.07,
1.4,-0.03,-0.04,1.03,-0.68,-0.48,-0.07,
1.4,-0.03,-0.04,1.03,-0.74,-0.58,-0.06,
1.403,-0.03,-0.05,1.03,-0.74,-0.58,-0.06,
1.406,-0.03,-0.05,1.03,-0.80,-0.70,0.02,
1.406,-0.03,-0.06,1.03,-0.80,-0.70,0.02,
1.408,-0.03,-0.06,1.03,-0.80,-0.70,0.02,
1.411,-0.03,-0.06,1.03,-0.78,-0.81,0.03,
1.411,-0.02,-0.06,1.02,-0.78,-0.81,0.03,
1.413,-0.02,-0.05,1.02,-0.78,-0.81,0.03,
1.415,-0.02,-0.05,1.02,-0.78,-0.81,0.03,
1.416,-0.02,-0.05,1.02,-0.74,-0.89,0.01,
1.417,-0.02,-0.06,1.01,-0.74,-0.89,0.01,
1.42,-0.02,-0.06,1.01,-0.67,-0.89,-0.06,
1.42,-0.02,-0.06,1.01,-0.67,-0.89,-0.06,
1.423,-0.02,-0.06,1.00,-0.67,-0.89,-0.06,
1.425,-0.02,-0.06,0.99,-0.67,-0.89,-0.06,
1.426,-0.02,-0.06,0.99,-0.71,-0.96,-0.16,
1.428,-0.02,-0.06,0.98,-0.71,-0.96,-0.16,
1.431,-0.03,-0.05,0.97,-0.71,-0.96,-0.16,
1.431,-0.03,-0.05,0.97,-0.71,-1.01,-0.28,
1.433,-0.03,-0.05,0.97,-0.71,-1.01,-0.28,
1.435,-0.04,-0.05,0.97,-0.71,-1.01,-0.28,
1.435,-0.04,-0.05,0.97,-0.72,-0.95,-0.45,
1.438,-0.04,-0.04,0.96,-0.72,-0.95,-0.45,
1.44,-0.05,-0.04,0.96,-0.72,-0.95,-0.45,
1.441,-0.05,-0.04,0.96,-0.79,-0.93,-0.53,
1.443,-0.05,-0.03,0.95,-0.79,-0.93,-0.53,
1.445,-0.05,-0.03,0.95,-0.88,-0.87,-0.63,
1.446,-0.06,-0.03,0.95,-0.88,-0.87,-0.63,
1.447,-0.06,-0.03,0.95,-0.88,-0.87,-0.63,
1.449,-0.06,-0.03,0.94,-0.88,-0.87,-0.63,
1.45,-0.06,-0.03,0.94,-0.93,-0.80,-0.69,
1.452,-0.07,-0.03,0.94,-0.93,-0.80,-0.69,
1.455,-0.07,-0.03,0.94,-0.93,-0.80,-0.69,
1.455,-0.07,-0.03,0.94,-0.98,-0.79,-0.78,
1.458,-0.07,-0.03,0.94,-0.98,-0.79,-0.78,
1.46,-0.08,-0.03,0.94,-0.98,-0.79,-0.78,
1.461,-0.08,-0.03,0.94,-1.08,-0.81,-0.79,
1.462,-0.08,-0.03,0.94,-1.08,-0.81,-0.79,
1.465,-0.08,-0.03,0.94,-1.08,-0.81,-0.79,
1.466,-0.08,-0.03,0.94,-1.11,-0.83,-0.79,
1.466,-0.08,-0.03,0.92,-1.11,-0.83,-0.79,
1.469,-0.08,-0.03,0.92,-1.13,-0.85,-0.84,
1.47,-0.08,-0.03,0.92,-1.13,-0.85,-0.84,
1.472,-0.07,-0.04,0.92,-1.13,-0.85,-0.84,
1.474,-0.07,-0.04,0.91,-1.13,-0.85,-0.84,
1.474,-0.07,-0.04,0.91,-1.10,-0.90,-0.97,
1.476,-0.07,-0.04,0.91,-1.10,-0.90,-0.97,
1.479,-0.06,-0.04,0.90,-1.10,-0.90,-0.97,
1.479,-0.06,-0.04,0.90,-1.02,-0.97,-1.03,
1.481,-0.07,-0.05,0.89,-1.02,-0.97,-1.03,
1.485,-0.06,-0.04,0.89,-1.02,-0.97,-1.03,
1.485,-0.06,-0.04,0.89,-0.95,-0.99,-1.17,
1.486,-0.06,-0.04,0.88,-0.95,-0.99,-1.17,
1.489,-0.06,-0.03,0.87,-0.95,-0.99,-1.17,
1.489,-0.06,-0.03,0.87,-0.92,-1.03,-1.32,
1.491,-0.07,-0.03,0.87,-0.92,-1.03,-1.32,
1.494,-0.07,-0.03,0.87,-0.88,-0.95,-1.44,
1.494,-0.07,-0.03,0.86,-0.88,-0.95,-1.44,
1.496,-0.07,-0.03,0.85,-0.88,-0.95,-1.44,
1.503,-0.07,-0.03,0.85,-0.88,-0.95,-1.44,
1.504,-0.07,-0.03,0.85,-0.89,-0.89,-1.51,
1.504,-0.06,-0.02,0.84,-0.89,-0.89,-1.51,
1.504,-0.07,-0.01,0.84,-0.89,-0.89,-1.51,
1.505,-0.07,-0.01,0.84,-0.89,-0.85,-1.67,
1.506,-0.07,-0.01,0.84,-0.89,-0.85,-1.67,
1.509,-0.07,-0.01,0.84,-0.89,-0.85,-1.67,
1.509,-0.07,-0.01,0.84,-0.85,-0.74,-1.76,
1.511,-0.07,-0.01,0.84,-0.85,-0.74,-1.76,
1.515,-0.07,-0.01,0.84,-0.85,-0.74,-1.76,
1.516,-0.07,-0.01,0.84,-0.88,-0.72,-1.78,
1.516,-0.07,-0.00,0.85,-0.88,-0.72,-1.78,
1.519,-0.07,-0.00,0.85,-0.86,-0.70,-1.75,
1.519,-0.07,-0.01,0.85,-0.86,-0.70,-1.75,
1.521,-0.07,-0.01,0.85,-0.86,-0.70,-1.75,
1.524,-0.07,-0.00,0.86,-0.86,-0.70,-1.75,
1.524,-0.07,-0.00,0.86,-0.86,-0.67,-1.66,
1.526,-0.07,-0.01,0.86,-0.86,-0.67,-1.66,
1.529,-0.07,-0.01,0.87,-0.86,-0.67,-1.66,
1.529,-0.07,-0.01,0.87,-0.87,-0.65,-1.61,
1.532,-0.07,-0.01,0.88,-0.87,-0.65,-1.61,
1.534,-0.06,-0.02,0.88,-0.87,-0.65,-1.61,
1.534,-0.06,-0.02,0.88,-0.85,-0.71,-1.46,
1.536,-0.06,-0.02,0.89,-0.85,-0.71,-1.46,
1.539,-0.05,-0.02,0.90,-0.85,-0.71,-1.46,
1.539,-0.05,-0.02,0.90,-0.77,-0.77,-1.37,
1.541,-0.05,-0.03,0.90,-0.77,-0.77,-1.37,
1.544,-0.05,-0.03,0.90,-0.68,-0.83,-1.23,
1.544,-0.05,-0.03,0.91,-0.68,-0.83,-1.23,
1.546,-0.05,-0.03,0.92,-0.68,-0.83,-1.23,
1.55,-0.05,-0.03,0.92,-0.68,-0.83,-1.23,
1.55,-0.05,-0.03,0.92,-0.63,-0.90,-1.10,
1.551,-0.05,-0.03,0.92,-0.63,-0.90,-1.10,
1.553,-0.04,-0.03,0.93,-0.63,-0.90,-1.10,
1.554,-0.04,-0.03,0.93,-0.62,-0.89,-0.95,
1.556,-0.04,-0.03,0.94,-0.62,-0.89,-0.95,
1.558,-0.04,-0.03,0.94,-0.62,-0.89,-0.95,
1.559,-0.04,-0.03,0.94,-0.58,-0.89,-0.89,
1.561,-0.03,-0.03,0.93,-0.58,-0.89,-0.89,
1.564,-0.03,-0.03,0.94,-0.58,-0.89,-0.89,
1.565,-0.03,-0.03,0.94,-0.52,-0.89,-0.78,
1.567,-0.02,-0.03,0.93,-0.52,-0.89,-0.78,
1.568,-0.02,-0.03,0.93,-0.41,-0.93,-0.78,
1.568,-0.03,-0.02,0.93,-0.41,-0.93,-0.78,
1.571,-0.04,-0.01,0.92,-0.41,-0.93,-0.78,
1.573,-0.05,-0.01,0.91,-0.41,-0.93,-0.78,
1.574,-0.05,-0.01,0.91,-0.40,-0.87,-0.87,
1.576,-0.05,-0.01,0.91,-0.40,-0.87,-0.87,
1.578,-0.05,0.01,0.90,-0.40,-0.87,-0.87,
1.578,-0.05,0.01,0.90,-0.56,-0.77,-0.95,
1.582,-0.05,0.02,0.89,-0.56,-0.77,-0.95,
1.584,-0.05,0.02,0.87,-0.56,-0.77,-0.95,
1.584,-0.05,0.02,0.87,-0.57,-0.67,-1.10,
1.585,-0.05,0.02,0.86,-0.57,-0.67,-1.10,
1.588,-0.06,0.02,0.85,-0.57,-0.67,-1.10,
1.588,-0.06,0.02,0.85,-0.58,-0.52,-1.32,
1.59,-0.06,0.03,0.84,-0.58,-0.52,-1.32,
1.593,-0.06,0.03,0.84,-0.59,-0.46,-1.55,
1.593,-0.06,0.03,0.83,-0.59,-0.46,-1.55,
1.595,-0.06,0.03,0.82,-0.59,-0.46,-1.55,
1.603,-0.07,0.03,0.82,-0.59,-0.46,-1.55,
1.603,-0.07,0.03,0.82,-0.63,-0.42,-1.75,
1.603,-0.07,0.04,0.80,-0.63,-0.42,-1.75,
1.604,-0.07,0.04,0.80,-0.63,-0.42,-1.75,
1.604,-0.07,0.04,0.80,-0.65,-0.40,-1.92,
1.605,-0.07,0.04,0.80,-0.65,-0.40,-1.92,
1.608,-0.07,0.05,0.80,-0.65,-0.40,-1.92,
1.608,-0.07,0.05,0.80,-0.68,-0.36,-2.09,
1.611,-0.08,0.05,0.79,-0.68,-0.36,-2.09,
1.613,-0.08,0.05,0.79,-0.68,-0.36,-2.09,
1.613,-0.08,0.05,0.79,-0.70,-0.33,-2.09,
1.615,-0.08,0.05,0.80,-0.70,-0.33,-2.09,
1.618,-0.08,0.05,0.80,-0.75,-0.30,-2.13,
1.618,-0.08,0.05,0.80,-0.75,-0.30,-2.13,
1.62,-0.08,0.06,0.81,-0.75,-0.30,-2.13,
1.623,-0.09,0.05,0.81,-0.75,-0.30,-2.13,
1.623,-0.09,0.05,0.81,-0.79,-0.27,-2.08,
1.625,-0.09,0.06,0.82,-0.79,-0.27,-2.08,
1.628,-0.08,0.05,0.81,-0.79,-0.27,-2.08,
1.628,-0.08,0.05,0.81,-0.84,-0.26,-1.98,
1.63,-0.08,0.05,0.82,-0.84,-0.26,-1.98,
1.634,-0.07,0.05,0.82,-0.84,-0.26,-1.98,
1.634,-0.07,0.05,0.82,-0.84,-0.28,-1.90,
1.635,-0.07,0.04,0.83,-0.84,-0.28,-1.90,
1.638,-0.06,0.03,0.83,-0.84,-0.28,-1.90,
1.638,-0.06,0.03,0.83,-0.79,-0.35,-1.87,
1.64,-0.07,0.04,0.82,-0.79,-0.35,-1.87,
1.643,-0.07,0.04,0.82,-0.68,-0.48,-1.78,
1.643,-0.06,0.04,0.83,-0.68,-0.48,-1.78,
1.645,-0.07,0.04,0.83,-0.68,-0.48,-1.78,
1.649,-0.07,0.04,0.83,-0.68,-0.48,-1.78,
1.652,-0.07,0.04,0.83,-0.65,-0.42,-1.78,
1.653,-0.07,0.04,0.84,-0.65,-0.42,-1.78,
1.653,-0.07,0.04,0.84,-0.67,-0.46,-1.72,
1.653,-0.07,0.04,0.84,-0.67,-0.46,-1.72,
1.656,-0.06,0.05,0.84,-0.67,-0.46,-1.72,
1.658,-0.06,0.06,0.84,-0.67,-0.46,-1.72,
1.659,-0.06,0.06,0.84,-0.68,-0.46,-1.63,
1.66,-0.06,0.06,0.84,-0.68,-0.46,-1.63,
1.663,-0.07,0.06,0.84,-0.68,-0.46,-1.63,
1.663,-0.07,0.06,0.84,-0.66,-0.37,-1.61,
1.667,-0.07,0.07,0.83,-0.66,-0.37,-1.61,
1.667,-0.07,0.07,0.83,-0.66,-0.32,-1.65,
1.668,-0.06,0.07,0.83,-0.66,-0.32,-1.65,
1.67,-0.06,0.08,0.83,-0.66,-0.32,-1.65,
1.673,-0.06,0.09,0.83,-0.66,-0.32,-1.65,
1.673,-0.06,0.09,0.83,-0.64,-0.20,-1.71,
1.675,-0.06,0.10,0.83,-0.64,-0.20,-1.71,
1.678,-0.05,0.10,0.82,-0.64,-0.20,-1.71,
1.679,-0.05,0.10,0.82,-0.57,-0.06,-1.73,
1.679,-0.05,0.11,0.82,-0.57,-0.06,-1.73,
1.684,-0.05,0.11,0.81,-0.57,-0.06,-1.73,
1.685,-0.05,0.11,0.81,-0.56,0.05,-1.76,
1.685,-0.05,0.11,0.80,-0.56,0.05,-1.76,
1.688,-0.05,0.10,0.80,-0.56,0.05,-1.76,
1.688,-0.05,0.10,0.80,-0.51,0.11,-1.86,
1.69,-0.05,0.10,0.79,-0.51,0.11,-1.86,
1.692,-0.05,0.10,0.79,-0.46,0.07,-2.01,
1.693,-0.05,0.10,0.78,-0.46,0.07,-2.01,
1.694,-0.04,0.09,0.78,-0.46,0.07,-2.01,
1.697,-0.04,0.09,0.77,-0.46,0.07,-2.01,
1.697,-0.04,0.09,0.77,-0.46,-0.01,-2.14,
1.701,-0.05,0.09,0.77,-0.46,-0.01,-2.14,
1.702,-0.05,0.09,0.76,-0.46,-0.01,-2.14,
1.702,-0.05,0.09,0.76,-0.41,-0.08,-2.22,
1.704,-0.05,0.09,0.75,-0.41,-0.08,-2.22,
1.708,-0.06,0.09,0.75,-0.41,-0.08,-2.22,
1.708,-0.06,0.09,0.75,-0.44,-0.10,-2.31,
1.71,-0.06,0.09,0.75,-0.44,-0.10,-2.31,
1.712,-0.06,0.09,0.75,-0.44,-0.10,-2.31,
1.713,-0.06,0.09,0.75,-0.48,-0.15,-2.44,
1.715,-0.05,0.09,0.75,-0.48,-0.15,-2.44,
1.72,-0.06,0.09,0.75,-0.48,-0.15,-2.44,
1.72,-0.06,0.09,0.75,-0.51,-0.14,-2.44,
1.72,-0.05,0.09,0.75,-0.51,-0.14,-2.44,
1.723,-0.05,0.09,0.75,-0.51,-0.14,-2.44,
1.723,-0.05,0.09,0.75,-0.49,-0.15,-2.43,
1.725,-0.04,0.10,0.75,-0.49,-0.15,-2.43,
1.727,-0.04,0.10,0.75,-0.49,-0.15,-2.43,
1.728,-0.04,0.10,0.75,-0.42,-0.12,-2.42,
1.73,-0.03,0.10,0.76,-0.42,-0.12,-2.42,
1.734,-0.03,0.10,0.76,-0.34,-0.10,-2.40,
1.734,-0.02,0.11,0.76,-0.34,-0.10,-2.40,
1.734,-0.02,0.11,0.77,-0.34,-0.10,-2.40,
1.737,-0.02,0.11,0.77,-0.20,-0.03,-2.32,
1.737,-0.01,0.11,0.78,-0.20,-0.03,-2.32,
1.74,-0.01,0.11,0.79,-0.20,-0.03,-2.32,
1.743,-0.01,0.11,0.79,-0.10,0.00,-2.19,
1.743,-0.01,0.12,0.80,-0.10,0.00,-2.19,
1.744,-0.01,0.12,0.80,-0.10,0.00,-2.19,
1.747,-0.01,0.11,0.81,-0.10,0.00,-2.19,
1.747,-0.01,0.11,0.81,-0.05,0.05,-1.99,
1.75,-0.01,0.12,0.82,-0.05,0.05,-1.99,
1.752,-0.01,0.11,0.83,-0.05,0.05,-1.99,
1.752,-0.01,0.11,0.83,-0.01,0.07,-1.85,
1.754,-0.01,0.11,0.84,-0.01,0.07,-1.85,
1.757,-0.01,0.11,0.84,-0.02,0.06,-1.69,
1.758,-0.01,0.11,0.85,-0.02,0.06,-1.69,
1.759,-0.01,0.11,0.85,-0.02,0.06,-1.69,
1.762,-0.01,0.11,0.85,-0.02,0.06,-1.69,
1.762,-0.01,0.11,0.85,-0.03,0.02,-1.51,
1.764,-0.01,0.11,0.86,-0.03,0.02,-1.51,
1.766,-0.01,0.10,0.86,-0.03,0.02,-1.51,
1.767,-0.01,0.10,0.86,-0.03,0.01,-1.43,
1.769,-0.01,0.10,0.86,-0.03,0.01,-1.43,
1.772,-0.01,0.10,0.86,-0.03,0.01,-1.43,
1.772,-0.01,0.10,0.86,-0.03,-0.03,-1.30,
1.774,-0.01,0.10,0.87,-0.03,-0.03,-1.30,
1.777,-0.01,0.10,0.87,-0.03,-0.03,-1.30,
1.777,-0.01,0.10,0.87,-0.10,-0.08,-1.31,
1.779,-0.01,0.10,0.87,-0.10,-0.08,-1.31,
1.782,-0.00,0.10,0.87,-0.10,-0.08,-1.31,
1.782,-0.00,0.10,0.87,-0.07,-0.10,-1.24,
1.784,-0.01,0.10,0.87,-0.07,-0.10,-1.24,
1.787,-0.01,0.10,0.87,-0.07,-0.10,-1.24,
1.787,-0.01,0.10,0.87,-0.04,-0.11,-1.22,
1.789,-0.01,0.10,0.87,-0.04,-0.11,-1.22,
1.792,-0.01,0.10,0.87,-0.06,-0.13,-1.20,
1.792,-0.01,0.09,0.88,-0.06,-0.13,-1.20,
1.793,-0.01,0.09,0.88,-0.06,-0.13,-1.20,
1.797,-0.01,0.10,0.88,-0.06,-0.13,-1.20,
1.797,-0.01,0.10,0.88,-0.06,-0.15,-1.17,
1.799,-0.01,0.09,0.89,-0.06,-0.15,-1.17,
1.804,-0.01,0.09,0.89,-0.06,-0.15,-1.17,
1.804,-0.01,0.09,0.89,-0.10,-0.13,-1.11,
1.805,-0.01,0.09,0.90,-0.10,-0.13,-1.11,
1.806,-0.01,0.09,0.90,-0.10,-0.13,-1.11,
1.806,-0.01,0.09,0.90,-0.09,-0.15,-1.03,
1.809,-0.01,0.09,0.91,-0.09,-0.15,-1.03,
1.812,-0.02,0.09,0.92,-0.09,-0.15,-1.03,
1.812,-0.02,0.09,0.92,-0.11,-0.14,-0.90,
1.815,-0.01,0.09,0.92,-0.11,-0.14,-0.90,
1.817,-0.01,0.09,0.92,-0.16,-0.15,-0.77,
1.818,-0.02,0.09,0.93,-0.16,-0.15,-0.77,
1.818,-0.02,0.09,0.94,-0.16,-0.15,-0.77,
1.821,-0.03,0.09,0.95,-0.16,-0.15,-0.77,
1.821,-0.03,0.09,0.95,-0.17,-0.16,-0.62,
1.823,-0.03,0.09,0.95,-0.17,-0.16,-0.62,
1.826,-0.02,0.09,0.96,-0.17,-0.16,-0.62,
1.826,-0.02,0.09,0.96,-0.25,-0.20,-0.47,
1.828,-0.03,0.09,0.97,-0.25,-0.20,-0.47,
1.831,-0.03,0.09,0.98,-0.25,-0.20,-0.47,
1.831,-0.03,0.09,0.98,-0.27,-0.16,-0.33,
1.833,-0.03,0.09,0.99,-0.27,-0.16,-0.33,
1.836,-0.03,0.09,0.99,-0.27,-0.16,-0.33,
1.836,-0.03,0.09,0.99,-0.30,-0.11,-0.18,
1.838,-0.03,0.10,1.00,-0.30,-0.11,-0.18,
1.841,-0.03,0.10,1.00,-0.31,-0.11,-0.05,
1.841,-0.03,0.10,1.00,-0.31,-0.11,-0.05,
1.843,-0.03,0.10,1.00,-0.31,-0.11,-0.05,
1.846,-0.03,0.10,1.01,-0.31,-0.11,-0.05,
1.846,-0.03,0.10,1.01,-0.30,-0.06,0.05,
1.848,-0.03,0.10,1.01,-0.30,-0.06,0.05,
1.851,-0.02,0.10,1.00,-0.30,-0.06,0.05,
1.852,-0.02,0.10,1.00,-0.29,-0.03,0.10,
1.853,-0.02,0.10,1.00,-0.29,-0.03,0.10,
1.855,-0.01,0.10,1.00,-0.29,-0.03,0.10,
1.856,-0.01,0.10,1.00,-0.24,-0.02,0.11,
1.858,-0.01,0.10,0.99,-0.24,-0.02,0.11,
1.86,-0.00,0.10,0.99,-0.24,-0.02,0.11,
1.86,-0.00,0.10,0.99,-0.18,0.01,0.05,
1.862,-0.01,0.11,0.99,-0.18,0.01,0.05,
1.867,-0.01,0.11,0.99,-0.10,0.02,-0.01,
1.867,-0.01,0.11,0.99,-0.10,0.02,-0.01,
1.867,-0.01,0.11,0.98,-0.10,0.02,-0.01,
1.87,-0.00,0.11,0.98,-0.10,0.02,-0.01,
1.871,-0.00,0.11,0.98,-0.10,0.05,-0.04,
1.873,-0.01,0.11,0.98,-0.10,0.05,-0.04,
1.875,-0.01,0.11,0.97,-0.10,0.05,-0.04,
1.875,-0.01,0.11,0.97,-0.09,0.06,-0.11,
1.877,-0.01,0.11,0.96,-0.09,0.06,-0.11,
1.88,-0.01,0.11,0.96,-0.09,0.06,-0.11,
1.88,-0.01,0.11,0.96,-0.11,0.06,-0.16,
1.883,-0.01,0.11,0.96,-0.11,0.06,-0.16,
1.885,-0.01,0.11,0.95,-0.11,0.06,-0.16,
1.885,-0.01,0.11,0.95,-0.14,0.07,-0.29,
1.888,-0.02,0.11,0.95,-0.14,0.07,-0.29,
1.891,-0.02,0.11,0.95,-0.15,0.07,-0.33,
1.891,-0.02,0.11,0.95,-0.15,0.07,-0.33,
1.893,-0.01,0.11,0.94,-0.15,0.07,-0.33,
1.896,-0.01,0.11,0.94,-0.15,0.07,-0.33,
1.896,-0.01,0.11,0.94,-0.18,0.07,-0.43,
1.898,-0.01,0.11,0.94,-0.18,0.07,-0.43,
1.904,-0.01,0.11,0.94,-0.18,0.07,-0.43,
1.904,-0.01,0.11,0.94,-0.13,0.04,-0.49,
1.904,-0.01,0.11,0.95,-0.13,0.04,-0.49,
1.906,-0.01,0.12,0.94,-0.13,0.04,-0.49,
1.907,-0.01,0.12,0.94,-0.11,0.04,-0.47,
1.908,-0.01,0.12,0.95,-0.11,0.04,-0.47,
1.91,-0.00,0.12,0.94,-0.11,0.04,-0.47,
1.91,-0.00,0.12,0.94,-0.10,0.10,-0.47,
1.913,-0.00,0.12,0.94,-0.10,0.10,-0.47,
1.917,-0.00,0.12,0.94,-0.09,0.13,-0.44,
1.917,0.00,0.12,0.96,-0.09,0.13,-0.44,
1.918,-0.00,0.12,0.95,-0.09,0.13,-0.44,
1.92,0.00,0.12,0.96,-0.09,0.13,-0.44,
1.92,0.00,0.12,0.96,-0.05,0.13,-0.41,
1.923,0.00,0.12,0.96,-0.05,0.13,-0.41,
1.926,0.00,0.13,0.96,-0.05,0.13,-0.41,
1.926,0.00,0.13,0.96,-0.05,0.15,-0.35,
1.928,0.00,0.13,0.96,-0.05,0.15,-0.35,
1.93,0.00,0.13,0.97,-0.05,0.15,-0.35,
1.931,0.00,0.13,0.97,-0.02,0.18,-0.32,
1.932,0.00,0.13,0.96,-0.02,0.18,-0.32,
1.936,0.01,0.13,0.96,-0.02,0.18,-0.32,
1.937,0.01,0.13,0.96,-0.02,0.21,-0.28,
1.937,0.01,0.13,0.97,-0.02,0.21,-0.28,
1.94,0.01,0.13,0.97,-0.03,0.24,-0.29,
1.94,0.00,0.13,0.97,-0.03,0.24,-0.29,
1.943,0.00,0.14,0.98,-0.03,0.24,-0.29,
1.945,0.00,0.13,0.98,-0.03,0.24,-0.29,
1.946,0.00,0.13,0.98,-0.02,0.25,-0.19,
1.948,-0.00,0.13,0.98,-0.02,0.25,-0.19,
1.95,-0.00,0.13,0.99,-0.02,0.25,-0.19,
1.951,-0.00,0.13,0.99,-0.04,0.27,-0.14,
1.953,-0.00,0.13,0.99,-0.04,0.27,-0.14,
1.955,-0.00,0.12,1.00,-0.04,0.27,-0.14,
1.955,-0.00,0.12,1.00,-0.08,0.24,-0.08,
1.957,-0.01,0.13,1.01,-0.08,0.24,-0.08,
1.96,-0.01,0.12,1.01,-0.08,0.24,-0.08,
1.96,-0.01,0.12,1.01,-0.09,0.21,0.01,
1.962,-0.01,0.12,1.01,-0.09,0.21,0.01,
1.965,-0.01,0.12,1.01,-0.16,0.21,0.18,
1.965,-0.01,0.12,1.02,-0.16,0.21,0.18,
1.968,-0.01,0.12,1.03,-0.16,0.21,0.18,
1.97,-0.01,0.12,1.03,-0.16,0.21,0.18,
1.97,-0.01,0.12,1.03,-0.17,0.17,0.28,
1.972,-0.01,0.11,1.03,-0.17,0.17,0.28,
1.975,-0.01,0.11,1.04,-0.17,0.17,0.28,
1.975,-0.01,0.11,1.04,-0.16,0.16,0.35,
1.977,-0.01,0.11,1.04,-0.16,0.16,0.35,
1.981,-0.01,0.11,1.04,-0.16,0.16,0.35,
1.982,-0.01,0.11,1.04,-0.18,0.11,0.44,
1.982,-0.00,0.10,1.04,-0.18,0.11,0.44,
1.985,-0.00,0.10,1.04,-0.16,0.06,0.51,
1.986,0.00,0.11,1.04,-0.16,0.06,0.51,
1.987,0.01,0.10,1.04,-0.16,0.06,0.51,
1.99,0.01,0.11,1.04,-0.16,0.06,0.51,
1.99,0.01,0.11,1.04,-0.07,0.04,0.47,
1.992,0.01,0.10,1.03,-0.07,0.04,0.47,
1.994,0.02,0.10,1.03,-0.07,0.04,0.47,
1.995,0.02,0.10,1.03,0.00,0.04,0.47,
1.996,0.02,0.10,1.03,0.00,0.04,0.47,
2.004,0.01,0.10,1.02,0.00,0.04,0.47,
2.005,0.01,0.10,1.02,0.07,0.03,0.37,
2.005,0.01,0.09,1.02,0.07,0.03,0.37,
2.005,0.01,0.09,1.02,0.11,-0.01,0.31,
2.005,0.02,0.10,1.01,0.11,-0.01,0.31,
2.006,0.01,0.10,1.01,0.11,-0.01,0.31,
2.01,0.01,0.10,1.01,0.09,-0.03,0.23,
2.01,0.01,0.10,1.01,0.09,-0.03,0.23,
2.011,0.01,0.10,1.01,0.09,-0.03,0.23,
2.014,0.01,0.10,1.01,0.05,-0.01,0.17,
2.014,0.01,0.10,1.01,0.05,-0.01,0.17,
2.017,0.00,0.10,1.01,0.05,-0.01,0.17,
2.02,0.00,0.10,1.02,0.05,-0.01,0.17,
2.02,0.00,0.10,1.02,0.02,-0.00,0.18,
2.021,-0.00,0.10,1.01,0.02,-0.00,0.18,
2.025,-0.00,0.10,1.01,0.02,-0.00,0.18,
2.025,-0.00,0.10,1.01,-0.04,0.01,0.21,
2.027,-0.00,0.10,1.02,-0.04,0.01,0.21,
2.029,-0.00,0.10,1.02,-0.04,0.01,0.21,
2.029,-0.00,0.10,1.02,-0.07,0.01,0.20,
2.032,-0.00,0.10,1.02,-0.07,0.01,0.20,
2.034,-0.00,0.10,1.02,-0.07,0.01,0.20,
2.034,-0.00,0.10,1.02,-0.09,0.00,0.25,
2.037,-0.01,0.10,1.03,-0.09,0.00,0.25,
2.039,-0.01,0.10,1.03,-0.09,-0.04,0.23,
2.039,-0.00,0.10,1.02,-0.09,-0.04,0.23,
2.042,-0.01,0.10,1.02,-0.09,-0.04,0.23,
2.043,-0.00,0.10,1.03,-0.09,-0.04,0.23,
2.044,-0.00,0.10,1.03,-0.12,-0.03,0.30,
2.046,-0.00,0.10,1.02,-0.12,-0.03,0.30,
2.049,-0.01,0.10,1.02,-0.12,-0.03,0.30,
2.049,-0.01,0.10,1.02,-0.09,-0.05,0.31,
2.052,-0.01,0.10,1.02,-0.09,-0.05,0.31,
2.054,-0.01,0.10,1.02,-0.09,-0.05,0.31,
2.054,-0.01,0.10,1.02,-0.09,-0.03,0.30,
2.056,-0.01,0.10,1.01,-0.09,-0.03,0.30,
2.059,-0.01,0.10,1.02,-0.09,-0.03,0.30,
2.059,-0.01,0.10,1.02,-0.11,-0.03,0.24,
2.061,-0.01,0.11,1.01,-0.11,-0.03,0.24,
2.063,-0.01,0.11,1.01,-0.14,-0.03,0.23,
2.064,-0.01,0.11,1.01,-0.14,-0.03,0.23,
2.066,-0.01,0.11,1.01,-0.14,-0.03,0.23,
2.07,-0.01,0.10,1.01,-0.14,-0.03,0.23,
2.071,-0.01,0.10,1.01,-0.13,0.02,0.18,
2.071,-0.01,0.10,1.01,-0.13,0.02,0.18,
2.074,0.00,0.11,1.01,-0.13,0.02,0.18,
2.074,0.00,0.11,1.01,-0.13,0.02,0.15,
2.076,0.00,0.11,1.01,-0.13,0.02,0.15,
2.079,0.00,0.11,1.01,-0.06,0.01,0.15,
2.079,-0.00,0.11,1.01,-0.06,0.01,0.15,
2.081,0.00,0.11,1.02,-0.06,0.01,0.15,
2.088,-0.00,0.11,1.02,-0.06,0.01,0.15,
2.089,-0.00,0.11,1.02,-0.03,0.03,0.18,
2.089,0.00,0.11,1.03,-0.03,0.03,0.18,
2.09,0.00,0.11,1.03,-0.02,0.06,0.25,
2.09,0.00,0.11,1.03,-0.02,0.06,0.25,
2.091,-0.00,0.11,1.04,-0.02,0.06,0.25,
2.093,-0.00,0.11,1.05,-0.02,0.06,0.25,
2.094,-0.00,0.11,1.05,0.00,0.06,0.38,
2.095,0.00,0.11,1.05,0.00,0.06,0.38,
2.099,-0.00,0.11,1.05,0.00,0.06,0.38,
2.099,-0.00,0.11,1.05,-0.05,0.03,0.54,
2.101,-0.00,0.10,1.05,-0.05,0.03,0.54,
2.103,-0.00,0.09,1.05,-0.05,0.03,0.54,
2.103,-0.00,0.09,1.05,-0.01,0.01,0.57,
2.106,-0.00,0.09,1.04,-0.01,0.01,0.57,
2.109,-0.00,0.09,1.04,-0.05,-0.09,0.55,
2.109,-0.01,0.10,1.01,-0.05,-0.09,0.55,
2.111,0.01,0.10,0.98,-0.05,-0.09,0.55,
2.114,0.01,0.10,0.98,-0.06,-0.09,0.33,
2.114,0.02,0.10,0.95,-0.06,-0.09,0.33,
2.116,0.02,0.10,0.93,-0.06,-0.09,0.33,
2.118,0.02,0.09,0.94,-0.06,-0.09,0.33,
2.118,0.02,0.09,0.94,0.11,-0.07,-0.28,
2.12,0.01,0.09,0.96,0.11,-0.07,-0.28,
2.123,-0.00,0.10,0.96,0.11,-0.07,-0.28,
2.123,-0.00,0.10,0.96,0.17,-0.13,-0.55,
2.126,-0.01,0.10,0.96,0.17,-0.13,-0.55,
2.128,-0.02,0.10,0.95,0.17,-0.13,-0.55,
2.129,-0.02,0.10,0.95,0.01,-0.14,-0.34,
2.13,-0.02,0.10,0.95,0.01,-0.14,-0.34,
2.136,-0.02,0.10,0.95,-0.14,-0.13,-0.37,
2.136,-0.02,0.10,0.93,-0.14,-0.13,-0.37,
2.137,-0.02,0.11,0.92,-0.14,-0.13,-0.37,
2.138,-0.02,0.11,0.92,-0.18,-0.09,-0.51,
2.139,-0.02,0.11,0.92,-0.18,-0.09,-0.51,
2.14,-0.02,0.11,0.92,-0.18,-0.09,-0.51,
2.143,-0.02,0.10,0.92,-0.18,-0.09,-0.51,
2.145,-0.02,0.10,0.92,-0.20,-0.03,-0.67,
2.146,-0.01,0.10,0.92,-0.20,-0.03,-0.67,
2.147,-0.01,0.11,0.92,-0.20,-0.03,-0.67,
2.148,-0.01,0.11,0.92,-0.14,-0.06,-0.70,
2.155,-0.01,0.11,0.92,-0.14,-0.06,-0.70,
2.156,-0.01,0.11,0.93,-0.14,-0.06,-0.70,
2.156,-0.01,0.11,0.93,-0.06,-0.03,-0.68,
2.156,-0.01,0.12,0.93,-0.06,-0.03,-0.68,
2.157,-0.01,0.12,0.93,-0.06,-0.03,-0.68,
2.158,-0.01,0.12,0.93,-0.06,-0.00,-0.63,
2.16,-0.01,0.12,0.94,-0.06,-0.00,-0.63,
2.163,-0.01,0.12,0.94,-0.08,0.08,-0.57,
2.164,-0.00,0.12,0.95,-0.08,0.08,-0.57,
2.164,0.00,0.12,0.95,-0.08,0.08,-0.57,
2.172,0.00,0.13,0.97,-0.08,0.08,-0.57,
2.173,0.00,0.13,0.97,-0.04,0.09,-0.47,
2.173,-0.00,0.13,0.99,-0.04,0.09,-0.47,
2.173,-0.01,0.13,1.00,-0.04,0.09,-0.47,
2.173,-0.01,0.13,1.00,0.04,0.17,-0.28,
2.188,-0.02,0.13,1.02,0.04,0.17,-0.28,
2.189,-0.02,0.13,1.02,-0.00,0.19,0.00,
2.189,-0.02,0.13,1.04,-0.00,0.19,0.00,
2.189,-0.01,0.14,1.05,-0.00,0.19,0.00,
2.189,0.00,0.14,1.06,-0.00,0.19,0.00,
2.19,0.00,0.14,1.06,-0.15,0.22,0.33,
2.19,0.02,0.14,1.06,-0.15,0.22,0.33,
2.19,0.02,0.14,1.06,-0.01,0.33,0.58,
2.19,0.03,0.13,1.08,-0.01,0.33,0.58,
2.19,0.04,0.14,1.08,-0.01,0.33,0.58,
2.192,0.06,0.13,1.07,-0.01,0.33,0.58,
2.192,0.06,0.13,1.07,0.24,0.30,0.77,
2.194,0.07,0.13,1.08,0.24,0.30,0.77,
2.197,0.07,0.13,1.07,0.24,0.30,0.77,
2.197,0.07,0.13,1.07,0.50,0.29,0.83,
2.206,0.07,0.13,1.07,0.50,0.29,0.83,
2.207,0.07,0.13,1.06,0.50,0.29,0.83,
2.207,0.07,0.13,1.06,0.68,0.23,0.80,
2.207,0.07,0.13,1.05,0.68,0.23,0.80,
2.207,0.06,0.13,1.04,0.68,0.23,0.80,
2.208,0.06,0.13,1.04,0.70,0.22,0.68,
2.21,0.05,0.13,1.04,0.70,0.22,0.68,
2.212,0.04,0.12,1.03,0.70,0.22,0.68,
2.213,0.04,0.12,1.03,0.62,0.19,0.50,
2.214,0.03,0.12,1.01,0.62,0.19,0.50,
2.229,0.03,0.12,1.00,0.62,0.19,0.50,
2.23,0.03,0.12,1.00,0.42,0.13,0.38,
2.23,0.02,0.13,0.99,0.42,0.13,0.38,
2.23,0.01,0.12,0.98,0.42,0.13,0.38,
2.23,0.01,0.12,0.98,0.29,0.11,0.12,
2.231,-0.00,0.13,0.97,0.29,0.11,0.12,
2.231,-0.01,0.12,0.96,0.29,0.11,0.12,
2.231,-0.01,0.12,0.96,0.12,0.09,-0.11,
2.231,-0.01,0.12,0.96,0.12,0.09,-0.11,
