
time,gFx,gFy,gFz,ax,ay,az,
0.004,0.02,0.18,0.99,-0.23,-0.22,0.23,
0.004,0.02,0.18,0.98,-0.23,-0.22,0.23,
0.004,0.02,0.18,0.98,-0.17,-0.17,0.18,
0.004,0.02,0.18,0.99,-0.17,-0.17,0.18,
0.004,0.02,0.19,0.98,-0.17,-0.17,0.18,
0.004,0.02,0.19,0.98,-0.06,-0.09,0.05,
0.013,0.02,0.19,0.98,-0.06,-0.09,0.05,
0.013,0.02,0.20,0.98,-0.06,-0.09,0.05,
0.013,0.02,0.20,0.98,-0.06,-0.03,0.03,
0.014,0.03,0.20,0.97,-0.06,-0.03,0.03,
0.014,0.04,0.21,0.96,-0.06,-0.03,0.03,
0.014,0.04,0.21,0.96,-0.03,0.04,0.01,
0.016,0.05,0.23,0.90,-0.03,0.04,0.01,
0.019,0.04,0.23,0.90,-0.03,0.04,0.01,
0.019,0.04,0.23,0.90,0.08,0.13,-0.13,
0.021,0.06,0.22,0.93,0.08,0.13,-0.13,
0.029,0.06,0.21,0.97,0.08,0.13,-0.13,
0.029,0.06,0.21,0.97,0.17,0.39,-0.81,
0.03,0.06,0.21,1.00,0.17,0.39,-0.81,
0.03,0.06,0.20,1.02,0.17,0.39,-0.81,
0.03,0.06,0.20,1.02,0.31,0.24,-0.28,
0.032,0.06,0.19,1.04,0.31,0.24,-0.28,
0.034,0.06,0.18,1.04,0.31,0.24,-0.28,
0.034,0.06,0.18,1.04,0.32,0.11,0.30,
0.036,0.06,0.17,1.03,0.32,0.11,0.30,
0.038,0.05,0.16,1.04,0.32,0.11,0.30,
0.038,0.05,0.16,1.04,0.35,-0.07,0.54,
0.046,0.05,0.16,1.03,0.35,-0.07,0.54,
0.047,0.04,0.16,1.03,0.35,-0.07,0.54,
0.047,0.04,0.16,1.03,0.30,-0.21,0.52,
0.047,0.03,0.15,1.02,0.30,-0.21,0.52,
0.048,0.03,0.15,1.01,0.30,-0.21,0.52,
0.048,0.03,0.15,1.01,0.18,-0.27,0.45,
0.052,0.02,0.15,1.00,0.18,-0.27,0.45,
0.054,0.01,0.15,1.00,0.18,-0.27,0.45,
0.054,0.01,0.15,1.00,0.06,-0.33,0.30,
0.064,0.01,0.15,0.99,0.06,-0.33,0.30,
0.065,0.00,0.16,0.99,0.06,-0.33,0.30,
0.065,0.00,0.16,0.99,-0.04,-0.29,0.14,
0.065,0.01,0.16,0.97,-0.04,-0.29,0.14,
0.066,0.01,0.17,0.96,-0.04,-0.29,0.14,
0.066,0.01,0.17,0.96,-0.10,-0.27,0.05,
0.066,0.04,0.20,0.93,-0.10,-0.27,0.05,
0.068,0.07,0.23,0.90,-0.10,-0.27,0.05,
0.069,0.07,0.23,0.90,-0.05,-0.13,-0.20,
0.071,0.06,0.23,0.91,-0.05,-0.13,-0.20,
0.079,0.05,0.22,0.92,-0.05,-0.13,-0.20,
0.079,0.05,0.22,0.92,0.38,0.35,-0.70,
0.08,0.04,0.22,0.93,0.38,0.35,-0.70,
0.08,0.03,0.22,0.94,0.38,0.35,-0.70,
0.08,0.03,0.22,0.94,0.38,0.44,-0.71,
0.08,0.03,0.21,0.95,0.38,0.44,-0.71,
0.083,0.03,0.21,0.96,0.38,0.44,-0.71,
0.084,0.03,0.21,0.96,0.26,0.45,-0.52,
0.086,0.03,0.20,0.97,0.26,0.45,-0.52,
0.088,0.03,0.20,0.98,0.26,0.45,-0.52,
0.088,0.03,0.20,0.98,0.20,0.37,-0.32,
0.099,0.03,0.19,0.99,0.20,0.37,-0.32,
0.1,0.04,0.19,1.00,0.20,0.37,-0.32,
0.1,0.04,0.19,1.00,0.17,0.28,-0.09,
0.1,0.04,0.18,1.01,0.17,0.28,-0.09,
0.1,0.04,0.18,1.01,0.19,0.16,0.11,
0.1,0.05,0.17,1.01,0.19,0.16,0.11,
0.101,0.05,0.17,1.02,0.19,0.16,0.11,
0.103,0.06,0.16,1.03,0.19,0.16,0.11,
0.103,0.06,0.16,1.03,0.27,0.06,0.27,
0.105,0.06,0.16,1.03,0.27,0.06,0.27,
0.112,0.06,0.16,1.03,0.27,0.06,0.27,
0.113,0.06,0.16,1.03,0.39,-0.07,0.37,
0.113,0.07,0.16,1.03,0.39,-0.07,0.37,
0.113,0.08,0.16,1.04,0.39,-0.07,0.37,
0.114,0.08,0.16,1.04,0.43,-0.10,0.45,
0.116,0.08,0.17,1.04,0.43,-0.10,0.45,
0.118,0.08,0.18,1.04,0.43,-0.10,0.45,
0.118,0.08,0.18,1.04,0.54,-0.14,0.49,
0.121,0.08,0.18,1.04,0.54,-0.14,0.49,
0.13,0.08,0.18,1.04,0.54,-0.14,0.49,
0.131,0.08,0.18,1.04,0.58,-0.00,0.50,
0.131,0.07,0.19,1.04,0.58,-0.00,0.50,
0.131,0.07,0.19,1.04,0.58,-0.00,0.50,
0.131,0.07,0.19,1.04,0.56,0.06,0.56,
0.132,0.06,0.19,1.04,0.56,0.06,0.56,
0.133,0.06,0.19,1.04,0.49,0.12,0.52,
0.133,0.05,0.19,1.03,0.49,0.12,0.52,
0.135,0.05,0.19,1.03,0.49,0.12,0.52,
0.138,0.05,0.19,1.02,0.49,0.12,0.52,
0.138,0.05,0.19,1.02,0.36,0.16,0.48,
0.145,0.05,0.19,1.02,0.36,0.16,0.48,
0.146,0.05,0.19,1.01,0.36,0.16,0.48,
0.146,0.05,0.19,1.01,0.31,0.13,0.35,
0.146,0.04,0.19,1.00,0.31,0.13,0.35,
0.148,0.04,0.20,0.99,0.31,0.13,0.35,
0.148,0.04,0.20,0.99,0.27,0.14,0.23,
0.149,0.03,0.19,1.00,0.27,0.14,0.23,
0.152,0.03,0.19,0.99,0.27,0.14,0.23,
0.152,0.03,0.19,0.99,0.18,0.14,0.10,
0.162,0.02,0.19,0.98,0.18,0.14,0.10,
0.162,0.02,0.19,0.97,0.18,0.14,0.10,
0.163,0.02,0.19,0.97,0.07,0.11,0.07,
0.163,0.01,0.20,0.97,0.07,0.11,0.07,
0.165,0.00,0.19,0.96,0.07,0.11,0.07,
0.165,0.00,0.19,0.96,0.01,0.10,-0.10,
0.165,0.00,0.20,0.96,0.01,0.10,-0.10,
0.167,-0.00,0.20,0.96,0.01,0.10,-0.10,
0.167,-0.00,0.20,0.96,-0.12,0.11,-0.18,
0.169,-0.01,0.20,0.96,-0.12,0.11,-0.18,
0.182,-0.01,0.20,0.96,-0.18,0.10,-0.26,
0.183,-0.01,0.20,0.96,-0.18,0.10,-0.26,
0.183,-0.01,0.20,0.96,-0.18,0.10,-0.26,
0.183,-0.01,0.19,0.95,-0.18,0.10,-0.26,
0.184,-0.01,0.19,0.95,-0.24,0.10,-0.27,
0.184,-0.01,0.19,0.96,-0.24,0.10,-0.27,
0.184,-0.00,0.20,0.96,-0.24,0.10,-0.27,
0.185,-0.00,0.20,0.96,-0.26,0.07,-0.28,
0.185,-0.00,0.20,0.97,-0.26,0.07,-0.28,
0.186,0.01,0.19,0.96,-0.26,0.07,-0.28,
0.187,0.01,0.19,0.96,-0.23,0.07,-0.25,
0.2,0.01,0.19,0.96,-0.23,0.07,-0.25,
0.2,0.01,0.19,0.97,-0.23,0.07,-0.25,
0.201,0.01,0.19,0.97,-0.16,0.04,-0.21,
0.201,0.02,0.19,0.96,-0.16,0.04,-0.21,
0.202,0.02,0.19,0.96,-0.16,0.04,-0.21,
0.202,0.02,0.19,0.96,-0.10,-0.02,-0.18,
0.202,0.02,0.18,0.96,-0.10,-0.02,-0.18,
0.202,0.02,0.18,0.95,-0.10,-0.02,-0.18,
0.203,0.02,0.18,0.95,0.02,-0.03,-0.19,
0.204,0.02,0.18,0.95,0.02,-0.03,-0.19,
0.214,0.02,0.18,0.95,0.02,-0.03,-0.19,
0.215,0.02,0.18,0.95,0.02,-0.09,-0.26,
0.215,0.02,0.18,0.95,0.02,-0.09,-0.26,
0.215,0.02,0.18,0.94,0.02,-0.09,-0.26,
0.215,0.02,0.18,0.94,0.04,-0.10,-0.28,
0.216,0.02,0.18,0.94,0.04,-0.10,-0.28,
0.217,0.02,0.19,0.93,0.04,-0.10,-0.28,
0.217,0.02,0.19,0.93,0.02,-0.11,-0.40,
0.219,0.02,0.19,0.93,0.02,-0.11,-0.40,
0.221,0.01,0.19,0.93,0.02,-0.11,-0.40,
0.221,0.01,0.19,0.93,0.01,-0.07,-0.47,
0.231,0.01,0.19,0.92,0.01,-0.07,-0.47,
0.232,0.01,0.19,0.91,0.01,-0.07,-0.47,
0.232,0.01,0.19,0.91,-0.05,-0.05,-0.55,
0.232,0.01,0.19,0.91,-0.05,-0.05,-0.55,
0.232,0.01,0.19,0.91,-0.05,-0.05,-0.55,
0.233,0.01,0.19,0.91,-0.08,-0.05,-0.63,
0.234,0.01,0.19,0.90,-0.08,-0.05,-0.63,
0.236,0.02,0.19,0.92,-0.08,-0.05,-0.63,
0.236,0.02,0.19,0.92,-0.08,-0.04,-0.68,
0.245,0.02,0.19,0.92,-0.08,-0.04,-0.68,
0.246,0.03,0.20,0.92,-0.08,-0.04,-0.68,
0.246,0.03,0.20,0.92,0.00,-0.01,-0.66,
0.246,0.03,0.20,0.92,0.00,-0.01,-0.66,
0.246,0.03,0.20,0.92,0.08,0.03,-0.60,
0.247,0.03,0.20,0.93,0.08,0.03,-0.60,
0.248,0.03,0.20,0.94,0.08,0.03,-0.60,
0.251,0.03,0.20,0.94,0.08,0.03,-0.60,
0.252,0.03,0.20,0.94,0.13,0.11,-0.52,
0.253,0.03,0.21,0.95,0.13,0.11,-0.52,
0.261,0.03,0.20,0.95,0.13,0.11,-0.52,
0.261,0.03,0.20,0.95,0.14,0.10,-0.38,
0.262,0.03,0.20,0.96,0.14,0.10,-0.38,
0.262,0.03,0.20,0.96,0.14,0.10,-0.38,
0.262,0.03,0.20,0.96,0.15,0.11,-0.30,
0.263,0.03,0.20,0.96,0.15,0.11,-0.30,
0.266,0.03,0.19,0.97,0.15,0.11,-0.30,
0.266,0.03,0.19,0.97,0.10,0.06,-0.16,
0.269,0.02,0.19,0.96,0.10,0.06,-0.16,
0.271,0.02,0.19,0.96,0.11,0.03,-0.14,
0.271,0.02,0.19,0.97,0.11,0.03,-0.14,
0.277,0.02,0.19,0.96,0.11,0.03,-0.14,
0.278,0.02,0.18,0.97,0.11,0.03,-0.14,
0.278,0.02,0.18,0.97,0.07,-0.00,-0.11,
0.279,0.02,0.18,0.97,0.07,-0.00,-0.11,
0.281,0.02,0.18,0.97,0.04,-0.08,-0.13,
0.281,0.02,0.17,0.97,0.04,-0.08,-0.13,
0.283,0.02,0.17,0.97,0.04,-0.08,-0.13,
0.285,0.01,0.17,0.97,0.04,-0.08,-0.13,
0.286,0.01,0.17,0.97,0.02,-0.14,-0.06,
0.288,0.01,0.16,0.96,0.02,-0.14,-0.06,
0.295,0.02,0.16,0.95,0.02,-0.14,-0.06,
0.296,0.02,0.16,0.95,-0.02,-0.19,-0.09,
0.296,0.01,0.16,0.95,-0.02,-0.19,-0.09,
0.296,0.01,0.16,0.95,-0.02,-0.28,-0.21,
0.296,0.01,0.16,0.95,-0.02,-0.28,-0.21,
0.298,0.01,0.16,0.95,-0.02,-0.28,-0.21,
0.3,0.01,0.16,0.94,-0.02,-0.28,-0.21,
0.301,0.01,0.16,0.94,-0.05,-0.28,-0.25,
0.303,0.01,0.16,0.93,-0.05,-0.28,-0.25,
0.305,0.01,0.16,0.93,-0.05,-0.28,-0.25,
0.319,0.01,0.16,0.93,-0.06,-0.30,-0.33,
0.32,0.01,0.16,0.92,-0.06,-0.30,-0.33,
0.321,0.01,0.16,0.91,-0.06,-0.30,-0.33,
0.321,0.01,0.16,0.91,-0.04,-0.29,-0.45,
0.321,0.02,0.16,0.91,-0.04,-0.29,-0.45,
0.322,0.02,0.16,0.90,-0.04,-0.29,-0.45,
0.322,0.02,0.16,0.90,-0.00,-0.29,-0.58,
0.322,0.02,0.16,0.90,-0.00,-0.29,-0.58,
0.323,0.02,0.15,0.89,-0.00,-0.29,-0.58,
0.323,0.02,0.15,0.89,0.05,-0.32,-0.70,
0.323,0.02,0.15,0.89,0.05,-0.32,-0.70,
0.33,0.02,0.15,0.87,0.05,-0.32,-0.70,
0.333,0.02,0.15,0.87,0.09,-0.36,-0.81,
0.334,0.02,0.16,0.87,0.09,-0.36,-0.81,
0.334,0.03,0.16,0.87,0.09,-0.36,-0.81,
0.334,0.03,0.16,0.87,0.12,-0.38,-0.91,
0.335,0.02,0.15,0.86,0.12,-0.38,-0.91,
0.335,0.02,0.15,0.86,0.12,-0.38,-0.91,
0.336,0.02,0.15,0.86,0.14,-0.34,-0.99,
0.338,0.02,0.15,0.86,0.14,-0.34,-0.99,
0.347,0.03,0.15,0.85,0.14,-0.34,-0.99,
0.347,0.03,0.15,0.85,0.16,-0.42,-1.07,
0.349,0.03,0.15,0.85,0.16,-0.42,-1.07,
0.349,0.03,0.15,0.85,0.17,-0.44,-1.16,
0.349,0.03,0.15,0.84,0.17,-0.44,-1.16,
0.349,0.03,0.15,0.83,0.17,-0.44,-1.16,
0.35,0.03,0.15,0.83,0.17,-0.44,-1.16,
0.35,0.03,0.15,0.83,0.24,-0.44,-1.23,
0.353,0.04,0.15,0.84,0.24,-0.44,-1.23,
0.356,0.04,0.15,0.83,0.24,-0.44,-1.23,
0.356,0.04,0.15,0.83,0.25,-0.44,-1.32,
0.362,0.04,0.15,0.82,0.25,-0.44,-1.32,
0.363,0.04,0.15,0.82,0.25,-0.44,-1.32,
0.363,0.04,0.15,0.82,0.28,-0.45,-1.31,
0.363,0.04,0.15,0.82,0.28,-0.45,-1.31,
0.366,0.04,0.15,0.81,0.28,-0.45,-1.31,
0.366,0.04,0.15,0.81,0.32,-0.46,-1.43,
0.368,0.04,0.14,0.80,0.32,-0.46,-1.43,
0.37,0.04,0.15,0.80,0.32,-0.46,-1.43,
0.371,0.04,0.15,0.80,0.33,-0.43,-1.52,
0.373,0.04,0.14,0.80,0.33,-0.43,-1.52,
0.38,0.04,0.15,0.79,0.33,-0.43,-1.52,
0.38,0.04,0.15,0.79,0.32,-0.47,-1.58,
0.38,0.05,0.15,0.80,0.32,-0.47,-1.58,
0.381,0.05,0.15,0.80,0.32,-0.47,-1.63,
0.381,0.05,0.14,0.80,0.32,-0.47,-1.63,
0.383,0.05,0.14,0.80,0.32,-0.47,-1.63,
0.385,0.05,0.14,0.80,0.32,-0.47,-1.63,
0.386,0.05,0.14,0.80,0.38,-0.47,-1.62,
0.388,0.04,0.14,0.79,0.38,-0.47,-1.62,
0.39,0.04,0.14,0.80,0.38,-0.47,-1.62,
0.39,0.04,0.14,0.80,0.36,-0.52,-1.60,
0.396,0.04,0.14,0.80,0.36,-0.52,-1.60,
0.396,0.04,0.14,0.80,0.30,-0.49,-1.62,
0.396,0.04,0.14,0.80,0.30,-0.49,-1.62,
0.398,0.04,0.14,0.81,0.30,-0.49,-1.62,
0.4,0.04,0.14,0.80,0.30,-0.49,-1.62,
0.4,0.04,0.14,0.80,0.27,-0.50,-1.56,
0.403,0.05,0.14,0.80,0.27,-0.50,-1.56,
0.406,0.06,0.13,0.80,0.27,-0.50,-1.56,
0.406,0.06,0.13,0.80,0.28,-0.52,-1.53,
0.417,0.06,0.13,0.79,0.28,-0.52,-1.53,
0.418,0.06,0.13,0.79,0.28,-0.52,-1.53,
0.418,0.06,0.13,0.79,0.40,-0.55,-1.55,
0.418,0.07,0.13,0.79,0.40,-0.55,-1.55,
0.418,0.07,0.13,0.80,0.40,-0.55,-1.55,
0.418,0.07,0.13,0.80,0.49,-0.59,-1.62,
0.419,0.08,0.13,0.80,0.49,-0.59,-1.62,
0.42,0.08,0.13,0.80,0.49,-0.59,-1.62,
0.42,0.08,0.13,0.80,0.54,-0.60,-1.58,
0.422,0.08,0.13,0.80,0.54,-0.60,-1.58,
0.43,0.08,0.13,0.80,0.54,-0.60,-1.58,
0.431,0.08,0.13,0.80,0.59,-0.63,-1.53,
0.431,0.07,0.13,0.80,0.59,-0.63,-1.53,
0.432,0.08,0.12,0.80,0.59,-0.63,-1.53,
0.432,0.08,0.12,0.80,0.57,-0.60,-1.54,
0.432,0.07,0.13,0.80,0.57,-0.60,-1.54,
0.435,0.06,0.13,0.81,0.57,-0.60,-1.54,
0.435,0.06,0.13,0.81,0.55,-0.61,-1.48,
0.437,0.06,0.13,0.81,0.55,-0.61,-1.48,
0.44,0.05,0.13,0.81,0.55,-0.61,-1.48,
0.44,0.05,0.13,0.81,0.45,-0.61,-1.42,
0.448,0.04,0.12,0.82,0.45,-0.61,-1.42,
0.449,0.03,0.12,0.82,0.45,-0.61,-1.42,
0.449,0.03,0.12,0.82,0.33,-0.59,-1.38,
0.449,0.02,0.12,0.82,0.33,-0.59,-1.38,
0.45,0.01,0.12,0.83,0.33,-0.59,-1.38,
0.45,0.01,0.12,0.83,0.16,-0.63,-1.29,
0.452,0.01,0.12,0.83,0.16,-0.63,-1.29,
0.455,0.00,0.12,0.83,0.16,-0.63,-1.29,
0.455,0.00,0.12,0.83,-0.06,-0.66,-1.22,
0.457,-0.00,0.12,0.83,-0.06,-0.66,-1.22,
0.463,0.00,0.12,0.83,-0.06,-0.66,-1.22,
0.463,0.00,0.12,0.83,-0.15,-0.63,-1.16,
0.464,-0.00,0.12,0.84,-0.15,-0.63,-1.16,
0.464,0.00,0.12,0.84,-0.15,-0.63,-1.16,
0.464,0.00,0.12,0.84,-0.20,-0.62,-1.16,
0.467,0.01,0.12,0.84,-0.20,-0.62,-1.16,
0.469,0.01,0.12,0.85,-0.20,-0.62,-1.16,
0.469,0.01,0.12,0.85,-0.21,-0.58,-1.05,
0.471,0.01,0.13,0.85,-0.21,-0.58,-1.05,
0.479,0.01,0.13,0.86,-0.21,-0.58,-1.05,
0.479,0.01,0.13,0.86,-0.13,-0.57,-0.98,
0.48,0.02,0.13,0.86,-0.13,-0.57,-0.98,
0.48,0.02,0.13,0.86,-0.13,-0.57,-0.98,
0.48,0.02,0.13,0.86,-0.09,-0.48,-0.91,
0.481,0.02,0.13,0.86,-0.09,-0.48,-0.91,
0.484,0.03,0.13,0.86,-0.09,-0.48,-0.91,
0.484,0.03,0.13,0.86,-0.04,-0.44,-0.86,
0.486,0.04,0.14,0.85,-0.04,-0.44,-0.86,
0.488,0.04,0.13,0.85,-0.04,-0.44,-0.86,
0.489,0.04,0.13,0.85,0.03,-0.41,-0.83,
0.491,0.05,0.14,0.85,0.03,-0.41,-0.83,
0.496,0.05,0.14,0.85,0.03,-0.41,-0.83,
0.497,0.05,0.14,0.85,0.14,-0.38,-0.93,
0.497,0.06,0.14,0.85,0.14,-0.38,-0.93,
0.499,0.07,0.14,0.84,0.14,-0.38,-0.93,
0.499,0.07,0.14,0.84,0.27,-0.34,-0.94,
0.501,0.07,0.15,0.83,0.27,-0.34,-0.94,
0.504,0.08,0.15,0.83,0.27,-0.34,-0.94,
0.504,0.08,0.15,0.83,0.37,-0.30,-1.03,
0.506,0.09,0.16,0.82,0.37,-0.30,-1.03,
0.517,0.09,0.16,0.82,0.37,-0.30,-1.03,
0.518,0.09,0.16,0.82,0.51,-0.23,-1.14,
0.518,0.09,0.17,0.81,0.51,-0.23,-1.14,
0.518,0.09,0.18,0.81,0.51,-0.23,-1.14,
0.519,0.09,0.18,0.81,0.61,-0.08,-1.24,
0.519,0.10,0.18,0.80,0.61,-0.08,-1.24,
0.519,0.10,0.18,0.80,0.65,0.06,-1.32,
0.52,0.10,0.19,0.80,0.65,0.06,-1.32,
0.521,0.10,0.20,0.80,0.65,0.06,-1.32,
0.524,0.10,0.20,0.80,0.65,0.06,-1.32,
0.524,0.10,0.20,0.80,0.70,0.19,-1.40,
0.533,0.10,0.20,0.80,0.70,0.19,-1.40,
0.534,0.10,0.20,0.80,0.70,0.19,-1.40,
0.534,0.10,0.20,0.80,0.69,0.30,-1.39,
0.534,0.10,0.21,0.81,0.69,0.30,-1.39,
0.535,0.09,0.21,0.82,0.69,0.30,-1.39,
0.535,0.09,0.21,0.82,0.69,0.34,-1.41,
0.536,0.09,0.21,0.82,0.69,0.34,-1.41,
0.538,0.09,0.21,0.82,0.63,0.44,-1.29,
0.539,0.09,0.20,0.82,0.63,0.44,-1.29,
0.541,0.09,0.20,0.83,0.63,0.44,-1.29,
0.55,0.09,0.20,0.84,0.63,0.44,-1.29,
0.551,0.09,0.20,0.84,0.61,0.43,-1.18,
0.551,0.09,0.19,0.85,0.61,0.43,-1.18,
0.551,0.08,0.18,0.86,0.61,0.43,-1.18,
0.552,0.08,0.18,0.86,0.57,0.41,-1.04,
0.552,0.08,0.18,0.87,0.57,0.41,-1.04,
0.553,0.08,0.17,0.88,0.57,0.41,-1.04,
0.553,0.08,0.17,0.88,0.51,0.31,-0.85,
0.555,0.08,0.16,0.89,0.51,0.31,-0.85,
0.564,0.07,0.15,0.90,0.51,0.31,-0.85,
0.565,0.07,0.15,0.90,0.43,0.20,-0.67,
0.565,0.07,0.14,0.91,0.43,0.20,-0.67,
0.565,0.07,0.14,0.92,0.43,0.20,-0.67,
0.565,0.07,0.14,0.92,0.33,0.03,-0.51,
0.566,0.07,0.13,0.93,0.33,0.03,-0.51,
0.568,0.07,0.12,0.94,0.33,0.03,-0.51,
0.568,0.07,0.12,0.94,0.29,-0.11,-0.26,
0.57,0.08,0.12,0.95,0.29,-0.11,-0.26,
0.572,0.08,0.11,0.95,0.29,-0.11,-0.26,
0.573,0.08,0.11,0.95,0.29,-0.21,-0.09,
0.579,0.08,0.11,0.96,0.29,-0.21,-0.09,
0.58,0.09,0.11,0.96,0.29,-0.21,-0.09,
0.58,0.09,0.11,0.96,0.30,-0.28,0.08,
0.58,0.09,0.10,0.96,0.30,-0.28,0.08,
0.583,0.09,0.10,0.96,0.30,-0.28,0.08,
0.583,0.09,0.10,0.96,0.36,-0.30,0.13,
0.585,0.10,0.10,0.96,0.36,-0.30,0.13,
0.587,0.10,0.10,0.96,0.36,-0.30,0.13,
0.588,0.10,0.10,0.96,0.40,-0.36,0.17,
0.59,0.11,0.10,0.96,0.40,-0.36,0.17,
0.597,0.11,0.10,0.96,0.51,-0.35,0.18,
0.598,0.11,0.10,0.96,0.51,-0.35,0.18,
0.598,0.11,0.10,0.97,0.51,-0.35,0.18,
0.598,0.11,0.10,0.96,0.51,-0.35,0.18,
0.598,0.11,0.10,0.96,0.61,-0.34,0.15,
0.6,0.12,0.11,0.95,0.61,-0.34,0.15,
0.603,0.12,0.11,0.95,0.61,-0.34,0.15,
0.603,0.12,0.11,0.95,0.63,-0.28,0.17,
0.605,0.11,0.12,0.95,0.63,-0.28,0.17,
0.613,0.11,0.12,0.95,0.63,-0.28,0.17,
0.614,0.11,0.12,0.95,0.66,-0.20,0.05,
0.614,0.11,0.12,0.94,0.66,-0.20,0.05,
0.614,0.12,0.13,0.94,0.66,-0.20,0.05,
0.615,0.12,0.13,0.94,0.58,-0.09,0.03,
0.615,0.12,0.13,0.94,0.58,-0.09,0.03,
0.617,0.12,0.13,0.94,0.58,-0.09,0.03,
0.617,0.12,0.13,0.94,0.60,0.00,-0.04,
0.62,0.12,0.14,0.95,0.60,0.00,-0.04,
0.622,0.12,0.13,0.94,0.60,0.00,-0.04,
0.622,0.12,0.13,0.94,0.60,0.08,-0.05,
0.636,0.12,0.13,0.95,0.60,0.08,-0.05,
0.637,0.12,0.14,0.95,0.60,0.08,-0.05,
0.638,0.12,0.14,0.95,0.59,0.12,0.00,
0.638,0.11,0.13,0.95,0.59,0.12,0.00,
0.638,0.11,0.12,0.96,0.59,0.12,0.00,
0.638,0.11,0.12,0.96,0.56,0.11,0.04,
0.638,0.11,0.12,0.97,0.56,0.11,0.04,
0.639,0.10,0.12,0.98,0.56,0.11,0.04,
0.639,0.10,0.12,0.98,0.52,0.08,0.11,
0.639,0.10,0.11,0.99,0.52,0.08,0.11,
0.649,0.09,0.10,0.99,0.52,0.08,0.11,
0.649,0.09,0.10,0.99,0.41,0.01,0.28,
0.65,0.09,0.09,1.00,0.41,0.01,0.28,
0.65,0.08,0.08,1.01,0.41,0.01,0.28,
0.65,0.08,0.08,1.01,0.29,-0.12,0.42,
0.65,0.07,0.08,1.02,0.29,-0.12,0.42,
0.652,0.07,0.08,1.03,0.29,-0.12,0.42,
0.652,0.07,0.08,1.03,0.18,-0.26,0.57,
0.654,0.07,0.07,1.04,0.18,-0.26,0.57,
0.668,0.08,0.07,1.05,0.18,-0.26,0.57,
0.668,0.08,0.07,1.05,0.02,-0.31,0.76,
0.669,0.08,0.07,1.06,0.02,-0.31,0.76,
0.669,0.09,0.07,1.06,0.02,-0.31,0.76,
0.669,0.09,0.07,1.06,-0.01,-0.39,0.95,
0.67,0.11,0.07,1.06,-0.01,-0.39,0.95,
0.67,0.12,0.07,1.07,-0.01,-0.39,0.95,
0.67,0.12,0.07,1.07,0.10,-0.41,1.10,
0.671,0.13,0.06,1.07,0.10,-0.41,1.10,
0.672,0.14,0.06,1.06,0.10,-0.41,1.10,
0.673,0.14,0.06,1.06,0.35,-0.41,1.12,
0.684,0.15,0.07,1.06,0.35,-0.41,1.12,
0.684,0.16,0.08,1.05,0.35,-0.41,1.12,
0.685,0.16,0.08,1.05,0.53,-0.44,1.10,
0.685,0.18,0.09,1.05,0.53,-0.44,1.10,
0.685,0.18,0.09,1.05,0.74,-0.34,1.02,
0.685,0.19,0.09,1.04,0.74,-0.34,1.02,
0.685,0.20,0.10,1.03,0.74,-0.34,1.02,
0.687,0.20,0.11,1.02,0.74,-0.34,1.02,
0.687,0.20,0.11,1.02,0.99,-0.18,0.88,
0.69,0.20,0.12,1.01,0.99,-0.18,0.88,
0.699,0.20,0.12,1.01,1.13,-0.05,0.73,
0.7,0.20,0.13,1.00,1.13,-0.05,0.73,
0.7,0.19,0.13,0.99,1.13,-0.05,0.73,
0.7,0.19,0.15,0.98,1.13,-0.05,0.73,
0.7,0.19,0.15,0.98,1.15,0.15,0.51,
0.701,0.18,0.16,0.98,1.15,0.15,0.51,
0.702,0.17,0.16,0.97,1.15,0.15,0.51,
0.703,0.17,0.16,0.97,1.02,0.30,0.35,
0.705,0.15,0.17,0.96,1.02,0.30,0.35,
0.707,0.14,0.17,0.96,1.02,0.30,0.35,
0.707,0.14,0.17,0.96,0.84,0.49,0.24,
0.714,0.13,0.17,0.95,0.84,0.49,0.24,
0.714,0.13,0.17,0.94,0.84,0.49,0.24,
0.714,0.13,0.17,0.94,0.59,0.61,0.06,
0.715,0.12,0.16,0.95,0.59,0.61,0.06,
0.717,0.12,0.16,0.95,0.40,0.60,-0.06,
0.718,0.11,0.16,0.95,0.40,0.60,-0.06,
0.72,0.10,0.16,0.95,0.40,0.60,-0.06,
0.722,0.10,0.15,0.95,0.40,0.60,-0.06,
0.722,0.10,0.15,0.95,0.21,0.54,-0.03,
0.725,0.10,0.14,0.96,0.21,0.54,-0.03,
0.734,0.09,0.14,0.97,0.21,0.54,-0.03,
0.735,0.09,0.14,0.97,0.09,0.46,0.01,
0.735,0.10,0.13,0.97,0.09,0.46,0.01,
0.735,0.09,0.13,0.99,0.09,0.46,0.01,
0.736,0.09,0.13,0.99,-0.01,0.39,0.12,
0.736,0.10,0.12,1.00,-0.01,0.39,0.12,
0.736,0.11,0.12,1.01,-0.01,0.39,0.12,
0.736,0.11,0.12,1.01,-0.02,0.29,0.28,
0.739,0.12,0.12,1.03,-0.02,0.29,0.28,
0.742,0.13,0.11,1.04,-0.02,0.29,0.28,
0.742,0.13,0.11,1.04,0.03,0.23,0.53,
0.75,0.14,0.10,1.05,0.03,0.23,0.53,
0.751,0.14,0.10,1.05,0.03,0.23,0.53,
0.751,0.14,0.10,1.05,0.21,0.14,0.79,
0.751,0.16,0.10,1.06,0.21,0.14,0.79,
0.752,0.16,0.09,1.06,0.21,0.14,0.79,
0.752,0.16,0.09,1.06,0.34,0.05,0.96,
0.754,0.17,0.08,1.06,0.34,0.05,0.96,
0.757,0.18,0.07,1.06,0.34,0.05,0.96,
0.757,0.18,0.07,1.06,0.49,-0.01,1.02,
0.768,0.19,0.07,1.06,0.49,-0.01,1.02,
0.769,0.19,0.07,1.05,0.49,-0.01,1.02,
0.769,0.19,0.07,1.05,0.63,-0.13,1.04,
0.769,0.20,0.06,1.05,0.63,-0.13,1.04,
0.77,0.20,0.07,1.05,0.63,-0.13,1.04,
0.77,0.20,0.07,1.05,0.76,-0.19,1.01,
0.77,0.21,0.07,1.05,0.76,-0.19,1.01,
0.771,0.21,0.08,1.04,0.76,-0.19,1.01,
0.771,0.21,0.08,1.04,0.87,-0.21,0.93,
0.774,0.20,0.09,1.04,0.87,-0.21,0.93,
0.782,0.20,0.09,1.03,0.87,-0.21,0.93,
0.782,0.20,0.09,1.03,0.90,-0.12,0.85,
0.782,0.19,0.10,1.03,0.90,-0.12,0.85,
0.783,0.19,0.11,1.03,0.90,-0.12,0.85,
0.783,0.19,0.11,1.03,0.80,0.03,0.81,
0.783,0.18,0.11,1.04,0.80,0.03,0.81,
0.786,0.17,0.12,1.04,0.80,0.03,0.81,
0.786,0.17,0.12,1.04,0.69,0.19,0.75,
0.788,0.16,0.12,1.03,0.69,0.19,0.75,
0.79,0.14,0.12,1.04,0.69,0.19,0.75,
0.791,0.14,0.12,1.04,0.51,0.30,0.79,
0.798,0.13,0.12,1.05,0.51,0.30,0.79,
0.798,0.11,0.13,1.05,0.51,0.30,0.79,
0.799,0.11,0.13,1.05,0.27,0.39,0.80,
0.799,0.10,0.12,1.05,0.27,0.39,0.80,
0.8,0.08,0.11,1.06,0.27,0.39,0.80,
0.8,0.08,0.11,1.06,-0.03,0.45,0.89,
0.803,0.07,0.11,1.07,-0.03,0.45,0.89,
0.805,0.06,0.10,1.08,-0.03,0.45,0.89,
0.806,0.06,0.10,1.08,-0.35,0.37,0.95,
0.814,0.05,0.10,1.08,-0.35,0.37,0.95,
0.815,0.05,0.09,1.09,-0.35,0.37,0.95,
0.815,0.05,0.09,1.09,-0.59,0.28,1.12,
0.815,0.04,0.08,1.10,-0.59,0.28,1.12,
0.815,0.03,0.07,1.11,-0.59,0.28,1.12,
0.816,0.03,0.07,1.11,-0.79,0.18,1.28,
0.818,0.03,0.07,1.11,-0.79,0.18,1.28,
0.82,0.03,0.07,1.11,-0.93,0.05,1.43,
0.823,0.03,0.05,1.12,-0.93,0.05,1.43,
0.823,0.04,0.05,1.12,-0.93,0.05,1.43,
0.83,0.04,0.04,1.13,-0.93,0.05,1.43,
0.831,0.04,0.04,1.13,-0.95,-0.07,1.55,
0.831,0.05,0.04,1.13,-0.95,-0.07,1.55,
0.831,0.05,0.04,1.12,-0.95,-0.07,1.55,
0.831,0.05,0.04,1.12,-0.89,-0.18,1.63,
0.832,0.06,0.03,1.12,-0.89,-0.18,1.63,
0.835,0.06,0.02,1.12,-0.89,-0.18,1.63,
0.835,0.06,0.02,1.12,-0.81,-0.23,1.58,
0.838,0.08,0.03,1.11,-0.81,-0.23,1.58,
0.84,0.08,0.02,1.11,-0.81,-0.23,1.58,
0.84,0.08,0.02,1.11,-0.72,-0.31,1.53,
0.853,0.09,0.03,1.10,-0.72,-0.31,1.53,
0.854,0.10,0.03,1.09,-0.72,-0.31,1.53,
0.854,0.10,0.03,1.09,-0.54,-0.32,1.44,
0.854,0.11,0.02,1.08,-0.54,-0.32,1.44,
0.854,0.12,0.03,1.08,-0.54,-0.32,1.44,
0.855,0.12,0.03,1.08,-0.38,-0.29,1.32,
0.855,0.13,0.03,1.07,-0.38,-0.29,1.32,
0.855,0.14,0.04,1.07,-0.38,-0.29,1.32,
0.855,0.14,0.04,1.07,-0.21,-0.26,1.19,
0.857,0.15,0.04,1.07,-0.21,-0.26,1.19,
0.865,0.16,0.04,1.07,-0.21,-0.26,1.19,
0.866,0.16,0.04,1.07,-0.04,-0.16,1.09,
0.866,0.17,0.06,1.06,-0.04,-0.16,1.09,
0.866,0.17,0.06,1.06,-0.04,-0.16,1.09,
0.866,0.17,0.06,1.06,0.15,-0.09,1.06,
0.867,0.17,0.06,1.06,0.15,-0.09,1.06,
0.87,0.17,0.07,1.05,0.15,-0.09,1.06,
0.87,0.17,0.07,1.05,0.32,0.07,0.97,
0.872,0.17,0.07,1.05,0.32,0.07,0.97,
0.874,0.16,0.07,1.05,0.32,0.07,0.97,
0.875,0.16,0.07,1.05,0.34,0.15,0.91,
0.881,0.16,0.07,1.05,0.34,0.15,0.91,
0.882,0.15,0.07,1.05,0.34,0.15,0.91,
0.882,0.15,0.07,1.05,0.26,0.22,0.87,
0.882,0.14,0.08,1.05,0.26,0.22,0.87,
0.885,0.14,0.07,1.05,0.26,0.22,0.87,
0.885,0.14,0.07,1.05,0.15,0.26,0.85,
0.887,0.13,0.08,1.05,0.15,0.26,0.85,
0.889,0.13,0.08,1.06,0.15,0.26,0.85,
0.89,0.13,0.08,1.06,-0.01,0.29,0.84,
0.896,0.12,0.08,1.06,-0.01,0.29,0.84,
0.897,0.12,0.08,1.06,-0.01,0.29,0.84,
0.897,0.12,0.08,1.06,-0.12,0.33,0.88,
0.897,0.12,0.07,1.06,-0.12,0.33,0.88,
0.899,0.12,0.07,1.07,-0.12,0.33,0.88,
0.9,0.12,0.07,1.07,-0.20,0.32,0.93,
0.902,0.11,0.07,1.07,-0.20,0.32,0.93,
0.904,0.11,0.06,1.08,-0.20,0.32,0.93,
0.904,0.11,0.06,1.08,-0.27,0.29,0.95,
0.907,0.11,0.07,1.08,-0.27,0.29,0.95,
0.913,0.11,0.06,1.08,-0.27,0.29,0.95,
0.913,0.11,0.06,1.08,-0.33,0.23,1.05,
0.913,0.11,0.05,1.09,-0.33,0.23,1.05,
0.914,0.11,0.05,1.09,-0.34,0.23,1.14,
0.914,0.12,0.05,1.09,-0.34,0.23,1.14,
0.917,0.13,0.05,1.09,-0.34,0.23,1.14,
0.919,0.13,0.05,1.09,-0.34,0.23,1.14,
0.919,0.13,0.05,1.09,-0.32,0.14,1.23,
0.922,0.14,0.05,1.09,-0.32,0.14,1.23,
0.924,0.14,0.05,1.09,-0.32,0.14,1.23,
0.924,0.14,0.05,1.09,-0.21,0.14,1.22,
0.93,0.15,0.04,1.09,-0.21,0.14,1.22,
0.93,0.16,0.04,1.09,-0.21,0.14,1.22,
0.93,0.16,0.04,1.09,-0.10,0.12,1.22,
0.932,0.16,0.05,1.08,-0.10,0.12,1.22,
0.935,0.17,0.04,1.07,-0.10,0.12,1.22,
0.935,0.17,0.04,1.07,0.03,0.10,1.21,
0.937,0.18,0.04,1.06,0.03,0.10,1.21,
0.939,0.18,0.04,1.06,0.03,0.10,1.21,
0.94,0.18,0.04,1.06,0.17,0.13,1.05,
0.941,0.18,0.05,1.05,0.17,0.13,1.05,
0.954,0.19,0.04,1.03,0.17,0.13,1.05,
0.955,0.19,0.04,1.03,0.29,0.11,0.90,
0.956,0.19,0.04,1.03,0.29,0.11,0.90,
0.956,0.19,0.05,1.02,0.29,0.11,0.90,
0.956,0.19,0.05,1.02,0.33,0.14,0.74,
0.956,0.19,0.05,1.01,0.33,0.14,0.74,
0.957,0.20,0.05,1.01,0.33,0.14,0.74,
0.957,0.20,0.05,1.01,0.33,0.17,0.53,
0.957,0.20,0.06,1.01,0.33,0.17,0.53,
0.968,0.20,0.06,1.00,0.33,0.17,0.53,
0.969,0.20,0.06,1.00,0.40,0.25,0.43,
0.969,0.20,0.07,1.00,0.40,0.25,0.43,
0.97,0.20,0.07,1.00,0.40,0.25,0.43,
0.97,0.20,0.07,1.00,0.47,0.35,0.35,
0.97,0.20,0.07,1.00,0.47,0.35,0.35,
0.97,0.19,0.07,1.00,0.47,0.35,0.35,
0.97,0.19,0.07,1.00,0.48,0.42,0.33,
0.971,0.19,0.07,1.00,0.48,0.42,0.33,
0.974,0.19,0.07,1.01,0.48,0.42,0.33,
0.974,0.19,0.07,1.01,0.40,0.48,0.31,
0.985,0.18,0.07,1.02,0.40,0.48,0.31,
0.986,0.18,0.07,1.03,0.40,0.48,0.31,
0.986,0.18,0.07,1.03,0.33,0.48,0.36,
0.987,0.18,0.07,1.05,0.33,0.48,0.36,
0.987,0.17,0.06,1.06,0.33,0.48,0.36,
0.987,0.17,0.06,1.06,0.27,0.48,0.58,
0.99,0.16,0.06,1.08,0.27,0.48,0.58,
0.991,0.16,0.06,1.09,0.27,0.48,0.58,
0.991,0.16,0.06,1.09,0.17,0.46,0.84,
0.992,0.15,0.05,1.12,0.17,0.46,0.84,
0.999,0.14,0.05,1.14,0.17,0.46,0.84,
1.0,0.14,0.05,1.14,0.00,0.44,1.16,
1.001,0.14,0.04,1.15,0.00,0.44,1.16,
1.001,0.13,0.04,1.17,0.00,0.44,1.16,
1.002,0.13,0.04,1.17,-0.14,0.35,1.57,
1.002,0.13,0.03,1.18,-0.14,0.35,1.57,
1.004,0.12,0.02,1.20,-0.14,0.35,1.57,
1.004,0.12,0.02,1.20,-0.29,0.29,1.88,
1.006,0.12,0.02,1.21,-0.29,0.29,1.88,
1.008,0.12,0.02,1.22,-0.29,0.29,1.88,
1.009,0.12,0.02,1.22,-0.40,0.19,2.20,
1.014,0.12,0.01,1.24,-0.40,0.19,2.20,
1.014,0.12,0.01,1.24,-0.47,0.11,2.45,
1.014,0.12,0.01,1.24,-0.47,0.11,2.45,
1.016,0.13,0.00,1.24,-0.47,0.11,2.45,
1.019,0.13,0.00,1.25,-0.47,0.11,2.45,
1.019,0.13,0.00,1.25,-0.48,0.01,2.62,
1.021,0.13,0.00,1.25,-0.48,0.01,2.62,
1.024,0.14,-0.00,1.24,-0.48,0.01,2.62,
1.024,0.14,-0.00,1.24,-0.43,-0.03,2.70,
1.026,0.14,-0.01,1.23,-0.43,-0.03,2.70,
1.031,0.14,-0.01,1.22,-0.43,-0.03,2.70,
1.032,0.14,-0.01,1.22,-0.37,-0.07,2.65,
1.032,0.15,-0.01,1.22,-0.37,-0.07,2.65,
1.034,0.15,-0.00,1.20,-0.37,-0.07,2.65,
1.034,0.15,-0.00,1.20,-0.32,-0.14,2.50,
1.036,0.14,0.00,1.19,-0.32,-0.14,2.50,
1.039,0.14,0.00,1.17,-0.32,-0.14,2.50,
1.04,0.14,0.00,1.17,-0.29,-0.11,2.32,
1.04,0.14,0.00,1.16,-0.29,-0.11,2.32,
1.043,0.14,0.01,1.15,-0.29,-0.11,2.32,
1.044,0.14,0.01,1.15,-0.32,-0.05,2.03,
1.049,0.14,0.02,1.13,-0.32,-0.05,2.03,
1.05,0.14,0.02,1.11,-0.32,-0.05,2.03,
1.05,0.14,0.02,1.11,-0.34,0.01,1.76,
1.051,0.15,0.02,1.11,-0.34,0.01,1.76,
1.054,0.15,0.02,1.10,-0.34,0.01,1.76,
1.054,0.15,0.02,1.10,-0.32,0.09,1.43,
1.056,0.16,0.03,1.09,-0.32,0.09,1.43,
1.059,0.17,0.03,1.09,-0.32,0.09,1.43,
1.06,0.17,0.03,1.09,-0.20,0.14,1.25,
1.07,0.17,0.04,1.09,-0.20,0.14,1.25,
1.071,0.17,0.05,1.08,-0.20,0.14,1.25,
1.071,0.17,0.05,1.08,-0.10,0.26,1.11,
1.072,0.18,0.05,1.08,-0.10,0.26,1.11,
1.072,0.18,0.05,1.08,-0.10,0.26,1.11,
1.072,0.18,0.05,1.08,-0.01,0.37,1.05,
1.072,0.18,0.05,1.08,-0.01,0.37,1.05,
1.074,0.18,0.06,1.08,-0.01,0.37,1.05,
1.074,0.18,0.06,1.08,0.11,0.47,1.01,
1.076,0.18,0.07,1.08,0.11,0.47,1.01,
1.085,0.18,0.07,1.08,0.11,0.47,1.01,
1.086,0.18,0.07,1.08,0.11,0.55,0.96,
1.086,0.18,0.07,1.09,0.11,0.55,0.96,
1.086,0.17,0.07,1.10,0.11,0.55,0.96,
1.087,0.17,0.07,1.10,0.12,0.63,1.00,
1.087,0.16,0.07,1.11,0.12,0.63,1.00,
1.088,0.15,0.07,1.12,0.12,0.63,1.00,
1.088,0.15,0.07,1.12,0.04,0.67,1.15,
1.09,0.15,0.07,1.13,0.04,0.67,1.15,
1.092,0.13,0.06,1.15,0.04,0.67,1.15,
1.093,0.13,0.06,1.15,-0.09,0.66,1.28,
1.103,0.13,0.06,1.15,-0.09,0.66,1.28,
1.103,0.12,0.06,1.16,-0.09,0.66,1.28,
1.104,0.12,0.06,1.16,-0.26,0.64,1.57,
1.104,0.11,0.05,1.16,-0.26,0.64,1.57,
1.104,0.11,0.05,1.17,-0.26,0.64,1.57,
1.104,0.11,0.05,1.17,-0.41,0.59,1.68,
1.106,0.10,0.05,1.18,-0.41,0.59,1.68,
1.108,0.09,0.04,1.18,-0.41,0.59,1.68,
1.108,0.09,0.04,1.18,-0.54,0.56,1.82,
1.119,0.09,0.04,1.19,-0.54,0.56,1.82,
1.119,0.09,0.04,1.19,-0.66,0.50,1.96,
1.119,0.09,0.04,1.20,-0.66,0.50,1.96,
1.12,0.09,0.04,1.21,-0.66,0.50,1.96,
1.12,0.08,0.04,1.21,-0.66,0.50,1.96,
1.12,0.08,0.04,1.21,-0.74,0.47,2.09,
1.12,0.08,0.03,1.22,-0.74,0.47,2.09,
1.123,0.08,0.03,1.22,-0.74,0.47,2.09,
1.123,0.08,0.03,1.22,-0.77,0.45,2.22,
1.125,0.08,0.02,1.22,-0.77,0.45,2.22,
1.127,0.08,0.02,1.23,-0.77,0.45,2.22,
1.127,0.08,0.02,1.23,-0.81,0.37,2.26,
1.132,0.09,0.01,1.22,-0.81,0.37,2.26,
1.133,0.09,0.01,1.23,-0.81,0.37,2.26,
1.133,0.09,0.01,1.23,-0.77,0.28,2.34,
1.134,0.08,0.01,1.23,-0.77,0.28,2.34,
1.137,0.08,0.00,1.23,-0.77,0.28,2.34,
1.137,0.08,0.00,1.23,-0.71,0.19,2.33,
1.14,0.08,0.01,1.24,-0.71,0.19,2.33,
1.143,0.09,-0.00,1.23,-0.71,0.19,2.33,
1.143,0.09,-0.00,1.23,-0.77,0.17,2.42,
1.149,0.09,-0.00,1.23,-0.77,0.17,2.42,
1.15,0.09,0.00,1.23,-0.77,0.17,2.42,
1.15,0.09,0.00,1.23,-0.73,0.15,2.41,
1.15,0.09,0.00,1.23,-0.73,0.15,2.41,
1.153,0.09,0.00,1.22,-0.73,0.15,2.41,
1.153,0.09,0.00,1.22,-0.68,0.14,2.36,
1.154,0.09,0.01,1.22,-0.68,0.14,2.36,
1.158,0.09,0.01,1.22,-0.68,0.14,2.36,
1.158,0.09,0.01,1.22,-0.65,0.18,2.33,
1.159,0.10,0.02,1.22,-0.65,0.18,2.33,
1.172,0.09,0.02,1.22,-0.65,0.18,2.33,
1.172,0.09,0.02,1.22,-0.65,0.25,2.23,
1.173,0.09,0.03,1.21,-0.65,0.25,2.23,
1.173,0.10,0.03,1.21,-0.65,0.25,2.23,
1.173,0.10,0.03,1.21,-0.62,0.33,2.23,
1.173,0.09,0.03,1.21,-0.62,0.33,2.23,
1.174,0.09,0.04,1.21,-0.62,0.33,2.23,
1.174,0.09,0.04,1.21,-0.64,0.41,2.16,
1.174,0.08,0.03,1.21,-0.64,0.41,2.16,
1.176,0.08,0.04,1.22,-0.64,0.41,2.16,
1.177,0.08,0.04,1.22,-0.66,0.45,2.13,
1.185,0.08,0.04,1.22,-0.66,0.45,2.13,
1.186,0.07,0.03,1.23,-0.66,0.45,2.13,
1.186,0.07,0.03,1.23,-0.75,0.47,2.16,
1.186,0.07,0.03,1.23,-0.75,0.47,2.16,
1.187,0.06,0.03,1.24,-0.75,0.47,2.16,
1.187,0.06,0.03,1.24,-0.83,0.44,2.25,
1.189,0.07,0.03,1.25,-0.83,0.44,2.25,
1.192,0.06,0.02,1.27,-0.83,0.44,2.25,
1.192,0.06,0.02,1.27,-0.91,0.40,2.37,
1.203,0.07,0.01,1.28,-0.91,0.40,2.37,
1.204,0.08,0.01,1.29,-0.91,0.40,2.37,
1.204,0.08,0.01,1.29,-0.92,0.32,2.60,
1.204,0.08,0.01,1.29,-0.92,0.32,2.60,
1.204,0.08,0.00,1.30,-0.92,0.32,2.60,
1.204,0.08,0.00,1.30,-0.84,0.22,2.80,
1.205,0.09,-0.00,1.31,-0.84,0.22,2.80,
1.206,0.09,-0.01,1.31,-0.84,0.22,2.80,
1.207,0.09,-0.01,1.31,-0.74,0.16,2.96,
1.209,0.10,-0.02,1.32,-0.74,0.16,2.96,
1.217,0.10,-0.01,1.32,-0.74,0.16,2.96,
1.218,0.10,-0.01,1.32,-0.68,0.03,3.06,
1.218,0.11,-0.01,1.33,-0.68,0.03,3.06,
1.218,0.11,-0.02,1.33,-0.68,0.03,3.06,
1.218,0.11,-0.02,1.33,-0.57,-0.07,3.15,
1.219,0.11,-0.03,1.33,-0.57,-0.07,3.15,
1.221,0.12,-0.03,1.33,-0.57,-0.07,3.15,
1.221,0.12,-0.03,1.33,-0.48,-0.11,3.23,
1.224,0.11,-0.03,1.33,-0.48,-0.11,3.23,
1.226,0.11,-0.04,1.32,-0.48,-0.11,3.23,
1.226,0.11,-0.04,1.32,-0.43,-0.20,3.21,
1.234,0.11,-0.05,1.31,-0.43,-0.20,3.21,
1.234,0.11,-0.05,1.31,-0.43,-0.20,3.21,
1.235,0.11,-0.05,1.31,-0.42,-0.32,3.15,
1.235,0.11,-0.05,1.29,-0.42,-0.32,3.15,
1.236,0.11,-0.05,1.29,-0.42,-0.46,3.03,
1.236,0.10,-0.06,1.28,-0.42,-0.46,3.03,
1.238,0.10,-0.06,1.27,-0.42,-0.46,3.03,
1.241,0.09,-0.07,1.26,-0.42,-0.46,3.03,
1.241,0.09,-0.07,1.26,-0.46,-0.51,2.80,
1.243,0.09,-0.06,1.24,-0.46,-0.51,2.80,
1.251,0.09,-0.06,1.22,-0.46,-0.51,2.80,
1.252,0.09,-0.06,1.22,-0.48,-0.61,2.51,
1.252,0.09,-0.05,1.21,-0.48,-0.61,2.51,
1.253,0.08,-0.05,1.19,-0.48,-0.61,2.51,
1.253,0.08,-0.05,1.19,-0.55,-0.61,2.21,
1.253,0.08,-0.05,1.17,-0.55,-0.61,2.21,
1.256,0.08,-0.04,1.15,-0.55,-0.61,2.21,
1.256,0.08,-0.04,1.15,-0.55,-0.54,1.88,
1.258,0.08,-0.03,1.14,-0.55,-0.54,1.88,
1.269,0.08,-0.03,1.14,-0.58,-0.46,1.51,
1.27,0.07,-0.03,1.13,-0.58,-0.46,1.51,
1.271,0.07,-0.02,1.10,-0.58,-0.46,1.51,
1.271,0.07,-0.01,1.09,-0.58,-0.46,1.51,
1.272,0.07,-0.01,1.09,-0.60,-0.33,1.20,
1.272,0.07,-0.01,1.07,-0.60,-0.33,1.20,
1.272,0.07,-0.01,1.07,-0.64,-0.25,0.83,
1.273,0.07,-0.00,1.05,-0.64,-0.25,0.83,
1.274,0.08,0.01,1.05,-0.64,-0.25,0.83,
1.276,0.08,0.01,1.03,-0.64,-0.25,0.83,
1.276,0.08,0.01,1.03,-0.59,-0.17,0.51,
1.295,0.08,0.02,1.02,-0.59,-0.17,0.51,
1.297,0.09,0.03,1.01,-0.59,-0.17,0.51,
1.297,0.09,0.03,1.01,-0.50,-0.08,0.27,
1.298,0.10,0.04,1.01,-0.50,-0.08,0.27,
1.299,0.10,0.04,1.01,-0.39,0.04,0.09,
1.299,0.10,0.04,1.01,-0.39,0.04,0.09,
1.299,0.11,0.05,1.01,-0.39,0.04,0.09,
1.3,0.12,0.07,1.01,-0.39,0.04,0.09,
1.301,0.12,0.07,1.01,-0.27,0.18,0.00,
1.302,0.13,0.07,1.01,-0.27,0.18,0.00,
1.302,0.13,0.08,1.00,-0.27,0.18,0.00,
1.302,0.13,0.08,1.00,-0.08,0.34,-0.05,
1.303,0.14,0.08,1.01,-0.08,0.34,-0.05,
1.303,0.14,0.09,1.01,-0.08,0.34,-0.05,
1.304,0.14,0.09,1.01,0.05,0.48,-0.04,
1.304,0.14,0.09,1.00,0.05,0.48,-0.04,
1.306,0.15,0.09,1.00,0.05,0.48,-0.04,
1.307,0.15,0.09,1.00,0.14,0.51,-0.04,
1.309,0.15,0.09,1.01,0.14,0.51,-0.04,
1.311,0.16,0.08,1.00,0.14,0.51,-0.04,
1.311,0.16,0.08,1.00,0.20,0.52,-0.07,
1.314,0.16,0.08,1.00,0.20,0.52,-0.07,
1.316,0.16,0.08,1.00,0.20,0.52,-0.07,
1.319,0.16,0.08,1.00,0.30,0.47,-0.05,
1.319,0.17,0.08,1.00,0.30,0.47,-0.05,
1.321,0.16,0.08,0.99,0.30,0.47,-0.05,
1.321,0.16,0.08,0.99,0.36,0.43,-0.10,
1.324,0.16,0.07,1.00,0.36,0.43,-0.10,
1.326,0.16,0.07,0.99,0.36,0.43,-0.10,
1.326,0.16,0.07,0.99,0.41,0.34,-0.13,
1.33,0.16,0.07,0.98,0.41,0.34,-0.13,
1.331,0.15,0.07,0.97,0.41,0.34,-0.13,
1.331,0.15,0.07,0.97,0.38,0.28,-0.16,
1.333,0.15,0.07,0.96,0.38,0.28,-0.16,
1.335,0.14,0.07,0.96,0.38,0.28,-0.16,
1.336,0.14,0.07,0.96,0.30,0.20,-0.34,
1.339,0.13,0.06,0.96,0.30,0.20,-0.34,
1.341,0.13,0.06,0.95,0.30,0.20,-0.34,
1.341,0.13,0.06,0.95,0.23,0.18,-0.50,
1.343,0.12,0.05,0.95,0.23,0.18,-0.50,
1.347,0.12,0.04,0.95,0.23,0.18,-0.50,
1.348,0.12,0.04,0.95,0.14,0.11,-0.57,
1.348,0.12,0.03,0.97,0.14,0.11,-0.57,
1.35,0.12,0.03,0.98,0.14,0.11,-0.57,
1.351,0.12,0.03,0.98,0.03,-0.04,-0.59,
1.353,0.12,0.03,0.99,0.03,-0.04,-0.59,
1.357,0.12,0.01,1.00,0.03,-0.04,-0.59,
1.357,0.12,0.01,1.00,0.06,-0.21,-0.38,
1.359,0.12,0.01,1.01,0.06,-0.21,-0.38,
1.36,0.12,0.00,1.02,0.06,-0.21,-0.38,
1.36,0.12,0.00,1.02,0.09,-0.33,-0.18,
1.363,0.12,-0.01,1.03,0.09,-0.33,-0.18,
1.365,0.12,-0.02,1.04,0.09,-0.33,-0.18,
1.366,0.12,-0.02,1.04,0.02,-0.49,0.02,
1.368,0.12,-0.02,1.05,0.02,-0.49,0.02,
1.37,0.13,-0.03,1.06,0.02,-0.49,0.02,
1.371,0.13,-0.03,1.06,0.04,-0.67,0.23,
1.373,0.12,-0.03,1.06,0.04,-0.67,0.23,
1.376,0.13,-0.03,1.06,0.04,-0.67,0.23,
1.376,0.13,-0.03,1.06,0.09,-0.83,0.43,
1.378,0.12,-0.03,1.07,0.09,-0.83,0.43,
1.383,0.12,-0.03,1.07,0.09,-0.83,0.43,
1.383,0.12,-0.03,1.07,0.11,-0.89,0.49,
1.383,0.12,-0.04,1.06,0.11,-0.89,0.49,
1.385,0.12,-0.04,1.06,0.07,-0.92,0.59,
1.385,0.11,-0.04,1.07,0.07,-0.92,0.59,
1.388,0.11,-0.05,1.07,0.07,-0.92,0.59,
1.39,0.11,-0.04,1.07,0.07,-0.92,0.59,
1.391,0.11,-0.04,1.07,0.05,-1.04,0.55,
1.393,0.11,-0.03,1.07,0.05,-1.04,0.55,
1.395,0.10,-0.03,1.08,0.05,-1.04,0.55,
1.396,0.10,-0.03,1.08,0.01,-1.13,0.56,
1.398,0.11,-0.02,1.08,0.01,-1.13,0.56,
1.4,0.11,-0.02,1.08,-0.02,-1.04,0.65,
1.4,0.11,-0.01,1.09,-0.02,-1.04,0.65,
1.402,0.11,0.02,1.10,-0.02,-1.04,0.65,
1.405,0.10,0.04,1.09,-0.02,-1.04,0.65,
1.405,0.10,0.04,1.09,-0.02,-0.90,0.74,
1.408,0.10,0.07,1.09,-0.02,-0.90,0.74,
1.411,0.10,0.07,1.09,-0.02,-0.53,0.83,
1.411,0.11,0.10,1.10,-0.02,-0.53,0.83,
1.412,0.11,0.11,1.11,-0.02,-0.53,0.83,
1.415,0.11,0.11,1.11,0.00,-0.07,0.83,
1.416,0.11,0.12,1.11,0.00,-0.07,0.83,
1.418,0.12,0.13,1.10,0.00,-0.07,0.83,
1.42,0.11,0.13,1.09,0.00,-0.07,0.83,
1.42,0.11,0.13,1.09,0.08,0.19,0.94,
1.423,0.11,0.13,1.08,0.08,0.19,0.94,
1.426,0.11,0.12,1.06,0.08,0.19,0.94,
1.426,0.11,0.12,1.06,0.15,0.25,0.85,
1.428,0.10,0.11,1.04,0.15,0.25,0.85,
1.429,0.10,0.11,1.01,0.15,0.25,0.85,
1.43,0.10,0.11,1.01,0.14,0.16,0.60,
1.433,0.09,0.10,0.98,0.14,0.16,0.60,
1.436,0.09,0.10,0.98,0.06,-0.07,0.12,
1.436,0.09,0.10,0.96,0.06,-0.07,0.12,
1.437,0.09,0.09,0.93,0.06,-0.07,0.12,
1.44,0.09,0.10,0.90,0.06,-0.07,0.12,
1.441,0.09,0.10,0.90,0.04,-0.24,-0.38,
1.442,0.09,0.10,0.88,0.04,-0.24,-0.38,
1.445,0.09,0.11,0.86,0.04,-0.24,-0.38,
1.445,0.09,0.11,0.86,0.06,-0.34,-0.91,
1.448,0.10,0.12,0.83,0.06,-0.34,-0.91,
1.45,0.09,0.13,0.81,0.06,-0.34,-0.91,
1.45,0.09,0.13,0.81,0.11,-0.29,-1.36,
1.452,0.09,0.14,0.79,0.11,-0.29,-1.36,
1.455,0.09,0.15,0.77,0.11,-0.29,-1.36,
1.456,0.09,0.15,0.77,0.14,-0.17,-1.81,
1.457,0.09,0.16,0.75,0.14,-0.17,-1.81,
1.46,0.09,0.16,0.75,0.11,-0.08,-2.20,
1.46,0.08,0.17,0.74,0.11,-0.08,-2.20,
1.463,0.07,0.18,0.73,0.11,-0.08,-2.20,
1.465,0.07,0.18,0.72,0.11,-0.08,-2.20,
1.465,0.07,0.18,0.72,0.02,0.04,-2.52,
1.468,0.06,0.18,0.73,0.02,0.04,-2.52,
1.469,0.06,0.19,0.74,0.02,0.04,-2.52,
1.47,0.06,0.19,0.74,-0.08,0.16,-2.68,
1.472,0.05,0.19,0.75,-0.08,0.16,-2.68,
1.475,0.05,0.20,0.78,-0.08,0.16,-2.68,
1.475,0.05,0.20,0.78,-0.20,0.16,-2.58,
1.477,0.05,0.20,0.80,-0.20,0.16,-2.58,
1.48,0.05,0.20,0.82,-0.20,0.16,-2.58,
1.48,0.05,0.20,0.82,-0.27,0.19,-2.27,
1.483,0.04,0.20,0.85,-0.27,0.19,-2.27,
1.49,0.04,0.20,0.87,-0.27,0.19,-2.27,
1.491,0.04,0.20,0.87,-0.32,0.20,-1.83,
1.491,0.04,0.20,0.89,-0.32,0.20,-1.83,
1.491,0.04,0.19,0.90,-0.32,0.20,-1.83,
1.492,0.04,0.19,0.90,-0.44,0.14,-1.35,
1.492,0.04,0.18,0.92,-0.44,0.14,-1.35,
1.494,0.05,0.16,0.93,-0.44,0.14,-1.35,
1.494,0.05,0.16,0.93,-0.44,0.05,-0.97,
1.499,0.06,0.15,0.93,-0.44,0.05,-0.97,
1.499,0.07,0.14,0.92,-0.44,0.05,-0.97,
1.5,0.07,0.14,0.92,-0.39,-0.19,-0.69,
1.501,0.08,0.12,0.92,-0.39,-0.19,-0.69,
1.505,0.08,0.12,0.92,-0.23,-0.50,-0.64,
1.505,0.10,0.10,0.91,-0.23,-0.50,-0.64,
1.507,0.11,0.10,0.90,-0.23,-0.50,-0.64,
1.509,0.11,0.10,0.90,-0.04,-0.82,-0.74,
1.51,0.10,0.09,0.89,-0.04,-0.82,-0.74,
1.512,0.11,0.10,0.88,-0.04,-0.82,-0.74,
1.516,0.11,0.11,0.87,-0.04,-0.82,-0.74,
1.516,0.11,0.11,0.87,0.15,-1.01,-0.95,
1.517,0.12,0.13,0.86,0.15,-1.01,-0.95,
1.52,0.13,0.13,0.86,0.15,-1.01,-0.95,
1.52,0.13,0.13,0.86,0.20,-0.95,-1.10,
1.522,0.13,0.14,0.86,0.20,-0.95,-1.10,
1.524,0.13,0.15,0.86,0.20,-0.95,-1.10,
1.524,0.13,0.15,0.86,0.33,-0.73,-1.23,
1.526,0.13,0.16,0.86,0.33,-0.73,-1.23,
1.529,0.13,0.18,0.87,0.33,-0.73,-1.23,
1.529,0.13,0.18,0.87,0.39,-0.58,-1.21,
1.532,0.13,0.18,0.87,0.39,-0.58,-1.21,
1.534,0.13,0.18,0.87,0.39,-0.58,-1.21,
1.535,0.13,0.18,0.87,0.36,-0.40,-1.17,
1.536,0.13,0.19,0.87,0.36,-0.40,-1.17,
1.539,0.12,0.20,0.87,0.36,-0.40,-1.17,
1.539,0.12,0.20,0.87,0.30,-0.28,-1.12,
1.542,0.12,0.20,0.87,0.30,-0.28,-1.12,
1.544,0.13,0.20,0.87,0.30,-0.28,-1.12,
1.545,0.13,0.20,0.87,0.27,-0.20,-1.14,
1.547,0.12,0.20,0.88,0.27,-0.20,-1.14,
1.55,0.12,0.20,0.89,0.27,-0.20,-1.14,
1.55,0.12,0.20,0.89,0.24,-0.16,-1.09,
1.551,0.13,0.19,0.89,0.24,-0.16,-1.09,
1.554,0.12,0.18,0.90,0.24,-0.16,-1.09,
1.554,0.12,0.18,0.90,0.17,-0.20,-0.97,
1.557,0.12,0.17,0.90,0.17,-0.20,-0.97,
1.559,0.12,0.17,0.90,0.20,-0.33,-0.83,
1.56,0.12,0.16,0.92,0.20,-0.33,-0.83,
1.561,0.12,0.15,0.92,0.20,-0.33,-0.83,
1.566,0.12,0.15,0.92,0.20,-0.33,-0.83,
1.566,0.12,0.15,0.92,0.19,-0.53,-0.69,
1.566,0.12,0.14,0.93,0.19,-0.53,-0.69,
1.568,0.12,0.14,0.95,0.19,-0.53,-0.69,
1.569,0.12,0.14,0.95,0.17,-0.71,-0.58,
1.572,0.12,0.14,0.96,0.17,-0.71,-0.58,
1.573,0.12,0.14,0.98,0.17,-0.71,-0.58,
1.573,0.12,0.14,0.98,0.13,-0.83,-0.39,
1.577,0.12,0.14,0.99,0.13,-0.83,-0.39,
1.579,0.12,0.14,0.99,0.08,-0.88,-0.08,
1.579,0.11,0.14,1.00,0.08,-0.88,-0.08,
1.582,0.11,0.14,1.00,0.08,-0.88,-0.08,
1.584,0.11,0.14,1.00,-0.02,-0.88,0.16,
1.584,0.11,0.14,1.00,-0.02,-0.88,0.16,
1.586,0.10,0.15,1.01,-0.02,-0.88,0.16,
1.589,0.11,0.16,1.01,-0.02,-0.88,0.16,
1.589,0.11,0.16,1.01,-0.06,-0.87,0.26,
1.591,0.10,0.17,1.00,-0.06,-0.87,0.26,
1.594,0.10,0.19,0.99,-0.06,-0.87,0.26,
1.594,0.10,0.19,0.99,-0.12,-0.77,0.29,
1.596,0.09,0.19,0.99,-0.12,-0.77,0.29,
1.603,0.08,0.20,0.97,-0.12,-0.77,0.29,
1.603,0.08,0.20,0.97,-0.19,-0.55,0.20,
1.603,0.07,0.21,0.95,-0.19,-0.55,0.20,
1.604,0.07,0.21,0.93,-0.19,-0.55,0.20,
1.604,0.07,0.21,0.93,-0.35,-0.38,0.06,
1.606,0.06,0.21,0.91,-0.35,-0.38,0.06,
1.607,0.06,0.21,0.91,-0.46,-0.28,-0.31,
1.608,0.05,0.22,0.89,-0.46,-0.28,-0.31,
1.61,0.04,0.22,0.87,-0.46,-0.28,-0.31,
1.613,0.04,0.23,0.86,-0.46,-0.28,-0.31,
1.613,0.04,0.23,0.86,-0.58,-0.28,-0.70,
1.615,0.03,0.23,0.85,-0.58,-0.28,-0.70,
1.617,0.03,0.22,0.84,-0.58,-0.28,-0.70,
1.617,0.03,0.22,0.84,-0.76,-0.20,-1.04,
1.62,0.02,0.22,0.83,-0.76,-0.20,-1.04,
1.622,0.02,0.23,0.82,-0.76,-0.20,-1.04,
1.622,0.02,0.23,0.82,-0.83,-0.22,-1.27,
1.625,0.02,0.23,0.81,-0.83,-0.22,-1.27,
1.627,0.02,0.23,0.80,-0.83,-0.22,-1.27,
1.627,0.02,0.23,0.80,-0.90,-0.20,-1.43,
1.63,0.02,0.23,0.80,-0.90,-0.20,-1.43,
1.632,0.02,0.23,0.80,-0.90,-0.20,-1.43,
1.633,0.02,0.23,0.80,-0.90,-0.19,-1.62,
1.635,0.02,0.22,0.80,-0.90,-0.19,-1.62,
1.637,0.03,0.22,0.80,-0.90,-0.19,-1.62,
1.637,0.03,0.22,0.80,-0.89,-0.22,-1.69,
1.639,0.03,0.22,0.79,-0.89,-0.22,-1.69,
1.643,0.03,0.22,0.79,-0.84,-0.30,-1.70,
1.644,0.03,0.21,0.80,-0.84,-0.30,-1.70,
1.645,0.03,0.21,0.80,-0.84,-0.30,-1.70,
1.649,0.04,0.21,0.80,-0.84,-0.30,-1.70,
1.65,0.04,0.21,0.80,-0.77,-0.39,-1.70,
1.65,0.04,0.22,0.80,-0.77,-0.39,-1.70,
1.653,0.04,0.22,0.80,-0.70,-0.43,-1.68,
1.654,0.03,0.22,0.80,-0.70,-0.43,-1.68,
1.655,0.03,0.22,0.81,-0.70,-0.43,-1.68,
1.658,0.04,0.22,0.81,-0.70,-0.43,-1.68,
1.658,0.04,0.22,0.81,-0.70,-0.34,-1.62,
1.659,0.03,0.22,0.82,-0.70,-0.34,-1.62,
1.662,0.03,0.21,0.83,-0.70,-0.34,-1.62,
1.663,0.03,0.21,0.83,-0.66,-0.31,-1.54,
1.667,0.02,0.21,0.84,-0.66,-0.31,-1.54,
1.667,0.02,0.20,0.86,-0.66,-0.31,-1.54,
1.668,0.02,0.20,0.86,-0.71,-0.34,-1.41,
1.67,0.02,0.20,0.86,-0.71,-0.34,-1.41,
1.672,0.02,0.19,0.88,-0.71,-0.34,-1.41,
1.672,0.02,0.19,0.88,-0.76,-0.45,-1.17,
1.675,0.02,0.18,0.89,-0.76,-0.45,-1.17,
1.677,0.03,0.17,0.89,-0.76,-0.45,-1.17,
1.678,0.03,0.17,0.89,-0.80,-0.54,-0.94,
1.68,0.03,0.16,0.89,-0.80,-0.54,-0.94,
1.682,0.03,0.16,0.89,-0.72,-0.74,-0.81,
1.683,0.03,0.15,0.88,-0.72,-0.74,-0.81,
1.684,0.04,0.14,0.88,-0.72,-0.74,-0.81,
1.688,0.04,0.12,0.87,-0.72,-0.74,-0.81,
1.688,0.04,0.12,0.87,-0.66,-0.93,-0.82,
1.69,0.04,0.12,0.87,-0.66,-0.93,-0.82,
1.692,0.03,0.11,0.85,-0.66,-0.93,-0.82,
1.692,0.03,0.11,0.85,-0.55,-1.16,-0.91,
1.695,0.03,0.11,0.85,-0.55,-1.16,-0.91,
1.703,0.03,0.12,0.84,-0.55,-1.16,-0.91,
1.703,0.03,0.12,0.84,-0.55,-1.32,-1.05,
1.704,0.03,0.13,0.84,-0.55,-1.32,-1.05,
1.704,0.03,0.15,0.83,-0.55,-1.32,-1.05,
1.704,0.03,0.15,0.83,-0.60,-1.30,-1.20,
1.704,0.03,0.16,0.83,-0.60,-1.30,-1.20,
1.707,0.03,0.16,0.83,-0.63,-1.08,-1.29,
1.707,0.02,0.18,0.84,-0.63,-1.08,-1.29,
1.709,0.02,0.20,0.85,-0.63,-1.08,-1.29,
1.712,0.02,0.21,0.86,-0.63,-1.08,-1.29,
1.712,0.02,0.21,0.86,-0.65,-0.78,-1.30,
1.714,0.02,0.23,0.86,-0.65,-0.78,-1.30,
1.718,0.02,0.24,0.87,-0.65,-0.78,-1.30,
1.718,0.02,0.24,0.87,-0.71,-0.45,-1.13,
1.719,0.02,0.25,0.87,-0.71,-0.45,-1.13,
1.723,0.03,0.25,0.87,-0.71,-0.45,-1.13,
1.723,0.03,0.25,0.87,-0.71,-0.19,-0.98,
1.725,0.03,0.26,0.87,-0.71,-0.19,-0.98,
1.727,0.03,0.27,0.87,-0.71,-0.19,-0.98,
1.727,0.03,0.27,0.87,-0.66,-0.01,-0.94,
1.73,0.04,0.27,0.87,-0.66,-0.01,-0.94,
1.732,0.04,0.27,0.87,-0.58,0.12,-0.92,
1.733,0.05,0.27,0.88,-0.58,0.12,-0.92,
1.735,0.07,0.27,0.88,-0.58,0.12,-0.92,
1.737,0.07,0.27,0.87,-0.58,0.12,-0.92,
1.738,0.07,0.27,0.87,-0.42,0.18,-0.87,
1.739,0.08,0.26,0.87,-0.42,0.18,-0.87,
1.742,0.08,0.26,0.87,-0.20,0.14,-0.89,
1.742,0.10,0.26,0.87,-0.20,0.14,-0.89,
1.745,0.10,0.25,0.86,-0.20,0.14,-0.89,
1.747,0.11,0.25,0.86,-0.20,0.14,-0.89,
1.747,0.11,0.25,0.86,0.00,0.05,-0.94,
1.75,0.11,0.24,0.86,0.00,0.05,-0.94,
1.752,0.11,0.24,0.86,0.15,-0.02,-0.98,
1.752,0.11,0.23,0.86,0.15,-0.02,-0.98,
1.754,0.11,0.22,0.87,0.15,-0.02,-0.98,
1.756,0.11,0.22,0.87,0.22,-0.21,-1.00,
1.757,0.11,0.21,0.88,0.22,-0.21,-1.00,
1.759,0.10,0.20,0.89,0.22,-0.21,-1.00,
1.762,0.09,0.20,0.90,0.22,-0.21,-1.00,
1.763,0.09,0.20,0.90,0.23,-0.37,-0.86,
1.765,0.08,0.19,0.91,0.23,-0.37,-0.86,
1.767,0.06,0.19,0.92,0.23,-0.37,-0.86,
1.768,0.06,0.19,0.92,0.07,-0.54,-0.69,
1.769,0.05,0.19,0.93,0.07,-0.54,-0.69,
1.772,0.04,0.18,0.93,0.07,-0.54,-0.69,
1.772,0.04,0.18,0.93,-0.15,-0.63,-0.48,
1.774,0.03,0.18,0.94,-0.15,-0.63,-0.48,
1.777,0.01,0.18,0.93,-0.15,-0.63,-0.48,
1.777,0.01,0.18,0.93,-0.36,-0.68,-0.35,
1.779,0.00,0.18,0.94,-0.36,-0.68,-0.35,
1.781,0.00,0.18,0.94,-0.58,-0.72,-0.28,
1.781,-0.00,0.18,0.93,-0.58,-0.72,-0.28,
1.784,-0.01,0.17,0.93,-0.58,-0.72,-0.28,
1.786,-0.01,0.17,0.92,-0.58,-0.72,-0.28,
1.787,-0.01,0.17,0.92,-0.74,-0.76,-0.28,
1.789,-0.01,0.17,0.91,-0.74,-0.76,-0.28,
1.792,-0.01,0.17,0.91,-0.74,-0.76,-0.28,
1.792,-0.01,0.17,0.91,-0.80,-0.86,-0.39,
1.794,-0.01,0.18,0.90,-0.80,-0.86,-0.39,
1.795,-0.01,0.18,0.90,-0.80,-0.86,-0.39,
1.796,-0.01,0.18,0.90,-0.83,-0.83,-0.50,
1.806,-0.01,0.19,0.89,-0.83,-0.83,-0.50,
1.807,-0.01,0.20,0.89,-0.83,-0.83,-0.50,
1.807,-0.01,0.20,0.89,-0.80,-0.73,-0.63,
1.808,-0.01,0.21,0.89,-0.80,-0.73,-0.63,
1.808,-0.01,0.21,0.89,-0.77,-0.61,-0.74,
1.808,-0.00,0.22,0.87,-0.77,-0.61,-0.74,
1.809,0.00,0.23,0.88,-0.77,-0.61,-0.74,
1.81,0.01,0.23,0.88,-0.77,-0.61,-0.74,
1.813,0.01,0.23,0.88,-0.71,-0.40,-0.81,
1.821,0.01,0.24,0.88,-0.71,-0.40,-0.81,
1.822,0.01,0.25,0.88,-0.71,-0.40,-0.81,
1.822,0.01,0.25,0.88,-0.60,-0.28,-0.79,
1.823,0.02,0.26,0.89,-0.60,-0.28,-0.79,
1.823,0.02,0.27,0.90,-0.60,-0.28,-0.79,
1.823,0.02,0.27,0.90,-0.51,-0.13,-0.76,
1.823,0.02,0.29,0.91,-0.51,-0.13,-0.76,
1.825,0.03,0.31,0.93,-0.51,-0.13,-0.76,
1.826,0.03,0.31,0.93,-0.47,0.07,-0.62,
1.827,0.04,0.32,0.95,-0.47,0.07,-0.62,
1.83,0.05,0.31,0.96,-0.47,0.07,-0.62,
1.83,0.05,0.31,0.96,-0.40,0.40,-0.36,
1.833,0.06,0.30,0.96,-0.40,0.40,-0.36,
1.836,0.07,0.28,0.96,-0.40,0.40,-0.36,
1.836,0.07,0.28,0.96,-0.24,0.48,-0.09,
1.838,0.08,0.26,0.96,-0.24,0.48,-0.09,
1.841,0.09,0.24,0.95,-0.24,0.48,-0.09,
1.841,0.09,0.24,0.95,0.02,0.23,-0.03,
1.843,0.10,0.22,0.95,0.02,0.23,-0.03,
1.846,0.10,0.19,0.94,0.02,0.23,-0.03,
1.846,0.10,0.19,0.94,0.22,-0.20,-0.04,
1.848,0.10,0.19,0.93,0.22,-0.20,-0.04,
1.851,0.10,0.19,0.94,0.22,-0.20,-0.04,
1.852,0.10,0.19,0.94,0.36,-0.62,-0.15,
1.853,0.09,0.19,0.93,0.36,-0.62,-0.15,
1.855,0.08,0.20,0.93,0.36,-0.62,-0.15,
1.856,0.08,0.20,0.93,0.35,-0.83,-0.22,
1.858,0.06,0.22,0.92,0.35,-0.83,-0.22,
1.86,0.05,0.24,0.93,0.35,-0.83,-0.22,
1.861,0.05,0.24,0.93,0.23,-0.74,-0.30,
1.863,0.04,0.25,0.93,0.23,-0.74,-0.30,
1.866,0.03,0.26,0.93,0.23,-0.74,-0.30,
1.867,0.03,0.26,0.93,-0.00,-0.46,-0.31,
1.867,0.03,0.28,0.92,-0.00,-0.46,-0.31,
1.87,0.02,0.28,0.92,-0.00,-0.46,-0.31,
1.871,0.02,0.28,0.92,-0.18,-0.16,-0.29,
1.873,0.02,0.28,0.92,-0.18,-0.16,-0.29,
1.875,0.02,0.28,0.92,-0.18,-0.16,-0.29,
1.875,0.02,0.28,0.92,-0.27,0.02,-0.38,
1.878,0.02,0.28,0.91,-0.27,0.02,-0.38,
1.88,0.02,0.28,0.91,-0.27,0.02,-0.38,
1.881,0.02,0.28,0.91,-0.29,0.03,-0.37,
1.883,0.01,0.27,0.91,-0.29,0.03,-0.37,
1.885,0.01,0.28,0.90,-0.29,0.03,-0.37,
1.885,0.01,0.28,0.90,-0.29,0.04,-0.46,
1.888,0.00,0.28,0.91,-0.29,0.04,-0.46,
1.889,-0.01,0.29,0.91,-0.29,0.04,-0.46,
1.889,-0.01,0.29,0.91,-0.34,-0.01,-0.52,
1.893,-0.01,0.29,0.92,-0.34,-0.01,-0.52,
1.895,-0.01,0.30,0.92,-0.34,-0.01,-0.52,
1.895,-0.01,0.30,0.92,-0.44,0.06,-0.48,
1.898,-0.01,0.30,0.92,-0.44,0.06,-0.48,
1.9,-0.01,0.30,0.92,-0.44,0.06,-0.48,
1.901,-0.01,0.30,0.92,-0.47,0.16,-0.38,
1.903,-0.01,0.31,0.92,-0.47,0.16,-0.38,
1.905,-0.01,0.31,0.92,-0.45,0.21,-0.37,
1.905,-0.01,0.30,0.91,-0.45,0.21,-0.37,
1.908,-0.00,0.29,0.91,-0.45,0.21,-0.37,
1.91,-0.00,0.29,0.90,-0.45,0.21,-0.37,
1.91,-0.00,0.29,0.90,-0.43,0.23,-0.43,
1.912,-0.01,0.28,0.89,-0.43,0.23,-0.43,
1.915,-0.01,0.28,0.88,-0.43,0.23,-0.43,
1.915,-0.01,0.28,0.88,-0.39,0.08,-0.53,
1.92,-0.01,0.28,0.88,-0.39,0.08,-0.53,
1.92,-0.02,0.27,0.88,-0.39,0.08,-0.53,
1.921,-0.02,0.27,0.88,-0.40,-0.01,-0.70,
1.922,-0.02,0.27,0.87,-0.40,-0.01,-0.70,
1.924,-0.03,0.28,0.88,-0.40,-0.01,-0.70,
1.925,-0.03,0.28,0.88,-0.46,-0.06,-0.76,
1.927,-0.03,0.28,0.88,-0.46,-0.06,-0.76,
1.929,-0.03,0.28,0.88,-0.56,-0.07,-0.78,
1.929,-0.03,0.29,0.88,-0.56,-0.07,-0.78,
1.933,-0.03,0.29,0.88,-0.56,-0.07,-0.78,
1.935,-0.03,0.29,0.89,-0.56,-0.07,-0.78,
1.935,-0.03,0.29,0.89,-0.64,0.01,-0.77,
1.936,-0.03,0.28,0.90,-0.64,0.01,-0.77,
1.939,-0.03,0.28,0.91,-0.64,0.01,-0.77,
1.939,-0.03,0.28,0.91,-0.65,0.02,-0.65,
1.942,-0.02,0.28,0.92,-0.65,0.02,-0.65,
1.944,-0.02,0.28,0.93,-0.65,0.02,-0.65,
1.944,-0.02,0.28,0.93,-0.61,-0.04,-0.44,
1.946,-0.01,0.28,0.93,-0.61,-0.04,-0.44,
1.949,-0.01,0.28,0.95,-0.61,-0.04,-0.44,
1.95,-0.01,0.28,0.95,-0.54,-0.05,-0.28,
1.951,-0.01,0.28,0.95,-0.54,-0.05,-0.28,
1.954,-0.01,0.28,0.95,-0.47,-0.08,-0.12,
1.955,-0.00,0.28,0.96,-0.47,-0.08,-0.12,
1.956,-0.00,0.28,0.97,-0.47,-0.08,-0.12,
1.959,-0.01,0.27,0.97,-0.47,-0.08,-0.12,
1.959,-0.01,0.27,0.97,-0.42,-0.06,0.01,
1.961,-0.01,0.27,0.97,-0.42,-0.06,0.01,
1.964,-0.01,0.26,0.96,-0.42,-0.06,0.01,
1.964,-0.01,0.26,0.96,-0.42,-0.15,0.14,
1.967,-0.01,0.26,0.97,-0.42,-0.15,0.14,
1.969,-0.01,0.27,0.97,-0.42,-0.15,0.14,
1.969,-0.01,0.27,0.97,-0.47,-0.23,0.13,
1.972,-0.01,0.27,0.98,-0.47,-0.23,0.13,
1.973,-0.01,0.27,0.98,-0.47,-0.23,0.13,
1.974,-0.01,0.27,0.98,-0.50,-0.23,0.19,
1.976,-0.01,0.28,0.99,-0.50,-0.23,0.19,
1.979,-0.01,0.28,0.99,-0.50,-0.23,0.19,
1.979,-0.01,0.28,0.99,-0.50,-0.18,0.29,
1.981,-0.01,0.29,1.00,-0.50,-0.18,0.29,
1.986,-0.01,0.29,1.00,-0.50,-0.18,0.29,
1.986,-0.01,0.29,1.00,-0.45,-0.11,0.35,
1.987,-0.01,0.29,1.01,-0.45,-0.11,0.35,
1.992,-0.01,0.29,1.02,-0.45,-0.11,0.35,
1.992,-0.01,0.29,1.02,-0.44,-0.04,0.48,
1.992,-0.01,0.29,1.03,-0.44,-0.04,0.48,
1.994,-0.00,0.29,1.04,-0.44,-0.04,0.48,
1.994,-0.00,0.29,1.04,-0.46,-0.03,0.62,
1.996,0.00,0.29,1.05,-0.46,-0.03,0.62,
2.001,0.00,0.28,1.05,-0.46,-0.03,0.62,
2.001,0.00,0.28,1.05,-0.43,-0.06,0.82,
2.001,0.01,0.28,1.05,-0.43,-0.06,0.82,
2.004,0.01,0.28,1.05,-0.35,-0.11,0.97,
2.004,0.01,0.28,1.05,-0.35,-0.11,0.97,
2.007,0.01,0.27,1.05,-0.35,-0.11,0.97,
2.009,0.00,0.27,1.05,-0.35,-0.11,0.97,
2.009,0.00,0.27,1.05,-0.27,-0.18,1.01,
2.013,0.00,0.27,1.04,-0.27,-0.18,1.01,
2.014,0.00,0.27,1.04,-0.32,-0.24,0.97,
2.015,-0.00,0.28,1.03,-0.32,-0.24,0.97,
2.022,-0.01,0.29,1.02,-0.32,-0.24,0.97,
2.022,-0.01,0.30,1.01,-0.32,-0.24,0.97,
2.022,-0.01,0.30,1.01,-0.34,-0.18,0.84,
2.023,-0.01,0.31,1.00,-0.34,-0.18,0.84,
2.025,-0.01,0.33,0.99,-0.34,-0.18,0.84,
2.025,-0.01,0.33,0.99,-0.40,-0.02,0.66,
2.027,-0.00,0.33,0.97,-0.40,-0.02,0.66,
2.029,-0.00,0.33,0.97,-0.39,0.19,0.44,
2.029,0.01,0.34,0.95,-0.39,0.19,0.44,
2.032,0.01,0.34,0.94,-0.39,0.19,0.44,
2.034,0.02,0.34,0.92,-0.39,0.19,0.44,
2.035,0.02,0.34,0.92,-0.25,0.33,0.08,
2.036,0.03,0.34,0.91,-0.25,0.33,0.08,
2.038,0.03,0.34,0.90,-0.25,0.33,0.08,
2.039,0.03,0.34,0.90,-0.12,0.33,-0.18,
2.042,0.03,0.34,0.89,-0.12,0.33,-0.18,
2.044,0.03,0.34,0.88,-0.12,0.33,-0.18,
2.044,0.03,0.34,0.88,0.04,0.34,-0.42,
2.046,0.03,0.35,0.88,0.04,0.34,-0.42,
2.049,0.03,0.36,0.88,0.04,0.34,-0.42,
2.049,0.03,0.36,0.88,0.09,0.36,-0.60,
2.051,0.02,0.37,0.87,0.09,0.36,-0.60,
2.053,0.02,0.37,0.87,0.09,0.44,-0.65,
2.053,0.02,0.38,0.85,0.09,0.44,-0.65,
2.056,-0.01,0.39,0.86,0.09,0.44,-0.65,
2.059,-0.03,0.39,0.85,0.09,0.44,-0.65,
2.06,-0.03,0.39,0.85,0.00,0.63,-0.85,
2.061,-0.05,0.39,0.86,0.00,0.63,-0.85,
2.062,-0.08,0.37,0.86,0.00,0.63,-0.85,
2.063,-0.08,0.37,0.86,-0.36,0.78,-0.92,
2.069,-0.09,0.35,0.88,-0.36,0.78,-0.92,
2.07,-0.09,0.33,0.89,-0.36,0.78,-0.92,
2.07,-0.09,0.33,0.89,-0.79,0.69,-0.87,
2.07,-0.10,0.31,0.91,-0.79,0.69,-0.87,
2.073,-0.10,0.29,0.93,-0.79,0.69,-0.87,
2.073,-0.10,0.29,0.93,-1.02,0.32,-0.64,
2.076,-0.10,0.28,0.94,-1.02,0.32,-0.64,
2.078,-0.10,0.27,0.97,-1.02,0.32,-0.64,
2.078,-0.10,0.27,0.97,-1.10,-0.03,-0.30,
2.08,-0.09,0.28,0.99,-1.10,-0.03,-0.30,
2.089,-0.08,0.28,1.01,-1.10,-0.03,-0.30,
2.089,-0.08,0.28,1.01,-1.08,-0.28,0.09,
2.089,-0.06,0.29,1.02,-1.08,-0.28,0.09,
2.09,-0.05,0.30,1.03,-1.08,-0.28,0.09,
2.09,-0.05,0.30,1.03,-0.89,-0.27,0.55,
2.09,-0.04,0.30,1.04,-0.89,-0.27,0.55,
2.093,-0.02,0.31,1.04,-0.89,-0.27,0.55,
2.093,-0.02,0.31,1.04,-0.60,-0.11,0.74,
2.096,-0.02,0.31,1.04,-0.60,-0.11,0.74,
2.098,-0.02,0.31,1.04,-0.60,-0.11,0.74,
2.098,-0.02,0.31,1.04,-0.37,-0.00,0.88,
2.104,-0.01,0.31,1.03,-0.37,-0.00,0.88,
2.105,-0.01,0.31,1.03,-0.26,0.04,0.87,
2.105,-0.01,0.31,1.02,-0.26,0.04,0.87,
2.105,-0.02,0.31,1.03,-0.26,0.04,0.87,
2.107,-0.03,0.31,1.02,-0.26,0.04,0.87,
2.107,-0.03,0.31,1.02,-0.18,0.06,0.76,
2.11,-0.03,0.32,1.01,-0.18,0.06,0.76,
2.113,-0.04,0.32,1.01,-0.18,0.06,0.76,
2.113,-0.04,0.32,1.01,-0.30,0.08,0.72,
2.116,-0.05,0.32,1.00,-0.30,0.08,0.72,
2.121,-0.05,0.32,0.99,-0.30,0.08,0.72,
2.122,-0.05,0.32,0.99,-0.41,0.13,0.59,
2.122,-0.06,0.31,0.98,-0.41,0.13,0.59,
2.122,-0.05,0.31,0.97,-0.41,0.13,0.59,
2.123,-0.05,0.31,0.97,-0.59,0.13,0.46,
2.125,-0.04,0.31,0.95,-0.59,0.13,0.46,
2.128,-0.02,0.32,0.93,-0.59,0.13,0.46,
2.128,-0.02,0.32,0.93,-0.63,0.04,0.27,
2.13,-0.01,0.33,0.92,-0.63,0.04,0.27,
2.133,-0.00,0.33,0.90,-0.63,0.04,0.27,
2.133,-0.00,0.33,0.90,-0.40,0.03,-0.06,
2.146,0.00,0.33,0.88,-0.40,0.03,-0.06,
2.147,0.01,0.34,0.86,-0.40,0.03,-0.06,
2.147,0.01,0.34,0.86,-0.18,0.12,-0.37,
2.148,0.00,0.34,0.85,-0.18,0.12,-0.37,
2.153,0.00,0.34,0.83,-0.18,0.12,-0.37,
2.153,0.00,0.34,0.83,-0.11,0.17,-0.73,
2.153,0.01,0.34,0.81,-0.11,0.17,-0.73,
2.153,0.01,0.34,0.80,-0.11,0.17,-0.73,
2.153,0.01,0.34,0.80,-0.16,0.24,-1.01,
2.154,0.00,0.34,0.79,-0.16,0.24,-1.01,
2.154,0.00,0.35,0.77,-0.16,0.24,-1.01,
2.154,0.00,0.35,0.77,-0.17,0.21,-1.33,
2.155,0.00,0.35,0.76,-0.17,0.21,-1.33,
2.16,0.00,0.36,0.75,-0.17,0.21,-1.33,
2.161,0.00,0.36,0.75,-0.24,0.21,-1.64,
2.161,0.01,0.36,0.74,-0.24,0.21,-1.64,
