
time,ax,ay,az,gFx,gFy,gFz,
0.002,-0.06,-0.05,0.16,-0.03,0.09,0.97,
0.002,-0.02,-0.02,0.07,-0.03,0.09,0.97,
0.002,-0.02,-0.02,0.07,-0.03,0.09,0.97,
0.003,-0.02,-0.02,0.07,-0.03,0.10,0.97,
0.003,-0.01,0.00,-0.05,-0.03,0.10,0.97,
0.005,-0.01,0.00,-0.05,-0.03,0.10,0.96,
0.008,-0.01,0.00,-0.05,-0.03,0.10,0.96,
0.008,0.01,0.04,-0.12,-0.03,0.10,0.96,
0.01,0.01,0.04,-0.12,-0.03,0.10,0.96,
0.015,0.01,0.04,-0.12,-0.03,0.10,0.95,
0.015,0.03,0.05,-0.19,-0.03,0.10,0.95,
0.015,0.03,0.05,-0.19,-0.03,0.10,0.95,
0.017,0.03,0.05,-0.19,-0.03,0.10,0.95,
0.017,0.03,0.06,-0.24,-0.03,0.10,0.95,
0.019,0.03,0.06,-0.24,-0.03,0.10,0.95,
0.022,0.03,0.06,-0.24,-0.03,0.10,0.95,
0.022,0.02,0.07,-0.28,-0.03,0.10,0.95,
0.024,0.02,0.07,-0.28,-0.03,0.10,0.95,
0.027,0.02,0.07,-0.28,-0.03,0.10,0.95,
0.027,0.02,0.07,-0.29,-0.03,0.10,0.95,
0.029,0.02,0.07,-0.29,-0.03,0.10,0.95,
0.032,0.02,0.07,-0.29,-0.03,0.10,0.95,
0.032,0.01,0.08,-0.31,-0.03,0.10,0.95,
0.034,0.01,0.08,-0.31,-0.03,0.10,0.95,
0.037,0.01,0.08,-0.31,-0.03,0.10,0.95,
0.037,0.01,0.11,-0.31,-0.03,0.10,0.95,
0.039,0.01,0.11,-0.31,-0.03,0.10,0.95,
0.042,0.01,0.11,-0.31,-0.03,0.10,0.95,
0.042,-0.02,0.10,-0.28,-0.03,0.10,0.95,
0.045,-0.02,0.10,-0.28,-0.04,0.10,0.95,
0.047,-0.02,0.10,-0.28,-0.03,0.10,0.96,
0.047,-0.02,0.11,-0.25,-0.03,0.10,0.96,
0.049,-0.02,0.11,-0.25,-0.04,0.10,0.96,
0.051,-0.02,0.11,-0.25,-0.04,0.10,0.96,
0.052,-0.04,0.10,-0.21,-0.04,0.10,0.96,
0.054,-0.04,0.10,-0.21,-0.04,0.10,0.96,
0.056,-0.04,0.10,-0.21,-0.04,0.10,0.97,
0.056,-0.06,0.09,-0.16,-0.04,0.10,0.97,
0.059,-0.06,0.09,-0.16,-0.04,0.10,0.97,
0.061,-0.06,0.09,-0.16,-0.04,0.10,0.97,
0.062,-0.07,0.09,-0.12,-0.04,0.10,0.97,
0.063,-0.07,0.09,-0.12,-0.04,0.10,0.97,
0.066,-0.07,0.09,-0.12,-0.04,0.10,0.97,
0.066,-0.11,0.09,-0.08,-0.04,0.10,0.97,
0.068,-0.11,0.09,-0.08,-0.04,0.10,0.97,
0.071,-0.11,0.09,-0.08,-0.04,0.10,0.98,
0.071,-0.12,0.08,-0.05,-0.04,0.10,0.98,
0.073,-0.12,0.08,-0.05,-0.04,0.10,0.98,
0.076,-0.12,0.08,-0.05,-0.04,0.10,0.98,
0.076,-0.13,0.07,-0.01,-0.04,0.10,0.98,
0.078,-0.13,0.07,-0.01,-0.04,0.10,0.98,
0.081,-0.13,0.07,-0.01,-0.04,0.10,0.98,
0.081,-0.11,0.06,0.00,-0.04,0.10,0.98,
0.083,-0.11,0.06,0.00,-0.04,0.10,0.98,
0.086,-0.11,0.06,0.00,-0.04,0.09,0.98,
0.086,-0.11,0.06,0.01,-0.04,0.09,0.98,
0.088,-0.11,0.06,0.01,-0.04,0.09,0.98,
0.091,-0.11,0.06,0.01,-0.03,0.09,0.98,
0.091,-0.11,0.05,0.02,-0.03,0.09,0.98,
0.093,-0.11,0.05,0.02,-0.03,0.09,0.98,
0.096,-0.11,0.05,0.02,-0.03,0.09,0.98,
0.096,-0.06,0.03,0.02,-0.03,0.09,0.98,
0.098,-0.06,0.03,0.02,-0.03,0.09,0.98,
0.101,-0.06,0.03,0.02,-0.02,0.09,0.98,
0.101,-0.02,0.03,0.02,-0.02,0.09,0.98,
0.103,-0.02,0.03,0.02,-0.02,0.09,0.98,
0.105,-0.02,0.03,0.02,-0.02,0.09,0.98,
0.105,0.04,0.01,0.02,-0.02,0.09,0.98,
0.108,0.04,0.01,0.02,-0.02,0.09,0.98,
0.111,0.04,0.01,0.02,-0.02,0.09,0.98,
0.111,0.09,-0.00,0.02,-0.02,0.09,0.98,
0.118,0.09,-0.00,0.02,-0.01,0.09,0.98,
0.118,0.09,-0.00,0.02,-0.01,0.09,0.98,
0.119,0.13,-0.03,0.01,-0.01,0.09,0.98,
0.119,0.13,-0.03,0.01,-0.01,0.08,0.98,
0.12,0.13,-0.03,0.01,-0.01,0.08,0.98,
0.12,0.18,-0.05,0.03,-0.01,0.08,0.98,
0.122,0.18,-0.05,0.03,-0.01,0.08,0.98,
0.125,0.18,-0.05,0.03,-0.01,0.08,0.98,
0.125,0.21,-0.07,0.04,-0.01,0.08,0.98,
0.128,0.21,-0.07,0.04,-0.01,0.08,0.98,
0.131,0.21,-0.07,0.04,-0.00,0.08,0.98,
0.131,0.21,-0.09,0.04,-0.00,0.08,0.98,
0.132,0.21,-0.09,0.04,-0.00,0.08,0.98,
0.135,0.21,-0.09,0.04,-0.01,0.08,0.98,
0.135,0.24,-0.10,0.05,-0.01,0.08,0.98,
0.137,0.24,-0.10,0.05,-0.01,0.08,0.98,
0.14,0.24,-0.10,0.05,-0.01,0.08,0.98,
0.14,0.25,-0.12,0.05,-0.01,0.08,0.98,
0.142,0.25,-0.12,0.05,-0.01,0.08,0.99,
0.145,0.25,-0.12,0.05,-0.01,0.08,0.99,
0.146,0.23,-0.15,0.06,-0.01,0.08,0.99,
0.147,0.23,-0.15,0.06,-0.01,0.08,0.98,
0.149,0.23,-0.15,0.06,-0.01,0.08,0.98,
0.15,0.22,-0.15,0.08,-0.01,0.08,0.98,
0.152,0.22,-0.15,0.08,-0.01,0.08,0.98,
0.154,0.22,-0.15,0.08,-0.01,0.07,0.98,
0.154,0.21,-0.14,0.06,-0.01,0.07,0.98,
0.156,0.21,-0.14,0.06,-0.01,0.07,0.98,
0.159,0.21,-0.14,0.06,-0.01,0.08,0.98,
0.161,0.20,-0.16,0.05,-0.01,0.08,0.98,
0.163,0.20,-0.16,0.05,-0.02,0.08,0.99,
0.164,0.20,-0.16,0.05,-0.02,0.08,0.98,
0.164,0.17,-0.16,0.06,-0.02,0.08,0.98,
0.167,0.17,-0.16,0.06,-0.02,0.08,0.99,
0.169,0.17,-0.16,0.06,-0.02,0.08,0.98,
0.169,0.10,-0.14,0.07,-0.02,0.08,0.98,
0.171,0.10,-0.14,0.07,-0.02,0.08,0.98,
0.174,0.10,-0.14,0.07,-0.03,0.08,0.98,
0.174,0.07,-0.13,0.07,-0.03,0.08,0.98,
0.176,0.07,-0.13,0.07,-0.03,0.08,0.98,
0.179,0.07,-0.13,0.07,-0.03,0.08,0.99,
0.179,0.04,-0.11,0.05,-0.03,0.08,0.99,
0.181,0.04,-0.11,0.05,-0.03,0.08,0.99,
0.184,0.04,-0.11,0.05,-0.03,0.09,0.99,
0.184,0.01,-0.09,0.06,-0.03,0.09,0.99,
0.186,0.01,-0.09,0.06,-0.03,0.08,0.99,
0.189,0.01,-0.09,0.06,-0.03,0.08,0.99,
0.189,0.01,-0.06,0.10,-0.03,0.08,0.99,
0.191,0.01,-0.06,0.10,-0.03,0.08,0.99,
0.193,0.01,-0.06,0.10,-0.03,0.08,0.99,
0.193,-0.00,-0.06,0.14,-0.03,0.08,0.99,
0.196,-0.00,-0.06,0.14,-0.03,0.08,0.99,
0.198,-0.00,-0.06,0.14,-0.04,0.08,0.99,
0.198,-0.03,-0.07,0.12,-0.04,0.08,0.99,
0.2,-0.03,-0.07,0.12,-0.04,0.08,0.99,
0.203,-0.03,-0.07,0.12,-0.04,0.08,0.99,
0.203,-0.06,-0.10,0.09,-0.04,0.08,0.99,
0.205,-0.06,-0.10,0.09,-0.03,0.08,0.99,
0.208,-0.06,-0.10,0.09,-0.03,0.08,0.99,
0.208,-0.06,-0.13,0.09,-0.03,0.08,0.99,
0.211,-0.06,-0.13,0.09,-0.03,0.08,0.99,
0.213,-0.06,-0.13,0.09,-0.03,0.08,0.99,
0.214,-0.03,-0.12,0.10,-0.03,0.08,0.99,
0.215,-0.03,-0.12,0.10,-0.03,0.08,0.99,
0.218,-0.03,-0.12,0.10,-0.03,0.08,0.99,
0.218,-0.01,-0.13,0.10,-0.03,0.08,0.99,
0.22,-0.01,-0.13,0.10,-0.03,0.08,0.99,
0.223,-0.01,-0.13,0.10,-0.02,0.08,0.99,
0.223,0.00,-0.14,0.11,-0.02,0.08,0.99,
0.225,0.00,-0.14,0.11,-0.03,0.07,0.99,
0.228,0.00,-0.14,0.11,-0.03,0.08,0.99,
0.229,0.04,-0.13,0.09,-0.03,0.08,0.99,
0.23,0.04,-0.13,0.09,-0.03,0.08,0.99,
0.233,0.04,-0.13,0.09,-0.02,0.08,0.99,
0.233,0.03,-0.15,0.09,-0.02,0.08,0.99,
0.235,0.03,-0.15,0.09,-0.03,0.07,0.99,
0.237,0.03,-0.15,0.09,-0.02,0.07,0.98,
0.238,0.03,-0.15,0.07,-0.02,0.07,0.98,
0.24,0.03,-0.15,0.07,-0.02,0.07,0.98,
0.242,0.03,-0.15,0.07,-0.03,0.07,0.98,
0.243,0.04,-0.18,0.05,-0.03,0.07,0.98,
0.245,0.04,-0.18,0.05,-0.02,0.07,0.98,
0.248,0.04,-0.18,0.05,-0.02,0.07,0.98,
0.248,0.03,-0.18,0.01,-0.02,0.07,0.98,
0.25,0.03,-0.18,0.01,-0.02,0.07,0.98,
0.252,0.03,-0.18,0.01,-0.02,0.07,0.98,
0.252,0.05,-0.18,-0.01,-0.02,0.07,0.98,
0.255,0.05,-0.18,-0.01,-0.02,0.07,0.97,
0.257,0.05,-0.18,-0.01,-0.02,0.07,0.97,
0.257,0.04,-0.19,-0.03,-0.02,0.07,0.97,
0.259,0.04,-0.19,-0.03,-0.02,0.07,0.97,
0.262,0.04,-0.19,-0.03,-0.02,0.07,0.97,
0.263,0.07,-0.19,-0.05,-0.02,0.07,0.97,
0.264,0.07,-0.19,-0.05,-0.02,0.07,0.97,
0.267,0.07,-0.19,-0.05,-0.02,0.07,0.97,
0.267,0.07,-0.22,-0.06,-0.02,0.07,0.97,
0.269,0.07,-0.22,-0.06,-0.02,0.07,0.97,
0.272,0.07,-0.22,-0.06,-0.02,0.07,0.97,
0.272,0.10,-0.23,-0.07,-0.02,0.07,0.97,
0.274,0.10,-0.23,-0.07,-0.02,0.07,0.97,
0.277,0.11,-0.23,-0.07,-0.02,0.07,0.97,
0.278,0.11,-0.23,-0.07,-0.02,0.07,0.98,
0.279,0.11,-0.23,-0.07,-0.02,0.07,0.98,
0.282,0.11,-0.23,-0.07,-0.02,0.07,0.99,
0.282,0.10,-0.24,-0.02,-0.02,0.07,0.99,
0.284,0.10,-0.24,-0.02,-0.02,0.07,0.99,
0.287,0.10,-0.24,-0.02,-0.02,0.07,0.99,
0.287,0.07,-0.22,0.07,-0.02,0.07,0.99,
0.289,0.07,-0.22,0.07,-0.02,0.07,0.99,
0.291,0.07,-0.22,0.07,-0.02,0.07,0.99,
0.291,0.10,-0.21,0.11,-0.02,0.07,0.99,
0.294,0.10,-0.21,0.11,-0.02,0.07,1.00,
0.296,0.10,-0.21,0.11,-0.03,0.07,1.00,
0.296,0.09,-0.23,0.14,-0.03,0.07,1.00,
0.299,0.09,-0.23,0.14,-0.03,0.06,1.00,
0.301,0.09,-0.23,0.14,-0.03,0.06,0.99,
0.301,0.02,-0.25,0.20,-0.03,0.06,0.99,
0.303,0.02,-0.25,0.20,-0.03,0.06,0.99,
0.306,0.02,-0.25,0.20,-0.03,0.06,0.99,
0.306,0.01,-0.30,0.15,-0.03,0.06,0.99,
0.308,0.01,-0.30,0.15,-0.03,0.06,0.99,
0.318,0.01,-0.30,0.15,-0.03,0.05,0.99,
0.319,0.01,-0.33,0.13,-0.03,0.05,0.99,
0.319,0.01,-0.33,0.13,-0.03,0.05,0.99,
0.319,0.01,-0.33,0.13,-0.02,0.05,0.98,
0.319,0.01,-0.36,0.08,-0.02,0.05,0.98,
0.319,0.01,-0.36,0.08,-0.02,0.05,0.98,
0.321,0.01,-0.36,0.08,-0.01,0.05,0.98,
0.321,0.04,-0.36,0.05,-0.01,0.05,0.98,
0.323,0.04,-0.36,0.05,-0.01,0.05,0.98,
0.326,0.04,-0.36,0.05,-0.01,0.05,0.98,
0.326,0.12,-0.38,0.05,-0.01,0.05,0.98,
0.328,0.12,-0.38,0.05,-0.00,0.05,0.99,
0.331,0.12,-0.38,0.05,-0.00,0.06,0.99,
0.331,0.20,-0.37,0.05,-0.00,0.06,0.99,
0.334,0.20,-0.37,0.05,-0.00,0.06,0.99,
0.335,0.20,-0.37,0.05,0.00,0.05,0.99,
0.336,0.26,-0.37,0.09,0.00,0.05,0.99,
0.338,0.26,-0.37,0.09,0.00,0.05,1.00,
0.34,0.26,-0.37,0.09,0.01,0.05,1.00,
0.34,0.28,-0.37,0.12,0.01,0.05,1.00,
0.342,0.28,-0.37,0.12,0.01,0.05,1.00,
0.345,0.28,-0.37,0.12,0.00,0.04,1.01,
0.345,0.31,-0.40,0.18,0.00,0.04,1.01,
0.347,0.31,-0.40,0.18,0.00,0.04,1.01,
0.35,0.31,-0.40,0.18,0.01,0.04,1.01,
0.35,0.33,-0.46,0.24,0.01,0.04,1.01,
0.352,0.33,-0.46,0.24,0.01,0.03,1.01,
0.355,0.33,-0.46,0.24,0.01,0.03,1.01,
0.355,0.34,-0.52,0.29,0.01,0.03,1.01,
0.357,0.34,-0.52,0.29,0.01,0.03,1.01,
0.361,0.34,-0.52,0.29,0.02,0.03,1.01,
0.361,0.38,-0.58,0.30,0.02,0.03,1.01,
0.363,0.38,-0.58,0.30,0.02,0.03,1.01,
0.365,0.38,-0.58,0.30,0.02,0.03,1.01,
0.365,0.41,-0.61,0.31,0.02,0.03,1.01,
0.367,0.41,-0.61,0.31,0.02,0.03,1.01,
0.369,0.41,-0.61,0.31,0.02,0.03,1.01,
0.37,0.45,-0.63,0.32,0.02,0.03,1.01,
0.372,0.45,-0.63,0.32,0.02,0.03,1.01,
0.374,0.45,-0.63,0.32,0.02,0.02,1.01,
0.375,0.47,-0.64,0.29,0.02,0.02,1.01,
0.377,0.47,-0.64,0.29,0.02,0.02,1.01,
0.38,0.47,-0.64,0.29,0.02,0.02,1.00,
0.38,0.49,-0.66,0.26,0.02,0.02,1.00,
0.382,0.49,-0.66,0.26,0.02,0.02,1.00,
0.385,0.49,-0.66,0.26,0.02,0.02,0.99,
0.385,0.50,-0.70,0.22,0.02,0.02,0.99,
0.387,0.50,-0.70,0.22,0.02,0.02,0.99,
0.389,0.50,-0.70,0.22,0.02,0.01,0.99,
0.389,0.49,-0.72,0.15,0.02,0.01,0.99,
0.392,0.49,-0.72,0.15,0.02,0.01,0.99,
0.394,0.49,-0.72,0.15,0.03,0.01,0.99,
0.395,0.48,-0.76,0.11,0.03,0.01,0.99,
0.397,0.48,-0.76,0.11,0.02,0.01,0.98,
0.399,0.48,-0.76,0.11,0.03,0.01,0.98,
0.399,0.49,-0.79,0.07,0.03,0.01,0.98,
0.401,0.49,-0.79,0.07,0.03,0.01,0.98,
0.404,0.49,-0.79,0.07,0.02,0.01,0.98,
0.404,0.49,-0.79,0.04,0.02,0.01,0.98,
0.406,0.49,-0.79,0.04,0.02,0.01,0.98,
0.409,0.49,-0.79,0.04,0.02,0.01,0.98,
0.409,0.49,-0.81,0.02,0.02,0.01,0.98,
0.414,0.49,-0.81,0.02,0.02,0.01,0.98,
0.415,0.49,-0.81,0.02,0.03,0.00,0.98,
0.415,0.47,-0.82,-0.01,0.03,0.00,0.98,
0.416,0.47,-0.82,-0.01,0.03,0.00,0.98,
0.419,0.47,-0.82,-0.01,0.03,0.00,0.98,
0.419,0.48,-0.83,-0.04,0.03,0.00,0.98,
0.421,0.48,-0.83,-0.04,0.03,0.01,0.98,
0.424,0.48,-0.83,-0.04,0.03,0.01,0.98,
0.424,0.49,-0.84,-0.05,0.03,0.01,0.98,
0.426,0.49,-0.84,-0.05,0.03,0.01,0.98,
0.428,0.49,-0.84,-0.05,0.03,0.01,0.98,
0.429,0.49,-0.80,-0.04,0.03,0.01,0.98,
0.431,0.49,-0.80,-0.04,0.03,0.01,0.98,
0.433,0.49,-0.80,-0.04,0.03,0.01,0.98,
0.433,0.50,-0.79,-0.04,0.03,0.01,0.98,
0.436,0.50,-0.79,-0.04,0.03,0.01,0.98,
0.438,0.50,-0.79,-0.04,0.03,0.01,0.98,
0.438,0.50,-0.76,-0.04,0.03,0.01,0.98,
0.44,0.50,-0.76,-0.04,0.03,0.01,0.98,
0.443,0.50,-0.76,-0.04,0.02,0.01,0.98,
0.443,0.47,-0.75,-0.04,0.02,0.01,0.98,
0.445,0.47,-0.75,-0.04,0.02,0.01,0.98,
0.448,0.47,-0.75,-0.04,0.02,0.01,0.98,
0.448,0.43,-0.73,-0.05,0.02,0.01,0.98,
0.45,0.43,-0.73,-0.05,0.02,0.01,0.98,
0.453,0.43,-0.73,-0.05,0.02,0.01,0.98,
0.453,0.40,-0.73,-0.05,0.02,0.01,0.98,
0.455,0.40,-0.73,-0.05,0.02,0.01,0.98,
0.458,0.40,-0.73,-0.05,0.02,0.01,0.98,
0.458,0.35,-0.75,-0.04,0.02,0.01,0.98,
0.46,0.35,-0.75,-0.04,0.01,0.01,0.98,
0.463,0.35,-0.75,-0.04,0.01,0.01,0.98,
0.463,0.34,-0.76,-0.02,0.01,0.01,0.98,
0.465,0.34,-0.76,-0.02,0.01,0.01,0.98,
0.468,0.34,-0.76,-0.02,0.01,0.01,0.98,
0.468,0.31,-0.76,0.00,0.01,0.01,0.98,
0.47,0.31,-0.76,0.00,0.01,0.00,0.98,
0.472,0.31,-0.76,0.00,0.01,0.00,0.98,
0.473,0.29,-0.75,0.00,0.01,0.00,0.98,
0.475,0.29,-0.75,0.00,0.02,0.01,0.98,
0.478,0.29,-0.75,0.00,0.01,0.01,0.98,
0.478,0.29,-0.75,0.01,0.01,0.01,0.98,
0.48,0.29,-0.75,0.01,0.01,0.01,0.98,
0.482,0.29,-0.75,0.01,0.01,0.01,0.98,
0.482,0.30,-0.73,0.02,0.01,0.01,0.98,
0.484,0.30,-0.73,0.02,0.01,0.01,0.98,
0.487,0.30,-0.73,0.02,0.01,0.01,0.98,
0.488,0.29,-0.71,0.01,0.01,0.01,0.98,
0.489,0.29,-0.71,0.01,0.01,0.01,0.98,
0.492,0.29,-0.71,0.01,0.01,0.01,0.98,
0.492,0.25,-0.70,0.01,0.01,0.01,0.98,
0.496,0.25,-0.70,0.01,0.00,0.01,0.98,
0.497,0.25,-0.70,0.01,0.00,0.01,0.98,
0.497,0.22,-0.68,-0.01,0.00,0.01,0.98,
0.499,0.22,-0.68,-0.01,-0.00,0.01,0.98,
0.502,0.22,-0.68,-0.01,-0.01,0.01,0.97,
0.502,0.17,-0.67,-0.02,-0.01,0.01,0.97,
0.504,0.17,-0.67,-0.02,-0.01,0.02,0.97,
0.507,0.17,-0.67,-0.02,-0.01,0.02,0.97,
0.507,0.11,-0.64,-0.05,-0.01,0.02,0.97,
0.509,0.11,-0.64,-0.05,-0.01,0.02,0.97,
0.512,0.11,-0.64,-0.05,-0.01,0.02,0.97,
0.512,0.04,-0.61,-0.08,-0.01,0.02,0.97,
0.514,0.04,-0.61,-0.08,-0.02,0.02,0.97,
0.517,0.04,-0.61,-0.08,-0.02,0.02,0.97,
0.517,0.00,-0.59,-0.11,-0.02,0.02,0.97,
0.519,0.00,-0.59,-0.11,-0.02,0.03,0.97,
0.522,0.00,-0.59,-0.11,-0.02,0.03,0.96,
0.522,-0.03,-0.54,-0.12,-0.02,0.03,0.96,
0.524,-0.03,-0.54,-0.12,-0.02,0.03,0.96,
0.526,-0.03,-0.54,-0.12,-0.02,0.03,0.96,
0.527,-0.04,-0.51,-0.15,-0.02,0.03,0.96,
0.529,-0.04,-0.51,-0.15,-0.02,0.03,0.96,
0.531,-0.04,-0.51,-0.15,-0.02,0.03,0.96,
0.531,-0.06,-0.48,-0.16,-0.02,0.03,0.96,
0.533,-0.06,-0.48,-0.16,-0.02,0.03,0.96,
0.536,-0.06,-0.48,-0.16,-0.02,0.03,0.96,
0.536,-0.09,-0.47,-0.18,-0.02,0.03,0.96,
0.539,-0.09,-0.47,-0.18,-0.02,0.03,0.96,
0.541,-0.09,-0.47,-0.18,-0.02,0.03,0.95,
0.541,-0.10,-0.46,-0.21,-0.02,0.03,0.95,
0.543,-0.10,-0.46,-0.21,-0.02,0.03,0.95,
0.546,-0.10,-0.46,-0.21,-0.02,0.03,0.95,
0.547,-0.11,-0.47,-0.25,-0.02,0.03,0.95,
0.548,-0.11,-0.47,-0.25,-0.02,0.02,0.95,
0.551,-0.11,-0.47,-0.25,-0.02,0.02,0.95,
0.551,-0.11,-0.47,-0.28,-0.02,0.02,0.95,
0.553,-0.11,-0.47,-0.28,-0.01,0.02,0.94,
0.556,-0.11,-0.47,-0.28,-0.01,0.02,0.94,
0.556,-0.08,-0.51,-0.31,-0.01,0.02,0.94,
0.558,-0.08,-0.51,-0.31,-0.01,0.02,0.94,
0.561,-0.08,-0.51,-0.31,-0.00,0.01,0.94,
0.562,-0.04,-0.55,-0.35,-0.00,0.01,0.94,
0.563,-0.04,-0.55,-0.35,0.00,0.01,0.93,
0.566,-0.04,-0.55,-0.35,0.00,0.02,0.93,
0.566,0.02,-0.57,-0.40,0.00,0.02,0.93,
0.568,0.02,-0.57,-0.40,0.01,0.02,0.93,
0.57,0.02,-0.57,-0.40,0.01,0.02,0.93,
0.571,0.08,-0.56,-0.44,0.01,0.02,0.93,
0.573,0.08,-0.56,-0.44,0.01,0.02,0.93,
0.576,0.13,-0.55,-0.45,0.01,0.02,0.93,
0.576,0.13,-0.55,-0.45,0.02,0.02,0.93,
0.578,0.13,-0.55,-0.45,0.02,0.02,0.92,
0.581,0.13,-0.55,-0.45,0.02,0.02,0.92,
0.582,0.20,-0.53,-0.48,0.02,0.02,0.92,
0.583,0.20,-0.53,-0.48,0.03,0.02,0.92,
0.585,0.20,-0.53,-0.48,0.03,0.02,0.92,
0.586,0.24,-0.51,-0.52,0.03,0.02,0.92,
0.587,0.24,-0.51,-0.52,0.03,0.02,0.92,
0.59,0.24,-0.51,-0.52,0.03,0.03,0.92,
0.591,0.28,-0.46,-0.54,0.03,0.03,0.92,
0.595,0.28,-0.46,-0.54,0.03,0.03,0.92,
0.596,0.28,-0.46,-0.54,0.03,0.03,0.92,
0.596,0.30,-0.42,-0.58,0.03,0.03,0.92,
0.598,0.30,-0.42,-0.58,0.03,0.03,0.92,
0.6,0.30,-0.40,-0.58,0.03,0.03,0.92,
0.601,0.30,-0.40,-0.58,0.03,0.03,0.92,
0.602,0.30,-0.40,-0.58,0.03,0.03,0.92,
0.605,0.30,-0.40,-0.58,0.03,0.04,0.92,
0.605,0.29,-0.35,-0.57,0.03,0.04,0.92,
0.607,0.29,-0.35,-0.57,0.03,0.04,0.92,
0.615,0.29,-0.35,-0.57,0.03,0.04,0.92,
0.615,0.27,-0.28,-0.55,0.03,0.04,0.92,
0.615,0.27,-0.28,-0.55,0.03,0.05,0.92,
0.616,0.27,-0.28,-0.55,0.02,0.05,0.92,
0.616,0.24,-0.21,-0.52,0.02,0.05,0.92,
0.617,0.24,-0.21,-0.52,0.02,0.05,0.92,
0.619,0.24,-0.21,-0.52,0.02,0.06,0.93,
0.62,0.20,-0.14,-0.50,0.02,0.06,0.93,
0.622,0.20,-0.14,-0.50,0.01,0.06,0.93,
0.625,0.20,-0.14,-0.50,0.01,0.06,0.93,
0.625,0.13,-0.07,-0.47,0.01,0.06,0.93,
0.627,0.13,-0.07,-0.47,0.01,0.06,0.93,
0.629,0.13,-0.07,-0.47,0.00,0.07,0.94,
0.63,0.08,-0.01,-0.42,0.00,0.07,0.94,
0.631,0.08,-0.01,-0.42,0.00,0.07,0.94,
0.634,0.08,-0.01,-0.42,0.00,0.07,0.94,
0.634,0.01,0.04,-0.37,0.00,0.07,0.94,
0.636,0.01,0.04,-0.37,-0.00,0.07,0.94,
0.639,0.01,0.04,-0.37,-0.01,0.08,0.95,
0.639,-0.03,0.10,-0.33,-0.01,0.08,0.95,
0.642,-0.03,0.10,-0.33,-0.01,0.08,0.95,
0.644,-0.03,0.10,-0.33,-0.01,0.08,0.95,
0.645,-0.10,0.15,-0.28,-0.01,0.08,0.95,
0.647,-0.10,0.15,-0.28,-0.02,0.08,0.95,
0.649,-0.10,0.15,-0.28,-0.02,0.08,0.96,
0.651,-0.16,0.19,-0.22,-0.02,0.08,0.96,
0.651,-0.16,0.19,-0.22,-0.02,0.08,0.96,
0.654,-0.16,0.19,-0.22,-0.02,0.08,0.96,
0.654,-0.20,0.20,-0.18,-0.02,0.08,0.96,
0.656,-0.20,0.20,-0.18,-0.02,0.08,0.96,
0.66,-0.20,0.20,-0.18,-0.02,0.08,0.96,
0.66,-0.25,0.21,-0.14,-0.02,0.08,0.96,
0.661,-0.25,0.21,-0.14,-0.02,0.08,0.96,
0.664,-0.25,0.21,-0.14,-0.02,0.08,0.97,
0.664,-0.25,0.23,-0.11,-0.02,0.08,0.97,
0.666,-0.25,0.23,-0.11,-0.02,0.08,0.97,
0.668,-0.25,0.23,-0.11,-0.02,0.08,0.97,
0.668,-0.26,0.24,-0.08,-0.02,0.08,0.97,
0.671,-0.26,0.24,-0.08,-0.02,0.08,0.97,
0.673,-0.26,0.24,-0.08,-0.02,0.07,0.96,
0.673,-0.24,0.22,-0.06,-0.02,0.07,0.96,
0.676,-0.24,0.22,-0.06,-0.02,0.07,0.96,
0.678,-0.24,0.22,-0.06,-0.02,0.07,0.96,
0.678,-0.23,0.20,-0.07,-0.02,0.07,0.96,
0.68,-0.23,0.20,-0.07,-0.02,0.07,0.96,
0.683,-0.23,0.20,-0.07,-0.01,0.07,0.96,
0.683,-0.23,0.17,-0.09,-0.01,0.07,0.96,
0.685,-0.23,0.17,-0.09,-0.01,0.07,0.96,
0.688,-0.23,0.17,-0.09,-0.00,0.07,0.96,
0.688,-0.17,0.19,-0.13,-0.00,0.07,0.96,
0.69,-0.17,0.19,-0.13,-0.00,0.07,0.95,
0.693,-0.17,0.19,-0.13,0.00,0.07,0.95,
0.693,-0.08,0.19,-0.15,0.00,0.07,0.95,
0.695,-0.08,0.19,-0.15,0.01,0.07,0.95,
0.698,-0.08,0.19,-0.15,0.01,0.08,0.95,
0.698,-0.02,0.21,-0.19,0.01,0.08,0.95,
0.7,-0.02,0.21,-0.19,0.01,0.08,0.95,
0.703,-0.02,0.21,-0.19,0.02,0.08,0.95,
0.703,0.06,0.23,-0.20,0.02,0.08,0.95,
0.705,0.06,0.23,-0.20,0.02,0.08,0.95,
0.708,0.06,0.23,-0.20,0.02,0.08,0.95,
0.708,0.12,0.25,-0.21,0.02,0.08,0.95,
0.714,0.12,0.25,-0.21,0.02,0.08,0.95,
0.715,0.12,0.25,-0.21,0.02,0.08,0.95,
0.715,0.17,0.29,-0.19,0.02,0.08,0.95,
0.715,0.17,0.29,-0.19,0.02,0.09,0.95,
0.718,0.17,0.29,-0.19,0.02,0.09,0.96,
0.718,0.18,0.34,-0.18,0.02,0.09,0.96,
0.72,0.18,0.34,-0.18,0.02,0.09,0.96,
0.723,0.18,0.34,-0.18,0.01,0.09,0.96,
0.723,0.15,0.37,-0.16,0.01,0.09,0.96,
0.725,0.15,0.37,-0.16,0.01,0.09,0.96,
0.728,0.15,0.37,-0.16,0.00,0.10,0.96,
0.728,0.08,0.42,-0.15,0.00,0.10,0.96,
0.729,0.08,0.42,-0.15,-0.00,0.10,0.97,
0.733,0.08,0.42,-0.15,-0.01,0.10,0.97,
0.733,0.01,0.47,-0.10,-0.01,0.10,0.97,
0.734,0.01,0.47,-0.10,-0.02,0.10,0.97,
0.737,0.01,0.47,-0.10,-0.02,0.10,0.97,
0.737,-0.11,0.50,-0.06,-0.02,0.10,0.97,
0.739,-0.11,0.50,-0.06,-0.03,0.11,0.97,
0.742,-0.11,0.50,-0.06,-0.03,0.11,0.97,
0.742,-0.23,0.55,-0.02,-0.03,0.11,0.97,
0.744,-0.23,0.55,-0.02,-0.04,0.11,0.98,
0.747,-0.23,0.55,-0.02,-0.04,0.11,0.98,
0.747,-0.33,0.61,0.02,-0.04,0.11,0.98,
0.749,-0.33,0.61,0.02,-0.05,0.11,0.98,
0.752,-0.33,0.61,0.02,-0.05,0.12,0.98,
0.752,-0.41,0.65,0.06,-0.05,0.12,0.98,
0.754,-0.41,0.65,0.06,-0.06,0.12,0.98,
0.757,-0.41,0.65,0.06,-0.06,0.12,0.98,
0.757,-0.50,0.69,0.10,-0.06,0.12,0.98,
0.759,-0.50,0.69,0.10,-0.06,0.12,0.99,
0.762,-0.50,0.69,0.10,-0.07,0.12,0.99,
0.762,-0.56,0.73,0.11,-0.07,0.12,0.99,
0.764,-0.56,0.73,0.11,-0.07,0.12,0.99,
0.767,-0.56,0.73,0.11,-0.07,0.12,0.99,
0.767,-0.59,0.74,0.14,-0.07,0.12,0.99,
0.769,-0.59,0.74,0.14,-0.07,0.12,0.99,
0.771,-0.59,0.74,0.14,-0.07,0.12,0.99,
0.771,-0.64,0.75,0.14,-0.07,0.12,0.99,
0.774,-0.64,0.75,0.14,-0.07,0.12,0.99,
0.776,-0.64,0.75,0.14,-0.07,0.12,0.99,
0.777,-0.65,0.73,0.15,-0.07,0.12,0.99,
0.779,-0.65,0.73,0.15,-0.07,0.12,0.99,
0.781,-0.65,0.73,0.15,-0.07,0.11,1.00,
0.782,-0.64,0.69,0.19,-0.07,0.11,1.00,
0.783,-0.64,0.69,0.19,-0.07,0.11,1.00,
0.786,-0.64,0.69,0.19,-0.06,0.11,1.00,
0.786,-0.60,0.67,0.22,-0.06,0.11,1.00,
0.788,-0.60,0.67,0.22,-0.06,0.11,1.00,
0.791,-0.60,0.67,0.22,-0.05,0.11,1.00,
0.791,-0.55,0.62,0.22,-0.05,0.11,1.00,
0.793,-0.55,0.62,0.22,-0.05,0.11,1.00,
0.796,-0.45,0.62,0.24,-0.05,0.11,1.00,
0.797,-0.45,0.62,0.24,-0.04,0.10,1.00,
0.798,-0.45,0.62,0.24,-0.04,0.10,1.00,
0.8,-0.45,0.62,0.24,-0.04,0.10,1.00,
0.801,-0.35,0.58,0.25,-0.04,0.10,1.00,
0.803,-0.35,0.58,0.25,-0.03,0.10,1.00,
0.805,-0.35,0.58,0.25,-0.03,0.10,1.00,
0.806,-0.26,0.57,0.25,-0.03,0.10,1.00,
0.808,-0.26,0.57,0.25,-0.03,0.10,1.01,
0.815,-0.26,0.57,0.25,-0.03,0.10,1.00,
0.815,-0.22,0.54,0.28,-0.03,0.10,1.00,
0.818,-0.22,0.54,0.28,-0.03,0.10,1.00,
0.818,-0.22,0.54,0.28,-0.03,0.10,1.00,
0.818,-0.19,0.55,0.30,-0.03,0.10,1.00,
0.819,-0.19,0.55,0.30,-0.03,0.10,1.00,
0.822,-0.19,0.55,0.30,-0.03,0.10,1.00,
0.822,-0.19,0.58,0.26,-0.03,0.10,1.00,
0.823,-0.19,0.58,0.26,-0.03,0.10,0.99,
0.826,-0.19,0.58,0.26,-0.03,0.11,0.99,
0.827,-0.17,0.59,0.24,-0.03,0.11,0.99,
0.827,-0.17,0.59,0.24,-0.03,0.11,0.99,
0.83,-0.17,0.59,0.24,-0.03,0.11,0.99,
0.83,-0.20,0.62,0.18,-0.03,0.11,0.99,
0.832,-0.20,0.62,0.18,-0.03,0.11,0.98,
0.835,-0.20,0.62,0.18,-0.04,0.12,0.98,
0.835,-0.25,0.67,0.14,-0.04,0.12,0.98,
0.837,-0.25,0.67,0.14,-0.04,0.12,0.98,
0.84,-0.25,0.67,0.14,-0.04,0.12,0.97,
0.84,-0.28,0.73,0.06,-0.04,0.12,0.97,
0.842,-0.28,0.73,0.06,-0.04,0.12,0.97,
0.845,-0.28,0.73,0.06,-0.04,0.13,0.97,
0.845,-0.32,0.77,0.01,-0.04,0.13,0.97,
0.847,-0.32,0.77,0.01,-0.04,0.13,0.97,
0.849,-0.32,0.77,0.01,-0.04,0.13,0.97,
0.85,-0.36,0.84,-0.02,-0.04,0.13,0.97,
0.852,-0.36,0.84,-0.02,-0.05,0.13,0.97,
0.854,-0.36,0.84,-0.02,-0.05,0.14,0.97,
0.855,-0.38,0.89,-0.05,-0.05,0.14,0.97,
0.857,-0.38,0.89,-0.05,-0.05,0.14,0.97,
0.859,-0.38,0.89,-0.05,-0.05,0.14,0.97,
0.859,-0.44,0.95,-0.07,-0.05,0.14,0.97,
0.862,-0.44,0.95,-0.07,-0.05,0.14,0.97,
0.865,-0.44,0.95,-0.07,-0.06,0.14,0.98,
0.865,-0.46,1.00,-0.05,-0.06,0.14,0.98,
0.867,-0.46,1.00,-0.05,-0.05,0.14,0.98,
0.869,-0.46,1.00,-0.05,-0.06,0.14,0.98,
0.869,-0.48,1.04,-0.00,-0.06,0.14,0.98,
0.871,-0.48,1.04,-0.00,-0.06,0.14,0.99,
0.874,-0.48,1.04,-0.00,-0.06,0.14,0.99,
0.874,-0.48,1.04,0.06,-0.06,0.14,0.99,
0.876,-0.48,1.04,0.06,-0.06,0.14,1.00,
0.879,-0.48,1.04,0.06,-0.06,0.14,1.00,
0.879,-0.50,1.05,0.14,-0.06,0.14,1.00,
0.881,-0.50,1.05,0.14,-0.06,0.14,1.00,
0.884,-0.50,1.05,0.14,-0.05,0.15,1.01,
0.884,-0.50,1.03,0.22,-0.05,0.15,1.01,
0.886,-0.50,1.03,0.22,-0.05,0.15,1.01,
0.889,-0.50,1.03,0.22,-0.05,0.15,1.01,
0.889,-0.47,1.06,0.29,-0.05,0.15,1.01,
0.891,-0.47,1.06,0.29,-0.05,0.15,1.01,
0.894,-0.47,1.06,0.29,-0.04,0.15,1.01,
0.895,-0.41,1.09,0.35,-0.04,0.15,1.01,
0.896,-0.41,1.09,0.35,-0.04,0.15,1.02,
0.899,-0.41,1.09,0.35,-0.04,0.15,1.02,
0.899,-0.36,1.13,0.37,-0.04,0.15,1.02,
0.901,-0.36,1.13,0.37,-0.04,0.15,1.01,
0.903,-0.36,1.13,0.37,-0.03,0.16,1.01,
0.904,-0.31,1.14,0.37,-0.03,0.16,1.01,
0.906,-0.31,1.14,0.37,-0.04,0.16,1.01,
0.913,-0.31,1.14,0.37,-0.04,0.16,1.01,
0.914,-0.26,1.15,0.33,-0.04,0.16,1.01,
0.914,-0.26,1.15,0.33,-0.03,0.16,1.00,
0.914,-0.26,1.15,0.33,-0.03,0.16,1.00,
0.914,-0.26,1.16,0.28,-0.03,0.16,1.00,
0.916,-0.26,1.16,0.28,-0.03,0.16,1.00,
0.918,-0.26,1.16,0.28,-0.03,0.16,1.00,
0.918,-0.24,1.16,0.23,-0.03,0.16,1.00,
0.92,-0.24,1.16,0.23,-0.03,0.16,0.99,
0.923,-0.24,1.16,0.23,-0.03,0.16,0.99,
0.923,-0.22,1.18,0.18,-0.03,0.16,0.99,
0.926,-0.22,1.18,0.18,-0.03,0.17,0.99,
0.928,-0.22,1.18,0.18,-0.03,0.17,0.99,
0.928,-0.21,1.21,0.13,-0.03,0.17,0.99,
0.93,-0.21,1.21,0.13,-0.03,0.17,0.99,
0.933,-0.21,1.21,0.13,-0.03,0.17,0.99,
0.933,-0.20,1.25,0.10,-0.03,0.17,0.99,
0.935,-0.20,1.25,0.10,-0.03,0.17,0.99,
0.938,-0.20,1.25,0.10,-0.03,0.18,0.98,
0.938,-0.18,1.26,0.07,-0.03,0.18,0.98,
0.94,-0.18,1.26,0.07,-0.03,0.18,0.98,
0.943,-0.18,1.26,0.07,-0.04,0.18,0.98,
0.943,-0.19,1.30,0.07,-0.04,0.18,0.98,
0.945,-0.19,1.30,0.07,-0.04,0.18,0.98,
0.948,-0.19,1.30,0.07,-0.04,0.18,0.99,
0.948,-0.22,1.30,0.04,-0.04,0.18,0.99,
0.95,-0.22,1.30,0.04,-0.04,0.18,0.99,
0.952,-0.22,1.30,0.04,-0.04,0.18,0.99,
0.952,-0.24,1.31,0.06,-0.04,0.18,0.99,
0.955,-0.24,1.31,0.06,-0.04,0.18,0.99,
0.957,-0.24,1.31,0.06,-0.04,0.18,1.00,
0.957,-0.26,1.33,0.10,-0.04,0.18,1.00,
0.96,-0.26,1.33,0.10,-0.05,0.18,1.00,
0.962,-0.26,1.33,0.10,-0.05,0.18,1.00,
0.963,-0.28,1.31,0.17,-0.05,0.18,1.00,
0.965,-0.28,1.31,0.17,-0.05,0.18,1.00,
0.967,-0.28,1.31,0.17,-0.05,0.18,1.01,
0.968,-0.30,1.34,0.20,-0.05,0.18,1.01,
0.969,-0.30,1.34,0.20,-0.05,0.18,1.01,
0.972,-0.30,1.34,0.20,-0.05,0.18,1.01,
0.972,-0.28,1.34,0.26,-0.05,0.18,1.01,
0.975,-0.28,1.34,0.26,-0.05,0.18,1.01,
0.978,-0.28,1.34,0.26,-0.05,0.18,1.01,
0.978,-0.30,1.33,0.30,-0.05,0.18,1.01,
0.979,-0.30,1.33,0.30,-0.05,0.18,1.02,
0.982,-0.30,1.33,0.30,-0.05,0.18,1.02,
0.982,-0.28,1.32,0.33,-0.05,0.18,1.02,
0.984,-0.28,1.32,0.33,-0.05,0.18,1.02,
0.987,-0.28,1.32,0.33,-0.05,0.18,1.02,
0.987,-0.28,1.30,0.36,-0.05,0.18,1.02,
0.989,-0.28,1.30,0.36,-0.05,0.18,1.02,
0.992,-0.28,1.30,0.36,-0.04,0.18,1.02,
0.993,-0.28,1.28,0.37,-0.04,0.18,1.02,
0.994,-0.28,1.28,0.37,-0.04,0.18,1.02,
0.996,-0.28,1.28,0.37,-0.04,0.18,1.02,
0.997,-0.23,1.26,0.36,-0.04,0.18,1.02,
0.999,-0.23,1.26,0.36,-0.04,0.18,1.02,
1.001,-0.23,1.26,0.36,-0.04,0.18,1.02,
1.002,-0.18,1.24,0.37,-0.04,0.18,1.02,
1.003,-0.18,1.24,0.37,-0.03,0.18,1.02,
1.006,-0.13,1.24,0.35,-0.03,0.18,1.02,
1.007,-0.13,1.24,0.35,-0.03,0.17,1.02,
1.009,-0.13,1.24,0.35,-0.03,0.17,1.01,
1.011,-0.13,1.24,0.35,-0.02,0.17,1.01,
1.012,-0.06,1.21,0.34,-0.02,0.17,1.01,
1.013,-0.06,1.21,0.34,-0.02,0.17,1.01,
1.016,-0.01,1.17,0.31,-0.02,0.17,1.01,
1.016,-0.01,1.17,0.31,-0.01,0.17,1.01,
1.019,-0.01,1.17,0.31,-0.01,0.16,1.01,
1.021,-0.01,1.17,0.31,-0.00,0.16,1.01,
1.021,0.08,1.13,0.29,-0.00,0.16,1.01,
1.023,0.08,1.13,0.29,-0.00,0.16,1.01,
1.03,0.08,1.13,0.29,0.00,0.16,1.01,
1.031,0.17,1.08,0.27,0.00,0.16,1.01,
1.031,0.17,1.08,0.27,0.01,0.16,1.01,
1.031,0.17,1.08,0.27,0.01,0.15,1.02,
1.032,0.22,1.04,0.28,0.01,0.15,1.02,
1.033,0.22,1.04,0.28,0.01,0.15,1.02,
1.036,0.22,1.04,0.28,0.02,0.15,1.02,
1.036,0.30,1.00,0.31,0.02,0.15,1.02,
1.038,0.30,1.00,0.31,0.02,0.15,1.02,
1.041,0.30,1.00,0.31,0.02,0.15,1.02,
1.041,0.37,0.95,0.34,0.02,0.15,1.02,
1.044,0.37,0.95,0.34,0.02,0.15,1.03,
1.046,0.37,0.95,0.34,0.02,0.15,1.03,
1.046,0.40,0.93,0.38,0.02,0.15,1.03,
1.048,0.40,0.93,0.38,0.02,0.15,1.03,
1.05,0.40,0.93,0.38,0.02,0.15,1.03,
1.05,0.43,0.91,0.43,0.02,0.15,1.03,
1.053,0.43,0.91,0.43,0.02,0.14,1.04,
1.055,0.43,0.91,0.43,0.02,0.15,1.04,
1.055,0.44,0.89,0.47,0.02,0.15,1.04,
1.058,0.44,0.89,0.47,0.02,0.14,1.04,
1.06,0.44,0.89,0.47,0.01,0.14,1.04,
1.06,0.40,0.88,0.51,0.01,0.14,1.04,
1.062,0.40,0.88,0.51,0.01,0.15,1.05,
1.065,0.40,0.88,0.51,0.01,0.15,1.05,
1.065,0.39,0.87,0.56,0.01,0.15,1.05,
1.067,0.39,0.87,0.56,0.01,0.15,1.05,
1.07,0.39,0.87,0.56,0.01,0.15,1.05,
1.07,0.37,0.87,0.59,0.01,0.15,1.05,
1.072,0.37,0.87,0.59,0.00,0.15,1.05,
1.075,0.37,0.87,0.59,0.00,0.15,1.05,
1.076,0.33,0.88,0.60,0.00,0.15,1.05,
1.077,0.33,0.88,0.60,0.00,0.15,1.05,
1.08,0.33,0.88,0.60,0.00,0.15,1.05,
1.08,0.28,0.88,0.60,0.00,0.15,1.05,
1.082,0.28,0.88,0.60,0.00,0.15,1.05,
1.084,0.28,0.88,0.60,-0.00,0.15,1.04,
1.085,0.26,0.88,0.57,-0.00,0.15,1.04,
1.087,0.26,0.88,0.57,-0.00,0.15,1.04,
1.09,0.26,0.88,0.57,-0.00,0.15,1.04,
1.09,0.25,0.88,0.55,-0.00,0.15,1.04,
1.092,0.25,0.88,0.55,0.00,0.15,1.04,
1.095,0.25,0.88,0.55,0.00,0.16,1.03,
1.095,0.23,0.89,0.51,0.00,0.16,1.03,
1.097,0.23,0.89,0.51,0.00,0.16,1.03,
1.099,0.23,0.89,0.51,0.00,0.16,1.03,
1.1,0.26,0.90,0.44,0.00,0.16,1.03,
1.101,0.26,0.90,0.44,0.00,0.16,1.02,
1.104,0.26,0.90,0.44,0.00,0.16,1.02,
1.105,0.27,0.92,0.38,0.00,0.16,1.02,
1.107,0.27,0.92,0.38,0.01,0.16,1.02,
1.113,0.27,0.92,0.38,0.01,0.16,1.02,
1.114,0.28,0.90,0.32,0.01,0.16,1.02,
1.114,0.28,0.90,0.32,0.02,0.16,1.01,
1.114,0.28,0.90,0.32,0.02,0.16,1.01,
1.115,0.34,0.88,0.27,0.02,0.16,1.01,
1.116,0.34,0.88,0.27,0.02,0.16,1.01,
1.119,0.34,0.88,0.27,0.02,0.15,1.01,
1.119,0.41,0.88,0.22,0.02,0.15,1.01,
1.121,0.41,0.88,0.22,0.02,0.15,1.01,
1.124,0.41,0.88,0.22,0.02,0.15,1.00,
1.124,0.45,0.85,0.20,0.02,0.15,1.00,
1.126,0.45,0.85,0.20,0.02,0.15,1.00,
1.129,0.45,0.85,0.20,0.03,0.15,1.00,
1.129,0.46,0.81,0.16,0.03,0.15,1.00,
1.131,0.46,0.81,0.16,0.03,0.15,1.00,
1.133,0.46,0.81,0.16,0.02,0.15,1.00,
1.133,0.49,0.79,0.11,0.02,0.15,1.00,
1.136,0.49,0.79,0.11,0.02,0.15,1.00,
1.139,0.49,0.79,0.11,0.02,0.15,1.00,
1.14,0.49,0.75,0.11,0.02,0.15,1.00,
1.141,0.49,0.75,0.11,0.02,0.15,1.00,
1.143,0.49,0.75,0.11,0.02,0.15,1.00,
1.144,0.48,0.74,0.10,0.02,0.15,1.00,
1.146,0.48,0.74,0.10,0.02,0.15,1.00,
1.148,0.48,0.74,0.10,0.02,0.15,1.00,
1.148,0.45,0.72,0.11,0.02,0.15,1.00,
1.15,0.45,0.72,0.11,0.01,0.15,1.00,
1.153,0.45,0.72,0.11,0.01,0.15,1.00,
1.153,0.44,0.71,0.10,0.01,0.15,1.00,
1.156,0.44,0.71,0.10,0.01,0.15,1.00,
1.158,0.44,0.71,0.10,0.01,0.15,1.00,
1.158,0.36,0.70,0.09,0.01,0.15,1.00,
1.16,0.36,0.70,0.09,0.00,0.15,1.00,
1.163,0.36,0.70,0.09,-0.00,0.15,1.00,
1.163,0.32,0.69,0.08,-0.00,0.15,1.00,
1.165,0.32,0.69,0.08,-0.01,0.15,0.99,
1.168,0.32,0.69,0.08,-0.01,0.15,0.99,
1.168,0.25,0.69,0.07,-0.01,0.15,0.99,
1.17,0.25,0.69,0.07,-0.01,0.15,0.99,
1.173,0.25,0.69,0.07,-0.02,0.16,0.99,
1.173,0.18,0.68,0.04,-0.02,0.16,0.99,
1.175,0.18,0.68,0.04,-0.02,0.16,0.99,
1.178,0.18,0.68,0.04,-0.02,0.16,0.99,
1.178,0.12,0.71,0.01,-0.02,0.16,0.99,
1.18,0.12,0.71,0.01,-0.02,0.16,0.99,
1.182,0.12,0.71,0.01,-0.02,0.16,0.99,
1.183,0.09,0.74,-0.01,-0.02,0.16,0.99,
1.185,0.09,0.74,-0.01,-0.02,0.16,0.99,
1.187,0.09,0.74,-0.01,-0.02,0.16,0.99,
1.188,0.07,0.75,-0.02,-0.02,0.16,0.99,
1.19,0.07,0.75,-0.02,-0.02,0.16,0.98,
1.192,0.07,0.75,-0.02,-0.02,0.16,0.99,
1.193,0.08,0.75,-0.03,-0.02,0.16,0.99,
1.195,0.08,0.75,-0.03,-0.02,0.16,0.99,
1.197,0.08,0.75,-0.03,-0.02,0.16,0.99,
1.198,0.10,0.75,-0.03,-0.02,0.16,0.99,
1.199,0.10,0.75,-0.03,-0.01,0.16,0.99,
1.202,0.10,0.75,-0.03,-0.01,0.16,0.99,
1.202,0.11,0.74,-0.02,-0.01,0.16,0.99,
1.204,0.11,0.74,-0.02,-0.01,0.16,0.99,
1.213,0.11,0.74,-0.02,-0.01,0.16,0.99,
1.213,0.15,0.71,0.00,-0.01,0.16,0.99,
1.214,0.15,0.71,0.00,-0.01,0.16,0.99,
1.214,0.15,0.71,0.00,-0.01,0.16,0.99,
1.214,0.17,0.68,0.03,-0.01,0.16,0.99,
1.215,0.17,0.68,0.03,-0.01,0.15,0.99,
1.217,0.17,0.68,0.03,-0.00,0.15,1.00,
1.217,0.18,0.64,0.04,-0.00,0.15,1.00,
1.219,0.18,0.64,0.04,-0.01,0.15,1.00,
1.221,0.18,0.64,0.04,-0.00,0.15,1.00,
1.222,0.20,0.60,0.05,-0.00,0.15,1.00,
1.225,0.20,0.60,0.05,-0.01,0.14,0.99,
1.227,0.20,0.60,0.05,-0.01,0.14,0.99,
1.227,0.21,0.54,0.07,-0.01,0.14,0.99,
1.229,0.21,0.54,0.07,-0.01,0.14,1.00,
1.231,0.21,0.54,0.07,-0.01,0.14,0.99,
1.232,0.18,0.48,0.05,-0.01,0.14,0.99,
1.234,0.18,0.48,0.05,-0.01,0.13,0.99,
1.236,0.18,0.48,0.05,-0.01,0.13,0.99,
1.236,0.17,0.42,0.04,-0.01,0.13,0.99,
1.238,0.17,0.42,0.04,-0.01,0.13,0.99,
1.242,0.17,0.42,0.04,-0.01,0.13,0.99,
1.242,0.15,0.37,0.01,-0.01,0.13,0.99,
1.244,0.15,0.37,0.01,-0.01,0.13,0.99,
1.247,0.15,0.37,0.01,-0.01,0.13,0.99,
1.247,0.16,0.33,0.00,-0.01,0.13,0.99,
1.249,0.16,0.33,0.00,-0.01,0.13,0.99,
1.251,0.16,0.33,0.00,-0.01,0.12,0.98,
1.251,0.16,0.28,-0.01,-0.01,0.12,0.98,
1.253,0.16,0.28,-0.01,-0.01,0.12,0.99,
1.256,0.16,0.28,-0.01,-0.01,0.12,0.98,
1.256,0.13,0.25,-0.04,-0.01,0.12,0.98,
1.258,0.13,0.25,-0.04,-0.01,0.12,0.98,
1.261,0.13,0.25,-0.04,-0.02,0.12,0.98,
1.261,0.10,0.24,-0.05,-0.02,0.12,0.98,
1.263,0.10,0.24,-0.05,-0.02,0.12,0.97,
1.266,0.10,0.24,-0.05,-0.02,0.12,0.97,
1.266,0.08,0.21,-0.09,-0.02,0.12,0.97,
1.268,0.08,0.21,-0.09,-0.02,0.12,0.97,
1.271,0.08,0.21,-0.09,-0.02,0.12,0.97,
1.271,0.05,0.17,-0.16,-0.02,0.12,0.97,
1.273,0.05,0.17,-0.16,-0.03,0.12,0.96,
1.276,0.05,0.17,-0.16,-0.02,0.12,0.96,
1.276,-0.01,0.17,-0.20,-0.02,0.12,0.96,
1.278,-0.01,0.17,-0.20,-0.03,0.12,0.96,
1.28,-0.01,0.17,-0.20,-0.03,0.12,0.96,
1.281,-0.02,0.15,-0.24,-0.03,0.12,0.96,
1.283,-0.02,0.15,-0.24,-0.03,0.12,0.96,
1.285,-0.02,0.15,-0.24,-0.03,0.12,0.96,
1.286,-0.03,0.15,-0.26,-0.03,0.12,0.96,
1.287,-0.03,0.15,-0.26,-0.02,0.12,0.96,
1.291,-0.03,0.15,-0.26,-0.02,0.12,0.96,
1.291,-0.03,0.15,-0.25,-0.02,0.12,0.96,
1.293,-0.03,0.15,-0.25,-0.02,0.12,0.96,
1.295,-0.03,0.15,-0.25,-0.02,0.12,0.96,
1.296,-0.03,0.11,-0.25,-0.02,0.12,0.96,
1.297,-0.03,0.11,-0.25,-0.02,0.11,0.96,
1.3,-0.03,0.11,-0.25,-0.02,0.11,0.96,
1.3,-0.01,0.09,-0.25,-0.02,0.11,0.96,
1.303,-0.01,0.09,-0.25,-0.02,0.11,0.96,
1.305,-0.01,0.09,-0.25,-0.02,0.11,0.96,
1.305,0.00,0.01,-0.26,-0.02,0.11,0.96,
1.308,0.00,0.01,-0.26,-0.02,0.10,0.96,
1.31,0.00,0.01,-0.26,-0.02,0.10,0.96,
1.311,0.01,-0.04,-0.27,-0.02,0.10,0.96,
1.312,0.01,-0.04,-0.27,-0.02,0.10,0.96,
1.315,0.01,-0.04,-0.27,-0.02,0.09,0.96,
1.315,-0.00,-0.11,-0.27,-0.02,0.09,0.96,
1.317,-0.00,-0.11,-0.27,-0.02,0.09,0.95,
1.32,-0.00,-0.11,-0.27,-0.02,0.09,0.95,
1.32,0.00,-0.17,-0.27,-0.02,0.09,0.95,
1.322,0.00,-0.17,-0.27,-0.01,0.09,0.95,
1.329,0.00,-0.17,-0.27,-0.02,0.08,0.95,
1.329,0.02,-0.23,-0.30,-0.02,0.08,0.95,
1.33,0.02,-0.23,-0.30,-0.01,0.08,0.95,
1.33,0.02,-0.23,-0.30,-0.01,0.08,0.95,
1.33,0.04,-0.27,-0.30,-0.01,0.08,0.95,
1.332,0.04,-0.27,-0.30,-0.01,0.08,0.95,
1.335,0.04,-0.27,-0.30,-0.01,0.07,0.95,
1.335,0.06,-0.33,-0.34,-0.01,0.07,0.95,
1.337,0.06,-0.33,-0.34,-0.01,0.07,0.95,
1.339,0.06,-0.33,-0.34,-0.01,0.07,0.95,
1.339,0.07,-0.40,-0.36,-0.01,0.07,0.95,
1.341,0.07,-0.40,-0.36,-0.01,0.07,0.95,
1.344,0.07,-0.40,-0.36,-0.01,0.06,0.95,
1.345,0.10,-0.45,-0.35,-0.01,0.06,0.95,
1.346,0.10,-0.45,-0.35,-0.01,0.06,0.96,
1.349,0.10,-0.45,-0.35,0.00,0.06,0.96,
1.349,0.10,-0.51,-0.29,0.00,0.06,0.96,
1.351,0.10,-0.51,-0.29,-0.00,0.06,0.97,
1.354,0.10,-0.51,-0.29,-0.00,0.05,0.97,
1.354,0.15,-0.55,-0.24,-0.00,0.05,0.97,
1.356,0.15,-0.55,-0.24,-0.00,0.05,0.97,
1.359,0.16,-0.61,-0.16,-0.00,0.05,0.97,
1.359,0.16,-0.61,-0.16,-0.00,0.05,0.97,
1.361,0.16,-0.61,-0.16,-0.00,0.05,0.97,
1.364,0.16,-0.61,-0.16,-0.01,0.04,0.98,
1.364,0.15,-0.67,-0.10,-0.01,0.04,0.98,
1.366,0.15,-0.67,-0.10,-0.01,0.04,0.98,
1.368,0.15,-0.67,-0.10,-0.01,0.04,0.98,
1.369,0.14,-0.71,-0.06,-0.01,0.04,0.98,
1.371,0.14,-0.71,-0.06,-0.01,0.04,0.98,
1.374,0.14,-0.71,-0.06,-0.01,0.04,0.99,
1.374,0.11,-0.76,-0.01,-0.01,0.04,0.99,
1.376,0.11,-0.76,-0.01,-0.01,0.04,0.99,
1.379,0.11,-0.76,-0.01,-0.02,0.04,0.99,
1.379,0.09,-0.77,0.05,-0.02,0.04,0.99,
1.381,0.09,-0.77,0.05,-0.02,0.04,0.99,
1.383,0.09,-0.77,0.05,-0.02,0.04,0.99,
1.383,0.04,-0.78,0.10,-0.02,0.04,0.99,
1.385,0.04,-0.78,0.10,-0.03,0.04,1.00,
1.388,0.04,-0.78,0.10,-0.03,0.04,1.00,
1.388,-0.03,-0.77,0.11,-0.03,0.04,1.00,
1.391,-0.03,-0.77,0.11,-0.03,0.04,1.00,
1.393,-0.03,-0.77,0.11,-0.04,0.05,1.00,
1.393,-0.09,-0.77,0.13,-0.04,0.05,1.00,
1.396,-0.09,-0.77,0.13,-0.04,0.05,0.99,
1.398,-0.09,-0.77,0.13,-0.04,0.05,0.99,
1.398,-0.15,-0.76,0.15,-0.04,0.05,0.99,
1.4,-0.15,-0.76,0.15,-0.05,0.05,0.99,
1.403,-0.15,-0.76,0.15,-0.05,0.06,0.98,
1.403,-0.22,-0.72,0.10,-0.05,0.06,0.98,
1.405,-0.22,-0.72,0.10,-0.05,0.06,0.98,
1.408,-0.22,-0.72,0.10,-0.06,0.06,0.98,
1.408,-0.30,-0.67,0.03,-0.06,0.06,0.98,
1.41,-0.30,-0.67,0.03,-0.06,0.07,0.97,
1.413,-0.30,-0.67,0.03,-0.06,0.07,0.97,
1.413,-0.33,-0.62,-0.02,-0.06,0.07,0.97,
1.415,-0.33,-0.62,-0.02,-0.07,0.07,0.97,
1.417,-0.33,-0.62,-0.02,-0.07,0.07,0.96,
1.418,-0.39,-0.55,-0.09,-0.07,0.07,0.96,
1.42,-0.39,-0.55,-0.09,-0.07,0.07,0.96,
1.429,-0.45,-0.51,-0.16,-0.07,0.07,0.96,
1.429,-0.45,-0.51,-0.16,-0.07,0.08,0.95,
1.43,-0.45,-0.51,-0.16,-0.07,0.08,0.95,
1.43,-0.45,-0.51,-0.16,-0.07,0.09,0.95,
1.431,-0.48,-0.50,-0.25,-0.07,0.09,0.95,
1.431,-0.48,-0.50,-0.25,-0.07,0.09,0.94,
1.432,-0.49,-0.45,-0.32,-0.07,0.09,0.94,
1.433,-0.49,-0.45,-0.32,-0.07,0.09,0.94,
1.434,-0.49,-0.45,-0.32,-0.07,0.09,0.94,
1.437,-0.49,-0.45,-0.32,-0.07,0.10,0.93,
1.437,-0.47,-0.37,-0.38,-0.07,0.10,0.93,
1.443,-0.47,-0.37,-0.38,-0.07,0.10,0.93,
1.444,-0.47,-0.37,-0.38,-0.07,0.10,0.93,
1.444,-0.46,-0.34,-0.44,-0.07,0.10,0.93,
1.444,-0.46,-0.34,-0.44,-0.07,0.10,0.92,
1.447,-0.46,-0.34,-0.44,-0.07,0.10,0.92,
1.447,-0.49,-0.33,-0.51,-0.07,0.10,0.92,
1.449,-0.49,-0.33,-0.51,-0.07,0.10,0.92,
1.451,-0.49,-0.33,-0.51,-0.07,0.10,0.92,
1.452,-0.48,-0.34,-0.54,-0.07,0.10,0.92,
1.454,-0.48,-0.34,-0.54,-0.07,0.09,0.91,
1.457,-0.48,-0.34,-0.54,-0.07,0.09,0.91,
1.457,-0.48,-0.36,-0.58,-0.07,0.09,0.91,
1.459,-0.48,-0.36,-0.58,-0.07,0.09,0.91,
1.462,-0.48,-0.36,-0.58,-0.07,0.09,0.91,
1.462,-0.49,-0.39,-0.63,-0.07,0.09,0.91,
1.464,-0.49,-0.39,-0.63,-0.07,0.09,0.91,
1.467,-0.49,-0.39,-0.63,-0.07,0.09,0.90,
1.467,-0.51,-0.44,-0.66,-0.07,0.09,0.90,
1.469,-0.51,-0.44,-0.66,-0.07,0.08,0.91,
1.471,-0.51,-0.44,-0.66,-0.07,0.08,0.91,
1.471,-0.49,-0.46,-0.68,-0.07,0.08,0.91,
1.474,-0.49,-0.46,-0.68,-0.07,0.08,0.91,
1.476,-0.49,-0.46,-0.68,-0.06,0.08,0.91,
1.477,-0.48,-0.50,-0.67,-0.06,0.08,0.91,
1.479,-0.48,-0.50,-0.67,-0.06,0.08,0.91,
1.481,-0.46,-0.53,-0.66,-0.06,0.08,0.91,
1.482,-0.46,-0.53,-0.66,-0.06,0.08,0.91,
1.483,-0.46,-0.53,-0.66,-0.06,0.08,0.91,
1.486,-0.46,-0.53,-0.66,-0.06,0.08,0.91,
1.487,-0.40,-0.53,-0.65,-0.06,0.08,0.91,
1.488,-0.40,-0.53,-0.65,-0.06,0.08,0.91,
1.491,-0.40,-0.53,-0.65,-0.06,0.08,0.92,
1.491,-0.40,-0.52,-0.62,-0.06,0.08,0.92,
1.493,-0.40,-0.52,-0.62,-0.06,0.08,0.92,
1.496,-0.40,-0.52,-0.62,-0.06,0.08,0.92,
1.496,-0.38,-0.53,-0.57,-0.06,0.08,0.92,
1.498,-0.38,-0.53,-0.57,-0.06,0.08,0.92,
1.501,-0.36,-0.55,-0.52,-0.06,0.08,0.92,
1.501,-0.36,-0.55,-0.52,-0.06,0.07,0.92,
1.503,-0.36,-0.55,-0.52,-0.06,0.07,0.92,
1.506,-0.36,-0.55,-0.52,-0.06,0.08,0.93,
1.507,-0.38,-0.55,-0.49,-0.06,0.08,0.93,
1.518,-0.38,-0.55,-0.49,-0.06,0.08,0.93,
1.519,-0.38,-0.55,-0.49,-0.06,0.08,0.93,
1.519,-0.36,-0.55,-0.44,-0.06,0.08,0.93,
1.519,-0.36,-0.55,-0.44,-0.06,0.08,0.93,
1.52,-0.36,-0.55,-0.44,-0.06,0.08,0.93,
1.52,-0.37,-0.55,-0.39,-0.06,0.08,0.93,
1.52,-0.37,-0.55,-0.39,-0.06,0.08,0.94,
1.52,-0.37,-0.55,-0.39,-0.05,0.08,0.94,
1.521,-0.36,-0.53,-0.37,-0.05,0.08,0.94,
1.53,-0.36,-0.53,-0.37,-0.06,0.08,0.94,
1.53,-0.36,-0.53,-0.37,-0.06,0.08,0.94,
1.53,-0.34,-0.53,-0.32,-0.06,0.08,0.94,
1.53,-0.34,-0.53,-0.32,-0.06,0.08,0.94,
1.531,-0.35,-0.53,-0.28,-0.06,0.08,0.94,
1.531,-0.35,-0.53,-0.28,-0.06,0.07,0.95,
1.533,-0.35,-0.53,-0.28,-0.06,0.07,0.95,
1.535,-0.35,-0.53,-0.28,-0.06,0.07,0.95,
1.535,-0.36,-0.53,-0.24,-0.06,0.07,0.95,
1.537,-0.36,-0.53,-0.24,-0.06,0.07,0.95,
1.54,-0.36,-0.53,-0.24,-0.06,0.07,0.95,
1.54,-0.38,-0.56,-0.20,-0.06,0.07,0.95,
1.542,-0.38,-0.56,-0.20,-0.06,0.07,0.95,
1.545,-0.38,-0.56,-0.20,-0.06,0.07,0.96,
1.545,-0.39,-0.57,-0.18,-0.06,0.07,0.96,
1.547,-0.39,-0.57,-0.18,-0.06,0.06,0.96,
1.55,-0.39,-0.57,-0.18,-0.06,0.06,0.96,
1.55,-0.40,-0.60,-0.14,-0.06,0.06,0.96,
1.552,-0.40,-0.60,-0.14,-0.06,0.06,0.96,
1.555,-0.40,-0.60,-0.14,-0.07,0.06,0.96,
1.555,-0.40,-0.62,-0.10,-0.07,0.06,0.96,
1.557,-0.40,-0.62,-0.10,-0.07,0.06,0.97,
1.559,-0.40,-0.62,-0.10,-0.07,0.06,0.97,
1.56,-0.43,-0.64,-0.05,-0.07,0.06,0.97,
1.562,-0.43,-0.64,-0.05,-0.07,0.06,0.97,
1.564,-0.43,-0.64,-0.05,-0.07,0.06,0.98,
1.564,-0.46,-0.66,-0.01,-0.07,0.06,0.98,
1.567,-0.46,-0.66,-0.01,-0.07,0.05,0.98,
1.569,-0.46,-0.66,-0.01,-0.07,0.05,0.98,
1.57,-0.48,-0.67,0.07,-0.07,0.05,0.98,
1.572,-0.48,-0.67,0.07,-0.07,0.05,0.99,
1.574,-0.48,-0.67,0.07,-0.07,0.05,0.99,
1.575,-0.46,-0.70,0.13,-0.07,0.05,0.99,
1.577,-0.46,-0.70,0.13,-0.07,0.05,0.99,
1.579,-0.46,-0.70,0.13,-0.07,0.05,1.00,
1.58,-0.48,-0.70,0.19,-0.07,0.05,1.00,
1.581,-0.48,-0.70,0.19,-0.07,0.05,1.00,
1.584,-0.48,-0.70,0.19,-0.07,0.04,1.00,
1.584,-0.48,-0.74,0.25,-0.07,0.04,1.00,
1.586,-0.48,-0.74,0.25,-0.07,0.04,1.01,
1.59,-0.48,-0.74,0.25,-0.07,0.04,1.01,
1.59,-0.48,-0.75,0.30,-0.07,0.04,1.01,
1.591,-0.48,-0.75,0.30,-0.07,0.04,1.01,
1.594,-0.48,-0.75,0.30,-0.07,0.04,1.01,
1.595,-0.47,-0.77,0.36,-0.07,0.04,1.01,
1.596,-0.47,-0.77,0.36,-0.07,0.04,1.01,
1.599,-0.47,-0.77,0.36,-0.06,0.04,1.01,
1.599,-0.42,-0.79,0.38,-0.06,0.04,1.01,
1.601,-0.42,-0.79,0.38,-0.06,0.04,1.01,
1.604,-0.42,-0.79,0.38,-0.06,0.04,1.01,
1.604,-0.39,-0.79,0.39,-0.06,0.04,1.01,
1.607,-0.39,-0.79,0.39,-0.06,0.04,1.01,
1.608,-0.39,-0.79,0.39,-0.06,0.04,1.00,
1.609,-0.37,-0.79,0.37,-0.06,0.04,1.00,
1.611,-0.37,-0.79,0.37,-0.06,0.04,1.00,
1.613,-0.37,-0.79,0.37,-0.06,0.03,1.00,
1.614,-0.35,-0.81,0.33,-0.06,0.03,1.00,
1.616,-0.35,-0.81,0.33,-0.06,0.03,0.99,
1.618,-0.35,-0.81,0.33,-0.05,0.03,0.99,
1.619,-0.35,-0.84,0.26,-0.05,0.03,0.99,
1.62,-0.35,-0.84,0.26,-0.05,0.03,0.99,
1.628,-0.35,-0.84,0.26,-0.05,0.03,0.99,
1.628,-0.31,-0.83,0.20,-0.05,0.03,0.99,
1.629,-0.31,-0.83,0.20,-0.05,0.03,0.99,
1.629,-0.31,-0.83,0.20,-0.05,0.03,0.98,
1.631,-0.29,-0.86,0.18,-0.05,0.03,0.98,
1.631,-0.29,-0.86,0.18,-0.05,0.02,0.98,
1.633,-0.29,-0.86,0.18,-0.05,0.02,0.98,
1.633,-0.27,-0.88,0.14,-0.05,0.02,0.98,
1.635,-0.27,-0.88,0.14,-0.05,0.02,0.98,
1.638,-0.26,-0.91,0.10,-0.05,0.02,0.98,
1.639,-0.26,-0.91,0.10,-0.05,0.02,0.98,
1.643,-0.26,-0.91,0.10,-0.05,0.02,0.98,
1.643,-0.26,-0.91,0.10,-0.05,0.02,0.97,
1.644,-0.25,-0.94,0.05,-0.05,0.02,0.97,
1.645,-0.25,-0.94,0.05,-0.05,0.01,0.97,
1.647,-0.25,-0.94,0.05,-0.05,0.01,0.97,
1.648,-0.24,-0.94,0.04,-0.05,0.01,0.97,
1.65,-0.24,-0.94,0.04,-0.05,0.01,0.97,
1.652,-0.24,-0.94,0.04,-0.05,0.01,0.97,
1.653,-0.26,-0.99,0.00,-0.05,0.01,0.97,
1.654,-0.26,-0.99,0.00,-0.05,0.01,0.97,
1.657,-0.26,-0.99,0.00,-0.05,0.01,0.98,
1.657,-0.27,-1.01,-0.00,-0.05,0.01,0.98,
1.659,-0.27,-1.01,-0.00,-0.06,0.01,0.98,
1.662,-0.27,-1.01,-0.00,-0.06,0.01,0.98,
1.662,-0.30,-1.01,0.03,-0.06,0.01,0.98,
1.664,-0.30,-1.01,0.03,-0.06,0.01,0.98,
1.667,-0.30,-1.01,0.03,-0.06,0.01,0.98,
1.667,-0.33,-1.00,0.06,-0.06,0.01,0.98,
1.669,-0.33,-1.00,0.06,-0.06,0.01,0.99,
1.672,-0.33,-1.00,0.06,-0.06,0.02,0.99,
1.672,-0.35,-0.98,0.10,-0.06,0.02,0.99,
1.674,-0.35,-0.98,0.10,-0.07,0.02,0.99,
1.677,-0.35,-0.98,0.10,-0.07,0.02,0.99,
1.677,-0.38,-0.95,0.15,-0.07,0.02,0.99,
1.679,-0.38,-0.95,0.15,-0.07,0.02,0.99,
1.682,-0.38,-0.95,0.15,-0.07,0.02,0.99,
1.682,-0.41,-0.92,0.17,-0.07,0.02,0.99,
1.684,-0.41,-0.92,0.17,-0.06,0.02,0.99,
1.687,-0.41,-0.92,0.17,-0.06,0.02,0.99,
1.687,-0.40,-0.90,0.20,-0.06,0.02,0.99,
1.689,-0.40,-0.90,0.20,-0.06,0.03,0.99,
1.691,-0.40,-0.90,0.20,-0.06,0.03,1.00,
1.692,-0.37,-0.87,0.20,-0.06,0.03,1.00,
1.694,-0.37,-0.87,0.20,-0.06,0.03,1.00,
1.696,-0.37,-0.87,0.20,-0.06,0.03,0.99,
1.697,-0.36,-0.84,0.22,-0.06,0.03,0.99,
1.699,-0.36,-0.84,0.22,-0.06,0.03,0.99,
1.701,-0.36,-0.84,0.22,-0.06,0.03,0.99,
1.701,-0.33,-0.81,0.21,-0.06,0.03,0.99,
1.704,-0.33,-0.81,0.21,-0.06,0.03,0.99,
1.707,-0.33,-0.81,0.21,-0.06,0.03,0.99,
1.707,-0.32,-0.78,0.19,-0.06,0.03,0.99,
1.709,-0.32,-0.78,0.19,-0.06,0.03,0.98,
1.711,-0.32,-0.78,0.19,-0.06,0.03,0.98,
1.711,-0.30,-0.80,0.17,-0.06,0.03,0.98,
1.713,-0.30,-0.80,0.17,-0.06,0.03,0.98,
1.716,-0.30,-0.80,0.17,-0.05,0.02,0.98,
1.716,-0.31,-0.81,0.10,-0.05,0.02,0.98,
1.718,-0.31,-0.81,0.10,-0.05,0.02,0.98,
1.721,-0.31,-0.81,0.10,-0.05,0.02,0.97,
1.721,-0.29,-0.81,0.05,-0.05,0.02,0.97,
1.727,-0.29,-0.81,0.05,-0.05,0.02,0.97,
1.728,-0.29,-0.81,0.05,-0.05,0.02,0.97,
1.728,-0.23,-0.84,0.03,-0.05,0.02,0.97,
1.728,-0.23,-0.84,0.03,-0.05,0.02,0.97,
1.731,-0.23,-0.84,0.03,-0.04,0.02,0.97,
1.731,-0.22,-0.86,0.01,-0.04,0.02,0.97,
1.733,-0.22,-0.86,0.01,-0.04,0.02,0.97,
1.736,-0.22,-0.86,0.01,-0.04,0.02,0.97,
1.736,-0.19,-0.85,-0.00,-0.04,0.02,0.97,
1.739,-0.19,-0.85,-0.00,-0.04,0.01,0.97,
1.74,-0.19,-0.85,-0.00,-0.04,0.02,0.97,
1.741,-0.14,-0.87,-0.02,-0.04,0.02,0.97,
1.743,-0.14,-0.87,-0.02,-0.04,0.01,0.97,
1.745,-0.14,-0.87,-0.02,-0.04,0.01,0.97,
1.746,-0.12,-0.88,-0.02,-0.04,0.01,0.97,
1.748,-0.12,-0.88,-0.02,-0.04,0.01,0.97,
1.75,-0.12,-0.88,-0.02,-0.04,0.01,0.97,
1.75,-0.13,-0.89,-0.01,-0.04,0.01,0.97,
1.753,-0.13,-0.89,-0.01,-0.04,0.01,0.97,
1.756,-0.13,-0.89,-0.01,-0.04,0.01,0.97,
1.757,-0.15,-0.90,-0.01,-0.04,0.01,0.97,
1.758,-0.15,-0.90,-0.01,-0.04,0.01,0.97,
1.76,-0.15,-0.90,-0.01,-0.04,0.01,0.97,
1.76,-0.13,-0.89,-0.04,-0.04,0.01,0.97,
1.762,-0.13,-0.89,-0.04,-0.04,0.01,0.97,
1.765,-0.13,-0.89,-0.04,-0.04,0.02,0.97,
1.765,-0.12,-0.88,-0.03,-0.04,0.02,0.97,
1.767,-0.12,-0.88,-0.03,-0.03,0.02,0.97,
1.77,-0.12,-0.88,-0.03,-0.04,0.02,0.97,
1.77,-0.11,-0.84,-0.02,-0.04,0.02,0.97,
1.772,-0.11,-0.84,-0.02,-0.04,0.02,0.97,
1.775,-0.11,-0.84,-0.02,-0.04,0.02,0.97,
1.776,-0.09,-0.81,-0.05,-0.04,0.02,0.97,
1.777,-0.09,-0.81,-0.05,-0.04,0.02,0.97,
1.78,-0.09,-0.81,-0.05,-0.04,0.02,0.97,
1.78,-0.10,-0.78,-0.05,-0.04,0.02,0.97,
1.782,-0.10,-0.78,-0.05,-0.04,0.02,0.97,
1.785,-0.10,-0.78,-0.05,-0.04,0.03,0.97,
1.785,-0.11,-0.76,-0.04,-0.04,0.03,0.97,
1.787,-0.11,-0.76,-0.04,-0.03,0.03,0.98,
1.79,-0.11,-0.76,-0.04,-0.03,0.03,0.98,
1.79,-0.10,-0.71,-0.01,-0.03,0.03,0.98,
1.793,-0.10,-0.71,-0.01,-0.03,0.03,0.98,
1.795,-0.10,-0.71,-0.01,-0.03,0.04,0.99,
1.795,-0.07,-0.63,0.04,-0.03,0.04,0.99,
1.797,-0.07,-0.63,0.04,-0.03,0.04,0.99,
1.799,-0.07,-0.63,0.04,-0.03,0.04,0.99,
1.8,-0.06,-0.59,0.11,-0.03,0.04,0.99,
1.802,-0.06,-0.59,0.11,-0.03,0.04,0.99,
1.804,-0.06,-0.59,0.11,-0.03,0.04,1.00,
1.804,-0.05,-0.53,0.17,-0.03,0.04,1.00,
1.81,-0.05,-0.53,0.17,-0.03,0.05,1.00,
1.811,-0.05,-0.53,0.17,-0.03,0.05,1.00,
1.811,-0.06,-0.49,0.21,-0.03,0.05,1.00,
1.811,-0.06,-0.49,0.21,-0.03,0.05,1.00,
1.814,-0.06,-0.49,0.21,-0.03,0.05,1.00,
1.815,-0.03,-0.45,0.23,-0.03,0.05,1.00,
1.816,-0.03,-0.45,0.23,-0.03,0.05,1.00,
1.819,-0.03,-0.45,0.23,-0.03,0.05,1.00,
1.819,-0.03,-0.44,0.23,-0.03,0.05,1.00,
1.822,-0.03,-0.44,0.23,-0.03,0.05,1.00,
1.824,-0.04,-0.44,0.22,-0.03,0.05,1.00,
1.825,-0.04,-0.44,0.22,-0.03,0.05,1.00,
1.826,-0.04,-0.44,0.22,-0.03,0.05,0.99,
1.829,-0.04,-0.44,0.22,-0.03,0.05,0.99,
1.829,-0.03,-0.42,0.22,-0.03,0.05,0.99,
1.831,-0.03,-0.42,0.22,-0.03,0.05,0.99,
1.833,-0.03,-0.42,0.22,-0.03,0.05,0.99,
1.834,-0.00,-0.42,0.19,-0.03,0.05,0.99,
1.836,-0.00,-0.42,0.19,-0.03,0.05,0.99,
1.839,-0.00,-0.42,0.19,-0.03,0.05,0.99,
1.839,0.01,-0.43,0.16,-0.03,0.05,0.99,
1.841,0.01,-0.43,0.16,-0.03,0.05,0.99,
1.843,0.01,-0.43,0.16,-0.03,0.05,0.99,
1.843,0.03,-0.41,0.15,-0.03,0.05,0.99,
1.846,0.03,-0.41,0.15,-0.02,0.05,0.99,
1.848,0.04,-0.41,0.13,-0.02,0.05,0.99,
1.849,0.04,-0.41,0.13,-0.02,0.05,0.99,
1.851,0.04,-0.41,0.13,-0.02,0.05,0.99,
1.853,0.04,-0.41,0.13,-0.02,0.05,0.99,
1.854,0.07,-0.40,0.14,-0.02,0.05,0.99,
1.856,0.07,-0.40,0.14,-0.02,0.05,0.99,
1.859,0.07,-0.40,0.14,-0.03,0.05,0.99,
1.859,0.09,-0.39,0.14,-0.03,0.05,0.99,
1.861,0.09,-0.39,0.14,-0.03,0.05,0.99,
1.863,0.09,-0.39,0.14,-0.03,0.05,0.99,
1.863,0.07,-0.37,0.16,-0.03,0.05,0.99,
1.865,0.07,-0.37,0.16,-0.03,0.06,1.00,
1.868,0.07,-0.37,0.16,-0.03,0.06,1.00,
1.868,0.07,-0.35,0.18,-0.03,0.06,1.00,
1.87,0.07,-0.35,0.18,-0.03,0.06,1.00,
1.873,0.07,-0.35,0.18,-0.03,0.06,1.00,
1.874,0.05,-0.30,0.21,-0.03,0.06,1.00,
1.876,0.05,-0.30,0.21,-0.03,0.06,1.00,
1.878,0.04,-0.28,0.24,-0.03,0.06,1.00,
1.879,0.04,-0.28,0.24,-0.04,0.06,1.01,
1.88,0.04,-0.28,0.24,-0.04,0.07,1.01,
1.882,0.04,-0.28,0.24,-0.04,0.07,1.01,
1.883,0.00,-0.25,0.30,-0.04,0.07,1.01,
1.885,0.00,-0.25,0.30,-0.04,0.07,1.02,
1.888,0.00,-0.25,0.30,-0.04,0.07,1.02,
1.888,-0.01,-0.21,0.36,-0.04,0.07,1.02,
1.89,-0.01,-0.21,0.36,-0.04,0.07,1.02,
1.893,-0.01,-0.21,0.36,-0.04,0.07,1.03,
1.894,-0.04,-0.17,0.42,-0.04,0.07,1.03,
1.895,-0.04,-0.17,0.42,-0.04,0.07,1.03,
1.897,-0.04,-0.17,0.42,-0.04,0.07,1.03,
1.897,-0.05,-0.15,0.46,-0.04,0.07,1.03,
1.899,-0.05,-0.15,0.46,-0.04,0.08,1.03,
1.902,-0.05,-0.15,0.46,-0.04,0.08,1.03,
1.902,-0.05,-0.12,0.50,-0.04,0.08,1.03,
1.911,-0.05,-0.12,0.50,-0.04,0.08,1.03,
1.911,-0.05,-0.12,0.50,-0.04,0.08,1.03,
1.912,-0.07,-0.11,0.53,-0.04,0.08,1.03,
1.912,-0.07,-0.11,0.53,-0.04,0.08,1.03,
1.912,-0.07,-0.11,0.53,-0.04,0.08,1.03,
1.912,-0.05,-0.09,0.52,-0.04,0.08,1.03,
1.914,-0.05,-0.09,0.52,-0.04,0.08,1.03,
1.917,-0.05,-0.09,0.52,-0.04,0.08,1.03,
1.917,-0.06,-0.07,0.52,-0.04,0.08,1.03,
1.919,-0.06,-0.07,0.52,-0.04,0.08,1.03,
1.924,-0.06,-0.07,0.52,-0.04,0.08,1.03,
1.924,-0.03,-0.06,0.51,-0.04,0.08,1.03,
1.924,-0.03,-0.06,0.51,-0.04,0.08,1.03,
1.927,-0.03,-0.06,0.51,-0.03,0.08,1.02,
1.927,-0.01,-0.07,0.49,-0.03,0.08,1.02,
1.929,-0.01,-0.07,0.49,-0.03,0.08,1.02,
1.931,-0.01,-0.07,0.49,-0.03,0.08,1.02,
1.932,0.01,-0.07,0.44,-0.03,0.08,1.02,
1.934,0.01,-0.07,0.44,-0.03,0.08,1.02,
1.937,0.01,-0.07,0.44,-0.03,0.08,1.01,
1.937,0.05,-0.06,0.40,-0.03,0.08,1.01,
1.939,0.05,-0.06,0.40,-0.03,0.08,1.01,
1.941,0.05,-0.06,0.40,-0.03,0.08,1.01,
1.942,0.09,-0.05,0.34,-0.03,0.08,1.01,
1.944,0.09,-0.05,0.34,-0.02,0.08,1.01,
1.946,0.09,-0.05,0.34,-0.02,0.08,1.00,
1.946,0.09,-0.04,0.27,-0.02,0.08,1.00,
1.948,0.09,-0.04,0.27,-0.03,0.08,1.00,
1.951,0.09,-0.04,0.27,-0.02,0.09,1.00,
1.951,0.10,-0.05,0.23,-0.02,0.09,1.00,
1.953,0.10,-0.05,0.23,-0.02,0.09,1.00,
1.956,0.10,-0.05,0.23,-0.03,0.09,1.00,
1.956,0.09,-0.02,0.18,-0.03,0.09,1.00,
1.958,0.09,-0.02,0.18,-0.03,0.09,0.99,
1.961,0.09,-0.02,0.18,-0.03,0.09,0.99,
1.961,0.10,-0.01,0.14,-0.03,0.09,0.99,
1.963,0.10,-0.01,0.14,-0.03,0.09,0.99,
1.966,0.10,-0.01,0.14,-0.03,0.09,0.99,
1.966,0.10,-0.00,0.12,-0.03,0.09,0.99,
1.968,0.10,-0.00,0.12,-0.03,0.09,0.99,
1.972,0.10,-0.00,0.12,-0.03,0.10,0.99,
1.973,0.09,0.05,0.09,-0.03,0.10,0.99,
1.973,0.09,0.05,0.09,-0.04,0.10,0.99,
1.975,0.09,0.05,0.09,-0.04,0.10,0.99,
1.976,0.06,0.07,0.07,-0.04,0.10,0.99,
1.978,0.06,0.07,0.07,-0.04,0.10,0.98,
1.98,0.06,0.07,0.07,-0.05,0.10,0.92,
1.981,0.00,0.09,0.05,-0.05,0.10,0.92,
1.983,0.00,0.09,0.05,-0.06,0.10,0.82,
1.985,0.00,0.09,0.05,-0.06,0.12,0.77,
1.986,-0.04,0.09,-0.31,-0.06,0.12,0.77,
1.989,-0.04,0.09,-0.31,-0.05,0.13,0.77,
1.991,-0.04,0.09,-0.31,-0.04,0.14,0.81,
1.992,-0.26,0.21,-1.84,-0.04,0.14,0.81,
1.993,-0.26,0.21,-1.84,-0.02,0.15,0.84,
1.996,-0.26,0.21,-1.84,-0.02,0.15,0.85,
1.996,-0.04,0.49,-1.83,-0.02,0.15,0.85,
1.997,-0.04,0.49,-1.83,-0.02,0.14,0.85,
2.0,-0.04,0.49,-1.83,-0.03,0.14,0.84,
2.0,0.18,0.59,-1.34,-0.03,0.14,0.84,
2.002,0.18,0.59,-1.34,-0.03,0.13,0.85,
2.005,0.18,0.59,-1.34,-0.04,0.12,0.86,
2.005,0.16,0.54,-1.29,-0.04,0.12,0.86,
2.007,0.16,0.54,-1.29,-0.03,0.10,0.88,
2.01,0.16,0.54,-1.29,-0.03,0.09,0.91,
2.01,0.06,0.38,-1.16,-0.03,0.09,0.91,
2.012,0.06,0.38,-1.16,-0.02,0.07,0.94,
2.015,0.06,0.38,-1.16,-0.02,0.06,0.96,
2.015,0.10,0.12,-0.77,-0.02,0.06,0.96,
2.017,0.10,0.12,-0.77,-0.02,0.05,0.99,
2.02,0.10,0.12,-0.77,-0.03,0.04,1.01,
2.02,0.20,-0.14,-0.25,-0.03,0.04,1.01,
2.025,0.20,-0.14,-0.25,-0.04,0.04,1.04,
2.025,0.20,-0.14,-0.25,-0.04,0.04,1.06,
2.025,0.15,-0.29,0.24,-0.04,0.04,1.06,
2.027,0.15,-0.29,0.24,-0.05,0.04,1.08,
2.03,0.15,-0.29,0.24,-0.05,0.04,1.09,
2.03,0.03,-0.33,0.69,-0.05,0.04,1.09,
2.032,0.03,-0.33,0.69,-0.05,0.04,1.10,
2.034,0.03,-0.33,0.69,-0.05,0.04,1.11,
2.034,-0.06,-0.33,1.02,-0.05,0.04,1.11,
2.036,-0.06,-0.33,1.02,-0.05,0.05,1.11,
2.039,-0.06,-0.33,1.02,-0.05,0.05,1.12,
2.04,-0.10,-0.28,1.23,-0.05,0.05,1.12,
2.041,-0.10,-0.28,1.23,-0.05,0.06,1.12,
2.044,-0.10,-0.20,1.35,-0.05,0.06,1.12,
2.044,-0.10,-0.20,1.35,-0.05,0.06,1.12,
2.047,-0.10,-0.20,1.35,-0.05,0.06,1.11,
2.049,-0.10,-0.20,1.35,-0.05,0.06,1.10,
2.049,-0.12,-0.14,1.36,-0.05,0.06,1.10,
2.051,-0.12,-0.14,1.36,-0.05,0.06,1.10,
2.055,-0.12,-0.14,1.36,-0.05,0.06,1.08,
2.055,-0.11,-0.12,1.25,-0.05,0.06,1.08,
2.056,-0.11,-0.12,1.25,-0.05,0.06,1.08,
2.059,-0.11,-0.12,1.25,-0.04,0.07,1.06,
2.059,-0.08,-0.11,1.06,-0.04,0.07,1.06,
2.061,-0.08,-0.11,1.06,-0.04,0.07,1.05,
2.064,-0.08,-0.11,1.06,-0.04,0.07,1.05,
2.064,-0.04,-0.09,0.85,-0.04,0.07,1.05,
2.066,-0.04,-0.09,0.85,-0.03,0.07,1.04,
2.069,-0.00,-0.07,0.65,-0.03,0.07,1.04,
2.069,-0.00,-0.07,0.65,-0.03,0.07,1.03,
2.071,-0.00,-0.07,0.65,-0.03,0.08,1.02,
