
time,ax,ay,az,gFx,gFy,gFz,
0.002,0.09,0.02,-0.24,-0.01,0.12,0.95,
0.002,0.09,0.02,-0.24,-0.01,0.12,0.95,
0.002,0.06,0.00,-0.30,-0.01,0.12,0.95,
0.003,0.06,0.00,-0.30,-0.01,0.12,0.95,
0.006,0.06,0.00,-0.30,-0.01,0.12,0.95,
0.006,0.02,-0.01,-0.29,-0.01,0.12,0.95,
0.008,0.02,-0.01,-0.29,-0.01,0.11,0.96,
0.011,0.02,-0.01,-0.29,-0.01,0.11,0.96,
0.011,-0.00,-0.02,-0.23,-0.01,0.11,0.96,
0.013,-0.00,-0.02,-0.23,-0.01,0.11,0.96,
0.016,-0.00,-0.02,-0.23,-0.01,0.11,0.96,
0.016,-0.00,-0.06,-0.19,-0.01,0.11,0.96,
0.018,-0.00,-0.06,-0.19,-0.01,0.11,0.96,
0.02,-0.00,-0.06,-0.19,-0.01,0.11,0.97,
0.02,0.00,-0.08,-0.16,-0.01,0.11,0.97,
0.023,0.00,-0.08,-0.16,-0.01,0.12,0.97,
0.028,0.00,-0.08,-0.16,-0.01,0.12,0.97,
0.028,0.00,-0.07,-0.12,-0.01,0.12,0.97,
0.028,0.00,-0.07,-0.12,-0.01,0.12,0.97,
0.031,0.00,-0.07,-0.12,-0.01,0.12,0.97,
0.032,-0.01,-0.05,-0.09,-0.01,0.12,0.97,
0.033,-0.01,-0.05,-0.09,-0.02,0.12,0.97,
0.035,-0.01,-0.05,-0.09,-0.02,0.12,0.97,
0.035,-0.02,-0.03,-0.08,-0.02,0.12,0.97,
0.037,-0.02,-0.03,-0.08,-0.02,0.12,0.97,
0.04,-0.02,-0.03,-0.08,-0.01,0.12,0.97,
0.04,-0.03,-0.04,-0.08,-0.01,0.12,0.97,
0.043,-0.03,-0.04,-0.08,-0.01,0.12,0.97,
0.045,-0.03,-0.04,-0.08,-0.02,0.12,0.97,
0.045,-0.02,-0.03,-0.07,-0.02,0.12,0.97,
0.047,-0.02,-0.03,-0.07,-0.02,0.12,0.97,
0.05,-0.02,-0.03,-0.07,-0.02,0.12,0.98,
0.05,-0.01,-0.05,-0.05,-0.02,0.12,0.98,
0.052,-0.01,-0.05,-0.05,-0.02,0.12,0.98,
0.055,-0.01,-0.05,-0.05,-0.01,0.12,0.98,
0.055,-0.03,-0.03,-0.02,-0.01,0.12,0.98,
0.057,-0.03,-0.03,-0.02,-0.01,0.12,0.98,
0.06,-0.03,-0.03,-0.02,-0.01,0.12,0.98,
0.06,-0.03,-0.04,-0.00,-0.01,0.12,0.98,
0.062,-0.03,-0.04,-0.00,-0.01,0.12,0.97,
0.064,-0.03,-0.04,-0.00,-0.02,0.12,0.97,
0.065,-0.01,-0.04,-0.01,-0.02,0.12,0.97,
0.067,-0.01,-0.04,-0.01,-0.01,0.12,0.97,
0.069,-0.01,-0.04,-0.01,-0.01,0.12,0.97,
0.069,-0.02,-0.05,-0.03,-0.01,0.12,0.97,
0.072,-0.02,-0.05,-0.03,-0.01,0.12,0.97,
0.074,-0.02,-0.05,-0.03,-0.01,0.12,0.97,
0.075,-0.01,-0.03,-0.03,-0.01,0.12,0.97,
0.077,-0.01,-0.03,-0.03,-0.01,0.12,0.97,
0.079,-0.01,-0.03,-0.03,-0.01,0.12,0.97,
0.08,-0.00,-0.03,-0.06,-0.01,0.12,0.97,
0.082,-0.00,-0.03,-0.06,-0.01,0.12,0.97,
0.084,-0.00,-0.03,-0.06,-0.02,0.12,0.97,
0.084,-0.02,-0.01,-0.06,-0.02,0.12,0.97,
0.086,-0.02,-0.01,-0.06,-0.02,0.12,0.97,
0.089,-0.02,-0.01,-0.06,-0.02,0.12,0.97,
0.089,-0.03,-0.00,-0.07,-0.02,0.12,0.97,
0.091,-0.03,-0.00,-0.07,-0.02,0.12,0.97,
0.096,-0.03,-0.00,-0.07,-0.02,0.13,0.97,
0.096,-0.06,0.02,-0.08,-0.02,0.13,0.97,
0.096,-0.06,0.02,-0.08,-0.02,0.13,0.97,
0.099,-0.06,0.02,-0.08,-0.02,0.13,0.97,
0.099,-0.07,0.04,-0.07,-0.02,0.13,0.97,
0.101,-0.07,0.04,-0.07,-0.02,0.13,0.97,
0.104,-0.07,0.04,-0.07,-0.02,0.13,0.97,
0.104,-0.09,0.06,-0.08,-0.02,0.13,0.97,
0.106,-0.09,0.06,-0.08,-0.02,0.13,0.97,
0.11,-0.09,0.06,-0.08,-0.02,0.13,0.97,
0.11,-0.10,0.06,-0.08,-0.02,0.13,0.97,
0.111,-0.10,0.06,-0.08,-0.02,0.13,0.97,
0.113,-0.10,0.06,-0.08,-0.02,0.13,0.97,
0.114,-0.11,0.09,-0.08,-0.02,0.13,0.97,
0.116,-0.11,0.09,-0.08,-0.02,0.13,0.97,
0.118,-0.11,0.09,-0.08,-0.02,0.13,0.97,
0.118,-0.10,0.12,-0.08,-0.02,0.13,0.97,
0.121,-0.10,0.12,-0.08,-0.02,0.14,0.97,
0.123,-0.10,0.12,-0.08,-0.02,0.14,0.97,
0.124,-0.07,0.12,-0.09,-0.02,0.14,0.97,
0.126,-0.07,0.12,-0.09,-0.01,0.14,0.96,
0.128,-0.07,0.12,-0.09,-0.01,0.14,0.96,
0.129,-0.05,0.14,-0.10,-0.01,0.14,0.96,
0.131,-0.05,0.14,-0.10,-0.01,0.13,0.96,
0.133,-0.05,0.14,-0.10,-0.01,0.13,0.96,
0.133,0.01,0.14,-0.11,-0.01,0.13,0.96,
0.136,0.01,0.14,-0.11,-0.01,0.13,0.97,
0.138,0.01,0.14,-0.11,-0.00,0.13,0.97,
0.138,0.05,0.12,-0.12,-0.00,0.13,0.97,
0.14,0.05,0.12,-0.12,-0.00,0.13,0.97,
0.143,0.05,0.12,-0.12,-0.00,0.13,0.97,
0.143,0.07,0.11,-0.09,-0.00,0.13,0.97,
0.145,0.07,0.11,-0.09,-0.00,0.13,0.97,
0.148,0.07,0.11,-0.09,-0.00,0.12,0.97,
0.148,0.10,0.09,-0.08,-0.00,0.12,0.97,
0.15,0.10,0.09,-0.08,-0.00,0.12,0.97,
0.153,0.10,0.09,-0.08,0.00,0.12,0.97,
0.153,0.09,0.05,-0.05,0.00,0.12,0.97,
0.155,0.09,0.05,-0.05,0.00,0.12,0.97,
0.157,0.09,0.05,-0.05,-0.00,0.12,0.97,
0.158,0.10,0.02,-0.04,-0.00,0.12,0.97,
0.16,0.10,0.02,-0.04,-0.00,0.12,0.97,
0.162,0.10,0.02,-0.04,0.00,0.12,0.97,
0.163,0.12,-0.00,-0.05,0.00,0.12,0.97,
0.165,0.12,-0.00,-0.05,-0.00,0.12,0.97,
0.167,0.12,-0.00,-0.05,-0.00,0.12,0.97,
0.167,0.11,-0.02,-0.05,-0.00,0.12,0.97,
0.17,0.11,-0.02,-0.05,-0.00,0.12,0.97,
0.172,0.11,-0.02,-0.05,-0.00,0.12,0.97,
0.172,0.10,-0.01,-0.05,-0.00,0.12,0.97,
0.175,0.10,-0.01,-0.05,-0.00,0.12,0.97,
0.182,0.10,-0.01,-0.05,-0.01,0.11,0.98,
0.183,0.10,-0.03,-0.04,-0.01,0.11,0.98,
0.183,0.10,-0.03,-0.04,-0.01,0.11,0.98,
0.183,0.07,-0.05,-0.01,-0.01,0.11,0.98,
0.183,0.07,-0.05,-0.01,-0.01,0.11,0.98,
0.184,0.07,-0.05,-0.01,-0.01,0.11,0.98,
0.187,0.07,-0.05,-0.01,-0.01,0.11,0.99,
0.187,0.03,-0.07,0.03,-0.01,0.11,0.99,
0.189,0.03,-0.07,0.03,-0.01,0.11,0.99,
0.192,0.03,-0.07,0.03,-0.01,0.11,0.99,
0.192,0.00,-0.07,0.09,-0.01,0.11,0.99,
0.194,0.00,-0.07,0.09,-0.02,0.11,1.00,
0.196,0.00,-0.07,0.09,-0.02,0.11,1.00,
0.197,-0.02,-0.07,0.16,-0.02,0.11,1.00,
0.199,-0.02,-0.07,0.16,-0.02,0.11,1.00,
0.202,-0.02,-0.07,0.16,-0.02,0.12,1.00,
0.202,-0.06,-0.07,0.21,-0.02,0.12,1.00,
0.204,-0.06,-0.07,0.21,-0.02,0.12,1.00,
0.206,-0.06,-0.07,0.21,-0.02,0.12,0.99,
0.207,-0.11,-0.04,0.25,-0.02,0.12,0.99,
0.209,-0.11,-0.04,0.25,-0.02,0.12,0.99,
0.211,-0.11,-0.04,0.25,-0.02,0.13,0.98,
0.211,-0.09,-0.02,0.18,-0.02,0.13,0.98,
0.214,-0.09,-0.02,0.18,-0.02,0.13,0.98,
0.216,-0.09,-0.02,0.18,-0.02,0.13,0.98,
0.216,-0.05,0.04,0.09,-0.02,0.13,0.98,
0.218,-0.05,0.04,0.09,-0.02,0.13,0.98,
0.221,-0.05,0.04,0.09,-0.02,0.13,0.98,
0.222,-0.05,0.08,0.03,-0.02,0.13,0.98,
0.223,-0.05,0.08,0.03,-0.02,0.13,0.97,
0.226,-0.05,0.08,0.03,-0.02,0.13,0.97,
0.226,-0.08,0.10,0.00,-0.02,0.13,0.97,
0.228,-0.08,0.10,0.00,-0.03,0.13,0.97,
0.231,-0.08,0.10,0.00,-0.03,0.13,0.97,
0.231,-0.08,0.09,-0.03,-0.03,0.13,0.97,
0.233,-0.08,0.09,-0.03,-0.03,0.13,0.97,
0.236,-0.08,0.09,-0.03,-0.03,0.13,0.98,
0.236,-0.12,0.09,-0.04,-0.03,0.13,0.98,
0.238,-0.12,0.09,-0.04,-0.03,0.13,0.98,
0.241,-0.12,0.09,-0.04,-0.03,0.13,0.98,
0.241,-0.13,0.09,-0.00,-0.03,0.13,0.98,
0.243,-0.13,0.09,-0.00,-0.03,0.13,0.98,
0.246,-0.13,0.09,-0.00,-0.03,0.13,0.98,
0.246,-0.13,0.09,0.01,-0.03,0.13,0.98,
0.248,-0.13,0.09,0.01,-0.03,0.13,0.98,
0.251,-0.15,0.11,0.04,-0.03,0.13,0.98,
0.251,-0.15,0.11,0.04,-0.03,0.13,0.98,
0.253,-0.15,0.11,0.04,-0.03,0.13,0.98,
0.256,-0.15,0.11,0.04,-0.03,0.13,0.99,
0.256,-0.16,0.11,0.08,-0.03,0.13,0.99,
0.258,-0.16,0.11,0.08,-0.04,0.13,0.99,
0.26,-0.16,0.11,0.08,-0.04,0.13,0.99,
0.261,-0.19,0.10,0.09,-0.04,0.13,0.99,
0.263,-0.19,0.10,0.09,-0.04,0.13,0.99,
0.265,-0.19,0.10,0.09,-0.04,0.13,0.99,
0.265,-0.23,0.09,0.11,-0.04,0.13,0.99,
0.267,-0.23,0.09,0.11,-0.04,0.13,0.99,
0.27,-0.23,0.09,0.11,-0.04,0.13,0.98,
0.27,-0.26,0.07,0.12,-0.04,0.13,0.98,
0.273,-0.26,0.07,0.12,-0.04,0.12,0.98,
0.283,-0.26,0.07,0.12,-0.04,0.12,0.98,
0.283,-0.25,0.03,0.08,-0.04,0.12,0.98,
0.283,-0.25,0.03,0.08,-0.04,0.12,0.98,
0.283,-0.25,0.03,0.08,-0.04,0.12,0.98,
0.284,-0.23,-0.01,0.04,-0.04,0.12,0.98,
0.284,-0.23,-0.01,0.04,-0.03,0.12,0.97,
0.285,-0.23,-0.01,0.04,-0.03,0.12,0.97,
0.285,-0.24,-0.03,-0.00,-0.03,0.12,0.97,
0.287,-0.24,-0.03,-0.00,-0.03,0.12,0.97,
0.29,-0.24,-0.03,-0.00,-0.03,0.13,0.97,
0.29,-0.18,-0.01,-0.03,-0.03,0.13,0.97,
0.292,-0.18,-0.01,-0.03,-0.02,0.13,0.97,
0.295,-0.18,-0.01,-0.03,-0.02,0.13,0.97,
0.295,-0.14,0.02,-0.06,-0.02,0.13,0.97,
0.297,-0.14,0.02,-0.06,-0.02,0.13,0.97,
0.3,-0.09,0.04,-0.08,-0.02,0.13,0.97,
0.3,-0.09,0.04,-0.08,-0.02,0.13,0.97,
0.302,-0.09,0.04,-0.08,-0.02,0.13,0.97,
0.304,-0.09,0.04,-0.08,-0.02,0.13,0.98,
0.304,-0.06,0.07,-0.07,-0.02,0.13,0.98,
0.307,-0.06,0.07,-0.07,-0.02,0.13,0.98,
0.309,-0.06,0.07,-0.07,-0.01,0.13,0.98,
0.31,-0.05,0.08,-0.02,-0.01,0.13,0.98,
0.312,-0.05,0.08,-0.02,-0.01,0.13,0.98,
0.314,-0.05,0.08,-0.02,-0.01,0.13,0.98,
0.314,-0.02,0.08,0.03,-0.01,0.13,0.98,
0.316,-0.02,0.08,0.03,-0.01,0.13,0.99,
0.319,-0.02,0.08,0.03,-0.01,0.13,0.99,
0.319,-0.02,0.08,0.07,-0.01,0.13,0.99,
0.321,-0.02,0.08,0.07,-0.02,0.12,0.99,
0.324,-0.02,0.08,0.07,-0.02,0.12,1.00,
0.324,-0.02,0.04,0.13,-0.02,0.12,1.00,
0.326,-0.02,0.04,0.13,-0.01,0.12,1.00,
0.329,-0.02,0.04,0.13,-0.01,0.12,1.00,
0.329,-0.05,0.02,0.18,-0.01,0.12,1.00,
0.331,-0.05,0.02,0.18,-0.01,0.12,1.00,
0.334,-0.05,0.02,0.18,-0.01,0.12,1.00,
0.334,-0.03,-0.01,0.24,-0.01,0.12,1.00,
0.336,-0.03,-0.01,0.24,-0.01,0.12,1.00,
0.339,-0.04,-0.01,0.27,-0.01,0.12,1.00,
0.339,-0.04,-0.01,0.27,-0.01,0.12,1.00,
0.343,-0.04,-0.01,0.27,-0.01,0.12,1.00,
0.344,-0.04,-0.01,0.27,-0.01,0.12,1.00,
0.344,-0.03,-0.02,0.26,-0.01,0.12,1.00,
0.346,-0.03,-0.02,0.26,-0.01,0.12,1.00,
0.348,-0.03,-0.02,0.26,-0.01,0.12,1.00,
0.349,-0.02,-0.02,0.23,-0.01,0.12,1.00,
0.351,-0.02,-0.02,0.23,-0.02,0.12,0.99,
0.353,-0.02,-0.02,0.23,-0.02,0.12,0.99,
0.353,-0.03,-0.02,0.21,-0.02,0.12,0.99,
0.356,-0.03,-0.02,0.21,-0.02,0.12,0.99,
0.359,-0.03,-0.02,0.21,-0.02,0.12,0.98,
0.359,-0.05,-0.01,0.16,-0.02,0.12,0.98,
0.361,-0.05,-0.01,0.16,-0.02,0.12,0.98,
0.363,-0.05,-0.01,0.16,-0.02,0.12,0.98,
0.363,-0.08,-0.00,0.09,-0.02,0.12,0.98,
0.365,-0.08,-0.00,0.09,-0.02,0.12,0.97,
0.368,-0.08,-0.00,0.09,-0.02,0.13,0.97,
0.368,-0.08,0.00,0.01,-0.02,0.13,0.97,
0.37,-0.08,0.00,0.01,-0.02,0.13,0.96,
0.373,-0.08,0.00,0.01,-0.02,0.13,0.96,
0.373,-0.10,0.01,-0.07,-0.02,0.13,0.96,
0.381,-0.10,0.01,-0.07,-0.02,0.13,0.96,
0.381,-0.10,0.01,-0.07,-0.02,0.13,0.96,
0.382,-0.09,0.04,-0.14,-0.02,0.13,0.96,
0.382,-0.09,0.04,-0.14,-0.02,0.13,0.96,
0.383,-0.09,0.04,-0.14,-0.02,0.13,0.95,
0.383,-0.09,0.07,-0.19,-0.02,0.13,0.95,
0.385,-0.09,0.07,-0.19,-0.02,0.13,0.95,
0.387,-0.09,0.07,-0.19,-0.02,0.13,0.95,
0.387,-0.10,0.08,-0.21,-0.02,0.13,0.95,
0.39,-0.10,0.08,-0.21,-0.02,0.14,0.95,
0.393,-0.10,0.08,-0.21,-0.02,0.14,0.95,
0.393,-0.11,0.09,-0.23,-0.02,0.14,0.95,
0.395,-0.11,0.09,-0.23,-0.03,0.14,0.95,
0.397,-0.11,0.09,-0.23,-0.02,0.14,0.95,
0.398,-0.09,0.11,-0.23,-0.02,0.14,0.95,
0.4,-0.09,0.11,-0.23,-0.03,0.14,0.96,
0.402,-0.09,0.11,-0.23,-0.03,0.14,0.96,
0.402,-0.13,0.12,-0.22,-0.03,0.14,0.96,
0.405,-0.13,0.12,-0.22,-0.03,0.14,0.96,
0.407,-0.13,0.12,-0.22,-0.03,0.14,0.96,
0.407,-0.15,0.12,-0.19,-0.03,0.14,0.96,
0.41,-0.15,0.12,-0.19,-0.04,0.14,0.97,
0.412,-0.15,0.12,-0.19,-0.04,0.14,0.97,
0.412,-0.19,0.10,-0.15,-0.04,0.14,0.97,
0.415,-0.19,0.10,-0.15,-0.04,0.13,0.97,
0.417,-0.19,0.10,-0.15,-0.04,0.13,0.97,
0.417,-0.25,0.10,-0.10,-0.04,0.13,0.97,
0.419,-0.25,0.10,-0.10,-0.04,0.14,0.98,
0.422,-0.25,0.10,-0.10,-0.05,0.14,0.98,
0.422,-0.28,0.09,-0.05,-0.05,0.14,0.98,
0.425,-0.28,0.09,-0.05,-0.05,0.13,0.98,
0.427,-0.28,0.09,-0.05,-0.05,0.14,0.98,
0.427,-0.33,0.10,0.02,-0.05,0.14,0.98,
0.429,-0.33,0.10,0.02,-0.05,0.13,0.99,
0.432,-0.33,0.10,0.02,-0.05,0.14,0.99,
0.432,-0.36,0.09,0.07,-0.05,0.14,0.99,
0.434,-0.36,0.09,0.07,-0.05,0.14,0.99,
0.437,-0.36,0.09,0.07,-0.05,0.14,0.99,
0.437,-0.38,0.10,0.13,-0.05,0.14,0.99,
0.439,-0.38,0.10,0.13,-0.06,0.14,0.99,
0.441,-0.38,0.10,0.13,-0.06,0.14,1.00,
0.442,-0.40,0.14,0.15,-0.06,0.14,1.00,
0.444,-0.40,0.14,0.15,-0.06,0.14,1.00,
0.446,-0.40,0.14,0.15,-0.07,0.14,1.00,
0.447,-0.44,0.15,0.18,-0.07,0.14,1.00,
0.449,-0.44,0.15,0.18,-0.07,0.14,1.00,
0.451,-0.44,0.15,0.18,-0.07,0.14,1.00,
0.451,-0.49,0.16,0.23,-0.07,0.14,1.00,
0.454,-0.49,0.16,0.23,-0.07,0.15,1.00,
0.456,-0.49,0.16,0.23,-0.07,0.15,1.00,
0.456,-0.52,0.16,0.22,-0.07,0.15,1.00,
0.459,-0.52,0.16,0.22,-0.08,0.14,0.99,
0.461,-0.52,0.16,0.22,-0.08,0.14,0.99,
0.462,-0.57,0.19,0.21,-0.08,0.14,0.99,
0.463,-0.57,0.19,0.21,-0.08,0.14,0.99,
0.466,-0.57,0.19,0.21,-0.08,0.14,0.99,
0.466,-0.60,0.18,0.16,-0.08,0.14,0.99,
0.468,-0.60,0.18,0.16,-0.08,0.14,0.99,
0.471,-0.60,0.18,0.16,-0.08,0.14,0.98,
0.471,-0.64,0.16,0.13,-0.08,0.14,0.98,
0.473,-0.64,0.16,0.13,-0.09,0.14,0.98,
0.479,-0.64,0.16,0.13,-0.09,0.14,0.98,
0.479,-0.65,0.17,0.05,-0.09,0.14,0.98,
0.48,-0.65,0.17,0.05,-0.09,0.14,0.97,
0.481,-0.65,0.17,0.05,-0.09,0.14,0.97,
0.481,-0.68,0.15,-0.00,-0.09,0.14,0.97,
0.483,-0.68,0.15,-0.00,-0.09,0.14,0.97,
0.485,-0.68,0.15,-0.00,-0.09,0.14,0.97,
0.486,-0.71,0.12,-0.03,-0.09,0.14,0.97,
0.488,-0.71,0.12,-0.03,-0.09,0.14,0.97,
0.49,-0.71,0.12,-0.03,-0.09,0.14,0.97,
0.491,-0.70,0.10,-0.07,-0.09,0.14,0.97,
0.493,-0.70,0.10,-0.07,-0.09,0.14,0.97,
0.496,-0.70,0.10,-0.07,-0.09,0.14,0.97,
0.496,-0.67,0.08,-0.10,-0.09,0.14,0.97,
0.498,-0.67,0.08,-0.10,-0.09,0.14,0.97,
0.5,-0.67,0.08,-0.10,-0.09,0.13,0.97,
0.5,-0.66,0.06,-0.09,-0.09,0.13,0.97,
0.502,-0.66,0.06,-0.09,-0.09,0.13,0.97,
0.505,-0.66,0.06,-0.09,-0.09,0.13,0.97,
0.505,-0.66,0.04,-0.10,-0.09,0.13,0.97,
0.509,-0.66,0.04,-0.10,-0.09,0.13,0.97,
0.51,-0.66,0.04,-0.10,-0.09,0.13,0.97,
0.51,-0.64,0.03,-0.10,-0.09,0.13,0.97,
0.513,-0.64,0.03,-0.10,-0.09,0.13,0.97,
0.515,-0.64,0.01,-0.08,-0.09,0.13,0.97,
0.515,-0.64,0.01,-0.08,-0.09,0.13,0.97,
0.517,-0.64,0.01,-0.08,-0.09,0.13,0.97,
0.52,-0.64,0.01,-0.08,-0.09,0.13,0.97,
0.52,-0.61,0.02,-0.04,-0.09,0.13,0.97,
0.522,-0.61,0.02,-0.04,-0.09,0.14,0.98,
0.525,-0.61,0.02,-0.04,-0.09,0.14,0.98,
0.525,-0.62,0.02,-0.02,-0.09,0.14,0.98,
0.527,-0.62,0.02,-0.02,-0.10,0.13,0.98,
0.53,-0.62,0.02,-0.02,-0.10,0.13,0.98,
0.531,-0.65,0.03,0.00,-0.10,0.13,0.98,
0.532,-0.65,0.03,0.00,-0.10,0.13,0.98,
0.534,-0.65,0.03,0.00,-0.11,0.13,0.98,
0.535,-0.70,-0.00,0.01,-0.11,0.13,0.98,
0.537,-0.70,-0.00,0.01,-0.11,0.13,0.98,
0.539,-0.70,-0.00,0.01,-0.11,0.13,0.97,
0.54,-0.74,-0.00,0.00,-0.11,0.13,0.97,
0.542,-0.74,-0.00,0.00,-0.11,0.13,0.97,
0.545,-0.74,-0.00,0.00,-0.11,0.13,0.97,
0.545,-0.77,-0.02,-0.01,-0.11,0.13,0.97,
0.547,-0.77,-0.02,-0.01,-0.11,0.13,0.97,
0.549,-0.77,-0.02,-0.01,-0.11,0.13,0.97,
0.549,-0.78,-0.03,-0.01,-0.11,0.13,0.97,
0.552,-0.78,-0.03,-0.01,-0.11,0.13,0.97,
0.554,-0.78,-0.03,-0.01,-0.11,0.13,0.97,
0.554,-0.79,-0.03,-0.05,-0.11,0.13,0.97,
0.557,-0.79,-0.03,-0.05,-0.11,0.13,0.96,
0.559,-0.79,-0.03,-0.05,-0.11,0.13,0.96,
0.559,-0.78,-0.04,-0.07,-0.11,0.13,0.96,
0.561,-0.78,-0.04,-0.07,-0.11,0.13,0.96,
0.564,-0.78,-0.04,-0.07,-0.11,0.13,0.96,
0.565,-0.77,-0.04,-0.12,-0.11,0.13,0.96,
0.566,-0.77,-0.04,-0.12,-0.11,0.13,0.96,
0.569,-0.77,-0.04,-0.12,-0.11,0.13,0.96,
0.569,-0.75,-0.02,-0.15,-0.11,0.13,0.96,
0.571,-0.75,-0.02,-0.15,-0.10,0.13,0.95,
0.582,-0.75,-0.02,-0.15,-0.10,0.13,0.95,
0.583,-0.73,-0.04,-0.19,-0.10,0.13,0.95,
0.583,-0.73,-0.04,-0.19,-0.10,0.13,0.95,
0.583,-0.73,-0.04,-0.19,-0.10,0.13,0.95,
0.583,-0.69,-0.02,-0.22,-0.10,0.13,0.95,
0.584,-0.69,-0.02,-0.22,-0.10,0.13,0.95,
0.584,-0.69,-0.02,-0.22,-0.10,0.14,0.95,
0.584,-0.67,-0.01,-0.25,-0.10,0.14,0.95,
0.586,-0.67,-0.01,-0.25,-0.10,0.14,0.95,
0.588,-0.67,-0.01,-0.25,-0.11,0.13,0.95,
0.589,-0.68,-0.00,-0.27,-0.11,0.13,0.95,
0.595,-0.68,-0.00,-0.27,-0.11,0.13,0.95,
0.596,-0.68,-0.01,-0.24,-0.11,0.13,0.95,
0.596,-0.68,-0.01,-0.24,-0.11,0.14,0.95,
0.596,-0.68,-0.01,-0.24,-0.11,0.14,0.95,
0.598,-0.68,-0.01,-0.24,-0.11,0.13,0.96,
0.598,-0.70,-0.01,-0.24,-0.11,0.13,0.96,
0.6,-0.70,-0.01,-0.24,-0.11,0.13,0.96,
0.603,-0.70,-0.01,-0.24,-0.11,0.13,0.96,
0.603,-0.71,-0.01,-0.20,-0.11,0.13,0.96,
0.605,-0.71,-0.01,-0.20,-0.12,0.13,0.96,
0.608,-0.71,-0.01,-0.20,-0.12,0.14,0.96,
0.609,-0.72,-0.02,-0.16,-0.12,0.14,0.96,
0.61,-0.72,-0.02,-0.16,-0.11,0.13,0.97,
0.613,-0.72,-0.02,-0.16,-0.11,0.14,0.97,
0.613,-0.74,-0.01,-0.11,-0.11,0.14,0.97,
0.615,-0.74,-0.01,-0.11,-0.11,0.13,0.97,
0.618,-0.74,-0.01,-0.11,-0.11,0.13,0.98,
0.618,-0.71,-0.01,-0.04,-0.11,0.13,0.98,
0.62,-0.71,-0.01,-0.04,-0.12,0.13,0.98,
0.623,-0.71,-0.01,-0.04,-0.11,0.13,0.99,
0.623,-0.69,-0.04,0.01,-0.11,0.13,0.99,
0.625,-0.69,-0.04,0.01,-0.11,0.13,0.99,
0.628,-0.69,-0.04,0.01,-0.11,0.13,0.99,
0.628,-0.68,-0.05,0.10,-0.11,0.13,0.99,
0.63,-0.68,-0.05,0.10,-0.11,0.13,0.99,
0.633,-0.68,-0.05,0.10,-0.11,0.12,1.00,
0.633,-0.63,-0.08,0.16,-0.11,0.12,1.00,
0.635,-0.63,-0.08,0.16,-0.11,0.12,1.00,
0.637,-0.63,-0.08,0.16,-0.10,0.12,1.00,
0.638,-0.58,-0.11,0.22,-0.10,0.12,1.00,
0.64,-0.58,-0.11,0.22,-0.10,0.12,1.00,
0.642,-0.58,-0.11,0.22,-0.10,0.11,1.00,
0.643,-0.53,-0.16,0.26,-0.10,0.11,1.00,
0.645,-0.53,-0.16,0.26,-0.09,0.11,1.00,
0.647,-0.53,-0.16,0.26,-0.09,0.11,1.00,
0.647,-0.45,-0.21,0.29,-0.09,0.11,1.00,
0.65,-0.45,-0.21,0.29,-0.09,0.10,1.00,
0.652,-0.45,-0.21,0.29,-0.08,0.10,1.00,
0.652,-0.39,-0.27,0.29,-0.08,0.10,1.00,
0.655,-0.39,-0.27,0.29,-0.08,0.10,1.00,
0.659,-0.39,-0.27,0.29,-0.08,0.10,1.00,
0.659,-0.30,-0.34,0.29,-0.08,0.10,1.00,
0.66,-0.30,-0.34,0.29,-0.07,0.09,1.00,
0.662,-0.30,-0.34,0.29,-0.07,0.09,1.00,
0.662,-0.23,-0.39,0.28,-0.07,0.09,1.00,
0.664,-0.23,-0.39,0.28,-0.07,0.09,1.00,
0.667,-0.23,-0.39,0.28,-0.06,0.09,0.99,
0.667,-0.17,-0.45,0.25,-0.06,0.09,0.99,
0.669,-0.17,-0.45,0.25,-0.06,0.09,0.99,
0.672,-0.17,-0.45,0.25,-0.06,0.09,0.99,
0.672,-0.10,-0.48,0.21,-0.06,0.09,0.99,
0.675,-0.10,-0.48,0.21,-0.06,0.09,0.98,
0.677,-0.10,-0.48,0.21,-0.06,0.09,0.98,
0.677,-0.08,-0.52,0.14,-0.06,0.09,0.98,
0.679,-0.08,-0.52,0.14,-0.06,0.09,0.97,
0.682,-0.08,-0.52,0.14,-0.06,0.09,0.97,
0.682,-0.05,-0.52,0.06,-0.06,0.09,0.97,
0.684,-0.05,-0.52,0.06,-0.06,0.09,0.97,
0.686,-0.05,-0.52,0.06,-0.06,0.09,0.96,
0.687,-0.03,-0.51,-0.01,-0.06,0.09,0.96,
0.689,-0.03,-0.51,-0.01,-0.06,0.09,0.96,
0.699,-0.03,-0.51,-0.01,-0.06,0.09,0.95,
0.699,-0.03,-0.51,-0.09,-0.06,0.09,0.95,
0.699,-0.03,-0.51,-0.09,-0.06,0.09,0.95,
0.7,-0.03,-0.51,-0.09,-0.06,0.09,0.94,
0.7,-0.02,-0.49,-0.18,-0.06,0.09,0.94,
0.7,-0.02,-0.49,-0.18,-0.06,0.10,0.94,
0.701,-0.02,-0.49,-0.18,-0.06,0.10,0.94,
0.701,-0.01,-0.45,-0.28,-0.06,0.10,0.94,
0.703,-0.01,-0.45,-0.28,-0.06,0.10,0.93,
0.706,-0.01,-0.45,-0.28,-0.06,0.10,0.93,
0.706,-0.00,-0.42,-0.35,-0.06,0.10,0.93,
0.709,-0.00,-0.42,-0.35,-0.06,0.10,0.93,
0.711,-0.00,-0.42,-0.35,-0.05,0.10,0.93,
0.712,0.03,-0.38,-0.39,-0.05,0.10,0.93,
0.713,0.03,-0.38,-0.39,-0.06,0.11,0.93,
0.715,0.03,-0.38,-0.39,-0.06,0.11,0.94,
0.716,0.07,-0.35,-0.41,-0.06,0.11,0.94,
0.718,0.07,-0.35,-0.41,-0.06,0.10,0.94,
0.72,0.07,-0.35,-0.41,-0.05,0.10,0.94,
0.72,0.06,-0.32,-0.37,-0.05,0.10,0.94,
0.723,0.06,-0.32,-0.37,-0.06,0.10,0.95,
0.726,0.06,-0.32,-0.37,-0.06,0.10,0.95,
0.726,0.09,-0.34,-0.29,-0.06,0.10,0.95,
0.728,0.09,-0.34,-0.29,-0.05,0.10,0.95,
0.731,0.09,-0.34,-0.29,-0.05,0.10,0.96,
0.731,0.08,-0.37,-0.22,-0.05,0.10,0.96,
0.733,0.08,-0.37,-0.22,-0.06,0.10,0.97,
0.735,0.08,-0.37,-0.22,-0.05,0.10,0.97,
0.736,0.11,-0.38,-0.13,-0.05,0.10,0.97,
0.737,0.11,-0.38,-0.13,-0.05,0.10,0.98,
0.741,0.11,-0.38,-0.13,-0.05,0.10,0.98,
0.742,0.13,-0.38,-0.02,-0.05,0.10,0.98,
0.743,0.13,-0.38,-0.02,-0.05,0.09,0.98,
0.745,0.13,-0.38,-0.02,-0.05,0.09,0.99,
0.746,0.18,-0.40,0.07,-0.05,0.09,0.99,
0.747,0.18,-0.40,0.07,-0.04,0.09,0.99,
0.75,0.18,-0.40,0.07,-0.04,0.09,0.99,
0.75,0.21,-0.43,0.15,-0.04,0.09,0.99,
0.752,0.21,-0.43,0.15,-0.04,0.08,1.00,
0.755,0.21,-0.43,0.15,-0.04,0.08,1.00,
0.755,0.27,-0.48,0.21,-0.04,0.08,1.00,
0.758,0.27,-0.48,0.21,-0.03,0.08,1.00,
0.76,0.27,-0.48,0.21,-0.03,0.08,1.00,
0.76,0.33,-0.52,0.26,-0.03,0.08,1.00,
0.763,0.33,-0.52,0.26,-0.03,0.08,1.00,
0.765,0.33,-0.52,0.26,-0.02,0.07,1.00,
0.765,0.40,-0.56,0.28,-0.02,0.07,1.00,
0.767,0.40,-0.56,0.28,-0.02,0.07,0.99,
0.77,0.40,-0.56,0.28,-0.01,0.07,0.99,
0.77,0.48,-0.58,0.25,-0.01,0.07,0.99,
0.772,0.48,-0.58,0.25,-0.01,0.07,0.99,
0.774,0.48,-0.58,0.25,-0.01,0.07,0.99,
0.775,0.56,-0.60,0.21,-0.01,0.07,0.99,
0.777,0.56,-0.60,0.21,-0.01,0.07,0.98,
0.779,0.56,-0.60,0.21,-0.00,0.07,0.98,
0.78,0.63,-0.63,0.17,-0.00,0.07,0.98,
0.782,0.63,-0.63,0.17,-0.00,0.07,0.98,
0.784,0.63,-0.63,0.17,0.00,0.07,0.97,
0.784,0.66,-0.65,0.10,0.00,0.07,0.97,
0.787,0.66,-0.65,0.10,0.00,0.06,0.97,
0.789,0.66,-0.65,0.10,0.00,0.06,0.97,
0.789,0.71,-0.66,0.04,0.00,0.06,0.97,
0.796,0.71,-0.66,0.04,0.01,0.06,0.97,
0.797,0.71,-0.66,0.04,0.01,0.06,0.96,
0.797,0.74,-0.69,-0.01,0.01,0.06,0.96,
0.797,0.74,-0.69,-0.01,0.01,0.06,0.96,
0.799,0.74,-0.69,-0.01,0.01,0.06,0.96,
0.799,0.76,-0.71,-0.08,0.01,0.06,0.96,
0.801,0.76,-0.71,-0.08,0.01,0.06,0.96,
0.804,0.76,-0.71,-0.08,0.01,0.06,0.96,
0.804,0.79,-0.70,-0.12,0.01,0.06,0.96,
0.806,0.79,-0.70,-0.12,0.01,0.06,0.96,
0.809,0.79,-0.70,-0.12,0.01,0.05,0.96,
0.809,0.81,-0.72,-0.12,0.01,0.05,0.96,
0.811,0.81,-0.72,-0.12,0.01,0.05,0.96,
0.813,0.81,-0.72,-0.12,0.01,0.05,0.96,
0.814,0.80,-0.73,-0.15,0.01,0.05,0.96,
0.816,0.80,-0.73,-0.15,0.01,0.05,0.96,
0.818,0.80,-0.73,-0.15,0.01,0.05,0.96,
0.818,0.79,-0.74,-0.14,0.01,0.05,0.96,
0.821,0.79,-0.74,-0.14,0.01,0.06,0.96,
0.824,0.79,-0.74,-0.14,0.01,0.06,0.96,
0.824,0.79,-0.73,-0.12,0.01,0.06,0.96,
0.826,0.79,-0.73,-0.12,0.00,0.06,0.96,
0.828,0.79,-0.73,-0.12,0.00,0.06,0.96,
0.829,0.76,-0.70,-0.10,0.00,0.06,0.96,
0.83,0.76,-0.70,-0.10,0.00,0.06,0.97,
0.833,0.76,-0.70,-0.10,-0.00,0.06,0.97,
0.833,0.74,-0.68,-0.07,-0.00,0.06,0.97,
0.835,0.74,-0.68,-0.07,-0.01,0.07,0.97,
0.838,0.74,-0.68,-0.07,-0.01,0.07,0.97,
0.838,0.71,-0.63,-0.04,-0.01,0.07,0.97,
0.841,0.71,-0.63,-0.04,-0.01,0.07,0.97,
0.843,0.71,-0.63,-0.04,-0.01,0.08,0.97,
0.843,0.64,-0.57,-0.02,-0.01,0.08,0.97,
0.845,0.64,-0.57,-0.02,-0.02,0.08,0.97,
0.848,0.64,-0.57,-0.02,-0.02,0.08,0.97,
0.848,0.58,-0.51,-0.01,-0.02,0.08,0.97,
0.85,0.58,-0.51,-0.01,-0.02,0.08,0.97,
0.853,0.58,-0.51,-0.01,-0.02,0.08,0.97,
0.853,0.56,-0.45,-0.01,-0.02,0.08,0.97,
0.855,0.56,-0.45,-0.01,-0.02,0.08,0.97,
0.858,0.56,-0.45,-0.01,-0.02,0.08,0.97,
0.858,0.55,-0.43,-0.01,-0.02,0.08,0.97,
0.86,0.55,-0.43,-0.01,-0.02,0.08,0.97,
0.862,0.55,-0.43,-0.01,-0.02,0.08,0.97,
0.863,0.52,-0.41,-0.01,-0.02,0.08,0.97,
0.865,0.52,-0.41,-0.01,-0.02,0.08,0.97,
0.867,0.52,-0.41,-0.01,-0.02,0.08,0.96,
0.868,0.51,-0.40,-0.02,-0.02,0.08,0.96,
0.87,0.51,-0.40,-0.02,-0.02,0.08,0.96,
0.872,0.51,-0.40,-0.02,-0.02,0.08,0.96,
0.873,0.53,-0.44,-0.05,-0.02,0.08,0.96,
0.875,0.53,-0.44,-0.05,-0.01,0.07,0.96,
0.881,0.53,-0.44,-0.05,-0.01,0.07,0.96,
0.882,0.56,-0.46,-0.07,-0.01,0.07,0.96,
0.882,0.56,-0.46,-0.07,-0.01,0.07,0.96,
0.882,0.56,-0.46,-0.07,-0.01,0.07,0.96,
0.883,0.60,-0.49,-0.09,-0.01,0.07,0.96,
0.884,0.60,-0.49,-0.09,-0.01,0.07,0.96,
0.887,0.60,-0.49,-0.09,-0.01,0.07,0.96,
0.887,0.65,-0.49,-0.11,-0.01,0.07,0.96,
0.895,0.65,-0.49,-0.11,-0.00,0.07,0.96,
0.895,0.65,-0.49,-0.11,-0.00,0.07,0.96,
0.895,0.65,-0.52,-0.10,-0.00,0.07,0.96,
0.896,0.65,-0.52,-0.10,-0.00,0.07,0.96,
0.897,0.65,-0.52,-0.10,-0.00,0.07,0.96,
0.897,0.70,-0.52,-0.08,-0.00,0.07,0.96,
0.899,0.70,-0.52,-0.08,-0.00,0.07,0.96,
0.901,0.70,-0.52,-0.08,-0.00,0.07,0.96,
0.901,0.71,-0.49,-0.07,-0.00,0.07,0.96,
0.904,0.71,-0.49,-0.07,-0.01,0.07,0.96,
0.907,0.71,-0.49,-0.07,-0.01,0.07,0.97,
0.907,0.69,-0.49,-0.06,-0.01,0.07,0.97,
0.909,0.69,-0.49,-0.06,-0.01,0.08,0.97,
0.911,0.69,-0.49,-0.06,-0.01,0.08,0.97,
0.911,0.67,-0.44,-0.04,-0.01,0.08,0.97,
0.914,0.67,-0.44,-0.04,-0.01,0.08,0.97,
0.916,0.67,-0.44,-0.04,-0.01,0.09,0.97,
0.916,0.63,-0.39,-0.01,-0.01,0.09,0.97,
0.918,0.63,-0.39,-0.01,-0.01,0.09,0.97,
0.921,0.63,-0.39,-0.01,-0.01,0.10,0.97,
0.921,0.62,-0.30,0.01,-0.01,0.10,0.97,
0.924,0.62,-0.30,0.01,-0.01,0.10,0.97,
0.926,0.62,-0.30,0.01,-0.01,0.11,0.97,
0.926,0.61,-0.22,0.01,-0.01,0.11,0.97,
0.929,0.61,-0.22,0.01,-0.01,0.11,0.97,
0.931,0.61,-0.22,0.01,-0.02,0.11,0.97,
0.931,0.61,-0.13,0.02,-0.02,0.11,0.97,
0.933,0.61,-0.13,0.02,-0.02,0.11,0.97,
0.936,0.61,-0.13,0.02,-0.02,0.11,0.97,
0.936,0.57,-0.05,0.03,-0.02,0.11,0.97,
0.939,0.57,-0.05,0.03,-0.02,0.12,0.97,
0.941,0.57,-0.05,0.03,-0.03,0.12,0.97,
0.942,0.54,-0.02,0.04,-0.03,0.12,0.97,
0.943,0.54,-0.02,0.04,-0.03,0.12,0.97,
0.946,0.54,-0.02,0.04,-0.03,0.12,0.97,
0.946,0.49,0.03,0.02,-0.03,0.12,0.97,
0.948,0.49,0.03,0.02,-0.03,0.12,0.97,
0.951,0.49,0.03,0.02,-0.04,0.12,0.96,
0.951,0.43,0.04,-0.01,-0.04,0.12,0.96,
0.953,0.43,0.04,-0.01,-0.04,0.12,0.96,
0.955,0.43,0.04,-0.01,-0.04,0.12,0.96,
0.956,0.40,0.07,-0.05,-0.04,0.12,0.96,
0.958,0.40,0.07,-0.05,-0.04,0.13,0.96,
0.96,0.40,0.07,-0.05,-0.04,0.13,0.95,
0.96,0.38,0.08,-0.09,-0.04,0.13,0.95,
0.963,0.38,0.08,-0.09,-0.04,0.13,0.95,
0.965,0.38,0.08,-0.09,-0.03,0.13,0.95,
0.965,0.37,0.10,-0.13,-0.03,0.13,0.95,
0.968,0.37,0.10,-0.13,-0.03,0.13,0.95,
0.97,0.37,0.10,-0.13,-0.04,0.13,0.95,
0.97,0.39,0.11,-0.17,-0.04,0.13,0.95,
0.975,0.39,0.11,-0.17,-0.04,0.14,0.94,
0.976,0.39,0.11,-0.17,-0.03,0.14,0.94,
0.976,0.40,0.16,-0.22,-0.03,0.14,0.94,
0.978,0.40,0.16,-0.22,-0.04,0.14,0.94,
0.98,0.40,0.16,-0.22,-0.03,0.14,0.94,
0.98,0.40,0.21,-0.24,-0.03,0.14,0.94,
0.982,0.40,0.21,-0.24,-0.03,0.14,0.94,
0.985,0.40,0.21,-0.24,-0.03,0.14,0.94,
0.985,0.41,0.20,-0.26,-0.03,0.14,0.94,
0.987,0.41,0.20,-0.26,-0.03,0.14,0.94,
0.99,0.41,0.20,-0.26,-0.03,0.14,0.94,
0.99,0.42,0.23,-0.25,-0.03,0.14,0.94,
0.992,0.42,0.23,-0.25,-0.03,0.14,0.95,
0.994,0.42,0.23,-0.25,-0.02,0.14,0.95,
0.995,0.45,0.23,-0.24,-0.02,0.14,0.95,
0.997,0.45,0.23,-0.24,-0.02,0.14,0.95,
0.999,0.45,0.23,-0.24,-0.01,0.14,0.95,
0.999,0.50,0.27,-0.20,-0.01,0.14,0.95,
1.002,0.50,0.27,-0.20,-0.01,0.14,0.95,
1.005,0.50,0.27,-0.20,-0.00,0.14,0.96,
1.005,0.58,0.27,-0.17,-0.00,0.14,0.96,
1.007,0.58,0.27,-0.17,0.00,0.14,0.96,
1.01,0.58,0.27,-0.17,0.01,0.14,0.96,
1.01,0.67,0.29,-0.13,0.01,0.14,0.96,
1.012,0.67,0.29,-0.13,0.01,0.14,0.96,
1.015,0.67,0.29,-0.13,0.02,0.14,0.97,
1.015,0.79,0.28,-0.09,0.02,0.14,0.97,
1.017,0.79,0.28,-0.09,0.02,0.14,0.97,
1.019,0.79,0.28,-0.09,0.02,0.14,0.98,
1.019,0.87,0.29,-0.01,0.02,0.14,0.98,
1.022,0.87,0.29,-0.01,0.03,0.14,0.98,
1.024,0.95,0.27,0.06,0.03,0.14,0.98,
1.025,0.95,0.27,0.06,0.03,0.13,0.98,
1.027,0.95,0.27,0.06,0.03,0.13,0.99,
1.029,0.95,0.27,0.06,0.03,0.13,0.99,
1.029,1.00,0.23,0.15,0.03,0.13,0.99,
1.031,1.00,0.23,0.15,0.03,0.13,0.99,
1.034,1.00,0.23,0.15,0.03,0.13,1.00,
1.034,1.02,0.20,0.22,0.03,0.13,1.00,
1.036,1.02,0.20,0.22,0.04,0.13,1.00,
1.039,1.02,0.20,0.22,0.04,0.13,1.00,
1.04,1.04,0.20,0.27,0.04,0.13,1.00,
1.041,1.04,0.20,0.27,0.04,0.13,1.01,
1.044,1.04,0.20,0.27,0.03,0.13,1.01,
1.044,1.05,0.22,0.33,0.03,0.13,1.01,
1.046,1.05,0.22,0.33,0.03,0.13,1.01,
1.048,1.05,0.22,0.33,0.03,0.13,1.01,
1.049,1.03,0.23,0.37,0.03,0.13,1.01,
1.051,1.03,0.23,0.37,0.03,0.13,1.01,
1.054,1.01,0.26,0.40,0.03,0.13,1.01,
1.054,1.01,0.26,0.40,0.03,0.14,1.01,
1.057,1.01,0.26,0.40,0.03,0.14,1.02,
1.059,1.01,0.26,0.40,0.03,0.14,1.02,
1.059,0.96,0.29,0.42,0.03,0.14,1.02,
1.061,0.96,0.29,0.42,0.02,0.14,1.02,
1.063,0.96,0.29,0.42,0.02,0.14,1.02,
1.064,0.93,0.33,0.44,0.02,0.14,1.02,
1.066,0.93,0.33,0.44,0.02,0.15,1.02,
1.068,0.93,0.33,0.44,0.02,0.15,1.02,
1.068,0.89,0.37,0.43,0.02,0.15,1.02,
1.071,0.89,0.37,0.43,0.02,0.15,1.01,
1.073,0.89,0.37,0.43,0.02,0.15,1.01,
1.074,0.84,0.43,0.43,0.02,0.15,1.01,
1.075,0.84,0.43,0.43,0.02,0.16,1.01,
1.078,0.84,0.43,0.43,0.02,0.16,1.01,
1.078,0.82,0.48,0.41,0.02,0.16,1.01,
1.08,0.82,0.48,0.41,0.02,0.16,1.01,
1.083,0.82,0.48,0.41,0.02,0.16,1.01,
1.083,0.81,0.51,0.37,0.02,0.16,1.01,
1.085,0.81,0.51,0.37,0.02,0.16,1.01,
1.088,0.81,0.51,0.37,0.02,0.16,1.01,
1.088,0.85,0.54,0.35,0.02,0.16,1.01,
1.096,0.85,0.54,0.35,0.02,0.16,1.01,
1.096,0.85,0.54,0.35,0.03,0.16,1.01,
1.096,0.84,0.54,0.33,0.03,0.16,1.01,
1.097,0.84,0.54,0.33,0.03,0.16,1.00,
1.097,0.84,0.54,0.33,0.03,0.16,1.00,
1.098,0.89,0.56,0.32,0.03,0.16,1.00,
1.1,0.89,0.56,0.32,0.04,0.17,1.00,
1.102,0.89,0.56,0.32,0.04,0.17,1.00,
1.103,0.95,0.57,0.30,0.04,0.17,1.00,
1.105,0.95,0.57,0.30,0.04,0.17,1.00,
1.108,0.95,0.57,0.30,0.05,0.17,1.00,
1.108,0.98,0.60,0.29,0.05,0.17,1.00,
1.11,0.98,0.60,0.29,0.05,0.17,1.01,
1.112,0.98,0.60,0.29,0.05,0.16,1.01,
1.113,1.04,0.60,0.29,0.05,0.16,1.01,
1.115,1.04,0.60,0.29,0.05,0.16,1.01,
1.117,1.04,0.60,0.29,0.05,0.16,1.01,
1.117,1.08,0.59,0.33,0.05,0.16,1.01,
1.119,1.08,0.59,0.33,0.05,0.16,1.02,
1.123,1.08,0.59,0.33,0.05,0.16,1.02,
1.123,1.10,0.58,0.37,0.05,0.16,1.02,
1.125,1.10,0.58,0.37,0.06,0.16,1.03,
1.127,1.10,0.58,0.37,0.06,0.16,1.03,
1.127,1.10,0.55,0.44,0.06,0.16,1.03,
1.13,1.10,0.55,0.44,0.06,0.15,1.03,
1.132,1.10,0.55,0.44,0.06,0.15,1.04,
1.132,1.14,0.51,0.52,0.06,0.15,1.04,
1.135,1.14,0.51,0.52,0.06,0.15,1.04,
1.137,1.14,0.51,0.52,0.06,0.15,1.04,
1.137,1.14,0.47,0.58,0.06,0.15,1.04,
1.14,1.14,0.47,0.58,0.06,0.15,1.05,
1.142,1.14,0.47,0.58,0.06,0.15,1.05,
1.142,1.14,0.46,0.65,0.06,0.15,1.05,
1.144,1.14,0.46,0.65,0.06,0.15,1.05,
1.147,1.14,0.46,0.65,0.06,0.15,1.05,
1.147,1.11,0.44,0.69,0.06,0.15,1.05,
1.149,1.11,0.44,0.69,0.06,0.15,1.05,
1.151,1.11,0.44,0.69,0.05,0.15,1.05,
1.152,1.08,0.45,0.69,0.05,0.15,1.05,
1.154,1.08,0.45,0.69,0.05,0.15,1.05,
1.156,1.08,0.45,0.69,0.05,0.15,1.05,
1.157,1.03,0.46,0.70,0.05,0.15,1.05,
1.159,1.03,0.46,0.70,0.05,0.15,1.05,
1.161,1.03,0.46,0.70,0.05,0.15,1.05,
1.161,1.00,0.48,0.69,0.05,0.15,1.05,
1.164,1.00,0.48,0.69,0.05,0.15,1.05,
1.166,1.00,0.48,0.69,0.04,0.15,1.04,
1.166,0.94,0.47,0.65,0.04,0.15,1.04,
1.168,0.94,0.47,0.65,0.04,0.15,1.04,
1.171,0.94,0.47,0.65,0.05,0.15,1.04,
1.171,0.89,0.48,0.63,0.05,0.15,1.04,
1.173,0.89,0.48,0.63,0.05,0.15,1.04,
1.176,0.88,0.49,0.56,0.05,0.15,1.04,
1.176,0.88,0.49,0.56,0.05,0.15,1.04,
1.178,0.88,0.49,0.56,0.05,0.16,1.03,
1.181,0.88,0.49,0.56,0.05,0.16,1.03,
1.181,0.88,0.50,0.54,0.05,0.16,1.03,
1.183,0.88,0.50,0.54,0.05,0.15,1.03,
1.185,0.88,0.50,0.54,0.05,0.16,1.03,
1.186,0.89,0.52,0.50,0.05,0.16,1.03,
1.188,0.89,0.52,0.50,0.06,0.15,1.03,
1.195,0.89,0.52,0.50,0.06,0.15,1.03,
1.195,0.90,0.52,0.48,0.06,0.15,1.03,
1.195,0.90,0.52,0.48,0.06,0.15,1.03,
1.196,0.90,0.52,0.48,0.06,0.15,1.03,
1.196,0.92,0.51,0.45,0.06,0.15,1.03,
1.198,0.92,0.51,0.45,0.06,0.15,1.03,
1.2,0.92,0.51,0.45,0.05,0.15,1.03,
1.202,0.91,0.49,0.45,0.05,0.15,1.03,
1.203,0.91,0.49,0.45,0.05,0.15,1.04,
1.205,0.91,0.49,0.45,0.05,0.14,1.03,
1.206,0.89,0.45,0.47,0.05,0.14,1.03,
1.209,0.89,0.45,0.47,0.05,0.14,1.03,
1.21,0.89,0.45,0.47,0.05,0.14,1.03,
1.211,0.86,0.41,0.48,0.05,0.14,1.03,
1.212,0.86,0.41,0.48,0.05,0.14,1.03,
1.215,0.86,0.41,0.48,0.05,0.13,1.03,
1.215,0.81,0.35,0.46,0.05,0.13,1.03,
1.217,0.81,0.35,0.46,0.05,0.13,1.03,
1.22,0.81,0.35,0.46,0.05,0.13,1.03,
1.22,0.79,0.30,0.46,0.05,0.13,1.03,
1.222,0.79,0.30,0.46,0.05,0.13,1.03,
1.225,0.79,0.30,0.46,0.05,0.13,1.04,
1.225,0.75,0.26,0.47,0.05,0.13,1.04,
1.227,0.75,0.26,0.47,0.05,0.13,1.04,
1.23,0.75,0.26,0.47,0.05,0.13,1.04,
1.23,0.74,0.24,0.48,0.05,0.13,1.04,
1.232,0.74,0.24,0.48,0.05,0.13,1.04,
1.235,0.74,0.24,0.48,0.05,0.12,1.04,
1.235,0.74,0.23,0.48,0.05,0.12,1.04,
1.237,0.74,0.23,0.48,0.05,0.12,1.04,
1.24,0.74,0.23,0.48,0.05,0.12,1.04,
1.24,0.73,0.20,0.47,0.05,0.12,1.04,
1.242,0.73,0.20,0.47,0.05,0.12,1.03,
1.245,0.73,0.20,0.47,0.05,0.12,1.03,
1.245,0.71,0.17,0.47,0.05,0.12,1.03,
1.247,0.71,0.17,0.47,0.05,0.12,1.03,
1.25,0.71,0.17,0.47,0.05,0.11,1.03,
1.25,0.70,0.13,0.44,0.05,0.11,1.03,
1.252,0.70,0.13,0.44,0.05,0.11,1.03,
1.254,0.70,0.13,0.44,0.04,0.11,1.03,
1.255,0.68,0.08,0.41,0.04,0.11,1.03,
1.257,0.68,0.08,0.41,0.05,0.11,1.02,
1.259,0.68,0.08,0.41,0.05,0.11,1.02,
1.26,0.66,0.07,0.37,0.05,0.11,1.02,
1.262,0.66,0.07,0.37,0.05,0.11,1.02,
1.264,0.66,0.07,0.37,0.05,0.11,1.01,
1.264,0.64,0.04,0.30,0.05,0.11,1.01,
1.267,0.64,0.04,0.30,0.05,0.11,1.01,
1.269,0.64,0.04,0.30,0.04,0.11,1.01,
1.269,0.61,0.04,0.25,0.04,0.11,1.01,
1.271,0.61,0.04,0.25,0.04,0.11,1.01,
1.274,0.61,0.04,0.25,0.04,0.11,1.01,
1.274,0.59,0.02,0.19,0.04,0.11,1.01,
1.276,0.59,0.02,0.19,0.04,0.11,1.00,
1.279,0.59,0.02,0.19,0.04,0.11,1.00,
1.279,0.52,0.01,0.16,0.04,0.11,1.00,
1.281,0.52,0.01,0.16,0.04,0.11,1.00,
1.284,0.52,0.01,0.16,0.03,0.11,1.00,
1.284,0.48,0.02,0.12,0.03,0.11,1.00,
1.286,0.48,0.02,0.12,0.03,0.11,1.00,
1.295,0.48,0.02,0.12,0.03,0.11,1.00,
1.295,0.45,-0.00,0.08,0.03,0.11,1.00,
1.296,0.45,-0.00,0.08,0.03,0.10,0.99,
1.296,0.40,-0.03,0.06,0.03,0.10,0.99,
1.296,0.40,-0.03,0.06,0.03,0.10,0.99,
1.296,0.40,-0.03,0.06,0.03,0.10,0.99,
1.299,0.40,-0.03,0.06,0.03,0.10,0.99,
1.299,0.38,-0.06,0.04,0.03,0.10,0.99,
1.301,0.38,-0.06,0.04,0.03,0.10,0.99,
1.304,0.33,-0.08,0.02,0.03,0.10,0.99,
1.304,0.33,-0.08,0.02,0.02,0.10,0.99,
1.306,0.33,-0.08,0.02,0.02,0.10,0.99,
1.308,0.33,-0.08,0.02,0.02,0.10,0.99,
1.308,0.27,-0.09,0.00,0.02,0.10,0.99,
1.31,0.27,-0.09,0.00,0.02,0.10,0.99,
1.313,0.27,-0.09,0.00,0.02,0.10,0.98,
1.313,0.24,-0.11,0.00,0.02,0.10,0.98,
1.315,0.24,-0.11,0.00,0.02,0.10,0.98,
1.318,0.24,-0.11,0.00,0.02,0.09,0.98,
1.318,0.20,-0.13,-0.04,0.02,0.09,0.98,
1.32,0.20,-0.13,-0.04,0.02,0.09,0.98,
1.323,0.20,-0.13,-0.04,0.02,0.09,0.98,
1.323,0.16,-0.16,-0.06,0.02,0.09,0.98,
1.325,0.16,-0.16,-0.06,0.02,0.09,0.98,
1.328,0.16,-0.16,-0.06,0.02,0.09,0.97,
1.328,0.16,-0.19,-0.08,0.02,0.09,0.97,
1.33,0.16,-0.19,-0.08,0.02,0.09,0.97,
1.332,0.16,-0.19,-0.08,0.02,0.08,0.97,
1.332,0.14,-0.23,-0.13,0.02,0.08,0.97,
1.335,0.14,-0.23,-0.13,0.02,0.08,0.97,
1.337,0.14,-0.23,-0.13,0.02,0.08,0.96,
1.338,0.16,-0.28,-0.16,0.02,0.08,0.96,
1.34,0.16,-0.28,-0.16,0.02,0.08,0.96,
1.342,0.16,-0.28,-0.16,0.03,0.07,0.96,
1.343,0.15,-0.34,-0.24,0.03,0.07,0.96,
1.345,0.15,-0.34,-0.24,0.03,0.07,0.95,
1.347,0.15,-0.34,-0.24,0.03,0.07,0.95,
1.347,0.15,-0.37,-0.30,0.03,0.07,0.95,
1.35,0.15,-0.37,-0.30,0.03,0.07,0.95,
1.352,0.15,-0.37,-0.30,0.03,0.07,0.94,
1.353,0.16,-0.41,-0.35,0.03,0.07,0.94,
1.355,0.16,-0.41,-0.35,0.03,0.06,0.94,
1.357,0.16,-0.41,-0.35,0.02,0.06,0.94,
1.358,0.13,-0.47,-0.43,0.02,0.06,0.94,
1.359,0.13,-0.47,-0.43,0.02,0.06,0.93,
1.362,0.13,-0.47,-0.43,0.02,0.06,0.93,
1.362,0.11,-0.52,-0.49,0.02,0.06,0.93,
1.365,0.11,-0.52,-0.49,0.02,0.06,0.93,
1.367,0.11,-0.52,-0.49,0.02,0.06,0.93,
1.367,0.07,-0.54,-0.53,0.02,0.06,0.93,
1.369,0.07,-0.54,-0.53,0.02,0.06,0.93,
1.378,0.07,-0.54,-0.53,0.02,0.06,0.93,
1.378,0.03,-0.53,-0.52,0.02,0.06,0.93,
1.379,0.03,-0.53,-0.52,0.01,0.06,0.93,
1.379,-0.02,-0.56,-0.53,0.01,0.06,0.93,
1.379,-0.02,-0.56,-0.53,0.01,0.05,0.93,
1.379,-0.02,-0.56,-0.53,0.01,0.05,0.93,
1.381,-0.02,-0.56,-0.53,0.01,0.05,0.93,
1.382,-0.08,-0.59,-0.52,0.01,0.05,0.93,
1.384,-0.08,-0.59,-0.52,0.00,0.05,0.94,
1.387,-0.08,-0.59,-0.52,0.00,0.05,0.94,
1.387,-0.14,-0.63,-0.51,0.00,0.05,0.94,
1.391,-0.14,-0.63,-0.51,0.00,0.05,0.94,
1.392,-0.14,-0.63,-0.51,0.00,0.05,0.95,
1.392,-0.18,-0.62,-0.46,0.00,0.05,0.95,
1.394,-0.18,-0.62,-0.46,0.00,0.05,0.95,
1.396,-0.18,-0.62,-0.46,-0.00,0.05,0.95,
1.396,-0.22,-0.63,-0.39,-0.00,0.05,0.95,
1.398,-0.22,-0.63,-0.39,-0.00,0.05,0.95,
1.401,-0.22,-0.63,-0.39,-0.00,0.04,0.95,
1.401,-0.24,-0.63,-0.34,-0.00,0.04,0.95,
1.404,-0.24,-0.63,-0.34,-0.00,0.04,0.95,
1.406,-0.24,-0.63,-0.34,-0.00,0.04,0.95,
1.406,-0.25,-0.65,-0.32,-0.00,0.04,0.95,
1.408,-0.25,-0.65,-0.32,-0.00,0.04,0.95,
1.411,-0.25,-0.65,-0.32,-0.00,0.04,0.96,
1.411,-0.26,-0.67,-0.29,-0.00,0.04,0.96,
1.413,-0.26,-0.67,-0.29,-0.00,0.04,0.96,
1.416,-0.26,-0.67,-0.29,-0.00,0.04,0.96,
1.416,-0.27,-0.68,-0.27,-0.00,0.04,0.96,
1.418,-0.27,-0.68,-0.27,0.00,0.04,0.96,
1.421,-0.27,-0.68,-0.27,-0.00,0.04,0.96,
1.421,-0.28,-0.69,-0.24,-0.00,0.04,0.96,
1.423,-0.28,-0.69,-0.24,-0.00,0.04,0.96,
1.426,-0.28,-0.69,-0.24,-0.00,0.04,0.96,
1.426,-0.27,-0.68,-0.23,-0.00,0.04,0.96,
1.429,-0.27,-0.68,-0.23,-0.00,0.04,0.96,
1.43,-0.27,-0.68,-0.23,-0.00,0.04,0.96,
1.431,-0.28,-0.67,-0.21,-0.00,0.04,0.96,
1.433,-0.28,-0.67,-0.21,-0.00,0.04,0.96,
1.435,-0.28,-0.67,-0.21,-0.01,0.04,0.96,
1.436,-0.30,-0.68,-0.20,-0.01,0.04,0.96,
1.44,-0.30,-0.68,-0.20,-0.01,0.04,0.96,
1.441,-0.30,-0.68,-0.20,-0.01,0.04,0.96,
1.441,-0.33,-0.67,-0.21,-0.01,0.04,0.96,
1.443,-0.33,-0.67,-0.21,-0.01,0.04,0.96,
1.445,-0.33,-0.67,-0.21,-0.02,0.05,0.95,
1.446,-0.38,-0.65,-0.23,-0.02,0.05,0.95,
1.448,-0.38,-0.65,-0.23,-0.02,0.05,0.95,
1.45,-0.38,-0.65,-0.23,-0.02,0.05,0.95,
1.45,-0.43,-0.63,-0.25,-0.02,0.05,0.95,
1.453,-0.43,-0.63,-0.25,-0.03,0.05,0.95,
1.457,-0.43,-0.63,-0.25,-0.03,0.05,0.94,
1.457,-0.52,-0.61,-0.29,-0.03,0.05,0.94,
1.458,-0.52,-0.61,-0.29,-0.03,0.05,0.94,
1.46,-0.52,-0.61,-0.29,-0.03,0.05,0.94,
1.46,-0.57,-0.57,-0.33,-0.03,0.05,0.94,
1.462,-0.57,-0.57,-0.33,-0.04,0.06,0.94,
1.465,-0.57,-0.57,-0.33,-0.04,0.06,0.93,
1.465,-0.61,-0.54,-0.37,-0.04,0.06,0.93,
1.467,-0.61,-0.54,-0.37,-0.04,0.06,0.93,
1.469,-0.61,-0.54,-0.37,-0.04,0.06,0.93,
1.47,-0.67,-0.51,-0.43,-0.04,0.06,0.93,
1.472,-0.67,-0.51,-0.43,-0.05,0.06,0.92,
1.475,-0.67,-0.51,-0.43,-0.05,0.06,0.92,
1.475,-0.74,-0.50,-0.48,-0.05,0.06,0.92,
1.477,-0.74,-0.50,-0.48,-0.05,0.06,0.92,
1.479,-0.74,-0.50,-0.48,-0.05,0.06,0.92,
1.48,-0.79,-0.47,-0.54,-0.05,0.06,0.92,
1.482,-0.79,-0.47,-0.54,-0.05,0.06,0.92,
1.484,-0.79,-0.47,-0.54,-0.05,0.07,0.91,
1.485,-0.82,-0.44,-0.58,-0.05,0.07,0.91,
1.487,-0.82,-0.44,-0.58,-0.05,0.07,0.91,
1.494,-0.82,-0.44,-0.58,-0.06,0.06,0.91,
1.495,-0.84,-0.42,-0.61,-0.06,0.06,0.91,
1.495,-0.84,-0.42,-0.61,-0.06,0.06,0.91,
1.495,-0.84,-0.42,-0.61,-0.06,0.06,0.91,
1.496,-0.87,-0.40,-0.62,-0.06,0.06,0.91,
1.496,-0.87,-0.40,-0.62,-0.05,0.06,0.91,
1.499,-0.87,-0.40,-0.62,-0.05,0.06,0.91,
1.499,-0.88,-0.43,-0.64,-0.05,0.06,0.91,
1.501,-0.88,-0.43,-0.64,-0.05,0.06,0.91,
1.504,-0.88,-0.43,-0.64,-0.04,0.06,0.92,
1.504,-0.84,-0.43,-0.63,-0.04,0.06,0.92,
1.508,-0.84,-0.43,-0.63,-0.04,0.06,0.92,
1.509,-0.84,-0.43,-0.63,-0.04,0.05,0.92,
1.509,-0.77,-0.47,-0.59,-0.04,0.05,0.92,
1.511,-0.77,-0.47,-0.59,-0.04,0.05,0.92,
1.514,-0.77,-0.47,-0.59,-0.03,0.05,0.93,
1.514,-0.72,-0.47,-0.54,-0.03,0.05,0.93,
1.516,-0.72,-0.47,-0.54,-0.03,0.05,0.93,
1.518,-0.72,-0.47,-0.54,-0.03,0.05,0.93,
1.519,-0.68,-0.48,-0.49,-0.03,0.05,0.93,
1.522,-0.68,-0.48,-0.49,-0.03,0.05,0.94,
1.524,-0.68,-0.48,-0.49,-0.03,0.05,0.94,
1.524,-0.66,-0.50,-0.42,-0.03,0.05,0.94,
1.526,-0.66,-0.50,-0.42,-0.03,0.05,0.94,
1.528,-0.66,-0.50,-0.42,-0.03,0.05,0.95,
1.528,-0.66,-0.50,-0.35,-0.03,0.05,0.95,
1.531,-0.66,-0.50,-0.35,-0.03,0.05,0.95,
1.533,-0.66,-0.50,-0.35,-0.03,0.05,0.95,
1.533,-0.65,-0.49,-0.28,-0.03,0.05,0.95,
1.536,-0.65,-0.49,-0.28,-0.04,0.05,0.96,
1.539,-0.65,-0.49,-0.28,-0.04,0.05,0.96,
1.539,-0.66,-0.49,-0.20,-0.04,0.05,0.96,
1.541,-0.66,-0.49,-0.20,-0.04,0.05,0.96,
1.543,-0.66,-0.49,-0.20,-0.04,0.05,0.96,
1.543,-0.68,-0.47,-0.16,-0.04,0.05,0.96,
1.546,-0.68,-0.47,-0.16,-0.04,0.05,0.96,
1.548,-0.68,-0.47,-0.16,-0.04,0.05,0.96,
1.548,-0.72,-0.46,-0.13,-0.04,0.05,0.96,
1.55,-0.72,-0.46,-0.13,-0.05,0.05,0.96,
1.553,-0.72,-0.46,-0.13,-0.05,0.05,0.97,
1.553,-0.75,-0.44,-0.10,-0.05,0.05,0.97,
1.556,-0.75,-0.44,-0.10,-0.05,0.05,0.97,
1.558,-0.75,-0.44,-0.10,-0.06,0.05,0.97,
1.559,-0.81,-0.41,-0.07,-0.06,0.05,0.97,
1.56,-0.81,-0.41,-0.07,-0.06,0.06,0.97,
1.563,-0.81,-0.41,-0.07,-0.06,0.06,0.97,
1.563,-0.87,-0.36,-0.05,-0.06,0.06,0.97,
1.565,-0.87,-0.36,-0.05,-0.06,0.06,0.97,
1.567,-0.87,-0.36,-0.05,-0.07,0.06,0.96,
1.568,-0.91,-0.32,-0.05,-0.07,0.06,0.96,
1.57,-0.91,-0.32,-0.05,-0.07,0.06,0.97,
1.572,-0.91,-0.32,-0.05,-0.07,0.06,0.96,
1.573,-0.96,-0.29,-0.07,-0.07,0.06,0.96,
1.575,-0.96,-0.29,-0.07,-0.07,0.06,0.96,
1.577,-0.96,-0.29,-0.07,-0.07,0.06,0.96,
1.577,-1.02,-0.27,-0.08,-0.07,0.06,0.96,
1.58,-1.02,-0.27,-0.08,-0.07,0.06,0.96,
1.582,-1.02,-0.27,-0.08,-0.07,0.06,0.96,
1.582,-1.04,-0.22,-0.11,-0.07,0.06,0.96,
1.585,-1.04,-0.22,-0.11,-0.06,0.06,0.96,
1.587,-1.04,-0.22,-0.11,-0.06,0.06,0.96,
1.587,-1.01,-0.22,-0.12,-0.06,0.06,0.96,
1.594,-1.01,-0.22,-0.12,-0.05,0.06,0.96,
1.594,-1.01,-0.22,-0.12,-0.05,0.06,0.96,
1.595,-0.93,-0.20,-0.14,-0.05,0.06,0.96,
1.595,-0.93,-0.20,-0.14,-0.04,0.06,0.96,
1.597,-0.93,-0.20,-0.14,-0.04,0.06,0.96,
1.597,-0.82,-0.18,-0.15,-0.04,0.06,0.96,
1.599,-0.82,-0.18,-0.15,-0.03,0.06,0.96,
1.602,-0.82,-0.18,-0.15,-0.03,0.05,0.96,
1.602,-0.71,-0.22,-0.17,-0.03,0.05,0.96,
1.605,-0.71,-0.22,-0.17,-0.03,0.05,0.96,
1.606,-0.71,-0.22,-0.17,-0.02,0.05,0.96,
1.607,-0.64,-0.24,-0.15,-0.02,0.05,0.96,
1.609,-0.64,-0.24,-0.15,-0.02,0.05,0.96,
1.612,-0.64,-0.24,-0.15,-0.02,0.05,0.96,
1.612,-0.58,-0.25,-0.13,-0.02,0.05,0.96,
1.614,-0.58,-0.25,-0.13,-0.02,0.05,0.97,
1.616,-0.58,-0.25,-0.13,-0.02,0.05,0.97,
1.616,-0.55,-0.25,-0.10,-0.02,0.05,0.97,
1.619,-0.55,-0.25,-0.10,-0.03,0.05,0.97,
1.621,-0.55,-0.25,-0.10,-0.03,0.05,0.97,
1.622,-0.55,-0.24,-0.06,-0.03,0.05,0.97,
1.624,-0.55,-0.24,-0.06,-0.03,0.06,0.97,
1.626,-0.55,-0.24,-0.06,-0.04,0.06,0.97,
1.626,-0.60,-0.22,-0.03,-0.04,0.06,0.97,
1.628,-0.60,-0.22,-0.03,-0.04,0.06,0.97,
1.631,-0.60,-0.22,-0.03,-0.05,0.06,0.97,
1.631,-0.67,-0.19,-0.00,-0.05,0.06,0.97,
1.633,-0.67,-0.19,-0.00,-0.05,0.07,0.97,
1.636,-0.67,-0.19,-0.00,-0.06,0.07,0.97,
1.636,-0.77,-0.14,0.00,-0.06,0.07,0.97,
1.638,-0.77,-0.14,0.00,-0.07,0.07,0.97,
1.641,-0.77,-0.14,0.00,-0.07,0.08,0.97,
1.641,-0.85,-0.06,0.00,-0.07,0.08,0.97,
1.643,-0.85,-0.06,0.00,-0.07,0.08,0.97,
1.646,-0.85,-0.06,0.00,-0.08,0.08,0.97,
1.646,-0.95,0.02,-0.02,-0.08,0.08,0.97,
1.648,-0.95,0.02,-0.02,-0.09,0.09,0.97,
1.651,-0.95,0.02,-0.02,-0.09,0.09,0.97,
1.651,-1.05,0.07,-0.04,-0.09,0.09,0.97,
1.653,-1.05,0.07,-0.04,-0.09,0.09,0.96,
1.655,-1.05,0.07,-0.04,-0.09,0.09,0.96,
1.656,-1.12,0.14,-0.06,-0.09,0.09,0.96,
1.658,-1.12,0.14,-0.06,-0.10,0.09,0.96,
1.661,-1.12,0.14,-0.06,-0.10,0.09,0.96,
1.661,-1.16,0.20,-0.09,-0.10,0.09,0.96,
1.663,-1.16,0.20,-0.09,-0.10,0.09,0.96,
1.665,-1.16,0.20,-0.09,-0.10,0.09,0.96,
1.666,-1.20,0.20,-0.11,-0.10,0.09,0.96,
1.668,-1.20,0.20,-0.11,-0.09,0.09,0.96,
1.67,-1.20,0.20,-0.11,-0.09,0.09,0.96,
1.671,-1.19,0.20,-0.12,-0.09,0.09,0.96,
1.673,-1.19,0.20,-0.12,-0.09,0.09,0.96,
1.675,-1.19,0.20,-0.12,-0.09,0.09,0.96,
1.675,-1.16,0.19,-0.11,-0.09,0.09,0.96,
1.678,-1.16,0.19,-0.11,-0.09,0.08,0.97,
1.68,-1.16,0.19,-0.11,-0.09,0.08,0.97,
1.68,-1.12,0.17,-0.10,-0.09,0.08,0.97,
1.682,-1.12,0.17,-0.10,-0.08,0.08,0.97,
1.685,-1.12,0.17,-0.10,-0.08,0.08,0.98,
1.685,-1.08,0.14,-0.04,-0.08,0.08,0.98,
1.69,-1.08,0.14,-0.04,-0.08,0.08,0.98,
1.69,-1.08,0.14,-0.04,-0.08,0.08,0.99,
1.691,-1.02,0.13,0.01,-0.08,0.08,0.99,
1.692,-1.02,0.13,0.01,-0.07,0.08,0.99,
1.695,-1.02,0.13,0.01,-0.07,0.08,1.00,
1.695,-0.96,0.12,0.11,-0.07,0.08,1.00,
1.697,-0.96,0.12,0.11,-0.07,0.08,1.00,
1.699,-0.96,0.12,0.11,-0.07,0.08,1.01,
1.7,-0.92,0.12,0.20,-0.07,0.08,1.01,
1.702,-0.92,0.12,0.20,-0.07,0.08,1.01,
1.704,-0.92,0.12,0.20,-0.08,0.08,1.02,
1.705,-0.90,0.14,0.32,-0.08,0.08,1.02,
1.707,-0.90,0.14,0.32,-0.08,0.08,1.03,
1.709,-0.90,0.14,0.32,-0.08,0.08,1.03,
1.71,-0.90,0.14,0.41,-0.08,0.08,1.03,
1.712,-0.90,0.14,0.41,-0.09,0.08,1.03,
1.714,-0.90,0.14,0.41,-0.09,0.09,1.04,
1.714,-0.94,0.19,0.51,-0.09,0.09,1.04,
1.717,-0.94,0.19,0.51,-0.10,0.09,1.04,
1.719,-0.94,0.19,0.51,-0.10,0.09,1.04,
1.719,-1.02,0.23,0.60,-0.10,0.09,1.04,
1.722,-1.02,0.23,0.60,-0.11,0.09,1.05,
1.724,-1.02,0.23,0.60,-0.11,0.09,1.05,
1.724,-1.10,0.26,0.66,-0.11,0.09,1.05,
1.726,-1.10,0.26,0.66,-0.12,0.09,1.05,
1.729,-1.10,0.26,0.66,-0.12,0.09,1.05,
1.729,-1.18,0.28,0.69,-0.12,0.09,1.05,
1.731,-1.18,0.28,0.69,-0.12,0.09,1.05,
1.734,-1.18,0.28,0.69,-0.13,0.09,1.04,
1.734,-1.27,0.30,0.68,-0.13,0.09,1.04,
1.736,-1.27,0.30,0.68,-0.14,0.09,1.04,
1.739,-1.27,0.30,0.68,-0.14,0.09,1.04,
1.739,-1.35,0.34,0.65,-0.14,0.09,1.04,
1.741,-1.35,0.34,0.65,-0.14,0.10,1.03,
1.744,-1.42,0.36,0.58,-0.14,0.10,1.03,
1.744,-1.42,0.36,0.58,-0.14,0.09,1.03,
1.747,-1.42,0.36,0.58,-0.15,0.10,1.03,
1.749,-1.42,0.36,0.58,-0.15,0.10,1.03,
1.749,-1.48,0.37,0.53,-0.15,0.10,1.03,
1.751,-1.48,0.37,0.53,-0.15,0.10,1.02,
1.754,-1.48,0.37,0.53,-0.15,0.10,1.02,
1.755,-1.51,0.38,0.47,-0.15,0.10,1.02,
1.756,-1.51,0.38,0.47,-0.15,0.10,1.02,
1.758,-1.51,0.38,0.47,-0.15,0.10,1.02,
1.759,-1.52,0.38,0.41,-0.15,0.10,1.02,
1.761,-1.52,0.38,0.41,-0.15,0.10,1.01,
1.763,-1.52,0.38,0.41,-0.16,0.09,1.01,
1.764,-1.51,0.40,0.37,-0.16,0.09,1.01,
1.766,-1.51,0.40,0.37,-0.15,0.09,1.01,
1.768,-1.51,0.40,0.37,-0.16,0.09,1.01,
1.768,-1.54,0.38,0.34,-0.16,0.09,1.01,
1.771,-1.54,0.38,0.34,-0.16,0.09,1.01,
1.773,-1.54,0.38,0.34,-0.16,0.09,1.01,
1.773,-1.53,0.36,0.32,-0.16,0.09,1.01,
1.775,-1.53,0.36,0.32,-0.16,0.09,1.01,
1.778,-1.53,0.36,0.32,-0.16,0.09,1.01,
1.778,-1.53,0.33,0.31,-0.16,0.09,1.01,
1.78,-1.53,0.33,0.31,-0.16,0.09,1.01,
1.783,-1.53,0.33,0.31,-0.15,0.09,1.02,
1.783,-1.50,0.29,0.30,-0.15,0.09,1.02,
1.785,-1.50,0.29,0.30,-0.15,0.09,1.02,
1.788,-1.50,0.29,0.30,-0.15,0.09,1.02,
1.788,-1.46,0.31,0.32,-0.15,0.09,1.02,
1.79,-1.46,0.31,0.32,-0.15,0.09,1.02,
1.792,-1.46,0.31,0.32,-0.15,0.09,1.02,
1.793,-1.43,0.35,0.34,-0.15,0.09,1.02,
1.795,-1.43,0.35,0.34,-0.14,0.10,1.02,
1.798,-1.43,0.35,0.34,-0.14,0.10,1.02,
1.798,-1.37,0.39,0.35,-0.14,0.10,1.02,
1.8,-1.37,0.39,0.35,-0.14,0.10,1.02,
1.802,-1.37,0.39,0.35,-0.14,0.11,1.02,
1.803,-1.30,0.42,0.36,-0.14,0.11,1.02,
1.809,-1.30,0.42,0.36,-0.14,0.11,1.02,
1.81,-1.30,0.42,0.36,-0.15,0.11,1.02,
1.81,-1.28,0.48,0.33,-0.15,0.11,1.02,
1.811,-1.28,0.48,0.33,-0.15,0.11,1.02,
1.812,-1.28,0.48,0.33,-0.15,0.11,1.02,
1.812,-1.29,0.54,0.34,-0.15,0.11,1.02,
1.815,-1.29,0.54,0.34,-0.16,0.12,1.02,
1.817,-1.29,0.54,0.34,-0.16,0.12,1.02,
1.817,-1.33,0.57,0.34,-0.16,0.12,1.02,
1.819,-1.33,0.57,0.34,-0.16,0.12,1.01,
1.825,-1.33,0.57,0.34,-0.17,0.12,1.01,
1.825,-1.38,0.61,0.33,-0.17,0.12,1.01,
1.825,-1.38,0.61,0.33,-0.17,0.12,1.01,
1.827,-1.38,0.61,0.33,-0.17,0.12,1.01,
1.827,-1.43,0.63,0.30,-0.17,0.12,1.01,
1.829,-1.43,0.63,0.30,-0.17,0.13,1.00,
1.832,-1.43,0.63,0.30,-0.17,0.13,1.00,
1.832,-1.46,0.66,0.24,-0.17,0.13,1.00,
1.834,-1.46,0.66,0.24,-0.18,0.13,1.00,
1.837,-1.46,0.66,0.24,-0.18,0.13,0.99,
1.837,-1.50,0.70,0.16,-0.18,0.13,0.99,
1.839,-1.50,0.70,0.16,-0.19,0.14,0.99,
1.842,-1.50,0.70,0.16,-0.19,0.14,0.99,
1.842,-1.54,0.74,0.11,-0.19,0.14,0.99,
1.844,-1.54,0.74,0.11,-0.19,0.14,0.99,
1.847,-1.54,0.74,0.11,-0.19,0.14,0.98,
1.847,-1.59,0.80,0.05,-0.19,0.14,0.98,
1.849,-1.59,0.80,0.05,-0.19,0.15,0.98,
1.851,-1.59,0.80,0.05,-0.19,0.15,0.98,
1.851,-1.62,0.84,0.01,-0.19,0.15,0.98,
1.854,-1.62,0.84,0.01,-0.19,0.15,0.98,
1.856,-1.62,0.84,0.01,-0.19,0.15,0.98,
1.857,-1.60,0.87,-0.04,-0.19,0.15,0.98,
1.859,-1.60,0.87,-0.04,-0.19,0.15,0.98,
1.861,-1.60,0.87,-0.04,-0.19,0.15,0.98,
1.861,-1.58,0.87,-0.06,-0.19,0.15,0.98,
1.863,-1.58,0.87,-0.06,-0.19,0.15,0.98,
1.866,-1.58,0.87,-0.06,-0.19,0.15,0.98,
1.867,-1.56,0.86,-0.07,-0.19,0.15,0.98,
1.868,-1.56,0.86,-0.07,-0.18,0.15,0.98,
1.871,-1.56,0.86,-0.07,-0.18,0.15,0.98,
1.871,-1.53,0.89,-0.06,-0.18,0.15,0.98,
1.873,-1.53,0.89,-0.06,-0.18,0.15,0.98,
1.876,-1.53,0.89,-0.06,-0.18,0.14,0.99,
1.876,-1.45,0.89,-0.02,-0.18,0.14,0.99,
1.878,-1.45,0.89,-0.02,-0.17,0.14,0.99,
1.881,-1.45,0.89,-0.02,-0.17,0.14,0.99,
1.881,-1.38,0.85,0.02,-0.17,0.14,0.99,
1.883,-1.38,0.85,0.02,-0.16,0.14,1.00,
1.886,-1.38,0.85,0.02,-0.16,0.14,1.00,
1.886,-1.27,0.83,0.08,-0.16,0.14,1.00,
1.889,-1.27,0.83,0.08,-0.16,0.14,1.01,
1.891,-1.27,0.83,0.08,-0.15,0.14,1.01,
1.891,-1.19,0.81,0.16,-0.15,0.14,1.01,
1.893,-1.19,0.81,0.16,-0.15,0.14,1.01,
1.896,-1.19,0.81,0.16,-0.15,0.13,1.01,
1.896,-1.12,0.77,0.21,-0.15,0.13,1.01,
1.898,-1.12,0.77,0.21,-0.14,0.13,1.01,
1.9,-1.12,0.77,0.21,-0.14,0.13,1.01,
1.901,-1.02,0.73,0.26,-0.14,0.13,1.01,
1.903,-1.02,0.73,0.26,-0.14,0.13,1.01,
1.905,-1.02,0.73,0.26,-0.13,0.13,1.01,
1.905,-0.95,0.69,0.26,-0.13,0.13,1.01,
1.908,-0.95,0.69,0.26,-0.13,0.13,1.01,
1.91,-0.95,0.69,0.26,-0.13,0.13,1.01,
1.91,-0.88,0.66,0.28,-0.13,0.13,1.01,
1.912,-0.88,0.66,0.28,-0.13,0.13,1.01,
1.915,-0.88,0.66,0.28,-0.13,0.13,1.01,
1.915,-0.80,0.65,0.27,-0.13,0.13,1.01,
1.917,-0.80,0.65,0.27,-0.12,0.13,1.00,
1.921,-0.80,0.65,0.27,-0.12,0.13,1.00,
1.922,-0.77,0.64,0.23,-0.12,0.13,1.00,
1.922,-0.77,0.64,0.23,-0.12,0.13,1.00,
1.925,-0.77,0.64,0.23,-0.12,0.13,1.00,
1.925,-0.74,0.65,0.18,-0.12,0.13,1.00,
1.927,-0.74,0.65,0.18,-0.12,0.13,1.00,
1.93,-0.74,0.65,0.18,-0.12,0.13,1.00,
1.93,-0.71,0.67,0.15,-0.12,0.13,1.00,
1.932,-0.71,0.67,0.15,-0.12,0.13,1.00,
1.935,-0.71,0.67,0.15,-0.12,0.14,1.00,
1.935,-0.68,0.67,0.13,-0.12,0.14,1.00,
1.937,-0.68,0.67,0.13,-0.12,0.14,1.00,
1.939,-0.68,0.67,0.13,-0.12,0.14,0.99,
1.94,-0.64,0.71,0.11,-0.12,0.14,0.99,
1.942,-0.64,0.71,0.11,-0.12,0.14,1.00,
1.944,-0.64,0.71,0.11,-0.12,0.14,1.00,
1.945,-0.64,0.72,0.09,-0.12,0.14,1.00,
1.947,-0.64,0.72,0.09,-0.12,0.14,0.99,
1.949,-0.64,0.72,0.09,-0.12,0.14,0.99,
1.949,-0.66,0.73,0.09,-0.12,0.14,0.99,
1.952,-0.66,0.73,0.09,-0.12,0.14,0.99,
1.954,-0.66,0.73,0.09,-0.12,0.14,0.99,
1.955,-0.64,0.72,0.07,-0.12,0.14,0.99,
1.957,-0.64,0.72,0.07,-0.12,0.14,0.99,
1.959,-0.64,0.72,0.07,-0.12,0.14,0.99,
1.959,-0.60,0.70,0.06,-0.12,0.14,0.99,
1.961,-0.60,0.70,0.06,-0.11,0.14,0.99,
1.964,-0.60,0.70,0.06,-0.11,0.14,1.00,
1.964,-0.58,0.71,0.05,-0.11,0.14,1.00,
1.966,-0.58,0.71,0.05,-0.10,0.14,1.00,
1.969,-0.58,0.71,0.05,-0.10,0.14,1.00,
1.969,-0.53,0.70,0.09,-0.10,0.14,1.00,
1.971,-0.53,0.70,0.09,-0.10,0.14,1.00,
1.974,-0.53,0.70,0.09,-0.10,0.14,1.00,
1.974,-0.44,0.68,0.11,-0.10,0.14,1.00,
1.976,-0.44,0.68,0.11,-0.09,0.14,1.00,
1.978,-0.44,0.68,0.11,-0.09,0.14,1.00,
1.979,-0.36,0.68,0.12,-0.09,0.14,1.00,
1.981,-0.36,0.68,0.12,-0.08,0.14,1.00,
1.984,-0.36,0.68,0.12,-0.08,0.14,1.00,
1.984,-0.27,0.66,0.13,-0.08,0.14,1.00,
1.986,-0.27,0.66,0.13,-0.08,0.14,1.00,
1.991,-0.27,0.66,0.13,-0.08,0.14,1.00,
1.991,-0.18,0.65,0.14,-0.08,0.14,1.00,
1.991,-0.18,0.65,0.14,-0.07,0.14,1.00,
1.993,-0.18,0.65,0.14,-0.07,0.13,1.00,
1.993,-0.14,0.63,0.14,-0.07,0.13,1.00,
1.996,-0.14,0.63,0.14,-0.07,0.13,1.00,
1.998,-0.14,0.63,0.14,-0.07,0.13,0.99,
1.998,-0.09,0.61,0.12,-0.07,0.13,0.99,
2.0,-0.09,0.61,0.12,-0.07,0.13,0.99,
2.003,-0.09,0.61,0.12,-0.06,0.13,0.99,
2.004,-0.04,0.57,0.09,-0.06,0.13,0.99,
2.005,-0.04,0.57,0.09,-0.06,0.13,0.98,
2.008,-0.04,0.57,0.09,-0.06,0.13,0.98,
2.008,0.00,0.56,0.03,-0.06,0.13,0.98,
2.01,0.00,0.56,0.03,-0.05,0.14,0.98,
2.013,0.00,0.56,0.03,-0.05,0.14,0.98,
2.013,0.09,0.58,-0.03,-0.05,0.14,0.98,
2.015,0.09,0.58,-0.03,-0.05,0.14,0.98,
2.018,0.09,0.58,-0.03,-0.04,0.14,0.98,
2.018,0.17,0.60,-0.08,-0.04,0.14,0.98,
2.02,0.17,0.60,-0.08,-0.04,0.14,0.98,
2.023,0.17,0.60,-0.08,-0.04,0.14,0.98,
2.023,0.20,0.62,-0.09,-0.04,0.14,0.98,
2.025,0.20,0.62,-0.09,-0.04,0.14,0.98,
2.027,0.20,0.62,-0.09,-0.04,0.14,0.98,
2.027,0.22,0.64,-0.10,-0.04,0.14,0.98,
2.03,0.22,0.64,-0.10,-0.04,0.14,0.97,
2.032,0.22,0.64,-0.10,-0.04,0.14,0.98,
2.032,0.23,0.62,-0.10,-0.04,0.14,0.98,
2.035,0.23,0.62,-0.10,-0.04,0.14,0.97,
2.038,0.23,0.62,-0.10,-0.04,0.14,0.97,
2.038,0.25,0.60,-0.11,-0.04,0.14,0.97,
2.04,0.25,0.60,-0.11,-0.04,0.14,0.97,
2.042,0.25,0.60,-0.11,-0.04,0.14,0.97,
2.042,0.29,0.59,-0.11,-0.04,0.14,0.97,
2.045,0.29,0.59,-0.11,-0.04,0.14,0.98,
2.047,0.29,0.59,-0.11,-0.03,0.14,0.98,
2.047,0.29,0.62,-0.12,-0.03,0.14,0.98,
2.049,0.29,0.62,-0.12,-0.03,0.14,0.97,
2.052,0.29,0.62,-0.12,-0.03,0.15,0.98,
2.052,0.33,0.62,-0.08,-0.03,0.15,0.98,
2.055,0.33,0.62,-0.08,-0.03,0.15,0.98,
2.057,0.33,0.62,-0.08,-0.03,0.15,0.98,
2.057,0.35,0.63,-0.10,-0.03,0.15,0.98,
2.059,0.35,0.63,-0.10,-0.03,0.15,0.98,
2.062,0.35,0.63,-0.10,-0.03,0.15,0.97,
2.062,0.37,0.66,-0.09,-0.03,0.15,0.97,
2.064,0.37,0.66,-0.09,-0.03,0.15,0.97,
2.067,0.37,0.66,-0.09,-0.03,0.14,0.97,
2.067,0.40,0.64,-0.10,-0.03,0.14,0.97,
2.07,0.40,0.64,-0.10,-0.03,0.14,0.97,
2.072,0.40,0.64,-0.10,-0.03,0.14,0.97,
2.072,0.41,0.60,-0.13,-0.03,0.14,0.97,
2.074,0.41,0.60,-0.13,-0.03,0.14,0.96,
2.076,0.41,0.60,-0.13,-0.02,0.14,0.96,
2.077,0.43,0.58,-0.18,-0.02,0.14,0.96,
2.079,0.43,0.58,-0.18,-0.02,0.14,0.96,
2.081,0.43,0.58,-0.18,-0.02,0.14,0.96,
2.082,0.47,0.56,-0.22,-0.02,0.14,0.96,
2.084,0.47,0.56,-0.22,-0.02,0.14,0.95,
2.092,0.47,0.56,-0.22,-0.02,0.14,0.95,
2.093,0.54,0.53,-0.27,-0.02,0.14,0.95,
2.093,0.54,0.53,-0.27,-0.02,0.14,0.95,
2.093,0.54,0.53,-0.27,-0.01,0.14,0.95,
2.093,0.55,0.49,-0.30,-0.01,0.14,0.95,
2.094,0.55,0.49,-0.30,-0.01,0.14,0.94,
2.096,0.55,0.49,-0.30,-0.01,0.14,0.94,
2.096,0.59,0.47,-0.36,-0.01,0.14,0.94,
2.099,0.59,0.47,-0.36,-0.01,0.13,0.94,
2.101,0.59,0.47,-0.36,-0.01,0.13,0.94,
2.101,0.63,0.45,-0.38,-0.01,0.13,0.94,
2.106,0.63,0.45,-0.38,-0.01,0.13,0.94,
2.106,0.63,0.45,-0.38,-0.01,0.13,0.94,
2.107,0.64,0.40,-0.40,-0.01,0.13,0.94,
2.109,0.64,0.40,-0.40,-0.01,0.13,0.94,
2.111,0.69,0.37,-0.38,-0.01,0.13,0.94,
2.111,0.69,0.37,-0.38,-0.00,0.13,0.94,
2.113,0.69,0.37,-0.38,-0.00,0.13,0.95,
2.116,0.69,0.37,-0.38,-0.00,0.13,0.95,
2.116,0.73,0.34,-0.36,-0.00,0.13,0.95,
2.118,0.73,0.34,-0.36,-0.01,0.12,0.95,
2.121,0.73,0.34,-0.36,-0.01,0.12,0.95,
2.121,0.74,0.31,-0.32,-0.01,0.12,0.95,
2.123,0.74,0.31,-0.32,-0.01,0.12,0.96,
2.126,0.74,0.31,-0.32,-0.01,0.12,0.96,
2.126,0.72,0.28,-0.28,-0.01,0.12,0.96,
2.128,0.72,0.28,-0.28,-0.01,0.12,0.97,
2.131,0.72,0.28,-0.28,-0.01,0.12,0.97,
2.131,0.75,0.24,-0.19,-0.01,0.12,0.97,
2.133,0.75,0.24,-0.19,-0.01,0.12,0.98,
2.135,0.75,0.24,-0.19,-0.01,0.11,0.98,
2.136,0.73,0.20,-0.08,-0.01,0.11,0.98,
2.138,0.73,0.20,-0.08,-0.01,0.11,0.99,
2.141,0.73,0.20,-0.08,-0.01,0.11,1.00,
2.141,0.73,0.17,0.03,-0.01,0.11,1.00,
2.143,0.73,0.17,0.03,-0.02,0.11,1.00,
2.145,0.73,0.17,0.03,-0.02,0.10,1.01,
2.146,0.72,0.11,0.14,-0.02,0.10,1.01,
2.148,0.72,0.11,0.14,-0.02,0.10,1.01,
2.15,0.72,0.11,0.14,-0.02,0.10,1.01,
2.151,0.66,0.05,0.24,-0.02,0.10,1.01,
2.154,0.66,0.05,0.24,-0.02,0.10,1.02,
2.155,0.66,0.05,0.24,-0.02,0.10,1.02,
2.156,0.62,0.03,0.32,-0.02,0.10,1.02,
2.158,0.62,0.03,0.32,-0.02,0.10,1.02,
2.16,0.62,0.03,0.32,-0.02,0.10,1.03,
2.16,0.62,0.02,0.38,-0.02,0.10,1.03,
2.162,0.62,0.02,0.38,-0.02,0.10,1.03,
2.165,0.62,0.02,0.38,-0.02,0.10,1.04,
2.165,0.64,0.02,0.46,-0.02,0.10,1.04,
2.167,0.64,0.02,0.46,-0.02,0.10,1.04,
2.17,0.64,0.02,0.46,-0.02,0.09,1.04,
2.171,0.65,0.01,0.53,-0.02,0.09,1.04,
2.172,0.65,0.01,0.53,-0.02,0.09,1.04,
2.175,0.65,0.01,0.53,-0.02,0.08,1.05,
2.175,0.66,-0.05,0.58,-0.02,0.08,1.05,
2.177,0.66,-0.05,0.58,-0.02,0.08,1.05,
2.18,0.66,-0.05,0.58,-0.02,0.08,1.05,
2.182,0.69,-0.13,0.62,-0.02,0.08,1.05,
2.183,0.69,-0.13,0.62,-0.01,0.07,1.05,
2.184,0.69,-0.13,0.62,-0.01,0.07,1.05,
2.185,0.70,-0.21,0.64,-0.01,0.07,1.05,
2.187,0.70,-0.21,0.64,-0.00,0.07,1.05,
2.19,0.70,-0.21,0.64,-0.00,0.06,1.05,
2.19,0.76,-0.29,0.66,-0.00,0.06,1.05,
2.192,0.76,-0.29,0.66,-0.00,0.06,1.04,
2.194,0.76,-0.29,0.66,0.00,0.06,1.04,
2.195,0.83,-0.35,0.63,0.00,0.06,1.04,
2.197,0.83,-0.35,0.63,0.00,0.06,1.04,
2.199,0.83,-0.35,0.63,0.01,0.06,1.04,
2.199,0.87,-0.39,0.59,0.01,0.06,1.04,
2.201,0.87,-0.39,0.59,0.01,0.05,1.03,
2.209,0.87,-0.39,0.59,0.01,0.05,1.03,
2.21,0.89,-0.43,0.54,0.01,0.05,1.03,
2.21,0.89,-0.43,0.54,0.01,0.05,1.02,
2.211,0.89,-0.43,0.54,0.01,0.05,1.02,
2.211,0.90,-0.47,0.46,0.01,0.05,1.02,
2.211,0.90,-0.47,0.46,0.01,0.05,1.01,
2.214,0.90,-0.47,0.46,0.02,0.06,1.01,
2.214,0.95,-0.48,0.37,0.02,0.06,1.01,
2.216,0.95,-0.48,0.37,0.02,0.05,1.00,
2.219,0.95,-0.48,0.37,0.02,0.05,1.00,
2.22,0.98,-0.48,0.26,0.02,0.05,1.00,
2.222,0.98,-0.48,0.26,0.02,0.06,1.00,
2.223,0.98,-0.48,0.26,0.02,0.05,1.00,
2.223,1.00,-0.48,0.17,0.02,0.05,1.00,
2.226,1.00,-0.48,0.17,0.02,0.05,0.99,
2.228,1.00,-0.48,0.17,0.02,0.06,0.99,
2.228,1.01,-0.48,0.13,0.02,0.06,0.99,
2.231,1.01,-0.48,0.13,0.02,0.06,0.99,
2.233,1.01,-0.48,0.13,0.02,0.06,0.99,
2.233,0.98,-0.49,0.07,0.02,0.06,0.99,
2.236,0.98,-0.49,0.07,0.01,0.06,0.98,
2.238,0.98,-0.49,0.07,0.01,0.06,0.98,
2.239,0.95,-0.47,0.03,0.01,0.06,0.98,
2.241,0.95,-0.47,0.03,0.01,0.06,0.98,
2.243,0.95,-0.47,0.03,0.01,0.06,0.98,
2.244,0.92,-0.45,-0.01,0.01,0.06,0.98,
2.246,0.92,-0.45,-0.01,0.01,0.06,0.97,
2.248,0.92,-0.45,-0.01,0.01,0.07,0.97,
2.248,0.89,-0.43,-0.04,0.01,0.07,0.97,
2.25,0.89,-0.43,-0.04,0.00,0.07,0.97,
2.254,0.89,-0.43,-0.04,0.00,0.07,0.97,
2.254,0.83,-0.42,-0.11,0.00,0.07,0.97,
2.255,0.83,-0.42,-0.11,0.00,0.07,0.97,
2.258,0.83,-0.42,-0.11,0.00,0.08,0.97,
2.259,0.79,-0.37,-0.14,0.00,0.08,0.97,
2.26,0.79,-0.37,-0.14,-0.00,0.08,0.97,
2.263,0.79,-0.37,-0.14,-0.00,0.08,0.97,
2.263,0.76,-0.34,-0.14,-0.00,0.08,0.97,
2.265,0.76,-0.34,-0.14,-0.00,0.08,0.97,
2.268,0.76,-0.34,-0.14,-0.00,0.08,0.97,
2.268,0.73,-0.31,-0.16,-0.00,0.08,0.97,
2.27,0.73,-0.31,-0.16,-0.00,0.08,0.97,
2.273,0.73,-0.31,-0.16,-0.00,0.08,0.97,
2.273,0.72,-0.29,-0.14,-0.00,0.08,0.97,
2.275,0.72,-0.29,-0.14,-0.00,0.08,0.97,
2.278,0.72,-0.29,-0.14,-0.00,0.08,0.97,
2.278,0.70,-0.28,-0.13,-0.00,0.08,0.97,
2.28,0.70,-0.28,-0.13,-0.01,0.09,0.97,
2.282,0.70,-0.28,-0.13,-0.01,0.09,0.97,
2.283,0.70,-0.27,-0.12,-0.01,0.09,0.97,
2.285,0.70,-0.27,-0.12,-0.01,0.08,0.97,
2.292,0.70,-0.27,-0.12,-0.01,0.09,0.97,
2.292,0.68,-0.25,-0.13,-0.01,0.09,0.97,
2.293,0.68,-0.25,-0.13,-0.01,0.09,0.97,
2.293,0.68,-0.25,-0.13,-0.01,0.09,0.97,
2.293,0.64,-0.25,-0.15,-0.01,0.09,0.97,
2.295,0.64,-0.25,-0.15,-0.01,0.09,0.96,
2.297,0.64,-0.25,-0.15,-0.01,0.09,0.96,
2.297,0.63,-0.24,-0.15,-0.01,0.09,0.96,
2.3,0.63,-0.24,-0.15,-0.01,0.09,0.96,
2.302,0.63,-0.24,-0.15,-0.01,0.09,0.96,
2.302,0.61,-0.23,-0.17,-0.01,0.09,0.96,
2.305,0.61,-0.23,-0.17,-0.01,0.09,0.96,
2.307,0.61,-0.23,-0.17,-0.01,0.09,0.96,
2.307,0.59,-0.23,-0.21,-0.01,0.09,0.96,
2.309,0.59,-0.23,-0.21,-0.01,0.09,0.96,
2.312,0.59,-0.23,-0.21,-0.01,0.09,0.95,
2.312,0.59,-0.22,-0.22,-0.01,0.09,0.95,
2.314,0.59,-0.22,-0.22,-0.01,0.09,0.95,
2.317,0.59,-0.22,-0.22,-0.01,0.10,0.95,
2.317,0.57,-0.20,-0.25,-0.01,0.10,0.95,
2.319,0.57,-0.20,-0.25,-0.01,0.09,0.95,
2.321,0.57,-0.20,-0.25,-0.01,0.09,0.95,
2.321,0.57,-0.18,-0.26,-0.01,0.09,0.95,
2.324,0.57,-0.18,-0.26,-0.01,0.09,0.95,
2.326,0.57,-0.18,-0.26,-0.01,0.09,0.95,
2.327,0.56,-0.19,-0.29,-0.01,0.09,0.95,
2.329,0.56,-0.19,-0.29,-0.01,0.09,0.95,
2.331,0.56,-0.19,-0.29,-0.01,0.09,0.95,
2.331,0.55,-0.23,-0.31,-0.01,0.09,0.95,
2.334,0.55,-0.23,-0.31,-0.01,0.09,0.95,
2.336,0.55,-0.23,-0.31,-0.01,0.09,0.95,
2.337,0.55,-0.24,-0.31,-0.01,0.09,0.95,
2.339,0.55,-0.24,-0.31,-0.01,0.09,0.95,
2.341,0.55,-0.24,-0.31,-0.00,0.09,0.95,
2.341,0.54,-0.26,-0.29,-0.00,0.09,0.95,
2.343,0.54,-0.26,-0.29,-0.00,0.09,0.95,
2.346,0.54,-0.26,-0.29,0.00,0.08,0.95,
2.346,0.57,-0.28,-0.28,0.00,0.08,0.95,
2.348,0.57,-0.28,-0.28,0.01,0.08,0.95,
2.351,0.57,-0.28,-0.28,0.01,0.08,0.95,
2.351,0.62,-0.30,-0.26,0.01,0.08,0.95,
2.353,0.62,-0.30,-0.26,0.01,0.08,0.96,
2.356,0.62,-0.30,-0.26,0.02,0.08,0.96,
2.356,0.68,-0.34,-0.24,0.02,0.08,0.96,
2.358,0.68,-0.34,-0.24,0.02,0.07,0.96,
2.361,0.68,-0.34,-0.24,0.02,0.07,0.96,
2.361,0.74,-0.37,-0.21,0.02,0.07,0.96,
2.363,0.74,-0.37,-0.21,0.02,0.07,0.96,
2.366,0.74,-0.37,-0.21,0.02,0.07,0.96,
2.366,0.78,-0.39,-0.18,0.02,0.07,0.96,
2.368,0.78,-0.39,-0.18,0.03,0.07,0.97,
2.371,0.78,-0.39,-0.18,0.03,0.07,0.97,
2.371,0.81,-0.40,-0.14,0.03,0.07,0.97,
2.373,0.81,-0.40,-0.14,0.03,0.07,0.97,
2.375,0.81,-0.40,-0.14,0.03,0.07,0.97,
2.376,0.84,-0.41,-0.11,0.03,0.07,0.97,
2.378,0.84,-0.41,-0.11,0.03,0.07,0.97,
2.38,0.84,-0.41,-0.11,0.03,0.07,0.97,
2.381,0.87,-0.44,-0.07,0.03,0.07,0.97,
2.383,0.87,-0.44,-0.07,0.03,0.06,0.97,
2.392,0.87,-0.44,-0.07,0.03,0.06,0.97,
2.392,0.84,-0.45,-0.06,0.03,0.06,0.97,
2.393,0.84,-0.45,-0.06,0.03,0.07,0.97,
2.393,0.84,-0.45,-0.06,0.03,0.07,0.97,
2.393,0.84,-0.48,-0.04,0.03,0.07,0.97,
2.394,0.84,-0.48,-0.04,0.03,0.07,0.97,
2.395,0.84,-0.48,-0.04,0.03,0.07,0.97,
2.395,0.80,-0.47,-0.04,0.03,0.07,0.97,
2.398,0.80,-0.47,-0.04,0.03,0.06,0.97,
2.4,0.80,-0.47,-0.04,0.03,0.06,0.97,
2.4,0.79,-0.47,-0.03,0.03,0.06,0.97,
2.404,0.79,-0.47,-0.03,0.03,0.06,0.97,
2.405,0.79,-0.47,-0.03,0.03,0.06,0.97,
2.405,0.79,-0.48,-0.05,0.03,0.06,0.97,
2.407,0.79,-0.48,-0.05,0.03,0.06,0.97,
2.41,0.79,-0.48,-0.05,0.03,0.06,0.97,
2.41,0.78,-0.48,-0.07,0.03,0.06,0.97,
2.412,0.78,-0.48,-0.07,0.03,0.06,0.97,
2.415,0.78,-0.48,-0.07,0.03,0.06,0.97,
2.415,0.77,-0.51,-0.07,0.03,0.06,0.97,
2.417,0.77,-0.51,-0.07,0.03,0.06,0.97,
2.42,0.77,-0.51,-0.07,0.03,0.05,0.97,
2.421,0.76,-0.51,-0.06,0.03,0.05,0.97,
2.422,0.76,-0.51,-0.06,0.03,0.05,0.97,
2.424,0.76,-0.51,-0.06,0.03,0.05,0.97,
2.425,0.76,-0.56,-0.05,0.03,0.05,0.97,
2.427,0.76,-0.56,-0.05,0.03,0.05,0.97,
2.429,0.76,-0.56,-0.05,0.03,0.06,0.97,
2.429,0.76,-0.58,-0.05,0.03,0.06,0.97,
2.432,0.76,-0.58,-0.05,0.03,0.06,0.98,
2.434,0.76,-0.58,-0.05,0.03,0.06,0.98,
2.435,0.74,-0.56,-0.03,0.03,0.06,0.98,
2.436,0.74,-0.56,-0.03,0.03,0.06,0.98,
2.439,0.74,-0.56,-0.03,0.03,0.06,0.98,
2.439,0.74,-0.55,-0.00,0.03,0.06,0.98,
2.442,0.74,-0.55,-0.00,0.02,0.06,0.98,
2.444,0.74,-0.55,-0.00,0.02,0.06,0.98,
2.444,0.71,-0.53,0.01,0.02,0.06,0.98,
2.446,0.71,-0.53,0.01,0.02,0.06,0.98,
2.449,0.71,-0.53,0.01,0.02,0.07,0.98,
2.449,0.67,-0.50,0.01,0.02,0.07,0.98,
2.451,0.67,-0.50,0.01,0.02,0.07,0.98,
2.454,0.67,-0.50,0.01,0.01,0.07,0.97,
2.454,0.61,-0.47,-0.01,0.01,0.07,0.97,
2.456,0.61,-0.47,-0.01,0.01,0.07,0.97,
2.458,0.61,-0.47,-0.01,0.01,0.08,0.97,
2.459,0.56,-0.43,-0.03,0.01,0.08,0.97,
2.461,0.56,-0.43,-0.03,0.01,0.08,0.97,
2.463,0.56,-0.43,-0.03,0.01,0.08,0.97,
2.464,0.51,-0.38,-0.07,0.01,0.08,0.97,
2.466,0.51,-0.38,-0.07,0.01,0.08,0.97,
2.469,0.51,-0.38,-0.07,0.01,0.08,0.96,
2.47,0.49,-0.34,-0.10,0.01,0.08,0.96,
2.471,0.49,-0.34,-0.10,0.01,0.09,0.96,
2.473,0.49,-0.34,-0.10,0.01,0.09,0.96,
2.474,0.50,-0.30,-0.12,0.01,0.09,0.96,
2.475,0.50,-0.30,-0.12,0.01,0.09,0.96,
2.478,0.50,-0.30,-0.12,0.01,0.09,0.97,
2.478,0.49,-0.26,-0.13,0.01,0.09,0.97,
2.48,0.49,-0.26,-0.13,0.01,0.09,0.97,
2.483,0.49,-0.26,-0.13,0.01,0.09,0.97,
2.483,0.46,-0.25,-0.11,0.01,0.09,0.97,
2.486,0.46,-0.25,-0.11,0.01,0.09,0.97,
2.488,0.46,-0.25,-0.11,0.01,0.09,0.97,
2.488,0.47,-0.25,-0.10,0.01,0.09,0.97,
2.491,0.47,-0.25,-0.10,0.01,0.09,0.97,
2.493,0.47,-0.25,-0.10,0.01,0.09,0.97,
2.493,0.49,-0.24,-0.07,0.01,0.09,0.97,
2.495,0.49,-0.24,-0.07,0.01,0.09,0.97,
2.497,0.49,-0.24,-0.07,0.01,0.09,0.98,
2.498,0.50,-0.25,-0.04,0.01,0.09,0.98,
2.5,0.50,-0.25,-0.04,0.01,0.09,0.98,
2.508,0.50,-0.25,-0.04,0.01,0.09,0.98,
2.509,0.52,-0.25,-0.00,0.01,0.09,0.98,
2.509,0.52,-0.25,-0.00,0.02,0.09,0.99,
2.511,0.52,-0.25,-0.00,0.01,0.08,0.99,
2.511,0.52,-0.26,0.06,0.01,0.08,0.99,
2.511,0.52,-0.26,0.06,0.01,0.08,0.99,
2.512,0.52,-0.26,0.06,0.01,0.08,0.99,
2.513,0.53,-0.27,0.11,0.01,0.08,0.99,
2.515,0.53,-0.27,0.11,0.01,0.08,0.99,
2.517,0.53,-0.27,0.11,0.01,0.08,0.99,
2.518,0.51,-0.28,0.14,0.01,0.08,0.99,
2.52,0.51,-0.28,0.14,0.01,0.08,1.00,
2.523,0.51,-0.28,0.14,0.01,0.08,1.00,
2.523,0.52,-0.29,0.18,0.01,0.08,1.00,
2.525,0.52,-0.29,0.18,0.01,0.08,1.00,
2.527,0.52,-0.29,0.18,0.01,0.08,1.00,
2.527,0.50,-0.29,0.19,0.01,0.08,1.00,
2.529,0.50,-0.29,0.19,0.01,0.08,1.00,
2.532,0.50,-0.29,0.19,0.01,0.09,1.00,
2.532,0.46,-0.29,0.19,0.01,0.09,1.00,
2.535,0.46,-0.29,0.19,0.00,0.09,0.99,
2.537,0.46,-0.29,0.19,0.00,0.09,0.99,
2.537,0.43,-0.27,0.19,0.00,0.09,0.99,
2.539,0.43,-0.27,0.19,-0.00,0.09,0.99,
2.542,0.43,-0.27,0.19,-0.00,0.09,0.99,
2.542,0.36,-0.23,0.17,-0.00,0.09,0.99,
2.544,0.36,-0.23,0.17,-0.01,0.09,0.99,
2.547,0.36,-0.23,0.17,-0.01,0.10,0.98,
2.547,0.31,-0.19,0.14,-0.01,0.10,0.98,
2.549,0.31,-0.19,0.14,-0.01,0.10,0.98,
2.552,0.31,-0.19,0.14,-0.01,0.10,0.98,
2.552,0.25,-0.16,0.10,-0.01,0.10,0.98,
2.554,0.25,-0.16,0.10,-0.01,0.10,0.98,
2.556,0.25,-0.16,0.10,-0.02,0.11,0.98,
2.557,0.19,-0.11,0.04,-0.02,0.11,0.98,
2.559,0.19,-0.11,0.04,-0.02,0.11,0.98,
2.561,0.19,-0.11,0.04,-0.02,0.11,0.97,
2.561,0.16,-0.06,-0.00,-0.02,0.11,0.97,
2.564,0.16,-0.06,-0.00,-0.02,0.11,0.97,
2.566,0.16,-0.06,-0.00,-0.02,0.11,0.97,
2.566,0.12,-0.02,-0.03,-0.02,0.11,0.97,
2.569,0.12,-0.02,-0.03,-0.02,0.11,0.97,
2.571,0.12,-0.02,-0.03,-0.02,0.11,0.97,
2.572,0.10,-0.00,-0.06,-0.02,0.11,0.97,
2.574,0.10,-0.00,-0.06,-0.02,0.11,0.97,
2.576,0.10,-0.00,-0.06,-0.02,0.11,0.97,
2.576,0.09,-0.00,-0.07,-0.02,0.11,0.97,
2.579,0.09,-0.00,-0.07,-0.02,0.11,0.97,
2.581,0.09,-0.00,-0.07,-0.02,0.11,0.97,
2.581,0.07,-0.01,-0.06,-0.02,0.11,0.97,
2.583,0.07,-0.01,-0.06,-0.02,0.11,0.97,
2.591,0.07,-0.01,-0.06,-0.02,0.11,0.97,
2.592,0.07,-0.01,-0.07,-0.02,0.11,0.97,
2.592,0.07,-0.01,-0.07,-0.02,0.11,0.97,
2.592,0.07,-0.01,-0.07,-0.02,0.11,0.97,
2.592,0.07,-0.02,-0.06,-0.02,0.11,0.97,
2.593,0.07,-0.02,-0.06,-0.02,0.10,0.97,
2.596,0.07,-0.02,-0.06,-0.02,0.10,0.97,
2.596,0.07,-0.04,-0.07,-0.02,0.10,0.97,
2.598,0.07,-0.04,-0.07,-0.02,0.10,0.97,
2.601,0.07,-0.08,-0.08,-0.02,0.10,0.97,
2.601,0.07,-0.08,-0.08,-0.02,0.11,0.97,
2.607,0.07,-0.08,-0.08,-0.02,0.11,0.97,
2.607,0.07,-0.08,-0.08,-0.02,0.11,0.97,
2.607,0.06,-0.07,-0.09,-0.02,0.11,0.97,
2.608,0.06,-0.07,-0.09,-0.03,0.11,0.97,
2.611,0.06,-0.07,-0.09,-0.03,0.11,0.97,
2.611,0.05,-0.06,-0.09,-0.03,0.11,0.97,
2.613,0.05,-0.06,-0.09,-0.03,0.11,0.97,
2.615,0.05,-0.06,-0.09,-0.03,0.11,0.97,
2.615,0.03,-0.06,-0.11,-0.03,0.11,0.97,
2.618,0.03,-0.06,-0.11,-0.03,0.11,0.97,
2.62,0.03,-0.06,-0.11,-0.03,0.11,0.97,
2.621,0.01,-0.04,-0.10,-0.03,0.11,0.97,
2.622,0.01,-0.04,-0.10,-0.03,0.11,0.97,
2.625,0.01,-0.04,-0.10,-0.03,0.11,0.97,
2.626,-0.01,-0.02,-0.10,-0.03,0.11,0.97,
2.627,-0.01,-0.02,-0.10,-0.04,0.11,0.97,
2.63,-0.01,-0.02,-0.10,-0.04,0.12,0.97,
2.63,-0.04,0.00,-0.09,-0.04,0.12,0.97,
2.632,-0.04,0.00,-0.09,-0.04,0.12,0.97,
2.635,-0.04,0.00,-0.09,-0.04,0.12,0.98,
2.636,-0.09,0.04,-0.04,-0.04,0.12,0.98,
2.638,-0.09,0.04,-0.04,-0.05,0.12,0.98,
2.64,-0.09,0.04,-0.04,-0.05,0.12,0.98,
2.64,-0.14,0.05,-0.01,-0.05,0.12,0.98,
2.642,-0.14,0.05,-0.01,-0.05,0.12,0.98,
2.644,-0.14,0.05,-0.01,-0.05,0.12,0.98,
2.645,-0.17,0.06,0.04,-0.05,0.12,0.98,
2.647,-0.17,0.06,0.04,-0.06,0.12,0.98,
2.65,-0.23,0.07,0.06,-0.06,0.12,0.98,
2.65,-0.23,0.07,0.06,-0.06,0.12,0.98,
2.652,-0.23,0.07,0.06,-0.06,0.12,0.99,
2.655,-0.23,0.07,0.06,-0.06,0.12,0.99,
2.655,-0.29,0.09,0.08,-0.06,0.12,0.99,
2.657,-0.29,0.09,0.08,-0.06,0.12,0.99,
2.659,-0.29,0.09,0.08,-0.06,0.12,0.99,
2.66,-0.31,0.09,0.09,-0.06,0.12,0.99,
2.662,-0.31,0.09,0.09,-0.07,0.12,0.99,
2.664,-0.31,0.09,0.09,-0.07,0.12,0.99,
2.664,-0.35,0.11,0.12,-0.07,0.12,0.99,
2.667,-0.35,0.11,0.12,-0.07,0.12,0.99,
2.669,-0.35,0.11,0.12,-0.07,0.13,0.99,
2.671,-0.37,0.11,0.11,-0.07,0.13,0.99,
2.672,-0.37,0.11,0.11,-0.07,0.12,0.98,
2.674,-0.37,0.11,0.11,-0.06,0.12,0.98,
2.674,-0.38,0.13,0.09,-0.06,0.12,0.98,
2.676,-0.38,0.13,0.09,-0.06,0.12,0.98,
2.679,-0.38,0.13,0.09,-0.06,0.12,0.98,
2.679,-0.37,0.12,0.07,-0.06,0.12,0.98,
2.681,-0.37,0.12,0.07,-0.06,0.12,0.98,
2.684,-0.37,0.12,0.07,-0.06,0.12,0.98,
2.684,-0.35,0.10,0.05,-0.06,0.12,0.98,
2.689,-0.35,0.10,0.05,-0.06,0.12,0.98,
2.69,-0.35,0.10,0.05,-0.05,0.12,0.98,
2.69,-0.33,0.08,0.04,-0.05,0.12,0.98,
2.691,-0.33,0.08,0.04,-0.05,0.12,0.98,
2.693,-0.33,0.08,0.04,-0.05,0.12,0.98,
2.694,-0.28,0.07,0.02,-0.05,0.12,0.98,
2.696,-0.28,0.07,0.02,-0.05,0.11,0.98,
2.698,-0.28,0.07,0.02,-0.04,0.11,0.95,
2.699,-0.23,0.04,0.02,-0.04,0.11,0.95,
2.702,-0.23,0.04,0.02,-0.03,0.11,0.88,
2.703,-0.23,0.04,0.02,-0.03,0.12,0.85,
2.703,-0.16,0.00,-0.13,-0.03,0.12,0.85,
2.706,-0.16,0.00,-0.13,-0.03,0.12,0.86,
2.708,-0.16,0.00,-0.13,-0.02,0.12,0.90,
2.709,-0.06,0.03,-1.10,-0.02,0.12,0.90,
2.711,-0.06,0.03,-1.10,-0.02,0.11,0.93,
2.713,-0.06,0.03,-1.10,-0.03,0.10,0.95,
2.713,0.05,0.11,-0.92,-0.03,0.10,0.95,
2.715,0.05,0.11,-0.92,-0.04,0.09,0.96,
2.718,0.01,-0.05,-0.32,-0.04,0.09,0.96,
2.719,0.01,-0.05,-0.32,-0.04,0.08,0.96,
2.72,0.01,-0.05,-0.32,-0.03,0.08,0.95,
2.723,0.01,-0.05,-0.32,-0.02,0.08,0.95,
2.723,-0.10,-0.22,-0.18,-0.02,0.08,0.95,
2.725,-0.10,-0.22,-0.18,-0.02,0.09,0.95,
2.728,-0.01,-0.26,-0.26,-0.02,0.09,0.95,
2.728,-0.01,-0.26,-0.26,-0.02,0.09,0.96,
2.73,-0.01,-0.26,-0.26,-0.03,0.09,0.97,
2.733,-0.01,-0.26,-0.26,-0.03,0.09,0.98,
2.733,0.05,-0.22,-0.19,-0.03,0.09,0.98,
2.735,0.05,-0.22,-0.19,-0.03,0.09,0.98,
2.738,0.05,-0.22,-0.19,-0.03,0.08,0.98,
2.738,-0.01,-0.19,-0.02,-0.03,0.08,0.98,
2.74,-0.01,-0.19,-0.02,-0.03,0.08,0.99,
2.742,-0.01,-0.19,-0.02,-0.03,0.09,0.99,
2.742,-0.05,-0.20,0.07,-0.03,0.09,0.99,
2.745,-0.05,-0.20,0.07,-0.03,0.09,0.99,
2.747,-0.06,-0.21,0.14,-0.03,0.09,0.99,
2.748,-0.06,-0.21,0.14,-0.03,0.09,1.00,
2.75,-0.06,-0.21,0.14,-0.04,0.09,1.00,
2.753,-0.06,-0.21,0.14,-0.04,0.09,1.00,
2.753,-0.07,-0.18,0.20,-0.04,0.09,1.00,
2.755,-0.07,-0.18,0.20,-0.04,0.09,1.00,
2.757,-0.07,-0.18,0.20,-0.04,0.09,1.01,
2.757,-0.12,-0.18,0.25,-0.04,0.09,1.01,
2.76,-0.12,-0.18,0.25,-0.04,0.09,1.01,
2.762,-0.12,-0.18,0.25,-0.04,0.09,1.01,
2.762,-0.15,-0.18,0.29,-0.04,0.09,1.01,
2.764,-0.15,-0.18,0.29,-0.03,0.09,1.01,
2.767,-0.15,-0.18,0.29,-0.04,0.09,1.02,
2.767,-0.12,-0.16,0.33,-0.04,0.09,1.02,
2.769,-0.12,-0.16,0.33,-0.04,0.09,1.02,
2.772,-0.12,-0.16,0.33,-0.04,0.09,1.02,
2.772,-0.11,-0.14,0.37,-0.04,0.09,1.02,
2.774,-0.11,-0.14,0.37,-0.04,0.09,1.02,
2.777,-0.11,-0.14,0.37,-0.03,0.09,1.02,
2.777,-0.11,-0.13,0.42,-0.03,0.09,1.02,
2.779,-0.11,-0.13,0.42,-0.03,0.09,1.01,
2.782,-0.08,-0.12,0.40,-0.03,0.09,1.01,
2.782,-0.08,-0.12,0.40,-0.03,0.09,1.01,
2.789,-0.08,-0.12,0.40,-0.02,0.09,1.00,
2.789,-0.08,-0.12,0.40,-0.02,0.09,1.00,
2.789,-0.04,-0.12,0.30,-0.02,0.09,1.00,
2.79,-0.04,-0.12,0.30,-0.02,0.09,0.99,
2.792,-0.04,-0.12,0.30,-0.02,0.09,0.99,
2.792,0.02,-0.12,0.22,-0.02,0.09,0.99,
2.794,0.02,-0.12,0.22,-0.02,0.09,0.99,
2.796,0.05,-0.12,0.14,-0.02,0.09,0.99,
2.797,0.05,-0.12,0.14,-0.02,0.09,0.99,
2.799,0.05,-0.12,0.14,-0.02,0.09,0.99,
2.801,0.05,-0.12,0.14,-0.02,0.09,0.99,
2.802,0.05,-0.12,0.10,-0.02,0.09,0.99,
