
time,ax,ay,az,gFx,gFy,gFz,
0.001,-0.02,0.02,-0.17,-0.03,0.13,0.95,
0.001,-0.03,0.03,-0.20,-0.03,0.13,0.95,
0.002,-0.03,0.03,-0.20,-0.03,0.13,0.95,
0.002,-0.03,0.03,-0.20,-0.03,0.12,0.95,
0.002,-0.03,0.04,-0.24,-0.03,0.12,0.95,
0.004,-0.03,0.04,-0.24,-0.04,0.13,0.95,
0.007,-0.03,0.04,-0.24,-0.04,0.13,0.95,
0.007,-0.02,0.04,-0.24,-0.04,0.13,0.95,
0.009,-0.02,0.04,-0.24,-0.03,0.13,0.95,
0.011,-0.02,0.04,-0.24,-0.03,0.13,0.95,
0.011,-0.03,0.06,-0.25,-0.03,0.13,0.95,
0.014,-0.03,0.06,-0.25,-0.03,0.13,0.95,
0.016,-0.03,0.06,-0.25,-0.03,0.13,0.96,
0.016,-0.00,0.08,-0.22,-0.03,0.13,0.96,
0.019,-0.00,0.08,-0.22,-0.03,0.13,0.96,
0.021,-0.00,0.08,-0.22,-0.03,0.13,0.96,
0.021,0.01,0.07,-0.21,-0.03,0.13,0.96,
0.024,0.01,0.07,-0.21,-0.03,0.13,0.96,
0.028,0.01,0.07,-0.21,-0.03,0.13,0.96,
0.028,-0.01,0.08,-0.19,-0.03,0.13,0.96,
0.03,-0.01,0.08,-0.19,-0.03,0.13,0.96,
0.031,-0.01,0.08,-0.19,-0.03,0.13,0.96,
0.031,0.00,0.07,-0.17,-0.03,0.13,0.96,
0.033,0.00,0.07,-0.17,-0.03,0.12,0.96,
0.036,0.00,0.07,-0.17,-0.03,0.13,0.97,
0.036,0.03,0.06,-0.13,-0.03,0.13,0.97,
0.038,0.03,0.06,-0.13,-0.03,0.12,0.97,
0.041,0.03,0.06,-0.13,-0.03,0.12,0.97,
0.041,0.03,0.05,-0.11,-0.03,0.12,0.97,
0.043,0.03,0.05,-0.11,-0.03,0.12,0.97,
0.045,0.03,0.05,-0.11,-0.03,0.12,0.97,
0.046,0.03,0.04,-0.09,-0.03,0.12,0.97,
0.049,0.03,0.04,-0.09,-0.03,0.12,0.97,
0.05,0.03,0.04,-0.09,-0.03,0.12,0.97,
0.051,0.04,0.04,-0.08,-0.03,0.12,0.97,
0.053,0.04,0.04,-0.08,-0.03,0.12,0.97,
0.055,0.04,0.04,-0.08,-0.02,0.12,0.97,
0.056,0.05,0.03,-0.07,-0.02,0.12,0.97,
0.059,0.05,0.03,-0.07,-0.02,0.11,0.97,
0.06,0.05,0.03,-0.07,-0.02,0.11,0.97,
0.061,0.06,0.00,-0.03,-0.02,0.11,0.97,
0.063,0.06,0.00,-0.03,-0.02,0.11,0.97,
0.065,0.06,0.00,-0.03,-0.02,0.11,0.97,
0.066,0.10,-0.05,-0.05,-0.02,0.11,0.97,
0.069,0.10,-0.05,-0.05,-0.02,0.11,0.97,
0.07,0.10,-0.05,-0.05,-0.02,0.11,0.97,
0.07,0.11,-0.06,-0.05,-0.02,0.11,0.97,
0.072,0.11,-0.06,-0.05,-0.02,0.11,0.97,
0.075,0.11,-0.06,-0.06,-0.02,0.11,0.97,
0.075,0.11,-0.06,-0.06,-0.02,0.11,0.97,
0.077,0.11,-0.06,-0.06,-0.02,0.11,0.97,
0.08,0.11,-0.06,-0.06,-0.02,0.11,0.96,
0.08,0.12,-0.06,-0.08,-0.02,0.11,0.96,
0.082,0.12,-0.06,-0.08,-0.02,0.11,0.96,
0.085,0.12,-0.06,-0.08,-0.02,0.11,0.96,
0.085,0.11,-0.06,-0.11,-0.02,0.11,0.96,
0.089,0.11,-0.06,-0.11,-0.02,0.11,0.96,
0.093,0.11,-0.06,-0.11,-0.02,0.11,0.96,
0.093,0.10,-0.07,-0.13,-0.02,0.11,0.96,
0.095,0.10,-0.07,-0.13,-0.02,0.11,0.96,
0.095,0.10,-0.07,-0.13,-0.02,0.11,0.96,
0.095,0.09,-0.06,-0.14,-0.02,0.11,0.96,
0.097,0.09,-0.06,-0.14,-0.02,0.11,0.96,
0.099,0.09,-0.06,-0.14,-0.02,0.11,0.96,
0.1,0.08,-0.05,-0.16,-0.02,0.11,0.96,
0.102,0.08,-0.05,-0.16,-0.02,0.12,0.96,
0.104,0.08,-0.05,-0.16,-0.02,0.12,0.96,
0.104,0.09,-0.05,-0.18,-0.02,0.12,0.96,
0.107,0.09,-0.05,-0.18,-0.02,0.12,0.96,
0.115,0.09,-0.05,-0.18,-0.02,0.12,0.96,
0.115,0.10,-0.03,-0.17,-0.02,0.12,0.96,
0.115,0.10,-0.03,-0.17,-0.02,0.12,0.96,
0.116,0.10,-0.03,-0.17,-0.01,0.12,0.96,
0.116,0.12,-0.03,-0.15,-0.01,0.12,0.96,
0.116,0.12,-0.03,-0.15,-0.01,0.11,0.96,
0.119,0.12,-0.03,-0.15,-0.01,0.12,0.96,
0.119,0.16,-0.03,-0.13,-0.01,0.12,0.96,
0.121,0.16,-0.03,-0.13,-0.01,0.12,0.96,
0.125,0.16,-0.03,-0.13,-0.01,0.12,0.97,
0.125,0.18,-0.04,-0.11,-0.01,0.12,0.97,
0.126,0.18,-0.04,-0.11,-0.01,0.11,0.97,
0.129,0.18,-0.04,-0.11,-0.01,0.11,0.97,
0.13,0.20,-0.02,-0.08,-0.01,0.11,0.97,
0.131,0.20,-0.02,-0.08,-0.01,0.11,0.97,
0.134,0.20,-0.02,-0.08,-0.01,0.11,0.97,
0.134,0.21,-0.04,-0.05,-0.01,0.11,0.97,
0.136,0.21,-0.04,-0.05,-0.01,0.11,0.98,
0.138,0.21,-0.04,-0.05,-0.01,0.11,0.98,
0.139,0.21,-0.03,-0.02,-0.01,0.11,0.98,
0.141,0.21,-0.03,-0.02,-0.01,0.11,0.98,
0.145,0.21,-0.03,-0.02,-0.01,0.11,0.98,
0.145,0.23,-0.05,0.02,-0.01,0.11,0.98,
0.146,0.23,-0.05,0.02,-0.01,0.11,0.98,
0.149,0.23,-0.05,0.02,-0.01,0.11,0.98,
0.15,0.22,-0.08,0.02,-0.01,0.11,0.98,
0.15,0.22,-0.08,0.02,-0.01,0.11,0.98,
0.153,0.22,-0.08,0.02,-0.01,0.11,0.98,
0.153,0.22,-0.08,0.04,-0.01,0.11,0.98,
0.155,0.22,-0.08,0.04,-0.01,0.11,0.99,
0.158,0.22,-0.08,0.04,-0.01,0.11,0.99,
0.159,0.21,-0.09,0.07,-0.01,0.11,0.99,
0.16,0.21,-0.09,0.07,-0.01,0.11,0.99,
0.163,0.21,-0.09,0.07,-0.02,0.11,0.99,
0.163,0.18,-0.09,0.10,-0.02,0.11,0.99,
0.165,0.18,-0.09,0.10,-0.01,0.11,0.99,
0.169,0.18,-0.09,0.10,-0.02,0.11,0.99,
0.169,0.15,-0.08,0.11,-0.02,0.11,0.99,
0.17,0.15,-0.08,0.11,-0.02,0.11,0.99,
0.173,0.14,-0.07,0.12,-0.02,0.11,0.99,
0.173,0.14,-0.07,0.12,-0.02,0.11,0.99,
0.175,0.14,-0.07,0.12,-0.02,0.11,0.99,
0.178,0.14,-0.07,0.12,-0.02,0.11,0.99,
0.178,0.11,-0.04,0.11,-0.02,0.11,0.99,
0.18,0.11,-0.04,0.11,-0.02,0.12,0.99,
0.183,0.11,-0.04,0.11,-0.02,0.12,0.99,
0.183,0.08,-0.03,0.12,-0.02,0.12,0.99,
0.185,0.08,-0.03,0.12,-0.02,0.12,0.99,
0.188,0.08,-0.03,0.12,-0.02,0.12,0.99,
0.189,0.07,0.03,0.11,-0.02,0.12,0.99,
0.19,0.07,0.03,0.11,-0.02,0.12,0.99,
0.194,0.07,0.03,0.11,-0.02,0.12,0.99,
0.194,0.10,0.06,0.10,-0.02,0.12,0.99,
0.195,0.10,0.06,0.10,-0.02,0.13,0.99,
0.197,0.10,0.06,0.10,-0.02,0.13,0.99,
0.197,0.12,0.09,0.12,-0.02,0.13,0.99,
0.199,0.12,0.09,0.12,-0.02,0.13,0.98,
0.202,0.12,0.09,0.12,-0.01,0.13,0.98,
0.202,0.13,0.10,0.11,-0.01,0.13,0.98,
0.204,0.13,0.10,0.11,-0.01,0.13,0.98,
0.208,0.13,0.10,0.11,-0.01,0.13,0.98,
0.208,0.15,0.12,0.08,-0.01,0.13,0.98,
0.21,0.15,0.12,0.08,-0.01,0.13,0.98,
0.212,0.15,0.12,0.08,-0.01,0.13,0.98,
0.212,0.19,0.13,0.07,-0.01,0.13,0.98,
0.214,0.19,0.13,0.07,-0.01,0.13,0.98,
0.217,0.19,0.13,0.07,-0.00,0.13,0.98,
0.217,0.19,0.13,0.05,-0.00,0.13,0.98,
0.219,0.19,0.13,0.05,-0.01,0.13,0.98,
0.222,0.19,0.13,0.05,-0.01,0.13,0.98,
0.222,0.23,0.11,0.04,-0.01,0.13,0.98,
0.225,0.23,0.11,0.04,-0.01,0.13,0.98,
0.227,0.23,0.11,0.04,-0.01,0.12,0.98,
0.228,0.23,0.09,0.02,-0.01,0.12,0.98,
0.23,0.23,0.09,0.02,-0.01,0.13,0.98,
0.232,0.23,0.09,0.02,-0.00,0.13,0.98,
0.232,0.23,0.09,0.01,-0.00,0.13,0.98,
0.234,0.23,0.09,0.01,-0.00,0.13,0.98,
0.236,0.23,0.09,0.01,-0.00,0.12,0.98,
0.237,0.23,0.09,0.02,-0.00,0.12,0.98,
0.239,0.23,0.09,0.02,-0.00,0.12,0.98,
0.242,0.23,0.09,0.02,-0.00,0.12,0.98,
0.243,0.24,0.09,0.01,-0.00,0.12,0.98,
0.244,0.24,0.09,0.01,-0.00,0.12,0.98,
0.247,0.24,0.06,0.00,-0.00,0.12,0.98,
0.247,0.24,0.06,0.00,-0.00,0.12,0.98,
0.249,0.24,0.06,0.00,-0.00,0.13,0.98,
0.251,0.24,0.06,0.00,-0.00,0.13,0.98,
0.251,0.24,0.06,0.00,-0.00,0.13,0.98,
0.253,0.24,0.06,0.00,0.00,0.13,0.98,
0.256,0.24,0.06,0.00,0.00,0.13,0.98,
0.256,0.23,0.09,0.04,0.00,0.13,0.98,
0.259,0.23,0.09,0.04,0.00,0.13,0.98,
0.261,0.23,0.09,0.04,0.00,0.13,0.98,
0.261,0.27,0.10,0.03,0.00,0.13,0.98,
0.263,0.27,0.10,0.03,0.00,0.13,0.98,
0.266,0.30,0.12,0.03,0.00,0.13,0.98,
0.266,0.30,0.12,0.03,0.00,0.13,0.98,
0.269,0.30,0.12,0.03,0.01,0.13,0.98,
0.271,0.30,0.12,0.03,0.01,0.13,0.98,
0.271,0.30,0.14,0.02,0.01,0.13,0.98,
0.273,0.30,0.14,0.02,0.01,0.13,0.98,
0.276,0.30,0.14,0.02,0.01,0.13,0.98,
0.277,0.33,0.12,0.04,0.01,0.13,0.98,
0.278,0.33,0.12,0.04,0.01,0.13,0.98,
0.281,0.33,0.12,0.04,0.01,0.13,0.98,
0.281,0.33,0.11,0.03,0.01,0.13,0.98,
0.283,0.33,0.11,0.03,0.01,0.13,0.98,
0.285,0.33,0.11,0.03,0.02,0.12,0.98,
0.286,0.35,0.11,0.03,0.02,0.12,0.98,
0.289,0.35,0.11,0.03,0.02,0.12,0.98,
0.298,0.35,0.11,0.03,0.01,0.12,0.98,
0.298,0.38,0.08,0.02,0.01,0.12,0.98,
0.298,0.38,0.08,0.02,0.02,0.12,0.98,
0.299,0.38,0.08,0.02,0.02,0.12,0.98,
0.299,0.38,0.02,0.02,0.02,0.12,0.98,
0.299,0.38,0.02,0.02,0.02,0.11,0.98,
0.3,0.38,0.02,0.02,0.02,0.11,0.98,
0.3,0.40,-0.00,0.02,0.02,0.11,0.98,
0.302,0.40,-0.00,0.02,0.02,0.11,0.98,
0.305,0.40,-0.00,0.02,0.03,0.11,0.98,
0.305,0.44,-0.04,0.03,0.03,0.11,0.98,
0.307,0.44,-0.04,0.03,0.03,0.11,0.98,
0.31,0.44,-0.04,0.03,0.03,0.11,0.98,
0.31,0.46,-0.07,0.03,0.03,0.11,0.98,
0.312,0.46,-0.07,0.03,0.03,0.11,0.98,
0.315,0.46,-0.07,0.03,0.03,0.10,0.98,
0.315,0.48,-0.09,0.02,0.03,0.10,0.98,
0.317,0.48,-0.09,0.02,0.03,0.10,0.98,
0.32,0.48,-0.09,0.02,0.03,0.10,0.98,
0.32,0.49,-0.11,0.03,0.03,0.10,0.98,
0.322,0.49,-0.11,0.03,0.03,0.10,0.98,
0.324,0.49,-0.11,0.03,0.03,0.10,0.98,
0.325,0.48,-0.12,0.02,0.03,0.10,0.98,
0.327,0.48,-0.12,0.02,0.03,0.10,0.98,
0.33,0.48,-0.12,0.02,0.03,0.10,0.98,
0.33,0.48,-0.14,0.00,0.03,0.10,0.98,
0.332,0.48,-0.14,0.00,0.03,0.10,0.98,
0.334,0.48,-0.14,0.00,0.03,0.10,0.97,
0.335,0.49,-0.14,0.00,0.03,0.10,0.97,
0.337,0.49,-0.14,0.00,0.03,0.10,0.98,
0.339,0.49,-0.14,0.00,0.04,0.10,0.97,
0.339,0.50,-0.16,-0.02,0.04,0.10,0.97,
0.342,0.50,-0.16,-0.02,0.04,0.10,0.98,
0.344,0.50,-0.16,-0.02,0.04,0.10,0.98,
0.345,0.52,-0.15,-0.02,0.04,0.10,0.98,
0.347,0.52,-0.15,-0.02,0.04,0.10,0.98,
0.349,0.52,-0.15,-0.02,0.04,0.09,0.98,
0.35,0.52,-0.17,-0.00,0.04,0.09,0.98,
0.351,0.52,-0.17,-0.00,0.04,0.09,0.98,
0.354,0.52,-0.17,-0.00,0.04,0.09,0.98,
0.354,0.57,-0.17,-0.00,0.04,0.09,0.98,
0.356,0.57,-0.17,-0.00,0.04,0.09,0.98,
0.359,0.57,-0.17,-0.00,0.05,0.09,0.98,
0.359,0.58,-0.21,0.01,0.05,0.09,0.98,
0.361,0.58,-0.21,0.01,0.05,0.08,0.98,
0.364,0.58,-0.21,0.01,0.05,0.08,0.98,
0.364,0.57,-0.25,0.00,0.05,0.08,0.98,
0.366,0.57,-0.25,0.00,0.05,0.08,0.98,
0.369,0.57,-0.25,0.00,0.06,0.08,0.98,
0.37,0.62,-0.29,0.02,0.06,0.08,0.98,
0.371,0.62,-0.29,0.02,0.06,0.07,0.98,
0.374,0.62,-0.29,0.02,0.06,0.07,0.98,
0.374,0.65,-0.32,0.02,0.06,0.07,0.98,
0.376,0.65,-0.32,0.02,0.06,0.07,0.98,
0.379,0.65,-0.32,0.02,0.06,0.07,0.98,
0.379,0.68,-0.37,0.02,0.06,0.07,0.98,
0.381,0.68,-0.37,0.02,0.07,0.06,0.98,
0.383,0.68,-0.37,0.02,0.07,0.06,0.98,
0.383,0.70,-0.41,0.01,0.07,0.06,0.98,
0.385,0.70,-0.41,0.01,0.07,0.06,0.98,
0.389,0.70,-0.41,0.01,0.07,0.06,0.98,
0.39,0.73,-0.44,0.00,0.07,0.06,0.98,
0.391,0.73,-0.44,0.00,0.07,0.06,0.98,
0.393,0.73,-0.44,0.00,0.08,0.06,0.98,
0.394,0.75,-0.47,0.01,0.08,0.06,0.98,
0.396,0.75,-0.47,0.01,0.08,0.06,0.98,
0.398,0.77,-0.47,0.01,0.08,0.06,0.98,
0.399,0.77,-0.47,0.01,0.08,0.06,0.98,
0.4,0.77,-0.47,0.01,0.08,0.06,0.98,
0.403,0.77,-0.47,0.01,0.08,0.05,0.98,
0.403,0.79,-0.47,-0.01,0.08,0.05,0.98,
0.405,0.79,-0.47,-0.01,0.08,0.05,0.98,
0.411,0.79,-0.47,-0.01,0.08,0.05,0.98,
0.412,0.80,-0.49,-0.02,0.08,0.05,0.98,
0.412,0.80,-0.49,-0.02,0.08,0.05,0.98,
0.413,0.78,-0.51,-0.02,0.08,0.05,0.98,
0.414,0.78,-0.51,-0.02,0.08,0.05,0.98,
0.415,0.78,-0.51,-0.02,0.08,0.05,0.98,
0.417,0.78,-0.51,-0.02,0.08,0.05,0.98,
0.418,0.76,-0.52,0.01,0.08,0.05,0.98,
0.42,0.76,-0.52,0.01,0.08,0.05,0.98,
0.423,0.76,-0.52,0.01,0.08,0.05,0.98,
0.423,0.76,-0.53,-0.00,0.08,0.05,0.98,
0.425,0.76,-0.53,-0.00,0.08,0.04,0.98,
0.427,0.76,-0.53,-0.00,0.08,0.04,0.98,
0.428,0.76,-0.54,0.01,0.08,0.04,0.98,
0.43,0.76,-0.54,0.01,0.08,0.04,0.98,
0.432,0.76,-0.54,0.01,0.08,0.04,0.98,
0.433,0.73,-0.57,0.01,0.08,0.04,0.98,
0.434,0.73,-0.57,0.01,0.08,0.04,0.98,
0.437,0.73,-0.57,0.01,0.08,0.03,0.98,
0.437,0.73,-0.59,0.02,0.08,0.03,0.98,
0.441,0.73,-0.59,0.02,0.08,0.03,0.98,
0.442,0.73,-0.59,0.02,0.08,0.03,0.98,
0.443,0.72,-0.62,0.01,0.08,0.03,0.98,
0.445,0.72,-0.62,0.01,0.08,0.03,0.98,
0.447,0.72,-0.62,0.01,0.08,0.03,0.98,
0.447,0.71,-0.64,0.02,0.08,0.03,0.98,
0.45,0.71,-0.64,0.02,0.08,0.03,0.98,
0.452,0.71,-0.64,0.02,0.08,0.03,0.98,
0.452,0.69,-0.66,0.05,0.08,0.03,0.98,
0.454,0.69,-0.66,0.05,0.07,0.02,0.99,
0.458,0.69,-0.66,0.05,0.07,0.02,0.99,
0.458,0.67,-0.67,0.06,0.07,0.02,0.99,
0.459,0.67,-0.67,0.06,0.07,0.02,0.99,
0.462,0.67,-0.67,0.06,0.06,0.02,0.99,
0.463,0.59,-0.68,0.08,0.06,0.02,0.99,
0.464,0.59,-0.68,0.08,0.06,0.02,0.99,
0.467,0.52,-0.71,0.10,0.06,0.02,0.99,
0.467,0.52,-0.71,0.10,0.06,0.02,0.99,
0.469,0.52,-0.71,0.10,0.05,0.02,0.99,
0.472,0.52,-0.71,0.10,0.04,0.02,0.99,
0.472,0.44,-0.74,0.12,0.04,0.02,0.99,
0.474,0.44,-0.74,0.12,0.04,0.02,0.99,
0.477,0.44,-0.74,0.12,0.04,0.02,0.99,
0.477,0.33,-0.74,0.13,0.04,0.02,0.99,
0.479,0.33,-0.74,0.13,0.03,0.01,0.99,
0.481,0.33,-0.74,0.13,0.03,0.02,0.99,
0.481,0.25,-0.74,0.14,0.03,0.02,0.99,
0.484,0.25,-0.74,0.14,0.03,0.02,0.99,
0.486,0.25,-0.74,0.14,0.03,0.02,0.99,
0.486,0.17,-0.73,0.12,0.03,0.02,0.99,
0.495,0.17,-0.73,0.12,0.03,0.02,0.99,
0.496,0.17,-0.73,0.12,0.02,0.02,0.99,
0.496,0.11,-0.71,0.12,0.02,0.02,0.99,
0.496,0.11,-0.71,0.12,0.02,0.02,0.99,
0.497,0.11,-0.71,0.12,0.02,0.02,0.99,
0.497,0.09,-0.68,0.10,0.02,0.02,0.99,
0.498,0.09,-0.68,0.10,0.02,0.02,0.98,
0.501,0.09,-0.68,0.10,0.02,0.02,0.98,
0.501,0.05,-0.65,0.07,0.02,0.02,0.98,
0.503,0.05,-0.65,0.07,0.01,0.02,0.98,
0.507,0.05,-0.65,0.07,0.01,0.03,0.98,
0.507,-0.00,-0.63,0.03,0.01,0.03,0.98,
0.509,-0.00,-0.63,0.03,0.01,0.02,0.98,
0.51,-0.00,-0.63,0.03,0.01,0.03,0.98,
0.511,-0.05,-0.59,0.00,0.01,0.03,0.98,
0.513,-0.05,-0.59,0.00,0.01,0.03,0.98,
0.515,-0.08,-0.58,-0.01,0.01,0.03,0.98,
0.516,-0.08,-0.58,-0.01,0.00,0.03,0.97,
0.518,-0.08,-0.58,-0.01,0.00,0.03,0.97,
0.52,-0.08,-0.58,-0.01,0.00,0.03,0.97,
0.521,-0.14,-0.58,-0.04,0.00,0.03,0.97,
0.523,-0.14,-0.58,-0.04,0.00,0.03,0.97,
0.525,-0.14,-0.58,-0.04,-0.00,0.03,0.97,
0.525,-0.18,-0.54,-0.08,-0.00,0.03,0.97,
0.529,-0.18,-0.54,-0.08,-0.01,0.03,0.97,
0.53,-0.18,-0.54,-0.08,-0.01,0.03,0.97,
0.53,-0.22,-0.52,-0.07,-0.01,0.03,0.97,
0.532,-0.22,-0.52,-0.07,-0.01,0.03,0.97,
0.535,-0.22,-0.52,-0.07,-0.01,0.03,0.97,
0.536,-0.30,-0.49,-0.07,-0.01,0.03,0.97,
0.537,-0.30,-0.49,-0.07,-0.02,0.03,0.97,
0.541,-0.30,-0.49,-0.07,-0.02,0.03,0.97,
0.542,-0.34,-0.48,-0.08,-0.02,0.03,0.97,
0.543,-0.34,-0.48,-0.08,-0.03,0.03,0.97,
0.545,-0.34,-0.48,-0.08,-0.03,0.04,0.98,
0.545,-0.41,-0.46,-0.07,-0.03,0.04,0.98,
0.548,-0.41,-0.46,-0.07,-0.03,0.04,0.98,
0.55,-0.41,-0.46,-0.07,-0.04,0.04,0.98,
0.55,-0.50,-0.43,-0.04,-0.04,0.04,0.98,
0.552,-0.50,-0.43,-0.04,-0.04,0.04,0.98,
0.555,-0.50,-0.43,-0.04,-0.04,0.04,0.98,
0.557,-0.57,-0.41,-0.01,-0.04,0.04,0.98,
0.558,-0.57,-0.41,-0.01,-0.04,0.04,0.98,
0.56,-0.57,-0.41,-0.01,-0.05,0.04,0.98,
0.56,-0.61,-0.36,0.01,-0.05,0.04,0.98,
0.562,-0.61,-0.36,0.01,-0.05,0.04,0.98,
0.565,-0.61,-0.36,0.01,-0.05,0.04,0.99,
0.565,-0.66,-0.35,0.04,-0.05,0.04,0.99,
0.567,-0.66,-0.35,0.04,-0.05,0.04,0.99,
0.57,-0.66,-0.35,0.04,-0.05,0.04,0.99,
0.57,-0.68,-0.33,0.06,-0.05,0.04,0.99,
0.572,-0.68,-0.33,0.06,-0.05,0.04,0.99,
0.574,-0.68,-0.33,0.06,-0.05,0.04,0.99,
0.575,-0.71,-0.32,0.07,-0.05,0.04,0.99,
0.577,-0.71,-0.32,0.07,-0.05,0.04,0.99,
0.579,-0.71,-0.32,0.07,-0.05,0.04,0.99,
0.58,-0.71,-0.30,0.08,-0.05,0.04,0.99,
0.582,-0.71,-0.30,0.08,-0.05,0.05,0.99,
0.584,-0.71,-0.30,0.08,-0.05,0.05,0.99,
0.585,-0.70,-0.30,0.07,-0.05,0.05,0.99,
0.587,-0.70,-0.30,0.07,-0.05,0.05,0.99,
0.596,-0.70,-0.30,0.07,-0.05,0.05,0.98,
0.596,-0.71,-0.27,0.06,-0.05,0.05,0.98,
0.597,-0.71,-0.27,0.06,-0.05,0.05,0.98,
0.597,-0.71,-0.27,0.06,-0.06,0.05,0.98,
0.597,-0.74,-0.24,0.05,-0.06,0.05,0.98,
0.598,-0.74,-0.24,0.05,-0.06,0.04,0.98,
0.599,-0.74,-0.24,0.05,-0.06,0.04,0.98,
0.599,-0.79,-0.24,-0.01,-0.06,0.04,0.98,
0.601,-0.79,-0.24,-0.01,-0.06,0.04,0.97,
0.604,-0.79,-0.24,-0.01,-0.07,0.05,0.97,
0.604,-0.85,-0.25,-0.03,-0.07,0.05,0.97,
0.607,-0.85,-0.25,-0.03,-0.07,0.04,0.97,
0.61,-0.92,-0.23,-0.06,-0.07,0.04,0.97,
0.61,-0.92,-0.23,-0.06,-0.07,0.04,0.97,
0.611,-0.92,-0.23,-0.06,-0.08,0.04,0.97,
0.613,-0.92,-0.23,-0.06,-0.08,0.04,0.96,
0.614,-1.00,-0.24,-0.10,-0.08,0.04,0.96,
0.616,-1.00,-0.24,-0.10,-0.08,0.04,0.96,
0.618,-1.00,-0.24,-0.10,-0.08,0.04,0.96,
0.619,-1.09,-0.24,-0.14,-0.08,0.04,0.96,
0.621,-1.09,-0.24,-0.14,-0.08,0.03,0.95,
0.624,-1.09,-0.24,-0.14,-0.08,0.03,0.95,
0.624,-1.15,-0.24,-0.20,-0.08,0.03,0.95,
0.626,-1.15,-0.24,-0.20,-0.08,0.03,0.95,
0.629,-1.15,-0.24,-0.20,-0.08,0.03,0.95,
0.63,-1.18,-0.25,-0.24,-0.08,0.03,0.95,
0.63,-1.18,-0.25,-0.24,-0.07,0.03,0.95,
0.633,-1.18,-0.25,-0.24,-0.07,0.03,0.95,
0.633,-1.18,-0.25,-0.25,-0.07,0.03,0.95,
0.635,-1.18,-0.25,-0.25,-0.06,0.03,0.95,
0.638,-1.18,-0.25,-0.25,-0.06,0.02,0.95,
0.639,-1.12,-0.27,-0.26,-0.06,0.02,0.95,
0.64,-1.12,-0.27,-0.26,-0.05,0.02,0.95,
0.643,-1.12,-0.27,-0.26,-0.04,0.02,0.95,
0.643,-1.05,-0.28,-0.27,-0.04,0.02,0.95,
0.646,-1.05,-0.28,-0.27,-0.03,0.02,0.95,
0.649,-1.05,-0.28,-0.27,-0.02,0.02,0.95,
0.649,-0.93,-0.30,-0.26,-0.02,0.02,0.95,
0.65,-0.93,-0.30,-0.26,-0.01,0.01,0.95,
0.653,-0.93,-0.30,-0.26,0.01,0.01,0.95,
0.653,-0.74,-0.30,-0.24,0.01,0.01,0.95,
0.655,-0.74,-0.30,-0.24,0.02,0.01,0.96,
0.658,-0.74,-0.30,-0.24,0.03,0.00,0.95,
0.659,-0.52,-0.32,-0.24,0.03,0.00,0.95,
0.66,-0.52,-0.32,-0.24,0.04,-0.00,0.95,
0.663,-0.52,-0.32,-0.24,0.04,-0.00,0.95,
0.663,-0.31,-0.37,-0.22,0.04,-0.00,0.95,
0.665,-0.31,-0.37,-0.22,0.05,-0.01,0.95,
0.667,-0.31,-0.37,-0.22,0.06,-0.01,0.96,
0.668,-0.14,-0.43,-0.22,0.06,-0.01,0.96,
0.67,-0.14,-0.43,-0.22,0.07,-0.01,0.95,
0.673,-0.14,-0.43,-0.22,0.08,-0.02,0.96,
0.674,0.02,-0.50,-0.22,0.08,-0.02,0.96,
0.675,0.02,-0.50,-0.22,0.08,-0.02,0.96,
0.677,0.02,-0.50,-0.22,0.08,-0.02,0.95,
0.678,0.17,-0.52,-0.22,0.08,-0.02,0.95,
0.679,0.17,-0.52,-0.22,0.08,-0.02,0.95,
0.682,0.17,-0.52,-0.22,0.08,-0.02,0.96,
0.682,0.21,-0.58,-0.22,0.08,-0.02,0.96,
0.685,0.21,-0.58,-0.22,0.08,-0.02,0.96,
0.687,0.21,-0.58,-0.22,0.08,-0.01,0.96,
0.687,0.29,-0.58,-0.22,0.08,-0.01,0.96,
0.69,0.29,-0.58,-0.22,0.07,-0.01,0.96,
0.692,0.29,-0.58,-0.22,0.07,-0.00,0.96,
0.693,0.29,-0.50,-0.18,0.07,-0.00,0.96,
0.695,0.29,-0.50,-0.18,0.06,0.00,0.96,
0.697,0.29,-0.50,-0.18,0.05,0.01,0.96,
0.697,0.21,-0.41,-0.16,0.05,0.01,0.96,
0.699,0.21,-0.41,-0.16,0.04,0.01,0.96,
0.702,0.21,-0.41,-0.16,0.03,0.01,0.96,
0.702,0.10,-0.33,-0.14,0.03,0.01,0.96,
0.704,0.10,-0.33,-0.14,0.02,0.01,0.96,
0.713,0.10,-0.33,-0.14,0.00,0.01,0.96,
0.714,-0.11,-0.30,-0.12,0.00,0.01,0.96,
0.714,-0.11,-0.30,-0.12,-0.01,0.02,0.97,
0.714,-0.34,-0.26,-0.12,-0.01,0.02,0.97,
0.715,-0.34,-0.26,-0.12,-0.03,0.02,0.97,
0.715,-0.34,-0.26,-0.12,-0.04,0.02,0.97,
0.716,-0.34,-0.26,-0.12,-0.05,0.02,0.96,
0.717,-0.58,-0.22,-0.10,-0.05,0.02,0.96,
0.719,-0.58,-0.22,-0.10,-0.06,0.02,0.96,
0.722,-0.58,-0.22,-0.10,-0.07,0.03,0.96,
0.722,-0.81,-0.19,-0.11,-0.07,0.03,0.96,
0.726,-0.81,-0.19,-0.11,-0.08,0.03,0.96,
0.727,-0.81,-0.19,-0.11,-0.09,0.03,0.96,
0.727,-1.01,-0.14,-0.13,-0.09,0.03,0.96,
0.729,-1.01,-0.14,-0.13,-0.09,0.04,0.96,
0.731,-1.01,-0.14,-0.13,-0.10,0.04,0.96,
0.731,-1.15,-0.08,-0.14,-0.10,0.04,0.96,
0.733,-1.15,-0.08,-0.14,-0.10,0.04,0.96,
0.736,-1.24,-0.02,-0.17,-0.10,0.04,0.96,
0.736,-1.24,-0.02,-0.17,-0.10,0.04,0.96,
0.738,-1.24,-0.02,-0.17,-0.10,0.04,0.96,
0.741,-1.24,-0.02,-0.17,-0.10,0.04,0.96,
0.742,-1.31,0.03,-0.17,-0.10,0.04,0.96,
0.743,-1.31,0.03,-0.17,-0.10,0.05,0.96,
0.746,-1.31,0.03,-0.17,-0.10,0.04,0.96,
0.746,-1.30,0.07,-0.17,-0.10,0.04,0.96,
0.749,-1.30,0.07,-0.17,-0.10,0.04,0.96,
0.751,-1.30,0.07,-0.17,-0.10,0.04,0.97,
0.751,-1.28,0.09,-0.15,-0.10,0.04,0.97,
0.753,-1.28,0.09,-0.15,-0.10,0.04,0.97,
0.757,-1.28,0.09,-0.15,-0.09,0.04,0.97,
0.758,-1.25,0.08,-0.11,-0.09,0.04,0.97,
0.758,-1.25,0.08,-0.11,-0.09,0.03,0.97,
0.761,-1.25,0.08,-0.11,-0.08,0.03,0.97,
0.761,-1.17,0.05,-0.08,-0.08,0.03,0.97,
0.763,-1.17,0.05,-0.08,-0.08,0.03,0.98,
0.765,-1.17,0.05,-0.08,-0.07,0.02,0.98,
0.765,-1.09,-0.00,-0.04,-0.07,0.02,0.98,
0.769,-1.09,-0.00,-0.04,-0.07,0.02,0.98,
0.77,-1.09,-0.00,-0.04,-0.06,0.02,0.98,
0.77,-0.97,-0.05,0.01,-0.06,0.02,0.98,
0.773,-0.97,-0.05,0.01,-0.06,0.02,0.99,
0.775,-0.97,-0.05,0.01,-0.05,0.01,0.99,
0.776,-0.87,-0.09,0.05,-0.05,0.01,0.99,
0.777,-0.87,-0.09,0.05,-0.04,0.01,0.99,
0.78,-0.87,-0.09,0.05,-0.04,0.01,0.99,
0.78,-0.75,-0.11,0.11,-0.04,0.01,0.99,
0.782,-0.75,-0.11,0.11,-0.03,0.01,1.00,
0.785,-0.75,-0.11,0.11,-0.03,0.00,1.00,
0.785,-0.62,-0.16,0.15,-0.03,0.00,1.00,
0.787,-0.62,-0.16,0.15,-0.03,0.00,1.00,
0.79,-0.62,-0.16,0.15,-0.02,0.00,1.00,
0.791,-0.51,-0.18,0.21,-0.02,0.00,1.00,
0.792,-0.51,-0.18,0.21,-0.02,0.00,1.00,
0.795,-0.51,-0.18,0.21,-0.02,0.00,1.00,
0.795,-0.45,-0.19,0.23,-0.02,0.00,1.00,
0.797,-0.45,-0.19,0.23,-0.02,0.00,1.00,
0.8,-0.38,-0.16,0.25,-0.02,0.00,1.00,
0.8,-0.38,-0.16,0.25,-0.02,0.00,1.00,
0.802,-0.38,-0.16,0.25,-0.02,0.00,1.00,
0.805,-0.39,-0.13,0.24,-0.02,0.00,1.00,
0.805,-0.39,-0.13,0.24,-0.02,-0.00,1.00,
0.811,-0.39,-0.13,0.24,-0.03,-0.00,1.00,
0.812,-0.41,-0.16,0.22,-0.03,-0.00,1.00,
0.812,-0.41,-0.16,0.22,-0.03,-0.00,1.00,
0.812,-0.41,-0.16,0.22,-0.04,-0.01,1.00,
0.814,-0.41,-0.16,0.22,-0.04,-0.01,1.00,
0.814,-0.48,-0.18,0.22,-0.04,-0.01,1.00,
0.816,-0.48,-0.18,0.22,-0.05,-0.01,1.00,
0.819,-0.48,-0.18,0.22,-0.05,-0.01,1.00,
0.819,-0.57,-0.20,0.21,-0.05,-0.01,1.00,
0.821,-0.57,-0.20,0.21,-0.06,-0.01,1.00,
0.824,-0.57,-0.20,0.21,-0.06,-0.01,1.00,
0.824,-0.67,-0.22,0.19,-0.06,-0.01,1.00,
0.827,-0.67,-0.22,0.19,-0.07,-0.01,1.00,
0.829,-0.67,-0.22,0.19,-0.08,-0.01,1.00,
0.83,-0.77,-0.22,0.19,-0.08,-0.01,1.00,
0.831,-0.77,-0.22,0.19,-0.08,-0.01,1.00,
0.834,-0.89,-0.21,0.21,-0.08,-0.01,1.00,
0.834,-0.89,-0.21,0.21,-0.09,-0.01,1.00,
0.836,-0.89,-0.21,0.21,-0.09,-0.01,1.01,
0.839,-0.89,-0.21,0.21,-0.10,-0.01,1.01,
0.839,-1.00,-0.18,0.24,-0.10,-0.01,1.01,
0.841,-1.00,-0.18,0.24,-0.10,-0.00,1.01,
0.844,-1.00,-0.18,0.24,-0.11,-0.00,1.02,
0.844,-1.08,-0.13,0.29,-0.11,-0.00,1.02,
0.846,-1.08,-0.13,0.29,-0.11,0.00,1.02,
0.849,-1.08,-0.13,0.29,-0.11,0.00,1.02,
0.85,-1.17,-0.06,0.36,-0.11,0.00,1.02,
0.851,-1.17,-0.06,0.36,-0.12,0.00,1.03,
0.853,-1.17,-0.06,0.36,-0.12,0.01,1.03,
0.853,-1.21,-0.01,0.42,-0.12,0.01,1.03,
0.856,-1.21,-0.01,0.42,-0.12,0.01,1.03,
0.858,-1.25,0.02,0.47,-0.12,0.01,1.03,
0.859,-1.25,0.02,0.47,-0.12,0.00,1.03,
0.861,-1.25,0.02,0.47,-0.12,-0.00,1.03,
0.863,-1.25,0.02,0.47,-0.12,-0.00,1.03,
0.863,-1.27,0.02,0.48,-0.12,-0.00,1.03,
0.866,-1.27,0.02,0.48,-0.12,-0.01,1.03,
0.869,-1.27,0.02,0.48,-0.11,-0.01,1.03,
0.87,-1.24,-0.04,0.49,-0.11,-0.01,1.03,
0.871,-1.24,-0.04,0.49,-0.11,-0.02,1.03,
0.873,-1.24,-0.04,0.49,-0.10,-0.02,1.02,
0.874,-1.17,-0.12,0.46,-0.10,-0.02,1.02,
0.875,-1.17,-0.12,0.46,-0.09,-0.02,1.02,
0.878,-1.17,-0.12,0.46,-0.08,-0.02,1.02,
0.879,-1.04,-0.17,0.42,-0.08,-0.02,1.02,
0.88,-1.04,-0.17,0.42,-0.07,-0.02,1.01,
0.883,-0.85,-0.20,0.37,-0.07,-0.02,1.01,
0.883,-0.85,-0.20,0.37,-0.06,-0.02,1.01,
0.885,-0.85,-0.20,0.37,-0.05,-0.02,1.01,
0.895,-0.85,-0.20,0.37,-0.04,-0.02,1.00,
0.895,-0.65,-0.20,0.29,-0.04,-0.02,1.00,
0.896,-0.65,-0.20,0.29,-0.03,-0.03,1.00,
0.896,-0.65,-0.20,0.29,-0.02,-0.03,0.99,
0.896,-0.45,-0.18,0.21,-0.02,-0.03,0.99,
0.896,-0.45,-0.18,0.21,-0.02,-0.03,0.99,
0.897,-0.45,-0.18,0.21,-0.02,-0.03,0.99,
0.898,-0.29,-0.22,0.13,-0.02,-0.03,0.99,
0.9,-0.29,-0.22,0.13,-0.02,-0.04,0.98,
0.902,-0.29,-0.22,0.13,-0.02,-0.04,0.98,
0.902,-0.21,-0.25,0.07,-0.02,-0.04,0.98,
0.904,-0.21,-0.25,0.07,-0.02,-0.03,0.98,
0.907,-0.21,-0.25,0.07,-0.02,-0.03,0.98,
0.908,-0.23,-0.28,0.02,-0.02,-0.03,0.98,
0.91,-0.23,-0.28,0.02,-0.02,-0.02,0.98,
0.912,-0.23,-0.28,0.02,-0.03,-0.02,0.98,
0.912,-0.27,-0.20,-0.01,-0.03,-0.02,0.98,
0.914,-0.27,-0.20,-0.01,-0.03,-0.02,0.98,
0.917,-0.27,-0.20,-0.01,-0.03,-0.01,0.97,
0.917,-0.30,-0.11,-0.04,-0.03,-0.01,0.97,
0.919,-0.30,-0.11,-0.04,-0.03,-0.00,0.97,
0.922,-0.30,-0.11,-0.04,-0.04,0.00,0.97,
0.923,-0.37,0.01,-0.08,-0.04,0.00,0.97,
0.924,-0.37,0.01,-0.08,-0.05,0.00,0.97,
0.927,-0.37,0.01,-0.08,-0.05,0.01,0.97,
0.928,-0.45,0.13,-0.10,-0.05,0.01,0.97,
0.93,-0.45,0.13,-0.10,-0.05,0.01,0.97,
0.932,-0.56,0.20,-0.13,-0.05,0.01,0.97,
0.932,-0.56,0.20,-0.13,-0.06,0.01,0.97,
0.934,-0.56,0.20,-0.13,-0.06,0.01,0.97,
0.937,-0.56,0.20,-0.13,-0.07,0.01,0.98,
0.937,-0.65,0.26,-0.11,-0.07,0.01,0.98,
0.939,-0.65,0.26,-0.11,-0.08,0.01,0.97,
0.942,-0.65,0.26,-0.11,-0.08,0.01,0.98,
0.942,-0.78,0.30,-0.07,-0.08,0.01,0.98,
0.944,-0.78,0.30,-0.07,-0.09,0.01,0.98,
0.947,-0.78,0.30,-0.07,-0.09,0.02,0.98,
0.947,-0.88,0.32,-0.06,-0.09,0.02,0.98,
0.949,-0.88,0.32,-0.06,-0.09,0.02,0.98,
0.951,-0.88,0.32,-0.06,-0.09,0.02,0.98,
0.952,-0.97,0.37,-0.02,-0.09,0.02,0.98,
0.954,-0.97,0.37,-0.02,-0.10,0.02,0.99,
0.957,-0.97,0.37,-0.02,-0.10,0.03,0.99,
0.958,-1.00,0.43,0.01,-0.10,0.03,0.99,
0.959,-1.00,0.43,0.01,-0.10,0.03,0.99,
0.962,-1.00,0.43,0.01,-0.10,0.03,0.99,
0.963,-1.02,0.49,0.06,-0.10,0.03,0.99,
0.964,-1.02,0.49,0.06,-0.11,0.03,1.00,
0.966,-1.02,0.49,0.06,-0.11,0.03,1.00,
0.966,-1.05,0.54,0.12,-0.11,0.03,1.00,
0.97,-1.05,0.54,0.12,-0.11,0.03,1.00,
0.971,-1.05,0.54,0.12,-0.11,0.03,1.00,
0.971,-1.10,0.56,0.15,-0.11,0.03,1.00,
0.973,-1.10,0.56,0.15,-0.11,0.03,1.00,
0.976,-1.10,0.56,0.15,-0.11,0.03,1.00,
0.976,-1.12,0.53,0.16,-0.11,0.03,1.00,
0.978,-1.12,0.53,0.16,-0.11,0.03,1.00,
0.981,-1.12,0.53,0.16,-0.11,0.03,1.00,
0.981,-1.13,0.52,0.15,-0.11,0.03,1.00,
0.983,-1.13,0.52,0.15,-0.11,0.03,1.00,
0.986,-1.13,0.52,0.15,-0.11,0.03,0.99,
0.986,-1.12,0.52,0.14,-0.11,0.03,0.99,
0.994,-1.12,0.52,0.14,-0.11,0.04,0.99,
0.995,-1.12,0.52,0.14,-0.10,0.04,0.99,
0.995,-1.08,0.58,0.11,-0.10,0.04,0.99,
0.996,-1.08,0.58,0.11,-0.10,0.04,0.98,
0.996,-1.08,0.58,0.11,-0.10,0.05,0.98,
0.996,-1.04,0.66,0.05,-0.10,0.05,0.98,
0.998,-1.04,0.66,0.05,-0.09,0.05,0.98,
1.0,-1.04,0.66,0.05,-0.09,0.06,0.98,
1.001,-0.99,0.74,-0.00,-0.09,0.06,0.98,
1.003,-0.99,0.74,-0.00,-0.08,0.06,0.98,
1.008,-0.89,0.84,-0.03,-0.08,0.06,0.98,
1.008,-0.89,0.84,-0.03,-0.08,0.07,0.98,
1.009,-0.89,0.84,-0.03,-0.07,0.07,0.98,
1.01,-0.89,0.84,-0.03,-0.07,0.08,0.98,
1.01,-0.80,0.95,0.00,-0.07,0.08,0.98,
1.012,-0.80,0.95,0.00,-0.07,0.08,0.99,
1.015,-0.80,0.95,0.00,-0.06,0.08,0.99,
1.015,-0.73,1.04,0.01,-0.06,0.08,0.99,
1.017,-0.73,1.04,0.01,-0.06,0.08,0.99,
1.02,-0.73,1.04,0.01,-0.06,0.09,0.99,
1.02,-0.68,1.11,0.06,-0.06,0.09,0.99,
1.022,-0.68,1.11,0.06,-0.06,0.09,1.00,
1.025,-0.68,1.11,0.06,-0.06,0.08,1.00,
1.025,-0.66,1.16,0.09,-0.06,0.08,1.00,
1.027,-0.66,1.16,0.09,-0.06,0.08,1.00,
1.03,-0.66,1.16,0.09,-0.06,0.08,1.00,
1.03,-0.64,1.17,0.14,-0.06,0.08,1.00,
1.032,-0.64,1.17,0.14,-0.06,0.08,1.00,
1.035,-0.64,1.17,0.14,-0.06,0.08,1.00,
1.035,-0.61,1.16,0.19,-0.06,0.08,1.00,
1.037,-0.61,1.16,0.19,-0.06,0.07,1.00,
1.04,-0.61,1.16,0.19,-0.05,0.07,1.00,
1.04,-0.62,1.13,0.21,-0.05,0.07,1.00,
1.042,-0.62,1.13,0.21,-0.05,0.06,1.00,
1.045,-0.62,1.13,0.21,-0.05,0.06,1.01,
1.05,-0.61,1.04,0.21,-0.05,0.06,1.01,
1.05,-0.61,1.04,0.21,-0.04,0.06,1.00,
1.051,-0.61,1.04,0.21,-0.04,0.05,1.00,
1.052,-0.55,0.98,0.22,-0.04,0.05,1.00,
1.052,-0.55,0.98,0.22,-0.03,0.05,1.00,
1.054,-0.55,0.98,0.22,-0.02,0.05,1.00,
1.055,-0.46,0.91,0.19,-0.02,0.05,1.00,
1.057,-0.46,0.91,0.19,-0.02,0.05,1.00,
1.059,-0.46,0.91,0.19,-0.01,0.04,0.99,
1.06,-0.36,0.86,0.16,-0.01,0.04,0.99,
1.061,-0.36,0.86,0.16,-0.01,0.04,0.99,
1.064,-0.36,0.86,0.16,-0.00,0.05,0.99,
1.064,-0.26,0.84,0.13,-0.00,0.05,0.99,
1.067,-0.26,0.84,0.13,0.00,0.05,0.99,
1.07,-0.26,0.84,0.13,0.00,0.05,0.99,
1.07,-0.17,0.85,0.11,0.00,0.05,0.99,
1.072,-0.17,0.85,0.11,0.01,0.05,0.99,
1.074,-0.17,0.85,0.11,0.01,0.05,0.99,
1.074,-0.10,0.87,0.08,0.01,0.05,0.99,
1.076,-0.10,0.87,0.08,0.01,0.05,0.99,
1.079,-0.10,0.87,0.08,0.01,0.06,0.99,
1.079,-0.05,0.90,0.05,0.01,0.06,0.99,
1.081,-0.05,0.90,0.05,0.00,0.06,0.99,
1.084,-0.05,0.90,0.05,0.00,0.07,0.99,
1.084,-0.07,0.96,0.06,0.00,0.07,0.99,
1.086,-0.07,0.96,0.06,-0.00,0.08,1.00,
1.09,-0.07,0.96,0.06,-0.00,0.08,1.00,
1.091,-0.13,1.06,0.10,-0.00,0.08,1.00,
1.091,-0.13,1.06,0.10,-0.01,0.09,1.00,
1.094,-0.13,1.06,0.10,-0.02,0.09,1.01,
1.094,-0.19,1.19,0.15,-0.02,0.09,1.01,
1.096,-0.19,1.19,0.15,-0.02,0.09,1.01,
1.098,-0.19,1.19,0.15,-0.03,0.09,1.02,
1.099,-0.27,1.29,0.22,-0.03,0.09,1.02,
1.101,-0.27,1.29,0.22,-0.04,0.09,1.03,
1.104,-0.40,1.35,0.34,-0.04,0.09,1.03,
1.104,-0.40,1.35,0.34,-0.05,0.10,1.04,
1.111,-0.40,1.35,0.34,-0.05,0.10,1.04,
1.112,-0.40,1.35,0.34,-0.06,0.09,1.05,
1.112,-0.55,1.35,0.47,-0.06,0.09,1.05,
1.112,-0.55,1.35,0.47,-0.07,0.09,1.06,
1.113,-0.55,1.35,0.47,-0.07,0.09,1.06,
1.113,-0.67,1.35,0.60,-0.07,0.09,1.06,
1.115,-0.67,1.35,0.60,-0.08,0.09,1.07,
1.118,-0.67,1.35,0.60,-0.08,0.09,1.07,
1.118,-0.78,1.29,0.71,-0.08,0.09,1.07,
1.12,-0.78,1.29,0.71,-0.09,0.09,1.07,
1.125,-0.78,1.29,0.71,-0.09,0.08,1.08,
1.125,-0.88,1.25,0.81,-0.09,0.08,1.08,
1.125,-0.88,1.25,0.81,-0.09,0.09,1.08,
1.129,-0.88,1.25,0.81,-0.09,0.08,1.08,
1.129,-0.93,1.21,0.87,-0.09,0.08,1.08,
1.13,-0.93,1.21,0.87,-0.09,0.08,1.08,
1.132,-0.93,1.21,0.87,-0.09,0.09,1.08,
1.133,-0.94,1.19,0.92,-0.09,0.09,1.08,
1.135,-0.94,1.19,0.92,-0.09,0.09,1.08,
1.138,-0.94,1.19,0.92,-0.09,0.09,1.07,
1.138,-0.90,1.17,0.92,-0.09,0.09,1.07,
1.14,-0.90,1.17,0.92,-0.08,0.09,1.07,
1.143,-0.90,1.17,0.92,-0.08,0.08,1.06,
1.143,-0.84,1.15,0.85,-0.08,0.08,1.06,
1.145,-0.84,1.15,0.85,-0.07,0.08,1.06,
1.147,-0.84,1.15,0.85,-0.06,0.08,1.05,
1.147,-0.74,1.13,0.75,-0.06,0.08,1.05,
1.149,-0.74,1.13,0.75,-0.05,0.08,1.04,
1.152,-0.74,1.13,0.75,-0.05,0.07,1.03,
1.152,-0.59,1.05,0.60,-0.05,0.07,1.03,
1.155,-0.59,1.05,0.60,-0.04,0.07,1.02,
1.157,-0.59,1.05,0.60,-0.03,0.07,1.01,
1.157,-0.43,0.98,0.42,-0.03,0.07,1.01,
1.159,-0.43,0.98,0.42,-0.02,0.07,1.01,
1.162,-0.43,0.98,0.42,-0.01,0.07,1.00,
1.162,-0.27,0.95,0.26,-0.01,0.07,1.00,
1.164,-0.27,0.95,0.26,-0.00,0.07,0.99,
1.167,-0.27,0.95,0.26,0.01,0.07,0.99,
1.167,-0.08,0.92,0.12,0.01,0.07,0.99,
1.17,-0.08,0.92,0.12,0.02,0.07,0.99,
1.172,-0.08,0.92,0.12,0.03,0.07,0.99,
1.173,0.07,0.91,0.02,0.03,0.07,0.99,
1.174,0.07,0.91,0.02,0.03,0.08,0.99,
1.177,0.25,0.91,-0.02,0.03,0.08,0.99,
1.177,0.25,0.91,-0.02,0.04,0.08,0.99,
1.179,0.25,0.91,-0.02,0.05,0.07,0.98,
1.182,0.25,0.91,-0.02,0.06,0.07,0.98,
1.182,0.40,0.91,-0.04,0.06,0.07,0.98,
1.184,0.40,0.91,-0.04,0.06,0.07,0.98,
1.187,0.40,0.91,-0.04,0.07,0.07,0.98,
1.187,0.55,0.90,-0.07,0.07,0.07,0.98,
1.189,0.55,0.90,-0.07,0.08,0.07,0.99,
1.191,0.55,0.90,-0.07,0.08,0.07,0.99,
1.192,0.67,0.88,-0.06,0.08,0.07,0.99,
1.194,0.67,0.88,-0.06,0.08,0.07,0.99,
1.196,0.67,0.88,-0.06,0.09,0.07,0.99,
1.196,0.76,0.87,-0.03,0.09,0.07,0.99,
1.198,0.76,0.87,-0.03,0.09,0.07,1.00,
1.201,0.76,0.87,-0.03,0.09,0.07,1.00,
1.201,0.82,0.85,0.02,0.09,0.07,1.00,
1.204,0.82,0.85,0.02,0.09,0.07,1.01,
1.211,0.82,0.85,0.02,0.08,0.07,1.01,
1.211,0.84,0.84,0.08,0.08,0.07,1.01,
1.213,0.84,0.84,0.08,0.08,0.06,1.02,
1.214,0.84,0.84,0.08,0.08,0.06,1.02,
1.214,0.82,0.80,0.18,0.08,0.06,1.02,
1.214,0.82,0.80,0.18,0.07,0.06,1.03,
1.216,0.82,0.80,0.18,0.06,0.06,1.04,
1.216,0.79,0.78,0.28,0.06,0.06,1.04,
1.218,0.79,0.78,0.28,0.05,0.06,1.05,
1.222,0.79,0.78,0.28,0.05,0.06,1.05,
1.222,0.67,0.76,0.42,0.05,0.06,1.05,
1.223,0.67,0.76,0.42,0.04,0.06,1.06,
1.226,0.67,0.76,0.42,0.03,0.07,1.07,
1.226,0.53,0.73,0.57,0.03,0.07,1.07,
1.229,0.53,0.73,0.57,0.03,0.07,1.07,
1.23,0.53,0.73,0.57,0.02,0.07,1.08,
1.231,0.40,0.76,0.69,0.02,0.07,1.08,
1.233,0.40,0.76,0.69,0.02,0.07,1.08,
1.235,0.40,0.76,0.69,0.01,0.07,1.08,
1.235,0.29,0.79,0.79,0.01,0.07,1.08,
1.238,0.29,0.79,0.79,0.01,0.07,1.08,
1.24,0.29,0.79,0.79,0.00,0.07,1.08,
1.241,0.21,0.79,0.81,0.00,0.07,1.08,
1.243,0.21,0.79,0.81,-0.00,0.07,1.07,
1.245,0.21,0.79,0.81,-0.01,0.07,1.07,
1.245,0.12,0.76,0.80,-0.01,0.07,1.07,
1.247,0.12,0.76,0.80,-0.01,0.07,1.06,
1.25,0.12,0.76,0.80,-0.01,0.07,1.05,
1.25,0.05,0.74,0.73,-0.01,0.07,1.05,
1.252,0.05,0.74,0.73,-0.01,0.07,1.04,
1.255,0.05,0.74,0.73,-0.01,0.07,1.04,
1.255,0.03,0.71,0.59,-0.01,0.07,1.04,
1.257,0.03,0.71,0.59,-0.01,0.07,1.03,
1.26,0.03,0.71,0.59,-0.01,0.07,1.02,
1.26,0.01,0.68,0.43,-0.01,0.07,1.02,
1.262,0.01,0.68,0.43,-0.01,0.07,1.01,
1.264,0.01,0.68,0.43,-0.00,0.07,1.00,
1.265,0.01,0.64,0.27,-0.00,0.07,1.00,
1.267,0.01,0.64,0.27,0.00,0.07,0.99,
1.269,0.01,0.64,0.27,0.01,0.07,0.98,
1.27,0.09,0.63,0.10,0.01,0.07,0.98,
1.272,0.09,0.63,0.10,0.01,0.07,0.97,
1.274,0.09,0.63,0.10,0.02,0.07,0.96,
1.275,0.17,0.60,-0.10,0.02,0.07,0.96,
1.277,0.17,0.60,-0.10,0.02,0.06,0.96,
1.279,0.17,0.60,-0.10,0.03,0.06,0.95,
1.279,0.29,0.57,-0.26,0.03,0.06,0.95,
1.282,0.29,0.57,-0.26,0.04,0.06,0.95,
1.284,0.29,0.57,-0.26,0.04,0.06,0.94,
1.285,0.40,0.52,-0.39,0.04,0.06,0.94,
1.287,0.40,0.52,-0.39,0.05,0.06,0.94,
1.294,0.40,0.52,-0.39,0.05,0.06,0.94,
1.295,0.53,0.49,-0.48,0.05,0.06,0.94,
1.295,0.53,0.49,-0.48,0.06,0.05,0.94,
1.295,0.53,0.49,-0.48,0.06,0.05,0.94,
1.295,0.65,0.44,-0.52,0.06,0.05,0.94,
1.296,0.65,0.44,-0.52,0.06,0.05,0.94,
1.299,0.75,0.39,-0.55,0.06,0.05,0.94,
1.3,0.75,0.39,-0.55,0.07,0.05,0.94,
1.301,0.75,0.39,-0.55,0.07,0.04,0.94,
1.307,0.75,0.39,-0.55,0.07,0.04,0.95,
1.307,0.80,0.34,-0.52,0.07,0.04,0.95,
1.307,0.80,0.34,-0.52,0.07,0.04,0.95,
1.31,0.80,0.34,-0.52,0.07,0.04,0.96,
1.31,0.83,0.28,-0.47,0.07,0.04,0.96,
1.311,0.83,0.28,-0.47,0.07,0.04,0.96,
1.314,0.83,0.28,-0.47,0.06,0.04,0.97,
1.314,0.86,0.25,-0.36,0.06,0.04,0.97,
1.316,0.86,0.25,-0.36,0.06,0.05,0.97,
1.318,0.86,0.25,-0.36,0.05,0.05,0.98,
1.319,0.81,0.26,-0.26,0.05,0.05,0.98,
1.321,0.81,0.26,-0.26,0.05,0.05,0.98,
1.324,0.81,0.26,-0.26,0.04,0.05,0.99,
1.324,0.74,0.30,-0.17,0.04,0.05,0.99,
1.326,0.74,0.30,-0.17,0.03,0.05,0.99,
1.33,0.74,0.30,-0.17,0.02,0.06,1.00,
1.33,0.63,0.32,-0.08,0.02,0.06,1.00,
1.331,0.63,0.32,-0.08,0.02,0.06,1.00,
1.333,0.63,0.32,-0.08,0.01,0.07,1.00,
1.333,0.49,0.39,0.01,0.01,0.07,1.00,
1.335,0.49,0.39,0.01,0.00,0.07,1.00,
1.338,0.49,0.39,0.01,-0.01,0.07,1.01,
1.339,0.32,0.45,0.08,-0.01,0.07,1.01,
1.341,0.32,0.45,0.08,-0.02,0.08,1.01,
1.343,0.32,0.45,0.08,-0.03,0.08,1.01,
1.343,0.16,0.53,0.13,-0.03,0.08,1.01,
1.345,0.16,0.53,0.13,-0.03,0.09,1.01,
1.349,0.16,0.53,0.13,-0.04,0.09,1.01,
1.35,-0.02,0.62,0.16,-0.04,0.09,1.01,
1.35,-0.02,0.62,0.16,-0.04,0.10,1.01,
1.353,-0.02,0.62,0.16,-0.05,0.10,1.01,
1.353,-0.14,0.71,0.18,-0.05,0.10,1.01,
1.355,-0.14,0.71,0.18,-0.05,0.10,1.01,
1.358,-0.14,0.71,0.18,-0.05,0.10,1.01,
1.359,-0.25,0.78,0.17,-0.05,0.10,1.01,
1.36,-0.25,0.78,0.17,-0.05,0.11,1.01,
1.363,-0.25,0.78,0.17,-0.05,0.11,1.00,
1.363,-0.33,0.82,0.14,-0.05,0.11,1.00,
1.365,-0.33,0.82,0.14,-0.05,0.11,1.00,
1.367,-0.33,0.82,0.14,-0.05,0.11,1.00,
1.368,-0.32,0.87,0.12,-0.05,0.11,1.00,
1.37,-0.32,0.87,0.12,-0.04,0.11,1.00,
1.373,-0.32,0.87,0.12,-0.04,0.11,0.99,
1.373,-0.28,0.91,0.08,-0.04,0.11,0.99,
1.375,-0.28,0.91,0.08,-0.03,0.11,0.99,
1.377,-0.28,0.91,0.08,-0.02,0.11,0.99,
1.378,-0.18,0.88,0.02,-0.02,0.11,0.99,
1.38,-0.18,0.88,0.02,-0.01,0.11,0.99,
1.382,-0.18,0.88,0.02,-0.01,0.11,0.98,
1.382,-0.05,0.86,-0.03,-0.01,0.11,0.98,
1.384,-0.05,0.86,-0.03,0.00,0.11,0.98,
1.394,-0.05,0.86,-0.03,0.01,0.10,0.98,
1.394,0.12,0.83,-0.06,0.01,0.10,0.98,
1.395,0.12,0.83,-0.06,0.02,0.10,0.98,
1.395,0.12,0.83,-0.06,0.03,0.10,0.98,
1.395,0.29,0.75,-0.10,0.03,0.10,0.98,
1.395,0.29,0.75,-0.10,0.03,0.10,0.98,
1.397,0.29,0.75,-0.10,0.04,0.10,0.98,
1.397,0.48,0.69,-0.14,0.04,0.10,0.98,
1.399,0.48,0.69,-0.14,0.04,0.09,0.98,
1.402,0.48,0.69,-0.14,0.05,0.09,0.98,
1.402,0.62,0.64,-0.16,0.05,0.09,0.98,
1.404,0.62,0.64,-0.16,0.05,0.09,0.98,
1.407,0.62,0.64,-0.16,0.05,0.09,0.98,
1.407,0.75,0.57,-0.13,0.05,0.09,0.98,
1.41,0.75,0.57,-0.13,0.05,0.08,0.98,
1.411,0.75,0.57,-0.13,0.05,0.08,0.99,
1.412,0.82,0.49,-0.10,0.05,0.08,0.99,
1.414,0.82,0.49,-0.10,0.05,0.08,0.99,
1.416,0.82,0.49,-0.10,0.05,0.07,0.99,
1.417,0.86,0.42,-0.07,0.05,0.07,0.99,
1.419,0.86,0.42,-0.07,0.05,0.07,0.99,
1.421,0.86,0.42,-0.07,0.05,0.07,0.99,
1.422,0.87,0.33,-0.05,0.05,0.07,0.99,
1.424,0.87,0.33,-0.05,0.05,0.07,0.99,
1.427,0.87,0.33,-0.05,0.05,0.06,0.99,
1.427,0.87,0.25,-0.01,0.05,0.06,0.99,
1.43,0.87,0.25,-0.01,0.05,0.06,0.99,
1.431,0.87,0.25,-0.01,0.04,0.06,0.99,
1.431,0.87,0.19,0.01,0.04,0.06,0.99,
1.433,0.87,0.19,0.01,0.04,0.06,0.99,
1.436,0.87,0.19,0.01,0.04,0.06,0.99,
1.436,0.84,0.15,-0.02,0.04,0.06,0.99,
1.439,0.84,0.15,-0.02,0.04,0.06,0.99,
1.441,0.84,0.15,-0.02,0.05,0.07,0.99,
1.441,0.80,0.15,-0.01,0.05,0.07,0.99,
1.444,0.80,0.15,-0.01,0.05,0.07,0.99,
1.446,0.82,0.18,-0.02,0.05,0.07,0.99,
1.446,0.82,0.18,-0.02,0.05,0.07,0.98,
1.449,0.82,0.18,-0.02,0.06,0.07,0.98,
1.451,0.82,0.18,-0.02,0.06,0.08,0.98,
1.451,0.85,0.25,-0.06,0.06,0.08,0.98,
1.454,0.85,0.25,-0.06,0.06,0.08,0.98,
1.456,0.85,0.25,-0.06,0.06,0.08,0.98,
1.456,0.92,0.26,-0.07,0.06,0.08,0.98,
1.458,0.92,0.26,-0.07,0.07,0.08,0.98,
1.461,0.92,0.26,-0.07,0.07,0.08,0.98,
1.461,0.96,0.29,-0.07,0.07,0.08,0.98,
1.463,0.96,0.29,-0.07,0.08,0.07,0.98,
1.465,0.96,0.29,-0.07,0.09,0.07,0.98,
1.466,1.03,0.29,-0.10,0.09,0.07,0.98,
1.469,1.03,0.29,-0.10,0.09,0.07,0.98,
1.471,1.03,0.29,-0.10,0.10,0.07,0.98,
1.472,1.14,0.24,-0.13,0.10,0.07,0.98,
1.473,1.14,0.24,-0.13,0.10,0.07,0.97,
1.475,1.14,0.24,-0.13,0.11,0.07,0.97,
1.476,1.25,0.20,-0.15,0.11,0.07,0.97,
1.478,1.25,0.20,-0.15,0.12,0.06,0.97,
1.48,1.25,0.20,-0.15,0.12,0.06,0.97,
1.48,1.34,0.18,-0.15,0.12,0.06,0.97,
1.483,1.34,0.18,-0.15,0.12,0.06,0.97,
1.485,1.34,0.18,-0.15,0.13,0.06,0.97,
1.486,1.45,0.12,-0.16,0.13,0.06,0.97,
1.488,1.45,0.12,-0.16,0.13,0.05,0.98,
1.49,1.45,0.12,-0.16,0.13,0.05,0.98,
1.491,1.53,0.07,-0.15,0.13,0.05,0.98,
1.492,1.53,0.07,-0.15,0.13,0.05,0.98,
1.495,1.53,0.07,-0.15,0.13,0.05,0.98,
1.495,1.58,0.01,-0.12,0.13,0.05,0.98,
1.497,1.58,0.01,-0.12,0.13,0.05,0.98,
1.5,1.58,0.01,-0.12,0.13,0.04,0.98,
1.5,1.60,-0.03,-0.13,0.13,0.04,0.98,
1.502,1.60,-0.03,-0.13,0.13,0.04,0.98,
1.51,1.60,-0.03,-0.13,0.13,0.04,0.98,
1.511,1.59,-0.09,-0.11,0.13,0.04,0.98,
1.511,1.59,-0.09,-0.11,0.13,0.04,0.98,
1.511,1.59,-0.09,-0.11,0.13,0.04,0.99,
1.512,1.58,-0.13,-0.08,0.13,0.04,0.99,
1.512,1.58,-0.13,-0.08,0.12,0.04,0.99,
1.514,1.58,-0.13,-0.08,0.12,0.04,0.99,
1.514,1.55,-0.15,-0.04,0.12,0.04,0.99,
1.517,1.55,-0.15,-0.04,0.12,0.04,1.00,
1.519,1.55,-0.15,-0.04,0.12,0.05,1.00,
1.519,1.51,-0.17,0.02,0.12,0.05,1.00,
1.522,1.51,-0.17,0.02,0.12,0.04,1.00,
1.524,1.51,-0.17,0.02,0.12,0.04,1.01,
1.524,1.47,-0.15,0.09,0.12,0.04,1.01,
1.527,1.47,-0.15,0.09,0.11,0.05,1.01,
1.53,1.47,-0.15,0.09,0.11,0.05,1.01,
1.53,1.45,-0.16,0.15,0.11,0.05,1.01,
1.531,1.45,-0.16,0.15,0.11,0.05,1.02,
1.534,1.45,-0.16,0.15,0.11,0.05,1.02,
1.535,1.40,-0.14,0.23,0.11,0.05,1.02,
1.537,1.40,-0.14,0.23,0.10,0.05,1.02,
1.539,1.40,-0.14,0.23,0.10,0.05,1.02,
1.539,1.34,-0.14,0.28,0.10,0.05,1.02,
1.541,1.34,-0.14,0.28,0.10,0.05,1.02,
1.544,1.26,-0.15,0.29,0.10,0.05,1.02,
1.544,1.26,-0.15,0.29,0.10,0.05,1.01,
1.546,1.26,-0.15,0.29,0.10,0.06,1.01,
1.549,1.26,-0.15,0.29,0.10,0.06,1.01,
1.55,1.19,-0.13,0.24,0.10,0.06,1.01,
1.551,1.19,-0.13,0.24,0.10,0.06,1.01,
1.554,1.19,-0.13,0.24,0.10,0.06,1.00,
1.554,1.14,-0.06,0.21,0.10,0.06,1.00,
1.556,1.14,-0.06,0.21,0.10,0.07,1.00,
1.559,1.14,-0.06,0.21,0.10,0.07,0.99,
1.559,1.13,-0.02,0.15,0.10,0.07,0.99,
1.561,1.13,-0.02,0.15,0.10,0.07,0.99,
1.563,1.13,-0.02,0.15,0.10,0.07,0.98,
1.563,1.12,0.02,0.06,0.10,0.07,0.98,
1.565,1.12,0.02,0.06,0.11,0.07,0.97,
1.569,1.12,0.02,0.06,0.11,0.07,0.97,
1.57,1.12,0.04,-0.07,0.11,0.07,0.97,
1.571,1.12,0.04,-0.07,0.11,0.07,0.96,
1.573,1.12,0.04,-0.07,0.11,0.07,0.95,
1.573,1.16,0.05,-0.18,0.11,0.07,0.95,
1.575,1.16,0.05,-0.18,0.11,0.07,0.95,
1.578,1.16,0.05,-0.18,0.12,0.08,0.94,
1.578,1.18,0.04,-0.31,0.12,0.08,0.94,
1.581,1.18,0.04,-0.31,0.12,0.08,0.94,
1.583,1.18,0.04,-0.31,0.12,0.08,0.93,
1.583,1.22,0.05,-0.41,0.12,0.08,0.93,
1.585,1.22,0.05,-0.41,0.12,0.07,0.93,
1.589,1.22,0.05,-0.41,0.11,0.07,0.92,
1.59,1.24,0.05,-0.52,0.11,0.07,0.92,
1.59,1.24,0.05,-0.52,0.11,0.07,0.92,
1.593,1.20,0.01,-0.62,0.11,0.07,0.92,
1.593,1.20,0.01,-0.62,0.10,0.07,0.91,
1.595,1.20,0.01,-0.62,0.10,0.07,0.91,
1.598,1.20,0.01,-0.62,0.09,0.08,0.91,
1.598,1.13,-0.04,-0.70,0.09,0.08,0.91,
1.6,1.13,-0.04,-0.70,0.08,0.08,0.91,
1.602,1.13,-0.04,-0.70,0.08,0.08,0.90,
1.603,1.00,-0.03,-0.76,0.08,0.08,0.90,
1.61,1.00,-0.03,-0.76,0.08,0.08,0.91,
1.61,1.00,-0.03,-0.76,0.07,0.08,0.91,
1.611,0.89,-0.04,-0.78,0.07,0.08,0.91,
1.611,0.89,-0.04,-0.78,0.06,0.08,0.91,
1.612,0.89,-0.04,-0.78,0.05,0.08,0.91,
1.613,0.80,-0.03,-0.76,0.05,0.08,0.91,
1.615,0.80,-0.03,-0.76,0.05,0.08,0.92,
1.617,0.80,-0.03,-0.76,0.04,0.08,0.92,
1.617,0.66,-0.02,-0.71,0.04,0.08,0.92,
1.62,0.66,-0.02,-0.71,0.04,0.08,0.92,
1.622,0.66,-0.02,-0.71,0.03,0.08,0.93,
1.623,0.56,-0.03,-0.62,0.03,0.08,0.93,
1.625,0.56,-0.03,-0.62,0.03,0.08,0.93,
1.627,0.56,-0.03,-0.62,0.03,0.08,0.94,
1.627,0.44,-0.04,-0.54,0.03,0.08,0.94,
1.63,0.44,-0.04,-0.54,0.02,0.08,0.95,
1.632,0.44,-0.04,-0.54,0.02,0.08,0.95,
1.632,0.36,-0.04,-0.43,0.02,0.08,0.95,
1.634,0.36,-0.04,-0.43,0.02,0.08,0.96,
1.637,0.36,-0.04,-0.43,0.03,0.08,0.97,
1.637,0.30,-0.05,-0.32,0.03,0.08,0.97,
1.639,0.30,-0.05,-0.32,0.03,0.07,0.97,
1.642,0.30,-0.05,-0.32,0.03,0.07,0.98,
1.643,0.31,-0.06,-0.19,0.03,0.07,0.98,
1.644,0.31,-0.06,-0.19,0.04,0.07,0.98,
1.647,0.31,-0.06,-0.19,0.04,0.07,0.99,
1.647,0.34,-0.08,-0.08,0.04,0.07,0.99,
1.65,0.34,-0.08,-0.08,0.05,0.07,0.99,
1.652,0.34,-0.08,-0.08,0.05,0.07,1.00,
1.652,0.42,-0.11,0.02,0.05,0.07,1.00,
1.654,0.42,-0.11,0.02,0.06,0.07,1.00,
1.657,0.42,-0.11,0.02,0.08,0.07,1.00,
1.657,0.52,-0.14,0.12,0.08,0.07,1.00,
1.659,0.52,-0.14,0.12,0.08,0.07,1.00,
1.661,0.52,-0.14,0.12,0.09,0.07,1.00,
1.661,0.70,-0.14,0.16,0.09,0.07,1.00,
1.664,0.70,-0.14,0.16,0.10,0.06,1.01,
1.667,0.70,-0.14,0.16,0.10,0.06,1.01,
1.667,0.85,-0.14,0.20,0.10,0.06,1.01,
1.67,0.85,-0.14,0.20,0.12,0.07,1.00,
1.671,0.85,-0.14,0.20,0.12,0.07,1.00,
1.672,0.99,-0.17,0.23,0.12,0.07,1.00,
1.673,0.99,-0.17,0.23,0.13,0.07,1.00,
1.676,0.99,-0.17,0.23,0.13,0.07,1.00,
1.676,1.14,-0.16,0.19,0.13,0.07,1.00,
1.678,1.14,-0.16,0.19,0.14,0.06,1.00,
1.681,1.14,-0.16,0.19,0.14,0.06,0.99,
1.681,1.27,-0.18,0.18,0.14,0.06,0.99,
1.683,1.27,-0.18,0.18,0.14,0.06,0.99,
1.686,1.27,-0.18,0.18,0.13,0.06,0.99,
1.686,1.33,-0.21,0.13,0.13,0.06,0.99,
1.689,1.33,-0.21,0.13,0.13,0.06,0.98,
1.691,1.33,-0.21,0.13,0.12,0.05,0.98,
1.691,1.30,-0.26,0.06,0.12,0.05,0.98,
1.693,1.30,-0.26,0.06,0.11,0.05,0.97,
1.696,1.30,-0.26,0.06,0.10,0.05,0.96,
1.696,1.18,-0.32,-0.04,0.10,0.05,0.96,
1.698,1.18,-0.32,-0.04,0.08,0.04,0.96,
1.701,1.18,-0.32,-0.04,0.07,0.04,0.95,
1.701,0.98,-0.43,-0.14,0.07,0.04,0.95,
1.709,0.98,-0.43,-0.14,0.06,0.03,0.95,
1.709,0.98,-0.43,-0.14,0.05,0.03,0.94,
1.71,0.77,-0.54,-0.26,0.05,0.03,0.94,
1.71,0.77,-0.54,-0.26,0.04,0.04,0.94,
1.71,0.77,-0.54,-0.26,0.03,0.04,0.93,
1.711,0.55,-0.60,-0.35,0.03,0.04,0.93,
1.713,0.55,-0.60,-0.35,0.03,0.04,0.93,
1.715,0.55,-0.60,-0.35,0.02,0.04,0.93,
1.715,0.37,-0.59,-0.43,0.02,0.04,0.93,
1.718,0.37,-0.59,-0.43,0.02,0.04,0.93,
1.722,0.37,-0.59,-0.43,0.01,0.04,0.93,
1.722,0.25,-0.54,-0.49,0.01,0.04,0.93,
1.723,0.25,-0.54,-0.49,0.01,0.05,0.93,
1.725,0.25,-0.54,-0.49,0.00,0.05,0.93,
1.725,0.14,-0.53,-0.53,0.00,0.05,0.93,
1.727,0.14,-0.53,-0.53,0.00,0.05,0.93,
1.73,0.14,-0.53,-0.53,0.00,0.05,0.94,
1.73,0.07,-0.49,-0.50,0.00,0.05,0.94,
1.732,0.07,-0.49,-0.50,0.00,0.05,0.94,
1.735,0.07,-0.49,-0.50,0.01,0.05,0.94,
1.735,0.04,-0.48,-0.44,0.01,0.05,0.94,
1.737,0.04,-0.48,-0.44,0.01,0.05,0.95,
1.74,0.04,-0.48,-0.44,0.02,0.06,0.95,
1.74,0.06,-0.44,-0.37,0.02,0.06,0.95,
1.742,0.06,-0.44,-0.37,0.02,0.06,0.96,
1.744,0.06,-0.44,-0.37,0.03,0.06,0.97,
1.745,0.14,-0.43,-0.26,0.03,0.06,0.97,
1.747,0.14,-0.43,-0.26,0.04,0.06,0.97,
1.75,0.14,-0.43,-0.26,0.04,0.06,0.98,
1.75,0.25,-0.38,-0.12,0.04,0.06,0.98,
1.752,0.25,-0.38,-0.12,0.05,0.06,0.98,
1.754,0.25,-0.38,-0.12,0.05,0.06,0.99,
1.755,0.38,-0.36,-0.00,0.05,0.06,0.99,
1.757,0.38,-0.36,-0.00,0.05,0.06,0.99,
1.759,0.38,-0.36,-0.00,0.06,0.06,0.99,
1.759,0.49,-0.35,0.10,0.06,0.06,0.99,
1.762,0.49,-0.35,0.10,0.06,0.06,0.99,
1.764,0.55,-0.36,0.14,0.06,0.06,0.99,
1.764,0.55,-0.36,0.14,0.06,0.06,0.99,
1.766,0.55,-0.36,0.14,0.06,0.06,0.99,
1.77,0.55,-0.36,0.14,0.06,0.05,0.99,
1.77,0.60,-0.41,0.15,0.06,0.05,0.99,
1.771,0.60,-0.41,0.15,0.06,0.05,0.99,
1.775,0.63,-0.44,0.15,0.06,0.05,0.99,
1.775,0.63,-0.44,0.15,0.06,0.05,0.99,
1.776,0.63,-0.44,0.15,0.06,0.05,0.99,
1.779,0.63,-0.44,0.15,0.05,0.05,0.99,
1.779,0.62,-0.47,0.13,0.05,0.05,0.99,
1.781,0.62,-0.47,0.13,0.05,0.04,0.99,
1.784,0.62,-0.47,0.13,0.04,0.04,0.99,
1.784,0.54,-0.52,0.14,0.04,0.04,0.99,
1.787,0.54,-0.52,0.14,0.03,0.03,0.98,
1.79,0.54,-0.52,0.14,0.02,0.03,0.98,
1.79,0.42,-0.62,0.09,0.02,0.03,0.98,
1.791,0.42,-0.62,0.09,0.02,0.02,0.98,
1.793,0.42,-0.62,0.09,0.01,0.02,0.97,
1.794,0.28,-0.73,0.03,0.01,0.02,0.97,
1.796,0.28,-0.73,0.03,0.01,0.02,0.97,
1.798,0.28,-0.73,0.03,0.00,0.01,0.97,
1.799,0.15,-0.83,-0.03,0.00,0.01,0.97,
1.801,0.15,-0.83,-0.03,-0.00,0.01,0.97,
1.804,0.15,-0.83,-0.03,-0.00,0.01,0.96,
1.804,0.06,-0.87,-0.07,-0.00,0.01,0.96,
1.806,0.06,-0.87,-0.07,-0.00,0.01,0.96,
1.81,0.06,-0.87,-0.07,-0.00,0.01,0.96,
1.811,-0.00,-0.88,-0.12,-0.00,0.01,0.96,
1.811,-0.00,-0.88,-0.12,-0.00,0.01,0.96,
1.813,-0.03,-0.88,-0.13,-0.00,0.01,0.96,
1.813,-0.03,-0.88,-0.13,-0.00,0.01,0.97,
1.815,-0.03,-0.88,-0.13,-0.00,0.01,0.97,
1.818,-0.03,-0.88,-0.13,-0.00,0.01,0.98,
1.818,-0.05,-0.88,-0.12,-0.00,0.01,0.98,
1.825,-0.05,-0.88,-0.12,-0.00,0.01,0.98,
1.826,-0.05,-0.88,-0.12,-0.00,0.01,0.99,
1.826,-0.05,-0.87,-0.01,-0.00,0.01,0.99,
1.827,-0.05,-0.87,-0.01,0.00,0.02,1.00,
1.829,-0.05,-0.87,-0.01,0.01,0.02,1.01,
1.829,-0.04,-0.84,0.10,0.01,0.02,1.01,
1.83,-0.04,-0.84,0.10,0.01,0.02,1.02,
1.833,-0.04,-0.84,0.10,0.02,0.03,1.03,
1.833,0.03,-0.78,0.29,0.02,0.03,1.03,
1.835,0.03,-0.78,0.29,0.03,0.03,1.04,
1.838,0.03,-0.78,0.29,0.03,0.03,1.04,
1.838,0.16,-0.71,0.46,0.03,0.03,1.04,
1.84,0.16,-0.71,0.46,0.04,0.03,1.05,
1.843,0.16,-0.71,0.46,0.05,0.03,1.06,
1.843,0.29,-0.68,0.62,0.05,0.03,1.06,
1.845,0.29,-0.68,0.62,0.06,0.03,1.06,
1.847,0.29,-0.68,0.62,0.06,0.03,1.07,
1.847,0.42,-0.65,0.74,0.06,0.03,1.07,
1.85,0.42,-0.65,0.74,0.07,0.02,1.07,
1.853,0.42,-0.65,0.74,0.07,0.02,1.07,
1.853,0.56,-0.66,0.82,0.07,0.02,1.07,
1.855,0.56,-0.66,0.82,0.07,0.02,1.07,
1.857,0.56,-0.66,0.82,0.07,0.02,1.07,
1.858,0.65,-0.68,0.84,0.07,0.02,1.07,
1.86,0.65,-0.68,0.84,0.08,0.02,1.06,
1.862,0.65,-0.68,0.84,0.08,0.01,1.06,
1.862,0.71,-0.73,0.84,0.08,0.01,1.06,
1.864,0.71,-0.73,0.84,0.07,0.01,1.05,
1.867,0.71,-0.73,0.84,0.07,0.01,1.05,
1.867,0.73,-0.78,0.78,0.07,0.01,1.05,
1.87,0.73,-0.78,0.78,0.07,0.00,1.04,
1.872,0.73,-0.78,0.78,0.06,0.00,1.04,
1.872,0.70,-0.84,0.68,0.06,0.00,1.04,
1.874,0.70,-0.84,0.68,0.06,-0.00,1.03,
1.877,0.70,-0.84,0.68,0.06,-0.01,1.02,
1.877,0.64,-0.92,0.56,0.06,-0.01,1.02,
1.879,0.64,-0.92,0.56,0.05,-0.01,1.01,
1.882,0.64,-0.92,0.56,0.04,-0.01,1.00,
1.882,0.56,-1.00,0.40,0.04,-0.01,1.00,
1.884,0.56,-1.00,0.40,0.04,-0.01,0.99,
1.887,0.46,-1.02,0.21,0.04,-0.01,0.99,
1.887,0.46,-1.02,0.21,0.04,-0.01,0.98,
1.889,0.46,-1.02,0.21,0.03,-0.01,0.97,
1.891,0.46,-1.02,0.21,0.02,-0.00,0.96,
1.891,0.38,-1.03,0.02,0.02,-0.00,0.96,
1.893,0.38,-1.03,0.02,0.02,-0.00,0.96,
1.896,0.38,-1.03,0.02,0.02,-0.00,0.95,
1.896,0.27,-1.02,-0.15,0.02,-0.00,0.95,
1.899,0.27,-1.02,-0.15,0.01,0.00,0.94,
1.901,0.27,-1.02,-0.15,0.00,0.00,0.94,
1.901,0.18,-1.00,-0.30,0.00,0.00,0.94,
1.905,0.18,-1.00,-0.30,-0.00,0.00,0.93,
1.906,0.18,-1.00,-0.30,-0.01,0.01,0.93,
1.907,0.06,-0.96,-0.42,-0.01,0.01,0.93,
1.91,0.06,-0.96,-0.42,-0.02,0.01,0.93,
1.911,0.06,-0.96,-0.42,-0.02,0.01,0.93,
1.911,-0.06,-0.93,-0.48,-0.02,0.01,0.93,
1.913,-0.06,-0.93,-0.48,-0.03,0.01,0.93,
1.916,-0.06,-0.93,-0.48,-0.03,0.02,0.93,
1.916,-0.18,-0.88,-0.50,-0.03,0.02,0.93,
1.918,-0.18,-0.88,-0.50,-0.03,0.02,0.94,
1.921,-0.18,-0.88,-0.50,-0.03,0.02,0.94,
1.922,-0.23,-0.82,-0.46,-0.03,0.02,0.94,
1.923,-0.23,-0.82,-0.46,-0.03,0.03,0.95,
1.926,-0.23,-0.82,-0.46,-0.03,0.03,0.95,
1.926,-0.25,-0.75,-0.40,-0.03,0.03,0.95,
1.929,-0.25,-0.75,-0.40,-0.02,0.03,0.95,
1.931,-0.25,-0.75,-0.40,-0.02,0.04,0.96,
1.931,-0.22,-0.69,-0.31,-0.02,0.04,0.96,
1.933,-0.22,-0.69,-0.31,-0.02,0.04,0.97,
1.936,-0.22,-0.69,-0.31,-0.02,0.04,0.97,
1.937,-0.18,-0.60,-0.22,-0.02,0.04,0.97,
1.938,-0.18,-0.60,-0.22,-0.01,0.04,0.97,
1.941,-0.18,-0.60,-0.22,-0.01,0.04,0.98,
1.941,-0.11,-0.56,-0.11,-0.01,0.04,0.98,
1.943,-0.11,-0.56,-0.11,-0.01,0.04,0.98,
1.945,-0.11,-0.56,-0.11,-0.01,0.05,0.99,
1.945,-0.04,-0.52,-0.03,-0.01,0.05,0.99,
1.949,-0.04,-0.52,-0.03,-0.00,0.05,1.00,
1.95,-0.04,-0.52,-0.03,-0.00,0.05,1.00,
1.95,0.04,-0.49,0.08,-0.00,0.05,1.00,
1.953,0.04,-0.49,0.08,-0.00,0.05,1.00,
1.956,0.04,-0.49,0.08,-0.00,0.04,1.01,
1.956,0.07,-0.47,0.19,-0.00,0.04,1.01,
1.958,0.07,-0.47,0.19,-0.01,0.04,1.01,
1.96,0.09,-0.50,0.25,-0.01,0.04,1.01,
1.96,0.09,-0.50,0.25,-0.01,0.04,1.01,
1.962,0.09,-0.50,0.25,-0.01,0.03,1.01,
1.965,0.09,-0.50,0.25,-0.01,0.03,1.01,
1.965,0.06,-0.55,0.28,-0.01,0.03,1.01,
1.967,0.06,-0.55,0.28,-0.01,0.03,1.01,
1.97,0.06,-0.55,0.28,-0.01,0.02,1.00,
1.97,0.03,-0.61,0.27,-0.01,0.02,1.00,
1.972,0.03,-0.61,0.27,-0.02,0.02,1.00,
1.975,0.03,-0.61,0.27,-0.02,0.02,1.00,
1.975,0.00,-0.67,0.24,-0.02,0.02,1.00,
1.977,0.00,-0.67,0.24,-0.03,0.02,0.99,
1.979,0.00,-0.67,0.24,-0.03,0.02,0.99,
1.98,-0.06,-0.73,0.18,-0.03,0.02,0.99,
1.982,-0.06,-0.73,0.18,-0.03,0.01,0.98,
1.984,-0.15,-0.75,0.09,-0.03,0.01,0.98,
1.985,-0.15,-0.75,0.09,-0.03,0.01,0.98,
1.987,-0.15,-0.75,0.09,-0.04,0.01,0.98,
1.99,-0.15,-0.75,0.09,-0.04,0.01,0.98,
1.99,-0.20,-0.78,0.02,-0.04,0.01,0.98,
1.992,-0.20,-0.78,0.02,-0.05,0.01,0.98,
1.994,-0.20,-0.78,0.02,-0.05,0.01,0.97,
1.994,-0.28,-0.78,-0.02,-0.05,0.01,0.97,
1.997,-0.28,-0.78,-0.02,-0.06,0.01,0.97,
1.999,-0.28,-0.78,-0.02,-0.06,0.02,0.97,
1.999,-0.40,-0.75,-0.05,-0.06,0.02,0.97,
2.001,-0.40,-0.75,-0.05,-0.06,0.02,0.98,
2.008,-0.40,-0.75,-0.05,-0.07,0.03,0.98,
2.009,-0.48,-0.70,-0.07,-0.07,0.03,0.98,
2.009,-0.48,-0.70,-0.07,-0.07,0.03,0.98,
2.01,-0.48,-0.70,-0.07,-0.08,0.04,0.99,
2.01,-0.55,-0.61,0.00,-0.08,0.04,0.99,
2.011,-0.55,-0.61,0.00,-0.08,0.04,0.99,
2.014,-0.64,-0.52,0.05,-0.08,0.04,0.99,
2.014,-0.64,-0.52,0.05,-0.08,0.05,0.99,
2.016,-0.64,-0.52,0.05,-0.08,0.05,1.00,
2.021,-0.64,-0.52,0.05,-0.08,0.05,1.00,
2.022,-0.66,-0.42,0.11,-0.08,0.05,1.00,
2.022,-0.66,-0.42,0.11,-0.08,0.06,1.00,
2.024,-0.69,-0.35,0.16,-0.08,0.06,1.00,
2.026,-0.69,-0.35,0.16,-0.08,0.06,1.00,
2.026,-0.69,-0.35,0.16,-0.08,0.06,1.00,
2.03,-0.69,-0.35,0.16,-0.08,0.07,1.00,
2.03,-0.72,-0.25,0.20,-0.08,0.07,1.00,
2.031,-0.72,-0.25,0.20,-0.08,0.07,1.00,
2.033,-0.72,-0.19,0.20,-0.08,0.07,1.00,
2.034,-0.72,-0.19,0.20,-0.09,0.07,1.00,
2.036,-0.72,-0.19,0.20,-0.09,0.07,0.99,
2.038,-0.72,-0.19,0.20,-0.09,0.08,0.99,
2.038,-0.74,-0.14,0.17,-0.09,0.08,0.99,
2.041,-0.74,-0.14,0.17,-0.09,0.07,0.99,
2.043,-0.74,-0.14,0.17,-0.09,0.07,0.98,
2.043,-0.77,-0.11,0.12,-0.09,0.07,0.98,
2.045,-0.77,-0.11,0.12,-0.09,0.07,0.98,
2.049,-0.77,-0.11,0.12,-0.09,0.07,0.98,
2.05,-0.79,-0.15,0.06,-0.09,0.07,0.98,
2.05,-0.79,-0.15,0.06,-0.09,0.07,0.97,
2.053,-0.79,-0.15,0.06,-0.09,0.07,0.97,
2.053,-0.80,-0.15,-0.02,-0.09,0.07,0.97,
2.055,-0.80,-0.15,-0.02,-0.09,0.07,0.97,
2.058,-0.80,-0.16,-0.08,-0.09,0.07,0.97,
2.059,-0.80,-0.16,-0.08,-0.09,0.07,0.97,
2.06,-0.80,-0.16,-0.08,-0.09,0.07,0.97,
2.062,-0.80,-0.16,-0.08,-0.09,0.06,0.97,
2.063,-0.78,-0.18,-0.12,-0.09,0.06,0.97,
2.065,-0.78,-0.18,-0.12,-0.08,0.06,0.97,
2.069,-0.78,-0.18,-0.12,-0.08,0.06,0.97,
2.069,-0.75,-0.21,-0.13,-0.08,0.06,0.97,
2.07,-0.75,-0.21,-0.13,-0.08,0.05,0.97,
2.073,-0.75,-0.21,-0.13,-0.08,0.05,0.97,
2.073,-0.71,-0.28,-0.11,-0.08,0.05,0.97,
2.075,-0.71,-0.28,-0.11,-0.08,0.04,0.98,
2.077,-0.71,-0.28,-0.11,-0.08,0.04,0.98,
2.078,-0.69,-0.36,-0.08,-0.08,0.04,0.98,
2.08,-0.69,-0.36,-0.08,-0.07,0.03,0.98,
2.082,-0.69,-0.36,-0.08,-0.07,0.03,0.99,
2.083,-0.65,-0.44,-0.03,-0.07,0.03,0.99,
2.086,-0.65,-0.44,-0.03,-0.07,0.03,0.99,
2.087,-0.65,-0.44,-0.03,-0.07,0.02,1.00,
2.088,-0.61,-0.51,0.05,-0.07,0.02,1.00,
2.09,-0.61,-0.51,0.05,-0.07,0.02,1.00,
2.092,-0.61,-0.51,0.05,-0.06,0.02,1.00,
2.093,-0.57,-0.58,0.13,-0.06,0.02,1.00,
2.094,-0.57,-0.58,0.13,-0.06,0.01,1.00,
2.097,-0.57,-0.58,0.13,-0.06,0.01,1.01,
2.097,-0.53,-0.64,0.18,-0.06,0.01,1.01,
2.099,-0.53,-0.64,0.18,-0.05,0.01,1.01,
2.103,-0.53,-0.64,0.18,-0.05,0.02,1.01,
2.103,-0.48,-0.66,0.23,-0.05,0.02,1.01,
2.104,-0.48,-0.66,0.23,-0.04,0.02,1.00,
2.107,-0.48,-0.66,0.23,-0.04,0.02,1.00,
2.108,-0.40,-0.65,0.24,-0.04,0.02,1.00,
2.11,-0.40,-0.65,0.24,-0.04,0.02,1.00,
2.112,-0.40,-0.65,0.24,-0.03,0.03,1.00,
2.112,-0.34,-0.59,0.22,-0.03,0.03,1.00,
2.114,-0.34,-0.59,0.22,-0.03,0.03,1.00,
2.116,-0.34,-0.59,0.22,-0.03,0.03,0.99,
2.117,-0.28,-0.53,0.18,-0.03,0.03,0.99,
2.124,-0.28,-0.53,0.18,-0.03,0.04,0.99,
2.125,-0.28,-0.53,0.18,-0.03,0.04,0.99,
2.125,-0.25,-0.48,0.13,-0.03,0.04,0.99,
2.126,-0.25,-0.48,0.13,-0.03,0.04,0.98,
2.127,-0.25,-0.48,0.13,-0.03,0.04,0.98,
2.127,-0.24,-0.41,0.08,-0.03,0.04,0.98,
2.13,-0.24,-0.41,0.08,-0.03,0.04,0.98,
2.131,-0.24,-0.41,0.08,-0.02,0.05,0.98,
2.131,-0.23,-0.36,-0.00,-0.02,0.05,0.98,
2.134,-0.23,-0.36,-0.00,-0.03,0.05,0.97,
2.139,-0.23,-0.36,-0.00,-0.03,0.05,0.97,
2.14,-0.22,-0.32,-0.06,-0.03,0.05,0.97,
2.14,-0.22,-0.32,-0.06,-0.03,0.05,0.97,
2.141,-0.22,-0.32,-0.06,-0.03,0.05,0.97,
2.141,-0.23,-0.28,-0.09,-0.03,0.05,0.97,
2.144,-0.23,-0.28,-0.09,-0.02,0.05,0.97,
2.146,-0.23,-0.28,-0.09,-0.03,0.05,0.97,
2.146,-0.23,-0.28,-0.12,-0.03,0.05,0.97,
2.149,-0.23,-0.28,-0.12,-0.03,0.05,0.97,
2.151,-0.23,-0.28,-0.12,-0.03,0.05,0.98,
2.151,-0.21,-0.27,-0.10,-0.03,0.05,0.98,
2.153,-0.21,-0.27,-0.10,-0.03,0.05,0.98,
2.156,-0.21,-0.27,-0.10,-0.03,0.05,0.98,
2.156,-0.22,-0.29,-0.06,-0.03,0.05,0.98,
2.158,-0.22,-0.29,-0.06,-0.03,0.05,0.99,
2.161,-0.22,-0.29,-0.06,-0.03,0.05,0.99,
2.161,-0.25,-0.30,-0.01,-0.03,0.05,0.99,
2.163,-0.25,-0.30,-0.01,-0.04,0.05,1.00,
2.165,-0.25,-0.30,-0.01,-0.04,0.05,1.00,
2.165,-0.27,-0.32,0.08,-0.04,0.05,1.00,
2.169,-0.27,-0.32,0.08,-0.04,0.05,1.01,
2.171,-0.27,-0.32,0.08,-0.04,0.04,1.01,
2.171,-0.28,-0.32,0.19,-0.04,0.04,1.01,
2.173,-0.28,-0.32,0.19,-0.05,0.04,1.01,
2.175,-0.28,-0.32,0.19,-0.05,0.04,1.02,
2.175,-0.32,-0.33,0.27,-0.05,0.04,1.02,
2.178,-0.32,-0.33,0.27,-0.05,0.04,1.02,
2.18,-0.32,-0.33,0.27,-0.05,0.04,1.03,
2.18,-0.36,-0.37,0.32,-0.05,0.04,1.03,
2.183,-0.36,-0.37,0.32,-0.05,0.04,1.03,
2.186,-0.36,-0.37,0.32,-0.06,0.04,1.03,
2.186,-0.38,-0.38,0.41,-0.06,0.04,1.03,
2.189,-0.38,-0.38,0.41,-0.06,0.04,1.03,
2.19,-0.38,-0.38,0.41,-0.06,0.04,1.03,
2.19,-0.41,-0.39,0.45,-0.06,0.04,1.03,
2.192,-0.41,-0.39,0.45,-0.06,0.04,1.02,
2.195,-0.41,-0.39,0.45,-0.06,0.04,1.02,
2.195,-0.46,-0.41,0.44,-0.06,0.04,1.02,
2.197,-0.46,-0.41,0.44,-0.07,0.04,1.02,
2.2,-0.46,-0.41,0.44,-0.07,0.05,1.01,
2.2,-0.45,-0.41,0.38,-0.07,0.05,1.01,
2.202,-0.45,-0.41,0.38,-0.06,0.05,1.00,
2.205,-0.45,-0.41,0.38,-0.06,0.05,1.00,
2.205,-0.48,-0.38,0.29,-0.06,0.05,1.00,
2.207,-0.48,-0.38,0.29,-0.06,0.05,0.99,
2.21,-0.48,-0.38,0.29,-0.06,0.06,0.98,
2.21,-0.45,-0.34,0.18,-0.06,0.06,0.98,
2.212,-0.45,-0.34,0.18,-0.06,0.06,0.98,
2.214,-0.45,-0.34,0.18,-0.06,0.06,0.97,
2.215,-0.43,-0.28,0.03,-0.06,0.06,0.97,
2.217,-0.43,-0.28,0.03,-0.06,0.06,0.96,
2.223,-0.43,-0.28,0.03,-0.06,0.07,0.96,
2.224,-0.43,-0.25,-0.09,-0.06,0.07,0.96,
2.224,-0.43,-0.25,-0.09,-0.06,0.07,0.95,
2.225,-0.43,-0.25,-0.09,-0.07,0.07,0.95,
2.225,-0.43,-0.21,-0.22,-0.07,0.07,0.95,
2.227,-0.43,-0.21,-0.22,-0.07,0.07,0.94,
2.23,-0.43,-0.21,-0.22,-0.07,0.08,0.94,
2.23,-0.46,-0.16,-0.32,-0.07,0.08,0.94,
2.231,-0.46,-0.16,-0.32,-0.07,0.08,0.94,
2.234,-0.46,-0.16,-0.32,-0.07,0.08,0.93,
2.234,-0.49,-0.13,-0.41,-0.07,0.08,0.93,
2.237,-0.49,-0.13,-0.41,-0.08,0.08,0.93,
2.239,-0.49,-0.13,-0.41,-0.08,0.08,0.93,
2.239,-0.50,-0.07,-0.45,-0.08,0.08,0.93,
2.241,-0.50,-0.07,-0.45,-0.08,0.08,0.94,
2.244,-0.55,-0.09,-0.46,-0.08,0.08,0.94,
2.244,-0.55,-0.09,-0.46,-0.09,0.08,0.94,
2.247,-0.55,-0.09,-0.46,-0.09,0.08,0.94,
2.25,-0.55,-0.09,-0.46,-0.10,0.08,0.94,
2.25,-0.63,-0.09,-0.42,-0.10,0.08,0.94,
2.252,-0.63,-0.09,-0.42,-0.10,0.08,0.95,
2.254,-0.72,-0.09,-0.38,-0.10,0.08,0.95,
2.254,-0.72,-0.09,-0.38,-0.11,0.08,0.95,
2.256,-0.72,-0.09,-0.38,-0.11,0.08,0.96,
2.259,-0.72,-0.09,-0.38,-0.11,0.08,0.96,
2.259,-0.78,-0.10,-0.29,-0.11,0.08,0.96,
2.261,-0.78,-0.10,-0.29,-0.11,0.08,0.97,
2.264,-0.78,-0.10,-0.29,-0.12,0.07,0.97,
2.264,-0.85,-0.09,-0.18,-0.12,0.07,0.97,
2.266,-0.85,-0.09,-0.18,-0.12,0.07,0.98,
2.27,-0.85,-0.09,-0.18,-0.12,0.07,0.98,
2.27,-0.88,-0.11,-0.10,-0.12,0.07,0.98,
2.271,-0.88,-0.11,-0.10,-0.12,0.07,0.99,
2.274,-0.88,-0.11,-0.10,-0.12,0.07,0.99,
2.274,-0.89,-0.14,-0.00,-0.12,0.07,0.99,
2.275,-0.89,-0.14,-0.00,-0.12,0.07,0.99,
2.278,-0.89,-0.14,-0.00,-0.12,0.07,0.99,
2.278,-0.88,-0.16,0.07,-0.12,0.07,0.99,
2.281,-0.88,-0.16,0.07,-0.12,0.07,0.99,
2.283,-0.88,-0.16,0.07,-0.12,0.06,0.99,
2.284,-0.87,-0.18,0.11,-0.12,0.06,0.99,
2.286,-0.87,-0.18,0.11,-0.12,0.06,0.99,
2.289,-0.87,-0.18,0.11,-0.12,0.06,0.99,
2.29,-0.83,-0.21,0.13,-0.12,0.06,0.99,
2.291,-0.83,-0.21,0.13,-0.11,0.06,0.99,
2.293,-0.83,-0.21,0.13,-0.11,0.06,0.99,
2.293,-0.83,-0.24,0.10,-0.11,0.06,0.99,
2.295,-0.83,-0.24,0.10,-0.11,0.06,0.98,
2.298,-0.83,-0.24,0.10,-0.11,0.06,0.98,
2.298,-0.80,-0.23,0.05,-0.11,0.06,0.98,
2.3,-0.80,-0.23,0.05,-0.11,0.06,0.97,
2.308,-0.77,-0.25,-0.03,-0.11,0.06,0.97,
2.308,-0.77,-0.25,-0.03,-0.11,0.06,0.96,
2.309,-0.77,-0.25,-0.03,-0.11,0.06,0.96,
2.309,-0.77,-0.25,-0.03,-0.11,0.06,0.95,
2.309,-0.76,-0.26,-0.13,-0.11,0.06,0.95,
2.31,-0.76,-0.26,-0.13,-0.11,0.06,0.95,
2.312,-0.76,-0.26,-0.13,-0.11,0.06,0.94,
2.313,-0.78,-0.22,-0.25,-0.11,0.06,0.94,
2.315,-0.78,-0.22,-0.25,-0.11,0.07,0.94,
2.319,-0.78,-0.22,-0.25,-0.11,0.07,0.94,
2.319,-0.78,-0.20,-0.34,-0.11,0.07,0.94,
2.319,-0.78,-0.20,-0.34,-0.11,0.07,0.94,
2.322,-0.78,-0.20,-0.34,-0.10,0.07,0.94,
2.323,-0.77,-0.15,-0.39,-0.10,0.07,0.94,
2.325,-0.77,-0.15,-0.39,-0.10,0.08,0.94,
2.327,-0.77,-0.15,-0.39,-0.10,0.08,0.94,
2.328,-0.76,-0.09,-0.42,-0.10,0.08,0.94,
2.33,-0.76,-0.09,-0.42,-0.10,0.08,0.94,
2.332,-0.76,-0.09,-0.42,-0.10,0.08,0.94,
2.332,-0.76,-0.01,-0.40,-0.10,0.08,0.94,
2.335,-0.76,-0.01,-0.40,-0.10,0.08,0.94,
2.337,-0.76,-0.01,-0.40,-0.10,0.08,0.95,
2.338,-0.73,0.01,-0.38,-0.10,0.08,0.95,
2.339,-0.73,0.01,-0.38,-0.10,0.07,0.95,
2.342,-0.73,0.01,-0.38,-0.10,0.07,0.96,
2.342,-0.74,-0.01,-0.34,-0.10,0.07,0.96,
2.344,-0.74,-0.01,-0.34,-0.10,0.07,0.96,
2.347,-0.74,-0.01,-0.34,-0.10,0.07,0.97,
2.347,-0.74,-0.05,-0.25,-0.10,0.07,0.97,
2.35,-0.74,-0.05,-0.25,-0.10,0.06,0.97,
2.352,-0.74,-0.05,-0.25,-0.10,0.06,0.97,
2.352,-0.75,-0.11,-0.16,-0.10,0.06,0.97,
2.354,-0.75,-0.11,-0.16,-0.10,0.05,0.98,
2.356,-0.75,-0.11,-0.16,-0.10,0.05,0.99,
2.357,-0.75,-0.15,-0.07,-0.10,0.05,0.99,
2.359,-0.75,-0.15,-0.07,-0.09,0.05,0.99,
2.361,-0.75,-0.15,-0.07,-0.09,0.05,1.00,
2.361,-0.73,-0.22,0.06,-0.09,0.05,1.00,
2.364,-0.73,-0.22,0.06,-0.09,0.05,1.00,
2.366,-0.67,-0.24,0.17,-0.09,0.05,1.00,
2.367,-0.67,-0.24,0.17,-0.09,0.04,1.01,
2.369,-0.67,-0.24,0.17,-0.09,0.04,1.01,
2.372,-0.67,-0.24,0.17,-0.09,0.04,1.01,
2.372,-0.62,-0.29,0.24,-0.09,0.04,1.01,
2.373,-0.62,-0.29,0.24,-0.08,0.04,1.01,
2.376,-0.62,-0.29,0.24,-0.08,0.04,1.02,
2.376,-0.58,-0.32,0.32,-0.08,0.04,1.02,
2.378,-0.58,-0.32,0.32,-0.08,0.04,1.01,
2.381,-0.58,-0.32,0.32,-0.07,0.04,1.01,
2.381,-0.55,-0.30,0.34,-0.07,0.04,1.01,
2.383,-0.55,-0.30,0.34,-0.07,0.04,1.01,
2.386,-0.47,-0.30,0.34,-0.07,0.04,1.01,
2.386,-0.47,-0.30,0.34,-0.07,0.04,1.01,
2.389,-0.47,-0.30,0.34,-0.07,0.05,1.01,
2.391,-0.47,-0.30,0.34,-0.07,0.05,1.01,
2.391,-0.45,-0.28,0.32,-0.07,0.05,1.01,
2.393,-0.45,-0.28,0.32,-0.07,0.05,1.00,
2.395,-0.45,-0.28,0.32,-0.06,0.05,1.00,
2.396,-0.42,-0.22,0.25,-0.06,0.05,1.00,
2.398,-0.42,-0.22,0.25,-0.07,0.06,1.00,
2.403,-0.42,-0.22,0.25,-0.06,0.06,0.99,
2.404,-0.40,-0.18,0.19,-0.06,0.06,0.99,
2.404,-0.40,-0.18,0.19,-0.06,0.06,0.99,
2.405,-0.40,-0.18,0.19,-0.06,0.06,0.99,
2.406,-0.39,-0.14,0.12,-0.06,0.06,0.99,
2.409,-0.39,-0.14,0.12,-0.06,0.06,0.98,
2.41,-0.39,-0.14,0.12,-0.06,0.06,0.98,
2.41,-0.36,-0.12,0.07,-0.06,0.06,0.98,
2.412,-0.36,-0.12,0.07,-0.06,0.06,0.98,
2.415,-0.36,-0.12,0.07,-0.05,0.06,0.98,
2.415,-0.36,-0.09,0.03,-0.05,0.06,0.98,
2.418,-0.36,-0.09,0.03,-0.05,0.06,0.98,
2.42,-0.36,-0.09,0.03,-0.05,0.07,0.98,
2.42,-0.35,-0.06,-0.02,-0.05,0.07,0.98,
2.422,-0.35,-0.06,-0.02,-0.05,0.06,0.98,
2.425,-0.33,-0.05,-0.04,-0.05,0.06,0.98,
2.425,-0.33,-0.05,-0.04,-0.05,0.06,0.98,
2.427,-0.33,-0.05,-0.04,-0.05,0.06,0.97,
2.43,-0.33,-0.05,-0.04,-0.05,0.06,0.97,
2.43,-0.35,-0.05,-0.06,-0.05,0.06,0.97,
2.432,-0.35,-0.05,-0.06,-0.05,0.06,0.97,
2.435,-0.35,-0.05,-0.06,-0.04,0.06,0.98,
2.436,-0.33,-0.05,-0.07,-0.04,0.06,0.98,
2.437,-0.33,-0.05,-0.07,-0.04,0.06,0.98,
2.44,-0.33,-0.05,-0.07,-0.04,0.07,0.98,
2.44,-0.29,-0.06,-0.06,-0.04,0.07,0.98,
2.442,-0.29,-0.06,-0.06,-0.04,0.07,0.98,
2.444,-0.29,-0.06,-0.06,-0.04,0.07,0.98,
2.445,-0.25,-0.04,-0.04,-0.04,0.07,0.98,
2.447,-0.25,-0.04,-0.04,-0.03,0.07,0.98,
2.45,-0.25,-0.04,-0.04,-0.03,0.07,0.98,
2.45,-0.21,-0.01,-0.05,-0.03,0.07,0.98,
2.452,-0.21,-0.01,-0.05,-0.03,0.08,0.98,
2.454,-0.21,-0.01,-0.05,-0.03,0.08,0.98,
2.455,-0.19,0.03,-0.03,-0.03,0.08,0.98,
2.457,-0.19,0.03,-0.03,-0.02,0.08,0.97,
2.459,-0.19,0.03,-0.03,-0.02,0.08,0.98,
2.46,-0.15,0.07,-0.04,-0.02,0.08,0.98,
2.462,-0.15,0.07,-0.04,-0.02,0.08,0.97,
2.464,-0.15,0.07,-0.04,-0.02,0.09,0.97,
2.464,-0.10,0.09,-0.06,-0.02,0.09,0.97,
2.467,-0.10,0.09,-0.06,-0.02,0.09,0.97,
2.47,-0.10,0.09,-0.06,-0.01,0.09,0.97,
2.47,-0.07,0.14,-0.09,-0.01,0.09,0.97,
2.471,-0.07,0.14,-0.09,-0.01,0.09,0.97,
2.474,-0.04,0.19,-0.12,-0.01,0.09,0.97,
2.474,-0.04,0.19,-0.12,-0.01,0.10,0.97,
2.476,-0.04,0.19,-0.12,-0.01,0.10,0.96,
2.479,-0.04,0.19,-0.12,-0.01,0.11,0.96,
2.479,-0.00,0.27,-0.13,-0.01,0.11,0.96,
2.481,-0.00,0.27,-0.13,-0.01,0.11,0.96,
2.485,-0.00,0.27,-0.13,-0.00,0.11,0.96,
2.485,0.03,0.34,-0.17,-0.00,0.11,0.96,
2.487,0.03,0.34,-0.17,-0.00,0.11,0.96,
2.49,0.03,0.34,-0.17,0.00,0.11,0.96,
2.491,0.06,0.38,-0.19,0.00,0.11,0.96,
2.491,0.06,0.38,-0.19,0.01,0.11,0.96,
2.493,0.06,0.38,-0.19,0.01,0.11,0.96,
2.494,0.10,0.39,-0.20,0.01,0.11,0.96,
2.496,0.10,0.39,-0.20,0.01,0.11,0.96,
2.498,0.16,0.39,-0.19,0.01,0.11,0.96,
2.499,0.16,0.39,-0.19,0.01,0.11,0.96,
2.501,0.16,0.39,-0.19,0.01,0.11,0.96,
2.504,0.16,0.39,-0.19,0.01,0.10,0.96,
2.504,0.16,0.36,-0.20,0.01,0.10,0.96,
2.506,0.16,0.36,-0.20,0.01,0.10,0.97,
2.51,0.16,0.36,-0.20,0.01,0.10,0.97,
2.51,0.18,0.32,-0.17,0.01,0.10,0.97,
2.511,0.18,0.32,-0.17,0.00,0.10,0.97,
2.513,0.16,0.29,-0.13,0.00,0.10,0.97,
2.516,0.16,0.29,-0.13,-0.00,0.10,0.97,
2.516,0.16,0.29,-0.13,-0.00,0.10,0.98,
2.523,0.16,0.29,-0.13,-0.01,0.10,0.98,
2.524,0.10,0.27,-0.09,-0.01,0.10,0.98,
2.524,0.10,0.27,-0.09,-0.01,0.10,0.98,
2.525,0.10,0.27,-0.09,-0.02,0.10,0.99,
2.525,0.04,0.25,-0.01,-0.02,0.10,0.99,
2.525,0.04,0.25,-0.01,-0.02,0.10,0.99,
2.529,0.04,0.25,-0.01,-0.03,0.10,0.99,
2.529,-0.02,0.26,0.05,-0.03,0.10,0.99,
2.53,-0.02,0.26,0.05,-0.03,0.10,0.99,
2.533,-0.02,0.26,0.05,-0.04,0.11,0.99,
2.533,-0.12,0.26,0.10,-0.04,0.11,0.99,
2.535,-0.12,0.26,0.10,-0.04,0.10,0.99,
2.538,-0.12,0.26,0.10,-0.04,0.11,0.99,
2.538,-0.19,0.27,0.11,-0.04,0.11,0.99,
2.54,-0.19,0.27,0.11,-0.04,0.11,0.99,
2.542,-0.19,0.27,0.11,-0.05,0.11,0.98,
2.542,-0.22,0.27,0.10,-0.05,0.11,0.98,
2.545,-0.22,0.27,0.10,-0.05,0.11,0.98,
2.547,-0.22,0.27,0.10,-0.05,0.12,0.98,
2.548,-0.28,0.30,0.05,-0.05,0.12,0.98,
2.55,-0.28,0.30,0.05,-0.05,0.12,0.98,
2.552,-0.28,0.30,0.05,-0.05,0.12,0.97,
2.553,-0.32,0.36,0.01,-0.05,0.12,0.97,
2.555,-0.32,0.36,0.01,-0.05,0.12,0.97,
2.557,-0.32,0.36,0.01,-0.05,0.12,0.96,
2.557,-0.34,0.39,-0.06,-0.05,0.12,0.96,
2.559,-0.34,0.39,-0.06,-0.05,0.12,0.96,
2.562,-0.34,0.39,-0.06,-0.05,0.13,0.96,
2.562,-0.35,0.42,-0.14,-0.05,0.13,0.96,
2.564,-0.35,0.42,-0.14,-0.05,0.12,0.95,
2.568,-0.35,0.42,-0.14,-0.04,0.12,0.95,
2.568,-0.31,0.42,-0.20,-0.04,0.12,0.95,
2.57,-0.31,0.42,-0.20,-0.04,0.12,0.95,
2.572,-0.25,0.40,-0.24,-0.04,0.12,0.95,
2.572,-0.25,0.40,-0.24,-0.04,0.12,0.95,
2.574,-0.25,0.40,-0.24,-0.04,0.12,0.95,
2.577,-0.25,0.40,-0.24,-0.03,0.12,0.96,
2.577,-0.21,0.40,-0.25,-0.03,0.12,0.96,
2.579,-0.21,0.40,-0.25,-0.03,0.12,0.96,
2.582,-0.15,0.39,-0.23,-0.03,0.12,0.96,
2.582,-0.15,0.39,-0.23,-0.03,0.12,0.96,
2.584,-0.15,0.39,-0.23,-0.02,0.12,0.96,
2.587,-0.15,0.39,-0.23,-0.02,0.12,0.97,
2.587,-0.10,0.37,-0.17,-0.02,0.12,0.97,
2.59,-0.10,0.37,-0.17,-0.02,0.11,0.97,
2.591,-0.10,0.37,-0.17,-0.02,0.11,0.97,
2.592,-0.04,0.33,-0.12,-0.02,0.11,0.97,
2.594,-0.04,0.33,-0.12,-0.02,0.11,0.98,
2.596,-0.04,0.33,-0.12,-0.02,0.11,0.98,
2.597,-0.02,0.29,-0.05,-0.02,0.11,0.98,
2.599,-0.02,0.29,-0.05,-0.02,0.10,0.98,
2.602,-0.02,0.29,-0.05,-0.02,0.10,0.99,
2.603,-0.00,0.25,0.01,-0.02,0.10,0.99,
2.604,-0.00,0.25,0.01,-0.02,0.10,0.99,
2.607,-0.01,0.18,0.08,-0.02,0.10,0.99,
2.607,-0.01,0.18,0.08,-0.02,0.09,0.99,
2.61,-0.01,0.18,0.08,-0.02,0.09,1.00,
2.611,-0.01,0.18,0.08,-0.02,0.09,1.00,
2.611,-0.03,0.13,0.13,-0.02,0.09,1.00,
2.613,-0.03,0.13,0.13,-0.02,0.09,1.00,
2.616,-0.03,0.13,0.13,-0.02,0.09,1.00,
2.617,-0.03,0.12,0.18,-0.02,0.09,1.00,
2.624,-0.03,0.12,0.18,-0.02,0.09,1.01,
2.624,-0.03,0.12,0.18,-0.02,0.10,1.01,
2.625,-0.03,0.13,0.21,-0.02,0.10,1.01,
2.625,-0.03,0.13,0.21,-0.02,0.09,1.01,
2.626,-0.03,0.13,0.21,-0.02,0.09,1.01,
2.626,-0.04,0.14,0.26,-0.02,0.09,1.01,
2.629,-0.04,0.14,0.26,-0.02,0.09,1.01,
2.631,-0.04,0.14,0.26,-0.02,0.09,1.01,
2.631,-0.01,0.13,0.28,-0.02,0.09,1.01,
2.634,-0.01,0.13,0.28,-0.01,0.09,1.01,
2.635,-0.01,0.13,0.28,-0.01,0.09,1.01,
2.636,0.01,0.12,0.26,-0.01,0.09,1.01,
2.638,0.01,0.12,0.26,-0.01,0.09,1.01,
2.641,0.01,0.12,0.26,-0.00,0.09,1.01,
2.641,0.04,0.10,0.27,-0.00,0.09,1.01,
2.643,0.04,0.10,0.27,-0.00,0.09,1.01,
2.645,0.04,0.10,0.27,0.00,0.09,1.00,
2.646,0.11,0.10,0.27,0.00,0.09,1.00,
2.649,0.11,0.10,0.27,0.00,0.09,1.01,
2.65,0.11,0.10,0.27,0.01,0.09,1.00,
2.651,0.16,0.11,0.24,0.01,0.09,1.00,
2.653,0.16,0.11,0.24,0.01,0.09,1.01,
2.655,0.16,0.11,0.24,0.02,0.09,1.01,
2.656,0.20,0.11,0.23,0.02,0.09,1.01,
2.658,0.20,0.11,0.23,0.02,0.09,1.01,
2.66,0.20,0.11,0.23,0.02,0.09,1.01,
2.66,0.28,0.12,0.25,0.02,0.09,1.01,
2.662,0.28,0.12,0.25,0.02,0.09,1.01,
2.665,0.28,0.12,0.25,0.02,0.09,1.01,
2.665,0.34,0.10,0.26,0.02,0.09,1.01,
2.667,0.34,0.10,0.26,0.02,0.09,1.02,
2.67,0.34,0.10,0.26,0.02,0.08,1.02,
2.671,0.37,0.08,0.30,0.02,0.08,1.02,
2.673,0.37,0.08,0.30,0.02,0.08,1.02,
2.675,0.37,0.08,0.30,0.02,0.08,1.02,
2.675,0.38,0.04,0.34,0.02,0.08,1.02,
2.677,0.38,0.04,0.34,0.02,0.08,1.02,
2.68,0.38,0.04,0.34,0.02,0.07,1.02,
2.68,0.36,0.00,0.36,0.02,0.07,1.02,
2.682,0.36,0.00,0.36,0.02,0.07,1.02,
2.685,0.36,0.00,0.36,0.02,0.07,1.02,
2.685,0.36,-0.05,0.35,0.02,0.07,1.02,
2.687,0.36,-0.05,0.35,0.02,0.07,1.02,
2.689,0.36,-0.05,0.35,0.02,0.07,1.02,
2.69,0.36,-0.07,0.36,0.02,0.07,1.02,
2.692,0.36,-0.07,0.36,0.02,0.07,1.02,
2.694,0.32,-0.07,0.35,0.02,0.07,1.02,
2.694,0.32,-0.07,0.35,0.02,0.07,1.02,
2.696,0.32,-0.07,0.35,0.02,0.07,1.02,
2.699,0.32,-0.07,0.35,0.01,0.08,1.02,
2.702,0.30,-0.05,0.35,0.01,0.08,1.02,
2.703,0.30,-0.05,0.35,0.01,0.08,1.02,
2.704,0.30,-0.05,0.35,0.01,0.08,1.01,
2.704,0.27,-0.04,0.32,0.01,0.08,1.01,
2.706,0.27,-0.04,0.32,0.00,0.08,1.01,
2.71,0.27,-0.04,0.32,0.00,0.08,1.01,
2.71,0.19,-0.02,0.28,0.00,0.08,1.01,
2.711,0.19,-0.02,0.28,0.00,0.08,1.00,
2.714,0.19,-0.02,0.28,-0.00,0.09,1.00,
2.714,0.14,-0.01,0.24,-0.00,0.09,1.00,
2.716,0.14,-0.01,0.24,-0.00,0.09,1.00,
2.719,0.14,-0.01,0.24,-0.01,0.09,0.99,
2.72,0.10,0.02,0.18,-0.01,0.09,0.99,
2.721,0.10,0.02,0.18,-0.01,0.09,0.99,
2.724,0.10,0.02,0.18,-0.01,0.09,0.99,
2.724,0.05,0.07,0.12,-0.01,0.09,0.99,
2.726,0.05,0.07,0.12,-0.01,0.10,0.98,
2.73,0.05,0.07,0.12,-0.01,0.10,0.98,
2.73,0.02,0.10,0.06,-0.01,0.10,0.98,
2.731,0.02,0.10,0.06,-0.01,0.10,0.98,
2.733,0.02,0.10,0.06,-0.01,0.10,0.98,
2.734,-0.01,0.14,-0.01,-0.01,0.10,0.98,
2.736,-0.01,0.14,-0.01,-0.01,0.10,0.97,
2.738,-0.01,0.14,-0.01,-0.01,0.10,0.93,
2.739,-0.00,0.17,-0.06,-0.01,0.10,0.93,
2.741,-0.00,0.17,-0.06,-0.02,0.10,0.84,
2.743,-0.00,0.17,-0.06,-0.02,0.11,0.79,
2.744,0.00,0.17,-0.29,-0.02,0.11,0.79,
2.745,0.00,0.17,-0.29,-0.01,0.13,0.82,
2.75,0.00,0.17,-0.29,0.01,0.13,0.88,
2.751,-0.07,0.22,-1.66,0.01,0.13,0.88,
2.751,-0.07,0.22,-1.66,0.01,0.13,0.92,
2.753,-0.07,0.22,-1.66,0.00,0.12,0.94,
2.753,0.11,0.43,-1.28,0.00,0.12,0.94,
2.755,0.11,0.43,-1.28,-0.00,0.11,0.94,
2.758,0.11,0.43,-1.28,-0.00,0.10,0.94,
2.758,0.15,0.35,-0.49,-0.00,0.10,0.94,
2.76,0.15,0.35,-0.49,0.00,0.09,0.94,
2.763,0.15,0.35,-0.49,0.00,0.09,0.95,
2.763,0.12,0.18,-0.38,0.00,0.09,0.95,
2.765,0.12,0.18,-0.38,0.00,0.09,0.96,
2.769,0.12,0.18,-0.38,0.00,0.08,0.98,
2.769,0.15,0.06,-0.36,0.00,0.08,0.98,
2.77,0.15,0.06,-0.36,0.00,0.08,1.00,
2.773,0.15,0.06,-0.36,-0.00,0.07,1.01,
2.773,0.17,-0.01,-0.10,-0.00,0.07,1.01,
2.775,0.17,-0.01,-0.10,-0.00,0.07,1.02,
2.778,0.17,-0.01,-0.10,-0.00,0.07,1.03,
2.778,0.13,-0.09,0.22,-0.00,0.07,1.03,
2.78,0.13,-0.09,0.22,0.00,0.07,1.04,
2.784,0.13,-0.09,0.22,0.00,0.07,1.05,
2.784,0.11,-0.15,0.45,0.00,0.07,1.05,
2.785,0.11,-0.15,0.45,0.00,0.07,1.06,
2.787,0.13,-0.14,0.62,0.00,0.07,1.06,
2.787,0.13,-0.14,0.62,0.00,0.07,1.06,
2.79,0.13,-0.14,0.62,0.00,0.07,1.06,
2.792,0.14,-0.11,0.76,0.00,0.07,1.06,
2.792,0.14,-0.11,0.76,-0.00,0.07,1.06,
2.795,0.14,-0.11,0.76,-0.00,0.07,1.06,
2.797,0.14,-0.11,0.76,-0.01,0.07,1.05,
2.797,0.13,-0.12,0.78,-0.01,0.07,1.05,
2.8,0.13,-0.12,0.78,-0.00,0.08,1.04,
2.803,0.13,-0.12,0.78,-0.00,0.08,1.03,
2.803,0.08,-0.12,0.70,-0.00,0.08,1.03,
2.804,0.08,-0.12,0.70,-0.00,0.08,1.02,
2.807,0.08,-0.12,0.70,-0.00,0.09,1.01,
2.807,0.09,-0.06,0.51,-0.00,0.09,1.01,
2.81,0.09,-0.06,0.51,-0.00,0.09,1.00,
2.812,0.09,-0.06,0.51,-0.01,0.10,0.99,
2.812,0.09,0.01,0.30,-0.01,0.10,0.99,
2.814,0.09,0.01,0.30,-0.01,0.10,0.98,
2.82,0.09,0.01,0.30,-0.01,0.10,0.97,
2.82,0.05,0.08,0.09,-0.01,0.10,0.97,
2.82,0.05,0.08,0.09,-0.02,0.10,0.96,
