
time,ax,ay,az,gFx,gFy,gFz,
0.002,0.07,0.08,-0.18,-0.02,0.13,0.96,
0.003,0.06,0.06,-0.20,-0.02,0.13,0.96,
0.003,0.06,0.06,-0.20,-0.02,0.13,0.96,
0.003,0.06,0.06,-0.20,-0.02,0.13,0.96,
0.003,0.06,0.05,-0.19,-0.02,0.13,0.96,
0.003,0.06,0.05,-0.19,-0.02,0.13,0.96,
0.005,0.06,0.05,-0.19,-0.02,0.13,0.96,
0.006,0.05,0.05,-0.19,-0.02,0.13,0.96,
0.008,0.05,0.05,-0.19,-0.03,0.13,0.96,
0.011,0.05,0.05,-0.19,-0.03,0.13,0.97,
0.011,0.04,0.03,-0.14,-0.03,0.13,0.97,
0.013,0.04,0.03,-0.14,-0.03,0.13,0.97,
0.016,0.04,0.03,-0.14,-0.03,0.13,0.97,
0.016,-0.01,0.05,-0.09,-0.03,0.13,0.97,
0.018,-0.01,0.05,-0.09,-0.03,0.13,0.98,
0.02,-0.01,0.05,-0.09,-0.03,0.13,0.98,
0.021,-0.04,0.02,-0.02,-0.03,0.13,0.98,
0.023,-0.04,0.02,-0.02,-0.03,0.13,0.98,
0.026,-0.05,0.03,0.01,-0.03,0.13,0.98,
0.026,-0.05,0.03,0.01,-0.03,0.13,0.98,
0.035,-0.05,0.03,0.01,-0.03,0.13,0.98,
0.035,-0.05,0.03,0.01,-0.03,0.13,0.99,
0.036,-0.07,-0.00,0.05,-0.03,0.13,0.99,
0.036,-0.07,-0.00,0.05,-0.03,0.13,0.99,
0.036,-0.07,-0.00,0.05,-0.03,0.12,0.99,
0.036,-0.08,-0.02,0.09,-0.03,0.12,0.99,
0.038,-0.08,-0.02,0.09,-0.03,0.13,0.98,
0.04,-0.08,-0.02,0.09,-0.03,0.13,0.98,
0.04,-0.07,-0.04,0.11,-0.03,0.13,0.98,
0.042,-0.07,-0.04,0.11,-0.03,0.13,0.98,
0.045,-0.07,-0.04,0.11,-0.03,0.13,0.98,
0.045,-0.03,-0.04,0.09,-0.03,0.13,0.98,
0.047,-0.03,-0.04,0.09,-0.03,0.13,0.98,
0.05,-0.03,-0.04,0.09,-0.02,0.13,0.98,
0.05,0.01,-0.01,0.09,-0.02,0.13,0.98,
0.052,0.01,-0.01,0.09,-0.03,0.13,0.98,
0.055,0.01,-0.01,0.09,-0.02,0.13,0.98,
0.055,0.01,-0.00,0.07,-0.02,0.13,0.98,
0.057,0.01,-0.00,0.07,-0.03,0.13,0.98,
0.06,0.01,-0.00,0.07,-0.03,0.13,0.98,
0.06,0.01,-0.00,0.06,-0.03,0.13,0.98,
0.062,0.01,-0.00,0.06,-0.03,0.13,0.98,
0.065,0.01,-0.00,0.06,-0.02,0.13,0.98,
0.065,-0.00,-0.01,0.06,-0.02,0.13,0.98,
0.067,-0.00,-0.01,0.06,-0.02,0.13,0.98,
0.069,-0.00,-0.01,0.06,-0.03,0.13,0.98,
0.07,0.00,-0.01,0.04,-0.03,0.13,0.98,
0.071,0.00,-0.01,0.04,-0.02,0.13,0.98,
0.074,0.00,-0.01,0.04,-0.03,0.13,0.98,
0.074,0.00,0.02,0.05,-0.03,0.13,0.98,
0.076,0.00,0.02,0.05,-0.03,0.14,0.98,
0.079,0.00,0.02,0.05,-0.03,0.14,0.98,
0.079,0.00,0.04,0.05,-0.03,0.14,0.98,
0.081,0.00,0.04,0.05,-0.03,0.14,0.98,
0.084,0.00,0.04,0.05,-0.02,0.13,0.98,
0.084,-0.02,0.06,0.04,-0.02,0.13,0.98,
0.087,-0.02,0.06,0.04,-0.02,0.13,0.97,
0.089,-0.02,0.06,0.04,-0.02,0.13,0.97,
0.089,-0.00,0.05,0.00,-0.02,0.13,0.97,
0.091,-0.00,0.05,0.00,-0.02,0.13,0.97,
0.094,-0.00,0.05,0.00,-0.02,0.13,0.97,
0.094,0.02,0.01,-0.03,-0.02,0.13,0.97,
0.096,0.02,0.01,-0.03,-0.02,0.13,0.97,
0.099,0.02,0.01,-0.03,-0.02,0.13,0.97,
0.099,0.06,0.01,-0.05,-0.02,0.13,0.97,
0.101,0.06,0.01,-0.05,-0.02,0.13,0.96,
0.104,0.06,0.01,-0.05,-0.02,0.13,0.97,
0.104,0.06,-0.01,-0.10,-0.02,0.13,0.97,
0.106,0.06,-0.01,-0.10,-0.02,0.13,0.96,
0.108,0.06,-0.01,-0.10,-0.02,0.13,0.96,
0.109,0.07,0.01,-0.10,-0.02,0.13,0.96,
0.113,0.07,0.01,-0.10,-0.02,0.14,0.97,
0.113,0.07,0.01,-0.10,-0.03,0.14,0.96,
0.113,0.05,0.04,-0.11,-0.03,0.14,0.96,
0.116,0.05,0.04,-0.11,-0.03,0.14,0.97,
0.118,0.05,0.04,-0.11,-0.03,0.14,0.97,
0.118,-0.01,0.04,-0.11,-0.03,0.14,0.97,
0.121,-0.01,0.04,-0.11,-0.03,0.14,0.97,
0.123,-0.01,0.04,-0.11,-0.04,0.14,0.97,
0.123,-0.02,0.07,-0.10,-0.04,0.14,0.97,
0.126,-0.02,0.07,-0.10,-0.04,0.14,0.97,
0.128,-0.02,0.07,-0.10,-0.04,0.14,0.97,
0.128,-0.07,0.09,-0.09,-0.04,0.14,0.97,
0.13,-0.07,0.09,-0.09,-0.04,0.14,0.97,
0.133,-0.07,0.09,-0.09,-0.04,0.15,0.97,
0.133,-0.12,0.12,-0.09,-0.04,0.15,0.97,
0.135,-0.12,0.12,-0.09,-0.05,0.15,0.97,
0.138,-0.12,0.12,-0.09,-0.05,0.15,0.97,
0.138,-0.16,0.14,-0.08,-0.05,0.15,0.97,
0.14,-0.16,0.14,-0.08,-0.05,0.15,0.97,
0.143,-0.16,0.14,-0.08,-0.05,0.15,0.97,
0.143,-0.19,0.15,-0.05,-0.05,0.15,0.97,
0.145,-0.19,0.15,-0.05,-0.05,0.15,0.97,
0.148,-0.19,0.15,-0.05,-0.06,0.15,0.97,
0.148,-0.23,0.15,-0.04,-0.06,0.15,0.97,
0.15,-0.23,0.15,-0.04,-0.06,0.15,0.97,
0.153,-0.23,0.15,-0.04,-0.06,0.15,0.97,
0.153,-0.26,0.15,-0.04,-0.06,0.15,0.97,
0.155,-0.26,0.15,-0.04,-0.06,0.15,0.97,
0.157,-0.26,0.15,-0.04,-0.06,0.15,0.97,
0.158,-0.26,0.15,-0.01,-0.06,0.15,0.97,
0.16,-0.26,0.15,-0.01,-0.06,0.15,0.97,
0.163,-0.26,0.15,-0.01,-0.06,0.14,0.97,
0.163,-0.28,0.13,-0.02,-0.06,0.14,0.97,
0.165,-0.28,0.13,-0.02,-0.06,0.15,0.97,
0.167,-0.28,0.13,-0.02,-0.06,0.15,0.97,
0.167,-0.28,0.13,-0.01,-0.06,0.15,0.97,
0.169,-0.28,0.13,-0.01,-0.06,0.14,0.97,
0.172,-0.28,0.13,-0.01,-0.06,0.14,0.97,
0.173,-0.27,0.13,-0.02,-0.06,0.14,0.97,
0.174,-0.27,0.13,-0.02,-0.06,0.14,0.97,
0.177,-0.27,0.13,-0.02,-0.06,0.14,0.97,
0.177,-0.27,0.11,-0.03,-0.06,0.14,0.97,
0.179,-0.27,0.11,-0.03,-0.06,0.14,0.97,
0.182,-0.27,0.11,-0.03,-0.06,0.14,0.97,
0.182,-0.26,0.10,-0.04,-0.06,0.14,0.97,
0.185,-0.26,0.10,-0.04,-0.06,0.14,0.97,
0.187,-0.26,0.10,-0.04,-0.06,0.14,0.96,
0.187,-0.26,0.10,-0.06,-0.06,0.14,0.96,
0.189,-0.26,0.10,-0.06,-0.06,0.14,0.96,
0.192,-0.26,0.10,-0.06,-0.06,0.14,0.96,
0.192,-0.27,0.11,-0.09,-0.06,0.14,0.96,
0.194,-0.27,0.11,-0.09,-0.06,0.14,0.96,
0.197,-0.29,0.10,-0.11,-0.06,0.14,0.96,
0.197,-0.29,0.10,-0.11,-0.06,0.14,0.96,
0.199,-0.29,0.10,-0.11,-0.06,0.14,0.96,
0.201,-0.29,0.10,-0.11,-0.06,0.14,0.96,
0.202,-0.28,0.10,-0.11,-0.06,0.14,0.96,
0.204,-0.28,0.10,-0.11,-0.06,0.14,0.96,
0.207,-0.28,0.10,-0.11,-0.06,0.14,0.96,
0.207,-0.29,0.10,-0.12,-0.06,0.14,0.96,
0.209,-0.29,0.10,-0.12,-0.06,0.14,0.96,
0.218,-0.29,0.10,-0.12,-0.06,0.14,0.96,
0.218,-0.28,0.11,-0.10,-0.06,0.14,0.96,
0.218,-0.28,0.11,-0.10,-0.06,0.14,0.96,
0.218,-0.28,0.11,-0.10,-0.06,0.14,0.96,
0.218,-0.27,0.09,-0.10,-0.06,0.14,0.96,
0.219,-0.27,0.09,-0.10,-0.06,0.14,0.96,
0.221,-0.27,0.09,-0.10,-0.06,0.14,0.97,
0.221,-0.27,0.09,-0.12,-0.06,0.14,0.97,
0.224,-0.27,0.09,-0.12,-0.06,0.14,0.97,
0.226,-0.27,0.09,-0.12,-0.06,0.14,0.96,
0.226,-0.25,0.09,-0.08,-0.06,0.14,0.96,
0.228,-0.25,0.09,-0.08,-0.06,0.14,0.96,
0.231,-0.25,0.09,-0.08,-0.06,0.14,0.96,
0.231,-0.25,0.09,-0.08,-0.06,0.14,0.96,
0.233,-0.25,0.09,-0.08,-0.06,0.14,0.96,
0.236,-0.25,0.09,-0.08,-0.06,0.14,0.97,
0.236,-0.25,0.09,-0.09,-0.06,0.14,0.97,
0.238,-0.25,0.09,-0.09,-0.06,0.14,0.97,
0.241,-0.25,0.09,-0.09,-0.06,0.14,0.97,
0.241,-0.24,0.09,-0.08,-0.06,0.14,0.97,
0.243,-0.24,0.09,-0.08,-0.06,0.14,0.97,
0.245,-0.24,0.09,-0.08,-0.06,0.14,0.97,
0.246,-0.24,0.08,-0.06,-0.06,0.14,0.97,
0.248,-0.24,0.08,-0.06,-0.06,0.14,0.97,
0.25,-0.24,0.08,-0.06,-0.06,0.14,0.97,
0.251,-0.24,0.08,-0.06,-0.06,0.14,0.97,
0.253,-0.24,0.08,-0.06,-0.06,0.14,0.97,
0.255,-0.24,0.08,-0.06,-0.06,0.14,0.97,
0.255,-0.25,0.07,-0.05,-0.06,0.14,0.97,
0.258,-0.25,0.07,-0.05,-0.06,0.14,0.97,
0.26,-0.25,0.07,-0.05,-0.06,0.14,0.97,
0.261,-0.22,0.06,-0.07,-0.06,0.14,0.97,
0.263,-0.22,0.06,-0.07,-0.05,0.14,0.97,
0.265,-0.22,0.06,-0.07,-0.05,0.14,0.97,
0.265,-0.22,0.05,-0.07,-0.05,0.14,0.97,
0.267,-0.22,0.05,-0.07,-0.05,0.14,0.97,
0.27,-0.22,0.05,-0.07,-0.05,0.14,0.97,
0.27,-0.20,0.06,-0.08,-0.05,0.14,0.97,
0.272,-0.20,0.06,-0.08,-0.05,0.14,0.97,
0.277,-0.20,0.06,-0.08,-0.05,0.14,0.97,
0.277,-0.19,0.07,-0.07,-0.05,0.14,0.97,
0.278,-0.19,0.07,-0.07,-0.05,0.14,0.96,
0.28,-0.19,0.07,-0.07,-0.05,0.14,0.96,
0.28,-0.19,0.07,-0.08,-0.05,0.14,0.96,
0.282,-0.19,0.07,-0.08,-0.05,0.14,0.96,
0.285,-0.19,0.07,-0.08,-0.05,0.14,0.96,
0.285,-0.18,0.07,-0.09,-0.05,0.14,0.96,
0.287,-0.18,0.07,-0.09,-0.05,0.14,0.96,
0.29,-0.18,0.07,-0.09,-0.05,0.14,0.96,
0.29,-0.18,0.07,-0.12,-0.05,0.14,0.96,
0.293,-0.18,0.07,-0.12,-0.05,0.14,0.96,
0.295,-0.18,0.07,-0.12,-0.05,0.14,0.96,
0.295,-0.17,0.12,-0.12,-0.05,0.14,0.96,
0.297,-0.17,0.12,-0.12,-0.05,0.15,0.95,
0.299,-0.17,0.12,-0.12,-0.05,0.15,0.95,
0.3,-0.17,0.13,-0.16,-0.05,0.15,0.95,
0.302,-0.17,0.13,-0.16,-0.05,0.15,0.95,
0.304,-0.17,0.13,-0.16,-0.05,0.14,0.95,
0.304,-0.16,0.14,-0.19,-0.05,0.14,0.95,
0.306,-0.16,0.14,-0.19,-0.05,0.15,0.95,
0.31,-0.16,0.14,-0.19,-0.05,0.15,0.95,
0.31,-0.16,0.13,-0.21,-0.05,0.15,0.95,
0.311,-0.16,0.13,-0.21,-0.05,0.14,0.95,
0.314,-0.16,0.13,-0.21,-0.05,0.14,0.95,
0.314,-0.16,0.15,-0.23,-0.05,0.14,0.95,
0.316,-0.16,0.15,-0.23,-0.05,0.14,0.95,
0.319,-0.16,0.15,-0.23,-0.05,0.14,0.95,
0.319,-0.15,0.12,-0.25,-0.05,0.14,0.95,
0.321,-0.15,0.12,-0.25,-0.05,0.14,0.95,
0.324,-0.15,0.12,-0.25,-0.05,0.14,0.94,
0.324,-0.15,0.11,-0.26,-0.05,0.14,0.94,
0.332,-0.15,0.11,-0.26,-0.05,0.14,0.94,
0.333,-0.15,0.11,-0.26,-0.05,0.14,0.94,
0.333,-0.14,0.08,-0.27,-0.05,0.14,0.94,
0.333,-0.14,0.08,-0.27,-0.05,0.14,0.94,
0.334,-0.14,0.08,-0.27,-0.05,0.13,0.95,
0.334,-0.12,0.08,-0.27,-0.05,0.13,0.95,
0.336,-0.12,0.08,-0.27,-0.05,0.14,0.95,
0.338,-0.12,0.08,-0.27,-0.05,0.13,0.95,
0.339,-0.13,0.06,-0.27,-0.05,0.13,0.95,
0.341,-0.13,0.06,-0.27,-0.05,0.13,0.95,
0.344,-0.13,0.06,-0.27,-0.06,0.14,0.95,
0.344,-0.15,0.06,-0.24,-0.06,0.14,0.95,
0.346,-0.15,0.06,-0.24,-0.06,0.13,0.95,
0.348,-0.15,0.06,-0.24,-0.06,0.14,0.95,
0.349,-0.19,0.07,-0.23,-0.06,0.14,0.95,
0.351,-0.19,0.07,-0.23,-0.06,0.14,0.96,
0.353,-0.19,0.07,-0.23,-0.06,0.14,0.96,
0.354,-0.21,0.08,-0.17,-0.06,0.14,0.96,
0.356,-0.21,0.08,-0.17,-0.06,0.14,0.96,
0.358,-0.21,0.08,-0.17,-0.06,0.14,0.97,
0.358,-0.24,0.12,-0.11,-0.06,0.14,0.97,
0.361,-0.24,0.12,-0.11,-0.07,0.13,0.97,
0.363,-0.24,0.12,-0.11,-0.07,0.13,0.98,
0.363,-0.27,0.11,-0.05,-0.07,0.13,0.98,
0.365,-0.27,0.11,-0.05,-0.07,0.14,0.98,
0.368,-0.27,0.11,-0.05,-0.07,0.14,0.98,
0.368,-0.30,0.08,0.03,-0.07,0.14,0.98,
0.37,-0.30,0.08,0.03,-0.07,0.14,0.99,
0.373,-0.30,0.08,0.03,-0.07,0.14,0.99,
0.373,-0.32,0.11,0.10,-0.07,0.14,0.99,
0.375,-0.32,0.11,0.10,-0.08,0.14,0.99,
0.378,-0.35,0.11,0.16,-0.08,0.14,0.99,
0.379,-0.35,0.11,0.16,-0.08,0.13,0.99,
0.38,-0.35,0.11,0.16,-0.09,0.13,1.00,
0.383,-0.35,0.11,0.16,-0.09,0.13,1.00,
0.383,-0.42,0.09,0.21,-0.09,0.13,1.00,
0.385,-0.42,0.09,0.21,-0.09,0.13,1.00,
0.387,-0.42,0.09,0.21,-0.09,0.13,1.00,
0.388,-0.45,0.07,0.24,-0.09,0.13,1.00,
0.39,-0.45,0.07,0.24,-0.09,0.13,1.01,
0.393,-0.45,0.07,0.24,-0.09,0.12,1.01,
0.393,-0.45,0.05,0.27,-0.09,0.12,1.01,
0.395,-0.45,0.05,0.27,-0.09,0.12,1.01,
0.397,-0.45,0.05,0.27,-0.09,0.12,1.01,
0.398,-0.46,0.01,0.33,-0.09,0.12,1.01,
0.4,-0.46,0.01,0.33,-0.09,0.12,1.01,
0.402,-0.46,0.01,0.33,-0.09,0.12,1.01,
0.402,-0.44,0.01,0.36,-0.09,0.12,1.01,
0.404,-0.44,0.01,0.36,-0.09,0.12,1.01,
0.408,-0.44,0.01,0.36,-0.08,0.11,1.01,
0.408,-0.42,-0.03,0.38,-0.08,0.11,1.01,
0.413,-0.42,-0.03,0.38,-0.08,0.11,1.02,
0.413,-0.42,-0.03,0.38,-0.08,0.11,1.02,
0.414,-0.39,-0.07,0.39,-0.08,0.11,1.02,
0.414,-0.39,-0.07,0.39,-0.08,0.11,1.02,
0.417,-0.39,-0.07,0.39,-0.07,0.11,1.02,
0.417,-0.34,-0.10,0.40,-0.07,0.11,1.02,
0.419,-0.34,-0.10,0.40,-0.07,0.10,1.01,
0.422,-0.34,-0.10,0.40,-0.08,0.10,1.01,
0.422,-0.29,-0.14,0.41,-0.08,0.10,1.01,
0.424,-0.29,-0.14,0.41,-0.08,0.10,1.01,
0.427,-0.29,-0.14,0.41,-0.07,0.10,1.01,
0.427,-0.28,-0.18,0.38,-0.07,0.10,1.01,
0.429,-0.28,-0.18,0.38,-0.08,0.10,1.01,
0.431,-0.28,-0.18,0.38,-0.08,0.10,1.01,
0.432,-0.27,-0.21,0.37,-0.08,0.10,1.01,
0.434,-0.27,-0.21,0.37,-0.08,0.10,1.01,
0.436,-0.27,-0.21,0.37,-0.08,0.10,1.01,
0.436,-0.28,-0.23,0.33,-0.08,0.10,1.01,
0.439,-0.28,-0.23,0.33,-0.08,0.10,1.00,
0.441,-0.28,-0.23,0.33,-0.08,0.10,1.00,
0.443,-0.29,-0.25,0.30,-0.08,0.10,1.00,
0.444,-0.29,-0.25,0.30,-0.08,0.10,1.00,
0.447,-0.29,-0.25,0.30,-0.08,0.10,1.00,
0.447,-0.31,-0.24,0.27,-0.08,0.10,1.00,
0.449,-0.31,-0.24,0.27,-0.09,0.10,1.00,
0.451,-0.31,-0.24,0.27,-0.09,0.10,1.00,
0.451,-0.33,-0.22,0.24,-0.09,0.10,1.00,
0.453,-0.33,-0.22,0.24,-0.09,0.10,1.00,
0.456,-0.33,-0.22,0.24,-0.09,0.10,1.00,
0.456,-0.37,-0.20,0.24,-0.09,0.10,1.00,
0.459,-0.37,-0.20,0.24,-0.09,0.10,1.00,
0.461,-0.37,-0.20,0.24,-0.10,0.10,1.00,
0.461,-0.39,-0.17,0.25,-0.10,0.10,1.00,
0.463,-0.39,-0.17,0.25,-0.10,0.10,1.00,
0.466,-0.39,-0.17,0.25,-0.10,0.10,1.00,
0.467,-0.42,-0.17,0.21,-0.10,0.10,1.00,
0.468,-0.42,-0.17,0.21,-0.10,0.10,0.99,
0.471,-0.42,-0.17,0.21,-0.10,0.10,0.99,
0.471,-0.45,-0.17,0.20,-0.10,0.10,0.99,
0.473,-0.45,-0.17,0.20,-0.10,0.11,0.99,
0.476,-0.45,-0.17,0.20,-0.10,0.11,0.99,
0.476,-0.45,-0.16,0.17,-0.10,0.11,0.99,
0.478,-0.45,-0.16,0.17,-0.10,0.10,0.99,
0.481,-0.45,-0.16,0.17,-0.10,0.10,0.99,
0.481,-0.46,-0.15,0.15,-0.10,0.10,0.99,
0.483,-0.46,-0.15,0.15,-0.10,0.10,0.99,
0.485,-0.46,-0.15,0.15,-0.10,0.10,0.99,
0.486,-0.44,-0.16,0.13,-0.10,0.10,0.99,
0.488,-0.44,-0.16,0.13,-0.10,0.10,0.99,
0.49,-0.44,-0.16,0.13,-0.10,0.10,0.99,
0.491,-0.42,-0.17,0.11,-0.10,0.10,0.99,
0.493,-0.42,-0.17,0.11,-0.10,0.10,0.98,
0.495,-0.42,-0.17,0.11,-0.09,0.10,0.98,
0.496,-0.40,-0.20,0.09,-0.09,0.10,0.98,
0.498,-0.40,-0.20,0.09,-0.09,0.09,0.98,
0.5,-0.40,-0.20,0.09,-0.09,0.09,0.98,
0.5,-0.37,-0.24,0.07,-0.09,0.09,0.98,
0.502,-0.37,-0.24,0.07,-0.09,0.09,0.98,
0.505,-0.37,-0.24,0.07,-0.09,0.09,0.98,
0.505,-0.33,-0.26,0.04,-0.09,0.09,0.98,
0.507,-0.33,-0.26,0.04,-0.09,0.09,0.97,
0.51,-0.33,-0.26,0.04,-0.09,0.09,0.97,
0.511,-0.31,-0.26,-0.01,-0.09,0.09,0.97,
0.512,-0.31,-0.26,-0.01,-0.09,0.09,0.97,
0.515,-0.31,-0.26,-0.01,-0.09,0.09,0.97,
0.515,-0.29,-0.29,-0.05,-0.09,0.09,0.97,
0.517,-0.29,-0.29,-0.05,-0.09,0.09,0.97,
0.52,-0.29,-0.29,-0.05,-0.09,0.10,0.96,
0.52,-0.28,-0.27,-0.08,-0.09,0.10,0.96,
0.522,-0.28,-0.27,-0.08,-0.09,0.10,0.96,
0.531,-0.28,-0.27,-0.08,-0.09,0.10,0.96,
0.532,-0.28,-0.24,-0.11,-0.09,0.10,0.96,
0.533,-0.28,-0.24,-0.11,-0.09,0.10,0.96,
0.533,-0.28,-0.24,-0.11,-0.10,0.11,0.96,
0.533,-0.28,-0.22,-0.14,-0.10,0.11,0.96,
0.534,-0.28,-0.22,-0.14,-0.10,0.11,0.96,
0.535,-0.30,-0.17,-0.18,-0.10,0.11,0.96,
0.535,-0.30,-0.17,-0.18,-0.10,0.11,0.96,
0.537,-0.30,-0.17,-0.18,-0.10,0.11,0.96,
0.539,-0.30,-0.17,-0.18,-0.10,0.11,0.96,
0.54,-0.33,-0.16,-0.17,-0.10,0.11,0.96,
0.549,-0.33,-0.16,-0.17,-0.11,0.11,0.96,
0.549,-0.33,-0.16,-0.17,-0.11,0.11,0.96,
0.549,-0.37,-0.11,-0.18,-0.11,0.11,0.96,
0.549,-0.37,-0.11,-0.18,-0.11,0.11,0.96,
0.549,-0.37,-0.11,-0.18,-0.11,0.11,0.96,
0.549,-0.42,-0.09,-0.18,-0.11,0.11,0.96,
0.551,-0.42,-0.09,-0.18,-0.12,0.12,0.96,
0.554,-0.42,-0.09,-0.18,-0.12,0.12,0.96,
0.554,-0.45,-0.09,-0.16,-0.12,0.12,0.96,
0.556,-0.45,-0.09,-0.16,-0.12,0.12,0.96,
0.559,-0.45,-0.09,-0.16,-0.12,0.12,0.96,
0.559,-0.46,-0.08,-0.16,-0.12,0.12,0.96,
0.561,-0.46,-0.08,-0.16,-0.12,0.11,0.96,
0.564,-0.46,-0.08,-0.16,-0.12,0.11,0.96,
0.564,-0.48,-0.07,-0.16,-0.12,0.11,0.96,
0.566,-0.48,-0.07,-0.16,-0.12,0.11,0.96,
0.569,-0.48,-0.07,-0.16,-0.12,0.11,0.96,
0.569,-0.50,-0.09,-0.17,-0.12,0.11,0.96,
0.571,-0.50,-0.09,-0.17,-0.12,0.11,0.96,
0.574,-0.50,-0.09,-0.17,-0.12,0.11,0.96,
0.574,-0.48,-0.11,-0.18,-0.12,0.11,0.96,
0.576,-0.48,-0.11,-0.18,-0.12,0.11,0.96,
0.579,-0.48,-0.11,-0.18,-0.12,0.11,0.96,
0.581,-0.46,-0.13,-0.18,-0.12,0.11,0.96,
0.581,-0.46,-0.13,-0.18,-0.12,0.11,0.96,
0.584,-0.46,-0.13,-0.18,-0.12,0.10,0.96,
0.584,-0.44,-0.14,-0.16,-0.12,0.10,0.96,
0.586,-0.44,-0.14,-0.16,-0.11,0.10,0.96,
0.588,-0.44,-0.14,-0.16,-0.11,0.10,0.96,
0.588,-0.42,-0.18,-0.14,-0.11,0.10,0.96,
0.59,-0.42,-0.18,-0.14,-0.11,0.10,0.96,
0.593,-0.42,-0.18,-0.14,-0.11,0.10,0.96,
0.594,-0.35,-0.20,-0.13,-0.11,0.10,0.96,
0.596,-0.35,-0.20,-0.13,-0.11,0.10,0.96,
0.598,-0.35,-0.20,-0.13,-0.10,0.10,0.95,
0.598,-0.30,-0.21,-0.14,-0.10,0.10,0.95,
0.6,-0.30,-0.21,-0.14,-0.10,0.10,0.96,
0.603,-0.30,-0.21,-0.14,-0.10,0.10,0.95,
0.603,-0.26,-0.23,-0.17,-0.10,0.10,0.95,
0.605,-0.26,-0.23,-0.17,-0.09,0.10,0.95,
0.614,-0.26,-0.23,-0.17,-0.09,0.10,0.95,
0.614,-0.19,-0.20,-0.18,-0.09,0.10,0.95,
0.614,-0.19,-0.20,-0.18,-0.09,0.10,0.95,
0.615,-0.19,-0.20,-0.18,-0.09,0.11,0.95,
0.615,-0.12,-0.20,-0.18,-0.09,0.11,0.95,
0.615,-0.12,-0.20,-0.18,-0.09,0.11,0.95,
0.618,-0.12,-0.20,-0.18,-0.08,0.11,0.95,
0.618,-0.09,-0.17,-0.21,-0.08,0.11,0.95,
0.62,-0.09,-0.17,-0.21,-0.08,0.11,0.95,
0.622,-0.09,-0.17,-0.21,-0.09,0.11,0.95,
0.623,-0.03,-0.17,-0.23,-0.09,0.11,0.95,
0.627,-0.03,-0.17,-0.23,-0.08,0.11,0.95,
0.628,-0.03,-0.17,-0.23,-0.08,0.11,0.95,
0.628,-0.02,-0.16,-0.23,-0.08,0.11,0.95,
0.63,-0.02,-0.16,-0.23,-0.08,0.11,0.95,
0.633,-0.02,-0.16,-0.23,-0.08,0.11,0.95,
0.633,0.00,-0.13,-0.22,-0.08,0.11,0.95,
0.635,0.00,-0.13,-0.22,-0.09,0.11,0.95,
0.637,0.00,-0.13,-0.22,-0.09,0.11,0.95,
0.638,-0.00,-0.13,-0.24,-0.09,0.11,0.95,
0.639,-0.00,-0.13,-0.24,-0.09,0.11,0.95,
0.642,-0.00,-0.13,-0.24,-0.09,0.11,0.95,
0.642,-0.02,-0.11,-0.25,-0.09,0.11,0.95,
0.644,-0.02,-0.11,-0.25,-0.09,0.11,0.94,
0.647,-0.02,-0.11,-0.25,-0.09,0.11,0.94,
0.647,-0.03,-0.11,-0.25,-0.09,0.11,0.94,
0.649,-0.03,-0.11,-0.25,-0.09,0.11,0.95,
0.652,-0.03,-0.11,-0.25,-0.09,0.11,0.95,
0.653,-0.06,-0.09,-0.26,-0.09,0.11,0.95,
0.654,-0.06,-0.09,-0.26,-0.09,0.11,0.94,
0.657,-0.06,-0.09,-0.26,-0.09,0.11,0.94,
0.657,-0.05,-0.10,-0.24,-0.09,0.11,0.94,
0.659,-0.05,-0.10,-0.24,-0.09,0.11,0.95,
0.662,-0.05,-0.10,-0.24,-0.10,0.11,0.95,
0.662,-0.05,-0.10,-0.25,-0.10,0.11,0.95,
0.664,-0.05,-0.10,-0.25,-0.09,0.11,0.95,
0.666,-0.05,-0.10,-0.25,-0.09,0.11,0.95,
0.667,-0.08,-0.10,-0.24,-0.09,0.11,0.95,
0.669,-0.08,-0.10,-0.24,-0.09,0.11,0.95,
0.671,-0.08,-0.10,-0.24,-0.09,0.10,0.94,
0.671,-0.05,-0.13,-0.23,-0.09,0.10,0.94,
0.674,-0.05,-0.13,-0.23,-0.09,0.11,0.94,
0.677,-0.05,-0.13,-0.23,-0.09,0.11,0.94,
0.677,-0.04,-0.15,-0.24,-0.09,0.11,0.94,
0.679,-0.04,-0.15,-0.24,-0.09,0.10,0.94,
0.681,-0.04,-0.15,-0.24,-0.08,0.10,0.94,
0.682,0.00,-0.14,-0.25,-0.08,0.10,0.94,
0.684,0.00,-0.14,-0.25,-0.08,0.11,0.94,
0.686,0.00,-0.14,-0.25,-0.07,0.11,0.94,
0.687,0.05,-0.15,-0.25,-0.07,0.11,0.94,
0.689,0.05,-0.15,-0.25,-0.07,0.11,0.94,
0.692,0.05,-0.15,-0.25,-0.07,0.11,0.95,
0.692,0.17,-0.13,-0.26,-0.07,0.11,0.95,
0.694,0.17,-0.13,-0.26,-0.06,0.10,0.95,
0.697,0.17,-0.13,-0.26,-0.06,0.10,0.95,
0.697,0.22,-0.14,-0.23,-0.06,0.10,0.95,
0.699,0.22,-0.14,-0.23,-0.06,0.10,0.95,
0.701,0.22,-0.14,-0.23,-0.06,0.10,0.95,
0.701,0.29,-0.14,-0.22,-0.06,0.10,0.95,
0.704,0.29,-0.14,-0.22,-0.06,0.10,0.95,
0.706,0.29,-0.14,-0.22,-0.06,0.10,0.96,
0.706,0.32,-0.16,-0.18,-0.06,0.10,0.96,
0.709,0.32,-0.16,-0.18,-0.06,0.10,0.96,
0.711,0.32,-0.16,-0.18,-0.06,0.09,0.96,
0.711,0.33,-0.20,-0.13,-0.06,0.09,0.96,
0.713,0.33,-0.20,-0.13,-0.06,0.09,0.96,
0.716,0.33,-0.20,-0.13,-0.06,0.09,0.97,
0.716,0.34,-0.24,-0.08,-0.06,0.09,0.97,
0.718,0.34,-0.24,-0.08,-0.07,0.09,0.97,
0.721,0.34,-0.24,-0.08,-0.07,0.09,0.97,
0.721,0.35,-0.24,-0.03,-0.07,0.09,0.97,
0.723,0.35,-0.24,-0.03,-0.07,0.09,0.97,
0.73,0.35,-0.24,-0.03,-0.07,0.09,0.97,
0.73,0.32,-0.27,0.00,-0.07,0.09,0.97,
0.73,0.32,-0.27,0.00,-0.07,0.09,0.97,
0.731,0.32,-0.27,0.00,-0.07,0.09,0.97,
0.731,0.31,-0.29,0.02,-0.07,0.09,0.97,
0.733,0.31,-0.29,0.02,-0.08,0.09,0.97,
0.735,0.31,-0.29,0.02,-0.08,0.09,0.98,
0.735,0.30,-0.27,0.06,-0.08,0.09,0.98,
0.738,0.30,-0.27,0.06,-0.08,0.09,0.98,
0.74,0.30,-0.27,0.06,-0.08,0.09,0.98,
0.74,0.27,-0.25,0.09,-0.08,0.09,0.98,
0.744,0.27,-0.25,0.09,-0.09,0.09,0.98,
0.745,0.27,-0.25,0.09,-0.09,0.09,0.98,
0.745,0.24,-0.25,0.10,-0.09,0.09,0.98,
0.747,0.24,-0.25,0.10,-0.09,0.09,0.98,
0.75,0.24,-0.25,0.10,-0.09,0.10,0.98,
0.75,0.19,-0.23,0.14,-0.09,0.10,0.98,
0.752,0.19,-0.23,0.14,-0.09,0.10,0.98,
0.755,0.19,-0.23,0.14,-0.09,0.10,0.98,
0.755,0.18,-0.22,0.15,-0.09,0.10,0.98,
0.757,0.18,-0.22,0.15,-0.10,0.09,0.99,
0.759,0.18,-0.22,0.15,-0.10,0.09,0.99,
0.76,0.16,-0.20,0.18,-0.10,0.09,0.99,
0.762,0.16,-0.20,0.18,-0.09,0.10,0.99,
0.764,0.16,-0.20,0.18,-0.09,0.09,0.99,
0.764,0.16,-0.22,0.19,-0.09,0.09,0.99,
0.767,0.16,-0.22,0.19,-0.09,0.09,0.99,
0.769,0.16,-0.22,0.19,-0.09,0.10,0.99,
0.769,0.19,-0.21,0.19,-0.09,0.10,0.99,
0.772,0.19,-0.21,0.19,-0.09,0.09,0.99,
0.774,0.19,-0.21,0.19,-0.09,0.09,0.99,
0.775,0.22,-0.21,0.21,-0.09,0.09,0.99,
0.777,0.22,-0.21,0.21,-0.09,0.09,0.99,
0.779,0.22,-0.21,0.21,-0.09,0.09,0.99,
0.779,0.23,-0.24,0.22,-0.09,0.09,0.99,
0.781,0.23,-0.24,0.22,-0.08,0.09,0.99,
0.784,0.23,-0.24,0.22,-0.08,0.09,0.99,
0.784,0.28,-0.24,0.24,-0.08,0.09,0.99,
0.786,0.28,-0.24,0.24,-0.08,0.09,0.99,
0.789,0.28,-0.24,0.24,-0.08,0.09,0.99,
0.789,0.32,-0.24,0.23,-0.08,0.09,0.99,
0.791,0.32,-0.24,0.23,-0.07,0.09,0.99,
0.794,0.32,-0.24,0.23,-0.07,0.09,0.99,
0.794,0.37,-0.25,0.25,-0.07,0.09,0.99,
0.796,0.37,-0.25,0.25,-0.06,0.09,0.99,
0.799,0.37,-0.25,0.25,-0.06,0.08,0.99,
0.799,0.46,-0.27,0.25,-0.06,0.08,0.99,
0.801,0.46,-0.27,0.25,-0.06,0.08,0.99,
0.804,0.46,-0.27,0.25,-0.06,0.08,1.00,
0.804,0.54,-0.28,0.25,-0.06,0.08,1.00,
0.806,0.54,-0.28,0.25,-0.05,0.08,1.00,
0.815,0.54,-0.28,0.25,-0.05,0.08,1.00,
0.816,0.60,-0.31,0.27,-0.05,0.08,1.00,
0.816,0.60,-0.31,0.27,-0.05,0.08,1.00,
0.817,0.60,-0.31,0.27,-0.05,0.08,1.00,
0.817,0.64,-0.33,0.28,-0.05,0.08,1.00,
0.817,0.64,-0.33,0.28,-0.05,0.08,1.00,
0.818,0.64,-0.33,0.28,-0.05,0.08,1.00,
0.819,0.69,-0.33,0.28,-0.05,0.08,1.00,
0.821,0.69,-0.33,0.28,-0.05,0.08,1.00,
0.824,0.69,-0.33,0.28,-0.05,0.08,1.00,
0.824,0.71,-0.32,0.29,-0.05,0.08,1.00,
0.826,0.71,-0.32,0.29,-0.05,0.08,1.00,
0.828,0.71,-0.32,0.29,-0.05,0.08,1.00,
0.828,0.68,-0.31,0.30,-0.05,0.08,1.00,
0.831,0.68,-0.31,0.30,-0.06,0.08,1.00,
0.833,0.68,-0.31,0.30,-0.06,0.08,1.00,
0.833,0.65,-0.29,0.31,-0.06,0.08,1.00,
0.835,0.65,-0.29,0.31,-0.06,0.09,1.00,
0.838,0.65,-0.29,0.31,-0.06,0.08,1.00,
0.838,0.60,-0.28,0.29,-0.06,0.08,1.00,
0.841,0.60,-0.28,0.29,-0.07,0.08,1.00,
0.843,0.60,-0.28,0.29,-0.07,0.09,0.99,
0.843,0.57,-0.25,0.28,-0.07,0.09,0.99,
0.845,0.57,-0.25,0.28,-0.07,0.09,1.00,
0.848,0.57,-0.25,0.28,-0.07,0.09,0.99,
0.848,0.52,-0.24,0.26,-0.07,0.09,0.99,
0.85,0.52,-0.24,0.26,-0.08,0.09,0.99,
0.853,0.52,-0.24,0.26,-0.08,0.08,0.99,
0.853,0.48,-0.22,0.25,-0.08,0.08,0.99,
0.855,0.48,-0.22,0.25,-0.08,0.09,0.99,
0.858,0.48,-0.22,0.25,-0.08,0.09,0.99,
0.858,0.44,-0.23,0.24,-0.08,0.09,0.99,
0.86,0.44,-0.23,0.24,-0.08,0.08,0.99,
0.862,0.44,-0.23,0.24,-0.08,0.08,0.99,
0.863,0.46,-0.23,0.23,-0.08,0.08,0.99,
0.865,0.46,-0.23,0.23,-0.08,0.09,0.99,
0.867,0.46,-0.23,0.23,-0.07,0.08,0.99,
0.867,0.46,-0.23,0.23,-0.07,0.08,0.99,
0.87,0.46,-0.23,0.23,-0.07,0.08,0.99,
0.873,0.46,-0.23,0.23,-0.07,0.08,0.99,
0.873,0.49,-0.24,0.23,-0.07,0.08,0.99,
0.875,0.49,-0.24,0.23,-0.07,0.08,0.99,
0.877,0.49,-0.24,0.23,-0.07,0.08,0.99,
0.878,0.53,-0.25,0.22,-0.07,0.08,0.99,
0.88,0.53,-0.25,0.22,-0.06,0.08,0.99,
0.882,0.53,-0.25,0.22,-0.06,0.07,0.99,
0.882,0.58,-0.28,0.21,-0.06,0.07,0.99,
0.884,0.58,-0.28,0.21,-0.05,0.07,0.99,
0.887,0.58,-0.28,0.21,-0.05,0.07,0.99,
0.887,0.64,-0.32,0.22,-0.05,0.07,0.99,
0.889,0.64,-0.32,0.22,-0.05,0.07,0.99,
0.892,0.64,-0.32,0.22,-0.05,0.07,0.99,
0.893,0.72,-0.37,0.23,-0.05,0.07,0.99,
0.894,0.72,-0.37,0.23,-0.04,0.06,0.99,
0.897,0.75,-0.39,0.21,-0.04,0.06,0.99,
0.897,0.75,-0.39,0.21,-0.04,0.06,0.99,
0.899,0.75,-0.39,0.21,-0.04,0.06,0.99,
0.902,0.81,-0.40,0.22,-0.04,0.06,0.99,
0.902,0.81,-0.40,0.22,-0.04,0.06,0.99,
0.904,0.81,-0.40,0.22,-0.04,0.06,0.99,
0.907,0.81,-0.40,0.22,-0.03,0.06,0.99,
0.907,0.87,-0.42,0.22,-0.03,0.06,0.99,
0.914,0.87,-0.42,0.22,-0.03,0.06,0.99,
0.915,0.87,-0.42,0.22,-0.03,0.06,0.99,
0.915,0.89,-0.43,0.22,-0.03,0.06,0.99,
0.915,0.89,-0.43,0.22,-0.03,0.06,0.99,
0.916,0.89,-0.43,0.22,-0.03,0.06,0.99,
0.917,0.92,-0.45,0.21,-0.03,0.06,0.99,
0.918,0.92,-0.45,0.21,-0.03,0.06,0.99,
0.921,0.92,-0.45,0.21,-0.03,0.06,0.99,
0.921,0.93,-0.45,0.20,-0.03,0.06,0.99,
0.924,0.93,-0.45,0.20,-0.03,0.06,0.99,
0.926,0.93,-0.45,0.20,-0.03,0.06,0.99,
0.927,0.94,-0.45,0.18,-0.03,0.06,0.99,
0.928,0.94,-0.45,0.18,-0.03,0.06,0.99,
0.931,0.94,-0.45,0.18,-0.03,0.06,0.99,
0.931,0.90,-0.43,0.20,-0.03,0.06,0.99,
0.933,0.90,-0.43,0.20,-0.03,0.06,0.99,
0.936,0.90,-0.43,0.20,-0.03,0.06,0.99,
0.936,0.90,-0.41,0.20,-0.03,0.06,0.99,
0.938,0.90,-0.41,0.20,-0.03,0.06,1.00,
0.941,0.90,-0.41,0.20,-0.03,0.06,1.00,
0.941,0.86,-0.40,0.21,-0.03,0.06,1.00,
0.944,0.86,-0.40,0.21,-0.03,0.06,1.00,
0.946,0.86,-0.40,0.21,-0.03,0.06,1.00,
0.946,0.85,-0.36,0.23,-0.03,0.06,1.00,
0.948,0.85,-0.36,0.23,-0.04,0.07,1.00,
0.95,0.85,-0.36,0.23,-0.04,0.06,1.00,
0.95,0.82,-0.32,0.25,-0.04,0.06,1.00,
0.953,0.82,-0.32,0.25,-0.04,0.07,1.01,
0.955,0.82,-0.32,0.25,-0.04,0.07,1.00,
0.957,0.80,-0.30,0.30,-0.04,0.07,1.00,
0.958,0.80,-0.30,0.30,-0.04,0.07,1.01,
0.96,0.80,-0.30,0.30,-0.05,0.07,1.01,
0.961,0.76,-0.29,0.32,-0.05,0.07,1.01,
0.962,0.76,-0.29,0.32,-0.05,0.07,1.01,
0.965,0.76,-0.29,0.32,-0.05,0.07,1.01,
0.965,0.72,-0.26,0.32,-0.05,0.07,1.01,
0.967,0.72,-0.26,0.32,-0.05,0.07,1.01,
0.97,0.72,-0.26,0.32,-0.05,0.07,1.01,
0.97,0.69,-0.23,0.33,-0.05,0.07,1.01,
0.973,0.69,-0.23,0.33,-0.06,0.08,1.01,
0.975,0.69,-0.23,0.33,-0.06,0.08,1.01,
0.975,0.64,-0.19,0.34,-0.06,0.08,1.01,
0.977,0.64,-0.19,0.34,-0.06,0.08,1.01,
0.98,0.64,-0.19,0.34,-0.06,0.08,1.01,
0.98,0.60,-0.13,0.32,-0.06,0.08,1.01,
0.982,0.60,-0.13,0.32,-0.06,0.09,1.00,
0.985,0.60,-0.13,0.32,-0.06,0.09,1.00,
0.985,0.57,-0.09,0.32,-0.06,0.09,1.00,
0.987,0.57,-0.09,0.32,-0.06,0.09,1.00,
0.989,0.57,-0.09,0.32,-0.06,0.09,1.00,
0.99,0.57,-0.04,0.30,-0.06,0.09,1.00,
0.992,0.57,-0.04,0.30,-0.06,0.09,1.00,
0.995,0.57,-0.04,0.30,-0.06,0.10,1.00,
0.995,0.54,-0.00,0.27,-0.06,0.10,1.00,
0.997,0.54,-0.00,0.27,-0.06,0.10,1.00,
0.999,0.54,-0.00,0.27,-0.06,0.10,0.99,
1.0,0.54,0.02,0.24,-0.06,0.10,0.99,
1.002,0.54,0.02,0.24,-0.06,0.10,0.99,
1.004,0.54,0.02,0.24,-0.06,0.10,0.99,
1.005,0.53,0.03,0.19,-0.06,0.10,0.99,
1.012,0.53,0.03,0.19,-0.06,0.10,0.98,
1.013,0.53,0.03,0.19,-0.06,0.10,0.98,
1.013,0.55,0.04,0.13,-0.06,0.10,0.98,
1.013,0.55,0.04,0.13,-0.06,0.10,0.98,
1.014,0.55,0.04,0.13,-0.06,0.10,0.97,
1.014,0.55,0.03,0.07,-0.06,0.10,0.97,
1.016,0.55,0.03,0.07,-0.06,0.10,0.97,
1.019,0.55,0.03,0.07,-0.06,0.10,0.97,
1.019,0.56,0.05,0.02,-0.06,0.10,0.97,
1.021,0.56,0.05,0.02,-0.06,0.10,0.96,
1.024,0.56,0.05,0.02,-0.06,0.10,0.96,
1.024,0.55,0.04,-0.03,-0.06,0.10,0.96,
1.026,0.55,0.04,-0.03,-0.06,0.10,0.96,
1.029,0.55,0.04,-0.03,-0.06,0.10,0.96,
1.029,0.55,0.04,-0.11,-0.06,0.10,0.96,
1.031,0.55,0.04,-0.11,-0.06,0.10,0.96,
1.034,0.55,0.04,-0.11,-0.06,0.10,0.95,
1.034,0.55,0.03,-0.15,-0.06,0.10,0.95,
1.036,0.55,0.03,-0.15,-0.06,0.10,0.96,
1.039,0.55,0.03,-0.15,-0.07,0.10,0.96,
1.039,0.52,0.03,-0.18,-0.07,0.10,0.96,
1.041,0.52,0.03,-0.18,-0.06,0.10,0.96,
1.044,0.52,0.03,-0.18,-0.07,0.10,0.96,
1.044,0.50,0.03,-0.17,-0.07,0.10,0.96,
1.046,0.50,0.03,-0.17,-0.07,0.10,0.96,
1.048,0.50,0.03,-0.17,-0.07,0.10,0.96,
1.048,0.50,0.08,-0.15,-0.07,0.10,0.96,
1.051,0.50,0.08,-0.15,-0.07,0.11,0.97,
1.053,0.50,0.08,-0.15,-0.07,0.11,0.97,
1.053,0.47,0.11,-0.10,-0.07,0.11,0.97,
1.056,0.47,0.11,-0.10,-0.07,0.11,0.97,
1.058,0.47,0.11,-0.10,-0.07,0.11,0.97,
1.059,0.47,0.15,-0.06,-0.07,0.11,0.97,
1.06,0.47,0.15,-0.06,-0.07,0.11,0.98,
1.063,0.47,0.15,-0.06,-0.07,0.11,0.98,
1.064,0.45,0.15,-0.01,-0.07,0.11,0.98,
1.065,0.45,0.15,-0.01,-0.07,0.11,0.98,
1.068,0.45,0.15,-0.01,-0.07,0.11,0.99,
1.068,0.45,0.20,0.05,-0.07,0.11,0.99,
1.07,0.45,0.20,0.05,-0.07,0.12,0.99,
1.073,0.45,0.20,0.05,-0.07,0.12,0.99,
1.073,0.44,0.23,0.11,-0.07,0.12,0.99,
1.075,0.44,0.23,0.11,-0.07,0.12,1.00,
1.078,0.44,0.23,0.11,-0.07,0.12,1.00,
1.078,0.42,0.26,0.16,-0.07,0.12,1.00,
1.08,0.42,0.26,0.16,-0.07,0.12,1.00,
1.083,0.42,0.26,0.16,-0.07,0.12,1.00,
1.083,0.41,0.28,0.22,-0.07,0.12,1.00,
1.085,0.41,0.28,0.22,-0.07,0.12,1.01,
1.088,0.41,0.28,0.22,-0.07,0.12,1.01,
1.088,0.41,0.29,0.27,-0.07,0.12,1.01,
1.091,0.41,0.29,0.27,-0.07,0.12,1.01,
1.093,0.41,0.29,0.27,-0.07,0.12,1.01,
1.094,0.41,0.28,0.31,-0.07,0.12,1.01,
1.095,0.41,0.28,0.31,-0.07,0.12,1.01,
1.098,0.41,0.28,0.31,-0.07,0.12,1.01,
1.098,0.41,0.27,0.34,-0.07,0.12,1.01,
1.1,0.41,0.27,0.34,-0.07,0.12,1.01,
1.102,0.41,0.27,0.34,-0.07,0.11,1.01,
1.103,0.44,0.28,0.33,-0.07,0.11,1.01,
1.105,0.44,0.28,0.33,-0.06,0.11,1.01,
1.108,0.44,0.28,0.33,-0.06,0.11,1.01,
1.108,0.43,0.24,0.34,-0.06,0.11,1.01,
1.11,0.43,0.24,0.34,-0.06,0.11,1.01,
1.112,0.43,0.24,0.34,-0.06,0.11,1.01,
1.113,0.46,0.21,0.33,-0.06,0.11,1.01,
1.115,0.46,0.21,0.33,-0.06,0.11,1.01,
1.117,0.46,0.21,0.33,-0.06,0.11,1.01,
1.118,0.48,0.18,0.33,-0.06,0.11,1.01,
1.12,0.48,0.18,0.33,-0.05,0.10,1.01,
1.122,0.48,0.18,0.33,-0.05,0.10,1.01,
1.122,0.52,0.17,0.31,-0.05,0.10,1.01,
1.126,0.52,0.17,0.31,-0.05,0.10,1.01,
1.127,0.52,0.17,0.31,-0.05,0.10,1.01,
1.127,0.56,0.15,0.30,-0.05,0.10,1.01,
1.129,0.56,0.15,0.30,-0.05,0.10,1.01,
1.132,0.56,0.15,0.30,-0.04,0.10,1.01,
1.132,0.57,0.13,0.30,-0.04,0.10,1.01,
1.134,0.57,0.13,0.30,-0.04,0.10,1.01,
1.137,0.57,0.13,0.30,-0.04,0.10,1.01,
1.137,0.60,0.12,0.32,-0.04,0.10,1.01,
1.139,0.60,0.12,0.32,-0.04,0.10,1.01,
1.141,0.60,0.12,0.32,-0.04,0.10,1.01,
1.142,0.64,0.12,0.35,-0.04,0.10,1.01,
1.144,0.64,0.12,0.35,-0.04,0.11,1.01,
1.146,0.64,0.12,0.35,-0.04,0.11,1.01,
1.146,0.66,0.15,0.33,-0.04,0.11,1.01,
1.149,0.66,0.15,0.33,-0.03,0.11,1.01,
1.151,0.66,0.15,0.33,-0.03,0.11,1.01,
1.151,0.67,0.19,0.32,-0.03,0.11,1.01,
1.154,0.67,0.19,0.32,-0.03,0.11,1.01,
1.157,0.67,0.19,0.32,-0.03,0.12,1.01,
1.158,0.69,0.22,0.31,-0.03,0.12,1.01,
1.159,0.69,0.22,0.31,-0.03,0.12,1.01,
1.161,0.69,0.22,0.31,-0.03,0.12,1.01,
1.162,0.72,0.26,0.31,-0.03,0.12,1.01,
1.164,0.72,0.26,0.31,-0.03,0.12,1.01,
1.166,0.72,0.26,0.31,-0.03,0.12,1.01,
1.167,0.73,0.31,0.31,-0.03,0.12,1.01,
1.168,0.73,0.31,0.31,-0.03,0.12,1.01,
1.171,0.73,0.31,0.31,-0.03,0.13,1.01,
1.171,0.73,0.34,0.30,-0.03,0.13,1.01,
1.174,0.73,0.34,0.30,-0.03,0.13,1.00,
1.176,0.73,0.34,0.30,-0.03,0.13,1.00,
1.176,0.73,0.35,0.26,-0.03,0.13,1.00,
1.178,0.73,0.35,0.26,-0.03,0.13,1.00,
1.181,0.73,0.35,0.26,-0.03,0.13,1.00,
1.181,0.73,0.37,0.21,-0.03,0.13,1.00,
1.183,0.73,0.37,0.21,-0.03,0.13,0.99,
1.186,0.73,0.37,0.21,-0.03,0.13,0.99,
1.186,0.70,0.36,0.18,-0.03,0.13,0.99,
1.188,0.70,0.36,0.18,-0.04,0.13,0.99,
1.192,0.66,0.36,0.13,-0.04,0.13,0.99,
1.193,0.66,0.36,0.13,-0.04,0.13,0.99,
1.194,0.66,0.36,0.13,-0.04,0.13,0.99,
1.196,0.66,0.36,0.13,-0.04,0.13,0.98,
1.196,0.62,0.34,0.11,-0.04,0.13,0.98,
1.198,0.62,0.34,0.11,-0.04,0.13,0.98,
1.2,0.62,0.34,0.11,-0.04,0.12,0.98,
1.201,0.59,0.34,0.05,-0.04,0.12,0.98,
1.203,0.59,0.34,0.05,-0.04,0.12,0.98,
1.205,0.59,0.34,0.05,-0.04,0.12,0.98,
1.206,0.57,0.32,0.00,-0.04,0.12,0.98,
1.207,0.57,0.32,0.00,-0.04,0.12,0.97,
1.21,0.57,0.32,0.00,-0.04,0.12,0.97,
1.21,0.57,0.27,-0.04,-0.04,0.12,0.97,
1.212,0.57,0.27,-0.04,-0.04,0.12,0.97,
1.215,0.57,0.27,-0.04,-0.03,0.11,0.97,
1.215,0.58,0.24,-0.08,-0.03,0.11,0.97,
1.217,0.58,0.24,-0.08,-0.03,0.11,0.97,
1.22,0.58,0.24,-0.08,-0.02,0.11,0.97,
1.22,0.63,0.20,-0.12,-0.02,0.11,0.97,
1.222,0.63,0.20,-0.12,-0.02,0.11,0.97,
1.229,0.63,0.20,-0.12,-0.01,0.10,0.97,
1.229,0.72,0.16,-0.12,-0.01,0.10,0.97,
1.23,0.72,0.16,-0.12,-0.01,0.10,0.97,
1.23,0.78,0.10,-0.10,-0.01,0.10,0.97,
1.23,0.78,0.10,-0.10,-0.01,0.10,0.98,
1.232,0.78,0.10,-0.10,-0.01,0.09,0.98,
1.235,0.78,0.10,-0.10,-0.00,0.09,0.98,
1.235,0.83,0.05,-0.05,-0.00,0.09,0.98,
1.237,0.83,0.05,-0.05,0.00,0.09,0.99,
1.241,0.83,0.05,-0.05,0.00,0.09,0.99,
1.241,0.88,-0.01,0.02,0.00,0.09,0.99,
1.242,0.88,-0.01,0.02,0.00,0.09,1.00,
1.244,0.88,-0.01,0.02,0.01,0.09,1.00,
1.245,0.93,-0.05,0.09,0.01,0.09,1.00,
1.247,0.93,-0.05,0.09,0.01,0.09,1.01,
1.249,0.93,-0.05,0.09,0.01,0.09,1.01,
1.249,0.95,-0.03,0.19,0.01,0.09,1.01,
1.252,0.95,-0.03,0.19,0.01,0.09,1.01,
1.254,0.95,-0.03,0.19,0.01,0.09,1.02,
1.254,0.97,-0.05,0.28,0.01,0.09,1.02,
1.257,0.97,-0.05,0.28,0.01,0.09,1.02,
1.259,0.97,-0.05,0.28,0.01,0.09,1.02,
1.259,0.97,-0.05,0.33,0.01,0.09,1.02,
1.262,0.97,-0.05,0.33,0.01,0.09,1.02,
1.264,0.97,-0.05,0.33,0.01,0.09,1.02,
1.264,0.97,-0.03,0.37,0.01,0.09,1.02,
1.266,0.97,-0.03,0.37,0.01,0.09,1.02,
1.269,0.97,-0.03,0.37,0.01,0.09,1.03,
1.269,0.95,-0.00,0.41,0.01,0.09,1.03,
1.271,0.95,-0.00,0.41,0.01,0.09,1.02,
1.274,0.95,-0.00,0.41,0.01,0.10,1.02,
1.275,0.91,0.02,0.42,0.01,0.10,1.02,
1.276,0.91,0.02,0.42,0.00,0.10,1.02,
1.278,0.91,0.02,0.42,0.00,0.10,1.02,
1.279,0.87,0.05,0.41,0.00,0.10,1.02,
1.281,0.87,0.05,0.41,0.00,0.10,1.02,
1.283,0.87,0.05,0.41,0.00,0.10,1.02,
1.284,0.82,0.07,0.39,0.00,0.10,1.02,
1.286,0.82,0.07,0.39,0.00,0.10,1.02,
1.288,0.82,0.07,0.39,-0.01,0.10,1.02,
1.289,0.78,0.10,0.35,-0.01,0.10,1.02,
1.291,0.78,0.10,0.35,-0.01,0.10,1.01,
1.293,0.78,0.10,0.35,-0.01,0.10,1.01,
1.294,0.73,0.09,0.31,-0.01,0.10,1.01,
1.296,0.73,0.09,0.31,-0.01,0.10,1.00,
1.298,0.73,0.09,0.31,-0.01,0.10,1.00,
1.298,0.67,0.08,0.26,-0.01,0.10,1.00,
1.301,0.67,0.08,0.26,-0.01,0.10,1.00,
1.303,0.67,0.08,0.26,-0.01,0.10,1.00,
1.303,0.64,0.09,0.18,-0.01,0.10,1.00,
1.306,0.64,0.09,0.18,-0.01,0.10,1.00,
1.313,0.64,0.09,0.18,-0.01,0.10,0.99,
1.313,0.61,0.08,0.13,-0.01,0.10,0.99,
1.314,0.61,0.08,0.13,-0.01,0.10,0.99,
1.314,0.61,0.08,0.13,-0.01,0.09,0.99,
1.314,0.59,0.06,0.09,-0.01,0.09,0.99,
1.315,0.59,0.06,0.09,-0.01,0.09,0.99,
1.318,0.59,0.06,0.09,-0.01,0.09,0.99,
1.318,0.58,0.04,0.07,-0.01,0.09,0.99,
1.32,0.58,0.04,0.07,-0.01,0.09,0.99,
1.325,0.58,0.04,0.07,-0.02,0.09,0.99,
1.325,0.56,0.02,0.05,-0.02,0.09,0.99,
1.325,0.56,0.02,0.05,-0.02,0.08,0.99,
1.327,0.56,0.02,0.05,-0.02,0.08,0.99,
1.328,0.52,-0.01,0.07,-0.02,0.08,0.99,
1.33,0.52,-0.01,0.07,-0.02,0.08,1.00,
1.333,0.52,-0.01,0.07,-0.02,0.08,1.00,
1.333,0.46,-0.07,0.07,-0.02,0.08,1.00,
1.335,0.46,-0.07,0.07,-0.02,0.08,1.00,
1.338,0.46,-0.07,0.07,-0.02,0.08,1.00,
1.338,0.45,-0.10,0.10,-0.02,0.08,1.00,
1.34,0.45,-0.10,0.10,-0.02,0.08,1.00,
1.342,0.45,-0.10,0.10,-0.02,0.08,1.00,
1.343,0.45,-0.12,0.13,-0.02,0.08,1.00,
1.345,0.45,-0.12,0.13,-0.02,0.07,1.00,
1.347,0.45,-0.12,0.13,-0.02,0.07,1.00,
1.347,0.43,-0.14,0.16,-0.02,0.07,1.00,
1.35,0.43,-0.14,0.16,-0.02,0.07,1.00,
1.352,0.43,-0.14,0.16,-0.02,0.07,1.01,
1.352,0.40,-0.17,0.17,-0.02,0.07,1.01,
1.354,0.40,-0.17,0.17,-0.02,0.07,1.01,
1.357,0.40,-0.17,0.17,-0.02,0.07,1.00,
1.358,0.38,-0.18,0.19,-0.02,0.07,1.00,
1.359,0.38,-0.18,0.19,-0.03,0.07,1.00,
1.362,0.36,-0.18,0.18,-0.03,0.07,1.00,
1.363,0.36,-0.18,0.18,-0.03,0.07,1.00,
1.364,0.36,-0.18,0.18,-0.03,0.07,1.00,
1.367,0.36,-0.18,0.18,-0.03,0.07,1.00,
1.367,0.31,-0.19,0.15,-0.03,0.07,1.00,
1.369,0.31,-0.19,0.15,-0.04,0.07,1.00,
1.372,0.31,-0.19,0.15,-0.04,0.07,1.00,
1.372,0.25,-0.19,0.14,-0.04,0.07,1.00,
1.374,0.25,-0.19,0.14,-0.04,0.07,0.99,
1.377,0.25,-0.19,0.14,-0.04,0.07,0.99,
1.378,0.19,-0.17,0.10,-0.04,0.07,0.99,
1.379,0.19,-0.17,0.10,-0.04,0.07,0.99,
1.381,0.19,-0.17,0.10,-0.04,0.07,0.98,
1.382,0.16,-0.16,0.06,-0.04,0.07,0.98,
1.384,0.16,-0.16,0.06,-0.05,0.07,0.98,
1.386,0.16,-0.16,0.06,-0.05,0.07,0.98,
1.387,0.10,-0.16,-0.01,-0.05,0.07,0.98,
1.39,0.10,-0.16,-0.01,-0.05,0.08,0.97,
1.391,0.10,-0.16,-0.01,-0.05,0.08,0.97,
1.391,0.04,-0.15,-0.09,-0.05,0.08,0.97,
1.393,0.04,-0.15,-0.09,-0.05,0.08,0.97,
1.396,0.04,-0.15,-0.09,-0.06,0.08,0.96,
1.397,-0.03,-0.14,-0.14,-0.06,0.08,0.96,
1.398,-0.03,-0.14,-0.14,-0.06,0.08,0.96,
1.401,-0.03,-0.14,-0.14,-0.06,0.08,0.96,
1.401,-0.07,-0.13,-0.22,-0.06,0.08,0.96,
1.403,-0.07,-0.13,-0.22,-0.07,0.08,0.95,
1.406,-0.07,-0.13,-0.22,-0.07,0.08,0.95,
1.407,-0.13,-0.13,-0.28,-0.07,0.08,0.95,
1.408,-0.13,-0.13,-0.28,-0.07,0.08,0.95,
1.411,-0.13,-0.13,-0.28,-0.07,0.08,0.95,
1.411,-0.22,-0.13,-0.34,-0.07,0.08,0.95,
1.413,-0.22,-0.13,-0.34,-0.07,0.08,0.95,
1.415,-0.22,-0.13,-0.34,-0.07,0.08,0.94,
1.416,-0.23,-0.14,-0.38,-0.07,0.08,0.94,
1.418,-0.23,-0.14,-0.38,-0.07,0.08,0.94,
1.42,-0.23,-0.14,-0.38,-0.08,0.08,0.94,
1.421,-0.29,-0.14,-0.40,-0.08,0.08,0.94,
1.424,-0.29,-0.14,-0.40,-0.08,0.08,0.94,
1.426,-0.29,-0.14,-0.40,-0.08,0.08,0.94,
1.426,-0.32,-0.13,-0.43,-0.08,0.08,0.94,
1.428,-0.32,-0.13,-0.43,-0.08,0.08,0.94,
1.43,-0.32,-0.13,-0.43,-0.08,0.08,0.94,
1.431,-0.37,-0.12,-0.42,-0.08,0.08,0.94,
1.433,-0.37,-0.12,-0.42,-0.08,0.08,0.95,
1.435,-0.37,-0.12,-0.42,-0.09,0.08,0.95,
1.435,-0.38,-0.10,-0.39,-0.09,0.08,0.95,
1.438,-0.38,-0.10,-0.39,-0.08,0.08,0.95,
1.44,-0.38,-0.10,-0.39,-0.08,0.08,0.95,
1.441,-0.41,-0.08,-0.37,-0.08,0.08,0.95,
1.443,-0.41,-0.08,-0.37,-0.09,0.08,0.95,
1.445,-0.41,-0.08,-0.37,-0.09,0.08,0.95,
1.447,-0.41,-0.09,-0.37,-0.09,0.08,0.95,
1.447,-0.41,-0.09,-0.37,-0.09,0.08,0.95,
1.45,-0.41,-0.09,-0.37,-0.09,0.08,0.95,
1.45,-0.44,-0.09,-0.35,-0.09,0.08,0.95,
1.452,-0.44,-0.09,-0.35,-0.10,0.09,0.95,
1.455,-0.44,-0.09,-0.35,-0.10,0.09,0.95,
1.455,-0.48,-0.08,-0.32,-0.10,0.09,0.95,
1.458,-0.48,-0.08,-0.32,-0.10,0.09,0.95,
1.46,-0.48,-0.08,-0.32,-0.10,0.09,0.95,
1.46,-0.52,-0.05,-0.32,-0.10,0.09,0.95,
1.462,-0.52,-0.05,-0.32,-0.10,0.08,0.95,
1.465,-0.52,-0.05,-0.32,-0.11,0.09,0.95,
1.465,-0.57,-0.07,-0.30,-0.11,0.09,0.95,
1.467,-0.57,-0.07,-0.30,-0.11,0.08,0.95,
1.469,-0.57,-0.07,-0.30,-0.12,0.08,0.95,
1.47,-0.61,-0.09,-0.32,-0.12,0.08,0.95,
1.472,-0.61,-0.09,-0.32,-0.12,0.08,0.95,
1.475,-0.61,-0.09,-0.32,-0.12,0.08,0.95,
1.475,-0.69,-0.10,-0.33,-0.12,0.08,0.95,
1.477,-0.69,-0.10,-0.33,-0.12,0.08,0.95,
1.479,-0.69,-0.10,-0.33,-0.12,0.08,0.94,
1.48,-0.74,-0.12,-0.34,-0.12,0.08,0.94,
1.482,-0.74,-0.12,-0.34,-0.13,0.08,0.94,
1.484,-0.74,-0.12,-0.34,-0.13,0.08,0.94,
1.485,-0.77,-0.15,-0.36,-0.13,0.08,0.94,
1.487,-0.77,-0.15,-0.36,-0.14,0.08,0.94,
1.491,-0.77,-0.15,-0.36,-0.14,0.09,0.94,
1.491,-0.83,-0.13,-0.36,-0.14,0.09,0.94,
1.492,-0.83,-0.13,-0.36,-0.14,0.09,0.94,
1.494,-0.83,-0.13,-0.36,-0.14,0.09,0.94,
1.494,-0.90,-0.11,-0.38,-0.14,0.09,0.94,
1.496,-0.90,-0.11,-0.38,-0.14,0.09,0.94,
1.499,-0.90,-0.11,-0.38,-0.15,0.09,0.94,
1.499,-0.90,-0.08,-0.40,-0.15,0.09,0.94,
1.501,-0.90,-0.08,-0.40,-0.15,0.09,0.94,
1.504,-0.90,-0.08,-0.40,-0.15,0.09,0.94,
1.504,-0.97,-0.07,-0.43,-0.15,0.09,0.94,
1.507,-0.97,-0.07,-0.43,-0.15,0.09,0.94,
1.509,-0.97,-0.07,-0.43,-0.15,0.09,0.94,
1.509,-1.02,-0.09,-0.43,-0.15,0.09,0.94,
1.511,-1.02,-0.09,-0.43,-0.15,0.08,0.93,
1.514,-1.02,-0.09,-0.43,-0.15,0.08,0.93,
1.514,-1.02,-0.10,-0.43,-0.15,0.08,0.93,
1.516,-1.02,-0.10,-0.43,-0.15,0.08,0.93,
1.518,-1.02,-0.10,-0.43,-0.15,0.08,0.93,
1.519,-1.04,-0.12,-0.44,-0.15,0.08,0.93,
1.521,-1.04,-0.12,-0.44,-0.15,0.08,0.94,
1.529,-1.04,-0.12,-0.44,-0.14,0.08,0.94,
1.529,-1.01,-0.14,-0.44,-0.14,0.08,0.94,
1.53,-1.01,-0.14,-0.44,-0.14,0.07,0.94,
1.53,-1.01,-0.14,-0.44,-0.14,0.07,0.94,
1.53,-0.99,-0.17,-0.40,-0.14,0.07,0.94,
1.53,-0.99,-0.17,-0.40,-0.13,0.07,0.94,
1.533,-0.99,-0.17,-0.40,-0.13,0.07,0.95,
1.534,-0.91,-0.19,-0.37,-0.13,0.07,0.95,
1.536,-0.91,-0.19,-0.37,-0.13,0.07,0.95,
1.538,-0.91,-0.19,-0.37,-0.13,0.07,0.95,
1.538,-0.86,-0.21,-0.32,-0.13,0.07,0.95,
1.542,-0.86,-0.21,-0.32,-0.12,0.06,0.96,
1.543,-0.86,-0.21,-0.32,-0.12,0.06,0.96,
1.543,-0.82,-0.23,-0.26,-0.12,0.06,0.96,
1.545,-0.82,-0.23,-0.26,-0.12,0.06,0.96,
1.548,-0.82,-0.23,-0.26,-0.12,0.06,0.97,
1.548,-0.79,-0.26,-0.20,-0.12,0.06,0.97,
1.55,-0.79,-0.26,-0.20,-0.12,0.06,0.97,
1.553,-0.79,-0.26,-0.20,-0.12,0.05,0.98,
1.553,-0.77,-0.28,-0.12,-0.12,0.05,0.98,
1.556,-0.77,-0.28,-0.12,-0.12,0.05,0.98,
1.557,-0.77,-0.28,-0.12,-0.12,0.05,0.98,
1.558,-0.80,-0.32,-0.05,-0.12,0.05,0.98,
1.56,-0.80,-0.32,-0.05,-0.13,0.05,0.98,
1.562,-0.80,-0.32,-0.05,-0.13,0.05,0.98,
1.563,-0.81,-0.35,-0.00,-0.13,0.05,0.98,
1.565,-0.81,-0.35,-0.00,-0.13,0.05,0.99,
1.567,-0.81,-0.35,-0.00,-0.13,0.05,0.99,
1.567,-0.85,-0.35,0.05,-0.13,0.05,0.99,
1.57,-0.85,-0.35,0.05,-0.13,0.05,0.99,
1.573,-0.85,-0.35,0.05,-0.13,0.05,0.99,
1.573,-0.87,-0.34,0.09,-0.13,0.05,0.99,
1.575,-0.87,-0.34,0.09,-0.14,0.05,0.99,
1.577,-0.87,-0.34,0.09,-0.14,0.05,0.99,
1.578,-0.90,-0.33,0.11,-0.14,0.05,0.99,
1.579,-0.90,-0.33,0.11,-0.14,0.05,0.99,
1.582,-0.90,-0.33,0.11,-0.14,0.06,0.99,
1.582,-0.96,-0.30,0.11,-0.14,0.06,0.99,
1.584,-0.96,-0.30,0.11,-0.15,0.06,0.99,
1.587,-0.96,-0.30,0.11,-0.15,0.06,0.99,
1.587,-1.02,-0.26,0.12,-0.15,0.06,0.99,
1.59,-1.02,-0.26,0.12,-0.16,0.06,0.99,
1.592,-1.02,-0.26,0.12,-0.16,0.06,0.99,
1.593,-1.10,-0.22,0.11,-0.16,0.06,0.99,
1.595,-1.10,-0.22,0.11,-0.17,0.06,0.99,
1.597,-1.10,-0.22,0.11,-0.17,0.06,0.98,
1.597,-1.17,-0.21,0.07,-0.17,0.06,0.98,
1.599,-1.17,-0.21,0.07,-0.17,0.06,0.98,
1.602,-1.17,-0.21,0.07,-0.18,0.06,0.97,
1.602,-1.24,-0.18,0.03,-0.18,0.06,0.97,
1.604,-1.24,-0.18,0.03,-0.18,0.07,0.97,
1.611,-1.24,-0.18,0.03,-0.18,0.07,0.97,
1.612,-1.30,-0.16,-0.03,-0.18,0.07,0.97,
1.614,-1.30,-0.16,-0.03,-0.18,0.07,0.96,
1.614,-1.30,-0.16,-0.03,-0.18,0.07,0.96,
1.614,-1.35,-0.14,-0.11,-0.18,0.07,0.96,
1.614,-1.35,-0.14,-0.11,-0.18,0.07,0.96,
1.616,-1.35,-0.14,-0.11,-0.18,0.07,0.96,
1.617,-1.35,-0.11,-0.16,-0.18,0.07,0.96,
1.619,-1.35,-0.11,-0.16,-0.18,0.07,0.95,
1.621,-1.35,-0.11,-0.16,-0.18,0.07,0.95,
1.621,-1.37,-0.09,-0.22,-0.18,0.07,0.95,
1.624,-1.37,-0.09,-0.22,-0.18,0.07,0.95,
1.627,-1.37,-0.09,-0.22,-0.18,0.07,0.95,
1.627,-1.34,-0.09,-0.26,-0.18,0.07,0.95,
1.629,-1.34,-0.09,-0.26,-0.17,0.07,0.95,
1.631,-1.34,-0.09,-0.26,-0.17,0.07,0.95,
1.631,-1.29,-0.08,-0.27,-0.17,0.07,0.95,
1.633,-1.29,-0.08,-0.27,-0.17,0.07,0.95,
1.636,-1.29,-0.08,-0.27,-0.17,0.07,0.95,
1.636,-1.25,-0.09,-0.27,-0.17,0.07,0.95,
1.639,-1.25,-0.09,-0.27,-0.17,0.07,0.96,
1.641,-1.25,-0.09,-0.27,-0.16,0.07,0.96,
1.641,-1.21,-0.09,-0.24,-0.16,0.07,0.96,
1.643,-1.21,-0.09,-0.24,-0.16,0.06,0.96,
1.646,-1.21,-0.09,-0.24,-0.16,0.06,0.96,
1.646,-1.17,-0.12,-0.22,-0.16,0.06,0.96,
1.648,-1.17,-0.12,-0.22,-0.16,0.06,0.96,
1.651,-1.17,-0.12,-0.22,-0.16,0.06,0.96,
1.651,-1.14,-0.15,-0.19,-0.16,0.06,0.96,
1.653,-1.14,-0.15,-0.19,-0.16,0.06,0.96,
1.656,-1.14,-0.15,-0.19,-0.16,0.05,0.97,
1.657,-1.10,-0.19,-0.17,-0.16,0.05,0.97,
1.658,-1.10,-0.19,-0.17,-0.16,0.05,0.97,
1.661,-1.08,-0.22,-0.13,-0.16,0.05,0.97,
1.661,-1.08,-0.22,-0.13,-0.16,0.05,0.97,
1.663,-1.08,-0.22,-0.13,-0.15,0.05,0.97,
1.665,-1.08,-0.22,-0.13,-0.15,0.05,0.97,
1.665,-1.06,-0.25,-0.08,-0.15,0.05,0.97,
1.668,-1.06,-0.25,-0.08,-0.15,0.04,0.97,
1.67,-1.06,-0.25,-0.08,-0.14,0.04,0.97,
1.67,-0.99,-0.28,-0.05,-0.14,0.04,0.97,
1.673,-0.99,-0.28,-0.05,-0.14,0.05,0.97,
1.675,-0.99,-0.28,-0.05,-0.14,0.05,0.97,
1.675,-0.93,-0.30,-0.04,-0.14,0.05,0.97,
1.677,-0.93,-0.30,-0.04,-0.14,0.05,0.97,
1.68,-0.93,-0.30,-0.04,-0.14,0.05,0.97,
1.681,-0.89,-0.27,-0.05,-0.14,0.05,0.97,
1.682,-0.89,-0.27,-0.05,-0.14,0.04,0.97,
1.685,-0.89,-0.27,-0.05,-0.14,0.05,0.97,
1.685,-0.87,-0.26,-0.06,-0.14,0.05,0.97,
1.687,-0.87,-0.26,-0.06,-0.14,0.05,0.97,
1.69,-0.87,-0.26,-0.06,-0.14,0.05,0.97,
1.691,-0.86,-0.25,-0.06,-0.14,0.05,0.97,
1.693,-0.86,-0.25,-0.06,-0.14,0.05,0.97,
1.695,-0.86,-0.25,-0.06,-0.14,0.06,0.97,
1.695,-0.87,-0.20,-0.06,-0.14,0.06,0.97,
1.697,-0.87,-0.20,-0.06,-0.14,0.06,0.97,
1.7,-0.87,-0.20,-0.06,-0.15,0.06,0.97,
1.7,-0.89,-0.14,-0.07,-0.15,0.06,0.97,
1.702,-0.89,-0.14,-0.07,-0.15,0.06,0.97,
1.705,-0.89,-0.14,-0.07,-0.16,0.06,0.97,
1.705,-0.94,-0.09,-0.07,-0.16,0.06,0.97,
1.714,-0.94,-0.09,-0.07,-0.16,0.07,0.98,
1.714,-0.94,-0.09,-0.07,-0.17,0.07,0.98,
1.715,-1.01,-0.06,-0.05,-0.17,0.07,0.98,
1.715,-1.01,-0.06,-0.05,-0.17,0.07,0.98,
1.715,-1.01,-0.06,-0.05,-0.17,0.07,0.98,
1.716,-1.11,-0.00,-0.02,-0.17,0.07,0.98,
1.717,-1.11,-0.00,-0.02,-0.18,0.08,0.98,
1.719,-1.11,-0.00,-0.02,-0.18,0.08,0.98,
1.719,-1.19,0.04,0.01,-0.18,0.08,0.98,
1.726,-1.19,0.04,0.01,-0.19,0.08,0.98,
1.726,-1.19,0.04,0.01,-0.19,0.08,0.98,
1.726,-1.26,0.10,0.03,-0.19,0.08,0.98,
1.727,-1.26,0.10,0.03,-0.19,0.08,0.99,
1.729,-1.26,0.10,0.03,-0.19,0.08,0.99,
1.729,-1.31,0.15,0.05,-0.19,0.08,0.99,
1.731,-1.31,0.15,0.05,-0.20,0.09,0.99,
1.734,-1.31,0.15,0.05,-0.20,0.09,0.99,
1.734,-1.36,0.17,0.08,-0.20,0.09,0.99,
1.736,-1.36,0.17,0.08,-0.20,0.09,0.99,
1.739,-1.36,0.17,0.08,-0.20,0.09,0.99,
1.739,-1.38,0.20,0.09,-0.20,0.09,0.99,
1.741,-1.38,0.20,0.09,-0.20,0.09,0.99,
1.743,-1.38,0.20,0.09,-0.21,0.09,0.99,
1.744,-1.40,0.23,0.10,-0.21,0.09,0.99,
1.746,-1.40,0.23,0.10,-0.21,0.09,0.99,
1.749,-1.40,0.23,0.10,-0.21,0.09,0.99,
1.749,-1.43,0.23,0.10,-0.21,0.09,0.99,
1.751,-1.43,0.23,0.10,-0.21,0.09,0.99,
1.753,-1.43,0.23,0.10,-0.21,0.08,0.98,
1.754,-1.43,0.21,0.09,-0.21,0.08,0.98,
1.756,-1.43,0.21,0.09,-0.21,0.08,0.98,
1.759,-1.43,0.21,0.09,-0.20,0.08,0.98,
1.759,-1.42,0.18,0.06,-0.20,0.08,0.98,
1.761,-1.42,0.18,0.06,-0.20,0.08,0.98,
1.763,-1.42,0.18,0.06,-0.20,0.08,0.97,
1.763,-1.39,0.15,0.01,-0.20,0.08,0.97,
1.766,-1.39,0.15,0.01,-0.20,0.08,0.97,
1.768,-1.39,0.15,0.01,-0.20,0.08,0.97,
1.768,-1.35,0.13,-0.04,-0.20,0.08,0.97,
1.771,-1.35,0.13,-0.04,-0.20,0.07,0.96,
1.774,-1.35,0.13,-0.04,-0.20,0.07,0.96,
1.774,-1.28,0.09,-0.11,-0.20,0.07,0.96,
1.776,-1.28,0.09,-0.11,-0.19,0.07,0.96,
1.778,-1.28,0.09,-0.11,-0.19,0.07,0.96,
1.779,-1.26,0.07,-0.17,-0.19,0.07,0.96,
1.78,-1.26,0.07,-0.17,-0.19,0.07,0.95,
1.783,-1.26,0.07,-0.17,-0.19,0.07,0.95,
1.783,-1.22,0.04,-0.22,-0.19,0.07,0.95,
1.785,-1.22,0.04,-0.22,-0.19,0.07,0.95,
1.788,-1.22,0.04,-0.22,-0.19,0.06,0.95,
1.788,-1.19,0.01,-0.26,-0.19,0.06,0.95,
1.79,-1.19,0.01,-0.26,-0.19,0.06,0.95,
1.793,-1.19,0.01,-0.26,-0.18,0.06,0.94,
1.793,-1.15,0.01,-0.30,-0.18,0.06,0.94,
1.795,-1.15,0.01,-0.30,-0.18,0.06,0.94,
1.797,-1.15,0.01,-0.30,-0.18,0.06,0.94,
1.798,-1.12,-0.01,-0.33,-0.18,0.06,0.94,
1.8,-1.12,-0.01,-0.33,-0.18,0.06,0.95,
1.802,-1.12,-0.01,-0.33,-0.17,0.06,0.95,
1.803,-1.08,-0.03,-0.33,-0.17,0.06,0.95,
1.811,-1.08,-0.03,-0.33,-0.17,0.06,0.95,
1.811,-1.08,-0.03,-0.33,-0.16,0.06,0.95,
1.811,-1.01,-0.02,-0.31,-0.16,0.06,0.95,
1.812,-1.01,-0.02,-0.31,-0.16,0.06,0.95,
1.812,-1.01,-0.02,-0.31,-0.16,0.06,0.95,
1.813,-0.93,-0.01,-0.28,-0.16,0.06,0.95,
1.815,-0.93,-0.01,-0.28,-0.16,0.06,0.95,
1.817,-0.93,-0.01,-0.28,-0.15,0.06,0.96,
1.818,-0.85,0.01,-0.24,-0.15,0.06,0.96,
1.819,-0.85,0.01,-0.24,-0.15,0.06,0.96,
1.822,-0.85,0.01,-0.24,-0.15,0.06,0.96,
1.822,-0.80,0.03,-0.21,-0.15,0.06,0.96,
1.824,-0.80,0.03,-0.21,-0.15,0.07,0.96,
1.827,-0.80,0.03,-0.21,-0.14,0.06,0.96,
1.827,-0.75,0.04,-0.19,-0.14,0.06,0.96,
1.829,-0.75,0.04,-0.19,-0.14,0.06,0.96,
1.832,-0.75,0.04,-0.19,-0.14,0.06,0.96,
1.832,-0.71,0.06,-0.17,-0.14,0.06,0.96,
1.834,-0.71,0.06,-0.17,-0.14,0.06,0.96,
1.837,-0.71,0.06,-0.17,-0.14,0.06,0.96,
1.837,-0.68,0.04,-0.13,-0.14,0.06,0.96,
1.839,-0.68,0.04,-0.13,-0.14,0.06,0.96,
1.841,-0.68,0.04,-0.13,-0.15,0.06,0.97,
1.842,-0.69,0.05,-0.13,-0.15,0.06,0.97,
1.844,-0.69,0.05,-0.13,-0.15,0.07,0.97,
1.846,-0.69,0.05,-0.13,-0.15,0.07,0.97,
1.846,-0.71,0.08,-0.11,-0.15,0.07,0.97,
1.849,-0.71,0.08,-0.11,-0.15,0.06,0.97,
1.851,-0.71,0.08,-0.11,-0.15,0.07,0.97,
1.852,-0.72,0.09,-0.09,-0.15,0.07,0.97,
1.854,-0.72,0.09,-0.09,-0.16,0.07,0.97,
1.857,-0.72,0.09,-0.09,-0.16,0.07,0.97,
1.857,-0.75,0.09,-0.08,-0.16,0.07,0.97,
1.859,-0.75,0.09,-0.08,-0.16,0.07,0.97,
1.861,-0.75,0.09,-0.08,-0.17,0.07,0.97,
1.862,-0.82,0.13,-0.07,-0.17,0.07,0.97,
1.864,-0.82,0.13,-0.07,-0.17,0.07,0.97,
1.866,-0.82,0.13,-0.07,-0.17,0.08,0.97,
1.866,-0.87,0.17,-0.09,-0.17,0.08,0.97,
1.869,-0.87,0.17,-0.09,-0.17,0.08,0.97,
1.871,-0.87,0.17,-0.09,-0.18,0.08,0.96,
1.871,-0.90,0.21,-0.11,-0.18,0.08,0.96,
1.874,-0.90,0.21,-0.11,-0.18,0.08,0.96,
1.876,-0.90,0.21,-0.11,-0.18,0.08,0.96,
1.877,-0.94,0.25,-0.12,-0.18,0.08,0.96,
1.878,-0.94,0.25,-0.12,-0.18,0.09,0.96,
1.881,-0.94,0.25,-0.12,-0.19,0.09,0.96,
1.881,-0.99,0.28,-0.14,-0.19,0.09,0.96,
1.883,-0.99,0.28,-0.14,-0.19,0.09,0.96,
1.886,-0.99,0.28,-0.14,-0.19,0.09,0.95,
1.886,-1.01,0.31,-0.17,-0.19,0.09,0.95,
1.889,-1.01,0.31,-0.17,-0.19,0.09,0.95,
1.891,-1.01,0.31,-0.17,-0.19,0.09,0.95,
1.891,-1.01,0.33,-0.20,-0.19,0.09,0.95,
1.893,-1.01,0.33,-0.20,-0.19,0.09,0.95,
1.895,-1.01,0.33,-0.20,-0.19,0.09,0.95,
1.896,-1.00,0.35,-0.23,-0.19,0.09,0.95,
1.898,-1.00,0.35,-0.23,-0.19,0.09,0.95,
1.9,-1.00,0.35,-0.23,-0.18,0.09,0.95,
1.901,-0.98,0.34,-0.26,-0.18,0.09,0.95,
1.903,-0.98,0.34,-0.26,-0.18,0.09,0.95,
1.905,-0.94,0.33,-0.28,-0.18,0.09,0.95,
1.906,-0.94,0.33,-0.28,-0.18,0.09,0.95,
1.908,-0.94,0.33,-0.28,-0.18,0.09,0.95,
1.91,-0.94,0.33,-0.28,-0.18,0.09,0.95,
1.911,-0.87,0.33,-0.29,-0.18,0.09,0.95,
1.913,-0.87,0.33,-0.29,-0.18,0.09,0.95,
1.915,-0.87,0.33,-0.29,-0.18,0.09,0.95,
1.915,-0.83,0.35,-0.27,-0.18,0.09,0.95,
1.917,-0.83,0.35,-0.27,-0.17,0.09,0.95,
1.92,-0.83,0.35,-0.27,-0.17,0.09,0.95,
1.921,-0.81,0.35,-0.25,-0.17,0.09,0.95,
1.928,-0.81,0.35,-0.25,-0.17,0.09,0.95,
1.928,-0.81,0.35,-0.25,-0.17,0.09,0.95,
1.929,-0.76,0.35,-0.24,-0.17,0.09,0.95,
1.929,-0.76,0.35,-0.24,-0.17,0.09,0.95,
1.93,-0.72,0.36,-0.22,-0.17,0.09,0.95,
1.93,-0.72,0.36,-0.22,-0.17,0.09,0.95,
1.932,-0.72,0.36,-0.22,-0.16,0.10,0.95,
1.935,-0.72,0.36,-0.22,-0.16,0.10,0.95,
1.937,-0.67,0.37,-0.21,-0.16,0.10,0.95,
1.937,-0.67,0.37,-0.21,-0.16,0.10,0.95,
1.941,-0.67,0.37,-0.21,-0.16,0.10,0.95,
1.941,-0.62,0.41,-0.20,-0.16,0.10,0.95,
1.942,-0.62,0.41,-0.20,-0.16,0.11,0.95,
1.944,-0.62,0.41,-0.20,-0.16,0.11,0.95,
1.945,-0.59,0.46,-0.21,-0.16,0.11,0.95,
1.947,-0.59,0.46,-0.21,-0.16,0.11,0.95,
1.949,-0.59,0.46,-0.21,-0.16,0.12,0.94,
1.95,-0.58,0.52,-0.24,-0.16,0.12,0.94,
1.952,-0.58,0.52,-0.24,-0.16,0.12,0.94,
1.955,-0.58,0.52,-0.24,-0.16,0.13,0.94,
1.956,-0.58,0.59,-0.28,-0.16,0.13,0.94,
1.957,-0.58,0.59,-0.28,-0.16,0.13,0.94,
1.959,-0.58,0.59,-0.28,-0.17,0.13,0.94,
1.959,-0.57,0.68,-0.32,-0.17,0.13,0.94,
1.962,-0.57,0.68,-0.32,-0.17,0.14,0.94,
1.964,-0.57,0.68,-0.32,-0.17,0.14,0.94,
1.964,-0.58,0.77,-0.34,-0.17,0.14,0.94,
1.966,-0.58,0.77,-0.34,-0.17,0.14,0.93,
1.969,-0.58,0.77,-0.34,-0.17,0.15,0.93,
1.969,-0.62,0.84,-0.35,-0.17,0.15,0.93,
1.972,-0.62,0.84,-0.35,-0.18,0.15,0.93,
1.974,-0.62,0.84,-0.35,-0.18,0.15,0.94,
1.974,-0.63,0.90,-0.37,-0.18,0.15,0.94,
1.976,-0.63,0.90,-0.37,-0.18,0.16,0.93,
1.979,-0.63,0.90,-0.37,-0.18,0.16,0.94,
1.979,-0.65,0.96,-0.35,-0.18,0.16,0.94,
1.981,-0.65,0.96,-0.35,-0.18,0.16,0.94,
1.983,-0.65,0.96,-0.35,-0.17,0.17,0.94,
1.984,-0.63,1.04,-0.34,-0.17,0.17,0.94,
1.986,-0.63,1.04,-0.34,-0.17,0.17,0.94,
1.989,-0.63,1.04,-0.34,-0.17,0.17,0.94,
1.989,-0.60,1.08,-0.32,-0.17,0.17,0.94,
1.991,-0.60,1.08,-0.32,-0.17,0.17,0.94,
1.994,-0.60,1.08,-0.32,-0.17,0.18,0.94,
1.994,-0.59,1.13,-0.30,-0.17,0.18,0.94,
1.996,-0.59,1.13,-0.30,-0.17,0.17,0.94,
1.998,-0.59,1.13,-0.30,-0.17,0.17,0.94,
1.999,-0.55,1.18,-0.29,-0.17,0.17,0.94,
2.001,-0.55,1.18,-0.29,-0.17,0.17,0.95,
2.003,-0.55,1.18,-0.29,-0.17,0.17,0.95,
2.004,-0.52,1.17,-0.27,-0.17,0.17,0.95,
2.011,-0.52,1.17,-0.27,-0.17,0.17,0.95,
2.011,-0.52,1.17,-0.27,-0.16,0.17,0.95,
2.012,-0.48,1.17,-0.22,-0.16,0.17,0.95,
2.012,-0.48,1.17,-0.22,-0.16,0.17,0.96,
2.013,-0.48,1.17,-0.22,-0.16,0.17,0.96,
2.013,-0.45,1.14,-0.16,-0.16,0.17,0.96,
2.015,-0.45,1.14,-0.16,-0.16,0.17,0.97,
2.018,-0.45,1.14,-0.16,-0.16,0.17,0.97,
2.018,-0.42,1.11,-0.08,-0.16,0.17,0.97,
2.02,-0.42,1.11,-0.08,-0.16,0.16,0.97,
2.024,-0.42,1.11,-0.08,-0.15,0.16,0.98,
2.024,-0.39,1.10,0.01,-0.15,0.16,0.98,
2.025,-0.39,1.10,0.01,-0.15,0.16,0.98,
2.028,-0.39,1.10,0.01,-0.14,0.16,0.98,
2.028,-0.31,1.07,0.07,-0.14,0.16,0.98,
2.03,-0.31,1.07,0.07,-0.14,0.16,0.98,
2.032,-0.31,1.07,0.07,-0.13,0.16,0.98,
2.033,-0.21,1.04,0.12,-0.13,0.16,0.98,
2.035,-0.21,1.04,0.12,-0.13,0.15,0.98,
2.038,-0.21,1.04,0.12,-0.13,0.15,0.99,
2.038,-0.12,1.00,0.14,-0.13,0.15,0.99,
2.04,-0.12,1.00,0.14,-0.12,0.15,0.99,
2.042,-0.12,1.00,0.14,-0.12,0.15,0.99,
2.042,-0.04,0.95,0.16,-0.12,0.15,0.99,
2.045,-0.04,0.95,0.16,-0.11,0.15,0.99,
2.047,-0.04,0.95,0.16,-0.11,0.15,0.98,
2.047,0.05,0.92,0.17,-0.11,0.15,0.98,
2.049,0.05,0.92,0.17,-0.10,0.14,0.98,
2.052,0.05,0.92,0.17,-0.10,0.14,0.98,
2.052,0.15,0.89,0.15,-0.10,0.14,0.98,
2.054,0.15,0.89,0.15,-0.10,0.14,0.98,
2.057,0.15,0.89,0.15,-0.09,0.14,0.98,
2.057,0.23,0.83,0.13,-0.09,0.14,0.98,
2.059,0.23,0.83,0.13,-0.09,0.14,0.98,
2.062,0.23,0.83,0.13,-0.09,0.13,0.98,
2.062,0.30,0.80,0.09,-0.09,0.13,0.98,
2.064,0.30,0.80,0.09,-0.09,0.13,0.97,
2.067,0.30,0.80,0.09,-0.09,0.13,0.97,
2.067,0.33,0.77,0.06,-0.09,0.13,0.97,
2.069,0.33,0.77,0.06,-0.08,0.13,0.97,
2.072,0.33,0.77,0.06,-0.08,0.13,0.97,
2.072,0.36,0.73,0.03,-0.08,0.13,0.97,
2.074,0.36,0.73,0.03,-0.08,0.12,0.97,
2.077,0.36,0.73,0.03,-0.08,0.12,0.97,
2.077,0.39,0.69,0.00,-0.08,0.12,0.97,
2.079,0.39,0.69,0.00,-0.08,0.12,0.97,
2.081,0.39,0.69,0.00,-0.08,0.12,0.97,
2.082,0.42,0.66,-0.02,-0.08,0.12,0.97,
2.084,0.42,0.66,-0.02,-0.07,0.11,0.97,
2.087,0.42,0.66,-0.02,-0.07,0.11,0.97,
2.087,0.46,0.63,-0.02,-0.07,0.11,0.97,
2.089,0.46,0.63,-0.02,-0.06,0.11,0.98,
2.092,0.46,0.63,-0.02,-0.06,0.10,0.98,
2.092,0.52,0.57,0.03,-0.06,0.10,0.98,
2.094,0.52,0.57,0.03,-0.05,0.10,0.99,
2.096,0.52,0.57,0.03,-0.05,0.10,0.99,
2.097,0.63,0.51,0.10,-0.05,0.10,0.99,
2.099,0.63,0.51,0.10,-0.05,0.10,1.00,
2.101,0.63,0.51,0.10,-0.05,0.09,1.00,
2.101,0.72,0.45,0.19,-0.05,0.09,1.00,
2.103,0.72,0.45,0.19,-0.04,0.09,1.01,
2.106,0.72,0.45,0.19,-0.04,0.09,1.02,
2.106,0.76,0.39,0.30,-0.04,0.09,1.02,
2.109,0.76,0.39,0.30,-0.04,0.08,1.02,
2.111,0.76,0.39,0.30,-0.04,0.08,1.02,
2.111,0.79,0.33,0.42,-0.04,0.08,1.02,
2.113,0.79,0.33,0.42,-0.04,0.08,1.03,
2.116,0.79,0.33,0.42,-0.04,0.07,1.03,
2.116,0.83,0.26,0.51,-0.04,0.07,1.03,
2.118,0.83,0.26,0.51,-0.03,0.07,1.04,
2.127,0.88,0.20,0.60,-0.03,0.07,1.04,
2.128,0.88,0.20,0.60,-0.04,0.07,1.04,
2.128,0.88,0.20,0.60,-0.04,0.07,1.05,
2.129,0.88,0.20,0.60,-0.04,0.07,1.05,
2.129,0.89,0.15,0.69,-0.04,0.07,1.05,
2.129,0.89,0.15,0.69,-0.03,0.07,1.05,
2.131,0.89,0.15,0.69,-0.03,0.07,1.06,
2.131,0.89,0.16,0.76,-0.03,0.07,1.06,
2.133,0.89,0.16,0.76,-0.03,0.07,1.05,
2.135,0.89,0.16,0.76,-0.03,0.07,1.05,
2.136,0.93,0.15,0.81,-0.03,0.07,1.05,
2.139,0.93,0.15,0.81,-0.04,0.07,1.05,
2.141,0.93,0.15,0.81,-0.04,0.07,1.05,
2.141,0.94,0.14,0.80,-0.04,0.07,1.05,
2.143,0.94,0.14,0.80,-0.04,0.07,1.05,
2.145,0.94,0.14,0.80,-0.04,0.07,1.05,
2.145,0.92,0.10,0.80,-0.04,0.07,1.05,
2.147,0.92,0.10,0.80,-0.05,0.07,1.05,
2.15,0.92,0.10,0.80,-0.05,0.07,1.05,
2.15,0.88,0.11,0.79,-0.05,0.07,1.05,
2.153,0.88,0.11,0.79,-0.05,0.07,1.05,
2.155,0.88,0.11,0.79,-0.05,0.07,1.05,
2.156,0.85,0.12,0.79,-0.05,0.07,1.05,
2.157,0.85,0.12,0.79,-0.05,0.07,1.05,
2.16,0.85,0.12,0.79,-0.06,0.08,1.05,
2.16,0.81,0.11,0.78,-0.06,0.08,1.05,
2.162,0.81,0.11,0.78,-0.06,0.08,1.05,
2.165,0.81,0.11,0.78,-0.06,0.08,1.05,
2.165,0.79,0.10,0.76,-0.06,0.08,1.05,
2.167,0.79,0.10,0.76,-0.07,0.08,1.05,
2.17,0.79,0.10,0.76,-0.07,0.09,1.05,
2.17,0.72,0.15,0.73,-0.07,0.09,1.05,
2.172,0.72,0.15,0.73,-0.07,0.09,1.05,
2.175,0.72,0.15,0.73,-0.07,0.09,1.05,
2.175,0.69,0.17,0.71,-0.07,0.09,1.05,
2.177,0.69,0.17,0.71,-0.07,0.09,1.05,
2.179,0.69,0.17,0.71,-0.07,0.09,1.05,
2.18,0.68,0.18,0.70,-0.07,0.09,1.05,
2.182,0.68,0.18,0.70,-0.07,0.09,1.04,
2.184,0.68,0.18,0.70,-0.07,0.09,1.04,
2.184,0.65,0.17,0.69,-0.07,0.09,1.04,
2.187,0.65,0.17,0.69,-0.07,0.09,1.04,
2.189,0.65,0.17,0.69,-0.08,0.10,1.04,
2.19,0.65,0.19,0.67,-0.08,0.10,1.04,
2.192,0.65,0.19,0.67,-0.08,0.10,1.04,
2.194,0.65,0.19,0.67,-0.08,0.10,1.04,
2.195,0.63,0.22,0.66,-0.08,0.10,1.04,
2.196,0.63,0.22,0.66,-0.08,0.10,1.04,
2.199,0.63,0.22,0.66,-0.08,0.10,1.04,
2.199,0.60,0.24,0.65,-0.08,0.10,1.04,
2.201,0.60,0.24,0.65,-0.08,0.10,1.04,
2.21,0.60,0.24,0.65,-0.08,0.10,1.03,
2.211,0.57,0.25,0.62,-0.08,0.10,1.03,
2.211,0.57,0.25,0.62,-0.09,0.10,1.03,
2.211,0.57,0.25,0.62,-0.09,0.10,1.03,
2.212,0.55,0.24,0.57,-0.09,0.10,1.03,
2.212,0.55,0.24,0.57,-0.09,0.10,1.03,
2.214,0.55,0.24,0.57,-0.09,0.11,1.02,
2.214,0.51,0.24,0.53,-0.09,0.11,1.02,
2.216,0.51,0.24,0.53,-0.09,0.11,1.02,
2.219,0.51,0.24,0.53,-0.09,0.11,1.02,
2.219,0.48,0.25,0.46,-0.09,0.11,1.02,
2.226,0.48,0.25,0.46,-0.10,0.11,1.01,
2.227,0.48,0.25,0.46,-0.10,0.11,1.01,
2.227,0.45,0.26,0.40,-0.10,0.11,1.01,
2.227,0.45,0.26,0.40,-0.10,0.11,1.01,
2.229,0.45,0.26,0.40,-0.10,0.11,1.01,
2.229,0.40,0.27,0.32,-0.10,0.11,1.01,
2.231,0.40,0.27,0.32,-0.10,0.11,1.00,
2.233,0.40,0.27,0.32,-0.10,0.11,1.00,
2.233,0.38,0.25,0.28,-0.10,0.11,1.00,
2.236,0.38,0.25,0.28,-0.10,0.11,1.00,
2.238,0.38,0.25,0.28,-0.10,0.11,1.00,
2.239,0.37,0.25,0.23,-0.10,0.11,1.00,
2.241,0.37,0.25,0.23,-0.10,0.11,1.00,
2.243,0.37,0.25,0.23,-0.11,0.11,0.99,
2.243,0.33,0.24,0.19,-0.11,0.11,0.99,
2.246,0.33,0.24,0.19,-0.10,0.11,0.99,
2.248,0.33,0.24,0.19,-0.10,0.11,0.99,
2.248,0.31,0.24,0.15,-0.10,0.11,0.99,
2.25,0.31,0.24,0.15,-0.10,0.11,0.99,
2.253,0.31,0.24,0.15,-0.10,0.11,0.99,
2.253,0.33,0.22,0.13,-0.10,0.11,0.99,
2.255,0.33,0.22,0.13,-0.10,0.11,0.99,
2.258,0.33,0.22,0.13,-0.10,0.11,0.98,
2.258,0.35,0.22,0.09,-0.10,0.11,0.98,
2.26,0.35,0.22,0.09,-0.10,0.11,0.98,
2.263,0.35,0.22,0.09,-0.09,0.11,0.98,
2.263,0.35,0.21,0.06,-0.09,0.11,0.98,
2.265,0.35,0.21,0.06,-0.09,0.11,0.98,
2.267,0.35,0.21,0.06,-0.09,0.11,0.98,
2.268,0.38,0.18,0.02,-0.09,0.11,0.98,
2.27,0.38,0.18,0.02,-0.09,0.10,0.98,
2.273,0.38,0.18,0.02,-0.08,0.10,0.98,
2.273,0.41,0.14,-0.01,-0.08,0.10,0.98,
2.275,0.41,0.14,-0.01,-0.08,0.10,0.98,
2.277,0.41,0.14,-0.01,-0.08,0.10,0.98,
2.278,0.45,0.12,-0.02,-0.08,0.10,0.98,
2.28,0.45,0.12,-0.02,-0.08,0.10,0.98,
2.282,0.45,0.12,-0.02,-0.08,0.10,0.98,
2.282,0.47,0.10,-0.01,-0.08,0.10,0.98,
2.285,0.47,0.10,-0.01,-0.08,0.10,0.98,
2.288,0.47,0.10,-0.01,-0.08,0.10,0.98,
2.289,0.46,0.07,0.03,-0.08,0.10,0.98,
2.29,0.46,0.07,0.03,-0.08,0.10,0.99,
2.293,0.46,0.07,0.03,-0.08,0.10,0.99,
2.294,0.48,0.07,0.04,-0.08,0.10,0.99,
2.294,0.48,0.07,0.04,-0.08,0.10,0.99,
2.297,0.48,0.07,0.04,-0.08,0.10,0.99,
2.298,0.48,0.05,0.07,-0.08,0.10,0.99,
2.299,0.48,0.05,0.07,-0.08,0.10,0.99,
2.302,0.48,0.05,0.07,-0.09,0.10,0.99,
2.302,0.44,0.03,0.09,-0.09,0.10,0.99,
2.304,0.44,0.03,0.09,-0.09,0.10,0.99,
2.307,0.44,0.03,0.09,-0.09,0.09,0.99,
2.307,0.40,-0.01,0.11,-0.09,0.09,0.99,
2.309,0.40,-0.01,0.11,-0.09,0.09,0.99,
2.312,0.40,-0.01,0.11,-0.09,0.09,0.99,
2.312,0.36,-0.04,0.12,-0.09,0.09,0.99,
2.314,0.36,-0.04,0.12,-0.09,0.09,0.99,
2.317,0.36,-0.04,0.12,-0.09,0.08,0.99,
2.317,0.33,-0.09,0.10,-0.09,0.08,0.99,
2.319,0.33,-0.09,0.10,-0.09,0.08,0.98,
2.327,0.33,-0.09,0.10,-0.09,0.08,0.98,
2.327,0.29,-0.13,0.08,-0.09,0.08,0.98,
2.328,0.29,-0.13,0.08,-0.09,0.08,0.98,
2.328,0.29,-0.13,0.08,-0.09,0.08,0.97,
2.328,0.31,-0.17,0.03,-0.09,0.08,0.97,
2.329,0.31,-0.17,0.03,-0.08,0.08,0.97,
2.332,0.31,-0.17,0.03,-0.08,0.08,0.97,
2.332,0.32,-0.20,-0.04,-0.08,0.08,0.97,
2.333,0.32,-0.20,-0.04,-0.08,0.07,0.97,
2.336,0.32,-0.20,-0.04,-0.07,0.07,0.96,
2.336,0.36,-0.22,-0.08,-0.07,0.07,0.96,
2.339,0.36,-0.22,-0.08,-0.07,0.07,0.96,
2.341,0.36,-0.22,-0.08,-0.07,0.07,0.95,
2.342,0.39,-0.28,-0.17,-0.07,0.07,0.95,
2.343,0.39,-0.28,-0.17,-0.07,0.06,0.95,
2.346,0.39,-0.28,-0.17,-0.06,0.06,0.95,
2.346,0.43,-0.34,-0.24,-0.06,0.06,0.95,
2.349,0.43,-0.34,-0.24,-0.06,0.06,0.95,
2.351,0.43,-0.34,-0.24,-0.06,0.06,0.94,
2.351,0.45,-0.38,-0.28,-0.06,0.06,0.94,
2.354,0.45,-0.38,-0.28,-0.06,0.06,0.94,
2.356,0.45,-0.38,-0.28,-0.05,0.06,0.94,
2.356,0.47,-0.41,-0.32,-0.05,0.06,0.94,
2.358,0.47,-0.41,-0.32,-0.05,0.06,0.94,
2.361,0.47,-0.41,-0.32,-0.05,0.06,0.95,
2.361,0.51,-0.40,-0.35,-0.05,0.06,0.95,
2.363,0.51,-0.40,-0.35,-0.05,0.06,0.95,
2.366,0.51,-0.40,-0.35,-0.04,0.06,0.95,
2.366,0.55,-0.42,-0.34,-0.04,0.06,0.95,
2.368,0.55,-0.42,-0.34,-0.04,0.06,0.95,
2.37,0.55,-0.42,-0.34,-0.04,0.05,0.95,
2.371,0.56,-0.44,-0.30,-0.04,0.05,0.95,
2.373,0.56,-0.44,-0.30,-0.03,0.05,0.96,
2.375,0.56,-0.44,-0.30,-0.03,0.04,0.96,
2.375,0.62,-0.47,-0.24,-0.03,0.04,0.96,
2.378,0.62,-0.47,-0.24,-0.03,0.04,0.97,
2.38,0.62,-0.47,-0.24,-0.02,0.04,0.97,
2.38,0.67,-0.54,-0.18,-0.02,0.04,0.97,
2.383,0.67,-0.54,-0.18,-0.02,0.03,0.97,
2.385,0.67,-0.54,-0.18,-0.01,0.03,0.98,
2.386,0.71,-0.60,-0.11,-0.01,0.03,0.98,
2.388,0.71,-0.60,-0.11,-0.01,0.03,0.98,
2.39,0.71,-0.60,-0.11,-0.01,0.03,0.98,
2.391,0.77,-0.66,-0.05,-0.01,0.03,0.98,
2.392,0.77,-0.66,-0.05,-0.01,0.02,0.99,
2.395,0.77,-0.66,-0.05,-0.01,0.02,0.99,
2.395,0.82,-0.72,0.02,-0.01,0.02,0.99,
2.397,0.82,-0.72,0.02,-0.00,0.02,0.99,
2.4,0.84,-0.75,0.06,-0.00,0.02,0.99,
2.4,0.84,-0.75,0.06,0.00,0.02,0.99,
2.402,0.84,-0.75,0.06,0.00,0.02,0.99,
2.405,0.84,-0.75,0.06,0.01,0.01,0.99,
2.405,0.88,-0.79,0.10,0.01,0.01,0.99,
2.408,0.88,-0.79,0.10,0.01,0.01,0.99,
2.409,0.88,-0.79,0.10,0.01,0.01,1.00,
2.41,0.90,-0.83,0.13,0.01,0.01,1.00,
2.412,0.90,-0.83,0.13,0.01,0.01,1.00,
2.414,0.90,-0.83,0.13,0.01,0.01,1.00,
2.415,0.93,-0.83,0.15,0.01,0.01,1.00,
2.417,0.93,-0.83,0.15,0.01,0.01,0.99,
2.419,0.93,-0.83,0.15,0.01,0.01,0.99,
2.42,0.95,-0.86,0.16,0.01,0.01,0.99,
2.424,0.95,-0.86,0.16,0.01,0.01,0.99,
2.425,0.95,-0.86,0.16,0.01,0.01,0.99,
2.426,0.90,-0.87,0.13,0.01,0.01,0.99,
2.427,0.90,-0.87,0.13,0.01,0.01,0.99,
2.429,0.90,-0.87,0.13,0.01,0.01,0.98,
2.429,0.88,-0.88,0.10,0.01,0.01,0.98,
2.431,0.88,-0.88,0.10,0.01,0.01,0.98,
2.434,0.88,-0.88,0.10,0.01,0.01,0.98,
2.434,0.85,-0.89,0.05,0.01,0.01,0.98,
2.437,0.85,-0.89,0.05,0.00,0.01,0.98,
2.439,0.85,-0.89,0.05,0.00,0.01,0.98,
2.439,0.85,-0.89,0.01,0.00,0.01,0.98,
2.441,0.85,-0.89,0.01,0.00,0.01,0.97,
2.444,0.85,-0.89,0.01,0.00,0.01,0.97,
2.444,0.79,-0.85,-0.04,0.00,0.01,0.97,
2.446,0.79,-0.85,-0.04,0.00,0.02,0.97,
2.449,0.79,-0.85,-0.04,-0.00,0.02,0.97,
2.449,0.78,-0.83,-0.08,-0.00,0.02,0.97,
2.451,0.78,-0.83,-0.08,0.00,0.02,0.97,
2.454,0.78,-0.83,-0.08,-0.00,0.02,0.97,
2.454,0.76,-0.79,-0.09,-0.00,0.02,0.97,
2.456,0.76,-0.79,-0.09,-0.00,0.03,0.97,
2.459,0.74,-0.74,-0.11,-0.00,0.03,0.97,
2.46,0.74,-0.74,-0.11,-0.00,0.02,0.97,
2.461,0.74,-0.74,-0.11,-0.00,0.03,0.97,
2.463,0.74,-0.74,-0.11,-0.01,0.03,0.97,
2.464,0.71,-0.70,-0.08,-0.01,0.03,0.97,
2.466,0.71,-0.70,-0.08,-0.01,0.03,0.97,
2.468,0.71,-0.70,-0.08,-0.01,0.03,0.98,
2.469,0.68,-0.68,-0.06,-0.01,0.03,0.98,
2.471,0.68,-0.68,-0.06,-0.01,0.03,0.97,
2.474,0.68,-0.68,-0.06,-0.01,0.03,0.97,
2.474,0.64,-0.67,-0.04,-0.01,0.03,0.97,
2.476,0.64,-0.67,-0.04,-0.01,0.03,0.98,
2.478,0.64,-0.67,-0.04,-0.02,0.03,0.97,
2.478,0.60,-0.68,-0.05,-0.02,0.03,0.97,
2.48,0.60,-0.68,-0.05,-0.02,0.03,0.98,
2.483,0.60,-0.68,-0.05,-0.02,0.03,0.98,
2.483,0.58,-0.67,-0.04,-0.02,0.03,0.98,
2.485,0.58,-0.67,-0.04,-0.02,0.03,0.98,
2.488,0.58,-0.67,-0.04,-0.02,0.03,0.98,
2.489,0.55,-0.65,-0.02,-0.02,0.03,0.98,
2.49,0.55,-0.65,-0.02,-0.02,0.04,0.98,
2.493,0.55,-0.65,-0.02,-0.02,0.04,0.98,
2.493,0.52,-0.62,-0.02,-0.02,0.04,0.98,
2.495,0.52,-0.62,-0.02,-0.03,0.04,0.98,
2.498,0.52,-0.62,-0.02,-0.02,0.05,0.98,
2.498,0.51,-0.59,0.02,-0.02,0.05,0.98,
2.5,0.51,-0.59,0.02,-0.03,0.05,0.98,
2.505,0.47,-0.52,0.03,-0.03,0.05,0.98,
2.505,0.47,-0.52,0.03,-0.03,0.05,0.98,
2.506,0.47,-0.52,0.03,-0.04,0.05,0.98,
2.507,0.47,-0.52,0.03,-0.04,0.05,0.98,
2.508,0.41,-0.49,0.03,-0.04,0.05,0.98,
2.51,0.41,-0.49,0.03,-0.04,0.05,0.98,
2.513,0.41,-0.49,0.03,-0.05,0.05,0.98,
2.513,0.33,-0.47,0.03,-0.05,0.05,0.98,
2.515,0.33,-0.47,0.03,-0.05,0.06,0.98,
2.517,0.33,-0.47,0.03,-0.05,0.06,0.97,
2.518,0.25,-0.44,0.01,-0.05,0.06,0.97,
2.526,0.25,-0.44,0.01,-0.05,0.06,0.97,
2.527,0.25,-0.44,0.01,-0.05,0.06,0.97,
2.527,0.23,-0.40,-0.04,-0.05,0.06,0.97,
2.527,0.23,-0.40,-0.04,-0.05,0.06,0.97,
2.527,0.23,-0.40,-0.04,-0.05,0.07,0.96,
2.528,0.21,-0.37,-0.08,-0.05,0.07,0.96,
2.529,0.21,-0.37,-0.08,-0.05,0.07,0.96,
2.532,0.21,-0.37,-0.08,-0.05,0.07,0.96,
2.532,0.19,-0.32,-0.13,-0.05,0.07,0.96,
2.534,0.19,-0.32,-0.13,-0.05,0.07,0.96,
2.537,0.19,-0.32,-0.13,-0.04,0.07,0.96,
2.537,0.20,-0.29,-0.18,-0.04,0.07,0.96,
2.539,0.20,-0.29,-0.18,-0.04,0.07,0.95,
2.542,0.20,-0.29,-0.18,-0.04,0.07,0.95,
2.542,0.24,-0.24,-0.21,-0.04,0.07,0.95,
2.544,0.24,-0.24,-0.21,-0.04,0.07,0.95,
2.547,0.24,-0.24,-0.21,-0.04,0.07,0.95,
2.547,0.25,-0.23,-0.24,-0.04,0.07,0.95,
2.549,0.25,-0.23,-0.24,-0.04,0.07,0.95,
2.552,0.25,-0.23,-0.24,-0.04,0.07,0.95,
2.552,0.27,-0.24,-0.26,-0.04,0.07,0.95,
2.554,0.27,-0.24,-0.26,-0.03,0.07,0.95,
2.557,0.27,-0.24,-0.26,-0.03,0.07,0.95,
2.557,0.29,-0.23,-0.26,-0.03,0.07,0.95,
2.559,0.29,-0.23,-0.26,-0.03,0.07,0.95,
2.561,0.29,-0.23,-0.26,-0.03,0.07,0.96,
2.562,0.32,-0.23,-0.26,-0.03,0.07,0.96,
2.564,0.32,-0.23,-0.26,-0.03,0.07,0.96,
2.566,0.32,-0.23,-0.26,-0.03,0.07,0.96,
2.566,0.34,-0.23,-0.23,-0.03,0.07,0.96,
2.568,0.34,-0.23,-0.23,-0.03,0.08,0.96,
2.571,0.34,-0.23,-0.23,-0.03,0.08,0.96,
2.572,0.36,-0.24,-0.19,-0.03,0.08,0.96,
2.574,0.36,-0.24,-0.19,-0.03,0.08,0.96,
2.576,0.36,-0.24,-0.19,-0.03,0.08,0.97,
2.576,0.35,-0.20,-0.15,-0.03,0.08,0.97,
2.578,0.35,-0.20,-0.15,-0.03,0.08,0.97,
2.581,0.35,-0.20,-0.15,-0.04,0.08,0.98,
2.581,0.31,-0.18,-0.11,-0.04,0.08,0.98,
2.583,0.31,-0.18,-0.11,-0.04,0.08,0.98,
2.587,0.31,-0.18,-0.11,-0.04,0.08,0.98,
2.587,0.27,-0.16,-0.04,-0.04,0.08,0.98,
2.592,0.27,-0.16,-0.04,-0.04,0.08,0.99,
2.592,0.27,-0.16,-0.04,-0.04,0.08,0.99,
2.593,0.22,-0.13,0.04,-0.04,0.08,0.99,
2.593,0.22,-0.13,0.04,-0.05,0.08,0.99,
2.596,0.22,-0.13,0.04,-0.05,0.09,0.99,
2.596,0.19,-0.12,0.11,-0.05,0.09,0.99,
2.598,0.19,-0.12,0.11,-0.05,0.09,0.99,
2.6,0.19,-0.12,0.11,-0.05,0.09,0.99,
2.601,0.13,-0.11,0.14,-0.05,0.09,0.99,
2.609,0.13,-0.11,0.14,-0.05,0.09,0.99,
2.609,0.13,-0.11,0.14,-0.05,0.09,1.00,
2.61,0.10,-0.09,0.16,-0.05,0.09,1.00,
2.61,0.10,-0.09,0.16,-0.06,0.09,1.00,
2.611,0.10,-0.09,0.16,-0.06,0.09,0.99,
2.611,0.06,-0.08,0.17,-0.06,0.09,0.99,
2.613,0.06,-0.08,0.17,-0.06,0.09,0.99,
2.615,0.06,-0.08,0.17,-0.05,0.09,0.99,
2.616,0.03,-0.09,0.16,-0.05,0.09,0.99,
2.617,0.03,-0.09,0.16,-0.05,0.09,0.99,
2.623,0.03,-0.09,0.16,-0.05,0.09,0.99,
2.624,0.04,-0.08,0.14,-0.05,0.09,0.99,
2.624,0.04,-0.08,0.14,-0.05,0.08,0.99,
2.625,0.04,-0.08,0.14,-0.05,0.08,0.99,
2.625,0.08,-0.09,0.13,-0.05,0.08,0.99,
2.627,0.08,-0.09,0.13,-0.05,0.08,0.99,
2.63,0.08,-0.09,0.13,-0.04,0.08,0.99,
2.63,0.11,-0.11,0.12,-0.04,0.08,0.99,
2.632,0.11,-0.11,0.12,-0.04,0.08,0.99,
2.635,0.11,-0.11,0.12,-0.04,0.08,0.98,
2.635,0.12,-0.13,0.09,-0.04,0.08,0.98,
2.637,0.12,-0.13,0.09,-0.04,0.08,0.98,
2.64,0.12,-0.13,0.09,-0.03,0.08,0.98,
2.64,0.17,-0.15,0.07,-0.03,0.08,0.98,
2.642,0.17,-0.15,0.07,-0.03,0.08,0.98,
2.645,0.17,-0.15,0.07,-0.03,0.08,0.98,
2.645,0.20,-0.15,0.06,-0.03,0.08,0.98,
2.647,0.20,-0.15,0.06,-0.03,0.08,0.98,
2.649,0.20,-0.15,0.06,-0.03,0.08,0.98,
2.649,0.23,-0.16,0.05,-0.03,0.08,0.98,
2.652,0.23,-0.16,0.05,-0.03,0.08,0.98,
2.654,0.23,-0.16,0.05,-0.03,0.07,0.98,
2.654,0.25,-0.17,0.05,-0.03,0.07,0.98,
2.657,0.25,-0.17,0.05,-0.03,0.08,0.99,
2.659,0.25,-0.17,0.05,-0.03,0.08,0.99,
2.659,0.25,-0.19,0.05,-0.03,0.08,0.99,
2.661,0.25,-0.19,0.05,-0.03,0.08,0.99,
2.664,0.25,-0.19,0.05,-0.03,0.07,0.99,
2.664,0.25,-0.18,0.08,-0.03,0.07,0.99,
2.666,0.25,-0.18,0.08,-0.03,0.07,0.99,
2.67,0.25,-0.18,0.08,-0.03,0.08,0.98,
2.67,0.23,-0.19,0.08,-0.03,0.08,0.98,
2.672,0.23,-0.19,0.08,-0.03,0.08,0.99,
2.674,0.23,-0.19,0.08,-0.03,0.08,0.99,
2.674,0.21,-0.20,0.06,-0.03,0.08,0.99,
2.676,0.21,-0.20,0.06,-0.03,0.08,0.99,
2.679,0.21,-0.20,0.06,-0.03,0.08,0.99,
2.679,0.20,-0.17,0.07,-0.03,0.08,0.99,
2.681,0.20,-0.17,0.07,-0.03,0.08,0.99,
2.684,0.20,-0.17,0.07,-0.04,0.08,0.99,
2.684,0.18,-0.15,0.09,-0.04,0.08,0.99,
2.687,0.18,-0.15,0.09,-0.04,0.08,0.99,
2.689,0.18,-0.15,0.09,-0.04,0.08,0.99,
2.69,0.16,-0.13,0.10,-0.04,0.08,0.99,
2.692,0.16,-0.13,0.10,-0.04,0.08,0.99,
2.694,0.16,-0.13,0.10,-0.04,0.08,0.99,
2.694,0.12,-0.15,0.08,-0.04,0.08,0.99,
2.696,0.12,-0.15,0.08,-0.04,0.08,0.99,
2.698,0.12,-0.15,0.08,-0.04,0.08,0.99,
2.699,0.09,-0.14,0.09,-0.04,0.08,0.99,
2.701,0.09,-0.14,0.09,-0.05,0.08,0.99,
2.704,0.09,-0.14,0.09,-0.05,0.08,0.99,
2.704,0.07,-0.13,0.10,-0.05,0.08,0.99,
2.706,0.07,-0.13,0.10,-0.05,0.09,0.99,
2.709,0.07,-0.13,0.10,-0.05,0.09,0.99,
2.709,0.04,-0.10,0.10,-0.05,0.09,0.99,
2.711,0.04,-0.10,0.10,-0.05,0.09,1.00,
2.713,0.04,-0.10,0.10,-0.05,0.09,1.00,
2.713,0.03,-0.07,0.13,-0.05,0.09,1.00,
2.715,0.03,-0.07,0.13,-0.05,0.09,1.00,
2.718,0.03,-0.07,0.13,-0.05,0.09,1.00,
2.719,0.01,-0.05,0.16,-0.05,0.09,1.00,
2.725,0.01,-0.05,0.16,-0.05,0.09,1.00,
2.726,-0.04,-0.04,0.18,-0.05,0.09,1.00,
2.726,-0.04,-0.04,0.18,-0.06,0.09,1.00,
2.726,-0.04,-0.04,0.18,-0.06,0.09,1.00,
2.728,-0.04,-0.04,0.18,-0.06,0.09,1.00,
2.728,-0.06,-0.06,0.19,-0.06,0.09,1.00,
2.73,-0.06,-0.06,0.19,-0.06,0.09,1.00,
2.733,-0.06,-0.06,0.19,-0.06,0.09,1.00,
2.733,-0.10,-0.05,0.19,-0.06,0.09,1.00,
2.735,-0.10,-0.05,0.19,-0.06,0.09,1.00,
2.738,-0.10,-0.05,0.19,-0.06,0.09,1.00,
2.739,-0.11,-0.05,0.19,-0.06,0.09,1.00,
2.74,-0.11,-0.05,0.19,-0.06,0.09,1.00,
2.743,-0.11,-0.05,0.19,-0.06,0.09,1.00,
2.744,-0.10,-0.04,0.18,-0.06,0.09,1.00,
2.745,-0.10,-0.04,0.18,-0.06,0.09,1.00,
2.747,-0.10,-0.04,0.18,-0.06,0.09,1.00,
2.747,-0.10,-0.03,0.18,-0.06,0.09,1.00,
2.75,-0.10,-0.03,0.18,-0.06,0.09,1.00,
2.753,-0.10,-0.03,0.18,-0.06,0.09,1.00,
2.754,-0.10,-0.03,0.17,-0.06,0.09,1.00,
2.754,-0.10,-0.03,0.17,-0.06,0.09,0.99,
2.757,-0.10,-0.03,0.17,-0.06,0.09,0.99,
2.757,-0.09,-0.03,0.15,-0.06,0.09,0.99,
2.759,-0.09,-0.03,0.15,-0.05,0.09,0.99,
2.762,-0.09,-0.03,0.15,-0.06,0.08,0.89,
2.762,-0.09,-0.06,0.13,-0.06,0.08,0.89,
2.764,-0.09,-0.06,0.13,-0.08,0.10,0.70,
2.767,-0.09,-0.06,0.13,-0.06,0.12,0.68,
2.767,-0.09,-0.09,-0.40,-0.06,0.12,0.68,
2.77,-0.09,-0.09,-0.40,-0.04,0.13,0.79,
2.772,-0.09,-0.09,-0.40,-0.04,0.13,0.89,
2.772,-0.24,0.15,-2.80,-0.04,0.13,0.89,
2.774,-0.24,0.15,-2.80,-0.05,0.12,0.93,
2.777,-0.24,0.15,-2.80,-0.08,0.10,0.93,
2.778,0.11,0.39,-1.33,-0.08,0.10,0.93,
2.779,0.11,0.39,-1.33,-0.08,0.09,0.92,
2.782,0.11,0.39,-1.33,-0.08,0.09,0.90,
2.782,-0.15,0.16,-0.46,-0.08,0.09,0.90,
2.784,-0.15,0.16,-0.46,-0.06,0.09,0.90,
2.786,-0.15,0.16,-0.46,-0.05,0.09,0.91,
2.787,-0.29,-0.04,-0.66,-0.05,0.09,0.91,
2.789,-0.29,-0.04,-0.66,-0.05,0.09,0.92,
2.791,-0.29,-0.04,-0.66,-0.05,0.08,0.95,
2.791,-0.09,-0.03,-0.73,-0.05,0.08,0.95,
2.794,-0.09,-0.03,-0.73,-0.05,0.08,0.97,
2.796,-0.09,-0.03,-0.73,-0.05,0.08,0.98,
2.796,-0.02,-0.03,-0.41,-0.05,0.08,0.98,
2.799,-0.02,-0.03,-0.41,-0.05,0.07,0.99,
2.801,-0.02,-0.03,-0.41,-0.05,0.07,1.00,
2.801,-0.04,-0.08,-0.02,-0.05,0.07,1.00,
2.803,-0.04,-0.08,-0.02,-0.05,0.07,1.01,
2.806,-0.04,-0.08,-0.02,-0.05,0.07,1.02,
2.806,-0.03,-0.13,0.22,-0.05,0.07,1.02,
2.808,-0.03,-0.13,0.22,-0.05,0.07,1.03,
2.811,-0.03,-0.13,0.22,-0.05,0.08,1.04,
2.811,0.02,-0.12,0.40,-0.05,0.08,1.04,
2.813,0.02,-0.12,0.40,-0.06,0.08,1.05,
2.816,0.02,-0.12,0.40,-0.06,0.08,1.06,
2.816,-0.04,-0.08,0.60,-0.06,0.08,1.06,
2.818,-0.04,-0.08,0.60,-0.06,0.08,1.06,
2.823,-0.04,-0.08,0.60,-0.06,0.08,1.06,
2.823,-0.10,-0.06,0.74,-0.06,0.08,1.06,
2.824,-0.10,-0.06,0.74,-0.06,0.08,1.07,
2.826,-0.10,-0.06,0.74,-0.05,0.09,1.06,
2.826,-0.11,-0.02,0.83,-0.05,0.09,1.06,
2.828,-0.11,-0.02,0.83,-0.05,0.09,1.06,
2.831,-0.11,-0.02,0.83,-0.05,0.09,1.05,
2.831,-0.08,0.01,0.83,-0.05,0.09,1.05,
2.833,-0.08,0.01,0.83,-0.04,0.09,1.05,
2.836,-0.08,0.01,0.83,-0.04,0.10,1.04,
2.837,-0.01,0.06,0.74,-0.04,0.10,1.04,
2.838,-0.01,0.06,0.74,-0.04,0.10,1.04,
2.84,-0.01,0.06,0.74,-0.04,0.10,1.04,
2.841,0.03,0.10,0.65,-0.04,0.10,1.04,
2.843,0.03,0.10,0.65,-0.04,0.10,1.03,
2.845,0.03,0.10,0.65,-0.05,0.09,1.03,
2.845,0.05,0.11,0.56,-0.05,0.09,1.03,
2.847,0.05,0.11,0.56,-0.04,0.09,1.02,
2.85,0.05,0.11,0.56,-0.05,0.09,1.02,
2.85,0.03,0.08,0.47,-0.05,0.09,1.02,
2.853,0.03,0.08,0.47,-0.05,0.09,1.02,
