
time,ax,ay,az,gFx,gFy,gFz,
0.002,0.01,0.06,-0.26,-0.02,0.14,0.96,
0.002,0.00,0.04,-0.23,-0.02,0.14,0.96,
0.003,0.00,0.04,-0.23,-0.02,0.14,0.96,
0.003,0.00,0.04,-0.23,-0.02,0.14,0.97,
0.003,-0.01,0.02,-0.17,-0.02,0.14,0.97,
0.005,-0.01,0.02,-0.17,-0.02,0.14,0.97,
0.007,-0.01,0.02,-0.17,-0.02,0.14,0.97,
0.008,-0.05,0.01,-0.08,-0.02,0.14,0.97,
0.01,-0.05,0.01,-0.08,-0.02,0.14,0.97,
0.015,-0.05,0.01,-0.08,-0.02,0.14,0.97,
0.015,-0.05,0.01,-0.01,-0.02,0.14,0.97,
0.015,-0.05,0.01,-0.01,-0.03,0.14,0.97,
0.017,-0.05,0.01,-0.01,-0.02,0.15,0.97,
0.018,-0.07,0.03,-0.00,-0.02,0.15,0.97,
0.02,-0.07,0.03,-0.00,-0.02,0.15,0.97,
0.022,-0.07,0.03,-0.00,-0.02,0.15,0.97,
0.022,-0.09,0.08,-0.01,-0.02,0.15,0.97,
0.025,-0.09,0.08,-0.01,-0.02,0.15,0.97,
0.027,-0.09,0.08,-0.01,-0.02,0.15,0.97,
0.027,-0.08,0.09,-0.02,-0.02,0.15,0.97,
0.039,-0.08,0.09,-0.02,-0.02,0.15,0.97,
0.04,-0.08,0.09,-0.02,-0.02,0.15,0.97,
0.04,-0.10,0.09,-0.06,-0.02,0.15,0.97,
0.04,-0.10,0.09,-0.06,-0.02,0.15,0.96,
0.04,-0.10,0.09,-0.06,-0.02,0.15,0.96,
0.04,-0.08,0.08,-0.06,-0.02,0.15,0.96,
0.041,-0.08,0.08,-0.06,-0.02,0.15,0.96,
0.042,-0.08,0.08,-0.06,-0.02,0.15,0.96,
0.042,-0.07,0.11,-0.07,-0.02,0.15,0.96,
0.044,-0.07,0.11,-0.07,-0.02,0.15,0.96,
0.047,-0.07,0.11,-0.07,-0.02,0.15,0.96,
0.047,-0.05,0.10,-0.09,-0.02,0.15,0.96,
0.049,-0.05,0.10,-0.09,-0.01,0.15,0.96,
0.052,-0.05,0.10,-0.09,-0.01,0.15,0.97,
0.052,-0.05,0.08,-0.08,-0.01,0.15,0.97,
0.054,-0.05,0.08,-0.08,-0.01,0.15,0.97,
0.056,-0.05,0.08,-0.08,-0.01,0.15,0.97,
0.057,-0.00,0.06,-0.06,-0.01,0.15,0.97,
0.059,-0.00,0.06,-0.06,-0.01,0.15,0.97,
0.061,-0.00,0.06,-0.06,-0.01,0.15,0.97,
0.061,0.02,0.04,-0.02,-0.01,0.15,0.97,
0.064,0.02,0.04,-0.02,-0.01,0.15,0.97,
0.066,0.02,0.04,-0.02,-0.01,0.15,0.97,
0.067,0.04,0.05,0.01,-0.01,0.15,0.97,
0.069,0.04,0.05,0.01,-0.01,0.15,0.97,
0.071,0.04,0.05,0.01,-0.01,0.15,0.98,
0.071,0.04,0.04,0.02,-0.01,0.15,0.98,
0.074,0.04,0.04,0.02,-0.01,0.15,0.97,
0.076,0.04,0.04,0.02,-0.01,0.15,0.98,
0.076,0.03,0.03,0.03,-0.01,0.15,0.98,
0.079,0.03,0.03,0.03,-0.02,0.15,0.98,
0.081,0.03,0.03,0.03,-0.02,0.15,0.98,
0.082,0.01,0.03,0.04,-0.02,0.15,0.98,
0.084,0.01,0.03,0.04,-0.02,0.15,0.98,
0.086,0.01,0.03,0.04,-0.02,0.16,0.98,
0.086,-0.05,0.02,0.06,-0.02,0.16,0.98,
0.089,-0.05,0.02,0.06,-0.02,0.15,0.98,
0.091,-0.05,0.02,0.06,-0.03,0.15,0.98,
0.091,-0.09,0.06,0.07,-0.03,0.15,0.98,
0.093,-0.09,0.06,0.07,-0.02,0.15,0.98,
0.096,-0.09,0.06,0.07,-0.02,0.15,0.98,
0.096,-0.10,0.04,0.11,-0.02,0.15,0.98,
0.098,-0.10,0.04,0.11,-0.03,0.15,0.97,
0.101,-0.10,0.04,0.11,-0.03,0.15,0.96,
0.101,-0.10,0.03,0.10,-0.03,0.15,0.96,
0.103,-0.10,0.03,0.10,-0.02,0.15,0.96,
0.106,-0.10,0.03,0.10,-0.02,0.15,0.95,
0.106,-0.11,-0.00,-0.02,-0.02,0.15,0.95,
0.108,-0.11,-0.00,-0.02,-0.02,0.15,0.94,
0.11,-0.09,-0.02,-0.18,-0.02,0.15,0.94,
0.111,-0.09,-0.02,-0.18,-0.02,0.15,0.94,
0.113,-0.09,-0.02,-0.18,-0.02,0.16,0.93,
0.115,-0.09,-0.02,-0.18,-0.02,0.16,0.93,
0.115,-0.06,-0.01,-0.30,-0.02,0.16,0.93,
0.118,-0.06,-0.01,-0.30,-0.01,0.16,0.92,
0.12,-0.06,-0.01,-0.30,-0.02,0.16,0.92,
0.12,-0.01,0.02,-0.41,-0.02,0.16,0.92,
0.123,-0.01,0.02,-0.41,-0.02,0.16,0.91,
0.125,-0.01,0.02,-0.41,-0.02,0.16,0.91,
0.125,0.02,0.03,-0.49,-0.02,0.16,0.91,
0.128,0.02,0.03,-0.49,-0.02,0.16,0.91,
0.13,0.02,0.03,-0.49,-0.02,0.16,0.91,
0.131,-0.00,0.02,-0.56,-0.02,0.16,0.91,
0.133,-0.00,0.02,-0.56,-0.02,0.16,0.91,
0.135,-0.00,0.02,-0.56,-0.02,0.16,0.91,
0.135,0.01,0.01,-0.58,-0.02,0.16,0.91,
0.137,0.01,0.01,-0.58,-0.02,0.16,0.92,
0.14,0.01,0.01,-0.58,-0.02,0.16,0.92,
0.14,-0.02,0.02,-0.52,-0.02,0.16,0.92,
0.142,-0.02,0.02,-0.52,-0.03,0.15,0.92,
0.145,-0.02,0.02,-0.52,-0.03,0.16,0.93,
0.145,-0.05,0.02,-0.49,-0.03,0.16,0.93,
0.148,-0.05,0.02,-0.49,-0.03,0.15,0.93,
0.149,-0.05,0.02,-0.49,-0.03,0.15,0.93,
0.15,-0.07,0.00,-0.41,-0.03,0.15,0.93,
0.152,-0.07,0.00,-0.41,-0.03,0.15,0.94,
0.154,-0.07,0.00,-0.41,-0.03,0.15,0.94,
0.155,-0.08,-0.02,-0.34,-0.03,0.15,0.94,
0.157,-0.08,-0.02,-0.34,-0.03,0.15,0.95,
0.159,-0.08,-0.02,-0.34,-0.03,0.15,0.95,
0.161,-0.11,-0.04,-0.26,-0.03,0.15,0.95,
0.162,-0.11,-0.04,-0.26,-0.03,0.15,0.95,
0.164,-0.11,-0.04,-0.26,-0.03,0.14,0.96,
0.164,-0.11,-0.07,-0.19,-0.03,0.14,0.96,
0.167,-0.11,-0.07,-0.19,-0.03,0.14,0.96,
0.169,-0.11,-0.07,-0.19,-0.03,0.14,0.96,
0.169,-0.10,-0.06,-0.12,-0.03,0.14,0.96,
0.171,-0.10,-0.06,-0.12,-0.03,0.14,0.97,
0.174,-0.10,-0.06,-0.12,-0.03,0.14,0.97,
0.174,-0.09,-0.06,-0.05,-0.03,0.14,0.97,
0.176,-0.09,-0.06,-0.05,-0.03,0.14,0.97,
0.179,-0.09,-0.06,-0.05,-0.03,0.14,0.97,
0.179,-0.06,-0.06,0.01,-0.03,0.14,0.97,
0.181,-0.06,-0.06,0.01,-0.03,0.14,0.97,
0.184,-0.06,-0.06,0.01,-0.03,0.14,0.97,
0.184,-0.06,-0.07,0.05,-0.03,0.14,0.97,
0.186,-0.06,-0.07,0.05,-0.03,0.14,0.98,
0.189,-0.04,-0.08,0.07,-0.03,0.14,0.98,
0.189,-0.04,-0.08,0.07,-0.02,0.13,0.98,
0.191,-0.04,-0.08,0.07,-0.02,0.13,0.98,
0.193,-0.04,-0.08,0.07,-0.02,0.13,0.98,
0.194,0.00,-0.10,0.09,-0.02,0.13,0.98,
0.196,0.00,-0.10,0.09,-0.02,0.13,0.98,
0.199,0.00,-0.10,0.09,-0.01,0.13,0.98,
0.199,0.06,-0.12,0.12,-0.01,0.13,0.98,
0.201,0.06,-0.12,0.12,-0.01,0.13,0.98,
0.203,0.06,-0.12,0.12,-0.01,0.13,0.99,
0.204,0.09,-0.14,0.14,-0.01,0.13,0.99,
0.206,0.09,-0.14,0.14,-0.01,0.13,0.99,
0.208,0.09,-0.14,0.14,-0.00,0.13,0.98,
0.209,0.15,-0.13,0.16,-0.00,0.13,0.98,
0.211,0.15,-0.13,0.16,0.00,0.13,0.99,
0.213,0.15,-0.13,0.16,0.00,0.13,0.99,
0.214,0.22,-0.12,0.16,0.00,0.13,0.99,
0.216,0.22,-0.12,0.16,0.01,0.13,0.99,
0.218,0.22,-0.12,0.16,0.01,0.13,0.99,
0.218,0.30,-0.11,0.17,0.01,0.13,0.99,
0.22,0.30,-0.11,0.17,0.01,0.13,0.99,
0.223,0.30,-0.11,0.17,0.02,0.13,1.00,
0.223,0.37,-0.09,0.20,0.02,0.13,1.00,
0.226,0.37,-0.09,0.20,0.01,0.13,1.00,
0.228,0.37,-0.09,0.20,0.02,0.13,1.00,
0.228,0.41,-0.10,0.24,0.02,0.13,1.00,
0.232,0.41,-0.10,0.24,0.02,0.12,1.00,
0.233,0.41,-0.10,0.24,0.02,0.12,1.00,
0.233,0.43,-0.12,0.28,0.02,0.12,1.00,
0.235,0.43,-0.12,0.28,0.02,0.12,1.00,
0.237,0.43,-0.12,0.28,0.02,0.12,1.00,
0.238,0.46,-0.14,0.30,0.02,0.12,1.00,
0.24,0.46,-0.14,0.30,0.02,0.12,1.00,
0.243,0.46,-0.14,0.30,0.03,0.12,1.00,
0.243,0.49,-0.16,0.32,0.03,0.12,1.00,
0.246,0.49,-0.16,0.32,0.03,0.12,1.00,
0.247,0.49,-0.16,0.32,0.03,0.12,1.00,
0.248,0.53,-0.18,0.30,0.03,0.12,1.00,
0.25,0.53,-0.18,0.30,0.03,0.11,1.00,
0.252,0.53,-0.18,0.30,0.03,0.11,1.00,
0.253,0.55,-0.21,0.31,0.03,0.11,1.00,
0.255,0.55,-0.21,0.31,0.03,0.11,1.00,
0.257,0.55,-0.21,0.31,0.03,0.11,1.00,
0.257,0.57,-0.25,0.32,0.03,0.11,1.00,
0.26,0.57,-0.25,0.32,0.04,0.11,1.00,
0.263,0.57,-0.25,0.32,0.04,0.11,1.00,
0.263,0.58,-0.25,0.31,0.04,0.11,1.00,
0.265,0.58,-0.25,0.31,0.04,0.11,1.00,
0.267,0.58,-0.25,0.31,0.04,0.11,1.00,
0.267,0.63,-0.23,0.28,0.04,0.11,1.00,
0.269,0.63,-0.23,0.28,0.04,0.12,0.99,
0.272,0.63,-0.23,0.28,0.04,0.12,0.99,
0.272,0.64,-0.21,0.25,0.04,0.12,0.99,
0.274,0.64,-0.21,0.25,0.04,0.12,0.99,
0.277,0.64,-0.21,0.25,0.04,0.12,0.99,
0.277,0.67,-0.18,0.21,0.04,0.12,0.99,
0.279,0.67,-0.18,0.21,0.04,0.12,0.98,
0.282,0.67,-0.18,0.21,0.04,0.12,0.98,
0.283,0.67,-0.17,0.16,0.04,0.12,0.98,
0.284,0.67,-0.17,0.16,0.04,0.12,0.98,
0.286,0.67,-0.17,0.16,0.05,0.13,0.98,
0.287,0.68,-0.12,0.11,0.05,0.13,0.98,
0.289,0.68,-0.12,0.11,0.05,0.13,0.98,
0.291,0.68,-0.12,0.11,0.05,0.13,0.98,
0.291,0.68,-0.07,0.06,0.05,0.13,0.98,
0.294,0.68,-0.07,0.06,0.05,0.13,0.97,
0.297,0.68,-0.07,0.06,0.05,0.13,0.98,
0.297,0.68,-0.02,0.04,0.05,0.13,0.98,
0.299,0.68,-0.02,0.04,0.05,0.13,0.98,
0.301,0.68,-0.02,0.04,0.05,0.13,0.98,
0.302,0.69,0.01,0.02,0.05,0.13,0.98,
0.304,0.69,0.01,0.02,0.05,0.14,0.98,
0.306,0.69,0.01,0.02,0.05,0.14,0.98,
0.306,0.71,0.02,0.04,0.05,0.14,0.98,
0.309,0.71,0.02,0.04,0.05,0.13,0.98,
0.311,0.70,0.04,0.06,0.05,0.13,0.98,
0.312,0.70,0.04,0.06,0.05,0.13,0.98,
0.314,0.70,0.04,0.06,0.05,0.13,0.98,
0.316,0.70,0.04,0.06,0.05,0.14,0.99,
0.316,0.70,0.04,0.09,0.05,0.14,0.99,
0.318,0.70,0.04,0.09,0.05,0.14,0.99,
0.321,0.70,0.04,0.09,0.05,0.13,0.99,
0.321,0.68,0.05,0.12,0.05,0.13,0.99,
0.323,0.68,0.05,0.12,0.04,0.13,0.99,
0.326,0.68,0.05,0.12,0.04,0.13,0.99,
0.326,0.66,0.05,0.16,0.04,0.13,0.99,
0.331,0.66,0.05,0.16,0.04,0.13,1.00,
0.331,0.66,0.05,0.16,0.03,0.13,1.00,
0.332,0.64,0.04,0.20,0.03,0.13,1.00,
0.333,0.64,0.04,0.20,0.03,0.13,1.00,
0.335,0.64,0.04,0.20,0.03,0.13,1.00,
0.336,0.57,0.01,0.22,0.03,0.13,1.00,
0.338,0.57,0.01,0.22,0.03,0.13,1.00,
0.34,0.57,0.01,0.22,0.03,0.12,1.00,
0.341,0.55,-0.02,0.24,0.03,0.12,1.00,
0.343,0.55,-0.02,0.24,0.04,0.12,1.00,
0.346,0.55,-0.02,0.24,0.03,0.12,1.00,
0.346,0.54,-0.04,0.24,0.03,0.12,1.00,
0.348,0.54,-0.04,0.24,0.04,0.12,0.99,
0.35,0.54,-0.04,0.24,0.04,0.11,0.99,
0.35,0.55,-0.08,0.22,0.04,0.11,0.99,
0.353,0.55,-0.08,0.22,0.04,0.11,1.00,
0.355,0.55,-0.08,0.22,0.04,0.11,1.00,
0.355,0.57,-0.13,0.20,0.04,0.11,1.00,
0.357,0.57,-0.13,0.20,0.04,0.11,0.99,
0.36,0.58,-0.16,0.20,0.04,0.11,0.99,
0.36,0.58,-0.16,0.20,0.04,0.11,0.99,
0.363,0.58,-0.16,0.20,0.05,0.11,0.99,
0.365,0.58,-0.16,0.20,0.05,0.10,0.99,
0.365,0.62,-0.18,0.19,0.05,0.10,0.99,
0.367,0.62,-0.18,0.19,0.05,0.10,0.99,
0.37,0.62,-0.18,0.19,0.05,0.10,0.99,
0.37,0.65,-0.21,0.16,0.05,0.10,0.99,
0.372,0.65,-0.21,0.16,0.05,0.10,0.99,
0.375,0.65,-0.21,0.16,0.05,0.10,0.99,
0.375,0.66,-0.23,0.12,0.05,0.10,0.99,
0.377,0.66,-0.23,0.12,0.06,0.10,0.98,
0.38,0.66,-0.23,0.12,0.06,0.10,0.99,
0.381,0.70,-0.25,0.11,0.06,0.10,0.99,
0.382,0.70,-0.25,0.11,0.06,0.10,0.98,
0.385,0.70,-0.25,0.11,0.06,0.09,0.98,
0.385,0.72,-0.27,0.09,0.06,0.09,0.98,
0.387,0.72,-0.27,0.09,0.06,0.09,0.98,
0.389,0.72,-0.27,0.09,0.06,0.09,0.98,
0.39,0.71,-0.29,0.07,0.06,0.09,0.98,
0.392,0.71,-0.29,0.07,0.06,0.09,0.98,
0.394,0.71,-0.29,0.07,0.05,0.09,0.98,
0.395,0.73,-0.31,0.06,0.05,0.09,0.98,
0.397,0.73,-0.31,0.06,0.05,0.09,0.98,
0.399,0.73,-0.31,0.06,0.05,0.09,0.98,
0.399,0.68,-0.32,0.06,0.05,0.09,0.98,
0.402,0.68,-0.32,0.06,0.05,0.09,0.98,
0.404,0.68,-0.32,0.06,0.05,0.09,0.98,
0.404,0.62,-0.31,0.05,0.05,0.09,0.98,
0.406,0.62,-0.31,0.05,0.05,0.09,0.98,
0.409,0.62,-0.31,0.05,0.04,0.09,0.98,
0.409,0.59,-0.30,0.03,0.04,0.09,0.98,
0.411,0.59,-0.30,0.03,0.04,0.09,0.97,
0.414,0.59,-0.30,0.03,0.04,0.09,0.97,
0.414,0.56,-0.32,0.01,0.04,0.09,0.97,
0.416,0.56,-0.32,0.01,0.04,0.09,0.97,
0.419,0.56,-0.32,0.01,0.03,0.09,0.97,
0.419,0.51,-0.31,-0.03,0.03,0.09,0.97,
0.421,0.51,-0.31,-0.03,0.03,0.09,0.97,
0.424,0.51,-0.31,-0.03,0.03,0.09,0.97,
0.424,0.45,-0.30,-0.03,0.03,0.09,0.97,
0.426,0.45,-0.30,-0.03,0.03,0.09,0.97,
0.429,0.45,-0.30,-0.03,0.03,0.09,0.97,
0.429,0.41,-0.30,-0.07,0.03,0.09,0.97,
0.431,0.41,-0.30,-0.07,0.02,0.09,0.97,
0.433,0.41,-0.30,-0.07,0.02,0.09,0.96,
0.434,0.39,-0.31,-0.09,0.02,0.09,0.96,
0.436,0.39,-0.31,-0.09,0.02,0.09,0.96,
0.439,0.39,-0.31,-0.09,0.02,0.09,0.96,
0.439,0.35,-0.33,-0.10,0.02,0.09,0.96,
0.441,0.35,-0.33,-0.10,0.02,0.08,0.96,
0.443,0.35,-0.33,-0.10,0.01,0.08,0.96,
0.443,0.31,-0.33,-0.13,0.01,0.08,0.96,
0.448,0.31,-0.33,-0.13,0.01,0.08,0.96,
0.449,0.26,-0.35,-0.16,0.01,0.08,0.96,
0.449,0.26,-0.35,-0.16,0.01,0.08,0.96,
0.451,0.26,-0.35,-0.16,0.01,0.07,0.96,
0.453,0.26,-0.35,-0.16,0.01,0.07,0.96,
0.453,0.23,-0.38,-0.16,0.01,0.07,0.96,
0.455,0.23,-0.38,-0.16,0.01,0.07,0.95,
0.458,0.23,-0.38,-0.16,0.01,0.06,0.96,
0.458,0.23,-0.45,-0.17,0.01,0.06,0.96,
0.46,0.23,-0.45,-0.17,0.00,0.06,0.95,
0.463,0.23,-0.45,-0.17,0.00,0.05,0.95,
0.463,0.20,-0.54,-0.20,0.00,0.05,0.95,
0.466,0.20,-0.54,-0.20,0.00,0.05,0.96,
0.468,0.20,-0.54,-0.20,0.00,0.05,0.96,
0.468,0.17,-0.62,-0.20,0.00,0.05,0.96,
0.47,0.17,-0.62,-0.20,0.00,0.04,0.96,
0.473,0.17,-0.62,-0.20,0.00,0.04,0.96,
0.473,0.17,-0.67,-0.18,0.00,0.04,0.96,
0.475,0.17,-0.67,-0.18,0.00,0.04,0.96,
0.478,0.17,-0.67,-0.18,0.01,0.04,0.97,
0.478,0.18,-0.70,-0.15,0.01,0.04,0.97,
0.48,0.18,-0.70,-0.15,0.01,0.04,0.97,
0.483,0.18,-0.70,-0.15,0.01,0.04,0.97,
0.483,0.22,-0.70,-0.10,0.01,0.04,0.97,
0.485,0.22,-0.70,-0.10,0.02,0.04,0.97,
0.487,0.22,-0.70,-0.10,0.02,0.03,0.97,
0.488,0.26,-0.72,-0.05,0.02,0.03,0.97,
0.49,0.26,-0.72,-0.05,0.02,0.03,0.98,
0.492,0.26,-0.72,-0.05,0.02,0.03,0.98,
0.492,0.32,-0.76,-0.02,0.02,0.03,0.98,
0.495,0.32,-0.76,-0.02,0.02,0.03,0.98,
0.497,0.32,-0.76,-0.02,0.02,0.03,0.99,
0.497,0.36,-0.78,0.04,0.02,0.03,0.99,
0.5,0.36,-0.78,0.04,0.02,0.03,0.99,
0.502,0.36,-0.78,0.04,0.02,0.03,0.99,
0.502,0.36,-0.78,0.10,0.02,0.03,0.99,
0.504,0.36,-0.78,0.10,0.02,0.03,0.99,
0.507,0.36,-0.78,0.10,0.02,0.03,0.99,
0.507,0.38,-0.75,0.14,0.02,0.03,0.99,
0.51,0.38,-0.75,0.14,0.02,0.04,1.00,
0.512,0.38,-0.75,0.14,0.02,0.04,1.00,
0.513,0.38,-0.73,0.18,0.02,0.04,1.00,
0.515,0.38,-0.73,0.18,0.01,0.04,1.00,
0.517,0.38,-0.73,0.18,0.01,0.05,1.00,
0.517,0.36,-0.65,0.21,0.01,0.05,1.00,
0.519,0.36,-0.65,0.21,0.00,0.05,1.00,
0.521,0.36,-0.65,0.21,-0.00,0.05,1.01,
0.522,0.27,-0.60,0.26,-0.00,0.05,1.01,
0.524,0.27,-0.60,0.26,-0.01,0.05,1.01,
0.527,0.27,-0.60,0.26,-0.01,0.05,1.01,
0.527,0.18,-0.56,0.27,-0.01,0.05,1.01,
0.531,0.18,-0.56,0.27,-0.01,0.05,1.01,
0.532,0.18,-0.56,0.27,-0.02,0.05,1.01,
0.532,0.09,-0.55,0.30,-0.02,0.05,1.01,
0.534,0.09,-0.55,0.30,-0.03,0.05,1.01,
0.537,0.09,-0.55,0.30,-0.03,0.05,1.01,
0.537,-0.01,-0.51,0.34,-0.03,0.05,1.01,
0.539,-0.01,-0.51,0.34,-0.04,0.05,1.01,
0.541,-0.01,-0.51,0.34,-0.04,0.06,1.01,
0.542,-0.11,-0.46,0.33,-0.04,0.06,1.01,
0.544,-0.11,-0.46,0.33,-0.04,0.06,1.01,
0.546,-0.11,-0.46,0.33,-0.05,0.06,1.01,
0.548,-0.21,-0.44,0.34,-0.05,0.06,1.01,
0.549,-0.21,-0.44,0.34,-0.05,0.06,1.01,
0.551,-0.21,-0.44,0.34,-0.05,0.06,1.01,
0.551,-0.29,-0.41,0.35,-0.05,0.06,1.01,
0.553,-0.29,-0.41,0.35,-0.06,0.07,1.01,
0.556,-0.29,-0.41,0.35,-0.06,0.07,1.01,
0.556,-0.36,-0.35,0.32,-0.06,0.07,1.01,
0.558,-0.36,-0.35,0.32,-0.06,0.07,1.00,
0.561,-0.36,-0.35,0.32,-0.06,0.07,1.00,
0.561,-0.40,-0.28,0.29,-0.06,0.07,1.00,
0.563,-0.40,-0.28,0.29,-0.06,0.08,1.00,
0.566,-0.40,-0.28,0.29,-0.06,0.08,1.00,
0.566,-0.42,-0.23,0.23,-0.06,0.08,1.00,
0.568,-0.42,-0.23,0.23,-0.06,0.08,1.00,
0.571,-0.42,-0.23,0.23,-0.06,0.08,0.99,
0.571,-0.44,-0.18,0.17,-0.06,0.08,0.99,
0.573,-0.44,-0.18,0.17,-0.06,0.08,0.99,
0.575,-0.44,-0.18,0.17,-0.06,0.08,0.99,
0.576,-0.44,-0.15,0.16,-0.06,0.08,0.99,
0.578,-0.44,-0.15,0.16,-0.06,0.08,0.99,
0.58,-0.44,-0.15,0.16,-0.06,0.08,0.98,
0.581,-0.45,-0.12,0.10,-0.06,0.08,0.98,
0.583,-0.45,-0.12,0.10,-0.06,0.08,0.98,
0.586,-0.45,-0.12,0.10,-0.06,0.08,0.98,
0.586,-0.47,-0.11,0.05,-0.06,0.08,0.98,
0.588,-0.47,-0.11,0.05,-0.06,0.08,0.98,
0.59,-0.47,-0.11,0.05,-0.06,0.08,0.98,
0.591,-0.46,-0.12,0.02,-0.06,0.08,0.98,
0.593,-0.46,-0.12,0.02,-0.05,0.08,0.98,
0.597,-0.46,-0.12,0.02,-0.05,0.08,0.98,
0.598,-0.43,-0.10,0.01,-0.05,0.08,0.98,
0.599,-0.43,-0.10,0.01,-0.05,0.08,0.98,
0.6,-0.43,-0.10,0.01,-0.05,0.08,0.98,
0.601,-0.39,-0.11,0.01,-0.05,0.08,0.98,
0.603,-0.39,-0.11,0.01,-0.04,0.07,0.98,
0.605,-0.39,-0.11,0.01,-0.04,0.07,0.98,
0.606,-0.33,-0.13,0.00,-0.04,0.07,0.98,
0.608,-0.33,-0.13,0.00,-0.04,0.07,0.98,
0.61,-0.33,-0.13,0.00,-0.04,0.07,0.98,
0.611,-0.31,-0.16,0.01,-0.04,0.07,0.98,
0.613,-0.31,-0.16,0.01,-0.04,0.06,0.98,
0.615,-0.31,-0.16,0.01,-0.04,0.06,0.98,
0.616,-0.27,-0.19,0.01,-0.04,0.06,0.98,
0.617,-0.27,-0.19,0.01,-0.04,0.06,0.99,
0.62,-0.27,-0.19,0.01,-0.04,0.06,0.99,
0.621,-0.29,-0.24,0.03,-0.04,0.06,0.99,
0.622,-0.29,-0.24,0.03,-0.04,0.06,0.99,
0.625,-0.32,-0.27,0.07,-0.04,0.06,0.99,
0.626,-0.32,-0.27,0.07,-0.04,0.06,0.99,
0.63,-0.32,-0.27,0.07,-0.04,0.06,1.00,
0.631,-0.32,-0.27,0.07,-0.04,0.06,1.00,
0.631,-0.30,-0.26,0.12,-0.04,0.06,1.00,
0.632,-0.30,-0.26,0.12,-0.04,0.06,1.00,
0.634,-0.30,-0.26,0.12,-0.04,0.06,1.00,
0.635,-0.30,-0.25,0.17,-0.04,0.06,1.00,
0.637,-0.30,-0.25,0.17,-0.04,0.06,1.00,
0.639,-0.30,-0.25,0.17,-0.04,0.06,1.00,
0.64,-0.30,-0.22,0.21,-0.04,0.06,1.00,
0.642,-0.30,-0.22,0.21,-0.04,0.06,1.00,
0.654,-0.30,-0.22,0.21,-0.04,0.06,1.00,
0.654,-0.33,-0.23,0.21,-0.04,0.06,1.00,
0.655,-0.33,-0.23,0.21,-0.04,0.06,1.00,
0.655,-0.33,-0.23,0.21,-0.04,0.06,1.01,
0.659,-0.31,-0.22,0.22,-0.04,0.06,1.01,
0.659,-0.31,-0.22,0.22,-0.04,0.06,1.00,
0.66,-0.31,-0.22,0.22,-0.04,0.06,1.00,
0.661,-0.30,-0.19,0.24,-0.04,0.06,1.00,
0.661,-0.30,-0.19,0.24,-0.04,0.06,1.00,
0.662,-0.30,-0.19,0.24,-0.05,0.06,1.00,
0.662,-0.33,-0.16,0.21,-0.05,0.06,1.00,
0.662,-0.33,-0.16,0.21,-0.05,0.06,1.00,
0.671,-0.33,-0.16,0.21,-0.05,0.06,1.00,
0.671,-0.36,-0.17,0.20,-0.05,0.06,1.00,
0.672,-0.36,-0.17,0.20,-0.05,0.06,1.00,
0.672,-0.36,-0.17,0.20,-0.05,0.06,1.00,
0.672,-0.42,-0.16,0.17,-0.05,0.06,1.00,
0.672,-0.42,-0.16,0.17,-0.05,0.06,1.00,
0.673,-0.42,-0.16,0.17,-0.06,0.06,0.99,
0.674,-0.43,-0.14,0.15,-0.06,0.06,0.99,
0.676,-0.43,-0.14,0.15,-0.06,0.06,0.99,
0.678,-0.43,-0.14,0.15,-0.06,0.06,0.98,
0.679,-0.47,-0.12,0.12,-0.06,0.06,0.98,
0.681,-0.47,-0.12,0.12,-0.06,0.06,0.98,
0.683,-0.47,-0.12,0.12,-0.07,0.05,0.98,
0.683,-0.53,-0.15,0.04,-0.07,0.05,0.98,
0.686,-0.53,-0.15,0.04,-0.07,0.05,0.98,
0.688,-0.53,-0.15,0.04,-0.07,0.05,0.97,
0.688,-0.59,-0.18,-0.02,-0.07,0.05,0.97,
0.69,-0.59,-0.18,-0.02,-0.07,0.05,0.97,
0.693,-0.59,-0.18,-0.02,-0.07,0.04,0.97,
0.694,-0.62,-0.22,-0.07,-0.07,0.04,0.97,
0.696,-0.62,-0.22,-0.07,-0.07,0.04,0.96,
0.698,-0.62,-0.22,-0.07,-0.08,0.04,0.96,
0.698,-0.66,-0.28,-0.15,-0.08,0.04,0.96,
0.701,-0.66,-0.28,-0.15,-0.08,0.04,0.96,
0.703,-0.66,-0.28,-0.15,-0.08,0.03,0.96,
0.703,-0.70,-0.33,-0.20,-0.08,0.03,0.96,
0.705,-0.70,-0.33,-0.20,-0.08,0.03,0.96,
0.708,-0.70,-0.33,-0.20,-0.08,0.03,0.96,
0.708,-0.74,-0.37,-0.20,-0.08,0.03,0.96,
0.711,-0.74,-0.37,-0.20,-0.08,0.03,0.97,
0.713,-0.74,-0.37,-0.20,-0.08,0.03,0.97,
0.714,-0.75,-0.40,-0.18,-0.08,0.03,0.97,
0.715,-0.75,-0.40,-0.18,-0.08,0.02,0.97,
0.717,-0.75,-0.40,-0.18,-0.08,0.02,0.98,
0.718,-0.74,-0.43,-0.14,-0.08,0.02,0.98,
0.72,-0.74,-0.43,-0.14,-0.08,0.01,0.98,
0.722,-0.74,-0.43,-0.14,-0.08,0.01,0.98,
0.723,-0.73,-0.48,-0.08,-0.08,0.01,0.98,
0.725,-0.73,-0.48,-0.08,-0.08,0.01,0.99,
0.734,-0.73,-0.48,-0.08,-0.08,0.00,0.99,
0.735,-0.71,-0.57,-0.00,-0.08,0.00,0.99,
0.735,-0.71,-0.57,-0.00,-0.08,0.00,0.99,
0.735,-0.71,-0.57,-0.00,-0.08,-0.00,1.00,
0.736,-0.68,-0.63,0.05,-0.08,-0.00,1.00,
0.736,-0.68,-0.63,0.05,-0.08,-0.00,1.00,
0.737,-0.68,-0.63,0.05,-0.08,-0.00,1.00,
0.737,-0.68,-0.67,0.13,-0.08,-0.00,1.00,
0.74,-0.68,-0.67,0.13,-0.08,-0.00,1.01,
0.742,-0.68,-0.67,0.13,-0.08,-0.00,1.01,
0.742,-0.67,-0.68,0.20,-0.08,-0.00,1.01,
0.746,-0.67,-0.68,0.20,-0.08,0.00,1.01,
0.747,-0.67,-0.68,0.20,-0.08,0.00,1.01,
0.747,-0.67,-0.67,0.26,-0.08,0.00,1.01,
0.749,-0.67,-0.67,0.26,-0.08,0.01,1.02,
0.752,-0.67,-0.67,0.26,-0.08,0.01,1.02,
0.752,-0.64,-0.61,0.30,-0.08,0.01,1.02,
0.754,-0.64,-0.61,0.30,-0.08,0.01,1.02,
0.757,-0.64,-0.61,0.30,-0.08,0.02,1.03,
0.757,-0.63,-0.54,0.35,-0.08,0.02,1.03,
0.759,-0.63,-0.54,0.35,-0.09,0.02,1.03,
0.762,-0.63,-0.54,0.35,-0.09,0.02,1.03,
0.762,-0.66,-0.46,0.40,-0.09,0.02,1.03,
0.764,-0.66,-0.46,0.40,-0.10,0.02,1.02,
0.766,-0.66,-0.46,0.40,-0.10,0.03,1.02,
0.767,-0.76,-0.41,0.41,-0.10,0.03,1.02,
0.769,-0.76,-0.41,0.41,-0.11,0.03,1.02,
0.771,-0.76,-0.41,0.41,-0.12,0.03,1.01,
0.771,-0.86,-0.37,0.37,-0.12,0.03,1.01,
0.774,-0.86,-0.37,0.37,-0.12,0.03,1.01,
0.776,-0.86,-0.37,0.37,-0.13,0.03,1.00,
0.776,-0.99,-0.34,0.30,-0.13,0.03,1.00,
0.779,-0.99,-0.34,0.30,-0.14,0.04,1.00,
0.781,-0.99,-0.34,0.30,-0.14,0.04,0.99,
0.782,-1.12,-0.31,0.21,-0.14,0.04,0.99,
0.784,-1.12,-0.31,0.21,-0.14,0.04,0.99,
0.786,-1.12,-0.31,0.21,-0.15,0.05,0.98,
0.786,-1.23,-0.23,0.11,-0.15,0.05,0.98,
0.789,-1.23,-0.23,0.11,-0.15,0.06,0.98,
0.791,-1.23,-0.23,0.11,-0.15,0.06,0.97,
0.791,-1.29,-0.14,-0.00,-0.15,0.06,0.97,
0.794,-1.29,-0.14,-0.00,-0.15,0.06,0.97,
0.796,-1.29,-0.14,-0.00,-0.15,0.07,0.96,
0.797,-1.31,-0.03,-0.10,-0.15,0.07,0.96,
0.799,-1.31,-0.03,-0.10,-0.15,0.07,0.96,
0.801,-1.31,-0.03,-0.10,-0.14,0.07,0.96,
0.801,-1.32,0.04,-0.18,-0.14,0.07,0.96,
0.803,-1.32,0.04,-0.18,-0.14,0.07,0.96,
0.806,-1.32,0.04,-0.18,-0.14,0.07,0.96,
0.806,-1.28,0.09,-0.23,-0.14,0.07,0.96,
0.809,-1.28,0.09,-0.23,-0.14,0.07,0.96,
0.811,-1.28,0.09,-0.23,-0.14,0.07,0.96,
0.811,-1.26,0.11,-0.26,-0.14,0.07,0.96,
0.815,-1.26,0.11,-0.26,-0.14,0.07,0.96,
0.816,-1.26,0.11,-0.26,-0.14,0.06,0.96,
0.816,-1.25,0.10,-0.27,-0.14,0.06,0.96,
0.818,-1.25,0.10,-0.27,-0.14,0.06,0.96,
0.82,-1.25,0.10,-0.27,-0.14,0.07,0.97,
0.821,-1.22,0.07,-0.23,-0.14,0.07,0.97,
0.823,-1.22,0.07,-0.23,-0.14,0.06,0.97,
0.825,-1.22,0.07,-0.23,-0.14,0.06,0.97,
0.826,-1.21,0.07,-0.19,-0.14,0.06,0.97,
0.828,-1.21,0.07,-0.19,-0.14,0.06,0.98,
0.83,-1.21,0.07,-0.19,-0.14,0.07,0.98,
0.83,-1.18,0.06,-0.11,-0.14,0.07,0.98,
0.833,-1.18,0.06,-0.11,-0.14,0.07,0.98,
0.835,-1.18,0.06,-0.11,-0.14,0.07,0.99,
0.835,-1.15,0.08,-0.04,-0.14,0.07,0.99,
0.837,-1.15,0.08,-0.04,-0.14,0.07,0.99,
0.84,-1.15,0.08,-0.04,-0.14,0.07,1.00,
0.84,-1.12,0.11,0.02,-0.14,0.07,1.00,
0.842,-1.12,0.11,0.02,-0.14,0.08,1.00,
0.846,-1.12,0.11,0.02,-0.14,0.08,1.00,
0.846,-1.09,0.15,0.11,-0.14,0.08,1.00,
0.847,-1.09,0.15,0.11,-0.14,0.08,1.00,
0.85,-1.09,0.15,0.11,-0.14,0.08,1.00,
0.85,-1.11,0.20,0.16,-0.14,0.08,1.00,
0.852,-1.11,0.20,0.16,-0.14,0.08,1.00,
0.855,-1.11,0.20,0.16,-0.14,0.08,1.00,
0.855,-1.10,0.22,0.16,-0.14,0.08,1.00,
0.857,-1.10,0.22,0.16,-0.14,0.08,0.99,
0.86,-1.10,0.22,0.16,-0.14,0.08,0.99,
0.861,-1.09,0.23,0.12,-0.14,0.08,0.99,
0.862,-1.09,0.23,0.12,-0.14,0.08,0.98,
0.864,-1.09,0.23,0.12,-0.14,0.09,0.98,
0.865,-1.10,0.24,0.06,-0.14,0.09,0.98,
0.867,-1.10,0.24,0.06,-0.13,0.09,0.97,
0.869,-1.09,0.27,-0.03,-0.13,0.09,0.97,
0.869,-1.09,0.27,-0.03,-0.13,0.09,0.96,
0.872,-1.09,0.27,-0.03,-0.13,0.09,0.96,
0.874,-1.09,0.27,-0.03,-0.13,0.09,0.95,
0.874,-1.07,0.28,-0.17,-0.13,0.09,0.95,
0.877,-1.07,0.28,-0.17,-0.12,0.09,0.94,
0.879,-1.07,0.28,-0.17,-0.11,0.09,0.93,
0.879,-1.06,0.29,-0.30,-0.11,0.09,0.93,
0.882,-1.06,0.29,-0.30,-0.11,0.09,0.93,
0.884,-1.06,0.29,-0.30,-0.10,0.09,0.93,
0.885,-0.97,0.31,-0.45,-0.10,0.09,0.93,
0.886,-0.97,0.31,-0.45,-0.09,0.09,0.92,
0.889,-0.97,0.31,-0.45,-0.09,0.08,0.92,
0.889,-0.86,0.32,-0.55,-0.09,0.08,0.92,
0.891,-0.86,0.32,-0.55,-0.08,0.08,0.91,
0.894,-0.86,0.32,-0.55,-0.08,0.08,0.91,
0.895,-0.75,0.33,-0.63,-0.08,0.08,0.91,
0.896,-0.75,0.33,-0.63,-0.07,0.08,0.91,
0.899,-0.75,0.33,-0.63,-0.06,0.07,0.91,
0.9,-0.66,0.29,-0.69,-0.06,0.07,0.91,
0.901,-0.66,0.29,-0.69,-0.06,0.07,0.91,
0.903,-0.66,0.29,-0.69,-0.05,0.07,0.91,
0.904,-0.57,0.27,-0.72,-0.05,0.07,0.91,
0.906,-0.57,0.27,-0.72,-0.05,0.07,0.91,
0.908,-0.57,0.27,-0.72,-0.04,0.06,0.91,
0.909,-0.46,0.24,-0.72,-0.04,0.06,0.91,
0.911,-0.46,0.24,-0.72,-0.03,0.06,0.92,
0.913,-0.46,0.24,-0.72,-0.03,0.06,0.92,
0.914,-0.36,0.22,-0.66,-0.03,0.06,0.92,
0.916,-0.36,0.22,-0.66,-0.02,0.06,0.93,
0.918,-0.36,0.22,-0.66,-0.02,0.06,0.93,
0.918,-0.24,0.18,-0.61,-0.02,0.06,0.93,
0.921,-0.24,0.18,-0.61,-0.01,0.06,0.94,
0.923,-0.24,0.18,-0.61,-0.01,0.06,0.94,
0.923,-0.14,0.21,-0.52,-0.01,0.06,0.94,
0.925,-0.14,0.21,-0.52,-0.01,0.06,0.95,
0.931,-0.14,0.21,-0.52,-0.01,0.06,0.96,
0.932,-0.05,0.22,-0.39,-0.01,0.06,0.96,
0.932,-0.05,0.22,-0.39,-0.00,0.06,0.97,
0.933,-0.05,0.22,-0.39,-0.00,0.06,0.97,
0.933,-0.01,0.24,-0.25,-0.00,0.06,0.97,
0.935,-0.01,0.24,-0.25,-0.00,0.06,0.98,
0.938,-0.01,0.24,-0.25,-0.00,0.06,0.98,
0.938,0.01,0.27,-0.11,-0.00,0.06,0.98,
0.94,0.01,0.27,-0.11,-0.00,0.06,0.98,
0.943,0.01,0.27,-0.11,-0.01,0.06,0.99,
0.944,0.03,0.29,-0.02,-0.01,0.06,0.99,
0.946,0.03,0.29,-0.02,-0.01,0.05,0.99,
0.948,0.03,0.29,-0.02,-0.01,0.05,1.00,
0.948,0.01,0.28,0.06,-0.01,0.05,1.00,
0.95,0.01,0.28,0.06,-0.02,0.05,1.00,
0.953,-0.05,0.28,0.15,-0.02,0.05,1.00,
0.953,-0.05,0.28,0.15,-0.02,0.05,1.00,
0.955,-0.05,0.28,0.15,-0.03,0.05,1.00,
0.957,-0.05,0.28,0.15,-0.03,0.05,1.00,
0.958,-0.15,0.26,0.19,-0.03,0.05,1.00,
0.96,-0.15,0.26,0.19,-0.04,0.05,1.00,
0.963,-0.15,0.26,0.19,-0.04,0.05,1.00,
0.963,-0.22,0.23,0.19,-0.04,0.05,1.00,
0.965,-0.22,0.23,0.19,-0.05,0.04,0.99,
0.967,-0.33,0.22,0.17,-0.05,0.04,0.99,
0.968,-0.33,0.22,0.17,-0.05,0.04,0.99,
0.97,-0.33,0.22,0.17,-0.05,0.04,0.98,
0.972,-0.33,0.22,0.17,-0.06,0.04,0.98,
0.973,-0.43,0.18,0.10,-0.06,0.04,0.98,
0.975,-0.43,0.18,0.10,-0.06,0.04,0.97,
0.978,-0.43,0.18,0.10,-0.05,0.04,0.96,
0.979,-0.50,0.17,-0.01,-0.05,0.04,0.96,
0.98,-0.50,0.17,-0.01,-0.06,0.04,0.96,
0.982,-0.50,0.17,-0.01,-0.05,0.04,0.95,
0.983,-0.52,0.16,-0.14,-0.05,0.04,0.95,
0.985,-0.52,0.16,-0.14,-0.05,0.04,0.94,
0.987,-0.52,0.16,-0.14,-0.05,0.04,0.94,
0.987,-0.53,0.18,-0.27,-0.05,0.04,0.94,
0.989,-0.53,0.18,-0.27,-0.05,0.05,0.93,
0.992,-0.53,0.18,-0.27,-0.04,0.05,0.93,
0.992,-0.50,0.21,-0.39,-0.04,0.05,0.93,
0.994,-0.50,0.21,-0.39,-0.04,0.05,0.93,
0.997,-0.50,0.21,-0.39,-0.04,0.05,0.92,
0.997,-0.44,0.24,-0.49,-0.04,0.05,0.92,
0.999,-0.44,0.24,-0.49,-0.03,0.05,0.91,
1.001,-0.44,0.24,-0.49,-0.02,0.06,0.91,
1.002,-0.39,0.30,-0.57,-0.02,0.06,0.91,
1.004,-0.39,0.30,-0.57,-0.02,0.06,0.91,
1.006,-0.39,0.30,-0.57,-0.01,0.07,0.91,
1.007,-0.29,0.34,-0.64,-0.01,0.07,0.91,
1.009,-0.29,0.34,-0.64,-0.00,0.07,0.91,
1.012,-0.29,0.34,-0.64,0.00,0.07,0.91,
1.012,-0.17,0.42,-0.65,0.00,0.07,0.91,
1.014,-0.17,0.42,-0.65,0.01,0.08,0.91,
1.016,-0.17,0.42,-0.65,0.01,0.08,0.92,
1.017,-0.03,0.50,-0.64,0.01,0.08,0.92,
1.019,-0.03,0.50,-0.64,0.01,0.08,0.92,
1.021,-0.03,0.50,-0.64,0.01,0.08,0.93,
1.021,0.06,0.57,-0.60,0.01,0.08,0.93,
1.023,0.06,0.57,-0.60,0.01,0.09,0.93,
1.031,0.06,0.57,-0.60,0.01,0.09,0.94,
1.031,0.09,0.63,-0.53,0.01,0.09,0.94,
1.032,0.09,0.63,-0.53,0.00,0.09,0.94,
1.032,0.09,0.63,-0.53,-0.00,0.09,0.95,
1.032,0.07,0.68,-0.41,-0.00,0.09,0.95,
1.033,0.07,0.68,-0.41,-0.01,0.09,0.96,
1.036,0.07,0.68,-0.41,-0.01,0.09,0.96,
1.036,-0.01,0.69,-0.28,-0.01,0.09,0.96,
1.038,-0.01,0.69,-0.28,-0.02,0.09,0.97,
1.041,-0.01,0.69,-0.28,-0.03,0.09,0.98,
1.041,-0.11,0.69,-0.16,-0.03,0.09,0.98,
1.043,-0.11,0.69,-0.16,-0.03,0.09,0.98,
1.046,-0.11,0.69,-0.16,-0.04,0.09,0.99,
1.046,-0.21,0.67,-0.04,-0.04,0.09,0.99,
1.048,-0.21,0.67,-0.04,-0.05,0.09,0.99,
1.05,-0.21,0.67,-0.04,-0.05,0.09,1.00,
1.051,-0.30,0.66,0.06,-0.05,0.09,1.00,
1.053,-0.30,0.66,0.06,-0.05,0.09,1.00,
1.055,-0.30,0.66,0.06,-0.05,0.09,1.00,
1.055,-0.41,0.68,0.16,-0.05,0.09,1.00,
1.058,-0.41,0.68,0.16,-0.06,0.09,1.01,
1.06,-0.41,0.68,0.16,-0.06,0.09,1.01,
1.061,-0.46,0.69,0.23,-0.06,0.09,1.01,
1.063,-0.46,0.69,0.23,-0.07,0.10,1.01,
1.065,-0.46,0.69,0.23,-0.07,0.10,1.01,
1.066,-0.53,0.72,0.30,-0.07,0.10,1.01,
1.068,-0.53,0.72,0.30,-0.07,0.10,1.01,
1.07,-0.53,0.72,0.30,-0.08,0.10,1.02,
1.07,-0.61,0.74,0.32,-0.08,0.10,1.02,
1.073,-0.61,0.74,0.32,-0.08,0.10,1.02,
1.075,-0.61,0.74,0.32,-0.09,0.11,1.02,
1.075,-0.65,0.76,0.37,-0.09,0.11,1.02,
1.077,-0.65,0.76,0.37,-0.09,0.11,1.02,
1.08,-0.65,0.76,0.37,-0.09,0.12,1.02,
1.081,-0.73,0.86,0.39,-0.09,0.12,1.02,
1.083,-0.73,0.86,0.39,-0.09,0.12,1.02,
1.085,-0.73,0.86,0.39,-0.09,0.13,1.01,
1.085,-0.75,0.94,0.40,-0.09,0.13,1.01,
1.087,-0.75,0.94,0.40,-0.09,0.13,1.01,
1.09,-0.75,0.94,0.40,-0.10,0.13,1.01,
1.09,-0.78,1.02,0.36,-0.10,0.13,1.01,
1.092,-0.78,1.02,0.36,-0.10,0.14,1.01,
1.095,-0.78,1.02,0.36,-0.10,0.14,1.00,
1.095,-0.80,1.08,0.30,-0.10,0.14,1.00,
1.097,-0.80,1.08,0.30,-0.10,0.14,0.99,
1.1,-0.80,1.08,0.30,-0.10,0.14,0.99,
1.1,-0.82,1.14,0.23,-0.10,0.14,0.99,
1.102,-0.82,1.14,0.23,-0.10,0.15,0.98,
1.104,-0.82,1.14,0.23,-0.09,0.15,0.98,
1.105,-0.83,1.16,0.12,-0.09,0.15,0.98,
1.107,-0.83,1.16,0.12,-0.08,0.15,0.97,
1.11,-0.80,1.20,0.02,-0.08,0.15,0.97,
1.111,-0.80,1.20,0.02,-0.08,0.15,0.97,
1.112,-0.80,1.20,0.02,-0.07,0.16,0.97,
1.114,-0.80,1.20,0.02,-0.07,0.16,0.96,
1.114,-0.69,1.25,-0.07,-0.07,0.16,0.96,
1.117,-0.69,1.25,-0.07,-0.06,0.15,0.96,
1.119,-0.69,1.25,-0.07,-0.05,0.15,0.95,
1.119,-0.58,1.28,-0.15,-0.05,0.15,0.95,
1.121,-0.58,1.28,-0.15,-0.05,0.15,0.95,
1.124,-0.58,1.28,-0.15,-0.04,0.15,0.95,
1.124,-0.48,1.26,-0.23,-0.04,0.15,0.95,
1.126,-0.48,1.26,-0.23,-0.04,0.14,0.95,
1.129,-0.48,1.26,-0.23,-0.04,0.14,0.95,
1.129,-0.36,1.21,-0.28,-0.04,0.14,0.95,
1.131,-0.36,1.21,-0.28,-0.04,0.14,0.95,
1.134,-0.36,1.21,-0.28,-0.04,0.13,0.95,
1.134,-0.30,1.15,-0.32,-0.04,0.13,0.95,
1.136,-0.30,1.15,-0.32,-0.04,0.13,0.95,
1.139,-0.30,1.15,-0.32,-0.04,0.13,0.95,
1.142,-0.29,1.10,-0.32,-0.04,0.13,0.95,
1.142,-0.29,1.10,-0.32,-0.04,0.13,0.96,
1.148,-0.29,1.10,-0.32,-0.04,0.13,0.96,
1.148,-0.31,1.04,-0.28,-0.04,0.13,0.96,
1.149,-0.31,1.04,-0.28,-0.05,0.13,0.97,
1.149,-0.31,1.04,-0.28,-0.05,0.13,0.97,
1.149,-0.33,1.03,-0.20,-0.05,0.13,0.97,
1.151,-0.33,1.03,-0.20,-0.05,0.12,0.98,
1.153,-0.33,1.03,-0.20,-0.06,0.12,0.99,
1.153,-0.35,1.00,-0.08,-0.06,0.12,0.99,
1.156,-0.35,1.00,-0.08,-0.06,0.11,0.99,
1.158,-0.35,1.00,-0.08,-0.07,0.11,1.00,
1.158,-0.42,0.95,0.06,-0.07,0.11,1.00,
1.16,-0.42,0.95,0.06,-0.08,0.11,1.01,
1.163,-0.42,0.95,0.06,-0.08,0.11,1.02,
1.163,-0.50,0.86,0.20,-0.08,0.11,1.02,
1.165,-0.50,0.86,0.20,-0.08,0.10,1.02,
1.168,-0.50,0.86,0.20,-0.09,0.10,1.03,
1.168,-0.59,0.82,0.34,-0.09,0.10,1.03,
1.17,-0.59,0.82,0.34,-0.09,0.10,1.03,
1.173,-0.59,0.82,0.34,-0.09,0.10,1.04,
1.173,-0.64,0.76,0.45,-0.09,0.10,1.04,
1.175,-0.64,0.76,0.45,-0.09,0.10,1.04,
1.178,-0.64,0.76,0.45,-0.10,0.10,1.04,
1.178,-0.67,0.75,0.54,-0.10,0.10,1.04,
1.18,-0.67,0.75,0.54,-0.10,0.10,1.04,
1.182,-0.67,0.75,0.54,-0.10,0.10,1.04,
1.183,-0.71,0.75,0.57,-0.10,0.10,1.04,
1.185,-0.71,0.75,0.57,-0.10,0.10,1.04,
1.187,-0.71,0.75,0.57,-0.09,0.10,1.04,
1.187,-0.70,0.73,0.60,-0.09,0.10,1.04,
1.19,-0.70,0.73,0.60,-0.09,0.10,1.04,
1.193,-0.70,0.73,0.60,-0.09,0.10,1.03,
1.194,-0.66,0.73,0.58,-0.09,0.10,1.03,
1.195,-0.66,0.73,0.58,-0.08,0.10,1.03,
1.197,-0.66,0.73,0.58,-0.08,0.11,1.03,
1.198,-0.58,0.73,0.53,-0.08,0.11,1.03,
1.2,-0.58,0.73,0.53,-0.07,0.11,1.02,
1.202,-0.58,0.73,0.53,-0.07,0.11,1.02,
1.202,-0.49,0.73,0.46,-0.07,0.11,1.02,
1.205,-0.49,0.73,0.46,-0.06,0.11,1.02,
1.207,-0.49,0.73,0.46,-0.06,0.11,1.01,
1.207,-0.40,0.76,0.38,-0.06,0.11,1.01,
1.21,-0.40,0.76,0.38,-0.06,0.12,1.00,
1.213,-0.40,0.76,0.38,-0.05,0.11,1.00,
1.213,-0.31,0.81,0.30,-0.05,0.11,1.00,
1.214,-0.31,0.81,0.30,-0.05,0.11,0.99,
1.217,-0.31,0.81,0.30,-0.05,0.11,0.98,
1.217,-0.25,0.81,0.18,-0.05,0.11,0.98,
1.219,-0.25,0.81,0.18,-0.04,0.11,0.98,
1.222,-0.25,0.81,0.18,-0.04,0.11,0.97,
1.222,-0.18,0.80,0.06,-0.04,0.11,0.97,
1.224,-0.18,0.80,0.06,-0.04,0.11,0.97,
1.227,-0.18,0.80,0.06,-0.04,0.11,0.96,
1.227,-0.12,0.77,-0.06,-0.04,0.11,0.96,
1.229,-0.12,0.77,-0.06,-0.04,0.10,0.96,
1.232,-0.12,0.77,-0.06,-0.03,0.10,0.96,
1.232,-0.09,0.73,-0.16,-0.03,0.10,0.96,
1.234,-0.09,0.73,-0.16,-0.03,0.10,0.96,
1.237,-0.09,0.73,-0.16,-0.03,0.10,0.96,
1.237,-0.06,0.67,-0.22,-0.03,0.10,0.96,
1.239,-0.06,0.67,-0.22,-0.03,0.10,0.96,
1.241,-0.06,0.67,-0.22,-0.03,0.10,0.96,
1.242,-0.04,0.63,-0.24,-0.03,0.10,0.96,
1.247,-0.04,0.63,-0.24,-0.03,0.10,0.96,
1.248,-0.04,0.63,-0.24,-0.03,0.10,0.96,
1.248,-0.02,0.62,-0.24,-0.03,0.10,0.96,
1.249,-0.02,0.62,-0.24,-0.03,0.10,0.97,
1.251,-0.02,0.62,-0.24,-0.03,0.10,0.97,
1.251,0.01,0.60,-0.20,-0.03,0.10,0.97,
1.254,0.01,0.60,-0.20,-0.03,0.10,0.97,
1.256,0.01,0.60,-0.20,-0.04,0.10,0.98,
1.256,0.03,0.61,-0.13,-0.04,0.10,0.98,
1.26,0.03,0.61,-0.13,-0.04,0.10,0.98,
1.261,0.03,0.61,-0.13,-0.04,0.10,0.98,
1.261,-0.00,0.59,-0.06,-0.04,0.10,0.98,
1.263,-0.00,0.59,-0.06,-0.05,0.10,0.98,
1.266,-0.00,0.59,-0.06,-0.05,0.10,0.99,
1.266,-0.05,0.59,-0.01,-0.05,0.10,0.99,
1.268,-0.05,0.59,-0.01,-0.05,0.10,0.99,
1.271,-0.05,0.59,-0.01,-0.05,0.10,0.99,
1.271,-0.10,0.60,0.05,-0.05,0.10,0.99,
1.273,-0.10,0.60,0.05,-0.04,0.11,0.99,
1.276,-0.10,0.60,0.05,-0.04,0.11,0.99,
1.277,-0.08,0.63,0.08,-0.04,0.11,0.99,
1.278,-0.08,0.63,0.08,-0.04,0.11,0.99,
1.281,-0.08,0.63,0.08,-0.03,0.12,0.99,
1.281,-0.01,0.66,0.09,-0.03,0.12,0.99,
1.283,-0.01,0.66,0.09,-0.02,0.12,0.99,
1.285,-0.01,0.66,0.09,-0.02,0.12,0.99,
1.286,0.08,0.72,0.09,-0.02,0.12,0.99,
1.288,0.08,0.72,0.09,-0.01,0.12,0.98,
1.29,0.08,0.72,0.09,-0.01,0.13,0.98,
1.29,0.20,0.76,0.06,-0.01,0.13,0.98,
1.293,0.20,0.76,0.06,-0.01,0.13,0.98,
1.295,0.20,0.76,0.06,-0.01,0.12,0.97,
1.296,0.27,0.78,-0.00,-0.01,0.12,0.97,
1.298,0.27,0.78,-0.00,-0.01,0.12,0.97,
1.3,0.27,0.78,-0.00,-0.01,0.12,0.96,
1.3,0.30,0.77,-0.07,-0.01,0.12,0.96,
1.303,0.30,0.77,-0.07,-0.01,0.12,0.96,
1.305,0.30,0.77,-0.07,-0.01,0.13,0.95,
1.305,0.35,0.74,-0.16,-0.01,0.13,0.95,
1.308,0.35,0.74,-0.16,-0.00,0.12,0.95,
1.31,0.35,0.74,-0.16,-0.00,0.13,0.94,
1.31,0.34,0.73,-0.25,-0.00,0.13,0.94,
1.313,0.34,0.73,-0.25,-0.01,0.13,0.94,
1.315,0.34,0.73,-0.25,-0.01,0.13,0.94,
1.315,0.37,0.73,-0.35,-0.01,0.13,0.94,
1.317,0.37,0.73,-0.35,-0.01,0.13,0.93,
1.32,0.37,0.73,-0.35,-0.01,0.13,0.93,
1.32,0.33,0.74,-0.42,-0.01,0.13,0.93,
1.322,0.33,0.74,-0.42,-0.01,0.13,0.92,
1.325,0.33,0.74,-0.42,-0.02,0.14,0.92,
1.325,0.29,0.75,-0.50,-0.02,0.14,0.92,
1.33,0.29,0.75,-0.50,-0.02,0.14,0.92,
1.33,0.29,0.75,-0.50,-0.03,0.14,0.92,
1.33,0.25,0.77,-0.53,-0.03,0.14,0.92,
1.332,0.25,0.77,-0.53,-0.03,0.15,0.92,
1.334,0.25,0.77,-0.53,-0.03,0.15,0.92,
1.334,0.20,0.81,-0.53,-0.03,0.15,0.92,
1.337,0.20,0.81,-0.53,-0.04,0.14,0.92,
1.339,0.20,0.81,-0.53,-0.04,0.14,0.92,
1.34,0.13,0.84,-0.55,-0.04,0.14,0.92,
1.342,0.13,0.84,-0.55,-0.05,0.14,0.92,
1.344,0.13,0.84,-0.55,-0.05,0.14,0.92,
1.345,0.04,0.81,-0.57,-0.05,0.14,0.92,
1.347,0.04,0.81,-0.57,-0.06,0.14,0.93,
1.349,0.04,0.81,-0.57,-0.06,0.14,0.93,
1.349,-0.02,0.78,-0.53,-0.06,0.14,0.93,
1.352,-0.02,0.78,-0.53,-0.07,0.13,0.93,
1.354,-0.02,0.78,-0.53,-0.07,0.13,0.94,
1.354,-0.11,0.72,-0.46,-0.07,0.13,0.94,
1.356,-0.11,0.72,-0.46,-0.07,0.13,0.95,
1.359,-0.11,0.72,-0.46,-0.07,0.13,0.95,
1.359,-0.16,0.63,-0.38,-0.07,0.13,0.95,
1.361,-0.16,0.63,-0.38,-0.07,0.12,0.96,
1.364,-0.16,0.63,-0.38,-0.06,0.12,0.96,
1.364,-0.15,0.56,-0.26,-0.06,0.12,0.96,
1.366,-0.15,0.56,-0.26,-0.06,0.12,0.97,
1.368,-0.15,0.56,-0.26,-0.06,0.12,0.97,
1.369,-0.10,0.50,-0.15,-0.06,0.12,0.97,
1.371,-0.10,0.50,-0.15,-0.05,0.12,0.97,
1.374,-0.10,0.50,-0.15,-0.05,0.11,0.98,
1.374,-0.01,0.46,-0.05,-0.05,0.11,0.98,
1.376,-0.01,0.46,-0.05,-0.04,0.10,0.98,
1.379,-0.01,0.46,-0.05,-0.04,0.10,0.98,
1.379,0.09,0.41,0.03,-0.04,0.10,0.98,
1.381,0.09,0.41,0.03,-0.03,0.10,0.99,
1.383,0.09,0.41,0.03,-0.03,0.09,0.99,
1.383,0.18,0.27,0.09,-0.03,0.09,0.99,
1.386,0.18,0.27,0.09,-0.02,0.08,1.00,
1.388,0.18,0.27,0.09,-0.02,0.08,1.00,
1.388,0.29,0.17,0.15,-0.02,0.08,1.00,
1.391,0.29,0.17,0.15,-0.01,0.07,1.00,
1.393,0.29,0.17,0.15,-0.00,0.07,1.00,
1.393,0.41,0.06,0.21,-0.00,0.07,1.00,
1.396,0.41,0.06,0.21,0.01,0.06,1.00,
1.398,0.41,0.06,0.21,0.01,0.06,1.01,
1.398,0.54,-0.04,0.26,0.01,0.06,1.01,
1.4,0.54,-0.04,0.26,0.02,0.06,1.01,
1.403,0.54,-0.04,0.26,0.02,0.06,1.01,
1.403,0.69,-0.12,0.30,0.02,0.06,1.01,
1.405,0.69,-0.12,0.30,0.02,0.05,1.01,
1.409,0.69,-0.12,0.30,0.03,0.05,1.01,
1.409,0.80,-0.15,0.34,0.03,0.05,1.01,
1.41,0.80,-0.15,0.34,0.03,0.05,1.02,
1.413,0.80,-0.15,0.34,0.03,0.05,1.02,
1.414,0.86,-0.17,0.36,0.03,0.05,1.02,
1.415,0.86,-0.17,0.36,0.03,0.06,1.02,
1.418,0.86,-0.17,0.36,0.03,0.06,1.03,
1.418,0.91,-0.16,0.42,0.03,0.06,1.03,
1.42,0.91,-0.16,0.42,0.04,0.06,1.03,
1.423,0.91,-0.16,0.42,0.03,0.06,1.03,
1.423,0.93,-0.10,0.47,0.03,0.06,1.03,
1.426,0.93,-0.10,0.47,0.03,0.07,1.04,
1.428,0.93,-0.10,0.47,0.02,0.07,1.04,
1.428,0.93,-0.03,0.55,0.02,0.07,1.04,
1.43,0.93,-0.03,0.55,0.02,0.07,1.04,
1.433,0.93,-0.03,0.55,0.02,0.07,1.05,
1.433,0.84,0.03,0.60,0.02,0.07,1.05,
1.435,0.84,0.03,0.60,0.01,0.07,1.05,
1.437,0.84,0.03,0.60,0.01,0.07,1.05,
1.438,0.75,0.07,0.65,0.01,0.07,1.05,
1.44,0.75,0.07,0.65,-0.00,0.07,1.05,
1.447,0.75,0.07,0.65,-0.01,0.07,1.05,
1.447,0.65,0.10,0.66,-0.01,0.07,1.05,
1.448,0.65,0.10,0.66,-0.01,0.07,1.05,
1.448,0.65,0.10,0.66,-0.01,0.07,1.04,
1.448,0.52,0.09,0.66,-0.01,0.07,1.04,
1.45,0.52,0.09,0.66,-0.02,0.07,1.04,
1.452,0.52,0.09,0.66,-0.02,0.07,1.04,
1.452,0.41,0.06,0.63,-0.02,0.07,1.04,
1.454,0.41,0.06,0.63,-0.02,0.06,1.04,
1.457,0.41,0.06,0.63,-0.02,0.06,1.04,
1.457,0.32,0.04,0.60,-0.02,0.06,1.04,
1.459,0.32,0.04,0.60,-0.02,0.06,1.03,
1.463,0.32,0.04,0.60,-0.02,0.06,1.03,
1.463,0.30,0.01,0.55,-0.02,0.06,1.03,
1.464,0.30,0.01,0.55,-0.01,0.06,1.02,
1.467,0.30,0.01,0.55,-0.01,0.06,1.02,
1.467,0.31,-0.00,0.49,-0.01,0.06,1.02,
1.469,0.31,-0.00,0.49,-0.00,0.06,1.02,
1.471,0.31,-0.00,0.49,0.00,0.06,1.01,
1.471,0.36,-0.03,0.40,0.00,0.06,1.01,
1.474,0.36,-0.03,0.40,0.01,0.05,1.01,
1.477,0.36,-0.03,0.40,0.01,0.05,1.01,
1.477,0.46,-0.06,0.31,0.01,0.05,1.01,
1.479,0.46,-0.06,0.31,0.02,0.05,1.00,
1.481,0.46,-0.06,0.31,0.02,0.05,1.00,
1.482,0.55,-0.09,0.24,0.02,0.05,1.00,
1.484,0.55,-0.09,0.24,0.02,0.05,1.00,
1.486,0.55,-0.09,0.24,0.02,0.05,1.00,
1.486,0.61,-0.13,0.19,0.02,0.05,1.00,
1.489,0.61,-0.13,0.19,0.02,0.04,1.00,
1.491,0.61,-0.13,0.19,0.03,0.04,1.00,
1.492,0.66,-0.16,0.17,0.03,0.04,1.00,
1.494,0.66,-0.16,0.17,0.03,0.04,1.00,
1.496,0.66,-0.16,0.17,0.03,0.04,1.00,
1.497,0.67,-0.20,0.15,0.03,0.04,1.00,
1.499,0.67,-0.20,0.15,0.03,0.04,1.00,
1.501,0.67,-0.20,0.15,0.03,0.04,1.00,
1.501,0.69,-0.24,0.15,0.03,0.04,1.00,
1.503,0.69,-0.24,0.15,0.03,0.04,1.00,
1.506,0.69,-0.24,0.15,0.02,0.04,1.00,
1.506,0.68,-0.23,0.17,0.02,0.04,1.00,
1.509,0.68,-0.23,0.17,0.02,0.05,1.00,
1.511,0.68,-0.23,0.17,0.02,0.05,1.00,
1.511,0.66,-0.19,0.18,0.02,0.05,1.00,
1.513,0.66,-0.19,0.18,0.02,0.05,1.00,
1.516,0.66,-0.19,0.18,0.02,0.05,1.00,
1.516,0.62,-0.15,0.18,0.02,0.05,1.00,
1.518,0.62,-0.15,0.18,0.02,0.06,1.00,
1.521,0.62,-0.15,0.18,0.02,0.06,1.00,
1.521,0.60,-0.12,0.18,0.02,0.06,1.00,
1.523,0.60,-0.12,0.18,0.01,0.06,1.00,
1.526,0.60,-0.12,0.18,0.01,0.06,1.00,
1.527,0.58,-0.08,0.18,0.01,0.06,1.00,
1.529,0.58,-0.08,0.18,0.01,0.06,0.99,
1.531,0.54,-0.09,0.14,0.01,0.06,0.99,
1.531,0.54,-0.09,0.14,0.01,0.06,0.99,
1.533,0.54,-0.09,0.14,0.01,0.06,0.99,
1.535,0.54,-0.09,0.14,0.01,0.06,0.99,
1.535,0.52,-0.09,0.10,0.01,0.06,0.99,
1.538,0.52,-0.09,0.10,0.02,0.06,0.98,
1.54,0.52,-0.09,0.10,0.02,0.06,0.98,
1.54,0.53,-0.08,0.05,0.02,0.06,0.98,
1.547,0.53,-0.08,0.05,0.02,0.06,0.97,
1.548,0.53,-0.08,0.05,0.02,0.05,0.97,
1.549,0.54,-0.09,-0.03,0.02,0.05,0.97,
1.549,0.54,-0.09,-0.03,0.02,0.05,0.96,
1.55,0.54,-0.09,-0.03,0.02,0.05,0.96,
1.55,0.55,-0.12,-0.12,0.02,0.05,0.96,
1.552,0.55,-0.12,-0.12,0.03,0.05,0.95,
1.555,0.55,-0.12,-0.12,0.03,0.05,0.95,
1.555,0.60,-0.14,-0.21,0.03,0.05,0.95,
1.557,0.60,-0.14,-0.21,0.03,0.05,0.95,
1.562,0.60,-0.14,-0.21,0.03,0.04,0.94,
1.563,0.61,-0.18,-0.31,0.03,0.04,0.94,
1.563,0.61,-0.18,-0.31,0.03,0.04,0.94,
1.564,0.61,-0.18,-0.31,0.04,0.04,0.94,
1.565,0.62,-0.24,-0.38,0.04,0.04,0.94,
1.567,0.62,-0.24,-0.38,0.04,0.04,0.94,
1.57,0.62,-0.24,-0.38,0.04,0.03,0.93,
1.57,0.66,-0.30,-0.44,0.04,0.03,0.93,
1.572,0.66,-0.30,-0.44,0.04,0.03,0.93,
1.575,0.66,-0.30,-0.44,0.04,0.03,0.92,
1.575,0.70,-0.33,-0.48,0.04,0.03,0.92,
1.577,0.70,-0.33,-0.48,0.04,0.03,0.92,
1.579,0.70,-0.33,-0.48,0.04,0.03,0.92,
1.579,0.69,-0.35,-0.55,0.04,0.03,0.92,
1.582,0.69,-0.35,-0.55,0.04,0.03,0.92,
1.584,0.69,-0.35,-0.55,0.04,0.03,0.93,
1.584,0.69,-0.36,-0.57,0.04,0.03,0.93,
1.587,0.69,-0.36,-0.57,0.04,0.03,0.93,
1.589,0.69,-0.36,-0.57,0.04,0.04,0.93,
1.589,0.71,-0.35,-0.55,0.04,0.04,0.93,
1.591,0.71,-0.35,-0.55,0.04,0.04,0.93,
1.594,0.71,-0.35,-0.55,0.03,0.04,0.94,
1.594,0.70,-0.32,-0.48,0.03,0.04,0.94,
1.597,0.70,-0.32,-0.48,0.03,0.04,0.95,
1.599,0.70,-0.32,-0.48,0.03,0.05,0.95,
1.599,0.66,-0.27,-0.41,0.03,0.05,0.95,
1.601,0.66,-0.27,-0.41,0.03,0.05,0.96,
1.604,0.66,-0.27,-0.41,0.02,0.05,0.97,
1.604,0.61,-0.22,-0.28,0.02,0.05,0.97,
1.606,0.61,-0.22,-0.28,0.02,0.06,0.97,
1.609,0.61,-0.22,-0.28,0.01,0.06,0.98,
1.609,0.56,-0.15,-0.16,0.01,0.06,0.98,
1.611,0.56,-0.15,-0.16,0.01,0.06,0.98,
1.614,0.56,-0.15,-0.16,0.01,0.06,0.98,
1.614,0.50,-0.12,-0.05,0.01,0.06,0.98,
1.616,0.50,-0.12,-0.05,0.01,0.06,0.99,
1.618,0.50,-0.12,-0.05,0.01,0.06,0.99,
1.619,0.48,-0.10,0.04,0.01,0.06,0.99,
1.621,0.48,-0.10,0.04,0.00,0.06,0.99,
1.623,0.48,-0.10,0.04,0.00,0.06,0.99,
1.624,0.44,-0.11,0.08,0.00,0.06,0.99,
1.63,0.44,-0.11,0.08,0.00,0.06,0.99,
1.63,0.44,-0.11,0.08,0.01,0.06,0.99,
1.632,0.43,-0.09,0.10,0.01,0.06,0.99,
1.632,0.43,-0.09,0.10,0.01,0.07,1.00,
1.633,0.43,-0.09,0.10,0.01,0.07,1.00,
1.633,0.44,-0.05,0.13,0.01,0.07,1.00,
1.635,0.44,-0.05,0.13,0.01,0.07,1.00,
1.638,0.44,-0.05,0.13,0.01,0.07,1.00,
1.638,0.49,-0.00,0.16,0.01,0.07,1.00,
1.64,0.49,-0.00,0.16,0.01,0.07,1.00,
1.643,0.49,-0.00,0.16,0.01,0.07,0.99,
1.644,0.51,0.03,0.16,0.01,0.07,0.99,
1.645,0.51,0.03,0.16,0.01,0.07,0.99,
1.648,0.51,0.03,0.16,0.01,0.07,0.99,
1.648,0.53,0.03,0.15,0.01,0.07,0.99,
1.65,0.53,0.03,0.15,0.02,0.07,0.99,
1.653,0.53,0.03,0.15,0.02,0.07,0.99,
1.653,0.55,0.00,0.14,0.02,0.07,0.99,
1.655,0.55,0.00,0.14,0.02,0.07,0.99,
1.658,0.55,0.00,0.14,0.02,0.07,0.99,
1.659,0.57,-0.01,0.11,0.02,0.07,0.99,
1.66,0.57,-0.01,0.11,0.02,0.06,0.99,
1.662,0.57,-0.01,0.11,0.03,0.06,0.99,
1.663,0.61,-0.03,0.10,0.03,0.06,0.99,
1.665,0.61,-0.03,0.10,0.03,0.06,0.99,
1.667,0.61,-0.03,0.10,0.03,0.06,0.99,
1.668,0.65,-0.06,0.09,0.03,0.06,0.99,
1.67,0.65,-0.06,0.09,0.04,0.05,0.99,
1.673,0.65,-0.06,0.09,0.04,0.05,0.99,
1.673,0.72,-0.10,0.10,0.04,0.05,0.99,
1.675,0.72,-0.10,0.10,0.04,0.05,0.99,
1.677,0.72,-0.10,0.10,0.04,0.05,1.00,
1.678,0.77,-0.16,0.12,0.04,0.05,1.00,
1.68,0.77,-0.16,0.12,0.04,0.05,1.00,
1.682,0.77,-0.16,0.12,0.04,0.05,1.00,
1.682,0.81,-0.19,0.14,0.04,0.05,1.00,
1.685,0.81,-0.19,0.14,0.04,0.05,1.00,
1.687,0.81,-0.19,0.14,0.04,0.05,1.01,
1.687,0.82,-0.20,0.19,0.04,0.05,1.01,
1.689,0.82,-0.20,0.19,0.04,0.05,1.01,
1.692,0.82,-0.20,0.19,0.05,0.05,1.01,
1.693,0.84,-0.19,0.24,0.05,0.05,1.01,
1.694,0.84,-0.19,0.24,0.04,0.06,1.01,
1.697,0.84,-0.19,0.24,0.05,0.06,1.02,
1.697,0.85,-0.17,0.29,0.05,0.06,1.02,
1.699,0.85,-0.17,0.29,0.05,0.06,1.02,
1.702,0.85,-0.10,0.34,0.05,0.06,1.02,
1.702,0.85,-0.10,0.34,0.05,0.06,1.02,
1.704,0.85,-0.10,0.34,0.05,0.06,1.02,
1.707,0.85,-0.10,0.34,0.05,0.06,1.02,
1.707,0.87,-0.05,0.38,0.05,0.06,1.02,
1.709,0.87,-0.05,0.38,0.05,0.06,1.02,
1.712,0.87,-0.05,0.38,0.05,0.06,1.02,
1.712,0.89,-0.06,0.40,0.05,0.06,1.02,
1.714,0.89,-0.06,0.40,0.05,0.06,1.02,
1.717,0.89,-0.06,0.40,0.04,0.06,1.02,
1.717,0.88,-0.04,0.41,0.04,0.06,1.02,
1.719,0.88,-0.04,0.41,0.04,0.06,1.03,
1.721,0.88,-0.04,0.41,0.03,0.06,1.03,
1.722,0.84,-0.05,0.42,0.03,0.06,1.03,
1.729,0.84,-0.05,0.42,0.03,0.06,1.03,
1.73,0.84,-0.05,0.42,0.03,0.06,1.02,
1.73,0.75,-0.06,0.42,0.03,0.06,1.02,
1.731,0.75,-0.06,0.42,0.03,0.06,1.02,
1.731,0.75,-0.06,0.42,0.03,0.06,1.02,
1.732,0.71,-0.08,0.41,0.03,0.06,1.02,
1.734,0.71,-0.08,0.41,0.03,0.07,1.02,
1.736,0.71,-0.08,0.41,0.03,0.07,1.02,
1.736,0.71,-0.05,0.40,0.03,0.07,1.02,
1.738,0.71,-0.05,0.40,0.03,0.07,1.02,
1.741,0.71,-0.05,0.40,0.03,0.07,1.02,
1.742,0.68,-0.01,0.38,0.03,0.07,1.02,
1.743,0.68,-0.01,0.38,0.04,0.07,1.02,
1.746,0.68,-0.01,0.38,0.04,0.08,1.01,
1.746,0.70,0.03,0.35,0.04,0.08,1.01,
1.748,0.70,0.03,0.35,0.04,0.08,1.01,
1.751,0.70,0.03,0.35,0.04,0.08,1.01,
1.751,0.77,0.06,0.30,0.04,0.08,1.01,
1.753,0.77,0.06,0.30,0.04,0.08,1.01,
1.755,0.77,0.06,0.30,0.04,0.08,1.01,
1.756,0.80,0.09,0.26,0.04,0.08,1.01,
1.758,0.80,0.09,0.26,0.05,0.08,1.00,
1.76,0.80,0.09,0.26,0.04,0.09,1.00,
1.761,0.80,0.12,0.22,0.04,0.09,1.00,
1.763,0.80,0.12,0.22,0.04,0.08,1.00,
1.765,0.80,0.12,0.22,0.04,0.08,1.00,
1.765,0.81,0.13,0.17,0.04,0.08,1.00,
1.768,0.81,0.13,0.17,0.04,0.08,0.99,
1.77,0.81,0.13,0.17,0.04,0.08,0.99,
1.77,0.79,0.11,0.14,0.04,0.08,0.99,
1.773,0.79,0.11,0.14,0.04,0.08,0.99,
1.775,0.79,0.11,0.14,0.04,0.08,0.99,
1.776,0.75,0.07,0.09,0.04,0.08,0.99,
1.778,0.75,0.07,0.09,0.03,0.08,0.99,
1.781,0.75,0.07,0.09,0.03,0.08,0.98,
1.781,0.73,0.05,0.04,0.03,0.08,0.98,
1.782,0.73,0.05,0.04,0.03,0.08,0.98,
1.785,0.73,0.05,0.04,0.03,0.08,0.98,
1.785,0.69,0.02,0.00,0.03,0.08,0.98,
1.787,0.69,0.02,0.00,0.02,0.08,0.97,
1.79,0.69,0.02,0.00,0.02,0.08,0.97,
1.79,0.62,-0.00,-0.06,0.02,0.08,0.97,
1.793,0.62,-0.00,-0.06,0.02,0.08,0.97,
1.795,0.62,-0.00,-0.06,0.02,0.08,0.96,
1.796,0.58,0.01,-0.11,0.02,0.08,0.96,
1.797,0.58,0.01,-0.11,0.02,0.08,0.96,
1.8,0.58,0.01,-0.11,0.01,0.08,0.96,
1.8,0.56,0.02,-0.16,0.01,0.08,0.96,
1.802,0.56,0.02,-0.16,0.01,0.08,0.96,
1.804,0.56,0.02,-0.16,0.01,0.08,0.96,
1.805,0.49,-0.01,-0.19,0.01,0.08,0.96,
1.808,0.49,-0.01,-0.19,0.00,0.08,0.96,
1.809,0.49,-0.01,-0.19,-0.00,0.07,0.96,
1.81,0.42,-0.03,-0.19,-0.00,0.07,0.96,
1.812,0.42,-0.03,-0.19,-0.00,0.07,0.96,
1.814,0.42,-0.03,-0.19,-0.00,0.08,0.96,
1.815,0.37,-0.07,-0.21,-0.00,0.08,0.96,
1.817,0.37,-0.07,-0.21,-0.01,0.07,0.96,
1.819,0.37,-0.07,-0.21,-0.01,0.08,0.96,
1.819,0.32,-0.08,-0.21,-0.01,0.08,0.96,
1.822,0.32,-0.08,-0.21,-0.00,0.08,0.96,
1.825,0.32,-0.08,-0.21,-0.00,0.08,0.96,
1.825,0.30,-0.09,-0.19,-0.00,0.08,0.96,
1.827,0.30,-0.09,-0.19,-0.00,0.08,0.96,
1.829,0.30,-0.09,-0.19,0.00,0.08,0.96,
1.83,0.31,-0.06,-0.18,0.00,0.08,0.96,
1.831,0.31,-0.06,-0.18,0.00,0.08,0.96,
1.834,0.31,-0.06,-0.18,0.01,0.08,0.96,
1.834,0.36,-0.07,-0.18,0.01,0.08,0.96,
1.837,0.36,-0.07,-0.18,0.01,0.08,0.96,
1.839,0.36,-0.07,-0.18,0.01,0.08,0.96,
1.839,0.39,-0.07,-0.18,0.01,0.08,0.96,
1.846,0.39,-0.07,-0.18,0.01,0.08,0.96,
1.846,0.39,-0.07,-0.18,0.01,0.08,0.96,
1.846,0.44,-0.07,-0.19,0.01,0.08,0.96,
1.847,0.44,-0.07,-0.19,0.02,0.07,0.96,
1.849,0.44,-0.07,-0.19,0.02,0.07,0.96,
1.849,0.45,-0.09,-0.20,0.02,0.07,0.96,
1.851,0.45,-0.09,-0.20,0.02,0.07,0.96,
1.854,0.45,-0.09,-0.20,0.02,0.07,0.96,
1.854,0.49,-0.12,-0.22,0.02,0.07,0.96,
1.856,0.49,-0.12,-0.22,0.02,0.07,0.96,
1.859,0.49,-0.12,-0.22,0.02,0.07,0.95,
1.859,0.51,-0.16,-0.23,0.02,0.07,0.95,
1.861,0.51,-0.16,-0.23,0.02,0.06,0.95,
1.863,0.51,-0.16,-0.23,0.02,0.06,0.95,
1.864,0.50,-0.19,-0.24,0.02,0.06,0.95,
1.866,0.50,-0.19,-0.24,0.02,0.06,0.95,
1.868,0.50,-0.19,-0.24,0.02,0.06,0.95,
1.868,0.48,-0.21,-0.27,0.02,0.06,0.95,
1.871,0.48,-0.21,-0.27,0.01,0.06,0.94,
1.873,0.48,-0.21,-0.27,0.01,0.06,0.94,
1.873,0.43,-0.23,-0.30,0.01,0.06,0.94,
1.876,0.43,-0.23,-0.30,0.01,0.06,0.94,
1.878,0.43,-0.23,-0.30,-0.00,0.06,0.93,
1.878,0.37,-0.25,-0.36,-0.00,0.06,0.93,
1.881,0.37,-0.25,-0.36,-0.00,0.06,0.93,
1.883,0.37,-0.25,-0.36,-0.01,0.06,0.93,
1.883,0.28,-0.27,-0.42,-0.01,0.06,0.93,
1.886,0.28,-0.27,-0.42,-0.01,0.06,0.92,
1.888,0.28,-0.27,-0.42,-0.02,0.06,0.92,
1.888,0.17,-0.26,-0.48,-0.02,0.06,0.92,
1.891,0.17,-0.26,-0.48,-0.03,0.06,0.92,
1.893,0.17,-0.26,-0.48,-0.03,0.07,0.92,
1.893,0.06,-0.24,-0.53,-0.03,0.07,0.92,
1.895,0.06,-0.24,-0.53,-0.03,0.07,0.92,
1.898,0.06,-0.24,-0.53,-0.04,0.07,0.92,
1.898,-0.05,-0.21,-0.57,-0.04,0.07,0.92,
1.9,-0.05,-0.21,-0.57,-0.04,0.08,0.92,
1.902,-0.05,-0.21,-0.57,-0.05,0.08,0.92,
1.903,-0.12,-0.15,-0.55,-0.05,0.08,0.92,
1.905,-0.12,-0.15,-0.55,-0.05,0.08,0.93,
1.907,-0.12,-0.15,-0.55,-0.05,0.08,0.93,
1.908,-0.22,-0.11,-0.53,-0.05,0.08,0.93,
1.91,-0.22,-0.11,-0.53,-0.05,0.08,0.94,
1.912,-0.22,-0.11,-0.53,-0.05,0.08,0.94,
1.913,-0.23,-0.07,-0.46,-0.05,0.08,0.94,
1.915,-0.23,-0.07,-0.46,-0.05,0.09,0.95,
1.917,-0.23,-0.07,-0.46,-0.06,0.09,0.96,
1.917,-0.25,-0.04,-0.36,-0.06,0.09,0.96,
1.92,-0.25,-0.04,-0.36,-0.06,0.09,0.97,
1.922,-0.25,-0.04,-0.36,-0.06,0.09,0.97,
1.923,-0.26,-0.03,-0.21,-0.06,0.09,0.97,
1.925,-0.26,-0.03,-0.21,-0.06,0.09,0.98,
1.927,-0.26,-0.03,-0.21,-0.06,0.09,0.99,
1.928,-0.29,-0.03,-0.06,-0.06,0.09,0.99,
1.93,-0.29,-0.03,-0.06,-0.07,0.09,1.00,
1.932,-0.29,-0.03,-0.06,-0.07,0.08,1.01,
1.932,-0.30,-0.03,0.08,-0.07,0.08,1.01,
1.934,-0.30,-0.03,0.08,-0.07,0.08,1.01,
1.937,-0.30,-0.03,0.08,-0.07,0.08,1.02,
1.937,-0.32,-0.05,0.26,-0.07,0.08,1.02,
1.939,-0.32,-0.05,0.26,-0.07,0.08,1.02,
1.945,-0.32,-0.05,0.26,-0.07,0.08,1.03,
1.946,-0.33,-0.09,0.38,-0.07,0.08,1.03,
1.946,-0.33,-0.09,0.38,-0.07,0.08,1.03,
1.947,-0.33,-0.09,0.38,-0.07,0.07,1.03,
1.947,-0.31,-0.12,0.47,-0.07,0.07,1.03,
1.949,-0.31,-0.12,0.47,-0.07,0.07,1.03,
1.951,-0.31,-0.12,0.47,-0.07,0.07,1.03,
1.952,-0.27,-0.18,0.50,-0.07,0.07,1.03,
1.954,-0.27,-0.18,0.50,-0.07,0.07,1.02,
1.957,-0.27,-0.18,0.50,-0.06,0.07,1.02,
1.957,-0.26,-0.21,0.49,-0.06,0.07,1.02,
1.959,-0.26,-0.21,0.49,-0.06,0.07,1.02,
1.961,-0.26,-0.21,0.49,-0.06,0.07,1.01,
1.961,-0.25,-0.21,0.44,-0.06,0.07,1.01,
1.963,-0.25,-0.21,0.44,-0.06,0.07,1.01,
1.966,-0.25,-0.21,0.44,-0.05,0.07,1.00,
1.966,-0.22,-0.22,0.37,-0.05,0.07,1.00,
1.968,-0.22,-0.22,0.37,-0.05,0.07,0.99,
1.971,-0.22,-0.22,0.37,-0.04,0.07,0.99,
1.971,-0.16,-0.24,0.27,-0.04,0.07,0.99,
1.973,-0.16,-0.24,0.27,-0.04,0.06,0.98,
1.976,-0.16,-0.24,0.27,-0.04,0.06,0.97,
1.976,-0.09,-0.27,0.13,-0.04,0.06,0.97,
1.978,-0.09,-0.27,0.13,-0.03,0.06,0.96,
1.981,-0.09,-0.27,0.13,-0.03,0.06,0.95,
1.981,-0.04,-0.34,-0.04,-0.03,0.06,0.95,
1.983,-0.04,-0.34,-0.04,-0.03,0.05,0.94,
1.986,-0.04,-0.34,-0.04,-0.02,0.05,0.94,
1.986,0.03,-0.37,-0.22,-0.02,0.05,0.94,
1.988,0.03,-0.37,-0.22,-0.02,0.05,0.93,
1.991,0.03,-0.37,-0.22,-0.01,0.05,0.93,
1.991,0.11,-0.44,-0.35,-0.01,0.05,0.93,
1.993,0.11,-0.44,-0.35,-0.00,0.05,0.92,
1.996,0.19,-0.47,-0.46,-0.00,0.05,0.92,
1.996,0.19,-0.47,-0.46,-0.00,0.05,0.92,
1.998,0.19,-0.47,-0.46,0.00,0.05,0.92,
2.0,0.19,-0.47,-0.46,0.01,0.05,0.92,
2.0,0.27,-0.47,-0.53,0.01,0.05,0.92,
2.003,0.27,-0.47,-0.53,0.01,0.04,0.92,
2.005,0.27,-0.47,-0.53,0.01,0.04,0.92,
2.006,0.34,-0.49,-0.53,0.01,0.04,0.92,
2.008,0.34,-0.49,-0.53,0.01,0.04,0.93,
2.01,0.34,-0.49,-0.53,0.02,0.04,0.93,
2.01,0.39,-0.52,-0.53,0.02,0.04,0.93,
2.013,0.39,-0.52,-0.53,0.02,0.04,0.93,
2.015,0.39,-0.52,-0.53,0.02,0.04,0.94,
2.015,0.43,-0.54,-0.46,0.02,0.04,0.94,
2.017,0.43,-0.54,-0.46,0.02,0.04,0.95,
2.02,0.43,-0.54,-0.46,0.02,0.04,0.95,
2.02,0.45,-0.55,-0.37,0.02,0.04,0.95,
2.022,0.45,-0.55,-0.37,0.02,0.04,0.96,
2.028,0.45,-0.55,-0.37,0.01,0.04,0.97,
2.028,0.45,-0.54,-0.24,0.01,0.04,0.97,
2.029,0.45,-0.54,-0.24,0.01,0.04,0.98,
2.03,0.43,-0.52,-0.08,0.01,0.04,0.98,
2.03,0.43,-0.52,-0.08,0.00,0.04,0.99,
2.032,0.43,-0.52,-0.08,0.00,0.04,1.00,
2.034,0.43,-0.52,-0.08,-0.00,0.04,1.01,
2.035,0.35,-0.49,0.10,-0.00,0.04,1.01,
2.037,0.35,-0.49,0.10,-0.01,0.04,1.01,
2.04,0.35,-0.49,0.10,-0.01,0.04,1.02,
2.041,0.28,-0.47,0.27,-0.01,0.04,1.02,
2.042,0.28,-0.47,0.27,-0.02,0.04,1.02,
2.044,0.28,-0.47,0.27,-0.02,0.04,1.03,
2.045,0.19,-0.47,0.40,-0.02,0.04,1.03,
2.047,0.19,-0.47,0.40,-0.02,0.04,1.03,
2.049,0.19,-0.47,0.40,-0.02,0.04,1.04,
2.049,0.11,-0.47,0.49,-0.02,0.04,1.04,
2.052,0.11,-0.47,0.49,-0.02,0.04,1.04,
2.054,0.11,-0.47,0.49,-0.02,0.04,1.04,
2.054,0.09,-0.49,0.56,-0.02,0.04,1.04,
2.057,0.09,-0.49,0.56,-0.02,0.03,1.04,
2.059,0.09,-0.49,0.56,-0.02,0.03,1.04,
2.059,0.05,-0.50,0.61,-0.02,0.03,1.04,
2.061,0.05,-0.50,0.61,-0.02,0.03,1.04,
2.064,0.05,-0.50,0.61,-0.01,0.03,1.04,
2.064,0.07,-0.52,0.63,-0.01,0.03,1.04,
2.066,0.07,-0.52,0.63,-0.01,0.03,1.04,
2.069,0.07,-0.52,0.63,-0.00,0.03,1.04,
2.069,0.13,-0.53,0.60,-0.00,0.03,1.04,
2.071,0.13,-0.53,0.60,0.00,0.02,1.04,
2.074,0.13,-0.53,0.60,0.01,0.02,1.03,
2.074,0.22,-0.56,0.59,0.01,0.02,1.03,
2.076,0.22,-0.56,0.59,0.01,0.02,1.03,
2.078,0.22,-0.56,0.59,0.02,0.01,1.03,
2.079,0.31,-0.59,0.55,0.02,0.01,1.03,
2.081,0.31,-0.59,0.55,0.03,0.01,1.03,
2.083,0.31,-0.59,0.55,0.03,0.01,1.02,
2.083,0.39,-0.66,0.49,0.03,0.01,1.02,
2.086,0.39,-0.66,0.49,0.04,0.01,1.02,
2.089,0.50,-0.69,0.44,0.04,0.01,1.02,
2.089,0.50,-0.69,0.44,0.04,0.00,1.02,
2.091,0.50,-0.69,0.44,0.05,-0.00,1.01,
2.094,0.50,-0.69,0.44,0.05,-0.00,1.01,
2.094,0.57,-0.75,0.36,0.05,-0.00,1.01,
2.096,0.57,-0.75,0.36,0.06,-0.01,1.00,
2.098,0.57,-0.75,0.36,0.06,-0.01,1.00,
2.099,0.67,-0.81,0.27,0.06,-0.01,1.00,
2.101,0.67,-0.81,0.27,0.07,-0.01,1.00,
2.103,0.67,-0.81,0.27,0.07,-0.01,1.00,
2.103,0.75,-0.84,0.22,0.07,-0.01,1.00,
2.106,0.75,-0.84,0.22,0.07,-0.01,1.00,
2.108,0.75,-0.84,0.22,0.08,-0.01,1.00,
2.109,0.82,-0.86,0.18,0.08,-0.01,1.00,
2.111,0.82,-0.86,0.18,0.08,-0.01,1.00,
2.113,0.82,-0.86,0.18,0.08,-0.01,1.00,
2.113,0.87,-0.85,0.18,0.08,-0.01,1.00,
2.115,0.87,-0.85,0.18,0.08,-0.01,1.00,
2.118,0.87,-0.85,0.18,0.08,-0.01,1.00,
2.12,0.88,-0.84,0.20,0.08,-0.01,1.00,
2.12,0.88,-0.84,0.20,0.07,-0.01,1.01,
2.127,0.88,-0.84,0.20,0.07,-0.01,1.01,
2.128,0.86,-0.83,0.22,0.07,-0.01,1.01,
2.128,0.86,-0.83,0.22,0.06,-0.01,1.02,
2.128,0.86,-0.83,0.22,0.06,-0.01,1.02,
2.129,0.79,-0.83,0.26,0.06,-0.01,1.02,
2.13,0.79,-0.83,0.26,0.05,-0.01,1.02,
2.133,0.79,-0.83,0.26,0.05,-0.01,1.02,
2.133,0.67,-0.82,0.34,0.05,-0.01,1.02,
2.135,0.67,-0.82,0.34,0.05,-0.01,1.03,
2.137,0.67,-0.82,0.34,0.04,-0.01,1.03,
2.138,0.59,-0.80,0.39,0.04,-0.01,1.03,
2.14,0.59,-0.80,0.39,0.04,-0.01,1.03,
2.142,0.59,-0.80,0.39,0.04,-0.01,1.03,
2.142,0.50,-0.78,0.43,0.04,-0.01,1.03,
2.145,0.50,-0.78,0.43,0.04,-0.01,1.03,
2.147,0.50,-0.78,0.43,0.03,-0.01,1.03,
2.147,0.45,-0.77,0.47,0.03,-0.01,1.03,
2.149,0.45,-0.77,0.47,0.03,-0.01,1.03,
2.152,0.45,-0.77,0.47,0.03,-0.01,1.03,
2.152,0.39,-0.76,0.47,0.03,-0.01,1.03,
2.155,0.39,-0.76,0.47,0.03,-0.01,1.03,
2.157,0.39,-0.76,0.47,0.03,-0.01,1.03,
2.157,0.34,-0.75,0.47,0.03,-0.01,1.03,
2.159,0.34,-0.75,0.47,0.03,-0.01,1.02,
2.162,0.34,-0.75,0.47,0.03,-0.02,1.02,
2.162,0.32,-0.78,0.42,0.03,-0.02,1.02,
2.164,0.32,-0.78,0.42,0.03,-0.02,1.01,
2.167,0.32,-0.78,0.42,0.03,-0.02,1.01,
2.167,0.30,-0.80,0.33,0.03,-0.02,1.01,
2.169,0.30,-0.80,0.33,0.04,-0.01,1.00,
2.171,0.30,-0.80,0.33,0.04,-0.01,1.00,
2.172,0.33,-0.82,0.25,0.04,-0.01,1.00,
2.174,0.33,-0.82,0.25,0.04,-0.01,0.99,
2.177,0.33,-0.82,0.25,0.04,-0.01,0.98,
2.177,0.35,-0.78,0.13,0.04,-0.01,0.98,
2.179,0.35,-0.78,0.13,0.05,-0.01,0.98,
2.181,0.35,-0.78,0.13,0.05,-0.01,0.97,
2.181,0.41,-0.76,0.02,0.05,-0.01,0.97,
2.184,0.41,-0.76,0.02,0.05,-0.01,0.97,
2.186,0.41,-0.76,0.02,0.05,-0.00,0.96,
2.186,0.42,-0.72,-0.10,0.05,-0.00,0.96,
2.19,0.42,-0.72,-0.10,0.05,-0.00,0.96,
2.191,0.42,-0.72,-0.10,0.05,0.00,0.96,
2.192,0.42,-0.69,-0.21,0.05,0.00,0.96,
2.194,0.42,-0.69,-0.21,0.05,0.00,0.95,
2.196,0.42,-0.69,-0.21,0.04,0.01,0.95,
2.197,0.40,-0.63,-0.27,0.04,0.01,0.95,
2.199,0.40,-0.63,-0.27,0.04,0.01,0.95,
2.201,0.40,-0.63,-0.27,0.04,0.01,0.95,
2.201,0.34,-0.57,-0.32,0.04,0.01,0.95,
2.204,0.34,-0.57,-0.32,0.03,0.01,0.95,
2.207,0.34,-0.57,-0.32,0.03,0.02,0.94,
2.207,0.27,-0.52,-0.35,0.03,0.02,0.94,
2.209,0.27,-0.52,-0.35,0.02,0.02,0.95,
2.211,0.27,-0.52,-0.35,0.02,0.02,0.95,
2.211,0.19,-0.47,-0.38,0.02,0.02,0.95,
2.213,0.19,-0.47,-0.38,0.01,0.02,0.95,
2.216,0.19,-0.47,-0.38,0.00,0.02,0.95,
2.216,0.08,-0.44,-0.37,0.00,0.02,0.95,
2.218,0.08,-0.44,-0.37,-0.00,0.02,0.96,
2.221,0.08,-0.44,-0.37,-0.00,0.02,0.96,
2.221,-0.05,-0.42,-0.31,-0.00,0.02,0.96,
2.223,-0.05,-0.42,-0.31,-0.01,0.02,0.97,
2.226,-0.05,-0.42,-0.31,-0.02,0.03,0.97,
2.226,-0.14,-0.38,-0.22,-0.02,0.03,0.97,
2.228,-0.14,-0.38,-0.22,-0.02,0.03,0.98,
2.232,-0.14,-0.38,-0.22,-0.03,0.03,0.99,
2.232,-0.25,-0.35,-0.11,-0.03,0.03,0.99,
2.233,-0.25,-0.35,-0.11,-0.03,0.03,0.99,
2.235,-0.25,-0.35,-0.11,-0.03,0.03,1.00,
2.236,-0.33,-0.31,-0.00,-0.03,0.03,1.00,
2.238,-0.33,-0.31,-0.00,-0.04,0.04,1.00,
2.244,-0.33,-0.31,-0.00,-0.04,0.04,1.00,
2.245,-0.41,-0.27,0.11,-0.04,0.04,1.00,
2.245,-0.41,-0.27,0.11,-0.05,0.04,1.01,
2.245,-0.41,-0.27,0.11,-0.05,0.04,1.01,
2.245,-0.50,-0.25,0.19,-0.05,0.04,1.01,
2.248,-0.50,-0.25,0.19,-0.06,0.03,1.01,
2.25,-0.50,-0.25,0.19,-0.06,0.04,1.01,
2.25,-0.56,-0.24,0.23,-0.06,0.04,1.01,
2.253,-0.56,-0.24,0.23,-0.06,0.04,1.01,
2.255,-0.56,-0.24,0.23,-0.06,0.03,1.01,
2.255,-0.64,-0.25,0.27,-0.06,0.03,1.01,
2.259,-0.64,-0.25,0.27,-0.06,0.03,1.01,
2.26,-0.64,-0.25,0.27,-0.06,0.03,1.01,
2.26,-0.66,-0.26,0.29,-0.06,0.03,1.01,
2.262,-0.66,-0.26,0.29,-0.06,0.03,1.01,
2.265,-0.66,-0.26,0.29,-0.06,0.03,1.01,
2.265,-0.67,-0.29,0.28,-0.06,0.03,1.01,
2.267,-0.67,-0.29,0.28,-0.05,0.03,1.01,
2.27,-0.67,-0.29,0.28,-0.05,0.03,1.00,
2.27,-0.66,-0.29,0.25,-0.05,0.03,1.00,
2.273,-0.66,-0.29,0.25,-0.05,0.03,1.00,
2.275,-0.66,-0.29,0.25,-0.04,0.02,0.99,
2.275,-0.61,-0.32,0.19,-0.04,0.02,0.99,
2.277,-0.61,-0.32,0.19,-0.04,0.02,0.99,
2.279,-0.61,-0.32,0.19,-0.03,0.02,0.98,
2.28,-0.55,-0.33,0.10,-0.03,0.02,0.98,
2.282,-0.55,-0.33,0.10,-0.03,0.02,0.98,
2.284,-0.55,-0.33,0.10,-0.02,0.02,0.97,
2.284,-0.47,-0.33,0.02,-0.02,0.02,0.97,
2.287,-0.47,-0.33,0.02,-0.02,0.02,0.97,
2.289,-0.47,-0.33,0.02,-0.02,0.02,0.97,
2.29,-0.38,-0.34,-0.08,-0.02,0.02,0.97,
2.292,-0.38,-0.34,-0.08,-0.01,0.02,0.96,
2.294,-0.38,-0.34,-0.08,-0.01,0.03,0.96,
2.294,-0.33,-0.34,-0.16,-0.01,0.03,0.96,
2.296,-0.33,-0.34,-0.16,-0.01,0.03,0.96,
2.299,-0.33,-0.34,-0.16,-0.00,0.03,0.96,
2.299,-0.28,-0.32,-0.22,-0.00,0.03,0.96,
2.301,-0.28,-0.32,-0.22,-0.00,0.03,0.95,
2.304,-0.28,-0.32,-0.22,-0.00,0.03,0.95,
2.304,-0.25,-0.29,-0.26,-0.00,0.03,0.95,
2.306,-0.25,-0.29,-0.26,-0.01,0.03,0.96,
2.309,-0.25,-0.29,-0.26,-0.01,0.03,0.96,
2.309,-0.24,-0.27,-0.28,-0.01,0.03,0.96,
2.311,-0.24,-0.27,-0.28,-0.01,0.03,0.96,
2.314,-0.24,-0.27,-0.28,-0.01,0.03,0.96,
2.314,-0.27,-0.25,-0.26,-0.01,0.03,0.96,
2.316,-0.27,-0.25,-0.26,-0.02,0.03,0.97,
2.318,-0.27,-0.25,-0.26,-0.02,0.03,0.97,
2.319,-0.31,-0.24,-0.21,-0.02,0.03,0.97,
2.321,-0.31,-0.24,-0.21,-0.03,0.03,0.98,
2.327,-0.31,-0.24,-0.21,-0.03,0.02,0.98,
2.328,-0.39,-0.24,-0.13,-0.03,0.02,0.98,
2.329,-0.39,-0.24,-0.13,-0.04,0.02,0.99,
2.329,-0.39,-0.24,-0.13,-0.04,0.03,0.99,
2.329,-0.49,-0.27,-0.04,-0.04,0.03,0.99,
2.331,-0.49,-0.27,-0.04,-0.05,0.03,0.99,
2.333,-0.49,-0.27,-0.04,-0.06,0.03,1.00,
2.334,-0.59,-0.25,0.06,-0.06,0.03,1.00,
2.336,-0.59,-0.25,0.06,-0.06,0.03,1.01,
2.338,-0.59,-0.25,0.06,-0.07,0.03,1.01,
2.338,-0.71,-0.23,0.14,-0.07,0.03,1.01,
2.341,-0.71,-0.23,0.14,-0.07,0.03,1.01,
2.343,-0.71,-0.23,0.14,-0.07,0.04,1.02,
2.343,-0.83,-0.18,0.25,-0.07,0.04,1.02,
2.345,-0.83,-0.18,0.25,-0.08,0.04,1.02,
2.348,-0.83,-0.18,0.25,-0.08,0.04,1.02,
2.348,-0.90,-0.16,0.32,-0.08,0.04,1.02,
2.351,-0.90,-0.16,0.32,-0.08,0.04,1.02,
2.353,-0.90,-0.16,0.32,-0.08,0.04,1.02,
2.353,-0.93,-0.15,0.36,-0.08,0.04,1.02,
2.356,-0.93,-0.15,0.36,-0.08,0.04,1.02,
2.358,-0.93,-0.15,0.36,-0.08,0.04,1.02,
2.358,-0.97,-0.15,0.39,-0.08,0.04,1.02,
2.36,-0.97,-0.15,0.39,-0.08,0.04,1.02,
2.363,-0.97,-0.15,0.39,-0.08,0.04,1.02,
2.363,-0.95,-0.16,0.36,-0.08,0.04,1.02,
2.365,-0.95,-0.16,0.36,-0.07,0.04,1.02,
2.368,-0.95,-0.16,0.36,-0.07,0.04,1.01,
2.368,-0.92,-0.16,0.35,-0.07,0.04,1.01,
2.37,-0.92,-0.16,0.35,-0.07,0.04,1.01,
2.373,-0.92,-0.16,0.35,-0.07,0.04,1.00,
2.373,-0.88,-0.16,0.28,-0.07,0.04,1.00,
2.375,-0.88,-0.16,0.28,-0.06,0.04,1.00,
2.377,-0.88,-0.16,0.28,-0.06,0.04,0.99,
2.378,-0.83,-0.16,0.20,-0.06,0.04,0.99,
2.38,-0.83,-0.16,0.20,-0.05,0.04,0.99,
2.382,-0.83,-0.16,0.20,-0.05,0.03,0.98,
2.382,-0.75,-0.17,0.12,-0.05,0.03,0.98,
2.385,-0.75,-0.17,0.12,-0.04,0.03,0.98,
2.388,-0.75,-0.17,0.12,-0.04,0.03,0.97,
2.388,-0.66,-0.19,0.00,-0.04,0.03,0.97,
2.39,-0.66,-0.19,0.00,-0.03,0.03,0.97,
2.392,-0.66,-0.19,0.00,-0.03,0.02,0.96,
2.393,-0.59,-0.25,-0.08,-0.03,0.02,0.96,
2.394,-0.59,-0.25,-0.08,-0.03,0.02,0.96,
2.397,-0.59,-0.25,-0.08,-0.03,0.02,0.96,
2.397,-0.51,-0.28,-0.19,-0.03,0.02,0.96,
2.399,-0.51,-0.28,-0.19,-0.03,0.02,0.96,
2.402,-0.51,-0.28,-0.19,-0.03,0.02,0.96,
2.402,-0.48,-0.30,-0.24,-0.03,0.02,0.96,
2.404,-0.48,-0.30,-0.24,-0.03,0.02,0.96,
2.407,-0.48,-0.30,-0.24,-0.03,0.03,0.96,
2.407,-0.46,-0.30,-0.27,-0.03,0.03,0.96,
2.409,-0.46,-0.30,-0.27,-0.03,0.03,0.96,
2.412,-0.46,-0.30,-0.27,-0.04,0.03,0.96,
2.412,-0.47,-0.28,-0.27,-0.04,0.03,0.96,
2.414,-0.47,-0.28,-0.27,-0.04,0.03,0.96,
2.416,-0.47,-0.28,-0.27,-0.04,0.03,0.97,
2.417,-0.53,-0.24,-0.25,-0.04,0.03,0.97,
2.419,-0.53,-0.24,-0.25,-0.05,0.03,0.97,
2.422,-0.53,-0.24,-0.25,-0.06,0.03,0.97,
2.422,-0.61,-0.20,-0.19,-0.06,0.03,0.97,
2.426,-0.61,-0.20,-0.19,-0.06,0.04,0.98,
2.427,-0.61,-0.20,-0.19,-0.07,0.04,0.98,
2.427,-0.72,-0.19,-0.12,-0.07,0.04,0.98,
2.429,-0.72,-0.19,-0.12,-0.08,0.04,0.99,
2.431,-0.72,-0.19,-0.12,-0.09,0.04,0.99,
2.431,-0.86,-0.16,-0.01,-0.09,0.04,0.99,
2.433,-0.86,-0.16,-0.01,-0.10,0.04,1.00,
2.436,-0.86,-0.16,-0.01,-0.10,0.05,1.00,
2.436,-1.02,-0.12,0.07,-0.10,0.05,1.00,
2.439,-1.02,-0.12,0.07,-0.11,0.05,1.00,
2.441,-1.02,-0.12,0.07,-0.11,0.05,1.01,
2.441,-1.17,-0.06,0.14,-0.11,0.05,1.01,
2.443,-1.17,-0.06,0.14,-0.12,0.06,1.01,
2.446,-1.17,-0.06,0.14,-0.12,0.06,1.01,
2.446,-1.27,0.00,0.22,-0.12,0.06,1.01,
2.449,-1.27,0.00,0.22,-0.12,0.06,1.01,
2.451,-1.27,0.00,0.22,-0.12,0.07,1.01,
2.451,-1.32,0.06,0.26,-0.12,0.07,1.01,
2.453,-1.32,0.06,0.26,-0.12,0.07,1.01,
2.456,-1.32,0.06,0.26,-0.12,0.07,1.01,
2.457,-1.31,0.12,0.25,-0.12,0.07,1.01,
2.458,-1.31,0.12,0.25,-0.11,0.07,1.01,
2.461,-1.31,0.12,0.25,-0.11,0.07,1.00,
2.461,-1.29,0.17,0.23,-0.11,0.07,1.00,
2.463,-1.29,0.17,0.23,-0.11,0.07,1.00,
2.465,-1.29,0.17,0.23,-0.10,0.07,1.00,
2.466,-1.25,0.18,0.19,-0.10,0.07,1.00,
2.468,-1.25,0.18,0.19,-0.10,0.07,0.99,
2.47,-1.25,0.18,0.19,-0.10,0.07,0.99,
2.471,-1.19,0.16,0.13,-0.10,0.07,0.99,
2.473,-1.19,0.16,0.13,-0.09,0.06,0.99,
2.476,-1.19,0.16,0.13,-0.08,0.06,0.99,
2.476,-1.10,0.12,0.07,-0.08,0.06,0.99,
2.478,-1.10,0.12,0.07,-0.08,0.06,0.98,
2.48,-1.10,0.12,0.07,-0.07,0.05,0.98,
2.481,-1.00,0.06,0.02,-0.07,0.05,0.98,
2.482,-1.00,0.06,0.02,-0.07,0.05,0.98,
2.485,-1.00,0.06,0.02,-0.07,0.05,0.98,
2.485,-0.90,-0.01,-0.03,-0.07,0.05,0.98,
2.489,-0.90,-0.01,-0.03,-0.06,0.04,0.98,
2.49,-0.90,-0.01,-0.03,-0.06,0.04,0.98,
2.49,-0.81,-0.06,-0.04,-0.06,0.04,0.98,
2.493,-0.81,-0.06,-0.04,-0.06,0.04,0.98,
2.495,-0.81,-0.06,-0.04,-0.05,0.04,0.98,
2.495,-0.73,-0.13,-0.06,-0.05,0.04,0.98,
2.497,-0.73,-0.13,-0.06,-0.05,0.04,0.98,
2.5,-0.73,-0.13,-0.06,-0.05,0.04,0.98,
2.5,-0.67,-0.16,-0.06,-0.05,0.04,0.98,
2.502,-0.67,-0.16,-0.06,-0.05,0.04,0.98,
2.506,-0.67,-0.16,-0.06,-0.04,0.04,0.98,
2.506,-0.62,-0.21,-0.05,-0.04,0.04,0.98,
2.507,-0.62,-0.21,-0.05,-0.05,0.03,0.98,
2.51,-0.62,-0.21,-0.05,-0.05,0.04,0.98,
2.51,-0.58,-0.22,-0.05,-0.05,0.04,0.98,
2.512,-0.58,-0.22,-0.05,-0.05,0.04,0.98,
2.514,-0.58,-0.22,-0.05,-0.05,0.04,0.98,
2.515,-0.58,-0.22,-0.05,-0.05,0.04,0.98,
2.517,-0.58,-0.22,-0.05,-0.05,0.04,0.98,
2.519,-0.58,-0.22,-0.05,-0.05,0.04,0.98,
2.52,-0.60,-0.20,-0.06,-0.05,0.04,0.98,
2.522,-0.60,-0.20,-0.06,-0.05,0.04,0.98,
2.524,-0.60,-0.20,-0.06,-0.05,0.05,0.97,
2.525,-0.61,-0.17,-0.07,-0.05,0.05,0.97,
2.527,-0.61,-0.17,-0.07,-0.05,0.05,0.97,
2.529,-0.61,-0.17,-0.07,-0.06,0.05,0.97,
2.529,-0.65,-0.14,-0.09,-0.06,0.05,0.97,
2.531,-0.65,-0.14,-0.09,-0.06,0.05,0.97,
2.534,-0.65,-0.14,-0.09,-0.06,0.05,0.97,
2.534,-0.70,-0.10,-0.13,-0.06,0.05,0.97,
2.537,-0.70,-0.10,-0.13,-0.06,0.06,0.96,
2.543,-0.70,-0.10,-0.13,-0.06,0.06,0.96,
2.545,-0.73,-0.04,-0.15,-0.06,0.06,0.96,
2.545,-0.73,-0.04,-0.15,-0.06,0.06,0.96,
2.545,-0.73,-0.04,-0.15,-0.06,0.07,0.96,
2.545,-0.74,0.00,-0.19,-0.06,0.07,0.96,
2.546,-0.74,0.00,-0.19,-0.06,0.07,0.96,
2.549,-0.74,0.00,-0.19,-0.05,0.07,0.96,
2.549,-0.74,0.05,-0.22,-0.05,0.07,0.96,
2.551,-0.74,0.05,-0.22,-0.05,0.07,0.96,
2.553,-0.74,0.05,-0.22,-0.04,0.07,0.96,
2.554,-0.67,0.06,-0.25,-0.04,0.07,0.96,
2.556,-0.67,0.06,-0.25,-0.04,0.07,0.95,
2.559,-0.67,0.06,-0.25,-0.04,0.07,0.95,
2.559,-0.61,0.08,-0.26,-0.04,0.07,0.95,
2.561,-0.61,0.08,-0.26,-0.04,0.06,0.95,
2.572,-0.61,0.08,-0.26,-0.03,0.06,0.95,
2.573,-0.56,0.06,-0.30,-0.03,0.06,0.95,
2.573,-0.56,0.06,-0.30,-0.03,0.06,0.95,
2.573,-0.56,0.06,-0.30,-0.03,0.06,0.95,
2.573,-0.49,0.01,-0.29,-0.03,0.06,0.95,
2.574,-0.49,0.01,-0.29,-0.03,0.06,0.95,
2.576,-0.49,0.01,-0.29,-0.02,0.05,0.95,
2.576,-0.44,-0.01,-0.30,-0.02,0.05,0.95,
2.576,-0.44,-0.01,-0.30,-0.02,0.05,0.95,
2.578,-0.44,-0.01,-0.30,-0.02,0.05,0.95,
2.578,-0.39,-0.05,-0.29,-0.02,0.05,0.95,
2.58,-0.39,-0.05,-0.29,-0.02,0.05,0.96,
2.583,-0.39,-0.05,-0.29,-0.02,0.05,0.96,
2.583,-0.34,-0.08,-0.27,-0.02,0.05,0.96,
2.586,-0.34,-0.08,-0.27,-0.01,0.05,0.96,
2.588,-0.34,-0.08,-0.27,-0.01,0.05,0.96,
2.589,-0.29,-0.09,-0.25,-0.01,0.05,0.96,
2.591,-0.29,-0.09,-0.25,-0.01,0.05,0.96,
2.593,-0.29,-0.09,-0.25,-0.01,0.05,0.96,
2.593,-0.25,-0.08,-0.23,-0.01,0.05,0.96,
2.595,-0.25,-0.08,-0.23,-0.01,0.05,0.96,
2.598,-0.25,-0.08,-0.23,-0.01,0.05,0.96,
2.598,-0.23,-0.07,-0.20,-0.01,0.05,0.96,
2.6,-0.23,-0.07,-0.20,-0.01,0.06,0.96,
2.603,-0.23,-0.07,-0.20,-0.01,0.06,0.97,
2.603,-0.20,-0.06,-0.18,-0.01,0.06,0.97,
2.606,-0.20,-0.06,-0.18,-0.01,0.06,0.97,
2.608,-0.20,-0.06,-0.18,-0.01,0.06,0.97,
2.611,-0.18,-0.03,-0.15,-0.01,0.06,0.97,
2.611,-0.18,-0.03,-0.15,-0.01,0.06,0.97,
2.612,-0.18,-0.03,-0.15,-0.01,0.07,0.97,
2.613,-0.19,0.02,-0.13,-0.01,0.07,0.97,
2.615,-0.19,0.02,-0.13,-0.01,0.07,0.97,
2.617,-0.19,0.02,-0.13,-0.02,0.06,0.97,
2.617,-0.21,0.04,-0.12,-0.02,0.06,0.97,
2.62,-0.21,0.04,-0.12,-0.02,0.07,0.97,
2.622,-0.21,0.04,-0.12,-0.02,0.07,0.97,
2.622,-0.25,0.04,-0.11,-0.02,0.07,0.97,
2.625,-0.25,0.04,-0.11,-0.02,0.07,0.97,
2.627,-0.25,0.04,-0.11,-0.02,0.07,0.97,
2.627,-0.27,0.06,-0.09,-0.02,0.07,0.97,
2.629,-0.27,0.06,-0.09,-0.02,0.07,0.97,
2.632,-0.27,0.06,-0.09,-0.02,0.07,0.97,
2.632,-0.26,0.08,-0.10,-0.02,0.07,0.97,
2.635,-0.26,0.08,-0.10,-0.02,0.07,0.97,
2.637,-0.26,0.08,-0.10,-0.02,0.07,0.97,
2.643,-0.26,0.10,-0.11,-0.02,0.07,0.97,
2.644,-0.26,0.10,-0.11,-0.02,0.07,0.97,
2.644,-0.26,0.10,-0.11,-0.01,0.07,0.97,
2.644,-0.26,0.11,-0.11,-0.01,0.07,0.97,
2.646,-0.26,0.11,-0.11,-0.01,0.07,0.97,
2.647,-0.26,0.11,-0.11,-0.01,0.07,0.97,
2.647,-0.22,0.09,-0.10,-0.01,0.07,0.97,
2.649,-0.22,0.09,-0.10,-0.01,0.07,0.97,
2.651,-0.22,0.09,-0.10,-0.01,0.06,0.97,
2.652,-0.17,0.08,-0.11,-0.01,0.06,0.97,
2.654,-0.17,0.08,-0.11,-0.00,0.06,0.97,
2.656,-0.17,0.08,-0.11,-0.00,0.06,0.98,
2.656,-0.14,0.05,-0.09,-0.00,0.06,0.98,
2.659,-0.14,0.05,-0.09,-0.00,0.06,0.98,
2.661,-0.14,0.05,-0.09,-0.00,0.06,0.98,
2.661,-0.10,0.02,-0.05,-0.00,0.06,0.98,
2.664,-0.10,0.02,-0.05,-0.00,0.06,0.98,
2.666,-0.10,0.02,-0.05,-0.00,0.06,0.98,
2.666,-0.09,-0.01,-0.02,-0.00,0.06,0.98,
2.669,-0.09,-0.01,-0.02,0.00,0.06,0.99,
2.672,-0.09,-0.01,-0.02,0.00,0.06,0.99,
2.672,-0.06,-0.01,0.01,0.00,0.06,0.99,
2.674,-0.06,-0.01,0.01,0.00,0.06,0.99,
2.676,-0.06,-0.01,0.01,0.00,0.06,0.99,
2.677,-0.04,-0.02,0.06,0.00,0.06,0.99,
2.679,-0.04,-0.02,0.06,0.00,0.06,0.99,
2.681,-0.04,-0.02,0.06,0.00,0.06,1.00,
2.681,-0.03,0.02,0.09,0.00,0.06,1.00,
2.683,-0.03,0.02,0.09,-0.00,0.06,1.00,
2.686,-0.03,0.02,0.09,0.00,0.06,1.00,
2.686,-0.03,0.03,0.15,0.00,0.06,1.00,
2.688,-0.03,0.03,0.15,-0.00,0.06,1.00,
2.691,-0.03,0.03,0.15,-0.00,0.06,1.00,
2.691,-0.03,0.05,0.18,-0.00,0.06,1.00,
2.694,-0.03,0.05,0.18,-0.00,0.06,1.00,
2.695,-0.03,0.05,0.18,-0.00,0.07,1.00,
2.696,-0.04,0.04,0.20,-0.00,0.07,1.00,
2.698,-0.04,0.04,0.20,-0.01,0.07,1.00,
2.701,-0.06,0.05,0.21,-0.01,0.07,1.00,
2.701,-0.06,0.05,0.21,-0.01,0.07,1.00,
2.703,-0.06,0.05,0.21,-0.01,0.07,1.00,
2.706,-0.06,0.05,0.21,-0.01,0.07,0.99,
2.706,-0.10,0.07,0.19,-0.01,0.07,0.99,
2.708,-0.10,0.07,0.19,-0.01,0.07,0.99,
2.711,-0.10,0.07,0.19,-0.00,0.07,0.99,
2.711,-0.08,0.10,0.14,-0.00,0.07,0.99,
2.713,-0.08,0.10,0.14,-0.00,0.07,0.99,
2.715,-0.08,0.10,0.14,-0.00,0.07,0.99,
2.715,-0.07,0.09,0.11,-0.00,0.07,0.99,
2.717,-0.07,0.09,0.11,0.00,0.07,0.98,
2.72,-0.07,0.09,0.11,0.01,0.07,0.98,
2.72,-0.03,0.10,0.06,0.01,0.07,0.98,
2.726,-0.03,0.10,0.06,0.01,0.07,0.98,
2.727,-0.03,0.10,0.06,0.01,0.07,0.98,
2.727,0.03,0.09,0.02,0.01,0.07,0.98,
2.728,0.03,0.09,0.02,0.01,0.07,0.98,
2.73,0.03,0.09,0.02,0.01,0.07,0.97,
2.73,0.06,0.09,-0.02,0.01,0.07,0.97,
2.732,0.06,0.09,-0.02,0.02,0.07,0.97,
2.735,0.06,0.09,-0.02,0.02,0.07,0.97,
2.735,0.12,0.07,-0.05,0.02,0.07,0.97,
2.737,0.12,0.07,-0.05,0.02,0.07,0.97,
2.74,0.12,0.07,-0.05,0.02,0.07,0.98,
2.74,0.16,0.06,-0.07,0.02,0.07,0.98,
2.742,0.16,0.06,-0.07,0.02,0.07,0.98,
2.745,0.16,0.06,-0.07,0.02,0.07,0.98,
2.745,0.17,0.07,-0.06,0.02,0.07,0.98,
2.747,0.17,0.07,-0.06,0.02,0.07,0.98,
2.749,0.17,0.07,-0.06,0.02,0.07,0.98,
2.75,0.21,0.08,-0.03,0.02,0.07,0.98,
2.752,0.21,0.08,-0.03,0.02,0.07,0.98,
2.755,0.21,0.08,-0.03,0.02,0.07,0.98,
2.755,0.22,0.05,0.01,0.02,0.07,0.98,
2.757,0.22,0.05,0.01,0.02,0.07,0.99,
2.759,0.22,0.05,0.01,0.02,0.07,0.99,
2.76,0.23,0.03,0.03,0.02,0.07,0.99,
2.762,0.23,0.03,0.03,0.02,0.07,0.99,
2.764,0.23,0.03,0.03,0.02,0.07,0.99,
2.764,0.24,0.03,0.06,0.02,0.07,0.99,
2.767,0.24,0.03,0.06,0.02,0.07,0.99,
2.769,0.24,0.03,0.06,0.02,0.07,0.99,
2.769,0.23,0.07,0.07,0.02,0.07,0.99,
2.772,0.23,0.07,0.07,0.02,0.08,0.99,
2.774,0.23,0.07,0.07,0.02,0.08,0.99,
2.774,0.24,0.07,0.08,0.02,0.08,0.99,
2.777,0.24,0.07,0.08,0.02,0.07,0.99,
2.779,0.22,0.09,0.10,0.02,0.07,0.99,
2.78,0.22,0.09,0.10,0.02,0.07,0.99,
2.781,0.22,0.09,0.10,0.02,0.08,0.99,
2.784,0.22,0.09,0.10,0.01,0.08,0.99,
2.784,0.21,0.07,0.12,0.01,0.08,0.99,
2.786,0.21,0.07,0.12,0.01,0.08,0.99,
2.789,0.21,0.07,0.12,0.02,0.08,0.99,
2.789,0.19,0.10,0.12,0.02,0.08,0.99,
2.791,0.19,0.10,0.12,0.01,0.08,0.99,
2.794,0.19,0.10,0.12,0.01,0.08,0.99,
2.794,0.18,0.10,0.11,0.01,0.08,0.99,
2.796,0.18,0.10,0.11,0.01,0.08,0.99,
2.798,0.18,0.10,0.11,0.01,0.08,0.99,
2.798,0.17,0.12,0.09,0.01,0.08,0.99,
2.801,0.17,0.12,0.09,0.01,0.08,0.99,
2.803,0.17,0.12,0.09,0.01,0.08,0.99,
2.803,0.16,0.13,0.08,0.01,0.08,0.99,
2.805,0.16,0.13,0.08,0.01,0.08,0.99,
2.808,0.16,0.13,0.08,0.01,0.08,0.99,
2.808,0.16,0.13,0.07,0.01,0.08,0.99,
2.811,0.16,0.13,0.07,0.01,0.08,0.99,
2.813,0.16,0.13,0.07,0.01,0.08,0.99,
2.813,0.15,0.14,0.06,0.01,0.08,0.99,
2.815,0.15,0.14,0.06,0.01,0.08,0.99,
2.818,0.15,0.14,0.06,0.01,0.08,0.99,
2.818,0.17,0.14,0.06,0.01,0.08,0.99,
2.825,0.17,0.14,0.06,0.01,0.09,0.99,
2.825,0.17,0.14,0.06,0.01,0.09,0.99,
2.825,0.14,0.15,0.07,0.01,0.09,0.99,
2.825,0.14,0.15,0.07,0.01,0.09,0.99,
2.828,0.14,0.15,0.07,0.01,0.09,0.99,
2.828,0.15,0.19,0.06,0.01,0.09,0.99,
2.83,0.15,0.19,0.06,0.02,0.09,0.99,
2.833,0.16,0.22,0.06,0.02,0.09,0.99,
2.833,0.16,0.22,0.06,0.01,0.09,0.99,
2.835,0.16,0.22,0.06,0.01,0.09,0.99,
2.837,0.16,0.22,0.06,0.01,0.09,0.99,
2.837,0.16,0.23,0.06,0.01,0.09,0.99,
2.84,0.16,0.23,0.06,0.01,0.09,0.99,
2.842,0.16,0.23,0.06,0.01,0.09,0.93,
2.842,0.15,0.23,0.07,0.01,0.09,0.93,
2.845,0.15,0.23,0.07,-0.01,0.09,0.82,
2.847,0.15,0.23,0.07,-0.00,0.11,0.78,
2.848,0.10,0.22,-0.20,-0.00,0.11,0.78,
2.85,0.10,0.22,-0.20,0.01,0.11,0.83,
2.852,0.10,0.22,-0.20,0.02,0.11,0.89,
2.853,-0.03,0.30,-1.75,0.02,0.11,0.89,
2.855,-0.03,0.30,-1.75,0.02,0.11,0.93,
2.857,-0.03,0.30,-1.75,0.01,0.10,0.95,
2.857,0.20,0.44,-1.15,0.01,0.10,0.95,
2.86,0.20,0.44,-1.15,0.01,0.09,0.96,
2.862,0.20,0.44,-1.15,0.01,0.09,0.96,
2.862,0.19,0.38,-0.33,0.01,0.09,0.96,
2.864,0.19,0.38,-0.33,0.01,0.08,0.96,
2.867,0.19,0.38,-0.33,0.01,0.08,0.96,
2.867,0.15,0.23,-0.20,0.01,0.08,0.96,
2.869,0.15,0.23,-0.20,0.02,0.07,0.97,
2.872,0.15,0.23,-0.20,0.01,0.07,0.99,
2.872,0.20,0.12,-0.21,0.01,0.07,0.99,
2.874,0.20,0.12,-0.21,0.01,0.07,1.01,
2.877,0.20,0.12,-0.21,0.01,0.06,1.02,
2.877,0.22,0.07,0.04,0.01,0.06,1.02,
2.879,0.22,0.07,0.04,0.00,0.06,1.03,
2.882,0.22,0.07,0.04,-0.00,0.06,1.04,
2.882,0.15,-0.01,0.35,-0.00,0.06,1.04,
2.884,0.15,-0.01,0.35,0.00,0.05,1.06,
2.886,0.15,-0.01,0.35,0.00,0.05,1.07,
2.887,0.10,-0.06,0.59,0.00,0.05,1.07,
2.889,0.10,-0.06,0.59,-0.00,0.05,1.08,
2.891,0.10,-0.06,0.59,-0.00,0.05,1.08,
2.892,0.10,-0.09,0.81,-0.00,0.05,1.08,
2.894,0.10,-0.09,0.81,-0.01,0.05,1.09,
2.896,0.10,-0.09,0.81,-0.01,0.05,1.09,
2.896,0.06,-0.09,0.97,-0.01,0.05,1.09,
2.899,0.06,-0.09,0.97,-0.01,0.05,1.09,
2.901,0.06,-0.09,0.97,-0.01,0.06,1.09,
2.901,0.01,-0.11,1.04,-0.01,0.06,1.09,
2.904,0.01,-0.11,1.04,-0.01,0.06,1.08,
2.906,0.01,-0.11,1.04,-0.01,0.06,1.07,
2.906,0.00,-0.08,1.03,-0.01,0.06,1.07,
2.909,0.00,-0.08,1.03,-0.00,0.07,1.06,
2.911,0.00,-0.08,1.03,-0.00,0.07,1.06,
2.911,0.01,-0.03,0.93,-0.00,0.07,1.06,
2.913,0.01,-0.03,0.93,-0.00,0.07,1.05,
2.916,0.01,-0.03,0.93,-0.00,0.08,1.04,
2.916,0.04,0.03,0.74,-0.00,0.08,1.04,
2.918,0.04,0.03,0.74,0.00,0.08,1.03,
2.921,0.04,0.03,0.74,0.00,0.08,1.02,
2.922,0.06,0.07,0.56,0.00,0.08,1.02,
