
time,ax,ay,az,gFx,gFy,gFz,
0.002,0.04,0.03,0.01,-0.03,0.09,0.98,
0.002,0.03,0.04,-0.00,-0.03,0.09,0.98,
0.002,0.03,0.04,-0.00,-0.03,0.09,0.98,
0.003,0.03,0.04,-0.00,-0.03,0.09,0.98,
0.003,-0.00,0.03,-0.01,-0.03,0.09,0.98,
0.005,-0.00,0.03,-0.01,-0.03,0.09,0.98,
0.009,-0.00,0.03,-0.01,-0.03,0.09,0.98,
0.009,-0.02,0.03,-0.01,-0.03,0.09,0.98,
0.01,-0.02,0.03,-0.01,-0.03,0.09,0.98,
0.014,-0.02,0.03,-0.01,-0.03,0.09,0.99,
0.014,-0.03,0.03,0.01,-0.03,0.09,0.99,
0.015,-0.03,0.03,0.01,-0.03,0.09,0.99,
0.017,-0.03,0.03,0.01,-0.03,0.09,0.99,
0.017,-0.05,0.02,0.04,-0.03,0.09,0.99,
0.02,-0.05,0.02,0.04,-0.03,0.09,0.99,
0.022,-0.05,0.02,0.04,-0.02,0.09,0.99,
0.022,-0.02,0.01,0.07,-0.02,0.09,0.99,
0.026,-0.02,0.01,0.07,-0.02,0.09,0.99,
0.027,-0.02,0.01,0.07,-0.02,0.09,0.99,
0.027,0.00,-0.00,0.10,-0.02,0.09,0.99,
0.029,0.00,-0.00,0.10,-0.02,0.09,0.99,
0.034,0.00,-0.00,0.10,-0.02,0.08,1.00,
0.034,0.02,-0.02,0.12,-0.02,0.08,1.00,
0.035,0.02,-0.02,0.12,-0.02,0.09,1.00,
0.037,0.02,-0.02,0.12,-0.02,0.09,1.00,
0.037,0.04,-0.03,0.15,-0.02,0.09,1.00,
0.039,0.04,-0.03,0.15,-0.02,0.09,0.99,
0.042,0.04,-0.03,0.15,-0.02,0.09,0.99,
0.043,0.05,-0.02,0.16,-0.02,0.09,0.99,
0.044,0.05,-0.02,0.16,-0.02,0.09,0.99,
0.047,0.05,-0.02,0.16,-0.01,0.09,0.99,
0.047,0.05,-0.02,0.13,-0.01,0.09,0.99,
0.049,0.05,-0.02,0.13,-0.01,0.09,0.99,
0.053,0.05,-0.02,0.13,-0.01,0.09,0.98,
0.053,0.09,-0.02,0.08,-0.01,0.09,0.98,
0.054,0.09,-0.02,0.08,-0.01,0.09,0.98,
0.057,0.09,-0.02,0.08,-0.01,0.09,0.98,
0.057,0.14,-0.03,0.04,-0.01,0.09,0.98,
0.059,0.14,-0.03,0.04,-0.02,0.09,0.98,
0.062,0.14,-0.03,0.04,-0.02,0.09,0.98,
0.062,0.12,-0.04,-0.00,-0.02,0.09,0.98,
0.064,0.12,-0.04,-0.00,-0.02,0.09,0.98,
0.067,0.12,-0.04,-0.00,-0.02,0.09,0.98,
0.067,0.06,-0.05,-0.03,-0.02,0.09,0.98,
0.069,0.06,-0.05,-0.03,-0.03,0.09,0.97,
0.071,0.06,-0.05,-0.03,-0.03,0.09,0.97,
0.071,0.02,-0.05,-0.04,-0.03,0.09,0.97,
0.074,0.02,-0.05,-0.04,-0.03,0.09,0.97,
0.077,-0.00,-0.05,-0.06,-0.03,0.09,0.97,
0.077,-0.00,-0.05,-0.06,-0.03,0.09,0.97,
0.079,-0.00,-0.05,-0.06,-0.03,0.10,0.97,
0.081,-0.00,-0.05,-0.06,-0.03,0.10,0.97,
0.081,-0.01,-0.00,-0.09,-0.03,0.10,0.97,
0.083,-0.01,-0.00,-0.09,-0.03,0.10,0.97,
0.086,-0.01,-0.00,-0.09,-0.03,0.10,0.97,
0.086,-0.00,0.04,-0.11,-0.03,0.10,0.97,
0.089,-0.00,0.04,-0.11,-0.03,0.10,0.96,
0.091,-0.00,0.04,-0.11,-0.03,0.10,0.96,
0.094,0.00,0.05,-0.14,-0.03,0.10,0.96,
0.094,0.00,0.05,-0.14,-0.03,0.10,0.96,
0.096,-0.02,0.05,-0.16,-0.03,0.10,0.96,
0.096,-0.02,0.05,-0.16,-0.03,0.10,0.96,
0.098,-0.02,0.05,-0.16,-0.03,0.10,0.96,
0.101,-0.02,0.05,-0.16,-0.03,0.10,0.96,
0.101,-0.03,0.05,-0.15,-0.03,0.10,0.96,
0.103,-0.03,0.05,-0.15,-0.03,0.10,0.96,
0.105,-0.03,0.05,-0.15,-0.03,0.10,0.96,
0.106,-0.04,0.04,-0.17,-0.03,0.10,0.96,
0.108,-0.04,0.04,-0.17,-0.03,0.10,0.96,
0.11,-0.04,0.04,-0.17,-0.03,0.09,0.96,
0.111,-0.06,0.02,-0.20,-0.03,0.09,0.96,
0.113,-0.06,0.02,-0.20,-0.04,0.09,0.96,
0.115,-0.06,0.02,-0.20,-0.04,0.09,0.96,
0.115,-0.08,0.02,-0.20,-0.04,0.09,0.96,
0.117,-0.08,0.02,-0.20,-0.03,0.09,0.96,
0.12,-0.08,0.02,-0.20,-0.03,0.09,0.96,
0.12,-0.10,0.02,-0.21,-0.03,0.09,0.96,
0.123,-0.10,0.02,-0.21,-0.03,0.10,0.96,
0.125,-0.10,0.02,-0.21,-0.03,0.10,0.96,
0.126,-0.08,0.02,-0.20,-0.03,0.10,0.96,
0.128,-0.08,0.02,-0.20,-0.03,0.10,0.96,
0.131,-0.08,0.02,-0.20,-0.03,0.10,0.96,
0.131,-0.08,0.05,-0.18,-0.03,0.10,0.96,
0.134,-0.08,0.05,-0.18,-0.03,0.10,0.96,
0.135,-0.08,0.05,-0.18,-0.03,0.10,0.96,
0.135,-0.07,0.06,-0.18,-0.03,0.10,0.96,
0.137,-0.07,0.06,-0.18,-0.03,0.10,0.96,
0.14,-0.07,0.06,-0.18,-0.03,0.10,0.96,
0.14,-0.06,0.05,-0.18,-0.03,0.10,0.96,
0.142,-0.06,0.05,-0.18,-0.03,0.10,0.96,
0.145,-0.06,0.05,-0.18,-0.03,0.10,0.97,
0.146,-0.05,0.05,-0.16,-0.03,0.10,0.97,
0.147,-0.05,0.05,-0.16,-0.03,0.10,0.97,
0.15,-0.05,0.05,-0.16,-0.02,0.09,0.97,
0.15,-0.03,0.06,-0.13,-0.02,0.09,0.97,
0.153,-0.03,0.06,-0.13,-0.03,0.09,0.97,
0.154,-0.03,0.06,-0.13,-0.02,0.09,0.97,
0.155,-0.01,0.03,-0.11,-0.02,0.09,0.97,
0.157,-0.01,0.03,-0.11,-0.02,0.09,0.97,
0.16,-0.01,0.03,-0.11,-0.02,0.09,0.97,
0.16,-0.01,0.02,-0.10,-0.02,0.09,0.97,
0.162,-0.01,0.02,-0.10,-0.02,0.09,0.97,
0.164,-0.01,0.02,-0.10,-0.02,0.09,0.97,
0.165,0.00,0.01,-0.09,-0.02,0.09,0.97,
0.167,0.00,0.01,-0.09,-0.02,0.09,0.97,
0.169,0.00,0.01,-0.09,-0.02,0.09,0.97,
0.169,0.01,-0.00,-0.08,-0.02,0.09,0.97,
0.173,0.01,-0.00,-0.08,-0.02,0.09,0.97,
0.175,0.01,-0.00,-0.08,-0.02,0.09,0.97,
0.175,-0.00,-0.01,-0.07,-0.02,0.09,0.97,
0.176,-0.00,-0.01,-0.07,-0.02,0.09,0.97,
0.179,-0.00,-0.01,-0.07,-0.02,0.09,0.97,
0.179,0.00,-0.01,-0.07,-0.02,0.09,0.97,
0.181,0.00,-0.01,-0.07,-0.02,0.08,0.97,
0.184,0.00,-0.01,-0.07,-0.02,0.09,0.97,
0.184,0.00,-0.03,-0.06,-0.02,0.09,0.97,
0.186,0.00,-0.03,-0.06,-0.02,0.09,0.97,
0.189,0.00,-0.03,-0.06,-0.02,0.09,0.97,
0.189,0.01,-0.04,-0.07,-0.02,0.09,0.97,
0.191,0.01,-0.04,-0.07,-0.03,0.09,0.97,
0.194,0.01,-0.04,-0.07,-0.03,0.09,0.97,
0.194,0.01,-0.02,-0.06,-0.03,0.09,0.97,
0.196,0.01,-0.02,-0.06,-0.03,0.09,0.97,
0.199,0.01,-0.02,-0.06,-0.03,0.09,0.97,
0.199,-0.01,-0.03,-0.05,-0.03,0.09,0.97,
0.201,-0.01,-0.03,-0.05,-0.03,0.09,0.97,
0.204,-0.01,-0.03,-0.05,-0.03,0.09,0.97,
0.204,-0.04,-0.02,-0.04,-0.03,0.09,0.97,
0.206,-0.04,-0.02,-0.04,-0.03,0.09,0.98,
0.215,-0.04,-0.02,-0.04,-0.03,0.09,0.98,
0.215,-0.02,-0.01,-0.04,-0.03,0.09,0.98,
0.215,-0.02,-0.01,-0.04,-0.03,0.09,0.98,
0.216,-0.02,-0.01,-0.04,-0.02,0.09,0.97,
0.216,-0.01,-0.01,-0.02,-0.02,0.09,0.97,
0.216,-0.01,-0.01,-0.02,-0.02,0.09,0.98,
0.218,-0.01,-0.01,-0.02,-0.02,0.09,0.98,
0.218,0.00,0.02,-0.03,-0.02,0.09,0.98,
0.22,0.00,0.02,-0.03,-0.02,0.09,0.98,
0.223,0.00,0.02,-0.03,-0.02,0.09,0.98,
0.223,0.02,0.01,0.01,-0.02,0.09,0.98,
0.225,0.02,0.01,0.01,-0.02,0.09,0.98,
0.228,0.02,0.01,0.01,-0.02,0.09,0.98,
0.228,0.04,0.03,0.01,-0.02,0.09,0.98,
0.231,0.04,0.03,0.01,-0.02,0.09,0.98,
0.233,0.04,0.03,0.01,-0.02,0.09,0.98,
0.234,0.03,0.02,0.01,-0.02,0.09,0.98,
0.235,0.03,0.02,0.01,-0.02,0.09,0.98,
0.238,0.03,0.02,0.01,-0.02,0.09,0.98,
0.238,0.04,0.02,0.02,-0.02,0.09,0.98,
0.24,0.04,0.02,0.02,-0.02,0.09,0.98,
0.243,0.04,0.02,0.02,-0.02,0.09,0.98,
0.243,0.04,0.02,0.02,-0.02,0.09,0.98,
0.245,0.04,0.02,0.02,-0.02,0.09,0.98,
0.248,0.04,0.02,0.02,-0.03,0.09,0.98,
0.248,0.03,0.02,0.03,-0.03,0.09,0.98,
0.25,0.03,0.02,0.03,-0.02,0.09,0.98,
0.254,0.03,0.02,0.03,-0.03,0.09,0.98,
0.254,0.00,0.01,0.02,-0.03,0.09,0.98,
0.255,0.00,0.01,0.02,-0.02,0.09,0.98,
0.258,0.00,0.01,0.02,-0.02,0.08,0.98,
0.258,0.00,-0.01,0.04,-0.02,0.08,0.98,
0.26,0.00,-0.01,0.04,-0.02,0.08,0.98,
0.262,0.00,-0.01,0.04,-0.02,0.08,0.98,
0.263,0.01,-0.03,0.04,-0.02,0.08,0.98,
0.265,0.01,-0.03,0.04,-0.02,0.08,0.98,
0.267,0.01,-0.03,0.04,-0.02,0.08,0.98,
0.267,0.02,-0.05,0.03,-0.02,0.08,0.98,
0.269,0.02,-0.05,0.03,-0.02,0.08,0.98,
0.273,0.02,-0.05,0.03,-0.02,0.09,0.98,
0.274,0.04,-0.04,0.04,-0.02,0.09,0.98,
0.275,0.04,-0.04,0.04,-0.02,0.08,0.98,
0.277,0.04,-0.04,0.04,-0.02,0.08,0.98,
0.277,0.05,-0.02,0.04,-0.02,0.08,0.98,
0.279,0.05,-0.02,0.04,-0.02,0.08,0.98,
0.282,0.05,-0.02,0.04,-0.02,0.08,0.98,
0.282,0.07,-0.03,0.06,-0.02,0.08,0.98,
0.284,0.07,-0.03,0.06,-0.01,0.09,0.98,
0.287,0.07,-0.03,0.06,-0.01,0.09,0.98,
0.287,0.07,-0.02,0.05,-0.01,0.09,0.98,
0.289,0.07,-0.02,0.05,-0.01,0.08,0.98,
0.293,0.07,-0.02,0.05,-0.01,0.09,0.98,
0.293,0.11,-0.01,0.03,-0.01,0.09,0.98,
0.294,0.11,-0.01,0.03,-0.01,0.09,0.98,
0.297,0.11,-0.01,0.03,-0.01,0.09,0.98,
0.297,0.10,0.00,0.03,-0.01,0.09,0.98,
0.299,0.10,0.00,0.03,-0.01,0.09,0.98,
0.301,0.10,0.00,0.03,-0.01,0.09,0.98,
0.301,0.11,0.04,0.02,-0.01,0.09,0.98,
0.304,0.11,0.04,0.02,-0.01,0.09,0.98,
0.306,0.11,0.04,0.02,-0.01,0.09,0.98,
0.306,0.14,0.04,-0.00,-0.01,0.09,0.98,
0.316,0.14,0.04,-0.00,-0.01,0.09,0.98,
0.316,0.14,0.04,-0.00,-0.01,0.09,0.97,
0.316,0.14,0.04,-0.02,-0.01,0.09,0.97,
0.316,0.14,0.04,-0.02,-0.01,0.09,0.97,
0.317,0.14,0.04,-0.02,-0.01,0.09,0.97,
0.317,0.15,0.07,-0.03,-0.01,0.09,0.97,
0.318,0.15,0.07,-0.03,-0.01,0.10,0.98,
0.321,0.15,0.07,-0.03,-0.01,0.09,0.97,
0.321,0.15,0.09,-0.04,-0.01,0.09,0.97,
0.323,0.15,0.09,-0.04,-0.01,0.09,0.97,
0.326,0.15,0.09,-0.04,-0.01,0.09,0.97,
0.326,0.14,0.09,-0.04,-0.01,0.09,0.97,
0.328,0.14,0.09,-0.04,-0.02,0.09,0.98,
0.331,0.14,0.09,-0.04,-0.02,0.09,0.98,
0.331,0.11,0.08,-0.05,-0.02,0.09,0.98,
0.334,0.11,0.08,-0.05,-0.02,0.09,0.98,
0.336,0.11,0.08,-0.05,-0.02,0.09,0.98,
0.336,0.07,0.06,-0.02,-0.02,0.09,0.98,
0.338,0.07,0.06,-0.02,-0.02,0.09,0.98,
0.341,0.07,0.06,-0.02,-0.02,0.09,0.98,
0.341,0.06,0.02,0.01,-0.02,0.09,0.98,
0.343,0.06,0.02,0.01,-0.02,0.09,0.98,
0.345,0.06,0.02,0.01,-0.02,0.09,0.98,
0.346,0.06,0.04,0.04,-0.02,0.09,0.98,
0.348,0.06,0.04,0.04,-0.02,0.08,0.99,
0.351,0.06,0.04,0.04,-0.02,0.08,0.99,
0.351,0.06,0.01,0.05,-0.02,0.08,0.99,
0.353,0.06,0.01,0.05,-0.02,0.08,0.99,
0.355,0.06,0.01,0.05,-0.02,0.08,0.99,
0.356,0.06,-0.01,0.08,-0.02,0.08,0.99,
0.358,0.06,-0.01,0.08,-0.02,0.08,0.99,
0.36,0.06,-0.01,0.08,-0.01,0.08,0.99,
0.361,0.08,-0.02,0.11,-0.01,0.08,0.99,
0.363,0.08,-0.02,0.11,-0.01,0.08,1.00,
0.365,0.08,-0.02,0.11,-0.01,0.08,1.00,
0.365,0.10,-0.05,0.13,-0.01,0.08,1.00,
0.368,0.10,-0.05,0.13,-0.01,0.07,1.00,
0.37,0.10,-0.05,0.13,-0.01,0.07,1.00,
0.37,0.13,-0.05,0.16,-0.01,0.07,1.00,
0.375,0.13,-0.05,0.16,-0.01,0.07,1.00,
0.375,0.17,-0.08,0.17,-0.01,0.07,1.00,
0.375,0.17,-0.08,0.17,-0.00,0.07,1.00,
0.377,0.17,-0.08,0.17,0.00,0.07,1.00,
0.38,0.17,-0.08,0.17,0.00,0.07,1.00,
0.38,0.19,-0.08,0.18,0.00,0.07,1.00,
0.382,0.19,-0.08,0.18,0.00,0.07,1.00,
0.385,0.19,-0.08,0.18,0.00,0.07,0.99,
0.385,0.24,-0.09,0.19,0.00,0.07,0.99,
0.387,0.24,-0.09,0.19,0.01,0.07,0.99,
0.389,0.24,-0.09,0.19,0.01,0.07,0.99,
0.39,0.27,-0.11,0.15,0.01,0.07,0.99,
0.393,0.27,-0.11,0.15,0.01,0.07,0.99,
0.394,0.27,-0.11,0.15,0.01,0.06,0.99,
0.395,0.30,-0.13,0.14,0.01,0.06,0.99,
0.397,0.30,-0.13,0.14,0.01,0.06,0.99,
0.399,0.30,-0.13,0.14,0.02,0.06,0.99,
0.4,0.34,-0.17,0.10,0.02,0.06,0.99,
0.402,0.34,-0.17,0.10,0.02,0.06,0.98,
0.404,0.34,-0.17,0.10,0.02,0.06,0.98,
0.405,0.36,-0.17,0.07,0.02,0.06,0.98,
0.411,0.36,-0.17,0.07,0.02,0.06,0.98,
0.411,0.36,-0.17,0.07,0.02,0.06,0.98,
0.411,0.39,-0.18,0.03,0.02,0.06,0.98,
0.413,0.39,-0.18,0.03,0.02,0.06,0.97,
0.414,0.39,-0.18,0.03,0.02,0.06,0.97,
0.414,0.41,-0.19,-0.01,0.02,0.06,0.97,
0.416,0.41,-0.19,-0.01,0.02,0.06,0.97,
0.419,0.41,-0.19,-0.01,0.02,0.06,0.97,
0.42,0.42,-0.20,-0.05,0.02,0.06,0.97,
0.421,0.42,-0.20,-0.05,0.02,0.06,0.97,
0.424,0.42,-0.20,-0.05,0.03,0.06,0.97,
0.425,0.42,-0.19,-0.08,0.03,0.06,0.97,
0.426,0.42,-0.19,-0.08,0.03,0.06,0.97,
0.429,0.42,-0.19,-0.08,0.03,0.06,0.97,
0.429,0.43,-0.20,-0.10,0.03,0.06,0.97,
0.431,0.43,-0.20,-0.10,0.03,0.06,0.97,
0.434,0.43,-0.20,-0.10,0.03,0.06,0.97,
0.434,0.45,-0.21,-0.11,0.03,0.06,0.97,
0.436,0.45,-0.21,-0.11,0.03,0.06,0.97,
0.438,0.45,-0.21,-0.11,0.03,0.05,0.97,
0.439,0.45,-0.21,-0.11,0.03,0.05,0.97,
0.441,0.45,-0.21,-0.11,0.03,0.05,0.97,
0.444,0.45,-0.21,-0.11,0.03,0.05,0.97,
0.444,0.45,-0.22,-0.11,0.03,0.05,0.97,
0.446,0.45,-0.22,-0.11,0.03,0.05,0.97,
0.448,0.45,-0.22,-0.11,0.03,0.05,0.97,
0.449,0.46,-0.24,-0.07,0.03,0.05,0.97,
0.451,0.46,-0.24,-0.07,0.03,0.05,0.97,
0.454,0.46,-0.24,-0.07,0.03,0.05,0.97,
0.454,0.45,-0.24,-0.06,0.03,0.05,0.97,
0.455,0.45,-0.24,-0.06,0.03,0.05,0.98,
0.458,0.45,-0.24,-0.06,0.03,0.05,0.98,
0.459,0.45,-0.26,-0.06,0.03,0.05,0.98,
0.46,0.45,-0.26,-0.06,0.03,0.05,0.98,
0.463,0.45,-0.26,-0.06,0.03,0.04,0.98,
0.464,0.45,-0.28,-0.03,0.03,0.04,0.98,
0.465,0.45,-0.28,-0.03,0.03,0.04,0.98,
0.468,0.45,-0.28,-0.03,0.03,0.04,0.98,
0.468,0.44,-0.29,-0.00,0.03,0.04,0.98,
0.47,0.44,-0.29,-0.00,0.03,0.04,0.98,
0.474,0.44,-0.29,-0.00,0.04,0.04,0.99,
0.474,0.46,-0.30,0.02,0.04,0.04,0.99,
0.475,0.46,-0.30,0.02,0.04,0.04,0.99,
0.478,0.46,-0.30,0.02,0.04,0.05,0.99,
0.478,0.48,-0.28,0.06,0.04,0.05,0.99,
0.48,0.48,-0.28,0.06,0.04,0.05,0.99,
0.483,0.48,-0.28,0.06,0.04,0.05,0.99,
0.483,0.49,-0.27,0.08,0.04,0.05,0.99,
0.485,0.49,-0.27,0.08,0.04,0.04,0.99,
0.488,0.49,-0.27,0.08,0.04,0.05,0.99,
0.488,0.52,-0.25,0.09,0.04,0.05,0.99,
0.49,0.52,-0.25,0.09,0.04,0.05,0.99,
0.494,0.52,-0.25,0.09,0.04,0.05,0.99,
0.494,0.52,-0.25,0.11,0.04,0.05,0.99,
0.495,0.52,-0.25,0.11,0.04,0.05,0.99,
0.497,0.52,-0.25,0.11,0.04,0.05,0.99,
0.498,0.51,-0.24,0.13,0.04,0.05,0.99,
0.499,0.51,-0.24,0.13,0.04,0.05,0.99,
0.502,0.51,-0.24,0.13,0.04,0.05,1.00,
0.502,0.52,-0.22,0.14,0.04,0.05,1.00,
0.505,0.52,-0.22,0.14,0.04,0.05,1.00,
0.511,0.52,-0.22,0.14,0.03,0.05,1.00,
0.511,0.49,-0.22,0.14,0.03,0.05,1.00,
0.511,0.49,-0.22,0.14,0.03,0.05,1.00,
0.513,0.49,-0.22,0.14,0.03,0.04,1.00,
0.513,0.48,-0.23,0.15,0.03,0.04,1.00,
0.514,0.48,-0.23,0.15,0.03,0.04,0.99,
0.517,0.48,-0.23,0.15,0.03,0.04,0.99,
0.517,0.45,-0.23,0.14,0.03,0.04,0.99,
0.519,0.45,-0.23,0.14,0.03,0.04,0.99,
0.522,0.42,-0.25,0.12,0.03,0.04,0.99,
0.522,0.42,-0.25,0.12,0.03,0.04,0.99,
0.525,0.42,-0.25,0.12,0.03,0.04,0.99,
0.527,0.42,-0.25,0.12,0.03,0.04,0.99,
0.527,0.40,-0.26,0.11,0.03,0.04,0.99,
0.529,0.40,-0.26,0.11,0.03,0.04,0.99,
0.532,0.40,-0.26,0.11,0.03,0.03,0.98,
0.532,0.40,-0.28,0.09,0.03,0.03,0.98,
0.534,0.40,-0.28,0.09,0.03,0.03,0.98,
0.536,0.40,-0.28,0.09,0.02,0.03,0.98,
0.537,0.38,-0.30,0.04,0.02,0.03,0.98,
0.539,0.38,-0.30,0.04,0.02,0.03,0.98,
0.541,0.38,-0.30,0.04,0.02,0.03,0.98,
0.542,0.34,-0.31,0.00,0.02,0.03,0.98,
0.544,0.34,-0.31,0.00,0.02,0.03,0.98,
0.546,0.34,-0.31,0.00,0.02,0.03,0.98,
0.547,0.31,-0.31,-0.03,0.02,0.03,0.98,
0.549,0.31,-0.31,-0.03,0.02,0.03,0.98,
0.551,0.31,-0.31,-0.03,0.02,0.03,0.98,
0.551,0.30,-0.31,-0.04,0.02,0.03,0.98,
0.553,0.30,-0.31,-0.04,0.02,0.03,0.98,
0.558,0.30,-0.31,-0.04,0.02,0.03,0.98,
0.559,0.29,-0.32,-0.04,0.02,0.03,0.98,
0.559,0.29,-0.32,-0.04,0.02,0.03,0.98,
0.561,0.29,-0.32,-0.04,0.02,0.03,0.98,
0.562,0.30,-0.31,-0.04,0.02,0.03,0.98,
0.563,0.30,-0.31,-0.04,0.03,0.03,0.98,
0.566,0.30,-0.31,-0.04,0.03,0.04,0.99,
0.566,0.30,-0.28,-0.02,0.03,0.04,0.99,
0.568,0.30,-0.28,-0.02,0.02,0.04,0.99,
0.571,0.32,-0.24,0.02,0.02,0.04,0.99,
0.572,0.32,-0.24,0.02,0.02,0.04,0.99,
0.576,0.32,-0.24,0.02,0.02,0.04,0.99,
0.577,0.32,-0.24,0.02,0.02,0.04,1.00,
0.577,0.31,-0.21,0.08,0.02,0.04,1.00,
0.578,0.31,-0.21,0.08,0.02,0.04,1.00,
0.581,0.31,-0.21,0.08,0.02,0.04,1.00,
0.581,0.31,-0.19,0.14,0.02,0.04,1.00,
0.583,0.31,-0.19,0.14,0.02,0.04,1.01,
0.586,0.31,-0.19,0.14,0.02,0.04,1.01,
0.586,0.31,-0.16,0.20,0.02,0.04,1.01,
0.588,0.31,-0.16,0.20,0.02,0.04,1.01,
0.592,0.31,-0.16,0.20,0.02,0.04,1.02,
0.593,0.29,-0.14,0.27,0.02,0.04,1.02,
0.594,0.29,-0.14,0.27,0.02,0.04,1.02,
0.596,0.29,-0.14,0.27,0.02,0.04,1.02,
0.601,0.26,-0.13,0.32,0.02,0.04,1.02,
0.601,0.26,-0.13,0.32,0.02,0.04,1.03,
0.602,0.26,-0.13,0.32,0.01,0.04,1.03,
0.602,0.24,-0.12,0.37,0.01,0.04,1.03,
0.603,0.24,-0.12,0.37,0.01,0.04,1.03,
0.605,0.24,-0.12,0.37,0.01,0.03,1.03,
0.606,0.22,-0.15,0.42,0.01,0.03,1.03,
0.617,0.22,-0.15,0.42,0.01,0.03,1.03,
0.618,0.22,-0.15,0.42,0.01,0.03,1.03,
0.618,0.16,-0.15,0.43,0.01,0.03,1.03,
0.618,0.16,-0.15,0.43,0.00,0.03,1.03,
0.618,0.16,-0.15,0.43,0.00,0.03,1.03,
0.618,0.12,-0.16,0.46,0.00,0.03,1.03,
0.619,0.12,-0.16,0.46,-0.00,0.03,1.03,
0.62,0.12,-0.16,0.46,-0.00,0.03,1.03,
0.62,0.09,-0.18,0.46,-0.00,0.03,1.03,
0.622,0.09,-0.18,0.46,-0.00,0.03,1.03,
0.628,0.09,-0.18,0.46,-0.00,0.04,1.03,
0.628,0.05,-0.15,0.45,-0.00,0.04,1.03,
0.628,0.05,-0.15,0.45,-0.00,0.04,1.03,
0.63,0.05,-0.15,0.45,0.00,0.04,1.03,
0.63,0.04,-0.11,0.44,0.00,0.04,1.03,
0.633,0.04,-0.11,0.44,0.00,0.04,1.02,
0.634,0.04,-0.11,0.44,0.00,0.04,1.02,
0.634,0.05,-0.06,0.40,0.00,0.04,1.02,
0.636,0.05,-0.06,0.40,0.00,0.04,1.02,
0.639,0.05,-0.06,0.40,0.00,0.04,1.02,
0.64,0.04,-0.04,0.35,0.00,0.04,1.02,
0.642,0.04,-0.04,0.35,0.00,0.04,1.02,
0.644,0.04,-0.04,0.35,0.01,0.04,1.01,
0.644,0.04,-0.01,0.30,0.01,0.04,1.01,
0.646,0.04,-0.01,0.30,0.01,0.04,1.01,
0.649,0.04,-0.01,0.30,0.01,0.04,1.01,
0.649,0.06,-0.01,0.28,0.01,0.04,1.01,
0.651,0.06,-0.01,0.28,0.01,0.04,1.01,
0.654,0.06,-0.01,0.28,0.01,0.04,1.01,
0.654,0.06,0.01,0.24,0.01,0.04,1.01,
0.656,0.06,0.01,0.24,0.01,0.04,1.01,
0.659,0.06,0.01,0.24,0.01,0.04,1.01,
0.659,0.06,-0.01,0.24,0.01,0.04,1.01,
0.661,0.06,-0.01,0.24,0.01,0.04,1.00,
0.664,0.06,-0.01,0.24,0.01,0.04,1.00,
0.664,0.06,-0.02,0.20,0.01,0.04,1.00,
0.666,0.06,-0.02,0.20,0.01,0.04,1.00,
0.669,0.05,-0.04,0.15,0.01,0.04,1.00,
0.669,0.05,-0.04,0.15,0.01,0.04,1.00,
0.671,0.05,-0.04,0.15,0.01,0.04,1.00,
0.674,0.05,-0.04,0.15,0.01,0.04,1.00,
0.674,0.05,-0.03,0.15,0.01,0.04,1.00,
0.676,0.05,-0.03,0.15,0.01,0.04,1.00,
0.679,0.03,-0.04,0.14,0.01,0.04,1.00,
0.679,0.03,-0.04,0.14,0.01,0.04,1.00,
0.681,0.03,-0.04,0.14,0.00,0.04,1.00,
0.683,0.03,-0.04,0.14,0.00,0.04,1.00,
0.684,0.02,-0.02,0.13,0.00,0.04,1.00,
0.686,0.02,-0.02,0.13,0.00,0.04,1.00,
0.688,0.02,-0.02,0.13,0.00,0.04,1.00,
0.689,-0.02,-0.01,0.15,0.00,0.04,1.00,
0.696,-0.02,-0.01,0.15,0.00,0.03,1.00,
0.696,-0.02,-0.01,0.15,-0.00,0.03,1.00,
0.697,-0.02,-0.02,0.15,-0.00,0.03,1.00,
0.697,-0.02,-0.02,0.15,-0.00,0.03,1.00,
0.698,-0.02,-0.02,0.15,-0.00,0.02,1.00,
0.698,-0.08,-0.07,0.14,-0.00,0.02,1.00,
0.7,-0.08,-0.07,0.14,-0.00,0.02,1.00,
0.703,-0.08,-0.07,0.14,-0.00,0.02,1.01,
0.703,-0.10,-0.13,0.15,-0.00,0.02,1.01,
0.705,-0.10,-0.13,0.15,-0.00,0.01,1.01,
0.708,-0.10,-0.13,0.15,-0.00,0.01,1.00,
0.708,-0.10,-0.18,0.16,-0.00,0.01,1.00,
0.711,-0.10,-0.18,0.16,-0.00,0.01,1.00,
0.714,-0.10,-0.18,0.16,-0.00,0.00,1.00,
0.714,-0.11,-0.26,0.16,-0.00,0.00,1.00,
0.715,-0.11,-0.26,0.16,-0.00,0.00,1.00,
0.718,-0.11,-0.26,0.16,-0.00,-0.00,1.00,
0.718,-0.12,-0.32,0.14,-0.00,-0.00,1.00,
0.72,-0.12,-0.32,0.14,0.00,-0.01,1.00,
0.723,-0.12,-0.32,0.14,0.00,-0.01,1.00,
0.723,-0.11,-0.38,0.11,0.00,-0.01,1.00,
0.725,-0.11,-0.38,0.11,0.01,-0.01,1.00,
0.728,-0.11,-0.38,0.11,0.00,-0.01,0.99,
0.728,-0.09,-0.44,0.09,0.00,-0.01,0.99,
0.73,-0.09,-0.44,0.09,0.01,-0.01,0.99,
0.733,-0.09,-0.44,0.09,0.01,-0.01,0.99,
0.734,-0.07,-0.45,0.06,0.01,-0.01,0.99,
0.734,-0.07,-0.45,0.06,0.01,-0.01,0.99,
0.737,-0.07,-0.45,0.06,0.02,-0.02,0.99,
0.737,-0.02,-0.48,0.03,0.02,-0.02,0.99,
0.74,-0.02,-0.48,0.03,0.02,-0.02,0.99,
0.742,-0.02,-0.48,0.03,0.02,-0.01,0.99,
0.743,0.02,-0.50,0.00,0.02,-0.01,0.99,
0.745,0.02,-0.50,0.00,0.02,-0.02,0.99,
0.747,0.02,-0.50,0.00,0.02,-0.01,0.99,
0.747,0.06,-0.50,-0.01,0.02,-0.01,0.99,
0.749,0.06,-0.50,-0.01,0.02,-0.01,0.99,
0.753,0.06,-0.50,-0.01,0.02,-0.01,0.99,
0.753,0.06,-0.48,-0.02,0.02,-0.01,0.99,
0.754,0.06,-0.48,-0.02,0.02,-0.01,0.99,
0.758,0.06,-0.48,-0.02,0.02,-0.01,0.99,
0.76,0.06,-0.46,-0.01,0.02,-0.01,0.99,
0.765,0.06,-0.46,-0.01,0.02,-0.01,0.99,
0.766,0.06,-0.46,-0.01,0.02,-0.01,0.99,
0.767,0.06,-0.43,0.01,0.02,-0.01,0.99,
0.767,0.06,-0.43,0.01,0.01,-0.01,0.99,
0.768,0.06,-0.43,0.01,0.01,-0.01,0.99,
0.768,0.00,-0.41,0.04,0.01,-0.01,0.99,
0.769,0.00,-0.41,0.04,0.01,-0.01,0.99,
0.771,0.00,-0.41,0.04,0.01,-0.01,1.00,
0.772,-0.04,-0.41,0.05,0.01,-0.01,1.00,
0.774,-0.04,-0.41,0.05,0.00,-0.01,0.99,
0.776,-0.04,-0.41,0.05,-0.00,-0.01,1.00,
0.777,-0.11,-0.39,0.06,-0.00,-0.01,1.00,
0.779,-0.11,-0.39,0.06,-0.01,-0.01,0.99,
0.781,-0.11,-0.39,0.06,-0.01,-0.01,1.00,
0.781,-0.18,-0.40,0.05,-0.01,-0.01,1.00,
0.783,-0.18,-0.40,0.05,-0.01,-0.01,1.00,
0.786,-0.18,-0.40,0.05,-0.02,-0.01,1.00,
0.786,-0.27,-0.38,0.05,-0.02,-0.01,1.00,
0.788,-0.27,-0.38,0.05,-0.02,-0.01,0.99,
0.796,-0.27,-0.38,0.05,-0.03,-0.01,0.99,
0.796,-0.35,-0.37,0.07,-0.03,-0.01,0.99,
0.797,-0.35,-0.37,0.07,-0.03,-0.01,0.99,
0.797,-0.35,-0.37,0.07,-0.03,-0.01,0.99,
0.797,-0.44,-0.39,0.05,-0.03,-0.01,0.99,
0.798,-0.44,-0.39,0.05,-0.03,-0.01,0.99,
0.801,-0.44,-0.39,0.05,-0.04,-0.02,0.99,
0.801,-0.50,-0.39,0.03,-0.04,-0.02,0.99,
0.803,-0.50,-0.39,0.03,-0.04,-0.02,0.99,
0.811,-0.50,-0.39,0.03,-0.03,-0.02,0.98,
0.811,-0.55,-0.40,0.01,-0.03,-0.02,0.98,
0.811,-0.55,-0.40,0.01,-0.03,-0.02,0.98,
0.811,-0.55,-0.40,0.01,-0.03,-0.02,0.98,
0.811,-0.56,-0.43,-0.04,-0.03,-0.02,0.98,
0.814,-0.56,-0.43,-0.04,-0.03,-0.02,0.98,
0.816,-0.56,-0.43,-0.04,-0.03,-0.02,0.97,
0.816,-0.55,-0.44,-0.10,-0.03,-0.02,0.97,
0.818,-0.55,-0.44,-0.10,-0.02,-0.02,0.97,
0.82,-0.55,-0.44,-0.10,-0.02,-0.02,0.97,
0.82,-0.52,-0.43,-0.14,-0.02,-0.02,0.97,
0.823,-0.52,-0.43,-0.14,-0.02,-0.02,0.97,
0.825,-0.52,-0.43,-0.14,-0.02,-0.02,0.96,
0.826,-0.47,-0.43,-0.20,-0.02,-0.02,0.96,
0.828,-0.47,-0.43,-0.20,-0.02,-0.02,0.96,
0.831,-0.45,-0.42,-0.24,-0.02,-0.02,0.96,
0.831,-0.45,-0.42,-0.24,-0.01,-0.02,0.96,
0.834,-0.45,-0.42,-0.24,-0.01,-0.02,0.96,
0.835,-0.45,-0.42,-0.24,-0.01,-0.02,0.96,
0.835,-0.40,-0.41,-0.25,-0.01,-0.02,0.96,
0.837,-0.40,-0.41,-0.25,-0.00,-0.02,0.96,
0.84,-0.40,-0.41,-0.25,-0.00,-0.02,0.96,
0.841,-0.36,-0.38,-0.25,-0.00,-0.02,0.96,
0.843,-0.36,-0.38,-0.25,-0.00,-0.02,0.96,
0.845,-0.36,-0.38,-0.25,-0.00,-0.02,0.96,
0.846,-0.31,-0.36,-0.24,-0.00,-0.02,0.96,
0.847,-0.31,-0.36,-0.24,-0.00,-0.02,0.96,
0.85,-0.31,-0.36,-0.24,-0.00,-0.02,0.97,
0.85,-0.29,-0.35,-0.25,-0.00,-0.02,0.97,
0.853,-0.29,-0.35,-0.25,-0.00,-0.02,0.97,
0.855,-0.29,-0.35,-0.25,-0.00,-0.02,0.97,
0.855,-0.29,-0.36,-0.23,-0.00,-0.02,0.97,
0.857,-0.29,-0.36,-0.23,-0.01,-0.02,0.97,
0.86,-0.29,-0.36,-0.23,-0.01,-0.02,0.97,
0.86,-0.30,-0.35,-0.20,-0.01,-0.02,0.97,
0.862,-0.30,-0.35,-0.20,-0.01,-0.02,0.98,
0.865,-0.30,-0.35,-0.20,-0.01,-0.02,0.98,
0.865,-0.34,-0.33,-0.16,-0.01,-0.02,0.98,
0.867,-0.34,-0.33,-0.16,-0.01,-0.02,0.98,
0.869,-0.34,-0.33,-0.16,-0.01,-0.02,0.98,
0.87,-0.39,-0.30,-0.11,-0.01,-0.02,0.98,
0.873,-0.39,-0.30,-0.11,-0.02,-0.01,0.98,
0.875,-0.39,-0.30,-0.11,-0.02,-0.01,0.98,
0.875,-0.40,-0.27,-0.09,-0.02,-0.01,0.98,
0.877,-0.40,-0.27,-0.09,-0.02,-0.02,0.98,
0.879,-0.40,-0.27,-0.09,-0.02,-0.02,0.98,
0.88,-0.44,-0.25,-0.07,-0.02,-0.02,0.98,
0.882,-0.44,-0.25,-0.07,-0.03,-0.01,0.98,
0.884,-0.47,-0.24,-0.03,-0.03,-0.01,0.98,
0.884,-0.47,-0.24,-0.03,-0.03,-0.01,0.99,
0.889,-0.47,-0.24,-0.03,-0.03,-0.01,0.99,
0.889,-0.47,-0.24,-0.03,-0.03,-0.01,0.99,
0.889,-0.52,-0.19,-0.02,-0.03,-0.01,0.99,
0.897,-0.52,-0.19,-0.02,-0.03,-0.01,0.99,
0.898,-0.52,-0.19,-0.02,-0.04,-0.01,0.99,
0.898,-0.55,-0.19,0.00,-0.04,-0.01,0.99,
0.898,-0.55,-0.19,0.00,-0.04,-0.01,0.99,
0.899,-0.55,-0.19,0.00,-0.04,-0.01,0.98,
0.899,-0.61,-0.17,-0.01,-0.04,-0.01,0.98,
0.901,-0.61,-0.17,-0.01,-0.04,-0.01,0.98,
0.904,-0.61,-0.17,-0.01,-0.05,-0.01,0.98,
0.904,-0.68,-0.14,-0.02,-0.05,-0.01,0.98,
0.909,-0.68,-0.14,-0.02,-0.05,-0.01,0.98,
0.91,-0.68,-0.14,-0.02,-0.04,-0.01,0.98,
0.91,-0.72,-0.12,-0.02,-0.04,-0.01,0.98,
0.911,-0.72,-0.12,-0.02,-0.04,-0.00,0.98,
0.914,-0.72,-0.12,-0.02,-0.04,-0.00,0.98,
0.914,-0.72,-0.10,-0.05,-0.04,-0.00,0.98,
0.916,-0.72,-0.10,-0.05,-0.04,-0.00,0.98,
0.918,-0.72,-0.10,-0.05,-0.04,0.00,0.97,
0.918,-0.72,-0.06,-0.09,-0.04,0.00,0.97,
0.92,-0.72,-0.06,-0.09,-0.04,0.00,0.97,
0.924,-0.72,-0.06,-0.09,-0.04,0.00,0.97,
0.925,-0.71,-0.02,-0.10,-0.04,0.00,0.97,
0.925,-0.71,-0.02,-0.10,-0.04,0.00,0.97,
0.928,-0.71,-0.02,-0.10,-0.04,0.00,0.97,
0.929,-0.71,-0.00,-0.14,-0.04,0.00,0.97,
0.93,-0.71,-0.00,-0.14,-0.04,-0.00,0.97,
0.934,-0.71,-0.00,-0.14,-0.04,-0.00,0.97,
0.934,-0.69,-0.01,-0.18,-0.04,-0.00,0.97,
0.935,-0.69,-0.01,-0.18,-0.03,0.00,0.96,
0.938,-0.69,-0.01,-0.18,-0.03,0.00,0.96,
0.938,-0.66,-0.01,-0.20,-0.03,0.00,0.96,
0.94,-0.66,-0.01,-0.20,-0.03,0.00,0.96,
0.943,-0.66,-0.01,-0.20,-0.03,0.00,0.96,
0.943,-0.64,0.01,-0.22,-0.03,0.00,0.96,
0.945,-0.64,0.01,-0.22,-0.03,0.00,0.96,
0.948,-0.64,0.01,-0.22,-0.03,0.00,0.96,
0.948,-0.64,0.04,-0.22,-0.03,0.00,0.96,
0.95,-0.64,0.04,-0.22,-0.03,0.00,0.96,
0.954,-0.64,0.04,-0.22,-0.03,-0.00,0.96,
0.954,-0.62,0.04,-0.22,-0.03,-0.00,0.96,
0.955,-0.62,0.04,-0.22,-0.03,-0.00,0.96,
0.957,-0.62,0.04,-0.22,-0.03,-0.00,0.96,
0.958,-0.62,0.03,-0.21,-0.03,-0.00,0.96,
0.96,-0.62,0.03,-0.21,-0.03,-0.00,0.97,
0.962,-0.62,0.03,-0.21,-0.03,-0.01,0.97,
0.963,-0.61,-0.00,-0.21,-0.03,-0.01,0.97,
0.965,-0.61,-0.00,-0.21,-0.03,-0.01,0.97,
0.967,-0.61,-0.00,-0.21,-0.03,-0.01,0.97,
0.968,-0.61,-0.01,-0.17,-0.03,-0.01,0.97,
0.969,-0.61,-0.01,-0.17,-0.02,-0.01,0.97,
0.974,-0.61,-0.01,-0.17,-0.02,-0.01,0.97,
0.974,-0.59,-0.02,-0.16,-0.02,-0.01,0.97,
0.975,-0.59,-0.02,-0.16,-0.02,-0.02,0.97,
0.977,-0.59,-0.02,-0.16,-0.02,-0.02,0.97,
0.977,-0.57,-0.04,-0.13,-0.02,-0.02,0.97,
0.979,-0.57,-0.04,-0.13,-0.01,-0.02,0.98,
0.982,-0.57,-0.04,-0.13,-0.01,-0.03,0.98,
0.982,-0.52,-0.10,-0.10,-0.01,-0.03,0.98,
0.984,-0.52,-0.10,-0.10,-0.01,-0.03,0.98,
0.987,-0.52,-0.10,-0.10,-0.01,-0.03,0.98,
0.987,-0.49,-0.16,-0.08,-0.01,-0.03,0.98,
0.995,-0.49,-0.16,-0.08,-0.01,-0.04,0.98,
0.996,-0.49,-0.16,-0.08,-0.01,-0.04,0.98,
0.996,-0.47,-0.21,-0.05,-0.01,-0.04,0.98,
0.996,-0.47,-0.21,-0.05,-0.00,-0.04,0.98,
0.997,-0.47,-0.21,-0.05,-0.00,-0.04,0.99,
0.997,-0.42,-0.25,-0.00,-0.00,-0.04,0.99,
0.999,-0.42,-0.25,-0.00,-0.00,-0.04,0.99,
1.002,-0.42,-0.25,-0.00,-0.00,-0.04,0.99,
1.002,-0.39,-0.29,0.01,-0.00,-0.04,0.99,
1.004,-0.39,-0.29,0.01,-0.00,-0.04,0.99,
1.007,-0.39,-0.29,0.01,-0.00,-0.04,0.99,
1.007,-0.38,-0.29,0.02,-0.00,-0.04,0.99,
1.009,-0.38,-0.29,0.02,-0.00,-0.04,0.99,
1.011,-0.38,-0.29,0.02,-0.00,-0.04,0.99,
1.012,-0.36,-0.28,0.04,-0.00,-0.04,0.99,
1.014,-0.36,-0.28,0.04,-0.00,-0.03,0.99,
1.016,-0.36,-0.28,0.04,-0.00,-0.03,0.99,
1.016,-0.37,-0.24,0.08,-0.00,-0.03,0.99,
1.019,-0.37,-0.24,0.08,-0.00,-0.03,0.99,
1.021,-0.37,-0.24,0.08,-0.00,-0.02,0.99,
1.021,-0.38,-0.17,0.09,-0.00,-0.02,0.99,
1.024,-0.38,-0.17,0.09,-0.01,-0.02,0.99,
1.026,-0.38,-0.17,0.09,-0.01,-0.01,0.99,
1.026,-0.39,-0.10,0.08,-0.01,-0.01,0.99,
1.028,-0.39,-0.10,0.08,-0.01,-0.01,0.99,
1.031,-0.39,-0.10,0.08,-0.01,-0.01,0.99,
1.032,-0.43,-0.00,0.08,-0.01,-0.01,0.99,
1.034,-0.43,-0.00,0.08,-0.01,-0.00,0.99,
1.036,-0.43,-0.00,0.08,-0.02,0.00,0.99,
1.036,-0.48,0.08,0.07,-0.02,0.00,0.99,
1.039,-0.48,0.08,0.07,-0.02,0.01,0.99,
1.041,-0.48,0.08,0.07,-0.02,0.01,0.99,
1.041,-0.52,0.15,0.08,-0.02,0.01,0.99,
1.043,-0.52,0.15,0.08,-0.03,0.01,0.99,
1.046,-0.52,0.15,0.08,-0.03,0.01,0.99,
1.046,-0.58,0.23,0.07,-0.03,0.01,0.99,
1.048,-0.58,0.23,0.07,-0.03,0.01,0.99,
1.051,-0.58,0.23,0.07,-0.03,0.01,0.99,
1.051,-0.62,0.28,0.07,-0.03,0.01,0.99,
1.054,-0.62,0.28,0.07,-0.03,0.01,0.99,
1.056,-0.62,0.28,0.07,-0.03,0.01,0.99,
1.056,-0.65,0.28,0.04,-0.03,0.01,0.99,
1.058,-0.65,0.28,0.04,-0.03,0.01,0.98,
1.06,-0.65,0.28,0.04,-0.04,0.01,0.98,
1.061,-0.70,0.29,0.02,-0.04,0.01,0.98,
1.063,-0.70,0.29,0.02,-0.04,0.01,0.98,
1.065,-0.70,0.29,0.02,-0.04,0.01,0.97,
1.065,-0.72,0.29,-0.03,-0.04,0.01,0.97,
1.068,-0.72,0.29,-0.03,-0.04,0.01,0.97,
1.071,-0.72,0.29,-0.03,-0.04,0.00,0.97,
1.071,-0.77,0.25,-0.10,-0.04,0.00,0.97,
1.074,-0.77,0.25,-0.10,-0.04,-0.00,0.97,
1.076,-0.77,0.25,-0.10,-0.04,-0.00,0.97,
1.076,-0.77,0.22,-0.13,-0.04,-0.00,0.97,
1.077,-0.77,0.22,-0.13,-0.04,-0.01,0.97,
1.08,-0.77,0.22,-0.13,-0.03,-0.01,0.97,
1.08,-0.77,0.16,-0.16,-0.03,-0.01,0.97,
1.082,-0.77,0.16,-0.16,-0.03,-0.02,0.96,
1.085,-0.73,0.09,-0.18,-0.03,-0.02,0.96,
1.088,-0.73,0.09,-0.18,-0.03,-0.02,0.96,
1.088,-0.73,0.09,-0.18,-0.02,-0.02,0.96,
1.095,-0.73,0.09,-0.18,-0.02,-0.02,0.97,
1.096,-0.66,0.00,-0.20,-0.02,-0.02,0.97,
1.096,-0.66,0.00,-0.20,-0.01,-0.03,0.97,
1.096,-0.66,0.00,-0.20,-0.01,-0.03,0.97,
1.096,-0.57,-0.05,-0.18,-0.01,-0.03,0.97,
1.097,-0.57,-0.05,-0.18,-0.01,-0.03,0.97,
1.099,-0.57,-0.05,-0.18,-0.01,-0.03,0.98,
1.1,-0.51,-0.09,-0.14,-0.01,-0.03,0.98,
1.102,-0.51,-0.09,-0.14,-0.00,-0.03,0.98,
1.107,-0.51,-0.09,-0.14,0.00,-0.03,0.98,
1.107,-0.46,-0.08,-0.09,0.00,-0.03,0.98,
1.108,-0.46,-0.08,-0.09,0.00,-0.03,0.98,
1.109,-0.46,-0.08,-0.09,0.00,-0.02,0.98,
1.11,-0.38,-0.07,-0.06,0.00,-0.02,0.98,
1.113,-0.38,-0.07,-0.06,-0.00,-0.02,0.98,
1.114,-0.38,-0.07,-0.06,0.00,-0.02,0.98,
1.114,-0.35,-0.06,-0.01,0.00,-0.02,0.98,
1.116,-0.35,-0.06,-0.01,-0.00,-0.02,0.98,
1.119,-0.35,-0.06,-0.01,-0.00,-0.02,0.98,
1.119,-0.36,-0.02,-0.01,-0.00,-0.02,0.98,
1.122,-0.36,-0.02,-0.01,-0.01,-0.02,0.98,
1.124,-0.36,-0.02,-0.01,-0.01,-0.02,0.98,
1.124,-0.38,0.01,-0.01,-0.01,-0.02,0.98,
1.126,-0.38,0.01,-0.01,-0.01,-0.01,0.98,
1.129,-0.38,0.01,-0.01,-0.01,-0.01,0.98,
1.129,-0.43,0.04,-0.03,-0.01,-0.01,0.98,
1.131,-0.43,0.04,-0.03,-0.02,-0.01,0.98,
1.134,-0.43,0.04,-0.03,-0.02,-0.01,0.97,
1.134,-0.49,0.08,-0.06,-0.02,-0.01,0.97,
1.136,-0.49,0.08,-0.06,-0.02,-0.01,0.97,
1.139,-0.49,0.08,-0.06,-0.02,-0.00,0.97,
1.14,-0.54,0.14,-0.09,-0.02,-0.00,0.97,
1.141,-0.54,0.14,-0.09,-0.02,-0.00,0.96,
1.144,-0.54,0.14,-0.09,-0.03,-0.00,0.96,
1.144,-0.58,0.15,-0.15,-0.03,-0.00,0.96,
1.146,-0.58,0.15,-0.15,-0.03,-0.00,0.96,
1.149,-0.58,0.15,-0.15,-0.03,-0.00,0.96,
1.149,-0.61,0.18,-0.20,-0.03,-0.00,0.96,
1.151,-0.61,0.18,-0.20,-0.03,-0.00,0.96,
1.154,-0.61,0.18,-0.20,-0.04,-0.00,0.95,
1.154,-0.68,0.21,-0.22,-0.04,-0.00,0.95,
1.156,-0.68,0.21,-0.22,-0.04,-0.00,0.95,
1.158,-0.68,0.21,-0.22,-0.04,-0.00,0.95,
1.159,-0.73,0.20,-0.26,-0.04,-0.00,0.95,
1.16,-0.73,0.20,-0.26,-0.05,-0.01,0.95,
1.163,-0.73,0.20,-0.26,-0.05,-0.01,0.95,
1.163,-0.79,0.19,-0.29,-0.05,-0.01,0.95,
1.165,-0.79,0.19,-0.29,-0.05,-0.01,0.95,
1.168,-0.79,0.19,-0.29,-0.05,-0.01,0.95,
1.168,-0.85,0.18,-0.27,-0.05,-0.01,0.95,
1.171,-0.85,0.18,-0.27,-0.05,-0.01,0.96,
1.174,-0.85,0.18,-0.27,-0.05,-0.01,0.96,
1.174,-0.87,0.16,-0.27,-0.05,-0.01,0.96,
1.175,-0.87,0.16,-0.27,-0.05,-0.01,0.96,
1.178,-0.87,0.16,-0.27,-0.05,-0.01,0.96,
1.178,-0.90,0.15,-0.24,-0.05,-0.01,0.96,
1.18,-0.90,0.15,-0.24,-0.05,-0.01,0.96,
1.183,-0.90,0.15,-0.24,-0.05,-0.01,0.97,
1.183,-0.88,0.14,-0.21,-0.05,-0.01,0.97,
1.185,-0.88,0.14,-0.21,-0.05,-0.01,0.97,
1.195,-0.88,0.14,-0.21,-0.04,-0.01,0.97,
1.195,-0.86,0.16,-0.15,-0.04,-0.01,0.97,
1.196,-0.86,0.16,-0.15,-0.04,-0.01,0.97,
1.196,-0.86,0.16,-0.15,-0.04,-0.01,0.98,
1.196,-0.81,0.17,-0.09,-0.04,-0.01,0.98,
1.196,-0.81,0.17,-0.09,-0.04,-0.01,0.98,
1.197,-0.81,0.17,-0.09,-0.03,-0.01,0.98,
1.198,-0.77,0.19,-0.05,-0.03,-0.01,0.98,
1.2,-0.77,0.19,-0.05,-0.03,-0.00,0.98,
1.202,-0.77,0.19,-0.05,-0.02,-0.00,0.98,
1.203,-0.70,0.23,-0.02,-0.02,-0.00,0.98,
1.206,-0.70,0.23,-0.02,-0.02,-0.00,0.98,
1.207,-0.70,0.23,-0.02,-0.02,-0.00,0.98,
1.208,-0.62,0.28,0.01,-0.02,-0.00,0.98,
1.21,-0.62,0.28,0.01,-0.01,-0.00,0.98,
1.213,-0.62,0.28,0.01,-0.00,-0.00,0.98,
1.213,-0.53,0.30,-0.02,-0.00,-0.00,0.98,
1.214,-0.53,0.30,-0.02,-0.00,-0.00,0.97,
1.217,-0.53,0.30,-0.02,0.00,-0.00,0.97,
1.217,-0.42,0.29,-0.03,0.00,-0.00,0.97,
1.219,-0.42,0.29,-0.03,0.01,-0.00,0.97,
1.222,-0.42,0.29,-0.03,0.01,-0.00,0.97,
1.223,-0.35,0.30,-0.05,0.01,-0.00,0.97,
1.224,-0.35,0.30,-0.05,0.01,-0.00,0.97,
1.227,-0.35,0.30,-0.05,0.01,-0.00,0.97,
1.227,-0.31,0.30,-0.07,0.01,-0.00,0.97,
1.229,-0.31,0.30,-0.07,0.01,0.00,0.96,
1.233,-0.31,0.30,-0.07,0.01,0.00,0.96,
1.233,-0.26,0.31,-0.13,0.01,0.00,0.96,
1.234,-0.26,0.31,-0.13,0.01,0.01,0.96,
1.237,-0.26,0.31,-0.13,0.00,0.01,0.96,
1.237,-0.25,0.34,-0.17,0.00,0.01,0.96,
1.239,-0.25,0.34,-0.17,-0.00,0.01,0.95,
1.242,-0.25,0.34,-0.17,-0.01,0.01,0.95,
1.242,-0.29,0.38,-0.22,-0.01,0.01,0.95,
1.244,-0.29,0.38,-0.22,-0.01,0.02,0.95,
1.247,-0.29,0.38,-0.22,-0.02,0.02,0.94,
1.247,-0.38,0.43,-0.26,-0.02,0.02,0.94,
1.249,-0.38,0.43,-0.26,-0.03,0.02,0.94,
1.251,-0.38,0.43,-0.26,-0.03,0.03,0.94,
1.252,-0.49,0.48,-0.34,-0.03,0.03,0.94,
1.254,-0.49,0.48,-0.34,-0.04,0.03,0.93,
1.256,-0.49,0.48,-0.34,-0.04,0.03,0.93,
1.257,-0.61,0.53,-0.38,-0.04,0.03,0.93,
1.259,-0.61,0.53,-0.38,-0.05,0.03,0.93,
1.261,-0.61,0.53,-0.38,-0.05,0.04,0.93,
1.261,-0.69,0.58,-0.44,-0.05,0.04,0.93,
1.263,-0.69,0.58,-0.44,-0.05,0.04,0.93,
1.266,-0.69,0.58,-0.44,-0.06,0.05,0.92,
1.266,-0.79,0.64,-0.49,-0.06,0.05,0.92,
1.268,-0.79,0.64,-0.49,-0.06,0.05,0.92,
1.271,-0.79,0.64,-0.49,-0.06,0.05,0.92,
1.272,-0.84,0.71,-0.51,-0.06,0.05,0.92,
1.274,-0.84,0.71,-0.51,-0.06,0.06,0.92,
1.276,-0.84,0.71,-0.51,-0.06,0.06,0.92,
1.276,-0.84,0.78,-0.53,-0.06,0.06,0.92,
1.278,-0.84,0.78,-0.53,-0.06,0.07,0.93,
1.28,-0.87,0.86,-0.52,-0.06,0.07,0.93,
1.281,-0.87,0.86,-0.52,-0.07,0.07,0.92,
1.283,-0.87,0.86,-0.52,-0.07,0.07,0.92,
1.285,-0.87,0.86,-0.52,-0.07,0.07,0.92,
1.286,-0.89,0.93,-0.51,-0.07,0.07,0.92,
1.288,-0.89,0.93,-0.51,-0.07,0.07,0.93,
1.291,-0.89,0.93,-0.51,-0.08,0.07,0.93,
1.291,-0.92,0.95,-0.50,-0.08,0.07,0.93,
1.293,-0.92,0.95,-0.50,-0.08,0.07,0.93,
1.295,-0.92,0.95,-0.50,-0.08,0.07,0.93,
1.295,-0.95,0.97,-0.48,-0.08,0.07,0.93,
1.297,-0.95,0.97,-0.48,-0.08,0.07,0.94,
1.3,-0.95,0.97,-0.48,-0.08,0.07,0.94,
1.3,-0.94,0.96,-0.43,-0.08,0.07,0.94,
1.302,-0.94,0.96,-0.43,-0.08,0.07,0.94,
1.305,-0.94,0.96,-0.43,-0.08,0.07,0.95,
1.305,-0.94,0.96,-0.36,-0.08,0.07,0.95,
1.308,-0.94,0.96,-0.36,-0.08,0.07,0.96,
1.31,-0.94,0.96,-0.36,-0.08,0.07,0.96,
1.31,-0.93,0.96,-0.26,-0.08,0.07,0.96,
1.314,-0.93,0.96,-0.26,-0.08,0.07,0.97,
1.315,-0.93,0.96,-0.26,-0.08,0.07,0.98,
1.315,-0.90,0.94,-0.14,-0.08,0.07,0.98,
1.317,-0.90,0.94,-0.14,-0.08,0.07,0.98,
1.32,-0.90,0.94,-0.14,-0.08,0.06,0.99,
1.32,-0.83,0.92,-0.02,-0.08,0.06,0.99,
1.327,-0.83,0.92,-0.02,-0.08,0.06,0.99,
1.328,-0.83,0.92,-0.02,-0.08,0.06,1.00,
1.328,-0.81,0.89,0.11,-0.08,0.06,1.00,
1.328,-0.81,0.89,0.11,-0.08,0.06,1.01,
1.329,-0.81,0.89,0.11,-0.08,0.06,1.01,
1.33,-0.77,0.84,0.21,-0.08,0.06,1.01,
1.333,-0.77,0.84,0.21,-0.08,0.05,1.01,
1.334,-0.77,0.84,0.21,-0.08,0.05,1.02,
1.335,-0.76,0.80,0.32,-0.08,0.05,1.02,
1.337,-0.76,0.80,0.32,-0.08,0.05,1.02,
1.341,-0.76,0.80,0.32,-0.07,0.04,1.02,
1.341,-0.75,0.76,0.39,-0.07,0.04,1.02,
1.342,-0.75,0.76,0.39,-0.08,0.04,1.02,
1.344,-0.75,0.76,0.39,-0.08,0.04,1.02,
1.345,-0.70,0.69,0.41,-0.08,0.04,1.02,
1.347,-0.70,0.69,0.41,-0.08,0.04,1.02,
1.349,-0.70,0.69,0.41,-0.07,0.03,1.02,
1.349,-0.70,0.64,0.43,-0.07,0.03,1.02,
1.353,-0.70,0.64,0.43,-0.07,0.03,1.02,
1.354,-0.70,0.64,0.43,-0.07,0.03,1.01,
1.355,-0.68,0.58,0.41,-0.07,0.03,1.01,
1.356,-0.68,0.58,0.41,-0.06,0.02,1.01,
1.359,-0.63,0.52,0.39,-0.06,0.02,1.01,
1.36,-0.63,0.52,0.39,-0.06,0.02,1.01,
1.361,-0.63,0.52,0.39,-0.05,0.03,1.00,
1.364,-0.63,0.52,0.39,-0.04,0.03,1.00,
1.364,-0.52,0.47,0.33,-0.04,0.03,1.00,
1.366,-0.52,0.47,0.33,-0.04,0.03,1.00,
1.369,-0.38,0.52,0.25,-0.04,0.03,1.00,
1.369,-0.38,0.52,0.25,-0.03,0.04,1.00,
1.372,-0.38,0.52,0.25,-0.03,0.04,0.99,
1.374,-0.38,0.52,0.25,-0.02,0.04,0.99,
1.375,-0.26,0.57,0.19,-0.02,0.04,0.99,
1.377,-0.26,0.57,0.19,-0.02,0.04,0.99,
1.379,-0.26,0.57,0.19,-0.01,0.05,0.99,
1.379,-0.14,0.62,0.15,-0.01,0.05,0.99,
1.381,-0.14,0.62,0.15,-0.01,0.05,0.99,
1.383,-0.14,0.62,0.15,-0.01,0.05,0.99,
1.384,-0.05,0.68,0.13,-0.01,0.05,0.99,
1.386,-0.05,0.68,0.13,-0.01,0.05,0.99,
1.389,-0.05,0.68,0.13,-0.01,0.05,0.99,
1.39,-0.03,0.74,0.13,-0.01,0.05,0.99,
1.391,-0.03,0.74,0.13,-0.01,0.05,0.99,
1.394,-0.03,0.74,0.13,-0.01,0.06,1.00,
1.394,-0.01,0.76,0.15,-0.01,0.06,1.00,
1.395,-0.01,0.76,0.15,-0.02,0.06,1.00,
1.398,-0.01,0.76,0.15,-0.02,0.06,1.01,
1.398,-0.03,0.77,0.17,-0.02,0.06,1.01,
1.4,-0.03,0.77,0.17,-0.02,0.06,1.01,
1.403,-0.06,0.80,0.25,-0.02,0.06,1.01,
1.404,-0.06,0.80,0.25,-0.02,0.06,1.01,
1.405,-0.06,0.80,0.25,-0.02,0.07,1.02,
1.408,-0.06,0.80,0.25,-0.02,0.07,1.02,
1.408,-0.08,0.84,0.31,-0.02,0.07,1.02,
1.41,-0.08,0.84,0.31,-0.02,0.07,1.02,
1.414,-0.08,0.84,0.31,-0.02,0.07,1.03,
1.414,-0.10,0.88,0.38,-0.02,0.07,1.03,
1.415,-0.10,0.88,0.38,-0.03,0.07,1.03,
1.418,-0.10,0.88,0.38,-0.03,0.08,1.03,
1.418,-0.09,0.91,0.46,-0.03,0.08,1.03,
1.42,-0.09,0.91,0.46,-0.03,0.08,1.03,
1.426,-0.13,0.94,0.48,-0.03,0.08,1.03,
1.427,-0.13,0.94,0.48,-0.03,0.07,1.03,
1.427,-0.13,0.94,0.48,-0.03,0.07,1.03,
1.428,-0.13,0.94,0.48,-0.03,0.07,1.03,
1.428,-0.14,0.92,0.49,-0.03,0.07,1.03,
1.43,-0.14,0.92,0.49,-0.04,0.07,1.03,
1.434,-0.14,0.92,0.49,-0.03,0.06,1.03,
1.434,-0.14,0.87,0.52,-0.03,0.06,1.03,
1.434,-0.14,0.87,0.52,-0.03,0.06,1.03,
1.437,-0.14,0.87,0.52,-0.03,0.05,1.02,
1.438,-0.15,0.80,0.49,-0.03,0.05,1.02,
1.439,-0.15,0.80,0.49,-0.03,0.05,1.02,
1.442,-0.15,0.80,0.49,-0.02,0.05,1.02,
1.442,-0.09,0.70,0.45,-0.02,0.05,1.02,
1.444,-0.09,0.70,0.45,-0.02,0.05,1.02,
1.447,-0.09,0.70,0.45,-0.02,0.05,1.01,
1.447,-0.03,0.63,0.39,-0.02,0.05,1.01,
1.449,-0.03,0.63,0.39,-0.01,0.04,1.01,
1.455,-0.03,0.63,0.39,-0.00,0.05,1.01,
1.455,0.04,0.57,0.34,-0.00,0.05,1.01,
1.455,0.04,0.57,0.34,0.00,0.05,1.01,
1.457,0.04,0.57,0.34,0.01,0.05,1.00,
1.457,0.16,0.55,0.28,0.01,0.05,1.00,
1.462,0.16,0.55,0.28,0.02,0.05,1.00,
1.463,0.16,0.55,0.28,0.02,0.05,1.00,
1.463,0.28,0.56,0.22,0.02,0.05,1.00,
1.464,0.28,0.56,0.22,0.03,0.06,0.99,
1.466,0.28,0.56,0.22,0.03,0.06,0.99,
1.467,0.40,0.58,0.15,0.03,0.06,0.99,
1.469,0.40,0.58,0.15,0.03,0.06,0.99,
1.472,0.40,0.58,0.15,0.04,0.06,0.99,
1.472,0.50,0.59,0.10,0.04,0.06,0.99,
1.474,0.50,0.59,0.10,0.04,0.06,0.98,
1.477,0.50,0.59,0.10,0.04,0.06,0.98,
1.477,0.58,0.60,0.06,0.04,0.06,0.98,
1.479,0.58,0.60,0.06,0.04,0.07,0.98,
1.481,0.58,0.60,0.06,0.04,0.07,0.98,
1.482,0.61,0.60,0.02,0.04,0.07,0.98,
1.484,0.61,0.60,0.02,0.04,0.07,0.98,
1.486,0.61,0.60,0.02,0.04,0.07,0.98,
1.487,0.63,0.63,-0.02,0.04,0.07,0.98,
1.489,0.63,0.63,-0.02,0.04,0.08,0.97,
1.491,0.63,0.63,-0.02,0.04,0.08,0.97,
1.492,0.64,0.64,-0.05,0.04,0.08,0.97,
1.494,0.64,0.64,-0.05,0.04,0.08,0.97,
1.496,0.64,0.64,-0.05,0.04,0.09,0.97,
1.496,0.66,0.67,-0.08,0.04,0.09,0.97,
1.498,0.66,0.67,-0.08,0.03,0.09,0.97,
1.501,0.66,0.67,-0.08,0.03,0.09,0.97,
1.501,0.63,0.70,-0.10,0.03,0.09,0.97,
1.51,0.63,0.70,-0.10,0.02,0.10,0.97,
1.511,0.63,0.70,-0.10,0.02,0.10,0.96,
1.511,0.57,0.73,-0.14,0.02,0.10,0.96,
1.512,0.57,0.73,-0.14,0.01,0.11,0.96,
1.512,0.57,0.73,-0.14,0.00,0.11,0.96,
1.512,0.47,0.79,-0.16,0.00,0.11,0.96,
1.514,0.47,0.79,-0.16,-0.00,0.11,0.96,
1.516,0.47,0.79,-0.16,-0.01,0.11,0.96,
1.516,0.35,0.82,-0.17,-0.01,0.11,0.96,
1.518,0.35,0.82,-0.17,-0.01,0.12,0.96,
1.525,0.35,0.82,-0.17,-0.02,0.12,0.96,
1.526,0.25,0.85,-0.19,-0.02,0.12,0.96,
1.526,0.25,0.85,-0.19,-0.02,0.12,0.96,
1.526,0.25,0.85,-0.19,-0.03,0.12,0.96,
1.526,0.17,0.90,-0.17,-0.03,0.12,0.96,
1.528,0.17,0.90,-0.17,-0.04,0.12,0.97,
1.531,0.17,0.90,-0.17,-0.04,0.12,0.96,
1.531,0.09,0.90,-0.16,-0.04,0.12,0.96,
1.533,0.09,0.90,-0.16,-0.04,0.12,0.96,
1.535,0.09,0.90,-0.16,-0.05,0.13,0.96,
1.535,0.01,0.87,-0.15,-0.05,0.13,0.96,
1.537,0.01,0.87,-0.15,-0.05,0.13,0.96,
1.54,0.01,0.87,-0.15,-0.05,0.13,0.96,
1.54,-0.05,0.85,-0.17,-0.05,0.13,0.96,
1.543,-0.05,0.85,-0.17,-0.05,0.13,0.96,
1.545,-0.05,0.85,-0.17,-0.05,0.13,0.96,
1.545,-0.12,0.84,-0.17,-0.05,0.13,0.96,
1.547,-0.12,0.84,-0.17,-0.05,0.12,0.96,
1.55,-0.10,0.81,-0.16,-0.05,0.12,0.96,
1.55,-0.10,0.81,-0.16,-0.04,0.13,0.96,
1.554,-0.10,0.81,-0.16,-0.04,0.13,0.97,
1.555,-0.10,0.81,-0.16,-0.04,0.13,0.96,
1.555,-0.04,0.78,-0.15,-0.04,0.13,0.96,
1.557,-0.04,0.78,-0.15,-0.03,0.12,0.96,
1.56,-0.04,0.78,-0.15,-0.03,0.13,0.97,
1.56,0.03,0.77,-0.13,-0.03,0.13,0.97,
1.562,0.03,0.77,-0.13,-0.02,0.13,0.97,
1.565,0.03,0.77,-0.13,-0.02,0.13,0.97,
1.565,0.11,0.75,-0.13,-0.02,0.13,0.97,
1.567,0.11,0.75,-0.13,-0.01,0.13,0.96,
1.569,0.11,0.75,-0.13,0.00,0.13,0.96,
1.57,0.20,0.78,-0.12,0.00,0.13,0.96,
1.573,0.20,0.78,-0.12,0.01,0.13,0.96,
1.574,0.20,0.78,-0.12,0.01,0.12,0.96,
1.577,0.35,0.78,-0.15,0.01,0.12,0.96,
1.577,0.35,0.78,-0.15,0.02,0.12,0.95,
1.579,0.35,0.78,-0.15,0.03,0.12,0.95,
1.58,0.44,0.74,-0.21,0.03,0.12,0.95,
1.582,0.44,0.74,-0.21,0.03,0.12,0.95,
1.584,0.44,0.74,-0.21,0.04,0.12,0.95,
1.584,0.55,0.72,-0.24,0.04,0.12,0.95,
1.587,0.55,0.72,-0.24,0.04,0.12,0.95,
1.589,0.55,0.72,-0.24,0.05,0.12,0.95,
1.59,0.63,0.70,-0.28,0.05,0.12,0.95,
1.592,0.63,0.70,-0.28,0.05,0.12,0.95,
1.594,0.63,0.70,-0.28,0.06,0.11,0.95,
1.595,0.73,0.65,-0.30,0.06,0.11,0.95,
1.596,0.73,0.65,-0.30,0.06,0.11,0.95,
1.599,0.73,0.65,-0.30,0.06,0.11,0.95,
1.599,0.80,0.62,-0.29,0.06,0.11,0.95,
1.601,0.80,0.62,-0.29,0.07,0.11,0.95,
1.609,0.80,0.62,-0.29,0.07,0.11,0.96,
1.61,0.85,0.59,-0.26,0.07,0.11,0.96,
1.61,0.85,0.59,-0.26,0.07,0.11,0.96,
1.61,0.85,0.59,-0.26,0.07,0.11,0.97,
1.61,0.88,0.60,-0.21,0.07,0.11,0.97,
1.611,0.88,0.60,-0.21,0.07,0.10,0.98,
1.614,0.88,0.60,-0.21,0.07,0.10,0.98,
1.614,0.88,0.57,-0.11,0.07,0.10,0.98,
1.616,0.88,0.57,-0.11,0.06,0.10,0.99,
1.619,0.88,0.57,-0.11,0.06,0.10,1.00,
1.619,0.86,0.54,0.01,0.06,0.10,1.00,
1.621,0.86,0.54,0.01,0.05,0.10,1.00,
1.623,0.86,0.54,0.01,0.05,0.10,1.01,
1.624,0.79,0.52,0.15,0.05,0.10,1.01,
1.626,0.79,0.52,0.15,0.05,0.10,1.02,
1.628,0.79,0.52,0.15,0.04,0.10,1.02,
1.628,0.70,0.51,0.28,0.04,0.10,1.02,
1.63,0.70,0.51,0.28,0.03,0.10,1.03,
1.634,0.70,0.51,0.28,0.03,0.10,1.03,
1.634,0.64,0.52,0.41,0.03,0.10,1.03,
1.636,0.64,0.52,0.41,0.02,0.10,1.04,
1.638,0.64,0.52,0.41,0.02,0.10,1.04,
1.639,0.54,0.51,0.53,0.02,0.10,1.04,
1.64,0.54,0.51,0.53,0.02,0.10,1.05,
1.643,0.45,0.50,0.61,0.02,0.10,1.05,
1.643,0.45,0.50,0.61,0.01,0.10,1.05,
1.645,0.45,0.50,0.61,0.01,0.11,1.05,
1.648,0.45,0.50,0.61,0.01,0.11,1.05,
1.648,0.38,0.51,0.66,0.01,0.11,1.05,
1.65,0.38,0.51,0.66,0.00,0.11,1.05,
1.655,0.38,0.51,0.66,0.00,0.11,1.05,
1.656,0.32,0.51,0.70,0.00,0.11,1.05,
1.656,0.32,0.51,0.70,-0.00,0.11,1.05,
1.658,0.32,0.51,0.70,-0.00,0.11,1.05,
1.659,0.24,0.51,0.70,-0.00,0.11,1.05,
1.66,0.24,0.51,0.70,-0.01,0.11,1.04,
1.662,0.24,0.51,0.70,-0.01,0.11,1.04,
1.663,0.21,0.52,0.66,-0.01,0.11,1.04,
1.665,0.21,0.52,0.66,-0.01,0.10,1.03,
1.668,0.21,0.52,0.66,-0.01,0.10,1.03,
1.668,0.15,0.47,0.58,-0.01,0.10,1.03,
1.67,0.15,0.47,0.58,-0.02,0.10,1.02,
1.674,0.15,0.47,0.58,-0.02,0.10,1.01,
1.674,0.08,0.44,0.48,-0.02,0.10,1.01,
1.674,0.08,0.44,0.48,-0.02,0.10,1.01,
1.677,0.08,0.44,0.48,-0.02,0.10,1.00,
1.678,-0.00,0.42,0.36,-0.02,0.10,1.00,
1.679,-0.00,0.42,0.36,-0.02,0.10,0.99,
1.682,-0.00,0.42,0.36,-0.02,0.09,0.98,
1.682,-0.04,0.37,0.21,-0.02,0.09,0.98,
1.685,-0.04,0.37,0.21,-0.02,0.09,0.98,
1.687,-0.04,0.37,0.21,-0.02,0.09,0.97,
1.688,-0.07,0.30,0.05,-0.02,0.09,0.97,
1.689,-0.07,0.30,0.05,-0.02,0.09,0.97,
1.693,-0.07,0.30,0.05,-0.01,0.09,0.96,
1.694,-0.07,0.28,-0.08,-0.01,0.09,0.96,
1.694,-0.07,0.28,-0.08,-0.01,0.09,0.95,
1.697,-0.03,0.23,-0.20,-0.01,0.09,0.95,
1.697,-0.03,0.23,-0.20,-0.00,0.09,0.95,
1.699,-0.03,0.23,-0.20,-0.00,0.08,0.95,
1.702,-0.03,0.23,-0.20,0.00,0.08,0.95,
1.702,0.03,0.20,-0.28,0.00,0.08,0.95,
1.71,0.03,0.20,-0.28,0.01,0.08,0.95,
1.71,0.03,0.20,-0.28,0.02,0.07,0.95,
1.711,0.10,0.15,-0.30,0.02,0.07,0.95,
1.711,0.10,0.15,-0.30,0.03,0.07,0.95,
1.711,0.10,0.15,-0.30,0.03,0.07,0.95,
1.712,0.20,0.09,-0.31,0.03,0.07,0.95,
1.714,0.20,0.09,-0.31,0.04,0.07,0.96,
1.716,0.20,0.09,-0.31,0.04,0.06,0.96,
1.717,0.33,0.04,-0.28,0.04,0.06,0.96,
1.719,0.33,0.04,-0.28,0.04,0.06,0.97,
1.721,0.33,0.04,-0.28,0.04,0.06,0.98,
1.722,0.39,-0.01,-0.19,0.04,0.06,0.98,
1.724,0.39,-0.01,-0.19,0.04,0.06,0.98,
1.726,0.39,-0.01,-0.19,0.05,0.06,0.99,
1.726,0.44,-0.05,-0.09,0.05,0.06,0.99,
1.728,0.44,-0.05,-0.09,0.05,0.06,0.99,
1.731,0.44,-0.05,-0.09,0.05,0.06,1.00,
1.731,0.46,-0.04,0.03,0.05,0.06,1.00,
1.733,0.46,-0.04,0.03,0.05,0.06,1.00,
1.737,0.46,-0.04,0.03,0.05,0.06,1.00,
1.737,0.49,-0.03,0.12,0.05,0.06,1.00,
1.739,0.49,-0.03,0.12,0.05,0.07,1.01,
1.741,0.49,-0.03,0.12,0.05,0.07,1.01,
1.741,0.49,0.01,0.19,0.05,0.07,1.01,
1.743,0.49,0.01,0.19,0.05,0.07,1.01,
1.746,0.49,0.01,0.19,0.05,0.07,1.02,
1.746,0.47,0.06,0.26,0.05,0.07,1.02,
1.748,0.47,0.06,0.26,0.05,0.08,1.02,
1.751,0.47,0.06,0.26,0.04,0.08,1.02,
1.751,0.44,0.10,0.32,0.04,0.08,1.02,
1.754,0.44,0.10,0.32,0.04,0.09,1.02,
1.756,0.44,0.10,0.32,0.04,0.09,1.02,
1.756,0.37,0.18,0.35,0.04,0.09,1.02,
1.758,0.37,0.18,0.35,0.04,0.10,1.02,
1.76,0.37,0.18,0.35,0.04,0.10,1.01,
1.761,0.33,0.29,0.34,0.04,0.10,1.01,
1.763,0.33,0.29,0.34,0.04,0.10,1.01,
1.765,0.33,0.29,0.34,0.04,0.11,1.01,
1.766,0.30,0.37,0.32,0.04,0.11,1.01,
1.768,0.30,0.37,0.32,0.04,0.11,1.00,
1.771,0.30,0.37,0.32,0.04,0.11,1.00,
1.771,0.30,0.42,0.26,0.04,0.11,1.00,
1.774,0.30,0.42,0.26,0.04,0.11,1.00,
1.775,0.30,0.42,0.26,0.04,0.11,0.99,
1.776,0.26,0.45,0.18,0.04,0.11,0.99,
1.778,0.26,0.45,0.18,0.04,0.11,0.99,
1.78,0.26,0.45,0.18,0.04,0.11,0.98,
1.78,0.23,0.47,0.10,0.04,0.11,0.98,
1.782,0.23,0.47,0.10,0.04,0.11,0.98,
1.785,0.23,0.47,0.10,0.04,0.11,0.98,
1.785,0.21,0.48,0.02,0.04,0.11,0.98,
1.788,0.21,0.48,0.02,0.04,0.10,0.97,
1.79,0.21,0.48,0.02,0.05,0.10,0.97,
1.791,0.19,0.48,-0.06,0.05,0.10,0.97,
1.793,0.19,0.48,-0.06,0.05,0.11,0.97,
1.795,0.19,0.48,-0.06,0.05,0.10,0.97,
1.795,0.20,0.46,-0.13,0.05,0.10,0.97,
1.797,0.20,0.46,-0.13,0.06,0.10,0.97,
1.8,0.20,0.46,-0.13,0.06,0.10,0.97,
1.8,0.23,0.46,-0.15,0.06,0.10,0.97,
1.802,0.23,0.46,-0.15,0.07,0.10,0.97,
1.809,0.23,0.46,-0.15,0.08,0.09,0.97,
1.81,0.32,0.44,-0.15,0.08,0.09,0.97,
1.811,0.32,0.44,-0.15,0.08,0.09,0.98,
1.811,0.43,0.38,-0.12,0.08,0.09,0.98,
1.811,0.43,0.38,-0.12,0.09,0.09,0.98,
1.813,0.43,0.38,-0.12,0.10,0.08,0.98,
1.814,0.43,0.38,-0.12,0.10,0.08,0.99,
1.815,0.54,0.33,-0.05,0.10,0.08,0.99,
1.816,0.54,0.33,-0.05,0.11,0.08,0.99,
1.82,0.54,0.33,-0.05,0.11,0.07,1.00,
1.82,0.66,0.28,0.02,0.11,0.07,1.00,
1.822,0.66,0.28,0.02,0.12,0.07,1.00,
1.824,0.66,0.28,0.02,0.12,0.07,1.01,
1.824,0.76,0.21,0.10,0.12,0.07,1.01,
1.826,0.76,0.21,0.10,0.13,0.06,1.01,
1.829,0.76,0.21,0.10,0.13,0.06,1.02,
1.83,0.86,0.14,0.20,0.13,0.06,1.02,
1.831,0.86,0.14,0.20,0.14,0.06,1.02,
1.834,0.86,0.14,0.20,0.14,0.05,1.02,
1.834,0.96,0.07,0.29,0.14,0.05,1.02,
1.837,0.96,0.07,0.29,0.14,0.05,1.03,
1.839,0.96,0.07,0.29,0.15,0.05,1.03,
1.839,1.02,0.02,0.37,0.15,0.05,1.03,
1.841,1.02,0.02,0.37,0.15,0.05,1.03,
1.844,1.10,-0.03,0.43,0.15,0.05,1.03,
1.844,1.10,-0.03,0.43,0.15,0.05,1.03,
1.846,1.10,-0.03,0.43,0.16,0.05,1.03,
1.849,1.10,-0.03,0.43,0.16,0.05,1.03,
1.849,1.17,-0.06,0.47,0.16,0.05,1.03,
1.851,1.17,-0.06,0.47,0.16,0.05,1.03,
1.854,1.17,-0.06,0.47,0.16,0.05,1.03,
1.854,1.20,-0.08,0.48,0.16,0.05,1.03,
1.856,1.20,-0.08,0.48,0.16,0.05,1.03,
1.859,1.20,-0.08,0.48,0.16,0.05,1.03,
1.859,1.22,-0.10,0.48,0.16,0.05,1.03,
1.861,1.22,-0.10,0.48,0.17,0.05,1.02,
1.863,1.22,-0.10,0.48,0.17,0.05,1.02,
1.864,1.26,-0.11,0.42,0.17,0.05,1.02,
1.865,1.26,-0.11,0.42,0.17,0.05,1.01,
1.868,1.27,-0.11,0.33,0.17,0.05,1.01,
1.869,1.27,-0.11,0.33,0.17,0.05,1.01,
1.871,1.27,-0.11,0.33,0.17,0.05,1.00,
1.875,1.27,-0.11,0.33,0.17,0.05,0.99,
1.875,1.27,-0.11,0.24,0.17,0.05,0.99,
1.875,1.27,-0.11,0.24,0.17,0.05,0.99,
1.878,1.27,-0.11,0.24,0.17,0.05,0.98,
1.878,1.30,-0.12,0.11,0.17,0.05,0.98,
1.88,1.30,-0.12,0.11,0.17,0.05,0.97,
1.883,1.30,-0.12,0.11,0.17,0.05,0.97,
1.883,1.30,-0.12,-0.02,0.17,0.05,0.97,
1.885,1.30,-0.12,-0.02,0.17,0.05,0.96,
1.888,1.30,-0.12,-0.02,0.17,0.05,0.95,
1.888,1.28,-0.13,-0.17,0.17,0.05,0.95,
1.891,1.28,-0.13,-0.17,0.17,0.04,0.94,
1.894,1.28,-0.13,-0.17,0.17,0.04,0.94,
1.894,1.26,-0.16,-0.29,0.17,0.04,0.94,
1.895,1.26,-0.16,-0.29,0.17,0.04,0.94,
1.897,1.26,-0.16,-0.29,0.17,0.04,0.93,
1.898,1.23,-0.19,-0.42,0.17,0.04,0.93,
1.9,1.23,-0.19,-0.42,0.17,0.04,0.93,
1.91,1.23,-0.19,-0.42,0.17,0.04,0.92,
1.91,1.22,-0.21,-0.52,0.17,0.04,0.92,
1.911,1.22,-0.21,-0.52,0.17,0.04,0.92,
1.911,1.22,-0.21,-0.52,0.17,0.04,0.91,
1.911,1.18,-0.24,-0.60,0.17,0.04,0.91,
1.911,1.18,-0.24,-0.60,0.17,0.04,0.92,
1.914,1.17,-0.25,-0.66,0.17,0.04,0.92,
1.914,1.17,-0.25,-0.66,0.16,0.04,0.92,
1.914,1.17,-0.25,-0.66,0.16,0.05,0.92,
1.917,1.17,-0.25,-0.66,0.16,0.04,0.92,
1.917,1.15,-0.25,-0.66,0.16,0.04,0.92,
1.923,1.15,-0.25,-0.66,0.16,0.04,0.92,
1.923,1.15,-0.25,-0.66,0.16,0.05,0.93,
1.924,1.14,-0.23,-0.62,0.16,0.05,0.93,
1.924,1.14,-0.23,-0.62,0.16,0.05,0.93,
1.927,1.14,-0.23,-0.62,0.15,0.04,0.94,
1.927,1.10,-0.23,-0.55,0.15,0.04,0.94,
1.929,1.10,-0.23,-0.55,0.15,0.05,0.94,
1.933,1.10,-0.23,-0.55,0.15,0.04,0.95,
1.933,1.09,-0.24,-0.45,0.15,0.04,0.95,
1.934,1.09,-0.24,-0.45,0.15,0.04,0.95,
1.937,1.09,-0.24,-0.45,0.15,0.04,0.96,
1.937,1.06,-0.25,-0.34,0.15,0.04,0.96,
1.939,1.06,-0.25,-0.34,0.15,0.04,0.96,
1.942,1.06,-0.25,-0.34,0.15,0.04,0.97,
1.942,1.05,-0.27,-0.25,0.15,0.04,0.97,
1.944,1.05,-0.27,-0.25,0.15,0.04,0.97,
1.947,1.05,-0.27,-0.25,0.15,0.04,0.97,
1.947,1.08,-0.28,-0.15,0.15,0.04,0.97,
1.949,1.08,-0.28,-0.15,0.15,0.04,0.98,
1.951,1.08,-0.28,-0.15,0.15,0.04,0.98,
1.952,1.09,-0.30,-0.07,0.15,0.04,0.98,
1.954,1.09,-0.30,-0.07,0.15,0.04,0.98,
1.956,1.09,-0.30,-0.07,0.16,0.04,0.99,
1.957,1.11,-0.32,-0.00,0.16,0.04,0.99,
1.959,1.11,-0.32,-0.00,0.16,0.04,0.99,
1.961,1.11,-0.32,-0.00,0.16,0.04,0.99,
1.961,1.13,-0.33,0.05,0.16,0.04,0.99,
1.963,1.13,-0.33,0.05,0.16,0.04,0.99,
1.966,1.13,-0.33,0.05,0.16,0.04,0.99,
1.966,1.13,-0.35,0.08,0.16,0.04,0.99,
1.968,1.13,-0.35,0.08,0.16,0.03,0.99,
1.971,1.13,-0.35,0.08,0.16,0.03,0.98,
1.972,1.14,-0.36,0.09,0.16,0.03,0.98,
1.974,1.14,-0.36,0.09,0.16,0.03,0.98,
1.976,1.14,-0.36,0.09,0.16,0.03,0.97,
1.976,1.18,-0.42,0.05,0.16,0.03,0.97,
1.978,1.18,-0.42,0.05,0.16,0.03,0.97,
1.981,1.18,-0.42,0.05,0.15,0.03,0.96,
1.981,1.16,-0.45,-0.05,0.15,0.03,0.96,
1.983,1.16,-0.45,-0.05,0.15,0.03,0.96,
1.987,1.16,-0.45,-0.05,0.15,0.03,0.95,
1.987,1.12,-0.48,-0.15,0.15,0.03,0.95,
1.988,1.12,-0.48,-0.15,0.15,0.03,0.95,
1.991,1.12,-0.48,-0.15,0.15,0.02,0.95,
1.991,1.08,-0.50,-0.24,0.15,0.02,0.95,
1.993,1.08,-0.50,-0.24,0.14,0.03,0.95,
1.996,1.08,-0.50,-0.24,0.14,0.03,0.94,
1.996,1.04,-0.54,-0.30,0.14,0.03,0.94,
1.998,1.04,-0.54,-0.30,0.13,0.02,0.94,
2.001,1.04,-0.54,-0.30,0.13,0.02,0.94,
2.001,0.97,-0.55,-0.35,0.13,0.02,0.94,
2.003,0.97,-0.55,-0.35,0.13,0.02,0.94,
2.006,0.97,-0.55,-0.35,0.13,0.02,0.94,
2.006,0.87,-0.58,-0.38,0.13,0.02,0.94,
2.008,0.87,-0.58,-0.38,0.12,0.02,0.95,
2.01,0.87,-0.58,-0.38,0.12,0.02,0.95,
2.011,0.82,-0.60,-0.36,0.12,0.02,0.95,
2.013,0.82,-0.60,-0.36,0.12,0.02,0.95,
2.015,0.82,-0.60,-0.36,0.12,0.01,0.96,
2.015,0.78,-0.65,-0.31,0.12,0.01,0.96,
2.017,0.78,-0.65,-0.31,0.12,0.01,0.96,
2.026,0.78,-0.65,-0.31,0.12,0.01,0.97,
2.027,0.76,-0.69,-0.25,0.12,0.01,0.97,
2.027,0.76,-0.69,-0.25,0.12,0.01,0.97,
2.028,0.76,-0.69,-0.25,0.12,0.01,0.98,
2.028,0.77,-0.72,-0.15,0.12,0.01,0.98,
2.028,0.77,-0.72,-0.15,0.13,0.01,0.98,
2.03,0.77,-0.72,-0.15,0.13,0.01,0.99,
2.031,0.81,-0.74,-0.03,0.13,0.01,0.99,
2.033,0.81,-0.74,-0.03,0.14,0.01,0.99,
2.035,0.81,-0.74,-0.03,0.14,0.01,1.00,
2.035,0.89,-0.74,0.07,0.14,0.01,1.00,
2.037,0.89,-0.74,0.07,0.15,0.01,1.00,
2.039,0.89,-0.74,0.07,0.15,0.01,1.00,
2.04,0.99,-0.76,0.15,0.15,0.01,1.00,
2.042,0.99,-0.76,0.15,0.15,0.00,1.01,
2.045,0.99,-0.76,0.15,0.16,0.00,1.01,
2.045,1.08,-0.79,0.22,0.16,0.00,1.01,
2.047,1.08,-0.79,0.22,0.16,0.00,1.01,
2.049,1.08,-0.79,0.22,0.16,0.00,1.01,
2.05,1.14,-0.82,0.27,0.16,0.00,1.01,
2.053,1.14,-0.82,0.27,0.16,0.00,1.01,
2.054,1.14,-0.82,0.27,0.16,0.00,1.01,
2.055,1.17,-0.83,0.29,0.16,0.00,1.01,
2.057,1.17,-0.83,0.29,0.16,0.00,1.01,
2.059,1.17,-0.83,0.29,0.16,0.00,1.00,
2.06,1.18,-0.84,0.28,0.16,0.00,1.00,
2.061,1.18,-0.84,0.28,0.16,0.00,1.00,
2.064,1.16,-0.85,0.23,0.16,0.00,1.00,
2.066,1.16,-0.85,0.23,0.16,0.00,0.99,
2.066,1.16,-0.85,0.23,0.15,0.00,0.99,
2.069,1.16,-0.85,0.23,0.15,0.00,0.98,
2.07,1.13,-0.86,0.17,0.15,0.00,0.98,
2.071,1.13,-0.86,0.17,0.14,0.01,0.97,
2.074,1.13,-0.86,0.17,0.14,0.00,0.97,
2.074,1.04,-0.85,0.05,0.14,0.00,0.97,
2.076,1.04,-0.85,0.05,0.13,0.00,0.96,
2.079,1.04,-0.85,0.05,0.13,0.01,0.95,
2.079,0.95,-0.83,-0.09,0.13,0.01,0.95,
2.081,0.95,-0.83,-0.09,0.12,0.00,0.95,
2.084,0.95,-0.83,-0.09,0.11,0.00,0.94,
2.084,0.83,-0.83,-0.23,0.11,0.00,0.94,
2.086,0.83,-0.83,-0.23,0.11,0.00,0.93,
2.089,0.68,-0.85,-0.38,0.11,0.00,0.93,
2.089,0.68,-0.85,-0.38,0.11,0.00,0.92,
2.091,0.68,-0.85,-0.38,0.10,-0.00,0.92,
2.094,0.68,-0.85,-0.38,0.09,-0.00,0.91,
2.094,0.57,-0.87,-0.52,0.09,-0.00,0.91,
2.096,0.57,-0.87,-0.52,0.09,-0.00,0.91,
2.098,0.57,-0.87,-0.52,0.08,-0.00,0.91,
2.099,0.45,-0.91,-0.62,0.08,-0.00,0.91,
2.101,0.45,-0.91,-0.62,0.08,-0.00,0.90,
2.103,0.45,-0.91,-0.62,0.08,-0.00,0.90,
2.104,0.35,-0.92,-0.69,0.08,-0.00,0.90,
2.106,0.35,-0.92,-0.69,0.08,-0.00,0.90,
2.108,0.35,-0.92,-0.69,0.08,-0.00,0.91,
2.108,0.32,-0.94,-0.72,0.08,-0.00,0.91,
2.111,0.32,-0.94,-0.72,0.08,0.00,0.91,
2.114,0.32,-0.94,-0.72,0.08,0.00,0.91,
2.114,0.31,-0.93,-0.70,0.08,0.00,0.91,
2.115,0.31,-0.93,-0.70,0.08,0.00,0.92,
2.118,0.31,-0.93,-0.70,0.08,0.00,0.92,
2.118,0.32,-0.89,-0.62,0.08,0.00,0.92,
2.125,0.32,-0.89,-0.62,0.08,0.00,0.93,
2.126,0.33,-0.87,-0.53,0.08,0.00,0.93,
2.126,0.33,-0.87,-0.53,0.08,0.01,0.93,
2.126,0.33,-0.87,-0.53,0.08,0.01,0.94,
2.128,0.34,-0.85,-0.44,0.08,0.01,0.94,
2.128,0.34,-0.85,-0.44,0.09,0.01,0.94,
2.13,0.34,-0.85,-0.44,0.09,0.01,0.95,
2.134,0.34,-0.85,-0.44,0.09,0.02,0.96,
2.134,0.38,-0.84,-0.33,0.09,0.02,0.96,
2.135,0.38,-0.84,-0.33,0.09,0.02,0.97,
2.139,0.38,-0.84,-0.33,0.10,0.02,0.97,
2.139,0.43,-0.78,-0.18,0.10,0.02,0.97,
2.14,0.43,-0.78,-0.18,0.09,0.02,0.98,
2.143,0.43,-0.78,-0.18,0.09,0.02,0.98,
2.143,0.47,-0.72,-0.05,0.09,0.02,0.98,
2.145,0.47,-0.72,-0.05,0.09,0.02,0.99,
2.147,0.47,-0.72,-0.05,0.09,0.02,0.99,
2.147,0.46,-0.71,0.06,0.09,0.02,0.99,
2.149,0.46,-0.71,0.06,0.09,0.02,0.99,
2.153,0.46,-0.71,0.06,0.08,0.02,1.00,
2.154,0.42,-0.71,0.15,0.08,0.02,1.00,
2.154,0.42,-0.71,0.15,0.08,0.01,1.00,
2.157,0.42,-0.71,0.15,0.08,0.01,1.00,
2.157,0.38,-0.74,0.20,0.08,0.01,1.00,
2.159,0.38,-0.74,0.20,0.08,0.01,0.99,
2.162,0.32,-0.77,0.21,0.08,0.01,0.99,
2.162,0.32,-0.77,0.21,0.08,0.01,0.99,
2.164,0.32,-0.77,0.21,0.08,0.00,0.99,
2.167,0.32,-0.77,0.21,0.08,0.00,0.98,
2.167,0.29,-0.83,0.18,0.08,0.00,0.98,
2.169,0.29,-0.83,0.18,0.08,0.00,0.98,
2.173,0.29,-0.83,0.18,0.08,-0.00,0.97,
2.173,0.27,-0.84,0.11,0.08,-0.00,0.97,
2.174,0.27,-0.84,0.11,0.08,-0.01,0.97,
2.177,0.27,-0.84,0.11,0.08,-0.01,0.96,
2.177,0.23,-0.88,0.02,0.08,-0.01,0.96,
2.179,0.23,-0.88,0.02,0.08,-0.01,0.96,
2.181,0.23,-0.88,0.02,0.07,-0.01,0.95,
2.182,0.21,-0.93,-0.08,0.07,-0.01,0.95,
2.184,0.21,-0.93,-0.08,0.07,-0.01,0.94,
2.187,0.18,-0.96,-0.20,0.07,-0.01,0.94,
2.187,0.18,-0.96,-0.20,0.07,-0.02,0.94,
2.189,0.18,-0.96,-0.20,0.07,-0.01,0.93,
2.191,0.18,-0.96,-0.20,0.07,-0.01,0.93,
2.192,0.12,-0.98,-0.31,0.07,-0.01,0.93,
2.194,0.12,-0.98,-0.31,0.07,-0.01,0.93,
2.196,0.12,-0.98,-0.31,0.07,-0.01,0.93,
2.197,0.10,-0.95,-0.39,0.07,-0.01,0.93,
2.198,0.10,-0.95,-0.39,0.07,-0.01,0.93,
2.201,0.10,-0.95,-0.39,0.07,-0.00,0.93,
2.201,0.06,-0.92,-0.46,0.07,-0.00,0.93,
2.208,0.06,-0.92,-0.46,0.07,0.00,0.93,
2.209,0.06,-0.92,-0.46,0.07,0.01,0.93,
2.209,0.04,-0.85,-0.45,0.07,0.01,0.93,
2.21,0.04,-0.85,-0.45,0.07,0.01,0.94,
2.211,0.03,-0.76,-0.40,0.07,0.01,0.94,
2.211,0.03,-0.76,-0.40,0.06,0.01,0.94,
2.214,0.03,-0.76,-0.40,0.06,0.01,0.94,
2.216,0.03,-0.76,-0.40,0.06,0.02,0.95,
2.216,0.03,-0.69,-0.34,0.06,0.02,0.95,
2.223,0.03,-0.69,-0.34,0.07,0.02,0.96,
2.223,0.03,-0.69,-0.34,0.07,0.03,0.96,
2.223,0.02,-0.61,-0.25,0.07,0.03,0.96,
2.223,0.02,-0.61,-0.25,0.06,0.03,0.97,
2.226,0.02,-0.61,-0.25,0.06,0.03,0.98,
2.226,0.05,-0.51,-0.13,0.06,0.03,0.98,
2.228,0.05,-0.51,-0.13,0.06,0.03,0.99,
2.23,0.05,-0.51,-0.13,0.06,0.03,1.00,
2.231,0.04,-0.46,0.01,0.06,0.03,1.00,
2.233,0.04,-0.46,0.01,0.06,0.03,1.00,
2.235,0.04,-0.46,0.01,0.06,0.03,1.01,
2.236,0.03,-0.42,0.19,0.06,0.03,1.01,
2.238,0.03,-0.42,0.19,0.06,0.03,1.02,
2.24,0.03,-0.42,0.19,0.05,0.03,1.02,
2.241,0.01,-0.42,0.34,0.05,0.03,1.02,
2.243,0.01,-0.42,0.34,0.05,0.02,1.03,
2.245,0.01,-0.42,0.34,0.05,0.02,1.03,
2.245,0.00,-0.48,0.46,0.05,0.02,1.03,
2.248,0.00,-0.48,0.46,0.05,0.01,1.03,
2.25,0.00,-0.48,0.46,0.05,0.01,1.03,
2.25,-0.03,-0.53,0.53,0.05,0.01,1.03,
2.254,-0.03,-0.53,0.53,0.05,0.01,1.03,
2.255,-0.03,-0.53,0.53,0.05,0.00,1.03,
2.256,-0.03,-0.61,0.57,0.05,0.00,1.03,
2.257,-0.03,-0.61,0.57,0.05,0.00,1.03,
2.26,-0.03,-0.61,0.57,0.05,-0.00,1.03,
2.26,-0.03,-0.67,0.56,0.05,-0.00,1.03,
2.262,-0.03,-0.67,0.56,0.05,-0.00,1.03,
2.265,-0.03,-0.67,0.56,0.05,-0.01,1.02,
2.265,-0.03,-0.74,0.54,0.05,-0.01,1.02,
2.267,-0.03,-0.74,0.54,0.05,-0.01,1.02,
2.269,-0.03,-0.74,0.54,0.05,-0.01,1.02,
2.27,-0.05,-0.79,0.48,0.05,-0.01,1.02,
2.273,-0.05,-0.79,0.48,0.05,-0.01,1.01,
2.275,-0.05,-0.79,0.48,0.05,-0.00,1.00,
2.275,-0.03,-0.80,0.40,0.05,-0.00,1.00,
2.277,-0.03,-0.80,0.40,0.05,-0.00,1.00,
2.279,-0.03,-0.80,0.40,0.05,0.00,0.99,
2.279,-0.02,-0.76,0.30,0.05,0.00,0.99,
2.282,-0.02,-0.76,0.30,0.05,0.00,0.99,
2.285,-0.02,-0.76,0.30,0.04,0.01,0.98,
2.286,-0.03,-0.72,0.19,0.04,0.01,0.98,
2.287,-0.03,-0.72,0.19,0.04,0.01,0.98,
2.289,-0.03,-0.72,0.19,0.04,0.01,0.97,
2.29,-0.08,-0.65,0.08,0.04,0.01,0.97,
2.293,-0.08,-0.65,0.08,0.03,0.02,0.97,
2.294,-0.08,-0.65,0.08,0.03,0.02,0.97,
2.294,-0.15,-0.58,-0.00,0.03,0.02,0.97,
2.296,-0.15,-0.58,-0.00,0.02,0.02,0.97,
2.299,-0.15,-0.58,-0.00,0.02,0.03,0.98,
2.299,-0.22,-0.52,-0.03,0.02,0.03,0.98,
2.302,-0.22,-0.52,-0.03,0.01,0.04,0.98,
2.304,-0.29,-0.43,-0.02,0.01,0.04,0.98,
2.304,-0.29,-0.43,-0.02,0.01,0.04,0.98,
2.306,-0.29,-0.43,-0.02,0.01,0.04,0.99,
2.309,-0.29,-0.43,-0.02,0.00,0.05,1.00,
2.309,-0.38,-0.33,0.05,0.00,0.05,1.00,
2.311,-0.38,-0.33,0.05,-0.00,0.05,1.00,
2.314,-0.38,-0.33,0.05,-0.01,0.05,1.01,
2.314,-0.45,-0.24,0.15,-0.01,0.05,1.01,
2.316,-0.45,-0.24,0.15,-0.01,0.06,1.01,
2.325,-0.45,-0.24,0.15,-0.01,0.06,1.02,
2.325,-0.51,-0.17,0.28,-0.01,0.06,1.02,
2.326,-0.51,-0.17,0.28,-0.01,0.06,1.03,
2.326,-0.51,-0.17,0.28,-0.01,0.06,1.03,
2.326,-0.58,-0.11,0.39,-0.01,0.06,1.03,
2.327,-0.58,-0.11,0.39,-0.02,0.06,1.04,
2.328,-0.60,-0.07,0.51,-0.02,0.06,1.04,
2.328,-0.60,-0.07,0.51,-0.02,0.06,1.04,
2.331,-0.60,-0.07,0.51,-0.02,0.05,1.05,
2.334,-0.60,-0.07,0.51,-0.02,0.05,1.05,
2.334,-0.61,-0.10,0.62,-0.02,0.05,1.05,
2.337,-0.61,-0.10,0.62,-0.01,0.05,1.06,
2.338,-0.61,-0.10,0.62,-0.01,0.04,1.06,
2.339,-0.61,-0.15,0.71,-0.01,0.04,1.06,
2.341,-0.61,-0.15,0.71,-0.02,0.03,1.06,
2.343,-0.61,-0.15,0.71,-0.02,0.03,1.06,
2.343,-0.58,-0.23,0.78,-0.02,0.03,1.06,
2.345,-0.58,-0.23,0.78,-0.02,0.02,1.07,
2.348,-0.58,-0.23,0.78,-0.02,0.02,1.07,
2.348,-0.60,-0.34,0.82,-0.02,0.02,1.07,
2.351,-0.60,-0.34,0.82,-0.02,0.01,1.06,
2.354,-0.60,-0.34,0.82,-0.02,0.01,1.06,
2.354,-0.63,-0.45,0.83,-0.02,0.01,1.06,
2.355,-0.63,-0.45,0.83,-0.02,0.00,1.06,
2.358,-0.63,-0.55,0.80,-0.02,0.00,1.06,
2.358,-0.63,-0.55,0.80,-0.01,-0.01,1.06,
2.36,-0.63,-0.55,0.80,-0.01,-0.01,1.05,
2.363,-0.63,-0.55,0.80,-0.00,-0.01,1.05,
2.363,-0.60,-0.64,0.75,-0.00,-0.01,1.05,
2.365,-0.60,-0.64,0.75,0.00,-0.01,1.04,
2.369,-0.60,-0.64,0.75,0.01,-0.01,1.04,
2.369,-0.54,-0.70,0.66,0.01,-0.01,1.04,
2.37,-0.54,-0.70,0.66,0.01,-0.01,1.03,
2.374,-0.54,-0.70,0.66,0.02,-0.00,1.03,
2.374,-0.44,-0.69,0.56,0.02,-0.00,1.03,
2.375,-0.44,-0.69,0.56,0.03,0.00,1.02,
2.377,-0.44,-0.69,0.56,0.04,0.01,1.01,
2.377,-0.31,-0.62,0.44,0.04,0.01,1.01,
2.38,-0.31,-0.62,0.44,0.05,0.01,1.01,
2.382,-0.31,-0.62,0.44,0.06,0.02,1.00,
2.382,-0.16,-0.51,0.32,0.06,0.02,1.00,
2.385,-0.16,-0.51,0.32,0.06,0.02,1.00,
2.387,-0.16,-0.51,0.32,0.06,0.02,1.00,
2.388,-0.03,-0.42,0.22,0.06,0.02,1.00,
2.389,-0.03,-0.42,0.22,0.07,0.02,0.99,
2.393,-0.03,-0.42,0.22,0.07,0.02,0.99,
2.394,0.06,-0.37,0.13,0.07,0.02,0.99,
2.394,0.06,-0.37,0.13,0.07,0.02,0.99,
2.397,0.06,-0.37,0.13,0.07,0.02,0.99,
2.397,0.14,-0.32,0.08,0.07,0.02,0.99,
2.399,0.14,-0.32,0.08,0.07,0.02,0.99,
2.402,0.14,-0.32,0.08,0.07,0.02,0.98,
2.402,0.14,-0.33,0.05,0.07,0.02,0.98,
2.404,0.14,-0.33,0.05,0.06,0.01,0.99,
2.407,0.14,-0.33,0.05,0.06,0.01,0.99,
2.407,0.10,-0.36,0.01,0.06,0.01,0.99,
2.409,0.10,-0.36,0.01,0.05,0.01,0.99,
2.413,0.10,-0.36,0.01,0.04,0.01,0.99,
2.413,0.02,-0.42,0.04,0.04,0.01,0.99,
2.414,0.02,-0.42,0.04,0.03,0.01,0.99,
2.417,0.02,-0.42,0.04,0.03,0.01,1.00,
2.417,-0.09,-0.45,0.06,0.03,0.01,1.00,
2.424,-0.09,-0.45,0.06,0.03,0.00,1.00,
2.425,-0.09,-0.45,0.06,0.02,0.01,1.00,
2.425,-0.24,-0.48,0.11,0.02,0.01,1.00,
2.426,-0.24,-0.48,0.11,0.02,0.01,1.01,
2.427,-0.24,-0.48,0.11,0.01,0.01,1.01,
2.427,-0.33,-0.49,0.17,0.01,0.01,1.01,
2.429,-0.33,-0.49,0.17,0.01,0.01,1.01,
2.431,-0.42,-0.48,0.22,0.01,0.01,1.01,
2.431,-0.42,-0.48,0.22,0.01,0.01,1.01,
2.433,-0.42,-0.48,0.22,0.01,0.01,1.01,
2.437,-0.42,-0.48,0.22,0.00,0.02,1.01,
2.437,-0.47,-0.45,0.24,0.00,0.02,1.01,
2.438,-0.47,-0.45,0.24,0.01,0.02,1.02,
2.441,-0.47,-0.45,0.24,0.01,0.02,1.02,
2.441,-0.49,-0.40,0.28,0.01,0.02,1.02,
2.443,-0.49,-0.40,0.28,0.00,0.02,1.02,
2.446,-0.49,-0.40,0.28,0.01,0.02,1.02,
2.446,-0.48,-0.36,0.30,0.01,0.02,1.02,
2.448,-0.48,-0.36,0.30,0.01,0.02,1.01,
2.451,-0.48,-0.36,0.30,0.00,0.03,1.01,
2.451,-0.47,-0.33,0.30,0.00,0.03,1.01,
2.454,-0.47,-0.33,0.30,0.01,0.03,1.01,
2.456,-0.47,-0.33,0.30,0.01,0.03,1.01,
2.456,-0.46,-0.32,0.28,0.01,0.03,1.01,
2.458,-0.46,-0.32,0.28,0.01,0.03,1.01,
2.461,-0.46,-0.32,0.28,0.01,0.03,1.01,
2.461,-0.43,-0.30,0.25,0.01,0.03,1.01,
2.463,-0.43,-0.30,0.25,0.02,0.03,1.00,
2.465,-0.43,-0.30,0.25,0.02,0.04,1.00,
2.465,-0.41,-0.27,0.20,0.02,0.04,1.00,
2.468,-0.41,-0.27,0.20,0.02,0.04,0.99,
2.471,-0.41,-0.27,0.20,0.02,0.04,0.99,
2.471,-0.36,-0.22,0.13,0.02,0.04,0.99,
2.474,-0.36,-0.22,0.13,0.02,0.04,0.98,
2.475,-0.36,-0.22,0.13,0.02,0.04,0.98,
2.475,-0.34,-0.19,0.04,0.02,0.04,0.98,
2.477,-0.34,-0.19,0.04,0.02,0.04,0.98,
2.48,-0.34,-0.19,0.04,0.01,0.04,0.97,
2.481,-0.35,-0.15,-0.04,0.01,0.04,0.97,
2.482,-0.35,-0.15,-0.04,0.01,0.04,0.97,
2.485,-0.35,-0.15,-0.04,0.01,0.04,0.96,
2.486,-0.38,-0.16,-0.13,0.01,0.04,0.96,
2.488,-0.38,-0.16,-0.13,0.00,0.04,0.96,
2.49,-0.38,-0.16,-0.13,-0.00,0.04,0.96,
2.49,-0.42,-0.15,-0.20,-0.00,0.04,0.96,
2.494,-0.42,-0.15,-0.20,-0.00,0.04,0.96,
2.495,-0.42,-0.15,-0.20,-0.01,0.04,0.96,
2.495,-0.51,-0.20,-0.25,-0.01,0.04,0.96,
2.497,-0.51,-0.20,-0.25,-0.01,0.04,0.96,
2.5,-0.51,-0.20,-0.25,-0.01,0.04,0.96,
2.5,-0.59,-0.22,-0.28,-0.01,0.04,0.96,
2.506,-0.59,-0.22,-0.28,-0.02,0.03,0.95,
2.507,-0.59,-0.22,-0.28,-0.02,0.03,0.96,
2.507,-0.66,-0.22,-0.28,-0.02,0.03,0.96,
2.507,-0.66,-0.22,-0.28,-0.02,0.03,0.96,
2.51,-0.66,-0.22,-0.28,-0.02,0.03,0.96,
2.51,-0.72,-0.24,-0.28,-0.02,0.03,0.96,
2.513,-0.72,-0.24,-0.28,-0.03,0.03,0.96,
2.515,-0.72,-0.24,-0.28,-0.03,0.03,0.96,
2.515,-0.76,-0.25,-0.25,-0.03,0.03,0.96,
2.517,-0.76,-0.25,-0.25,-0.03,0.03,0.97,
2.52,-0.76,-0.25,-0.25,-0.03,0.03,0.97,
2.52,-0.77,-0.24,-0.22,-0.03,0.03,0.97,
2.522,-0.77,-0.24,-0.22,-0.03,0.03,0.97,
2.524,-0.77,-0.24,-0.22,-0.03,0.03,0.97,
2.524,-0.81,-0.26,-0.17,-0.03,0.03,0.97,
2.526,-0.81,-0.26,-0.17,-0.03,0.03,0.97,
2.529,-0.81,-0.26,-0.17,-0.03,0.03,0.98,
2.529,-0.81,-0.24,-0.13,-0.03,0.03,0.98,
2.531,-0.81,-0.24,-0.13,-0.03,0.03,0.98,
2.535,-0.81,-0.24,-0.13,-0.03,0.03,0.98,
2.536,-0.81,-0.26,-0.08,-0.03,0.03,0.98,
2.537,-0.81,-0.26,-0.08,-0.02,0.03,0.98,
2.539,-0.81,-0.26,-0.08,-0.02,0.02,0.98,
2.54,-0.78,-0.29,-0.03,-0.02,0.02,0.98,
2.541,-0.78,-0.29,-0.03,-0.02,0.02,0.99,
2.544,-0.78,-0.29,-0.03,-0.02,0.02,0.99,
2.544,-0.70,-0.30,0.01,-0.02,0.02,0.99,
2.546,-0.70,-0.30,0.01,-0.01,0.02,1.00,
2.549,-0.70,-0.30,0.01,-0.01,0.02,1.00,
2.549,-0.64,-0.33,0.05,-0.01,0.02,1.00,
2.551,-0.64,-0.33,0.05,-0.01,0.02,1.00,
2.554,-0.64,-0.33,0.05,-0.01,0.01,1.00,
2.556,-0.57,-0.35,0.11,-0.01,0.01,1.00,
2.556,-0.57,-0.35,0.11,-0.00,0.01,1.00,
2.559,-0.57,-0.35,0.11,0.00,0.01,1.00,
2.559,-0.52,-0.39,0.16,0.00,0.01,1.00,
2.561,-0.52,-0.39,0.16,0.00,0.01,1.00,
2.563,-0.52,-0.39,0.16,0.01,0.01,1.00,
2.563,-0.44,-0.42,0.18,0.01,0.01,1.00,
2.565,-0.44,-0.42,0.18,0.01,0.01,1.00,
2.568,-0.44,-0.42,0.18,0.01,0.01,1.00,
2.569,-0.36,-0.45,0.20,0.01,0.01,1.00,
2.571,-0.36,-0.45,0.20,0.02,0.01,1.00,
2.574,-0.36,-0.45,0.20,0.02,0.01,1.00,
2.574,-0.30,-0.44,0.19,0.02,0.01,1.00,
2.575,-0.30,-0.44,0.19,0.02,0.01,1.00,
2.578,-0.30,-0.44,0.19,0.03,0.01,1.00,
2.578,-0.23,-0.45,0.19,0.03,0.01,1.00,
2.58,-0.23,-0.45,0.19,0.03,0.00,1.00,
2.583,-0.23,-0.45,0.19,0.03,0.00,1.00,
2.583,-0.18,-0.48,0.17,0.03,0.00,1.00,
2.585,-0.18,-0.48,0.17,0.03,0.00,1.00,
2.588,-0.18,-0.48,0.17,0.03,0.00,0.99,
2.588,-0.16,-0.50,0.14,0.03,0.00,0.99,
2.59,-0.16,-0.50,0.14,0.03,0.00,0.99,
2.594,-0.16,-0.50,0.14,0.02,0.00,0.99,
2.594,-0.14,-0.50,0.10,0.02,0.00,0.99,
2.595,-0.14,-0.50,0.10,0.02,0.00,0.99,
2.598,-0.14,-0.50,0.10,0.02,0.01,0.99,
2.598,-0.17,-0.51,0.07,0.02,0.01,0.99,
2.6,-0.17,-0.51,0.07,0.01,0.01,0.99,
2.608,-0.24,-0.48,0.05,0.01,0.01,0.99,
2.609,-0.24,-0.48,0.05,0.01,0.01,0.99,
2.609,-0.24,-0.48,0.05,0.00,0.01,0.99,
2.609,-0.24,-0.48,0.05,-0.00,0.02,0.99,
2.609,-0.31,-0.43,0.04,-0.00,0.02,0.99,
2.61,-0.31,-0.43,0.04,-0.01,0.02,0.99,
2.614,-0.31,-0.43,0.04,-0.02,0.03,0.99,
2.614,-0.42,-0.37,0.05,-0.02,0.03,0.99,
2.615,-0.42,-0.37,0.05,-0.02,0.03,0.99,
2.623,-0.42,-0.37,0.05,-0.03,0.03,0.99,
2.623,-0.56,-0.29,0.05,-0.03,0.03,0.99,
2.624,-0.56,-0.29,0.05,-0.04,0.04,0.99,
2.624,-0.56,-0.29,0.05,-0.04,0.04,0.99,
2.624,-0.68,-0.23,0.05,-0.04,0.04,0.99,
2.625,-0.68,-0.23,0.05,-0.05,0.05,0.98,
2.627,-0.68,-0.23,0.05,-0.05,0.05,0.98,
2.627,-0.80,-0.15,0.02,-0.05,0.05,0.98,
2.629,-0.80,-0.15,0.02,-0.06,0.05,0.98,
2.633,-0.80,-0.15,0.02,-0.06,0.06,0.98,
2.633,-0.90,-0.07,-0.00,-0.06,0.06,0.98,
2.634,-0.90,-0.07,-0.00,-0.06,0.06,0.98,
2.637,-0.90,-0.07,-0.00,-0.06,0.07,0.97,
2.637,-0.96,0.00,-0.04,-0.06,0.07,0.97,
2.639,-0.96,0.00,-0.04,-0.06,0.07,0.97,
2.642,-0.96,0.00,-0.04,-0.06,0.07,0.97,
2.642,-0.98,0.07,-0.09,-0.06,0.07,0.97,
2.644,-0.98,0.07,-0.09,-0.06,0.08,0.96,
2.647,-0.98,0.07,-0.09,-0.06,0.08,0.96,
2.647,-0.99,0.16,-0.16,-0.06,0.08,0.96,
2.649,-0.99,0.16,-0.16,-0.06,0.08,0.95,
2.652,-0.99,0.16,-0.16,-0.06,0.09,0.95,
2.652,-1.01,0.22,-0.24,-0.06,0.09,0.95,
2.654,-1.01,0.22,-0.24,-0.05,0.09,0.94,
2.657,-1.01,0.22,-0.24,-0.05,0.08,0.94,
2.657,-0.98,0.26,-0.32,-0.05,0.08,0.94,
2.659,-0.98,0.26,-0.32,-0.05,0.08,0.93,
2.661,-0.98,0.26,-0.32,-0.05,0.08,0.93,
2.661,-0.91,0.26,-0.43,-0.05,0.08,0.93,
2.663,-0.91,0.26,-0.43,-0.04,0.08,0.93,
2.666,-0.91,0.26,-0.43,-0.04,0.08,0.92,
2.666,-0.87,0.24,-0.51,-0.04,0.08,0.92,
2.669,-0.87,0.24,-0.51,-0.03,0.07,0.92,
2.671,-0.87,0.24,-0.51,-0.03,0.07,0.92,
2.672,-0.78,0.21,-0.58,-0.03,0.07,0.92,
2.674,-0.78,0.21,-0.58,-0.02,0.07,0.92,
2.676,-0.78,0.21,-0.58,-0.02,0.07,0.92,
2.677,-0.67,0.15,-0.60,-0.02,0.07,0.92,
2.678,-0.67,0.15,-0.60,-0.02,0.06,0.92,
2.681,-0.67,0.15,-0.60,-0.01,0.06,0.92,
2.681,-0.60,0.08,-0.61,-0.01,0.06,0.92,
2.684,-0.60,0.08,-0.61,-0.01,0.06,0.92,
2.686,-0.60,0.08,-0.61,-0.00,0.06,0.93,
2.686,-0.51,0.03,-0.59,-0.00,0.06,0.93,
2.688,-0.51,0.03,-0.59,-0.00,0.06,0.93,
2.691,-0.51,0.03,-0.59,-0.00,0.06,0.93,
2.691,-0.43,0.01,-0.54,-0.00,0.06,0.93,
2.694,-0.43,0.01,-0.54,0.00,0.06,0.94,
2.696,-0.43,0.01,-0.54,0.00,0.06,0.94,
2.696,-0.40,-0.01,-0.47,0.00,0.06,0.94,
2.698,-0.40,-0.01,-0.47,0.00,0.06,0.94,
2.701,-0.40,-0.01,-0.47,0.00,0.06,0.95,
2.702,-0.36,-0.01,-0.41,0.00,0.06,0.95,
2.703,-0.36,-0.01,-0.41,-0.00,0.06,0.95,
2.706,-0.36,-0.01,-0.41,-0.00,0.06,0.95,
2.706,-0.36,-0.02,-0.34,-0.00,0.06,0.95,
2.708,-0.36,-0.02,-0.34,-0.01,0.06,0.96,
2.711,-0.36,-0.02,-0.34,-0.01,0.06,0.96,
2.711,-0.38,-0.03,-0.26,-0.01,0.06,0.96,
2.714,-0.38,-0.03,-0.26,-0.01,0.06,0.96,
2.715,-0.38,-0.03,-0.26,-0.02,0.06,0.96,
2.716,-0.45,-0.02,-0.22,-0.02,0.06,0.96,
2.718,-0.45,-0.02,-0.22,-0.02,0.07,0.96,
2.726,-0.45,-0.02,-0.22,-0.02,0.07,0.96,
2.726,-0.49,0.02,-0.20,-0.02,0.07,0.96,
2.727,-0.49,0.02,-0.20,-0.02,0.07,0.96,
2.727,-0.49,0.02,-0.20,-0.02,0.07,0.96,
2.727,-0.52,0.07,-0.20,-0.02,0.07,0.96,
2.727,-0.52,0.07,-0.20,-0.02,0.07,0.96,
2.73,-0.52,0.07,-0.20,-0.02,0.08,0.96,
2.731,-0.55,0.13,-0.20,-0.02,0.08,0.96,
2.735,-0.55,0.13,-0.20,-0.02,0.08,0.96,
2.735,-0.55,0.13,-0.20,-0.02,0.08,0.96,
2.735,-0.56,0.17,-0.19,-0.02,0.08,0.96,
2.737,-0.56,0.17,-0.19,-0.02,0.08,0.96,
2.739,-0.56,0.17,-0.19,-0.02,0.09,0.95,
2.74,-0.55,0.22,-0.21,-0.02,0.09,0.95,
2.742,-0.55,0.22,-0.21,-0.02,0.09,0.95,
2.745,-0.55,0.22,-0.21,-0.02,0.09,0.95,
2.745,-0.55,0.24,-0.24,-0.02,0.09,0.95,
2.747,-0.55,0.24,-0.24,-0.02,0.09,0.95,
2.75,-0.55,0.24,-0.24,-0.02,0.09,0.95,
2.75,-0.52,0.26,-0.27,-0.02,0.09,0.95,
2.753,-0.52,0.26,-0.27,-0.02,0.09,0.95,
2.755,-0.49,0.30,-0.26,-0.02,0.09,0.95,
2.755,-0.49,0.30,-0.26,-0.01,0.09,0.95,
2.76,-0.49,0.30,-0.26,-0.02,0.09,0.95,
2.76,-0.49,0.30,-0.26,-0.01,0.09,0.95,
2.761,-0.45,0.30,-0.26,-0.01,0.09,0.95,
2.762,-0.45,0.30,-0.26,-0.01,0.09,0.95,
2.764,-0.45,0.30,-0.26,-0.01,0.09,0.95,
2.764,-0.43,0.30,-0.26,-0.01,0.09,0.95,
2.767,-0.43,0.30,-0.26,-0.01,0.09,0.96,
2.769,-0.43,0.30,-0.26,-0.01,0.09,0.96,
2.769,-0.40,0.29,-0.23,-0.01,0.09,0.96,
2.771,-0.40,0.29,-0.23,-0.01,0.09,0.96,
2.774,-0.40,0.29,-0.23,-0.01,0.08,0.96,
2.774,-0.35,0.27,-0.20,-0.01,0.08,0.96,
2.776,-0.35,0.27,-0.20,-0.01,0.08,0.96,
2.779,-0.35,0.27,-0.20,-0.01,0.08,0.96,
2.78,-0.32,0.23,-0.17,-0.01,0.08,0.96,
2.781,-0.32,0.23,-0.17,-0.01,0.08,0.96,
2.784,-0.32,0.23,-0.17,-0.01,0.08,0.96,
2.785,-0.32,0.21,-0.14,-0.01,0.08,0.96,
2.786,-0.32,0.21,-0.14,-0.01,0.08,0.96,
2.789,-0.32,0.21,-0.14,-0.01,0.08,0.96,
2.789,-0.31,0.19,-0.14,-0.01,0.08,0.96,
2.791,-0.31,0.19,-0.14,-0.01,0.08,0.96,
2.794,-0.31,0.19,-0.14,-0.01,0.08,0.96,
2.794,-0.32,0.19,-0.13,-0.01,0.08,0.96,
2.796,-0.32,0.19,-0.13,-0.01,0.08,0.97,
2.799,-0.32,0.19,-0.13,-0.01,0.08,0.97,
2.799,-0.32,0.19,-0.12,-0.01,0.08,0.97,
2.801,-0.32,0.19,-0.12,-0.01,0.09,0.97,
2.803,-0.32,0.19,-0.12,-0.01,0.09,0.97,
2.804,-0.30,0.21,-0.09,-0.01,0.09,0.97,
2.806,-0.30,0.21,-0.09,-0.02,0.09,0.98,
2.808,-0.30,0.21,-0.09,-0.02,0.09,0.98,
2.809,-0.31,0.25,-0.06,-0.02,0.09,0.98,
2.811,-0.31,0.25,-0.06,-0.02,0.09,0.98,
2.814,-0.31,0.25,-0.06,-0.02,0.09,0.98,
2.814,-0.35,0.27,0.01,-0.02,0.09,0.98,
2.815,-0.35,0.27,0.01,-0.02,0.09,0.99,
2.823,-0.35,0.27,0.01,-0.02,0.09,0.99,
2.823,-0.37,0.30,0.07,-0.02,0.09,0.99,
2.824,-0.37,0.30,0.07,-0.03,0.09,0.99,
2.824,-0.37,0.30,0.07,-0.03,0.10,1.00,
2.824,-0.39,0.33,0.11,-0.03,0.10,1.00,
2.825,-0.39,0.33,0.11,-0.03,0.09,1.00,
2.828,-0.39,0.33,0.11,-0.03,0.09,1.00,
2.828,-0.44,0.34,0.17,-0.03,0.09,1.00,
2.83,-0.44,0.34,0.17,-0.03,0.09,1.00,
2.835,-0.44,0.34,0.17,-0.02,0.09,1.00,
2.835,-0.42,0.33,0.21,-0.02,0.09,1.00,
2.835,-0.42,0.33,0.21,-0.02,0.09,1.01,
2.837,-0.42,0.33,0.21,-0.02,0.09,1.01,
2.838,-0.39,0.33,0.25,-0.02,0.09,1.01,
2.84,-0.39,0.33,0.25,-0.02,0.09,1.01,
2.842,-0.39,0.33,0.25,-0.02,0.09,1.01,
2.843,-0.35,0.32,0.29,-0.02,0.09,1.01,
2.845,-0.35,0.32,0.29,-0.01,0.09,1.02,
2.848,-0.35,0.32,0.29,-0.01,0.09,1.02,
2.848,-0.28,0.30,0.34,-0.01,0.09,1.02,
2.85,-0.28,0.30,0.34,-0.01,0.09,1.02,
2.854,-0.28,0.30,0.34,-0.00,0.09,1.03,
2.854,-0.21,0.28,0.41,-0.00,0.09,1.03,
2.854,-0.21,0.28,0.41,0.00,0.08,1.03,
2.857,-0.21,0.28,0.41,-0.00,0.08,1.03,
2.857,-0.13,0.25,0.47,-0.00,0.08,1.03,
2.86,-0.13,0.25,0.47,0.00,0.08,1.04,
2.862,-0.13,0.25,0.47,-0.00,0.08,1.04,
2.862,-0.07,0.20,0.52,-0.00,0.08,1.04,
2.864,-0.07,0.20,0.52,0.00,0.07,1.04,
2.867,-0.07,0.20,0.52,0.00,0.07,1.05,
2.867,-0.05,0.16,0.59,0.00,0.07,1.05,
2.869,-0.05,0.16,0.59,0.00,0.07,1.05,
2.873,-0.05,0.16,0.59,0.00,0.07,1.05,
2.873,-0.02,0.13,0.63,0.00,0.07,1.05,
2.874,-0.02,0.13,0.63,0.00,0.07,1.05,
2.877,-0.02,0.13,0.63,0.01,0.07,1.05,
2.877,-0.01,0.09,0.65,0.01,0.07,1.05,
2.879,-0.01,0.09,0.65,0.01,0.06,1.05,
2.882,-0.01,0.09,0.65,0.01,0.06,1.05,
2.882,0.02,0.05,0.66,0.01,0.06,1.05,
2.884,0.02,0.05,0.66,0.01,0.06,1.05,
2.887,0.02,0.05,0.66,0.01,0.06,1.05,
2.888,0.05,0.02,0.64,0.01,0.06,1.05,
2.889,0.05,0.02,0.64,0.01,0.06,1.04,
2.892,0.05,0.02,0.64,0.01,0.06,1.04,
2.892,0.08,-0.02,0.62,0.01,0.06,1.04,
2.894,0.08,-0.02,0.62,0.02,0.07,1.04,
2.896,0.08,-0.02,0.62,0.02,0.06,1.03,
2.897,0.12,-0.00,0.58,0.02,0.06,1.03,
2.899,0.12,-0.00,0.58,0.02,0.06,1.03,
2.906,0.12,-0.00,0.58,0.02,0.06,1.03,
2.907,0.14,0.00,0.49,0.02,0.06,1.03,
2.907,0.14,0.00,0.49,0.02,0.06,1.02,
2.907,0.14,0.00,0.49,0.02,0.06,1.02,
2.907,0.18,-0.01,0.43,0.02,0.06,1.02,
2.909,0.18,-0.01,0.43,0.03,0.06,1.02,
2.911,0.18,-0.01,0.43,0.03,0.06,1.01,
2.911,0.21,-0.02,0.36,0.03,0.06,1.01,
2.913,0.21,-0.02,0.36,0.03,0.06,1.01,
2.92,0.21,-0.02,0.36,0.03,0.06,1.01,
2.92,0.25,-0.01,0.29,0.03,0.06,1.01,
2.92,0.25,-0.01,0.29,0.03,0.06,1.01,
2.921,0.25,-0.01,0.29,0.03,0.06,1.00,
2.921,0.28,-0.03,0.24,0.03,0.06,1.00,
2.923,0.28,-0.03,0.24,0.03,0.06,1.01,
2.925,0.28,-0.03,0.24,0.03,0.06,1.00,
2.926,0.29,-0.03,0.20,0.03,0.06,1.00,
2.928,0.29,-0.03,0.20,0.03,0.06,1.00,
2.931,0.29,-0.03,0.20,0.03,0.06,1.00,
2.931,0.31,-0.04,0.20,0.03,0.06,1.00,
2.934,0.31,-0.04,0.20,0.03,0.06,1.01,
2.935,0.31,-0.04,0.20,0.03,0.06,1.01,
2.935,0.31,-0.02,0.19,0.03,0.06,1.01,
2.938,0.31,-0.02,0.19,0.03,0.06,1.01,
2.94,0.31,-0.02,0.19,0.03,0.06,1.01,
2.941,0.31,-0.01,0.21,0.03,0.06,1.01,
2.943,0.31,-0.01,0.21,0.03,0.06,1.01,
2.945,0.29,-0.03,0.24,0.03,0.06,1.01,
2.945,0.29,-0.03,0.24,0.03,0.06,1.01,
2.948,0.29,-0.03,0.24,0.03,0.06,1.02,
2.951,0.25,-0.02,0.26,0.03,0.06,1.02,
2.952,0.25,-0.02,0.26,0.03,0.06,1.02,
2.955,0.25,-0.02,0.26,0.02,0.06,1.02,
2.955,0.25,-0.02,0.26,0.02,0.06,1.02,
2.955,0.24,-0.03,0.32,0.02,0.06,1.02,
2.957,0.24,-0.03,0.32,0.02,0.06,1.02,
2.96,0.24,-0.03,0.32,0.02,0.06,1.02,
2.96,0.20,-0.04,0.33,0.02,0.06,1.02,
2.962,0.20,-0.04,0.33,0.02,0.06,1.02,
2.965,0.20,-0.04,0.33,0.01,0.06,0.93,
2.965,0.19,-0.03,0.34,0.01,0.06,0.93,
2.967,0.19,-0.03,0.34,-0.01,0.06,0.79,
2.97,0.19,-0.03,0.34,0.00,0.08,0.76,
2.97,0.11,-0.03,-0.10,0.00,0.08,0.76,
2.973,0.11,-0.03,-0.10,0.02,0.09,0.82,
2.975,0.11,-0.03,-0.10,0.03,0.09,0.88,
2.975,-0.02,0.10,-2.07,0.03,0.09,0.88,
2.977,-0.02,0.10,-2.07,0.02,0.09,0.91,
2.979,-0.02,0.10,-2.07,0.01,0.08,0.90,
2.98,0.28,0.31,-1.30,0.01,0.08,0.90,
2.982,0.28,0.31,-1.30,0.00,0.08,0.88,
2.985,0.28,0.31,-1.30,-0.00,0.08,0.87,
2.985,0.17,0.26,-0.74,-0.00,0.08,0.87,
2.987,0.17,0.26,-0.74,-0.00,0.07,0.86,
2.989,0.17,0.26,-0.74,0.00,0.07,0.87,
2.989,0.05,0.17,-1.04,0.00,0.07,0.87,
2.993,0.05,0.17,-1.04,-0.00,0.07,0.88,
2.994,0.05,0.17,-1.04,-0.00,0.07,0.90,
2.994,0.06,0.14,-1.17,-0.00,0.07,0.90,
2.996,0.06,0.14,-1.17,-0.01,0.07,0.92,
3.005,0.06,0.14,-1.17,-0.01,0.06,0.93,
3.005,0.06,0.15,-0.84,-0.01,0.06,0.93,
3.005,0.06,0.15,-0.84,-0.01,0.06,0.95,
3.005,0.06,0.15,-0.84,-0.01,0.06,0.96,
3.005,0.02,0.11,-0.52,-0.01,0.06,0.96,
3.006,0.02,0.11,-0.52,-0.01,0.06,0.98,
3.009,0.04,0.08,-0.24,-0.01,0.06,0.98,
3.009,0.04,0.08,-0.24,-0.00,0.06,0.99,
3.011,0.04,0.08,-0.24,-0.00,0.06,1.01,
3.014,0.04,0.08,-0.24,-0.00,0.06,1.02,
3.014,0.09,0.09,0.06,-0.00,0.06,1.02,
3.016,0.09,0.09,0.06,-0.00,0.06,1.04,
3.019,0.09,0.09,0.06,-0.00,0.06,1.05,
3.019,0.11,0.10,0.35,-0.00,0.06,1.05,
3.021,0.11,0.10,0.35,-0.01,0.05,1.06,
3.023,0.11,0.10,0.35,-0.01,0.05,1.08,
3.024,0.09,0.09,0.62,-0.01,0.05,1.08,
3.026,0.09,0.09,0.62,-0.01,0.05,1.09,
3.028,0.09,0.09,0.62,-0.02,0.04,1.10,
3.029,0.04,0.04,0.85,-0.02,0.04,1.10,
3.031,0.04,0.04,0.85,-0.03,0.04,1.10,
3.034,0.04,0.04,0.85,-0.03,0.04,1.11,
3.034,-0.04,-0.01,1.06,-0.03,0.04,1.11,
3.036,-0.04,-0.01,1.06,-0.04,0.04,1.12,
3.039,-0.04,-0.01,1.06,-0.04,0.04,1.12,
3.039,-0.14,-0.06,1.22,-0.04,0.04,1.12,
3.041,-0.14,-0.06,1.22,-0.04,0.05,1.11,
3.043,-0.14,-0.06,1.22,-0.04,0.05,1.11,
3.044,-0.24,-0.05,1.29,-0.04,0.05,1.11,
3.045,-0.24,-0.05,1.29,-0.04,0.05,1.10,
3.048,-0.24,-0.05,1.29,-0.04,0.06,1.08,
3.048,-0.29,-0.00,1.23,-0.04,0.06,1.08,
3.051,-0.29,-0.00,1.23,-0.04,0.06,1.07,
3.054,-0.29,-0.00,1.23,-0.03,0.07,1.06,
3.054,-0.27,0.05,1.02,-0.03,0.07,1.06,
3.055,-0.27,0.05,1.02,-0.03,0.07,1.05,
3.058,-0.27,0.05,1.02,-0.03,0.07,1.04,
3.058,-0.21,0.12,0.78,-0.03,0.07,1.04,
3.06,-0.21,0.12,0.78,-0.03,0.08,1.03,
3.063,-0.21,0.12,0.78,-0.03,0.08,1.02,
3.063,-0.20,0.19,0.54,-0.03,0.08,1.02,
3.065,-0.20,0.19,0.54,-0.03,0.08,1.01,
