
time,ax,ay,az,gFx,gFy,gFz,
0.002,-0.12,0.13,0.23,-0.03,0.09,0.99,
0.002,-0.12,0.13,0.23,-0.03,0.09,0.98,
0.002,-0.15,0.15,0.10,-0.03,0.09,0.98,
0.002,-0.15,0.15,0.10,-0.03,0.09,0.98,
0.003,-0.15,0.15,0.10,-0.03,0.09,0.97,
0.003,-0.15,0.16,-0.01,-0.03,0.09,0.97,
0.005,-0.15,0.16,-0.01,-0.03,0.09,0.97,
0.008,-0.15,0.16,-0.01,-0.03,0.09,0.96,
0.008,-0.15,0.14,-0.11,-0.03,0.09,0.96,
0.011,-0.15,0.14,-0.11,-0.03,0.09,0.96,
0.013,-0.15,0.14,-0.11,-0.03,0.09,0.95,
0.013,-0.14,0.16,-0.20,-0.03,0.09,0.95,
0.015,-0.14,0.16,-0.20,-0.03,0.09,0.95,
0.018,-0.14,0.16,-0.20,-0.03,0.09,0.95,
0.018,-0.15,0.16,-0.28,-0.03,0.09,0.95,
0.02,-0.15,0.16,-0.28,-0.03,0.09,0.95,
0.023,-0.15,0.16,-0.28,-0.03,0.09,0.94,
0.023,-0.15,0.16,-0.33,-0.03,0.09,0.94,
0.025,-0.15,0.16,-0.33,-0.03,0.10,0.95,
0.028,-0.14,0.16,-0.36,-0.03,0.10,0.95,
0.028,-0.14,0.16,-0.36,-0.03,0.10,0.95,
0.03,-0.14,0.16,-0.36,-0.03,0.10,0.94,
0.033,-0.14,0.16,-0.36,-0.04,0.09,0.94,
0.033,-0.14,0.16,-0.36,-0.04,0.09,0.94,
0.035,-0.14,0.16,-0.36,-0.04,0.09,0.94,
0.037,-0.14,0.16,-0.36,-0.04,0.09,0.94,
0.038,-0.14,0.14,-0.37,-0.04,0.09,0.94,
0.04,-0.14,0.14,-0.37,-0.04,0.09,0.94,
0.042,-0.14,0.14,-0.37,-0.04,0.09,0.94,
0.043,-0.14,0.10,-0.38,-0.04,0.09,0.94,
0.045,-0.14,0.10,-0.38,-0.03,0.09,0.94,
0.047,-0.14,0.10,-0.38,-0.03,0.08,0.94,
0.048,-0.14,0.05,-0.36,-0.03,0.08,0.94,
0.05,-0.14,0.05,-0.36,-0.03,0.08,0.94,
0.053,-0.14,0.05,-0.36,-0.03,0.08,0.94,
0.053,-0.11,0.02,-0.37,-0.03,0.08,0.94,
0.054,-0.11,0.02,-0.37,-0.03,0.08,0.94,
0.057,-0.11,0.02,-0.37,-0.03,0.08,0.94,
0.058,-0.11,0.00,-0.38,-0.03,0.08,0.94,
0.06,-0.11,0.00,-0.38,-0.03,0.08,0.94,
0.062,-0.11,0.00,-0.38,-0.03,0.08,0.94,
0.063,-0.07,-0.01,-0.40,-0.03,0.08,0.94,
0.065,-0.07,-0.01,-0.40,-0.02,0.08,0.94,
0.067,-0.07,-0.01,-0.40,-0.02,0.08,0.94,
0.067,-0.05,0.00,-0.41,-0.02,0.08,0.94,
0.07,-0.05,0.00,-0.41,-0.02,0.09,0.94,
0.072,-0.05,0.00,-0.41,-0.02,0.09,0.94,
0.072,-0.03,0.01,-0.42,-0.02,0.09,0.94,
0.074,-0.03,0.01,-0.42,-0.02,0.09,0.94,
0.084,-0.03,0.01,-0.42,-0.02,0.09,0.94,
0.084,-0.02,0.07,-0.43,-0.02,0.09,0.94,
0.084,-0.02,0.07,-0.43,-0.02,0.09,0.93,
0.084,-0.02,0.07,-0.43,-0.02,0.09,0.94,
0.085,-0.01,0.10,-0.43,-0.02,0.09,0.94,
0.085,-0.01,0.10,-0.43,-0.02,0.09,0.94,
0.087,-0.01,0.10,-0.43,-0.02,0.09,0.94,
0.087,-0.03,0.09,-0.44,-0.02,0.09,0.94,
0.089,-0.03,0.09,-0.44,-0.02,0.09,0.94,
0.091,-0.03,0.09,-0.44,-0.02,0.09,0.94,
0.091,-0.03,0.12,-0.39,-0.02,0.09,0.94,
0.094,-0.03,0.12,-0.39,-0.02,0.09,0.95,
0.097,-0.03,0.12,-0.39,-0.02,0.08,0.95,
0.097,-0.01,0.11,-0.36,-0.02,0.08,0.95,
0.099,-0.01,0.11,-0.36,-0.02,0.08,0.95,
0.101,-0.01,0.11,-0.36,-0.02,0.08,0.96,
0.101,-0.05,0.09,-0.28,-0.02,0.08,0.96,
0.104,-0.05,0.09,-0.28,-0.02,0.09,0.96,
0.106,-0.05,0.09,-0.28,-0.02,0.08,0.96,
0.107,-0.04,0.10,-0.23,-0.02,0.08,0.96,
0.108,-0.04,0.10,-0.23,-0.02,0.08,0.97,
0.111,-0.04,0.10,-0.23,-0.02,0.08,0.97,
0.111,-0.05,0.10,-0.17,-0.02,0.08,0.97,
0.113,-0.05,0.10,-0.17,-0.02,0.08,0.98,
0.116,-0.05,0.10,-0.17,-0.02,0.08,0.98,
0.116,-0.04,0.08,-0.10,-0.02,0.08,0.98,
0.118,-0.04,0.08,-0.10,-0.02,0.08,0.98,
0.121,-0.04,0.08,-0.10,-0.02,0.07,0.98,
0.121,-0.04,0.07,-0.01,-0.02,0.07,0.98,
0.123,-0.04,0.07,-0.01,-0.02,0.07,0.99,
0.126,-0.04,0.05,0.04,-0.02,0.07,0.99,
0.127,-0.04,0.05,0.04,-0.02,0.07,0.99,
0.128,-0.04,0.05,0.04,-0.02,0.07,1.00,
0.131,-0.05,0.03,0.14,-0.02,0.07,1.00,
0.131,-0.05,0.03,0.14,-0.02,0.07,1.00,
0.133,-0.05,0.03,0.14,-0.02,0.07,1.00,
0.136,-0.05,0.03,0.14,-0.02,0.07,1.01,
0.136,-0.05,0.01,0.21,-0.02,0.07,1.01,
0.138,-0.05,0.01,0.21,-0.02,0.06,1.01,
0.14,-0.05,0.01,0.21,-0.03,0.06,1.01,
0.14,-0.06,-0.02,0.24,-0.03,0.06,1.01,
0.143,-0.06,-0.02,0.24,-0.03,0.06,1.01,
0.145,-0.06,-0.02,0.24,-0.03,0.06,1.01,
0.145,-0.06,-0.06,0.27,-0.03,0.06,1.01,
0.147,-0.06,-0.06,0.27,-0.02,0.05,1.01,
0.15,-0.06,-0.06,0.27,-0.02,0.05,1.01,
0.15,-0.06,-0.08,0.29,-0.02,0.05,1.01,
0.152,-0.06,-0.08,0.29,-0.02,0.05,1.01,
0.155,-0.06,-0.08,0.29,-0.02,0.05,1.01,
0.155,-0.02,-0.13,0.29,-0.02,0.05,1.01,
0.157,-0.02,-0.13,0.29,-0.02,0.05,1.01,
0.16,-0.02,-0.13,0.29,-0.02,0.05,1.01,
0.16,-0.02,-0.13,0.29,-0.02,0.05,1.01,
0.162,-0.02,-0.13,0.29,-0.02,0.05,1.00,
0.165,-0.02,-0.13,0.29,-0.02,0.05,1.00,
0.165,-0.03,-0.13,0.27,-0.02,0.05,1.00,
0.167,-0.03,-0.13,0.27,-0.02,0.06,1.00,
0.17,-0.03,-0.13,0.27,-0.02,0.06,1.00,
0.17,-0.02,-0.12,0.21,-0.02,0.06,1.00,
0.172,-0.02,-0.12,0.21,-0.02,0.06,0.99,
0.175,-0.02,-0.12,0.21,-0.02,0.06,0.99,
0.175,-0.03,-0.08,0.16,-0.02,0.06,0.99,
0.179,-0.03,-0.08,0.16,-0.03,0.06,0.99,
0.18,-0.03,-0.08,0.16,-0.03,0.06,0.99,
0.18,-0.05,-0.06,0.11,-0.03,0.06,0.99,
0.182,-0.05,-0.06,0.11,-0.03,0.06,0.98,
0.185,-0.05,-0.06,0.11,-0.03,0.06,0.98,
0.185,-0.09,-0.04,0.09,-0.03,0.06,0.98,
0.187,-0.09,-0.04,0.09,-0.03,0.07,0.98,
0.189,-0.09,-0.04,0.09,-0.03,0.07,0.98,
0.189,-0.10,-0.03,0.02,-0.03,0.07,0.98,
0.191,-0.10,-0.03,0.02,-0.03,0.07,0.98,
0.194,-0.10,-0.03,0.02,-0.03,0.07,0.97,
0.194,-0.11,-0.00,-0.03,-0.03,0.07,0.97,
0.197,-0.11,-0.00,-0.03,-0.03,0.08,0.97,
0.199,-0.12,0.05,-0.06,-0.03,0.08,0.97,
0.199,-0.12,0.05,-0.06,-0.04,0.08,0.97,
0.201,-0.12,0.05,-0.06,-0.04,0.08,0.97,
0.204,-0.12,0.05,-0.06,-0.04,0.08,0.97,
0.204,-0.15,0.07,-0.07,-0.04,0.08,0.97,
0.206,-0.15,0.07,-0.07,-0.04,0.08,0.97,
0.21,-0.15,0.07,-0.07,-0.04,0.08,0.98,
0.21,-0.19,0.11,-0.06,-0.04,0.08,0.98,
0.212,-0.19,0.11,-0.06,-0.04,0.08,0.98,
0.214,-0.19,0.11,-0.06,-0.05,0.09,0.98,
0.214,-0.21,0.13,-0.05,-0.05,0.09,0.98,
0.216,-0.21,0.13,-0.05,-0.05,0.08,0.98,
0.219,-0.21,0.13,-0.05,-0.05,0.08,0.98,
0.219,-0.24,0.15,-0.03,-0.05,0.08,0.98,
0.221,-0.24,0.15,-0.03,-0.05,0.08,0.98,
0.224,-0.24,0.15,-0.03,-0.05,0.08,0.98,
0.224,-0.26,0.15,-0.01,-0.05,0.08,0.98,
0.227,-0.26,0.15,-0.01,-0.06,0.09,0.98,
0.229,-0.26,0.15,-0.01,-0.06,0.09,0.98,
0.229,-0.30,0.14,-0.01,-0.06,0.09,0.98,
0.231,-0.30,0.14,-0.01,-0.06,0.08,0.98,
0.233,-0.30,0.14,-0.01,-0.06,0.08,0.98,
0.234,-0.34,0.16,-0.01,-0.06,0.08,0.98,
0.236,-0.34,0.16,-0.01,-0.06,0.08,0.98,
0.238,-0.34,0.16,-0.01,-0.07,0.09,0.98,
0.238,-0.38,0.14,-0.03,-0.07,0.09,0.98,
0.241,-0.38,0.14,-0.03,-0.07,0.09,0.98,
0.243,-0.38,0.14,-0.03,-0.07,0.09,0.98,
0.244,-0.40,0.15,-0.02,-0.07,0.09,0.98,
0.246,-0.40,0.15,-0.02,-0.07,0.09,0.98,
0.248,-0.40,0.15,-0.02,-0.07,0.09,0.98,
0.248,-0.42,0.17,-0.03,-0.07,0.09,0.98,
0.25,-0.42,0.17,-0.03,-0.07,0.09,0.98,
0.253,-0.42,0.17,-0.03,-0.07,0.09,0.98,
0.253,-0.43,0.17,-0.00,-0.07,0.09,0.98,
0.255,-0.43,0.17,-0.00,-0.07,0.09,0.98,
0.258,-0.44,0.18,-0.01,-0.07,0.09,0.98,
0.258,-0.44,0.18,-0.01,-0.07,0.09,0.98,
0.267,-0.44,0.18,-0.01,-0.07,0.09,0.98,
0.267,-0.44,0.18,-0.01,-0.07,0.09,0.98,
0.267,-0.47,0.17,0.00,-0.07,0.09,0.98,
0.267,-0.47,0.17,0.00,-0.07,0.09,0.98,
0.268,-0.47,0.17,0.00,-0.08,0.09,0.98,
0.268,-0.47,0.18,0.02,-0.08,0.09,0.98,
0.27,-0.47,0.18,0.02,-0.08,0.09,0.98,
0.273,-0.47,0.18,0.02,-0.08,0.09,0.98,
0.273,-0.49,0.18,0.01,-0.08,0.09,0.98,
0.275,-0.49,0.18,0.01,-0.08,0.09,0.98,
0.278,-0.49,0.18,0.01,-0.08,0.09,0.98,
0.278,-0.51,0.17,-0.00,-0.08,0.09,0.98,
0.28,-0.51,0.17,-0.00,-0.08,0.09,0.98,
0.282,-0.51,0.17,-0.00,-0.08,0.09,0.98,
0.282,-0.54,0.17,0.00,-0.08,0.09,0.98,
0.285,-0.54,0.17,0.00,-0.08,0.09,0.98,
0.287,-0.54,0.17,0.00,-0.08,0.09,0.98,
0.288,-0.54,0.18,-0.03,-0.08,0.09,0.98,
0.29,-0.54,0.18,-0.03,-0.08,0.09,0.98,
0.293,-0.54,0.18,-0.03,-0.08,0.10,0.98,
0.293,-0.53,0.21,-0.03,-0.08,0.10,0.98,
0.294,-0.53,0.21,-0.03,-0.08,0.10,0.98,
0.297,-0.53,0.21,-0.03,-0.08,0.10,0.98,
0.297,-0.50,0.22,-0.04,-0.08,0.10,0.98,
0.299,-0.50,0.22,-0.04,-0.08,0.10,0.98,
0.302,-0.50,0.22,-0.04,-0.08,0.10,0.98,
0.302,-0.50,0.26,-0.02,-0.08,0.10,0.98,
0.304,-0.50,0.26,-0.02,-0.08,0.10,0.98,
0.307,-0.50,0.26,-0.02,-0.08,0.10,0.98,
0.307,-0.49,0.26,-0.00,-0.08,0.10,0.98,
0.309,-0.49,0.26,-0.00,-0.08,0.10,0.98,
0.312,-0.49,0.26,-0.00,-0.09,0.10,0.98,
0.312,-0.51,0.27,0.01,-0.09,0.10,0.98,
0.314,-0.51,0.27,0.01,-0.09,0.10,0.98,
0.316,-0.51,0.27,0.01,-0.09,0.10,0.98,
0.317,-0.53,0.26,0.02,-0.09,0.10,0.98,
0.319,-0.53,0.26,0.02,-0.09,0.10,0.98,
0.321,-0.53,0.26,0.02,-0.10,0.10,0.98,
0.322,-0.56,0.26,0.01,-0.10,0.10,0.98,
0.324,-0.56,0.26,0.01,-0.10,0.10,0.98,
0.326,-0.56,0.26,0.01,-0.10,0.10,0.99,
0.327,-0.59,0.24,0.02,-0.10,0.10,0.99,
0.329,-0.59,0.24,0.02,-0.10,0.09,0.99,
0.331,-0.59,0.24,0.02,-0.10,0.09,0.99,
0.331,-0.62,0.21,0.05,-0.10,0.09,0.99,
0.334,-0.62,0.21,0.05,-0.10,0.09,0.99,
0.336,-0.62,0.21,0.05,-0.10,0.09,0.99,
0.336,-0.64,0.19,0.08,-0.10,0.09,0.99,
0.338,-0.64,0.19,0.08,-0.10,0.09,1.00,
0.341,-0.64,0.19,0.08,-0.10,0.09,1.00,
0.341,-0.60,0.17,0.12,-0.10,0.09,1.00,
0.344,-0.60,0.17,0.12,-0.10,0.08,1.00,
0.346,-0.60,0.17,0.12,-0.09,0.08,1.00,
0.346,-0.59,0.13,0.17,-0.09,0.08,1.00,
0.348,-0.59,0.13,0.17,-0.10,0.08,1.00,
0.351,-0.59,0.13,0.17,-0.10,0.08,1.01,
0.351,-0.54,0.09,0.22,-0.10,0.08,1.01,
0.353,-0.54,0.09,0.22,-0.10,0.08,1.01,
0.356,-0.54,0.09,0.22,-0.09,0.08,1.01,
0.356,-0.53,0.08,0.25,-0.09,0.08,1.01,
0.358,-0.53,0.08,0.25,-0.10,0.08,1.01,
0.361,-0.53,0.08,0.25,-0.09,0.07,1.02,
0.361,-0.51,0.03,0.30,-0.09,0.07,1.02,
0.363,-0.51,0.03,0.30,-0.09,0.07,1.02,
0.366,-0.49,0.00,0.33,-0.09,0.07,1.02,
0.366,-0.49,0.00,0.33,-0.09,0.07,1.02,
0.368,-0.49,0.00,0.33,-0.10,0.07,1.02,
0.37,-0.49,0.00,0.33,-0.09,0.07,1.02,
0.371,-0.47,-0.01,0.34,-0.09,0.07,1.02,
0.373,-0.47,-0.01,0.34,-0.09,0.07,1.02,
0.379,-0.47,-0.01,0.34,-0.09,0.07,1.02,
0.379,-0.47,-0.03,0.36,-0.09,0.07,1.02,
0.379,-0.47,-0.03,0.36,-0.09,0.07,1.02,
0.38,-0.47,-0.03,0.36,-0.10,0.07,1.02,
0.38,-0.45,-0.05,0.36,-0.10,0.07,1.02,
0.382,-0.45,-0.05,0.36,-0.10,0.07,1.02,
0.385,-0.45,-0.05,0.36,-0.10,0.07,1.01,
0.385,-0.45,-0.09,0.35,-0.10,0.07,1.01,
0.387,-0.45,-0.09,0.35,-0.10,0.07,1.01,
0.39,-0.45,-0.09,0.35,-0.10,0.07,1.01,
0.39,-0.47,-0.11,0.31,-0.10,0.07,1.01,
0.392,-0.47,-0.11,0.31,-0.10,0.06,1.00,
0.395,-0.47,-0.11,0.31,-0.10,0.07,1.00,
0.395,-0.50,-0.11,0.26,-0.10,0.07,1.00,
0.397,-0.50,-0.11,0.26,-0.10,0.07,1.00,
0.4,-0.50,-0.11,0.26,-0.10,0.07,0.99,
0.4,-0.49,-0.12,0.19,-0.10,0.07,0.99,
0.402,-0.49,-0.12,0.19,-0.10,0.07,0.99,
0.405,-0.49,-0.12,0.19,-0.10,0.07,0.99,
0.405,-0.46,-0.12,0.12,-0.10,0.07,0.99,
0.407,-0.46,-0.12,0.12,-0.10,0.07,0.98,
0.41,-0.46,-0.12,0.12,-0.10,0.07,0.98,
0.41,-0.45,-0.09,0.06,-0.10,0.07,0.98,
0.412,-0.45,-0.09,0.06,-0.10,0.07,0.98,
0.414,-0.45,-0.09,0.06,-0.10,0.08,0.97,
0.415,-0.44,-0.06,-0.02,-0.10,0.08,0.97,
0.417,-0.44,-0.06,-0.02,-0.09,0.08,0.97,
0.419,-0.44,-0.06,-0.02,-0.09,0.08,0.97,
0.42,-0.41,-0.04,-0.07,-0.09,0.08,0.97,
0.422,-0.41,-0.04,-0.07,-0.09,0.08,0.96,
0.424,-0.41,-0.04,-0.07,-0.09,0.08,0.96,
0.425,-0.38,-0.03,-0.14,-0.09,0.08,0.96,
0.427,-0.38,-0.03,-0.14,-0.09,0.08,0.96,
0.43,-0.38,-0.03,-0.14,-0.09,0.08,0.96,
0.43,-0.37,-0.03,-0.18,-0.09,0.08,0.96,
0.432,-0.37,-0.03,-0.18,-0.09,0.08,0.96,
0.434,-0.37,-0.03,-0.18,-0.09,0.08,0.96,
0.434,-0.31,-0.01,-0.19,-0.09,0.08,0.96,
0.436,-0.31,-0.01,-0.19,-0.08,0.08,0.97,
0.439,-0.31,-0.01,-0.19,-0.08,0.08,0.97,
0.439,-0.28,-0.01,-0.17,-0.08,0.08,0.97,
0.441,-0.28,-0.01,-0.17,-0.08,0.08,0.97,
0.444,-0.28,-0.01,-0.17,-0.08,0.08,0.97,
0.444,-0.25,-0.03,-0.14,-0.08,0.08,0.97,
0.446,-0.25,-0.03,-0.14,-0.08,0.07,0.98,
0.449,-0.25,-0.03,-0.14,-0.08,0.07,0.98,
0.449,-0.22,-0.06,-0.10,-0.08,0.07,0.98,
0.451,-0.22,-0.06,-0.10,-0.08,0.07,0.98,
0.454,-0.22,-0.06,-0.10,-0.08,0.07,0.99,
0.454,-0.18,-0.11,-0.03,-0.08,0.07,0.99,
0.456,-0.18,-0.11,-0.03,-0.08,0.06,0.99,
0.463,-0.18,-0.11,-0.03,-0.08,0.06,0.99,
0.464,-0.19,-0.15,0.03,-0.08,0.06,0.99,
0.464,-0.19,-0.15,0.03,-0.08,0.06,1.00,
0.464,-0.19,-0.15,0.03,-0.08,0.06,1.00,
0.464,-0.17,-0.20,0.10,-0.08,0.06,1.00,
0.466,-0.17,-0.20,0.10,-0.08,0.06,1.00,
0.469,-0.14,-0.23,0.15,-0.08,0.06,1.00,
0.469,-0.14,-0.23,0.15,-0.08,0.06,1.00,
0.471,-0.14,-0.23,0.15,-0.08,0.05,1.01,
0.473,-0.14,-0.23,0.15,-0.08,0.05,1.00,
0.473,-0.14,-0.25,0.20,-0.08,0.05,1.00,
0.476,-0.14,-0.25,0.20,-0.08,0.05,1.01,
0.478,-0.14,-0.25,0.20,-0.08,0.04,1.01,
0.478,-0.14,-0.32,0.24,-0.08,0.04,1.01,
0.481,-0.14,-0.32,0.24,-0.09,0.04,1.01,
0.483,-0.14,-0.32,0.24,-0.09,0.04,1.01,
0.483,-0.14,-0.36,0.26,-0.09,0.04,1.01,
0.485,-0.14,-0.36,0.26,-0.09,0.03,1.01,
0.488,-0.14,-0.36,0.26,-0.09,0.03,1.01,
0.488,-0.17,-0.41,0.28,-0.09,0.03,1.01,
0.49,-0.17,-0.41,0.28,-0.09,0.03,1.01,
0.493,-0.17,-0.41,0.28,-0.09,0.03,1.01,
0.494,-0.18,-0.47,0.30,-0.09,0.03,1.01,
0.495,-0.18,-0.47,0.30,-0.09,0.03,1.01,
0.498,-0.18,-0.47,0.30,-0.08,0.02,1.01,
0.498,-0.16,-0.51,0.31,-0.08,0.02,1.01,
0.5,-0.16,-0.51,0.31,-0.08,0.02,1.01,
0.502,-0.16,-0.51,0.31,-0.08,0.03,1.01,
0.503,-0.14,-0.55,0.29,-0.08,0.03,1.01,
0.505,-0.14,-0.55,0.29,-0.08,0.02,1.01,
0.507,-0.14,-0.55,0.29,-0.08,0.02,1.01,
0.508,-0.10,-0.55,0.27,-0.08,0.02,1.01,
0.51,-0.10,-0.55,0.27,-0.07,0.02,1.00,
0.512,-0.10,-0.55,0.27,-0.07,0.02,1.00,
0.513,-0.07,-0.55,0.24,-0.07,0.02,1.00,
0.515,-0.07,-0.55,0.24,-0.07,0.02,1.00,
0.517,-0.07,-0.55,0.24,-0.07,0.02,0.99,
0.517,-0.02,-0.57,0.19,-0.07,0.02,0.99,
0.52,-0.02,-0.57,0.19,-0.07,0.01,0.99,
0.522,-0.02,-0.57,0.19,-0.07,0.01,0.99,
0.522,0.00,-0.60,0.13,-0.07,0.01,0.99,
0.526,0.00,-0.60,0.13,-0.07,0.01,0.99,
0.528,0.00,-0.60,0.13,-0.07,0.01,0.99,
0.528,0.02,-0.63,0.08,-0.07,0.01,0.99,
0.529,0.02,-0.63,0.08,-0.07,0.01,0.98,
0.532,0.02,-0.63,0.08,-0.07,0.01,0.98,
0.532,0.02,-0.64,0.04,-0.07,0.01,0.98,
0.534,0.02,-0.64,0.04,-0.07,0.01,0.98,
0.537,0.02,-0.64,0.04,-0.07,0.01,0.98,
0.537,0.06,-0.65,-0.00,-0.07,0.01,0.98,
0.539,0.06,-0.65,-0.00,-0.07,0.01,0.98,
0.545,0.04,-0.66,-0.02,-0.07,0.01,0.98,
0.546,0.04,-0.66,-0.02,-0.07,0.01,0.98,
0.548,0.04,-0.66,-0.02,-0.07,0.01,0.98,
0.548,0.03,-0.67,-0.04,-0.07,0.01,0.98,
0.549,0.03,-0.67,-0.04,-0.07,0.01,0.98,
0.55,0.03,-0.67,-0.04,-0.07,0.01,0.98,
0.552,0.03,-0.64,-0.05,-0.07,0.01,0.98,
0.552,0.03,-0.64,-0.05,-0.07,0.01,0.98,
0.554,0.03,-0.64,-0.05,-0.07,0.01,0.98,
0.557,0.03,-0.64,-0.05,-0.07,0.01,0.98,
0.557,0.02,-0.64,-0.04,-0.07,0.01,0.98,
0.559,0.02,-0.64,-0.04,-0.08,0.02,0.98,
0.561,0.02,-0.64,-0.04,-0.08,0.02,0.98,
0.562,0.00,-0.62,-0.05,-0.08,0.02,0.98,
0.564,0.00,-0.62,-0.05,-0.08,0.02,0.97,
0.566,0.00,-0.62,-0.05,-0.08,0.02,0.97,
0.567,-0.02,-0.60,-0.05,-0.08,0.02,0.97,
0.569,-0.02,-0.60,-0.05,-0.09,0.02,0.97,
0.571,-0.02,-0.60,-0.05,-0.09,0.02,0.97,
0.572,-0.06,-0.59,-0.08,-0.09,0.02,0.97,
0.574,-0.06,-0.59,-0.08,-0.09,0.02,0.97,
0.581,-0.06,-0.59,-0.08,-0.09,0.02,0.97,
0.582,-0.11,-0.58,-0.09,-0.09,0.02,0.97,
0.582,-0.11,-0.58,-0.09,-0.09,0.02,0.97,
0.582,-0.11,-0.58,-0.09,-0.09,0.02,0.97,
0.582,-0.13,-0.59,-0.13,-0.09,0.02,0.97,
0.583,-0.13,-0.59,-0.13,-0.09,0.01,0.96,
0.586,-0.13,-0.59,-0.13,-0.09,0.02,0.96,
0.586,-0.14,-0.59,-0.15,-0.09,0.02,0.96,
0.588,-0.14,-0.59,-0.15,-0.09,0.02,0.96,
0.591,-0.14,-0.59,-0.15,-0.09,0.02,0.95,
0.591,-0.16,-0.60,-0.21,-0.09,0.02,0.95,
0.593,-0.16,-0.60,-0.21,-0.09,0.02,0.95,
0.596,-0.16,-0.60,-0.21,-0.09,0.02,0.95,
0.597,-0.14,-0.57,-0.26,-0.09,0.02,0.95,
0.598,-0.14,-0.57,-0.26,-0.09,0.02,0.95,
0.601,-0.14,-0.57,-0.26,-0.08,0.02,0.95,
0.601,-0.12,-0.56,-0.29,-0.08,0.02,0.95,
0.603,-0.12,-0.56,-0.29,-0.08,0.02,0.94,
0.605,-0.12,-0.56,-0.29,-0.08,0.02,0.94,
0.606,-0.05,-0.57,-0.33,-0.08,0.02,0.94,
0.608,-0.05,-0.57,-0.33,-0.08,0.02,0.94,
0.61,-0.05,-0.57,-0.33,-0.07,0.02,0.94,
0.61,0.01,-0.55,-0.36,-0.07,0.02,0.94,
0.613,0.01,-0.55,-0.36,-0.07,0.02,0.94,
0.615,0.05,-0.54,-0.36,-0.07,0.02,0.94,
0.616,0.05,-0.54,-0.36,-0.07,0.02,0.94,
0.618,0.05,-0.54,-0.36,-0.07,0.02,0.94,
0.62,0.05,-0.54,-0.36,-0.07,0.02,0.94,
0.62,0.08,-0.55,-0.38,-0.07,0.02,0.94,
0.622,0.08,-0.55,-0.38,-0.07,0.03,0.94,
0.626,0.08,-0.55,-0.38,-0.07,0.03,0.94,
0.626,0.11,-0.52,-0.36,-0.07,0.03,0.94,
0.627,0.11,-0.52,-0.36,-0.07,0.03,0.95,
0.63,0.11,-0.52,-0.36,-0.07,0.03,0.94,
0.63,0.14,-0.47,-0.34,-0.07,0.03,0.94,
0.632,0.14,-0.47,-0.34,-0.07,0.04,0.95,
0.635,0.14,-0.47,-0.34,-0.07,0.04,0.94,
0.635,0.16,-0.42,-0.32,-0.07,0.04,0.94,
0.637,0.16,-0.42,-0.32,-0.07,0.04,0.94,
0.64,0.16,-0.42,-0.32,-0.07,0.04,0.94,
0.64,0.17,-0.38,-0.32,-0.07,0.04,0.94,
0.643,0.17,-0.38,-0.32,-0.07,0.04,0.95,
0.645,0.17,-0.38,-0.32,-0.08,0.04,0.95,
0.645,0.15,-0.37,-0.32,-0.08,0.04,0.95,
0.647,0.15,-0.37,-0.32,-0.08,0.04,0.94,
0.649,0.15,-0.37,-0.32,-0.08,0.04,0.94,
0.65,0.11,-0.37,-0.30,-0.08,0.04,0.94,
0.652,0.11,-0.37,-0.30,-0.08,0.04,0.95,
0.654,0.11,-0.37,-0.30,-0.08,0.04,0.95,
0.655,0.11,-0.37,-0.32,-0.08,0.04,0.95,
0.657,0.11,-0.37,-0.32,-0.08,0.04,0.95,
0.66,0.11,-0.37,-0.32,-0.07,0.04,0.95,
0.66,0.11,-0.39,-0.30,-0.07,0.04,0.95,
0.662,0.11,-0.39,-0.30,-0.07,0.03,0.95,
0.664,0.11,-0.39,-0.30,-0.07,0.03,0.95,
0.665,0.13,-0.38,-0.28,-0.07,0.03,0.95,
0.667,0.13,-0.38,-0.28,-0.07,0.03,0.95,
0.669,0.13,-0.38,-0.28,-0.07,0.03,0.95,
0.67,0.17,-0.41,-0.26,-0.07,0.03,0.95,
0.671,0.17,-0.41,-0.26,-0.07,0.03,0.95,
0.675,0.17,-0.41,-0.26,-0.06,0.03,0.95,
0.675,0.20,-0.44,-0.25,-0.06,0.03,0.95,
0.683,0.20,-0.44,-0.25,-0.06,0.02,0.95,
0.683,0.20,-0.44,-0.25,-0.05,0.02,0.95,
0.683,0.25,-0.47,-0.22,-0.05,0.02,0.95,
0.684,0.25,-0.47,-0.22,-0.05,0.02,0.96,
0.684,0.25,-0.47,-0.22,-0.05,0.02,0.96,
0.684,0.34,-0.50,-0.21,-0.05,0.02,0.96,
0.686,0.34,-0.50,-0.21,-0.04,0.01,0.96,
0.689,0.34,-0.50,-0.21,-0.04,0.02,0.96,
0.689,0.42,-0.54,-0.17,-0.04,0.02,0.96,
0.695,0.42,-0.54,-0.17,-0.04,0.01,0.96,
0.696,0.42,-0.54,-0.17,-0.03,0.02,0.96,
0.696,0.50,-0.56,-0.15,-0.03,0.02,0.96,
0.696,0.50,-0.56,-0.15,-0.03,0.01,0.96,
0.698,0.50,-0.56,-0.15,-0.03,0.02,0.97,
0.698,0.57,-0.55,-0.13,-0.03,0.02,0.97,
0.701,0.57,-0.55,-0.13,-0.02,0.02,0.97,
0.704,0.57,-0.55,-0.13,-0.02,0.02,0.97,
0.704,0.63,-0.53,-0.09,-0.02,0.02,0.97,
0.706,0.63,-0.53,-0.09,-0.02,0.02,0.97,
0.708,0.63,-0.53,-0.09,-0.01,0.02,0.97,
0.709,0.67,-0.52,-0.05,-0.01,0.02,0.97,
0.711,0.67,-0.52,-0.05,-0.02,0.02,0.97,
0.713,0.67,-0.52,-0.05,-0.01,0.02,0.97,
0.714,0.75,-0.48,-0.03,-0.01,0.02,0.97,
0.716,0.75,-0.48,-0.03,-0.02,0.02,0.97,
0.718,0.75,-0.48,-0.03,-0.02,0.02,0.97,
0.718,0.76,-0.47,-0.02,-0.02,0.02,0.97,
0.721,0.76,-0.47,-0.02,-0.02,0.02,0.97,
0.723,0.76,-0.47,-0.02,-0.02,0.02,0.97,
0.723,0.75,-0.47,-0.01,-0.02,0.02,0.97,
0.725,0.75,-0.47,-0.01,-0.02,0.02,0.97,
0.728,0.75,-0.47,-0.01,-0.02,0.02,0.97,
0.728,0.73,-0.43,-0.01,-0.02,0.02,0.97,
0.73,0.73,-0.43,-0.01,-0.02,0.03,0.97,
0.733,0.73,-0.43,-0.01,-0.02,0.03,0.97,
0.733,0.74,-0.40,-0.05,-0.02,0.03,0.97,
0.735,0.74,-0.40,-0.05,-0.02,0.03,0.97,
0.738,0.74,-0.40,-0.05,-0.02,0.03,0.97,
0.738,0.71,-0.36,-0.06,-0.02,0.03,0.97,
0.74,0.71,-0.36,-0.06,-0.03,0.04,0.97,
0.743,0.71,-0.36,-0.06,-0.03,0.04,0.96,
0.743,0.69,-0.31,-0.06,-0.03,0.04,0.96,
0.745,0.69,-0.31,-0.06,-0.03,0.04,0.97,
0.748,0.69,-0.31,-0.06,-0.03,0.05,0.97,
0.748,0.65,-0.23,-0.08,-0.03,0.05,0.97,
0.75,0.65,-0.23,-0.08,-0.03,0.05,0.97,
0.753,0.65,-0.23,-0.08,-0.03,0.05,0.96,
0.753,0.62,-0.17,-0.07,-0.03,0.05,0.96,
0.755,0.62,-0.17,-0.07,-0.04,0.05,0.97,
0.759,0.62,-0.17,-0.07,-0.04,0.06,0.97,
0.759,0.58,-0.11,-0.08,-0.04,0.06,0.97,
0.762,0.58,-0.11,-0.08,-0.04,0.06,0.97,
0.763,0.58,-0.11,-0.08,-0.05,0.06,0.97,
0.763,0.54,-0.06,-0.06,-0.05,0.06,0.97,
0.765,0.54,-0.06,-0.06,-0.05,0.06,0.97,
0.767,0.54,-0.06,-0.06,-0.05,0.06,0.97,
0.767,0.49,-0.01,-0.04,-0.05,0.06,0.97,
0.77,0.49,-0.01,-0.04,-0.05,0.07,0.97,
0.772,0.49,-0.01,-0.04,-0.05,0.06,0.97,
0.773,0.44,0.02,-0.02,-0.05,0.06,0.97,
0.775,0.44,0.02,-0.02,-0.05,0.07,0.98,
0.777,0.44,0.02,-0.02,-0.06,0.07,0.98,
0.778,0.41,0.04,-0.00,-0.06,0.07,0.98,
0.779,0.41,0.04,-0.00,-0.05,0.07,0.98,
0.782,0.41,0.04,-0.00,-0.05,0.07,0.97,
0.782,0.38,0.07,0.03,-0.05,0.07,0.97,
0.784,0.38,0.07,0.03,-0.06,0.07,0.97,
0.787,0.39,0.09,0.02,-0.06,0.07,0.97,
0.787,0.39,0.09,0.02,-0.06,0.07,0.97,
0.789,0.39,0.09,0.02,-0.05,0.07,0.97,
0.796,0.39,0.09,0.02,-0.05,0.06,0.97,
0.796,0.37,0.09,0.01,-0.05,0.06,0.97,
0.796,0.37,0.09,0.01,-0.05,0.06,0.97,
0.797,0.40,0.05,-0.01,-0.05,0.06,0.97,
0.797,0.40,0.05,-0.01,-0.05,0.06,0.97,
0.799,0.40,0.05,-0.01,-0.04,0.06,0.97,
0.801,0.40,0.05,-0.01,-0.04,0.06,0.97,
0.801,0.46,0.03,-0.04,-0.04,0.06,0.97,
0.803,0.46,0.03,-0.04,-0.04,0.06,0.97,
0.806,0.46,0.03,-0.04,-0.03,0.06,0.96,
0.807,0.53,0.01,-0.05,-0.03,0.06,0.96,
0.808,0.53,0.01,-0.05,-0.03,0.06,0.97,
0.811,0.53,0.01,-0.05,-0.02,0.06,0.96,
0.811,0.58,0.00,-0.08,-0.02,0.06,0.96,
0.813,0.58,0.00,-0.08,-0.02,0.06,0.96,
0.816,0.58,0.00,-0.08,-0.02,0.06,0.96,
0.816,0.66,-0.01,-0.07,-0.02,0.06,0.96,
0.818,0.66,-0.01,-0.07,-0.02,0.05,0.96,
0.821,0.66,-0.01,-0.07,-0.01,0.05,0.96,
0.821,0.73,-0.03,-0.10,-0.01,0.05,0.96,
0.823,0.73,-0.03,-0.10,-0.01,0.05,0.96,
0.826,0.73,-0.03,-0.10,-0.01,0.05,0.96,
0.826,0.78,-0.05,-0.09,-0.01,0.05,0.96,
0.828,0.78,-0.05,-0.09,-0.01,0.05,0.96,
0.831,0.78,-0.05,-0.09,-0.00,0.05,0.96,
0.831,0.82,-0.04,-0.10,-0.00,0.05,0.96,
0.833,0.82,-0.04,-0.10,-0.00,0.05,0.96,
0.836,0.82,-0.04,-0.10,-0.00,0.05,0.96,
0.836,0.86,-0.03,-0.11,-0.00,0.05,0.96,
0.838,0.86,-0.03,-0.11,0.00,0.05,0.96,
0.841,0.86,-0.03,-0.11,0.00,0.05,0.96,
0.842,0.88,-0.04,-0.10,0.00,0.05,0.96,
0.843,0.88,-0.04,-0.10,0.00,0.05,0.96,
0.846,0.88,-0.04,-0.10,0.00,0.06,0.96,
0.846,0.91,-0.02,-0.11,0.00,0.06,0.96,
0.848,0.91,-0.02,-0.11,0.01,0.06,0.96,
0.85,0.91,-0.02,-0.11,0.01,0.06,0.96,
0.851,0.94,0.00,-0.09,0.01,0.06,0.96,
0.853,0.94,0.00,-0.09,0.00,0.06,0.96,
0.855,0.94,0.00,-0.09,0.00,0.06,0.96,
0.855,0.94,0.02,-0.08,0.00,0.06,0.96,
0.858,0.94,0.02,-0.08,0.00,0.06,0.97,
0.86,0.94,0.02,-0.08,0.00,0.06,0.97,
0.861,0.92,0.04,-0.08,0.00,0.06,0.97,
0.863,0.92,0.04,-0.08,-0.00,0.06,0.97,
0.865,0.92,0.04,-0.08,-0.00,0.06,0.97,
0.865,0.90,0.07,-0.04,-0.00,0.06,0.97,
0.867,0.90,0.07,-0.04,-0.01,0.06,0.98,
0.87,0.90,0.07,-0.04,-0.01,0.06,0.98,
0.87,0.86,0.07,-0.01,-0.01,0.06,0.98,
0.872,0.86,0.07,-0.01,-0.01,0.06,0.98,
0.875,0.86,0.07,-0.01,-0.01,0.06,0.98,
0.876,0.82,0.11,0.05,-0.01,0.06,0.98,
0.877,0.82,0.11,0.05,-0.01,0.06,0.99,
0.88,0.82,0.11,0.05,-0.01,0.06,0.99,
0.88,0.81,0.12,0.10,-0.01,0.06,0.99,
0.882,0.81,0.12,0.10,-0.01,0.06,0.99,
0.885,0.79,0.12,0.16,-0.01,0.06,0.99,
0.885,0.79,0.12,0.16,-0.01,0.06,0.99,
0.887,0.79,0.12,0.16,-0.01,0.06,1.00,
0.89,0.79,0.12,0.16,-0.01,0.06,1.00,
0.89,0.76,0.12,0.21,-0.01,0.06,1.00,
0.897,0.76,0.12,0.21,-0.01,0.06,1.00,
0.898,0.76,0.12,0.21,-0.01,0.05,1.00,
0.898,0.74,0.10,0.24,-0.01,0.05,1.00,
0.899,0.74,0.10,0.24,-0.01,0.05,1.00,
0.899,0.74,0.10,0.24,-0.01,0.05,1.00,
0.9,0.75,0.07,0.29,-0.01,0.05,1.00,
0.902,0.75,0.07,0.29,-0.01,0.05,1.00,
0.904,0.75,0.07,0.29,-0.01,0.05,1.00,
0.905,0.76,0.06,0.30,-0.01,0.05,1.00,
0.906,0.76,0.06,0.30,-0.00,0.05,1.00,
0.909,0.76,0.06,0.30,-0.00,0.05,1.00,
0.91,0.80,0.03,0.30,-0.00,0.05,1.00,
0.911,0.80,0.03,0.30,0.00,0.05,1.01,
0.914,0.80,0.03,0.30,0.00,0.04,1.01,
0.914,0.85,0.02,0.29,0.00,0.04,1.01,
0.916,0.85,0.02,0.29,0.00,0.04,1.00,
0.919,0.85,0.02,0.29,0.00,0.04,1.00,
0.919,0.88,-0.01,0.32,0.00,0.04,1.00,
0.921,0.88,-0.01,0.32,0.01,0.04,1.01,
0.925,0.88,-0.01,0.32,0.01,0.04,1.01,
0.925,0.89,-0.06,0.30,0.01,0.04,1.01,
0.926,0.89,-0.06,0.30,0.00,0.03,1.01,
0.929,0.89,-0.06,0.30,0.01,0.03,1.01,
0.929,0.92,-0.09,0.31,0.01,0.03,1.01,
0.931,0.92,-0.09,0.31,0.01,0.03,1.01,
0.934,0.92,-0.09,0.31,0.01,0.03,1.01,
0.934,0.92,-0.11,0.33,0.01,0.03,1.01,
0.936,0.92,-0.11,0.33,0.01,0.03,1.01,
0.938,0.92,-0.11,0.33,0.01,0.03,1.01,
0.939,0.93,-0.13,0.34,0.01,0.03,1.01,
0.941,0.93,-0.13,0.34,0.01,0.03,1.01,
0.944,0.93,-0.13,0.34,0.02,0.03,1.01,
0.944,0.96,-0.14,0.32,0.02,0.03,1.01,
0.946,0.96,-0.14,0.32,0.02,0.03,1.01,
0.948,0.96,-0.14,0.32,0.03,0.03,1.01,
0.949,1.00,-0.13,0.33,0.03,0.03,1.01,
0.95,1.00,-0.13,0.33,0.03,0.03,1.01,
0.953,1.00,-0.13,0.33,0.03,0.03,1.01,
0.953,1.06,-0.11,0.33,0.03,0.03,1.01,
0.956,1.06,-0.11,0.33,0.04,0.04,1.01,
0.958,1.06,-0.11,0.33,0.04,0.04,1.01,
0.959,1.15,-0.09,0.34,0.04,0.04,1.01,
0.961,1.15,-0.09,0.34,0.04,0.04,1.01,
0.963,1.15,-0.09,0.34,0.04,0.04,1.01,
0.963,1.18,-0.05,0.32,0.04,0.04,1.01,
0.965,1.18,-0.05,0.32,0.04,0.04,1.01,
0.968,1.18,-0.05,0.32,0.05,0.04,1.01,
0.968,1.19,-0.01,0.32,0.05,0.04,1.01,
0.97,1.19,-0.01,0.32,0.05,0.05,1.01,
0.973,1.19,-0.01,0.32,0.05,0.05,1.01,
0.973,1.22,0.03,0.31,0.05,0.05,1.01,
0.98,1.22,0.03,0.31,0.05,0.05,1.01,
0.98,1.22,0.03,0.31,0.04,0.05,1.01,
0.981,1.24,0.05,0.31,0.04,0.05,1.01,
0.981,1.24,0.05,0.31,0.04,0.05,1.01,
0.983,1.20,0.09,0.32,0.04,0.05,1.01,
0.983,1.20,0.09,0.32,0.04,0.05,1.01,
0.985,1.20,0.09,0.32,0.03,0.05,1.01,
0.987,1.20,0.09,0.32,0.03,0.05,1.01,
0.988,1.14,0.11,0.34,0.03,0.05,1.01,
0.99,1.14,0.11,0.34,0.02,0.05,1.01,
0.996,1.14,0.11,0.34,0.02,0.05,1.01,
0.996,1.03,0.12,0.33,0.02,0.05,1.01,
0.997,1.03,0.12,0.33,0.01,0.05,1.01,
0.997,1.03,0.12,0.33,0.01,0.05,1.01,
0.997,0.94,0.14,0.33,0.01,0.05,1.01,
0.999,0.94,0.14,0.33,0.01,0.06,1.01,
1.002,0.94,0.14,0.33,0.00,0.06,1.01,
1.002,0.84,0.16,0.33,0.00,0.06,1.01,
1.004,0.84,0.16,0.33,-0.00,0.06,1.01,
1.007,0.84,0.16,0.33,-0.00,0.06,1.01,
1.007,0.75,0.19,0.32,-0.00,0.06,1.01,
1.009,0.75,0.19,0.32,-0.01,0.06,1.01,
1.012,0.75,0.19,0.32,-0.01,0.06,1.01,
1.012,0.68,0.23,0.32,-0.01,0.06,1.01,
1.014,0.68,0.23,0.32,-0.01,0.07,1.01,
1.016,0.68,0.23,0.32,-0.01,0.07,1.01,
1.017,0.61,0.26,0.31,-0.01,0.07,1.01,
1.019,0.61,0.26,0.31,-0.01,0.07,1.01,
1.021,0.61,0.26,0.31,-0.01,0.07,1.01,
1.021,0.55,0.32,0.28,-0.01,0.07,1.01,
1.024,0.55,0.32,0.28,-0.01,0.08,1.01,
1.027,0.55,0.32,0.28,-0.01,0.08,1.00,
1.027,0.55,0.36,0.26,-0.01,0.08,1.00,
1.029,0.55,0.36,0.26,-0.02,0.08,1.00,
1.031,0.55,0.36,0.26,-0.02,0.09,1.00,
1.031,0.53,0.41,0.24,-0.02,0.09,1.00,
1.033,0.53,0.41,0.24,-0.01,0.09,1.00,
1.036,0.53,0.41,0.24,-0.01,0.09,1.00,
1.036,0.51,0.47,0.20,-0.01,0.09,1.00,
1.038,0.51,0.47,0.20,-0.01,0.09,1.00,
1.041,0.51,0.47,0.20,-0.01,0.09,1.00,
1.042,0.52,0.50,0.17,-0.01,0.09,1.00,
1.043,0.52,0.50,0.17,-0.00,0.09,0.99,
1.046,0.52,0.50,0.17,-0.00,0.09,0.99,
1.046,0.55,0.52,0.15,-0.00,0.09,0.99,
1.048,0.55,0.52,0.15,-0.00,0.09,0.99,
1.051,0.55,0.52,0.15,-0.00,0.09,0.99,
1.051,0.61,0.54,0.12,-0.00,0.09,0.99,
1.053,0.61,0.54,0.12,-0.00,0.09,1.00,
1.056,0.61,0.54,0.12,-0.00,0.09,1.00,
1.056,0.62,0.54,0.13,-0.00,0.09,1.00,
1.058,0.62,0.54,0.13,-0.00,0.09,1.00,
1.061,0.62,0.54,0.13,-0.00,0.09,1.00,
1.061,0.61,0.55,0.14,-0.00,0.09,1.00,
1.063,0.61,0.55,0.14,-0.00,0.09,1.00,
1.066,0.61,0.55,0.14,-0.01,0.09,1.00,
1.066,0.61,0.54,0.18,-0.01,0.09,1.00,
1.068,0.61,0.54,0.18,-0.01,0.09,1.00,
1.07,0.61,0.54,0.18,-0.02,0.08,1.01,
1.071,0.59,0.50,0.21,-0.02,0.08,1.01,
1.073,0.59,0.50,0.21,-0.02,0.08,1.01,
1.079,0.59,0.50,0.21,-0.02,0.08,1.01,
1.08,0.52,0.45,0.23,-0.02,0.08,1.01,
1.08,0.52,0.45,0.23,-0.02,0.08,1.01,
1.081,0.45,0.41,0.26,-0.02,0.08,1.01,
1.081,0.45,0.41,0.26,-0.03,0.08,1.02,
1.082,0.45,0.41,0.26,-0.03,0.08,1.02,
1.085,0.45,0.41,0.26,-0.03,0.08,1.02,
1.089,0.39,0.39,0.31,-0.03,0.08,1.02,
1.089,0.39,0.39,0.31,-0.03,0.08,1.02,
1.093,0.39,0.39,0.31,-0.03,0.08,1.02,
1.093,0.36,0.38,0.33,-0.03,0.08,1.02,
1.093,0.36,0.38,0.33,-0.03,0.08,1.01,
1.095,0.36,0.38,0.33,-0.03,0.08,1.01,
1.095,0.31,0.37,0.33,-0.03,0.08,1.01,
1.097,0.31,0.37,0.33,-0.03,0.08,1.01,
1.1,0.31,0.37,0.33,-0.03,0.08,1.01,
1.1,0.28,0.39,0.30,-0.03,0.08,1.01,
1.102,0.28,0.39,0.30,-0.03,0.08,1.01,
1.105,0.28,0.39,0.30,-0.03,0.08,1.01,
1.105,0.28,0.39,0.29,-0.03,0.08,1.01,
1.107,0.28,0.39,0.29,-0.03,0.09,1.01,
1.11,0.28,0.39,0.29,-0.03,0.09,1.01,
1.11,0.30,0.43,0.26,-0.03,0.09,1.01,
1.112,0.30,0.43,0.26,-0.02,0.09,1.01,
1.115,0.30,0.43,0.26,-0.02,0.09,1.00,
1.115,0.33,0.50,0.23,-0.02,0.09,1.00,
1.117,0.33,0.50,0.23,-0.02,0.10,1.00,
1.119,0.33,0.50,0.23,-0.02,0.10,1.00,
1.119,0.36,0.53,0.20,-0.02,0.10,1.00,
1.122,0.36,0.53,0.20,-0.02,0.10,1.00,
1.125,0.36,0.53,0.20,-0.01,0.11,1.00,
1.125,0.38,0.59,0.17,-0.01,0.11,1.00,
1.127,0.38,0.59,0.17,-0.01,0.11,0.99,
1.13,0.38,0.59,0.17,-0.01,0.11,0.99,
1.13,0.40,0.65,0.11,-0.01,0.11,0.99,
1.132,0.40,0.65,0.11,-0.01,0.11,0.99,
1.134,0.40,0.65,0.11,-0.01,0.11,0.99,
1.134,0.42,0.67,0.07,-0.01,0.11,0.99,
1.136,0.42,0.67,0.07,-0.01,0.11,0.99,
1.139,0.42,0.67,0.07,-0.01,0.10,0.98,
1.139,0.42,0.67,0.05,-0.01,0.10,0.98,
1.141,0.42,0.67,0.05,-0.01,0.10,0.98,
1.144,0.42,0.67,0.05,-0.01,0.11,0.98,
1.144,0.40,0.65,0.02,-0.01,0.11,0.98,
1.146,0.40,0.65,0.02,-0.02,0.10,0.98,
1.149,0.40,0.65,0.02,-0.02,0.10,0.98,
1.149,0.37,0.65,-0.02,-0.02,0.10,0.98,
1.151,0.37,0.65,-0.02,-0.01,0.10,0.98,
1.154,0.37,0.65,-0.02,-0.02,0.10,0.98,
1.154,0.33,0.61,-0.03,-0.02,0.10,0.98,
1.157,0.33,0.61,-0.03,-0.02,0.10,0.98,
1.159,0.33,0.61,-0.03,-0.02,0.10,0.98,
1.159,0.33,0.59,-0.04,-0.02,0.10,0.98,
1.161,0.33,0.59,-0.04,-0.02,0.10,0.98,
1.163,0.33,0.59,-0.04,-0.02,0.09,0.98,
1.164,0.29,0.60,-0.03,-0.02,0.09,0.98,
1.166,0.29,0.60,-0.03,-0.03,0.09,0.98,
1.169,0.29,0.60,-0.03,-0.03,0.09,0.98,
1.169,0.23,0.55,-0.04,-0.03,0.09,0.98,
1.171,0.23,0.55,-0.04,-0.03,0.09,0.98,
1.174,0.23,0.55,-0.04,-0.03,0.08,0.98,
1.175,0.20,0.51,-0.04,-0.03,0.08,0.98,
1.176,0.20,0.51,-0.04,-0.03,0.08,0.98,
1.178,0.20,0.51,-0.04,-0.04,0.08,0.99,
1.179,0.16,0.46,-0.02,-0.04,0.08,0.99,
1.181,0.16,0.46,-0.02,-0.03,0.08,0.99,
1.183,0.16,0.46,-0.02,-0.03,0.08,0.99,
1.184,0.12,0.40,-0.01,-0.03,0.08,0.99,
1.185,0.12,0.40,-0.01,-0.03,0.07,0.99,
1.188,0.12,0.40,-0.01,-0.03,0.07,0.99,
1.188,0.13,0.36,0.02,-0.03,0.07,0.99,
1.195,0.13,0.36,0.02,-0.03,0.07,0.99,
1.196,0.13,0.36,0.02,-0.03,0.06,0.99,
1.196,0.11,0.30,0.02,-0.03,0.06,0.99,
1.197,0.11,0.30,0.02,-0.04,0.06,0.99,
1.198,0.11,0.30,0.02,-0.04,0.06,0.99,
1.198,0.11,0.25,0.05,-0.04,0.06,0.99,
1.2,0.11,0.25,0.05,-0.04,0.06,1.00,
1.203,0.11,0.25,0.05,-0.03,0.05,1.00,
1.203,0.09,0.18,0.08,-0.03,0.05,1.00,
1.205,0.09,0.18,0.08,-0.03,0.05,1.00,
1.207,0.09,0.18,0.08,-0.03,0.05,1.00,
1.208,0.10,0.14,0.10,-0.03,0.05,1.00,
1.21,0.10,0.14,0.10,-0.03,0.05,1.00,
1.212,0.10,0.14,0.10,-0.03,0.05,1.01,
1.212,0.12,0.10,0.13,-0.03,0.05,1.01,
1.215,0.12,0.10,0.13,-0.03,0.05,1.01,
1.218,0.12,0.10,0.13,-0.03,0.05,1.01,
1.218,0.12,0.07,0.18,-0.03,0.05,1.01,
1.22,0.12,0.07,0.18,-0.03,0.05,1.01,
1.223,0.12,0.07,0.18,-0.03,0.05,1.01,
1.223,0.10,0.06,0.22,-0.03,0.05,1.01,
1.225,0.10,0.06,0.22,-0.03,0.04,1.01,
1.227,0.10,0.06,0.22,-0.04,0.04,1.02,
1.227,0.08,0.06,0.26,-0.04,0.04,1.02,
1.23,0.08,0.06,0.26,-0.04,0.04,1.02,
1.232,0.08,0.06,0.26,-0.04,0.04,1.02,
1.232,0.08,0.04,0.28,-0.04,0.04,1.02,
1.234,0.08,0.04,0.28,-0.04,0.04,1.02,
1.237,0.08,0.04,0.28,-0.04,0.04,1.02,
1.237,0.02,0.00,0.32,-0.04,0.04,1.02,
1.24,0.02,0.00,0.32,-0.04,0.04,1.02,
1.242,0.02,0.00,0.32,-0.04,0.04,1.02,
1.242,0.01,-0.02,0.31,-0.04,0.04,1.02,
1.244,0.01,-0.02,0.31,-0.05,0.03,1.02,
1.247,0.01,-0.02,0.31,-0.05,0.03,1.02,
1.247,-0.03,-0.03,0.32,-0.05,0.03,1.02,
1.249,-0.03,-0.03,0.32,-0.05,0.03,1.02,
1.252,-0.03,-0.03,0.32,-0.05,0.03,1.02,
1.252,-0.06,-0.05,0.31,-0.05,0.03,1.02,
1.254,-0.06,-0.05,0.31,-0.05,0.03,1.02,
1.257,-0.06,-0.05,0.31,-0.05,0.02,1.02,
1.257,-0.09,-0.08,0.33,-0.05,0.02,1.02,
1.259,-0.09,-0.08,0.33,-0.05,0.03,1.02,
1.262,-0.09,-0.08,0.33,-0.06,0.02,1.02,
1.262,-0.13,-0.11,0.34,-0.06,0.02,1.02,
1.264,-0.13,-0.11,0.34,-0.06,0.02,1.02,
1.266,-0.13,-0.11,0.34,-0.06,0.02,1.02,
1.267,-0.17,-0.13,0.33,-0.06,0.02,1.02,
1.269,-0.17,-0.13,0.33,-0.06,0.02,1.02,
1.271,-0.17,-0.13,0.33,-0.06,0.02,1.02,
1.272,-0.24,-0.16,0.33,-0.06,0.02,1.02,
1.274,-0.24,-0.16,0.33,-0.06,0.02,1.02,
1.276,-0.24,-0.16,0.33,-0.06,0.02,1.02,
1.277,-0.26,-0.18,0.32,-0.06,0.02,1.02,
1.278,-0.26,-0.18,0.32,-0.06,0.02,1.02,
1.281,-0.26,-0.18,0.32,-0.06,0.02,1.01,
1.281,-0.27,-0.20,0.28,-0.06,0.02,1.01,
1.283,-0.27,-0.20,0.28,-0.06,0.02,1.01,
1.286,-0.27,-0.20,0.28,-0.06,0.02,1.01,
1.286,-0.26,-0.20,0.24,-0.06,0.02,1.01,
1.288,-0.26,-0.20,0.24,-0.05,0.02,1.01,
1.295,-0.26,-0.20,0.24,-0.05,0.02,1.00,
1.295,-0.25,-0.20,0.20,-0.05,0.02,1.00,
1.295,-0.25,-0.20,0.20,-0.05,0.01,1.00,
1.296,-0.25,-0.20,0.20,-0.04,0.01,1.00,
1.296,-0.22,-0.20,0.15,-0.04,0.01,1.00,
1.298,-0.22,-0.20,0.15,-0.04,0.01,1.00,
1.301,-0.22,-0.20,0.15,-0.04,0.01,0.99,
1.301,-0.16,-0.22,0.09,-0.04,0.01,0.99,
1.303,-0.16,-0.22,0.09,-0.03,0.01,0.99,
1.306,-0.16,-0.22,0.09,-0.03,0.01,0.99,
1.307,-0.12,-0.23,0.03,-0.03,0.01,0.99,
1.308,-0.12,-0.23,0.03,-0.03,0.01,0.99,
1.31,-0.12,-0.23,0.03,-0.03,0.01,0.98,
1.311,-0.08,-0.23,-0.02,-0.03,0.01,0.98,
1.313,-0.08,-0.23,-0.02,-0.03,0.00,0.98,
1.315,-0.08,-0.23,-0.02,-0.03,0.00,0.98,
1.315,-0.06,-0.27,-0.05,-0.03,0.00,0.98,
1.317,-0.06,-0.27,-0.05,-0.03,0.00,0.98,
1.32,-0.06,-0.27,-0.05,-0.03,0.00,0.98,
1.321,-0.05,-0.31,-0.07,-0.03,0.00,0.98,
1.323,-0.05,-0.31,-0.07,-0.03,0.00,0.98,
1.325,-0.05,-0.31,-0.07,-0.03,-0.00,0.98,
1.326,-0.07,-0.34,-0.10,-0.03,-0.00,0.98,
1.327,-0.07,-0.34,-0.10,-0.03,-0.00,0.98,
1.33,-0.07,-0.34,-0.10,-0.03,-0.00,0.98,
1.33,-0.09,-0.35,-0.10,-0.03,-0.00,0.98,
1.332,-0.09,-0.35,-0.10,-0.04,-0.00,0.98,
1.335,-0.09,-0.35,-0.10,-0.04,-0.00,0.98,
1.335,-0.12,-0.36,-0.08,-0.04,-0.00,0.98,
1.337,-0.12,-0.36,-0.08,-0.04,-0.00,0.98,
1.34,-0.12,-0.36,-0.08,-0.04,-0.00,0.99,
1.34,-0.17,-0.38,-0.07,-0.04,-0.00,0.99,
1.342,-0.17,-0.38,-0.07,-0.05,-0.00,0.99,
1.345,-0.17,-0.38,-0.07,-0.05,-0.00,0.99,
1.345,-0.23,-0.38,-0.05,-0.05,-0.00,0.99,
1.347,-0.23,-0.38,-0.05,-0.05,-0.00,0.99,
1.349,-0.23,-0.38,-0.05,-0.06,0.00,0.99,
1.35,-0.29,-0.38,-0.02,-0.06,0.00,0.99,
1.352,-0.29,-0.38,-0.02,-0.06,0.00,0.99,
1.355,-0.29,-0.38,-0.02,-0.06,0.00,0.99,
1.355,-0.35,-0.35,0.01,-0.06,0.00,0.99,
1.357,-0.35,-0.35,0.01,-0.07,0.01,0.99,
1.36,-0.35,-0.35,0.01,-0.07,0.01,0.99,
1.36,-0.42,-0.31,0.02,-0.07,0.01,0.99,
1.362,-0.42,-0.31,0.02,-0.07,0.01,0.99,
1.364,-0.42,-0.31,0.02,-0.08,0.01,0.99,
1.365,-0.50,-0.27,0.02,-0.08,0.01,0.99,
1.367,-0.50,-0.27,0.02,-0.08,0.01,0.99,
1.369,-0.50,-0.27,0.02,-0.08,0.01,0.99,
1.37,-0.55,-0.26,-0.00,-0.08,0.01,0.99,
1.372,-0.55,-0.26,-0.00,-0.08,0.01,0.99,
1.379,-0.55,-0.26,-0.00,-0.08,0.01,0.98,
1.38,-0.60,-0.24,-0.01,-0.08,0.01,0.98,
1.38,-0.60,-0.24,-0.01,-0.08,0.01,0.98,
1.38,-0.60,-0.24,-0.01,-0.08,0.01,0.98,
1.381,-0.60,-0.22,-0.05,-0.08,0.01,0.98,
1.381,-0.60,-0.22,-0.05,-0.08,0.01,0.98,
1.384,-0.60,-0.22,-0.05,-0.07,0.01,0.98,
1.384,-0.62,-0.20,-0.10,-0.07,0.01,0.98,
1.386,-0.62,-0.20,-0.10,-0.07,0.01,0.98,
1.394,-0.62,-0.20,-0.10,-0.07,0.01,0.98,
1.394,-0.60,-0.20,-0.13,-0.07,0.01,0.98,
1.394,-0.60,-0.20,-0.13,-0.06,0.01,0.97,
1.395,-0.60,-0.20,-0.13,-0.06,0.01,0.97,
1.395,-0.56,-0.20,-0.13,-0.06,0.01,0.97,
1.396,-0.56,-0.20,-0.13,-0.06,0.01,0.97,
1.399,-0.56,-0.20,-0.13,-0.06,0.01,0.97,
1.399,-0.50,-0.20,-0.19,-0.06,0.01,0.97,
1.401,-0.50,-0.20,-0.19,-0.05,0.01,0.97,
1.403,-0.50,-0.20,-0.19,-0.05,0.01,0.97,
1.404,-0.45,-0.20,-0.20,-0.05,0.01,0.97,
1.406,-0.45,-0.20,-0.20,-0.05,0.01,0.97,
1.408,-0.45,-0.20,-0.20,-0.05,0.01,0.97,
1.408,-0.41,-0.21,-0.21,-0.05,0.01,0.97,
1.411,-0.41,-0.21,-0.21,-0.05,0.01,0.97,
1.413,-0.41,-0.21,-0.21,-0.05,0.01,0.97,
1.413,-0.41,-0.21,-0.22,-0.05,0.01,0.97,
1.415,-0.41,-0.21,-0.22,-0.05,0.01,0.96,
1.418,-0.41,-0.21,-0.22,-0.05,0.01,0.97,
1.418,-0.41,-0.23,-0.22,-0.05,0.01,0.97,
1.421,-0.41,-0.23,-0.22,-0.06,0.01,0.97,
1.423,-0.43,-0.23,-0.23,-0.06,0.01,0.97,
1.424,-0.43,-0.23,-0.23,-0.06,0.01,0.97,
1.425,-0.43,-0.23,-0.23,-0.06,0.01,0.97,
1.428,-0.43,-0.23,-0.23,-0.06,0.01,0.97,
1.428,-0.46,-0.25,-0.21,-0.06,0.01,0.97,
1.43,-0.46,-0.25,-0.21,-0.06,0.00,0.97,
1.433,-0.46,-0.25,-0.21,-0.07,0.00,0.97,
1.433,-0.48,-0.24,-0.19,-0.07,0.00,0.97,
1.435,-0.48,-0.24,-0.19,-0.07,0.00,0.97,
1.438,-0.48,-0.24,-0.19,-0.07,-0.00,0.97,
1.438,-0.57,-0.29,-0.19,-0.07,-0.00,0.97,
1.44,-0.57,-0.29,-0.19,-0.08,-0.00,0.97,
1.443,-0.57,-0.29,-0.19,-0.08,-0.00,0.97,
1.443,-0.62,-0.32,-0.18,-0.08,-0.00,0.97,
1.445,-0.62,-0.32,-0.18,-0.08,-0.01,0.97,
1.448,-0.62,-0.32,-0.18,-0.08,-0.01,0.97,
1.448,-0.68,-0.35,-0.15,-0.08,-0.01,0.97,
1.45,-0.68,-0.35,-0.15,-0.08,-0.01,0.97,
1.452,-0.68,-0.35,-0.15,-0.08,-0.01,0.97,
1.453,-0.72,-0.36,-0.14,-0.08,-0.01,0.97,
1.455,-0.72,-0.36,-0.14,-0.09,-0.01,0.97,
1.458,-0.72,-0.36,-0.14,-0.09,-0.01,0.98,
1.458,-0.74,-0.39,-0.14,-0.09,-0.01,0.98,
1.46,-0.74,-0.39,-0.14,-0.09,-0.01,0.98,
1.462,-0.74,-0.39,-0.14,-0.09,-0.01,0.98,
1.462,-0.77,-0.41,-0.12,-0.09,-0.01,0.98,
1.465,-0.77,-0.41,-0.12,-0.09,-0.01,0.98,
1.467,-0.77,-0.41,-0.12,-0.09,-0.01,0.98,
1.467,-0.78,-0.43,-0.11,-0.09,-0.01,0.98,
1.469,-0.78,-0.43,-0.11,-0.09,-0.01,0.98,
1.478,-0.78,-0.43,-0.11,-0.09,-0.01,0.98,
1.478,-0.79,-0.40,-0.07,-0.09,-0.01,0.98,
1.479,-0.79,-0.40,-0.07,-0.09,-0.01,0.99,
1.479,-0.79,-0.40,-0.07,-0.09,-0.01,0.99,
1.479,-0.76,-0.41,-0.04,-0.09,-0.01,0.99,
1.479,-0.76,-0.41,-0.04,-0.09,-0.02,0.99,
1.482,-0.76,-0.41,-0.04,-0.09,-0.02,1.00,
1.482,-0.76,-0.42,0.02,-0.09,-0.02,1.00,
1.484,-0.76,-0.42,0.02,-0.09,-0.02,1.00,
1.487,-0.76,-0.42,0.02,-0.09,-0.02,1.00,
1.487,-0.77,-0.45,0.08,-0.09,-0.02,1.00,
1.491,-0.77,-0.45,0.08,-0.10,-0.02,1.01,
1.492,-0.77,-0.45,0.08,-0.10,-0.02,1.01,
1.492,-0.79,-0.48,0.14,-0.10,-0.02,1.01,
1.494,-0.79,-0.48,0.14,-0.11,-0.03,1.01,
1.496,-0.79,-0.48,0.14,-0.11,-0.03,1.01,
1.497,-0.86,-0.50,0.18,-0.11,-0.03,1.01,
1.499,-0.86,-0.50,0.18,-0.11,-0.03,1.01,
1.501,-0.86,-0.50,0.18,-0.12,-0.03,1.01,
1.501,-0.94,-0.53,0.23,-0.12,-0.03,1.01,
1.504,-0.94,-0.53,0.23,-0.12,-0.03,1.02,
1.506,-0.94,-0.53,0.23,-0.12,-0.03,1.02,
1.506,-1.01,-0.54,0.25,-0.12,-0.03,1.02,
1.509,-1.01,-0.54,0.25,-0.12,-0.03,1.02,
1.511,-1.01,-0.54,0.25,-0.13,-0.03,1.01,
1.511,-1.05,-0.54,0.28,-0.13,-0.03,1.01,
1.513,-1.05,-0.54,0.28,-0.13,-0.03,1.01,
1.516,-1.05,-0.54,0.28,-0.13,-0.03,1.01,
1.516,-1.12,-0.52,0.27,-0.13,-0.03,1.01,
1.518,-1.12,-0.52,0.27,-0.13,-0.02,1.01,
1.521,-1.12,-0.52,0.27,-0.13,-0.02,1.01,
1.521,-1.16,-0.49,0.23,-0.13,-0.02,1.01,
1.524,-1.16,-0.49,0.23,-0.13,-0.02,1.00,
1.526,-1.16,-0.49,0.23,-0.13,-0.02,1.00,
1.527,-1.19,-0.47,0.18,-0.13,-0.02,1.00,
1.529,-1.19,-0.47,0.18,-0.14,-0.02,1.00,
1.531,-1.19,-0.47,0.18,-0.13,-0.02,0.99,
1.531,-1.22,-0.46,0.12,-0.13,-0.02,0.99,
1.533,-1.22,-0.46,0.12,-0.13,-0.02,0.99,
1.536,-1.22,-0.46,0.12,-0.13,-0.02,0.99,
1.536,-1.24,-0.44,0.04,-0.13,-0.02,0.99,
1.538,-1.24,-0.44,0.04,-0.13,-0.02,0.98,
1.541,-1.24,-0.44,0.04,-0.13,-0.02,0.98,
1.541,-1.24,-0.41,-0.01,-0.13,-0.02,0.98,
1.543,-1.24,-0.41,-0.01,-0.12,-0.02,0.98,
1.546,-1.24,-0.41,-0.01,-0.12,-0.02,0.97,
1.546,-1.19,-0.41,-0.08,-0.12,-0.02,0.97,
1.548,-1.19,-0.41,-0.08,-0.11,-0.02,0.97,
1.55,-1.19,-0.41,-0.08,-0.10,-0.03,0.96,
1.551,-1.10,-0.42,-0.14,-0.10,-0.03,0.96,
1.553,-1.10,-0.42,-0.14,-0.10,-0.03,0.96,
1.558,-1.10,-0.42,-0.14,-0.09,-0.03,0.96,
1.558,-1.00,-0.44,-0.22,-0.09,-0.03,0.96,
1.558,-1.00,-0.44,-0.22,-0.08,-0.03,0.96,
1.561,-1.00,-0.44,-0.22,-0.08,-0.04,0.96,
1.561,-0.87,-0.48,-0.26,-0.08,-0.04,0.96,
1.563,-0.87,-0.48,-0.26,-0.07,-0.04,0.95,
1.565,-0.87,-0.48,-0.26,-0.06,-0.04,0.95,
1.565,-0.74,-0.52,-0.31,-0.06,-0.04,0.95,
1.567,-0.74,-0.52,-0.31,-0.05,-0.04,0.95,
1.57,-0.74,-0.52,-0.31,-0.05,-0.04,0.95,
1.571,-0.61,-0.56,-0.35,-0.05,-0.04,0.95,
1.573,-0.61,-0.56,-0.35,-0.04,-0.04,0.95,
1.575,-0.61,-0.56,-0.35,-0.04,-0.04,0.95,
1.578,-0.47,-0.56,-0.37,-0.04,-0.04,0.95,
1.578,-0.47,-0.56,-0.37,-0.03,-0.04,0.95,
1.58,-0.47,-0.56,-0.37,-0.03,-0.04,0.95,
1.58,-0.35,-0.55,-0.35,-0.03,-0.04,0.95,
1.582,-0.35,-0.55,-0.35,-0.02,-0.04,0.95,
1.585,-0.35,-0.55,-0.35,-0.02,-0.04,0.95,
1.585,-0.26,-0.54,-0.35,-0.02,-0.04,0.95,
1.587,-0.26,-0.54,-0.35,-0.02,-0.04,0.95,
1.595,-0.26,-0.54,-0.35,-0.03,-0.04,0.95,
1.595,-0.23,-0.52,-0.33,-0.03,-0.04,0.95,
1.596,-0.23,-0.52,-0.33,-0.03,-0.04,0.96,
1.596,-0.24,-0.51,-0.32,-0.03,-0.04,0.96,
1.596,-0.24,-0.51,-0.32,-0.04,-0.03,0.96,
1.597,-0.24,-0.51,-0.32,-0.04,-0.03,0.96,
1.6,-0.24,-0.51,-0.32,-0.04,-0.03,0.96,
1.6,-0.32,-0.46,-0.28,-0.04,-0.03,0.96,
1.602,-0.32,-0.46,-0.28,-0.04,-0.03,0.96,
1.604,-0.32,-0.46,-0.28,-0.05,-0.03,0.96,
1.605,-0.42,-0.43,-0.27,-0.05,-0.03,0.96,
1.607,-0.42,-0.43,-0.27,-0.05,-0.03,0.96,
1.609,-0.42,-0.43,-0.27,-0.06,-0.02,0.96,
1.61,-0.46,-0.40,-0.26,-0.06,-0.02,0.96,
1.612,-0.46,-0.40,-0.26,-0.07,-0.02,0.96,
1.614,-0.46,-0.40,-0.26,-0.07,-0.01,0.96,
1.614,-0.56,-0.34,-0.25,-0.07,-0.01,0.96,
1.616,-0.56,-0.34,-0.25,-0.08,-0.01,0.96,
1.619,-0.67,-0.26,-0.24,-0.08,-0.01,0.96,
1.619,-0.67,-0.26,-0.24,-0.08,-0.01,0.96,
1.622,-0.67,-0.26,-0.24,-0.09,-0.00,0.96,
1.624,-0.67,-0.26,-0.24,-0.09,0.00,0.96,
1.625,-0.77,-0.17,-0.23,-0.09,0.00,0.96,
1.626,-0.77,-0.17,-0.23,-0.10,0.01,0.96,
1.629,-0.77,-0.17,-0.23,-0.10,0.01,0.96,
1.629,-0.85,-0.08,-0.24,-0.10,0.01,0.96,
1.631,-0.85,-0.08,-0.24,-0.11,0.01,0.96,
1.634,-0.85,-0.08,-0.24,-0.11,0.01,0.95,
1.634,-0.95,0.00,-0.26,-0.11,0.01,0.95,
1.636,-0.95,0.00,-0.26,-0.11,0.02,0.95,
1.639,-0.95,0.00,-0.26,-0.11,0.02,0.95,
1.64,-1.06,0.04,-0.29,-0.11,0.02,0.95,
1.641,-1.06,0.04,-0.29,-0.12,0.02,0.95,
1.644,-1.06,0.04,-0.29,-0.12,0.02,0.95,
1.644,-1.10,0.06,-0.32,-0.12,0.02,0.95,
1.646,-1.10,0.06,-0.32,-0.12,0.02,0.94,
1.648,-1.10,0.06,-0.32,-0.11,0.02,0.94,
1.649,-1.12,0.06,-0.36,-0.11,0.02,0.94,
1.651,-1.12,0.06,-0.36,-0.11,0.02,0.94,
1.653,-1.12,0.06,-0.36,-0.11,0.02,0.94,
1.654,-1.10,0.07,-0.40,-0.11,0.02,0.94,
1.656,-1.10,0.07,-0.40,-0.10,0.01,0.94,
1.659,-1.10,0.07,-0.40,-0.10,0.01,0.94,
1.659,-1.04,0.05,-0.43,-0.10,0.01,0.94,
1.661,-1.04,0.05,-0.43,-0.10,0.01,0.93,
1.663,-1.04,0.05,-0.43,-0.09,0.01,0.93,
1.664,-0.96,0.00,-0.44,-0.09,0.01,0.93,
1.665,-0.96,0.00,-0.44,-0.09,0.01,0.93,
1.668,-0.96,0.00,-0.44,-0.08,0.01,0.93,
1.668,-0.88,0.00,-0.49,-0.08,0.01,0.93,
1.67,-0.88,0.00,-0.49,-0.08,0.01,0.93,
1.673,-0.88,0.00,-0.49,-0.07,0.01,0.93,
1.673,-0.78,-0.02,-0.52,-0.07,0.01,0.93,
1.675,-0.78,-0.02,-0.52,-0.07,0.01,0.93,
1.678,-0.78,-0.02,-0.52,-0.07,0.01,0.93,
1.678,-0.68,-0.04,-0.53,-0.07,0.01,0.93,
1.68,-0.68,-0.04,-0.53,-0.07,0.01,0.93,
1.683,-0.68,-0.04,-0.53,-0.07,0.01,0.93,
1.683,-0.60,-0.04,-0.52,-0.07,0.01,0.93,
1.685,-0.60,-0.04,-0.52,-0.07,0.01,0.93,
1.688,-0.60,-0.04,-0.52,-0.07,0.01,0.94,
1.688,-0.55,-0.03,-0.50,-0.07,0.01,0.94,
1.696,-0.55,-0.03,-0.50,-0.08,0.02,0.94,
1.697,-0.55,-0.03,-0.50,-0.08,0.02,0.94,
1.697,-0.56,0.00,-0.45,-0.08,0.02,0.94,
1.697,-0.56,0.00,-0.45,-0.09,0.02,0.94,
1.698,-0.65,0.03,-0.43,-0.09,0.02,0.94,
1.698,-0.65,0.03,-0.43,-0.09,0.02,0.94,
1.7,-0.65,0.03,-0.43,-0.10,0.03,0.94,
1.702,-0.65,0.03,-0.43,-0.11,0.03,0.94,
1.703,-0.75,0.08,-0.41,-0.11,0.03,0.94,
1.705,-0.75,0.08,-0.41,-0.12,0.04,0.94,
1.709,-0.75,0.08,-0.41,-0.12,0.04,0.94,
1.71,-0.89,0.16,-0.39,-0.12,0.04,0.94,
1.71,-0.89,0.16,-0.39,-0.13,0.05,0.94,
1.712,-0.89,0.16,-0.39,-0.14,0.06,0.94,
1.712,-1.01,0.27,-0.37,-0.14,0.06,0.94,
1.714,-1.01,0.27,-0.37,-0.14,0.06,0.94,
1.717,-1.13,0.39,-0.40,-0.14,0.06,0.94,
1.717,-1.13,0.39,-0.40,-0.15,0.07,0.94,
1.719,-1.13,0.39,-0.40,-0.16,0.07,0.94,
1.722,-1.13,0.39,-0.40,-0.17,0.07,0.94,
1.723,-1.25,0.49,-0.41,-0.17,0.07,0.94,
1.725,-1.25,0.49,-0.41,-0.18,0.08,0.93,
1.727,-1.25,0.49,-0.41,-0.18,0.08,0.94,
1.727,-1.39,0.56,-0.41,-0.18,0.08,0.94,
1.729,-1.39,0.56,-0.41,-0.19,0.08,0.94,
1.732,-1.39,0.56,-0.41,-0.19,0.09,0.94,
1.732,-1.53,0.61,-0.41,-0.19,0.09,0.94,
1.734,-1.53,0.61,-0.41,-0.20,0.09,0.94,
1.737,-1.53,0.61,-0.41,-0.20,0.09,0.94,
1.737,-1.62,0.68,-0.40,-0.20,0.09,0.94,
1.739,-1.62,0.68,-0.40,-0.20,0.10,0.94,
1.742,-1.62,0.68,-0.40,-0.21,0.10,0.94,
1.742,-1.68,0.73,-0.38,-0.21,0.10,0.94,
1.744,-1.68,0.73,-0.38,-0.21,0.10,0.95,
1.746,-1.68,0.73,-0.38,-0.21,0.10,0.95,
1.746,-1.70,0.82,-0.33,-0.21,0.10,0.95,
1.749,-1.70,0.82,-0.33,-0.21,0.11,0.95,
1.751,-1.70,0.82,-0.33,-0.20,0.10,0.96,
1.751,-1.69,0.85,-0.27,-0.20,0.10,0.96,
1.754,-1.69,0.85,-0.27,-0.20,0.10,0.96,
1.756,-1.69,0.85,-0.27,-0.21,0.10,0.96,
1.757,-1.64,0.85,-0.20,-0.21,0.10,0.96,
1.759,-1.64,0.85,-0.20,-0.21,0.10,0.97,
1.761,-1.64,0.85,-0.20,-0.21,0.10,0.97,
1.761,-1.61,0.81,-0.14,-0.21,0.10,0.97,
1.763,-1.61,0.81,-0.14,-0.21,0.09,0.98,
1.766,-1.61,0.81,-0.14,-0.20,0.09,0.98,
1.766,-1.60,0.77,-0.06,-0.20,0.09,0.98,
1.768,-1.60,0.77,-0.06,-0.20,0.08,0.98,
1.771,-1.60,0.77,-0.06,-0.20,0.08,0.98,
1.772,-1.54,0.69,0.01,-0.20,0.08,0.98,
1.78,-1.54,0.69,0.01,-0.20,0.07,0.98,
1.781,-1.54,0.69,0.01,-0.19,0.07,0.99,
1.782,-1.46,0.60,0.05,-0.19,0.07,0.99,
1.782,-1.46,0.60,0.05,-0.19,0.07,0.99,
1.782,-1.46,0.60,0.05,-0.19,0.06,0.99,
1.783,-1.39,0.51,0.11,-0.19,0.06,0.99,
1.783,-1.39,0.51,0.11,-0.18,0.06,0.99,
1.785,-1.39,0.51,0.11,-0.18,0.06,0.99,
1.786,-1.30,0.45,0.14,-0.18,0.06,0.99,
1.798,-1.30,0.45,0.14,-0.17,0.06,0.99,
1.798,-1.30,0.45,0.14,-0.17,0.06,0.99,
1.799,-1.20,0.42,0.16,-0.17,0.06,0.99,
1.799,-1.20,0.42,0.16,-0.16,0.06,0.99,
1.799,-1.20,0.42,0.16,-0.16,0.06,0.99,
1.799,-1.09,0.39,0.17,-0.16,0.06,0.99,
1.799,-1.09,0.39,0.17,-0.16,0.06,0.99,
1.8,-1.09,0.39,0.17,-0.16,0.05,0.99,
1.801,-1.01,0.37,0.18,-0.16,0.05,0.99,
1.802,-1.01,0.37,0.18,-0.16,0.05,0.99,
1.805,-1.01,0.37,0.18,-0.16,0.05,0.99,
1.805,-0.95,0.34,0.17,-0.16,0.05,0.99,
1.807,-0.95,0.34,0.17,-0.15,0.05,0.99,
1.81,-0.95,0.34,0.17,-0.15,0.05,0.99,
1.81,-0.92,0.32,0.14,-0.15,0.05,0.99,
1.812,-0.92,0.32,0.14,-0.15,0.05,0.99,
1.815,-0.92,0.32,0.14,-0.15,0.05,0.99,
1.815,-0.88,0.33,0.13,-0.15,0.05,0.99,
1.817,-0.88,0.33,0.13,-0.15,0.05,0.99,
1.82,-0.88,0.33,0.13,-0.16,0.06,0.99,
1.82,-0.87,0.33,0.12,-0.16,0.06,0.99,
1.822,-0.87,0.33,0.12,-0.16,0.06,0.99,
1.825,-0.87,0.33,0.12,-0.16,0.06,0.99,
1.825,-0.87,0.36,0.11,-0.16,0.06,0.99,
1.827,-0.87,0.36,0.11,-0.16,0.06,0.99,
1.83,-0.87,0.36,0.11,-0.16,0.06,0.98,
1.83,-0.89,0.36,0.10,-0.16,0.06,0.98,
1.832,-0.89,0.36,0.10,-0.16,0.06,0.98,
1.835,-0.89,0.36,0.10,-0.16,0.06,0.98,
1.835,-0.92,0.38,0.08,-0.16,0.06,0.98,
1.837,-0.92,0.38,0.08,-0.16,0.06,0.98,
1.839,-0.92,0.38,0.08,-0.16,0.06,0.98,
1.84,-0.94,0.41,0.04,-0.16,0.06,0.98,
1.842,-0.94,0.41,0.04,-0.16,0.06,0.98,
1.844,-0.94,0.41,0.04,-0.16,0.06,0.98,
1.845,-0.93,0.41,0.02,-0.16,0.06,0.98,
1.846,-0.93,0.41,0.02,-0.16,0.06,0.97,
1.849,-0.93,0.41,0.02,-0.16,0.06,0.98,
1.85,-0.91,0.42,0.00,-0.16,0.06,0.98,
1.852,-0.91,0.42,0.00,-0.16,0.06,0.98,
1.854,-0.91,0.42,0.00,-0.16,0.06,0.98,
1.855,-0.86,0.42,-0.02,-0.16,0.06,0.98,
1.857,-0.86,0.42,-0.02,-0.15,0.06,0.98,
1.859,-0.86,0.42,-0.02,-0.15,0.05,0.98,
1.859,-0.83,0.40,-0.01,-0.15,0.05,0.98,
1.861,-0.83,0.40,-0.01,-0.14,0.05,0.98,
1.864,-0.83,0.40,-0.01,-0.14,0.05,0.98,
1.864,-0.77,0.38,0.01,-0.14,0.05,0.98,
1.866,-0.77,0.38,0.01,-0.14,0.05,0.98,
1.869,-0.77,0.38,0.01,-0.13,0.05,0.98,
1.869,-0.67,0.37,0.01,-0.13,0.05,0.98,
1.877,-0.67,0.37,0.01,-0.13,0.05,0.98,
1.878,-0.67,0.37,0.01,-0.13,0.05,0.98,
1.878,-0.60,0.37,0.03,-0.13,0.05,0.98,
1.878,-0.60,0.37,0.03,-0.13,0.05,0.99,
1.879,-0.60,0.37,0.03,-0.12,0.05,0.99,
1.879,-0.54,0.36,0.06,-0.12,0.05,0.99,
1.881,-0.54,0.36,0.06,-0.12,0.05,0.99,
1.883,-0.54,0.36,0.06,-0.12,0.04,0.99,
1.884,-0.47,0.35,0.10,-0.12,0.04,0.99,
1.886,-0.47,0.35,0.10,-0.11,0.04,0.99,
1.889,-0.40,0.31,0.10,-0.11,0.04,0.99,
1.889,-0.40,0.31,0.10,-0.11,0.04,0.99,
1.891,-0.40,0.31,0.10,-0.11,0.04,0.99,
1.893,-0.40,0.31,0.10,-0.11,0.04,0.99,
1.894,-0.33,0.27,0.11,-0.11,0.04,0.99,
1.895,-0.33,0.27,0.11,-0.10,0.04,0.99,
1.898,-0.33,0.27,0.11,-0.10,0.04,0.99,
1.898,-0.27,0.28,0.10,-0.10,0.04,0.99,
1.9,-0.27,0.28,0.10,-0.10,0.04,0.99,
1.903,-0.27,0.28,0.10,-0.10,0.04,0.99,
1.903,-0.21,0.28,0.08,-0.10,0.04,0.99,
1.905,-0.21,0.28,0.08,-0.09,0.04,0.99,
1.908,-0.21,0.28,0.08,-0.09,0.04,0.99,
1.909,-0.17,0.28,0.08,-0.09,0.04,0.99,
1.91,-0.17,0.28,0.08,-0.09,0.05,0.99,
1.913,-0.17,0.28,0.08,-0.09,0.05,0.98,
1.913,-0.11,0.29,0.09,-0.09,0.05,0.98,
1.915,-0.11,0.29,0.09,-0.09,0.05,0.98,
1.918,-0.11,0.29,0.09,-0.09,0.05,0.98,
1.918,-0.07,0.33,0.07,-0.09,0.05,0.98,
1.92,-0.07,0.33,0.07,-0.09,0.05,0.98,
1.923,-0.07,0.33,0.07,-0.09,0.06,0.98,
1.923,-0.05,0.38,0.05,-0.09,0.06,0.98,
1.925,-0.05,0.38,0.05,-0.09,0.06,0.98,
1.928,-0.05,0.38,0.05,-0.09,0.07,0.98,
1.928,-0.06,0.43,0.05,-0.09,0.07,0.98,
1.93,-0.06,0.43,0.05,-0.09,0.07,0.98,
1.932,-0.06,0.43,0.05,-0.09,0.07,0.98,
1.933,-0.07,0.51,0.03,-0.09,0.07,0.98,
1.935,-0.07,0.51,0.03,-0.09,0.07,0.98,
1.939,-0.07,0.51,0.03,-0.10,0.07,0.97,
1.94,-0.09,0.55,0.01,-0.10,0.07,0.97,
1.94,-0.09,0.55,0.01,-0.10,0.07,0.97,
1.942,-0.09,0.55,0.01,-0.10,0.08,0.97,
1.943,-0.12,0.59,-0.02,-0.10,0.08,0.97,
1.945,-0.12,0.59,-0.02,-0.11,0.08,0.97,
1.947,-0.12,0.59,-0.02,-0.11,0.08,0.97,
1.947,-0.19,0.61,-0.07,-0.11,0.08,0.97,
1.949,-0.19,0.61,-0.07,-0.11,0.08,0.96,
1.952,-0.19,0.61,-0.07,-0.11,0.08,0.96,
1.952,-0.22,0.62,-0.10,-0.11,0.08,0.96,
1.955,-0.22,0.62,-0.10,-0.11,0.08,0.96,
1.957,-0.22,0.62,-0.10,-0.12,0.08,0.96,
1.958,-0.28,0.64,-0.13,-0.12,0.08,0.96,
1.959,-0.28,0.64,-0.13,-0.12,0.08,0.96,
1.962,-0.28,0.64,-0.13,-0.11,0.08,0.96,
1.962,-0.29,0.64,-0.15,-0.11,0.08,0.96,
1.964,-0.29,0.64,-0.15,-0.12,0.09,0.96,
1.967,-0.29,0.64,-0.15,-0.12,0.09,0.96,
1.967,-0.28,0.67,-0.16,-0.12,0.09,0.96,
1.969,-0.28,0.67,-0.16,-0.11,0.09,0.96,
1.972,-0.28,0.67,-0.16,-0.11,0.09,0.96,
1.973,-0.28,0.68,-0.17,-0.11,0.09,0.96,
1.974,-0.28,0.68,-0.17,-0.11,0.09,0.96,
1.977,-0.28,0.68,-0.17,-0.11,0.10,0.96,
1.977,-0.25,0.73,-0.17,-0.11,0.10,0.96,
1.979,-0.25,0.73,-0.17,-0.11,0.10,0.96,
1.981,-0.25,0.73,-0.17,-0.11,0.10,0.96,
1.982,-0.23,0.76,-0.19,-0.11,0.10,0.96,
1.984,-0.23,0.76,-0.19,-0.11,0.10,0.96,
1.987,-0.23,0.76,-0.19,-0.11,0.10,0.95,
1.987,-0.19,0.77,-0.19,-0.11,0.10,0.95,
1.994,-0.19,0.77,-0.19,-0.10,0.10,0.95,
1.995,-0.19,0.77,-0.19,-0.10,0.10,0.96,
1.995,-0.16,0.79,-0.20,-0.10,0.10,0.96,
1.995,-0.16,0.79,-0.20,-0.10,0.10,0.95,
1.996,-0.16,0.79,-0.20,-0.10,0.10,0.95,
1.996,-0.12,0.79,-0.20,-0.10,0.10,0.95,
1.998,-0.12,0.79,-0.20,-0.10,0.10,0.95,
2.001,-0.12,0.79,-0.20,-0.10,0.10,0.95,
2.001,-0.07,0.80,-0.20,-0.10,0.10,0.95,
2.003,-0.07,0.80,-0.20,-0.10,0.11,0.95,
2.007,-0.07,0.80,-0.20,-0.09,0.11,0.95,
2.007,-0.06,0.82,-0.21,-0.09,0.11,0.95,
2.008,-0.06,0.82,-0.21,-0.09,0.11,0.95,
2.011,-0.06,0.82,-0.21,-0.09,0.11,0.95,
2.011,-0.01,0.82,-0.22,-0.09,0.11,0.95,
2.013,-0.01,0.82,-0.22,-0.09,0.11,0.95,
2.015,-0.01,0.82,-0.22,-0.08,0.11,0.95,
2.016,0.03,0.83,-0.20,-0.08,0.11,0.95,
2.018,0.03,0.83,-0.20,-0.08,0.11,0.95,
2.021,0.03,0.83,-0.20,-0.08,0.10,0.95,
2.022,0.09,0.82,-0.21,-0.08,0.10,0.95,
2.023,0.09,0.82,-0.21,-0.07,0.10,0.95,
2.025,0.09,0.82,-0.21,-0.07,0.10,0.95,
2.026,0.14,0.81,-0.23,-0.07,0.10,0.95,
2.028,0.14,0.81,-0.23,-0.06,0.10,0.95,
2.031,0.23,0.78,-0.21,-0.06,0.10,0.95,
2.031,0.23,0.78,-0.21,-0.06,0.10,0.95,
2.033,0.23,0.78,-0.21,-0.05,0.10,0.95,
2.035,0.23,0.78,-0.21,-0.05,0.10,0.96,
2.035,0.31,0.76,-0.20,-0.05,0.10,0.96,
2.037,0.31,0.76,-0.20,-0.05,0.09,0.96,
2.041,0.31,0.76,-0.20,-0.04,0.09,0.96,
2.041,0.41,0.72,-0.18,-0.04,0.09,0.96,
2.042,0.41,0.72,-0.18,-0.05,0.09,0.96,
2.045,0.41,0.72,-0.18,-0.04,0.09,0.96,
2.045,0.47,0.70,-0.16,-0.04,0.09,0.96,
2.047,0.47,0.70,-0.16,-0.04,0.09,0.96,
2.05,0.47,0.70,-0.16,-0.04,0.09,0.96,
2.05,0.50,0.66,-0.15,-0.04,0.09,0.96,
2.053,0.50,0.66,-0.15,-0.04,0.08,0.96,
2.055,0.50,0.66,-0.15,-0.04,0.08,0.97,
2.056,0.55,0.62,-0.11,-0.04,0.08,0.97,
2.057,0.55,0.62,-0.11,-0.04,0.08,0.97,
2.06,0.55,0.62,-0.11,-0.04,0.08,0.97,
2.06,0.54,0.59,-0.08,-0.04,0.08,0.97,
2.062,0.54,0.59,-0.08,-0.04,0.08,0.97,
2.065,0.54,0.59,-0.08,-0.04,0.08,0.98,
2.067,0.54,0.55,-0.04,-0.04,0.08,0.98,
2.068,0.54,0.55,-0.04,-0.04,0.08,0.98,
2.07,0.54,0.55,-0.04,-0.04,0.08,0.98,
2.07,0.56,0.53,0.01,-0.04,0.08,0.98,
2.077,0.56,0.53,0.01,-0.04,0.08,0.98,
2.078,0.56,0.53,0.01,-0.04,0.08,0.99,
2.078,0.56,0.55,0.06,-0.04,0.08,0.99,
2.078,0.56,0.55,0.06,-0.04,0.08,0.99,
2.079,0.56,0.55,0.06,-0.03,0.08,0.99,
2.079,0.57,0.56,0.11,-0.03,0.08,0.99,
2.081,0.57,0.56,0.11,-0.03,0.08,0.99,
2.084,0.57,0.56,0.11,-0.03,0.08,0.99,
2.084,0.58,0.55,0.14,-0.03,0.08,0.99,
2.086,0.58,0.55,0.14,-0.03,0.08,1.00,
2.089,0.58,0.55,0.14,-0.03,0.08,1.00,
2.089,0.59,0.57,0.19,-0.03,0.08,1.00,
2.091,0.59,0.57,0.19,-0.03,0.08,1.00,
2.094,0.59,0.57,0.19,-0.03,0.08,1.00,
2.094,0.59,0.56,0.24,-0.03,0.08,1.00,
2.096,0.59,0.56,0.24,-0.03,0.08,1.01,
2.099,0.59,0.56,0.24,-0.03,0.08,1.01,
2.099,0.62,0.56,0.27,-0.03,0.08,1.01,
2.101,0.62,0.56,0.27,-0.03,0.08,1.01,
2.104,0.62,0.56,0.27,-0.02,0.08,1.01,
2.104,0.63,0.58,0.32,-0.02,0.08,1.01,
2.106,0.63,0.58,0.32,-0.02,0.08,1.01,
2.109,0.63,0.58,0.32,-0.02,0.07,1.01,
2.109,0.65,0.57,0.35,-0.02,0.07,1.01,
2.111,0.65,0.57,0.35,-0.02,0.07,1.01,
2.113,0.65,0.57,0.35,-0.02,0.07,1.01,
2.114,0.66,0.51,0.38,-0.02,0.07,1.01,
2.116,0.66,0.51,0.38,-0.02,0.07,1.01,
2.118,0.66,0.51,0.38,-0.02,0.06,1.02,
2.118,0.67,0.46,0.38,-0.02,0.06,1.02,
2.121,0.67,0.46,0.38,-0.02,0.06,1.02,
2.124,0.67,0.46,0.38,-0.01,0.06,1.02,
2.124,0.68,0.40,0.40,-0.01,0.06,1.02,
2.126,0.68,0.40,0.40,-0.01,0.05,1.02,
2.128,0.68,0.40,0.40,-0.01,0.05,1.02,
2.128,0.73,0.33,0.43,-0.01,0.05,1.02,
2.13,0.73,0.33,0.43,-0.01,0.05,1.02,
2.133,0.73,0.33,0.43,-0.01,0.05,1.03,
2.133,0.75,0.28,0.44,-0.01,0.05,1.03,
2.135,0.75,0.28,0.44,-0.01,0.05,1.03,
2.138,0.75,0.28,0.44,-0.01,0.04,1.03,
2.138,0.77,0.24,0.48,-0.01,0.04,1.03,
2.14,0.77,0.24,0.48,-0.00,0.04,1.03,
2.143,0.77,0.24,0.48,-0.00,0.04,1.04,
2.143,0.79,0.20,0.53,-0.00,0.04,1.04,
2.145,0.79,0.20,0.53,-0.00,0.04,1.04,
2.148,0.79,0.20,0.53,-0.00,0.03,1.04,
2.148,0.82,0.16,0.56,-0.00,0.03,1.04,
2.15,0.82,0.16,0.56,0.00,0.03,1.04,
2.153,0.82,0.16,0.56,0.00,0.03,1.05,
2.153,0.84,0.09,0.59,0.00,0.03,1.05,
2.155,0.84,0.09,0.59,0.00,0.03,1.05,
2.157,0.84,0.09,0.59,0.01,0.02,1.05,
2.158,0.87,0.04,0.64,0.01,0.02,1.05,
2.16,0.87,0.04,0.64,0.01,0.02,1.05,
2.162,0.87,0.04,0.64,0.01,0.02,1.05,
2.163,0.89,-0.00,0.69,0.01,0.02,1.05,
2.165,0.89,-0.00,0.69,0.01,0.02,1.05,
2.167,0.89,-0.00,0.69,0.01,0.02,1.06,
2.167,0.91,-0.03,0.71,0.01,0.02,1.06,
2.177,0.91,-0.03,0.71,0.01,0.01,1.05,
2.177,0.91,-0.03,0.71,0.01,0.01,1.06,
2.178,0.93,-0.07,0.74,0.01,0.01,1.06,
2.178,0.93,-0.07,0.74,0.01,0.01,1.06,
2.178,0.93,-0.07,0.74,0.01,0.01,1.06,
2.178,0.92,-0.11,0.73,0.01,0.01,1.06,
2.179,0.92,-0.11,0.73,0.01,0.01,1.05,
2.182,0.92,-0.11,0.73,0.01,0.01,1.05,
2.182,0.91,-0.13,0.73,0.01,0.01,1.05,
2.184,0.91,-0.13,0.73,0.01,0.01,1.05,
2.189,0.91,-0.13,0.73,0.01,0.01,1.05,
2.189,0.90,-0.15,0.70,0.01,0.01,1.05,
2.19,0.90,-0.15,0.70,0.01,0.01,1.05,
2.192,0.90,-0.15,0.70,0.01,0.01,1.04,
2.192,0.89,-0.13,0.67,0.01,0.01,1.04,
2.194,0.89,-0.13,0.67,0.01,0.01,1.04,
2.196,0.89,-0.13,0.67,0.01,0.01,1.04,
2.197,0.90,-0.14,0.62,0.01,0.01,1.04,
2.199,0.90,-0.14,0.62,0.01,0.02,1.03,
2.201,0.90,-0.14,0.62,0.01,0.02,1.03,
2.202,0.88,-0.13,0.56,0.01,0.02,1.03,
2.204,0.88,-0.13,0.56,0.01,0.02,1.03,
2.206,0.88,-0.13,0.56,0.02,0.02,1.02,
2.207,0.89,-0.09,0.49,0.02,0.02,1.02,
2.209,0.89,-0.09,0.49,0.01,0.02,1.02,
2.212,0.90,-0.05,0.41,0.01,0.02,1.02,
2.212,0.90,-0.05,0.41,0.01,0.03,1.02,
2.213,0.90,-0.05,0.41,0.01,0.03,1.01,
2.216,0.90,-0.05,0.41,0.01,0.03,1.01,
2.216,0.87,-0.03,0.33,0.01,0.03,1.01,
2.218,0.87,-0.03,0.33,0.01,0.03,1.01,
2.221,0.87,-0.03,0.33,0.01,0.03,1.00,
2.222,0.84,-0.01,0.27,0.01,0.03,1.00,
2.224,0.84,-0.01,0.27,0.01,0.03,1.00,
2.226,0.84,-0.01,0.27,0.00,0.03,1.00,
2.226,0.81,0.00,0.20,0.00,0.03,1.00,
2.229,0.81,0.00,0.20,0.00,0.04,1.00,
2.231,0.81,0.00,0.20,-0.00,0.03,1.00,
2.231,0.77,0.02,0.17,-0.00,0.03,1.00,
2.233,0.77,0.02,0.17,-0.01,0.04,1.00,
2.236,0.77,0.02,0.17,-0.01,0.04,1.00,
2.236,0.71,0.03,0.14,-0.01,0.04,1.00,
2.238,0.71,0.03,0.14,-0.02,0.04,1.00,
2.241,0.71,0.03,0.14,-0.02,0.04,1.00,
2.241,0.62,0.04,0.14,-0.02,0.04,1.00,
2.243,0.62,0.04,0.14,-0.03,0.04,1.00,
2.246,0.62,0.04,0.14,-0.03,0.04,1.00,
2.246,0.52,0.05,0.13,-0.03,0.04,1.00,
2.248,0.52,0.05,0.13,-0.04,0.04,1.00,
2.251,0.52,0.05,0.13,-0.04,0.04,1.00,
2.251,0.44,0.05,0.15,-0.04,0.04,1.00,
2.254,0.44,0.05,0.15,-0.05,0.04,1.00,
2.256,0.44,0.05,0.15,-0.05,0.04,1.00,
2.256,0.35,0.06,0.17,-0.05,0.04,1.00,
2.258,0.35,0.06,0.17,-0.05,0.04,1.01,
2.261,0.35,0.06,0.17,-0.05,0.04,1.01,
2.261,0.26,0.06,0.18,-0.05,0.04,1.01,
2.263,0.26,0.06,0.18,-0.06,0.04,1.01,
2.265,0.26,0.06,0.18,-0.06,0.04,1.01,
2.265,0.22,0.03,0.22,-0.06,0.04,1.01,
2.268,0.22,0.03,0.22,-0.06,0.04,1.01,
2.27,0.22,0.03,0.22,-0.06,0.04,1.01,
2.271,0.20,-0.00,0.25,-0.06,0.04,1.01,
2.273,0.20,-0.00,0.25,-0.06,0.03,1.01,
2.275,0.20,-0.00,0.25,-0.06,0.03,1.01,
2.275,0.16,-0.04,0.25,-0.06,0.03,1.01,
2.277,0.16,-0.04,0.25,-0.06,0.03,1.01,
2.28,0.19,-0.08,0.27,-0.06,0.03,1.01,
2.281,0.19,-0.08,0.27,-0.05,0.03,1.01,
2.282,0.19,-0.08,0.27,-0.05,0.03,1.01,
2.285,0.19,-0.08,0.27,-0.05,0.03,1.01,
2.285,0.21,-0.10,0.24,-0.05,0.03,1.01,
2.292,0.21,-0.10,0.24,-0.04,0.02,1.01,
2.293,0.21,-0.10,0.24,-0.04,0.02,1.00,
2.293,0.27,-0.16,0.22,-0.04,0.02,1.00,
2.293,0.27,-0.16,0.22,-0.04,0.02,1.00,
2.295,0.27,-0.16,0.22,-0.03,0.02,1.00,
2.295,0.33,-0.21,0.19,-0.03,0.02,1.00,
2.297,0.33,-0.21,0.19,-0.03,0.02,1.00,
2.299,0.33,-0.21,0.19,-0.02,0.01,1.00,
2.3,0.40,-0.27,0.13,-0.02,0.01,1.00,
2.302,0.40,-0.27,0.13,-0.02,0.01,0.99,
2.304,0.40,-0.27,0.13,-0.02,0.01,0.99,
2.305,0.47,-0.31,0.11,-0.02,0.01,0.99,
2.307,0.47,-0.31,0.11,-0.02,0.01,0.99,
2.309,0.47,-0.31,0.11,-0.02,0.01,0.99,
2.309,0.51,-0.35,0.07,-0.02,0.01,0.99,
2.311,0.51,-0.35,0.07,-0.02,0.01,0.99,
2.314,0.51,-0.35,0.07,-0.01,0.01,0.99,
2.314,0.55,-0.37,0.04,-0.01,0.01,0.99,
2.316,0.55,-0.37,0.04,-0.01,0.01,0.99,
2.32,0.55,-0.37,0.04,-0.01,0.01,0.99,
2.32,0.57,-0.40,0.01,-0.01,0.01,0.99,
2.321,0.57,-0.40,0.01,-0.01,0.01,0.99,
2.324,0.57,-0.40,0.01,-0.01,0.00,0.99,
2.324,0.59,-0.40,0.01,-0.01,0.00,0.99,
2.327,0.59,-0.40,0.01,-0.01,0.00,0.99,
2.329,0.59,-0.40,0.01,-0.01,0.00,0.99,
2.329,0.60,-0.41,0.01,-0.01,0.00,0.99,
2.331,0.60,-0.41,0.01,-0.01,0.00,0.99,
2.334,0.60,-0.41,0.01,-0.02,0.00,0.99,
2.334,0.57,-0.42,0.02,-0.02,0.00,0.99,
2.336,0.57,-0.42,0.02,-0.02,0.00,0.99,
2.339,0.57,-0.42,0.02,-0.02,0.00,0.99,
2.339,0.53,-0.43,0.05,-0.02,0.00,0.99,
2.341,0.53,-0.43,0.05,-0.03,0.00,0.99,
2.343,0.53,-0.43,0.05,-0.03,0.00,1.00,
2.344,0.47,-0.45,0.06,-0.03,0.00,1.00,
2.346,0.47,-0.45,0.06,-0.03,0.00,1.00,
2.349,0.47,-0.45,0.06,-0.04,0.00,1.00,
2.349,0.40,-0.44,0.07,-0.04,0.00,1.00,
2.351,0.40,-0.44,0.07,-0.04,0.00,1.00,
2.353,0.40,-0.44,0.07,-0.04,0.00,1.00,
2.355,0.33,-0.44,0.10,-0.04,0.00,1.00,
2.356,0.33,-0.44,0.10,-0.05,0.00,1.00,
2.358,0.33,-0.44,0.10,-0.05,0.01,1.00,
2.359,0.25,-0.44,0.14,-0.05,0.01,1.00,
2.36,0.25,-0.44,0.14,-0.05,0.01,1.00,
2.363,0.25,-0.44,0.14,-0.05,0.01,1.00,
2.363,0.21,-0.43,0.14,-0.05,0.01,1.00,
2.366,0.21,-0.43,0.14,-0.05,0.00,1.00,
2.368,0.21,-0.43,0.14,-0.04,0.00,1.01,
2.368,0.21,-0.42,0.16,-0.04,0.00,1.01,
2.37,0.21,-0.42,0.16,-0.04,0.00,1.01,
2.373,0.21,-0.42,0.16,-0.04,0.00,1.00,
2.373,0.25,-0.45,0.18,-0.04,0.00,1.00,
2.375,0.25,-0.45,0.18,-0.03,0.00,1.01,
2.378,0.25,-0.45,0.18,-0.03,-0.00,1.01,
2.378,0.30,-0.46,0.17,-0.03,-0.00,1.01,
2.38,0.30,-0.46,0.17,-0.02,-0.01,1.00,
2.383,0.30,-0.46,0.17,-0.02,-0.01,1.00,
2.383,0.37,-0.51,0.18,-0.02,-0.01,1.00,
2.385,0.37,-0.51,0.18,-0.01,-0.01,1.00,
2.391,0.37,-0.51,0.18,-0.01,-0.02,1.00,
2.392,0.44,-0.57,0.16,-0.01,-0.02,1.00,
2.392,0.44,-0.57,0.16,-0.01,-0.02,1.00,
2.394,0.44,-0.57,0.16,0.00,-0.02,1.00,
2.394,0.53,-0.64,0.12,0.00,-0.02,1.00,
2.395,0.53,-0.64,0.12,0.01,-0.03,0.99,
2.398,0.53,-0.64,0.12,0.01,-0.02,0.99,
2.398,0.62,-0.71,0.09,0.01,-0.02,0.99,
2.4,0.62,-0.71,0.09,0.01,-0.03,0.99,
2.404,0.62,-0.71,0.09,0.01,-0.03,0.99,
2.405,0.69,-0.75,0.06,0.01,-0.03,0.99,
2.405,0.69,-0.75,0.06,0.02,-0.03,0.99,
2.407,0.69,-0.75,0.06,0.02,-0.03,0.99,
2.407,0.73,-0.79,0.04,0.02,-0.03,0.99,
2.409,0.73,-0.79,0.04,0.02,-0.03,0.99,
2.412,0.73,-0.79,0.04,0.02,-0.03,0.98,
2.412,0.79,-0.81,0.01,0.02,-0.03,0.98,
2.414,0.79,-0.81,0.01,0.02,-0.03,0.98,
2.417,0.79,-0.81,0.01,0.02,-0.03,0.98,
2.417,0.82,-0.83,-0.03,0.02,-0.03,0.98,
2.419,0.82,-0.83,-0.03,0.02,-0.03,0.98,
2.422,0.82,-0.83,-0.03,0.02,-0.03,0.98,
2.422,0.82,-0.84,-0.07,0.02,-0.03,0.98,
2.424,0.82,-0.84,-0.07,0.02,-0.03,0.97,
2.427,0.82,-0.84,-0.07,0.02,-0.03,0.97,
2.427,0.80,-0.82,-0.10,0.02,-0.03,0.97,
2.429,0.80,-0.82,-0.10,0.02,-0.03,0.97,
2.432,0.80,-0.82,-0.10,0.02,-0.03,0.97,
2.432,0.75,-0.82,-0.13,0.02,-0.03,0.97,
2.434,0.75,-0.82,-0.13,0.02,-0.03,0.97,
2.437,0.75,-0.82,-0.13,0.02,-0.03,0.97,
2.437,0.74,-0.82,-0.17,0.02,-0.03,0.97,
2.439,0.74,-0.82,-0.17,0.01,-0.03,0.96,
2.442,0.74,-0.82,-0.17,0.01,-0.03,0.96,
2.442,0.71,-0.82,-0.20,0.01,-0.03,0.96,
2.444,0.71,-0.82,-0.20,0.01,-0.03,0.96,
2.446,0.71,-0.82,-0.20,0.01,-0.02,0.96,
2.447,0.67,-0.78,-0.25,0.01,-0.02,0.96,
2.449,0.67,-0.78,-0.25,0.01,-0.02,0.95,
2.452,0.67,-0.78,-0.25,0.01,-0.02,0.95,
2.452,0.64,-0.75,-0.29,0.01,-0.02,0.95,
2.454,0.64,-0.75,-0.29,0.01,-0.02,0.95,
2.456,0.64,-0.75,-0.29,0.01,-0.02,0.95,
2.457,0.60,-0.73,-0.32,0.01,-0.02,0.95,
2.459,0.60,-0.73,-0.32,0.00,-0.02,0.95,
2.461,0.60,-0.73,-0.32,0.01,-0.02,0.95,
2.462,0.59,-0.69,-0.35,0.01,-0.02,0.95,
2.464,0.59,-0.69,-0.35,0.01,-0.01,0.95,
2.466,0.59,-0.69,-0.35,0.00,-0.01,0.95,
2.466,0.59,-0.68,-0.36,0.00,-0.01,0.95,
2.469,0.59,-0.68,-0.36,0.00,-0.01,0.95,
2.471,0.59,-0.68,-0.36,0.00,-0.01,0.95,
2.472,0.58,-0.64,-0.33,0.00,-0.01,0.95,
2.473,0.58,-0.64,-0.33,0.00,-0.01,0.96,
2.476,0.58,-0.64,-0.33,-0.00,-0.01,0.96,
2.476,0.57,-0.61,-0.31,-0.00,-0.01,0.96,
2.478,0.57,-0.61,-0.31,0.00,-0.01,0.96,
2.481,0.57,-0.61,-0.31,-0.00,-0.01,0.96,
2.481,0.53,-0.61,-0.27,-0.00,-0.01,0.96,
2.483,0.53,-0.61,-0.27,-0.01,-0.01,0.96,
2.494,0.53,-0.61,-0.27,-0.01,-0.01,0.96,
2.494,0.52,-0.59,-0.24,-0.01,-0.01,0.96,
2.495,0.52,-0.59,-0.24,-0.01,-0.01,0.96,
2.495,0.52,-0.59,-0.24,-0.01,-0.01,0.97,
2.495,0.45,-0.61,-0.21,-0.01,-0.01,0.97,
2.495,0.45,-0.61,-0.21,-0.01,-0.01,0.97,
2.496,0.45,-0.61,-0.21,-0.01,-0.01,0.97,
2.496,0.42,-0.60,-0.18,-0.01,-0.01,0.97,
2.498,0.42,-0.60,-0.18,-0.01,-0.00,0.97,
2.5,0.42,-0.60,-0.18,-0.01,-0.00,0.97,
2.501,0.42,-0.59,-0.15,-0.01,-0.00,0.97,
2.507,0.42,-0.59,-0.15,-0.01,-0.00,0.97,
2.507,0.43,-0.56,-0.15,-0.01,-0.00,0.97,
2.507,0.43,-0.56,-0.15,-0.01,-0.00,0.97,
2.508,0.43,-0.56,-0.15,-0.01,0.00,0.97,
2.51,0.43,-0.56,-0.15,-0.02,0.00,0.97,
2.51,0.41,-0.54,-0.12,-0.02,0.00,0.97,
2.512,0.41,-0.54,-0.12,-0.02,0.00,0.97,
2.515,0.41,-0.54,-0.12,-0.02,0.00,0.97,
2.515,0.36,-0.53,-0.11,-0.02,0.00,0.97,
2.517,0.36,-0.53,-0.11,-0.02,0.00,0.97,
2.52,0.36,-0.53,-0.11,-0.02,0.00,0.97,
2.52,0.30,-0.50,-0.11,-0.02,0.00,0.97,
2.522,0.30,-0.50,-0.11,-0.02,0.01,0.97,
2.525,0.30,-0.50,-0.11,-0.02,0.01,0.97,
2.525,0.29,-0.49,-0.13,-0.02,0.01,0.97,
2.527,0.29,-0.49,-0.13,-0.03,0.01,0.97,
2.53,0.29,-0.49,-0.13,-0.03,0.01,0.97,
2.53,0.26,-0.46,-0.15,-0.03,0.01,0.97,
2.532,0.26,-0.46,-0.15,-0.03,0.01,0.97,
2.534,0.26,-0.46,-0.15,-0.03,0.02,0.97,
2.535,0.21,-0.41,-0.16,-0.03,0.02,0.97,
2.537,0.21,-0.41,-0.16,-0.04,0.02,0.96,
2.539,0.21,-0.41,-0.16,-0.03,0.02,0.96,
2.54,0.16,-0.37,-0.16,-0.03,0.02,0.96,
2.542,0.16,-0.37,-0.16,-0.04,0.02,0.96,
2.545,0.14,-0.32,-0.18,-0.04,0.02,0.96,
2.545,0.14,-0.32,-0.18,-0.04,0.03,0.96,
2.547,0.14,-0.32,-0.18,-0.04,0.03,0.96,
2.549,0.14,-0.32,-0.18,-0.04,0.03,0.96,
2.55,0.10,-0.28,-0.20,-0.04,0.03,0.96,
2.552,0.10,-0.28,-0.20,-0.04,0.03,0.96,
2.555,0.10,-0.28,-0.20,-0.04,0.04,0.96,
2.557,0.06,-0.23,-0.19,-0.04,0.04,0.96,
2.558,0.06,-0.23,-0.19,-0.04,0.04,0.96,
2.56,0.06,-0.23,-0.19,-0.05,0.04,0.96,
2.56,0.04,-0.18,-0.19,-0.05,0.04,0.96,
2.561,0.04,-0.18,-0.19,-0.05,0.04,0.96,
2.564,0.04,-0.18,-0.19,-0.05,0.04,0.96,
2.564,0.02,-0.14,-0.18,-0.05,0.04,0.96,
2.566,0.02,-0.14,-0.18,-0.05,0.04,0.96,
2.575,0.02,-0.14,-0.18,-0.05,0.04,0.96,
2.576,-0.00,-0.12,-0.18,-0.05,0.04,0.96,
2.576,-0.00,-0.12,-0.18,-0.05,0.04,0.96,
2.576,-0.00,-0.12,-0.18,-0.05,0.04,0.96,
2.577,-0.01,-0.13,-0.18,-0.05,0.04,0.96,
2.577,-0.01,-0.13,-0.18,-0.04,0.04,0.97,
2.579,-0.01,-0.13,-0.18,-0.04,0.04,0.97,
2.579,0.00,-0.15,-0.18,-0.04,0.04,0.97,
2.581,0.00,-0.15,-0.18,-0.04,0.04,0.97,
2.583,0.00,-0.15,-0.18,-0.04,0.04,0.97,
2.584,0.06,-0.14,-0.15,-0.04,0.04,0.97,
2.586,0.06,-0.14,-0.15,-0.03,0.04,0.97,
2.589,0.06,-0.14,-0.15,-0.03,0.04,0.97,
2.589,0.08,-0.15,-0.12,-0.03,0.04,0.97,
2.591,0.08,-0.15,-0.12,-0.03,0.04,0.97,
2.593,0.08,-0.15,-0.12,-0.03,0.04,0.97,
2.594,0.13,-0.15,-0.11,-0.03,0.04,0.97,
2.596,0.13,-0.15,-0.11,-0.03,0.04,0.98,
2.598,0.13,-0.15,-0.11,-0.03,0.04,0.98,
2.598,0.14,-0.14,-0.07,-0.03,0.04,0.98,
2.601,0.14,-0.14,-0.07,-0.03,0.03,0.98,
2.603,0.14,-0.14,-0.07,-0.02,0.03,0.98,
2.603,0.17,-0.17,-0.04,-0.02,0.03,0.98,
2.606,0.17,-0.17,-0.04,-0.02,0.03,0.98,
2.608,0.17,-0.17,-0.04,-0.02,0.03,0.98,
2.608,0.20,-0.20,-0.04,-0.02,0.03,0.98,
2.61,0.20,-0.20,-0.04,-0.02,0.03,0.98,
2.613,0.20,-0.20,-0.04,-0.02,0.03,0.98,
2.613,0.21,-0.26,-0.04,-0.02,0.03,0.98,
2.615,0.21,-0.26,-0.04,-0.02,0.03,0.98,
2.618,0.21,-0.26,-0.04,-0.02,0.02,0.98,
2.618,0.21,-0.27,-0.01,-0.02,0.02,0.98,
2.62,0.21,-0.27,-0.01,-0.02,0.02,0.98,
2.623,0.21,-0.27,-0.01,-0.02,0.02,0.98,
2.623,0.26,-0.28,-0.01,-0.02,0.02,0.98,
2.625,0.26,-0.28,-0.01,-0.01,0.02,0.98,
2.627,0.26,-0.28,-0.01,-0.01,0.02,0.98,
2.628,0.28,-0.28,-0.01,-0.01,0.02,0.98,
2.63,0.28,-0.28,-0.01,-0.01,0.02,0.98,
2.632,0.28,-0.28,-0.01,-0.01,0.02,0.98,
2.633,0.29,-0.30,-0.02,-0.01,0.02,0.98,
2.635,0.29,-0.30,-0.02,-0.01,0.02,0.97,
2.637,0.29,-0.30,-0.02,-0.01,0.02,0.98,
2.638,0.29,-0.32,-0.03,-0.01,0.02,0.98,
2.64,0.29,-0.32,-0.03,-0.01,0.02,0.97,
2.642,0.29,-0.32,-0.03,-0.01,0.03,0.98,
2.642,0.30,-0.28,-0.05,-0.01,0.03,0.98,
2.644,0.30,-0.28,-0.05,-0.01,0.02,0.98,
2.647,0.30,-0.28,-0.05,-0.01,0.03,0.98,
2.647,0.28,-0.27,-0.05,-0.01,0.03,0.98,
2.649,0.28,-0.27,-0.05,-0.02,0.03,0.98,
2.652,0.28,-0.27,-0.05,-0.02,0.03,0.98,
2.653,0.26,-0.26,-0.04,-0.02,0.03,0.98,
2.654,0.26,-0.26,-0.04,-0.02,0.03,0.98,
2.657,0.26,-0.26,-0.04,-0.02,0.03,0.98,
2.657,0.23,-0.21,0.01,-0.02,0.03,0.98,
2.659,0.23,-0.21,0.01,-0.02,0.04,0.99,
2.662,0.23,-0.21,0.01,-0.02,0.04,0.99,
2.662,0.20,-0.18,0.03,-0.02,0.04,0.99,
2.664,0.20,-0.18,0.03,-0.03,0.04,0.99,
2.666,0.20,-0.18,0.03,-0.03,0.04,1.00,
2.667,0.16,-0.15,0.07,-0.03,0.04,1.00,
2.669,0.16,-0.15,0.07,-0.03,0.04,1.00,
2.672,0.16,-0.15,0.07,-0.04,0.05,1.00,
2.672,0.11,-0.11,0.13,-0.04,0.05,1.00,
2.674,0.11,-0.11,0.13,-0.04,0.05,1.01,
2.676,0.11,-0.11,0.13,-0.04,0.05,1.01,
2.676,0.06,-0.06,0.19,-0.04,0.05,1.01,
2.679,0.06,-0.06,0.19,-0.04,0.05,1.01,
2.681,0.06,-0.06,0.19,-0.04,0.05,1.02,
2.681,-0.00,-0.05,0.28,-0.04,0.05,1.02,
2.684,-0.00,-0.05,0.28,-0.05,0.05,1.02,
2.687,-0.00,-0.05,0.28,-0.05,0.05,1.03,
2.687,-0.04,-0.03,0.35,-0.05,0.05,1.03,
2.689,-0.04,-0.03,0.35,-0.05,0.05,1.03,
2.691,-0.04,-0.03,0.35,-0.05,0.05,1.03,
2.691,-0.07,-0.03,0.43,-0.05,0.05,1.03,
2.693,-0.07,-0.03,0.43,-0.05,0.04,1.03,
2.696,-0.07,-0.03,0.43,-0.05,0.04,1.03,
2.696,-0.09,-0.04,0.48,-0.05,0.04,1.03,
2.698,-0.09,-0.04,0.48,-0.05,0.04,1.03,
2.701,-0.09,-0.04,0.48,-0.05,0.04,1.03,
2.701,-0.09,-0.09,0.49,-0.05,0.04,1.03,
2.703,-0.09,-0.09,0.49,-0.05,0.04,1.03,
2.706,-0.09,-0.09,0.49,-0.04,0.04,1.03,
2.706,-0.08,-0.09,0.48,-0.04,0.04,1.03,
2.708,-0.08,-0.09,0.48,-0.04,0.04,1.03,
2.711,-0.08,-0.09,0.48,-0.04,0.04,1.02,
2.711,-0.05,-0.13,0.45,-0.04,0.04,1.02,
2.713,-0.05,-0.13,0.45,-0.03,0.04,1.02,
2.715,-0.05,-0.13,0.45,-0.03,0.04,1.02,
2.716,-0.01,-0.14,0.41,-0.03,0.04,1.02,
2.719,-0.01,-0.14,0.41,-0.03,0.03,0.97,
2.721,-0.01,-0.14,0.41,-0.04,0.04,0.86,
2.721,0.05,-0.15,0.36,-0.04,0.04,0.86,
2.723,0.05,-0.15,0.36,-0.05,0.05,0.76,
2.726,0.05,-0.15,0.36,-0.03,0.06,0.73,
2.726,-0.01,-0.17,-0.70,-0.03,0.06,0.73,
2.728,-0.01,-0.17,-0.70,-0.02,0.08,0.74,
2.731,-0.01,-0.17,-0.70,-0.01,0.08,0.74,
2.731,-0.02,0.03,-2.28,-0.01,0.08,0.74,
2.733,-0.02,0.03,-2.28,-0.02,0.09,0.73,
2.735,-0.02,0.03,-2.28,-0.02,0.08,0.71,
2.736,0.21,0.29,-2.35,-0.02,0.08,0.71,
2.738,0.21,0.29,-2.35,-0.03,0.08,0.70,
2.74,0.21,0.29,-2.35,-0.03,0.07,0.70,
2.74,0.16,0.34,-2.51,-0.03,0.07,0.70,
2.743,0.16,0.34,-2.51,-0.03,0.06,0.71,
2.745,0.16,0.34,-2.51,-0.04,0.06,0.73,
2.745,0.08,0.27,-2.68,-0.04,0.06,0.73,
2.747,0.08,0.27,-2.68,-0.04,0.05,0.76,
2.75,0.08,0.27,-2.68,-0.05,0.05,0.78,
2.75,0.04,0.20,-2.44,-0.05,0.05,0.78,
2.752,0.04,0.20,-2.44,-0.06,0.04,0.81,
2.755,0.04,0.20,-2.44,-0.06,0.04,0.85,
2.755,-0.07,0.13,-1.98,-0.06,0.04,0.85,
2.757,-0.07,0.13,-1.98,-0.06,0.03,0.88,
2.76,-0.07,0.13,-1.98,-0.06,0.02,0.91,
2.76,-0.17,0.06,-1.39,-0.06,0.02,0.91,
2.762,-0.17,0.06,-1.39,-0.06,0.02,0.95,
2.765,-0.17,0.06,-1.39,-0.06,0.01,0.97,
2.765,-0.18,-0.01,-0.72,-0.06,0.01,0.97,
2.767,-0.18,-0.01,-0.72,-0.06,0.01,1.00,
2.77,-0.18,-0.01,-0.72,-0.06,0.00,1.03,
2.77,-0.15,-0.07,-0.10,-0.06,0.00,1.03,
2.772,-0.15,-0.07,-0.10,-0.06,0.00,1.05,
2.774,-0.15,-0.07,-0.10,-0.06,-0.00,1.07,
2.775,-0.17,-0.14,0.42,-0.06,-0.00,1.07,
2.777,-0.17,-0.14,0.42,-0.06,-0.00,1.10,
2.779,-0.17,-0.14,0.42,-0.06,-0.01,1.12,
2.779,-0.18,-0.18,0.89,-0.06,-0.01,1.12,
2.782,-0.18,-0.18,0.89,-0.06,-0.01,1.15,
2.785,-0.18,-0.18,0.89,-0.06,-0.01,1.17,
2.786,-0.17,-0.18,1.35,-0.06,-0.01,1.17,
2.787,-0.17,-0.18,1.35,-0.06,-0.01,1.19,
2.793,-0.17,-0.18,1.35,-0.06,-0.01,1.20,
2.793,-0.17,-0.19,1.80,-0.06,-0.01,1.20,
2.793,-0.17,-0.19,1.80,-0.07,-0.01,1.22,
2.794,-0.21,-0.22,2.16,-0.07,-0.01,1.22,
2.795,-0.21,-0.22,2.16,-0.07,-0.01,1.22,
2.796,-0.21,-0.22,2.16,-0.07,-0.01,1.22,
2.799,-0.21,-0.22,2.16,-0.07,-0.01,1.21,
2.799,-0.29,-0.21,2.37,-0.07,-0.01,1.21,
2.804,-0.29,-0.21,2.37,-0.07,-0.01,1.20,
2.804,-0.29,-0.21,2.37,-0.07,-0.01,1.18,
2.804,-0.31,-0.18,2.33,-0.07,-0.01,1.18,
2.806,-0.31,-0.18,2.33,-0.07,-0.00,1.17,
2.809,-0.31,-0.18,2.33,-0.07,-0.00,1.15,
2.809,-0.34,-0.19,2.08,-0.07,-0.00,1.15,
2.812,-0.34,-0.19,2.08,-0.07,0.00,1.13,
2.813,-0.34,-0.19,2.08,-0.06,0.00,1.12,
2.814,-0.32,-0.17,1.78,-0.06,0.00,1.12,
2.816,-0.32,-0.17,1.78,-0.06,0.00,1.11,
