
time,ax,ay,az,gFx,gFy,gFz,
0.002,0.03,0.04,-0.05,-0.01,0.11,0.98,
0.002,0.03,0.04,-0.05,-0.02,0.11,0.98,
0.002,0.01,0.04,-0.05,-0.02,0.11,0.98,
0.003,0.01,0.04,-0.05,-0.02,0.11,0.98,
0.006,0.01,0.04,-0.05,-0.02,0.11,0.97,
0.006,0.02,0.04,-0.03,-0.02,0.11,0.97,
0.008,0.02,0.04,-0.03,-0.02,0.10,0.97,
0.01,0.02,0.04,-0.03,-0.02,0.11,0.97,
0.011,0.01,0.03,-0.03,-0.02,0.11,0.97,
0.015,0.01,0.03,-0.03,-0.02,0.10,0.97,
0.015,0.01,0.03,-0.03,-0.02,0.11,0.97,
0.016,-0.02,0.02,-0.04,-0.02,0.11,0.97,
0.018,-0.02,0.02,-0.04,-0.02,0.10,0.97,
0.02,-0.02,0.02,-0.04,-0.02,0.11,0.97,
0.021,-0.04,0.02,-0.06,-0.02,0.11,0.97,
0.023,-0.04,0.02,-0.06,-0.02,0.10,0.97,
0.025,-0.04,0.02,-0.06,-0.02,0.10,0.97,
0.025,-0.03,0.02,-0.07,-0.02,0.10,0.97,
0.028,-0.03,0.02,-0.07,-0.02,0.11,0.97,
0.032,-0.03,0.02,-0.07,-0.02,0.10,0.97,
0.032,-0.03,0.00,-0.08,-0.02,0.10,0.97,
0.033,-0.03,0.00,-0.08,-0.02,0.10,0.97,
0.035,-0.03,0.00,-0.08,-0.02,0.10,0.97,
0.035,-0.05,0.01,-0.08,-0.02,0.10,0.97,
0.038,-0.05,0.01,-0.08,-0.02,0.10,0.98,
0.04,-0.05,0.01,-0.08,-0.02,0.10,0.97,
0.04,-0.04,-0.01,-0.06,-0.02,0.10,0.97,
0.042,-0.04,-0.01,-0.06,-0.02,0.10,0.97,
0.045,-0.04,-0.01,-0.06,-0.02,0.10,0.98,
0.045,-0.02,-0.03,-0.04,-0.02,0.10,0.98,
0.047,-0.02,-0.03,-0.04,-0.02,0.10,0.98,
0.05,-0.02,-0.03,-0.04,-0.02,0.10,0.98,
0.05,-0.00,-0.02,-0.03,-0.02,0.10,0.98,
0.052,-0.00,-0.02,-0.03,-0.01,0.10,0.98,
0.055,-0.00,-0.02,-0.03,-0.01,0.10,0.98,
0.055,0.02,-0.01,-0.01,-0.01,0.10,0.98,
0.057,0.02,-0.01,-0.01,-0.01,0.10,0.98,
0.06,0.03,-0.02,-0.00,-0.01,0.10,0.98,
0.06,0.03,-0.02,-0.00,-0.01,0.10,0.98,
0.062,0.03,-0.02,-0.00,-0.01,0.10,0.98,
0.07,0.03,-0.02,-0.00,-0.01,0.10,0.98,
0.071,0.04,-0.01,0.02,-0.01,0.10,0.98,
0.071,0.04,-0.01,0.02,-0.01,0.10,0.98,
0.071,0.04,-0.01,0.02,-0.01,0.10,0.98,
0.071,0.06,0.00,0.01,-0.01,0.10,0.98,
0.072,0.06,0.00,0.01,-0.01,0.10,0.98,
0.074,0.06,0.00,0.01,-0.01,0.10,0.98,
0.075,0.05,-0.00,0.03,-0.01,0.10,0.98,
0.077,0.05,-0.00,0.03,-0.01,0.10,0.98,
0.079,0.05,-0.00,0.03,-0.01,0.10,0.98,
0.079,0.05,0.01,0.04,-0.01,0.10,0.98,
0.082,0.05,0.01,0.04,-0.01,0.10,0.98,
0.084,0.05,0.01,0.04,-0.02,0.10,0.98,
0.084,0.05,-0.01,0.03,-0.02,0.10,0.98,
0.087,0.05,-0.01,0.03,-0.02,0.10,0.98,
0.089,0.05,-0.01,0.03,-0.02,0.10,0.98,
0.089,0.02,0.00,0.03,-0.02,0.10,0.98,
0.092,0.02,0.00,0.03,-0.02,0.11,0.98,
0.094,0.02,0.00,0.03,-0.02,0.11,0.98,
0.094,-0.03,-0.01,0.04,-0.02,0.11,0.98,
0.097,-0.03,-0.01,0.04,-0.02,0.11,0.98,
0.099,-0.03,-0.01,0.04,-0.02,0.11,0.98,
0.099,-0.01,0.04,0.03,-0.02,0.11,0.98,
0.101,-0.01,0.04,0.03,-0.02,0.11,0.98,
0.103,-0.01,0.04,0.03,-0.02,0.11,0.98,
0.104,-0.03,0.04,0.01,-0.02,0.11,0.98,
0.106,-0.03,0.04,0.01,-0.02,0.11,0.98,
0.109,-0.03,0.04,0.01,-0.02,0.11,0.97,
0.109,-0.04,0.04,-0.01,-0.02,0.11,0.97,
0.111,-0.04,0.04,-0.01,-0.02,0.11,0.97,
0.114,-0.04,0.04,-0.01,-0.02,0.11,0.97,
0.114,-0.06,0.05,-0.03,-0.02,0.11,0.97,
0.116,-0.06,0.05,-0.03,-0.02,0.11,0.97,
0.118,-0.06,0.05,-0.03,-0.02,0.11,0.97,
0.119,-0.04,0.05,-0.05,-0.02,0.11,0.97,
0.121,-0.04,0.05,-0.05,-0.02,0.11,0.97,
0.123,-0.04,0.05,-0.05,-0.02,0.11,0.97,
0.123,-0.05,0.04,-0.09,-0.02,0.11,0.97,
0.126,-0.05,0.04,-0.09,-0.02,0.11,0.97,
0.128,-0.05,0.04,-0.09,-0.02,0.11,0.97,
0.128,-0.04,0.04,-0.08,-0.02,0.11,0.97,
0.131,-0.04,0.04,-0.08,-0.02,0.11,0.97,
0.133,-0.04,0.04,-0.08,-0.02,0.11,0.97,
0.133,-0.03,0.04,-0.07,-0.02,0.11,0.97,
0.135,-0.03,0.04,-0.07,-0.02,0.11,0.97,
0.138,-0.03,0.04,-0.07,-0.02,0.11,0.97,
0.138,-0.04,0.02,-0.06,-0.02,0.11,0.97,
0.14,-0.04,0.02,-0.06,-0.01,0.10,0.97,
0.143,-0.04,0.02,-0.06,-0.01,0.10,0.97,
0.143,-0.03,0.02,-0.05,-0.01,0.10,0.97,
0.145,-0.03,0.02,-0.05,-0.01,0.10,0.97,
0.153,-0.03,0.02,-0.05,-0.01,0.10,0.97,
0.153,0.03,-0.00,-0.05,-0.01,0.10,0.97,
0.154,0.03,-0.00,-0.05,-0.01,0.10,0.98,
0.154,0.03,-0.00,-0.05,-0.01,0.10,0.98,
0.154,0.05,-0.00,-0.04,-0.01,0.10,0.98,
0.155,0.05,-0.00,-0.04,-0.01,0.10,0.98,
0.157,0.05,-0.00,-0.04,-0.01,0.10,0.98,
0.158,0.07,-0.01,-0.02,-0.01,0.10,0.98,
0.16,0.07,-0.01,-0.02,-0.01,0.10,0.98,
0.163,0.07,-0.01,-0.02,-0.01,0.10,0.98,
0.163,0.09,-0.02,0.00,-0.01,0.10,0.98,
0.165,0.09,-0.02,0.00,-0.01,0.10,0.98,
0.167,0.09,-0.02,0.00,-0.01,0.10,0.98,
0.168,0.08,-0.04,0.03,-0.01,0.10,0.98,
0.17,0.08,-0.04,0.03,-0.01,0.10,0.98,
0.172,0.08,-0.04,0.03,-0.01,0.10,0.98,
0.172,0.09,-0.05,0.03,-0.01,0.10,0.98,
0.175,0.09,-0.05,0.03,-0.01,0.10,0.98,
0.177,0.09,-0.05,0.03,-0.00,0.10,0.98,
0.177,0.10,-0.06,0.04,-0.00,0.10,0.98,
0.18,0.10,-0.06,0.04,-0.00,0.10,0.98,
0.182,0.10,-0.06,0.04,-0.00,0.10,0.98,
0.183,0.10,-0.07,0.03,-0.00,0.10,0.98,
0.184,0.10,-0.07,0.03,-0.01,0.09,0.98,
0.188,0.10,-0.07,0.03,-0.01,0.10,0.98,
0.188,0.11,-0.05,0.03,-0.01,0.10,0.98,
0.189,0.11,-0.05,0.03,-0.01,0.10,0.98,
0.192,0.11,-0.05,0.03,-0.01,0.10,0.99,
0.192,0.07,-0.07,0.04,-0.01,0.10,0.99,
0.195,0.07,-0.07,0.04,-0.01,0.10,0.99,
0.197,0.07,-0.07,0.04,-0.01,0.10,0.99,
0.197,0.05,-0.07,0.06,-0.01,0.10,0.99,
0.199,0.05,-0.07,0.06,-0.01,0.10,0.99,
0.201,0.05,-0.07,0.06,-0.01,0.10,0.99,
0.202,0.03,-0.06,0.08,-0.01,0.10,0.99,
0.204,0.03,-0.06,0.08,-0.01,0.10,0.99,
0.206,0.03,-0.06,0.08,-0.01,0.10,0.99,
0.206,0.02,-0.05,0.09,-0.01,0.10,0.99,
0.209,0.02,-0.05,0.09,-0.02,0.10,0.99,
0.211,0.02,-0.05,0.09,-0.02,0.10,0.98,
0.212,0.01,-0.03,0.07,-0.02,0.10,0.98,
0.214,0.01,-0.03,0.07,-0.02,0.10,0.98,
0.216,0.01,-0.03,0.07,-0.02,0.10,0.98,
0.216,-0.02,-0.01,0.06,-0.02,0.10,0.98,
0.219,-0.02,-0.01,0.06,-0.02,0.10,0.98,
0.221,-0.02,-0.01,0.06,-0.02,0.10,0.98,
0.221,-0.05,0.00,0.01,-0.02,0.10,0.98,
0.224,-0.05,0.00,0.01,-0.02,0.10,0.98,
0.226,-0.05,0.00,0.01,-0.02,0.11,0.98,
0.226,-0.05,0.01,0.00,-0.02,0.11,0.98,
0.229,-0.05,0.01,0.00,-0.02,0.11,0.98,
0.231,-0.05,0.01,0.00,-0.02,0.11,0.97,
0.231,-0.05,0.03,-0.02,-0.02,0.11,0.97,
0.233,-0.05,0.03,-0.02,-0.02,0.11,0.97,
0.236,-0.05,0.03,-0.02,-0.02,0.11,0.97,
0.236,-0.05,0.06,-0.05,-0.02,0.11,0.97,
0.239,-0.05,0.06,-0.05,-0.02,0.11,0.97,
0.241,-0.05,0.06,-0.05,-0.02,0.11,0.97,
0.241,-0.06,0.07,-0.06,-0.02,0.11,0.97,
0.243,-0.06,0.07,-0.06,-0.02,0.11,0.97,
0.248,-0.06,0.07,-0.06,-0.02,0.11,0.97,
0.248,-0.04,0.08,-0.09,-0.02,0.11,0.97,
0.249,-0.04,0.08,-0.09,-0.02,0.11,0.97,
0.25,-0.04,0.08,-0.09,-0.02,0.11,0.97,
0.251,-0.06,0.08,-0.11,-0.02,0.11,0.97,
0.253,-0.06,0.08,-0.11,-0.02,0.11,0.97,
0.255,-0.06,0.08,-0.11,-0.02,0.11,0.97,
0.255,-0.05,0.09,-0.11,-0.02,0.11,0.97,
0.258,-0.05,0.09,-0.11,-0.02,0.11,0.97,
0.26,-0.05,0.09,-0.11,-0.02,0.11,0.97,
0.26,-0.07,0.09,-0.12,-0.02,0.11,0.97,
0.263,-0.07,0.09,-0.12,-0.02,0.11,0.97,
0.265,-0.07,0.09,-0.12,-0.02,0.11,0.97,
0.266,-0.07,0.08,-0.10,-0.02,0.11,0.97,
0.268,-0.07,0.08,-0.10,-0.02,0.11,0.97,
0.27,-0.07,0.08,-0.10,-0.02,0.11,0.97,
0.27,-0.05,0.07,-0.06,-0.02,0.11,0.97,
0.272,-0.05,0.07,-0.06,-0.02,0.11,0.97,
0.275,-0.05,0.07,-0.06,-0.02,0.11,0.98,
0.275,-0.06,0.05,-0.05,-0.02,0.11,0.98,
0.277,-0.06,0.05,-0.05,-0.02,0.11,0.98,
0.28,-0.06,0.05,-0.05,-0.02,0.11,0.98,
0.28,-0.06,0.05,-0.03,-0.02,0.11,0.98,
0.282,-0.06,0.05,-0.03,-0.02,0.11,0.98,
0.285,-0.06,0.05,-0.03,-0.02,0.10,0.98,
0.285,-0.04,0.05,-0.01,-0.02,0.10,0.98,
0.287,-0.04,0.05,-0.01,-0.02,0.11,0.98,
0.29,-0.04,0.05,-0.01,-0.03,0.10,0.98,
0.29,-0.07,0.04,0.00,-0.03,0.10,0.98,
0.292,-0.07,0.04,0.00,-0.03,0.11,0.98,
0.295,-0.07,0.04,0.00,-0.03,0.10,0.98,
0.295,-0.08,0.02,0.03,-0.03,0.10,0.98,
0.297,-0.08,0.02,0.03,-0.03,0.11,0.98,
0.299,-0.08,0.02,0.03,-0.03,0.11,0.99,
0.3,-0.10,0.03,0.05,-0.03,0.11,0.99,
0.302,-0.10,0.03,0.05,-0.03,0.11,0.98,
0.304,-0.10,0.03,0.05,-0.03,0.11,0.99,
0.305,-0.09,0.04,0.07,-0.03,0.11,0.99,
0.307,-0.09,0.04,0.07,-0.03,0.11,0.99,
0.309,-0.09,0.04,0.07,-0.03,0.11,0.99,
0.309,-0.11,0.05,0.07,-0.03,0.11,0.99,
0.312,-0.11,0.05,0.07,-0.03,0.11,0.98,
0.315,-0.13,0.06,0.07,-0.03,0.11,0.98,
0.315,-0.13,0.06,0.07,-0.03,0.11,0.99,
0.317,-0.13,0.06,0.07,-0.03,0.11,0.98,
0.319,-0.13,0.06,0.07,-0.03,0.11,0.98,
0.319,-0.14,0.05,0.06,-0.03,0.11,0.98,
0.321,-0.14,0.05,0.06,-0.03,0.11,0.98,
0.324,-0.14,0.05,0.06,-0.03,0.11,0.98,
0.324,-0.14,0.07,0.05,-0.03,0.11,0.98,
0.326,-0.14,0.07,0.05,-0.03,0.11,0.98,
0.329,-0.14,0.07,0.05,-0.03,0.11,0.98,
0.329,-0.13,0.08,0.05,-0.03,0.11,0.98,
0.331,-0.13,0.08,0.05,-0.03,0.11,0.98,
0.334,-0.13,0.08,0.05,-0.03,0.11,0.98,
0.334,-0.12,0.10,0.06,-0.03,0.11,0.98,
0.336,-0.12,0.10,0.06,-0.03,0.11,0.98,
0.339,-0.12,0.10,0.06,-0.03,0.11,0.98,
0.339,-0.10,0.10,0.05,-0.03,0.11,0.98,
0.341,-0.10,0.10,0.05,-0.03,0.11,0.98,
0.343,-0.10,0.10,0.05,-0.03,0.11,0.98,
0.344,-0.10,0.09,0.02,-0.03,0.11,0.98,
0.346,-0.10,0.09,0.02,-0.03,0.11,0.98,
0.349,-0.10,0.09,0.02,-0.03,0.11,0.97,
0.349,-0.10,0.08,-0.01,-0.03,0.11,0.97,
0.351,-0.10,0.08,-0.01,-0.03,0.11,0.97,
0.353,-0.10,0.08,-0.01,-0.03,0.11,0.97,
0.354,-0.08,0.06,-0.04,-0.03,0.11,0.97,
0.356,-0.08,0.06,-0.04,-0.02,0.11,0.97,
0.358,-0.08,0.06,-0.04,-0.02,0.11,0.97,
0.358,-0.08,0.06,-0.05,-0.02,0.11,0.97,
0.361,-0.08,0.06,-0.05,-0.02,0.11,0.97,
0.366,-0.08,0.06,-0.05,-0.02,0.11,0.97,
0.366,-0.06,0.05,-0.05,-0.02,0.11,0.97,
0.366,-0.06,0.05,-0.05,-0.02,0.11,0.98,
0.368,-0.06,0.05,-0.05,-0.02,0.10,0.97,
0.368,-0.03,0.05,-0.05,-0.02,0.10,0.97,
0.37,-0.03,0.05,-0.05,-0.02,0.10,0.98,
0.373,-0.03,0.05,-0.05,-0.02,0.10,0.98,
0.373,-0.02,0.03,-0.03,-0.02,0.10,0.98,
0.375,-0.02,0.03,-0.03,-0.02,0.10,0.98,
0.378,-0.02,0.03,-0.03,-0.01,0.11,0.98,
0.378,0.00,0.02,-0.01,-0.01,0.11,0.98,
0.38,0.00,0.02,-0.01,-0.02,0.11,0.98,
0.383,0.00,0.02,-0.01,-0.01,0.10,0.98,
0.383,0.02,0.03,0.02,-0.01,0.10,0.98,
0.385,0.02,0.03,0.02,-0.02,0.10,0.98,
0.387,0.02,0.03,0.02,-0.02,0.10,0.98,
0.388,0.03,0.03,0.03,-0.02,0.10,0.98,
0.39,0.03,0.03,0.03,-0.02,0.10,0.98,
0.392,0.03,0.03,0.03,-0.02,0.10,0.98,
0.393,0.02,0.01,0.04,-0.02,0.10,0.98,
0.395,0.02,0.01,0.04,-0.02,0.10,0.98,
0.398,0.02,0.01,0.04,-0.02,0.10,0.98,
0.398,0.01,0.01,0.02,-0.02,0.10,0.98,
0.4,0.01,0.01,0.02,-0.02,0.10,0.98,
0.402,0.01,0.01,0.02,-0.02,0.10,0.98,
0.402,0.01,0.02,0.02,-0.02,0.10,0.98,
0.405,0.01,0.02,0.02,-0.02,0.10,0.98,
0.407,0.01,0.02,0.02,-0.02,0.11,0.98,
0.407,0.02,0.01,0.00,-0.02,0.11,0.98,
0.409,0.02,0.01,0.00,-0.02,0.10,0.98,
0.412,0.02,0.01,0.00,-0.02,0.10,0.97,
0.412,-0.01,0.03,-0.01,-0.02,0.10,0.97,
0.415,-0.01,0.03,-0.01,-0.02,0.10,0.97,
0.417,-0.01,0.03,-0.01,-0.02,0.11,0.97,
0.418,-0.00,0.02,-0.03,-0.02,0.11,0.97,
0.419,-0.00,0.02,-0.03,-0.02,0.11,0.97,
0.422,-0.00,0.02,-0.03,-0.02,0.11,0.97,
0.422,-0.03,0.03,-0.05,-0.02,0.11,0.97,
0.424,-0.03,0.03,-0.05,-0.02,0.11,0.97,
0.427,-0.03,0.03,-0.05,-0.02,0.11,0.97,
0.427,-0.04,0.05,-0.05,-0.02,0.11,0.97,
0.429,-0.04,0.05,-0.05,-0.02,0.11,0.97,
0.432,-0.04,0.05,-0.05,-0.02,0.10,0.97,
0.433,-0.05,0.04,-0.08,-0.02,0.10,0.97,
0.434,-0.05,0.04,-0.08,-0.02,0.11,0.97,
0.437,-0.05,0.04,-0.08,-0.02,0.11,0.97,
0.437,-0.05,0.03,-0.09,-0.02,0.11,0.97,
0.439,-0.05,0.03,-0.09,-0.02,0.11,0.96,
0.441,-0.05,0.03,-0.09,-0.02,0.10,0.96,
0.442,-0.04,0.03,-0.12,-0.02,0.10,0.96,
0.444,-0.04,0.03,-0.12,-0.02,0.10,0.96,
0.45,-0.04,0.03,-0.12,-0.02,0.10,0.96,
0.451,-0.05,0.02,-0.14,-0.02,0.10,0.96,
0.451,-0.05,0.02,-0.14,-0.02,0.10,0.96,
0.451,-0.05,0.02,-0.14,-0.02,0.10,0.96,
0.452,-0.03,0.01,-0.15,-0.02,0.10,0.96,
0.454,-0.03,0.01,-0.15,-0.02,0.10,0.97,
0.456,-0.03,0.01,-0.15,-0.02,0.10,0.97,
0.456,-0.01,-0.01,-0.14,-0.02,0.10,0.97,
0.458,-0.01,-0.01,-0.14,-0.01,0.10,0.97,
0.461,-0.01,-0.01,-0.14,-0.01,0.09,0.97,
0.461,0.01,-0.04,-0.12,-0.01,0.09,0.97,
0.463,0.01,-0.04,-0.12,-0.01,0.09,0.97,
0.466,0.01,-0.04,-0.12,-0.01,0.09,0.97,
0.466,0.05,-0.07,-0.11,-0.01,0.09,0.97,
0.469,0.05,-0.07,-0.11,-0.01,0.09,0.97,
0.471,0.05,-0.07,-0.11,-0.01,0.09,0.97,
0.471,0.07,-0.07,-0.10,-0.01,0.09,0.97,
0.473,0.07,-0.07,-0.10,-0.01,0.09,0.97,
0.476,0.07,-0.07,-0.10,-0.00,0.09,0.98,
0.476,0.11,-0.10,-0.05,-0.00,0.09,0.98,
0.478,0.11,-0.10,-0.05,-0.00,0.09,0.98,
0.481,0.11,-0.10,-0.05,-0.00,0.09,0.98,
0.481,0.14,-0.12,-0.02,-0.00,0.09,0.98,
0.483,0.14,-0.12,-0.02,-0.00,0.09,0.98,
0.486,0.14,-0.12,-0.02,-0.00,0.08,0.98,
0.486,0.16,-0.15,0.01,-0.00,0.08,0.98,
0.488,0.16,-0.15,0.01,0.00,0.08,0.98,
0.49,0.16,-0.15,0.01,0.00,0.08,0.98,
0.49,0.16,-0.15,0.02,0.00,0.08,0.98,
0.493,0.16,-0.15,0.02,0.00,0.08,0.98,
0.495,0.16,-0.15,0.02,0.00,0.08,0.98,
0.496,0.19,-0.19,0.01,0.00,0.08,0.98,
0.498,0.19,-0.19,0.01,0.00,0.08,0.98,
0.5,0.19,-0.19,0.01,-0.00,0.08,0.98,
0.5,0.19,-0.21,0.00,-0.00,0.08,0.98,
0.503,0.19,-0.21,0.00,-0.00,0.08,0.98,
0.505,0.19,-0.21,0.00,-0.00,0.08,0.98,
0.505,0.18,-0.21,0.00,-0.00,0.08,0.98,
0.507,0.18,-0.21,0.00,-0.00,0.08,0.97,
0.51,0.18,-0.21,0.00,-0.01,0.08,0.97,
0.51,0.17,-0.22,-0.02,-0.01,0.08,0.97,
0.513,0.17,-0.22,-0.02,-0.01,0.08,0.97,
0.515,0.17,-0.22,-0.02,-0.01,0.08,0.97,
0.515,0.13,-0.21,-0.04,-0.01,0.08,0.97,
0.517,0.13,-0.21,-0.04,-0.01,0.08,0.97,
0.52,0.13,-0.21,-0.04,-0.01,0.08,0.97,
0.52,0.09,-0.23,-0.05,-0.01,0.08,0.97,
0.522,0.09,-0.23,-0.05,-0.02,0.08,0.97,
0.525,0.06,-0.22,-0.04,-0.02,0.08,0.97,
0.525,0.06,-0.22,-0.04,-0.02,0.08,0.98,
0.527,0.06,-0.22,-0.04,-0.02,0.08,0.98,
0.53,0.06,-0.22,-0.04,-0.02,0.08,0.98,
0.53,0.02,-0.22,-0.03,-0.02,0.08,0.98,
0.532,0.02,-0.22,-0.03,-0.02,0.08,0.98,
0.534,0.02,-0.22,-0.03,-0.02,0.08,0.98,
0.535,-0.00,-0.23,-0.01,-0.02,0.08,0.98,
0.537,-0.00,-0.23,-0.01,-0.02,0.08,0.98,
0.539,-0.00,-0.23,-0.01,-0.02,0.08,0.98,
0.539,-0.00,-0.22,0.00,-0.02,0.08,0.98,
0.542,-0.00,-0.22,0.00,-0.02,0.08,0.98,
0.544,-0.00,-0.22,0.00,-0.02,0.08,0.98,
0.549,-0.02,-0.23,0.03,-0.02,0.08,0.98,
0.55,-0.02,-0.23,0.03,-0.02,0.08,0.98,
0.55,-0.02,-0.23,0.03,-0.02,0.08,0.98,
0.55,-0.03,-0.21,0.02,-0.02,0.08,0.98,
0.552,-0.03,-0.21,0.02,-0.02,0.08,0.98,
0.554,-0.03,-0.21,0.02,-0.02,0.08,0.98,
0.554,-0.02,-0.20,0.01,-0.02,0.08,0.98,
0.556,-0.02,-0.20,0.01,-0.02,0.08,0.98,
0.559,-0.02,-0.20,0.01,-0.02,0.08,0.98,
0.559,-0.00,-0.19,0.01,-0.02,0.08,0.98,
0.561,-0.00,-0.19,0.01,-0.02,0.08,0.98,
0.564,-0.00,-0.19,0.01,-0.02,0.08,0.98,
0.564,0.00,-0.19,0.01,-0.02,0.08,0.98,
0.566,0.00,-0.19,0.01,-0.01,0.08,0.98,
0.569,0.00,-0.19,0.01,-0.01,0.09,0.98,
0.569,0.03,-0.16,0.02,-0.01,0.09,0.98,
0.571,0.03,-0.16,0.02,-0.01,0.08,0.97,
0.573,0.03,-0.16,0.02,-0.01,0.08,0.97,
0.573,0.08,-0.15,-0.01,-0.01,0.08,0.97,
0.576,0.08,-0.15,-0.01,-0.01,0.08,0.97,
0.578,0.08,-0.15,-0.01,-0.01,0.08,0.97,
0.579,0.11,-0.16,-0.04,-0.01,0.08,0.97,
0.581,0.11,-0.16,-0.04,-0.01,0.08,0.97,
0.583,0.11,-0.16,-0.04,-0.00,0.08,0.97,
0.584,0.14,-0.18,-0.04,-0.00,0.08,0.97,
0.586,0.14,-0.18,-0.04,0.00,0.08,0.97,
0.588,0.14,-0.18,-0.04,0.00,0.08,0.97,
0.589,0.16,-0.18,-0.05,0.00,0.08,0.97,
0.591,0.16,-0.18,-0.05,0.00,0.08,0.97,
0.593,0.16,-0.18,-0.05,0.01,0.08,0.98,
0.593,0.21,-0.18,-0.03,0.01,0.08,0.98,
0.595,0.21,-0.18,-0.03,0.00,0.08,0.98,
0.598,0.21,-0.18,-0.03,0.00,0.08,0.98,
0.598,0.25,-0.20,-0.02,0.00,0.08,0.98,
0.601,0.25,-0.20,-0.02,0.00,0.08,0.98,
0.603,0.25,-0.20,-0.02,0.00,0.08,0.98,
0.603,0.24,-0.21,-0.01,0.00,0.08,0.98,
0.606,0.24,-0.21,-0.01,0.00,0.08,0.98,
0.608,0.24,-0.21,-0.01,-0.00,0.07,0.98,
0.609,0.22,-0.23,0.01,-0.00,0.07,0.98,
0.61,0.22,-0.23,0.01,-0.00,0.07,0.98,
0.613,0.22,-0.23,0.01,-0.00,0.07,0.98,
0.613,0.20,-0.24,0.05,-0.00,0.07,0.98,
0.615,0.20,-0.24,0.05,-0.01,0.07,0.98,
0.618,0.20,-0.24,0.05,-0.01,0.07,0.98,
0.618,0.17,-0.27,0.06,-0.01,0.07,0.98,
0.62,0.17,-0.27,0.06,-0.01,0.07,0.99,
0.623,0.17,-0.27,0.06,-0.01,0.07,0.99,
0.623,0.13,-0.28,0.07,-0.01,0.07,0.99,
0.625,0.13,-0.28,0.07,-0.01,0.07,0.99,
0.628,0.13,-0.28,0.07,-0.01,0.07,0.99,
0.629,0.13,-0.27,0.09,-0.01,0.07,0.99,
0.63,0.13,-0.27,0.09,-0.01,0.07,0.99,
0.632,0.13,-0.27,0.09,-0.01,0.07,0.99,
0.633,0.11,-0.26,0.10,-0.01,0.07,0.99,
0.635,0.11,-0.26,0.10,-0.01,0.07,0.99,
0.637,0.11,-0.26,0.10,-0.01,0.07,0.99,
0.638,0.10,-0.25,0.10,-0.01,0.07,0.99,
0.64,0.10,-0.25,0.10,-0.01,0.07,0.99,
0.642,0.10,-0.25,0.10,-0.01,0.07,0.99,
0.643,0.08,-0.23,0.12,-0.01,0.07,0.99,
0.645,0.08,-0.23,0.12,-0.01,0.07,0.99,
0.647,0.08,-0.25,0.13,-0.01,0.07,0.99,
0.648,0.08,-0.25,0.13,-0.02,0.07,1.00,
0.65,0.08,-0.25,0.13,-0.02,0.07,0.99,
0.652,0.08,-0.25,0.13,-0.02,0.07,0.99,
0.653,0.06,-0.26,0.16,-0.02,0.07,0.99,
0.654,0.06,-0.26,0.16,-0.02,0.07,0.99,
0.657,0.06,-0.26,0.16,-0.02,0.07,0.99,
0.657,0.04,-0.25,0.16,-0.02,0.07,0.99,
0.659,0.04,-0.25,0.16,-0.02,0.07,0.99,
0.668,0.04,-0.25,0.16,-0.02,0.07,0.99,
0.669,0.04,-0.25,0.15,-0.02,0.07,0.99,
0.669,0.04,-0.25,0.15,-0.01,0.07,0.99,
0.669,0.04,-0.25,0.15,-0.02,0.07,0.99,
0.67,0.03,-0.26,0.14,-0.02,0.07,0.99,
0.67,0.03,-0.26,0.14,-0.02,0.07,0.99,
0.672,0.03,-0.26,0.14,-0.02,0.07,0.99,
0.672,0.06,-0.26,0.12,-0.02,0.07,0.99,
0.674,0.06,-0.26,0.12,-0.01,0.07,0.99,
0.677,0.06,-0.26,0.12,-0.01,0.07,0.99,
0.677,0.06,-0.25,0.14,-0.01,0.07,0.99,
0.687,0.06,-0.25,0.14,-0.01,0.06,1.00,
0.687,0.06,-0.25,0.14,-0.01,0.06,1.00,
0.687,0.08,-0.28,0.15,-0.01,0.06,1.00,
0.688,0.08,-0.28,0.15,-0.01,0.06,1.00,
0.688,0.08,-0.28,0.15,-0.01,0.06,1.00,
0.688,0.09,-0.31,0.16,-0.01,0.06,1.00,
0.689,0.09,-0.31,0.16,-0.01,0.06,1.00,
0.691,0.09,-0.31,0.16,-0.00,0.06,1.00,
0.691,0.11,-0.34,0.17,-0.00,0.06,1.00,
0.693,0.11,-0.34,0.17,-0.00,0.05,1.00,
0.696,0.11,-0.34,0.17,-0.00,0.05,1.00,
0.696,0.16,-0.38,0.21,-0.00,0.05,1.00,
0.698,0.16,-0.38,0.21,0.00,0.05,1.01,
0.701,0.16,-0.38,0.21,0.00,0.05,1.01,
0.701,0.20,-0.40,0.25,0.00,0.05,1.01,
0.703,0.20,-0.40,0.25,0.00,0.05,1.01,
0.706,0.20,-0.40,0.25,0.01,0.05,1.01,
0.706,0.22,-0.42,0.28,0.01,0.05,1.01,
0.709,0.22,-0.42,0.28,0.01,0.05,1.01,
0.712,0.22,-0.42,0.28,0.01,0.04,1.02,
0.713,0.26,-0.46,0.30,0.01,0.04,1.02,
0.713,0.26,-0.46,0.30,0.00,0.04,1.02,
0.716,0.26,-0.46,0.30,0.01,0.04,1.02,
0.716,0.27,-0.47,0.34,0.01,0.04,1.02,
0.718,0.27,-0.47,0.34,0.01,0.04,1.02,
0.72,0.27,-0.47,0.34,0.01,0.03,1.02,
0.721,0.26,-0.51,0.35,0.01,0.03,1.02,
0.723,0.26,-0.51,0.35,0.01,0.03,1.03,
0.726,0.26,-0.51,0.35,0.01,0.03,1.03,
0.726,0.28,-0.56,0.41,0.01,0.03,1.03,
0.728,0.28,-0.56,0.41,0.01,0.03,1.03,
0.731,0.28,-0.56,0.41,0.01,0.03,1.03,
0.731,0.29,-0.57,0.46,0.01,0.03,1.03,
0.733,0.29,-0.57,0.46,0.01,0.03,1.03,
0.735,0.29,-0.57,0.46,0.01,0.03,1.03,
0.735,0.31,-0.59,0.47,0.01,0.03,1.03,
0.738,0.31,-0.59,0.47,0.02,0.03,1.03,
0.74,0.31,-0.59,0.47,0.02,0.03,1.03,
0.74,0.34,-0.60,0.49,0.02,0.03,1.03,
0.743,0.34,-0.60,0.49,0.02,0.03,1.03,
0.746,0.35,-0.60,0.46,0.02,0.03,1.03,
0.747,0.35,-0.60,0.46,0.02,0.03,1.03,
0.748,0.35,-0.60,0.46,0.02,0.03,1.03,
0.75,0.35,-0.60,0.46,0.01,0.03,1.02,
0.75,0.35,-0.58,0.44,0.01,0.03,1.02,
0.752,0.35,-0.58,0.44,0.01,0.03,1.02,
0.755,0.35,-0.58,0.44,0.01,0.03,1.02,
0.755,0.33,-0.60,0.40,0.01,0.03,1.02,
0.757,0.33,-0.60,0.40,0.01,0.03,1.02,
0.76,0.33,-0.60,0.40,0.01,0.03,1.01,
0.76,0.30,-0.58,0.35,0.01,0.03,1.01,
0.767,0.30,-0.58,0.35,0.01,0.03,1.01,
0.768,0.30,-0.58,0.35,0.01,0.03,1.01,
0.768,0.30,-0.57,0.32,0.01,0.03,1.01,
0.769,0.30,-0.57,0.32,0.01,0.03,1.01,
0.77,0.30,-0.57,0.32,0.01,0.03,1.01,
0.77,0.29,-0.55,0.27,0.01,0.03,1.01,
0.772,0.29,-0.55,0.27,0.01,0.03,1.00,
0.774,0.29,-0.55,0.27,0.01,0.03,1.00,
0.774,0.26,-0.53,0.23,0.01,0.03,1.00,
0.777,0.26,-0.53,0.23,0.01,0.03,1.00,
0.779,0.26,-0.53,0.23,0.01,0.03,1.00,
0.78,0.25,-0.52,0.20,0.01,0.03,1.00,
0.782,0.25,-0.52,0.20,0.01,0.03,1.00,
0.784,0.25,-0.52,0.20,0.01,0.03,1.00,
0.784,0.25,-0.52,0.19,0.01,0.03,1.00,
0.787,0.25,-0.52,0.19,0.01,0.03,1.00,
0.789,0.25,-0.52,0.19,0.01,0.03,1.00,
0.789,0.22,-0.51,0.17,0.01,0.03,1.00,
0.791,0.22,-0.51,0.17,0.01,0.03,1.00,
0.794,0.22,-0.51,0.17,0.01,0.03,1.00,
0.795,0.23,-0.52,0.17,0.01,0.03,1.00,
0.797,0.23,-0.52,0.17,0.01,0.03,1.00,
0.799,0.23,-0.52,0.17,0.01,0.03,1.00,
0.799,0.25,-0.52,0.15,0.01,0.03,1.00,
0.801,0.25,-0.52,0.15,0.01,0.03,1.00,
0.804,0.25,-0.52,0.15,0.02,0.03,1.00,
0.804,0.26,-0.55,0.14,0.02,0.03,1.00,
0.806,0.26,-0.55,0.14,0.02,0.03,1.00,
0.809,0.26,-0.55,0.14,0.02,0.02,1.00,
0.809,0.30,-0.55,0.14,0.02,0.02,1.00,
0.811,0.30,-0.55,0.14,0.02,0.03,1.00,
0.814,0.30,-0.55,0.14,0.03,0.02,1.00,
0.814,0.34,-0.57,0.13,0.03,0.02,1.00,
0.816,0.34,-0.57,0.13,0.03,0.03,1.00,
0.818,0.34,-0.57,0.13,0.03,0.02,1.00,
0.819,0.39,-0.57,0.14,0.03,0.02,1.00,
0.821,0.39,-0.57,0.14,0.03,0.03,1.00,
0.823,0.39,-0.57,0.14,0.03,0.03,1.00,
0.824,0.42,-0.58,0.14,0.03,0.03,1.00,
0.826,0.42,-0.58,0.14,0.03,0.02,1.00,
0.829,0.42,-0.58,0.14,0.03,0.02,1.00,
0.829,0.47,-0.57,0.15,0.03,0.02,1.00,
0.831,0.47,-0.57,0.15,0.04,0.03,1.00,
0.833,0.47,-0.57,0.15,0.04,0.02,1.00,
0.834,0.50,-0.58,0.15,0.04,0.02,1.00,
0.836,0.50,-0.58,0.15,0.04,0.02,1.00,
0.838,0.50,-0.58,0.15,0.03,0.02,1.00,
0.838,0.52,-0.56,0.15,0.03,0.02,1.00,
0.841,0.52,-0.56,0.15,0.03,0.03,1.00,
0.843,0.52,-0.56,0.15,0.04,0.03,0.99,
0.843,0.51,-0.58,0.12,0.04,0.03,0.99,
0.851,0.51,-0.58,0.12,0.04,0.03,1.00,
0.852,0.51,-0.58,0.12,0.03,0.03,0.99,
0.852,0.50,-0.55,0.09,0.03,0.03,0.99,
0.853,0.50,-0.55,0.09,0.03,0.03,0.99,
0.853,0.50,-0.55,0.09,0.03,0.03,0.99,
0.853,0.51,-0.53,0.08,0.03,0.03,0.99,
0.855,0.51,-0.53,0.08,0.03,0.03,0.99,
0.858,0.51,-0.53,0.08,0.03,0.03,0.99,
0.858,0.47,-0.54,0.04,0.03,0.03,0.99,
0.862,0.47,-0.54,0.04,0.03,0.03,0.99,
0.863,0.47,-0.54,0.04,0.03,0.03,0.98,
0.863,0.44,-0.55,0.01,0.03,0.03,0.98,
0.865,0.44,-0.55,0.01,0.03,0.03,0.98,
0.867,0.44,-0.55,0.01,0.03,0.03,0.98,
0.868,0.43,-0.54,-0.00,0.03,0.03,0.98,
0.87,0.43,-0.54,-0.00,0.03,0.03,0.98,
0.872,0.43,-0.54,-0.00,0.03,0.03,0.98,
0.872,0.42,-0.54,-0.03,0.03,0.03,0.98,
0.875,0.42,-0.54,-0.03,0.02,0.03,0.98,
0.877,0.42,-0.54,-0.03,0.02,0.03,0.98,
0.878,0.39,-0.53,-0.06,0.02,0.03,0.98,
0.88,0.39,-0.53,-0.06,0.03,0.03,0.98,
0.882,0.39,-0.53,-0.06,0.03,0.03,0.98,
0.882,0.37,-0.54,-0.08,0.03,0.03,0.98,
0.885,0.37,-0.54,-0.08,0.03,0.03,0.98,
0.887,0.37,-0.54,-0.08,0.03,0.03,0.98,
0.887,0.40,-0.54,-0.09,0.03,0.03,0.98,
0.889,0.40,-0.54,-0.09,0.03,0.03,0.98,
0.892,0.40,-0.54,-0.09,0.03,0.03,0.98,
0.892,0.42,-0.53,-0.09,0.03,0.03,0.98,
0.895,0.42,-0.53,-0.09,0.03,0.03,0.98,
0.897,0.42,-0.53,-0.09,0.03,0.03,0.98,
0.898,0.42,-0.52,-0.08,0.03,0.03,0.98,
0.899,0.42,-0.52,-0.08,0.03,0.03,0.98,
0.902,0.42,-0.52,-0.08,0.03,0.03,0.98,
0.902,0.43,-0.52,-0.08,0.03,0.03,0.98,
0.904,0.43,-0.52,-0.08,0.03,0.03,0.98,
0.906,0.43,-0.52,-0.08,0.04,0.04,0.98,
0.907,0.43,-0.49,-0.08,0.04,0.04,0.98,
0.909,0.43,-0.49,-0.08,0.03,0.04,0.98,
0.911,0.43,-0.49,-0.08,0.03,0.04,0.98,
0.912,0.43,-0.44,-0.04,0.03,0.04,0.98,
0.914,0.43,-0.44,-0.04,0.03,0.04,0.98,
0.916,0.43,-0.44,-0.04,0.03,0.04,0.98,
0.917,0.43,-0.40,-0.03,0.03,0.04,0.98,
0.919,0.43,-0.40,-0.03,0.03,0.05,0.98,
0.921,0.43,-0.40,-0.03,0.03,0.05,0.98,
0.922,0.41,-0.36,-0.03,0.03,0.05,0.98,
0.924,0.41,-0.36,-0.03,0.02,0.05,0.98,
0.928,0.41,-0.36,-0.03,0.02,0.05,0.98,
0.929,0.35,-0.31,-0.02,0.02,0.05,0.98,
0.929,0.35,-0.31,-0.02,0.02,0.05,0.98,
0.932,0.35,-0.31,-0.02,0.01,0.06,0.98,
0.932,0.32,-0.27,-0.03,0.01,0.06,0.98,
0.934,0.32,-0.27,-0.03,0.01,0.06,0.98,
0.937,0.32,-0.27,-0.03,0.01,0.06,0.98,
0.937,0.26,-0.23,-0.05,0.01,0.06,0.98,
0.938,0.26,-0.23,-0.05,0.00,0.06,0.97,
0.941,0.26,-0.23,-0.05,-0.00,0.07,0.97,
0.941,0.18,-0.19,-0.09,-0.00,0.07,0.97,
0.944,0.18,-0.19,-0.09,-0.01,0.07,0.97,
0.946,0.18,-0.19,-0.09,-0.01,0.07,0.97,
0.947,0.09,-0.15,-0.10,-0.01,0.07,0.97,
0.949,0.09,-0.15,-0.10,-0.01,0.07,0.97,
0.95,0.09,-0.15,-0.10,-0.02,0.07,0.97,
0.951,0.02,-0.11,-0.12,-0.02,0.07,0.97,
0.953,0.02,-0.11,-0.12,-0.02,0.08,0.97,
0.956,0.02,-0.11,-0.12,-0.02,0.08,0.97,
0.956,-0.04,-0.08,-0.12,-0.02,0.08,0.97,
0.958,-0.04,-0.08,-0.12,-0.03,0.08,0.97,
0.961,-0.04,-0.08,-0.12,-0.03,0.08,0.97,
0.961,-0.10,-0.05,-0.14,-0.03,0.08,0.97,
0.963,-0.10,-0.05,-0.14,-0.03,0.08,0.97,
0.965,-0.10,-0.05,-0.14,-0.03,0.08,0.97,
0.966,-0.16,-0.03,-0.15,-0.03,0.08,0.97,
0.968,-0.16,-0.03,-0.15,-0.03,0.09,0.97,
0.97,-0.16,-0.03,-0.15,-0.03,0.09,0.96,
0.97,-0.20,0.00,-0.17,-0.03,0.09,0.96,
0.973,-0.20,0.00,-0.17,-0.03,0.09,0.96,
0.975,-0.20,0.00,-0.17,-0.03,0.09,0.96,
0.975,-0.21,0.05,-0.18,-0.03,0.09,0.96,
0.98,-0.21,0.05,-0.18,-0.04,0.09,0.96,
0.981,-0.21,0.05,-0.18,-0.04,0.09,0.96,
0.981,-0.21,0.03,-0.20,-0.04,0.09,0.96,
0.983,-0.21,0.03,-0.20,-0.04,0.09,0.96,
0.985,-0.21,0.03,-0.20,-0.04,0.09,0.96,
0.985,-0.23,0.06,-0.22,-0.04,0.09,0.96,
0.987,-0.23,0.06,-0.22,-0.04,0.09,0.96,
0.99,-0.23,0.06,-0.22,-0.04,0.09,0.96,
0.99,-0.22,0.07,-0.24,-0.04,0.09,0.96,
0.992,-0.22,0.07,-0.24,-0.04,0.09,0.95,
0.995,-0.22,0.07,-0.24,-0.04,0.09,0.95,
0.995,-0.27,0.04,-0.24,-0.04,0.09,0.95,
0.997,-0.27,0.04,-0.24,-0.04,0.10,0.95,
1.0,-0.27,0.04,-0.24,-0.03,0.10,0.95,
1.0,-0.26,0.06,-0.27,-0.03,0.10,0.95,
1.002,-0.26,0.06,-0.27,-0.03,0.10,0.95,
1.005,-0.26,0.06,-0.27,-0.03,0.11,0.94,
1.005,-0.23,0.11,-0.29,-0.03,0.11,0.94,
1.007,-0.23,0.11,-0.29,-0.03,0.10,0.94,
1.011,-0.23,0.11,-0.29,-0.03,0.10,0.94,
1.011,-0.18,0.16,-0.34,-0.03,0.10,0.94,
1.012,-0.18,0.16,-0.34,-0.02,0.11,0.94,
1.014,-0.18,0.16,-0.34,-0.02,0.11,0.94,
1.014,-0.15,0.16,-0.41,-0.02,0.11,0.94,
1.017,-0.15,0.16,-0.41,-0.02,0.11,0.93,
1.019,-0.15,0.16,-0.41,-0.02,0.11,0.93,
1.02,-0.13,0.18,-0.43,-0.02,0.11,0.93,
1.022,-0.13,0.18,-0.43,-0.02,0.11,0.93,
1.024,-0.13,0.18,-0.43,-0.02,0.10,0.93,
1.025,-0.11,0.17,-0.49,-0.02,0.10,0.93,
1.027,-0.11,0.17,-0.49,-0.02,0.10,0.93,
1.029,-0.11,0.17,-0.49,-0.02,0.10,0.93,
1.029,-0.10,0.16,-0.48,-0.02,0.10,0.93,
1.031,-0.10,0.16,-0.48,-0.02,0.10,0.93,
1.034,-0.10,0.16,-0.48,-0.02,0.10,0.93,
1.034,-0.11,0.14,-0.48,-0.02,0.10,0.93,
1.036,-0.11,0.14,-0.48,-0.02,0.10,0.94,
1.039,-0.11,0.14,-0.48,-0.02,0.10,0.94,
1.039,-0.10,0.14,-0.45,-0.02,0.10,0.94,
1.041,-0.10,0.14,-0.45,-0.02,0.10,0.94,
1.043,-0.10,0.14,-0.45,-0.02,0.10,0.94,
1.044,-0.10,0.13,-0.42,-0.02,0.10,0.94,
1.046,-0.10,0.13,-0.42,-0.02,0.10,0.94,
1.048,-0.10,0.13,-0.42,-0.02,0.10,0.95,
1.049,-0.08,0.09,-0.38,-0.02,0.10,0.95,
1.051,-0.08,0.09,-0.38,-0.01,0.09,0.95,
1.053,-0.08,0.09,-0.38,-0.01,0.09,0.95,
1.054,-0.08,0.09,-0.32,-0.01,0.09,0.95,
1.056,-0.08,0.09,-0.32,-0.01,0.09,0.95,
1.058,-0.08,0.09,-0.32,-0.01,0.09,0.95,
1.059,-0.05,0.05,-0.28,-0.01,0.09,0.95,
1.065,-0.05,0.05,-0.28,-0.01,0.09,0.95,
1.066,-0.05,0.05,-0.28,-0.01,0.09,0.95,
1.066,-0.07,0.03,-0.26,-0.01,0.09,0.95,
1.067,-0.07,0.03,-0.26,-0.01,0.09,0.95,
1.068,-0.07,0.03,-0.26,-0.01,0.09,0.96,
1.068,-0.06,0.01,-0.25,-0.01,0.09,0.96,
1.07,-0.06,0.01,-0.25,-0.01,0.09,0.96,
1.073,-0.06,0.01,-0.25,-0.01,0.09,0.96,
1.073,-0.03,0.00,-0.23,-0.01,0.09,0.96,
1.08,-0.03,0.00,-0.23,-0.01,0.09,0.96,
1.08,-0.03,0.00,-0.23,-0.01,0.09,0.96,
1.081,-0.00,0.03,-0.20,-0.01,0.09,0.96,
1.081,-0.00,0.03,-0.20,-0.01,0.09,0.96,
1.083,-0.00,0.03,-0.20,-0.01,0.09,0.96,
1.083,-0.00,0.02,-0.19,-0.01,0.09,0.96,
1.085,-0.00,0.02,-0.19,-0.01,0.09,0.96,
1.087,-0.00,0.02,-0.19,-0.01,0.09,0.96,
1.088,-0.03,0.04,-0.18,-0.01,0.09,0.96,
1.09,-0.03,0.04,-0.18,-0.02,0.09,0.96,
1.092,-0.03,0.04,-0.18,-0.02,0.09,0.96,
1.093,-0.07,0.06,-0.17,-0.02,0.09,0.96,
1.095,-0.07,0.06,-0.17,-0.03,0.09,0.96,
1.097,-0.07,0.06,-0.17,-0.03,0.10,0.96,
1.099,-0.15,0.08,-0.17,-0.03,0.10,0.96,
1.1,-0.15,0.08,-0.17,-0.03,0.10,0.96,
1.102,-0.15,0.08,-0.17,-0.04,0.10,0.96,
1.102,-0.22,0.10,-0.18,-0.04,0.10,0.96,
1.105,-0.22,0.10,-0.18,-0.04,0.10,0.96,
1.107,-0.22,0.10,-0.18,-0.05,0.10,0.96,
1.107,-0.29,0.15,-0.19,-0.05,0.10,0.96,
1.11,-0.29,0.15,-0.19,-0.05,0.10,0.95,
1.112,-0.29,0.15,-0.19,-0.06,0.10,0.95,
1.112,-0.38,0.17,-0.21,-0.06,0.10,0.95,
1.114,-0.38,0.17,-0.21,-0.06,0.11,0.95,
1.117,-0.38,0.17,-0.21,-0.06,0.11,0.95,
1.117,-0.46,0.19,-0.24,-0.06,0.11,0.95,
1.119,-0.46,0.19,-0.24,-0.06,0.11,0.95,
1.122,-0.46,0.19,-0.24,-0.07,0.11,0.95,
1.122,-0.52,0.21,-0.27,-0.07,0.11,0.95,
1.124,-0.52,0.21,-0.27,-0.07,0.11,0.95,
1.127,-0.52,0.21,-0.27,-0.07,0.12,0.94,
1.127,-0.57,0.24,-0.28,-0.07,0.12,0.94,
1.129,-0.57,0.24,-0.28,-0.07,0.12,0.94,
1.132,-0.57,0.24,-0.28,-0.07,0.12,0.94,
1.132,-0.59,0.28,-0.30,-0.07,0.12,0.94,
1.134,-0.59,0.28,-0.30,-0.07,0.13,0.94,
1.137,-0.59,0.28,-0.30,-0.07,0.13,0.94,
1.137,-0.61,0.34,-0.31,-0.07,0.13,0.94,
1.139,-0.61,0.34,-0.31,-0.06,0.14,0.94,
1.141,-0.61,0.34,-0.31,-0.06,0.14,0.95,
1.142,-0.59,0.43,-0.31,-0.06,0.14,0.95,
1.144,-0.59,0.43,-0.31,-0.05,0.15,0.95,
1.146,-0.59,0.43,-0.31,-0.05,0.15,0.95,
1.147,-0.53,0.52,-0.30,-0.05,0.15,0.95,
1.149,-0.53,0.52,-0.30,-0.05,0.15,0.95,
1.151,-0.53,0.52,-0.30,-0.04,0.16,0.95,
1.151,-0.43,0.60,-0.27,-0.04,0.16,0.95,
1.154,-0.43,0.60,-0.27,-0.04,0.16,0.95,
1.156,-0.43,0.60,-0.27,-0.04,0.16,0.95,
1.156,-0.37,0.68,-0.23,-0.04,0.16,0.95,
1.164,-0.37,0.68,-0.23,-0.04,0.16,0.95,
1.165,-0.37,0.68,-0.23,-0.03,0.17,0.95,
1.165,-0.32,0.74,-0.23,-0.03,0.17,0.95,
1.165,-0.32,0.74,-0.23,-0.03,0.17,0.95,
1.166,-0.32,0.74,-0.23,-0.03,0.17,0.95,
1.166,-0.27,0.77,-0.22,-0.03,0.17,0.95,
1.168,-0.27,0.77,-0.22,-0.03,0.17,0.95,
1.171,-0.27,0.77,-0.22,-0.03,0.17,0.95,
1.171,-0.28,0.80,-0.20,-0.03,0.17,0.95,
1.173,-0.28,0.80,-0.20,-0.03,0.17,0.95,
1.176,-0.28,0.80,-0.20,-0.04,0.17,0.95,
1.176,-0.27,0.81,-0.22,-0.04,0.17,0.95,
1.178,-0.27,0.81,-0.22,-0.03,0.17,0.95,
1.181,-0.27,0.81,-0.22,-0.04,0.17,0.95,
1.181,-0.28,0.80,-0.21,-0.04,0.17,0.95,
1.183,-0.28,0.80,-0.21,-0.03,0.17,0.95,
1.185,-0.28,0.80,-0.21,-0.03,0.17,0.95,
1.186,-0.29,0.80,-0.22,-0.03,0.17,0.95,
1.188,-0.29,0.80,-0.22,-0.03,0.17,0.95,
1.19,-0.29,0.80,-0.22,-0.03,0.17,0.95,
1.191,-0.29,0.82,-0.26,-0.03,0.17,0.95,
1.193,-0.29,0.82,-0.26,-0.03,0.17,0.95,
1.195,-0.29,0.82,-0.26,-0.04,0.18,0.94,
1.196,-0.28,0.83,-0.26,-0.04,0.18,0.94,
1.198,-0.28,0.83,-0.26,-0.04,0.18,0.94,
1.2,-0.28,0.83,-0.26,-0.04,0.18,0.94,
1.2,-0.30,0.85,-0.27,-0.04,0.18,0.94,
1.202,-0.30,0.85,-0.27,-0.04,0.18,0.94,
1.205,-0.30,0.85,-0.27,-0.04,0.18,0.94,
1.205,-0.35,0.87,-0.28,-0.04,0.18,0.94,
1.207,-0.35,0.87,-0.28,-0.05,0.18,0.95,
1.21,-0.35,0.87,-0.28,-0.05,0.18,0.95,
1.21,-0.37,0.92,-0.29,-0.05,0.18,0.95,
1.212,-0.37,0.92,-0.29,-0.05,0.19,0.95,
1.215,-0.37,0.92,-0.29,-0.05,0.19,0.95,
1.215,-0.40,0.93,-0.26,-0.05,0.19,0.95,
1.217,-0.40,0.93,-0.26,-0.05,0.19,0.95,
1.22,-0.40,0.93,-0.26,-0.05,0.19,0.95,
1.22,-0.42,0.96,-0.22,-0.05,0.19,0.95,
1.222,-0.42,0.96,-0.22,-0.06,0.19,0.95,
1.225,-0.42,0.96,-0.22,-0.06,0.20,0.96,
1.225,-0.46,0.98,-0.20,-0.06,0.20,0.96,
1.227,-0.46,0.98,-0.20,-0.06,0.20,0.96,
1.23,-0.46,0.98,-0.20,-0.07,0.20,0.96,
1.23,-0.49,1.01,-0.16,-0.07,0.20,0.96,
1.232,-0.49,1.01,-0.16,-0.07,0.20,0.96,
1.234,-0.49,1.01,-0.16,-0.07,0.20,0.97,
1.235,-0.54,1.04,-0.11,-0.07,0.20,0.97,
1.237,-0.54,1.04,-0.11,-0.07,0.20,0.97,
1.24,-0.54,1.04,-0.11,-0.07,0.21,0.97,
1.24,-0.58,1.08,-0.05,-0.07,0.21,0.97,
1.242,-0.58,1.08,-0.05,-0.07,0.21,0.98,
1.244,-0.58,1.08,-0.05,-0.07,0.21,0.98,
1.245,-0.58,1.10,-0.00,-0.07,0.21,0.98,
1.247,-0.58,1.10,-0.00,-0.07,0.21,0.98,
1.249,-0.58,1.10,-0.00,-0.07,0.21,0.98,
1.249,-0.58,1.12,0.04,-0.07,0.21,0.98,
1.252,-0.58,1.12,0.04,-0.08,0.21,0.99,
1.254,-0.58,1.12,0.04,-0.07,0.21,0.99,
1.254,-0.58,1.12,0.07,-0.07,0.21,0.99,
1.257,-0.58,1.12,0.07,-0.07,0.21,0.99,
1.259,-0.58,1.12,0.07,-0.07,0.21,0.99,
1.259,-0.59,1.14,0.14,-0.07,0.21,0.99,
1.262,-0.59,1.14,0.14,-0.07,0.21,0.99,
1.264,-0.59,1.14,0.14,-0.07,0.21,0.99,
1.264,-0.55,1.13,0.15,-0.07,0.21,0.99,
1.266,-0.55,1.13,0.15,-0.07,0.21,0.99,
1.269,-0.55,1.13,0.15,-0.06,0.21,0.99,
1.269,-0.53,1.10,0.16,-0.06,0.21,0.99,
1.271,-0.53,1.10,0.16,-0.06,0.21,0.99,
1.274,-0.53,1.10,0.16,-0.06,0.20,0.99,
1.274,-0.48,1.08,0.15,-0.06,0.20,0.99,
1.279,-0.48,1.08,0.15,-0.05,0.20,0.99,
1.28,-0.48,1.08,0.15,-0.05,0.20,0.99,
1.28,-0.42,1.06,0.16,-0.05,0.20,0.99,
1.281,-0.42,1.06,0.16,-0.05,0.20,0.99,
1.283,-0.42,1.06,0.16,-0.05,0.19,0.99,
1.284,-0.36,1.01,0.14,-0.05,0.19,0.99,
1.286,-0.36,1.01,0.14,-0.05,0.19,0.98,
1.288,-0.36,1.01,0.14,-0.04,0.19,0.98,
1.288,-0.33,0.97,0.12,-0.04,0.19,0.98,
1.291,-0.33,0.97,0.12,-0.04,0.19,0.98,
1.293,-0.33,0.97,0.12,-0.04,0.18,0.98,
1.294,-0.29,0.93,0.09,-0.04,0.18,0.98,
1.296,-0.29,0.93,0.09,-0.04,0.18,0.98,
1.298,-0.29,0.93,0.09,-0.04,0.18,0.98,
1.298,-0.25,0.87,0.08,-0.04,0.18,0.98,
1.3,-0.25,0.87,0.08,-0.04,0.18,0.98,
1.303,-0.25,0.87,0.08,-0.03,0.18,0.98,
1.303,-0.22,0.83,0.08,-0.03,0.18,0.98,
1.305,-0.22,0.83,0.08,-0.03,0.18,0.98,
1.308,-0.22,0.83,0.08,-0.03,0.18,0.98,
1.309,-0.21,0.81,0.06,-0.03,0.18,0.98,
1.31,-0.21,0.81,0.06,-0.03,0.18,0.98,
1.313,-0.21,0.81,0.06,-0.03,0.18,0.98,
1.313,-0.19,0.81,0.07,-0.03,0.18,0.98,
1.315,-0.19,0.81,0.07,-0.03,0.17,0.98,
1.317,-0.19,0.81,0.07,-0.04,0.18,0.98,
1.318,-0.20,0.80,0.08,-0.04,0.18,0.98,
1.32,-0.20,0.80,0.08,-0.04,0.18,0.98,
1.322,-0.20,0.80,0.08,-0.04,0.18,0.99,
1.322,-0.20,0.77,0.10,-0.04,0.18,0.99,
1.325,-0.20,0.77,0.10,-0.04,0.18,0.99,
1.327,-0.20,0.77,0.10,-0.03,0.18,0.99,
1.328,-0.22,0.78,0.10,-0.03,0.18,0.99,
1.33,-0.22,0.78,0.10,-0.04,0.18,0.99,
1.332,-0.22,0.78,0.10,-0.04,0.18,0.99,
1.332,-0.20,0.79,0.12,-0.04,0.18,0.99,
1.335,-0.20,0.79,0.12,-0.04,0.18,0.99,
1.337,-0.20,0.79,0.12,-0.04,0.18,0.99,
1.337,-0.22,0.81,0.15,-0.04,0.18,0.99,
1.34,-0.22,0.81,0.15,-0.04,0.18,1.00,
1.342,-0.22,0.81,0.15,-0.04,0.18,1.00,
1.342,-0.22,0.83,0.18,-0.04,0.18,1.00,
1.345,-0.22,0.83,0.18,-0.04,0.18,1.00,
1.347,-0.22,0.83,0.18,-0.04,0.18,1.00,
1.347,-0.23,0.81,0.21,-0.04,0.18,1.00,
1.349,-0.23,0.81,0.21,-0.04,0.18,1.00,
1.352,-0.23,0.81,0.21,-0.04,0.18,1.00,
1.352,-0.23,0.81,0.23,-0.04,0.18,1.00,
1.354,-0.23,0.81,0.23,-0.04,0.18,1.00,
1.357,-0.23,0.81,0.23,-0.04,0.18,1.00,
1.357,-0.22,0.81,0.25,-0.04,0.18,1.00,
1.363,-0.22,0.81,0.25,-0.04,0.18,1.00,
1.364,-0.22,0.81,0.25,-0.04,0.18,1.00,
1.364,-0.20,0.79,0.24,-0.04,0.18,1.00,
1.365,-0.20,0.79,0.24,-0.04,0.18,1.00,
1.367,-0.20,0.79,0.24,-0.03,0.18,1.00,
1.367,-0.19,0.78,0.25,-0.03,0.18,1.00,
1.369,-0.19,0.78,0.25,-0.03,0.18,1.00,
1.372,-0.19,0.78,0.25,-0.03,0.18,1.00,
1.372,-0.16,0.78,0.27,-0.03,0.18,1.00,
1.374,-0.16,0.78,0.27,-0.03,0.18,1.00,
1.377,-0.16,0.78,0.27,-0.03,0.18,1.00,
1.377,-0.12,0.76,0.25,-0.03,0.18,1.00,
1.379,-0.12,0.76,0.25,-0.02,0.18,1.00,
1.381,-0.12,0.76,0.25,-0.03,0.18,1.00,
1.382,-0.09,0.75,0.26,-0.03,0.18,1.00,
1.384,-0.09,0.75,0.26,-0.03,0.18,1.00,
1.386,-0.09,0.75,0.26,-0.03,0.17,1.00,
1.386,-0.06,0.75,0.24,-0.03,0.17,1.00,
1.389,-0.06,0.75,0.24,-0.03,0.17,1.00,
1.393,-0.06,0.75,0.24,-0.03,0.17,1.00,
1.393,-0.08,0.74,0.23,-0.03,0.17,1.00,
1.394,-0.08,0.74,0.23,-0.03,0.17,1.00,
1.396,-0.08,0.74,0.23,-0.02,0.17,1.00,
1.397,-0.08,0.71,0.20,-0.02,0.17,1.00,
1.399,-0.08,0.71,0.20,-0.03,0.17,1.00,
1.401,-0.08,0.71,0.20,-0.03,0.17,1.00,
1.401,-0.06,0.71,0.19,-0.03,0.17,1.00,
1.403,-0.06,0.71,0.19,-0.03,0.18,1.00,
1.406,-0.06,0.71,0.19,-0.03,0.18,1.00,
1.406,-0.07,0.71,0.19,-0.03,0.18,1.00,
1.409,-0.07,0.71,0.19,-0.03,0.18,1.00,
1.411,-0.07,0.71,0.19,-0.03,0.18,1.00,
1.411,-0.08,0.74,0.18,-0.03,0.18,1.00,
1.413,-0.08,0.74,0.18,-0.03,0.18,1.00,
1.416,-0.08,0.74,0.18,-0.03,0.18,1.00,
1.416,-0.10,0.75,0.17,-0.03,0.18,1.00,
1.418,-0.10,0.75,0.17,-0.03,0.18,1.00,
1.421,-0.10,0.75,0.17,-0.03,0.18,1.00,
1.421,-0.11,0.77,0.17,-0.03,0.18,1.00,
1.423,-0.11,0.77,0.17,-0.03,0.19,1.00,
1.426,-0.11,0.77,0.17,-0.04,0.19,1.00,
1.426,-0.13,0.79,0.20,-0.04,0.19,1.00,
1.428,-0.13,0.79,0.20,-0.03,0.19,1.00,
1.431,-0.13,0.79,0.20,-0.03,0.19,1.01,
1.431,-0.15,0.83,0.22,-0.03,0.19,1.01,
1.433,-0.15,0.83,0.22,-0.03,0.19,1.00,
1.435,-0.15,0.83,0.22,-0.04,0.19,1.01,
1.436,-0.14,0.84,0.25,-0.04,0.19,1.01,
1.438,-0.14,0.84,0.25,-0.04,0.19,1.01,
1.44,-0.14,0.84,0.25,-0.04,0.19,1.01,
1.441,-0.14,0.85,0.26,-0.04,0.19,1.01,
1.443,-0.14,0.85,0.26,-0.03,0.19,1.01,
1.445,-0.14,0.85,0.26,-0.03,0.19,1.01,
1.446,-0.14,0.87,0.29,-0.03,0.19,1.01,
1.448,-0.14,0.87,0.29,-0.03,0.19,1.01,
1.45,-0.14,0.87,0.29,-0.03,0.19,1.01,
1.45,-0.11,0.86,0.30,-0.03,0.19,1.01,
1.453,-0.11,0.86,0.30,-0.03,0.19,1.02,
1.455,-0.11,0.86,0.30,-0.02,0.19,1.02,
1.455,-0.07,0.85,0.32,-0.02,0.19,1.02,
1.457,-0.07,0.85,0.32,-0.02,0.19,1.02,
1.465,-0.07,0.85,0.32,-0.02,0.19,1.02,
1.465,-0.02,0.84,0.34,-0.02,0.19,1.02,
1.465,-0.02,0.84,0.34,-0.01,0.19,1.02,
1.466,-0.02,0.84,0.34,-0.01,0.19,1.02,
1.466,0.04,0.83,0.34,-0.01,0.19,1.02,
1.467,0.04,0.83,0.34,-0.01,0.19,1.02,
1.47,0.04,0.83,0.34,-0.01,0.19,1.02,
1.47,0.08,0.81,0.36,-0.01,0.19,1.02,
1.472,0.08,0.81,0.36,-0.01,0.19,1.02,
1.478,0.08,0.81,0.36,-0.01,0.18,1.02,
1.478,0.10,0.78,0.36,-0.01,0.18,1.02,
1.478,0.10,0.78,0.36,-0.00,0.18,1.02,
1.48,0.10,0.78,0.36,-0.00,0.18,1.02,
1.48,0.16,0.75,0.35,-0.00,0.18,1.02,
1.482,0.16,0.75,0.35,-0.00,0.18,1.01,
1.484,0.16,0.75,0.35,-0.00,0.18,1.01,
1.485,0.18,0.71,0.33,-0.00,0.18,1.01,
1.487,0.18,0.71,0.33,0.00,0.18,1.01,
1.489,0.18,0.71,0.33,0.00,0.18,1.01,
1.489,0.21,0.68,0.28,0.00,0.18,1.01,
1.492,0.21,0.68,0.28,0.00,0.18,1.01,
1.494,0.21,0.68,0.28,0.00,0.18,1.01,
1.494,0.23,0.67,0.25,0.00,0.18,1.01,
1.497,0.23,0.67,0.25,0.00,0.18,1.01,
1.499,0.23,0.67,0.25,0.01,0.18,1.01,
1.499,0.24,0.63,0.23,0.01,0.18,1.01,
1.501,0.24,0.63,0.23,0.01,0.18,1.01,
1.504,0.24,0.63,0.23,0.01,0.18,1.01,
1.504,0.27,0.64,0.24,0.01,0.18,1.01,
1.506,0.27,0.64,0.24,0.01,0.18,1.01,
1.509,0.27,0.64,0.24,0.01,0.18,1.00,
1.51,0.30,0.65,0.23,0.01,0.18,1.00,
1.512,0.30,0.65,0.23,0.01,0.18,1.00,
1.514,0.30,0.65,0.23,0.02,0.18,1.00,
1.515,0.31,0.65,0.22,0.02,0.18,1.00,
1.517,0.31,0.65,0.22,0.02,0.18,1.00,
1.518,0.31,0.65,0.22,0.02,0.19,1.00,
1.519,0.34,0.67,0.19,0.02,0.19,1.00,
1.521,0.34,0.67,0.19,0.02,0.19,1.00,
1.523,0.34,0.67,0.19,0.02,0.19,1.01,
1.524,0.40,0.69,0.19,0.02,0.19,1.01,
1.526,0.40,0.69,0.19,0.03,0.19,1.01,
1.528,0.40,0.69,0.19,0.03,0.19,1.01,
1.529,0.42,0.71,0.21,0.03,0.19,1.01,
1.531,0.42,0.71,0.21,0.03,0.19,1.01,
1.533,0.42,0.71,0.21,0.03,0.19,1.01,
1.533,0.45,0.73,0.24,0.03,0.19,1.01,
1.536,0.45,0.73,0.24,0.03,0.19,1.01,
1.538,0.45,0.73,0.24,0.03,0.19,1.01,
1.538,0.48,0.72,0.23,0.03,0.19,1.01,
1.542,0.48,0.72,0.23,0.04,0.19,1.01,
1.543,0.48,0.72,0.23,0.04,0.19,1.01,
1.544,0.51,0.72,0.26,0.04,0.19,1.01,
1.546,0.51,0.72,0.26,0.04,0.19,1.02,
1.548,0.51,0.72,0.26,0.04,0.19,1.02,
1.548,0.54,0.71,0.27,0.04,0.19,1.02,
1.55,0.54,0.71,0.27,0.04,0.19,1.02,
1.553,0.54,0.71,0.27,0.04,0.19,1.02,
1.553,0.56,0.69,0.31,0.04,0.19,1.02,
1.555,0.56,0.69,0.31,0.04,0.19,1.02,
1.558,0.56,0.67,0.30,0.04,0.19,1.02,
1.559,0.56,0.67,0.30,0.04,0.19,1.02,
1.56,0.56,0.67,0.30,0.04,0.19,1.02,
1.563,0.56,0.67,0.30,0.04,0.18,1.02,
1.563,0.56,0.64,0.31,0.04,0.18,1.02,
1.565,0.56,0.64,0.31,0.04,0.18,1.02,
1.567,0.56,0.64,0.31,0.04,0.18,1.01,
1.568,0.56,0.59,0.29,0.04,0.18,1.01,
1.57,0.56,0.59,0.29,0.04,0.18,1.01,
1.572,0.56,0.59,0.29,0.04,0.18,1.01,
1.573,0.56,0.58,0.28,0.04,0.18,1.01,
1.581,0.56,0.58,0.28,0.05,0.18,1.01,
1.582,0.56,0.58,0.28,0.04,0.18,1.00,
1.582,0.59,0.56,0.24,0.04,0.18,1.00,
1.583,0.59,0.56,0.24,0.05,0.19,1.00,
1.583,0.59,0.56,0.24,0.05,0.19,1.00,
1.583,0.61,0.55,0.19,0.05,0.19,1.00,
1.585,0.61,0.55,0.19,0.05,0.19,1.00,
1.587,0.61,0.55,0.19,0.05,0.19,0.99,
1.589,0.64,0.57,0.14,0.05,0.19,0.99,
1.59,0.64,0.57,0.14,0.05,0.19,0.99,
1.595,0.64,0.57,0.14,0.05,0.19,0.99,
1.595,0.67,0.55,0.10,0.05,0.19,0.99,
1.595,0.67,0.55,0.10,0.05,0.19,0.99,
1.597,0.67,0.55,0.10,0.05,0.19,0.98,
1.597,0.67,0.57,0.06,0.05,0.19,0.98,
1.599,0.67,0.57,0.06,0.05,0.19,0.98,
1.602,0.67,0.57,0.06,0.05,0.19,0.98,
1.602,0.67,0.56,0.01,0.05,0.19,0.98,
1.604,0.67,0.56,0.01,0.05,0.19,0.98,
1.607,0.67,0.56,0.01,0.05,0.19,0.97,
1.607,0.65,0.56,-0.03,0.05,0.19,0.97,
1.609,0.65,0.56,-0.03,0.05,0.19,0.97,
1.612,0.65,0.56,-0.03,0.05,0.19,0.97,
1.612,0.64,0.55,-0.09,0.05,0.19,0.97,
1.614,0.64,0.55,-0.09,0.05,0.19,0.97,
1.617,0.64,0.55,-0.09,0.05,0.19,0.97,
1.617,0.63,0.53,-0.11,0.05,0.19,0.97,
1.619,0.63,0.53,-0.11,0.04,0.19,0.97,
1.621,0.63,0.53,-0.11,0.04,0.19,0.97,
1.621,0.59,0.54,-0.13,0.04,0.19,0.97,
1.624,0.59,0.54,-0.13,0.04,0.19,0.97,
1.626,0.59,0.54,-0.13,0.04,0.19,0.97,
1.626,0.55,0.54,-0.14,0.04,0.19,0.97,
1.629,0.55,0.54,-0.14,0.04,0.19,0.97,
1.631,0.55,0.54,-0.14,0.04,0.19,0.97,
1.631,0.54,0.50,-0.16,0.04,0.19,0.97,
1.634,0.54,0.50,-0.16,0.04,0.19,0.97,
1.636,0.54,0.50,-0.16,0.04,0.19,0.97,
1.636,0.52,0.52,-0.17,0.04,0.19,0.97,
1.639,0.52,0.52,-0.17,0.04,0.19,0.97,
1.642,0.52,0.52,-0.17,0.04,0.19,0.97,
1.642,0.50,0.49,-0.16,0.04,0.19,0.97,
1.644,0.50,0.49,-0.16,0.04,0.19,0.97,
1.646,0.50,0.49,-0.16,0.03,0.19,0.97,
1.646,0.51,0.45,-0.15,0.03,0.19,0.97,
1.648,0.51,0.45,-0.15,0.03,0.19,0.97,
1.651,0.51,0.45,-0.15,0.03,0.19,0.97,
1.651,0.47,0.43,-0.14,0.03,0.19,0.97,
1.653,0.47,0.43,-0.14,0.03,0.18,0.97,
1.656,0.47,0.43,-0.14,0.03,0.18,0.97,
1.656,0.45,0.40,-0.16,0.03,0.18,0.97,
1.658,0.45,0.40,-0.16,0.03,0.18,0.97,
1.661,0.45,0.40,-0.16,0.03,0.18,0.97,
1.661,0.41,0.35,-0.16,0.03,0.18,0.97,
1.663,0.41,0.35,-0.16,0.03,0.18,0.97,
1.665,0.41,0.35,-0.16,0.03,0.18,0.97,
1.666,0.42,0.31,-0.15,0.03,0.18,0.97,
1.668,0.42,0.31,-0.15,0.03,0.18,0.97,
1.67,0.42,0.31,-0.15,0.04,0.18,0.97,
1.671,0.45,0.30,-0.15,0.04,0.18,0.97,
1.673,0.45,0.30,-0.15,0.04,0.18,0.96,
1.68,0.45,0.30,-0.15,0.04,0.17,0.96,
1.68,0.48,0.25,-0.16,0.04,0.17,0.96,
1.68,0.48,0.25,-0.16,0.04,0.17,0.96,
1.681,0.48,0.25,-0.16,0.04,0.17,0.97,
1.681,0.49,0.23,-0.17,0.04,0.17,0.97,
1.683,0.49,0.23,-0.17,0.04,0.17,0.97,
1.685,0.49,0.23,-0.17,0.04,0.17,0.97,
1.685,0.53,0.21,-0.16,0.04,0.17,0.97,
1.688,0.53,0.21,-0.16,0.04,0.17,0.97,
1.69,0.53,0.21,-0.16,0.04,0.17,0.97,
1.691,0.52,0.20,-0.14,0.04,0.17,0.97,
1.692,0.52,0.20,-0.14,0.04,0.17,0.97,
1.695,0.52,0.20,-0.14,0.04,0.17,0.97,
1.695,0.53,0.17,-0.14,0.04,0.17,0.97,
1.697,0.53,0.17,-0.14,0.04,0.17,0.97,
1.7,0.53,0.17,-0.14,0.03,0.17,0.97,
1.7,0.52,0.15,-0.13,0.03,0.17,0.97,
1.702,0.52,0.15,-0.13,0.03,0.17,0.97,
1.704,0.52,0.15,-0.13,0.03,0.17,0.97,
1.705,0.47,0.12,-0.11,0.03,0.17,0.97,
1.707,0.47,0.12,-0.11,0.03,0.17,0.97,
1.71,0.43,0.08,-0.11,0.03,0.17,0.97,
1.71,0.43,0.08,-0.11,0.02,0.17,0.97,
1.712,0.43,0.08,-0.11,0.02,0.16,0.97,
1.714,0.43,0.08,-0.11,0.02,0.16,0.97,
1.715,0.36,0.08,-0.10,0.02,0.16,0.97,
1.717,0.36,0.08,-0.10,0.02,0.16,0.97,
1.719,0.36,0.08,-0.10,0.01,0.16,0.97,
1.719,0.33,0.03,-0.10,0.01,0.16,0.97,
1.722,0.33,0.03,-0.10,0.01,0.16,0.97,
1.724,0.33,0.03,-0.10,0.01,0.16,0.96,
1.725,0.27,-0.00,-0.11,0.01,0.16,0.96,
1.727,0.27,-0.00,-0.11,0.01,0.16,0.96,
1.729,0.27,-0.00,-0.11,0.00,0.16,0.96,
1.73,0.20,-0.02,-0.13,0.00,0.16,0.96,
1.731,0.20,-0.02,-0.13,-0.00,0.16,0.96,
1.734,0.20,-0.02,-0.13,-0.00,0.16,0.96,
1.734,0.15,-0.05,-0.16,-0.00,0.16,0.96,
1.737,0.15,-0.05,-0.16,-0.01,0.16,0.96,
1.739,0.15,-0.05,-0.16,-0.01,0.16,0.96,
1.739,0.08,-0.06,-0.17,-0.01,0.16,0.96,
1.741,0.08,-0.06,-0.17,-0.01,0.16,0.96,
1.744,0.08,-0.06,-0.17,-0.01,0.16,0.95,
1.744,0.04,-0.06,-0.19,-0.01,0.16,0.95,
1.746,0.04,-0.06,-0.19,-0.01,0.16,0.95,
1.749,0.04,-0.06,-0.19,-0.01,0.16,0.95,
1.749,-0.01,-0.05,-0.22,-0.01,0.16,0.95,
1.751,-0.01,-0.05,-0.22,-0.02,0.16,0.95,
1.754,-0.01,-0.05,-0.22,-0.02,0.17,0.95,
1.754,-0.03,-0.04,-0.23,-0.02,0.17,0.95,
1.756,-0.03,-0.04,-0.23,-0.02,0.17,0.95,
1.763,-0.03,-0.04,-0.23,-0.02,0.17,0.95,
1.764,-0.06,-0.03,-0.26,-0.02,0.17,0.95,
1.764,-0.06,-0.03,-0.26,-0.02,0.17,0.95,
1.765,-0.06,-0.03,-0.26,-0.02,0.17,0.95,
1.765,-0.07,-0.03,-0.26,-0.02,0.17,0.95,
1.766,-0.07,-0.03,-0.26,-0.03,0.17,0.95,
1.768,-0.07,-0.03,-0.26,-0.03,0.17,0.95,
1.768,-0.10,-0.01,-0.26,-0.03,0.17,0.95,
1.771,-0.10,-0.01,-0.26,-0.03,0.17,0.95,
1.774,-0.10,-0.01,-0.26,-0.04,0.17,0.95,
1.775,-0.16,-0.02,-0.27,-0.04,0.17,0.95,
1.776,-0.16,-0.02,-0.27,-0.04,0.17,0.95,
1.778,-0.16,-0.02,-0.27,-0.04,0.17,0.95,
1.778,-0.23,-0.03,-0.24,-0.04,0.17,0.95,
1.781,-0.23,-0.03,-0.24,-0.05,0.16,0.96,
1.783,-0.23,-0.03,-0.24,-0.06,0.16,0.96,
1.783,-0.30,-0.05,-0.20,-0.06,0.16,0.96,
1.785,-0.30,-0.05,-0.20,-0.06,0.16,0.96,
1.788,-0.30,-0.05,-0.20,-0.06,0.16,0.96,
1.788,-0.40,-0.09,-0.18,-0.06,0.16,0.96,
1.79,-0.40,-0.09,-0.18,-0.07,0.16,0.96,
1.793,-0.40,-0.09,-0.18,-0.07,0.16,0.96,
1.793,-0.47,-0.13,-0.15,-0.07,0.16,0.96,
1.795,-0.47,-0.13,-0.15,-0.07,0.16,0.96,
1.798,-0.47,-0.13,-0.15,-0.07,0.16,0.96,
1.798,-0.55,-0.16,-0.13,-0.07,0.16,0.96,
1.8,-0.55,-0.16,-0.13,-0.08,0.15,0.97,
1.803,-0.55,-0.16,-0.13,-0.08,0.15,0.96,
1.803,-0.61,-0.18,-0.10,-0.08,0.15,0.96,
1.805,-0.61,-0.18,-0.10,-0.08,0.15,0.97,
1.808,-0.61,-0.18,-0.10,-0.09,0.15,0.97,
1.808,-0.66,-0.21,-0.09,-0.09,0.15,0.97,
1.81,-0.66,-0.21,-0.09,-0.09,0.15,0.96,
1.812,-0.66,-0.21,-0.09,-0.09,0.15,0.96,
1.813,-0.71,-0.22,-0.08,-0.09,0.15,0.96,
1.815,-0.71,-0.22,-0.08,-0.09,0.15,0.96,
1.817,-0.71,-0.22,-0.08,-0.09,0.15,0.96,
1.817,-0.75,-0.22,-0.09,-0.09,0.15,0.96,
1.82,-0.75,-0.22,-0.09,-0.09,0.15,0.96,
1.823,-0.75,-0.22,-0.09,-0.09,0.15,0.96,
1.823,-0.75,-0.25,-0.10,-0.09,0.15,0.96,
1.825,-0.75,-0.25,-0.10,-0.09,0.15,0.96,
1.828,-0.75,-0.25,-0.10,-0.09,0.15,0.95,
1.828,-0.75,-0.25,-0.13,-0.09,0.15,0.95,
1.83,-0.75,-0.25,-0.13,-0.09,0.15,0.95,
1.832,-0.75,-0.25,-0.13,-0.08,0.15,0.95,
1.832,-0.73,-0.25,-0.17,-0.08,0.15,0.95,
1.834,-0.73,-0.25,-0.17,-0.08,0.15,0.95,
1.837,-0.73,-0.25,-0.17,-0.07,0.15,0.94,
1.837,-0.71,-0.27,-0.22,-0.07,0.15,0.94,
1.839,-0.71,-0.27,-0.22,-0.07,0.15,0.94,
1.842,-0.71,-0.27,-0.22,-0.07,0.15,0.93,
1.842,-0.65,-0.28,-0.29,-0.07,0.15,0.93,
1.844,-0.65,-0.28,-0.29,-0.06,0.15,0.93,
1.847,-0.65,-0.28,-0.29,-0.06,0.15,0.93,
1.847,-0.57,-0.27,-0.36,-0.06,0.15,0.93,
1.849,-0.57,-0.27,-0.36,-0.06,0.15,0.92,
1.851,-0.57,-0.27,-0.36,-0.06,0.15,0.93,
1.852,-0.50,-0.27,-0.42,-0.06,0.15,0.93,
1.854,-0.50,-0.27,-0.42,-0.05,0.15,0.93,
1.863,-0.50,-0.27,-0.42,-0.05,0.15,0.92,
1.863,-0.46,-0.29,-0.44,-0.05,0.15,0.92,
1.864,-0.46,-0.29,-0.44,-0.05,0.15,0.92,
1.864,-0.46,-0.29,-0.44,-0.05,0.15,0.93,
1.864,-0.41,-0.30,-0.45,-0.05,0.15,0.93,
1.864,-0.41,-0.30,-0.45,-0.05,0.14,0.93,
1.866,-0.41,-0.30,-0.45,-0.05,0.14,0.93,
1.866,-0.38,-0.35,-0.43,-0.05,0.14,0.93,
1.869,-0.38,-0.35,-0.43,-0.05,0.14,0.94,
1.871,-0.38,-0.35,-0.43,-0.05,0.13,0.94,
1.871,-0.37,-0.39,-0.38,-0.05,0.13,0.94,
1.874,-0.37,-0.39,-0.38,-0.05,0.13,0.94,
1.876,-0.37,-0.39,-0.38,-0.05,0.13,0.95,
1.877,-0.40,-0.46,-0.31,-0.05,0.13,0.95,
1.878,-0.40,-0.46,-0.31,-0.05,0.13,0.95,
1.881,-0.40,-0.46,-0.31,-0.06,0.12,0.95,
1.881,-0.43,-0.52,-0.24,-0.06,0.12,0.95,
1.883,-0.43,-0.52,-0.24,-0.05,0.12,0.96,
1.886,-0.43,-0.52,-0.24,-0.06,0.11,0.96,
1.886,-0.46,-0.57,-0.15,-0.06,0.11,0.96,
1.888,-0.46,-0.57,-0.15,-0.06,0.11,0.97,
1.891,-0.46,-0.57,-0.15,-0.06,0.11,0.97,
1.891,-0.47,-0.65,-0.06,-0.06,0.11,0.97,
1.893,-0.47,-0.65,-0.06,-0.06,0.11,0.97,
1.895,-0.47,-0.65,-0.06,-0.06,0.11,0.98,
1.896,-0.51,-0.69,0.02,-0.06,0.11,0.98,
1.898,-0.51,-0.69,0.02,-0.06,0.11,0.98,
1.9,-0.51,-0.69,0.02,-0.07,0.11,0.98,
1.901,-0.54,-0.70,0.08,-0.07,0.11,0.98,
1.903,-0.54,-0.70,0.08,-0.07,0.11,0.98,
1.905,-0.54,-0.70,0.08,-0.07,0.11,0.98,
1.906,-0.55,-0.73,0.15,-0.07,0.11,0.98,
1.908,-0.55,-0.73,0.15,-0.07,0.11,0.98,
1.911,-0.55,-0.73,0.15,-0.07,0.11,0.98,
1.911,-0.56,-0.74,0.15,-0.07,0.11,0.98,
1.913,-0.56,-0.74,0.15,-0.06,0.11,0.98,
1.915,-0.56,-0.74,0.15,-0.06,0.11,0.98,
1.915,-0.56,-0.74,0.13,-0.06,0.11,0.98,
1.917,-0.56,-0.74,0.13,-0.06,0.11,0.97,
1.92,-0.56,-0.74,0.13,-0.06,0.11,0.97,
1.92,-0.53,-0.73,0.09,-0.06,0.11,0.97,
1.923,-0.53,-0.73,0.09,-0.06,0.11,0.97,
1.925,-0.53,-0.73,0.09,-0.06,0.11,0.97,
1.925,-0.51,-0.71,0.05,-0.06,0.11,0.97,
1.928,-0.51,-0.71,0.05,-0.05,0.11,0.96,
1.93,-0.51,-0.71,0.05,-0.05,0.11,0.96,
1.93,-0.47,-0.71,-0.01,-0.05,0.11,0.96,
1.932,-0.47,-0.71,-0.01,-0.05,0.11,0.96,
1.935,-0.47,-0.71,-0.01,-0.05,0.11,0.96,
1.935,-0.42,-0.69,-0.06,-0.05,0.11,0.96,
1.937,-0.42,-0.69,-0.06,-0.05,0.11,0.96,
1.941,-0.42,-0.69,-0.06,-0.05,0.11,0.95,
1.942,-0.40,-0.69,-0.10,-0.05,0.11,0.95,
1.942,-0.40,-0.69,-0.10,-0.04,0.11,0.96,
1.945,-0.40,-0.69,-0.10,-0.04,0.11,0.96,
1.945,-0.37,-0.69,-0.12,-0.04,0.11,0.96,
1.947,-0.37,-0.69,-0.12,-0.04,0.11,0.96,
1.949,-0.37,-0.69,-0.12,-0.04,0.11,0.96,
1.95,-0.36,-0.71,-0.11,-0.04,0.11,0.96,
1.952,-0.36,-0.71,-0.11,-0.04,0.11,0.96,
1.954,-0.36,-0.71,-0.11,-0.04,0.10,0.96,
1.955,-0.33,-0.72,-0.07,-0.04,0.10,0.96,
1.957,-0.33,-0.72,-0.07,-0.04,0.10,0.96,
1.96,-0.33,-0.72,-0.07,-0.04,0.10,0.96,
1.96,-0.35,-0.76,-0.06,-0.04,0.10,0.96,
1.962,-0.35,-0.76,-0.06,-0.05,0.09,0.97,
1.964,-0.35,-0.76,-0.06,-0.05,0.09,0.97,
1.964,-0.36,-0.81,-0.03,-0.05,0.09,0.97,
1.966,-0.36,-0.81,-0.03,-0.05,0.09,0.97,
1.969,-0.36,-0.81,-0.03,-0.05,0.09,0.97,
1.969,-0.39,-0.87,0.00,-0.05,0.09,0.97,
1.971,-0.39,-0.87,0.00,-0.05,0.09,0.97,
1.979,-0.39,-0.87,0.00,-0.05,0.08,0.97,
1.98,-0.38,-0.92,0.01,-0.05,0.08,0.97,
1.98,-0.38,-0.92,0.01,-0.05,0.08,0.97,
1.98,-0.38,-0.92,0.01,-0.05,0.08,0.97,
1.981,-0.39,-0.96,0.02,-0.05,0.08,0.97,
1.981,-0.39,-0.96,0.02,-0.05,0.08,0.97,
1.984,-0.39,-0.96,0.02,-0.05,0.08,0.97,
1.984,-0.42,-0.99,-0.00,-0.05,0.08,0.97,
1.986,-0.42,-0.99,-0.00,-0.05,0.08,0.97,
1.988,-0.42,-0.99,-0.00,-0.04,0.08,0.97,
1.989,-0.40,-1.00,-0.00,-0.04,0.08,0.97,
1.991,-0.40,-1.00,-0.00,-0.04,0.08,0.96,
1.994,-0.40,-1.00,-0.00,-0.04,0.08,0.96,
1.994,-0.37,-1.00,0.00,-0.04,0.08,0.96,
1.996,-0.37,-1.00,0.00,-0.04,0.08,0.96,
1.998,-0.37,-1.00,0.00,-0.04,0.08,0.96,
1.998,-0.35,-1.00,-0.02,-0.04,0.08,0.96,
2.001,-0.35,-1.00,-0.02,-0.04,0.08,0.96,
2.003,-0.35,-1.00,-0.02,-0.04,0.08,0.96,
2.003,-0.36,-1.00,-0.03,-0.04,0.08,0.96,
2.007,-0.36,-1.00,-0.03,-0.04,0.08,0.96,
2.008,-0.36,-1.00,-0.03,-0.04,0.08,0.96,
2.008,-0.35,-0.99,-0.06,-0.04,0.08,0.96,
2.011,-0.35,-0.99,-0.06,-0.04,0.08,0.96,
2.013,-0.35,-0.99,-0.06,-0.04,0.08,0.95,
2.013,-0.36,-0.96,-0.09,-0.04,0.08,0.95,
2.016,-0.36,-0.96,-0.09,-0.04,0.08,0.95,
2.018,-0.33,-0.93,-0.10,-0.04,0.08,0.95,
2.018,-0.33,-0.93,-0.10,-0.04,0.09,0.95,
2.021,-0.33,-0.93,-0.10,-0.04,0.09,0.95,
2.023,-0.33,-0.93,-0.10,-0.04,0.09,0.95,
2.024,-0.31,-0.91,-0.13,-0.04,0.09,0.95,
2.025,-0.31,-0.91,-0.13,-0.04,0.09,0.95,
2.028,-0.31,-0.91,-0.13,-0.04,0.09,0.95,
2.029,-0.31,-0.88,-0.13,-0.04,0.09,0.95,
2.03,-0.31,-0.88,-0.13,-0.04,0.09,0.95,
2.033,-0.31,-0.88,-0.13,-0.04,0.08,0.95,
2.033,-0.32,-0.89,-0.12,-0.04,0.08,0.95,
2.035,-0.32,-0.89,-0.12,-0.03,0.08,0.96,
2.038,-0.32,-0.89,-0.12,-0.04,0.08,0.96,
2.038,-0.29,-0.91,-0.10,-0.04,0.08,0.96,
2.04,-0.29,-0.91,-0.10,-0.03,0.08,0.96,
2.043,-0.29,-0.91,-0.10,-0.03,0.08,0.96,
2.043,-0.28,-0.92,-0.08,-0.03,0.08,0.96,
2.045,-0.28,-0.92,-0.08,-0.03,0.07,0.96,
2.047,-0.28,-0.92,-0.08,-0.03,0.07,0.96,
2.048,-0.27,-0.94,-0.06,-0.03,0.07,0.96,
2.05,-0.27,-0.94,-0.06,-0.03,0.07,0.96,
2.052,-0.27,-0.94,-0.06,-0.03,0.07,0.96,
2.052,-0.28,-0.98,-0.02,-0.03,0.07,0.96,
2.055,-0.28,-0.98,-0.02,-0.03,0.07,0.96,
2.061,-0.28,-0.98,-0.02,-0.03,0.07,0.96,
2.062,-0.27,-1.01,0.00,-0.03,0.07,0.96,
2.062,-0.27,-1.01,0.00,-0.03,0.06,0.96,
2.062,-0.27,-1.01,0.00,-0.03,0.06,0.96,
2.062,-0.27,-1.03,-0.00,-0.03,0.06,0.96,
2.064,-0.27,-1.03,-0.00,-0.03,0.06,0.96,
2.067,-0.27,-1.03,-0.00,-0.03,0.06,0.96,
2.067,-0.27,-1.06,-0.02,-0.03,0.06,0.96,
2.069,-0.27,-1.06,-0.02,-0.03,0.06,0.96,
2.072,-0.27,-1.06,-0.02,-0.03,0.06,0.96,
2.072,-0.26,-1.09,-0.03,-0.03,0.06,0.96,
2.074,-0.26,-1.09,-0.03,-0.03,0.06,0.96,
2.077,-0.26,-1.09,-0.03,-0.03,0.06,0.96,
2.078,-0.27,-1.10,-0.05,-0.03,0.06,0.96,
2.079,-0.27,-1.10,-0.05,-0.03,0.06,0.96,
2.081,-0.27,-1.10,-0.05,-0.03,0.06,0.96,
2.082,-0.23,-1.08,-0.08,-0.03,0.06,0.96,
2.084,-0.23,-1.08,-0.08,-0.03,0.06,0.96,
2.086,-0.23,-1.08,-0.08,-0.03,0.06,0.96,
2.086,-0.25,-1.08,-0.07,-0.03,0.06,0.96,
2.089,-0.25,-1.08,-0.07,-0.03,0.07,0.96,
2.091,-0.25,-1.08,-0.07,-0.03,0.07,0.96,
2.091,-0.24,-1.04,-0.08,-0.03,0.07,0.96,
2.094,-0.24,-1.04,-0.08,-0.03,0.07,0.96,
2.097,-0.24,-1.04,-0.08,-0.03,0.07,0.96,
2.097,-0.23,-1.00,-0.07,-0.03,0.07,0.96,
2.099,-0.23,-1.00,-0.07,-0.03,0.07,0.96,
2.101,-0.23,-1.00,-0.07,-0.03,0.07,0.96,
2.101,-0.22,-0.96,-0.07,-0.03,0.07,0.96,
2.103,-0.22,-0.96,-0.07,-0.03,0.07,0.96,
2.107,-0.22,-0.96,-0.07,-0.03,0.07,0.97,
2.107,-0.21,-0.93,-0.05,-0.03,0.07,0.97,
2.109,-0.21,-0.93,-0.05,-0.03,0.07,0.97,
2.111,-0.21,-0.93,-0.05,-0.03,0.07,0.97,
2.111,-0.22,-0.90,-0.01,-0.03,0.07,0.97,
2.114,-0.22,-0.90,-0.01,-0.04,0.08,0.97,
2.116,-0.22,-0.90,-0.01,-0.04,0.08,0.98,
2.116,-0.23,-0.88,0.06,-0.04,0.08,0.98,
2.118,-0.23,-0.88,0.06,-0.04,0.08,0.98,
2.121,-0.23,-0.88,0.06,-0.04,0.08,0.98,
2.121,-0.28,-0.85,0.11,-0.04,0.08,0.98,
2.123,-0.28,-0.85,0.11,-0.04,0.08,0.98,
2.126,-0.28,-0.85,0.11,-0.04,0.08,0.98,
2.126,-0.30,-0.85,0.15,-0.04,0.08,0.98,
2.128,-0.30,-0.85,0.15,-0.04,0.07,0.98,
2.131,-0.30,-0.85,0.15,-0.04,0.07,0.99,
2.131,-0.29,-0.83,0.17,-0.04,0.07,0.99,
2.133,-0.29,-0.83,0.17,-0.04,0.07,0.98,
2.135,-0.29,-0.83,0.17,-0.04,0.07,0.99,
2.136,-0.28,-0.87,0.20,-0.04,0.07,0.99,
2.138,-0.28,-0.87,0.20,-0.04,0.07,0.99,
2.141,-0.28,-0.87,0.20,-0.03,0.07,0.99,
2.141,-0.27,-0.88,0.20,-0.03,0.07,0.99,
2.143,-0.27,-0.88,0.20,-0.03,0.07,0.99,
2.145,-0.27,-0.88,0.20,-0.03,0.06,0.99,
2.146,-0.24,-0.90,0.21,-0.03,0.06,0.99,
2.148,-0.24,-0.90,0.21,-0.03,0.06,0.99,
2.15,-0.24,-0.90,0.21,-0.03,0.06,0.98,
2.151,-0.20,-0.91,0.21,-0.03,0.06,0.98,
2.153,-0.20,-0.91,0.21,-0.02,0.06,0.98,
2.162,-0.20,-0.91,0.21,-0.02,0.06,0.98,
2.162,-0.17,-0.93,0.18,-0.02,0.06,0.98,
2.162,-0.17,-0.93,0.18,-0.01,0.06,0.98,
2.163,-0.17,-0.93,0.18,-0.02,0.06,0.97,
2.163,-0.11,-0.92,0.14,-0.02,0.06,0.97,
2.163,-0.11,-0.92,0.14,-0.01,0.06,0.97,
2.165,-0.11,-0.92,0.14,-0.01,0.06,0.97,
2.165,-0.06,-0.92,0.08,-0.01,0.06,0.97,
2.167,-0.06,-0.92,0.08,-0.01,0.06,0.97,
2.17,-0.06,-0.92,0.08,-0.01,0.06,0.96,
2.17,-0.05,-0.90,0.03,-0.01,0.06,0.96,
2.172,-0.05,-0.90,0.03,-0.01,0.06,0.96,
2.175,-0.05,-0.90,0.03,-0.01,0.07,0.96,
2.175,-0.03,-0.87,-0.01,-0.01,0.07,0.96,
2.177,-0.03,-0.87,-0.01,-0.01,0.07,0.96,
2.179,-0.03,-0.87,-0.01,-0.01,0.08,0.96,
2.18,-0.02,-0.85,-0.05,-0.01,0.08,0.96,
2.182,-0.02,-0.85,-0.05,-0.01,0.08,0.96,
2.184,-0.02,-0.85,-0.05,-0.01,0.08,0.95,
2.185,-0.02,-0.77,-0.08,-0.01,0.08,0.95,
2.187,-0.02,-0.77,-0.08,-0.02,0.08,0.95,
2.19,-0.02,-0.77,-0.08,-0.02,0.09,0.96,
2.19,-0.06,-0.71,-0.11,-0.02,0.09,0.96,
2.192,-0.06,-0.71,-0.11,-0.02,0.09,0.96,
2.194,-0.06,-0.71,-0.11,-0.02,0.09,0.96,
2.195,-0.08,-0.64,-0.10,-0.02,0.09,0.96,
2.197,-0.08,-0.64,-0.10,-0.02,0.10,0.96,
2.199,-0.08,-0.64,-0.10,-0.02,0.10,0.96,
2.2,-0.11,-0.56,-0.08,-0.02,0.10,0.96,
2.202,-0.11,-0.56,-0.08,-0.03,0.10,0.96,
2.204,-0.11,-0.56,-0.08,-0.03,0.11,0.97,
2.204,-0.14,-0.48,-0.05,-0.03,0.11,0.97,
2.206,-0.14,-0.48,-0.05,-0.03,0.11,0.96,
2.209,-0.14,-0.48,-0.05,-0.03,0.11,0.97,
2.209,-0.19,-0.42,-0.01,-0.03,0.11,0.97,
2.211,-0.19,-0.42,-0.01,-0.04,0.11,0.97,
2.214,-0.19,-0.42,-0.01,-0.04,0.11,0.97,
2.214,-0.22,-0.37,0.00,-0.04,0.11,0.97,
2.217,-0.22,-0.37,0.00,-0.04,0.12,0.97,
2.219,-0.22,-0.37,0.00,-0.04,0.12,0.97,
2.219,-0.27,-0.34,0.02,-0.04,0.12,0.97,
2.221,-0.27,-0.34,0.02,-0.04,0.12,0.97,
2.224,-0.27,-0.34,0.02,-0.04,0.12,0.97,
2.224,-0.31,-0.31,0.03,-0.04,0.12,0.97,
2.226,-0.31,-0.31,0.03,-0.04,0.12,0.97,
2.229,-0.31,-0.31,0.03,-0.05,0.12,0.97,
2.229,-0.33,-0.29,0.04,-0.05,0.12,0.97,
2.231,-0.33,-0.29,0.04,-0.05,0.12,0.97,
2.233,-0.33,-0.29,0.04,-0.04,0.12,0.97,
2.234,-0.34,-0.27,0.04,-0.04,0.12,0.97,
2.236,-0.34,-0.27,0.04,-0.04,0.12,0.97,
2.239,-0.34,-0.27,0.04,-0.04,0.12,0.97,
2.239,-0.33,-0.24,0.06,-0.04,0.12,0.97,
2.241,-0.33,-0.24,0.06,-0.04,0.12,0.97,
2.243,-0.33,-0.24,0.06,-0.04,0.13,0.97,
2.243,-0.28,-0.22,0.05,-0.04,0.13,0.97,
2.246,-0.28,-0.22,0.05,-0.03,0.13,0.97,
2.248,-0.28,-0.22,0.05,-0.03,0.13,0.96,
2.248,-0.25,-0.20,0.03,-0.03,0.13,0.96,
2.251,-0.25,-0.20,0.03,-0.03,0.13,0.96,
2.253,-0.25,-0.20,0.03,-0.02,0.13,0.96,
2.253,-0.18,-0.18,-0.01,-0.02,0.13,0.96,
2.256,-0.18,-0.18,-0.01,-0.02,0.13,0.96,
2.258,-0.18,-0.18,-0.01,-0.01,0.13,0.97,
2.258,-0.11,-0.16,-0.01,-0.01,0.13,0.97,
2.261,-0.11,-0.16,-0.01,-0.01,0.13,0.97,
2.263,-0.11,-0.16,-0.01,-0.01,0.13,0.97,
2.263,-0.04,-0.15,-0.01,-0.01,0.13,0.97,
2.265,-0.04,-0.15,-0.01,-0.01,0.13,0.97,
2.268,-0.04,-0.15,-0.01,-0.00,0.13,0.97,
2.268,0.04,-0.14,0.01,-0.00,0.13,0.97,
2.27,0.04,-0.14,0.01,0.00,0.13,0.97,
2.278,0.04,-0.14,0.01,0.00,0.13,0.98,
2.278,0.08,-0.14,0.06,0.00,0.13,0.98,
2.279,0.08,-0.14,0.06,0.00,0.12,0.98,
2.279,0.08,-0.14,0.06,0.00,0.12,0.98,
2.279,0.14,-0.14,0.09,0.00,0.12,0.98,
2.28,0.14,-0.14,0.09,0.00,0.13,0.98,
2.282,0.14,-0.14,0.09,0.00,0.13,0.99,
2.283,0.16,-0.16,0.14,0.00,0.13,0.99,
2.285,0.16,-0.16,0.14,0.00,0.12,0.99,
2.287,0.16,-0.16,0.14,0.00,0.12,1.00,
2.288,0.15,-0.13,0.19,0.00,0.12,1.00,
2.29,0.15,-0.13,0.19,0.00,0.12,1.00,
2.292,0.15,-0.13,0.19,0.00,0.12,1.00,
2.293,0.15,-0.15,0.26,0.00,0.12,1.00,
2.295,0.15,-0.15,0.26,-0.00,0.12,1.00,
2.297,0.15,-0.15,0.26,-0.00,0.12,1.01,
2.297,0.16,-0.14,0.32,-0.00,0.12,1.01,
2.299,0.16,-0.14,0.32,-0.00,0.13,1.01,
2.302,0.16,-0.14,0.32,-0.01,0.13,1.01,
2.302,0.11,-0.13,0.36,-0.01,0.13,1.01,
2.306,0.11,-0.13,0.36,-0.01,0.13,1.01,
2.307,0.11,-0.13,0.36,-0.01,0.13,1.01,
2.307,0.08,-0.11,0.41,-0.01,0.13,1.01,
2.309,0.08,-0.11,0.41,-0.02,0.13,1.01,
2.312,0.08,-0.11,0.41,-0.02,0.13,1.02,
2.312,0.05,-0.09,0.43,-0.02,0.13,1.02,
2.314,0.05,-0.09,0.43,-0.02,0.13,1.02,
2.317,0.05,-0.09,0.43,-0.02,0.13,1.02,
2.317,-0.01,-0.06,0.46,-0.02,0.13,1.02,
2.319,-0.01,-0.06,0.46,-0.02,0.13,1.03,
2.322,-0.01,-0.06,0.46,-0.03,0.13,1.02,
2.322,-0.05,-0.05,0.51,-0.03,0.13,1.02,
2.324,-0.05,-0.05,0.51,-0.03,0.13,1.02,
2.327,-0.05,-0.05,0.51,-0.03,0.13,1.02,
2.327,-0.10,-0.02,0.53,-0.03,0.13,1.02,
2.329,-0.10,-0.02,0.53,-0.03,0.14,1.02,
2.331,-0.10,-0.02,0.53,-0.03,0.14,1.02,
2.332,-0.12,-0.01,0.52,-0.03,0.14,1.02,
2.334,-0.12,-0.01,0.52,-0.03,0.14,1.02,
2.337,-0.12,-0.01,0.52,-0.03,0.14,1.02,
2.337,-0.12,0.02,0.51,-0.03,0.14,1.02,
2.339,-0.12,0.02,0.51,-0.03,0.14,1.01,
2.341,-0.12,0.02,0.51,-0.03,0.14,1.01,
2.341,-0.13,0.04,0.45,-0.03,0.14,1.01,
2.344,-0.13,0.04,0.45,-0.03,0.14,1.01,
2.346,-0.13,0.04,0.45,-0.03,0.15,1.01,
2.346,-0.13,0.08,0.40,-0.03,0.15,1.01,
2.348,-0.13,0.08,0.40,-0.03,0.15,1.00,
2.351,-0.13,0.08,0.40,-0.03,0.15,1.00,
2.351,-0.11,0.08,0.34,-0.03,0.15,1.00,
2.354,-0.11,0.08,0.34,-0.03,0.15,1.00,
2.356,-0.11,0.08,0.34,-0.03,0.14,1.00,
2.357,-0.07,0.11,0.29,-0.03,0.14,1.00,
2.358,-0.07,0.11,0.29,-0.02,0.14,0.99,
2.361,-0.07,0.11,0.29,-0.02,0.14,0.99,
2.361,-0.06,0.08,0.23,-0.02,0.14,0.99,
2.363,-0.06,0.08,0.23,-0.02,0.14,0.99,
2.366,-0.06,0.08,0.23,-0.02,0.14,0.99,
2.366,-0.01,0.07,0.20,-0.02,0.14,0.99,
2.368,-0.01,0.07,0.20,-0.01,0.14,0.99,
2.378,-0.01,0.07,0.20,-0.01,0.14,0.99,
2.378,0.03,0.05,0.17,-0.01,0.14,0.99,
2.379,0.03,0.05,0.17,-0.01,0.14,0.99,
2.379,0.03,0.05,0.17,-0.00,0.14,0.99,
2.379,0.07,0.03,0.16,-0.00,0.14,0.99,
2.38,0.07,0.03,0.16,-0.00,0.14,0.99,
2.38,0.07,0.03,0.16,0.00,0.13,0.99,
2.381,0.13,0.01,0.14,0.00,0.13,0.99,
2.383,0.13,0.01,0.14,0.01,0.13,0.99,
2.385,0.13,0.01,0.14,0.01,0.13,0.99,
2.385,0.19,-0.01,0.14,0.01,0.13,0.99,
2.39,0.19,-0.01,0.14,0.01,0.13,0.98,
2.39,0.19,-0.01,0.14,0.01,0.13,0.98,
2.39,0.24,-0.02,0.13,0.01,0.13,0.98,
2.393,0.24,-0.02,0.13,0.01,0.13,0.99,
2.395,0.24,-0.02,0.13,0.02,0.13,0.99,
2.395,0.28,-0.06,0.11,0.02,0.13,0.99,
2.397,0.28,-0.06,0.11,0.01,0.13,0.99,
2.4,0.28,-0.06,0.11,0.01,0.12,0.99,
2.4,0.32,-0.08,0.14,0.01,0.12,0.99,
2.402,0.32,-0.08,0.14,0.01,0.12,0.99,
2.405,0.32,-0.08,0.14,0.01,0.12,0.99,
2.406,0.31,-0.09,0.15,0.01,0.12,0.99,
2.407,0.31,-0.09,0.15,0.01,0.12,0.99,
2.41,0.31,-0.09,0.15,0.01,0.12,0.99,
2.41,0.32,-0.12,0.15,0.01,0.12,0.99,
2.412,0.32,-0.12,0.15,0.01,0.12,0.99,
2.414,0.32,-0.12,0.15,0.01,0.12,0.99,
2.414,0.30,-0.12,0.15,0.01,0.12,0.99,
2.417,0.30,-0.12,0.15,0.01,0.12,0.99,
2.419,0.30,-0.12,0.15,0.01,0.12,0.99,
2.419,0.30,-0.11,0.15,0.01,0.12,0.99,
2.422,0.30,-0.11,0.15,0.01,0.12,0.98,
2.424,0.30,-0.11,0.15,0.01,0.13,0.98,
2.425,0.29,-0.11,0.11,0.01,0.13,0.98,
2.427,0.29,-0.11,0.11,0.01,0.13,0.98,
2.429,0.29,-0.11,0.11,0.01,0.13,0.98,
2.429,0.28,-0.07,0.08,0.01,0.13,0.98,
2.432,0.28,-0.07,0.08,0.01,0.13,0.98,
2.434,0.28,-0.07,0.08,0.01,0.13,0.98,
2.434,0.26,-0.04,0.06,0.01,0.13,0.98,
2.437,0.26,-0.04,0.06,0.01,0.13,0.98,
2.439,0.26,-0.04,0.06,0.01,0.14,0.97,
2.44,0.24,-0.02,0.04,0.01,0.14,0.97,
2.442,0.24,-0.02,0.04,0.00,0.14,0.97,
2.444,0.24,-0.02,0.04,0.00,0.14,0.97,
2.444,0.26,0.02,-0.00,0.00,0.14,0.97,
2.446,0.26,0.02,-0.00,0.01,0.14,0.97,
2.449,0.22,0.06,-0.03,0.01,0.14,0.97,
2.449,0.22,0.06,-0.03,0.00,0.14,0.96,
2.451,0.22,0.06,-0.03,-0.01,0.15,0.92,
2.461,0.22,0.06,-0.03,-0.02,0.15,0.85,
2.462,0.22,0.10,-0.07,-0.02,0.15,0.85,
2.462,0.22,0.10,-0.07,-0.02,0.16,0.81,
2.462,0.22,0.10,-0.07,-0.02,0.16,0.81,
2.462,0.08,0.14,-0.87,-0.02,0.16,0.81,
2.463,0.08,0.14,-0.87,-0.01,0.17,0.84,
2.463,0.08,0.14,-0.87,-0.01,0.18,0.87,
2.464,0.00,0.27,-1.55,-0.01,0.18,0.87,
2.466,0.00,0.27,-1.55,-0.01,0.18,0.89,
2.468,0.00,0.27,-1.55,-0.02,0.18,0.90,
2.469,0.09,0.42,-1.15,-0.02,0.18,0.90,
2.473,0.09,0.42,-1.15,-0.02,0.17,0.90,
2.474,0.09,0.42,-1.15,-0.03,0.17,0.91,
2.474,0.07,0.44,-0.79,-0.03,0.17,0.91,
2.475,0.07,0.44,-0.79,-0.03,0.16,0.92,
2.478,0.07,0.44,-0.79,-0.03,0.16,0.93,
2.478,-0.00,0.38,-0.66,-0.03,0.16,0.93,
2.481,-0.00,0.38,-0.66,-0.03,0.15,0.94,
2.483,-0.00,0.38,-0.66,-0.04,0.14,0.96,
2.483,-0.07,0.27,-0.46,-0.04,0.14,0.96,
2.486,-0.07,0.27,-0.46,-0.04,0.14,0.97,
2.489,-0.07,0.27,-0.46,-0.03,0.13,0.99,
2.489,-0.11,0.16,-0.17,-0.03,0.13,0.99,
2.491,-0.11,0.16,-0.17,-0.03,0.13,1.00,
2.493,-0.11,0.16,-0.17,-0.03,0.13,1.01,
2.494,-0.11,0.06,0.11,-0.03,0.13,1.01,
2.495,-0.11,0.06,0.11,-0.03,0.13,1.02,
2.498,-0.11,0.06,0.11,-0.03,0.12,1.03,
2.498,-0.04,0.01,0.35,-0.03,0.12,1.03,
2.5,-0.04,0.01,0.35,-0.03,0.12,1.03,
2.503,-0.04,0.01,0.35,-0.03,0.12,1.03,
2.503,-0.01,-0.02,0.55,-0.03,0.12,1.03,
2.505,-0.01,-0.02,0.55,-0.03,0.12,1.04,
2.508,-0.01,-0.02,0.55,-0.03,0.13,1.03,
2.508,-0.02,-0.03,0.61,-0.03,0.13,1.03,
2.51,-0.02,-0.03,0.61,-0.03,0.13,1.03,
2.514,-0.02,-0.03,0.61,-0.03,0.13,1.03,
2.514,-0.02,-0.02,0.61,-0.03,0.13,1.03,
2.515,-0.02,-0.02,0.61,-0.03,0.13,1.02,
2.517,-0.02,-0.02,0.61,-0.03,0.13,1.01,
2.517,-0.03,0.01,0.54,-0.03,0.13,1.01,
2.52,-0.03,0.01,0.54,-0.03,0.13,1.01,
2.531,-0.03,0.01,0.54,-0.02,0.13,1.00,
2.532,-0.00,0.04,0.43,-0.02,0.13,1.00,
2.532,-0.00,0.04,0.43,-0.02,0.14,1.00,
2.532,-0.00,0.04,0.43,-0.02,0.14,0.99,
2.532,0.02,0.06,0.31,-0.02,0.14,0.99,
2.532,0.02,0.06,0.31,-0.02,0.14,0.99,
2.533,0.02,0.06,0.31,-0.02,0.14,0.99,
2.534,0.06,0.08,0.21,-0.02,0.14,0.99,
2.535,0.06,0.08,0.21,-0.02,0.14,0.98,
2.538,0.06,0.08,0.21,-0.02,0.14,0.98,
2.538,0.08,0.09,0.13,-0.02,0.14,0.98,
