
time,ax,ay,az,gFx,gFy,gFz,
0.002,-0.02,0.07,-0.10,-0.02,0.09,0.97,
0.002,-0.02,0.07,-0.10,-0.03,0.09,0.98,
0.002,-0.06,0.04,-0.10,-0.03,0.09,0.98,
0.003,-0.06,0.04,-0.10,-0.03,0.09,0.98,
0.006,-0.06,0.04,-0.10,-0.03,0.09,0.98,
0.006,-0.08,0.02,-0.06,-0.03,0.09,0.98,
0.009,-0.08,0.02,-0.06,-0.02,0.09,0.98,
0.011,-0.08,0.02,-0.06,-0.02,0.09,0.98,
0.011,-0.10,0.03,-0.01,-0.02,0.09,0.98,
0.013,-0.10,0.03,-0.01,-0.02,0.10,0.99,
0.015,-0.10,0.03,-0.01,-0.02,0.10,0.99,
0.016,-0.08,0.04,0.03,-0.02,0.10,0.99,
0.017,-0.08,0.04,0.03,-0.03,0.10,0.99,
0.02,-0.08,0.04,0.03,-0.03,0.10,1.00,
0.02,-0.08,0.07,0.08,-0.03,0.10,1.00,
0.023,-0.08,0.07,0.08,-0.03,0.10,1.00,
0.027,-0.08,0.07,0.08,-0.03,0.10,1.01,
0.028,-0.11,0.09,0.16,-0.03,0.10,1.01,
0.028,-0.11,0.09,0.16,-0.03,0.11,1.01,
0.031,-0.11,0.09,0.16,-0.04,0.11,1.01,
0.031,-0.14,0.12,0.23,-0.04,0.11,1.01,
0.033,-0.14,0.12,0.23,-0.04,0.11,1.01,
0.035,-0.14,0.12,0.23,-0.04,0.11,1.01,
0.035,-0.19,0.15,0.28,-0.04,0.11,1.01,
0.037,-0.19,0.15,0.28,-0.04,0.11,1.02,
0.04,-0.19,0.15,0.28,-0.04,0.11,1.02,
0.04,-0.22,0.16,0.31,-0.04,0.11,1.02,
0.042,-0.22,0.16,0.31,-0.03,0.11,1.02,
0.045,-0.22,0.16,0.31,-0.03,0.11,1.02,
0.045,-0.21,0.15,0.34,-0.03,0.11,1.02,
0.047,-0.21,0.15,0.34,-0.03,0.11,1.02,
0.05,-0.21,0.15,0.34,-0.03,0.11,1.02,
0.05,-0.20,0.16,0.37,-0.03,0.11,1.02,
0.052,-0.20,0.16,0.37,-0.03,0.12,1.02,
0.054,-0.20,0.16,0.37,-0.03,0.12,1.02,
0.055,-0.17,0.15,0.39,-0.03,0.12,1.02,
0.057,-0.17,0.15,0.39,-0.03,0.12,1.01,
0.06,-0.17,0.15,0.39,-0.03,0.12,1.01,
0.06,-0.16,0.19,0.34,-0.03,0.12,1.01,
0.062,-0.16,0.19,0.34,-0.03,0.12,1.01,
0.064,-0.16,0.19,0.34,-0.02,0.12,1.01,
0.064,-0.15,0.20,0.30,-0.02,0.12,1.01,
0.067,-0.15,0.20,0.30,-0.02,0.12,1.00,
0.069,-0.15,0.20,0.30,-0.02,0.12,1.00,
0.069,-0.12,0.19,0.24,-0.02,0.12,1.00,
0.071,-0.12,0.19,0.24,-0.02,0.12,0.99,
0.075,-0.12,0.19,0.24,-0.02,0.12,0.99,
0.075,-0.11,0.20,0.18,-0.02,0.12,0.99,
0.076,-0.11,0.20,0.18,-0.03,0.12,0.98,
0.079,-0.11,0.20,0.18,-0.02,0.12,0.98,
0.079,-0.09,0.16,0.07,-0.02,0.12,0.98,
0.081,-0.09,0.16,0.07,-0.03,0.12,0.97,
0.084,-0.09,0.16,0.07,-0.03,0.12,0.96,
0.085,-0.11,0.15,-0.05,-0.03,0.12,0.96,
0.086,-0.11,0.15,-0.05,-0.03,0.12,0.96,
0.089,-0.11,0.15,-0.05,-0.03,0.12,0.96,
0.089,-0.14,0.12,-0.15,-0.03,0.12,0.96,
0.091,-0.14,0.12,-0.15,-0.04,0.12,0.96,
0.094,-0.14,0.12,-0.15,-0.04,0.12,0.96,
0.094,-0.18,0.11,-0.22,-0.04,0.12,0.96,
0.096,-0.18,0.11,-0.22,-0.04,0.12,0.95,
0.098,-0.18,0.11,-0.22,-0.04,0.12,0.95,
0.099,-0.23,0.12,-0.24,-0.04,0.12,0.95,
0.101,-0.23,0.12,-0.24,-0.04,0.12,0.95,
0.103,-0.23,0.12,-0.24,-0.05,0.12,0.95,
0.104,-0.28,0.14,-0.30,-0.05,0.12,0.95,
0.106,-0.28,0.14,-0.30,-0.05,0.12,0.94,
0.114,-0.28,0.14,-0.30,-0.05,0.13,0.94,
0.115,-0.30,0.15,-0.34,-0.05,0.13,0.94,
0.115,-0.30,0.15,-0.34,-0.05,0.13,0.94,
0.115,-0.30,0.15,-0.34,-0.05,0.13,0.94,
0.115,-0.31,0.15,-0.37,-0.05,0.13,0.94,
0.115,-0.31,0.15,-0.37,-0.05,0.13,0.94,
0.118,-0.31,0.15,-0.37,-0.05,0.13,0.94,
0.119,-0.33,0.16,-0.37,-0.05,0.13,0.94,
0.12,-0.33,0.16,-0.37,-0.05,0.13,0.94,
0.123,-0.33,0.16,-0.37,-0.05,0.13,0.94,
0.123,-0.35,0.17,-0.35,-0.05,0.13,0.94,
0.125,-0.35,0.17,-0.35,-0.06,0.13,0.94,
0.128,-0.35,0.17,-0.35,-0.06,0.13,0.95,
0.128,-0.37,0.17,-0.35,-0.06,0.13,0.95,
0.13,-0.37,0.17,-0.35,-0.06,0.12,0.95,
0.133,-0.37,0.17,-0.35,-0.06,0.13,0.95,
0.133,-0.40,0.17,-0.34,-0.06,0.13,0.95,
0.135,-0.40,0.17,-0.34,-0.07,0.13,0.95,
0.138,-0.40,0.17,-0.34,-0.07,0.13,0.95,
0.138,-0.45,0.15,-0.31,-0.07,0.13,0.95,
0.14,-0.45,0.15,-0.31,-0.07,0.13,0.95,
0.143,-0.45,0.15,-0.31,-0.08,0.12,0.95,
0.143,-0.50,0.16,-0.30,-0.08,0.12,0.95,
0.145,-0.50,0.16,-0.30,-0.08,0.13,0.95,
0.147,-0.50,0.16,-0.30,-0.08,0.13,0.95,
0.148,-0.55,0.16,-0.28,-0.08,0.13,0.95,
0.15,-0.55,0.16,-0.28,-0.08,0.13,0.95,
0.152,-0.55,0.16,-0.28,-0.08,0.12,0.95,
0.153,-0.57,0.17,-0.27,-0.08,0.12,0.95,
0.155,-0.57,0.17,-0.27,-0.08,0.12,0.95,
0.157,-0.57,0.17,-0.27,-0.08,0.12,0.95,
0.158,-0.59,0.15,-0.25,-0.08,0.12,0.95,
0.16,-0.59,0.15,-0.25,-0.08,0.12,0.96,
0.162,-0.59,0.15,-0.25,-0.08,0.11,0.96,
0.163,-0.62,0.11,-0.24,-0.08,0.11,0.96,
0.164,-0.62,0.11,-0.24,-0.08,0.11,0.96,
0.167,-0.62,0.11,-0.24,-0.09,0.11,0.97,
0.167,-0.62,0.07,-0.19,-0.09,0.11,0.97,
0.17,-0.62,0.07,-0.19,-0.09,0.11,0.96,
0.172,-0.62,0.07,-0.19,-0.09,0.11,0.97,
0.172,-0.63,0.06,-0.13,-0.09,0.11,0.97,
0.175,-0.63,0.06,-0.13,-0.09,0.11,0.97,
0.177,-0.63,0.06,-0.13,-0.09,0.10,0.97,
0.177,-0.64,0.03,-0.12,-0.09,0.10,0.97,
0.179,-0.64,0.03,-0.12,-0.08,0.10,0.97,
0.182,-0.64,0.03,-0.12,-0.08,0.10,0.97,
0.182,-0.62,0.01,-0.09,-0.08,0.10,0.97,
0.184,-0.62,0.01,-0.09,-0.08,0.10,0.97,
0.187,-0.62,0.01,-0.09,-0.08,0.10,0.97,
0.187,-0.58,-0.02,-0.06,-0.08,0.10,0.97,
0.189,-0.58,-0.02,-0.06,-0.08,0.10,0.98,
0.192,-0.58,-0.02,-0.06,-0.08,0.10,0.98,
0.192,-0.54,-0.03,-0.03,-0.08,0.10,0.98,
0.194,-0.54,-0.03,-0.03,-0.07,0.10,0.98,
0.197,-0.52,-0.06,-0.01,-0.07,0.10,0.98,
0.197,-0.52,-0.06,-0.01,-0.07,0.10,0.98,
0.199,-0.52,-0.06,-0.01,-0.07,0.09,0.98,
0.201,-0.52,-0.06,-0.01,-0.07,0.09,0.98,
0.201,-0.49,-0.07,0.02,-0.07,0.09,0.98,
0.204,-0.49,-0.07,0.02,-0.07,0.09,0.99,
0.206,-0.49,-0.07,0.02,-0.07,0.09,0.99,
0.206,-0.47,-0.07,0.04,-0.07,0.09,0.99,
0.215,-0.47,-0.07,0.04,-0.07,0.10,0.99,
0.216,-0.47,-0.07,0.04,-0.07,0.10,0.99,
0.216,-0.46,-0.07,0.08,-0.07,0.10,0.99,
0.216,-0.46,-0.07,0.08,-0.07,0.09,0.99,
0.216,-0.46,-0.07,0.08,-0.06,0.09,0.99,
0.216,-0.44,-0.05,0.12,-0.06,0.09,0.99,
0.218,-0.44,-0.05,0.12,-0.06,0.10,0.99,
0.221,-0.44,-0.05,0.12,-0.06,0.10,0.99,
0.221,-0.40,-0.06,0.14,-0.06,0.10,0.99,
0.223,-0.40,-0.06,0.14,-0.06,0.10,1.00,
0.226,-0.40,-0.06,0.14,-0.06,0.10,1.00,
0.226,-0.38,-0.04,0.15,-0.06,0.10,1.00,
0.228,-0.38,-0.04,0.15,-0.06,0.09,0.99,
0.231,-0.36,-0.03,0.16,-0.06,0.09,0.99,
0.231,-0.36,-0.03,0.16,-0.06,0.09,0.99,
0.233,-0.36,-0.03,0.16,-0.05,0.09,0.99,
0.236,-0.36,-0.03,0.16,-0.05,0.09,0.99,
0.236,-0.33,-0.05,0.14,-0.05,0.09,0.99,
0.238,-0.33,-0.05,0.14,-0.05,0.09,0.99,
0.24,-0.33,-0.05,0.14,-0.05,0.09,0.99,
0.241,-0.30,-0.06,0.13,-0.05,0.09,0.99,
0.243,-0.30,-0.06,0.13,-0.05,0.09,0.99,
0.245,-0.30,-0.06,0.13,-0.04,0.09,0.98,
0.245,-0.27,-0.08,0.11,-0.04,0.09,0.98,
0.248,-0.27,-0.08,0.11,-0.04,0.08,0.98,
0.25,-0.27,-0.08,0.11,-0.04,0.08,0.98,
0.25,-0.23,-0.10,0.06,-0.04,0.08,0.98,
0.253,-0.23,-0.10,0.06,-0.04,0.08,0.98,
0.255,-0.23,-0.10,0.06,-0.03,0.08,0.98,
0.256,-0.17,-0.13,0.02,-0.03,0.08,0.98,
0.258,-0.17,-0.13,0.02,-0.03,0.08,0.98,
0.26,-0.17,-0.13,0.02,-0.03,0.08,0.98,
0.261,-0.14,-0.12,-0.01,-0.03,0.08,0.98,
0.263,-0.14,-0.12,-0.01,-0.03,0.08,0.98,
0.265,-0.14,-0.12,-0.01,-0.03,0.08,0.98,
0.265,-0.12,-0.15,-0.04,-0.03,0.08,0.98,
0.267,-0.12,-0.15,-0.04,-0.03,0.08,0.98,
0.27,-0.12,-0.15,-0.04,-0.03,0.07,0.98,
0.27,-0.09,-0.19,-0.04,-0.03,0.07,0.98,
0.272,-0.09,-0.19,-0.04,-0.03,0.07,0.98,
0.275,-0.09,-0.19,-0.04,-0.03,0.07,0.98,
0.275,-0.06,-0.21,-0.03,-0.03,0.07,0.98,
0.277,-0.06,-0.21,-0.03,-0.03,0.07,0.98,
0.28,-0.06,-0.21,-0.03,-0.03,0.07,0.98,
0.28,-0.08,-0.24,-0.03,-0.03,0.07,0.98,
0.282,-0.08,-0.24,-0.03,-0.03,0.07,0.99,
0.284,-0.08,-0.24,-0.03,-0.03,0.07,0.99,
0.285,-0.09,-0.27,0.03,-0.03,0.07,0.99,
0.287,-0.09,-0.27,0.03,-0.03,0.06,0.99,
0.294,-0.09,-0.27,0.03,-0.03,0.06,1.00,
0.294,-0.10,-0.29,0.08,-0.03,0.06,1.00,
0.294,-0.10,-0.29,0.08,-0.03,0.06,1.00,
0.294,-0.10,-0.29,0.08,-0.03,0.06,1.00,
0.295,-0.11,-0.31,0.13,-0.03,0.06,1.00,
0.297,-0.11,-0.31,0.13,-0.03,0.06,1.00,
0.299,-0.11,-0.31,0.13,-0.03,0.06,1.01,
0.299,-0.12,-0.32,0.20,-0.03,0.06,1.01,
0.302,-0.12,-0.32,0.20,-0.03,0.07,1.01,
0.304,-0.12,-0.32,0.20,-0.03,0.07,1.01,
0.304,-0.11,-0.31,0.24,-0.03,0.07,1.01,
0.307,-0.11,-0.31,0.24,-0.03,0.07,1.01,
0.309,-0.11,-0.31,0.24,-0.03,0.07,1.01,
0.309,-0.10,-0.29,0.30,-0.03,0.07,1.01,
0.311,-0.10,-0.29,0.30,-0.03,0.07,1.02,
0.314,-0.10,-0.29,0.30,-0.03,0.07,1.02,
0.314,-0.11,-0.27,0.32,-0.03,0.07,1.02,
0.316,-0.11,-0.27,0.32,-0.04,0.07,1.01,
0.319,-0.11,-0.27,0.32,-0.04,0.07,1.01,
0.319,-0.10,-0.25,0.34,-0.04,0.07,1.01,
0.321,-0.10,-0.25,0.34,-0.04,0.07,1.01,
0.324,-0.10,-0.25,0.34,-0.04,0.07,1.01,
0.325,-0.14,-0.24,0.33,-0.04,0.07,1.01,
0.326,-0.14,-0.24,0.33,-0.04,0.07,1.01,
0.329,-0.14,-0.24,0.33,-0.04,0.07,1.01,
0.329,-0.15,-0.26,0.31,-0.04,0.07,1.01,
0.331,-0.15,-0.26,0.31,-0.04,0.07,1.01,
0.333,-0.15,-0.26,0.31,-0.04,0.07,1.00,
0.334,-0.17,-0.25,0.25,-0.04,0.07,1.00,
0.336,-0.17,-0.25,0.25,-0.04,0.07,1.00,
0.338,-0.17,-0.25,0.25,-0.04,0.07,0.99,
0.339,-0.17,-0.25,0.22,-0.04,0.07,0.99,
0.341,-0.17,-0.25,0.22,-0.04,0.07,0.99,
0.344,-0.17,-0.25,0.22,-0.05,0.07,0.99,
0.344,-0.18,-0.25,0.15,-0.05,0.07,0.99,
0.346,-0.18,-0.25,0.15,-0.05,0.07,0.99,
0.348,-0.18,-0.25,0.15,-0.05,0.07,0.98,
0.349,-0.20,-0.26,0.10,-0.05,0.07,0.98,
0.351,-0.20,-0.26,0.10,-0.05,0.07,0.98,
0.353,-0.20,-0.26,0.10,-0.05,0.07,0.97,
0.355,-0.22,-0.26,0.02,-0.05,0.07,0.97,
0.355,-0.22,-0.26,0.02,-0.05,0.07,0.97,
0.358,-0.22,-0.26,0.02,-0.05,0.07,0.97,
0.358,-0.24,-0.28,-0.05,-0.05,0.07,0.97,
0.36,-0.24,-0.28,-0.05,-0.05,0.07,0.97,
0.363,-0.24,-0.28,-0.05,-0.05,0.07,0.96,
0.363,-0.26,-0.29,-0.08,-0.05,0.07,0.96,
0.365,-0.26,-0.29,-0.08,-0.05,0.07,0.97,
0.368,-0.26,-0.29,-0.08,-0.05,0.07,0.96,
0.368,-0.26,-0.27,-0.15,-0.05,0.07,0.96,
0.37,-0.26,-0.27,-0.15,-0.05,0.08,0.96,
0.373,-0.26,-0.27,-0.15,-0.05,0.08,0.96,
0.373,-0.25,-0.26,-0.16,-0.05,0.08,0.96,
0.375,-0.25,-0.26,-0.16,-0.06,0.08,0.96,
0.379,-0.25,-0.26,-0.16,-0.06,0.08,0.96,
0.379,-0.26,-0.25,-0.17,-0.06,0.08,0.96,
0.38,-0.26,-0.25,-0.17,-0.05,0.08,0.96,
0.382,-0.26,-0.25,-0.17,-0.05,0.08,0.96,
0.382,-0.27,-0.23,-0.18,-0.05,0.08,0.96,
0.385,-0.27,-0.23,-0.18,-0.06,0.09,0.96,
0.387,-0.27,-0.23,-0.18,-0.05,0.09,0.96,
0.387,-0.25,-0.19,-0.18,-0.05,0.09,0.96,
0.392,-0.25,-0.19,-0.18,-0.05,0.09,0.96,
0.392,-0.25,-0.19,-0.18,-0.05,0.09,0.96,
0.393,-0.25,-0.17,-0.15,-0.05,0.09,0.96,
0.395,-0.25,-0.17,-0.15,-0.05,0.09,0.96,
0.397,-0.25,-0.17,-0.15,-0.05,0.09,0.96,
0.397,-0.23,-0.16,-0.17,-0.05,0.09,0.96,
0.399,-0.23,-0.16,-0.17,-0.05,0.09,0.96,
0.402,-0.23,-0.16,-0.17,-0.05,0.09,0.97,
0.402,-0.21,-0.12,-0.16,-0.05,0.09,0.97,
0.404,-0.21,-0.12,-0.16,-0.05,0.09,0.97,
0.407,-0.21,-0.12,-0.16,-0.05,0.09,0.97,
0.407,-0.19,-0.13,-0.14,-0.05,0.09,0.97,
0.409,-0.19,-0.13,-0.14,-0.05,0.09,0.97,
0.412,-0.19,-0.13,-0.14,-0.05,0.09,0.97,
0.412,-0.17,-0.11,-0.10,-0.05,0.09,0.97,
0.414,-0.17,-0.11,-0.10,-0.05,0.09,0.97,
0.417,-0.17,-0.11,-0.10,-0.05,0.09,0.97,
0.417,-0.15,-0.14,-0.11,-0.05,0.09,0.97,
0.419,-0.15,-0.14,-0.11,-0.05,0.09,0.97,
0.422,-0.15,-0.14,-0.11,-0.05,0.08,0.97,
0.422,-0.14,-0.16,-0.11,-0.05,0.08,0.97,
0.424,-0.14,-0.16,-0.11,-0.05,0.08,0.97,
0.427,-0.14,-0.16,-0.11,-0.05,0.08,0.97,
0.427,-0.13,-0.20,-0.11,-0.05,0.08,0.97,
0.429,-0.13,-0.20,-0.11,-0.05,0.08,0.97,
0.431,-0.13,-0.20,-0.11,-0.05,0.08,0.97,
0.432,-0.14,-0.22,-0.10,-0.05,0.08,0.97,
0.434,-0.14,-0.22,-0.10,-0.06,0.08,0.97,
0.436,-0.14,-0.22,-0.10,-0.06,0.08,0.97,
0.436,-0.16,-0.25,-0.11,-0.06,0.08,0.97,
0.439,-0.16,-0.25,-0.11,-0.06,0.08,0.96,
0.441,-0.16,-0.25,-0.11,-0.06,0.08,0.96,
0.441,-0.18,-0.27,-0.11,-0.06,0.08,0.96,
0.444,-0.18,-0.27,-0.11,-0.06,0.08,0.96,
0.446,-0.19,-0.27,-0.14,-0.06,0.08,0.96,
0.446,-0.19,-0.27,-0.14,-0.06,0.08,0.96,
0.448,-0.19,-0.27,-0.14,-0.06,0.08,0.96,
0.451,-0.19,-0.27,-0.14,-0.06,0.08,0.96,
0.451,-0.19,-0.26,-0.15,-0.06,0.08,0.96,
0.453,-0.19,-0.26,-0.15,-0.06,0.08,0.96,
0.456,-0.19,-0.26,-0.15,-0.06,0.08,0.96,
0.456,-0.19,-0.23,-0.17,-0.06,0.08,0.96,
0.459,-0.19,-0.23,-0.17,-0.06,0.09,0.95,
0.461,-0.19,-0.23,-0.17,-0.06,0.09,0.95,
0.462,-0.19,-0.23,-0.19,-0.06,0.09,0.95,
0.463,-0.19,-0.23,-0.19,-0.06,0.09,0.95,
0.466,-0.19,-0.23,-0.19,-0.06,0.09,0.95,
0.466,-0.20,-0.18,-0.23,-0.06,0.09,0.95,
0.468,-0.20,-0.18,-0.23,-0.06,0.09,0.95,
0.471,-0.20,-0.18,-0.23,-0.06,0.10,0.95,
0.471,-0.20,-0.14,-0.24,-0.06,0.10,0.95,
0.473,-0.20,-0.14,-0.24,-0.06,0.10,0.95,
0.476,-0.20,-0.14,-0.24,-0.07,0.10,0.95,
0.476,-0.21,-0.10,-0.25,-0.07,0.10,0.95,
0.478,-0.21,-0.10,-0.25,-0.07,0.10,0.95,
0.48,-0.21,-0.10,-0.25,-0.07,0.11,0.95,
0.481,-0.21,-0.05,-0.24,-0.07,0.11,0.95,
0.483,-0.21,-0.05,-0.24,-0.07,0.11,0.96,
0.485,-0.21,-0.05,-0.24,-0.06,0.11,0.96,
0.485,-0.21,-0.02,-0.23,-0.06,0.11,0.96,
0.488,-0.21,-0.02,-0.23,-0.06,0.11,0.96,
0.491,-0.21,-0.02,-0.23,-0.06,0.11,0.96,
0.491,-0.20,-0.00,-0.19,-0.06,0.11,0.96,
0.493,-0.20,-0.00,-0.19,-0.06,0.11,0.96,
0.495,-0.20,-0.00,-0.19,-0.06,0.11,0.97,
0.496,-0.16,-0.01,-0.14,-0.06,0.11,0.97,
0.497,-0.16,-0.01,-0.14,-0.06,0.10,0.97,
0.5,-0.16,-0.01,-0.14,-0.06,0.10,0.97,
0.5,-0.13,-0.02,-0.10,-0.06,0.10,0.97,
0.503,-0.13,-0.02,-0.10,-0.06,0.10,0.97,
0.505,-0.13,-0.02,-0.10,-0.06,0.10,0.97,
0.505,-0.11,-0.05,-0.05,-0.06,0.10,0.97,
0.513,-0.11,-0.05,-0.05,-0.06,0.10,0.97,
0.514,-0.11,-0.05,-0.05,-0.06,0.09,0.97,
0.514,-0.08,-0.07,-0.02,-0.06,0.09,0.97,
0.515,-0.08,-0.07,-0.02,-0.06,0.09,0.97,
0.515,-0.08,-0.07,-0.02,-0.06,0.09,0.97,
0.516,-0.06,-0.12,-0.00,-0.06,0.09,0.97,
0.518,-0.06,-0.12,-0.00,-0.05,0.09,0.97,
0.52,-0.06,-0.12,-0.00,-0.05,0.09,0.98,
0.52,-0.05,-0.16,-0.01,-0.05,0.09,0.98,
0.522,-0.05,-0.16,-0.01,-0.05,0.08,0.98,
0.526,-0.05,-0.16,-0.01,-0.05,0.08,0.97,
0.527,-0.02,-0.20,-0.00,-0.05,0.08,0.97,
0.527,-0.02,-0.20,-0.00,-0.05,0.08,0.97,
0.53,-0.02,-0.20,-0.00,-0.05,0.08,0.97,
0.53,0.02,-0.24,-0.01,-0.05,0.08,0.97,
0.532,0.02,-0.24,-0.01,-0.05,0.08,0.97,
0.534,0.02,-0.24,-0.01,-0.05,0.08,0.96,
0.534,0.05,-0.24,-0.04,-0.05,0.08,0.96,
0.537,0.05,-0.24,-0.04,-0.04,0.08,0.96,
0.539,0.05,-0.24,-0.04,-0.04,0.08,0.96,
0.54,0.07,-0.25,-0.09,-0.04,0.08,0.96,
0.542,0.07,-0.25,-0.09,-0.04,0.08,0.96,
0.545,0.07,-0.25,-0.09,-0.04,0.08,0.96,
0.545,0.10,-0.25,-0.13,-0.04,0.08,0.96,
0.547,0.10,-0.25,-0.13,-0.04,0.08,0.96,
0.549,0.10,-0.25,-0.13,-0.04,0.09,0.95,
0.549,0.13,-0.26,-0.16,-0.04,0.09,0.95,
0.551,0.13,-0.26,-0.16,-0.04,0.09,0.95,
0.554,0.13,-0.26,-0.16,-0.04,0.09,0.95,
0.554,0.15,-0.24,-0.19,-0.04,0.09,0.95,
0.556,0.15,-0.24,-0.19,-0.04,0.09,0.95,
0.559,0.15,-0.24,-0.19,-0.04,0.09,0.95,
0.56,0.15,-0.22,-0.23,-0.04,0.09,0.95,
0.561,0.15,-0.22,-0.23,-0.04,0.09,0.95,
0.564,0.15,-0.22,-0.23,-0.04,0.09,0.95,
0.564,0.15,-0.22,-0.25,-0.04,0.09,0.95,
0.566,0.15,-0.22,-0.25,-0.04,0.09,0.95,
0.569,0.15,-0.22,-0.25,-0.04,0.09,0.95,
0.569,0.15,-0.19,-0.27,-0.04,0.09,0.95,
0.571,0.15,-0.19,-0.27,-0.04,0.09,0.95,
0.574,0.15,-0.19,-0.27,-0.04,0.09,0.95,
0.574,0.15,-0.19,-0.26,-0.04,0.09,0.95,
0.576,0.15,-0.19,-0.26,-0.04,0.09,0.95,
0.578,0.15,-0.19,-0.26,-0.04,0.09,0.95,
0.579,0.18,-0.19,-0.25,-0.04,0.09,0.95,
0.581,0.18,-0.19,-0.25,-0.04,0.09,0.95,
0.583,0.18,-0.19,-0.25,-0.04,0.09,0.96,
0.584,0.19,-0.19,-0.22,-0.04,0.09,0.96,
0.586,0.19,-0.19,-0.22,-0.04,0.09,0.96,
0.588,0.19,-0.19,-0.22,-0.03,0.09,0.96,
0.589,0.24,-0.22,-0.18,-0.03,0.09,0.96,
0.596,0.24,-0.22,-0.18,-0.03,0.09,0.96,
0.596,0.24,-0.22,-0.18,-0.03,0.08,0.97,
0.597,0.29,-0.21,-0.14,-0.03,0.08,0.97,
0.597,0.29,-0.21,-0.14,-0.03,0.08,0.97,
0.598,0.29,-0.21,-0.14,-0.03,0.08,0.97,
0.599,0.30,-0.24,-0.07,-0.03,0.08,0.97,
0.601,0.30,-0.24,-0.07,-0.03,0.08,0.97,
0.603,0.30,-0.24,-0.07,-0.03,0.08,0.97,
0.603,0.32,-0.26,-0.02,-0.03,0.08,0.97,
0.605,0.32,-0.26,-0.02,-0.03,0.08,0.98,
0.608,0.32,-0.26,-0.02,-0.03,0.08,0.98,
0.609,0.35,-0.28,0.03,-0.03,0.08,0.98,
0.61,0.35,-0.28,0.03,-0.03,0.07,0.98,
0.613,0.35,-0.28,0.03,-0.03,0.07,0.98,
0.613,0.38,-0.31,0.07,-0.03,0.07,0.98,
0.615,0.38,-0.31,0.07,-0.03,0.07,0.98,
0.617,0.38,-0.31,0.07,-0.03,0.07,0.99,
0.618,0.40,-0.35,0.11,-0.03,0.07,0.99,
0.62,0.40,-0.35,0.11,-0.02,0.07,0.99,
0.623,0.40,-0.35,0.11,-0.02,0.07,0.99,
0.624,0.44,-0.36,0.14,-0.02,0.07,0.99,
0.625,0.44,-0.36,0.14,-0.02,0.07,0.99,
0.628,0.44,-0.36,0.14,-0.02,0.07,0.99,
0.628,0.47,-0.39,0.15,-0.02,0.07,0.99,
0.63,0.47,-0.39,0.15,-0.02,0.07,0.98,
0.633,0.47,-0.39,0.15,-0.02,0.07,0.98,
0.633,0.50,-0.41,0.15,-0.02,0.07,0.98,
0.635,0.50,-0.41,0.15,-0.02,0.07,0.98,
0.637,0.50,-0.41,0.15,-0.02,0.07,0.98,
0.637,0.50,-0.42,0.12,-0.02,0.07,0.98,
0.64,0.50,-0.42,0.12,-0.02,0.07,0.97,
0.642,0.50,-0.42,0.12,-0.02,0.07,0.97,
0.642,0.50,-0.40,0.08,-0.02,0.07,0.97,
0.645,0.50,-0.40,0.08,-0.02,0.07,0.97,
0.647,0.50,-0.40,0.08,-0.02,0.07,0.97,
0.647,0.50,-0.41,0.03,-0.02,0.07,0.97,
0.649,0.50,-0.41,0.03,-0.02,0.07,0.96,
0.652,0.50,-0.41,0.03,-0.02,0.07,0.96,
0.652,0.50,-0.38,-0.01,-0.02,0.07,0.96,
0.654,0.50,-0.38,-0.01,-0.02,0.08,0.96,
0.657,0.50,-0.38,-0.01,-0.03,0.08,0.96,
0.658,0.49,-0.35,-0.08,-0.03,0.08,0.96,
0.659,0.49,-0.35,-0.08,-0.03,0.08,0.96,
0.662,0.49,-0.35,-0.08,-0.03,0.08,0.95,
0.662,0.48,-0.33,-0.12,-0.03,0.08,0.95,
0.664,0.48,-0.33,-0.12,-0.03,0.08,0.96,
0.667,0.48,-0.33,-0.12,-0.03,0.08,0.96,
0.667,0.47,-0.31,-0.15,-0.03,0.08,0.96,
0.669,0.47,-0.31,-0.15,-0.03,0.08,0.96,
0.671,0.47,-0.31,-0.15,-0.03,0.08,0.96,
0.672,0.45,-0.29,-0.12,-0.03,0.08,0.96,
0.674,0.45,-0.29,-0.12,-0.03,0.08,0.96,
0.676,0.45,-0.29,-0.12,-0.03,0.08,0.96,
0.677,0.46,-0.28,-0.14,-0.03,0.08,0.96,
0.679,0.46,-0.28,-0.14,-0.03,0.08,0.96,
0.682,0.46,-0.28,-0.14,-0.03,0.09,0.96,
0.682,0.45,-0.24,-0.12,-0.03,0.09,0.96,
0.684,0.45,-0.24,-0.12,-0.03,0.09,0.96,
0.686,0.45,-0.24,-0.12,-0.03,0.09,0.96,
0.686,0.45,-0.21,-0.09,-0.03,0.09,0.96,
0.688,0.45,-0.21,-0.09,-0.03,0.09,0.97,
0.695,0.45,-0.21,-0.09,-0.03,0.09,0.97,
0.696,0.45,-0.18,-0.06,-0.03,0.09,0.97,
0.696,0.45,-0.18,-0.06,-0.02,0.09,0.97,
0.696,0.45,-0.18,-0.06,-0.02,0.09,0.97,
0.697,0.47,-0.13,-0.03,-0.02,0.09,0.97,
0.698,0.47,-0.13,-0.03,-0.02,0.10,0.97,
0.701,0.47,-0.13,-0.03,-0.02,0.10,0.98,
0.701,0.53,-0.12,0.01,-0.02,0.10,0.98,
0.703,0.53,-0.12,0.01,-0.02,0.10,0.98,
0.709,0.53,-0.12,0.01,-0.02,0.10,0.98,
0.709,0.52,-0.07,0.05,-0.02,0.10,0.98,
0.71,0.52,-0.07,0.05,-0.02,0.10,0.98,
0.711,0.52,-0.07,0.05,-0.02,0.10,0.98,
0.711,0.54,-0.06,0.06,-0.02,0.10,0.98,
0.713,0.54,-0.06,0.06,-0.02,0.10,0.98,
0.715,0.54,-0.06,0.06,-0.02,0.10,0.98,
0.716,0.53,-0.05,0.09,-0.02,0.10,0.98,
0.718,0.53,-0.05,0.09,-0.02,0.10,0.98,
0.72,0.53,-0.05,0.09,-0.02,0.10,0.98,
0.721,0.54,-0.06,0.12,-0.02,0.10,0.98,
0.723,0.54,-0.06,0.12,-0.02,0.10,0.98,
0.725,0.54,-0.06,0.12,-0.02,0.10,0.98,
0.726,0.54,-0.03,0.14,-0.02,0.10,0.98,
0.728,0.54,-0.03,0.14,-0.02,0.10,0.98,
0.73,0.54,-0.03,0.14,-0.02,0.10,0.98,
0.73,0.58,-0.05,0.12,-0.02,0.10,0.98,
0.732,0.58,-0.05,0.12,-0.01,0.10,0.98,
0.735,0.58,-0.05,0.12,-0.01,0.10,0.98,
0.735,0.59,-0.07,0.11,-0.01,0.10,0.98,
0.737,0.59,-0.07,0.11,-0.01,0.10,0.98,
0.74,0.59,-0.07,0.11,-0.01,0.10,0.98,
0.741,0.61,-0.06,0.11,-0.01,0.10,0.98,
0.743,0.61,-0.06,0.11,-0.01,0.10,0.98,
0.745,0.61,-0.06,0.11,-0.01,0.10,0.98,
0.746,0.65,-0.05,0.09,-0.01,0.10,0.98,
0.747,0.65,-0.05,0.09,-0.01,0.10,0.98,
0.75,0.65,-0.05,0.09,-0.01,0.10,0.98,
0.75,0.66,-0.06,0.08,-0.01,0.10,0.98,
0.752,0.66,-0.06,0.08,-0.01,0.10,0.98,
0.755,0.66,-0.06,0.08,-0.01,0.10,0.97,
0.755,0.68,-0.04,0.06,-0.01,0.10,0.97,
0.757,0.68,-0.04,0.06,-0.01,0.10,0.97,
0.76,0.68,-0.04,0.06,-0.01,0.10,0.97,
0.76,0.66,-0.02,0.05,-0.01,0.10,0.97,
0.762,0.66,-0.02,0.05,-0.01,0.10,0.97,
0.765,0.66,-0.02,0.05,-0.01,0.10,0.97,
0.765,0.66,-0.03,0.01,-0.01,0.10,0.97,
0.767,0.66,-0.03,0.01,-0.01,0.10,0.97,
0.769,0.66,-0.03,0.01,-0.01,0.10,0.97,
0.77,0.66,0.00,-0.02,-0.01,0.10,0.97,
0.771,0.66,0.00,-0.02,-0.00,0.10,0.97,
0.774,0.66,0.00,-0.02,-0.00,0.11,0.97,
0.775,0.66,0.03,-0.05,-0.00,0.11,0.97,
0.777,0.66,0.03,-0.05,-0.00,0.11,0.97,
0.779,0.66,0.03,-0.05,0.00,0.11,0.97,
0.779,0.70,0.05,-0.04,0.00,0.11,0.97,
0.781,0.70,0.05,-0.04,0.00,0.11,0.97,
0.784,0.70,0.05,-0.04,0.00,0.11,0.97,
0.784,0.72,0.12,-0.04,0.00,0.11,0.97,
0.787,0.72,0.12,-0.04,0.01,0.11,0.97,
0.795,0.72,0.12,-0.04,0.01,0.11,0.97,
0.796,0.76,0.12,-0.01,0.01,0.11,0.97,
0.796,0.76,0.12,-0.01,0.01,0.11,0.97,
0.796,0.76,0.12,-0.01,0.01,0.11,0.97,
0.797,0.80,0.13,0.00,0.01,0.11,0.97,
0.797,0.80,0.13,0.00,0.01,0.11,0.98,
0.799,0.80,0.13,0.00,0.01,0.11,0.98,
0.799,0.82,0.15,0.03,0.01,0.11,0.98,
0.802,0.82,0.15,0.03,0.01,0.12,0.98,
0.804,0.82,0.15,0.03,0.01,0.12,0.98,
0.804,0.81,0.16,0.06,0.01,0.12,0.98,
0.808,0.81,0.16,0.06,0.01,0.12,0.98,
0.809,0.81,0.16,0.06,0.01,0.12,0.98,
0.809,0.83,0.18,0.10,0.01,0.12,0.98,
0.811,0.83,0.18,0.10,0.01,0.12,0.98,
0.814,0.83,0.18,0.10,0.01,0.12,0.98,
0.814,0.81,0.19,0.11,0.01,0.12,0.98,
0.816,0.81,0.19,0.11,0.01,0.12,0.99,
0.818,0.81,0.19,0.11,0.01,0.12,0.99,
0.818,0.79,0.20,0.11,0.01,0.12,0.99,
0.821,0.79,0.20,0.11,0.01,0.12,0.99,
0.823,0.79,0.20,0.11,0.01,0.12,0.99,
0.824,0.76,0.23,0.14,0.01,0.12,0.99,
0.826,0.76,0.23,0.14,0.01,0.12,0.99,
0.828,0.76,0.23,0.14,0.01,0.12,0.99,
0.828,0.76,0.24,0.16,0.01,0.12,0.99,
0.83,0.76,0.24,0.16,0.01,0.12,0.99,
0.833,0.76,0.24,0.16,0.01,0.12,1.00,
0.833,0.76,0.24,0.19,0.01,0.12,1.00,
0.835,0.76,0.24,0.19,0.01,0.12,1.00,
0.838,0.76,0.24,0.19,0.01,0.12,1.00,
0.838,0.74,0.25,0.23,0.01,0.12,1.00,
0.84,0.74,0.25,0.23,0.01,0.12,1.00,
0.843,0.74,0.25,0.23,0.01,0.12,1.01,
0.845,0.76,0.24,0.28,0.01,0.12,1.01,
0.845,0.76,0.24,0.28,0.01,0.12,1.01,
0.848,0.76,0.24,0.28,0.01,0.12,1.01,
0.848,0.78,0.25,0.32,0.01,0.12,1.01,
0.85,0.78,0.25,0.32,0.01,0.12,1.01,
0.852,0.78,0.25,0.32,0.01,0.12,1.01,
0.853,0.79,0.25,0.36,0.01,0.12,1.01,
0.856,0.79,0.25,0.36,0.01,0.12,1.02,
0.858,0.79,0.25,0.36,0.01,0.12,1.01,
0.858,0.80,0.27,0.39,0.01,0.12,1.01,
0.86,0.80,0.27,0.39,0.01,0.13,1.01,
0.863,0.80,0.27,0.39,0.01,0.13,1.01,
0.863,0.80,0.28,0.41,0.01,0.13,1.01,
0.865,0.80,0.28,0.41,0.01,0.13,1.02,
0.867,0.80,0.28,0.41,0.01,0.13,1.02,
0.868,0.80,0.31,0.40,0.01,0.13,1.02,
0.87,0.80,0.31,0.40,0.01,0.13,1.01,
0.873,0.80,0.31,0.40,0.01,0.14,1.01,
0.873,0.80,0.33,0.40,0.01,0.14,1.01,
0.875,0.80,0.33,0.40,0.01,0.13,1.01,
0.877,0.80,0.33,0.40,0.01,0.14,1.01,
0.878,0.73,0.37,0.39,0.01,0.14,1.01,
0.879,0.73,0.37,0.39,0.00,0.14,1.01,
0.882,0.73,0.37,0.39,0.00,0.14,1.01,
0.882,0.71,0.38,0.37,0.00,0.14,1.01,
0.884,0.71,0.38,0.37,0.00,0.14,1.01,
0.887,0.68,0.41,0.36,0.00,0.14,1.01,
0.887,0.68,0.41,0.36,-0.00,0.14,1.01,
0.89,0.68,0.41,0.36,0.00,0.14,1.01,
0.892,0.68,0.41,0.36,0.00,0.14,1.01,
0.893,0.64,0.44,0.34,0.00,0.14,1.01,
0.894,0.64,0.44,0.34,0.00,0.14,1.01,
0.897,0.64,0.44,0.34,0.00,0.14,1.00,
0.897,0.65,0.46,0.32,0.00,0.14,1.00,
0.899,0.65,0.46,0.32,0.00,0.14,1.01,
0.901,0.65,0.46,0.32,-0.00,0.15,1.00,
0.902,0.64,0.46,0.28,-0.00,0.15,1.00,
0.904,0.64,0.46,0.28,0.00,0.14,1.00,
0.912,0.64,0.46,0.28,0.00,0.14,1.00,
0.912,0.63,0.47,0.28,0.00,0.14,1.00,
0.912,0.63,0.47,0.28,0.00,0.14,1.01,
0.913,0.63,0.47,0.28,0.01,0.14,1.01,
0.913,0.66,0.46,0.26,0.01,0.14,1.01,
0.914,0.66,0.46,0.26,0.01,0.14,1.01,
0.916,0.66,0.46,0.26,0.01,0.14,1.01,
0.917,0.69,0.41,0.28,0.01,0.14,1.01,
0.918,0.69,0.41,0.28,0.02,0.14,1.01,
0.921,0.69,0.41,0.28,0.02,0.13,1.01,
0.922,0.75,0.40,0.31,0.02,0.13,1.01,
0.924,0.75,0.40,0.31,0.02,0.13,1.02,
0.926,0.75,0.40,0.31,0.02,0.13,1.02,
0.926,0.80,0.37,0.35,0.02,0.13,1.02,
0.928,0.80,0.37,0.35,0.02,0.13,1.02,
0.931,0.80,0.37,0.35,0.02,0.13,1.02,
0.931,0.82,0.32,0.38,0.02,0.13,1.02,
0.933,0.82,0.32,0.38,0.02,0.12,1.02,
0.936,0.82,0.32,0.38,0.02,0.12,1.03,
0.936,0.82,0.28,0.42,0.02,0.12,1.03,
0.939,0.82,0.28,0.42,0.02,0.12,1.03,
0.941,0.81,0.25,0.45,0.02,0.12,1.03,
0.941,0.81,0.25,0.45,0.02,0.12,1.03,
0.943,0.81,0.25,0.45,0.02,0.12,1.03,
0.946,0.81,0.25,0.45,0.02,0.12,1.03,
0.946,0.85,0.22,0.48,0.02,0.12,1.03,
0.948,0.85,0.22,0.48,0.02,0.12,1.03,
0.95,0.85,0.22,0.48,0.02,0.11,1.03,
0.951,0.84,0.19,0.50,0.02,0.11,1.03,
0.953,0.84,0.19,0.50,0.02,0.11,1.03,
0.955,0.84,0.19,0.50,0.02,0.11,1.03,
0.956,0.83,0.16,0.52,0.02,0.11,1.03,
0.958,0.83,0.16,0.52,0.02,0.11,1.03,
0.96,0.83,0.16,0.52,0.02,0.12,1.03,
0.961,0.82,0.15,0.51,0.02,0.12,1.03,
0.963,0.82,0.15,0.51,0.02,0.12,1.03,
0.965,0.82,0.15,0.51,0.02,0.11,1.03,
0.965,0.79,0.16,0.49,0.02,0.11,1.03,
0.967,0.79,0.16,0.49,0.02,0.11,1.03,
0.97,0.79,0.16,0.49,0.02,0.11,1.03,
0.97,0.75,0.16,0.47,0.02,0.11,1.03,
0.972,0.75,0.16,0.47,0.01,0.12,1.03,
0.975,0.75,0.16,0.47,0.01,0.12,1.02,
0.975,0.73,0.15,0.44,0.01,0.12,1.02,
0.977,0.73,0.15,0.44,0.01,0.12,1.02,
0.98,0.73,0.15,0.44,0.01,0.12,1.02,
0.98,0.70,0.17,0.42,0.01,0.12,1.02,
0.982,0.70,0.17,0.42,0.01,0.12,1.02,
0.985,0.70,0.17,0.42,0.01,0.12,1.02,
0.985,0.67,0.19,0.37,0.01,0.12,1.02,
0.987,0.67,0.19,0.37,0.01,0.12,1.01,
0.994,0.67,0.19,0.37,0.01,0.12,1.01,
0.995,0.64,0.20,0.33,0.01,0.12,1.01,
0.995,0.64,0.20,0.33,0.01,0.12,1.01,
0.995,0.64,0.20,0.33,0.01,0.12,1.01,
0.995,0.63,0.20,0.28,0.01,0.12,1.01,
0.997,0.63,0.20,0.28,0.01,0.12,1.01,
0.999,0.63,0.20,0.28,0.01,0.12,1.01,
1.0,0.61,0.22,0.27,0.01,0.12,1.01,
1.002,0.61,0.22,0.27,0.01,0.12,1.01,
1.005,0.61,0.22,0.27,0.01,0.12,1.01,
1.005,0.61,0.21,0.24,0.01,0.12,1.01,
1.01,0.61,0.21,0.24,0.01,0.12,1.01,
1.01,0.61,0.21,0.24,0.01,0.12,1.01,
1.01,0.60,0.22,0.22,0.01,0.12,1.01,
1.012,0.60,0.22,0.22,0.01,0.12,1.01,
1.014,0.60,0.22,0.22,0.01,0.12,1.01,
1.014,0.59,0.22,0.23,0.01,0.12,1.01,
1.017,0.59,0.22,0.23,0.01,0.12,1.01,
1.019,0.59,0.22,0.23,0.01,0.11,1.01,
1.019,0.59,0.18,0.24,0.01,0.11,1.01,
1.021,0.59,0.18,0.24,0.01,0.11,1.01,
1.024,0.59,0.18,0.24,0.01,0.11,1.01,
1.024,0.58,0.15,0.23,0.01,0.11,1.01,
1.027,0.58,0.15,0.23,0.01,0.11,1.01,
1.029,0.60,0.11,0.22,0.01,0.11,1.01,
1.03,0.60,0.11,0.22,0.02,0.11,1.01,
1.031,0.60,0.11,0.22,0.02,0.10,1.01,
1.033,0.60,0.11,0.22,0.02,0.10,1.01,
1.034,0.63,0.06,0.22,0.02,0.10,1.01,
1.036,0.63,0.06,0.22,0.02,0.10,1.01,
1.039,0.63,0.06,0.22,0.02,0.10,1.01,
1.039,0.65,-0.01,0.22,0.02,0.10,1.01,
1.041,0.65,-0.01,0.22,0.02,0.09,1.01,
1.044,0.66,-0.06,0.22,0.02,0.09,1.01,
1.044,0.66,-0.06,0.22,0.03,0.09,1.01,
1.046,0.66,-0.06,0.22,0.03,0.09,1.00,
1.048,0.66,-0.06,0.22,0.03,0.09,1.00,
1.048,0.70,-0.10,0.20,0.03,0.09,1.00,
1.051,0.70,-0.10,0.20,0.03,0.08,1.00,
1.053,0.70,-0.10,0.20,0.03,0.08,1.00,
1.054,0.70,-0.14,0.18,0.03,0.08,1.00,
1.056,0.70,-0.14,0.18,0.03,0.08,1.00,
1.059,0.70,-0.14,0.18,0.02,0.08,1.00,
1.059,0.68,-0.19,0.16,0.02,0.08,1.00,
1.061,0.68,-0.19,0.16,0.02,0.08,0.99,
1.063,0.68,-0.19,0.16,0.02,0.08,0.99,
1.064,0.66,-0.20,0.12,0.02,0.08,0.99,
1.065,0.66,-0.20,0.12,0.02,0.08,0.99,
1.068,0.66,-0.20,0.12,0.02,0.08,0.99,
1.068,0.61,-0.23,0.08,0.02,0.08,0.99,
1.07,0.61,-0.23,0.08,0.02,0.07,0.98,
1.073,0.61,-0.23,0.08,0.02,0.07,0.98,
1.073,0.59,-0.26,0.02,0.02,0.07,0.98,
1.075,0.59,-0.26,0.02,0.02,0.08,0.98,
1.078,0.59,-0.26,0.02,0.01,0.08,0.98,
1.078,0.56,-0.27,-0.03,0.01,0.08,0.98,
1.08,0.56,-0.27,-0.03,0.01,0.08,0.97,
1.083,0.56,-0.27,-0.03,0.01,0.08,0.97,
1.083,0.50,-0.25,-0.07,0.01,0.08,0.97,
1.085,0.50,-0.25,-0.07,0.01,0.08,0.97,
1.095,0.46,-0.22,-0.12,0.01,0.08,0.97,
1.096,0.46,-0.22,-0.12,0.01,0.08,0.97,
1.096,0.46,-0.22,-0.12,0.01,0.08,0.97,
1.096,0.46,-0.22,-0.12,0.01,0.08,0.96,
1.096,0.42,-0.21,-0.17,0.01,0.08,0.96,
1.097,0.42,-0.21,-0.17,0.01,0.08,0.97,
1.097,0.42,-0.21,-0.17,0.01,0.08,0.97,
1.098,0.41,-0.20,-0.19,0.01,0.08,0.97,
1.1,0.41,-0.20,-0.19,0.01,0.08,0.96,
1.102,0.41,-0.20,-0.19,0.01,0.08,0.96,
1.103,0.41,-0.21,-0.18,0.01,0.08,0.96,
1.109,0.41,-0.21,-0.18,0.01,0.08,0.97,
1.11,0.41,-0.21,-0.18,0.01,0.08,0.96,
1.11,0.39,-0.20,-0.20,0.01,0.08,0.96,
1.11,0.39,-0.20,-0.20,0.01,0.07,0.97,
1.112,0.39,-0.20,-0.20,0.01,0.07,0.97,
1.112,0.40,-0.24,-0.19,0.01,0.07,0.97,
1.114,0.40,-0.24,-0.19,0.01,0.07,0.97,
1.117,0.40,-0.24,-0.19,0.01,0.07,0.97,
1.117,0.38,-0.27,-0.17,0.01,0.07,0.97,
1.119,0.38,-0.27,-0.17,0.01,0.07,0.97,
1.122,0.38,-0.27,-0.17,0.00,0.06,0.97,
1.122,0.36,-0.31,-0.16,0.00,0.06,0.97,
1.124,0.36,-0.31,-0.16,0.00,0.06,0.97,
1.127,0.36,-0.31,-0.16,0.00,0.06,0.97,
1.127,0.33,-0.34,-0.15,0.00,0.06,0.97,
1.129,0.33,-0.34,-0.15,0.00,0.06,0.97,
1.131,0.33,-0.34,-0.15,0.00,0.06,0.97,
1.132,0.31,-0.38,-0.13,0.00,0.06,0.97,
1.134,0.31,-0.38,-0.13,0.00,0.06,0.97,
1.136,0.31,-0.38,-0.13,0.00,0.06,0.97,
1.137,0.29,-0.41,-0.15,0.00,0.06,0.97,
1.139,0.29,-0.41,-0.15,0.00,0.06,0.97,
1.141,0.29,-0.41,-0.15,-0.00,0.06,0.97,
1.142,0.28,-0.40,-0.16,-0.00,0.06,0.97,
1.144,0.28,-0.40,-0.16,-0.00,0.06,0.97,
1.147,0.28,-0.40,-0.16,-0.01,0.06,0.97,
1.147,0.25,-0.39,-0.17,-0.01,0.06,0.97,
1.149,0.25,-0.39,-0.17,-0.01,0.06,0.97,
1.151,0.25,-0.39,-0.17,-0.01,0.06,0.97,
1.151,0.20,-0.37,-0.17,-0.01,0.06,0.97,
1.153,0.20,-0.37,-0.17,-0.01,0.06,0.97,
1.156,0.20,-0.37,-0.17,-0.02,0.07,0.96,
1.156,0.14,-0.37,-0.17,-0.02,0.07,0.96,
1.159,0.14,-0.37,-0.17,-0.02,0.07,0.96,
1.161,0.14,-0.37,-0.17,-0.03,0.07,0.96,
1.161,0.07,-0.33,-0.18,-0.03,0.07,0.96,
1.164,0.07,-0.33,-0.18,-0.03,0.07,0.96,
1.166,0.07,-0.33,-0.18,-0.03,0.07,0.96,
1.166,-0.01,-0.29,-0.18,-0.03,0.07,0.96,
1.168,-0.01,-0.29,-0.18,-0.04,0.08,0.97,
1.172,-0.01,-0.29,-0.18,-0.04,0.08,0.96,
1.172,-0.10,-0.25,-0.18,-0.04,0.08,0.96,
1.174,-0.10,-0.25,-0.18,-0.04,0.08,0.96,
1.176,-0.10,-0.25,-0.18,-0.05,0.08,0.96,
1.176,-0.17,-0.21,-0.19,-0.05,0.08,0.96,
1.178,-0.17,-0.21,-0.19,-0.05,0.08,0.96,
1.181,-0.17,-0.21,-0.19,-0.05,0.08,0.97,
1.181,-0.22,-0.18,-0.18,-0.05,0.08,0.97,
1.183,-0.22,-0.18,-0.18,-0.05,0.08,0.97,
1.186,-0.22,-0.18,-0.18,-0.05,0.08,0.97,
1.186,-0.26,-0.16,-0.18,-0.05,0.08,0.97,
1.188,-0.26,-0.16,-0.18,-0.05,0.08,0.97,
1.19,-0.26,-0.16,-0.18,-0.05,0.08,0.97,
1.191,-0.29,-0.14,-0.15,-0.05,0.08,0.97,
1.193,-0.29,-0.14,-0.15,-0.06,0.08,0.97,
1.195,-0.29,-0.14,-0.15,-0.05,0.08,0.97,
1.196,-0.31,-0.14,-0.16,-0.05,0.08,0.97,
1.198,-0.31,-0.14,-0.16,-0.06,0.08,0.97,
1.2,-0.31,-0.14,-0.16,-0.06,0.08,0.97,
1.2,-0.33,-0.15,-0.16,-0.06,0.08,0.97,
1.203,-0.33,-0.15,-0.16,-0.06,0.08,0.97,
1.21,-0.33,-0.15,-0.16,-0.06,0.08,0.97,
1.211,-0.36,-0.15,-0.14,-0.06,0.08,0.97,
1.211,-0.36,-0.15,-0.14,-0.06,0.08,0.97,
1.211,-0.36,-0.15,-0.14,-0.06,0.07,0.96,
1.211,-0.39,-0.17,-0.16,-0.06,0.07,0.96,
1.212,-0.39,-0.17,-0.16,-0.06,0.07,0.96,
1.215,-0.39,-0.17,-0.16,-0.06,0.07,0.96,
1.215,-0.40,-0.18,-0.17,-0.06,0.07,0.96,
1.217,-0.40,-0.18,-0.17,-0.06,0.07,0.96,
1.22,-0.40,-0.18,-0.17,-0.05,0.07,0.96,
1.22,-0.38,-0.21,-0.19,-0.05,0.07,0.96,
1.222,-0.38,-0.21,-0.19,-0.05,0.07,0.96,
1.225,-0.38,-0.21,-0.19,-0.05,0.06,0.96,
1.225,-0.36,-0.24,-0.20,-0.05,0.06,0.96,
1.227,-0.36,-0.24,-0.20,-0.05,0.07,0.96,
1.229,-0.36,-0.24,-0.20,-0.05,0.06,0.96,
1.23,-0.37,-0.27,-0.23,-0.05,0.06,0.96,
1.232,-0.37,-0.27,-0.23,-0.05,0.06,0.95,
1.234,-0.37,-0.27,-0.23,-0.05,0.06,0.95,
1.235,-0.34,-0.27,-0.24,-0.05,0.06,0.95,
1.237,-0.34,-0.27,-0.24,-0.05,0.06,0.95,
1.239,-0.34,-0.27,-0.24,-0.04,0.06,0.95,
1.24,-0.32,-0.29,-0.27,-0.04,0.06,0.95,
1.242,-0.32,-0.29,-0.27,-0.04,0.06,0.95,
1.244,-0.32,-0.29,-0.27,-0.04,0.06,0.95,
1.245,-0.31,-0.28,-0.31,-0.04,0.06,0.95,
1.247,-0.31,-0.28,-0.31,-0.04,0.06,0.95,
1.249,-0.31,-0.28,-0.31,-0.03,0.06,0.95,
1.25,-0.24,-0.28,-0.30,-0.03,0.06,0.95,
1.251,-0.24,-0.28,-0.30,-0.03,0.06,0.95,
1.255,-0.24,-0.28,-0.30,-0.03,0.06,0.95,
1.255,-0.20,-0.28,-0.29,-0.03,0.06,0.95,
1.257,-0.20,-0.28,-0.29,-0.03,0.06,0.95,
1.259,-0.20,-0.28,-0.29,-0.03,0.06,0.96,
1.26,-0.17,-0.27,-0.27,-0.03,0.06,0.96,
1.261,-0.17,-0.27,-0.27,-0.03,0.06,0.96,
1.264,-0.17,-0.27,-0.27,-0.03,0.06,0.96,
1.264,-0.14,-0.24,-0.24,-0.03,0.06,0.96,
1.266,-0.14,-0.24,-0.24,-0.03,0.06,0.96,
1.269,-0.14,-0.24,-0.24,-0.03,0.06,0.96,
1.269,-0.15,-0.24,-0.20,-0.03,0.06,0.96,
1.272,-0.15,-0.24,-0.20,-0.03,0.06,0.96,
1.274,-0.15,-0.24,-0.20,-0.03,0.06,0.96,
1.274,-0.17,-0.23,-0.19,-0.03,0.06,0.96,
1.276,-0.17,-0.23,-0.19,-0.04,0.06,0.96,
1.279,-0.17,-0.23,-0.19,-0.04,0.06,0.96,
1.279,-0.20,-0.23,-0.18,-0.04,0.06,0.96,
1.281,-0.20,-0.23,-0.18,-0.04,0.06,0.96,
1.284,-0.20,-0.23,-0.18,-0.04,0.06,0.96,
1.284,-0.26,-0.25,-0.17,-0.04,0.06,0.96,
1.286,-0.26,-0.25,-0.17,-0.04,0.06,0.97,
1.289,-0.26,-0.25,-0.17,-0.05,0.06,0.96,
1.29,-0.31,-0.26,-0.15,-0.05,0.06,0.96,
1.291,-0.31,-0.26,-0.15,-0.05,0.07,0.97,
1.293,-0.31,-0.26,-0.15,-0.05,0.07,0.96,
1.294,-0.37,-0.24,-0.14,-0.05,0.07,0.96,
1.296,-0.37,-0.24,-0.14,-0.05,0.07,0.96,
1.298,-0.37,-0.24,-0.14,-0.05,0.07,0.96,
1.298,-0.41,-0.19,-0.14,-0.05,0.07,0.96,
1.301,-0.41,-0.19,-0.14,-0.06,0.07,0.96,
1.303,-0.41,-0.19,-0.14,-0.06,0.07,0.96,
1.303,-0.45,-0.17,-0.18,-0.06,0.07,0.96,
1.311,-0.45,-0.17,-0.18,-0.06,0.07,0.96,
1.311,-0.45,-0.17,-0.18,-0.07,0.07,0.96,
1.312,-0.51,-0.14,-0.19,-0.07,0.07,0.96,
1.312,-0.51,-0.14,-0.19,-0.07,0.07,0.96,
1.313,-0.51,-0.14,-0.19,-0.07,0.08,0.96,
1.313,-0.58,-0.12,-0.21,-0.07,0.08,0.96,
1.315,-0.58,-0.12,-0.21,-0.07,0.08,0.95,
1.318,-0.58,-0.12,-0.21,-0.07,0.08,0.95,
1.318,-0.60,-0.09,-0.23,-0.07,0.08,0.95,
1.32,-0.60,-0.09,-0.23,-0.07,0.08,0.95,
1.325,-0.60,-0.09,-0.23,-0.07,0.08,0.95,
1.325,-0.64,-0.07,-0.23,-0.07,0.08,0.95,
1.326,-0.64,-0.07,-0.23,-0.07,0.08,0.95,
1.327,-0.64,-0.07,-0.23,-0.07,0.08,0.95,
1.327,-0.63,-0.06,-0.25,-0.07,0.08,0.95,
1.33,-0.63,-0.06,-0.25,-0.07,0.08,0.95,
1.332,-0.63,-0.06,-0.25,-0.06,0.08,0.95,
1.333,-0.61,-0.06,-0.26,-0.06,0.08,0.95,
1.335,-0.61,-0.06,-0.26,-0.06,0.08,0.95,
1.337,-0.61,-0.06,-0.26,-0.06,0.08,0.95,
1.338,-0.57,-0.05,-0.27,-0.06,0.08,0.95,
1.339,-0.57,-0.05,-0.27,-0.05,0.07,0.95,
1.343,-0.57,-0.05,-0.27,-0.05,0.08,0.95,
1.343,-0.51,-0.05,-0.27,-0.05,0.08,0.95,
1.345,-0.51,-0.05,-0.27,-0.05,0.08,0.96,
1.347,-0.51,-0.05,-0.27,-0.04,0.07,0.96,
1.347,-0.47,-0.06,-0.24,-0.04,0.07,0.96,
1.349,-0.47,-0.06,-0.24,-0.04,0.07,0.96,
1.352,-0.47,-0.06,-0.24,-0.04,0.07,0.96,
1.353,-0.38,-0.07,-0.22,-0.04,0.07,0.96,
1.354,-0.38,-0.07,-0.22,-0.04,0.07,0.96,
1.357,-0.38,-0.07,-0.22,-0.03,0.07,0.96,
1.357,-0.33,-0.09,-0.19,-0.03,0.07,0.96,
1.359,-0.33,-0.09,-0.19,-0.04,0.07,0.96,
1.362,-0.33,-0.09,-0.19,-0.04,0.07,0.96,
1.362,-0.30,-0.12,-0.17,-0.04,0.07,0.96,
1.364,-0.30,-0.12,-0.17,-0.04,0.07,0.97,
1.367,-0.30,-0.12,-0.17,-0.04,0.07,0.97,
1.367,-0.32,-0.11,-0.13,-0.04,0.07,0.97,
1.369,-0.32,-0.11,-0.13,-0.04,0.07,0.97,
1.372,-0.32,-0.11,-0.13,-0.05,0.06,0.98,
1.372,-0.35,-0.11,-0.08,-0.05,0.06,0.98,
1.374,-0.35,-0.11,-0.08,-0.05,0.06,0.98,
1.376,-0.35,-0.11,-0.08,-0.06,0.06,0.98,
1.377,-0.41,-0.12,-0.03,-0.06,0.06,0.98,
1.379,-0.41,-0.12,-0.03,-0.06,0.06,0.98,
1.381,-0.41,-0.12,-0.03,-0.06,0.07,0.98,
1.381,-0.49,-0.13,-0.01,-0.06,0.07,0.98,
1.384,-0.49,-0.13,-0.01,-0.07,0.07,0.98,
1.387,-0.49,-0.13,-0.01,-0.07,0.07,0.98,
1.387,-0.58,-0.09,0.01,-0.07,0.07,0.98,
1.4,-0.58,-0.09,0.01,-0.08,0.07,0.98,
1.4,-0.58,-0.09,0.01,-0.08,0.08,0.98,
1.401,-0.65,-0.05,0.03,-0.08,0.08,0.98,
1.401,-0.65,-0.05,0.03,-0.09,0.08,0.98,
1.401,-0.65,-0.05,0.03,-0.09,0.08,0.98,
1.401,-0.75,-0.00,0.03,-0.09,0.08,0.98,
1.401,-0.75,-0.00,0.03,-0.10,0.08,0.98,
1.402,-0.75,-0.00,0.03,-0.10,0.08,0.98,
1.402,-0.85,0.01,0.07,-0.10,0.08,0.98,
1.411,-0.85,0.01,0.07,-0.10,0.08,0.98,
1.411,-0.85,0.01,0.07,-0.10,0.08,0.98,
1.411,-0.92,0.03,0.03,-0.10,0.08,0.98,
1.411,-0.92,0.03,0.03,-0.11,0.08,0.98,
1.412,-0.92,0.03,0.03,-0.11,0.08,0.98,
1.412,-0.98,0.04,0.02,-0.11,0.08,0.98,
1.413,-0.98,0.04,0.02,-0.11,0.08,0.97,
1.415,-0.98,0.04,0.02,-0.11,0.08,0.97,
1.415,-1.01,0.05,0.00,-0.11,0.08,0.97,
1.418,-1.01,0.05,0.00,-0.11,0.08,0.97,
1.421,-1.01,0.05,0.00,-0.11,0.07,0.97,
1.421,-1.01,0.05,-0.04,-0.11,0.07,0.97,
1.423,-1.01,0.05,-0.04,-0.10,0.08,0.97,
1.425,-1.01,0.05,-0.04,-0.10,0.07,0.97,
1.425,-1.00,0.03,-0.06,-0.10,0.07,0.97,
1.428,-1.00,0.03,-0.06,-0.10,0.07,0.97,
1.43,-1.00,0.03,-0.06,-0.10,0.07,0.98,
1.43,-0.98,0.02,-0.06,-0.10,0.07,0.98,
1.432,-0.98,0.02,-0.06,-0.10,0.07,0.98,
1.435,-0.98,0.02,-0.06,-0.09,0.07,0.98,
1.435,-0.94,-0.01,-0.03,-0.09,0.07,0.98,
1.438,-0.94,-0.01,-0.03,-0.09,0.06,0.98,
1.44,-0.94,-0.01,-0.03,-0.09,0.06,0.98,
1.44,-0.89,-0.05,0.00,-0.09,0.06,0.98,
1.443,-0.89,-0.05,0.00,-0.09,0.06,0.98,
1.445,-0.89,-0.05,0.00,-0.09,0.05,0.98,
1.445,-0.83,-0.08,0.02,-0.09,0.05,0.98,
1.447,-0.83,-0.08,0.02,-0.08,0.05,0.98,
1.45,-0.83,-0.08,0.02,-0.08,0.05,0.98,
1.45,-0.79,-0.14,0.05,-0.08,0.05,0.98,
1.452,-0.79,-0.14,0.05,-0.08,0.05,0.99,
1.455,-0.79,-0.14,0.05,-0.08,0.04,0.99,
1.455,-0.74,-0.20,0.06,-0.08,0.04,0.99,
1.457,-0.74,-0.20,0.06,-0.07,0.04,0.99,
1.459,-0.74,-0.20,0.06,-0.07,0.04,0.99,
1.46,-0.70,-0.22,0.09,-0.07,0.04,0.99,
1.462,-0.70,-0.22,0.09,-0.07,0.04,0.99,
1.464,-0.70,-0.22,0.09,-0.07,0.05,0.99,
1.464,-0.66,-0.24,0.10,-0.07,0.05,0.99,
1.467,-0.66,-0.24,0.10,-0.07,0.05,0.99,
1.469,-0.66,-0.24,0.10,-0.07,0.05,0.99,
1.469,-0.63,-0.22,0.11,-0.07,0.05,0.99,
1.472,-0.63,-0.22,0.11,-0.07,0.04,0.99,
1.474,-0.63,-0.22,0.11,-0.07,0.05,0.99,
1.474,-0.59,-0.20,0.10,-0.07,0.05,0.99,
1.476,-0.59,-0.20,0.10,-0.07,0.05,0.99,
1.479,-0.59,-0.20,0.10,-0.07,0.05,0.98,
1.479,-0.57,-0.20,0.08,-0.07,0.05,0.98,
1.481,-0.57,-0.20,0.08,-0.07,0.05,0.98,
1.484,-0.57,-0.20,0.08,-0.07,0.05,0.98,
1.484,-0.60,-0.18,0.05,-0.07,0.05,0.98,
1.492,-0.60,-0.18,0.05,-0.08,0.05,0.98,
1.493,-0.60,-0.18,0.05,-0.08,0.05,0.97,
1.493,-0.66,-0.16,0.02,-0.08,0.05,0.97,
1.493,-0.66,-0.16,0.02,-0.08,0.05,0.97,
1.494,-0.66,-0.16,0.02,-0.09,0.06,0.97,
1.494,-0.70,-0.14,-0.03,-0.09,0.06,0.97,
1.496,-0.70,-0.14,-0.03,-0.09,0.06,0.97,
1.499,-0.70,-0.14,-0.03,-0.10,0.06,0.96,
1.499,-0.76,-0.09,-0.10,-0.10,0.06,0.96,
1.501,-0.76,-0.09,-0.10,-0.10,0.06,0.96,
1.504,-0.76,-0.09,-0.10,-0.10,0.07,0.96,
1.504,-0.84,-0.05,-0.14,-0.10,0.07,0.96,
1.506,-0.84,-0.05,-0.14,-0.10,0.07,0.96,
1.508,-0.84,-0.05,-0.14,-0.11,0.07,0.96,
1.509,-0.89,0.02,-0.17,-0.11,0.07,0.96,
1.511,-0.89,0.02,-0.17,-0.11,0.07,0.96,
1.513,-0.89,0.02,-0.17,-0.11,0.07,0.96,
1.513,-0.94,0.08,-0.18,-0.11,0.07,0.96,
1.516,-0.94,0.08,-0.18,-0.11,0.07,0.96,
1.518,-0.94,0.08,-0.18,-0.12,0.07,0.96,
1.518,-1.01,0.11,-0.20,-0.12,0.07,0.96,
1.521,-1.01,0.11,-0.20,-0.12,0.07,0.96,
1.523,-1.01,0.11,-0.20,-0.12,0.08,0.96,
1.524,-1.04,0.13,-0.22,-0.12,0.08,0.96,
1.525,-1.04,0.13,-0.22,-0.12,0.07,0.96,
1.528,-1.04,0.13,-0.22,-0.12,0.08,0.96,
1.528,-1.08,0.14,-0.18,-0.12,0.08,0.96,
1.53,-1.08,0.14,-0.18,-0.13,0.08,0.96,
1.533,-1.08,0.14,-0.18,-0.13,0.07,0.96,
1.533,-1.09,0.15,-0.17,-0.13,0.07,0.96,
1.535,-1.09,0.15,-0.17,-0.13,0.08,0.96,
1.538,-1.09,0.15,-0.17,-0.13,0.07,0.96,
1.539,-1.12,0.15,-0.15,-0.13,0.07,0.96,
1.541,-1.12,0.15,-0.15,-0.13,0.07,0.96,
1.543,-1.12,0.15,-0.15,-0.12,0.07,0.96,
1.543,-1.13,0.15,-0.14,-0.12,0.07,0.96,
1.545,-1.13,0.15,-0.14,-0.12,0.07,0.96,
1.548,-1.13,0.15,-0.14,-0.12,0.06,0.96,
1.548,-1.08,0.13,-0.14,-0.12,0.06,0.96,
1.55,-1.08,0.13,-0.14,-0.11,0.06,0.96,
1.553,-1.08,0.13,-0.14,-0.11,0.06,0.97,
1.553,-1.03,0.08,-0.14,-0.11,0.06,0.97,
1.555,-1.03,0.08,-0.14,-0.11,0.06,0.97,
1.558,-1.03,0.08,-0.14,-0.10,0.06,0.97,
1.558,-0.94,0.05,-0.13,-0.10,0.06,0.97,
1.56,-0.94,0.05,-0.13,-0.10,0.05,0.97,
1.562,-0.94,0.05,-0.13,-0.09,0.05,0.97,
1.563,-0.85,0.01,-0.11,-0.09,0.05,0.97,
1.565,-0.85,0.01,-0.11,-0.09,0.05,0.98,
1.567,-0.85,0.01,-0.11,-0.08,0.05,0.98,
1.568,-0.74,-0.04,-0.07,-0.08,0.05,0.98,
1.57,-0.74,-0.04,-0.07,-0.07,0.05,0.98,
1.572,-0.74,-0.04,-0.07,-0.07,0.05,0.99,
1.573,-0.62,-0.07,-0.01,-0.07,0.05,0.99,
1.575,-0.62,-0.07,-0.01,-0.07,0.04,0.99,
1.577,-0.62,-0.07,-0.01,-0.07,0.04,1.00,
1.578,-0.50,-0.08,0.07,-0.07,0.04,1.00,
1.579,-0.50,-0.08,0.07,-0.07,0.04,1.00,
1.582,-0.50,-0.08,0.07,-0.07,0.04,1.01,
1.582,-0.49,-0.10,0.15,-0.07,0.04,1.01,
1.584,-0.49,-0.10,0.15,-0.07,0.04,1.01,
1.587,-0.49,-0.10,0.15,-0.08,0.05,1.01,
1.588,-0.46,-0.09,0.25,-0.08,0.05,1.01,
1.59,-0.46,-0.09,0.25,-0.08,0.05,1.02,
1.593,-0.46,-0.09,0.25,-0.09,0.05,1.02,
1.593,-0.51,-0.07,0.32,-0.09,0.05,1.02,
1.594,-0.51,-0.07,0.32,-0.09,0.05,1.02,
1.597,-0.51,-0.07,0.32,-0.10,0.05,1.02,
1.597,-0.59,-0.04,0.37,-0.10,0.05,1.02,
1.599,-0.59,-0.04,0.37,-0.10,0.05,1.02,
1.602,-0.66,-0.03,0.39,-0.10,0.05,1.02,
1.602,-0.66,-0.03,0.39,-0.10,0.05,1.02,
1.609,-0.66,-0.03,0.39,-0.11,0.06,1.02,
1.61,-0.66,-0.03,0.39,-0.12,0.06,1.02,
1.611,-0.73,0.01,0.40,-0.12,0.06,1.02,
1.611,-0.73,0.01,0.40,-0.12,0.06,1.02,
1.611,-0.73,0.01,0.40,-0.13,0.07,1.03,
1.612,-0.86,0.08,0.42,-0.13,0.07,1.03,
1.614,-0.86,0.08,0.42,-0.14,0.07,1.03,
1.616,-0.86,0.08,0.42,-0.14,0.08,1.03,
1.616,-0.96,0.15,0.43,-0.14,0.08,1.03,
1.619,-0.96,0.15,0.43,-0.15,0.08,1.03,
1.622,-0.96,0.15,0.43,-0.16,0.09,1.03,
1.622,-1.07,0.24,0.49,-0.16,0.09,1.03,
1.623,-1.07,0.24,0.49,-0.16,0.09,1.03,
1.627,-1.07,0.24,0.49,-0.16,0.09,1.03,
1.627,-1.17,0.34,0.51,-0.16,0.09,1.03,
1.628,-1.17,0.34,0.51,-0.17,0.10,1.03,
1.631,-1.17,0.34,0.51,-0.17,0.10,1.04,
1.631,-1.27,0.41,0.51,-0.17,0.10,1.04,
1.633,-1.27,0.41,0.51,-0.17,0.10,1.03,
1.637,-1.27,0.41,0.51,-0.17,0.10,1.03,
1.638,-1.32,0.47,0.52,-0.17,0.10,1.03,
1.639,-1.32,0.47,0.52,-0.18,0.10,1.03,
1.641,-1.32,0.47,0.52,-0.18,0.10,1.03,
1.642,-1.36,0.51,0.50,-0.18,0.10,1.03,
1.643,-1.36,0.51,0.50,-0.17,0.10,1.03,
1.646,-1.36,0.51,0.50,-0.17,0.10,1.03,
1.646,-1.37,0.53,0.46,-0.17,0.10,1.03,
1.648,-1.37,0.53,0.46,-0.17,0.10,1.02,
1.651,-1.37,0.53,0.46,-0.17,0.10,1.02,
1.651,-1.34,0.51,0.43,-0.17,0.10,1.02,
1.653,-1.34,0.51,0.43,-0.16,0.09,1.02,
1.655,-1.34,0.51,0.43,-0.16,0.09,1.02,
1.656,-1.28,0.49,0.38,-0.16,0.09,1.02,
1.658,-1.28,0.49,0.38,-0.15,0.09,1.02,
1.661,-1.28,0.49,0.38,-0.15,0.09,1.01,
1.661,-1.19,0.45,0.33,-0.15,0.09,1.01,
1.663,-1.19,0.45,0.33,-0.14,0.08,1.01,
1.665,-1.19,0.45,0.33,-0.13,0.08,1.01,
1.666,-1.09,0.40,0.29,-0.13,0.08,1.01,
1.668,-1.09,0.40,0.29,-0.13,0.07,1.01,
1.67,-1.09,0.40,0.29,-0.12,0.07,1.01,
1.671,-0.96,0.33,0.24,-0.12,0.07,1.01,
1.673,-0.96,0.33,0.24,-0.12,0.07,1.00,
1.675,-0.96,0.33,0.24,-0.11,0.07,1.00,
1.676,-0.84,0.27,0.21,-0.11,0.07,1.00,
1.678,-0.84,0.27,0.21,-0.11,0.07,1.00,
1.68,-0.84,0.27,0.21,-0.11,0.06,1.00,
1.68,-0.76,0.23,0.18,-0.11,0.06,1.00,
1.682,-0.76,0.23,0.18,-0.10,0.06,1.00,
1.685,-0.76,0.23,0.18,-0.10,0.06,1.00,
1.686,-0.69,0.20,0.17,-0.10,0.06,1.00,
1.688,-0.69,0.20,0.17,-0.10,0.06,1.01,
1.69,-0.69,0.20,0.17,-0.10,0.06,1.01,
1.69,-0.63,0.16,0.17,-0.10,0.06,1.01,
1.692,-0.63,0.16,0.17,-0.10,0.06,1.01,
1.695,-0.63,0.16,0.17,-0.10,0.06,1.01,
1.695,-0.58,0.16,0.20,-0.10,0.06,1.01,
1.697,-0.58,0.16,0.20,-0.10,0.06,1.01,
1.7,-0.58,0.16,0.20,-0.10,0.06,1.01,
1.7,-0.57,0.18,0.22,-0.10,0.06,1.01,
1.702,-0.57,0.18,0.22,-0.10,0.06,1.01,
1.709,-0.57,0.18,0.22,-0.10,0.06,1.01,
1.71,-0.58,0.16,0.22,-0.10,0.06,1.01,
1.71,-0.58,0.16,0.22,-0.10,0.06,1.00,
1.71,-0.58,0.16,0.22,-0.10,0.06,1.00,
1.711,-0.60,0.19,0.21,-0.10,0.06,1.00,
1.712,-0.60,0.19,0.21,-0.10,0.07,1.00,
1.714,-0.60,0.19,0.21,-0.10,0.07,1.00,
1.714,-0.62,0.20,0.18,-0.10,0.07,1.00,
1.717,-0.62,0.20,0.18,-0.11,0.07,1.00,
1.719,-0.62,0.20,0.18,-0.11,0.08,1.00,
1.72,-0.63,0.24,0.16,-0.11,0.08,1.00,
1.721,-0.63,0.24,0.16,-0.11,0.08,1.00,
1.724,-0.63,0.24,0.16,-0.10,0.08,1.00,
1.724,-0.66,0.31,0.13,-0.10,0.08,1.00,
1.726,-0.66,0.31,0.13,-0.11,0.08,0.99,
1.729,-0.66,0.31,0.13,-0.11,0.09,0.99,
1.729,-0.66,0.37,0.10,-0.11,0.09,0.99,
1.731,-0.66,0.37,0.10,-0.11,0.09,0.99,
1.734,-0.66,0.37,0.10,-0.11,0.09,0.99,
1.734,-0.68,0.42,0.07,-0.11,0.09,0.99,
1.736,-0.68,0.42,0.07,-0.11,0.09,0.99,
1.739,-0.68,0.42,0.07,-0.12,0.09,0.99,
1.739,-0.72,0.44,0.04,-0.12,0.09,0.99,
1.741,-0.72,0.44,0.04,-0.12,0.09,0.99,
1.744,-0.72,0.44,0.04,-0.12,0.09,0.99,
1.744,-0.76,0.48,0.02,-0.12,0.09,0.99,
1.746,-0.76,0.48,0.02,-0.13,0.09,0.99,
1.748,-0.76,0.48,0.02,-0.13,0.09,0.99,
1.749,-0.82,0.49,0.02,-0.13,0.09,0.99,
1.751,-0.82,0.49,0.02,-0.13,0.10,0.99,
1.753,-0.82,0.49,0.02,-0.13,0.10,0.99,
1.754,-0.85,0.49,0.02,-0.13,0.10,0.99,
1.756,-0.85,0.49,0.02,-0.13,0.10,0.99,
1.758,-0.85,0.49,0.02,-0.13,0.09,1.00,
1.759,-0.86,0.51,0.04,-0.13,0.09,1.00,
1.76,-0.86,0.51,0.04,-0.12,0.09,1.00,
1.763,-0.86,0.51,0.04,-0.12,0.09,1.00,
1.764,-0.84,0.50,0.07,-0.12,0.09,1.00,
1.766,-0.84,0.50,0.07,-0.12,0.09,1.00,
1.768,-0.84,0.50,0.07,-0.12,0.09,1.00,
1.769,-0.79,0.47,0.09,-0.12,0.09,1.00,
1.771,-0.79,0.47,0.09,-0.12,0.08,1.00,
1.773,-0.79,0.47,0.09,-0.12,0.08,1.00,
1.774,-0.77,0.43,0.10,-0.12,0.08,1.00,
1.776,-0.77,0.43,0.10,-0.11,0.08,1.00,
1.778,-0.77,0.43,0.10,-0.11,0.08,1.00,
1.778,-0.73,0.38,0.14,-0.11,0.08,1.00,
1.78,-0.73,0.38,0.14,-0.11,0.08,1.00,
1.783,-0.73,0.38,0.14,-0.11,0.07,1.00,
1.783,-0.68,0.33,0.16,-0.11,0.07,1.00,
1.785,-0.68,0.33,0.16,-0.11,0.07,1.01,
1.793,-0.68,0.33,0.16,-0.11,0.07,1.01,
1.794,-0.63,0.27,0.16,-0.11,0.07,1.01,
1.794,-0.63,0.27,0.16,-0.11,0.07,1.01,
1.794,-0.59,0.22,0.18,-0.11,0.07,1.01,
1.795,-0.59,0.22,0.18,-0.11,0.06,1.00,
1.795,-0.59,0.22,0.18,-0.10,0.06,1.00,
1.799,-0.59,0.22,0.18,-0.10,0.06,1.00,
1.799,-0.59,0.18,0.17,-0.10,0.06,1.00,
1.8,-0.59,0.18,0.17,-0.10,0.06,1.00,
1.803,-0.59,0.18,0.17,-0.10,0.06,1.00,
1.803,-0.54,0.14,0.15,-0.10,0.06,1.00,
1.805,-0.54,0.14,0.15,-0.09,0.05,1.00,
1.807,-0.54,0.14,0.15,-0.10,0.05,1.00,
1.807,-0.51,0.10,0.14,-0.10,0.05,1.00,
1.809,-0.51,0.10,0.14,-0.09,0.05,1.00,
1.812,-0.51,0.10,0.14,-0.09,0.05,1.00,
1.812,-0.47,0.05,0.12,-0.09,0.05,1.00,
1.815,-0.47,0.05,0.12,-0.09,0.05,0.99,
1.817,-0.47,0.05,0.12,-0.09,0.05,0.99,
1.817,-0.44,0.03,0.08,-0.09,0.05,0.99,
1.819,-0.44,0.03,0.08,-0.09,0.05,0.99,
1.822,-0.44,0.03,0.08,-0.09,0.05,0.98,
1.823,-0.42,0.00,0.05,-0.09,0.05,0.98,
1.824,-0.42,0.00,0.05,-0.09,0.05,0.98,
1.827,-0.42,0.00,0.05,-0.09,0.04,0.98,
1.827,-0.40,-0.02,-0.02,-0.09,0.04,0.98,
1.829,-0.40,-0.02,-0.02,-0.08,0.04,0.97,
1.832,-0.40,-0.02,-0.02,-0.08,0.04,0.97,
1.832,-0.39,-0.04,-0.08,-0.08,0.04,0.97,
1.834,-0.39,-0.04,-0.08,-0.08,0.04,0.97,
1.837,-0.39,-0.04,-0.08,-0.08,0.04,0.96,
1.837,-0.35,-0.05,-0.15,-0.08,0.04,0.96,
1.839,-0.35,-0.05,-0.15,-0.07,0.04,0.96,
1.842,-0.35,-0.05,-0.15,-0.07,0.05,0.96,
1.842,-0.31,-0.06,-0.24,-0.07,0.05,0.96,
1.844,-0.31,-0.06,-0.24,-0.07,0.05,0.95,
1.846,-0.31,-0.06,-0.24,-0.07,0.05,0.95,
1.847,-0.27,-0.04,-0.30,-0.07,0.05,0.95,
1.849,-0.27,-0.04,-0.30,-0.07,0.05,0.95,
1.851,-0.27,-0.04,-0.30,-0.06,0.05,0.95,
1.852,-0.25,-0.01,-0.35,-0.06,0.05,0.95,
1.854,-0.25,-0.01,-0.35,-0.07,0.05,0.94,
1.856,-0.25,-0.01,-0.35,-0.06,0.06,0.94,
1.857,-0.21,0.03,-0.40,-0.06,0.06,0.94,
1.859,-0.21,0.03,-0.40,-0.07,0.06,0.94,
1.861,-0.21,0.03,-0.40,-0.07,0.06,0.94,
1.861,-0.21,0.07,-0.44,-0.07,0.06,0.94,
1.863,-0.21,0.07,-0.44,-0.07,0.06,0.94,
1.866,-0.21,0.07,-0.44,-0.07,0.07,0.94,
1.866,-0.22,0.12,-0.47,-0.07,0.07,0.94,
1.868,-0.22,0.12,-0.47,-0.06,0.07,0.94,
1.871,-0.22,0.12,-0.47,-0.06,0.07,0.94,
1.872,-0.21,0.16,-0.48,-0.06,0.07,0.94,
1.873,-0.21,0.16,-0.48,-0.07,0.07,0.94,
1.876,-0.21,0.16,-0.48,-0.07,0.07,0.94,
1.876,-0.19,0.17,-0.47,-0.07,0.07,0.94,
1.878,-0.19,0.17,-0.47,-0.07,0.07,0.94,
1.881,-0.19,0.17,-0.47,-0.07,0.07,0.94,
1.881,-0.21,0.22,-0.46,-0.07,0.07,0.94,
1.883,-0.21,0.22,-0.46,-0.07,0.07,0.94,
1.892,-0.21,0.22,-0.46,-0.07,0.08,0.94,
1.892,-0.22,0.24,-0.43,-0.07,0.08,0.94,
1.893,-0.22,0.24,-0.43,-0.07,0.08,0.95,
1.893,-0.21,0.26,-0.40,-0.07,0.08,0.95,
1.893,-0.21,0.26,-0.40,-0.07,0.08,0.95,
1.894,-0.21,0.26,-0.40,-0.07,0.08,0.95,
1.895,-0.21,0.26,-0.40,-0.07,0.08,0.95,
1.896,-0.21,0.28,-0.37,-0.07,0.08,0.95,
1.898,-0.21,0.28,-0.37,-0.07,0.08,0.95,
1.901,-0.21,0.28,-0.37,-0.07,0.08,0.95,
1.901,-0.22,0.31,-0.35,-0.07,0.08,0.95,
1.903,-0.22,0.31,-0.35,-0.07,0.08,0.95,
1.905,-0.22,0.31,-0.35,-0.07,0.08,0.95,
1.905,-0.22,0.31,-0.32,-0.07,0.08,0.95,
1.907,-0.22,0.31,-0.32,-0.07,0.08,0.96,
1.91,-0.22,0.31,-0.32,-0.07,0.08,0.96,
1.91,-0.21,0.32,-0.30,-0.07,0.08,0.96,
1.912,-0.21,0.32,-0.30,-0.07,0.08,0.96,
1.915,-0.21,0.32,-0.30,-0.06,0.08,0.96,
1.915,-0.19,0.29,-0.25,-0.06,0.08,0.96,
1.917,-0.19,0.29,-0.25,-0.06,0.08,0.96,
1.92,-0.19,0.29,-0.25,-0.06,0.08,0.96,
1.921,-0.13,0.29,-0.21,-0.06,0.08,0.96,
1.922,-0.13,0.29,-0.21,-0.06,0.09,0.97,
1.925,-0.13,0.29,-0.21,-0.05,0.09,0.97,
1.925,-0.06,0.30,-0.18,-0.05,0.09,0.97,
1.927,-0.06,0.30,-0.18,-0.05,0.09,0.97,
1.93,-0.06,0.30,-0.18,-0.05,0.09,0.97,
1.93,0.01,0.33,-0.15,-0.05,0.09,0.97,
1.932,0.01,0.33,-0.15,-0.04,0.09,0.97,
1.935,0.01,0.33,-0.15,-0.04,0.09,0.97,
1.935,0.07,0.34,-0.14,-0.04,0.09,0.97,
1.937,0.07,0.34,-0.14,-0.04,0.09,0.97,
1.939,0.07,0.34,-0.14,-0.04,0.09,0.97,
1.94,0.11,0.33,-0.13,-0.04,0.09,0.97,
1.942,0.11,0.33,-0.13,-0.04,0.09,0.97,
1.944,0.11,0.33,-0.13,-0.04,0.09,0.97,
1.945,0.14,0.33,-0.13,-0.04,0.09,0.97,
1.947,0.14,0.33,-0.13,-0.04,0.09,0.97,
1.949,0.14,0.33,-0.13,-0.04,0.09,0.97,
1.95,0.16,0.33,-0.11,-0.04,0.09,0.97,
1.953,0.16,0.33,-0.11,-0.04,0.09,0.97,
1.954,0.16,0.33,-0.11,-0.04,0.09,0.97,
1.955,0.16,0.34,-0.10,-0.04,0.09,0.97,
1.956,0.16,0.34,-0.10,-0.04,0.09,0.97,
1.959,0.16,0.34,-0.10,-0.05,0.09,0.97,
1.959,0.14,0.33,-0.11,-0.05,0.09,0.97,
1.961,0.14,0.33,-0.11,-0.05,0.10,0.97,
1.964,0.14,0.33,-0.11,-0.05,0.10,0.97,
1.964,0.11,0.35,-0.11,-0.05,0.10,0.97,
1.966,0.11,0.35,-0.11,-0.05,0.10,0.97,
1.97,0.11,0.35,-0.11,-0.05,0.10,0.97,
1.97,0.08,0.38,-0.10,-0.05,0.10,0.97,
1.971,0.08,0.38,-0.10,-0.06,0.10,0.97,
1.974,0.08,0.38,-0.10,-0.06,0.11,0.97,
1.974,0.05,0.40,-0.08,-0.06,0.11,0.97,
1.976,0.05,0.40,-0.08,-0.05,0.11,0.97,
1.979,0.05,0.40,-0.08,-0.06,0.11,0.97,
1.979,0.03,0.43,-0.08,-0.06,0.11,0.97,
1.981,0.03,0.43,-0.08,-0.06,0.11,0.97,
1.983,0.03,0.43,-0.08,-0.06,0.12,0.97,
1.984,0.03,0.48,-0.10,-0.06,0.12,0.97,
1.986,0.03,0.48,-0.10,-0.06,0.12,0.97,
1.988,0.03,0.48,-0.10,-0.06,0.12,0.97,
1.989,0.00,0.53,-0.10,-0.06,0.12,0.97,
1.991,0.00,0.53,-0.10,-0.06,0.12,0.97,
1.993,0.00,0.53,-0.10,-0.06,0.13,0.97,
1.994,-0.02,0.58,-0.10,-0.06,0.13,0.97,
1.996,-0.02,0.58,-0.10,-0.06,0.13,0.97,
1.998,-0.02,0.58,-0.10,-0.06,0.13,0.97,
1.999,-0.03,0.61,-0.07,-0.06,0.13,0.97,
2.001,-0.03,0.61,-0.07,-0.06,0.13,0.97,
2.008,-0.03,0.61,-0.07,-0.06,0.13,0.97,
2.009,-0.02,0.63,-0.07,-0.06,0.13,0.97,
2.009,-0.02,0.63,-0.07,-0.06,0.13,0.97,
2.01,-0.02,0.63,-0.07,-0.06,0.13,0.97,
2.01,-0.02,0.65,-0.06,-0.06,0.13,0.97,
2.011,-0.02,0.65,-0.06,-0.06,0.13,0.97,
2.013,-0.02,0.65,-0.06,-0.06,0.13,0.97,
2.013,0.00,0.65,-0.06,-0.06,0.13,0.97,
2.016,0.00,0.65,-0.06,-0.06,0.13,0.97,
2.018,0.00,0.65,-0.06,-0.05,0.13,0.97,
2.018,0.03,0.65,-0.06,-0.05,0.13,0.97,
2.021,0.03,0.65,-0.06,-0.05,0.13,0.97,
2.023,0.03,0.65,-0.06,-0.05,0.13,0.97,
2.023,0.07,0.63,-0.06,-0.05,0.13,0.97,
2.025,0.07,0.63,-0.06,-0.04,0.13,0.97,
2.027,0.07,0.63,-0.06,-0.04,0.12,0.97,
2.028,0.11,0.61,-0.08,-0.04,0.12,0.97,
2.03,0.11,0.61,-0.08,-0.04,0.12,0.97,
2.032,0.11,0.61,-0.08,-0.04,0.12,0.97,
2.033,0.18,0.57,-0.08,-0.04,0.12,0.97,
2.035,0.18,0.57,-0.08,-0.03,0.12,0.97,
2.038,0.18,0.57,-0.08,-0.03,0.12,0.97,
2.038,0.24,0.55,-0.08,-0.03,0.12,0.97,
2.04,0.24,0.55,-0.08,-0.03,0.12,0.97,
2.043,0.24,0.55,-0.08,-0.03,0.12,0.97,
2.043,0.28,0.53,-0.07,-0.03,0.12,0.97,
2.044,0.28,0.53,-0.07,-0.02,0.12,0.98,
2.047,0.28,0.53,-0.07,-0.02,0.11,0.97,
2.047,0.34,0.49,-0.05,-0.02,0.11,0.97,
2.049,0.34,0.49,-0.05,-0.02,0.11,0.97,
2.052,0.34,0.49,-0.05,-0.02,0.11,0.97,
2.053,0.37,0.45,-0.04,-0.02,0.11,0.97,
2.055,0.37,0.45,-0.04,-0.02,0.11,0.98,
2.057,0.37,0.45,-0.04,-0.02,0.11,0.98,
2.057,0.39,0.40,-0.05,-0.02,0.11,0.98,
2.059,0.39,0.40,-0.05,-0.02,0.11,0.98,
2.062,0.39,0.40,-0.05,-0.02,0.11,0.97,
2.062,0.41,0.39,-0.03,-0.02,0.11,0.97,
2.064,0.41,0.39,-0.03,-0.02,0.11,0.97,
2.067,0.41,0.39,-0.03,-0.02,0.11,0.97,
2.067,0.41,0.38,-0.04,-0.02,0.11,0.97,
2.069,0.41,0.38,-0.04,-0.02,0.11,0.97,
2.072,0.41,0.38,-0.04,-0.02,0.11,0.97,
2.072,0.41,0.39,-0.05,-0.02,0.11,0.97,
2.074,0.41,0.39,-0.05,-0.02,0.11,0.97,
2.076,0.41,0.39,-0.05,-0.02,0.11,0.97,
2.077,0.41,0.38,-0.07,-0.02,0.11,0.97,
2.079,0.41,0.38,-0.07,-0.03,0.12,0.97,
2.081,0.41,0.38,-0.07,-0.03,0.12,0.97,
2.082,0.39,0.39,-0.08,-0.03,0.12,0.97,
2.084,0.39,0.39,-0.08,-0.03,0.11,0.97,
2.091,0.39,0.39,-0.08,-0.03,0.11,0.97,
2.092,0.33,0.41,-0.07,-0.03,0.11,0.97,
2.092,0.33,0.41,-0.07,-0.03,0.12,0.97,
2.092,0.33,0.41,-0.07,-0.03,0.12,0.97,
2.093,0.31,0.38,-0.06,-0.03,0.12,0.97,
2.094,0.31,0.38,-0.06,-0.03,0.12,0.98,
2.096,0.31,0.38,-0.06,-0.03,0.12,0.98,
2.096,0.31,0.40,-0.04,-0.03,0.12,0.98,
2.098,0.31,0.40,-0.04,-0.03,0.12,0.98,
2.101,0.31,0.40,-0.04,-0.03,0.12,0.98,
2.102,0.34,0.41,-0.00,-0.03,0.12,0.98,
2.103,0.34,0.41,-0.00,-0.02,0.12,0.98,
2.106,0.34,0.41,-0.00,-0.03,0.12,0.98,
2.106,0.35,0.40,0.01,-0.03,0.12,0.98,
2.108,0.35,0.40,0.01,-0.03,0.12,0.99,
2.111,0.35,0.40,0.01,-0.03,0.12,0.99,
2.111,0.38,0.40,0.04,-0.03,0.12,0.99,
2.113,0.38,0.40,0.04,-0.02,0.11,0.99,
2.116,0.38,0.40,0.04,-0.03,0.11,0.99,
2.116,0.38,0.39,0.08,-0.03,0.11,0.99,
2.119,0.38,0.39,0.08,-0.03,0.11,1.00,
2.121,0.38,0.39,0.08,-0.03,0.11,1.00,
2.121,0.39,0.34,0.14,-0.03,0.11,1.00,
2.123,0.39,0.34,0.14,-0.03,0.11,1.00,
2.126,0.39,0.34,0.14,-0.03,0.11,1.00,
2.126,0.38,0.31,0.17,-0.03,0.11,1.00,
2.128,0.38,0.31,0.17,-0.03,0.11,1.00,
2.13,0.38,0.31,0.17,-0.03,0.10,1.00,
2.13,0.38,0.28,0.22,-0.03,0.10,1.00,
2.132,0.38,0.28,0.22,-0.03,0.10,1.00,
2.136,0.38,0.28,0.22,-0.03,0.10,1.00,
2.137,0.39,0.24,0.24,-0.03,0.10,1.00,
2.138,0.39,0.24,0.24,-0.03,0.10,1.00,
2.141,0.39,0.24,0.24,-0.03,0.10,1.00,
2.141,0.37,0.22,0.25,-0.03,0.10,1.00,
2.143,0.37,0.22,0.25,-0.03,0.10,1.00,
2.145,0.37,0.22,0.25,-0.03,0.10,1.00,
2.145,0.38,0.18,0.24,-0.03,0.10,1.00,
2.147,0.38,0.18,0.24,-0.03,0.10,1.00,
2.15,0.38,0.18,0.24,-0.02,0.10,1.00,
2.15,0.38,0.14,0.20,-0.02,0.10,1.00,
2.152,0.38,0.14,0.20,-0.02,0.10,0.99,
2.155,0.38,0.14,0.20,-0.03,0.10,0.99,
2.155,0.43,0.16,0.17,-0.03,0.10,0.99,
2.157,0.43,0.16,0.17,-0.03,0.10,0.99,
2.16,0.43,0.16,0.17,-0.02,0.11,0.99,
2.16,0.43,0.17,0.11,-0.02,0.11,0.99,
2.162,0.43,0.17,0.11,-0.02,0.11,0.98,
2.165,0.43,0.17,0.11,-0.02,0.11,0.98,
2.165,0.42,0.19,0.09,-0.02,0.11,0.98,
2.167,0.42,0.19,0.09,-0.03,0.11,0.98,
2.17,0.42,0.19,0.09,-0.03,0.11,0.98,
2.17,0.44,0.20,0.05,-0.03,0.11,0.98,
2.172,0.44,0.20,0.05,-0.03,0.11,0.98,
2.175,0.44,0.20,0.05,-0.03,0.11,0.98,
2.175,0.39,0.20,0.02,-0.03,0.11,0.98,
2.177,0.39,0.20,0.02,-0.03,0.11,0.97,
2.179,0.39,0.20,0.02,-0.03,0.11,0.97,
2.18,0.34,0.19,-0.02,-0.03,0.11,0.97,
2.182,0.34,0.19,-0.02,-0.03,0.11,0.97,
2.186,0.34,0.19,-0.02,-0.03,0.11,0.97,
2.186,0.36,0.17,-0.05,-0.03,0.11,0.97,
2.187,0.36,0.17,-0.05,-0.03,0.11,0.97,
2.189,0.36,0.17,-0.05,-0.02,0.11,0.97,
2.19,0.38,0.16,-0.07,-0.02,0.11,0.97,
2.192,0.38,0.16,-0.07,-0.02,0.11,0.97,
2.194,0.38,0.16,-0.07,-0.02,0.11,0.97,
2.194,0.41,0.14,-0.09,-0.02,0.11,0.97,
2.196,0.41,0.14,-0.09,-0.02,0.11,0.97,
2.199,0.41,0.14,-0.09,-0.02,0.11,0.97,
2.199,0.45,0.14,-0.10,-0.02,0.11,0.97,
2.202,0.45,0.14,-0.10,-0.01,0.10,0.97,
2.204,0.45,0.14,-0.10,-0.01,0.10,0.97,
2.204,0.49,0.13,-0.09,-0.01,0.10,0.97,
2.206,0.49,0.13,-0.09,-0.01,0.10,0.97,
2.209,0.49,0.13,-0.09,-0.01,0.09,0.98,
2.209,0.54,0.08,-0.07,-0.01,0.09,0.98,
2.211,0.54,0.08,-0.07,-0.00,0.09,0.98,
2.214,0.54,0.08,-0.07,-0.01,0.09,0.98,
2.214,0.60,0.03,-0.02,-0.01,0.09,0.98,
2.216,0.60,0.03,-0.02,-0.00,0.09,0.99,
2.225,0.60,0.03,-0.02,-0.00,0.09,0.99,
2.226,0.61,-0.02,0.05,-0.00,0.09,0.99,
2.227,0.61,-0.02,0.05,-0.00,0.08,0.99,
2.227,0.61,-0.02,0.05,-0.00,0.08,0.99,
2.227,0.63,-0.07,0.09,-0.00,0.08,0.99,
2.228,0.63,-0.07,0.09,0.00,0.08,1.00,
2.228,0.63,-0.07,0.09,0.00,0.08,1.00,
2.229,0.64,-0.12,0.14,0.00,0.08,1.00,
2.231,0.64,-0.12,0.14,0.00,0.08,1.00,
2.233,0.64,-0.12,0.14,0.00,0.08,1.00,
2.234,0.67,-0.14,0.17,0.00,0.08,1.00,
2.242,0.67,-0.14,0.17,0.00,0.08,1.00,
2.242,0.67,-0.14,0.17,0.00,0.08,1.00,
2.243,0.67,-0.14,0.21,0.00,0.08,1.00,
2.243,0.67,-0.14,0.21,0.00,0.08,1.00,
2.243,0.67,-0.14,0.21,0.00,0.08,1.00,
2.244,0.67,-0.17,0.21,0.00,0.08,1.00,
2.245,0.67,-0.17,0.21,0.00,0.08,1.00,
2.248,0.67,-0.17,0.21,0.00,0.08,1.00,
2.248,0.66,-0.16,0.20,0.00,0.08,1.00,
2.25,0.66,-0.16,0.20,0.00,0.08,1.00,
2.253,0.66,-0.16,0.20,0.00,0.08,0.99,
2.253,0.66,-0.18,0.18,0.00,0.08,0.99,
2.255,0.66,-0.18,0.18,0.00,0.08,0.99,
2.258,0.66,-0.18,0.18,0.00,0.09,0.99,
2.258,0.64,-0.15,0.16,0.00,0.09,0.99,
2.26,0.64,-0.15,0.16,0.00,0.09,0.99,
2.263,0.64,-0.15,0.16,0.00,0.08,0.99,
2.263,0.65,-0.11,0.13,0.00,0.08,0.99,
2.265,0.65,-0.11,0.13,-0.00,0.08,0.99,
2.268,0.65,-0.11,0.13,-0.00,0.08,0.98,
2.268,0.63,-0.12,0.11,-0.00,0.08,0.98,
2.27,0.63,-0.12,0.11,-0.00,0.08,0.98,
2.273,0.63,-0.12,0.11,0.00,0.08,0.98,
2.273,0.58,-0.15,0.06,0.00,0.08,0.98,
2.275,0.58,-0.15,0.06,0.00,0.08,0.98,
2.278,0.58,-0.15,0.06,0.00,0.08,0.98,
2.278,0.58,-0.16,0.02,0.00,0.08,0.98,
2.28,0.58,-0.16,0.02,0.01,0.08,0.97,
2.282,0.58,-0.16,0.02,0.01,0.08,0.97,
2.283,0.60,-0.15,-0.02,0.01,0.08,0.97,
2.285,0.60,-0.15,-0.02,0.01,0.08,0.97,
2.287,0.60,-0.15,-0.02,0.01,0.08,0.97,
2.288,0.63,-0.15,-0.05,0.01,0.08,0.97,
2.29,0.63,-0.15,-0.05,0.01,0.08,0.97,
2.292,0.63,-0.15,-0.05,0.01,0.08,0.97,
2.292,0.65,-0.16,-0.08,0.01,0.08,0.97,
2.295,0.65,-0.16,-0.08,0.01,0.08,0.97,
2.297,0.65,-0.16,-0.08,0.01,0.07,0.98,
2.297,0.68,-0.16,-0.07,0.01,0.07,0.98,
2.299,0.68,-0.16,-0.07,0.01,0.07,0.98,
2.303,0.68,-0.16,-0.07,0.01,0.07,0.98,
2.303,0.69,-0.22,-0.04,0.01,0.07,0.98,
2.305,0.69,-0.22,-0.04,0.01,0.07,0.98,
2.308,0.69,-0.22,-0.04,0.01,0.07,0.99,
2.308,0.66,-0.25,0.01,0.01,0.07,0.99,
2.309,0.66,-0.25,0.01,0.01,0.07,0.99,
2.312,0.66,-0.25,0.01,0.01,0.07,1.00,
2.314,0.66,-0.27,0.07,0.01,0.07,1.00,
2.315,0.66,-0.27,0.07,0.02,0.07,1.00,
2.317,0.66,-0.27,0.07,0.01,0.06,1.00,
2.317,0.68,-0.28,0.15,0.01,0.06,1.00,
2.324,0.68,-0.28,0.15,0.01,0.06,1.01,
2.324,0.68,-0.28,0.15,0.01,0.06,1.01,
2.325,0.69,-0.31,0.22,0.01,0.06,1.01,
2.325,0.69,-0.31,0.22,0.01,0.06,1.01,
2.326,0.69,-0.31,0.22,0.00,0.06,1.02,
2.326,0.65,-0.34,0.28,0.00,0.06,1.02,
2.329,0.65,-0.34,0.28,0.00,0.06,1.02,
2.331,0.65,-0.34,0.28,0.00,0.06,1.02,
2.331,0.62,-0.37,0.36,0.00,0.06,1.02,
2.333,0.62,-0.37,0.36,0.00,0.06,1.02,
2.336,0.62,-0.37,0.36,-0.00,0.06,1.03,
2.337,0.58,-0.38,0.43,-0.00,0.06,1.03,
2.338,0.58,-0.38,0.43,-0.00,0.06,1.03,
2.341,0.58,-0.38,0.43,-0.00,0.06,1.03,
2.341,0.55,-0.40,0.45,-0.00,0.06,1.03,
2.343,0.55,-0.40,0.45,-0.00,0.06,1.03,
2.346,0.55,-0.40,0.45,-0.00,0.07,1.02,
2.346,0.52,-0.38,0.46,-0.00,0.07,1.02,
2.348,0.52,-0.38,0.46,-0.01,0.07,1.02,
2.351,0.52,-0.38,0.46,-0.01,0.07,1.02,
2.351,0.50,-0.34,0.44,-0.01,0.07,1.02,
2.353,0.50,-0.34,0.44,-0.01,0.07,1.02,
2.356,0.50,-0.34,0.44,-0.01,0.07,1.01,
2.357,0.47,-0.31,0.39,-0.01,0.07,1.01,
2.358,0.47,-0.31,0.39,-0.02,0.07,1.01,
2.36,0.47,-0.31,0.39,-0.01,0.08,1.01,
2.361,0.43,-0.29,0.34,-0.01,0.08,1.01,
2.363,0.43,-0.29,0.34,-0.01,0.08,1.00,
2.365,0.43,-0.29,0.34,-0.01,0.08,1.00,
2.366,0.38,-0.27,0.27,-0.01,0.08,1.00,
2.368,0.38,-0.27,0.27,-0.01,0.08,1.00,
2.371,0.38,-0.27,0.27,-0.01,0.08,0.99,
2.371,0.38,-0.25,0.18,-0.01,0.08,0.99,
2.373,0.38,-0.25,0.18,-0.01,0.08,0.99,
2.375,0.38,-0.25,0.18,-0.01,0.08,0.98,
2.376,0.39,-0.25,0.12,-0.01,0.08,0.98,
2.377,0.39,-0.25,0.12,-0.01,0.08,0.98,
2.38,0.39,-0.25,0.12,-0.01,0.08,0.98,
2.381,0.37,-0.24,0.03,-0.01,0.08,0.98,
2.383,0.37,-0.24,0.03,-0.01,0.08,0.97,
2.385,0.37,-0.24,0.03,-0.01,0.07,0.97,
2.386,0.36,-0.26,-0.04,-0.01,0.07,0.97,
2.387,0.36,-0.26,-0.04,-0.02,0.07,0.97,
2.39,0.36,-0.26,-0.04,-0.01,0.07,0.96,
2.39,0.35,-0.29,-0.10,-0.01,0.07,0.96,
2.392,0.35,-0.29,-0.10,-0.01,0.07,0.96,
2.395,0.35,-0.29,-0.10,-0.01,0.07,0.96,
2.395,0.35,-0.33,-0.16,-0.01,0.07,0.96,
2.397,0.35,-0.33,-0.16,-0.01,0.07,0.96,
2.4,0.35,-0.33,-0.16,-0.01,0.07,0.96,
2.4,0.36,-0.33,-0.19,-0.01,0.07,0.96,
2.407,0.36,-0.33,-0.19,-0.01,0.07,0.96,
2.407,0.36,-0.33,-0.19,-0.00,0.07,0.96,
2.408,0.40,-0.32,-0.20,-0.00,0.07,0.96,
2.408,0.40,-0.32,-0.20,-0.00,0.07,0.96,
2.41,0.40,-0.32,-0.20,-0.00,0.07,0.96,
2.41,0.43,-0.32,-0.21,-0.00,0.07,0.96,
2.412,0.43,-0.32,-0.21,-0.00,0.07,0.96,
2.415,0.43,-0.32,-0.21,-0.00,0.07,0.96,
2.415,0.44,-0.32,-0.19,-0.00,0.07,0.96,
2.417,0.44,-0.32,-0.19,-0.00,0.07,0.96,
2.422,0.44,-0.32,-0.19,-0.00,0.08,0.96,
2.423,0.44,-0.33,-0.15,-0.00,0.08,0.96,
2.423,0.44,-0.33,-0.15,-0.01,0.08,0.97,
2.424,0.44,-0.33,-0.15,-0.01,0.07,0.97,
2.424,0.43,-0.33,-0.14,-0.01,0.07,0.97,
2.426,0.43,-0.33,-0.14,-0.01,0.07,0.97,
2.429,0.43,-0.33,-0.14,-0.01,0.08,0.98,
2.429,0.39,-0.31,-0.08,-0.01,0.08,0.98,
2.431,0.39,-0.31,-0.08,-0.01,0.08,0.98,
2.434,0.39,-0.31,-0.08,-0.01,0.08,0.98,
2.434,0.35,-0.32,-0.04,-0.01,0.08,0.98,
2.436,0.35,-0.32,-0.04,-0.02,0.08,0.98,
2.439,0.35,-0.32,-0.04,-0.02,0.08,0.98,
2.442,0.34,-0.32,-0.01,-0.02,0.08,0.98,
2.442,0.34,-0.32,-0.01,-0.02,0.08,0.98,
2.444,0.34,-0.32,-0.01,-0.02,0.08,0.98,
2.444,0.29,-0.28,0.02,-0.02,0.08,0.98,
2.446,0.29,-0.28,0.02,-0.02,0.08,0.98,
2.449,0.29,-0.28,0.02,-0.02,0.08,0.98,
2.449,0.29,-0.27,0.03,-0.02,0.08,0.98,
2.451,0.29,-0.27,0.03,-0.02,0.08,0.98,
2.454,0.29,-0.27,0.03,-0.02,0.08,0.98,
2.454,0.25,-0.27,0.03,-0.02,0.08,0.98,
2.456,0.25,-0.27,0.03,-0.02,0.08,0.98,
2.458,0.25,-0.27,0.03,-0.02,0.08,0.98,
2.458,0.25,-0.26,0.02,-0.02,0.08,0.98,
2.461,0.25,-0.26,0.02,-0.02,0.08,0.98,
2.463,0.25,-0.26,0.02,-0.02,0.08,0.98,
2.463,0.25,-0.27,0.02,-0.02,0.08,0.98,
2.466,0.25,-0.27,0.02,-0.02,0.08,0.98,
2.468,0.25,-0.27,0.02,-0.01,0.08,0.97,
2.469,0.28,-0.28,-0.02,-0.01,0.08,0.97,
2.47,0.28,-0.28,-0.02,-0.01,0.08,0.97,
2.473,0.28,-0.28,-0.02,-0.01,0.08,0.97,
2.473,0.30,-0.30,-0.03,-0.01,0.08,0.97,
2.475,0.30,-0.30,-0.03,-0.01,0.07,0.97,
2.478,0.30,-0.30,-0.03,-0.01,0.07,0.97,
2.478,0.32,-0.32,-0.05,-0.01,0.07,0.97,
2.48,0.32,-0.32,-0.05,-0.01,0.07,0.97,
2.483,0.32,-0.32,-0.05,-0.00,0.07,0.96,
2.483,0.34,-0.36,-0.08,-0.00,0.07,0.96,
2.485,0.34,-0.36,-0.08,-0.00,0.07,0.96,
2.488,0.34,-0.36,-0.08,-0.00,0.07,0.96,
2.488,0.39,-0.39,-0.12,-0.00,0.07,0.96,
2.49,0.39,-0.39,-0.12,0.00,0.07,0.96,
2.492,0.39,-0.39,-0.12,0.00,0.07,0.96,
2.493,0.42,-0.40,-0.14,0.00,0.07,0.96,
2.495,0.42,-0.40,-0.14,0.01,0.07,0.96,
2.497,0.42,-0.40,-0.14,0.01,0.07,0.96,
2.497,0.45,-0.42,-0.14,0.01,0.07,0.96,
2.502,0.45,-0.42,-0.14,0.01,0.07,0.96,
2.503,0.45,-0.42,-0.14,0.02,0.07,0.96,
2.503,0.51,-0.42,-0.14,0.02,0.07,0.96,
2.505,0.51,-0.42,-0.14,0.01,0.07,0.96,
2.507,0.51,-0.42,-0.14,0.02,0.07,0.96,
2.507,0.56,-0.43,-0.15,0.02,0.07,0.96,
2.509,0.56,-0.43,-0.15,0.01,0.07,0.96,
2.512,0.56,-0.43,-0.15,0.02,0.07,0.96,
2.512,0.57,-0.43,-0.13,0.02,0.07,0.96,
2.514,0.57,-0.43,-0.13,0.02,0.07,0.96,
2.518,0.57,-0.44,-0.12,0.02,0.07,0.96,
2.518,0.57,-0.44,-0.12,0.02,0.07,0.97,
2.52,0.57,-0.44,-0.12,0.02,0.06,0.96,
2.523,0.57,-0.44,-0.12,0.02,0.06,0.97,
2.523,0.60,-0.45,-0.12,0.02,0.06,0.97,
2.524,0.60,-0.45,-0.12,0.02,0.06,0.97,
2.527,0.60,-0.45,-0.12,0.02,0.06,0.97,
2.527,0.61,-0.47,-0.11,0.02,0.06,0.97,
2.529,0.61,-0.47,-0.11,0.02,0.06,0.97,
2.532,0.61,-0.47,-0.11,0.02,0.06,0.97,
2.532,0.58,-0.48,-0.10,0.02,0.06,0.97,
2.534,0.58,-0.48,-0.10,0.02,0.06,0.97,
2.537,0.58,-0.48,-0.10,0.02,0.07,0.97,
2.537,0.58,-0.47,-0.07,0.02,0.07,0.97,
2.539,0.58,-0.47,-0.07,0.01,0.07,0.97,
2.542,0.58,-0.47,-0.07,0.01,0.07,0.97,
2.542,0.56,-0.45,-0.05,0.01,0.07,0.97,
2.544,0.56,-0.45,-0.05,0.01,0.07,0.97,
2.547,0.56,-0.45,-0.05,0.01,0.07,0.97,
2.547,0.52,-0.42,-0.04,0.01,0.07,0.97,
2.549,0.52,-0.42,-0.04,0.01,0.07,0.97,
2.558,0.52,-0.42,-0.04,0.01,0.07,0.97,
2.558,0.51,-0.40,-0.02,0.01,0.07,0.97,
2.559,0.51,-0.40,-0.02,0.00,0.07,0.98,
2.559,0.51,-0.40,-0.02,0.00,0.08,0.97,
2.559,0.46,-0.39,-0.02,0.00,0.08,0.97,
2.56,0.46,-0.39,-0.02,0.00,0.08,0.97,
2.562,0.46,-0.39,-0.02,-0.00,0.08,0.97,
2.562,0.42,-0.36,-0.02,-0.00,0.08,0.97,
2.564,0.42,-0.36,-0.02,-0.00,0.08,0.97,
2.567,0.42,-0.36,-0.02,-0.01,0.08,0.97,
2.567,0.38,-0.33,-0.02,-0.01,0.08,0.97,
2.569,0.38,-0.33,-0.02,-0.01,0.08,0.97,
2.571,0.32,-0.32,-0.05,-0.01,0.08,0.97,
2.572,0.32,-0.32,-0.05,-0.01,0.08,0.97,
2.573,0.32,-0.32,-0.05,-0.01,0.08,0.97,
2.576,0.32,-0.32,-0.05,-0.01,0.08,0.97,
2.576,0.29,-0.30,-0.05,-0.01,0.08,0.97,
2.579,0.29,-0.30,-0.05,-0.01,0.08,0.97,
2.581,0.29,-0.30,-0.05,-0.02,0.09,0.97,
2.582,0.27,-0.28,-0.06,-0.02,0.09,0.97,
2.584,0.27,-0.28,-0.06,-0.02,0.09,0.97,
2.587,0.27,-0.28,-0.06,-0.02,0.09,0.97,
2.587,0.22,-0.25,-0.07,-0.02,0.09,0.97,
2.588,0.22,-0.25,-0.07,-0.02,0.09,0.97,
2.591,0.22,-0.25,-0.07,-0.02,0.09,0.97,
2.591,0.22,-0.23,-0.05,-0.02,0.09,0.97,
2.593,0.22,-0.23,-0.05,-0.02,0.09,0.97,
2.595,0.22,-0.23,-0.05,-0.02,0.09,0.98,
2.596,0.22,-0.22,-0.03,-0.02,0.09,0.98,
2.598,0.22,-0.22,-0.03,-0.02,0.09,0.98,
2.601,0.22,-0.22,-0.03,-0.02,0.09,0.98,
2.601,0.20,-0.21,-0.01,-0.02,0.09,0.98,
2.603,0.20,-0.21,-0.01,-0.02,0.08,0.98,
2.605,0.20,-0.21,-0.01,-0.02,0.08,0.98,
2.606,0.18,-0.23,0.02,-0.02,0.08,0.98,
2.608,0.18,-0.23,0.02,-0.02,0.08,0.98,
2.61,0.18,-0.23,0.02,-0.02,0.08,0.98,
2.61,0.18,-0.25,0.03,-0.02,0.08,0.98,
2.613,0.18,-0.25,0.03,-0.02,0.08,0.98,
2.615,0.19,-0.27,0.07,-0.02,0.08,0.98,
2.616,0.19,-0.27,0.07,-0.01,0.08,0.98,
2.623,0.19,-0.27,0.07,-0.01,0.08,0.99,
2.623,0.19,-0.27,0.07,-0.01,0.08,0.99,
2.624,0.21,-0.27,0.08,-0.01,0.08,0.99,
2.624,0.21,-0.27,0.08,-0.01,0.08,0.99,
2.625,0.21,-0.27,0.08,-0.01,0.08,0.99,
2.625,0.27,-0.28,0.11,-0.01,0.08,0.99,
2.627,0.27,-0.28,0.11,-0.00,0.08,0.99,
2.633,0.27,-0.28,0.11,-0.00,0.08,0.99,
2.633,0.30,-0.28,0.12,-0.00,0.08,0.99,
2.633,0.30,-0.28,0.12,-0.00,0.08,0.99,
2.636,0.30,-0.28,0.12,-0.00,0.08,0.99,
2.637,0.32,-0.29,0.13,-0.00,0.08,0.99,
2.637,0.32,-0.29,0.13,-0.00,0.08,0.99,
2.64,0.32,-0.29,0.13,-0.00,0.07,0.99,
2.64,0.31,-0.29,0.14,-0.00,0.07,0.99,
2.642,0.31,-0.29,0.14,-0.01,0.07,0.99,
2.644,0.31,-0.29,0.14,-0.00,0.07,0.99,
2.645,0.32,-0.31,0.15,-0.00,0.07,0.99,
2.647,0.32,-0.31,0.15,-0.00,0.07,0.99,
2.649,0.32,-0.31,0.15,-0.00,0.07,0.99,
2.649,0.29,-0.33,0.15,-0.00,0.07,0.99,
2.652,0.29,-0.33,0.15,-0.01,0.07,0.99,
2.655,0.29,-0.33,0.13,-0.01,0.07,0.99,
2.655,0.29,-0.33,0.13,-0.01,0.07,0.99,
2.657,0.29,-0.33,0.13,-0.01,0.08,0.99,
2.659,0.29,-0.33,0.13,-0.01,0.08,0.99,
2.659,0.25,-0.31,0.11,-0.01,0.08,0.99,
2.661,0.25,-0.31,0.11,-0.01,0.08,0.99,
2.664,0.25,-0.31,0.11,-0.01,0.08,0.99,
2.664,0.22,-0.26,0.09,-0.01,0.08,0.99,
2.667,0.22,-0.26,0.09,-0.02,0.08,0.98,
2.669,0.22,-0.26,0.09,-0.02,0.09,0.98,
2.67,0.19,-0.24,0.08,-0.02,0.09,0.98,
2.672,0.19,-0.24,0.08,-0.02,0.09,0.98,
2.674,0.19,-0.24,0.08,-0.02,0.09,0.98,
2.674,0.16,-0.21,0.06,-0.02,0.09,0.98,
2.676,0.16,-0.21,0.06,-0.02,0.09,0.98,
2.679,0.16,-0.21,0.06,-0.02,0.09,0.98,
2.679,0.14,-0.19,0.04,-0.02,0.09,0.98,
2.681,0.14,-0.19,0.04,-0.02,0.09,0.98,
2.684,0.14,-0.19,0.04,-0.02,0.09,0.98,
2.685,0.12,-0.17,0.04,-0.02,0.09,0.98,
2.686,0.12,-0.17,0.04,-0.03,0.09,0.98,
2.689,0.12,-0.17,0.04,-0.03,0.09,0.98,
2.689,0.08,-0.14,0.05,-0.03,0.09,0.98,
2.691,0.08,-0.14,0.05,-0.03,0.09,0.98,
2.693,0.08,-0.14,0.05,-0.03,0.10,0.98,
2.694,0.03,-0.13,0.04,-0.03,0.10,0.98,
2.696,0.03,-0.13,0.04,-0.03,0.10,0.98,
2.698,0.03,-0.13,0.04,-0.04,0.10,0.98,
2.699,-0.00,-0.11,0.05,-0.04,0.10,0.98,
2.701,-0.00,-0.11,0.05,-0.04,0.10,0.99,
2.703,-0.00,-0.11,0.05,-0.04,0.10,0.99,
2.704,-0.03,-0.07,0.06,-0.04,0.10,0.99,
2.706,-0.03,-0.07,0.06,-0.03,0.10,0.99,
2.708,-0.03,-0.07,0.06,-0.04,0.10,0.99,
2.708,-0.05,-0.06,0.10,-0.04,0.10,0.99,
2.71,-0.05,-0.06,0.10,-0.04,0.10,0.99,
2.713,-0.05,-0.06,0.10,-0.04,0.10,0.99,
2.713,-0.05,-0.05,0.11,-0.04,0.10,0.99,
2.716,-0.05,-0.05,0.11,-0.04,0.10,0.99,
2.723,-0.05,-0.05,0.11,-0.04,0.10,0.99,
2.724,-0.08,-0.04,0.14,-0.04,0.10,0.99,
2.724,-0.08,-0.04,0.14,-0.04,0.10,0.99,
2.725,-0.08,-0.04,0.14,-0.04,0.10,0.99,
2.725,-0.09,-0.04,0.14,-0.04,0.10,0.99,
2.725,-0.09,-0.04,0.14,-0.04,0.10,0.99,
2.728,-0.09,-0.04,0.14,-0.04,0.10,0.99,
2.728,-0.10,-0.05,0.15,-0.04,0.10,0.99,
2.73,-0.10,-0.05,0.15,-0.04,0.10,0.99,
2.736,-0.10,-0.05,0.15,-0.04,0.10,0.99,
2.737,-0.09,-0.02,0.13,-0.04,0.10,0.99,
2.737,-0.09,-0.02,0.13,-0.04,0.10,0.99,
2.738,-0.09,-0.02,0.13,-0.04,0.10,0.99,
2.738,-0.09,-0.02,0.12,-0.04,0.10,0.99,
2.74,-0.09,-0.02,0.12,-0.04,0.10,0.99,
2.743,-0.10,-0.04,0.11,-0.04,0.10,0.99,
2.743,-0.10,-0.04,0.11,-0.04,0.10,0.99,
2.745,-0.10,-0.04,0.11,-0.04,0.10,0.99,
2.747,-0.10,-0.04,0.11,-0.04,0.11,0.99,
2.747,-0.09,-0.01,0.09,-0.04,0.11,0.99,
2.75,-0.09,-0.01,0.09,-0.04,0.10,0.98,
2.752,-0.09,-0.01,0.09,-0.05,0.10,0.89,
2.752,-0.12,-0.01,0.09,-0.05,0.10,0.89,
2.755,-0.12,-0.01,0.09,-0.07,0.11,0.76,
2.757,-0.12,-0.01,0.09,-0.05,0.13,0.74,
2.757,-0.16,-0.02,-0.39,-0.05,0.13,0.74,
2.759,-0.16,-0.02,-0.39,-0.03,0.14,0.82,
2.762,-0.16,-0.02,-0.39,-0.03,0.13,0.90,
2.762,-0.29,0.15,-2.23,-0.03,0.13,0.90,
2.764,-0.29,0.15,-2.23,-0.05,0.12,0.94,
2.768,-0.29,0.15,-2.23,-0.07,0.11,0.96,
2.768,-0.03,0.30,-1.15,-0.07,0.11,0.96,
2.77,-0.03,0.30,-1.15,-0.07,0.10,0.96,
2.772,-0.03,0.30,-1.15,-0.07,0.10,0.95,
2.773,-0.28,0.14,-0.24,-0.07,0.10,0.95,
2.774,-0.28,0.14,-0.24,-0.06,0.10,0.94,
2.777,-0.28,0.14,-0.24,-0.05,0.10,0.94,
2.777,-0.42,-0.01,-0.20,-0.05,0.10,0.94,
2.779,-0.42,-0.01,-0.20,-0.05,0.10,0.95,
2.781,-0.42,-0.01,-0.20,-0.05,0.10,0.96,
2.782,-0.27,-0.00,-0.33,-0.05,0.10,0.96,
2.784,-0.27,-0.00,-0.33,-0.06,0.10,0.98,
2.786,-0.27,-0.00,-0.33,-0.06,0.10,0.99,
2.787,-0.20,0.04,-0.20,-0.06,0.10,0.99,
2.789,-0.20,0.04,-0.20,-0.06,0.09,1.00,
2.791,-0.20,0.04,-0.20,-0.06,0.09,1.01,
2.792,-0.26,0.02,0.11,-0.06,0.09,1.01,
2.794,-0.26,0.02,0.11,-0.06,0.09,1.02,
2.796,-0.26,0.02,0.11,-0.06,0.09,1.03,
2.796,-0.27,-0.05,0.32,-0.06,0.09,1.03,
2.799,-0.27,-0.05,0.32,-0.06,0.09,1.03,
2.804,-0.27,-0.05,0.32,-0.06,0.09,1.04,
2.806,-0.28,-0.08,0.46,-0.06,0.09,1.04,
2.806,-0.28,-0.08,0.46,-0.06,0.09,1.05,
2.806,-0.28,-0.08,0.46,-0.06,0.09,1.05,
2.806,-0.29,-0.07,0.58,-0.06,0.09,1.05,
2.809,-0.29,-0.07,0.58,-0.06,0.09,1.05,
2.811,-0.29,-0.07,0.58,-0.05,0.09,1.05,
2.811,-0.30,-0.05,0.69,-0.05,0.09,1.05,
2.813,-0.30,-0.05,0.69,-0.05,0.09,1.05,
2.816,-0.30,-0.05,0.69,-0.05,0.09,1.04,
2.816,-0.27,-0.06,0.71,-0.05,0.09,1.04,
2.818,-0.27,-0.06,0.71,-0.04,0.09,1.04,
2.821,-0.27,-0.06,0.71,-0.04,0.09,1.03,
2.821,-0.19,-0.07,0.65,-0.04,0.09,1.03,
2.823,-0.19,-0.07,0.65,-0.03,0.09,1.02,
2.826,-0.19,-0.07,0.65,-0.03,0.09,1.02,
2.826,-0.11,-0.07,0.53,-0.03,0.09,1.02,
2.828,-0.11,-0.07,0.53,-0.03,0.09,1.01,
2.83,-0.11,-0.07,0.53,-0.02,0.09,1.01,
2.831,-0.00,-0.06,0.42,-0.02,0.09,1.01,
2.833,-0.00,-0.06,0.42,-0.02,0.09,1.00,
