
time,ax,ay,az,gFx,gFy,gFz,
0.002,-0.05,-0.03,0.10,-0.02,0.08,0.98,
0.002,-0.05,-0.03,0.10,-0.02,0.08,0.97,
0.002,0.02,-0.03,0.01,-0.02,0.08,0.97,
0.003,0.02,-0.03,0.01,-0.01,0.09,0.97,
0.005,0.02,-0.03,0.01,-0.02,0.09,0.97,
0.005,0.04,-0.01,-0.05,-0.02,0.09,0.97,
0.007,0.04,-0.01,-0.05,-0.02,0.09,0.97,
0.01,0.04,-0.01,-0.05,-0.01,0.09,0.96,
0.01,0.05,-0.01,-0.09,-0.01,0.09,0.96,
0.012,0.05,-0.01,-0.09,-0.02,0.09,0.96,
0.015,0.05,-0.01,-0.09,-0.02,0.09,0.96,
0.015,0.05,-0.01,-0.14,-0.02,0.09,0.96,
0.017,0.05,-0.01,-0.14,-0.02,0.09,0.96,
0.02,0.05,-0.01,-0.16,-0.02,0.09,0.96,
0.02,0.05,-0.01,-0.16,-0.02,0.09,0.96,
0.022,0.05,-0.01,-0.16,-0.02,0.09,0.96,
0.025,0.05,-0.01,-0.16,-0.02,0.09,0.96,
0.025,0.03,-0.01,-0.18,-0.02,0.09,0.96,
0.027,0.03,-0.01,-0.18,-0.02,0.09,0.96,
0.031,0.03,-0.01,-0.18,-0.02,0.09,0.96,
0.031,0.01,-0.03,-0.18,-0.02,0.09,0.96,
0.033,0.01,-0.03,-0.18,-0.02,0.09,0.96,
0.035,0.01,-0.03,-0.18,-0.02,0.09,0.95,
0.035,-0.02,-0.02,-0.21,-0.02,0.09,0.95,
0.037,-0.02,-0.02,-0.21,-0.02,0.09,0.95,
0.039,-0.02,-0.02,-0.21,-0.03,0.09,0.95,
0.04,-0.03,-0.01,-0.23,-0.03,0.09,0.95,
0.042,-0.03,-0.01,-0.23,-0.02,0.09,0.95,
0.045,-0.03,-0.01,-0.23,-0.03,0.09,0.95,
0.045,-0.04,0.02,-0.26,-0.03,0.09,0.95,
0.047,-0.04,0.02,-0.26,-0.02,0.09,0.95,
0.049,-0.04,0.02,-0.26,-0.03,0.09,0.95,
0.049,-0.04,0.01,-0.29,-0.03,0.09,0.95,
0.051,-0.04,0.01,-0.29,-0.03,0.10,0.94,
0.054,-0.04,0.01,-0.29,-0.03,0.10,0.94,
0.054,-0.05,0.05,-0.29,-0.03,0.10,0.94,
0.056,-0.05,0.05,-0.29,-0.03,0.10,0.94,
0.059,-0.05,0.05,-0.29,-0.03,0.10,0.94,
0.059,-0.08,0.06,-0.32,-0.03,0.10,0.94,
0.061,-0.08,0.06,-0.32,-0.03,0.10,0.94,
0.066,-0.08,0.06,-0.32,-0.03,0.10,0.94,
0.066,-0.08,0.07,-0.35,-0.03,0.10,0.94,
0.066,-0.08,0.07,-0.35,-0.03,0.10,0.94,
0.069,-0.08,0.07,-0.35,-0.03,0.10,0.94,
0.069,-0.12,0.08,-0.34,-0.03,0.10,0.94,
0.071,-0.12,0.08,-0.34,-0.03,0.10,0.95,
0.074,-0.12,0.08,-0.34,-0.03,0.10,0.95,
0.074,-0.13,0.11,-0.33,-0.03,0.10,0.95,
0.076,-0.13,0.11,-0.33,-0.03,0.10,0.95,
0.078,-0.13,0.11,-0.33,-0.03,0.10,0.95,
0.079,-0.12,0.11,-0.29,-0.03,0.10,0.95,
0.081,-0.12,0.11,-0.29,-0.04,0.10,0.95,
0.083,-0.12,0.11,-0.29,-0.04,0.10,0.96,
0.084,-0.13,0.14,-0.24,-0.04,0.10,0.96,
0.086,-0.13,0.14,-0.24,-0.04,0.10,0.96,
0.088,-0.13,0.14,-0.24,-0.03,0.10,0.96,
0.089,-0.14,0.16,-0.20,-0.03,0.10,0.96,
0.091,-0.14,0.16,-0.20,-0.03,0.10,0.97,
0.093,-0.14,0.16,-0.20,-0.03,0.10,0.97,
0.093,-0.13,0.15,-0.13,-0.03,0.10,0.97,
0.096,-0.13,0.15,-0.13,-0.03,0.10,0.97,
0.098,-0.13,0.15,-0.13,-0.03,0.10,0.98,
0.098,-0.11,0.15,-0.08,-0.03,0.10,0.98,
0.1,-0.11,0.15,-0.08,-0.03,0.10,0.98,
0.103,-0.11,0.15,-0.08,-0.03,0.10,0.98,
0.103,-0.11,0.14,-0.00,-0.03,0.10,0.98,
0.105,-0.11,0.14,-0.00,-0.03,0.10,0.99,
0.108,-0.11,0.14,-0.00,-0.03,0.09,0.99,
0.108,-0.11,0.12,0.05,-0.03,0.09,0.99,
0.11,-0.11,0.12,0.05,-0.03,0.09,0.99,
0.114,-0.11,0.12,0.05,-0.04,0.09,0.99,
0.114,-0.10,0.09,0.10,-0.04,0.09,0.99,
0.115,-0.10,0.09,0.10,-0.03,0.09,1.00,
0.118,-0.10,0.09,0.10,-0.03,0.09,1.00,
0.119,-0.12,0.07,0.15,-0.03,0.09,1.00,
0.12,-0.12,0.07,0.15,-0.03,0.09,0.99,
0.123,-0.12,0.07,0.15,-0.03,0.09,1.00,
0.123,-0.10,0.07,0.19,-0.03,0.09,1.00,
0.125,-0.10,0.07,0.19,-0.03,0.09,1.00,
0.128,-0.10,0.07,0.19,-0.03,0.09,1.00,
0.128,-0.09,0.07,0.18,-0.03,0.09,1.00,
0.13,-0.09,0.07,0.18,-0.03,0.09,0.99,
0.133,-0.09,0.07,0.18,-0.03,0.09,0.99,
0.133,-0.08,0.05,0.20,-0.03,0.09,0.99,
0.135,-0.08,0.05,0.20,-0.03,0.09,0.99,
0.137,-0.08,0.05,0.20,-0.03,0.09,0.99,
0.137,-0.09,0.03,0.17,-0.03,0.09,0.99,
0.14,-0.09,0.03,0.17,-0.03,0.09,0.99,
0.142,-0.09,0.03,0.17,-0.03,0.09,0.99,
0.142,-0.07,0.02,0.14,-0.03,0.09,0.99,
0.144,-0.07,0.02,0.14,-0.03,0.09,0.99,
0.149,-0.07,0.02,0.14,-0.03,0.09,0.98,
0.149,-0.07,0.02,0.11,-0.03,0.09,0.98,
0.149,-0.07,0.02,0.11,-0.03,0.09,0.98,
0.152,-0.07,0.02,0.11,-0.03,0.09,0.98,
0.152,-0.02,0.04,0.07,-0.03,0.09,0.98,
0.154,-0.02,0.04,0.07,-0.03,0.09,0.98,
0.157,-0.02,0.04,0.07,-0.03,0.09,0.98,
0.157,-0.03,0.06,0.02,-0.03,0.09,0.98,
0.159,-0.03,0.06,0.02,-0.03,0.09,0.97,
0.162,-0.03,0.06,0.02,-0.03,0.10,0.97,
0.162,-0.02,0.08,-0.01,-0.03,0.10,0.97,
0.164,-0.02,0.08,-0.01,-0.03,0.10,0.97,
0.167,-0.02,0.08,-0.01,-0.03,0.09,0.97,
0.167,-0.04,0.10,-0.02,-0.03,0.09,0.97,
0.169,-0.04,0.10,-0.02,-0.03,0.10,0.97,
0.172,-0.04,0.10,-0.02,-0.02,0.09,0.97,
0.172,-0.04,0.09,-0.05,-0.02,0.09,0.97,
0.174,-0.04,0.09,-0.05,-0.03,0.09,0.97,
0.177,-0.04,0.09,-0.05,-0.03,0.09,0.97,
0.177,-0.02,0.09,-0.08,-0.03,0.09,0.97,
0.179,-0.02,0.09,-0.08,-0.03,0.09,0.97,
0.182,-0.02,0.09,-0.08,-0.03,0.09,0.97,
0.182,-0.04,0.08,-0.10,-0.03,0.09,0.97,
0.184,-0.04,0.08,-0.10,-0.03,0.09,0.96,
0.186,-0.04,0.08,-0.10,-0.03,0.09,0.97,
0.186,-0.06,0.05,-0.10,-0.03,0.09,0.97,
0.188,-0.06,0.05,-0.10,-0.03,0.09,0.97,
0.192,-0.06,0.05,-0.10,-0.03,0.09,0.97,
0.192,-0.06,0.06,-0.12,-0.03,0.09,0.97,
0.193,-0.06,0.06,-0.12,-0.03,0.09,0.97,
0.196,-0.06,0.06,-0.12,-0.03,0.09,0.97,
0.196,-0.03,0.05,-0.10,-0.03,0.09,0.97,
0.198,-0.03,0.05,-0.10,-0.03,0.10,0.97,
0.201,-0.03,0.05,-0.10,-0.03,0.10,0.97,
0.201,-0.05,0.06,-0.08,-0.03,0.10,0.97,
0.203,-0.05,0.06,-0.08,-0.03,0.10,0.97,
0.206,-0.05,0.06,-0.08,-0.03,0.09,0.97,
0.206,-0.08,0.09,-0.05,-0.03,0.09,0.97,
0.208,-0.08,0.09,-0.05,-0.03,0.09,0.98,
0.211,-0.08,0.09,-0.05,-0.04,0.09,0.97,
0.211,-0.09,0.08,-0.02,-0.04,0.09,0.97,
0.213,-0.09,0.08,-0.02,-0.04,0.09,0.98,
0.216,-0.09,0.08,-0.02,-0.04,0.09,0.98,
0.216,-0.12,0.07,-0.01,-0.04,0.09,0.98,
0.218,-0.12,0.07,-0.01,-0.04,0.09,0.98,
0.221,-0.12,0.07,-0.01,-0.04,0.09,0.98,
0.221,-0.13,0.06,0.01,-0.04,0.09,0.98,
0.223,-0.13,0.06,0.01,-0.04,0.09,0.98,
0.225,-0.13,0.06,0.01,-0.04,0.09,0.98,
0.226,-0.13,0.04,0.03,-0.04,0.09,0.98,
0.228,-0.13,0.04,0.03,-0.04,0.09,0.98,
0.23,-0.13,0.04,0.03,-0.03,0.09,0.98,
0.231,-0.13,0.03,0.06,-0.03,0.09,0.98,
0.233,-0.13,0.03,0.06,-0.03,0.09,0.99,
0.235,-0.13,0.03,0.06,-0.03,0.09,0.99,
0.236,-0.09,0.02,0.08,-0.03,0.09,0.99,
0.237,-0.09,0.02,0.08,-0.03,0.09,0.99,
0.24,-0.09,0.02,0.08,-0.03,0.09,0.99,
0.24,-0.07,0.02,0.09,-0.03,0.09,0.99,
0.242,-0.07,0.02,0.09,-0.02,0.09,0.99,
0.249,-0.07,0.02,0.09,-0.02,0.09,0.99,
0.249,-0.04,0.04,0.11,-0.02,0.09,0.99,
0.249,-0.04,0.04,0.11,-0.02,0.09,0.99,
0.25,-0.04,0.04,0.11,-0.02,0.09,0.99,
0.25,0.01,0.03,0.11,-0.02,0.09,0.99,
0.252,0.01,0.03,0.11,-0.02,0.09,0.99,
0.255,0.01,0.03,0.11,-0.02,0.09,0.99,
0.255,0.01,0.01,0.09,-0.02,0.09,0.99,
0.257,0.01,0.01,0.09,-0.02,0.09,0.99,
0.26,0.01,0.01,0.09,-0.02,0.09,0.99,
0.26,0.02,0.04,0.09,-0.02,0.09,0.99,
0.262,0.02,0.04,0.09,-0.02,0.09,0.99,
0.265,0.02,0.04,0.09,-0.02,0.10,0.99,
0.265,0.04,0.05,0.11,-0.02,0.10,0.99,
0.267,0.04,0.05,0.11,-0.03,0.10,0.99,
0.269,0.04,0.05,0.11,-0.03,0.10,0.99,
0.27,0.03,0.08,0.12,-0.03,0.10,0.99,
0.272,0.03,0.08,0.12,-0.03,0.10,0.99,
0.274,0.03,0.08,0.12,-0.03,0.10,0.99,
0.274,-0.01,0.10,0.13,-0.03,0.10,0.99,
0.277,-0.01,0.10,0.13,-0.03,0.10,0.99,
0.279,-0.01,0.10,0.13,-0.03,0.10,0.99,
0.279,-0.04,0.09,0.14,-0.03,0.10,0.99,
0.281,-0.04,0.09,0.14,-0.04,0.10,0.99,
0.284,-0.04,0.09,0.14,-0.04,0.10,0.99,
0.284,-0.06,0.10,0.15,-0.04,0.10,0.99,
0.286,-0.06,0.10,0.15,-0.04,0.10,1.00,
0.289,-0.06,0.10,0.15,-0.05,0.10,1.00,
0.289,-0.13,0.11,0.15,-0.05,0.10,1.00,
0.291,-0.13,0.11,0.15,-0.05,0.10,1.00,
0.294,-0.13,0.11,0.15,-0.05,0.10,1.00,
0.294,-0.18,0.11,0.17,-0.05,0.10,1.00,
0.296,-0.18,0.11,0.17,-0.05,0.10,0.99,
0.299,-0.18,0.11,0.17,-0.05,0.10,0.99,
0.299,-0.18,0.14,0.17,-0.05,0.10,0.99,
0.301,-0.18,0.14,0.17,-0.05,0.10,1.00,
0.304,-0.18,0.14,0.17,-0.05,0.11,1.00,
0.304,-0.19,0.15,0.16,-0.05,0.11,1.00,
0.306,-0.19,0.15,0.16,-0.05,0.11,1.00,
0.309,-0.19,0.15,0.16,-0.05,0.10,0.99,
0.309,-0.21,0.16,0.17,-0.05,0.10,0.99,
0.311,-0.21,0.16,0.17,-0.05,0.11,1.00,
0.313,-0.21,0.16,0.17,-0.05,0.11,1.00,
0.314,-0.23,0.15,0.16,-0.05,0.11,1.00,
0.316,-0.23,0.15,0.16,-0.05,0.11,0.99,
0.318,-0.23,0.15,0.16,-0.06,0.11,0.99,
0.319,-0.23,0.16,0.17,-0.06,0.11,0.99,
0.321,-0.23,0.16,0.17,-0.06,0.11,0.99,
0.323,-0.23,0.16,0.17,-0.06,0.11,0.99,
0.323,-0.25,0.17,0.16,-0.06,0.11,0.99,
0.326,-0.25,0.17,0.16,-0.06,0.11,0.99,
0.329,-0.25,0.17,0.16,-0.06,0.11,0.99,
0.329,-0.25,0.15,0.15,-0.06,0.11,0.99,
0.33,-0.25,0.15,0.15,-0.06,0.11,0.99,
0.333,-0.25,0.15,0.15,-0.06,0.12,0.99,
0.333,-0.28,0.17,0.14,-0.06,0.12,0.99,
0.335,-0.28,0.17,0.14,-0.07,0.12,0.99,
0.338,-0.28,0.17,0.14,-0.07,0.12,0.99,
0.338,-0.29,0.21,0.15,-0.07,0.12,0.99,
0.34,-0.29,0.21,0.15,-0.07,0.12,0.99,
0.343,-0.29,0.21,0.15,-0.07,0.12,0.99,
0.343,-0.33,0.22,0.16,-0.07,0.12,0.99,
0.345,-0.33,0.22,0.16,-0.08,0.12,0.99,
0.348,-0.33,0.22,0.16,-0.08,0.12,0.99,
0.348,-0.37,0.23,0.14,-0.08,0.12,0.99,
0.35,-0.37,0.23,0.14,-0.09,0.12,0.99,
0.353,-0.37,0.23,0.14,-0.09,0.12,0.99,
0.353,-0.46,0.22,0.13,-0.09,0.12,0.99,
0.355,-0.46,0.22,0.13,-0.09,0.12,0.99,
0.358,-0.46,0.22,0.13,-0.10,0.12,0.99,
0.358,-0.54,0.23,0.10,-0.10,0.12,0.99,
0.36,-0.54,0.23,0.10,-0.10,0.12,0.99,
0.365,-0.54,0.23,0.10,-0.11,0.12,0.98,
0.365,-0.61,0.23,0.08,-0.11,0.12,0.98,
0.365,-0.61,0.23,0.08,-0.11,0.12,0.98,
0.367,-0.61,0.23,0.08,-0.11,0.12,0.98,
0.368,-0.67,0.24,0.06,-0.11,0.12,0.98,
0.37,-0.67,0.24,0.06,-0.11,0.12,0.98,
0.372,-0.67,0.24,0.06,-0.11,0.12,0.98,
0.372,-0.71,0.26,0.06,-0.11,0.12,0.98,
0.374,-0.71,0.26,0.06,-0.11,0.12,0.98,
0.377,-0.71,0.26,0.06,-0.11,0.12,0.98,
0.377,-0.74,0.26,0.06,-0.11,0.12,0.98,
0.38,-0.74,0.26,0.06,-0.12,0.12,0.98,
0.382,-0.74,0.26,0.06,-0.12,0.12,0.98,
0.382,-0.76,0.23,0.06,-0.12,0.12,0.98,
0.384,-0.76,0.23,0.06,-0.12,0.12,0.98,
0.387,-0.76,0.23,0.06,-0.12,0.12,0.99,
0.387,-0.76,0.22,0.05,-0.12,0.12,0.99,
0.389,-0.76,0.22,0.05,-0.12,0.12,0.99,
0.392,-0.76,0.22,0.05,-0.12,0.12,0.99,
0.392,-0.75,0.22,0.05,-0.12,0.12,0.99,
0.394,-0.75,0.22,0.05,-0.12,0.12,0.99,
0.397,-0.75,0.22,0.05,-0.11,0.12,0.99,
0.397,-0.75,0.20,0.07,-0.11,0.12,0.99,
0.399,-0.75,0.20,0.07,-0.11,0.11,0.99,
0.402,-0.75,0.20,0.07,-0.12,0.11,1.00,
0.402,-0.73,0.18,0.09,-0.12,0.11,1.00,
0.404,-0.73,0.18,0.09,-0.12,0.11,1.00,
0.406,-0.73,0.18,0.09,-0.12,0.11,1.00,
0.407,-0.71,0.13,0.15,-0.12,0.11,1.00,
0.409,-0.71,0.13,0.15,-0.12,0.10,1.01,
0.412,-0.71,0.13,0.15,-0.12,0.10,1.01,
0.412,-0.71,0.07,0.22,-0.12,0.10,1.01,
0.414,-0.71,0.07,0.22,-0.12,0.10,1.01,
0.416,-0.71,0.07,0.22,-0.12,0.09,1.01,
0.416,-0.73,0.02,0.27,-0.12,0.09,1.01,
0.418,-0.73,0.02,0.27,-0.12,0.09,1.01,
0.421,-0.73,0.02,0.27,-0.12,0.09,1.01,
0.421,-0.73,-0.05,0.32,-0.12,0.09,1.01,
0.423,-0.73,-0.05,0.32,-0.12,0.09,1.01,
0.426,-0.73,-0.05,0.32,-0.12,0.09,1.02,
0.426,-0.71,-0.10,0.32,-0.12,0.09,1.02,
0.428,-0.71,-0.10,0.32,-0.12,0.08,1.02,
0.431,-0.71,-0.10,0.32,-0.12,0.08,1.02,
0.432,-0.71,-0.14,0.35,-0.12,0.08,1.02,
0.433,-0.71,-0.14,0.35,-0.12,0.08,1.02,
0.436,-0.71,-0.14,0.35,-0.12,0.08,1.02,
0.436,-0.69,-0.18,0.36,-0.12,0.08,1.02,
0.438,-0.69,-0.18,0.36,-0.13,0.08,1.02,
0.441,-0.69,-0.18,0.36,-0.13,0.08,1.01,
0.441,-0.70,-0.22,0.34,-0.13,0.08,1.01,
0.443,-0.70,-0.22,0.34,-0.13,0.08,1.01,
0.448,-0.70,-0.22,0.34,-0.13,0.07,1.01,
0.449,-0.72,-0.26,0.33,-0.13,0.07,1.01,
0.449,-0.72,-0.26,0.33,-0.13,0.07,1.00,
0.451,-0.72,-0.26,0.33,-0.13,0.07,1.00,
0.451,-0.74,-0.28,0.26,-0.13,0.07,1.00,
0.453,-0.74,-0.28,0.26,-0.13,0.07,1.00,
0.456,-0.74,-0.28,0.26,-0.12,0.07,0.99,
0.456,-0.71,-0.32,0.21,-0.12,0.07,0.99,
0.458,-0.71,-0.32,0.21,-0.12,0.07,0.99,
0.46,-0.71,-0.32,0.21,-0.12,0.07,0.99,
0.461,-0.69,-0.34,0.15,-0.12,0.07,0.99,
0.463,-0.69,-0.34,0.15,-0.12,0.07,0.98,
0.466,-0.69,-0.34,0.15,-0.12,0.07,0.98,
0.466,-0.64,-0.35,0.09,-0.12,0.07,0.98,
0.468,-0.64,-0.35,0.09,-0.12,0.07,0.97,
0.47,-0.64,-0.35,0.09,-0.12,0.07,0.97,
0.47,-0.61,-0.35,-0.00,-0.12,0.07,0.97,
0.472,-0.61,-0.35,-0.00,-0.12,0.07,0.97,
0.475,-0.61,-0.35,-0.00,-0.12,0.07,0.97,
0.475,-0.62,-0.32,-0.07,-0.12,0.07,0.97,
0.477,-0.62,-0.32,-0.07,-0.12,0.08,0.96,
0.48,-0.62,-0.32,-0.07,-0.12,0.08,0.96,
0.48,-0.63,-0.30,-0.13,-0.12,0.08,0.96,
0.482,-0.63,-0.30,-0.13,-0.12,0.08,0.96,
0.485,-0.63,-0.30,-0.13,-0.12,0.08,0.96,
0.485,-0.62,-0.26,-0.16,-0.12,0.08,0.96,
0.487,-0.62,-0.26,-0.16,-0.12,0.09,0.96,
0.49,-0.62,-0.26,-0.16,-0.12,0.09,0.96,
0.49,-0.66,-0.21,-0.19,-0.12,0.09,0.96,
0.492,-0.66,-0.21,-0.19,-0.13,0.09,0.96,
0.495,-0.66,-0.21,-0.19,-0.13,0.09,0.96,
0.495,-0.66,-0.16,-0.23,-0.13,0.09,0.96,
0.497,-0.66,-0.16,-0.23,-0.13,0.09,0.95,
0.5,-0.66,-0.16,-0.23,-0.13,0.09,0.95,
0.5,-0.68,-0.14,-0.23,-0.13,0.09,0.95,
0.502,-0.68,-0.14,-0.23,-0.13,0.10,0.96,
0.504,-0.68,-0.14,-0.23,-0.13,0.10,0.95,
0.505,-0.67,-0.11,-0.24,-0.13,0.10,0.95,
0.507,-0.67,-0.11,-0.24,-0.13,0.10,0.96,
0.509,-0.67,-0.11,-0.24,-0.13,0.09,0.96,
0.51,-0.68,-0.09,-0.24,-0.13,0.09,0.96,
0.512,-0.68,-0.09,-0.24,-0.13,0.09,0.96,
0.514,-0.68,-0.09,-0.24,-0.13,0.09,0.96,
0.515,-0.69,-0.10,-0.21,-0.13,0.09,0.96,
0.517,-0.69,-0.10,-0.21,-0.13,0.09,0.96,
0.519,-0.69,-0.10,-0.21,-0.14,0.09,0.96,
0.519,-0.70,-0.11,-0.19,-0.14,0.09,0.96,
0.521,-0.70,-0.11,-0.19,-0.14,0.09,0.97,
0.524,-0.70,-0.11,-0.19,-0.14,0.09,0.97,
0.524,-0.71,-0.12,-0.14,-0.14,0.09,0.97,
0.526,-0.71,-0.12,-0.14,-0.14,0.09,0.97,
0.529,-0.71,-0.12,-0.14,-0.14,0.09,0.97,
0.53,-0.72,-0.16,-0.11,-0.14,0.09,0.97,
0.532,-0.72,-0.16,-0.11,-0.14,0.09,0.97,
0.534,-0.72,-0.16,-0.11,-0.14,0.09,0.98,
0.534,-0.73,-0.19,-0.08,-0.14,0.09,0.98,
0.536,-0.73,-0.19,-0.08,-0.14,0.09,0.98,
0.539,-0.73,-0.19,-0.08,-0.14,0.09,0.98,
0.539,-0.69,-0.20,-0.04,-0.14,0.09,0.98,
0.541,-0.69,-0.20,-0.04,-0.13,0.08,0.98,
0.544,-0.69,-0.20,-0.04,-0.13,0.08,0.98,
0.544,-0.66,-0.20,-0.01,-0.13,0.08,0.98,
0.549,-0.66,-0.20,-0.01,-0.13,0.09,0.98,
0.549,-0.66,-0.20,-0.01,-0.13,0.09,0.98,
0.549,-0.62,-0.22,0.01,-0.13,0.09,0.98,
0.551,-0.62,-0.22,0.01,-0.13,0.09,0.98,
0.554,-0.62,-0.22,0.01,-0.12,0.09,0.98,
0.554,-0.56,-0.19,0.03,-0.12,0.09,0.98,
0.556,-0.56,-0.19,0.03,-0.12,0.09,0.98,
0.559,-0.56,-0.19,0.03,-0.12,0.09,0.98,
0.559,-0.51,-0.19,0.05,-0.12,0.09,0.98,
0.562,-0.51,-0.19,0.05,-0.12,0.09,0.98,
0.563,-0.51,-0.19,0.05,-0.11,0.09,0.98,
0.565,-0.47,-0.21,0.03,-0.11,0.09,0.98,
0.566,-0.47,-0.21,0.03,-0.11,0.09,0.97,
0.569,-0.47,-0.21,0.03,-0.11,0.09,0.97,
0.57,-0.40,-0.21,-0.01,-0.11,0.09,0.97,
0.571,-0.40,-0.21,-0.01,-0.10,0.09,0.97,
0.573,-0.40,-0.21,-0.01,-0.10,0.09,0.97,
0.574,-0.32,-0.22,-0.04,-0.10,0.09,0.97,
0.576,-0.32,-0.22,-0.04,-0.09,0.09,0.96,
0.579,-0.32,-0.22,-0.04,-0.09,0.09,0.96,
0.58,-0.23,-0.21,-0.09,-0.09,0.09,0.96,
0.58,-0.23,-0.21,-0.09,-0.08,0.09,0.96,
0.583,-0.23,-0.21,-0.09,-0.08,0.10,0.96,
0.583,-0.15,-0.18,-0.15,-0.08,0.10,0.96,
0.585,-0.15,-0.18,-0.15,-0.08,0.10,0.95,
0.588,-0.15,-0.18,-0.15,-0.07,0.10,0.95,
0.588,-0.05,-0.15,-0.19,-0.07,0.10,0.95,
0.59,-0.05,-0.15,-0.19,-0.07,0.10,0.95,
0.593,-0.05,-0.15,-0.19,-0.07,0.10,0.94,
0.593,0.03,-0.13,-0.26,-0.07,0.10,0.94,
0.595,0.03,-0.13,-0.26,-0.07,0.10,0.94,
0.597,0.03,-0.13,-0.26,-0.07,0.10,0.94,
0.598,0.05,-0.12,-0.31,-0.07,0.10,0.94,
0.6,0.05,-0.12,-0.31,-0.07,0.10,0.94,
0.603,0.05,-0.12,-0.31,-0.07,0.10,0.94,
0.603,0.09,-0.10,-0.37,-0.07,0.10,0.94,
0.605,0.09,-0.10,-0.37,-0.07,0.10,0.94,
0.607,0.09,-0.10,-0.37,-0.07,0.10,0.94,
0.607,0.09,-0.09,-0.38,-0.07,0.10,0.94,
0.61,0.09,-0.09,-0.38,-0.07,0.10,0.94,
0.612,0.10,-0.09,-0.38,-0.07,0.10,0.94,
0.613,0.10,-0.09,-0.38,-0.07,0.10,0.94,
0.615,0.10,-0.09,-0.38,-0.07,0.10,0.94,
0.617,0.10,-0.09,-0.38,-0.06,0.10,0.94,
0.617,0.11,-0.09,-0.37,-0.06,0.10,0.94,
0.62,0.11,-0.09,-0.37,-0.06,0.10,0.94,
0.622,0.11,-0.09,-0.37,-0.06,0.10,0.94,
0.622,0.16,-0.09,-0.35,-0.06,0.10,0.94,
0.624,0.16,-0.09,-0.35,-0.06,0.10,0.94,
0.627,0.16,-0.09,-0.35,-0.06,0.10,0.95,
0.627,0.18,-0.11,-0.32,-0.06,0.10,0.95,
0.629,0.18,-0.11,-0.32,-0.06,0.10,0.95,
0.632,0.18,-0.11,-0.32,-0.06,0.10,0.95,
0.632,0.22,-0.13,-0.28,-0.06,0.10,0.95,
0.634,0.22,-0.13,-0.28,-0.06,0.10,0.96,
0.637,0.22,-0.13,-0.28,-0.06,0.10,0.96,
0.637,0.23,-0.16,-0.22,-0.06,0.10,0.96,
0.639,0.23,-0.16,-0.22,-0.06,0.10,0.96,
0.642,0.23,-0.16,-0.22,-0.06,0.09,0.96,
0.642,0.25,-0.18,-0.15,-0.06,0.09,0.96,
0.649,0.25,-0.18,-0.15,-0.06,0.09,0.97,
0.649,0.25,-0.18,-0.15,-0.06,0.09,0.97,
0.649,0.29,-0.21,-0.09,-0.06,0.09,0.97,
0.65,0.29,-0.21,-0.09,-0.05,0.09,0.97,
0.652,0.29,-0.21,-0.09,-0.05,0.09,0.98,
0.652,0.33,-0.23,-0.02,-0.05,0.09,0.98,
0.654,0.33,-0.23,-0.02,-0.05,0.09,0.98,
0.656,0.33,-0.23,-0.02,-0.05,0.08,0.99,
0.657,0.39,-0.27,0.05,-0.05,0.08,0.99,
0.659,0.39,-0.27,0.05,-0.05,0.08,0.99,
0.662,0.39,-0.27,0.05,-0.04,0.08,0.99,
0.662,0.44,-0.31,0.12,-0.04,0.08,0.99,
0.664,0.44,-0.31,0.12,-0.04,0.08,1.00,
0.666,0.44,-0.31,0.12,-0.04,0.08,1.00,
0.667,0.50,-0.35,0.18,-0.04,0.08,1.00,
0.669,0.50,-0.35,0.18,-0.04,0.08,1.00,
0.671,0.50,-0.35,0.18,-0.03,0.08,1.00,
0.671,0.55,-0.35,0.26,-0.03,0.08,1.00,
0.673,0.55,-0.35,0.26,-0.03,0.08,1.00,
0.676,0.55,-0.35,0.26,-0.03,0.08,1.00,
0.676,0.63,-0.35,0.30,-0.03,0.08,1.00,
0.678,0.63,-0.35,0.30,-0.03,0.08,1.00,
0.681,0.63,-0.35,0.30,-0.03,0.08,1.00,
0.681,0.68,-0.38,0.31,-0.03,0.08,1.00,
0.684,0.68,-0.38,0.31,-0.03,0.08,1.00,
0.686,0.68,-0.38,0.31,-0.03,0.07,1.00,
0.686,0.72,-0.40,0.31,-0.03,0.07,1.00,
0.688,0.72,-0.40,0.31,-0.03,0.07,1.00,
0.691,0.72,-0.40,0.31,-0.03,0.07,1.00,
0.691,0.74,-0.42,0.30,-0.03,0.07,1.00,
0.693,0.74,-0.42,0.30,-0.03,0.07,1.00,
0.696,0.74,-0.42,0.30,-0.03,0.07,0.99,
0.696,0.75,-0.43,0.27,-0.03,0.07,0.99,
0.698,0.75,-0.43,0.27,-0.03,0.07,0.99,
0.701,0.75,-0.43,0.27,-0.03,0.07,0.99,
0.701,0.75,-0.45,0.23,-0.03,0.07,0.99,
0.703,0.75,-0.45,0.23,-0.03,0.07,0.99,
0.706,0.75,-0.45,0.23,-0.04,0.07,0.98,
0.706,0.73,-0.46,0.19,-0.04,0.07,0.98,
0.708,0.73,-0.46,0.19,-0.04,0.07,0.98,
0.71,0.73,-0.46,0.19,-0.04,0.07,0.98,
0.711,0.69,-0.48,0.13,-0.04,0.07,0.98,
0.713,0.69,-0.48,0.13,-0.05,0.07,0.98,
0.716,0.69,-0.48,0.13,-0.05,0.07,0.97,
0.717,0.63,-0.49,0.10,-0.05,0.07,0.97,
0.718,0.63,-0.49,0.10,-0.05,0.07,0.97,
0.72,0.63,-0.49,0.10,-0.05,0.07,0.97,
0.72,0.59,-0.49,0.05,-0.05,0.07,0.97,
0.722,0.59,-0.49,0.05,-0.05,0.07,0.97,
0.725,0.59,-0.49,0.05,-0.05,0.07,0.97,
0.725,0.56,-0.48,0.02,-0.05,0.07,0.97,
0.728,0.56,-0.48,0.02,-0.06,0.08,0.97,
0.73,0.56,-0.48,0.02,-0.06,0.08,0.97,
0.73,0.55,-0.45,-0.00,-0.06,0.08,0.97,
0.732,0.55,-0.45,-0.00,-0.06,0.08,0.97,
0.735,0.55,-0.45,-0.00,-0.06,0.08,0.97,
0.735,0.52,-0.42,-0.01,-0.06,0.08,0.97,
0.737,0.52,-0.42,-0.01,-0.06,0.08,0.97,
0.74,0.52,-0.42,-0.01,-0.06,0.08,0.97,
0.74,0.50,-0.41,-0.01,-0.06,0.08,0.97,
0.742,0.50,-0.41,-0.01,-0.06,0.08,0.97,
0.75,0.50,-0.41,-0.01,-0.07,0.08,0.97,
0.751,0.49,-0.41,-0.03,-0.07,0.08,0.97,
0.751,0.49,-0.41,-0.03,-0.07,0.08,0.97,
0.752,0.49,-0.41,-0.03,-0.07,0.08,0.98,
0.752,0.47,-0.39,0.01,-0.07,0.08,0.98,
0.752,0.47,-0.39,0.01,-0.07,0.08,0.98,
0.755,0.47,-0.39,0.01,-0.07,0.08,0.98,
0.755,0.43,-0.38,0.07,-0.07,0.08,0.98,
0.757,0.43,-0.38,0.07,-0.08,0.08,0.98,
0.76,0.43,-0.38,0.07,-0.08,0.08,0.98,
0.76,0.40,-0.40,0.08,-0.08,0.08,0.98,
0.762,0.40,-0.40,0.08,-0.08,0.08,0.98,
0.765,0.40,-0.40,0.08,-0.08,0.08,0.98,
0.765,0.36,-0.40,0.13,-0.08,0.08,0.98,
0.767,0.36,-0.40,0.13,-0.08,0.08,0.98,
0.769,0.36,-0.40,0.13,-0.08,0.08,0.98,
0.769,0.36,-0.39,0.14,-0.08,0.08,0.98,
0.771,0.36,-0.39,0.14,-0.08,0.08,0.99,
0.774,0.36,-0.39,0.14,-0.08,0.09,0.99,
0.774,0.36,-0.37,0.15,-0.08,0.09,0.99,
0.776,0.36,-0.37,0.15,-0.08,0.09,0.99,
0.779,0.40,-0.34,0.18,-0.08,0.09,0.99,
0.779,0.40,-0.34,0.18,-0.08,0.09,0.99,
0.781,0.40,-0.34,0.18,-0.08,0.09,0.99,
0.784,0.40,-0.34,0.18,-0.08,0.09,0.99,
0.784,0.39,-0.32,0.20,-0.08,0.09,0.99,
0.786,0.39,-0.32,0.20,-0.08,0.09,0.99,
0.789,0.39,-0.32,0.20,-0.08,0.09,0.99,
0.789,0.41,-0.32,0.19,-0.08,0.09,0.99,
0.791,0.41,-0.32,0.19,-0.08,0.09,0.99,
0.795,0.41,-0.32,0.19,-0.08,0.09,0.99,
0.795,0.40,-0.33,0.19,-0.08,0.09,0.99,
0.796,0.40,-0.33,0.19,-0.08,0.09,0.98,
0.798,0.40,-0.33,0.19,-0.08,0.09,0.98,
0.799,0.40,-0.33,0.18,-0.08,0.09,0.98,
0.801,0.40,-0.33,0.18,-0.08,0.09,0.98,
0.803,0.40,-0.33,0.18,-0.08,0.08,0.98,
0.803,0.42,-0.33,0.15,-0.08,0.08,0.98,
0.805,0.42,-0.33,0.15,-0.07,0.08,0.97,
0.809,0.42,-0.33,0.15,-0.07,0.08,0.97,
0.809,0.44,-0.35,0.08,-0.07,0.08,0.97,
0.811,0.44,-0.35,0.08,-0.07,0.08,0.97,
0.813,0.44,-0.35,0.08,-0.07,0.08,0.96,
0.814,0.47,-0.38,0.02,-0.07,0.08,0.96,
0.816,0.47,-0.38,0.02,-0.06,0.08,0.96,
0.818,0.47,-0.38,0.02,-0.06,0.08,0.95,
0.818,0.53,-0.38,-0.04,-0.06,0.08,0.95,
0.82,0.53,-0.38,-0.04,-0.06,0.08,0.95,
0.823,0.53,-0.38,-0.04,-0.06,0.08,0.95,
0.823,0.56,-0.40,-0.13,-0.06,0.08,0.95,
0.825,0.56,-0.40,-0.13,-0.06,0.08,0.94,
0.829,0.59,-0.41,-0.21,-0.06,0.08,0.94,
0.83,0.59,-0.41,-0.21,-0.06,0.08,0.94,
0.831,0.59,-0.41,-0.21,-0.06,0.08,0.94,
0.833,0.59,-0.41,-0.21,-0.05,0.08,0.94,
0.834,0.62,-0.40,-0.23,-0.05,0.08,0.94,
0.835,0.62,-0.40,-0.23,-0.05,0.08,0.94,
0.838,0.62,-0.40,-0.23,-0.05,0.08,0.94,
0.838,0.65,-0.38,-0.27,-0.05,0.08,0.94,
0.84,0.65,-0.38,-0.27,-0.05,0.09,0.93,
0.843,0.65,-0.38,-0.27,-0.05,0.08,0.93,
0.843,0.66,-0.37,-0.30,-0.05,0.08,0.93,
0.845,0.66,-0.37,-0.30,-0.05,0.09,0.93,
0.848,0.66,-0.37,-0.30,-0.05,0.09,0.93,
0.848,0.67,-0.34,-0.34,-0.05,0.09,0.93,
0.85,0.67,-0.34,-0.34,-0.05,0.09,0.93,
0.852,0.67,-0.34,-0.34,-0.06,0.09,0.93,
0.853,0.69,-0.30,-0.34,-0.06,0.09,0.93,
0.854,0.69,-0.30,-0.34,-0.05,0.09,0.93,
0.857,0.69,-0.30,-0.34,-0.05,0.10,0.93,
0.858,0.66,-0.27,-0.33,-0.05,0.10,0.93,
0.86,0.66,-0.27,-0.33,-0.06,0.10,0.94,
0.867,0.66,-0.27,-0.33,-0.06,0.10,0.94,
0.868,0.66,-0.23,-0.32,-0.06,0.10,0.94,
0.868,0.66,-0.23,-0.32,-0.06,0.10,0.94,
0.868,0.66,-0.23,-0.32,-0.06,0.10,0.94,
0.869,0.66,-0.18,-0.27,-0.06,0.10,0.94,
0.869,0.66,-0.18,-0.27,-0.06,0.11,0.95,
0.872,0.66,-0.18,-0.27,-0.06,0.11,0.95,
0.872,0.66,-0.15,-0.21,-0.06,0.11,0.95,
0.874,0.66,-0.15,-0.21,-0.06,0.11,0.95,
0.88,0.66,-0.15,-0.21,-0.06,0.11,0.96,
0.881,0.65,-0.13,-0.16,-0.06,0.11,0.96,
0.881,0.65,-0.13,-0.16,-0.06,0.11,0.96,
0.882,0.65,-0.13,-0.16,-0.06,0.11,0.96,
0.882,0.65,-0.09,-0.09,-0.06,0.11,0.96,
0.884,0.65,-0.09,-0.09,-0.06,0.11,0.97,
0.887,0.65,-0.09,-0.09,-0.05,0.11,0.97,
0.887,0.65,-0.10,-0.02,-0.05,0.11,0.97,
0.889,0.65,-0.10,-0.02,-0.05,0.11,0.97,
0.891,0.65,-0.10,-0.02,-0.05,0.10,0.98,
0.891,0.69,-0.09,0.04,-0.05,0.10,0.98,
0.894,0.69,-0.09,0.04,-0.05,0.10,0.98,
0.896,0.69,-0.09,0.04,-0.05,0.10,0.98,
0.897,0.73,-0.11,0.10,-0.05,0.10,0.98,
0.898,0.73,-0.11,0.10,-0.04,0.10,0.98,
0.901,0.77,-0.13,0.14,-0.04,0.10,0.98,
0.902,0.77,-0.13,0.14,-0.04,0.10,0.98,
0.903,0.77,-0.13,0.14,-0.04,0.09,0.99,
0.906,0.77,-0.13,0.14,-0.03,0.09,0.99,
0.906,0.85,-0.16,0.19,-0.03,0.09,0.99,
0.908,0.85,-0.16,0.19,-0.03,0.09,0.99,
0.912,0.85,-0.16,0.19,-0.03,0.09,0.99,
0.912,0.90,-0.21,0.21,-0.03,0.09,0.99,
0.913,0.90,-0.21,0.21,-0.02,0.08,0.99,
0.916,0.90,-0.21,0.21,-0.02,0.08,0.99,
0.916,0.94,-0.25,0.22,-0.02,0.08,0.99,
0.918,0.94,-0.25,0.22,-0.02,0.08,0.99,
0.921,0.94,-0.25,0.22,-0.02,0.08,0.99,
0.921,0.98,-0.31,0.24,-0.02,0.08,0.99,
0.923,0.98,-0.31,0.24,-0.02,0.07,0.99,
0.926,0.98,-0.31,0.24,-0.02,0.07,0.99,
0.926,1.00,-0.34,0.23,-0.02,0.07,0.99,
0.928,1.00,-0.34,0.23,-0.02,0.07,0.99,
0.931,1.00,-0.34,0.23,-0.02,0.07,0.99,
0.931,1.03,-0.36,0.24,-0.02,0.07,0.99,
0.933,1.03,-0.36,0.24,-0.02,0.07,0.99,
0.936,1.03,-0.36,0.24,-0.02,0.07,0.99,
0.936,1.03,-0.39,0.24,-0.02,0.07,0.99,
0.938,1.03,-0.39,0.24,-0.01,0.07,0.99,
0.94,1.03,-0.39,0.24,-0.02,0.07,0.99,
0.941,1.02,-0.36,0.24,-0.02,0.07,0.99,
0.943,1.02,-0.36,0.24,-0.02,0.08,0.99,
0.951,1.02,-0.36,0.24,-0.02,0.08,0.99,
0.952,1.03,-0.33,0.25,-0.02,0.08,0.99,
0.952,1.03,-0.33,0.25,-0.02,0.08,0.99,
0.952,1.03,-0.33,0.25,-0.02,0.08,0.99,
0.953,1.00,-0.30,0.24,-0.02,0.08,0.99,
0.953,1.00,-0.30,0.24,-0.03,0.08,0.99,
0.955,1.00,-0.30,0.24,-0.03,0.08,0.99,
0.955,0.96,-0.26,0.26,-0.03,0.08,0.99,
0.957,0.96,-0.26,0.26,-0.03,0.09,0.99,
0.963,0.96,-0.26,0.26,-0.03,0.09,0.99,
0.964,0.90,-0.21,0.26,-0.03,0.09,0.99,
0.964,0.90,-0.21,0.26,-0.04,0.09,0.99,
0.965,0.90,-0.21,0.26,-0.04,0.09,0.99,
0.965,0.83,-0.18,0.25,-0.04,0.09,0.99,
0.967,0.83,-0.18,0.25,-0.04,0.09,0.99,
0.969,0.83,-0.18,0.25,-0.05,0.10,0.99,
0.97,0.75,-0.14,0.21,-0.05,0.10,0.99,
0.972,0.75,-0.14,0.21,-0.05,0.10,0.99,
0.975,0.75,-0.14,0.21,-0.05,0.10,0.98,
0.975,0.70,-0.09,0.18,-0.05,0.10,0.98,
0.977,0.70,-0.09,0.18,-0.05,0.10,0.98,
0.98,0.70,-0.09,0.18,-0.05,0.10,0.98,
0.98,0.63,-0.05,0.16,-0.05,0.10,0.98,
0.982,0.63,-0.05,0.16,-0.06,0.11,0.98,
0.984,0.63,-0.05,0.16,-0.06,0.11,0.98,
0.985,0.59,0.01,0.12,-0.06,0.11,0.98,
0.987,0.59,0.01,0.12,-0.06,0.11,0.97,
0.989,0.59,0.01,0.12,-0.06,0.11,0.97,
0.989,0.57,0.05,0.09,-0.06,0.11,0.97,
0.992,0.57,0.05,0.09,-0.06,0.11,0.97,
0.994,0.57,0.05,0.09,-0.06,0.11,0.97,
0.995,0.55,0.10,0.04,-0.06,0.11,0.97,
0.997,0.55,0.10,0.04,-0.06,0.11,0.97,
0.999,0.52,0.13,-0.01,-0.06,0.11,0.97,
1.0,0.52,0.13,-0.01,-0.06,0.11,0.97,
1.001,0.52,0.13,-0.01,-0.06,0.11,0.97,
1.006,0.52,0.13,-0.01,-0.06,0.12,0.97,
1.006,0.51,0.13,-0.01,-0.06,0.12,0.97,
1.007,0.51,0.13,-0.01,-0.06,0.11,0.96,
1.009,0.51,0.13,-0.01,-0.06,0.11,0.96,
1.009,0.50,0.16,-0.02,-0.06,0.11,0.96,
1.011,0.50,0.16,-0.02,-0.06,0.11,0.96,
1.014,0.50,0.16,-0.02,-0.06,0.11,0.96,
1.014,0.51,0.14,-0.06,-0.06,0.11,0.96,
1.016,0.51,0.14,-0.06,-0.06,0.11,0.96,
1.019,0.51,0.14,-0.06,-0.06,0.11,0.96,
1.019,0.55,0.13,-0.06,-0.06,0.11,0.96,
1.021,0.55,0.13,-0.06,-0.05,0.11,0.96,
1.024,0.55,0.13,-0.06,-0.05,0.11,0.97,
1.024,0.56,0.12,-0.05,-0.05,0.11,0.97,
1.026,0.56,0.12,-0.05,-0.05,0.11,0.97,
1.028,0.56,0.12,-0.05,-0.05,0.11,0.97,
1.029,0.58,0.12,-0.04,-0.05,0.11,0.97,
1.031,0.58,0.12,-0.04,-0.05,0.10,0.97,
1.033,0.58,0.12,-0.04,-0.05,0.10,0.97,
1.033,0.59,0.10,-0.00,-0.05,0.10,0.97,
1.036,0.59,0.10,-0.00,-0.05,0.10,0.97,
1.038,0.59,0.10,-0.00,-0.05,0.10,0.97,
1.038,0.60,0.05,0.01,-0.05,0.10,0.97,
1.041,0.60,0.05,0.01,-0.05,0.10,0.97,
1.048,0.60,0.05,0.01,-0.05,0.10,0.97,
1.048,0.60,0.05,0.02,-0.05,0.10,0.97,
1.048,0.60,0.05,0.02,-0.05,0.09,0.97,
1.048,0.60,-0.01,0.04,-0.05,0.09,0.97,
1.049,0.60,-0.01,0.04,-0.05,0.09,0.97,
1.05,0.60,-0.01,0.04,-0.05,0.09,0.97,
1.053,0.60,-0.01,0.04,-0.05,0.09,0.97,
1.054,0.59,-0.04,0.03,-0.05,0.09,0.97,
1.055,0.59,-0.04,0.03,-0.06,0.09,0.97,
1.058,0.59,-0.04,0.03,-0.05,0.09,0.97,
1.058,0.58,-0.05,0.04,-0.05,0.09,0.97,
1.06,0.58,-0.05,0.04,-0.05,0.10,0.98,
1.063,0.58,-0.05,0.04,-0.06,0.10,0.97,
1.063,0.56,-0.04,0.05,-0.06,0.10,0.97,
1.065,0.56,-0.04,0.05,-0.06,0.10,0.97,
1.068,0.56,-0.04,0.05,-0.06,0.10,0.97,
1.068,0.56,-0.00,0.06,-0.06,0.10,0.97,
1.07,0.56,-0.00,0.06,-0.06,0.10,0.97,
1.073,0.56,-0.00,0.06,-0.06,0.10,0.97,
1.073,0.52,0.01,0.05,-0.06,0.10,0.97,
1.075,0.52,0.01,0.05,-0.06,0.10,0.97,
1.077,0.52,0.01,0.05,-0.06,0.10,0.97,
1.078,0.49,0.05,0.05,-0.06,0.10,0.97,
1.08,0.49,0.05,0.05,-0.06,0.11,0.97,
1.083,0.49,0.05,0.05,-0.07,0.11,0.97,
1.083,0.47,0.08,0.05,-0.07,0.11,0.97,
1.085,0.47,0.08,0.05,-0.07,0.11,0.97,
1.087,0.47,0.08,0.05,-0.07,0.11,0.97,
1.088,0.44,0.11,0.03,-0.07,0.11,0.97,
1.089,0.44,0.11,0.03,-0.06,0.11,0.97,
1.092,0.44,0.11,0.03,-0.06,0.11,0.97,
1.093,0.44,0.16,0.04,-0.06,0.11,0.97,
1.095,0.44,0.16,0.04,-0.06,0.11,0.97,
1.097,0.44,0.16,0.04,-0.06,0.12,0.96,
1.098,0.45,0.18,0.02,-0.06,0.12,0.96,
1.1,0.45,0.18,0.02,-0.06,0.12,0.97,
1.102,0.45,0.18,0.02,-0.06,0.12,0.97,
1.102,0.47,0.20,-0.03,-0.06,0.12,0.97,
1.104,0.47,0.20,-0.03,-0.06,0.12,0.96,
1.107,0.47,0.20,-0.03,-0.06,0.12,0.96,
1.107,0.48,0.23,-0.03,-0.06,0.12,0.96,
1.11,0.48,0.23,-0.03,-0.05,0.12,0.96,
1.112,0.48,0.23,-0.03,-0.05,0.11,0.96,
1.112,0.50,0.25,-0.05,-0.05,0.11,0.96,
1.114,0.50,0.25,-0.05,-0.05,0.11,0.96,
1.117,0.50,0.25,-0.05,-0.05,0.11,0.96,
1.117,0.52,0.22,-0.05,-0.05,0.11,0.96,
1.119,0.52,0.22,-0.05,-0.05,0.11,0.96,
1.122,0.52,0.22,-0.08,-0.05,0.11,0.96,
1.122,0.52,0.22,-0.08,-0.05,0.11,0.96,
1.124,0.52,0.22,-0.08,-0.05,0.11,0.96,
1.127,0.52,0.22,-0.08,-0.04,0.11,0.97,
1.128,0.53,0.19,-0.06,-0.04,0.11,0.97,
1.129,0.53,0.19,-0.06,-0.04,0.11,0.97,
1.131,0.53,0.19,-0.06,-0.04,0.11,0.97,
1.132,0.58,0.18,-0.03,-0.04,0.11,0.97,
1.134,0.58,0.18,-0.03,-0.04,0.11,0.97,
1.136,0.58,0.18,-0.03,-0.03,0.11,0.97,
1.137,0.61,0.16,-0.01,-0.03,0.11,0.97,
1.139,0.61,0.16,-0.01,-0.03,0.11,0.98,
1.141,0.61,0.16,-0.01,-0.03,0.11,0.98,
1.141,0.66,0.16,0.02,-0.03,0.11,0.98,
1.144,0.66,0.16,0.02,-0.03,0.11,0.98,
1.146,0.66,0.16,0.02,-0.03,0.10,0.98,
1.146,0.70,0.16,0.08,-0.03,0.10,0.98,
1.148,0.70,0.16,0.08,-0.02,0.11,0.99,
1.151,0.73,0.16,0.13,-0.02,0.11,0.99,
1.152,0.73,0.16,0.13,-0.02,0.11,0.99,
1.153,0.73,0.16,0.13,-0.02,0.11,1.00,
1.156,0.73,0.16,0.13,-0.02,0.11,1.00,
1.156,0.79,0.19,0.19,-0.02,0.11,1.00,
1.158,0.79,0.19,0.19,-0.02,0.11,1.00,
1.166,0.79,0.19,0.19,-0.02,0.11,1.00,
1.166,0.79,0.22,0.26,-0.02,0.11,1.00,
1.167,0.79,0.22,0.26,-0.02,0.11,1.01,
1.167,0.79,0.22,0.26,-0.02,0.12,1.01,
1.167,0.80,0.24,0.31,-0.02,0.12,1.01,
1.168,0.80,0.24,0.31,-0.02,0.12,1.01,
1.171,0.80,0.24,0.31,-0.02,0.12,1.02,
1.171,0.77,0.28,0.37,-0.02,0.12,1.02,
1.173,0.77,0.28,0.37,-0.03,0.12,1.02,
1.175,0.77,0.28,0.37,-0.03,0.13,1.02,
1.176,0.74,0.33,0.43,-0.03,0.13,1.02,
1.178,0.74,0.33,0.43,-0.03,0.13,1.03,
1.18,0.74,0.33,0.43,-0.04,0.13,1.03,
1.181,0.67,0.39,0.50,-0.04,0.13,1.03,
1.183,0.67,0.39,0.50,-0.04,0.13,1.03,
1.185,0.67,0.39,0.50,-0.04,0.14,1.03,
1.186,0.61,0.46,0.55,-0.04,0.14,1.03,
1.188,0.61,0.46,0.55,-0.05,0.14,1.04,
1.19,0.61,0.46,0.55,-0.05,0.14,1.04,
1.19,0.56,0.50,0.58,-0.05,0.14,1.04,
1.193,0.56,0.50,0.58,-0.05,0.14,1.04,
1.195,0.56,0.50,0.58,-0.05,0.14,1.04,
1.195,0.50,0.53,0.62,-0.05,0.14,1.04,
1.197,0.50,0.53,0.62,-0.06,0.14,1.04,
1.2,0.50,0.53,0.62,-0.06,0.14,1.04,
1.2,0.44,0.52,0.65,-0.06,0.14,1.04,
1.202,0.44,0.52,0.65,-0.06,0.14,1.04,
1.205,0.44,0.52,0.65,-0.06,0.14,1.04,
1.205,0.39,0.54,0.67,-0.06,0.14,1.04,
1.207,0.39,0.54,0.67,-0.06,0.14,1.04,
1.21,0.39,0.54,0.67,-0.06,0.15,1.04,
1.21,0.36,0.56,0.65,-0.06,0.15,1.04,
1.212,0.36,0.56,0.65,-0.06,0.15,1.04,
1.215,0.36,0.56,0.65,-0.06,0.15,1.04,
1.216,0.34,0.59,0.65,-0.06,0.15,1.04,
1.22,0.34,0.59,0.65,-0.07,0.15,1.04,
1.22,0.34,0.59,0.65,-0.06,0.15,1.04,
1.221,0.30,0.60,0.65,-0.06,0.15,1.04,
1.222,0.30,0.60,0.65,-0.07,0.15,1.04,
1.224,0.30,0.60,0.65,-0.07,0.15,1.04,
1.225,0.29,0.61,0.61,-0.07,0.15,1.04,
1.227,0.29,0.61,0.61,-0.06,0.15,1.04,
1.229,0.29,0.61,0.61,-0.06,0.15,1.03,
1.23,0.27,0.62,0.60,-0.06,0.15,1.03,
1.232,0.27,0.62,0.60,-0.06,0.15,1.03,
1.234,0.27,0.62,0.60,-0.06,0.14,1.03,
1.234,0.30,0.59,0.56,-0.06,0.14,1.03,
1.237,0.30,0.59,0.56,-0.05,0.14,1.03,
1.239,0.30,0.59,0.56,-0.05,0.14,1.03,
1.239,0.34,0.57,0.52,-0.05,0.14,1.03,
1.241,0.34,0.57,0.52,-0.05,0.14,1.03,
1.245,0.34,0.57,0.52,-0.04,0.14,1.02,
1.245,0.37,0.54,0.48,-0.04,0.14,1.02,
1.247,0.37,0.54,0.48,-0.04,0.14,1.02,
1.249,0.37,0.54,0.48,-0.04,0.13,1.02,
1.249,0.42,0.50,0.44,-0.04,0.13,1.02,
1.251,0.42,0.50,0.44,-0.04,0.13,1.02,
1.254,0.42,0.50,0.44,-0.03,0.13,1.02,
1.254,0.47,0.47,0.41,-0.03,0.13,1.02,
1.256,0.47,0.47,0.41,-0.03,0.13,1.02,
1.259,0.47,0.47,0.41,-0.03,0.13,1.02,
1.259,0.51,0.42,0.38,-0.03,0.13,1.02,
1.266,0.51,0.42,0.38,-0.03,0.12,1.02,
1.266,0.51,0.42,0.38,-0.03,0.12,1.02,
1.266,0.51,0.39,0.37,-0.03,0.12,1.02,
1.266,0.51,0.39,0.37,-0.03,0.12,1.02,
1.268,0.51,0.39,0.37,-0.04,0.11,1.02,
1.269,0.51,0.33,0.37,-0.04,0.11,1.02,
1.271,0.51,0.33,0.37,-0.04,0.11,1.02,
1.273,0.51,0.33,0.37,-0.04,0.11,1.02,
1.273,0.48,0.28,0.36,-0.04,0.11,1.02,
1.276,0.48,0.28,0.36,-0.05,0.11,1.02,
1.278,0.48,0.28,0.36,-0.05,0.11,1.02,
1.278,0.42,0.24,0.39,-0.05,0.11,1.02,
1.28,0.42,0.24,0.39,-0.05,0.10,1.02,
1.283,0.42,0.24,0.39,-0.05,0.10,1.02,
1.283,0.35,0.20,0.40,-0.05,0.10,1.02,
1.285,0.35,0.20,0.40,-0.06,0.10,1.03,
1.288,0.35,0.20,0.40,-0.06,0.10,1.03,
1.288,0.28,0.15,0.40,-0.06,0.10,1.03,
1.29,0.28,0.15,0.40,-0.06,0.10,1.03,
1.293,0.28,0.15,0.40,-0.07,0.10,1.03,
1.294,0.22,0.13,0.42,-0.07,0.10,1.03,
1.295,0.22,0.13,0.42,-0.07,0.09,1.03,
1.298,0.22,0.13,0.42,-0.07,0.09,1.03,
1.298,0.13,0.09,0.44,-0.07,0.09,1.03,
1.3,0.13,0.09,0.44,-0.07,0.09,1.03,
1.303,0.13,0.09,0.44,-0.07,0.09,1.03,
1.303,0.09,0.07,0.46,-0.07,0.09,1.03,
1.305,0.09,0.07,0.46,-0.08,0.09,1.03,
1.308,0.09,0.07,0.46,-0.08,0.09,1.03,
1.308,0.03,0.03,0.47,-0.08,0.09,1.03,
1.31,0.03,0.03,0.47,-0.08,0.09,1.03,
1.313,0.03,0.03,0.47,-0.08,0.09,1.03,
1.313,-0.02,0.03,0.47,-0.08,0.09,1.03,
1.315,-0.02,0.03,0.47,-0.08,0.09,1.03,
1.317,-0.02,0.03,0.47,-0.08,0.09,1.03,
1.317,-0.07,0.00,0.46,-0.08,0.09,1.03,
1.32,-0.07,0.00,0.46,-0.08,0.09,1.03,
1.322,-0.07,0.00,0.46,-0.08,0.09,1.03,
1.322,-0.09,0.03,0.44,-0.08,0.09,1.03,
1.324,-0.09,0.03,0.44,-0.08,0.09,1.03,
1.328,-0.09,0.03,0.44,-0.08,0.09,1.03,
1.328,-0.10,0.02,0.41,-0.08,0.09,1.03,
1.33,-0.10,0.02,0.41,-0.08,0.08,1.02,
1.332,-0.10,0.02,0.41,-0.08,0.08,1.02,
1.333,-0.10,0.00,0.38,-0.08,0.08,1.02,
1.334,-0.10,0.00,0.38,-0.07,0.08,1.02,
1.337,-0.10,0.00,0.38,-0.07,0.07,1.02,
1.337,-0.09,-0.06,0.32,-0.07,0.07,1.02,
1.34,-0.09,-0.06,0.32,-0.07,0.07,1.01,
1.342,-0.09,-0.06,0.32,-0.07,0.07,1.01,
1.342,-0.05,-0.12,0.29,-0.07,0.07,1.01,
1.348,-0.05,-0.12,0.29,-0.06,0.07,1.01,
1.349,-0.05,-0.12,0.29,-0.06,0.06,1.01,
1.349,-0.04,-0.18,0.24,-0.06,0.06,1.01,
1.35,-0.04,-0.18,0.24,-0.06,0.06,1.01,
1.352,-0.04,-0.18,0.24,-0.06,0.06,1.00,
1.352,0.01,-0.21,0.20,-0.06,0.06,1.00,
1.354,0.01,-0.21,0.20,-0.06,0.06,1.00,
1.357,0.01,-0.21,0.20,-0.05,0.06,1.00,
1.357,0.03,-0.24,0.14,-0.05,0.06,1.00,
1.359,0.03,-0.24,0.14,-0.05,0.05,0.99,
1.361,0.03,-0.24,0.14,-0.05,0.05,0.99,
1.361,0.05,-0.30,0.08,-0.05,0.05,0.99,
1.364,0.05,-0.30,0.08,-0.05,0.05,0.98,
1.366,0.05,-0.30,0.08,-0.05,0.05,0.98,
1.367,0.05,-0.35,0.01,-0.05,0.05,0.98,
1.369,0.05,-0.35,0.01,-0.05,0.05,0.98,
1.371,0.05,-0.35,0.01,-0.05,0.05,0.98,
1.371,0.03,-0.35,-0.06,-0.05,0.05,0.98,
1.377,0.03,-0.35,-0.06,-0.06,0.05,0.97,
1.377,0.03,-0.35,-0.06,-0.06,0.05,0.97,
1.377,0.00,-0.36,-0.10,-0.06,0.05,0.97,
1.378,0.00,-0.36,-0.10,-0.06,0.05,0.97,
1.381,0.00,-0.36,-0.10,-0.07,0.05,0.97,
1.381,-0.06,-0.37,-0.16,-0.07,0.05,0.97,
1.383,-0.06,-0.37,-0.16,-0.07,0.05,0.96,
1.386,-0.06,-0.37,-0.16,-0.07,0.05,0.96,
1.386,-0.14,-0.36,-0.18,-0.07,0.05,0.96,
1.388,-0.14,-0.36,-0.18,-0.08,0.05,0.96,
1.393,-0.14,-0.36,-0.18,-0.08,0.05,0.96,
1.394,-0.14,-0.36,-0.18,-0.08,0.05,0.96,
1.394,-0.22,-0.36,-0.25,-0.08,0.05,0.96,
1.396,-0.22,-0.36,-0.25,-0.08,0.05,0.96,
1.396,-0.28,-0.37,-0.28,-0.08,0.05,0.96,
1.398,-0.28,-0.37,-0.28,-0.08,0.05,0.96,
1.4,-0.28,-0.37,-0.28,-0.09,0.06,0.96,
1.401,-0.34,-0.36,-0.28,-0.09,0.06,0.96,
1.41,-0.34,-0.36,-0.28,-0.09,0.06,0.96,
1.411,-0.34,-0.36,-0.28,-0.09,0.06,0.96,
1.411,-0.38,-0.32,-0.30,-0.09,0.06,0.96,
1.411,-0.38,-0.32,-0.30,-0.09,0.06,0.95,
1.411,-0.46,-0.29,-0.32,-0.09,0.06,0.95,
1.411,-0.46,-0.29,-0.32,-0.09,0.06,0.95,
1.413,-0.46,-0.29,-0.32,-0.09,0.06,0.95,
1.415,-0.46,-0.29,-0.32,-0.09,0.06,0.95,
1.415,-0.51,-0.26,-0.33,-0.09,0.06,0.95,
1.417,-0.51,-0.26,-0.33,-0.09,0.06,0.95,
1.42,-0.51,-0.26,-0.33,-0.09,0.06,0.95,
1.42,-0.52,-0.24,-0.33,-0.09,0.06,0.95,
1.422,-0.52,-0.24,-0.33,-0.09,0.07,0.95,
1.426,-0.52,-0.24,-0.33,-0.09,0.07,0.95,
1.426,-0.53,-0.25,-0.35,-0.09,0.07,0.95,
1.427,-0.53,-0.25,-0.35,-0.09,0.07,0.95,
1.43,-0.53,-0.25,-0.35,-0.09,0.07,0.95,
1.43,-0.52,-0.23,-0.35,-0.09,0.07,0.95,
1.432,-0.52,-0.23,-0.35,-0.09,0.07,0.95,
1.435,-0.52,-0.23,-0.35,-0.09,0.07,0.95,
1.435,-0.52,-0.22,-0.36,-0.09,0.07,0.95,
1.437,-0.52,-0.22,-0.36,-0.09,0.07,0.95,
1.44,-0.52,-0.22,-0.36,-0.09,0.07,0.95,
1.44,-0.51,-0.22,-0.38,-0.09,0.07,0.95,
1.442,-0.51,-0.22,-0.38,-0.09,0.07,0.95,
1.445,-0.51,-0.22,-0.38,-0.09,0.07,0.96,
1.445,-0.51,-0.20,-0.35,-0.09,0.07,0.96,
1.447,-0.51,-0.20,-0.35,-0.09,0.07,0.96,
1.449,-0.51,-0.20,-0.35,-0.09,0.07,0.96,
1.449,-0.51,-0.17,-0.30,-0.09,0.07,0.96,
1.452,-0.51,-0.17,-0.30,-0.09,0.07,0.96,
1.454,-0.51,-0.17,-0.30,-0.09,0.07,0.96,
1.454,-0.55,-0.19,-0.27,-0.09,0.07,0.96,
1.457,-0.55,-0.19,-0.27,-0.09,0.06,0.95,
1.461,-0.55,-0.19,-0.27,-0.10,0.06,0.95,
1.462,-0.58,-0.24,-0.29,-0.10,0.06,0.95,
1.462,-0.58,-0.24,-0.29,-0.10,0.05,0.95,
1.464,-0.58,-0.24,-0.29,-0.10,0.05,0.95,
1.464,-0.62,-0.30,-0.31,-0.10,0.05,0.95,
1.466,-0.62,-0.30,-0.31,-0.10,0.05,0.95,
1.469,-0.62,-0.30,-0.31,-0.10,0.05,0.95,
1.469,-0.67,-0.37,-0.32,-0.10,0.05,0.95,
1.471,-0.67,-0.37,-0.32,-0.10,0.05,0.94,
1.474,-0.67,-0.37,-0.32,-0.10,0.05,0.94,
1.474,-0.71,-0.39,-0.36,-0.10,0.05,0.94,
1.476,-0.71,-0.39,-0.36,-0.10,0.05,0.94,
1.479,-0.71,-0.39,-0.36,-0.10,0.05,0.94,
1.479,-0.74,-0.39,-0.41,-0.10,0.05,0.94,
1.481,-0.74,-0.39,-0.41,-0.09,0.05,0.94,
1.484,-0.74,-0.39,-0.41,-0.09,0.05,0.94,
1.484,-0.72,-0.39,-0.43,-0.09,0.05,0.94,
1.486,-0.72,-0.39,-0.43,-0.09,0.05,0.93,
1.488,-0.72,-0.39,-0.43,-0.09,0.06,0.93,
1.489,-0.67,-0.36,-0.45,-0.09,0.06,0.93,
1.491,-0.67,-0.36,-0.45,-0.09,0.06,0.93,
1.494,-0.67,-0.36,-0.45,-0.09,0.06,0.93,
1.494,-0.66,-0.33,-0.48,-0.09,0.06,0.93,
1.496,-0.66,-0.33,-0.48,-0.09,0.06,0.93,
1.498,-0.66,-0.33,-0.48,-0.09,0.06,0.93,
1.499,-0.67,-0.31,-0.50,-0.09,0.06,0.93,
1.501,-0.67,-0.31,-0.50,-0.09,0.06,0.93,
1.503,-0.67,-0.31,-0.50,-0.09,0.06,0.94,
1.504,-0.68,-0.28,-0.49,-0.09,0.06,0.94,
1.505,-0.68,-0.28,-0.49,-0.09,0.06,0.94,
1.508,-0.68,-0.28,-0.49,-0.09,0.06,0.94,
1.511,-0.68,-0.28,-0.49,-0.10,0.06,0.95,
1.511,-0.69,-0.28,-0.45,-0.10,0.06,0.95,
1.513,-0.69,-0.28,-0.45,-0.10,0.06,0.95,
1.514,-0.71,-0.26,-0.39,-0.10,0.06,0.95,
1.515,-0.71,-0.26,-0.39,-0.10,0.06,0.95,
1.518,-0.71,-0.26,-0.39,-0.10,0.06,0.96,
1.518,-0.75,-0.26,-0.33,-0.10,0.06,0.96,
1.52,-0.75,-0.26,-0.33,-0.10,0.06,0.96,
1.523,-0.75,-0.26,-0.33,-0.09,0.06,0.96,
1.523,-0.76,-0.25,-0.26,-0.09,0.06,0.96,
1.526,-0.76,-0.25,-0.26,-0.10,0.06,0.97,
1.528,-0.76,-0.25,-0.26,-0.10,0.06,0.97,
1.528,-0.77,-0.25,-0.18,-0.10,0.06,0.97,
1.53,-0.77,-0.25,-0.18,-0.10,0.06,0.97,
1.533,-0.77,-0.25,-0.18,-0.10,0.06,0.98,
1.533,-0.79,-0.26,-0.12,-0.10,0.06,0.98,
1.535,-0.79,-0.26,-0.12,-0.10,0.05,0.98,
1.537,-0.79,-0.26,-0.12,-0.10,0.05,0.98,
1.538,-0.81,-0.27,-0.06,-0.10,0.05,0.98,
1.54,-0.81,-0.27,-0.06,-0.10,0.05,0.98,
1.543,-0.81,-0.27,-0.06,-0.10,0.05,0.98,
1.545,-0.83,-0.31,-0.03,-0.10,0.05,0.98,
1.545,-0.83,-0.31,-0.03,-0.10,0.05,0.98,
1.547,-0.83,-0.31,-0.03,-0.10,0.05,0.98,
1.548,-0.84,-0.34,-0.01,-0.10,0.05,0.98,
1.55,-0.84,-0.34,-0.01,-0.10,0.05,0.98,
1.552,-0.84,-0.34,-0.01,-0.09,0.05,0.98,
1.552,-0.83,-0.34,-0.01,-0.09,0.05,0.98,
1.554,-0.83,-0.34,-0.01,-0.09,0.05,0.97,
1.557,-0.83,-0.34,-0.01,-0.09,0.05,0.97,
1.557,-0.80,-0.34,-0.04,-0.09,0.05,0.97,
1.564,-0.80,-0.34,-0.04,-0.09,0.05,0.97,
1.565,-0.80,-0.34,-0.04,-0.09,0.05,0.97,
1.565,-0.76,-0.33,-0.08,-0.09,0.05,0.97,
1.565,-0.76,-0.33,-0.08,-0.08,0.05,0.97,
1.567,-0.76,-0.33,-0.08,-0.09,0.05,0.96,
1.567,-0.73,-0.33,-0.13,-0.09,0.05,0.96,
1.569,-0.73,-0.33,-0.13,-0.08,0.05,0.96,
1.572,-0.73,-0.33,-0.13,-0.08,0.05,0.96,
1.572,-0.70,-0.33,-0.17,-0.08,0.05,0.96,
1.574,-0.70,-0.33,-0.17,-0.08,0.05,0.96,
1.577,-0.70,-0.33,-0.17,-0.08,0.05,0.96,
1.578,-0.69,-0.32,-0.21,-0.08,0.05,0.96,
1.579,-0.69,-0.32,-0.21,-0.09,0.05,0.95,
1.582,-0.69,-0.32,-0.21,-0.09,0.05,0.95,
1.582,-0.70,-0.33,-0.24,-0.09,0.05,0.95,
1.584,-0.70,-0.33,-0.24,-0.09,0.05,0.95,
1.586,-0.70,-0.33,-0.24,-0.09,0.05,0.95,
1.587,-0.74,-0.32,-0.29,-0.09,0.05,0.95,
1.589,-0.74,-0.32,-0.29,-0.09,0.05,0.94,
1.592,-0.74,-0.32,-0.29,-0.09,0.05,0.94,
1.592,-0.76,-0.33,-0.31,-0.09,0.05,0.94,
1.594,-0.76,-0.33,-0.31,-0.09,0.05,0.94,
1.597,-0.79,-0.33,-0.35,-0.09,0.05,0.94,
1.597,-0.79,-0.33,-0.35,-0.09,0.04,0.94,
1.599,-0.79,-0.33,-0.35,-0.09,0.05,0.94,
1.601,-0.79,-0.33,-0.35,-0.10,0.05,0.94,
1.601,-0.78,-0.33,-0.35,-0.10,0.05,0.94,
1.603,-0.78,-0.33,-0.35,-0.09,0.04,0.94,
1.606,-0.78,-0.33,-0.35,-0.10,0.04,0.94,
1.606,-0.80,-0.33,-0.35,-0.10,0.04,0.94,
1.609,-0.80,-0.33,-0.35,-0.10,0.04,0.94,
1.611,-0.80,-0.33,-0.35,-0.09,0.04,0.94,
1.612,-0.80,-0.33,-0.36,-0.09,0.04,0.94,
1.614,-0.80,-0.33,-0.36,-0.10,0.04,0.94,
1.616,-0.80,-0.33,-0.36,-0.10,0.04,0.95,
1.616,-0.81,-0.32,-0.36,-0.10,0.04,0.95,
1.618,-0.81,-0.32,-0.36,-0.10,0.04,0.95,
1.621,-0.81,-0.32,-0.36,-0.10,0.04,0.95,
1.621,-0.83,-0.32,-0.33,-0.10,0.04,0.95,
1.623,-0.83,-0.32,-0.33,-0.09,0.05,0.95,
1.626,-0.83,-0.32,-0.33,-0.09,0.05,0.96,
1.626,-0.83,-0.31,-0.29,-0.09,0.05,0.96,
1.628,-0.83,-0.31,-0.29,-0.09,0.05,0.96,
1.631,-0.83,-0.31,-0.29,-0.09,0.05,0.96,
1.631,-0.76,-0.27,-0.24,-0.09,0.05,0.96,
1.633,-0.76,-0.27,-0.24,-0.09,0.05,0.97,
1.635,-0.76,-0.27,-0.24,-0.08,0.05,0.97,
1.635,-0.73,-0.24,-0.16,-0.08,0.05,0.97,
1.638,-0.73,-0.24,-0.16,-0.09,0.05,0.97,
1.64,-0.73,-0.24,-0.16,-0.09,0.05,0.98,
1.64,-0.68,-0.20,-0.09,-0.09,0.05,0.98,
1.643,-0.68,-0.20,-0.09,-0.09,0.05,0.98,
1.645,-0.68,-0.20,-0.09,-0.09,0.05,0.98,
1.645,-0.70,-0.19,-0.03,-0.09,0.05,0.98,
1.648,-0.70,-0.19,-0.03,-0.09,0.05,0.99,
1.65,-0.70,-0.19,-0.03,-0.10,0.05,0.99,
1.65,-0.73,-0.19,0.03,-0.10,0.05,0.99,
1.652,-0.73,-0.19,0.03,-0.10,0.05,0.99,
1.655,-0.73,-0.19,0.03,-0.10,0.05,0.99,
1.655,-0.76,-0.19,0.07,-0.10,0.05,0.99,
1.657,-0.76,-0.19,0.07,-0.10,0.05,0.99,
1.66,-0.76,-0.19,0.07,-0.10,0.04,0.99,
1.661,-0.80,-0.21,0.10,-0.10,0.04,0.99,
1.663,-0.80,-0.21,0.10,-0.11,0.04,0.99,
1.665,-0.80,-0.21,0.10,-0.11,0.04,0.99,
1.665,-0.83,-0.22,0.13,-0.11,0.04,0.99,
1.667,-0.83,-0.22,0.13,-0.11,0.04,0.99,
1.67,-0.83,-0.22,0.13,-0.11,0.04,0.99,
1.67,-0.88,-0.23,0.14,-0.11,0.04,0.99,
1.672,-0.88,-0.23,0.14,-0.11,0.04,0.99,
1.675,-0.88,-0.23,0.14,-0.11,0.04,0.99,
1.676,-0.90,-0.25,0.14,-0.11,0.04,0.99,
1.677,-0.90,-0.25,0.14,-0.11,0.04,0.99,
1.68,-0.90,-0.25,0.14,-0.11,0.04,0.99,
1.68,-0.91,-0.24,0.14,-0.11,0.04,0.99,
1.682,-0.91,-0.24,0.14,-0.11,0.04,0.99,
1.684,-0.91,-0.24,0.14,-0.11,0.04,0.99,
1.685,-0.91,-0.26,0.10,-0.11,0.04,0.99,
1.687,-0.91,-0.26,0.10,-0.11,0.04,0.99,
1.69,-0.91,-0.26,0.10,-0.11,0.04,0.98,
1.69,-0.92,-0.26,0.08,-0.11,0.04,0.98,
1.692,-0.92,-0.26,0.08,-0.11,0.04,0.98,
1.694,-0.92,-0.26,0.08,-0.11,0.04,0.98,
1.694,-0.91,-0.25,0.06,-0.11,0.04,0.98,
1.696,-0.91,-0.25,0.06,-0.11,0.04,0.98,
1.699,-0.91,-0.25,0.06,-0.11,0.05,0.98,
1.699,-0.89,-0.22,0.04,-0.11,0.05,0.98,
1.701,-0.89,-0.22,0.04,-0.11,0.05,0.98,
1.704,-0.89,-0.22,0.04,-0.11,0.05,0.98,
1.704,-0.89,-0.18,0.02,-0.11,0.05,0.98,
1.706,-0.89,-0.18,0.02,-0.11,0.05,0.98,
1.709,-0.89,-0.18,0.02,-0.11,0.05,0.99,
1.71,-0.87,-0.13,0.02,-0.11,0.05,0.99,
1.711,-0.87,-0.13,0.02,-0.11,0.06,0.99,
1.714,-0.87,-0.13,0.02,-0.11,0.06,0.99,
1.714,-0.85,-0.08,0.05,-0.11,0.06,0.99,
1.716,-0.85,-0.08,0.05,-0.11,0.06,0.99,
1.719,-0.85,-0.08,0.05,-0.11,0.06,0.99,
1.719,-0.87,-0.06,0.07,-0.11,0.06,0.99,
1.721,-0.87,-0.06,0.07,-0.11,0.06,0.99,
1.724,-0.87,-0.06,0.07,-0.11,0.06,0.99,
1.724,-0.87,-0.03,0.08,-0.11,0.06,0.99,
1.726,-0.87,-0.03,0.08,-0.12,0.06,0.99,
1.729,-0.87,-0.03,0.08,-0.11,0.06,0.99,
1.729,-0.89,-0.03,0.12,-0.11,0.06,0.99,
1.731,-0.89,-0.03,0.12,-0.11,0.06,0.99,
1.734,-0.89,-0.03,0.12,-0.11,0.06,0.99,
1.734,-0.90,-0.03,0.11,-0.11,0.06,0.99,
1.736,-0.90,-0.03,0.11,-0.11,0.06,0.99,
1.738,-0.90,-0.03,0.11,-0.11,0.06,0.99,
1.739,-0.87,-0.03,0.12,-0.11,0.06,0.99,
1.747,-0.87,-0.03,0.12,-0.11,0.05,0.99,
1.748,-0.87,-0.03,0.12,-0.12,0.05,0.99,
1.748,-0.87,-0.03,0.11,-0.12,0.05,0.99,
1.748,-0.87,-0.03,0.11,-0.12,0.05,0.99,
1.748,-0.87,-0.03,0.11,-0.12,0.06,0.99,
1.749,-0.88,-0.05,0.10,-0.12,0.06,0.99,
1.751,-0.88,-0.05,0.10,-0.12,0.06,0.99,
1.753,-0.91,-0.04,0.07,-0.12,0.06,0.99,
1.754,-0.91,-0.04,0.07,-0.12,0.06,0.99,
1.755,-0.91,-0.04,0.07,-0.12,0.05,0.98,
1.761,-0.91,-0.04,0.07,-0.12,0.05,0.98,
1.762,-0.91,-0.02,0.04,-0.12,0.05,0.98,
1.762,-0.91,-0.02,0.04,-0.12,0.06,0.98,
1.763,-0.91,-0.02,0.04,-0.12,0.06,0.97,
1.763,-0.94,-0.04,0.00,-0.12,0.06,0.97,
1.765,-0.94,-0.04,0.00,-0.13,0.06,0.97,
1.768,-0.94,-0.04,0.00,-0.13,0.06,0.97,
1.768,-0.97,-0.02,-0.07,-0.13,0.06,0.97,
1.77,-0.97,-0.02,-0.07,-0.13,0.06,0.96,
1.772,-0.97,-0.02,-0.07,-0.13,0.06,0.96,
1.773,-0.98,-0.01,-0.13,-0.13,0.06,0.96,
1.775,-0.98,-0.01,-0.13,-0.13,0.06,0.96,
1.778,-0.98,-0.01,-0.13,-0.13,0.07,0.96,
1.778,-0.99,0.03,-0.18,-0.13,0.07,0.96,
1.78,-0.99,0.03,-0.18,-0.12,0.07,0.96,
1.783,-0.99,0.03,-0.18,-0.12,0.07,0.96,
1.783,-0.97,0.09,-0.22,-0.12,0.07,0.96,
1.785,-0.97,0.09,-0.22,-0.13,0.08,0.96,
1.788,-0.95,0.13,-0.24,-0.13,0.08,0.96,
1.788,-0.95,0.13,-0.24,-0.13,0.08,0.96,
1.79,-0.95,0.13,-0.24,-0.13,0.08,0.96,
1.792,-0.95,0.13,-0.24,-0.13,0.08,0.96,
1.793,-0.96,0.21,-0.23,-0.13,0.08,0.96,
1.795,-0.96,0.21,-0.23,-0.13,0.09,0.96,
1.797,-0.96,0.21,-0.23,-0.13,0.09,0.97,
1.797,-0.98,0.26,-0.19,-0.13,0.09,0.97,
1.799,-0.98,0.26,-0.19,-0.14,0.09,0.97,
1.802,-0.98,0.26,-0.19,-0.14,0.10,0.97,
1.802,-1.00,0.33,-0.14,-0.14,0.10,0.97,
1.804,-1.00,0.33,-0.14,-0.14,0.10,0.97,
1.807,-1.00,0.33,-0.14,-0.15,0.10,0.97,
1.807,-1.06,0.39,-0.12,-0.15,0.10,0.97,
1.809,-1.06,0.39,-0.12,-0.15,0.10,0.98,
1.812,-1.11,0.44,-0.07,-0.15,0.10,0.98,
1.812,-1.11,0.44,-0.07,-0.15,0.10,0.98,
1.814,-1.11,0.44,-0.07,-0.16,0.11,0.98,
1.817,-1.11,0.44,-0.07,-0.16,0.11,0.98,
1.817,-1.16,0.48,-0.03,-0.16,0.11,0.98,
1.819,-1.16,0.48,-0.03,-0.16,0.11,0.98,
1.821,-1.16,0.48,-0.03,-0.17,0.11,0.98,
1.822,-1.24,0.51,-0.01,-0.17,0.11,0.98,
1.825,-1.24,0.51,-0.01,-0.17,0.11,0.98,
1.827,-1.24,0.51,-0.01,-0.18,0.11,0.98,
1.827,-1.30,0.53,0.00,-0.18,0.11,0.98,
1.829,-1.30,0.53,0.00,-0.18,0.11,0.98,
1.831,-1.30,0.53,0.00,-0.18,0.11,0.98,
1.832,-1.37,0.55,-0.01,-0.18,0.11,0.98,
1.834,-1.37,0.55,-0.01,-0.18,0.11,0.98,
1.837,-1.37,0.55,-0.01,-0.19,0.11,0.97,
1.837,-1.41,0.55,-0.02,-0.19,0.11,0.97,
1.839,-1.41,0.55,-0.02,-0.19,0.11,0.97,
1.842,-1.41,0.55,-0.02,-0.19,0.11,0.97,
1.843,-1.43,0.56,-0.04,-0.19,0.11,0.97,
1.844,-1.43,0.56,-0.04,-0.19,0.12,0.97,
1.846,-1.43,0.56,-0.04,-0.19,0.12,0.97,
1.847,-1.44,0.58,-0.07,-0.19,0.12,0.97,
1.848,-1.44,0.58,-0.07,-0.19,0.12,0.97,
1.851,-1.44,0.58,-0.07,-0.19,0.12,0.97,
1.851,-1.45,0.61,-0.11,-0.19,0.12,0.97,
1.853,-1.45,0.61,-0.11,-0.19,0.12,0.97,
1.856,-1.45,0.62,-0.12,-0.19,0.12,0.97,
1.856,-1.45,0.62,-0.12,-0.19,0.12,0.96,
1.863,-1.45,0.62,-0.12,-0.19,0.12,0.96,
1.864,-1.45,0.62,-0.12,-0.18,0.12,0.96,
1.864,-1.43,0.65,-0.15,-0.18,0.12,0.96,
1.865,-1.43,0.65,-0.15,-0.18,0.12,0.96,
1.866,-1.43,0.65,-0.15,-0.18,0.12,0.96,
1.866,-1.36,0.64,-0.15,-0.18,0.12,0.96,
1.868,-1.36,0.64,-0.15,-0.18,0.12,0.96,
1.871,-1.36,0.64,-0.15,-0.18,0.11,0.96,
1.871,-1.34,0.62,-0.15,-0.18,0.11,0.96,
1.873,-1.34,0.62,-0.15,-0.17,0.11,0.96,
1.877,-1.34,0.62,-0.15,-0.17,0.11,0.96,
1.877,-1.29,0.59,-0.15,-0.17,0.11,0.96,
1.878,-1.29,0.59,-0.15,-0.17,0.11,0.96,
1.881,-1.29,0.59,-0.15,-0.16,0.11,0.96,
1.881,-1.22,0.54,-0.16,-0.16,0.11,0.96,
1.883,-1.22,0.54,-0.16,-0.16,0.10,0.96,
1.885,-1.22,0.54,-0.16,-0.16,0.10,0.97,
1.885,-1.15,0.50,-0.16,-0.16,0.10,0.97,
1.888,-1.15,0.50,-0.16,-0.16,0.10,0.97,
1.89,-1.15,0.50,-0.16,-0.15,0.10,0.97,
1.89,-1.09,0.48,-0.14,-0.15,0.10,0.97,
1.892,-1.09,0.48,-0.14,-0.15,0.10,0.96,
1.895,-1.09,0.48,-0.14,-0.15,0.09,0.96,
1.896,-1.03,0.45,-0.13,-0.15,0.09,0.96,
1.897,-1.03,0.45,-0.13,-0.15,0.09,0.96,
1.9,-1.03,0.45,-0.13,-0.15,0.09,0.96,
1.901,-0.98,0.41,-0.15,-0.15,0.09,0.96,
1.902,-0.98,0.41,-0.15,-0.15,0.09,0.96,
1.905,-0.98,0.41,-0.15,-0.15,0.09,0.96,
1.905,-0.94,0.39,-0.14,-0.15,0.09,0.96,
1.909,-0.94,0.39,-0.14,-0.14,0.09,0.96,
1.91,-0.94,0.39,-0.14,-0.14,0.09,0.96,
1.91,-0.91,0.37,-0.14,-0.14,0.09,0.96,
1.912,-0.91,0.37,-0.14,-0.14,0.09,0.96,
1.915,-0.91,0.37,-0.14,-0.14,0.09,0.96,
1.915,-0.87,0.37,-0.15,-0.14,0.09,0.96,
1.917,-0.87,0.37,-0.15,-0.14,0.09,0.96,
1.92,-0.87,0.37,-0.15,-0.13,0.10,0.96,
1.92,-0.82,0.39,-0.17,-0.13,0.10,0.96,
1.922,-0.82,0.39,-0.17,-0.14,0.10,0.96,
1.925,-0.82,0.39,-0.17,-0.13,0.10,0.95,
1.926,-0.77,0.42,-0.19,-0.13,0.10,0.95,
1.927,-0.77,0.42,-0.19,-0.13,0.11,0.95,
1.93,-0.77,0.42,-0.19,-0.13,0.11,0.95,
1.93,-0.75,0.46,-0.22,-0.13,0.11,0.95,
1.932,-0.75,0.46,-0.22,-0.13,0.11,0.95,
1.934,-0.75,0.46,-0.22,-0.13,0.11,0.95,
1.935,-0.71,0.53,-0.26,-0.13,0.11,0.95,
1.936,-0.71,0.53,-0.26,-0.13,0.12,0.95,
1.939,-0.71,0.53,-0.26,-0.13,0.12,0.95,
1.94,-0.68,0.57,-0.29,-0.13,0.12,0.95,
1.942,-0.68,0.57,-0.29,-0.13,0.13,0.95,
1.944,-0.68,0.57,-0.29,-0.13,0.13,0.95,
1.945,-0.67,0.65,-0.32,-0.13,0.13,0.95,
1.946,-0.67,0.65,-0.32,-0.13,0.13,0.95,
1.949,-0.67,0.65,-0.32,-0.13,0.14,0.95,
1.949,-0.67,0.73,-0.30,-0.13,0.14,0.95,
1.951,-0.67,0.73,-0.30,-0.13,0.14,0.94,
1.954,-0.67,0.73,-0.30,-0.14,0.14,0.94,
1.954,-0.69,0.79,-0.31,-0.14,0.14,0.94,
1.956,-0.69,0.79,-0.31,-0.14,0.15,0.94,
1.964,-0.69,0.79,-0.31,-0.14,0.15,0.94,
1.965,-0.69,0.83,-0.31,-0.14,0.15,0.94,
1.965,-0.69,0.83,-0.31,-0.14,0.15,0.94,
1.965,-0.69,0.83,-0.31,-0.14,0.15,0.94,
1.965,-0.69,0.88,-0.31,-0.14,0.15,0.94,
1.966,-0.69,0.88,-0.31,-0.14,0.15,0.94,
1.968,-0.69,0.88,-0.31,-0.14,0.15,0.94,
1.969,-0.69,0.89,-0.31,-0.14,0.15,0.94,
1.971,-0.69,0.89,-0.31,-0.14,0.15,0.94,
1.976,-0.66,0.88,-0.31,-0.14,0.15,0.94,
1.976,-0.66,0.88,-0.31,-0.13,0.15,0.94,
1.976,-0.66,0.88,-0.31,-0.13,0.15,0.94,
1.978,-0.66,0.88,-0.31,-0.13,0.15,0.94,
1.978,-0.62,0.90,-0.32,-0.13,0.15,0.94,
1.98,-0.62,0.90,-0.32,-0.13,0.15,0.94,
1.983,-0.62,0.90,-0.32,-0.13,0.15,0.94,
1.983,-0.56,0.88,-0.31,-0.13,0.15,0.94,
1.985,-0.56,0.88,-0.31,-0.12,0.15,0.95,
1.988,-0.56,0.88,-0.31,-0.12,0.15,0.95,
1.988,-0.51,0.86,-0.29,-0.12,0.15,0.95,
1.99,-0.51,0.86,-0.29,-0.11,0.15,0.95,
1.993,-0.51,0.86,-0.29,-0.11,0.15,0.95,
1.993,-0.40,0.85,-0.25,-0.11,0.15,0.95,
1.995,-0.40,0.85,-0.25,-0.10,0.15,0.95,
1.998,-0.40,0.85,-0.25,-0.10,0.15,0.95,
1.998,-0.29,0.82,-0.21,-0.10,0.15,0.95,
2.0,-0.29,0.82,-0.21,-0.10,0.15,0.95,
2.003,-0.29,0.82,-0.21,-0.10,0.15,0.96,
2.003,-0.19,0.81,-0.20,-0.10,0.15,0.96,
2.005,-0.19,0.81,-0.20,-0.10,0.15,0.96,
2.008,-0.19,0.81,-0.20,-0.10,0.15,0.96,
2.009,-0.14,0.80,-0.16,-0.10,0.15,0.96,
2.01,-0.14,0.80,-0.16,-0.10,0.15,0.96,
2.013,-0.14,0.80,-0.16,-0.10,0.15,0.96,
2.014,-0.10,0.81,-0.12,-0.10,0.15,0.96,
2.015,-0.10,0.81,-0.12,-0.10,0.15,0.96,
2.017,-0.10,0.81,-0.12,-0.10,0.15,0.96,
2.018,-0.09,0.81,-0.11,-0.10,0.15,0.96,
2.02,-0.09,0.81,-0.11,-0.10,0.16,0.96,
2.022,-0.09,0.81,-0.11,-0.10,0.15,0.96,
2.023,-0.09,0.81,-0.10,-0.10,0.15,0.96,
2.025,-0.09,0.81,-0.10,-0.10,0.16,0.96,
2.027,-0.08,0.81,-0.08,-0.10,0.16,0.96,
2.028,-0.08,0.81,-0.08,-0.10,0.16,0.97,
2.03,-0.08,0.81,-0.08,-0.10,0.16,0.97,
2.032,-0.08,0.81,-0.06,-0.10,0.16,0.97,
2.035,-0.08,0.81,-0.06,-0.10,0.16,0.97,
2.036,-0.08,0.81,-0.06,-0.10,0.16,0.97,
2.037,-0.08,0.81,-0.06,-0.10,0.16,0.98,
2.037,-0.08,0.82,-0.02,-0.10,0.16,0.98,
2.039,-0.08,0.82,-0.02,-0.10,0.16,0.98,
2.046,-0.08,0.82,-0.02,-0.10,0.16,0.98,
2.047,-0.06,0.85,0.04,-0.10,0.16,0.98,
2.047,-0.06,0.85,0.04,-0.09,0.16,0.99,
2.047,-0.06,0.85,0.04,-0.09,0.16,0.99,
2.048,-0.01,0.86,0.10,-0.09,0.16,0.99,
2.049,-0.01,0.86,0.10,-0.09,0.16,0.99,
2.052,-0.01,0.86,0.10,-0.09,0.16,0.99,
2.052,0.04,0.86,0.16,-0.09,0.16,0.99,
2.054,0.04,0.86,0.16,-0.09,0.16,1.00,
2.057,0.04,0.86,0.16,-0.09,0.16,1.00,
2.058,0.05,0.85,0.21,-0.09,0.16,1.00,
2.059,0.05,0.85,0.21,-0.09,0.16,1.00,
2.062,0.05,0.85,0.21,-0.09,0.15,1.00,
2.062,0.09,0.81,0.26,-0.09,0.15,1.00,
2.064,0.09,0.81,0.26,-0.09,0.15,1.00,
2.067,0.09,0.81,0.26,-0.09,0.15,1.01,
2.067,0.11,0.75,0.31,-0.09,0.15,1.01,
2.069,0.11,0.75,0.31,-0.09,0.15,1.01,
2.071,0.11,0.75,0.31,-0.09,0.15,1.01,
2.071,0.13,0.72,0.34,-0.09,0.15,1.01,
2.074,0.13,0.72,0.34,-0.08,0.15,1.01,
2.076,0.13,0.72,0.34,-0.08,0.15,1.01,
2.076,0.15,0.69,0.37,-0.08,0.15,1.01,
2.078,0.15,0.69,0.37,-0.08,0.15,1.02,
2.081,0.15,0.69,0.37,-0.08,0.15,1.02,
2.081,0.21,0.69,0.40,-0.08,0.15,1.02,
2.083,0.21,0.69,0.40,-0.08,0.15,1.02,
2.086,0.21,0.69,0.40,-0.08,0.16,1.02,
2.086,0.23,0.69,0.44,-0.08,0.16,1.02,
2.088,0.23,0.69,0.44,-0.08,0.16,1.02,
2.091,0.23,0.69,0.44,-0.08,0.16,1.02,
2.092,0.25,0.71,0.47,-0.08,0.16,1.02,
2.094,0.25,0.71,0.47,-0.08,0.16,1.02,
2.098,0.25,0.71,0.47,-0.09,0.16,1.02,
2.098,0.23,0.75,0.48,-0.09,0.16,1.02,
2.098,0.23,0.75,0.48,-0.09,0.17,1.02,
2.101,0.23,0.75,0.48,-0.09,0.17,1.02,
2.101,0.25,0.78,0.50,-0.09,0.17,1.02,
2.103,0.25,0.78,0.50,-0.10,0.17,1.02,
2.106,0.25,0.78,0.50,-0.10,0.17,1.02,
2.106,0.19,0.81,0.45,-0.10,0.17,1.02,
2.108,0.19,0.81,0.45,-0.10,0.18,1.01,
2.111,0.19,0.81,0.45,-0.10,0.18,1.01,
2.111,0.14,0.83,0.42,-0.10,0.18,1.01,
2.113,0.14,0.83,0.42,-0.10,0.18,1.01,
2.115,0.14,0.83,0.42,-0.10,0.19,1.01,
2.116,0.12,0.85,0.39,-0.10,0.19,1.01,
2.118,0.12,0.85,0.39,-0.11,0.19,1.01,
2.12,0.12,0.85,0.39,-0.10,0.19,1.00,
2.121,0.10,0.91,0.36,-0.10,0.19,1.00,
2.123,0.10,0.91,0.36,-0.10,0.19,1.00,
2.125,0.10,0.91,0.36,-0.10,0.19,1.00,
2.126,0.10,0.92,0.32,-0.10,0.19,1.00,
2.128,0.10,0.92,0.32,-0.11,0.19,1.00,
2.13,0.10,0.92,0.32,-0.10,0.19,1.00,
2.13,0.11,0.94,0.28,-0.10,0.19,1.00,
2.132,0.11,0.94,0.28,-0.10,0.19,1.00,
2.135,0.11,0.94,0.28,-0.10,0.19,1.00,
2.135,0.10,0.94,0.25,-0.10,0.19,1.00,
2.137,0.10,0.94,0.25,-0.10,0.19,1.00,
2.147,0.10,0.94,0.25,-0.10,0.19,1.00,
2.147,0.12,0.92,0.24,-0.10,0.19,1.00,
2.148,0.12,0.92,0.24,-0.10,0.19,1.00,
2.148,0.12,0.92,0.24,-0.10,0.18,1.00,
2.148,0.15,0.88,0.25,-0.10,0.18,1.00,
2.148,0.15,0.88,0.25,-0.10,0.18,1.00,
2.15,0.15,0.88,0.25,-0.09,0.18,1.01,
2.15,0.18,0.83,0.26,-0.09,0.18,1.01,
2.152,0.18,0.83,0.26,-0.09,0.18,1.01,
2.155,0.18,0.83,0.26,-0.09,0.18,1.01,
2.155,0.25,0.77,0.30,-0.09,0.18,1.01,
2.159,0.25,0.77,0.30,-0.09,0.17,1.02,
2.16,0.25,0.77,0.30,-0.08,0.17,1.02,
2.16,0.31,0.73,0.34,-0.08,0.17,1.02,
2.162,0.31,0.73,0.34,-0.08,0.17,1.02,
2.164,0.31,0.73,0.34,-0.07,0.17,1.02,
2.164,0.37,0.67,0.41,-0.07,0.17,1.02,
2.167,0.37,0.67,0.41,-0.07,0.16,1.03,
2.169,0.37,0.67,0.41,-0.07,0.16,1.03,
2.169,0.44,0.62,0.45,-0.07,0.16,1.03,
2.171,0.44,0.62,0.45,-0.07,0.16,1.03,
2.174,0.44,0.62,0.45,-0.07,0.16,1.03,
2.175,0.51,0.56,0.52,-0.07,0.16,1.03,
2.176,0.51,0.56,0.52,-0.06,0.16,1.03,
2.18,0.51,0.56,0.52,-0.06,0.16,1.04,
2.18,0.53,0.52,0.56,-0.06,0.16,1.04,
2.182,0.53,0.52,0.56,-0.06,0.15,1.04,
2.184,0.57,0.49,0.58,-0.06,0.15,1.04,
2.184,0.57,0.49,0.58,-0.06,0.15,1.04,
2.186,0.57,0.49,0.58,-0.06,0.15,1.04,
2.189,0.57,0.49,0.58,-0.06,0.15,1.04,
2.189,0.58,0.41,0.60,-0.06,0.15,1.04,
2.191,0.58,0.41,0.60,-0.06,0.14,1.03,
2.194,0.58,0.41,0.60,-0.05,0.14,1.03,
2.194,0.61,0.37,0.59,-0.05,0.14,1.03,
2.197,0.61,0.37,0.59,-0.05,0.14,1.03,
2.199,0.61,0.37,0.59,-0.05,0.14,1.03,
2.199,0.63,0.32,0.56,-0.05,0.14,1.03,
2.201,0.63,0.32,0.56,-0.05,0.14,1.03,
2.203,0.63,0.32,0.56,-0.05,0.14,1.03,
2.204,0.65,0.30,0.53,-0.05,0.14,1.03,
2.206,0.65,0.30,0.53,-0.05,0.13,1.03,
2.209,0.65,0.30,0.53,-0.04,0.13,1.02,
2.209,0.67,0.26,0.50,-0.04,0.13,1.02,
2.211,0.67,0.26,0.50,-0.04,0.13,1.02,
2.213,0.71,0.21,0.46,-0.04,0.13,1.02,
2.214,0.71,0.21,0.46,-0.04,0.13,1.02,
2.216,0.71,0.21,0.46,-0.04,0.13,1.02,
2.218,0.71,0.21,0.46,-0.03,0.12,1.02,
2.218,0.73,0.18,0.41,-0.03,0.12,1.02,
2.22,0.73,0.18,0.41,-0.03,0.12,1.02,
2.224,0.73,0.18,0.41,-0.02,0.12,1.01,
2.225,0.78,0.15,0.38,-0.02,0.12,1.01,
2.225,0.78,0.15,0.38,-0.02,0.12,1.01,
2.228,0.78,0.15,0.38,-0.02,0.12,1.01,
2.229,0.85,0.11,0.35,-0.02,0.12,1.01,
2.231,0.85,0.11,0.35,-0.01,0.11,1.01,
2.233,0.85,0.11,0.35,-0.01,0.11,1.01,
2.233,0.92,0.07,0.30,-0.01,0.11,1.01,
2.235,0.92,0.07,0.30,-0.01,0.11,1.01,
2.238,0.92,0.07,0.30,-0.00,0.11,1.01,
2.238,0.98,0.01,0.27,-0.00,0.11,1.01,
2.241,0.98,0.01,0.27,-0.00,0.11,1.01,
2.243,0.98,0.01,0.27,0.00,0.11,1.01,
2.243,1.02,-0.02,0.26,0.00,0.11,1.01,
2.245,1.02,-0.02,0.26,0.00,0.11,1.01,
2.248,1.02,-0.02,0.26,0.00,0.10,1.01,
2.248,1.07,-0.05,0.29,0.00,0.10,1.01,
2.25,1.07,-0.05,0.29,0.00,0.10,1.01,
2.252,1.07,-0.05,0.29,0.00,0.10,1.02,
2.253,1.09,-0.09,0.31,0.00,0.10,1.02,
2.255,1.09,-0.09,0.31,0.00,0.10,1.02,
2.264,1.09,-0.09,0.31,0.00,0.10,1.02,
2.264,1.10,-0.14,0.34,0.00,0.10,1.02,
2.264,1.10,-0.14,0.34,0.00,0.10,1.02,
2.265,1.10,-0.14,0.34,-0.00,0.09,1.03,
2.265,1.07,-0.17,0.37,-0.00,0.09,1.03,
2.265,1.07,-0.17,0.37,-0.00,0.09,1.03,
2.267,1.06,-0.20,0.44,-0.00,0.09,1.03,
2.268,1.06,-0.20,0.44,-0.00,0.09,1.03,
2.269,1.06,-0.20,0.44,-0.01,0.09,1.03,
2.272,1.06,-0.20,0.44,-0.01,0.09,1.03,
2.272,1.02,-0.24,0.47,-0.01,0.09,1.03,
2.28,1.02,-0.24,0.47,-0.01,0.08,1.03,
2.28,1.02,-0.24,0.47,-0.01,0.08,1.04,
2.28,0.99,-0.30,0.50,-0.01,0.08,1.04,
2.281,0.99,-0.30,0.50,-0.01,0.08,1.03,
2.282,0.99,-0.30,0.50,-0.01,0.08,1.03,
2.282,0.97,-0.36,0.52,-0.01,0.08,1.03,
2.284,0.97,-0.36,0.52,-0.01,0.07,1.03,
2.287,0.97,-0.36,0.52,-0.01,0.07,1.03,
2.287,0.98,-0.39,0.51,-0.01,0.07,1.03,
2.289,0.98,-0.39,0.51,-0.01,0.07,1.03,
2.292,0.98,-0.39,0.51,-0.01,0.07,1.02,
2.292,0.98,-0.47,0.48,-0.01,0.07,1.02,
2.294,0.98,-0.47,0.48,-0.01,0.06,1.02,
2.297,0.97,-0.53,0.42,-0.01,0.06,1.02,
2.297,0.97,-0.53,0.42,-0.01,0.07,1.02,
2.299,0.97,-0.53,0.42,-0.01,0.07,1.02,
2.301,0.97,-0.53,0.42,-0.01,0.07,1.02,
2.301,0.98,-0.56,0.39,-0.01,0.07,1.02,
2.304,0.98,-0.56,0.39,-0.01,0.07,1.01,
2.307,0.98,-0.56,0.39,-0.01,0.07,1.01,
2.307,0.97,-0.56,0.35,-0.01,0.07,1.01,
2.309,0.97,-0.56,0.35,-0.01,0.07,1.01,
2.311,0.97,-0.56,0.35,-0.01,0.07,1.00,
2.311,0.94,-0.56,0.28,-0.01,0.07,1.00,
2.313,0.94,-0.56,0.28,-0.02,0.07,1.00,
2.316,0.94,-0.56,0.28,-0.01,0.07,1.00,
2.316,0.89,-0.54,0.22,-0.01,0.07,1.00,
2.318,0.89,-0.54,0.22,-0.02,0.07,1.00,
2.321,0.89,-0.54,0.22,-0.02,0.07,0.99,
2.321,0.85,-0.53,0.18,-0.02,0.07,0.99,
2.324,0.85,-0.53,0.18,-0.02,0.07,0.99,
2.326,0.81,-0.52,0.11,-0.02,0.07,0.99,
2.326,0.81,-0.52,0.11,-0.02,0.07,0.98,
2.328,0.81,-0.52,0.11,-0.02,0.07,0.98,
2.331,0.81,-0.52,0.11,-0.02,0.07,0.98,
2.331,0.78,-0.51,0.03,-0.02,0.07,0.98,
2.333,0.78,-0.51,0.03,-0.02,0.07,0.97,
2.336,0.78,-0.51,0.03,-0.02,0.07,0.97,
2.336,0.77,-0.51,-0.04,-0.02,0.07,0.97,
2.338,0.77,-0.51,-0.04,-0.02,0.07,0.97,
2.341,0.77,-0.51,-0.04,-0.01,0.07,0.97,
2.341,0.76,-0.52,-0.09,-0.01,0.07,0.97,
2.343,0.76,-0.52,-0.09,-0.01,0.07,0.97,
2.346,0.76,-0.52,-0.09,-0.01,0.07,0.97,
2.346,0.78,-0.53,-0.12,-0.01,0.07,0.97,
2.348,0.78,-0.53,-0.12,-0.01,0.07,0.97,
2.351,0.78,-0.53,-0.12,-0.01,0.06,0.97,
2.351,0.80,-0.54,-0.13,-0.01,0.06,0.97,
2.353,0.80,-0.54,-0.13,-0.00,0.06,0.97,
2.355,0.80,-0.54,-0.13,-0.00,0.07,0.97,
2.356,0.81,-0.56,-0.14,-0.00,0.07,0.97,
2.363,0.81,-0.56,-0.14,-0.00,0.07,0.97,
2.365,0.81,-0.56,-0.14,-0.00,0.06,0.97,
2.366,0.83,-0.57,-0.13,-0.00,0.06,0.97,
2.366,0.83,-0.57,-0.13,-0.00,0.06,0.97,
2.366,0.83,-0.57,-0.13,-0.00,0.06,0.97,
2.366,0.83,-0.57,-0.12,-0.00,0.06,0.97,
2.368,0.83,-0.57,-0.12,-0.00,0.06,0.97,
2.37,0.83,-0.57,-0.12,-0.00,0.06,0.97,
2.37,0.82,-0.59,-0.10,-0.00,0.06,0.97,
2.372,0.82,-0.59,-0.10,-0.00,0.06,0.97,
2.375,0.82,-0.59,-0.10,-0.00,0.06,0.97,
2.376,0.79,-0.60,-0.09,-0.00,0.06,0.97,
2.377,0.79,-0.60,-0.09,-0.00,0.06,0.97,
2.38,0.79,-0.60,-0.09,-0.00,0.06,0.98,
2.38,0.77,-0.59,-0.09,-0.00,0.06,0.98,
2.382,0.77,-0.59,-0.09,-0.01,0.06,0.98,
2.385,0.77,-0.59,-0.09,-0.01,0.06,0.98,
2.385,0.75,-0.59,-0.08,-0.01,0.06,0.98,
2.387,0.75,-0.59,-0.08,-0.01,0.06,0.98,
2.39,0.75,-0.59,-0.08,-0.01,0.06,0.98,
2.39,0.71,-0.59,-0.06,-0.01,0.06,0.98,
2.392,0.71,-0.59,-0.06,-0.01,0.06,0.98,
2.395,0.71,-0.59,-0.06,-0.01,0.06,0.97,
2.395,0.68,-0.55,-0.07,-0.01,0.06,0.97,
2.397,0.68,-0.55,-0.07,-0.01,0.06,0.97,
2.399,0.68,-0.55,-0.07,-0.01,0.06,0.97,
2.4,0.65,-0.57,-0.08,-0.01,0.06,0.97,
2.402,0.65,-0.57,-0.08,-0.01,0.06,0.97,
2.404,0.59,-0.56,-0.12,-0.01,0.06,0.97,
2.405,0.59,-0.56,-0.12,-0.01,0.06,0.97,
2.406,0.59,-0.56,-0.12,-0.02,0.06,0.96,
2.409,0.59,-0.56,-0.12,-0.02,0.06,0.96,
2.409,0.57,-0.56,-0.15,-0.02,0.06,0.96,
2.412,0.57,-0.56,-0.15,-0.01,0.06,0.96,
2.414,0.57,-0.56,-0.15,-0.01,0.06,0.95,
2.414,0.54,-0.57,-0.19,-0.01,0.06,0.95,
2.416,0.54,-0.57,-0.19,-0.01,0.06,0.95,
2.419,0.54,-0.57,-0.19,-0.01,0.06,0.95,
2.42,0.54,-0.56,-0.26,-0.01,0.06,0.95,
2.421,0.54,-0.56,-0.26,-0.01,0.06,0.95,
2.424,0.54,-0.56,-0.26,-0.01,0.06,0.94,
2.425,0.55,-0.56,-0.31,-0.01,0.06,0.94,
2.426,0.55,-0.56,-0.31,-0.01,0.06,0.94,
2.429,0.55,-0.56,-0.31,-0.00,0.06,0.94,
2.429,0.56,-0.58,-0.35,-0.00,0.06,0.94,
2.431,0.56,-0.58,-0.35,-0.00,0.06,0.94,
2.434,0.56,-0.58,-0.35,0.00,0.06,0.94,
2.434,0.58,-0.60,-0.38,0.00,0.06,0.94,
2.436,0.58,-0.60,-0.38,0.00,0.06,0.94,
2.439,0.58,-0.60,-0.38,0.00,0.06,0.94,
2.439,0.61,-0.60,-0.38,0.00,0.06,0.94,
2.446,0.61,-0.60,-0.38,0.00,0.05,0.94,
2.447,0.63,-0.60,-0.38,0.00,0.05,0.94,
2.447,0.63,-0.60,-0.38,0.00,0.05,0.94,
2.448,0.63,-0.60,-0.38,0.00,0.05,0.94,
2.448,0.63,-0.62,-0.37,0.00,0.05,0.94,
2.449,0.63,-0.62,-0.37,0.00,0.05,0.94,
2.451,0.63,-0.62,-0.37,0.00,0.05,0.95,
2.454,0.63,-0.62,-0.37,0.00,0.05,0.95,
2.454,0.62,-0.65,-0.35,0.00,0.05,0.95,
2.456,0.62,-0.65,-0.35,0.00,0.05,0.95,
2.462,0.62,-0.65,-0.35,0.00,0.05,0.95,
2.462,0.61,-0.64,-0.32,0.00,0.05,0.95,
2.462,0.61,-0.64,-0.32,0.00,0.05,0.95,
2.463,0.61,-0.64,-0.32,0.00,0.05,0.95,
2.463,0.61,-0.63,-0.32,0.00,0.05,0.95,
2.465,0.61,-0.63,-0.32,0.00,0.06,0.95,
2.468,0.61,-0.63,-0.32,0.00,0.06,0.95,
2.468,0.60,-0.61,-0.30,0.00,0.06,0.95,
2.47,0.60,-0.61,-0.30,0.00,0.06,0.95,
2.473,0.60,-0.61,-0.30,-0.00,0.06,0.95,
2.473,0.58,-0.57,-0.26,-0.00,0.06,0.95,
2.475,0.58,-0.57,-0.26,-0.00,0.06,0.95,
2.478,0.58,-0.57,-0.26,-0.01,0.06,0.95,
2.478,0.55,-0.54,-0.26,-0.01,0.06,0.95,
2.48,0.55,-0.54,-0.26,-0.01,0.06,0.95,
2.482,0.55,-0.54,-0.26,-0.01,0.06,0.95,
2.483,0.50,-0.51,-0.28,-0.01,0.06,0.95,
2.485,0.50,-0.51,-0.28,-0.02,0.07,0.95,
2.488,0.50,-0.51,-0.28,-0.02,0.07,0.95,
2.488,0.45,-0.51,-0.28,-0.02,0.07,0.95,
2.49,0.45,-0.51,-0.28,-0.02,0.07,0.95,
2.493,0.45,-0.51,-0.28,-0.02,0.07,0.95,
2.493,0.38,-0.49,-0.30,-0.02,0.07,0.95,
2.495,0.38,-0.49,-0.30,-0.03,0.07,0.94,
2.498,0.38,-0.49,-0.30,-0.03,0.07,0.94,
2.498,0.33,-0.48,-0.30,-0.03,0.07,0.94,
2.5,0.33,-0.48,-0.30,-0.03,0.07,0.95,
2.502,0.33,-0.48,-0.30,-0.03,0.07,0.95,
2.502,0.26,-0.46,-0.31,-0.03,0.07,0.95,
2.505,0.26,-0.46,-0.31,-0.04,0.07,0.95,
2.507,0.26,-0.46,-0.31,-0.04,0.08,0.95,
2.508,0.21,-0.44,-0.29,-0.04,0.08,0.95,
2.51,0.21,-0.44,-0.29,-0.04,0.07,0.95,
2.512,0.21,-0.44,-0.29,-0.04,0.07,0.95,
2.513,0.18,-0.42,-0.27,-0.04,0.07,0.95,
2.514,0.18,-0.42,-0.27,-0.04,0.08,0.95,
2.517,0.18,-0.42,-0.27,-0.04,0.07,0.95,
2.517,0.16,-0.42,-0.26,-0.04,0.07,0.95,
2.519,0.16,-0.42,-0.26,-0.04,0.08,0.95,
2.523,0.16,-0.42,-0.26,-0.04,0.08,0.95,
2.528,0.15,-0.42,-0.25,-0.04,0.08,0.95,
2.529,0.15,-0.42,-0.25,-0.04,0.08,0.95,
2.529,0.15,-0.42,-0.25,-0.04,0.08,0.95,
2.529,0.17,-0.41,-0.24,-0.04,0.08,0.95,
2.53,0.17,-0.41,-0.24,-0.03,0.08,0.95,
2.532,0.17,-0.41,-0.24,-0.03,0.08,0.95,
2.533,0.18,-0.41,-0.22,-0.03,0.08,0.95,
2.534,0.18,-0.41,-0.22,-0.03,0.08,0.95,
2.537,0.20,-0.41,-0.23,-0.03,0.08,0.95,
2.537,0.20,-0.41,-0.23,-0.03,0.07,0.95,
2.54,0.20,-0.41,-0.23,-0.03,0.07,0.95,
2.542,0.20,-0.41,-0.23,-0.02,0.07,0.96,
2.542,0.23,-0.42,-0.21,-0.02,0.07,0.96,
2.544,0.23,-0.42,-0.21,-0.02,0.07,0.96,
2.546,0.23,-0.42,-0.21,-0.02,0.07,0.96,
2.547,0.30,-0.41,-0.19,-0.02,0.07,0.96,
2.548,0.30,-0.41,-0.19,-0.02,0.07,0.96,
2.551,0.30,-0.41,-0.19,-0.01,0.07,0.96,
2.551,0.32,-0.42,-0.15,-0.01,0.07,0.96,
2.553,0.32,-0.42,-0.15,-0.01,0.07,0.97,
2.561,0.32,-0.42,-0.15,-0.01,0.07,0.97,
2.562,0.36,-0.45,-0.11,-0.01,0.07,0.97,
2.562,0.36,-0.45,-0.11,-0.01,0.07,0.97,
2.562,0.40,-0.46,-0.07,-0.01,0.07,0.97,
2.562,0.40,-0.46,-0.07,-0.01,0.07,0.97,
2.563,0.40,-0.46,-0.07,-0.01,0.07,0.97,
2.566,0.40,-0.46,-0.07,-0.01,0.07,0.98,
2.566,0.42,-0.46,-0.04,-0.01,0.07,0.98,
2.568,0.42,-0.46,-0.04,-0.01,0.07,0.98,
2.571,0.42,-0.46,-0.04,-0.01,0.07,0.98,
2.571,0.42,-0.46,0.01,-0.01,0.07,0.98,
2.573,0.42,-0.46,0.01,-0.01,0.07,0.98,
2.576,0.42,-0.46,0.01,-0.02,0.07,0.98,
2.576,0.39,-0.43,0.05,-0.02,0.07,0.98,
2.578,0.39,-0.43,0.05,-0.02,0.07,0.99,
2.581,0.39,-0.43,0.05,-0.02,0.07,0.99,
2.581,0.35,-0.42,0.09,-0.02,0.07,0.99,
2.583,0.35,-0.42,0.09,-0.02,0.08,0.99,
2.585,0.35,-0.42,0.09,-0.03,0.08,0.98,
2.586,0.28,-0.40,0.10,-0.03,0.08,0.98,
2.588,0.28,-0.40,0.10,-0.03,0.08,0.99,
2.591,0.28,-0.40,0.10,-0.03,0.08,0.98,
2.591,0.23,-0.36,0.10,-0.03,0.08,0.98,
2.593,0.23,-0.36,0.10,-0.03,0.08,0.98,
2.595,0.23,-0.36,0.10,-0.04,0.08,0.98,
2.596,0.18,-0.35,0.09,-0.04,0.08,0.98,
2.597,0.18,-0.35,0.09,-0.04,0.08,0.98,
2.6,0.18,-0.35,0.09,-0.04,0.09,0.98,
2.6,0.14,-0.30,0.06,-0.04,0.09,0.98,
2.602,0.14,-0.30,0.06,-0.04,0.09,0.98,
2.605,0.14,-0.30,0.06,-0.04,0.09,0.97,
2.605,0.10,-0.26,0.02,-0.04,0.09,0.97,
2.608,0.10,-0.26,0.02,-0.04,0.09,0.97,
2.61,0.10,-0.26,0.02,-0.04,0.09,0.97,
2.611,0.09,-0.24,-0.00,-0.04,0.09,0.97,
2.612,0.09,-0.24,-0.00,-0.04,0.09,0.97,
2.615,0.09,-0.24,-0.00,-0.04,0.09,0.97,
2.615,0.07,-0.21,-0.03,-0.04,0.09,0.97,
2.617,0.07,-0.21,-0.03,-0.04,0.10,0.97,
2.62,0.07,-0.21,-0.03,-0.04,0.10,0.97,
2.62,0.05,-0.15,-0.04,-0.04,0.10,0.97,
2.623,0.05,-0.15,-0.04,-0.04,0.09,0.97,
2.625,0.05,-0.15,-0.04,-0.04,0.09,0.97,
2.625,0.06,-0.15,-0.07,-0.04,0.09,0.97,
2.627,0.06,-0.15,-0.07,-0.04,0.09,0.97,
2.629,0.06,-0.15,-0.07,-0.04,0.09,0.97,
2.63,0.06,-0.16,-0.07,-0.04,0.09,0.97,
2.632,0.06,-0.16,-0.07,-0.03,0.09,0.97,
2.634,0.06,-0.16,-0.07,-0.03,0.09,0.97,
2.635,0.08,-0.16,-0.07,-0.03,0.09,0.97,
2.637,0.08,-0.16,-0.07,-0.03,0.09,0.97,
2.64,0.08,-0.16,-0.07,-0.03,0.10,0.97,
2.64,0.12,-0.16,-0.07,-0.03,0.10,0.97,
2.642,0.12,-0.16,-0.07,-0.03,0.09,0.97,
2.644,0.12,-0.16,-0.07,-0.02,0.09,0.97,
2.645,0.16,-0.15,-0.05,-0.02,0.09,0.97,
2.646,0.16,-0.15,-0.05,-0.02,0.09,0.98,
2.649,0.16,-0.15,-0.05,-0.01,0.09,0.98,
2.649,0.19,-0.16,-0.02,-0.01,0.09,0.98,
2.651,0.19,-0.16,-0.02,-0.02,0.09,0.98,
2.654,0.19,-0.16,-0.02,-0.02,0.09,0.98,
2.654,0.26,-0.16,0.02,-0.02,0.09,0.98,
2.658,0.26,-0.16,0.02,-0.02,0.09,0.98,
2.659,0.26,-0.16,0.02,-0.02,0.09,0.98,
2.66,0.26,-0.19,0.04,-0.02,0.09,0.98,
2.661,0.26,-0.19,0.04,-0.02,0.08,0.98,
2.664,0.26,-0.19,0.04,-0.02,0.08,0.98,
2.664,0.24,-0.23,0.06,-0.02,0.08,0.98,
2.666,0.24,-0.23,0.06,-0.02,0.08,0.98,
2.668,0.24,-0.23,0.06,-0.02,0.08,0.98,
2.669,0.24,-0.26,0.08,-0.02,0.08,0.98,
2.671,0.24,-0.26,0.08,-0.02,0.08,0.98,
2.673,0.24,-0.26,0.08,-0.02,0.08,0.98,
2.674,0.24,-0.27,0.09,-0.02,0.08,0.98,
2.676,0.24,-0.27,0.09,-0.02,0.08,0.98,
2.678,0.24,-0.27,0.09,-0.02,0.08,0.98,
2.679,0.24,-0.27,0.08,-0.02,0.08,0.98,
2.681,0.24,-0.27,0.08,-0.02,0.08,0.98,
2.683,0.24,-0.27,0.08,-0.02,0.09,0.98,
2.683,0.21,-0.26,0.07,-0.02,0.09,0.98,
2.685,0.21,-0.26,0.07,-0.02,0.09,0.98,
2.689,0.21,-0.26,0.07,-0.02,0.09,0.98,
2.69,0.19,-0.25,0.04,-0.02,0.09,0.98,
2.691,0.19,-0.25,0.04,-0.02,0.09,0.98,
2.695,0.19,-0.25,0.04,-0.03,0.09,0.97,
2.695,0.20,-0.21,0.02,-0.03,0.09,0.97,
2.696,0.20,-0.21,0.02,-0.03,0.09,0.97,
2.698,0.20,-0.21,0.02,-0.03,0.09,0.97,
2.699,0.15,-0.18,-0.00,-0.03,0.09,0.97,
2.7,0.15,-0.18,-0.00,-0.03,0.10,0.97,
2.703,0.15,-0.18,-0.00,-0.03,0.10,0.97,
2.703,0.13,-0.15,-0.02,-0.03,0.10,0.97,
2.705,0.13,-0.15,-0.02,-0.03,0.10,0.97,
2.708,0.13,-0.15,-0.02,-0.03,0.10,0.97,
2.708,0.11,-0.12,-0.03,-0.03,0.10,0.97,
2.71,0.11,-0.12,-0.03,-0.03,0.10,0.97,
2.713,0.11,-0.12,-0.03,-0.03,0.10,0.97,
2.713,0.09,-0.10,-0.04,-0.03,0.10,0.97,
2.715,0.09,-0.10,-0.04,-0.04,0.10,0.97,
2.718,0.09,-0.10,-0.04,-0.03,0.10,0.97,
2.718,0.07,-0.08,-0.06,-0.03,0.10,0.97,
2.72,0.07,-0.08,-0.06,-0.04,0.10,0.97,
2.723,0.07,-0.08,-0.06,-0.04,0.11,0.97,
2.723,0.04,-0.07,-0.03,-0.04,0.11,0.97,
2.725,0.04,-0.07,-0.03,-0.04,0.11,0.98,
2.728,0.04,-0.07,-0.03,-0.03,0.11,0.98,
2.728,0.03,-0.04,-0.01,-0.03,0.11,0.98,
2.73,0.03,-0.04,-0.01,-0.03,0.11,0.98,
2.732,0.03,-0.04,-0.01,-0.03,0.11,0.98,
2.733,0.04,-0.03,0.01,-0.03,0.11,0.98,
2.735,0.04,-0.03,0.01,-0.04,0.11,0.98,
2.737,0.04,-0.03,0.01,-0.04,0.11,0.98,
2.737,0.04,-0.01,0.03,-0.04,0.11,0.98,
2.739,0.04,-0.01,0.03,-0.04,0.11,0.97,
2.742,0.04,-0.01,0.03,-0.05,0.11,0.84,
2.742,0.01,0.03,0.05,-0.05,0.11,0.84,
2.745,0.01,0.03,0.05,-0.06,0.12,0.71,
2.747,0.01,0.03,0.05,-0.04,0.14,0.76,
2.748,-0.07,0.02,-0.68,-0.04,0.14,0.76,
2.749,-0.07,0.02,-0.68,-0.02,0.14,0.86,
2.752,-0.07,0.02,-0.68,-0.03,0.14,0.92,
2.752,-0.13,0.21,-2.30,-0.03,0.14,0.92,
2.754,-0.13,0.21,-2.30,-0.04,0.13,0.95,
2.759,-0.13,0.21,-2.30,-0.06,0.12,0.96,
2.759,0.13,0.35,-0.81,-0.06,0.12,0.96,
2.759,0.13,0.35,-0.81,-0.06,0.10,0.95,
2.762,0.13,0.35,-0.81,-0.05,0.10,0.95,
2.762,-0.10,0.19,-0.16,-0.05,0.10,0.95,
2.764,-0.10,0.19,-0.16,-0.04,0.09,0.94,
2.767,-0.10,0.19,-0.16,-0.04,0.09,0.95,
2.767,-0.12,-0.02,-0.23,-0.04,0.09,0.95,
2.769,-0.12,-0.02,-0.23,-0.04,0.09,0.97,
2.771,-0.12,-0.02,-0.23,-0.05,0.09,0.99,
2.772,0.00,-0.07,-0.26,-0.05,0.09,0.99,
2.774,0.00,-0.07,-0.26,-0.05,0.09,1.00,
2.776,0.00,-0.07,-0.26,-0.06,0.09,1.01,
2.777,-0.02,-0.06,0.07,-0.06,0.09,1.01,
2.779,-0.02,-0.06,0.07,-0.06,0.09,1.02,
2.781,-0.02,-0.06,0.07,-0.05,0.09,1.03,
2.781,-0.14,-0.06,0.36,-0.05,0.09,1.03,
2.783,-0.14,-0.06,0.36,-0.05,0.09,1.04,
2.786,-0.14,-0.06,0.36,-0.05,0.09,1.04,
2.786,-0.15,-0.09,0.51,-0.05,0.09,1.04,
2.789,-0.15,-0.09,0.51,-0.05,0.09,1.05,
2.791,-0.15,-0.09,0.51,-0.05,0.09,1.06,
2.791,-0.11,-0.11,0.65,-0.05,0.09,1.06,
2.793,-0.11,-0.11,0.65,-0.05,0.09,1.06,
2.796,-0.11,-0.11,0.65,-0.05,0.09,1.07,
2.796,-0.12,-0.10,0.81,-0.05,0.09,1.07,
2.798,-0.12,-0.10,0.81,-0.05,0.09,1.06,
2.801,-0.12,-0.10,0.81,-0.05,0.09,1.06,
2.801,-0.15,-0.07,0.87,-0.05,0.09,1.06,
2.803,-0.15,-0.07,0.87,-0.05,0.09,1.05,
2.806,-0.15,-0.07,0.87,-0.04,0.09,1.05,
2.807,-0.13,-0.07,0.81,-0.04,0.09,1.05,
2.809,-0.13,-0.07,0.81,-0.04,0.09,1.04,
2.811,-0.13,-0.07,0.81,-0.04,0.09,1.03,
2.811,-0.07,-0.06,0.70,-0.04,0.09,1.03,
2.813,-0.07,-0.06,0.70,-0.04,0.10,1.03,
2.816,-0.07,-0.06,0.70,-0.04,0.09,1.02,
2.816,-0.05,-0.05,0.58,-0.04,0.09,1.02,
2.818,-0.05,-0.05,0.58,-0.04,0.10,1.02,
2.82,-0.05,-0.05,0.58,-0.04,0.10,1.02,
2.821,-0.02,-0.03,0.47,-0.04,0.10,1.02,
