
time,ax,ay,az,gFx,gFy,gFz,
0.002,0.07,0.07,0.25,0.13,0.02,1.00,
0.002,0.06,0.08,0.25,0.13,0.02,1.00,
0.002,0.06,0.08,0.25,0.13,0.02,1.00,
0.003,0.06,0.08,0.25,0.13,0.02,1.00,
0.003,0.05,0.07,0.23,0.13,0.02,1.00,
0.004,0.05,0.07,0.23,0.13,0.02,1.00,
0.006,0.05,0.07,0.23,0.13,0.02,1.00,
0.006,0.05,0.05,0.23,0.13,0.02,1.00,
0.008,0.05,0.05,0.23,0.13,0.02,1.00,
0.011,0.05,0.05,0.23,0.13,0.02,1.00,
0.011,0.05,0.04,0.23,0.13,0.02,1.00,
0.014,0.05,0.04,0.23,0.13,0.01,1.00,
0.016,0.05,0.04,0.23,0.14,0.01,1.00,
0.016,0.07,0.01,0.24,0.14,0.01,1.00,
0.018,0.07,0.01,0.24,0.13,0.01,1.00,
0.021,0.07,0.01,0.24,0.13,0.01,1.00,
0.021,0.08,-0.04,0.24,0.13,0.01,1.00,
0.023,0.08,-0.04,0.24,0.14,0.01,0.99,
0.025,0.08,-0.04,0.24,0.14,0.02,0.99,
0.026,0.08,-0.04,0.22,0.14,0.02,0.99,
0.028,0.08,-0.04,0.22,0.14,0.02,0.99,
0.031,0.08,-0.04,0.22,0.14,0.02,0.99,
0.031,0.11,-0.04,0.19,0.14,0.02,0.99,
0.033,0.11,-0.04,0.19,0.14,0.02,0.99,
0.035,0.11,-0.04,0.19,0.14,0.02,0.99,
0.035,0.08,-0.03,0.17,0.14,0.02,0.99,
0.038,0.08,-0.03,0.17,0.14,0.02,0.99,
0.04,0.08,-0.03,0.17,0.14,0.02,0.99,
0.04,0.08,-0.02,0.15,0.14,0.02,0.99,
0.043,0.08,-0.02,0.15,0.14,0.02,0.98,
0.049,0.08,-0.02,0.15,0.14,0.03,0.98,
0.049,0.08,-0.00,0.12,0.14,0.03,0.98,
0.049,0.08,-0.00,0.12,0.14,0.03,0.98,
0.05,0.08,-0.00,0.12,0.14,0.03,0.98,
0.05,0.07,0.02,0.09,0.14,0.03,0.98,
0.053,0.07,0.02,0.09,0.14,0.03,0.98,
0.055,0.07,0.02,0.09,0.14,0.03,0.98,
0.055,0.10,0.06,0.06,0.14,0.03,0.98,
0.057,0.10,0.06,0.06,0.14,0.04,0.98,
0.06,0.10,0.06,0.06,0.14,0.04,0.97,
0.06,0.09,0.08,0.04,0.14,0.04,0.97,
0.062,0.09,0.08,0.04,0.14,0.04,0.97,
0.065,0.09,0.08,0.04,0.14,0.04,0.97,
0.065,0.09,0.10,0.00,0.14,0.04,0.97,
0.067,0.09,0.10,0.00,0.14,0.04,0.97,
0.07,0.09,0.10,0.00,0.14,0.04,0.97,
0.07,0.13,0.11,-0.04,0.14,0.04,0.97,
0.072,0.13,0.11,-0.04,0.14,0.04,0.97,
0.074,0.13,0.11,-0.04,0.14,0.04,0.97,
0.075,0.14,0.10,-0.07,0.14,0.04,0.97,
0.077,0.14,0.10,-0.07,0.14,0.04,0.97,
0.079,0.14,0.10,-0.07,0.14,0.04,0.97,
0.08,0.11,0.10,-0.07,0.14,0.04,0.97,
0.082,0.11,0.10,-0.07,0.13,0.04,0.97,
0.085,0.11,0.10,-0.07,0.13,0.04,0.97,
0.085,0.09,0.09,-0.07,0.13,0.04,0.97,
0.087,0.09,0.09,-0.07,0.13,0.04,0.97,
0.089,0.09,0.09,-0.07,0.13,0.04,0.97,
0.089,0.05,0.09,-0.06,0.13,0.04,0.97,
0.092,0.05,0.09,-0.06,0.13,0.04,0.97,
0.094,0.05,0.09,-0.06,0.13,0.04,0.97,
0.094,0.05,0.08,-0.06,0.13,0.04,0.97,
0.096,0.05,0.08,-0.06,0.13,0.04,0.97,
0.099,0.05,0.08,-0.06,0.13,0.04,0.97,
0.099,0.05,0.09,-0.06,0.13,0.04,0.97,
0.101,0.05,0.09,-0.06,0.13,0.04,0.96,
0.104,0.05,0.09,-0.06,0.13,0.04,0.96,
0.104,0.03,0.08,-0.07,0.13,0.04,0.96,
0.106,0.03,0.08,-0.07,0.13,0.04,0.96,
0.109,0.03,0.08,-0.07,0.13,0.04,0.96,
0.109,0.05,0.08,-0.09,0.13,0.04,0.96,
0.113,0.05,0.08,-0.09,0.14,0.04,0.96,
0.114,0.05,0.08,-0.09,0.14,0.04,0.96,
0.114,0.06,0.07,-0.10,0.14,0.04,0.96,
0.116,0.06,0.07,-0.10,0.14,0.03,0.96,
0.119,0.06,0.07,-0.10,0.14,0.03,0.96,
0.119,0.08,0.04,-0.10,0.14,0.03,0.96,
0.121,0.08,0.04,-0.10,0.14,0.03,0.96,
0.123,0.08,0.04,-0.10,0.13,0.04,0.96,
0.124,0.08,0.02,-0.11,0.13,0.04,0.96,
0.126,0.08,0.02,-0.11,0.13,0.03,0.96,
0.129,0.08,0.02,-0.11,0.13,0.04,0.96,
0.129,0.07,0.02,-0.09,0.13,0.04,0.96,
0.131,0.07,0.02,-0.09,0.13,0.04,0.96,
0.134,0.07,0.02,-0.09,0.12,0.04,0.96,
0.134,0.02,0.03,-0.11,0.12,0.04,0.96,
0.136,0.02,0.03,-0.11,0.12,0.04,0.96,
0.138,0.02,0.03,-0.11,0.12,0.04,0.96,
0.138,-0.01,0.04,-0.12,0.12,0.04,0.96,
0.141,-0.01,0.04,-0.12,0.12,0.04,0.96,
0.143,-0.01,0.04,-0.12,0.11,0.04,0.96,
0.143,-0.09,0.05,-0.11,0.11,0.04,0.96,
0.146,-0.09,0.05,-0.11,0.11,0.04,0.96,
0.148,-0.09,0.05,-0.11,0.11,0.04,0.97,
0.148,-0.12,0.06,-0.09,0.11,0.04,0.97,
0.151,-0.12,0.06,-0.09,0.11,0.04,0.97,
0.153,-0.12,0.06,-0.09,0.11,0.04,0.97,
0.153,-0.15,0.08,-0.08,0.11,0.04,0.97,
0.155,-0.15,0.08,-0.08,0.12,0.04,0.97,
0.158,-0.15,0.08,-0.08,0.11,0.04,0.96,
0.158,-0.14,0.09,-0.06,0.11,0.04,0.96,
0.16,-0.14,0.09,-0.06,0.12,0.04,0.96,
0.169,-0.14,0.09,-0.06,0.12,0.04,0.96,
0.169,-0.12,0.07,-0.08,0.12,0.04,0.96,
0.17,-0.12,0.07,-0.08,0.12,0.03,0.96,
0.17,-0.12,0.07,-0.08,0.12,0.03,0.96,
0.17,-0.10,0.05,-0.10,0.12,0.03,0.96,
0.17,-0.10,0.05,-0.10,0.12,0.03,0.96,
0.172,-0.10,0.05,-0.10,0.12,0.03,0.96,
0.172,-0.08,0.03,-0.11,0.12,0.03,0.96,
0.175,-0.08,0.03,-0.11,0.13,0.03,0.96,
0.177,-0.08,0.03,-0.11,0.13,0.03,0.96,
0.177,-0.06,0.01,-0.10,0.13,0.03,0.96,
0.18,-0.06,0.01,-0.10,0.13,0.03,0.97,
0.182,-0.06,0.01,-0.10,0.13,0.02,0.97,
0.182,-0.01,-0.02,-0.09,0.13,0.02,0.97,
0.185,-0.01,-0.02,-0.09,0.13,0.02,0.97,
0.187,-0.01,-0.02,-0.09,0.13,0.02,0.97,
0.187,0.03,-0.06,-0.06,0.13,0.02,0.97,
0.19,0.03,-0.06,-0.06,0.13,0.02,0.97,
0.192,0.03,-0.06,-0.06,0.13,0.02,0.97,
0.192,0.05,-0.10,-0.03,0.13,0.02,0.97,
0.195,0.05,-0.10,-0.03,0.13,0.02,0.98,
0.197,0.05,-0.10,-0.03,0.13,0.02,0.98,
0.198,0.04,-0.12,0.01,0.13,0.02,0.98,
0.2,0.04,-0.12,0.01,0.13,0.02,0.98,
0.202,0.04,-0.12,0.01,0.13,0.02,0.98,
0.202,0.04,-0.10,0.03,0.13,0.02,0.98,
0.204,0.04,-0.10,0.03,0.13,0.02,0.98,
0.207,0.04,-0.10,0.03,0.13,0.02,0.98,
0.207,0.02,-0.08,0.07,0.13,0.02,0.98,
0.209,0.02,-0.08,0.07,0.12,0.02,0.98,
0.212,0.02,-0.08,0.07,0.12,0.02,0.98,
0.212,-0.01,-0.05,0.09,0.12,0.02,0.98,
0.214,-0.01,-0.05,0.09,0.12,0.02,0.98,
0.216,-0.01,-0.05,0.09,0.12,0.02,0.98,
0.217,-0.05,-0.04,0.11,0.12,0.02,0.98,
0.219,-0.05,-0.04,0.11,0.12,0.03,0.98,
0.221,-0.05,-0.04,0.11,0.12,0.03,0.98,
0.221,-0.07,-0.05,0.11,0.12,0.03,0.98,
0.224,-0.07,-0.05,0.11,0.12,0.03,0.98,
0.226,-0.07,-0.05,0.11,0.11,0.03,0.98,
0.226,-0.09,-0.02,0.08,0.11,0.03,0.98,
0.229,-0.09,-0.02,0.08,0.11,0.03,0.98,
0.231,-0.09,-0.02,0.08,0.12,0.03,0.98,
0.231,-0.12,-0.00,0.05,0.12,0.03,0.98,
0.233,-0.12,-0.00,0.05,0.12,0.03,0.98,
0.236,-0.12,-0.00,0.05,0.11,0.03,0.97,
0.236,-0.12,0.02,0.05,0.11,0.03,0.97,
0.238,-0.12,0.02,0.05,0.11,0.03,0.97,
0.241,-0.12,0.02,0.05,0.12,0.03,0.97,
0.241,-0.12,0.01,0.02,0.12,0.03,0.97,
0.243,-0.12,0.01,0.02,0.12,0.02,0.97,
0.252,-0.12,0.01,0.02,0.12,0.02,0.97,
0.252,-0.12,-0.00,-0.00,0.12,0.02,0.97,
0.252,-0.12,-0.00,-0.00,0.12,0.02,0.97,
0.252,-0.12,-0.00,-0.00,0.12,0.02,0.96,
0.253,-0.09,-0.05,-0.04,0.12,0.02,0.96,
0.253,-0.09,-0.05,-0.04,0.13,0.02,0.96,
0.256,-0.09,-0.05,-0.04,0.13,0.02,0.96,
0.256,-0.07,-0.06,-0.06,0.13,0.02,0.96,
0.258,-0.07,-0.06,-0.06,0.13,0.02,0.96,
0.26,-0.07,-0.06,-0.06,0.13,0.02,0.96,
0.261,0.01,-0.08,-0.10,0.13,0.02,0.96,
0.263,0.01,-0.08,-0.10,0.13,0.02,0.97,
0.265,0.01,-0.08,-0.10,0.13,0.02,0.96,
0.266,0.03,-0.11,-0.09,0.13,0.02,0.96,
0.268,0.03,-0.11,-0.09,0.13,0.02,0.96,
0.27,0.03,-0.11,-0.09,0.13,0.02,0.96,
0.271,0.07,-0.11,-0.08,0.13,0.02,0.96,
0.273,0.07,-0.11,-0.08,0.13,0.02,0.96,
0.275,0.07,-0.11,-0.08,0.13,0.02,0.96,
0.275,0.06,-0.11,-0.09,0.13,0.02,0.96,
0.278,0.06,-0.11,-0.09,0.13,0.02,0.97,
0.28,0.06,-0.11,-0.09,0.13,0.02,0.97,
0.281,0.02,-0.11,-0.09,0.13,0.02,0.97,
0.283,0.02,-0.11,-0.09,0.13,0.02,0.97,
0.285,0.02,-0.11,-0.09,0.12,0.02,0.97,
0.285,-0.01,-0.11,-0.07,0.12,0.02,0.97,
0.288,-0.01,-0.11,-0.07,0.12,0.02,0.97,
0.29,-0.01,-0.11,-0.07,0.12,0.02,0.97,
0.29,-0.04,-0.11,-0.05,0.12,0.02,0.97,
0.292,-0.04,-0.11,-0.05,0.12,0.02,0.97,
0.295,-0.04,-0.11,-0.05,0.12,0.02,0.97,
0.295,-0.07,-0.11,-0.05,0.12,0.02,0.97,
0.297,-0.07,-0.11,-0.05,0.12,0.02,0.96,
0.3,-0.07,-0.11,-0.05,0.12,0.02,0.96,
0.3,-0.10,-0.11,-0.06,0.12,0.02,0.96,
0.302,-0.10,-0.11,-0.06,0.11,0.02,0.96,
0.305,-0.10,-0.11,-0.06,0.11,0.02,0.96,
0.305,-0.11,-0.13,-0.07,0.11,0.02,0.96,
0.307,-0.11,-0.13,-0.07,0.11,0.02,0.96,
0.309,-0.11,-0.13,-0.07,0.11,0.02,0.96,
0.31,-0.15,-0.14,-0.09,0.11,0.02,0.96,
0.312,-0.15,-0.14,-0.09,0.11,0.02,0.96,
0.315,-0.15,-0.14,-0.09,0.11,0.02,0.96,
0.316,-0.18,-0.12,-0.08,0.11,0.02,0.96,
0.317,-0.18,-0.12,-0.08,0.11,0.02,0.97,
0.319,-0.18,-0.12,-0.08,0.11,0.02,0.97,
0.319,-0.20,-0.11,-0.07,0.11,0.02,0.97,
0.322,-0.20,-0.11,-0.07,0.11,0.02,0.97,
0.324,-0.20,-0.11,-0.07,0.11,0.02,0.97,
0.324,-0.21,-0.11,-0.04,0.11,0.02,0.97,
0.327,-0.21,-0.11,-0.04,0.11,0.02,0.97,
0.329,-0.21,-0.11,-0.04,0.11,0.02,0.97,
0.33,-0.19,-0.10,-0.04,0.11,0.02,0.97,
0.332,-0.19,-0.10,-0.04,0.12,0.02,0.97,
0.334,-0.19,-0.10,-0.04,0.12,0.02,0.96,
0.334,-0.16,-0.13,-0.04,0.12,0.02,0.96,
0.336,-0.16,-0.13,-0.04,0.12,0.02,0.97,
0.339,-0.16,-0.13,-0.04,0.12,0.01,0.97,
0.339,-0.11,-0.14,-0.07,0.12,0.01,0.97,
0.341,-0.11,-0.14,-0.07,0.13,0.01,0.97,
0.344,-0.11,-0.14,-0.07,0.13,0.01,0.97,
0.344,-0.06,-0.16,-0.05,0.13,0.01,0.97,
0.352,-0.06,-0.16,-0.05,0.13,0.01,0.97,
0.352,-0.06,-0.16,-0.05,0.14,0.01,0.97,
0.352,0.01,-0.16,-0.03,0.14,0.01,0.97,
0.352,0.01,-0.16,-0.03,0.14,0.01,0.97,
0.354,0.01,-0.16,-0.03,0.14,0.01,0.97,
0.354,0.07,-0.16,-0.01,0.14,0.01,0.97,
0.356,0.07,-0.16,-0.01,0.15,0.01,0.97,
0.358,0.07,-0.16,-0.01,0.15,0.01,0.97,
0.358,0.12,-0.19,-0.02,0.15,0.01,0.97,
0.361,0.12,-0.19,-0.02,0.15,0.00,0.97,
0.364,0.12,-0.19,-0.02,0.15,0.00,0.97,
0.365,0.18,-0.20,-0.03,0.15,0.00,0.97,
0.366,0.18,-0.20,-0.03,0.15,0.01,0.97,
0.368,0.18,-0.20,-0.03,0.15,0.01,0.97,
0.369,0.22,-0.24,-0.03,0.15,0.01,0.97,
0.371,0.22,-0.24,-0.03,0.16,0.01,0.97,
0.373,0.22,-0.24,-0.03,0.15,0.01,0.97,
0.374,0.24,-0.23,-0.03,0.15,0.01,0.97,
0.376,0.24,-0.23,-0.03,0.15,0.01,0.97,
0.378,0.24,-0.23,-0.03,0.15,0.01,0.97,
0.378,0.24,-0.21,-0.01,0.15,0.01,0.97,
0.381,0.24,-0.21,-0.01,0.15,0.01,0.97,
0.383,0.24,-0.21,-0.01,0.14,0.01,0.97,
0.383,0.22,-0.17,-0.02,0.14,0.01,0.97,
0.385,0.22,-0.17,-0.02,0.14,0.01,0.97,
0.388,0.22,-0.17,-0.02,0.14,0.01,0.96,
0.39,0.17,-0.16,-0.02,0.14,0.01,0.96,
0.391,0.17,-0.16,-0.02,0.14,0.01,0.96,
0.393,0.17,-0.16,-0.02,0.13,0.02,0.96,
0.393,0.11,-0.14,-0.05,0.13,0.02,0.96,
0.395,0.11,-0.14,-0.05,0.13,0.02,0.96,
0.398,0.11,-0.14,-0.05,0.13,0.02,0.96,
0.398,0.06,-0.11,-0.08,0.13,0.02,0.96,
0.4,0.06,-0.11,-0.08,0.13,0.02,0.96,
0.403,0.06,-0.11,-0.08,0.12,0.02,0.96,
0.403,0.01,-0.08,-0.11,0.12,0.02,0.96,
0.405,0.01,-0.08,-0.11,0.12,0.02,0.96,
0.408,0.01,-0.08,-0.11,0.12,0.02,0.96,
0.408,-0.02,-0.06,-0.12,0.12,0.02,0.96,
0.41,-0.02,-0.06,-0.12,0.12,0.02,0.96,
0.412,-0.02,-0.06,-0.12,0.12,0.02,0.96,
0.412,-0.04,-0.06,-0.12,0.12,0.02,0.96,
0.415,-0.04,-0.06,-0.12,0.12,0.02,0.96,
0.417,-0.04,-0.06,-0.12,0.12,0.02,0.96,
0.417,-0.06,-0.06,-0.13,0.12,0.02,0.96,
0.42,-0.06,-0.06,-0.13,0.12,0.02,0.96,
0.422,-0.06,-0.06,-0.13,0.12,0.02,0.96,
0.422,-0.05,-0.07,-0.13,0.12,0.02,0.96,
0.425,-0.05,-0.07,-0.13,0.12,0.02,0.96,
0.428,-0.05,-0.07,-0.13,0.13,0.02,0.96,
0.428,-0.06,-0.09,-0.11,0.13,0.02,0.96,
0.43,-0.06,-0.09,-0.11,0.13,0.02,0.96,
0.432,-0.06,-0.09,-0.11,0.13,0.01,0.96,
0.433,-0.01,-0.08,-0.08,0.13,0.01,0.96,
0.435,-0.01,-0.08,-0.08,0.14,0.01,0.97,
0.437,-0.01,-0.08,-0.08,0.14,0.01,0.97,
0.437,0.03,-0.11,-0.06,0.14,0.01,0.97,
0.439,0.03,-0.11,-0.06,0.15,0.00,0.97,
0.442,0.03,-0.11,-0.06,0.15,0.00,0.97,
0.442,0.11,-0.18,-0.04,0.15,0.00,0.97,
0.448,0.11,-0.18,-0.04,0.16,-0.00,0.97,
0.448,0.11,-0.18,-0.04,0.16,-0.00,0.97,
0.448,0.20,-0.22,-0.04,0.16,-0.00,0.97,
0.449,0.20,-0.22,-0.04,0.17,-0.00,0.97,
0.452,0.20,-0.22,-0.04,0.17,-0.00,0.97,
0.452,0.32,-0.28,-0.03,0.17,-0.00,0.97,
0.454,0.32,-0.28,-0.03,0.18,-0.01,0.97,
0.456,0.32,-0.28,-0.03,0.19,-0.00,0.97,
0.456,0.42,-0.29,-0.03,0.19,-0.00,0.97,
0.459,0.42,-0.29,-0.03,0.19,-0.01,0.97,
0.461,0.42,-0.29,-0.03,0.20,-0.00,0.97,
0.462,0.52,-0.30,0.00,0.20,-0.00,0.97,
0.464,0.52,-0.30,0.00,0.20,-0.00,0.98,
0.466,0.52,-0.30,0.00,0.20,-0.00,0.97,
0.466,0.60,-0.30,0.03,0.20,-0.00,0.97,
0.469,0.60,-0.30,0.03,0.21,-0.00,0.97,
0.471,0.60,-0.30,0.03,0.21,-0.00,0.97,
0.471,0.67,-0.29,0.05,0.21,-0.00,0.97,
0.473,0.67,-0.29,0.05,0.22,-0.00,0.97,
0.476,0.67,-0.29,0.05,0.22,-0.00,0.97,
0.477,0.74,-0.28,0.01,0.22,-0.00,0.97,
0.478,0.74,-0.28,0.01,0.22,0.00,0.97,
0.481,0.74,-0.28,0.01,0.22,0.00,0.96,
0.481,0.82,-0.26,-0.02,0.22,0.00,0.96,
0.484,0.82,-0.26,-0.02,0.23,-0.00,0.96,
0.486,0.82,-0.26,-0.02,0.23,-0.01,0.96,
0.486,0.87,-0.24,-0.06,0.23,-0.01,0.96,
0.488,0.87,-0.24,-0.06,0.24,-0.01,0.95,
0.491,0.87,-0.24,-0.06,0.24,-0.00,0.95,
0.491,0.94,-0.32,-0.10,0.24,-0.00,0.95,
0.493,0.94,-0.32,-0.10,0.23,0.00,0.95,
0.496,0.94,-0.32,-0.10,0.23,0.01,0.95,
0.496,0.99,-0.28,-0.17,0.23,0.01,0.95,
0.498,0.99,-0.28,-0.17,0.23,0.01,0.94,
0.5,0.99,-0.28,-0.17,0.23,0.01,0.94,
0.501,0.94,-0.21,-0.22,0.23,0.01,0.94,
0.503,0.94,-0.21,-0.22,0.23,0.01,0.94,
0.505,0.94,-0.21,-0.22,0.24,0.01,0.94,
0.505,0.94,-0.16,-0.25,0.24,0.01,0.94,
0.508,0.94,-0.16,-0.25,0.24,0.01,0.94,
0.511,0.94,-0.16,-0.25,0.24,0.01,0.94,
0.511,0.98,-0.16,-0.26,0.24,0.01,0.94,
0.513,0.98,-0.16,-0.26,0.24,0.00,0.94,
0.515,0.98,-0.16,-0.26,0.24,-0.00,0.93,
0.516,1.03,-0.17,-0.29,0.24,-0.00,0.93,
0.518,1.03,-0.17,-0.29,0.25,-0.01,0.93,
0.52,1.03,-0.17,-0.29,0.25,-0.01,0.93,
0.52,1.06,-0.24,-0.33,0.25,-0.01,0.93,
0.523,1.06,-0.24,-0.33,0.26,-0.01,0.92,
0.525,1.06,-0.24,-0.33,0.26,-0.02,0.92,
0.525,1.14,-0.34,-0.38,0.26,-0.02,0.92,
0.528,1.14,-0.34,-0.38,0.27,-0.03,0.91,
0.53,1.14,-0.34,-0.38,0.27,-0.03,0.91,
0.53,1.20,-0.43,-0.48,0.27,-0.03,0.91,
0.532,1.20,-0.43,-0.48,0.27,-0.03,0.91,
0.535,1.20,-0.43,-0.48,0.27,-0.03,0.91,
0.535,1.25,-0.53,-0.55,0.27,-0.03,0.91,
0.537,1.25,-0.53,-0.55,0.27,-0.04,0.91,
0.54,1.25,-0.53,-0.55,0.28,-0.04,0.91,
0.54,1.28,-0.59,-0.58,0.28,-0.04,0.91,
0.542,1.28,-0.59,-0.58,0.28,-0.04,0.91,
0.548,1.28,-0.59,-0.58,0.28,-0.05,0.91,
0.548,1.31,-0.64,-0.57,0.28,-0.05,0.91,
0.548,1.31,-0.64,-0.57,0.28,-0.05,0.91,
0.549,1.31,-0.64,-0.57,0.28,-0.05,0.91,
0.55,1.35,-0.70,-0.54,0.28,-0.05,0.91,
0.552,1.35,-0.70,-0.54,0.28,-0.05,0.92,
0.554,1.35,-0.70,-0.54,0.28,-0.06,0.92,
0.554,1.35,-0.76,-0.52,0.28,-0.06,0.92,
0.557,1.35,-0.76,-0.52,0.27,-0.06,0.92,
0.559,1.35,-0.76,-0.52,0.27,-0.06,0.92,
0.559,1.29,-0.80,-0.49,0.27,-0.06,0.92,
0.562,1.29,-0.80,-0.49,0.26,-0.05,0.92,
0.564,1.29,-0.80,-0.49,0.26,-0.05,0.92,
0.564,1.23,-0.81,-0.47,0.26,-0.05,0.92,
0.566,1.23,-0.81,-0.47,0.25,-0.05,0.92,
0.569,1.23,-0.81,-0.47,0.24,-0.04,0.92,
0.569,1.08,-0.76,-0.46,0.24,-0.04,0.92,
0.571,1.08,-0.76,-0.46,0.23,-0.04,0.92,
0.574,1.08,-0.76,-0.46,0.22,-0.03,0.92,
0.574,0.91,-0.70,-0.46,0.22,-0.03,0.92,
0.576,0.91,-0.70,-0.46,0.21,-0.03,0.92,
0.579,0.91,-0.70,-0.46,0.21,-0.03,0.92,
0.58,0.73,-0.60,-0.46,0.21,-0.03,0.92,
0.581,0.73,-0.60,-0.46,0.20,-0.03,0.91,
0.584,0.73,-0.60,-0.46,0.20,-0.02,0.91,
0.584,0.58,-0.56,-0.45,0.20,-0.02,0.91,
0.586,0.58,-0.56,-0.45,0.19,-0.02,0.91,
0.588,0.58,-0.56,-0.45,0.19,-0.02,0.91,
0.589,0.47,-0.50,-0.49,0.19,-0.02,0.91,
0.591,0.47,-0.50,-0.49,0.18,-0.02,0.91,
0.596,0.47,-0.50,-0.49,0.18,-0.02,0.90,
0.597,0.36,-0.46,-0.54,0.18,-0.02,0.90,
0.597,0.36,-0.46,-0.54,0.18,-0.02,0.90,
0.599,0.36,-0.46,-0.54,0.18,-0.02,0.90,
0.599,0.30,-0.45,-0.57,0.18,-0.02,0.90,
0.601,0.30,-0.45,-0.57,0.18,-0.03,0.89,
0.604,0.30,-0.45,-0.57,0.18,-0.03,0.89,
0.604,0.29,-0.45,-0.62,0.18,-0.03,0.89,
0.606,0.29,-0.45,-0.62,0.18,-0.03,0.89,
0.609,0.29,-0.45,-0.62,0.18,-0.04,0.88,
0.609,0.30,-0.52,-0.66,0.18,-0.04,0.88,
0.612,0.30,-0.52,-0.66,0.18,-0.04,0.88,
0.614,0.30,-0.52,-0.66,0.18,-0.04,0.88,
0.614,0.29,-0.61,-0.73,0.18,-0.04,0.88,
0.616,0.29,-0.61,-0.73,0.18,-0.05,0.87,
0.618,0.29,-0.61,-0.73,0.17,-0.05,0.87,
0.618,0.30,-0.67,-0.80,0.17,-0.05,0.87,
0.621,0.30,-0.67,-0.80,0.17,-0.05,0.87,
0.623,0.30,-0.67,-0.80,0.17,-0.05,0.87,
0.624,0.30,-0.72,-0.84,0.17,-0.05,0.87,
0.626,0.30,-0.72,-0.84,0.17,-0.05,0.87,
0.628,0.30,-0.72,-0.84,0.16,-0.05,0.87,
0.629,0.27,-0.73,-0.88,0.16,-0.05,0.87,
0.631,0.27,-0.73,-0.88,0.16,-0.04,0.87,
0.633,0.27,-0.73,-0.88,0.16,-0.04,0.87,
0.633,0.22,-0.70,-0.87,0.16,-0.04,0.87,
0.635,0.22,-0.70,-0.87,0.15,-0.03,0.87,
0.638,0.22,-0.70,-0.87,0.15,-0.03,0.87,
0.638,0.18,-0.64,-0.86,0.15,-0.03,0.87,
0.64,0.18,-0.64,-0.86,0.14,-0.02,0.88,
0.643,0.08,-0.54,-0.82,0.14,-0.02,0.88,
0.643,0.08,-0.54,-0.82,0.13,-0.02,0.88,
0.645,0.08,-0.54,-0.82,0.13,-0.01,0.88,
0.649,0.08,-0.54,-0.82,0.12,-0.01,0.89,
0.65,-0.06,-0.42,-0.77,0.12,-0.01,0.89,
0.651,-0.06,-0.42,-0.77,0.12,-0.00,0.89,
0.652,-0.06,-0.42,-0.77,0.11,-0.00,0.90,
0.653,-0.18,-0.33,-0.70,0.11,-0.00,0.90,
0.655,-0.18,-0.33,-0.70,0.11,0.00,0.90,
0.657,-0.18,-0.33,-0.70,0.10,0.00,0.91,
0.657,-0.28,-0.26,-0.59,0.10,0.00,0.91,
0.66,-0.28,-0.26,-0.59,0.10,0.00,0.91,
0.667,-0.28,-0.26,-0.59,0.10,0.00,0.91,
0.667,-0.39,-0.22,-0.48,0.10,0.00,0.91,
0.668,-0.39,-0.22,-0.48,0.09,0.01,0.91,
0.668,-0.39,-0.22,-0.48,0.09,0.01,0.92,
0.668,-0.47,-0.18,-0.42,0.09,0.01,0.92,
0.67,-0.47,-0.18,-0.42,0.09,0.00,0.92,
0.672,-0.47,-0.18,-0.42,0.09,0.00,0.92,
0.672,-0.54,-0.17,-0.36,0.09,0.00,0.92,
0.674,-0.54,-0.17,-0.36,0.09,-0.00,0.93,
0.678,-0.54,-0.17,-0.36,0.09,-0.01,0.93,
0.678,-0.58,-0.20,-0.31,0.09,-0.01,0.93,
0.679,-0.58,-0.20,-0.31,0.10,-0.01,0.94,
0.682,-0.58,-0.20,-0.31,0.10,-0.02,0.94,
0.682,-0.57,-0.26,-0.23,0.10,-0.02,0.94,
0.684,-0.57,-0.26,-0.23,0.10,-0.02,0.94,
0.687,-0.57,-0.26,-0.23,0.11,-0.03,0.95,
0.687,-0.52,-0.36,-0.14,0.11,-0.03,0.95,
0.689,-0.52,-0.36,-0.14,0.11,-0.03,0.95,
0.691,-0.52,-0.36,-0.14,0.11,-0.04,0.95,
0.691,-0.45,-0.45,-0.06,0.11,-0.04,0.95,
0.694,-0.45,-0.45,-0.06,0.11,-0.04,0.96,
0.696,-0.45,-0.45,-0.06,0.11,-0.05,0.96,
0.696,-0.45,-0.54,-0.01,0.11,-0.05,0.96,
0.699,-0.45,-0.54,-0.01,0.12,-0.05,0.97,
0.701,-0.45,-0.54,-0.01,0.11,-0.05,0.97,
0.701,-0.45,-0.63,0.08,0.11,-0.05,0.97,
0.704,-0.45,-0.63,0.08,0.11,-0.06,0.98,
0.706,-0.45,-0.63,0.08,0.11,-0.06,0.98,
0.706,-0.42,-0.69,0.16,0.11,-0.06,0.98,
0.709,-0.42,-0.69,0.16,0.11,-0.06,0.98,
0.711,-0.42,-0.69,0.16,0.11,-0.06,0.99,
0.712,-0.47,-0.71,0.26,0.11,-0.06,0.99,
0.714,-0.47,-0.71,0.26,0.11,-0.06,0.99,
0.717,-0.47,-0.71,0.26,0.11,-0.06,0.99,
0.717,-0.48,-0.70,0.35,0.11,-0.06,0.99,
0.718,-0.48,-0.70,0.35,0.11,-0.06,1.00,
0.721,-0.48,-0.70,0.35,0.10,-0.06,1.00,
0.721,-0.52,-0.70,0.40,0.10,-0.06,1.00,
0.723,-0.52,-0.70,0.40,0.10,-0.06,1.00,
0.726,-0.52,-0.70,0.40,0.10,-0.06,1.00,
0.726,-0.55,-0.69,0.46,0.10,-0.06,1.00,
0.728,-0.55,-0.69,0.46,0.10,-0.06,1.00,
0.731,-0.55,-0.69,0.46,0.10,-0.06,1.01,
0.731,-0.58,-0.67,0.49,0.10,-0.06,1.01,
0.733,-0.58,-0.67,0.49,0.10,-0.06,1.01,
0.735,-0.58,-0.67,0.49,0.11,-0.06,1.01,
0.736,-0.59,-0.66,0.52,0.11,-0.06,1.01,
0.738,-0.59,-0.66,0.52,0.11,-0.06,1.01,
0.74,-0.59,-0.66,0.52,0.10,-0.06,1.01,
0.74,-0.56,-0.66,0.54,0.10,-0.06,1.01,
0.743,-0.56,-0.66,0.54,0.10,-0.06,1.01,
0.746,-0.56,-0.66,0.54,0.10,-0.06,1.01,
0.746,-0.55,-0.64,0.55,0.10,-0.06,1.01,
0.748,-0.55,-0.64,0.55,0.10,-0.06,1.01,
0.75,-0.55,-0.64,0.55,0.10,-0.06,1.01,
0.751,-0.55,-0.62,0.54,0.10,-0.06,1.01,
0.753,-0.55,-0.62,0.54,0.10,-0.06,1.01,
0.755,-0.55,-0.62,0.54,0.09,-0.06,1.01,
0.755,-0.55,-0.58,0.54,0.09,-0.06,1.01,
0.758,-0.55,-0.58,0.54,0.09,-0.06,1.01,
0.76,-0.55,-0.58,0.54,0.08,-0.06,1.01,
0.76,-0.59,-0.56,0.55,0.08,-0.06,1.01,
0.763,-0.59,-0.56,0.55,0.08,-0.05,1.00,
0.765,-0.59,-0.56,0.55,0.07,-0.05,1.00,
0.765,-0.66,-0.54,0.50,0.07,-0.05,1.00,
0.768,-0.66,-0.54,0.50,0.07,-0.06,1.00,
0.77,-0.66,-0.54,0.50,0.06,-0.06,1.00,
0.77,-0.74,-0.50,0.45,0.06,-0.06,1.00,
0.772,-0.74,-0.50,0.45,0.05,-0.06,0.99,
0.775,-0.74,-0.50,0.45,0.05,-0.06,0.99,
0.775,-0.84,-0.50,0.40,0.05,-0.06,0.99,
0.777,-0.84,-0.50,0.40,0.04,-0.07,0.99,
0.78,-0.84,-0.50,0.40,0.03,-0.07,0.99,
0.78,-0.94,-0.53,0.35,0.03,-0.07,0.99,
0.782,-0.94,-0.53,0.35,0.03,-0.08,0.98,
0.785,-0.94,-0.53,0.35,0.02,-0.08,0.98,
0.785,-1.03,-0.59,0.29,0.02,-0.08,0.98,
0.787,-1.03,-0.59,0.29,0.02,-0.08,0.97,
0.789,-1.03,-0.59,0.29,0.02,-0.09,0.97,
0.79,-1.13,-0.67,0.20,0.02,-0.09,0.97,
0.792,-1.13,-0.67,0.20,0.01,-0.09,0.97,
0.794,-1.13,-0.67,0.20,0.01,-0.09,0.97,
0.795,-1.14,-0.72,0.13,0.01,-0.09,0.97,
0.797,-1.14,-0.72,0.13,0.00,-0.08,0.97,
0.799,-1.14,-0.72,0.13,-0.00,-0.08,0.97,
0.8,-1.23,-0.71,0.07,-0.00,-0.08,0.97,
0.802,-1.23,-0.71,0.07,-0.01,-0.08,0.97,
0.804,-1.23,-0.71,0.07,-0.01,-0.07,0.97,
0.804,-1.30,-0.64,0.08,-0.01,-0.07,0.97,
0.807,-1.30,-0.64,0.08,-0.01,-0.06,0.98,
0.809,-1.30,-0.64,0.08,-0.01,-0.05,0.99,
0.809,-1.35,-0.54,0.13,-0.01,-0.05,0.99,
0.812,-1.35,-0.54,0.13,-0.02,-0.04,0.99,
0.814,-1.35,-0.54,0.13,-0.02,-0.03,0.99,
0.814,-1.40,-0.37,0.25,-0.02,-0.03,0.99,
0.816,-1.40,-0.37,0.25,-0.02,-0.02,1.00,
0.819,-1.40,-0.37,0.25,-0.02,-0.01,1.00,
0.819,-1.45,-0.17,0.34,-0.02,-0.01,1.00,
0.821,-1.45,-0.17,0.34,-0.01,-0.01,1.01,
0.824,-1.45,-0.17,0.34,-0.01,0.00,1.01,
0.824,-1.45,0.02,0.41,-0.01,0.00,1.01,
0.827,-1.45,0.02,0.41,-0.00,0.01,1.01,
0.829,-1.45,0.02,0.41,0.01,0.01,1.01,
0.829,-1.40,0.19,0.47,0.01,0.01,1.01,
0.831,-1.40,0.19,0.47,0.02,0.01,1.01,
0.834,-1.40,0.19,0.47,0.03,0.02,1.00,
0.834,-1.27,0.33,0.48,0.03,0.02,1.00,
0.836,-1.27,0.33,0.48,0.04,0.02,1.00,
0.838,-1.27,0.33,0.48,0.05,0.02,1.00,
0.839,-1.06,0.36,0.45,0.05,0.02,1.00,
0.841,-1.06,0.36,0.45,0.06,0.02,1.00,
0.845,-1.06,0.36,0.45,0.07,0.02,1.00,
0.845,-0.85,0.40,0.43,0.07,0.02,1.00,
0.846,-0.85,0.40,0.43,0.07,0.02,1.00,
0.849,-0.85,0.40,0.43,0.08,0.01,1.00,
0.849,-0.70,0.42,0.42,0.08,0.01,1.00,
0.851,-0.70,0.42,0.42,0.09,0.01,1.00,
0.853,-0.70,0.42,0.42,0.10,0.01,1.00,
0.854,-0.55,0.39,0.40,0.10,0.01,1.00,
0.856,-0.55,0.39,0.40,0.10,-0.00,0.99,
0.858,-0.55,0.39,0.40,0.11,-0.01,0.99,
0.858,-0.38,0.31,0.36,0.11,-0.01,0.99,
0.866,-0.38,0.31,0.36,0.11,-0.02,0.99,
0.867,-0.38,0.31,0.36,0.11,-0.02,0.99,
0.867,-0.24,0.18,0.32,0.11,-0.02,0.99,
0.868,-0.24,0.18,0.32,0.11,-0.03,0.99,
0.868,-0.19,0.03,0.27,0.11,-0.03,0.99,
0.868,-0.19,0.03,0.27,0.10,-0.04,0.99,
0.87,-0.19,0.03,0.27,0.09,-0.04,0.99,
0.873,-0.19,0.03,0.27,0.08,-0.04,0.99,
0.873,-0.23,-0.11,0.28,0.08,-0.04,0.99,
0.875,-0.23,-0.11,0.28,0.07,-0.05,0.99,
0.885,-0.23,-0.11,0.28,0.05,-0.04,0.99,
0.887,-0.40,-0.19,0.27,0.05,-0.04,0.99,
0.887,-0.40,-0.19,0.27,0.04,-0.04,0.99,
0.887,-0.40,-0.19,0.27,0.02,-0.04,0.99,
0.887,-0.64,-0.19,0.27,0.02,-0.04,0.99,
0.887,-0.64,-0.19,0.27,0.00,-0.03,0.99,
0.888,-0.64,-0.19,0.27,-0.01,-0.03,0.99,
0.889,-0.96,-0.14,0.27,-0.01,-0.03,0.99,
0.89,-0.96,-0.14,0.27,-0.02,-0.02,0.99,
0.892,-0.96,-0.14,0.27,-0.04,-0.02,0.99,
0.892,-1.24,-0.06,0.25,-0.04,-0.02,0.99,
0.895,-1.24,-0.06,0.25,-0.05,-0.01,0.99,
0.897,-1.24,-0.06,0.25,-0.06,-0.00,0.99,
0.897,-1.53,0.05,0.25,-0.06,-0.00,0.99,
0.9,-1.53,0.05,0.25,-0.07,0.00,0.99,
0.902,-1.53,0.05,0.25,-0.08,0.00,1.00,
0.902,-1.79,0.18,0.29,-0.08,0.00,1.00,
0.905,-1.79,0.18,0.29,-0.08,0.01,1.00,
0.907,-1.79,0.18,0.29,-0.08,0.01,1.00,
0.907,-1.96,0.29,0.33,-0.08,0.01,1.00,
0.91,-1.96,0.29,0.33,-0.08,0.02,1.00,
0.912,-1.96,0.29,0.33,-0.08,0.02,1.00,
0.912,-2.03,0.37,0.36,-0.08,0.02,1.00,
0.914,-2.03,0.37,0.36,-0.07,0.02,1.00,
0.917,-2.03,0.37,0.36,-0.06,0.02,1.00,
0.917,-1.99,0.44,0.40,-0.06,0.02,1.00,
0.919,-1.99,0.44,0.40,-0.05,0.02,1.00,
0.922,-1.99,0.44,0.40,-0.03,0.01,1.00,
0.922,-1.84,0.47,0.39,-0.03,0.01,1.00,
0.924,-1.84,0.47,0.39,-0.02,0.01,1.00,
0.927,-1.84,0.47,0.39,-0.00,0.00,1.00,
0.928,-1.62,0.44,0.38,-0.00,0.00,1.00,
0.929,-1.62,0.44,0.38,0.01,-0.00,1.00,
0.932,-1.62,0.44,0.38,0.03,-0.01,0.99,
0.932,-1.32,0.37,0.36,0.03,-0.01,0.99,
0.934,-1.32,0.37,0.36,0.05,-0.01,0.99,
0.936,-1.32,0.37,0.36,0.06,-0.02,0.99,
0.937,-1.00,0.27,0.33,0.06,-0.02,0.99,
0.939,-1.00,0.27,0.33,0.08,-0.03,0.99,
0.941,-1.00,0.27,0.33,0.09,-0.03,0.99,
0.942,-0.69,0.14,0.30,0.09,-0.03,0.99,
0.944,-0.69,0.14,0.30,0.10,-0.04,0.99,
0.947,-0.69,0.14,0.30,0.11,-0.04,0.99,
0.948,-0.39,0.04,0.31,0.11,-0.04,0.99,
0.949,-0.39,0.04,0.31,0.12,-0.04,0.99,
0.951,-0.39,0.04,0.31,0.12,-0.04,0.99,
0.951,-0.15,-0.03,0.32,0.12,-0.04,0.99,
0.954,-0.15,-0.03,0.32,0.12,-0.04,0.99,
0.956,-0.15,-0.03,0.32,0.12,-0.04,0.99,
0.957,-0.03,-0.05,0.33,0.12,-0.04,0.99,
0.958,-0.03,-0.05,0.33,0.11,-0.03,0.99,
0.966,-0.03,-0.05,0.33,0.11,-0.02,0.99,
0.966,-0.05,-0.02,0.31,0.11,-0.02,0.99,
0.967,-0.05,-0.02,0.31,0.10,-0.01,1.00,
0.967,-0.05,-0.02,0.31,0.09,-0.00,1.00,
0.967,-0.13,0.12,0.32,0.09,-0.00,1.00,
0.968,-0.13,0.12,0.32,0.08,0.01,1.00,
0.971,-0.13,0.12,0.32,0.07,0.02,1.01,
0.971,-0.30,0.32,0.38,0.07,0.02,1.01,
0.973,-0.30,0.32,0.38,0.06,0.03,1.01,
0.975,-0.30,0.32,0.38,0.05,0.03,1.01,
0.976,-0.49,0.52,0.44,0.05,0.03,1.01,
0.982,-0.49,0.52,0.44,0.04,0.04,1.01,
0.983,-0.49,0.52,0.44,0.04,0.04,1.01,
0.983,-0.67,0.68,0.49,0.04,0.04,1.01,
0.983,-0.67,0.68,0.49,0.04,0.04,1.01,
0.985,-0.67,0.68,0.49,0.03,0.05,1.01,
0.986,-0.80,0.80,0.51,0.03,0.05,1.01,
0.988,-0.80,0.80,0.51,0.03,0.04,1.01,
0.991,-0.80,0.80,0.51,0.03,0.04,1.01,
0.991,-0.86,0.85,0.50,0.03,0.04,1.01,
0.993,-0.86,0.85,0.50,0.04,0.04,1.00,
0.995,-0.86,0.85,0.50,0.05,0.03,1.00,
0.995,-0.86,0.84,0.44,0.05,0.03,1.00,
0.998,-0.86,0.84,0.44,0.05,0.03,0.99,
1.0,-0.86,0.84,0.44,0.05,0.02,0.99,
1.0,-0.77,0.77,0.37,0.05,0.02,0.99,
1.003,-0.77,0.77,0.37,0.06,0.02,0.99,
1.005,-0.77,0.77,0.37,0.06,0.02,0.98,
1.005,-0.68,0.69,0.30,0.06,0.02,0.98,
1.008,-0.68,0.69,0.30,0.07,0.02,0.98,
1.01,-0.68,0.69,0.30,0.08,0.01,0.98,
1.01,-0.58,0.62,0.24,0.08,0.01,0.98,
1.012,-0.58,0.62,0.24,0.08,0.01,0.98,
1.015,-0.58,0.62,0.24,0.09,0.01,0.98,
1.015,-0.47,0.57,0.19,0.09,0.01,0.98,
1.017,-0.47,0.57,0.19,0.09,0.01,0.98,
1.02,-0.47,0.57,0.19,0.10,0.01,0.98,
1.02,-0.34,0.54,0.17,0.10,0.01,0.98,
1.022,-0.34,0.54,0.17,0.10,0.01,0.98,
1.025,-0.34,0.54,0.17,0.11,0.01,0.98,
1.025,-0.22,0.55,0.16,0.11,0.01,0.98,
1.027,-0.22,0.55,0.16,0.11,0.01,0.98,
1.03,-0.22,0.55,0.16,0.11,0.02,0.99,
1.03,-0.11,0.56,0.18,0.11,0.02,0.99,
1.032,-0.11,0.56,0.18,0.12,0.02,0.99,
1.034,-0.11,0.56,0.18,0.12,0.02,0.99,
1.035,-0.05,0.61,0.22,0.12,0.02,0.99,
1.037,-0.05,0.61,0.22,0.11,0.02,0.99,
1.039,-0.02,0.66,0.26,0.11,0.02,0.99,
1.04,-0.02,0.66,0.26,0.11,0.03,0.99,
1.042,-0.02,0.66,0.26,0.10,0.03,0.99,
1.05,-0.02,0.66,0.26,0.10,0.03,0.99,
1.05,-0.06,0.72,0.30,0.10,0.03,0.99,
1.051,-0.06,0.72,0.30,0.09,0.03,0.99,
1.051,-0.06,0.72,0.30,0.08,0.03,0.99,
1.051,-0.18,0.77,0.30,0.08,0.03,0.99,
1.052,-0.18,0.77,0.30,0.08,0.04,0.99,
1.054,-0.18,0.77,0.30,0.07,0.04,0.99,
1.054,-0.31,0.81,0.28,0.07,0.04,0.99,
1.056,-0.31,0.81,0.28,0.06,0.04,0.99,
1.065,-0.31,0.81,0.28,0.05,0.04,0.99,
1.066,-0.44,0.86,0.27,0.05,0.04,0.99,
1.066,-0.44,0.86,0.27,0.05,0.04,0.99,
1.066,-0.44,0.86,0.27,0.04,0.04,1.00,
1.066,-0.58,0.90,0.29,0.04,0.04,1.00,
1.066,-0.58,0.90,0.29,0.04,0.04,0.99,
1.069,-0.58,0.90,0.29,0.04,0.04,1.00,
1.069,-0.72,0.93,0.32,0.04,0.04,1.00,
1.071,-0.72,0.93,0.32,0.03,0.04,1.00,
1.073,-0.72,0.93,0.32,0.04,0.03,1.00,
1.073,-0.77,0.89,0.32,0.04,0.03,1.00,
1.076,-0.77,0.89,0.32,0.04,0.03,0.99,
1.078,-0.77,0.89,0.32,0.04,0.02,0.99,
1.078,-0.77,0.84,0.32,0.04,0.02,0.99,
1.081,-0.77,0.84,0.32,0.04,0.01,0.99,
1.083,-0.77,0.84,0.32,0.05,0.01,0.99,
1.083,-0.74,0.74,0.30,0.05,0.01,0.99,
1.085,-0.74,0.74,0.30,0.05,0.01,0.99,
1.088,-0.74,0.74,0.30,0.05,0.00,0.99,
1.089,-0.66,0.62,0.28,0.05,0.00,0.99,
1.091,-0.66,0.62,0.28,0.06,-0.00,0.99,
1.093,-0.66,0.62,0.28,0.06,-0.00,0.99,
1.093,-0.58,0.54,0.27,0.06,-0.00,0.99,
1.096,-0.58,0.54,0.27,0.06,-0.00,0.99,
1.098,-0.58,0.54,0.27,0.07,0.00,0.99,
1.099,-0.52,0.50,0.25,0.07,0.00,0.99,
1.1,-0.52,0.50,0.25,0.07,0.00,1.00,
1.103,-0.52,0.50,0.25,0.07,0.01,1.00,
1.103,-0.44,0.52,0.27,0.07,0.01,1.00,
1.105,-0.44,0.52,0.27,0.07,0.01,1.00,
1.108,-0.44,0.52,0.27,0.07,0.01,1.01,
1.108,-0.37,0.57,0.33,0.07,0.01,1.01,
1.111,-0.37,0.57,0.33,0.08,0.02,1.01,
1.113,-0.37,0.57,0.33,0.07,0.02,1.01,
1.113,-0.35,0.65,0.40,0.07,0.02,1.01,
1.115,-0.35,0.65,0.40,0.07,0.03,1.01,
1.117,-0.35,0.65,0.40,0.07,0.03,1.01,
1.118,-0.33,0.74,0.44,0.07,0.03,1.01,
1.12,-0.33,0.74,0.44,0.07,0.03,1.01,
1.122,-0.33,0.74,0.44,0.07,0.03,1.02,
1.123,-0.33,0.82,0.48,0.07,0.03,1.02,
1.125,-0.33,0.82,0.48,0.07,0.03,1.02,
1.128,-0.33,0.82,0.48,0.08,0.03,1.02,
1.128,-0.33,0.86,0.49,0.08,0.03,1.02,
1.13,-0.33,0.86,0.49,0.07,0.03,1.02,
1.132,-0.33,0.86,0.49,0.07,0.04,1.02,
1.132,-0.31,0.87,0.52,0.07,0.04,1.02,
1.135,-0.31,0.87,0.52,0.06,0.04,1.02,
1.137,-0.31,0.87,0.52,0.06,0.04,1.03,
1.137,-0.33,0.91,0.55,0.06,0.04,1.03,
1.14,-0.33,0.91,0.55,0.05,0.05,1.03,
1.142,-0.33,0.91,0.55,0.04,0.05,1.03,
1.143,-0.44,0.98,0.58,0.04,0.05,1.03,
1.15,-0.44,0.98,0.58,0.04,0.05,1.03,
1.151,-0.44,0.98,0.58,0.04,0.06,1.03,
1.151,-0.55,1.07,0.62,0.04,0.06,1.03,
1.151,-0.55,1.07,0.62,0.03,0.05,1.04,
1.152,-0.55,1.07,0.62,0.03,0.05,1.04,
1.152,-0.63,1.12,0.64,0.03,0.05,1.04,
1.154,-0.63,1.12,0.64,0.04,0.05,1.04,
1.157,-0.63,1.12,0.64,0.04,0.05,1.04,
1.157,-0.65,1.09,0.69,0.04,0.05,1.04,
1.159,-0.65,1.09,0.69,0.04,0.04,1.04,
1.162,-0.65,1.09,0.69,0.04,0.04,1.04,
1.162,-0.61,1.06,0.70,0.04,0.04,1.04,
1.164,-0.61,1.06,0.70,0.04,0.03,1.04,
1.166,-0.61,1.06,0.70,0.04,0.03,1.04,
1.166,-0.59,0.98,0.71,0.04,0.03,1.04,
1.169,-0.59,0.98,0.71,0.05,0.02,1.03,
1.171,-0.59,0.98,0.71,0.05,0.02,1.03,
1.171,-0.52,0.88,0.67,0.05,0.02,1.03,
1.174,-0.52,0.88,0.67,0.05,0.01,1.03,
1.177,-0.52,0.88,0.67,0.06,0.00,1.02,
1.177,-0.44,0.77,0.62,0.06,0.00,1.02,
1.179,-0.44,0.77,0.62,0.06,0.00,1.02,
1.181,-0.44,0.77,0.62,0.06,-0.00,1.01,
1.181,-0.38,0.65,0.53,0.06,-0.00,1.01,
1.184,-0.38,0.65,0.53,0.06,-0.01,1.01,
1.187,-0.38,0.65,0.53,0.06,-0.01,1.01,
1.187,-0.33,0.56,0.44,0.06,-0.01,1.01,
1.189,-0.33,0.56,0.44,0.06,-0.01,1.01,
1.191,-0.33,0.56,0.44,0.06,-0.01,1.01,
1.191,-0.27,0.49,0.39,0.06,-0.01,1.01,
1.193,-0.27,0.49,0.39,0.06,-0.01,1.01,
1.196,-0.27,0.49,0.39,0.06,-0.01,1.01,
1.197,-0.27,0.48,0.35,0.06,-0.01,1.01,
1.199,-0.27,0.48,0.35,0.06,-0.01,1.01,
1.201,-0.27,0.48,0.35,0.06,-0.01,1.01,
1.201,-0.29,0.48,0.33,0.06,-0.01,1.01,
1.203,-0.29,0.48,0.33,0.06,-0.01,1.01,
1.206,-0.29,0.48,0.33,0.06,-0.01,1.01,
1.206,-0.31,0.48,0.35,0.06,-0.01,1.01,
1.208,-0.31,0.48,0.35,0.06,-0.02,1.01,
1.211,-0.31,0.48,0.35,0.07,-0.02,1.01,
1.211,-0.27,0.45,0.36,0.07,-0.02,1.01,
1.213,-0.27,0.45,0.36,0.07,-0.02,1.01,
1.215,-0.27,0.45,0.36,0.06,-0.02,1.01,
1.216,-0.24,0.43,0.34,0.06,-0.02,1.01,
1.218,-0.24,0.43,0.34,0.06,-0.02,1.01,
1.22,-0.24,0.43,0.34,0.06,-0.02,1.01,
1.221,-0.22,0.42,0.33,0.06,-0.02,1.01,
1.223,-0.22,0.42,0.33,0.06,-0.02,1.01,
1.226,-0.22,0.42,0.33,0.06,-0.01,1.01,
1.227,-0.24,0.43,0.33,0.06,-0.01,1.01,
1.228,-0.24,0.43,0.33,0.06,-0.01,1.02,
1.23,-0.24,0.43,0.33,0.06,-0.01,1.02,
1.231,-0.25,0.47,0.37,0.06,-0.01,1.02,
1.232,-0.25,0.47,0.37,0.05,-0.00,1.03,
1.235,-0.25,0.47,0.37,0.05,0.00,1.03,
1.235,-0.27,0.53,0.45,0.05,0.00,1.03,
1.237,-0.27,0.53,0.45,0.05,0.00,1.03,
1.24,-0.34,0.60,0.52,0.05,0.00,1.03,
1.24,-0.34,0.60,0.52,0.04,0.01,1.04,
1.243,-0.34,0.60,0.52,0.04,0.01,1.04,
1.245,-0.34,0.60,0.52,0.04,0.01,1.04,
1.245,-0.38,0.67,0.58,0.04,0.01,1.04,
1.248,-0.38,0.67,0.58,0.03,0.01,1.04,
1.25,-0.38,0.67,0.58,0.03,0.01,1.04,
1.25,-0.42,0.70,0.62,0.03,0.01,1.04,
1.252,-0.42,0.70,0.62,0.03,0.01,1.04,
1.255,-0.42,0.70,0.62,0.03,0.00,1.04,
1.255,-0.47,0.71,0.62,0.03,0.00,1.04,
1.257,-0.47,0.71,0.62,0.03,0.00,1.04,
1.265,-0.47,0.71,0.62,0.03,-0.00,1.03,
1.265,-0.46,0.67,0.61,0.03,-0.00,1.03,
1.266,-0.46,0.67,0.61,0.03,-0.01,1.03,
1.266,-0.46,0.67,0.61,0.03,-0.01,1.02,
1.266,-0.45,0.62,0.56,0.03,-0.01,1.02,
1.267,-0.45,0.62,0.56,0.03,-0.02,1.02,
1.27,-0.44,0.51,0.47,0.03,-0.02,1.02,
1.27,-0.44,0.51,0.47,0.03,-0.02,1.01,
1.272,-0.44,0.51,0.47,0.03,-0.03,1.00,
1.274,-0.44,0.40,0.34,0.03,-0.03,1.00,
1.275,-0.44,0.40,0.34,0.03,-0.04,1.00,
1.285,-0.44,0.40,0.34,0.03,-0.04,0.99,
1.285,-0.44,0.40,0.34,0.03,-0.05,0.98,
1.285,-0.44,0.29,0.22,0.03,-0.05,0.98,
1.285,-0.44,0.29,0.22,0.02,-0.05,0.98,
1.285,-0.44,0.29,0.22,0.02,-0.06,0.98,
1.286,-0.45,0.17,0.08,0.02,-0.06,0.98,
1.286,-0.45,0.17,0.08,0.03,-0.06,0.98,
1.289,-0.45,0.17,0.08,0.03,-0.07,0.98,
1.289,-0.45,0.08,0.01,0.03,-0.07,0.98,
1.291,-0.45,0.08,0.01,0.03,-0.07,0.98,
1.294,-0.45,0.08,0.01,0.02,-0.07,0.97,
1.294,-0.39,-0.02,-0.02,0.02,-0.07,0.97,
1.296,-0.39,-0.02,-0.02,0.02,-0.08,0.97,
1.3,-0.39,-0.02,-0.02,0.02,-0.07,0.97,
1.3,-0.41,-0.08,-0.05,0.02,-0.07,0.97,
1.301,-0.41,-0.08,-0.05,0.01,-0.08,0.98,
1.304,-0.41,-0.08,-0.05,0.01,-0.07,0.98,
1.304,-0.45,-0.09,-0.06,0.01,-0.07,0.98,
1.306,-0.45,-0.09,-0.06,0.01,-0.07,0.98,
1.309,-0.45,-0.09,-0.06,0.01,-0.06,0.99,
1.31,-0.48,-0.07,-0.02,0.01,-0.06,0.99,
1.311,-0.48,-0.07,-0.02,0.01,-0.06,0.99,
1.313,-0.48,-0.07,-0.02,0.01,-0.05,0.99,
1.314,-0.50,0.03,0.06,0.01,-0.05,0.99,
1.316,-0.50,0.03,0.06,0.01,-0.04,1.00,
1.318,-0.50,0.03,0.06,0.01,-0.03,1.00,
1.318,-0.54,0.15,0.13,0.01,-0.03,1.00,
1.321,-0.54,0.15,0.13,0.01,-0.02,1.00,
1.323,-0.54,0.15,0.13,0.01,-0.01,1.01,
1.323,-0.54,0.36,0.21,0.01,-0.01,1.01,
1.326,-0.54,0.36,0.21,0.01,-0.00,1.01,
1.328,-0.54,0.36,0.21,0.01,0.00,1.01,
1.328,-0.52,0.56,0.27,0.01,0.00,1.01,
1.33,-0.52,0.56,0.27,0.02,0.01,1.01,
1.333,-0.52,0.56,0.27,0.02,0.01,1.01,
1.333,-0.47,0.68,0.31,0.02,0.01,1.01,
1.335,-0.47,0.68,0.31,0.03,0.01,1.01,
1.338,-0.47,0.68,0.31,0.04,0.01,1.01,
1.338,-0.37,0.78,0.34,0.04,0.01,1.01,
1.34,-0.37,0.78,0.34,0.04,0.01,1.01,
1.347,-0.37,0.78,0.34,0.05,0.01,1.01,
1.348,-0.27,0.80,0.33,0.05,0.01,1.01,
1.348,-0.27,0.80,0.33,0.05,0.01,1.01,
1.348,-0.27,0.80,0.33,0.05,0.01,1.01,
1.348,-0.16,0.81,0.33,0.05,0.01,1.01,
1.35,-0.16,0.81,0.33,0.05,0.00,1.01,
1.352,-0.16,0.81,0.33,0.05,0.00,1.01,
1.352,-0.07,0.76,0.30,0.05,0.00,1.01,
1.355,-0.07,0.76,0.30,0.05,0.00,1.01,
1.357,-0.07,0.76,0.30,0.05,0.00,1.02,
1.358,-0.06,0.71,0.30,0.05,0.00,1.02,
1.36,-0.06,0.71,0.30,0.04,-0.00,1.02,
1.362,-0.06,0.71,0.30,0.04,-0.00,1.02,
1.362,-0.08,0.70,0.32,0.04,-0.00,1.02,
1.365,-0.08,0.70,0.32,0.04,-0.00,1.02,
1.367,-0.08,0.70,0.32,0.03,-0.01,1.02,
1.368,-0.10,0.65,0.35,0.03,-0.01,1.02,
1.369,-0.10,0.65,0.35,0.03,-0.00,1.02,
1.372,-0.10,0.65,0.35,0.02,-0.00,1.03,
1.372,-0.16,0.64,0.39,0.02,-0.00,1.03,
1.375,-0.16,0.64,0.39,0.02,-0.00,1.03,
1.377,-0.16,0.64,0.39,0.01,-0.00,1.03,
1.377,-0.23,0.65,0.41,0.01,-0.00,1.03,
1.379,-0.23,0.65,0.41,0.01,-0.01,1.02,
1.382,-0.23,0.65,0.41,0.00,-0.01,1.02,
1.382,-0.31,0.66,0.42,0.00,-0.01,1.02,
1.384,-0.31,0.66,0.42,0.00,-0.00,1.02,
1.387,-0.31,0.66,0.42,-0.00,-0.00,1.02,
1.387,-0.39,0.63,0.40,-0.00,-0.00,1.02,
1.389,-0.39,0.63,0.40,-0.00,-0.00,1.02,
1.392,-0.39,0.63,0.40,-0.00,-0.00,1.03,
1.393,-0.44,0.64,0.38,-0.00,-0.00,1.03,
1.394,-0.44,0.64,0.38,0.00,0.00,1.03,
1.397,-0.44,0.64,0.38,0.00,0.00,1.03,
1.397,-0.43,0.66,0.40,0.00,0.00,1.03,
1.399,-0.43,0.66,0.40,0.01,0.01,1.03,
1.402,-0.43,0.66,0.40,0.01,0.01,1.03,
1.402,-0.40,0.70,0.45,0.01,0.01,1.03,
1.404,-0.40,0.70,0.45,0.01,0.01,1.04,
1.406,-0.40,0.70,0.45,0.01,0.02,1.03,
1.406,-0.34,0.76,0.47,0.01,0.02,1.03,
1.409,-0.34,0.76,0.47,0.01,0.02,1.03,
1.411,-0.34,0.76,0.47,0.02,0.02,1.03,
1.411,-0.28,0.81,0.49,0.02,0.02,1.03,
1.414,-0.28,0.81,0.49,0.02,0.02,1.03,
1.416,-0.28,0.81,0.49,0.02,0.02,1.03,
1.416,-0.23,0.83,0.44,0.02,0.02,1.03,
1.419,-0.23,0.83,0.44,0.02,0.03,1.03,
1.421,-0.23,0.83,0.44,0.03,0.03,1.03,
1.421,-0.16,0.86,0.40,0.03,0.03,1.03,
1.423,-0.16,0.86,0.40,0.03,0.04,1.03,
1.426,-0.16,0.86,0.40,0.03,0.04,1.02,
1.426,-0.10,0.92,0.39,0.03,0.04,1.02,
1.428,-0.10,0.92,0.39,0.03,0.04,1.02,
1.431,-0.10,0.92,0.39,0.04,0.04,1.02,
1.431,-0.05,0.98,0.37,0.04,0.04,1.02,
1.433,-0.05,0.98,0.37,0.04,0.04,1.02,
1.436,-0.05,0.98,0.37,0.04,0.05,1.02,
1.436,0.01,1.02,0.34,0.04,0.05,1.02,
1.438,0.01,1.02,0.34,0.04,0.05,1.01,
1.441,0.01,1.02,0.34,0.03,0.05,1.01,
1.441,0.04,1.05,0.30,0.03,0.05,1.01,
1.445,0.04,1.05,0.30,0.03,0.05,1.01,
1.445,0.04,1.05,0.30,0.03,0.06,1.01,
1.446,0.03,1.07,0.25,0.03,0.06,1.01,
1.448,0.03,1.07,0.25,0.03,0.06,1.01,
1.45,0.03,1.07,0.25,0.03,0.06,1.01,
1.451,0.01,1.10,0.21,0.03,0.06,1.01,
1.453,0.01,1.10,0.21,0.03,0.06,1.00,
1.455,0.01,1.10,0.21,0.03,0.06,1.00,
1.456,0.02,1.15,0.18,0.03,0.06,1.00,
1.459,0.02,1.15,0.18,0.03,0.06,1.00,
1.46,0.02,1.15,0.18,0.03,0.06,1.00,
1.461,0.01,1.15,0.13,0.03,0.06,1.00,
1.463,0.01,1.15,0.13,0.04,0.06,0.99,
1.465,0.01,1.15,0.13,0.04,0.05,0.99,
1.465,0.04,1.11,0.08,0.04,0.05,0.99,
1.468,0.04,1.11,0.08,0.04,0.05,0.98,
1.47,0.04,1.11,0.08,0.05,0.05,0.98,
1.47,0.12,1.05,-0.01,0.05,0.05,0.98,
1.472,0.12,1.05,-0.01,0.06,0.05,0.98,
1.475,0.12,1.05,-0.01,0.06,0.05,0.98,
1.476,0.21,0.99,-0.06,0.06,0.05,0.98,
1.477,0.21,0.99,-0.06,0.06,0.05,0.98,
1.48,0.21,0.99,-0.06,0.07,0.05,0.98,
1.48,0.32,0.97,-0.10,0.07,0.05,0.98,
1.482,0.32,0.97,-0.10,0.07,0.05,0.98,
1.485,0.32,0.97,-0.10,0.08,0.05,0.98,
1.485,0.40,0.95,-0.11,0.08,0.05,0.98,
1.487,0.40,0.95,-0.11,0.08,0.05,0.97,
1.49,0.40,0.95,-0.11,0.08,0.05,0.97,
1.49,0.49,0.94,-0.11,0.08,0.05,0.97,
1.492,0.49,0.94,-0.11,0.08,0.06,0.97,
1.495,0.49,0.94,-0.11,0.08,0.06,0.97,
1.495,0.54,0.96,-0.15,0.08,0.06,0.97,
1.497,0.54,0.96,-0.15,0.08,0.06,0.97,
1.499,0.54,0.96,-0.15,0.08,0.07,0.97,
1.499,0.55,0.99,-0.18,0.08,0.07,0.97,
1.502,0.55,0.99,-0.18,0.07,0.07,0.97,
1.505,0.55,0.99,-0.18,0.07,0.07,0.97,
1.505,0.52,1.03,-0.18,0.07,0.07,0.97,
1.507,0.52,1.03,-0.18,0.07,0.07,0.97,
1.51,0.52,1.03,-0.18,0.06,0.08,0.97,
1.511,0.47,1.06,-0.20,0.06,0.08,0.97,
1.512,0.47,1.06,-0.20,0.06,0.08,0.97,
1.514,0.47,1.06,-0.20,0.05,0.08,0.97,
1.514,0.43,1.14,-0.20,0.05,0.08,0.97,
1.517,0.43,1.14,-0.20,0.05,0.09,0.97,
1.519,0.43,1.14,-0.20,0.05,0.09,0.97,
1.519,0.36,1.19,-0.21,0.05,0.09,0.97,
1.522,0.36,1.19,-0.21,0.05,0.09,0.97,
1.524,0.36,1.19,-0.21,0.05,0.09,0.96,
1.524,0.29,1.22,-0.22,0.05,0.09,0.96,
1.526,0.29,1.22,-0.22,0.05,0.09,0.96,
1.529,0.29,1.22,-0.22,0.05,0.08,0.97,
1.529,0.28,1.22,-0.22,0.05,0.08,0.97,
1.534,0.28,1.22,-0.22,0.05,0.09,0.97,
1.534,0.28,1.22,-0.22,0.05,0.09,0.97,
1.534,0.30,1.19,-0.22,0.05,0.09,0.97,
1.536,0.30,1.19,-0.22,0.06,0.08,0.97,
1.539,0.30,1.19,-0.22,0.06,0.09,0.97,
1.539,0.35,1.19,-0.21,0.06,0.09,0.97,
1.548,0.35,1.19,-0.21,0.07,0.08,0.97,
1.548,0.35,1.19,-0.21,0.07,0.08,0.98,
1.549,0.43,1.17,-0.17,0.07,0.08,0.98,
1.549,0.43,1.17,-0.17,0.08,0.08,0.98,
1.549,0.43,1.17,-0.17,0.08,0.08,0.98,
1.549,0.53,1.16,-0.12,0.08,0.08,0.98,
1.551,0.53,1.16,-0.12,0.08,0.08,0.98,
1.553,0.53,1.16,-0.12,0.09,0.08,0.98,
1.554,0.63,1.12,-0.08,0.09,0.08,0.98,
1.556,0.63,1.12,-0.08,0.09,0.08,0.98,
1.562,0.63,1.12,-0.08,0.10,0.08,0.98,
1.562,0.71,1.09,-0.05,0.10,0.08,0.98,
1.562,0.71,1.09,-0.05,0.10,0.08,0.99,
1.563,0.79,1.08,-0.02,0.10,0.08,0.99,
1.563,0.79,1.08,-0.02,0.11,0.07,0.99,
1.566,0.79,1.08,-0.02,0.12,0.07,0.99,
1.568,0.79,1.08,-0.02,0.12,0.07,0.99,
1.568,0.90,1.07,-0.01,0.12,0.07,0.99,
1.57,0.90,1.07,-0.01,0.13,0.07,0.99,
1.573,0.90,1.07,-0.01,0.14,0.07,0.98,
1.574,1.03,1.03,-0.00,0.14,0.07,0.98,
1.575,1.03,1.03,-0.00,0.14,0.06,0.98,
1.578,1.03,1.03,-0.00,0.15,0.06,0.98,
1.578,1.15,0.98,-0.02,0.15,0.06,0.98,
1.581,1.15,0.98,-0.02,0.16,0.06,0.98,
1.583,1.15,0.98,-0.02,0.17,0.06,0.98,
1.583,1.30,0.94,-0.04,0.17,0.06,0.98,
1.585,1.30,0.94,-0.04,0.18,0.06,0.99,
1.588,1.30,0.94,-0.04,0.18,0.06,0.99,
1.588,1.44,0.92,-0.03,0.18,0.06,0.99,
1.59,1.44,0.92,-0.03,0.19,0.05,0.99,
1.592,1.44,0.92,-0.03,0.20,0.05,0.99,
1.593,1.61,0.88,-0.00,0.20,0.05,0.99,
1.595,1.61,0.88,-0.00,0.21,0.05,0.99,
1.597,1.61,0.88,-0.00,0.21,0.05,0.99,
1.598,1.77,0.80,0.02,0.21,0.05,0.99,
1.6,1.77,0.80,0.02,0.21,0.05,0.99,
1.602,1.77,0.80,0.02,0.22,0.05,0.99,
1.602,1.87,0.77,0.03,0.22,0.05,0.99,
1.605,1.87,0.77,0.03,0.22,0.05,1.00,
1.608,1.87,0.77,0.03,0.21,0.05,1.00,
1.608,1.89,0.75,0.05,0.21,0.05,1.00,
1.61,1.89,0.75,0.05,0.21,0.06,1.01,
1.612,1.89,0.75,0.05,0.21,0.06,1.01,
1.612,1.89,0.79,0.12,0.21,0.06,1.01,
1.614,1.89,0.79,0.12,0.21,0.06,1.01,
1.617,1.89,0.79,0.12,0.20,0.07,1.02,
1.617,1.85,0.85,0.19,0.20,0.07,1.02,
1.619,1.85,0.85,0.19,0.20,0.07,1.02,
1.622,1.85,0.85,0.19,0.19,0.07,1.02,
1.622,1.74,0.90,0.26,0.19,0.07,1.02,
1.625,1.74,0.90,0.26,0.19,0.08,1.02,
1.627,1.74,0.90,0.26,0.18,0.08,1.02,
1.627,1.65,0.96,0.28,0.18,0.08,1.02,
1.63,1.65,0.96,0.28,0.18,0.08,1.01,
1.632,1.65,0.96,0.28,0.18,0.08,1.01,
1.632,1.54,1.03,0.29,0.18,0.08,1.01,
1.634,1.54,1.03,0.29,0.17,0.08,1.01,
1.636,1.54,1.03,0.29,0.17,0.08,1.01,
1.637,1.45,1.05,0.26,0.17,0.08,1.01,
1.639,1.45,1.05,0.26,0.17,0.08,1.01,
1.642,1.45,1.05,0.26,0.17,0.07,1.00,
1.643,1.38,1.02,0.22,0.17,0.07,1.00,
1.644,1.38,1.02,0.22,0.17,0.07,1.00,
1.646,1.38,1.02,0.22,0.17,0.06,1.00,
1.647,1.34,0.95,0.17,0.17,0.06,1.00,
1.649,1.34,0.95,0.17,0.18,0.06,0.99,
1.651,1.34,0.95,0.17,0.18,0.05,0.99,
1.652,1.38,0.85,0.10,0.18,0.05,0.99,
1.654,1.38,0.85,0.10,0.18,0.05,0.99,
1.656,1.38,0.85,0.10,0.19,0.04,0.98,
1.657,1.42,0.73,0.04,0.19,0.04,0.98,
1.664,1.42,0.73,0.04,0.19,0.03,0.98,
1.664,1.42,0.73,0.04,0.20,0.03,0.97,
1.665,1.48,0.61,-0.02,0.20,0.03,0.97,
1.665,1.48,0.61,-0.02,0.20,0.02,0.97,
1.666,1.48,0.61,-0.02,0.21,0.02,0.97,
1.666,1.55,0.46,-0.12,0.21,0.02,0.97,
1.668,1.55,0.46,-0.12,0.21,0.02,0.97,
1.671,1.55,0.46,-0.12,0.21,0.02,0.97,
1.671,1.63,0.34,-0.16,0.21,0.02,0.97,
1.673,1.63,0.34,-0.16,0.22,0.02,0.97,
1.679,1.63,0.34,-0.16,0.22,0.02,0.97,
1.679,1.68,0.28,-0.18,0.22,0.02,0.97,
1.679,1.68,0.28,-0.18,0.22,0.02,0.97,
1.681,1.68,0.28,-0.18,0.22,0.02,0.97,
1.681,1.72,0.28,-0.17,0.22,0.02,0.97,
1.683,1.72,0.28,-0.17,0.22,0.03,0.98,
1.685,1.72,0.28,-0.17,0.23,0.03,0.98,
1.686,1.77,0.31,-0.14,0.23,0.03,0.98,
1.688,1.77,0.31,-0.14,0.23,0.03,0.98,
1.69,1.77,0.31,-0.14,0.23,0.03,0.98,
1.69,1.79,0.34,-0.12,0.23,0.03,0.98,
1.693,1.79,0.34,-0.12,0.24,0.03,0.98,
1.695,1.79,0.34,-0.12,0.24,0.03,0.98,
1.696,1.83,0.33,-0.11,0.24,0.03,0.98,
1.698,1.83,0.33,-0.11,0.25,0.02,0.98,
1.7,1.83,0.33,-0.11,0.25,0.02,0.98,
1.7,1.88,0.29,-0.12,0.25,0.02,0.98,
1.702,1.88,0.29,-0.12,0.24,0.02,0.98,
1.705,1.88,0.29,-0.12,0.24,0.02,0.98,
1.705,1.94,0.23,-0.10,0.24,0.02,0.98,
1.708,1.94,0.23,-0.10,0.25,0.01,0.98,
1.71,1.94,0.23,-0.10,0.25,0.01,0.99,
1.711,1.91,0.19,-0.08,0.25,0.01,0.99,
1.712,1.91,0.19,-0.08,0.24,0.01,0.99,
1.715,1.91,0.19,-0.08,0.24,0.01,0.99,
1.715,1.92,0.10,-0.03,0.24,0.01,0.99,
1.717,1.92,0.10,-0.03,0.24,0.00,0.99,
1.72,1.92,0.10,-0.03,0.24,0.00,1.00,
1.72,1.87,0.03,0.03,0.24,0.00,1.00,
1.722,1.87,0.03,0.03,0.24,-0.00,1.00,
1.725,1.87,0.03,0.03,0.24,-0.00,1.00,
1.726,1.81,-0.02,0.08,0.24,-0.00,1.00,
1.728,1.81,-0.02,0.08,0.24,-0.01,1.00,
1.73,1.81,-0.02,0.08,0.24,-0.01,1.00,
1.73,1.79,-0.08,0.12,0.24,-0.01,1.00,
1.732,1.79,-0.08,0.12,0.24,-0.01,1.00,
1.734,1.79,-0.08,0.12,0.23,-0.02,1.00,
1.735,1.77,-0.16,0.16,0.23,-0.02,1.00,
1.737,1.77,-0.16,0.16,0.23,-0.02,1.00,
1.74,1.77,-0.16,0.16,0.22,-0.02,1.00,
1.74,1.71,-0.24,0.16,0.22,-0.02,1.00,
1.742,1.71,-0.24,0.16,0.22,-0.03,1.00,
1.745,1.71,-0.24,0.16,0.22,-0.03,1.00,
1.745,1.62,-0.32,0.13,0.22,-0.03,1.00,
1.747,1.62,-0.32,0.13,0.21,-0.03,1.00,
1.749,1.62,-0.32,0.13,0.21,-0.03,1.00,
1.75,1.53,-0.39,0.11,0.21,-0.03,1.00,
1.752,1.53,-0.39,0.11,0.20,-0.03,1.00,
1.754,1.53,-0.39,0.11,0.20,-0.04,0.99,
1.754,1.42,-0.43,0.09,0.20,-0.04,0.99,
1.757,1.42,-0.43,0.09,0.20,-0.04,0.99,
1.764,1.42,-0.43,0.09,0.19,-0.04,0.99,
1.765,1.33,-0.48,0.08,0.19,-0.04,0.99,
1.765,1.33,-0.48,0.08,0.19,-0.04,0.99,
1.765,1.33,-0.48,0.08,0.19,-0.04,0.98,
1.765,1.25,-0.53,0.04,0.19,-0.04,0.98,
1.766,1.25,-0.53,0.04,0.19,-0.04,0.98,
1.769,1.25,-0.53,0.04,0.18,-0.04,0.98,
1.769,1.21,-0.56,-0.02,0.18,-0.04,0.98,
1.771,1.21,-0.56,-0.02,0.18,-0.04,0.98,
1.774,1.21,-0.56,-0.02,0.18,-0.03,0.98,
1.774,1.16,-0.54,-0.08,0.18,-0.03,0.98,
1.783,1.16,-0.54,-0.08,0.18,-0.03,0.98,
1.783,1.16,-0.54,-0.08,0.18,-0.03,0.98,
1.783,1.15,-0.49,-0.08,0.18,-0.03,0.98,
1.783,1.15,-0.49,-0.08,0.19,-0.03,0.98,
1.783,1.15,-0.49,-0.08,0.19,-0.03,0.98,
1.784,1.17,-0.45,-0.06,0.19,-0.03,0.98,
1.786,1.17,-0.45,-0.06,0.19,-0.03,0.98,
1.788,1.17,-0.45,-0.06,0.20,-0.03,0.98,
1.788,1.21,-0.45,-0.08,0.20,-0.03,0.98,
1.791,1.21,-0.45,-0.08,0.20,-0.04,0.97,
1.793,1.21,-0.45,-0.08,0.20,-0.03,0.97,
1.793,1.27,-0.48,-0.10,0.20,-0.03,0.97,
1.796,1.27,-0.48,-0.10,0.20,-0.03,0.97,
1.798,1.27,-0.48,-0.10,0.20,-0.04,0.97,
1.798,1.33,-0.52,-0.14,0.20,-0.04,0.97,
1.8,1.33,-0.52,-0.14,0.20,-0.04,0.97,
1.803,1.33,-0.52,-0.14,0.20,-0.04,0.97,
1.803,1.35,-0.54,-0.18,0.20,-0.04,0.97,
1.805,1.35,-0.54,-0.18,0.20,-0.04,0.97,
1.808,1.35,-0.54,-0.18,0.20,-0.04,0.97,
1.809,1.36,-0.58,-0.16,0.20,-0.04,0.97,
1.81,1.36,-0.58,-0.16,0.20,-0.04,0.98,
1.813,1.36,-0.58,-0.16,0.21,-0.04,0.98,
1.814,1.37,-0.59,-0.13,0.21,-0.04,0.98,
1.815,1.37,-0.59,-0.13,0.21,-0.04,0.98,
1.818,1.37,-0.59,-0.13,0.21,-0.04,0.98,
1.818,1.37,-0.60,-0.08,0.21,-0.04,0.98,
1.82,1.37,-0.60,-0.08,0.21,-0.04,0.98,
1.822,1.37,-0.60,-0.08,0.21,-0.04,0.99,
1.823,1.38,-0.62,-0.03,0.21,-0.04,0.99,
1.825,1.38,-0.62,-0.03,0.21,-0.04,0.99,
1.828,1.38,-0.62,-0.03,0.21,-0.04,0.99,
1.828,1.36,-0.62,-0.02,0.21,-0.04,0.99,
1.83,1.36,-0.62,-0.02,0.21,-0.04,0.99,
1.832,1.36,-0.62,-0.02,0.21,-0.04,1.00,
1.833,1.35,-0.63,0.02,0.21,-0.04,1.00,
1.835,1.35,-0.63,0.02,0.20,-0.04,0.99,
1.837,1.35,-0.63,0.02,0.20,-0.05,0.99,
1.838,1.32,-0.64,0.07,0.20,-0.05,0.99,
1.84,1.32,-0.64,0.07,0.20,-0.05,0.99,
1.843,1.32,-0.64,0.07,0.20,-0.05,0.99,
1.843,1.28,-0.67,0.08,0.20,-0.05,0.99,
1.845,1.28,-0.67,0.08,0.19,-0.05,0.99,
1.848,1.28,-0.67,0.08,0.19,-0.06,0.99,
1.848,1.20,-0.71,0.06,0.19,-0.06,0.99,
1.849,1.20,-0.71,0.06,0.18,-0.06,0.98,
1.852,1.20,-0.71,0.06,0.17,-0.06,0.98,
1.852,1.11,-0.77,0.02,0.17,-0.06,0.98,
1.854,1.11,-0.77,0.02,0.17,-0.06,0.98,
1.863,1.11,-0.77,0.02,0.16,-0.07,0.97,
1.866,0.98,-0.83,-0.07,0.16,-0.07,0.97,
1.866,0.98,-0.83,-0.07,0.16,-0.07,0.97,
1.866,0.98,-0.83,-0.07,0.15,-0.07,0.96,
1.866,0.87,-0.89,-0.11,0.15,-0.07,0.96,
1.866,0.87,-0.89,-0.11,0.15,-0.08,0.96,
1.867,0.87,-0.89,-0.11,0.14,-0.08,0.96,
1.867,0.74,-0.97,-0.20,0.14,-0.08,0.96,
1.869,0.74,-0.97,-0.20,0.14,-0.08,0.95,
1.872,0.74,-0.97,-0.20,0.13,-0.08,0.95,
1.872,0.67,-1.04,-0.27,0.13,-0.08,0.95,
1.874,0.67,-1.04,-0.27,0.13,-0.09,0.94,
1.876,0.67,-1.04,-0.27,0.13,-0.09,0.94,
1.877,0.56,-1.09,-0.35,0.13,-0.09,0.94,
1.879,0.56,-1.09,-0.35,0.13,-0.08,0.94,
1.881,0.56,-1.09,-0.35,0.13,-0.08,0.93,
1.882,0.53,-1.11,-0.43,0.13,-0.08,0.93,
1.884,0.53,-1.11,-0.43,0.13,-0.08,0.93,
1.886,0.53,-1.11,-0.43,0.13,-0.08,0.92,
1.886,0.49,-1.10,-0.49,0.13,-0.08,0.92,
1.889,0.49,-1.10,-0.49,0.13,-0.08,0.92,
1.891,0.49,-1.10,-0.49,0.13,-0.08,0.92,
1.891,0.50,-1.08,-0.57,0.13,-0.08,0.92,
1.894,0.50,-1.08,-0.57,0.14,-0.08,0.91,
1.896,0.50,-1.08,-0.57,0.14,-0.08,0.91,
1.897,0.55,-1.07,-0.65,0.14,-0.08,0.91,
1.899,0.55,-1.07,-0.65,0.15,-0.08,0.91,
1.901,0.55,-1.07,-0.65,0.15,-0.08,0.90,
1.901,0.63,-1.08,-0.71,0.15,-0.08,0.90,
1.903,0.63,-1.08,-0.71,0.15,-0.08,0.90,
1.906,0.63,-1.08,-0.71,0.16,-0.08,0.90,
1.906,0.73,-1.07,-0.77,0.16,-0.08,0.90,
1.908,0.73,-1.07,-0.77,0.16,-0.08,0.90,
1.911,0.73,-1.07,-0.77,0.17,-0.08,0.90,
1.911,0.79,-1.07,-0.83,0.17,-0.08,0.90,
1.914,0.79,-1.07,-0.83,0.17,-0.08,0.90,
1.916,0.79,-1.07,-0.83,0.17,-0.08,0.90,
1.916,0.86,-1.08,-0.85,0.17,-0.08,0.90,
1.918,0.86,-1.08,-0.85,0.17,-0.09,0.90,
1.92,0.86,-1.08,-0.85,0.17,-0.09,0.90,
1.921,0.88,-1.13,-0.84,0.17,-0.09,0.90,
1.923,0.88,-1.13,-0.84,0.17,-0.09,0.91,
1.925,0.88,-1.13,-0.84,0.17,-0.08,0.91,
1.926,0.88,-1.17,-0.81,0.17,-0.08,0.91,
1.928,0.88,-1.17,-0.81,0.16,-0.08,0.92,
1.93,0.88,-1.17,-0.81,0.16,-0.08,0.93,
1.93,0.85,-1.16,-0.74,0.16,-0.08,0.93,
1.933,0.85,-1.16,-0.74,0.16,-0.08,0.94,
1.935,0.85,-1.16,-0.74,0.15,-0.07,0.94,
1.936,0.77,-1.14,-0.58,0.15,-0.07,0.94,
1.938,0.77,-1.14,-0.58,0.15,-0.07,0.95,
1.941,0.77,-1.14,-0.58,0.15,-0.07,0.95,
1.942,0.69,-1.09,-0.41,0.15,-0.07,0.95,
1.943,0.69,-1.09,-0.41,0.14,-0.07,0.96,
1.946,0.60,-1.07,-0.30,0.14,-0.07,0.96,
1.946,0.60,-1.07,-0.30,0.14,-0.07,0.96,
1.948,0.60,-1.07,-0.30,0.14,-0.07,0.96,
1.95,0.60,-1.07,-0.30,0.14,-0.08,0.96,
1.95,0.49,-1.06,-0.25,0.14,-0.08,0.96,
1.952,0.49,-1.06,-0.25,0.13,-0.08,0.96,
1.955,0.49,-1.06,-0.25,0.13,-0.08,0.95,
1.955,0.42,-1.08,-0.23,0.13,-0.08,0.95,
1.958,0.42,-1.08,-0.23,0.13,-0.09,0.95,
1.96,0.42,-1.08,-0.23,0.13,-0.09,0.95,
1.96,0.34,-1.15,-0.26,0.13,-0.09,0.95,
1.962,0.34,-1.15,-0.26,0.13,-0.10,0.95,
1.965,0.34,-1.15,-0.26,0.12,-0.10,0.95,
1.965,0.25,-1.21,-0.28,0.12,-0.10,0.95,
1.967,0.25,-1.21,-0.28,0.12,-0.10,0.95,
1.97,0.25,-1.21,-0.28,0.12,-0.10,0.95,
1.97,0.21,-1.31,-0.32,0.12,-0.10,0.95,
1.973,0.21,-1.31,-0.32,0.12,-0.11,0.95,
1.98,0.21,-1.31,-0.32,0.12,-0.11,0.95,
1.981,0.14,-1.36,-0.35,0.12,-0.11,0.95,
1.981,0.14,-1.36,-0.35,0.12,-0.11,0.95,
1.981,0.14,-1.36,-0.35,0.12,-0.11,0.95,
1.982,0.10,-1.42,-0.34,0.12,-0.11,0.95,
1.982,0.10,-1.42,-0.34,0.12,-0.11,0.95,
1.985,0.10,-1.42,-0.34,0.12,-0.11,0.95,
1.985,0.11,-1.43,-0.32,0.12,-0.11,0.95,
1.987,0.11,-1.43,-0.32,0.12,-0.11,0.95,
1.989,0.11,-1.43,-0.32,0.12,-0.11,0.95,
1.99,0.12,-1.45,-0.28,0.12,-0.11,0.95,
1.998,0.12,-1.45,-0.28,0.12,-0.12,0.96,
1.999,0.12,-1.45,-0.28,0.13,-0.12,0.96,
1.999,0.14,-1.48,-0.26,0.13,-0.12,0.96,
1.999,0.14,-1.48,-0.26,0.12,-0.12,0.96,
1.999,0.14,-1.48,-0.26,0.12,-0.12,0.96,
1.999,0.15,-1.52,-0.24,0.12,-0.12,0.96,
2.002,0.15,-1.52,-0.24,0.12,-0.11,0.96,
2.004,0.15,-1.52,-0.24,0.11,-0.11,0.96,
2.004,0.14,-1.51,-0.22,0.11,-0.11,0.96,
2.006,0.14,-1.51,-0.22,0.11,-0.10,0.97,
2.009,0.14,-1.51,-0.22,0.10,-0.10,0.97,
2.009,0.05,-1.45,-0.19,0.10,-0.10,0.97,
2.011,0.05,-1.45,-0.19,0.09,-0.09,0.97,
2.014,0.05,-1.45,-0.19,0.08,-0.08,0.97,
2.014,-0.08,-1.35,-0.12,0.08,-0.08,0.97,
2.016,-0.08,-1.35,-0.12,0.07,-0.08,0.97,
2.019,-0.08,-1.35,-0.12,0.06,-0.08,0.97,
2.019,-0.23,-1.23,-0.07,0.06,-0.08,0.97,
2.021,-0.23,-1.23,-0.07,0.05,-0.08,0.97,
2.024,-0.23,-1.23,-0.07,0.04,-0.07,0.97,
2.025,-0.42,-1.17,-0.09,0.04,-0.07,0.97,
2.026,-0.42,-1.17,-0.09,0.03,-0.07,0.96,
2.029,-0.42,-1.17,-0.09,0.03,-0.07,0.96,
2.029,-0.61,-1.10,-0.13,0.03,-0.07,0.96,
2.031,-0.61,-1.10,-0.13,0.02,-0.07,0.96,
2.033,-0.61,-1.10,-0.13,0.02,-0.07,0.95,
2.033,-0.80,-1.05,-0.21,0.02,-0.07,0.95,
2.036,-0.80,-1.05,-0.21,0.01,-0.07,0.95,
2.038,-0.80,-1.05,-0.21,0.00,-0.08,0.95,
2.038,-0.92,-1.03,-0.25,0.00,-0.08,0.95,
2.041,-0.92,-1.03,-0.25,-0.00,-0.09,0.94,
2.043,-0.92,-1.03,-0.25,-0.00,-0.10,0.94,
2.044,-1.05,-1.12,-0.32,-0.00,-0.10,0.94,
2.045,-1.05,-1.12,-0.32,-0.00,-0.11,0.94,
2.048,-1.05,-1.12,-0.32,-0.00,-0.12,0.94,
2.048,-1.12,-1.28,-0.37,-0.00,-0.12,0.94,
2.05,-1.12,-1.28,-0.37,-0.00,-0.13,0.93,
2.053,-1.12,-1.28,-0.37,-0.00,-0.13,0.94,
2.054,-1.11,-1.48,-0.41,-0.00,-0.13,0.94,
2.055,-1.11,-1.48,-0.41,-0.00,-0.14,0.94,
2.059,-1.11,-1.48,-0.41,-0.00,-0.15,0.94,
2.059,-1.12,-1.63,-0.44,-0.00,-0.15,0.94,
2.061,-1.12,-1.63,-0.44,-0.00,-0.15,0.94,
2.063,-1.12,-1.63,-0.44,-0.00,-0.16,0.95,
2.063,-1.13,-1.76,-0.41,-0.00,-0.16,0.95,
2.065,-1.13,-1.76,-0.41,-0.01,-0.16,0.96,
2.068,-1.13,-1.76,-0.41,-0.01,-0.16,0.97,
2.068,-1.15,-1.87,-0.31,-0.01,-0.16,0.97,
2.07,-1.15,-1.87,-0.31,-0.01,-0.16,0.97,
2.072,-1.15,-1.87,-0.31,-0.01,-0.16,0.98,
2.073,-1.18,-1.90,-0.17,-0.01,-0.16,0.98,
2.08,-1.18,-1.90,-0.17,-0.01,-0.16,0.99,
2.08,-1.18,-1.90,-0.17,-0.01,-0.15,1.00,
2.081,-1.24,-1.90,-0.03,-0.01,-0.15,1.00,
2.081,-1.24,-1.90,-0.03,-0.01,-0.15,1.01,
2.082,-1.24,-1.90,-0.03,-0.01,-0.15,1.02,
2.082,-1.28,-1.85,0.16,-0.01,-0.15,1.02,
2.085,-1.28,-1.85,0.16,-0.02,-0.14,1.03,
2.087,-1.28,-1.85,0.16,-0.02,-0.14,1.03,
2.088,-1.31,-1.77,0.34,-0.02,-0.14,1.03,
2.09,-1.31,-1.77,0.34,-0.02,-0.14,1.04,
2.096,-1.31,-1.77,0.34,-0.02,-0.14,1.04,
2.096,-1.38,-1.68,0.49,-0.02,-0.14,1.04,
2.097,-1.38,-1.68,0.49,-0.02,-0.14,1.04,
2.097,-1.38,-1.68,0.49,-0.02,-0.14,1.04,
2.097,-1.41,-1.64,0.59,-0.02,-0.14,1.04,
2.099,-1.41,-1.64,0.59,-0.02,-0.14,1.05,
2.102,-1.41,-1.64,0.59,-0.02,-0.15,1.05,
2.102,-1.44,-1.63,0.65,-0.02,-0.15,1.05,
2.104,-1.44,-1.63,0.65,-0.01,-0.15,1.05,
2.107,-1.44,-1.63,0.65,-0.01,-0.15,1.05,
2.107,-1.43,-1.67,0.69,-0.01,-0.15,1.05,
2.109,-1.43,-1.67,0.69,-0.01,-0.16,1.05,
2.111,-1.43,-1.67,0.69,-0.01,-0.17,1.04,
2.112,-1.42,-1.73,0.68,-0.01,-0.17,1.04,
2.114,-1.42,-1.73,0.68,-0.01,-0.17,1.04,
2.117,-1.42,-1.73,0.68,-0.01,-0.18,1.04,
2.117,-1.41,-1.82,0.66,-0.01,-0.18,1.04,
2.119,-1.41,-1.82,0.66,-0.01,-0.18,1.04,
2.121,-1.41,-1.82,0.66,-0.01,-0.19,1.03,
2.122,-1.38,-1.93,0.62,-0.01,-0.19,1.03,
2.124,-1.38,-1.93,0.62,-0.01,-0.20,1.03,
2.126,-1.38,-1.93,0.62,-0.01,-0.20,1.03,
2.126,-1.40,-2.02,0.58,-0.01,-0.20,1.03,
2.129,-1.40,-2.02,0.58,-0.02,-0.21,1.02,
2.131,-1.40,-2.02,0.58,-0.02,-0.21,1.02,
2.131,-1.41,-2.15,0.51,-0.02,-0.21,1.02,
2.133,-1.41,-2.15,0.51,-0.02,-0.21,1.02,
2.136,-1.41,-2.15,0.51,-0.03,-0.21,1.02,
2.136,-1.48,-2.23,0.41,-0.03,-0.21,1.02,
2.139,-1.48,-2.23,0.41,-0.03,-0.21,1.02,
2.141,-1.48,-2.23,0.41,-0.04,-0.20,1.02,
2.142,-1.55,-2.24,0.38,-0.04,-0.20,1.02,
2.144,-1.55,-2.24,0.38,-0.03,-0.20,1.03,
2.146,-1.55,-2.24,0.38,-0.03,-0.20,1.03,
2.146,-1.61,-2.18,0.41,-0.03,-0.20,1.03,
2.148,-1.61,-2.18,0.41,-0.04,-0.19,1.04,
2.151,-1.61,-2.18,0.41,-0.04,-0.18,1.04,
2.151,-1.62,-2.10,0.48,-0.04,-0.18,1.04,
2.153,-1.62,-2.10,0.48,-0.03,-0.18,1.04,
2.156,-1.63,-1.98,0.57,-0.03,-0.18,1.04,
2.156,-1.63,-1.98,0.57,-0.03,-0.17,1.05,
2.164,-1.63,-1.98,0.57,-0.03,-0.17,1.05,
2.165,-1.63,-1.98,0.57,-0.02,-0.16,1.05,
2.165,-1.60,-1.85,0.66,-0.02,-0.16,1.05,
2.165,-1.60,-1.85,0.66,-0.02,-0.15,1.06,
2.165,-1.60,-1.85,0.66,-0.01,-0.15,1.06,
2.166,-1.53,-1.73,0.73,-0.01,-0.15,1.06,
2.168,-1.53,-1.73,0.73,-0.00,-0.14,1.06,
2.17,-1.53,-1.73,0.73,0.01,-0.14,1.06,
2.171,-1.42,-1.61,0.77,0.01,-0.14,1.06,
2.178,-1.42,-1.61,0.77,0.01,-0.14,1.05,
2.178,-1.42,-1.61,0.77,0.02,-0.14,1.05,
2.178,-1.29,-1.53,0.78,0.02,-0.14,1.05,
2.178,-1.29,-1.53,0.78,0.03,-0.13,1.05,
2.18,-1.29,-1.53,0.78,0.04,-0.13,1.05,
2.18,-1.13,-1.49,0.74,0.04,-0.13,1.05,
2.182,-1.13,-1.49,0.74,0.05,-0.13,1.04,
2.185,-1.13,-1.49,0.74,0.05,-0.13,1.04,
2.185,-0.97,-1.45,0.68,0.05,-0.13,1.04,
2.187,-0.97,-1.45,0.68,0.06,-0.13,1.03,
2.19,-0.97,-1.45,0.68,0.06,-0.13,1.03,
2.191,-0.83,-1.44,0.60,0.06,-0.13,1.03,
2.192,-0.83,-1.44,0.60,0.07,-0.13,1.02,
2.195,-0.83,-1.44,0.60,0.07,-0.12,1.02,
2.195,-0.73,-1.42,0.50,0.07,-0.12,1.02,
2.197,-0.73,-1.42,0.50,0.08,-0.12,1.02,
2.2,-0.73,-1.42,0.50,0.08,-0.12,1.01,
2.2,-0.64,-1.41,0.43,0.08,-0.12,1.01,
2.202,-0.64,-1.41,0.43,0.08,-0.12,1.01,
2.205,-0.64,-1.41,0.43,0.09,-0.13,1.00,
2.205,-0.57,-1.41,0.35,0.09,-0.13,1.00,
2.207,-0.57,-1.41,0.35,0.09,-0.13,1.00,
2.21,-0.57,-1.41,0.35,0.09,-0.13,0.99,
2.21,-0.52,-1.42,0.26,0.09,-0.13,0.99,
2.212,-0.52,-1.42,0.26,0.09,-0.13,0.98,
2.214,-0.52,-1.42,0.26,0.09,-0.13,0.98,
2.214,-0.49,-1.46,0.14,0.09,-0.13,0.98,
2.217,-0.49,-1.46,0.14,0.09,-0.12,0.98,
2.219,-0.49,-1.46,0.14,0.09,-0.12,0.98,
2.219,-0.48,-1.47,0.05,0.09,-0.12,0.98,
2.222,-0.48,-1.47,0.05,0.09,-0.12,0.97,
2.225,-0.48,-1.47,0.05,0.08,-0.11,0.97,
2.225,-0.46,-1.42,-0.01,0.08,-0.11,0.97,
2.227,-0.46,-1.42,-0.01,0.08,-0.10,0.97,
2.229,-0.46,-1.42,-0.01,0.08,-0.10,0.97,
2.229,-0.49,-1.33,-0.05,0.08,-0.10,0.97,
2.231,-0.49,-1.33,-0.05,0.08,-0.09,0.96,
2.234,-0.49,-1.33,-0.05,0.08,-0.09,0.96,
2.234,-0.51,-1.23,-0.09,0.08,-0.09,0.96,
2.237,-0.51,-1.23,-0.09,0.08,-0.09,0.95,
2.239,-0.51,-1.23,-0.09,0.08,-0.08,0.95,
2.239,-0.53,-1.15,-0.17,0.08,-0.08,0.95,
2.242,-0.53,-1.15,-0.17,0.08,-0.08,0.94,
2.244,-0.53,-1.15,-0.17,0.08,-0.08,0.94,
2.244,-0.53,-1.10,-0.26,0.08,-0.08,0.94,
2.246,-0.53,-1.10,-0.26,0.08,-0.08,0.94,
2.249,-0.53,-1.10,-0.26,0.08,-0.08,0.93,
2.249,-0.51,-1.08,-0.37,0.08,-0.08,0.93,
2.251,-0.51,-1.08,-0.37,0.08,-0.08,0.93,
2.254,-0.51,-1.08,-0.37,0.08,-0.08,0.93,
2.254,-0.50,-1.08,-0.42,0.08,-0.08,0.93,
2.264,-0.50,-1.08,-0.42,0.09,-0.08,0.93,
2.264,-0.50,-1.08,-0.42,0.08,-0.08,0.93,
2.265,-0.48,-1.07,-0.45,0.08,-0.08,0.93,
2.265,-0.48,-1.07,-0.45,0.08,-0.08,0.94,
2.265,-0.48,-1.07,-0.45,0.08,-0.07,0.93,
2.265,-0.48,-1.06,-0.43,0.08,-0.07,0.93,
2.266,-0.48,-1.06,-0.43,0.07,-0.07,0.93,
2.268,-0.48,-1.06,-0.43,0.07,-0.07,0.93,
2.269,-0.53,-1.03,-0.42,0.07,-0.07,0.93,
2.271,-0.53,-1.03,-0.42,0.07,-0.07,0.93,
2.282,-0.53,-1.03,-0.42,0.07,-0.06,0.93,
2.282,-0.56,-0.98,-0.44,0.07,-0.06,0.93,
2.283,-0.56,-0.98,-0.44,0.07,-0.06,0.93,
2.283,-0.56,-0.98,-0.44,0.07,-0.06,0.94,
2.283,-0.60,-0.93,-0.43,0.07,-0.06,0.94,
2.283,-0.60,-0.93,-0.43,0.07,-0.05,0.94,
2.283,-0.60,-0.93,-0.43,0.07,-0.05,0.94,
2.283,-0.59,-0.85,-0.42,0.07,-0.05,0.94,
2.285,-0.59,-0.85,-0.42,0.07,-0.05,0.94,
2.288,-0.59,-0.85,-0.42,0.07,-0.05,0.94,
2.288,-0.57,-0.78,-0.41,0.07,-0.05,0.94,
2.29,-0.57,-0.78,-0.41,0.08,-0.05,0.94,
2.293,-0.57,-0.78,-0.41,0.08,-0.05,0.94,
2.293,-0.57,-0.74,-0.39,0.08,-0.05,0.94,
2.295,-0.57,-0.74,-0.39,0.09,-0.05,0.94,
2.298,-0.57,-0.74,-0.39,0.09,-0.05,0.94,
2.298,-0.48,-0.75,-0.38,0.09,-0.05,0.94,
2.3,-0.48,-0.75,-0.38,0.10,-0.05,0.94,
2.302,-0.48,-0.75,-0.38,0.10,-0.05,0.95,
2.303,-0.38,-0.79,-0.34,0.10,-0.05,0.95,
2.305,-0.38,-0.79,-0.34,0.11,-0.05,0.95,
2.307,-0.38,-0.79,-0.34,0.11,-0.05,0.95,
2.308,-0.30,-0.78,-0.32,0.11,-0.05,0.95,
2.31,-0.30,-0.78,-0.32,0.12,-0.05,0.95,
2.313,-0.30,-0.78,-0.32,0.12,-0.05,0.94,
2.313,-0.19,-0.74,-0.32,0.12,-0.05,0.94,
2.315,-0.19,-0.74,-0.32,0.12,-0.05,0.94,
2.317,-0.19,-0.74,-0.32,0.12,-0.05,0.94,
2.317,-0.13,-0.74,-0.32,0.12,-0.05,0.94,
2.32,-0.13,-0.74,-0.32,0.13,-0.05,0.94,
2.322,-0.13,-0.74,-0.32,0.13,-0.06,0.94,
2.322,-0.07,-0.73,-0.34,0.13,-0.06,0.94,
2.325,-0.07,-0.73,-0.34,0.13,-0.06,0.94,
2.328,-0.07,-0.73,-0.34,0.13,-0.06,0.94,
2.328,0.00,-0.75,-0.35,0.13,-0.06,0.94,
2.33,0.00,-0.75,-0.35,0.13,-0.05,0.94,
2.332,0.00,-0.75,-0.35,0.13,-0.05,0.94,
2.332,0.08,-0.77,-0.35,0.13,-0.05,0.94,
2.334,0.08,-0.77,-0.35,0.12,-0.05,0.94,
2.337,0.08,-0.77,-0.35,0.12,-0.05,0.94,
2.337,0.06,-0.73,-0.36,0.12,-0.05,0.94,
2.34,0.06,-0.73,-0.36,0.12,-0.04,0.94,
2.342,0.06,-0.73,-0.36,0.11,-0.04,0.93,
2.342,-0.02,-0.68,-0.39,0.11,-0.04,0.93,
2.345,-0.02,-0.68,-0.39,0.10,-0.04,0.93,
2.349,-0.02,-0.68,-0.39,0.10,-0.04,0.93,
2.351,-0.10,-0.64,-0.42,0.10,-0.04,0.93,
2.351,-0.10,-0.64,-0.42,0.10,-0.04,0.93,
2.351,-0.10,-0.64,-0.42,0.09,-0.04,0.93,
2.352,-0.19,-0.63,-0.48,0.09,-0.04,0.93,
2.354,-0.19,-0.63,-0.48,0.09,-0.04,0.93,
2.357,-0.19,-0.63,-0.48,0.09,-0.04,0.93,
2.357,-0.24,-0.61,-0.51,0.09,-0.04,0.93,
2.359,-0.24,-0.61,-0.51,0.09,-0.03,0.93,
2.362,-0.29,-0.58,-0.49,0.09,-0.03,0.93,
2.362,-0.29,-0.58,-0.49,0.09,-0.03,0.93,
2.364,-0.29,-0.58,-0.49,0.09,-0.03,0.93,
2.366,-0.29,-0.58,-0.49,0.09,-0.03,0.93,
2.366,-0.27,-0.53,-0.50,0.09,-0.03,0.93,
2.369,-0.27,-0.53,-0.50,0.09,-0.03,0.93,
2.371,-0.27,-0.53,-0.50,0.10,-0.03,0.93,
2.372,-0.28,-0.48,-0.49,0.10,-0.03,0.93,
2.379,-0.28,-0.48,-0.49,0.10,-0.02,0.94,
2.379,-0.28,-0.48,-0.49,0.10,-0.02,0.94,
2.38,-0.24,-0.45,-0.46,0.10,-0.02,0.94,
2.38,-0.24,-0.45,-0.46,0.11,-0.02,0.94,
2.381,-0.24,-0.45,-0.46,0.11,-0.02,0.94,
2.381,-0.19,-0.40,-0.42,0.11,-0.02,0.94,
2.383,-0.19,-0.40,-0.42,0.12,-0.02,0.95,
2.386,-0.19,-0.40,-0.42,0.12,-0.01,0.95,
2.387,-0.12,-0.37,-0.39,0.12,-0.01,0.95,
2.388,-0.12,-0.37,-0.39,0.12,-0.01,0.96,
2.396,-0.12,-0.37,-0.39,0.13,-0.01,0.96,
2.396,-0.04,-0.33,-0.30,0.13,-0.01,0.96,
2.396,-0.04,-0.33,-0.30,0.13,-0.00,0.97,
2.396,-0.04,-0.33,-0.30,0.14,0.00,0.97,
2.396,0.03,-0.26,-0.19,0.14,0.00,0.97,
2.398,0.03,-0.26,-0.19,0.14,0.00,0.97,
2.4,0.03,-0.26,-0.19,0.14,0.01,0.98,
2.401,0.11,-0.19,-0.08,0.14,0.01,0.98,
2.403,0.11,-0.19,-0.08,0.14,0.00,0.98,
2.405,0.11,-0.19,-0.08,0.15,0.01,0.98,
2.405,0.14,-0.14,-0.04,0.15,0.01,0.98,
2.408,0.14,-0.14,-0.04,0.15,0.01,0.98,
2.41,0.14,-0.14,-0.04,0.15,0.01,0.98,
2.41,0.19,-0.13,0.01,0.15,0.01,0.98,
2.413,0.19,-0.13,0.01,0.15,0.01,0.98,
2.415,0.19,-0.13,0.01,0.16,0.01,0.99,
2.415,0.25,-0.07,0.05,0.16,0.01,0.99,
2.417,0.25,-0.07,0.05,0.15,0.01,0.99,
2.42,0.25,-0.07,0.05,0.16,0.01,0.99,
2.42,0.27,-0.07,0.08,0.16,0.01,0.99,
2.423,0.27,-0.07,0.08,0.16,0.01,0.99,
2.425,0.27,-0.07,0.08,0.16,0.01,0.99,
2.425,0.29,-0.05,0.09,0.16,0.01,0.99,
2.428,0.29,-0.05,0.09,0.16,0.01,1.00,
2.43,0.29,-0.05,0.09,0.16,0.01,1.00,
2.43,0.33,-0.05,0.13,0.16,0.01,1.00,
2.432,0.33,-0.05,0.13,0.17,0.01,1.00,
2.435,0.33,-0.05,0.13,0.17,0.01,1.00,
2.435,0.37,-0.07,0.21,0.17,0.01,1.00,
2.437,0.37,-0.07,0.21,0.17,0.01,1.00,
2.44,0.37,-0.07,0.21,0.17,0.00,1.00,
2.441,0.39,-0.10,0.24,0.17,0.00,1.00,
2.442,0.39,-0.10,0.24,0.16,0.00,1.00,
2.445,0.39,-0.10,0.24,0.16,0.00,0.99,
2.445,0.39,-0.14,0.24,0.16,0.00,0.99,
2.447,0.39,-0.14,0.24,0.16,-0.00,0.99,
2.449,0.39,-0.14,0.24,0.16,-0.00,0.99,
2.449,0.38,-0.16,0.17,0.16,-0.00,0.99,
2.452,0.38,-0.16,0.17,0.16,-0.00,0.99,
2.454,0.38,-0.16,0.17,0.16,-0.01,0.99,
2.454,0.36,-0.21,0.11,0.16,-0.01,0.99,
2.457,0.36,-0.21,0.11,0.16,-0.00,0.98,
2.459,0.36,-0.21,0.11,0.16,-0.00,0.98,
2.459,0.35,-0.23,0.07,0.16,-0.00,0.98,
2.462,0.35,-0.23,0.07,0.15,-0.00,0.98,
2.464,0.35,-0.23,0.07,0.15,0.00,0.98,
2.464,0.32,-0.23,0.06,0.15,0.00,0.98,
2.467,0.32,-0.23,0.06,0.15,0.00,0.99,
2.469,0.32,-0.23,0.06,0.15,0.01,0.98,
2.469,0.29,-0.19,0.06,0.15,0.01,0.98,
2.472,0.29,-0.19,0.06,0.14,0.01,0.98,
2.479,0.29,-0.19,0.06,0.14,0.02,0.98,
2.48,0.24,-0.14,0.06,0.14,0.02,0.98,
2.48,0.24,-0.14,0.06,0.13,0.02,0.98,
2.48,0.24,-0.14,0.06,0.13,0.02,0.98,
2.48,0.18,-0.06,0.05,0.13,0.02,0.98,
2.481,0.18,-0.06,0.05,0.13,0.02,0.98,
2.484,0.18,-0.06,0.05,0.12,0.03,0.98,
2.484,0.10,0.01,0.02,0.12,0.03,0.98,
2.486,0.10,0.01,0.02,0.12,0.03,0.98,
2.489,0.10,0.01,0.02,0.12,0.03,0.98,
2.489,0.04,0.05,0.01,0.12,0.03,0.98,
2.493,0.04,0.05,0.01,0.12,0.03,0.98,
2.494,0.04,0.05,0.01,0.12,0.04,0.98,
2.494,-0.01,0.11,0.01,0.12,0.04,0.98,
2.496,-0.01,0.11,0.01,0.12,0.04,0.98,
2.498,-0.01,0.11,0.01,0.12,0.04,0.98,
2.499,-0.03,0.13,-0.01,0.12,0.04,0.98,
2.501,-0.03,0.13,-0.01,0.12,0.04,0.98,
2.503,-0.03,0.13,-0.01,0.13,0.04,0.98,
2.503,-0.00,0.16,-0.01,0.13,0.04,0.98,
2.506,-0.00,0.16,-0.01,0.13,0.04,0.98,
2.508,-0.00,0.16,-0.01,0.13,0.04,0.98,
2.509,0.06,0.16,-0.01,0.13,0.04,0.98,
2.511,0.06,0.16,-0.01,0.13,0.03,0.98,
2.513,0.06,0.16,-0.01,0.14,0.03,0.98,
2.513,0.11,0.15,-0.02,0.14,0.03,0.98,
2.516,0.11,0.15,-0.02,0.14,0.03,0.97,
2.518,0.11,0.15,-0.02,0.14,0.03,0.97,
2.518,0.16,0.11,-0.03,0.14,0.03,0.97,
2.521,0.16,0.11,-0.03,0.14,0.02,0.97,
2.523,0.16,0.11,-0.03,0.15,0.02,0.97,
2.523,0.21,0.08,-0.04,0.15,0.02,0.97,
2.525,0.21,0.08,-0.04,0.15,0.01,0.98,
2.528,0.21,0.08,-0.04,0.15,0.01,0.98,
2.528,0.24,-0.00,-0.05,0.15,0.01,0.98,
2.53,0.24,-0.00,-0.05,0.15,0.01,0.98,
2.533,0.24,-0.00,-0.05,0.15,0.00,0.98,
2.533,0.27,-0.09,-0.02,0.15,0.00,0.98,
2.535,0.27,-0.09,-0.02,0.15,-0.00,0.98,
2.537,0.27,-0.09,-0.02,0.15,-0.00,0.98,
2.538,0.30,-0.16,0.00,0.15,-0.00,0.98,
2.54,0.30,-0.16,0.00,0.15,-0.01,0.99,
2.542,0.30,-0.16,0.00,0.15,-0.01,0.99,
2.543,0.29,-0.23,0.04,0.15,-0.01,0.99,
2.545,0.29,-0.23,0.04,0.14,-0.01,0.99,
2.547,0.29,-0.23,0.04,0.14,-0.01,0.99,
2.548,0.25,-0.27,0.08,0.14,-0.01,0.99,
2.55,0.25,-0.27,0.08,0.13,-0.01,0.99,
2.552,0.25,-0.27,0.08,0.13,-0.01,0.99,
2.553,0.15,-0.29,0.10,0.13,-0.01,0.99,
2.555,0.15,-0.29,0.10,0.12,-0.01,0.98,
2.562,0.15,-0.29,0.10,0.12,-0.01,0.98,
2.563,0.06,-0.30,0.10,0.12,-0.01,0.98,
2.563,0.06,-0.30,0.10,0.12,-0.01,0.99,
2.564,0.06,-0.30,0.10,0.12,-0.01,0.98,
2.564,-0.02,-0.29,0.06,0.12,-0.01,0.98,
2.564,-0.02,-0.29,0.06,0.11,-0.01,0.98,
2.567,-0.02,-0.29,0.06,0.11,-0.01,0.99,
2.567,-0.06,-0.29,0.08,0.11,-0.01,0.99,
2.569,-0.06,-0.29,0.08,0.11,-0.01,0.99,
2.58,-0.06,-0.29,0.08,0.11,-0.01,0.99,
2.58,-0.09,-0.27,0.07,0.11,-0.01,0.99,
2.58,-0.09,-0.27,0.07,0.11,-0.01,0.99,
2.58,-0.09,-0.27,0.07,0.11,-0.01,0.99,
2.581,-0.11,-0.26,0.09,0.11,-0.01,0.99,
2.581,-0.11,-0.26,0.09,0.11,-0.01,0.99,
2.581,-0.11,-0.26,0.09,0.11,-0.01,0.99,
2.582,-0.10,-0.27,0.10,0.11,-0.01,0.99,
2.584,-0.10,-0.27,0.10,0.11,-0.01,0.99,
2.586,-0.10,-0.27,0.10,0.11,-0.01,0.99,
2.586,-0.10,-0.28,0.10,0.11,-0.01,0.99,
2.589,-0.10,-0.28,0.10,0.11,-0.01,0.99,
2.591,-0.10,-0.28,0.10,0.11,-0.01,0.99,
2.592,-0.10,-0.28,0.09,0.11,-0.01,0.99,
2.594,-0.10,-0.28,0.09,0.12,-0.00,0.99,
2.596,-0.10,-0.28,0.09,0.12,-0.00,0.99,
2.596,-0.09,-0.26,0.11,0.12,-0.00,0.99,
2.599,-0.09,-0.26,0.11,0.12,-0.00,1.00,
2.601,-0.09,-0.26,0.11,0.12,-0.00,1.00,
2.602,-0.06,-0.21,0.15,0.12,-0.00,1.00,
2.604,-0.06,-0.21,0.15,0.12,-0.01,1.00,
2.606,-0.06,-0.21,0.15,0.12,-0.01,1.00,
2.606,-0.05,-0.22,0.17,0.12,-0.01,1.00,
2.609,-0.05,-0.22,0.17,0.12,-0.01,1.00,
2.611,-0.05,-0.22,0.17,0.13,-0.01,0.99,
2.612,-0.01,-0.25,0.17,0.13,-0.01,0.99,
2.613,-0.01,-0.25,0.17,0.13,-0.01,0.99,
2.616,-0.01,-0.25,0.17,0.13,-0.02,0.99,
2.616,0.02,-0.29,0.15,0.13,-0.02,0.99,
2.619,0.02,-0.29,0.15,0.13,-0.02,0.99,
2.621,0.02,-0.29,0.15,0.13,-0.02,0.99,
2.621,0.06,-0.33,0.13,0.13,-0.02,0.99,
2.624,0.06,-0.33,0.13,0.13,-0.02,0.99,
2.626,0.06,-0.33,0.13,0.13,-0.02,0.99,
2.626,0.09,-0.33,0.14,0.13,-0.02,0.99,
2.628,0.09,-0.33,0.14,0.13,-0.02,0.97,
2.631,0.09,-0.33,0.14,0.13,-0.02,0.90,
2.631,0.09,-0.35,0.15,0.13,-0.02,0.90,
2.633,0.09,-0.35,0.15,0.12,-0.02,0.86,
2.636,0.09,-0.35,0.15,0.12,-0.02,0.87,
2.636,0.04,-0.37,-0.40,0.12,-0.02,0.87,
2.639,0.04,-0.37,-0.40,0.13,-0.01,0.90,
2.641,0.04,-0.37,-0.40,0.13,-0.01,0.92,
2.641,-0.01,-0.35,-1.08,0.13,-0.01,0.92,
2.643,-0.01,-0.35,-1.08,0.12,-0.01,0.93,
2.645,-0.01,-0.35,-1.08,0.11,-0.01,0.94,
2.646,0.02,-0.27,-0.66,0.11,-0.01,0.94,
2.648,0.02,-0.27,-0.66,0.11,-0.01,0.93,
2.65,0.02,-0.27,-0.66,0.10,-0.01,0.93,
2.65,-0.06,-0.24,-0.40,0.10,-0.01,0.93,
2.653,-0.06,-0.24,-0.40,0.10,-0.01,0.93,
2.656,-0.06,-0.24,-0.40,0.11,-0.00,0.94,
2.656,-0.18,-0.24,-0.42,0.11,-0.00,0.94,
2.658,-0.18,-0.24,-0.42,0.11,-0.00,0.95,
2.66,-0.18,-0.24,-0.42,0.11,-0.01,0.97,
2.66,-0.17,-0.19,-0.39,0.11,-0.01,0.97,
2.662,-0.17,-0.19,-0.39,0.12,-0.01,0.98,
2.665,-0.17,-0.19,-0.39,0.12,-0.02,0.99,
2.665,-0.12,-0.18,-0.16,0.12,-0.02,0.99,
2.667,-0.12,-0.18,-0.16,0.12,-0.02,1.00,
2.67,-0.12,-0.18,-0.16,0.12,-0.03,1.01,
2.67,-0.07,-0.25,0.10,0.12,-0.03,1.01,
2.676,-0.07,-0.25,0.10,0.13,-0.03,1.02,
2.677,-0.07,-0.25,0.10,0.13,-0.04,1.03,
2.677,-0.02,-0.34,0.31,0.13,-0.04,1.03,
2.678,-0.02,-0.34,0.31,0.14,-0.04,1.03,
2.679,-0.02,-0.34,0.31,0.14,-0.03,1.03,
2.68,0.05,-0.43,0.49,0.14,-0.03,1.03,
2.682,0.05,-0.43,0.49,0.14,-0.04,1.03,
2.684,0.05,-0.43,0.49,0.14,-0.04,1.03,
2.685,0.12,-0.44,0.54,0.14,-0.04,1.03,
2.687,0.12,-0.44,0.54,0.14,-0.04,1.04,
2.69,0.12,-0.44,0.54,0.14,-0.04,1.04,
2.69,0.14,-0.45,0.56,0.14,-0.04,1.04,
