
time,ax,ay,az,gFx,gFy,gFz,
0.002,0.00,-0.06,-0.03,-0.05,0.13,0.96,
0.002,0.00,-0.06,-0.03,-0.05,0.14,0.96,
0.002,0.03,-0.06,-0.07,-0.05,0.14,0.96,
0.003,0.03,-0.06,-0.07,-0.05,0.14,0.96,
0.005,0.03,-0.06,-0.07,-0.05,0.14,0.95,
0.005,0.08,-0.01,-0.12,-0.05,0.14,0.95,
0.008,0.08,-0.01,-0.12,-0.05,0.14,0.95,
0.01,0.08,-0.01,-0.12,-0.05,0.14,0.95,
0.01,0.09,0.00,-0.17,-0.05,0.14,0.95,
0.012,0.09,0.00,-0.17,-0.05,0.14,0.95,
0.015,0.09,0.00,-0.17,-0.05,0.14,0.95,
0.015,0.08,0.03,-0.20,-0.05,0.14,0.95,
0.017,0.08,0.03,-0.20,-0.05,0.14,0.95,
0.02,0.08,0.03,-0.20,-0.05,0.14,0.95,
0.02,0.09,0.05,-0.22,-0.05,0.14,0.95,
0.022,0.09,0.05,-0.22,-0.05,0.14,0.95,
0.027,0.09,0.05,-0.22,-0.05,0.14,0.95,
0.027,0.08,0.07,-0.22,-0.05,0.14,0.95,
0.027,0.08,0.07,-0.22,-0.05,0.14,0.95,
0.03,0.08,0.07,-0.22,-0.05,0.14,0.95,
0.03,0.08,0.04,-0.20,-0.05,0.14,0.95,
0.032,0.08,0.04,-0.20,-0.06,0.15,0.95,
0.035,0.08,0.04,-0.20,-0.06,0.15,0.96,
0.035,0.05,0.06,-0.19,-0.06,0.15,0.96,
0.037,0.05,0.06,-0.19,-0.06,0.15,0.96,
0.039,0.05,0.06,-0.19,-0.06,0.15,0.96,
0.04,0.02,0.12,-0.15,-0.06,0.15,0.96,
0.042,0.02,0.12,-0.15,-0.06,0.15,0.97,
0.045,0.02,0.12,-0.15,-0.06,0.15,0.97,
0.045,0.00,0.11,-0.08,-0.06,0.15,0.97,
0.047,0.00,0.11,-0.08,-0.06,0.14,0.97,
0.049,0.00,0.11,-0.08,-0.06,0.14,0.98,
0.049,0.03,0.11,-0.02,-0.06,0.14,0.98,
0.051,0.03,0.11,-0.02,-0.06,0.15,0.98,
0.054,0.03,0.11,-0.02,-0.06,0.14,0.99,
0.054,0.01,0.09,0.05,-0.06,0.14,0.99,
0.056,0.01,0.09,0.05,-0.06,0.14,0.99,
0.06,0.01,0.09,0.05,-0.06,0.15,0.99,
0.06,0.01,0.09,0.12,-0.06,0.15,0.99,
0.061,0.01,0.09,0.12,-0.06,0.15,0.99,
0.064,0.01,0.09,0.12,-0.06,0.15,0.99,
0.064,0.01,0.10,0.18,-0.06,0.15,0.99,
0.066,0.01,0.10,0.18,-0.06,0.15,1.00,
0.069,0.01,0.10,0.18,-0.05,0.15,1.00,
0.069,-0.00,0.11,0.21,-0.05,0.15,1.00,
0.071,-0.00,0.11,0.21,-0.05,0.15,1.00,
0.074,-0.00,0.11,0.21,-0.05,0.15,1.00,
0.074,0.02,0.11,0.24,-0.05,0.15,1.00,
0.082,0.02,0.11,0.24,-0.05,0.15,1.00,
0.082,0.02,0.11,0.24,-0.05,0.15,1.00,
0.082,0.04,0.11,0.26,-0.05,0.15,1.00,
0.082,0.04,0.11,0.26,-0.05,0.15,1.00,
0.084,0.04,0.11,0.26,-0.05,0.15,1.00,
0.084,0.05,0.11,0.27,-0.05,0.15,1.00,
0.086,0.05,0.11,0.27,-0.05,0.15,0.99,
0.088,0.05,0.11,0.27,-0.05,0.15,0.99,
0.089,0.06,0.12,0.23,-0.05,0.15,0.99,
0.091,0.06,0.12,0.23,-0.05,0.15,0.99,
0.094,0.06,0.12,0.23,-0.05,0.15,0.99,
0.094,0.06,0.10,0.18,-0.05,0.15,0.99,
0.096,0.06,0.10,0.18,-0.05,0.15,0.99,
0.098,0.06,0.10,0.18,-0.05,0.15,0.99,
0.098,0.05,0.11,0.15,-0.05,0.15,0.99,
0.101,0.05,0.11,0.15,-0.05,0.15,0.98,
0.103,0.05,0.11,0.15,-0.05,0.14,0.98,
0.103,0.06,0.11,0.14,-0.05,0.14,0.98,
0.105,0.06,0.11,0.14,-0.06,0.14,0.98,
0.108,0.06,0.11,0.14,-0.06,0.14,0.98,
0.108,0.07,0.07,0.09,-0.06,0.14,0.98,
0.111,0.07,0.07,0.09,-0.06,0.14,0.98,
0.113,0.07,0.07,0.09,-0.06,0.14,0.97,
0.113,-0.00,0.04,0.05,-0.06,0.14,0.97,
0.115,-0.00,0.04,0.05,-0.06,0.14,0.97,
0.118,-0.00,0.04,0.05,-0.07,0.14,0.97,
0.118,-0.04,0.04,0.02,-0.07,0.14,0.97,
0.12,-0.04,0.04,0.02,-0.07,0.14,0.97,
0.123,-0.04,0.04,0.02,-0.07,0.14,0.97,
0.124,-0.07,0.02,-0.01,-0.07,0.14,0.97,
0.125,-0.07,0.02,-0.01,-0.07,0.14,0.97,
0.128,-0.07,0.02,-0.01,-0.07,0.14,0.97,
0.128,-0.11,-0.00,-0.02,-0.07,0.14,0.97,
0.13,-0.11,-0.00,-0.02,-0.08,0.14,0.97,
0.133,-0.11,-0.00,-0.02,-0.08,0.14,0.97,
0.133,-0.14,-0.01,-0.01,-0.08,0.14,0.97,
0.135,-0.14,-0.01,-0.01,-0.08,0.14,0.97,
0.137,-0.14,-0.01,-0.01,-0.08,0.13,0.98,
0.138,-0.16,-0.01,0.01,-0.08,0.13,0.98,
0.14,-0.16,-0.01,0.01,-0.08,0.13,0.98,
0.142,-0.16,-0.01,0.01,-0.08,0.13,0.98,
0.142,-0.19,-0.02,0.02,-0.08,0.13,0.98,
0.145,-0.19,-0.02,0.02,-0.08,0.13,0.98,
0.147,-0.19,-0.02,0.02,-0.08,0.13,0.98,
0.147,-0.19,-0.04,0.05,-0.08,0.13,0.98,
0.149,-0.19,-0.04,0.05,-0.07,0.13,0.98,
0.152,-0.19,-0.04,0.05,-0.08,0.13,0.98,
0.152,-0.17,-0.06,0.06,-0.08,0.13,0.98,
0.154,-0.17,-0.06,0.06,-0.07,0.13,0.98,
0.157,-0.17,-0.06,0.06,-0.07,0.13,0.98,
0.157,-0.15,-0.06,0.06,-0.07,0.13,0.98,
0.159,-0.15,-0.06,0.06,-0.07,0.13,0.98,
0.162,-0.15,-0.06,0.06,-0.07,0.13,0.97,
0.162,-0.13,-0.06,0.05,-0.07,0.13,0.97,
0.164,-0.13,-0.06,0.05,-0.07,0.13,0.97,
0.167,-0.13,-0.06,0.05,-0.07,0.13,0.97,
0.167,-0.13,-0.07,0.03,-0.07,0.13,0.97,
0.169,-0.13,-0.07,0.03,-0.06,0.13,0.97,
0.172,-0.13,-0.07,0.03,-0.06,0.13,0.97,
0.172,-0.07,-0.05,-0.01,-0.06,0.13,0.97,
0.178,-0.07,-0.05,-0.01,-0.07,0.14,0.97,
0.178,-0.07,-0.05,-0.01,-0.07,0.14,0.97,
0.178,-0.05,-0.04,-0.02,-0.07,0.14,0.97,
0.179,-0.05,-0.04,-0.02,-0.06,0.13,0.97,
0.181,-0.05,-0.04,-0.02,-0.06,0.13,0.96,
0.182,-0.05,-0.03,-0.05,-0.06,0.13,0.96,
0.184,-0.05,-0.03,-0.05,-0.06,0.13,0.96,
0.186,-0.05,-0.03,-0.05,-0.06,0.13,0.96,
0.186,-0.04,-0.04,-0.07,-0.06,0.13,0.96,
0.189,-0.04,-0.04,-0.07,-0.06,0.13,0.96,
0.191,-0.04,-0.04,-0.07,-0.06,0.13,0.96,
0.192,-0.03,-0.04,-0.10,-0.06,0.13,0.96,
0.194,-0.03,-0.04,-0.10,-0.06,0.13,0.96,
0.196,-0.03,-0.04,-0.10,-0.06,0.13,0.96,
0.197,-0.03,-0.06,-0.10,-0.06,0.13,0.96,
0.198,-0.03,-0.06,-0.10,-0.07,0.13,0.96,
0.201,-0.03,-0.06,-0.10,-0.07,0.13,0.96,
0.201,-0.04,-0.08,-0.13,-0.07,0.13,0.96,
0.203,-0.04,-0.08,-0.13,-0.07,0.13,0.96,
0.206,-0.04,-0.08,-0.13,-0.07,0.13,0.96,
0.206,-0.06,-0.08,-0.12,-0.07,0.13,0.96,
0.208,-0.06,-0.08,-0.12,-0.07,0.13,0.96,
0.211,-0.06,-0.08,-0.12,-0.07,0.13,0.97,
0.211,-0.07,-0.08,-0.11,-0.07,0.13,0.97,
0.213,-0.07,-0.08,-0.11,-0.07,0.13,0.97,
0.216,-0.07,-0.08,-0.11,-0.07,0.13,0.97,
0.216,-0.11,-0.08,-0.08,-0.07,0.13,0.97,
0.218,-0.11,-0.08,-0.08,-0.07,0.13,0.97,
0.221,-0.11,-0.08,-0.08,-0.07,0.13,0.97,
0.221,-0.10,-0.07,-0.06,-0.07,0.13,0.97,
0.223,-0.10,-0.07,-0.06,-0.07,0.13,0.97,
0.226,-0.10,-0.07,-0.06,-0.07,0.13,0.97,
0.226,-0.09,-0.07,-0.03,-0.07,0.13,0.97,
0.228,-0.09,-0.07,-0.03,-0.07,0.13,0.98,
0.231,-0.09,-0.07,-0.03,-0.07,0.13,0.98,
0.231,-0.09,-0.06,0.00,-0.07,0.13,0.98,
0.233,-0.09,-0.06,0.00,-0.07,0.13,0.98,
0.235,-0.09,-0.06,0.00,-0.07,0.13,0.98,
0.236,-0.08,-0.05,0.04,-0.07,0.13,0.98,
0.238,-0.08,-0.05,0.04,-0.06,0.13,0.98,
0.241,-0.08,-0.05,0.04,-0.06,0.14,0.98,
0.242,-0.07,-0.05,0.08,-0.06,0.14,0.98,
0.243,-0.07,-0.05,0.08,-0.06,0.14,0.98,
0.245,-0.07,-0.05,0.08,-0.06,0.14,0.98,
0.245,-0.02,-0.04,0.08,-0.06,0.14,0.98,
0.248,-0.02,-0.04,0.08,-0.06,0.14,0.98,
0.25,-0.02,-0.04,0.08,-0.06,0.14,0.98,
0.25,-0.02,-0.01,0.07,-0.06,0.14,0.98,
0.252,-0.02,-0.01,0.07,-0.06,0.14,0.98,
0.255,-0.02,-0.01,0.07,-0.06,0.14,0.97,
0.255,-0.01,0.01,0.07,-0.06,0.14,0.97,
0.258,-0.01,0.01,0.07,-0.06,0.14,0.97,
0.26,-0.01,0.01,0.07,-0.05,0.14,0.97,
0.261,0.02,0.01,0.02,-0.05,0.14,0.97,
0.262,0.02,0.01,0.02,-0.06,0.14,0.97,
0.265,0.02,0.01,0.02,-0.05,0.14,0.97,
0.265,0.05,0.02,-0.02,-0.05,0.14,0.97,
0.267,0.05,0.02,-0.02,-0.05,0.14,0.96,
0.27,0.05,0.02,-0.02,-0.05,0.14,0.96,
0.27,0.05,0.04,-0.05,-0.05,0.14,0.96,
0.272,0.05,0.04,-0.05,-0.05,0.14,0.96,
0.275,0.05,0.04,-0.05,-0.05,0.14,0.96,
0.275,0.06,0.03,-0.11,-0.05,0.14,0.96,
0.277,0.06,0.03,-0.11,-0.05,0.14,0.95,
0.28,0.06,0.03,-0.11,-0.05,0.14,0.95,
0.28,0.06,0.02,-0.15,-0.05,0.14,0.95,
0.282,0.06,0.02,-0.15,-0.05,0.14,0.95,
0.284,0.06,0.02,-0.15,-0.06,0.14,0.95,
0.285,0.06,0.01,-0.17,-0.06,0.14,0.95,
0.287,0.06,0.01,-0.17,-0.06,0.14,0.95,
0.289,0.06,0.01,-0.17,-0.06,0.14,0.95,
0.29,0.05,0.01,-0.18,-0.06,0.14,0.95,
0.294,0.05,0.01,-0.18,-0.06,0.14,0.96,
0.295,0.05,0.01,-0.18,-0.05,0.14,0.96,
0.295,0.04,0.01,-0.18,-0.05,0.14,0.96,
0.296,0.04,0.01,-0.18,-0.05,0.14,0.96,
0.299,0.04,0.01,-0.18,-0.05,0.14,0.96,
0.299,0.06,-0.01,-0.15,-0.05,0.14,0.96,
0.301,0.06,-0.01,-0.15,-0.05,0.14,0.96,
0.304,0.06,-0.01,-0.15,-0.05,0.14,0.96,
0.304,0.09,-0.02,-0.12,-0.05,0.14,0.96,
0.306,0.09,-0.02,-0.12,-0.05,0.14,0.96,
0.309,0.09,-0.02,-0.12,-0.05,0.14,0.97,
0.309,0.10,-0.03,-0.09,-0.05,0.14,0.97,
0.311,0.10,-0.03,-0.09,-0.05,0.14,0.97,
0.314,0.10,-0.03,-0.09,-0.05,0.14,0.97,
0.314,0.10,-0.03,-0.06,-0.05,0.14,0.97,
0.316,0.10,-0.03,-0.06,-0.05,0.14,0.97,
0.319,0.10,-0.03,-0.06,-0.05,0.14,0.97,
0.319,0.09,-0.02,-0.03,-0.05,0.14,0.97,
0.321,0.09,-0.02,-0.03,-0.05,0.14,0.97,
0.324,0.09,-0.02,-0.03,-0.05,0.14,0.97,
0.324,0.08,-0.00,-0.02,-0.05,0.14,0.97,
0.326,0.08,-0.00,-0.02,-0.06,0.14,0.97,
0.329,0.08,-0.00,-0.02,-0.06,0.14,0.97,
0.33,0.06,0.01,-0.02,-0.06,0.14,0.97,
0.331,0.06,0.01,-0.02,-0.06,0.14,0.97,
0.334,0.06,0.01,-0.02,-0.06,0.14,0.97,
0.334,0.03,0.02,0.00,-0.06,0.14,0.97,
0.336,0.03,0.02,0.00,-0.06,0.14,0.97,
0.338,0.03,0.02,0.00,-0.06,0.14,0.97,
0.338,-0.00,0.01,0.01,-0.06,0.14,0.97,
0.341,-0.00,0.01,0.01,-0.06,0.14,0.97,
0.343,-0.00,0.01,0.01,-0.07,0.14,0.97,
0.344,-0.02,-0.03,0.01,-0.07,0.14,0.97,
0.345,-0.02,-0.03,0.01,-0.06,0.13,0.97,
0.348,-0.02,-0.03,0.01,-0.06,0.13,0.97,
0.348,-0.06,-0.04,-0.00,-0.06,0.13,0.97,
0.351,-0.06,-0.04,-0.00,-0.07,0.13,0.97,
0.353,-0.06,-0.04,-0.00,-0.07,0.13,0.97,
0.353,-0.04,-0.06,-0.01,-0.07,0.13,0.97,
0.355,-0.04,-0.06,-0.01,-0.07,0.13,0.97,
0.358,-0.04,-0.06,-0.01,-0.07,0.13,0.97,
0.359,-0.07,-0.08,0.01,-0.07,0.13,0.97,
0.36,-0.07,-0.08,0.01,-0.07,0.13,0.97,
0.363,-0.07,-0.08,0.01,-0.07,0.13,0.97,
0.363,-0.09,-0.08,-0.00,-0.07,0.13,0.97,
0.365,-0.09,-0.08,-0.00,-0.07,0.13,0.97,
0.368,-0.09,-0.08,-0.00,-0.07,0.13,0.97,
0.368,-0.08,-0.10,-0.02,-0.07,0.13,0.97,
0.37,-0.08,-0.10,-0.02,-0.07,0.13,0.97,
0.372,-0.08,-0.10,-0.02,-0.07,0.13,0.97,
0.373,-0.07,-0.11,-0.02,-0.07,0.13,0.97,
0.382,-0.07,-0.11,-0.02,-0.06,0.13,0.97,
0.382,-0.07,-0.11,-0.02,-0.06,0.13,0.96,
0.382,-0.06,-0.13,-0.03,-0.06,0.13,0.96,
0.382,-0.06,-0.13,-0.03,-0.06,0.13,0.97,
0.382,-0.06,-0.13,-0.03,-0.07,0.13,0.97,
0.383,-0.03,-0.13,-0.06,-0.07,0.13,0.97,
0.385,-0.03,-0.13,-0.06,-0.07,0.13,0.97,
0.387,-0.03,-0.13,-0.06,-0.07,0.13,0.96,
0.387,-0.04,-0.12,-0.05,-0.07,0.13,0.96,
0.389,-0.04,-0.12,-0.05,-0.07,0.13,0.97,
0.392,-0.04,-0.12,-0.05,-0.07,0.14,0.96,
0.392,-0.05,-0.09,-0.05,-0.07,0.14,0.96,
0.394,-0.05,-0.09,-0.05,-0.07,0.14,0.96,
0.397,-0.05,-0.09,-0.05,-0.07,0.14,0.96,
0.397,-0.10,-0.05,-0.06,-0.07,0.14,0.96,
0.399,-0.10,-0.05,-0.06,-0.08,0.14,0.96,
0.402,-0.10,-0.05,-0.06,-0.08,0.14,0.96,
0.402,-0.12,-0.02,-0.06,-0.08,0.14,0.96,
0.404,-0.12,-0.02,-0.06,-0.08,0.14,0.97,
0.407,-0.12,-0.02,-0.06,-0.08,0.14,0.96,
0.408,-0.15,0.00,-0.05,-0.08,0.14,0.96,
0.409,-0.15,0.00,-0.05,-0.08,0.14,0.96,
0.412,-0.15,0.00,-0.05,-0.08,0.14,0.96,
0.412,-0.18,0.00,-0.06,-0.08,0.14,0.96,
0.414,-0.18,0.00,-0.06,-0.08,0.14,0.96,
0.417,-0.18,0.00,-0.06,-0.08,0.14,0.96,
0.417,-0.19,-0.01,-0.08,-0.08,0.14,0.96,
0.419,-0.19,-0.01,-0.08,-0.08,0.14,0.96,
0.421,-0.19,-0.01,-0.08,-0.08,0.14,0.96,
0.422,-0.18,0.00,-0.09,-0.08,0.14,0.96,
0.424,-0.18,0.00,-0.09,-0.08,0.14,0.96,
0.427,-0.18,0.00,-0.09,-0.08,0.14,0.96,
0.427,-0.19,0.02,-0.10,-0.08,0.14,0.96,
0.429,-0.19,0.02,-0.10,-0.08,0.14,0.96,
0.431,-0.19,0.02,-0.10,-0.08,0.15,0.96,
0.431,-0.17,0.03,-0.09,-0.08,0.15,0.96,
0.433,-0.17,0.03,-0.09,-0.08,0.14,0.96,
0.436,-0.17,0.03,-0.09,-0.08,0.14,0.96,
0.437,-0.18,0.03,-0.09,-0.08,0.14,0.96,
0.439,-0.18,0.03,-0.09,-0.08,0.14,0.96,
0.441,-0.18,0.03,-0.09,-0.08,0.14,0.96,
0.442,-0.16,0.02,-0.06,-0.08,0.14,0.96,
0.444,-0.16,0.02,-0.06,-0.08,0.14,0.97,
0.446,-0.16,0.02,-0.06,-0.08,0.14,0.97,
0.446,-0.15,0.00,-0.06,-0.08,0.14,0.97,
0.448,-0.15,0.00,-0.06,-0.07,0.14,0.97,
0.451,-0.15,0.00,-0.06,-0.08,0.14,0.97,
0.451,-0.15,-0.03,-0.02,-0.08,0.14,0.97,
0.453,-0.15,-0.03,-0.02,-0.08,0.14,0.97,
0.456,-0.15,-0.03,-0.02,-0.08,0.14,0.97,
0.456,-0.14,-0.04,0.00,-0.08,0.14,0.97,
0.458,-0.14,-0.04,0.00,-0.08,0.14,0.97,
0.461,-0.14,-0.04,0.00,-0.08,0.13,0.97,
0.461,-0.15,-0.04,-0.00,-0.08,0.13,0.97,
0.463,-0.15,-0.04,-0.00,-0.08,0.14,0.98,
0.466,-0.15,-0.04,-0.00,-0.09,0.14,0.98,
0.466,-0.17,-0.07,0.04,-0.09,0.14,0.98,
0.468,-0.17,-0.07,0.04,-0.09,0.13,0.98,
0.471,-0.17,-0.07,0.04,-0.09,0.13,0.98,
0.471,-0.23,-0.07,0.06,-0.09,0.13,0.98,
0.473,-0.23,-0.07,0.06,-0.09,0.13,0.98,
0.477,-0.23,-0.07,0.06,-0.10,0.13,0.98,
0.477,-0.28,-0.08,0.06,-0.10,0.13,0.98,
0.478,-0.28,-0.08,0.06,-0.10,0.13,0.98,
0.48,-0.28,-0.08,0.06,-0.11,0.13,0.98,
0.48,-0.33,-0.10,0.08,-0.11,0.13,0.98,
0.482,-0.33,-0.10,0.08,-0.11,0.13,0.98,
0.485,-0.33,-0.10,0.08,-0.11,0.12,0.98,
0.485,-0.42,-0.12,0.09,-0.11,0.12,0.98,
0.488,-0.42,-0.12,0.09,-0.11,0.13,0.98,
0.49,-0.45,-0.17,0.08,-0.11,0.13,0.98,
0.49,-0.45,-0.17,0.08,-0.11,0.12,0.98,
0.492,-0.45,-0.17,0.08,-0.12,0.12,0.98,
0.495,-0.45,-0.17,0.08,-0.12,0.12,0.98,
0.495,-0.49,-0.17,0.08,-0.12,0.12,0.98,
0.497,-0.49,-0.17,0.08,-0.12,0.12,0.98,
0.5,-0.49,-0.17,0.08,-0.12,0.12,0.97,
0.5,-0.55,-0.20,0.07,-0.12,0.12,0.97,
0.502,-0.55,-0.20,0.07,-0.12,0.12,0.97,
0.505,-0.55,-0.20,0.07,-0.12,0.12,0.97,
0.505,-0.59,-0.20,0.05,-0.12,0.12,0.97,
0.507,-0.59,-0.20,0.05,-0.12,0.12,0.97,
0.51,-0.59,-0.20,0.05,-0.12,0.12,0.96,
0.51,-0.58,-0.22,0.00,-0.12,0.12,0.96,
0.512,-0.58,-0.22,0.00,-0.12,0.11,0.96,
0.514,-0.58,-0.22,0.00,-0.12,0.11,0.96,
0.515,-0.55,-0.26,-0.04,-0.12,0.11,0.96,
0.517,-0.55,-0.26,-0.04,-0.12,0.11,0.95,
0.519,-0.55,-0.26,-0.04,-0.12,0.11,0.95,
0.519,-0.53,-0.30,-0.11,-0.12,0.11,0.95,
0.522,-0.53,-0.30,-0.11,-0.12,0.11,0.95,
0.524,-0.53,-0.30,-0.11,-0.12,0.12,0.95,
0.525,-0.52,-0.30,-0.16,-0.12,0.12,0.95,
0.527,-0.52,-0.30,-0.16,-0.12,0.12,0.95,
0.529,-0.54,-0.28,-0.20,-0.12,0.12,0.95,
0.53,-0.54,-0.28,-0.20,-0.12,0.12,0.95,
0.531,-0.54,-0.28,-0.20,-0.12,0.12,0.94,
0.534,-0.54,-0.28,-0.20,-0.12,0.12,0.94,
0.534,-0.53,-0.26,-0.22,-0.12,0.12,0.94,
0.536,-0.53,-0.26,-0.22,-0.12,0.12,0.94,
0.539,-0.53,-0.26,-0.22,-0.12,0.12,0.95,
0.54,-0.52,-0.27,-0.25,-0.12,0.12,0.95,
0.541,-0.52,-0.27,-0.25,-0.12,0.12,0.95,
0.544,-0.52,-0.27,-0.25,-0.12,0.12,0.95,
0.544,-0.53,-0.26,-0.24,-0.12,0.12,0.95,
0.546,-0.53,-0.26,-0.24,-0.12,0.12,0.95,
0.549,-0.52,-0.26,-0.19,-0.12,0.12,0.95,
0.549,-0.52,-0.26,-0.19,-0.12,0.12,0.95,
0.551,-0.52,-0.26,-0.19,-0.12,0.12,0.95,
0.554,-0.52,-0.26,-0.19,-0.12,0.11,0.96,
0.554,-0.54,-0.26,-0.15,-0.12,0.11,0.96,
0.557,-0.54,-0.26,-0.15,-0.13,0.11,0.96,
0.559,-0.54,-0.26,-0.15,-0.13,0.11,0.96,
0.559,-0.55,-0.28,-0.13,-0.13,0.11,0.96,
0.561,-0.55,-0.28,-0.13,-0.13,0.11,0.96,
0.564,-0.55,-0.28,-0.13,-0.13,0.11,0.96,
0.564,-0.56,-0.31,-0.09,-0.13,0.11,0.96,
0.566,-0.56,-0.31,-0.09,-0.12,0.11,0.97,
0.568,-0.56,-0.31,-0.09,-0.13,0.11,0.97,
0.569,-0.56,-0.33,-0.04,-0.13,0.11,0.97,
0.571,-0.56,-0.33,-0.04,-0.12,0.10,0.97,
0.574,-0.56,-0.33,-0.04,-0.13,0.10,0.97,
0.575,-0.55,-0.36,-0.03,-0.13,0.10,0.97,
0.576,-0.55,-0.36,-0.03,-0.13,0.10,0.96,
0.578,-0.55,-0.36,-0.03,-0.13,0.10,0.96,
0.578,-0.55,-0.41,-0.02,-0.13,0.10,0.96,
0.581,-0.55,-0.41,-0.02,-0.13,0.10,0.96,
0.583,-0.55,-0.41,-0.02,-0.13,0.10,0.96,
0.584,-0.56,-0.40,-0.03,-0.13,0.10,0.96,
0.585,-0.56,-0.40,-0.03,-0.13,0.10,0.96,
0.588,-0.56,-0.40,-0.03,-0.13,0.10,0.96,
0.588,-0.56,-0.41,-0.03,-0.13,0.10,0.96,
0.596,-0.56,-0.41,-0.03,-0.13,0.10,0.96,
0.597,-0.56,-0.41,-0.03,-0.13,0.10,0.96,
0.597,-0.57,-0.41,-0.04,-0.13,0.10,0.96,
0.598,-0.57,-0.41,-0.04,-0.13,0.10,0.96,
0.598,-0.57,-0.41,-0.04,-0.13,0.10,0.96,
0.598,-0.56,-0.43,-0.07,-0.13,0.10,0.96,
0.6,-0.56,-0.43,-0.07,-0.13,0.10,0.96,
0.603,-0.56,-0.43,-0.07,-0.13,0.10,0.96,
0.603,-0.56,-0.44,-0.08,-0.13,0.10,0.96,
0.605,-0.56,-0.44,-0.08,-0.13,0.10,0.96,
0.608,-0.56,-0.44,-0.08,-0.14,0.10,0.96,
0.609,-0.57,-0.42,-0.08,-0.14,0.10,0.96,
0.61,-0.57,-0.42,-0.08,-0.14,0.10,0.96,
0.613,-0.57,-0.42,-0.08,-0.14,0.10,0.96,
0.614,-0.60,-0.43,-0.08,-0.14,0.10,0.96,
0.615,-0.60,-0.43,-0.08,-0.14,0.10,0.96,
0.617,-0.60,-0.43,-0.08,-0.14,0.10,0.96,
0.617,-0.63,-0.43,-0.08,-0.14,0.10,0.96,
0.62,-0.63,-0.43,-0.08,-0.15,0.10,0.96,
0.622,-0.63,-0.43,-0.08,-0.15,0.10,0.96,
0.622,-0.66,-0.43,-0.07,-0.15,0.10,0.96,
0.625,-0.66,-0.43,-0.07,-0.16,0.10,0.96,
0.627,-0.66,-0.43,-0.07,-0.16,0.10,0.96,
0.628,-0.71,-0.41,-0.08,-0.16,0.10,0.96,
0.629,-0.71,-0.41,-0.08,-0.16,0.10,0.95,
0.632,-0.71,-0.41,-0.08,-0.16,0.10,0.95,
0.633,-0.76,-0.38,-0.10,-0.16,0.10,0.95,
0.634,-0.76,-0.38,-0.10,-0.16,0.10,0.95,
0.637,-0.76,-0.38,-0.10,-0.16,0.10,0.94,
0.637,-0.78,-0.36,-0.16,-0.16,0.10,0.94,
0.639,-0.78,-0.36,-0.16,-0.17,0.10,0.94,
0.642,-0.78,-0.36,-0.16,-0.17,0.10,0.94,
0.643,-0.80,-0.38,-0.21,-0.17,0.10,0.94,
0.644,-0.80,-0.38,-0.21,-0.17,0.10,0.93,
0.647,-0.80,-0.38,-0.21,-0.17,0.10,0.93,
0.647,-0.83,-0.41,-0.28,-0.17,0.10,0.93,
0.649,-0.83,-0.41,-0.28,-0.17,0.09,0.93,
0.652,-0.83,-0.41,-0.28,-0.17,0.09,0.92,
0.652,-0.84,-0.42,-0.35,-0.17,0.09,0.92,
0.654,-0.84,-0.42,-0.35,-0.17,0.09,0.92,
0.657,-0.84,-0.42,-0.35,-0.17,0.09,0.92,
0.657,-0.84,-0.46,-0.39,-0.17,0.09,0.92,
0.659,-0.84,-0.46,-0.39,-0.17,0.08,0.91,
0.662,-0.84,-0.46,-0.39,-0.18,0.08,0.91,
0.662,-0.83,-0.51,-0.44,-0.18,0.08,0.91,
0.664,-0.83,-0.51,-0.44,-0.18,0.08,0.91,
0.666,-0.83,-0.51,-0.44,-0.18,0.08,0.91,
0.667,-0.83,-0.57,-0.50,-0.18,0.08,0.91,
0.669,-0.83,-0.57,-0.50,-0.18,0.07,0.90,
0.671,-0.83,-0.57,-0.50,-0.18,0.07,0.90,
0.672,-0.85,-0.63,-0.55,-0.18,0.07,0.90,
0.674,-0.85,-0.63,-0.55,-0.18,0.07,0.90,
0.677,-0.85,-0.63,-0.55,-0.19,0.06,0.89,
0.677,-0.87,-0.67,-0.61,-0.19,0.06,0.89,
0.679,-0.87,-0.67,-0.61,-0.19,0.06,0.89,
0.681,-0.87,-0.67,-0.61,-0.19,0.06,0.89,
0.682,-0.90,-0.73,-0.66,-0.19,0.06,0.89,
0.683,-0.90,-0.73,-0.66,-0.20,0.06,0.89,
0.686,-0.90,-0.73,-0.66,-0.20,0.06,0.88,
0.686,-0.92,-0.78,-0.71,-0.20,0.06,0.88,
0.688,-0.92,-0.78,-0.71,-0.20,0.06,0.88,
0.696,-0.92,-0.78,-0.71,-0.20,0.06,0.88,
0.697,-0.99,-0.80,-0.74,-0.20,0.06,0.88,
0.697,-0.99,-0.80,-0.74,-0.21,0.05,0.88,
0.697,-0.99,-0.80,-0.74,-0.21,0.05,0.88,
0.698,-1.03,-0.80,-0.76,-0.21,0.05,0.88,
0.698,-1.03,-0.80,-0.76,-0.21,0.05,0.89,
0.701,-1.03,-0.80,-0.76,-0.20,0.05,0.89,
0.701,-1.06,-0.81,-0.76,-0.20,0.05,0.89,
0.703,-1.06,-0.81,-0.76,-0.20,0.05,0.89,
0.705,-1.06,-0.81,-0.76,-0.20,0.05,0.89,
0.706,-1.02,-0.81,-0.70,-0.20,0.05,0.89,
0.709,-1.02,-0.81,-0.70,-0.20,0.05,0.90,
0.711,-1.02,-0.81,-0.70,-0.19,0.05,0.90,
0.711,-0.96,-0.82,-0.64,-0.19,0.05,0.90,
0.713,-0.96,-0.82,-0.64,-0.19,0.05,0.91,
0.715,-0.96,-0.82,-0.64,-0.19,0.06,0.91,
0.715,-0.90,-0.81,-0.57,-0.19,0.06,0.91,
0.718,-0.90,-0.81,-0.57,-0.19,0.06,0.92,
0.72,-0.90,-0.81,-0.57,-0.18,0.06,0.93,
0.72,-0.83,-0.76,-0.45,-0.18,0.06,0.93,
0.722,-0.83,-0.76,-0.45,-0.18,0.07,0.93,
0.725,-0.83,-0.76,-0.45,-0.18,0.07,0.93,
0.726,-0.78,-0.69,-0.33,-0.18,0.07,0.93,
0.728,-0.78,-0.69,-0.33,-0.18,0.08,0.94,
0.73,-0.78,-0.69,-0.33,-0.18,0.08,0.94,
0.73,-0.75,-0.59,-0.25,-0.18,0.08,0.94,
0.732,-0.75,-0.59,-0.25,-0.18,0.08,0.94,
0.735,-0.75,-0.59,-0.25,-0.17,0.08,0.94,
0.736,-0.68,-0.52,-0.16,-0.17,0.08,0.94,
0.737,-0.68,-0.52,-0.16,-0.17,0.08,0.94,
0.74,-0.68,-0.52,-0.16,-0.17,0.08,0.95,
0.74,-0.61,-0.46,-0.12,-0.17,0.08,0.95,
0.742,-0.61,-0.46,-0.12,-0.17,0.09,0.95,
0.745,-0.61,-0.46,-0.12,-0.17,0.09,0.95,
0.745,-0.55,-0.43,-0.10,-0.17,0.09,0.95,
0.747,-0.55,-0.43,-0.10,-0.16,0.09,0.95,
0.75,-0.55,-0.43,-0.10,-0.16,0.09,0.95,
0.75,-0.50,-0.40,-0.07,-0.16,0.09,0.95,
0.752,-0.50,-0.40,-0.07,-0.16,0.09,0.94,
0.755,-0.50,-0.40,-0.07,-0.16,0.09,0.94,
0.755,-0.44,-0.37,-0.09,-0.16,0.09,0.94,
0.757,-0.44,-0.37,-0.09,-0.16,0.09,0.94,
0.76,-0.44,-0.37,-0.09,-0.16,0.09,0.94,
0.76,-0.39,-0.34,-0.11,-0.16,0.09,0.94,
0.762,-0.39,-0.34,-0.11,-0.16,0.09,0.94,
0.764,-0.39,-0.34,-0.11,-0.16,0.09,0.93,
0.765,-0.35,-0.34,-0.14,-0.16,0.09,0.93,
0.767,-0.35,-0.34,-0.14,-0.16,0.09,0.93,
0.769,-0.35,-0.34,-0.14,-0.16,0.08,0.93,
0.77,-0.34,-0.37,-0.18,-0.16,0.08,0.93,
0.772,-0.34,-0.37,-0.18,-0.16,0.08,0.93,
0.775,-0.34,-0.37,-0.18,-0.16,0.08,0.93,
0.776,-0.34,-0.38,-0.21,-0.16,0.08,0.93,
0.779,-0.34,-0.38,-0.21,-0.16,0.08,0.93,
0.78,-0.34,-0.40,-0.25,-0.16,0.08,0.93,
0.781,-0.34,-0.40,-0.25,-0.16,0.08,0.93,
0.782,-0.34,-0.40,-0.25,-0.16,0.08,0.93,
0.784,-0.34,-0.40,-0.25,-0.16,0.08,0.93,
0.784,-0.32,-0.40,-0.25,-0.16,0.08,0.93,
0.786,-0.32,-0.40,-0.25,-0.16,0.07,0.93,
0.789,-0.32,-0.40,-0.25,-0.16,0.07,0.93,
0.789,-0.33,-0.42,-0.25,-0.16,0.07,0.93,
0.797,-0.33,-0.42,-0.25,-0.16,0.07,0.93,
0.797,-0.33,-0.42,-0.25,-0.15,0.07,0.93,
0.797,-0.30,-0.45,-0.23,-0.15,0.07,0.93,
0.797,-0.30,-0.45,-0.23,-0.15,0.07,0.93,
0.799,-0.30,-0.45,-0.23,-0.15,0.07,0.93,
0.799,-0.24,-0.46,-0.22,-0.15,0.07,0.93,
0.801,-0.24,-0.46,-0.22,-0.14,0.08,0.93,
0.804,-0.24,-0.46,-0.22,-0.14,0.08,0.94,
0.804,-0.16,-0.44,-0.18,-0.14,0.08,0.94,
0.806,-0.16,-0.44,-0.18,-0.14,0.08,0.94,
0.81,-0.16,-0.44,-0.18,-0.13,0.08,0.94,
0.81,-0.10,-0.41,-0.16,-0.13,0.08,0.94,
0.811,-0.10,-0.41,-0.16,-0.13,0.08,0.94,
0.813,-0.10,-0.41,-0.16,-0.12,0.08,0.94,
0.814,-0.02,-0.37,-0.13,-0.12,0.08,0.94,
0.815,-0.02,-0.37,-0.13,-0.11,0.08,0.95,
0.818,-0.02,-0.37,-0.13,-0.11,0.09,0.95,
0.818,0.12,-0.32,-0.09,-0.11,0.09,0.95,
0.82,0.12,-0.32,-0.09,-0.10,0.08,0.95,
0.823,0.12,-0.32,-0.09,-0.10,0.09,0.95,
0.824,0.22,-0.30,-0.04,-0.10,0.09,0.95,
0.825,0.22,-0.30,-0.04,-0.09,0.09,0.95,
0.828,0.22,-0.30,-0.04,-0.09,0.09,0.95,
0.828,0.35,-0.29,-0.03,-0.09,0.09,0.95,
0.831,0.35,-0.29,-0.03,-0.09,0.09,0.95,
0.833,0.35,-0.29,-0.03,-0.09,0.09,0.95,
0.833,0.43,-0.24,-0.01,-0.09,0.09,0.95,
0.835,0.43,-0.24,-0.01,-0.09,0.10,0.96,
0.838,0.43,-0.24,-0.01,-0.09,0.10,0.96,
0.838,0.47,-0.19,0.01,-0.09,0.10,0.96,
0.84,0.47,-0.19,0.01,-0.09,0.10,0.96,
0.843,0.47,-0.19,0.01,-0.08,0.10,0.96,
0.843,0.49,-0.17,0.05,-0.08,0.10,0.96,
0.845,0.49,-0.17,0.05,-0.08,0.09,0.95,
0.848,0.49,-0.17,0.05,-0.08,0.09,0.95,
0.848,0.52,-0.16,0.04,-0.08,0.09,0.95,
0.85,0.52,-0.16,0.04,-0.08,0.09,0.95,
0.853,0.52,-0.16,0.04,-0.08,0.09,0.95,
0.853,0.54,-0.18,0.03,-0.08,0.09,0.95,
0.855,0.54,-0.18,0.03,-0.08,0.08,0.95,
0.858,0.54,-0.18,0.03,-0.08,0.08,0.95,
0.858,0.57,-0.21,0.00,-0.08,0.08,0.95,
0.86,0.57,-0.21,0.00,-0.08,0.07,0.94,
0.862,0.57,-0.21,0.00,-0.08,0.07,0.94,
0.863,0.59,-0.27,-0.04,-0.08,0.07,0.94,
0.865,0.59,-0.27,-0.04,-0.08,0.07,0.94,
0.867,0.58,-0.33,-0.09,-0.08,0.07,0.94,
0.867,0.58,-0.33,-0.09,-0.08,0.07,0.94,
0.869,0.58,-0.33,-0.09,-0.08,0.07,0.93,
0.872,0.57,-0.35,-0.14,-0.08,0.07,0.93,
0.872,0.57,-0.35,-0.14,-0.08,0.06,0.93,
0.879,0.57,-0.35,-0.14,-0.09,0.06,0.93,
0.88,0.57,-0.35,-0.14,-0.08,0.06,0.93,
0.88,0.59,-0.39,-0.18,-0.08,0.06,0.93,
0.881,0.59,-0.39,-0.18,-0.08,0.06,0.93,
0.882,0.59,-0.39,-0.18,-0.09,0.06,0.93,
0.882,0.59,-0.42,-0.22,-0.09,0.06,0.93,
0.884,0.59,-0.42,-0.22,-0.08,0.06,0.93,
0.887,0.59,-0.42,-0.22,-0.08,0.07,0.93,
0.887,0.60,-0.39,-0.20,-0.08,0.07,0.93,
0.892,0.60,-0.39,-0.20,-0.08,0.07,0.93,
0.893,0.60,-0.39,-0.20,-0.08,0.07,0.94,
0.893,0.62,-0.35,-0.18,-0.08,0.07,0.94,
0.894,0.62,-0.35,-0.18,-0.08,0.07,0.94,
0.897,0.62,-0.35,-0.18,-0.08,0.07,0.94,
0.897,0.65,-0.30,-0.15,-0.08,0.07,0.94,
0.899,0.65,-0.30,-0.15,-0.07,0.07,0.95,
0.901,0.65,-0.30,-0.15,-0.07,0.07,0.95,
0.902,0.71,-0.26,-0.07,-0.07,0.07,0.95,
0.904,0.71,-0.26,-0.07,-0.06,0.08,0.95,
0.907,0.71,-0.26,-0.07,-0.06,0.08,0.96,
0.908,0.81,-0.20,0.00,-0.06,0.08,0.96,
0.909,0.81,-0.20,0.00,-0.06,0.08,0.96,
0.911,0.81,-0.20,0.00,-0.05,0.08,0.96,
0.912,0.91,-0.16,0.06,-0.05,0.08,0.96,
0.914,0.91,-0.16,0.06,-0.05,0.08,0.96,
0.916,0.91,-0.16,0.06,-0.04,0.09,0.97,
0.917,0.97,-0.12,0.11,-0.04,0.09,0.97,
0.918,0.97,-0.12,0.11,-0.04,0.09,0.97,
0.921,0.97,-0.12,0.11,-0.03,0.09,0.97,
0.921,1.05,-0.06,0.16,-0.03,0.09,0.97,
0.923,1.05,-0.06,0.16,-0.03,0.08,0.97,
0.926,1.05,-0.06,0.16,-0.03,0.09,0.97,
0.926,1.13,-0.04,0.21,-0.03,0.09,0.97,
0.928,1.13,-0.04,0.21,-0.02,0.08,0.98,
0.931,1.13,-0.04,0.21,-0.01,0.08,0.98,
0.931,1.20,-0.04,0.23,-0.01,0.08,0.98,
0.933,1.20,-0.04,0.23,-0.01,0.08,0.98,
0.936,1.20,-0.04,0.23,-0.00,0.08,0.98,
0.936,1.30,-0.07,0.26,-0.00,0.08,0.98,
0.938,1.30,-0.07,0.26,0.01,0.08,0.98,
0.941,1.30,-0.07,0.26,0.01,0.08,0.98,
0.942,1.39,-0.11,0.26,0.01,0.08,0.98,
0.943,1.39,-0.11,0.26,0.02,0.07,0.98,
0.945,1.39,-0.11,0.26,0.03,0.07,0.98,
0.946,1.52,-0.12,0.25,0.03,0.07,0.98,
0.948,1.52,-0.12,0.25,0.03,0.07,0.97,
0.951,1.52,-0.12,0.25,0.04,0.07,0.97,
0.951,1.63,-0.14,0.24,0.04,0.07,0.97,
0.953,1.63,-0.14,0.24,0.05,0.08,0.97,
0.957,1.63,-0.14,0.24,0.05,0.08,0.97,
0.958,1.71,-0.14,0.21,0.05,0.08,0.97,
0.958,1.71,-0.14,0.21,0.06,0.08,0.97,
0.961,1.71,-0.14,0.21,0.06,0.08,0.97,
0.961,1.79,-0.10,0.22,0.06,0.08,0.97,
0.963,1.79,-0.10,0.22,0.06,0.08,0.97,
0.965,1.79,-0.10,0.22,0.07,0.08,0.97,
0.966,1.85,-0.09,0.20,0.07,0.08,0.97,
0.968,1.85,-0.09,0.20,0.07,0.09,0.97,
0.97,1.85,-0.09,0.20,0.07,0.09,0.97,
0.97,1.88,-0.06,0.20,0.07,0.09,0.97,
0.973,1.88,-0.06,0.20,0.07,0.09,0.97,
0.975,1.88,-0.06,0.20,0.07,0.09,0.96,
0.975,1.90,-0.01,0.17,0.07,0.09,0.96,
0.977,1.90,-0.01,0.17,0.07,0.09,0.96,
0.98,1.90,-0.01,0.17,0.07,0.10,0.96,
0.98,1.90,0.02,0.12,0.07,0.10,0.96,
0.982,1.90,0.02,0.12,0.07,0.10,0.96,
0.985,1.86,0.06,0.08,0.07,0.10,0.96,
0.985,1.86,0.06,0.08,0.07,0.10,0.96,
0.987,1.86,0.06,0.08,0.07,0.10,0.95,
0.995,1.86,0.06,0.08,0.07,0.10,0.95,
0.996,1.80,0.10,0.03,0.07,0.10,0.95,
0.996,1.80,0.10,0.03,0.06,0.10,0.95,
0.997,1.80,0.10,0.03,0.06,0.10,0.94,
0.997,1.75,0.13,-0.02,0.06,0.10,0.94,
0.997,1.75,0.13,-0.02,0.06,0.09,0.94,
1.0,1.75,0.13,-0.02,0.06,0.09,0.94,
1.0,1.68,0.10,-0.10,0.06,0.09,0.94,
1.002,1.68,0.10,-0.10,0.06,0.09,0.93,
1.005,1.68,0.10,-0.10,0.05,0.08,0.93,
1.006,1.64,0.04,-0.17,0.05,0.08,0.93,
1.01,1.64,0.04,-0.17,0.05,0.08,0.93,
1.01,1.64,0.04,-0.17,0.05,0.07,0.92,
1.01,1.58,-0.04,-0.24,0.05,0.07,0.92,
1.012,1.58,-0.04,-0.24,0.05,0.07,0.92,
1.014,1.58,-0.04,-0.24,0.05,0.07,0.92,
1.014,1.53,-0.12,-0.31,0.05,0.07,0.92,
1.016,1.53,-0.12,-0.31,0.04,0.06,0.92,
1.019,1.53,-0.12,-0.31,0.04,0.06,0.92,
1.019,1.46,-0.18,-0.35,0.04,0.06,0.92,
1.021,1.46,-0.18,-0.35,0.04,0.06,0.92,
1.024,1.46,-0.18,-0.35,0.04,0.06,0.92,
1.024,1.40,-0.21,-0.37,0.04,0.06,0.92,
1.026,1.40,-0.21,-0.37,0.05,0.06,0.93,
1.029,1.40,-0.21,-0.37,0.05,0.06,0.93,
1.029,1.41,-0.21,-0.34,0.05,0.06,0.93,
1.031,1.41,-0.21,-0.34,0.06,0.06,0.94,
1.034,1.41,-0.21,-0.34,0.07,0.07,0.95,
1.034,1.44,-0.20,-0.27,0.07,0.07,0.95,
1.036,1.44,-0.20,-0.27,0.07,0.07,0.96,
1.039,1.44,-0.20,-0.27,0.08,0.07,0.97,
1.039,1.54,-0.15,-0.15,0.08,0.07,0.97,
1.041,1.54,-0.15,-0.15,0.09,0.07,0.98,
1.044,1.54,-0.15,-0.15,0.10,0.07,0.99,
1.044,1.67,-0.09,0.05,0.10,0.07,0.99,
1.046,1.67,-0.09,0.05,0.11,0.08,1.00,
1.048,1.67,-0.09,0.05,0.12,0.08,1.01,
1.048,1.81,-0.04,0.27,0.12,0.08,1.01,
1.051,1.81,-0.04,0.27,0.13,0.08,1.02,
1.053,1.81,-0.04,0.27,0.14,0.09,1.02,
1.054,1.98,0.02,0.47,0.14,0.09,1.02,
1.056,1.98,0.02,0.47,0.14,0.09,1.02,
1.058,1.98,0.02,0.47,0.15,0.10,1.03,
1.059,2.15,0.10,0.62,0.15,0.10,1.03,
1.061,2.15,0.10,0.62,0.15,0.11,1.03,
1.063,2.15,0.10,0.62,0.16,0.11,1.03,
1.063,2.27,0.22,0.66,0.16,0.11,1.03,
1.066,2.27,0.22,0.66,0.16,0.12,1.03,
1.068,2.27,0.22,0.66,0.17,0.12,1.03,
1.068,2.34,0.36,0.67,0.17,0.12,1.03,
1.07,2.34,0.36,0.67,0.18,0.13,1.03,
1.073,2.34,0.36,0.67,0.19,0.13,1.03,
1.074,2.42,0.46,0.68,0.19,0.13,1.03,
1.075,2.42,0.46,0.68,0.20,0.13,1.03,
1.078,2.54,0.55,0.70,0.20,0.13,1.03,
1.078,2.54,0.55,0.70,0.21,0.14,1.03,
1.08,2.54,0.55,0.70,0.22,0.14,1.02,
1.083,2.54,0.55,0.70,0.22,0.14,1.02,
1.083,2.69,0.63,0.68,0.22,0.14,1.02,
1.085,2.69,0.63,0.68,0.23,0.14,1.01,
1.088,2.69,0.63,0.68,0.24,0.15,1.01,
1.088,2.83,0.68,0.59,0.24,0.15,1.01,
1.096,2.83,0.68,0.59,0.24,0.15,1.00,
1.096,2.83,0.68,0.59,0.25,0.16,1.00,
1.097,2.93,0.72,0.48,0.25,0.16,1.00,
1.097,2.93,0.72,0.48,0.26,0.16,0.99,
1.097,3.05,0.81,0.38,0.26,0.16,0.99,
1.098,3.05,0.81,0.38,0.26,0.17,0.98,
1.1,3.05,0.81,0.38,0.26,0.17,0.98,
1.103,3.05,0.81,0.38,0.27,0.17,0.98,
1.108,3.14,0.88,0.27,0.27,0.17,0.98,
1.109,3.14,0.88,0.27,0.27,0.17,0.97,
1.109,3.19,0.95,0.17,0.27,0.17,0.97,
1.109,3.19,0.95,0.17,0.28,0.17,0.97,
1.109,3.19,0.95,0.17,0.28,0.17,0.97,
1.114,3.19,0.95,0.17,0.29,0.17,0.97,
1.114,3.25,0.97,0.11,0.29,0.17,0.97,
1.115,3.25,0.97,0.11,0.29,0.17,0.97,
1.117,3.30,0.96,0.10,0.29,0.17,0.97,
1.118,3.30,0.96,0.10,0.29,0.17,0.97,
1.119,3.30,0.96,0.10,0.30,0.17,0.98,
1.122,3.30,0.96,0.10,0.30,0.17,0.98,
1.122,3.34,0.94,0.10,0.30,0.17,0.98,
1.124,3.34,0.94,0.10,0.30,0.16,0.99,
1.127,3.34,0.94,0.10,0.30,0.16,0.99,
1.127,3.36,0.92,0.18,0.30,0.16,0.99,
1.129,3.36,0.92,0.18,0.30,0.16,0.99,
1.131,3.36,0.92,0.18,0.29,0.16,1.00,
1.132,3.34,0.90,0.27,0.29,0.16,1.00,
1.134,3.34,0.90,0.27,0.29,0.16,1.00,
1.136,3.34,0.90,0.27,0.28,0.16,1.00,
1.137,3.28,0.88,0.33,0.28,0.16,1.00,
1.139,3.28,0.88,0.33,0.28,0.16,1.01,
1.141,3.28,0.88,0.33,0.27,0.16,1.01,
1.141,3.18,0.85,0.40,0.27,0.16,1.01,
1.143,3.18,0.85,0.40,0.26,0.16,1.01,
1.146,3.18,0.85,0.40,0.24,0.16,1.01,
1.146,3.05,0.85,0.45,0.24,0.16,1.01,
1.148,3.05,0.85,0.45,0.23,0.16,1.01,
1.151,3.05,0.85,0.45,0.22,0.16,1.02,
1.151,2.80,0.90,0.48,0.22,0.16,1.02,
1.153,2.80,0.90,0.48,0.21,0.16,1.02,
1.156,2.80,0.90,0.48,0.20,0.16,1.02,
1.157,2.56,0.92,0.52,0.20,0.16,1.02,
1.158,2.56,0.92,0.52,0.19,0.16,1.02,
1.161,2.56,0.92,0.52,0.18,0.16,1.01,
1.161,2.32,0.93,0.54,0.18,0.16,1.01,
1.163,2.32,0.93,0.54,0.17,0.16,1.01,
1.166,2.32,0.93,0.54,0.17,0.16,1.01,
1.166,2.11,0.89,0.52,0.17,0.16,1.01,
1.168,2.11,0.89,0.52,0.16,0.15,1.01,
1.171,2.11,0.89,0.52,0.16,0.15,1.01,
1.171,1.97,0.87,0.48,0.16,0.15,1.01,
1.178,1.97,0.87,0.48,0.16,0.14,1.01,
1.179,1.97,0.87,0.48,0.15,0.14,1.01,
1.179,1.88,0.81,0.46,0.15,0.14,1.01,
1.18,1.88,0.81,0.46,0.15,0.14,1.00,
1.181,1.88,0.81,0.46,0.15,0.14,1.00,
1.181,1.79,0.74,0.43,0.15,0.14,1.00,
1.183,1.79,0.74,0.43,0.14,0.13,1.00,
1.185,1.79,0.74,0.43,0.14,0.13,1.00,
1.186,1.71,0.69,0.39,0.14,0.13,1.00,
1.188,1.71,0.69,0.39,0.14,0.13,1.00,
1.191,1.71,0.69,0.39,0.14,0.12,1.00,
1.191,1.64,0.66,0.36,0.14,0.12,1.00,
1.193,1.64,0.66,0.36,0.15,0.12,1.00,
1.195,1.64,0.66,0.36,0.15,0.12,1.00,
1.196,1.62,0.60,0.35,0.15,0.12,1.00,
1.197,1.62,0.60,0.35,0.15,0.12,1.00,
1.2,1.62,0.60,0.35,0.16,0.11,1.00,
1.2,1.63,0.55,0.36,0.16,0.11,1.00,
1.202,1.63,0.55,0.36,0.16,0.11,1.01,
1.206,1.70,0.51,0.39,0.16,0.11,1.01,
1.206,1.70,0.51,0.39,0.17,0.11,1.01,
1.208,1.70,0.51,0.39,0.18,0.11,1.01,
1.21,1.70,0.51,0.39,0.18,0.11,1.01,
1.21,1.77,0.47,0.42,0.18,0.11,1.01,
1.212,1.77,0.47,0.42,0.19,0.11,1.02,
1.215,1.77,0.47,0.42,0.19,0.12,1.02,
1.215,1.86,0.49,0.46,0.19,0.12,1.02,
1.217,1.86,0.49,0.46,0.20,0.11,1.02,
1.22,1.86,0.49,0.46,0.21,0.11,1.03,
1.22,1.94,0.51,0.53,0.21,0.11,1.03,
1.223,1.94,0.51,0.53,0.21,0.12,1.03,
1.225,1.94,0.51,0.53,0.22,0.12,1.03,
1.226,2.02,0.50,0.60,0.22,0.12,1.03,
1.227,2.02,0.50,0.60,0.22,0.12,1.04,
1.23,2.02,0.50,0.60,0.22,0.12,1.04,
1.23,2.09,0.52,0.67,0.22,0.12,1.04,
1.232,2.09,0.52,0.67,0.22,0.13,1.04,
1.234,2.09,0.52,0.67,0.22,0.13,1.05,
1.235,2.10,0.59,0.75,0.22,0.13,1.05,
1.237,2.10,0.59,0.75,0.22,0.13,1.05,
1.239,2.10,0.59,0.75,0.22,0.14,1.05,
1.24,2.09,0.67,0.80,0.22,0.14,1.05,
1.242,2.09,0.67,0.80,0.22,0.14,1.05,
1.244,2.09,0.67,0.80,0.22,0.14,1.05,
1.245,2.06,0.70,0.85,0.22,0.14,1.05,
1.246,2.06,0.70,0.85,0.22,0.14,1.05,
1.249,2.06,0.70,0.85,0.22,0.14,1.05,
1.249,2.03,0.73,0.85,0.22,0.14,1.05,
1.251,2.03,0.73,0.85,0.22,0.14,1.05,
1.254,2.03,0.73,0.85,0.22,0.13,1.04,
1.254,1.99,0.71,0.83,0.22,0.13,1.04,
1.256,1.99,0.71,0.83,0.21,0.13,1.04,
1.259,1.99,0.71,0.83,0.20,0.13,1.04,
1.259,1.92,0.69,0.79,0.20,0.13,1.04,
1.261,1.92,0.69,0.79,0.20,0.13,1.03,
1.264,1.92,0.69,0.79,0.20,0.13,1.02,
1.264,1.80,0.68,0.72,0.20,0.13,1.02,
1.266,1.80,0.68,0.72,0.19,0.13,1.02,
1.269,1.80,0.68,0.72,0.19,0.12,1.01,
1.269,1.71,0.62,0.60,0.19,0.12,1.01,
1.271,1.71,0.62,0.60,0.18,0.12,1.00,
1.278,1.71,0.62,0.60,0.17,0.12,1.00,
1.278,1.58,0.59,0.48,0.17,0.12,1.00,
1.279,1.58,0.59,0.48,0.17,0.12,0.99,
1.279,1.58,0.59,0.48,0.16,0.11,0.98,
1.279,1.43,0.55,0.35,0.16,0.11,0.98,
1.281,1.43,0.55,0.35,0.16,0.11,0.98,
1.283,1.43,0.55,0.35,0.15,0.11,0.97,
1.284,1.30,0.50,0.22,0.15,0.11,0.97,
1.285,1.30,0.50,0.22,0.15,0.11,0.97,
1.291,1.30,0.50,0.22,0.14,0.11,0.96,
1.291,1.18,0.42,0.10,0.14,0.11,0.96,
1.291,1.18,0.42,0.10,0.14,0.11,0.96,
1.293,1.08,0.40,0.02,0.14,0.11,0.96,
1.293,1.08,0.40,0.02,0.13,0.11,0.96,
1.295,1.08,0.40,0.02,0.12,0.11,0.96,
1.298,1.08,0.40,0.02,0.12,0.10,0.96,
1.298,0.97,0.41,-0.05,0.12,0.10,0.96,
1.3,0.97,0.41,-0.05,0.12,0.11,0.96,
1.303,0.97,0.41,-0.05,0.11,0.11,0.95,
1.303,0.84,0.41,-0.08,0.11,0.11,0.95,
1.305,0.84,0.41,-0.08,0.11,0.11,0.95,
1.308,0.84,0.41,-0.08,0.11,0.11,0.96,
1.308,0.76,0.42,-0.10,0.11,0.11,0.96,
1.31,0.76,0.42,-0.10,0.11,0.10,0.95,
1.313,0.76,0.42,-0.10,0.11,0.10,0.95,
1.313,0.69,0.42,-0.09,0.11,0.10,0.95,
1.315,0.69,0.42,-0.09,0.11,0.10,0.96,
1.318,0.69,0.42,-0.09,0.11,0.10,0.96,
1.318,0.65,0.38,-0.10,0.11,0.10,0.96,
1.32,0.65,0.38,-0.10,0.10,0.10,0.96,
1.322,0.65,0.38,-0.10,0.10,0.10,0.96,
1.323,0.66,0.34,-0.07,0.10,0.10,0.96,
1.325,0.66,0.34,-0.07,0.10,0.10,0.96,
1.328,0.66,0.34,-0.07,0.10,0.10,0.96,
1.328,0.62,0.35,-0.05,0.10,0.10,0.96,
1.33,0.62,0.35,-0.05,0.10,0.10,0.96,
1.332,0.62,0.35,-0.05,0.10,0.10,0.97,
1.332,0.59,0.38,-0.02,0.10,0.10,0.97,
1.334,0.59,0.38,-0.02,0.09,0.10,0.97,
1.337,0.59,0.38,-0.02,0.09,0.10,0.97,
1.337,0.51,0.37,0.02,0.09,0.10,0.97,
1.339,0.51,0.37,0.02,0.09,0.09,0.98,
1.342,0.51,0.37,0.02,0.08,0.09,0.98,
1.342,0.42,0.39,0.09,0.08,0.09,0.98,
1.344,0.42,0.39,0.09,0.08,0.08,0.99,
1.347,0.42,0.39,0.09,0.08,0.08,0.99,
1.347,0.37,0.35,0.16,0.08,0.08,0.99,
1.349,0.37,0.35,0.16,0.08,0.08,0.99,
1.352,0.37,0.35,0.16,0.07,0.08,0.99,
1.352,0.32,0.27,0.23,0.07,0.08,0.99,
1.355,0.32,0.27,0.23,0.06,0.08,1.00,
1.357,0.32,0.27,0.23,0.06,0.08,1.00,
1.357,0.22,0.23,0.26,0.06,0.08,1.00,
1.359,0.22,0.23,0.26,0.05,0.07,1.00,
1.362,0.22,0.23,0.26,0.04,0.07,1.00,
1.362,0.07,0.21,0.31,0.04,0.07,1.00,
1.364,0.07,0.21,0.31,0.03,0.06,1.00,
1.367,0.07,0.21,0.31,0.03,0.06,1.00,
1.367,-0.10,0.14,0.34,0.03,0.06,1.00,
1.369,-0.10,0.14,0.34,0.02,0.05,1.00,
1.373,-0.10,0.14,0.34,0.02,0.04,1.00,
1.373,-0.26,0.07,0.36,0.02,0.04,1.00,
1.374,-0.26,0.07,0.36,0.01,0.04,1.00,
1.377,-0.26,0.07,0.36,0.01,0.03,1.00,
1.377,-0.37,-0.06,0.37,0.01,0.03,1.00,
1.379,-0.37,-0.06,0.37,-0.00,0.02,1.00,
1.381,-0.37,-0.06,0.37,-0.01,0.01,1.00,
1.382,-0.49,-0.20,0.35,-0.01,0.01,1.00,
1.384,-0.49,-0.20,0.35,-0.02,0.01,1.00,
1.386,-0.49,-0.20,0.35,-0.03,0.00,1.01,
1.387,-0.64,-0.35,0.37,-0.03,0.00,1.01,
1.394,-0.64,-0.35,0.37,-0.04,-0.00,1.01,
1.395,-0.64,-0.35,0.37,-0.05,-0.00,1.01,
1.395,-0.85,-0.44,0.40,-0.05,-0.00,1.01,
1.395,-0.85,-0.44,0.40,-0.05,-0.01,1.01,
1.396,-0.85,-0.44,0.40,-0.06,-0.01,1.01,
1.397,-1.07,-0.53,0.45,-0.06,-0.01,1.01,
1.398,-1.07,-0.53,0.45,-0.07,-0.01,1.01,
1.401,-1.07,-0.53,0.45,-0.07,-0.02,1.01,
1.401,-1.21,-0.60,0.49,-0.07,-0.02,1.01,
1.403,-1.21,-0.60,0.49,-0.08,-0.02,1.02,
1.406,-1.21,-0.60,0.49,-0.08,-0.02,1.02,
1.406,-1.36,-0.66,0.50,-0.08,-0.02,1.02,
1.408,-1.36,-0.66,0.50,-0.09,-0.02,1.02,
1.411,-1.36,-0.66,0.50,-0.09,-0.02,1.02,
1.411,-1.49,-0.69,0.51,-0.09,-0.02,1.02,
1.413,-1.49,-0.69,0.51,-0.09,-0.02,1.02,
1.416,-1.49,-0.69,0.51,-0.09,-0.02,1.01,
1.416,-1.58,-0.70,0.51,-0.09,-0.02,1.01,
1.418,-1.58,-0.70,0.51,-0.09,-0.02,1.01,
1.42,-1.58,-0.70,0.51,-0.09,-0.02,1.01,
1.42,-1.63,-0.70,0.50,-0.09,-0.02,1.01,
1.423,-1.63,-0.70,0.50,-0.09,-0.02,1.01,
1.426,-1.63,-0.70,0.50,-0.09,-0.02,1.01,
1.427,-1.65,-0.66,0.47,-0.09,-0.02,1.01,
1.428,-1.65,-0.66,0.47,-0.08,-0.01,1.00,
1.431,-1.65,-0.66,0.47,-0.08,-0.01,1.00,
1.431,-1.64,-0.63,0.43,-0.08,-0.01,1.00,
1.433,-1.64,-0.63,0.43,-0.08,-0.01,1.00,
1.435,-1.64,-0.63,0.43,-0.07,-0.01,0.99,
1.435,-1.58,-0.61,0.38,-0.07,-0.01,0.99,
1.438,-1.58,-0.61,0.38,-0.06,-0.01,0.99,
1.441,-1.51,-0.59,0.32,-0.06,-0.01,0.99,
1.441,-1.51,-0.59,0.32,-0.06,-0.01,0.99,
1.443,-1.51,-0.59,0.32,-0.06,-0.01,0.99,
1.445,-1.51,-0.59,0.32,-0.05,-0.01,0.99,
1.445,-1.42,-0.59,0.27,-0.05,-0.01,0.99,
1.448,-1.42,-0.59,0.27,-0.05,-0.00,0.99,
1.45,-1.42,-0.59,0.27,-0.05,-0.00,0.99,
1.45,-1.36,-0.54,0.23,-0.05,-0.00,0.99,
1.452,-1.36,-0.54,0.23,-0.05,0.00,0.99,
1.456,-1.36,-0.54,0.23,-0.05,0.00,0.99,
1.456,-1.35,-0.48,0.24,-0.05,0.00,0.99,
1.457,-1.35,-0.48,0.24,-0.05,0.00,0.99,
1.46,-1.35,-0.48,0.24,-0.05,0.00,0.99,
1.46,-1.36,-0.44,0.26,-0.05,0.00,0.99,
1.462,-1.36,-0.44,0.26,-0.05,-0.00,0.99,
1.465,-1.33,-0.43,0.25,-0.05,-0.00,0.99,
1.465,-1.33,-0.43,0.25,-0.05,-0.00,0.99,
1.467,-1.33,-0.43,0.25,-0.05,-0.00,0.99,
1.469,-1.33,-0.43,0.25,-0.05,-0.01,0.99,
1.47,-1.37,-0.44,0.28,-0.05,-0.01,0.99,
1.472,-1.37,-0.44,0.28,-0.06,-0.01,0.99,
1.474,-1.37,-0.44,0.28,-0.06,-0.02,1.00,
1.475,-1.42,-0.50,0.28,-0.06,-0.02,1.00,
1.477,-1.42,-0.50,0.28,-0.07,-0.02,1.00,
1.479,-1.42,-0.50,0.28,-0.07,-0.03,1.00,
1.479,-1.48,-0.58,0.31,-0.07,-0.03,1.00,
1.482,-1.48,-0.58,0.31,-0.08,-0.03,1.00,
1.484,-1.48,-0.58,0.31,-0.08,-0.04,1.00,
1.484,-1.59,-0.66,0.35,-0.08,-0.04,1.00,
1.486,-1.59,-0.66,0.35,-0.09,-0.04,1.00,
1.493,-1.59,-0.66,0.35,-0.10,-0.05,1.00,
1.494,-1.71,-0.76,0.37,-0.10,-0.05,1.00,
1.494,-1.71,-0.76,0.37,-0.10,-0.06,1.00,
1.495,-1.71,-0.76,0.37,-0.12,-0.06,1.00,
1.495,-1.84,-0.85,0.35,-0.12,-0.06,1.00,
1.496,-1.84,-0.85,0.35,-0.12,-0.07,1.00,
1.499,-1.84,-0.85,0.35,-0.13,-0.08,1.00,
1.499,-2.00,-0.96,0.36,-0.13,-0.08,1.00,
1.501,-2.00,-0.96,0.36,-0.14,-0.08,1.00,
1.504,-2.00,-0.96,0.36,-0.15,-0.08,1.00,
1.504,-2.19,-1.08,0.37,-0.15,-0.08,1.00,
1.507,-2.19,-1.08,0.37,-0.17,-0.09,1.00,
1.508,-2.19,-1.08,0.37,-0.18,-0.09,1.00,
1.509,-2.37,-1.18,0.35,-0.18,-0.09,1.00,
1.511,-2.37,-1.18,0.35,-0.19,-0.09,0.99,
1.513,-2.37,-1.18,0.35,-0.21,-0.09,0.99,
1.513,-2.60,-1.24,0.33,-0.21,-0.09,0.99,
1.516,-2.60,-1.24,0.33,-0.22,-0.09,0.99,
1.518,-2.60,-1.24,0.33,-0.23,-0.10,0.99,
1.518,-2.87,-1.24,0.30,-0.23,-0.10,0.99,
1.521,-2.87,-1.24,0.30,-0.25,-0.10,0.99,
1.523,-2.87,-1.24,0.30,-0.26,-0.10,0.99,
1.524,-3.15,-1.26,0.29,-0.26,-0.10,0.99,
1.525,-3.15,-1.26,0.29,-0.26,-0.10,0.99,
1.528,-3.15,-1.26,0.29,-0.27,-0.10,0.98,
1.528,-3.36,-1.29,0.27,-0.27,-0.10,0.98,
1.53,-3.36,-1.29,0.27,-0.28,-0.10,0.98,
1.533,-3.36,-1.29,0.27,-0.28,-0.09,0.98,
1.533,-3.52,-1.26,0.22,-0.28,-0.09,0.98,
1.535,-3.52,-1.26,0.22,-0.27,-0.09,0.98,
1.538,-3.52,-1.26,0.22,-0.27,-0.09,0.98,
1.539,-3.61,-1.22,0.16,-0.27,-0.09,0.98,
1.541,-3.61,-1.22,0.16,-0.27,-0.08,0.98,
1.543,-3.61,-1.22,0.16,-0.26,-0.08,0.98,
1.544,-3.58,-1.13,0.14,-0.26,-0.08,0.98,
1.545,-3.58,-1.13,0.14,-0.25,-0.07,0.98,
1.548,-3.58,-1.13,0.14,-0.24,-0.07,0.98,
1.548,-3.48,-1.06,0.14,-0.24,-0.07,0.98,
1.55,-3.48,-1.06,0.14,-0.23,-0.07,0.98,
1.553,-3.48,-1.06,0.14,-0.22,-0.06,0.98,
1.553,-3.33,-0.97,0.14,-0.22,-0.06,0.98,
1.555,-3.33,-0.97,0.14,-0.21,-0.05,0.99,
1.558,-3.33,-0.97,0.14,-0.20,-0.05,0.99,
1.558,-3.12,-0.86,0.18,-0.20,-0.05,0.99,
1.56,-3.12,-0.86,0.18,-0.19,-0.04,0.99,
1.562,-3.12,-0.86,0.18,-0.19,-0.03,1.00,
1.563,-2.92,-0.73,0.23,-0.19,-0.03,1.00,
1.565,-2.92,-0.73,0.23,-0.18,-0.03,1.00,
1.567,-2.92,-0.73,0.23,-0.18,-0.02,1.00,
1.568,-2.76,-0.58,0.29,-0.18,-0.02,1.00,
1.57,-2.76,-0.58,0.29,-0.18,-0.01,1.00,
1.572,-2.76,-0.58,0.29,-0.18,-0.01,1.00,
1.573,-2.69,-0.45,0.32,-0.18,-0.01,1.00,
1.575,-2.69,-0.45,0.32,-0.18,-0.00,0.99,
1.577,-2.69,-0.45,0.32,-0.19,0.00,0.99,
1.577,-2.68,-0.31,0.33,-0.19,0.00,0.99,
1.579,-2.68,-0.31,0.33,-0.20,0.00,0.99,
1.582,-2.68,-0.31,0.33,-0.20,0.01,0.98,
1.582,-2.75,-0.20,0.30,-0.20,0.01,0.98,
1.584,-2.75,-0.20,0.30,-0.21,0.01,0.98,
1.587,-2.75,-0.20,0.30,-0.21,0.01,0.97,
1.588,-2.87,-0.14,0.24,-0.21,0.01,0.97,
1.601,-2.87,-0.14,0.24,-0.22,0.01,0.97,
1.602,-2.87,-0.14,0.24,-0.23,0.01,0.96,
1.604,-2.97,-0.11,0.14,-0.23,0.01,0.96,
1.604,-2.97,-0.11,0.14,-0.24,0.01,0.96,
1.604,-2.97,-0.11,0.14,-0.25,0.01,0.96,
1.604,-3.12,-0.09,0.03,-0.25,0.01,0.96,
1.604,-3.12,-0.09,0.03,-0.26,0.01,0.96,
1.605,-3.12,-0.09,0.03,-0.26,0.01,0.95,
1.605,-3.32,-0.11,-0.03,-0.26,0.01,0.95,
1.605,-3.32,-0.11,-0.03,-0.27,0.00,0.95,
1.613,-3.50,-0.12,-0.07,-0.27,0.00,0.95,
1.613,-3.50,-0.12,-0.07,-0.28,-0.00,0.95,
1.613,-3.50,-0.12,-0.07,-0.28,-0.00,0.95,
1.613,-3.50,-0.12,-0.07,-0.28,-0.00,0.95,
1.613,-3.64,-0.15,-0.09,-0.28,-0.00,0.95,
1.614,-3.64,-0.15,-0.09,-0.29,-0.01,0.96,
1.616,-3.64,-0.15,-0.09,-0.29,-0.01,0.96,
1.616,-3.73,-0.19,-0.10,-0.29,-0.01,0.96,
1.619,-3.73,-0.19,-0.10,-0.29,-0.01,0.96,
1.621,-3.73,-0.19,-0.10,-0.29,-0.01,0.97,
1.622,-3.76,-0.22,-0.05,-0.29,-0.01,0.97,
1.624,-3.76,-0.22,-0.05,-0.29,-0.01,0.97,
1.626,-3.76,-0.22,-0.05,-0.29,-0.01,0.98,
1.627,-3.80,-0.23,0.03,-0.29,-0.01,0.98,
1.629,-3.80,-0.23,0.03,-0.29,-0.01,0.99,
1.631,-3.80,-0.23,0.03,-0.29,-0.01,1.00,
1.631,-3.80,-0.23,0.15,-0.29,-0.01,1.00,
1.633,-3.80,-0.23,0.15,-0.28,-0.01,1.00,
1.636,-3.80,-0.23,0.15,-0.28,-0.00,1.01,
1.636,-3.77,-0.16,0.29,-0.28,-0.00,1.01,
1.638,-3.77,-0.16,0.29,-0.27,0.00,1.02,
1.641,-3.77,-0.16,0.29,-0.27,0.00,1.03,
1.641,-3.70,-0.10,0.45,-0.27,0.00,1.03,
1.643,-3.70,-0.10,0.45,-0.26,0.01,1.04,
1.646,-3.70,-0.10,0.45,-0.26,0.01,1.05,
1.646,-3.59,-0.01,0.62,-0.26,0.01,1.05,
1.648,-3.59,-0.01,0.62,-0.26,0.02,1.05,
1.651,-3.59,-0.01,0.62,-0.26,0.03,1.06,
1.651,-3.51,0.08,0.79,-0.26,0.03,1.06,
1.653,-3.51,0.08,0.79,-0.26,0.03,1.07,
1.656,-3.51,0.08,0.79,-0.25,0.04,1.07,
1.656,-3.46,0.23,0.93,-0.25,0.04,1.07,
1.658,-3.46,0.23,0.93,-0.25,0.04,1.08,
1.661,-3.46,0.23,0.93,-0.25,0.04,1.08,
1.661,-3.41,0.36,1.06,-0.25,0.04,1.08,
1.663,-3.41,0.36,1.06,-0.24,0.05,1.08,
1.665,-3.41,0.36,1.06,-0.24,0.05,1.08,
1.666,-3.33,0.47,1.14,-0.24,0.05,1.08,
1.668,-3.33,0.47,1.14,-0.23,0.05,1.08,
1.677,-3.33,0.47,1.14,-0.23,0.05,1.08,
1.678,-3.23,0.53,1.17,-0.23,0.05,1.08,
1.678,-3.23,0.53,1.17,-0.23,0.05,1.08,
1.678,-3.23,0.53,1.17,-0.23,0.05,1.08,
1.678,-3.14,0.56,1.16,-0.23,0.05,1.08,
1.679,-3.14,0.56,1.16,-0.23,0.06,1.07,
1.68,-3.14,0.56,1.16,-0.22,0.06,1.07,
1.68,-3.08,0.61,1.12,-0.22,0.06,1.07,
1.682,-3.08,0.61,1.12,-0.22,0.06,1.06,
1.685,-3.08,0.61,1.12,-0.23,0.06,1.06,
1.685,-3.03,0.67,1.04,-0.23,0.06,1.06,
1.69,-3.03,0.67,1.04,-0.22,0.05,1.05,
1.69,-3.03,0.67,1.04,-0.22,0.05,1.04,
1.69,-3.02,0.70,0.94,-0.22,0.05,1.04,
1.692,-3.02,0.70,0.94,-0.22,0.05,1.04,
1.695,-3.02,0.70,0.94,-0.22,0.04,1.03,
1.695,-2.99,0.65,0.81,-0.22,0.04,1.03,
1.697,-2.99,0.65,0.81,-0.22,0.04,1.03,
1.7,-2.99,0.65,0.81,-0.22,0.03,1.02,
1.7,-2.96,0.59,0.69,-0.22,0.03,1.02,
1.702,-2.96,0.59,0.69,-0.22,0.03,1.02,
1.705,-2.96,0.59,0.69,-0.22,0.03,1.02,
1.706,-2.94,0.51,0.57,-0.22,0.03,1.02,
1.707,-2.94,0.51,0.57,-0.23,0.03,1.02,
1.71,-2.94,0.51,0.57,-0.23,0.02,1.02,
1.71,-2.91,0.49,0.51,-0.23,0.02,1.02,
1.712,-2.91,0.49,0.51,-0.23,0.02,1.02,
1.714,-2.91,0.49,0.51,-0.24,0.02,1.02,
1.714,-2.93,0.45,0.49,-0.24,0.02,1.02,
1.716,-2.93,0.45,0.49,-0.24,0.02,1.02,
1.719,-2.93,0.45,0.49,-0.24,0.02,1.03,
1.719,-2.97,0.44,0.49,-0.24,0.02,1.03,
1.722,-2.97,0.44,0.49,-0.24,0.02,1.03,
1.724,-2.97,0.44,0.49,-0.24,0.02,1.04,
1.724,-2.99,0.46,0.56,-0.24,0.02,1.04,
1.726,-2.99,0.46,0.56,-0.24,0.02,1.05,
1.729,-2.99,0.46,0.56,-0.24,0.03,1.05,
1.729,-3.00,0.50,0.67,-0.24,0.03,1.05,
1.731,-3.00,0.50,0.67,-0.24,0.03,1.06,
1.734,-3.00,0.50,0.67,-0.23,0.03,1.07,
1.734,-2.97,0.54,0.81,-0.23,0.03,1.07,
1.736,-2.97,0.54,0.81,-0.23,0.03,1.07,
1.739,-2.97,0.54,0.81,-0.22,0.03,1.08,
1.74,-2.90,0.61,0.95,-0.22,0.03,1.08,
1.741,-2.90,0.61,0.95,-0.21,0.03,1.09,
1.744,-2.90,0.61,0.95,-0.20,0.03,1.09,
1.744,-2.76,0.64,1.08,-0.20,0.03,1.09,
1.746,-2.76,0.64,1.08,-0.19,0.03,1.10,
1.749,-2.76,0.64,1.08,-0.18,0.04,1.10,
1.749,-2.56,0.67,1.20,-0.18,0.04,1.10,
1.751,-2.56,0.67,1.20,-0.17,0.04,1.11,
1.755,-2.56,0.67,1.20,-0.16,0.05,1.11,
1.755,-2.34,0.74,1.31,-0.16,0.05,1.11,
1.758,-2.34,0.74,1.31,-0.15,0.05,1.11,
1.759,-2.34,0.74,1.31,-0.14,0.06,1.11,
1.759,-2.12,0.84,1.38,-0.14,0.06,1.11,
1.761,-2.12,0.84,1.38,-0.13,0.06,1.11,
1.763,-2.12,0.84,1.38,-0.12,0.07,1.11,
1.764,-1.90,0.96,1.43,-0.12,0.07,1.11,
1.765,-1.90,0.96,1.43,-0.11,0.08,1.11,
1.768,-1.90,0.96,1.43,-0.09,0.08,1.11,
1.768,-1.66,1.08,1.42,-0.09,0.08,1.11,
1.771,-1.66,1.08,1.42,-0.08,0.09,1.10,
1.773,-1.66,1.08,1.42,-0.06,0.09,1.10,
1.774,-1.42,1.20,1.37,-0.06,0.09,1.10,
1.776,-1.42,1.20,1.37,-0.05,0.10,1.09,
1.778,-1.42,1.20,1.37,-0.03,0.10,1.09,
1.778,-1.12,1.32,1.29,-0.03,0.10,1.09,
1.78,-1.12,1.32,1.29,-0.02,0.11,1.08,
1.783,-1.12,1.32,1.29,-0.00,0.11,1.08,
1.783,-0.80,1.43,1.19,-0.00,0.11,1.08,
1.785,-0.80,1.43,1.19,0.01,0.12,1.07,
1.795,-0.80,1.43,1.19,0.03,0.12,1.06,
1.796,-0.50,1.52,1.07,0.03,0.12,1.06,
1.796,-0.50,1.52,1.07,0.05,0.12,1.05,
1.796,-0.50,1.52,1.07,0.06,0.12,1.05,
1.796,-0.16,1.58,0.94,0.06,0.12,1.05,
1.797,-0.16,1.58,0.94,0.07,0.12,1.04,
1.798,-0.16,1.58,0.94,0.09,0.12,1.04,
1.798,0.16,1.60,0.80,0.09,0.12,1.04,
1.8,0.16,1.60,0.80,0.10,0.12,1.03,
1.802,0.16,1.60,0.80,0.11,0.12,1.03,
1.803,0.43,1.61,0.68,0.11,0.12,1.03,
1.81,0.43,1.61,0.68,0.12,0.12,1.03,
1.811,0.69,1.59,0.59,0.12,0.12,1.03,
1.811,0.69,1.59,0.59,0.13,0.12,1.02,
1.811,0.69,1.59,0.59,0.14,0.12,1.02,
1.812,0.69,1.59,0.59,0.14,0.12,1.02,
1.812,0.91,1.59,0.55,0.14,0.12,1.02,
1.814,0.91,1.59,0.55,0.15,0.12,1.02,
1.817,0.91,1.59,0.55,0.15,0.12,1.02,
1.817,1.05,1.62,0.49,0.15,0.12,1.02,
1.819,1.05,1.62,0.49,0.15,0.12,1.02,
1.822,1.05,1.62,0.49,0.16,0.12,1.02,
1.823,1.18,1.60,0.48,0.16,0.12,1.02,
1.825,1.18,1.60,0.48,0.16,0.12,1.02,
1.827,1.18,1.60,0.48,0.16,0.13,1.02,
1.827,1.22,1.63,0.49,0.16,0.13,1.02,
1.829,1.22,1.63,0.49,0.15,0.13,1.03,
1.832,1.22,1.63,0.49,0.15,0.13,1.03,
1.832,1.25,1.67,0.52,0.15,0.13,1.03,
1.834,1.25,1.67,0.52,0.15,0.13,1.04,
1.837,1.25,1.67,0.52,0.15,0.14,1.05,
1.838,1.24,1.70,0.60,0.15,0.14,1.05,
1.839,1.24,1.70,0.60,0.15,0.14,1.05,
1.842,1.24,1.70,0.60,0.15,0.14,1.06,
1.842,1.24,1.79,0.72,0.15,0.14,1.06,
1.844,1.24,1.79,0.72,0.15,0.14,1.06,
1.847,1.24,1.79,0.72,0.14,0.14,1.07,
1.847,1.26,1.84,0.82,0.14,0.14,1.07,
1.849,1.26,1.84,0.82,0.14,0.14,1.08,
1.851,1.26,1.84,0.82,0.14,0.14,1.09,
1.852,1.22,1.87,0.97,0.14,0.14,1.09,
1.854,1.22,1.87,0.97,0.14,0.14,1.09,
1.856,1.22,1.87,0.97,0.14,0.14,1.10,
1.857,1.19,1.89,1.10,0.14,0.14,1.10,
1.859,1.19,1.89,1.10,0.15,0.14,1.11,
1.861,1.19,1.89,1.10,0.15,0.14,1.11,
1.862,1.23,1.85,1.26,0.15,0.14,1.11,
1.864,1.23,1.85,1.26,0.15,0.13,1.11,
1.866,1.23,1.85,1.26,0.15,0.13,1.11,
1.867,1.28,1.83,1.35,0.15,0.13,1.11,
1.869,1.28,1.83,1.35,0.16,0.13,1.11,
1.871,1.28,1.83,1.35,0.16,0.12,1.11,
1.872,1.36,1.79,1.39,0.16,0.12,1.11,
1.873,1.36,1.79,1.39,0.16,0.12,1.11,
1.876,1.36,1.79,1.39,0.16,0.12,1.11,
1.877,1.47,1.71,1.40,0.16,0.12,1.11,
1.878,1.47,1.71,1.40,0.16,0.11,1.10,
1.881,1.47,1.71,1.40,0.16,0.11,1.09,
1.881,1.50,1.64,1.35,0.16,0.11,1.09,
1.883,1.50,1.64,1.35,0.16,0.11,1.09,
1.886,1.50,1.64,1.35,0.17,0.10,1.09,
1.886,1.52,1.58,1.24,0.17,0.10,1.09,
1.893,1.52,1.58,1.24,0.17,0.10,1.08,
1.894,1.52,1.58,1.24,0.18,0.09,1.08,
1.894,1.57,1.50,1.14,0.18,0.09,1.08,
1.895,1.57,1.50,1.14,0.18,0.08,1.07,
1.896,1.57,1.50,1.14,0.19,0.08,1.06,
1.896,1.67,1.38,1.04,0.19,0.08,1.06,
1.898,1.67,1.38,1.04,0.20,0.07,1.06,
1.9,1.67,1.38,1.04,0.21,0.06,1.05,
1.901,1.80,1.24,0.94,0.21,0.06,1.05,
1.903,1.80,1.24,0.94,0.21,0.06,1.05,
1.905,1.80,1.24,0.94,0.21,0.06,1.04,
1.906,1.97,1.10,0.83,0.21,0.06,1.04,
1.907,1.97,1.10,0.83,0.22,0.05,1.04,
1.91,1.97,1.10,0.83,0.22,0.05,1.03,
1.911,2.10,1.00,0.73,0.22,0.05,1.03,
1.912,2.10,1.00,0.73,0.22,0.05,1.03,
1.915,2.10,1.00,0.73,0.22,0.05,1.03,
1.915,2.16,0.94,0.64,0.22,0.05,1.03,
1.917,2.16,0.94,0.64,0.23,0.05,1.03,
1.92,2.16,0.94,0.64,0.23,0.04,1.02,
1.921,2.22,0.90,0.58,0.23,0.04,1.02,
1.922,2.22,0.90,0.58,0.22,0.04,1.02,
1.925,2.22,0.90,0.58,0.23,0.04,1.02,
1.928,2.26,0.85,0.51,0.23,0.04,1.02,
1.928,2.26,0.85,0.51,0.23,0.04,1.02,
1.93,2.26,0.85,0.51,0.23,0.04,1.01,
1.93,2.27,0.80,0.47,0.23,0.04,1.01,
1.932,2.27,0.80,0.47,0.23,0.04,1.01,
1.935,2.27,0.80,0.47,0.22,0.04,1.01,
1.935,2.30,0.76,0.42,0.22,0.04,1.01,
1.937,2.30,0.76,0.42,0.23,0.03,1.01,
1.94,2.30,0.76,0.42,0.22,0.03,1.01,
1.94,2.29,0.75,0.38,0.22,0.03,1.01,
1.942,2.29,0.75,0.38,0.22,0.03,1.01,
1.945,2.29,0.75,0.38,0.22,0.03,1.01,
1.945,2.30,0.72,0.36,0.22,0.03,1.01,
1.947,2.30,0.72,0.36,0.22,0.03,1.01,
1.949,2.30,0.72,0.36,0.21,0.02,1.01,
1.95,2.28,0.70,0.33,0.21,0.02,1.01,
1.952,2.28,0.70,0.33,0.21,0.02,1.01,
1.954,2.28,0.70,0.33,0.21,0.02,1.01,
1.955,2.25,0.64,0.34,0.21,0.02,1.01,
1.957,2.25,0.64,0.34,0.20,0.02,1.02,
1.959,2.25,0.64,0.34,0.20,0.02,1.02,
1.959,2.23,0.60,0.38,0.20,0.02,1.02,
1.962,2.23,0.60,0.38,0.19,0.01,1.02,
1.964,2.23,0.60,0.38,0.19,0.01,1.02,
1.964,2.17,0.56,0.43,0.19,0.01,1.02,
1.966,2.17,0.56,0.43,0.18,0.00,1.02,
1.969,2.17,0.56,0.43,0.18,0.00,1.02,
1.969,2.08,0.49,0.46,0.18,0.00,1.02,
1.976,2.08,0.49,0.46,0.17,-0.00,1.02,
1.976,2.08,0.49,0.46,0.17,-0.01,1.01,
1.976,1.99,0.41,0.45,0.17,-0.01,1.01,
1.977,1.99,0.41,0.45,0.17,-0.01,1.01,
1.979,1.99,0.41,0.45,0.17,-0.02,1.01,
1.979,1.95,0.31,0.41,0.17,-0.02,1.01,
1.981,1.95,0.31,0.41,0.17,-0.03,1.01,
1.984,1.95,0.31,0.41,0.18,-0.03,1.01,
1.984,1.96,0.19,0.37,0.18,-0.03,1.01,
1.986,1.96,0.19,0.37,0.18,-0.04,1.01,
1.989,1.96,0.19,0.37,0.19,-0.05,1.01,
1.989,2.00,0.07,0.35,0.19,-0.05,1.01,
1.991,2.00,0.07,0.35,0.19,-0.05,1.01,
1.994,2.00,0.07,0.35,0.19,-0.06,1.01,
1.994,2.09,-0.08,0.34,0.19,-0.06,1.01,
1.996,2.09,-0.08,0.34,0.19,-0.06,1.00,
1.998,2.09,-0.08,0.34,0.19,-0.07,1.00,
1.998,2.16,-0.22,0.33,0.19,-0.07,1.00,
2.0,2.16,-0.22,0.33,0.19,-0.07,1.00,
2.003,2.16,-0.22,0.33,0.19,-0.07,0.99,
2.004,2.19,-0.32,0.28,0.19,-0.07,0.99,
2.006,2.19,-0.32,0.28,0.19,-0.07,0.99,
2.008,2.19,-0.32,0.28,0.18,-0.07,0.99,
2.008,2.17,-0.38,0.21,0.18,-0.07,0.99,
2.01,2.17,-0.38,0.21,0.18,-0.07,0.98,
2.013,2.17,-0.38,0.21,0.18,-0.07,0.98,
2.013,2.11,-0.39,0.16,0.18,-0.07,0.98,
2.015,2.11,-0.39,0.16,0.17,-0.07,0.98,
2.018,2.11,-0.39,0.16,0.17,-0.07,0.98,
2.018,2.03,-0.43,0.09,0.17,-0.07,0.98,
2.02,2.03,-0.43,0.09,0.16,-0.08,0.97,
2.023,2.03,-0.43,0.09,0.16,-0.08,0.97,
2.023,1.97,-0.46,0.05,0.16,-0.08,0.97,
2.025,1.97,-0.46,0.05,0.16,-0.08,0.97,
2.028,1.97,-0.46,0.05,0.15,-0.08,0.97,
2.028,1.86,-0.50,-0.00,0.15,-0.08,0.97,
2.03,1.86,-0.50,-0.00,0.15,-0.08,0.97,
2.033,1.86,-0.50,-0.00,0.14,-0.08,0.97,
2.033,1.79,-0.52,-0.03,0.14,-0.08,0.97,
2.035,1.79,-0.52,-0.03,0.14,-0.08,0.97,
2.038,1.79,-0.52,-0.03,0.13,-0.08,0.97,
2.039,1.71,-0.55,-0.03,0.13,-0.08,0.97,
2.04,1.71,-0.55,-0.03,0.13,-0.08,0.97,
2.042,1.71,-0.55,-0.03,0.12,-0.08,0.98,
2.043,1.60,-0.57,-0.01,0.12,-0.08,0.98,
2.045,1.60,-0.57,-0.01,0.11,-0.08,0.98,
2.047,1.60,-0.57,-0.01,0.11,-0.08,0.98,
2.048,1.51,-0.58,0.03,0.11,-0.08,0.98,
2.05,1.51,-0.58,0.03,0.10,-0.08,0.97,
2.052,1.51,-0.58,0.03,0.10,-0.09,0.97,
2.053,1.42,-0.60,0.04,0.10,-0.09,0.97,
2.055,1.42,-0.60,0.04,0.10,-0.08,0.97,
2.057,1.42,-0.60,0.04,0.09,-0.09,0.96,
2.058,1.34,-0.62,-0.02,0.09,-0.09,0.96,
2.059,1.34,-0.62,-0.02,0.09,-0.08,0.96,
2.062,1.34,-0.62,-0.02,0.09,-0.08,0.95,
2.062,1.27,-0.64,-0.08,0.09,-0.08,0.95,
2.065,1.27,-0.64,-0.08,0.09,-0.08,0.94,
2.067,1.27,-0.64,-0.08,0.09,-0.08,0.94,
2.067,1.24,-0.64,-0.19,0.09,-0.08,0.94,
2.076,1.24,-0.64,-0.19,0.09,-0.08,0.93,
2.076,1.24,-0.64,-0.19,0.09,-0.08,0.92,
2.077,1.26,-0.65,-0.31,0.09,-0.08,0.92,
2.077,1.26,-0.65,-0.31,0.09,-0.08,0.91,
2.077,1.26,-0.65,-0.31,0.09,-0.08,0.91,
2.078,1.30,-0.63,-0.46,0.09,-0.08,0.91,
2.079,1.30,-0.63,-0.46,0.09,-0.08,0.90,
2.082,1.30,-0.63,-0.46,0.08,-0.08,0.89,
2.085,1.30,-0.63,-0.60,0.08,-0.08,0.89,
2.085,1.30,-0.63,-0.60,0.08,-0.08,0.89,
2.095,1.30,-0.63,-0.60,0.08,-0.08,0.88,
2.095,1.27,-0.63,-0.74,0.08,-0.08,0.88,
2.095,1.27,-0.63,-0.74,0.08,-0.08,0.87,
2.095,1.27,-0.63,-0.74,0.08,-0.07,0.87,
2.095,1.24,-0.64,-0.88,0.08,-0.07,0.87,
2.096,1.24,-0.64,-0.88,0.08,-0.07,0.86,
2.096,1.24,-0.64,-0.88,0.07,-0.07,0.86,
2.096,1.22,-0.63,-1.03,0.07,-0.07,0.86,
2.099,1.22,-0.63,-1.03,0.07,-0.07,0.86,
2.101,1.17,-0.63,-1.11,0.07,-0.07,0.86,
2.102,1.17,-0.63,-1.11,0.07,-0.08,0.86,
2.103,1.17,-0.63,-1.11,0.07,-0.08,0.86,
2.106,1.17,-0.63,-1.11,0.06,-0.08,0.87,
2.106,1.12,-0.65,-1.11,0.06,-0.08,0.87,
2.108,1.12,-0.65,-1.11,0.05,-0.08,0.87,
2.111,1.06,-0.68,-1.03,0.05,-0.08,0.87,
2.111,1.06,-0.68,-1.03,0.05,-0.07,0.88,
2.113,1.06,-0.68,-1.03,0.04,-0.08,0.89,
2.116,1.06,-0.68,-1.03,0.04,-0.08,0.90,
2.116,0.91,-0.67,-0.93,0.04,-0.08,0.90,
2.118,0.91,-0.67,-0.93,0.03,-0.08,0.91,
2.121,0.91,-0.67,-0.93,0.03,-0.08,0.92,
2.121,0.78,-0.68,-0.75,0.03,-0.08,0.92,
2.123,0.78,-0.68,-0.75,0.03,-0.08,0.94,
2.126,0.78,-0.68,-0.75,0.02,-0.08,0.95,
2.126,0.66,-0.68,-0.52,0.02,-0.08,0.95,
2.128,0.66,-0.68,-0.52,0.02,-0.08,0.96,
2.13,0.66,-0.68,-0.52,0.02,-0.09,0.97,
2.131,0.59,-0.71,-0.29,0.02,-0.09,0.97,
2.133,0.59,-0.71,-0.29,0.02,-0.09,0.98,
2.135,0.59,-0.71,-0.29,0.01,-0.09,0.99,
2.136,0.52,-0.76,-0.07,0.01,-0.09,0.99,
2.138,0.52,-0.76,-0.07,0.01,-0.09,0.99,
2.14,0.52,-0.76,-0.07,0.01,-0.09,1.00,
2.141,0.47,-0.79,0.11,0.01,-0.09,1.00,
2.143,0.47,-0.79,0.11,0.01,-0.09,1.00,
2.145,0.47,-0.79,0.11,0.01,-0.09,1.00,
2.146,0.43,-0.80,0.23,0.01,-0.09,1.00,
2.147,0.43,-0.80,0.23,0.01,-0.09,1.00,
2.15,0.43,-0.80,0.23,0.01,-0.09,1.00,
2.151,0.43,-0.81,0.29,0.01,-0.09,1.00,
2.154,0.43,-0.81,0.29,0.01,-0.08,1.00,
2.155,0.42,-0.81,0.29,0.01,-0.08,1.00,
2.156,0.42,-0.81,0.29,0.02,-0.08,0.99,
2.157,0.42,-0.81,0.29,0.02,-0.08,0.99,
2.16,0.42,-0.81,0.29,0.02,-0.08,0.98,
2.16,0.44,-0.76,0.22,0.02,-0.08,0.98,
2.162,0.44,-0.76,0.22,0.02,-0.07,0.98,
2.165,0.44,-0.76,0.22,0.02,-0.07,0.97,
2.165,0.46,-0.75,0.13,0.02,-0.07,0.97,
2.167,0.46,-0.75,0.13,0.02,-0.07,0.96,
2.17,0.46,-0.75,0.13,0.02,-0.06,0.96,
2.171,0.49,-0.69,0.01,0.02,-0.06,0.96,
2.172,0.49,-0.69,0.01,0.02,-0.06,0.95,
2.176,0.49,-0.69,0.01,0.02,-0.05,0.95,
2.176,0.49,-0.61,-0.12,0.02,-0.05,0.95,
2.177,0.49,-0.61,-0.12,0.02,-0.05,0.94,
2.179,0.49,-0.61,-0.12,0.02,-0.04,0.94,
2.18,0.49,-0.53,-0.22,0.02,-0.04,0.94,
2.182,0.49,-0.53,-0.22,0.03,-0.04,0.94,
2.185,0.54,-0.46,-0.30,0.03,-0.04,0.94,
2.185,0.54,-0.46,-0.30,0.03,-0.04,0.94,
2.192,0.54,-0.46,-0.30,0.03,-0.04,0.94,
2.193,0.54,-0.46,-0.30,0.03,-0.04,0.94,
2.193,0.59,-0.40,-0.33,0.03,-0.04,0.94,
2.194,0.59,-0.40,-0.33,0.04,-0.03,0.94,
2.194,0.59,-0.40,-0.33,0.04,-0.03,0.95,
2.194,0.63,-0.36,-0.30,0.04,-0.03,0.95,
2.197,0.63,-0.36,-0.30,0.04,-0.03,0.95,
2.199,0.63,-0.36,-0.30,0.03,-0.02,0.96,
2.2,0.64,-0.31,-0.26,0.03,-0.02,0.96,
2.202,0.64,-0.31,-0.26,0.03,-0.02,0.97,
2.204,0.64,-0.31,-0.26,0.03,-0.02,0.97,
2.205,0.63,-0.27,-0.16,0.03,-0.02,0.97,
2.206,0.63,-0.27,-0.16,0.03,-0.02,0.98,
2.209,0.63,-0.27,-0.16,0.02,-0.02,0.98,
2.209,0.55,-0.21,-0.04,0.02,-0.02,0.98,
2.211,0.55,-0.21,-0.04,0.02,-0.02,0.98,
2.214,0.55,-0.21,-0.04,0.02,-0.02,0.99,
2.214,0.50,-0.20,0.07,0.02,-0.02,0.99,
2.216,0.50,-0.20,0.07,0.02,-0.02,0.99,
2.219,0.50,-0.20,0.07,0.01,-0.02,0.99,
2.22,0.44,-0.19,0.14,0.01,-0.02,0.99,
2.221,0.44,-0.19,0.14,0.01,-0.02,0.99,
2.224,0.44,-0.19,0.14,0.00,-0.02,0.99,
2.224,0.38,-0.24,0.19,0.00,-0.02,0.99,
2.226,0.38,-0.24,0.19,-0.00,-0.02,0.99,
2.229,0.38,-0.24,0.19,-0.01,-0.02,0.99,
2.229,0.29,-0.27,0.21,-0.01,-0.02,0.99,
2.231,0.29,-0.27,0.21,-0.01,-0.02,0.98,
2.233,0.29,-0.27,0.21,-0.02,-0.02,0.98,
2.233,0.17,-0.25,0.17,-0.02,-0.02,0.98,
2.236,0.17,-0.25,0.17,-0.02,-0.01,0.98,
2.238,0.17,-0.25,0.17,-0.02,-0.01,0.97,
2.239,0.05,-0.21,0.10,-0.02,-0.01,0.97,
2.241,0.05,-0.21,0.10,-0.03,-0.01,0.97,
2.243,0.05,-0.21,0.10,-0.03,-0.01,0.96,
2.244,-0.02,-0.16,0.00,-0.03,-0.01,0.96,
2.246,-0.02,-0.16,0.00,-0.03,-0.01,0.96,
2.248,-0.02,-0.16,0.00,-0.02,-0.01,0.96,
2.249,-0.06,-0.18,-0.07,-0.02,-0.01,0.96,
2.25,-0.06,-0.18,-0.07,-0.02,-0.01,0.96,
2.254,-0.06,-0.18,-0.07,-0.02,-0.01,0.96,
2.254,-0.05,-0.17,-0.12,-0.02,-0.01,0.96,
2.255,-0.05,-0.17,-0.12,-0.02,-0.00,0.96,
2.258,-0.05,-0.17,-0.12,-0.02,0.00,0.96,
2.258,-0.05,-0.13,-0.16,-0.02,0.00,0.96,
2.26,-0.05,-0.13,-0.16,-0.02,0.00,0.96,
2.263,-0.05,-0.13,-0.16,-0.01,0.00,0.97,
2.263,-0.02,-0.07,-0.15,-0.01,0.00,0.97,
2.265,-0.02,-0.07,-0.15,-0.01,0.01,0.97,
2.268,-0.02,-0.07,-0.15,-0.00,0.01,0.98,
2.268,0.03,-0.04,-0.07,-0.00,0.01,0.98,
2.27,0.03,-0.04,-0.07,0.00,0.01,0.98,
2.273,0.03,-0.04,-0.07,0.01,0.01,0.99,
2.274,0.10,0.00,0.03,0.01,0.01,0.99,
2.275,0.10,0.00,0.03,0.01,0.01,1.00,
2.278,0.10,0.00,0.03,0.02,0.01,1.00,
2.278,0.20,0.04,0.15,0.02,0.01,1.00,
2.28,0.20,0.04,0.15,0.02,0.02,1.01,
2.282,0.20,0.04,0.15,0.02,0.02,1.01,
2.283,0.29,0.06,0.28,0.02,0.02,1.01,
2.285,0.29,0.06,0.28,0.02,0.02,1.02,
2.292,0.29,0.06,0.28,0.03,0.02,1.02,
2.293,0.35,0.09,0.39,0.03,0.02,1.02,
2.293,0.35,0.09,0.39,0.03,0.02,1.02,
2.293,0.35,0.09,0.39,0.03,0.02,1.02,
2.294,0.39,0.10,0.47,0.03,0.02,1.02,
2.294,0.39,0.10,0.47,0.03,0.02,1.02,
2.297,0.43,0.14,0.48,0.03,0.02,1.02,
2.298,0.43,0.14,0.48,0.03,0.02,1.02,
2.3,0.43,0.14,0.48,0.03,0.03,1.01,
2.302,0.43,0.14,0.48,0.03,0.03,1.01,
2.302,0.43,0.15,0.45,0.03,0.03,1.01,
2.306,0.43,0.15,0.45,0.03,0.03,1.00,
2.307,0.43,0.15,0.45,0.03,0.03,0.99,
2.307,0.45,0.16,0.37,0.03,0.03,0.99,
2.309,0.45,0.16,0.37,0.03,0.02,0.99,
2.312,0.45,0.16,0.37,0.03,0.03,0.98,
2.312,0.47,0.16,0.24,0.03,0.03,0.98,
2.314,0.47,0.16,0.24,0.03,0.03,0.98,
2.317,0.47,0.16,0.24,0.03,0.03,0.97,
2.317,0.48,0.14,0.10,0.03,0.03,0.97,
2.319,0.48,0.14,0.10,0.02,0.03,0.96,
2.322,0.48,0.14,0.10,0.02,0.03,0.96,
2.322,0.43,0.15,0.00,0.02,0.03,0.96,
2.324,0.43,0.15,0.00,0.01,0.03,0.95,
2.327,0.43,0.15,0.00,0.01,0.03,0.95,
2.327,0.37,0.16,-0.11,0.01,0.03,0.95,
2.329,0.37,0.16,-0.11,0.01,0.02,0.95,
2.331,0.37,0.16,-0.11,-0.00,0.03,0.95,
2.332,0.30,0.14,-0.19,-0.00,0.03,0.95,
2.334,0.30,0.14,-0.19,-0.01,0.03,0.95,
2.336,0.30,0.14,-0.19,-0.01,0.03,0.95,
2.337,0.20,0.15,-0.25,-0.01,0.03,0.95,
2.339,0.20,0.15,-0.25,-0.02,0.03,0.95,
2.341,0.20,0.15,-0.25,-0.02,0.03,0.95,
2.341,0.07,0.19,-0.26,-0.02,0.03,0.95,
2.343,0.07,0.19,-0.26,-0.02,0.03,0.95,
2.346,0.07,0.19,-0.26,-0.03,0.03,0.96,
2.346,-0.01,0.20,-0.22,-0.03,0.03,0.96,
2.348,-0.01,0.20,-0.22,-0.03,0.03,0.96,
2.351,-0.06,0.17,-0.17,-0.03,0.03,0.96,
2.351,-0.06,0.17,-0.17,-0.03,0.03,0.97,
2.353,-0.06,0.17,-0.17,-0.03,0.03,0.97,
2.356,-0.06,0.17,-0.17,-0.03,0.03,0.98,
2.356,-0.10,0.17,-0.07,-0.03,0.03,0.98,
2.358,-0.10,0.17,-0.07,-0.03,0.03,0.98,
2.361,-0.10,0.17,-0.07,-0.03,0.03,0.99,
2.361,-0.13,0.18,0.04,-0.03,0.03,0.99,
2.363,-0.13,0.18,0.04,-0.03,0.03,1.00,
2.366,-0.13,0.18,0.04,-0.03,0.03,1.00,
2.366,-0.14,0.19,0.13,-0.03,0.03,1.00,
2.368,-0.14,0.19,0.13,-0.02,0.03,1.00,
2.376,-0.14,0.19,0.13,-0.02,0.03,1.01,
2.376,-0.09,0.18,0.24,-0.02,0.03,1.01,
2.376,-0.09,0.18,0.24,-0.02,0.03,1.01,
2.377,-0.09,0.18,0.24,-0.01,0.03,1.01,
2.377,-0.03,0.17,0.33,-0.01,0.03,1.01,
2.378,-0.03,0.17,0.33,-0.02,0.03,1.01,
2.38,0.02,0.17,0.37,-0.02,0.03,1.01,
2.381,0.02,0.17,0.37,-0.01,0.03,1.01,
2.383,0.02,0.17,0.37,-0.01,0.03,1.01,
2.388,0.02,0.17,0.37,-0.01,0.03,1.01,
2.388,0.03,0.16,0.40,-0.01,0.03,1.01,
2.388,0.03,0.16,0.40,-0.01,0.03,1.01,
2.39,0.03,0.16,0.40,-0.01,0.03,1.01,
2.39,0.05,0.19,0.39,-0.01,0.03,1.01,
2.392,0.05,0.19,0.39,-0.01,0.03,1.00,
2.395,0.07,0.19,0.35,-0.01,0.03,1.00,
2.395,0.07,0.19,0.35,-0.01,0.03,1.00,
2.397,0.07,0.19,0.35,-0.01,0.03,1.00,
2.4,0.07,0.19,0.35,-0.01,0.03,0.99,
2.4,0.07,0.16,0.30,-0.01,0.03,0.99,
2.402,0.07,0.16,0.30,-0.02,0.03,0.99,
2.405,0.07,0.16,0.30,-0.02,0.02,0.99,
2.406,0.05,0.16,0.23,-0.02,0.02,0.99,
2.407,0.05,0.16,0.23,-0.02,0.02,0.98,
2.41,0.05,0.16,0.23,-0.02,0.02,0.98,
2.41,0.01,0.13,0.16,-0.02,0.02,0.98,
2.412,0.01,0.13,0.16,-0.03,0.02,0.98,
2.414,0.01,0.13,0.16,-0.03,0.02,0.97,
2.415,-0.02,0.11,0.09,-0.03,0.02,0.97,
2.417,-0.02,0.11,0.09,-0.03,0.02,0.97,
2.42,-0.02,0.11,0.09,-0.03,0.02,0.96,
2.42,-0.07,0.09,0.02,-0.03,0.02,0.96,
2.422,-0.07,0.09,0.02,-0.04,0.02,0.94,
2.425,-0.07,0.09,0.02,-0.05,0.02,0.88,
2.425,-0.12,0.09,-0.07,-0.05,0.02,0.88,
2.427,-0.12,0.09,-0.07,-0.05,0.01,0.85,
2.429,-0.12,0.09,-0.07,-0.05,0.01,0.86,
2.429,-0.23,0.06,-0.63,-0.05,0.01,0.86,
2.431,-0.23,0.06,-0.63,-0.05,0.01,0.89,
2.434,-0.23,0.06,-0.63,-0.05,0.01,0.90,
2.435,-0.24,0.03,-1.14,-0.05,0.01,0.90,
2.437,-0.24,0.03,-1.14,-0.05,0.01,0.91,
2.439,-0.24,0.03,-1.14,-0.04,0.02,0.91,
2.439,-0.23,0.03,-0.78,-0.04,0.02,0.91,
2.442,-0.23,0.03,-0.78,-0.04,0.02,0.92,
2.444,-0.23,0.03,-0.78,-0.04,0.03,0.93,
2.444,-0.23,0.07,-0.61,-0.04,0.03,0.93,
2.446,-0.23,0.07,-0.61,-0.03,0.03,0.94,
2.449,-0.23,0.07,-0.61,-0.03,0.03,0.95,
2.449,-0.16,0.16,-0.46,-0.03,0.03,0.95,
2.451,-0.16,0.16,-0.46,-0.03,0.03,0.96,
2.454,-0.16,0.16,-0.46,-0.02,0.02,0.97,
2.454,-0.08,0.18,-0.27,-0.02,0.02,0.97,
2.456,-0.08,0.18,-0.27,-0.02,0.02,0.98,
2.459,-0.08,0.18,-0.27,-0.02,0.02,0.99,
2.459,-0.01,0.18,-0.09,-0.02,0.02,0.99,
2.461,-0.01,0.18,-0.09,-0.01,0.02,0.99,
2.463,-0.01,0.18,-0.09,-0.01,0.02,1.00,
2.464,0.05,0.17,0.10,-0.01,0.02,1.00,
2.466,0.05,0.17,0.10,-0.00,0.02,1.01,
2.469,0.05,0.17,0.10,0.00,0.02,1.01,
2.469,0.13,0.18,0.25,0.00,0.02,1.01,
2.471,0.13,0.18,0.25,-0.00,0.02,1.02,
2.473,0.13,0.18,0.25,-0.00,0.03,1.02,
2.473,0.22,0.17,0.38,-0.00,0.03,1.02,
2.476,0.22,0.17,0.38,-0.00,0.03,1.03,
2.478,0.22,0.17,0.38,-0.01,0.03,1.03,
2.478,0.20,0.20,0.48,-0.01,0.03,1.03,
2.48,0.20,0.20,0.48,-0.01,0.03,1.03,
2.483,0.20,0.20,0.48,-0.01,0.02,1.03,
2.483,0.17,0.21,0.58,-0.01,0.02,1.03,
2.486,0.17,0.21,0.58,-0.01,0.02,1.03,
2.488,0.17,0.21,0.58,-0.02,0.01,1.04,
2.488,0.10,0.17,0.59,-0.02,0.01,1.04,
2.49,0.10,0.17,0.59,-0.02,0.01,1.04,
2.493,0.10,0.17,0.59,-0.02,0.01,1.04,
2.493,0.05,0.09,0.61,-0.02,0.01,1.04,
2.495,0.05,0.09,0.61,-0.02,0.01,1.04,
2.498,0.05,0.09,0.61,-0.03,0.01,1.04,
2.498,-0.02,0.03,0.63,-0.03,0.01,1.04,
2.5,-0.02,0.03,0.63,-0.03,0.01,1.03,
2.506,-0.02,0.03,0.63,-0.03,0.00,1.02,
2.506,-0.08,-0.03,0.61,-0.03,0.00,1.02,
2.506,-0.08,-0.03,0.61,-0.03,0.00,1.01,
2.507,-0.08,-0.03,0.61,-0.03,0.00,1.01,
2.508,-0.15,-0.06,0.52,-0.03,0.00,1.01,
2.51,-0.15,-0.06,0.52,-0.04,0.00,1.00,
2.513,-0.15,-0.06,0.52,-0.03,0.00,0.99,
2.513,-0.16,-0.08,0.36,-0.03,0.00,0.99,
2.515,-0.16,-0.08,0.36,-0.04,0.01,0.98,
2.517,-0.16,-0.08,0.36,-0.03,0.01,0.98,
2.517,-0.18,-0.07,0.22,-0.03,0.01,0.98,
