
time,ax,ay,az,gFx,gFy,gFz,
0.003,-0.02,-0.10,0.09,-0.02,0.19,0.96,
0.003,-0.00,-0.09,0.06,-0.02,0.19,0.96,
0.004,-0.00,-0.09,0.06,-0.02,0.19,0.96,
0.004,-0.00,-0.09,0.06,-0.02,0.20,0.96,
0.004,0.01,-0.07,0.02,-0.02,0.20,0.96,
0.004,0.01,-0.07,0.02,-0.02,0.20,0.96,
0.007,0.01,-0.07,0.02,-0.02,0.20,0.96,
0.007,0.03,-0.01,0.01,-0.02,0.20,0.96,
0.009,0.03,-0.01,0.01,-0.02,0.20,0.96,
0.019,0.03,-0.01,0.01,-0.02,0.20,0.96,
0.019,0.04,0.01,0.02,-0.02,0.20,0.96,
0.019,0.04,0.01,0.02,-0.02,0.20,0.96,
0.019,0.04,0.01,0.02,-0.02,0.20,0.96,
0.019,0.02,0.05,0.02,-0.02,0.20,0.96,
0.019,0.02,0.05,0.02,-0.02,0.20,0.97,
0.021,0.02,0.05,0.02,-0.02,0.20,0.97,
0.021,0.03,0.07,0.02,-0.02,0.20,0.97,
0.023,0.03,0.07,0.02,-0.02,0.20,0.97,
0.026,0.03,0.07,0.02,-0.02,0.20,0.97,
0.026,0.04,0.08,0.04,-0.02,0.20,0.97,
0.029,0.04,0.08,0.04,-0.02,0.20,0.97,
0.031,0.04,0.08,0.04,-0.02,0.20,0.97,
0.031,0.03,0.07,0.10,-0.02,0.20,0.97,
0.033,0.03,0.07,0.10,-0.02,0.20,0.98,
0.036,0.03,0.07,0.10,-0.02,0.20,0.98,
0.036,0.06,0.07,0.12,-0.02,0.20,0.98,
0.038,0.06,0.07,0.12,-0.02,0.20,0.98,
0.041,0.06,0.07,0.12,-0.02,0.20,0.98,
0.041,0.07,0.08,0.16,-0.02,0.20,0.98,
0.043,0.07,0.08,0.16,-0.02,0.20,0.98,
0.046,0.07,0.08,0.16,-0.02,0.21,0.99,
0.046,0.04,0.08,0.21,-0.02,0.21,0.99,
0.048,0.04,0.08,0.21,-0.02,0.20,0.99,
0.05,0.04,0.08,0.21,-0.02,0.20,0.99,
0.051,0.03,0.09,0.22,-0.02,0.20,0.99,
0.053,0.03,0.09,0.22,-0.02,0.20,0.99,
0.055,0.03,0.08,0.23,-0.02,0.20,0.99,
0.056,0.03,0.08,0.23,-0.02,0.20,0.98,
0.058,0.03,0.08,0.23,-0.02,0.20,0.98,
0.06,0.03,0.08,0.23,-0.02,0.20,0.98,
0.06,0.03,0.05,0.22,-0.02,0.20,0.98,
0.063,0.03,0.05,0.22,-0.02,0.20,0.97,
0.065,0.03,0.05,0.22,-0.02,0.20,0.97,
0.066,0.04,0.04,0.17,-0.02,0.20,0.97,
0.068,0.04,0.04,0.17,-0.02,0.20,0.97,
0.07,0.04,0.04,0.17,-0.02,0.20,0.96,
0.071,0.03,0.02,0.10,-0.02,0.20,0.96,
0.073,0.03,0.02,0.10,-0.02,0.20,0.96,
0.075,0.03,0.02,0.10,-0.02,0.20,0.95,
0.075,0.03,0.02,0.03,-0.02,0.20,0.95,
0.077,0.03,0.02,0.03,-0.02,0.20,0.95,
0.08,0.03,0.02,0.03,-0.02,0.20,0.95,
0.081,0.04,0.00,-0.06,-0.02,0.20,0.95,
0.083,0.04,0.00,-0.06,-0.02,0.20,0.94,
0.085,0.04,0.00,-0.06,-0.02,0.20,0.94,
0.086,0.06,-0.00,-0.12,-0.02,0.20,0.94,
0.087,0.06,-0.00,-0.12,-0.02,0.20,0.94,
0.09,0.06,-0.00,-0.12,-0.02,0.20,0.94,
0.09,0.05,0.02,-0.19,-0.02,0.20,0.94,
0.092,0.05,0.02,-0.19,-0.02,0.20,0.94,
0.096,0.05,0.02,-0.19,-0.02,0.21,0.94,
0.096,0.05,0.05,-0.22,-0.02,0.21,0.94,
0.097,0.05,0.05,-0.22,-0.02,0.21,0.94,
0.1,0.05,0.05,-0.22,-0.02,0.21,0.94,
0.1,0.04,0.08,-0.25,-0.02,0.21,0.94,
0.102,0.04,0.08,-0.25,-0.02,0.21,0.94,
0.104,0.04,0.08,-0.25,-0.02,0.21,0.94,
0.104,0.05,0.10,-0.24,-0.02,0.21,0.94,
0.107,0.05,0.10,-0.24,-0.02,0.21,0.95,
0.109,0.05,0.10,-0.24,-0.02,0.21,0.95,
0.109,0.07,0.09,-0.19,-0.02,0.21,0.95,
0.112,0.07,0.09,-0.19,-0.02,0.21,0.95,
0.115,0.07,0.09,-0.19,-0.02,0.21,0.96,
0.115,0.07,0.11,-0.14,-0.02,0.21,0.96,
0.117,0.07,0.11,-0.14,-0.01,0.21,0.96,
0.119,0.07,0.11,-0.14,-0.02,0.21,0.96,
0.119,0.08,0.12,-0.08,-0.02,0.21,0.96,
0.121,0.08,0.12,-0.08,-0.01,0.21,0.97,
0.124,0.08,0.12,-0.08,-0.01,0.21,0.97,
0.124,0.10,0.11,-0.01,-0.01,0.21,0.97,
0.126,0.10,0.11,-0.01,-0.01,0.21,0.97,
0.136,0.10,0.11,-0.01,-0.01,0.21,0.97,
0.136,0.11,0.15,0.05,-0.01,0.21,0.97,
0.136,0.11,0.15,0.05,-0.01,0.21,0.97,
0.136,0.11,0.15,0.05,-0.01,0.21,0.97,
0.137,0.14,0.13,0.09,-0.01,0.21,0.97,
0.137,0.14,0.13,0.09,-0.01,0.21,0.98,
0.139,0.14,0.13,0.09,-0.00,0.21,0.98,
0.139,0.16,0.13,0.12,-0.00,0.21,0.98,
0.141,0.16,0.13,0.12,-0.00,0.21,0.98,
0.143,0.16,0.13,0.12,-0.00,0.21,0.98,
0.144,0.16,0.11,0.15,-0.00,0.21,0.98,
0.146,0.16,0.11,0.15,-0.01,0.21,0.98,
0.149,0.16,0.11,0.15,-0.01,0.21,0.98,
0.149,0.18,0.10,0.18,-0.01,0.21,0.98,
0.151,0.18,0.10,0.18,-0.01,0.20,0.98,
0.153,0.18,0.10,0.18,-0.01,0.20,0.98,
0.153,0.13,0.09,0.19,-0.01,0.20,0.98,
0.156,0.13,0.09,0.19,-0.01,0.20,0.98,
0.158,0.13,0.09,0.19,-0.01,0.20,0.98,
0.159,0.11,0.07,0.21,-0.01,0.20,0.98,
0.161,0.11,0.07,0.21,-0.01,0.20,0.98,
0.163,0.11,0.07,0.21,-0.01,0.20,0.98,
0.163,0.09,0.06,0.17,-0.01,0.20,0.98,
0.166,0.09,0.06,0.17,-0.02,0.20,0.98,
0.168,0.09,0.06,0.17,-0.02,0.20,0.98,
0.168,0.08,0.05,0.17,-0.02,0.20,0.98,
0.17,0.08,0.05,0.17,-0.02,0.20,0.98,
0.173,0.08,0.05,0.17,-0.02,0.20,0.98,
0.173,0.05,0.04,0.15,-0.02,0.20,0.98,
0.175,0.05,0.04,0.15,-0.02,0.20,0.98,
0.178,0.05,0.04,0.15,-0.02,0.20,0.98,
0.178,0.02,0.05,0.15,-0.02,0.20,0.98,
0.18,0.02,0.05,0.15,-0.02,0.20,0.98,
0.183,0.02,0.05,0.15,-0.02,0.20,0.98,
0.183,0.02,0.06,0.13,-0.02,0.20,0.98,
0.185,0.02,0.06,0.13,-0.02,0.20,0.98,
0.187,0.02,0.06,0.13,-0.02,0.20,0.98,
0.188,0.03,0.02,0.14,-0.02,0.20,0.98,
0.19,0.03,0.02,0.14,-0.02,0.20,0.98,
0.192,0.03,0.02,0.14,-0.02,0.20,0.97,
0.193,0.01,0.01,0.12,-0.02,0.20,0.97,
0.195,0.01,0.01,0.12,-0.02,0.20,0.97,
0.197,0.01,0.01,0.12,-0.03,0.20,0.97,
0.197,-0.00,0.01,0.11,-0.03,0.20,0.97,
0.2,-0.00,0.01,0.11,-0.03,0.20,0.97,
0.202,-0.00,0.01,0.11,-0.03,0.20,0.97,
0.202,-0.05,0.02,0.09,-0.03,0.20,0.97,
0.204,-0.05,0.02,0.09,-0.03,0.20,0.97,
0.207,-0.05,0.02,0.09,-0.03,0.20,0.97,
0.207,-0.05,0.03,0.06,-0.03,0.20,0.97,
0.209,-0.05,0.03,0.06,-0.02,0.20,0.96,
0.213,-0.05,0.03,0.06,-0.02,0.20,0.97,
0.213,-0.04,0.03,0.03,-0.02,0.20,0.97,
0.215,-0.04,0.03,0.03,-0.02,0.20,0.96,
0.218,-0.04,0.03,0.03,-0.02,0.20,0.96,
0.218,-0.01,0.03,0.01,-0.02,0.20,0.96,
0.219,-0.01,0.03,0.01,-0.02,0.20,0.96,
0.222,-0.01,0.03,0.01,-0.02,0.20,0.96,
0.222,0.00,-0.00,-0.01,-0.02,0.20,0.96,
0.224,0.00,-0.00,-0.01,-0.02,0.20,0.96,
0.227,0.00,-0.00,-0.01,-0.02,0.20,0.96,
0.227,0.02,-0.02,-0.01,-0.02,0.20,0.96,
0.229,0.02,-0.02,-0.01,-0.02,0.20,0.96,
0.232,0.02,-0.02,-0.01,-0.02,0.20,0.96,
0.232,0.04,-0.00,-0.04,-0.02,0.20,0.96,
0.234,0.04,-0.00,-0.04,-0.02,0.20,0.96,
0.236,0.04,-0.00,-0.04,-0.02,0.20,0.96,
0.237,0.01,0.01,-0.06,-0.02,0.20,0.96,
0.239,0.01,0.01,-0.06,-0.02,0.20,0.95,
0.242,0.01,0.01,-0.06,-0.03,0.20,0.96,
0.242,-0.01,0.01,-0.07,-0.03,0.20,0.96,
0.244,-0.01,0.01,-0.07,-0.03,0.20,0.96,
0.247,-0.01,0.01,-0.07,-0.03,0.20,0.96,
0.247,-0.04,-0.00,-0.08,-0.03,0.20,0.96,
0.249,-0.04,-0.00,-0.08,-0.03,0.20,0.96,
0.252,-0.04,-0.00,-0.08,-0.03,0.20,0.96,
0.252,-0.04,-0.02,-0.07,-0.03,0.20,0.96,
0.254,-0.04,-0.02,-0.07,-0.03,0.19,0.96,
0.256,-0.04,-0.02,-0.07,-0.04,0.19,0.96,
0.256,-0.07,-0.03,-0.07,-0.04,0.19,0.96,
0.258,-0.07,-0.03,-0.07,-0.04,0.19,0.96,
0.261,-0.07,-0.03,-0.07,-0.04,0.19,0.96,
0.262,-0.13,-0.05,-0.05,-0.04,0.19,0.96,
0.263,-0.13,-0.05,-0.05,-0.04,0.19,0.96,
0.266,-0.13,-0.05,-0.05,-0.04,0.19,0.96,
0.266,-0.15,-0.05,-0.06,-0.04,0.19,0.96,
0.269,-0.15,-0.05,-0.06,-0.04,0.19,0.96,
0.271,-0.15,-0.05,-0.06,-0.04,0.18,0.96,
0.271,-0.17,-0.10,-0.07,-0.04,0.18,0.96,
0.273,-0.17,-0.10,-0.07,-0.04,0.18,0.96,
0.276,-0.17,-0.10,-0.07,-0.04,0.18,0.96,
0.276,-0.16,-0.15,-0.06,-0.04,0.18,0.96,
0.278,-0.16,-0.15,-0.06,-0.04,0.18,0.96,
0.281,-0.16,-0.15,-0.06,-0.04,0.17,0.96,
0.281,-0.15,-0.20,-0.03,-0.04,0.17,0.96,
0.283,-0.15,-0.20,-0.03,-0.04,0.17,0.96,
0.286,-0.15,-0.20,-0.03,-0.04,0.17,0.96,
0.286,-0.16,-0.23,-0.02,-0.04,0.17,0.96,
0.288,-0.16,-0.23,-0.02,-0.04,0.17,0.97,
0.29,-0.16,-0.23,-0.02,-0.04,0.17,0.97,
0.291,-0.17,-0.25,0.01,-0.04,0.17,0.97,
0.293,-0.17,-0.25,0.01,-0.04,0.17,0.97,
0.295,-0.17,-0.25,0.01,-0.04,0.17,0.97,
0.296,-0.14,-0.28,0.03,-0.04,0.17,0.97,
0.298,-0.14,-0.28,0.03,-0.03,0.17,0.97,
0.301,-0.14,-0.28,0.03,-0.03,0.17,0.97,
0.301,-0.13,-0.30,0.03,-0.03,0.17,0.97,
0.303,-0.13,-0.30,0.03,-0.03,0.17,0.97,
0.305,-0.13,-0.30,0.03,-0.04,0.17,0.97,
0.305,-0.11,-0.30,0.05,-0.04,0.17,0.97,
0.307,-0.11,-0.30,0.05,-0.04,0.17,0.97,
0.31,-0.11,-0.30,0.05,-0.04,0.17,0.97,
0.31,-0.11,-0.28,0.06,-0.04,0.17,0.97,
0.319,-0.11,-0.28,0.06,-0.04,0.18,0.96,
0.319,-0.11,-0.28,0.06,-0.04,0.18,0.96,
0.319,-0.15,-0.24,0.03,-0.04,0.18,0.96,
0.319,-0.15,-0.24,0.03,-0.04,0.18,0.96,
0.32,-0.15,-0.24,0.03,-0.04,0.18,0.96,
0.32,-0.16,-0.21,-0.03,-0.04,0.18,0.96,
0.322,-0.16,-0.21,-0.03,-0.04,0.18,0.95,
0.325,-0.16,-0.21,-0.03,-0.04,0.18,0.95,
0.325,-0.17,-0.16,-0.06,-0.04,0.18,0.95,
0.328,-0.17,-0.16,-0.06,-0.04,0.18,0.95,
0.33,-0.17,-0.16,-0.06,-0.03,0.18,0.94,
0.33,-0.14,-0.16,-0.12,-0.03,0.18,0.94,
0.332,-0.14,-0.16,-0.12,-0.03,0.18,0.94,
0.334,-0.14,-0.16,-0.12,-0.03,0.18,0.94,
0.335,-0.10,-0.15,-0.17,-0.03,0.18,0.94,
0.337,-0.10,-0.15,-0.17,-0.03,0.18,0.94,
0.339,-0.10,-0.15,-0.17,-0.02,0.18,0.94,
0.34,-0.05,-0.14,-0.19,-0.02,0.18,0.94,
0.342,-0.05,-0.14,-0.19,-0.02,0.19,0.94,
0.344,-0.05,-0.14,-0.19,-0.02,0.19,0.94,
0.344,-0.01,-0.14,-0.23,-0.02,0.19,0.94,
0.347,-0.01,-0.14,-0.23,-0.02,0.19,0.93,
0.349,-0.01,-0.14,-0.23,-0.02,0.19,0.94,
0.349,0.02,-0.12,-0.25,-0.02,0.19,0.94,
0.351,0.02,-0.12,-0.25,-0.02,0.19,0.94,
0.354,0.02,-0.12,-0.25,-0.02,0.19,0.94,
0.355,0.04,-0.09,-0.27,-0.02,0.19,0.94,
0.356,0.04,-0.09,-0.27,-0.02,0.19,0.94,
0.359,0.04,-0.09,-0.27,-0.02,0.19,0.94,
0.359,0.06,-0.07,-0.23,-0.02,0.19,0.94,
0.361,0.06,-0.07,-0.23,-0.02,0.19,0.94,
0.364,0.06,-0.07,-0.23,-0.02,0.19,0.94,
0.364,0.07,-0.05,-0.23,-0.02,0.19,0.94,
0.366,0.07,-0.05,-0.23,-0.01,0.19,0.94,
0.369,0.07,-0.05,-0.23,-0.01,0.19,0.95,
0.369,0.08,-0.05,-0.20,-0.01,0.19,0.95,
0.371,0.08,-0.05,-0.20,-0.01,0.19,0.95,
0.373,0.08,-0.05,-0.20,-0.01,0.19,0.95,
0.374,0.10,-0.04,-0.15,-0.01,0.19,0.95,
0.376,0.10,-0.04,-0.15,-0.01,0.19,0.95,
0.379,0.10,-0.04,-0.15,-0.01,0.19,0.96,
0.379,0.11,-0.04,-0.09,-0.01,0.19,0.96,
0.381,0.11,-0.04,-0.09,-0.01,0.19,0.96,
0.384,0.12,-0.04,-0.05,-0.01,0.19,0.96,
0.384,0.12,-0.04,-0.05,-0.01,0.19,0.96,
0.386,0.12,-0.04,-0.05,-0.01,0.19,0.96,
0.388,0.12,-0.04,-0.05,-0.02,0.19,0.96,
0.389,0.09,-0.04,-0.01,-0.02,0.19,0.96,
0.391,0.09,-0.04,-0.01,-0.02,0.19,0.96,
0.394,0.09,-0.04,-0.01,-0.02,0.19,0.97,
0.394,0.07,-0.03,0.02,-0.02,0.19,0.97,
0.396,0.07,-0.03,0.02,-0.02,0.19,0.97,
0.398,0.07,-0.03,0.02,-0.02,0.20,0.96,
0.399,0.04,-0.04,0.04,-0.02,0.20,0.96,
0.401,0.04,-0.04,0.04,-0.02,0.19,0.96,
0.403,0.04,-0.04,0.04,-0.02,0.20,0.96,
0.403,0.02,-0.03,0.03,-0.02,0.20,0.96,
0.406,0.02,-0.03,0.03,-0.02,0.19,0.96,
0.408,0.02,-0.03,0.03,-0.02,0.19,0.96,
0.408,0.05,-0.02,0.03,-0.02,0.19,0.96,
0.414,0.05,-0.02,0.03,-0.02,0.19,0.96,
0.414,0.05,-0.02,0.03,-0.02,0.20,0.96,
0.415,0.01,-0.03,0.01,-0.02,0.20,0.96,
0.415,0.01,-0.03,0.01,-0.02,0.20,0.96,
0.418,0.01,-0.03,0.01,-0.02,0.19,0.96,
0.418,0.01,-0.02,0.02,-0.02,0.19,0.96,
0.42,0.01,-0.02,0.02,-0.02,0.19,0.96,
0.423,0.01,-0.02,0.02,-0.02,0.19,0.96,
0.423,-0.01,-0.03,0.01,-0.02,0.19,0.96,
0.425,-0.01,-0.03,0.01,-0.02,0.19,0.96,
0.428,-0.01,-0.03,0.01,-0.02,0.19,0.96,
0.428,-0.01,-0.06,-0.01,-0.02,0.19,0.96,
0.43,-0.01,-0.06,-0.01,-0.02,0.19,0.96,
0.432,-0.01,-0.06,-0.01,-0.02,0.19,0.96,
0.433,0.02,-0.09,-0.03,-0.02,0.19,0.96,
0.435,0.02,-0.09,-0.03,-0.02,0.19,0.96,
0.437,0.02,-0.09,-0.03,-0.02,0.19,0.96,
0.437,0.04,-0.12,-0.05,-0.02,0.19,0.96,
0.44,0.04,-0.12,-0.05,-0.02,0.19,0.96,
0.442,0.04,-0.12,-0.05,-0.02,0.19,0.96,
0.442,0.05,-0.11,-0.06,-0.02,0.19,0.96,
0.445,0.05,-0.11,-0.06,-0.02,0.18,0.96,
0.447,0.05,-0.11,-0.06,-0.01,0.18,0.95,
0.447,0.03,-0.11,-0.05,-0.01,0.18,0.95,
0.45,0.03,-0.11,-0.05,-0.01,0.18,0.96,
0.452,0.03,-0.11,-0.05,-0.01,0.18,0.96,
0.452,0.05,-0.13,-0.06,-0.01,0.18,0.96,
0.454,0.05,-0.13,-0.06,-0.01,0.18,0.96,
0.457,0.05,-0.13,-0.06,-0.00,0.18,0.96,
0.457,0.10,-0.19,-0.05,-0.00,0.18,0.96,
0.459,0.10,-0.19,-0.05,-0.00,0.17,0.96,
0.462,0.10,-0.19,-0.05,-0.01,0.18,0.96,
0.462,0.14,-0.20,-0.03,-0.01,0.18,0.96,
0.464,0.14,-0.20,-0.03,-0.01,0.18,0.96,
0.467,0.14,-0.20,-0.03,-0.01,0.17,0.97,
0.467,0.13,-0.20,0.00,-0.01,0.17,0.97,
0.469,0.13,-0.20,0.00,-0.01,0.18,0.97,
0.472,0.13,-0.20,0.00,-0.01,0.17,0.97,
0.472,0.11,-0.21,0.04,-0.01,0.17,0.97,
0.474,0.11,-0.21,0.04,-0.02,0.17,0.97,
0.477,0.11,-0.21,0.04,-0.02,0.17,0.97,
0.477,0.07,-0.21,0.07,-0.02,0.17,0.97,
0.479,0.07,-0.21,0.07,-0.02,0.17,0.98,
0.482,0.07,-0.21,0.07,-0.02,0.17,0.98,
0.482,0.02,-0.22,0.11,-0.02,0.17,0.98,
0.484,0.02,-0.22,0.11,-0.02,0.17,0.98,
0.486,0.02,-0.22,0.11,-0.02,0.17,0.98,
0.487,0.03,-0.24,0.15,-0.02,0.17,0.98,
0.489,0.03,-0.24,0.15,-0.02,0.16,0.97,
0.491,0.03,-0.24,0.15,-0.02,0.16,0.97,
0.492,0.02,-0.28,0.15,-0.02,0.16,0.97,
0.494,0.02,-0.28,0.15,-0.02,0.16,0.97,
0.496,0.02,-0.28,0.15,-0.02,0.16,0.96,
0.496,0.01,-0.32,0.12,-0.02,0.16,0.96,
0.498,0.01,-0.32,0.12,-0.03,0.15,0.96,
0.501,0.01,-0.32,0.12,-0.03,0.15,0.96,
0.501,-0.02,-0.37,0.05,-0.03,0.15,0.96,
0.503,-0.02,-0.37,0.05,-0.03,0.15,0.95,
0.506,-0.02,-0.37,0.05,-0.03,0.15,0.95,
0.506,-0.09,-0.42,-0.01,-0.03,0.15,0.95,
0.508,-0.09,-0.42,-0.01,-0.04,0.15,0.95,
0.512,-0.09,-0.42,-0.01,-0.04,0.15,0.94,
0.512,-0.13,-0.45,-0.09,-0.04,0.15,0.94,
0.514,-0.13,-0.45,-0.09,-0.04,0.14,0.94,
0.516,-0.13,-0.45,-0.09,-0.03,0.14,0.94,
0.517,-0.17,-0.46,-0.16,-0.03,0.14,0.94,
0.519,-0.17,-0.46,-0.16,-0.04,0.14,0.94,
0.521,-0.17,-0.46,-0.16,-0.03,0.14,0.94,
0.522,-0.17,-0.49,-0.22,-0.03,0.14,0.94,
0.523,-0.17,-0.49,-0.22,-0.03,0.14,0.94,
0.526,-0.17,-0.49,-0.22,-0.03,0.14,0.94,
0.526,-0.16,-0.52,-0.24,-0.03,0.14,0.94,
0.538,-0.16,-0.52,-0.24,-0.03,0.14,0.94,
0.539,-0.16,-0.52,-0.24,-0.03,0.14,0.94,
0.54,-0.14,-0.51,-0.24,-0.03,0.14,0.94,
0.54,-0.14,-0.51,-0.24,-0.03,0.14,0.94,
0.54,-0.14,-0.51,-0.24,-0.02,0.14,0.94,
0.541,-0.12,-0.49,-0.23,-0.02,0.14,0.94,
0.541,-0.12,-0.49,-0.23,-0.02,0.14,0.94,
0.542,-0.12,-0.49,-0.23,-0.01,0.14,0.94,
0.542,-0.08,-0.48,-0.21,-0.01,0.14,0.94,
0.543,-0.08,-0.48,-0.21,-0.01,0.15,0.94,
0.565,-0.08,-0.48,-0.21,-0.01,0.14,0.94,
0.566,0.00,-0.49,-0.19,-0.01,0.14,0.94,
0.566,0.00,-0.49,-0.19,-0.01,0.15,0.94,
0.566,0.00,-0.49,-0.19,-0.00,0.15,0.94,
0.566,0.06,-0.47,-0.18,-0.00,0.15,0.94,
0.566,0.06,-0.47,-0.18,-0.00,0.15,0.95,
0.566,0.06,-0.47,-0.18,0.00,0.15,0.95,
0.566,0.09,-0.45,-0.15,0.00,0.15,0.95,
0.567,0.09,-0.45,-0.15,0.01,0.15,0.95,
0.567,0.09,-0.45,-0.15,0.01,0.15,0.95,
0.567,0.12,-0.43,-0.13,0.01,0.15,0.95,
0.567,0.12,-0.43,-0.13,0.01,0.15,0.95,
0.567,0.12,-0.43,-0.13,0.01,0.15,0.95,
0.567,0.18,-0.43,-0.12,0.01,0.15,0.95,
0.567,0.18,-0.43,-0.12,0.01,0.15,0.95,
0.569,0.18,-0.43,-0.12,0.01,0.15,0.95,
0.57,0.22,-0.43,-0.10,0.01,0.15,0.95,
0.572,0.22,-0.43,-0.10,0.01,0.15,0.95,
0.574,0.22,-0.43,-0.10,0.01,0.15,0.95,
0.574,0.22,-0.43,-0.09,0.01,0.15,0.95,
0.577,0.22,-0.43,-0.09,0.01,0.15,0.95,
0.58,0.22,-0.43,-0.09,0.01,0.15,0.95,
0.58,0.21,-0.44,-0.08,0.01,0.15,0.95,
0.582,0.21,-0.44,-0.08,0.01,0.14,0.95,
0.584,0.21,-0.44,-0.08,0.01,0.14,0.95,
0.584,0.16,-0.45,-0.06,0.01,0.14,0.95,
0.586,0.16,-0.45,-0.06,0.01,0.14,0.96,
0.589,0.16,-0.45,-0.06,0.00,0.14,0.96,
0.589,0.14,-0.47,-0.06,0.00,0.14,0.96,
0.591,0.14,-0.47,-0.06,0.00,0.14,0.96,
0.594,0.14,-0.47,-0.06,0.00,0.14,0.96,
0.595,0.11,-0.49,-0.03,0.00,0.14,0.96,
0.596,0.11,-0.49,-0.03,-0.00,0.13,0.96,
0.599,0.11,-0.49,-0.03,-0.00,0.13,0.96,
0.599,0.07,-0.52,-0.01,-0.00,0.13,0.96,
0.601,0.07,-0.52,-0.01,-0.00,0.13,0.95,
0.604,0.07,-0.52,-0.01,-0.00,0.13,0.95,
0.604,0.03,-0.54,-0.03,-0.00,0.13,0.95,
0.606,0.03,-0.54,-0.03,0.00,0.13,0.95,
0.609,0.03,-0.54,-0.03,0.00,0.12,0.95,
0.609,0.03,-0.59,-0.05,0.00,0.12,0.95,
0.616,0.03,-0.59,-0.05,0.00,0.12,0.95,
0.616,0.03,-0.59,-0.05,0.00,0.12,0.94,
0.617,0.06,-0.63,-0.08,0.00,0.12,0.94,
0.617,0.06,-0.63,-0.08,0.00,0.12,0.94,
0.619,0.06,-0.63,-0.08,0.00,0.12,0.94,
0.619,0.05,-0.66,-0.12,0.00,0.12,0.94,
0.621,0.05,-0.66,-0.12,0.00,0.12,0.94,
0.624,0.05,-0.66,-0.12,0.00,0.12,0.94,
0.624,0.04,-0.68,-0.16,0.00,0.12,0.94,
0.626,0.04,-0.68,-0.16,0.01,0.12,0.94,
0.629,0.04,-0.68,-0.16,0.00,0.12,0.94,
0.629,0.05,-0.69,-0.18,0.00,0.12,0.94,
0.631,0.05,-0.69,-0.18,0.00,0.12,0.94,
0.634,0.05,-0.69,-0.18,0.01,0.12,0.94,
0.634,0.06,-0.67,-0.20,0.01,0.12,0.94,
0.636,0.06,-0.67,-0.20,0.01,0.12,0.94,
0.638,0.06,-0.67,-0.20,0.01,0.12,0.94,
0.638,0.06,-0.65,-0.18,0.01,0.12,0.94,
0.64,0.06,-0.65,-0.18,0.01,0.12,0.95,
0.644,0.06,-0.65,-0.18,0.01,0.12,0.95,
0.644,0.07,-0.64,-0.15,0.01,0.12,0.95,
0.646,0.07,-0.64,-0.15,0.01,0.11,0.95,
0.648,0.07,-0.64,-0.15,0.01,0.11,0.95,
0.65,0.09,-0.65,-0.09,0.01,0.11,0.95,
0.65,0.09,-0.65,-0.09,0.01,0.12,0.95,
0.653,0.09,-0.65,-0.09,0.01,0.12,0.95,
0.653,0.11,-0.68,-0.08,0.01,0.12,0.95,
0.655,0.11,-0.68,-0.08,0.01,0.12,0.95,
0.658,0.11,-0.68,-0.08,0.01,0.11,0.95,
0.658,0.12,-0.65,-0.07,0.01,0.11,0.95,
0.66,0.12,-0.65,-0.07,0.01,0.12,0.95,
0.663,0.12,-0.66,-0.05,0.01,0.12,0.95,
0.663,0.12,-0.66,-0.05,0.01,0.11,0.95,
0.665,0.12,-0.66,-0.05,0.01,0.11,0.95,
0.668,0.10,-0.65,-0.05,0.01,0.11,0.95,
0.668,0.10,-0.65,-0.05,0.02,0.11,0.95,
0.67,0.10,-0.65,-0.05,0.01,0.11,0.94,
0.672,0.10,-0.65,-0.05,0.02,0.11,0.94,
0.673,0.10,-0.67,-0.09,0.02,0.11,0.94,
0.675,0.10,-0.67,-0.09,0.02,0.11,0.94,
0.677,0.10,-0.67,-0.09,0.02,0.11,0.94,
0.678,0.11,-0.70,-0.15,0.02,0.11,0.94,
0.68,0.11,-0.70,-0.15,0.01,0.11,0.93,
0.682,0.11,-0.70,-0.15,0.01,0.11,0.93,
0.683,0.10,-0.72,-0.18,0.01,0.11,0.93,
0.684,0.10,-0.72,-0.18,0.01,0.11,0.92,
0.687,0.10,-0.72,-0.18,0.02,0.11,0.92,
0.688,0.06,-0.73,-0.25,0.02,0.11,0.92,
0.69,0.06,-0.73,-0.25,0.02,0.11,0.92,
0.692,0.06,-0.73,-0.25,0.02,0.10,0.91,
0.692,0.07,-0.72,-0.33,0.02,0.10,0.91,
0.694,0.07,-0.72,-0.33,0.03,0.10,0.91,
0.697,0.07,-0.72,-0.33,0.04,0.10,0.91,
0.698,0.14,-0.74,-0.39,0.04,0.10,0.91,
0.699,0.14,-0.74,-0.39,0.04,0.10,0.91,
0.703,0.14,-0.74,-0.39,0.04,0.10,0.91,
0.703,0.23,-0.79,-0.44,0.04,0.10,0.91,
0.704,0.23,-0.79,-0.44,0.04,0.10,0.91,
0.707,0.23,-0.79,-0.44,0.04,0.10,0.90,
0.707,0.30,-0.80,-0.45,0.04,0.10,0.90,
0.709,0.30,-0.80,-0.45,0.05,0.10,0.90,
0.717,0.30,-0.80,-0.45,0.05,0.10,0.90,
0.717,0.33,-0.78,-0.49,0.05,0.10,0.90,
0.717,0.33,-0.78,-0.49,0.05,0.10,0.90,
0.718,0.33,-0.78,-0.49,0.05,0.10,0.90,
0.718,0.35,-0.75,-0.50,0.05,0.10,0.90,
0.719,0.35,-0.75,-0.50,0.05,0.10,0.91,
0.722,0.35,-0.75,-0.50,0.05,0.10,0.91,
0.722,0.37,-0.71,-0.50,0.05,0.10,0.91,
0.724,0.37,-0.71,-0.50,0.05,0.10,0.91,
0.729,0.37,-0.71,-0.50,0.05,0.10,0.91,
0.729,0.39,-0.70,-0.45,0.05,0.10,0.91,
0.73,0.39,-0.70,-0.45,0.06,0.10,0.91,
0.731,0.39,-0.70,-0.45,0.05,0.10,0.91,
0.732,0.40,-0.73,-0.45,0.05,0.10,0.91,
0.733,0.40,-0.73,-0.45,0.05,0.10,0.91,
0.736,0.40,-0.73,-0.45,0.05,0.10,0.91,
0.736,0.43,-0.69,-0.43,0.05,0.10,0.91,
0.738,0.43,-0.69,-0.43,0.05,0.10,0.91,
0.741,0.43,-0.69,-0.43,0.05,0.10,0.91,
0.741,0.41,-0.69,-0.40,0.05,0.10,0.91,
0.744,0.41,-0.69,-0.40,0.05,0.10,0.92,
0.746,0.41,-0.69,-0.40,0.05,0.10,0.92,
0.746,0.39,-0.69,-0.40,0.05,0.10,0.92,
0.749,0.39,-0.69,-0.40,0.05,0.10,0.92,
0.751,0.39,-0.69,-0.40,0.05,0.09,0.92,
0.751,0.38,-0.70,-0.36,0.05,0.09,0.92,
0.753,0.38,-0.70,-0.36,0.05,0.09,0.92,
0.756,0.38,-0.70,-0.36,0.05,0.09,0.92,
0.756,0.34,-0.70,-0.36,0.05,0.09,0.92,
0.758,0.34,-0.70,-0.36,0.05,0.09,0.92,
0.761,0.34,-0.70,-0.36,0.05,0.09,0.92,
0.761,0.33,-0.71,-0.35,0.05,0.09,0.92,
0.763,0.33,-0.71,-0.35,0.04,0.08,0.92,
0.766,0.33,-0.71,-0.35,0.04,0.08,0.93,
0.767,0.30,-0.75,-0.33,0.04,0.08,0.93,
0.768,0.30,-0.75,-0.33,0.04,0.08,0.93,
0.77,0.30,-0.75,-0.33,0.03,0.08,0.93,
0.771,0.24,-0.79,-0.27,0.03,0.08,0.93,
0.773,0.24,-0.79,-0.27,0.03,0.08,0.93,
0.775,0.24,-0.79,-0.27,0.03,0.08,0.93,
0.776,0.16,-0.78,-0.23,0.03,0.08,0.93,
0.778,0.16,-0.78,-0.23,0.03,0.07,0.93,
0.78,0.16,-0.78,-0.23,0.02,0.07,0.93,
0.781,0.10,-0.82,-0.21,0.02,0.07,0.93,
0.783,0.10,-0.82,-0.21,0.03,0.07,0.93,
0.785,0.10,-0.82,-0.21,0.03,0.07,0.93,
0.785,0.07,-0.87,-0.20,0.03,0.07,0.93,
0.788,0.07,-0.87,-0.20,0.03,0.07,0.93,
0.79,0.07,-0.87,-0.20,0.03,0.06,0.93,
0.79,0.06,-0.88,-0.17,0.03,0.06,0.93,
0.793,0.06,-0.88,-0.17,0.03,0.06,0.93,
0.795,0.06,-0.88,-0.17,0.03,0.06,0.93,
0.796,0.07,-0.89,-0.17,0.03,0.06,0.93,
0.798,0.07,-0.89,-0.17,0.03,0.07,0.93,
0.8,0.07,-0.89,-0.17,0.03,0.07,0.93,
0.8,0.05,-0.91,-0.18,0.03,0.07,0.93,
0.802,0.05,-0.91,-0.18,0.02,0.07,0.93,
0.805,0.05,-0.91,-0.18,0.02,0.08,0.93,
0.805,0.04,-0.86,-0.22,0.02,0.08,0.93,
0.807,0.04,-0.86,-0.22,0.03,0.08,0.93,
0.815,0.04,-0.86,-0.22,0.03,0.08,0.93,
0.816,-0.00,-0.77,-0.23,0.03,0.08,0.93,
0.818,-0.00,-0.77,-0.23,0.04,0.08,0.92,
0.819,-0.00,-0.77,-0.23,0.05,0.08,0.92,
0.819,0.07,-0.74,-0.24,0.05,0.08,0.92,
0.819,0.07,-0.74,-0.24,0.05,0.08,0.92,
0.819,0.07,-0.74,-0.24,0.06,0.08,0.92,
0.82,0.19,-0.72,-0.26,0.06,0.08,0.92,
0.822,0.19,-0.72,-0.26,0.06,0.08,0.92,
0.824,0.19,-0.72,-0.26,0.07,0.09,0.92,
0.825,0.30,-0.68,-0.28,0.07,0.09,0.92,
0.839,0.30,-0.68,-0.28,0.07,0.09,0.92,
0.839,0.30,-0.68,-0.28,0.08,0.09,0.92,
0.839,0.38,-0.64,-0.31,0.08,0.09,0.92,
0.839,0.38,-0.64,-0.31,0.08,0.10,0.91,
0.839,0.38,-0.64,-0.31,0.08,0.10,0.92,
0.84,0.46,-0.57,-0.33,0.08,0.10,0.92,
0.84,0.46,-0.57,-0.33,0.08,0.10,0.91,
0.84,0.49,-0.49,-0.35,0.08,0.10,0.91,
0.84,0.49,-0.49,-0.35,0.08,0.10,0.92,
0.842,0.49,-0.49,-0.35,0.08,0.11,0.91,
0.844,0.49,-0.49,-0.35,0.08,0.11,0.91,
0.844,0.50,-0.44,-0.34,0.08,0.11,0.91,
0.846,0.50,-0.44,-0.34,0.08,0.11,0.91,
0.849,0.50,-0.44,-0.34,0.08,0.11,0.92,
0.849,0.50,-0.37,-0.35,0.08,0.11,0.92,
0.852,0.50,-0.37,-0.35,0.08,0.11,0.92,
0.854,0.50,-0.37,-0.35,0.07,0.11,0.92,
0.854,0.47,-0.34,-0.33,0.07,0.11,0.92,
0.856,0.47,-0.34,-0.33,0.07,0.11,0.92,
0.858,0.47,-0.34,-0.33,0.07,0.11,0.93,
0.858,0.43,-0.33,-0.29,0.07,0.11,0.93,
0.861,0.43,-0.33,-0.29,0.07,0.11,0.93,
0.864,0.43,-0.33,-0.29,0.07,0.10,0.93,
0.864,0.38,-0.31,-0.25,0.07,0.10,0.93,
0.866,0.38,-0.31,-0.25,0.06,0.10,0.93,
0.869,0.38,-0.31,-0.25,0.06,0.10,0.93,
0.869,0.33,-0.34,-0.22,0.06,0.10,0.93,
0.871,0.33,-0.34,-0.22,0.05,0.10,0.93,
0.873,0.33,-0.34,-0.22,0.05,0.10,0.93,
0.874,0.23,-0.36,-0.19,0.05,0.10,0.93,
0.877,0.23,-0.36,-0.19,0.04,0.10,0.93,
0.878,0.23,-0.36,-0.19,0.04,0.10,0.93,
0.879,0.13,-0.34,-0.19,0.04,0.10,0.93,
0.881,0.13,-0.34,-0.19,0.04,0.10,0.93,
0.883,0.13,-0.34,-0.19,0.03,0.10,0.92,
0.883,0.04,-0.34,-0.18,0.03,0.10,0.92,
0.886,0.04,-0.34,-0.18,0.03,0.10,0.92,
0.888,0.04,-0.34,-0.18,0.03,0.09,0.92,
0.888,-0.03,-0.36,-0.23,0.03,0.09,0.92,
0.89,-0.03,-0.36,-0.23,0.03,0.09,0.92,
0.893,-0.03,-0.36,-0.23,0.02,0.09,0.91,
0.894,-0.09,-0.39,-0.28,0.02,0.09,0.91,
0.895,-0.09,-0.39,-0.28,0.02,0.09,0.91,
0.898,-0.09,-0.39,-0.28,0.02,0.09,0.91,
0.898,-0.13,-0.41,-0.32,0.02,0.09,0.91,
0.9,-0.13,-0.41,-0.32,0.02,0.10,0.91,
0.903,-0.13,-0.41,-0.32,0.02,0.10,0.91,
0.903,-0.16,-0.39,-0.36,0.02,0.10,0.91,
0.905,-0.16,-0.39,-0.36,0.03,0.09,0.91,
0.907,-0.16,-0.39,-0.36,0.04,0.09,0.91,
0.908,-0.15,-0.34,-0.36,0.04,0.09,0.91,
0.91,-0.15,-0.34,-0.36,0.04,0.09,0.92,
0.912,-0.15,-0.34,-0.36,0.05,0.09,0.92,
0.913,-0.08,-0.37,-0.34,0.05,0.09,0.92,
0.915,-0.08,-0.37,-0.34,0.05,0.09,0.92,
0.917,-0.08,-0.37,-0.34,0.06,0.09,0.93,
0.918,0.03,-0.38,-0.28,0.06,0.09,0.93,
0.92,0.03,-0.38,-0.28,0.06,0.09,0.93,
0.922,0.03,-0.38,-0.28,0.06,0.09,0.93,
0.923,0.11,-0.38,-0.21,0.06,0.09,0.93,
0.925,0.11,-0.38,-0.21,0.06,0.10,0.94,
0.932,0.11,-0.38,-0.21,0.06,0.10,0.94,
0.932,0.11,-0.33,-0.16,0.06,0.10,0.94,
0.933,0.11,-0.33,-0.16,0.06,0.10,0.95,
0.933,0.11,-0.33,-0.16,0.06,0.10,0.95,
0.933,0.14,-0.26,-0.07,0.06,0.10,0.95,
0.934,0.14,-0.26,-0.07,0.06,0.11,0.96,
0.937,0.14,-0.26,-0.07,0.06,0.11,0.96,
0.937,0.13,-0.21,0.03,0.06,0.11,0.96,
0.939,0.13,-0.21,0.03,0.05,0.11,0.96,
0.942,0.13,-0.21,0.03,0.05,0.12,0.96,
0.948,0.10,-0.14,0.08,0.05,0.12,0.96,
0.949,0.10,-0.14,0.08,0.05,0.12,0.96,
0.949,0.10,-0.14,0.08,0.05,0.12,0.96,
0.949,0.06,-0.04,0.10,0.05,0.12,0.96,
0.949,0.06,-0.04,0.10,0.05,0.13,0.95,
0.952,0.06,-0.04,0.10,0.04,0.13,0.95,
0.952,0.03,0.04,0.07,0.04,0.13,0.95,
0.954,0.03,0.04,0.07,0.05,0.14,0.94,
0.956,0.03,0.04,0.07,0.04,0.15,0.94,
0.957,-0.03,0.14,0.01,0.04,0.15,0.94,
0.96,-0.03,0.14,0.01,0.04,0.15,0.93,
0.962,-0.03,0.26,-0.08,0.04,0.15,0.93,
0.962,-0.03,0.26,-0.08,0.04,0.16,0.93,
0.964,-0.03,0.26,-0.08,0.05,0.16,0.93,
0.967,-0.03,0.26,-0.08,0.05,0.16,0.92,
0.967,-0.03,0.40,-0.18,0.05,0.16,0.92,
0.969,-0.03,0.40,-0.18,0.05,0.16,0.92,
0.971,-0.03,0.40,-0.18,0.06,0.17,0.92,
0.971,0.00,0.46,-0.25,0.06,0.17,0.92,
0.973,0.00,0.46,-0.25,0.06,0.17,0.92,
0.976,0.00,0.46,-0.25,0.06,0.17,0.91,
0.976,0.08,0.50,-0.32,0.06,0.17,0.91,
0.978,0.08,0.50,-0.32,0.07,0.18,0.91,
0.981,0.08,0.50,-0.32,0.07,0.18,0.92,
0.981,0.14,0.56,-0.33,0.07,0.18,0.92,
0.983,0.14,0.56,-0.33,0.07,0.18,0.92,
0.986,0.14,0.56,-0.33,0.07,0.19,0.92,
0.986,0.17,0.65,-0.33,0.07,0.19,0.92,
0.988,0.17,0.65,-0.33,0.07,0.19,0.93,
0.991,0.17,0.65,-0.33,0.08,0.19,0.94,
0.991,0.21,0.72,-0.27,0.08,0.19,0.94,
0.993,0.21,0.72,-0.27,0.08,0.19,0.95,
0.996,0.21,0.72,-0.27,0.08,0.19,0.96,
0.996,0.23,0.77,-0.15,0.08,0.19,0.96,
0.998,0.23,0.77,-0.15,0.08,0.19,0.96,
1.001,0.23,0.77,-0.15,0.08,0.19,0.97,
1.001,0.24,0.78,0.02,0.08,0.19,0.97,
1.003,0.24,0.78,0.02,0.08,0.19,0.98,
1.006,0.24,0.78,0.02,0.07,0.19,0.98,
1.006,0.22,0.79,0.18,0.07,0.19,0.98,
1.008,0.22,0.79,0.18,0.07,0.19,0.99,
1.015,0.16,0.82,0.29,0.07,0.19,0.99,
1.015,0.16,0.82,0.29,0.07,0.20,0.99,
1.015,0.16,0.82,0.29,0.06,0.20,0.99,
1.016,0.16,0.82,0.29,0.05,0.21,1.00,
1.016,0.07,0.88,0.38,0.05,0.21,1.00,
1.018,0.07,0.88,0.38,0.05,0.21,1.00,
1.021,0.07,0.88,0.38,0.05,0.21,1.00,
1.021,-0.05,0.96,0.45,0.05,0.21,1.00,
1.023,-0.05,0.96,0.45,0.04,0.21,1.00,
1.025,-0.05,0.96,0.45,0.05,0.22,1.00,
1.025,-0.16,1.03,0.51,0.05,0.22,1.00,
1.032,-0.16,1.03,0.51,0.05,0.21,1.00,
1.032,-0.16,1.03,0.51,0.05,0.21,1.00,
1.032,-0.20,1.07,0.52,0.05,0.21,1.00,
1.032,-0.20,1.07,0.52,0.05,0.21,1.00,
1.035,-0.20,1.07,0.52,0.05,0.22,1.00,
1.035,-0.18,1.07,0.51,0.05,0.22,1.00,
1.037,-0.18,1.07,0.51,0.05,0.22,0.99,
1.04,-0.18,1.07,0.51,0.05,0.23,0.99,
1.04,-0.15,1.09,0.45,0.05,0.23,0.99,
1.043,-0.15,1.09,0.45,0.06,0.24,0.99,
1.045,-0.15,1.09,0.45,0.05,0.24,0.99,
1.045,-0.16,1.19,0.40,0.05,0.24,0.99,
1.047,-0.16,1.19,0.40,0.06,0.25,0.99,
1.05,-0.16,1.19,0.40,0.06,0.25,0.99,
1.05,-0.14,1.32,0.37,0.06,0.25,0.99,
1.052,-0.14,1.32,0.37,0.07,0.26,0.99,
1.054,-0.14,1.32,0.37,0.07,0.26,0.99,
1.054,-0.10,1.44,0.35,0.07,0.26,0.99,
1.057,-0.10,1.44,0.35,0.08,0.27,0.99,
1.059,-0.10,1.44,0.35,0.08,0.27,0.99,
1.06,-0.03,1.54,0.37,0.08,0.27,0.99,
1.062,-0.03,1.54,0.37,0.09,0.28,0.99,
1.065,-0.03,1.54,0.37,0.09,0.28,1.00,
1.065,0.07,1.63,0.40,0.09,0.28,1.00,
1.066,0.07,1.63,0.40,0.09,0.29,1.00,
1.069,0.07,1.63,0.40,0.10,0.29,1.00,
1.069,0.14,1.70,0.41,0.10,0.29,1.00,
1.071,0.14,1.70,0.41,0.10,0.30,1.01,
1.074,0.18,1.81,0.45,0.10,0.30,1.01,
1.075,0.18,1.81,0.45,0.10,0.30,1.01,
1.076,0.18,1.81,0.45,0.10,0.30,1.01,
1.08,0.18,1.81,0.45,0.10,0.30,1.01,
1.08,0.19,1.89,0.51,0.10,0.30,1.01,
1.082,0.19,1.89,0.51,0.11,0.30,1.02,
1.084,0.20,1.92,0.57,0.11,0.30,1.02,
1.084,0.20,1.92,0.57,0.11,0.31,1.02,
1.086,0.20,1.92,0.57,0.11,0.31,1.02,
1.089,0.20,1.92,0.57,0.11,0.31,1.02,
1.089,0.24,1.93,0.61,0.11,0.31,1.02,
1.091,0.24,1.93,0.61,0.12,0.31,1.02,
1.094,0.24,1.93,0.61,0.13,0.31,1.03,
1.094,0.27,1.95,0.65,0.13,0.31,1.03,
1.096,0.27,1.95,0.65,0.13,0.31,1.03,
1.098,0.27,1.95,0.65,0.13,0.31,1.03,
1.099,0.35,1.94,0.67,0.13,0.31,1.03,
1.101,0.35,1.94,0.67,0.14,0.30,1.03,
1.103,0.35,1.94,0.67,0.14,0.30,1.03,
1.104,0.39,1.92,0.68,0.14,0.30,1.03,
1.106,0.39,1.92,0.68,0.14,0.30,1.02,
1.115,0.39,1.92,0.68,0.14,0.30,1.02,
1.115,0.44,1.87,0.67,0.14,0.30,1.02,
1.116,0.44,1.87,0.67,0.14,0.30,1.02,
1.116,0.44,1.87,0.67,0.14,0.30,1.02,
1.116,0.46,1.84,0.64,0.14,0.30,1.02,
1.116,0.46,1.84,0.64,0.13,0.30,1.03,
1.118,0.46,1.84,0.64,0.12,0.29,1.03,
1.118,0.40,1.83,0.64,0.12,0.29,1.03,
1.12,0.40,1.83,0.64,0.12,0.29,1.03,
1.123,0.40,1.83,0.64,0.11,0.29,1.03,
1.123,0.28,1.81,0.67,0.11,0.29,1.03,
1.13,0.28,1.81,0.67,0.10,0.29,1.03,
1.131,0.28,1.81,0.67,0.10,0.29,1.03,
1.131,0.11,1.79,0.69,0.10,0.29,1.03,
1.131,0.11,1.79,0.69,0.09,0.29,1.03,
1.133,-0.02,1.78,0.73,0.09,0.29,1.03,
1.133,-0.02,1.78,0.73,0.08,0.29,1.03,
1.135,-0.02,1.78,0.73,0.08,0.29,1.04,
1.138,-0.02,1.78,0.73,0.07,0.29,1.04,
1.139,-0.17,1.77,0.75,0.07,0.29,1.04,
1.14,-0.17,1.77,0.75,0.07,0.29,1.05,
1.143,-0.17,1.77,0.75,0.07,0.30,1.05,
1.143,-0.30,1.79,0.82,0.07,0.30,1.05,
1.145,-0.30,1.79,0.82,0.07,0.30,1.06,
1.147,-0.30,1.79,0.82,0.07,0.30,1.06,
1.148,-0.38,1.86,0.92,0.07,0.30,1.06,
1.15,-0.38,1.86,0.92,0.07,0.29,1.07,
1.152,-0.38,1.86,0.92,0.08,0.29,1.07,
1.152,-0.39,1.87,1.01,0.08,0.29,1.07,
1.155,-0.39,1.87,1.01,0.08,0.29,1.07,
1.157,-0.39,1.87,1.01,0.08,0.29,1.07,
1.157,-0.33,1.86,1.10,0.08,0.29,1.07,
1.16,-0.33,1.86,1.10,0.08,0.29,1.07,
1.163,-0.33,1.86,1.10,0.09,0.29,1.07,
1.163,-0.27,1.86,1.12,0.09,0.29,1.07,
1.165,-0.27,1.86,1.12,0.09,0.30,1.07,
1.167,-0.27,1.86,1.12,0.10,0.29,1.07,
1.167,-0.23,1.89,1.14,0.10,0.29,1.07,
1.169,-0.23,1.89,1.14,0.10,0.29,1.07,
1.172,-0.23,1.89,1.14,0.10,0.29,1.07,
1.172,-0.17,1.91,1.11,0.10,0.29,1.07,
1.174,-0.17,1.91,1.11,0.11,0.29,1.08,
1.177,-0.17,1.91,1.11,0.11,0.29,1.08,
1.178,-0.07,1.89,1.12,0.11,0.29,1.08,
1.179,-0.07,1.89,1.12,0.12,0.28,1.08,
1.182,-0.07,1.89,1.12,0.13,0.28,1.08,
1.183,0.02,1.85,1.15,0.13,0.28,1.08,
1.184,0.02,1.85,1.15,0.13,0.28,1.08,
1.187,0.02,1.85,1.15,0.13,0.28,1.08,
1.187,0.14,1.83,1.17,0.13,0.28,1.08,
1.189,0.14,1.83,1.17,0.14,0.28,1.08,
1.192,0.14,1.83,1.17,0.14,0.28,1.08,
1.193,0.22,1.82,1.19,0.14,0.28,1.08,
1.194,0.22,1.82,1.19,0.15,0.27,1.08,
1.197,0.22,1.82,1.19,0.15,0.27,1.08,
1.197,0.32,1.78,1.21,0.15,0.27,1.08,
1.199,0.32,1.78,1.21,0.15,0.27,1.08,
1.201,0.32,1.78,1.21,0.15,0.26,1.07,
1.202,0.36,1.75,1.19,0.15,0.26,1.07,
1.204,0.36,1.75,1.19,0.14,0.26,1.07,
1.206,0.36,1.75,1.19,0.14,0.25,1.06,
1.207,0.36,1.68,1.14,0.14,0.25,1.06,
1.209,0.36,1.68,1.14,0.13,0.25,1.05,
1.212,0.36,1.68,1.14,0.13,0.24,1.04,
1.212,0.31,1.57,1.03,0.13,0.24,1.04,
1.214,0.31,1.57,1.03,0.12,0.24,1.03,
1.216,0.31,1.57,1.03,0.11,0.24,1.03,
1.216,0.21,1.47,0.87,0.11,0.24,1.03,
1.218,0.21,1.47,0.87,0.11,0.23,1.02,
1.221,0.21,1.47,0.87,0.10,0.23,1.02,
1.221,0.08,1.40,0.68,0.10,0.23,1.02,
1.223,0.08,1.40,0.68,0.10,0.22,1.01,
1.23,0.08,1.40,0.68,0.09,0.22,1.01,
1.231,-0.04,1.33,0.57,0.09,0.22,1.01,
1.231,-0.04,1.33,0.57,0.09,0.22,1.01,
1.231,-0.04,1.33,0.57,0.08,0.21,1.00,
1.231,-0.15,1.26,0.47,0.08,0.21,1.00,
1.233,-0.15,1.26,0.47,0.08,0.21,1.01,
1.236,-0.15,1.26,0.47,0.08,0.21,1.01,
1.236,-0.24,1.19,0.43,0.08,0.21,1.01,
1.238,-0.24,1.19,0.43,0.08,0.20,1.01,
1.24,-0.24,1.19,0.43,0.08,0.20,1.02,
1.241,-0.28,1.14,0.46,0.08,0.20,1.02,
1.247,-0.28,1.14,0.46,0.08,0.20,1.02,
1.248,-0.28,1.14,0.46,0.08,0.19,1.03,
1.248,-0.31,1.07,0.53,0.08,0.19,1.03,
1.248,-0.31,1.07,0.53,0.08,0.19,1.03,
1.25,-0.31,1.07,0.53,0.08,0.19,1.04,
1.25,-0.34,1.02,0.63,0.08,0.19,1.04,
1.252,-0.34,1.02,0.63,0.08,0.19,1.05,
1.255,-0.33,0.99,0.74,0.08,0.19,1.05,
1.255,-0.33,0.99,0.74,0.08,0.19,1.05,
1.258,-0.33,0.99,0.74,0.08,0.19,1.06,
1.26,-0.33,0.99,0.74,0.08,0.19,1.07,
1.26,-0.34,0.99,0.87,0.08,0.19,1.07,
1.263,-0.34,0.99,0.87,0.09,0.19,1.07,
1.265,-0.34,0.99,0.87,0.09,0.19,1.07,
1.265,-0.30,1.00,1.00,0.09,0.19,1.07,
1.267,-0.30,1.00,1.00,0.10,0.19,1.08,
1.27,-0.30,1.00,1.00,0.10,0.19,1.08,
1.27,-0.22,0.99,1.07,0.10,0.19,1.08,
1.272,-0.22,0.99,1.07,0.10,0.18,1.08,
1.275,-0.22,0.99,1.07,0.11,0.18,1.07,
1.275,-0.13,0.95,1.12,0.11,0.18,1.07,
1.277,-0.13,0.95,1.12,0.11,0.18,1.07,
1.28,-0.13,0.95,1.12,0.11,0.18,1.07,
1.28,-0.07,0.90,1.11,0.11,0.18,1.07,
1.282,-0.07,0.90,1.11,0.10,0.18,1.06,
1.284,-0.07,0.90,1.11,0.10,0.18,1.06,
1.285,-0.04,0.89,1.07,0.10,0.18,1.06,
1.287,-0.04,0.89,1.07,0.10,0.18,1.05,
1.289,-0.04,0.89,1.07,0.10,0.18,1.04,
1.289,-0.06,0.87,0.97,0.10,0.18,1.04,
1.292,-0.06,0.87,0.97,0.10,0.18,1.04,
1.295,-0.06,0.87,0.97,0.11,0.18,1.03,
1.295,-0.04,0.85,0.83,0.11,0.18,1.03,
1.297,-0.04,0.85,0.83,0.11,0.17,1.02,
1.299,-0.04,0.85,0.83,0.10,0.17,1.01,
1.299,-0.02,0.83,0.67,0.10,0.17,1.01,
1.302,-0.02,0.83,0.67,0.10,0.17,1.01,
1.304,-0.02,0.83,0.67,0.10,0.17,1.00,
1.304,-0.01,0.79,0.51,0.10,0.17,1.00,
1.307,-0.01,0.79,0.51,0.10,0.18,0.99,
1.314,-0.01,0.79,0.51,0.10,0.17,0.99,
1.314,-0.02,0.80,0.38,0.10,0.17,0.99,
1.315,-0.02,0.80,0.38,0.10,0.18,0.98,
1.315,-0.02,0.80,0.38,0.10,0.18,0.98,
1.315,-0.04,0.80,0.27,0.10,0.18,0.98,
1.316,-0.04,0.80,0.27,0.09,0.18,0.97,
1.319,-0.04,0.80,0.27,0.09,0.18,0.98,
1.319,-0.06,0.82,0.18,0.09,0.18,0.98,
1.321,-0.06,0.82,0.18,0.09,0.18,0.98,
1.324,-0.06,0.82,0.18,0.09,0.18,0.97,
1.324,-0.08,0.85,0.11,0.09,0.18,0.97,
1.33,-0.08,0.85,0.11,0.09,0.18,0.98,
1.33,-0.08,0.85,0.11,0.10,0.18,0.98,
1.33,-0.07,0.84,0.12,0.10,0.18,0.98,
1.331,-0.07,0.84,0.12,0.10,0.18,0.98,
1.333,-0.07,0.84,0.12,0.10,0.18,0.98,
1.334,-0.05,0.84,0.13,0.10,0.18,0.98,
1.336,-0.05,0.84,0.13,0.10,0.18,0.99,
1.338,-0.05,0.84,0.13,0.11,0.17,0.99,
1.338,-0.02,0.81,0.18,0.11,0.17,0.99,
1.341,-0.02,0.81,0.18,0.11,0.17,0.99,
1.343,-0.02,0.81,0.18,0.11,0.17,0.99,
1.344,0.03,0.82,0.23,0.11,0.17,0.99,
1.346,0.03,0.82,0.23,0.11,0.17,0.99,
1.349,0.03,0.82,0.23,0.11,0.17,1.00,
1.349,0.07,0.79,0.28,0.11,0.17,1.00,
1.35,0.07,0.79,0.28,0.12,0.17,1.00,
1.353,0.07,0.79,0.28,0.12,0.17,1.00,
1.353,0.11,0.74,0.31,0.12,0.17,1.00,
1.355,0.11,0.74,0.31,0.12,0.16,1.00,
1.358,0.11,0.74,0.31,0.12,0.16,0.99,
1.358,0.17,0.71,0.32,0.12,0.16,0.99,
1.36,0.17,0.71,0.32,0.13,0.16,0.99,
1.363,0.17,0.71,0.32,0.13,0.16,0.99,
1.363,0.23,0.68,0.30,0.13,0.16,0.99,
1.365,0.23,0.68,0.30,0.14,0.16,0.99,
1.368,0.23,0.68,0.30,0.14,0.16,0.98,
1.368,0.32,0.66,0.25,0.14,0.16,0.98,
1.37,0.32,0.66,0.25,0.14,0.16,0.98,
1.373,0.32,0.66,0.25,0.14,0.16,0.97,
1.373,0.41,0.62,0.19,0.14,0.16,0.97,
1.375,0.41,0.62,0.19,0.15,0.16,0.97,
1.378,0.41,0.62,0.19,0.15,0.16,0.96,
1.378,0.46,0.61,0.10,0.15,0.16,0.96,
1.38,0.46,0.61,0.10,0.15,0.16,0.95,
1.383,0.46,0.61,0.10,0.16,0.16,0.95,
1.383,0.53,0.60,-0.02,0.16,0.16,0.95,
1.385,0.53,0.60,-0.02,0.16,0.15,0.94,
1.387,0.53,0.60,-0.02,0.16,0.15,0.94,
1.388,0.60,0.60,-0.14,0.16,0.15,0.94,
1.39,0.60,0.60,-0.14,0.16,0.15,0.93,
1.392,0.60,0.60,-0.14,0.16,0.15,0.93,
1.393,0.65,0.58,-0.24,0.16,0.15,0.93,
1.395,0.65,0.58,-0.24,0.16,0.16,0.93,
1.397,0.65,0.58,-0.24,0.16,0.15,0.92,
1.397,0.67,0.58,-0.33,0.16,0.15,0.92,
1.4,0.67,0.58,-0.33,0.16,0.16,0.92,
1.402,0.67,0.58,-0.33,0.16,0.16,0.92,
1.403,0.68,0.60,-0.40,0.16,0.16,0.92,
1.405,0.68,0.60,-0.40,0.16,0.15,0.92,
1.407,0.68,0.60,-0.40,0.16,0.15,0.91,
1.407,0.71,0.61,-0.44,0.16,0.15,0.91,
1.414,0.71,0.61,-0.44,0.16,0.15,0.91,
1.415,0.71,0.61,-0.44,0.16,0.15,0.91,
1.415,0.72,0.60,-0.50,0.16,0.15,0.91,
1.415,0.72,0.60,-0.50,0.16,0.15,0.91,
1.417,0.72,0.60,-0.50,0.16,0.15,0.91,
1.417,0.76,0.57,-0.53,0.16,0.15,0.91,
1.419,0.76,0.57,-0.53,0.16,0.15,0.91,
1.422,0.76,0.57,-0.53,0.16,0.15,0.92,
1.422,0.80,0.56,-0.52,0.16,0.15,0.92,
1.427,0.80,0.56,-0.52,0.16,0.15,0.92,
1.428,0.80,0.56,-0.52,0.16,0.15,0.92,
1.428,0.79,0.57,-0.50,0.16,0.15,0.92,
1.429,0.79,0.57,-0.50,0.16,0.15,0.92,
1.431,0.79,0.57,-0.50,0.17,0.15,0.92,
1.431,0.81,0.57,-0.48,0.17,0.15,0.92,
1.434,0.81,0.57,-0.48,0.17,0.15,0.93,
1.436,0.81,0.57,-0.48,0.17,0.15,0.93,
1.436,0.85,0.57,-0.45,0.17,0.15,0.93,
1.438,0.85,0.57,-0.45,0.18,0.14,0.93,
1.441,0.85,0.57,-0.45,0.18,0.14,0.93,
1.442,0.90,0.54,-0.39,0.18,0.14,0.93,
1.444,0.90,0.54,-0.39,0.18,0.14,0.93,
1.446,0.90,0.54,-0.39,0.19,0.14,0.94,
1.447,0.99,0.53,-0.36,0.19,0.14,0.94,
1.449,0.99,0.53,-0.36,0.19,0.14,0.94,
1.451,0.99,0.53,-0.36,0.19,0.15,0.94,
1.451,1.06,0.52,-0.30,0.19,0.15,0.94,
1.453,1.06,0.52,-0.30,0.19,0.15,0.95,
1.456,1.06,0.52,-0.30,0.19,0.14,0.95,
1.456,1.10,0.53,-0.24,0.19,0.14,0.95,
1.458,1.10,0.53,-0.24,0.19,0.14,0.96,
1.461,1.10,0.53,-0.24,0.19,0.14,0.96,
1.461,1.14,0.53,-0.17,0.19,0.14,0.96,
1.464,1.14,0.53,-0.17,0.19,0.14,0.97,
1.466,1.14,0.53,-0.17,0.20,0.14,0.97,
1.466,1.14,0.50,-0.07,0.20,0.14,0.97,
1.468,1.14,0.50,-0.07,0.20,0.14,0.98,
1.471,1.14,0.50,-0.07,0.20,0.14,0.98,
1.471,1.15,0.50,0.02,0.20,0.14,0.98,
1.473,1.15,0.50,0.02,0.19,0.14,0.99,
1.476,1.15,0.50,0.02,0.20,0.15,0.99,
1.476,1.15,0.52,0.12,0.20,0.15,0.99,
1.478,1.15,0.52,0.12,0.20,0.14,1.00,
1.48,1.15,0.52,0.12,0.20,0.15,1.00,
1.481,1.15,0.54,0.22,0.20,0.15,1.00,
1.483,1.15,0.54,0.22,0.20,0.15,1.00,
1.486,1.15,0.54,0.22,0.20,0.15,1.00,
1.486,1.17,0.55,0.30,0.20,0.15,1.00,
1.488,1.17,0.55,0.30,0.19,0.15,1.00,
1.491,1.17,0.55,0.30,0.19,0.15,1.00,
1.492,1.16,0.56,0.34,0.19,0.15,1.00,
1.495,1.16,0.56,0.34,0.19,0.15,1.00,
1.496,1.16,0.56,0.34,0.19,0.15,1.00,
1.496,1.13,0.55,0.34,0.19,0.15,1.00,
1.498,1.13,0.55,0.34,0.19,0.15,0.99,
1.5,1.13,0.55,0.34,0.19,0.15,0.99,
1.5,1.13,0.56,0.31,0.19,0.15,0.99,
1.503,1.13,0.56,0.31,0.19,0.16,0.98,
1.505,1.13,0.56,0.31,0.19,0.16,0.97,
1.505,1.12,0.62,0.24,0.19,0.16,0.97,
1.508,1.12,0.62,0.24,0.19,0.17,0.96,
1.51,1.12,0.62,0.24,0.19,0.17,0.95,
1.51,1.11,0.69,0.08,0.19,0.17,0.95,
1.512,1.11,0.69,0.08,0.20,0.17,0.94,
1.515,1.11,0.69,0.08,0.20,0.17,0.94,
1.515,1.17,0.76,-0.09,0.20,0.17,0.94,
1.517,1.17,0.76,-0.09,0.21,0.18,0.93,
1.52,1.17,0.76,-0.09,0.21,0.18,0.92,
1.52,1.28,0.80,-0.26,0.21,0.18,0.92,
1.522,1.28,0.80,-0.26,0.22,0.18,0.92,
1.53,1.28,0.80,-0.26,0.22,0.18,0.91,
1.53,1.39,0.86,-0.41,0.22,0.18,0.91,
1.53,1.39,0.86,-0.41,0.23,0.18,0.91,
1.531,1.39,0.86,-0.41,0.23,0.19,0.91,
1.531,1.50,0.89,-0.50,0.23,0.19,0.91,
1.532,1.50,0.89,-0.50,0.23,0.19,0.92,
1.534,1.50,0.89,-0.50,0.24,0.19,0.92,
1.535,1.60,0.95,-0.55,0.24,0.19,0.92,
1.537,1.60,0.95,-0.55,0.24,0.19,0.92,
1.539,1.60,0.95,-0.55,0.24,0.19,0.93,
1.539,1.67,0.99,-0.49,0.24,0.19,0.93,
1.544,1.67,0.99,-0.49,0.24,0.19,0.94,
1.544,1.67,0.99,-0.49,0.24,0.19,0.95,
1.544,1.75,1.04,-0.40,0.24,0.19,0.95,
1.546,1.75,1.04,-0.40,0.24,0.19,0.95,
1.549,1.75,1.04,-0.40,0.24,0.19,0.96,
1.549,1.76,1.06,-0.27,0.24,0.19,0.96,
1.551,1.76,1.06,-0.27,0.23,0.19,0.97,
1.554,1.76,1.06,-0.27,0.23,0.19,0.99,
1.554,1.74,1.08,-0.09,0.23,0.19,0.99,
1.556,1.74,1.08,-0.09,0.22,0.19,1.00,
1.559,1.74,1.08,-0.09,0.21,0.19,1.01,
1.559,1.68,1.08,0.11,0.21,0.19,1.01,
1.561,1.68,1.08,0.11,0.20,0.18,1.02,
1.564,1.68,1.08,0.11,0.19,0.18,1.03,
1.564,1.53,1.06,0.33,0.19,0.18,1.03,
1.566,1.53,1.06,0.33,0.18,0.18,1.03,
1.568,1.53,1.06,0.33,0.16,0.18,1.04,
1.569,1.33,1.00,0.54,0.16,0.18,1.04,
1.571,1.33,1.00,0.54,0.16,0.17,1.05,
1.574,1.33,1.00,0.54,0.15,0.17,1.05,
1.575,1.14,0.95,0.67,0.15,0.17,1.05,
1.576,1.14,0.95,0.67,0.14,0.16,1.05,
1.579,1.14,0.95,0.67,0.13,0.16,1.05,
1.579,0.96,0.87,0.76,0.13,0.16,1.05,
1.581,0.96,0.87,0.76,0.12,0.16,1.05,
1.583,0.96,0.87,0.76,0.11,0.15,1.05,
1.583,0.79,0.79,0.81,0.11,0.15,1.05,
1.585,0.79,0.79,0.81,0.11,0.15,1.05,
1.588,0.79,0.79,0.81,0.10,0.15,1.05,
1.588,0.62,0.72,0.81,0.10,0.15,1.05,
1.591,0.62,0.72,0.81,0.10,0.15,1.05,
1.593,0.62,0.72,0.81,0.10,0.15,1.05,
1.593,0.50,0.71,0.82,0.10,0.15,1.05,
1.595,0.50,0.71,0.82,0.10,0.15,1.04,
1.598,0.50,0.71,0.82,0.10,0.14,1.03,
1.598,0.44,0.68,0.77,0.10,0.14,1.03,
1.6,0.44,0.68,0.77,0.11,0.14,1.03,
1.603,0.44,0.68,0.77,0.11,0.14,1.02,
1.603,0.47,0.61,0.67,0.11,0.14,1.02,
1.606,0.47,0.61,0.67,0.12,0.14,1.01,
1.608,0.47,0.61,0.67,0.12,0.14,1.01,
1.609,0.58,0.53,0.54,0.12,0.14,1.01,
1.61,0.58,0.53,0.54,0.13,0.14,1.00,
1.613,0.58,0.53,0.54,0.13,0.14,1.00,
1.613,0.67,0.51,0.41,0.13,0.14,1.00,
1.615,0.67,0.51,0.41,0.13,0.14,0.99,
1.618,0.67,0.51,0.41,0.13,0.14,0.98,
1.618,0.73,0.50,0.29,0.13,0.14,0.98,
1.62,0.73,0.50,0.29,0.13,0.14,0.98,
1.623,0.73,0.50,0.29,0.14,0.15,0.98,
1.623,0.78,0.53,0.18,0.14,0.15,0.98,
1.63,0.78,0.53,0.18,0.14,0.15,0.98,
1.63,0.78,0.53,0.18,0.14,0.15,0.98,
1.632,0.84,0.55,0.10,0.14,0.15,0.98,
1.632,0.84,0.55,0.10,0.15,0.16,0.98,
1.633,0.84,0.55,0.10,0.15,0.16,0.98,
1.633,0.91,0.60,0.06,0.15,0.16,0.98,
1.635,0.91,0.60,0.06,0.15,0.16,0.98,
1.637,0.91,0.60,0.06,0.16,0.16,0.99,
1.638,0.96,0.67,0.09,0.16,0.16,0.99,
1.64,0.96,0.67,0.09,0.16,0.16,0.99,
1.644,0.96,0.67,0.09,0.16,0.17,1.00,
1.644,1.02,0.70,0.15,0.16,0.17,1.00,
1.644,1.02,0.70,0.15,0.17,0.17,1.00,
1.647,1.02,0.70,0.15,0.16,0.16,1.00,
1.647,1.08,0.72,0.23,0.16,0.16,1.00,
1.649,1.08,0.72,0.23,0.17,0.16,1.01,
1.652,1.08,0.72,0.23,0.16,0.16,1.01,
1.652,1.10,0.70,0.32,0.16,0.16,1.01,
1.654,1.10,0.70,0.32,0.16,0.16,1.00,
1.657,1.10,0.70,0.32,0.15,0.16,1.00,
1.657,1.10,0.64,0.35,0.15,0.16,1.00,
1.659,1.10,0.64,0.35,0.15,0.16,1.00,
1.662,1.10,0.64,0.35,0.14,0.16,1.00,
1.662,1.00,0.64,0.30,0.14,0.16,1.00,
1.664,1.00,0.64,0.30,0.14,0.15,0.99,
1.666,1.00,0.64,0.30,0.13,0.15,0.99,
1.667,0.87,0.62,0.26,0.13,0.15,0.99,
1.669,0.87,0.62,0.26,0.12,0.14,0.98,
1.671,0.87,0.62,0.26,0.12,0.14,0.98,
1.671,0.77,0.50,0.21,0.12,0.14,0.98,
1.674,0.77,0.50,0.21,0.11,0.14,0.97,
1.676,0.77,0.50,0.21,0.11,0.13,0.97,
1.677,0.64,0.42,0.09,0.11,0.13,0.97,
1.679,0.64,0.42,0.09,0.10,0.13,0.97,
1.681,0.64,0.42,0.09,0.10,0.12,0.96,
1.681,0.55,0.35,0.01,0.10,0.12,0.96,
1.683,0.55,0.35,0.01,0.10,0.12,0.96,
1.686,0.55,0.35,0.01,0.10,0.11,0.95,
1.686,0.46,0.24,-0.07,0.10,0.11,0.95,
1.688,0.46,0.24,-0.07,0.09,0.11,0.95,
1.691,0.46,0.24,-0.07,0.09,0.11,0.95,
1.692,0.45,0.15,-0.17,0.09,0.11,0.95,
1.693,0.45,0.15,-0.17,0.09,0.11,0.95,
1.696,0.45,0.15,-0.17,0.08,0.12,0.95,
1.696,0.38,0.11,-0.23,0.08,0.12,0.95,
1.698,0.38,0.11,-0.23,0.08,0.12,0.95,
1.701,0.38,0.11,-0.23,0.08,0.13,0.96,
1.701,0.32,0.14,-0.21,0.08,0.13,0.96,
1.703,0.32,0.14,-0.21,0.08,0.13,0.96,
1.705,0.32,0.14,-0.21,0.08,0.13,0.97,
1.706,0.27,0.21,-0.16,0.08,0.13,0.97,
1.713,0.27,0.21,-0.16,0.08,0.13,0.97,
1.713,0.27,0.21,-0.16,0.08,0.14,0.97,
1.713,0.26,0.25,-0.06,0.08,0.14,0.97,
1.714,0.26,0.25,-0.06,0.08,0.14,0.98,
1.715,0.26,0.25,-0.06,0.08,0.14,0.98,
1.716,0.27,0.31,0.03,0.08,0.14,0.98,
1.718,0.27,0.31,0.03,0.08,0.15,0.98,
1.72,0.27,0.31,0.03,0.08,0.15,0.98,
1.721,0.30,0.36,0.09,0.08,0.15,0.98,
1.723,0.30,0.36,0.09,0.08,0.17,0.98,
1.727,0.30,0.36,0.09,0.08,0.17,0.98,
1.727,0.30,0.45,0.10,0.08,0.17,0.98,
1.728,0.30,0.45,0.10,0.07,0.17,0.98,
1.73,0.30,0.45,0.10,0.07,0.17,0.97,
1.73,0.28,0.60,0.11,0.07,0.17,0.97,
1.732,0.28,0.60,0.11,0.07,0.17,0.97,
1.735,0.28,0.60,0.11,0.06,0.17,0.97,
1.735,0.23,0.63,0.06,0.06,0.17,0.97,
1.737,0.23,0.63,0.06,0.06,0.17,0.96,
1.74,0.23,0.63,0.06,0.05,0.17,0.96,
1.74,0.15,0.60,-0.00,0.05,0.17,0.96,
1.742,0.15,0.60,-0.00,0.04,0.17,0.96,
1.745,0.15,0.60,-0.00,0.04,0.18,0.96,
1.745,0.06,0.60,-0.07,0.04,0.18,0.96,
1.747,0.06,0.60,-0.07,0.04,0.17,0.96,
1.75,0.06,0.60,-0.07,0.03,0.17,0.96,
1.75,-0.05,0.62,-0.09,0.03,0.17,0.96,
1.752,-0.05,0.62,-0.09,0.03,0.17,0.96,
1.754,-0.05,0.62,-0.09,0.02,0.17,0.96,
1.755,-0.13,0.59,-0.13,0.02,0.17,0.96,
1.757,-0.13,0.59,-0.13,0.02,0.16,0.96,
1.76,-0.13,0.59,-0.13,0.01,0.16,0.96,
1.76,-0.21,0.53,-0.13,0.01,0.16,0.96,
1.762,-0.21,0.53,-0.13,0.01,0.16,0.96,
1.764,-0.21,0.53,-0.13,0.00,0.16,0.96,
1.765,-0.28,0.45,-0.10,0.00,0.16,0.96,
1.767,-0.28,0.45,-0.10,0.00,0.15,0.96,
1.769,-0.28,0.45,-0.10,-0.00,0.15,0.96,
1.77,-0.39,0.40,-0.08,-0.00,0.15,0.96,
1.772,-0.39,0.40,-0.08,-0.00,0.14,0.96,
1.774,-0.39,0.40,-0.08,-0.00,0.14,0.96,
1.775,-0.43,0.32,-0.06,-0.00,0.14,0.96,
1.777,-0.43,0.32,-0.06,0.00,0.14,0.96,
1.779,-0.43,0.32,-0.06,0.00,0.14,0.97,
1.78,-0.46,0.25,-0.06,0.00,0.14,0.97,
1.782,-0.46,0.25,-0.06,0.00,0.13,0.97,
1.784,-0.46,0.25,-0.06,0.01,0.12,0.97,
1.784,-0.43,0.18,-0.04,0.01,0.12,0.97,
1.786,-0.43,0.18,-0.04,0.01,0.12,0.97,
1.789,-0.43,0.18,-0.04,0.01,0.11,0.97,
1.789,-0.39,0.08,-0.01,0.01,0.11,0.97,
1.793,-0.39,0.08,-0.01,0.01,0.11,0.97,
1.795,-0.39,0.08,-0.01,0.01,0.10,0.97,
1.796,-0.34,-0.04,0.04,0.01,0.10,0.97,
1.796,-0.34,-0.04,0.04,0.01,0.09,0.98,
1.799,-0.34,-0.04,0.04,0.00,0.09,0.97,
1.799,-0.35,-0.16,0.06,0.00,0.09,0.97,
1.801,-0.35,-0.16,0.06,-0.00,0.09,0.97,
1.804,-0.35,-0.16,0.06,-0.01,0.09,0.97,
1.804,-0.40,-0.28,0.07,-0.01,0.09,0.97,
1.806,-0.40,-0.28,0.07,-0.01,0.08,0.97,
1.809,-0.40,-0.28,0.07,-0.02,0.08,0.97,
1.809,-0.50,-0.34,0.06,-0.02,0.08,0.97,
1.811,-0.50,-0.34,0.06,-0.03,0.07,0.97,
1.813,-0.50,-0.34,0.06,-0.03,0.07,0.97,
1.814,-0.60,-0.42,0.04,-0.03,0.07,0.97,
1.816,-0.60,-0.42,0.04,-0.04,0.06,0.97,
1.818,-0.60,-0.42,0.04,-0.04,0.05,0.97,
1.819,-0.72,-0.51,0.02,-0.04,0.05,0.97,
1.82,-0.72,-0.51,0.02,-0.05,0.05,0.96,
1.825,-0.72,-0.51,0.02,-0.06,0.05,0.96,
1.826,-0.84,-0.63,0.00,-0.06,0.05,0.96,
1.826,-0.84,-0.63,0.00,-0.06,0.04,0.96,
1.828,-0.84,-0.63,0.00,-0.07,0.04,0.95,
1.828,-0.96,-0.71,-0.06,-0.07,0.04,0.95,
1.83,-0.96,-0.71,-0.06,-0.08,0.04,0.95,
1.833,-0.96,-0.71,-0.06,-0.07,0.03,0.94,
1.833,-1.11,-0.79,-0.14,-0.07,0.03,0.94,
1.835,-1.11,-0.79,-0.14,-0.07,0.03,0.94,
1.838,-1.11,-0.79,-0.14,-0.07,0.03,0.93,
1.838,-1.17,-0.85,-0.23,-0.07,0.03,0.93,
1.84,-1.17,-0.85,-0.23,-0.07,0.02,0.93,
1.843,-1.17,-0.85,-0.23,-0.06,0.02,0.93,
1.843,-1.14,-0.92,-0.32,-0.06,0.02,0.93,
1.846,-1.14,-0.92,-0.32,-0.05,0.02,0.92,
1.848,-1.14,-0.92,-0.32,-0.04,0.02,0.92,
1.848,-1.01,-1.00,-0.39,-0.04,0.02,0.92,
1.85,-1.01,-1.00,-0.39,-0.03,0.02,0.92,
1.852,-1.01,-1.00,-0.39,-0.02,0.02,0.92,
1.853,-0.84,-1.01,-0.46,-0.02,0.02,0.92,
1.855,-0.84,-1.01,-0.46,-0.01,0.02,0.91,
1.858,-0.84,-1.01,-0.46,0.00,0.02,0.91,
1.858,-0.62,-0.99,-0.50,0.00,0.02,0.91,
1.86,-0.62,-0.99,-0.50,0.01,0.02,0.91,
1.863,-0.62,-0.99,-0.50,0.02,0.02,0.91,
1.863,-0.39,-0.98,-0.55,0.02,0.02,0.91,
1.865,-0.39,-0.98,-0.55,0.02,0.02,0.92,
1.867,-0.39,-0.98,-0.55,0.03,0.03,0.92,
1.868,-0.22,-0.97,-0.54,0.03,0.03,0.92,
1.87,-0.22,-0.97,-0.54,0.03,0.03,0.92,
1.872,-0.22,-0.97,-0.54,0.03,0.03,0.92,
1.872,-0.12,-0.91,-0.49,0.03,0.03,0.92,
1.875,-0.12,-0.91,-0.49,0.03,0.03,0.93,
1.877,-0.12,-0.91,-0.49,0.02,0.03,0.94,
1.878,-0.12,-0.85,-0.45,0.02,0.03,0.94,
1.88,-0.12,-0.85,-0.45,0.02,0.03,0.95,
1.882,-0.12,-0.85,-0.45,0.01,0.02,0.95,
1.882,-0.15,-0.83,-0.33,0.01,0.02,0.95,
1.884,-0.15,-0.83,-0.33,0.01,0.02,0.96,
1.887,-0.15,-0.83,-0.33,0.00,0.01,0.97,
1.887,-0.22,-0.90,-0.17,0.00,0.01,0.97,
1.89,-0.22,-0.90,-0.17,-0.01,0.00,0.97,
1.892,-0.22,-0.90,-0.17,-0.02,-0.00,0.98,
1.892,-0.36,-1.04,-0.03,-0.02,-0.00,0.98,
1.894,-0.36,-1.04,-0.03,-0.03,-0.01,0.98,
1.897,-0.36,-1.04,-0.03,-0.04,-0.02,0.98,
1.897,-0.56,-1.17,0.09,-0.04,-0.02,0.98,
1.899,-0.56,-1.17,0.09,-0.05,-0.03,0.99,
1.902,-0.56,-1.17,0.09,-0.06,-0.04,0.99,
1.902,-0.78,-1.35,0.15,-0.06,-0.04,0.99,
1.904,-0.78,-1.35,0.15,-0.07,-0.05,0.99,
1.907,-0.78,-1.35,0.15,-0.09,-0.06,0.99,
1.908,-1.03,-1.52,0.21,-0.09,-0.06,0.99,
1.909,-1.03,-1.52,0.21,-0.10,-0.06,0.99,
1.911,-1.03,-1.52,0.21,-0.11,-0.07,0.99,
1.912,-1.27,-1.68,0.24,-0.11,-0.07,0.99,
1.914,-1.27,-1.68,0.24,-0.12,-0.08,0.99,
1.916,-1.27,-1.68,0.24,-0.12,-0.09,0.99,
1.916,-1.51,-1.85,0.22,-0.12,-0.09,0.99,
1.918,-1.51,-1.85,0.22,-0.13,-0.09,0.98,
1.921,-1.51,-1.85,0.22,-0.14,-0.10,0.98,
1.921,-1.66,-2.01,0.19,-0.14,-0.10,0.98,
1.928,-1.66,-2.01,0.19,-0.14,-0.11,0.98,
1.929,-1.66,-2.01,0.19,-0.15,-0.12,0.99,
1.929,-1.82,-2.13,0.17,-0.15,-0.12,0.99,
1.929,-1.82,-2.13,0.17,-0.15,-0.12,0.99,
1.931,-1.82,-2.13,0.17,-0.15,-0.12,0.99,
1.931,-1.91,-2.28,0.19,-0.15,-0.12,0.99,
1.934,-1.91,-2.28,0.19,-0.15,-0.12,0.99,
1.936,-1.91,-2.28,0.19,-0.16,-0.12,1.00,
1.936,-1.95,-2.35,0.22,-0.16,-0.12,1.00,
1.938,-1.95,-2.35,0.22,-0.16,-0.11,1.01,
1.943,-1.95,-2.35,0.22,-0.16,-0.11,1.01,
1.943,-2.01,-2.33,0.28,-0.16,-0.11,1.01,
1.943,-2.01,-2.33,0.28,-0.15,-0.10,1.02,
1.946,-2.01,-2.33,0.28,-0.15,-0.10,1.02,
1.946,-2.01,-2.23,0.41,-0.15,-0.10,1.02,
1.948,-2.01,-2.23,0.41,-0.14,-0.10,1.03,
1.95,-2.01,-2.23,0.41,-0.14,-0.10,1.03,
1.951,-1.96,-2.13,0.51,-0.14,-0.10,1.03,
1.953,-1.96,-2.13,0.51,-0.13,-0.09,1.04,
1.955,-1.96,-2.13,0.51,-0.12,-0.09,1.04,
1.956,-1.82,-2.08,0.61,-0.12,-0.09,1.04,
1.958,-1.82,-2.08,0.61,-0.11,-0.08,1.04,
1.961,-1.82,-2.08,0.61,-0.10,-0.07,1.04,
1.961,-1.63,-1.99,0.70,-0.10,-0.07,1.04,
1.963,-1.63,-1.99,0.70,-0.09,-0.07,1.05,
1.965,-1.63,-1.99,0.70,-0.08,-0.06,1.05,
1.966,-1.44,-1.87,0.72,-0.08,-0.06,1.05,
1.967,-1.44,-1.87,0.72,-0.07,-0.06,1.05,
1.97,-1.44,-1.87,0.72,-0.06,-0.06,1.05,
1.97,-1.23,-1.76,0.78,-0.06,-0.06,1.05,
1.973,-1.23,-1.76,0.78,-0.05,-0.06,1.04,
1.975,-1.23,-1.76,0.78,-0.04,-0.06,1.04,
1.975,-1.03,-1.69,0.77,-0.04,-0.06,1.04,
1.978,-1.03,-1.69,0.77,-0.04,-0.05,1.03,
1.98,-1.03,-1.69,0.77,-0.04,-0.04,1.03,
1.98,-0.87,-1.66,0.70,-0.04,-0.04,1.03,
1.983,-0.87,-1.66,0.70,-0.04,-0.04,1.03,
1.985,-0.87,-1.66,0.70,-0.04,-0.03,1.02,
1.985,-0.78,-1.57,0.62,-0.04,-0.03,1.02,
1.987,-0.78,-1.57,0.62,-0.04,-0.02,1.01,
1.99,-0.78,-1.57,0.62,-0.05,-0.02,1.00,
1.991,-0.80,-1.44,0.51,-0.05,-0.02,1.00,
1.992,-0.80,-1.44,0.51,-0.05,-0.02,0.99,
1.995,-0.80,-1.44,0.51,-0.05,-0.02,0.98,
1.995,-0.84,-1.33,0.33,-0.05,-0.02,0.98,
1.997,-0.84,-1.33,0.33,-0.06,-0.02,0.97,
2.0,-0.84,-1.33,0.33,-0.05,-0.02,0.97,
2.0,-0.91,-1.29,0.17,-0.05,-0.02,0.97,
2.002,-0.91,-1.29,0.17,-0.05,-0.02,0.96,
2.004,-0.91,-1.29,0.17,-0.05,-0.02,0.95,
2.005,-0.93,-1.30,0.01,-0.05,-0.02,0.95,
2.007,-0.93,-1.30,0.01,-0.06,-0.03,0.95,
2.01,-0.93,-1.30,0.01,-0.06,-0.03,0.94,
2.01,-0.91,-1.35,-0.14,-0.06,-0.03,0.94,
2.012,-0.91,-1.35,-0.14,-0.07,-0.04,0.94,
2.014,-0.91,-1.35,-0.14,-0.07,-0.04,0.94,
2.015,-0.97,-1.43,-0.23,-0.07,-0.04,0.94,
2.017,-0.97,-1.43,-0.23,-0.08,-0.04,0.94,
2.019,-0.97,-1.43,-0.23,-0.08,-0.04,0.94,
2.02,-1.06,-1.48,-0.31,-0.08,-0.04,0.94,
2.022,-1.06,-1.48,-0.31,-0.09,-0.05,0.94,
2.029,-1.06,-1.48,-0.31,-0.09,-0.05,0.94,
2.029,-1.18,-1.52,-0.30,-0.09,-0.05,0.94,
2.03,-1.18,-1.52,-0.30,-0.10,-0.05,0.95,
2.03,-1.18,-1.52,-0.30,-0.10,-0.06,0.96,
2.03,-1.27,-1.59,-0.27,-0.10,-0.06,0.96,
2.031,-1.27,-1.59,-0.27,-0.10,-0.06,0.96,
2.034,-1.27,-1.59,-0.27,-0.10,-0.06,0.97,
2.035,-1.34,-1.65,-0.15,-0.10,-0.06,0.97,
2.036,-1.34,-1.65,-0.15,-0.10,-0.06,0.98,
2.039,-1.34,-1.65,-0.15,-0.09,-0.06,0.98,
2.04,-1.35,-1.69,-0.02,-0.09,-0.06,0.98,
2.044,-1.35,-1.69,-0.02,-0.09,-0.06,0.99,
2.044,-1.35,-1.69,-0.02,-0.09,-0.06,1.00,
2.044,-1.31,-1.70,0.11,-0.09,-0.06,1.00,
2.046,-1.31,-1.70,0.11,-0.08,-0.06,1.01,
2.049,-1.31,-1.70,0.11,-0.08,-0.06,1.02,
2.049,-1.26,-1.69,0.26,-0.08,-0.06,1.02,
2.051,-1.26,-1.69,0.26,-0.07,-0.05,1.02,
2.053,-1.26,-1.69,0.26,-0.07,-0.05,1.02,
2.053,-1.18,-1.64,0.41,-0.07,-0.05,1.02,
2.056,-1.18,-1.64,0.41,-0.06,-0.05,1.03,
2.058,-1.18,-1.64,0.41,-0.05,-0.04,1.03,
2.058,-1.06,-1.57,0.52,-0.05,-0.04,1.03,
2.061,-1.06,-1.57,0.52,-0.04,-0.04,1.03,
2.063,-1.06,-1.57,0.52,-0.04,-0.03,1.03,
2.063,-0.91,-1.49,0.56,-0.04,-0.03,1.03,
2.065,-0.91,-1.49,0.56,-0.03,-0.02,1.02,
2.068,-0.91,-1.49,0.56,-0.03,-0.02,1.02,
2.068,-0.74,-1.38,0.56,-0.03,-0.02,1.02,
2.07,-0.74,-1.38,0.56,-0.03,-0.01,1.02,
2.073,-0.74,-1.38,0.56,-0.03,0.01,1.01,
2.073,-0.64,-1.24,0.53,-0.03,0.01,1.01,
2.087,-0.64,-1.24,0.53,-0.03,0.01,1.01,
2.088,-0.64,-1.24,0.53,-0.03,0.02,1.00,
2.088,-0.60,-1.04,0.45,-0.03,0.02,1.00,
2.088,-0.60,-1.04,0.45,-0.02,0.02,1.00,
2.088,-0.60,-1.04,0.45,-0.02,0.02,1.00,
2.089,-0.59,-0.90,0.36,-0.02,0.02,1.00,
2.089,-0.59,-0.90,0.36,-0.02,0.02,0.99,
2.089,-0.59,-0.90,0.36,-0.02,0.02,0.98,
2.09,-0.53,-0.85,0.28,-0.02,0.02,0.98,
2.091,-0.53,-0.85,0.28,-0.01,0.03,0.98,
2.093,-0.53,-0.85,0.28,-0.01,0.03,0.98,
2.094,-0.48,-0.82,0.17,-0.01,0.03,0.98,
2.095,-0.48,-0.82,0.17,-0.01,0.03,0.97,
2.098,-0.48,-0.82,0.17,-0.01,0.03,0.97,
2.098,-0.44,-0.79,0.07,-0.01,0.03,0.97,
2.1,-0.44,-0.79,0.07,-0.01,0.03,0.97,
2.103,-0.44,-0.79,0.07,-0.01,0.03,0.97,
2.103,-0.43,-0.78,0.02,-0.01,0.03,0.97,
2.105,-0.43,-0.78,0.02,-0.01,0.03,0.97,
2.108,-0.43,-0.78,0.02,-0.01,0.03,0.98,
2.108,-0.42,-0.74,0.01,-0.01,0.03,0.98,
2.11,-0.42,-0.74,0.01,-0.01,0.04,0.98,
2.113,-0.42,-0.74,0.01,-0.01,0.04,0.98,
2.113,-0.42,-0.71,0.04,-0.01,0.04,0.98,
2.114,-0.42,-0.71,0.04,-0.01,0.04,0.98,
2.117,-0.42,-0.71,0.04,-0.00,0.04,0.99,
2.119,-0.43,-0.68,0.10,-0.00,0.04,0.99,
2.12,-0.43,-0.68,0.10,0.00,0.03,0.99,
2.122,-0.43,-0.68,0.10,0.01,0.04,0.99,
2.128,-0.38,-0.68,0.15,0.01,0.04,0.99,
2.129,-0.38,-0.68,0.15,0.01,0.04,1.00,
2.129,-0.38,-0.68,0.15,0.01,0.04,1.00,
2.129,-0.29,-0.69,0.19,0.01,0.04,1.00,
2.129,-0.29,-0.69,0.19,0.02,0.04,1.00,
2.132,-0.29,-0.69,0.19,0.02,0.04,1.00,
2.132,-0.21,-0.67,0.26,0.02,0.04,1.00,
2.134,-0.21,-0.67,0.26,0.02,0.05,1.00,
2.137,-0.21,-0.67,0.26,0.02,0.05,1.00,
2.138,-0.12,-0.62,0.30,0.02,0.05,1.00,
2.141,-0.12,-0.62,0.30,0.03,0.05,1.00,
2.142,-0.12,-0.62,0.30,0.03,0.05,1.00,
2.142,-0.08,-0.57,0.32,0.03,0.05,1.00,
2.144,-0.08,-0.57,0.32,0.03,0.06,0.99,
2.146,-0.08,-0.57,0.32,0.03,0.06,0.99,
2.147,-0.03,-0.52,0.28,0.03,0.06,0.99,
2.149,-0.03,-0.52,0.28,0.03,0.07,0.99,
2.151,-0.03,-0.52,0.28,0.03,0.07,0.99,
2.151,0.00,-0.46,0.22,0.03,0.07,0.99,
2.154,0.00,-0.46,0.22,0.03,0.07,0.98,
2.157,0.00,-0.46,0.22,0.03,0.08,0.98,
2.157,0.01,-0.36,0.18,0.03,0.08,0.98,
2.159,0.01,-0.36,0.18,0.03,0.08,0.98,
2.167,0.01,-0.36,0.18,0.03,0.08,0.98,
2.167,-0.01,-0.27,0.12,0.03,0.08,0.98,
2.168,-0.01,-0.27,0.12,0.03,0.08,0.98,
2.168,-0.01,-0.27,0.12,0.03,0.08,0.98,
2.168,-0.00,-0.22,0.09,0.03,0.08,0.98,
2.168,-0.00,-0.22,0.09,0.02,0.08,0.98,
2.171,-0.00,-0.22,0.09,0.02,0.08,0.98,
2.171,0.00,-0.21,0.07,0.02,0.08,0.98,
2.173,0.00,-0.21,0.07,0.02,0.08,0.98,
2.176,0.00,-0.21,0.07,0.02,0.08,0.98,
2.176,-0.04,-0.20,0.08,0.02,0.08,0.98,
2.178,-0.04,-0.20,0.08,0.01,0.08,0.98,
2.181,-0.04,-0.20,0.08,0.01,0.08,0.98,
2.181,-0.08,-0.20,0.06,0.01,0.08,0.98,
2.183,-0.08,-0.20,0.06,0.00,0.08,0.98,
2.186,-0.17,-0.20,0.06,0.00,0.08,0.98,
2.186,-0.17,-0.20,0.06,0.00,0.08,0.97,
2.188,-0.17,-0.20,0.06,0.01,0.08,0.97,
2.191,-0.17,-0.20,0.06,0.01,0.08,0.98,
2.191,-0.20,-0.23,0.05,0.01,0.08,0.98,
2.193,-0.20,-0.23,0.05,0.01,0.08,0.98,
2.196,-0.20,-0.23,0.05,0.01,0.08,0.98,
2.196,-0.19,-0.26,0.04,0.01,0.08,0.98,
2.198,-0.19,-0.26,0.04,0.01,0.08,0.98,
2.2,-0.19,-0.26,0.04,0.01,0.08,0.98,
2.201,-0.19,-0.24,0.08,0.01,0.08,0.98,
2.203,-0.19,-0.24,0.08,0.02,0.08,0.98,
2.206,-0.19,-0.24,0.08,0.02,0.08,0.99,
2.207,-0.15,-0.22,0.11,0.02,0.08,0.99,
2.208,-0.15,-0.22,0.11,0.02,0.08,0.99,
2.21,-0.15,-0.22,0.11,0.03,0.08,0.99,
2.211,-0.09,-0.22,0.15,0.03,0.08,0.99,
2.212,-0.09,-0.22,0.15,0.03,0.08,0.99,
2.215,-0.09,-0.22,0.15,0.03,0.09,0.99,
2.215,-0.01,-0.23,0.17,0.03,0.09,0.99,
2.217,-0.01,-0.23,0.17,0.03,0.09,0.99,
2.22,-0.01,-0.23,0.17,0.03,0.09,0.99,
2.22,0.05,-0.20,0.17,0.03,0.09,0.99,
2.223,0.05,-0.20,0.17,0.03,0.09,0.99,
2.225,0.05,-0.20,0.17,0.03,0.09,0.99,
2.225,0.04,-0.15,0.18,0.03,0.09,0.99,
2.227,0.04,-0.15,0.18,0.03,0.09,0.99,
2.23,0.04,-0.15,0.18,0.03,0.10,0.99,
2.23,0.03,-0.12,0.19,0.03,0.10,0.99,
2.232,0.03,-0.12,0.19,0.03,0.10,0.99,
2.235,0.03,-0.12,0.19,0.03,0.10,0.99,
2.235,0.04,-0.09,0.20,0.03,0.10,0.99,
2.237,0.04,-0.09,0.20,0.03,0.10,0.99,
2.245,0.04,-0.09,0.20,0.02,0.10,0.99,
2.246,0.03,-0.07,0.21,0.02,0.10,0.99,
2.246,0.03,-0.07,0.21,0.02,0.10,0.99,
2.246,0.03,-0.07,0.21,0.02,0.10,1.00,
2.246,-0.01,-0.05,0.22,0.02,0.10,1.00,
2.247,-0.01,-0.05,0.22,0.02,0.10,1.00,
2.249,-0.01,-0.05,0.22,0.02,0.10,1.00,
2.249,-0.05,-0.05,0.24,0.02,0.10,1.00,
2.252,-0.05,-0.05,0.24,0.02,0.10,1.00,
2.254,-0.05,-0.05,0.24,0.02,0.10,1.00,
2.254,-0.07,-0.02,0.26,0.02,0.10,1.00,
2.26,-0.07,-0.02,0.26,0.02,0.10,0.99,
2.261,-0.07,-0.02,0.26,0.02,0.10,0.99,
2.261,-0.05,-0.03,0.24,0.02,0.10,0.99,
2.261,-0.05,-0.03,0.24,0.02,0.10,0.99,
2.264,-0.05,-0.03,0.24,0.02,0.10,0.99,
2.264,-0.02,-0.06,0.23,0.02,0.10,0.99,
2.266,-0.02,-0.06,0.23,0.02,0.10,0.99,
2.269,-0.02,-0.06,0.23,0.02,0.10,0.99,
2.269,-0.03,-0.07,0.19,0.02,0.10,0.99,
2.271,-0.03,-0.07,0.19,0.02,0.10,0.99,
2.274,-0.03,-0.07,0.19,0.01,0.10,0.99,
2.275,-0.07,-0.03,0.17,0.01,0.10,0.99,
2.276,-0.07,-0.03,0.17,0.02,0.10,0.98,
2.279,-0.07,-0.03,0.17,0.02,0.10,0.98,
2.279,-0.08,-0.03,0.15,0.02,0.10,0.98,
2.281,-0.08,-0.03,0.15,0.02,0.10,0.98,
2.284,-0.08,-0.03,0.15,0.02,0.10,0.97,
2.284,-0.05,-0.05,0.12,0.02,0.10,0.97,
2.286,-0.05,-0.05,0.12,0.02,0.09,0.97,
2.289,-0.05,-0.05,0.12,0.02,0.09,0.97,
2.29,-0.01,-0.08,0.05,0.02,0.09,0.97,
2.291,-0.01,-0.08,0.05,0.02,0.10,0.96,
2.293,-0.01,-0.08,0.05,0.02,0.10,0.97,
2.294,0.01,-0.10,-0.01,0.02,0.10,0.97,
2.296,0.01,-0.10,-0.01,0.02,0.11,0.97,
2.298,0.01,-0.10,-0.01,0.02,0.11,0.97,
2.298,0.02,-0.05,-0.05,0.02,0.11,0.97,
2.3,0.02,-0.05,-0.05,0.02,0.11,0.97,
2.303,0.02,-0.05,-0.05,0.02,0.11,0.97,
2.303,-0.01,0.01,-0.04,0.02,0.11,0.97,
2.305,-0.01,0.01,-0.04,0.02,0.11,0.97,
2.308,-0.01,0.01,-0.04,0.03,0.11,0.97,
2.308,-0.00,0.05,-0.01,0.03,0.11,0.97,
2.31,-0.00,0.05,-0.01,0.03,0.10,0.97,
2.313,-0.00,0.05,-0.01,0.04,0.10,0.98,
2.313,0.05,0.02,0.02,0.04,0.10,0.98,
2.315,0.05,0.02,0.02,0.04,0.10,0.98,
2.318,0.11,-0.02,0.04,0.04,0.10,0.98,
2.318,0.11,-0.02,0.04,0.04,0.10,0.98,
2.32,0.11,-0.02,0.04,0.04,0.11,0.98,
2.325,0.11,-0.02,0.04,0.04,0.11,0.98,
2.325,0.15,-0.04,0.08,0.04,0.11,0.98,
2.325,0.15,-0.04,0.08,0.03,0.11,0.98,
2.327,0.15,-0.04,0.08,0.03,0.11,0.98,
2.328,0.13,0.02,0.10,0.03,0.11,0.98,
2.33,0.13,0.02,0.10,0.03,0.11,0.98,
2.332,0.13,0.02,0.10,0.03,0.11,0.98,
2.333,0.08,0.04,0.12,0.03,0.11,0.98,
2.335,0.08,0.04,0.12,0.03,0.11,0.98,
2.337,0.08,0.04,0.12,0.03,0.10,0.99,
2.338,0.05,0.03,0.13,0.03,0.10,0.99,
2.34,0.05,0.03,0.13,0.02,0.10,0.99,
2.343,0.05,0.03,0.13,0.03,0.10,0.98,
2.343,0.02,-0.01,0.14,0.03,0.10,0.98,
2.345,0.02,-0.01,0.14,0.02,0.10,0.98,
2.347,0.02,-0.01,0.14,0.02,0.10,0.98,
2.347,0.01,-0.05,0.15,0.02,0.10,0.98,
2.349,0.01,-0.05,0.15,0.02,0.09,0.98,
2.352,0.01,-0.05,0.15,0.02,0.09,0.98,
2.352,-0.01,-0.09,0.12,0.02,0.09,0.98,
2.354,-0.01,-0.09,0.12,0.01,0.10,0.97,
2.357,-0.01,-0.09,0.12,0.01,0.10,0.97,
2.357,-0.02,-0.12,0.07,0.01,0.10,0.97,
2.36,-0.02,-0.12,0.07,0.01,0.10,0.97,
2.362,-0.02,-0.12,0.07,0.00,0.10,0.97,
2.363,-0.10,-0.09,0.03,0.00,0.10,0.97,
2.364,-0.10,-0.09,0.03,0.00,0.10,0.97,
2.367,-0.10,-0.09,0.03,0.00,0.10,0.96,
2.367,-0.17,-0.08,-0.02,0.00,0.10,0.96,
2.369,-0.17,-0.08,-0.02,-0.00,0.09,0.96,
2.372,-0.17,-0.08,-0.02,-0.00,0.09,0.96,
2.372,-0.21,-0.08,-0.06,-0.00,0.09,0.96,
2.374,-0.21,-0.08,-0.06,0.00,0.09,0.96,
2.377,-0.21,-0.08,-0.06,0.00,0.09,0.96,
2.377,-0.21,-0.11,-0.09,0.00,0.09,0.96,
2.379,-0.21,-0.11,-0.09,0.01,0.09,0.96,
2.382,-0.21,-0.11,-0.09,0.01,0.10,0.96,
2.382,-0.18,-0.13,-0.09,0.01,0.10,0.96,
2.384,-0.18,-0.13,-0.09,0.01,0.10,0.96,
2.386,-0.18,-0.13,-0.09,0.01,0.10,0.97,
2.387,-0.15,-0.11,-0.09,0.01,0.10,0.97,
2.389,-0.15,-0.11,-0.09,0.01,0.10,0.97,
2.391,-0.15,-0.11,-0.09,0.02,0.10,0.97,
2.392,-0.11,-0.08,-0.06,0.02,0.10,0.97,
2.394,-0.11,-0.08,-0.06,0.02,0.10,0.98,
2.396,-0.11,-0.08,-0.06,0.03,0.10,0.98,
2.397,-0.07,-0.04,0.01,0.03,0.10,0.98,
2.398,-0.07,-0.04,0.01,0.03,0.10,0.99,
2.401,-0.07,-0.04,0.01,0.04,0.10,0.99,
2.402,0.01,-0.02,0.10,0.04,0.10,0.99,
2.404,0.01,-0.02,0.10,0.04,0.10,1.00,
2.407,0.01,-0.02,0.10,0.05,0.10,1.00,
2.408,0.09,-0.03,0.18,0.05,0.10,1.00,
2.409,0.09,-0.03,0.18,0.05,0.10,1.00,
2.412,0.09,-0.03,0.18,0.05,0.10,1.00,
2.412,0.17,-0.05,0.27,0.05,0.10,1.00,
2.414,0.17,-0.05,0.27,0.05,0.10,1.01,
2.416,0.17,-0.05,0.27,0.05,0.10,1.01,
2.416,0.23,-0.05,0.33,0.05,0.10,1.01,
2.418,0.23,-0.05,0.33,0.05,0.10,1.00,
2.421,0.23,-0.05,0.33,0.05,0.10,1.00,
2.421,0.21,-0.04,0.34,0.05,0.10,1.00,
2.428,0.21,-0.04,0.34,0.04,0.10,1.00,
2.429,0.21,-0.04,0.34,0.04,0.10,1.00,
2.429,0.20,-0.06,0.30,0.04,0.10,1.00,
2.429,0.20,-0.06,0.30,0.03,0.10,1.00,
2.431,0.20,-0.06,0.30,0.03,0.10,0.99,
2.431,0.14,-0.06,0.27,0.03,0.10,0.99,
2.433,0.14,-0.06,0.27,0.02,0.10,0.99,
2.435,0.14,-0.06,0.27,0.02,0.10,0.99,
2.436,0.05,-0.07,0.23,0.02,0.10,0.99,
2.44,0.05,-0.07,0.23,0.01,0.10,0.99,
2.441,0.05,-0.07,0.23,0.01,0.10,0.98,
2.441,-0.07,-0.08,0.19,0.01,0.10,0.98,
2.443,-0.07,-0.08,0.19,0.01,0.09,0.98,
2.445,-0.07,-0.08,0.19,0.01,0.09,0.98,
2.446,-0.13,-0.09,0.13,0.01,0.09,0.98,
2.447,-0.13,-0.09,0.13,0.01,0.08,0.94,
2.45,-0.13,-0.09,0.13,0.02,0.07,0.85,
2.45,-0.16,-0.15,0.10,0.02,0.07,0.85,
2.452,-0.16,-0.15,0.10,0.03,0.07,0.84,
2.455,-0.16,-0.15,0.10,0.02,0.07,0.88,
2.456,-0.07,-0.27,-0.75,0.02,0.07,0.88,
2.457,-0.07,-0.27,-0.75,0.01,0.08,0.91,
2.46,-0.07,-0.27,-0.75,-0.00,0.09,0.91,
2.46,0.03,-0.33,-1.09,-0.00,0.09,0.91,
2.462,0.03,-0.33,-1.09,-0.00,0.09,0.91,
2.465,0.03,-0.33,-1.09,0.00,0.09,0.92,
2.465,-0.20,-0.19,-0.61,0.00,0.09,0.92,
2.467,-0.20,-0.19,-0.61,0.01,0.09,0.93,
2.469,-0.20,-0.19,-0.61,0.01,0.08,0.93,
2.47,-0.21,-0.13,-0.56,0.01,0.08,0.93,
2.472,-0.21,-0.13,-0.56,0.02,0.08,0.93,
2.474,-0.21,-0.13,-0.56,0.02,0.07,0.93,
2.475,-0.08,-0.14,-0.39,0.02,0.07,0.93,
2.477,-0.08,-0.14,-0.39,0.02,0.08,0.93,
2.48,-0.08,-0.14,-0.39,0.02,0.08,0.94,
2.48,-0.01,-0.24,-0.37,0.02,0.08,0.94,
2.482,-0.01,-0.24,-0.37,0.02,0.09,0.95,
2.484,-0.01,-0.24,-0.37,0.02,0.09,0.96,
2.484,0.00,-0.20,-0.32,0.02,0.09,0.96,
2.486,0.00,-0.20,-0.32,0.03,0.10,0.96,
2.489,0.00,-0.20,-0.32,0.03,0.09,0.97,
2.49,-0.02,-0.07,-0.15,0.03,0.09,0.97,
2.492,-0.02,-0.07,-0.15,0.03,0.10,0.97,
2.494,-0.02,-0.07,-0.15,0.04,0.10,0.98,
2.494,0.07,-0.03,-0.05,0.04,0.10,0.98,
2.496,0.07,-0.03,-0.05,0.04,0.09,0.98,
2.499,0.07,-0.03,-0.05,0.04,0.10,1.00,
2.499,0.12,-0.02,0.04,0.04,0.10,1.00,
2.501,0.12,-0.02,0.04,0.04,0.10,1.00,
2.504,0.12,-0.02,0.04,0.04,0.09,1.01,
2.504,0.17,-0.03,0.21,0.04,0.09,1.01,
2.506,0.17,-0.03,0.21,0.04,0.10,1.02,
2.509,0.17,-0.03,0.21,0.04,0.10,1.03,
2.509,0.19,-0.03,0.37,0.04,0.10,1.03,
2.511,0.19,-0.03,0.37,0.03,0.10,1.03,
2.514,0.19,-0.03,0.37,0.03,0.10,1.04,
2.514,0.14,-0.01,0.51,0.03,0.10,1.04,
2.516,0.14,-0.01,0.51,0.02,0.10,1.04,
2.519,0.14,-0.01,0.51,0.02,0.10,1.04,
2.519,0.05,0.03,0.64,0.02,0.10,1.04,
2.526,0.05,0.03,0.64,0.01,0.10,1.04,
2.526,0.05,0.03,0.64,0.01,0.09,1.03,
2.527,-0.05,0.01,0.71,0.01,0.09,1.03,
2.527,-0.05,0.01,0.71,0.01,0.09,1.02,
2.528,-0.13,-0.06,0.64,0.01,0.09,1.02,
2.529,-0.13,-0.06,0.64,0.01,0.09,1.01,
2.531,-0.13,-0.06,0.64,0.01,0.08,0.99,
2.533,-0.13,-0.06,0.64,0.01,0.08,0.98,
2.534,-0.14,-0.11,0.41,0.01,0.08,0.98,
2.535,-0.14,-0.11,0.41,0.02,0.08,0.97,
2.54,-0.14,-0.11,0.41,0.02,0.08,0.96,
2.541,-0.13,-0.21,0.17,0.02,0.08,0.96,
2.541,-0.13,-0.21,0.17,0.02,0.08,0.95,
