
time,ax,ay,az,gFx,gFy,gFz,
0.002,-0.15,0.01,-0.03,0.01,0.19,0.96,
0.002,-0.15,0.01,-0.03,0.01,0.19,0.97,
0.002,-0.11,0.04,-0.02,0.01,0.19,0.97,
0.002,-0.11,0.04,-0.02,0.01,0.19,0.97,
0.004,-0.11,0.04,-0.02,0.01,0.19,0.97,
0.004,-0.08,0.03,0.01,0.01,0.19,0.97,
0.007,-0.08,0.03,0.01,0.01,0.19,0.97,
0.009,-0.08,0.03,0.01,0.01,0.19,0.97,
0.009,-0.03,0.03,0.03,0.01,0.19,0.97,
0.012,-0.03,0.03,0.03,0.02,0.19,0.97,
0.014,-0.03,0.03,0.03,0.02,0.19,0.97,
0.014,-0.01,0.04,0.06,0.02,0.19,0.97,
0.016,-0.01,0.04,0.06,0.02,0.19,0.97,
0.019,-0.01,0.04,0.06,0.02,0.19,0.97,
0.019,0.03,0.07,0.09,0.02,0.19,0.97,
0.021,0.03,0.07,0.09,0.03,0.19,0.98,
0.025,0.03,0.07,0.09,0.03,0.19,0.98,
0.025,0.08,0.07,0.09,0.03,0.19,0.98,
0.026,0.08,0.07,0.09,0.03,0.20,0.98,
0.029,0.08,0.07,0.09,0.03,0.20,0.98,
0.029,0.11,0.08,0.11,0.03,0.20,0.98,
0.031,0.11,0.08,0.11,0.02,0.20,0.98,
0.034,0.11,0.08,0.11,0.03,0.20,0.98,
0.034,0.12,0.09,0.12,0.03,0.20,0.98,
0.036,0.12,0.09,0.12,0.02,0.20,0.97,
0.038,0.12,0.09,0.12,0.02,0.20,0.97,
0.039,0.11,0.09,0.10,0.02,0.20,0.97,
0.041,0.11,0.09,0.10,0.02,0.20,0.97,
0.043,0.11,0.09,0.10,0.02,0.20,0.97,
0.044,0.10,0.11,0.08,0.02,0.20,0.97,
0.046,0.10,0.11,0.08,0.02,0.20,0.96,
0.048,0.10,0.11,0.08,0.02,0.19,0.96,
0.048,0.08,0.11,0.04,0.02,0.19,0.96,
0.051,0.08,0.11,0.04,0.02,0.19,0.96,
0.053,0.08,0.11,0.04,0.02,0.19,0.96,
0.053,0.07,0.09,-0.02,0.02,0.19,0.96,
0.056,0.07,0.09,-0.02,0.02,0.19,0.96,
0.058,0.07,0.09,-0.02,0.02,0.19,0.95,
0.058,0.04,0.07,-0.06,0.02,0.19,0.95,
0.06,0.04,0.07,-0.06,0.01,0.19,0.95,
0.063,0.04,0.07,-0.06,0.01,0.19,0.96,
0.063,0.03,0.07,-0.10,0.01,0.19,0.96,
0.065,0.03,0.07,-0.10,0.01,0.20,0.95,
0.068,0.03,0.07,-0.10,0.01,0.19,0.96,
0.068,0.01,0.07,-0.10,0.01,0.19,0.96,
0.07,0.01,0.07,-0.10,0.01,0.19,0.96,
0.073,0.01,0.07,-0.10,0.01,0.19,0.96,
0.073,-0.03,0.07,-0.09,0.01,0.19,0.96,
0.082,-0.03,0.07,-0.09,0.01,0.19,0.96,
0.082,-0.03,0.07,-0.09,0.01,0.19,0.96,
0.083,-0.05,0.03,-0.07,0.01,0.19,0.96,
0.083,-0.05,0.03,-0.07,0.01,0.19,0.97,
0.083,-0.05,0.03,-0.07,0.01,0.18,0.97,
0.083,-0.04,0.00,-0.04,0.01,0.18,0.97,
0.085,-0.04,0.00,-0.04,0.01,0.18,0.97,
0.087,-0.04,0.00,-0.04,0.01,0.18,0.97,
0.088,-0.02,-0.03,0.01,0.01,0.18,0.97,
0.09,-0.02,-0.03,0.01,0.01,0.18,0.97,
0.092,-0.02,-0.03,0.01,0.01,0.18,0.98,
0.093,-0.03,-0.06,0.05,0.01,0.18,0.98,
0.095,-0.03,-0.06,0.05,0.01,0.18,0.98,
0.097,-0.02,-0.07,0.09,0.01,0.18,0.98,
0.098,-0.02,-0.07,0.09,0.01,0.18,0.98,
0.1,-0.02,-0.07,0.09,0.01,0.18,0.98,
0.102,-0.02,-0.07,0.09,0.01,0.18,0.98,
0.102,-0.03,-0.07,0.13,0.01,0.18,0.98,
0.104,-0.03,-0.07,0.13,0.01,0.18,0.98,
0.107,-0.03,-0.07,0.13,0.01,0.18,0.98,
0.107,-0.04,-0.08,0.13,0.01,0.18,0.98,
0.109,-0.04,-0.08,0.13,0.01,0.18,0.98,
0.112,-0.04,-0.08,0.13,0.01,0.18,0.98,
0.112,-0.05,-0.07,0.13,0.01,0.18,0.98,
0.114,-0.05,-0.07,0.13,0.01,0.18,0.97,
0.117,-0.05,-0.07,0.13,0.01,0.18,0.97,
0.117,-0.04,-0.06,0.10,0.01,0.18,0.97,
0.119,-0.04,-0.06,0.10,0.01,0.18,0.97,
0.122,-0.04,-0.06,0.10,0.01,0.18,0.97,
0.122,-0.00,-0.05,0.05,0.01,0.18,0.97,
0.125,-0.00,-0.05,0.05,0.01,0.18,0.97,
0.128,-0.00,-0.05,0.05,0.02,0.18,0.96,
0.129,0.01,-0.06,0.03,0.02,0.18,0.96,
0.131,0.01,-0.06,0.03,0.02,0.18,0.96,
0.131,0.01,-0.06,0.03,0.01,0.18,0.96,
0.132,0.02,-0.07,-0.00,0.01,0.18,0.96,
0.134,0.02,-0.07,-0.00,0.01,0.18,0.96,
0.137,0.02,-0.07,-0.00,0.01,0.18,0.96,
0.137,0.03,-0.06,-0.05,0.01,0.18,0.96,
0.139,0.03,-0.06,-0.05,0.01,0.18,0.95,
0.141,0.03,-0.06,-0.05,0.01,0.18,0.95,
0.142,-0.01,-0.04,-0.09,0.01,0.18,0.95,
0.144,-0.01,-0.04,-0.09,0.01,0.18,0.95,
0.146,-0.01,-0.04,-0.09,0.01,0.18,0.95,
0.147,0.01,-0.03,-0.12,0.01,0.18,0.95,
0.149,0.01,-0.03,-0.12,0.01,0.18,0.95,
0.151,0.01,-0.03,-0.12,0.01,0.18,0.95,
0.151,-0.02,-0.06,-0.13,0.01,0.18,0.95,
0.154,-0.02,-0.06,-0.13,0.01,0.18,0.95,
0.156,-0.02,-0.06,-0.13,0.01,0.18,0.95,
0.156,-0.01,-0.04,-0.12,0.01,0.18,0.95,
0.159,-0.01,-0.04,-0.12,0.01,0.18,0.95,
0.161,-0.01,-0.04,-0.12,0.01,0.18,0.95,
0.161,-0.03,-0.05,-0.12,0.01,0.18,0.95,
0.163,-0.03,-0.05,-0.12,0.01,0.18,0.96,
0.166,-0.03,-0.05,-0.12,0.01,0.18,0.96,
0.166,-0.03,-0.07,-0.10,0.01,0.18,0.96,
0.168,-0.03,-0.07,-0.10,0.01,0.18,0.96,
0.171,-0.03,-0.07,-0.10,0.01,0.18,0.96,
0.171,-0.04,-0.07,-0.05,0.01,0.18,0.96,
0.181,-0.04,-0.07,-0.05,0.01,0.18,0.97,
0.181,-0.04,-0.07,-0.05,0.01,0.17,0.97,
0.182,-0.02,-0.08,-0.02,0.01,0.17,0.97,
0.182,-0.02,-0.08,-0.02,0.02,0.17,0.97,
0.182,-0.02,-0.08,-0.02,0.02,0.17,0.97,
0.182,0.00,-0.11,0.02,0.02,0.17,0.97,
0.183,0.00,-0.11,0.02,0.02,0.17,0.97,
0.185,0.00,-0.11,0.02,0.02,0.17,0.97,
0.186,0.04,-0.13,0.07,0.02,0.17,0.97,
0.188,0.04,-0.13,0.07,0.02,0.17,0.98,
0.191,0.04,-0.13,0.07,0.02,0.17,0.98,
0.191,0.06,-0.14,0.07,0.02,0.17,0.98,
0.193,0.06,-0.14,0.07,0.02,0.17,0.98,
0.195,0.06,-0.14,0.07,0.02,0.17,0.98,
0.196,0.07,-0.15,0.11,0.02,0.17,0.98,
0.198,0.07,-0.15,0.11,0.02,0.17,0.98,
0.2,0.07,-0.15,0.11,0.02,0.17,0.97,
0.2,0.10,-0.15,0.11,0.02,0.17,0.97,
0.202,0.10,-0.15,0.11,0.03,0.17,0.97,
0.205,0.10,-0.15,0.11,0.03,0.17,0.97,
0.205,0.10,-0.16,0.09,0.03,0.17,0.97,
0.207,0.10,-0.16,0.09,0.03,0.17,0.97,
0.21,0.10,-0.16,0.09,0.03,0.17,0.96,
0.21,0.16,-0.15,0.05,0.03,0.17,0.96,
0.212,0.16,-0.15,0.05,0.03,0.17,0.96,
0.215,0.16,-0.15,0.05,0.03,0.17,0.96,
0.216,0.20,-0.15,0.01,0.03,0.17,0.96,
0.217,0.20,-0.15,0.01,0.03,0.17,0.96,
0.22,0.20,-0.15,0.01,0.03,0.17,0.95,
0.22,0.19,-0.15,-0.03,0.03,0.17,0.95,
0.222,0.19,-0.15,-0.03,0.04,0.17,0.95,
0.225,0.19,-0.15,-0.03,0.04,0.17,0.95,
0.225,0.20,-0.15,-0.10,0.04,0.17,0.95,
0.227,0.20,-0.15,-0.10,0.04,0.17,0.95,
0.229,0.20,-0.15,-0.10,0.04,0.17,0.94,
0.23,0.21,-0.16,-0.14,0.04,0.17,0.94,
0.232,0.21,-0.16,-0.14,0.04,0.16,0.94,
0.234,0.21,-0.16,-0.14,0.04,0.16,0.94,
0.234,0.21,-0.20,-0.21,0.04,0.16,0.94,
0.237,0.21,-0.20,-0.21,0.04,0.16,0.93,
0.239,0.21,-0.20,-0.21,0.04,0.16,0.93,
0.24,0.23,-0.22,-0.27,0.04,0.16,0.93,
0.242,0.23,-0.22,-0.27,0.04,0.16,0.93,
0.244,0.23,-0.22,-0.27,0.04,0.16,0.93,
0.244,0.25,-0.23,-0.31,0.04,0.16,0.93,
0.246,0.25,-0.23,-0.31,0.03,0.16,0.93,
0.249,0.25,-0.23,-0.31,0.03,0.16,0.93,
0.249,0.24,-0.25,-0.33,0.03,0.16,0.93,
0.251,0.24,-0.25,-0.33,0.04,0.16,0.93,
0.254,0.24,-0.25,-0.33,0.04,0.15,0.93,
0.254,0.19,-0.28,-0.35,0.04,0.15,0.93,
0.257,0.19,-0.28,-0.35,0.04,0.15,0.93,
0.259,0.19,-0.28,-0.35,0.04,0.15,0.93,
0.259,0.21,-0.31,-0.32,0.04,0.15,0.93,
0.261,0.21,-0.31,-0.32,0.04,0.14,0.94,
0.264,0.21,-0.31,-0.32,0.04,0.14,0.94,
0.264,0.21,-0.35,-0.29,0.04,0.14,0.94,
0.266,0.21,-0.35,-0.29,0.04,0.14,0.94,
0.268,0.21,-0.35,-0.29,0.04,0.14,0.94,
0.269,0.22,-0.41,-0.25,0.04,0.14,0.94,
0.271,0.22,-0.41,-0.25,0.04,0.13,0.94,
0.274,0.22,-0.41,-0.25,0.04,0.13,0.94,
0.274,0.21,-0.46,-0.24,0.04,0.13,0.94,
0.276,0.21,-0.46,-0.24,0.04,0.13,0.94,
0.278,0.21,-0.46,-0.24,0.04,0.13,0.95,
0.279,0.22,-0.51,-0.21,0.04,0.13,0.95,
0.281,0.22,-0.51,-0.21,0.03,0.13,0.95,
0.283,0.22,-0.51,-0.21,0.03,0.12,0.95,
0.283,0.22,-0.55,-0.17,0.03,0.12,0.95,
0.286,0.22,-0.55,-0.17,0.03,0.12,0.94,
0.288,0.22,-0.55,-0.17,0.03,0.12,0.94,
0.288,0.19,-0.58,-0.16,0.03,0.12,0.94,
0.298,0.19,-0.58,-0.16,0.03,0.12,0.94,
0.298,0.19,-0.58,-0.16,0.03,0.12,0.94,
0.298,0.16,-0.61,-0.18,0.03,0.12,0.94,
0.298,0.16,-0.61,-0.18,0.02,0.12,0.94,
0.299,0.16,-0.61,-0.18,0.02,0.12,0.94,
0.299,0.11,-0.61,-0.19,0.02,0.12,0.94,
0.3,0.11,-0.61,-0.19,0.02,0.11,0.94,
0.303,0.11,-0.61,-0.19,0.01,0.11,0.94,
0.303,0.05,-0.62,-0.20,0.01,0.11,0.94,
0.305,0.05,-0.62,-0.20,0.02,0.11,0.94,
0.308,0.05,-0.62,-0.20,0.01,0.11,0.94,
0.308,0.01,-0.66,-0.22,0.01,0.11,0.94,
0.31,0.01,-0.66,-0.22,0.01,0.11,0.94,
0.313,0.01,-0.69,-0.23,0.01,0.11,0.94,
0.313,0.01,-0.69,-0.23,0.01,0.11,0.94,
0.315,0.01,-0.69,-0.23,0.01,0.11,0.94,
0.318,0.01,-0.69,-0.23,0.01,0.11,0.94,
0.318,-0.03,-0.70,-0.24,0.01,0.11,0.94,
0.32,-0.03,-0.70,-0.24,0.01,0.11,0.94,
0.322,-0.03,-0.70,-0.24,0.01,0.10,0.94,
0.323,-0.06,-0.71,-0.25,0.01,0.10,0.94,
0.325,-0.06,-0.71,-0.25,0.01,0.10,0.94,
0.327,-0.06,-0.71,-0.25,0.02,0.10,0.94,
0.327,-0.04,-0.71,-0.23,0.02,0.10,0.94,
0.33,-0.04,-0.71,-0.23,0.02,0.10,0.94,
0.332,-0.04,-0.71,-0.23,0.02,0.10,0.95,
0.332,-0.00,-0.72,-0.19,0.02,0.10,0.95,
0.335,-0.00,-0.72,-0.19,0.03,0.10,0.95,
0.337,-0.00,-0.72,-0.19,0.03,0.10,0.95,
0.337,0.06,-0.72,-0.17,0.03,0.10,0.95,
0.341,0.06,-0.72,-0.17,0.03,0.10,0.96,
0.343,0.06,-0.72,-0.17,0.04,0.10,0.96,
0.343,0.10,-0.71,-0.08,0.04,0.10,0.96,
0.345,0.10,-0.71,-0.08,0.04,0.11,0.96,
0.347,0.10,-0.71,-0.08,0.04,0.11,0.96,
0.347,0.17,-0.71,-0.03,0.04,0.11,0.96,
0.349,0.17,-0.71,-0.03,0.05,0.11,0.97,
0.352,0.17,-0.71,-0.03,0.05,0.11,0.97,
0.352,0.24,-0.67,-0.00,0.05,0.11,0.97,
0.354,0.24,-0.67,-0.00,0.05,0.11,0.97,
0.357,0.24,-0.67,-0.00,0.06,0.11,0.97,
0.358,0.29,-0.66,0.07,0.06,0.11,0.97,
0.359,0.29,-0.66,0.07,0.06,0.10,0.97,
0.362,0.35,-0.66,0.11,0.06,0.10,0.97,
0.362,0.35,-0.66,0.11,0.06,0.10,0.97,
0.364,0.35,-0.66,0.11,0.06,0.11,0.97,
0.366,0.35,-0.66,0.11,0.06,0.11,0.97,
0.367,0.40,-0.68,0.13,0.06,0.11,0.97,
0.369,0.40,-0.68,0.13,0.06,0.11,0.98,
0.372,0.40,-0.68,0.13,0.07,0.11,0.97,
0.372,0.42,-0.63,0.13,0.07,0.11,0.97,
0.374,0.42,-0.63,0.13,0.07,0.11,0.97,
0.377,0.42,-0.63,0.13,0.07,0.11,0.97,
0.377,0.43,-0.61,0.15,0.07,0.11,0.97,
0.379,0.43,-0.61,0.15,0.07,0.11,0.97,
0.381,0.43,-0.61,0.15,0.07,0.10,0.97,
0.381,0.44,-0.63,0.12,0.07,0.10,0.97,
0.384,0.44,-0.63,0.12,0.07,0.10,0.97,
0.386,0.44,-0.63,0.12,0.07,0.10,0.97,
0.386,0.45,-0.65,0.13,0.07,0.10,0.97,
0.388,0.45,-0.65,0.13,0.07,0.09,0.97,
0.392,0.45,-0.65,0.13,0.07,0.10,0.96,
0.392,0.49,-0.71,0.09,0.07,0.10,0.96,
0.394,0.49,-0.71,0.09,0.07,0.09,0.96,
0.396,0.49,-0.71,0.09,0.07,0.10,0.96,
0.396,0.50,-0.74,0.04,0.07,0.10,0.96,
0.398,0.50,-0.74,0.04,0.06,0.10,0.96,
0.401,0.50,-0.74,0.04,0.06,0.10,0.95,
0.401,0.47,-0.74,0.00,0.06,0.10,0.95,
0.403,0.47,-0.74,0.00,0.05,0.10,0.95,
0.406,0.47,-0.74,0.00,0.05,0.09,0.95,
0.406,0.39,-0.72,-0.05,0.05,0.09,0.95,
0.408,0.39,-0.72,-0.05,0.05,0.09,0.95,
0.411,0.39,-0.72,-0.05,0.04,0.09,0.95,
0.411,0.31,-0.73,-0.08,0.04,0.09,0.95,
0.413,0.31,-0.73,-0.08,0.04,0.09,0.95,
0.415,0.31,-0.73,-0.08,0.03,0.08,0.94,
0.415,0.26,-0.78,-0.13,0.03,0.08,0.94,
0.418,0.26,-0.78,-0.13,0.03,0.08,0.94,
0.42,0.26,-0.78,-0.13,0.02,0.08,0.94,
0.42,0.17,-0.81,-0.17,0.02,0.08,0.94,
0.423,0.17,-0.81,-0.17,0.02,0.08,0.94,
0.425,0.17,-0.81,-0.17,0.02,0.08,0.94,
0.425,0.07,-0.82,-0.20,0.02,0.08,0.94,
0.428,0.07,-0.82,-0.20,0.01,0.07,0.94,
0.43,0.07,-0.82,-0.20,0.01,0.07,0.94,
0.43,0.02,-0.85,-0.22,0.01,0.07,0.94,
0.432,0.02,-0.85,-0.22,0.01,0.07,0.94,
0.435,0.02,-0.85,-0.22,0.01,0.07,0.94,
0.435,-0.01,-0.87,-0.21,0.01,0.07,0.94,
0.437,-0.01,-0.87,-0.21,0.01,0.07,0.94,
0.44,-0.01,-0.87,-0.21,0.01,0.07,0.94,
0.44,-0.03,-0.90,-0.20,0.01,0.07,0.94,
0.442,-0.03,-0.90,-0.20,0.01,0.07,0.94,
0.445,-0.03,-0.90,-0.20,0.01,0.07,0.95,
0.445,-0.02,-0.88,-0.17,0.01,0.07,0.95,
0.447,-0.02,-0.88,-0.17,0.01,0.08,0.95,
0.45,-0.02,-0.88,-0.17,0.01,0.08,0.95,
0.45,-0.02,-0.83,-0.15,0.01,0.08,0.95,
0.452,-0.02,-0.83,-0.15,0.01,0.08,0.96,
0.455,-0.02,-0.83,-0.15,0.02,0.08,0.96,
0.455,0.01,-0.78,-0.10,0.02,0.08,0.96,
0.457,0.01,-0.78,-0.10,0.02,0.09,0.96,
0.46,0.01,-0.78,-0.10,0.02,0.09,0.96,
0.46,0.05,-0.71,-0.04,0.02,0.09,0.96,
0.462,0.05,-0.71,-0.04,0.02,0.09,0.96,
0.464,0.05,-0.71,-0.04,0.02,0.10,0.96,
0.464,0.11,-0.66,-0.03,0.02,0.10,0.96,
0.467,0.11,-0.66,-0.03,0.02,0.10,0.96,
0.469,0.11,-0.66,-0.03,0.03,0.11,0.96,
0.47,0.14,-0.57,-0.01,0.03,0.11,0.96,
0.472,0.14,-0.57,-0.01,0.03,0.11,0.96,
0.475,0.14,-0.57,-0.01,0.03,0.11,0.96,
0.476,0.15,-0.49,-0.01,0.03,0.11,0.96,
0.477,0.15,-0.49,-0.01,0.04,0.11,0.95,
0.479,0.15,-0.49,-0.01,0.04,0.11,0.95,
0.48,0.21,-0.42,-0.03,0.04,0.11,0.95,
0.482,0.21,-0.42,-0.03,0.05,0.11,0.95,
0.484,0.21,-0.42,-0.03,0.05,0.11,0.94,
0.484,0.32,-0.39,-0.10,0.05,0.11,0.94,
0.486,0.32,-0.39,-0.10,0.06,0.11,0.94,
0.49,0.32,-0.39,-0.10,0.06,0.11,0.94,
0.49,0.40,-0.40,-0.15,0.06,0.11,0.94,
0.491,0.40,-0.40,-0.15,0.06,0.11,0.93,
0.494,0.40,-0.40,-0.15,0.06,0.12,0.92,
0.494,0.48,-0.40,-0.22,0.06,0.12,0.92,
0.497,0.48,-0.40,-0.22,0.06,0.12,0.92,
0.499,0.48,-0.40,-0.22,0.06,0.12,0.92,
0.499,0.47,-0.37,-0.32,0.06,0.12,0.92,
0.501,0.47,-0.37,-0.32,0.06,0.12,0.91,
0.503,0.47,-0.37,-0.32,0.06,0.12,0.91,
0.504,0.46,-0.35,-0.41,0.06,0.12,0.91,
0.507,0.46,-0.35,-0.41,0.06,0.11,0.91,
0.509,0.46,-0.35,-0.41,0.06,0.11,0.91,
0.509,0.47,-0.35,-0.46,0.06,0.11,0.91,
0.511,0.47,-0.35,-0.46,0.06,0.11,0.91,
0.514,0.47,-0.35,-0.46,0.05,0.11,0.91,
0.514,0.47,-0.41,-0.48,0.05,0.11,0.91,
0.516,0.47,-0.41,-0.48,0.05,0.11,0.91,
0.518,0.47,-0.41,-0.48,0.05,0.11,0.91,
0.518,0.43,-0.45,-0.48,0.05,0.11,0.91,
0.521,0.43,-0.45,-0.48,0.04,0.11,0.91,
0.523,0.43,-0.45,-0.48,0.04,0.11,0.91,
0.524,0.38,-0.43,-0.47,0.04,0.11,0.91,
0.526,0.38,-0.43,-0.47,0.03,0.11,0.92,
0.528,0.38,-0.43,-0.47,0.03,0.11,0.92,
0.528,0.26,-0.39,-0.44,0.03,0.11,0.92,
0.531,0.26,-0.39,-0.44,0.03,0.11,0.92,
0.533,0.26,-0.39,-0.44,0.02,0.11,0.93,
0.533,0.18,-0.36,-0.36,0.02,0.11,0.93,
0.535,0.18,-0.36,-0.36,0.01,0.12,0.93,
0.538,0.18,-0.36,-0.36,0.01,0.12,0.93,
0.538,0.09,-0.35,-0.31,0.01,0.12,0.93,
0.54,0.09,-0.35,-0.31,0.00,0.12,0.93,
0.543,0.09,-0.35,-0.31,-0.00,0.13,0.93,
0.543,-0.04,-0.30,-0.29,-0.00,0.13,0.93,
0.545,-0.04,-0.30,-0.29,-0.00,0.13,0.93,
0.548,-0.04,-0.30,-0.29,-0.01,0.13,0.93,
0.548,-0.15,-0.22,-0.28,-0.01,0.13,0.93,
0.55,-0.15,-0.22,-0.28,-0.01,0.13,0.93,
0.552,-0.15,-0.22,-0.28,-0.00,0.14,0.93,
0.553,-0.20,-0.15,-0.28,-0.00,0.14,0.93,
0.555,-0.20,-0.15,-0.28,0.00,0.13,0.92,
0.558,-0.20,-0.15,-0.28,0.01,0.13,0.92,
0.558,-0.19,-0.13,-0.30,0.01,0.13,0.92,
0.56,-0.19,-0.13,-0.30,0.01,0.13,0.92,
0.563,-0.19,-0.13,-0.30,0.01,0.13,0.92,
0.563,-0.10,-0.13,-0.34,0.01,0.13,0.92,
0.565,-0.10,-0.13,-0.34,0.02,0.13,0.91,
0.568,-0.10,-0.13,-0.34,0.02,0.13,0.91,
0.568,-0.03,-0.13,-0.37,0.02,0.13,0.91,
0.57,-0.03,-0.13,-0.37,0.03,0.13,0.91,
0.573,-0.03,-0.13,-0.37,0.03,0.13,0.91,
0.573,0.06,-0.14,-0.40,0.03,0.13,0.91,
0.584,0.06,-0.14,-0.40,0.03,0.13,0.91,
0.585,0.06,-0.14,-0.40,0.03,0.13,0.91,
0.585,0.14,-0.17,-0.44,0.03,0.13,0.91,
0.586,0.14,-0.17,-0.44,0.04,0.12,0.91,
0.586,0.14,-0.17,-0.44,0.04,0.12,0.91,
0.586,0.19,-0.18,-0.47,0.04,0.12,0.91,
0.586,0.19,-0.18,-0.47,0.05,0.12,0.91,
0.587,0.19,-0.18,-0.47,0.05,0.12,0.91,
0.587,0.26,-0.22,-0.46,0.05,0.12,0.91,
0.598,0.26,-0.22,-0.46,0.05,0.11,0.92,
0.598,0.26,-0.22,-0.46,0.06,0.11,0.92,
0.598,0.34,-0.25,-0.43,0.06,0.11,0.92,
0.599,0.34,-0.25,-0.43,0.06,0.11,0.92,
0.599,0.34,-0.25,-0.43,0.07,0.11,0.93,
0.599,0.42,-0.30,-0.36,0.07,0.11,0.93,
0.599,0.42,-0.30,-0.36,0.07,0.11,0.93,
0.602,0.42,-0.30,-0.36,0.07,0.11,0.94,
0.602,0.50,-0.32,-0.29,0.07,0.11,0.94,
0.604,0.50,-0.32,-0.29,0.08,0.11,0.95,
0.607,0.50,-0.32,-0.29,0.08,0.11,0.95,
0.607,0.56,-0.29,-0.18,0.08,0.11,0.95,
0.609,0.56,-0.29,-0.18,0.07,0.12,0.95,
0.612,0.56,-0.29,-0.18,0.07,0.12,0.96,
0.612,0.58,-0.25,-0.07,0.07,0.12,0.96,
0.614,0.58,-0.25,-0.07,0.06,0.13,0.96,
0.616,0.58,-0.25,-0.07,0.05,0.13,0.96,
0.617,0.51,-0.18,0.01,0.05,0.13,0.96,
0.619,0.51,-0.18,0.01,0.04,0.14,0.97,
0.621,0.51,-0.18,0.01,0.03,0.14,0.97,
0.621,0.36,-0.05,0.08,0.03,0.14,0.97,
0.624,0.36,-0.05,0.08,0.03,0.15,0.97,
0.626,0.36,-0.05,0.08,0.03,0.15,0.97,
0.627,0.18,0.07,0.12,0.03,0.15,0.97,
0.629,0.18,0.07,0.12,0.02,0.15,0.97,
0.631,0.18,0.07,0.12,0.02,0.15,0.96,
0.631,0.07,0.15,0.14,0.02,0.15,0.96,
0.634,0.07,0.15,0.14,0.02,0.15,0.96,
0.636,0.07,0.15,0.14,0.02,0.15,0.95,
0.636,0.00,0.16,0.10,0.02,0.15,0.95,
0.639,0.00,0.16,0.10,0.02,0.14,0.95,
0.641,0.00,0.16,0.10,0.02,0.14,0.94,
0.642,-0.01,0.14,0.00,0.02,0.14,0.94,
0.644,-0.01,0.14,0.00,0.02,0.14,0.93,
0.646,-0.01,0.14,0.00,0.02,0.14,0.93,
0.646,-0.02,0.10,-0.10,0.02,0.14,0.93,
0.648,-0.02,0.10,-0.10,0.02,0.13,0.92,
0.651,-0.02,0.10,-0.10,0.01,0.13,0.91,
0.651,-0.02,0.06,-0.25,0.01,0.13,0.91,
0.653,-0.02,0.06,-0.25,0.01,0.13,0.91,
0.657,-0.03,0.02,-0.40,0.01,0.13,0.91,
0.657,-0.03,0.02,-0.40,0.01,0.12,0.90,
0.658,-0.03,0.02,-0.40,0.01,0.12,0.90,
0.661,-0.03,0.02,-0.40,0.01,0.12,0.90,
0.661,-0.06,-0.05,-0.50,0.01,0.12,0.90,
0.663,-0.06,-0.05,-0.50,0.01,0.12,0.90,
0.666,-0.06,-0.05,-0.50,0.01,0.11,0.90,
0.666,-0.09,-0.10,-0.55,0.01,0.11,0.90,
0.668,-0.09,-0.10,-0.55,0.01,0.11,0.90,
0.67,-0.10,-0.14,-0.55,0.01,0.11,0.90,
0.671,-0.10,-0.14,-0.55,0.01,0.11,0.91,
0.674,-0.10,-0.14,-0.55,0.01,0.11,0.92,
0.675,-0.10,-0.14,-0.55,0.02,0.10,0.92,
0.676,-0.09,-0.16,-0.46,0.02,0.10,0.92,
0.678,-0.09,-0.16,-0.46,0.03,0.10,0.93,
0.68,-0.09,-0.16,-0.46,0.03,0.09,0.94,
0.68,-0.05,-0.22,-0.33,0.03,0.09,0.94,
0.682,-0.05,-0.22,-0.33,0.04,0.09,0.96,
0.685,-0.05,-0.22,-0.33,0.04,0.09,0.97,
0.686,0.05,-0.28,-0.16,0.04,0.09,0.97,
0.687,0.05,-0.28,-0.16,0.05,0.09,0.99,
0.695,0.05,-0.28,-0.16,0.05,0.09,1.00,
0.696,0.15,-0.34,0.10,0.05,0.09,1.00,
0.696,0.15,-0.34,0.10,0.05,0.09,1.02,
0.696,0.15,-0.34,0.10,0.06,0.09,1.03,
0.696,0.18,-0.34,0.39,0.06,0.09,1.03,
0.697,0.18,-0.34,0.39,0.06,0.10,1.04,
0.7,0.18,-0.34,0.39,0.06,0.11,1.05,
0.7,0.21,-0.26,0.69,0.06,0.11,1.05,
0.702,0.21,-0.26,0.69,0.06,0.11,1.06,
0.705,0.21,-0.26,0.69,0.06,0.12,1.06,
0.707,0.22,-0.13,0.90,0.06,0.12,1.06,
0.707,0.22,-0.13,0.90,0.07,0.12,1.07,
0.712,0.22,-0.13,0.90,0.07,0.12,1.07,
0.712,0.24,-0.01,1.01,0.07,0.12,1.07,
0.713,0.24,-0.01,1.01,0.07,0.13,1.07,
0.714,0.24,-0.01,1.01,0.07,0.13,1.07,
0.715,0.30,0.07,1.08,0.07,0.13,1.07,
0.717,0.30,0.07,1.08,0.07,0.13,1.06,
0.719,0.30,0.07,1.08,0.07,0.13,1.04,
0.719,0.31,0.12,1.06,0.07,0.13,1.04,
0.721,0.31,0.12,1.06,0.07,0.13,1.03,
0.724,0.31,0.12,1.06,0.07,0.14,1.01,
0.724,0.34,0.14,0.89,0.07,0.14,1.01,
0.726,0.34,0.14,0.89,0.07,0.14,1.00,
0.729,0.34,0.14,0.89,0.06,0.14,0.98,
0.729,0.30,0.18,0.61,0.06,0.14,0.98,
0.731,0.30,0.18,0.61,0.06,0.14,0.96,
0.734,0.30,0.18,0.61,0.05,0.14,0.94,
0.734,0.24,0.22,0.27,0.05,0.14,0.94,
0.736,0.24,0.22,0.27,0.05,0.13,0.92,
0.739,0.24,0.22,0.27,0.04,0.13,0.90,
0.74,0.16,0.18,-0.10,0.04,0.13,0.90,
0.741,0.16,0.18,-0.10,0.04,0.13,0.88,
0.744,0.16,0.18,-0.10,0.03,0.13,0.86,
0.744,0.07,0.13,-0.50,0.03,0.13,0.86,
0.746,0.07,0.13,-0.50,0.02,0.13,0.85,
0.748,0.07,0.13,-0.50,0.02,0.13,0.83,
0.749,-0.02,0.10,-0.85,0.02,0.13,0.83,
0.751,-0.02,0.10,-0.85,0.02,0.13,0.82,
0.754,-0.02,0.10,-0.85,0.01,0.12,0.82,
0.754,-0.12,0.09,-1.15,0.01,0.12,0.82,
0.757,-0.12,0.09,-1.15,0.01,0.12,0.81,
0.759,-0.12,0.09,-1.15,0.01,0.12,0.81,
0.759,-0.17,0.05,-1.33,0.01,0.12,0.81,
0.761,-0.17,0.05,-1.33,0.01,0.12,0.81,
0.763,-0.17,0.05,-1.33,0.01,0.11,0.82,
0.764,-0.20,0.00,-1.41,0.01,0.11,0.82,
0.766,-0.20,0.00,-1.41,0.02,0.11,0.82,
0.768,-0.20,0.00,-1.41,0.02,0.11,0.83,
0.768,-0.22,-0.05,-1.37,0.02,0.11,0.83,
0.771,-0.22,-0.05,-1.37,0.03,0.10,0.85,
0.773,-0.22,-0.05,-1.37,0.03,0.10,0.86,
0.774,-0.16,-0.10,-1.22,0.03,0.10,0.86,
0.776,-0.16,-0.10,-1.22,0.04,0.09,0.87,
0.778,-0.16,-0.10,-1.22,0.05,0.09,0.89,
0.779,-0.05,-0.16,-0.98,0.05,0.09,0.89,
0.78,-0.05,-0.16,-0.98,0.05,0.09,0.91,
0.783,-0.05,-0.16,-0.98,0.05,0.09,0.92,
0.783,0.06,-0.22,-0.68,0.05,0.09,0.92,
0.785,0.06,-0.22,-0.68,0.05,0.10,0.94,
0.788,0.06,-0.22,-0.68,0.04,0.10,0.95,
0.788,0.11,-0.21,-0.35,0.04,0.10,0.95,
0.795,0.11,-0.21,-0.35,0.04,0.11,0.97,
0.796,0.11,-0.21,-0.35,0.03,0.12,0.98,
0.796,0.00,-0.10,-0.05,0.03,0.12,0.98,
0.797,0.00,-0.10,-0.05,0.03,0.12,0.99,
0.798,0.00,-0.10,-0.05,0.02,0.12,1.00,
0.798,-0.12,0.05,0.20,0.02,0.12,1.00,
0.8,-0.12,0.05,0.20,0.02,0.13,1.00,
0.802,-0.12,0.05,0.20,0.02,0.13,1.01,
0.803,-0.23,0.15,0.40,0.02,0.13,1.01,
0.805,-0.23,0.15,0.40,0.02,0.13,1.01,
0.807,-0.23,0.15,0.40,0.01,0.14,1.01,
0.808,-0.33,0.22,0.52,0.01,0.14,1.01,
0.81,-0.33,0.22,0.52,0.01,0.14,1.01,
0.812,-0.33,0.22,0.52,0.01,0.15,1.01,
0.812,-0.37,0.30,0.58,0.01,0.15,1.01,
0.815,-0.37,0.30,0.58,0.00,0.15,1.00,
0.817,-0.37,0.30,0.58,0.00,0.16,1.00,
0.817,-0.42,0.41,0.58,0.00,0.16,1.00,
0.819,-0.42,0.41,0.58,0.01,0.16,0.99,
0.823,-0.42,0.41,0.58,0.01,0.16,0.98,
0.823,-0.48,0.49,0.45,0.01,0.16,0.98,
0.825,-0.48,0.49,0.45,0.01,0.16,0.97,
0.827,-0.48,0.49,0.45,0.01,0.16,0.96,
0.828,-0.46,0.54,0.28,0.01,0.16,0.96,
0.83,-0.46,0.54,0.28,0.02,0.15,0.95,
0.832,-0.46,0.54,0.28,0.02,0.15,0.94,
0.832,-0.42,0.51,0.10,0.02,0.15,0.94,
0.834,-0.42,0.51,0.10,0.02,0.15,0.93,
0.837,-0.42,0.51,0.10,0.03,0.14,0.92,
0.837,-0.35,0.45,-0.10,0.03,0.14,0.92,
0.839,-0.35,0.45,-0.10,0.04,0.14,0.91,
0.842,-0.35,0.45,-0.10,0.04,0.14,0.90,
0.842,-0.26,0.39,-0.33,0.04,0.14,0.90,
0.844,-0.26,0.39,-0.33,0.05,0.14,0.90,
0.846,-0.26,0.39,-0.33,0.05,0.14,0.89,
0.847,-0.13,0.34,-0.49,0.05,0.14,0.89,
0.849,-0.13,0.34,-0.49,0.06,0.14,0.89,
0.851,-0.13,0.34,-0.49,0.06,0.14,0.88,
0.851,-0.05,0.34,-0.59,0.06,0.14,0.88,
0.854,-0.05,0.34,-0.59,0.06,0.14,0.88,
0.857,-0.05,0.34,-0.59,0.06,0.13,0.89,
0.857,0.03,0.31,-0.67,0.06,0.13,0.89,
0.859,0.03,0.31,-0.67,0.06,0.14,0.89,
0.861,0.03,0.31,-0.67,0.06,0.14,0.90,
0.862,0.05,0.31,-0.66,0.06,0.14,0.90,
0.864,0.05,0.31,-0.66,0.05,0.14,0.91,
0.866,0.05,0.31,-0.66,0.05,0.14,0.91,
0.866,0.02,0.34,-0.56,0.05,0.14,0.91,
0.869,0.02,0.34,-0.56,0.04,0.14,0.92,
0.871,0.02,0.34,-0.56,0.03,0.15,0.93,
0.871,-0.08,0.39,-0.42,0.03,0.15,0.93,
0.874,-0.08,0.39,-0.42,0.02,0.16,0.94,
0.876,-0.08,0.39,-0.42,0.01,0.17,0.95,
0.876,-0.23,0.48,-0.25,0.01,0.17,0.95,
0.878,-0.23,0.48,-0.25,-0.00,0.18,0.96,
0.881,-0.23,0.48,-0.25,-0.01,0.19,0.97,
0.881,-0.42,0.67,-0.09,-0.01,0.19,0.97,
0.883,-0.42,0.67,-0.09,-0.02,0.20,0.98,
0.885,-0.42,0.67,-0.09,-0.03,0.20,0.99,
0.886,-0.65,0.85,0.09,-0.03,0.20,0.99,
0.888,-0.65,0.85,0.09,-0.03,0.21,0.99,
0.891,-0.65,0.85,0.09,-0.03,0.21,1.00,
0.892,-0.83,1.04,0.28,-0.03,0.21,1.00,
0.893,-0.83,1.04,0.28,-0.04,0.22,1.01,
0.895,-0.83,1.04,0.28,-0.03,0.22,1.01,
0.895,-0.92,1.17,0.44,-0.03,0.22,1.01,
0.898,-0.92,1.17,0.44,-0.03,0.23,1.02,
0.9,-0.92,1.17,0.44,-0.02,0.23,1.02,
0.9,-0.96,1.28,0.57,-0.02,0.23,1.02,
0.903,-0.96,1.28,0.57,-0.02,0.23,1.02,
0.906,-0.96,1.28,0.57,-0.01,0.24,1.02,
0.906,-0.89,1.37,0.63,-0.01,0.24,1.02,
0.908,-0.89,1.37,0.63,0.00,0.24,1.02,
0.91,-0.89,1.37,0.63,0.01,0.24,1.02,
0.91,-0.76,1.42,0.66,0.01,0.24,1.02,
0.912,-0.76,1.42,0.66,0.02,0.24,1.02,
0.915,-0.76,1.42,0.66,0.03,0.24,1.02,
0.915,-0.56,1.47,0.64,0.03,0.24,1.02,
0.917,-0.56,1.47,0.64,0.04,0.25,1.01,
0.92,-0.56,1.47,0.64,0.05,0.25,1.01,
0.92,-0.38,1.49,0.62,0.05,0.25,1.01,
0.923,-0.38,1.49,0.62,0.06,0.25,1.01,
0.925,-0.38,1.49,0.62,0.07,0.24,1.00,
0.926,-0.19,1.52,0.54,0.07,0.24,1.00,
0.927,-0.19,1.52,0.54,0.08,0.24,1.00,
0.93,-0.19,1.52,0.54,0.08,0.24,1.00,
0.93,-0.05,1.51,0.46,0.08,0.24,1.00,
0.932,-0.05,1.51,0.46,0.09,0.24,1.00,
0.935,-0.05,1.51,0.46,0.09,0.24,1.00,
0.935,0.10,1.47,0.40,0.09,0.24,1.00,
0.937,0.10,1.47,0.40,0.09,0.24,1.00,
0.94,0.10,1.47,0.40,0.09,0.24,1.00,
0.941,0.16,1.44,0.38,0.09,0.24,1.00,
0.942,0.16,1.44,0.38,0.08,0.25,1.00,
0.945,0.16,1.44,0.38,0.08,0.25,1.00,
0.945,0.15,1.46,0.40,0.08,0.25,1.00,
0.947,0.15,1.46,0.40,0.07,0.26,1.01,
0.95,0.15,1.46,0.40,0.07,0.27,1.02,
0.95,0.06,1.54,0.44,0.07,0.27,1.02,
0.952,0.06,1.54,0.44,0.06,0.27,1.02,
0.954,0.06,1.54,0.44,0.06,0.27,1.03,
0.955,-0.06,1.65,0.53,0.06,0.27,1.03,
0.957,-0.06,1.65,0.53,0.05,0.28,1.04,
0.959,-0.06,1.65,0.53,0.05,0.28,1.05,
0.96,-0.20,1.77,0.68,0.05,0.28,1.05,
0.962,-0.20,1.77,0.68,0.05,0.28,1.06,
0.964,-0.20,1.77,0.68,0.05,0.28,1.07,
0.964,-0.28,1.83,0.87,0.05,0.28,1.07,
0.966,-0.28,1.83,0.87,0.05,0.28,1.08,
0.969,-0.28,1.83,0.87,0.05,0.28,1.08,
0.969,-0.30,1.87,1.02,0.05,0.28,1.08,
0.972,-0.30,1.87,1.02,0.05,0.28,1.09,
0.974,-0.30,1.87,1.02,0.04,0.29,1.10,
0.975,-0.35,1.88,1.16,0.04,0.29,1.10,
0.977,-0.35,1.88,1.16,0.04,0.29,1.10,
0.979,-0.35,1.88,1.16,0.04,0.29,1.11,
0.979,-0.40,1.92,1.30,0.04,0.29,1.11,
0.981,-0.40,1.92,1.30,0.03,0.29,1.11,
0.984,-0.40,1.92,1.30,0.03,0.30,1.11,
0.984,-0.46,1.97,1.41,0.03,0.30,1.11,
0.986,-0.46,1.97,1.41,0.03,0.30,1.11,
0.995,-0.46,1.97,1.41,0.02,0.30,1.11,
0.995,-0.55,2.04,1.48,0.02,0.30,1.11,
0.996,-0.55,2.04,1.48,0.03,0.30,1.11,
0.996,-0.55,2.04,1.48,0.03,0.30,1.11,
0.996,-0.61,2.07,1.49,0.03,0.30,1.11,
0.997,-0.61,2.07,1.49,0.03,0.30,1.10,
0.999,-0.61,2.07,1.49,0.03,0.30,1.10,
0.999,-0.62,2.07,1.45,0.03,0.30,1.10,
1.001,-0.62,2.07,1.45,0.03,0.30,1.10,
1.003,-0.62,2.07,1.45,0.03,0.30,1.09,
1.004,-0.61,2.07,1.37,0.03,0.30,1.09,
1.011,-0.61,2.07,1.37,0.03,0.30,1.09,
1.011,-0.61,2.07,1.37,0.03,0.30,1.08,
1.012,-0.59,2.08,1.29,0.03,0.30,1.08,
1.012,-0.59,2.08,1.29,0.03,0.30,1.08,
1.013,-0.59,2.08,1.29,0.03,0.30,1.07,
1.013,-0.60,2.11,1.20,0.03,0.30,1.07,
1.015,-0.60,2.11,1.20,0.03,0.30,1.07,
1.018,-0.60,2.11,1.20,0.04,0.29,1.07,
1.018,-0.60,2.12,1.12,0.04,0.29,1.07,
1.02,-0.60,2.12,1.12,0.04,0.29,1.07,
1.023,-0.60,2.12,1.12,0.05,0.29,1.06,
1.024,-0.56,2.08,1.03,0.05,0.29,1.06,
1.025,-0.56,2.08,1.03,0.05,0.28,1.06,
1.028,-0.56,2.08,1.03,0.06,0.28,1.06,
1.029,-0.48,2.01,1.00,0.06,0.28,1.06,
1.032,-0.48,2.01,1.00,0.07,0.27,1.06,
1.034,-0.48,2.01,1.00,0.08,0.27,1.06,
1.034,-0.35,1.91,0.95,0.08,0.27,1.06,
1.035,-0.35,1.91,0.95,0.09,0.27,1.06,
1.037,-0.35,1.91,0.95,0.09,0.27,1.06,
1.038,-0.21,1.83,0.94,0.09,0.27,1.06,
1.04,-0.21,1.83,0.94,0.09,0.26,1.06,
1.043,-0.21,1.83,0.94,0.10,0.26,1.07,
1.043,-0.07,1.78,0.96,0.10,0.26,1.07,
1.045,-0.07,1.78,0.96,0.10,0.26,1.07,
1.047,-0.07,1.78,0.96,0.10,0.26,1.08,
1.047,0.01,1.77,1.00,0.10,0.26,1.08,
1.05,0.01,1.77,1.00,0.10,0.26,1.08,
1.052,0.01,1.77,1.00,0.11,0.26,1.09,
1.052,0.04,1.75,1.11,0.11,0.26,1.09,
1.056,0.04,1.75,1.11,0.11,0.26,1.09,
1.057,0.04,1.75,1.11,0.11,0.26,1.10,
1.058,0.07,1.74,1.18,0.11,0.26,1.10,
1.06,0.07,1.74,1.18,0.12,0.25,1.10,
1.062,0.07,1.74,1.18,0.12,0.25,1.11,
1.063,0.11,1.70,1.28,0.12,0.25,1.11,
1.064,0.11,1.70,1.28,0.12,0.25,1.11,
1.067,0.11,1.70,1.28,0.12,0.25,1.11,
1.067,0.17,1.69,1.37,0.12,0.25,1.11,
1.069,0.17,1.69,1.37,0.12,0.25,1.11,
1.073,0.17,1.69,1.37,0.12,0.24,1.12,
1.073,0.22,1.64,1.44,0.12,0.24,1.12,
1.074,0.22,1.64,1.44,0.12,0.24,1.12,
1.077,0.22,1.64,1.44,0.12,0.24,1.12,
1.078,0.22,1.61,1.49,0.12,0.24,1.12,
1.079,0.22,1.61,1.49,0.12,0.24,1.12,
1.081,0.22,1.61,1.49,0.12,0.24,1.12,
1.082,0.20,1.58,1.50,0.12,0.24,1.12,
1.084,0.20,1.58,1.50,0.12,0.23,1.12,
1.087,0.20,1.58,1.50,0.12,0.23,1.11,
1.087,0.18,1.53,1.49,0.12,0.23,1.11,
1.089,0.18,1.53,1.49,0.12,0.23,1.11,
1.092,0.18,1.53,1.49,0.11,0.23,1.11,
1.092,0.16,1.48,1.48,0.11,0.23,1.11,
1.094,0.16,1.48,1.48,0.11,0.23,1.11,
1.097,0.16,1.48,1.48,0.11,0.22,1.10,
1.097,0.13,1.44,1.43,0.11,0.22,1.10,
1.099,0.13,1.44,1.43,0.11,0.22,1.10,
1.101,0.13,1.44,1.43,0.10,0.22,1.10,
1.102,0.11,1.41,1.37,0.10,0.22,1.10,
1.104,0.11,1.41,1.37,0.11,0.22,1.10,
1.111,0.11,1.41,1.37,0.11,0.22,1.09,
1.112,0.05,1.38,1.34,0.11,0.22,1.09,
1.112,0.05,1.38,1.34,0.11,0.21,1.09,
1.112,0.05,1.38,1.34,0.11,0.21,1.09,
1.113,0.07,1.32,1.27,0.11,0.21,1.09,
1.114,0.07,1.32,1.27,0.12,0.21,1.08,
1.116,0.07,1.32,1.27,0.12,0.20,1.08,
1.116,0.11,1.28,1.19,0.12,0.20,1.08,
1.118,0.11,1.28,1.19,0.13,0.20,1.07,
1.121,0.11,1.28,1.19,0.13,0.19,1.07,
1.121,0.20,1.19,1.11,0.13,0.19,1.07,
1.123,0.20,1.19,1.11,0.13,0.19,1.06,
1.126,0.20,1.19,1.11,0.14,0.19,1.06,
1.126,0.29,1.10,1.03,0.14,0.19,1.06,
1.128,0.29,1.10,1.03,0.14,0.19,1.06,
1.131,0.29,1.10,1.03,0.15,0.19,1.05,
1.131,0.38,1.07,0.94,0.15,0.19,1.05,
1.133,0.38,1.07,0.94,0.16,0.19,1.05,
1.135,0.38,1.07,0.94,0.16,0.19,1.04,
1.135,0.51,1.03,0.86,0.16,0.19,1.04,
1.138,0.51,1.03,0.86,0.17,0.19,1.04,
1.14,0.51,1.03,0.86,0.17,0.18,1.04,
1.141,0.63,1.00,0.77,0.17,0.18,1.04,
1.143,0.63,1.00,0.77,0.18,0.19,1.03,
1.145,0.63,1.00,0.77,0.18,0.19,1.03,
1.145,0.73,0.97,0.71,0.18,0.19,1.03,
1.148,0.73,0.97,0.71,0.19,0.19,1.03,
1.15,0.73,0.97,0.71,0.19,0.19,1.02,
1.15,0.85,0.98,0.62,0.19,0.19,1.02,
1.152,0.85,0.98,0.62,0.19,0.19,1.02,
1.155,0.85,0.98,0.62,0.20,0.19,1.01,
1.155,0.94,0.96,0.56,0.20,0.19,1.01,
1.157,0.94,0.96,0.56,0.20,0.19,1.01,
1.16,0.94,0.96,0.56,0.20,0.19,1.01,
1.16,1.00,0.97,0.48,0.20,0.19,1.01,
1.162,1.00,0.97,0.48,0.21,0.19,1.00,
1.165,1.00,0.97,0.48,0.21,0.19,1.00,
1.165,1.08,0.98,0.40,0.21,0.19,1.00,
1.167,1.08,0.98,0.40,0.21,0.19,1.00,
1.17,1.08,0.98,0.40,0.21,0.19,0.99,
1.17,1.15,0.99,0.33,0.21,0.19,0.99,
1.172,1.15,0.99,0.33,0.21,0.19,0.99,
1.175,1.15,0.99,0.33,0.21,0.19,0.99,
1.175,1.19,0.96,0.28,0.21,0.19,0.99,
1.177,1.19,0.96,0.28,0.21,0.18,0.99,
1.179,1.19,0.96,0.28,0.21,0.18,0.99,
1.18,1.23,0.95,0.22,0.21,0.18,0.99,
1.182,1.23,0.95,0.22,0.21,0.18,0.98,
1.184,1.23,0.95,0.22,0.21,0.18,0.98,
1.185,1.23,0.91,0.19,0.21,0.18,0.98,
1.187,1.23,0.91,0.19,0.20,0.18,0.98,
1.194,1.23,0.91,0.19,0.20,0.18,0.98,
1.194,1.19,0.88,0.14,0.20,0.18,0.98,
1.195,1.19,0.88,0.14,0.20,0.17,0.98,
1.195,1.19,0.88,0.14,0.20,0.17,0.98,
1.198,1.14,0.85,0.14,0.20,0.17,0.98,
1.198,1.14,0.85,0.14,0.20,0.17,0.98,
1.199,1.14,0.85,0.14,0.19,0.16,0.98,
1.2,1.13,0.80,0.13,0.19,0.16,0.98,
1.202,1.13,0.80,0.13,0.19,0.16,0.98,
1.204,1.13,0.80,0.13,0.19,0.16,0.98,
1.204,1.10,0.73,0.11,0.19,0.16,0.98,
1.21,1.10,0.73,0.11,0.19,0.15,0.97,
1.211,1.10,0.73,0.11,0.19,0.15,0.97,
1.211,1.07,0.65,0.09,0.19,0.15,0.97,
1.211,1.07,0.65,0.09,0.19,0.15,0.97,
1.214,1.07,0.65,0.09,0.19,0.15,0.97,
1.214,1.05,0.60,0.04,0.19,0.15,0.97,
1.216,1.05,0.60,0.04,0.19,0.15,0.96,
1.219,1.05,0.60,0.04,0.19,0.14,0.96,
1.219,1.06,0.55,-0.02,0.19,0.14,0.96,
1.221,1.06,0.55,-0.02,0.19,0.14,0.95,
1.224,1.06,0.55,-0.02,0.20,0.14,0.95,
1.224,1.09,0.51,-0.08,0.20,0.14,0.95,
1.226,1.09,0.51,-0.08,0.20,0.14,0.94,
1.228,1.09,0.51,-0.08,0.20,0.14,0.94,
1.229,1.16,0.45,-0.18,0.20,0.14,0.94,
1.231,1.16,0.45,-0.18,0.20,0.14,0.94,
1.233,1.16,0.45,-0.18,0.21,0.14,0.93,
1.234,1.21,0.45,-0.26,0.21,0.14,0.93,
1.236,1.21,0.45,-0.26,0.21,0.14,0.93,
1.239,1.21,0.45,-0.26,0.21,0.15,0.93,
1.239,1.28,0.43,-0.32,0.21,0.15,0.93,
1.241,1.28,0.43,-0.32,0.21,0.15,0.92,
1.244,1.33,0.47,-0.39,0.21,0.15,0.92,
1.244,1.33,0.47,-0.39,0.21,0.15,0.92,
1.246,1.33,0.47,-0.39,0.22,0.15,0.91,
1.248,1.33,0.47,-0.39,0.22,0.15,0.91,
1.249,1.37,0.49,-0.49,0.22,0.15,0.91,
1.251,1.37,0.49,-0.49,0.22,0.16,0.91,
1.253,1.37,0.49,-0.49,0.22,0.16,0.91,
1.253,1.38,0.55,-0.54,0.22,0.16,0.91,
1.256,1.38,0.55,-0.54,0.22,0.16,0.91,
1.258,1.38,0.55,-0.54,0.23,0.16,0.91,
1.258,1.44,0.59,-0.53,0.23,0.16,0.91,
1.26,1.44,0.59,-0.53,0.23,0.16,0.91,
1.263,1.44,0.59,-0.53,0.23,0.17,0.92,
1.263,1.48,0.62,-0.52,0.23,0.17,0.92,
1.265,1.48,0.62,-0.52,0.24,0.17,0.92,
1.268,1.48,0.62,-0.52,0.24,0.17,0.92,
1.268,1.53,0.65,-0.51,0.24,0.17,0.92,
1.27,1.53,0.65,-0.51,0.24,0.17,0.92,
1.273,1.53,0.65,-0.51,0.23,0.18,0.92,
1.274,1.57,0.69,-0.50,0.23,0.18,0.92,
1.275,1.57,0.69,-0.50,0.24,0.18,0.92,
1.278,1.57,0.69,-0.50,0.23,0.18,0.93,
1.278,1.55,0.72,-0.46,0.23,0.18,0.93,
1.28,1.55,0.72,-0.46,0.23,0.18,0.93,
1.282,1.55,0.72,-0.46,0.23,0.18,0.93,
1.283,1.54,0.76,-0.41,0.23,0.18,0.93,
1.285,1.54,0.76,-0.41,0.23,0.19,0.93,
1.296,1.54,0.76,-0.41,0.23,0.19,0.93,
1.297,1.49,0.79,-0.34,0.23,0.19,0.93,
1.297,1.49,0.79,-0.34,0.23,0.19,0.93,
1.297,1.49,0.79,-0.34,0.23,0.19,0.93,
1.297,1.48,0.84,-0.32,0.23,0.19,0.93,
1.298,1.48,0.84,-0.32,0.23,0.18,0.93,
1.298,1.48,0.84,-0.32,0.23,0.18,0.93,
1.298,1.49,0.83,-0.33,0.23,0.18,0.93,
1.299,1.49,0.83,-0.33,0.23,0.18,0.93,
1.303,1.49,0.83,-0.33,0.23,0.18,0.93,
1.303,1.47,0.79,-0.33,0.23,0.18,0.93,
1.307,1.47,0.79,-0.33,0.23,0.18,0.92,
1.308,1.47,0.79,-0.33,0.23,0.18,0.92,
1.308,1.45,0.76,-0.36,0.23,0.18,0.92,
1.309,1.45,0.76,-0.36,0.23,0.18,0.92,
1.312,1.45,0.76,-0.36,0.23,0.18,0.92,
1.312,1.45,0.75,-0.42,0.23,0.18,0.92,
1.314,1.45,0.75,-0.42,0.23,0.18,0.92,
1.317,1.45,0.75,-0.42,0.23,0.18,0.91,
1.317,1.44,0.72,-0.47,0.23,0.18,0.91,
1.319,1.44,0.72,-0.47,0.23,0.18,0.91,
1.321,1.44,0.72,-0.47,0.23,0.18,0.91,
1.322,1.45,0.73,-0.49,0.23,0.18,0.91,
1.324,1.45,0.73,-0.49,0.23,0.18,0.91,
1.326,1.45,0.73,-0.49,0.23,0.18,0.92,
1.326,1.43,0.73,-0.51,0.23,0.18,0.92,
1.329,1.43,0.73,-0.51,0.23,0.18,0.92,
1.331,1.43,0.75,-0.49,0.23,0.18,0.92,
1.331,1.43,0.75,-0.49,0.23,0.18,0.92,
1.334,1.43,0.75,-0.49,0.23,0.19,0.92,
1.336,1.43,0.75,-0.49,0.23,0.19,0.92,
1.336,1.43,0.75,-0.47,0.23,0.19,0.92,
1.338,1.43,0.75,-0.47,0.23,0.19,0.92,
1.341,1.41,0.80,-0.44,0.23,0.19,0.92,
1.342,1.41,0.80,-0.44,0.23,0.20,0.93,
1.344,1.41,0.80,-0.44,0.23,0.20,0.93,
1.346,1.41,0.80,-0.44,0.23,0.20,0.93,
1.346,1.42,0.85,-0.39,0.23,0.20,0.93,
1.348,1.42,0.85,-0.39,0.22,0.21,0.93,
1.351,1.42,0.85,-0.39,0.22,0.21,0.93,
1.351,1.41,0.91,-0.34,0.22,0.21,0.93,
1.353,1.41,0.91,-0.34,0.22,0.21,0.94,
1.356,1.41,0.91,-0.34,0.22,0.21,0.94,
1.357,1.38,1.00,-0.32,0.22,0.21,0.94,
1.359,1.38,1.00,-0.32,0.22,0.22,0.94,
1.361,1.38,1.00,-0.32,0.22,0.22,0.94,
1.361,1.37,1.03,-0.27,0.22,0.22,0.94,
1.363,1.37,1.03,-0.27,0.22,0.22,0.94,
1.366,1.37,1.03,-0.27,0.21,0.22,0.94,
1.366,1.34,1.05,-0.25,0.21,0.22,0.94,
1.368,1.34,1.05,-0.25,0.21,0.22,0.94,
1.372,1.34,1.05,-0.25,0.21,0.22,0.94,
1.372,1.26,1.05,-0.26,0.21,0.22,0.94,
1.373,1.26,1.05,-0.26,0.20,0.22,0.93,
1.375,1.26,1.05,-0.26,0.20,0.22,0.93,
1.376,1.21,1.04,-0.28,0.20,0.22,0.93,
1.378,1.21,1.04,-0.28,0.19,0.22,0.93,
1.38,1.21,1.04,-0.28,0.19,0.21,0.93,
1.381,1.14,1.03,-0.32,0.19,0.21,0.93,
1.383,1.14,1.03,-0.32,0.19,0.21,0.92,
1.385,1.14,1.03,-0.32,0.19,0.21,0.92,
1.386,1.05,1.01,-0.37,0.19,0.21,0.92,
1.388,1.05,1.01,-0.37,0.19,0.20,0.92,
1.39,1.05,1.01,-0.37,0.19,0.20,0.92,
1.391,1.02,0.95,-0.40,0.19,0.20,0.92,
1.393,1.02,0.95,-0.40,0.19,0.19,0.92,
1.395,1.02,0.95,-0.40,0.19,0.19,0.91,
1.395,1.01,0.87,-0.45,0.19,0.19,0.91,
1.398,1.01,0.87,-0.45,0.20,0.19,0.91,
1.4,1.01,0.87,-0.45,0.20,0.18,0.91,
1.4,1.03,0.78,-0.49,0.20,0.18,0.91,
1.403,1.03,0.78,-0.49,0.20,0.18,0.91,
1.41,1.03,0.78,-0.49,0.20,0.18,0.91,
1.411,1.07,0.72,-0.51,0.20,0.18,0.91,
1.411,1.07,0.72,-0.51,0.19,0.18,0.91,
1.411,1.07,0.72,-0.51,0.19,0.17,0.91,
1.412,1.09,0.65,-0.51,0.19,0.17,0.91,
1.412,1.09,0.65,-0.51,0.19,0.17,0.91,
1.415,1.09,0.65,-0.51,0.19,0.17,0.92,
1.415,1.03,0.61,-0.53,0.19,0.17,0.92,
1.417,1.03,0.61,-0.53,0.18,0.17,0.92,
1.42,1.03,0.61,-0.53,0.18,0.17,0.92,
1.42,0.98,0.60,-0.48,0.18,0.17,0.92,
1.422,0.98,0.60,-0.48,0.17,0.17,0.93,
1.424,0.98,0.60,-0.48,0.17,0.17,0.93,
1.424,0.90,0.56,-0.41,0.17,0.17,0.93,
1.427,0.90,0.56,-0.41,0.17,0.16,0.94,
1.429,0.90,0.56,-0.41,0.16,0.16,0.95,
1.43,0.82,0.54,-0.32,0.16,0.16,0.95,
1.432,0.82,0.54,-0.32,0.16,0.15,0.95,
1.434,0.82,0.54,-0.32,0.15,0.15,0.96,
1.434,0.74,0.47,-0.21,0.15,0.15,0.96,
1.436,0.74,0.47,-0.21,0.14,0.15,0.97,
1.44,0.74,0.47,-0.21,0.13,0.15,0.98,
1.44,0.60,0.41,-0.06,0.13,0.15,0.98,
1.442,0.60,0.41,-0.06,0.12,0.15,0.99,
1.444,0.60,0.41,-0.06,0.12,0.15,1.00,
1.445,0.43,0.40,0.11,0.12,0.15,1.00,
1.446,0.43,0.40,0.11,0.11,0.15,1.01,
1.449,0.43,0.40,0.11,0.10,0.15,1.01,
1.449,0.25,0.39,0.28,0.10,0.15,1.01,
1.451,0.25,0.39,0.28,0.10,0.14,1.02,
1.455,0.25,0.39,0.28,0.10,0.14,1.03,
1.456,0.10,0.37,0.46,0.10,0.14,1.03,
1.456,0.10,0.37,0.46,0.10,0.14,1.03,
1.459,0.10,0.37,0.46,0.10,0.14,1.04,
1.459,0.01,0.32,0.60,0.10,0.14,1.04,
1.461,0.01,0.32,0.60,0.10,0.13,1.04,
1.463,0.01,0.32,0.60,0.11,0.13,1.05,
1.464,-0.02,0.27,0.72,0.11,0.13,1.05,
1.466,-0.02,0.27,0.72,0.11,0.12,1.05,
1.468,-0.02,0.27,0.72,0.11,0.12,1.05,
1.469,0.01,0.20,0.81,0.11,0.12,1.05,
1.471,0.01,0.20,0.81,0.12,0.12,1.05,
1.474,0.01,0.20,0.81,0.12,0.11,1.05,
1.474,0.08,0.10,0.84,0.12,0.11,1.05,
1.476,0.08,0.10,0.84,0.12,0.11,1.04,
1.478,0.08,0.10,0.84,0.12,0.11,1.04,
1.479,0.11,0.02,0.85,0.12,0.11,1.04,
1.481,0.11,0.02,0.85,0.12,0.11,1.03,
1.483,0.11,0.02,0.85,0.11,0.11,1.03,
1.483,0.13,-0.03,0.77,0.11,0.11,1.03,
1.486,0.13,-0.03,0.77,0.11,0.11,1.02,
1.489,0.07,-0.05,0.66,0.11,0.11,1.02,
1.489,0.07,-0.05,0.66,0.11,0.11,1.01,
1.491,0.07,-0.05,0.66,0.10,0.11,1.00,
1.493,0.07,-0.05,0.66,0.10,0.11,0.99,
1.493,-0.00,-0.06,0.48,0.10,0.11,0.99,
1.495,-0.00,-0.06,0.48,0.10,0.11,0.98,
1.498,-0.06,-0.09,0.32,0.10,0.11,0.98,
1.498,-0.06,-0.09,0.32,0.10,0.11,0.98,
1.5,-0.06,-0.09,0.32,0.10,0.10,0.97,
1.503,-0.06,-0.09,0.32,0.10,0.10,0.96,
1.503,-0.05,-0.13,0.18,0.10,0.10,0.96,
1.51,-0.05,-0.13,0.18,0.10,0.10,0.95,
1.511,-0.05,-0.13,0.18,0.10,0.10,0.95,
1.511,-0.08,-0.17,0.03,0.10,0.10,0.95,
1.511,-0.08,-0.17,0.03,0.10,0.10,0.95,
1.513,-0.09,-0.23,-0.10,0.10,0.10,0.95,
1.513,-0.09,-0.23,-0.10,0.09,0.10,0.94,
1.515,-0.09,-0.23,-0.10,0.09,0.09,0.94,
1.518,-0.09,-0.23,-0.10,0.09,0.09,0.94,
1.518,-0.14,-0.24,-0.17,0.09,0.09,0.94,
1.52,-0.14,-0.24,-0.17,0.09,0.09,0.94,
1.522,-0.14,-0.24,-0.17,0.09,0.09,0.95,
1.523,-0.15,-0.28,-0.18,0.09,0.09,0.95,
1.525,-0.15,-0.28,-0.18,0.08,0.09,0.95,
1.527,-0.15,-0.28,-0.18,0.08,0.09,0.96,
1.527,-0.18,-0.30,-0.16,0.08,0.09,0.96,
1.529,-0.18,-0.30,-0.16,0.07,0.09,0.96,
1.532,-0.18,-0.30,-0.16,0.06,0.09,0.97,
1.532,-0.28,-0.29,-0.08,0.06,0.09,0.97,
1.534,-0.28,-0.29,-0.08,0.06,0.09,0.98,
1.537,-0.28,-0.29,-0.08,0.06,0.09,0.99,
1.537,-0.41,-0.30,0.05,0.06,0.09,0.99,
1.539,-0.41,-0.30,0.05,0.06,0.09,1.00,
1.542,-0.41,-0.30,0.05,0.06,0.08,1.01,
1.542,-0.47,-0.32,0.20,0.06,0.08,1.01,
1.544,-0.47,-0.32,0.20,0.06,0.08,1.01,
1.547,-0.47,-0.32,0.20,0.06,0.08,1.02,
1.547,-0.52,-0.36,0.38,0.06,0.08,1.02,
1.549,-0.52,-0.36,0.38,0.06,0.08,1.03,
1.552,-0.52,-0.36,0.38,0.06,0.08,1.04,
1.552,-0.50,-0.40,0.56,0.06,0.08,1.04,
1.554,-0.50,-0.40,0.56,0.06,0.07,1.04,
1.556,-0.50,-0.40,0.56,0.06,0.07,1.05,
1.557,-0.50,-0.42,0.72,0.06,0.07,1.05,
1.559,-0.50,-0.42,0.72,0.06,0.06,1.06,
1.561,-0.50,-0.42,0.72,0.06,0.06,1.06,
1.562,-0.53,-0.48,0.85,0.06,0.06,1.06,
1.564,-0.53,-0.48,0.85,0.06,0.06,1.06,
1.566,-0.53,-0.48,0.85,0.05,0.05,1.06,
1.567,-0.53,-0.59,0.94,0.05,0.05,1.06,
1.569,-0.53,-0.59,0.94,0.05,0.05,1.06,
1.571,-0.53,-0.59,0.94,0.05,0.05,1.06,
1.572,-0.57,-0.65,0.97,0.05,0.05,1.06,
1.574,-0.57,-0.65,0.97,0.05,0.05,1.06,
1.576,-0.57,-0.65,0.97,0.05,0.05,1.05,
1.577,-0.61,-0.71,0.96,0.05,0.05,1.05,
1.578,-0.61,-0.71,0.96,0.04,0.05,1.05,
1.581,-0.61,-0.71,0.96,0.03,0.05,1.05,
1.581,-0.66,-0.74,0.91,0.03,0.05,1.05,
1.584,-0.66,-0.74,0.91,0.03,0.05,1.05,
1.586,-0.77,-0.74,0.86,0.03,0.05,1.05,
1.586,-0.77,-0.74,0.86,0.03,0.04,1.04,
1.593,-0.77,-0.74,0.86,0.03,0.04,1.04,
1.594,-0.77,-0.74,0.86,0.03,0.04,1.03,
1.594,-0.82,-0.78,0.80,0.03,0.04,1.03,
1.594,-0.82,-0.78,0.80,0.04,0.03,1.03,
1.596,-0.82,-0.78,0.80,0.04,0.02,1.02,
1.596,-0.83,-0.85,0.71,0.04,0.02,1.02,
1.598,-0.83,-0.85,0.71,0.04,0.02,1.02,
1.601,-0.83,-0.85,0.71,0.04,0.01,1.01,
1.601,-0.78,-0.98,0.61,0.04,0.01,1.01,
1.603,-0.78,-0.98,0.61,0.04,0.01,1.01,
1.615,-0.78,-0.98,0.61,0.04,0.01,1.00,
1.615,-0.75,-1.09,0.52,0.04,0.01,1.00,
1.615,-0.75,-1.09,0.52,0.04,0.00,1.00,
1.616,-0.75,-1.09,0.52,0.04,0.00,0.99,
1.616,-0.71,-1.19,0.42,0.04,0.00,0.99,
1.616,-0.71,-1.19,0.42,0.04,0.00,0.99,
1.617,-0.71,-1.19,0.42,0.04,0.00,0.99,
1.617,-0.73,-1.25,0.34,0.04,0.00,0.99,
1.618,-0.73,-1.25,0.34,0.04,0.01,0.98,
1.62,-0.73,-1.25,0.34,0.03,0.01,0.98,
1.621,-0.76,-1.25,0.28,0.03,0.01,0.98,
1.623,-0.76,-1.25,0.28,0.03,0.01,0.98,
1.625,-0.76,-1.25,0.28,0.03,0.01,0.98,
1.626,-0.82,-1.24,0.23,0.03,0.01,0.98,
1.628,-0.82,-1.24,0.23,0.03,0.01,0.97,
1.63,-0.82,-1.24,0.23,0.03,0.01,0.97,
1.63,-0.87,-1.25,0.18,0.03,0.01,0.97,
1.632,-0.87,-1.25,0.18,0.03,0.01,0.97,
1.635,-0.87,-1.25,0.18,0.03,0.01,0.97,
1.635,-0.86,-1.23,0.14,0.03,0.01,0.97,
1.637,-0.86,-1.23,0.14,0.03,0.01,0.97,
1.64,-0.86,-1.23,0.14,0.03,0.01,0.97,
1.64,-0.84,-1.27,0.12,0.03,0.01,0.97,
1.642,-0.84,-1.27,0.12,0.03,0.01,0.97,
1.645,-0.84,-1.27,0.12,0.03,0.00,0.97,
1.645,-0.86,-1.29,0.11,0.03,0.00,0.97,
1.647,-0.86,-1.29,0.11,0.03,0.00,0.97,
1.65,-0.86,-1.29,0.11,0.02,0.01,0.96,
1.65,-0.88,-1.31,0.09,0.02,0.01,0.96,
1.652,-0.88,-1.31,0.09,0.02,0.00,0.96,
1.655,-0.88,-1.31,0.09,0.01,0.00,0.96,
1.655,-0.95,-1.31,0.07,0.01,0.00,0.96,
1.657,-0.95,-1.31,0.07,0.01,0.00,0.96,
1.659,-0.95,-1.31,0.07,0.00,0.00,0.96,
1.66,-1.04,-1.32,0.02,0.00,0.00,0.96,
1.662,-1.04,-1.32,0.02,0.00,0.00,0.95,
1.664,-1.04,-1.32,0.02,0.00,0.00,0.95,
1.665,-1.14,-1.33,-0.01,0.00,0.00,0.95,
1.667,-1.14,-1.33,-0.01,0.00,-0.00,0.95,
1.669,-1.14,-1.33,-0.01,0.00,-0.00,0.95,
1.67,-1.19,-1.36,-0.04,0.00,-0.00,0.95,
1.672,-1.19,-1.36,-0.04,0.01,-0.00,0.95,
1.674,-1.19,-1.36,-0.04,0.01,-0.00,0.95,
1.675,-1.16,-1.38,-0.07,0.01,-0.00,0.95,
1.677,-1.16,-1.38,-0.07,0.01,-0.00,0.95,
1.679,-1.16,-1.38,-0.07,0.01,-0.00,0.96,
1.679,-1.12,-1.39,-0.07,0.01,-0.00,0.96,
1.681,-1.12,-1.39,-0.07,0.01,-0.00,0.96,
1.684,-1.12,-1.39,-0.07,0.01,-0.00,0.96,
1.686,-1.09,-1.41,-0.04,0.01,-0.00,0.96,
1.686,-1.09,-1.41,-0.04,0.01,-0.00,0.96,
1.69,-1.09,-1.41,-0.04,0.00,-0.00,0.97,
1.691,-1.10,-1.40,0.02,0.00,-0.00,0.97,
1.691,-1.10,-1.40,0.02,0.00,-0.00,0.97,
1.694,-1.10,-1.40,0.02,0.00,-0.00,0.97,
1.694,-1.12,-1.38,0.07,0.00,-0.00,0.97,
1.696,-1.12,-1.38,0.07,0.01,-0.00,0.97,
1.698,-1.12,-1.38,0.07,0.01,-0.00,0.98,
1.698,-1.14,-1.38,0.12,0.01,-0.00,0.98,
1.701,-1.14,-1.38,0.12,0.02,-0.00,0.98,
1.703,-1.14,-1.38,0.12,0.03,-0.00,0.98,
1.704,-1.06,-1.38,0.16,0.03,-0.00,0.98,
1.706,-1.06,-1.38,0.16,0.03,-0.01,0.98,
1.708,-1.06,-1.38,0.16,0.04,-0.01,0.97,
1.708,-0.92,-1.39,0.18,0.04,-0.01,0.97,
1.711,-0.92,-1.39,0.18,0.04,-0.01,0.98,
1.713,-0.92,-1.39,0.18,0.05,-0.01,0.98,
1.714,-0.78,-1.41,0.16,0.05,-0.01,0.98,
1.716,-0.78,-1.41,0.16,0.05,-0.01,0.98,
1.718,-0.78,-1.41,0.16,0.05,-0.01,0.98,
1.718,-0.69,-1.44,0.18,0.05,-0.01,0.98,
1.72,-0.69,-1.44,0.18,0.05,-0.01,0.97,
1.723,-0.69,-1.44,0.18,0.06,-0.01,0.97,
1.723,-0.63,-1.42,0.17,0.06,-0.01,0.97,
1.725,-0.63,-1.42,0.17,0.06,-0.00,0.97,
1.728,-0.63,-1.42,0.17,0.06,0.00,0.97,
1.728,-0.58,-1.39,0.15,0.06,0.00,0.97,
1.73,-0.58,-1.39,0.15,0.06,0.00,0.97,
1.733,-0.58,-1.39,0.15,0.06,0.01,0.97,
1.733,-0.53,-1.33,0.11,0.06,0.01,0.97,
1.735,-0.53,-1.33,0.11,0.06,0.01,0.97,
1.738,-0.53,-1.33,0.11,0.06,0.01,0.97,
1.739,-0.52,-1.27,0.09,0.06,0.01,0.97,
1.74,-0.52,-1.27,0.09,0.05,0.01,0.97,
1.743,-0.52,-1.27,0.09,0.05,0.01,0.97,
1.743,-0.55,-1.25,0.07,0.05,0.01,0.97,
1.745,-0.55,-1.25,0.07,0.05,0.01,0.97,
1.748,-0.55,-1.25,0.07,0.05,0.01,0.97,
1.748,-0.60,-1.23,0.07,0.05,0.01,0.97,
1.75,-0.60,-1.23,0.07,0.05,0.01,0.96,
1.752,-0.60,-1.23,0.07,0.05,0.01,0.96,
1.753,-0.61,-1.22,0.06,0.05,0.01,0.96,
1.755,-0.61,-1.22,0.06,0.05,0.01,0.96,
1.758,-0.62,-1.20,0.02,0.05,0.01,0.96,
1.758,-0.62,-1.20,0.02,0.05,0.01,0.96,
1.76,-0.62,-1.20,0.02,0.05,0.01,0.96,
1.762,-0.62,-1.20,0.02,0.05,0.01,0.96,
1.762,-0.61,-1.20,-0.02,0.05,0.01,0.96,
1.765,-0.61,-1.20,-0.02,0.05,0.01,0.96,
1.767,-0.61,-1.20,-0.02,0.04,0.01,0.96,
1.767,-0.61,-1.19,-0.02,0.04,0.01,0.96,
1.771,-0.61,-1.19,-0.02,0.04,0.01,0.95,
1.772,-0.61,-1.19,-0.02,0.04,0.02,0.95,
1.773,-0.61,-1.17,-0.03,0.04,0.02,0.95,
1.774,-0.61,-1.17,-0.03,0.05,0.02,0.95,
1.777,-0.61,-1.17,-0.03,0.05,0.01,0.95,
1.777,-0.60,-1.13,-0.08,0.05,0.01,0.95,
1.779,-0.60,-1.13,-0.08,0.04,0.01,0.95,
1.782,-0.60,-1.13,-0.08,0.04,0.01,0.95,
1.783,-0.57,-1.12,-0.11,0.04,0.01,0.95,
1.784,-0.57,-1.12,-0.11,0.04,0.01,0.95,
1.787,-0.57,-1.12,-0.11,0.04,0.01,0.95,
1.788,-0.57,-1.14,-0.13,0.04,0.01,0.95,
1.789,-0.57,-1.14,-0.13,0.04,0.01,0.94,
1.792,-0.57,-1.14,-0.13,0.04,0.01,0.95,
1.792,-0.58,-1.15,-0.14,0.04,0.01,0.95,
1.794,-0.58,-1.15,-0.14,0.04,0.01,0.95,
1.796,-0.58,-1.15,-0.14,0.03,0.01,0.95,
1.797,-0.59,-1.17,-0.16,0.03,0.01,0.95,
1.799,-0.59,-1.17,-0.16,0.03,0.01,0.95,
1.802,-0.59,-1.17,-0.16,0.02,0.01,0.95,
1.802,-0.64,-1.15,-0.14,0.02,0.01,0.95,
1.809,-0.64,-1.15,-0.14,0.02,0.01,0.96,
1.81,-0.64,-1.15,-0.14,0.02,0.01,0.96,
1.81,-0.72,-1.11,-0.10,0.02,0.01,0.96,
1.811,-0.72,-1.11,-0.10,0.02,0.01,0.97,
1.811,-0.72,-1.11,-0.10,0.02,0.02,0.97,
1.812,-0.75,-1.10,-0.02,0.02,0.02,0.97,
1.814,-0.75,-1.10,-0.02,0.02,0.02,0.98,
1.816,-0.75,-1.10,-0.02,0.03,0.02,0.98,
1.817,-0.74,-1.07,0.09,0.03,0.02,0.98,
1.818,-0.74,-1.07,0.09,0.03,0.02,0.99,
1.824,-0.74,-1.07,0.09,0.03,0.02,1.00,
1.825,-0.71,-1.06,0.20,0.03,0.02,1.00,
1.825,-0.71,-1.06,0.20,0.03,0.02,1.00,
1.826,-0.71,-1.06,0.20,0.03,0.02,1.00,
1.826,-0.67,-1.06,0.30,0.03,0.02,1.00,
1.828,-0.67,-1.06,0.30,0.03,0.02,1.01,
1.831,-0.67,-1.06,0.30,0.03,0.03,1.01,
1.831,-0.67,-1.04,0.39,0.03,0.03,1.01,
1.833,-0.67,-1.04,0.39,0.02,0.03,1.01,
1.836,-0.67,-1.04,0.39,0.02,0.03,1.02,
1.836,-0.72,-0.97,0.48,0.02,0.03,1.02,
1.838,-0.72,-0.97,0.48,0.02,0.04,1.02,
1.841,-0.72,-0.97,0.48,0.02,0.04,1.02,
1.841,-0.78,-0.89,0.51,0.02,0.04,1.02,
1.843,-0.78,-0.89,0.51,0.02,0.04,1.02,
1.845,-0.78,-0.89,0.51,0.02,0.04,1.01,
1.845,-0.78,-0.86,0.53,0.02,0.04,1.01,
1.848,-0.78,-0.86,0.53,0.02,0.03,1.01,
1.85,-0.78,-0.86,0.53,0.03,0.03,1.01,
1.851,-0.78,-0.86,0.52,0.03,0.03,1.01,
1.853,-0.78,-0.86,0.52,0.03,0.03,1.00,
1.855,-0.78,-0.86,0.52,0.03,0.03,1.00,
1.856,-0.74,-0.91,0.45,0.03,0.03,1.00,
1.858,-0.74,-0.91,0.45,0.03,0.04,0.99,
1.86,-0.74,-0.91,0.45,0.02,0.04,0.98,
1.86,-0.72,-0.91,0.37,0.02,0.04,0.98,
1.862,-0.72,-0.91,0.37,0.02,0.04,0.98,
1.865,-0.72,-0.91,0.37,0.02,0.04,0.97,
1.865,-0.74,-0.87,0.25,0.02,0.04,0.97,
1.868,-0.74,-0.87,0.25,0.02,0.04,0.97,
1.87,-0.74,-0.87,0.25,0.02,0.04,0.96,
1.871,-0.77,-0.87,0.12,0.02,0.04,0.96,
1.872,-0.77,-0.87,0.12,0.02,0.04,0.96,
1.875,-0.77,-0.87,0.12,0.03,0.04,0.95,
1.875,-0.77,-0.84,0.00,0.03,0.04,0.95,
1.877,-0.77,-0.84,0.00,0.03,0.04,0.95,
1.88,-0.77,-0.84,0.00,0.04,0.03,0.95,
1.88,-0.71,-0.85,-0.08,0.04,0.03,0.95,
1.882,-0.71,-0.85,-0.08,0.04,0.03,0.94,
1.885,-0.71,-0.85,-0.08,0.05,0.03,0.94,
1.885,-0.61,-0.88,-0.15,0.05,0.03,0.94,
1.887,-0.61,-0.88,-0.15,0.05,0.04,0.94,
1.89,-0.61,-0.88,-0.15,0.05,0.04,0.94,
1.89,-0.49,-0.90,-0.19,0.05,0.04,0.94,
1.892,-0.49,-0.90,-0.19,0.05,0.04,0.95,
1.895,-0.49,-0.90,-0.19,0.05,0.05,0.95,
1.895,-0.42,-0.86,-0.19,0.05,0.05,0.95,
1.897,-0.42,-0.86,-0.19,0.05,0.05,0.96,
1.899,-0.42,-0.86,-0.19,0.05,0.06,0.96,
1.9,-0.38,-0.77,-0.11,0.05,0.06,0.96,
1.902,-0.38,-0.77,-0.11,0.05,0.06,0.97,
1.91,-0.38,-0.77,-0.11,0.05,0.07,0.98,
1.91,-0.38,-0.65,-0.01,0.05,0.07,0.98,
1.911,-0.38,-0.65,-0.01,0.05,0.07,0.99,
1.911,-0.38,-0.65,-0.01,0.05,0.08,1.00,
1.911,-0.43,-0.53,0.13,0.05,0.08,1.00,
1.911,-0.43,-0.53,0.13,0.05,0.08,1.01,
1.914,-0.43,-0.53,0.13,0.05,0.08,1.02,
1.914,-0.44,-0.43,0.31,0.05,0.08,1.02,
1.917,-0.44,-0.43,0.31,0.05,0.08,1.02,
1.926,-0.44,-0.43,0.31,0.05,0.08,1.03,
1.926,-0.42,-0.38,0.49,0.05,0.08,1.03,
1.926,-0.42,-0.38,0.49,0.05,0.08,1.04,
1.927,-0.42,-0.38,0.49,0.05,0.08,1.04,
1.927,-0.41,-0.35,0.62,0.05,0.08,1.04,
1.927,-0.41,-0.35,0.62,0.05,0.08,1.04,
1.929,-0.41,-0.35,0.62,0.05,0.09,1.04,
1.929,-0.43,-0.34,0.72,0.05,0.09,1.04,
1.931,-0.43,-0.34,0.72,0.05,0.09,1.04,
1.933,-0.43,-0.34,0.72,0.05,0.09,1.04,
1.934,-0.43,-0.30,0.76,0.05,0.09,1.04,
1.936,-0.43,-0.30,0.76,0.05,0.08,1.04,
1.939,-0.43,-0.30,0.76,0.05,0.08,1.04,
1.939,-0.44,-0.28,0.76,0.05,0.08,1.04,
1.941,-0.44,-0.28,0.76,0.06,0.08,1.03,
1.943,-0.44,-0.28,0.76,0.06,0.07,1.02,
1.943,-0.38,-0.33,0.71,0.06,0.07,1.02,
1.946,-0.38,-0.33,0.71,0.06,0.07,1.02,
1.948,-0.38,-0.33,0.71,0.06,0.07,1.01,
1.948,-0.32,-0.40,0.60,0.06,0.07,1.01,
1.951,-0.32,-0.40,0.60,0.06,0.07,1.00,
1.954,-0.32,-0.40,0.60,0.06,0.07,0.99,
1.954,-0.30,-0.45,0.44,0.06,0.07,0.99,
1.955,-0.30,-0.45,0.44,0.06,0.07,0.99,
1.958,-0.30,-0.45,0.44,0.06,0.07,0.98,
1.958,-0.27,-0.47,0.27,0.06,0.07,0.98,
1.96,-0.27,-0.47,0.27,0.05,0.07,0.98,
1.963,-0.27,-0.47,0.27,0.05,0.07,0.97,
1.963,-0.25,-0.47,0.15,0.05,0.07,0.97,
1.965,-0.25,-0.47,0.15,0.05,0.08,0.96,
1.968,-0.25,-0.47,0.15,0.05,0.08,0.96,
1.968,-0.30,-0.43,0.04,0.05,0.08,0.96,
1.971,-0.30,-0.43,0.04,0.05,0.09,0.96,
1.973,-0.30,-0.43,0.04,0.04,0.09,0.96,
1.973,-0.35,-0.36,-0.07,0.04,0.09,0.96,
1.975,-0.35,-0.36,-0.07,0.05,0.10,0.96,
1.978,-0.35,-0.36,-0.07,0.05,0.10,0.96,
1.978,-0.36,-0.28,-0.09,0.05,0.10,0.96,
1.98,-0.36,-0.28,-0.09,0.05,0.10,0.97,
1.983,-0.36,-0.28,-0.09,0.06,0.11,0.96,
1.983,-0.33,-0.19,-0.06,0.06,0.11,0.96,
1.985,-0.33,-0.19,-0.06,0.06,0.11,0.97,
1.992,-0.33,-0.19,-0.06,0.07,0.12,0.97,
1.993,-0.26,-0.11,-0.03,0.07,0.12,0.97,
1.993,-0.26,-0.11,-0.03,0.07,0.12,0.98,
1.993,-0.15,-0.04,0.01,0.07,0.12,0.98,
1.993,-0.15,-0.04,0.01,0.08,0.12,0.98,
1.995,-0.15,-0.04,0.01,0.08,0.12,0.98,
1.997,-0.15,-0.04,0.01,0.09,0.13,0.98,
1.998,-0.04,0.02,0.09,0.09,0.13,0.98,
2.0,-0.04,0.02,0.09,0.09,0.13,0.98,
2.003,-0.04,0.02,0.09,0.09,0.13,0.99,
2.003,0.05,0.08,0.13,0.09,0.13,0.99,
2.005,0.05,0.08,0.13,0.10,0.13,0.99,
2.007,0.05,0.08,0.13,0.10,0.13,0.99,
2.008,0.11,0.14,0.17,0.10,0.13,0.99,
2.01,0.11,0.14,0.17,0.10,0.13,0.99,
2.012,0.11,0.14,0.17,0.10,0.13,0.99,
2.012,0.18,0.15,0.20,0.10,0.13,0.99,
2.014,0.18,0.15,0.20,0.10,0.13,0.98,
2.017,0.18,0.15,0.20,0.10,0.13,0.98,
2.017,0.20,0.15,0.19,0.10,0.13,0.98,
2.02,0.20,0.15,0.19,0.10,0.13,0.97,
2.022,0.20,0.15,0.19,0.10,0.13,0.97,
2.022,0.18,0.12,0.11,0.10,0.13,0.97,
2.025,0.18,0.12,0.11,0.10,0.12,0.97,
2.027,0.18,0.12,0.11,0.10,0.12,0.96,
2.027,0.20,0.08,0.04,0.10,0.12,0.96,
2.029,0.20,0.08,0.04,0.09,0.12,0.96,
2.031,0.20,0.08,0.04,0.09,0.11,0.96,
2.032,0.18,0.01,-0.02,0.09,0.11,0.96,
2.034,0.18,0.01,-0.02,0.09,0.11,0.95,
2.036,0.18,0.01,-0.02,0.09,0.11,0.95,
2.037,0.13,-0.04,-0.09,0.09,0.11,0.95,
2.039,0.13,-0.04,-0.09,0.08,0.11,0.95,
2.041,0.13,-0.04,-0.09,0.07,0.11,0.95,
2.042,0.08,-0.07,-0.17,0.07,0.11,0.95,
2.044,0.08,-0.07,-0.17,0.07,0.11,0.95,
2.046,0.08,-0.07,-0.17,0.06,0.11,0.95,
2.046,-0.02,-0.09,-0.21,0.06,0.11,0.95,
2.049,-0.02,-0.09,-0.21,0.06,0.11,0.95,
2.052,-0.13,-0.07,-0.19,0.06,0.11,0.95,
2.052,-0.13,-0.07,-0.19,0.05,0.11,0.95,
2.054,-0.13,-0.07,-0.19,0.05,0.11,0.95,
2.056,-0.13,-0.07,-0.19,0.06,0.11,0.96,
2.057,-0.21,-0.06,-0.17,0.06,0.11,0.96,
2.059,-0.21,-0.06,-0.17,0.06,0.11,0.96,
2.061,-0.21,-0.06,-0.17,0.06,0.11,0.96,
2.061,-0.21,-0.07,-0.12,0.06,0.11,0.96,
2.063,-0.21,-0.07,-0.12,0.06,0.11,0.96,
2.066,-0.21,-0.07,-0.12,0.07,0.11,0.97,
2.066,-0.17,-0.07,-0.08,0.07,0.11,0.97,
2.068,-0.17,-0.07,-0.08,0.07,0.12,0.97,
2.071,-0.11,-0.05,-0.02,0.07,0.12,0.97,
2.071,-0.11,-0.05,-0.02,0.07,0.12,0.97,
2.074,-0.11,-0.05,-0.02,0.08,0.13,0.97,
2.076,-0.11,-0.05,-0.02,0.08,0.13,0.97,
2.076,-0.04,0.02,0.03,0.08,0.13,0.97,
2.078,-0.04,0.02,0.03,0.09,0.13,0.98,
2.08,-0.04,0.02,0.03,0.09,0.13,0.98,
2.081,0.04,0.08,0.06,0.09,0.13,0.98,
2.083,0.04,0.08,0.06,0.10,0.13,0.98,
2.092,0.04,0.08,0.06,0.10,0.14,0.98,
2.093,0.12,0.13,0.10,0.10,0.14,0.98,
2.093,0.12,0.13,0.10,0.10,0.14,0.97,
2.094,0.12,0.13,0.10,0.11,0.14,0.97,
2.094,0.22,0.15,0.08,0.11,0.14,0.97,
2.094,0.22,0.15,0.08,0.11,0.14,0.97,
2.095,0.22,0.15,0.08,0.11,0.15,0.97,
2.096,0.29,0.19,0.05,0.11,0.15,0.97,
2.098,0.29,0.19,0.05,0.11,0.15,0.96,
2.1,0.29,0.19,0.05,0.11,0.15,0.95,
2.1,0.35,0.24,0.00,0.11,0.15,0.95,
2.108,0.35,0.24,0.00,0.12,0.14,0.91,
2.108,0.35,0.24,0.00,0.12,0.14,0.88,
2.108,0.37,0.26,-0.08,0.12,0.14,0.88,
2.108,0.37,0.26,-0.08,0.12,0.14,0.89,
2.11,0.37,0.26,-0.08,0.12,0.14,0.91,
2.11,0.47,0.20,-0.73,0.12,0.14,0.91,
2.113,0.47,0.20,-0.73,0.11,0.14,0.92,
2.115,0.47,0.20,-0.73,0.10,0.15,0.92,
2.115,0.45,0.17,-0.69,0.10,0.15,0.92,
2.117,0.45,0.17,-0.69,0.10,0.15,0.91,
2.12,0.45,0.17,-0.69,0.10,0.15,0.91,
2.12,0.30,0.24,-0.48,0.10,0.15,0.91,
2.122,0.30,0.24,-0.48,0.10,0.14,0.90,
2.125,0.30,0.24,-0.48,0.11,0.14,0.90,
2.125,0.22,0.27,-0.57,0.11,0.14,0.90,
2.127,0.22,0.27,-0.57,0.11,0.13,0.91,
2.129,0.22,0.27,-0.57,0.11,0.13,0.91,
2.13,0.30,0.19,-0.63,0.11,0.13,0.91,
2.132,0.30,0.19,-0.63,0.11,0.13,0.92,
2.134,0.30,0.19,-0.63,0.11,0.13,0.93,
2.135,0.35,0.13,-0.55,0.11,0.13,0.93,
2.137,0.35,0.13,-0.55,0.10,0.13,0.94,
2.139,0.35,0.13,-0.55,0.10,0.13,0.95,
2.14,0.33,0.13,-0.40,0.10,0.13,0.95,
2.142,0.33,0.13,-0.40,0.10,0.13,0.96,
2.144,0.33,0.13,-0.40,0.10,0.13,0.97,
2.144,0.24,0.15,-0.22,0.10,0.13,0.97,
2.146,0.24,0.15,-0.22,0.10,0.13,0.98,
2.149,0.24,0.15,-0.22,0.11,0.13,0.99,
2.149,0.24,0.12,-0.03,0.11,0.13,0.99,
2.151,0.24,0.12,-0.03,0.11,0.13,1.00,
2.154,0.24,0.12,-0.03,0.11,0.13,1.00,
2.154,0.24,0.10,0.19,0.11,0.13,1.00,
2.156,0.24,0.10,0.19,0.11,0.13,1.01,
2.159,0.24,0.10,0.19,0.11,0.13,1.02,
2.159,0.27,0.08,0.35,0.11,0.13,1.02,
2.161,0.27,0.08,0.35,0.11,0.13,1.02,
2.164,0.27,0.08,0.35,0.11,0.13,1.02,
2.164,0.28,0.08,0.47,0.11,0.13,1.02,
2.166,0.28,0.08,0.47,0.12,0.13,1.03,
2.169,0.28,0.08,0.47,0.11,0.12,1.03,
2.17,0.31,0.09,0.56,0.11,0.12,1.03,
2.171,0.31,0.09,0.56,0.12,0.12,1.03,
2.174,0.31,0.09,0.56,0.12,0.12,1.02,
2.177,0.32,0.07,0.60,0.12,0.12,1.02,
2.178,0.32,0.07,0.60,0.12,0.12,1.02,
2.178,0.32,0.07,0.60,0.12,0.12,1.02,
2.179,0.33,0.04,0.56,0.12,0.12,1.02,
2.181,0.33,0.04,0.56,0.11,0.12,1.01,
2.183,0.33,0.04,0.56,0.11,0.12,1.01,
2.184,0.33,0.02,0.50,0.11,0.12,1.01,
2.186,0.33,0.02,0.50,0.10,0.12,1.00,
