
time,ax,ay,az,gFx,gFy,gFz,
0.002,0.13,-0.14,0.76,0.01,0.07,1.04,
0.003,0.09,-0.17,0.70,0.01,0.07,1.04,
0.003,0.09,-0.17,0.70,0.01,0.07,1.04,
0.003,0.05,-0.19,0.63,0.01,0.07,1.04,
0.003,0.05,-0.19,0.63,0.01,0.07,1.03,
0.005,0.05,-0.19,0.63,0.01,0.07,1.03,
0.008,0.05,-0.19,0.63,0.00,0.07,1.02,
0.008,-0.02,-0.21,0.56,0.00,0.07,1.02,
0.01,-0.02,-0.21,0.56,-0.00,0.07,1.02,
0.013,-0.02,-0.21,0.56,-0.01,0.07,1.01,
0.013,-0.07,-0.20,0.46,-0.01,0.07,1.01,
0.015,-0.07,-0.20,0.46,-0.01,0.07,1.01,
0.018,-0.07,-0.20,0.46,-0.01,0.08,1.00,
0.018,-0.15,-0.18,0.35,-0.01,0.08,1.00,
0.02,-0.15,-0.18,0.35,-0.01,0.08,1.00,
0.022,-0.15,-0.18,0.35,-0.01,0.08,0.99,
0.023,-0.19,-0.16,0.25,-0.01,0.08,0.99,
0.025,-0.19,-0.16,0.25,-0.01,0.09,0.98,
0.027,-0.19,-0.16,0.25,-0.01,0.09,0.98,
0.028,-0.21,-0.12,0.13,-0.01,0.09,0.98,
0.03,-0.21,-0.12,0.13,-0.01,0.09,0.98,
0.032,-0.21,-0.12,0.13,-0.01,0.09,0.97,
0.032,-0.23,-0.07,0.02,-0.01,0.09,0.97,
0.035,-0.23,-0.07,0.02,-0.01,0.10,0.97,
0.037,-0.20,-0.05,-0.04,-0.01,0.10,0.97,
0.037,-0.20,-0.05,-0.04,-0.00,0.10,0.96,
0.039,-0.20,-0.05,-0.04,0.00,0.10,0.96,
0.042,-0.20,-0.05,-0.04,0.00,0.11,0.96,
0.042,-0.15,0.02,-0.13,0.00,0.11,0.96,
0.044,-0.15,0.02,-0.13,0.01,0.11,0.95,
0.047,-0.15,0.02,-0.13,0.01,0.11,0.95,
0.047,-0.09,0.07,-0.21,0.01,0.11,0.95,
0.049,-0.09,0.07,-0.21,0.02,0.12,0.95,
0.052,-0.09,0.07,-0.21,0.02,0.12,0.94,
0.052,-0.02,0.12,-0.28,0.02,0.12,0.94,
0.054,-0.02,0.12,-0.28,0.02,0.12,0.94,
0.057,-0.02,0.12,-0.28,0.03,0.12,0.94,
0.057,0.08,0.16,-0.32,0.03,0.12,0.94,
0.059,0.08,0.16,-0.32,0.03,0.12,0.94,
0.065,0.08,0.16,-0.32,0.03,0.12,0.94,
0.065,0.13,0.18,-0.36,0.03,0.12,0.94,
0.066,0.13,0.18,-0.36,0.03,0.12,0.94,
0.066,0.13,0.18,-0.36,0.03,0.12,0.93,
0.067,0.16,0.20,-0.39,0.03,0.12,0.93,
0.069,0.16,0.20,-0.39,0.04,0.12,0.93,
0.071,0.16,0.20,-0.39,0.04,0.12,0.94,
0.071,0.22,0.20,-0.41,0.04,0.12,0.94,
0.074,0.22,0.20,-0.41,0.04,0.12,0.94,
0.076,0.22,0.20,-0.41,0.04,0.12,0.94,
0.076,0.26,0.19,-0.41,0.04,0.12,0.94,
0.078,0.26,0.19,-0.41,0.04,0.12,0.94,
0.081,0.26,0.19,-0.41,0.04,0.12,0.94,
0.081,0.26,0.17,-0.38,0.04,0.12,0.94,
0.083,0.26,0.17,-0.38,0.04,0.12,0.94,
0.086,0.26,0.17,-0.38,0.04,0.11,0.94,
0.086,0.26,0.13,-0.38,0.04,0.11,0.94,
0.088,0.26,0.13,-0.38,0.04,0.11,0.94,
0.091,0.26,0.13,-0.38,0.03,0.11,0.94,
0.091,0.25,0.10,-0.36,0.03,0.11,0.94,
0.093,0.25,0.10,-0.36,0.03,0.11,0.94,
0.096,0.25,0.10,-0.36,0.03,0.11,0.95,
0.096,0.20,0.09,-0.33,0.03,0.11,0.95,
0.098,0.20,0.09,-0.33,0.03,0.11,0.95,
0.101,0.20,0.09,-0.33,0.02,0.11,0.95,
0.101,0.16,0.08,-0.28,0.02,0.11,0.95,
0.103,0.16,0.08,-0.28,0.02,0.11,0.95,
0.105,0.16,0.08,-0.28,0.02,0.11,0.96,
0.106,0.08,0.07,-0.24,0.02,0.11,0.96,
0.108,0.08,0.07,-0.24,0.01,0.11,0.96,
0.11,0.08,0.07,-0.24,0.01,0.11,0.96,
0.111,0.03,0.05,-0.20,0.01,0.11,0.96,
0.113,0.03,0.05,-0.20,0.01,0.11,0.96,
0.115,0.03,0.05,-0.20,0.01,0.10,0.97,
0.116,-0.01,0.05,-0.14,0.01,0.10,0.97,
0.118,-0.01,0.05,-0.14,0.01,0.10,0.97,
0.12,-0.01,0.05,-0.14,0.01,0.11,0.97,
0.121,-0.03,0.04,-0.09,0.01,0.11,0.97,
0.123,-0.03,0.04,-0.09,0.01,0.11,0.97,
0.125,-0.03,0.04,-0.09,0.01,0.11,0.98,
0.125,-0.05,0.05,-0.06,0.01,0.11,0.98,
0.127,-0.05,0.05,-0.06,0.01,0.11,0.98,
0.13,-0.05,0.05,-0.06,0.01,0.11,0.98,
0.131,-0.06,0.07,-0.00,0.01,0.11,0.98,
0.133,-0.06,0.07,-0.00,0.01,0.11,0.98,
0.135,-0.06,0.07,-0.00,0.01,0.11,0.99,
0.135,-0.02,0.09,0.05,0.01,0.11,0.99,
0.137,-0.02,0.09,0.05,0.01,0.11,0.99,
0.14,-0.02,0.09,0.05,0.01,0.11,0.99,
0.14,-0.01,0.09,0.09,0.01,0.11,0.99,
0.142,-0.01,0.09,0.09,0.02,0.11,0.99,
0.148,-0.01,0.09,0.09,0.02,0.11,0.99,
0.149,0.01,0.11,0.15,0.02,0.11,0.99,
0.149,0.01,0.11,0.15,0.02,0.11,1.00,
0.15,0.01,0.11,0.15,0.02,0.10,1.00,
0.15,0.06,0.10,0.17,0.02,0.10,1.00,
0.152,0.06,0.10,0.17,0.02,0.10,1.00,
0.155,0.06,0.10,0.17,0.02,0.10,1.00,
0.155,0.04,0.09,0.21,0.02,0.10,1.00,
0.157,0.04,0.09,0.21,0.02,0.10,1.00,
0.16,0.04,0.09,0.21,0.02,0.10,1.01,
0.16,0.05,0.04,0.24,0.02,0.10,1.01,
0.162,0.05,0.04,0.24,0.02,0.10,1.01,
0.164,0.05,0.04,0.24,0.02,0.10,1.01,
0.165,0.04,0.04,0.28,0.02,0.10,1.01,
0.167,0.04,0.04,0.28,0.01,0.09,1.01,
0.169,0.04,0.04,0.28,0.01,0.09,1.01,
0.169,0.03,0.01,0.31,0.01,0.09,1.01,
0.172,0.03,0.01,0.31,0.01,0.09,1.01,
0.174,0.03,0.01,0.31,0.01,0.09,1.01,
0.174,0.01,-0.01,0.31,0.01,0.09,1.01,
0.176,0.01,-0.01,0.31,0.00,0.09,1.01,
0.179,-0.05,-0.05,0.31,0.00,0.09,1.01,
0.179,-0.05,-0.05,0.31,0.00,0.09,1.01,
0.181,-0.05,-0.05,0.31,0.00,0.09,1.01,
0.184,-0.05,-0.05,0.31,0.00,0.09,1.01,
0.184,-0.10,-0.08,0.30,0.00,0.09,1.01,
0.186,-0.10,-0.08,0.30,0.00,0.08,1.01,
0.189,-0.10,-0.08,0.30,0.00,0.08,1.00,
0.189,-0.10,-0.09,0.28,0.00,0.08,1.00,
0.191,-0.10,-0.09,0.28,0.00,0.08,1.01,
0.194,-0.10,-0.09,0.28,-0.00,0.08,1.00,
0.194,-0.12,-0.10,0.27,-0.00,0.08,1.00,
0.196,-0.12,-0.10,0.27,-0.00,0.09,1.00,
0.199,-0.12,-0.10,0.27,-0.00,0.09,1.00,
0.199,-0.14,-0.12,0.26,-0.00,0.09,1.00,
0.201,-0.14,-0.12,0.26,-0.00,0.09,1.00,
0.204,-0.14,-0.12,0.26,-0.00,0.09,1.00,
0.204,-0.16,-0.09,0.23,-0.00,0.09,1.00,
0.206,-0.16,-0.09,0.23,-0.00,0.09,1.00,
0.208,-0.16,-0.09,0.23,-0.00,0.09,1.00,
0.209,-0.17,-0.07,0.21,-0.00,0.09,1.00,
0.212,-0.17,-0.07,0.21,0.00,0.09,0.99,
0.214,-0.17,-0.07,0.21,-0.00,0.09,0.99,
0.214,-0.15,-0.06,0.17,-0.00,0.09,0.99,
0.216,-0.15,-0.06,0.17,0.00,0.09,0.99,
0.218,-0.15,-0.06,0.17,0.00,0.09,0.98,
0.218,-0.14,-0.06,0.13,0.00,0.09,0.98,
0.221,-0.14,-0.06,0.13,0.01,0.09,0.98,
0.223,-0.14,-0.06,0.13,0.01,0.09,0.98,
0.223,-0.10,-0.05,0.07,0.01,0.09,0.98,
0.225,-0.10,-0.05,0.07,0.01,0.10,0.98,
0.229,-0.10,-0.05,0.07,0.01,0.09,0.98,
0.229,-0.08,-0.04,0.04,0.01,0.09,0.98,
0.231,-0.08,-0.04,0.04,0.01,0.09,0.98,
0.233,-0.08,-0.04,0.04,0.01,0.10,0.98,
0.233,-0.06,-0.03,-0.00,0.01,0.10,0.98,
0.235,-0.06,-0.03,-0.00,0.01,0.10,0.97,
0.238,-0.06,-0.03,-0.00,0.01,0.09,0.97,
0.238,-0.03,-0.03,-0.02,0.01,0.09,0.97,
0.24,-0.03,-0.03,-0.02,0.01,0.09,0.97,
0.243,-0.03,-0.03,-0.02,0.01,0.09,0.97,
0.243,-0.01,-0.03,-0.06,0.01,0.09,0.97,
0.245,-0.01,-0.03,-0.06,0.01,0.09,0.97,
0.248,-0.01,-0.03,-0.06,0.01,0.09,0.97,
0.249,-0.01,-0.04,-0.07,0.01,0.09,0.97,
0.25,-0.01,-0.04,-0.07,0.01,0.09,0.97,
0.253,-0.01,-0.04,-0.07,0.01,0.09,0.97,
0.253,-0.02,-0.05,-0.07,0.01,0.09,0.97,
0.255,-0.02,-0.05,-0.07,0.01,0.09,0.97,
0.258,-0.02,-0.05,-0.07,0.00,0.10,0.97,
0.258,-0.03,-0.03,-0.09,0.00,0.10,0.97,
0.26,-0.03,-0.03,-0.09,0.00,0.10,0.97,
0.269,-0.03,-0.03,-0.09,0.00,0.10,0.97,
0.269,-0.06,-0.02,-0.09,0.00,0.10,0.97,
0.269,-0.06,-0.02,-0.09,0.00,0.10,0.97,
0.27,-0.06,-0.02,-0.09,0.00,0.10,0.97,
0.27,-0.09,-0.01,-0.07,0.00,0.10,0.97,
0.27,-0.09,-0.01,-0.07,0.00,0.10,0.97,
0.272,-0.09,-0.01,-0.07,0.00,0.10,0.97,
0.272,-0.10,-0.01,-0.06,0.00,0.10,0.97,
0.274,-0.10,-0.01,-0.06,0.00,0.10,0.97,
0.277,-0.10,-0.01,-0.06,0.00,0.10,0.97,
0.277,-0.11,-0.00,-0.06,0.00,0.10,0.97,
0.279,-0.11,-0.00,-0.06,0.00,0.10,0.97,
0.282,-0.11,-0.00,-0.06,0.00,0.10,0.97,
0.282,-0.09,-0.02,-0.06,0.00,0.10,0.97,
0.284,-0.09,-0.02,-0.06,0.00,0.10,0.97,
0.287,-0.09,-0.02,-0.06,0.01,0.10,0.97,
0.287,-0.11,-0.01,-0.05,0.01,0.10,0.97,
0.289,-0.11,-0.01,-0.05,0.01,0.10,0.97,
0.292,-0.11,-0.01,-0.05,0.01,0.10,0.97,
0.292,-0.08,0.00,-0.06,0.01,0.10,0.97,
0.294,-0.08,0.00,-0.06,0.01,0.10,0.97,
0.296,-0.08,0.00,-0.06,0.01,0.10,0.97,
0.297,-0.05,0.01,-0.04,0.01,0.10,0.97,
0.299,-0.05,0.01,-0.04,0.01,0.10,0.97,
0.302,-0.05,0.01,-0.04,0.01,0.10,0.97,
0.302,-0.02,0.00,-0.06,0.01,0.10,0.97,
0.304,-0.02,0.00,-0.06,0.02,0.10,0.97,
0.306,-0.02,0.00,-0.06,0.02,0.10,0.96,
0.307,0.00,-0.00,-0.08,0.02,0.10,0.96,
0.309,0.00,-0.00,-0.08,0.02,0.10,0.97,
0.312,0.00,-0.00,-0.08,0.02,0.10,0.96,
0.312,0.03,-0.02,-0.11,0.02,0.10,0.96,
0.313,0.03,-0.02,-0.11,0.02,0.10,0.96,
0.316,0.03,-0.02,-0.11,0.02,0.10,0.96,
0.317,0.07,-0.02,-0.12,0.02,0.10,0.96,
0.318,0.07,-0.02,-0.12,0.02,0.10,0.96,
0.321,0.07,-0.02,-0.12,0.02,0.10,0.96,
0.321,0.09,-0.03,-0.14,0.02,0.10,0.96,
0.323,0.09,-0.03,-0.14,0.02,0.09,0.96,
0.326,0.09,-0.03,-0.14,0.02,0.09,0.95,
0.326,0.09,-0.03,-0.18,0.02,0.09,0.95,
0.328,0.09,-0.03,-0.18,0.02,0.09,0.95,
0.331,0.09,-0.03,-0.18,0.02,0.10,0.95,
0.331,0.10,-0.06,-0.22,0.02,0.10,0.95,
0.333,0.10,-0.06,-0.22,0.02,0.10,0.95,
0.336,0.10,-0.06,-0.22,0.02,0.10,0.95,
0.336,0.09,-0.05,-0.26,0.02,0.10,0.95,
0.338,0.09,-0.05,-0.26,0.02,0.09,0.95,
0.341,0.09,-0.05,-0.26,0.02,0.09,0.95,
0.341,0.08,-0.05,-0.28,0.02,0.09,0.95,
0.343,0.08,-0.05,-0.28,0.02,0.10,0.95,
0.352,0.08,-0.05,-0.28,0.02,0.09,0.95,
0.353,0.06,-0.06,-0.25,0.02,0.09,0.95,
0.353,0.06,-0.06,-0.25,0.02,0.09,0.95,
0.353,0.06,-0.06,-0.25,0.01,0.09,0.95,
0.353,0.03,-0.05,-0.26,0.01,0.09,0.95,
0.354,0.03,-0.05,-0.26,0.01,0.09,0.95,
0.355,0.03,-0.05,-0.26,0.01,0.09,0.95,
0.356,-0.00,-0.06,-0.24,0.01,0.09,0.95,
0.358,-0.00,-0.06,-0.24,0.02,0.09,0.95,
0.361,-0.00,-0.06,-0.24,0.02,0.09,0.95,
0.361,-0.01,-0.06,-0.25,0.02,0.09,0.95,
0.363,-0.01,-0.06,-0.25,0.01,0.09,0.95,
0.365,-0.01,-0.06,-0.25,0.02,0.09,0.95,
0.366,0.00,-0.07,-0.25,0.02,0.09,0.95,
0.368,0.00,-0.07,-0.25,0.02,0.09,0.95,
0.37,0.00,-0.07,-0.25,0.02,0.09,0.95,
0.37,0.01,-0.08,-0.25,0.02,0.09,0.95,
0.372,0.01,-0.08,-0.25,0.02,0.09,0.95,
0.375,0.01,-0.08,-0.25,0.03,0.08,0.95,
0.375,0.05,-0.09,-0.23,0.03,0.08,0.95,
0.378,0.05,-0.09,-0.23,0.03,0.08,0.95,
0.38,0.05,-0.09,-0.23,0.03,0.08,0.95,
0.38,0.09,-0.13,-0.21,0.03,0.08,0.95,
0.382,0.09,-0.13,-0.21,0.04,0.08,0.96,
0.385,0.09,-0.13,-0.21,0.04,0.08,0.96,
0.385,0.14,-0.18,-0.22,0.04,0.08,0.96,
0.387,0.14,-0.18,-0.22,0.05,0.07,0.96,
0.39,0.14,-0.18,-0.22,0.05,0.07,0.96,
0.39,0.22,-0.20,-0.18,0.05,0.07,0.96,
0.392,0.22,-0.20,-0.18,0.05,0.07,0.96,
0.395,0.22,-0.20,-0.18,0.06,0.07,0.95,
0.396,0.30,-0.22,-0.17,0.06,0.07,0.95,
0.397,0.30,-0.22,-0.17,0.06,0.07,0.96,
0.4,0.30,-0.22,-0.17,0.06,0.07,0.96,
0.4,0.36,-0.24,-0.18,0.06,0.07,0.96,
0.402,0.36,-0.24,-0.18,0.07,0.07,0.96,
0.404,0.36,-0.24,-0.18,0.07,0.08,0.96,
0.405,0.43,-0.23,-0.17,0.07,0.08,0.96,
0.407,0.43,-0.23,-0.17,0.07,0.08,0.96,
0.409,0.43,-0.23,-0.17,0.07,0.08,0.96,
0.409,0.47,-0.18,-0.15,0.07,0.08,0.96,
0.412,0.47,-0.18,-0.15,0.07,0.08,0.96,
0.415,0.47,-0.18,-0.15,0.07,0.09,0.96,
0.415,0.49,-0.12,-0.12,0.07,0.09,0.96,
0.417,0.49,-0.12,-0.12,0.07,0.09,0.96,
0.419,0.49,-0.12,-0.12,0.07,0.09,0.96,
0.419,0.51,-0.08,-0.11,0.07,0.09,0.96,
0.421,0.51,-0.08,-0.11,0.07,0.09,0.96,
0.424,0.51,-0.08,-0.11,0.07,0.09,0.96,
0.424,0.54,-0.05,-0.10,0.07,0.09,0.96,
0.426,0.54,-0.05,-0.10,0.08,0.08,0.96,
0.429,0.54,-0.05,-0.10,0.08,0.08,0.96,
0.43,0.52,-0.06,-0.12,0.08,0.08,0.96,
0.431,0.52,-0.06,-0.12,0.08,0.08,0.96,
0.434,0.52,-0.06,-0.12,0.08,0.08,0.96,
0.434,0.55,-0.09,-0.13,0.08,0.08,0.96,
0.436,0.55,-0.09,-0.13,0.08,0.08,0.96,
0.438,0.55,-0.09,-0.13,0.09,0.07,0.96,
0.439,0.58,-0.14,-0.14,0.09,0.07,0.96,
0.441,0.58,-0.14,-0.14,0.09,0.07,0.95,
0.444,0.58,-0.14,-0.14,0.09,0.06,0.95,
0.444,0.62,-0.19,-0.15,0.09,0.06,0.95,
0.449,0.62,-0.19,-0.15,0.09,0.06,0.95,
0.45,0.62,-0.19,-0.15,0.09,0.06,0.95,
0.45,0.67,-0.27,-0.20,0.09,0.06,0.95,
0.451,0.67,-0.27,-0.20,0.09,0.06,0.95,
0.453,0.67,-0.27,-0.20,0.09,0.05,0.94,
0.453,0.65,-0.33,-0.23,0.09,0.05,0.94,
0.455,0.65,-0.33,-0.23,0.10,0.05,0.94,
0.458,0.65,-0.33,-0.23,0.10,0.05,0.94,
0.458,0.67,-0.38,-0.28,0.10,0.05,0.94,
0.46,0.67,-0.38,-0.28,0.10,0.05,0.94,
0.463,0.67,-0.38,-0.28,0.11,0.04,0.94,
0.463,0.70,-0.43,-0.31,0.11,0.04,0.94,
0.465,0.70,-0.43,-0.31,0.11,0.04,0.93,
0.468,0.70,-0.43,-0.31,0.11,0.04,0.93,
0.469,0.75,-0.47,-0.34,0.11,0.04,0.93,
0.47,0.75,-0.47,-0.34,0.12,0.03,0.93,
0.473,0.75,-0.47,-0.34,0.12,0.03,0.93,
0.473,0.82,-0.54,-0.38,0.12,0.03,0.93,
0.475,0.82,-0.54,-0.38,0.13,0.02,0.93,
0.478,0.82,-0.54,-0.38,0.14,0.02,0.93,
0.478,0.89,-0.62,-0.39,0.14,0.02,0.93,
0.48,0.89,-0.62,-0.39,0.14,0.01,0.93,
0.483,0.89,-0.62,-0.39,0.15,0.01,0.93,
0.484,1.01,-0.72,-0.41,0.15,0.01,0.93,
0.485,1.01,-0.72,-0.41,0.16,0.00,0.93,
0.487,1.01,-0.72,-0.41,0.16,-0.00,0.93,
0.488,1.11,-0.80,-0.42,0.16,-0.00,0.93,
0.49,1.11,-0.80,-0.42,0.17,-0.01,0.93,
0.492,1.11,-0.80,-0.42,0.17,-0.01,0.93,
0.493,1.21,-0.88,-0.42,0.17,-0.01,0.93,
0.495,1.21,-0.88,-0.42,0.18,-0.02,0.93,
0.498,1.21,-0.88,-0.42,0.18,-0.02,0.93,
0.498,1.30,-0.97,-0.41,0.18,-0.02,0.93,
0.5,1.30,-0.97,-0.41,0.18,-0.02,0.94,
0.502,1.30,-0.97,-0.41,0.18,-0.02,0.94,
0.502,1.35,-1.06,-0.35,0.18,-0.02,0.94,
0.505,1.35,-1.06,-0.35,0.18,-0.03,0.94,
0.507,1.35,-1.06,-0.35,0.18,-0.03,0.94,
0.507,1.35,-1.07,-0.32,0.18,-0.03,0.94,
0.51,1.35,-1.07,-0.32,0.18,-0.04,0.94,
0.513,1.35,-1.07,-0.32,0.18,-0.04,0.94,
0.514,1.35,-1.13,-0.29,0.18,-0.04,0.94,
0.515,1.35,-1.13,-0.29,0.18,-0.04,0.95,
0.517,1.35,-1.13,-0.29,0.18,-0.04,0.95,
0.517,1.35,-1.19,-0.27,0.18,-0.04,0.95,
0.519,1.35,-1.19,-0.27,0.18,-0.05,0.95,
0.522,1.35,-1.19,-0.27,0.18,-0.05,0.95,
0.522,1.34,-1.23,-0.22,0.18,-0.05,0.95,
0.524,1.34,-1.23,-0.22,0.18,-0.04,0.95,
0.528,1.34,-1.23,-0.22,0.18,-0.04,0.95,
0.529,1.31,-1.25,-0.20,0.18,-0.04,0.95,
0.529,1.31,-1.25,-0.20,0.17,-0.04,0.95,
0.532,1.31,-1.25,-0.20,0.17,-0.05,0.95,
0.532,1.24,-1.21,-0.18,0.17,-0.05,0.95,
0.534,1.24,-1.21,-0.18,0.16,-0.05,0.94,
0.536,1.24,-1.21,-0.18,0.16,-0.05,0.94,
0.537,1.16,-1.20,-0.19,0.16,-0.05,0.94,
0.539,1.16,-1.20,-0.19,0.16,-0.05,0.94,
0.541,1.16,-1.20,-0.19,0.15,-0.05,0.94,
0.542,1.08,-1.23,-0.24,0.15,-0.05,0.94,
0.544,1.08,-1.23,-0.24,0.15,-0.05,0.93,
0.547,1.08,-1.23,-0.24,0.14,-0.06,0.93,
0.547,1.00,-1.24,-0.30,0.14,-0.06,0.93,
0.549,1.00,-1.24,-0.30,0.14,-0.06,0.93,
0.551,1.00,-1.24,-0.30,0.13,-0.06,0.92,
0.551,0.90,-1.26,-0.35,0.13,-0.06,0.92,
0.554,0.90,-1.26,-0.35,0.13,-0.06,0.92,
0.556,0.90,-1.26,-0.35,0.12,-0.06,0.92,
0.556,0.80,-1.27,-0.41,0.12,-0.06,0.92,
0.558,0.80,-1.27,-0.41,0.12,-0.06,0.91,
0.564,0.80,-1.27,-0.41,0.11,-0.06,0.90,
0.565,0.72,-1.30,-0.47,0.11,-0.06,0.90,
0.565,0.72,-1.30,-0.47,0.10,-0.07,0.90,
0.566,0.72,-1.30,-0.47,0.09,-0.07,0.89,
0.567,0.60,-1.31,-0.59,0.09,-0.07,0.89,
0.568,0.60,-1.31,-0.59,0.09,-0.07,0.88,
0.571,0.60,-1.31,-0.59,0.08,-0.07,0.88,
0.572,0.44,-1.34,-0.72,0.08,-0.07,0.88,
0.573,0.44,-1.34,-0.72,0.08,-0.07,0.88,
0.576,0.44,-1.34,-0.72,0.08,-0.06,0.88,
0.577,0.34,-1.35,-0.83,0.08,-0.06,0.88,
0.58,0.34,-1.35,-0.83,0.07,-0.06,0.88,
0.581,0.34,-1.35,-0.83,0.07,-0.06,0.88,
0.581,0.27,-1.33,-0.87,0.07,-0.06,0.88,
0.583,0.27,-1.33,-0.87,0.07,-0.05,0.88,
0.585,0.27,-1.33,-0.87,0.06,-0.04,0.89,
0.585,0.18,-1.28,-0.85,0.06,-0.04,0.89,
0.588,0.18,-1.28,-0.85,0.06,-0.03,0.89,
0.59,0.18,-1.28,-0.85,0.06,-0.03,0.89,
0.59,0.14,-1.15,-0.79,0.06,-0.03,0.89,
0.593,0.14,-1.15,-0.79,0.07,-0.02,0.90,
0.595,0.14,-1.15,-0.79,0.07,-0.02,0.90,
0.596,0.09,-0.99,-0.74,0.07,-0.02,0.90,
0.598,0.09,-0.99,-0.74,0.08,-0.02,0.91,
0.602,0.09,-0.99,-0.74,0.08,-0.01,0.91,
0.602,0.14,-0.91,-0.65,0.08,-0.01,0.91,
0.603,0.14,-0.91,-0.65,0.09,-0.01,0.92,
0.605,0.14,-0.91,-0.65,0.10,-0.00,0.92,
0.605,0.23,-0.84,-0.53,0.10,-0.00,0.92,
0.607,0.23,-0.84,-0.53,0.10,0.00,0.93,
0.61,0.23,-0.84,-0.53,0.11,0.01,0.93,
0.611,0.34,-0.75,-0.44,0.11,0.01,0.93,
0.612,0.34,-0.75,-0.44,0.12,0.01,0.93,
0.615,0.34,-0.75,-0.44,0.12,0.02,0.94,
0.615,0.45,-0.65,-0.35,0.12,0.02,0.94,
0.617,0.45,-0.65,-0.35,0.12,0.03,0.94,
0.62,0.45,-0.65,-0.35,0.12,0.03,0.94,
0.62,0.53,-0.52,-0.29,0.12,0.03,0.94,
0.622,0.53,-0.52,-0.29,0.13,0.03,0.94,
0.625,0.53,-0.52,-0.29,0.12,0.04,0.94,
0.625,0.57,-0.42,-0.24,0.12,0.04,0.94,
0.627,0.57,-0.42,-0.24,0.13,0.04,0.94,
0.629,0.57,-0.42,-0.24,0.12,0.04,0.94,
0.63,0.58,-0.35,-0.25,0.12,0.04,0.94,
0.632,0.58,-0.35,-0.25,0.12,0.05,0.94,
0.635,0.58,-0.35,-0.25,0.12,0.05,0.94,
0.635,0.56,-0.29,-0.25,0.12,0.05,0.94,
0.637,0.56,-0.29,-0.25,0.12,0.04,0.94,
0.639,0.56,-0.29,-0.25,0.11,0.04,0.93,
0.639,0.50,-0.28,-0.24,0.11,0.04,0.93,
0.642,0.50,-0.28,-0.24,0.11,0.03,0.93,
0.644,0.50,-0.28,-0.24,0.10,0.03,0.92,
0.644,0.47,-0.33,-0.26,0.10,0.03,0.92,
0.646,0.47,-0.33,-0.26,0.10,0.02,0.92,
0.649,0.47,-0.33,-0.26,0.09,0.02,0.91,
0.649,0.37,-0.43,-0.36,0.09,0.02,0.91,
0.652,0.37,-0.43,-0.36,0.08,0.01,0.91,
0.654,0.37,-0.43,-0.36,0.08,0.01,0.91,
0.654,0.23,-0.55,-0.47,0.08,0.01,0.91,
0.656,0.23,-0.55,-0.47,0.07,0.00,0.91,
0.659,0.23,-0.55,-0.47,0.06,0.00,0.90,
0.659,0.11,-0.66,-0.54,0.06,0.00,0.90,
0.667,0.11,-0.66,-0.54,0.06,-0.00,0.90,
0.667,0.11,-0.66,-0.54,0.05,-0.00,0.90,
0.667,-0.03,-0.75,-0.58,0.05,-0.00,0.90,
0.668,-0.03,-0.75,-0.58,0.04,-0.00,0.90,
0.669,-0.03,-0.75,-0.58,0.03,-0.00,0.90,
0.669,-0.17,-0.81,-0.62,0.03,-0.00,0.90,
0.671,-0.17,-0.81,-0.62,0.03,-0.00,0.90,
0.674,-0.17,-0.81,-0.62,0.02,0.00,0.90,
0.674,-0.34,-0.81,-0.64,0.02,0.00,0.90,
0.676,-0.34,-0.81,-0.64,0.01,0.01,0.90,
0.681,-0.34,-0.81,-0.64,0.01,0.01,0.90,
0.681,-0.50,-0.77,-0.60,0.01,0.01,0.90,
0.682,-0.50,-0.77,-0.60,-0.00,0.01,0.91,
0.683,-0.50,-0.77,-0.60,-0.01,0.02,0.91,
0.684,-0.65,-0.69,-0.59,-0.01,0.02,0.91,
0.686,-0.65,-0.69,-0.59,-0.02,0.04,0.91,
0.688,-0.65,-0.69,-0.59,-0.03,0.05,0.92,
0.688,-0.82,-0.57,-0.54,-0.03,0.05,0.92,
0.691,-0.82,-0.57,-0.54,-0.04,0.06,0.92,
0.693,-0.82,-0.57,-0.54,-0.05,0.07,0.93,
0.694,-1.04,-0.32,-0.46,-0.05,0.07,0.93,
0.696,-1.04,-0.32,-0.46,-0.05,0.08,0.93,
0.698,-1.04,-0.32,-0.46,-0.05,0.09,0.94,
0.699,-1.21,-0.08,-0.35,-0.05,0.09,0.94,
0.701,-1.21,-0.08,-0.35,-0.05,0.09,0.94,
0.703,-1.21,-0.08,-0.35,-0.06,0.09,0.94,
0.703,-1.28,0.10,-0.27,-0.06,0.09,0.94,
0.705,-1.28,0.10,-0.27,-0.05,0.09,0.94,
0.708,-1.28,0.10,-0.27,-0.05,0.10,0.94,
0.708,-1.30,0.19,-0.22,-0.05,0.10,0.94,
0.71,-1.30,0.19,-0.22,-0.04,0.10,0.94,
0.713,-1.30,0.19,-0.22,-0.03,0.10,0.95,
0.713,-1.26,0.24,-0.20,-0.03,0.10,0.95,
0.715,-1.26,0.24,-0.20,-0.03,0.10,0.95,
0.718,-1.26,0.24,-0.20,-0.02,0.09,0.95,
0.718,-1.12,0.27,-0.16,-0.02,0.09,0.95,
0.72,-1.12,0.27,-0.16,-0.01,0.09,0.95,
0.723,-1.12,0.27,-0.16,0.00,0.08,0.95,
0.723,-0.95,0.26,-0.13,0.00,0.08,0.95,
0.725,-0.95,0.26,-0.13,0.01,0.07,0.95,
0.728,-0.95,0.26,-0.13,0.02,0.07,0.95,
0.728,-0.75,0.17,-0.11,0.02,0.07,0.95,
0.73,-0.75,0.17,-0.11,0.03,0.06,0.95,
0.733,-0.75,0.17,-0.11,0.04,0.05,0.95,
0.733,-0.58,0.03,-0.10,0.04,0.05,0.95,
0.735,-0.58,0.03,-0.10,0.04,0.04,0.95,
0.737,-0.58,0.03,-0.10,0.05,0.02,0.95,
0.738,-0.42,-0.13,-0.09,0.05,0.02,0.95,
0.74,-0.42,-0.13,-0.09,0.05,0.01,0.95,
0.742,-0.42,-0.13,-0.09,0.05,0.00,0.95,
0.743,-0.29,-0.32,-0.10,0.05,0.00,0.95,
0.749,-0.29,-0.32,-0.10,0.05,-0.01,0.95,
0.75,-0.29,-0.32,-0.10,0.05,-0.01,0.95,
0.75,-0.22,-0.51,-0.13,0.05,-0.01,0.95,
0.751,-0.22,-0.51,-0.13,0.05,-0.02,0.96,
0.752,-0.22,-0.51,-0.13,0.05,-0.03,0.96,
0.752,-0.22,-0.68,-0.10,0.05,-0.03,0.96,
0.755,-0.22,-0.68,-0.10,0.04,-0.03,0.97,
0.757,-0.22,-0.68,-0.10,0.03,-0.04,0.97,
0.757,-0.25,-0.81,-0.03,0.03,-0.04,0.97,
0.76,-0.25,-0.81,-0.03,0.03,-0.04,0.97,
0.764,-0.25,-0.81,-0.03,0.02,-0.04,0.98,
0.764,-0.36,-0.86,0.04,0.02,-0.04,0.98,
0.765,-0.36,-0.86,0.04,0.01,-0.04,0.98,
0.767,-0.36,-0.86,0.04,-0.00,-0.03,0.99,
0.767,-0.50,-0.89,0.12,-0.00,-0.03,0.99,
0.769,-0.50,-0.89,0.12,-0.02,-0.03,0.99,
0.772,-0.50,-0.89,0.12,-0.03,-0.02,1.00,
0.772,-0.71,-0.83,0.22,-0.03,-0.02,1.00,
0.774,-0.71,-0.83,0.22,-0.04,-0.01,1.01,
0.777,-0.71,-0.83,0.22,-0.05,-0.00,1.02,
0.777,-0.96,-0.71,0.33,-0.05,-0.00,1.02,
0.779,-0.96,-0.71,0.33,-0.07,0.02,1.02,
0.782,-0.96,-0.71,0.33,-0.08,0.03,1.03,
0.782,-1.21,-0.49,0.47,-0.08,0.03,1.03,
0.784,-1.21,-0.49,0.47,-0.10,0.05,1.04,
0.786,-1.21,-0.49,0.47,-0.11,0.06,1.04,
0.786,-1.50,-0.14,0.63,-0.11,0.06,1.04,
0.789,-1.50,-0.14,0.63,-0.12,0.07,1.05,
0.791,-1.50,-0.14,0.63,-0.13,0.08,1.05,
0.791,-1.79,0.19,0.75,-0.13,0.08,1.05,
0.794,-1.79,0.19,0.75,-0.13,0.08,1.06,
0.797,-1.79,0.19,0.75,-0.13,0.07,1.06,
0.797,-1.96,0.39,0.85,-0.13,0.07,1.06,
0.799,-1.96,0.39,0.85,-0.13,0.07,1.06,
0.801,-1.96,0.39,0.85,-0.12,0.06,1.06,
0.801,-1.98,0.43,0.91,-0.12,0.06,1.06,
0.803,-1.98,0.43,0.91,-0.11,0.05,1.06,
0.806,-1.98,0.43,0.91,-0.10,0.04,1.05,
0.806,-1.92,0.31,0.89,-0.10,0.04,1.05,
0.808,-1.92,0.31,0.89,-0.09,0.03,1.05,
0.811,-1.92,0.31,0.89,-0.09,0.01,1.05,
0.812,-1.78,0.13,0.87,-0.09,0.01,1.05,
0.813,-1.78,0.13,0.87,-0.08,0.00,1.05,
0.816,-1.78,0.13,0.87,-0.07,-0.00,1.04,
0.817,-1.61,-0.07,0.83,-0.07,-0.00,1.04,
0.818,-1.61,-0.07,0.83,-0.07,-0.01,1.04,
0.821,-1.61,-0.07,0.83,-0.06,-0.02,1.03,
0.821,-1.45,-0.25,0.76,-0.06,-0.02,1.03,
0.823,-1.45,-0.25,0.76,-0.05,-0.03,1.03,
0.826,-1.45,-0.25,0.76,-0.04,-0.04,1.03,
0.826,-1.31,-0.42,0.67,-0.04,-0.04,1.03,
0.828,-1.31,-0.42,0.67,-0.03,-0.04,1.03,
0.831,-1.31,-0.42,0.67,-0.03,-0.04,1.03,
0.831,-1.13,-0.55,0.64,-0.03,-0.04,1.03,
0.833,-1.13,-0.55,0.64,-0.02,-0.04,1.03,
0.835,-1.13,-0.55,0.64,-0.02,-0.03,1.03,
0.836,-1.00,-0.59,0.58,-0.02,-0.03,1.03,
0.838,-1.00,-0.59,0.58,-0.02,-0.03,1.02,
0.84,-1.00,-0.59,0.58,-0.02,-0.02,1.02,
0.841,-0.91,-0.52,0.59,-0.02,-0.02,1.02,
0.849,-0.91,-0.52,0.59,-0.02,-0.01,1.02,
0.85,-0.91,-0.52,0.59,-0.02,-0.01,1.02,
0.85,-0.90,-0.40,0.56,-0.02,-0.01,1.02,
0.85,-0.90,-0.40,0.56,-0.02,0.00,1.02,
0.85,-0.90,-0.40,0.56,-0.02,0.01,1.02,
0.851,-0.87,-0.26,0.53,-0.02,0.01,1.02,
0.852,-0.87,-0.26,0.53,-0.02,0.02,1.01,
0.855,-0.87,-0.26,0.53,-0.02,0.02,1.01,
0.855,-0.86,-0.09,0.49,-0.02,0.02,1.01,
0.857,-0.86,-0.09,0.49,-0.03,0.03,1.00,
0.861,-0.86,-0.09,0.49,-0.03,0.04,1.00,
0.861,-0.89,0.06,0.41,-0.03,0.04,1.00,
0.862,-0.89,0.06,0.41,-0.04,0.04,1.00,
0.865,-0.89,0.06,0.41,-0.04,0.05,1.00,
0.865,-0.93,0.19,0.33,-0.04,0.05,1.00,
0.867,-0.93,0.19,0.33,-0.05,0.06,1.00,
0.869,-0.93,0.19,0.33,-0.06,0.06,0.99,
0.87,-1.03,0.32,0.28,-0.06,0.06,0.99,
0.872,-1.03,0.32,0.28,-0.06,0.06,1.00,
0.875,-1.03,0.32,0.28,-0.07,0.06,0.99,
0.875,-1.17,0.45,0.28,-0.07,0.06,0.99,
0.877,-1.17,0.45,0.28,-0.07,0.06,0.99,
0.879,-1.17,0.45,0.28,-0.07,0.05,0.99,
0.88,-1.24,0.49,0.27,-0.07,0.05,0.99,
0.882,-1.24,0.49,0.27,-0.07,0.05,0.99,
0.884,-1.24,0.49,0.27,-0.07,0.04,0.98,
0.885,-1.28,0.45,0.22,-0.07,0.04,0.98,
0.887,-1.28,0.45,0.22,-0.07,0.03,0.98,
0.889,-1.28,0.45,0.22,-0.07,0.02,0.98,
0.889,-1.30,0.35,0.17,-0.07,0.02,0.98,
0.892,-1.30,0.35,0.17,-0.07,0.01,0.97,
0.894,-1.30,0.35,0.17,-0.07,0.00,0.97,
0.895,-1.33,0.18,0.11,-0.07,0.00,0.97,
0.897,-1.33,0.18,0.11,-0.07,-0.00,0.97,
0.899,-1.33,0.18,0.11,-0.07,-0.01,0.97,
0.899,-1.32,0.02,0.04,-0.07,-0.01,0.97,
0.901,-1.32,0.02,0.04,-0.07,-0.02,0.97,
0.904,-1.32,0.02,0.04,-0.08,-0.02,0.97,
0.904,-1.34,-0.12,0.01,-0.08,-0.02,0.97,
0.906,-1.34,-0.12,0.01,-0.08,-0.03,0.97,
0.909,-1.34,-0.12,0.01,-0.08,-0.03,0.97,
0.909,-1.37,-0.25,-0.00,-0.08,-0.03,0.97,
0.911,-1.37,-0.25,-0.00,-0.08,-0.03,0.97,
0.914,-1.37,-0.25,-0.00,-0.08,-0.03,0.97,
0.914,-1.41,-0.31,-0.00,-0.08,-0.03,0.97,
0.916,-1.41,-0.31,-0.00,-0.08,-0.02,0.98,
0.919,-1.41,-0.31,-0.00,-0.09,-0.02,0.98,
0.919,-1.45,-0.32,0.05,-0.09,-0.02,0.98,
0.921,-1.45,-0.32,0.05,-0.09,-0.01,0.99,
0.923,-1.45,-0.32,0.05,-0.09,0.00,1.00,
0.924,-1.51,-0.23,0.14,-0.09,0.00,1.00,
0.927,-1.51,-0.23,0.14,-0.09,0.01,1.01,
0.928,-1.51,-0.23,0.14,-0.09,0.03,1.02,
0.929,-1.56,-0.06,0.30,-0.09,0.03,1.02,
0.931,-1.56,-0.06,0.30,-0.09,0.04,1.02,
0.933,-1.56,-0.06,0.30,-0.08,0.05,1.03,
0.934,-1.58,0.19,0.45,-0.08,0.05,1.03,
0.936,-1.58,0.19,0.45,-0.08,0.07,1.03,
0.938,-1.58,0.19,0.45,-0.07,0.08,1.04,
0.938,-1.54,0.48,0.57,-0.07,0.08,1.04,
0.94,-1.54,0.48,0.57,-0.06,0.09,1.04,
0.944,-1.54,0.48,0.57,-0.06,0.10,1.04,
0.945,-1.45,0.76,0.67,-0.06,0.10,1.04,
0.946,-1.45,0.76,0.67,-0.05,0.11,1.05,
0.948,-1.45,0.76,0.67,-0.04,0.12,1.05,
0.948,-1.29,0.99,0.75,-0.04,0.12,1.05,
0.95,-1.29,0.99,0.75,-0.03,0.12,1.06,
0.953,-1.29,0.99,0.75,-0.02,0.12,1.06,
0.953,-1.12,1.15,0.81,-0.02,0.12,1.06,
0.955,-1.12,1.15,0.81,-0.01,0.13,1.06,
0.958,-1.12,1.15,0.81,-0.01,0.12,1.07,
0.96,-0.95,1.26,0.89,-0.01,0.12,1.07,
0.961,-0.95,1.26,0.89,0.00,0.12,1.07,
0.969,-0.95,1.26,0.89,0.01,0.12,1.07,
0.97,-0.78,1.29,0.95,0.01,0.12,1.07,
0.97,-0.78,1.29,0.95,0.02,0.11,1.07,
0.971,-0.61,1.24,0.98,0.02,0.11,1.07,
0.971,-0.61,1.24,0.98,0.02,0.11,1.06,
0.971,-0.61,1.24,0.98,0.02,0.09,1.06,
0.972,-0.61,1.24,0.98,0.03,0.08,1.06,
0.973,-0.50,1.15,0.96,0.03,0.08,1.06,
0.975,-0.50,1.15,0.96,0.03,0.07,1.05,
0.982,-0.50,1.15,0.96,0.04,0.05,1.05,
0.982,-0.41,0.98,0.91,0.04,0.05,1.05,
0.982,-0.41,0.98,0.91,0.04,0.04,1.04,
0.982,-0.41,0.98,0.91,0.04,0.02,1.04,
0.982,-0.33,0.71,0.80,0.04,0.02,1.04,
0.984,-0.33,0.71,0.80,0.03,0.01,1.03,
0.987,-0.33,0.71,0.80,0.03,-0.01,1.03,
0.987,-0.29,0.42,0.69,0.03,-0.01,1.03,
0.989,-0.29,0.42,0.69,0.02,-0.02,1.02,
0.992,-0.29,0.42,0.69,0.01,-0.03,1.02,
0.992,-0.33,0.12,0.58,0.01,-0.03,1.02,
0.994,-0.33,0.12,0.58,-0.01,-0.03,1.02,
0.997,-0.33,0.12,0.58,-0.03,-0.03,1.02,
0.997,-0.52,-0.09,0.50,-0.03,-0.03,1.02,
0.999,-0.52,-0.09,0.50,-0.04,-0.02,1.02,
1.002,-0.52,-0.09,0.50,-0.06,-0.01,1.02,
1.002,-0.79,-0.12,0.47,-0.06,-0.01,1.02,
1.004,-0.79,-0.12,0.47,-0.08,0.00,1.02,
1.007,-0.79,-0.12,0.47,-0.10,0.02,1.02,
1.007,-1.16,0.04,0.49,-0.10,0.02,1.02,
1.01,-1.16,0.04,0.49,-0.12,0.03,1.03,
1.012,-1.16,0.04,0.49,-0.14,0.05,1.03,
1.012,-1.54,0.31,0.53,-0.14,0.05,1.03,
1.014,-1.54,0.31,0.53,-0.15,0.06,1.04,
1.016,-1.87,0.61,0.59,-0.15,0.06,1.04,
1.017,-1.87,0.61,0.59,-0.16,0.08,1.04,
1.019,-1.87,0.61,0.59,-0.16,0.09,1.04,
1.021,-1.87,0.61,0.59,-0.16,0.10,1.05,
1.022,-2.10,0.92,0.66,-0.16,0.10,1.05,
1.024,-2.10,0.92,0.66,-0.16,0.11,1.05,
1.027,-2.10,0.92,0.66,-0.15,0.11,1.05,
1.028,-2.17,1.18,0.75,-0.15,0.11,1.05,
1.029,-2.17,1.18,0.75,-0.14,0.11,1.05,
1.031,-2.17,1.18,0.75,-0.13,0.11,1.05,
1.032,-2.10,1.33,0.79,-0.13,0.11,1.05,
1.034,-2.10,1.33,0.79,-0.11,0.10,1.05,
1.036,-2.10,1.33,0.79,-0.10,0.09,1.05,
1.036,-1.89,1.34,0.82,-0.10,0.09,1.05,
1.038,-1.89,1.34,0.82,-0.08,0.08,1.05,
1.041,-1.89,1.34,0.82,-0.06,0.07,1.05,
1.042,-1.58,1.26,0.81,-0.06,0.07,1.05,
1.044,-1.58,1.26,0.81,-0.04,0.06,1.05,
1.047,-1.58,1.26,0.81,-0.02,0.05,1.05,
1.047,-1.21,1.08,0.80,-0.02,0.05,1.05,
1.048,-1.21,1.08,0.80,-0.01,0.03,1.05,
1.051,-1.21,1.08,0.80,0.01,0.02,1.04,
1.051,-0.83,0.87,0.76,0.01,0.02,1.04,
1.053,-0.83,0.87,0.76,0.02,0.01,1.04,
1.056,-0.83,0.87,0.76,0.03,-0.01,1.04,
1.056,-0.49,0.62,0.74,0.03,-0.01,1.04,
1.058,-0.49,0.62,0.74,0.04,-0.02,1.04,
1.065,-0.49,0.62,0.74,0.04,-0.03,1.04,
1.066,-0.24,0.37,0.71,0.04,-0.03,1.04,
1.066,-0.24,0.37,0.71,0.04,-0.03,1.04,
1.067,-0.24,0.37,0.71,0.04,-0.04,1.04,
1.067,-0.09,0.17,0.68,0.04,-0.04,1.04,
1.068,-0.09,0.17,0.68,0.04,-0.04,1.04,
1.07,-0.09,0.17,0.68,0.03,-0.04,1.04,
1.071,-0.08,0.06,0.68,0.03,-0.04,1.04,
1.073,-0.08,0.06,0.68,0.02,-0.04,1.04,
1.081,-0.08,0.06,0.68,0.00,-0.03,1.05,
1.081,-0.17,0.02,0.70,0.00,-0.03,1.05,
1.081,-0.17,0.02,0.70,-0.01,-0.03,1.05,
1.081,-0.17,0.02,0.70,-0.02,-0.02,1.06,
1.082,-0.41,0.07,0.75,-0.02,-0.02,1.06,
1.082,-0.41,0.07,0.75,-0.04,-0.01,1.06,
1.085,-0.41,0.07,0.75,-0.05,0.01,1.07,
1.085,-0.67,0.21,0.82,-0.05,0.01,1.07,
1.087,-0.67,0.21,0.82,-0.06,0.02,1.07,
1.09,-0.67,0.21,0.82,-0.08,0.04,1.08,
1.09,-0.92,0.43,0.91,-0.08,0.04,1.08,
1.092,-0.92,0.43,0.91,-0.09,0.05,1.08,
1.095,-0.92,0.43,0.91,-0.10,0.06,1.08,
1.095,-1.20,0.71,1.03,-0.10,0.06,1.08,
1.097,-1.20,0.71,1.03,-0.11,0.07,1.08,
1.1,-1.20,0.71,1.03,-0.11,0.07,1.08,
1.1,-1.44,0.96,1.08,-0.11,0.07,1.08,
1.102,-1.44,0.96,1.08,-0.11,0.07,1.08,
1.104,-1.44,0.96,1.08,-0.11,0.07,1.07,
1.105,-1.57,1.11,1.07,-0.11,0.07,1.07,
1.107,-1.57,1.11,1.07,-0.11,0.07,1.07,
1.11,-1.57,1.11,1.07,-0.10,0.07,1.07,
1.11,-1.59,1.18,1.03,-0.10,0.07,1.07,
1.112,-1.59,1.18,1.03,-0.10,0.06,1.07,
1.115,-1.59,1.18,1.03,-0.09,0.06,1.06,
1.115,-1.53,1.15,0.99,-0.09,0.06,1.06,
1.117,-1.53,1.15,0.99,-0.08,0.04,1.05,
1.119,-1.53,1.15,0.99,-0.06,0.03,1.05,
1.119,-1.39,1.04,0.90,-0.06,0.03,1.05,
1.122,-1.39,1.04,0.90,-0.05,0.02,1.04,
1.124,-1.39,1.04,0.90,-0.04,0.01,1.04,
1.125,-1.16,0.83,0.79,-0.04,0.01,1.04,
1.127,-1.16,0.83,0.79,-0.04,0.00,1.03,
1.129,-1.16,0.83,0.79,-0.03,-0.00,1.03,
1.129,-0.94,0.63,0.69,-0.03,-0.00,1.03,
1.132,-0.94,0.63,0.69,-0.03,-0.01,1.02,
1.134,-0.94,0.63,0.69,-0.03,-0.01,1.02,
1.134,-0.78,0.48,0.58,-0.03,-0.01,1.02,
1.136,-0.78,0.48,0.58,-0.03,-0.01,1.01,
1.139,-0.78,0.48,0.58,-0.03,-0.01,1.01,
1.139,-0.70,0.39,0.47,-0.03,-0.01,1.01,
1.141,-0.70,0.39,0.47,-0.03,-0.01,1.01,
1.149,-0.70,0.39,0.47,-0.04,-0.01,1.02,
1.149,-0.68,0.35,0.42,-0.04,-0.01,1.02,
1.149,-0.68,0.35,0.42,-0.04,-0.00,1.02,
1.15,-0.68,0.35,0.42,-0.04,-0.00,1.02,
1.15,-0.73,0.39,0.44,-0.04,-0.00,1.02,
1.151,-0.73,0.39,0.44,-0.05,0.00,1.02,
1.154,-0.73,0.39,0.44,-0.06,0.01,1.02,
1.154,-0.79,0.45,0.47,-0.06,0.01,1.02,
1.156,-0.79,0.45,0.47,-0.06,0.01,1.02,
1.163,-0.90,0.53,0.48,-0.06,0.01,1.02,
1.163,-0.90,0.53,0.48,-0.07,0.02,1.03,
1.163,-0.90,0.53,0.48,-0.08,0.02,1.04,
1.163,-0.90,0.53,0.48,-0.08,0.02,1.04,
1.164,-1.04,0.63,0.54,-0.08,0.02,1.04,
1.166,-1.04,0.63,0.54,-0.08,0.02,1.04,
1.168,-1.04,0.63,0.54,-0.09,0.02,1.04,
1.168,-1.11,0.69,0.67,-0.09,0.02,1.04,
1.171,-1.11,0.69,0.67,-0.10,0.03,1.04,
1.173,-1.11,0.69,0.67,-0.10,0.03,1.04,
1.173,-1.18,0.72,0.64,-0.10,0.03,1.04,
1.175,-1.18,0.72,0.64,-0.10,0.03,1.04,
1.178,-1.18,0.72,0.64,-0.10,0.03,1.03,
1.178,-1.27,0.75,0.61,-0.10,0.03,1.03,
1.181,-1.27,0.75,0.61,-0.10,0.03,1.04,
1.183,-1.27,0.75,0.61,-0.11,0.03,1.04,
1.184,-1.29,0.77,0.60,-0.11,0.03,1.04,
1.185,-1.29,0.77,0.60,-0.11,0.03,1.04,
1.188,-1.29,0.77,0.60,-0.11,0.03,1.04,
1.188,-1.28,0.78,0.61,-0.11,0.03,1.04,
1.19,-1.28,0.78,0.61,-0.11,0.02,1.03,
1.193,-1.28,0.78,0.61,-0.11,0.03,1.03,
1.194,-1.28,0.74,0.60,-0.11,0.03,1.03,
1.195,-1.28,0.74,0.60,-0.12,0.03,1.03,
1.198,-1.28,0.74,0.60,-0.12,0.03,1.03,
1.199,-1.31,0.72,0.57,-0.12,0.03,1.03,
1.201,-1.31,0.72,0.57,-0.12,0.03,1.03,
1.203,-1.31,0.72,0.57,-0.12,0.04,1.03,
1.203,-1.31,0.75,0.53,-0.12,0.04,1.03,
1.205,-1.31,0.75,0.53,-0.12,0.04,1.02,
1.207,-1.31,0.75,0.53,-0.12,0.05,1.02,
1.208,-1.30,0.83,0.51,-0.12,0.05,1.02,
1.21,-1.30,0.83,0.51,-0.12,0.05,1.02,
1.212,-1.30,0.83,0.51,-0.12,0.05,1.02,
1.213,-1.27,0.91,0.45,-0.12,0.05,1.02,
1.215,-1.27,0.91,0.45,-0.11,0.06,1.01,
1.217,-1.27,0.91,0.45,-0.11,0.06,1.01,
1.218,-1.24,0.97,0.40,-0.11,0.06,1.01,
1.22,-1.24,0.97,0.40,-0.11,0.06,1.01,
1.222,-1.24,0.97,0.40,-0.10,0.06,1.00,
1.222,-1.18,0.98,0.35,-0.10,0.06,1.00,
1.225,-1.18,0.98,0.35,-0.10,0.06,1.00,
1.227,-1.18,0.98,0.35,-0.10,0.06,1.00,
1.228,-1.09,0.97,0.27,-0.10,0.06,1.00,
1.23,-1.09,0.97,0.27,-0.09,0.06,0.99,
1.232,-1.09,0.97,0.27,-0.09,0.06,0.99,
1.232,-1.00,0.97,0.20,-0.09,0.06,0.99,
1.234,-1.00,0.97,0.20,-0.09,0.06,0.99,
1.237,-1.00,0.97,0.20,-0.09,0.07,0.99,
1.237,-0.91,0.99,0.15,-0.09,0.07,0.99,
1.239,-0.91,0.99,0.15,-0.08,0.07,0.99,
1.251,-0.91,0.99,0.15,-0.08,0.08,1.00,
1.251,-0.84,1.02,0.14,-0.08,0.08,1.00,
1.251,-0.84,1.02,0.14,-0.08,0.08,1.00,
1.252,-0.84,1.02,0.14,-0.08,0.09,1.00,
1.252,-0.77,1.10,0.18,-0.08,0.09,1.00,
1.252,-0.77,1.10,0.18,-0.07,0.10,1.01,
1.253,-0.77,1.10,0.18,-0.07,0.10,1.01,
1.253,-0.72,1.20,0.22,-0.07,0.10,1.01,
1.254,-0.72,1.20,0.22,-0.07,0.11,1.01,
1.256,-0.72,1.20,0.22,-0.06,0.11,1.01,
1.257,-0.67,1.32,0.28,-0.06,0.11,1.01,
1.269,-0.67,1.32,0.28,-0.06,0.12,1.02,
1.269,-0.67,1.32,0.28,-0.05,0.12,1.02,
1.27,-0.61,1.41,0.31,-0.05,0.12,1.02,
1.27,-0.61,1.41,0.31,-0.04,0.12,1.02,
1.27,-0.48,1.46,0.37,-0.04,0.12,1.02,
1.27,-0.48,1.46,0.37,-0.03,0.11,1.02,
1.27,-0.48,1.46,0.37,-0.03,0.11,1.02,
1.271,-0.48,1.46,0.37,-0.02,0.11,1.02,
1.272,-0.32,1.43,0.40,-0.02,0.11,1.02,
1.273,-0.32,1.43,0.40,-0.01,0.10,1.02,
1.276,-0.32,1.43,0.40,-0.00,0.10,1.02,
1.276,-0.16,1.35,0.43,-0.00,0.10,1.02,
1.278,-0.16,1.35,0.43,0.00,0.10,1.03,
1.281,-0.16,1.35,0.43,0.00,0.10,1.03,
1.281,-0.01,1.29,0.43,0.00,0.10,1.03,
1.283,-0.01,1.29,0.43,0.01,0.10,1.03,
1.286,0.09,1.25,0.44,0.01,0.10,1.03,
1.286,0.09,1.25,0.44,0.01,0.10,1.02,
1.288,0.09,1.25,0.44,0.01,0.09,1.02,
1.291,0.09,1.25,0.44,0.01,0.09,1.02,
1.291,0.16,1.20,0.42,0.01,0.09,1.02,
1.293,0.16,1.20,0.42,0.01,0.09,1.02,
1.295,0.16,1.20,0.42,0.01,0.09,1.01,
1.296,0.21,1.15,0.36,0.01,0.09,1.01,
1.298,0.21,1.15,0.36,0.01,0.09,1.00,
1.3,0.21,1.15,0.36,0.00,0.08,1.00,
1.301,0.19,1.10,0.30,0.00,0.08,1.00,
1.303,0.19,1.10,0.30,0.00,0.08,1.00,
1.305,0.19,1.10,0.30,-0.01,0.09,0.99,
1.305,0.16,1.05,0.21,-0.01,0.09,0.99,
1.308,0.16,1.05,0.21,-0.01,0.09,0.99,
1.31,0.16,1.05,0.21,-0.02,0.09,0.99,
1.31,0.09,1.05,0.14,-0.02,0.09,0.99,
1.313,0.09,1.05,0.14,-0.02,0.09,0.99,
1.315,0.09,1.05,0.14,-0.03,0.10,0.99,
1.315,-0.00,1.08,0.09,-0.03,0.10,0.99,
1.317,-0.00,1.08,0.09,-0.03,0.10,0.98,
1.32,-0.00,1.08,0.09,-0.04,0.11,0.98,
1.32,-0.09,1.13,0.04,-0.04,0.11,0.98,
1.323,-0.09,1.13,0.04,-0.05,0.11,0.98,
1.327,-0.09,1.13,0.04,-0.05,0.12,0.98,
1.327,-0.21,1.21,0.01,-0.05,0.12,0.98,
1.328,-0.21,1.21,0.01,-0.06,0.12,0.97,
1.33,-0.21,1.21,0.01,-0.06,0.13,0.97,
1.33,-0.31,1.30,-0.04,-0.06,0.13,0.97,
1.332,-0.31,1.30,-0.04,-0.07,0.13,0.97,
1.335,-0.31,1.30,-0.04,-0.07,0.14,0.97,
1.335,-0.40,1.39,-0.08,-0.07,0.14,0.97,
1.337,-0.40,1.39,-0.08,-0.07,0.14,0.97,
1.34,-0.40,1.39,-0.08,-0.06,0.15,0.97,
1.34,-0.45,1.48,-0.11,-0.06,0.15,0.97,
1.342,-0.45,1.48,-0.11,-0.05,0.15,0.97,
1.345,-0.45,1.48,-0.11,-0.05,0.15,0.97,
1.345,-0.40,1.55,-0.11,-0.05,0.15,0.97,
1.347,-0.40,1.55,-0.11,-0.04,0.15,0.97,
1.349,-0.40,1.55,-0.11,-0.03,0.15,0.97,
1.35,-0.27,1.58,-0.11,-0.03,0.15,0.97,
1.352,-0.27,1.58,-0.11,-0.02,0.15,0.97,
1.355,-0.27,1.58,-0.11,-0.01,0.15,0.97,
1.355,-0.09,1.57,-0.10,-0.01,0.15,0.97,
1.357,-0.09,1.57,-0.10,0.01,0.16,0.98,
1.366,-0.09,1.57,-0.10,0.02,0.15,0.98,
1.366,0.13,1.61,-0.08,0.02,0.15,0.98,
1.366,0.13,1.61,-0.08,0.04,0.15,0.99,
1.367,0.13,1.61,-0.08,0.05,0.14,0.99,
1.367,0.39,1.59,-0.01,0.05,0.14,0.99,
1.367,0.39,1.59,-0.01,0.06,0.14,0.99,
1.369,0.39,1.59,-0.01,0.07,0.13,1.00,
1.369,0.65,1.50,0.05,0.07,0.13,1.00,
1.372,0.65,1.50,0.05,0.08,0.12,1.00,
1.374,0.65,1.50,0.05,0.09,0.12,1.00,
1.374,0.89,1.39,0.12,0.09,0.12,1.00,
1.384,0.89,1.39,0.12,0.10,0.11,1.00,
1.384,0.89,1.39,0.12,0.10,0.11,1.00,
1.384,1.07,1.23,0.14,0.10,0.11,1.00,
1.385,1.07,1.23,0.14,0.10,0.10,1.00,
1.385,1.07,1.23,0.14,0.09,0.09,1.00,
1.385,1.17,1.12,0.16,0.09,0.09,1.00,
1.386,1.17,1.12,0.16,0.09,0.09,1.00,
1.389,1.17,1.12,0.16,0.08,0.08,1.01,
1.389,1.14,1.01,0.17,0.08,0.08,1.01,
1.391,1.14,1.01,0.17,0.07,0.08,1.01,
1.393,1.14,1.01,0.17,0.06,0.07,1.02,
1.394,1.05,0.89,0.23,0.06,0.07,1.02,
1.396,1.05,0.89,0.23,0.05,0.07,1.02,
1.398,1.05,0.89,0.23,0.04,0.06,1.02,
1.399,0.88,0.79,0.31,0.04,0.06,1.02,
1.401,0.88,0.79,0.31,0.03,0.06,1.02,
1.403,0.69,0.73,0.37,0.03,0.06,1.02,
1.403,0.69,0.73,0.37,0.02,0.06,1.02,
1.406,0.69,0.73,0.37,0.01,0.06,1.02,
1.408,0.69,0.73,0.37,-0.00,0.06,1.03,
1.409,0.44,0.70,0.40,-0.00,0.06,1.03,
1.41,0.44,0.70,0.40,-0.01,0.06,1.03,
1.413,0.44,0.70,0.40,-0.02,0.06,1.03,
1.414,0.22,0.69,0.42,-0.02,0.06,1.03,
1.416,0.22,0.69,0.42,-0.03,0.05,1.03,
1.418,0.22,0.69,0.42,-0.04,0.05,1.03,
1.418,0.03,0.66,0.43,-0.04,0.05,1.03,
1.42,0.03,0.66,0.43,-0.04,0.05,1.03,
1.423,0.03,0.66,0.43,-0.05,0.05,1.03,
1.424,-0.12,0.64,0.44,-0.05,0.05,1.03,
1.426,-0.12,0.64,0.44,-0.05,0.06,1.03,
1.428,-0.12,0.64,0.44,-0.05,0.06,1.02,
1.429,-0.21,0.64,0.46,-0.05,0.06,1.02,
1.43,-0.21,0.64,0.46,-0.05,0.06,1.02,
1.433,-0.21,0.64,0.46,-0.05,0.06,1.02,
1.433,-0.27,0.65,0.43,-0.05,0.06,1.02,
1.435,-0.27,0.65,0.43,-0.04,0.06,1.01,
1.437,-0.27,0.65,0.43,-0.03,0.06,1.01,
1.438,-0.24,0.67,0.35,-0.03,0.06,1.01,
1.44,-0.24,0.67,0.35,-0.02,0.06,1.00,
1.443,-0.24,0.67,0.35,-0.01,0.07,1.00,
1.444,-0.08,0.70,0.28,-0.01,0.07,1.00,
1.445,-0.08,0.70,0.28,0.00,0.07,1.00,
1.447,-0.08,0.70,0.28,0.01,0.07,0.99,
1.45,0.15,0.73,0.20,0.01,0.07,0.99,
1.45,0.15,0.73,0.20,0.02,0.07,0.99,
1.452,0.15,0.73,0.20,0.04,0.07,0.98,
1.453,0.40,0.75,0.12,0.04,0.07,0.98,
1.455,0.40,0.75,0.12,0.04,0.07,0.97,
1.458,0.66,0.77,0.01,0.04,0.07,0.97,
1.458,0.66,0.77,0.01,0.05,0.08,0.97,
1.466,0.66,0.77,0.01,0.06,0.08,0.97,
1.466,0.66,0.77,0.01,0.06,0.08,0.96,
1.466,0.85,0.83,-0.11,0.06,0.08,0.96,
1.467,0.85,0.83,-0.11,0.06,0.09,0.96,
1.467,0.85,0.83,-0.11,0.07,0.09,0.96,
1.467,1.02,0.89,-0.17,0.07,0.09,0.96,
1.469,1.02,0.89,-0.17,0.07,0.09,0.96,
1.472,1.02,0.89,-0.17,0.07,0.10,0.97,
1.472,1.08,0.96,-0.20,0.07,0.10,0.97,
1.479,1.08,0.96,-0.20,0.07,0.10,0.97,
1.479,1.08,0.96,-0.20,0.07,0.10,0.98,
1.479,1.14,1.03,-0.15,0.07,0.10,0.98,
1.479,1.14,1.03,-0.15,0.07,0.10,0.98,
1.482,1.14,1.03,-0.15,0.07,0.10,0.98,
1.482,1.16,1.09,-0.08,0.07,0.10,0.98,
1.484,1.16,1.09,-0.08,0.07,0.10,0.99,
1.486,1.16,1.09,-0.08,0.07,0.10,0.99,
1.487,1.18,1.09,-0.02,0.07,0.10,0.99,
1.489,1.18,1.09,-0.02,0.08,0.09,1.00,
1.492,1.18,1.09,-0.02,0.08,0.09,1.00,
1.492,1.22,1.07,0.09,0.08,0.09,1.00,
1.494,1.22,1.07,0.09,0.08,0.09,1.01,
1.497,1.22,1.07,0.09,0.08,0.09,1.01,
1.498,1.25,1.02,0.18,0.08,0.09,1.01,
1.499,1.25,1.02,0.18,0.08,0.09,1.03,
1.501,1.25,1.02,0.18,0.09,0.08,1.03,
1.501,1.28,1.00,0.29,0.09,0.08,1.03,
1.503,1.28,1.00,0.29,0.09,0.09,1.04,
1.506,1.28,1.00,0.29,0.09,0.09,1.05,
1.507,1.29,0.97,0.47,0.09,0.09,1.05,
1.509,1.29,0.97,0.47,0.09,0.08,1.06,
1.511,1.29,0.97,0.47,0.09,0.08,1.07,
1.512,1.30,0.97,0.63,0.09,0.08,1.07,
1.513,1.30,0.97,0.63,0.09,0.08,1.08,
1.516,1.30,0.97,0.63,0.10,0.08,1.09,
1.516,1.29,0.95,0.82,0.10,0.08,1.09,
1.518,1.29,0.95,0.82,0.10,0.08,1.09,
1.521,1.29,0.95,0.82,0.10,0.08,1.10,
1.521,1.35,0.92,0.98,0.10,0.08,1.10,
1.523,1.35,0.92,0.98,0.10,0.07,1.10,
1.526,1.35,0.92,0.98,0.11,0.07,1.10,
1.526,1.37,0.87,1.09,0.11,0.07,1.10,
1.528,1.37,0.87,1.09,0.11,0.07,1.10,
1.531,1.37,0.87,1.09,0.12,0.07,1.11,
1.531,1.41,0.81,1.15,0.12,0.07,1.11,
1.533,1.41,0.81,1.15,0.12,0.07,1.11,
1.536,1.41,0.81,1.15,0.12,0.07,1.11,
1.536,1.46,0.77,1.21,0.12,0.07,1.11,
1.538,1.46,0.77,1.21,0.12,0.07,1.11,
1.542,1.46,0.77,1.21,0.12,0.07,1.11,
1.543,1.50,0.77,1.28,0.12,0.07,1.11,
1.543,1.50,0.77,1.28,0.12,0.07,1.11,
1.546,1.50,0.77,1.28,0.12,0.07,1.11,
1.546,1.51,0.77,1.28,0.12,0.07,1.11,
1.548,1.51,0.77,1.28,0.12,0.07,1.10,
1.55,1.51,0.77,1.28,0.12,0.07,1.09,
1.55,1.49,0.75,1.23,0.12,0.07,1.09,
1.553,1.49,0.75,1.23,0.12,0.07,1.08,
1.557,1.48,0.69,1.11,0.12,0.07,1.08,
1.558,1.48,0.69,1.11,0.12,0.07,1.08,
1.558,1.48,0.69,1.11,0.12,0.06,1.07,
1.56,1.48,0.69,1.11,0.13,0.06,1.06,
1.561,1.48,0.65,0.95,0.13,0.06,1.06,
1.562,1.48,0.65,0.95,0.13,0.06,1.05,
1.565,1.48,0.65,0.95,0.13,0.05,1.04,
1.565,1.56,0.57,0.79,0.13,0.05,1.04,
1.567,1.56,0.57,0.79,0.13,0.05,1.04,
1.57,1.56,0.57,0.79,0.14,0.04,1.03,
1.57,1.61,0.49,0.63,0.14,0.04,1.03,
1.572,1.61,0.49,0.63,0.14,0.04,1.02,
1.58,1.61,0.49,0.63,0.14,0.04,1.01,
1.581,1.68,0.38,0.48,0.14,0.04,1.01,
1.581,1.68,0.38,0.48,0.15,0.04,1.01,
1.581,1.68,0.38,0.48,0.15,0.04,1.00,
1.582,1.75,0.29,0.32,0.15,0.04,1.00,
1.582,1.75,0.29,0.32,0.15,0.04,1.00,
1.584,1.75,0.29,0.32,0.15,0.04,0.99,
1.585,1.82,0.24,0.21,0.15,0.04,0.99,
1.587,1.82,0.24,0.21,0.15,0.04,0.99,
1.589,1.82,0.24,0.21,0.15,0.05,0.99,
1.589,1.89,0.22,0.12,0.15,0.05,0.99,
1.592,1.89,0.22,0.12,0.14,0.05,0.98,
1.595,1.89,0.22,0.12,0.14,0.05,0.98,
1.595,1.86,0.25,0.05,0.14,0.05,0.98,
1.597,1.86,0.25,0.05,0.14,0.06,0.98,
1.599,1.86,0.25,0.05,0.13,0.06,0.98,
1.599,1.80,0.31,-0.02,0.13,0.06,0.98,
1.601,1.80,0.31,-0.02,0.13,0.07,0.98,
1.604,1.80,0.31,-0.02,0.13,0.08,0.98,
1.604,1.72,0.39,-0.05,0.13,0.08,0.98,
1.606,1.72,0.39,-0.05,0.13,0.08,0.98,
1.609,1.72,0.39,-0.05,0.13,0.08,0.98,
1.609,1.66,0.48,-0.07,0.13,0.08,0.98,
1.611,1.66,0.48,-0.07,0.13,0.08,0.97,
1.614,1.66,0.48,-0.07,0.14,0.08,0.97,
1.614,1.64,0.52,-0.07,0.14,0.08,0.97,
1.616,1.64,0.52,-0.07,0.14,0.08,0.98,
1.619,1.64,0.52,-0.07,0.14,0.08,0.98,
1.619,1.65,0.50,-0.08,0.14,0.08,0.98,
1.621,1.65,0.50,-0.08,0.15,0.07,0.98,
1.624,1.65,0.50,-0.08,0.15,0.07,0.98,
1.624,1.72,0.47,-0.07,0.15,0.07,0.98,
1.626,1.72,0.47,-0.07,0.16,0.07,0.98,
1.629,1.72,0.47,-0.07,0.16,0.06,0.98,
1.629,1.77,0.39,-0.05,0.16,0.06,0.98,
1.631,1.77,0.39,-0.05,0.17,0.06,0.98,
1.633,1.77,0.39,-0.05,0.17,0.06,0.98,
1.634,1.86,0.29,-0.06,0.17,0.06,0.98,
1.636,1.86,0.29,-0.06,0.17,0.05,0.98,
1.638,1.86,0.29,-0.06,0.18,0.05,0.98,
1.638,1.91,0.19,-0.05,0.18,0.05,0.98,
1.642,1.91,0.19,-0.05,0.18,0.05,0.98,
1.643,1.91,0.19,-0.05,0.18,0.05,0.98,
1.644,1.98,0.11,-0.03,0.18,0.05,0.98,
1.646,1.98,0.11,-0.03,0.18,0.05,0.98,
1.648,1.98,0.11,-0.03,0.18,0.05,0.98,
1.648,1.98,0.08,-0.02,0.18,0.05,0.98,
1.65,1.98,0.08,-0.02,0.17,0.05,0.98,
1.653,1.96,0.08,0.01,0.17,0.05,0.98,
1.653,1.96,0.08,0.01,0.17,0.06,0.98,
1.655,1.96,0.08,0.01,0.17,0.06,0.98,
1.658,1.96,0.08,0.01,0.17,0.06,0.98,
1.658,1.89,0.09,0.02,0.17,0.06,0.98,
1.66,1.89,0.09,0.02,0.17,0.06,0.98,
1.663,1.89,0.09,0.02,0.16,0.06,0.98,
1.664,1.89,0.08,0.01,0.16,0.06,0.98,
1.665,1.89,0.08,0.01,0.16,0.06,0.98,
1.668,1.89,0.08,0.01,0.16,0.06,0.98,
1.668,1.83,0.06,-0.03,0.16,0.06,0.98,
1.67,1.83,0.06,-0.03,0.16,0.05,0.97,
1.673,1.83,0.06,-0.03,0.16,0.05,0.97,
1.673,1.79,0.03,-0.05,0.16,0.05,0.97,
1.682,1.79,0.03,-0.05,0.15,0.05,0.97,
1.682,1.79,0.03,-0.05,0.15,0.05,0.97,
1.682,1.73,-0.01,-0.09,0.15,0.05,0.97,
1.683,1.73,-0.01,-0.09,0.14,0.05,0.96,
1.683,1.73,-0.01,-0.09,0.13,0.05,0.96,
1.683,1.68,-0.03,-0.14,0.13,0.05,0.96,
1.685,1.68,-0.03,-0.14,0.13,0.05,0.96,
1.687,1.68,-0.03,-0.14,0.13,0.06,0.96,
1.687,1.56,-0.05,-0.19,0.13,0.06,0.96,
1.69,1.56,-0.05,-0.19,0.12,0.06,0.96,
1.695,1.56,-0.05,-0.19,0.12,0.06,0.95,
1.695,1.45,-0.03,-0.21,0.12,0.06,0.95,
1.695,1.45,-0.03,-0.21,0.12,0.06,0.95,
1.697,1.45,-0.03,-0.21,0.11,0.06,0.95,
1.697,1.39,0.01,-0.27,0.11,0.06,0.95,
1.699,1.39,0.01,-0.27,0.11,0.06,0.95,
1.702,1.39,0.01,-0.27,0.11,0.06,0.94,
1.702,1.32,0.03,-0.33,0.11,0.06,0.94,
1.704,1.32,0.03,-0.33,0.11,0.07,0.94,
1.707,1.32,0.03,-0.33,0.12,0.07,0.94,
1.707,1.31,0.02,-0.37,0.12,0.07,0.94,
1.71,1.31,0.02,-0.37,0.12,0.07,0.94,
1.712,1.31,0.02,-0.37,0.12,0.06,0.93,
1.712,1.32,0.03,-0.41,0.12,0.06,0.93,
1.714,1.32,0.03,-0.41,0.12,0.06,0.93,
1.717,1.32,0.03,-0.41,0.12,0.06,0.93,
1.717,1.37,0.02,-0.46,0.12,0.06,0.93,
1.719,1.37,0.02,-0.46,0.13,0.06,0.93,
1.722,1.37,0.02,-0.46,0.13,0.06,0.93,
1.722,1.41,-0.03,-0.48,0.13,0.06,0.93,
1.724,1.41,-0.03,-0.48,0.13,0.05,0.93,
1.727,1.41,-0.03,-0.48,0.13,0.05,0.92,
1.727,1.44,-0.07,-0.52,0.13,0.05,0.92,
1.729,1.44,-0.07,-0.52,0.13,0.05,0.92,
1.732,1.44,-0.07,-0.52,0.14,0.05,0.92,
1.732,1.47,-0.13,-0.55,0.14,0.05,0.92,
1.734,1.47,-0.13,-0.55,0.13,0.05,0.92,
1.736,1.47,-0.13,-0.55,0.14,0.05,0.92,
1.736,1.50,-0.16,-0.58,0.14,0.05,0.92,
1.739,1.50,-0.16,-0.58,0.14,0.05,0.93,
1.742,1.50,-0.16,-0.58,0.14,0.05,0.93,
1.743,1.51,-0.18,-0.57,0.14,0.05,0.93,
1.744,1.51,-0.18,-0.57,0.14,0.05,0.93,
1.746,1.51,-0.18,-0.57,0.14,0.05,0.93,
1.746,1.53,-0.21,-0.53,0.14,0.05,0.93,
1.749,1.53,-0.21,-0.53,0.14,0.04,0.94,
1.751,1.53,-0.21,-0.53,0.15,0.04,0.94,
1.751,1.55,-0.22,-0.47,0.15,0.04,0.94,
1.753,1.55,-0.22,-0.47,0.14,0.04,0.94,
1.756,1.55,-0.22,-0.47,0.14,0.04,0.94,
1.756,1.56,-0.27,-0.41,0.14,0.04,0.94,
1.759,1.56,-0.27,-0.41,0.15,0.03,0.94,
1.761,1.56,-0.27,-0.41,0.15,0.03,0.95,
1.761,1.54,-0.33,-0.38,0.15,0.03,0.95,
1.763,1.54,-0.33,-0.38,0.14,0.03,0.95,
1.766,1.54,-0.33,-0.38,0.14,0.03,0.95,
1.766,1.54,-0.40,-0.35,0.14,0.03,0.95,
1.768,1.54,-0.40,-0.35,0.14,0.03,0.95,
1.771,1.54,-0.40,-0.35,0.14,0.03,0.95,
1.771,1.49,-0.41,-0.33,0.14,0.03,0.95,
1.773,1.49,-0.41,-0.33,0.13,0.03,0.95,
1.776,1.49,-0.41,-0.33,0.13,0.03,0.95,
1.776,1.42,-0.40,-0.30,0.13,0.03,0.95,
1.783,1.42,-0.40,-0.30,0.13,0.03,0.95,
1.784,1.42,-0.40,-0.30,0.13,0.04,0.95,
1.784,1.35,-0.40,-0.28,0.13,0.04,0.95,
1.784,1.35,-0.40,-0.28,0.13,0.04,0.95,
1.786,1.35,-0.40,-0.28,0.12,0.04,0.96,
1.786,1.29,-0.37,-0.26,0.12,0.04,0.96,
1.788,1.29,-0.37,-0.26,0.12,0.04,0.95,
1.79,1.29,-0.37,-0.26,0.12,0.03,0.95,
1.79,1.22,-0.37,-0.24,0.12,0.03,0.95,
1.798,1.22,-0.37,-0.24,0.12,0.03,0.95,
1.798,1.22,-0.37,-0.24,0.12,0.02,0.94,
1.798,1.16,-0.38,-0.28,0.12,0.02,0.94,
1.798,1.16,-0.38,-0.28,0.12,0.02,0.94,
1.8,1.14,-0.47,-0.35,0.12,0.02,0.94,
1.8,1.14,-0.47,-0.35,0.12,0.01,0.94,
1.802,1.14,-0.47,-0.35,0.12,0.01,0.93,
1.805,1.14,-0.47,-0.35,0.11,0.00,0.93,
1.805,1.11,-0.58,-0.41,0.11,0.00,0.93,
1.808,1.11,-0.58,-0.41,0.12,-0.01,0.93,
1.81,1.11,-0.58,-0.41,0.12,-0.01,0.93,
1.81,1.10,-0.70,-0.47,0.12,-0.01,0.93,
1.812,1.10,-0.70,-0.47,0.12,-0.02,0.93,
1.815,1.10,-0.70,-0.47,0.12,-0.03,0.92,
1.815,1.12,-0.83,-0.49,0.12,-0.03,0.92,
1.817,1.12,-0.83,-0.49,0.12,-0.03,0.92,
1.819,1.12,-0.83,-0.49,0.11,-0.04,0.92,
1.82,1.13,-0.98,-0.54,0.11,-0.04,0.92,
1.822,1.13,-0.98,-0.54,0.11,-0.05,0.92,
1.825,1.13,-0.98,-0.54,0.11,-0.05,0.91,
1.826,1.11,-1.12,-0.57,0.11,-0.05,0.91,
1.827,1.11,-1.12,-0.57,0.10,-0.05,0.91,
1.83,1.11,-1.12,-0.57,0.10,-0.05,0.91,
1.83,1.02,-1.18,-0.63,0.10,-0.05,0.91,
1.832,1.02,-1.18,-0.63,0.09,-0.05,0.91,
1.834,1.02,-1.18,-0.63,0.09,-0.05,0.92,
1.835,0.93,-1.21,-0.65,0.09,-0.05,0.92,
1.837,0.93,-1.21,-0.65,0.08,-0.05,0.92,
1.839,0.93,-1.21,-0.65,0.08,-0.05,0.93,
1.839,0.83,-1.23,-0.64,0.08,-0.05,0.93,
1.842,0.83,-1.23,-0.64,0.07,-0.05,0.93,
1.844,0.83,-1.23,-0.64,0.06,-0.04,0.93,
1.844,0.70,-1.22,-0.55,0.06,-0.04,0.93,
1.846,0.70,-1.22,-0.55,0.05,-0.03,0.94,
1.849,0.70,-1.22,-0.55,0.04,-0.02,0.95,
1.849,0.55,-1.14,-0.45,0.04,-0.02,0.95,
1.851,0.55,-1.14,-0.45,0.04,-0.01,0.95,
1.854,0.55,-1.14,-0.45,0.03,-0.01,0.96,
1.854,0.35,-0.97,-0.36,0.03,-0.01,0.96,
1.856,0.35,-0.97,-0.36,0.03,-0.00,0.97,
1.863,0.35,-0.97,-0.36,0.03,0.00,0.97,
1.864,0.19,-0.80,-0.25,0.03,0.00,0.97,
1.864,0.19,-0.80,-0.25,0.03,0.00,0.98,
1.865,0.19,-0.80,-0.25,0.03,0.00,0.99,
1.865,0.14,-0.69,-0.10,0.03,0.00,0.99,
1.866,0.14,-0.69,-0.10,0.04,0.00,0.99,
1.869,0.14,-0.69,-0.10,0.05,-0.00,1.00,
1.869,0.12,-0.65,0.03,0.05,-0.00,1.00,
1.871,0.12,-0.65,0.03,0.05,-0.01,1.00,
1.877,0.12,-0.65,0.03,0.06,-0.01,1.00,
1.877,0.19,-0.67,0.14,0.06,-0.01,1.00,
1.877,0.19,-0.67,0.14,0.06,-0.01,1.00,
1.878,0.19,-0.67,0.14,0.07,-0.02,1.01,
1.878,0.30,-0.75,0.22,0.07,-0.02,1.01,
1.881,0.30,-0.75,0.22,0.07,-0.02,1.01,
1.883,0.30,-0.75,0.22,0.07,-0.03,1.01,
1.883,0.39,-0.82,0.25,0.07,-0.03,1.01,
1.886,0.39,-0.82,0.25,0.07,-0.03,1.01,
1.888,0.39,-0.82,0.25,0.07,-0.03,1.01,
1.888,0.42,-0.91,0.27,0.07,-0.03,1.01,
1.891,0.42,-0.91,0.27,0.07,-0.03,1.01,
1.893,0.42,-0.91,0.27,0.07,-0.03,1.02,
1.893,0.42,-0.95,0.32,0.07,-0.03,1.02,
1.896,0.42,-0.95,0.32,0.07,-0.03,1.02,
1.898,0.42,-0.95,0.32,0.07,-0.03,1.02,
1.898,0.40,-0.99,0.35,0.07,-0.03,1.02,
1.9,0.40,-0.99,0.35,0.06,-0.03,1.02,
1.903,0.40,-0.99,0.35,0.06,-0.03,1.02,
1.903,0.36,-0.99,0.39,0.06,-0.03,1.02,
1.905,0.36,-0.99,0.39,0.06,-0.03,1.02,
1.908,0.36,-0.99,0.39,0.06,-0.04,1.02,
1.908,0.31,-0.99,0.43,0.06,-0.04,1.02,
1.91,0.31,-0.99,0.43,0.06,-0.04,1.02,
1.913,0.31,-0.99,0.43,0.05,-0.04,1.01,
1.913,0.24,-1.02,0.39,0.05,-0.04,1.01,
1.915,0.24,-1.02,0.39,0.05,-0.04,1.01,
1.917,0.24,-1.02,0.39,0.04,-0.04,1.01,
1.918,0.19,-1.07,0.35,0.04,-0.04,1.01,
1.92,0.19,-1.07,0.35,0.04,-0.04,1.01,
1.923,0.19,-1.07,0.35,0.04,-0.05,1.01,
1.923,0.10,-1.08,0.31,0.04,-0.05,1.01,
1.925,0.10,-1.08,0.31,0.03,-0.05,1.01,
1.927,0.10,-1.08,0.31,0.03,-0.05,1.01,
1.928,0.00,-1.11,0.27,0.03,-0.05,1.01,
1.929,0.00,-1.11,0.27,0.02,-0.06,1.01,
1.932,0.00,-1.11,0.27,0.02,-0.06,1.00,
1.932,-0.09,-1.16,0.25,0.02,-0.06,1.00,
1.934,-0.09,-1.16,0.25,0.02,-0.06,1.00,
1.937,-0.09,-1.16,0.25,0.02,-0.07,1.00,
1.94,-0.19,-1.24,0.24,0.02,-0.07,1.00,
1.94,-0.19,-1.24,0.24,0.01,-0.07,1.00,
1.942,-0.19,-1.24,0.24,0.01,-0.07,1.00,
1.942,-0.24,-1.29,0.21,0.01,-0.07,1.00,
1.944,-0.24,-1.29,0.21,0.00,-0.07,1.00,
1.947,-0.24,-1.29,0.21,0.00,-0.07,1.00,
1.947,-0.34,-1.33,0.20,0.00,-0.07,1.00,
1.949,-0.34,-1.33,0.20,-0.00,-0.07,1.00,
1.952,-0.34,-1.33,0.20,-0.00,-0.07,1.01,
1.952,-0.43,-1.32,0.22,-0.00,-0.07,1.01,
1.954,-0.43,-1.32,0.22,-0.01,-0.06,1.01,
1.963,-0.43,-1.32,0.22,-0.01,-0.06,1.01,
1.964,-0.50,-1.31,0.24,-0.01,-0.06,1.01,
1.964,-0.50,-1.31,0.24,-0.01,-0.06,1.01,
1.965,-0.50,-1.31,0.24,-0.01,-0.06,1.01,
1.965,-0.56,-1.29,0.26,-0.01,-0.06,1.01,
1.965,-0.56,-1.29,0.26,-0.01,-0.06,1.00,
1.967,-0.56,-1.29,0.26,-0.01,-0.06,1.00,
1.967,-0.60,-1.28,0.25,-0.01,-0.06,1.00,
1.969,-0.60,-1.28,0.25,-0.01,-0.07,1.00,
1.972,-0.63,-1.30,0.22,-0.01,-0.07,1.00,
1.972,-0.63,-1.30,0.22,-0.01,-0.07,1.00,
1.982,-0.63,-1.30,0.22,-0.01,-0.07,1.00,
1.982,-0.63,-1.30,0.22,-0.01,-0.07,1.00,
1.983,-0.64,-1.34,0.21,-0.01,-0.07,1.00,
1.983,-0.64,-1.34,0.21,-0.01,-0.08,1.00,
1.983,-0.64,-1.34,0.21,-0.01,-0.08,1.00,
1.983,-0.65,-1.40,0.20,-0.01,-0.08,1.00,
1.983,-0.65,-1.40,0.20,-0.02,-0.09,1.00,
1.986,-0.65,-1.40,0.20,-0.02,-0.09,1.00,
1.986,-0.68,-1.49,0.20,-0.02,-0.09,1.00,
1.988,-0.68,-1.49,0.20,-0.02,-0.10,1.00,
1.991,-0.68,-1.49,0.20,-0.02,-0.10,1.00,
1.991,-0.72,-1.60,0.20,-0.02,-0.10,1.00,
1.993,-0.72,-1.60,0.20,-0.02,-0.10,1.00,
1.996,-0.72,-1.60,0.20,-0.02,-0.11,1.00,
1.996,-0.74,-1.67,0.20,-0.02,-0.11,1.00,
1.998,-0.74,-1.67,0.20,-0.03,-0.11,1.00,
2.001,-0.74,-1.67,0.20,-0.03,-0.11,1.00,
2.001,-0.79,-1.72,0.16,-0.03,-0.11,1.00,
2.003,-0.79,-1.72,0.16,-0.03,-0.11,0.99,
2.006,-0.79,-1.72,0.16,-0.03,-0.11,0.99,
2.006,-0.85,-1.76,0.15,-0.03,-0.11,0.99,
2.008,-0.85,-1.76,0.15,-0.03,-0.11,0.99,
2.011,-0.85,-1.76,0.15,-0.03,-0.11,0.99,
2.011,-0.90,-1.78,0.14,-0.03,-0.11,0.99,
2.013,-0.90,-1.78,0.14,-0.03,-0.11,0.99,
2.015,-0.90,-1.78,0.14,-0.03,-0.11,0.99,
2.015,-0.94,-1.80,0.10,-0.03,-0.11,0.99,
2.018,-0.94,-1.80,0.10,-0.03,-0.11,0.99,
2.02,-0.94,-1.80,0.10,-0.02,-0.11,1.00,
2.021,-0.92,-1.78,0.12,-0.02,-0.11,1.00,
2.024,-0.92,-1.78,0.12,-0.01,-0.11,1.00,
2.025,-0.92,-1.78,0.12,-0.01,-0.11,1.00,
2.025,-0.86,-1.76,0.16,-0.01,-0.11,1.00,
2.028,-0.86,-1.76,0.16,-0.01,-0.10,1.00,
2.03,-0.86,-1.76,0.16,-0.00,-0.10,1.00,
2.03,-0.74,-1.75,0.17,-0.00,-0.10,1.00,
2.033,-0.74,-1.75,0.17,0.00,-0.10,1.00,
2.035,-0.74,-1.75,0.17,0.00,-0.10,1.00,
2.035,-0.68,-1.71,0.18,0.00,-0.10,1.00,
2.037,-0.68,-1.71,0.18,0.00,-0.09,1.00,
2.041,-0.68,-1.71,0.18,0.00,-0.08,1.00,
2.042,-0.63,-1.65,0.16,0.00,-0.08,1.00,
2.042,-0.63,-1.65,0.16,0.00,-0.08,1.00,
2.046,-0.63,-1.65,0.16,0.00,-0.07,1.00,
2.046,-0.60,-1.53,0.17,0.00,-0.07,1.00,
2.047,-0.60,-1.53,0.17,0.00,-0.07,1.00,
2.05,-0.60,-1.53,0.17,-0.00,-0.07,1.00,
2.05,-0.61,-1.40,0.19,-0.00,-0.07,1.00,
2.052,-0.61,-1.40,0.19,-0.00,-0.06,1.00,
2.055,-0.61,-1.40,0.19,-0.00,-0.06,1.00,
2.055,-0.63,-1.34,0.21,-0.00,-0.06,1.00,
2.057,-0.63,-1.34,0.21,-0.01,-0.06,1.00,
2.06,-0.63,-1.34,0.21,-0.01,-0.07,0.99,
2.06,-0.65,-1.31,0.20,-0.01,-0.07,0.99,
2.062,-0.65,-1.31,0.20,-0.01,-0.07,0.98,
2.064,-0.65,-1.31,0.20,-0.02,-0.07,0.98,
2.065,-0.69,-1.34,0.12,-0.02,-0.07,0.98,
2.067,-0.69,-1.34,0.12,-0.02,-0.06,0.97,
2.069,-0.69,-1.34,0.12,-0.03,-0.06,0.97,
2.07,-0.78,-1.36,0.01,-0.03,-0.06,0.97,
2.072,-0.78,-1.36,0.01,-0.03,-0.06,0.97,
2.08,-0.78,-1.36,0.01,-0.03,-0.06,0.96,
2.08,-0.84,-1.31,-0.07,-0.03,-0.06,0.96,
2.081,-0.84,-1.31,-0.07,-0.03,-0.06,0.96,
2.081,-0.84,-1.31,-0.07,-0.04,-0.06,0.96,
2.081,-0.92,-1.29,-0.13,-0.04,-0.06,0.96,
2.082,-0.92,-1.29,-0.13,-0.04,-0.07,0.95,
2.084,-0.92,-1.29,-0.13,-0.04,-0.07,0.94,
2.084,-0.96,-1.30,-0.20,-0.04,-0.07,0.94,
2.086,-0.96,-1.30,-0.20,-0.04,-0.07,0.94,
2.089,-0.96,-1.30,-0.20,-0.04,-0.07,0.94,
2.089,-0.99,-1.37,-0.30,-0.04,-0.07,0.94,
2.101,-0.99,-1.37,-0.30,-0.05,-0.07,0.94,
2.102,-0.99,-1.37,-0.30,-0.05,-0.07,0.94,
2.102,-1.02,-1.41,-0.40,-0.05,-0.07,0.94,
2.103,-1.02,-1.41,-0.40,-0.05,-0.07,0.94,
2.103,-1.02,-1.41,-0.40,-0.05,-0.06,0.94,
2.103,-1.06,-1.40,-0.43,-0.05,-0.06,0.94,
2.105,-1.06,-1.40,-0.43,-0.05,-0.06,0.94,
2.106,-1.06,-1.40,-0.43,-0.05,-0.06,0.94,
2.106,-1.07,-1.34,-0.40,-0.05,-0.06,0.94,
2.106,-1.07,-1.34,-0.40,-0.04,-0.05,0.95,
2.109,-1.07,-1.34,-0.40,-0.04,-0.05,0.95,
2.109,-1.08,-1.28,-0.35,-0.04,-0.05,0.95,
2.111,-1.08,-1.28,-0.35,-0.04,-0.05,0.95,
2.113,-1.08,-1.28,-0.35,-0.04,-0.05,0.95,
2.113,-1.05,-1.22,-0.32,-0.04,-0.05,0.95,
2.116,-1.05,-1.22,-0.32,-0.04,-0.05,0.95,
2.118,-1.05,-1.22,-0.32,-0.03,-0.05,0.95,
2.118,-1.00,-1.20,-0.30,-0.03,-0.05,0.95,
2.12,-1.00,-1.20,-0.30,-0.03,-0.05,0.95,
2.124,-1.00,-1.20,-0.30,-0.02,-0.05,0.95,
2.125,-0.96,-1.20,-0.31,-0.02,-0.05,0.95,
2.126,-0.96,-1.20,-0.31,-0.02,-0.05,0.95,
2.128,-0.96,-1.20,-0.31,-0.01,-0.05,0.96,
2.128,-0.88,-1.20,-0.27,-0.01,-0.05,0.96,
2.13,-0.88,-1.20,-0.27,-0.01,-0.05,0.96,
2.133,-0.88,-1.20,-0.27,-0.00,-0.05,0.96,
2.133,-0.80,-1.21,-0.23,-0.00,-0.05,0.96,
2.135,-0.80,-1.21,-0.23,-0.00,-0.05,0.96,
2.138,-0.80,-1.21,-0.23,-0.00,-0.05,0.96,
2.138,-0.72,-1.21,-0.22,-0.00,-0.05,0.96,
2.14,-0.72,-1.21,-0.22,-0.00,-0.05,0.95,
2.143,-0.72,-1.21,-0.22,-0.00,-0.05,0.96,
2.144,-0.67,-1.22,-0.22,-0.00,-0.05,0.96,
2.145,-0.67,-1.22,-0.22,-0.01,-0.04,0.95,
2.148,-0.67,-1.22,-0.22,-0.01,-0.04,0.96,
2.148,-0.66,-1.18,-0.23,-0.01,-0.04,0.96,
2.15,-0.66,-1.18,-0.23,-0.01,-0.03,0.96,
2.152,-0.66,-1.18,-0.23,-0.01,-0.03,0.96,
2.153,-0.73,-1.10,-0.22,-0.01,-0.03,0.96,
2.155,-0.73,-1.10,-0.22,-0.02,-0.02,0.96,
2.158,-0.73,-1.10,-0.22,-0.02,-0.02,0.96,
2.158,-0.77,-1.01,-0.20,-0.02,-0.02,0.96,
2.16,-0.77,-1.01,-0.20,-0.03,-0.02,0.96,
2.162,-0.77,-1.01,-0.20,-0.03,-0.01,0.96,
2.163,-0.84,-0.91,-0.19,-0.03,-0.01,0.96,
2.165,-0.84,-0.91,-0.19,-0.03,-0.02,0.96,
2.167,-0.84,-0.91,-0.19,-0.04,-0.01,0.96,
2.167,-0.89,-0.85,-0.19,-0.04,-0.01,0.96,
2.17,-0.89,-0.85,-0.19,-0.04,-0.01,0.96,
2.172,-0.89,-0.85,-0.19,-0.04,-0.01,0.96,
2.172,-0.97,-0.83,-0.20,-0.04,-0.01,0.96,
2.18,-0.97,-0.83,-0.20,-0.04,-0.02,0.96,
2.18,-0.97,-0.83,-0.20,-0.04,-0.02,0.96,
2.181,-1.01,-0.82,-0.19,-0.04,-0.02,0.96,
2.181,-1.01,-0.82,-0.19,-0.04,-0.02,0.96,
2.182,-1.01,-0.82,-0.19,-0.04,-0.03,0.96,
2.182,-1.04,-0.84,-0.20,-0.04,-0.03,0.96,
2.184,-1.04,-0.84,-0.20,-0.04,-0.03,0.96,
2.187,-1.04,-0.84,-0.20,-0.03,-0.04,0.96,
2.187,-1.01,-0.90,-0.19,-0.03,-0.04,0.96,
2.194,-1.01,-0.90,-0.19,-0.03,-0.05,0.96,
2.195,-1.01,-0.90,-0.19,-0.03,-0.05,0.95,
2.195,-0.94,-1.01,-0.19,-0.03,-0.05,0.95,
2.195,-0.94,-1.01,-0.19,-0.02,-0.05,0.95,
2.197,-0.94,-1.01,-0.19,-0.02,-0.06,0.96,
2.197,-0.86,-1.13,-0.23,-0.02,-0.06,0.96,
2.199,-0.86,-1.13,-0.23,-0.01,-0.06,0.96,
2.202,-0.86,-1.13,-0.23,-0.01,-0.06,0.96,
2.202,-0.78,-1.19,-0.23,-0.01,-0.06,0.96,
2.204,-0.78,-1.19,-0.23,-0.01,-0.06,0.96,
2.207,-0.78,-1.19,-0.23,-0.01,-0.06,0.96,
2.207,-0.71,-1.24,-0.19,-0.01,-0.06,0.96,
2.209,-0.71,-1.24,-0.19,-0.01,-0.05,0.96,
2.212,-0.71,-1.24,-0.19,-0.01,-0.05,0.97,
2.212,-0.67,-1.23,-0.17,-0.01,-0.05,0.97,
2.214,-0.67,-1.23,-0.17,-0.01,-0.04,0.97,
2.216,-0.67,-1.23,-0.17,-0.01,-0.03,0.97,
2.216,-0.65,-1.13,-0.12,-0.01,-0.03,0.97,
2.218,-0.65,-1.13,-0.12,-0.01,-0.03,0.98,
2.221,-0.65,-1.13,-0.12,-0.01,-0.02,0.98,
2.221,-0.69,-0.98,-0.05,-0.01,-0.02,0.98,
2.223,-0.69,-0.98,-0.05,-0.01,-0.01,0.98,
2.226,-0.69,-0.98,-0.05,-0.01,-0.00,0.99,
2.227,-0.72,-0.84,0.01,-0.01,-0.00,0.99,
2.229,-0.72,-0.84,0.01,-0.01,0.01,0.99,
2.231,-0.72,-0.84,0.01,-0.01,0.01,1.00,
2.231,-0.70,-0.67,0.07,-0.01,0.01,1.00,
2.233,-0.70,-0.67,0.07,-0.00,0.02,1.00,
2.236,-0.70,-0.67,0.07,0.00,0.02,1.00,
2.236,-0.64,-0.52,0.17,0.00,0.02,1.00,
2.238,-0.64,-0.52,0.17,0.01,0.03,1.00,
2.241,-0.64,-0.52,0.17,0.01,0.03,1.01,
2.241,-0.58,-0.40,0.22,0.01,0.03,1.01,
2.243,-0.58,-0.40,0.22,0.01,0.03,1.01,
2.246,-0.58,-0.40,0.22,0.02,0.04,1.00,
2.246,-0.49,-0.29,0.26,0.02,0.04,1.00,
2.248,-0.49,-0.29,0.26,0.03,0.04,1.00,
2.25,-0.49,-0.29,0.26,0.03,0.04,1.00,
2.251,-0.40,-0.24,0.24,0.03,0.04,1.00,
2.253,-0.40,-0.24,0.24,0.03,0.04,0.99,
2.255,-0.40,-0.24,0.24,0.03,0.03,0.99,
2.256,-0.28,-0.22,0.19,0.03,0.03,0.99,
2.263,-0.28,-0.22,0.19,0.04,0.03,0.98,
2.264,-0.28,-0.22,0.19,0.04,0.03,0.98,
2.264,-0.22,-0.24,0.11,0.04,0.03,0.98,
2.264,-0.22,-0.24,0.11,0.04,0.03,0.97,
2.266,-0.22,-0.24,0.11,0.03,0.03,0.97,
2.267,-0.15,-0.25,0.01,0.03,0.03,0.97,
2.267,-0.15,-0.25,0.01,0.03,0.03,0.97,
2.27,-0.15,-0.25,0.01,0.03,0.03,0.96,
2.272,-0.15,-0.29,-0.07,0.03,0.03,0.96,
2.273,-0.15,-0.29,-0.07,0.03,0.03,0.96,
2.275,-0.15,-0.29,-0.07,0.02,0.03,0.96,
2.275,-0.19,-0.28,-0.13,0.02,0.03,0.96,
2.277,-0.19,-0.28,-0.13,0.02,0.03,0.96,
2.28,-0.19,-0.28,-0.13,0.02,0.03,0.95,
2.28,-0.23,-0.29,-0.17,0.02,0.03,0.95,
2.282,-0.23,-0.29,-0.17,0.02,0.03,0.95,
2.284,-0.23,-0.29,-0.17,0.01,0.03,0.95,
2.285,-0.26,-0.27,-0.23,0.01,0.03,0.95,
2.287,-0.26,-0.27,-0.23,0.01,0.03,0.95,
2.29,-0.26,-0.27,-0.23,0.01,0.04,0.95,
2.29,-0.31,-0.24,-0.27,0.01,0.04,0.95,
2.292,-0.31,-0.24,-0.27,0.01,0.04,0.95,
2.294,-0.31,-0.24,-0.27,0.01,0.04,0.95,
2.295,-0.37,-0.22,-0.29,0.01,0.04,0.95,
2.297,-0.37,-0.22,-0.29,0.00,0.05,0.95,
2.299,-0.37,-0.22,-0.29,0.00,0.05,0.96,
2.3,-0.38,-0.18,-0.28,0.00,0.05,0.96,
2.302,-0.38,-0.18,-0.28,0.01,0.05,0.96,
2.304,-0.38,-0.18,-0.28,0.01,0.06,0.96,
2.305,-0.39,-0.09,-0.23,0.01,0.06,0.96,
2.307,-0.39,-0.09,-0.23,0.01,0.06,0.96,
2.309,-0.39,-0.09,-0.23,0.01,0.06,0.97,
2.31,-0.36,-0.03,-0.17,0.01,0.06,0.97,
2.312,-0.36,-0.03,-0.17,0.02,0.06,0.97,
2.314,-0.36,-0.03,-0.17,0.02,0.06,0.97,
2.314,-0.31,0.04,-0.11,0.02,0.06,0.97,
2.316,-0.31,0.04,-0.11,0.02,0.06,0.97,
2.319,-0.31,0.04,-0.11,0.03,0.06,0.98,
2.319,-0.27,0.07,-0.07,0.03,0.06,0.98,
2.321,-0.27,0.07,-0.07,0.03,0.06,0.98,
2.324,-0.27,0.07,-0.07,0.04,0.06,0.98,
2.325,-0.21,0.06,-0.03,0.04,0.06,0.98,
2.326,-0.21,0.06,-0.03,0.04,0.06,0.98,
2.329,-0.12,0.08,-0.00,0.04,0.06,0.98,
2.329,-0.12,0.08,-0.00,0.04,0.06,0.98,
2.331,-0.12,0.08,-0.00,0.05,0.06,0.99,
2.334,-0.12,0.08,-0.00,0.05,0.06,0.99,
2.334,-0.04,0.08,0.05,0.05,0.06,0.99,
2.336,-0.04,0.08,0.05,0.06,0.06,0.99,
2.339,-0.04,0.08,0.05,0.06,0.06,1.00,
2.341,0.04,0.05,0.10,0.06,0.06,1.00,
2.342,0.04,0.05,0.10,0.07,0.06,1.00,
2.344,0.04,0.05,0.10,0.07,0.06,1.00,
2.344,0.15,0.02,0.15,0.07,0.06,1.00,
2.346,0.15,0.02,0.15,0.08,0.06,1.00,
2.349,0.15,0.02,0.15,0.08,0.05,1.00,
2.349,0.24,0.01,0.19,0.08,0.05,1.00,
2.351,0.24,0.01,0.19,0.08,0.05,1.00,
2.353,0.24,0.01,0.19,0.09,0.04,1.00,
2.354,0.32,-0.02,0.20,0.09,0.04,1.00,
2.357,0.32,-0.02,0.20,0.08,0.05,1.00,
2.358,0.32,-0.02,0.20,0.08,0.05,1.00,
2.359,0.36,-0.09,0.18,0.08,0.05,1.00,
2.361,0.36,-0.09,0.18,0.08,0.05,1.00,
2.363,0.36,-0.09,0.18,0.08,0.05,1.00,
2.364,0.36,-0.09,0.17,0.08,0.05,1.00,
2.366,0.36,-0.09,0.17,0.08,0.06,1.00,
2.368,0.36,-0.09,0.17,0.08,0.06,1.00,
2.368,0.34,-0.05,0.20,0.08,0.06,1.00,
2.371,0.34,-0.05,0.20,0.08,0.06,1.00,
2.379,0.34,-0.05,0.20,0.07,0.07,1.01,
2.38,0.32,0.04,0.22,0.07,0.07,1.01,
2.38,0.32,0.04,0.22,0.07,0.07,1.01,
2.381,0.32,0.04,0.22,0.07,0.07,1.01,
2.381,0.29,0.12,0.25,0.07,0.07,1.01,
2.382,0.29,0.12,0.25,0.07,0.08,1.01,
2.383,0.29,0.12,0.25,0.07,0.08,1.01,
2.383,0.23,0.18,0.25,0.07,0.08,1.01,
2.385,0.23,0.18,0.25,0.07,0.08,1.01,
2.388,0.23,0.18,0.25,0.07,0.08,1.00,
2.388,0.22,0.22,0.25,0.07,0.08,1.00,
2.392,0.22,0.22,0.25,0.07,0.08,1.00,
2.393,0.22,0.22,0.25,0.07,0.08,1.00,
2.393,0.22,0.23,0.24,0.07,0.08,1.00,
2.395,0.22,0.23,0.24,0.07,0.08,1.00,
2.397,0.22,0.23,0.24,0.07,0.08,1.01,
2.397,0.24,0.24,0.23,0.07,0.08,1.01,
2.4,0.24,0.24,0.23,0.07,0.08,1.00,
2.402,0.24,0.24,0.23,0.07,0.07,1.00,
2.402,0.24,0.23,0.23,0.07,0.07,1.00,
2.405,0.24,0.23,0.23,0.07,0.07,1.00,
2.407,0.24,0.23,0.23,0.07,0.07,0.99,
2.407,0.25,0.21,0.19,0.07,0.07,0.99,
2.409,0.25,0.21,0.19,0.07,0.07,0.99,
2.412,0.25,0.21,0.19,0.07,0.07,0.99,
2.412,0.25,0.18,0.14,0.07,0.07,0.99,
2.414,0.25,0.18,0.14,0.07,0.06,0.98,
2.417,0.25,0.18,0.14,0.07,0.06,0.98,
2.417,0.27,0.14,0.07,0.07,0.06,0.98,
2.419,0.27,0.14,0.07,0.07,0.06,0.98,
2.423,0.27,0.14,0.07,0.07,0.06,0.98,
2.423,0.27,0.08,-0.01,0.07,0.06,0.98,
2.424,0.27,0.08,-0.01,0.07,0.06,0.98,
2.427,0.27,0.08,-0.01,0.07,0.06,0.97,
2.43,0.27,0.05,-0.04,0.07,0.06,0.97,
2.43,0.27,0.05,-0.04,0.07,0.06,0.98,
2.432,0.27,0.05,-0.04,0.07,0.06,0.98,
2.432,0.25,0.03,-0.06,0.07,0.06,0.98,
2.434,0.25,0.03,-0.06,0.07,0.06,0.98,
2.437,0.25,0.03,-0.06,0.06,0.06,0.98,
2.437,0.23,0.04,-0.05,0.06,0.06,0.98,
2.439,0.23,0.04,-0.05,0.06,0.06,0.98,
2.441,0.23,0.04,-0.05,0.06,0.06,0.98,
2.442,0.22,0.05,-0.04,0.06,0.06,0.98,
2.444,0.22,0.05,-0.04,0.06,0.06,0.98,
2.446,0.22,0.05,-0.04,0.06,0.07,0.98,
2.447,0.19,0.06,-0.05,0.06,0.07,0.98,
2.449,0.19,0.06,-0.05,0.06,0.07,0.98,
2.451,0.19,0.06,-0.05,0.07,0.07,0.98,
2.452,0.19,0.09,-0.04,0.07,0.07,0.98,
2.454,0.19,0.09,-0.04,0.07,0.07,0.98,
2.456,0.19,0.09,-0.04,0.07,0.07,0.98,
2.457,0.20,0.12,-0.03,0.07,0.07,0.98,
2.458,0.20,0.12,-0.03,0.08,0.07,0.98,
2.461,0.20,0.12,-0.03,0.08,0.07,0.98,
2.461,0.25,0.16,-0.01,0.08,0.07,0.98,
2.463,0.25,0.16,-0.01,0.08,0.07,0.98,
2.466,0.25,0.16,-0.01,0.08,0.08,0.98,
2.466,0.30,0.16,0.01,0.08,0.08,0.98,
2.468,0.30,0.16,0.01,0.08,0.08,0.98,
2.471,0.30,0.16,0.01,0.08,0.08,0.98,
2.471,0.32,0.17,0.02,0.08,0.08,0.98,
2.478,0.32,0.17,0.02,0.09,0.08,0.99,
2.479,0.32,0.17,0.02,0.09,0.07,0.99,
2.479,0.36,0.19,0.03,0.09,0.07,0.99,
2.48,0.36,0.19,0.03,0.09,0.07,0.98,
2.481,0.36,0.19,0.03,0.09,0.07,0.98,
2.481,0.37,0.16,0.04,0.09,0.07,0.98,
2.483,0.37,0.16,0.04,0.09,0.07,0.98,
2.486,0.40,0.13,0.02,0.09,0.07,0.98,
2.487,0.40,0.13,0.02,0.09,0.07,0.98,
2.488,0.40,0.13,0.02,0.09,0.06,0.98,
2.491,0.40,0.13,0.02,0.09,0.06,0.98,
2.492,0.41,0.09,-0.00,0.09,0.06,0.98,
2.493,0.41,0.09,-0.00,0.09,0.06,0.98,
2.495,0.41,0.09,-0.00,0.09,0.06,0.98,
2.495,0.43,0.04,0.00,0.09,0.06,0.98,
2.498,0.43,0.04,0.00,0.09,0.05,0.97,
2.5,0.43,0.04,0.00,0.09,0.05,0.97,
2.5,0.40,0.00,-0.04,0.09,0.05,0.97,
2.503,0.40,0.00,-0.04,0.09,0.04,0.97,
2.506,0.40,0.00,-0.04,0.08,0.04,0.97,
2.507,0.38,-0.08,-0.08,0.08,0.04,0.97,
2.508,0.38,-0.08,-0.08,0.08,0.04,0.96,
2.51,0.38,-0.08,-0.08,0.08,0.04,0.96,
2.51,0.34,-0.16,-0.13,0.08,0.04,0.96,
2.513,0.34,-0.16,-0.13,0.07,0.04,0.96,
2.515,0.34,-0.16,-0.13,0.07,0.03,0.96,
2.515,0.26,-0.21,-0.19,0.07,0.03,0.96,
2.517,0.26,-0.21,-0.19,0.06,0.03,0.96,
2.52,0.26,-0.21,-0.19,0.06,0.03,0.96,
2.52,0.17,-0.23,-0.23,0.06,0.03,0.96,
2.523,0.17,-0.23,-0.23,0.05,0.03,0.96,
2.525,0.17,-0.23,-0.23,0.05,0.04,0.96,
2.525,0.09,-0.25,-0.24,0.05,0.04,0.96,
2.527,0.09,-0.25,-0.24,0.04,0.04,0.96,
2.529,0.09,-0.25,-0.24,0.04,0.04,0.96,
2.53,-0.00,-0.23,-0.22,0.04,0.04,0.96,
2.532,-0.00,-0.23,-0.22,0.03,0.05,0.97,
2.534,-0.00,-0.23,-0.22,0.03,0.05,0.97,
2.534,-0.10,-0.18,-0.18,0.03,0.05,0.97,
2.537,-0.10,-0.18,-0.18,0.03,0.06,0.97,
2.54,-0.16,-0.10,-0.12,0.03,0.06,0.97,
2.541,-0.16,-0.10,-0.12,0.03,0.06,0.97,
2.542,-0.16,-0.10,-0.12,0.03,0.06,0.98,
2.544,-0.16,-0.10,-0.12,0.03,0.07,0.98,
2.545,-0.19,-0.02,-0.06,0.03,0.07,0.98,
2.547,-0.19,-0.02,-0.06,0.03,0.07,0.98,
2.549,-0.19,-0.02,-0.06,0.03,0.07,0.98,
2.549,-0.21,0.06,-0.02,0.03,0.07,0.98,
2.551,-0.21,0.06,-0.02,0.04,0.08,0.98,
2.554,-0.21,0.06,-0.02,0.04,0.08,0.99,
2.555,-0.18,0.14,0.02,0.04,0.08,0.99,
2.561,-0.18,0.14,0.02,0.04,0.08,0.99,
2.562,-0.18,0.14,0.02,0.05,0.08,0.99,
2.562,-0.11,0.17,0.06,0.05,0.08,0.99,
2.562,-0.11,0.17,0.06,0.05,0.07,0.99,
2.564,-0.11,0.17,0.06,0.06,0.07,0.99,
2.564,-0.03,0.18,0.09,0.06,0.07,0.99,
2.566,-0.03,0.18,0.09,0.07,0.07,0.99,
2.569,-0.03,0.18,0.09,0.07,0.06,0.99,
2.569,0.07,0.13,0.14,0.07,0.06,0.99,
2.571,0.07,0.13,0.14,0.07,0.06,0.99,
2.574,0.07,0.13,0.14,0.08,0.06,0.99,
2.574,0.17,0.07,0.13,0.08,0.06,0.99,
2.576,0.17,0.07,0.13,0.08,0.06,0.99,
2.578,0.17,0.07,0.13,0.08,0.05,0.99,
2.579,0.25,0.01,0.11,0.08,0.05,0.99,
2.581,0.25,0.01,0.11,0.09,0.05,0.99,
2.583,0.25,0.01,0.11,0.09,0.05,0.99,
2.583,0.32,-0.03,0.10,0.09,0.05,0.99,
2.586,0.32,-0.03,0.10,0.09,0.05,0.99,
2.59,0.32,-0.03,0.10,0.09,0.04,0.98,
2.59,0.34,-0.07,0.08,0.09,0.04,0.98,
2.592,0.34,-0.07,0.08,0.09,0.04,0.98,
2.593,0.34,-0.07,0.08,0.08,0.04,0.98,
2.594,0.33,-0.14,0.04,0.08,0.04,0.98,
2.596,0.33,-0.14,0.04,0.08,0.04,0.98,
2.599,0.33,-0.14,0.04,0.08,0.03,0.97,
2.599,0.31,-0.20,-0.01,0.08,0.03,0.97,
2.601,0.31,-0.20,-0.01,0.08,0.03,0.97,
2.603,0.31,-0.20,-0.01,0.07,0.04,0.97,
2.603,0.26,-0.25,-0.05,0.07,0.04,0.97,
2.605,0.26,-0.25,-0.05,0.07,0.04,0.96,
2.608,0.26,-0.25,-0.05,0.06,0.04,0.96,
2.608,0.19,-0.24,-0.11,0.06,0.04,0.96,
2.61,0.19,-0.24,-0.11,0.06,0.04,0.96,
2.613,0.19,-0.24,-0.11,0.06,0.04,0.96,
2.613,0.11,-0.23,-0.16,0.06,0.04,0.96,
2.615,0.11,-0.23,-0.16,0.05,0.04,0.96,
2.618,0.11,-0.23,-0.16,0.05,0.04,0.96,
2.618,0.04,-0.20,-0.19,0.05,0.04,0.96,
2.62,0.04,-0.20,-0.19,0.05,0.05,0.96,
2.623,0.04,-0.20,-0.19,0.04,0.05,0.96,
2.623,-0.03,-0.18,-0.21,0.04,0.05,0.96,
2.625,-0.03,-0.18,-0.21,0.04,0.05,0.96,
2.627,-0.03,-0.18,-0.21,0.03,0.05,0.96,
2.628,-0.10,-0.13,-0.21,0.03,0.05,0.96,
2.63,-0.10,-0.13,-0.21,0.03,0.05,0.96,
2.633,-0.10,-0.13,-0.21,0.03,0.05,0.96,
2.633,-0.18,-0.12,-0.20,0.03,0.05,0.96,
2.635,-0.18,-0.12,-0.20,0.03,0.05,0.96,
2.637,-0.18,-0.12,-0.20,0.02,0.05,0.96,
2.638,-0.24,-0.09,-0.20,0.02,0.05,0.96,
2.64,-0.24,-0.09,-0.20,0.03,0.05,0.96,
2.642,-0.24,-0.09,-0.20,0.02,0.05,0.96,
2.643,-0.28,-0.07,-0.18,0.02,0.05,0.96,
2.645,-0.28,-0.07,-0.18,0.02,0.05,0.96,
2.647,-0.28,-0.07,-0.18,0.03,0.05,0.96,
2.647,-0.29,-0.07,-0.18,0.03,0.05,0.96,
2.65,-0.29,-0.07,-0.18,0.03,0.05,0.96,
2.652,-0.29,-0.07,-0.18,0.03,0.05,0.96,
2.652,-0.29,-0.09,-0.17,0.03,0.05,0.96,
2.654,-0.29,-0.09,-0.17,0.03,0.04,0.97,
2.661,-0.29,-0.09,-0.17,0.03,0.04,0.97,
2.661,-0.24,-0.13,-0.15,0.03,0.04,0.97,
2.661,-0.24,-0.13,-0.15,0.04,0.04,0.97,
2.662,-0.24,-0.13,-0.15,0.04,0.04,0.97,
2.662,-0.21,-0.16,-0.12,0.04,0.04,0.97,
2.664,-0.21,-0.16,-0.12,0.04,0.04,0.97,
2.666,-0.21,-0.16,-0.12,0.05,0.04,0.97,
2.666,-0.15,-0.19,-0.12,0.05,0.04,0.97,
2.669,-0.15,-0.19,-0.12,0.05,0.04,0.97,
2.671,-0.15,-0.19,-0.12,0.05,0.04,0.97,
2.672,-0.10,-0.22,-0.11,0.05,0.04,0.97,
2.674,-0.10,-0.22,-0.11,0.05,0.04,0.97,
2.676,-0.10,-0.22,-0.11,0.05,0.04,0.97,
2.676,-0.07,-0.18,-0.07,0.05,0.04,0.97,
2.679,-0.07,-0.18,-0.07,0.05,0.05,0.98,
2.681,-0.07,-0.18,-0.07,0.05,0.05,0.98,
2.681,-0.06,-0.15,-0.04,0.05,0.05,0.98,
2.683,-0.06,-0.15,-0.04,0.06,0.06,0.98,
2.686,-0.06,-0.15,-0.04,0.06,0.06,0.98,
2.686,-0.04,-0.07,-0.01,0.06,0.06,0.98,
2.689,-0.04,-0.07,-0.01,0.06,0.06,0.98,
2.691,-0.04,-0.07,-0.01,0.06,0.06,0.99,
2.692,-0.00,-0.01,0.03,0.06,0.06,0.99,
2.693,-0.00,-0.01,0.03,0.06,0.06,0.99,
2.696,-0.00,-0.01,0.03,0.06,0.06,0.99,
2.696,0.02,0.02,0.08,0.06,0.06,0.99,
2.698,0.02,0.02,0.08,0.07,0.06,0.99,
2.701,0.02,0.02,0.08,0.07,0.06,0.98,
2.701,0.06,0.02,0.10,0.07,0.06,0.98,
2.703,0.06,0.02,0.10,0.07,0.05,0.98,
2.706,0.06,0.02,0.10,0.07,0.05,0.98,
2.707,0.09,-0.02,0.07,0.07,0.05,0.98,
2.708,0.09,-0.02,0.07,0.07,0.05,0.98,
2.711,0.08,-0.06,0.06,0.07,0.05,0.98,
2.712,0.08,-0.06,0.06,0.07,0.05,0.98,
2.713,0.08,-0.06,0.06,0.07,0.05,0.98,
2.715,0.08,-0.06,0.06,0.07,0.05,0.98,
2.716,0.09,-0.10,0.06,0.07,0.05,0.98,
2.718,0.09,-0.10,0.06,0.07,0.05,0.98,
2.72,0.09,-0.10,0.06,0.07,0.05,0.98,
2.721,0.07,-0.09,0.06,0.07,0.05,0.98,
2.723,0.07,-0.09,0.06,0.06,0.05,0.98,
2.726,0.07,-0.09,0.06,0.06,0.05,0.98,
2.726,0.07,-0.09,0.06,0.06,0.05,0.98,
2.728,0.07,-0.09,0.06,0.06,0.05,0.99,
2.73,0.07,-0.09,0.06,0.06,0.05,0.99,
2.731,0.05,-0.07,0.06,0.06,0.05,0.99,
2.733,0.05,-0.07,0.06,0.06,0.05,0.99,
2.735,0.05,-0.07,0.06,0.06,0.05,0.99,
2.735,0.04,-0.07,0.07,0.06,0.05,0.99,
2.739,0.04,-0.07,0.07,0.06,0.06,0.99,
2.74,0.04,-0.07,0.07,0.06,0.06,0.99,
2.741,0.02,-0.06,0.08,0.06,0.06,0.99,
2.743,0.02,-0.06,0.08,0.06,0.05,0.99,
2.745,0.02,-0.06,0.08,0.06,0.05,0.99,
2.745,-0.02,-0.04,0.09,0.06,0.05,0.99,
2.747,-0.02,-0.04,0.09,0.06,0.05,0.99,
2.75,-0.02,-0.04,0.09,0.06,0.05,0.99,
2.75,-0.00,-0.06,0.11,0.06,0.05,0.99,
2.752,-0.00,-0.06,0.11,0.06,0.05,0.99,
2.756,-0.00,-0.06,0.11,0.06,0.05,0.98,
2.757,-0.02,-0.08,0.11,0.06,0.05,0.98,
2.757,-0.02,-0.08,0.11,0.06,0.05,0.98,
2.76,-0.02,-0.08,0.11,0.06,0.05,0.98,
2.761,-0.01,-0.12,0.07,0.06,0.05,0.98,
2.762,-0.01,-0.12,0.07,0.06,0.04,0.98,
2.765,-0.01,-0.12,0.07,0.06,0.05,0.98,
2.765,-0.01,-0.13,0.04,0.06,0.05,0.98,
2.767,-0.01,-0.13,0.04,0.06,0.05,0.98,
2.77,0.02,-0.15,-0.00,0.06,0.05,0.98,
2.77,0.02,-0.15,-0.00,0.06,0.05,0.97,
2.778,0.02,-0.15,-0.00,0.05,0.05,0.97,
2.778,0.02,-0.15,-0.00,0.05,0.05,0.97,
2.779,-0.00,-0.13,-0.04,0.05,0.05,0.97,
2.779,-0.00,-0.13,-0.04,0.05,0.06,0.97,
2.779,-0.00,-0.13,-0.04,0.05,0.06,0.97,
2.779,-0.03,-0.08,-0.05,0.05,0.06,0.97,
2.782,-0.03,-0.08,-0.05,0.05,0.06,0.97,
2.784,-0.03,-0.08,-0.05,0.05,0.06,0.97,
2.785,-0.05,-0.00,-0.07,0.05,0.06,0.97,
2.787,-0.05,-0.00,-0.07,0.05,0.07,0.97,
2.793,-0.05,-0.00,-0.07,0.05,0.07,0.97,
2.794,-0.07,0.03,-0.09,0.05,0.07,0.97,
2.794,-0.07,0.03,-0.09,0.06,0.07,0.96,
2.794,-0.07,0.03,-0.09,0.06,0.07,0.96,
2.794,-0.03,0.07,-0.12,0.06,0.07,0.96,
2.796,-0.03,0.07,-0.12,0.06,0.07,0.96,
2.799,-0.03,0.07,-0.12,0.06,0.07,0.97,
2.799,0.00,0.08,-0.13,0.06,0.07,0.97,
2.801,0.00,0.08,-0.13,0.06,0.07,0.97,
2.804,0.00,0.08,-0.13,0.06,0.07,0.97,
2.804,0.02,0.08,-0.13,0.06,0.07,0.97,
2.806,0.02,0.08,-0.13,0.06,0.07,0.97,
2.809,0.02,0.07,-0.12,0.06,0.07,0.97,
2.809,0.02,0.07,-0.12,0.06,0.07,0.97,
2.811,0.02,0.07,-0.12,0.06,0.07,0.97,
2.814,0.02,0.07,-0.12,0.05,0.07,0.97,
2.814,0.02,0.09,-0.09,0.05,0.07,0.97,
2.816,0.02,0.09,-0.09,0.05,0.07,0.98,
2.818,0.02,0.09,-0.09,0.05,0.07,0.98,
2.818,-0.02,0.10,-0.06,0.05,0.07,0.98,
2.822,-0.02,0.10,-0.06,0.05,0.07,0.98,
2.824,-0.02,0.10,-0.06,0.05,0.07,0.99,
2.824,-0.06,0.08,0.01,0.05,0.07,0.99,
2.826,-0.06,0.08,0.01,0.05,0.07,0.99,
2.828,-0.08,0.07,0.07,0.05,0.07,0.99,
2.829,-0.08,0.07,0.07,0.05,0.06,0.99,
2.83,-0.08,0.07,0.07,0.05,0.06,0.99,
2.833,-0.08,0.07,0.07,0.05,0.05,0.99,
2.833,-0.08,0.03,0.10,0.05,0.05,0.99,
2.835,-0.08,0.03,0.10,0.05,0.05,0.99,
2.839,-0.08,0.03,0.10,0.05,0.05,0.99,
2.84,-0.09,-0.05,0.11,0.05,0.05,0.99,
2.841,-0.09,-0.05,0.11,0.05,0.05,0.99,
2.843,-0.09,-0.05,0.11,0.05,0.04,0.99,
2.843,-0.07,-0.12,0.11,0.05,0.04,0.99,
2.846,-0.07,-0.12,0.11,0.05,0.04,0.99,
2.848,-0.07,-0.12,0.11,0.05,0.04,0.98,
2.848,-0.09,-0.16,0.08,0.05,0.04,0.98,
2.85,-0.09,-0.16,0.08,0.05,0.04,0.98,
2.853,-0.09,-0.16,0.08,0.05,0.04,0.99,
2.853,-0.07,-0.21,0.07,0.05,0.04,0.99,
2.855,-0.07,-0.21,0.07,0.05,0.04,0.98,
2.858,-0.07,-0.21,0.07,0.05,0.04,0.98,
2.858,-0.08,-0.21,0.07,0.05,0.04,0.98,
2.86,-0.08,-0.21,0.07,0.05,0.05,0.98,
2.863,-0.08,-0.21,0.07,0.05,0.05,0.98,
2.863,-0.08,-0.18,0.06,0.05,0.05,0.98,
2.865,-0.08,-0.18,0.06,0.04,0.05,0.94,
2.867,-0.08,-0.18,0.06,0.04,0.06,0.90,
2.868,-0.09,-0.12,0.02,0.04,0.06,0.90,
2.87,-0.09,-0.12,0.02,0.04,0.07,0.89,
2.877,-0.09,-0.12,0.02,0.05,0.07,0.92,
2.878,-0.16,-0.02,-0.60,0.05,0.07,0.92,
2.878,-0.16,-0.02,-0.60,0.06,0.08,0.95,
2.878,-0.16,-0.02,-0.60,0.06,0.07,0.97,
2.879,-0.09,0.11,-0.68,0.06,0.07,0.97,
2.88,-0.09,0.11,-0.68,0.06,0.08,0.97,
2.882,-0.09,0.11,-0.68,0.06,0.08,0.98,
2.883,0.05,0.17,-0.19,0.06,0.08,0.98,
2.884,0.05,0.17,-0.19,0.07,0.08,0.98,
2.887,0.05,0.17,-0.19,0.07,0.08,0.99,
2.887,0.08,0.19,-0.03,0.07,0.08,0.99,
2.892,0.08,0.19,-0.03,0.08,0.08,1.00,
2.892,0.08,0.19,-0.03,0.08,0.08,1.01,
2.892,0.13,0.23,0.08,0.08,0.08,1.01,
2.894,0.13,0.23,0.08,0.09,0.08,1.02,
2.897,0.13,0.23,0.08,0.09,0.07,1.01,
2.898,0.24,0.25,0.27,0.09,0.07,1.01,
2.899,0.24,0.25,0.27,0.09,0.07,1.01,
2.902,0.24,0.25,0.27,0.10,0.07,1.02,
2.902,0.31,0.20,0.36,0.10,0.07,1.02,
2.905,0.31,0.20,0.36,0.10,0.06,1.02,
2.907,0.31,0.20,0.36,0.10,0.06,1.02,
2.907,0.35,0.11,0.35,0.10,0.06,1.02,
2.909,0.35,0.11,0.35,0.11,0.06,1.02,
2.911,0.35,0.11,0.35,0.10,0.05,1.02,
2.912,0.42,0.05,0.40,0.10,0.05,1.02,
2.914,0.42,0.05,0.40,0.10,0.05,1.02,
2.916,0.42,0.05,0.40,0.10,0.05,1.02,
2.917,0.43,-0.01,0.43,0.10,0.05,1.02,
2.919,0.43,-0.01,0.43,0.10,0.05,1.02,
2.921,0.43,-0.01,0.43,0.09,0.05,1.02,
2.922,0.40,-0.05,0.42,0.09,0.05,1.02,
