
time,ax,ay,az,gFx,gFy,gFz,
0.002,0.06,-0.21,0.37,0.08,0.06,1.00,
0.002,0.06,-0.21,0.37,0.08,0.06,1.00,
0.002,-0.01,-0.23,0.30,0.08,0.06,1.00,
0.002,-0.01,-0.23,0.30,0.07,0.06,0.99,
0.004,-0.01,-0.23,0.30,0.07,0.06,0.99,
0.004,-0.07,-0.24,0.22,0.07,0.06,0.99,
0.006,-0.07,-0.24,0.22,0.07,0.06,0.98,
0.009,-0.12,-0.23,0.15,0.07,0.06,0.98,
0.009,-0.12,-0.23,0.15,0.07,0.07,0.98,
0.011,-0.12,-0.23,0.15,0.06,0.07,0.98,
0.014,-0.12,-0.23,0.15,0.06,0.07,0.97,
0.014,-0.17,-0.21,0.06,0.06,0.07,0.97,
0.016,-0.17,-0.21,0.06,0.06,0.07,0.97,
0.018,-0.17,-0.21,0.06,0.06,0.08,0.97,
0.019,-0.19,-0.17,-0.01,0.06,0.08,0.97,
0.02,-0.19,-0.17,-0.01,0.06,0.08,0.96,
0.023,-0.19,-0.17,-0.01,0.06,0.08,0.96,
0.023,-0.20,-0.10,-0.07,0.06,0.08,0.96,
0.025,-0.20,-0.10,-0.07,0.06,0.08,0.96,
0.028,-0.20,-0.10,-0.07,0.07,0.09,0.95,
0.028,-0.21,-0.06,-0.13,0.07,0.09,0.95,
0.03,-0.21,-0.06,-0.13,0.07,0.09,0.95,
0.033,-0.21,-0.06,-0.13,0.07,0.09,0.95,
0.033,-0.18,-0.02,-0.19,0.07,0.09,0.95,
0.035,-0.18,-0.02,-0.19,0.07,0.10,0.95,
0.038,-0.18,-0.02,-0.19,0.08,0.10,0.95,
0.038,-0.12,0.02,-0.21,0.08,0.10,0.95,
0.04,-0.12,0.02,-0.21,0.08,0.10,0.95,
0.042,-0.12,0.02,-0.21,0.08,0.10,0.95,
0.043,-0.08,0.07,-0.21,0.08,0.10,0.95,
0.049,-0.08,0.07,-0.21,0.08,0.10,0.95,
0.049,-0.08,0.07,-0.21,0.08,0.11,0.95,
0.049,-0.04,0.13,-0.21,0.08,0.11,0.95,
0.05,-0.04,0.13,-0.21,0.09,0.11,0.95,
0.053,-0.04,0.13,-0.21,0.09,0.11,0.95,
0.053,-0.03,0.15,-0.21,0.09,0.11,0.95,
0.055,-0.03,0.15,-0.21,0.09,0.11,0.96,
0.057,-0.03,0.15,-0.21,0.09,0.11,0.96,
0.057,0.03,0.18,-0.19,0.09,0.11,0.96,
0.059,0.03,0.18,-0.19,0.10,0.10,0.96,
0.062,0.03,0.18,-0.19,0.10,0.10,0.96,
0.062,0.07,0.16,-0.17,0.10,0.10,0.96,
0.064,0.07,0.16,-0.17,0.10,0.10,0.96,
0.067,0.07,0.16,-0.17,0.10,0.10,0.96,
0.067,0.12,0.13,-0.14,0.10,0.10,0.96,
0.069,0.12,0.13,-0.14,0.10,0.10,0.96,
0.072,0.12,0.13,-0.14,0.10,0.10,0.97,
0.072,0.12,0.12,-0.11,0.10,0.10,0.97,
0.074,0.12,0.12,-0.11,0.10,0.10,0.97,
0.077,0.12,0.12,-0.11,0.10,0.10,0.97,
0.078,0.15,0.11,-0.08,0.10,0.10,0.97,
0.079,0.15,0.11,-0.08,0.10,0.10,0.97,
0.082,0.15,0.11,-0.08,0.10,0.10,0.97,
0.082,0.12,0.12,-0.04,0.10,0.10,0.97,
0.084,0.12,0.12,-0.04,0.10,0.10,0.97,
0.087,0.12,0.12,-0.04,0.10,0.10,0.97,
0.087,0.11,0.12,-0.03,0.10,0.10,0.97,
0.089,0.11,0.12,-0.03,0.10,0.10,0.98,
0.091,0.11,0.12,-0.03,0.10,0.10,0.98,
0.092,0.11,0.10,-0.01,0.10,0.10,0.98,
0.094,0.11,0.10,-0.01,0.09,0.10,0.98,
0.096,0.11,0.10,-0.01,0.09,0.10,0.98,
0.097,0.12,0.09,0.02,0.09,0.10,0.98,
0.099,0.12,0.09,0.02,0.09,0.10,0.98,
0.102,0.12,0.09,0.02,0.09,0.10,0.98,
0.102,0.09,0.10,0.07,0.09,0.10,0.98,
0.104,0.09,0.10,0.07,0.09,0.10,0.98,
0.106,0.09,0.10,0.07,0.09,0.10,0.98,
0.107,0.07,0.08,0.09,0.09,0.10,0.98,
0.109,0.07,0.08,0.09,0.09,0.09,0.98,
0.111,0.07,0.08,0.09,0.09,0.09,0.98,
0.111,0.05,0.09,0.10,0.09,0.09,0.98,
0.113,0.05,0.09,0.10,0.09,0.09,0.99,
0.116,0.05,0.09,0.10,0.09,0.09,0.99,
0.116,0.03,0.05,0.10,0.09,0.09,0.99,
0.118,0.03,0.05,0.10,0.09,0.09,0.99,
0.121,0.03,0.05,0.10,0.09,0.09,0.98,
0.121,0.03,0.04,0.12,0.09,0.09,0.98,
0.123,0.03,0.04,0.12,0.09,0.09,0.98,
0.126,0.03,0.04,0.12,0.09,0.09,0.98,
0.126,0.03,0.01,0.10,0.09,0.09,0.98,
0.128,0.03,0.01,0.10,0.09,0.08,0.98,
0.131,0.03,0.01,0.10,0.09,0.08,0.98,
0.131,0.03,-0.01,0.10,0.09,0.08,0.98,
0.133,0.03,-0.01,0.10,0.09,0.08,0.98,
0.136,0.03,-0.01,0.10,0.08,0.08,0.98,
0.136,0.00,-0.04,0.09,0.08,0.08,0.98,
0.138,0.00,-0.04,0.09,0.08,0.08,0.98,
0.14,0.00,-0.04,0.09,0.08,0.08,0.98,
0.141,0.00,-0.04,0.05,0.08,0.08,0.98,
0.143,0.00,-0.04,0.05,0.08,0.08,0.98,
0.145,0.00,-0.04,0.05,0.08,0.08,0.98,
0.146,-0.02,-0.05,0.04,0.08,0.08,0.98,
0.148,-0.02,-0.05,0.04,0.08,0.08,0.98,
0.15,-0.02,-0.05,0.04,0.08,0.08,0.98,
0.15,-0.03,-0.06,0.05,0.08,0.08,0.98,
0.153,-0.03,-0.06,0.05,0.08,0.08,0.98,
0.155,-0.03,-0.06,0.05,0.08,0.08,0.98,
0.156,-0.05,-0.06,0.05,0.08,0.08,0.98,
0.158,-0.05,-0.06,0.05,0.08,0.08,0.98,
0.16,-0.05,-0.06,0.05,0.08,0.08,0.98,
0.16,-0.06,-0.06,0.05,0.08,0.08,0.98,
0.165,-0.06,-0.06,0.05,0.08,0.08,0.98,
0.165,-0.06,-0.06,0.05,0.08,0.08,0.98,
0.165,-0.03,-0.07,0.06,0.08,0.08,0.98,
0.167,-0.03,-0.07,0.06,0.08,0.08,0.98,
0.17,-0.03,-0.07,0.06,0.08,0.08,0.98,
0.17,-0.01,-0.08,0.07,0.08,0.08,0.98,
0.173,-0.01,-0.08,0.07,0.09,0.08,0.98,
0.175,-0.01,-0.08,0.07,0.09,0.08,0.98,
0.175,-0.01,-0.07,0.06,0.09,0.08,0.98,
0.177,-0.01,-0.07,0.06,0.09,0.07,0.98,
0.18,-0.01,-0.07,0.06,0.09,0.08,0.98,
0.18,0.01,-0.08,0.06,0.09,0.08,0.98,
0.182,0.01,-0.08,0.06,0.09,0.08,0.98,
0.185,0.01,-0.08,0.06,0.09,0.08,0.98,
0.185,0.01,-0.10,0.04,0.09,0.08,0.98,
0.187,0.01,-0.10,0.04,0.09,0.08,0.98,
0.19,0.01,-0.10,0.04,0.09,0.08,0.98,
0.19,0.03,-0.08,0.05,0.09,0.08,0.98,
0.192,0.03,-0.08,0.05,0.09,0.08,0.98,
0.196,0.04,-0.09,0.05,0.09,0.08,0.98,
0.196,0.04,-0.09,0.05,0.09,0.08,0.98,
0.197,0.04,-0.09,0.05,0.08,0.08,0.98,
0.2,0.04,-0.09,0.05,0.08,0.08,0.98,
0.2,0.03,-0.08,0.04,0.08,0.08,0.98,
0.202,0.03,-0.08,0.04,0.08,0.08,0.98,
0.204,0.03,-0.08,0.04,0.08,0.08,0.98,
0.204,-0.02,-0.07,0.04,0.08,0.08,0.98,
0.207,-0.02,-0.07,0.04,0.08,0.08,0.98,
0.209,-0.02,-0.07,0.04,0.08,0.08,0.98,
0.209,-0.04,-0.03,0.03,0.08,0.08,0.98,
0.212,-0.04,-0.03,0.03,0.08,0.09,0.98,
0.215,-0.04,-0.03,0.03,0.08,0.09,0.98,
0.215,-0.05,-0.03,0.02,0.08,0.09,0.98,
0.217,-0.05,-0.03,0.02,0.08,0.09,0.97,
0.219,-0.05,-0.03,0.02,0.08,0.08,0.97,
0.219,-0.04,-0.01,0.02,0.08,0.08,0.97,
0.221,-0.04,-0.01,0.02,0.09,0.08,0.97,
0.224,-0.04,-0.01,0.02,0.09,0.08,0.97,
0.224,-0.02,-0.02,-0.01,0.09,0.08,0.97,
0.226,-0.02,-0.02,-0.01,0.09,0.08,0.97,
0.229,-0.02,-0.02,-0.01,0.10,0.08,0.97,
0.229,0.02,-0.04,-0.02,0.10,0.08,0.97,
0.231,0.02,-0.04,-0.02,0.10,0.08,0.97,
0.234,0.02,-0.04,-0.02,0.10,0.08,0.97,
0.234,0.10,-0.06,-0.05,0.10,0.08,0.97,
0.236,0.10,-0.06,-0.05,0.11,0.08,0.97,
0.239,0.10,-0.06,-0.05,0.11,0.07,0.97,
0.239,0.15,-0.10,-0.09,0.11,0.07,0.97,
0.241,0.15,-0.10,-0.09,0.11,0.07,0.97,
0.243,0.15,-0.10,-0.09,0.11,0.07,0.97,
0.244,0.22,-0.12,-0.08,0.11,0.07,0.97,
0.248,0.22,-0.12,-0.08,0.12,0.07,0.97,
0.248,0.22,-0.12,-0.08,0.12,0.07,0.97,
0.249,0.25,-0.13,-0.07,0.12,0.07,0.97,
0.251,0.25,-0.13,-0.07,0.12,0.07,0.97,
0.253,0.25,-0.13,-0.07,0.12,0.08,0.97,
0.253,0.29,-0.13,-0.07,0.12,0.08,0.97,
0.256,0.29,-0.13,-0.07,0.12,0.08,0.97,
0.258,0.29,-0.13,-0.07,0.12,0.08,0.97,
0.258,0.30,-0.10,-0.06,0.12,0.08,0.97,
0.26,0.30,-0.10,-0.06,0.12,0.08,0.97,
0.264,0.30,-0.10,-0.06,0.12,0.08,0.97,
0.264,0.30,-0.09,-0.06,0.12,0.08,0.97,
0.265,0.30,-0.09,-0.06,0.12,0.08,0.97,
0.268,0.30,-0.09,-0.06,0.12,0.08,0.97,
0.268,0.30,-0.09,-0.06,0.12,0.08,0.97,
0.27,0.30,-0.09,-0.06,0.12,0.08,0.97,
0.273,0.30,-0.09,-0.06,0.12,0.08,0.97,
0.273,0.29,-0.09,-0.08,0.12,0.08,0.97,
0.275,0.29,-0.09,-0.08,0.12,0.08,0.96,
0.278,0.29,-0.09,-0.08,0.12,0.08,0.96,
0.278,0.29,-0.08,-0.08,0.12,0.08,0.96,
0.28,0.29,-0.08,-0.08,0.12,0.08,0.96,
0.283,0.29,-0.08,-0.08,0.12,0.07,0.96,
0.283,0.29,-0.07,-0.10,0.12,0.07,0.96,
0.285,0.29,-0.07,-0.10,0.12,0.07,0.95,
0.287,0.29,-0.07,-0.10,0.12,0.07,0.95,
0.288,0.31,-0.10,-0.14,0.12,0.07,0.95,
0.29,0.31,-0.10,-0.14,0.12,0.07,0.95,
0.292,0.31,-0.10,-0.14,0.12,0.07,0.95,
0.293,0.36,-0.12,-0.20,0.12,0.07,0.95,
0.295,0.36,-0.12,-0.20,0.12,0.07,0.94,
0.297,0.36,-0.12,-0.20,0.12,0.07,0.94,
0.298,0.36,-0.16,-0.26,0.12,0.07,0.94,
0.3,0.36,-0.16,-0.26,0.12,0.07,0.94,
0.302,0.36,-0.16,-0.26,0.12,0.07,0.94,
0.302,0.36,-0.18,-0.30,0.12,0.07,0.94,
0.305,0.36,-0.18,-0.30,0.12,0.06,0.94,
0.307,0.36,-0.18,-0.30,0.12,0.06,0.94,
0.307,0.34,-0.21,-0.34,0.12,0.06,0.94,
0.31,0.34,-0.21,-0.34,0.12,0.07,0.93,
0.312,0.34,-0.21,-0.34,0.12,0.06,0.93,
0.312,0.34,-0.22,-0.36,0.12,0.06,0.93,
0.314,0.34,-0.22,-0.36,0.12,0.06,0.93,
0.317,0.34,-0.22,-0.36,0.12,0.06,0.93,
0.317,0.33,-0.23,-0.39,0.12,0.06,0.93,
0.319,0.33,-0.23,-0.39,0.12,0.06,0.93,
0.322,0.33,-0.23,-0.39,0.12,0.06,0.93,
0.322,0.31,-0.23,-0.40,0.12,0.06,0.93,
0.324,0.31,-0.23,-0.40,0.12,0.06,0.93,
0.327,0.31,-0.23,-0.40,0.12,0.06,0.93,
0.327,0.30,-0.25,-0.40,0.12,0.06,0.93,
0.329,0.30,-0.25,-0.40,0.12,0.06,0.93,
0.332,0.30,-0.25,-0.40,0.12,0.06,0.94,
0.332,0.29,-0.26,-0.40,0.12,0.06,0.94,
0.334,0.29,-0.26,-0.40,0.12,0.06,0.94,
0.337,0.29,-0.26,-0.40,0.13,0.06,0.94,
0.337,0.31,-0.27,-0.35,0.13,0.06,0.94,
0.339,0.31,-0.27,-0.35,0.13,0.06,0.95,
0.341,0.31,-0.27,-0.35,0.13,0.06,0.95,
0.341,0.33,-0.28,-0.29,0.13,0.06,0.95,
0.344,0.33,-0.28,-0.29,0.13,0.06,0.95,
0.353,0.33,-0.28,-0.29,0.14,0.06,0.96,
0.353,0.37,-0.28,-0.21,0.14,0.06,0.96,
0.353,0.37,-0.28,-0.21,0.14,0.06,0.96,
0.353,0.37,-0.28,-0.21,0.14,0.06,0.96,
0.353,0.41,-0.27,-0.15,0.14,0.06,0.96,
0.354,0.41,-0.27,-0.15,0.14,0.06,0.96,
0.356,0.41,-0.27,-0.15,0.15,0.05,0.96,
0.356,0.44,-0.28,-0.12,0.15,0.05,0.96,
0.358,0.44,-0.28,-0.12,0.15,0.05,0.96,
0.361,0.44,-0.28,-0.12,0.16,0.05,0.96,
0.362,0.50,-0.31,-0.10,0.16,0.05,0.96,
0.363,0.50,-0.31,-0.10,0.16,0.05,0.96,
0.366,0.50,-0.31,-0.10,0.16,0.05,0.96,
0.366,0.55,-0.35,-0.08,0.16,0.05,0.96,
0.368,0.55,-0.35,-0.08,0.16,0.05,0.96,
0.371,0.55,-0.35,-0.08,0.16,0.05,0.96,
0.371,0.58,-0.36,-0.06,0.16,0.05,0.96,
0.373,0.58,-0.36,-0.06,0.16,0.05,0.96,
0.375,0.58,-0.36,-0.06,0.16,0.05,0.97,
0.376,0.58,-0.34,-0.06,0.16,0.05,0.97,
0.378,0.58,-0.34,-0.06,0.16,0.05,0.96,
0.381,0.58,-0.34,-0.06,0.16,0.05,0.96,
0.381,0.58,-0.32,-0.04,0.16,0.05,0.96,
0.383,0.58,-0.32,-0.04,0.16,0.05,0.96,
0.385,0.58,-0.32,-0.04,0.16,0.06,0.96,
0.386,0.56,-0.31,-0.07,0.16,0.06,0.96,
0.388,0.56,-0.31,-0.07,0.16,0.05,0.96,
0.39,0.56,-0.31,-0.07,0.16,0.06,0.96,
0.391,0.58,-0.28,-0.07,0.16,0.06,0.96,
0.393,0.58,-0.28,-0.07,0.17,0.06,0.97,
0.396,0.58,-0.28,-0.07,0.17,0.06,0.97,
0.396,0.61,-0.28,-0.06,0.17,0.06,0.97,
0.398,0.61,-0.28,-0.06,0.17,0.05,0.97,
0.4,0.61,-0.28,-0.06,0.18,0.05,0.97,
0.4,0.65,-0.27,-0.03,0.18,0.05,0.97,
0.402,0.65,-0.27,-0.03,0.18,0.05,0.96,
0.405,0.65,-0.27,-0.03,0.18,0.05,0.97,
0.405,0.71,-0.30,-0.03,0.18,0.05,0.97,
0.407,0.71,-0.30,-0.03,0.18,0.05,0.96,
0.41,0.71,-0.30,-0.03,0.18,0.05,0.96,
0.41,0.73,-0.30,-0.04,0.18,0.05,0.96,
0.413,0.73,-0.30,-0.04,0.18,0.05,0.96,
0.415,0.73,-0.30,-0.04,0.18,0.05,0.96,
0.415,0.75,-0.31,-0.05,0.18,0.05,0.96,
0.417,0.75,-0.31,-0.05,0.18,0.05,0.96,
0.42,0.75,-0.31,-0.05,0.18,0.05,0.96,
0.42,0.74,-0.35,-0.05,0.18,0.05,0.96,
0.422,0.74,-0.35,-0.05,0.18,0.05,0.96,
0.425,0.74,-0.35,-0.05,0.18,0.05,0.96,
0.426,0.73,-0.34,-0.06,0.18,0.05,0.96,
0.427,0.73,-0.34,-0.06,0.17,0.05,0.96,
0.43,0.73,-0.34,-0.06,0.17,0.05,0.96,
0.43,0.67,-0.35,-0.07,0.17,0.05,0.96,
0.432,0.67,-0.35,-0.07,0.17,0.05,0.96,
0.434,0.67,-0.35,-0.07,0.17,0.04,0.96,
0.435,0.63,-0.36,-0.07,0.17,0.04,0.96,
0.437,0.63,-0.36,-0.07,0.16,0.04,0.96,
0.439,0.63,-0.36,-0.07,0.15,0.04,0.96,
0.439,0.57,-0.38,-0.08,0.15,0.04,0.96,
0.442,0.57,-0.38,-0.08,0.14,0.05,0.96,
0.448,0.57,-0.38,-0.08,0.14,0.05,0.96,
0.448,0.44,-0.39,-0.10,0.14,0.05,0.96,
0.448,0.44,-0.39,-0.10,0.13,0.05,0.95,
0.449,0.44,-0.39,-0.10,0.12,0.06,0.95,
0.449,0.29,-0.34,-0.12,0.12,0.06,0.95,
0.451,0.29,-0.34,-0.12,0.12,0.06,0.95,
0.454,0.29,-0.34,-0.12,0.11,0.06,0.95,
0.454,0.13,-0.28,-0.14,0.11,0.06,0.95,
0.457,0.13,-0.28,-0.14,0.11,0.06,0.95,
0.459,0.13,-0.28,-0.14,0.11,0.06,0.95,
0.459,0.03,-0.26,-0.15,0.11,0.06,0.95,
0.461,0.03,-0.26,-0.15,0.11,0.06,0.95,
0.464,0.03,-0.26,-0.15,0.11,0.06,0.95,
0.464,-0.04,-0.26,-0.14,0.11,0.06,0.95,
0.466,-0.04,-0.26,-0.14,0.11,0.06,0.95,
0.469,-0.04,-0.26,-0.14,0.11,0.06,0.95,
0.469,-0.06,-0.25,-0.16,0.11,0.06,0.95,
0.471,-0.06,-0.25,-0.16,0.11,0.06,0.95,
0.474,-0.06,-0.25,-0.16,0.11,0.06,0.95,
0.474,-0.07,-0.28,-0.17,0.11,0.06,0.95,
0.476,-0.07,-0.28,-0.17,0.12,0.06,0.95,
0.478,-0.07,-0.28,-0.17,0.12,0.06,0.94,
0.479,-0.03,-0.28,-0.19,0.12,0.06,0.94,
0.481,-0.03,-0.28,-0.19,0.13,0.05,0.94,
0.484,-0.03,-0.28,-0.19,0.14,0.05,0.94,
0.484,0.04,-0.31,-0.21,0.14,0.05,0.94,
0.486,0.04,-0.31,-0.21,0.14,0.05,0.94,
0.488,0.04,-0.31,-0.21,0.15,0.05,0.94,
0.488,0.15,-0.32,-0.24,0.15,0.05,0.94,
0.491,0.15,-0.32,-0.24,0.16,0.05,0.94,
0.493,0.15,-0.32,-0.24,0.16,0.05,0.94,
0.493,0.28,-0.33,-0.25,0.16,0.05,0.94,
0.496,0.28,-0.33,-0.25,0.17,0.06,0.94,
0.498,0.28,-0.33,-0.25,0.17,0.06,0.94,
0.498,0.39,-0.34,-0.22,0.17,0.06,0.94,
0.5,0.39,-0.34,-0.22,0.18,0.06,0.94,
0.503,0.39,-0.34,-0.22,0.18,0.07,0.94,
0.503,0.48,-0.30,-0.20,0.18,0.07,0.94,
0.505,0.48,-0.30,-0.20,0.18,0.07,0.94,
0.508,0.48,-0.30,-0.20,0.18,0.07,0.94,
0.508,0.54,-0.25,-0.19,0.18,0.07,0.94,
0.511,0.54,-0.25,-0.19,0.18,0.08,0.94,
0.513,0.54,-0.25,-0.19,0.18,0.08,0.94,
0.513,0.55,-0.18,-0.19,0.18,0.08,0.94,
0.515,0.55,-0.18,-0.19,0.18,0.09,0.94,
0.518,0.55,-0.18,-0.19,0.17,0.10,0.94,
0.518,0.54,-0.09,-0.21,0.17,0.10,0.94,
0.52,0.54,-0.09,-0.21,0.17,0.10,0.94,
0.522,0.54,-0.09,-0.21,0.16,0.11,0.94,
0.523,0.46,0.01,-0.21,0.16,0.11,0.94,
0.525,0.46,0.01,-0.21,0.16,0.11,0.95,
0.527,0.46,0.01,-0.21,0.16,0.12,0.95,
0.528,0.36,0.13,-0.20,0.16,0.12,0.95,
0.531,0.36,0.13,-0.20,0.16,0.12,0.95,
0.533,0.36,0.13,-0.20,0.15,0.12,0.95,
0.534,0.27,0.23,-0.16,0.15,0.12,0.95,
0.535,0.27,0.23,-0.16,0.15,0.12,0.95,
0.537,0.27,0.23,-0.16,0.15,0.12,0.95,
0.538,0.20,0.27,-0.14,0.15,0.12,0.95,
0.54,0.20,0.27,-0.14,0.15,0.12,0.95,
0.542,0.20,0.27,-0.14,0.15,0.12,0.95,
0.543,0.15,0.28,-0.13,0.15,0.12,0.95,
0.545,0.15,0.28,-0.13,0.15,0.12,0.95,
0.547,0.15,0.28,-0.13,0.14,0.12,0.95,
0.548,0.12,0.24,-0.13,0.14,0.12,0.95,
0.55,0.12,0.24,-0.13,0.14,0.11,0.95,
0.552,0.12,0.24,-0.13,0.14,0.11,0.95,
0.553,0.10,0.21,-0.12,0.14,0.11,0.95,
0.554,0.10,0.21,-0.12,0.14,0.11,0.94,
0.557,0.10,0.21,-0.12,0.14,0.10,0.94,
0.557,0.08,0.15,-0.14,0.14,0.10,0.94,
0.56,0.08,0.15,-0.14,0.15,0.10,0.94,
0.567,0.08,0.15,-0.14,0.15,0.10,0.94,
0.569,0.08,0.09,-0.18,0.15,0.10,0.94,
0.569,0.08,0.09,-0.18,0.15,0.09,0.94,
0.569,0.08,0.09,-0.18,0.16,0.09,0.94,
0.57,0.13,0.01,-0.20,0.16,0.09,0.94,
0.57,0.13,0.01,-0.20,0.16,0.08,0.94,
0.572,0.13,0.01,-0.20,0.16,0.08,0.94,
0.572,0.17,-0.08,-0.18,0.16,0.08,0.94,
0.574,0.17,-0.08,-0.18,0.16,0.08,0.94,
0.576,0.17,-0.08,-0.18,0.16,0.07,0.94,
0.577,0.21,-0.17,-0.18,0.16,0.07,0.94,
0.579,0.21,-0.17,-0.18,0.16,0.07,0.94,
0.582,0.21,-0.17,-0.18,0.16,0.07,0.94,
0.582,0.21,-0.24,-0.17,0.16,0.07,0.94,
0.584,0.21,-0.24,-0.17,0.16,0.07,0.94,
0.587,0.21,-0.24,-0.17,0.16,0.07,0.94,
0.587,0.20,-0.28,-0.16,0.16,0.07,0.94,
0.589,0.20,-0.28,-0.16,0.15,0.07,0.94,
0.591,0.20,-0.28,-0.16,0.15,0.07,0.94,
0.592,0.15,-0.30,-0.15,0.15,0.07,0.94,
0.593,0.15,-0.30,-0.15,0.14,0.07,0.94,
0.596,0.15,-0.30,-0.15,0.14,0.07,0.94,
0.596,0.07,-0.29,-0.16,0.14,0.07,0.94,
0.598,0.07,-0.29,-0.16,0.13,0.07,0.95,
0.601,-0.03,-0.24,-0.14,0.13,0.07,0.95,
0.602,-0.03,-0.24,-0.14,0.13,0.07,0.95,
0.603,-0.03,-0.24,-0.14,0.12,0.08,0.95,
0.606,-0.03,-0.24,-0.14,0.12,0.08,0.95,
0.606,-0.15,-0.22,-0.10,0.12,0.08,0.95,
0.608,-0.15,-0.22,-0.10,0.11,0.08,0.96,
0.611,-0.15,-0.22,-0.10,0.11,0.08,0.96,
0.611,-0.23,-0.17,-0.06,0.11,0.08,0.96,
0.613,-0.23,-0.17,-0.06,0.10,0.08,0.96,
0.616,-0.23,-0.17,-0.06,0.10,0.08,0.96,
0.616,-0.33,-0.14,-0.02,0.10,0.08,0.96,
0.618,-0.33,-0.14,-0.02,0.10,0.08,0.96,
0.62,-0.33,-0.14,-0.02,0.10,0.08,0.96,
0.621,-0.43,-0.11,0.02,0.10,0.08,0.96,
0.623,-0.43,-0.11,0.02,0.10,0.08,0.97,
0.626,-0.43,-0.11,0.02,0.10,0.08,0.97,
0.626,-0.47,-0.09,0.05,0.10,0.08,0.97,
0.628,-0.47,-0.09,0.05,0.10,0.08,0.97,
0.63,-0.47,-0.09,0.05,0.10,0.08,0.96,
0.631,-0.46,-0.13,0.09,0.10,0.08,0.96,
0.633,-0.46,-0.13,0.09,0.10,0.08,0.96,
0.635,-0.46,-0.13,0.09,0.10,0.08,0.97,
0.636,-0.45,-0.14,0.06,0.10,0.08,0.97,
0.638,-0.45,-0.14,0.06,0.11,0.07,0.97,
0.64,-0.45,-0.14,0.06,0.11,0.07,0.96,
0.641,-0.43,-0.18,0.07,0.11,0.07,0.96,
0.643,-0.43,-0.18,0.07,0.12,0.07,0.96,
0.65,-0.43,-0.18,0.07,0.12,0.06,0.96,
0.651,-0.35,-0.20,0.07,0.12,0.06,0.96,
0.651,-0.35,-0.20,0.07,0.13,0.06,0.96,
0.651,-0.35,-0.20,0.07,0.13,0.05,0.96,
0.652,-0.25,-0.28,0.07,0.13,0.05,0.96,
0.653,-0.25,-0.28,0.07,0.14,0.05,0.96,
0.655,-0.25,-0.28,0.07,0.14,0.05,0.96,
0.655,-0.15,-0.37,0.06,0.14,0.05,0.96,
0.657,-0.15,-0.37,0.06,0.14,0.04,0.96,
0.66,-0.15,-0.37,0.06,0.15,0.04,0.96,
0.661,-0.06,-0.44,0.04,0.15,0.04,0.96,
0.662,-0.06,-0.44,0.04,0.15,0.04,0.95,
0.665,-0.02,-0.49,-0.00,0.15,0.04,0.95,
0.665,-0.02,-0.49,-0.00,0.15,0.03,0.95,
0.667,-0.02,-0.49,-0.00,0.15,0.03,0.95,
0.67,-0.02,-0.49,-0.00,0.14,0.03,0.95,
0.67,0.01,-0.56,-0.04,0.14,0.03,0.95,
0.672,0.01,-0.56,-0.04,0.14,0.03,0.94,
0.675,0.01,-0.56,-0.04,0.14,0.03,0.94,
0.675,-0.02,-0.57,-0.10,0.14,0.03,0.94,
0.677,-0.02,-0.57,-0.10,0.13,0.03,0.94,
0.68,-0.02,-0.57,-0.10,0.13,0.04,0.94,
0.68,-0.10,-0.59,-0.14,0.13,0.04,0.94,
0.682,-0.10,-0.59,-0.14,0.12,0.04,0.94,
0.685,-0.10,-0.59,-0.14,0.11,0.04,0.94,
0.685,-0.19,-0.54,-0.16,0.11,0.04,0.94,
0.687,-0.19,-0.54,-0.16,0.11,0.04,0.94,
0.689,-0.19,-0.54,-0.16,0.10,0.04,0.94,
0.689,-0.33,-0.49,-0.18,0.10,0.04,0.94,
0.691,-0.33,-0.49,-0.18,0.09,0.04,0.94,
0.694,-0.33,-0.49,-0.18,0.09,0.05,0.94,
0.694,-0.43,-0.46,-0.19,0.09,0.05,0.94,
0.696,-0.43,-0.46,-0.19,0.08,0.04,0.94,
0.699,-0.43,-0.46,-0.19,0.08,0.05,0.94,
0.699,-0.55,-0.43,-0.19,0.08,0.05,0.94,
0.701,-0.55,-0.43,-0.19,0.07,0.05,0.93,
0.704,-0.55,-0.43,-0.19,0.07,0.05,0.93,
0.704,-0.65,-0.42,-0.20,0.07,0.05,0.93,
0.706,-0.65,-0.42,-0.20,0.07,0.05,0.93,
0.709,-0.65,-0.42,-0.20,0.07,0.04,0.93,
0.709,-0.71,-0.41,-0.23,0.07,0.04,0.93,
0.711,-0.71,-0.41,-0.23,0.07,0.04,0.92,
0.714,-0.71,-0.41,-0.23,0.07,0.04,0.92,
0.714,-0.74,-0.44,-0.27,0.07,0.04,0.92,
0.716,-0.74,-0.44,-0.27,0.07,0.03,0.92,
0.718,-0.74,-0.44,-0.27,0.07,0.03,0.92,
0.719,-0.73,-0.50,-0.31,0.07,0.03,0.92,
0.721,-0.73,-0.50,-0.31,0.07,0.03,0.92,
0.723,-0.73,-0.50,-0.31,0.08,0.02,0.92,
0.724,-0.72,-0.55,-0.35,0.08,0.02,0.92,
0.726,-0.72,-0.55,-0.35,0.08,0.02,0.92,
0.728,-0.72,-0.55,-0.35,0.08,0.01,0.92,
0.729,-0.70,-0.63,-0.34,0.08,0.01,0.92,
0.731,-0.70,-0.63,-0.34,0.08,0.01,0.92,
0.733,-0.70,-0.63,-0.34,0.09,0.00,0.92,
0.734,-0.65,-0.72,-0.33,0.09,0.00,0.92,
0.736,-0.65,-0.72,-0.33,0.09,-0.00,0.92,
0.738,-0.65,-0.72,-0.33,0.09,-0.01,0.92,
0.739,-0.60,-0.81,-0.33,0.09,-0.01,0.92,
0.74,-0.60,-0.81,-0.33,0.09,-0.01,0.92,
0.743,-0.60,-0.81,-0.33,0.10,-0.02,0.92,
0.743,-0.56,-0.90,-0.32,0.10,-0.02,0.92,
0.75,-0.56,-0.90,-0.32,0.10,-0.02,0.92,
0.751,-0.56,-0.90,-0.32,0.10,-0.02,0.92,
0.751,-0.49,-0.97,-0.31,0.10,-0.02,0.92,
0.751,-0.49,-0.97,-0.31,0.10,-0.02,0.92,
0.754,-0.49,-0.97,-0.31,0.10,-0.03,0.92,
0.754,-0.45,-1.00,-0.30,0.10,-0.03,0.92,
0.755,-0.45,-1.00,-0.30,0.10,-0.03,0.92,
0.758,-0.45,-1.00,-0.30,0.10,-0.03,0.91,
0.758,-0.43,-1.04,-0.32,0.10,-0.03,0.91,
0.761,-0.43,-1.04,-0.32,0.10,-0.03,0.91,
0.763,-0.43,-1.04,-0.32,0.09,-0.03,0.91,
0.763,-0.46,-1.06,-0.35,0.09,-0.03,0.91,
0.765,-0.46,-1.06,-0.35,0.09,-0.02,0.91,
0.768,-0.46,-1.06,-0.35,0.08,-0.02,0.91,
0.768,-0.54,-1.04,-0.37,0.08,-0.02,0.91,
0.77,-0.54,-1.04,-0.37,0.07,-0.02,0.91,
0.773,-0.54,-1.04,-0.37,0.06,-0.01,0.92,
0.773,-0.63,-1.00,-0.37,0.06,-0.01,0.92,
0.775,-0.63,-1.00,-0.37,0.05,-0.00,0.92,
0.777,-0.63,-1.00,-0.37,0.05,0.01,0.92,
0.778,-0.80,-0.87,-0.35,0.05,0.01,0.92,
0.78,-0.80,-0.87,-0.35,0.04,0.01,0.92,
0.783,-0.80,-0.87,-0.35,0.04,0.02,0.93,
0.783,-0.95,-0.71,-0.30,0.04,0.02,0.93,
0.785,-0.95,-0.71,-0.30,0.03,0.02,0.93,
0.787,-0.95,-0.71,-0.30,0.03,0.03,0.93,
0.788,-1.05,-0.57,-0.24,0.03,0.03,0.93,
0.79,-1.05,-0.57,-0.24,0.03,0.03,0.93,
0.792,-1.05,-0.57,-0.24,0.03,0.03,0.94,
0.792,-1.10,-0.47,-0.19,0.03,0.03,0.94,
0.794,-1.10,-0.47,-0.19,0.03,0.03,0.94,
0.797,-1.10,-0.47,-0.19,0.04,0.03,0.94,
0.798,-1.07,-0.40,-0.15,0.04,0.03,0.94,
0.799,-1.07,-0.40,-0.15,0.04,0.03,0.93,
0.802,-1.07,-0.40,-0.15,0.05,0.03,0.93,
0.802,-1.04,-0.39,-0.14,0.05,0.03,0.93,
0.804,-1.04,-0.39,-0.14,0.06,0.02,0.93,
0.807,-1.04,-0.39,-0.14,0.07,0.02,0.93,
0.807,-0.92,-0.42,-0.16,0.07,0.02,0.93,
0.809,-0.92,-0.42,-0.16,0.08,0.02,0.93,
0.812,-0.92,-0.42,-0.16,0.09,0.01,0.93,
0.812,-0.75,-0.46,-0.19,0.09,0.01,0.93,
0.814,-0.75,-0.46,-0.19,0.09,0.01,0.92,
0.816,-0.75,-0.46,-0.19,0.10,0.00,0.92,
0.817,-0.58,-0.53,-0.22,0.10,0.00,0.92,
0.819,-0.58,-0.53,-0.22,0.11,-0.00,0.92,
0.821,-0.58,-0.53,-0.22,0.11,-0.00,0.92,
0.822,-0.43,-0.60,-0.25,0.11,-0.00,0.92,
0.824,-0.43,-0.60,-0.25,0.12,-0.01,0.92,
0.828,-0.43,-0.60,-0.25,0.12,-0.01,0.92,
0.829,-0.31,-0.68,-0.28,0.12,-0.01,0.92,
0.829,-0.31,-0.68,-0.28,0.13,-0.02,0.92,
0.832,-0.31,-0.68,-0.28,0.13,-0.02,0.92,
0.832,-0.21,-0.74,-0.28,0.13,-0.02,0.92,
0.833,-0.21,-0.74,-0.28,0.13,-0.02,0.92,
0.836,-0.21,-0.74,-0.28,0.12,-0.02,0.92,
0.836,-0.15,-0.78,-0.30,0.12,-0.02,0.92,
0.838,-0.15,-0.78,-0.30,0.12,-0.01,0.92,
0.841,-0.15,-0.78,-0.30,0.11,-0.01,0.92,
0.842,-0.17,-0.78,-0.29,0.11,-0.01,0.92,
0.844,-0.17,-0.78,-0.29,0.11,-0.00,0.92,
0.846,-0.17,-0.78,-0.29,0.10,0.00,0.93,
0.846,-0.25,-0.69,-0.27,0.10,0.00,0.93,
0.848,-0.25,-0.69,-0.27,0.10,0.01,0.93,
0.851,-0.25,-0.69,-0.27,0.09,0.01,0.93,
0.851,-0.34,-0.57,-0.24,0.09,0.01,0.93,
0.853,-0.34,-0.57,-0.24,0.08,0.02,0.93,
0.856,-0.34,-0.57,-0.24,0.08,0.03,0.93,
0.856,-0.46,-0.44,-0.22,0.08,0.03,0.93,
0.858,-0.46,-0.44,-0.22,0.07,0.04,0.93,
0.867,-0.46,-0.44,-0.22,0.06,0.05,0.93,
0.867,-0.59,-0.28,-0.20,0.06,0.05,0.93,
0.867,-0.59,-0.28,-0.20,0.06,0.06,0.94,
0.868,-0.59,-0.28,-0.20,0.05,0.07,0.94,
0.868,-0.72,-0.10,-0.18,0.05,0.07,0.94,
0.868,-0.72,-0.10,-0.18,0.05,0.07,0.94,
0.87,-0.72,-0.10,-0.18,0.04,0.08,0.94,
0.871,-0.82,0.08,-0.12,0.04,0.08,0.94,
0.873,-0.82,0.08,-0.12,0.04,0.08,0.94,
0.875,-0.82,0.08,-0.12,0.05,0.08,0.94,
0.876,-0.89,0.21,-0.09,0.05,0.08,0.94,
0.88,-0.89,0.21,-0.09,0.05,0.09,0.94,
0.881,-0.89,0.21,-0.09,0.06,0.09,0.94,
0.881,-0.87,0.30,-0.07,0.06,0.09,0.94,
0.882,-0.87,0.30,-0.07,0.06,0.08,0.94,
0.885,-0.87,0.30,-0.07,0.07,0.08,0.94,
0.885,-0.78,0.34,-0.09,0.07,0.08,0.94,
0.887,-0.78,0.34,-0.09,0.08,0.07,0.93,
0.89,-0.78,0.34,-0.09,0.08,0.07,0.93,
0.89,-0.65,0.29,-0.11,0.08,0.07,0.93,
0.892,-0.65,0.29,-0.11,0.09,0.06,0.93,
0.895,-0.65,0.29,-0.11,0.10,0.06,0.93,
0.895,-0.50,0.22,-0.17,0.10,0.06,0.93,
0.897,-0.50,0.22,-0.17,0.10,0.05,0.93,
0.9,-0.50,0.22,-0.17,0.11,0.05,0.92,
0.9,-0.36,0.14,-0.19,0.11,0.05,0.92,
0.902,-0.36,0.14,-0.19,0.11,0.05,0.92,
0.905,-0.36,0.14,-0.19,0.11,0.04,0.92,
0.905,-0.24,0.05,-0.23,0.11,0.04,0.92,
0.907,-0.24,0.05,-0.23,0.12,0.03,0.92,
0.91,-0.24,0.05,-0.23,0.12,0.02,0.92,
0.911,-0.16,-0.04,-0.25,0.12,0.02,0.92,
0.912,-0.16,-0.04,-0.25,0.12,0.02,0.92,
0.914,-0.16,-0.04,-0.25,0.12,0.01,0.92,
0.916,-0.12,-0.17,-0.29,0.12,0.01,0.92,
0.917,-0.12,-0.17,-0.29,0.12,0.01,0.92,
0.919,-0.12,-0.17,-0.29,0.11,-0.00,0.92,
0.919,-0.11,-0.28,-0.32,0.11,-0.00,0.92,
0.922,-0.11,-0.28,-0.32,0.11,-0.01,0.92,
0.924,-0.11,-0.28,-0.32,0.11,-0.01,0.92,
0.924,-0.14,-0.40,-0.31,0.11,-0.01,0.92,
0.927,-0.14,-0.40,-0.31,0.11,-0.01,0.92,
0.929,-0.14,-0.40,-0.31,0.10,-0.01,0.92,
0.929,-0.16,-0.47,-0.28,0.10,-0.01,0.92,
0.931,-0.16,-0.47,-0.28,0.10,-0.01,0.92,
0.934,-0.16,-0.47,-0.28,0.09,-0.01,0.93,
0.934,-0.23,-0.50,-0.26,0.09,-0.01,0.93,
0.936,-0.23,-0.50,-0.26,0.07,0.00,0.93,
0.939,-0.23,-0.50,-0.26,0.06,0.01,0.93,
0.939,-0.39,-0.44,-0.21,0.06,0.01,0.93,
0.941,-0.39,-0.44,-0.21,0.05,0.03,0.94,
0.944,-0.39,-0.44,-0.21,0.04,0.04,0.94,
0.945,-0.61,-0.27,-0.17,0.04,0.04,0.94,
0.946,-0.61,-0.27,-0.17,0.04,0.05,0.95,
0.949,-0.61,-0.27,-0.17,0.03,0.07,0.96,
0.949,-0.81,-0.00,-0.08,0.03,0.07,0.96,
0.951,-0.81,-0.00,-0.08,0.03,0.08,0.97,
0.953,-0.81,-0.00,-0.08,0.03,0.08,0.97,
0.953,-0.95,0.27,0.09,0.03,0.08,0.97,
0.956,-0.95,0.27,0.09,0.04,0.09,0.98,
0.958,-0.95,0.27,0.09,0.05,0.10,0.98,
0.958,-0.97,0.49,0.22,0.05,0.10,0.98,
0.962,-0.97,0.49,0.22,0.06,0.10,0.98,
0.963,-0.97,0.49,0.22,0.07,0.10,0.98,
0.963,-0.90,0.63,0.32,0.07,0.10,0.98,
0.966,-0.90,0.63,0.32,0.08,0.10,0.98,
0.968,-0.90,0.63,0.32,0.09,0.10,0.98,
0.968,-0.71,0.67,0.36,0.09,0.10,0.98,
0.971,-0.71,0.67,0.36,0.10,0.10,0.98,
0.973,-0.71,0.67,0.36,0.11,0.10,0.98,
0.973,-0.47,0.70,0.36,0.11,0.10,0.98,
0.975,-0.47,0.70,0.36,0.13,0.10,0.98,
0.978,-0.47,0.70,0.36,0.14,0.10,0.98,
0.979,-0.24,0.71,0.35,0.14,0.10,0.98,
0.981,-0.24,0.71,0.35,0.15,0.10,0.98,
0.983,-0.24,0.71,0.35,0.15,0.09,0.98,
0.983,-0.04,0.68,0.33,0.15,0.09,0.98,
0.985,-0.04,0.68,0.33,0.16,0.09,0.98,
0.988,-0.04,0.68,0.33,0.16,0.09,0.98,
0.988,0.14,0.67,0.31,0.16,0.09,0.98,
0.99,0.14,0.67,0.31,0.17,0.09,0.98,
0.994,0.14,0.67,0.31,0.17,0.09,0.97,
0.995,0.25,0.65,0.30,0.17,0.09,0.97,
0.996,0.25,0.65,0.30,0.17,0.08,0.97,
0.998,0.35,0.59,0.25,0.17,0.08,0.97,
0.998,0.35,0.59,0.25,0.17,0.07,0.97,
1.0,0.35,0.59,0.25,0.17,0.07,0.97,
1.002,0.35,0.59,0.25,0.17,0.06,0.96,
1.003,0.39,0.50,0.20,0.17,0.06,0.96,
1.005,0.39,0.50,0.20,0.16,0.06,0.96,
1.007,0.39,0.50,0.20,0.16,0.05,0.95,
1.008,0.37,0.42,0.15,0.16,0.05,0.95,
1.01,0.37,0.42,0.15,0.15,0.04,0.95,
1.013,0.37,0.42,0.15,0.14,0.03,0.95,
1.013,0.24,0.29,0.07,0.14,0.03,0.95,
1.015,0.24,0.29,0.07,0.13,0.02,0.95,
1.017,0.24,0.29,0.07,0.12,0.01,0.95,
1.018,0.10,0.11,0.00,0.12,0.01,0.95,
1.02,0.10,0.11,0.00,0.11,0.01,0.95,
1.022,0.10,0.11,0.00,0.10,0.00,0.95,
1.023,-0.06,-0.04,-0.01,0.10,0.00,0.95,
1.025,-0.06,-0.04,-0.01,0.09,-0.00,0.95,
1.027,-0.06,-0.04,-0.01,0.07,-0.00,0.96,
1.028,-0.25,-0.15,0.00,0.07,-0.00,0.96,
1.03,-0.25,-0.15,0.00,0.06,0.00,0.96,
1.032,-0.25,-0.15,0.00,0.04,0.01,0.97,
1.032,-0.51,-0.18,0.04,0.04,0.01,0.97,
1.034,-0.51,-0.18,0.04,0.03,0.02,0.98,
1.037,-0.51,-0.18,0.04,0.02,0.03,0.98,
1.037,-0.78,-0.09,0.15,0.02,0.03,0.98,
1.039,-0.78,-0.09,0.15,0.01,0.04,0.99,
1.042,-0.78,-0.09,0.15,-0.00,0.05,1.00,
1.042,-1.05,0.11,0.29,-0.00,0.05,1.00,
1.045,-1.05,0.11,0.29,-0.01,0.06,1.01,
1.047,-1.05,0.11,0.29,-0.01,0.06,1.02,
1.048,-1.24,0.33,0.45,-0.01,0.06,1.02,
1.049,-1.24,0.33,0.45,-0.01,0.07,1.02,
1.052,-1.24,0.33,0.45,-0.01,0.07,1.03,
1.052,-1.35,0.54,0.62,-0.01,0.07,1.03,
1.054,-1.35,0.54,0.62,-0.00,0.07,1.04,
1.057,-1.35,0.54,0.62,0.01,0.07,1.04,
1.057,-1.36,0.66,0.74,0.01,0.07,1.04,
1.059,-1.36,0.66,0.74,0.02,0.07,1.05,
1.066,-1.36,0.66,0.74,0.03,0.07,1.05,
1.066,-1.24,0.71,0.87,0.03,0.07,1.05,
1.067,-1.24,0.71,0.87,0.04,0.07,1.05,
1.067,-1.24,0.71,0.87,0.05,0.06,1.06,
1.067,-1.05,0.71,0.95,0.05,0.06,1.06,
1.069,-1.05,0.71,0.95,0.07,0.05,1.06,
1.071,-1.05,0.71,0.95,0.08,0.05,1.06,
1.071,-0.83,0.64,1.01,0.08,0.05,1.06,
1.073,-0.83,0.64,1.01,0.09,0.05,1.06,
1.079,-0.83,0.64,1.01,0.10,0.04,1.06,
1.079,-0.60,0.54,1.04,0.10,0.04,1.06,
1.08,-0.60,0.54,1.04,0.10,0.04,1.06,
1.081,-0.60,0.54,1.04,0.11,0.03,1.06,
1.081,-0.41,0.50,1.04,0.11,0.03,1.06,
1.083,-0.41,0.50,1.04,0.11,0.03,1.05,
1.086,-0.41,0.50,1.04,0.12,0.02,1.05,
1.086,-0.29,0.42,1.00,0.12,0.02,1.05,
1.088,-0.29,0.42,1.00,0.12,0.02,1.04,
1.09,-0.29,0.42,1.00,0.12,0.01,1.04,
1.091,-0.20,0.32,0.92,0.12,0.01,1.04,
1.093,-0.20,0.32,0.92,0.12,0.01,1.04,
1.096,-0.20,0.32,0.92,0.11,0.00,1.03,
1.096,-0.18,0.23,0.83,0.11,0.00,1.03,
1.098,-0.18,0.23,0.83,0.11,-0.00,1.03,
1.1,-0.21,0.14,0.75,0.11,-0.00,1.03,
1.1,-0.21,0.14,0.75,0.10,-0.01,1.03,
1.103,-0.21,0.14,0.75,0.10,-0.01,1.03,
1.105,-0.21,0.14,0.75,0.09,-0.01,1.02,
1.106,-0.27,0.04,0.68,0.09,-0.01,1.02,
1.108,-0.27,0.04,0.68,0.09,-0.01,1.02,
1.11,-0.27,0.04,0.68,0.08,-0.01,1.03,
1.111,-0.37,-0.03,0.65,0.08,-0.01,1.03,
1.112,-0.37,-0.03,0.65,0.07,-0.01,1.03,
1.115,-0.37,-0.03,0.65,0.06,-0.01,1.03,
1.115,-0.49,-0.04,0.65,0.06,-0.01,1.03,
1.117,-0.49,-0.04,0.65,0.06,-0.00,1.03,
1.12,-0.49,-0.04,0.65,0.05,0.01,1.03,
1.12,-0.63,0.00,0.69,0.05,0.01,1.03,
1.122,-0.63,0.00,0.69,0.04,0.01,1.04,
1.125,-0.63,0.00,0.69,0.04,0.02,1.04,
1.125,-0.79,0.14,0.72,0.04,0.02,1.04,
1.128,-0.79,0.14,0.72,0.03,0.03,1.04,
1.13,-0.79,0.14,0.72,0.03,0.04,1.04,
1.13,-0.92,0.31,0.73,0.03,0.04,1.04,
1.132,-0.92,0.31,0.73,0.03,0.04,1.04,
1.134,-0.92,0.31,0.73,0.03,0.05,1.04,
1.135,-1.03,0.47,0.74,0.03,0.05,1.04,
1.137,-1.03,0.47,0.74,0.03,0.05,1.04,
1.139,-1.03,0.47,0.74,0.03,0.05,1.04,
1.14,-1.04,0.60,0.75,0.03,0.05,1.04,
1.143,-1.04,0.60,0.75,0.04,0.05,1.04,
1.144,-1.04,0.60,0.75,0.04,0.05,1.04,
1.145,-0.99,0.65,0.74,0.04,0.05,1.04,
1.147,-0.99,0.65,0.74,0.05,0.04,1.04,
1.15,-0.99,0.65,0.74,0.06,0.04,1.04,
1.15,-0.89,0.65,0.75,0.06,0.04,1.04,
1.152,-0.89,0.65,0.75,0.07,0.03,1.04,
1.154,-0.89,0.65,0.75,0.07,0.03,1.04,
1.155,-0.74,0.57,0.75,0.07,0.03,1.04,
1.157,-0.74,0.57,0.75,0.08,0.02,1.04,
1.165,-0.74,0.57,0.75,0.09,0.02,1.04,
1.166,-0.58,0.48,0.72,0.09,0.02,1.04,
1.166,-0.58,0.48,0.72,0.09,0.01,1.04,
1.166,-0.58,0.48,0.72,0.09,0.01,1.04,
1.166,-0.46,0.39,0.73,0.09,0.01,1.04,
1.167,-0.46,0.39,0.73,0.09,0.00,1.04,
1.169,-0.46,0.39,0.73,0.10,0.00,1.04,
1.169,-0.38,0.31,0.73,0.10,0.00,1.04,
1.171,-0.38,0.31,0.73,0.09,-0.00,1.04,
1.174,-0.38,0.31,0.73,0.09,-0.01,1.04,
1.174,-0.34,0.23,0.71,0.09,-0.01,1.04,
1.176,-0.34,0.23,0.71,0.09,-0.01,1.04,
1.179,-0.34,0.23,0.71,0.08,-0.00,1.04,
1.179,-0.36,0.16,0.70,0.08,-0.00,1.04,
1.181,-0.36,0.16,0.70,0.08,-0.00,1.05,
1.184,-0.36,0.16,0.70,0.07,0.00,1.05,
1.184,-0.45,0.17,0.73,0.07,0.00,1.05,
1.186,-0.45,0.17,0.73,0.06,0.01,1.05,
1.189,-0.45,0.17,0.73,0.05,0.01,1.06,
1.189,-0.55,0.23,0.79,0.05,0.01,1.06,
1.191,-0.55,0.23,0.79,0.05,0.02,1.06,
1.194,-0.55,0.23,0.79,0.04,0.03,1.06,
1.194,-0.69,0.36,0.85,0.04,0.03,1.06,
1.196,-0.69,0.36,0.85,0.04,0.04,1.06,
1.198,-0.69,0.36,0.85,0.03,0.04,1.06,
1.199,-0.82,0.50,0.89,0.03,0.04,1.06,
1.201,-0.82,0.50,0.89,0.03,0.05,1.06,
1.203,-0.82,0.50,0.89,0.03,0.06,1.06,
1.203,-0.89,0.65,0.89,0.03,0.06,1.06,
1.206,-0.89,0.65,0.89,0.03,0.06,1.06,
1.208,-0.89,0.65,0.89,0.03,0.07,1.06,
1.208,-0.93,0.78,0.87,0.03,0.07,1.06,
1.211,-0.93,0.78,0.87,0.03,0.07,1.06,
1.214,-0.93,0.78,0.87,0.04,0.07,1.06,
1.214,-0.93,0.88,0.85,0.04,0.07,1.06,
1.216,-0.93,0.88,0.85,0.04,0.07,1.06,
1.218,-0.93,0.88,0.85,0.05,0.07,1.06,
1.218,-0.85,0.96,0.83,0.05,0.07,1.06,
1.22,-0.85,0.96,0.83,0.05,0.08,1.05,
1.223,-0.85,0.96,0.83,0.06,0.08,1.05,
1.223,-0.73,0.99,0.81,0.06,0.08,1.05,
1.226,-0.73,0.99,0.81,0.06,0.08,1.05,
1.228,-0.73,0.99,0.81,0.07,0.07,1.05,
1.228,-0.62,1.01,0.78,0.07,0.07,1.05,
1.23,-0.62,1.01,0.78,0.08,0.07,1.04,
1.233,-0.62,1.01,0.78,0.09,0.07,1.04,
1.233,-0.48,1.00,0.73,0.09,0.07,1.04,
1.235,-0.48,1.00,0.73,0.09,0.07,1.04,
1.238,-0.48,1.00,0.73,0.09,0.07,1.04,
1.238,-0.33,0.96,0.64,0.09,0.07,1.04,
1.24,-0.33,0.96,0.64,0.10,0.08,1.04,
1.244,-0.33,0.96,0.64,0.10,0.08,1.04,
1.244,-0.22,0.97,0.61,0.10,0.08,1.04,
1.245,-0.22,0.97,0.61,0.11,0.08,1.04,
1.248,-0.22,0.97,0.61,0.11,0.08,1.04,
1.248,-0.13,1.01,0.62,0.11,0.08,1.04,
1.25,-0.13,1.01,0.62,0.11,0.08,1.04,
1.253,-0.13,1.01,0.62,0.12,0.08,1.04,
1.253,-0.06,1.04,0.61,0.12,0.08,1.04,
1.255,-0.06,1.04,0.61,0.12,0.08,1.03,
1.257,0.01,1.05,0.60,0.12,0.08,1.03,
1.258,0.01,1.05,0.60,0.13,0.08,1.03,
1.259,0.01,1.05,0.60,0.13,0.08,1.03,
1.262,0.01,1.05,0.60,0.14,0.08,1.03,
1.262,0.11,1.06,0.55,0.14,0.08,1.03,
1.264,0.11,1.06,0.55,0.14,0.08,1.03,
1.267,0.11,1.06,0.55,0.14,0.08,1.03,
1.267,0.19,1.06,0.51,0.14,0.08,1.03,
1.269,0.19,1.06,0.51,0.15,0.08,1.03,
1.272,0.19,1.06,0.51,0.15,0.08,1.03,
1.272,0.25,1.05,0.49,0.15,0.08,1.03,
1.274,0.25,1.05,0.49,0.15,0.08,1.03,
1.279,0.25,1.05,0.49,0.15,0.08,1.03,
1.279,0.31,1.04,0.50,0.15,0.08,1.03,
1.279,0.31,1.04,0.50,0.15,0.08,1.03,
1.282,0.31,1.04,0.50,0.14,0.09,1.03,
1.282,0.31,1.03,0.50,0.14,0.09,1.03,
1.284,0.31,1.03,0.50,0.14,0.09,1.03,
1.287,0.31,1.03,0.50,0.14,0.09,1.03,
1.287,0.29,1.04,0.50,0.14,0.09,1.03,
1.289,0.29,1.04,0.50,0.14,0.09,1.03,
1.291,0.29,1.04,0.50,0.13,0.09,1.03,
1.292,0.25,1.05,0.49,0.13,0.09,1.03,
1.294,0.25,1.05,0.49,0.13,0.09,1.03,
1.296,0.25,1.05,0.49,0.13,0.08,1.02,
1.297,0.17,1.04,0.47,0.13,0.08,1.02,
1.299,0.17,1.04,0.47,0.12,0.08,1.02,
1.301,0.17,1.04,0.47,0.12,0.08,1.02,
1.301,0.11,1.01,0.43,0.12,0.08,1.02,
1.304,0.11,1.01,0.43,0.11,0.09,1.02,
1.306,0.11,1.01,0.43,0.11,0.09,1.02,
1.306,0.02,1.01,0.41,0.11,0.09,1.02,
1.309,0.02,1.01,0.41,0.11,0.08,1.01,
1.311,0.02,1.01,0.41,0.10,0.08,1.01,
1.312,-0.07,1.01,0.36,0.10,0.08,1.01,
1.314,-0.07,1.01,0.36,0.10,0.08,1.01,
1.316,-0.07,1.01,0.36,0.10,0.08,1.01,
1.317,-0.12,0.98,0.29,0.10,0.08,1.01,
1.318,-0.12,0.98,0.29,0.11,0.07,1.00,
1.321,-0.12,0.98,0.29,0.11,0.07,1.00,
1.321,-0.11,0.94,0.25,0.11,0.07,1.00,
1.323,-0.11,0.94,0.25,0.11,0.06,1.00,
1.326,-0.11,0.94,0.25,0.12,0.06,1.00,
1.327,-0.07,0.84,0.19,0.12,0.06,1.00,
1.328,-0.07,0.84,0.19,0.12,0.06,1.00,
1.331,-0.07,0.84,0.19,0.12,0.06,1.00,
1.331,0.02,0.76,0.17,0.12,0.06,1.00,
1.333,0.02,0.76,0.17,0.13,0.06,1.01,
1.336,0.02,0.76,0.17,0.13,0.06,1.01,
1.336,0.08,0.71,0.19,0.13,0.06,1.01,
1.338,0.08,0.71,0.19,0.14,0.06,1.01,
1.34,0.08,0.71,0.19,0.14,0.07,1.01,
1.341,0.14,0.75,0.23,0.14,0.07,1.01,
1.343,0.14,0.75,0.23,0.15,0.07,1.01,
1.345,0.14,0.75,0.23,0.16,0.07,1.01,
1.346,0.26,0.82,0.26,0.16,0.07,1.01,
1.348,0.26,0.82,0.26,0.16,0.07,1.01,
1.35,0.26,0.82,0.26,0.17,0.07,1.01,
1.35,0.40,0.84,0.26,0.17,0.07,1.01,
1.353,0.40,0.84,0.26,0.18,0.07,1.01,
1.355,0.40,0.84,0.26,0.19,0.07,1.01,
1.356,0.56,0.86,0.23,0.19,0.07,1.01,
1.357,0.56,0.86,0.23,0.20,0.07,1.01,
1.365,0.56,0.86,0.23,0.21,0.08,1.01,
1.365,0.75,0.89,0.22,0.21,0.08,1.01,
1.365,0.75,0.89,0.22,0.21,0.08,1.02,
1.366,0.75,0.89,0.22,0.22,0.08,1.02,
1.366,0.92,0.92,0.26,0.22,0.08,1.02,
1.367,0.92,0.92,0.26,0.22,0.08,1.02,
1.37,0.92,0.92,0.26,0.22,0.07,1.02,
1.37,1.03,0.94,0.32,0.22,0.07,1.02,
1.372,1.03,0.94,0.32,0.23,0.07,1.02,
1.375,1.03,0.94,0.32,0.22,0.07,1.02,
1.375,1.10,0.92,0.33,0.22,0.07,1.02,
1.379,1.10,0.92,0.33,0.22,0.06,1.02,
1.38,1.13,0.86,0.33,0.22,0.06,1.02,
1.38,1.13,0.86,0.33,0.21,0.06,1.02,
1.382,1.13,0.86,0.33,0.21,0.05,1.02,
1.385,1.13,0.86,0.33,0.20,0.05,1.02,
1.385,1.05,0.79,0.31,0.20,0.05,1.02,
1.387,1.05,0.79,0.31,0.19,0.04,1.02,
1.39,1.05,0.79,0.31,0.18,0.04,1.02,
1.39,0.93,0.70,0.29,0.18,0.04,1.02,
1.392,0.93,0.70,0.29,0.16,0.04,1.02,
1.394,0.93,0.70,0.29,0.15,0.04,1.02,
1.395,0.74,0.62,0.29,0.15,0.04,1.02,
1.397,0.74,0.62,0.29,0.14,0.04,1.02,
1.399,0.51,0.59,0.33,0.14,0.04,1.02,
1.399,0.51,0.59,0.33,0.12,0.04,1.02,
1.402,0.51,0.59,0.33,0.11,0.04,1.03,
1.404,0.51,0.59,0.33,0.10,0.04,1.02,
1.407,0.24,0.59,0.35,0.10,0.04,1.02,
1.407,0.24,0.59,0.35,0.08,0.04,1.02,
1.409,0.24,0.59,0.35,0.07,0.04,1.02,
1.41,-0.03,0.60,0.36,0.07,0.04,1.02,
1.412,-0.03,0.60,0.36,0.06,0.03,1.02,
1.414,-0.03,0.60,0.36,0.05,0.03,1.03,
1.414,-0.27,0.58,0.35,0.05,0.03,1.03,
1.416,-0.27,0.58,0.35,0.05,0.02,1.03,
1.419,-0.27,0.58,0.35,0.04,0.02,1.03,
1.419,-0.45,0.52,0.35,0.04,0.02,1.03,
1.421,-0.45,0.52,0.35,0.04,0.02,1.03,
1.424,-0.45,0.52,0.35,0.04,0.01,1.04,
1.424,-0.55,0.45,0.38,0.04,0.01,1.04,
1.426,-0.55,0.45,0.38,0.05,0.01,1.04,
1.428,-0.55,0.45,0.38,0.05,0.02,1.05,
1.429,-0.57,0.39,0.43,0.05,0.02,1.05,
1.431,-0.57,0.39,0.43,0.05,0.02,1.05,
1.433,-0.57,0.39,0.43,0.05,0.02,1.05,
1.434,-0.54,0.39,0.52,0.05,0.02,1.05,
1.436,-0.54,0.39,0.52,0.06,0.02,1.05,
1.438,-0.54,0.39,0.52,0.07,0.02,1.05,
1.438,-0.48,0.42,0.60,0.07,0.02,1.05,
1.442,-0.48,0.42,0.60,0.08,0.02,1.05,
1.443,-0.48,0.42,0.60,0.09,0.02,1.05,
1.444,-0.34,0.46,0.61,0.09,0.02,1.05,
1.446,-0.34,0.46,0.61,0.10,0.03,1.06,
1.448,-0.15,0.50,0.62,0.10,0.03,1.06,
1.449,-0.15,0.50,0.62,0.12,0.03,1.06,
1.451,-0.15,0.50,0.62,0.13,0.03,1.06,
1.453,-0.15,0.50,0.62,0.14,0.03,1.06,
1.453,0.09,0.52,0.64,0.14,0.03,1.06,
1.455,0.09,0.52,0.64,0.16,0.04,1.06,
1.459,0.09,0.52,0.64,0.17,0.04,1.07,
1.46,0.39,0.58,0.67,0.17,0.04,1.07,
1.461,0.39,0.58,0.67,0.18,0.05,1.07,
1.463,0.39,0.58,0.67,0.20,0.05,1.07,
1.464,0.65,0.64,0.70,0.20,0.05,1.07,
1.465,0.65,0.64,0.70,0.21,0.06,1.07,
1.468,0.65,0.64,0.70,0.21,0.06,1.07,
1.468,0.90,0.72,0.74,0.21,0.06,1.07,
1.47,0.90,0.72,0.74,0.22,0.06,1.07,
1.473,1.09,0.81,0.74,0.22,0.06,1.07,
1.473,1.09,0.81,0.74,0.22,0.07,1.07,
1.481,1.09,0.81,0.74,0.23,0.07,1.07,
1.481,1.09,0.81,0.74,0.23,0.07,1.07,
1.482,1.20,0.87,0.72,0.23,0.07,1.07,
1.482,1.20,0.87,0.72,0.23,0.07,1.07,
1.482,1.20,0.87,0.72,0.22,0.07,1.06,
1.483,1.25,0.92,0.71,0.22,0.07,1.06,
1.485,1.25,0.92,0.71,0.22,0.07,1.06,
1.487,1.25,0.92,0.71,0.21,0.07,1.06,
1.488,1.23,0.93,0.66,0.21,0.07,1.06,
1.49,1.23,0.93,0.66,0.20,0.07,1.06,
1.494,1.23,0.93,0.66,0.19,0.06,1.05,
1.494,1.13,0.90,0.61,0.19,0.06,1.05,
1.495,1.13,0.90,0.61,0.18,0.06,1.05,
1.497,1.13,0.90,0.61,0.17,0.06,1.05,
1.497,0.97,0.83,0.54,0.17,0.06,1.05,
1.499,0.97,0.83,0.54,0.15,0.05,1.04,
1.502,0.97,0.83,0.54,0.14,0.05,1.04,
1.502,0.74,0.73,0.48,0.14,0.05,1.04,
1.504,0.74,0.73,0.48,0.13,0.04,1.03,
1.507,0.74,0.73,0.48,0.12,0.03,1.03,
1.507,0.51,0.63,0.40,0.12,0.03,1.03,
1.509,0.51,0.63,0.40,0.11,0.03,1.02,
1.512,0.51,0.63,0.40,0.10,0.02,1.02,
1.512,0.27,0.49,0.29,0.10,0.02,1.02,
1.514,0.27,0.49,0.29,0.09,0.02,1.01,
1.517,0.27,0.49,0.29,0.08,0.01,1.01,
1.517,0.06,0.35,0.20,0.08,0.01,1.01,
1.519,0.06,0.35,0.20,0.07,0.01,1.01,
1.522,0.06,0.35,0.20,0.07,0.00,1.01,
1.522,-0.11,0.24,0.13,0.07,0.00,1.01,
1.524,-0.11,0.24,0.13,0.07,0.00,1.01,
1.527,-0.11,0.24,0.13,0.07,0.01,1.01,
1.527,-0.20,0.15,0.09,0.07,0.01,1.01,
1.529,-0.20,0.15,0.09,0.07,0.01,1.00,
1.532,-0.20,0.15,0.09,0.07,0.02,1.00,
1.532,-0.24,0.14,0.06,0.07,0.02,1.00,
1.534,-0.24,0.14,0.06,0.07,0.02,1.00,
1.536,-0.24,0.14,0.06,0.07,0.03,1.00,
1.537,-0.26,0.22,0.04,0.07,0.03,1.00,
1.539,-0.26,0.22,0.04,0.07,0.04,1.00,
1.542,-0.26,0.22,0.04,0.08,0.05,1.00,
1.543,-0.22,0.35,0.00,0.08,0.05,1.00,
1.544,-0.22,0.35,0.00,0.09,0.05,0.99,
1.546,-0.22,0.35,0.00,0.10,0.06,0.99,
1.547,-0.12,0.50,-0.02,0.10,0.06,0.99,
1.549,-0.12,0.50,-0.02,0.11,0.07,0.99,
1.551,-0.12,0.50,-0.02,0.12,0.07,0.99,
1.551,0.04,0.62,-0.08,0.12,0.07,0.99,
1.553,0.04,0.62,-0.08,0.14,0.07,0.99,
1.556,0.04,0.62,-0.08,0.15,0.08,0.99,
1.556,0.29,0.72,-0.13,0.15,0.08,0.99,
1.559,0.29,0.72,-0.13,0.16,0.08,0.99,
1.561,0.29,0.72,-0.13,0.17,0.07,0.99,
1.562,0.57,0.76,-0.15,0.17,0.07,0.99,
1.563,0.57,0.76,-0.15,0.18,0.07,0.99,
1.566,0.57,0.76,-0.15,0.20,0.07,0.99,
1.566,0.82,0.75,-0.15,0.20,0.07,0.99,
1.568,0.82,0.75,-0.15,0.21,0.07,0.99,
1.571,0.82,0.75,-0.15,0.21,0.07,0.98,
1.571,1.06,0.71,-0.15,0.21,0.07,0.98,
1.573,1.06,0.71,-0.15,0.22,0.06,0.98,
1.581,1.06,0.71,-0.15,0.23,0.06,0.98,
1.581,1.26,0.67,-0.17,0.23,0.06,0.98,
1.581,1.26,0.67,-0.17,0.23,0.05,0.97,
1.581,1.26,0.67,-0.17,0.24,0.05,0.97,
1.582,1.41,0.57,-0.22,0.24,0.05,0.97,
1.583,1.41,0.57,-0.22,0.23,0.04,0.96,
1.585,1.41,0.57,-0.22,0.23,0.03,0.96,
1.586,1.49,0.43,-0.29,0.23,0.03,0.96,
1.588,1.49,0.43,-0.29,0.22,0.02,0.95,
1.59,1.47,0.28,-0.38,0.22,0.02,0.95,
1.59,1.47,0.28,-0.38,0.21,0.02,0.95,
1.598,1.47,0.28,-0.38,0.20,0.01,0.95,
1.599,1.47,0.28,-0.38,0.19,0.01,0.95,
1.599,1.32,0.14,-0.47,0.19,0.01,0.95,
1.599,1.32,0.14,-0.47,0.17,0.01,0.94,
1.6,1.32,0.14,-0.47,0.16,0.01,0.94,
1.6,1.10,0.04,-0.52,0.16,0.01,0.94,
1.602,1.10,0.04,-0.52,0.14,0.01,0.94,
1.605,1.10,0.04,-0.52,0.13,0.00,0.95,
1.605,0.81,-0.02,-0.57,0.13,0.00,0.95,
1.607,0.81,-0.02,-0.57,0.11,0.00,0.95,
1.609,0.81,-0.02,-0.57,0.10,0.00,0.95,
1.61,0.48,-0.05,-0.54,0.10,0.00,0.95,
1.612,0.48,-0.05,-0.54,0.09,0.00,0.95,
1.614,0.48,-0.05,-0.54,0.07,0.00,0.95,
1.615,0.18,-0.07,-0.47,0.07,0.00,0.95,
1.617,0.18,-0.07,-0.47,0.07,-0.00,0.95,
1.619,0.18,-0.07,-0.47,0.06,-0.00,0.96,
1.619,-0.06,-0.10,-0.43,0.06,-0.00,0.96,
1.622,-0.06,-0.10,-0.43,0.05,-0.00,0.96,
1.625,-0.06,-0.10,-0.43,0.05,-0.00,0.96,
1.625,-0.24,-0.13,-0.41,0.05,-0.00,0.96,
1.627,-0.24,-0.13,-0.41,0.04,-0.01,0.96,
1.63,-0.24,-0.13,-0.41,0.04,-0.01,0.96,
1.63,-0.39,-0.16,-0.39,0.04,-0.01,0.96,
1.632,-0.39,-0.16,-0.39,0.03,-0.01,0.96,
1.634,-0.39,-0.16,-0.39,0.03,-0.01,0.96,
1.634,-0.49,-0.19,-0.36,0.03,-0.01,0.96,
1.636,-0.49,-0.19,-0.36,0.03,-0.01,0.96,
1.639,-0.49,-0.19,-0.36,0.03,-0.01,0.95,
1.639,-0.55,-0.21,-0.37,0.03,-0.01,0.95,
1.641,-0.55,-0.21,-0.37,0.03,-0.02,0.95,
1.644,-0.55,-0.21,-0.37,0.04,-0.02,0.95,
1.645,-0.56,-0.25,-0.40,0.04,-0.02,0.95,
1.647,-0.56,-0.25,-0.40,0.05,-0.02,0.95,
1.649,-0.56,-0.25,-0.40,0.05,-0.01,0.95,
1.649,-0.49,-0.28,-0.45,0.05,-0.01,0.95,
1.651,-0.49,-0.28,-0.45,0.06,-0.01,0.95,
1.654,-0.49,-0.28,-0.45,0.07,-0.01,0.95,
1.654,-0.38,-0.26,-0.45,0.07,-0.01,0.95,
1.656,-0.38,-0.26,-0.45,0.08,-0.01,0.95,
1.664,-0.38,-0.26,-0.45,0.09,-0.01,0.95,
1.664,-0.21,-0.25,-0.47,0.09,-0.01,0.95,
1.665,-0.21,-0.25,-0.47,0.10,-0.01,0.95,
1.665,-0.21,-0.25,-0.47,0.11,-0.01,0.95,
1.665,0.03,-0.23,-0.47,0.11,-0.01,0.95,
1.666,0.03,-0.23,-0.47,0.12,-0.00,0.95,
1.668,0.03,-0.23,-0.47,0.13,-0.00,0.94,
1.669,0.26,-0.18,-0.47,0.13,-0.00,0.94,
1.671,0.26,-0.18,-0.47,0.14,0.00,0.94,
1.673,0.26,-0.18,-0.47,0.14,0.01,0.95,
1.673,0.46,-0.13,-0.48,0.14,0.01,0.95,
1.676,0.46,-0.13,-0.48,0.15,0.01,0.95,
1.678,0.46,-0.13,-0.48,0.16,0.02,0.95,
1.679,0.62,-0.04,-0.48,0.16,0.02,0.95,
1.681,0.62,-0.04,-0.48,0.17,0.02,0.96,
1.683,0.62,-0.04,-0.48,0.18,0.02,0.96,
1.683,0.82,0.06,-0.42,0.18,0.02,0.96,
1.685,0.82,0.06,-0.42,0.19,0.03,0.97,
1.688,0.82,0.06,-0.42,0.20,0.03,0.97,
1.688,1.02,0.13,-0.34,0.20,0.03,0.97,
1.69,1.02,0.13,-0.34,0.21,0.03,0.98,
1.693,1.02,0.13,-0.34,0.21,0.03,0.98,
1.694,1.20,0.18,-0.22,0.21,0.03,0.98,
1.696,1.20,0.18,-0.22,0.22,0.03,0.98,
1.698,1.20,0.18,-0.22,0.22,0.03,0.99,
1.699,1.34,0.21,-0.15,0.22,0.03,0.99,
1.7,1.34,0.21,-0.15,0.22,0.03,0.99,
1.703,1.34,0.21,-0.15,0.22,0.03,0.99,
1.703,1.43,0.24,-0.09,0.22,0.03,0.99,
1.705,1.43,0.24,-0.09,0.22,0.03,0.99,
1.708,1.43,0.24,-0.09,0.21,0.03,1.00,
1.709,1.43,0.26,-0.04,0.21,0.03,1.00,
1.71,1.43,0.26,-0.04,0.21,0.03,1.00,
1.713,1.43,0.26,-0.04,0.20,0.04,1.01,
1.713,1.34,0.27,0.02,0.20,0.04,1.01,
1.715,1.34,0.27,0.02,0.19,0.03,1.02,
1.717,1.34,0.27,0.02,0.19,0.03,1.02,
1.718,1.25,0.29,0.12,0.19,0.03,1.02,
1.72,1.25,0.29,0.12,0.18,0.03,1.02,
1.723,1.10,0.27,0.23,0.18,0.03,1.02,
1.723,1.10,0.27,0.23,0.17,0.04,1.03,
1.725,1.10,0.27,0.23,0.17,0.04,1.03,
1.727,1.10,0.27,0.23,0.16,0.04,1.03,
1.728,0.95,0.29,0.31,0.16,0.04,1.03,
1.73,0.95,0.29,0.31,0.16,0.04,1.04,
1.733,0.95,0.29,0.31,0.16,0.04,1.04,
1.733,0.85,0.30,0.38,0.16,0.04,1.04,
1.734,0.85,0.30,0.38,0.15,0.03,1.03,
1.737,0.85,0.30,0.38,0.15,0.03,1.03,
1.737,0.74,0.29,0.41,0.15,0.03,1.03,
1.739,0.74,0.29,0.41,0.15,0.03,1.03,
1.742,0.74,0.29,0.41,0.15,0.03,1.03,
1.742,0.68,0.27,0.38,0.15,0.03,1.03,
1.744,0.68,0.27,0.38,0.16,0.03,1.02,
1.747,0.68,0.27,0.38,0.16,0.03,1.02,
1.747,0.67,0.25,0.33,0.16,0.03,1.02,
1.749,0.67,0.25,0.33,0.16,0.03,1.02,
1.752,0.67,0.25,0.33,0.17,0.03,1.01,
1.752,0.70,0.23,0.26,0.17,0.03,1.01,
1.754,0.70,0.23,0.26,0.18,0.03,1.01,
1.757,0.70,0.23,0.26,0.19,0.03,1.01,
1.757,0.80,0.21,0.20,0.19,0.03,1.01,
1.764,0.80,0.21,0.20,0.20,0.03,1.01,
1.764,0.80,0.21,0.20,0.20,0.03,1.00,
1.764,0.95,0.19,0.14,0.20,0.03,1.00,
1.765,0.95,0.19,0.14,0.21,0.04,1.00,
1.767,0.95,0.19,0.14,0.21,0.04,1.00,
1.767,1.10,0.20,0.08,0.21,0.04,1.00,
1.769,1.10,0.20,0.08,0.21,0.05,0.99,
1.771,1.10,0.20,0.08,0.22,0.05,0.99,
1.771,1.19,0.25,0.02,0.22,0.05,0.99,
1.774,1.19,0.25,0.02,0.22,0.06,0.99,
1.777,1.19,0.25,0.02,0.22,0.06,0.99,
1.777,1.27,0.34,-0.05,0.22,0.06,0.99,
1.779,1.27,0.34,-0.05,0.23,0.07,0.99,
1.781,1.27,0.34,-0.05,0.23,0.07,0.98,
1.781,1.34,0.43,-0.09,0.23,0.07,0.98,
1.784,1.34,0.43,-0.09,0.23,0.08,0.98,
1.786,1.34,0.43,-0.09,0.23,0.08,0.98,
1.786,1.39,0.52,-0.12,0.23,0.08,0.98,
1.788,1.39,0.52,-0.12,0.23,0.08,0.98,
1.791,1.39,0.52,-0.12,0.24,0.08,0.98,
1.791,1.44,0.58,-0.12,0.24,0.08,0.98,
1.793,1.44,0.58,-0.12,0.24,0.09,0.98,
1.796,1.44,0.58,-0.12,0.24,0.09,0.98,
1.796,1.47,0.62,-0.15,0.24,0.09,0.98,
1.798,1.47,0.62,-0.15,0.24,0.09,0.98,
1.801,1.47,0.62,-0.15,0.24,0.09,0.99,
1.801,1.50,0.63,-0.15,0.24,0.09,0.99,
1.803,1.50,0.63,-0.15,0.24,0.10,0.99,
1.806,1.50,0.63,-0.15,0.24,0.10,0.99,
1.806,1.51,0.67,-0.10,0.24,0.10,0.99,
1.808,1.51,0.67,-0.10,0.24,0.11,1.00,
1.811,1.51,0.67,-0.10,0.23,0.11,1.00,
1.811,1.48,0.75,-0.03,0.23,0.11,1.00,
1.813,1.48,0.75,-0.03,0.23,0.11,1.00,
1.815,1.48,0.75,-0.03,0.23,0.11,1.00,
1.816,1.44,0.83,0.01,0.23,0.11,1.00,
1.818,1.44,0.83,0.01,0.23,0.12,1.00,
1.82,1.44,0.83,0.01,0.23,0.12,1.00,
1.821,1.39,0.86,0.02,0.23,0.12,1.00,
1.823,1.39,0.86,0.02,0.24,0.11,1.00,
1.826,1.39,0.86,0.02,0.24,0.11,0.99,
1.827,1.40,0.86,0.04,0.24,0.11,0.99,
1.828,1.40,0.86,0.04,0.24,0.11,0.99,
1.83,1.40,0.86,0.04,0.25,0.10,0.99,
1.831,1.42,0.80,-0.00,0.25,0.10,0.99,
1.832,1.42,0.80,-0.00,0.25,0.10,0.98,
1.835,1.42,0.80,-0.00,0.25,0.09,0.98,
1.836,1.49,0.69,-0.05,0.25,0.09,0.98,
1.837,1.49,0.69,-0.05,0.26,0.09,0.98,
1.84,1.53,0.61,-0.12,0.26,0.09,0.98,
1.84,1.53,0.61,-0.12,0.26,0.09,0.97,
1.842,1.53,0.61,-0.12,0.26,0.09,0.97,
1.845,1.57,0.53,-0.19,0.26,0.09,0.97,
1.846,1.57,0.53,-0.19,0.26,0.09,0.97,
1.847,1.57,0.53,-0.19,0.26,0.08,0.96,
1.85,1.57,0.53,-0.19,0.26,0.08,0.96,
1.85,1.58,0.47,-0.26,0.26,0.08,0.96,
1.852,1.58,0.47,-0.26,0.26,0.08,0.96,
1.854,1.58,0.47,-0.26,0.26,0.08,0.96,
1.855,1.61,0.42,-0.32,0.26,0.08,0.96,
1.864,1.61,0.42,-0.32,0.26,0.08,0.95,
1.865,1.61,0.42,-0.32,0.26,0.08,0.95,
1.865,1.60,0.40,-0.36,0.26,0.08,0.95,
1.865,1.60,0.40,-0.36,0.26,0.08,0.95,
1.865,1.60,0.40,-0.36,0.26,0.08,0.95,
1.866,1.60,0.38,-0.40,0.26,0.08,0.95,
1.867,1.60,0.38,-0.40,0.26,0.08,0.94,
1.869,1.60,0.38,-0.40,0.26,0.08,0.94,
1.87,1.60,0.37,-0.46,0.26,0.08,0.94,
1.871,1.60,0.37,-0.46,0.26,0.08,0.94,
1.877,1.60,0.37,-0.46,0.26,0.08,0.93,
1.877,1.56,0.36,-0.51,0.26,0.08,0.93,
1.877,1.56,0.36,-0.51,0.26,0.08,0.93,
1.879,1.56,0.36,-0.51,0.26,0.08,0.93,
1.879,1.55,0.33,-0.58,0.26,0.08,0.93,
1.881,1.55,0.33,-0.58,0.26,0.08,0.94,
1.884,1.55,0.33,-0.58,0.26,0.08,0.93,
1.884,1.54,0.29,-0.59,0.26,0.08,0.93,
1.886,1.54,0.29,-0.59,0.26,0.08,0.93,
1.889,1.54,0.29,-0.59,0.25,0.08,0.93,
1.889,1.52,0.25,-0.57,0.25,0.08,0.93,
1.891,1.52,0.25,-0.57,0.25,0.07,0.93,
1.894,1.52,0.25,-0.57,0.25,0.07,0.93,
1.896,1.48,0.22,-0.58,0.25,0.07,0.93,
1.896,1.48,0.22,-0.58,0.25,0.07,0.93,
1.898,1.48,0.22,-0.58,0.25,0.07,0.93,
1.899,1.42,0.17,-0.59,0.25,0.07,0.93,
1.901,1.42,0.17,-0.59,0.24,0.07,0.93,
1.904,1.42,0.17,-0.59,0.24,0.06,0.94,
1.904,1.36,0.11,-0.59,0.24,0.06,0.94,
1.906,1.36,0.11,-0.59,0.25,0.06,0.95,
1.909,1.36,0.11,-0.59,0.25,0.07,0.95,
1.909,1.33,0.09,-0.55,0.25,0.07,0.95,
1.911,1.33,0.09,-0.55,0.25,0.07,0.96,
1.913,1.33,0.09,-0.55,0.25,0.07,0.97,
1.913,1.34,0.08,-0.43,0.25,0.07,0.97,
1.915,1.34,0.08,-0.43,0.25,0.07,0.97,
1.918,1.34,0.08,-0.43,0.26,0.07,0.97,
1.918,1.32,0.09,-0.29,0.26,0.07,0.97,
1.921,1.32,0.09,-0.29,0.26,0.07,0.98,
1.923,1.32,0.09,-0.29,0.26,0.06,0.98,
1.924,1.38,0.10,-0.19,0.26,0.06,0.98,
1.926,1.38,0.10,-0.19,0.27,0.06,0.98,
1.928,1.38,0.10,-0.19,0.27,0.06,0.98,
1.929,1.44,0.05,-0.12,0.27,0.06,0.98,
1.93,1.44,0.05,-0.12,0.27,0.05,0.98,
1.933,1.44,0.05,-0.12,0.28,0.05,0.98,
1.933,1.48,-0.04,-0.09,0.28,0.05,0.98,
1.935,1.48,-0.04,-0.09,0.28,0.04,0.98,
1.938,1.48,-0.04,-0.09,0.27,0.04,0.98,
1.939,1.53,-0.14,-0.08,0.27,0.04,0.98,
1.941,1.53,-0.14,-0.08,0.28,0.03,0.98,
1.943,1.53,-0.14,-0.08,0.28,0.03,0.98,
1.944,1.54,-0.23,-0.10,0.28,0.03,0.98,
1.946,1.54,-0.23,-0.10,0.27,0.03,0.97,
1.948,1.54,-0.23,-0.10,0.27,0.03,0.97,
1.948,1.53,-0.29,-0.13,0.27,0.03,0.97,
1.95,1.53,-0.29,-0.13,0.27,0.02,0.96,
1.952,1.53,-0.29,-0.13,0.27,0.02,0.96,
1.953,1.50,-0.35,-0.20,0.27,0.02,0.96,
1.955,1.50,-0.35,-0.20,0.26,0.02,0.95,
1.958,1.50,-0.35,-0.20,0.26,0.02,0.95,
1.959,1.45,-0.43,-0.29,0.26,0.02,0.95,
1.96,1.45,-0.43,-0.29,0.26,0.02,0.94,
1.962,1.45,-0.43,-0.29,0.25,0.02,0.94,
1.963,1.39,-0.46,-0.41,0.25,0.02,0.94,
1.965,1.39,-0.46,-0.41,0.25,0.02,0.93,
1.967,1.39,-0.46,-0.41,0.25,0.02,0.93,
1.967,1.36,-0.49,-0.52,0.25,0.02,0.93,
1.97,1.36,-0.49,-0.52,0.25,0.02,0.92,
1.973,1.36,-0.49,-0.52,0.24,0.01,0.92,
1.973,1.31,-0.50,-0.61,0.24,0.01,0.92,
1.978,1.31,-0.50,-0.61,0.24,0.01,0.91,
1.979,1.28,-0.54,-0.71,0.24,0.01,0.91,
1.979,1.28,-0.54,-0.71,0.24,0.01,0.91,
1.979,1.28,-0.54,-0.71,0.24,0.01,0.90,
1.982,1.28,-0.54,-0.71,0.25,0.00,0.90,
1.982,1.25,-0.58,-0.81,0.25,0.00,0.90,
1.984,1.25,-0.58,-0.81,0.25,0.00,0.89,
1.987,1.25,-0.58,-0.81,0.25,-0.00,0.89,
1.987,1.27,-0.65,-0.90,0.25,-0.00,0.89,
1.989,1.27,-0.65,-0.90,0.26,-0.00,0.89,
1.992,1.27,-0.65,-0.90,0.26,-0.01,0.89,
1.992,1.33,-0.73,-0.96,0.26,-0.01,0.89,
1.994,1.33,-0.73,-0.96,0.27,-0.01,0.89,
1.996,1.33,-0.73,-0.96,0.27,-0.01,0.89,
1.997,1.39,-0.78,-0.99,0.27,-0.01,0.89,
1.999,1.39,-0.78,-0.99,0.28,-0.02,0.89,
2.001,1.39,-0.78,-0.99,0.28,-0.02,0.89,
2.002,1.49,-0.84,-1.00,0.28,-0.02,0.89,
2.004,1.49,-0.84,-1.00,0.28,-0.02,0.89,
2.007,1.49,-0.84,-1.00,0.29,-0.02,0.89,
2.008,1.57,-0.91,-1.00,0.29,-0.02,0.89,
2.009,1.57,-0.91,-1.00,0.29,-0.02,0.89,
2.012,1.57,-0.91,-1.00,0.29,-0.02,0.89,
2.012,1.64,-0.95,-1.00,0.29,-0.02,0.89,
2.014,1.64,-0.95,-1.00,0.29,-0.02,0.90,
2.017,1.64,-0.95,-1.00,0.29,-0.02,0.90,
2.017,1.63,-0.99,-0.96,0.29,-0.02,0.90,
2.019,1.63,-0.99,-0.96,0.28,-0.02,0.91,
2.021,1.63,-0.99,-0.96,0.28,-0.02,0.91,
2.021,1.62,-1.00,-0.88,0.28,-0.02,0.91,
2.024,1.62,-1.00,-0.88,0.27,-0.02,0.92,
2.026,1.62,-1.00,-0.88,0.27,-0.02,0.92,
2.026,1.52,-0.99,-0.79,0.27,-0.02,0.92,
2.028,1.52,-0.99,-0.79,0.26,-0.03,0.92,
2.031,1.52,-0.99,-0.79,0.26,-0.03,0.93,
2.031,1.41,-1.00,-0.69,0.26,-0.03,0.93,
2.033,1.41,-1.00,-0.69,0.26,-0.03,0.94,
2.036,1.41,-1.00,-0.69,0.25,-0.03,0.94,
2.036,1.29,-1.02,-0.60,0.25,-0.03,0.94,
2.038,1.29,-1.02,-0.60,0.25,-0.04,0.94,
2.041,1.29,-1.02,-0.60,0.26,-0.05,0.95,
2.042,1.20,-1.07,-0.48,0.26,-0.05,0.95,
2.043,1.20,-1.07,-0.48,0.26,-0.05,0.95,
2.046,1.20,-1.07,-0.48,0.26,-0.06,0.95,
2.046,1.18,-1.16,-0.40,0.26,-0.06,0.95,
2.048,1.18,-1.16,-0.40,0.26,-0.06,0.96,
2.05,1.18,-1.16,-0.40,0.26,-0.07,0.96,
2.051,1.18,-1.28,-0.34,0.26,-0.07,0.96,
2.053,1.18,-1.28,-0.34,0.26,-0.07,0.96,
2.056,1.18,-1.28,-0.34,0.26,-0.07,0.97,
2.056,1.17,-1.37,-0.27,0.26,-0.07,0.97,
2.058,1.17,-1.37,-0.27,0.26,-0.07,0.98,
2.065,1.17,-1.37,-0.27,0.27,-0.08,0.98,
2.065,1.18,-1.42,-0.19,0.27,-0.08,0.98,
2.066,1.18,-1.42,-0.19,0.27,-0.08,0.98,
2.066,1.18,-1.42,-0.19,0.27,-0.08,0.99,
2.066,1.22,-1.46,-0.07,0.27,-0.08,0.99,
2.068,1.22,-1.46,-0.07,0.28,-0.09,0.99,
2.07,1.22,-1.46,-0.07,0.28,-0.09,0.99,
2.07,1.28,-1.52,-0.01,0.28,-0.09,0.99,
2.072,1.28,-1.52,-0.01,0.28,-0.09,0.99,
2.079,1.28,-1.52,-0.01,0.28,-0.10,0.99,
2.079,1.32,-1.60,0.05,0.28,-0.10,0.99,
2.079,1.32,-1.60,0.05,0.28,-0.10,0.99,
2.08,1.32,-1.60,0.05,0.28,-0.11,0.99,
2.08,1.33,-1.68,0.07,0.28,-0.11,0.99,
2.082,1.33,-1.68,0.07,0.28,-0.11,0.99,
2.085,1.33,-1.68,0.07,0.28,-0.11,0.99,
2.085,1.33,-1.78,0.08,0.28,-0.11,0.99,
2.087,1.33,-1.78,0.08,0.27,-0.12,0.99,
2.09,1.33,-1.78,0.08,0.27,-0.12,0.99,
2.09,1.29,-1.85,0.07,0.27,-0.12,0.99,
2.092,1.29,-1.85,0.07,0.27,-0.11,0.98,
2.095,1.29,-1.85,0.07,0.26,-0.11,0.98,
2.095,1.23,-1.88,0.03,0.26,-0.11,0.98,
2.097,1.23,-1.88,0.03,0.26,-0.11,0.98,
2.099,1.23,-1.88,0.03,0.26,-0.10,0.97,
2.1,1.16,-1.84,-0.04,0.26,-0.10,0.97,
2.102,1.16,-1.84,-0.04,0.25,-0.10,0.97,
2.104,1.16,-1.84,-0.04,0.25,-0.09,0.97,
2.105,1.09,-1.76,-0.10,0.25,-0.09,0.97,
2.107,1.09,-1.76,-0.10,0.25,-0.09,0.97,
2.11,1.09,-1.76,-0.10,0.25,-0.09,0.96,
2.11,1.03,-1.69,-0.14,0.25,-0.09,0.96,
2.112,1.03,-1.69,-0.14,0.25,-0.08,0.96,
2.114,1.03,-1.69,-0.14,0.24,-0.08,0.96,
2.114,0.97,-1.62,-0.19,0.24,-0.08,0.96,
2.116,0.97,-1.62,-0.19,0.24,-0.08,0.96,
2.119,0.97,-1.62,-0.19,0.24,-0.07,0.96,
2.119,0.95,-1.54,-0.21,0.24,-0.07,0.96,
2.121,0.95,-1.54,-0.21,0.24,-0.07,0.97,
2.124,0.92,-1.49,-0.20,0.24,-0.07,0.97,
2.125,0.92,-1.49,-0.20,0.25,-0.07,0.97,
2.127,0.92,-1.49,-0.20,0.25,-0.06,0.97,
2.129,0.92,-1.49,-0.20,0.25,-0.06,0.97,
2.129,0.94,-1.44,-0.17,0.25,-0.06,0.97,
2.131,0.94,-1.44,-0.17,0.25,-0.06,0.97,
2.134,0.94,-1.44,-0.17,0.24,-0.06,0.97,
2.134,0.95,-1.38,-0.14,0.24,-0.06,0.97,
2.136,0.95,-1.38,-0.14,0.25,-0.06,0.97,
2.139,0.95,-1.38,-0.14,0.24,-0.06,0.97,
2.139,0.92,-1.35,-0.13,0.24,-0.06,0.97,
2.141,0.92,-1.35,-0.13,0.24,-0.06,0.97,
2.144,0.92,-1.35,-0.13,0.24,-0.06,0.96,
2.144,0.91,-1.36,-0.15,0.24,-0.06,0.96,
2.146,0.91,-1.36,-0.15,0.23,-0.06,0.96,
2.148,0.91,-1.36,-0.15,0.23,-0.06,0.96,
2.149,0.83,-1.36,-0.19,0.23,-0.06,0.96,
2.151,0.83,-1.36,-0.19,0.22,-0.06,0.96,
2.153,0.83,-1.36,-0.19,0.22,-0.06,0.97,
2.154,0.76,-1.37,-0.19,0.22,-0.06,0.97,
2.156,0.76,-1.37,-0.19,0.22,-0.06,0.97,
2.163,0.76,-1.37,-0.19,0.21,-0.06,0.97,
2.164,0.65,-1.36,-0.17,0.21,-0.06,0.97,
2.164,0.65,-1.36,-0.17,0.21,-0.06,0.96,
2.164,0.65,-1.36,-0.17,0.20,-0.06,0.97,
2.165,0.55,-1.35,-0.16,0.20,-0.06,0.97,
2.166,0.55,-1.35,-0.16,0.19,-0.06,0.97,
2.168,0.55,-1.35,-0.16,0.18,-0.06,0.96,
2.169,0.43,-1.35,-0.16,0.18,-0.06,0.96,
2.17,0.43,-1.35,-0.16,0.18,-0.07,0.96,
2.173,0.43,-1.35,-0.16,0.18,-0.07,0.96,
2.173,0.27,-1.37,-0.17,0.18,-0.07,0.96,
2.177,0.27,-1.37,-0.17,0.17,-0.07,0.95,
2.178,0.27,-1.37,-0.17,0.17,-0.07,0.95,
2.178,0.18,-1.41,-0.23,0.17,-0.07,0.95,
2.18,0.18,-1.41,-0.23,0.17,-0.07,0.95,
2.183,0.18,-1.41,-0.23,0.17,-0.07,0.95,
2.183,0.09,-1.42,-0.27,0.17,-0.07,0.95,
2.185,0.09,-1.42,-0.27,0.17,-0.07,0.95,
2.188,0.09,-1.42,-0.27,0.17,-0.07,0.95,
2.188,0.05,-1.46,-0.30,0.17,-0.07,0.95,
2.19,0.05,-1.46,-0.30,0.17,-0.07,0.95,
2.193,0.05,-1.46,-0.30,0.17,-0.08,0.94,
2.193,0.03,-1.48,-0.31,0.17,-0.08,0.94,
2.195,0.03,-1.48,-0.31,0.17,-0.08,0.94,
2.197,0.03,-1.48,-0.31,0.17,-0.07,0.94,
2.198,0.07,-1.51,-0.34,0.17,-0.07,0.94,
2.2,0.07,-1.51,-0.34,0.18,-0.07,0.93,
2.202,0.07,-1.51,-0.34,0.18,-0.07,0.93,
2.202,0.07,-1.51,-0.40,0.18,-0.07,0.93,
2.205,0.07,-1.51,-0.40,0.18,-0.07,0.93,
2.207,0.07,-1.51,-0.40,0.18,-0.07,0.93,
2.207,0.10,-1.50,-0.49,0.18,-0.07,0.93,
2.209,0.10,-1.50,-0.49,0.19,-0.07,0.93,
2.212,0.10,-1.50,-0.49,0.19,-0.06,0.93,
2.213,0.16,-1.48,-0.52,0.19,-0.06,0.93,
2.214,0.16,-1.48,-0.52,0.20,-0.06,0.94,
2.217,0.22,-1.42,-0.49,0.20,-0.06,0.94,
2.219,0.22,-1.42,-0.49,0.20,-0.06,0.94,
2.219,0.22,-1.42,-0.49,0.20,-0.05,0.94,
2.222,0.22,-1.42,-0.49,0.21,-0.05,0.94,
2.222,0.27,-1.35,-0.41,0.21,-0.05,0.94,
2.224,0.27,-1.35,-0.41,0.21,-0.05,0.95,
2.227,0.27,-1.35,-0.41,0.21,-0.04,0.95,
2.227,0.31,-1.30,-0.36,0.21,-0.04,0.95,
2.229,0.31,-1.30,-0.36,0.21,-0.04,0.95,
2.232,0.31,-1.30,-0.36,0.21,-0.03,0.96,
2.232,0.32,-1.22,-0.31,0.21,-0.03,0.96,
2.234,0.32,-1.22,-0.31,0.21,-0.03,0.96,
2.237,0.32,-1.22,-0.31,0.20,-0.02,0.96,
2.237,0.31,-1.12,-0.24,0.20,-0.02,0.96,
2.239,0.31,-1.12,-0.24,0.20,-0.02,0.97,
2.242,0.31,-1.12,-0.24,0.20,-0.01,0.97,
2.242,0.26,-1.00,-0.15,0.20,-0.01,0.97,
2.244,0.26,-1.00,-0.15,0.20,-0.01,0.97,
2.247,0.26,-1.00,-0.15,0.19,-0.02,0.97,
2.247,0.19,-0.92,-0.08,0.19,-0.02,0.97,
2.249,0.19,-0.92,-0.08,0.19,-0.02,0.98,
2.251,0.19,-0.92,-0.08,0.19,-0.02,0.97,
2.252,0.13,-0.91,-0.04,0.19,-0.02,0.97,
2.254,0.13,-0.91,-0.04,0.18,-0.02,0.98,
2.263,0.13,-0.91,-0.04,0.18,-0.03,0.98,
2.263,0.07,-0.96,-0.01,0.18,-0.03,0.98,
2.264,0.07,-0.96,-0.01,0.18,-0.03,0.98,
2.264,0.07,-0.96,-0.01,0.17,-0.03,0.98,
2.264,-0.01,-1.00,0.01,0.17,-0.03,0.98,
2.264,-0.01,-1.00,0.01,0.17,-0.04,0.98,
2.266,-0.01,-1.00,0.01,0.16,-0.04,0.98,
2.266,-0.10,-1.07,0.06,0.16,-0.04,0.98,
2.268,-0.10,-1.07,0.06,0.16,-0.04,0.98,
2.271,-0.10,-1.07,0.06,0.15,-0.04,0.99,
2.271,-0.22,-1.12,0.08,0.15,-0.04,0.99,
2.273,-0.22,-1.12,0.08,0.15,-0.04,0.99,
2.276,-0.22,-1.12,0.08,0.14,-0.04,0.99,
2.276,-0.33,-1.14,0.10,0.14,-0.04,0.99,
2.278,-0.33,-1.14,0.10,0.14,-0.04,0.99,
2.281,-0.33,-1.14,0.10,0.14,-0.04,0.99,
2.281,-0.42,-1.16,0.12,0.14,-0.04,0.99,
2.283,-0.42,-1.16,0.12,0.14,-0.05,0.98,
2.285,-0.42,-1.16,0.12,0.14,-0.05,0.98,
2.286,-0.48,-1.17,0.11,0.14,-0.05,0.98,
2.288,-0.48,-1.17,0.11,0.14,-0.05,0.98,
2.29,-0.48,-1.17,0.11,0.14,-0.05,0.98,
2.29,-0.49,-1.19,0.09,0.14,-0.05,0.98,
2.293,-0.49,-1.19,0.09,0.14,-0.05,0.98,
2.295,-0.49,-1.19,0.09,0.14,-0.06,0.98,
2.295,-0.48,-1.23,0.06,0.14,-0.06,0.98,
2.298,-0.48,-1.23,0.06,0.14,-0.06,0.97,
2.3,-0.48,-1.23,0.06,0.14,-0.06,0.97,
2.3,-0.46,-1.26,0.02,0.14,-0.06,0.97,
2.303,-0.46,-1.26,0.02,0.14,-0.06,0.97,
2.305,-0.46,-1.26,0.02,0.14,-0.06,0.97,
2.306,-0.44,-1.28,-0.02,0.14,-0.06,0.97,
2.308,-0.44,-1.28,-0.02,0.14,-0.06,0.97,
2.31,-0.44,-1.28,-0.02,0.14,-0.06,0.97,
2.31,-0.45,-1.30,-0.04,0.14,-0.06,0.97,
2.312,-0.45,-1.30,-0.04,0.14,-0.06,0.97,
2.315,-0.45,-1.30,-0.04,0.13,-0.07,0.97,
2.315,-0.46,-1.31,-0.04,0.13,-0.07,0.97,
2.317,-0.46,-1.31,-0.04,0.12,-0.06,0.96,
2.32,-0.46,-1.31,-0.04,0.12,-0.06,0.96,
2.32,-0.53,-1.32,-0.07,0.12,-0.06,0.96,
2.323,-0.53,-1.32,-0.07,0.11,-0.06,0.96,
2.325,-0.53,-1.32,-0.07,0.11,-0.06,0.96,
2.325,-0.65,-1.30,-0.11,0.11,-0.06,0.96,
2.327,-0.65,-1.30,-0.11,0.10,-0.07,0.96,
2.33,-0.65,-1.30,-0.11,0.10,-0.07,0.96,
2.33,-0.75,-1.29,-0.15,0.10,-0.07,0.96,
2.332,-0.75,-1.29,-0.15,0.09,-0.07,0.96,
2.334,-0.75,-1.29,-0.15,0.09,-0.07,0.96,
2.335,-0.82,-1.30,-0.16,0.09,-0.07,0.96,
2.337,-0.82,-1.30,-0.16,0.09,-0.07,0.96,
2.34,-0.82,-1.30,-0.16,0.08,-0.07,0.96,
2.34,-0.90,-1.32,-0.15,0.08,-0.07,0.96,
2.342,-0.90,-1.32,-0.15,0.08,-0.07,0.96,
2.344,-0.90,-1.32,-0.15,0.08,-0.07,0.97,
2.345,-0.97,-1.32,-0.12,0.08,-0.07,0.97,
2.347,-0.97,-1.32,-0.12,0.07,-0.07,0.97,
2.349,-0.97,-1.32,-0.12,0.07,-0.07,0.97,
2.35,-1.03,-1.30,-0.08,0.07,-0.07,0.97,
2.351,-1.03,-1.30,-0.08,0.07,-0.07,0.98,
2.354,-1.03,-1.30,-0.08,0.07,-0.07,0.98,
2.354,-1.08,-1.26,-0.03,0.07,-0.07,0.98,
2.357,-1.08,-1.26,-0.03,0.07,-0.06,0.98,
2.359,-1.08,-1.26,-0.03,0.07,-0.06,0.99,
2.359,-1.12,-1.25,0.03,0.07,-0.06,0.99,
2.361,-1.12,-1.25,0.03,0.07,-0.07,1.00,
2.364,-1.12,-1.25,0.03,0.08,-0.07,1.00,
2.364,-1.12,-1.21,0.13,0.08,-0.07,1.00,
2.366,-1.12,-1.21,0.13,0.08,-0.06,1.00,
2.369,-1.12,-1.21,0.13,0.08,-0.06,1.00,
2.369,-1.07,-1.22,0.23,0.08,-0.06,1.00,
2.371,-1.07,-1.22,0.23,0.09,-0.06,1.00,
2.378,-1.07,-1.22,0.23,0.09,-0.07,1.00,
2.379,-1.02,-1.20,0.29,0.09,-0.07,1.00,
2.379,-1.02,-1.20,0.29,0.09,-0.07,1.00,
2.379,-1.02,-1.20,0.29,0.10,-0.07,1.00,
2.379,-0.95,-1.21,0.29,0.10,-0.07,1.00,
2.381,-0.95,-1.21,0.29,0.10,-0.08,1.00,
2.384,-0.95,-1.21,0.29,0.10,-0.08,1.00,
2.386,-0.90,-1.25,0.25,0.10,-0.08,1.00,
2.386,-0.90,-1.25,0.25,0.10,-0.08,0.99,
2.388,-0.90,-1.25,0.25,0.10,-0.08,0.99,
2.388,-0.86,-1.32,0.22,0.10,-0.08,0.99,
2.39,-0.86,-1.32,0.22,0.10,-0.08,0.99,
2.393,-0.86,-1.32,0.22,0.10,-0.08,0.99,
2.393,-0.83,-1.34,0.20,0.10,-0.08,0.99,
2.395,-0.83,-1.34,0.20,0.09,-0.09,0.99,
2.398,-0.83,-1.34,0.20,0.09,-0.09,0.99,
2.398,-0.83,-1.38,0.19,0.09,-0.09,0.99,
2.4,-0.83,-1.38,0.19,0.08,-0.09,0.98,
2.403,-0.83,-1.38,0.19,0.08,-0.09,0.98,
2.403,-0.91,-1.40,0.14,0.08,-0.09,0.98,
2.406,-0.91,-1.40,0.14,0.07,-0.09,0.98,
2.408,-0.91,-1.40,0.14,0.06,-0.09,0.97,
2.408,-1.02,-1.44,0.07,0.06,-0.09,0.97,
2.413,-1.02,-1.44,0.07,0.05,-0.09,0.97,
2.413,-1.02,-1.44,0.07,0.04,-0.09,0.96,
2.413,-1.16,-1.44,-0.00,0.04,-0.09,0.96,
2.415,-1.16,-1.44,-0.00,0.04,-0.09,0.96,
2.418,-1.16,-1.44,-0.00,0.03,-0.09,0.96,
2.418,-1.31,-1.42,-0.09,0.03,-0.09,0.96,
2.42,-1.31,-1.42,-0.09,0.02,-0.09,0.96,
2.422,-1.31,-1.42,-0.09,0.02,-0.09,0.96,
2.423,-1.45,-1.43,-0.14,0.02,-0.09,0.96,
2.425,-1.45,-1.43,-0.14,0.02,-0.09,0.96,
2.428,-1.45,-1.43,-0.14,0.01,-0.09,0.96,
2.428,-1.54,-1.42,-0.16,0.01,-0.09,0.96,
2.43,-1.54,-1.42,-0.16,0.01,-0.09,0.96,
2.432,-1.54,-1.42,-0.16,0.01,-0.09,0.96,
2.432,-1.63,-1.43,-0.18,0.01,-0.09,0.96,
2.435,-1.63,-1.43,-0.18,0.01,-0.09,0.96,
2.437,-1.63,-1.43,-0.18,0.01,-0.10,0.96,
2.437,-1.66,-1.45,-0.18,0.01,-0.10,0.96,
2.44,-1.66,-1.45,-0.18,0.01,-0.09,0.96,
2.442,-1.66,-1.45,-0.18,0.01,-0.09,0.96,
2.443,-1.67,-1.47,-0.15,0.01,-0.09,0.96,
2.445,-1.67,-1.47,-0.15,0.01,-0.10,0.96,
2.447,-1.67,-1.47,-0.15,0.02,-0.10,0.96,
2.447,-1.67,-1.46,-0.14,0.02,-0.10,0.96,
2.449,-1.67,-1.46,-0.14,0.02,-0.10,0.96,
2.452,-1.67,-1.46,-0.14,0.03,-0.10,0.96,
2.452,-1.61,-1.48,-0.12,0.03,-0.10,0.96,
2.454,-1.61,-1.48,-0.12,0.03,-0.10,0.96,
2.461,-1.61,-1.48,-0.12,0.03,-0.10,0.96,
2.462,-1.51,-1.53,-0.12,0.03,-0.10,0.96,
2.462,-1.51,-1.53,-0.12,0.04,-0.10,0.96,
2.462,-1.51,-1.53,-0.12,0.04,-0.10,0.97,
2.462,-1.43,-1.54,-0.14,0.04,-0.10,0.97,
2.464,-1.43,-1.54,-0.14,0.04,-0.10,0.97,
2.467,-1.43,-1.54,-0.14,0.04,-0.09,0.97,
2.467,-1.37,-1.50,-0.10,0.04,-0.09,0.97,
2.469,-1.37,-1.50,-0.10,0.04,-0.09,0.97,
2.472,-1.37,-1.50,-0.10,0.04,-0.08,0.97,
2.472,-1.35,-1.43,-0.04,0.04,-0.08,0.97,
2.477,-1.35,-1.43,-0.04,0.03,-0.08,0.97,
2.477,-1.35,-1.43,-0.04,0.03,-0.07,0.98,
2.477,-1.41,-1.35,-0.01,0.03,-0.07,0.98,
2.479,-1.41,-1.35,-0.01,0.03,-0.07,0.98,
2.481,-1.41,-1.35,-0.01,0.03,-0.06,0.98,
2.482,-1.47,-1.25,0.01,0.03,-0.06,0.98,
2.484,-1.47,-1.25,0.01,0.02,-0.06,0.98,
2.486,-1.47,-1.25,0.01,0.02,-0.05,0.98,
2.487,-1.50,-1.14,0.03,0.02,-0.05,0.98,
2.49,-1.50,-1.14,0.03,0.02,-0.05,0.98,
2.491,-1.50,-1.14,0.03,0.02,-0.05,0.98,
2.492,-1.55,-1.04,0.04,0.02,-0.05,0.98,
2.493,-1.55,-1.04,0.04,0.02,-0.05,0.99,
2.496,-1.55,-1.04,0.04,0.03,-0.05,0.99,
2.496,-1.56,-0.99,0.10,0.03,-0.05,0.99,
2.498,-1.56,-0.99,0.10,0.03,-0.05,0.99,
2.501,-1.56,-0.99,0.10,0.04,-0.05,0.99,
2.501,-1.53,-0.96,0.15,0.04,-0.05,0.99,
2.503,-1.53,-0.96,0.15,0.04,-0.05,0.99,
2.506,-1.53,-0.96,0.15,0.05,-0.05,0.99,
2.506,-1.46,-0.96,0.16,0.05,-0.05,0.99,
2.508,-1.46,-0.96,0.16,0.05,-0.05,0.99,
2.511,-1.46,-0.96,0.16,0.06,-0.06,0.99,
2.511,-1.35,-1.00,0.17,0.06,-0.06,0.99,
2.513,-1.35,-1.00,0.17,0.06,-0.05,0.99,
2.516,-1.35,-1.00,0.17,0.07,-0.05,0.98,
2.516,-1.26,-1.01,0.15,0.07,-0.05,0.98,
2.518,-1.26,-1.01,0.15,0.07,-0.05,0.98,
2.521,-1.17,-0.99,0.11,0.07,-0.05,0.98,
2.522,-1.17,-0.99,0.11,0.07,-0.05,0.98,
2.523,-1.17,-0.99,0.11,0.08,-0.05,0.98,
2.526,-1.17,-0.99,0.11,0.08,-0.04,0.98,
2.526,-1.08,-0.95,0.09,0.08,-0.04,0.98,
2.528,-1.08,-0.95,0.09,0.08,-0.04,0.98,
2.53,-1.08,-0.95,0.09,0.08,-0.04,0.98,
2.531,-1.04,-0.90,0.09,0.08,-0.04,0.98,
2.533,-1.04,-0.90,0.09,0.08,-0.03,0.97,
2.535,-1.04,-0.90,0.09,0.08,-0.03,0.97,
2.536,-1.00,-0.84,0.05,0.08,-0.03,0.97,
2.538,-1.00,-0.84,0.05,0.08,-0.03,0.97,
2.54,-1.00,-0.84,0.05,0.08,-0.02,0.97,
2.541,-1.00,-0.76,0.01,0.08,-0.02,0.97,
2.543,-1.00,-0.76,0.01,0.08,-0.02,0.97,
2.545,-1.00,-0.76,0.01,0.08,-0.01,0.97,
2.545,-1.03,-0.69,-0.01,0.08,-0.01,0.97,
2.548,-1.03,-0.69,-0.01,0.08,-0.01,0.97,
2.55,-1.04,-0.61,-0.02,0.08,-0.01,0.97,
2.55,-1.04,-0.61,-0.02,0.08,-0.01,0.97,
2.552,-1.04,-0.61,-0.02,0.08,-0.00,0.97,
2.561,-1.04,-0.61,-0.02,0.08,0.00,0.97,
2.562,-1.02,-0.54,-0.01,0.08,0.00,0.97,
2.562,-1.02,-0.54,-0.01,0.09,0.00,0.97,
2.562,-1.02,-0.54,-0.01,0.09,0.01,0.98,
2.563,-0.98,-0.46,0.00,0.09,0.01,0.98,
2.563,-0.98,-0.46,0.00,0.10,0.01,0.98,
2.565,-0.98,-0.46,0.00,0.10,0.02,0.98,
2.565,-0.91,-0.39,0.02,0.10,0.02,0.98,
2.567,-0.91,-0.39,0.02,0.10,0.03,0.98,
2.569,-0.91,-0.39,0.02,0.11,0.03,0.99,
2.57,-0.84,-0.28,0.06,0.11,0.03,0.99,
2.577,-0.84,-0.28,0.06,0.12,0.03,0.99,
2.577,-0.84,-0.28,0.06,0.13,0.03,0.99,
2.577,-0.74,-0.18,0.13,0.13,0.03,0.99,
2.578,-0.74,-0.18,0.13,0.13,0.03,0.99,
2.579,-0.74,-0.18,0.13,0.14,0.03,0.99,
2.58,-0.60,-0.13,0.18,0.14,0.03,0.99,
2.581,-0.60,-0.13,0.18,0.14,0.03,0.99,
2.584,-0.60,-0.13,0.18,0.15,0.03,0.99,
2.584,-0.49,-0.12,0.20,0.15,0.03,0.99,
2.586,-0.49,-0.12,0.20,0.15,0.03,0.99,
2.589,-0.49,-0.12,0.20,0.15,0.03,0.99,
2.589,-0.38,-0.13,0.17,0.15,0.03,0.99,
2.591,-0.38,-0.13,0.17,0.16,0.03,0.99,
2.594,-0.38,-0.13,0.17,0.16,0.03,0.98,
2.594,-0.30,-0.14,0.13,0.16,0.03,0.98,
2.596,-0.30,-0.14,0.13,0.16,0.03,0.98,
2.599,-0.30,-0.14,0.13,0.16,0.03,0.98,
2.599,-0.25,-0.14,0.11,0.16,0.03,0.98,
2.601,-0.25,-0.14,0.11,0.16,0.03,0.98,
2.604,-0.25,-0.14,0.11,0.16,0.03,0.98,
2.605,-0.23,-0.15,0.10,0.16,0.03,0.98,
2.606,-0.23,-0.15,0.10,0.16,0.03,0.98,
2.609,-0.23,-0.15,0.10,0.16,0.03,0.97,
2.609,-0.23,-0.16,0.07,0.16,0.03,0.97,
2.611,-0.23,-0.16,0.07,0.16,0.03,0.97,
2.614,-0.23,-0.16,0.07,0.16,0.03,0.97,
2.614,-0.22,-0.18,0.04,0.16,0.03,0.97,
2.616,-0.22,-0.18,0.04,0.15,0.03,0.97,
2.618,-0.22,-0.18,0.04,0.15,0.03,0.96,
2.619,-0.24,-0.17,-0.02,0.15,0.03,0.96,
2.621,-0.24,-0.17,-0.02,0.15,0.03,0.96,
2.624,-0.24,-0.17,-0.02,0.15,0.03,0.96,
2.624,-0.26,-0.16,-0.08,0.15,0.03,0.96,
2.626,-0.26,-0.16,-0.08,0.16,0.03,0.96,
2.628,-0.26,-0.16,-0.08,0.15,0.03,0.96,
2.628,-0.27,-0.19,-0.12,0.15,0.03,0.96,
2.63,-0.27,-0.19,-0.12,0.15,0.03,0.95,
2.633,-0.27,-0.19,-0.12,0.16,0.03,0.95,
2.634,-0.23,-0.20,-0.16,0.16,0.03,0.95,
2.636,-0.23,-0.20,-0.16,0.15,0.03,0.95,
2.64,-0.23,-0.20,-0.16,0.15,0.03,0.95,
2.641,-0.22,-0.20,-0.20,0.15,0.03,0.95,
2.641,-0.22,-0.20,-0.20,0.15,0.03,0.94,
2.643,-0.22,-0.20,-0.20,0.15,0.03,0.94,
2.643,-0.26,-0.21,-0.24,0.15,0.03,0.94,
2.645,-0.26,-0.21,-0.24,0.15,0.03,0.94,
2.648,-0.26,-0.21,-0.24,0.14,0.03,0.94,
2.648,-0.27,-0.21,-0.28,0.14,0.03,0.94,
2.65,-0.27,-0.21,-0.28,0.14,0.03,0.94,
2.653,-0.27,-0.21,-0.28,0.14,0.03,0.94,
2.653,-0.31,-0.20,-0.29,0.14,0.03,0.94,
2.656,-0.31,-0.20,-0.29,0.14,0.03,0.94,
2.658,-0.31,-0.20,-0.29,0.14,0.02,0.94,
2.658,-0.35,-0.20,-0.30,0.14,0.02,0.94,
2.66,-0.35,-0.20,-0.30,0.14,0.02,0.95,
2.663,-0.35,-0.20,-0.30,0.14,0.03,0.95,
2.663,-0.34,-0.20,-0.28,0.14,0.03,0.95,
2.665,-0.34,-0.20,-0.28,0.14,0.03,0.96,
2.667,-0.34,-0.20,-0.28,0.14,0.03,0.96,
2.668,-0.36,-0.17,-0.24,0.14,0.03,0.96,
2.67,-0.36,-0.17,-0.24,0.14,0.04,0.97,
2.678,-0.36,-0.17,-0.24,0.14,0.04,0.97,
2.679,-0.33,-0.11,-0.14,0.14,0.04,0.97,
2.679,-0.33,-0.11,-0.14,0.15,0.04,0.98,
2.68,-0.33,-0.11,-0.14,0.15,0.05,0.98,
2.68,-0.30,-0.04,-0.03,0.15,0.05,0.98,
2.68,-0.30,-0.04,-0.03,0.16,0.05,0.99,
2.682,-0.30,-0.04,-0.03,0.16,0.05,0.99,
2.682,-0.26,0.04,0.07,0.16,0.05,0.99,
2.684,-0.26,0.04,0.07,0.17,0.06,1.00,
2.687,-0.26,0.04,0.07,0.17,0.06,1.00,
2.687,-0.17,0.10,0.15,0.17,0.06,1.00,
2.689,-0.17,0.10,0.15,0.18,0.06,1.00,
2.692,-0.17,0.10,0.15,0.19,0.06,1.00,
2.692,-0.05,0.15,0.23,0.19,0.06,1.00,
2.694,-0.05,0.15,0.23,0.19,0.06,1.00,
2.697,-0.05,0.15,0.23,0.20,0.06,1.00,
2.697,0.07,0.20,0.24,0.20,0.06,1.00,
2.699,0.07,0.20,0.24,0.20,0.06,1.00,
2.702,0.07,0.20,0.24,0.21,0.06,1.00,
2.702,0.20,0.20,0.27,0.21,0.06,1.00,
2.704,0.20,0.20,0.27,0.21,0.06,1.00,
2.707,0.20,0.20,0.27,0.22,0.05,1.00,
2.707,0.30,0.19,0.29,0.22,0.05,1.00,
2.709,0.30,0.19,0.29,0.22,0.05,1.00,
2.712,0.38,0.15,0.29,0.22,0.05,1.00,
2.712,0.38,0.15,0.29,0.22,0.05,1.00,
2.714,0.38,0.15,0.29,0.21,0.05,1.00,
2.717,0.38,0.15,0.29,0.21,0.04,1.00,
2.717,0.41,0.10,0.28,0.21,0.04,1.00,
2.719,0.41,0.10,0.28,0.20,0.04,1.00,
2.722,0.41,0.10,0.28,0.20,0.04,0.99,
2.723,0.36,0.04,0.25,0.20,0.04,0.99,
2.724,0.36,0.04,0.25,0.19,0.04,0.99,
2.726,0.36,0.04,0.25,0.18,0.03,0.98,
2.727,0.27,-0.01,0.18,0.18,0.03,0.98,
2.729,0.27,-0.01,0.18,0.18,0.03,0.98,
2.731,0.27,-0.01,0.18,0.17,0.02,0.98,
2.731,0.13,-0.07,0.11,0.17,0.02,0.98,
2.733,0.13,-0.07,0.11,0.16,0.02,0.98,
2.736,0.13,-0.07,0.11,0.16,0.02,0.97,
2.736,0.01,-0.15,0.03,0.16,0.02,0.97,
2.739,0.01,-0.15,0.03,0.15,0.01,0.97,
2.741,0.01,-0.15,0.03,0.14,0.01,0.97,
2.741,-0.15,-0.24,-0.00,0.14,0.01,0.97,
2.744,-0.15,-0.24,-0.00,0.13,0.01,0.97,
2.746,-0.15,-0.24,-0.00,0.13,0.00,0.97,
2.746,-0.28,-0.31,-0.02,0.13,0.00,0.97,
2.748,-0.28,-0.31,-0.02,0.12,0.00,0.97,
2.751,-0.28,-0.31,-0.02,0.12,0.00,0.97,
2.751,-0.41,-0.36,-0.06,0.12,0.00,0.97,
2.753,-0.41,-0.36,-0.06,0.12,-0.00,0.97,
2.756,-0.41,-0.36,-0.06,0.12,-0.00,0.97,
2.757,-0.49,-0.40,-0.05,0.12,-0.00,0.97,
2.758,-0.49,-0.40,-0.05,0.12,-0.00,0.97,
2.761,-0.49,-0.40,-0.05,0.12,-0.00,0.97,
2.761,-0.54,-0.42,-0.05,0.12,-0.00,0.97,
2.763,-0.54,-0.42,-0.05,0.12,0.00,0.97,
2.765,-0.54,-0.42,-0.05,0.13,0.00,0.98,
2.766,-0.54,-0.42,-0.03,0.13,0.00,0.98,
2.768,-0.54,-0.42,-0.03,0.14,0.01,0.98,
2.77,-0.54,-0.42,-0.03,0.14,0.01,0.98,
2.771,-0.46,-0.37,0.01,0.14,0.01,0.98,
2.777,-0.46,-0.37,0.01,0.15,0.01,0.98,
2.778,-0.46,-0.37,0.01,0.16,0.02,0.99,
2.778,-0.34,-0.31,0.07,0.16,0.02,0.99,
2.778,-0.34,-0.31,0.07,0.16,0.02,0.99,
2.78,-0.34,-0.31,0.07,0.17,0.02,0.99,
2.78,-0.20,-0.26,0.12,0.17,0.02,0.99,
2.782,-0.20,-0.26,0.12,0.18,0.03,0.99,
2.785,-0.20,-0.26,0.12,0.19,0.03,0.99,
2.785,-0.05,-0.18,0.17,0.19,0.03,0.99,
2.787,-0.05,-0.18,0.17,0.19,0.03,0.99,
2.79,-0.05,-0.18,0.17,0.20,0.03,0.99,
2.79,0.11,-0.11,0.18,0.20,0.03,0.99,
2.792,0.11,-0.11,0.18,0.20,0.04,0.99,
2.795,0.11,-0.11,0.18,0.21,0.04,0.99,
2.795,0.23,-0.08,0.17,0.21,0.04,0.99,
2.797,0.23,-0.08,0.17,0.21,0.04,0.99,
2.799,0.23,-0.08,0.17,0.21,0.04,0.99,
2.8,0.30,-0.03,0.18,0.21,0.04,0.99,
2.802,0.30,-0.03,0.18,0.21,0.04,0.99,
2.805,0.30,-0.03,0.18,0.21,0.04,0.99,
2.806,0.35,-0.02,0.18,0.21,0.04,0.99,
2.807,0.35,-0.02,0.18,0.21,0.04,0.99,
2.81,0.35,-0.02,0.18,0.21,0.04,0.99,
2.81,0.39,-0.01,0.14,0.21,0.04,0.99,
2.812,0.39,-0.01,0.14,0.21,0.03,0.98,
2.814,0.39,-0.01,0.14,0.20,0.03,0.98,
2.814,0.37,-0.04,0.10,0.20,0.03,0.98,
2.817,0.37,-0.04,0.10,0.21,0.03,0.91,
2.819,0.37,-0.04,0.10,0.21,0.03,0.78,
2.819,0.31,-0.06,0.05,0.21,0.03,0.78,
2.821,0.31,-0.06,0.05,0.21,0.03,0.79,
2.824,0.31,-0.06,0.05,0.21,0.04,0.85,
2.825,0.36,-0.11,-1.27,0.21,0.04,0.85,
2.827,0.36,-0.11,-1.27,0.20,0.04,0.87,
2.829,0.36,-0.11,-1.27,0.18,0.03,0.85,
2.829,0.41,-0.06,-1.52,0.18,0.03,0.85,
2.831,0.41,-0.06,-1.52,0.17,0.03,0.82,
2.834,0.41,-0.06,-1.52,0.17,0.02,0.80,
2.834,0.23,-0.03,-1.14,0.17,0.02,0.80,
2.836,0.23,-0.03,-1.14,0.17,0.03,0.81,
2.839,0.23,-0.03,-1.14,0.17,0.03,0.83,
2.839,0.06,-0.11,-1.62,0.17,0.03,0.83,
2.841,0.06,-0.11,-1.62,0.16,0.04,0.85,
2.844,0.06,-0.11,-1.62,0.16,0.04,0.86,
2.844,0.03,-0.05,-1.54,0.16,0.04,0.86,
2.846,0.03,-0.05,-1.54,0.16,0.04,0.86,
2.848,0.03,-0.05,-1.54,0.16,0.04,0.87,
2.849,-0.05,0.06,-1.22,0.16,0.04,0.87,
2.851,-0.05,0.06,-1.22,0.15,0.04,0.88,
2.854,-0.05,0.06,-1.22,0.16,0.04,0.88,
2.854,-0.09,0.08,-1.06,0.16,0.04,0.88,
2.859,-0.09,0.08,-1.06,0.15,0.04,0.89,
2.859,-0.09,0.08,-1.06,0.15,0.04,0.90,
2.859,-0.10,0.09,-0.93,0.15,0.04,0.90,
2.861,-0.10,0.09,-0.93,0.15,0.03,0.91,
2.864,-0.10,0.09,-0.93,0.15,0.03,0.91,
2.864,-0.15,0.12,-0.77,0.15,0.03,0.91,
2.866,-0.15,0.12,-0.77,0.16,0.02,0.92,
2.868,-0.15,0.12,-0.77,0.16,0.02,0.92,
2.868,-0.16,0.11,-0.64,0.16,0.02,0.92,
2.87,-0.16,0.11,-0.64,0.17,0.01,0.93,
2.873,-0.16,0.11,-0.64,0.18,0.01,0.94,
2.875,-0.08,0.04,-0.53,0.18,0.01,0.94,
2.875,-0.08,0.04,-0.53,0.18,-0.00,0.96,
2.878,-0.08,0.04,-0.53,0.19,-0.01,0.97,
2.878,0.07,-0.05,-0.37,0.19,-0.01,0.97,
2.881,0.07,-0.05,-0.37,0.20,-0.01,0.99,
2.883,0.07,-0.05,-0.37,0.20,-0.01,1.01,
2.883,0.18,-0.15,-0.09,0.20,-0.01,1.01,
2.885,0.18,-0.15,-0.09,0.20,-0.02,1.02,
2.888,0.18,-0.15,-0.09,0.20,-0.02,1.03,
2.888,0.27,-0.21,0.21,0.20,-0.02,1.03,
2.89,0.27,-0.21,0.21,0.20,-0.02,1.05,
2.893,0.27,-0.21,0.21,0.20,-0.01,1.07,
2.893,0.33,-0.23,0.50,0.20,-0.01,1.07,
2.895,0.33,-0.23,0.50,0.20,-0.01,1.09,
2.898,0.33,-0.23,0.50,0.20,-0.01,1.11,
2.898,0.27,-0.19,0.83,0.20,-0.01,1.11,
2.9,0.27,-0.19,0.83,0.20,-0.01,1.12,
2.902,0.27,-0.19,0.83,0.20,-0.02,1.13,
2.903,0.26,-0.16,1.20,0.20,-0.02,1.13,
2.905,0.26,-0.16,1.20,0.19,-0.02,1.14,
2.907,0.26,-0.16,1.20,0.19,-0.02,1.13,
2.908,0.24,-0.19,1.50,0.19,-0.02,1.13,
2.91,0.24,-0.19,1.50,0.19,-0.02,1.13,
2.912,0.24,-0.19,1.50,0.20,-0.02,1.12,
2.912,0.18,-0.23,1.58,0.20,-0.02,1.12,
2.915,0.18,-0.23,1.58,0.20,-0.03,1.12,
2.917,0.18,-0.23,1.58,0.20,-0.03,1.12,
2.917,0.20,-0.27,1.48,0.20,-0.03,1.12,
2.92,0.20,-0.27,1.48,0.20,-0.03,1.11,
