
time,ax,ay,az,gFx,gFy,gFz,
0.002,-0.06,-0.14,0.30,0.13,0.07,0.99,
0.003,-0.06,-0.14,0.30,0.13,0.08,0.98,
0.003,-0.08,-0.15,0.23,0.13,0.08,0.98,
0.003,-0.08,-0.15,0.23,0.12,0.08,0.98,
0.003,-0.08,-0.15,0.23,0.12,0.08,0.97,
0.004,-0.10,-0.14,0.13,0.12,0.08,0.97,
0.005,-0.10,-0.14,0.13,0.12,0.08,0.97,
0.008,-0.10,-0.14,0.13,0.12,0.08,0.97,
0.008,-0.13,-0.11,0.04,0.12,0.08,0.97,
0.012,-0.13,-0.11,0.04,0.12,0.08,0.96,
0.013,-0.13,-0.11,0.04,0.12,0.08,0.96,
0.014,-0.15,-0.10,-0.03,0.12,0.08,0.96,
0.016,-0.15,-0.10,-0.03,0.12,0.08,0.95,
0.018,-0.15,-0.10,-0.03,0.12,0.08,0.95,
0.018,-0.15,-0.10,-0.11,0.12,0.08,0.95,
0.02,-0.15,-0.10,-0.11,0.12,0.08,0.95,
0.023,-0.15,-0.10,-0.11,0.12,0.09,0.95,
0.023,-0.16,-0.09,-0.16,0.12,0.09,0.95,
0.025,-0.16,-0.09,-0.16,0.12,0.09,0.95,
0.029,-0.16,-0.09,-0.16,0.12,0.09,0.95,
0.029,-0.17,-0.07,-0.19,0.12,0.09,0.95,
0.03,-0.17,-0.07,-0.19,0.12,0.09,0.95,
0.033,-0.17,-0.07,-0.19,0.12,0.09,0.95,
0.034,-0.18,-0.03,-0.18,0.12,0.09,0.95,
0.035,-0.18,-0.03,-0.18,0.12,0.09,0.95,
0.038,-0.18,-0.03,-0.18,0.12,0.09,0.96,
0.038,-0.17,-0.01,-0.18,0.12,0.09,0.96,
0.04,-0.17,-0.01,-0.18,0.12,0.09,0.96,
0.042,-0.17,-0.01,-0.18,0.12,0.09,0.96,
0.043,-0.17,0.02,-0.15,0.12,0.09,0.96,
0.045,-0.17,0.02,-0.15,0.12,0.10,0.96,
0.047,-0.17,0.02,-0.15,0.12,0.10,0.97,
0.048,-0.14,0.03,-0.09,0.12,0.10,0.97,
0.05,-0.14,0.03,-0.09,0.13,0.10,0.97,
0.052,-0.14,0.03,-0.09,0.13,0.10,0.97,
0.052,-0.11,0.05,-0.03,0.13,0.10,0.97,
0.055,-0.11,0.05,-0.03,0.13,0.10,0.97,
0.057,-0.11,0.05,-0.03,0.14,0.10,0.97,
0.057,-0.05,0.06,0.01,0.14,0.10,0.97,
0.06,-0.05,0.06,0.01,0.14,0.09,0.98,
0.068,-0.05,0.06,0.01,0.14,0.09,0.98,
0.069,-0.00,0.05,0.03,0.14,0.09,0.98,
0.069,-0.00,0.05,0.03,0.14,0.09,0.98,
0.069,-0.00,0.05,0.03,0.15,0.09,0.98,
0.069,0.04,0.02,0.08,0.15,0.09,0.98,
0.069,0.04,0.02,0.08,0.15,0.09,0.98,
0.072,0.04,0.02,0.08,0.14,0.09,0.98,
0.072,0.09,-0.01,0.08,0.14,0.09,0.98,
0.074,0.09,-0.01,0.08,0.14,0.09,0.98,
0.077,0.09,-0.01,0.08,0.14,0.09,0.98,
0.077,0.09,-0.02,0.09,0.14,0.09,0.98,
0.079,0.09,-0.02,0.09,0.14,0.09,0.98,
0.082,0.09,-0.02,0.09,0.14,0.09,0.98,
0.082,0.07,-0.03,0.09,0.14,0.09,0.98,
0.084,0.07,-0.03,0.09,0.14,0.09,0.98,
0.086,0.07,-0.03,0.09,0.13,0.09,0.98,
0.087,0.07,-0.03,0.11,0.13,0.09,0.98,
0.089,0.07,-0.03,0.11,0.13,0.09,0.98,
0.091,0.07,-0.03,0.11,0.13,0.09,0.98,
0.091,0.01,-0.02,0.11,0.13,0.09,0.98,
0.094,0.01,-0.02,0.11,0.13,0.09,0.98,
0.096,0.01,-0.02,0.11,0.13,0.09,0.98,
0.096,-0.03,-0.00,0.07,0.13,0.09,0.98,
0.099,-0.03,-0.00,0.07,0.13,0.09,0.97,
0.101,-0.03,-0.00,0.07,0.13,0.09,0.97,
0.101,-0.05,0.01,0.07,0.13,0.09,0.97,
0.103,-0.05,0.01,0.07,0.13,0.09,0.97,
0.106,-0.05,0.01,0.07,0.13,0.09,0.97,
0.106,-0.06,-0.01,0.04,0.13,0.09,0.97,
0.108,-0.06,-0.01,0.04,0.13,0.09,0.97,
0.111,-0.06,-0.01,0.04,0.13,0.09,0.97,
0.111,-0.06,-0.00,0.03,0.13,0.09,0.97,
0.113,-0.06,-0.00,0.03,0.13,0.09,0.97,
0.116,-0.06,-0.00,0.03,0.13,0.09,0.97,
0.116,-0.06,-0.03,0.01,0.13,0.09,0.97,
0.118,-0.06,-0.03,0.01,0.12,0.09,0.97,
0.121,-0.06,-0.03,0.01,0.12,0.09,0.97,
0.121,-0.06,-0.01,-0.01,0.12,0.09,0.97,
0.123,-0.06,-0.01,-0.01,0.13,0.09,0.97,
0.126,-0.06,-0.01,-0.01,0.13,0.09,0.97,
0.126,-0.09,-0.01,-0.01,0.13,0.09,0.97,
0.128,-0.09,-0.01,-0.01,0.12,0.09,0.97,
0.131,-0.09,-0.01,-0.01,0.13,0.09,0.97,
0.131,-0.08,-0.02,-0.02,0.13,0.09,0.97,
0.133,-0.08,-0.02,-0.02,0.13,0.09,0.97,
0.135,-0.08,-0.02,-0.02,0.13,0.09,0.97,
0.136,-0.08,-0.03,-0.02,0.13,0.09,0.97,
0.138,-0.08,-0.03,-0.02,0.13,0.09,0.97,
0.141,-0.08,-0.03,-0.02,0.13,0.09,0.96,
0.141,-0.06,-0.04,-0.03,0.13,0.09,0.96,
0.143,-0.06,-0.04,-0.03,0.13,0.09,0.96,
0.151,-0.06,-0.04,-0.03,0.13,0.09,0.96,
0.151,-0.05,-0.05,-0.05,0.13,0.09,0.96,
0.152,-0.05,-0.05,-0.05,0.13,0.08,0.96,
0.152,-0.05,-0.05,-0.05,0.12,0.08,0.96,
0.152,-0.05,-0.06,-0.08,0.12,0.08,0.96,
0.152,-0.05,-0.06,-0.08,0.12,0.08,0.96,
0.155,-0.05,-0.06,-0.08,0.12,0.08,0.96,
0.155,-0.07,-0.08,-0.09,0.12,0.08,0.96,
0.157,-0.07,-0.08,-0.09,0.12,0.08,0.96,
0.16,-0.07,-0.08,-0.09,0.12,0.08,0.96,
0.161,-0.09,-0.09,-0.09,0.12,0.08,0.96,
0.162,-0.09,-0.09,-0.09,0.12,0.08,0.96,
0.165,-0.09,-0.09,-0.09,0.12,0.08,0.96,
0.165,-0.10,-0.11,-0.11,0.12,0.08,0.96,
0.167,-0.10,-0.11,-0.11,0.12,0.08,0.96,
0.17,-0.10,-0.11,-0.11,0.12,0.08,0.96,
0.17,-0.10,-0.13,-0.10,0.12,0.08,0.96,
0.172,-0.10,-0.13,-0.10,0.12,0.08,0.96,
0.175,-0.10,-0.13,-0.10,0.12,0.08,0.96,
0.175,-0.09,-0.15,-0.12,0.12,0.08,0.96,
0.177,-0.09,-0.15,-0.12,0.12,0.07,0.96,
0.179,-0.09,-0.15,-0.12,0.12,0.07,0.96,
0.18,-0.09,-0.15,-0.13,0.12,0.07,0.96,
0.182,-0.09,-0.15,-0.13,0.12,0.07,0.96,
0.184,-0.09,-0.15,-0.13,0.12,0.07,0.96,
0.185,-0.11,-0.18,-0.12,0.12,0.07,0.96,
0.187,-0.11,-0.18,-0.12,0.13,0.07,0.96,
0.189,-0.11,-0.18,-0.12,0.13,0.07,0.96,
0.189,-0.09,-0.19,-0.09,0.13,0.07,0.96,
0.192,-0.09,-0.19,-0.09,0.13,0.07,0.97,
0.195,-0.09,-0.19,-0.09,0.13,0.07,0.97,
0.195,-0.07,-0.21,-0.05,0.13,0.07,0.97,
0.197,-0.07,-0.21,-0.05,0.13,0.07,0.97,
0.199,-0.07,-0.21,-0.05,0.13,0.07,0.97,
0.2,-0.04,-0.23,-0.03,0.13,0.07,0.97,
0.201,-0.04,-0.23,-0.03,0.13,0.06,0.97,
0.204,-0.04,-0.23,-0.03,0.13,0.06,0.97,
0.204,-0.01,-0.23,-0.02,0.13,0.06,0.97,
0.206,-0.01,-0.23,-0.02,0.14,0.07,0.97,
0.209,0.01,-0.24,-0.00,0.14,0.07,0.97,
0.209,0.01,-0.24,-0.00,0.14,0.07,0.97,
0.211,0.01,-0.24,-0.00,0.14,0.06,0.97,
0.214,0.01,-0.24,-0.00,0.14,0.07,0.98,
0.214,0.04,-0.23,0.02,0.14,0.07,0.98,
0.216,0.04,-0.23,0.02,0.15,0.07,0.98,
0.219,0.04,-0.23,0.02,0.14,0.06,0.97,
0.219,0.08,-0.23,0.05,0.14,0.06,0.97,
0.221,0.08,-0.23,0.05,0.14,0.06,0.97,
0.224,0.08,-0.23,0.05,0.14,0.07,0.97,
0.224,0.14,-0.23,0.06,0.14,0.07,0.97,
0.226,0.14,-0.23,0.06,0.14,0.07,0.97,
0.229,0.14,-0.23,0.06,0.14,0.07,0.97,
0.229,0.12,-0.23,0.02,0.14,0.07,0.97,
0.231,0.12,-0.23,0.02,0.15,0.08,0.97,
0.233,0.12,-0.23,0.02,0.15,0.08,0.97,
0.234,0.14,-0.16,0.00,0.15,0.08,0.97,
0.236,0.14,-0.16,0.00,0.15,0.08,0.96,
0.238,0.14,-0.16,0.00,0.15,0.08,0.96,
0.238,0.15,-0.10,-0.03,0.15,0.08,0.96,
0.241,0.15,-0.10,-0.03,0.15,0.08,0.96,
0.251,0.15,-0.10,-0.03,0.15,0.09,0.96,
0.251,0.17,-0.07,-0.05,0.15,0.09,0.96,
0.252,0.17,-0.07,-0.05,0.15,0.09,0.95,
0.252,0.17,-0.07,-0.05,0.15,0.09,0.95,
0.252,0.20,-0.03,-0.10,0.15,0.09,0.95,
0.252,0.20,-0.03,-0.10,0.15,0.10,0.95,
0.253,0.20,-0.03,-0.10,0.15,0.10,0.95,
0.253,0.21,0.02,-0.15,0.15,0.10,0.95,
0.255,0.21,0.02,-0.15,0.15,0.10,0.95,
0.258,0.21,0.02,-0.15,0.15,0.10,0.95,
0.258,0.21,0.08,-0.20,0.15,0.10,0.95,
0.261,0.21,0.08,-0.20,0.15,0.10,0.95,
0.263,0.21,0.08,-0.20,0.15,0.10,0.95,
0.263,0.22,0.09,-0.22,0.15,0.10,0.95,
0.265,0.22,0.09,-0.22,0.15,0.10,0.94,
0.268,0.22,0.09,-0.22,0.16,0.10,0.94,
0.268,0.20,0.11,-0.22,0.16,0.10,0.94,
0.27,0.20,0.11,-0.22,0.16,0.10,0.93,
0.273,0.20,0.11,-0.22,0.16,0.10,0.93,
0.273,0.25,0.08,-0.28,0.16,0.10,0.93,
0.275,0.25,0.08,-0.28,0.16,0.10,0.93,
0.278,0.25,0.08,-0.28,0.16,0.10,0.93,
0.278,0.29,0.04,-0.35,0.16,0.10,0.93,
0.28,0.29,0.04,-0.35,0.17,0.09,0.93,
0.282,0.29,0.04,-0.35,0.17,0.09,0.93,
0.283,0.33,0.01,-0.37,0.17,0.09,0.93,
0.285,0.33,0.01,-0.37,0.17,0.09,0.93,
0.287,0.33,0.01,-0.37,0.17,0.09,0.93,
0.287,0.36,-0.04,-0.38,0.17,0.09,0.93,
0.29,0.36,-0.04,-0.38,0.17,0.09,0.92,
0.292,0.36,-0.04,-0.38,0.17,0.08,0.92,
0.292,0.36,-0.08,-0.38,0.17,0.08,0.92,
0.295,0.36,-0.08,-0.38,0.16,0.08,0.92,
0.297,0.36,-0.08,-0.38,0.17,0.08,0.92,
0.298,0.35,-0.11,-0.42,0.17,0.08,0.92,
0.3,0.35,-0.11,-0.42,0.17,0.08,0.92,
0.302,0.35,-0.11,-0.42,0.17,0.08,0.92,
0.302,0.32,-0.13,-0.43,0.17,0.08,0.92,
0.304,0.32,-0.13,-0.43,0.16,0.08,0.92,
0.307,0.32,-0.13,-0.43,0.16,0.08,0.92,
0.307,0.33,-0.17,-0.43,0.16,0.08,0.92,
0.309,0.33,-0.17,-0.43,0.16,0.08,0.92,
0.312,0.33,-0.17,-0.43,0.16,0.08,0.92,
0.312,0.30,-0.17,-0.43,0.16,0.08,0.92,
0.314,0.30,-0.17,-0.43,0.17,0.08,0.92,
0.317,0.30,-0.17,-0.43,0.17,0.08,0.92,
0.317,0.30,-0.19,-0.41,0.17,0.08,0.92,
0.319,0.30,-0.19,-0.41,0.17,0.08,0.92,
0.322,0.30,-0.19,-0.41,0.17,0.08,0.93,
0.322,0.32,-0.20,-0.39,0.17,0.08,0.93,
0.324,0.32,-0.20,-0.39,0.17,0.08,0.92,
0.327,0.32,-0.20,-0.39,0.17,0.08,0.92,
0.327,0.32,-0.18,-0.38,0.17,0.08,0.92,
0.329,0.32,-0.18,-0.38,0.17,0.08,0.93,
0.331,0.32,-0.18,-0.38,0.17,0.08,0.93,
0.332,0.36,-0.16,-0.38,0.17,0.08,0.93,
0.334,0.36,-0.16,-0.38,0.17,0.08,0.93,
0.336,0.34,-0.15,-0.36,0.17,0.08,0.93,
0.337,0.34,-0.15,-0.36,0.17,0.09,0.93,
0.338,0.34,-0.15,-0.36,0.17,0.09,0.93,
0.341,0.34,-0.15,-0.36,0.17,0.09,0.94,
0.341,0.36,-0.12,-0.33,0.17,0.09,0.94,
0.344,0.36,-0.12,-0.33,0.17,0.09,0.93,
0.346,0.36,-0.12,-0.33,0.17,0.09,0.93,
0.347,0.36,-0.09,-0.27,0.17,0.09,0.93,
0.348,0.36,-0.09,-0.27,0.17,0.09,0.94,
0.351,0.36,-0.09,-0.27,0.17,0.09,0.94,
0.351,0.36,-0.09,-0.27,0.17,0.09,0.94,
0.353,0.36,-0.09,-0.27,0.17,0.09,0.94,
0.356,0.36,-0.09,-0.27,0.17,0.08,0.94,
0.356,0.36,-0.08,-0.25,0.17,0.08,0.94,
0.358,0.36,-0.08,-0.25,0.17,0.08,0.94,
0.363,0.36,-0.08,-0.25,0.18,0.08,0.94,
0.364,0.36,-0.09,-0.23,0.18,0.08,0.94,
0.364,0.36,-0.09,-0.23,0.17,0.08,0.94,
0.366,0.36,-0.09,-0.23,0.17,0.09,0.94,
0.366,0.38,-0.09,-0.20,0.17,0.09,0.94,
0.368,0.38,-0.09,-0.20,0.18,0.08,0.94,
0.37,0.38,-0.09,-0.20,0.18,0.08,0.94,
0.371,0.36,-0.08,-0.18,0.18,0.08,0.94,
0.373,0.36,-0.08,-0.18,0.18,0.08,0.94,
0.375,0.36,-0.08,-0.18,0.18,0.08,0.94,
0.376,0.38,-0.08,-0.17,0.18,0.08,0.94,
0.378,0.38,-0.08,-0.17,0.18,0.08,0.94,
0.381,0.38,-0.08,-0.17,0.18,0.08,0.94,
0.381,0.39,-0.08,-0.18,0.18,0.08,0.94,
0.383,0.39,-0.08,-0.18,0.19,0.08,0.94,
0.385,0.39,-0.08,-0.18,0.19,0.08,0.95,
0.385,0.43,-0.12,-0.17,0.19,0.08,0.95,
0.387,0.43,-0.12,-0.17,0.19,0.07,0.95,
0.39,0.43,-0.12,-0.17,0.19,0.07,0.95,
0.39,0.49,-0.14,-0.16,0.19,0.07,0.95,
0.392,0.49,-0.14,-0.16,0.20,0.07,0.95,
0.395,0.49,-0.14,-0.16,0.20,0.07,0.95,
0.396,0.52,-0.17,-0.12,0.20,0.07,0.95,
0.398,0.52,-0.17,-0.12,0.20,0.07,0.95,
0.4,0.52,-0.17,-0.12,0.20,0.07,0.95,
0.4,0.56,-0.19,-0.09,0.20,0.07,0.95,
0.402,0.56,-0.19,-0.09,0.20,0.07,0.96,
0.405,0.56,-0.19,-0.09,0.20,0.07,0.96,
0.405,0.58,-0.21,-0.06,0.20,0.07,0.96,
0.407,0.58,-0.21,-0.06,0.20,0.07,0.96,
0.411,0.58,-0.21,-0.06,0.20,0.07,0.96,
0.411,0.55,-0.22,-0.02,0.20,0.07,0.96,
0.412,0.55,-0.22,-0.02,0.20,0.07,0.96,
0.415,0.55,-0.22,-0.02,0.20,0.06,0.97,
0.415,0.52,-0.21,0.01,0.20,0.06,0.97,
0.417,0.52,-0.21,0.01,0.20,0.07,0.97,
0.419,0.52,-0.21,0.01,0.20,0.06,0.97,
0.42,0.49,-0.23,0.05,0.20,0.06,0.97,
0.422,0.49,-0.23,0.05,0.19,0.06,0.97,
0.424,0.49,-0.23,0.05,0.19,0.06,0.97,
0.425,0.48,-0.23,0.07,0.19,0.06,0.97,
0.427,0.48,-0.23,0.07,0.19,0.06,0.97,
0.429,0.48,-0.23,0.07,0.19,0.07,0.97,
0.43,0.42,-0.23,0.08,0.19,0.07,0.97,
0.432,0.42,-0.23,0.08,0.19,0.07,0.98,
0.434,0.42,-0.23,0.08,0.18,0.07,0.98,
0.434,0.42,-0.21,0.11,0.18,0.07,0.98,
0.436,0.42,-0.21,0.11,0.18,0.07,0.98,
0.439,0.42,-0.21,0.11,0.18,0.07,0.98,
0.439,0.36,-0.17,0.15,0.18,0.07,0.98,
0.442,0.36,-0.17,0.15,0.18,0.07,0.98,
0.444,0.36,-0.17,0.15,0.18,0.07,0.98,
0.445,0.32,-0.13,0.16,0.18,0.07,0.98,
0.446,0.32,-0.13,0.16,0.17,0.07,0.98,
0.449,0.32,-0.13,0.16,0.17,0.08,0.98,
0.449,0.27,-0.11,0.18,0.17,0.08,0.98,
0.451,0.27,-0.11,0.18,0.17,0.08,0.98,
0.454,0.27,-0.11,0.18,0.17,0.08,0.98,
0.454,0.22,-0.09,0.20,0.17,0.08,0.98,
0.456,0.22,-0.09,0.20,0.18,0.08,0.98,
0.459,0.22,-0.09,0.20,0.18,0.08,0.98,
0.459,0.22,-0.08,0.20,0.18,0.08,0.98,
0.464,0.22,-0.08,0.20,0.18,0.07,0.98,
0.465,0.22,-0.08,0.20,0.18,0.07,0.99,
0.466,0.27,-0.09,0.21,0.18,0.07,0.99,
0.466,0.27,-0.09,0.21,0.18,0.07,0.99,
0.469,0.27,-0.09,0.21,0.19,0.07,0.99,
0.469,0.32,-0.11,0.22,0.19,0.07,0.99,
0.471,0.32,-0.11,0.22,0.19,0.07,0.98,
0.474,0.32,-0.11,0.22,0.20,0.06,0.98,
0.474,0.37,-0.13,0.22,0.20,0.06,0.98,
0.476,0.37,-0.13,0.22,0.20,0.06,0.98,
0.478,0.37,-0.13,0.22,0.20,0.06,0.98,
0.478,0.44,-0.21,0.20,0.20,0.06,0.98,
0.481,0.44,-0.21,0.20,0.21,0.05,0.98,
0.483,0.44,-0.21,0.20,0.21,0.05,0.98,
0.483,0.49,-0.26,0.20,0.21,0.05,0.98,
0.485,0.49,-0.26,0.20,0.22,0.05,0.99,
0.488,0.49,-0.26,0.20,0.22,0.04,0.98,
0.488,0.57,-0.32,0.21,0.22,0.04,0.98,
0.491,0.57,-0.32,0.21,0.22,0.04,0.98,
0.494,0.57,-0.32,0.21,0.22,0.03,0.98,
0.495,0.64,-0.40,0.21,0.22,0.03,0.98,
0.496,0.64,-0.40,0.21,0.23,0.03,0.98,
0.498,0.64,-0.40,0.21,0.23,0.02,0.98,
0.498,0.67,-0.48,0.19,0.23,0.02,0.98,
0.5,0.67,-0.48,0.19,0.23,0.02,0.98,
0.503,0.67,-0.48,0.19,0.22,0.02,0.98,
0.503,0.70,-0.58,0.18,0.22,0.02,0.98,
0.505,0.70,-0.58,0.18,0.22,0.02,0.98,
0.508,0.70,-0.58,0.18,0.21,0.02,0.98,
0.508,0.66,-0.63,0.17,0.21,0.02,0.98,
0.51,0.66,-0.63,0.17,0.20,0.02,0.98,
0.512,0.66,-0.63,0.17,0.19,0.03,0.98,
0.513,0.54,-0.62,0.18,0.19,0.03,0.98,
0.515,0.54,-0.62,0.18,0.18,0.03,0.98,
0.518,0.54,-0.62,0.18,0.17,0.04,0.98,
0.518,0.38,-0.56,0.20,0.17,0.04,0.98,
0.52,0.38,-0.56,0.20,0.16,0.04,0.98,
0.522,0.38,-0.56,0.20,0.16,0.04,0.98,
0.523,0.18,-0.46,0.21,0.16,0.04,0.98,
0.525,0.18,-0.46,0.21,0.15,0.04,0.98,
0.531,0.18,-0.46,0.21,0.15,0.04,0.97,
0.532,0.01,-0.42,0.18,0.15,0.04,0.97,
0.533,0.01,-0.42,0.18,0.14,0.04,0.97,
0.533,0.01,-0.42,0.18,0.14,0.04,0.97,
0.534,-0.10,-0.39,0.12,0.14,0.04,0.97,
0.535,-0.10,-0.39,0.12,0.14,0.04,0.97,
0.537,-0.10,-0.39,0.12,0.15,0.03,0.96,
0.538,-0.13,-0.41,0.07,0.15,0.03,0.96,
0.54,-0.13,-0.41,0.07,0.15,0.03,0.96,
0.542,-0.13,-0.41,0.07,0.15,0.03,0.95,
0.543,-0.11,-0.46,0.00,0.15,0.03,0.95,
0.545,-0.11,-0.46,0.00,0.16,0.03,0.95,
0.547,-0.11,-0.46,0.00,0.16,0.03,0.95,
0.547,-0.06,-0.51,-0.08,0.16,0.03,0.95,
0.549,-0.06,-0.51,-0.08,0.16,0.03,0.94,
0.552,-0.06,-0.51,-0.08,0.17,0.03,0.94,
0.552,0.02,-0.54,-0.16,0.17,0.03,0.94,
0.554,0.02,-0.54,-0.16,0.17,0.03,0.94,
0.557,0.02,-0.54,-0.16,0.17,0.03,0.94,
0.557,0.08,-0.55,-0.22,0.17,0.03,0.94,
0.566,0.08,-0.55,-0.22,0.17,0.04,0.94,
0.567,0.08,-0.55,-0.22,0.17,0.04,0.94,
0.567,0.12,-0.51,-0.25,0.17,0.04,0.94,
0.567,0.12,-0.51,-0.25,0.17,0.04,0.94,
0.567,0.12,-0.51,-0.25,0.18,0.04,0.94,
0.568,0.15,-0.45,-0.27,0.18,0.04,0.94,
0.569,0.15,-0.45,-0.27,0.18,0.04,0.94,
0.571,0.15,-0.45,-0.27,0.19,0.04,0.93,
0.571,0.20,-0.41,-0.24,0.19,0.04,0.93,
0.574,0.20,-0.41,-0.24,0.19,0.04,0.93,
0.576,0.20,-0.41,-0.24,0.19,0.05,0.94,
0.577,0.28,-0.38,-0.26,0.19,0.05,0.94,
0.579,0.28,-0.38,-0.26,0.19,0.05,0.93,
0.581,0.28,-0.38,-0.26,0.19,0.05,0.94,
0.582,0.34,-0.37,-0.27,0.19,0.05,0.94,
0.583,0.34,-0.37,-0.27,0.19,0.06,0.94,
0.586,0.34,-0.37,-0.27,0.18,0.06,0.94,
0.586,0.34,-0.32,-0.27,0.18,0.06,0.94,
0.588,0.34,-0.32,-0.27,0.18,0.07,0.94,
0.591,0.34,-0.32,-0.27,0.17,0.08,0.94,
0.591,0.29,-0.20,-0.25,0.17,0.08,0.94,
0.593,0.29,-0.20,-0.25,0.16,0.08,0.94,
0.596,0.29,-0.20,-0.25,0.15,0.09,0.94,
0.596,0.19,-0.06,-0.20,0.15,0.09,0.94,
0.598,0.19,-0.06,-0.20,0.14,0.10,0.94,
0.601,0.19,-0.06,-0.20,0.13,0.10,0.94,
0.601,0.04,0.06,-0.20,0.13,0.10,0.94,
0.603,0.04,0.06,-0.20,0.12,0.10,0.94,
0.606,0.04,0.06,-0.20,0.12,0.10,0.94,
0.606,-0.15,0.17,-0.21,0.12,0.10,0.94,
0.608,-0.15,0.17,-0.21,0.12,0.10,0.94,
0.611,-0.15,0.17,-0.21,0.11,0.10,0.94,
0.611,-0.28,0.20,-0.21,0.11,0.10,0.94,
0.613,-0.28,0.20,-0.21,0.11,0.10,0.94,
0.616,-0.28,0.20,-0.21,0.11,0.10,0.93,
0.616,-0.33,0.17,-0.23,0.11,0.10,0.93,
0.618,-0.33,0.17,-0.23,0.11,0.09,0.93,
0.621,-0.33,0.17,-0.23,0.11,0.09,0.93,
0.621,-0.36,0.13,-0.28,0.11,0.09,0.93,
0.623,-0.36,0.13,-0.28,0.11,0.09,0.93,
0.625,-0.36,0.13,-0.28,0.11,0.08,0.92,
0.625,-0.36,0.07,-0.31,0.11,0.08,0.92,
0.628,-0.36,0.07,-0.31,0.11,0.08,0.92,
0.63,-0.36,0.07,-0.31,0.11,0.07,0.92,
0.631,-0.34,-0.01,-0.37,0.11,0.07,0.92,
0.633,-0.34,-0.01,-0.37,0.12,0.06,0.92,
0.635,-0.34,-0.01,-0.37,0.12,0.06,0.92,
0.635,-0.30,-0.10,-0.40,0.12,0.06,0.92,
0.637,-0.30,-0.10,-0.40,0.12,0.05,0.92,
0.64,-0.30,-0.10,-0.40,0.13,0.05,0.92,
0.64,-0.27,-0.23,-0.41,0.13,0.05,0.92,
0.649,-0.27,-0.23,-0.41,0.13,0.04,0.92,
0.649,-0.27,-0.23,-0.41,0.13,0.04,0.92,
0.649,-0.20,-0.33,-0.41,0.13,0.04,0.92,
0.65,-0.20,-0.33,-0.41,0.13,0.04,0.92,
0.65,-0.20,-0.33,-0.41,0.13,0.04,0.92,
0.65,-0.16,-0.42,-0.41,0.13,0.04,0.92,
0.652,-0.16,-0.42,-0.41,0.13,0.04,0.92,
0.655,-0.16,-0.42,-0.41,0.13,0.04,0.92,
0.655,-0.15,-0.44,-0.39,0.13,0.04,0.92,
0.657,-0.15,-0.44,-0.39,0.13,0.04,0.93,
0.664,-0.15,-0.44,-0.39,0.13,0.04,0.93,
0.664,-0.15,-0.45,-0.36,0.13,0.04,0.93,
0.665,-0.15,-0.45,-0.36,0.13,0.04,0.93,
0.665,-0.15,-0.45,-0.36,0.12,0.04,0.93,
0.665,-0.17,-0.45,-0.30,0.12,0.04,0.93,
0.667,-0.17,-0.45,-0.30,0.12,0.04,0.93,
0.669,-0.17,-0.45,-0.30,0.11,0.05,0.94,
0.669,-0.23,-0.43,-0.27,0.11,0.05,0.94,
0.672,-0.23,-0.43,-0.27,0.11,0.05,0.94,
0.674,-0.23,-0.43,-0.27,0.10,0.06,0.94,
0.674,-0.33,-0.36,-0.21,0.10,0.06,0.94,
0.677,-0.33,-0.36,-0.21,0.10,0.06,0.95,
0.679,-0.33,-0.36,-0.21,0.09,0.07,0.95,
0.679,-0.45,-0.26,-0.15,0.09,0.07,0.95,
0.682,-0.45,-0.26,-0.15,0.08,0.07,0.95,
0.684,-0.45,-0.26,-0.15,0.07,0.07,0.95,
0.684,-0.57,-0.18,-0.09,0.07,0.07,0.95,
0.687,-0.57,-0.18,-0.09,0.07,0.07,0.96,
0.689,-0.57,-0.18,-0.09,0.07,0.07,0.96,
0.689,-0.70,-0.12,-0.04,0.07,0.07,0.96,
0.691,-0.70,-0.12,-0.04,0.07,0.07,0.96,
0.694,-0.70,-0.12,-0.04,0.07,0.07,0.96,
0.694,-0.76,-0.10,-0.01,0.07,0.07,0.96,
0.696,-0.76,-0.10,-0.01,0.08,0.07,0.95,
0.698,-0.76,-0.10,-0.01,0.08,0.06,0.95,
0.699,-0.76,-0.11,0.01,0.08,0.06,0.95,
0.701,-0.76,-0.11,0.01,0.08,0.05,0.95,
0.703,-0.76,-0.11,0.01,0.09,0.05,0.95,
0.704,-0.70,-0.18,-0.03,0.09,0.05,0.95,
0.706,-0.70,-0.18,-0.03,0.10,0.04,0.95,
0.708,-0.70,-0.18,-0.03,0.11,0.03,0.95,
0.71,-0.61,-0.29,-0.05,0.11,0.03,0.95,
0.711,-0.61,-0.29,-0.05,0.11,0.03,0.94,
0.713,-0.61,-0.29,-0.05,0.12,0.02,0.94,
0.714,-0.45,-0.41,-0.09,0.12,0.02,0.94,
0.716,-0.45,-0.41,-0.09,0.12,0.02,0.94,
0.718,-0.45,-0.41,-0.09,0.12,0.02,0.93,
0.718,-0.34,-0.55,-0.15,0.12,0.02,0.93,
0.721,-0.34,-0.55,-0.15,0.12,0.01,0.93,
0.723,-0.34,-0.55,-0.15,0.12,0.01,0.93,
0.724,-0.30,-0.62,-0.21,0.12,0.01,0.93,
0.727,-0.30,-0.62,-0.21,0.11,0.01,0.93,
0.729,-0.30,-0.62,-0.21,0.11,0.02,0.93,
0.729,-0.31,-0.66,-0.24,0.11,0.02,0.93,
0.73,-0.31,-0.66,-0.24,0.11,0.02,0.93,
0.733,-0.31,-0.66,-0.24,0.10,0.02,0.93,
0.733,-0.36,-0.64,-0.26,0.10,0.02,0.93,
0.735,-0.36,-0.64,-0.26,0.10,0.02,0.93,
0.738,-0.36,-0.64,-0.26,0.10,0.03,0.94,
0.738,-0.43,-0.58,-0.23,0.10,0.03,0.94,
0.74,-0.43,-0.58,-0.23,0.10,0.03,0.94,
0.743,-0.43,-0.58,-0.23,0.10,0.03,0.94,
0.743,-0.50,-0.52,-0.20,0.10,0.03,0.94,
0.745,-0.50,-0.52,-0.20,0.10,0.03,0.94,
0.748,-0.50,-0.52,-0.20,0.10,0.03,0.94,
0.748,-0.50,-0.46,-0.14,0.10,0.03,0.94,
0.75,-0.50,-0.46,-0.14,0.10,0.04,0.95,
0.753,-0.50,-0.46,-0.14,0.10,0.04,0.95,
0.753,-0.50,-0.41,-0.10,0.10,0.04,0.95,
0.755,-0.50,-0.41,-0.10,0.10,0.04,0.95,
0.758,-0.50,-0.41,-0.10,0.10,0.05,0.95,
0.758,-0.49,-0.35,-0.06,0.10,0.05,0.95,
0.765,-0.49,-0.35,-0.06,0.09,0.05,0.96,
0.766,-0.49,-0.35,-0.06,0.09,0.06,0.96,
0.766,-0.51,-0.27,-0.01,0.09,0.06,0.96,
0.766,-0.51,-0.27,-0.01,0.09,0.07,0.96,
0.767,-0.51,-0.27,-0.01,0.08,0.07,0.97,
0.767,-0.53,-0.16,0.03,0.08,0.07,0.97,
0.769,-0.53,-0.16,0.03,0.08,0.07,0.97,
0.772,-0.53,-0.16,0.03,0.08,0.07,0.97,
0.773,-0.61,-0.03,0.11,0.08,0.07,0.97,
0.775,-0.61,-0.03,0.11,0.08,0.07,0.97,
0.779,-0.61,-0.03,0.11,0.08,0.07,0.97,
0.779,-0.68,0.04,0.17,0.08,0.07,0.97,
0.779,-0.68,0.04,0.17,0.08,0.07,0.98,
0.782,-0.68,0.04,0.17,0.08,0.07,0.97,
0.782,-0.69,0.04,0.18,0.08,0.07,0.97,
0.784,-0.69,0.04,0.18,0.09,0.06,0.97,
0.787,-0.69,0.04,0.18,0.09,0.06,0.97,
0.787,-0.64,-0.01,0.18,0.09,0.06,0.97,
0.789,-0.64,-0.01,0.18,0.10,0.05,0.97,
0.793,-0.64,-0.01,0.18,0.11,0.04,0.96,
0.793,-0.56,-0.11,0.12,0.11,0.04,0.96,
0.794,-0.56,-0.11,0.12,0.11,0.03,0.96,
0.797,-0.56,-0.11,0.12,0.12,0.03,0.96,
0.797,-0.43,-0.21,0.09,0.12,0.03,0.96,
0.799,-0.43,-0.21,0.09,0.13,0.02,0.96,
0.801,-0.43,-0.21,0.09,0.13,0.01,0.95,
0.802,-0.29,-0.37,0.06,0.13,0.01,0.95,
0.804,-0.29,-0.37,0.06,0.13,0.01,0.95,
0.806,-0.29,-0.37,0.06,0.14,0.01,0.95,
0.807,-0.17,-0.49,-0.01,0.14,0.01,0.95,
0.809,-0.17,-0.49,-0.01,0.14,0.00,0.95,
0.811,-0.17,-0.49,-0.01,0.14,0.01,0.95,
0.812,-0.11,-0.57,-0.07,0.14,0.01,0.95,
0.814,-0.11,-0.57,-0.07,0.14,0.01,0.95,
0.816,-0.11,-0.57,-0.07,0.14,0.01,0.94,
0.816,-0.07,-0.59,-0.09,0.14,0.01,0.94,
0.818,-0.07,-0.59,-0.09,0.14,0.01,0.94,
0.821,-0.07,-0.59,-0.09,0.13,0.02,0.94,
0.821,-0.07,-0.57,-0.11,0.13,0.02,0.94,
0.824,-0.07,-0.57,-0.11,0.13,0.02,0.94,
0.827,-0.07,-0.57,-0.11,0.13,0.03,0.94,
0.828,-0.13,-0.49,-0.12,0.13,0.03,0.94,
0.829,-0.13,-0.49,-0.12,0.12,0.03,0.94,
0.831,-0.13,-0.49,-0.12,0.11,0.04,0.94,
0.831,-0.18,-0.39,-0.12,0.11,0.04,0.94,
0.833,-0.18,-0.39,-0.12,0.11,0.05,0.94,
0.836,-0.18,-0.39,-0.12,0.10,0.06,0.94,
0.836,-0.29,-0.26,-0.14,0.10,0.06,0.94,
0.838,-0.29,-0.26,-0.14,0.09,0.06,0.94,
0.841,-0.29,-0.26,-0.14,0.09,0.07,0.94,
0.841,-0.39,-0.11,-0.14,0.09,0.07,0.94,
0.843,-0.39,-0.11,-0.14,0.08,0.08,0.93,
0.846,-0.39,-0.11,-0.14,0.08,0.08,0.93,
0.846,-0.51,0.04,-0.18,0.08,0.08,0.93,
0.848,-0.51,0.04,-0.18,0.07,0.08,0.93,
0.851,-0.51,0.04,-0.18,0.07,0.09,0.92,
0.851,-0.61,0.16,-0.24,0.07,0.09,0.92,
0.853,-0.61,0.16,-0.24,0.07,0.08,0.92,
0.855,-0.61,0.16,-0.24,0.07,0.08,0.92,
0.856,-0.66,0.22,-0.30,0.07,0.08,0.92,
0.858,-0.66,0.22,-0.30,0.08,0.07,0.91,
0.865,-0.66,0.22,-0.30,0.09,0.06,0.91,
0.865,-0.64,0.18,-0.36,0.09,0.06,0.91,
0.866,-0.64,0.18,-0.36,0.09,0.05,0.90,
0.866,-0.64,0.18,-0.36,0.10,0.04,0.89,
0.866,-0.53,0.04,-0.45,0.10,0.04,0.89,
0.867,-0.53,0.04,-0.45,0.10,0.03,0.88,
0.87,-0.53,0.04,-0.45,0.10,0.02,0.88,
0.871,-0.41,-0.17,-0.59,0.10,0.02,0.88,
0.872,-0.41,-0.17,-0.59,0.10,0.01,0.87,
0.876,-0.41,-0.17,-0.59,0.11,0.01,0.87,
0.876,-0.35,-0.34,-0.74,0.11,0.01,0.87,
0.878,-0.35,-0.34,-0.74,0.11,-0.00,0.87,
0.88,-0.35,-0.34,-0.74,0.10,-0.00,0.87,
0.88,-0.27,-0.50,-0.81,0.10,-0.00,0.87,
0.882,-0.27,-0.50,-0.81,0.10,-0.00,0.87,
0.885,-0.27,-0.50,-0.81,0.09,-0.00,0.88,
0.885,-0.26,-0.60,-0.81,0.09,-0.00,0.88,
0.887,-0.26,-0.60,-0.81,0.09,0.00,0.88,
0.889,-0.26,-0.60,-0.81,0.08,0.01,0.89,
0.89,-0.36,-0.58,-0.76,0.08,0.01,0.89,
0.892,-0.36,-0.58,-0.76,0.07,0.02,0.89,
0.895,-0.36,-0.58,-0.76,0.07,0.03,0.90,
0.895,-0.49,-0.47,-0.65,0.07,0.03,0.90,
0.897,-0.49,-0.47,-0.65,0.06,0.03,0.91,
0.899,-0.49,-0.47,-0.65,0.06,0.04,0.92,
0.9,-0.63,-0.30,-0.53,0.06,0.04,0.92,
0.902,-0.63,-0.30,-0.53,0.06,0.05,0.92,
0.904,-0.63,-0.30,-0.53,0.06,0.05,0.93,
0.904,-0.73,-0.13,-0.37,0.06,0.05,0.93,
0.906,-0.73,-0.13,-0.37,0.07,0.05,0.94,
0.909,-0.73,-0.13,-0.37,0.07,0.06,0.94,
0.91,-0.73,0.00,-0.22,0.07,0.06,0.94,
0.912,-0.73,0.00,-0.22,0.08,0.06,0.95,
0.914,-0.73,0.00,-0.22,0.08,0.06,0.96,
0.915,-0.63,0.07,-0.10,0.08,0.06,0.96,
0.916,-0.63,0.07,-0.10,0.08,0.07,0.96,
0.919,-0.63,0.07,-0.10,0.08,0.07,0.97,
0.919,-0.57,0.15,0.03,0.08,0.07,0.97,
0.921,-0.57,0.15,0.03,0.09,0.07,0.97,
0.924,-0.57,0.15,0.03,0.09,0.07,0.98,
0.924,-0.53,0.23,0.13,0.09,0.07,0.98,
0.926,-0.53,0.23,0.13,0.10,0.08,0.98,
0.929,-0.53,0.23,0.13,0.11,0.07,0.98,
0.93,-0.47,0.30,0.24,0.11,0.07,0.98,
0.931,-0.47,0.30,0.24,0.11,0.07,0.99,
0.934,-0.47,0.30,0.24,0.12,0.06,0.99,
0.934,-0.34,0.30,0.29,0.12,0.06,0.99,
0.936,-0.34,0.30,0.29,0.13,0.06,0.98,
0.939,-0.34,0.30,0.29,0.14,0.05,0.98,
0.939,-0.19,0.23,0.35,0.14,0.05,0.98,
0.941,-0.19,0.23,0.35,0.15,0.05,0.98,
0.944,-0.19,0.23,0.35,0.15,0.04,0.98,
0.944,-0.03,0.14,0.31,0.15,0.04,0.98,
0.946,-0.03,0.14,0.31,0.15,0.03,0.97,
0.948,-0.03,0.14,0.31,0.16,0.02,0.96,
0.949,0.09,0.02,0.25,0.16,0.02,0.96,
0.951,0.09,0.02,0.25,0.16,0.01,0.96,
0.953,0.09,0.02,0.25,0.16,0.00,0.95,
0.956,0.17,-0.15,0.14,0.16,0.00,0.95,
0.956,0.17,-0.15,0.14,0.16,-0.01,0.95,
0.964,0.17,-0.15,0.14,0.16,-0.02,0.95,
0.965,0.22,-0.33,0.03,0.16,-0.02,0.95,
0.965,0.22,-0.33,0.03,0.15,-0.02,0.94,
0.966,0.22,-0.33,0.03,0.14,-0.03,0.94,
0.966,0.20,-0.48,-0.04,0.14,-0.03,0.94,
0.966,0.20,-0.48,-0.04,0.14,-0.03,0.94,
0.968,0.20,-0.48,-0.04,0.12,-0.03,0.94,
0.968,0.09,-0.58,-0.10,0.12,-0.03,0.94,
0.97,0.09,-0.58,-0.10,0.11,-0.02,0.94,
0.973,0.09,-0.58,-0.10,0.10,-0.02,0.94,
0.973,-0.08,-0.60,-0.14,0.10,-0.02,0.94,
0.977,-0.08,-0.60,-0.14,0.09,-0.01,0.94,
0.978,-0.08,-0.60,-0.14,0.08,-0.00,0.95,
0.978,-0.29,-0.53,-0.13,0.08,-0.00,0.95,
0.98,-0.29,-0.53,-0.13,0.08,0.00,0.95,
0.983,-0.29,-0.53,-0.13,0.07,0.01,0.96,
0.983,-0.48,-0.39,-0.05,0.07,0.01,0.96,
0.985,-0.48,-0.39,-0.05,0.07,0.03,0.97,
0.987,-0.48,-0.39,-0.05,0.07,0.04,0.97,
0.988,-0.63,-0.20,0.06,0.07,0.04,0.97,
0.99,-0.63,-0.20,0.06,0.06,0.05,0.97,
0.992,-0.63,-0.20,0.06,0.06,0.06,0.98,
0.993,-0.70,0.03,0.17,0.06,0.06,0.98,
0.995,-0.70,0.03,0.17,0.07,0.06,0.98,
0.998,-0.70,0.03,0.17,0.07,0.07,0.98,
0.998,-0.74,0.24,0.23,0.07,0.07,0.98,
1.0,-0.74,0.24,0.23,0.08,0.08,0.99,
1.002,-0.74,0.24,0.23,0.08,0.08,0.99,
1.002,-0.69,0.41,0.28,0.08,0.08,0.99,
1.004,-0.69,0.41,0.28,0.09,0.09,0.99,
1.007,-0.69,0.41,0.28,0.10,0.09,0.99,
1.007,-0.61,0.55,0.34,0.10,0.09,0.99,
1.009,-0.61,0.55,0.34,0.10,0.10,1.00,
1.013,-0.61,0.55,0.34,0.11,0.10,1.00,
1.013,-0.48,0.66,0.40,0.11,0.10,1.00,
1.015,-0.48,0.66,0.40,0.11,0.10,1.00,
1.017,-0.48,0.66,0.40,0.12,0.10,1.01,
1.017,-0.35,0.72,0.45,0.12,0.10,1.01,
1.019,-0.35,0.72,0.45,0.13,0.10,1.01,
1.022,-0.35,0.72,0.45,0.14,0.09,1.01,
1.022,-0.24,0.73,0.50,0.14,0.09,1.01,
1.024,-0.24,0.73,0.50,0.14,0.09,1.01,
1.027,-0.24,0.73,0.50,0.15,0.08,1.00,
1.027,-0.10,0.67,0.54,0.15,0.08,1.00,
1.029,-0.10,0.67,0.54,0.15,0.07,1.00,
1.032,-0.10,0.67,0.54,0.15,0.06,0.99,
1.032,0.01,0.57,0.49,0.15,0.06,0.99,
1.034,0.01,0.57,0.49,0.16,0.05,0.99,
1.036,0.01,0.57,0.49,0.16,0.04,0.98,
1.037,0.08,0.42,0.40,0.16,0.04,0.98,
1.039,0.08,0.42,0.40,0.16,0.03,0.98,
1.043,0.08,0.42,0.40,0.16,0.02,0.98,
1.043,0.14,0.21,0.32,0.16,0.02,0.98,
1.044,0.14,0.21,0.32,0.15,0.01,0.97,
1.046,0.14,0.21,0.32,0.15,-0.00,0.97,
1.047,0.14,-0.01,0.23,0.15,-0.00,0.97,
1.049,0.14,-0.01,0.23,0.14,-0.01,0.97,
1.051,0.14,-0.01,0.23,0.12,-0.02,0.96,
1.051,0.05,-0.23,0.15,0.12,-0.02,0.96,
1.054,0.05,-0.23,0.15,0.11,-0.02,0.96,
1.056,-0.15,-0.39,0.10,0.11,-0.02,0.96,
1.057,-0.15,-0.39,0.10,0.10,-0.02,0.96,
1.059,-0.15,-0.39,0.10,0.08,-0.03,0.96,
1.061,-0.15,-0.39,0.10,0.06,-0.02,0.96,
1.062,-0.42,-0.46,0.06,0.06,-0.02,0.96,
1.064,-0.42,-0.46,0.06,0.05,-0.02,0.96,
1.066,-0.42,-0.46,0.06,0.03,-0.02,0.97,
1.066,-0.73,-0.47,0.05,0.03,-0.02,0.97,
1.068,-0.73,-0.47,0.05,0.02,-0.01,0.97,
1.071,-0.73,-0.47,0.05,0.01,-0.01,0.98,
1.071,-1.02,-0.41,0.11,0.01,-0.01,0.98,
1.073,-1.02,-0.41,0.11,-0.01,-0.01,0.98,
1.081,-1.02,-0.41,0.11,-0.02,0.00,0.98,
1.081,-1.29,-0.33,0.19,-0.02,0.00,0.98,
1.082,-1.29,-0.33,0.19,-0.03,0.01,0.98,
1.082,-1.29,-0.33,0.19,-0.04,0.02,0.99,
1.082,-1.55,-0.20,0.25,-0.04,0.02,0.99,
1.083,-1.55,-0.20,0.25,-0.04,0.03,0.99,
1.085,-1.55,-0.20,0.25,-0.04,0.03,0.99,
1.086,-1.74,-0.04,0.31,-0.04,0.03,0.99,
1.088,-1.74,-0.04,0.31,-0.04,0.04,0.99,
1.09,-1.74,-0.04,0.31,-0.03,0.04,0.99,
1.091,-1.80,0.12,0.35,-0.03,0.04,0.99,
1.093,-1.80,0.12,0.35,-0.02,0.04,1.00,
1.095,-1.80,0.12,0.35,-0.01,0.04,1.00,
1.095,-1.73,0.21,0.38,-0.01,0.04,1.00,
1.098,-1.73,0.21,0.38,0.01,0.03,1.00,
1.1,-1.73,0.21,0.38,0.02,0.03,1.00,
1.101,-1.53,0.23,0.40,0.02,0.03,1.00,
1.102,-1.53,0.23,0.40,0.04,0.03,0.99,
1.105,-1.53,0.23,0.40,0.05,0.02,0.99,
1.105,-1.24,0.18,0.42,0.05,0.02,0.99,
1.107,-1.24,0.18,0.42,0.07,0.02,0.99,
1.11,-1.24,0.18,0.42,0.08,0.01,0.99,
1.11,-0.92,0.11,0.37,0.08,0.01,0.99,
1.112,-0.92,0.11,0.37,0.10,0.01,0.99,
1.115,-0.92,0.11,0.37,0.11,0.01,0.98,
1.115,-0.63,0.04,0.33,0.11,0.01,0.98,
1.118,-0.63,0.04,0.33,0.12,0.00,0.98,
1.12,-0.63,0.04,0.33,0.12,0.00,0.99,
1.12,-0.37,-0.02,0.29,0.12,0.00,0.99,
1.122,-0.37,-0.02,0.29,0.13,-0.00,0.98,
1.126,-0.37,-0.02,0.29,0.13,-0.00,0.98,
1.126,-0.20,-0.05,0.28,0.13,-0.00,0.98,
1.127,-0.20,-0.05,0.28,0.13,-0.01,0.98,
1.13,-0.20,-0.05,0.28,0.13,-0.01,0.98,
1.13,-0.10,-0.10,0.26,0.13,-0.01,0.98,
1.132,-0.10,-0.10,0.26,0.13,-0.01,0.98,
1.135,-0.10,-0.10,0.26,0.12,-0.01,0.98,
1.135,-0.09,-0.12,0.26,0.12,-0.01,0.98,
1.137,-0.09,-0.12,0.26,0.11,-0.00,0.99,
1.14,-0.09,-0.12,0.26,0.11,-0.01,0.99,
1.14,-0.17,-0.10,0.27,0.11,-0.01,0.99,
1.143,-0.17,-0.10,0.27,0.10,-0.01,0.99,
1.145,-0.17,-0.10,0.27,0.09,-0.01,0.99,
1.145,-0.30,-0.07,0.29,0.09,-0.01,0.99,
1.147,-0.30,-0.07,0.29,0.09,-0.01,0.99,
1.149,-0.30,-0.07,0.29,0.08,-0.01,1.00,
1.149,-0.44,-0.07,0.32,0.08,-0.01,1.00,
1.152,-0.44,-0.07,0.32,0.07,-0.00,1.01,
1.154,-0.44,-0.07,0.32,0.06,0.00,1.01,
1.154,-0.59,-0.06,0.38,0.06,0.00,1.01,
1.156,-0.59,-0.06,0.38,0.05,0.01,1.02,
1.159,-0.59,-0.06,0.38,0.04,0.02,1.03,
1.16,-0.79,0.02,0.50,0.04,0.02,1.03,
1.161,-0.79,0.02,0.50,0.03,0.03,1.03,
1.164,-0.79,0.02,0.50,0.02,0.04,1.04,
1.164,-1.00,0.20,0.65,0.02,0.04,1.04,
1.166,-1.00,0.20,0.65,0.01,0.05,1.05,
1.169,-1.00,0.20,0.65,0.01,0.06,1.05,
1.169,-1.18,0.39,0.76,0.01,0.06,1.05,
1.171,-1.18,0.39,0.76,0.01,0.07,1.06,
1.173,-1.18,0.39,0.76,0.02,0.07,1.06,
1.174,-1.28,0.59,0.88,0.02,0.07,1.06,
1.177,-1.28,0.59,0.88,0.02,0.08,1.07,
1.178,-1.28,0.59,0.88,0.03,0.08,1.07,
1.178,-1.26,0.75,0.98,0.03,0.08,1.07,
1.181,-1.26,0.75,0.98,0.04,0.08,1.07,
1.183,-1.26,0.75,0.98,0.05,0.08,1.07,
1.184,-1.14,0.85,1.06,0.05,0.08,1.07,
1.186,-1.14,0.85,1.06,0.07,0.08,1.07,
1.188,-1.14,0.85,1.06,0.08,0.08,1.07,
1.188,-0.94,0.89,1.09,0.08,0.08,1.07,
1.19,-0.94,0.89,1.09,0.09,0.08,1.07,
1.193,-0.94,0.89,1.09,0.10,0.07,1.07,
1.193,-0.69,0.87,1.08,0.10,0.07,1.07,
1.195,-0.69,0.87,1.08,0.11,0.07,1.06,
1.198,-0.69,0.87,1.08,0.12,0.07,1.06,
1.198,-0.45,0.84,1.03,0.12,0.07,1.06,
1.2,-0.45,0.84,1.03,0.13,0.07,1.06,
1.203,-0.25,0.81,0.97,0.13,0.07,1.06,
1.203,-0.25,0.81,0.97,0.14,0.06,1.06,
1.205,-0.25,0.81,0.97,0.14,0.06,1.05,
1.208,-0.09,0.73,0.91,0.14,0.06,1.05,
1.209,-0.09,0.73,0.91,0.15,0.06,1.05,
1.21,-0.09,0.73,0.91,0.15,0.06,1.05,
1.213,-0.09,0.73,0.91,0.15,0.05,1.04,
1.214,0.00,0.69,0.84,0.15,0.05,1.04,
1.215,0.00,0.69,0.84,0.15,0.05,1.03,
1.218,0.00,0.69,0.84,0.14,0.05,1.03,
1.218,0.04,0.64,0.75,0.14,0.05,1.03,
1.22,0.04,0.64,0.75,0.14,0.04,1.02,
1.223,0.04,0.64,0.75,0.14,0.04,1.02,
1.223,0.02,0.58,0.63,0.14,0.04,1.02,
1.225,0.02,0.58,0.63,0.13,0.03,1.01,
1.228,0.02,0.58,0.63,0.13,0.03,1.01,
1.229,-0.03,0.49,0.52,0.13,0.03,1.01,
1.23,-0.03,0.49,0.52,0.12,0.02,1.00,
1.233,-0.03,0.49,0.52,0.12,0.02,1.00,
1.233,-0.11,0.40,0.43,0.12,0.02,1.00,
1.235,-0.11,0.40,0.43,0.11,0.01,1.00,
1.238,-0.11,0.40,0.43,0.10,0.01,0.99,
1.238,-0.19,0.30,0.33,0.10,0.01,0.99,
1.24,-0.19,0.30,0.33,0.10,0.00,0.99,
1.242,-0.19,0.30,0.33,0.09,0.00,0.99,
1.243,-0.31,0.20,0.25,0.09,0.00,0.99,
1.245,-0.31,0.20,0.25,0.08,0.00,0.99,
1.247,-0.31,0.20,0.25,0.07,0.00,0.99,
1.248,-0.42,0.15,0.22,0.07,0.00,0.99,
1.249,-0.42,0.15,0.22,0.07,0.01,0.99,
1.252,-0.42,0.15,0.22,0.06,0.01,0.99,
1.252,-0.57,0.16,0.20,0.06,0.01,0.99,
1.255,-0.57,0.16,0.20,0.06,0.01,0.99,
1.257,-0.57,0.16,0.20,0.05,0.01,0.99,
1.257,-0.69,0.21,0.20,0.05,0.01,0.99,
1.265,-0.69,0.21,0.20,0.05,0.02,0.99,
1.265,-0.69,0.21,0.20,0.05,0.02,1.00,
1.266,-0.76,0.26,0.21,0.05,0.02,1.00,
1.266,-0.76,0.26,0.21,0.05,0.03,1.00,
1.267,-0.76,0.26,0.21,0.05,0.03,1.00,
1.267,-0.80,0.35,0.24,0.05,0.03,1.00,
1.269,-0.80,0.35,0.24,0.05,0.04,1.01,
1.272,-0.80,0.35,0.24,0.05,0.05,1.01,
1.272,-0.82,0.46,0.31,0.05,0.05,1.01,
1.28,-0.82,0.46,0.31,0.05,0.05,1.01,
1.28,-0.82,0.46,0.31,0.06,0.06,1.01,
1.28,-0.79,0.61,0.36,0.06,0.06,1.01,
1.28,-0.79,0.61,0.36,0.06,0.06,1.02,
1.282,-0.79,0.61,0.36,0.07,0.07,1.02,
1.282,-0.73,0.73,0.40,0.07,0.07,1.02,
1.284,-0.73,0.73,0.40,0.08,0.06,1.02,
1.286,-0.73,0.73,0.40,0.09,0.07,1.02,
1.286,-0.59,0.83,0.45,0.09,0.07,1.02,
1.289,-0.59,0.83,0.45,0.09,0.07,1.03,
1.291,-0.59,0.83,0.45,0.10,0.07,1.03,
1.291,-0.44,0.86,0.50,0.10,0.07,1.03,
1.293,-0.44,0.86,0.50,0.11,0.07,1.03,
1.296,-0.44,0.86,0.50,0.12,0.06,1.03,
1.296,-0.29,0.90,0.52,0.12,0.06,1.03,
1.298,-0.29,0.90,0.52,0.13,0.06,1.03,
1.301,-0.10,0.87,0.53,0.13,0.06,1.03,
1.302,-0.10,0.87,0.53,0.14,0.06,1.03,
1.303,-0.10,0.87,0.53,0.15,0.06,1.03,
1.306,-0.10,0.87,0.53,0.16,0.05,1.03,
1.306,0.11,0.82,0.54,0.16,0.05,1.03,
1.308,0.11,0.82,0.54,0.16,0.05,1.03,
1.311,0.11,0.82,0.54,0.17,0.05,1.03,
1.311,0.27,0.77,0.54,0.17,0.05,1.03,
1.313,0.27,0.77,0.54,0.17,0.05,1.03,
1.316,0.27,0.77,0.54,0.18,0.05,1.03,
1.316,0.36,0.73,0.55,0.18,0.05,1.03,
1.318,0.36,0.73,0.55,0.18,0.06,1.04,
1.32,0.36,0.73,0.55,0.18,0.06,1.04,
1.321,0.44,0.75,0.56,0.18,0.06,1.04,
1.323,0.44,0.75,0.56,0.18,0.07,1.04,
1.326,0.44,0.75,0.56,0.18,0.08,1.04,
1.326,0.45,0.81,0.61,0.18,0.08,1.04,
1.328,0.45,0.81,0.61,0.18,0.09,1.04,
1.33,0.45,0.81,0.61,0.18,0.09,1.04,
1.331,0.47,0.94,0.64,0.18,0.09,1.04,
1.333,0.47,0.94,0.64,0.18,0.10,1.04,
1.335,0.47,0.94,0.64,0.18,0.10,1.04,
1.336,0.45,1.07,0.63,0.18,0.10,1.04,
1.338,0.45,1.07,0.63,0.18,0.11,1.04,
1.341,0.45,1.07,0.63,0.18,0.11,1.04,
1.342,0.47,1.17,0.60,0.18,0.11,1.04,
1.343,0.47,1.17,0.60,0.19,0.12,1.04,
1.345,0.47,1.17,0.60,0.19,0.12,1.04,
1.346,0.49,1.26,0.57,0.19,0.12,1.04,
1.347,0.49,1.26,0.57,0.19,0.13,1.04,
1.35,0.49,1.26,0.57,0.20,0.13,1.04,
1.35,0.55,1.36,0.57,0.20,0.13,1.04,
1.352,0.55,1.36,0.57,0.20,0.14,1.03,
1.355,0.55,1.36,0.57,0.20,0.14,1.03,
1.356,0.62,1.44,0.56,0.20,0.14,1.03,
1.358,0.62,1.44,0.56,0.20,0.14,1.03,
1.36,0.62,1.44,0.56,0.20,0.14,1.02,
1.36,0.68,1.50,0.51,0.20,0.14,1.02,
1.362,0.68,1.50,0.51,0.21,0.14,1.02,
1.365,0.68,1.50,0.51,0.21,0.15,1.01,
1.365,0.72,1.52,0.45,0.21,0.15,1.01,
1.367,0.72,1.52,0.45,0.21,0.15,1.01,
1.37,0.72,1.52,0.45,0.21,0.15,1.01,
1.37,0.78,1.53,0.36,0.21,0.15,1.01,
1.372,0.78,1.53,0.36,0.21,0.15,1.01,
1.38,0.78,1.53,0.36,0.21,0.15,1.01,
1.381,0.80,1.56,0.30,0.21,0.15,1.01,
1.381,0.80,1.56,0.30,0.21,0.15,1.01,
1.382,0.80,1.56,0.30,0.21,0.15,1.01,
1.382,0.79,1.57,0.28,0.21,0.15,1.01,
1.382,0.79,1.57,0.28,0.21,0.15,1.01,
1.385,0.79,1.57,0.28,0.21,0.15,1.01,
1.385,0.80,1.59,0.27,0.21,0.15,1.01,
1.387,0.80,1.59,0.27,0.21,0.14,1.01,
1.389,0.80,1.59,0.27,0.21,0.14,1.01,
1.39,0.80,1.56,0.28,0.21,0.14,1.01,
1.395,0.80,1.56,0.28,0.21,0.13,1.01,
1.395,0.80,1.56,0.28,0.21,0.13,1.00,
1.395,0.80,1.49,0.28,0.21,0.13,1.00,
1.396,0.80,1.49,0.28,0.21,0.12,1.00,
1.399,0.80,1.49,0.28,0.21,0.11,1.00,
1.399,0.82,1.37,0.23,0.21,0.11,1.00,
1.401,0.82,1.37,0.23,0.20,0.10,1.00,
1.404,0.82,1.37,0.23,0.20,0.09,1.00,
1.404,0.84,1.21,0.22,0.20,0.09,1.00,
1.406,0.84,1.21,0.22,0.19,0.09,1.00,
1.409,0.84,1.21,0.22,0.19,0.08,1.00,
1.409,0.78,1.04,0.17,0.19,0.08,1.00,
1.411,0.78,1.04,0.17,0.18,0.08,1.00,
1.414,0.78,1.04,0.17,0.17,0.07,1.00,
1.414,0.67,0.92,0.17,0.17,0.07,1.00,
1.416,0.67,0.92,0.17,0.16,0.07,1.00,
1.418,0.67,0.92,0.17,0.15,0.07,1.01,
1.419,0.51,0.84,0.20,0.15,0.07,1.01,
1.421,0.51,0.84,0.20,0.14,0.06,1.01,
1.424,0.51,0.84,0.20,0.14,0.06,1.01,
1.424,0.34,0.79,0.22,0.14,0.06,1.01,
1.426,0.34,0.79,0.22,0.13,0.06,1.01,
1.428,0.34,0.79,0.22,0.13,0.06,1.01,
1.429,0.22,0.75,0.24,0.13,0.06,1.01,
1.431,0.22,0.75,0.24,0.12,0.06,1.01,
1.433,0.22,0.75,0.24,0.12,0.05,1.01,
1.434,0.11,0.71,0.24,0.12,0.05,1.01,
1.436,0.11,0.71,0.24,0.12,0.05,1.01,
1.438,0.11,0.71,0.24,0.11,0.05,1.01,
1.438,0.03,0.69,0.26,0.11,0.05,1.01,
1.441,0.03,0.69,0.26,0.11,0.05,1.02,
1.443,0.03,0.69,0.26,0.11,0.05,1.02,
1.446,-0.02,0.66,0.29,0.11,0.05,1.02,
1.446,-0.02,0.66,0.29,0.11,0.05,1.02,
1.448,-0.02,0.66,0.29,0.12,0.04,1.02,
1.448,-0.03,0.65,0.33,0.12,0.04,1.02,
1.45,-0.03,0.65,0.33,0.12,0.04,1.02,
1.453,-0.03,0.65,0.33,0.12,0.04,1.02,
1.453,0.00,0.62,0.32,0.12,0.04,1.02,
1.455,0.00,0.62,0.32,0.12,0.04,1.02,
1.458,0.00,0.62,0.32,0.13,0.04,1.02,
1.459,0.06,0.58,0.32,0.13,0.04,1.02,
1.461,0.06,0.58,0.32,0.14,0.03,1.02,
1.463,0.06,0.58,0.32,0.15,0.03,1.02,
1.463,0.15,0.57,0.33,0.15,0.03,1.02,
1.465,0.15,0.57,0.33,0.15,0.02,1.02,
1.468,0.15,0.57,0.33,0.16,0.02,1.02,
1.468,0.29,0.50,0.33,0.16,0.02,1.02,
1.47,0.29,0.50,0.33,0.16,0.02,1.02,
1.472,0.29,0.50,0.33,0.17,0.01,1.01,
1.473,0.42,0.41,0.32,0.17,0.01,1.01,
1.48,0.42,0.41,0.32,0.17,0.01,1.01,
1.481,0.42,0.41,0.32,0.18,0.01,1.01,
1.481,0.54,0.35,0.30,0.18,0.01,1.01,
1.481,0.54,0.35,0.30,0.18,0.00,1.01,
1.482,0.54,0.35,0.30,0.18,0.00,1.01,
1.482,0.61,0.29,0.28,0.18,0.00,1.01,
1.485,0.61,0.29,0.28,0.18,0.00,1.01,
1.487,0.61,0.29,0.28,0.18,0.00,1.01,
1.487,0.66,0.26,0.26,0.18,0.00,1.01,
1.489,0.66,0.26,0.26,0.18,0.00,1.01,
1.493,0.66,0.26,0.26,0.18,0.00,1.01,
1.493,0.66,0.24,0.25,0.18,0.00,1.01,
1.495,0.66,0.24,0.25,0.17,0.00,1.01,
1.497,0.66,0.24,0.25,0.17,0.00,1.01,
1.497,0.63,0.23,0.24,0.17,0.00,1.01,
1.5,0.63,0.23,0.24,0.17,0.00,1.01,
1.502,0.63,0.23,0.24,0.16,0.01,1.01,
1.502,0.59,0.24,0.23,0.16,0.01,1.01,
1.504,0.59,0.24,0.23,0.16,0.01,1.01,
1.507,0.59,0.24,0.23,0.16,0.01,1.01,
1.508,0.53,0.26,0.22,0.16,0.01,1.01,
1.509,0.53,0.26,0.22,0.16,0.01,1.01,
1.512,0.53,0.26,0.22,0.15,0.02,1.01,
1.512,0.49,0.29,0.20,0.15,0.02,1.01,
1.514,0.49,0.29,0.20,0.15,0.02,1.00,
1.516,0.49,0.29,0.20,0.14,0.02,1.00,
1.516,0.40,0.35,0.20,0.14,0.02,1.00,
1.519,0.40,0.35,0.20,0.14,0.02,1.00,
1.521,0.40,0.35,0.20,0.14,0.03,1.00,
1.522,0.34,0.41,0.18,0.14,0.03,1.00,
1.524,0.34,0.41,0.18,0.14,0.03,1.00,
1.526,0.34,0.41,0.18,0.14,0.03,1.00,
1.527,0.30,0.46,0.18,0.14,0.03,1.00,
1.529,0.30,0.46,0.18,0.14,0.03,0.99,
1.531,0.30,0.46,0.18,0.14,0.03,0.99,
1.531,0.26,0.48,0.14,0.14,0.03,0.99,
1.533,0.26,0.48,0.14,0.14,0.03,0.99,
1.536,0.26,0.48,0.14,0.14,0.03,0.98,
1.536,0.27,0.46,0.07,0.14,0.03,0.98,
1.538,0.27,0.46,0.07,0.14,0.03,0.98,
1.541,0.27,0.46,0.07,0.13,0.03,0.98,
1.542,0.24,0.45,-0.00,0.13,0.03,0.98,
1.543,0.24,0.45,-0.00,0.14,0.03,0.98,
1.546,0.24,0.45,-0.00,0.14,0.03,0.98,
1.546,0.23,0.45,-0.04,0.14,0.03,0.98,
1.548,0.23,0.45,-0.04,0.14,0.03,0.98,
1.551,0.23,0.45,-0.04,0.14,0.03,0.97,
1.551,0.25,0.46,-0.06,0.14,0.03,0.97,
1.553,0.25,0.46,-0.06,0.15,0.03,0.97,
1.556,0.25,0.46,-0.06,0.15,0.02,0.97,
1.556,0.30,0.46,-0.10,0.15,0.02,0.97,
1.563,0.30,0.46,-0.10,0.16,0.02,0.97,
1.564,0.30,0.46,-0.10,0.16,0.02,0.97,
1.564,0.39,0.41,-0.14,0.16,0.02,0.97,
1.564,0.39,0.41,-0.14,0.17,0.02,0.97,
1.565,0.39,0.41,-0.14,0.17,0.02,0.97,
1.566,0.50,0.36,-0.16,0.17,0.02,0.97,
1.568,0.50,0.36,-0.16,0.17,0.02,0.97,
1.57,0.50,0.36,-0.16,0.17,0.02,0.97,
1.57,0.55,0.32,-0.18,0.17,0.02,0.97,
1.573,0.55,0.32,-0.18,0.17,0.02,0.97,
1.575,0.55,0.32,-0.18,0.17,0.02,0.97,
1.576,0.57,0.35,-0.16,0.17,0.02,0.97,
1.578,0.57,0.35,-0.16,0.17,0.02,0.97,
1.58,0.57,0.35,-0.16,0.17,0.03,0.97,
1.581,0.58,0.38,-0.14,0.17,0.03,0.97,
1.582,0.58,0.38,-0.14,0.17,0.03,0.97,
1.585,0.58,0.38,-0.14,0.17,0.03,0.98,
1.585,0.58,0.40,-0.12,0.17,0.03,0.98,
1.587,0.58,0.40,-0.12,0.16,0.04,0.98,
1.59,0.58,0.40,-0.12,0.16,0.04,0.98,
1.591,0.56,0.47,-0.10,0.16,0.04,0.98,
1.592,0.56,0.47,-0.10,0.16,0.05,0.98,
1.595,0.56,0.47,-0.10,0.16,0.05,0.99,
1.595,0.48,0.53,-0.05,0.16,0.05,0.99,
1.597,0.48,0.53,-0.05,0.15,0.05,0.99,
1.6,0.48,0.53,-0.05,0.15,0.05,0.99,
1.6,0.44,0.61,-0.00,0.15,0.05,0.99,
1.602,0.44,0.61,-0.00,0.15,0.05,0.99,
1.604,0.44,0.61,-0.00,0.15,0.05,0.99,
1.605,0.40,0.61,0.02,0.15,0.05,0.99,
1.608,0.40,0.61,0.02,0.15,0.05,0.98,
1.61,0.40,0.61,0.02,0.15,0.04,0.98,
1.61,0.39,0.59,0.00,0.15,0.04,0.98,
1.612,0.39,0.59,0.00,0.15,0.04,0.98,
1.615,0.39,0.59,0.00,0.15,0.04,0.98,
1.615,0.37,0.55,-0.02,0.15,0.04,0.98,
1.617,0.37,0.55,-0.02,0.14,0.04,0.98,
1.619,0.37,0.55,-0.02,0.14,0.04,0.98,
1.62,0.35,0.52,-0.05,0.14,0.04,0.98,
1.622,0.35,0.52,-0.05,0.14,0.04,0.98,
1.624,0.35,0.52,-0.05,0.14,0.04,0.98,
1.625,0.31,0.50,-0.08,0.14,0.04,0.98,
1.627,0.31,0.50,-0.08,0.14,0.03,0.97,
1.629,0.31,0.50,-0.08,0.14,0.02,0.97,
1.629,0.29,0.47,-0.08,0.14,0.02,0.97,
1.632,0.29,0.47,-0.08,0.15,0.02,0.97,
1.634,0.29,0.47,-0.08,0.15,0.01,0.97,
1.634,0.31,0.36,-0.11,0.15,0.01,0.97,
1.636,0.31,0.36,-0.11,0.15,0.00,0.97,
1.639,0.31,0.36,-0.11,0.15,-0.01,0.97,
1.639,0.36,0.24,-0.12,0.15,-0.01,0.97,
1.641,0.36,0.24,-0.12,0.15,-0.01,0.97,
1.644,0.36,0.24,-0.12,0.15,-0.02,0.96,
1.644,0.40,0.06,-0.16,0.15,-0.02,0.96,
1.646,0.40,0.06,-0.16,0.15,-0.02,0.97,
1.649,0.40,0.06,-0.16,0.15,-0.02,0.97,
1.649,0.41,-0.07,-0.19,0.15,-0.02,0.97,
1.651,0.41,-0.07,-0.19,0.15,-0.02,0.97,
1.653,0.41,-0.07,-0.19,0.14,-0.03,0.97,
1.654,0.37,-0.15,-0.18,0.14,-0.03,0.97,
1.663,0.37,-0.15,-0.18,0.13,-0.03,0.97,
1.664,0.37,-0.15,-0.18,0.12,-0.02,0.97,
1.664,0.29,-0.16,-0.16,0.12,-0.02,0.97,
1.664,0.29,-0.16,-0.16,0.12,-0.02,0.97,
1.665,0.29,-0.16,-0.16,0.11,-0.02,0.97,
1.665,0.15,-0.17,-0.12,0.11,-0.02,0.97,
1.666,0.15,-0.17,-0.12,0.10,-0.02,0.97,
1.668,0.15,-0.17,-0.12,0.10,-0.01,0.98,
1.668,0.01,-0.13,-0.11,0.10,-0.01,0.98,
1.67,0.01,-0.13,-0.11,0.09,-0.01,0.98,
1.678,0.01,-0.13,-0.11,0.09,-0.01,0.98,
1.678,-0.13,-0.07,-0.09,0.09,-0.01,0.98,
1.678,-0.13,-0.07,-0.09,0.08,-0.00,0.98,
1.678,-0.13,-0.07,-0.09,0.08,-0.00,0.98,
1.678,-0.22,-0.00,-0.08,0.08,-0.00,0.98,
1.68,-0.22,-0.00,-0.08,0.08,-0.00,0.98,
1.683,-0.22,-0.00,-0.08,0.08,-0.00,0.97,
1.683,-0.27,0.04,-0.08,0.08,-0.00,0.97,
1.685,-0.27,0.04,-0.08,0.09,0.00,0.97,
1.688,-0.27,0.04,-0.08,0.09,0.00,0.97,
1.688,-0.26,0.06,-0.09,0.09,0.00,0.97,
1.69,-0.26,0.06,-0.09,0.09,0.00,0.96,
1.693,-0.26,0.06,-0.09,0.10,0.00,0.96,
1.693,-0.20,0.10,-0.14,0.10,0.00,0.96,
1.695,-0.20,0.10,-0.14,0.10,0.01,0.96,
1.698,-0.20,0.10,-0.14,0.10,0.01,0.95,
1.698,-0.13,0.11,-0.22,0.10,0.01,0.95,
1.7,-0.13,0.11,-0.22,0.11,0.01,0.95,
1.702,-0.13,0.11,-0.22,0.11,0.02,0.95,
1.702,-0.05,0.17,-0.30,0.11,0.02,0.95,
1.705,-0.05,0.17,-0.30,0.11,0.02,0.95,
1.708,-0.05,0.17,-0.30,0.12,0.02,0.95,
1.708,0.03,0.23,-0.35,0.12,0.02,0.95,
1.71,0.03,0.23,-0.35,0.13,0.02,0.95,
1.713,0.14,0.28,-0.37,0.13,0.02,0.95,
1.713,0.14,0.28,-0.37,0.13,0.02,0.95,
1.715,0.14,0.28,-0.37,0.14,0.02,0.95,
1.717,0.14,0.28,-0.37,0.15,0.02,0.95,
1.717,0.28,0.30,-0.35,0.15,0.02,0.95,
1.719,0.28,0.30,-0.35,0.15,0.02,0.96,
1.722,0.28,0.30,-0.35,0.16,0.02,0.96,
1.723,0.41,0.28,-0.30,0.16,0.02,0.96,
1.725,0.41,0.28,-0.30,0.16,0.02,0.96,
1.727,0.41,0.28,-0.30,0.16,0.02,0.97,
1.727,0.53,0.28,-0.23,0.16,0.02,0.97,
1.729,0.53,0.28,-0.23,0.16,0.02,0.98,
1.732,0.53,0.28,-0.23,0.16,0.02,0.99,
1.732,0.59,0.30,-0.15,0.16,0.02,0.99,
1.734,0.59,0.30,-0.15,0.16,0.02,1.00,
1.737,0.59,0.30,-0.15,0.16,0.02,1.01,
1.737,0.59,0.34,-0.01,0.16,0.02,1.01,
1.741,0.59,0.34,-0.01,0.16,0.02,1.02,
1.742,0.59,0.34,-0.01,0.16,0.02,1.03,
1.743,0.58,0.35,0.17,0.16,0.02,1.03,
1.745,0.58,0.35,0.17,0.15,0.02,1.04,
1.747,0.58,0.35,0.17,0.15,0.02,1.04,
1.747,0.54,0.36,0.37,0.15,0.02,1.04,
1.749,0.54,0.36,0.37,0.15,0.02,1.05,
1.752,0.54,0.36,0.37,0.15,0.03,1.06,
1.752,0.48,0.37,0.54,0.15,0.03,1.06,
1.754,0.48,0.37,0.54,0.15,0.03,1.06,
1.758,0.48,0.37,0.54,0.14,0.03,1.07,
1.759,0.42,0.41,0.68,0.14,0.03,1.07,
1.759,0.42,0.41,0.68,0.14,0.03,1.07,
1.761,0.42,0.41,0.68,0.14,0.03,1.07,
1.762,0.39,0.43,0.79,0.14,0.03,1.07,
1.764,0.39,0.43,0.79,0.15,0.03,1.07,
1.766,0.39,0.43,0.79,0.15,0.03,1.08,
1.766,0.36,0.43,0.84,0.15,0.03,1.08,
1.769,0.36,0.43,0.84,0.15,0.03,1.07,
1.772,0.36,0.43,0.84,0.16,0.03,1.07,
1.772,0.41,0.43,0.88,0.16,0.03,1.07,
1.779,0.41,0.43,0.88,0.16,0.03,1.07,
1.779,0.41,0.43,0.88,0.16,0.03,1.07,
1.78,0.46,0.43,0.84,0.16,0.03,1.07,
1.78,0.46,0.43,0.84,0.17,0.03,1.06,
1.781,0.46,0.43,0.84,0.16,0.03,1.05,
1.781,0.50,0.42,0.78,0.16,0.03,1.05,
1.783,0.50,0.42,0.78,0.16,0.04,1.05,
1.786,0.50,0.42,0.78,0.16,0.04,1.04,
1.786,0.54,0.42,0.67,0.16,0.04,1.04,
1.788,0.54,0.42,0.67,0.16,0.05,1.04,
1.791,0.54,0.42,0.67,0.16,0.05,1.03,
1.791,0.52,0.46,0.56,0.16,0.05,1.03,
1.793,0.52,0.46,0.56,0.16,0.06,1.02,
1.796,0.52,0.46,0.56,0.17,0.06,1.02,
1.796,0.53,0.53,0.44,0.17,0.06,1.02,
1.798,0.53,0.53,0.44,0.17,0.06,1.01,
1.8,0.53,0.53,0.44,0.18,0.06,1.00,
1.801,0.55,0.57,0.30,0.18,0.06,1.00,
1.803,0.55,0.57,0.30,0.19,0.06,0.99,
1.805,0.55,0.57,0.30,0.19,0.06,0.98,
1.805,0.66,0.59,0.13,0.19,0.06,0.98,
1.808,0.66,0.59,0.13,0.20,0.06,0.97,
1.81,0.66,0.59,0.13,0.21,0.06,0.97,
1.81,0.80,0.56,-0.07,0.21,0.06,0.97,
1.813,0.80,0.56,-0.07,0.21,0.06,0.96,
1.815,0.80,0.56,-0.07,0.22,0.05,0.95,
1.815,0.92,0.51,-0.21,0.22,0.05,0.95,
1.817,0.92,0.51,-0.21,0.22,0.05,0.95,
1.82,0.92,0.51,-0.21,0.22,0.05,0.94,
1.82,1.03,0.46,-0.34,0.22,0.05,0.94,
1.823,1.03,0.46,-0.34,0.22,0.05,0.94,
1.825,1.03,0.46,-0.34,0.22,0.05,0.93,
1.825,1.10,0.41,-0.45,0.22,0.05,0.93,
1.827,1.10,0.41,-0.45,0.22,0.05,0.93,
1.83,1.10,0.41,-0.45,0.22,0.05,0.93,
1.83,1.12,0.37,-0.53,0.22,0.05,0.93,
1.832,1.12,0.37,-0.53,0.21,0.05,0.93,
1.835,1.12,0.37,-0.53,0.21,0.05,0.93,
1.835,1.04,0.39,-0.59,0.21,0.05,0.93,
1.837,1.04,0.39,-0.59,0.20,0.05,0.93,
1.84,1.04,0.39,-0.59,0.20,0.05,0.93,
1.841,0.97,0.37,-0.59,0.20,0.05,0.93,
1.842,0.97,0.37,-0.59,0.19,0.05,0.93,
1.845,0.97,0.37,-0.59,0.19,0.05,0.93,
1.845,0.87,0.35,-0.60,0.19,0.05,0.93,
1.847,0.87,0.35,-0.60,0.18,0.05,0.93,
1.849,0.87,0.35,-0.60,0.18,0.05,0.93,
1.85,0.76,0.32,-0.58,0.18,0.05,0.93,
1.852,0.76,0.32,-0.58,0.18,0.05,0.94,
1.854,0.76,0.32,-0.58,0.17,0.05,0.94,
1.855,0.65,0.29,-0.54,0.17,0.05,0.94,
1.857,0.65,0.29,-0.54,0.17,0.04,0.94,
1.859,0.65,0.29,-0.54,0.17,0.04,0.94,
1.86,0.56,0.27,-0.47,0.17,0.04,0.94,
1.862,0.56,0.27,-0.47,0.17,0.04,0.95,
1.864,0.56,0.27,-0.47,0.17,0.04,0.95,
1.864,0.48,0.25,-0.41,0.17,0.04,0.95,
1.866,0.48,0.25,-0.41,0.17,0.04,0.95,
1.869,0.48,0.25,-0.41,0.17,0.03,0.96,
1.869,0.46,0.21,-0.36,0.17,0.03,0.96,
1.871,0.46,0.21,-0.36,0.17,0.03,0.96,
1.879,0.49,0.17,-0.28,0.17,0.03,0.96,
1.879,0.49,0.17,-0.28,0.17,0.03,0.97,
1.88,0.49,0.17,-0.28,0.18,0.03,0.97,
1.88,0.49,0.17,-0.28,0.18,0.03,0.98,
1.88,0.50,0.14,-0.19,0.18,0.03,0.98,
1.881,0.50,0.14,-0.19,0.18,0.03,0.98,
1.884,0.50,0.14,-0.19,0.18,0.03,0.99,
1.884,0.56,0.12,-0.09,0.18,0.03,0.99,
1.886,0.56,0.12,-0.09,0.18,0.03,0.99,
1.889,0.56,0.12,-0.09,0.19,0.03,0.99,
1.889,0.58,0.13,-0.00,0.19,0.03,0.99,
1.892,0.58,0.13,-0.00,0.19,0.03,1.00,
1.893,0.58,0.13,-0.00,0.19,0.04,1.00,
1.893,0.62,0.14,0.08,0.19,0.04,1.00,
1.896,0.62,0.14,0.08,0.20,0.04,1.01,
1.898,0.62,0.14,0.08,0.19,0.04,1.01,
1.899,0.69,0.16,0.16,0.19,0.04,1.01,
1.901,0.69,0.16,0.16,0.19,0.05,1.02,
1.903,0.69,0.16,0.16,0.19,0.05,1.03,
1.903,0.71,0.20,0.24,0.19,0.05,1.03,
1.906,0.71,0.20,0.24,0.19,0.06,1.03,
1.908,0.71,0.20,0.24,0.19,0.06,1.03,
1.908,0.69,0.31,0.36,0.19,0.06,1.03,
1.91,0.69,0.31,0.36,0.19,0.06,1.03,
1.913,0.69,0.31,0.36,0.19,0.06,1.03,
1.913,0.65,0.42,0.43,0.19,0.06,1.03,
1.915,0.65,0.42,0.43,0.20,0.07,1.03,
1.918,0.65,0.42,0.43,0.20,0.07,1.03,
1.918,0.68,0.45,0.43,0.20,0.07,1.03,
1.92,0.68,0.45,0.43,0.20,0.07,1.03,
1.923,0.68,0.45,0.43,0.20,0.07,1.02,
1.923,0.76,0.45,0.41,0.20,0.07,1.02,
1.925,0.76,0.45,0.41,0.21,0.07,1.02,
1.928,0.76,0.45,0.41,0.20,0.07,1.02,
1.928,0.79,0.45,0.36,0.20,0.07,1.02,
1.93,0.79,0.45,0.36,0.21,0.06,1.02,
1.933,0.79,0.45,0.36,0.20,0.07,1.01,
1.934,0.81,0.44,0.32,0.20,0.07,1.01,
1.935,0.81,0.44,0.32,0.20,0.06,1.01,
1.938,0.81,0.44,0.32,0.20,0.06,1.01,
1.938,0.81,0.42,0.26,0.20,0.06,1.01,
1.94,0.81,0.42,0.26,0.19,0.07,1.00,
1.942,0.81,0.42,0.26,0.19,0.07,1.00,
1.943,0.76,0.41,0.21,0.19,0.07,1.00,
1.945,0.76,0.41,0.21,0.19,0.06,1.00,
1.947,0.76,0.41,0.21,0.19,0.07,0.99,
1.948,0.71,0.40,0.13,0.19,0.07,0.99,
1.95,0.71,0.40,0.13,0.19,0.06,0.99,
1.952,0.71,0.40,0.13,0.19,0.06,0.99,
1.952,0.67,0.39,0.05,0.19,0.06,0.99,
1.955,0.67,0.39,0.05,0.19,0.06,0.98,
1.962,0.67,0.39,0.05,0.20,0.06,0.98,
1.963,0.68,0.36,-0.02,0.20,0.06,0.98,
1.963,0.68,0.36,-0.02,0.20,0.06,0.98,
1.963,0.68,0.36,-0.02,0.20,0.06,0.98,
1.963,0.72,0.33,-0.07,0.20,0.06,0.98,
1.964,0.72,0.33,-0.07,0.21,0.05,0.97,
1.967,0.72,0.33,-0.07,0.21,0.05,0.97,
1.967,0.80,0.28,-0.10,0.21,0.05,0.97,
1.969,0.80,0.28,-0.10,0.22,0.05,0.97,
1.972,0.80,0.28,-0.10,0.22,0.05,0.97,
1.972,0.89,0.24,-0.14,0.22,0.05,0.97,
1.974,0.89,0.24,-0.14,0.22,0.05,0.97,
1.977,0.89,0.24,-0.14,0.23,0.04,0.97,
1.977,0.95,0.18,-0.18,0.23,0.04,0.97,
1.979,0.95,0.18,-0.18,0.23,0.04,0.97,
1.982,0.95,0.18,-0.18,0.23,0.04,0.97,
1.982,0.99,0.11,-0.19,0.23,0.04,0.97,
1.984,0.99,0.11,-0.19,0.23,0.04,0.98,
1.987,0.99,0.11,-0.19,0.23,0.05,0.98,
1.987,1.02,0.08,-0.14,0.23,0.05,0.98,
1.989,1.02,0.08,-0.14,0.23,0.05,0.98,
1.992,1.02,0.08,-0.14,0.23,0.05,0.99,
1.992,1.02,0.10,-0.08,0.23,0.05,0.99,
1.994,1.02,0.10,-0.08,0.23,0.05,0.99,
1.996,1.02,0.10,-0.08,0.23,0.05,1.00,
1.996,1.01,0.13,-0.01,0.23,0.05,1.00,
1.999,1.01,0.13,-0.01,0.24,0.05,1.00,
2.001,1.01,0.13,-0.01,0.24,0.04,1.00,
2.001,0.97,0.12,0.07,0.24,0.04,1.00,
2.003,0.97,0.12,0.07,0.25,0.04,1.00,
2.006,0.97,0.12,0.07,0.26,0.04,1.01,
2.007,1.04,0.07,0.14,0.26,0.04,1.01,
2.009,1.04,0.07,0.14,0.26,0.04,1.01,
2.011,1.04,0.07,0.14,0.26,0.04,1.01,
2.011,1.12,0.02,0.17,0.26,0.04,1.01,
2.013,1.12,0.02,0.17,0.27,0.03,1.01,
2.016,1.12,0.02,0.17,0.27,0.03,1.01,
2.016,1.20,-0.03,0.23,0.27,0.03,1.01,
2.018,1.20,-0.03,0.23,0.27,0.04,1.02,
2.021,1.20,-0.03,0.23,0.28,0.04,1.01,
2.022,1.26,-0.06,0.26,0.28,0.04,1.01,
2.023,1.26,-0.06,0.26,0.28,0.03,1.01,
2.026,1.26,-0.06,0.26,0.28,0.03,1.00,
2.026,1.31,-0.05,0.26,0.28,0.03,1.00,
2.028,1.31,-0.05,0.26,0.29,0.03,1.00,
2.031,1.31,-0.05,0.26,0.29,0.03,0.99,
2.031,1.34,-0.08,0.18,0.29,0.03,0.99,
2.033,1.34,-0.08,0.18,0.29,0.03,0.98,
2.036,1.34,-0.08,0.18,0.29,0.02,0.97,
2.036,1.40,-0.15,0.07,0.29,0.02,0.97,
2.038,1.40,-0.15,0.07,0.29,0.02,0.97,
2.041,1.40,-0.15,0.07,0.30,0.02,0.96,
2.041,1.45,-0.19,-0.09,0.30,0.02,0.96,
2.043,1.45,-0.19,-0.09,0.30,0.02,0.95,
2.045,1.45,-0.19,-0.09,0.30,0.02,0.94,
2.046,1.49,-0.22,-0.25,0.30,0.02,0.94,
2.048,1.49,-0.22,-0.25,0.29,0.02,0.94,
2.05,1.49,-0.22,-0.25,0.29,0.02,0.93,
2.05,1.51,-0.25,-0.39,0.29,0.02,0.93,
2.052,1.51,-0.25,-0.39,0.29,0.02,0.92,
2.055,1.51,-0.25,-0.39,0.29,0.02,0.92,
2.055,1.48,-0.26,-0.51,0.29,0.02,0.92,
2.062,1.48,-0.26,-0.51,0.29,0.02,0.91,
2.063,1.48,-0.28,-0.65,0.29,0.02,0.91,
2.063,1.48,-0.28,-0.65,0.29,0.02,0.91,
2.063,1.48,-0.28,-0.65,0.29,0.02,0.90,
2.065,1.48,-0.28,-0.65,0.28,0.02,0.90,
2.065,1.44,-0.29,-0.75,0.28,0.02,0.90,
2.067,1.44,-0.29,-0.75,0.29,0.02,0.90,
2.07,1.44,-0.29,-0.75,0.29,0.02,0.90,
2.07,1.39,-0.30,-0.80,0.29,0.02,0.90,
2.077,1.39,-0.30,-0.80,0.29,0.02,0.90,
2.077,1.39,-0.30,-0.80,0.29,0.02,0.90,
2.078,1.41,-0.28,-0.81,0.29,0.02,0.90,
2.078,1.41,-0.28,-0.81,0.29,0.02,0.91,
2.079,1.41,-0.28,-0.81,0.29,0.02,0.91,
2.08,1.42,-0.31,-0.80,0.29,0.02,0.91,
2.082,1.42,-0.31,-0.80,0.29,0.02,0.92,
2.084,1.42,-0.31,-0.80,0.29,0.03,0.92,
2.084,1.43,-0.29,-0.71,0.29,0.03,0.92,
2.087,1.43,-0.29,-0.71,0.29,0.03,0.93,
2.089,1.43,-0.29,-0.71,0.29,0.03,0.94,
2.09,1.37,-0.25,-0.62,0.29,0.03,0.94,
2.092,1.37,-0.25,-0.62,0.29,0.02,0.94,
2.094,1.37,-0.25,-0.62,0.29,0.02,0.95,
2.095,1.33,-0.25,-0.48,0.29,0.02,0.95,
2.097,1.33,-0.25,-0.48,0.29,0.02,0.95,
2.099,1.33,-0.25,-0.48,0.29,0.01,0.96,
2.099,1.29,-0.29,-0.37,0.29,0.01,0.96,
2.102,1.29,-0.29,-0.37,0.29,0.01,0.97,
2.104,1.29,-0.29,-0.37,0.29,-0.00,0.97,
2.104,1.28,-0.36,-0.24,0.29,-0.00,0.97,
2.106,1.28,-0.36,-0.24,0.29,-0.00,0.98,
2.11,1.28,-0.36,-0.24,0.29,-0.01,0.98,
2.11,1.29,-0.47,-0.11,0.29,-0.01,0.98,
2.112,1.29,-0.47,-0.11,0.29,-0.01,0.98,
2.114,1.29,-0.47,-0.11,0.29,-0.02,0.99,
2.114,1.27,-0.54,-0.02,0.29,-0.02,0.99,
2.116,1.27,-0.54,-0.02,0.29,-0.02,0.99,
2.119,1.27,-0.54,-0.02,0.28,-0.02,0.99,
2.119,1.23,-0.62,0.04,0.28,-0.02,0.99,
2.121,1.23,-0.62,0.04,0.28,-0.03,0.99,
2.124,1.23,-0.62,0.04,0.27,-0.04,0.99,
2.124,1.16,-0.70,0.06,0.27,-0.04,0.99,
2.126,1.16,-0.70,0.06,0.27,-0.04,0.99,
2.129,1.16,-0.70,0.06,0.27,-0.04,0.99,
2.129,1.08,-0.80,0.07,0.27,-0.04,0.99,
2.131,1.08,-0.80,0.07,0.26,-0.04,0.99,
2.133,1.08,-0.80,0.07,0.26,-0.04,0.98,
2.134,1.02,-0.85,0.07,0.26,-0.04,0.98,
2.136,1.02,-0.85,0.07,0.26,-0.04,0.98,
2.139,1.02,-0.85,0.07,0.25,-0.04,0.98,
2.14,0.92,-0.86,0.05,0.25,-0.04,0.98,
2.141,0.92,-0.86,0.05,0.25,-0.04,0.98,
2.143,0.92,-0.86,0.05,0.25,-0.04,0.97,
2.144,0.86,-0.87,0.01,0.25,-0.04,0.97,
2.146,0.86,-0.87,0.01,0.25,-0.04,0.97,
2.148,0.86,-0.87,0.01,0.25,-0.04,0.98,
2.148,0.82,-0.87,-0.05,0.25,-0.04,0.98,
2.15,0.82,-0.87,-0.05,0.25,-0.04,0.98,
2.153,0.82,-0.87,-0.05,0.25,-0.04,0.97,
2.153,0.82,-0.88,-0.05,0.25,-0.04,0.97,
2.156,0.82,-0.88,-0.05,0.25,-0.04,0.97,
2.158,0.82,-0.88,-0.05,0.25,-0.04,0.97,
2.158,0.79,-0.87,-0.05,0.25,-0.04,0.97,
2.16,0.79,-0.87,-0.05,0.25,-0.04,0.97,
2.163,0.79,-0.87,-0.05,0.25,-0.04,0.96,
2.163,0.80,-0.85,-0.09,0.25,-0.04,0.96,
2.165,0.80,-0.85,-0.09,0.25,-0.04,0.96,
2.168,0.80,-0.85,-0.09,0.25,-0.04,0.96,
2.168,0.82,-0.86,-0.14,0.25,-0.04,0.96,
2.17,0.82,-0.86,-0.14,0.25,-0.04,0.96,
2.178,0.82,-0.86,-0.14,0.25,-0.04,0.96,
2.179,0.85,-0.86,-0.17,0.25,-0.04,0.96,
2.179,0.85,-0.86,-0.17,0.25,-0.04,0.96,
2.179,0.85,-0.86,-0.17,0.24,-0.04,0.96,
2.18,0.83,-0.82,-0.19,0.24,-0.04,0.96,
2.18,0.83,-0.82,-0.19,0.24,-0.04,0.97,
2.182,0.83,-0.82,-0.19,0.23,-0.04,0.97,
2.183,0.77,-0.79,-0.18,0.23,-0.04,0.97,
2.185,0.77,-0.79,-0.18,0.23,-0.03,0.97,
2.187,0.77,-0.79,-0.18,0.22,-0.03,0.98,
2.188,0.68,-0.75,-0.12,0.22,-0.03,0.98,
2.192,0.68,-0.75,-0.12,0.22,-0.03,0.98,
2.192,0.68,-0.75,-0.12,0.22,-0.03,0.98,
2.192,0.58,-0.70,-0.07,0.22,-0.03,0.98,
2.194,0.58,-0.70,-0.07,0.21,-0.03,0.98,
2.197,0.58,-0.70,-0.07,0.21,-0.03,0.98,
2.197,0.50,-0.65,-0.02,0.21,-0.03,0.98,
2.199,0.50,-0.65,-0.02,0.22,-0.03,0.98,
2.202,0.50,-0.65,-0.02,0.22,-0.03,0.98,
2.202,0.48,-0.65,0.02,0.22,-0.03,0.98,
2.204,0.48,-0.65,0.02,0.22,-0.04,0.98,
2.207,0.48,-0.65,0.02,0.22,-0.04,0.98,
2.208,0.51,-0.66,0.03,0.22,-0.04,0.98,
2.209,0.51,-0.66,0.03,0.22,-0.05,0.98,
2.212,0.51,-0.66,0.03,0.23,-0.05,0.98,
2.212,0.56,-0.72,0.00,0.23,-0.05,0.98,
2.215,0.56,-0.72,0.00,0.24,-0.06,0.97,
2.217,0.56,-0.72,0.00,0.24,-0.07,0.97,
2.217,0.62,-0.82,-0.03,0.24,-0.07,0.97,
2.219,0.62,-0.82,-0.03,0.24,-0.07,0.97,
2.223,0.62,-0.82,-0.03,0.25,-0.08,0.97,
2.223,0.74,-0.95,-0.09,0.25,-0.08,0.97,
2.224,0.74,-0.95,-0.09,0.25,-0.08,0.96,
2.226,0.74,-0.95,-0.09,0.25,-0.08,0.96,
2.227,0.80,-1.07,-0.14,0.25,-0.08,0.96,
2.229,0.80,-1.07,-0.14,0.24,-0.09,0.96,
2.231,0.80,-1.07,-0.14,0.24,-0.09,0.96,
2.232,0.80,-1.14,-0.18,0.24,-0.09,0.96,
2.234,0.80,-1.14,-0.18,0.24,-0.09,0.96,
2.236,0.80,-1.14,-0.18,0.24,-0.09,0.96,
2.236,0.77,-1.17,-0.21,0.24,-0.09,0.96,
2.239,0.77,-1.17,-0.21,0.23,-0.08,0.95,
2.241,0.77,-1.17,-0.21,0.23,-0.08,0.95,
2.242,0.71,-1.17,-0.24,0.23,-0.08,0.95,
2.244,0.71,-1.17,-0.24,0.22,-0.08,0.95,
2.246,0.71,-1.17,-0.24,0.22,-0.08,0.95,
2.246,0.62,-1.14,-0.28,0.22,-0.08,0.95,
2.249,0.62,-1.14,-0.28,0.21,-0.07,0.95,
2.251,0.62,-1.14,-0.28,0.21,-0.07,0.95,
2.252,0.52,-1.11,-0.29,0.21,-0.07,0.95,
2.254,0.52,-1.11,-0.29,0.20,-0.07,0.95,
2.257,0.52,-1.11,-0.29,0.19,-0.06,0.95,
2.257,0.41,-1.05,-0.29,0.19,-0.06,0.95,
2.258,0.41,-1.05,-0.29,0.19,-0.06,0.95,
2.262,0.41,-1.05,-0.29,0.18,-0.05,0.95,
2.263,0.27,-0.95,-0.29,0.18,-0.05,0.95,
2.263,0.27,-0.95,-0.29,0.18,-0.05,0.94,
2.266,0.27,-0.95,-0.29,0.17,-0.05,0.95,
2.266,0.14,-0.88,-0.32,0.17,-0.05,0.95,
2.268,0.14,-0.88,-0.32,0.17,-0.04,0.95,
2.27,0.14,-0.88,-0.32,0.16,-0.04,0.95,
2.271,0.04,-0.82,-0.33,0.16,-0.04,0.95,
2.278,0.04,-0.82,-0.33,0.16,-0.04,0.95,
2.278,0.04,-0.82,-0.33,0.16,-0.04,0.95,
2.278,-0.05,-0.78,-0.32,0.16,-0.04,0.95,
2.278,-0.05,-0.78,-0.32,0.16,-0.04,0.94,
2.28,-0.05,-0.78,-0.32,0.16,-0.04,0.94,
2.281,-0.10,-0.74,-0.31,0.16,-0.04,0.94,
2.283,-0.10,-0.74,-0.31,0.16,-0.04,0.94,
2.285,-0.10,-0.74,-0.31,0.16,-0.04,0.94,
2.285,-0.11,-0.75,-0.33,0.16,-0.04,0.94,
2.287,-0.11,-0.75,-0.33,0.16,-0.04,0.93,
2.29,-0.11,-0.75,-0.33,0.16,-0.04,0.93,
2.29,-0.11,-0.75,-0.39,0.16,-0.04,0.93,
2.293,-0.11,-0.75,-0.39,0.17,-0.04,0.93,
2.295,-0.11,-0.75,-0.39,0.17,-0.04,0.93,
2.295,-0.07,-0.77,-0.44,0.17,-0.04,0.93,
2.297,-0.07,-0.77,-0.44,0.17,-0.05,0.93,
2.3,-0.07,-0.77,-0.44,0.17,-0.05,0.93,
2.3,-0.04,-0.80,-0.47,0.17,-0.05,0.93,
2.302,-0.04,-0.80,-0.47,0.17,-0.05,0.93,
2.305,-0.04,-0.80,-0.47,0.17,-0.05,0.93,
2.305,-0.01,-0.85,-0.46,0.17,-0.05,0.93,
2.307,-0.01,-0.85,-0.46,0.17,-0.06,0.93,
2.31,-0.01,-0.85,-0.46,0.17,-0.06,0.92,
2.31,-0.01,-0.89,-0.46,0.17,-0.06,0.92,
2.312,-0.01,-0.89,-0.46,0.17,-0.06,0.92,
2.314,-0.01,-0.89,-0.46,0.17,-0.06,0.92,
2.315,0.00,-0.95,-0.49,0.17,-0.06,0.92,
2.317,0.00,-0.95,-0.49,0.17,-0.06,0.92,
2.319,0.00,-0.95,-0.49,0.17,-0.06,0.92,
2.319,-0.01,-0.98,-0.54,0.17,-0.06,0.92,
2.322,-0.01,-0.98,-0.54,0.17,-0.06,0.92,
2.325,-0.01,-0.98,-0.54,0.18,-0.07,0.92,
2.325,0.02,-1.00,-0.56,0.18,-0.07,0.92,
2.327,0.02,-1.00,-0.56,0.18,-0.07,0.92,
2.329,0.02,-1.00,-0.56,0.18,-0.07,0.92,
2.329,0.05,-1.02,-0.55,0.18,-0.07,0.92,
2.332,0.05,-1.02,-0.55,0.18,-0.08,0.92,
2.334,0.05,-1.02,-0.55,0.19,-0.08,0.92,
2.335,0.09,-1.08,-0.54,0.19,-0.08,0.92,
2.336,0.09,-1.08,-0.54,0.19,-0.09,0.91,
2.339,0.09,-1.08,-0.54,0.19,-0.09,0.91,
2.34,0.13,-1.15,-0.56,0.19,-0.09,0.91,
2.342,0.13,-1.15,-0.56,0.19,-0.09,0.92,
2.344,0.13,-1.15,-0.56,0.19,-0.09,0.92,
2.344,0.18,-1.20,-0.56,0.19,-0.09,0.92,
2.346,0.18,-1.20,-0.56,0.19,-0.09,0.92,
2.349,0.18,-1.19,-0.54,0.19,-0.09,0.92,
2.349,0.18,-1.19,-0.54,0.19,-0.08,0.92,
2.351,0.18,-1.19,-0.54,0.18,-0.08,0.92,
2.354,0.18,-1.19,-0.54,0.18,-0.07,0.92,
2.362,0.12,-1.15,-0.52,0.18,-0.07,0.92,
2.362,0.12,-1.15,-0.52,0.18,-0.07,0.92,
2.362,0.12,-1.15,-0.52,0.17,-0.07,0.92,
2.363,0.04,-1.07,-0.51,0.17,-0.07,0.92,
2.363,0.04,-1.07,-0.51,0.17,-0.07,0.92,
2.363,0.04,-1.07,-0.51,0.17,-0.07,0.91,
2.364,-0.00,-1.02,-0.50,0.17,-0.07,0.91,
2.366,-0.00,-1.02,-0.50,0.17,-0.07,0.91,
2.369,-0.00,-1.02,-0.50,0.17,-0.06,0.91,
2.369,-0.08,-0.99,-0.53,0.17,-0.06,0.91,
2.372,-0.08,-0.99,-0.53,0.17,-0.06,0.91,
2.374,-0.08,-0.99,-0.53,0.16,-0.07,0.91,
2.374,-0.10,-0.95,-0.56,0.16,-0.07,0.91,
2.376,-0.10,-0.95,-0.56,0.17,-0.07,0.91,
2.378,-0.10,-0.95,-0.56,0.17,-0.07,0.91,
2.378,-0.13,-0.95,-0.58,0.17,-0.07,0.91,
2.381,-0.13,-0.95,-0.58,0.17,-0.07,0.90,
2.383,-0.13,-0.95,-0.58,0.17,-0.07,0.90,
2.383,-0.13,-0.95,-0.60,0.17,-0.07,0.90,
2.386,-0.13,-0.95,-0.60,0.17,-0.08,0.90,
2.389,-0.13,-0.95,-0.60,0.17,-0.08,0.90,
2.389,-0.12,-0.99,-0.62,0.17,-0.08,0.90,
2.391,-0.12,-0.99,-0.62,0.17,-0.08,0.90,
2.393,-0.12,-0.99,-0.62,0.18,-0.08,0.91,
2.393,-0.08,-1.03,-0.61,0.18,-0.08,0.91,
2.395,-0.08,-1.03,-0.61,0.18,-0.08,0.91,
2.398,-0.08,-1.03,-0.61,0.17,-0.07,0.91,
2.398,-0.08,-1.03,-0.58,0.17,-0.07,0.91,
2.4,-0.08,-1.03,-0.58,0.18,-0.07,0.91,
2.403,-0.08,-1.02,-0.53,0.18,-0.07,0.91,
2.403,-0.08,-1.02,-0.53,0.18,-0.07,0.92,
2.405,-0.08,-1.02,-0.53,0.18,-0.07,0.92,
2.408,-0.08,-1.02,-0.53,0.18,-0.06,0.93,
2.408,-0.10,-0.97,-0.45,0.18,-0.06,0.93,
2.41,-0.10,-0.97,-0.45,0.18,-0.06,0.93,
2.413,-0.10,-0.97,-0.45,0.18,-0.07,0.93,
2.413,-0.12,-0.91,-0.35,0.18,-0.07,0.93,
2.415,-0.12,-0.91,-0.35,0.18,-0.07,0.94,
2.417,-0.12,-0.91,-0.35,0.18,-0.07,0.94,
2.418,-0.12,-0.91,-0.28,0.18,-0.07,0.94,
2.42,-0.12,-0.91,-0.28,0.18,-0.08,0.94,
2.422,-0.12,-0.91,-0.28,0.18,-0.08,0.94,
2.425,-0.09,-0.95,-0.24,0.18,-0.08,0.94,
2.426,-0.09,-0.95,-0.24,0.18,-0.08,0.94,
2.427,-0.09,-0.95,-0.24,0.18,-0.07,0.94,
2.427,-0.10,-1.01,-0.23,0.18,-0.07,0.94,
2.43,-0.10,-1.01,-0.23,0.17,-0.07,0.95,
2.432,-0.10,-1.01,-0.23,0.17,-0.06,0.95,
2.432,-0.15,-0.98,-0.18,0.17,-0.06,0.95,
2.435,-0.15,-0.98,-0.18,0.16,-0.06,0.95,
2.438,-0.15,-0.98,-0.18,0.15,-0.05,0.96,
2.438,-0.27,-0.90,-0.11,0.15,-0.05,0.96,
2.44,-0.27,-0.90,-0.11,0.14,-0.05,0.96,
2.442,-0.27,-0.90,-0.11,0.14,-0.04,0.96,
2.442,-0.41,-0.79,-0.04,0.14,-0.04,0.96,
2.444,-0.41,-0.79,-0.04,0.13,-0.04,0.96,
2.447,-0.41,-0.79,-0.04,0.13,-0.04,0.96,
2.447,-0.57,-0.69,-0.02,0.13,-0.04,0.96,
2.449,-0.57,-0.69,-0.02,0.13,-0.04,0.96,
2.452,-0.57,-0.69,-0.02,0.12,-0.04,0.96,
2.452,-0.68,-0.64,-0.02,0.12,-0.04,0.96,
2.46,-0.68,-0.64,-0.02,0.12,-0.04,0.96,
2.461,-0.68,-0.64,-0.02,0.12,-0.05,0.96,
2.461,-0.72,-0.65,-0.02,0.12,-0.05,0.96,
2.461,-0.72,-0.65,-0.02,0.13,-0.05,0.96,
2.462,-0.72,-0.65,-0.02,0.13,-0.05,0.96,
2.462,-0.75,-0.67,-0.01,0.13,-0.05,0.96,
2.464,-0.75,-0.67,-0.01,0.13,-0.06,0.95,
2.466,-0.75,-0.67,-0.01,0.13,-0.06,0.95,
2.466,-0.72,-0.71,-0.01,0.13,-0.06,0.95,
2.469,-0.72,-0.71,-0.01,0.13,-0.06,0.95,
2.472,-0.72,-0.71,-0.01,0.14,-0.07,0.95,
2.473,-0.68,-0.78,-0.04,0.14,-0.07,0.95,
2.474,-0.68,-0.78,-0.04,0.14,-0.07,0.94,
2.476,-0.68,-0.78,-0.04,0.14,-0.07,0.94,
2.477,-0.66,-0.86,-0.10,0.14,-0.07,0.94,
2.478,-0.66,-0.86,-0.10,0.14,-0.07,0.95,
2.481,-0.66,-0.86,-0.10,0.14,-0.07,0.95,
2.481,-0.65,-0.89,-0.13,0.14,-0.07,0.95,
2.483,-0.65,-0.89,-0.13,0.14,-0.07,0.95,
2.486,-0.65,-0.89,-0.13,0.13,-0.07,0.95,
2.486,-0.65,-0.91,-0.10,0.13,-0.07,0.95,
2.489,-0.65,-0.91,-0.10,0.13,-0.07,0.96,
2.491,-0.65,-0.91,-0.10,0.12,-0.07,0.96,
2.491,-0.69,-0.91,-0.04,0.12,-0.07,0.96,
2.493,-0.69,-0.91,-0.04,0.11,-0.07,0.96,
2.496,-0.69,-0.91,-0.04,0.11,-0.07,0.96,
2.496,-0.80,-0.87,-0.00,0.11,-0.07,0.96,
2.498,-0.80,-0.87,-0.00,0.11,-0.07,0.96,
2.501,-0.80,-0.87,-0.00,0.10,-0.07,0.96,
2.501,-0.90,-0.87,0.02,0.10,-0.07,0.96,
2.503,-0.90,-0.87,0.02,0.10,-0.07,0.97,
2.506,-0.90,-0.87,0.02,0.09,-0.07,0.97,
2.507,-0.97,-0.84,0.06,0.09,-0.07,0.97,
2.508,-0.97,-0.84,0.06,0.09,-0.07,0.98,
2.51,-0.97,-0.84,0.06,0.09,-0.07,0.98,
2.511,-1.07,-0.85,0.13,0.09,-0.07,0.98,
2.513,-1.07,-0.85,0.13,0.08,-0.07,0.98,
2.516,-1.07,-0.85,0.13,0.08,-0.08,0.99,
2.516,-1.14,-0.84,0.24,0.08,-0.08,0.99,
2.518,-1.14,-0.84,0.24,0.08,-0.08,0.99,
2.522,-1.14,-0.84,0.24,0.08,-0.08,0.99,
2.522,-1.22,-0.88,0.31,0.08,-0.08,0.99,
2.523,-1.22,-0.88,0.31,0.08,-0.09,0.99,
2.525,-1.22,-0.88,0.31,0.07,-0.09,1.00,
2.526,-1.23,-0.95,0.35,0.07,-0.09,1.00,
2.528,-1.23,-0.95,0.35,0.07,-0.09,1.00,
2.53,-1.23,-0.95,0.35,0.07,-0.09,1.00,
2.53,-1.27,-1.02,0.38,0.07,-0.09,1.00,
2.532,-1.27,-1.02,0.38,0.07,-0.09,1.00,
2.535,-1.27,-1.02,0.38,0.07,-0.09,1.01,
2.535,-1.31,-1.04,0.44,0.07,-0.09,1.01,
2.538,-1.31,-1.04,0.44,0.06,-0.09,1.01,
2.54,-1.31,-1.04,0.44,0.06,-0.09,1.02,
2.541,-1.36,-1.03,0.50,0.06,-0.09,1.02,
2.543,-1.36,-1.03,0.50,0.05,-0.09,1.02,
2.545,-1.36,-1.03,0.50,0.05,-0.09,1.02,
2.545,-1.42,-0.99,0.57,0.05,-0.09,1.02,
2.547,-1.42,-0.99,0.57,0.05,-0.09,1.02,
2.55,-1.42,-0.99,0.57,0.05,-0.09,1.02,
2.55,-1.49,-0.96,0.61,0.05,-0.09,1.02,
2.552,-1.49,-0.96,0.61,0.05,-0.10,1.03,
2.556,-1.49,-0.96,0.61,0.05,-0.10,1.02,
2.557,-1.52,-0.98,0.65,0.05,-0.10,1.02,
2.557,-1.52,-0.98,0.65,0.05,-0.10,1.02,
2.559,-1.52,-0.98,0.65,0.05,-0.10,1.02,
2.56,-1.55,-1.01,0.67,0.05,-0.10,1.02,
2.562,-1.55,-1.01,0.67,0.05,-0.10,1.02,
2.564,-1.55,-1.01,0.67,0.04,-0.11,1.02,
2.564,-1.54,-1.04,0.64,0.04,-0.11,1.02,
2.567,-1.54,-1.04,0.64,0.04,-0.11,1.02,
2.569,-1.54,-1.04,0.64,0.04,-0.11,1.02,
2.569,-1.56,-1.10,0.62,0.04,-0.11,1.02,
2.576,-1.56,-1.10,0.62,0.04,-0.12,1.02,
2.577,-1.56,-1.10,0.62,0.04,-0.12,1.01,
2.577,-1.58,-1.14,0.59,0.04,-0.12,1.01,
2.577,-1.58,-1.14,0.59,0.03,-0.12,1.01,
2.579,-1.58,-1.14,0.59,0.03,-0.12,1.01,
2.579,-1.60,-1.20,0.54,0.03,-0.12,1.01,
2.581,-1.60,-1.20,0.54,0.03,-0.12,1.01,
2.584,-1.60,-1.20,0.54,0.02,-0.12,1.01,
2.584,-1.65,-1.23,0.53,0.02,-0.12,1.01,
2.586,-1.65,-1.23,0.53,0.02,-0.12,1.01,
2.589,-1.65,-1.23,0.53,0.01,-0.12,1.01,
2.59,-1.72,-1.23,0.50,0.01,-0.12,1.01,
2.591,-1.72,-1.23,0.50,0.01,-0.12,1.01,
2.594,-1.72,-1.23,0.50,0.01,-0.12,1.01,
2.594,-1.80,-1.19,0.52,0.01,-0.12,1.01,
2.596,-1.80,-1.19,0.52,0.00,-0.11,1.02,
2.598,-1.80,-1.19,0.52,0.00,-0.11,1.02,
2.599,-1.86,-1.15,0.53,0.00,-0.11,1.02,
2.601,-1.86,-1.15,0.53,0.00,-0.10,1.02,
2.604,-1.86,-1.15,0.53,-0.00,-0.10,1.02,
2.604,-1.90,-1.09,0.57,-0.00,-0.10,1.02,
2.607,-1.90,-1.09,0.57,0.00,-0.09,1.02,
2.609,-1.90,-1.09,0.57,-0.00,-0.09,1.03,
2.609,-1.94,-0.98,0.59,-0.00,-0.09,1.03,
2.61,-1.94,-0.98,0.59,0.00,-0.08,1.03,
2.613,-1.94,-0.98,0.59,0.00,-0.08,1.03,
2.613,-1.95,-0.90,0.64,0.00,-0.08,1.03,
2.615,-1.95,-0.90,0.64,0.01,-0.08,1.04,
2.618,-1.95,-0.90,0.64,0.01,-0.08,1.03,
2.618,-1.93,-0.81,0.71,0.01,-0.08,1.03,
2.62,-1.93,-0.81,0.71,0.01,-0.07,1.04,
2.623,-1.93,-0.81,0.71,0.02,-0.07,1.04,
2.623,-1.90,-0.78,0.75,0.02,-0.07,1.04,
2.625,-1.90,-0.78,0.75,0.02,-0.07,1.04,
2.628,-1.90,-0.78,0.75,0.02,-0.07,1.04,
2.628,-1.83,-0.73,0.75,0.02,-0.07,1.04,
2.63,-1.83,-0.73,0.75,0.03,-0.06,1.04,
2.633,-1.83,-0.73,0.75,0.03,-0.06,1.05,
2.633,-1.76,-0.69,0.77,0.03,-0.06,1.05,
2.635,-1.76,-0.69,0.77,0.03,-0.06,1.05,
2.638,-1.76,-0.69,0.77,0.04,-0.05,1.05,
2.638,-1.70,-0.60,0.83,0.04,-0.05,1.05,
2.64,-1.70,-0.60,0.83,0.04,-0.05,1.05,
2.643,-1.70,-0.60,0.83,0.04,-0.05,1.05,
2.643,-1.65,-0.54,0.87,0.04,-0.05,1.05,
2.645,-1.65,-0.54,0.87,0.04,-0.04,1.05,
2.647,-1.60,-0.48,0.89,0.04,-0.04,1.05,
2.648,-1.60,-0.48,0.89,0.05,-0.04,1.05,
2.65,-1.60,-0.48,0.89,0.05,-0.04,1.04,
2.652,-1.60,-0.48,0.89,0.05,-0.03,1.04,
2.653,-1.54,-0.42,0.86,0.05,-0.03,1.04,
2.659,-1.54,-0.42,0.86,0.06,-0.03,1.04,
2.66,-1.54,-0.42,0.86,0.06,-0.03,1.04,
2.66,-1.49,-0.36,0.82,0.06,-0.03,1.04,
2.66,-1.49,-0.36,0.82,0.06,-0.03,1.04,
2.662,-1.49,-0.36,0.82,0.07,-0.03,1.03,
2.662,-1.42,-0.33,0.77,0.07,-0.03,1.03,
2.665,-1.42,-0.33,0.77,0.07,-0.03,1.03,
2.667,-1.42,-0.33,0.77,0.08,-0.03,1.03,
2.667,-1.32,-0.31,0.73,0.08,-0.03,1.03,
2.669,-1.32,-0.31,0.73,0.08,-0.03,1.03,
2.673,-1.32,-0.31,0.73,0.09,-0.04,1.02,
2.673,-1.24,-0.33,0.68,0.09,-0.04,1.02,
2.675,-1.24,-0.33,0.68,0.09,-0.04,1.02,
2.677,-1.24,-0.33,0.68,0.10,-0.05,1.01,
2.678,-1.12,-0.39,0.62,0.10,-0.05,1.01,
2.679,-1.12,-0.39,0.62,0.10,-0.05,1.00,
2.682,-1.12,-0.39,0.62,0.11,-0.05,1.00,
2.682,-0.99,-0.47,0.52,0.11,-0.05,1.00,
2.684,-0.99,-0.47,0.52,0.11,-0.05,1.00,
2.687,-0.99,-0.47,0.52,0.11,-0.04,0.99,
2.688,-0.90,-0.50,0.41,0.11,-0.04,0.99,
2.689,-0.90,-0.50,0.41,0.11,-0.03,0.99,
2.692,-0.90,-0.50,0.41,0.11,-0.03,0.99,
2.692,-0.84,-0.48,0.34,0.11,-0.03,0.99,
2.714,-0.84,-0.48,0.34,0.11,-0.02,0.99,
2.715,-0.84,-0.48,0.34,0.11,-0.01,0.99,
2.715,-0.85,-0.36,0.29,0.11,-0.01,0.99,
2.716,-0.85,-0.36,0.29,0.10,-0.00,0.99,
2.716,-0.85,-0.36,0.29,0.10,0.01,0.98,
2.716,-0.87,-0.19,0.26,0.10,0.01,0.98,
2.717,-0.87,-0.19,0.26,0.10,0.02,0.98,
2.717,-0.87,-0.19,0.26,0.10,0.03,0.98,
2.717,-0.90,-0.01,0.23,0.10,0.03,0.98,
2.717,-0.90,-0.01,0.23,0.10,0.03,0.98,
2.718,-0.90,-0.01,0.23,0.10,0.04,0.98,
2.718,-0.91,0.17,0.22,0.10,0.04,0.98,
2.718,-0.91,0.17,0.22,0.11,0.04,0.98,
2.719,-0.91,0.17,0.22,0.11,0.05,0.98,
2.719,-0.88,0.29,0.19,0.11,0.05,0.98,
2.719,-0.88,0.29,0.19,0.12,0.05,0.97,
2.721,-0.88,0.29,0.19,0.12,0.05,0.97,
2.722,-0.79,0.38,0.15,0.12,0.05,0.97,
2.724,-0.79,0.38,0.15,0.12,0.05,0.97,
2.726,-0.79,0.38,0.15,0.13,0.05,0.97,
2.727,-0.71,0.42,0.12,0.13,0.05,0.97,
2.728,-0.71,0.42,0.12,0.13,0.05,0.97,
2.731,-0.71,0.42,0.12,0.13,0.04,0.97,
2.731,-0.64,0.43,0.10,0.13,0.04,0.97,
2.733,-0.64,0.43,0.10,0.14,0.04,0.97,
2.736,-0.64,0.43,0.10,0.14,0.03,0.96,
2.736,-0.54,0.38,0.07,0.14,0.03,0.96,
2.738,-0.54,0.38,0.07,0.14,0.03,0.96,
2.741,-0.54,0.38,0.07,0.14,0.03,0.96,
2.741,-0.50,0.26,0.01,0.14,0.03,0.96,
2.743,-0.50,0.26,0.01,0.14,0.02,0.96,
2.746,-0.45,0.19,-0.03,0.14,0.02,0.96,
2.746,-0.45,0.19,-0.03,0.14,0.02,0.96,
2.748,-0.45,0.19,-0.03,0.13,0.01,0.95,
2.751,-0.46,0.10,-0.07,0.13,0.01,0.95,
2.751,-0.46,0.10,-0.07,0.13,0.01,0.96,
2.759,-0.46,0.10,-0.07,0.13,0.01,0.96,
2.76,-0.46,0.10,-0.07,0.12,0.00,0.96,
2.76,-0.51,0.02,-0.08,0.12,0.00,0.96,
2.76,-0.51,0.02,-0.08,0.12,0.00,0.95,
2.761,-0.51,0.02,-0.08,0.12,0.00,0.96,
2.761,-0.58,-0.03,-0.08,0.12,0.00,0.96,
2.763,-0.58,-0.03,-0.08,0.11,0.00,0.96,
2.765,-0.58,-0.03,-0.08,0.11,0.00,0.96,
2.765,-0.64,-0.05,-0.08,0.11,0.00,0.96,
2.767,-0.64,-0.05,-0.08,0.11,-0.00,0.96,
2.771,-0.64,-0.05,-0.08,0.11,-0.00,0.96,
2.772,-0.68,-0.07,-0.07,0.11,-0.00,0.96,
2.772,-0.68,-0.07,-0.07,0.11,-0.00,0.96,
2.775,-0.68,-0.07,-0.07,0.11,-0.00,0.96,
2.775,-0.71,-0.10,-0.06,0.11,-0.00,0.96,
2.777,-0.71,-0.10,-0.06,0.12,-0.00,0.96,
2.78,-0.71,-0.10,-0.06,0.12,-0.00,0.96,
2.781,-0.68,-0.10,-0.05,0.12,-0.00,0.96,
2.782,-0.68,-0.10,-0.05,0.12,0.00,0.96,
2.785,-0.68,-0.10,-0.05,0.13,0.00,0.96,
2.786,-0.63,-0.09,-0.04,0.13,0.00,0.96,
2.787,-0.63,-0.09,-0.04,0.13,0.00,0.96,
2.791,-0.63,-0.09,-0.04,0.13,0.00,0.96,
2.792,-0.57,-0.07,-0.03,0.13,0.00,0.96,
2.792,-0.57,-0.07,-0.03,0.13,0.00,0.96,
2.796,-0.57,-0.07,-0.03,0.13,0.01,0.96,
2.796,-0.50,-0.05,-0.00,0.13,0.01,0.96,
2.797,-0.50,-0.05,-0.00,0.14,0.01,0.96,
2.799,-0.50,-0.05,-0.00,0.14,0.01,0.96,
2.799,-0.46,-0.02,-0.01,0.14,0.01,0.96,
2.802,-0.46,-0.02,-0.01,0.14,0.01,0.96,
2.804,-0.46,-0.02,-0.01,0.15,0.02,0.96,
2.805,-0.38,0.01,-0.02,0.15,0.02,0.96,
2.807,-0.38,0.01,-0.02,0.15,0.02,0.96,
2.809,-0.38,0.01,-0.02,0.15,0.02,0.96,
2.81,-0.31,0.07,-0.04,0.15,0.02,0.96,
2.811,-0.31,0.07,-0.04,0.15,0.03,0.96,
2.814,-0.31,0.07,-0.04,0.15,0.03,0.97,
2.814,-0.24,0.13,-0.01,0.15,0.03,0.97,
2.816,-0.24,0.13,-0.01,0.15,0.04,0.97,
2.819,-0.24,0.13,-0.01,0.15,0.05,0.97,
2.819,-0.21,0.24,0.00,0.15,0.05,0.97,
2.821,-0.21,0.24,0.00,0.15,0.05,0.97,
2.824,-0.21,0.24,0.00,0.15,0.05,0.97,
2.825,-0.22,0.35,0.02,0.15,0.05,0.97,
2.826,-0.22,0.35,0.02,0.15,0.05,0.96,
2.829,-0.22,0.35,0.02,0.16,0.05,0.96,
2.829,-0.23,0.43,0.01,0.16,0.05,0.96,
2.831,-0.23,0.43,0.01,0.16,0.05,0.96,
2.834,-0.23,0.43,0.01,0.16,0.05,0.96,
2.834,-0.18,0.43,-0.01,0.16,0.05,0.96,
2.836,-0.18,0.43,-0.01,0.17,0.05,0.96,
2.839,-0.18,0.43,-0.01,0.17,0.05,0.96,
2.839,-0.10,0.43,-0.04,0.17,0.05,0.96,
2.841,-0.10,0.43,-0.04,0.18,0.04,0.96,
2.843,-0.10,0.43,-0.04,0.18,0.04,0.96,
2.844,-0.03,0.38,-0.05,0.18,0.04,0.96,
2.846,-0.03,0.38,-0.05,0.19,0.04,0.96,
2.849,-0.03,0.38,-0.05,0.19,0.04,0.96,
2.849,0.09,0.34,-0.05,0.19,0.04,0.96,
2.851,0.09,0.34,-0.05,0.20,0.04,0.96,
2.86,0.09,0.34,-0.05,0.20,0.04,0.96,
2.861,0.17,0.33,-0.07,0.20,0.04,0.96,
2.861,0.17,0.33,-0.07,0.20,0.04,0.96,
2.861,0.17,0.33,-0.07,0.20,0.04,0.96,
2.861,0.22,0.33,-0.07,0.20,0.04,0.96,
2.862,0.22,0.33,-0.07,0.20,0.04,0.96,
2.863,0.22,0.33,-0.07,0.20,0.05,0.96,
2.863,0.24,0.33,-0.07,0.20,0.05,0.96,
2.866,0.24,0.33,-0.07,0.20,0.05,0.96,
2.868,0.24,0.33,-0.07,0.20,0.05,0.96,
2.868,0.27,0.34,-0.02,0.20,0.05,0.96,
2.872,0.27,0.34,-0.02,0.20,0.05,0.97,
2.873,0.27,0.34,-0.02,0.20,0.05,0.97,
2.873,0.28,0.38,-0.01,0.20,0.05,0.97,
2.875,0.28,0.38,-0.01,0.20,0.05,0.97,
2.878,0.28,0.38,-0.01,0.20,0.05,0.97,
2.878,0.28,0.41,0.02,0.20,0.05,0.97,
2.88,0.28,0.41,0.02,0.20,0.05,0.97,
2.883,0.28,0.41,0.02,0.20,0.05,0.97,
2.883,0.26,0.43,0.02,0.20,0.05,0.97,
2.885,0.26,0.43,0.02,0.20,0.06,0.97,
2.887,0.26,0.43,0.02,0.20,0.06,0.97,
2.888,0.26,0.42,0.03,0.20,0.06,0.97,
2.89,0.26,0.42,0.03,0.20,0.06,0.97,
2.893,0.26,0.42,0.03,0.20,0.06,0.97,
2.893,0.28,0.44,0.05,0.20,0.06,0.97,
2.895,0.28,0.44,0.05,0.20,0.07,0.97,
2.897,0.28,0.44,0.05,0.19,0.07,0.97,
2.897,0.27,0.50,0.04,0.19,0.07,0.97,
2.9,0.27,0.50,0.04,0.19,0.07,0.97,
2.902,0.27,0.50,0.04,0.19,0.07,0.96,
2.902,0.27,0.53,0.03,0.19,0.07,0.96,
2.904,0.27,0.53,0.03,0.19,0.07,0.96,
2.907,0.27,0.53,0.03,0.19,0.07,0.96,
2.908,0.24,0.56,-0.01,0.19,0.07,0.96,
2.91,0.24,0.56,-0.01,0.19,0.07,0.96,
2.912,0.24,0.56,-0.01,0.19,0.07,0.96,
2.915,0.23,0.59,-0.04,0.19,0.07,0.96,
2.915,0.23,0.59,-0.04,0.19,0.07,0.96,
2.917,0.23,0.59,-0.04,0.18,0.07,0.95,
2.917,0.19,0.61,-0.06,0.18,0.07,0.95,
2.921,0.19,0.61,-0.06,0.18,0.07,0.95,
2.922,0.19,0.61,-0.06,0.18,0.06,0.95,
2.922,0.18,0.57,-0.10,0.18,0.06,0.95,
2.924,0.18,0.57,-0.10,0.17,0.06,0.95,
2.927,0.13,0.52,-0.13,0.17,0.06,0.95,
2.927,0.13,0.52,-0.13,0.17,0.05,0.95,
2.929,0.13,0.52,-0.13,0.17,0.05,0.95,
2.932,0.13,0.52,-0.13,0.17,0.05,0.95,
2.932,0.09,0.43,-0.16,0.17,0.05,0.95,
2.934,0.09,0.43,-0.16,0.16,0.04,0.94,
2.937,0.09,0.43,-0.16,0.16,0.03,0.94,
2.938,0.06,0.35,-0.20,0.16,0.03,0.94,
2.939,0.06,0.35,-0.20,0.16,0.03,0.94,
2.942,0.06,0.35,-0.20,0.15,0.03,0.94,
2.942,0.00,0.25,-0.22,0.15,0.03,0.94,
2.944,0.00,0.25,-0.22,0.15,0.03,0.94,
2.946,0.00,0.25,-0.22,0.15,0.02,0.94,
2.946,-0.05,0.18,-0.24,0.15,0.02,0.94,
2.949,-0.05,0.18,-0.24,0.15,0.02,0.94,
2.951,-0.05,0.18,-0.24,0.15,0.02,0.94,
2.952,-0.06,0.13,-0.24,0.15,0.02,0.94,
2.954,-0.06,0.13,-0.24,0.15,0.02,0.94,
2.956,-0.06,0.13,-0.24,0.15,0.01,0.94,
2.957,-0.08,0.07,-0.25,0.15,0.01,0.94,
2.959,-0.08,0.07,-0.25,0.14,0.01,0.95,
2.961,-0.13,0.02,-0.24,0.14,0.01,0.95,
2.961,-0.13,0.02,-0.24,0.14,0.01,0.94,
2.963,-0.13,0.02,-0.24,0.14,0.01,0.95,
2.966,-0.13,0.02,-0.24,0.14,0.01,0.95,
2.966,-0.18,-0.01,-0.21,0.14,0.01,0.95,
2.968,-0.18,-0.01,-0.21,0.14,0.01,0.95,
2.974,-0.18,-0.01,-0.21,0.14,0.01,0.95,
2.974,-0.20,-0.04,-0.17,0.14,0.01,0.95,
2.974,-0.20,-0.04,-0.17,0.14,0.01,0.96,
2.976,-0.20,-0.04,-0.17,0.14,0.01,0.96,
2.976,-0.24,-0.04,-0.12,0.14,0.01,0.96,
2.978,-0.24,-0.04,-0.12,0.13,0.01,0.96,
2.981,-0.24,-0.04,-0.12,0.13,0.01,0.96,
2.981,-0.26,-0.05,-0.11,0.13,0.01,0.96,
2.983,-0.26,-0.05,-0.11,0.13,0.01,0.96,
2.986,-0.26,-0.05,-0.11,0.13,0.01,0.96,
2.986,-0.29,-0.07,-0.09,0.13,0.01,0.96,
2.988,-0.29,-0.07,-0.09,0.13,0.01,0.96,
2.99,-0.29,-0.07,-0.09,0.13,0.01,0.96,
2.99,-0.31,-0.03,-0.08,0.13,0.01,0.96,
2.993,-0.31,-0.03,-0.08,0.13,0.02,0.96,
2.995,-0.31,-0.03,-0.08,0.13,0.02,0.96,
2.995,-0.33,-0.00,-0.05,0.13,0.02,0.96,
2.997,-0.33,-0.00,-0.05,0.13,0.02,0.96,
3.0,-0.33,-0.00,-0.05,0.13,0.02,0.96,
3.0,-0.34,0.04,-0.03,0.13,0.02,0.96,
3.003,-0.34,0.04,-0.03,0.14,0.02,0.96,
3.005,-0.34,0.04,-0.03,0.14,0.02,0.96,
3.006,-0.33,0.08,-0.05,0.14,0.02,0.96,
3.008,-0.33,0.08,-0.05,0.14,0.02,0.95,
3.01,-0.33,0.08,-0.05,0.15,0.02,0.95,
3.01,-0.25,0.10,-0.08,0.15,0.02,0.95,
3.012,-0.25,0.10,-0.08,0.15,0.02,0.95,
3.015,-0.25,0.10,-0.08,0.15,0.02,0.95,
3.015,-0.19,0.07,-0.12,0.15,0.02,0.95,
3.017,-0.19,0.07,-0.12,0.16,0.02,0.95,
3.02,-0.19,0.07,-0.12,0.16,0.02,0.95,
3.02,-0.14,0.05,-0.16,0.16,0.02,0.95,
3.022,-0.14,0.05,-0.16,0.16,0.02,0.95,
3.025,-0.06,0.05,-0.19,0.16,0.02,0.95,
3.025,-0.06,0.05,-0.19,0.17,0.02,0.95,
3.027,-0.06,0.05,-0.19,0.17,0.02,0.95,
3.029,-0.06,0.05,-0.19,0.17,0.02,0.94,
3.03,-0.02,0.06,-0.19,0.17,0.02,0.94,
3.032,-0.02,0.06,-0.19,0.16,0.02,0.86,
3.035,0.02,0.06,-0.22,0.16,0.02,0.86,
3.035,0.02,0.06,-0.22,0.17,0.01,0.78,
3.038,0.02,0.06,-0.22,0.18,0.02,0.79,
3.04,0.02,0.06,-0.22,0.18,0.03,0.84,
3.04,-0.01,-0.00,-1.40,0.18,0.03,0.84,
3.042,-0.01,-0.00,-1.40,0.18,0.03,0.87,
3.044,-0.01,-0.00,-1.40,0.17,0.02,0.87,
3.045,0.14,0.09,-1.45,0.17,0.02,0.87,
3.047,0.14,0.09,-1.45,0.16,0.02,0.85,
3.049,0.14,0.09,-1.45,0.15,0.02,0.82,
3.049,0.05,0.11,-0.91,0.15,0.02,0.82,
3.051,0.05,0.11,-0.91,0.15,0.02,0.80,
3.054,0.05,0.11,-0.91,0.16,0.03,0.80,
3.055,-0.14,0.08,-1.28,0.16,0.03,0.80,
3.056,-0.14,0.08,-1.28,0.17,0.03,0.81,
3.059,-0.14,0.08,-1.28,0.18,0.03,0.82,
3.059,-0.10,0.14,-1.64,0.18,0.03,0.82,
3.061,-0.10,0.14,-1.64,0.18,0.03,0.83,
3.064,-0.10,0.14,-1.64,0.18,0.02,0.84,
3.064,0.08,0.22,-1.46,0.18,0.02,0.84,
3.066,0.08,0.22,-1.46,0.18,0.02,0.84,
3.069,0.08,0.22,-1.46,0.18,0.02,0.85,
3.069,0.15,0.21,-1.26,0.18,0.02,0.85,
3.075,0.15,0.21,-1.26,0.18,0.03,0.87,
3.075,0.15,0.21,-1.26,0.18,0.03,0.88,
3.075,0.13,0.21,-1.13,0.18,0.03,0.88,
3.076,0.13,0.21,-1.13,0.18,0.04,0.90,
3.078,0.13,0.21,-1.13,0.17,0.04,0.91,
3.079,0.10,0.31,-0.86,0.17,0.04,0.91,
3.081,0.10,0.31,-0.86,0.17,0.03,0.92,
3.083,0.10,0.31,-0.86,0.16,0.03,0.93,
3.083,0.05,0.40,-0.57,0.16,0.03,0.93,
3.086,0.05,0.40,-0.57,0.16,0.02,0.94,
3.089,0.05,0.40,-0.57,0.16,0.01,0.96,
3.089,-0.06,0.37,-0.34,0.16,0.01,0.96,
3.091,-0.06,0.37,-0.34,0.16,0.01,0.97,
3.093,-0.06,0.37,-0.34,0.15,0.00,0.99,
3.093,-0.11,0.24,-0.12,0.15,0.00,0.99,
3.095,-0.11,0.24,-0.12,0.15,-0.00,1.01,
3.098,-0.11,0.24,-0.12,0.15,-0.01,1.03,
3.098,-0.17,0.18,0.17,0.15,-0.01,1.03,
3.1,-0.17,0.18,0.17,0.15,-0.02,1.04,
3.103,-0.17,0.18,0.17,0.15,-0.03,1.06,
3.103,-0.22,0.08,0.53,0.15,-0.03,1.06,
3.106,-0.22,0.08,0.53,0.15,-0.04,1.07,
3.108,-0.22,0.08,0.53,0.16,-0.05,1.08,
3.108,-0.21,-0.07,0.84,0.16,-0.05,1.08,
3.11,-0.21,-0.07,0.84,0.16,-0.05,1.09,
3.113,-0.21,-0.07,0.84,0.16,-0.06,1.10,
3.113,-0.20,-0.25,1.09,0.16,-0.06,1.10,
3.115,-0.20,-0.25,1.09,0.17,-0.06,1.10,
3.118,-0.20,-0.25,1.09,0.17,-0.06,1.11,
3.118,-0.14,-0.37,1.28,0.17,-0.06,1.11,
3.12,-0.14,-0.37,1.28,0.18,-0.06,1.11,
3.123,-0.14,-0.37,1.28,0.18,-0.06,1.11,
3.123,-0.05,-0.44,1.37,0.18,-0.06,1.11,
3.125,-0.05,-0.44,1.37,0.18,-0.06,1.12,
3.127,-0.05,-0.44,1.37,0.18,-0.05,1.12,
3.128,0.02,-0.45,1.41,0.18,-0.05,1.12,
3.13,0.02,-0.45,1.41,0.18,-0.05,1.12,
3.132,0.02,-0.45,1.41,0.18,-0.05,1.11,
3.132,0.06,-0.41,1.45,0.18,-0.05,1.11,
3.135,0.06,-0.41,1.45,0.17,-0.04,1.11,
