
time,ax,ay,az,gFx,gFy,gFz,
0.002,0.08,0.00,0.11,-0.01,0.12,0.97,
0.003,0.08,0.00,0.11,-0.01,0.12,0.97,
0.003,0.07,0.01,0.01,-0.01,0.12,0.97,
0.003,0.07,0.01,0.01,-0.01,0.12,0.97,
0.005,0.07,0.01,0.01,-0.01,0.12,0.97,
0.006,0.07,-0.00,-0.04,-0.01,0.12,0.97,
0.008,0.07,-0.00,-0.04,-0.01,0.13,0.97,
0.01,0.05,-0.01,-0.06,-0.01,0.13,0.97,
0.01,0.05,-0.01,-0.06,-0.01,0.13,0.97,
0.013,0.05,-0.01,-0.06,-0.02,0.13,0.97,
0.015,0.05,-0.01,-0.06,-0.02,0.13,0.97,
0.015,0.04,0.03,-0.07,-0.02,0.13,0.97,
0.018,0.04,0.03,-0.07,-0.02,0.13,0.97,
0.02,0.04,0.03,-0.07,-0.02,0.13,0.97,
0.02,0.02,0.04,-0.04,-0.02,0.13,0.97,
0.023,0.02,0.04,-0.04,-0.02,0.12,0.98,
0.025,0.02,0.04,-0.04,-0.02,0.12,0.98,
0.025,0.01,0.04,-0.01,-0.02,0.12,0.98,
0.027,0.01,0.04,-0.01,-0.02,0.12,0.98,
0.03,0.01,0.04,-0.01,-0.02,0.12,0.99,
0.031,0.01,0.01,0.05,-0.02,0.12,0.99,
0.033,0.01,0.01,0.05,-0.03,0.12,0.99,
0.035,0.01,0.01,0.05,-0.03,0.12,1.00,
0.035,-0.01,-0.01,0.12,-0.03,0.12,1.00,
0.037,-0.01,-0.01,0.12,-0.03,0.12,1.00,
0.04,-0.01,-0.01,0.12,-0.04,0.12,1.00,
0.04,-0.09,0.01,0.19,-0.04,0.12,1.00,
0.042,-0.09,0.01,0.19,-0.04,0.12,1.00,
0.045,-0.09,0.01,0.19,-0.03,0.12,1.00,
0.045,-0.16,0.01,0.23,-0.03,0.12,1.00,
0.047,-0.16,0.01,0.23,-0.03,0.12,1.00,
0.05,-0.16,0.01,0.23,-0.03,0.12,1.00,
0.05,-0.16,-0.01,0.26,-0.03,0.12,1.00,
0.052,-0.16,-0.01,0.26,-0.03,0.12,1.00,
0.054,-0.16,-0.01,0.26,-0.03,0.12,1.00,
0.054,-0.10,-0.04,0.26,-0.03,0.12,1.00,
0.057,-0.10,-0.04,0.26,-0.03,0.12,1.00,
0.059,-0.10,-0.04,0.26,-0.03,0.12,0.99,
0.059,-0.09,-0.03,0.25,-0.03,0.12,0.99,
0.063,-0.09,-0.03,0.25,-0.03,0.12,0.99,
0.064,-0.09,-0.03,0.25,-0.03,0.12,0.99,
0.065,-0.11,-0.03,0.20,-0.03,0.12,0.99,
0.067,-0.11,-0.03,0.20,-0.03,0.12,0.99,
0.069,-0.11,-0.03,0.20,-0.03,0.12,0.98,
0.069,-0.10,-0.01,0.16,-0.03,0.12,0.98,
0.072,-0.10,-0.01,0.16,-0.03,0.12,0.98,
0.074,-0.10,-0.01,0.16,-0.03,0.13,0.98,
0.074,-0.08,0.00,0.10,-0.03,0.13,0.98,
0.076,-0.08,0.00,0.10,-0.02,0.13,0.97,
0.079,-0.08,0.00,0.10,-0.02,0.13,0.97,
0.08,-0.07,0.02,0.02,-0.02,0.13,0.97,
0.082,-0.07,0.02,0.02,-0.02,0.13,0.97,
0.084,-0.07,0.02,0.02,-0.02,0.13,0.97,
0.084,-0.03,0.04,-0.03,-0.02,0.13,0.97,
0.086,-0.03,0.04,-0.03,-0.02,0.13,0.96,
0.089,-0.03,0.04,-0.03,-0.02,0.13,0.96,
0.089,-0.02,0.04,-0.07,-0.02,0.13,0.96,
0.091,-0.02,0.04,-0.07,-0.02,0.12,0.96,
0.094,-0.02,0.04,-0.07,-0.02,0.12,0.96,
0.094,-0.00,0.03,-0.13,-0.02,0.12,0.96,
0.103,-0.00,0.03,-0.13,-0.02,0.13,0.96,
0.103,-0.00,0.03,-0.13,-0.02,0.12,0.96,
0.103,-0.00,-0.00,-0.15,-0.02,0.12,0.96,
0.104,-0.00,-0.00,-0.15,-0.02,0.12,0.96,
0.104,-0.00,-0.00,-0.15,-0.03,0.12,0.96,
0.105,-0.01,-0.01,-0.16,-0.03,0.12,0.96,
0.106,-0.01,-0.01,-0.16,-0.03,0.12,0.96,
0.108,-0.01,-0.01,-0.16,-0.02,0.12,0.96,
0.108,-0.04,-0.03,-0.15,-0.02,0.12,0.96,
0.111,-0.04,-0.03,-0.15,-0.02,0.12,0.96,
0.113,-0.04,-0.03,-0.15,-0.02,0.12,0.96,
0.113,-0.05,-0.04,-0.13,-0.02,0.12,0.96,
0.116,-0.05,-0.04,-0.13,-0.02,0.12,0.96,
0.118,-0.05,-0.04,-0.13,-0.03,0.12,0.96,
0.118,-0.03,-0.06,-0.12,-0.03,0.12,0.96,
0.121,-0.03,-0.06,-0.12,-0.02,0.11,0.97,
0.123,-0.03,-0.06,-0.12,-0.02,0.12,0.97,
0.123,-0.04,-0.07,-0.11,-0.02,0.12,0.97,
0.125,-0.04,-0.07,-0.11,-0.03,0.12,0.97,
0.128,-0.04,-0.07,-0.11,-0.03,0.12,0.97,
0.128,-0.02,-0.09,-0.07,-0.03,0.12,0.97,
0.13,-0.02,-0.09,-0.07,-0.03,0.12,0.97,
0.133,-0.02,-0.09,-0.07,-0.03,0.12,0.97,
0.133,-0.05,-0.06,-0.06,-0.03,0.12,0.97,
0.135,-0.05,-0.06,-0.06,-0.03,0.12,0.98,
0.138,-0.05,-0.06,-0.06,-0.02,0.12,0.98,
0.138,-0.05,-0.05,-0.02,-0.02,0.12,0.98,
0.14,-0.05,-0.05,-0.02,-0.02,0.12,0.98,
0.142,-0.05,-0.05,-0.02,-0.02,0.12,0.98,
0.143,-0.04,-0.03,0.03,-0.02,0.12,0.98,
0.146,-0.04,-0.03,0.03,-0.02,0.12,0.98,
0.148,-0.04,-0.03,0.03,-0.02,0.12,0.98,
0.148,-0.01,-0.01,0.03,-0.02,0.12,0.98,
0.15,-0.01,-0.01,0.03,-0.02,0.12,0.98,
0.152,-0.01,-0.01,0.03,-0.02,0.13,0.98,
0.152,0.04,-0.00,0.03,-0.02,0.13,0.98,
0.155,0.04,-0.00,0.03,-0.01,0.13,0.97,
0.157,0.04,-0.00,0.03,-0.01,0.13,0.97,
0.157,0.06,0.01,0.02,-0.01,0.13,0.97,
0.16,0.06,0.01,0.02,-0.01,0.13,0.97,
0.162,0.06,0.01,0.02,-0.01,0.13,0.97,
0.162,0.07,0.04,-0.00,-0.01,0.13,0.97,
0.165,0.07,0.04,-0.00,-0.01,0.13,0.97,
0.167,0.07,0.04,-0.00,-0.01,0.13,0.97,
0.167,0.10,0.06,-0.03,-0.01,0.13,0.97,
0.169,0.10,0.06,-0.03,-0.01,0.13,0.97,
0.172,0.10,0.06,-0.03,-0.01,0.13,0.97,
0.172,0.08,0.06,-0.05,-0.01,0.13,0.97,
0.174,0.08,0.06,-0.05,-0.01,0.13,0.97,
0.177,0.08,0.06,-0.05,-0.01,0.13,0.96,
0.177,0.08,0.04,-0.06,-0.01,0.13,0.96,
0.182,0.08,0.04,-0.06,-0.01,0.13,0.96,
0.182,0.08,0.04,-0.06,-0.02,0.13,0.96,
0.182,0.08,0.02,-0.08,-0.02,0.13,0.96,
0.184,0.08,0.02,-0.08,-0.02,0.13,0.96,
0.187,0.08,0.02,-0.08,-0.02,0.13,0.96,
0.187,0.05,0.03,-0.11,-0.02,0.13,0.96,
0.189,0.05,0.03,-0.11,-0.01,0.13,0.96,
0.191,0.05,0.03,-0.11,-0.01,0.13,0.96,
0.192,0.05,0.02,-0.11,-0.01,0.13,0.96,
0.194,0.05,0.02,-0.11,-0.01,0.12,0.97,
0.197,0.05,0.02,-0.11,-0.01,0.12,0.97,
0.197,0.08,0.02,-0.09,-0.01,0.12,0.97,
0.199,0.08,0.02,-0.09,-0.01,0.12,0.97,
0.201,0.08,0.02,-0.09,-0.01,0.12,0.97,
0.201,0.08,-0.00,-0.07,-0.01,0.12,0.97,
0.204,0.08,-0.00,-0.07,-0.01,0.13,0.97,
0.206,0.10,0.01,-0.02,-0.01,0.13,0.97,
0.207,0.10,0.01,-0.02,-0.01,0.13,0.98,
0.209,0.10,0.01,-0.02,-0.01,0.13,0.98,
0.211,0.10,0.01,-0.02,-0.01,0.13,0.98,
0.212,0.08,0.02,0.03,-0.01,0.13,0.98,
0.214,0.08,0.02,0.03,-0.01,0.12,0.98,
0.216,0.08,0.02,0.03,-0.00,0.12,0.98,
0.216,0.09,0.02,0.07,-0.00,0.12,0.98,
0.219,0.09,0.02,0.07,-0.00,0.12,0.98,
0.221,0.09,0.02,0.07,-0.00,0.12,0.98,
0.221,0.14,-0.01,0.08,-0.00,0.12,0.98,
0.224,0.14,-0.01,0.08,-0.00,0.12,0.98,
0.226,0.14,-0.01,0.08,-0.00,0.12,0.98,
0.226,0.17,-0.04,0.10,-0.00,0.12,0.98,
0.228,0.17,-0.04,0.10,-0.00,0.12,0.98,
0.231,0.17,-0.04,0.10,-0.00,0.12,0.98,
0.231,0.16,-0.05,0.09,-0.00,0.12,0.98,
0.233,0.16,-0.05,0.09,-0.00,0.12,0.98,
0.236,0.16,-0.05,0.09,-0.00,0.12,0.98,
0.236,0.15,-0.03,0.08,-0.00,0.12,0.98,
0.238,0.15,-0.03,0.08,-0.01,0.12,0.98,
0.241,0.15,-0.03,0.08,-0.01,0.12,0.97,
0.241,0.16,-0.02,0.04,-0.01,0.12,0.97,
0.243,0.16,-0.02,0.04,-0.01,0.12,0.97,
0.245,0.16,-0.02,0.04,-0.01,0.12,0.97,
0.246,0.13,-0.02,0.01,-0.01,0.12,0.97,
0.248,0.13,-0.02,0.01,-0.01,0.12,0.97,
0.25,0.13,-0.02,0.01,-0.01,0.12,0.97,
0.25,0.12,-0.05,-0.05,-0.01,0.12,0.97,
0.253,0.12,-0.05,-0.05,-0.01,0.12,0.96,
0.255,0.12,-0.05,-0.05,-0.02,0.12,0.96,
0.255,0.10,-0.07,-0.08,-0.02,0.12,0.96,
0.258,0.10,-0.07,-0.08,-0.02,0.12,0.96,
0.26,0.10,-0.07,-0.08,-0.02,0.12,0.96,
0.26,0.05,-0.09,-0.12,-0.02,0.12,0.96,
0.263,0.05,-0.09,-0.12,-0.02,0.12,0.96,
0.266,0.05,-0.09,-0.12,-0.02,0.12,0.96,
0.266,-0.01,-0.07,-0.16,-0.02,0.12,0.96,
0.27,-0.01,-0.07,-0.16,-0.02,0.12,0.96,
0.27,-0.01,-0.07,-0.16,-0.02,0.12,0.96,
0.27,-0.01,-0.07,-0.16,-0.02,0.12,0.96,
0.272,-0.01,-0.07,-0.16,-0.02,0.12,0.96,
0.275,-0.01,-0.07,-0.16,-0.02,0.11,0.96,
0.275,0.01,-0.08,-0.16,-0.02,0.11,0.96,
0.277,0.01,-0.08,-0.16,-0.02,0.11,0.96,
0.285,0.01,-0.08,-0.16,-0.03,0.11,0.96,
0.285,-0.01,-0.09,-0.14,-0.03,0.11,0.96,
0.286,-0.01,-0.09,-0.14,-0.03,0.11,0.96,
0.286,-0.01,-0.09,-0.14,-0.02,0.11,0.96,
0.286,-0.04,-0.11,-0.15,-0.02,0.11,0.96,
0.287,-0.04,-0.11,-0.15,-0.02,0.11,0.96,
0.289,-0.04,-0.11,-0.15,-0.02,0.11,0.96,
0.29,-0.05,-0.11,-0.15,-0.02,0.11,0.96,
0.292,-0.05,-0.11,-0.15,-0.02,0.11,0.96,
0.295,-0.05,-0.11,-0.15,-0.02,0.10,0.95,
0.295,-0.03,-0.13,-0.15,-0.02,0.10,0.95,
0.297,-0.03,-0.13,-0.15,-0.02,0.11,0.95,
0.299,-0.03,-0.13,-0.15,-0.02,0.11,0.95,
0.299,-0.02,-0.19,-0.17,-0.02,0.11,0.95,
0.302,-0.02,-0.19,-0.17,-0.02,0.11,0.95,
0.304,-0.02,-0.19,-0.17,-0.02,0.11,0.95,
0.304,-0.02,-0.18,-0.19,-0.02,0.11,0.95,
0.307,-0.02,-0.18,-0.19,-0.02,0.11,0.95,
0.309,-0.02,-0.18,-0.19,-0.01,0.11,0.95,
0.309,0.01,-0.15,-0.20,-0.01,0.11,0.95,
0.311,0.01,-0.15,-0.20,-0.01,0.11,0.95,
0.314,0.01,-0.15,-0.20,-0.01,0.11,0.95,
0.314,0.06,-0.14,-0.20,-0.01,0.11,0.95,
0.316,0.06,-0.14,-0.20,-0.01,0.11,0.95,
0.319,0.06,-0.14,-0.20,-0.00,0.12,0.95,
0.319,0.10,-0.11,-0.21,-0.00,0.12,0.95,
0.321,0.10,-0.11,-0.21,-0.00,0.11,0.95,
0.324,0.10,-0.11,-0.21,-0.00,0.12,0.95,
0.324,0.15,-0.09,-0.21,-0.00,0.12,0.95,
0.327,0.15,-0.09,-0.21,-0.00,0.12,0.95,
0.329,0.15,-0.09,-0.21,0.00,0.12,0.95,
0.329,0.18,-0.08,-0.20,0.00,0.12,0.95,
0.331,0.18,-0.08,-0.20,0.00,0.12,0.95,
0.333,0.18,-0.08,-0.20,0.00,0.12,0.95,
0.334,0.21,-0.08,-0.21,0.00,0.12,0.95,
0.336,0.21,-0.08,-0.21,0.00,0.12,0.95,
0.338,0.21,-0.08,-0.21,0.00,0.12,0.95,
0.339,0.23,-0.06,-0.23,0.00,0.12,0.95,
0.341,0.23,-0.06,-0.23,-0.00,0.12,0.95,
0.343,0.23,-0.06,-0.23,-0.00,0.12,0.95,
0.344,0.21,-0.03,-0.21,-0.00,0.12,0.95,
0.346,0.21,-0.03,-0.21,-0.00,0.12,0.95,
0.348,0.21,-0.03,-0.21,-0.00,0.12,0.95,
0.348,0.17,-0.02,-0.19,-0.00,0.12,0.95,
0.351,0.17,-0.02,-0.19,-0.00,0.12,0.95,
0.353,0.17,-0.02,-0.19,-0.01,0.12,0.95,
0.353,0.16,-0.03,-0.20,-0.01,0.12,0.95,
0.355,0.16,-0.03,-0.20,-0.01,0.12,0.95,
0.358,0.16,-0.03,-0.20,-0.01,0.12,0.95,
0.358,0.14,-0.03,-0.20,-0.01,0.12,0.95,
0.362,0.14,-0.03,-0.20,-0.01,0.12,0.95,
0.363,0.14,-0.03,-0.20,-0.01,0.11,0.95,
0.363,0.10,-0.05,-0.20,-0.01,0.11,0.95,
0.366,0.10,-0.05,-0.20,-0.01,0.11,0.95,
0.368,0.10,-0.05,-0.20,-0.01,0.11,0.95,
0.368,0.06,-0.07,-0.21,-0.01,0.11,0.95,
0.37,0.06,-0.07,-0.21,-0.01,0.11,0.95,
0.373,0.06,-0.07,-0.21,-0.01,0.11,0.96,
0.373,0.06,-0.08,-0.21,-0.01,0.11,0.96,
0.375,0.06,-0.08,-0.21,-0.01,0.11,0.96,
0.378,0.06,-0.08,-0.21,-0.01,0.11,0.96,
0.379,0.04,-0.09,-0.15,-0.01,0.11,0.96,
0.38,0.04,-0.09,-0.15,-0.01,0.11,0.96,
0.382,0.04,-0.09,-0.15,-0.01,0.11,0.96,
0.383,0.06,-0.09,-0.13,-0.01,0.11,0.96,
0.385,0.06,-0.09,-0.13,-0.00,0.11,0.96,
0.387,0.06,-0.09,-0.13,0.00,0.11,0.97,
0.387,0.11,-0.07,-0.08,0.00,0.11,0.97,
0.39,0.11,-0.07,-0.08,0.01,0.11,0.97,
0.392,0.11,-0.07,-0.08,0.01,0.11,0.98,
0.393,0.17,-0.10,-0.04,0.01,0.11,0.98,
0.398,0.17,-0.10,-0.04,0.01,0.11,0.98,
0.398,0.17,-0.10,-0.04,0.02,0.11,0.98,
0.398,0.25,-0.12,0.04,0.02,0.11,0.98,
0.4,0.25,-0.12,0.04,0.02,0.11,0.98,
0.402,0.25,-0.12,0.04,0.02,0.11,0.99,
0.402,0.31,-0.11,0.10,0.02,0.11,0.99,
0.405,0.31,-0.11,0.10,0.02,0.11,0.99,
0.407,0.31,-0.11,0.10,0.02,0.10,0.99,
0.407,0.32,-0.10,0.16,0.02,0.10,0.99,
0.409,0.32,-0.10,0.16,0.02,0.10,0.99,
0.412,0.32,-0.10,0.16,0.02,0.10,0.99,
0.412,0.33,-0.13,0.19,0.02,0.10,0.99,
0.414,0.33,-0.13,0.19,0.02,0.10,0.99,
0.417,0.32,-0.15,0.22,0.02,0.10,0.99,
0.417,0.32,-0.15,0.22,0.02,0.10,0.99,
0.419,0.32,-0.15,0.22,0.01,0.10,0.99,
0.421,0.32,-0.15,0.22,0.01,0.10,0.99,
0.422,0.32,-0.19,0.22,0.01,0.10,0.99,
0.424,0.32,-0.19,0.22,0.01,0.10,0.99,
0.426,0.32,-0.19,0.22,0.01,0.10,0.98,
0.427,0.25,-0.18,0.20,0.01,0.10,0.98,
0.429,0.25,-0.18,0.20,0.00,0.10,0.98,
0.432,0.25,-0.18,0.20,0.00,0.10,0.98,
0.432,0.20,-0.16,0.15,0.00,0.10,0.98,
0.434,0.20,-0.16,0.15,0.00,0.10,0.98,
0.437,0.20,-0.16,0.15,0.00,0.10,0.98,
0.437,0.17,-0.16,0.11,0.00,0.10,0.98,
0.439,0.17,-0.16,0.11,0.00,0.10,0.98,
0.441,0.17,-0.16,0.11,0.00,0.10,0.98,
0.442,0.14,-0.18,0.10,0.00,0.10,0.98,
0.444,0.14,-0.18,0.10,0.00,0.11,0.97,
0.446,0.14,-0.18,0.10,0.00,0.11,0.97,
0.446,0.14,-0.14,0.06,0.00,0.11,0.97,
0.449,0.14,-0.14,0.06,0.00,0.11,0.97,
0.451,0.14,-0.14,0.06,0.01,0.11,0.97,
0.451,0.14,-0.08,0.01,0.01,0.11,0.97,
0.453,0.14,-0.08,0.01,0.01,0.11,0.97,
0.456,0.14,-0.08,0.01,0.02,0.11,0.97,
0.456,0.19,-0.08,-0.02,0.02,0.11,0.97,
0.458,0.19,-0.08,-0.02,0.03,0.11,0.97,
0.461,0.19,-0.08,-0.02,0.03,0.11,0.97,
0.461,0.29,-0.08,-0.04,0.03,0.11,0.97,
0.464,0.29,-0.08,-0.04,0.04,0.10,0.97,
0.466,0.29,-0.08,-0.04,0.04,0.10,0.97,
0.466,0.39,-0.09,-0.02,0.04,0.10,0.97,
0.468,0.39,-0.09,-0.02,0.05,0.10,0.97,
0.47,0.39,-0.09,-0.02,0.05,0.11,0.98,
0.471,0.50,-0.12,0.00,0.05,0.11,0.98,
0.473,0.50,-0.12,0.00,0.05,0.11,0.98,
0.476,0.50,-0.12,0.00,0.05,0.11,0.98,
0.476,0.57,-0.11,0.04,0.05,0.11,0.98,
0.479,0.57,-0.11,0.04,0.06,0.11,0.99,
0.481,0.60,-0.09,0.09,0.06,0.11,0.99,
0.482,0.60,-0.09,0.09,0.06,0.10,0.99,
0.483,0.60,-0.09,0.09,0.07,0.10,0.99,
0.485,0.67,-0.10,0.16,0.07,0.10,0.99,
0.486,0.67,-0.10,0.16,0.07,0.10,1.00,
0.488,0.67,-0.10,0.16,0.07,0.10,1.00,
0.49,0.67,-0.10,0.16,0.07,0.10,1.00,
0.49,0.72,-0.14,0.24,0.07,0.10,1.00,
0.493,0.72,-0.14,0.24,0.08,0.09,1.00,
0.499,0.72,-0.14,0.24,0.08,0.09,1.01,
0.499,0.75,-0.17,0.30,0.08,0.09,1.01,
0.499,0.75,-0.17,0.30,0.08,0.09,1.01,
0.501,0.75,-0.17,0.30,0.08,0.08,1.01,
0.501,0.79,-0.23,0.32,0.08,0.08,1.01,
0.502,0.79,-0.23,0.32,0.08,0.08,1.01,
0.505,0.79,-0.23,0.32,0.08,0.08,1.02,
0.505,0.81,-0.28,0.37,0.08,0.08,1.02,
0.507,0.81,-0.28,0.37,0.07,0.08,1.01,
0.51,0.81,-0.28,0.37,0.07,0.08,1.02,
0.51,0.79,-0.31,0.40,0.07,0.08,1.02,
0.512,0.79,-0.31,0.40,0.06,0.08,1.02,
0.515,0.79,-0.31,0.40,0.06,0.08,1.02,
0.515,0.72,-0.33,0.41,0.06,0.08,1.02,
0.517,0.72,-0.33,0.41,0.05,0.08,1.01,
0.519,0.72,-0.33,0.41,0.05,0.08,1.01,
0.52,0.62,-0.34,0.41,0.05,0.08,1.01,
0.522,0.62,-0.34,0.41,0.04,0.07,1.01,
0.524,0.62,-0.34,0.41,0.04,0.07,1.01,
0.525,0.51,-0.35,0.39,0.04,0.07,1.01,
0.527,0.51,-0.35,0.39,0.04,0.07,1.01,
0.53,0.51,-0.35,0.39,0.04,0.08,1.00,
0.53,0.43,-0.37,0.35,0.04,0.08,1.00,
0.532,0.43,-0.37,0.35,0.03,0.08,1.00,
0.534,0.43,-0.37,0.35,0.03,0.08,1.00,
0.534,0.39,-0.35,0.29,0.03,0.08,1.00,
0.537,0.39,-0.35,0.29,0.03,0.08,0.99,
0.539,0.39,-0.35,0.29,0.02,0.08,0.99,
0.539,0.31,-0.35,0.23,0.02,0.08,0.99,
0.542,0.31,-0.35,0.23,0.02,0.08,0.99,
0.544,0.31,-0.35,0.23,0.02,0.09,0.98,
0.544,0.24,-0.33,0.17,0.02,0.09,0.98,
0.546,0.24,-0.33,0.17,0.02,0.09,0.98,
0.549,0.24,-0.33,0.17,0.02,0.09,0.97,
0.549,0.21,-0.26,0.09,0.02,0.09,0.97,
0.551,0.21,-0.26,0.09,0.02,0.09,0.97,
0.554,0.21,-0.26,0.09,0.02,0.09,0.97,
0.554,0.19,-0.23,0.01,0.02,0.09,0.97,
0.556,0.19,-0.23,0.01,0.03,0.09,0.97,
0.559,0.19,-0.23,0.01,0.03,0.09,0.97,
0.559,0.22,-0.21,-0.04,0.03,0.09,0.97,
0.561,0.22,-0.21,-0.04,0.03,0.09,0.96,
0.564,0.22,-0.21,-0.04,0.03,0.09,0.96,
0.564,0.27,-0.21,-0.08,0.03,0.09,0.96,
0.566,0.27,-0.21,-0.08,0.04,0.09,0.96,
0.568,0.27,-0.21,-0.08,0.04,0.09,0.96,
0.569,0.30,-0.19,-0.13,0.04,0.09,0.96,
0.571,0.30,-0.19,-0.13,0.04,0.09,0.96,
0.573,0.30,-0.19,-0.13,0.05,0.09,0.95,
0.574,0.37,-0.19,-0.16,0.05,0.09,0.95,
0.577,0.37,-0.19,-0.16,0.05,0.09,0.95,
0.594,0.37,-0.19,-0.16,0.05,0.08,0.95,
0.594,0.43,-0.24,-0.19,0.05,0.08,0.95,
0.594,0.43,-0.24,-0.19,0.06,0.08,0.95,
0.595,0.43,-0.24,-0.19,0.06,0.08,0.95,
0.595,0.47,-0.27,-0.21,0.06,0.08,0.95,
0.595,0.47,-0.27,-0.21,0.06,0.08,0.95,
0.595,0.47,-0.27,-0.21,0.06,0.08,0.95,
0.595,0.52,-0.33,-0.23,0.06,0.08,0.95,
0.596,0.52,-0.33,-0.23,0.06,0.08,0.95,
0.596,0.52,-0.33,-0.23,0.06,0.07,0.95,
0.597,0.54,-0.36,-0.26,0.06,0.07,0.95,
0.598,0.54,-0.36,-0.26,0.06,0.07,0.95,
0.598,0.54,-0.36,-0.26,0.05,0.07,0.95,
0.598,0.50,-0.37,-0.25,0.05,0.07,0.95,
0.601,0.50,-0.37,-0.25,0.05,0.07,0.95,
0.603,0.50,-0.37,-0.25,0.05,0.07,0.95,
0.603,0.45,-0.39,-0.26,0.05,0.07,0.95,
0.605,0.45,-0.39,-0.26,0.05,0.06,0.95,
0.608,0.45,-0.39,-0.26,0.05,0.06,0.95,
0.608,0.42,-0.42,-0.25,0.05,0.06,0.95,
0.61,0.42,-0.42,-0.25,0.04,0.06,0.95,
0.613,0.42,-0.42,-0.25,0.04,0.06,0.95,
0.613,0.37,-0.48,-0.24,0.04,0.06,0.95,
0.615,0.37,-0.48,-0.24,0.03,0.06,0.96,
0.618,0.37,-0.48,-0.24,0.03,0.06,0.96,
0.618,0.30,-0.49,-0.22,0.03,0.06,0.96,
0.62,0.30,-0.49,-0.22,0.03,0.06,0.96,
0.622,0.30,-0.49,-0.22,0.03,0.06,0.96,
0.623,0.21,-0.50,-0.16,0.03,0.06,0.96,
0.625,0.21,-0.50,-0.16,0.02,0.06,0.97,
0.628,0.21,-0.50,-0.16,0.02,0.06,0.97,
0.629,0.15,-0.49,-0.10,0.02,0.06,0.97,
0.63,0.15,-0.49,-0.10,0.02,0.06,0.97,
0.632,0.15,-0.49,-0.10,0.01,0.06,0.97,
0.632,0.08,-0.49,-0.05,0.01,0.06,0.97,
0.635,0.08,-0.49,-0.05,0.01,0.05,0.98,
0.637,0.08,-0.49,-0.05,0.01,0.05,0.98,
0.637,0.01,-0.50,0.01,0.01,0.05,0.98,
0.64,0.01,-0.50,0.01,0.01,0.05,0.98,
0.642,0.01,-0.50,0.01,0.01,0.05,0.98,
0.642,-0.06,-0.54,0.06,0.01,0.05,0.98,
0.645,-0.06,-0.54,0.06,0.01,0.05,0.98,
0.647,-0.06,-0.54,0.06,0.00,0.05,0.98,
0.647,-0.06,-0.54,0.10,0.00,0.05,0.98,
0.65,-0.06,-0.54,0.10,0.00,0.05,0.98,
0.652,-0.06,-0.54,0.10,0.00,0.04,0.98,
0.652,-0.08,-0.56,0.11,0.00,0.04,0.98,
0.654,-0.08,-0.56,0.11,0.01,0.04,0.99,
0.657,-0.08,-0.56,0.11,0.01,0.04,0.98,
0.657,-0.09,-0.59,0.11,0.01,0.04,0.98,
0.659,-0.09,-0.59,0.11,0.02,0.04,0.98,
0.662,-0.09,-0.59,0.11,0.02,0.04,0.98,
0.662,-0.05,-0.63,0.12,0.02,0.04,0.98,
0.664,-0.05,-0.63,0.12,0.02,0.04,0.98,
0.667,-0.05,-0.63,0.12,0.03,0.04,0.97,
0.667,0.05,-0.65,0.08,0.03,0.04,0.97,
0.669,0.05,-0.65,0.08,0.03,0.04,0.97,
0.671,0.05,-0.65,0.08,0.04,0.04,0.96,
0.672,0.12,-0.67,0.01,0.04,0.04,0.96,
0.674,0.12,-0.67,0.01,0.04,0.04,0.96,
0.683,0.12,-0.67,0.01,0.04,0.04,0.95,
0.684,0.19,-0.67,-0.07,0.04,0.04,0.95,
0.684,0.19,-0.67,-0.07,0.05,0.04,0.95,
0.685,0.19,-0.67,-0.07,0.05,0.05,0.95,
0.685,0.25,-0.64,-0.15,0.05,0.05,0.95,
0.685,0.25,-0.64,-0.15,0.04,0.05,0.94,
0.687,0.25,-0.64,-0.15,0.04,0.05,0.94,
0.687,0.28,-0.60,-0.23,0.04,0.05,0.94,
0.689,0.28,-0.60,-0.23,0.05,0.06,0.94,
0.691,0.28,-0.60,-0.23,0.05,0.06,0.94,
0.691,0.25,-0.52,-0.29,0.05,0.06,0.94,
0.696,0.25,-0.52,-0.29,0.04,0.06,0.93,
0.696,0.25,-0.52,-0.29,0.04,0.06,0.93,
0.696,0.24,-0.48,-0.34,0.04,0.06,0.93,
0.698,0.24,-0.48,-0.34,0.04,0.07,0.93,
0.701,0.24,-0.48,-0.34,0.04,0.07,0.93,
0.701,0.20,-0.42,-0.40,0.04,0.07,0.93,
0.703,0.20,-0.42,-0.40,0.04,0.07,0.92,
0.706,0.20,-0.42,-0.40,0.04,0.07,0.93,
0.706,0.14,-0.38,-0.42,0.04,0.07,0.93,
0.708,0.14,-0.38,-0.42,0.03,0.07,0.93,
0.711,0.14,-0.38,-0.42,0.03,0.07,0.93,
0.711,0.11,-0.37,-0.44,0.03,0.07,0.93,
0.713,0.11,-0.37,-0.44,0.03,0.07,0.93,
0.716,0.11,-0.37,-0.44,0.03,0.06,0.93,
0.716,0.06,-0.38,-0.42,0.03,0.06,0.93,
0.718,0.06,-0.38,-0.42,0.03,0.06,0.93,
0.721,0.06,-0.38,-0.42,0.03,0.06,0.93,
0.721,0.04,-0.40,-0.43,0.03,0.06,0.93,
0.723,0.04,-0.40,-0.43,0.02,0.06,0.93,
0.725,0.04,-0.40,-0.43,0.02,0.06,0.93,
0.726,0.02,-0.43,-0.41,0.02,0.06,0.93,
0.728,0.02,-0.43,-0.41,0.02,0.05,0.93,
0.73,0.02,-0.43,-0.41,0.02,0.05,0.93,
0.73,-0.06,-0.47,-0.40,0.02,0.05,0.93,
0.733,-0.06,-0.47,-0.40,0.02,0.05,0.93,
0.735,-0.06,-0.47,-0.40,0.02,0.05,0.92,
0.735,-0.08,-0.50,-0.42,0.02,0.05,0.92,
0.738,-0.08,-0.50,-0.42,0.02,0.04,0.92,
0.74,-0.08,-0.50,-0.42,0.02,0.04,0.92,
0.74,-0.08,-0.55,-0.42,0.02,0.04,0.92,
0.742,-0.08,-0.55,-0.42,0.02,0.04,0.92,
0.745,-0.08,-0.55,-0.42,0.01,0.04,0.92,
0.746,-0.09,-0.62,-0.45,0.01,0.04,0.92,
0.748,-0.09,-0.62,-0.45,0.01,0.04,0.92,
0.75,-0.09,-0.62,-0.45,0.01,0.04,0.92,
0.75,-0.14,-0.63,-0.44,0.01,0.04,0.92,
0.752,-0.14,-0.63,-0.44,0.01,0.04,0.92,
0.755,-0.14,-0.63,-0.44,0.01,0.04,0.92,
0.755,-0.17,-0.60,-0.45,0.01,0.04,0.92,
0.758,-0.17,-0.60,-0.45,0.01,0.04,0.92,
0.761,-0.17,-0.60,-0.45,0.01,0.04,0.91,
0.761,-0.19,-0.60,-0.47,0.01,0.04,0.91,
0.762,-0.19,-0.60,-0.47,0.01,0.04,0.91,
0.765,-0.19,-0.60,-0.47,0.01,0.05,0.91,
0.765,-0.17,-0.58,-0.50,0.01,0.05,0.91,
0.767,-0.17,-0.58,-0.50,0.00,0.05,0.91,
0.769,-0.17,-0.58,-0.50,-0.00,0.05,0.91,
0.77,-0.20,-0.53,-0.52,-0.00,0.05,0.91,
0.772,-0.20,-0.53,-0.52,-0.01,0.05,0.91,
0.774,-0.20,-0.53,-0.52,-0.01,0.06,0.91,
0.775,-0.27,-0.47,-0.51,-0.01,0.06,0.91,
0.777,-0.27,-0.47,-0.51,-0.01,0.06,0.92,
0.779,-0.27,-0.47,-0.51,-0.01,0.06,0.92,
0.78,-0.34,-0.39,-0.50,-0.01,0.06,0.92,
0.782,-0.34,-0.39,-0.50,-0.01,0.06,0.92,
0.784,-0.34,-0.39,-0.50,-0.01,0.06,0.92,
0.784,-0.39,-0.33,-0.48,-0.01,0.06,0.92,
0.787,-0.39,-0.33,-0.48,-0.01,0.06,0.92,
0.789,-0.39,-0.33,-0.48,-0.01,0.05,0.92,
0.79,-0.39,-0.34,-0.45,-0.01,0.05,0.92,
0.792,-0.39,-0.34,-0.45,-0.01,0.05,0.92,
0.799,-0.39,-0.34,-0.45,-0.01,0.05,0.92,
0.8,-0.39,-0.38,-0.43,-0.01,0.05,0.92,
0.8,-0.39,-0.38,-0.43,-0.01,0.05,0.92,
0.801,-0.39,-0.38,-0.43,-0.01,0.04,0.92,
0.801,-0.38,-0.41,-0.41,-0.01,0.04,0.92,
0.801,-0.38,-0.41,-0.41,-0.01,0.04,0.93,
0.804,-0.38,-0.41,-0.41,-0.01,0.04,0.93,
0.804,-0.38,-0.44,-0.40,-0.01,0.04,0.93,
0.806,-0.38,-0.44,-0.40,-0.01,0.03,0.93,
0.809,-0.38,-0.44,-0.40,-0.01,0.03,0.93,
0.809,-0.33,-0.51,-0.35,-0.01,0.03,0.93,
0.817,-0.33,-0.51,-0.35,-0.01,0.03,0.93,
0.817,-0.33,-0.51,-0.35,-0.01,0.02,0.93,
0.817,-0.32,-0.58,-0.32,-0.01,0.02,0.93,
0.818,-0.32,-0.58,-0.32,-0.01,0.02,0.93,
0.818,-0.32,-0.58,-0.32,-0.01,0.02,0.94,
0.818,-0.32,-0.61,-0.30,-0.01,0.02,0.94,
0.821,-0.32,-0.61,-0.30,-0.01,0.01,0.93,
0.824,-0.32,-0.61,-0.30,-0.02,0.01,0.93,
0.824,-0.37,-0.65,-0.28,-0.02,0.01,0.93,
0.826,-0.37,-0.65,-0.28,-0.02,0.01,0.93,
0.828,-0.37,-0.65,-0.28,-0.03,0.01,0.94,
0.828,-0.42,-0.70,-0.27,-0.03,0.01,0.94,
0.831,-0.42,-0.70,-0.27,-0.03,0.01,0.94,
0.833,-0.42,-0.70,-0.27,-0.04,0.01,0.94,
0.834,-0.50,-0.70,-0.26,-0.04,0.01,0.94,
0.836,-0.50,-0.70,-0.26,-0.04,0.02,0.94,
0.838,-0.50,-0.70,-0.26,-0.05,0.02,0.94,
0.838,-0.59,-0.68,-0.22,-0.05,0.02,0.94,
0.841,-0.59,-0.68,-0.22,-0.05,0.02,0.94,
0.843,-0.59,-0.68,-0.22,-0.05,0.02,0.94,
0.843,-0.70,-0.63,-0.18,-0.05,0.02,0.94,
0.845,-0.70,-0.63,-0.18,-0.05,0.02,0.95,
0.848,-0.70,-0.63,-0.18,-0.05,0.02,0.95,
0.848,-0.74,-0.57,-0.18,-0.05,0.02,0.95,
0.85,-0.74,-0.57,-0.18,-0.05,0.02,0.95,
0.853,-0.74,-0.57,-0.18,-0.05,0.02,0.95,
0.853,-0.74,-0.55,-0.15,-0.05,0.02,0.95,
0.855,-0.74,-0.55,-0.15,-0.05,0.03,0.95,
0.858,-0.74,-0.55,-0.15,-0.05,0.03,0.96,
0.858,-0.73,-0.53,-0.11,-0.05,0.03,0.96,
0.86,-0.73,-0.53,-0.11,-0.05,0.03,0.96,
0.863,-0.73,-0.53,-0.11,-0.05,0.04,0.96,
0.863,-0.72,-0.47,-0.07,-0.05,0.04,0.96,
0.865,-0.72,-0.47,-0.07,-0.05,0.04,0.96,
0.867,-0.72,-0.47,-0.07,-0.05,0.04,0.96,
0.868,-0.72,-0.39,-0.01,-0.05,0.04,0.96,
0.87,-0.72,-0.39,-0.01,-0.04,0.04,0.97,
0.872,-0.72,-0.39,-0.01,-0.04,0.04,0.97,
0.873,-0.71,-0.33,0.00,-0.04,0.04,0.97,
0.875,-0.71,-0.33,0.00,-0.03,0.03,0.97,
0.878,-0.71,-0.33,0.00,-0.02,0.03,0.97,
0.878,-0.61,-0.32,0.04,-0.02,0.03,0.97,
0.88,-0.61,-0.32,0.04,-0.02,0.03,0.97,
0.882,-0.61,-0.32,0.04,-0.02,0.03,0.97,
0.882,-0.48,-0.36,0.08,-0.02,0.03,0.97,
0.885,-0.48,-0.36,0.08,-0.02,0.03,0.97,
0.887,-0.48,-0.36,0.08,-0.02,0.03,0.98,
0.887,-0.43,-0.38,0.09,-0.02,0.03,0.98,
0.889,-0.43,-0.38,0.09,-0.02,0.04,0.98,
0.892,-0.43,-0.38,0.09,-0.02,0.03,0.98,
0.892,-0.41,-0.34,0.12,-0.02,0.03,0.98,
0.9,-0.41,-0.34,0.12,-0.02,0.03,0.98,
0.901,-0.41,-0.34,0.12,-0.02,0.03,0.98,
0.901,-0.41,-0.30,0.13,-0.02,0.03,0.98,
0.901,-0.41,-0.30,0.13,-0.02,0.03,0.98,
0.902,-0.41,-0.30,0.13,-0.02,0.03,0.98,
0.902,-0.37,-0.31,0.14,-0.02,0.03,0.98,
0.904,-0.37,-0.31,0.14,-0.02,0.02,0.97,
0.906,-0.37,-0.31,0.14,-0.02,0.01,0.97,
0.907,-0.37,-0.35,0.12,-0.02,0.01,0.97,
0.917,-0.37,-0.35,0.12,-0.02,0.01,0.97,
0.917,-0.37,-0.35,0.12,-0.02,0.01,0.96,
0.917,-0.37,-0.44,0.10,-0.02,0.01,0.96,
0.917,-0.37,-0.44,0.10,-0.02,0.01,0.96,
0.917,-0.39,-0.52,0.02,-0.02,0.01,0.96,
0.917,-0.39,-0.52,0.02,-0.03,0.00,0.95,
0.919,-0.39,-0.52,0.02,-0.03,0.00,0.95,
0.921,-0.39,-0.52,0.02,-0.04,0.00,0.95,
0.922,-0.47,-0.55,-0.06,-0.04,0.00,0.95,
0.924,-0.47,-0.55,-0.06,-0.04,0.00,0.94,
0.926,-0.47,-0.55,-0.06,-0.05,0.00,0.94,
0.927,-0.54,-0.56,-0.16,-0.05,0.00,0.94,
0.929,-0.54,-0.56,-0.16,-0.05,0.00,0.94,
0.931,-0.54,-0.56,-0.16,-0.06,0.01,0.94,
0.931,-0.64,-0.56,-0.22,-0.06,0.01,0.94,
0.934,-0.64,-0.56,-0.22,-0.07,0.01,0.93,
0.936,-0.64,-0.56,-0.22,-0.07,0.01,0.93,
0.936,-0.76,-0.54,-0.25,-0.07,0.01,0.93,
0.938,-0.76,-0.54,-0.25,-0.07,0.01,0.93,
0.941,-0.76,-0.54,-0.25,-0.07,0.02,0.93,
0.941,-0.88,-0.49,-0.29,-0.07,0.02,0.93,
0.943,-0.88,-0.49,-0.29,-0.07,0.02,0.94,
0.946,-0.88,-0.49,-0.29,-0.07,0.02,0.94,
0.946,-0.92,-0.41,-0.28,-0.07,0.02,0.94,
0.948,-0.92,-0.41,-0.28,-0.07,0.02,0.94,
0.95,-0.92,-0.41,-0.28,-0.07,0.03,0.95,
0.951,-0.92,-0.34,-0.25,-0.07,0.03,0.95,
0.953,-0.92,-0.34,-0.25,-0.06,0.03,0.95,
0.955,-0.92,-0.34,-0.25,-0.06,0.03,0.96,
0.956,-0.88,-0.30,-0.18,-0.06,0.03,0.96,
0.958,-0.88,-0.30,-0.18,-0.06,0.03,0.96,
0.961,-0.88,-0.30,-0.18,-0.05,0.03,0.96,
0.961,-0.80,-0.26,-0.09,-0.05,0.03,0.96,
0.963,-0.80,-0.26,-0.09,-0.05,0.04,0.97,
0.965,-0.80,-0.26,-0.09,-0.05,0.04,0.97,
0.966,-0.75,-0.20,-0.02,-0.05,0.04,0.97,
0.968,-0.75,-0.20,-0.02,-0.04,0.04,0.97,
0.97,-0.75,-0.20,-0.02,-0.04,0.04,0.97,
0.97,-0.68,-0.15,0.05,-0.04,0.04,0.97,
0.973,-0.68,-0.15,0.05,-0.04,0.04,0.97,
0.975,-0.68,-0.15,0.05,-0.03,0.04,0.97,
0.975,-0.62,-0.12,0.10,-0.03,0.04,0.97,
0.983,-0.62,-0.12,0.10,-0.03,0.04,0.97,
0.983,-0.62,-0.12,0.10,-0.02,0.04,0.96,
0.983,-0.54,-0.10,0.10,-0.02,0.04,0.96,
0.984,-0.54,-0.10,0.10,-0.02,0.04,0.96,
0.985,-0.54,-0.10,0.10,-0.02,0.03,0.95,
0.985,-0.45,-0.13,0.03,-0.02,0.03,0.95,
0.987,-0.45,-0.13,0.03,-0.03,0.04,0.94,
0.99,-0.45,-0.13,0.03,-0.03,0.04,0.93,
0.99,-0.43,-0.13,-0.09,-0.03,0.04,0.93,
0.997,-0.43,-0.13,-0.09,-0.04,0.04,0.92,
0.997,-0.43,-0.13,-0.09,-0.05,0.05,0.91,
0.997,-0.49,-0.09,-0.25,-0.05,0.05,0.91,
0.997,-0.49,-0.09,-0.25,-0.05,0.05,0.90,
0.999,-0.49,-0.09,-0.25,-0.05,0.04,0.89,
1.0,-0.60,-0.02,-0.43,-0.05,0.04,0.89,
1.002,-0.60,-0.02,-0.43,-0.06,0.04,0.88,
1.004,-0.60,-0.02,-0.43,-0.07,0.04,0.87,
1.004,-0.69,-0.02,-0.61,-0.07,0.04,0.87,
1.007,-0.69,-0.02,-0.61,-0.07,0.04,0.87,
1.009,-0.69,-0.02,-0.61,-0.08,0.05,0.86,
1.01,-0.78,-0.03,-0.81,-0.08,0.05,0.86,
1.012,-0.78,-0.03,-0.81,-0.08,0.05,0.86,
1.015,-0.78,-0.03,-0.81,-0.09,0.05,0.85,
1.015,-0.90,-0.02,-0.95,-0.09,0.05,0.85,
1.017,-0.90,-0.02,-0.95,-0.09,0.05,0.85,
1.019,-0.90,-0.02,-0.95,-0.09,0.04,0.85,
1.02,-0.97,0.01,-1.04,-0.09,0.04,0.85,
1.022,-0.97,0.01,-1.04,-0.08,0.04,0.85,
1.024,-0.98,0.02,-1.10,-0.08,0.04,0.85,
1.024,-0.98,0.02,-1.10,-0.08,0.04,0.85,
1.026,-0.98,0.02,-1.10,-0.08,0.04,0.86,
1.029,-0.98,0.02,-1.10,-0.08,0.04,0.87,
1.029,-0.94,0.00,-1.05,-0.08,0.04,0.87,
1.032,-0.94,0.00,-1.05,-0.08,0.04,0.88,
1.034,-0.94,0.00,-1.05,-0.08,0.05,0.89,
1.034,-0.94,0.02,-0.93,-0.08,0.05,0.89,
1.036,-0.94,0.02,-0.93,-0.08,0.05,0.90,
1.039,-0.94,0.02,-0.93,-0.07,0.05,0.91,
1.039,-0.92,0.07,-0.74,-0.07,0.05,0.91,
1.041,-0.92,0.07,-0.74,-0.06,0.05,0.92,
1.044,-0.92,0.07,-0.74,-0.05,0.05,0.94,
1.044,-0.83,0.15,-0.50,-0.05,0.05,0.94,
1.046,-0.83,0.15,-0.50,-0.05,0.05,0.95,
1.049,-0.83,0.15,-0.50,-0.04,0.05,0.96,
1.049,-0.71,0.18,-0.26,-0.04,0.05,0.96,
1.051,-0.71,0.18,-0.26,-0.04,0.05,0.97,
1.053,-0.71,0.18,-0.26,-0.04,0.05,0.98,
1.054,-0.59,0.18,0.00,-0.04,0.05,0.98,
1.056,-0.59,0.18,0.00,-0.04,0.06,0.99,
1.058,-0.59,0.18,0.00,-0.05,0.06,1.00,
1.058,-0.57,0.24,0.22,-0.05,0.06,1.00,
1.061,-0.57,0.24,0.22,-0.05,0.06,1.00,
1.064,-0.59,0.32,0.39,-0.05,0.06,1.00,
1.065,-0.59,0.32,0.39,-0.05,0.07,1.01,
1.066,-0.59,0.32,0.39,-0.05,0.07,1.01,
1.068,-0.59,0.32,0.39,-0.05,0.07,1.01,
1.068,-0.62,0.41,0.48,-0.05,0.07,1.01,
1.071,-0.62,0.41,0.48,-0.05,0.07,1.02,
1.073,-0.62,0.41,0.48,-0.05,0.07,1.02,
1.073,-0.61,0.45,0.55,-0.05,0.07,1.02,
1.082,-0.61,0.45,0.55,-0.06,0.07,1.02,
1.083,-0.61,0.45,0.55,-0.07,0.08,1.02,
1.083,-0.64,0.49,0.58,-0.07,0.08,1.02,
1.083,-0.64,0.49,0.58,-0.08,0.08,1.02,
1.084,-0.64,0.49,0.58,-0.09,0.08,1.01,
1.087,-0.76,0.56,0.58,-0.09,0.08,1.01,
1.087,-0.76,0.56,0.58,-0.09,0.09,1.01,
1.088,-0.76,0.56,0.58,-0.10,0.09,1.01,
1.088,-0.92,0.66,0.55,-0.10,0.09,1.01,
1.09,-0.92,0.66,0.55,-0.10,0.09,1.01,
1.101,-0.92,0.66,0.55,-0.10,0.09,1.01,
1.101,-1.01,0.72,0.49,-0.10,0.09,1.01,
1.101,-1.01,0.72,0.49,-0.10,0.09,1.01,
1.101,-1.01,0.72,0.49,-0.10,0.09,1.01,
1.101,-1.03,0.75,0.46,-0.10,0.09,1.01,
1.101,-1.03,0.75,0.46,-0.10,0.10,1.01,
1.102,-1.03,0.75,0.46,-0.11,0.10,1.01,
1.102,-1.02,0.77,0.45,-0.11,0.10,1.01,
1.105,-1.02,0.77,0.45,-0.11,0.11,1.01,
1.107,-1.02,0.77,0.45,-0.11,0.12,1.02,
1.107,-1.06,0.89,0.49,-0.11,0.12,1.02,
1.11,-1.06,0.89,0.49,-0.10,0.12,1.03,
1.112,-1.06,0.89,0.49,-0.10,0.12,1.03,
1.112,-1.08,1.00,0.54,-0.10,0.12,1.03,
1.115,-1.08,1.00,0.54,-0.09,0.12,1.04,
1.117,-1.08,1.00,0.54,-0.09,0.12,1.05,
1.117,-1.02,1.09,0.67,-0.09,0.12,1.05,
1.119,-1.02,1.09,0.67,-0.08,0.12,1.06,
1.122,-1.02,1.09,0.67,-0.07,0.12,1.07,
1.122,-0.90,1.13,0.82,-0.07,0.12,1.07,
1.124,-0.90,1.13,0.82,-0.06,0.12,1.07,
1.127,-0.90,1.13,0.82,-0.06,0.12,1.08,
1.127,-0.73,1.13,0.97,-0.06,0.12,1.08,
1.129,-0.73,1.13,0.97,-0.05,0.12,1.09,
1.132,-0.73,1.13,0.97,-0.05,0.12,1.09,
1.132,-0.61,1.14,1.12,-0.05,0.12,1.09,
1.134,-0.61,1.14,1.12,-0.05,0.12,1.09,
1.137,-0.61,1.14,1.12,-0.05,0.12,1.09,
1.137,-0.55,1.16,1.20,-0.05,0.12,1.09,
1.139,-0.55,1.16,1.20,-0.05,0.12,1.09,
1.142,-0.55,1.16,1.20,-0.05,0.12,1.08,
1.144,-0.54,1.14,1.21,-0.05,0.12,1.08,
1.145,-0.54,1.14,1.21,-0.04,0.11,1.08,
1.147,-0.54,1.14,1.21,-0.04,0.10,1.08,
1.147,-0.48,1.09,1.16,-0.04,0.10,1.08,
1.15,-0.48,1.09,1.16,-0.04,0.10,1.07,
1.151,-0.48,1.09,1.16,-0.04,0.09,1.06,
1.152,-0.41,0.97,1.09,-0.04,0.09,1.06,
1.154,-0.41,0.97,1.09,-0.05,0.09,1.06,
1.156,-0.41,0.97,1.09,-0.06,0.09,1.05,
1.157,-0.42,0.86,0.96,-0.06,0.09,1.05,
1.159,-0.42,0.86,0.96,-0.07,0.10,1.04,
1.162,-0.42,0.86,0.96,-0.07,0.10,1.04,
1.162,-0.53,0.85,0.84,-0.07,0.10,1.04,
1.164,-0.53,0.85,0.84,-0.08,0.10,1.03,
1.166,-0.53,0.85,0.84,-0.08,0.10,1.03,
1.167,-0.68,0.90,0.70,-0.08,0.10,1.03,
1.169,-0.68,0.90,0.70,-0.08,0.10,1.02,
1.171,-0.68,0.90,0.70,-0.08,0.10,1.02,
1.171,-0.77,0.92,0.58,-0.08,0.10,1.02,
1.173,-0.77,0.92,0.58,-0.08,0.10,1.02,
1.176,-0.77,0.92,0.58,-0.07,0.11,1.02,
1.177,-0.75,0.91,0.49,-0.07,0.11,1.02,
1.178,-0.75,0.91,0.49,-0.07,0.11,1.01,
1.181,-0.75,0.91,0.49,-0.07,0.12,1.01,
1.181,-0.72,0.96,0.44,-0.07,0.12,1.01,
1.183,-0.72,0.96,0.44,-0.07,0.12,1.01,
1.186,-0.72,0.96,0.44,-0.07,0.12,1.01,
1.186,-0.72,1.04,0.41,-0.07,0.12,1.01,
1.188,-0.72,1.04,0.41,-0.07,0.13,1.01,
1.191,-0.72,1.04,0.41,-0.07,0.13,1.01,
1.191,-0.72,1.10,0.40,-0.07,0.13,1.01,
1.198,-0.72,1.10,0.40,-0.07,0.13,1.01,
1.199,-0.72,1.10,0.40,-0.07,0.14,1.01,
1.199,-0.70,1.20,0.37,-0.07,0.14,1.01,
1.199,-0.70,1.20,0.37,-0.07,0.14,1.01,
1.201,-0.70,1.20,0.37,-0.06,0.14,1.01,
1.201,-0.67,1.23,0.37,-0.06,0.14,1.01,
1.203,-0.67,1.23,0.37,-0.06,0.14,1.01,
1.205,-0.67,1.23,0.37,-0.07,0.14,1.01,
1.205,-0.61,1.23,0.38,-0.07,0.14,1.01,
1.208,-0.61,1.23,0.38,-0.07,0.14,1.01,
1.211,-0.61,1.23,0.38,-0.07,0.14,1.01,
1.212,-0.61,1.25,0.38,-0.07,0.14,1.01,
1.212,-0.61,1.25,0.38,-0.07,0.14,1.01,
1.215,-0.61,1.25,0.38,-0.07,0.14,1.00,
1.215,-0.63,1.27,0.34,-0.07,0.14,1.00,
1.218,-0.63,1.27,0.34,-0.06,0.13,1.00,
1.22,-0.63,1.27,0.34,-0.06,0.12,0.99,
1.22,-0.63,1.23,0.29,-0.06,0.12,0.99,
1.222,-0.63,1.23,0.29,-0.06,0.12,0.99,
1.226,-0.63,1.23,0.29,-0.06,0.12,0.99,
1.226,-0.56,1.12,0.20,-0.06,0.12,0.99,
1.227,-0.56,1.12,0.20,-0.06,0.11,0.98,
1.23,-0.56,1.12,0.20,-0.07,0.11,0.98,
1.23,-0.53,1.04,0.12,-0.07,0.11,0.98,
1.232,-0.53,1.04,0.12,-0.07,0.11,0.98,
1.235,-0.53,1.04,0.12,-0.07,0.11,0.97,
1.235,-0.56,0.99,0.05,-0.07,0.11,0.97,
1.237,-0.56,0.99,0.05,-0.07,0.11,0.97,
1.239,-0.56,0.99,0.05,-0.07,0.10,0.97,
1.24,-0.59,0.95,-0.01,-0.07,0.10,0.97,
1.242,-0.59,0.95,-0.01,-0.07,0.10,0.97,
1.245,-0.59,0.95,-0.01,-0.07,0.10,0.97,
1.245,-0.61,0.91,-0.03,-0.07,0.10,0.97,
1.247,-0.61,0.91,-0.03,-0.07,0.10,0.97,
1.249,-0.61,0.91,-0.03,-0.06,0.10,0.97,
1.25,-0.58,0.87,-0.04,-0.06,0.10,0.97,
1.252,-0.58,0.87,-0.04,-0.06,0.10,0.98,
1.254,-0.58,0.87,-0.04,-0.05,0.10,0.98,
1.254,-0.51,0.86,-0.03,-0.05,0.10,0.98,
1.257,-0.51,0.86,-0.03,-0.06,0.10,0.98,
1.259,-0.51,0.86,-0.03,-0.05,0.10,0.99,
1.26,-0.40,0.88,0.03,-0.05,0.10,0.99,
1.262,-0.40,0.88,0.03,-0.05,0.11,0.99,
1.264,-0.40,0.88,0.03,-0.04,0.11,1.00,
1.264,-0.37,0.93,0.09,-0.04,0.11,1.00,
1.267,-0.37,0.93,0.09,-0.04,0.11,1.01,
1.269,-0.37,0.93,0.09,-0.04,0.11,1.02,
1.269,-0.30,1.01,0.20,-0.04,0.11,1.02,
1.271,-0.30,1.01,0.20,-0.03,0.12,1.03,
1.274,-0.30,1.01,0.20,-0.03,0.12,1.04,
1.274,-0.21,1.04,0.36,-0.03,0.12,1.04,
1.282,-0.21,1.04,0.36,-0.03,0.12,1.04,
1.282,-0.21,1.04,0.36,-0.03,0.12,1.05,
1.282,-0.13,1.09,0.54,-0.03,0.12,1.05,
1.283,-0.13,1.09,0.54,-0.02,0.12,1.06,
1.283,-0.13,1.09,0.54,-0.02,0.11,1.07,
1.284,-0.10,1.12,0.70,-0.02,0.11,1.07,
1.286,-0.10,1.12,0.70,-0.02,0.11,1.07,
1.288,-0.10,1.12,0.70,-0.02,0.12,1.08,
1.289,-0.06,1.09,0.85,-0.02,0.12,1.08,
1.291,-0.06,1.09,0.85,-0.02,0.12,1.08,
1.294,-0.06,1.09,0.85,-0.02,0.11,1.08,
1.295,-0.08,1.10,0.96,-0.02,0.11,1.08,
1.296,-0.08,1.10,0.96,-0.01,0.11,1.09,
1.298,-0.08,1.10,0.96,-0.00,0.10,1.09,
1.298,-0.06,1.10,1.00,-0.00,0.10,1.09,
1.301,-0.06,1.10,1.00,-0.00,0.10,1.09,
1.303,-0.06,1.10,1.00,-0.00,0.10,1.09,
1.303,0.06,1.01,1.05,-0.00,0.10,1.09,
1.306,0.06,1.01,1.05,-0.01,0.09,1.08,
1.309,0.06,1.01,1.05,-0.01,0.09,1.08,
1.309,0.10,0.92,1.03,-0.01,0.09,1.08,
1.31,0.10,0.92,1.03,-0.01,0.09,1.08,
1.313,0.10,0.92,1.03,-0.02,0.09,1.07,
1.314,0.04,0.88,0.98,-0.02,0.09,1.07,
1.315,0.04,0.88,0.98,-0.02,0.09,1.07,
1.318,0.04,0.88,0.98,-0.02,0.08,1.06,
1.318,-0.02,0.86,0.92,-0.02,0.08,1.06,
1.32,-0.02,0.86,0.92,-0.03,0.08,1.05,
1.323,-0.02,0.86,0.92,-0.03,0.08,1.05,
1.323,-0.09,0.80,0.79,-0.03,0.08,1.05,
1.325,-0.09,0.80,0.79,-0.03,0.07,1.04,
1.328,-0.09,0.80,0.79,-0.04,0.07,1.03,
1.328,-0.13,0.71,0.65,-0.04,0.07,1.03,
1.33,-0.13,0.71,0.65,-0.04,0.07,1.02,
1.332,-0.13,0.71,0.65,-0.04,0.07,1.02,
1.333,-0.18,0.61,0.50,-0.04,0.07,1.02,
1.335,-0.18,0.61,0.50,-0.05,0.07,1.01,
1.338,-0.18,0.61,0.50,-0.05,0.07,1.01,
1.338,-0.25,0.59,0.36,-0.05,0.07,1.01,
1.34,-0.25,0.59,0.36,-0.06,0.07,1.00,
1.343,-0.25,0.59,0.36,-0.06,0.07,1.00,
1.344,-0.34,0.59,0.25,-0.06,0.07,1.00,
1.345,-0.34,0.59,0.25,-0.07,0.07,1.00,
1.347,-0.34,0.59,0.25,-0.06,0.07,1.00,
1.347,-0.42,0.64,0.18,-0.06,0.07,1.00,
1.35,-0.42,0.64,0.18,-0.06,0.07,1.00,
1.352,-0.42,0.64,0.18,-0.06,0.07,1.00,
1.352,-0.45,0.64,0.15,-0.06,0.07,1.00,
1.355,-0.45,0.64,0.15,-0.06,0.07,1.00,
1.357,-0.45,0.64,0.15,-0.05,0.07,1.00,
1.357,-0.41,0.65,0.11,-0.05,0.07,1.00,
1.36,-0.41,0.65,0.11,-0.05,0.07,1.00,
1.362,-0.41,0.65,0.11,-0.04,0.07,1.00,
1.362,-0.33,0.64,0.12,-0.04,0.07,1.00,
1.364,-0.33,0.64,0.12,-0.04,0.07,1.00,
1.367,-0.33,0.64,0.12,-0.04,0.07,1.00,
1.367,-0.23,0.62,0.15,-0.04,0.07,1.00,
1.369,-0.23,0.62,0.15,-0.04,0.07,1.01,
1.372,-0.23,0.62,0.15,-0.04,0.07,1.01,
1.372,-0.18,0.63,0.17,-0.04,0.07,1.01,
1.381,-0.18,0.63,0.17,-0.03,0.07,1.01,
1.382,-0.18,0.63,0.17,-0.03,0.07,1.01,
1.382,-0.14,0.63,0.20,-0.03,0.07,1.01,
1.382,-0.14,0.63,0.20,-0.03,0.07,1.01,
1.383,-0.14,0.63,0.20,-0.03,0.06,1.01,
1.383,-0.10,0.62,0.22,-0.03,0.06,1.01,
1.384,-0.10,0.62,0.22,-0.03,0.06,1.01,
1.386,-0.10,0.62,0.22,-0.03,0.06,1.01,
1.387,-0.07,0.59,0.23,-0.03,0.06,1.01,
1.389,-0.07,0.59,0.23,-0.03,0.06,1.01,
1.396,-0.07,0.59,0.23,-0.03,0.06,1.01,
1.396,-0.05,0.57,0.25,-0.03,0.06,1.01,
1.396,-0.05,0.57,0.25,-0.04,0.06,1.01,
1.397,-0.05,0.57,0.25,-0.04,0.07,1.02,
1.397,-0.08,0.58,0.28,-0.04,0.07,1.02,
1.399,-0.08,0.58,0.28,-0.04,0.07,1.02,
1.401,-0.08,0.58,0.28,-0.04,0.07,1.02,
1.401,-0.10,0.61,0.29,-0.04,0.07,1.02,
1.403,-0.10,0.61,0.29,-0.04,0.07,1.02,
1.406,-0.10,0.61,0.29,-0.04,0.07,1.02,
1.406,-0.13,0.62,0.32,-0.04,0.07,1.02,
1.408,-0.13,0.62,0.32,-0.04,0.07,1.02,
1.411,-0.13,0.62,0.32,-0.03,0.07,1.02,
1.411,-0.13,0.64,0.34,-0.03,0.07,1.02,
1.413,-0.13,0.64,0.34,-0.03,0.07,1.02,
1.416,-0.13,0.64,0.34,-0.02,0.08,1.02,
1.416,-0.09,0.66,0.34,-0.02,0.08,1.02,
1.418,-0.09,0.66,0.34,-0.02,0.08,1.02,
1.421,-0.09,0.66,0.34,-0.01,0.08,1.02,
1.421,-0.00,0.70,0.33,-0.01,0.08,1.02,
1.423,-0.00,0.70,0.33,-0.01,0.09,1.02,
1.426,-0.00,0.70,0.33,-0.00,0.09,1.02,
1.426,0.11,0.75,0.33,-0.00,0.09,1.02,
1.428,0.11,0.75,0.33,0.00,0.09,1.02,
1.431,0.22,0.82,0.29,0.00,0.09,1.02,
1.431,0.22,0.82,0.29,0.01,0.09,1.01,
1.433,0.22,0.82,0.29,0.02,0.09,1.02,
1.435,0.22,0.82,0.29,0.02,0.09,1.01,
1.435,0.34,0.87,0.27,0.02,0.09,1.01,
1.438,0.34,0.87,0.27,0.03,0.09,1.01,
1.44,0.34,0.87,0.27,0.04,0.08,1.01,
1.44,0.46,0.84,0.26,0.04,0.08,1.01,
1.443,0.46,0.84,0.26,0.05,0.07,1.01,
1.445,0.46,0.84,0.26,0.06,0.07,1.01,
1.445,0.61,0.76,0.22,0.06,0.07,1.01,
1.448,0.61,0.76,0.22,0.06,0.06,1.00,
1.45,0.61,0.76,0.22,0.06,0.06,1.00,
1.45,0.76,0.61,0.18,0.06,0.06,1.00,
1.453,0.76,0.61,0.18,0.06,0.06,1.00,
1.455,0.84,0.51,0.12,0.06,0.06,1.00,
1.455,0.84,0.51,0.12,0.06,0.06,1.00,
1.459,0.84,0.51,0.12,0.06,0.06,1.00,
1.46,0.84,0.51,0.12,0.06,0.06,1.00,
1.461,0.84,0.47,0.07,0.06,0.06,1.00,
1.463,0.84,0.47,0.07,0.06,0.06,1.00,
1.465,0.84,0.47,0.07,0.06,0.06,1.00,
1.465,0.79,0.47,0.08,0.06,0.06,1.00,
1.467,0.79,0.47,0.08,0.06,0.06,1.01,
1.47,0.79,0.47,0.08,0.06,0.05,1.01,
1.47,0.77,0.49,0.13,0.06,0.05,1.01,
1.472,0.77,0.49,0.13,0.07,0.05,1.02,
1.475,0.77,0.49,0.13,0.06,0.05,1.03,
1.476,0.78,0.44,0.19,0.06,0.05,1.03,
1.477,0.78,0.44,0.19,0.06,0.06,1.03,
1.48,0.78,0.44,0.19,0.05,0.06,1.04,
1.48,0.79,0.42,0.31,0.05,0.06,1.04,
1.482,0.79,0.42,0.31,0.05,0.06,1.04,
1.484,0.79,0.42,0.31,0.05,0.06,1.04,
1.485,0.67,0.47,0.43,0.05,0.06,1.04,
1.487,0.67,0.47,0.43,0.06,0.06,1.04,
1.489,0.67,0.47,0.43,0.06,0.06,1.04,
1.49,0.62,0.51,0.47,0.06,0.06,1.04,
1.498,0.62,0.51,0.47,0.06,0.05,1.04,
1.499,0.62,0.51,0.47,0.06,0.05,1.04,
1.499,0.66,0.45,0.51,0.06,0.05,1.04,
1.499,0.66,0.45,0.51,0.06,0.06,1.04,
1.5,0.66,0.45,0.51,0.06,0.06,1.03,
1.5,0.66,0.40,0.51,0.06,0.06,1.03,
1.502,0.66,0.40,0.51,0.06,0.06,1.03,
1.504,0.66,0.40,0.51,0.05,0.06,1.03,
1.504,0.61,0.41,0.44,0.05,0.06,1.03,
1.506,0.61,0.41,0.44,0.05,0.06,1.03,
1.515,0.61,0.41,0.44,0.05,0.06,1.02,
1.516,0.58,0.46,0.38,0.05,0.06,1.02,
1.516,0.58,0.46,0.38,0.05,0.06,1.02,
1.516,0.58,0.46,0.38,0.05,0.06,1.01,
1.516,0.54,0.44,0.30,0.05,0.06,1.01,
1.516,0.54,0.44,0.30,0.05,0.06,1.01,
1.518,0.54,0.44,0.30,0.05,0.06,1.01,
1.519,0.52,0.39,0.23,0.05,0.06,1.01,
1.521,0.52,0.39,0.23,0.05,0.05,1.00,
1.523,0.52,0.39,0.23,0.05,0.05,1.00,
1.523,0.48,0.35,0.15,0.05,0.05,1.00,
1.526,0.48,0.35,0.15,0.05,0.05,1.00,
1.529,0.48,0.35,0.15,0.06,0.04,0.99,
1.529,0.50,0.30,0.06,0.06,0.04,0.99,
1.531,0.50,0.30,0.06,0.06,0.04,0.99,
1.533,0.50,0.30,0.06,0.06,0.04,0.99,
1.534,0.54,0.22,0.02,0.06,0.04,0.99,
1.536,0.54,0.22,0.02,0.06,0.04,0.99,
1.538,0.54,0.22,0.02,0.06,0.04,0.99,
1.538,0.58,0.15,-0.01,0.06,0.04,0.99,
1.541,0.58,0.15,-0.01,0.06,0.04,0.99,
1.544,0.58,0.15,-0.01,0.06,0.04,0.99,
1.544,0.62,0.11,-0.02,0.06,0.04,0.99,
1.546,0.62,0.11,-0.02,0.06,0.04,1.00,
1.548,0.62,0.11,-0.02,0.06,0.04,1.00,
1.548,0.59,0.14,0.01,0.06,0.04,1.00,
1.55,0.59,0.14,0.01,0.05,0.05,1.00,
1.553,0.59,0.14,0.01,0.05,0.05,1.00,
1.554,0.54,0.17,0.05,0.05,0.05,1.00,
1.555,0.54,0.17,0.05,0.04,0.05,1.00,
1.558,0.54,0.17,0.05,0.04,0.06,1.00,
1.559,0.44,0.21,0.07,0.04,0.06,1.00,
1.561,0.44,0.21,0.07,0.04,0.06,1.00,
1.563,0.44,0.21,0.07,0.04,0.06,1.00,
1.563,0.34,0.28,0.06,0.04,0.06,1.00,
1.565,0.34,0.28,0.06,0.05,0.06,0.99,
1.568,0.34,0.28,0.06,0.04,0.07,0.99,
1.568,0.36,0.33,0.04,0.04,0.07,0.99,
1.57,0.36,0.33,0.04,0.04,0.07,0.98,
1.573,0.36,0.33,0.04,0.04,0.07,0.98,
1.575,0.37,0.37,-0.03,0.04,0.07,0.98,
1.575,0.37,0.37,-0.03,0.04,0.08,0.97,
1.578,0.37,0.37,-0.03,0.04,0.08,0.97,
1.578,0.33,0.42,-0.13,0.04,0.08,0.97,
1.58,0.33,0.42,-0.13,0.05,0.08,0.96,
1.582,0.33,0.42,-0.13,0.05,0.08,0.96,
1.583,0.32,0.44,-0.21,0.05,0.08,0.96,
1.585,0.32,0.44,-0.21,0.05,0.08,0.95,
1.587,0.32,0.44,-0.21,0.05,0.08,0.95,
1.587,0.36,0.45,-0.30,0.05,0.08,0.95,
1.59,0.36,0.45,-0.30,0.05,0.08,0.94,
1.597,0.36,0.45,-0.30,0.06,0.08,0.94,
1.597,0.38,0.45,-0.42,0.06,0.08,0.94,
1.598,0.38,0.45,-0.42,0.06,0.08,0.94,
1.598,0.38,0.45,-0.42,0.07,0.07,0.94,
1.598,0.43,0.43,-0.48,0.07,0.07,0.94,
1.599,0.43,0.43,-0.48,0.07,0.07,0.94,
1.602,0.43,0.43,-0.48,0.08,0.06,0.94,
1.602,0.51,0.37,-0.49,0.08,0.06,0.94,
1.604,0.51,0.37,-0.49,0.08,0.06,0.95,
1.607,0.51,0.37,-0.49,0.09,0.06,0.95,
1.607,0.59,0.27,-0.50,0.09,0.06,0.95,
1.612,0.59,0.27,-0.50,0.09,0.06,0.96,
1.613,0.59,0.27,-0.50,0.09,0.05,0.97,
1.613,0.68,0.21,-0.40,0.09,0.05,0.97,
1.614,0.68,0.21,-0.40,0.10,0.05,0.97,
1.616,0.68,0.21,-0.40,0.10,0.05,0.98,
1.617,0.72,0.17,-0.26,0.10,0.05,0.98,
1.619,0.72,0.17,-0.26,0.10,0.04,1.00,
1.621,0.72,0.17,-0.26,0.10,0.04,1.01,
1.621,0.76,0.09,-0.10,0.10,0.04,1.01,
1.624,0.76,0.09,-0.10,0.10,0.03,1.02,
1.627,0.76,0.09,-0.10,0.10,0.03,1.03,
1.627,0.78,0.03,0.12,0.10,0.03,1.03,
1.629,0.78,0.03,0.12,0.11,0.03,1.04,
1.632,0.78,0.03,0.12,0.11,0.03,1.05,
1.632,0.80,-0.04,0.34,0.11,0.03,1.05,
1.634,0.80,-0.04,0.34,0.10,0.03,1.06,
1.636,0.80,-0.04,0.34,0.10,0.03,1.07,
1.636,0.78,-0.06,0.54,0.10,0.03,1.07,
1.638,0.78,-0.06,0.54,0.10,0.04,1.07,
1.641,0.73,-0.03,0.71,0.10,0.04,1.07,
1.641,0.73,-0.03,0.71,0.10,0.04,1.08,
1.643,0.73,-0.03,0.71,0.09,0.05,1.09,
1.646,0.73,-0.03,0.71,0.09,0.05,1.10,
1.646,0.67,0.04,0.85,0.09,0.05,1.10,
1.648,0.67,0.04,0.85,0.08,0.06,1.10,
1.651,0.67,0.04,0.85,0.08,0.07,1.11,
1.651,0.56,0.14,1.00,0.08,0.07,1.11,
1.653,0.56,0.14,1.00,0.09,0.07,1.11,
1.656,0.56,0.14,1.00,0.09,0.07,1.11,
1.656,0.51,0.25,1.10,0.09,0.07,1.11,
1.658,0.51,0.25,1.10,0.09,0.08,1.11,
1.661,0.51,0.25,1.10,0.10,0.08,1.11,
1.661,0.53,0.32,1.12,0.10,0.08,1.11,
1.663,0.53,0.32,1.12,0.10,0.08,1.10,
1.666,0.53,0.32,1.12,0.11,0.08,1.09,
1.666,0.60,0.37,1.09,0.11,0.08,1.09,
1.668,0.60,0.37,1.09,0.11,0.08,1.09,
1.67,0.60,0.37,1.09,0.12,0.08,1.08,
1.671,0.70,0.36,1.00,0.12,0.08,1.08,
1.673,0.70,0.36,1.00,0.12,0.08,1.08,
1.675,0.70,0.36,1.00,0.12,0.08,1.07,
1.676,0.78,0.36,0.87,0.12,0.08,1.07,
1.678,0.78,0.36,0.87,0.13,0.09,1.06,
1.68,0.78,0.36,0.87,0.13,0.08,1.04,
1.681,0.84,0.38,0.73,0.13,0.08,1.04,
1.683,0.84,0.38,0.73,0.13,0.08,1.03,
1.685,0.84,0.38,0.73,0.13,0.08,1.02,
1.685,0.88,0.39,0.51,0.13,0.08,1.02,
1.688,0.88,0.39,0.51,0.14,0.08,1.01,
1.69,0.88,0.39,0.51,0.14,0.08,1.00,
1.691,0.94,0.34,0.30,0.14,0.08,1.00,
1.698,0.94,0.34,0.30,0.15,0.07,0.99,
1.699,1.02,0.27,0.10,0.15,0.07,0.99,
1.699,1.02,0.27,0.10,0.15,0.07,0.98,
1.7,1.02,0.27,0.10,0.16,0.07,0.98,
1.7,1.02,0.27,0.10,0.16,0.07,0.97,
1.7,1.11,0.22,-0.08,0.16,0.07,0.97,
1.702,1.11,0.22,-0.08,0.17,0.07,0.96,
1.705,1.11,0.22,-0.08,0.18,0.07,0.96,
1.705,1.19,0.20,-0.24,0.18,0.07,0.96,
1.713,1.19,0.20,-0.24,0.18,0.07,0.96,
1.713,1.19,0.20,-0.24,0.19,0.07,0.96,
1.713,1.29,0.18,-0.35,0.19,0.07,0.96,
1.714,1.29,0.18,-0.35,0.19,0.07,0.95,
1.715,1.29,0.18,-0.35,0.19,0.08,0.95,
1.715,1.42,0.16,-0.40,0.19,0.08,0.95,
1.717,1.42,0.16,-0.40,0.19,0.08,0.96,
1.719,1.42,0.16,-0.40,0.19,0.08,0.96,
1.719,1.47,0.16,-0.41,0.19,0.08,0.96,
1.722,1.47,0.16,-0.41,0.19,0.09,0.96,
1.724,1.47,0.16,-0.41,0.19,0.09,0.96,
1.725,1.45,0.21,-0.38,0.19,0.09,0.96,
1.727,1.45,0.21,-0.38,0.19,0.09,0.97,
1.729,1.45,0.21,-0.38,0.19,0.09,0.98,
1.729,1.43,0.28,-0.32,0.19,0.09,0.98,
1.732,1.43,0.28,-0.32,0.19,0.09,0.98,
1.734,1.43,0.28,-0.32,0.19,0.09,0.99,
1.734,1.43,0.33,-0.22,0.19,0.09,0.99,
1.737,1.43,0.33,-0.22,0.19,0.09,1.00,
1.739,1.43,0.33,-0.22,0.18,0.09,1.00,
1.739,1.41,0.30,-0.07,0.18,0.09,1.00,
1.741,1.41,0.30,-0.07,0.17,0.09,1.01,
1.744,1.41,0.30,-0.07,0.17,0.08,1.01,
1.745,1.35,0.25,0.04,0.17,0.08,1.01,
1.747,1.35,0.25,0.04,0.16,0.08,1.01,
1.749,1.35,0.25,0.04,0.15,0.08,1.02,
1.749,1.21,0.23,0.14,0.15,0.08,1.02,
1.751,1.21,0.23,0.14,0.15,0.08,1.02,
1.754,1.21,0.23,0.14,0.14,0.08,1.02,
1.754,1.06,0.19,0.21,0.14,0.08,1.02,
1.756,1.06,0.19,0.21,0.14,0.07,1.03,
1.759,1.06,0.19,0.21,0.13,0.07,1.03,
1.759,0.97,0.15,0.26,0.13,0.07,1.03,
1.761,0.97,0.15,0.26,0.13,0.07,1.03,
1.764,0.97,0.15,0.26,0.13,0.07,1.03,
1.764,0.90,0.12,0.31,0.13,0.07,1.03,
1.766,0.90,0.12,0.31,0.12,0.07,1.03,
1.769,0.90,0.12,0.31,0.13,0.07,1.03,
1.769,0.84,0.08,0.35,0.13,0.07,1.03,
1.771,0.84,0.08,0.35,0.13,0.07,1.03,
1.774,0.84,0.08,0.35,0.13,0.07,1.03,
1.774,0.81,0.05,0.35,0.13,0.07,1.03,
1.776,0.81,0.05,0.35,0.13,0.07,1.03,
1.778,0.81,0.05,0.35,0.14,0.07,1.03,
1.779,0.85,0.04,0.34,0.14,0.07,1.03,
1.781,0.85,0.04,0.34,0.14,0.07,1.03,
1.783,0.85,0.04,0.34,0.15,0.07,1.03,
1.784,0.92,0.03,0.32,0.15,0.07,1.03,
1.786,0.92,0.03,0.32,0.15,0.07,1.03,
1.788,0.92,0.03,0.32,0.16,0.07,1.03,
1.788,1.01,0.03,0.31,0.16,0.07,1.03,
1.796,1.01,0.03,0.31,0.16,0.07,1.02,
1.797,1.01,0.03,0.31,0.16,0.07,1.02,
1.797,1.14,0.05,0.29,0.16,0.07,1.02,
1.797,1.14,0.05,0.29,0.17,0.08,1.02,
1.798,1.14,0.05,0.29,0.17,0.08,1.02,
1.798,1.22,0.07,0.26,0.17,0.08,1.02,
1.801,1.22,0.07,0.26,0.16,0.08,1.02,
1.803,1.22,0.07,0.26,0.16,0.08,1.01,
1.803,1.25,0.10,0.23,0.16,0.08,1.01,
1.805,1.25,0.10,0.23,0.16,0.09,1.01,
1.809,1.25,0.10,0.23,0.16,0.09,1.01,
1.81,1.23,0.13,0.19,0.16,0.09,1.01,
1.81,1.23,0.13,0.19,0.16,0.09,1.01,
1.813,1.23,0.13,0.19,0.16,0.10,1.00,
1.813,1.22,0.19,0.15,0.16,0.10,1.00,
1.815,1.22,0.19,0.15,0.16,0.10,1.00,
1.817,1.22,0.19,0.15,0.16,0.10,0.99,
1.818,1.18,0.23,0.08,0.16,0.10,0.99,
1.82,1.18,0.23,0.08,0.16,0.10,0.99,
1.822,1.18,0.23,0.08,0.16,0.10,0.98,
1.822,1.19,0.27,0.00,0.16,0.10,0.98,
1.825,1.19,0.27,0.00,0.16,0.10,0.98,
1.827,1.19,0.27,0.00,0.16,0.11,0.97,
1.827,1.19,0.28,-0.09,0.16,0.11,0.97,
1.83,1.19,0.28,-0.09,0.17,0.11,0.97,
1.832,1.19,0.28,-0.09,0.17,0.11,0.96,
1.832,1.19,0.29,-0.20,0.17,0.11,0.96,
1.835,1.19,0.29,-0.20,0.17,0.11,0.96,
1.837,1.19,0.29,-0.20,0.17,0.11,0.95,
1.837,1.21,0.30,-0.28,0.17,0.11,0.95,
1.839,1.21,0.30,-0.28,0.18,0.11,0.95,
1.842,1.21,0.30,-0.28,0.18,0.11,0.95,
1.843,1.24,0.32,-0.37,0.18,0.11,0.95,
1.845,1.24,0.32,-0.37,0.18,0.11,0.94,
1.847,1.24,0.32,-0.37,0.19,0.11,0.94,
1.847,1.31,0.32,-0.45,0.19,0.11,0.94,
1.849,1.31,0.32,-0.45,0.19,0.12,0.94,
1.852,1.31,0.32,-0.45,0.19,0.12,0.94,
1.852,1.33,0.30,-0.50,0.19,0.12,0.94,
1.854,1.33,0.30,-0.50,0.19,0.12,0.94,
1.857,1.33,0.30,-0.50,0.19,0.12,0.94,
1.858,1.36,0.31,-0.51,0.19,0.12,0.94,
1.859,1.36,0.31,-0.51,0.19,0.11,0.94,
1.861,1.36,0.31,-0.51,0.20,0.11,0.95,
1.862,1.38,0.29,-0.51,0.20,0.11,0.95,
1.864,1.38,0.29,-0.51,0.19,0.10,0.95,
1.866,1.38,0.29,-0.51,0.19,0.10,0.95,
1.867,1.40,0.21,-0.43,0.19,0.10,0.95,
1.869,1.40,0.21,-0.43,0.19,0.10,0.96,
1.871,1.40,0.21,-0.43,0.18,0.09,0.97,
1.871,1.38,0.12,-0.38,0.18,0.09,0.97,
1.874,1.38,0.12,-0.38,0.18,0.09,0.97,
1.876,1.38,0.12,-0.38,0.17,0.09,0.98,
1.877,1.31,0.04,-0.27,0.17,0.09,0.98,
1.879,1.31,0.04,-0.27,0.17,0.09,0.99,
1.881,1.31,0.04,-0.27,0.16,0.09,0.99,
1.881,1.19,-0.01,-0.14,0.16,0.09,0.99,
1.883,1.19,-0.01,-0.14,0.15,0.08,1.01,
1.886,1.19,-0.01,-0.14,0.15,0.08,1.02,
1.886,1.05,-0.04,-0.00,0.15,0.08,1.02,
1.888,1.05,-0.04,-0.00,0.14,0.08,1.03,
1.891,1.05,-0.04,-0.00,0.13,0.07,1.03,
1.892,0.91,-0.09,0.20,0.13,0.07,1.03,
1.893,0.91,-0.09,0.20,0.12,0.07,1.04,
1.896,0.91,-0.09,0.20,0.12,0.07,1.05,
1.896,0.76,-0.14,0.38,0.12,0.07,1.05,
1.898,0.76,-0.14,0.38,0.11,0.07,1.05,
1.901,0.76,-0.14,0.38,0.10,0.06,1.06,
1.901,0.60,-0.21,0.52,0.10,0.06,1.06,
1.903,0.60,-0.21,0.52,0.10,0.06,1.06,
1.905,0.60,-0.21,0.52,0.10,0.06,1.06,
1.906,0.47,-0.24,0.63,0.10,0.06,1.06,
1.909,0.47,-0.24,0.63,0.09,0.06,1.07,
1.91,0.47,-0.24,0.63,0.09,0.06,1.07,
1.91,0.39,-0.28,0.69,0.09,0.06,1.07,
1.913,0.39,-0.28,0.69,0.10,0.06,1.06,
1.915,0.39,-0.28,0.69,0.09,0.06,1.06,
1.915,0.34,-0.32,0.71,0.09,0.06,1.06,
1.918,0.34,-0.32,0.71,0.10,0.06,1.06,
1.92,0.34,-0.32,0.71,0.10,0.06,1.06,
1.92,0.35,-0.34,0.68,0.10,0.06,1.06,
1.923,0.35,-0.34,0.68,0.10,0.06,1.05,
1.925,0.35,-0.34,0.68,0.11,0.06,1.05,
1.925,0.40,-0.33,0.64,0.11,0.06,1.05,
1.928,0.40,-0.33,0.64,0.11,0.06,1.04,
1.93,0.40,-0.33,0.64,0.11,0.06,1.04,
1.93,0.46,-0.34,0.56,0.11,0.06,1.04,
1.933,0.46,-0.34,0.56,0.12,0.07,1.03,
1.935,0.46,-0.34,0.56,0.12,0.07,1.02,
1.935,0.53,-0.33,0.45,0.12,0.07,1.02,
1.937,0.53,-0.33,0.45,0.12,0.07,1.02,
1.941,0.53,-0.33,0.45,0.13,0.07,1.01,
1.941,0.60,-0.30,0.32,0.13,0.07,1.01,
1.942,0.60,-0.30,0.32,0.13,0.07,1.01,
1.945,0.60,-0.30,0.32,0.13,0.07,1.00,
1.945,0.64,-0.29,0.22,0.13,0.07,1.00,
1.947,0.64,-0.29,0.22,0.13,0.07,0.99,
1.949,0.64,-0.29,0.22,0.13,0.07,0.99,
1.95,0.68,-0.29,0.09,0.13,0.07,0.99,
1.952,0.68,-0.29,0.09,0.13,0.07,0.98,
1.955,0.68,-0.29,0.09,0.14,0.07,0.97,
1.955,0.65,-0.31,-0.04,0.14,0.07,0.97,
1.957,0.65,-0.31,-0.04,0.14,0.08,0.96,
1.96,0.65,-0.31,-0.04,0.15,0.08,0.96,
1.96,0.70,-0.31,-0.18,0.15,0.08,0.96,
1.962,0.70,-0.31,-0.18,0.15,0.07,0.95,
1.964,0.70,-0.31,-0.18,0.16,0.07,0.95,
1.965,0.78,-0.31,-0.32,0.16,0.07,0.95,
1.967,0.78,-0.31,-0.32,0.16,0.07,0.94,
1.969,0.78,-0.31,-0.32,0.16,0.07,0.94,
1.97,0.88,-0.35,-0.42,0.16,0.07,0.94,
1.972,0.88,-0.35,-0.42,0.17,0.07,0.93,
1.975,0.88,-0.35,-0.42,0.16,0.07,0.93,
1.975,0.95,-0.37,-0.50,0.16,0.07,0.93,
1.977,0.95,-0.37,-0.50,0.16,0.08,0.93,
1.979,0.95,-0.37,-0.50,0.16,0.08,0.93,
1.979,0.95,-0.39,-0.57,0.16,0.08,0.93,
1.981,0.95,-0.39,-0.57,0.16,0.09,0.93,
1.984,0.95,-0.39,-0.57,0.16,0.09,0.93,
1.984,0.91,-0.33,-0.62,0.16,0.09,0.93,
1.986,0.91,-0.33,-0.62,0.16,0.09,0.93,
1.989,0.91,-0.33,-0.62,0.16,0.09,0.94,
1.989,0.89,-0.29,-0.61,0.16,0.09,0.94,
1.996,0.89,-0.29,-0.61,0.16,0.08,0.94,
1.997,0.89,-0.29,-0.61,0.16,0.08,0.94,
1.997,0.89,-0.30,-0.54,0.16,0.08,0.94,
1.997,0.89,-0.30,-0.54,0.17,0.08,0.94,
1.999,0.89,-0.30,-0.54,0.16,0.08,0.95,
1.999,0.91,-0.36,-0.47,0.16,0.08,0.95,
2.001,0.91,-0.36,-0.47,0.17,0.07,0.95,
2.003,0.91,-0.36,-0.47,0.16,0.07,0.96,
2.004,0.91,-0.40,-0.41,0.16,0.07,0.96,
2.013,0.91,-0.40,-0.41,0.16,0.07,0.96,
2.013,0.91,-0.40,-0.41,0.16,0.06,0.96,
2.014,0.91,-0.46,-0.33,0.16,0.06,0.96,
2.014,0.91,-0.46,-0.33,0.15,0.06,0.97,
2.014,0.91,-0.46,-0.33,0.15,0.06,0.97,
2.014,0.84,-0.53,-0.25,0.15,0.06,0.97,
2.016,0.84,-0.53,-0.25,0.14,0.06,0.97,
2.018,0.84,-0.53,-0.25,0.13,0.06,0.97,
2.018,0.76,-0.57,-0.19,0.13,0.06,0.97,
2.02,0.76,-0.57,-0.19,0.13,0.06,0.97,
2.023,0.76,-0.57,-0.19,0.12,0.06,0.97,
2.023,0.63,-0.60,-0.14,0.12,0.06,0.97,
2.025,0.63,-0.60,-0.14,0.11,0.05,0.97,
2.028,0.63,-0.60,-0.14,0.10,0.05,0.97,
2.028,0.48,-0.63,-0.13,0.10,0.05,0.97,
2.031,0.48,-0.63,-0.13,0.10,0.05,0.97,
2.033,0.48,-0.63,-0.13,0.10,0.05,0.97,
2.033,0.36,-0.68,-0.15,0.10,0.05,0.97,
2.035,0.36,-0.68,-0.15,0.09,0.05,0.96,
2.038,0.36,-0.68,-0.15,0.09,0.04,0.96,
2.038,0.26,-0.71,-0.20,0.09,0.04,0.96,
2.041,0.26,-0.71,-0.20,0.09,0.04,0.95,
2.043,0.26,-0.71,-0.20,0.09,0.04,0.95,
2.043,0.21,-0.74,-0.26,0.09,0.04,0.95,
2.046,0.21,-0.74,-0.26,0.09,0.04,0.94,
2.047,0.21,-0.74,-0.26,0.08,0.04,0.94,
2.048,0.20,-0.78,-0.35,0.08,0.04,0.94,
2.05,0.20,-0.78,-0.35,0.08,0.05,0.94,
2.052,0.20,-0.78,-0.35,0.09,0.05,0.93,
2.053,0.18,-0.76,-0.43,0.09,0.05,0.93,
2.055,0.18,-0.76,-0.43,0.09,0.05,0.93,
2.058,0.18,-0.76,-0.43,0.09,0.05,0.92,
2.058,0.19,-0.74,-0.51,0.09,0.05,0.92,
2.06,0.19,-0.74,-0.51,0.09,0.05,0.92,
2.062,0.19,-0.74,-0.51,0.09,0.05,0.92,
2.064,0.21,-0.73,-0.58,0.09,0.05,0.92,
2.065,0.21,-0.73,-0.58,0.10,0.05,0.92,
2.067,0.21,-0.73,-0.58,0.11,0.05,0.91,
2.067,0.24,-0.74,-0.63,0.11,0.05,0.91,
2.07,0.24,-0.74,-0.63,0.11,0.06,0.91,
2.072,0.24,-0.74,-0.63,0.13,0.06,0.91,
2.072,0.35,-0.72,-0.68,0.13,0.06,0.91,
2.075,0.35,-0.72,-0.68,0.13,0.06,0.91,
2.077,0.35,-0.72,-0.68,0.14,0.06,0.91,
2.077,0.51,-0.66,-0.69,0.14,0.06,0.91,
2.08,0.51,-0.66,-0.69,0.15,0.06,0.91,
2.082,0.51,-0.66,-0.69,0.15,0.06,0.91,
2.082,0.67,-0.65,-0.68,0.15,0.06,0.91,
2.084,0.67,-0.65,-0.68,0.15,0.06,0.91,
2.087,0.67,-0.65,-0.68,0.16,0.06,0.91,
2.087,0.79,-0.65,-0.68,0.16,0.06,0.91,
2.096,0.79,-0.65,-0.68,0.16,0.06,0.91,
2.097,0.79,-0.65,-0.68,0.16,0.05,0.90,
2.097,0.81,-0.67,-0.70,0.16,0.05,0.90,
2.097,0.81,-0.67,-0.70,0.16,0.05,0.90,
2.098,0.81,-0.67,-0.70,0.16,0.04,0.90,
2.098,0.83,-0.72,-0.72,0.16,0.04,0.90,
2.099,0.83,-0.72,-0.72,0.16,0.04,0.90,
2.101,0.83,-0.72,-0.72,0.15,0.03,0.91,
2.101,0.81,-0.82,-0.73,0.15,0.03,0.91,
2.104,0.81,-0.82,-0.73,0.14,0.03,0.91,
2.111,0.81,-0.82,-0.73,0.13,0.03,0.91,
2.111,0.75,-0.93,-0.71,0.13,0.03,0.91,
2.111,0.75,-0.93,-0.71,0.12,0.03,0.91,
2.111,0.75,-0.93,-0.71,0.11,0.02,0.91,
2.111,0.57,-0.98,-0.67,0.11,0.02,0.91,
2.114,0.57,-0.98,-0.67,0.10,0.02,0.91,
2.116,0.57,-0.98,-0.67,0.09,0.02,0.92,
2.116,0.35,-1.03,-0.63,0.09,0.02,0.92,
2.118,0.35,-1.03,-0.63,0.09,0.02,0.92,
2.121,0.35,-1.03,-0.63,0.08,0.01,0.92,
2.121,0.13,-1.07,-0.59,0.08,0.01,0.92,
2.123,0.13,-1.07,-0.59,0.08,0.01,0.93,
2.126,0.13,-1.07,-0.59,0.07,0.00,0.93,
2.126,0.00,-1.12,-0.51,0.07,0.00,0.93,
2.128,0.00,-1.12,-0.51,0.06,0.00,0.94,
2.131,0.00,-1.12,-0.51,0.06,0.01,0.95,
2.131,-0.10,-1.17,-0.44,0.06,0.01,0.95,
2.133,-0.10,-1.17,-0.44,0.05,0.01,0.95,
2.136,-0.10,-1.17,-0.44,0.05,0.01,0.96,
2.136,-0.21,-1.17,-0.32,0.05,0.01,0.96,
2.138,-0.21,-1.17,-0.32,0.04,0.02,0.96,
2.14,-0.21,-1.17,-0.32,0.04,0.02,0.97,
2.141,-0.31,-1.09,-0.19,0.04,0.02,0.97,
2.143,-0.31,-1.09,-0.19,0.05,0.02,0.98,
2.145,-0.31,-1.09,-0.19,0.05,0.02,0.98,
2.146,-0.36,-1.02,-0.06,0.05,0.02,0.98,
2.148,-0.36,-1.02,-0.06,0.05,0.02,0.98,
2.15,-0.36,-1.02,-0.06,0.06,0.02,0.99,
2.15,-0.34,-0.98,0.05,0.06,0.02,0.99,
2.153,-0.34,-0.98,0.05,0.06,0.02,0.99,
2.155,-0.34,-0.98,0.05,0.07,0.02,0.99,
2.156,-0.24,-0.97,0.11,0.07,0.02,0.99,
2.158,-0.24,-0.97,0.11,0.07,0.03,0.99,
2.161,-0.24,-0.97,0.11,0.08,0.03,0.99,
2.161,-0.16,-0.93,0.15,0.08,0.03,0.99,
2.163,-0.16,-0.93,0.15,0.08,0.03,0.99,
2.165,-0.16,-0.93,0.15,0.09,0.04,0.99,
2.166,-0.06,-0.86,0.18,0.09,0.04,0.99,
2.167,-0.06,-0.86,0.18,0.09,0.04,0.99,
2.17,-0.06,-0.86,0.18,0.09,0.04,0.99,
2.17,0.03,-0.80,0.19,0.09,0.04,0.99,
2.173,0.03,-0.80,0.19,0.10,0.04,0.99,
2.175,0.03,-0.80,0.19,0.10,0.04,0.98,
2.175,0.10,-0.76,0.16,0.10,0.04,0.98,
2.178,0.10,-0.76,0.16,0.10,0.04,0.98,
2.18,0.10,-0.76,0.16,0.10,0.03,0.98,
2.18,0.17,-0.79,0.11,0.10,0.03,0.98,
2.182,0.17,-0.79,0.11,0.09,0.04,0.97,
2.185,0.17,-0.79,0.11,0.09,0.04,0.97,
2.185,0.17,-0.80,0.05,0.09,0.04,0.97,
2.187,0.17,-0.80,0.05,0.09,0.04,0.96,
2.19,0.17,-0.80,0.05,0.09,0.04,0.96,
2.191,0.10,-0.79,-0.05,0.09,0.04,0.96,
2.192,0.10,-0.79,-0.05,0.09,0.04,0.95,
2.195,0.10,-0.79,-0.05,0.09,0.03,0.95,
2.195,0.08,-0.77,-0.16,0.09,0.03,0.95,
2.197,0.08,-0.77,-0.16,0.09,0.03,0.94,
2.199,0.08,-0.77,-0.16,0.09,0.03,0.93,
2.2,0.07,-0.80,-0.25,0.09,0.03,0.93,
2.202,0.07,-0.80,-0.25,0.09,0.03,0.93,
2.204,0.07,-0.80,-0.25,0.08,0.03,0.93,
2.205,0.09,-0.85,-0.35,0.08,0.03,0.93,
2.212,0.09,-0.85,-0.35,0.08,0.03,0.93,
2.213,0.09,-0.85,-0.35,0.08,0.03,0.93,
2.213,0.04,-0.86,-0.43,0.08,0.03,0.93,
2.213,0.04,-0.86,-0.43,0.08,0.04,0.93,
2.214,0.04,-0.86,-0.43,0.08,0.04,0.93,
2.214,0.00,-0.82,-0.45,0.08,0.04,0.93,
2.217,0.00,-0.82,-0.45,0.08,0.04,0.93,
2.219,0.00,-0.82,-0.45,0.08,0.04,0.93,
2.219,-0.03,-0.77,-0.45,0.08,0.04,0.93,
2.221,-0.03,-0.77,-0.45,0.08,0.04,0.93,
2.241,-0.03,-0.77,-0.45,0.08,0.04,0.93,
2.241,-0.04,-0.75,-0.41,0.08,0.04,0.93,
2.243,-0.04,-0.75,-0.41,0.08,0.04,0.93,
2.243,-0.04,-0.75,-0.41,0.08,0.04,0.94,
2.243,-0.03,-0.72,-0.39,0.08,0.04,0.94,
2.243,-0.03,-0.72,-0.39,0.07,0.05,0.94,
2.243,-0.03,-0.72,-0.39,0.07,0.05,0.94,
2.244,-0.01,-0.71,-0.36,0.07,0.05,0.94,
2.244,-0.01,-0.71,-0.36,0.06,0.05,0.94,
2.244,-0.01,-0.71,-0.36,0.07,0.05,0.95,
2.244,-0.10,-0.64,-0.31,0.07,0.05,0.95,
2.244,-0.10,-0.64,-0.31,0.07,0.05,0.95,
2.244,-0.10,-0.64,-0.31,0.07,0.04,0.96,
2.244,-0.16,-0.62,-0.25,0.07,0.04,0.96,
2.246,-0.16,-0.62,-0.25,0.07,0.04,0.96,
2.248,-0.16,-0.62,-0.25,0.07,0.04,0.96,
2.249,-0.13,-0.63,-0.18,0.07,0.04,0.96,
2.251,-0.13,-0.63,-0.18,0.07,0.04,0.96,
2.253,-0.13,-0.63,-0.18,0.07,0.04,0.96,
2.253,-0.13,-0.66,-0.10,0.07,0.04,0.96,
2.256,-0.13,-0.66,-0.10,0.07,0.04,0.96,
2.258,-0.13,-0.66,-0.10,0.07,0.04,0.97,
2.258,-0.09,-0.68,-0.09,0.07,0.04,0.97,
2.261,-0.09,-0.68,-0.09,0.07,0.04,0.96,
2.263,-0.09,-0.68,-0.09,0.07,0.04,0.97,
2.263,-0.06,-0.70,-0.06,0.07,0.04,0.97,
2.265,-0.06,-0.70,-0.06,0.08,0.04,0.97,
2.268,-0.06,-0.70,-0.06,0.08,0.04,0.97,
2.268,-0.07,-0.69,-0.06,0.08,0.04,0.97,
2.27,-0.07,-0.69,-0.06,0.09,0.04,0.98,
2.273,-0.07,-0.69,-0.06,0.09,0.03,0.98,
2.273,0.02,-0.66,-0.01,0.09,0.03,0.98,
2.275,0.02,-0.66,-0.01,0.09,0.03,0.98,
2.278,0.02,-0.66,-0.01,0.09,0.04,0.98,
2.278,0.06,-0.69,0.06,0.09,0.04,0.98,
2.28,0.06,-0.69,0.06,0.09,0.04,0.98,
2.282,0.06,-0.69,0.06,0.09,0.04,0.99,
2.283,0.07,-0.68,0.11,0.09,0.04,0.99,
2.285,0.07,-0.68,0.11,0.09,0.04,0.99,
2.287,0.07,-0.68,0.11,0.09,0.03,0.99,
2.288,0.08,-0.67,0.14,0.09,0.03,0.99,
2.292,0.08,-0.67,0.14,0.09,0.03,0.99,
2.293,0.08,-0.67,0.14,0.09,0.03,0.99,
2.293,0.09,-0.68,0.17,0.09,0.03,0.99,
2.295,0.09,-0.68,0.17,0.09,0.04,0.99,
2.297,0.09,-0.68,0.17,0.09,0.04,0.99,
2.297,0.07,-0.69,0.19,0.09,0.04,0.99,
2.299,0.07,-0.69,0.19,0.09,0.04,0.99,
2.302,0.07,-0.69,0.19,0.09,0.04,1.00,
2.302,0.03,-0.63,0.21,0.09,0.04,1.00,
2.305,0.03,-0.63,0.21,0.08,0.04,0.99,
2.307,0.03,-0.63,0.21,0.09,0.04,0.99,
2.308,-0.00,-0.58,0.23,0.09,0.04,0.99,
2.31,-0.00,-0.58,0.23,0.09,0.04,0.99,
2.312,-0.00,-0.58,0.23,0.08,0.03,0.99,
2.312,-0.03,-0.61,0.22,0.08,0.03,0.99,
2.314,-0.03,-0.61,0.22,0.09,0.03,0.99,
2.317,-0.03,-0.61,0.22,0.09,0.03,0.98,
2.317,-0.04,-0.66,0.20,0.09,0.03,0.98,
2.319,-0.04,-0.66,0.20,0.09,0.03,0.98,
2.322,-0.04,-0.66,0.20,0.09,0.02,0.97,
2.322,-0.04,-0.70,0.12,0.09,0.02,0.97,
2.324,-0.04,-0.70,0.12,0.09,0.02,0.97,
2.327,-0.04,-0.70,0.12,0.09,0.02,0.96,
2.328,-0.04,-0.76,0.05,0.09,0.02,0.96,
2.329,-0.04,-0.76,0.05,0.08,0.02,0.96,
2.332,-0.04,-0.76,0.05,0.08,0.02,0.95,
2.332,-0.05,-0.78,-0.05,0.08,0.02,0.95,
2.334,-0.05,-0.78,-0.05,0.08,0.02,0.95,
2.336,-0.05,-0.78,-0.05,0.08,0.02,0.94,
2.337,-0.10,-0.80,-0.17,0.08,0.02,0.94,
2.339,-0.10,-0.80,-0.17,0.07,0.02,0.93,
2.342,-0.10,-0.80,-0.17,0.07,0.01,0.93,
2.342,-0.15,-0.81,-0.27,0.07,0.01,0.93,
2.344,-0.15,-0.81,-0.27,0.07,0.01,0.92,
2.346,-0.15,-0.81,-0.27,0.07,0.01,0.92,
2.346,-0.17,-0.84,-0.39,0.07,0.01,0.92,
2.349,-0.17,-0.84,-0.39,0.07,0.01,0.92,
2.351,-0.17,-0.84,-0.39,0.06,0.01,0.92,
2.351,-0.19,-0.88,-0.46,0.06,0.01,0.92,
2.354,-0.19,-0.88,-0.46,0.06,0.01,0.92,
2.357,-0.19,-0.88,-0.46,0.05,0.01,0.92,
2.357,-0.26,-0.89,-0.49,0.05,0.01,0.92,
2.359,-0.26,-0.89,-0.49,0.05,0.00,0.92,
2.361,-0.26,-0.89,-0.49,0.05,-0.00,0.92,
2.362,-0.36,-0.92,-0.50,0.05,-0.00,0.92,
2.364,-0.36,-0.92,-0.50,0.04,-0.00,0.92,
2.366,-0.36,-0.92,-0.50,0.04,-0.00,0.92,
2.366,-0.45,-0.96,-0.48,0.04,-0.00,0.92,
2.368,-0.45,-0.96,-0.48,0.03,-0.00,0.93,
2.371,-0.45,-0.96,-0.48,0.03,-0.00,0.93,
2.371,-0.52,-1.00,-0.46,0.03,-0.00,0.93,
2.373,-0.52,-1.00,-0.46,0.02,-0.00,0.94,
2.376,-0.52,-1.00,-0.46,0.02,-0.00,0.95,
2.376,-0.60,-0.98,-0.37,0.02,-0.00,0.95,
2.378,-0.60,-0.98,-0.37,0.01,-0.00,0.96,
2.38,-0.60,-0.98,-0.37,0.01,-0.00,0.97,
2.381,-0.70,-0.96,-0.19,0.01,-0.00,0.97,
2.383,-0.70,-0.96,-0.19,0.01,-0.00,0.98,
2.385,-0.70,-0.96,-0.19,0.01,-0.01,0.98,
2.386,-0.81,-0.95,-0.03,0.01,-0.01,0.98,
2.388,-0.81,-0.95,-0.03,0.01,-0.01,0.99,
2.392,-0.81,-0.95,-0.03,0.01,-0.01,0.99,
2.392,-0.86,-0.95,0.12,0.01,-0.01,0.99,
2.4,-0.86,-0.95,0.12,0.01,-0.01,1.00,
2.401,-0.86,-0.95,0.12,0.01,-0.01,1.00,
2.401,-0.86,-0.98,0.23,0.01,-0.01,1.00,
2.401,-0.86,-0.98,0.23,0.02,-0.02,1.01,
2.401,-0.86,-0.98,0.23,0.02,-0.02,1.01,
2.401,-0.82,-1.01,0.32,0.02,-0.02,1.01,
2.402,-0.82,-1.01,0.32,0.02,-0.02,1.01,
2.405,-0.82,-1.01,0.32,0.02,-0.03,1.01,
2.405,-0.75,-1.03,0.38,0.02,-0.03,1.01,
2.412,-0.75,-1.03,0.38,0.02,-0.03,1.01,
2.412,-0.75,-1.03,0.38,0.02,-0.03,1.00,
2.412,-0.70,-1.08,0.39,0.02,-0.03,1.00,
2.412,-0.70,-1.08,0.39,0.02,-0.03,1.00,
2.415,-0.70,-1.08,0.39,0.02,-0.02,0.99,
2.415,-0.69,-1.10,0.35,0.02,-0.02,0.99,
2.417,-0.69,-1.10,0.35,0.01,-0.02,0.99,
2.42,-0.69,-1.10,0.35,0.01,-0.02,0.99,
2.42,-0.74,-1.08,0.27,0.01,-0.02,0.99,
2.422,-0.74,-1.08,0.27,0.00,-0.02,0.98,
2.424,-0.74,-1.08,0.27,0.00,-0.02,0.98,
2.425,-0.81,-1.00,0.20,0.00,-0.02,0.98,
2.427,-0.81,-1.00,0.20,0.00,-0.01,0.97,
2.429,-0.81,-1.00,0.20,0.00,-0.01,0.96,
2.43,-0.89,-0.96,0.10,0.00,-0.01,0.96,
2.432,-0.89,-0.96,0.10,0.00,-0.01,0.96,
2.435,-0.89,-0.96,0.10,-0.00,-0.02,0.96,
2.435,-0.87,-0.94,-0.02,-0.00,-0.02,0.96,
2.437,-0.87,-0.94,-0.02,-0.01,-0.01,0.95,
2.439,-0.87,-0.94,-0.02,-0.01,-0.01,0.95,
2.44,-0.89,-0.95,-0.10,-0.01,-0.01,0.95,
2.442,-0.89,-0.95,-0.10,-0.02,-0.01,0.95,
2.444,-0.89,-0.95,-0.10,-0.02,-0.01,0.95,
2.445,-0.96,-0.91,-0.16,-0.02,-0.01,0.95,
2.447,-0.96,-0.91,-0.16,-0.03,-0.00,0.95,
2.449,-1.09,-0.85,-0.21,-0.03,-0.00,0.95,
2.449,-1.09,-0.85,-0.21,-0.03,0.00,0.95,
2.452,-1.09,-0.85,-0.21,-0.03,-0.00,0.95,
2.454,-1.16,-0.77,-0.19,-0.03,-0.00,0.95,
2.455,-1.16,-0.77,-0.19,-0.03,-0.00,0.96,
2.457,-1.16,-0.77,-0.19,-0.03,-0.00,0.96,
2.459,-1.16,-0.77,-0.19,-0.03,-0.01,0.97,
2.459,-1.17,-0.78,-0.15,-0.03,-0.01,0.97,
2.461,-1.17,-0.78,-0.15,-0.03,-0.00,0.97,
2.464,-1.17,-0.78,-0.15,-0.02,-0.00,0.98,
2.464,-1.14,-0.79,-0.05,-0.02,-0.00,0.98,
2.466,-1.14,-0.79,-0.05,-0.02,0.01,0.98,
2.469,-1.14,-0.79,-0.05,-0.02,0.01,0.99,
2.469,-1.11,-0.75,0.07,-0.02,0.01,0.99,
2.471,-1.11,-0.75,0.07,-0.02,0.01,1.00,
2.474,-1.11,-0.75,0.07,-0.01,0.02,1.01,
2.474,-1.06,-0.65,0.20,-0.01,0.02,1.01,
2.476,-1.06,-0.65,0.20,-0.01,0.02,1.02,
2.478,-1.06,-0.65,0.20,-0.00,0.02,1.03,
2.479,-1.01,-0.57,0.37,-0.00,0.02,1.03,
2.481,-1.01,-0.57,0.37,-0.00,0.02,1.03,
2.483,-1.01,-0.57,0.37,-0.00,0.03,1.04,
2.484,-0.93,-0.49,0.52,-0.00,0.03,1.04,
2.486,-0.93,-0.49,0.52,0.00,0.03,1.04,
2.494,-0.93,-0.49,0.52,0.00,0.03,1.05,
2.495,-0.88,-0.45,0.65,0.00,0.03,1.05,
2.495,-0.88,-0.45,0.65,0.00,0.04,1.05,
2.495,-0.88,-0.45,0.65,0.00,0.04,1.05,
2.495,-0.86,-0.38,0.74,0.00,0.04,1.05,
2.496,-0.86,-0.38,0.74,0.00,0.04,1.06,
2.498,-0.86,-0.38,0.74,0.00,0.04,1.06,
2.498,-0.84,-0.32,0.79,0.00,0.04,1.06,
2.5,-0.84,-0.32,0.79,0.01,0.04,1.06,
2.503,-0.84,-0.32,0.79,0.01,0.04,1.05,
2.504,-0.82,-0.29,0.83,0.01,0.04,1.05,
2.507,-0.82,-0.29,0.83,0.01,0.04,1.05,
2.508,-0.79,-0.27,0.80,0.01,0.04,1.05,
2.509,-0.79,-0.27,0.80,0.01,0.04,1.04,
2.51,-0.79,-0.27,0.80,0.01,0.04,1.04,
2.513,-0.79,-0.27,0.80,0.01,0.04,1.03,
2.513,-0.77,-0.24,0.71,0.01,0.04,1.03,
2.515,-0.77,-0.24,0.71,0.00,0.04,1.03,
2.517,-0.77,-0.24,0.71,-0.01,0.04,1.02,
2.517,-0.72,-0.28,0.60,-0.01,0.04,1.02,
2.52,-0.72,-0.28,0.60,-0.02,0.05,1.01,
2.522,-0.72,-0.28,0.60,-0.02,0.05,1.01,
2.523,-0.83,-0.26,0.49,-0.02,0.05,1.01,
2.525,-0.83,-0.26,0.49,-0.03,0.06,1.00,
2.527,-0.83,-0.26,0.49,-0.03,0.06,0.99,
2.527,-0.97,-0.15,0.35,-0.03,0.06,0.99,
2.53,-0.97,-0.15,0.35,-0.03,0.05,0.99,
2.532,-0.97,-0.15,0.35,-0.04,0.05,0.98,
2.532,-1.05,-0.09,0.22,-0.04,0.05,0.98,
2.535,-1.05,-0.09,0.22,-0.04,0.06,0.98,
2.537,-1.05,-0.09,0.22,-0.04,0.06,0.97,
2.537,-1.10,-0.12,0.11,-0.04,0.06,0.97,
2.539,-1.10,-0.12,0.11,-0.04,0.06,0.97,
2.542,-1.10,-0.12,0.11,-0.04,0.06,0.97,
2.542,-1.11,-0.08,0.01,-0.04,0.06,0.97,
2.544,-1.11,-0.08,0.01,-0.03,0.06,0.97,
2.547,-1.11,-0.08,0.01,-0.03,0.06,0.97,
2.547,-1.05,-0.04,-0.05,-0.03,0.06,0.97,
2.549,-1.05,-0.04,-0.05,-0.03,0.07,0.97,
2.552,-1.05,-0.04,-0.05,-0.03,0.07,0.98,
2.554,-0.98,-0.02,-0.03,-0.03,0.07,0.98,
2.555,-0.98,-0.02,-0.03,-0.02,0.07,0.98,
2.557,-0.98,-0.02,-0.03,-0.02,0.07,0.99,
2.557,-0.91,0.02,-0.01,-0.02,0.07,0.99,
2.559,-0.91,0.02,-0.01,-0.01,0.07,0.99,
2.561,-0.91,0.02,-0.01,-0.01,0.07,0.99,
2.562,-0.83,0.05,0.06,-0.01,0.07,0.99,
2.564,-0.83,0.05,0.06,-0.01,0.07,0.99,
2.566,-0.83,0.05,0.06,-0.01,0.08,0.99,
2.567,-0.74,0.04,0.13,-0.01,0.08,0.99,
2.569,-0.74,0.04,0.13,-0.00,0.08,1.00,
2.572,-0.74,0.04,0.13,0.00,0.08,1.00,
2.572,-0.71,0.09,0.16,0.00,0.08,1.00,
2.574,-0.71,0.09,0.16,0.00,0.08,1.00,
2.576,-0.71,0.09,0.16,0.01,0.08,1.01,
2.576,-0.64,0.13,0.21,0.01,0.08,1.01,
2.579,-0.64,0.13,0.21,0.01,0.08,1.00,
2.581,-0.64,0.13,0.21,0.01,0.08,1.01,
2.581,-0.57,0.11,0.27,0.01,0.08,1.01,
2.583,-0.57,0.11,0.27,0.01,0.08,1.00,
2.586,-0.57,0.11,0.27,0.01,0.09,1.00,
2.586,-0.53,0.12,0.27,0.01,0.09,1.00,
2.589,-0.53,0.12,0.27,0.01,0.09,1.00,
2.591,-0.53,0.12,0.27,0.01,0.09,1.00,
2.591,-0.52,0.18,0.28,0.01,0.09,1.00,
2.594,-0.52,0.18,0.28,0.01,0.09,1.00,
2.596,-0.52,0.18,0.28,0.01,0.09,0.99,
2.596,-0.52,0.24,0.23,0.01,0.09,0.99,
2.598,-0.52,0.24,0.23,0.01,0.09,0.99,
2.601,-0.52,0.24,0.23,0.02,0.09,0.99,
2.601,-0.52,0.25,0.18,0.02,0.09,0.99,
2.603,-0.52,0.25,0.18,0.02,0.09,0.98,
2.611,-0.52,0.25,0.18,0.03,0.09,0.98,
2.611,-0.46,0.23,0.11,0.03,0.09,0.98,
2.612,-0.46,0.23,0.11,0.03,0.09,0.98,
2.612,-0.46,0.23,0.11,0.03,0.08,0.97,
2.612,-0.38,0.20,0.03,0.03,0.08,0.97,
2.613,-0.38,0.20,0.03,0.03,0.08,0.97,
2.616,-0.38,0.20,0.03,0.03,0.08,0.97,
2.616,-0.33,0.16,-0.03,0.03,0.08,0.97,
2.618,-0.33,0.16,-0.03,0.03,0.08,0.96,
2.62,-0.33,0.16,-0.03,0.03,0.08,0.97,
2.621,-0.31,0.15,-0.10,0.03,0.08,0.97,
2.63,-0.31,0.15,-0.10,0.03,0.08,0.97,
2.63,-0.31,0.15,-0.10,0.03,0.08,0.97,
2.631,-0.30,0.15,-0.11,0.03,0.08,0.97,
2.631,-0.30,0.15,-0.11,0.03,0.08,0.97,
2.631,-0.30,0.15,-0.11,0.03,0.08,0.97,
2.631,-0.29,0.15,-0.08,0.03,0.08,0.97,
2.633,-0.29,0.15,-0.08,0.03,0.08,0.98,
2.635,-0.29,0.15,-0.08,0.03,0.08,0.98,
2.635,-0.29,0.16,-0.04,0.03,0.08,0.98,
2.638,-0.29,0.16,-0.04,0.03,0.08,0.98,
2.64,-0.29,0.16,-0.04,0.03,0.08,0.99,
2.64,-0.29,0.15,0.03,0.03,0.08,0.99,
2.642,-0.29,0.15,0.03,0.03,0.08,0.99,
2.645,-0.29,0.15,0.03,0.03,0.08,1.00,
2.645,-0.29,0.12,0.09,0.03,0.08,1.00,
2.647,-0.29,0.12,0.09,0.03,0.08,1.00,
2.65,-0.29,0.12,0.09,0.02,0.08,1.01,
2.65,-0.31,0.10,0.16,0.02,0.08,1.01,
2.652,-0.31,0.10,0.16,0.02,0.08,1.01,
2.655,-0.31,0.10,0.16,0.02,0.08,1.01,
2.655,-0.33,0.11,0.26,0.02,0.08,1.01,
2.657,-0.33,0.11,0.26,0.02,0.08,1.02,
2.66,-0.33,0.11,0.26,0.01,0.08,1.02,
2.66,-0.37,0.14,0.33,0.01,0.08,1.02,
2.662,-0.37,0.14,0.33,0.01,0.08,1.02,
2.664,-0.37,0.14,0.33,0.01,0.08,1.02,
2.665,-0.42,0.15,0.40,0.01,0.08,1.02,
2.667,-0.42,0.15,0.40,0.01,0.08,1.02,
2.67,-0.42,0.15,0.40,0.02,0.08,1.02,
2.67,-0.43,0.15,0.42,0.02,0.08,1.02,
2.672,-0.43,0.15,0.42,0.02,0.08,1.02,
2.675,-0.43,0.15,0.42,0.02,0.08,1.02,
2.675,-0.41,0.14,0.43,0.02,0.08,1.02,
2.677,-0.41,0.14,0.43,0.02,0.08,1.02,
2.679,-0.41,0.14,0.43,0.03,0.08,1.02,
2.68,-0.36,0.12,0.41,0.03,0.08,1.02,
2.682,-0.36,0.12,0.41,0.03,0.08,1.01,
2.684,-0.36,0.12,0.41,0.03,0.08,1.01,
2.684,-0.30,0.10,0.37,0.03,0.08,1.01,
2.687,-0.30,0.10,0.37,0.04,0.08,1.01,
2.694,-0.30,0.10,0.37,0.04,0.08,1.00,
2.694,-0.24,0.09,0.32,0.04,0.08,1.00,
2.695,-0.24,0.09,0.32,0.04,0.08,1.00,
2.695,-0.24,0.09,0.32,0.04,0.08,0.99,
2.695,-0.18,0.09,0.25,0.04,0.08,0.99,
2.696,-0.18,0.09,0.25,0.04,0.08,0.99,
2.699,-0.18,0.09,0.25,0.05,0.08,0.98,
2.699,-0.17,0.09,0.16,0.05,0.08,0.98,
2.701,-0.17,0.09,0.16,0.05,0.08,0.98,
2.704,-0.17,0.09,0.16,0.06,0.08,0.98,
2.704,-0.10,0.08,0.07,0.06,0.08,0.98,
2.706,-0.10,0.08,0.07,0.06,0.08,0.98,
2.709,-0.10,0.08,0.07,0.06,0.08,0.97,
2.709,-0.01,0.07,0.00,0.06,0.08,0.97,
2.711,-0.01,0.07,0.00,0.06,0.08,0.97,
2.713,-0.01,0.07,0.00,0.06,0.08,0.97,
2.713,0.03,0.06,-0.06,0.06,0.08,0.97,
2.716,0.03,0.06,-0.06,0.06,0.09,0.97,
2.718,0.03,0.06,-0.06,0.06,0.09,0.97,
2.718,0.05,0.09,-0.10,0.06,0.09,0.97,
2.721,0.05,0.09,-0.10,0.06,0.09,0.97,
2.723,0.05,0.09,-0.10,0.06,0.09,0.97,
2.723,0.04,0.15,-0.12,0.06,0.09,0.97,
2.726,0.04,0.15,-0.12,0.06,0.09,0.97,
2.728,0.04,0.15,-0.12,0.06,0.09,0.97,
2.728,0.05,0.17,-0.11,0.06,0.09,0.97,
2.73,0.05,0.17,-0.11,0.06,0.10,0.97,
2.733,0.05,0.17,-0.11,0.06,0.09,0.98,
2.734,0.03,0.20,-0.08,0.06,0.09,0.98,
2.736,0.03,0.20,-0.08,0.06,0.09,0.98,
2.739,0.03,0.20,-0.08,0.06,0.09,0.98,
2.739,0.00,0.22,-0.04,0.06,0.09,0.98,
2.741,0.00,0.22,-0.04,0.06,0.09,0.98,
2.743,0.00,0.22,-0.04,0.06,0.09,0.98,
2.744,0.02,0.19,0.00,0.06,0.09,0.98,
2.745,0.02,0.19,0.00,0.06,0.09,0.98,
2.748,0.02,0.19,0.00,0.06,0.09,0.98,
2.748,0.05,0.16,0.01,0.06,0.09,0.98,
2.75,0.05,0.16,0.01,0.06,0.09,0.98,
2.753,0.07,0.15,0.03,0.06,0.09,0.98,
2.753,0.07,0.15,0.03,0.06,0.09,0.98,
2.755,0.07,0.15,0.03,0.06,0.09,0.98,
2.758,0.07,0.15,0.03,0.06,0.09,0.98,
2.758,0.08,0.16,0.03,0.06,0.09,0.98,
2.76,0.08,0.16,0.03,0.06,0.09,0.98,
2.762,0.08,0.16,0.03,0.06,0.09,0.98,
2.763,0.05,0.15,0.01,0.06,0.09,0.98,
2.765,0.05,0.15,0.01,0.06,0.09,0.98,
2.767,0.05,0.15,0.01,0.06,0.09,0.98,
2.768,0.06,0.14,-0.00,0.06,0.09,0.98,
2.77,0.06,0.14,-0.00,0.06,0.09,0.98,
2.773,0.06,0.14,-0.00,0.05,0.09,0.98,
2.773,0.03,0.14,-0.03,0.05,0.09,0.98,
2.775,0.03,0.14,-0.03,0.05,0.09,0.98,
2.778,0.03,0.14,-0.03,0.05,0.09,0.98,
2.778,-0.00,0.12,-0.03,0.05,0.09,0.98,
2.78,-0.00,0.12,-0.03,0.05,0.09,0.98,
2.782,-0.05,0.13,-0.03,0.05,0.09,0.98,
2.782,-0.05,0.13,-0.03,0.05,0.08,0.98,
2.784,-0.05,0.13,-0.03,0.05,0.08,0.98,
2.794,-0.05,0.13,-0.03,0.05,0.08,0.98,
2.794,-0.05,0.11,-0.01,0.05,0.08,0.98,
2.795,-0.05,0.11,-0.01,0.05,0.08,0.98,
2.795,-0.05,0.11,-0.01,0.05,0.08,0.98,
2.795,-0.04,0.09,-0.02,0.05,0.08,0.98,
2.795,-0.04,0.09,-0.02,0.05,0.08,0.98,
2.797,-0.04,0.09,-0.02,0.05,0.08,0.98,
2.797,-0.03,0.10,-0.02,0.05,0.08,0.98,
2.799,-0.03,0.10,-0.02,0.05,0.08,0.98,
2.801,-0.03,0.10,-0.02,0.05,0.09,0.98,
2.802,-0.01,0.09,-0.02,0.05,0.09,0.98,
2.806,-0.01,0.09,-0.02,0.05,0.09,0.98,
2.807,-0.01,0.09,-0.02,0.06,0.09,0.98,
2.807,-0.03,0.09,0.00,0.06,0.09,0.98,
2.809,-0.03,0.09,0.00,0.06,0.09,0.98,
2.811,-0.03,0.09,0.00,0.06,0.09,0.98,
2.812,-0.01,0.12,0.03,0.06,0.09,0.98,
2.814,-0.01,0.12,0.03,0.06,0.09,0.98,
2.816,-0.01,0.12,0.03,0.06,0.09,0.98,
2.816,0.01,0.12,0.04,0.06,0.09,0.98,
2.819,0.01,0.12,0.04,0.07,0.09,0.98,
2.821,0.01,0.12,0.04,0.07,0.09,0.98,
2.821,0.05,0.12,0.04,0.07,0.09,0.98,
2.824,0.05,0.12,0.04,0.07,0.09,0.98,
2.826,0.05,0.12,0.04,0.07,0.09,0.98,
2.826,0.10,0.13,0.04,0.07,0.09,0.98,
2.829,0.10,0.13,0.04,0.07,0.09,0.98,
2.831,0.10,0.13,0.04,0.07,0.09,0.98,
2.831,0.10,0.16,0.05,0.07,0.09,0.98,
2.833,0.10,0.16,0.05,0.06,0.09,0.96,
2.836,0.10,0.16,0.05,0.06,0.08,0.84,
2.836,0.10,0.16,0.05,0.06,0.08,0.84,
2.838,0.10,0.16,0.05,0.07,0.07,0.79,
2.841,0.10,0.16,0.05,0.08,0.07,0.83,
2.841,0.07,0.07,-0.79,0.08,0.07,0.83,
2.843,0.07,0.07,-0.79,0.07,0.08,0.87,
2.846,0.07,0.07,-0.79,0.05,0.08,0.87,
2.846,0.19,-0.04,-1.62,0.05,0.08,0.87,
2.848,0.19,-0.04,-1.62,0.04,0.09,0.87,
2.851,0.19,-0.04,-1.62,0.05,0.09,0.86,
2.851,0.07,0.04,-1.05,0.05,0.09,0.86,
2.853,0.07,0.04,-1.05,0.06,0.09,0.85,
2.855,0.07,0.04,-1.05,0.07,0.08,0.84,
2.855,-0.09,0.12,-1.08,0.07,0.08,0.84,
2.858,-0.09,0.12,-1.08,0.08,0.07,0.84,
2.86,-0.09,0.12,-1.08,0.08,0.06,0.84,
2.86,0.07,0.09,-1.24,0.08,0.06,0.84,
2.863,0.07,0.09,-1.24,0.08,0.06,0.84,
2.865,0.07,0.09,-1.24,0.07,0.06,0.86,
2.865,0.21,-0.05,-1.32,0.07,0.06,0.86,
2.867,0.21,-0.05,-1.32,0.07,0.07,0.87,
2.871,0.21,-0.05,-1.32,0.07,0.07,0.88,
2.871,0.19,-0.07,-1.19,0.07,0.07,0.88,
2.873,0.19,-0.07,-1.19,0.07,0.07,0.89,
2.875,0.19,-0.07,-1.19,0.07,0.07,0.90,
2.875,0.15,0.03,-0.97,0.07,0.07,0.90,
2.877,0.15,0.03,-0.97,0.07,0.07,0.91,
2.88,0.15,0.03,-0.97,0.07,0.07,0.92,
2.88,0.10,0.07,-0.80,0.07,0.07,0.92,
2.882,0.10,0.07,-0.80,0.06,0.07,0.94,
2.885,0.10,0.07,-0.80,0.06,0.08,0.95,
2.885,0.09,0.08,-0.52,0.06,0.08,0.95,
2.887,0.09,0.08,-0.52,0.06,0.08,0.97,
2.89,0.09,0.08,-0.52,0.07,0.07,0.99,
2.89,0.06,0.12,-0.24,0.07,0.07,0.99,
2.892,0.06,0.12,-0.24,0.07,0.07,1.01,
2.894,0.06,0.12,-0.24,0.07,0.08,1.03,
2.895,0.06,0.12,0.09,0.07,0.08,1.03,
2.897,0.06,0.12,0.09,0.07,0.08,1.06,
2.899,0.06,0.12,0.09,0.06,0.08,1.07,
2.9,0.12,0.13,0.49,0.06,0.08,1.07,
2.902,0.12,0.13,0.49,0.06,0.07,1.09,
2.908,0.12,0.13,0.49,0.05,0.07,1.11,
2.909,0.06,0.19,0.91,0.05,0.07,1.11,
2.909,0.06,0.19,0.91,0.05,0.06,1.13,
2.909,0.06,0.19,0.91,0.05,0.06,1.14,
2.909,-0.07,0.12,1.24,0.05,0.06,1.14,
2.912,-0.07,0.12,1.24,0.04,0.05,1.15,
2.914,-0.07,0.12,1.24,0.04,0.04,1.15,
2.914,-0.15,-0.01,1.56,0.04,0.04,1.15,
2.916,-0.15,-0.01,1.56,0.04,0.04,1.15,
2.919,-0.15,-0.01,1.56,0.04,0.04,1.15,
2.919,-0.23,-0.14,1.73,0.04,0.04,1.15,
2.922,-0.23,-0.14,1.73,0.04,0.03,1.14,
2.924,-0.23,-0.14,1.73,0.04,0.03,1.13,
2.924,-0.21,-0.24,1.70,0.04,0.03,1.13,
2.926,-0.21,-0.24,1.70,0.04,0.03,1.12,
2.929,-0.21,-0.24,1.70,0.04,0.04,1.10,
2.929,-0.23,-0.31,1.52,0.04,0.04,1.10,
2.931,-0.23,-0.31,1.52,0.04,0.04,1.09,
2.934,-0.23,-0.31,1.52,0.04,0.04,1.08,
2.934,-0.27,-0.31,1.28,0.04,0.04,1.08,
2.936,-0.27,-0.31,1.28,0.04,0.05,1.06,
