
time,ax,ay,az,gFx,gFy,gFz,
0.002,-0.12,-0.08,0.09,-0.11,0.15,0.96,
0.003,-0.11,-0.06,0.01,-0.11,0.15,0.96,
0.003,-0.11,-0.06,0.01,-0.10,0.15,0.96,
0.003,-0.11,-0.06,0.01,-0.10,0.15,0.96,
0.003,-0.09,-0.04,-0.02,-0.10,0.15,0.96,
0.005,-0.09,-0.04,-0.02,-0.10,0.16,0.96,
0.008,-0.09,-0.04,-0.02,-0.10,0.16,0.96,
0.008,-0.06,0.00,-0.03,-0.10,0.16,0.96,
0.01,-0.06,0.00,-0.03,-0.10,0.16,0.96,
0.012,-0.06,0.00,-0.03,-0.10,0.17,0.96,
0.013,-0.04,0.06,-0.03,-0.10,0.17,0.96,
0.015,-0.04,0.06,-0.03,-0.10,0.17,0.96,
0.017,-0.04,0.06,-0.03,-0.10,0.17,0.97,
0.018,-0.01,0.11,-0.03,-0.10,0.17,0.97,
0.02,-0.01,0.11,-0.03,-0.10,0.17,0.97,
0.022,-0.01,0.11,-0.03,-0.09,0.17,0.97,
0.022,0.02,0.14,-0.01,-0.09,0.17,0.97,
0.025,0.02,0.14,-0.01,-0.09,0.17,0.97,
0.027,0.02,0.14,-0.01,-0.09,0.17,0.97,
0.027,0.05,0.16,0.02,-0.09,0.17,0.97,
0.03,0.05,0.16,0.02,-0.09,0.17,0.98,
0.032,0.05,0.16,0.02,-0.09,0.17,0.98,
0.032,0.09,0.18,0.07,-0.09,0.17,0.98,
0.035,0.09,0.18,0.07,-0.09,0.17,0.98,
0.037,0.09,0.18,0.07,-0.09,0.17,0.98,
0.037,0.09,0.18,0.11,-0.09,0.17,0.98,
0.039,0.09,0.18,0.11,-0.09,0.17,0.98,
0.042,0.09,0.18,0.11,-0.09,0.17,0.98,
0.042,0.12,0.19,0.13,-0.09,0.17,0.98,
0.044,0.12,0.19,0.13,-0.09,0.17,0.98,
0.047,0.12,0.19,0.13,-0.09,0.17,0.98,
0.047,0.11,0.18,0.15,-0.09,0.17,0.98,
0.049,0.11,0.18,0.15,-0.09,0.17,0.98,
0.051,0.11,0.18,0.15,-0.10,0.17,0.98,
0.052,0.09,0.18,0.15,-0.10,0.17,0.98,
0.054,0.09,0.18,0.15,-0.10,0.17,0.98,
0.056,0.09,0.18,0.15,-0.10,0.17,0.99,
0.056,0.06,0.17,0.17,-0.10,0.17,0.99,
0.059,0.06,0.17,0.17,-0.10,0.17,0.99,
0.061,0.06,0.17,0.17,-0.10,0.16,0.98,
0.061,0.01,0.16,0.18,-0.10,0.16,0.98,
0.064,0.01,0.16,0.18,-0.10,0.16,0.98,
0.066,0.01,0.16,0.18,-0.10,0.16,0.98,
0.066,-0.01,0.11,0.18,-0.10,0.16,0.98,
0.069,-0.01,0.11,0.18,-0.10,0.16,0.98,
0.071,-0.01,0.11,0.18,-0.10,0.16,0.98,
0.071,-0.02,0.06,0.15,-0.10,0.16,0.98,
0.073,-0.02,0.06,0.15,-0.10,0.16,0.98,
0.076,-0.02,0.06,0.15,-0.10,0.15,0.98,
0.076,-0.05,0.04,0.14,-0.10,0.15,0.98,
0.078,-0.05,0.04,0.14,-0.11,0.15,0.98,
0.088,-0.05,0.04,0.14,-0.11,0.15,0.98,
0.088,-0.04,0.01,0.13,-0.11,0.15,0.98,
0.089,-0.04,0.01,0.13,-0.11,0.15,0.98,
0.089,-0.04,0.01,0.13,-0.11,0.15,0.97,
0.089,-0.06,-0.03,0.10,-0.11,0.15,0.97,
0.089,-0.06,-0.03,0.10,-0.11,0.15,0.97,
0.091,-0.06,-0.03,0.10,-0.11,0.15,0.97,
0.091,-0.08,-0.06,0.07,-0.11,0.15,0.97,
0.093,-0.08,-0.06,0.07,-0.11,0.15,0.97,
0.096,-0.08,-0.06,0.07,-0.11,0.15,0.97,
0.096,-0.08,-0.08,0.03,-0.11,0.15,0.97,
0.098,-0.08,-0.08,0.03,-0.11,0.14,0.97,
0.1,-0.08,-0.08,0.03,-0.11,0.15,0.97,
0.101,-0.09,-0.10,0.02,-0.11,0.15,0.97,
0.103,-0.09,-0.10,0.02,-0.11,0.15,0.97,
0.105,-0.09,-0.10,0.02,-0.11,0.15,0.96,
0.105,-0.07,-0.11,0.00,-0.11,0.15,0.96,
0.108,-0.07,-0.11,0.00,-0.11,0.15,0.96,
0.11,-0.07,-0.11,0.00,-0.11,0.14,0.96,
0.111,-0.07,-0.10,-0.02,-0.11,0.14,0.96,
0.113,-0.07,-0.10,-0.02,-0.11,0.15,0.96,
0.115,-0.07,-0.10,-0.02,-0.11,0.15,0.96,
0.115,-0.11,-0.11,-0.02,-0.11,0.15,0.96,
0.118,-0.11,-0.11,-0.02,-0.11,0.15,0.96,
0.12,-0.11,-0.11,-0.02,-0.11,0.15,0.96,
0.12,-0.13,-0.08,-0.03,-0.11,0.15,0.96,
0.122,-0.13,-0.08,-0.03,-0.11,0.15,0.96,
0.125,-0.13,-0.08,-0.03,-0.11,0.15,0.96,
0.125,-0.11,-0.06,-0.02,-0.11,0.15,0.96,
0.128,-0.11,-0.06,-0.02,-0.11,0.15,0.96,
0.13,-0.11,-0.06,-0.02,-0.11,0.16,0.97,
0.13,-0.14,-0.03,-0.03,-0.11,0.16,0.97,
0.132,-0.14,-0.03,-0.03,-0.11,0.15,0.97,
0.135,-0.14,-0.03,-0.03,-0.11,0.16,0.97,
0.135,-0.13,-0.01,-0.02,-0.11,0.16,0.97,
0.137,-0.13,-0.01,-0.02,-0.11,0.15,0.97,
0.14,-0.13,-0.01,-0.02,-0.11,0.16,0.97,
0.14,-0.12,-0.00,0.01,-0.11,0.16,0.97,
0.142,-0.12,-0.00,0.01,-0.11,0.16,0.97,
0.145,-0.12,-0.00,0.01,-0.11,0.16,0.97,
0.145,-0.11,-0.02,0.05,-0.11,0.16,0.97,
0.147,-0.11,-0.02,0.05,-0.11,0.15,0.97,
0.149,-0.11,-0.02,0.05,-0.11,0.15,0.97,
0.15,-0.10,-0.01,0.06,-0.11,0.15,0.97,
0.152,-0.10,-0.01,0.06,-0.11,0.15,0.97,
0.154,-0.10,-0.01,0.06,-0.11,0.15,0.97,
0.155,-0.09,-0.02,0.06,-0.11,0.15,0.97,
0.157,-0.09,-0.02,0.06,-0.11,0.15,0.97,
0.159,-0.09,-0.02,0.06,-0.11,0.15,0.97,
0.159,-0.07,-0.04,0.06,-0.11,0.15,0.97,
0.162,-0.07,-0.04,0.06,-0.11,0.15,0.97,
0.17,-0.07,-0.04,0.06,-0.11,0.15,0.97,
0.171,-0.07,-0.07,0.06,-0.11,0.15,0.97,
0.171,-0.07,-0.07,0.06,-0.11,0.15,0.97,
0.171,-0.07,-0.07,0.06,-0.11,0.15,0.97,
0.171,-0.07,-0.09,0.05,-0.11,0.15,0.97,
0.172,-0.07,-0.09,0.05,-0.11,0.15,0.97,
0.174,-0.07,-0.09,0.05,-0.11,0.15,0.97,
0.174,-0.08,-0.07,0.05,-0.11,0.15,0.97,
0.176,-0.08,-0.07,0.05,-0.11,0.15,0.97,
0.18,-0.08,-0.07,0.05,-0.11,0.15,0.97,
0.18,-0.08,-0.06,0.03,-0.11,0.15,0.97,
0.181,-0.08,-0.06,0.03,-0.11,0.15,0.96,
0.184,-0.08,-0.06,0.03,-0.11,0.15,0.96,
0.184,-0.06,-0.07,0.01,-0.11,0.15,0.96,
0.186,-0.06,-0.07,0.01,-0.11,0.15,0.96,
0.189,-0.06,-0.07,0.01,-0.11,0.15,0.96,
0.189,-0.04,-0.09,-0.03,-0.11,0.15,0.96,
0.191,-0.04,-0.09,-0.03,-0.11,0.15,0.96,
0.193,-0.04,-0.09,-0.03,-0.10,0.15,0.96,
0.194,-0.04,-0.08,-0.06,-0.10,0.15,0.96,
0.196,-0.04,-0.08,-0.06,-0.10,0.15,0.95,
0.198,-0.04,-0.08,-0.06,-0.10,0.15,0.95,
0.198,-0.03,-0.09,-0.08,-0.10,0.15,0.95,
0.201,-0.03,-0.09,-0.08,-0.10,0.15,0.95,
0.203,-0.03,-0.09,-0.08,-0.10,0.15,0.95,
0.203,-0.01,-0.06,-0.13,-0.10,0.15,0.95,
0.206,-0.01,-0.06,-0.13,-0.10,0.15,0.95,
0.208,-0.01,-0.06,-0.13,-0.10,0.15,0.94,
0.209,-0.02,-0.05,-0.16,-0.10,0.15,0.94,
0.211,-0.02,-0.05,-0.16,-0.10,0.16,0.94,
0.214,-0.02,-0.05,-0.16,-0.10,0.16,0.95,
0.214,-0.01,-0.05,-0.19,-0.10,0.16,0.95,
0.216,-0.01,-0.05,-0.19,-0.10,0.16,0.94,
0.218,-0.01,-0.05,-0.19,-0.10,0.16,0.94,
0.218,-0.00,-0.03,-0.20,-0.10,0.16,0.94,
0.22,-0.00,-0.03,-0.20,-0.10,0.15,0.95,
0.223,-0.00,-0.03,-0.20,-0.10,0.16,0.94,
0.223,0.00,-0.03,-0.21,-0.10,0.16,0.94,
0.225,0.00,-0.03,-0.21,-0.10,0.16,0.94,
0.228,0.00,-0.03,-0.21,-0.10,0.16,0.94,
0.228,0.00,-0.04,-0.20,-0.10,0.16,0.94,
0.23,0.00,-0.04,-0.20,-0.10,0.16,0.94,
0.233,0.00,-0.04,-0.20,-0.10,0.16,0.94,
0.233,0.03,-0.03,-0.22,-0.10,0.16,0.94,
0.235,0.03,-0.03,-0.22,-0.10,0.16,0.95,
0.238,0.03,-0.03,-0.22,-0.10,0.16,0.95,
0.238,0.03,-0.02,-0.21,-0.10,0.16,0.95,
0.24,0.03,-0.02,-0.21,-0.10,0.16,0.95,
0.242,0.03,-0.02,-0.21,-0.10,0.16,0.95,
0.243,0.03,-0.02,-0.19,-0.10,0.16,0.95,
0.245,0.03,-0.02,-0.19,-0.10,0.16,0.95,
0.248,0.03,-0.02,-0.19,-0.10,0.16,0.95,
0.248,0.03,-0.00,-0.16,-0.10,0.16,0.95,
0.25,0.03,-0.00,-0.16,-0.10,0.16,0.95,
0.252,0.03,-0.00,-0.16,-0.10,0.16,0.95,
0.252,0.04,-0.01,-0.14,-0.10,0.16,0.95,
0.255,0.04,-0.01,-0.14,-0.10,0.16,0.95,
0.257,0.04,-0.01,-0.14,-0.09,0.16,0.96,
0.257,0.04,-0.01,-0.12,-0.09,0.16,0.96,
0.26,0.04,-0.01,-0.12,-0.09,0.16,0.96,
0.266,0.04,-0.01,-0.12,-0.09,0.16,0.96,
0.266,0.05,-0.02,-0.10,-0.09,0.16,0.96,
0.266,0.05,-0.02,-0.10,-0.09,0.15,0.96,
0.267,0.05,-0.02,-0.10,-0.09,0.15,0.96,
0.267,0.06,-0.02,-0.08,-0.09,0.15,0.96,
0.269,0.06,-0.02,-0.08,-0.09,0.16,0.96,
0.272,0.06,-0.02,-0.08,-0.09,0.16,0.96,
0.272,0.05,-0.05,-0.06,-0.09,0.16,0.96,
0.274,0.05,-0.05,-0.06,-0.09,0.16,0.96,
0.277,0.05,-0.05,-0.06,-0.10,0.16,0.96,
0.277,0.08,-0.03,-0.07,-0.10,0.16,0.96,
0.279,0.08,-0.03,-0.07,-0.10,0.16,0.96,
0.282,0.08,-0.03,-0.07,-0.10,0.16,0.96,
0.282,0.06,-0.01,-0.06,-0.10,0.16,0.96,
0.284,0.06,-0.01,-0.06,-0.10,0.16,0.96,
0.287,0.06,-0.01,-0.06,-0.10,0.16,0.96,
0.287,0.04,-0.01,-0.04,-0.10,0.16,0.96,
0.289,0.04,-0.01,-0.04,-0.10,0.16,0.96,
0.291,0.04,-0.01,-0.04,-0.10,0.16,0.96,
0.292,0.04,-0.02,-0.06,-0.10,0.16,0.96,
0.294,0.04,-0.02,-0.06,-0.10,0.16,0.96,
0.297,0.03,-0.03,-0.05,-0.10,0.16,0.96,
0.297,0.03,-0.03,-0.05,-0.10,0.15,0.95,
0.299,0.03,-0.03,-0.05,-0.10,0.15,0.95,
0.301,0.03,-0.03,-0.05,-0.10,0.15,0.95,
0.302,0.02,-0.05,-0.09,-0.10,0.15,0.95,
0.304,0.02,-0.05,-0.09,-0.10,0.15,0.95,
0.306,0.02,-0.05,-0.09,-0.10,0.15,0.95,
0.306,-0.00,-0.07,-0.12,-0.10,0.15,0.95,
0.308,-0.00,-0.07,-0.12,-0.10,0.15,0.95,
0.311,-0.00,-0.07,-0.12,-0.10,0.15,0.95,
0.311,-0.00,-0.07,-0.13,-0.10,0.15,0.95,
0.314,-0.00,-0.07,-0.13,-0.11,0.15,0.95,
0.316,-0.00,-0.07,-0.13,-0.11,0.15,0.95,
0.316,-0.02,-0.07,-0.14,-0.11,0.15,0.95,
0.319,-0.02,-0.07,-0.14,-0.11,0.15,0.95,
0.321,-0.02,-0.07,-0.14,-0.11,0.15,0.95,
0.321,-0.08,-0.07,-0.14,-0.11,0.15,0.95,
0.323,-0.08,-0.07,-0.14,-0.11,0.15,0.95,
0.326,-0.08,-0.07,-0.14,-0.11,0.15,0.95,
0.326,-0.12,-0.09,-0.15,-0.11,0.15,0.95,
0.328,-0.12,-0.09,-0.15,-0.11,0.15,0.95,
0.331,-0.12,-0.09,-0.15,-0.11,0.14,0.95,
0.332,-0.12,-0.10,-0.14,-0.11,0.14,0.95,
0.334,-0.12,-0.10,-0.14,-0.11,0.14,0.95,
0.336,-0.12,-0.10,-0.14,-0.12,0.14,0.95,
0.336,-0.14,-0.15,-0.13,-0.12,0.14,0.95,
0.338,-0.14,-0.15,-0.13,-0.12,0.14,0.95,
0.34,-0.14,-0.15,-0.13,-0.11,0.14,0.95,
0.341,-0.16,-0.18,-0.13,-0.11,0.14,0.95,
0.343,-0.16,-0.18,-0.13,-0.12,0.14,0.95,
0.346,-0.16,-0.18,-0.13,-0.12,0.14,0.95,
0.346,-0.16,-0.17,-0.12,-0.12,0.14,0.95,
0.348,-0.16,-0.17,-0.12,-0.12,0.14,0.96,
0.35,-0.16,-0.17,-0.12,-0.13,0.14,0.96,
0.35,-0.20,-0.18,-0.09,-0.13,0.14,0.96,
0.353,-0.20,-0.18,-0.09,-0.13,0.14,0.96,
0.355,-0.20,-0.18,-0.09,-0.13,0.14,0.96,
0.355,-0.25,-0.17,-0.07,-0.13,0.14,0.96,
0.357,-0.25,-0.17,-0.07,-0.13,0.14,0.96,
0.36,-0.25,-0.17,-0.07,-0.13,0.14,0.96,
0.36,-0.31,-0.17,-0.03,-0.13,0.14,0.96,
0.363,-0.31,-0.17,-0.03,-0.14,0.14,0.96,
0.365,-0.31,-0.17,-0.03,-0.14,0.14,0.96,
0.365,-0.34,-0.17,-0.04,-0.14,0.14,0.96,
0.368,-0.34,-0.17,-0.04,-0.14,0.15,0.96,
0.37,-0.34,-0.17,-0.04,-0.14,0.15,0.96,
0.37,-0.38,-0.15,-0.03,-0.14,0.15,0.96,
0.372,-0.38,-0.15,-0.03,-0.14,0.15,0.96,
0.375,-0.38,-0.15,-0.03,-0.14,0.15,0.96,
0.375,-0.38,-0.13,-0.02,-0.14,0.15,0.96,
0.377,-0.38,-0.13,-0.02,-0.14,0.15,0.96,
0.386,-0.38,-0.13,-0.02,-0.14,0.15,0.96,
0.387,-0.38,-0.11,-0.01,-0.14,0.15,0.96,
0.387,-0.38,-0.11,-0.01,-0.13,0.15,0.96,
0.387,-0.38,-0.11,-0.01,-0.14,0.15,0.96,
0.387,-0.38,-0.09,-0.03,-0.14,0.15,0.96,
0.387,-0.38,-0.09,-0.03,-0.13,0.16,0.96,
0.389,-0.38,-0.09,-0.03,-0.13,0.16,0.96,
0.39,-0.36,-0.08,-0.03,-0.13,0.16,0.96,
0.392,-0.36,-0.08,-0.03,-0.13,0.16,0.96,
0.394,-0.36,-0.08,-0.03,-0.13,0.16,0.96,
0.394,-0.35,-0.04,-0.02,-0.13,0.16,0.96,
0.397,-0.35,-0.04,-0.02,-0.13,0.16,0.96,
0.399,-0.35,-0.04,-0.02,-0.13,0.16,0.96,
0.399,-0.32,-0.01,-0.02,-0.13,0.16,0.96,
0.402,-0.32,-0.01,-0.02,-0.13,0.17,0.96,
0.404,-0.32,-0.01,-0.02,-0.13,0.17,0.96,
0.404,-0.31,0.00,-0.02,-0.13,0.17,0.96,
0.407,-0.31,0.00,-0.02,-0.13,0.17,0.96,
0.409,-0.31,0.00,-0.02,-0.13,0.17,0.96,
0.409,-0.32,0.06,-0.02,-0.13,0.17,0.96,
0.412,-0.32,0.06,-0.02,-0.13,0.17,0.96,
0.414,-0.32,0.06,-0.02,-0.14,0.17,0.96,
0.414,-0.35,0.08,-0.02,-0.14,0.17,0.96,
0.416,-0.35,0.08,-0.02,-0.14,0.17,0.96,
0.419,-0.35,0.08,-0.02,-0.14,0.17,0.96,
0.419,-0.37,0.09,-0.03,-0.14,0.17,0.96,
0.421,-0.37,0.09,-0.03,-0.14,0.17,0.96,
0.424,-0.37,0.09,-0.03,-0.14,0.17,0.96,
0.424,-0.42,0.10,-0.05,-0.14,0.17,0.96,
0.426,-0.42,0.10,-0.05,-0.14,0.17,0.95,
0.429,-0.42,0.10,-0.05,-0.15,0.17,0.95,
0.429,-0.45,0.08,-0.06,-0.15,0.17,0.95,
0.431,-0.45,0.08,-0.06,-0.15,0.17,0.95,
0.433,-0.45,0.08,-0.06,-0.15,0.17,0.95,
0.434,-0.48,0.04,-0.08,-0.15,0.17,0.95,
0.436,-0.48,0.04,-0.08,-0.16,0.17,0.95,
0.438,-0.48,0.04,-0.08,-0.16,0.17,0.95,
0.438,-0.55,0.03,-0.10,-0.16,0.17,0.95,
0.441,-0.55,0.03,-0.10,-0.16,0.17,0.95,
0.443,-0.55,0.03,-0.10,-0.16,0.17,0.95,
0.443,-0.59,0.03,-0.13,-0.16,0.17,0.95,
0.446,-0.59,0.03,-0.13,-0.17,0.16,0.95,
0.449,-0.64,0.01,-0.14,-0.17,0.16,0.95,
0.449,-0.64,0.01,-0.14,-0.17,0.16,0.95,
0.451,-0.64,0.01,-0.14,-0.17,0.16,0.95,
0.453,-0.64,0.01,-0.14,-0.17,0.16,0.95,
0.454,-0.68,-0.01,-0.13,-0.17,0.16,0.95,
0.455,-0.68,-0.01,-0.13,-0.17,0.16,0.95,
0.458,-0.68,-0.01,-0.13,-0.17,0.16,0.95,
0.458,-0.70,-0.03,-0.13,-0.17,0.16,0.95,
0.46,-0.70,-0.03,-0.13,-0.17,0.17,0.95,
0.466,-0.70,-0.03,-0.13,-0.17,0.17,0.96,
0.466,-0.73,-0.01,-0.11,-0.17,0.17,0.96,
0.466,-0.73,-0.01,-0.11,-0.18,0.17,0.96,
0.468,-0.73,-0.01,-0.11,-0.18,0.16,0.96,
0.468,-0.75,-0.00,-0.08,-0.18,0.16,0.96,
0.47,-0.75,-0.00,-0.08,-0.17,0.16,0.96,
0.473,-0.75,-0.00,-0.08,-0.17,0.16,0.97,
0.473,-0.76,-0.00,-0.04,-0.17,0.16,0.97,
0.475,-0.76,-0.00,-0.04,-0.17,0.16,0.97,
0.478,-0.76,-0.00,-0.04,-0.17,0.16,0.97,
0.478,-0.73,-0.01,0.02,-0.17,0.16,0.97,
0.48,-0.73,-0.01,0.02,-0.17,0.16,0.97,
0.482,-0.73,-0.01,0.02,-0.17,0.16,0.98,
0.483,-0.73,-0.02,0.08,-0.17,0.16,0.98,
0.485,-0.73,-0.02,0.08,-0.17,0.16,0.98,
0.488,-0.73,-0.02,0.08,-0.17,0.16,0.99,
0.488,-0.73,-0.03,0.14,-0.17,0.16,0.99,
0.49,-0.73,-0.03,0.14,-0.17,0.16,0.99,
0.492,-0.73,-0.03,0.14,-0.17,0.16,0.99,
0.492,-0.72,-0.05,0.21,-0.17,0.16,0.99,
0.495,-0.72,-0.05,0.21,-0.17,0.15,0.99,
0.497,-0.72,-0.05,0.21,-0.18,0.15,0.99,
0.497,-0.72,-0.08,0.25,-0.18,0.15,0.99,
0.5,-0.72,-0.08,0.25,-0.17,0.15,0.99,
0.502,-0.72,-0.08,0.25,-0.18,0.15,0.99,
0.503,-0.74,-0.11,0.29,-0.18,0.15,0.99,
0.505,-0.74,-0.11,0.29,-0.18,0.15,0.99,
0.507,-0.74,-0.11,0.29,-0.18,0.15,1.00,
0.507,-0.75,-0.13,0.30,-0.18,0.15,1.00,
0.509,-0.75,-0.13,0.30,-0.18,0.14,1.00,
0.512,-0.75,-0.13,0.30,-0.18,0.14,1.00,
0.513,-0.76,-0.17,0.30,-0.18,0.14,1.00,
0.514,-0.76,-0.17,0.30,-0.19,0.14,1.00,
0.517,-0.76,-0.17,0.30,-0.19,0.14,0.99,
0.518,-0.79,-0.22,0.32,-0.19,0.14,0.99,
0.52,-0.79,-0.22,0.32,-0.19,0.14,0.99,
0.522,-0.79,-0.22,0.32,-0.19,0.14,0.99,
0.522,-0.86,-0.24,0.29,-0.19,0.14,0.99,
0.524,-0.86,-0.24,0.29,-0.19,0.14,0.99,
0.527,-0.86,-0.24,0.29,-0.19,0.14,0.99,
0.527,-0.89,-0.24,0.26,-0.19,0.14,0.99,
0.532,-0.89,-0.24,0.26,-0.20,0.14,0.99,
0.532,-0.89,-0.24,0.26,-0.20,0.14,0.98,
0.533,-0.90,-0.23,0.24,-0.20,0.14,0.98,
0.534,-0.90,-0.23,0.24,-0.20,0.14,0.98,
0.537,-0.90,-0.23,0.24,-0.20,0.14,0.98,
0.537,-0.92,-0.23,0.20,-0.20,0.14,0.98,
0.539,-0.92,-0.23,0.20,-0.20,0.14,0.98,
0.541,-0.92,-0.23,0.20,-0.20,0.14,0.97,
0.542,-0.93,-0.23,0.16,-0.20,0.14,0.97,
0.544,-0.93,-0.23,0.16,-0.20,0.14,0.97,
0.547,-0.93,-0.23,0.16,-0.20,0.14,0.97,
0.547,-0.91,-0.25,0.11,-0.20,0.14,0.97,
0.549,-0.91,-0.25,0.11,-0.19,0.14,0.97,
0.551,-0.91,-0.25,0.11,-0.20,0.14,0.97,
0.552,-0.89,-0.27,0.06,-0.20,0.14,0.97,
0.554,-0.89,-0.27,0.06,-0.20,0.14,0.96,
0.556,-0.89,-0.27,0.06,-0.19,0.14,0.96,
0.557,-0.88,-0.28,0.01,-0.19,0.14,0.96,
0.559,-0.88,-0.28,0.01,-0.19,0.14,0.96,
0.561,-0.88,-0.28,0.01,-0.19,0.14,0.96,
0.564,-0.86,-0.29,-0.00,-0.19,0.14,0.96,
0.564,-0.86,-0.29,-0.00,-0.19,0.14,0.96,
0.571,-0.86,-0.29,-0.00,-0.19,0.13,0.96,
0.571,-0.83,-0.30,-0.01,-0.19,0.13,0.96,
0.572,-0.83,-0.30,-0.01,-0.18,0.13,0.96,
0.572,-0.83,-0.30,-0.01,-0.18,0.13,0.96,
0.572,-0.80,-0.31,-0.03,-0.18,0.13,0.96,
0.573,-0.80,-0.31,-0.03,-0.18,0.13,0.96,
0.576,-0.80,-0.31,-0.03,-0.18,0.13,0.96,
0.576,-0.74,-0.35,-0.03,-0.18,0.13,0.96,
0.584,-0.74,-0.35,-0.03,-0.18,0.13,0.96,
0.584,-0.74,-0.35,-0.03,-0.17,0.13,0.97,
0.584,-0.70,-0.34,-0.01,-0.17,0.13,0.97,
0.584,-0.70,-0.34,-0.01,-0.17,0.13,0.97,
0.585,-0.70,-0.34,-0.01,-0.17,0.13,0.97,
0.585,-0.65,-0.37,0.03,-0.17,0.13,0.97,
0.588,-0.65,-0.37,0.03,-0.17,0.12,0.98,
0.59,-0.65,-0.37,0.03,-0.16,0.12,0.98,
0.59,-0.60,-0.38,0.08,-0.16,0.12,0.98,
0.592,-0.60,-0.38,0.08,-0.17,0.13,0.98,
0.595,-0.60,-0.38,0.08,-0.17,0.13,0.98,
0.596,-0.56,-0.42,0.14,-0.17,0.13,0.98,
0.597,-0.56,-0.42,0.14,-0.17,0.13,0.98,
0.6,-0.56,-0.42,0.14,-0.17,0.13,0.98,
0.6,-0.58,-0.40,0.16,-0.17,0.13,0.98,
0.602,-0.58,-0.40,0.16,-0.17,0.13,0.98,
0.605,-0.58,-0.40,0.16,-0.17,0.13,0.98,
0.605,-0.62,-0.38,0.18,-0.17,0.13,0.98,
0.607,-0.62,-0.38,0.18,-0.17,0.13,0.99,
0.61,-0.62,-0.38,0.18,-0.17,0.13,0.99,
0.61,-0.61,-0.38,0.19,-0.17,0.13,0.99,
0.612,-0.61,-0.38,0.19,-0.17,0.13,0.98,
0.615,-0.61,-0.38,0.19,-0.18,0.13,0.98,
0.615,-0.63,-0.39,0.21,-0.18,0.13,0.98,
0.617,-0.63,-0.39,0.21,-0.18,0.13,0.98,
0.619,-0.63,-0.39,0.21,-0.18,0.13,0.97,
0.62,-0.66,-0.40,0.17,-0.18,0.13,0.97,
0.622,-0.66,-0.40,0.17,-0.18,0.13,0.97,
0.625,-0.66,-0.40,0.17,-0.19,0.13,0.97,
0.625,-0.69,-0.38,0.12,-0.19,0.13,0.97,
0.627,-0.69,-0.38,0.12,-0.19,0.13,0.97,
0.629,-0.69,-0.38,0.12,-0.19,0.13,0.96,
0.63,-0.75,-0.38,0.06,-0.19,0.13,0.96,
0.632,-0.75,-0.38,0.06,-0.19,0.13,0.96,
0.634,-0.75,-0.38,0.06,-0.19,0.13,0.95,
0.634,-0.77,-0.39,-0.01,-0.19,0.13,0.95,
0.637,-0.77,-0.39,-0.01,-0.19,0.13,0.95,
0.639,-0.77,-0.39,-0.01,-0.18,0.13,0.94,
0.639,-0.77,-0.42,-0.11,-0.18,0.13,0.94,
0.642,-0.77,-0.42,-0.11,-0.18,0.12,0.93,
0.644,-0.77,-0.42,-0.11,-0.18,0.12,0.93,
0.644,-0.71,-0.44,-0.21,-0.18,0.12,0.93,
0.647,-0.71,-0.44,-0.21,-0.18,0.13,0.92,
0.649,-0.71,-0.44,-0.21,-0.18,0.13,0.92,
0.649,-0.65,-0.47,-0.32,-0.18,0.13,0.92,
0.651,-0.65,-0.47,-0.32,-0.17,0.12,0.92,
0.654,-0.65,-0.47,-0.32,-0.17,0.12,0.91,
0.654,-0.62,-0.46,-0.40,-0.17,0.12,0.91,
0.656,-0.62,-0.46,-0.40,-0.17,0.13,0.91,
0.659,-0.62,-0.46,-0.40,-0.17,0.12,0.91,
0.659,-0.56,-0.48,-0.46,-0.17,0.12,0.91,
0.664,-0.56,-0.48,-0.46,-0.16,0.12,0.91,
0.665,-0.56,-0.48,-0.46,-0.16,0.12,0.90,
0.665,-0.50,-0.48,-0.52,-0.16,0.12,0.90,
0.666,-0.50,-0.48,-0.52,-0.16,0.12,0.91,
0.668,-0.50,-0.48,-0.52,-0.15,0.12,0.90,
0.669,-0.44,-0.49,-0.53,-0.15,0.12,0.90,
0.671,-0.44,-0.49,-0.53,-0.15,0.12,0.91,
0.673,-0.44,-0.49,-0.53,-0.15,0.12,0.91,
0.674,-0.36,-0.50,-0.54,-0.15,0.12,0.91,
0.676,-0.36,-0.50,-0.54,-0.14,0.11,0.91,
0.678,-0.36,-0.50,-0.54,-0.14,0.11,0.91,
0.678,-0.31,-0.54,-0.52,-0.14,0.11,0.91,
0.681,-0.31,-0.54,-0.52,-0.14,0.11,0.91,
0.683,-0.31,-0.54,-0.52,-0.14,0.11,0.91,
0.684,-0.23,-0.59,-0.50,-0.14,0.11,0.91,
0.686,-0.23,-0.59,-0.50,-0.14,0.10,0.91,
0.688,-0.23,-0.59,-0.50,-0.14,0.10,0.92,
0.688,-0.22,-0.63,-0.46,-0.14,0.10,0.92,
0.69,-0.22,-0.63,-0.46,-0.14,0.10,0.92,
0.693,-0.22,-0.63,-0.46,-0.14,0.09,0.92,
0.693,-0.19,-0.68,-0.43,-0.14,0.09,0.92,
0.695,-0.19,-0.68,-0.43,-0.14,0.09,0.92,
0.698,-0.19,-0.68,-0.43,-0.14,0.09,0.92,
0.698,-0.18,-0.72,-0.38,-0.14,0.09,0.92,
0.7,-0.18,-0.72,-0.38,-0.15,0.08,0.93,
0.703,-0.18,-0.72,-0.38,-0.15,0.08,0.93,
0.703,-0.20,-0.78,-0.34,-0.15,0.08,0.93,
0.706,-0.20,-0.78,-0.34,-0.15,0.08,0.93,
0.708,-0.20,-0.78,-0.34,-0.16,0.08,0.93,
0.708,-0.24,-0.81,-0.31,-0.16,0.08,0.93,
0.711,-0.24,-0.81,-0.31,-0.16,0.07,0.93,
0.713,-0.24,-0.81,-0.31,-0.16,0.07,0.93,
0.713,-0.29,-0.84,-0.30,-0.16,0.07,0.93,
0.715,-0.29,-0.84,-0.30,-0.16,0.07,0.93,
0.718,-0.29,-0.84,-0.30,-0.17,0.06,0.93,
0.718,-0.34,-0.90,-0.29,-0.17,0.06,0.93,
0.72,-0.34,-0.90,-0.29,-0.17,0.06,0.93,
0.722,-0.34,-0.90,-0.29,-0.18,0.05,0.93,
0.723,-0.38,-0.97,-0.28,-0.18,0.05,0.93,
0.725,-0.38,-0.97,-0.28,-0.18,0.05,0.93,
0.729,-0.38,-0.97,-0.28,-0.18,0.05,0.93,
0.729,-0.45,-1.04,-0.27,-0.18,0.05,0.93,
0.73,-0.45,-1.04,-0.27,-0.18,0.05,0.93,
0.732,-0.45,-1.04,-0.27,-0.18,0.04,0.93,
0.733,-0.49,-1.09,-0.24,-0.18,0.04,0.93,
0.735,-0.49,-1.09,-0.24,-0.18,0.04,0.93,
0.737,-0.49,-1.09,-0.24,-0.18,0.04,0.93,
0.737,-0.50,-1.11,-0.24,-0.18,0.04,0.93,
0.74,-0.50,-1.11,-0.24,-0.17,0.04,0.93,
0.742,-0.50,-1.11,-0.24,-0.17,0.04,0.93,
0.742,-0.49,-1.16,-0.24,-0.17,0.04,0.93,
0.746,-0.49,-1.16,-0.24,-0.16,0.03,0.94,
0.747,-0.49,-1.16,-0.24,-0.16,0.04,0.94,
0.748,-0.40,-1.18,-0.21,-0.16,0.04,0.94,
0.75,-0.40,-1.18,-0.21,-0.15,0.04,0.94,
0.752,-0.29,-1.18,-0.18,-0.15,0.04,0.94,
0.752,-0.29,-1.18,-0.18,-0.15,0.05,0.94,
0.754,-0.29,-1.18,-0.18,-0.14,0.06,0.95,
0.757,-0.29,-1.18,-0.18,-0.13,0.05,0.96,
0.757,-0.20,-1.07,-0.14,-0.13,0.05,0.96,
0.759,-0.20,-1.07,-0.14,-0.12,0.04,0.96,
0.763,-0.20,-1.07,-0.14,-0.10,0.04,0.96,
0.764,-0.05,-0.96,0.03,-0.10,0.04,0.96,
0.765,-0.05,-0.96,0.03,-0.08,0.04,0.95,
0.767,0.23,-1.11,0.04,-0.08,0.04,0.95,
0.767,0.23,-1.11,0.04,-0.07,0.04,0.95,
0.769,0.23,-1.11,0.04,-0.06,0.04,0.95,
0.771,0.23,-1.11,0.04,-0.05,0.05,0.95,
0.772,0.54,-1.13,-0.03,-0.05,0.05,0.95,
0.774,0.54,-1.13,-0.03,-0.05,0.06,0.95,
0.777,0.71,-1.02,-0.04,-0.05,0.06,0.95,
0.777,0.71,-1.02,-0.04,-0.04,0.06,0.95,
0.785,0.71,-1.02,-0.04,-0.03,0.07,0.95,
0.785,0.71,-1.02,-0.04,-0.02,0.07,0.95,
0.785,0.83,-0.91,-0.04,-0.02,0.07,0.95,
0.786,0.83,-0.91,-0.04,-0.02,0.07,0.95,
0.786,0.83,-0.91,-0.04,-0.01,0.07,0.94,
0.786,0.98,-0.83,-0.07,-0.01,0.07,0.94,
0.789,0.98,-0.83,-0.07,-0.01,0.07,0.94,
0.791,0.98,-0.83,-0.07,-0.00,0.08,0.94,
0.791,1.12,-0.79,-0.10,-0.00,0.08,0.94,
0.793,1.12,-0.79,-0.10,-0.00,0.08,0.93,
0.796,1.12,-0.79,-0.10,-0.00,0.09,0.93,
0.797,1.20,-0.74,-0.15,-0.00,0.09,0.93,
0.799,1.20,-0.74,-0.15,0.00,0.09,0.92,
0.801,1.20,-0.74,-0.15,-0.00,0.09,0.92,
0.801,1.23,-0.66,-0.23,-0.00,0.09,0.92,
0.803,1.23,-0.66,-0.23,-0.01,0.09,0.92,
0.806,1.23,-0.66,-0.23,-0.01,0.09,0.91,
0.806,1.23,-0.61,-0.31,-0.01,0.09,0.91,
0.808,1.23,-0.61,-0.31,-0.01,0.10,0.91,
0.812,1.23,-0.61,-0.31,-0.01,0.10,0.91,
0.812,1.18,-0.56,-0.39,-0.01,0.10,0.91,
0.813,1.18,-0.56,-0.39,-0.01,0.10,0.90,
0.816,1.18,-0.56,-0.39,-0.02,0.10,0.90,
0.816,1.13,-0.53,-0.44,-0.02,0.10,0.90,
0.818,1.13,-0.53,-0.44,-0.02,0.10,0.90,
0.821,1.13,-0.53,-0.44,-0.02,0.10,0.90,
0.821,1.10,-0.49,-0.49,-0.02,0.10,0.90,
0.823,1.10,-0.49,-0.49,-0.02,0.10,0.89,
0.825,1.10,-0.49,-0.49,-0.01,0.10,0.90,
0.826,1.07,-0.49,-0.54,-0.01,0.10,0.90,
0.828,1.07,-0.49,-0.54,-0.01,0.10,0.90,
0.831,1.07,-0.49,-0.54,-0.01,0.10,0.90,
0.831,1.09,-0.48,-0.56,-0.01,0.10,0.90,
0.833,1.09,-0.48,-0.56,-0.00,0.10,0.90,
0.835,1.09,-0.48,-0.56,-0.00,0.10,0.90,
0.835,1.16,-0.48,-0.52,-0.00,0.10,0.90,
0.837,1.16,-0.48,-0.52,0.00,0.10,0.90,
0.84,1.16,-0.48,-0.52,0.01,0.10,0.91,
0.84,1.20,-0.47,-0.49,0.01,0.10,0.91,
0.843,1.20,-0.47,-0.49,0.02,0.10,0.91,
0.845,1.20,-0.47,-0.49,0.03,0.10,0.92,
0.846,1.31,-0.42,-0.42,0.03,0.10,0.92,
0.848,1.31,-0.42,-0.42,0.04,0.10,0.92,
0.85,1.31,-0.42,-0.42,0.05,0.09,0.93,
0.85,1.48,-0.46,-0.34,0.05,0.09,0.93,
0.852,1.48,-0.46,-0.34,0.06,0.09,0.93,
0.855,1.48,-0.46,-0.34,0.06,0.09,0.93,
0.855,1.65,-0.47,-0.25,0.06,0.09,0.93,
0.857,1.65,-0.47,-0.25,0.06,0.10,0.94,
0.86,1.65,-0.47,-0.25,0.07,0.10,0.94,
0.86,1.78,-0.46,-0.17,0.07,0.10,0.94,
0.863,1.78,-0.46,-0.17,0.07,0.10,0.95,
0.865,1.78,-0.46,-0.17,0.07,0.10,0.95,
0.865,1.85,-0.40,-0.07,0.07,0.10,0.95,
0.867,1.85,-0.40,-0.07,0.07,0.11,0.96,
0.869,1.85,-0.40,-0.07,0.07,0.11,0.96,
0.87,1.88,-0.34,0.02,0.07,0.11,0.96,
0.872,1.88,-0.34,0.02,0.07,0.10,0.96,
0.874,1.88,-0.34,0.02,0.07,0.10,0.96,
0.875,1.91,-0.32,0.08,0.07,0.10,0.96,
0.877,1.91,-0.32,0.08,0.07,0.10,0.96,
0.884,1.91,-0.32,0.08,0.07,0.10,0.96,
0.885,1.93,-0.34,0.10,0.07,0.10,0.96,
0.885,1.93,-0.34,0.10,0.07,0.10,0.96,
0.885,1.93,-0.34,0.10,0.06,0.10,0.95,
0.885,1.90,-0.37,0.11,0.06,0.10,0.95,
0.886,1.90,-0.37,0.11,0.06,0.09,0.95,
0.889,1.90,-0.37,0.11,0.05,0.09,0.95,
0.889,1.84,-0.39,0.06,0.05,0.09,0.95,
0.891,1.84,-0.39,0.06,0.04,0.09,0.94,
0.894,1.84,-0.39,0.06,0.03,0.09,0.93,
0.895,1.73,-0.42,-0.02,0.03,0.09,0.93,
0.897,1.73,-0.42,-0.02,0.03,0.08,0.93,
0.899,1.73,-0.42,-0.02,0.02,0.08,0.92,
0.899,1.59,-0.47,-0.13,0.02,0.08,0.92,
0.901,1.59,-0.47,-0.13,0.02,0.08,0.92,
0.904,1.59,-0.47,-0.13,0.02,0.08,0.91,
0.904,1.49,-0.52,-0.24,0.02,0.08,0.91,
0.906,1.49,-0.52,-0.24,0.01,0.08,0.90,
0.908,1.49,-0.52,-0.24,0.00,0.08,0.90,
0.909,1.41,-0.57,-0.36,0.00,0.08,0.90,
0.911,1.41,-0.57,-0.36,0.00,0.07,0.89,
0.913,1.41,-0.57,-0.36,0.00,0.08,0.89,
0.914,1.31,-0.56,-0.50,0.00,0.08,0.89,
0.916,1.31,-0.56,-0.50,0.00,0.08,0.89,
0.918,1.31,-0.56,-0.50,0.01,0.08,0.89,
0.919,1.25,-0.59,-0.58,0.01,0.08,0.89,
0.921,1.25,-0.59,-0.58,0.01,0.09,0.89,
0.923,1.25,-0.59,-0.58,0.02,0.09,0.89,
0.923,1.29,-0.53,-0.60,0.02,0.09,0.89,
0.926,1.29,-0.53,-0.60,0.02,0.10,0.90,
0.929,1.39,-0.45,-0.56,0.02,0.10,0.90,
0.93,1.39,-0.45,-0.56,0.03,0.10,0.90,
0.931,1.39,-0.45,-0.56,0.04,0.10,0.91,
0.934,1.39,-0.45,-0.56,0.05,0.11,0.91,
0.934,1.48,-0.33,-0.48,0.05,0.11,0.91,
0.936,1.48,-0.33,-0.48,0.06,0.11,0.92,
0.938,1.48,-0.33,-0.48,0.07,0.11,0.92,
0.938,1.67,-0.27,-0.40,0.07,0.11,0.92,
0.94,1.67,-0.27,-0.40,0.08,0.12,0.93,
0.943,1.67,-0.27,-0.40,0.09,0.13,0.94,
0.943,1.86,-0.20,-0.29,0.09,0.13,0.94,
0.945,1.86,-0.20,-0.29,0.10,0.13,0.94,
0.948,1.86,-0.20,-0.29,0.10,0.14,0.94,
0.948,2.00,-0.09,-0.16,0.10,0.14,0.94,
0.95,2.00,-0.09,-0.16,0.11,0.14,0.95,
0.952,2.00,-0.09,-0.16,0.12,0.14,0.96,
0.953,2.12,0.03,-0.07,0.12,0.14,0.96,
0.955,2.12,0.03,-0.07,0.12,0.14,0.96,
0.958,2.12,0.03,-0.07,0.13,0.14,0.97,
0.958,2.25,0.10,0.02,0.13,0.14,0.97,
0.961,2.25,0.10,0.02,0.13,0.14,0.97,
0.968,2.25,0.10,0.02,0.13,0.15,0.97,
0.968,2.34,0.14,0.12,0.13,0.15,0.97,
0.969,2.34,0.14,0.12,0.13,0.14,0.97,
0.969,2.34,0.14,0.12,0.13,0.14,0.97,
0.969,2.36,0.16,0.18,0.13,0.14,0.97,
0.97,2.36,0.16,0.18,0.12,0.14,0.97,
0.972,2.36,0.16,0.18,0.12,0.15,0.97,
0.972,2.35,0.16,0.18,0.12,0.15,0.97,
0.975,2.35,0.16,0.18,0.11,0.15,0.96,
0.977,2.35,0.16,0.18,0.10,0.15,0.96,
0.978,2.23,0.17,0.15,0.10,0.15,0.96,
0.98,2.23,0.17,0.15,0.10,0.14,0.96,
0.982,2.23,0.17,0.15,0.09,0.14,0.95,
0.982,2.08,0.18,0.10,0.09,0.14,0.95,
0.985,2.08,0.18,0.10,0.09,0.14,0.95,
0.987,2.08,0.18,0.10,0.08,0.14,0.94,
0.987,1.96,0.15,0.03,0.08,0.14,0.94,
0.989,1.96,0.15,0.03,0.08,0.13,0.93,
0.992,1.83,0.10,-0.08,0.08,0.13,0.93,
0.992,1.83,0.10,-0.08,0.08,0.13,0.93,
0.994,1.83,0.10,-0.08,0.08,0.13,0.92,
0.997,1.83,0.10,-0.08,0.08,0.13,0.92,
0.997,1.78,0.04,-0.23,0.08,0.13,0.92,
0.999,1.78,0.04,-0.23,0.08,0.13,0.92,
1.002,1.78,0.04,-0.23,0.08,0.13,0.92,
1.002,1.76,-0.00,-0.32,0.08,0.13,0.92,
1.004,1.76,-0.00,-0.32,0.09,0.13,0.92,
1.007,1.76,-0.00,-0.32,0.09,0.14,0.92,
1.007,1.78,0.02,-0.36,0.09,0.14,0.92,
1.009,1.78,0.02,-0.36,0.10,0.14,0.92,
1.012,1.78,0.02,-0.36,0.10,0.14,0.92,
1.012,1.81,0.08,-0.35,0.10,0.14,0.92,
1.014,1.81,0.08,-0.35,0.11,0.15,0.92,
1.017,1.81,0.08,-0.35,0.12,0.15,0.92,
1.017,1.91,0.17,-0.33,0.12,0.15,0.92,
1.019,1.91,0.17,-0.33,0.13,0.16,0.93,
1.021,1.91,0.17,-0.33,0.14,0.16,0.93,
1.021,2.05,0.25,-0.30,0.14,0.16,0.93,
1.024,2.05,0.25,-0.30,0.15,0.17,0.94,
1.026,2.05,0.25,-0.30,0.16,0.17,0.94,
1.026,2.22,0.36,-0.24,0.16,0.17,0.94,
1.029,2.22,0.36,-0.24,0.17,0.18,0.95,
1.031,2.22,0.36,-0.24,0.17,0.18,0.95,
1.031,2.37,0.46,-0.15,0.17,0.18,0.95,
1.033,2.37,0.46,-0.15,0.18,0.19,0.95,
1.036,2.37,0.46,-0.15,0.19,0.20,0.96,
1.036,2.49,0.56,-0.06,0.19,0.20,0.96,
1.038,2.49,0.56,-0.06,0.19,0.21,0.96,
1.041,2.49,0.56,-0.06,0.20,0.22,0.97,
1.041,2.59,0.71,0.01,0.20,0.22,0.97,
1.043,2.59,0.71,0.01,0.21,0.22,0.97,
1.046,2.59,0.71,0.01,0.21,0.23,0.98,
1.046,2.71,0.88,0.11,0.21,0.23,0.98,
1.049,2.71,0.88,0.11,0.22,0.23,0.98,
1.051,2.71,0.88,0.11,0.23,0.24,0.98,
1.053,2.81,1.01,0.19,0.23,0.24,0.98,
1.054,2.81,1.01,0.19,0.23,0.24,0.98,
1.056,2.81,1.01,0.19,0.24,0.25,0.98,
1.056,2.92,1.13,0.22,0.24,0.25,0.98,
1.058,2.92,1.13,0.22,0.24,0.26,0.98,
1.067,2.92,1.13,0.22,0.24,0.26,0.98,
1.068,2.97,1.25,0.25,0.24,0.26,0.98,
1.068,2.97,1.25,0.25,0.24,0.27,0.98,
1.068,2.97,1.25,0.25,0.24,0.27,0.98,
1.069,2.98,1.36,0.23,0.24,0.27,0.98,
1.069,2.98,1.36,0.23,0.23,0.28,0.98,
1.07,2.98,1.36,0.23,0.23,0.28,0.98,
1.071,2.96,1.47,0.24,0.23,0.28,0.98,
1.073,2.96,1.47,0.24,0.23,0.28,0.98,
1.075,2.96,1.47,0.24,0.23,0.28,0.98,
1.075,2.89,1.54,0.23,0.23,0.28,0.98,
1.078,2.89,1.54,0.23,0.23,0.28,0.98,
1.08,2.83,1.55,0.21,0.23,0.28,0.98,
1.08,2.83,1.55,0.21,0.23,0.27,0.98,
1.082,2.83,1.55,0.21,0.23,0.26,0.97,
1.085,2.83,1.55,0.21,0.23,0.26,0.97,
1.085,2.80,1.52,0.19,0.23,0.26,0.97,
1.088,2.80,1.52,0.19,0.23,0.25,0.97,
1.09,2.80,1.52,0.19,0.23,0.24,0.96,
1.09,2.78,1.40,0.13,0.23,0.24,0.96,
1.092,2.78,1.40,0.13,0.23,0.24,0.96,
1.095,2.78,1.40,0.13,0.23,0.23,0.96,
1.095,2.77,1.26,0.09,0.23,0.23,0.96,
1.097,2.77,1.26,0.09,0.22,0.22,0.96,
1.1,2.77,1.26,0.09,0.22,0.21,0.96,
1.1,2.74,1.12,0.04,0.22,0.21,0.96,
1.102,2.74,1.12,0.04,0.22,0.20,0.96,
1.105,2.74,1.12,0.04,0.22,0.20,0.96,
1.105,2.70,0.96,0.03,0.22,0.20,0.96,
1.107,2.70,0.96,0.03,0.22,0.20,0.96,
1.109,2.70,0.96,0.03,0.22,0.19,0.96,
1.11,2.66,0.83,0.02,0.22,0.19,0.96,
1.112,2.66,0.83,0.02,0.22,0.19,0.96,
1.114,2.66,0.83,0.02,0.22,0.19,0.97,
1.115,2.60,0.77,0.03,0.22,0.19,0.97,
1.117,2.60,0.77,0.03,0.22,0.19,0.97,
1.119,2.60,0.77,0.03,0.22,0.18,0.97,
1.119,2.54,0.72,0.05,0.22,0.18,0.97,
1.122,2.54,0.72,0.05,0.22,0.19,0.98,
1.124,2.54,0.72,0.05,0.22,0.19,0.98,
1.125,2.50,0.69,0.12,0.22,0.19,0.98,
1.127,2.50,0.69,0.12,0.22,0.19,0.98,
1.129,2.48,0.72,0.20,0.22,0.19,0.98,
1.13,2.48,0.72,0.20,0.22,0.19,0.99,
1.132,2.48,0.72,0.20,0.22,0.20,0.99,
1.134,2.48,0.72,0.20,0.22,0.21,1.00,
1.134,2.47,0.76,0.28,0.22,0.21,1.00,
1.136,2.47,0.76,0.28,0.22,0.21,1.00,
1.139,2.47,0.76,0.28,0.23,0.22,1.01,
1.139,2.45,0.89,0.37,0.23,0.22,1.01,
1.141,2.45,0.89,0.37,0.23,0.22,1.01,
1.145,2.45,0.89,0.37,0.23,0.23,1.01,
1.146,2.47,1.03,0.44,0.23,0.23,1.01,
1.146,2.47,1.03,0.44,0.24,0.23,1.01,
1.149,2.47,1.03,0.44,0.24,0.23,1.02,
1.149,2.50,1.14,0.51,0.24,0.23,1.02,
1.151,2.50,1.14,0.51,0.24,0.23,1.02,
1.153,2.50,1.14,0.51,0.25,0.24,1.02,
1.154,2.53,1.19,0.54,0.25,0.24,1.02,
1.156,2.53,1.19,0.54,0.25,0.24,1.02,
1.158,2.53,1.19,0.54,0.25,0.24,1.02,
1.159,2.61,1.22,0.55,0.25,0.24,1.02,
1.161,2.61,1.22,0.55,0.26,0.24,1.02,
1.163,2.61,1.22,0.55,0.25,0.24,1.02,
1.164,2.63,1.27,0.55,0.25,0.24,1.02,
1.166,2.63,1.27,0.55,0.25,0.24,1.01,
1.168,2.63,1.27,0.55,0.25,0.24,1.01,
1.168,2.63,1.30,0.54,0.25,0.24,1.01,
1.17,2.63,1.30,0.54,0.25,0.23,1.01,
1.173,2.63,1.30,0.54,0.25,0.23,1.01,
1.173,2.60,1.29,0.52,0.25,0.23,1.01,
1.176,2.60,1.29,0.52,0.25,0.23,1.00,
1.183,2.60,1.29,0.52,0.25,0.22,1.00,
1.184,2.58,1.23,0.46,0.25,0.22,1.00,
1.184,2.58,1.23,0.46,0.25,0.22,0.99,
1.185,2.58,1.23,0.46,0.24,0.21,0.99,
1.185,2.53,1.17,0.38,0.24,0.21,0.99,
1.185,2.53,1.17,0.38,0.24,0.21,0.98,
1.188,2.53,1.17,0.38,0.24,0.20,0.98,
1.188,2.45,1.08,0.29,0.24,0.20,0.98,
1.19,2.45,1.08,0.29,0.24,0.19,0.97,
1.193,2.45,1.08,0.29,0.24,0.19,0.97,
1.193,2.41,0.94,0.19,0.24,0.19,0.97,
1.198,2.41,0.94,0.19,0.23,0.18,0.97,
1.198,2.41,0.94,0.19,0.22,0.17,0.96,
1.198,2.33,0.80,0.11,0.22,0.17,0.96,
1.2,2.33,0.80,0.11,0.22,0.17,0.96,
1.202,2.33,0.80,0.11,0.21,0.16,0.96,
1.202,2.22,0.67,0.05,0.21,0.16,0.96,
1.205,2.22,0.67,0.05,0.20,0.16,0.96,
1.207,2.22,0.67,0.05,0.19,0.15,0.96,
1.208,2.07,0.60,-0.01,0.19,0.15,0.96,
1.211,2.07,0.60,-0.01,0.19,0.15,0.96,
1.212,2.07,0.60,-0.01,0.18,0.15,0.97,
1.213,1.89,0.50,-0.02,0.18,0.15,0.97,
1.215,1.89,0.50,-0.02,0.18,0.14,0.97,
1.217,1.89,0.50,-0.02,0.17,0.14,0.97,
1.217,1.73,0.45,0.03,0.17,0.14,0.97,
1.219,1.73,0.45,0.03,0.17,0.13,0.98,
1.222,1.73,0.45,0.03,0.17,0.13,0.98,
1.222,1.63,0.38,0.09,0.17,0.13,0.98,
1.225,1.63,0.38,0.09,0.16,0.13,0.98,
1.227,1.63,0.38,0.09,0.16,0.12,0.99,
1.228,1.52,0.29,0.16,0.16,0.12,0.99,
1.229,1.52,0.29,0.16,0.16,0.12,0.99,
1.232,1.52,0.29,0.16,0.16,0.13,1.00,
1.232,1.45,0.25,0.24,0.16,0.13,1.00,
1.234,1.45,0.25,0.24,0.16,0.13,1.00,
1.237,1.45,0.25,0.24,0.16,0.13,1.00,
1.237,1.43,0.27,0.31,0.16,0.13,1.00,
1.239,1.43,0.27,0.31,0.16,0.13,1.01,
1.242,1.43,0.27,0.31,0.16,0.13,1.01,
1.242,1.36,0.29,0.37,0.16,0.13,1.01,
1.244,1.36,0.29,0.37,0.15,0.13,1.01,
1.247,1.36,0.29,0.37,0.15,0.13,1.01,
1.247,1.31,0.31,0.43,0.15,0.13,1.01,
1.249,1.31,0.31,0.43,0.15,0.13,1.01,
1.251,1.31,0.31,0.43,0.15,0.13,1.01,
1.252,1.26,0.36,0.49,0.15,0.13,1.01,
1.254,1.26,0.36,0.49,0.15,0.14,1.01,
1.256,1.26,0.36,0.49,0.14,0.14,1.01,
1.257,1.20,0.39,0.49,0.14,0.14,1.01,
1.259,1.20,0.39,0.49,0.14,0.14,1.01,
1.266,1.20,0.39,0.49,0.14,0.15,1.01,
1.267,1.12,0.46,0.48,0.14,0.15,1.01,
1.267,1.12,0.46,0.48,0.13,0.15,1.01,
1.268,1.12,0.46,0.48,0.13,0.15,1.00,
1.268,1.05,0.51,0.46,0.13,0.15,1.00,
1.269,1.05,0.51,0.46,0.13,0.15,1.00,
1.271,1.05,0.51,0.46,0.12,0.15,0.99,
1.271,0.95,0.55,0.41,0.12,0.15,0.99,
1.274,0.95,0.55,0.41,0.12,0.15,0.99,
1.276,0.95,0.55,0.41,0.12,0.15,0.98,
1.276,0.89,0.57,0.33,0.12,0.15,0.98,
1.281,0.89,0.57,0.33,0.11,0.14,0.98,
1.282,0.89,0.57,0.33,0.11,0.14,0.98,
1.282,0.82,0.55,0.24,0.11,0.14,0.98,
1.284,0.82,0.55,0.24,0.11,0.14,0.97,
1.286,0.82,0.55,0.24,0.10,0.14,0.97,
1.286,0.73,0.50,0.18,0.10,0.14,0.97,
1.288,0.73,0.50,0.18,0.10,0.13,0.97,
1.29,0.73,0.50,0.18,0.09,0.13,0.96,
1.291,0.65,0.46,0.08,0.09,0.13,0.96,
1.294,0.65,0.46,0.08,0.09,0.12,0.96,
1.295,0.65,0.46,0.08,0.08,0.12,0.96,
1.295,0.53,0.38,0.01,0.08,0.12,0.96,
1.298,0.53,0.38,0.01,0.07,0.12,0.96,
1.3,0.53,0.38,0.01,0.07,0.11,0.95,
1.301,0.39,0.32,-0.03,0.07,0.11,0.95,
1.303,0.39,0.32,-0.03,0.06,0.10,0.95,
1.305,0.39,0.32,-0.03,0.06,0.10,0.95,
1.305,0.24,0.23,-0.07,0.06,0.10,0.95,
1.308,0.24,0.23,-0.07,0.06,0.09,0.95,
1.311,0.24,0.23,-0.07,0.06,0.08,0.95,
1.311,0.16,0.12,-0.10,0.06,0.08,0.95,
1.313,0.16,0.12,-0.10,0.06,0.07,0.95,
1.315,0.16,0.12,-0.10,0.05,0.07,0.96,
1.315,0.09,-0.01,-0.11,0.05,0.07,0.96,
1.317,0.09,-0.01,-0.11,0.05,0.06,0.96,
1.32,0.09,-0.01,-0.11,0.05,0.06,0.96,
1.32,0.04,-0.17,-0.08,0.05,0.06,0.96,
1.322,0.04,-0.17,-0.08,0.04,0.06,0.97,
1.325,0.04,-0.17,-0.08,0.03,0.06,0.97,
1.325,-0.06,-0.26,-0.02,0.03,0.06,0.97,
1.327,-0.06,-0.26,-0.02,0.02,0.06,0.98,
1.33,-0.06,-0.26,-0.02,0.01,0.06,0.98,
1.33,-0.23,-0.28,0.06,0.01,0.06,0.98,
1.332,-0.23,-0.28,0.06,0.00,0.06,0.98,
1.335,-0.23,-0.28,0.06,-0.01,0.06,0.99,
1.335,-0.46,-0.25,0.15,-0.01,0.06,0.99,
1.337,-0.46,-0.25,0.15,-0.01,0.06,1.00,
1.339,-0.46,-0.25,0.15,-0.02,0.06,1.01,
1.34,-0.67,-0.22,0.26,-0.02,0.06,1.01,
1.342,-0.67,-0.22,0.26,-0.02,0.06,1.01,
1.345,-0.67,-0.22,0.26,-0.02,0.05,1.02,
1.346,-0.83,-0.22,0.41,-0.02,0.05,1.02,
1.347,-0.83,-0.22,0.41,-0.03,0.05,1.03,
1.349,-0.83,-0.22,0.41,-0.03,0.05,1.03,
1.35,-0.93,-0.25,0.54,-0.03,0.05,1.03,
1.352,-0.93,-0.25,0.54,-0.03,0.04,1.04,
1.354,-0.93,-0.25,0.54,-0.03,0.04,1.04,
1.354,-1.00,-0.32,0.65,-0.03,0.04,1.04,
1.357,-1.00,-0.32,0.65,-0.03,0.04,1.04,
1.359,-1.00,-0.32,0.65,-0.04,0.03,1.05,
1.359,-1.07,-0.38,0.76,-0.04,0.03,1.05,
1.369,-1.07,-0.38,0.76,-0.04,0.02,1.05,
1.37,-1.07,-0.38,0.76,-0.04,0.02,1.05,
1.37,-1.13,-0.47,0.82,-0.04,0.02,1.05,
1.371,-1.13,-0.47,0.82,-0.04,0.02,1.05,
1.371,-1.13,-0.47,0.82,-0.04,0.01,1.05,
1.371,-1.17,-0.57,0.85,-0.04,0.01,1.05,
1.371,-1.17,-0.57,0.85,-0.04,0.00,1.05,
1.374,-1.17,-0.57,0.85,-0.04,-0.00,1.05,
1.374,-1.22,-0.67,0.85,-0.04,-0.00,1.05,
1.385,-1.22,-0.67,0.85,-0.04,-0.01,1.04,
1.387,-1.22,-0.67,0.85,-0.05,-0.01,1.04,
1.388,-1.29,-0.78,0.86,-0.05,-0.01,1.04,
1.388,-1.29,-0.78,0.86,-0.06,-0.01,1.04,
1.388,-1.29,-0.78,0.86,-0.06,-0.01,1.04,
1.388,-1.37,-0.87,0.80,-0.06,-0.01,1.04,
1.388,-1.37,-0.87,0.80,-0.07,-0.02,1.04,
1.388,-1.37,-0.87,0.80,-0.07,-0.02,1.03,
1.388,-1.50,-0.92,0.76,-0.07,-0.02,1.03,
1.391,-1.50,-0.92,0.76,-0.08,-0.02,1.03,
1.393,-1.50,-0.92,0.76,-0.09,-0.02,1.03,
1.394,-1.63,-0.96,0.73,-0.09,-0.02,1.03,
1.396,-1.63,-0.96,0.73,-0.10,-0.01,1.02,
1.398,-1.63,-0.96,0.73,-0.11,-0.01,1.02,
1.398,-1.80,-0.95,0.66,-0.11,-0.01,1.02,
1.401,-1.80,-0.95,0.66,-0.11,-0.01,1.02,
1.403,-1.80,-0.95,0.66,-0.12,-0.01,1.02,
1.403,-1.99,-0.88,0.58,-0.12,-0.01,1.02,
1.406,-1.99,-0.88,0.58,-0.13,-0.00,1.02,
1.408,-1.99,-0.88,0.58,-0.13,-0.00,1.02,
1.409,-2.14,-0.84,0.57,-0.13,-0.00,1.02,
1.411,-2.14,-0.84,0.57,-0.13,-0.00,1.02,
1.414,-2.14,-0.84,0.57,-0.14,0.00,1.02,
1.414,-2.28,-0.81,0.60,-0.14,0.00,1.02,
1.416,-2.28,-0.81,0.60,-0.15,0.00,1.02,
1.418,-2.36,-0.79,0.58,-0.15,0.00,1.02,
1.418,-2.36,-0.79,0.58,-0.15,0.01,1.02,
1.42,-2.36,-0.79,0.58,-0.15,0.01,1.02,
1.423,-2.36,-0.79,0.58,-0.16,0.01,1.02,
1.423,-2.47,-0.72,0.58,-0.16,0.01,1.02,
1.426,-2.47,-0.72,0.58,-0.16,0.01,1.02,
1.428,-2.47,-0.72,0.58,-0.16,0.01,1.03,
1.428,-2.54,-0.68,0.58,-0.16,0.01,1.03,
1.43,-2.54,-0.68,0.58,-0.16,0.00,1.03,
1.433,-2.54,-0.68,0.58,-0.16,-0.00,1.03,
1.433,-2.60,-0.69,0.62,-0.16,-0.00,1.03,
1.435,-2.60,-0.69,0.62,-0.16,-0.00,1.03,
1.437,-2.60,-0.69,0.62,-0.16,-0.01,1.03,
1.438,-2.63,-0.74,0.64,-0.16,-0.01,1.03,
1.44,-2.63,-0.74,0.64,-0.16,-0.01,1.03,
1.444,-2.63,-0.74,0.64,-0.16,-0.01,1.03,
1.444,-2.63,-0.79,0.65,-0.16,-0.01,1.03,
1.446,-2.63,-0.79,0.65,-0.16,-0.01,1.03,
1.448,-2.64,-0.82,0.64,-0.16,-0.01,1.03,
1.448,-2.64,-0.82,0.64,-0.16,-0.02,1.03,
1.45,-2.64,-0.82,0.64,-0.16,-0.02,1.02,
1.452,-2.64,-0.82,0.64,-0.16,-0.02,1.02,
1.453,-2.68,-0.87,0.64,-0.16,-0.02,1.02,
1.454,-2.68,-0.87,0.64,-0.17,-0.02,1.02,
1.457,-2.68,-0.87,0.64,-0.17,-0.02,1.02,
1.457,-2.70,-0.91,0.62,-0.17,-0.02,1.02,
1.46,-2.70,-0.91,0.62,-0.17,-0.02,1.02,
1.462,-2.70,-0.91,0.62,-0.18,-0.02,1.02,
1.462,-2.73,-0.92,0.60,-0.18,-0.02,1.02,
1.465,-2.73,-0.92,0.60,-0.18,-0.02,1.02,
1.467,-2.73,-0.92,0.60,-0.18,-0.02,1.02,
1.467,-2.82,-0.93,0.60,-0.18,-0.02,1.02,
1.469,-2.82,-0.93,0.60,-0.19,-0.02,1.02,
1.472,-2.82,-0.93,0.60,-0.19,-0.02,1.02,
1.472,-2.89,-0.91,0.61,-0.19,-0.02,1.02,
1.474,-2.89,-0.91,0.61,-0.19,-0.02,1.02,
1.483,-2.89,-0.91,0.61,-0.19,-0.02,1.02,
1.483,-2.96,-0.88,0.61,-0.19,-0.02,1.02,
1.484,-2.96,-0.88,0.61,-0.19,-0.02,1.02,
1.484,-2.96,-0.88,0.61,-0.19,-0.02,1.02,
1.484,-2.98,-0.87,0.62,-0.19,-0.02,1.02,
1.484,-2.98,-0.87,0.62,-0.20,-0.02,1.02,
1.486,-2.98,-0.87,0.62,-0.20,-0.01,1.02,
1.487,-3.02,-0.84,0.63,-0.20,-0.01,1.02,
1.489,-3.02,-0.84,0.63,-0.20,-0.01,1.02,
1.491,-3.02,-0.84,0.63,-0.20,-0.00,1.02,
1.492,-3.06,-0.78,0.59,-0.20,-0.00,1.02,
1.502,-3.06,-0.78,0.59,-0.20,0.00,1.02,
1.502,-3.06,-0.78,0.59,-0.20,0.00,1.02,
1.502,-3.09,-0.70,0.57,-0.20,0.00,1.02,
1.502,-3.09,-0.70,0.57,-0.20,0.01,1.02,
1.503,-3.09,-0.70,0.57,-0.20,0.01,1.02,
1.503,-3.13,-0.62,0.56,-0.20,0.01,1.02,
1.503,-3.13,-0.62,0.56,-0.21,0.01,1.02,
1.506,-3.13,-0.62,0.56,-0.20,0.01,1.01,
1.506,-3.16,-0.57,0.55,-0.20,0.01,1.01,
1.508,-3.16,-0.57,0.55,-0.20,0.01,1.01,
1.511,-3.16,-0.57,0.55,-0.20,0.01,1.01,
1.511,-3.18,-0.55,0.55,-0.20,0.01,1.01,
1.513,-3.18,-0.55,0.55,-0.20,0.01,1.02,
1.516,-3.18,-0.55,0.55,-0.20,0.01,1.02,
1.516,-3.16,-0.54,0.53,-0.20,0.01,1.02,
1.518,-3.16,-0.54,0.53,-0.19,0.01,1.02,
1.521,-3.16,-0.54,0.53,-0.18,0.01,1.02,
1.521,-3.13,-0.51,0.55,-0.18,0.01,1.02,
1.523,-3.13,-0.51,0.55,-0.18,0.01,1.02,
1.526,-3.13,-0.51,0.55,-0.17,0.01,1.02,
1.526,-3.05,-0.50,0.56,-0.17,0.01,1.02,
1.528,-3.05,-0.50,0.56,-0.17,0.01,1.02,
1.531,-3.05,-0.50,0.56,-0.16,0.01,1.03,
1.531,-2.96,-0.51,0.59,-0.16,0.01,1.03,
1.533,-2.96,-0.51,0.59,-0.15,0.00,1.03,
1.536,-2.96,-0.51,0.59,-0.15,-0.00,1.03,
1.536,-2.85,-0.53,0.65,-0.15,-0.00,1.03,
1.538,-2.85,-0.53,0.65,-0.15,-0.00,1.04,
1.54,-2.85,-0.53,0.65,-0.14,-0.00,1.04,
1.542,-2.73,-0.58,0.71,-0.14,-0.00,1.04,
1.544,-2.73,-0.58,0.71,-0.14,-0.01,1.04,
1.545,-2.73,-0.58,0.71,-0.14,-0.01,1.04,
1.545,-2.68,-0.62,0.76,-0.14,-0.01,1.04,
1.548,-2.68,-0.62,0.76,-0.14,-0.01,1.04,
1.55,-2.68,-0.62,0.76,-0.14,-0.02,1.04,
1.55,-2.65,-0.65,0.81,-0.14,-0.02,1.04,
1.552,-2.65,-0.65,0.81,-0.14,-0.02,1.04,
1.555,-2.65,-0.65,0.81,-0.14,-0.02,1.04,
1.555,-2.66,-0.70,0.84,-0.14,-0.02,1.04,
1.558,-2.66,-0.70,0.84,-0.15,-0.02,1.04,
1.56,-2.66,-0.70,0.84,-0.15,-0.02,1.04,
1.56,-2.68,-0.74,0.82,-0.15,-0.02,1.04,
1.562,-2.68,-0.74,0.82,-0.15,-0.02,1.04,
1.565,-2.68,-0.74,0.82,-0.16,-0.02,1.03,
1.565,-2.73,-0.75,0.77,-0.16,-0.02,1.03,
1.568,-2.73,-0.75,0.77,-0.17,-0.02,1.03,
1.57,-2.73,-0.75,0.77,-0.18,-0.01,1.04,
1.57,-2.84,-0.73,0.74,-0.18,-0.01,1.04,
1.572,-2.84,-0.73,0.74,-0.20,-0.01,1.03,
1.574,-2.84,-0.73,0.74,-0.21,-0.00,1.03,
1.575,-3.02,-0.65,0.74,-0.21,-0.00,1.03,
1.582,-3.02,-0.65,0.74,-0.22,0.01,1.03,
1.582,-3.02,-0.65,0.74,-0.23,0.01,1.03,
1.583,-3.27,-0.53,0.72,-0.23,0.01,1.03,
1.583,-3.27,-0.53,0.72,-0.24,0.02,1.04,
1.584,-3.27,-0.53,0.72,-0.25,0.03,1.04,
1.585,-3.49,-0.37,0.71,-0.25,0.03,1.04,
1.587,-3.49,-0.37,0.71,-0.26,0.03,1.04,
1.589,-3.49,-0.37,0.71,-0.26,0.04,1.04,
1.589,-3.68,-0.20,0.75,-0.26,0.04,1.04,
1.592,-3.68,-0.20,0.75,-0.26,0.05,1.05,
1.596,-3.68,-0.20,0.75,-0.26,0.06,1.05,
1.597,-3.76,-0.04,0.79,-0.26,0.06,1.05,
1.597,-3.76,-0.04,0.79,-0.26,0.06,1.06,
1.599,-3.76,-0.04,0.79,-0.25,0.07,1.06,
1.599,-3.76,0.12,0.86,-0.25,0.07,1.06,
1.601,-3.76,0.12,0.86,-0.25,0.08,1.06,
1.604,-3.69,0.29,0.93,-0.25,0.08,1.06,
1.604,-3.69,0.29,0.93,-0.24,0.09,1.07,
1.606,-3.69,0.29,0.93,-0.23,0.09,1.07,
1.609,-3.69,0.29,0.93,-0.22,0.10,1.08,
1.609,-3.56,0.46,1.01,-0.22,0.10,1.08,
1.611,-3.56,0.46,1.01,-0.21,0.11,1.08,
1.615,-3.36,0.62,1.09,-0.21,0.11,1.08,
1.615,-3.36,0.62,1.09,-0.20,0.11,1.08,
1.616,-3.36,0.62,1.09,-0.19,0.12,1.08,
1.619,-3.36,0.62,1.09,-0.18,0.12,1.08,
1.619,-3.14,0.77,1.14,-0.18,0.12,1.08,
1.621,-3.14,0.77,1.14,-0.17,0.13,1.08,
1.623,-3.14,0.77,1.14,-0.16,0.14,1.08,
1.624,-2.94,0.90,1.16,-0.16,0.14,1.08,
1.626,-2.94,0.90,1.16,-0.16,0.14,1.08,
1.628,-2.94,0.90,1.16,-0.15,0.15,1.08,
1.628,-2.74,1.03,1.16,-0.15,0.15,1.08,
1.631,-2.74,1.03,1.16,-0.15,0.15,1.08,
1.633,-2.74,1.03,1.16,-0.14,0.16,1.08,
1.633,-2.59,1.15,1.14,-0.14,0.16,1.08,
1.636,-2.59,1.15,1.14,-0.13,0.16,1.07,
1.638,-2.59,1.15,1.14,-0.13,0.17,1.07,
1.638,-2.45,1.26,1.12,-0.13,0.17,1.07,
1.641,-2.45,1.26,1.12,-0.12,0.17,1.07,
1.644,-2.45,1.26,1.12,-0.12,0.17,1.07,
1.644,-2.33,1.36,1.06,-0.12,0.17,1.07,
1.646,-2.33,1.36,1.06,-0.11,0.18,1.06,
1.648,-2.33,1.36,1.06,-0.10,0.18,1.06,
1.649,-2.17,1.45,1.01,-0.10,0.18,1.06,
1.65,-2.17,1.45,1.01,-0.10,0.18,1.06,
1.653,-2.17,1.45,1.01,-0.09,0.18,1.05,
1.653,-2.02,1.52,0.94,-0.09,0.18,1.05,
1.655,-2.02,1.52,0.94,-0.09,0.18,1.05,
1.658,-2.02,1.52,0.94,-0.09,0.18,1.05,
1.658,-1.90,1.55,0.87,-0.09,0.18,1.05,
1.665,-1.90,1.55,0.87,-0.08,0.18,1.05,
1.665,-1.90,1.55,0.87,-0.08,0.18,1.05,
1.666,-1.80,1.54,0.82,-0.08,0.18,1.05,
1.666,-1.80,1.54,0.82,-0.08,0.18,1.04,
1.668,-1.80,1.54,0.82,-0.08,0.18,1.04,
1.668,-1.72,1.55,0.79,-0.08,0.18,1.04,
1.671,-1.72,1.55,0.79,-0.07,0.17,1.04,
1.672,-1.72,1.55,0.79,-0.07,0.17,1.05,
1.673,-1.67,1.52,0.76,-0.07,0.17,1.05,
1.675,-1.67,1.52,0.76,-0.07,0.17,1.05,
1.678,-1.62,1.49,0.76,-0.07,0.17,1.05,
1.678,-1.62,1.49,0.76,-0.07,0.16,1.05,
1.68,-1.62,1.49,0.76,-0.06,0.16,1.05,
1.682,-1.62,1.49,0.76,-0.06,0.16,1.06,
1.683,-1.58,1.44,0.78,-0.06,0.16,1.06,
1.685,-1.58,1.44,0.78,-0.06,0.15,1.06,
1.687,-1.58,1.44,0.78,-0.06,0.15,1.06,
1.687,-1.50,1.37,0.85,-0.06,0.15,1.06,
1.689,-1.50,1.37,0.85,-0.05,0.14,1.07,
1.693,-1.50,1.37,0.85,-0.05,0.14,1.07,
1.693,-1.46,1.31,0.92,-0.05,0.14,1.07,
1.694,-1.46,1.31,0.92,-0.05,0.14,1.08,
1.697,-1.46,1.31,0.92,-0.04,0.14,1.09,
1.697,-1.37,1.24,1.01,-0.04,0.14,1.09,
1.699,-1.37,1.24,1.01,-0.04,0.14,1.09,
1.702,-1.37,1.24,1.01,-0.03,0.14,1.09,
1.702,-1.28,1.24,1.12,-0.03,0.14,1.09,
1.705,-1.28,1.24,1.12,-0.02,0.14,1.10,
1.707,-1.28,1.24,1.12,-0.02,0.14,1.10,
1.707,-1.16,1.23,1.20,-0.02,0.14,1.10,
1.709,-1.16,1.23,1.20,-0.01,0.13,1.11,
1.712,-1.16,1.23,1.20,-0.00,0.13,1.11,
1.712,-1.00,1.24,1.28,-0.00,0.13,1.11,
1.714,-1.00,1.24,1.28,0.00,0.13,1.11,
1.716,-1.00,1.24,1.28,0.01,0.13,1.12,
1.717,-0.85,1.23,1.36,0.01,0.13,1.12,
1.719,-0.85,1.23,1.36,0.02,0.13,1.12,
1.721,-0.85,1.23,1.36,0.03,0.13,1.12,
1.722,-0.68,1.20,1.42,0.03,0.13,1.12,
1.724,-0.68,1.20,1.42,0.03,0.13,1.12,
1.726,-0.68,1.20,1.42,0.04,0.13,1.12,
1.727,-0.51,1.21,1.44,0.04,0.13,1.12,
1.729,-0.51,1.21,1.44,0.04,0.13,1.11,
1.732,-0.51,1.21,1.44,0.05,0.13,1.11,
1.732,-0.36,1.23,1.44,0.05,0.13,1.11,
1.734,-0.36,1.23,1.44,0.06,0.13,1.11,
1.736,-0.36,1.23,1.44,0.06,0.14,1.11,
1.736,-0.22,1.27,1.40,0.06,0.14,1.11,
1.739,-0.22,1.27,1.40,0.07,0.14,1.10,
1.741,-0.22,1.27,1.40,0.07,0.14,1.10,
1.742,-0.06,1.31,1.35,0.07,0.14,1.10,
1.744,-0.06,1.31,1.35,0.08,0.14,1.10,
1.746,-0.06,1.31,1.35,0.08,0.14,1.09,
1.747,0.09,1.37,1.29,0.08,0.14,1.09,
1.748,0.09,1.37,1.29,0.09,0.14,1.09,
1.751,0.09,1.37,1.29,0.09,0.15,1.08,
1.751,0.22,1.40,1.21,0.09,0.15,1.08,
1.753,0.22,1.40,1.21,0.10,0.15,1.08,
1.756,0.22,1.40,1.21,0.09,0.15,1.07,
1.756,0.37,1.43,1.11,0.09,0.15,1.07,
1.758,0.37,1.43,1.11,0.09,0.15,1.06,
1.765,0.37,1.43,1.11,0.09,0.15,1.06,
1.766,0.45,1.44,0.98,0.09,0.15,1.06,
1.766,0.45,1.44,0.98,0.09,0.14,1.05,
1.767,0.45,1.44,0.98,0.09,0.14,1.04,
1.767,0.49,1.45,0.83,0.09,0.14,1.04,
1.768,0.49,1.45,0.83,0.09,0.14,1.03,
1.77,0.49,1.45,0.83,0.08,0.14,1.03,
1.77,0.49,1.44,0.69,0.08,0.14,1.03,
1.773,0.49,1.44,0.69,0.08,0.14,1.02,
1.777,0.49,1.44,0.69,0.08,0.14,1.01,
1.777,0.47,1.42,0.54,0.08,0.14,1.01,
1.778,0.47,1.42,0.54,0.07,0.14,1.01,
1.78,0.47,1.42,0.54,0.07,0.14,1.00,
1.781,0.45,1.40,0.42,0.07,0.14,1.00,
1.783,0.45,1.40,0.42,0.07,0.14,1.00,
1.785,0.45,1.40,0.42,0.07,0.14,0.99,
1.785,0.42,1.42,0.32,0.07,0.14,0.99,
1.787,0.42,1.42,0.32,0.07,0.14,0.99,
1.79,0.42,1.42,0.32,0.07,0.14,0.99,
1.79,0.42,1.43,0.22,0.07,0.14,0.99,
1.792,0.42,1.43,0.22,0.08,0.14,0.99,
1.795,0.42,1.43,0.22,0.08,0.13,0.99,
1.795,0.48,1.41,0.17,0.08,0.13,0.99,
1.797,0.48,1.41,0.17,0.09,0.13,0.99,
1.8,0.48,1.41,0.17,0.09,0.12,0.99,
1.8,0.56,1.34,0.14,0.09,0.12,0.99,
1.802,0.56,1.34,0.14,0.10,0.12,0.98,
1.805,0.56,1.34,0.14,0.11,0.12,0.98,
1.805,0.70,1.26,0.12,0.11,0.12,0.98,
1.807,0.70,1.26,0.12,0.11,0.12,0.99,
1.81,0.70,1.26,0.12,0.12,0.11,0.99,
1.81,0.85,1.20,0.10,0.12,0.11,0.99,
1.812,0.85,1.20,0.10,0.13,0.11,0.99,
1.815,1.00,1.16,0.11,0.13,0.11,0.99,
1.815,1.00,1.16,0.11,0.14,0.12,0.99,
1.817,1.00,1.16,0.11,0.14,0.11,1.00,
1.819,1.00,1.16,0.11,0.15,0.11,1.00,
1.82,1.17,1.16,0.16,0.15,0.11,1.00,
1.822,1.17,1.16,0.16,0.15,0.11,1.00,
1.825,1.17,1.16,0.16,0.15,0.12,1.00,
1.826,1.29,1.14,0.22,0.15,0.12,1.00,
1.828,1.29,1.14,0.22,0.16,0.12,1.01,
1.829,1.29,1.14,0.22,0.16,0.12,1.01,
1.829,1.40,1.16,0.26,0.16,0.12,1.01,
1.832,1.40,1.16,0.26,0.16,0.12,1.01,
1.834,1.40,1.16,0.26,0.17,0.12,1.02,
1.834,1.48,1.18,0.33,0.17,0.12,1.02,
1.836,1.48,1.18,0.33,0.17,0.12,1.02,
1.839,1.48,1.18,0.33,0.17,0.12,1.02,
1.839,1.55,1.19,0.39,0.17,0.12,1.02,
1.842,1.55,1.19,0.39,0.18,0.12,1.02,
1.844,1.55,1.19,0.39,0.18,0.12,1.02,
1.844,1.63,1.18,0.44,0.18,0.12,1.02,
1.846,1.63,1.18,0.44,0.19,0.12,1.02,
1.849,1.63,1.18,0.44,0.20,0.12,1.02,
1.849,1.75,1.19,0.47,0.20,0.12,1.02,
1.851,1.75,1.19,0.47,0.20,0.13,1.02,
1.854,1.75,1.19,0.47,0.21,0.13,1.02,
1.854,1.86,1.21,0.46,0.21,0.13,1.02,
1.856,1.86,1.21,0.46,0.21,0.13,1.02,
1.859,1.86,1.21,0.46,0.21,0.14,1.02,
1.86,1.97,1.28,0.46,0.21,0.14,1.02,
1.861,1.97,1.28,0.46,0.22,0.14,1.02,
1.863,1.97,1.28,0.46,0.22,0.14,1.02,
1.864,2.07,1.33,0.44,0.22,0.14,1.02,
1.866,2.07,1.33,0.44,0.22,0.14,1.02,
1.868,2.07,1.33,0.44,0.23,0.15,1.02,
1.869,2.15,1.38,0.44,0.23,0.15,1.02,
1.871,2.15,1.38,0.44,0.23,0.15,1.02,
1.873,2.15,1.38,0.44,0.23,0.14,1.02,
1.874,2.23,1.41,0.44,0.23,0.14,1.02,
1.876,2.23,1.41,0.44,0.24,0.14,1.02,
1.878,2.23,1.41,0.44,0.25,0.14,1.02,
1.879,2.32,1.42,0.43,0.25,0.14,1.02,
1.881,2.32,1.42,0.43,0.26,0.14,1.01,
1.883,2.32,1.42,0.43,0.26,0.14,1.01,
1.884,2.47,1.37,0.44,0.26,0.14,1.01,
1.885,2.47,1.37,0.44,0.26,0.14,1.00,
1.888,2.47,1.37,0.44,0.26,0.14,1.00,
1.888,2.62,1.33,0.36,0.26,0.14,1.00,
1.89,2.62,1.33,0.36,0.26,0.14,1.00,
1.898,2.62,1.33,0.36,0.26,0.14,1.00,
1.899,2.64,1.37,0.27,0.26,0.14,1.00,
1.899,2.64,1.37,0.27,0.27,0.13,1.00,
1.9,2.64,1.37,0.27,0.27,0.12,0.99,
1.9,2.72,1.34,0.25,0.27,0.12,0.99,
1.9,2.72,1.34,0.25,0.27,0.11,0.99,
1.903,2.72,1.34,0.25,0.27,0.11,0.99,
1.903,2.80,1.22,0.20,0.27,0.11,0.99,
1.905,2.80,1.22,0.20,0.27,0.10,0.98,
1.907,2.80,1.22,0.20,0.27,0.10,0.98,
1.908,2.86,1.06,0.13,0.27,0.10,0.98,
1.915,2.86,1.06,0.13,0.26,0.10,0.98,
1.915,2.86,1.06,0.13,0.25,0.09,0.98,
1.915,2.87,0.96,0.06,0.25,0.09,0.98,
1.915,2.87,0.96,0.06,0.24,0.09,0.98,
1.917,2.87,0.96,0.06,0.22,0.09,0.98,
1.918,2.74,0.90,0.04,0.22,0.09,0.98,
1.92,2.74,0.90,0.04,0.21,0.08,0.98,
1.922,2.74,0.90,0.04,0.20,0.08,0.99,
1.922,2.54,0.86,0.04,0.20,0.08,0.99,
1.925,2.54,0.86,0.04,0.19,0.07,0.99,
1.927,2.54,0.86,0.04,0.18,0.07,0.99,
1.927,2.34,0.78,0.09,0.18,0.07,0.99,
1.93,2.34,0.78,0.09,0.17,0.06,0.99,
1.932,2.34,0.78,0.09,0.16,0.05,1.00,
1.932,2.15,0.66,0.14,0.16,0.05,1.00,
1.934,2.15,0.66,0.14,0.15,0.04,1.00,
1.937,2.15,0.66,0.14,0.14,0.04,1.01,
1.937,2.00,0.53,0.21,0.14,0.04,1.01,
1.939,2.00,0.53,0.21,0.14,0.03,1.01,
1.942,2.00,0.53,0.21,0.13,0.03,1.01,
1.942,1.85,0.40,0.30,0.13,0.03,1.01,
1.944,1.85,0.40,0.30,0.12,0.02,1.02,
1.947,1.85,0.40,0.30,0.11,0.02,1.02,
1.947,1.70,0.30,0.36,0.11,0.02,1.02,
1.949,1.70,0.30,0.36,0.11,0.01,1.02,
1.951,1.70,0.30,0.36,0.10,0.01,1.02,
1.952,1.57,0.22,0.42,0.10,0.01,1.02,
1.954,1.57,0.22,0.42,0.10,0.00,1.02,
1.957,1.57,0.22,0.42,0.10,-0.00,1.02,
1.957,1.45,0.13,0.46,0.10,-0.00,1.02,
1.959,1.45,0.13,0.46,0.10,-0.01,1.02,
1.962,1.45,0.13,0.46,0.10,-0.01,1.02,
1.962,1.42,0.03,0.45,0.10,-0.01,1.02,
1.964,1.42,0.03,0.45,0.10,-0.01,1.01,
1.966,1.42,0.03,0.45,0.10,-0.02,1.01,
1.967,1.43,-0.05,0.42,0.10,-0.02,1.01,
1.969,1.43,-0.05,0.42,0.10,-0.02,1.01,
1.971,1.43,-0.05,0.42,0.10,-0.02,1.01,
1.972,1.44,-0.13,0.39,0.10,-0.02,1.01,
1.974,1.44,-0.13,0.39,0.11,-0.02,1.00,
1.976,1.44,-0.13,0.39,0.11,-0.02,0.99,
1.977,1.50,-0.16,0.33,0.11,-0.02,0.99,
1.979,1.50,-0.16,0.33,0.11,-0.02,0.99,
1.981,1.50,-0.16,0.33,0.12,-0.02,0.99,
1.981,1.57,-0.15,0.22,0.12,-0.02,0.99,
1.983,1.57,-0.15,0.22,0.12,-0.02,0.98,
1.986,1.57,-0.15,0.22,0.13,-0.02,0.97,
1.986,1.66,-0.16,0.14,0.13,-0.02,0.97,
1.988,1.66,-0.16,0.14,0.14,-0.02,0.96,
1.991,1.66,-0.16,0.14,0.15,-0.02,0.95,
1.991,1.81,-0.19,-0.01,0.15,-0.02,0.95,
1.999,1.81,-0.19,-0.01,0.15,-0.02,0.95,
1.999,1.81,-0.19,-0.01,0.15,-0.02,0.94,
2.0,1.97,-0.21,-0.16,0.15,-0.02,0.94,
2.0,1.97,-0.21,-0.16,0.16,-0.02,0.94,
2.0,1.97,-0.21,-0.16,0.16,-0.02,0.93,
2.001,2.07,-0.21,-0.27,0.16,-0.02,0.93,
2.003,2.07,-0.21,-0.27,0.15,-0.01,0.93,
2.005,2.07,-0.21,-0.27,0.15,-0.01,0.92,
2.006,2.14,-0.23,-0.40,0.15,-0.01,0.92,
2.013,2.14,-0.23,-0.40,0.15,-0.01,0.92,
2.014,2.14,-0.23,-0.40,0.14,-0.01,0.91,
2.014,2.13,-0.20,-0.50,0.14,-0.01,0.91,
2.014,2.13,-0.20,-0.50,0.14,-0.01,0.91,
2.015,2.13,-0.20,-0.50,0.13,-0.00,0.91,
2.015,2.08,-0.16,-0.57,0.13,-0.00,0.91,
2.018,2.08,-0.16,-0.57,0.12,-0.00,0.92,
2.02,2.08,-0.16,-0.57,0.12,-0.01,0.92,
2.02,1.97,-0.13,-0.58,0.12,-0.01,0.92,
2.022,1.97,-0.13,-0.58,0.11,-0.01,0.92,
2.026,1.97,-0.13,-0.58,0.10,-0.01,0.93,
2.026,1.83,-0.15,-0.52,0.10,-0.01,0.93,
2.028,1.83,-0.15,-0.52,0.10,-0.02,0.93,
2.03,1.83,-0.15,-0.52,0.09,-0.02,0.94,
2.035,1.68,-0.19,-0.45,0.09,-0.02,0.94,
2.035,1.68,-0.19,-0.45,0.09,-0.03,0.94,
2.036,1.68,-0.19,-0.45,0.08,-0.03,0.95,
2.036,1.60,-0.29,-0.38,0.08,-0.03,0.95,
2.037,1.60,-0.29,-0.38,0.08,-0.04,0.95,
2.04,1.60,-0.29,-0.38,0.08,-0.04,0.96,
2.04,1.50,-0.40,-0.27,0.08,-0.04,0.96,
2.042,1.50,-0.40,-0.27,0.07,-0.05,0.96,
2.045,1.50,-0.40,-0.27,0.07,-0.05,0.97,
2.045,1.43,-0.51,-0.16,0.07,-0.05,0.97,
2.047,1.43,-0.51,-0.16,0.06,-0.05,0.97,
2.049,1.43,-0.51,-0.16,0.06,-0.06,0.98,
2.05,1.32,-0.61,-0.07,0.06,-0.06,0.98,
2.052,1.32,-0.61,-0.07,0.05,-0.06,0.98,
2.054,1.32,-0.61,-0.07,0.05,-0.06,0.98,
2.054,1.23,-0.66,0.02,0.05,-0.06,0.98,
2.057,1.23,-0.66,0.02,0.05,-0.07,0.98,
2.059,1.23,-0.66,0.02,0.04,-0.07,0.99,
2.06,1.11,-0.72,0.08,0.04,-0.07,0.99,
2.062,1.11,-0.72,0.08,0.04,-0.07,0.99,
2.065,1.11,-0.72,0.08,0.04,-0.08,0.98,
2.065,1.05,-0.80,0.12,0.04,-0.08,0.98,
2.067,1.05,-0.80,0.12,0.03,-0.08,0.98,
2.069,1.05,-0.80,0.12,0.03,-0.08,0.98,
2.069,0.99,-0.87,0.12,0.03,-0.08,0.98,
2.071,0.99,-0.87,0.12,0.03,-0.08,0.98,
2.074,0.99,-0.87,0.12,0.03,-0.08,0.98,
2.074,0.93,-0.91,0.09,0.03,-0.08,0.98,
2.082,0.93,-0.91,0.09,0.03,-0.08,0.98,
2.082,0.93,-0.91,0.09,0.03,-0.08,0.97,
2.083,0.91,-0.94,0.05,0.03,-0.08,0.97,
2.083,0.91,-0.94,0.05,0.03,-0.07,0.96,
2.084,0.91,-0.94,0.05,0.03,-0.07,0.96,
2.084,0.91,-0.93,0.00,0.03,-0.07,0.96,
2.086,0.91,-0.93,0.00,0.03,-0.07,0.95,
2.089,0.91,-0.93,0.00,0.03,-0.07,0.95,
2.089,0.91,-0.90,-0.10,0.03,-0.07,0.95,
2.097,0.91,-0.90,-0.10,0.04,-0.06,0.95,
2.098,0.91,-0.90,-0.10,0.04,-0.06,0.94,
2.098,0.93,-0.86,-0.20,0.04,-0.06,0.94,
2.098,0.93,-0.86,-0.20,0.04,-0.06,0.94,
2.099,0.93,-0.86,-0.20,0.04,-0.05,0.93,
2.099,0.98,-0.81,-0.27,0.04,-0.05,0.93,
2.101,0.98,-0.81,-0.27,0.04,-0.05,0.93,
2.103,0.98,-0.81,-0.27,0.04,-0.05,0.93,
2.103,0.99,-0.76,-0.35,0.04,-0.05,0.93,
2.106,0.99,-0.76,-0.35,0.04,-0.04,0.93,
2.108,0.99,-0.76,-0.35,0.04,-0.04,0.93,
2.109,1.01,-0.71,-0.41,0.04,-0.04,0.93,
2.111,1.01,-0.71,-0.41,0.04,-0.04,0.92,
2.113,1.01,-0.71,-0.41,0.03,-0.04,0.92,
2.114,1.00,-0.67,-0.45,0.03,-0.04,0.92,
2.116,1.00,-0.67,-0.45,0.03,-0.04,0.92,
2.118,1.00,-0.67,-0.45,0.03,-0.04,0.92,
2.118,0.98,-0.64,-0.49,0.03,-0.04,0.92,
2.12,0.98,-0.64,-0.49,0.03,-0.03,0.92,
2.123,0.98,-0.64,-0.49,0.02,-0.04,0.92,
2.123,0.95,-0.62,-0.49,0.02,-0.04,0.92,
2.125,0.95,-0.62,-0.49,0.02,-0.03,0.92,
2.128,0.95,-0.62,-0.49,0.02,-0.03,0.92,
2.129,0.89,-0.61,-0.51,0.02,-0.03,0.92,
2.13,0.89,-0.61,-0.51,0.01,-0.03,0.92,
2.133,0.89,-0.61,-0.51,0.01,-0.04,0.92,
2.133,0.82,-0.60,-0.53,0.01,-0.04,0.92,
2.135,0.82,-0.60,-0.53,0.00,-0.04,0.92,
2.137,0.82,-0.60,-0.53,-0.00,-0.04,0.92,
2.138,0.74,-0.61,-0.53,-0.00,-0.04,0.92,
2.14,0.74,-0.61,-0.53,-0.00,-0.04,0.92,
2.143,0.74,-0.61,-0.53,-0.01,-0.04,0.92,
2.144,0.63,-0.64,-0.53,-0.01,-0.04,0.92,
2.145,0.63,-0.64,-0.53,-0.01,-0.04,0.92,
2.148,0.63,-0.64,-0.53,-0.02,-0.04,0.92,
2.148,0.57,-0.64,-0.51,-0.02,-0.04,0.92,
2.15,0.57,-0.64,-0.51,-0.02,-0.05,0.92,
2.152,0.57,-0.64,-0.51,-0.02,-0.04,0.92,
2.153,0.48,-0.70,-0.51,-0.02,-0.04,0.92,
2.155,0.48,-0.70,-0.51,-0.03,-0.04,0.93,
2.157,0.48,-0.70,-0.51,-0.04,-0.04,0.93,
2.159,0.39,-0.74,-0.49,-0.04,-0.04,0.93,
2.16,0.39,-0.74,-0.49,-0.04,-0.04,0.93,
2.163,0.39,-0.74,-0.49,-0.04,-0.04,0.94,
2.163,0.28,-0.73,-0.43,-0.04,-0.04,0.94,
2.165,0.28,-0.73,-0.43,-0.05,-0.04,0.94,
2.167,0.28,-0.73,-0.43,-0.05,-0.04,0.95,
2.168,0.18,-0.72,-0.36,-0.05,-0.04,0.95,
2.169,0.18,-0.72,-0.36,-0.05,-0.04,0.96,
2.172,0.18,-0.72,-0.36,-0.06,-0.04,0.96,
2.172,0.10,-0.71,-0.25,-0.06,-0.04,0.96,
2.175,0.10,-0.71,-0.25,-0.06,-0.04,0.97,
2.177,0.10,-0.71,-0.25,-0.06,-0.04,0.98,
2.178,0.01,-0.69,-0.11,-0.06,-0.04,0.98,
2.18,0.01,-0.69,-0.11,-0.06,-0.04,0.98,
2.182,0.01,-0.69,-0.11,-0.05,-0.04,0.99,
2.182,-0.02,-0.69,0.03,-0.05,-0.04,0.99,
2.185,-0.02,-0.69,0.03,-0.05,-0.03,1.00,
2.187,-0.02,-0.69,0.03,-0.05,-0.03,1.00,
2.187,-0.02,-0.67,0.15,-0.05,-0.03,1.00,
2.189,-0.02,-0.67,0.15,-0.04,-0.03,1.01,
2.197,-0.02,-0.67,0.15,-0.04,-0.03,1.02,
2.198,0.00,-0.62,0.28,-0.04,-0.03,1.02,
2.2,0.00,-0.62,0.28,-0.04,-0.02,1.02,
2.2,0.00,-0.62,0.28,-0.04,-0.02,1.03,
2.2,0.07,-0.58,0.40,-0.04,-0.02,1.03,
2.2,0.07,-0.58,0.40,-0.03,-0.02,1.03,
2.201,0.07,-0.58,0.40,-0.03,-0.02,1.03,
2.202,0.09,-0.52,0.52,-0.03,-0.02,1.03,
2.204,0.09,-0.52,0.52,-0.03,-0.01,1.03,
2.206,0.09,-0.52,0.52,-0.03,-0.01,1.03,
2.207,0.17,-0.48,0.56,-0.03,-0.01,1.03,
2.209,0.17,-0.48,0.56,-0.02,-0.00,1.03,
2.211,0.17,-0.48,0.56,-0.02,-0.00,1.03,
2.211,0.20,-0.40,0.58,-0.02,-0.00,1.03,
2.214,0.20,-0.40,0.58,-0.02,0.00,1.03,
2.216,0.20,-0.40,0.58,-0.02,0.01,1.02,
2.216,0.23,-0.33,0.55,-0.02,0.01,1.02,
2.219,0.23,-0.33,0.55,-0.02,0.01,1.01,
2.221,0.23,-0.33,0.55,-0.02,0.01,1.01,
2.221,0.24,-0.26,0.50,-0.02,0.01,1.01,
2.223,0.24,-0.26,0.50,-0.02,0.02,1.00,
2.226,0.25,-0.20,0.36,-0.02,0.02,1.00,
2.227,0.25,-0.20,0.36,-0.02,0.02,0.99,
2.228,0.25,-0.20,0.36,-0.01,0.02,0.98,
2.231,0.25,-0.20,0.36,-0.01,0.02,0.98,
2.231,0.28,-0.17,0.22,-0.01,0.02,0.98,
2.234,0.28,-0.17,0.22,-0.02,0.03,0.97,
2.236,0.28,-0.17,0.22,-0.02,0.03,0.96,
2.236,0.32,-0.15,0.08,-0.02,0.03,0.96,
2.238,0.32,-0.15,0.08,-0.02,0.03,0.96,
2.241,0.32,-0.15,0.08,-0.02,0.04,0.96,
2.242,0.27,-0.09,-0.04,-0.02,0.04,0.96,
2.243,0.27,-0.09,-0.04,-0.03,0.04,0.95,
2.245,0.27,-0.09,-0.04,-0.03,0.04,0.95,
2.246,0.23,-0.04,-0.15,-0.03,0.04,0.95,
2.248,0.23,-0.04,-0.15,-0.03,0.04,0.95,
2.25,0.23,-0.04,-0.15,-0.03,0.04,0.95,
2.251,0.18,0.00,-0.21,-0.03,0.04,0.95,
2.253,0.18,0.00,-0.21,-0.03,0.04,0.95,
2.255,0.18,0.00,-0.21,-0.03,0.04,0.94,
2.255,0.16,0.03,-0.24,-0.03,0.04,0.94,
2.258,0.16,0.03,-0.24,-0.02,0.04,0.94,
2.26,0.16,0.03,-0.24,-0.02,0.04,0.95,
2.261,0.17,0.03,-0.27,-0.02,0.04,0.95,
2.263,0.17,0.03,-0.27,-0.02,0.04,0.95,
2.265,0.17,0.03,-0.27,-0.02,0.04,0.95,
2.265,0.20,0.04,-0.26,-0.02,0.04,0.95,
2.267,0.20,0.04,-0.26,-0.01,0.04,0.96,
2.27,0.20,0.04,-0.26,-0.01,0.05,0.96,
2.27,0.24,0.02,-0.20,-0.01,0.05,0.96,
2.273,0.24,0.02,-0.20,-0.01,0.05,0.96,
2.276,0.24,0.02,-0.20,-0.01,0.05,0.97,
2.277,0.30,0.04,-0.14,-0.01,0.05,0.97,
2.278,0.30,0.04,-0.14,-0.00,0.05,0.97,
2.28,0.30,0.04,-0.14,0.00,0.05,0.98,
2.28,0.34,0.07,-0.06,0.00,0.05,0.98,
2.282,0.34,0.07,-0.06,0.00,0.05,0.98,
2.284,0.34,0.07,-0.06,0.00,0.05,0.99,
2.285,0.41,0.09,0.04,0.00,0.05,0.99,
2.287,0.41,0.09,0.04,0.00,0.06,0.99,
2.289,0.41,0.09,0.04,0.00,0.06,0.99,
2.29,0.43,0.12,0.12,0.00,0.06,0.99,
2.297,0.43,0.12,0.12,0.00,0.06,0.99,
2.297,0.43,0.12,0.12,0.00,0.06,1.00,
2.298,0.40,0.16,0.16,0.00,0.06,1.00,
2.298,0.40,0.16,0.16,-0.00,0.06,1.00,
2.299,0.40,0.16,0.16,-0.00,0.07,1.00,
2.3,0.39,0.19,0.22,-0.00,0.07,1.00,
2.302,0.39,0.19,0.22,-0.00,0.07,1.00,
2.304,0.39,0.19,0.22,-0.01,0.07,1.00,
2.305,0.38,0.24,0.26,-0.01,0.07,1.00,
2.306,0.38,0.24,0.26,-0.01,0.07,1.00,
2.312,0.38,0.24,0.26,-0.01,0.07,1.00,
2.313,0.35,0.25,0.27,-0.01,0.07,1.00,
2.313,0.35,0.25,0.27,-0.01,0.07,1.00,
2.314,0.35,0.25,0.27,-0.02,0.07,1.00,
2.314,0.30,0.28,0.27,-0.02,0.07,1.00,
2.316,0.30,0.28,0.27,-0.02,0.07,1.00,
2.319,0.30,0.28,0.27,-0.02,0.07,1.00,
2.319,0.27,0.29,0.28,-0.02,0.07,1.00,
2.322,0.27,0.29,0.28,-0.03,0.07,1.00,
2.324,0.27,0.29,0.28,-0.03,0.06,0.99,
2.324,0.20,0.29,0.25,-0.03,0.06,0.99,
2.326,0.20,0.29,0.25,-0.04,0.06,0.99,
2.329,0.20,0.29,0.25,-0.04,0.06,0.99,
2.329,0.14,0.25,0.21,-0.04,0.06,0.99,
2.331,0.14,0.25,0.21,-0.04,0.06,0.99,
2.334,0.14,0.25,0.21,-0.05,0.06,0.98,
2.334,0.06,0.21,0.17,-0.05,0.06,0.98,
2.336,0.06,0.21,0.17,-0.05,0.06,0.98,
2.339,0.06,0.21,0.17,-0.05,0.05,0.98,
2.339,-0.02,0.19,0.12,-0.05,0.05,0.98,
2.341,-0.02,0.19,0.12,-0.06,0.05,0.97,
2.343,-0.02,0.19,0.12,-0.06,0.05,0.97,
2.344,-0.08,0.15,0.06,-0.06,0.05,0.97,
2.346,-0.08,0.15,0.06,-0.06,0.05,0.97,
2.348,-0.08,0.15,0.06,-0.07,0.05,0.97,
2.348,-0.13,0.09,0.01,-0.07,0.05,0.97,
2.351,-0.13,0.09,0.01,-0.07,0.05,0.97,
2.353,-0.13,0.09,0.01,-0.07,0.05,0.97,
2.353,-0.18,0.05,0.01,-0.07,0.05,0.97,
2.356,-0.18,0.05,0.01,-0.07,0.04,0.97,
2.359,-0.18,0.05,0.01,-0.07,0.05,0.97,
2.359,-0.22,0.05,-0.01,-0.07,0.05,0.97,
2.361,-0.22,0.05,-0.01,-0.07,0.05,0.97,
2.363,-0.22,0.05,-0.01,-0.07,0.05,0.97,
2.363,-0.27,0.04,0.01,-0.07,0.05,0.97,
2.365,-0.27,0.04,0.01,-0.07,0.05,0.97,
2.368,-0.27,0.04,0.01,-0.07,0.05,0.98,
2.368,-0.25,0.08,0.01,-0.07,0.05,0.98,
2.37,-0.25,0.08,0.01,-0.07,0.05,0.98,
2.373,-0.25,0.08,0.01,-0.07,0.06,0.98,
2.373,-0.24,0.09,0.03,-0.07,0.06,0.98,
2.378,-0.24,0.09,0.03,-0.07,0.06,0.98,
2.378,-0.24,0.09,0.03,-0.07,0.06,0.98,
2.379,-0.22,0.14,0.08,-0.07,0.06,0.98,
2.38,-0.22,0.14,0.08,-0.06,0.06,0.99,
2.382,-0.22,0.14,0.08,-0.06,0.06,0.99,
2.383,-0.19,0.16,0.11,-0.06,0.06,0.99,
2.385,-0.19,0.16,0.11,-0.06,0.06,0.99,
2.387,-0.19,0.16,0.11,-0.06,0.06,0.99,
2.388,-0.15,0.20,0.16,-0.06,0.06,0.99,
2.391,-0.15,0.20,0.16,-0.06,0.07,1.00,
2.392,-0.15,0.20,0.16,-0.05,0.07,1.00,
2.392,-0.11,0.23,0.18,-0.05,0.07,1.00,
2.395,-0.11,0.23,0.18,-0.05,0.07,1.00,
2.397,-0.11,0.23,0.18,-0.05,0.07,1.00,
2.397,-0.09,0.26,0.23,-0.05,0.07,1.00,
2.4,-0.09,0.26,0.23,-0.05,0.07,1.00,
2.402,-0.09,0.26,0.23,-0.05,0.07,0.99,
2.402,-0.04,0.26,0.24,-0.05,0.07,0.99,
2.404,-0.04,0.26,0.24,-0.04,0.07,0.99,
2.408,-0.04,0.26,0.24,-0.04,0.07,0.99,
2.409,0.01,0.26,0.21,-0.04,0.07,0.99,
2.41,0.01,0.26,0.21,-0.04,0.07,0.99,
2.412,0.01,0.26,0.21,-0.04,0.07,0.98,
2.413,0.06,0.25,0.16,-0.04,0.07,0.98,
2.414,0.06,0.25,0.16,-0.04,0.06,0.98,
2.417,0.06,0.25,0.16,-0.04,0.06,0.98,
2.417,0.10,0.23,0.13,-0.04,0.06,0.98,
2.419,0.10,0.23,0.13,-0.04,0.06,0.97,
2.422,0.10,0.23,0.13,-0.04,0.06,0.97,
2.422,0.08,0.21,0.05,-0.04,0.06,0.97,
2.424,0.08,0.21,0.05,-0.04,0.06,0.97,
2.427,0.08,0.21,0.05,-0.05,0.06,0.97,
2.427,0.07,0.19,0.00,-0.05,0.06,0.97,
2.429,0.07,0.19,0.00,-0.05,0.06,0.97,
2.432,0.07,0.19,0.00,-0.05,0.06,0.96,
2.432,0.04,0.18,-0.05,-0.05,0.06,0.96,
2.434,0.04,0.18,-0.05,-0.05,0.06,0.96,
2.436,0.04,0.18,-0.05,-0.05,0.06,0.96,
2.437,0.03,0.14,-0.07,-0.05,0.06,0.96,
2.439,0.03,0.14,-0.07,-0.05,0.06,0.96,
2.442,0.03,0.14,-0.07,-0.05,0.06,0.96,
2.442,0.00,0.13,-0.12,-0.05,0.06,0.96,
2.444,0.00,0.13,-0.12,-0.06,0.06,0.96,
2.446,0.00,0.13,-0.12,-0.06,0.06,0.97,
2.446,-0.00,0.15,-0.12,-0.06,0.06,0.97,
2.449,-0.00,0.15,-0.12,-0.06,0.06,0.97,
2.451,-0.00,0.15,-0.12,-0.06,0.06,0.97,
2.451,-0.04,0.17,-0.08,-0.06,0.06,0.97,
2.453,-0.04,0.17,-0.08,-0.06,0.06,0.97,
2.456,-0.04,0.17,-0.08,-0.06,0.06,0.98,
2.456,-0.07,0.19,-0.02,-0.06,0.06,0.98,
2.459,-0.07,0.19,-0.02,-0.06,0.06,0.98,
2.461,-0.07,0.19,-0.02,-0.06,0.06,0.98,
2.461,-0.07,0.21,0.04,-0.06,0.06,0.98,
2.464,-0.07,0.21,0.04,-0.06,0.07,0.99,
2.466,-0.07,0.21,0.04,-0.05,0.07,0.99,
2.466,-0.04,0.22,0.10,-0.05,0.07,0.99,
2.468,-0.04,0.22,0.10,-0.05,0.07,0.99,
2.471,-0.02,0.25,0.18,-0.05,0.07,0.99,
2.471,-0.02,0.25,0.18,-0.05,0.07,1.00,
2.474,-0.02,0.25,0.18,-0.05,0.07,0.93,
2.489,-0.02,0.25,0.18,-0.06,0.06,0.82,
2.489,0.01,0.26,0.22,-0.06,0.06,0.82,
2.489,0.01,0.26,0.22,-0.05,0.06,0.81,
2.489,0.01,0.26,0.22,-0.03,0.06,0.86,
2.489,-0.01,0.23,-0.92,-0.03,0.06,0.86,
2.49,-0.01,0.23,-0.92,-0.03,0.06,0.91,
2.49,-0.01,0.23,-0.92,-0.04,0.06,0.92,
2.49,0.14,0.21,-1.34,-0.04,0.06,0.92,
2.49,0.14,0.21,-1.34,-0.05,0.06,0.91,
2.49,0.14,0.21,-1.34,-0.05,0.06,0.90,
2.49,0.16,0.21,-0.55,-0.05,0.06,0.90,
2.493,0.16,0.21,-0.55,-0.05,0.06,0.90,
2.495,0.16,0.21,-0.55,-0.04,0.06,0.90,
2.495,0.03,0.21,-0.63,-0.04,0.06,0.90,
2.497,0.03,0.21,-0.63,-0.02,0.07,0.91,
2.5,0.03,0.21,-0.63,-0.01,0.07,0.93,
2.5,0.15,0.28,-0.71,-0.01,0.07,0.93,
2.502,0.15,0.28,-0.71,-0.01,0.06,0.94,
2.505,0.15,0.28,-0.71,-0.01,0.06,0.94,
2.505,0.40,0.33,-0.51,-0.01,0.06,0.94,
2.507,0.40,0.33,-0.51,-0.02,0.05,0.95,
2.51,0.40,0.33,-0.51,-0.02,0.05,0.96,
2.51,0.50,0.29,-0.28,-0.02,0.05,0.96,
2.512,0.50,0.29,-0.28,-0.03,0.05,0.97,
2.514,0.50,0.29,-0.28,-0.03,0.05,0.99,
2.515,0.38,0.20,-0.16,-0.03,0.05,0.99,
2.517,0.38,0.20,-0.16,-0.04,0.05,1.01,
2.519,0.38,0.20,-0.16,-0.05,0.05,1.03,
2.521,0.29,0.23,0.12,-0.05,0.05,1.03,
2.522,0.29,0.23,0.12,-0.05,0.04,1.04,
2.525,0.29,0.23,0.12,-0.06,0.04,1.06,
2.525,0.17,0.24,0.47,-0.06,0.04,1.06,
2.528,0.17,0.24,0.47,-0.07,0.03,1.07,
2.53,0.17,0.24,0.47,-0.07,0.02,1.07,
2.53,0.04,0.14,0.76,-0.07,0.02,1.07,
2.532,0.04,0.14,0.76,-0.08,0.02,1.08,
2.534,0.04,0.14,0.76,-0.08,0.02,1.08,
2.534,-0.10,0.00,0.97,-0.08,0.02,1.08,
2.537,-0.10,0.00,0.97,-0.08,0.01,1.07,
2.539,-0.10,0.00,0.97,-0.09,0.02,1.06,
2.54,-0.18,-0.06,1.02,-0.09,0.02,1.06,
2.542,-0.18,-0.06,1.02,-0.09,0.01,1.06,
2.544,-0.18,-0.06,1.02,-0.09,0.01,1.05,
2.545,-0.23,-0.11,0.92,-0.09,0.01,1.05,
2.547,-0.23,-0.11,0.92,-0.10,0.01,1.05,
2.549,-0.23,-0.11,0.92,-0.10,0.01,1.04,
2.549,-0.31,-0.15,0.82,-0.10,0.01,1.04,
2.551,-0.31,-0.15,0.82,-0.10,0.01,1.04,
2.554,-0.31,-0.15,0.82,-0.10,0.01,1.03,
2.554,-0.35,-0.20,0.69,-0.10,0.01,1.03,
2.556,-0.35,-0.20,0.69,-0.10,0.02,1.03,
