
time,ax,ay,az,gFx,gFy,gFz,
0.002,0.04,-0.03,0.27,-0.03,0.09,0.96,
0.002,0.03,0.01,0.06,-0.03,0.09,0.96,
0.002,0.03,0.01,0.06,-0.04,0.09,0.96,
0.003,0.03,0.01,0.06,-0.04,0.09,0.95,
0.003,-0.02,0.02,-0.12,-0.04,0.09,0.95,
0.003,-0.02,0.02,-0.12,-0.04,0.10,0.95,
0.005,-0.02,0.02,-0.12,-0.04,0.10,0.95,
0.005,-0.07,0.01,-0.24,-0.04,0.10,0.95,
0.007,-0.07,0.01,-0.24,-0.05,0.10,0.94,
0.01,-0.07,0.01,-0.24,-0.05,0.10,0.94,
0.01,-0.13,0.03,-0.32,-0.05,0.10,0.94,
0.014,-0.13,0.03,-0.32,-0.05,0.10,0.95,
0.015,-0.13,0.03,-0.32,-0.05,0.10,0.95,
0.015,-0.18,0.08,-0.34,-0.05,0.10,0.95,
0.017,-0.18,0.08,-0.34,-0.05,0.11,0.95,
0.02,-0.18,0.08,-0.34,-0.05,0.11,0.96,
0.02,-0.19,0.10,-0.31,-0.05,0.11,0.96,
0.022,-0.19,0.10,-0.31,-0.05,0.11,0.96,
0.025,-0.19,0.10,-0.31,-0.05,0.11,0.97,
0.025,-0.19,0.14,-0.25,-0.05,0.11,0.97,
0.027,-0.19,0.14,-0.25,-0.06,0.10,0.97,
0.03,-0.19,0.14,-0.25,-0.06,0.10,0.97,
0.03,-0.21,0.15,-0.15,-0.06,0.10,0.97,
0.032,-0.21,0.15,-0.15,-0.06,0.10,0.98,
0.034,-0.21,0.15,-0.15,-0.05,0.10,0.98,
0.035,-0.23,0.13,-0.07,-0.05,0.10,0.98,
0.037,-0.23,0.13,-0.07,-0.05,0.10,0.99,
0.039,-0.23,0.13,-0.07,-0.05,0.10,0.99,
0.039,-0.21,0.13,0.01,-0.05,0.10,0.99,
0.041,-0.21,0.13,0.01,-0.05,0.10,0.99,
0.044,-0.21,0.13,0.01,-0.05,0.10,0.99,
0.044,-0.19,0.12,0.08,-0.05,0.10,0.99,
0.046,-0.19,0.12,0.08,-0.05,0.10,0.99,
0.049,-0.19,0.12,0.08,-0.04,0.10,0.99,
0.049,-0.17,0.10,0.11,-0.04,0.10,0.99,
0.051,-0.17,0.10,0.11,-0.04,0.10,0.99,
0.054,-0.17,0.10,0.11,-0.04,0.10,0.99,
0.054,-0.12,0.11,0.13,-0.04,0.10,0.99,
0.057,-0.12,0.11,0.13,-0.04,0.10,0.99,
0.059,-0.12,0.11,0.13,-0.03,0.10,0.99,
0.059,-0.08,0.12,0.13,-0.03,0.10,0.99,
0.061,-0.08,0.12,0.13,-0.03,0.10,0.99,
0.066,-0.08,0.12,0.13,-0.03,0.10,0.99,
0.067,-0.03,0.12,0.11,-0.03,0.10,0.99,
0.067,-0.03,0.12,0.11,-0.03,0.10,0.98,
0.069,-0.03,0.12,0.11,-0.03,0.10,0.98,
0.069,0.02,0.12,0.07,-0.03,0.10,0.98,
0.071,0.02,0.12,0.07,-0.02,0.10,0.98,
0.073,0.02,0.12,0.07,-0.02,0.10,0.98,
0.074,0.05,0.12,0.04,-0.02,0.10,0.98,
0.077,0.05,0.12,0.04,-0.03,0.10,0.98,
0.078,0.05,0.12,0.04,-0.03,0.10,0.98,
0.078,0.07,0.13,-0.01,-0.03,0.10,0.98,
0.081,0.07,0.13,-0.01,-0.03,0.10,0.98,
0.083,0.07,0.13,-0.01,-0.03,0.10,0.98,
0.084,0.05,0.14,-0.02,-0.03,0.10,0.98,
0.086,0.05,0.14,-0.02,-0.03,0.10,0.98,
0.089,0.05,0.14,-0.02,-0.03,0.10,0.97,
0.089,0.04,0.15,-0.03,-0.03,0.10,0.97,
0.091,0.04,0.15,-0.03,-0.03,0.10,0.97,
0.093,0.04,0.15,-0.03,-0.03,0.10,0.97,
0.093,0.04,0.14,-0.04,-0.03,0.10,0.97,
0.097,0.04,0.14,-0.04,-0.03,0.10,0.97,
0.098,0.04,0.14,-0.04,-0.03,0.10,0.97,
0.098,0.03,0.14,-0.07,-0.03,0.10,0.97,
0.101,0.03,0.14,-0.07,-0.03,0.10,0.97,
0.103,0.03,0.14,-0.07,-0.02,0.10,0.97,
0.103,0.04,0.15,-0.11,-0.02,0.10,0.97,
0.105,0.04,0.15,-0.11,-0.02,0.10,0.97,
0.108,0.04,0.15,-0.11,-0.02,0.10,0.97,
0.108,0.05,0.14,-0.11,-0.02,0.10,0.97,
0.11,0.05,0.14,-0.11,-0.02,0.10,0.96,
0.113,0.05,0.14,-0.11,-0.02,0.10,0.96,
0.113,0.08,0.14,-0.12,-0.02,0.10,0.96,
0.117,0.08,0.14,-0.12,-0.02,0.10,0.96,
0.118,0.08,0.14,-0.12,-0.02,0.10,0.96,
0.118,0.08,0.14,-0.15,-0.02,0.10,0.96,
0.12,0.08,0.14,-0.15,-0.02,0.10,0.96,
0.123,0.08,0.14,-0.15,-0.02,0.10,0.96,
0.123,0.08,0.14,-0.16,-0.02,0.10,0.96,
0.125,0.08,0.14,-0.16,-0.02,0.10,0.96,
0.128,0.08,0.14,-0.16,-0.02,0.10,0.97,
0.128,0.10,0.14,-0.14,-0.02,0.10,0.97,
0.13,0.10,0.14,-0.14,-0.02,0.10,0.97,
0.132,0.10,0.14,-0.14,-0.02,0.10,0.97,
0.132,0.13,0.14,-0.13,-0.02,0.10,0.97,
0.135,0.13,0.14,-0.13,-0.02,0.10,0.97,
0.138,0.13,0.13,-0.09,-0.02,0.10,0.97,
0.138,0.13,0.13,-0.09,-0.02,0.10,0.97,
0.14,0.13,0.13,-0.09,-0.02,0.10,0.97,
0.142,0.13,0.13,-0.09,-0.02,0.10,0.98,
0.142,0.13,0.11,-0.06,-0.02,0.10,0.98,
0.144,0.13,0.11,-0.06,-0.02,0.10,0.98,
0.147,0.13,0.11,-0.06,-0.02,0.10,0.98,
0.147,0.13,0.09,-0.04,-0.02,0.10,0.98,
0.15,0.13,0.09,-0.04,-0.02,0.09,0.98,
0.152,0.13,0.09,-0.04,-0.02,0.09,0.98,
0.152,0.12,0.07,-0.00,-0.02,0.09,0.98,
0.154,0.12,0.07,-0.00,-0.03,0.09,0.98,
0.157,0.12,0.07,-0.00,-0.03,0.09,0.99,
0.157,0.10,0.05,0.03,-0.03,0.09,0.99,
0.159,0.10,0.05,0.03,-0.03,0.09,0.99,
0.162,0.10,0.05,0.03,-0.03,0.09,0.99,
0.163,0.06,0.05,0.08,-0.03,0.09,0.99,
0.171,0.06,0.05,0.08,-0.03,0.09,0.99,
0.171,0.06,0.05,0.08,-0.04,0.09,0.99,
0.171,0.01,0.05,0.10,-0.04,0.09,0.99,
0.171,0.01,0.05,0.10,-0.04,0.09,0.99,
0.172,0.01,0.05,0.10,-0.04,0.09,0.99,
0.172,-0.03,0.06,0.12,-0.04,0.09,0.99,
0.174,-0.03,0.06,0.12,-0.05,0.09,0.99,
0.177,-0.03,0.06,0.12,-0.05,0.09,0.99,
0.177,-0.10,0.04,0.15,-0.05,0.09,0.99,
0.179,-0.10,0.04,0.15,-0.05,0.08,0.99,
0.181,-0.10,0.04,0.15,-0.05,0.08,0.99,
0.181,-0.13,0.00,0.14,-0.05,0.08,0.99,
0.184,-0.13,0.00,0.14,-0.05,0.08,1.00,
0.186,-0.13,0.00,0.14,-0.05,0.08,1.00,
0.186,-0.17,-0.02,0.15,-0.05,0.08,1.00,
0.188,-0.17,-0.02,0.15,-0.05,0.08,1.00,
0.191,-0.17,-0.02,0.15,-0.05,0.08,1.00,
0.191,-0.18,-0.03,0.15,-0.05,0.08,1.00,
0.193,-0.18,-0.03,0.15,-0.05,0.08,1.00,
0.198,-0.18,-0.03,0.15,-0.05,0.08,1.00,
0.198,-0.19,-0.05,0.16,-0.05,0.08,1.00,
0.201,-0.19,-0.05,0.16,-0.05,0.08,1.00,
0.201,-0.19,-0.05,0.16,-0.05,0.07,1.00,
0.202,-0.18,-0.08,0.16,-0.05,0.07,1.00,
0.203,-0.18,-0.08,0.16,-0.05,0.07,1.00,
0.206,-0.18,-0.08,0.16,-0.05,0.08,1.00,
0.206,-0.17,-0.10,0.18,-0.05,0.08,1.00,
0.208,-0.17,-0.10,0.18,-0.05,0.08,1.00,
0.211,-0.17,-0.10,0.18,-0.04,0.08,1.00,
0.211,-0.15,-0.10,0.18,-0.04,0.08,1.00,
0.213,-0.15,-0.10,0.18,-0.04,0.08,1.00,
0.217,-0.15,-0.10,0.18,-0.04,0.08,1.00,
0.217,-0.10,-0.10,0.18,-0.04,0.08,1.00,
0.218,-0.10,-0.10,0.18,-0.04,0.08,1.00,
0.221,-0.10,-0.10,0.18,-0.04,0.08,1.00,
0.221,-0.05,-0.07,0.18,-0.04,0.08,1.00,
0.223,-0.05,-0.07,0.18,-0.04,0.08,1.00,
0.225,-0.05,-0.07,0.18,-0.04,0.08,0.99,
0.226,-0.04,-0.06,0.16,-0.04,0.08,0.99,
0.228,-0.04,-0.06,0.16,-0.04,0.08,0.99,
0.23,-0.04,-0.06,0.16,-0.04,0.08,0.99,
0.231,-0.01,-0.06,0.14,-0.04,0.08,0.99,
0.233,-0.01,-0.06,0.14,-0.03,0.08,0.99,
0.235,-0.01,-0.06,0.14,-0.04,0.07,0.99,
0.235,0.00,-0.07,0.13,-0.04,0.07,0.99,
0.238,0.00,-0.07,0.13,-0.04,0.07,0.99,
0.24,0.00,-0.07,0.13,-0.04,0.07,0.99,
0.24,0.02,-0.10,0.11,-0.04,0.07,0.99,
0.243,0.02,-0.10,0.11,-0.04,0.07,0.98,
0.245,0.02,-0.10,0.11,-0.04,0.07,0.98,
0.245,-0.01,-0.10,0.06,-0.04,0.07,0.98,
0.247,-0.01,-0.10,0.06,-0.04,0.07,0.98,
0.25,-0.01,-0.10,0.06,-0.04,0.07,0.98,
0.25,-0.04,-0.11,0.04,-0.04,0.07,0.98,
0.252,-0.04,-0.11,0.04,-0.05,0.07,0.98,
0.255,-0.04,-0.11,0.04,-0.05,0.07,0.98,
0.255,-0.07,-0.10,0.01,-0.05,0.07,0.98,
0.257,-0.07,-0.10,0.01,-0.05,0.07,0.98,
0.26,-0.07,-0.10,0.01,-0.05,0.07,0.98,
0.26,-0.11,-0.10,-0.02,-0.05,0.07,0.98,
0.266,-0.11,-0.10,-0.02,-0.05,0.07,0.97,
0.266,-0.11,-0.10,-0.02,-0.05,0.07,0.97,
0.266,-0.14,-0.10,-0.04,-0.05,0.07,0.97,
0.267,-0.14,-0.10,-0.04,-0.05,0.07,0.97,
0.269,-0.14,-0.10,-0.04,-0.05,0.07,0.98,
0.27,-0.14,-0.10,-0.06,-0.05,0.07,0.98,
0.272,-0.14,-0.10,-0.06,-0.05,0.07,0.98,
0.274,-0.14,-0.10,-0.06,-0.05,0.07,0.98,
0.274,-0.14,-0.09,-0.06,-0.05,0.07,0.98,
0.277,-0.14,-0.09,-0.06,-0.05,0.07,0.98,
0.279,-0.14,-0.09,-0.06,-0.05,0.07,0.98,
0.279,-0.16,-0.09,-0.04,-0.05,0.07,0.98,
0.282,-0.16,-0.09,-0.04,-0.05,0.07,0.98,
0.284,-0.16,-0.09,-0.04,-0.04,0.07,0.98,
0.285,-0.14,-0.09,-0.03,-0.04,0.07,0.98,
0.286,-0.14,-0.09,-0.03,-0.04,0.07,0.98,
0.289,-0.14,-0.09,-0.03,-0.04,0.07,0.98,
0.289,-0.10,-0.08,-0.01,-0.04,0.07,0.98,
0.291,-0.10,-0.08,-0.01,-0.04,0.07,0.98,
0.294,-0.10,-0.08,-0.01,-0.04,0.07,0.98,
0.294,-0.06,-0.07,0.02,-0.04,0.07,0.98,
0.297,-0.06,-0.07,0.02,-0.04,0.07,0.98,
0.299,-0.06,-0.07,0.02,-0.03,0.07,0.99,
0.299,-0.04,-0.09,0.03,-0.03,0.07,0.99,
0.301,-0.04,-0.09,0.03,-0.03,0.07,0.99,
0.304,-0.04,-0.09,0.03,-0.03,0.07,0.99,
0.304,0.00,-0.11,0.04,-0.03,0.07,0.99,
0.306,0.00,-0.11,0.04,-0.03,0.07,0.98,
0.308,0.00,-0.11,0.04,-0.03,0.07,0.98,
0.309,0.03,-0.12,0.05,-0.03,0.07,0.98,
0.311,0.03,-0.12,0.05,-0.03,0.07,0.98,
0.314,0.03,-0.12,0.05,-0.02,0.07,0.99,
0.315,0.08,-0.14,0.03,-0.02,0.07,0.99,
0.317,0.08,-0.14,0.03,-0.02,0.07,0.99,
0.318,0.08,-0.14,0.03,-0.02,0.07,0.99,
0.319,0.11,-0.13,0.04,-0.02,0.07,0.99,
0.321,0.11,-0.13,0.04,-0.02,0.07,0.99,
0.323,0.11,-0.13,0.04,-0.02,0.07,0.99,
0.323,0.14,-0.13,0.05,-0.02,0.07,0.99,
0.325,0.14,-0.13,0.05,-0.02,0.07,0.98,
0.329,0.14,-0.13,0.05,-0.02,0.07,0.99,
0.329,0.13,-0.11,0.05,-0.02,0.07,0.99,
0.331,0.13,-0.11,0.05,-0.02,0.07,0.98,
0.333,0.13,-0.11,0.05,-0.02,0.07,0.98,
0.333,0.14,-0.11,0.04,-0.02,0.07,0.98,
0.337,0.14,-0.11,0.04,-0.02,0.07,0.98,
0.338,0.14,-0.11,0.04,-0.03,0.07,0.98,
0.338,0.12,-0.13,0.02,-0.03,0.07,0.98,
0.341,0.12,-0.13,0.02,-0.03,0.07,0.98,
0.343,0.12,-0.13,0.02,-0.03,0.07,0.98,
0.343,0.09,-0.13,0.02,-0.03,0.07,0.98,
0.346,0.09,-0.13,0.02,-0.03,0.07,0.98,
0.348,0.09,-0.13,0.02,-0.03,0.07,0.98,
0.348,0.04,-0.11,-0.00,-0.03,0.07,0.98,
0.35,0.04,-0.11,-0.00,-0.04,0.07,0.98,
0.353,0.04,-0.11,-0.00,-0.04,0.07,0.97,
0.353,0.01,-0.10,-0.04,-0.04,0.07,0.97,
0.355,0.01,-0.10,-0.04,-0.04,0.07,0.97,
0.358,0.01,-0.10,-0.04,-0.04,0.07,0.97,
0.358,-0.02,-0.09,-0.06,-0.04,0.07,0.97,
0.36,-0.02,-0.09,-0.06,-0.04,0.07,0.97,
0.364,-0.02,-0.09,-0.06,-0.05,0.07,0.97,
0.364,-0.07,-0.08,-0.09,-0.05,0.07,0.97,
0.365,-0.07,-0.08,-0.09,-0.05,0.08,0.97,
0.367,-0.07,-0.08,-0.09,-0.05,0.08,0.97,
0.368,-0.11,-0.07,-0.09,-0.05,0.08,0.97,
0.37,-0.11,-0.07,-0.09,-0.05,0.08,0.97,
0.372,-0.11,-0.07,-0.09,-0.05,0.07,0.97,
0.372,-0.12,-0.05,-0.08,-0.05,0.07,0.97,
0.374,-0.12,-0.05,-0.08,-0.05,0.08,0.97,
0.377,-0.12,-0.05,-0.08,-0.05,0.07,0.98,
0.378,-0.13,-0.05,-0.09,-0.05,0.07,0.98,
0.386,-0.13,-0.05,-0.09,-0.05,0.07,0.98,
0.387,-0.13,-0.05,-0.09,-0.05,0.07,0.98,
0.387,-0.15,-0.06,-0.06,-0.05,0.07,0.98,
0.387,-0.15,-0.06,-0.06,-0.05,0.07,0.98,
0.387,-0.15,-0.06,-0.06,-0.05,0.07,0.98,
0.387,-0.15,-0.07,-0.03,-0.05,0.07,0.98,
0.389,-0.15,-0.07,-0.03,-0.05,0.07,0.98,
0.392,-0.15,-0.07,-0.03,-0.05,0.07,0.98,
0.392,-0.13,-0.07,-0.01,-0.05,0.07,0.98,
0.394,-0.13,-0.07,-0.01,-0.04,0.07,0.99,
0.397,-0.13,-0.07,-0.01,-0.04,0.07,0.99,
0.398,-0.10,-0.10,0.02,-0.04,0.07,0.99,
0.399,-0.10,-0.10,0.02,-0.04,0.07,0.99,
0.401,-0.10,-0.10,0.02,-0.04,0.07,0.99,
0.402,-0.04,-0.11,0.05,-0.04,0.07,0.99,
0.404,-0.04,-0.11,0.05,-0.03,0.06,0.99,
0.406,-0.04,-0.11,0.05,-0.03,0.06,0.99,
0.407,-0.00,-0.13,0.06,-0.03,0.06,0.99,
0.409,-0.00,-0.13,0.06,-0.03,0.06,0.99,
0.412,-0.00,-0.13,0.06,-0.03,0.06,0.99,
0.412,0.04,-0.16,0.07,-0.03,0.06,0.99,
0.414,0.04,-0.16,0.07,-0.03,0.06,0.99,
0.417,0.04,-0.16,0.07,-0.02,0.06,0.99,
0.417,0.10,-0.19,0.06,-0.02,0.06,0.99,
0.419,0.10,-0.19,0.06,-0.02,0.05,0.99,
0.421,0.10,-0.19,0.06,-0.02,0.05,0.99,
0.421,0.12,-0.22,0.05,-0.02,0.05,0.99,
0.423,0.12,-0.22,0.05,-0.02,0.05,0.99,
0.426,0.12,-0.22,0.05,-0.02,0.05,0.99,
0.426,0.13,-0.26,0.06,-0.02,0.05,0.99,
0.429,0.13,-0.26,0.06,-0.02,0.05,0.99,
0.431,0.13,-0.26,0.06,-0.02,0.05,0.99,
0.432,0.13,-0.28,0.04,-0.02,0.05,0.99,
0.433,0.13,-0.28,0.04,-0.02,0.05,0.99,
0.437,0.13,-0.28,0.04,-0.02,0.05,0.99,
0.437,0.16,-0.29,0.06,-0.02,0.05,0.99,
0.438,0.16,-0.29,0.06,-0.02,0.05,0.99,
0.441,0.16,-0.29,0.06,-0.02,0.05,0.99,
0.441,0.16,-0.29,0.09,-0.02,0.05,0.99,
0.443,0.16,-0.29,0.09,-0.02,0.05,0.99,
0.446,0.16,-0.29,0.09,-0.02,0.04,1.00,
0.446,0.17,-0.31,0.11,-0.02,0.04,1.00,
0.448,0.17,-0.31,0.11,-0.02,0.04,1.00,
0.45,0.17,-0.31,0.11,-0.02,0.04,1.00,
0.451,0.13,-0.33,0.14,-0.02,0.04,1.00,
0.453,0.13,-0.33,0.14,-0.02,0.04,1.00,
0.457,0.13,-0.33,0.14,-0.02,0.04,1.00,
0.457,0.15,-0.36,0.17,-0.02,0.04,1.00,
0.458,0.15,-0.36,0.17,-0.02,0.04,1.00,
0.46,0.15,-0.36,0.17,-0.02,0.04,1.00,
0.461,0.13,-0.37,0.15,-0.02,0.04,1.00,
0.465,0.13,-0.37,0.15,-0.02,0.04,1.00,
0.465,0.13,-0.37,0.15,-0.02,0.04,0.99,
0.466,0.14,-0.38,0.15,-0.02,0.04,0.99,
0.468,0.14,-0.38,0.15,-0.02,0.04,0.99,
0.47,0.14,-0.38,0.15,-0.02,0.04,0.99,
0.47,0.14,-0.39,0.12,-0.02,0.04,0.99,
0.473,0.14,-0.39,0.12,-0.02,0.04,0.99,
0.475,0.14,-0.39,0.12,-0.01,0.04,0.98,
0.475,0.16,-0.39,0.07,-0.01,0.04,0.98,
0.477,0.16,-0.39,0.07,-0.02,0.04,0.98,
0.48,0.16,-0.39,0.07,-0.01,0.04,0.98,
0.48,0.20,-0.36,0.03,-0.01,0.04,0.98,
0.482,0.20,-0.36,0.03,-0.01,0.04,0.98,
0.485,0.20,-0.36,0.03,-0.02,0.04,0.98,
0.485,0.19,-0.35,0.00,-0.02,0.04,0.98,
0.487,0.19,-0.35,0.00,-0.01,0.04,0.98,
0.49,0.19,-0.35,0.00,-0.01,0.04,0.98,
0.49,0.19,-0.34,-0.02,-0.01,0.04,0.98,
0.492,0.19,-0.34,-0.02,-0.01,0.04,0.97,
0.495,0.19,-0.34,-0.02,-0.01,0.04,0.97,
0.495,0.20,-0.33,-0.05,-0.01,0.04,0.97,
0.497,0.20,-0.33,-0.05,-0.01,0.04,0.97,
0.5,0.20,-0.33,-0.05,-0.01,0.04,0.97,
0.5,0.20,-0.34,-0.07,-0.01,0.04,0.97,
0.502,0.20,-0.34,-0.07,-0.01,0.04,0.97,
0.504,0.20,-0.34,-0.07,-0.01,0.04,0.97,
0.505,0.21,-0.34,-0.09,-0.01,0.04,0.97,
0.507,0.21,-0.34,-0.09,-0.01,0.04,0.97,
0.509,0.21,-0.34,-0.09,-0.01,0.04,0.97,
0.509,0.22,-0.34,-0.09,-0.01,0.04,0.97,
0.512,0.22,-0.34,-0.09,-0.00,0.04,0.97,
0.514,0.22,-0.34,-0.09,-0.00,0.04,0.97,
0.514,0.25,-0.35,-0.08,-0.00,0.04,0.97,
0.517,0.25,-0.35,-0.08,0.00,0.04,0.97,
0.519,0.25,-0.35,-0.08,0.00,0.04,0.98,
0.519,0.29,-0.33,-0.08,0.00,0.04,0.98,
0.521,0.29,-0.33,-0.08,0.00,0.04,0.98,
0.524,0.29,-0.33,-0.08,0.01,0.04,0.98,
0.525,0.35,-0.34,-0.06,0.01,0.04,0.98,
0.526,0.35,-0.34,-0.06,0.01,0.04,0.98,
0.529,0.35,-0.34,-0.06,0.01,0.04,0.98,
0.529,0.37,-0.35,-0.05,0.01,0.04,0.98,
0.531,0.37,-0.35,-0.05,0.01,0.04,0.98,
0.534,0.37,-0.35,-0.05,0.01,0.04,0.98,
0.534,0.41,-0.35,-0.02,0.01,0.04,0.98,
0.537,0.41,-0.35,-0.02,0.01,0.04,0.98,
0.539,0.41,-0.35,-0.02,0.01,0.04,0.98,
0.539,0.42,-0.35,-0.00,0.01,0.04,0.98,
0.541,0.42,-0.35,-0.00,0.01,0.04,0.98,
0.543,0.42,-0.35,-0.00,0.01,0.04,0.98,
0.544,0.42,-0.36,0.00,0.01,0.04,0.98,
0.546,0.42,-0.36,0.00,0.01,0.04,0.98,
0.548,0.42,-0.36,0.00,0.01,0.03,0.98,
0.549,0.41,-0.38,0.01,0.01,0.03,0.98,
0.551,0.41,-0.38,0.01,0.01,0.03,0.98,
0.553,0.41,-0.38,0.01,0.00,0.03,0.98,
0.553,0.38,-0.40,0.03,0.00,0.03,0.98,
0.557,0.38,-0.40,0.03,0.00,0.03,0.98,
0.558,0.38,-0.40,0.03,0.00,0.03,0.98,
0.558,0.36,-0.41,0.02,0.00,0.03,0.98,
0.561,0.36,-0.41,0.02,0.00,0.03,0.98,
0.569,0.36,-0.41,0.02,0.00,0.03,0.98,
0.57,0.34,-0.45,0.01,0.00,0.03,0.98,
0.57,0.34,-0.45,0.01,0.00,0.02,0.98,
0.57,0.34,-0.45,0.01,0.00,0.02,0.98,
0.571,0.33,-0.47,-0.03,0.00,0.02,0.98,
0.571,0.33,-0.47,-0.03,-0.00,0.02,0.97,
0.573,0.33,-0.47,-0.03,-0.00,0.02,0.97,
0.573,0.32,-0.49,-0.05,-0.00,0.02,0.97,
0.577,0.32,-0.49,-0.05,-0.00,0.02,0.97,
0.579,0.32,-0.49,-0.05,-0.00,0.02,0.97,
0.579,0.31,-0.52,-0.08,-0.00,0.02,0.97,
0.58,0.31,-0.52,-0.08,-0.00,0.01,0.97,
0.583,0.31,-0.52,-0.08,-0.00,0.01,0.97,
0.583,0.29,-0.56,-0.07,-0.00,0.01,0.97,
0.585,0.29,-0.56,-0.07,0.00,0.01,0.97,
0.587,0.29,-0.56,-0.07,0.00,0.01,0.98,
0.588,0.31,-0.60,-0.07,0.00,0.01,0.98,
0.59,0.31,-0.60,-0.07,0.00,0.01,0.98,
0.592,0.31,-0.60,-0.07,0.00,0.01,0.98,
0.593,0.33,-0.61,-0.06,0.00,0.01,0.98,
0.595,0.33,-0.61,-0.06,0.00,0.01,0.98,
0.598,0.33,-0.61,-0.06,0.00,0.01,0.99,
0.598,0.34,-0.61,-0.02,0.00,0.01,0.99,
0.6,0.34,-0.61,-0.02,0.00,0.01,0.99,
0.603,0.34,-0.61,-0.02,0.00,0.01,0.99,
0.603,0.35,-0.59,0.03,0.00,0.01,0.99,
0.605,0.35,-0.59,0.03,0.00,0.01,1.00,
0.607,0.35,-0.59,0.03,0.00,0.02,1.00,
0.607,0.36,-0.57,0.11,0.00,0.02,1.00,
0.609,0.36,-0.57,0.11,0.01,0.02,1.00,
0.612,0.36,-0.57,0.11,0.01,0.01,1.01,
0.613,0.38,-0.55,0.20,0.01,0.01,1.01,
0.615,0.38,-0.55,0.20,0.01,0.01,1.01,
0.617,0.38,-0.55,0.20,0.01,0.01,1.01,
0.618,0.39,-0.55,0.24,0.01,0.01,1.01,
0.62,0.39,-0.55,0.24,0.01,0.01,1.01,
0.622,0.39,-0.55,0.24,0.01,0.01,1.01,
0.622,0.41,-0.56,0.28,0.01,0.01,1.01,
0.624,0.41,-0.56,0.28,0.01,0.01,1.01,
0.627,0.41,-0.56,0.28,0.01,0.01,1.01,
0.627,0.41,-0.57,0.28,0.01,0.01,1.01,
0.629,0.41,-0.57,0.28,0.01,0.01,1.00,
0.632,0.41,-0.57,0.28,0.01,0.01,1.00,
0.632,0.42,-0.60,0.25,0.01,0.01,1.00,
0.634,0.42,-0.60,0.25,0.01,0.01,0.99,
0.638,0.42,-0.60,0.25,0.02,0.00,0.99,
0.638,0.42,-0.62,0.18,0.02,0.00,0.99,
0.639,0.42,-0.62,0.18,0.02,0.00,0.99,
0.641,0.42,-0.62,0.18,0.02,0.00,0.98,
0.642,0.45,-0.64,0.11,0.02,0.00,0.98,
0.645,0.45,-0.64,0.11,0.02,0.00,0.98,
0.647,0.45,-0.64,0.11,0.02,0.00,0.97,
0.647,0.48,-0.66,0.03,0.02,0.00,0.97,
0.649,0.48,-0.66,0.03,0.02,-0.00,0.97,
0.651,0.48,-0.66,0.03,0.03,-0.00,0.96,
0.652,0.50,-0.66,-0.06,0.03,-0.00,0.96,
0.654,0.50,-0.66,-0.06,0.03,-0.00,0.96,
0.657,0.50,-0.66,-0.06,0.03,-0.00,0.95,
0.658,0.54,-0.68,-0.17,0.03,-0.00,0.95,
0.659,0.54,-0.68,-0.17,0.03,-0.00,0.95,
0.662,0.54,-0.68,-0.17,0.03,-0.00,0.95,
0.662,0.56,-0.70,-0.26,0.03,-0.00,0.95,
0.663,0.56,-0.70,-0.26,0.03,-0.00,0.95,
0.666,0.56,-0.70,-0.26,0.03,-0.00,0.94,
0.666,0.58,-0.69,-0.31,0.03,-0.00,0.94,
0.668,0.58,-0.69,-0.31,0.03,-0.00,0.94,
0.671,0.58,-0.69,-0.31,0.03,-0.00,0.94,
0.671,0.60,-0.69,-0.35,0.03,-0.00,0.94,
0.673,0.60,-0.69,-0.35,0.03,-0.00,0.94,
0.677,0.60,-0.69,-0.35,0.03,0.00,0.94,
0.677,0.62,-0.68,-0.38,0.03,0.00,0.94,
0.683,0.62,-0.68,-0.38,0.03,0.00,0.94,
0.684,0.62,-0.68,-0.38,0.03,0.00,0.94,
0.684,0.61,-0.67,-0.37,0.03,0.00,0.94,
0.685,0.61,-0.67,-0.37,0.03,0.00,0.94,
0.685,0.61,-0.67,-0.37,0.03,0.00,0.95,
0.686,0.61,-0.64,-0.36,0.03,0.00,0.95,
0.688,0.61,-0.64,-0.36,0.03,0.01,0.95,
0.69,0.61,-0.64,-0.36,0.02,0.01,0.95,
0.691,0.57,-0.61,-0.33,0.02,0.01,0.95,
0.693,0.57,-0.61,-0.33,0.02,0.01,0.95,
0.697,0.57,-0.61,-0.33,0.02,0.02,0.96,
0.697,0.54,-0.56,-0.27,0.02,0.02,0.96,
0.698,0.54,-0.56,-0.27,0.01,0.02,0.96,
0.7,0.54,-0.56,-0.27,0.01,0.02,0.96,
0.701,0.48,-0.50,-0.23,0.01,0.02,0.96,
0.703,0.48,-0.50,-0.23,0.01,0.02,0.96,
0.705,0.48,-0.50,-0.23,0.00,0.02,0.96,
0.705,0.44,-0.46,-0.19,0.00,0.02,0.96,
0.707,0.44,-0.46,-0.19,0.00,0.02,0.96,
0.71,0.44,-0.46,-0.19,-0.00,0.02,0.97,
0.71,0.39,-0.44,-0.16,-0.00,0.02,0.97,
0.713,0.39,-0.44,-0.16,-0.01,0.03,0.97,
0.715,0.39,-0.44,-0.16,-0.01,0.02,0.97,
0.715,0.31,-0.41,-0.13,-0.01,0.02,0.97,
0.717,0.31,-0.41,-0.13,-0.01,0.02,0.97,
0.72,0.31,-0.41,-0.13,-0.01,0.02,0.97,
0.72,0.27,-0.39,-0.13,-0.01,0.02,0.97,
0.722,0.27,-0.39,-0.13,-0.01,0.02,0.97,
0.724,0.27,-0.39,-0.13,-0.02,0.02,0.97,
0.725,0.23,-0.39,-0.12,-0.02,0.02,0.97,
0.728,0.23,-0.39,-0.12,-0.02,0.02,0.97,
0.73,0.23,-0.39,-0.12,-0.02,0.02,0.97,
0.73,0.16,-0.39,-0.09,-0.02,0.02,0.97,
0.732,0.16,-0.39,-0.09,-0.03,0.02,0.97,
0.734,0.16,-0.39,-0.09,-0.03,0.02,0.97,
0.735,0.11,-0.39,-0.07,-0.03,0.02,0.97,
0.737,0.11,-0.39,-0.07,-0.03,0.02,0.97,
0.74,0.11,-0.39,-0.07,-0.03,0.02,0.98,
0.74,0.07,-0.41,-0.05,-0.03,0.02,0.98,
0.742,0.07,-0.41,-0.05,-0.03,0.02,0.98,
0.745,0.07,-0.41,-0.05,-0.03,0.02,0.97,
0.745,0.06,-0.40,-0.03,-0.03,0.02,0.97,
0.747,0.06,-0.40,-0.03,-0.04,0.02,0.98,
0.749,0.06,-0.40,-0.03,-0.04,0.02,0.98,
0.749,0.01,-0.40,-0.03,-0.04,0.02,0.98,
0.751,0.01,-0.40,-0.03,-0.04,0.02,0.98,
0.754,0.01,-0.40,-0.03,-0.04,0.02,0.97,
0.754,-0.02,-0.38,-0.02,-0.04,0.02,0.97,
0.757,-0.02,-0.38,-0.02,-0.04,0.02,0.97,
0.759,-0.02,-0.38,-0.02,-0.04,0.02,0.97,
0.759,-0.03,-0.37,-0.02,-0.04,0.02,0.97,
0.761,-0.03,-0.37,-0.02,-0.04,0.02,0.97,
0.764,-0.03,-0.37,-0.02,-0.04,0.02,0.97,
0.764,-0.04,-0.37,-0.05,-0.04,0.02,0.97,
0.766,-0.04,-0.37,-0.05,-0.04,0.02,0.97,
0.769,-0.04,-0.37,-0.05,-0.04,0.03,0.97,
0.77,-0.06,-0.34,-0.07,-0.04,0.03,0.97,
0.771,-0.06,-0.34,-0.07,-0.04,0.03,0.96,
0.774,-0.06,-0.34,-0.07,-0.04,0.03,0.96,
0.774,-0.09,-0.30,-0.11,-0.04,0.03,0.96,
0.782,-0.09,-0.30,-0.11,-0.04,0.04,0.96,
0.783,-0.09,-0.30,-0.11,-0.04,0.04,0.96,
0.783,-0.10,-0.23,-0.15,-0.04,0.04,0.96,
0.784,-0.10,-0.23,-0.15,-0.04,0.04,0.96,
0.784,-0.10,-0.23,-0.15,-0.04,0.04,0.95,
0.784,-0.11,-0.17,-0.20,-0.04,0.04,0.95,
0.786,-0.11,-0.17,-0.20,-0.04,0.04,0.95,
0.789,-0.11,-0.17,-0.20,-0.05,0.04,0.95,
0.789,-0.12,-0.13,-0.22,-0.05,0.04,0.95,
0.791,-0.12,-0.13,-0.22,-0.04,0.04,0.95,
0.793,-0.12,-0.13,-0.22,-0.04,0.04,0.95,
0.793,-0.16,-0.10,-0.24,-0.04,0.04,0.95,
0.797,-0.16,-0.10,-0.24,-0.04,0.05,0.95,
0.798,-0.16,-0.10,-0.24,-0.05,0.05,0.95,
0.798,-0.16,-0.08,-0.25,-0.05,0.05,0.95,
0.8,-0.16,-0.08,-0.25,-0.04,0.05,0.95,
0.803,-0.16,-0.08,-0.25,-0.04,0.05,0.95,
0.803,-0.17,-0.06,-0.26,-0.04,0.05,0.95,
0.805,-0.17,-0.06,-0.26,-0.04,0.04,0.95,
0.808,-0.17,-0.06,-0.26,-0.04,0.04,0.94,
0.808,-0.16,-0.05,-0.29,-0.04,0.04,0.94,
0.811,-0.16,-0.05,-0.29,-0.04,0.04,0.94,
0.813,-0.16,-0.05,-0.29,-0.04,0.04,0.95,
0.813,-0.15,-0.06,-0.32,-0.04,0.04,0.95,
0.816,-0.15,-0.06,-0.32,-0.04,0.03,0.95,
0.817,-0.15,-0.06,-0.32,-0.03,0.03,0.94,
0.818,-0.15,-0.10,-0.31,-0.03,0.03,0.94,
0.82,-0.15,-0.10,-0.31,-0.03,0.03,0.95,
0.822,-0.15,-0.10,-0.31,-0.03,0.03,0.95,
0.823,-0.10,-0.14,-0.31,-0.03,0.03,0.95,
0.825,-0.10,-0.14,-0.31,-0.03,0.03,0.95,
0.828,-0.10,-0.14,-0.31,-0.03,0.03,0.95,
0.828,-0.10,-0.12,-0.28,-0.03,0.03,0.95,
0.832,-0.10,-0.12,-0.28,-0.03,0.03,0.95,
0.832,-0.10,-0.12,-0.28,-0.03,0.03,0.96,
0.833,-0.07,-0.12,-0.24,-0.03,0.03,0.96,
0.835,-0.07,-0.12,-0.24,-0.03,0.03,0.96,
0.837,-0.07,-0.12,-0.24,-0.03,0.03,0.96,
0.838,-0.05,-0.12,-0.21,-0.03,0.03,0.96,
0.84,-0.05,-0.12,-0.21,-0.03,0.03,0.96,
0.842,-0.05,-0.12,-0.21,-0.03,0.03,0.97,
0.842,-0.07,-0.11,-0.18,-0.03,0.03,0.97,
0.844,-0.07,-0.11,-0.18,-0.03,0.03,0.96,
0.847,-0.07,-0.11,-0.18,-0.04,0.03,0.97,
0.847,-0.09,-0.10,-0.12,-0.04,0.03,0.97,
0.849,-0.09,-0.10,-0.12,-0.04,0.04,0.96,
0.852,-0.09,-0.10,-0.12,-0.04,0.04,0.96,
0.852,-0.16,-0.08,-0.11,-0.04,0.04,0.96,
0.854,-0.16,-0.08,-0.11,-0.04,0.04,0.96,
0.857,-0.16,-0.08,-0.11,-0.04,0.04,0.96,
0.857,-0.20,-0.04,-0.11,-0.04,0.04,0.96,
0.859,-0.20,-0.04,-0.11,-0.05,0.05,0.96,
0.865,-0.20,-0.04,-0.11,-0.05,0.05,0.96,
0.866,-0.24,0.02,-0.13,-0.05,0.05,0.96,
0.866,-0.24,0.02,-0.13,-0.05,0.05,0.96,
0.867,-0.24,0.02,-0.13,-0.05,0.05,0.96,
0.867,-0.30,0.08,-0.14,-0.05,0.05,0.96,
0.869,-0.30,0.08,-0.14,-0.05,0.06,0.95,
0.871,-0.30,0.08,-0.14,-0.05,0.06,0.95,
0.872,-0.33,0.14,-0.17,-0.05,0.06,0.95,
0.874,-0.33,0.14,-0.17,-0.05,0.06,0.95,
0.878,-0.33,0.14,-0.17,-0.05,0.06,0.95,
0.878,-0.35,0.19,-0.21,-0.05,0.06,0.95,
0.879,-0.35,0.19,-0.21,-0.05,0.06,0.95,
0.881,-0.35,0.19,-0.21,-0.05,0.06,0.95,
0.882,-0.35,0.20,-0.27,-0.05,0.06,0.95,
0.884,-0.35,0.20,-0.27,-0.05,0.06,0.95,
0.886,-0.35,0.20,-0.27,-0.05,0.06,0.94,
0.886,-0.34,0.21,-0.29,-0.05,0.06,0.94,
0.888,-0.34,0.21,-0.29,-0.05,0.07,0.94,
0.891,-0.34,0.21,-0.29,-0.05,0.06,0.94,
0.891,-0.33,0.25,-0.29,-0.05,0.06,0.94,
0.894,-0.33,0.25,-0.29,-0.05,0.06,0.94,
0.897,-0.33,0.25,-0.29,-0.05,0.06,0.94,
0.898,-0.34,0.26,-0.30,-0.05,0.06,0.94,
0.898,-0.34,0.26,-0.30,-0.05,0.06,0.94,
0.901,-0.34,0.26,-0.30,-0.06,0.06,0.95,
0.901,-0.35,0.26,-0.32,-0.06,0.06,0.95,
0.903,-0.35,0.26,-0.32,-0.05,0.06,0.95,
0.906,-0.35,0.26,-0.32,-0.06,0.06,0.95,
0.906,-0.36,0.24,-0.29,-0.06,0.06,0.95,
0.908,-0.36,0.24,-0.29,-0.06,0.06,0.96,
0.911,-0.36,0.24,-0.29,-0.06,0.06,0.96,
0.911,-0.37,0.23,-0.23,-0.06,0.06,0.96,
0.913,-0.37,0.23,-0.23,-0.06,0.05,0.96,
0.917,-0.37,0.23,-0.23,-0.06,0.06,0.97,
0.917,-0.38,0.21,-0.16,-0.06,0.06,0.97,
0.918,-0.38,0.21,-0.16,-0.06,0.05,0.97,
0.921,-0.38,0.21,-0.16,-0.06,0.05,0.97,
0.921,-0.37,0.19,-0.08,-0.06,0.05,0.97,
0.923,-0.37,0.19,-0.08,-0.06,0.05,0.98,
0.926,-0.37,0.19,-0.08,-0.06,0.05,0.98,
0.926,-0.35,0.16,-0.01,-0.06,0.05,0.98,
0.928,-0.35,0.16,-0.01,-0.06,0.05,0.98,
0.93,-0.35,0.14,0.04,-0.06,0.05,0.98,
0.931,-0.35,0.14,0.04,-0.06,0.05,0.98,
0.933,-0.35,0.14,0.04,-0.06,0.05,0.99,
0.936,-0.35,0.14,0.04,-0.06,0.05,0.99,
0.937,-0.37,0.14,0.08,-0.06,0.05,0.99,
0.938,-0.37,0.14,0.08,-0.06,0.06,0.99,
0.94,-0.37,0.14,0.08,-0.06,0.06,0.99,
0.941,-0.38,0.17,0.13,-0.06,0.06,0.99,
0.943,-0.38,0.17,0.13,-0.07,0.06,0.99,
0.945,-0.38,0.17,0.13,-0.07,0.06,0.99,
0.945,-0.39,0.23,0.14,-0.07,0.06,0.99,
0.947,-0.39,0.23,0.14,-0.07,0.07,0.99,
0.95,-0.39,0.23,0.14,-0.07,0.07,0.99,
0.95,-0.42,0.27,0.13,-0.07,0.07,0.99,
0.952,-0.42,0.27,0.13,-0.07,0.07,0.98,
0.955,-0.42,0.27,0.13,-0.08,0.08,0.98,
0.955,-0.45,0.32,0.11,-0.08,0.08,0.98,
0.957,-0.45,0.32,0.11,-0.08,0.08,0.98,
0.966,-0.45,0.32,0.11,-0.08,0.08,0.98,
0.967,-0.50,0.38,0.08,-0.08,0.08,0.98,
0.967,-0.50,0.38,0.08,-0.08,0.08,0.97,
0.968,-0.50,0.38,0.08,-0.08,0.08,0.97,
0.968,-0.55,0.43,0.04,-0.08,0.08,0.97,
0.968,-0.55,0.43,0.04,-0.08,0.08,0.97,
0.97,-0.55,0.43,0.04,-0.09,0.09,0.96,
0.97,-0.55,0.46,-0.03,-0.09,0.09,0.96,
0.972,-0.55,0.46,-0.03,-0.09,0.09,0.96,
0.974,-0.55,0.46,-0.03,-0.09,0.09,0.96,
0.974,-0.57,0.49,-0.09,-0.09,0.09,0.96,
0.977,-0.57,0.49,-0.09,-0.09,0.09,0.95,
0.979,-0.57,0.49,-0.09,-0.09,0.09,0.95,
0.98,-0.58,0.50,-0.15,-0.09,0.09,0.95,
0.982,-0.58,0.50,-0.15,-0.08,0.09,0.95,
0.984,-0.58,0.50,-0.15,-0.09,0.09,0.94,
0.984,-0.58,0.53,-0.22,-0.09,0.09,0.94,
0.986,-0.58,0.53,-0.22,-0.09,0.09,0.94,
0.989,-0.58,0.53,-0.22,-0.08,0.09,0.94,
0.989,-0.58,0.52,-0.29,-0.08,0.09,0.94,
0.991,-0.58,0.52,-0.29,-0.08,0.08,0.94,
0.995,-0.58,0.52,-0.29,-0.09,0.08,0.93,
0.995,-0.57,0.50,-0.33,-0.09,0.08,0.93,
0.997,-0.57,0.50,-0.33,-0.08,0.08,0.93,
0.999,-0.57,0.50,-0.33,-0.08,0.08,0.93,
1.0,-0.58,0.48,-0.39,-0.08,0.08,0.93,
1.001,-0.58,0.48,-0.39,-0.08,0.08,0.93,
1.004,-0.58,0.48,-0.39,-0.08,0.08,0.92,
1.004,-0.54,0.47,-0.44,-0.08,0.08,0.92,
1.006,-0.54,0.47,-0.44,-0.07,0.08,0.93,
1.009,-0.54,0.47,-0.44,-0.07,0.08,0.93,
1.009,-0.49,0.44,-0.46,-0.07,0.08,0.93,
1.011,-0.49,0.44,-0.46,-0.07,0.07,0.93,
1.014,-0.49,0.44,-0.46,-0.07,0.07,0.93,
1.016,-0.45,0.42,-0.45,-0.07,0.07,0.93,
1.017,-0.45,0.42,-0.45,-0.07,0.07,0.93,
1.018,-0.45,0.42,-0.45,-0.06,0.07,0.94,
1.019,-0.42,0.40,-0.42,-0.06,0.07,0.94,
1.021,-0.42,0.40,-0.42,-0.06,0.08,0.94,
1.023,-0.42,0.40,-0.42,-0.06,0.07,0.94,
1.024,-0.39,0.41,-0.37,-0.06,0.07,0.94,
1.026,-0.39,0.41,-0.37,-0.06,0.08,0.95,
1.028,-0.39,0.41,-0.37,-0.06,0.08,0.95,
1.029,-0.35,0.42,-0.28,-0.06,0.08,0.95,
1.031,-0.35,0.42,-0.28,-0.06,0.08,0.95,
1.033,-0.35,0.42,-0.28,-0.06,0.08,0.95,
1.034,-0.36,0.44,-0.24,-0.06,0.08,0.95,
1.037,-0.36,0.44,-0.24,-0.06,0.08,0.95,
1.038,-0.36,0.44,-0.24,-0.06,0.08,0.95,
1.038,-0.36,0.46,-0.19,-0.06,0.08,0.95,
1.04,-0.36,0.46,-0.19,-0.05,0.08,0.95,
1.044,-0.36,0.46,-0.19,-0.05,0.08,0.96,
1.045,-0.34,0.48,-0.17,-0.05,0.08,0.96,
1.046,-0.34,0.48,-0.17,-0.05,0.08,0.96,
1.048,-0.34,0.48,-0.17,-0.05,0.09,0.96,
1.048,-0.31,0.51,-0.16,-0.05,0.09,0.96,
1.05,-0.31,0.51,-0.16,-0.05,0.09,0.96,
1.053,-0.31,0.51,-0.16,-0.05,0.09,0.96,
1.053,-0.30,0.57,-0.15,-0.05,0.09,0.96,
1.056,-0.30,0.57,-0.15,-0.04,0.09,0.95,
1.058,-0.30,0.57,-0.15,-0.04,0.10,0.96,
1.058,-0.25,0.63,-0.15,-0.04,0.10,0.96,
1.061,-0.25,0.63,-0.15,-0.04,0.10,0.96,
1.063,-0.25,0.63,-0.15,-0.03,0.10,0.96,
1.063,-0.21,0.69,-0.15,-0.03,0.10,0.96,
1.065,-0.21,0.69,-0.15,-0.03,0.10,0.96,
1.067,-0.21,0.69,-0.15,-0.03,0.10,0.96,
1.068,-0.17,0.74,-0.15,-0.03,0.10,0.96,
1.07,-0.17,0.74,-0.15,-0.03,0.10,0.96,
1.072,-0.17,0.74,-0.15,-0.03,0.11,0.96,
1.073,-0.13,0.77,-0.13,-0.03,0.11,0.96,
1.075,-0.13,0.77,-0.13,-0.02,0.11,0.96,
1.083,-0.13,0.77,-0.13,-0.02,0.11,0.97,
1.083,-0.10,0.81,-0.09,-0.02,0.11,0.97,
1.084,-0.10,0.81,-0.09,-0.02,0.11,0.97,
1.084,-0.10,0.81,-0.09,-0.02,0.11,0.97,
1.084,-0.06,0.84,-0.04,-0.02,0.11,0.97,
1.084,-0.06,0.84,-0.04,-0.02,0.11,0.97,
1.087,-0.06,0.84,-0.04,-0.02,0.11,0.98,
1.087,-0.01,0.87,-0.01,-0.02,0.11,0.98,
1.089,-0.01,0.87,-0.01,-0.01,0.12,0.98,
1.092,-0.01,0.87,-0.01,-0.01,0.12,0.99,
1.092,0.01,0.90,0.06,-0.01,0.12,0.99,
1.1,0.01,0.90,0.06,-0.01,0.12,0.99,
1.1,0.01,0.90,0.06,-0.01,0.12,1.00,
1.1,0.04,0.94,0.15,-0.01,0.12,1.00,
1.1,0.04,0.94,0.15,-0.01,0.12,1.00,
1.102,0.04,0.94,0.15,-0.01,0.12,1.01,
1.102,0.09,0.96,0.23,-0.01,0.12,1.01,
1.104,0.09,0.96,0.23,-0.01,0.12,1.01,
1.106,0.09,0.96,0.23,-0.01,0.13,1.01,
1.107,0.09,0.99,0.31,-0.01,0.13,1.01,
1.109,0.09,0.99,0.31,-0.01,0.13,1.01,
1.111,0.09,0.99,0.31,-0.02,0.13,1.02,
1.112,0.06,1.04,0.38,-0.02,0.13,1.02,
1.114,0.06,1.04,0.38,-0.02,0.14,1.02,
1.117,0.06,1.04,0.38,-0.02,0.14,1.02,
1.118,0.04,1.09,0.43,-0.02,0.14,1.02,
1.119,0.04,1.09,0.43,-0.02,0.14,1.02,
1.121,0.04,1.09,0.43,-0.03,0.15,1.02,
1.122,-0.01,1.15,0.47,-0.03,0.15,1.02,
1.124,-0.01,1.15,0.47,-0.03,0.15,1.02,
1.127,-0.01,1.15,0.47,-0.03,0.15,1.02,
1.127,-0.06,1.20,0.50,-0.03,0.15,1.02,
1.129,-0.06,1.20,0.50,-0.04,0.15,1.02,
1.131,-0.06,1.20,0.50,-0.04,0.16,1.03,
1.132,-0.11,1.23,0.49,-0.04,0.16,1.03,
1.133,-0.11,1.23,0.49,-0.04,0.16,1.03,
1.137,-0.11,1.23,0.49,-0.04,0.16,1.03,
1.137,-0.16,1.28,0.51,-0.04,0.16,1.03,
1.138,-0.16,1.28,0.51,-0.04,0.16,1.03,
1.141,-0.16,1.28,0.51,-0.04,0.16,1.03,
1.141,-0.18,1.32,0.51,-0.04,0.16,1.03,
1.144,-0.18,1.32,0.51,-0.04,0.17,1.03,
1.146,-0.18,1.32,0.51,-0.05,0.17,1.02,
1.146,-0.20,1.36,0.51,-0.05,0.17,1.02,
1.148,-0.20,1.36,0.51,-0.05,0.17,1.02,
1.151,-0.20,1.36,0.51,-0.05,0.18,1.02,
1.151,-0.23,1.40,0.49,-0.05,0.18,1.02,
1.153,-0.23,1.40,0.49,-0.05,0.18,1.02,
1.157,-0.23,1.40,0.49,-0.05,0.18,1.02,
1.157,-0.25,1.47,0.47,-0.05,0.18,1.02,
1.158,-0.25,1.47,0.47,-0.05,0.18,1.02,
1.16,-0.25,1.47,0.47,-0.05,0.18,1.02,
1.161,-0.29,1.48,0.43,-0.05,0.18,1.02,
1.163,-0.29,1.48,0.43,-0.06,0.18,1.02,
1.165,-0.29,1.48,0.43,-0.06,0.19,1.01,
1.166,-0.29,1.51,0.40,-0.06,0.19,1.01,
1.168,-0.29,1.51,0.40,-0.06,0.19,1.01,
1.17,-0.29,1.51,0.40,-0.06,0.19,1.02,
1.17,-0.34,1.54,0.38,-0.06,0.19,1.02,
1.172,-0.34,1.54,0.38,-0.06,0.19,1.02,
1.175,-0.34,1.54,0.38,-0.06,0.19,1.02,
1.175,-0.35,1.55,0.37,-0.06,0.19,1.02,
1.178,-0.35,1.55,0.37,-0.06,0.19,1.02,
1.184,-0.35,1.55,0.37,-0.06,0.19,1.02,
1.185,-0.36,1.57,0.38,-0.06,0.19,1.02,
1.185,-0.36,1.57,0.38,-0.06,0.19,1.02,
1.185,-0.36,1.57,0.38,-0.05,0.19,1.02,
1.185,-0.33,1.59,0.39,-0.05,0.19,1.02,
1.187,-0.33,1.59,0.39,-0.05,0.19,1.02,
1.19,-0.33,1.59,0.39,-0.05,0.19,1.02,
1.19,-0.29,1.57,0.40,-0.05,0.19,1.02,
1.192,-0.29,1.57,0.40,-0.05,0.19,1.03,
1.195,-0.29,1.57,0.40,-0.05,0.19,1.03,
1.195,-0.25,1.55,0.43,-0.05,0.19,1.03,
1.197,-0.25,1.55,0.43,-0.04,0.19,1.03,
1.2,-0.25,1.55,0.43,-0.04,0.19,1.03,
1.2,-0.22,1.54,0.46,-0.04,0.19,1.03,
1.202,-0.22,1.54,0.46,-0.04,0.18,1.03,
1.204,-0.22,1.54,0.46,-0.04,0.18,1.04,
1.205,-0.16,1.53,0.51,-0.04,0.18,1.04,
1.207,-0.16,1.53,0.51,-0.04,0.19,1.04,
1.21,-0.16,1.53,0.51,-0.03,0.18,1.05,
1.21,-0.12,1.49,0.55,-0.03,0.18,1.05,
1.212,-0.12,1.49,0.55,-0.03,0.18,1.05,
1.214,-0.12,1.49,0.55,-0.03,0.18,1.06,
1.214,-0.05,1.50,0.62,-0.03,0.18,1.06,
1.217,-0.05,1.50,0.62,-0.03,0.18,1.06,
1.219,-0.05,1.50,0.62,-0.03,0.18,1.07,
1.219,-0.01,1.46,0.71,-0.03,0.18,1.07,
1.221,-0.01,1.46,0.71,-0.03,0.18,1.07,
1.224,-0.01,1.46,0.71,-0.03,0.17,1.08,
1.224,-0.00,1.42,0.83,-0.03,0.17,1.08,
1.226,-0.00,1.42,0.83,-0.03,0.17,1.09,
1.229,-0.00,1.42,0.83,-0.03,0.17,1.09,
1.229,0.00,1.39,0.93,-0.03,0.17,1.09,
1.231,0.00,1.39,0.93,-0.03,0.17,1.09,
1.234,0.00,1.39,0.93,-0.03,0.17,1.10,
1.234,-0.03,1.34,1.03,-0.03,0.17,1.10,
1.237,-0.03,1.34,1.03,-0.03,0.17,1.10,
1.239,-0.03,1.34,1.03,-0.04,0.17,1.10,
1.239,-0.01,1.31,1.09,-0.04,0.17,1.10,
1.241,-0.01,1.31,1.09,-0.04,0.17,1.10,
1.244,-0.01,1.31,1.09,-0.04,0.17,1.10,
1.245,-0.03,1.30,1.11,-0.04,0.17,1.10,
1.246,-0.03,1.30,1.11,-0.04,0.16,1.10,
1.249,-0.03,1.30,1.11,-0.04,0.16,1.10,
1.249,-0.05,1.29,1.13,-0.04,0.16,1.10,
1.251,-0.05,1.29,1.13,-0.04,0.16,1.10,
1.253,-0.05,1.29,1.13,-0.04,0.16,1.09,
1.254,-0.05,1.25,1.11,-0.04,0.16,1.09,
1.257,-0.05,1.25,1.11,-0.04,0.16,1.09,
1.258,-0.05,1.25,1.11,-0.04,0.16,1.09,
1.259,-0.04,1.23,1.05,-0.04,0.16,1.09,
1.261,-0.04,1.23,1.05,-0.03,0.16,1.09,
1.263,-0.04,1.23,1.05,-0.03,0.16,1.08,
1.264,-0.03,1.22,0.98,-0.03,0.16,1.08,
1.265,-0.03,1.22,0.98,-0.03,0.16,1.08,
1.268,-0.03,1.22,0.98,-0.03,0.16,1.07,
1.269,0.01,1.20,0.92,-0.03,0.16,1.07,
1.27,0.01,1.20,0.92,-0.03,0.16,1.07,
1.273,0.01,1.20,0.92,-0.02,0.16,1.06,
1.274,0.05,1.18,0.83,-0.02,0.16,1.06,
1.283,0.05,1.18,0.83,-0.02,0.16,1.06,
1.284,0.05,1.18,0.83,-0.02,0.16,1.05,
1.284,0.11,1.16,0.73,-0.02,0.16,1.05,
1.285,0.11,1.16,0.73,-0.01,0.16,1.05,
1.285,0.11,1.16,0.73,-0.01,0.16,1.04,
1.285,0.17,1.13,0.62,-0.01,0.16,1.04,
1.285,0.17,1.13,0.62,-0.01,0.16,1.04,
1.288,0.17,1.13,0.62,-0.01,0.15,1.03,
1.288,0.23,1.11,0.53,-0.01,0.15,1.03,
1.29,0.23,1.11,0.53,-0.00,0.15,1.03,
1.293,0.23,1.11,0.53,-0.00,0.15,1.03,
1.293,0.28,1.07,0.43,-0.00,0.15,1.03,
1.295,0.28,1.07,0.43,0.00,0.15,1.02,
1.298,0.28,1.07,0.43,0.00,0.15,1.02,
1.298,0.34,1.03,0.36,0.00,0.15,1.02,
1.3,0.34,1.03,0.36,0.01,0.15,1.02,
1.303,0.34,1.03,0.36,0.01,0.15,1.02,
1.303,0.37,1.01,0.30,0.01,0.15,1.02,
1.305,0.37,1.01,0.30,0.01,0.15,1.02,
1.307,0.37,1.01,0.30,0.02,0.15,1.02,
1.307,0.44,0.97,0.25,0.02,0.15,1.02,
1.31,0.44,0.97,0.25,0.02,0.14,1.02,
1.312,0.44,0.97,0.25,0.02,0.14,1.02,
1.312,0.49,0.93,0.26,0.02,0.14,1.02,
1.314,0.49,0.93,0.26,0.02,0.14,1.02,
1.317,0.49,0.93,0.26,0.02,0.14,1.03,
1.317,0.55,0.89,0.26,0.02,0.14,1.03,
1.319,0.55,0.89,0.26,0.03,0.14,1.03,
1.322,0.55,0.89,0.26,0.03,0.14,1.03,
1.322,0.57,0.86,0.30,0.03,0.14,1.03,
1.325,0.57,0.86,0.30,0.03,0.14,1.03,
1.327,0.57,0.86,0.30,0.02,0.13,1.03,
1.328,0.60,0.81,0.31,0.02,0.13,1.03,
1.33,0.60,0.81,0.31,0.03,0.13,1.03,
1.332,0.60,0.81,0.31,0.03,0.13,1.03,
1.333,0.60,0.78,0.33,0.03,0.13,1.03,
1.334,0.60,0.78,0.33,0.03,0.13,1.03,
1.337,0.60,0.78,0.33,0.03,0.13,1.03,
1.338,0.60,0.73,0.32,0.03,0.13,1.03,
1.339,0.60,0.73,0.32,0.03,0.13,1.03,
1.342,0.60,0.73,0.32,0.02,0.13,1.03,
1.342,0.60,0.70,0.33,0.02,0.13,1.03,
1.344,0.60,0.70,0.33,0.02,0.13,1.03,
1.347,0.60,0.70,0.33,0.03,0.13,1.03,
1.347,0.59,0.66,0.34,0.03,0.13,1.03,
1.349,0.59,0.66,0.34,0.03,0.12,1.03,
1.351,0.59,0.66,0.34,0.02,0.12,1.03,
1.352,0.58,0.65,0.34,0.02,0.12,1.03,
1.354,0.58,0.65,0.34,0.02,0.12,1.03,
1.358,0.58,0.62,0.34,0.02,0.12,1.03,
1.358,0.58,0.62,0.34,0.02,0.12,1.03,
1.365,0.58,0.62,0.34,0.03,0.12,1.03,
1.366,0.58,0.62,0.34,0.03,0.13,1.02,
1.366,0.58,0.61,0.32,0.03,0.13,1.02,
1.366,0.58,0.61,0.32,0.03,0.13,1.02,
1.367,0.58,0.61,0.32,0.03,0.13,1.02,
1.367,0.60,0.60,0.29,0.03,0.13,1.02,
1.369,0.60,0.60,0.29,0.03,0.12,1.02,
1.371,0.60,0.60,0.29,0.03,0.12,1.02,
1.372,0.60,0.60,0.24,0.03,0.12,1.02,
1.373,0.60,0.60,0.24,0.03,0.12,1.01,
1.378,0.60,0.60,0.24,0.03,0.12,1.01,
1.378,0.59,0.57,0.20,0.03,0.12,1.01,
1.378,0.59,0.57,0.20,0.03,0.12,1.01,
1.384,0.59,0.57,0.20,0.03,0.12,1.01,
1.384,0.60,0.53,0.17,0.03,0.12,1.01,
1.385,0.60,0.53,0.17,0.03,0.12,1.01,
1.386,0.60,0.53,0.17,0.03,0.12,1.01,
1.387,0.62,0.51,0.13,0.03,0.12,1.01,
1.388,0.62,0.51,0.13,0.03,0.12,1.01,
1.39,0.62,0.51,0.13,0.03,0.12,1.01,
1.391,0.65,0.47,0.12,0.03,0.12,1.01,
1.393,0.65,0.47,0.12,0.03,0.12,1.01,
1.397,0.65,0.47,0.12,0.03,0.11,1.01,
1.397,0.67,0.45,0.11,0.03,0.11,1.01,
1.398,0.67,0.45,0.11,0.03,0.11,1.00,
1.4,0.67,0.45,0.11,0.03,0.11,1.00,
1.4,0.66,0.40,0.09,0.03,0.11,1.00,
1.402,0.66,0.40,0.09,0.03,0.11,1.00,
1.405,0.66,0.40,0.09,0.03,0.11,1.00,
1.405,0.62,0.34,0.08,0.03,0.11,1.00,
1.408,0.62,0.34,0.08,0.03,0.10,1.00,
1.41,0.62,0.34,0.08,0.02,0.10,1.00,
1.411,0.62,0.30,0.05,0.02,0.10,1.00,
1.412,0.62,0.30,0.05,0.02,0.10,0.99,
1.415,0.59,0.23,0.01,0.02,0.10,0.99,
1.415,0.59,0.23,0.01,0.02,0.10,0.99,
1.417,0.59,0.23,0.01,0.02,0.09,0.99,
1.42,0.59,0.23,0.01,0.02,0.09,0.99,
1.42,0.57,0.17,-0.01,0.02,0.09,0.99,
1.422,0.57,0.17,-0.01,0.02,0.09,0.99,
1.425,0.57,0.17,-0.01,0.02,0.09,0.99,
1.425,0.55,0.12,-0.03,0.02,0.09,0.99,
1.427,0.55,0.12,-0.03,0.02,0.09,0.99,
1.43,0.55,0.12,-0.03,0.02,0.09,0.99,
1.43,0.55,0.08,-0.08,0.02,0.09,0.99,
1.432,0.55,0.08,-0.08,0.02,0.09,0.98,
1.435,0.55,0.08,-0.08,0.02,0.09,0.99,
1.435,0.57,0.06,-0.08,0.02,0.09,0.99,
1.437,0.57,0.06,-0.08,0.02,0.09,0.98,
1.44,0.57,0.06,-0.08,0.02,0.09,0.98,
1.44,0.57,0.06,-0.10,0.02,0.09,0.98,
1.443,0.57,0.06,-0.10,0.02,0.09,0.98,
1.445,0.57,0.06,-0.10,0.02,0.09,0.98,
1.445,0.55,0.04,-0.13,0.02,0.09,0.98,
1.447,0.55,0.04,-0.13,0.02,0.09,0.98,
1.449,0.55,0.04,-0.13,0.02,0.09,0.98,
1.45,0.55,0.06,-0.14,0.02,0.09,0.98,
1.452,0.55,0.06,-0.14,0.02,0.09,0.98,
1.454,0.55,0.06,-0.14,0.02,0.09,0.98,
1.455,0.55,0.07,-0.14,0.02,0.09,0.98,
1.458,0.55,0.07,-0.14,0.02,0.09,0.98,
1.46,0.55,0.07,-0.14,0.02,0.09,0.98,
1.461,0.52,0.06,-0.13,0.02,0.09,0.98,
1.462,0.52,0.06,-0.13,0.02,0.09,0.98,
1.464,0.52,0.06,-0.13,0.01,0.09,0.98,
1.465,0.51,0.04,-0.11,0.01,0.09,0.98,
1.466,0.51,0.04,-0.11,0.01,0.09,0.98,
1.469,0.51,0.04,-0.11,0.01,0.09,0.99,
1.469,0.47,0.02,-0.10,0.01,0.09,0.99,
1.471,0.47,0.02,-0.10,0.01,0.09,0.99,
1.474,0.47,0.02,-0.10,0.01,0.09,0.99,
1.474,0.45,0.01,-0.09,0.01,0.09,0.99,
1.482,0.45,0.01,-0.09,0.01,0.09,0.99,
1.483,0.45,0.01,-0.09,0.01,0.09,0.99,
1.483,0.43,-0.01,-0.06,0.01,0.09,0.99,
1.483,0.43,-0.01,-0.06,0.01,0.09,0.99,
1.484,0.43,-0.01,-0.06,0.01,0.08,0.98,
1.484,0.38,-0.03,-0.06,0.01,0.08,0.98,
1.486,0.38,-0.03,-0.06,0.00,0.08,0.98,
1.489,0.38,-0.03,-0.06,0.00,0.08,0.98,
1.489,0.35,-0.07,-0.08,0.00,0.08,0.98,
1.491,0.35,-0.07,-0.08,0.00,0.08,0.98,
1.495,0.35,-0.07,-0.08,0.00,0.07,0.98,
1.496,0.32,-0.10,-0.11,0.00,0.07,0.98,
1.497,0.32,-0.10,-0.11,0.00,0.07,0.97,
1.498,0.32,-0.10,-0.11,-0.00,0.07,0.97,
1.499,0.31,-0.17,-0.14,-0.00,0.07,0.97,
1.501,0.31,-0.17,-0.14,-0.00,0.07,0.96,
1.503,0.31,-0.17,-0.14,-0.00,0.07,0.96,
1.504,0.28,-0.22,-0.21,-0.00,0.07,0.96,
1.505,0.28,-0.22,-0.21,-0.00,0.07,0.95,
1.509,0.28,-0.22,-0.21,-0.00,0.07,0.95,
1.51,0.26,-0.26,-0.31,-0.00,0.07,0.95,
1.51,0.26,-0.26,-0.31,-0.00,0.07,0.94,
1.513,0.26,-0.26,-0.31,-0.00,0.06,0.94,
1.513,0.24,-0.29,-0.41,-0.00,0.06,0.94,
1.517,0.24,-0.29,-0.41,-0.00,0.06,0.93,
1.518,0.24,-0.29,-0.41,-0.00,0.06,0.93,
1.518,0.22,-0.32,-0.49,-0.00,0.06,0.93,
1.521,0.22,-0.32,-0.49,-0.00,0.06,0.92,
1.523,0.22,-0.32,-0.49,-0.00,0.06,0.92,
1.523,0.23,-0.35,-0.59,-0.00,0.06,0.92,
1.526,0.23,-0.35,-0.59,0.00,0.06,0.91,
1.528,0.23,-0.35,-0.59,-0.00,0.06,0.91,
1.528,0.21,-0.39,-0.69,-0.00,0.06,0.91,
1.53,0.21,-0.39,-0.69,-0.00,0.06,0.91,
1.533,0.21,-0.39,-0.69,-0.01,0.06,0.90,
1.533,0.21,-0.40,-0.76,-0.01,0.06,0.90,
1.535,0.21,-0.40,-0.76,-0.01,0.06,0.90,
1.538,0.21,-0.40,-0.76,-0.01,0.05,0.90,
1.538,0.16,-0.42,-0.82,-0.01,0.05,0.90,
1.54,0.16,-0.42,-0.82,-0.01,0.05,0.90,
1.543,0.16,-0.42,-0.82,-0.01,0.05,0.90,
1.545,0.11,-0.44,-0.85,-0.01,0.05,0.90,
1.546,0.11,-0.44,-0.85,-0.02,0.06,0.90,
1.547,0.11,-0.44,-0.85,-0.02,0.06,0.90,
1.548,0.06,-0.45,-0.86,-0.02,0.06,0.90,
1.55,0.06,-0.45,-0.86,-0.02,0.06,0.90,
1.552,0.06,-0.45,-0.86,-0.03,0.06,0.91,
1.552,-0.00,-0.42,-0.82,-0.03,0.06,0.91,
1.554,-0.00,-0.42,-0.82,-0.03,0.06,0.91,
1.557,-0.08,-0.41,-0.78,-0.03,0.06,0.91,
1.558,-0.08,-0.41,-0.78,-0.03,0.06,0.92,
1.559,-0.08,-0.41,-0.78,-0.04,0.06,0.92,
1.562,-0.08,-0.41,-0.78,-0.04,0.07,0.93,
1.562,-0.16,-0.37,-0.70,-0.04,0.07,0.93,
1.564,-0.16,-0.37,-0.70,-0.05,0.07,0.93,
1.567,-0.16,-0.37,-0.70,-0.05,0.07,0.94,
1.567,-0.24,-0.33,-0.60,-0.05,0.07,0.94,
1.569,-0.24,-0.33,-0.60,-0.05,0.07,0.94,
1.572,-0.24,-0.33,-0.60,-0.05,0.07,0.95,
1.572,-0.29,-0.31,-0.50,-0.05,0.07,0.95,
1.574,-0.29,-0.31,-0.50,-0.05,0.07,0.95,
1.578,-0.29,-0.31,-0.50,-0.05,0.07,0.95,
1.578,-0.30,-0.28,-0.40,-0.05,0.07,0.95,
1.579,-0.30,-0.28,-0.40,-0.05,0.07,0.96,
1.582,-0.30,-0.28,-0.40,-0.04,0.07,0.96,
1.582,-0.31,-0.26,-0.31,-0.04,0.07,0.96,
1.584,-0.31,-0.26,-0.31,-0.04,0.07,0.96,
1.586,-0.31,-0.26,-0.31,-0.04,0.07,0.96,
1.586,-0.28,-0.26,-0.25,-0.04,0.07,0.96,
1.589,-0.28,-0.26,-0.25,-0.03,0.07,0.96,
1.592,-0.28,-0.26,-0.25,-0.03,0.07,0.96,
1.593,-0.23,-0.27,-0.22,-0.03,0.07,0.96,
1.594,-0.23,-0.27,-0.22,-0.02,0.06,0.96,
1.597,-0.23,-0.27,-0.22,-0.01,0.06,0.96,
1.598,-0.15,-0.30,-0.20,-0.01,0.06,0.96,
1.599,-0.15,-0.30,-0.20,-0.01,0.06,0.96,
1.601,-0.15,-0.30,-0.20,-0.00,0.06,0.96,
1.601,-0.05,-0.33,-0.23,-0.00,0.06,0.96,
1.603,-0.05,-0.33,-0.23,0.01,0.05,0.95,
1.606,-0.05,-0.33,-0.23,0.01,0.05,0.95,
1.606,0.05,-0.37,-0.26,0.01,0.05,0.95,
1.609,0.05,-0.37,-0.26,0.01,0.05,0.95,
1.611,0.05,-0.37,-0.26,0.02,0.05,0.95,
1.611,0.18,-0.44,-0.31,0.02,0.05,0.95,
1.613,0.18,-0.44,-0.31,0.02,0.05,0.95,
1.617,0.18,-0.44,-0.31,0.02,0.05,0.94,
1.617,0.26,-0.44,-0.35,0.02,0.05,0.94,
1.618,0.26,-0.44,-0.35,0.03,0.05,0.94,
1.621,0.26,-0.44,-0.35,0.02,0.04,0.94,
1.621,0.31,-0.47,-0.36,0.02,0.04,0.94,
1.623,0.31,-0.47,-0.36,0.03,0.04,0.94,
1.627,0.31,-0.47,-0.36,0.02,0.04,0.94,
1.628,0.31,-0.51,-0.37,0.02,0.04,0.94,
1.628,0.31,-0.51,-0.37,0.02,0.04,0.94,
1.631,0.31,-0.51,-0.37,0.01,0.04,0.94,
1.631,0.29,-0.56,-0.36,0.01,0.04,0.94,
1.633,0.29,-0.56,-0.36,0.01,0.04,0.94,
1.637,0.29,-0.56,-0.36,0.01,0.04,0.95,
1.637,0.20,-0.58,-0.36,0.01,0.04,0.95,
1.638,0.20,-0.58,-0.36,0.00,0.04,0.95,
1.64,0.20,-0.58,-0.36,-0.00,0.04,0.95,
1.641,0.12,-0.56,-0.35,-0.00,0.04,0.95,
1.643,0.12,-0.56,-0.35,-0.01,0.05,0.95,
1.645,0.12,-0.56,-0.35,-0.01,0.05,0.96,
1.646,0.03,-0.53,-0.31,-0.01,0.05,0.96,
1.647,0.03,-0.53,-0.31,-0.02,0.05,0.96,
1.65,0.03,-0.53,-0.31,-0.03,0.06,0.96,
1.65,-0.07,-0.46,-0.25,-0.03,0.06,0.96,
1.652,-0.07,-0.46,-0.25,-0.03,0.06,0.96,
1.655,-0.07,-0.46,-0.25,-0.03,0.06,0.97,
1.655,-0.20,-0.40,-0.18,-0.03,0.06,0.97,
1.657,-0.20,-0.40,-0.18,-0.04,0.07,0.97,
1.665,-0.20,-0.40,-0.18,-0.04,0.07,0.97,
1.665,-0.29,-0.33,-0.14,-0.04,0.07,0.97,
1.666,-0.29,-0.33,-0.14,-0.05,0.07,0.97,
1.666,-0.29,-0.33,-0.14,-0.05,0.07,0.97,
1.666,-0.40,-0.27,-0.09,-0.05,0.07,0.97,
1.668,-0.40,-0.27,-0.09,-0.05,0.08,0.98,
1.67,-0.40,-0.27,-0.09,-0.05,0.08,0.97,
1.67,-0.46,-0.23,-0.05,-0.05,0.08,0.97,
1.672,-0.46,-0.23,-0.05,-0.05,0.08,0.97,
1.674,-0.46,-0.23,-0.05,-0.05,0.08,0.97,
1.675,-0.50,-0.18,-0.04,-0.05,0.08,0.97,
1.68,-0.50,-0.18,-0.04,-0.05,0.09,0.97,
1.68,-0.50,-0.18,-0.04,-0.05,0.09,0.97,
1.68,-0.51,-0.14,-0.08,-0.05,0.09,0.97,
1.682,-0.51,-0.14,-0.08,-0.05,0.09,0.97,
1.684,-0.51,-0.14,-0.08,-0.04,0.09,0.97,
1.684,-0.48,-0.11,-0.08,-0.04,0.09,0.97,
1.686,-0.48,-0.11,-0.08,-0.04,0.09,0.97,
1.689,-0.48,-0.11,-0.08,-0.04,0.08,0.96,
1.689,-0.44,-0.11,-0.11,-0.04,0.08,0.96,
1.692,-0.44,-0.11,-0.11,-0.03,0.08,0.96,
1.694,-0.44,-0.11,-0.11,-0.03,0.08,0.96,
1.694,-0.38,-0.13,-0.14,-0.03,0.08,0.96,
1.697,-0.38,-0.13,-0.14,-0.03,0.08,0.96,
1.699,-0.38,-0.13,-0.14,-0.02,0.08,0.95,
1.699,-0.30,-0.16,-0.20,-0.02,0.08,0.95,
1.702,-0.30,-0.16,-0.20,-0.02,0.08,0.95,
1.704,-0.24,-0.18,-0.24,-0.02,0.08,0.95,
1.704,-0.24,-0.18,-0.24,-0.02,0.07,0.95,
1.706,-0.24,-0.18,-0.24,-0.02,0.07,0.95,
1.709,-0.24,-0.18,-0.24,-0.02,0.07,0.95,
1.709,-0.21,-0.24,-0.27,-0.02,0.07,0.95,
1.711,-0.21,-0.24,-0.27,-0.02,0.07,0.95,
1.714,-0.21,-0.24,-0.27,-0.02,0.06,0.95,
1.714,-0.20,-0.29,-0.29,-0.02,0.06,0.95,
1.717,-0.20,-0.29,-0.29,-0.02,0.06,0.95,
1.718,-0.20,-0.29,-0.29,-0.03,0.06,0.95,
1.719,-0.21,-0.33,-0.27,-0.03,0.06,0.95,
1.721,-0.21,-0.33,-0.27,-0.03,0.06,0.96,
1.724,-0.21,-0.33,-0.27,-0.03,0.06,0.96,
1.724,-0.23,-0.35,-0.25,-0.03,0.06,0.96,
1.726,-0.23,-0.35,-0.25,-0.03,0.06,0.96,
1.729,-0.23,-0.35,-0.25,-0.04,0.06,0.96,
1.73,-0.29,-0.37,-0.19,-0.04,0.06,0.96,
1.731,-0.29,-0.37,-0.19,-0.05,0.06,0.97,
1.733,-0.29,-0.37,-0.19,-0.05,0.06,0.97,
1.733,-0.36,-0.38,-0.13,-0.05,0.06,0.97,
1.737,-0.36,-0.38,-0.13,-0.05,0.06,0.98,
1.738,-0.36,-0.38,-0.13,-0.06,0.06,0.98,
1.739,-0.46,-0.39,-0.08,-0.06,0.06,0.98,
1.741,-0.46,-0.39,-0.08,-0.06,0.06,0.98,
1.743,-0.46,-0.39,-0.08,-0.06,0.06,0.99,
1.744,-0.53,-0.39,0.01,-0.06,0.06,0.99,
1.746,-0.53,-0.39,0.01,-0.07,0.06,0.99,
1.748,-0.53,-0.39,0.01,-0.07,0.06,0.99,
1.748,-0.58,-0.40,0.07,-0.07,0.06,0.99,
1.75,-0.58,-0.40,0.07,-0.07,0.06,0.99,
1.753,-0.58,-0.40,0.07,-0.07,0.06,1.00,
1.753,-0.65,-0.40,0.13,-0.07,0.06,1.00,
1.757,-0.65,-0.40,0.13,-0.07,0.05,1.00,
1.765,-0.65,-0.40,0.13,-0.07,0.05,1.00,
1.766,-0.67,-0.41,0.17,-0.07,0.05,1.00,
1.766,-0.67,-0.41,0.17,-0.08,0.05,1.00,
1.766,-0.67,-0.41,0.17,-0.08,0.05,1.00,
1.766,-0.69,-0.42,0.19,-0.08,0.05,1.00,
1.767,-0.69,-0.42,0.19,-0.07,0.05,1.00,
1.767,-0.69,-0.42,0.19,-0.07,0.05,1.00,
1.768,-0.70,-0.43,0.19,-0.07,0.05,1.00,
1.77,-0.70,-0.43,0.19,-0.07,0.05,1.00,
1.772,-0.70,-0.43,0.19,-0.07,0.05,1.00,
1.773,-0.67,-0.44,0.20,-0.07,0.05,1.00,
1.776,-0.67,-0.44,0.20,-0.06,0.05,1.00,
1.778,-0.61,-0.45,0.19,-0.06,0.05,1.00,
1.778,-0.61,-0.45,0.19,-0.06,0.05,1.00,
1.78,-0.61,-0.45,0.19,-0.05,0.05,1.00,
1.782,-0.61,-0.45,0.19,-0.05,0.05,1.00,
1.782,-0.53,-0.44,0.19,-0.05,0.05,1.00,
1.784,-0.53,-0.44,0.19,-0.04,0.05,1.00,
1.787,-0.53,-0.44,0.19,-0.04,0.05,1.00,
1.787,-0.44,-0.45,0.18,-0.04,0.05,1.00,
1.79,-0.44,-0.45,0.18,-0.04,0.04,1.00,
1.792,-0.44,-0.45,0.18,-0.03,0.04,1.01,
1.792,-0.33,-0.47,0.21,-0.03,0.04,1.01,
1.794,-0.33,-0.47,0.21,-0.03,0.03,1.01,
1.798,-0.33,-0.47,0.21,-0.03,0.03,1.01,
1.798,-0.29,-0.54,0.26,-0.03,0.03,1.01,
1.799,-0.29,-0.54,0.26,-0.03,0.02,1.01,
1.802,-0.29,-0.54,0.26,-0.03,0.02,1.01,
1.802,-0.25,-0.64,0.30,-0.03,0.02,1.01,
1.804,-0.25,-0.64,0.30,-0.03,0.02,1.01,
1.807,-0.25,-0.64,0.30,-0.03,0.01,1.01,
1.807,-0.25,-0.72,0.33,-0.03,0.01,1.01,
1.809,-0.25,-0.72,0.33,-0.04,0.01,1.02,
1.812,-0.25,-0.72,0.33,-0.04,0.01,1.02,
1.812,-0.27,-0.80,0.34,-0.04,0.01,1.02,
1.814,-0.27,-0.80,0.34,-0.04,0.00,1.02,
1.817,-0.27,-0.80,0.34,-0.04,0.00,1.02,
1.817,-0.29,-0.87,0.37,-0.04,0.00,1.02,
1.819,-0.29,-0.87,0.37,-0.05,0.00,1.03,
1.821,-0.29,-0.87,0.37,-0.05,0.00,1.03,
1.822,-0.35,-0.89,0.42,-0.05,0.00,1.03,
1.824,-0.35,-0.89,0.42,-0.05,0.00,1.03,
1.826,-0.35,-0.89,0.42,-0.06,0.00,1.03,
1.827,-0.43,-0.92,0.45,-0.06,0.00,1.03,
1.829,-0.43,-0.92,0.45,-0.06,0.00,1.03,
1.832,-0.43,-0.92,0.45,-0.06,0.00,1.03,
1.832,-0.51,-0.91,0.47,-0.06,0.00,1.03,
1.833,-0.51,-0.91,0.47,-0.07,0.00,1.02,
1.837,-0.51,-0.91,0.47,-0.07,0.01,1.02,
1.838,-0.56,-0.88,0.46,-0.07,0.01,1.02,
1.838,-0.56,-0.88,0.46,-0.07,0.01,1.02,
1.842,-0.63,-0.87,0.42,-0.07,0.01,1.02,
1.843,-0.63,-0.87,0.42,-0.07,0.01,1.02,
1.843,-0.63,-0.87,0.42,-0.07,0.01,1.01,
1.846,-0.63,-0.87,0.42,-0.07,0.01,1.01,
1.847,-0.66,-0.82,0.35,-0.07,0.01,1.01,
1.848,-0.66,-0.82,0.35,-0.07,0.01,1.00,
1.851,-0.66,-0.82,0.35,-0.07,0.02,1.00,
1.851,-0.67,-0.79,0.26,-0.07,0.02,1.00,
1.853,-0.67,-0.79,0.26,-0.07,0.02,0.99,
1.857,-0.67,-0.79,0.26,-0.07,0.02,0.99,
1.857,-0.68,-0.77,0.18,-0.07,0.02,0.99,
1.859,-0.68,-0.77,0.18,-0.07,0.02,0.98,
1.861,-0.68,-0.77,0.18,-0.07,0.02,0.98,
1.861,-0.65,-0.74,0.07,-0.07,0.02,0.98,
1.863,-0.65,-0.74,0.07,-0.06,0.02,0.97,
1.866,-0.65,-0.74,0.07,-0.06,0.02,0.97,
1.866,-0.60,-0.71,-0.03,-0.06,0.02,0.97,
1.868,-0.60,-0.71,-0.03,-0.06,0.02,0.96,
1.87,-0.60,-0.71,-0.03,-0.05,0.02,0.96,
1.871,-0.55,-0.71,-0.11,-0.05,0.02,0.96,
1.873,-0.55,-0.71,-0.11,-0.04,0.02,0.96,
1.883,-0.55,-0.71,-0.11,-0.04,0.01,0.95,
1.884,-0.46,-0.74,-0.19,-0.04,0.01,0.95,
1.884,-0.46,-0.74,-0.19,-0.04,0.01,0.95,
1.885,-0.46,-0.74,-0.19,-0.04,0.01,0.95,
1.885,-0.38,-0.77,-0.25,-0.04,0.01,0.95,
1.885,-0.38,-0.77,-0.25,-0.03,0.00,0.95,
1.885,-0.38,-0.77,-0.25,-0.03,0.00,0.95,
1.886,-0.32,-0.84,-0.28,-0.03,0.00,0.95,
1.888,-0.32,-0.84,-0.28,-0.03,-0.00,0.95,
1.89,-0.25,-0.91,-0.29,-0.03,-0.00,0.95,
1.89,-0.25,-0.91,-0.29,-0.02,-0.01,0.95,
1.895,-0.25,-0.91,-0.29,-0.02,-0.01,0.95,
1.895,-0.25,-0.91,-0.29,-0.02,-0.02,0.95,
1.895,-0.21,-0.99,-0.31,-0.02,-0.02,0.95,
1.897,-0.21,-0.99,-0.31,-0.02,-0.02,0.95,
1.9,-0.21,-0.99,-0.31,-0.02,-0.03,0.95,
1.9,-0.16,-1.06,-0.30,-0.02,-0.03,0.95,
1.902,-0.16,-1.06,-0.30,-0.02,-0.03,0.95,
1.904,-0.16,-1.06,-0.30,-0.02,-0.03,0.95,
1.905,-0.15,-1.15,-0.28,-0.02,-0.03,0.95,
1.907,-0.15,-1.15,-0.28,-0.02,-0.04,0.95,
1.909,-0.15,-1.15,-0.28,-0.02,-0.04,0.95,
1.91,-0.16,-1.22,-0.28,-0.02,-0.04,0.95,
1.912,-0.16,-1.22,-0.28,-0.02,-0.04,0.95,
1.914,-0.16,-1.22,-0.28,-0.02,-0.04,0.95,
1.914,-0.16,-1.27,-0.27,-0.02,-0.04,0.95,
1.917,-0.16,-1.27,-0.27,-0.02,-0.04,0.95,
1.919,-0.16,-1.27,-0.27,-0.02,-0.04,0.95,
1.919,-0.18,-1.31,-0.27,-0.02,-0.04,0.95,
1.922,-0.18,-1.31,-0.27,-0.02,-0.04,0.95,
1.925,-0.18,-1.31,-0.27,-0.02,-0.04,0.95,
1.925,-0.20,-1.31,-0.26,-0.02,-0.04,0.95,
1.927,-0.20,-1.31,-0.26,-0.02,-0.04,0.95,
1.929,-0.20,-1.31,-0.26,-0.03,-0.04,0.95,
1.93,-0.20,-1.28,-0.28,-0.03,-0.04,0.95,
1.931,-0.20,-1.28,-0.28,-0.03,-0.03,0.95,
1.934,-0.20,-1.28,-0.28,-0.03,-0.03,0.95,
1.934,-0.24,-1.23,-0.31,-0.03,-0.03,0.95,
1.937,-0.24,-1.23,-0.31,-0.03,-0.03,0.94,
1.939,-0.24,-1.23,-0.31,-0.03,-0.03,0.94,
1.939,-0.27,-1.18,-0.31,-0.03,-0.03,0.94,
1.942,-0.27,-1.18,-0.31,-0.03,-0.02,0.94,
1.944,-0.27,-1.18,-0.31,-0.03,-0.02,0.94,
1.944,-0.29,-1.14,-0.33,-0.03,-0.02,0.94,
1.946,-0.29,-1.14,-0.33,-0.03,-0.02,0.94,
1.949,-0.29,-1.14,-0.33,-0.03,-0.01,0.94,
1.949,-0.30,-1.07,-0.36,-0.03,-0.01,0.94,
1.951,-0.30,-1.07,-0.36,-0.03,-0.01,0.94,
1.954,-0.30,-1.07,-0.36,-0.04,-0.01,0.94,
1.954,-0.32,-1.01,-0.33,-0.04,-0.01,0.94,
1.958,-0.32,-1.01,-0.33,-0.04,-0.01,0.95,
1.959,-0.32,-1.01,-0.33,-0.04,-0.01,0.95,
1.96,-0.34,-0.96,-0.31,-0.04,-0.01,0.95,
1.961,-0.34,-0.96,-0.31,-0.04,-0.01,0.95,
1.963,-0.34,-0.96,-0.31,-0.04,-0.01,0.95,
1.964,-0.38,-0.95,-0.28,-0.04,-0.01,0.95,
1.966,-0.38,-0.95,-0.28,-0.05,-0.01,0.95,
1.968,-0.38,-0.95,-0.28,-0.05,-0.01,0.96,
1.969,-0.40,-0.94,-0.24,-0.05,-0.01,0.96,
1.971,-0.40,-0.94,-0.24,-0.05,-0.01,0.96,
1.973,-0.46,-0.92,-0.19,-0.05,-0.01,0.96,
1.974,-0.46,-0.92,-0.19,-0.06,-0.01,0.96,
1.981,-0.46,-0.92,-0.19,-0.06,-0.01,0.97,
1.982,-0.46,-0.92,-0.19,-0.07,-0.01,0.97,
1.982,-0.51,-0.90,-0.14,-0.07,-0.01,0.97,
1.982,-0.51,-0.90,-0.14,-0.07,-0.01,0.97,
1.983,-0.51,-0.90,-0.14,-0.08,-0.01,0.97,
1.983,-0.59,-0.94,-0.09,-0.08,-0.01,0.97,
1.985,-0.59,-0.94,-0.09,-0.08,-0.01,0.97,
1.988,-0.59,-0.94,-0.09,-0.08,-0.01,0.97,
1.988,-0.68,-0.96,-0.06,-0.08,-0.01,0.97,
1.991,-0.68,-0.96,-0.06,-0.09,-0.01,0.97,
1.993,-0.68,-0.96,-0.06,-0.09,-0.01,0.97,
1.995,-0.73,-0.95,-0.04,-0.09,-0.01,0.97,
1.995,-0.73,-0.95,-0.04,-0.09,-0.01,0.97,
1.998,-0.73,-0.95,-0.04,-0.09,-0.01,0.97,
1.998,-0.77,-0.94,-0.02,-0.09,-0.01,0.97,
2.0,-0.77,-0.94,-0.02,-0.09,-0.01,0.97,
2.003,-0.77,-0.94,-0.02,-0.09,-0.01,0.96,
2.003,-0.78,-0.91,-0.05,-0.09,-0.01,0.96,
2.005,-0.78,-0.91,-0.05,-0.09,-0.01,0.96,
2.007,-0.78,-0.91,-0.05,-0.09,-0.00,0.96,
2.008,-0.78,-0.90,-0.09,-0.09,-0.00,0.96,
2.01,-0.78,-0.90,-0.09,-0.08,-0.00,0.96,
2.012,-0.78,-0.90,-0.09,-0.08,0.00,0.96,
2.012,-0.75,-0.86,-0.13,-0.08,0.00,0.96,
2.015,-0.75,-0.86,-0.13,-0.08,0.00,0.96,
2.017,-0.75,-0.86,-0.13,-0.07,0.00,0.96,
2.018,-0.69,-0.79,-0.14,-0.07,0.00,0.96,
2.02,-0.69,-0.79,-0.14,-0.07,0.01,0.96,
2.022,-0.61,-0.74,-0.14,-0.07,0.01,0.96,
2.022,-0.61,-0.74,-0.14,-0.06,0.01,0.96,
2.024,-0.61,-0.74,-0.14,-0.05,0.01,0.97,
2.027,-0.61,-0.74,-0.14,-0.04,0.01,0.97,
2.028,-0.49,-0.68,-0.11,-0.04,0.01,0.97,
2.029,-0.49,-0.68,-0.11,-0.04,0.01,0.98,
2.032,-0.49,-0.68,-0.11,-0.04,0.01,0.98,
2.032,-0.36,-0.65,-0.05,-0.04,0.01,0.98,
2.034,-0.36,-0.65,-0.05,-0.03,0.01,0.99,
2.037,-0.36,-0.65,-0.05,-0.03,0.01,1.00,
2.038,-0.27,-0.64,0.04,-0.03,0.01,1.00,
2.039,-0.27,-0.64,0.04,-0.02,0.00,1.00,
2.042,-0.27,-0.64,0.04,-0.02,0.00,1.01,
2.042,-0.16,-0.65,0.17,-0.02,0.00,1.01,
2.044,-0.16,-0.65,0.17,-0.02,-0.00,1.02,
2.047,-0.16,-0.65,0.17,-0.02,-0.00,1.02,
2.047,-0.08,-0.67,0.30,-0.02,-0.00,1.02,
2.049,-0.08,-0.67,0.30,-0.02,-0.00,1.03,
2.051,-0.08,-0.67,0.30,-0.01,-0.00,1.04,
2.052,-0.04,-0.70,0.45,-0.01,-0.00,1.04,
2.054,-0.04,-0.70,0.45,-0.01,-0.01,1.04,
2.059,-0.04,-0.70,0.45,-0.01,-0.01,1.04,
2.06,-0.02,-0.71,0.56,-0.01,-0.01,1.04,
2.061,-0.02,-0.71,0.56,-0.02,-0.01,1.05,
2.061,-0.02,-0.71,0.56,-0.02,-0.01,1.05,
2.062,-0.00,-0.72,0.65,-0.02,-0.01,1.05,
2.064,-0.00,-0.72,0.65,-0.02,-0.01,1.05,
2.066,-0.00,-0.72,0.65,-0.03,-0.00,1.05,
2.066,-0.04,-0.72,0.69,-0.03,-0.00,1.05,
2.068,-0.04,-0.72,0.69,-0.03,-0.00,1.05,
2.071,-0.04,-0.72,0.69,-0.03,-0.00,1.05,
2.072,-0.10,-0.68,0.72,-0.03,-0.00,1.05,
2.081,-0.10,-0.68,0.72,-0.04,0.00,1.04,
2.081,-0.10,-0.68,0.72,-0.04,0.00,1.04,
2.082,-0.16,-0.65,0.69,-0.04,0.00,1.04,
2.082,-0.16,-0.65,0.69,-0.04,0.01,1.03,
2.082,-0.16,-0.65,0.69,-0.04,0.01,1.03,
2.082,-0.23,-0.59,0.61,-0.04,0.01,1.03,
2.083,-0.23,-0.59,0.61,-0.04,0.02,1.02,
2.086,-0.23,-0.59,0.61,-0.04,0.02,1.02,
2.086,-0.26,-0.51,0.50,-0.04,0.02,1.02,
2.088,-0.26,-0.51,0.50,-0.04,0.03,1.01,
2.095,-0.26,-0.51,0.50,-0.04,0.03,1.00,
2.095,-0.27,-0.43,0.38,-0.04,0.03,1.00,
2.096,-0.27,-0.43,0.38,-0.04,0.04,1.00,
2.097,-0.27,-0.43,0.38,-0.03,0.04,0.99,
2.097,-0.22,-0.33,0.26,-0.03,0.04,0.99,
2.098,-0.22,-0.33,0.26,-0.03,0.05,0.99,
2.101,-0.22,-0.33,0.26,-0.03,0.05,0.98,
2.101,-0.16,-0.21,0.15,-0.03,0.05,0.98,
2.103,-0.16,-0.21,0.15,-0.03,0.06,0.98,
2.105,-0.16,-0.21,0.15,-0.02,0.06,0.98,
2.106,-0.10,-0.13,0.06,-0.02,0.06,0.98,
2.108,-0.10,-0.13,0.06,-0.01,0.06,0.97,
2.11,-0.10,-0.13,0.06,-0.01,0.06,0.97,
2.11,-0.01,-0.05,-0.01,-0.01,0.06,0.97,
2.113,-0.01,-0.05,-0.01,-0.01,0.06,0.97,
2.115,-0.01,-0.05,-0.01,-0.01,0.06,0.97,
2.115,0.07,-0.00,-0.06,-0.01,0.06,0.97,
2.117,0.07,-0.00,-0.06,-0.01,0.06,0.97,
2.12,0.07,-0.00,-0.06,-0.01,0.06,0.98,
2.12,0.12,0.01,-0.07,-0.01,0.06,0.98,
2.122,0.12,0.01,-0.07,-0.01,0.06,0.98,
2.125,0.12,0.01,-0.07,-0.01,0.06,0.98,
2.126,0.15,0.01,-0.05,-0.01,0.06,0.98,
2.128,0.15,0.01,-0.05,-0.01,0.06,0.98,
2.13,0.15,0.01,-0.05,-0.01,0.06,0.99,
2.13,0.16,0.02,-0.02,-0.01,0.06,0.99,
2.132,0.16,0.02,-0.02,-0.01,0.06,0.99,
2.135,0.16,0.02,-0.02,-0.02,0.06,1.00,
2.135,0.14,-0.03,0.05,-0.02,0.06,1.00,
2.137,0.14,-0.03,0.05,-0.02,0.06,1.00,
2.141,0.14,-0.03,0.05,-0.02,0.06,1.01,
2.141,0.08,-0.02,0.14,-0.02,0.06,1.01,
2.142,0.08,-0.02,0.14,-0.03,0.06,1.01,
2.145,0.08,-0.02,0.14,-0.03,0.06,1.01,
2.145,0.03,-0.00,0.23,-0.03,0.06,1.01,
2.147,0.03,-0.00,0.23,-0.03,0.06,1.02,
2.149,0.03,-0.00,0.23,-0.04,0.07,1.02,
2.15,-0.03,0.03,0.30,-0.04,0.07,1.02,
2.152,-0.03,0.03,0.30,-0.04,0.07,1.02,
2.154,-0.03,0.03,0.30,-0.05,0.07,1.02,
2.154,-0.10,0.06,0.37,-0.05,0.07,1.02,
2.158,-0.10,0.06,0.37,-0.05,0.07,1.02,
2.159,-0.10,0.06,0.37,-0.05,0.07,1.02,
2.159,-0.17,0.08,0.37,-0.05,0.07,1.02,
2.161,-0.17,0.08,0.37,-0.05,0.07,1.02,
2.164,-0.17,0.08,0.37,-0.05,0.07,1.02,
2.164,-0.22,0.11,0.39,-0.05,0.07,1.02,
2.166,-0.22,0.11,0.39,-0.06,0.08,1.02,
2.169,-0.22,0.11,0.39,-0.06,0.08,1.02,
2.169,-0.25,0.15,0.39,-0.06,0.08,1.02,
2.171,-0.25,0.15,0.39,-0.06,0.09,1.02,
2.175,-0.25,0.15,0.39,-0.05,0.09,1.02,
2.175,-0.26,0.22,0.38,-0.05,0.09,1.02,
2.177,-0.26,0.22,0.38,-0.05,0.09,1.02,
2.179,-0.26,0.22,0.38,-0.06,0.09,1.02,
2.179,-0.25,0.28,0.37,-0.06,0.09,1.02,
2.181,-0.25,0.28,0.37,-0.05,0.10,1.02,
2.183,-0.25,0.28,0.37,-0.05,0.10,1.02,
2.184,-0.24,0.34,0.37,-0.05,0.10,1.02,
2.186,-0.24,0.34,0.37,-0.05,0.10,1.02,
2.189,-0.24,0.34,0.37,-0.05,0.10,1.02,
2.189,-0.22,0.38,0.34,-0.05,0.10,1.02,
2.194,-0.22,0.38,0.34,-0.05,0.10,1.02,
2.195,-0.22,0.38,0.34,-0.05,0.10,1.01,
2.195,-0.20,0.40,0.33,-0.05,0.10,1.01,
2.197,-0.20,0.40,0.33,-0.05,0.10,1.01,
2.198,-0.20,0.40,0.33,-0.05,0.10,1.01,
2.198,-0.17,0.41,0.31,-0.05,0.10,1.01,
2.2,-0.17,0.41,0.31,-0.05,0.10,1.01,
2.203,-0.17,0.41,0.31,-0.04,0.10,1.01,
2.203,-0.14,0.39,0.28,-0.04,0.10,1.01,
2.205,-0.14,0.39,0.28,-0.04,0.09,1.01,
2.208,-0.14,0.39,0.28,-0.04,0.09,1.01,
2.209,-0.12,0.37,0.27,-0.04,0.09,1.01,
2.21,-0.12,0.37,0.27,-0.04,0.09,1.01,
2.213,-0.12,0.37,0.27,-0.03,0.09,1.01,
2.213,-0.05,0.34,0.25,-0.03,0.09,1.01,
2.216,-0.05,0.34,0.25,-0.03,0.09,1.01,
2.218,-0.05,0.34,0.25,-0.03,0.08,1.01,
2.218,-0.01,0.31,0.26,-0.03,0.08,1.01,
2.22,-0.01,0.31,0.26,-0.03,0.08,1.01,
2.223,-0.01,0.31,0.26,-0.03,0.08,1.01,
2.223,0.04,0.26,0.26,-0.03,0.08,1.01,
2.225,0.04,0.26,0.26,-0.02,0.08,1.02,
2.228,0.04,0.26,0.26,-0.02,0.07,1.02,
2.228,0.07,0.19,0.28,-0.02,0.07,1.02,
2.23,0.07,0.19,0.28,-0.02,0.07,1.02,
2.232,0.07,0.19,0.28,-0.02,0.07,1.02,
2.233,0.11,0.16,0.31,-0.02,0.07,1.02,
2.235,0.11,0.16,0.31,-0.01,0.07,1.02,
2.237,0.11,0.16,0.31,-0.01,0.06,1.03,
2.238,0.17,0.10,0.35,-0.01,0.06,1.03,
2.24,0.17,0.10,0.35,-0.01,0.06,1.03,
2.243,0.17,0.10,0.35,-0.01,0.06,1.03,
2.243,0.21,0.07,0.39,-0.01,0.06,1.03,
2.245,0.21,0.07,0.39,-0.01,0.06,1.03,
2.247,0.21,0.07,0.39,-0.01,0.06,1.03,
2.248,0.23,0.04,0.44,-0.01,0.06,1.03,
2.25,0.23,0.04,0.44,-0.00,0.06,1.03,
2.252,0.23,0.04,0.44,-0.00,0.06,1.04,
2.252,0.26,0.02,0.46,-0.00,0.06,1.04,
2.254,0.26,0.02,0.46,-0.00,0.06,1.04,
2.258,0.26,0.02,0.46,-0.00,0.06,1.04,
2.259,0.30,0.01,0.46,-0.00,0.06,1.04,
2.26,0.30,0.01,0.46,-0.01,0.06,1.04,
2.262,0.30,0.01,0.46,-0.00,0.06,1.04,
2.263,0.29,0.02,0.48,-0.00,0.06,1.04,
2.264,0.29,0.02,0.48,-0.00,0.06,1.04,
2.267,0.29,0.02,0.48,-0.00,0.06,1.04,
2.267,0.28,0.03,0.49,-0.00,0.06,1.04,
2.269,0.28,0.03,0.49,-0.01,0.07,1.03,
2.272,0.28,0.03,0.49,-0.00,0.07,1.03,
2.272,0.29,0.06,0.46,-0.00,0.07,1.03,
2.274,0.29,0.06,0.46,-0.00,0.07,1.03,
2.277,0.29,0.06,0.46,-0.00,0.07,1.03,
2.278,0.28,0.08,0.44,-0.00,0.07,1.03,
2.279,0.28,0.08,0.44,-0.01,0.07,1.03,
2.282,0.28,0.08,0.44,-0.01,0.07,1.02,
2.282,0.28,0.13,0.41,-0.01,0.07,1.02,
2.284,0.28,0.13,0.41,-0.01,0.07,1.02,
2.286,0.28,0.13,0.41,-0.01,0.08,1.02,
2.287,0.25,0.15,0.35,-0.01,0.08,1.02,
2.289,0.25,0.15,0.35,-0.01,0.08,1.02,
2.296,0.25,0.15,0.35,-0.01,0.08,1.00,
2.297,0.24,0.16,0.31,-0.01,0.08,1.00,
2.297,0.24,0.16,0.31,-0.02,0.07,0.92,
2.297,0.24,0.16,0.31,-0.04,0.08,0.84,
2.298,0.22,0.16,0.17,-0.04,0.08,0.84,
2.298,0.22,0.16,0.17,-0.04,0.10,0.82,
2.301,0.22,0.16,0.17,-0.03,0.11,0.85,
2.301,0.01,0.18,-1.09,-0.03,0.11,0.85,
2.303,0.01,0.18,-1.09,-0.02,0.12,0.88,
2.306,0.01,0.18,-1.09,-0.02,0.11,0.91,
2.306,0.00,0.45,-1.47,-0.02,0.11,0.91,
2.309,0.00,0.45,-1.47,-0.02,0.10,0.92,
2.311,0.00,0.45,-1.47,-0.03,0.09,0.93,
2.311,0.12,0.53,-0.88,-0.03,0.09,0.93,
2.313,0.12,0.53,-0.88,-0.03,0.08,0.94,
2.317,0.12,0.53,-0.88,-0.03,0.07,0.95,
2.317,0.09,0.37,-0.62,-0.03,0.07,0.95,
2.318,0.09,0.37,-0.62,-0.03,0.06,0.97,
2.321,0.03,0.20,-0.38,-0.03,0.06,0.97,
2.321,0.03,0.20,-0.38,-0.03,0.06,0.98,
2.323,0.03,0.20,-0.38,-0.02,0.05,1.00,
2.325,0.03,0.20,-0.38,-0.02,0.05,1.01,
2.326,0.06,0.03,-0.10,-0.02,0.05,1.01,
2.328,0.06,0.03,-0.10,-0.01,0.05,1.02,
2.33,0.06,0.03,-0.10,-0.01,0.05,1.02,
2.33,0.15,-0.08,0.15,-0.01,0.05,1.02,
2.333,0.15,-0.08,0.15,-0.01,0.05,1.03,
2.337,0.15,-0.08,0.15,-0.01,0.05,1.04,
2.337,0.24,-0.08,0.34,-0.01,0.05,1.04,
2.338,0.24,-0.08,0.34,-0.02,0.06,1.04,
2.34,0.24,-0.08,0.34,-0.02,0.06,1.04,
2.341,0.23,-0.04,0.48,-0.02,0.06,1.04,
2.342,0.23,-0.04,0.48,-0.02,0.06,1.05,
2.345,0.19,-0.00,0.55,-0.02,0.06,1.05,
2.346,0.19,-0.00,0.55,-0.03,0.06,1.05,
2.347,0.19,-0.00,0.55,-0.03,0.06,1.05,
2.35,0.19,-0.00,0.55,-0.03,0.06,1.05,
2.35,0.12,0.01,0.59,-0.03,0.06,1.05,
2.352,0.12,0.01,0.59,-0.03,0.06,1.04,
2.357,0.07,0.02,0.57,-0.03,0.06,1.04,
2.357,0.07,0.02,0.57,-0.03,0.06,1.04,
2.358,0.07,0.02,0.57,-0.03,0.07,1.04,
2.36,0.07,0.02,0.57,-0.02,0.07,1.03,
2.36,0.13,0.03,0.50,-0.02,0.07,1.03,
2.362,0.13,0.03,0.50,-0.02,0.07,1.03,
2.365,0.13,0.03,0.50,-0.02,0.07,1.03,
2.365,0.16,0.07,0.45,-0.02,0.07,1.03,
2.367,0.16,0.07,0.45,-0.02,0.07,1.03,
2.37,0.16,0.07,0.45,-0.02,0.07,1.02,
2.37,0.21,0.08,0.39,-0.02,0.07,1.02,
2.372,0.21,0.08,0.39,-0.02,0.07,1.02,
