
time,ax,ay,az,gFx,gFy,gFz,
0.003,-0.05,0.10,0.05,-0.01,0.11,0.95,
0.003,0.00,0.09,-0.11,-0.01,0.11,0.95,
0.003,0.00,0.09,-0.11,-0.01,0.11,0.95,
0.003,0.02,0.05,-0.24,-0.01,0.11,0.95,
0.004,0.02,0.05,-0.24,-0.00,0.11,0.94,
0.004,0.02,0.05,-0.24,-0.00,0.11,0.94,
0.005,0.02,0.05,-0.24,-0.00,0.10,0.94,
0.005,0.02,-0.00,-0.32,-0.00,0.10,0.94,
0.008,0.02,-0.00,-0.32,-0.01,0.10,0.94,
0.01,0.02,-0.00,-0.32,-0.01,0.11,0.94,
0.01,0.03,-0.03,-0.40,-0.01,0.11,0.94,
0.013,0.03,-0.03,-0.40,-0.01,0.11,0.94,
0.015,0.03,-0.03,-0.40,-0.01,0.10,0.94,
0.015,-0.00,-0.04,-0.41,-0.01,0.10,0.94,
0.017,-0.00,-0.04,-0.41,-0.01,0.11,0.94,
0.021,-0.00,-0.04,-0.41,-0.01,0.11,0.94,
0.021,-0.01,-0.04,-0.42,-0.01,0.11,0.94,
0.022,-0.01,-0.04,-0.42,-0.01,0.11,0.94,
0.026,-0.01,-0.04,-0.42,-0.01,0.11,0.94,
0.026,-0.02,-0.03,-0.41,-0.01,0.11,0.94,
0.027,-0.02,-0.03,-0.41,-0.01,0.11,0.94,
0.03,-0.02,-0.03,-0.41,-0.02,0.11,0.95,
0.03,-0.03,-0.01,-0.36,-0.02,0.11,0.95,
0.032,-0.03,-0.01,-0.36,-0.02,0.11,0.95,
0.034,-0.03,-0.01,-0.36,-0.02,0.11,0.95,
0.034,-0.06,0.02,-0.31,-0.02,0.11,0.95,
0.037,-0.06,0.02,-0.31,-0.02,0.11,0.95,
0.039,-0.06,0.02,-0.31,-0.02,0.11,0.95,
0.039,-0.07,0.04,-0.28,-0.02,0.11,0.95,
0.042,-0.07,0.04,-0.28,-0.02,0.11,0.96,
0.044,-0.07,0.04,-0.28,-0.02,0.11,0.96,
0.044,-0.08,0.06,-0.23,-0.02,0.11,0.96,
0.047,-0.08,0.06,-0.23,-0.02,0.11,0.96,
0.049,-0.08,0.06,-0.23,-0.02,0.11,0.96,
0.049,-0.10,0.05,-0.19,-0.02,0.11,0.96,
0.051,-0.10,0.05,-0.19,-0.02,0.11,0.97,
0.054,-0.10,0.05,-0.19,-0.01,0.11,0.97,
0.054,-0.08,0.05,-0.13,-0.01,0.11,0.97,
0.056,-0.08,0.05,-0.13,-0.01,0.11,0.97,
0.059,-0.08,0.05,-0.13,-0.01,0.11,0.97,
0.059,-0.05,0.04,-0.09,-0.01,0.11,0.97,
0.062,-0.05,0.04,-0.09,-0.01,0.11,0.97,
0.064,-0.05,0.04,-0.09,-0.01,0.11,0.98,
0.064,-0.03,0.02,-0.06,-0.01,0.11,0.98,
0.066,-0.03,0.02,-0.06,-0.00,0.10,0.98,
0.069,-0.03,0.02,-0.06,-0.00,0.10,0.98,
0.069,0.01,0.01,-0.02,-0.00,0.10,0.98,
0.071,0.01,0.01,-0.02,-0.00,0.10,0.98,
0.073,0.01,0.01,-0.02,0.00,0.10,0.98,
0.074,0.06,-0.02,0.01,0.00,0.10,0.98,
0.076,0.06,-0.02,0.01,0.00,0.10,0.98,
0.078,0.06,-0.02,0.01,0.01,0.10,0.98,
0.079,0.08,-0.03,0.02,0.01,0.10,0.98,
0.082,0.08,-0.03,0.02,0.01,0.10,0.98,
0.083,0.08,-0.03,0.02,0.01,0.10,0.98,
0.083,0.13,-0.04,0.03,0.01,0.10,0.98,
0.086,0.13,-0.04,0.03,0.01,0.10,0.98,
0.088,0.13,-0.04,0.03,0.01,0.10,0.98,
0.088,0.17,-0.05,0.05,0.01,0.10,0.98,
0.093,0.17,-0.05,0.05,0.01,0.10,0.98,
0.094,0.17,-0.05,0.05,0.01,0.10,0.98,
0.094,0.17,-0.07,0.03,0.01,0.10,0.98,
0.096,0.17,-0.07,0.03,0.01,0.10,0.98,
0.098,0.17,-0.07,0.03,0.00,0.09,0.98,
0.098,0.15,-0.08,0.04,0.00,0.09,0.98,
0.101,0.15,-0.08,0.04,0.00,0.09,0.97,
0.103,0.15,-0.08,0.04,0.00,0.10,0.97,
0.103,0.12,-0.10,0.01,0.00,0.10,0.97,
0.105,0.12,-0.10,0.01,0.00,0.10,0.97,
0.108,0.10,-0.09,-0.03,0.00,0.10,0.97,
0.108,0.10,-0.09,-0.03,0.00,0.10,0.97,
0.11,0.10,-0.09,-0.03,-0.00,0.10,0.96,
0.113,0.10,-0.09,-0.03,-0.00,0.10,0.96,
0.113,0.09,-0.06,-0.07,-0.00,0.10,0.96,
0.115,0.09,-0.06,-0.07,-0.00,0.10,0.96,
0.117,0.09,-0.06,-0.07,-0.00,0.10,0.95,
0.118,0.07,-0.04,-0.15,-0.00,0.10,0.95,
0.121,0.07,-0.04,-0.15,-0.00,0.11,0.95,
0.123,0.07,-0.04,-0.15,-0.00,0.11,0.95,
0.123,0.05,-0.03,-0.21,-0.00,0.11,0.95,
0.125,0.05,-0.03,-0.21,-0.00,0.11,0.94,
0.127,0.05,-0.03,-0.21,-0.00,0.11,0.94,
0.128,0.06,0.00,-0.28,-0.00,0.11,0.94,
0.13,0.06,0.00,-0.28,-0.00,0.11,0.94,
0.132,0.06,0.00,-0.28,-0.00,0.11,0.94,
0.133,0.06,0.03,-0.33,-0.00,0.11,0.94,
0.135,0.06,0.03,-0.33,-0.00,0.11,0.94,
0.137,0.06,0.03,-0.33,0.00,0.11,0.94,
0.137,0.08,0.06,-0.36,0.00,0.11,0.94,
0.141,0.08,0.06,-0.36,0.00,0.11,0.94,
0.142,0.08,0.06,-0.36,0.00,0.11,0.94,
0.143,0.09,0.07,-0.38,0.00,0.11,0.94,
0.145,0.09,0.07,-0.38,0.01,0.12,0.94,
0.147,0.09,0.07,-0.38,0.01,0.12,0.95,
0.147,0.13,0.09,-0.34,0.01,0.12,0.95,
0.15,0.13,0.09,-0.34,0.01,0.11,0.95,
0.152,0.13,0.09,-0.34,0.01,0.11,0.96,
0.152,0.17,0.10,-0.29,0.01,0.11,0.96,
0.154,0.17,0.10,-0.29,0.01,0.11,0.96,
0.157,0.17,0.10,-0.29,0.02,0.11,0.96,
0.16,0.23,0.06,-0.21,0.02,0.11,0.96,
0.16,0.23,0.06,-0.21,0.02,0.10,0.97,
0.164,0.23,0.06,-0.21,0.02,0.10,0.98,
0.164,0.25,0.02,-0.13,0.02,0.10,0.98,
0.165,0.25,0.02,-0.13,0.02,0.10,0.98,
0.167,0.25,0.02,-0.13,0.02,0.10,0.98,
0.167,0.27,-0.02,-0.02,0.02,0.10,0.98,
0.169,0.27,-0.02,-0.02,0.02,0.09,0.99,
0.171,0.27,-0.02,-0.02,0.02,0.09,0.99,
0.172,0.27,-0.06,0.06,0.02,0.09,0.99,
0.174,0.27,-0.06,0.06,0.02,0.09,0.99,
0.176,0.27,-0.06,0.06,0.02,0.09,0.99,
0.177,0.25,-0.09,0.13,0.02,0.09,0.99,
0.179,0.25,-0.09,0.13,0.01,0.09,1.00,
0.182,0.24,-0.12,0.17,0.01,0.09,1.00,
0.182,0.24,-0.12,0.17,0.01,0.09,1.00,
0.184,0.24,-0.12,0.17,0.01,0.09,1.00,
0.186,0.24,-0.12,0.17,0.01,0.09,1.00,
0.186,0.23,-0.12,0.21,0.01,0.09,1.00,
0.188,0.23,-0.12,0.21,0.01,0.09,1.00,
0.191,0.23,-0.12,0.21,0.01,0.09,1.00,
0.192,0.22,-0.14,0.25,0.01,0.09,1.00,
0.194,0.22,-0.14,0.25,0.01,0.08,1.00,
0.196,0.22,-0.14,0.25,0.01,0.08,1.00,
0.197,0.20,-0.14,0.25,0.01,0.08,1.00,
0.199,0.20,-0.14,0.25,0.01,0.08,1.00,
0.202,0.20,-0.14,0.25,0.02,0.08,1.00,
0.202,0.20,-0.16,0.26,0.02,0.08,1.00,
0.203,0.20,-0.16,0.26,0.01,0.09,1.00,
0.206,0.20,-0.16,0.26,0.01,0.09,1.00,
0.206,0.22,-0.16,0.23,0.01,0.09,1.00,
0.216,0.22,-0.16,0.23,0.01,0.09,0.99,
0.217,0.22,-0.16,0.23,0.01,0.08,0.99,
0.217,0.19,-0.15,0.20,0.01,0.08,0.99,
0.217,0.19,-0.15,0.20,0.01,0.09,0.99,
0.217,0.19,-0.15,0.20,0.02,0.09,0.99,
0.217,0.20,-0.15,0.15,0.02,0.09,0.99,
0.218,0.20,-0.15,0.15,0.02,0.09,0.98,
0.221,0.20,-0.15,0.15,0.02,0.09,0.98,
0.222,0.20,-0.13,0.10,0.02,0.09,0.98,
0.223,0.20,-0.13,0.10,0.02,0.09,0.98,
0.225,0.20,-0.13,0.10,0.03,0.09,0.98,
0.226,0.26,-0.11,0.06,0.03,0.09,0.98,
0.228,0.26,-0.11,0.06,0.03,0.09,0.98,
0.23,0.26,-0.11,0.06,0.03,0.09,0.97,
0.23,0.30,-0.10,0.03,0.03,0.09,0.97,
0.233,0.30,-0.10,0.03,0.03,0.09,0.97,
0.235,0.30,-0.10,0.03,0.04,0.09,0.97,
0.235,0.37,-0.09,-0.01,0.04,0.09,0.97,
0.237,0.37,-0.09,-0.01,0.04,0.09,0.97,
0.241,0.37,-0.09,-0.01,0.04,0.09,0.97,
0.241,0.39,-0.10,-0.03,0.04,0.09,0.97,
0.243,0.39,-0.10,-0.03,0.05,0.09,0.97,
0.245,0.39,-0.10,-0.03,0.05,0.09,0.97,
0.246,0.43,-0.11,-0.05,0.05,0.09,0.97,
0.247,0.43,-0.11,-0.05,0.05,0.09,0.98,
0.25,0.43,-0.11,-0.05,0.05,0.09,0.98,
0.25,0.49,-0.10,-0.04,0.05,0.09,0.98,
0.252,0.49,-0.10,-0.04,0.05,0.09,0.98,
0.255,0.49,-0.10,-0.04,0.05,0.08,0.98,
0.255,0.53,-0.12,-0.01,0.05,0.08,0.98,
0.258,0.53,-0.12,-0.01,0.06,0.08,0.98,
0.261,0.53,-0.12,-0.01,0.06,0.08,0.98,
0.261,0.55,-0.15,0.01,0.06,0.08,0.98,
0.262,0.55,-0.15,0.01,0.06,0.08,0.99,
0.264,0.55,-0.15,0.01,0.06,0.07,0.99,
0.265,0.58,-0.17,0.05,0.06,0.07,0.99,
0.267,0.58,-0.17,0.05,0.06,0.07,0.99,
0.269,0.58,-0.17,0.05,0.06,0.07,0.99,
0.269,0.59,-0.23,0.10,0.06,0.07,0.99,
0.272,0.59,-0.23,0.10,0.06,0.07,0.99,
0.275,0.59,-0.23,0.10,0.06,0.07,0.99,
0.275,0.59,-0.25,0.13,0.06,0.07,0.99,
0.277,0.59,-0.25,0.13,0.05,0.06,1.00,
0.279,0.59,-0.25,0.13,0.05,0.06,1.00,
0.279,0.57,-0.28,0.15,0.05,0.06,1.00,
0.282,0.57,-0.28,0.15,0.05,0.06,1.00,
0.284,0.57,-0.28,0.15,0.05,0.06,1.00,
0.284,0.51,-0.33,0.19,0.05,0.06,1.00,
0.287,0.51,-0.33,0.19,0.05,0.07,1.00,
0.289,0.51,-0.33,0.19,0.05,0.07,1.00,
0.289,0.48,-0.33,0.21,0.05,0.07,1.00,
0.292,0.48,-0.33,0.21,0.05,0.07,1.00,
0.295,0.48,-0.33,0.21,0.04,0.07,1.00,
0.295,0.46,-0.30,0.22,0.04,0.07,1.00,
0.296,0.46,-0.30,0.22,0.05,0.07,1.00,
0.299,0.46,-0.30,0.22,0.04,0.07,1.00,
0.299,0.43,-0.29,0.20,0.04,0.07,1.00,
0.302,0.43,-0.29,0.20,0.04,0.07,0.99,
0.304,0.43,-0.29,0.20,0.04,0.07,0.99,
0.304,0.42,-0.26,0.17,0.04,0.07,0.99,
0.306,0.42,-0.26,0.17,0.04,0.07,0.99,
0.31,0.42,-0.26,0.17,0.04,0.07,0.99,
0.31,0.40,-0.23,0.13,0.04,0.07,0.99,
0.311,0.40,-0.23,0.13,0.04,0.07,0.99,
0.313,0.40,-0.23,0.13,0.05,0.08,0.98,
0.314,0.39,-0.22,0.10,0.05,0.08,0.98,
0.316,0.39,-0.22,0.10,0.05,0.08,0.98,
0.319,0.39,-0.22,0.10,0.05,0.08,0.98,
0.319,0.40,-0.20,0.07,0.05,0.08,0.98,
0.322,0.40,-0.20,0.07,0.05,0.08,0.98,
0.323,0.40,-0.20,0.07,0.06,0.08,0.98,
0.324,0.41,-0.17,0.04,0.06,0.08,0.98,
0.326,0.41,-0.17,0.04,0.06,0.08,0.99,
0.328,0.41,-0.17,0.04,0.06,0.08,0.99,
0.328,0.48,-0.15,0.05,0.06,0.08,0.99,
0.33,0.48,-0.15,0.05,0.07,0.08,0.99,
0.333,0.48,-0.15,0.05,0.07,0.08,0.99,
0.333,0.56,-0.15,0.08,0.07,0.08,0.99,
0.335,0.56,-0.15,0.08,0.08,0.07,1.00,
0.338,0.56,-0.15,0.08,0.08,0.07,1.00,
0.338,0.64,-0.18,0.15,0.08,0.07,1.00,
0.342,0.64,-0.18,0.15,0.08,0.06,1.00,
0.343,0.64,-0.18,0.15,0.09,0.06,1.00,
0.343,0.70,-0.26,0.19,0.09,0.06,1.00,
0.345,0.70,-0.26,0.19,0.09,0.06,1.01,
0.348,0.70,-0.26,0.19,0.09,0.05,1.01,
0.348,0.77,-0.32,0.22,0.09,0.05,1.01,
0.35,0.77,-0.32,0.22,0.10,0.05,1.02,
0.353,0.77,-0.32,0.22,0.10,0.05,1.02,
0.353,0.83,-0.38,0.29,0.10,0.05,1.02,
0.355,0.83,-0.38,0.29,0.10,0.04,1.02,
0.357,0.83,-0.38,0.29,0.10,0.04,1.02,
0.358,0.87,-0.43,0.36,0.10,0.04,1.02,
0.361,0.87,-0.43,0.36,0.10,0.04,1.02,
0.362,0.87,-0.43,0.36,0.10,0.04,1.02,
0.363,0.91,-0.47,0.38,0.10,0.04,1.02,
0.365,0.91,-0.47,0.38,0.10,0.04,1.02,
0.367,0.91,-0.47,0.38,0.11,0.04,1.02,
0.367,0.92,-0.50,0.42,0.11,0.04,1.02,
0.37,0.92,-0.50,0.42,0.10,0.04,1.02,
0.372,0.92,-0.50,0.42,0.10,0.04,1.02,
0.372,0.91,-0.50,0.41,0.10,0.04,1.02,
0.375,0.91,-0.50,0.41,0.10,0.04,1.02,
0.377,0.91,-0.50,0.41,0.10,0.04,1.02,
0.377,0.88,-0.51,0.39,0.10,0.04,1.02,
0.381,0.88,-0.51,0.39,0.10,0.04,1.01,
0.382,0.88,-0.51,0.39,0.09,0.04,1.01,
0.382,0.85,-0.51,0.34,0.09,0.04,1.01,
0.384,0.85,-0.51,0.34,0.09,0.04,1.01,
0.387,0.85,-0.51,0.34,0.08,0.05,1.01,
0.387,0.77,-0.48,0.30,0.08,0.05,1.01,
0.389,0.77,-0.48,0.30,0.08,0.05,1.00,
0.393,0.67,-0.44,0.25,0.08,0.05,1.00,
0.394,0.67,-0.44,0.25,0.08,0.05,1.00,
0.394,0.67,-0.44,0.25,0.07,0.05,1.00,
0.397,0.67,-0.44,0.25,0.07,0.05,1.00,
0.397,0.59,-0.42,0.21,0.07,0.05,1.00,
0.399,0.59,-0.42,0.21,0.06,0.05,0.99,
0.402,0.59,-0.42,0.21,0.06,0.05,0.99,
0.402,0.49,-0.39,0.15,0.06,0.05,0.99,
0.404,0.49,-0.39,0.15,0.06,0.05,0.99,
0.407,0.49,-0.39,0.15,0.05,0.05,0.99,
0.407,0.40,-0.36,0.10,0.05,0.05,0.99,
0.409,0.40,-0.36,0.10,0.05,0.06,0.99,
0.411,0.40,-0.36,0.10,0.04,0.06,0.99,
0.412,0.31,-0.34,0.07,0.04,0.06,0.99,
0.414,0.31,-0.34,0.07,0.04,0.06,0.99,
0.416,0.31,-0.34,0.07,0.03,0.06,0.99,
0.416,0.22,-0.30,0.06,0.03,0.06,0.99,
0.419,0.22,-0.30,0.06,0.03,0.06,0.99,
0.422,0.22,-0.30,0.06,0.03,0.06,0.99,
0.422,0.11,-0.27,0.06,0.03,0.06,0.99,
0.424,0.11,-0.27,0.06,0.02,0.07,0.99,
0.426,0.11,-0.27,0.06,0.02,0.07,0.99,
0.427,0.04,-0.25,0.07,0.02,0.07,0.99,
0.429,0.04,-0.25,0.07,0.01,0.07,0.99,
0.431,0.04,-0.25,0.07,0.01,0.07,0.99,
0.431,-0.04,-0.21,0.06,0.01,0.07,0.99,
0.433,-0.04,-0.21,0.06,0.01,0.07,0.99,
0.436,-0.04,-0.21,0.06,0.00,0.07,0.98,
0.436,-0.11,-0.19,0.05,0.00,0.07,0.98,
0.439,-0.11,-0.19,0.05,0.00,0.07,0.98,
0.442,-0.11,-0.19,0.05,-0.00,0.07,0.98,
0.442,-0.16,-0.19,0.03,-0.00,0.07,0.98,
0.443,-0.16,-0.19,0.03,0.00,0.07,0.98,
0.446,-0.16,-0.19,0.03,-0.00,0.07,0.98,
0.446,-0.22,-0.20,-0.00,-0.00,0.07,0.98,
0.448,-0.22,-0.20,-0.00,-0.00,0.07,0.98,
0.45,-0.22,-0.20,-0.00,-0.00,0.07,0.98,
0.451,-0.23,-0.22,0.00,-0.00,0.07,0.98,
0.453,-0.23,-0.22,0.00,-0.00,0.07,0.98,
0.456,-0.23,-0.21,-0.01,-0.00,0.07,0.98,
0.456,-0.23,-0.21,-0.01,0.00,0.07,0.98,
0.458,-0.23,-0.21,-0.01,0.01,0.06,0.98,
0.462,-0.23,-0.21,-0.01,0.01,0.07,0.98,
0.462,-0.21,-0.22,-0.03,0.01,0.07,0.98,
0.463,-0.21,-0.22,-0.03,0.01,0.06,0.98,
0.465,-0.21,-0.22,-0.03,0.01,0.06,0.98,
0.465,-0.15,-0.22,-0.04,0.01,0.06,0.98,
0.468,-0.15,-0.22,-0.04,0.01,0.06,0.98,
0.47,-0.15,-0.22,-0.04,0.02,0.06,0.98,
0.47,-0.12,-0.23,-0.05,0.02,0.06,0.98,
0.474,-0.12,-0.23,-0.05,0.02,0.06,0.98,
0.475,-0.12,-0.23,-0.05,0.02,0.06,0.98,
0.476,-0.08,-0.24,-0.05,0.02,0.06,0.98,
0.478,-0.08,-0.24,-0.05,0.02,0.06,0.98,
0.481,-0.08,-0.24,-0.05,0.03,0.06,0.98,
0.481,-0.02,-0.26,-0.03,0.03,0.06,0.98,
0.482,-0.02,-0.26,-0.03,0.03,0.06,0.98,
0.485,-0.02,-0.26,-0.03,0.03,0.05,0.98,
0.485,0.02,-0.28,-0.01,0.03,0.05,0.98,
0.487,0.02,-0.28,-0.01,0.03,0.05,0.99,
0.49,0.02,-0.28,-0.01,0.03,0.05,0.99,
0.491,0.06,-0.30,0.02,0.03,0.05,0.99,
0.492,0.06,-0.30,0.02,0.03,0.05,0.98,
0.495,0.06,-0.30,0.02,0.02,0.05,0.98,
0.495,0.05,-0.33,0.03,0.02,0.05,0.98,
0.497,0.05,-0.33,0.03,0.02,0.05,0.98,
0.501,0.05,-0.33,0.03,0.02,0.04,0.98,
0.501,-0.01,-0.37,0.02,0.02,0.04,0.98,
0.502,-0.01,-0.37,0.02,0.02,0.04,0.98,
0.504,-0.01,-0.37,0.02,0.01,0.04,0.98,
0.505,-0.05,-0.38,0.02,0.01,0.04,0.98,
0.507,-0.05,-0.38,0.02,0.01,0.04,0.98,
0.509,-0.05,-0.38,0.02,0.01,0.04,0.98,
0.51,-0.09,-0.38,0.01,0.01,0.04,0.98,
0.512,-0.09,-0.38,0.01,0.01,0.04,0.98,
0.514,-0.09,-0.38,0.01,0.01,0.05,0.98,
0.514,-0.13,-0.37,-0.01,0.01,0.05,0.98,
0.517,-0.13,-0.37,-0.01,0.01,0.04,0.97,
0.519,-0.13,-0.37,-0.01,0.01,0.04,0.97,
0.519,-0.18,-0.36,-0.04,0.01,0.04,0.97,
0.522,-0.18,-0.36,-0.04,0.00,0.05,0.97,
0.527,-0.18,-0.36,-0.04,-0.00,0.04,0.97,
0.527,-0.21,-0.36,-0.10,-0.00,0.04,0.97,
0.527,-0.21,-0.36,-0.10,-0.00,0.05,0.97,
0.529,-0.21,-0.36,-0.10,-0.01,0.05,0.96,
0.529,-0.27,-0.35,-0.15,-0.01,0.05,0.96,
0.531,-0.27,-0.35,-0.15,-0.01,0.05,0.96,
0.534,-0.27,-0.35,-0.15,-0.01,0.05,0.96,
0.534,-0.33,-0.33,-0.17,-0.01,0.05,0.96,
0.536,-0.33,-0.33,-0.17,-0.02,0.05,0.96,
0.539,-0.33,-0.33,-0.17,-0.02,0.05,0.96,
0.539,-0.41,-0.31,-0.20,-0.02,0.05,0.96,
0.542,-0.41,-0.31,-0.20,-0.02,0.05,0.96,
0.543,-0.41,-0.31,-0.20,-0.02,0.05,0.95,
0.544,-0.44,-0.30,-0.22,-0.02,0.05,0.95,
0.546,-0.44,-0.30,-0.22,-0.02,0.05,0.95,
0.548,-0.44,-0.30,-0.22,-0.02,0.05,0.95,
0.549,-0.47,-0.27,-0.25,-0.02,0.05,0.95,
0.551,-0.47,-0.27,-0.25,-0.02,0.05,0.95,
0.553,-0.47,-0.27,-0.25,-0.02,0.05,0.95,
0.553,-0.47,-0.25,-0.27,-0.02,0.05,0.95,
0.556,-0.47,-0.25,-0.27,-0.01,0.05,0.95,
0.559,-0.47,-0.25,-0.27,-0.01,0.04,0.95,
0.559,-0.44,-0.28,-0.27,-0.01,0.04,0.95,
0.562,-0.44,-0.28,-0.27,-0.01,0.04,0.95,
0.563,-0.44,-0.28,-0.27,0.00,0.04,0.95,
0.563,-0.40,-0.33,-0.29,0.00,0.04,0.95,
0.566,-0.40,-0.33,-0.29,0.01,0.03,0.95,
0.568,-0.40,-0.33,-0.29,0.01,0.03,0.96,
0.568,-0.29,-0.39,-0.27,0.01,0.03,0.96,
0.57,-0.29,-0.39,-0.27,0.02,0.03,0.96,
0.573,-0.29,-0.39,-0.27,0.02,0.03,0.96,
0.574,-0.18,-0.44,-0.24,0.02,0.03,0.96,
0.576,-0.18,-0.44,-0.24,0.03,0.02,0.96,
0.578,-0.18,-0.44,-0.24,0.03,0.02,0.96,
0.579,-0.09,-0.48,-0.21,0.03,0.02,0.96,
0.582,-0.09,-0.48,-0.21,0.04,0.02,0.96,
0.583,-0.09,-0.48,-0.21,0.04,0.02,0.97,
0.583,0.01,-0.51,-0.18,0.04,0.02,0.97,
0.585,0.01,-0.51,-0.18,0.04,0.02,0.97,
0.588,0.01,-0.51,-0.18,0.04,0.02,0.97,
0.588,0.07,-0.53,-0.14,0.04,0.02,0.97,
0.591,0.07,-0.53,-0.14,0.04,0.02,0.97,
0.593,0.07,-0.53,-0.14,0.04,0.02,0.97,
0.593,0.11,-0.54,-0.12,0.04,0.02,0.97,
0.595,0.11,-0.54,-0.12,0.04,0.02,0.97,
0.597,0.11,-0.54,-0.12,0.04,0.02,0.97,
0.598,0.11,-0.53,-0.09,0.04,0.02,0.97,
0.601,0.11,-0.53,-0.09,0.03,0.02,0.97,
0.602,0.11,-0.53,-0.09,0.03,0.02,0.97,
0.603,0.07,-0.51,-0.07,0.03,0.02,0.97,
0.605,0.07,-0.51,-0.07,0.02,0.02,0.97,
0.608,0.07,-0.51,-0.07,0.01,0.03,0.97,
0.608,-0.02,-0.47,-0.06,0.01,0.03,0.97,
0.61,-0.02,-0.47,-0.06,0.00,0.03,0.97,
0.612,-0.02,-0.47,-0.06,-0.00,0.03,0.97,
0.613,-0.15,-0.44,-0.05,-0.00,0.03,0.97,
0.615,-0.15,-0.44,-0.05,-0.01,0.03,0.97,
0.617,-0.15,-0.44,-0.05,-0.02,0.03,0.97,
0.617,-0.29,-0.40,-0.05,-0.02,0.03,0.97,
0.62,-0.29,-0.40,-0.05,-0.02,0.03,0.97,
0.622,-0.29,-0.40,-0.05,-0.03,0.03,0.97,
0.623,-0.43,-0.36,-0.07,-0.03,0.03,0.97,
0.636,-0.43,-0.36,-0.07,-0.04,0.03,0.97,
0.637,-0.43,-0.36,-0.07,-0.05,0.04,0.97,
0.637,-0.57,-0.34,-0.06,-0.05,0.04,0.97,
0.637,-0.57,-0.34,-0.06,-0.05,0.04,0.97,
0.637,-0.57,-0.34,-0.06,-0.06,0.04,0.97,
0.637,-0.71,-0.30,-0.06,-0.06,0.04,0.97,
0.637,-0.71,-0.30,-0.06,-0.06,0.04,0.98,
0.638,-0.71,-0.30,-0.06,-0.07,0.04,0.98,
0.638,-0.82,-0.24,-0.06,-0.07,0.04,0.98,
0.639,-0.82,-0.24,-0.06,-0.07,0.05,0.98,
0.651,-0.82,-0.24,-0.06,-0.08,0.05,0.98,
0.651,-0.90,-0.20,-0.02,-0.08,0.05,0.98,
0.651,-0.90,-0.20,-0.02,-0.08,0.05,0.99,
0.651,-0.90,-0.20,-0.02,-0.08,0.05,0.99,
0.653,-0.97,-0.17,0.03,-0.08,0.05,0.99,
0.653,-0.97,-0.17,0.03,-0.09,0.04,0.99,
0.653,-0.97,-0.17,0.03,-0.09,0.04,0.99,
0.653,-1.05,-0.17,0.07,-0.09,0.04,0.99,
0.654,-1.05,-0.17,0.07,-0.09,0.04,0.99,
0.656,-1.05,-0.17,0.07,-0.09,0.04,0.99,
0.656,-1.11,-0.18,0.10,-0.09,0.04,0.99,
0.659,-1.11,-0.18,0.10,-0.09,0.04,1.00,
0.662,-1.11,-0.18,0.10,-0.09,0.03,1.00,
0.662,-1.12,-0.21,0.13,-0.09,0.03,1.00,
0.664,-1.12,-0.21,0.13,-0.09,0.03,1.00,
0.666,-1.12,-0.21,0.13,-0.09,0.03,1.00,
0.666,-1.13,-0.24,0.15,-0.09,0.03,1.00,
0.668,-1.13,-0.24,0.15,-0.09,0.02,0.99,
0.671,-1.13,-0.24,0.15,-0.08,0.02,0.99,
0.671,-1.10,-0.30,0.15,-0.08,0.02,0.99,
0.674,-1.10,-0.30,0.15,-0.08,0.02,0.99,
0.676,-1.10,-0.30,0.15,-0.08,0.02,0.99,
0.676,-1.03,-0.35,0.11,-0.08,0.02,0.99,
0.679,-1.03,-0.35,0.11,-0.07,0.01,0.98,
0.682,-1.03,-0.35,0.11,-0.07,0.01,0.98,
0.682,-0.95,-0.39,0.07,-0.07,0.01,0.98,
0.683,-0.95,-0.39,0.07,-0.06,0.01,0.98,
0.686,-0.95,-0.39,0.07,-0.06,0.01,0.97,
0.686,-0.86,-0.42,-0.00,-0.06,0.01,0.97,
0.688,-0.86,-0.42,-0.00,-0.05,0.01,0.97,
0.691,-0.86,-0.42,-0.00,-0.05,0.01,0.97,
0.691,-0.80,-0.42,-0.06,-0.05,0.01,0.97,
0.693,-0.80,-0.42,-0.06,-0.05,0.01,0.97,
0.696,-0.80,-0.42,-0.06,-0.04,0.01,0.96,
0.696,-0.70,-0.43,-0.10,-0.04,0.01,0.96,
0.698,-0.70,-0.43,-0.10,-0.05,0.01,0.96,
0.702,-0.70,-0.43,-0.10,-0.05,0.01,0.96,
0.702,-0.64,-0.41,-0.14,-0.05,0.01,0.96,
0.703,-0.64,-0.41,-0.14,-0.05,0.01,0.96,
0.705,-0.64,-0.41,-0.14,-0.05,0.01,0.96,
0.706,-0.65,-0.40,-0.19,-0.05,0.01,0.96,
0.712,-0.65,-0.40,-0.19,-0.05,0.01,0.96,
0.713,-0.65,-0.40,-0.19,-0.06,0.01,0.96,
0.713,-0.70,-0.40,-0.20,-0.06,0.01,0.96,
0.713,-0.70,-0.40,-0.20,-0.06,0.01,0.96,
0.715,-0.75,-0.39,-0.19,-0.06,0.01,0.96,
0.715,-0.75,-0.39,-0.19,-0.07,0.01,0.97,
0.717,-0.75,-0.39,-0.19,-0.07,0.01,0.97,
0.722,-0.75,-0.39,-0.19,-0.08,0.01,0.97,
0.722,-0.85,-0.37,-0.15,-0.08,0.01,0.97,
0.723,-0.85,-0.37,-0.15,-0.09,0.01,0.97,
0.725,-0.85,-0.37,-0.15,-0.09,0.01,0.97,
0.726,-0.94,-0.37,-0.13,-0.09,0.01,0.97,
0.727,-0.94,-0.37,-0.13,-0.10,0.01,0.97,
0.73,-0.94,-0.37,-0.13,-0.10,0.01,0.97,
0.731,-1.06,-0.34,-0.10,-0.10,0.01,0.97,
0.732,-1.06,-0.34,-0.10,-0.11,0.01,0.97,
0.735,-1.06,-0.34,-0.10,-0.12,0.01,0.97,
0.735,-1.16,-0.33,-0.07,-0.12,0.01,0.97,
0.737,-1.16,-0.33,-0.07,-0.12,0.01,0.97,
0.74,-1.16,-0.33,-0.07,-0.13,0.01,0.97,
0.74,-1.29,-0.33,-0.06,-0.13,0.01,0.97,
0.742,-1.29,-0.33,-0.06,-0.14,0.01,0.97,
0.744,-1.29,-0.33,-0.06,-0.14,0.01,0.97,
0.744,-1.37,-0.34,-0.06,-0.14,0.01,0.97,
0.747,-1.37,-0.34,-0.06,-0.15,0.01,0.97,
0.749,-1.37,-0.34,-0.06,-0.16,0.00,0.97,
0.749,-1.47,-0.34,-0.08,-0.16,0.00,0.97,
0.752,-1.47,-0.34,-0.08,-0.16,0.00,0.97,
0.754,-1.47,-0.34,-0.08,-0.17,0.00,0.97,
0.754,-1.59,-0.36,-0.09,-0.17,0.00,0.97,
0.756,-1.59,-0.36,-0.09,-0.17,0.00,0.97,
0.759,-1.59,-0.36,-0.09,-0.17,0.00,0.96,
0.759,-1.68,-0.38,-0.10,-0.17,0.00,0.96,
0.762,-1.68,-0.38,-0.10,-0.17,0.00,0.96,
0.764,-1.68,-0.38,-0.10,-0.17,0.00,0.96,
0.764,-1.71,-0.38,-0.13,-0.17,0.00,0.96,
0.766,-1.71,-0.38,-0.13,-0.17,0.00,0.96,
0.769,-1.71,-0.38,-0.13,-0.17,0.00,0.96,
0.769,-1.71,-0.37,-0.18,-0.17,0.00,0.96,
0.772,-1.71,-0.37,-0.18,-0.17,0.00,0.95,
0.774,-1.71,-0.37,-0.18,-0.17,0.00,0.96,
0.774,-1.70,-0.37,-0.21,-0.17,0.00,0.96,
0.776,-1.70,-0.37,-0.21,-0.16,-0.00,0.95,
0.779,-1.70,-0.37,-0.21,-0.16,-0.00,0.95,
0.779,-1.63,-0.37,-0.24,-0.16,-0.00,0.95,
0.782,-1.63,-0.37,-0.24,-0.15,-0.00,0.95,
0.784,-1.63,-0.37,-0.24,-0.15,-0.01,0.95,
0.784,-1.54,-0.40,-0.26,-0.15,-0.01,0.95,
0.786,-1.54,-0.40,-0.26,-0.14,-0.01,0.95,
0.789,-1.54,-0.40,-0.26,-0.14,-0.01,0.95,
0.789,-1.42,-0.41,-0.30,-0.14,-0.01,0.95,
0.792,-1.42,-0.41,-0.30,-0.13,-0.01,0.95,
0.794,-1.42,-0.41,-0.30,-0.13,-0.01,0.95,
0.795,-1.29,-0.44,-0.28,-0.13,-0.01,0.95,
0.797,-1.29,-0.44,-0.28,-0.13,-0.01,0.95,
0.799,-1.29,-0.44,-0.28,-0.12,-0.01,0.96,
0.799,-1.20,-0.44,-0.28,-0.12,-0.01,0.96,
0.802,-1.20,-0.44,-0.28,-0.12,-0.01,0.95,
0.803,-1.20,-0.44,-0.28,-0.12,-0.01,0.95,
0.803,-1.13,-0.40,-0.24,-0.12,-0.01,0.95,
0.807,-1.13,-0.40,-0.24,-0.12,-0.00,0.96,
0.808,-1.13,-0.40,-0.24,-0.12,-0.00,0.95,
0.808,-1.09,-0.37,-0.23,-0.12,-0.00,0.95,
0.811,-1.09,-0.37,-0.23,-0.12,-0.00,0.95,
0.813,-1.09,-0.37,-0.23,-0.12,0.00,0.95,
0.813,-1.10,-0.34,-0.22,-0.12,0.00,0.95,
0.816,-1.10,-0.34,-0.22,-0.12,0.00,0.95,
0.818,-1.10,-0.34,-0.22,-0.13,0.01,0.95,
0.818,-1.08,-0.29,-0.25,-0.13,0.01,0.95,
0.822,-1.08,-0.29,-0.25,-0.13,0.01,0.95,
0.828,-1.08,-0.29,-0.25,-0.13,0.01,0.95,
0.829,-1.14,-0.22,-0.28,-0.13,0.01,0.95,
0.829,-1.14,-0.22,-0.28,-0.13,0.02,0.95,
0.829,-1.14,-0.22,-0.28,-0.13,0.02,0.94,
0.83,-1.19,-0.14,-0.30,-0.13,0.02,0.94,
0.83,-1.19,-0.14,-0.30,-0.13,0.02,0.94,
0.833,-1.19,-0.14,-0.30,-0.13,0.03,0.94,
0.833,-1.21,-0.05,-0.32,-0.13,0.03,0.94,
0.835,-1.21,-0.05,-0.32,-0.13,0.03,0.94,
0.837,-1.21,-0.05,-0.32,-0.13,0.03,0.94,
0.838,-1.25,0.02,-0.33,-0.13,0.03,0.94,
0.845,-1.25,0.02,-0.33,-0.13,0.03,0.95,
0.845,-1.25,0.02,-0.33,-0.13,0.04,0.95,
0.845,-1.23,0.10,-0.34,-0.13,0.04,0.95,
0.845,-1.23,0.10,-0.34,-0.13,0.04,0.95,
0.847,-1.23,0.10,-0.34,-0.13,0.04,0.95,
0.847,-1.20,0.16,-0.31,-0.13,0.04,0.95,
0.85,-1.20,0.16,-0.31,-0.12,0.04,0.95,
0.852,-1.20,0.16,-0.31,-0.12,0.04,0.95,
0.852,-1.18,0.21,-0.30,-0.12,0.04,0.95,
0.855,-1.18,0.21,-0.30,-0.12,0.04,0.95,
0.857,-1.18,0.21,-0.30,-0.11,0.04,0.95,
0.857,-1.11,0.26,-0.29,-0.11,0.04,0.95,
0.86,-1.11,0.26,-0.29,-0.11,0.04,0.96,
0.862,-1.11,0.26,-0.29,-0.11,0.04,0.96,
0.863,-1.05,0.28,-0.25,-0.11,0.04,0.96,
0.864,-1.05,0.28,-0.25,-0.11,0.04,0.96,
0.867,-1.05,0.28,-0.25,-0.10,0.03,0.96,
0.867,-1.00,0.25,-0.21,-0.10,0.03,0.96,
0.869,-1.00,0.25,-0.21,-0.10,0.03,0.96,
0.872,-1.00,0.25,-0.21,-0.10,0.03,0.97,
0.872,-0.92,0.24,-0.17,-0.10,0.03,0.97,
0.874,-0.92,0.24,-0.17,-0.09,0.03,0.97,
0.877,-0.92,0.24,-0.17,-0.09,0.03,0.98,
0.877,-0.84,0.22,-0.11,-0.09,0.03,0.98,
0.879,-0.84,0.22,-0.11,-0.08,0.03,0.98,
0.882,-0.84,0.22,-0.11,-0.08,0.03,0.98,
0.882,-0.75,0.22,-0.02,-0.08,0.03,0.98,
0.884,-0.75,0.22,-0.02,-0.08,0.03,0.99,
0.886,-0.75,0.22,-0.02,-0.07,0.03,0.99,
0.887,-0.66,0.21,0.04,-0.07,0.03,0.99,
0.89,-0.66,0.21,0.04,-0.07,0.02,0.99,
0.892,-0.66,0.21,0.04,-0.06,0.02,0.99,
0.892,-0.57,0.21,0.09,-0.06,0.02,0.99,
0.894,-0.57,0.21,0.09,-0.06,0.02,0.99,
0.896,-0.57,0.21,0.09,-0.05,0.02,1.00,
0.896,-0.47,0.19,0.13,-0.05,0.02,1.00,
0.899,-0.47,0.19,0.13,-0.04,0.02,1.00,
0.902,-0.47,0.19,0.13,-0.04,0.03,1.00,
0.902,-0.36,0.20,0.16,-0.04,0.03,1.00,
0.904,-0.36,0.20,0.16,-0.04,0.03,1.01,
0.907,-0.36,0.20,0.16,-0.03,0.03,1.01,
0.908,-0.26,0.24,0.23,-0.03,0.03,1.01,
0.909,-0.26,0.24,0.23,-0.03,0.03,1.01,
0.911,-0.26,0.24,0.23,-0.02,0.04,1.01,
0.912,-0.18,0.30,0.30,-0.02,0.04,1.01,
0.913,-0.18,0.30,0.30,-0.02,0.04,1.01,
0.916,-0.18,0.30,0.30,-0.02,0.04,1.02,
0.916,-0.10,0.37,0.34,-0.02,0.04,1.02,
0.919,-0.10,0.37,0.34,-0.02,0.04,1.01,
0.922,-0.10,0.37,0.34,-0.02,0.04,1.02,
0.922,-0.05,0.42,0.36,-0.02,0.04,1.02,
0.928,-0.05,0.42,0.36,-0.03,0.05,1.02,
0.929,-0.05,0.42,0.36,-0.03,0.05,1.01,
0.929,-0.06,0.47,0.36,-0.03,0.05,1.01,
0.929,-0.06,0.47,0.36,-0.04,0.05,1.01,
0.931,-0.06,0.47,0.36,-0.05,0.06,1.01,
0.931,-0.12,0.54,0.35,-0.05,0.06,1.01,
0.933,-0.12,0.54,0.35,-0.05,0.06,1.01,
0.936,-0.12,0.54,0.35,-0.06,0.06,1.01,
0.936,-0.23,0.60,0.31,-0.06,0.06,1.01,
0.938,-0.23,0.60,0.31,-0.07,0.07,1.00,
0.945,-0.23,0.60,0.31,-0.08,0.08,1.00,
0.945,-0.37,0.67,0.28,-0.08,0.08,1.00,
0.945,-0.37,0.67,0.28,-0.09,0.08,1.00,
0.945,-0.37,0.67,0.28,-0.10,0.09,1.00,
0.945,-0.51,0.78,0.23,-0.10,0.09,1.00,
0.947,-0.51,0.78,0.23,-0.10,0.09,1.00,
0.95,-0.51,0.78,0.23,-0.11,0.10,0.99,
0.95,-0.67,0.91,0.19,-0.11,0.10,0.99,
0.952,-0.67,0.91,0.19,-0.11,0.11,0.99,
0.955,-0.67,0.91,0.19,-0.12,0.12,0.99,
0.955,-0.78,1.02,0.15,-0.12,0.12,0.99,
0.957,-0.78,1.02,0.15,-0.12,0.12,0.99,
0.961,-0.78,1.02,0.15,-0.12,0.13,0.98,
0.962,-0.86,1.16,0.10,-0.12,0.13,0.98,
0.962,-0.86,1.16,0.10,-0.13,0.14,0.98,
0.965,-0.86,1.16,0.10,-0.13,0.14,0.98,
0.965,-0.91,1.29,0.04,-0.13,0.14,0.98,
0.967,-0.91,1.29,0.04,-0.13,0.14,0.98,
0.97,-0.91,1.29,0.04,-0.14,0.15,0.97,
0.97,-0.95,1.41,-0.03,-0.14,0.15,0.97,
0.973,-0.95,1.41,-0.03,-0.14,0.15,0.97,
0.974,-0.95,1.41,-0.03,-0.14,0.15,0.97,
0.975,-0.98,1.45,-0.04,-0.14,0.15,0.97,
0.977,-0.98,1.45,-0.04,-0.14,0.15,0.97,
0.979,-0.98,1.45,-0.04,-0.14,0.16,0.97,
0.98,-0.99,1.49,-0.08,-0.14,0.16,0.97,
0.982,-0.99,1.49,-0.08,-0.14,0.16,0.97,
0.984,-0.99,1.49,-0.08,-0.14,0.16,0.98,
0.985,-0.97,1.53,-0.09,-0.14,0.16,0.98,
0.987,-0.97,1.53,-0.09,-0.14,0.16,0.98,
0.99,-0.97,1.53,-0.09,-0.13,0.16,0.98,
0.991,-0.93,1.55,-0.05,-0.13,0.16,0.98,
0.992,-0.93,1.55,-0.05,-0.13,0.16,0.99,
0.994,-0.93,1.55,-0.05,-0.12,0.16,0.99,
0.994,-0.87,1.56,0.02,-0.12,0.16,0.99,
0.996,-0.87,1.56,0.02,-0.12,0.16,1.00,
0.999,-0.77,1.54,0.12,-0.12,0.16,1.00,
0.999,-0.77,1.54,0.12,-0.11,0.16,1.00,
1.002,-0.77,1.54,0.12,-0.11,0.16,1.01,
1.004,-0.77,1.54,0.12,-0.11,0.15,1.01,
1.004,-0.67,1.53,0.21,-0.11,0.15,1.01,
1.006,-0.67,1.53,0.21,-0.11,0.15,1.02,
1.009,-0.67,1.53,0.21,-0.10,0.15,1.02,
1.009,-0.59,1.51,0.31,-0.10,0.15,1.02,
1.011,-0.59,1.51,0.31,-0.11,0.15,1.02,
1.014,-0.59,1.51,0.31,-0.11,0.15,1.02,
1.014,-0.53,1.45,0.37,-0.11,0.15,1.02,
1.016,-0.53,1.45,0.37,-0.11,0.14,1.03,
1.019,-0.53,1.45,0.37,-0.11,0.15,1.03,
1.019,-0.53,1.43,0.43,-0.11,0.15,1.03,
1.027,-0.53,1.43,0.43,-0.11,0.15,1.03,
1.028,-0.53,1.43,0.43,-0.11,0.15,1.03,
1.028,-0.53,1.43,0.47,-0.11,0.15,1.03,
1.028,-0.53,1.43,0.47,-0.12,0.15,1.03,
1.029,-0.53,1.43,0.47,-0.12,0.15,1.03,
1.029,-0.56,1.44,0.50,-0.12,0.15,1.03,
1.031,-0.56,1.44,0.50,-0.13,0.16,1.03,
1.033,-0.56,1.44,0.50,-0.13,0.16,1.03,
1.034,-0.61,1.48,0.50,-0.13,0.16,1.03,
1.036,-0.61,1.48,0.50,-0.14,0.16,1.03,
1.039,-0.61,1.48,0.50,-0.14,0.17,1.04,
1.039,-0.68,1.53,0.52,-0.14,0.17,1.04,
1.044,-0.68,1.53,0.52,-0.15,0.17,1.04,
1.045,-0.68,1.53,0.52,-0.15,0.18,1.03,
1.045,-0.78,1.59,0.51,-0.15,0.18,1.03,
1.046,-0.78,1.59,0.51,-0.16,0.18,1.03,
1.048,-0.78,1.59,0.51,-0.16,0.18,1.03,
1.048,-0.87,1.65,0.51,-0.16,0.18,1.03,
1.05,-0.87,1.65,0.51,-0.17,0.19,1.03,
1.053,-0.87,1.65,0.51,-0.17,0.19,1.03,
1.053,-0.92,1.71,0.50,-0.17,0.19,1.03,
1.056,-0.92,1.71,0.50,-0.18,0.19,1.03,
1.057,-0.92,1.71,0.50,-0.18,0.19,1.03,
1.058,-1.01,1.78,0.47,-0.18,0.19,1.03,
1.061,-1.01,1.78,0.47,-0.18,0.20,1.03,
1.063,-1.01,1.78,0.47,-0.19,0.20,1.02,
1.063,-1.06,1.82,0.45,-0.19,0.20,1.02,
1.065,-1.06,1.82,0.45,-0.19,0.20,1.02,
1.067,-1.06,1.82,0.45,-0.19,0.20,1.02,
1.068,-1.12,1.86,0.41,-0.19,0.20,1.02,
1.07,-1.12,1.86,0.41,-0.19,0.20,1.02,
1.073,-1.12,1.86,0.41,-0.19,0.20,1.01,
1.074,-1.13,1.86,0.36,-0.19,0.20,1.01,
1.075,-1.13,1.86,0.36,-0.19,0.20,1.01,
1.077,-1.13,1.86,0.36,-0.18,0.20,1.01,
1.078,-1.12,1.85,0.32,-0.18,0.20,1.01,
1.081,-1.12,1.85,0.32,-0.18,0.20,1.01,
1.082,-1.12,1.85,0.32,-0.17,0.20,1.01,
1.082,-1.05,1.84,0.27,-0.17,0.20,1.01,
1.085,-1.05,1.84,0.27,-0.17,0.20,1.01,
1.087,-1.05,1.84,0.27,-0.16,0.19,1.01,
1.087,-0.95,1.83,0.27,-0.16,0.19,1.01,
1.09,-0.95,1.83,0.27,-0.15,0.19,1.01,
1.092,-0.95,1.83,0.27,-0.15,0.19,1.00,
1.093,-0.83,1.79,0.25,-0.15,0.19,1.00,
1.095,-0.83,1.79,0.25,-0.14,0.19,1.01,
1.097,-0.83,1.79,0.25,-0.13,0.18,1.01,
1.097,-0.69,1.73,0.23,-0.13,0.18,1.01,
1.099,-0.69,1.73,0.23,-0.12,0.18,1.01,
1.102,-0.53,1.70,0.24,-0.12,0.18,1.01,
1.102,-0.53,1.70,0.24,-0.12,0.18,1.01,
1.104,-0.53,1.70,0.24,-0.11,0.18,1.01,
1.11,-0.53,1.70,0.24,-0.10,0.17,1.01,
1.11,-0.37,1.64,0.28,-0.10,0.17,1.01,
1.11,-0.37,1.64,0.28,-0.10,0.17,1.01,
1.111,-0.37,1.64,0.28,-0.09,0.17,1.02,
1.112,-0.22,1.58,0.31,-0.09,0.17,1.02,
1.114,-0.22,1.58,0.31,-0.09,0.17,1.02,
1.116,-0.22,1.58,0.31,-0.08,0.16,1.02,
1.117,-0.06,1.52,0.33,-0.08,0.16,1.02,
1.119,-0.06,1.52,0.33,-0.08,0.16,1.02,
1.123,-0.06,1.52,0.33,-0.08,0.16,1.02,
1.123,0.05,1.46,0.38,-0.08,0.16,1.02,
1.124,0.05,1.46,0.38,-0.07,0.16,1.02,
1.126,0.05,1.46,0.38,-0.07,0.16,1.02,
1.126,0.14,1.42,0.41,-0.07,0.16,1.02,
1.128,0.14,1.42,0.41,-0.07,0.16,1.02,
1.131,0.14,1.42,0.41,-0.07,0.16,1.02,
1.131,0.21,1.40,0.40,-0.07,0.16,1.02,
1.133,0.21,1.40,0.40,-0.08,0.16,1.02,
1.136,0.21,1.40,0.40,-0.08,0.16,1.02,
1.137,0.21,1.37,0.40,-0.08,0.16,1.02,
1.139,0.21,1.37,0.40,-0.08,0.16,1.01,
1.142,0.21,1.37,0.40,-0.08,0.16,1.01,
1.142,0.20,1.37,0.37,-0.08,0.16,1.01,
1.143,0.20,1.37,0.37,-0.08,0.16,1.01,
1.146,0.20,1.37,0.37,-0.08,0.16,1.00,
1.146,0.19,1.35,0.30,-0.08,0.16,1.00,
1.148,0.19,1.35,0.30,-0.09,0.17,1.00,
1.151,0.17,1.37,0.23,-0.09,0.17,1.00,
1.151,0.17,1.37,0.23,-0.09,0.17,0.99,
1.153,0.17,1.37,0.23,-0.08,0.17,0.99,
1.156,0.17,1.37,0.23,-0.08,0.17,0.99,
1.156,0.13,1.40,0.15,-0.08,0.17,0.99,
1.158,0.13,1.40,0.15,-0.08,0.18,0.98,
1.162,0.13,1.40,0.15,-0.07,0.18,0.98,
1.162,0.21,1.42,0.08,-0.07,0.18,0.98,
1.163,0.21,1.42,0.08,-0.07,0.18,0.97,
1.165,0.21,1.42,0.08,-0.06,0.18,0.97,
1.165,0.27,1.48,-0.00,-0.06,0.18,0.97,
1.168,0.27,1.48,-0.00,-0.05,0.18,0.97,
1.17,0.27,1.48,-0.00,-0.05,0.18,0.97,
1.17,0.42,1.51,-0.08,-0.05,0.18,0.97,
1.173,0.42,1.51,-0.08,-0.04,0.18,0.97,
1.175,0.42,1.51,-0.08,-0.03,0.19,0.98,
1.175,0.56,1.52,-0.10,-0.03,0.19,0.98,
1.177,0.56,1.52,-0.10,-0.02,0.19,0.98,
1.181,0.56,1.52,-0.10,-0.01,0.19,0.99,
1.182,0.72,1.53,-0.06,-0.01,0.19,0.99,
1.183,0.72,1.53,-0.06,-0.01,0.19,1.00,
1.185,0.72,1.53,-0.06,0.00,0.19,1.01,
1.185,0.91,1.56,0.06,0.00,0.19,1.01,
1.187,0.91,1.56,0.06,0.01,0.19,1.02,
1.19,0.91,1.56,0.06,0.02,0.19,1.03,
1.191,1.07,1.55,0.22,0.02,0.19,1.03,
1.193,1.07,1.55,0.22,0.02,0.18,1.04,
1.195,1.07,1.55,0.22,0.03,0.18,1.05,
1.195,1.24,1.52,0.42,0.03,0.18,1.05,
1.197,1.24,1.52,0.42,0.03,0.18,1.06,
1.201,1.24,1.52,0.42,0.04,0.17,1.06,
1.201,1.38,1.46,0.62,0.04,0.17,1.06,
1.202,1.38,1.46,0.62,0.04,0.17,1.07,
1.205,1.38,1.46,0.62,0.04,0.17,1.08,
1.205,1.48,1.39,0.79,0.04,0.17,1.08,
1.211,1.48,1.39,0.79,0.04,0.16,1.08,
1.211,1.48,1.39,0.79,0.04,0.16,1.08,
1.212,1.53,1.32,0.94,0.04,0.16,1.08,
1.212,1.53,1.32,0.94,0.03,0.16,1.09,
1.214,1.53,1.32,0.94,0.03,0.16,1.09,
1.215,1.53,1.26,1.02,0.03,0.16,1.09,
1.217,1.53,1.26,1.02,0.03,0.15,1.09,
1.219,1.53,1.26,1.02,0.02,0.15,1.08,
1.219,1.50,1.18,1.07,0.02,0.15,1.08,
1.225,1.50,1.18,1.07,0.01,0.15,1.08,
1.226,1.50,1.18,1.07,0.00,0.15,1.08,
1.226,1.43,1.12,1.05,0.00,0.15,1.08,
1.226,1.43,1.12,1.05,-0.00,0.15,1.07,
1.229,1.43,1.12,1.05,-0.01,0.15,1.06,
1.229,1.32,1.06,1.00,-0.01,0.15,1.06,
1.231,1.32,1.06,1.00,-0.01,0.15,1.05,
1.234,1.32,1.06,1.00,-0.02,0.15,1.05,
1.234,1.22,1.02,0.87,-0.02,0.15,1.05,
1.236,1.22,1.02,0.87,-0.02,0.15,1.04,
1.239,1.22,1.02,0.87,-0.02,0.15,1.03,
1.239,1.14,1.01,0.72,-0.02,0.15,1.03,
1.242,1.14,1.01,0.72,-0.03,0.15,1.02,
1.244,1.14,1.01,0.72,-0.03,0.16,1.01,
1.244,1.07,0.99,0.55,-0.03,0.16,1.01,
1.247,1.07,0.99,0.55,-0.04,0.16,1.00,
1.249,1.07,0.99,0.55,-0.04,0.16,1.00,
1.249,0.99,1.00,0.39,-0.04,0.16,1.00,
1.251,0.99,1.00,0.39,-0.04,0.16,0.99,
1.254,0.99,1.00,0.39,-0.03,0.17,0.98,
1.254,0.94,1.00,0.23,-0.03,0.17,0.98,
1.256,0.94,1.00,0.23,-0.03,0.17,0.98,
1.259,0.94,1.00,0.23,-0.03,0.17,0.98,
1.259,0.96,1.04,0.10,-0.03,0.17,0.98,
1.262,0.96,1.04,0.10,-0.03,0.17,0.97,
1.263,0.96,1.04,0.10,-0.02,0.17,0.97,
1.263,1.03,1.06,0.02,-0.02,0.17,0.97,
1.266,1.03,1.06,0.02,-0.02,0.17,0.97,
1.268,1.03,1.06,0.02,-0.01,0.17,0.97,
1.268,1.08,1.05,-0.06,-0.01,0.17,0.97,
1.271,1.08,1.05,-0.06,-0.01,0.17,0.97,
1.273,1.08,1.05,-0.06,-0.00,0.17,0.97,
1.274,1.18,1.05,-0.07,-0.00,0.17,0.97,
1.276,1.18,1.05,-0.07,0.00,0.17,0.97,
1.278,1.18,1.05,-0.07,0.01,0.17,0.98,
1.279,1.30,1.02,-0.05,0.01,0.17,0.98,
1.282,1.30,1.02,-0.05,0.01,0.16,0.98,
1.283,1.30,1.02,-0.05,0.02,0.16,0.99,
1.283,1.41,0.96,0.02,0.02,0.16,0.99,
1.285,1.41,0.96,0.02,0.02,0.16,0.99,
1.289,1.41,0.96,0.02,0.02,0.15,0.99,
1.29,1.53,0.91,0.11,0.02,0.15,0.99,
1.291,1.53,0.91,0.11,0.02,0.15,1.00,
1.293,1.53,0.91,0.11,0.02,0.14,1.00,
1.293,1.59,0.81,0.18,0.02,0.14,1.00,
1.295,1.59,0.81,0.18,0.02,0.14,1.01,
1.298,1.59,0.81,0.18,0.02,0.13,1.01,
1.298,1.63,0.68,0.27,0.02,0.13,1.01,
1.301,1.63,0.68,0.27,0.02,0.12,1.01,
1.302,1.63,0.68,0.27,0.02,0.12,1.01,
1.303,1.63,0.54,0.35,0.02,0.12,1.01,
1.306,1.63,0.54,0.35,0.01,0.11,1.01,
1.307,1.63,0.54,0.35,0.01,0.11,1.01,
1.308,1.58,0.40,0.40,0.01,0.11,1.01,
1.31,1.58,0.40,0.40,0.01,0.10,1.01,
1.312,1.58,0.40,0.40,0.01,0.10,1.01,
1.312,1.53,0.27,0.40,0.01,0.10,1.01,
1.315,1.53,0.27,0.40,0.00,0.10,1.00,
1.317,1.53,0.27,0.40,0.00,0.10,0.99,
1.317,1.50,0.19,0.33,0.00,0.10,0.99,
1.321,1.50,0.19,0.33,0.00,0.10,0.99,
1.327,1.50,0.19,0.33,0.00,0.10,0.98,
1.328,1.45,0.13,0.24,0.00,0.10,0.98,
1.328,1.45,0.13,0.24,0.00,0.10,0.98,
1.328,1.45,0.13,0.24,0.01,0.10,0.97,
1.329,1.46,0.10,0.13,0.01,0.10,0.97,
1.329,1.46,0.10,0.13,0.01,0.10,0.96,
1.332,1.46,0.10,0.13,0.01,0.10,0.96,
1.332,1.46,0.09,0.01,0.01,0.10,0.96,
1.334,1.46,0.09,0.01,0.02,0.11,0.96,
1.337,1.46,0.09,0.01,0.02,0.11,0.96,
1.337,1.51,0.10,-0.09,0.02,0.11,0.96,
1.344,1.51,0.10,-0.09,0.02,0.11,0.95,
1.344,1.51,0.10,-0.09,0.03,0.11,0.95,
1.344,1.57,0.12,-0.14,0.03,0.11,0.95,
1.344,1.57,0.12,-0.14,0.03,0.11,0.95,
1.347,1.57,0.12,-0.14,0.03,0.11,0.95,
1.347,1.63,0.12,-0.20,0.03,0.11,0.95,
1.349,1.63,0.12,-0.20,0.04,0.11,0.95,
1.351,1.63,0.12,-0.20,0.04,0.10,0.95,
1.351,1.67,0.10,-0.21,0.04,0.10,0.95,
1.354,1.67,0.10,-0.21,0.04,0.10,0.96,
1.356,1.67,0.10,-0.21,0.05,0.10,0.96,
1.357,1.75,0.06,-0.21,0.05,0.10,0.96,
1.359,1.75,0.06,-0.21,0.05,0.10,0.96,
1.362,1.75,0.06,-0.21,0.06,0.10,0.97,
1.362,1.83,0.01,-0.14,0.06,0.10,0.97,
1.364,1.83,0.01,-0.14,0.06,0.09,0.98,
1.366,1.83,0.01,-0.14,0.07,0.09,0.99,
1.366,1.93,-0.04,-0.03,0.07,0.09,0.99,
1.368,1.93,-0.04,-0.03,0.08,0.09,0.99,
1.371,1.93,-0.04,-0.03,0.08,0.09,1.00,
1.371,2.03,-0.10,0.11,0.08,0.09,1.00,
1.373,2.03,-0.10,0.11,0.08,0.09,1.01,
1.376,2.03,-0.10,0.11,0.09,0.08,1.01,
1.376,2.14,-0.14,0.25,0.09,0.08,1.01,
1.379,2.14,-0.14,0.25,0.09,0.08,1.02,
1.381,2.14,-0.14,0.25,0.09,0.08,1.02,
1.382,2.21,-0.20,0.38,0.09,0.08,1.02,
1.383,2.21,-0.20,0.38,0.09,0.08,1.02,
1.386,2.21,-0.20,0.38,0.09,0.08,1.02,
1.386,2.25,-0.25,0.49,0.09,0.08,1.02,
1.389,2.25,-0.25,0.49,0.09,0.08,1.02,
1.391,2.25,-0.25,0.49,0.08,0.08,1.02,
1.391,2.24,-0.31,0.53,0.08,0.08,1.02,
1.393,2.24,-0.31,0.53,0.08,0.08,1.02,
1.396,2.24,-0.31,0.53,0.07,0.08,1.02,
1.396,2.19,-0.34,0.53,0.07,0.08,1.02,
1.398,2.19,-0.34,0.53,0.07,0.08,1.01,
1.402,2.19,-0.34,0.53,0.06,0.08,1.01,
1.402,2.11,-0.35,0.47,0.06,0.08,1.01,
1.403,2.11,-0.35,0.47,0.06,0.08,1.00,
1.406,2.11,-0.35,0.47,0.05,0.08,0.99,
1.406,2.03,-0.35,0.38,0.05,0.08,0.99,
1.408,2.03,-0.35,0.38,0.05,0.09,0.99,
1.41,2.03,-0.35,0.38,0.04,0.09,0.98,
1.411,1.93,-0.35,0.27,0.04,0.09,0.98,
1.413,1.93,-0.35,0.27,0.04,0.09,0.98,
1.415,1.93,-0.35,0.27,0.03,0.09,0.97,
1.415,1.82,-0.30,0.15,0.03,0.09,0.97,
1.418,1.82,-0.30,0.15,0.02,0.10,0.96,
1.427,1.82,-0.30,0.15,0.02,0.10,0.95,
1.428,1.66,-0.27,0.03,0.02,0.10,0.95,
1.428,1.66,-0.27,0.03,0.01,0.11,0.95,
1.428,1.66,-0.27,0.03,0.01,0.11,0.94,
1.429,1.52,-0.23,-0.11,0.01,0.11,0.94,
1.429,1.52,-0.23,-0.11,0.01,0.11,0.94,
1.43,1.52,-0.23,-0.11,0.01,0.11,0.93,
1.431,1.43,-0.17,-0.24,0.01,0.11,0.93,
1.432,1.43,-0.17,-0.24,0.00,0.12,0.93,
1.435,1.43,-0.17,-0.24,0.01,0.12,0.93,
1.435,1.37,-0.14,-0.33,0.01,0.12,0.93,
1.437,1.37,-0.14,-0.33,0.01,0.12,0.93,
1.446,1.37,-0.14,-0.33,0.01,0.12,0.94,
1.446,1.35,-0.10,-0.36,0.01,0.12,0.94,
1.446,1.35,-0.10,-0.36,0.01,0.12,0.94,
1.447,1.35,-0.10,-0.36,0.01,0.12,0.95,
1.447,1.35,-0.09,-0.33,0.01,0.12,0.95,
1.448,1.35,-0.09,-0.33,0.02,0.11,0.95,
1.449,1.35,-0.09,-0.33,0.02,0.11,0.96,
1.449,1.38,-0.12,-0.24,0.02,0.11,0.96,
1.452,1.38,-0.12,-0.24,0.02,0.11,0.96,
1.455,1.38,-0.12,-0.24,0.02,0.10,0.97,
1.456,1.43,-0.17,-0.15,0.02,0.10,0.97,
1.457,1.43,-0.17,-0.15,0.03,0.10,0.98,
1.459,1.43,-0.17,-0.15,0.03,0.10,0.98,
1.459,1.47,-0.27,-0.03,0.03,0.10,0.98,
1.462,1.47,-0.27,-0.03,0.03,0.09,0.99,
1.464,1.47,-0.27,-0.03,0.04,0.09,0.99,
1.465,1.52,-0.34,0.10,0.04,0.09,0.99,
1.466,1.52,-0.34,0.10,0.04,0.09,1.00,
1.469,1.52,-0.34,0.10,0.04,0.09,1.00,
1.469,1.58,-0.40,0.21,0.04,0.09,1.00,
1.471,1.58,-0.40,0.21,0.04,0.08,1.01,
1.474,1.58,-0.40,0.21,0.04,0.08,1.01,
1.474,1.61,-0.45,0.30,0.04,0.08,1.01,
1.476,1.61,-0.45,0.30,0.05,0.08,1.01,
1.478,1.61,-0.45,0.30,0.05,0.08,1.01,
1.479,1.65,-0.49,0.37,0.05,0.08,1.01,
1.482,1.65,-0.49,0.37,0.05,0.08,1.00,
1.483,1.65,-0.49,0.37,0.05,0.08,1.00,
1.484,1.67,-0.55,0.37,0.05,0.08,1.00,
1.486,1.67,-0.55,0.37,0.05,0.08,1.00,
1.489,1.67,-0.55,0.37,0.05,0.08,0.99,
1.489,1.71,-0.57,0.34,0.05,0.08,0.99,
1.491,1.71,-0.57,0.34,0.05,0.08,0.98,
1.493,1.71,-0.60,0.24,0.05,0.08,0.98,
1.494,1.71,-0.60,0.24,0.05,0.08,0.98,
1.496,1.71,-0.60,0.24,0.05,0.07,0.96,
1.499,1.71,-0.60,0.24,0.05,0.07,0.95,
1.499,1.68,-0.62,0.10,0.05,0.07,0.95,
1.501,1.68,-0.62,0.10,0.05,0.07,0.94,
1.503,1.68,-0.62,0.10,0.05,0.07,0.94,
1.504,1.63,-0.65,-0.09,0.05,0.07,0.94,
1.506,1.63,-0.65,-0.09,0.05,0.07,0.93,
1.508,1.63,-0.65,-0.09,0.06,0.07,0.93,
1.508,1.62,-0.67,-0.28,0.06,0.07,0.93,
1.511,1.62,-0.67,-0.28,0.06,0.07,0.92,
1.513,1.62,-0.67,-0.28,0.06,0.07,0.92,
1.513,1.63,-0.69,-0.40,0.06,0.07,0.92,
1.516,1.63,-0.69,-0.40,0.06,0.07,0.92,
1.518,1.63,-0.69,-0.40,0.07,0.07,0.92,
1.518,1.67,-0.69,-0.46,0.07,0.07,0.92,
1.527,1.67,-0.69,-0.46,0.07,0.07,0.93,
1.528,1.67,-0.69,-0.46,0.07,0.07,0.93,
1.528,1.69,-0.69,-0.46,0.07,0.07,0.93,
1.528,1.69,-0.69,-0.46,0.07,0.07,0.93,
1.529,1.69,-0.69,-0.46,0.07,0.07,0.94,
1.529,1.69,-0.71,-0.41,0.07,0.07,0.94,
1.53,1.69,-0.71,-0.41,0.07,0.07,0.94,
1.533,1.69,-0.71,-0.41,0.07,0.07,0.95,
1.533,1.69,-0.72,-0.34,0.07,0.07,0.95,
1.535,1.69,-0.72,-0.34,0.07,0.06,0.95,
1.538,1.69,-0.72,-0.34,0.07,0.06,0.95,
1.538,1.69,-0.73,-0.26,0.07,0.06,0.95,
1.544,1.69,-0.73,-0.26,0.07,0.06,0.96,
1.544,1.69,-0.73,-0.26,0.07,0.06,0.96,
1.544,1.68,-0.78,-0.19,0.07,0.06,0.96,
1.545,1.68,-0.78,-0.19,0.07,0.05,0.96,
1.547,1.68,-0.78,-0.19,0.07,0.05,0.96,
1.547,1.68,-0.82,-0.13,0.07,0.05,0.96,
1.55,1.68,-0.82,-0.13,0.08,0.05,0.96,
1.552,1.68,-0.82,-0.13,0.08,0.05,0.95,
1.552,1.67,-0.86,-0.12,0.08,0.05,0.95,
1.555,1.67,-0.86,-0.12,0.08,0.05,0.95,
1.557,1.67,-0.86,-0.12,0.08,0.05,0.95,
1.557,1.68,-0.89,-0.14,0.08,0.05,0.95,
1.56,1.68,-0.89,-0.14,0.08,0.05,0.94,
1.562,1.68,-0.89,-0.14,0.08,0.05,0.94,
1.562,1.70,-0.91,-0.20,0.08,0.05,0.94,
1.564,1.70,-0.91,-0.20,0.08,0.05,0.93,
1.567,1.70,-0.91,-0.20,0.08,0.05,0.93,
1.567,1.70,-0.92,-0.28,0.08,0.05,0.93,
1.569,1.70,-0.92,-0.28,0.07,0.05,0.93,
1.572,1.70,-0.92,-0.28,0.07,0.05,0.92,
1.572,1.67,-0.91,-0.36,0.07,0.05,0.92,
1.574,1.67,-0.91,-0.36,0.07,0.05,0.92,
1.577,1.67,-0.91,-0.36,0.07,0.05,0.91,
1.577,1.62,-0.94,-0.45,0.07,0.05,0.91,
1.579,1.62,-0.94,-0.45,0.07,0.04,0.91,
1.582,1.62,-0.94,-0.45,0.07,0.04,0.91,
1.582,1.57,-0.96,-0.52,0.07,0.04,0.91,
1.584,1.57,-0.96,-0.52,0.07,0.04,0.91,
1.586,1.57,-0.96,-0.52,0.07,0.04,0.91,
1.587,1.51,-0.97,-0.57,0.07,0.04,0.91,
1.589,1.51,-0.97,-0.57,0.06,0.03,0.91,
1.591,1.51,-0.97,-0.57,0.06,0.03,0.91,
1.592,1.49,-1.03,-0.59,0.06,0.03,0.91,
1.594,1.49,-1.03,-0.59,0.06,0.03,0.91,
1.596,1.49,-1.03,-0.59,0.06,0.03,0.92,
1.596,1.46,-1.06,-0.56,0.06,0.03,0.92,
1.599,1.46,-1.06,-0.56,0.06,0.03,0.92,
1.602,1.46,-1.06,-0.56,0.06,0.02,0.93,
1.602,1.43,-1.08,-0.50,0.06,0.02,0.93,
1.604,1.43,-1.08,-0.50,0.05,0.02,0.94,
1.61,1.43,-1.08,-0.50,0.05,0.02,0.95,
1.611,1.37,-1.10,-0.39,0.05,0.02,0.95,
1.611,1.37,-1.10,-0.39,0.05,0.02,0.95,
1.611,1.37,-1.10,-0.39,0.04,0.02,0.96,
1.611,1.31,-1.12,-0.25,0.04,0.02,0.96,
1.613,1.31,-1.12,-0.25,0.04,0.02,0.97,
1.616,1.31,-1.12,-0.25,0.04,0.02,0.98,
1.616,1.24,-1.12,-0.08,0.04,0.02,0.98,
1.619,1.24,-1.12,-0.08,0.03,0.02,0.99,
1.628,1.24,-1.12,-0.08,0.03,0.03,1.00,
1.628,1.17,-1.11,0.08,0.03,0.03,1.00,
1.629,1.17,-1.11,0.08,0.03,0.03,1.01,
1.629,1.17,-1.11,0.08,0.03,0.03,1.01,
1.63,1.10,-1.05,0.26,0.03,0.03,1.01,
1.631,1.10,-1.05,0.26,0.02,0.03,1.02,
1.631,1.10,-1.05,0.26,0.02,0.04,1.03,
1.631,1.05,-0.99,0.41,0.02,0.04,1.03,
1.633,1.05,-0.99,0.41,0.01,0.04,1.03,
1.636,1.05,-0.99,0.41,0.01,0.04,1.04,
1.636,0.96,-0.92,0.55,0.01,0.04,1.04,
1.638,0.96,-0.92,0.55,0.01,0.04,1.04,
1.642,0.96,-0.92,0.55,0.01,0.04,1.04,
1.642,0.92,-0.83,0.64,0.01,0.04,1.04,
1.643,0.92,-0.83,0.64,0.01,0.04,1.04,
1.645,0.92,-0.83,0.64,0.00,0.04,1.04,
1.645,0.88,-0.82,0.68,0.00,0.04,1.04,
1.647,0.88,-0.82,0.68,-0.00,0.04,1.04,
1.65,0.88,-0.82,0.68,-0.01,0.04,1.03,
1.65,0.81,-0.82,0.69,-0.01,0.04,1.03,
1.653,0.81,-0.82,0.69,-0.01,0.04,1.02,
1.655,0.81,-0.82,0.69,-0.01,0.03,1.01,
1.655,0.71,-0.87,0.62,-0.01,0.03,1.01,
1.657,0.71,-0.87,0.62,-0.01,0.03,1.01,
1.661,0.71,-0.87,0.62,-0.02,0.03,1.00,
1.661,0.63,-0.90,0.46,-0.02,0.03,1.00,
1.662,0.63,-0.90,0.46,-0.02,0.03,0.99,
1.665,0.63,-0.90,0.46,-0.02,0.03,0.98,
1.665,0.57,-0.92,0.29,-0.02,0.03,0.98,
1.667,0.57,-0.92,0.29,-0.02,0.03,0.97,
1.67,0.53,-0.92,0.13,-0.02,0.03,0.97,
1.671,0.53,-0.92,0.13,-0.02,0.04,0.97,
1.673,0.53,-0.92,0.13,-0.02,0.04,0.96,
1.675,0.53,-0.92,0.13,-0.02,0.04,0.96,
1.676,0.50,-0.89,-0.01,-0.02,0.04,0.96,
1.677,0.50,-0.89,-0.01,-0.02,0.04,0.95,
1.679,0.50,-0.89,-0.01,-0.02,0.04,0.95,
1.68,0.47,-0.84,-0.14,-0.02,0.04,0.95,
1.682,0.47,-0.84,-0.14,-0.02,0.04,0.94,
1.684,0.47,-0.84,-0.14,-0.03,0.04,0.94,
1.685,0.42,-0.83,-0.23,-0.03,0.04,0.94,
1.687,0.42,-0.83,-0.23,-0.03,0.03,0.94,
1.689,0.42,-0.83,-0.23,-0.03,0.03,0.94,
1.69,0.35,-0.84,-0.29,-0.03,0.03,0.94,
1.692,0.35,-0.84,-0.29,-0.04,0.03,0.94,
1.694,0.35,-0.84,-0.29,-0.04,0.03,0.94,
1.695,0.27,-0.85,-0.33,-0.04,0.03,0.94,
1.696,0.27,-0.85,-0.33,-0.04,0.03,0.94,
1.699,0.27,-0.85,-0.33,-0.05,0.03,0.94,
1.699,0.19,-0.84,-0.32,-0.05,0.03,0.94,
1.702,0.19,-0.84,-0.32,-0.05,0.03,0.94,
1.71,0.19,-0.84,-0.32,-0.05,0.03,0.94,
1.71,0.11,-0.86,-0.31,-0.05,0.03,0.94,
1.711,0.11,-0.86,-0.31,-0.05,0.03,0.94,
1.711,0.11,-0.86,-0.31,-0.05,0.03,0.94,
1.711,0.07,-0.86,-0.28,-0.05,0.03,0.94,
1.711,0.07,-0.86,-0.28,-0.05,0.03,0.95,
1.714,0.07,-0.86,-0.28,-0.05,0.04,0.95,
1.714,0.03,-0.84,-0.26,-0.05,0.04,0.95,
1.716,0.03,-0.84,-0.26,-0.05,0.04,0.95,
1.719,0.03,-0.84,-0.26,-0.05,0.04,0.96,
1.719,0.03,-0.77,-0.21,-0.05,0.04,0.96,
1.722,0.03,-0.77,-0.21,-0.05,0.04,0.96,
1.723,0.03,-0.77,-0.21,-0.05,0.04,0.96,
1.724,0.05,-0.72,-0.15,-0.05,0.04,0.96,
1.726,0.05,-0.72,-0.15,-0.05,0.04,0.97,
1.728,0.05,-0.72,-0.15,-0.05,0.04,0.97,
1.728,0.04,-0.69,-0.07,-0.05,0.04,0.97,
1.731,0.04,-0.69,-0.07,-0.05,0.04,0.98,
1.733,0.04,-0.69,-0.07,-0.05,0.04,0.98,
1.733,0.05,-0.70,0.01,-0.05,0.04,0.98,
1.736,0.05,-0.70,0.01,-0.05,0.03,0.99,
1.739,0.05,-0.70,0.01,-0.05,0.03,0.99,
1.74,0.06,-0.71,0.09,-0.05,0.03,0.99,
1.742,0.06,-0.71,0.09,-0.05,0.03,0.99,
1.743,0.06,-0.71,0.09,-0.05,0.03,1.00,
1.743,0.08,-0.76,0.16,-0.05,0.03,1.00,
1.746,0.08,-0.76,0.16,-0.05,0.03,1.00,
1.748,0.08,-0.76,0.16,-0.05,0.02,1.00,
1.748,0.09,-0.80,0.23,-0.05,0.02,1.00,
1.75,0.09,-0.80,0.23,-0.05,0.02,1.01,
1.753,0.09,-0.80,0.23,-0.05,0.02,1.02,
1.753,0.10,-0.83,0.32,-0.05,0.02,1.02,
1.755,0.10,-0.83,0.32,-0.05,0.02,1.02,
1.758,0.10,-0.83,0.32,-0.05,0.01,1.03,
1.758,0.09,-0.88,0.40,-0.05,0.01,1.03,
1.762,0.09,-0.88,0.40,-0.05,0.01,1.03,
1.763,0.09,-0.88,0.40,-0.05,0.01,1.03,
1.763,0.09,-0.89,0.50,-0.05,0.01,1.03,
1.765,0.09,-0.89,0.50,-0.05,0.01,1.03,
1.768,0.09,-0.89,0.50,-0.05,0.01,1.03,
1.768,0.09,-0.92,0.56,-0.05,0.01,1.03,
1.77,0.09,-0.92,0.56,-0.05,0.01,1.03,
1.773,0.09,-0.92,0.56,-0.06,0.01,1.04,
1.774,0.06,-0.92,0.58,-0.06,0.01,1.04,
1.775,0.06,-0.92,0.58,-0.06,0.01,1.04,
1.777,0.06,-0.92,0.58,-0.07,0.01,1.04,
1.778,-0.00,-0.91,0.60,-0.07,0.01,1.04,
1.781,-0.00,-0.91,0.60,-0.07,0.01,1.04,
1.782,-0.00,-0.91,0.60,-0.08,0.01,1.04,
1.783,-0.09,-0.90,0.62,-0.08,0.01,1.04,
1.785,-0.09,-0.90,0.62,-0.09,0.01,1.03,
1.788,-0.09,-0.90,0.62,-0.09,0.01,1.03,
1.789,-0.18,-0.89,0.60,-0.09,0.01,1.03,
1.792,-0.18,-0.89,0.60,-0.10,0.01,1.03,
1.792,-0.18,-0.89,0.60,-0.10,0.01,1.03,
1.793,-0.29,-0.88,0.56,-0.10,0.01,1.03,
1.795,-0.29,-0.88,0.56,-0.11,0.01,1.02,
1.797,-0.29,-0.88,0.56,-0.11,0.02,1.02,
1.797,-0.40,-0.86,0.51,-0.11,0.02,1.02,
1.799,-0.40,-0.86,0.51,-0.11,0.02,1.01,
1.802,-0.40,-0.86,0.51,-0.11,0.02,1.00,
1.802,-0.49,-0.82,0.42,-0.11,0.02,1.00,
1.805,-0.49,-0.82,0.42,-0.11,0.03,1.00,
1.807,-0.49,-0.82,0.42,-0.11,0.03,0.99,
1.807,-0.51,-0.76,0.30,-0.11,0.03,0.99,
1.809,-0.51,-0.76,0.30,-0.11,0.03,0.98,
1.812,-0.51,-0.76,0.30,-0.11,0.03,0.98,
1.812,-0.53,-0.69,0.16,-0.11,0.03,0.98,
1.814,-0.53,-0.69,0.16,-0.11,0.04,0.97,
1.817,-0.53,-0.69,0.16,-0.10,0.04,0.96,
1.817,-0.51,-0.62,0.03,-0.10,0.04,0.96,
1.819,-0.51,-0.62,0.03,-0.10,0.04,0.95,
1.826,-0.51,-0.62,0.03,-0.09,0.04,0.95,
1.827,-0.47,-0.57,-0.11,-0.09,0.04,0.95,
1.827,-0.47,-0.57,-0.11,-0.09,0.04,0.94,
1.827,-0.47,-0.57,-0.11,-0.08,0.04,0.93,
1.827,-0.39,-0.52,-0.26,-0.08,0.04,0.93,
1.829,-0.39,-0.52,-0.26,-0.08,0.04,0.93,
1.831,-0.39,-0.52,-0.26,-0.07,0.04,0.93,
1.832,-0.32,-0.49,-0.40,-0.07,0.04,0.93,
1.834,-0.32,-0.49,-0.40,-0.07,0.04,0.92,
1.836,-0.32,-0.49,-0.40,-0.07,0.04,0.93,
1.837,-0.23,-0.47,-0.47,-0.07,0.04,0.93,
1.844,-0.23,-0.47,-0.47,-0.07,0.04,0.93,
1.844,-0.23,-0.47,-0.47,-0.07,0.04,0.93,
1.844,-0.17,-0.47,-0.51,-0.07,0.04,0.93,
1.844,-0.17,-0.47,-0.51,-0.08,0.04,0.93,
1.846,-0.17,-0.47,-0.51,-0.08,0.04,0.93,
1.846,-0.19,-0.47,-0.47,-0.08,0.04,0.93,
1.848,-0.19,-0.47,-0.47,-0.09,0.04,0.94,
1.851,-0.19,-0.47,-0.47,-0.09,0.04,0.94,
1.851,-0.27,-0.48,-0.43,-0.09,0.04,0.94,
1.853,-0.27,-0.48,-0.43,-0.10,0.04,0.94,
1.855,-0.27,-0.48,-0.43,-0.11,0.04,0.95,
1.856,-0.39,-0.48,-0.37,-0.11,0.04,0.95,
1.858,-0.39,-0.48,-0.37,-0.12,0.04,0.95,
1.861,-0.39,-0.48,-0.37,-0.13,0.05,0.95,
1.862,-0.55,-0.44,-0.30,-0.13,0.05,0.95,
1.863,-0.55,-0.44,-0.30,-0.15,0.05,0.96,
1.865,-0.55,-0.44,-0.30,-0.16,0.05,0.96,
1.865,-0.76,-0.39,-0.21,-0.16,0.05,0.96,
1.868,-0.76,-0.39,-0.21,-0.17,0.06,0.97,
1.87,-0.76,-0.39,-0.21,-0.18,0.06,0.97,
1.871,-1.00,-0.32,-0.13,-0.18,0.06,0.97,
1.873,-1.00,-0.32,-0.13,-0.20,0.07,0.97,
1.876,-1.00,-0.32,-0.13,-0.21,0.07,0.97,
1.876,-1.23,-0.23,-0.07,-0.21,0.07,0.97,
1.878,-1.23,-0.23,-0.07,-0.22,0.07,0.96,
1.882,-1.23,-0.23,-0.07,-0.23,0.08,0.96,
1.882,-1.46,-0.14,-0.07,-0.23,0.08,0.96,
1.883,-1.46,-0.14,-0.07,-0.23,0.09,0.96,
1.885,-1.46,-0.14,-0.07,-0.24,0.09,0.96,
1.885,-1.65,-0.05,-0.11,-0.24,0.09,0.96,
1.888,-1.65,-0.05,-0.11,-0.24,0.10,0.96,
1.89,-1.65,-0.05,-0.11,-0.24,0.10,0.96,
1.89,-1.77,0.06,-0.16,-0.24,0.10,0.96,
1.893,-1.77,0.06,-0.16,-0.24,0.11,0.95,
1.895,-1.77,0.06,-0.16,-0.24,0.12,0.96,
1.895,-1.81,0.18,-0.16,-0.24,0.12,0.96,
1.897,-1.81,0.18,-0.16,-0.24,0.12,0.96,
1.901,-1.81,0.18,-0.16,-0.24,0.12,0.96,
1.901,-1.82,0.30,-0.19,-0.24,0.12,0.96,
1.902,-1.82,0.30,-0.19,-0.24,0.12,0.96,
1.905,-1.82,0.30,-0.19,-0.24,0.13,0.96,
1.905,-1.80,0.40,-0.16,-0.24,0.13,0.96,
1.907,-1.80,0.40,-0.16,-0.23,0.12,0.96,
1.91,-1.80,0.40,-0.16,-0.23,0.12,0.97,
1.91,-1.76,0.43,-0.12,-0.23,0.12,0.97,
1.912,-1.76,0.43,-0.12,-0.22,0.12,0.97,
1.914,-1.76,0.43,-0.12,-0.21,0.11,0.97,
1.915,-1.69,0.42,-0.08,-0.21,0.11,0.97,
1.917,-1.69,0.42,-0.08,-0.21,0.11,0.98,
1.92,-1.69,0.42,-0.08,-0.19,0.10,0.98,
1.92,-1.57,0.35,-0.03,-0.19,0.10,0.98,
1.926,-1.57,0.35,-0.03,-0.19,0.10,0.98,
1.927,-1.57,0.35,-0.03,-0.18,0.09,0.99,
1.927,-1.40,0.27,0.02,-0.18,0.09,0.99,
1.927,-1.40,0.27,0.02,-0.17,0.09,0.99,
1.929,-1.40,0.27,0.02,-0.16,0.08,1.00,
1.929,-1.25,0.16,0.11,-0.16,0.08,1.00,
1.932,-1.25,0.16,0.11,-0.15,0.07,1.00,
1.934,-1.25,0.16,0.11,-0.15,0.07,1.01,
1.934,-1.10,0.06,0.18,-0.15,0.07,1.01,
1.936,-1.10,0.06,0.18,-0.14,0.07,1.01,
1.939,-1.10,0.06,0.18,-0.14,0.06,1.01,
1.939,-0.96,-0.04,0.29,-0.14,0.06,1.01,
1.942,-0.96,-0.04,0.29,-0.13,0.06,1.02,
1.944,-0.96,-0.04,0.29,-0.13,0.05,1.02,
1.944,-0.86,-0.11,0.36,-0.13,0.05,1.02,
1.946,-0.86,-0.11,0.36,-0.12,0.05,1.03,
1.948,-0.86,-0.11,0.36,-0.12,0.05,1.03,
1.949,-0.79,-0.19,0.45,-0.12,0.05,1.03,
1.951,-0.79,-0.19,0.45,-0.11,0.04,1.03,
1.954,-0.79,-0.19,0.45,-0.11,0.05,1.04,
1.954,-0.71,-0.24,0.52,-0.11,0.05,1.04,
1.956,-0.71,-0.24,0.52,-0.10,0.05,1.04,
1.958,-0.71,-0.24,0.52,-0.11,0.05,1.04,
1.959,-0.63,-0.24,0.57,-0.11,0.05,1.04,
1.962,-0.63,-0.24,0.57,-0.10,0.05,1.04,
1.963,-0.63,-0.24,0.57,-0.10,0.05,1.04,
1.964,-0.61,-0.19,0.58,-0.10,0.05,1.04,
1.966,-0.61,-0.19,0.58,-0.11,0.06,1.03,
1.968,-0.61,-0.19,0.58,-0.11,0.06,1.03,
1.969,-0.62,-0.14,0.59,-0.11,0.06,1.03,
1.971,-0.62,-0.14,0.59,-0.11,0.06,1.03,
1.973,-0.62,-0.14,0.59,-0.11,0.06,1.03,
1.974,-0.67,-0.08,0.56,-0.11,0.06,1.03,
1.976,-0.67,-0.08,0.56,-0.11,0.07,1.03,
1.978,-0.67,-0.08,0.56,-0.12,0.07,1.03,
1.979,-0.70,-0.03,0.54,-0.12,0.07,1.03,
1.981,-0.70,-0.03,0.54,-0.12,0.07,1.02,
1.983,-0.70,-0.03,0.54,-0.12,0.08,1.02,
1.983,-0.77,0.04,0.49,-0.12,0.08,1.02,
1.986,-0.77,0.04,0.49,-0.12,0.08,1.01,
1.988,-0.83,0.13,0.42,-0.12,0.08,1.01,
1.989,-0.83,0.13,0.42,-0.13,0.09,1.01,
1.99,-0.83,0.13,0.42,-0.13,0.10,1.01,
1.993,-0.83,0.13,0.42,-0.12,0.10,1.00,
1.993,-0.89,0.24,0.34,-0.12,0.10,1.00,
1.995,-0.89,0.24,0.34,-0.12,0.11,1.00,
1.998,-0.89,0.24,0.34,-0.12,0.11,1.00,
1.998,-0.90,0.35,0.27,-0.12,0.11,1.00,
2.001,-0.90,0.35,0.27,-0.12,0.11,0.99,
2.003,-0.90,0.35,0.27,-0.11,0.11,1.00,
2.003,-0.86,0.44,0.20,-0.11,0.11,1.00,
2.009,-0.86,0.44,0.20,-0.11,0.12,1.00,
2.01,-0.86,0.44,0.20,-0.11,0.12,1.00,
2.01,-0.82,0.50,0.16,-0.11,0.12,1.00,
2.011,-0.82,0.50,0.16,-0.11,0.12,1.00,
2.013,-0.82,0.50,0.16,-0.10,0.12,1.00,
2.013,-0.75,0.55,0.18,-0.10,0.12,1.00,
2.015,-0.75,0.55,0.18,-0.09,0.13,1.01,
2.017,-0.75,0.55,0.18,-0.09,0.13,1.01,
2.018,-0.68,0.59,0.24,-0.09,0.13,1.01,
2.024,-0.68,0.59,0.24,-0.09,0.13,1.01,
2.024,-0.68,0.59,0.24,-0.08,0.13,1.02,
2.024,-0.58,0.64,0.30,-0.08,0.13,1.02,
2.025,-0.58,0.64,0.30,-0.08,0.13,1.02,
2.027,-0.58,0.64,0.30,-0.07,0.13,1.02,
2.028,-0.48,0.65,0.35,-0.07,0.13,1.02,
2.03,-0.48,0.65,0.35,-0.07,0.12,1.02,
2.032,-0.48,0.65,0.35,-0.07,0.12,1.02,
2.032,-0.39,0.62,0.39,-0.07,0.12,1.02,
2.034,-0.39,0.62,0.39,-0.07,0.12,1.02,
2.038,-0.39,0.62,0.39,-0.07,0.12,1.02,
2.038,-0.34,0.57,0.43,-0.07,0.12,1.02,
2.039,-0.34,0.57,0.43,-0.07,0.11,1.02,
2.042,-0.34,0.57,0.43,-0.07,0.11,1.01,
2.042,-0.30,0.52,0.41,-0.07,0.11,1.01,
2.044,-0.30,0.52,0.41,-0.07,0.11,1.01,
2.047,-0.30,0.52,0.41,-0.08,0.11,1.01,
2.047,-0.31,0.47,0.36,-0.08,0.11,1.01,
2.049,-0.31,0.47,0.36,-0.08,0.11,1.00,
2.051,-0.31,0.47,0.36,-0.08,0.11,1.00,
2.052,-0.37,0.44,0.29,-0.08,0.11,1.00,
2.054,-0.37,0.44,0.29,-0.09,0.11,0.99,
2.056,-0.37,0.44,0.29,-0.09,0.11,0.99,
2.057,-0.44,0.42,0.22,-0.09,0.11,0.99,
2.059,-0.44,0.42,0.22,-0.09,0.11,0.98,
2.062,-0.44,0.42,0.22,-0.10,0.11,0.98,
2.062,-0.50,0.40,0.12,-0.10,0.11,0.98,
2.064,-0.50,0.40,0.12,-0.10,0.12,0.98,
2.066,-0.50,0.40,0.12,-0.10,0.12,0.98,
2.066,-0.55,0.42,0.04,-0.10,0.12,0.98,
2.069,-0.55,0.42,0.04,-0.10,0.12,0.97,
2.071,-0.55,0.42,0.04,-0.10,0.13,0.97,
2.073,-0.59,0.49,-0.00,-0.10,0.13,0.97,
2.074,-0.59,0.49,-0.00,-0.10,0.13,0.97,
2.076,-0.59,0.49,-0.00,-0.10,0.14,0.97,
2.077,-0.63,0.56,-0.05,-0.10,0.14,0.97,
2.079,-0.63,0.56,-0.05,-0.11,0.14,0.97,
2.082,-0.63,0.66,-0.09,-0.11,0.14,0.97,
2.082,-0.63,0.66,-0.09,-0.11,0.14,0.97,
2.083,-0.63,0.66,-0.09,-0.11,0.15,0.97,
2.086,-0.63,0.66,-0.09,-0.11,0.15,0.97,
2.086,-0.70,0.73,-0.10,-0.11,0.15,0.97,
2.088,-0.70,0.73,-0.10,-0.11,0.15,0.98,
2.091,-0.70,0.73,-0.10,-0.11,0.15,0.98,
2.091,-0.75,0.80,-0.06,-0.11,0.15,0.98,
2.093,-0.75,0.80,-0.06,-0.11,0.15,0.98,
2.096,-0.75,0.80,-0.06,-0.11,0.15,0.99,
2.096,-0.75,0.81,-0.02,-0.11,0.15,0.99,
2.098,-0.75,0.81,-0.02,-0.11,0.15,0.99,
2.102,-0.75,0.81,-0.02,-0.11,0.15,1.00,
2.102,-0.76,0.79,0.07,-0.11,0.15,1.00,
2.11,-0.76,0.79,0.07,-0.10,0.15,1.00,
2.11,-0.76,0.79,0.07,-0.10,0.14,1.00,
2.111,-0.72,0.78,0.16,-0.10,0.14,1.00,
2.111,-0.72,0.78,0.16,-0.09,0.14,1.01,
2.111,-0.72,0.78,0.16,-0.09,0.14,1.01,
2.112,-0.66,0.76,0.23,-0.09,0.14,1.01,
2.113,-0.66,0.76,0.23,-0.08,0.14,1.01,
2.115,-0.66,0.76,0.23,-0.08,0.13,1.01,
2.118,-0.53,0.72,0.28,-0.08,0.13,1.01,
2.118,-0.53,0.72,0.28,-0.07,0.13,1.01,
2.125,-0.53,0.72,0.28,-0.07,0.13,1.00,
2.126,-0.43,0.65,0.28,-0.07,0.13,1.00,
2.126,-0.43,0.65,0.28,-0.06,0.13,1.00,
2.126,-0.43,0.65,0.28,-0.06,0.12,1.00,
2.126,-0.35,0.59,0.25,-0.06,0.12,1.00,
2.127,-0.35,0.59,0.25,-0.06,0.12,1.00,
2.13,-0.28,0.54,0.21,-0.06,0.12,1.00,
2.13,-0.28,0.54,0.21,-0.06,0.12,0.99,
2.132,-0.28,0.54,0.21,-0.05,0.12,0.99,
2.135,-0.28,0.54,0.21,-0.05,0.12,0.98,
2.135,-0.21,0.51,0.16,-0.05,0.12,0.98,
2.137,-0.21,0.51,0.16,-0.05,0.12,0.98,
2.141,-0.21,0.51,0.16,-0.05,0.12,0.97,
2.141,-0.17,0.48,0.09,-0.05,0.12,0.97,
2.142,-0.17,0.48,0.09,-0.05,0.12,0.96,
2.144,-0.17,0.48,0.09,-0.05,0.11,0.96,
2.145,-0.17,0.43,-0.04,-0.05,0.11,0.96,
2.147,-0.17,0.43,-0.04,-0.05,0.11,0.96,
2.149,-0.17,0.43,-0.04,-0.05,0.11,0.95,
2.149,-0.17,0.41,-0.17,-0.05,0.11,0.95,
2.152,-0.17,0.41,-0.17,-0.04,0.11,0.95,
2.154,-0.17,0.41,-0.17,-0.04,0.10,0.94,
2.155,-0.14,0.36,-0.25,-0.04,0.10,0.94,
2.158,-0.14,0.36,-0.25,-0.04,0.10,0.94,
2.159,-0.14,0.36,-0.25,-0.04,0.10,0.95,
2.16,-0.10,0.31,-0.32,-0.04,0.10,0.95,
2.162,-0.10,0.31,-0.32,-0.04,0.10,0.95,
2.164,-0.10,0.31,-0.32,-0.04,0.09,0.95,
2.164,-0.08,0.26,-0.33,-0.04,0.09,0.95,
2.167,-0.08,0.26,-0.33,-0.03,0.09,0.96,
2.169,-0.08,0.26,-0.33,-0.04,0.09,0.96,
2.17,-0.03,0.21,-0.28,-0.04,0.09,0.96,
2.172,-0.03,0.21,-0.28,-0.03,0.09,0.97,
2.174,-0.03,0.21,-0.28,-0.03,0.09,0.97,
2.175,-0.01,0.17,-0.19,-0.03,0.09,0.97,
2.176,-0.01,0.17,-0.19,-0.03,0.08,0.98,
2.179,-0.01,0.17,-0.19,-0.03,0.08,0.99,
2.179,0.02,0.13,-0.09,-0.03,0.08,0.99,
2.182,0.02,0.13,-0.09,-0.03,0.08,0.99,
2.184,0.02,0.13,-0.09,-0.03,0.08,1.00,
2.184,0.05,0.08,0.06,-0.03,0.08,1.00,
2.188,0.05,0.08,0.06,-0.02,0.08,1.01,
2.189,0.05,0.08,0.06,-0.02,0.08,1.01,
2.189,0.08,0.08,0.18,-0.02,0.08,1.01,
2.191,0.08,0.08,0.18,-0.02,0.08,1.02,
2.194,0.08,0.08,0.18,-0.01,0.08,1.02,
2.194,0.13,0.08,0.29,-0.01,0.08,1.02,
2.196,0.13,0.08,0.29,-0.01,0.08,1.02,
2.199,0.13,0.08,0.29,-0.01,0.08,1.03,
2.199,0.17,0.09,0.39,-0.01,0.08,1.03,
2.202,0.17,0.09,0.39,-0.01,0.08,1.03,
2.204,0.17,0.09,0.39,-0.01,0.08,1.03,
2.205,0.20,0.10,0.44,-0.01,0.08,1.03,
2.206,0.20,0.10,0.44,-0.01,0.08,1.03,
2.208,0.20,0.10,0.44,-0.00,0.08,1.03,
2.209,0.24,0.07,0.47,-0.00,0.08,1.03,
2.211,0.24,0.07,0.47,-0.00,0.07,1.03,
2.213,0.24,0.07,0.47,0.00,0.07,1.02,
2.213,0.26,0.03,0.45,0.00,0.07,1.02,
2.216,0.26,0.03,0.45,0.01,0.07,1.02,
2.218,0.26,0.03,0.45,0.01,0.07,1.02,
2.219,0.31,-0.01,0.42,0.01,0.07,1.02,
2.226,0.31,-0.01,0.42,0.01,0.07,1.01,
2.227,0.31,-0.01,0.42,0.01,0.07,1.01,
2.227,0.36,-0.03,0.38,0.01,0.07,1.01,
2.227,0.36,-0.03,0.38,0.01,0.07,1.01,
2.228,0.36,-0.03,0.38,0.01,0.07,1.00,
2.228,0.41,-0.04,0.31,0.01,0.07,1.00,
2.23,0.41,-0.04,0.31,0.02,0.07,1.00,
2.233,0.41,-0.04,0.31,0.02,0.07,1.00,
2.233,0.42,-0.05,0.24,0.02,0.07,1.00,
2.235,0.42,-0.05,0.24,0.02,0.07,0.99,
2.243,0.42,-0.05,0.24,0.01,0.07,0.99,
2.243,0.44,-0.02,0.18,0.01,0.07,0.99,
2.243,0.44,-0.02,0.18,0.01,0.07,0.99,
2.243,0.44,-0.02,0.18,0.01,0.07,0.98,
2.243,0.42,-0.02,0.10,0.01,0.07,0.98,
2.245,0.42,-0.02,0.10,0.01,0.07,0.98,
2.247,0.42,-0.02,0.10,0.00,0.08,0.98,
2.247,0.36,-0.02,0.04,0.00,0.08,0.98,
2.25,0.36,-0.02,0.04,0.00,0.08,0.97,
2.252,0.36,-0.02,0.04,-0.00,0.08,0.97,
2.252,0.30,0.00,-0.01,-0.00,0.08,0.97,
2.255,0.30,0.00,-0.01,-0.01,0.08,0.97,
2.257,0.30,0.00,-0.01,-0.01,0.09,0.97,
2.258,0.23,0.06,-0.08,-0.01,0.09,0.97,
2.261,0.23,0.06,-0.08,-0.02,0.09,0.97,
2.262,0.23,0.06,-0.08,-0.02,0.09,0.97,
2.263,0.15,0.10,-0.10,-0.02,0.09,0.97,
2.264,0.15,0.10,-0.10,-0.03,0.10,0.97,
2.267,0.15,0.10,-0.10,-0.03,0.10,0.97,
2.267,0.07,0.15,-0.12,-0.03,0.10,0.97,
2.27,0.07,0.15,-0.12,-0.04,0.10,0.97,
2.272,0.07,0.15,-0.12,-0.04,0.10,0.97,
2.272,-0.03,0.19,-0.13,-0.04,0.10,0.97,
2.274,-0.03,0.19,-0.13,-0.05,0.11,0.97,
2.277,-0.03,0.19,-0.13,-0.05,0.11,0.97,
2.277,-0.14,0.23,-0.13,-0.05,0.11,0.97,
2.279,-0.14,0.23,-0.13,-0.05,0.11,0.97,
2.282,-0.22,0.28,-0.15,-0.05,0.11,0.97,
2.282,-0.22,0.28,-0.15,-0.06,0.11,0.96,
2.284,-0.22,0.28,-0.15,-0.06,0.12,0.96,
2.287,-0.22,0.28,-0.15,-0.06,0.12,0.96,
2.288,-0.27,0.33,-0.15,-0.06,0.12,0.96,
2.289,-0.27,0.33,-0.15,-0.06,0.12,0.97,
2.291,-0.27,0.33,-0.15,-0.05,0.12,0.97,
2.292,-0.29,0.36,-0.16,-0.05,0.12,0.97,
2.294,-0.29,0.36,-0.16,-0.05,0.13,0.97,
2.296,-0.29,0.36,-0.16,-0.05,0.13,0.97,
2.296,-0.26,0.40,-0.14,-0.05,0.13,0.97,
2.299,-0.26,0.40,-0.14,-0.05,0.13,0.97,
2.302,-0.26,0.40,-0.14,-0.04,0.13,0.97,
2.302,-0.20,0.44,-0.12,-0.04,0.13,0.97,
2.304,-0.20,0.44,-0.12,-0.04,0.13,0.96,
2.306,-0.20,0.44,-0.12,-0.03,0.12,0.91,
2.307,-0.14,0.44,-0.11,-0.03,0.12,0.91,
2.309,-0.14,0.44,-0.11,-0.04,0.13,0.83,
2.311,-0.14,0.44,-0.11,-0.02,0.13,0.86,
2.311,-0.06,0.40,-0.45,-0.02,0.13,0.86,
2.314,-0.06,0.40,-0.45,-0.01,0.13,0.92,
2.316,-0.06,0.40,-0.45,-0.01,0.12,0.96,
2.316,0.00,0.47,-1.30,-0.01,0.12,0.96,
2.319,0.00,0.47,-1.30,-0.01,0.11,0.96,
2.323,0.00,0.47,-1.30,-0.01,0.11,0.96,
2.323,0.23,0.42,-0.40,-0.01,0.11,0.96,
2.323,0.23,0.42,-0.40,-0.00,0.10,0.96,
2.326,0.23,0.42,-0.40,-0.00,0.09,0.96,
2.326,0.24,0.26,-0.16,-0.00,0.09,0.96,
2.328,0.24,0.26,-0.16,-0.00,0.09,0.97,
2.331,0.24,0.26,-0.16,0.00,0.09,0.98,
2.331,0.25,0.12,-0.20,0.00,0.09,0.98,
2.333,0.25,0.12,-0.20,0.00,0.09,1.00,
2.336,0.25,0.12,-0.20,0.00,0.08,1.01,
2.336,0.29,0.05,-0.00,0.00,0.08,1.01,
2.338,0.29,0.05,-0.00,0.00,0.08,1.01,
2.342,0.29,0.05,-0.00,0.01,0.08,1.01,
2.342,0.30,0.02,0.24,0.01,0.08,1.01,
2.343,0.30,0.02,0.24,0.01,0.08,1.01,
2.345,0.30,0.02,0.24,0.01,0.08,1.00,
2.345,0.31,-0.00,0.32,0.01,0.08,1.00,
2.348,0.31,-0.00,0.32,0.01,0.08,1.00,
2.35,0.31,-0.00,0.32,0.02,0.09,1.00,
2.35,0.34,-0.02,0.28,0.02,0.09,1.00,
2.353,0.34,-0.02,0.28,0.02,0.09,0.99,
2.355,0.34,-0.02,0.28,0.02,0.09,0.99,
2.355,0.38,0.01,0.19,0.02,0.09,0.99,
2.358,0.38,0.01,0.19,0.01,0.09,0.98,
2.361,0.38,0.01,0.19,0.01,0.09,0.98,
2.362,0.40,0.05,0.11,0.01,0.09,0.98,
2.362,0.40,0.05,0.11,0.01,0.09,0.97,
2.365,0.40,0.05,0.11,0.01,0.09,0.97,
2.365,0.35,0.08,0.01,0.01,0.09,0.97,
2.367,0.35,0.08,0.01,0.00,0.09,0.96,
2.37,0.35,0.08,0.01,0.00,0.10,0.96,
2.371,0.29,0.10,-0.09,0.00,0.10,0.96,
