
time,ax,ay,az,gFx,gFy,gFz,
0.002,-0.12,0.06,0.72,-0.01,0.08,1.02,
0.002,-0.12,0.06,0.72,-0.00,0.08,1.01,
0.002,-0.06,0.10,0.51,-0.00,0.08,1.01,
0.003,-0.06,0.10,0.51,-0.01,0.08,1.00,
0.005,-0.06,0.10,0.51,-0.01,0.08,1.00,
0.005,-0.02,0.12,0.32,-0.01,0.08,1.00,
0.007,-0.02,0.12,0.32,-0.01,0.08,0.99,
0.01,-0.02,0.12,0.32,-0.01,0.08,0.99,
0.01,-0.02,0.12,0.17,-0.01,0.08,0.99,
0.014,-0.02,0.12,0.17,-0.01,0.08,0.98,
0.015,-0.02,0.12,0.17,-0.01,0.08,0.98,
0.015,-0.02,0.11,0.04,-0.01,0.08,0.98,
0.017,-0.02,0.11,0.04,-0.01,0.08,0.97,
0.019,-0.02,0.11,0.04,-0.01,0.08,0.97,
0.02,-0.01,0.09,-0.06,-0.01,0.08,0.97,
0.022,-0.01,0.09,-0.06,-0.01,0.08,0.97,
0.024,-0.01,0.09,-0.06,-0.01,0.08,0.96,
0.024,-0.01,0.09,-0.13,-0.01,0.08,0.96,
0.027,-0.01,0.09,-0.13,-0.01,0.08,0.96,
0.03,-0.01,0.09,-0.13,-0.01,0.08,0.96,
0.03,0.00,0.08,-0.18,-0.01,0.08,0.96,
0.033,0.00,0.08,-0.18,-0.01,0.08,0.95,
0.034,0.00,0.08,-0.18,-0.01,0.08,0.95,
0.034,-0.01,0.07,-0.23,-0.01,0.08,0.95,
0.036,-0.01,0.07,-0.23,-0.01,0.08,0.95,
0.039,-0.01,0.07,-0.23,-0.01,0.08,0.95,
0.039,-0.00,0.06,-0.28,-0.01,0.08,0.95,
0.041,-0.00,0.06,-0.28,-0.01,0.07,0.95,
0.044,-0.00,0.06,-0.28,-0.01,0.07,0.94,
0.044,-0.03,0.03,-0.31,-0.01,0.07,0.94,
0.046,-0.03,0.03,-0.31,-0.01,0.07,0.94,
0.049,-0.03,0.03,-0.31,-0.01,0.07,0.94,
0.049,-0.03,-0.01,-0.36,-0.01,0.07,0.94,
0.051,-0.03,-0.01,-0.36,-0.01,0.08,0.94,
0.054,-0.03,-0.01,-0.36,-0.01,0.07,0.94,
0.054,-0.02,-0.02,-0.39,-0.01,0.07,0.94,
0.056,-0.02,-0.02,-0.39,-0.00,0.07,0.94,
0.058,-0.02,-0.02,-0.39,-0.00,0.08,0.94,
0.059,0.00,0.00,-0.43,-0.00,0.08,0.94,
0.061,0.00,0.00,-0.43,0.00,0.08,0.94,
0.07,0.00,0.00,-0.43,0.00,0.08,0.94,
0.07,0.04,0.01,-0.43,0.00,0.08,0.94,
0.07,0.04,0.01,-0.43,0.00,0.08,0.94,
0.07,0.04,0.01,-0.43,0.00,0.08,0.94,
0.071,0.07,0.05,-0.43,0.00,0.08,0.94,
0.071,0.07,0.05,-0.43,-0.00,0.08,0.94,
0.074,0.07,0.05,-0.43,-0.00,0.08,0.95,
0.074,0.06,0.06,-0.41,-0.00,0.08,0.95,
0.076,0.06,0.06,-0.41,0.00,0.08,0.95,
0.078,0.06,0.06,-0.41,-0.00,0.08,0.95,
0.078,0.05,0.09,-0.35,-0.00,0.08,0.95,
0.08,0.05,0.09,-0.35,-0.00,0.08,0.95,
0.084,0.05,0.09,-0.35,-0.00,0.08,0.96,
0.085,0.06,0.11,-0.30,-0.00,0.08,0.96,
0.085,0.06,0.11,-0.30,-0.00,0.08,0.96,
0.088,0.06,0.11,-0.30,-0.00,0.08,0.96,
0.089,0.03,0.13,-0.24,-0.00,0.08,0.96,
0.091,0.03,0.13,-0.24,-0.00,0.09,0.97,
0.093,0.03,0.13,-0.24,-0.01,0.09,0.97,
0.094,0.02,0.13,-0.18,-0.01,0.09,0.97,
0.096,0.02,0.13,-0.18,-0.01,0.09,0.97,
0.097,0.02,0.13,-0.18,-0.01,0.09,0.98,
0.098,-0.01,0.16,-0.09,-0.01,0.09,0.98,
0.1,-0.01,0.16,-0.09,-0.01,0.09,0.98,
0.102,-0.01,0.16,-0.09,-0.01,0.09,0.99,
0.102,-0.03,0.17,-0.03,-0.01,0.09,0.99,
0.105,-0.03,0.17,-0.03,-0.01,0.09,0.99,
0.108,-0.03,0.17,-0.03,-0.01,0.08,1.00,
0.108,-0.05,0.17,0.04,-0.01,0.08,1.00,
0.11,-0.05,0.17,0.04,-0.02,0.08,1.00,
0.114,-0.05,0.17,0.04,-0.02,0.08,1.00,
0.114,-0.07,0.16,0.15,-0.02,0.08,1.00,
0.115,-0.07,0.16,0.15,-0.02,0.08,1.00,
0.117,-0.07,0.16,0.15,-0.02,0.07,1.01,
0.117,-0.10,0.11,0.19,-0.02,0.07,1.01,
0.119,-0.10,0.11,0.19,-0.02,0.07,1.01,
0.122,-0.10,0.11,0.19,-0.02,0.07,1.01,
0.122,-0.12,0.06,0.25,-0.02,0.07,1.01,
0.125,-0.12,0.06,0.25,-0.02,0.07,1.01,
0.127,-0.12,0.06,0.25,-0.02,0.07,1.01,
0.127,-0.13,0.04,0.29,-0.02,0.07,1.01,
0.129,-0.13,0.04,0.29,-0.02,0.07,1.01,
0.133,-0.13,0.04,0.29,-0.02,0.07,1.01,
0.133,-0.11,-0.01,0.29,-0.02,0.07,1.01,
0.134,-0.11,-0.01,0.29,-0.01,0.07,1.01,
0.137,-0.11,-0.01,0.29,-0.01,0.06,1.01,
0.137,-0.10,-0.02,0.29,-0.01,0.06,1.01,
0.139,-0.10,-0.02,0.29,-0.01,0.06,1.01,
0.142,-0.10,-0.02,0.29,-0.01,0.06,1.00,
0.142,-0.06,-0.04,0.27,-0.01,0.06,1.00,
0.144,-0.06,-0.04,0.27,-0.01,0.06,1.00,
0.147,-0.06,-0.04,0.27,-0.01,0.06,1.00,
0.147,-0.02,-0.06,0.23,-0.01,0.06,1.00,
0.149,-0.02,-0.06,0.23,-0.00,0.06,0.99,
0.153,-0.02,-0.06,0.23,-0.00,0.06,0.99,
0.153,0.02,-0.08,0.17,-0.00,0.06,0.99,
0.154,0.02,-0.08,0.17,0.00,0.06,0.99,
0.156,0.02,-0.08,0.17,0.00,0.06,0.98,
0.157,0.05,-0.08,0.10,0.00,0.06,0.98,
0.159,0.05,-0.08,0.10,0.00,0.06,0.98,
0.161,0.05,-0.08,0.10,0.00,0.06,0.97,
0.162,0.08,-0.08,0.05,0.00,0.06,0.97,
0.17,0.08,-0.08,0.05,0.01,0.07,0.97,
0.17,0.08,-0.08,0.05,0.01,0.06,0.97,
0.17,0.12,-0.07,-0.06,0.01,0.06,0.97,
0.171,0.12,-0.07,-0.06,0.01,0.06,0.96,
0.171,0.12,-0.07,-0.06,0.01,0.06,0.96,
0.171,0.15,-0.06,-0.14,0.01,0.06,0.96,
0.174,0.15,-0.06,-0.14,0.01,0.07,0.96,
0.176,0.15,-0.06,-0.14,0.02,0.07,0.96,
0.176,0.18,-0.07,-0.17,0.02,0.07,0.96,
0.179,0.18,-0.07,-0.17,0.02,0.07,0.96,
0.181,0.18,-0.07,-0.17,0.02,0.07,0.96,
0.181,0.21,-0.04,-0.21,0.02,0.07,0.96,
0.183,0.21,-0.04,-0.21,0.02,0.07,0.96,
0.186,0.21,-0.04,-0.21,0.02,0.07,0.96,
0.186,0.24,-0.05,-0.23,0.02,0.07,0.96,
0.188,0.24,-0.05,-0.23,0.02,0.07,0.96,
0.191,0.24,-0.05,-0.23,0.01,0.07,0.96,
0.191,0.24,-0.05,-0.24,0.01,0.07,0.96,
0.194,0.24,-0.05,-0.24,0.01,0.07,0.96,
0.196,0.24,-0.05,-0.24,0.01,0.07,0.96,
0.196,0.22,-0.05,-0.23,0.01,0.07,0.96,
0.198,0.22,-0.05,-0.23,0.01,0.07,0.97,
0.201,0.22,-0.05,-0.23,0.01,0.07,0.97,
0.202,0.21,-0.04,-0.19,0.01,0.07,0.97,
0.203,0.21,-0.04,-0.19,0.01,0.06,0.97,
0.205,0.21,-0.04,-0.19,0.01,0.06,0.97,
0.206,0.18,-0.04,-0.13,0.01,0.06,0.97,
0.208,0.18,-0.04,-0.13,0.00,0.06,0.98,
0.211,0.18,-0.04,-0.13,-0.00,0.06,0.98,
0.211,0.14,-0.07,-0.07,-0.00,0.06,0.98,
0.214,0.14,-0.07,-0.07,-0.00,0.06,0.98,
0.215,0.14,-0.07,-0.07,-0.00,0.06,0.99,
0.216,0.08,-0.09,-0.00,-0.00,0.06,0.99,
0.218,0.08,-0.09,-0.00,-0.00,0.06,0.99,
0.22,0.08,-0.09,-0.00,-0.00,0.06,0.99,
0.22,0.06,-0.10,0.07,-0.00,0.06,0.99,
0.223,0.06,-0.10,0.07,-0.01,0.06,1.00,
0.225,0.06,-0.10,0.07,-0.01,0.06,1.00,
0.225,0.03,-0.11,0.13,-0.01,0.06,1.00,
0.227,0.03,-0.11,0.13,-0.01,0.06,1.00,
0.23,0.03,-0.11,0.13,-0.01,0.06,1.00,
0.231,0.01,-0.11,0.19,-0.01,0.06,1.00,
0.234,0.01,-0.11,0.19,-0.01,0.06,1.00,
0.235,-0.00,-0.08,0.22,-0.01,0.06,1.00,
0.235,-0.00,-0.08,0.22,-0.01,0.06,1.01,
0.237,-0.00,-0.08,0.22,-0.01,0.06,1.01,
0.239,-0.00,-0.08,0.22,-0.01,0.06,1.01,
0.24,0.00,-0.08,0.24,-0.01,0.06,1.01,
0.242,0.00,-0.08,0.24,-0.01,0.06,1.01,
0.245,0.00,-0.08,0.24,-0.01,0.06,1.01,
0.246,0.00,-0.08,0.25,-0.01,0.06,1.01,
0.247,0.00,-0.08,0.25,-0.00,0.06,1.00,
0.249,0.00,-0.08,0.25,-0.00,0.06,1.00,
0.249,0.01,-0.08,0.25,-0.00,0.06,1.00,
0.253,0.01,-0.08,0.25,-0.00,0.06,1.00,
0.254,0.01,-0.08,0.25,0.00,0.06,1.00,
0.254,0.03,-0.08,0.22,0.00,0.06,1.00,
0.257,0.03,-0.08,0.22,0.01,0.06,1.00,
0.259,0.03,-0.08,0.22,0.01,0.06,0.99,
0.26,0.07,-0.06,0.17,0.01,0.06,0.99,
0.263,0.07,-0.06,0.17,0.01,0.06,0.99,
0.264,0.07,-0.06,0.17,0.01,0.06,0.99,
0.264,0.13,-0.06,0.14,0.01,0.06,0.99,
0.267,0.13,-0.06,0.14,0.01,0.06,0.99,
0.269,0.13,-0.06,0.14,0.01,0.06,0.98,
0.269,0.18,-0.07,0.08,0.01,0.06,0.98,
0.271,0.18,-0.07,0.08,0.01,0.06,0.98,
0.274,0.18,-0.07,0.08,0.02,0.06,0.98,
0.274,0.18,-0.06,0.03,0.02,0.06,0.98,
0.276,0.18,-0.06,0.03,0.02,0.06,0.98,
0.282,0.18,-0.06,0.03,0.02,0.06,0.97,
0.282,0.21,-0.09,-0.03,0.02,0.06,0.97,
0.283,0.21,-0.09,-0.03,0.02,0.06,0.97,
0.284,0.21,-0.09,-0.03,0.02,0.05,0.97,
0.285,0.23,-0.10,-0.07,0.02,0.05,0.97,
0.286,0.23,-0.10,-0.07,0.02,0.05,0.97,
0.289,0.23,-0.10,-0.07,0.02,0.05,0.97,
0.289,0.25,-0.12,-0.09,0.02,0.05,0.97,
0.291,0.25,-0.12,-0.09,0.02,0.05,0.97,
0.293,0.25,-0.12,-0.09,0.02,0.05,0.98,
0.294,0.25,-0.14,-0.09,0.02,0.05,0.98,
0.296,0.25,-0.14,-0.09,0.02,0.05,0.98,
0.299,0.25,-0.14,-0.09,0.02,0.05,0.98,
0.299,0.24,-0.13,-0.06,0.02,0.05,0.98,
0.301,0.24,-0.13,-0.06,0.02,0.05,0.98,
0.303,0.24,-0.13,-0.06,0.02,0.05,0.98,
0.303,0.23,-0.15,-0.04,0.02,0.05,0.98,
0.305,0.23,-0.15,-0.04,0.02,0.05,0.98,
0.308,0.23,-0.15,-0.04,0.01,0.05,0.98,
0.308,0.23,-0.15,-0.02,0.01,0.05,0.98,
0.311,0.23,-0.15,-0.02,0.01,0.05,0.99,
0.314,0.23,-0.15,-0.02,0.01,0.06,0.99,
0.314,0.21,-0.13,0.02,0.01,0.06,0.99,
0.315,0.21,-0.13,0.02,0.01,0.05,0.99,
0.318,0.21,-0.13,0.02,0.01,0.05,0.99,
0.318,0.19,-0.12,0.08,0.01,0.05,0.99,
0.32,0.19,-0.12,0.08,0.00,0.06,0.99,
0.323,0.19,-0.12,0.08,0.00,0.06,1.00,
0.323,0.15,-0.13,0.11,0.00,0.06,1.00,
0.325,0.15,-0.13,0.11,0.00,0.06,1.00,
0.328,0.15,-0.13,0.11,0.00,0.05,1.00,
0.328,0.11,-0.11,0.14,0.00,0.05,1.00,
0.33,0.11,-0.11,0.14,0.00,0.05,1.00,
0.333,0.11,-0.11,0.14,0.01,0.06,1.00,
0.334,0.09,-0.11,0.15,0.01,0.06,1.00,
0.335,0.09,-0.11,0.15,0.00,0.06,1.00,
0.337,0.09,-0.11,0.15,0.00,0.06,1.00,
0.338,0.12,-0.11,0.15,0.00,0.06,1.00,
0.34,0.12,-0.11,0.15,0.01,0.06,1.00,
0.342,0.12,-0.11,0.15,0.01,0.06,0.99,
0.342,0.10,-0.10,0.14,0.01,0.06,0.99,
0.345,0.10,-0.10,0.14,0.01,0.06,0.99,
0.348,0.10,-0.10,0.14,0.01,0.06,0.99,
0.348,0.13,-0.06,0.12,0.01,0.06,0.99,
0.35,0.13,-0.06,0.12,0.01,0.06,0.98,
0.353,0.13,-0.06,0.12,0.01,0.06,0.98,
0.354,0.16,-0.05,0.07,0.01,0.06,0.98,
0.354,0.16,-0.05,0.07,0.02,0.06,0.98,
0.357,0.16,-0.05,0.07,0.02,0.06,0.97,
0.357,0.18,-0.04,0.01,0.02,0.06,0.97,
0.359,0.18,-0.04,0.01,0.02,0.06,0.97,
0.362,0.18,-0.04,0.01,0.02,0.06,0.97,
0.362,0.23,-0.05,-0.06,0.02,0.06,0.97,
0.364,0.23,-0.05,-0.06,0.03,0.06,0.97,
0.367,0.23,-0.05,-0.06,0.03,0.06,0.96,
0.367,0.24,-0.04,-0.12,0.03,0.06,0.96,
0.369,0.24,-0.04,-0.12,0.03,0.06,0.96,
0.373,0.24,-0.04,-0.12,0.03,0.06,0.96,
0.373,0.30,-0.06,-0.16,0.03,0.06,0.96,
0.374,0.30,-0.06,-0.16,0.04,0.05,0.96,
0.377,0.30,-0.06,-0.16,0.04,0.05,0.96,
0.377,0.33,-0.08,-0.20,0.04,0.05,0.96,
0.381,0.33,-0.08,-0.20,0.04,0.05,0.96,
0.382,0.33,-0.08,-0.20,0.05,0.05,0.96,
0.382,0.38,-0.12,-0.21,0.05,0.05,0.96,
0.384,0.38,-0.12,-0.21,0.05,0.05,0.96,
0.386,0.38,-0.12,-0.21,0.05,0.04,0.96,
0.387,0.43,-0.15,-0.20,0.05,0.04,0.96,
0.389,0.43,-0.15,-0.20,0.05,0.04,0.97,
0.391,0.43,-0.15,-0.20,0.05,0.04,0.97,
0.391,0.49,-0.18,-0.16,0.05,0.04,0.97,
0.394,0.49,-0.18,-0.16,0.06,0.04,0.97,
0.396,0.49,-0.18,-0.16,0.06,0.04,0.98,
0.396,0.53,-0.24,-0.13,0.06,0.04,0.98,
0.399,0.53,-0.24,-0.13,0.06,0.03,0.98,
0.401,0.53,-0.24,-0.13,0.06,0.03,0.98,
0.402,0.56,-0.26,-0.06,0.06,0.03,0.98,
0.403,0.56,-0.26,-0.06,0.06,0.03,0.98,
0.406,0.56,-0.26,-0.06,0.06,0.03,0.98,
0.406,0.57,-0.29,-0.01,0.06,0.03,0.98,
0.408,0.57,-0.29,-0.01,0.06,0.03,0.99,
0.411,0.57,-0.29,-0.01,0.06,0.03,0.99,
0.412,0.57,-0.31,0.03,0.06,0.03,0.99,
0.413,0.57,-0.31,0.03,0.06,0.03,0.99,
0.416,0.57,-0.31,0.03,0.06,0.02,0.99,
0.416,0.59,-0.32,0.08,0.06,0.02,0.99,
0.418,0.59,-0.32,0.08,0.06,0.02,0.99,
0.421,0.59,-0.32,0.08,0.06,0.02,0.99,
0.421,0.61,-0.35,0.11,0.06,0.02,0.99,
0.423,0.61,-0.35,0.11,0.06,0.02,0.99,
0.426,0.61,-0.35,0.11,0.06,0.02,0.99,
0.426,0.61,-0.36,0.12,0.06,0.02,0.99,
0.428,0.61,-0.36,0.12,0.07,0.02,0.99,
0.431,0.61,-0.36,0.12,0.07,0.02,0.99,
0.431,0.59,-0.38,0.10,0.07,0.02,0.99,
0.434,0.59,-0.38,0.10,0.07,0.02,0.99,
0.435,0.59,-0.38,0.10,0.07,0.03,0.99,
0.435,0.61,-0.39,0.09,0.07,0.03,0.99,
0.438,0.61,-0.39,0.09,0.07,0.03,0.98,
0.44,0.61,-0.39,0.09,0.07,0.03,0.98,
0.44,0.63,-0.35,0.07,0.07,0.03,0.98,
0.443,0.63,-0.35,0.07,0.07,0.03,0.98,
0.445,0.63,-0.35,0.07,0.07,0.03,0.98,
0.445,0.60,-0.31,0.02,0.07,0.03,0.98,
0.448,0.60,-0.31,0.02,0.07,0.03,0.98,
0.45,0.60,-0.31,0.02,0.07,0.03,0.98,
0.451,0.61,-0.27,0.00,0.07,0.03,0.98,
0.453,0.61,-0.27,0.00,0.07,0.03,0.98,
0.455,0.61,-0.27,0.00,0.08,0.04,0.97,
0.455,0.62,-0.24,-0.03,0.08,0.04,0.97,
0.457,0.62,-0.24,-0.03,0.08,0.04,0.97,
0.46,0.62,-0.24,-0.03,0.08,0.04,0.97,
0.46,0.64,-0.21,-0.06,0.08,0.04,0.97,
0.464,0.64,-0.21,-0.06,0.08,0.03,0.97,
0.465,0.64,-0.21,-0.06,0.08,0.03,0.97,
0.465,0.65,-0.19,-0.10,0.08,0.03,0.97,
0.467,0.65,-0.19,-0.10,0.08,0.03,0.97,
0.47,0.65,-0.19,-0.10,0.08,0.03,0.97,
0.47,0.64,-0.22,-0.12,0.08,0.03,0.97,
0.473,0.64,-0.22,-0.12,0.08,0.03,0.97,
0.474,0.64,-0.22,-0.12,0.08,0.03,0.97,
0.475,0.66,-0.22,-0.11,0.08,0.03,0.97,
0.477,0.66,-0.22,-0.11,0.08,0.03,0.98,
0.479,0.66,-0.22,-0.11,0.08,0.03,0.98,
0.48,0.65,-0.21,-0.08,0.08,0.03,0.98,
0.482,0.65,-0.21,-0.08,0.08,0.03,0.98,
0.484,0.65,-0.21,-0.08,0.08,0.03,0.98,
0.485,0.65,-0.22,-0.04,0.08,0.03,0.98,
0.487,0.65,-0.22,-0.04,0.08,0.03,0.99,
0.489,0.65,-0.22,-0.04,0.08,0.03,0.99,
0.489,0.64,-0.23,-0.00,0.08,0.03,0.99,
0.493,0.64,-0.23,-0.00,0.07,0.03,0.99,
0.494,0.64,-0.23,-0.00,0.07,0.03,0.99,
0.495,0.61,-0.20,0.05,0.07,0.03,0.99,
0.496,0.61,-0.20,0.05,0.07,0.03,0.99,
0.499,0.61,-0.20,0.05,0.07,0.03,0.99,
0.499,0.57,-0.20,0.09,0.07,0.03,0.99,
0.501,0.57,-0.20,0.09,0.07,0.03,1.00,
0.504,0.57,-0.20,0.09,0.07,0.03,1.00,
0.504,0.55,-0.21,0.12,0.07,0.03,1.00,
0.506,0.55,-0.21,0.12,0.07,0.03,1.00,
0.509,0.55,-0.21,0.12,0.07,0.03,1.00,
0.509,0.52,-0.19,0.16,0.07,0.03,1.00,
0.511,0.52,-0.19,0.16,0.07,0.03,1.01,
0.514,0.52,-0.19,0.16,0.06,0.03,1.01,
0.514,0.51,-0.18,0.21,0.06,0.03,1.01,
0.516,0.51,-0.18,0.21,0.06,0.03,1.01,
0.519,0.51,-0.18,0.21,0.06,0.03,1.01,
0.519,0.47,-0.20,0.23,0.06,0.03,1.01,
0.521,0.47,-0.20,0.23,0.06,0.02,1.01,
0.523,0.47,-0.20,0.23,0.06,0.02,1.01,
0.524,0.42,-0.22,0.24,0.06,0.02,1.01,
0.526,0.42,-0.22,0.24,0.06,0.02,1.01,
0.528,0.42,-0.22,0.24,0.06,0.02,1.01,
0.529,0.39,-0.26,0.26,0.06,0.02,1.01,
0.531,0.39,-0.26,0.26,0.06,0.01,1.01,
0.533,0.39,-0.26,0.26,0.06,0.01,1.01,
0.534,0.37,-0.30,0.26,0.06,0.01,1.01,
0.536,0.37,-0.30,0.26,0.06,0.01,1.01,
0.538,0.37,-0.30,0.26,0.06,0.01,1.01,
0.538,0.37,-0.32,0.28,0.06,0.01,1.01,
0.541,0.37,-0.32,0.28,0.06,0.01,1.01,
0.543,0.37,-0.32,0.28,0.06,0.00,1.02,
0.543,0.37,-0.34,0.27,0.06,0.00,1.02,
0.545,0.37,-0.34,0.27,0.06,0.00,1.01,
0.548,0.37,-0.34,0.27,0.06,0.00,1.02,
0.548,0.39,-0.39,0.30,0.06,0.00,1.02,
0.55,0.39,-0.39,0.30,0.06,0.00,1.02,
0.554,0.39,-0.39,0.30,0.07,0.00,1.02,
0.554,0.40,-0.43,0.30,0.07,0.00,1.02,
0.555,0.40,-0.43,0.30,0.07,0.00,1.02,
0.558,0.40,-0.43,0.30,0.06,0.00,1.02,
0.558,0.42,-0.43,0.31,0.06,0.00,1.02,
0.56,0.42,-0.43,0.31,0.06,0.00,1.02,
0.568,0.42,-0.43,0.31,0.06,0.00,1.02,
0.568,0.42,-0.43,0.31,0.06,0.00,1.02,
0.568,0.42,-0.43,0.31,0.06,0.01,1.02,
0.569,0.42,-0.43,0.31,0.06,0.01,1.02,
0.569,0.39,-0.41,0.32,0.06,0.01,1.02,
0.57,0.39,-0.41,0.32,0.05,0.01,1.02,
0.574,0.39,-0.41,0.32,0.05,0.01,1.02,
0.574,0.33,-0.38,0.32,0.05,0.01,1.02,
0.575,0.33,-0.38,0.32,0.04,0.01,1.02,
0.586,0.33,-0.38,0.32,0.04,0.01,1.01,
0.586,0.25,-0.36,0.32,0.04,0.01,1.01,
0.586,0.25,-0.36,0.32,0.03,0.01,1.01,
0.587,0.25,-0.36,0.32,0.03,0.01,1.01,
0.587,0.12,-0.36,0.29,0.03,0.01,1.01,
0.587,0.12,-0.36,0.29,0.02,0.01,1.01,
0.587,0.12,-0.36,0.29,0.02,0.02,1.01,
0.588,0.03,-0.34,0.26,0.02,0.02,1.01,
0.59,0.03,-0.34,0.26,0.02,0.02,1.00,
0.594,0.03,-0.34,0.26,0.01,0.02,1.00,
0.594,-0.05,-0.29,0.21,0.01,0.02,1.00,
0.596,-0.05,-0.29,0.21,0.01,0.02,1.00,
0.597,-0.05,-0.29,0.21,0.01,0.03,1.00,
0.597,-0.14,-0.25,0.16,0.01,0.03,1.00,
0.599,-0.14,-0.25,0.16,0.00,0.03,1.00,
0.602,-0.14,-0.25,0.16,0.00,0.03,0.99,
0.602,-0.20,-0.18,0.12,0.00,0.03,0.99,
0.604,-0.20,-0.18,0.12,-0.00,0.03,0.99,
0.607,-0.20,-0.18,0.12,-0.01,0.03,0.99,
0.607,-0.27,-0.15,0.08,-0.01,0.03,0.99,
0.609,-0.27,-0.15,0.08,-0.01,0.03,0.99,
0.613,-0.27,-0.15,0.08,-0.01,0.03,0.98,
0.614,-0.35,-0.14,0.04,-0.01,0.03,0.98,
0.615,-0.35,-0.14,0.04,-0.01,0.03,0.99,
0.617,-0.35,-0.14,0.04,-0.01,0.03,0.99,
0.618,-0.41,-0.16,0.00,-0.01,0.03,0.99,
0.619,-0.41,-0.16,0.00,-0.01,0.02,0.99,
0.622,-0.41,-0.16,0.00,-0.02,0.02,0.98,
0.622,-0.44,-0.19,0.00,-0.02,0.02,0.98,
0.624,-0.44,-0.19,0.00,-0.01,0.02,0.98,
0.626,-0.44,-0.19,0.00,-0.01,0.02,0.99,
0.627,-0.47,-0.23,-0.00,-0.01,0.02,0.99,
0.629,-0.47,-0.23,-0.00,-0.01,0.01,0.99,
0.631,-0.47,-0.23,-0.00,-0.01,0.01,0.99,
0.632,-0.44,-0.28,-0.00,-0.01,0.01,0.99,
0.634,-0.44,-0.28,-0.00,-0.01,0.01,0.99,
0.636,-0.44,-0.28,-0.00,-0.01,0.01,0.99,
0.636,-0.42,-0.32,0.01,-0.01,0.01,0.99,
0.639,-0.42,-0.32,0.01,-0.00,0.01,0.99,
0.641,-0.42,-0.32,0.01,0.00,0.01,0.99,
0.641,-0.39,-0.35,0.03,0.00,0.01,0.99,
0.644,-0.39,-0.35,0.03,0.01,0.01,0.99,
0.646,-0.39,-0.35,0.03,0.01,0.01,0.99,
0.646,-0.32,-0.36,0.04,0.01,0.01,0.99,
0.648,-0.32,-0.36,0.04,0.02,0.01,0.99,
0.651,-0.32,-0.36,0.04,0.02,0.01,0.99,
0.651,-0.23,-0.36,0.03,0.02,0.01,0.99,
0.653,-0.23,-0.36,0.03,0.03,0.01,0.99,
0.656,-0.23,-0.36,0.03,0.03,0.01,0.99,
0.656,-0.17,-0.36,0.04,0.03,0.01,0.99,
0.658,-0.17,-0.36,0.04,0.04,0.01,0.99,
0.661,-0.17,-0.36,0.04,0.04,0.01,0.98,
0.661,-0.08,-0.34,0.02,0.04,0.01,0.98,
0.663,-0.08,-0.34,0.02,0.04,0.01,0.98,
0.666,-0.08,-0.34,0.02,0.05,0.02,0.98,
0.666,-0.01,-0.32,-0.00,0.05,0.02,0.98,
0.668,-0.01,-0.32,-0.00,0.05,0.02,0.98,
0.67,-0.01,-0.32,-0.00,0.05,0.02,0.98,
0.671,0.05,-0.29,-0.05,0.05,0.02,0.98,
0.674,0.05,-0.29,-0.05,0.05,0.02,0.98,
0.675,0.05,-0.29,-0.05,0.05,0.02,0.97,
0.676,0.05,-0.28,-0.08,0.05,0.02,0.97,
0.683,0.05,-0.28,-0.08,0.04,0.02,0.97,
0.683,0.05,-0.28,-0.08,0.04,0.02,0.97,
0.684,0.04,-0.27,-0.11,0.04,0.02,0.97,
0.684,0.04,-0.27,-0.11,0.03,0.02,0.97,
0.685,0.04,-0.27,-0.11,0.03,0.02,0.97,
0.685,-0.04,-0.26,-0.14,0.03,0.02,0.97,
0.687,-0.04,-0.26,-0.14,0.02,0.01,0.97,
0.69,-0.04,-0.26,-0.14,0.01,0.02,0.97,
0.69,-0.15,-0.27,-0.15,0.01,0.02,0.97,
0.694,-0.15,-0.27,-0.15,0.01,0.02,0.97,
0.695,-0.15,-0.27,-0.15,0.00,0.02,0.97,
0.695,-0.28,-0.27,-0.14,0.00,0.02,0.97,
0.697,-0.28,-0.27,-0.14,0.00,0.02,0.98,
0.7,-0.28,-0.27,-0.14,-0.01,0.02,0.98,
0.7,-0.39,-0.25,-0.14,-0.01,0.02,0.98,
0.702,-0.39,-0.25,-0.14,-0.01,0.02,0.98,
0.705,-0.39,-0.25,-0.14,-0.02,0.02,0.98,
0.705,-0.47,-0.23,-0.08,-0.02,0.02,0.98,
0.707,-0.47,-0.23,-0.08,-0.02,0.02,0.99,
0.709,-0.47,-0.23,-0.08,-0.02,0.02,0.99,
0.71,-0.59,-0.22,-0.03,-0.02,0.02,0.99,
0.713,-0.59,-0.22,-0.03,-0.03,0.01,0.99,
0.714,-0.59,-0.22,-0.03,-0.03,0.01,1.00,
0.715,-0.65,-0.24,0.05,-0.03,0.01,1.00,
0.717,-0.65,-0.24,0.05,-0.04,0.01,1.00,
0.719,-0.65,-0.24,0.05,-0.04,0.01,1.00,
0.72,-0.74,-0.26,0.10,-0.04,0.01,1.00,
0.722,-0.74,-0.26,0.10,-0.04,0.01,1.00,
0.724,-0.74,-0.26,0.10,-0.04,0.01,1.00,
0.725,-0.81,-0.26,0.14,-0.04,0.01,1.00,
0.727,-0.81,-0.26,0.14,-0.04,0.01,1.00,
0.729,-0.81,-0.26,0.14,-0.04,0.01,1.00,
0.729,-0.82,-0.30,0.17,-0.04,0.01,1.00,
0.733,-0.82,-0.30,0.17,-0.04,0.01,1.00,
0.734,-0.82,-0.30,0.17,-0.04,0.01,1.00,
0.734,-0.83,-0.31,0.17,-0.04,0.01,1.00,
0.736,-0.83,-0.31,0.17,-0.04,0.00,1.00,
0.739,-0.83,-0.31,0.17,-0.04,0.00,1.00,
0.739,-0.84,-0.33,0.16,-0.04,0.00,1.00,
0.742,-0.84,-0.33,0.16,-0.04,0.00,1.00,
0.744,-0.84,-0.33,0.16,-0.04,0.00,1.00,
0.745,-0.81,-0.35,0.14,-0.04,0.00,1.00,
0.746,-0.81,-0.35,0.14,-0.04,0.00,1.00,
0.749,-0.81,-0.35,0.14,-0.04,-0.00,1.00,
0.749,-0.79,-0.35,0.13,-0.04,-0.00,1.00,
0.751,-0.79,-0.35,0.13,-0.03,0.00,1.00,
0.754,-0.79,-0.35,0.13,-0.03,0.00,0.99,
0.754,-0.78,-0.38,0.11,-0.03,0.00,0.99,
0.756,-0.78,-0.38,0.11,-0.03,-0.00,0.99,
0.759,-0.78,-0.38,0.11,-0.03,-0.00,0.99,
0.76,-0.74,-0.36,0.09,-0.03,-0.00,0.99,
0.762,-0.74,-0.36,0.09,-0.03,-0.00,0.99,
0.764,-0.74,-0.36,0.09,-0.03,-0.01,0.99,
0.764,-0.73,-0.39,0.05,-0.03,-0.01,0.99,
0.766,-0.73,-0.39,0.05,-0.03,-0.00,0.99,
0.768,-0.73,-0.39,0.05,-0.03,-0.01,0.98,
0.769,-0.76,-0.40,0.03,-0.03,-0.01,0.98,
0.771,-0.76,-0.40,0.03,-0.03,-0.01,0.98,
0.774,-0.76,-0.40,0.03,-0.03,-0.01,0.98,
0.777,-0.77,-0.40,-0.00,-0.03,-0.01,0.98,
0.777,-0.77,-0.40,-0.00,-0.03,-0.01,0.98,
0.783,-0.77,-0.40,-0.00,-0.03,-0.01,0.98,
0.783,-0.76,-0.40,-0.04,-0.03,-0.01,0.98,
0.783,-0.76,-0.40,-0.04,-0.03,-0.01,0.98,
0.784,-0.76,-0.40,-0.04,-0.03,-0.00,0.98,
0.784,-0.76,-0.40,-0.05,-0.03,-0.00,0.98,
0.785,-0.76,-0.40,-0.05,-0.03,-0.00,0.98,
0.788,-0.76,-0.40,-0.05,-0.03,-0.00,0.98,
0.788,-0.77,-0.37,-0.06,-0.03,-0.00,0.98,
0.791,-0.77,-0.37,-0.06,-0.03,0.00,0.98,
0.794,-0.77,-0.37,-0.06,-0.03,0.00,0.98,
0.795,-0.78,-0.32,-0.06,-0.03,0.00,0.98,
0.795,-0.78,-0.32,-0.06,-0.03,0.01,0.98,
0.798,-0.78,-0.32,-0.06,-0.02,0.01,0.98,
0.798,-0.77,-0.26,-0.07,-0.02,0.01,0.98,
0.8,-0.77,-0.26,-0.07,-0.02,0.01,0.98,
0.803,-0.77,-0.26,-0.07,-0.02,0.02,0.98,
0.803,-0.73,-0.20,-0.08,-0.02,0.02,0.98,
0.805,-0.73,-0.20,-0.08,-0.01,0.02,0.97,
0.808,-0.73,-0.20,-0.08,-0.01,0.02,0.97,
0.808,-0.65,-0.13,-0.08,-0.01,0.02,0.97,
0.81,-0.65,-0.13,-0.08,-0.01,0.02,0.97,
0.814,-0.65,-0.13,-0.08,-0.00,0.02,0.97,
0.814,-0.59,-0.08,-0.11,-0.00,0.02,0.97,
0.815,-0.59,-0.08,-0.11,0.01,0.02,0.97,
0.817,-0.59,-0.08,-0.11,0.01,0.02,0.97,
0.817,-0.52,-0.07,-0.14,0.01,0.02,0.97,
0.82,-0.52,-0.07,-0.14,0.01,0.02,0.97,
0.822,-0.52,-0.07,-0.14,0.02,0.02,0.97,
0.823,-0.43,-0.03,-0.15,0.02,0.02,0.97,
0.825,-0.43,-0.03,-0.15,0.02,0.02,0.97,
0.827,-0.43,-0.03,-0.15,0.02,0.02,0.97,
0.828,-0.35,0.00,-0.16,0.02,0.02,0.97,
0.83,-0.35,0.00,-0.16,0.02,0.02,0.97,
0.833,-0.35,0.00,-0.16,0.02,0.02,0.97,
0.834,-0.29,-0.01,-0.15,0.02,0.02,0.97,
0.835,-0.29,-0.01,-0.15,0.02,0.02,0.97,
0.837,-0.29,-0.01,-0.15,0.02,0.02,0.97,
0.837,-0.27,-0.01,-0.13,0.02,0.02,0.97,
0.839,-0.27,-0.01,-0.13,0.02,0.02,0.97,
0.842,-0.27,-0.01,-0.13,0.02,0.02,0.97,
0.843,-0.27,-0.01,-0.11,0.02,0.02,0.97,
0.845,-0.27,-0.01,-0.11,0.02,0.02,0.97,
0.847,-0.27,-0.01,-0.11,0.02,0.01,0.97,
0.847,-0.28,-0.05,-0.09,0.02,0.01,0.97,
0.849,-0.28,-0.05,-0.09,0.02,0.01,0.98,
0.853,-0.28,-0.05,-0.09,0.02,0.01,0.98,
0.853,-0.27,-0.07,-0.10,0.02,0.01,0.98,
0.854,-0.27,-0.07,-0.10,0.02,0.01,0.98,
0.857,-0.27,-0.07,-0.10,0.02,0.01,0.98,
0.857,-0.29,-0.11,-0.07,0.02,0.01,0.98,
0.866,-0.29,-0.11,-0.07,0.02,0.01,0.98,
0.867,-0.29,-0.11,-0.07,0.02,0.01,0.98,
0.867,-0.32,-0.12,-0.06,0.02,0.01,0.98,
0.867,-0.32,-0.12,-0.06,0.02,0.01,0.98,
0.868,-0.32,-0.12,-0.06,0.02,0.01,0.98,
0.868,-0.30,-0.13,-0.04,0.02,0.01,0.98,
0.869,-0.30,-0.13,-0.04,0.02,0.01,0.98,
0.871,-0.30,-0.13,-0.04,0.02,0.01,0.98,
0.872,-0.29,-0.14,-0.03,0.02,0.01,0.98,
0.874,-0.29,-0.14,-0.03,0.02,0.00,0.98,
0.878,-0.29,-0.14,-0.03,0.02,0.00,0.98,
0.878,-0.31,-0.16,-0.02,0.02,0.00,0.98,
0.879,-0.31,-0.16,-0.02,0.02,0.00,0.98,
0.881,-0.31,-0.16,-0.02,0.02,-0.00,0.98,
0.881,-0.31,-0.18,-0.03,0.02,-0.00,0.98,
0.884,-0.31,-0.18,-0.03,0.02,-0.00,0.98,
0.886,-0.31,-0.18,-0.03,0.02,0.00,0.98,
0.887,-0.30,-0.22,-0.03,0.02,0.00,0.98,
0.888,-0.30,-0.22,-0.03,0.02,0.00,0.98,
0.891,-0.30,-0.22,-0.03,0.02,0.00,0.98,
0.891,-0.31,-0.21,-0.02,0.02,0.00,0.98,
0.894,-0.31,-0.21,-0.02,0.02,0.00,0.98,
0.896,-0.31,-0.21,-0.02,0.02,0.00,0.98,
0.896,-0.30,-0.18,-0.02,0.02,0.00,0.98,
0.898,-0.30,-0.18,-0.02,0.02,0.01,0.98,
0.901,-0.30,-0.18,-0.02,0.02,0.01,0.98,
0.901,-0.29,-0.18,-0.04,0.02,0.01,0.98,
0.903,-0.29,-0.18,-0.04,0.02,0.01,0.98,
0.906,-0.29,-0.18,-0.04,0.03,0.02,0.98,
0.906,-0.23,-0.12,-0.05,0.03,0.02,0.98,
0.908,-0.23,-0.12,-0.05,0.03,0.02,0.98,
0.911,-0.23,-0.12,-0.05,0.03,0.02,0.98,
0.911,-0.21,-0.07,-0.04,0.03,0.02,0.98,
0.913,-0.21,-0.07,-0.04,0.03,0.02,0.98,
0.916,-0.21,-0.07,-0.04,0.02,0.02,0.98,
0.916,-0.19,-0.03,-0.04,0.02,0.02,0.98,
0.918,-0.19,-0.03,-0.04,0.02,0.02,0.98,
0.92,-0.20,0.01,-0.07,0.02,0.02,0.98,
0.92,-0.20,0.01,-0.07,0.02,0.03,0.98,
0.922,-0.20,0.01,-0.07,0.02,0.03,0.98,
0.925,-0.20,0.01,-0.07,0.01,0.03,0.97,
0.925,-0.23,0.04,-0.07,0.01,0.03,0.97,
0.928,-0.23,0.04,-0.07,0.01,0.03,0.97,
0.93,-0.23,0.04,-0.07,0.01,0.04,0.97,
0.93,-0.28,0.10,-0.08,0.01,0.04,0.97,
0.934,-0.28,0.10,-0.08,0.00,0.04,0.97,
0.935,-0.28,0.10,-0.08,-0.00,0.04,0.97,
0.935,-0.35,0.13,-0.09,-0.00,0.04,0.97,
0.938,-0.35,0.13,-0.09,-0.01,0.04,0.97,
0.94,-0.35,0.13,-0.09,-0.01,0.04,0.97,
0.94,-0.42,0.15,-0.10,-0.01,0.04,0.97,
0.942,-0.42,0.15,-0.10,-0.02,0.04,0.97,
0.945,-0.42,0.15,-0.10,-0.02,0.04,0.97,
0.945,-0.51,0.18,-0.11,-0.02,0.04,0.97,
0.947,-0.51,0.18,-0.11,-0.03,0.04,0.98,
0.949,-0.51,0.18,-0.11,-0.03,0.05,0.98,
0.95,-0.61,0.19,-0.09,-0.03,0.05,0.98,
0.953,-0.61,0.19,-0.09,-0.04,0.05,0.98,
0.954,-0.61,0.19,-0.09,-0.04,0.05,0.98,
0.955,-0.67,0.23,-0.04,-0.04,0.05,0.98,
0.957,-0.67,0.23,-0.04,-0.04,0.06,0.98,
0.965,-0.67,0.23,-0.04,-0.05,0.05,0.99,
0.966,-0.74,0.29,-0.01,-0.05,0.05,0.99,
0.966,-0.74,0.29,-0.01,-0.05,0.05,0.99,
0.966,-0.74,0.29,-0.01,-0.05,0.05,0.99,
0.967,-0.79,0.31,0.04,-0.05,0.05,0.99,
0.967,-0.79,0.31,0.04,-0.05,0.05,0.99,
0.969,-0.79,0.31,0.04,-0.05,0.05,0.99,
0.969,-0.84,0.30,0.06,-0.05,0.05,0.99,
0.973,-0.84,0.30,0.06,-0.06,0.05,1.00,
0.974,-0.84,0.30,0.06,-0.06,0.05,1.00,
0.974,-0.86,0.29,0.10,-0.06,0.05,1.00,
0.977,-0.86,0.29,0.10,-0.05,0.05,1.00,
0.979,-0.86,0.29,0.10,-0.05,0.05,1.00,
0.979,-0.87,0.29,0.13,-0.05,0.05,1.00,
0.981,-0.87,0.29,0.13,-0.05,0.05,1.00,
0.984,-0.87,0.29,0.13,-0.05,0.04,1.00,
0.984,-0.82,0.25,0.15,-0.05,0.04,1.00,
0.986,-0.82,0.25,0.15,-0.04,0.04,1.00,
0.989,-0.82,0.25,0.15,-0.04,0.04,1.00,
0.989,-0.78,0.21,0.16,-0.04,0.04,1.00,
0.991,-0.78,0.21,0.16,-0.03,0.04,1.00,
0.994,-0.78,0.21,0.16,-0.03,0.04,0.99,
0.994,-0.70,0.15,0.14,-0.03,0.04,0.99,
0.996,-0.70,0.15,0.14,-0.02,0.03,0.99,
0.999,-0.70,0.15,0.14,-0.02,0.04,0.99,
0.999,-0.61,0.13,0.11,-0.02,0.04,0.99,
1.001,-0.61,0.13,0.11,-0.01,0.03,0.99,
1.003,-0.61,0.13,0.11,0.00,0.03,0.98,
1.004,-0.48,0.12,0.05,0.00,0.03,0.98,
1.006,-0.48,0.12,0.05,0.01,0.04,0.98,
1.008,-0.48,0.12,0.05,0.01,0.04,0.97,
1.008,-0.32,0.11,0.01,0.01,0.04,0.97,
1.011,-0.32,0.11,0.01,0.02,0.03,0.97,
1.014,-0.32,0.11,0.01,0.02,0.03,0.97,
1.014,-0.20,0.12,-0.07,0.02,0.03,0.97,
1.015,-0.20,0.12,-0.07,0.02,0.03,0.97,
1.018,-0.20,0.12,-0.07,0.02,0.03,0.97,
1.018,-0.10,0.09,-0.11,0.02,0.03,0.97,
1.02,-0.10,0.09,-0.11,0.02,0.03,0.97,
1.023,-0.10,0.09,-0.11,0.02,0.03,0.97,
1.023,-0.07,0.08,-0.12,0.02,0.03,0.97,
1.025,-0.07,0.08,-0.12,0.01,0.03,0.97,
1.028,-0.07,0.08,-0.12,0.01,0.03,0.97,
1.029,-0.11,0.08,-0.13,0.01,0.03,0.97,
1.031,-0.11,0.08,-0.13,0.00,0.02,0.97,
1.034,-0.11,0.08,-0.13,-0.00,0.02,0.97,
1.034,-0.17,0.04,-0.09,-0.00,0.02,0.97,
1.035,-0.17,0.04,-0.09,-0.01,0.02,0.98,
1.038,-0.17,0.04,-0.09,-0.01,0.03,0.98,
1.038,-0.27,0.01,-0.10,-0.01,0.03,0.98,
1.04,-0.27,0.01,-0.10,-0.02,0.03,0.98,
1.044,-0.27,0.01,-0.10,-0.02,0.03,0.98,
1.045,-0.33,0.03,-0.07,-0.02,0.03,0.98,
1.045,-0.33,0.03,-0.07,-0.02,0.03,0.98,
1.048,-0.33,0.03,-0.07,-0.03,0.03,0.98,
1.048,-0.43,0.04,-0.04,-0.03,0.03,0.98,
1.05,-0.43,0.04,-0.04,-0.03,0.03,0.98,
1.054,-0.43,0.04,-0.04,-0.03,0.03,0.98,
1.054,-0.49,0.07,-0.03,-0.03,0.03,0.98,
1.055,-0.49,0.07,-0.03,-0.04,0.03,0.98,
1.057,-0.49,0.07,-0.03,-0.04,0.03,0.97,
1.058,-0.53,0.05,-0.04,-0.04,0.03,0.97,
1.06,-0.53,0.05,-0.04,-0.04,0.03,0.97,
1.063,-0.53,0.05,-0.04,-0.05,0.03,0.97,
1.063,-0.61,0.04,-0.07,-0.05,0.03,0.97,
1.065,-0.61,0.04,-0.07,-0.05,0.03,0.97,
1.067,-0.61,0.04,-0.07,-0.05,0.04,0.97,
1.068,-0.65,0.08,-0.09,-0.05,0.04,0.97,
1.069,-0.65,0.08,-0.09,-0.05,0.04,0.97,
1.074,-0.65,0.08,-0.09,-0.05,0.04,0.97,
1.074,-0.67,0.11,-0.12,-0.05,0.04,0.97,
1.075,-0.67,0.11,-0.12,-0.05,0.04,0.96,
1.082,-0.67,0.11,-0.12,-0.05,0.04,0.96,
1.083,-0.67,0.14,-0.15,-0.05,0.04,0.96,
1.083,-0.67,0.14,-0.15,-0.05,0.04,0.96,
1.084,-0.67,0.14,-0.15,-0.04,0.04,0.96,
1.084,-0.64,0.16,-0.19,-0.04,0.04,0.96,
1.084,-0.64,0.16,-0.19,-0.04,0.04,0.95,
1.087,-0.64,0.16,-0.19,-0.04,0.04,0.95,
1.087,-0.61,0.16,-0.25,-0.04,0.04,0.95,
1.089,-0.61,0.16,-0.25,-0.03,0.04,0.95,
1.094,-0.61,0.16,-0.25,-0.03,0.04,0.95,
1.095,-0.56,0.15,-0.28,-0.03,0.04,0.95,
1.095,-0.56,0.15,-0.28,-0.03,0.04,0.95,
1.097,-0.56,0.15,-0.28,-0.02,0.04,0.95,
1.097,-0.45,0.18,-0.28,-0.02,0.04,0.95,
1.099,-0.45,0.18,-0.28,-0.02,0.04,0.96,
1.101,-0.45,0.18,-0.28,-0.02,0.04,0.96,
1.102,-0.39,0.18,-0.28,-0.02,0.04,0.96,
1.104,-0.39,0.18,-0.28,-0.03,0.05,0.96,
1.106,-0.39,0.18,-0.28,-0.03,0.04,0.96,
1.106,-0.37,0.19,-0.24,-0.03,0.04,0.96,
1.108,-0.37,0.19,-0.24,-0.03,0.04,0.96,
1.111,-0.37,0.19,-0.24,-0.03,0.04,0.96,
1.111,-0.40,0.21,-0.20,-0.03,0.04,0.96,
1.114,-0.40,0.21,-0.20,-0.03,0.04,0.97,
1.117,-0.40,0.21,-0.20,-0.04,0.04,0.97,
1.117,-0.41,0.19,-0.18,-0.04,0.04,0.97,
1.118,-0.41,0.19,-0.18,-0.04,0.04,0.97,
1.121,-0.41,0.19,-0.18,-0.05,0.04,0.97,
1.121,-0.46,0.19,-0.14,-0.05,0.04,0.97,
1.123,-0.46,0.19,-0.14,-0.05,0.04,0.97,
1.126,-0.46,0.19,-0.14,-0.05,0.04,0.97,
1.126,-0.54,0.19,-0.12,-0.05,0.04,0.97,
1.128,-0.54,0.19,-0.12,-0.06,0.04,0.97,
1.131,-0.54,0.19,-0.12,-0.06,0.05,0.97,
1.131,-0.59,0.20,-0.11,-0.06,0.05,0.97,
1.134,-0.59,0.20,-0.11,-0.07,0.04,0.97,
1.136,-0.59,0.20,-0.11,-0.07,0.04,0.97,
1.136,-0.65,0.22,-0.10,-0.07,0.04,0.97,
1.138,-0.65,0.22,-0.10,-0.07,0.05,0.97,
1.141,-0.65,0.22,-0.10,-0.08,0.05,0.97,
1.141,-0.73,0.22,-0.10,-0.08,0.05,0.97,
1.143,-0.73,0.22,-0.10,-0.08,0.05,0.97,
1.146,-0.73,0.22,-0.10,-0.08,0.05,0.97,
1.147,-0.80,0.27,-0.08,-0.08,0.05,0.97,
1.148,-0.80,0.27,-0.08,-0.08,0.05,0.97,
1.151,-0.80,0.27,-0.08,-0.08,0.06,0.97,
1.151,-0.84,0.29,-0.08,-0.08,0.06,0.97,
1.154,-0.84,0.29,-0.08,-0.08,0.06,0.97,
1.155,-0.84,0.29,-0.08,-0.08,0.06,0.97,
1.155,-0.86,0.32,-0.10,-0.08,0.06,0.97,
1.158,-0.86,0.32,-0.10,-0.08,0.06,0.97,
1.165,-0.86,0.32,-0.10,-0.08,0.06,0.96,
1.166,-0.84,0.35,-0.12,-0.08,0.06,0.96,
1.166,-0.84,0.35,-0.12,-0.07,0.06,0.96,
1.167,-0.84,0.35,-0.12,-0.07,0.06,0.96,
1.167,-0.82,0.35,-0.15,-0.07,0.06,0.96,
1.168,-0.82,0.35,-0.15,-0.06,0.06,0.96,
1.17,-0.82,0.35,-0.15,-0.05,0.06,0.96,
1.171,-0.72,0.36,-0.18,-0.05,0.06,0.96,
1.174,-0.72,0.36,-0.18,-0.04,0.06,0.96,
1.175,-0.72,0.36,-0.18,-0.04,0.07,0.96,
1.175,-0.59,0.42,-0.21,-0.04,0.07,0.96,
1.18,-0.59,0.42,-0.21,-0.03,0.06,0.96,
1.18,-0.59,0.42,-0.21,-0.03,0.07,0.95,
1.18,-0.44,0.45,-0.23,-0.03,0.07,0.95,
1.182,-0.44,0.45,-0.23,-0.02,0.06,0.95,
1.185,-0.44,0.45,-0.23,-0.01,0.07,0.95,
1.185,-0.33,0.46,-0.24,-0.01,0.07,0.95,
1.187,-0.33,0.46,-0.24,-0.01,0.07,0.95,
1.189,-0.33,0.46,-0.24,0.00,0.07,0.95,
1.19,-0.20,0.47,-0.26,0.00,0.07,0.95,
1.193,-0.20,0.47,-0.26,0.01,0.06,0.95,
1.195,-0.20,0.47,-0.26,0.01,0.06,0.95,
1.195,-0.07,0.48,-0.27,0.01,0.06,0.95,
1.199,-0.07,0.48,-0.27,0.01,0.06,0.95,
1.199,-0.07,0.48,-0.27,0.01,0.06,0.95,
1.2,0.02,0.45,-0.28,0.01,0.06,0.95,
1.202,0.02,0.45,-0.28,0.01,0.06,0.95,
1.204,0.02,0.45,-0.28,0.01,0.06,0.95,
1.204,0.06,0.43,-0.30,0.01,0.06,0.95,
1.206,0.06,0.43,-0.30,0.01,0.06,0.95,
1.209,0.06,0.43,-0.30,0.01,0.06,0.95,
1.209,0.07,0.42,-0.29,0.01,0.06,0.95,
1.213,0.07,0.42,-0.29,0.01,0.06,0.95,
1.214,0.07,0.42,-0.29,0.01,0.06,0.95,
1.214,0.05,0.41,-0.30,0.01,0.06,0.95,
1.216,0.05,0.41,-0.30,0.00,0.05,0.95,
1.219,0.05,0.41,-0.30,-0.01,0.05,0.95,
1.219,0.01,0.40,-0.29,-0.01,0.05,0.95,
1.221,0.01,0.40,-0.29,-0.01,0.05,0.95,
1.224,0.01,0.40,-0.29,-0.02,0.05,0.95,
1.224,-0.09,0.39,-0.29,-0.02,0.05,0.95,
1.226,-0.09,0.39,-0.29,-0.02,0.05,0.95,
1.229,-0.09,0.39,-0.29,-0.03,0.05,0.95,
1.229,-0.18,0.35,-0.26,-0.03,0.05,0.95,
1.231,-0.18,0.35,-0.26,-0.03,0.05,0.96,
1.234,-0.18,0.35,-0.26,-0.04,0.06,0.96,
1.234,-0.28,0.35,-0.24,-0.04,0.06,0.96,
1.236,-0.28,0.35,-0.24,-0.04,0.06,0.96,
1.241,-0.28,0.35,-0.24,-0.05,0.06,0.96,
1.241,-0.38,0.41,-0.20,-0.05,0.06,0.96,
1.241,-0.38,0.41,-0.20,-0.05,0.07,0.96,
1.244,-0.38,0.41,-0.20,-0.06,0.07,0.96,
1.244,-0.46,0.45,-0.18,-0.06,0.07,0.96,
1.246,-0.46,0.45,-0.18,-0.06,0.07,0.97,
1.248,-0.46,0.45,-0.18,-0.06,0.08,0.97,
1.248,-0.55,0.52,-0.14,-0.06,0.08,0.97,
1.251,-0.55,0.52,-0.14,-0.06,0.08,0.97,
1.254,-0.55,0.52,-0.14,-0.06,0.09,0.97,
1.254,-0.56,0.61,-0.10,-0.06,0.09,0.97,
1.255,-0.56,0.61,-0.10,-0.06,0.09,0.97,
1.259,-0.56,0.61,-0.10,-0.06,0.10,0.97,
1.259,-0.56,0.70,-0.10,-0.06,0.10,0.97,
1.274,-0.56,0.70,-0.10,-0.06,0.10,0.97,
1.274,-0.56,0.70,-0.10,-0.06,0.10,0.97,
1.276,-0.57,0.77,-0.10,-0.06,0.10,0.97,
1.277,-0.57,0.77,-0.10,-0.06,0.11,0.97,
1.277,-0.57,0.77,-0.10,-0.06,0.11,0.96,
1.277,-0.56,0.84,-0.10,-0.06,0.11,0.96,
1.277,-0.56,0.84,-0.10,-0.06,0.11,0.96,
1.277,-0.56,0.84,-0.10,-0.06,0.11,0.96,
1.278,-0.53,0.89,-0.11,-0.06,0.11,0.96,
1.278,-0.53,0.89,-0.11,-0.06,0.11,0.96,
1.278,-0.53,0.89,-0.11,-0.06,0.11,0.97,
1.278,-0.52,0.91,-0.12,-0.06,0.11,0.97,
1.287,-0.52,0.91,-0.12,-0.05,0.11,0.96,
1.287,-0.52,0.91,-0.12,-0.05,0.11,0.96,
1.287,-0.49,0.92,-0.11,-0.05,0.11,0.96,
1.287,-0.49,0.92,-0.11,-0.05,0.11,0.96,
1.288,-0.49,0.92,-0.11,-0.05,0.11,0.96,
1.288,-0.42,0.91,-0.14,-0.05,0.11,0.96,
1.29,-0.42,0.91,-0.14,-0.04,0.11,0.96,
1.294,-0.42,0.91,-0.14,-0.04,0.11,0.96,
1.294,-0.38,0.91,-0.14,-0.04,0.11,0.96,
1.295,-0.38,0.91,-0.14,-0.04,0.11,0.96,
1.297,-0.38,0.91,-0.14,-0.03,0.11,0.96,
1.297,-0.29,0.91,-0.12,-0.03,0.11,0.96,
1.299,-0.29,0.91,-0.12,-0.03,0.11,0.97,
1.302,-0.29,0.91,-0.12,-0.03,0.11,0.97,
1.302,-0.24,0.91,-0.11,-0.03,0.11,0.97,
1.305,-0.24,0.91,-0.11,-0.03,0.11,0.97,
1.307,-0.24,0.91,-0.11,-0.03,0.11,0.97,
1.307,-0.19,0.89,-0.09,-0.03,0.11,0.97,
1.309,-0.19,0.89,-0.09,-0.03,0.11,0.97,
1.313,-0.19,0.89,-0.09,-0.03,0.11,0.97,
1.315,-0.19,0.89,-0.06,-0.03,0.11,0.97,
1.315,-0.19,0.89,-0.06,-0.04,0.11,0.98,
1.317,-0.19,0.89,-0.06,-0.04,0.11,0.98,
1.317,-0.18,0.87,-0.02,-0.04,0.11,0.98,
1.319,-0.18,0.87,-0.02,-0.04,0.11,0.98,
1.322,-0.18,0.87,-0.02,-0.04,0.11,0.98,
1.322,-0.22,0.87,0.01,-0.04,0.11,0.98,
1.324,-0.22,0.87,0.01,-0.05,0.11,0.98,
1.327,-0.22,0.87,0.01,-0.05,0.11,0.98,
1.327,-0.26,0.86,0.06,-0.05,0.11,0.98,
1.329,-0.26,0.86,0.06,-0.05,0.11,0.98,
1.331,-0.26,0.86,0.06,-0.05,0.11,0.98,
1.332,-0.32,0.87,0.08,-0.05,0.11,0.98,
1.334,-0.32,0.87,0.08,-0.06,0.11,0.98,
1.336,-0.32,0.87,0.08,-0.05,0.11,0.98,
1.337,-0.35,0.87,0.08,-0.05,0.11,0.98,
1.339,-0.35,0.87,0.08,-0.06,0.12,0.98,
1.343,-0.35,0.87,0.08,-0.06,0.12,0.98,
1.343,-0.36,0.90,0.04,-0.06,0.12,0.98,
1.344,-0.36,0.90,0.04,-0.06,0.12,0.98,
1.346,-0.36,0.90,0.04,-0.06,0.13,0.98,
1.347,-0.36,0.95,0.01,-0.06,0.13,0.98,
1.349,-0.36,0.95,0.01,-0.05,0.13,0.97,
1.351,-0.36,0.95,0.01,-0.05,0.13,0.97,
1.351,-0.36,0.99,0.01,-0.05,0.13,0.97,
1.354,-0.36,0.99,0.01,-0.05,0.13,0.97,
1.356,-0.36,0.99,0.01,-0.04,0.13,0.97,
1.357,-0.32,1.02,-0.03,-0.04,0.13,0.97,
1.359,-0.32,1.02,-0.03,-0.04,0.13,0.97,
1.361,-0.32,1.02,-0.03,-0.05,0.13,0.96,
1.362,-0.27,1.02,-0.05,-0.05,0.13,0.96,
1.363,-0.27,1.02,-0.05,-0.05,0.13,0.96,
1.366,-0.27,1.02,-0.05,-0.05,0.12,0.96,
1.366,-0.25,1.02,-0.10,-0.05,0.12,0.96,
1.368,-0.25,1.02,-0.10,-0.05,0.12,0.96,
1.371,-0.25,1.02,-0.10,-0.05,0.12,0.95,
1.371,-0.27,0.98,-0.17,-0.05,0.12,0.95,
1.374,-0.27,0.98,-0.17,-0.05,0.12,0.95,
1.381,-0.27,0.98,-0.17,-0.04,0.12,0.95,
1.382,-0.25,0.96,-0.21,-0.04,0.12,0.95,
1.382,-0.25,0.96,-0.21,-0.04,0.12,0.95,
1.382,-0.22,0.92,-0.24,-0.04,0.12,0.95,
1.383,-0.22,0.92,-0.24,-0.03,0.12,0.95,
1.383,-0.22,0.92,-0.24,-0.03,0.12,0.95,
1.385,-0.14,0.90,-0.24,-0.03,0.12,0.95,
1.386,-0.14,0.90,-0.24,-0.03,0.11,0.95,
1.388,-0.14,0.90,-0.24,-0.03,0.11,0.96,
1.391,-0.14,0.90,-0.24,-0.03,0.11,0.96,
1.391,-0.10,0.87,-0.22,-0.03,0.11,0.96,
1.394,-0.10,0.87,-0.22,-0.03,0.10,0.96,
1.395,-0.10,0.87,-0.22,-0.03,0.10,0.97,
1.395,-0.05,0.81,-0.14,-0.03,0.10,0.97,
1.398,-0.05,0.81,-0.14,-0.03,0.10,0.97,
1.4,-0.05,0.81,-0.14,-0.03,0.10,0.97,
1.4,-0.03,0.76,-0.07,-0.03,0.10,0.97,
1.402,-0.03,0.76,-0.07,-0.03,0.09,0.98,
1.405,-0.03,0.76,-0.07,-0.03,0.09,0.98,
1.405,-0.01,0.71,-0.01,-0.03,0.09,0.98,
1.409,-0.01,0.71,-0.01,-0.03,0.09,0.99,
1.41,-0.01,0.71,-0.01,-0.04,0.09,0.99,
1.41,-0.04,0.66,0.05,-0.04,0.09,0.99,
1.417,-0.04,0.66,0.05,-0.04,0.09,0.99,
1.417,-0.04,0.66,0.05,-0.04,0.08,1.00,
1.418,-0.06,0.63,0.15,-0.04,0.08,1.00,
1.418,-0.06,0.63,0.15,-0.04,0.08,1.00,
1.42,-0.06,0.63,0.15,-0.04,0.08,1.00,
1.42,-0.07,0.57,0.20,-0.04,0.08,1.00,
1.422,-0.07,0.57,0.20,-0.04,0.08,1.00,
1.426,-0.07,0.57,0.20,-0.04,0.08,1.00,
1.426,-0.06,0.52,0.25,-0.04,0.08,1.00,
1.428,-0.06,0.52,0.25,-0.04,0.08,1.01,
1.43,-0.06,0.52,0.25,-0.04,0.08,1.00,
1.43,-0.05,0.50,0.27,-0.04,0.08,1.00,
1.433,-0.05,0.50,0.27,-0.04,0.08,1.00,
1.434,-0.05,0.50,0.27,-0.03,0.07,1.00,
1.435,-0.04,0.50,0.28,-0.03,0.07,1.00,
1.437,-0.04,0.50,0.28,-0.03,0.07,0.99,
1.439,-0.04,0.50,0.28,-0.03,0.07,0.99,
1.439,0.01,0.45,0.21,-0.03,0.07,0.99,
1.442,0.01,0.45,0.21,-0.02,0.07,0.98,
1.445,0.01,0.45,0.21,-0.02,0.07,0.97,
1.445,0.06,0.43,0.12,-0.02,0.07,0.97,
1.447,0.06,0.43,0.12,-0.02,0.07,0.97,
1.449,0.06,0.43,0.12,-0.01,0.07,0.96,
1.45,0.14,0.42,0.01,-0.01,0.07,0.96,
1.451,0.14,0.42,0.01,-0.01,0.07,0.95,
1.454,0.14,0.42,0.01,-0.01,0.07,0.94,
1.455,0.20,0.40,-0.15,-0.01,0.07,0.94,
1.456,0.20,0.40,-0.15,-0.01,0.07,0.94,
1.459,0.20,0.40,-0.15,-0.00,0.07,0.93,
1.46,0.24,0.41,-0.29,-0.00,0.07,0.93,
1.461,0.24,0.41,-0.29,-0.00,0.08,0.92,
1.464,0.24,0.41,-0.29,0.00,0.08,0.92,
1.464,0.29,0.42,-0.43,0.00,0.08,0.92,
1.466,0.29,0.42,-0.43,0.00,0.08,0.91,
1.469,0.29,0.42,-0.43,0.00,0.08,0.90,
1.469,0.32,0.44,-0.56,0.00,0.08,0.90,
1.471,0.32,0.44,-0.56,0.01,0.08,0.90,
1.474,0.32,0.44,-0.56,0.01,0.08,0.90,
1.474,0.35,0.46,-0.66,0.01,0.08,0.90,
1.478,0.35,0.46,-0.66,0.01,0.09,0.90,
1.478,0.35,0.46,-0.66,0.01,0.09,0.90,
1.479,0.39,0.49,-0.72,0.01,0.09,0.90,
1.481,0.39,0.49,-0.72,0.01,0.09,0.90,
1.483,0.39,0.49,-0.72,0.02,0.09,0.90,
1.483,0.43,0.54,-0.75,0.02,0.09,0.90,
1.486,0.43,0.54,-0.75,0.02,0.09,0.90,
1.488,0.43,0.54,-0.75,0.02,0.08,0.90,
1.488,0.49,0.54,-0.74,0.02,0.08,0.90,
1.491,0.49,0.54,-0.74,0.02,0.08,0.91,
1.494,0.49,0.54,-0.74,0.03,0.08,0.92,
1.494,0.53,0.51,-0.68,0.03,0.08,0.92,
1.495,0.53,0.51,-0.68,0.03,0.08,0.92,
1.498,0.53,0.51,-0.68,0.03,0.08,0.93,
1.498,0.61,0.49,-0.57,0.03,0.08,0.93,
1.5,0.61,0.49,-0.57,0.03,0.08,0.94,
1.503,0.61,0.49,-0.57,0.03,0.07,0.95,
1.503,0.65,0.44,-0.42,0.03,0.07,0.95,
1.505,0.65,0.44,-0.42,0.03,0.07,0.96,
1.51,0.65,0.44,-0.42,0.03,0.06,0.96,
1.51,0.67,0.39,-0.27,0.03,0.06,0.96,
1.511,0.67,0.39,-0.27,0.03,0.06,0.97,
1.514,0.67,0.39,-0.27,0.02,0.06,0.98,
1.514,0.67,0.31,-0.10,0.02,0.06,0.98,
1.515,0.67,0.31,-0.10,0.02,0.06,0.99,
1.518,0.67,0.31,-0.10,0.02,0.06,1.00,
1.518,0.68,0.24,0.08,0.02,0.06,1.00,
1.52,0.68,0.24,0.08,0.01,0.05,1.01,
1.523,0.68,0.24,0.08,0.01,0.05,1.02,
1.523,0.64,0.21,0.23,0.01,0.05,1.02,
1.525,0.64,0.21,0.23,0.01,0.05,1.02,
1.528,0.64,0.21,0.23,0.00,0.05,1.03,
1.529,0.58,0.18,0.40,0.00,0.05,1.03,
1.53,0.58,0.18,0.40,0.00,0.05,1.03,
1.534,0.58,0.18,0.40,-0.01,0.05,1.03,
1.534,0.53,0.17,0.53,-0.01,0.05,1.03,
1.535,0.53,0.17,0.53,-0.01,0.05,1.04,
1.537,0.53,0.17,0.53,-0.01,0.05,1.04,
1.538,0.47,0.17,0.61,-0.01,0.05,1.04,
1.54,0.47,0.17,0.61,-0.01,0.05,1.04,
1.542,0.47,0.17,0.61,-0.02,0.06,1.04,
1.543,0.39,0.16,0.66,-0.02,0.06,1.04,
1.545,0.39,0.16,0.66,-0.02,0.06,1.04,
1.547,0.39,0.16,0.66,-0.02,0.06,1.04,
1.547,0.34,0.19,0.67,-0.02,0.06,1.04,
1.549,0.34,0.19,0.67,-0.02,0.06,1.03,
1.553,0.34,0.19,0.67,-0.02,0.07,1.03,
1.554,0.30,0.23,0.65,-0.02,0.07,1.03,
1.554,0.30,0.23,0.65,-0.02,0.07,1.03,
1.557,0.30,0.23,0.65,-0.02,0.07,1.03,
1.557,0.28,0.28,0.59,-0.02,0.07,1.03,
1.564,0.28,0.28,0.59,-0.02,0.07,1.02,
1.565,0.28,0.28,0.59,-0.02,0.07,1.02,
1.565,0.25,0.31,0.53,-0.02,0.07,1.02,
1.566,0.25,0.31,0.53,-0.02,0.07,1.02,
1.567,0.25,0.31,0.53,-0.02,0.07,1.02,
1.567,0.25,0.32,0.46,-0.02,0.07,1.02,
1.569,0.25,0.32,0.46,-0.02,0.07,1.01,
1.571,0.25,0.32,0.46,-0.02,0.07,1.01,
1.572,0.25,0.34,0.41,-0.02,0.07,1.01,
1.577,0.25,0.34,0.41,-0.01,0.07,1.00,
1.578,0.25,0.34,0.41,-0.01,0.07,1.00,
1.578,0.28,0.35,0.34,-0.01,0.07,1.00,
1.579,0.28,0.35,0.34,-0.00,0.07,1.00,
1.581,0.28,0.35,0.34,0.00,0.07,1.00,
1.581,0.33,0.38,0.27,0.00,0.07,1.00,
1.584,0.33,0.38,0.27,0.01,0.07,1.00,
1.586,0.33,0.38,0.27,0.01,0.08,1.00,
1.586,0.43,0.38,0.23,0.01,0.08,1.00,
1.588,0.43,0.38,0.23,0.01,0.08,1.00,
1.591,0.43,0.38,0.23,0.01,0.07,1.00,
1.592,0.50,0.40,0.21,0.01,0.07,1.00,
1.594,0.50,0.40,0.21,0.02,0.07,1.00,
1.596,0.50,0.40,0.21,0.02,0.07,1.00,
1.596,0.55,0.40,0.20,0.02,0.07,1.00,
1.598,0.55,0.40,0.20,0.02,0.07,1.00,
1.601,0.55,0.40,0.20,0.02,0.07,1.00,
1.601,0.58,0.38,0.23,0.02,0.07,1.00,
1.603,0.58,0.38,0.23,0.02,0.07,1.01,
1.606,0.58,0.38,0.23,0.02,0.07,1.01,
1.606,0.61,0.38,0.25,0.02,0.07,1.01,
1.608,0.61,0.38,0.25,0.02,0.07,1.01,
1.611,0.61,0.38,0.25,0.01,0.08,1.02,
1.611,0.58,0.39,0.31,0.01,0.08,1.02,
1.614,0.58,0.39,0.31,0.01,0.08,1.02,
1.616,0.58,0.39,0.31,0.01,0.07,1.02,
1.616,0.56,0.40,0.38,0.01,0.07,1.02,
1.618,0.56,0.40,0.38,0.00,0.07,1.03,
1.62,0.56,0.40,0.38,-0.00,0.07,1.03,
1.621,0.51,0.39,0.45,-0.00,0.07,1.03,
1.623,0.51,0.39,0.45,-0.00,0.07,1.03,
1.626,0.51,0.39,0.45,-0.01,0.07,1.04,
1.626,0.44,0.37,0.51,-0.01,0.07,1.04,
1.628,0.44,0.37,0.51,-0.01,0.07,1.04,
1.631,0.38,0.37,0.55,-0.01,0.07,1.04,
1.631,0.38,0.37,0.55,-0.01,0.07,1.04,
1.633,0.38,0.37,0.55,-0.02,0.07,1.04,
1.635,0.38,0.37,0.55,-0.02,0.07,1.04,
1.635,0.32,0.36,0.58,-0.02,0.07,1.04,
1.637,0.32,0.36,0.58,-0.02,0.07,1.04,
1.64,0.32,0.36,0.58,-0.02,0.08,1.04,
1.64,0.26,0.36,0.61,-0.02,0.08,1.04,
1.643,0.26,0.36,0.61,-0.02,0.07,1.04,
1.645,0.26,0.36,0.61,-0.02,0.08,1.04,
1.645,0.27,0.35,0.59,-0.02,0.08,1.04,
1.647,0.27,0.35,0.59,-0.02,0.07,1.03,
1.65,0.27,0.35,0.59,-0.02,0.08,1.03,
1.65,0.28,0.34,0.55,-0.02,0.08,1.03,
1.653,0.28,0.34,0.55,-0.02,0.07,1.03,
1.655,0.29,0.33,0.51,-0.02,0.07,1.03,
1.655,0.29,0.33,0.51,-0.02,0.07,1.03,
1.664,0.29,0.33,0.51,-0.02,0.07,1.03,
1.665,0.29,0.33,0.51,-0.02,0.07,1.03,
1.665,0.26,0.31,0.51,-0.02,0.07,1.03,
1.666,0.26,0.31,0.51,-0.02,0.07,1.03,
1.666,0.26,0.31,0.51,-0.02,0.07,1.03,
1.666,0.26,0.29,0.47,-0.02,0.07,1.03,
1.667,0.26,0.29,0.47,-0.02,0.07,1.02,
1.669,0.26,0.29,0.47,-0.02,0.07,1.02,
1.67,0.27,0.28,0.45,-0.02,0.07,1.02,
1.673,0.27,0.28,0.45,-0.02,0.07,1.02,
1.677,0.27,0.28,0.45,-0.02,0.07,1.01,
1.677,0.29,0.27,0.41,-0.02,0.07,1.01,
1.677,0.29,0.27,0.41,-0.01,0.07,1.01,
1.679,0.29,0.27,0.41,-0.02,0.07,1.01,
1.68,0.28,0.25,0.34,-0.02,0.07,1.01,
1.682,0.28,0.25,0.34,-0.01,0.08,1.01,
1.684,0.28,0.25,0.34,-0.01,0.08,1.01,
1.684,0.29,0.25,0.29,-0.01,0.08,1.01,
1.686,0.29,0.25,0.29,-0.01,0.08,1.00,
1.689,0.29,0.25,0.29,-0.01,0.08,1.00,
1.689,0.32,0.27,0.23,-0.01,0.08,1.00,
1.691,0.32,0.27,0.23,-0.01,0.08,1.00,
1.694,0.32,0.27,0.23,-0.01,0.08,0.99,
1.695,0.34,0.26,0.18,-0.01,0.08,0.99,
1.696,0.34,0.26,0.18,-0.01,0.08,0.99,
1.699,0.34,0.26,0.18,-0.01,0.08,0.99,
1.699,0.33,0.26,0.12,-0.01,0.08,0.99,
1.701,0.33,0.26,0.12,-0.01,0.08,0.98,
1.704,0.33,0.26,0.12,-0.01,0.08,0.98,
1.704,0.31,0.24,0.06,-0.01,0.08,0.98,
1.706,0.31,0.24,0.06,-0.01,0.08,0.98,
1.709,0.31,0.24,0.06,-0.01,0.08,0.98,
1.709,0.31,0.22,0.01,-0.01,0.08,0.98,
1.711,0.31,0.22,0.01,-0.01,0.08,0.98,
1.714,0.31,0.22,0.01,-0.01,0.08,0.98,
1.714,0.30,0.22,-0.03,-0.01,0.08,0.98,
1.716,0.30,0.22,-0.03,-0.02,0.07,0.97,
1.718,0.30,0.22,-0.03,-0.02,0.07,0.97,
1.718,0.28,0.21,-0.05,-0.02,0.07,0.97,
1.721,0.28,0.21,-0.05,-0.02,0.07,0.97,
1.724,0.28,0.21,-0.05,-0.02,0.07,0.97,
1.724,0.23,0.15,-0.08,-0.02,0.07,0.97,
1.726,0.23,0.15,-0.08,-0.01,0.07,0.98,
1.728,0.23,0.15,-0.08,-0.01,0.07,0.98,
1.728,0.24,0.13,-0.08,-0.01,0.07,0.98,
1.731,0.24,0.13,-0.08,-0.01,0.07,0.97,
1.734,0.24,0.13,-0.08,-0.00,0.07,0.97,
1.734,0.26,0.10,-0.07,-0.00,0.07,0.97,
1.735,0.26,0.10,-0.07,-0.00,0.07,0.97,
1.738,0.26,0.10,-0.07,0.00,0.07,0.98,
1.738,0.33,0.09,-0.09,0.00,0.07,0.98,
1.741,0.33,0.09,-0.09,0.00,0.06,0.98,
1.743,0.33,0.09,-0.09,0.01,0.06,0.98,
1.743,0.37,0.05,-0.06,0.01,0.06,0.98,
1.745,0.37,0.05,-0.06,0.01,0.06,0.99,
1.748,0.37,0.05,-0.06,0.02,0.06,0.99,
1.748,0.45,0.02,0.00,0.02,0.06,0.99,
1.75,0.45,0.02,0.00,0.02,0.06,0.99,
1.754,0.45,0.02,0.00,0.03,0.05,0.99,
1.756,0.55,-0.01,0.06,0.03,0.05,0.99,
1.757,0.55,-0.01,0.06,0.03,0.05,1.00,
1.759,0.55,-0.01,0.06,0.04,0.05,1.00,
1.759,0.65,-0.07,0.11,0.04,0.05,1.00,
1.76,0.65,-0.07,0.11,0.04,0.05,1.00,
1.763,0.65,-0.07,0.11,0.04,0.05,1.00,
1.763,0.72,-0.13,0.14,0.04,0.05,1.00,
1.765,0.72,-0.13,0.14,0.04,0.05,1.00,
1.767,0.72,-0.13,0.14,0.04,0.04,1.00,
1.768,0.74,-0.16,0.16,0.04,0.04,1.00,
1.769,0.74,-0.16,0.16,0.04,0.05,1.00,
1.774,0.74,-0.16,0.16,0.04,0.05,1.00,
1.775,0.77,-0.20,0.18,0.04,0.05,1.00,
1.775,0.77,-0.20,0.18,0.04,0.05,1.00,
1.777,0.77,-0.20,0.18,0.04,0.05,1.01,
1.777,0.77,-0.19,0.20,0.04,0.05,1.01,
1.779,0.77,-0.19,0.20,0.03,0.05,1.01,
1.782,0.77,-0.19,0.20,0.03,0.05,1.01,
1.782,0.76,-0.20,0.23,0.03,0.05,1.01,
1.784,0.76,-0.20,0.23,0.02,0.05,1.01,
1.787,0.76,-0.20,0.23,0.02,0.05,1.00,
1.787,0.66,-0.17,0.23,0.02,0.05,1.00,
1.789,0.66,-0.17,0.23,0.01,0.05,1.00,
1.797,0.66,-0.17,0.23,0.00,0.05,1.00,
1.797,0.56,-0.17,0.22,0.00,0.05,1.00,
1.797,0.56,-0.17,0.22,-0.00,0.05,1.00,
1.798,0.56,-0.17,0.22,-0.01,0.05,1.00,
1.798,0.43,-0.17,0.20,-0.01,0.05,1.00,
1.799,0.43,-0.17,0.20,-0.02,0.06,1.00,
1.802,0.43,-0.17,0.20,-0.02,0.06,1.00,
1.802,0.30,-0.16,0.17,-0.02,0.06,1.00,
1.804,0.30,-0.16,0.17,-0.02,0.06,1.00,
1.812,0.30,-0.16,0.17,-0.03,0.06,1.00,
1.812,0.17,-0.14,0.15,-0.03,0.06,1.00,
1.812,0.17,-0.14,0.15,-0.03,0.06,1.00,
1.813,0.17,-0.14,0.15,-0.04,0.06,0.99,
1.813,0.10,-0.12,0.14,-0.04,0.06,0.99,
1.814,0.10,-0.12,0.14,-0.04,0.06,1.00,
1.816,0.10,-0.12,0.14,-0.04,0.06,0.99,
1.816,0.01,-0.12,0.12,-0.04,0.06,0.99,
1.819,0.01,-0.12,0.12,-0.04,0.07,0.99,
1.821,0.01,-0.12,0.12,-0.04,0.07,1.00,
1.821,-0.04,-0.09,0.11,-0.04,0.07,1.00,
1.823,-0.04,-0.09,0.11,-0.04,0.07,1.00,
1.826,-0.04,-0.09,0.11,-0.04,0.07,1.00,
1.826,-0.06,-0.08,0.11,-0.04,0.07,1.00,
1.828,-0.06,-0.08,0.11,-0.04,0.07,1.00,
1.831,-0.06,-0.08,0.11,-0.04,0.07,1.00,
1.831,-0.06,-0.05,0.13,-0.04,0.07,1.00,
1.834,-0.06,-0.05,0.13,-0.03,0.07,1.00,
1.836,-0.06,-0.05,0.13,-0.03,0.07,1.01,
1.836,-0.03,-0.03,0.16,-0.03,0.07,1.01,
1.838,-0.03,-0.03,0.16,-0.03,0.07,1.01,
1.841,-0.03,-0.03,0.16,-0.02,0.07,1.01,
1.841,0.02,-0.02,0.21,-0.02,0.07,1.01,
1.843,0.02,-0.02,0.21,-0.02,0.07,1.01,
1.845,0.02,-0.02,0.21,-0.01,0.07,1.01,
1.846,0.09,-0.02,0.23,-0.01,0.07,1.01,
1.848,0.09,-0.02,0.23,-0.01,0.07,1.01,
1.851,0.09,-0.02,0.23,-0.00,0.07,1.01,
1.851,0.17,-0.05,0.25,-0.00,0.07,1.01,
1.853,0.17,-0.05,0.25,0.00,0.07,1.01,
1.855,0.17,-0.05,0.25,0.01,0.06,1.00,
1.856,0.27,-0.08,0.24,0.01,0.06,1.00,
1.858,0.27,-0.08,0.24,0.01,0.06,1.00,
1.86,0.27,-0.08,0.24,0.02,0.06,1.00,
1.861,0.36,-0.11,0.21,0.02,0.06,1.00,
1.863,0.36,-0.11,0.21,0.02,0.06,0.99,
1.865,0.36,-0.11,0.21,0.02,0.06,0.99,
1.866,0.43,-0.13,0.14,0.02,0.06,0.99,
1.868,0.43,-0.13,0.14,0.02,0.06,0.98,
1.87,0.43,-0.13,0.14,0.02,0.06,0.98,
1.87,0.49,-0.16,0.06,0.02,0.06,0.98,
1.88,0.49,-0.16,0.06,0.02,0.06,0.98,
1.88,0.49,-0.16,0.06,0.02,0.06,0.97,
1.881,0.49,-0.19,-0.03,0.02,0.06,0.97,
1.881,0.49,-0.19,-0.03,0.02,0.06,0.97,
1.881,0.49,-0.19,-0.03,0.02,0.06,0.96,
1.882,0.48,-0.20,-0.09,0.02,0.06,0.96,
1.882,0.48,-0.20,-0.09,0.02,0.06,0.96,
1.885,0.48,-0.20,-0.09,0.02,0.05,0.96,
1.885,0.45,-0.22,-0.17,0.02,0.05,0.96,
1.887,0.45,-0.22,-0.17,0.01,0.06,0.96,
1.891,0.45,-0.22,-0.17,0.01,0.06,0.95,
1.892,0.41,-0.22,-0.23,0.01,0.06,0.95,
1.893,0.41,-0.22,-0.23,0.01,0.06,0.95,
1.895,0.41,-0.22,-0.23,0.01,0.06,0.95,
1.895,0.36,-0.21,-0.27,0.01,0.06,0.95,
1.897,0.36,-0.21,-0.27,0.00,0.06,0.95,
1.9,0.36,-0.21,-0.27,0.00,0.06,0.95,
1.9,0.28,-0.21,-0.29,0.00,0.06,0.95,
1.902,0.28,-0.21,-0.29,0.00,0.06,0.95,
1.904,0.28,-0.21,-0.29,0.00,0.06,0.96,
1.904,0.23,-0.20,-0.30,0.00,0.06,0.96,
1.907,0.23,-0.20,-0.30,0.00,0.06,0.96,
1.91,0.23,-0.20,-0.30,0.00,0.06,0.96,
1.91,0.21,-0.18,-0.27,0.00,0.06,0.96,
1.913,0.21,-0.18,-0.27,0.00,0.06,0.96,
1.914,0.21,-0.18,-0.27,0.00,0.06,0.97,
1.914,0.22,-0.15,-0.23,0.00,0.06,0.97,
1.916,0.22,-0.15,-0.23,0.00,0.07,0.98,
1.919,0.22,-0.15,-0.23,0.00,0.07,0.98,
1.919,0.22,-0.12,-0.13,0.00,0.07,0.98,
1.921,0.22,-0.12,-0.13,0.00,0.06,0.99,
1.924,0.22,-0.12,-0.13,-0.00,0.07,0.99,
1.924,0.22,-0.10,-0.03,-0.00,0.07,0.99,
1.926,0.22,-0.10,-0.03,-0.00,0.07,1.00,
1.929,0.20,-0.11,0.06,-0.00,0.07,1.00,
1.929,0.20,-0.11,0.06,-0.00,0.07,1.00,
1.931,0.20,-0.11,0.06,-0.00,0.07,1.00,
1.934,0.20,-0.11,0.06,0.00,0.07,1.00,
1.934,0.19,-0.10,0.14,0.00,0.07,1.00,
1.936,0.19,-0.10,0.14,0.00,0.07,1.01,
1.939,0.19,-0.10,0.14,0.00,0.07,1.01,
1.939,0.22,-0.10,0.21,0.00,0.07,1.01,
1.942,0.22,-0.10,0.21,0.01,0.07,1.00,
1.944,0.22,-0.10,0.21,0.01,0.07,1.00,
1.945,0.25,-0.10,0.23,0.01,0.07,1.00,
1.946,0.25,-0.10,0.23,0.01,0.07,1.00,
1.949,0.25,-0.10,0.23,0.01,0.07,1.00,
1.949,0.30,-0.10,0.21,0.01,0.07,1.00,
1.951,0.30,-0.10,0.21,0.02,0.07,1.00,
1.954,0.30,-0.10,0.21,0.02,0.07,0.99,
1.954,0.33,-0.10,0.18,0.02,0.07,0.99,
1.957,0.33,-0.10,0.18,0.02,0.07,0.99,
1.958,0.33,-0.10,0.18,0.02,0.07,0.98,
1.959,0.39,-0.09,0.11,0.02,0.07,0.98,
1.961,0.39,-0.09,0.11,0.03,0.07,0.98,
1.964,0.39,-0.09,0.11,0.03,0.07,0.97,
1.964,0.42,-0.08,0.02,0.03,0.07,0.97,
1.965,0.42,-0.08,0.02,0.03,0.07,0.97,
1.968,0.42,-0.08,0.02,0.03,0.07,0.97,
1.968,0.46,-0.10,-0.06,0.03,0.07,0.97,
1.97,0.46,-0.10,-0.06,0.03,0.06,0.96,
1.974,0.46,-0.10,-0.06,0.03,0.06,0.96,
1.974,0.49,-0.13,-0.15,0.03,0.06,0.96,
1.975,0.49,-0.13,-0.15,0.03,0.06,0.96,
1.978,0.49,-0.13,-0.15,0.03,0.06,0.96,
1.978,0.49,-0.14,-0.22,0.03,0.06,0.96,
1.98,0.49,-0.14,-0.22,0.03,0.06,0.96,
1.983,0.49,-0.14,-0.22,0.03,0.06,0.96,
1.983,0.49,-0.16,-0.26,0.03,0.06,0.96,
1.985,0.49,-0.16,-0.26,0.03,0.06,0.95,
1.988,0.49,-0.16,-0.26,0.03,0.06,0.96,
1.988,0.47,-0.16,-0.26,0.03,0.06,0.96,
1.996,0.47,-0.16,-0.26,0.02,0.06,0.96,
1.996,0.47,-0.16,-0.26,0.02,0.06,0.96,
1.996,0.46,-0.18,-0.26,0.02,0.06,0.96,
1.997,0.46,-0.18,-0.26,0.02,0.06,0.97,
1.997,0.46,-0.18,-0.26,0.02,0.05,0.97,
1.998,0.42,-0.20,-0.21,0.02,0.05,0.97,
2.0,0.42,-0.20,-0.21,0.01,0.05,0.98,
2.002,0.42,-0.20,-0.21,0.01,0.05,0.98,
2.003,0.38,-0.24,-0.12,0.01,0.05,0.98,
2.005,0.38,-0.24,-0.12,0.01,0.05,0.99,
2.009,0.38,-0.24,-0.12,0.01,0.05,0.99,
2.01,0.35,-0.26,-0.03,0.01,0.05,0.99,
2.01,0.35,-0.26,-0.03,0.01,0.05,1.00,
2.013,0.35,-0.26,-0.03,0.01,0.05,1.00,
2.013,0.35,-0.28,0.07,0.01,0.05,1.00,
2.014,0.35,-0.28,0.07,0.01,0.05,1.00,
2.017,0.35,-0.28,0.07,0.01,0.05,1.01,
2.017,0.34,-0.27,0.16,0.01,0.05,1.01,
2.019,0.34,-0.27,0.16,0.01,0.05,1.01,
2.022,0.36,-0.26,0.22,0.01,0.05,1.01,
2.022,0.36,-0.26,0.22,0.01,0.05,1.01,
2.024,0.36,-0.26,0.22,0.01,0.05,1.01,
2.027,0.36,-0.26,0.22,0.01,0.06,1.01,
2.027,0.38,-0.25,0.26,0.01,0.06,1.01,
2.029,0.38,-0.25,0.26,0.01,0.06,1.01,
2.033,0.38,-0.25,0.26,0.02,0.06,1.01,
2.033,0.38,-0.24,0.27,0.02,0.06,1.01,
2.034,0.38,-0.24,0.27,0.02,0.06,1.01,
2.036,0.38,-0.24,0.27,0.02,0.06,1.01,
2.037,0.41,-0.20,0.29,0.02,0.06,1.01,
2.04,0.41,-0.20,0.29,0.02,0.06,1.01,
2.042,0.41,-0.20,0.29,0.02,0.06,1.01,
2.042,0.44,-0.19,0.28,0.02,0.06,1.01,
2.044,0.44,-0.19,0.28,0.03,0.06,1.01,
2.047,0.44,-0.19,0.28,0.03,0.06,1.00,
2.047,0.49,-0.18,0.26,0.03,0.06,1.00,
2.049,0.49,-0.18,0.26,0.03,0.06,1.00,
2.051,0.49,-0.18,0.26,0.03,0.06,1.00,
2.051,0.54,-0.19,0.22,0.03,0.06,1.00,
2.054,0.54,-0.19,0.22,0.03,0.06,0.99,
2.057,0.54,-0.19,0.22,0.03,0.06,0.99,
2.057,0.53,-0.18,0.13,0.03,0.06,0.99,
2.058,0.53,-0.18,0.13,0.03,0.06,0.99,
2.061,0.53,-0.18,0.13,0.03,0.06,0.98,
2.061,0.54,-0.20,0.07,0.03,0.06,0.98,
2.063,0.54,-0.20,0.07,0.03,0.06,0.98,
2.066,0.54,-0.20,0.07,0.02,0.06,0.98,
2.066,0.53,-0.22,0.04,0.02,0.06,0.98,
2.068,0.53,-0.22,0.04,0.02,0.05,0.98,
2.071,0.53,-0.22,0.04,0.01,0.06,0.98,
2.071,0.50,-0.23,0.00,0.01,0.06,0.98,
2.074,0.50,-0.23,0.00,0.01,0.05,0.98,
2.076,0.50,-0.23,0.00,0.01,0.06,0.98,
2.076,0.40,-0.25,-0.02,0.01,0.06,0.98,
2.078,0.40,-0.25,-0.02,0.00,0.05,0.98,
2.08,0.40,-0.25,-0.02,-0.00,0.05,0.98,
2.081,0.33,-0.25,-0.04,-0.00,0.05,0.98,
2.083,0.33,-0.25,-0.04,-0.01,0.05,0.99,
2.085,0.33,-0.25,-0.04,-0.01,0.05,0.99,
2.086,0.22,-0.26,-0.00,-0.01,0.05,0.99,
2.088,0.22,-0.26,-0.00,-0.01,0.05,0.99,
2.095,0.22,-0.26,-0.00,-0.01,0.05,0.99,
2.095,0.14,-0.30,0.03,-0.01,0.05,0.99,
2.096,0.14,-0.30,0.03,-0.01,0.05,0.99,
2.096,0.14,-0.30,0.03,-0.01,0.05,0.99,
2.096,0.11,-0.32,0.04,-0.01,0.05,0.99,
2.097,0.11,-0.32,0.04,-0.01,0.04,0.99,
2.1,0.11,-0.32,0.04,0.00,0.04,0.99,
2.1,0.16,-0.33,0.06,0.00,0.04,0.99,
2.102,0.16,-0.33,0.06,0.01,0.04,0.99,
2.105,0.16,-0.33,0.06,0.01,0.04,0.99,
2.105,0.22,-0.35,0.09,0.01,0.04,0.99,
2.108,0.22,-0.35,0.09,0.02,0.04,1.00,
2.11,0.22,-0.35,0.09,0.02,0.04,1.00,
2.111,0.33,-0.35,0.11,0.02,0.04,1.00,
2.113,0.33,-0.35,0.11,0.03,0.04,1.00,
2.115,0.33,-0.35,0.11,0.03,0.04,1.00,
2.115,0.44,-0.39,0.16,0.03,0.04,1.00,
2.117,0.44,-0.39,0.16,0.04,0.03,1.00,
2.12,0.44,-0.39,0.16,0.04,0.03,1.00,
2.12,0.56,-0.41,0.16,0.04,0.03,1.00,
2.123,0.56,-0.41,0.16,0.05,0.03,1.00,
2.125,0.56,-0.41,0.16,0.05,0.03,1.00,
2.126,0.64,-0.46,0.15,0.05,0.03,1.00,
2.127,0.64,-0.46,0.15,0.05,0.03,1.00,
2.129,0.64,-0.46,0.15,0.05,0.03,0.99,
2.13,0.70,-0.48,0.13,0.05,0.03,0.99,
2.133,0.70,-0.48,0.13,0.05,0.03,0.99,
2.134,0.70,-0.48,0.13,0.05,0.03,0.99,
2.135,0.72,-0.49,0.11,0.05,0.03,0.99,
2.137,0.72,-0.49,0.11,0.05,0.03,0.99,
2.14,0.72,-0.49,0.11,0.05,0.03,0.99,
2.14,0.72,-0.49,0.09,0.05,0.03,0.99,
2.142,0.72,-0.49,0.09,0.05,0.03,0.99,
2.144,0.72,-0.49,0.09,0.04,0.03,0.99,
2.144,0.69,-0.47,0.07,0.04,0.03,0.99,
2.146,0.69,-0.47,0.07,0.04,0.03,0.99,
2.149,0.69,-0.47,0.07,0.03,0.03,0.99,
2.149,0.64,-0.45,0.04,0.03,0.03,0.99,
2.153,0.64,-0.45,0.04,0.03,0.03,0.98,
2.154,0.64,-0.45,0.04,0.02,0.03,0.98,
2.154,0.52,-0.43,0.02,0.02,0.03,0.98,
2.156,0.52,-0.43,0.02,0.01,0.03,0.98,
2.159,0.52,-0.43,0.02,0.01,0.03,0.98,
2.159,0.41,-0.44,-0.00,0.01,0.03,0.98,
2.161,0.41,-0.44,-0.00,0.00,0.03,0.98,
2.164,0.41,-0.44,-0.00,0.00,0.03,0.98,
2.164,0.27,-0.46,-0.03,0.00,0.03,0.98,
2.166,0.27,-0.46,-0.03,0.00,0.03,0.98,
2.168,0.27,-0.46,-0.03,0.00,0.03,0.97,
2.169,0.19,-0.47,-0.07,0.00,0.03,0.97,
2.171,0.19,-0.47,-0.07,0.00,0.03,0.97,
2.179,0.19,-0.47,-0.07,0.01,0.03,0.97,
2.179,0.18,-0.47,-0.08,0.01,0.03,0.97,
2.179,0.18,-0.47,-0.08,0.01,0.03,0.97,
2.18,0.18,-0.47,-0.08,0.01,0.03,0.97,
2.18,0.20,-0.43,-0.09,0.01,0.03,0.97,
2.181,0.20,-0.43,-0.09,0.02,0.03,0.97,
2.183,0.20,-0.43,-0.09,0.02,0.03,0.97,
2.183,0.25,-0.42,-0.11,0.02,0.03,0.97,
2.186,0.25,-0.42,-0.11,0.02,0.03,0.98,
2.189,0.25,-0.42,-0.11,0.03,0.03,0.98,
2.19,0.33,-0.42,-0.09,0.03,0.03,0.98,
2.191,0.33,-0.42,-0.09,0.03,0.03,0.98,
2.194,0.33,-0.42,-0.09,0.04,0.03,0.98,
2.194,0.40,-0.42,-0.07,0.04,0.03,0.98,
2.196,0.40,-0.42,-0.07,0.04,0.03,0.98,
2.198,0.40,-0.42,-0.07,0.04,0.02,0.98,
2.198,0.49,-0.43,-0.04,0.04,0.02,0.98,
2.2,0.49,-0.43,-0.04,0.05,0.02,0.98,
2.203,0.49,-0.43,-0.04,0.05,0.02,0.98,
2.203,0.55,-0.48,-0.02,0.05,0.02,0.98,
2.206,0.55,-0.48,-0.02,0.05,0.02,0.98,
2.208,0.55,-0.48,-0.02,0.05,0.02,0.98,
2.208,0.59,-0.50,-0.02,0.05,0.02,0.98,
2.211,0.59,-0.50,-0.02,0.05,0.02,0.98,
2.214,0.59,-0.50,-0.02,0.05,0.02,0.98,
2.214,0.60,-0.54,-0.02,0.05,0.02,0.98,
2.215,0.60,-0.54,-0.02,0.05,0.02,0.98,
2.218,0.60,-0.54,-0.03,0.05,0.02,0.98,
2.22,0.60,-0.54,-0.03,0.04,0.02,0.98,
2.22,0.60,-0.54,-0.03,0.04,0.02,0.98,
2.223,0.60,-0.54,-0.03,0.04,0.02,0.97,
2.224,0.57,-0.54,-0.05,0.04,0.02,0.97,
2.225,0.57,-0.54,-0.05,0.03,0.02,0.97,
2.228,0.57,-0.54,-0.05,0.03,0.02,0.97,
2.228,0.50,-0.54,-0.08,0.03,0.02,0.97,
2.23,0.50,-0.54,-0.08,0.02,0.02,0.97,
2.234,0.50,-0.54,-0.08,0.02,0.02,0.97,
2.234,0.43,-0.53,-0.10,0.02,0.02,0.97,
2.235,0.43,-0.53,-0.10,0.01,0.02,0.96,
2.237,0.34,-0.53,-0.13,0.01,0.02,0.96,
2.238,0.34,-0.53,-0.13,0.01,0.02,0.96,
2.24,0.34,-0.53,-0.13,0.00,0.02,0.96,
2.243,0.34,-0.53,-0.13,-0.00,0.02,0.96,
2.248,0.22,-0.54,-0.19,-0.00,0.02,0.96,
2.248,0.22,-0.54,-0.19,-0.01,0.03,0.96,
2.248,0.22,-0.54,-0.19,-0.01,0.03,0.96,
2.249,0.11,-0.51,-0.18,-0.01,0.03,0.96,
2.249,0.11,-0.51,-0.18,-0.01,0.03,0.96,
2.253,0.11,-0.51,-0.18,-0.02,0.03,0.97,
2.254,0.02,-0.49,-0.19,-0.02,0.03,0.97,
2.254,0.02,-0.49,-0.19,-0.02,0.03,0.97,
2.257,0.02,-0.49,-0.19,-0.02,0.03,0.97,
2.257,-0.03,-0.46,-0.16,-0.02,0.03,0.97,
2.26,-0.03,-0.46,-0.16,-0.02,0.03,0.98,
2.262,-0.03,-0.46,-0.16,-0.03,0.03,0.98,
2.262,-0.07,-0.45,-0.11,-0.03,0.03,0.98,
2.264,-0.07,-0.45,-0.11,-0.03,0.03,0.98,
2.267,-0.07,-0.45,-0.11,-0.03,0.03,0.99,
2.267,-0.10,-0.41,-0.04,-0.03,0.03,0.99,
2.269,-0.10,-0.41,-0.04,-0.03,0.04,0.99,
2.279,-0.10,-0.41,-0.04,-0.03,0.04,1.00,
2.279,-0.11,-0.41,0.05,-0.03,0.04,1.00,
2.279,-0.11,-0.41,0.05,-0.03,0.04,1.00,
2.28,-0.11,-0.41,0.05,-0.03,0.03,1.01,
2.28,-0.12,-0.37,0.15,-0.03,0.03,1.01,
2.28,-0.12,-0.37,0.15,-0.03,0.04,1.01,
2.281,-0.12,-0.37,0.15,-0.02,0.04,1.01,
2.282,-0.10,-0.38,0.22,-0.02,0.04,1.01,
2.284,-0.10,-0.38,0.22,-0.02,0.04,1.01,
2.286,-0.10,-0.38,0.22,-0.02,0.04,1.02,
2.287,-0.09,-0.37,0.29,-0.02,0.04,1.02,
2.29,-0.09,-0.37,0.29,-0.02,0.04,1.02,
2.291,-0.09,-0.37,0.29,-0.01,0.04,1.02,
2.291,-0.05,-0.33,0.32,-0.01,0.04,1.02,
2.294,-0.05,-0.33,0.32,-0.01,0.04,1.02,
2.296,-0.05,-0.33,0.32,-0.01,0.04,1.01,
2.297,0.00,-0.32,0.33,-0.01,0.04,1.01,
2.298,0.00,-0.32,0.33,-0.01,0.04,1.01,
2.301,0.00,-0.32,0.33,-0.01,0.04,1.01,
2.301,0.07,-0.30,0.31,-0.01,0.04,1.01,
2.303,0.07,-0.30,0.31,-0.00,0.04,1.01,
2.306,0.07,-0.30,0.31,-0.01,0.04,1.00,
2.307,0.09,-0.32,0.28,-0.01,0.04,1.00,
2.308,0.09,-0.32,0.28,-0.00,0.03,1.00,
2.311,0.09,-0.32,0.28,-0.00,0.03,0.99,
2.311,0.09,-0.35,0.21,-0.00,0.03,0.99,
2.314,0.09,-0.35,0.21,-0.01,0.02,0.99,
2.316,0.09,-0.35,0.21,-0.01,0.02,0.98,
2.316,0.09,-0.42,0.12,-0.01,0.02,0.98,
2.318,0.09,-0.42,0.12,-0.01,0.02,0.98,
2.32,0.09,-0.42,0.12,-0.01,0.02,0.98,
2.321,0.07,-0.50,0.03,-0.01,0.02,0.98,
2.323,0.07,-0.50,0.03,-0.01,0.02,0.97,
2.326,0.07,-0.50,0.03,-0.01,0.01,0.97,
2.326,0.06,-0.54,-0.06,-0.01,0.01,0.97,
2.328,0.06,-0.54,-0.06,-0.01,0.01,0.96,
2.331,0.06,-0.54,-0.06,-0.01,0.01,0.96,
2.331,0.07,-0.58,-0.13,-0.01,0.01,0.96,
2.333,0.07,-0.58,-0.13,-0.01,0.01,0.96,
2.335,0.07,-0.58,-0.13,-0.01,0.01,0.96,
2.336,0.06,-0.60,-0.20,-0.01,0.01,0.96,
2.338,0.06,-0.60,-0.20,-0.01,0.01,0.96,
2.34,0.06,-0.60,-0.20,-0.01,0.01,0.96,
2.341,0.05,-0.61,-0.23,-0.01,0.01,0.96,
2.343,0.05,-0.61,-0.23,-0.01,0.01,0.96,
2.345,0.05,-0.61,-0.23,-0.02,0.02,0.96,
2.345,0.04,-0.60,-0.24,-0.02,0.02,0.96,
2.348,0.04,-0.60,-0.24,-0.02,0.02,0.96,
2.35,0.04,-0.60,-0.24,-0.02,0.02,0.96,
2.35,-0.00,-0.57,-0.24,-0.02,0.02,0.96,
2.354,-0.00,-0.57,-0.24,-0.03,0.02,0.96,
2.357,-0.00,-0.57,-0.24,-0.03,0.03,0.96,
2.357,-0.06,-0.54,-0.22,-0.03,0.03,0.96,
2.358,-0.06,-0.54,-0.22,-0.03,0.03,0.96,
2.36,-0.06,-0.54,-0.22,-0.03,0.04,0.96,
2.36,-0.10,-0.47,-0.20,-0.03,0.04,0.96,
2.362,-0.10,-0.47,-0.20,-0.03,0.04,0.97,
2.365,-0.10,-0.47,-0.20,-0.03,0.04,0.97,
2.365,-0.12,-0.39,-0.18,-0.03,0.04,0.97,
2.367,-0.12,-0.39,-0.18,-0.03,0.05,0.97,
2.369,-0.12,-0.39,-0.18,-0.04,0.05,0.97,
2.37,-0.14,-0.33,-0.15,-0.04,0.05,0.97,
2.373,-0.14,-0.33,-0.15,-0.04,0.06,0.97,
2.375,-0.14,-0.33,-0.15,-0.04,0.06,0.97,
2.375,-0.15,-0.23,-0.11,-0.04,0.06,0.97,
2.377,-0.15,-0.23,-0.11,-0.04,0.06,0.98,
2.379,-0.15,-0.23,-0.11,-0.04,0.06,0.98,
2.38,-0.18,-0.18,-0.07,-0.04,0.06,0.98,
2.382,-0.18,-0.18,-0.07,-0.04,0.06,0.98,
2.384,-0.18,-0.18,-0.07,-0.04,0.06,0.98,
2.385,-0.19,-0.18,-0.05,-0.04,0.06,0.98,
2.387,-0.19,-0.18,-0.05,-0.04,0.05,0.98,
2.395,-0.19,-0.18,-0.05,-0.04,0.05,0.98,
2.395,-0.21,-0.20,-0.03,-0.04,0.05,0.98,
2.395,-0.21,-0.20,-0.03,-0.04,0.05,0.98,
2.396,-0.21,-0.20,-0.03,-0.04,0.05,0.98,
2.396,-0.24,-0.21,-0.03,-0.04,0.05,0.98,
2.396,-0.24,-0.21,-0.03,-0.04,0.05,0.98,
2.399,-0.24,-0.21,-0.03,-0.04,0.04,0.97,
2.399,-0.22,-0.25,-0.04,-0.04,0.04,0.97,
2.401,-0.22,-0.25,-0.04,-0.03,0.04,0.97,
2.404,-0.19,-0.30,-0.06,-0.03,0.04,0.97,
2.404,-0.19,-0.30,-0.06,-0.03,0.04,0.97,
2.407,-0.19,-0.30,-0.06,-0.03,0.04,0.97,
2.409,-0.19,-0.30,-0.06,-0.03,0.04,0.97,
2.409,-0.15,-0.31,-0.10,-0.03,0.04,0.97,
2.411,-0.15,-0.31,-0.10,-0.03,0.04,0.97,
2.414,-0.15,-0.31,-0.10,-0.02,0.04,0.97,
2.414,-0.10,-0.32,-0.14,-0.02,0.04,0.97,
2.416,-0.10,-0.32,-0.14,-0.02,0.04,0.97,
2.418,-0.10,-0.32,-0.14,-0.02,0.04,0.97,
2.419,-0.08,-0.32,-0.13,-0.02,0.04,0.97,
2.421,-0.08,-0.32,-0.13,-0.03,0.04,0.97,
2.423,-0.08,-0.32,-0.13,-0.03,0.04,0.97,
2.424,-0.07,-0.33,-0.13,-0.03,0.04,0.97,
2.426,-0.07,-0.33,-0.13,-0.03,0.04,0.97,
2.428,-0.07,-0.33,-0.13,-0.03,0.04,0.97,
2.428,-0.10,-0.35,-0.13,-0.03,0.04,0.97,
2.431,-0.10,-0.35,-0.13,-0.03,0.04,0.97,
2.434,-0.10,-0.35,-0.13,-0.04,0.04,0.96,
2.434,-0.16,-0.34,-0.13,-0.04,0.04,0.96,
2.435,-0.16,-0.34,-0.13,-0.04,0.04,0.96,
2.438,-0.16,-0.34,-0.13,-0.04,0.05,0.96,
2.439,-0.20,-0.33,-0.15,-0.04,0.05,0.96,
2.44,-0.20,-0.33,-0.15,-0.04,0.05,0.97,
2.443,-0.20,-0.33,-0.15,-0.04,0.05,0.97,
2.443,-0.23,-0.25,-0.15,-0.04,0.05,0.97,
2.445,-0.23,-0.25,-0.15,-0.04,0.05,0.97,
2.448,-0.23,-0.25,-0.15,-0.04,0.05,0.97,
2.448,-0.25,-0.20,-0.13,-0.04,0.05,0.97,
2.451,-0.25,-0.20,-0.13,-0.05,0.06,0.97,
2.454,-0.29,-0.18,-0.11,-0.05,0.06,0.97,
2.454,-0.29,-0.18,-0.11,-0.05,0.06,0.98,
2.456,-0.29,-0.18,-0.11,-0.05,0.06,0.98,
2.458,-0.29,-0.18,-0.11,-0.05,0.06,0.98,
2.458,-0.34,-0.12,-0.06,-0.05,0.06,0.98,
2.46,-0.34,-0.12,-0.06,-0.05,0.06,0.98,
2.463,-0.34,-0.12,-0.06,-0.06,0.06,0.99,
2.463,-0.35,-0.12,0.01,-0.06,0.06,0.99,
2.465,-0.35,-0.12,0.01,-0.06,0.06,0.99,
2.468,-0.35,-0.12,0.01,-0.06,0.06,1.00,
2.468,-0.39,-0.12,0.06,-0.06,0.06,1.00,
2.47,-0.39,-0.12,0.06,-0.06,0.05,1.00,
2.474,-0.43,-0.12,0.15,-0.06,0.05,1.00,
2.474,-0.43,-0.12,0.15,-0.07,0.05,1.01,
2.475,-0.43,-0.12,0.15,-0.07,0.05,1.01,
2.477,-0.43,-0.12,0.15,-0.07,0.05,1.01,
2.478,-0.47,-0.16,0.24,-0.07,0.05,1.01,
2.48,-0.47,-0.16,0.24,-0.07,0.04,1.02,
2.482,-0.47,-0.16,0.24,-0.07,0.04,1.02,
2.482,-0.49,-0.20,0.32,-0.07,0.04,1.02,
2.485,-0.49,-0.20,0.32,-0.07,0.04,1.02,
2.487,-0.49,-0.20,0.32,-0.06,0.04,1.02,
2.487,-0.50,-0.26,0.37,-0.06,0.04,1.02,
2.492,-0.50,-0.26,0.37,-0.06,0.04,1.02,
2.493,-0.50,-0.26,0.37,-0.06,0.03,1.02,
2.493,-0.47,-0.31,0.38,-0.06,0.03,1.02,
2.494,-0.47,-0.31,0.38,-0.06,0.03,1.02,
2.497,-0.47,-0.31,0.38,-0.06,0.03,1.02,
2.497,-0.44,-0.33,0.40,-0.06,0.03,1.02,
2.499,-0.44,-0.33,0.40,-0.05,0.03,1.02,
2.502,-0.44,-0.33,0.40,-0.05,0.02,1.02,
2.502,-0.38,-0.38,0.40,-0.05,0.02,1.02,
2.504,-0.38,-0.38,0.40,-0.05,0.02,1.02,
2.506,-0.38,-0.38,0.40,-0.04,0.02,1.02,
2.507,-0.33,-0.40,0.38,-0.04,0.02,1.02,
2.509,-0.33,-0.40,0.38,-0.04,0.02,1.02,
2.511,-0.33,-0.40,0.38,-0.04,0.02,1.01,
2.511,-0.28,-0.40,0.37,-0.04,0.02,1.01,
2.514,-0.28,-0.40,0.37,-0.03,0.02,1.01,
2.516,-0.28,-0.40,0.37,-0.03,0.02,1.01,
2.516,-0.22,-0.41,0.32,-0.03,0.02,1.01,
2.519,-0.22,-0.41,0.32,-0.03,0.02,1.01,
2.521,-0.22,-0.41,0.32,-0.03,0.02,1.01,
2.522,-0.19,-0.41,0.29,-0.03,0.02,1.01,
2.523,-0.19,-0.41,0.29,-0.02,0.03,1.00,
2.526,-0.19,-0.41,0.29,-0.02,0.03,1.00,
2.526,-0.15,-0.40,0.22,-0.02,0.03,1.00,
2.528,-0.15,-0.40,0.22,-0.03,0.03,1.00,
2.531,-0.15,-0.40,0.22,-0.03,0.03,1.00,
2.531,-0.12,-0.35,0.20,-0.03,0.03,1.00,
2.533,-0.12,-0.35,0.20,-0.03,0.03,1.00,
2.536,-0.12,-0.35,0.20,-0.03,0.04,1.00,
2.537,-0.15,-0.30,0.17,-0.03,0.04,1.00,
2.538,-0.15,-0.30,0.17,-0.03,0.04,1.00,
2.541,-0.15,-0.30,0.17,-0.04,0.04,1.00,
2.541,-0.20,-0.25,0.15,-0.04,0.04,1.00,
2.544,-0.20,-0.25,0.15,-0.04,0.04,1.00,
2.546,-0.20,-0.25,0.15,-0.05,0.04,1.00,
2.546,-0.28,-0.21,0.13,-0.05,0.04,1.00,
2.548,-0.28,-0.21,0.13,-0.05,0.04,1.00,
2.551,-0.28,-0.21,0.13,-0.06,0.04,0.99,
2.551,-0.36,-0.19,0.12,-0.06,0.04,0.99,
2.554,-0.36,-0.19,0.12,-0.06,0.04,0.99,
2.556,-0.36,-0.19,0.12,-0.07,0.04,0.99,
2.556,-0.45,-0.16,0.10,-0.07,0.04,0.99,
2.558,-0.45,-0.16,0.10,-0.07,0.04,0.99,
2.561,-0.45,-0.16,0.10,-0.07,0.04,0.99,
2.561,-0.54,-0.16,0.08,-0.07,0.04,0.99,
2.563,-0.54,-0.16,0.08,-0.07,0.04,1.00,
2.565,-0.54,-0.16,0.08,-0.08,0.04,1.00,
2.566,-0.62,-0.15,0.09,-0.08,0.04,1.00,
2.568,-0.62,-0.15,0.09,-0.08,0.04,1.00,
2.577,-0.66,-0.16,0.12,-0.08,0.04,1.00,
2.578,-0.66,-0.16,0.12,-0.08,0.04,1.00,
2.578,-0.66,-0.16,0.12,-0.08,0.04,1.00,
2.578,-0.68,-0.19,0.12,-0.08,0.04,1.00,
2.578,-0.68,-0.19,0.12,-0.08,0.04,1.00,
2.579,-0.68,-0.19,0.12,-0.08,0.04,1.00,
2.58,-0.68,-0.19,0.12,-0.07,0.04,1.00,
2.58,-0.68,-0.23,0.12,-0.07,0.04,1.00,
2.582,-0.68,-0.23,0.12,-0.07,0.04,1.00,
2.585,-0.68,-0.23,0.12,-0.07,0.04,1.01,
2.586,-0.65,-0.24,0.17,-0.07,0.04,1.01,
2.588,-0.65,-0.24,0.17,-0.07,0.03,1.01,
2.59,-0.65,-0.24,0.17,-0.06,0.03,1.01,
2.59,-0.59,-0.25,0.20,-0.06,0.03,1.01,
2.593,-0.59,-0.25,0.20,-0.06,0.03,1.01,
2.595,-0.59,-0.25,0.20,-0.06,0.03,1.01,
2.595,-0.53,-0.26,0.20,-0.06,0.03,1.01,
2.597,-0.53,-0.26,0.20,-0.06,0.03,1.01,
2.6,-0.53,-0.26,0.20,-0.06,0.03,1.00,
2.6,-0.49,-0.28,0.20,-0.06,0.03,1.00,
2.602,-0.49,-0.28,0.20,-0.05,0.03,1.00,
2.605,-0.49,-0.28,0.20,-0.05,0.03,1.00,
2.606,-0.46,-0.30,0.18,-0.05,0.03,1.00,
2.607,-0.46,-0.30,0.18,-0.05,0.03,1.00,
2.609,-0.46,-0.30,0.18,-0.05,0.03,1.00,
2.61,-0.40,-0.29,0.18,-0.05,0.03,1.00,
2.613,-0.40,-0.29,0.18,-0.05,0.03,1.00,
2.615,-0.40,-0.29,0.18,-0.05,0.03,0.99,
2.615,-0.39,-0.28,0.14,-0.05,0.03,0.99,
2.617,-0.39,-0.28,0.14,-0.05,0.03,0.99,
2.619,-0.37,-0.28,0.08,-0.05,0.03,0.99,
2.62,-0.37,-0.28,0.08,-0.05,0.03,0.99,
2.622,-0.37,-0.28,0.08,-0.05,0.03,0.98,
2.625,-0.37,-0.28,0.08,-0.05,0.03,0.98,
2.625,-0.36,-0.31,0.02,-0.05,0.03,0.98,
2.627,-0.36,-0.31,0.02,-0.05,0.03,0.97,
2.629,-0.36,-0.31,0.02,-0.05,0.03,0.97,
2.629,-0.36,-0.31,-0.05,-0.05,0.03,0.97,
2.631,-0.36,-0.31,-0.05,-0.05,0.03,0.97,
2.634,-0.36,-0.31,-0.05,-0.05,0.03,0.96,
2.634,-0.38,-0.30,-0.12,-0.05,0.03,0.96,
2.636,-0.38,-0.30,-0.12,-0.05,0.03,0.96,
2.639,-0.38,-0.30,-0.12,-0.05,0.03,0.96,
2.639,-0.40,-0.30,-0.19,-0.05,0.03,0.96,
2.641,-0.40,-0.30,-0.19,-0.05,0.03,0.96,
2.644,-0.40,-0.30,-0.19,-0.06,0.04,0.95,
2.644,-0.42,-0.27,-0.24,-0.06,0.04,0.95,
2.646,-0.42,-0.27,-0.24,-0.06,0.04,0.95,
2.649,-0.46,-0.23,-0.31,-0.06,0.04,0.95,
2.649,-0.46,-0.23,-0.31,-0.06,0.04,0.95,
2.651,-0.46,-0.23,-0.31,-0.06,0.04,0.95,
2.655,-0.46,-0.23,-0.31,-0.07,0.05,0.95,
2.655,-0.52,-0.19,-0.34,-0.07,0.05,0.95,
2.656,-0.52,-0.19,-0.34,-0.07,0.04,0.95,
2.659,-0.57,-0.14,-0.34,-0.07,0.04,0.95,
2.659,-0.57,-0.14,-0.34,-0.07,0.05,0.95,
2.661,-0.57,-0.14,-0.34,-0.07,0.05,0.96,
2.663,-0.57,-0.14,-0.34,-0.08,0.05,0.96,
2.664,-0.60,-0.13,-0.31,-0.08,0.05,0.96,
2.666,-0.60,-0.13,-0.31,-0.08,0.05,0.96,
2.668,-0.60,-0.13,-0.31,-0.08,0.05,0.96,
2.668,-0.66,-0.08,-0.26,-0.08,0.05,0.96,
2.671,-0.66,-0.08,-0.26,-0.09,0.05,0.97,
2.674,-0.72,-0.07,-0.21,-0.09,0.05,0.97,
2.674,-0.72,-0.07,-0.21,-0.09,0.05,0.97,
2.675,-0.72,-0.07,-0.21,-0.09,0.05,0.97,
2.678,-0.72,-0.07,-0.21,-0.09,0.05,0.98,
2.678,-0.77,-0.06,-0.15,-0.09,0.05,0.98,
2.68,-0.77,-0.06,-0.15,-0.09,0.05,0.98,
2.683,-0.77,-0.06,-0.15,-0.09,0.05,0.98,
2.683,-0.77,-0.08,-0.09,-0.09,0.05,0.98,
2.685,-0.77,-0.08,-0.09,-0.09,0.05,0.98,
2.694,-0.77,-0.08,-0.09,-0.08,0.05,0.98,
2.694,-0.77,-0.06,-0.05,-0.08,0.05,0.98,
2.695,-0.77,-0.06,-0.05,-0.08,0.05,0.98,
2.695,-0.77,-0.06,-0.05,-0.08,0.05,0.98,
2.695,-0.74,-0.07,-0.02,-0.08,0.05,0.98,
2.695,-0.74,-0.07,-0.02,-0.07,0.05,0.98,
2.698,-0.74,-0.07,-0.02,-0.07,0.05,0.98,
2.698,-0.67,-0.08,-0.03,-0.07,0.05,0.98,
2.7,-0.67,-0.08,-0.03,-0.07,0.05,0.97,
2.703,-0.63,-0.08,-0.06,-0.07,0.05,0.97,
2.703,-0.63,-0.08,-0.06,-0.06,0.05,0.97,
2.708,-0.63,-0.08,-0.06,-0.06,0.05,0.97,
2.708,-0.63,-0.08,-0.06,-0.06,0.05,0.97,
2.709,-0.56,-0.10,-0.09,-0.06,0.05,0.97,
2.71,-0.56,-0.10,-0.09,-0.05,0.05,0.96,
2.713,-0.56,-0.10,-0.09,-0.05,0.05,0.96,
2.714,-0.48,-0.11,-0.15,-0.05,0.05,0.96,
2.714,-0.48,-0.11,-0.15,-0.05,0.04,0.96,
2.717,-0.43,-0.12,-0.22,-0.05,0.04,0.96,
2.717,-0.43,-0.12,-0.22,-0.05,0.04,0.96,
2.719,-0.43,-0.12,-0.22,-0.05,0.04,0.95,
2.722,-0.43,-0.12,-0.22,-0.04,0.04,0.95,
2.723,-0.38,-0.16,-0.27,-0.04,0.04,0.95,
2.725,-0.38,-0.16,-0.27,-0.04,0.04,0.95,
2.727,-0.38,-0.16,-0.27,-0.04,0.04,0.95,
2.727,-0.35,-0.17,-0.31,-0.04,0.04,0.95,
2.729,-0.35,-0.17,-0.31,-0.04,0.04,0.95,
2.733,-0.35,-0.17,-0.31,-0.04,0.04,0.95,
2.736,-0.32,-0.19,-0.32,-0.04,0.04,0.95,
2.736,-0.32,-0.19,-0.32,-0.04,0.04,0.95,
2.738,-0.32,-0.19,-0.32,-0.04,0.04,0.95,
2.738,-0.31,-0.20,-0.31,-0.04,0.04,0.95,
2.739,-0.31,-0.20,-0.31,-0.05,0.04,0.96,
2.742,-0.31,-0.20,-0.31,-0.05,0.04,0.96,
2.742,-0.32,-0.21,-0.28,-0.05,0.04,0.96,
2.744,-0.32,-0.21,-0.28,-0.05,0.04,0.96,
2.747,-0.36,-0.19,-0.24,-0.05,0.04,0.96,
2.747,-0.36,-0.19,-0.24,-0.06,0.04,0.96,
2.749,-0.36,-0.19,-0.24,-0.06,0.04,0.97,
2.751,-0.36,-0.19,-0.24,-0.06,0.04,0.97,
2.752,-0.42,-0.18,-0.20,-0.06,0.04,0.97,
2.754,-0.42,-0.18,-0.20,-0.06,0.04,0.97,
2.756,-0.42,-0.18,-0.20,-0.06,0.04,0.97,
2.757,-0.46,-0.17,-0.15,-0.06,0.04,0.97,
2.759,-0.46,-0.17,-0.15,-0.07,0.04,0.97,
2.761,-0.46,-0.17,-0.15,-0.07,0.04,0.98,
2.761,-0.49,-0.16,-0.09,-0.07,0.04,0.98,
2.763,-0.49,-0.16,-0.09,-0.07,0.04,0.98,
2.766,-0.49,-0.16,-0.09,-0.07,0.05,0.98,
2.766,-0.52,-0.15,-0.05,-0.07,0.05,0.98,
2.768,-0.52,-0.15,-0.05,-0.07,0.05,0.98,
2.771,-0.52,-0.15,-0.05,-0.07,0.05,0.99,
2.772,-0.56,-0.11,-0.00,-0.07,0.05,0.99,
2.774,-0.56,-0.11,-0.00,-0.07,0.05,0.99,
2.776,-0.56,-0.11,-0.00,-0.07,0.05,0.99,
2.777,-0.55,-0.06,0.04,-0.07,0.05,0.99,
2.778,-0.55,-0.06,0.04,-0.07,0.06,0.99,
2.781,-0.55,-0.06,0.04,-0.06,0.06,0.99,
2.781,-0.52,-0.03,0.07,-0.06,0.06,0.99,
2.783,-0.52,-0.03,0.07,-0.06,0.06,0.99,
2.786,-0.52,-0.03,0.07,-0.06,0.06,0.99,
2.786,-0.50,0.02,0.08,-0.06,0.06,0.99,
2.793,-0.50,0.02,0.08,-0.05,0.06,0.99,
2.794,-0.50,0.02,0.08,-0.05,0.06,0.99,
2.794,-0.44,0.02,0.07,-0.05,0.06,0.99,
2.794,-0.44,0.02,0.07,-0.05,0.06,0.99,
2.795,-0.44,0.02,0.07,-0.05,0.06,0.99,
2.796,-0.38,0.03,0.07,-0.05,0.06,0.99,
2.798,-0.38,0.03,0.07,-0.05,0.06,0.98,
2.801,-0.38,0.03,0.07,-0.04,0.06,0.98,
2.801,-0.35,0.03,0.05,-0.04,0.06,0.98,
2.803,-0.35,0.03,0.05,-0.04,0.06,0.98,
2.805,-0.35,0.03,0.05,-0.04,0.06,0.98,
2.806,-0.30,0.03,0.02,-0.04,0.06,0.98,
2.808,-0.30,0.03,0.02,-0.04,0.06,0.98,
2.81,-0.30,0.03,0.02,-0.04,0.06,0.98,
2.81,-0.24,0.04,-0.00,-0.04,0.06,0.98,
2.813,-0.24,0.04,-0.00,-0.03,0.06,0.98,
2.815,-0.24,0.04,-0.00,-0.03,0.06,0.98,
2.815,-0.23,0.06,-0.02,-0.03,0.06,0.98,
2.817,-0.23,0.06,-0.02,-0.04,0.07,0.98,
2.821,-0.23,0.06,-0.02,-0.03,0.07,0.97,
2.822,-0.20,0.07,-0.05,-0.03,0.07,0.97,
2.822,-0.20,0.07,-0.05,-0.04,0.07,0.97,
2.825,-0.20,0.07,-0.05,-0.04,0.07,0.97,
2.825,-0.21,0.11,-0.06,-0.04,0.07,0.97,
2.827,-0.21,0.11,-0.06,-0.04,0.07,0.97,
2.83,-0.21,0.11,-0.06,-0.04,0.07,0.97,
2.83,-0.23,0.12,-0.08,-0.04,0.07,0.97,
2.833,-0.23,0.12,-0.08,-0.04,0.07,0.97,
2.835,-0.23,0.12,-0.08,-0.04,0.07,0.98,
2.835,-0.26,0.14,-0.07,-0.04,0.07,0.98,
2.837,-0.26,0.14,-0.07,-0.04,0.07,0.98,
2.84,-0.26,0.14,-0.07,-0.04,0.07,0.98,
2.84,-0.29,0.16,-0.07,-0.04,0.07,0.98,
2.842,-0.29,0.16,-0.07,-0.05,0.07,0.98,
2.845,-0.29,0.16,-0.07,-0.04,0.08,0.97,
2.845,-0.29,0.17,-0.05,-0.04,0.08,0.97,
2.847,-0.29,0.17,-0.05,-0.04,0.08,0.97,
2.849,-0.29,0.17,-0.05,-0.04,0.08,0.97,
2.85,-0.31,0.19,-0.06,-0.04,0.08,0.97,
2.854,-0.31,0.19,-0.06,-0.04,0.08,0.98,
2.855,-0.31,0.19,-0.06,-0.04,0.08,0.98,
2.855,-0.29,0.21,-0.07,-0.04,0.08,0.98,
2.857,-0.29,0.21,-0.07,-0.04,0.08,0.98,
2.859,-0.29,0.21,-0.07,-0.04,0.08,0.98,
2.86,-0.30,0.25,-0.05,-0.04,0.08,0.98,
2.862,-0.30,0.25,-0.05,-0.04,0.08,0.98,
2.864,-0.27,0.25,-0.04,-0.04,0.08,0.98,
2.864,-0.27,0.25,-0.04,-0.04,0.08,0.98,
2.866,-0.27,0.25,-0.04,-0.04,0.09,0.98,
2.869,-0.26,0.26,-0.00,-0.04,0.09,0.98,
2.869,-0.26,0.26,-0.00,-0.04,0.08,0.98,
2.871,-0.26,0.26,-0.00,-0.04,0.08,0.98,
2.874,-0.26,0.26,-0.00,-0.03,0.08,0.98,
2.874,-0.24,0.26,0.01,-0.03,0.08,0.98,
2.876,-0.24,0.26,0.01,-0.03,0.08,0.98,
2.879,-0.24,0.26,0.01,-0.03,0.08,0.98,
2.879,-0.20,0.23,0.00,-0.03,0.08,0.98,
2.881,-0.20,0.23,0.00,-0.03,0.08,0.98,
2.884,-0.20,0.23,0.00,-0.02,0.08,0.98,
2.884,-0.16,0.21,0.00,-0.02,0.08,0.98,
2.886,-0.16,0.21,0.00,-0.02,0.08,0.98,
2.894,-0.16,0.21,0.00,-0.02,0.08,0.98,
2.894,-0.10,0.19,0.01,-0.02,0.08,0.98,
2.894,-0.10,0.19,0.01,-0.02,0.08,0.98,
2.895,-0.10,0.19,0.01,-0.01,0.07,0.98,
2.895,-0.04,0.18,0.00,-0.01,0.07,0.98,
2.896,-0.04,0.18,0.00,-0.01,0.07,0.98,
2.898,-0.04,0.18,0.00,-0.01,0.07,0.98,
2.898,0.01,0.17,-0.00,-0.01,0.07,0.98,
2.9,0.01,0.17,-0.00,-0.00,0.07,0.99,
2.903,0.01,0.17,-0.00,-0.00,0.07,0.98,
2.904,0.07,0.10,0.01,-0.00,0.07,0.98,
2.905,0.07,0.10,0.01,-0.00,0.07,0.99,
2.908,0.07,0.10,0.01,-0.00,0.07,0.99,
2.908,0.11,0.09,0.03,-0.00,0.07,0.99,
2.911,0.11,0.09,0.03,0.00,0.06,0.99,
2.914,0.11,0.09,0.03,0.00,0.06,0.99,
2.914,0.15,0.08,0.06,0.00,0.06,0.99,
2.915,0.15,0.08,0.06,-0.00,0.06,1.00,
2.918,0.15,0.08,0.06,-0.00,0.06,1.00,
2.918,0.16,0.05,0.10,-0.00,0.06,1.00,
2.92,0.16,0.05,0.10,-0.00,0.06,1.00,
2.923,0.16,0.05,0.10,-0.01,0.06,1.00,
2.923,0.14,0.04,0.15,-0.01,0.06,1.00,
2.925,0.14,0.04,0.15,-0.01,0.06,1.00,
2.928,0.14,0.04,0.15,-0.01,0.06,1.01,
2.928,0.10,0.03,0.17,-0.01,0.06,1.01,
2.93,0.10,0.03,0.17,-0.01,0.06,1.01,
2.933,0.06,0.04,0.22,-0.01,0.06,1.01,
2.934,0.06,0.04,0.22,-0.02,0.06,1.01,
2.935,0.06,0.04,0.22,-0.02,0.06,1.01,
2.937,0.06,0.04,0.22,-0.02,0.06,1.01,
2.938,0.02,0.05,0.25,-0.02,0.06,1.01,
2.94,0.02,0.05,0.25,-0.02,0.06,1.01,
2.943,0.02,0.05,0.25,-0.02,0.07,1.01,
2.943,-0.02,0.06,0.25,-0.02,0.07,1.01,
2.945,-0.02,0.06,0.25,-0.02,0.07,1.00,
2.947,-0.02,0.06,0.25,-0.02,0.07,1.00,
2.947,-0.05,0.07,0.23,-0.02,0.07,1.00,
2.949,-0.05,0.07,0.23,-0.02,0.07,1.00,
2.954,-0.05,0.07,0.23,-0.02,0.07,1.00,
2.955,-0.08,0.08,0.20,-0.02,0.07,1.00,
2.956,-0.08,0.08,0.20,-0.03,0.08,1.00,
2.957,-0.08,0.08,0.20,-0.02,0.08,1.00,
2.958,-0.08,0.11,0.17,-0.02,0.08,1.00,
2.959,-0.08,0.11,0.17,-0.02,0.08,1.00,
2.962,-0.08,0.11,0.17,-0.02,0.08,0.99,
2.963,-0.08,0.17,0.14,-0.02,0.08,0.99,
2.964,-0.08,0.17,0.14,-0.02,0.08,0.99,
2.967,-0.08,0.17,0.14,-0.02,0.08,0.99,
2.967,-0.07,0.20,0.11,-0.02,0.08,0.99,
2.971,-0.07,0.20,0.11,-0.02,0.08,0.99,
2.973,-0.07,0.20,0.11,-0.02,0.08,0.99,
2.974,-0.06,0.21,0.09,-0.02,0.08,0.99,
2.974,-0.06,0.21,0.09,-0.01,0.08,0.99,
2.977,-0.06,0.21,0.09,-0.02,0.08,0.99,
2.977,-0.02,0.21,0.06,-0.02,0.08,0.99,
2.979,-0.02,0.21,0.06,-0.02,0.08,0.98,
2.981,-0.02,0.21,0.06,-0.02,0.08,0.98,
2.982,0.00,0.20,0.03,-0.02,0.08,0.98,
2.984,0.00,0.20,0.03,-0.01,0.08,0.98,
2.993,0.00,0.20,0.03,-0.01,0.07,0.98,
2.993,0.01,0.16,-0.00,-0.01,0.07,0.98,
2.994,0.01,0.16,-0.00,-0.01,0.07,0.99,
2.994,0.01,0.16,-0.00,-0.01,0.07,0.99,
2.994,0.04,0.14,-0.01,-0.01,0.07,0.99,
2.995,0.04,0.14,-0.01,-0.01,0.07,0.93,
2.996,0.04,0.14,-0.01,-0.03,0.07,0.80,
2.997,0.07,0.11,0.02,-0.03,0.07,0.80,
2.999,0.07,0.11,0.02,-0.02,0.08,0.76,
3.001,-0.02,0.08,-1.13,-0.02,0.08,0.76,
3.001,-0.02,0.08,-1.13,-0.01,0.09,0.81,
3.007,-0.02,0.08,-1.13,-0.00,0.10,0.88,
3.007,-0.02,0.08,-1.13,-0.01,0.09,0.93,
3.007,0.05,0.24,-1.95,-0.01,0.09,0.93,
3.008,0.05,0.24,-1.95,-0.02,0.08,0.94,
3.011,0.05,0.24,-1.95,-0.02,0.07,0.94,
3.011,0.16,0.31,-0.75,-0.02,0.07,0.94,
3.014,0.16,0.31,-0.75,-0.03,0.06,0.94,
3.016,0.16,0.31,-0.75,-0.02,0.06,0.94,
3.016,-0.01,0.16,-0.36,-0.02,0.06,0.94,
3.018,-0.01,0.16,-0.36,-0.02,0.05,0.95,
3.021,-0.01,0.16,-0.36,-0.02,0.05,0.97,
3.021,-0.02,0.03,-0.38,-0.02,0.05,0.97,
3.023,-0.02,0.03,-0.38,-0.03,0.05,0.99,
3.025,-0.02,0.03,-0.38,-0.04,0.05,1.01,
3.026,-0.00,-0.04,-0.20,-0.04,0.05,1.01,
3.028,-0.00,-0.04,-0.20,-0.04,0.05,1.03,
3.031,-0.00,-0.04,-0.20,-0.04,0.05,1.04,
3.031,-0.12,-0.04,0.21,-0.04,0.05,1.04,
3.033,-0.12,-0.04,0.21,-0.04,0.05,1.04,
3.035,-0.12,-0.04,0.21,-0.04,0.05,1.05,
3.035,-0.17,-0.05,0.50,-0.04,0.05,1.05,
3.038,-0.17,-0.05,0.50,-0.04,0.05,1.05,
3.04,-0.17,-0.05,0.50,-0.04,0.06,1.05,
3.04,-0.20,-0.05,0.63,-0.04,0.06,1.05,
3.043,-0.20,-0.05,0.63,-0.04,0.06,1.05,
3.045,-0.20,-0.05,0.63,-0.04,0.07,1.05,
3.045,-0.20,-0.02,0.71,-0.04,0.07,1.05,
3.048,-0.20,-0.02,0.71,-0.04,0.07,1.05,
3.05,-0.20,-0.02,0.71,-0.04,0.08,1.04,
3.05,-0.19,0.08,0.70,-0.04,0.08,1.04,
3.054,-0.19,0.08,0.70,-0.04,0.08,1.04,
3.055,-0.17,0.16,0.63,-0.04,0.08,1.04,
3.055,-0.17,0.16,0.63,-0.04,0.08,1.03,
3.057,-0.17,0.16,0.63,-0.04,0.09,1.02,
3.06,-0.17,0.16,0.63,-0.04,0.09,1.01,
3.06,-0.17,0.23,0.49,-0.04,0.09,1.01,
3.062,-0.17,0.23,0.49,-0.04,0.09,1.01,
3.065,-0.17,0.23,0.49,-0.04,0.09,1.00,
3.065,-0.15,0.27,0.32,-0.04,0.09,1.00,
3.067,-0.15,0.27,0.32,-0.04,0.09,0.99,
3.073,-0.15,0.27,0.32,-0.04,0.09,0.99,
3.074,-0.14,0.27,0.18,-0.04,0.09,0.99,
3.074,-0.14,0.27,0.18,-0.04,0.09,0.98,
