
time,ax,ay,az,gFx,gFy,gFz,
0.002,-0.09,-0.02,0.24,-0.05,0.11,0.99,
0.003,-0.09,-0.02,0.24,-0.05,0.11,0.98,
0.003,-0.05,0.01,0.15,-0.05,0.11,0.98,
0.003,-0.05,0.01,0.15,-0.05,0.12,0.98,
0.004,-0.05,0.01,0.15,-0.05,0.11,0.97,
0.004,-0.04,0.03,0.05,-0.05,0.11,0.97,
0.006,-0.04,0.03,0.05,-0.04,0.12,0.97,
0.009,-0.04,0.03,0.05,-0.04,0.12,0.96,
0.009,-0.04,0.02,-0.04,-0.04,0.12,0.96,
0.011,-0.04,0.02,-0.04,-0.04,0.12,0.96,
0.014,-0.04,0.02,-0.04,-0.04,0.12,0.96,
0.014,0.00,0.05,-0.13,-0.04,0.12,0.96,
0.016,0.00,0.05,-0.13,-0.04,0.12,0.95,
0.018,0.00,0.05,-0.13,-0.04,0.12,0.95,
0.019,-0.00,0.03,-0.18,-0.04,0.12,0.95,
0.021,-0.00,0.03,-0.18,-0.04,0.12,0.95,
0.023,-0.00,0.03,-0.18,-0.04,0.12,0.95,
0.024,0.00,0.02,-0.25,-0.04,0.12,0.95,
0.025,0.00,0.02,-0.25,-0.04,0.12,0.95,
0.028,0.00,0.02,-0.25,-0.04,0.12,0.95,
0.028,0.01,0.03,-0.27,-0.04,0.12,0.95,
0.036,0.01,0.03,-0.27,-0.04,0.12,0.95,
0.036,0.01,0.03,-0.27,-0.04,0.12,0.95,
0.036,0.03,0.03,-0.28,-0.04,0.12,0.95,
0.037,0.03,0.03,-0.28,-0.04,0.12,0.95,
0.038,0.03,0.03,-0.28,-0.04,0.12,0.95,
0.038,0.02,0.03,-0.25,-0.04,0.12,0.95,
0.04,0.02,0.03,-0.25,-0.04,0.12,0.95,
0.043,0.02,0.03,-0.25,-0.04,0.12,0.96,
0.043,-0.00,0.04,-0.23,-0.04,0.12,0.96,
0.045,-0.00,0.04,-0.23,-0.04,0.12,0.96,
0.048,-0.00,0.04,-0.23,-0.05,0.12,0.96,
0.048,0.00,0.03,-0.19,-0.05,0.12,0.96,
0.05,0.00,0.03,-0.19,-0.05,0.12,0.96,
0.053,0.00,0.03,-0.19,-0.05,0.12,0.96,
0.053,-0.00,0.04,-0.16,-0.05,0.12,0.96,
0.055,-0.00,0.04,-0.16,-0.05,0.12,0.96,
0.058,-0.00,0.04,-0.16,-0.05,0.12,0.96,
0.058,-0.03,0.03,-0.13,-0.05,0.12,0.96,
0.06,-0.03,0.03,-0.13,-0.05,0.12,0.96,
0.063,-0.03,0.03,-0.13,-0.05,0.12,0.96,
0.063,-0.05,0.01,-0.12,-0.05,0.12,0.96,
0.065,-0.05,0.01,-0.12,-0.05,0.12,0.96,
0.067,-0.05,0.01,-0.12,-0.05,0.12,0.97,
0.068,-0.04,0.01,-0.11,-0.05,0.12,0.97,
0.07,-0.04,0.01,-0.11,-0.05,0.12,0.97,
0.072,-0.04,0.01,-0.11,-0.05,0.12,0.97,
0.072,-0.04,0.03,-0.09,-0.05,0.12,0.97,
0.075,-0.04,0.03,-0.09,-0.05,0.12,0.97,
0.077,-0.04,0.03,-0.09,-0.05,0.12,0.97,
0.077,-0.03,0.02,-0.08,-0.05,0.12,0.97,
0.08,-0.03,0.02,-0.08,-0.05,0.11,0.97,
0.083,-0.03,0.02,-0.08,-0.05,0.11,0.97,
0.083,-0.03,0.01,-0.07,-0.05,0.11,0.97,
0.085,-0.03,0.01,-0.07,-0.04,0.11,0.97,
0.087,-0.03,0.01,-0.07,-0.05,0.11,0.97,
0.087,-0.03,0.01,-0.06,-0.05,0.11,0.97,
0.089,-0.03,0.01,-0.06,-0.05,0.11,0.97,
0.092,-0.03,0.01,-0.06,-0.05,0.12,0.97,
0.092,-0.03,0.02,-0.04,-0.05,0.12,0.97,
0.094,-0.03,0.02,-0.04,-0.04,0.12,0.97,
0.097,-0.03,0.02,-0.04,-0.05,0.12,0.97,
0.097,-0.04,0.02,-0.05,-0.05,0.12,0.97,
0.099,-0.04,0.02,-0.05,-0.05,0.12,0.97,
0.102,-0.04,0.02,-0.05,-0.05,0.12,0.97,
0.102,-0.03,0.05,-0.05,-0.05,0.12,0.97,
0.104,-0.03,0.05,-0.05,-0.05,0.12,0.97,
0.106,-0.03,0.05,-0.05,-0.05,0.12,0.97,
0.107,-0.05,0.04,-0.06,-0.05,0.12,0.97,
0.109,-0.05,0.04,-0.06,-0.05,0.12,0.97,
0.112,-0.05,0.04,-0.06,-0.04,0.11,0.97,
0.112,-0.03,0.04,-0.06,-0.04,0.11,0.97,
0.114,-0.03,0.04,-0.06,-0.04,0.12,0.97,
0.116,-0.03,0.04,-0.06,-0.04,0.11,0.97,
0.116,-0.02,0.03,-0.02,-0.04,0.11,0.97,
0.119,-0.02,0.03,-0.02,-0.04,0.11,0.97,
0.121,-0.02,0.03,-0.02,-0.04,0.11,0.97,
0.121,0.00,0.02,-0.02,-0.04,0.11,0.97,
0.123,0.00,0.02,-0.02,-0.04,0.11,0.97,
0.126,0.00,0.02,-0.02,-0.04,0.11,0.97,
0.127,0.01,0.00,-0.02,-0.04,0.11,0.97,
0.129,0.01,0.00,-0.02,-0.04,0.11,0.98,
0.131,0.01,0.00,-0.02,-0.04,0.11,0.98,
0.131,0.02,-0.01,-0.01,-0.04,0.11,0.98,
0.133,0.02,-0.01,-0.01,-0.04,0.11,0.98,
0.136,0.02,-0.01,-0.01,-0.04,0.11,0.98,
0.136,0.02,-0.04,0.02,-0.04,0.11,0.98,
0.138,0.02,-0.04,0.02,-0.04,0.10,0.98,
0.141,0.02,-0.04,0.02,-0.04,0.10,0.98,
0.141,0.03,-0.05,0.03,-0.04,0.10,0.98,
0.143,0.03,-0.05,0.03,-0.04,0.10,0.99,
0.148,0.03,-0.05,0.03,-0.04,0.10,0.99,
0.149,0.04,-0.10,0.06,-0.04,0.10,0.99,
0.149,0.04,-0.10,0.06,-0.04,0.10,0.99,
0.151,0.04,-0.10,0.06,-0.04,0.10,0.99,
0.151,0.07,-0.11,0.10,-0.04,0.10,0.99,
0.153,0.07,-0.11,0.10,-0.04,0.10,0.99,
0.156,0.07,-0.11,0.10,-0.04,0.09,0.99,
0.156,0.09,-0.16,0.12,-0.04,0.09,0.99,
0.158,0.09,-0.16,0.12,-0.04,0.09,0.99,
0.16,0.09,-0.16,0.12,-0.03,0.09,0.99,
0.16,0.10,-0.17,0.12,-0.03,0.09,0.99,
0.163,0.10,-0.17,0.12,-0.03,0.09,0.99,
0.165,0.10,-0.17,0.12,-0.03,0.09,0.99,
0.166,0.11,-0.19,0.13,-0.03,0.09,0.99,
0.168,0.11,-0.19,0.13,-0.03,0.09,0.99,
0.17,0.11,-0.19,0.13,-0.03,0.09,0.99,
0.171,0.15,-0.22,0.14,-0.03,0.09,0.99,
0.172,0.15,-0.22,0.14,-0.03,0.09,0.99,
0.175,0.15,-0.22,0.14,-0.03,0.09,0.99,
0.175,0.15,-0.23,0.14,-0.03,0.09,0.99,
0.177,0.15,-0.23,0.14,-0.03,0.09,0.99,
0.18,0.15,-0.23,0.14,-0.03,0.08,0.99,
0.18,0.15,-0.25,0.12,-0.03,0.08,0.99,
0.182,0.15,-0.25,0.12,-0.03,0.08,0.99,
0.185,0.15,-0.25,0.12,-0.03,0.08,0.98,
0.185,0.15,-0.28,0.10,-0.03,0.08,0.98,
0.187,0.15,-0.28,0.10,-0.03,0.08,0.98,
0.19,0.15,-0.28,0.10,-0.03,0.08,0.98,
0.19,0.16,-0.29,0.09,-0.03,0.08,0.98,
0.192,0.16,-0.29,0.09,-0.03,0.08,0.98,
0.195,0.16,-0.29,0.09,-0.03,0.08,0.98,
0.195,0.17,-0.30,0.05,-0.03,0.08,0.98,
0.197,0.17,-0.30,0.05,-0.03,0.08,0.98,
0.2,0.17,-0.30,0.05,-0.03,0.08,0.98,
0.2,0.16,-0.30,0.04,-0.03,0.08,0.98,
0.202,0.16,-0.30,0.04,-0.03,0.08,0.98,
0.205,0.16,-0.30,0.04,-0.03,0.08,0.98,
0.205,0.16,-0.31,0.03,-0.03,0.08,0.98,
0.207,0.16,-0.31,0.03,-0.03,0.08,0.98,
0.209,0.16,-0.31,0.03,-0.03,0.08,0.98,
0.21,0.16,-0.30,0.04,-0.03,0.08,0.98,
0.212,0.16,-0.30,0.04,-0.03,0.08,0.98,
0.214,0.16,-0.30,0.04,-0.03,0.08,0.98,
0.214,0.16,-0.31,0.04,-0.03,0.08,0.98,
0.216,0.16,-0.31,0.04,-0.03,0.08,0.98,
0.219,0.16,-0.31,0.04,-0.03,0.08,0.98,
0.219,0.15,-0.32,0.06,-0.03,0.08,0.98,
0.222,0.15,-0.32,0.06,-0.03,0.07,0.98,
0.224,0.15,-0.32,0.06,-0.03,0.07,0.98,
0.224,0.16,-0.33,0.08,-0.03,0.07,0.98,
0.226,0.16,-0.33,0.08,-0.03,0.07,0.99,
0.231,0.16,-0.33,0.08,-0.03,0.07,0.99,
0.232,0.16,-0.36,0.08,-0.03,0.07,0.99,
0.232,0.16,-0.36,0.08,-0.03,0.07,0.99,
0.234,0.16,-0.36,0.08,-0.03,0.07,0.99,
0.234,0.16,-0.37,0.09,-0.03,0.07,0.99,
0.236,0.16,-0.37,0.09,-0.03,0.07,0.99,
0.239,0.16,-0.37,0.09,-0.03,0.07,0.99,
0.239,0.15,-0.36,0.09,-0.03,0.07,0.99,
0.241,0.15,-0.36,0.09,-0.02,0.07,0.99,
0.244,0.15,-0.36,0.09,-0.03,0.06,0.99,
0.244,0.17,-0.38,0.10,-0.03,0.06,0.99,
0.246,0.17,-0.38,0.10,-0.02,0.06,0.99,
0.249,0.20,-0.43,0.10,-0.02,0.06,0.99,
0.249,0.20,-0.43,0.10,-0.02,0.06,0.99,
0.251,0.20,-0.43,0.10,-0.02,0.06,0.99,
0.253,0.20,-0.43,0.10,-0.02,0.06,0.99,
0.253,0.22,-0.47,0.11,-0.02,0.06,0.99,
0.256,0.22,-0.47,0.11,-0.02,0.06,0.99,
0.258,0.22,-0.47,0.11,-0.01,0.06,1.00,
0.258,0.26,-0.49,0.15,-0.01,0.06,1.00,
0.261,0.26,-0.49,0.15,-0.01,0.06,1.00,
0.263,0.26,-0.49,0.15,-0.01,0.05,1.00,
0.264,0.30,-0.50,0.18,-0.01,0.05,1.00,
0.265,0.30,-0.50,0.18,-0.01,0.05,1.01,
0.268,0.30,-0.50,0.18,-0.01,0.05,1.01,
0.268,0.33,-0.51,0.22,-0.01,0.05,1.01,
0.27,0.33,-0.51,0.22,-0.01,0.05,1.01,
0.273,0.36,-0.54,0.28,-0.01,0.05,1.01,
0.274,0.36,-0.54,0.28,-0.01,0.05,1.01,
0.275,0.36,-0.54,0.28,-0.01,0.05,1.01,
0.278,0.36,-0.54,0.28,-0.01,0.05,1.01,
0.278,0.37,-0.56,0.30,-0.01,0.05,1.01,
0.28,0.37,-0.56,0.30,-0.01,0.04,1.01,
0.283,0.37,-0.56,0.30,-0.01,0.04,1.01,
0.283,0.36,-0.59,0.30,-0.01,0.04,1.01,
0.285,0.36,-0.59,0.30,-0.01,0.04,1.01,
0.288,0.36,-0.59,0.30,-0.01,0.04,1.01,
0.288,0.35,-0.63,0.32,-0.01,0.04,1.01,
0.29,0.35,-0.63,0.32,-0.01,0.04,1.01,
0.292,0.35,-0.63,0.32,-0.02,0.04,1.01,
0.293,0.33,-0.64,0.33,-0.02,0.04,1.01,
0.295,0.33,-0.64,0.33,-0.01,0.04,1.01,
0.298,0.33,-0.65,0.33,-0.01,0.04,1.01,
0.298,0.33,-0.65,0.33,-0.01,0.04,1.01,
0.3,0.33,-0.65,0.33,-0.02,0.04,1.01,
0.302,0.33,-0.65,0.33,-0.01,0.03,1.01,
0.302,0.35,-0.65,0.33,-0.01,0.03,1.01,
0.305,0.35,-0.65,0.33,-0.02,0.03,1.01,
0.308,0.35,-0.65,0.33,-0.02,0.03,1.01,
0.308,0.32,-0.70,0.30,-0.02,0.03,1.01,
0.31,0.32,-0.70,0.30,-0.02,0.03,1.01,
0.312,0.32,-0.70,0.30,-0.02,0.03,1.00,
0.312,0.31,-0.71,0.27,-0.02,0.03,1.00,
0.314,0.31,-0.71,0.27,-0.02,0.03,1.00,
0.317,0.31,-0.71,0.27,-0.02,0.03,1.00,
0.317,0.29,-0.72,0.25,-0.02,0.03,1.00,
0.319,0.29,-0.72,0.25,-0.02,0.03,1.00,
0.322,0.29,-0.72,0.25,-0.02,0.03,0.99,
0.322,0.30,-0.71,0.21,-0.02,0.03,0.99,
0.324,0.30,-0.71,0.21,-0.02,0.03,0.99,
0.327,0.30,-0.71,0.21,-0.02,0.03,0.99,
0.327,0.29,-0.72,0.15,-0.02,0.03,0.99,
0.334,0.29,-0.72,0.15,-0.02,0.03,0.98,
0.335,0.29,-0.72,0.15,-0.02,0.04,0.98,
0.335,0.27,-0.71,0.10,-0.02,0.04,0.98,
0.335,0.27,-0.71,0.10,-0.02,0.04,0.98,
0.337,0.27,-0.71,0.10,-0.03,0.04,0.98,
0.337,0.23,-0.68,0.04,-0.03,0.04,0.98,
0.339,0.23,-0.68,0.04,-0.03,0.04,0.98,
0.342,0.23,-0.68,0.04,-0.03,0.04,0.98,
0.342,0.19,-0.67,0.02,-0.03,0.04,0.98,
0.344,0.19,-0.67,0.02,-0.03,0.04,0.98,
0.346,0.19,-0.67,0.02,-0.03,0.04,0.97,
0.347,0.17,-0.64,-0.01,-0.03,0.04,0.97,
0.349,0.17,-0.64,-0.01,-0.03,0.04,0.97,
0.351,0.17,-0.64,-0.01,-0.04,0.04,0.97,
0.352,0.11,-0.63,-0.06,-0.04,0.04,0.97,
0.354,0.11,-0.63,-0.06,-0.04,0.04,0.97,
0.356,0.11,-0.63,-0.06,-0.04,0.04,0.97,
0.356,0.07,-0.60,-0.10,-0.04,0.04,0.97,
0.359,0.07,-0.60,-0.10,-0.04,0.05,0.96,
0.362,0.07,-0.60,-0.10,-0.04,0.05,0.96,
0.362,0.05,-0.57,-0.13,-0.04,0.05,0.96,
0.363,0.05,-0.57,-0.13,-0.04,0.05,0.96,
0.366,0.05,-0.57,-0.13,-0.03,0.06,0.96,
0.366,0.04,-0.53,-0.18,-0.03,0.06,0.96,
0.368,0.04,-0.53,-0.18,-0.04,0.06,0.96,
0.371,0.04,-0.53,-0.18,-0.03,0.06,0.96,
0.371,0.05,-0.46,-0.20,-0.03,0.06,0.96,
0.373,0.05,-0.46,-0.20,-0.04,0.06,0.96,
0.376,0.05,-0.46,-0.20,-0.03,0.07,0.96,
0.376,0.05,-0.41,-0.19,-0.03,0.07,0.96,
0.378,0.05,-0.41,-0.19,-0.03,0.07,0.96,
0.381,0.05,-0.41,-0.19,-0.03,0.07,0.96,
0.381,0.05,-0.34,-0.21,-0.03,0.07,0.96,
0.383,0.05,-0.34,-0.21,-0.03,0.07,0.95,
0.385,0.05,-0.34,-0.21,-0.03,0.07,0.95,
0.386,0.08,-0.30,-0.22,-0.03,0.07,0.95,
0.388,0.08,-0.30,-0.22,-0.03,0.07,0.96,
0.39,0.08,-0.30,-0.22,-0.03,0.07,0.96,
0.39,0.07,-0.29,-0.24,-0.03,0.07,0.96,
0.393,0.07,-0.29,-0.24,-0.03,0.07,0.96,
0.395,0.07,-0.29,-0.24,-0.03,0.07,0.96,
0.396,0.10,-0.27,-0.22,-0.03,0.07,0.96,
0.398,0.10,-0.27,-0.22,-0.03,0.07,0.96,
0.4,0.10,-0.27,-0.22,-0.03,0.07,0.96,
0.4,0.11,-0.27,-0.21,-0.03,0.07,0.96,
0.402,0.11,-0.27,-0.21,-0.03,0.07,0.96,
0.405,0.11,-0.27,-0.21,-0.03,0.07,0.96,
0.405,0.11,-0.27,-0.20,-0.03,0.07,0.96,
0.407,0.11,-0.27,-0.20,-0.03,0.07,0.96,
0.411,0.11,-0.27,-0.20,-0.02,0.07,0.96,
0.411,0.11,-0.27,-0.17,-0.02,0.07,0.96,
0.412,0.11,-0.27,-0.17,-0.02,0.07,0.96,
0.415,0.11,-0.27,-0.17,-0.02,0.07,0.97,
0.415,0.13,-0.28,-0.14,-0.02,0.07,0.97,
0.417,0.13,-0.28,-0.14,-0.02,0.07,0.97,
0.42,0.13,-0.28,-0.14,-0.02,0.07,0.97,
0.42,0.16,-0.29,-0.12,-0.02,0.07,0.97,
0.422,0.16,-0.29,-0.12,-0.02,0.07,0.97,
0.425,0.16,-0.29,-0.12,-0.02,0.07,0.97,
0.425,0.14,-0.31,-0.11,-0.02,0.07,0.97,
0.427,0.14,-0.31,-0.11,-0.03,0.06,0.97,
0.43,0.14,-0.31,-0.11,-0.02,0.06,0.97,
0.43,0.13,-0.31,-0.09,-0.02,0.06,0.97,
0.432,0.13,-0.31,-0.09,-0.02,0.06,0.97,
0.434,0.13,-0.31,-0.09,-0.02,0.06,0.97,
0.435,0.12,-0.33,-0.07,-0.02,0.06,0.97,
0.437,0.12,-0.33,-0.07,-0.02,0.06,0.97,
0.439,0.12,-0.33,-0.07,-0.02,0.06,0.97,
0.439,0.12,-0.34,-0.07,-0.02,0.06,0.97,
0.442,0.12,-0.34,-0.07,-0.02,0.06,0.97,
0.447,0.12,-0.34,-0.07,-0.02,0.06,0.97,
0.447,0.12,-0.36,-0.05,-0.02,0.06,0.97,
0.448,0.12,-0.36,-0.05,-0.02,0.06,0.97,
0.449,0.12,-0.36,-0.05,-0.02,0.06,0.97,
0.45,0.13,-0.36,-0.05,-0.02,0.06,0.97,
0.451,0.13,-0.36,-0.05,-0.01,0.06,0.97,
0.454,0.13,-0.36,-0.05,-0.01,0.06,0.97,
0.454,0.15,-0.35,-0.06,-0.01,0.06,0.97,
0.456,0.15,-0.35,-0.06,-0.01,0.06,0.97,
0.459,0.15,-0.35,-0.06,-0.00,0.06,0.97,
0.459,0.21,-0.35,-0.05,-0.00,0.06,0.97,
0.461,0.21,-0.35,-0.05,-0.00,0.06,0.97,
0.464,0.21,-0.35,-0.05,0.00,0.06,0.97,
0.464,0.26,-0.32,-0.06,0.00,0.06,0.97,
0.466,0.26,-0.32,-0.06,0.01,0.06,0.97,
0.469,0.26,-0.32,-0.06,0.01,0.06,0.97,
0.469,0.32,-0.31,-0.04,0.01,0.06,0.97,
0.471,0.32,-0.31,-0.04,0.01,0.07,0.97,
0.474,0.32,-0.31,-0.04,0.02,0.06,0.98,
0.474,0.37,-0.29,-0.03,0.02,0.06,0.98,
0.476,0.37,-0.29,-0.03,0.02,0.06,0.98,
0.479,0.37,-0.29,-0.03,0.02,0.06,0.98,
0.479,0.43,-0.27,-0.02,0.02,0.06,0.98,
0.481,0.43,-0.27,-0.02,0.02,0.07,0.98,
0.483,0.43,-0.27,-0.02,0.02,0.07,0.98,
0.484,0.48,-0.27,0.00,0.02,0.07,0.98,
0.486,0.48,-0.27,0.00,0.02,0.07,0.98,
0.488,0.48,-0.27,0.00,0.02,0.07,0.98,
0.488,0.49,-0.25,0.02,0.02,0.07,0.98,
0.491,0.49,-0.25,0.02,0.02,0.07,0.98,
0.494,0.49,-0.25,0.02,0.02,0.07,0.98,
0.494,0.49,-0.23,0.02,0.02,0.07,0.98,
0.496,0.49,-0.23,0.02,0.02,0.07,0.98,
0.498,0.49,-0.23,0.02,0.02,0.07,0.98,
0.498,0.47,-0.22,0.04,0.02,0.07,0.98,
0.5,0.47,-0.22,0.04,0.02,0.07,0.98,
0.503,0.47,-0.22,0.04,0.02,0.07,0.98,
0.503,0.45,-0.21,0.05,0.02,0.07,0.98,
0.505,0.45,-0.21,0.05,0.02,0.07,0.99,
0.508,0.45,-0.21,0.05,0.02,0.07,0.99,
0.508,0.43,-0.20,0.06,0.02,0.07,0.99,
0.51,0.43,-0.20,0.06,0.02,0.07,0.99,
0.513,0.43,-0.20,0.06,0.02,0.07,0.99,
0.514,0.42,-0.21,0.09,0.02,0.07,0.99,
0.515,0.42,-0.21,0.09,0.02,0.07,0.99,
0.518,0.42,-0.21,0.09,0.02,0.07,0.99,
0.518,0.40,-0.20,0.09,0.02,0.07,0.99,
0.52,0.40,-0.20,0.09,0.02,0.07,0.99,
0.523,0.40,-0.20,0.09,0.02,0.07,0.99,
0.523,0.38,-0.19,0.09,0.02,0.07,0.99,
0.525,0.38,-0.19,0.09,0.02,0.07,0.99,
0.528,0.38,-0.19,0.09,0.01,0.07,0.99,
0.528,0.37,-0.17,0.09,0.01,0.07,0.99,
0.53,0.37,-0.17,0.09,0.02,0.07,0.99,
0.532,0.37,-0.17,0.09,0.02,0.08,0.99,
0.533,0.36,-0.16,0.11,0.02,0.08,0.99,
0.535,0.36,-0.16,0.11,0.02,0.08,0.99,
0.537,0.36,-0.16,0.11,0.02,0.07,0.99,
0.538,0.37,-0.12,0.11,0.02,0.07,0.99,
0.54,0.37,-0.12,0.11,0.02,0.08,0.99,
0.542,0.37,-0.12,0.09,0.02,0.08,0.99,
0.543,0.37,-0.12,0.09,0.02,0.07,0.98,
0.55,0.37,-0.12,0.09,0.01,0.07,0.98,
0.551,0.37,-0.12,0.09,0.01,0.07,0.98,
0.551,0.37,-0.13,0.07,0.01,0.07,0.98,
0.552,0.37,-0.13,0.07,0.01,0.07,0.98,
0.553,0.37,-0.13,0.07,0.01,0.07,0.98,
0.553,0.33,-0.14,0.04,0.01,0.07,0.98,
0.555,0.33,-0.14,0.04,0.01,0.07,0.98,
0.557,0.33,-0.14,0.04,0.01,0.07,0.98,
0.557,0.30,-0.14,0.01,0.01,0.07,0.98,
0.562,0.30,-0.14,0.01,0.01,0.08,0.98,
0.562,0.30,-0.14,0.01,0.01,0.07,0.98,
0.562,0.28,-0.14,-0.02,0.01,0.07,0.98,
0.566,0.28,-0.14,-0.02,0.01,0.07,0.97,
0.567,0.28,-0.14,-0.02,0.01,0.07,0.97,
0.567,0.26,-0.13,-0.03,0.01,0.07,0.97,
0.569,0.26,-0.13,-0.03,0.01,0.07,0.97,
0.572,0.26,-0.13,-0.03,0.01,0.07,0.97,
0.572,0.24,-0.14,-0.06,0.01,0.07,0.97,
0.574,0.24,-0.14,-0.06,0.01,0.07,0.97,
0.577,0.24,-0.14,-0.06,0.01,0.07,0.96,
0.578,0.22,-0.14,-0.08,0.01,0.07,0.96,
0.579,0.22,-0.14,-0.08,0.01,0.08,0.96,
0.582,0.22,-0.14,-0.08,0.01,0.08,0.96,
0.582,0.23,-0.14,-0.13,0.01,0.08,0.96,
0.584,0.23,-0.14,-0.13,0.01,0.08,0.96,
0.586,0.23,-0.14,-0.13,0.01,0.08,0.96,
0.587,0.22,-0.12,-0.16,0.01,0.08,0.96,
0.59,0.22,-0.12,-0.16,0.01,0.08,0.96,
0.591,0.22,-0.12,-0.16,0.01,0.08,0.95,
0.591,0.24,-0.11,-0.19,0.01,0.08,0.95,
0.594,0.24,-0.11,-0.19,0.01,0.08,0.95,
0.596,0.24,-0.11,-0.19,0.01,0.08,0.95,
0.596,0.23,-0.09,-0.22,0.01,0.08,0.95,
0.599,0.23,-0.09,-0.22,0.01,0.08,0.95,
0.601,0.23,-0.09,-0.22,0.01,0.09,0.95,
0.601,0.22,-0.04,-0.24,0.01,0.09,0.95,
0.603,0.22,-0.04,-0.24,0.01,0.09,0.95,
0.606,0.22,-0.04,-0.24,0.01,0.09,0.95,
0.606,0.21,-0.00,-0.23,0.01,0.09,0.95,
0.608,0.21,-0.00,-0.23,0.01,0.09,0.95,
0.611,0.21,-0.00,-0.23,0.01,0.10,0.96,
0.611,0.21,0.06,-0.22,0.01,0.10,0.96,
0.613,0.21,0.06,-0.22,0.01,0.10,0.96,
0.616,0.21,0.09,-0.22,0.01,0.10,0.96,
0.616,0.21,0.09,-0.22,0.00,0.10,0.96,
0.618,0.21,0.09,-0.22,0.00,0.10,0.96,
0.621,0.21,0.09,-0.22,-0.00,0.10,0.96,
0.621,0.18,0.13,-0.18,-0.00,0.10,0.96,
0.623,0.18,0.13,-0.18,-0.00,0.10,0.97,
0.626,0.18,0.13,-0.18,-0.01,0.10,0.97,
0.626,0.13,0.14,-0.15,-0.01,0.10,0.97,
0.628,0.13,0.14,-0.15,-0.01,0.10,0.97,
0.631,0.13,0.14,-0.15,-0.02,0.10,0.97,
0.631,0.09,0.17,-0.09,-0.02,0.10,0.97,
0.633,0.09,0.17,-0.09,-0.02,0.10,0.97,
0.635,0.09,0.17,-0.09,-0.03,0.11,0.98,
0.636,-0.00,0.17,-0.04,-0.03,0.11,0.98,
0.638,-0.00,0.17,-0.04,-0.03,0.11,0.98,
0.64,-0.11,0.18,-0.01,-0.03,0.11,0.98,
0.641,-0.11,0.18,-0.01,-0.04,0.11,0.98,
0.649,-0.11,0.18,-0.01,-0.05,0.10,0.99,
0.65,-0.11,0.18,-0.01,-0.05,0.11,0.99,
0.65,-0.21,0.19,0.07,-0.05,0.11,0.99,
0.651,-0.21,0.19,0.07,-0.05,0.11,0.99,
0.651,-0.21,0.19,0.07,-0.06,0.11,0.99,
0.651,-0.30,0.18,0.10,-0.06,0.11,0.99,
0.652,-0.30,0.18,0.10,-0.06,0.11,0.99,
0.655,-0.30,0.18,0.10,-0.07,0.11,0.99,
0.655,-0.38,0.21,0.11,-0.07,0.11,0.99,
0.657,-0.38,0.21,0.11,-0.07,0.11,0.99,
0.66,-0.38,0.21,0.11,-0.07,0.11,0.98,
0.661,-0.47,0.23,0.11,-0.07,0.11,0.98,
0.662,-0.47,0.23,0.11,-0.07,0.11,0.98,
0.665,-0.47,0.23,0.11,-0.07,0.11,0.98,
0.666,-0.50,0.23,0.09,-0.07,0.11,0.98,
0.667,-0.50,0.23,0.09,-0.07,0.11,0.98,
0.67,-0.50,0.23,0.09,-0.07,0.11,0.97,
0.67,-0.52,0.21,0.04,-0.07,0.11,0.97,
0.672,-0.52,0.21,0.04,-0.07,0.11,0.97,
0.674,-0.52,0.21,0.04,-0.07,0.11,0.97,
0.675,-0.53,0.20,-0.03,-0.07,0.11,0.97,
0.677,-0.53,0.20,-0.03,-0.07,0.11,0.96,
0.68,-0.53,0.20,-0.03,-0.07,0.11,0.96,
0.68,-0.50,0.18,-0.09,-0.07,0.11,0.96,
0.682,-0.50,0.18,-0.09,-0.06,0.11,0.95,
0.685,-0.50,0.18,-0.09,-0.06,0.11,0.95,
0.685,-0.47,0.17,-0.17,-0.06,0.11,0.95,
0.687,-0.47,0.17,-0.17,-0.06,0.11,0.95,
0.689,-0.42,0.16,-0.22,-0.06,0.11,0.95,
0.69,-0.42,0.16,-0.22,-0.06,0.11,0.95,
0.692,-0.42,0.16,-0.22,-0.06,0.11,0.95,
0.694,-0.42,0.16,-0.22,-0.06,0.11,0.95,
0.695,-0.41,0.18,-0.26,-0.06,0.11,0.95,
0.697,-0.41,0.18,-0.26,-0.06,0.11,0.95,
0.699,-0.41,0.18,-0.26,-0.06,0.11,0.95,
0.7,-0.38,0.18,-0.27,-0.06,0.11,0.95,
0.702,-0.38,0.18,-0.27,-0.06,0.12,0.95,
0.704,-0.38,0.18,-0.27,-0.06,0.12,0.95,
0.704,-0.37,0.22,-0.26,-0.06,0.12,0.95,
0.706,-0.37,0.22,-0.26,-0.06,0.12,0.95,
0.709,-0.37,0.22,-0.26,-0.06,0.12,0.95,
0.709,-0.37,0.26,-0.24,-0.06,0.12,0.95,
0.711,-0.37,0.26,-0.24,-0.07,0.12,0.95,
0.714,-0.37,0.26,-0.24,-0.07,0.12,0.96,
0.714,-0.39,0.29,-0.22,-0.07,0.12,0.96,
0.716,-0.39,0.29,-0.22,-0.07,0.12,0.96,
0.719,-0.39,0.29,-0.22,-0.08,0.12,0.96,
0.719,-0.44,0.31,-0.19,-0.08,0.12,0.96,
0.721,-0.44,0.31,-0.19,-0.08,0.13,0.96,
0.723,-0.44,0.31,-0.19,-0.08,0.13,0.96,
0.724,-0.49,0.33,-0.17,-0.08,0.13,0.96,
0.733,-0.49,0.33,-0.17,-0.09,0.13,0.96,
0.733,-0.49,0.33,-0.17,-0.09,0.13,0.96,
0.734,-0.55,0.35,-0.18,-0.09,0.13,0.96,
0.734,-0.55,0.35,-0.18,-0.10,0.13,0.96,
0.734,-0.55,0.35,-0.18,-0.10,0.14,0.96,
0.735,-0.63,0.39,-0.14,-0.10,0.14,0.96,
0.736,-0.63,0.39,-0.14,-0.11,0.14,0.96,
0.738,-0.63,0.39,-0.14,-0.11,0.14,0.96,
0.739,-0.71,0.41,-0.14,-0.11,0.14,0.96,
0.741,-0.71,0.41,-0.14,-0.11,0.15,0.96,
0.745,-0.71,0.41,-0.14,-0.11,0.15,0.96,
0.745,-0.76,0.49,-0.12,-0.11,0.15,0.96,
0.746,-0.76,0.49,-0.12,-0.11,0.15,0.96,
0.748,-0.78,0.56,-0.11,-0.11,0.15,0.96,
0.748,-0.78,0.56,-0.11,-0.11,0.15,0.96,
0.75,-0.78,0.56,-0.11,-0.11,0.16,0.96,
0.753,-0.78,0.56,-0.11,-0.12,0.16,0.96,
0.753,-0.81,0.61,-0.10,-0.12,0.16,0.96,
0.755,-0.81,0.61,-0.10,-0.12,0.16,0.96,
0.758,-0.81,0.61,-0.10,-0.12,0.16,0.96,
0.759,-0.83,0.63,-0.10,-0.12,0.16,0.96,
0.76,-0.83,0.63,-0.10,-0.11,0.16,0.96,
0.763,-0.83,0.63,-0.10,-0.11,0.16,0.97,
0.763,-0.84,0.66,-0.10,-0.11,0.16,0.97,
0.765,-0.84,0.66,-0.10,-0.11,0.16,0.96,
0.768,-0.84,0.66,-0.10,-0.11,0.16,0.97,
0.768,-0.82,0.68,-0.09,-0.11,0.16,0.97,
0.77,-0.82,0.68,-0.09,-0.11,0.16,0.97,
0.772,-0.82,0.68,-0.09,-0.11,0.16,0.96,
0.773,-0.80,0.69,-0.08,-0.11,0.16,0.96,
0.775,-0.80,0.69,-0.08,-0.11,0.16,0.96,
0.778,-0.80,0.69,-0.08,-0.11,0.16,0.96,
0.778,-0.76,0.68,-0.10,-0.11,0.16,0.96,
0.78,-0.76,0.68,-0.10,-0.10,0.16,0.96,
0.782,-0.76,0.68,-0.10,-0.10,0.16,0.95,
0.782,-0.76,0.67,-0.14,-0.10,0.16,0.95,
0.784,-0.76,0.67,-0.14,-0.10,0.16,0.95,
0.787,-0.76,0.67,-0.14,-0.10,0.16,0.95,
0.788,-0.70,0.65,-0.19,-0.10,0.16,0.95,
0.789,-0.70,0.65,-0.19,-0.10,0.16,0.95,
0.792,-0.70,0.65,-0.19,-0.09,0.16,0.95,
0.793,-0.66,0.65,-0.24,-0.09,0.16,0.95,
0.794,-0.66,0.65,-0.24,-0.09,0.16,0.94,
0.797,-0.66,0.65,-0.24,-0.09,0.16,0.94,
0.798,-0.61,0.64,-0.27,-0.09,0.16,0.94,
0.799,-0.61,0.64,-0.27,-0.08,0.16,0.94,
0.802,-0.61,0.64,-0.27,-0.08,0.15,0.94,
0.802,-0.54,0.62,-0.29,-0.08,0.15,0.94,
0.804,-0.54,0.62,-0.29,-0.08,0.16,0.95,
0.807,-0.54,0.62,-0.29,-0.08,0.16,0.95,
0.807,-0.47,0.62,-0.29,-0.08,0.16,0.95,
0.81,-0.47,0.62,-0.29,-0.08,0.15,0.95,
0.812,-0.47,0.62,-0.29,-0.08,0.16,0.95,
0.812,-0.46,0.63,-0.27,-0.08,0.16,0.95,
0.814,-0.46,0.63,-0.27,-0.07,0.16,0.95,
0.817,-0.46,0.63,-0.27,-0.07,0.16,0.96,
0.817,-0.42,0.63,-0.25,-0.07,0.16,0.96,
0.819,-0.42,0.63,-0.25,-0.07,0.16,0.96,
0.822,-0.42,0.63,-0.25,-0.07,0.16,0.97,
0.822,-0.40,0.65,-0.16,-0.07,0.16,0.97,
0.824,-0.40,0.65,-0.16,-0.08,0.16,0.97,
0.827,-0.40,0.65,-0.16,-0.08,0.16,0.97,
0.827,-0.38,0.68,-0.10,-0.08,0.16,0.97,
0.829,-0.38,0.68,-0.10,-0.08,0.17,0.97,
0.831,-0.38,0.68,-0.10,-0.08,0.17,0.97,
0.832,-0.42,0.71,-0.05,-0.08,0.17,0.97,
0.834,-0.42,0.71,-0.05,-0.08,0.17,0.98,
0.836,-0.42,0.71,-0.05,-0.09,0.17,0.98,
0.837,-0.44,0.74,-0.02,-0.09,0.17,0.98,
0.839,-0.44,0.74,-0.02,-0.09,0.17,0.98,
0.841,-0.44,0.74,-0.02,-0.09,0.17,0.98,
0.841,-0.47,0.77,0.03,-0.09,0.17,0.98,
0.847,-0.47,0.77,0.03,-0.09,0.18,0.98,
0.848,-0.47,0.77,0.03,-0.09,0.18,0.98,
0.848,-0.50,0.80,0.05,-0.09,0.18,0.98,
0.849,-0.50,0.80,0.05,-0.09,0.18,0.98,
0.851,-0.50,0.80,0.05,-0.09,0.19,0.98,
0.851,-0.48,0.86,0.06,-0.09,0.19,0.98,
0.853,-0.48,0.86,0.06,-0.09,0.19,0.98,
0.856,-0.48,0.86,0.06,-0.09,0.19,0.98,
0.856,-0.50,0.92,0.07,-0.09,0.19,0.98,
0.858,-0.50,0.92,0.07,-0.09,0.19,0.98,
0.861,-0.50,0.92,0.07,-0.09,0.19,0.98,
0.861,-0.47,0.95,0.05,-0.09,0.19,0.98,
0.863,-0.47,0.95,0.05,-0.09,0.19,0.98,
0.866,-0.47,0.99,0.05,-0.09,0.19,0.98,
0.866,-0.47,0.99,0.05,-0.09,0.19,0.97,
0.868,-0.47,0.99,0.05,-0.08,0.20,0.97,
0.87,-0.47,0.99,0.05,-0.08,0.20,0.97,
0.87,-0.45,1.00,0.02,-0.08,0.20,0.97,
0.873,-0.45,1.00,0.02,-0.08,0.20,0.97,
0.876,-0.45,1.00,0.02,-0.08,0.20,0.97,
0.876,-0.42,1.02,-0.03,-0.08,0.20,0.97,
0.878,-0.42,1.02,-0.03,-0.08,0.20,0.97,
0.88,-0.42,1.02,-0.03,-0.08,0.20,0.97,
0.881,-0.39,1.04,-0.05,-0.08,0.20,0.97,
0.883,-0.39,1.04,-0.05,-0.08,0.21,0.97,
0.885,-0.37,1.07,-0.05,-0.08,0.21,0.97,
0.886,-0.37,1.07,-0.05,-0.08,0.21,0.97,
0.887,-0.37,1.07,-0.05,-0.08,0.21,0.97,
0.89,-0.37,1.07,-0.05,-0.08,0.21,0.97,
0.89,-0.35,1.09,-0.05,-0.08,0.21,0.97,
0.893,-0.35,1.09,-0.05,-0.08,0.21,0.97,
0.895,-0.35,1.09,-0.05,-0.08,0.21,0.97,
0.895,-0.31,1.10,-0.04,-0.08,0.21,0.97,
0.897,-0.31,1.10,-0.04,-0.08,0.21,0.98,
0.9,-0.31,1.10,-0.04,-0.08,0.21,0.98,
0.9,-0.30,1.12,-0.00,-0.08,0.21,0.98,
0.902,-0.30,1.12,-0.00,-0.08,0.22,0.98,
0.905,-0.30,1.12,-0.00,-0.08,0.22,0.99,
0.905,-0.28,1.13,0.03,-0.08,0.22,0.99,
0.907,-0.28,1.13,0.03,-0.08,0.22,0.99,
0.91,-0.28,1.13,0.03,-0.08,0.22,0.99,
0.91,-0.28,1.16,0.10,-0.08,0.22,0.99,
0.912,-0.28,1.16,0.10,-0.08,0.22,0.99,
0.915,-0.28,1.16,0.10,-0.08,0.22,1.00,
0.915,-0.31,1.15,0.16,-0.08,0.22,1.00,
0.917,-0.31,1.15,0.16,-0.08,0.22,1.00,
0.919,-0.31,1.15,0.16,-0.08,0.22,1.00,
0.92,-0.33,1.14,0.20,-0.08,0.22,1.00,
0.922,-0.33,1.14,0.20,-0.09,0.22,1.00,
0.925,-0.33,1.14,0.20,-0.08,0.22,1.00,
0.925,-0.32,1.16,0.24,-0.08,0.22,1.00,
0.932,-0.32,1.16,0.24,-0.08,0.22,1.01,
0.933,-0.32,1.16,0.24,-0.08,0.22,1.01,
0.933,-0.32,1.19,0.29,-0.08,0.22,1.01,
0.933,-0.32,1.19,0.29,-0.08,0.22,1.01,
0.934,-0.32,1.19,0.29,-0.08,0.22,1.01,
0.935,-0.30,1.19,0.32,-0.08,0.22,1.01,
0.936,-0.30,1.19,0.32,-0.08,0.22,1.01,
0.939,-0.30,1.19,0.32,-0.08,0.22,1.01,
0.939,-0.29,1.19,0.33,-0.08,0.22,1.01,
0.941,-0.29,1.19,0.33,-0.07,0.22,1.01,
0.944,-0.29,1.19,0.33,-0.07,0.22,1.01,
0.944,-0.25,1.17,0.33,-0.07,0.22,1.01,
0.946,-0.25,1.17,0.33,-0.07,0.22,1.01,
0.949,-0.25,1.17,0.33,-0.07,0.22,1.00,
0.949,-0.20,1.17,0.31,-0.07,0.22,1.00,
0.951,-0.20,1.17,0.31,-0.07,0.22,1.00,
0.954,-0.20,1.17,0.31,-0.07,0.22,1.00,
0.954,-0.15,1.17,0.28,-0.07,0.22,1.00,
0.956,-0.15,1.17,0.28,-0.06,0.23,1.00,
0.959,-0.15,1.17,0.28,-0.06,0.23,1.00,
0.96,-0.12,1.17,0.25,-0.06,0.23,1.00,
0.961,-0.12,1.17,0.25,-0.06,0.23,1.00,
0.964,-0.12,1.17,0.25,-0.05,0.23,1.00,
0.964,-0.07,1.18,0.22,-0.05,0.23,1.00,
0.966,-0.07,1.18,0.22,-0.05,0.23,1.00,
0.968,-0.07,1.18,0.22,-0.05,0.23,1.00,
0.968,-0.01,1.19,0.20,-0.05,0.23,1.00,
0.971,-0.01,1.19,0.20,-0.05,0.23,1.00,
0.974,-0.01,1.19,0.20,-0.04,0.23,1.00,
0.974,0.06,1.18,0.19,-0.04,0.23,1.00,
0.976,0.06,1.18,0.19,-0.04,0.23,1.00,
0.978,0.06,1.18,0.19,-0.04,0.23,1.00,
0.979,0.09,1.19,0.18,-0.04,0.23,1.00,
0.98,0.09,1.19,0.18,-0.04,0.22,1.00,
0.983,0.09,1.19,0.18,-0.04,0.22,1.00,
0.983,0.12,1.16,0.18,-0.04,0.22,1.00,
0.985,0.12,1.16,0.18,-0.04,0.22,1.00,
0.988,0.12,1.16,0.18,-0.04,0.22,1.00,
0.988,0.12,1.14,0.19,-0.04,0.22,1.00,
0.99,0.12,1.14,0.19,-0.05,0.22,1.00,
0.993,0.12,1.14,0.19,-0.05,0.22,1.01,
0.994,0.11,1.12,0.23,-0.05,0.22,1.01,
0.995,0.11,1.12,0.23,-0.05,0.22,1.01,
0.998,0.11,1.12,0.23,-0.05,0.22,1.01,
0.998,0.07,1.09,0.26,-0.05,0.22,1.01,
1.0,0.07,1.09,0.26,-0.05,0.22,1.01,
1.002,0.07,1.09,0.26,-0.06,0.22,1.01,
1.004,0.05,1.10,0.32,-0.06,0.22,1.01,
1.005,0.05,1.10,0.32,-0.06,0.22,1.02,
1.007,0.05,1.10,0.32,-0.06,0.22,1.02,
1.008,0.02,1.11,0.34,-0.06,0.22,1.02,
1.01,0.02,1.11,0.34,-0.06,0.22,1.02,
1.013,0.00,1.11,0.38,-0.06,0.22,1.02,
1.013,0.00,1.11,0.38,-0.06,0.23,1.02,
1.015,0.00,1.11,0.38,-0.06,0.23,1.02,
1.017,0.00,1.11,0.38,-0.06,0.22,1.02,
1.018,0.00,1.10,0.41,-0.06,0.22,1.02,
1.02,0.00,1.10,0.41,-0.06,0.22,1.03,
1.022,0.00,1.10,0.41,-0.06,0.22,1.03,
1.022,0.01,1.09,0.43,-0.06,0.22,1.03,
1.024,0.01,1.09,0.43,-0.06,0.22,1.03,
1.032,0.01,1.09,0.43,-0.06,0.22,1.03,
1.033,-0.00,1.05,0.46,-0.06,0.22,1.03,
1.033,-0.00,1.05,0.46,-0.06,0.22,1.03,
1.033,-0.00,1.05,0.46,-0.06,0.22,1.03,
1.034,-0.01,1.02,0.47,-0.06,0.22,1.03,
1.034,-0.01,1.02,0.47,-0.06,0.22,1.03,
1.037,-0.01,1.02,0.47,-0.06,0.22,1.03,
1.037,0.00,1.00,0.46,-0.06,0.22,1.03,
1.039,0.00,1.00,0.46,-0.06,0.22,1.03,
1.043,0.00,1.00,0.46,-0.06,0.22,1.03,
1.043,0.03,0.98,0.47,-0.06,0.22,1.03,
1.045,0.03,0.98,0.47,-0.06,0.22,1.03,
1.047,0.03,0.98,0.47,-0.06,0.21,1.03,
1.047,0.06,0.95,0.48,-0.06,0.21,1.03,
1.049,0.06,0.95,0.48,-0.06,0.21,1.03,
1.052,0.06,0.95,0.48,-0.05,0.21,1.03,
1.052,0.09,0.92,0.48,-0.05,0.21,1.03,
1.054,0.09,0.92,0.48,-0.05,0.21,1.03,
1.057,0.09,0.92,0.48,-0.05,0.21,1.03,
1.057,0.11,0.89,0.49,-0.05,0.21,1.03,
1.059,0.11,0.89,0.49,-0.05,0.21,1.03,
1.062,0.11,0.89,0.49,-0.05,0.21,1.03,
1.062,0.14,0.85,0.49,-0.05,0.21,1.03,
1.064,0.14,0.85,0.49,-0.05,0.20,1.03,
1.066,0.14,0.85,0.49,-0.04,0.20,1.03,
1.067,0.18,0.82,0.48,-0.04,0.20,1.03,
1.069,0.18,0.82,0.48,-0.05,0.20,1.03,
1.071,0.18,0.82,0.48,-0.05,0.20,1.03,
1.071,0.22,0.76,0.49,-0.05,0.20,1.03,
1.074,0.22,0.76,0.49,-0.04,0.20,1.03,
1.076,0.22,0.76,0.49,-0.04,0.19,1.03,
1.077,0.21,0.71,0.48,-0.04,0.19,1.03,
1.079,0.21,0.71,0.48,-0.04,0.19,1.03,
1.081,0.21,0.71,0.48,-0.04,0.19,1.03,
1.081,0.23,0.66,0.45,-0.04,0.19,1.03,
1.083,0.23,0.66,0.45,-0.04,0.19,1.03,
1.086,0.23,0.66,0.45,-0.04,0.19,1.03,
1.086,0.27,0.61,0.44,-0.04,0.19,1.03,
1.088,0.27,0.61,0.44,-0.03,0.19,1.02,
1.091,0.27,0.61,0.44,-0.03,0.18,1.02,
1.091,0.31,0.58,0.41,-0.03,0.18,1.02,
1.093,0.31,0.58,0.41,-0.03,0.19,1.02,
1.096,0.31,0.58,0.41,-0.03,0.19,1.02,
1.097,0.34,0.53,0.38,-0.03,0.19,1.02,
1.098,0.34,0.53,0.38,-0.02,0.18,1.02,
1.101,0.34,0.53,0.38,-0.02,0.18,1.02,
1.101,0.40,0.53,0.36,-0.02,0.18,1.02,
1.103,0.40,0.53,0.36,-0.02,0.18,1.01,
1.105,0.40,0.53,0.36,-0.02,0.18,1.01,
1.106,0.44,0.50,0.32,-0.02,0.18,1.01,
1.111,0.44,0.50,0.32,-0.02,0.18,1.01,
1.111,0.44,0.50,0.32,-0.02,0.18,1.01,
1.112,0.46,0.46,0.26,-0.02,0.18,1.01,
1.113,0.46,0.46,0.26,-0.02,0.18,1.00,
1.115,0.46,0.46,0.26,-0.02,0.18,1.00,
1.116,0.45,0.45,0.23,-0.02,0.18,1.00,
1.118,0.45,0.45,0.23,-0.02,0.18,1.00,
1.12,0.45,0.45,0.23,-0.02,0.18,1.00,
1.12,0.45,0.44,0.18,-0.02,0.18,1.00,
1.122,0.45,0.44,0.18,-0.01,0.18,1.00,
1.125,0.45,0.44,0.18,-0.02,0.18,0.99,
1.126,0.47,0.46,0.13,-0.02,0.18,0.99,
1.127,0.47,0.46,0.13,-0.01,0.18,0.99,
1.13,0.49,0.47,0.11,-0.01,0.18,0.99,
1.131,0.49,0.47,0.11,-0.01,0.18,0.99,
1.132,0.49,0.47,0.11,-0.01,0.18,0.99,
1.135,0.49,0.47,0.11,-0.01,0.19,0.99,
1.135,0.51,0.46,0.06,-0.01,0.19,0.99,
1.137,0.51,0.46,0.06,-0.01,0.19,0.99,
1.14,0.51,0.46,0.06,-0.01,0.18,0.98,
1.14,0.52,0.46,0.03,-0.01,0.18,0.98,
1.148,0.52,0.46,0.03,-0.01,0.18,0.98,
1.148,0.52,0.46,0.03,-0.01,0.18,0.98,
1.149,0.53,0.45,0.01,-0.01,0.18,0.98,
1.149,0.53,0.45,0.01,-0.01,0.18,0.98,
1.15,0.53,0.45,0.01,-0.01,0.18,0.98,
1.15,0.55,0.44,-0.04,-0.01,0.18,0.98,
1.152,0.55,0.44,-0.04,-0.00,0.18,0.97,
1.155,0.55,0.40,-0.05,-0.00,0.18,0.97,
1.155,0.55,0.40,-0.05,-0.01,0.18,0.97,
1.157,0.55,0.40,-0.05,-0.01,0.18,0.97,
1.159,0.55,0.40,-0.05,-0.00,0.18,0.97,
1.16,0.55,0.38,-0.11,-0.00,0.18,0.97,
1.162,0.55,0.38,-0.11,-0.00,0.18,0.96,
1.164,0.55,0.38,-0.11,-0.00,0.17,0.96,
1.165,0.55,0.33,-0.16,-0.00,0.17,0.96,
1.167,0.55,0.33,-0.16,-0.00,0.18,0.96,
1.169,0.55,0.33,-0.16,-0.00,0.17,0.96,
1.169,0.54,0.31,-0.20,-0.00,0.17,0.96,
1.171,0.54,0.31,-0.20,-0.00,0.17,0.96,
1.174,0.54,0.31,-0.20,0.00,0.17,0.96,
1.174,0.57,0.30,-0.23,0.00,0.17,0.96,
1.176,0.57,0.30,-0.23,0.01,0.17,0.95,
1.179,0.57,0.30,-0.23,0.01,0.17,0.95,
1.179,0.58,0.28,-0.25,0.01,0.17,0.95,
1.181,0.58,0.28,-0.25,0.01,0.17,0.95,
1.184,0.58,0.28,-0.25,0.01,0.17,0.95,
1.184,0.63,0.27,-0.28,0.01,0.17,0.95,
1.186,0.63,0.27,-0.28,0.01,0.17,0.95,
1.189,0.63,0.27,-0.28,0.01,0.17,0.95,
1.189,0.65,0.25,-0.31,0.01,0.17,0.95,
1.192,0.65,0.25,-0.31,0.01,0.17,0.95,
1.194,0.65,0.25,-0.31,0.01,0.17,0.95,
1.194,0.68,0.24,-0.34,0.01,0.17,0.95,
1.196,0.68,0.24,-0.34,0.01,0.17,0.95,
1.199,0.68,0.24,-0.34,0.01,0.17,0.94,
1.199,0.69,0.22,-0.34,0.01,0.17,0.94,
1.201,0.69,0.22,-0.34,0.01,0.17,0.94,
1.203,0.69,0.22,-0.34,0.01,0.17,0.94,
1.203,0.68,0.19,-0.36,0.01,0.17,0.94,
1.205,0.68,0.19,-0.36,0.01,0.17,0.94,
1.208,0.68,0.19,-0.36,0.01,0.17,0.94,
1.208,0.67,0.18,-0.38,0.01,0.17,0.94,
1.21,0.67,0.18,-0.38,0.01,0.17,0.94,
1.213,0.67,0.18,-0.38,0.01,0.16,0.95,
1.214,0.66,0.15,-0.36,0.01,0.16,0.95,
1.216,0.66,0.15,-0.36,0.01,0.16,0.95,
1.218,0.66,0.15,-0.36,0.01,0.16,0.95,
1.218,0.65,0.11,-0.33,0.01,0.16,0.95,
1.22,0.65,0.11,-0.33,0.01,0.16,0.95,
1.223,0.65,0.11,-0.33,0.01,0.16,0.95,
1.223,0.64,0.09,-0.29,0.01,0.16,0.95,
1.231,0.64,0.09,-0.29,0.01,0.16,0.95,
1.231,0.62,0.07,-0.27,0.01,0.16,0.95,
1.231,0.62,0.07,-0.27,0.00,0.16,0.95,
1.232,0.62,0.07,-0.27,0.00,0.16,0.96,
1.233,0.62,0.07,-0.27,0.00,0.16,0.96,
1.233,0.58,0.04,-0.25,0.00,0.16,0.96,
1.235,0.58,0.04,-0.25,0.00,0.15,0.95,
1.238,0.58,0.04,-0.25,-0.00,0.15,0.95,
1.238,0.57,0.00,-0.22,-0.00,0.15,0.95,
1.24,0.57,0.00,-0.22,-0.00,0.15,0.95,
1.243,0.57,0.00,-0.22,-0.01,0.15,0.95,
1.244,0.53,-0.06,-0.23,-0.01,0.15,0.95,
1.245,0.53,-0.06,-0.23,-0.01,0.15,0.95,
1.247,0.53,-0.06,-0.23,-0.01,0.15,0.95,
1.248,0.48,-0.09,-0.24,-0.01,0.15,0.95,
1.25,0.48,-0.09,-0.24,-0.01,0.15,0.95,
1.252,0.45,-0.10,-0.25,-0.01,0.15,0.95,
1.252,0.45,-0.10,-0.25,-0.01,0.15,0.95,
1.254,0.45,-0.10,-0.25,-0.01,0.15,0.95,
1.258,0.45,-0.10,-0.25,-0.00,0.15,0.95,
1.258,0.44,-0.11,-0.28,-0.00,0.15,0.95,
1.259,0.44,-0.11,-0.28,-0.00,0.15,0.95,
1.262,0.44,-0.11,-0.28,-0.00,0.15,0.94,
1.263,0.46,-0.10,-0.29,-0.00,0.15,0.94,
1.265,0.46,-0.10,-0.29,-0.00,0.15,0.94,
1.267,0.46,-0.10,-0.29,-0.00,0.15,0.94,
1.268,0.48,-0.09,-0.31,-0.00,0.15,0.94,
1.269,0.48,-0.09,-0.31,-0.00,0.15,0.94,
1.272,0.48,-0.09,-0.31,-0.00,0.15,0.94,
1.272,0.48,-0.08,-0.33,-0.00,0.15,0.94,
1.274,0.48,-0.08,-0.33,-0.00,0.15,0.94,
1.277,0.48,-0.08,-0.33,-0.00,0.15,0.93,
1.278,0.46,-0.10,-0.35,-0.00,0.15,0.93,
1.279,0.46,-0.10,-0.35,-0.00,0.15,0.93,
1.282,0.46,-0.10,-0.35,-0.00,0.15,0.93,
1.282,0.44,-0.12,-0.40,-0.00,0.15,0.93,
1.284,0.44,-0.12,-0.40,-0.01,0.15,0.93,
1.287,0.44,-0.14,-0.43,-0.01,0.15,0.93,
1.287,0.44,-0.14,-0.43,-0.01,0.15,0.93,
1.289,0.44,-0.14,-0.43,-0.01,0.15,0.92,
1.291,0.44,-0.14,-0.43,-0.01,0.15,0.92,
1.292,0.41,-0.14,-0.46,-0.01,0.15,0.92,
1.294,0.41,-0.14,-0.46,-0.01,0.15,0.92,
1.296,0.41,-0.14,-0.46,-0.01,0.15,0.92,
1.297,0.38,-0.15,-0.49,-0.01,0.15,0.92,
1.299,0.38,-0.15,-0.49,-0.01,0.15,0.92,
1.301,0.37,-0.16,-0.51,-0.01,0.15,0.92,
1.302,0.37,-0.16,-0.51,-0.01,0.15,0.92,
1.303,0.37,-0.16,-0.51,-0.02,0.15,0.92,
1.306,0.37,-0.16,-0.51,-0.02,0.15,0.92,
1.307,0.33,-0.16,-0.50,-0.02,0.15,0.92,
1.309,0.33,-0.16,-0.50,-0.02,0.14,0.92,
1.311,0.33,-0.16,-0.50,-0.02,0.14,0.92,
1.312,0.29,-0.17,-0.50,-0.02,0.14,0.92,
1.314,0.29,-0.17,-0.50,-0.02,0.14,0.93,
1.316,0.29,-0.17,-0.50,-0.02,0.14,0.93,
1.316,0.27,-0.19,-0.48,-0.02,0.14,0.93,
1.318,0.27,-0.19,-0.48,-0.03,0.14,0.93,
1.321,0.27,-0.19,-0.48,-0.03,0.14,0.93,
1.321,0.22,-0.22,-0.45,-0.03,0.14,0.93,
1.323,0.22,-0.22,-0.45,-0.03,0.14,0.93,
1.33,0.22,-0.22,-0.45,-0.04,0.14,0.94,
1.331,0.16,-0.23,-0.41,-0.04,0.14,0.94,
1.331,0.16,-0.23,-0.41,-0.04,0.14,0.94,
1.334,0.16,-0.23,-0.41,-0.05,0.14,0.94,
1.334,0.10,-0.24,-0.34,-0.05,0.14,0.94,
1.334,0.10,-0.24,-0.34,-0.05,0.14,0.95,
1.336,0.10,-0.24,-0.34,-0.05,0.14,0.95,
1.336,0.02,-0.25,-0.28,-0.05,0.14,0.95,
1.338,0.02,-0.25,-0.28,-0.06,0.14,0.96,
1.342,0.02,-0.25,-0.28,-0.06,0.14,0.96,
1.343,-0.03,-0.25,-0.19,-0.06,0.14,0.96,
1.343,-0.03,-0.25,-0.19,-0.06,0.14,0.97,
1.345,-0.03,-0.25,-0.19,-0.07,0.14,0.97,
1.346,-0.11,-0.25,-0.12,-0.07,0.14,0.97,
1.347,-0.11,-0.25,-0.12,-0.07,0.14,0.97,
1.35,-0.11,-0.25,-0.12,-0.07,0.14,0.98,
1.351,-0.15,-0.25,-0.03,-0.07,0.14,0.98,
1.353,-0.15,-0.25,-0.03,-0.08,0.14,0.98,
1.355,-0.15,-0.25,-0.03,-0.08,0.14,0.98,
1.355,-0.21,-0.27,0.04,-0.08,0.14,0.98,
1.358,-0.21,-0.27,0.04,-0.08,0.13,0.98,
1.36,-0.21,-0.27,0.04,-0.08,0.13,0.98,
1.361,-0.28,-0.28,0.11,-0.08,0.13,0.98,
1.362,-0.28,-0.28,0.11,-0.09,0.14,0.98,
1.365,-0.28,-0.28,0.11,-0.09,0.14,0.99,
1.365,-0.31,-0.30,0.12,-0.09,0.14,0.99,
1.367,-0.31,-0.30,0.12,-0.09,0.13,0.98,
1.37,-0.31,-0.30,0.12,-0.09,0.13,0.98,
1.37,-0.35,-0.29,0.15,-0.09,0.13,0.98,
1.372,-0.35,-0.29,0.15,-0.09,0.14,0.98,
1.375,-0.37,-0.31,0.14,-0.09,0.14,0.98,
1.376,-0.37,-0.31,0.14,-0.09,0.14,0.98,
1.377,-0.37,-0.31,0.14,-0.09,0.13,0.97,
1.38,-0.37,-0.31,0.14,-0.09,0.14,0.97,
1.38,-0.39,-0.29,0.09,-0.09,0.14,0.97,
1.382,-0.39,-0.29,0.09,-0.09,0.14,0.96,
1.385,-0.39,-0.29,0.09,-0.09,0.13,0.95,
1.385,-0.40,-0.30,-0.00,-0.09,0.13,0.95,
1.387,-0.40,-0.30,-0.00,-0.09,0.14,0.95,
1.389,-0.40,-0.30,-0.00,-0.09,0.14,0.94,
1.39,-0.42,-0.31,-0.12,-0.09,0.14,0.94,
1.392,-0.42,-0.31,-0.12,-0.09,0.14,0.93,
1.395,-0.42,-0.31,-0.12,-0.09,0.14,0.93,
1.395,-0.41,-0.31,-0.25,-0.09,0.14,0.93,
1.397,-0.41,-0.31,-0.25,-0.09,0.14,0.92,
1.399,-0.41,-0.31,-0.25,-0.09,0.14,0.91,
1.4,-0.42,-0.30,-0.39,-0.09,0.14,0.91,
1.402,-0.42,-0.30,-0.39,-0.09,0.14,0.91,
1.404,-0.42,-0.30,-0.39,-0.09,0.14,0.90,
1.405,-0.43,-0.30,-0.51,-0.09,0.14,0.90,
1.407,-0.43,-0.30,-0.51,-0.09,0.14,0.89,
1.409,-0.43,-0.30,-0.51,-0.09,0.14,0.89,
1.409,-0.44,-0.29,-0.63,-0.09,0.14,0.89,
1.411,-0.44,-0.29,-0.63,-0.09,0.14,0.88,
1.414,-0.44,-0.29,-0.63,-0.09,0.14,0.88,
1.414,-0.46,-0.29,-0.74,-0.09,0.14,0.88,
1.416,-0.46,-0.29,-0.74,-0.09,0.14,0.87,
1.419,-0.46,-0.29,-0.74,-0.09,0.14,0.87,
1.419,-0.43,-0.29,-0.85,-0.09,0.14,0.87,
1.421,-0.43,-0.29,-0.85,-0.09,0.13,0.87,
1.424,-0.43,-0.29,-0.85,-0.09,0.13,0.87,
1.425,-0.44,-0.31,-0.92,-0.09,0.13,0.87,
1.426,-0.44,-0.31,-0.92,-0.09,0.13,0.86,
1.429,-0.44,-0.31,-0.92,-0.09,0.13,0.86,
1.429,-0.46,-0.33,-0.96,-0.09,0.13,0.86,
1.431,-0.46,-0.33,-0.96,-0.09,0.12,0.86,
1.434,-0.46,-0.33,-0.96,-0.09,0.12,0.87,
1.434,-0.46,-0.36,-0.98,-0.09,0.12,0.87,
1.436,-0.46,-0.36,-0.98,-0.09,0.12,0.87,
1.439,-0.45,-0.41,-0.97,-0.09,0.12,0.87,
1.439,-0.45,-0.41,-0.97,-0.09,0.12,0.87,
1.446,-0.45,-0.41,-0.97,-0.09,0.12,0.87,
1.447,-0.45,-0.41,-0.97,-0.08,0.12,0.88,
1.447,-0.42,-0.42,-0.91,-0.08,0.12,0.88,
1.447,-0.42,-0.42,-0.91,-0.08,0.12,0.88,
1.448,-0.42,-0.42,-0.91,-0.08,0.12,0.89,
1.449,-0.38,-0.42,-0.84,-0.08,0.12,0.89,
1.45,-0.38,-0.42,-0.84,-0.08,0.12,0.89,
1.453,-0.38,-0.42,-0.84,-0.08,0.12,0.90,
1.453,-0.37,-0.45,-0.73,-0.08,0.12,0.90,
1.456,-0.37,-0.45,-0.73,-0.08,0.11,0.91,
1.458,-0.37,-0.45,-0.73,-0.08,0.11,0.91,
1.458,-0.35,-0.45,-0.62,-0.08,0.11,0.91,
1.46,-0.35,-0.45,-0.62,-0.08,0.11,0.92,
1.463,-0.35,-0.45,-0.62,-0.08,0.11,0.92,
1.463,-0.35,-0.48,-0.51,-0.08,0.11,0.92,
1.465,-0.35,-0.48,-0.51,-0.09,0.11,0.93,
1.468,-0.35,-0.48,-0.51,-0.09,0.11,0.93,
1.468,-0.37,-0.49,-0.40,-0.09,0.11,0.93,
1.47,-0.37,-0.49,-0.40,-0.09,0.11,0.94,
1.475,-0.37,-0.49,-0.40,-0.09,0.11,0.94,
1.476,-0.41,-0.49,-0.30,-0.09,0.11,0.94,
1.476,-0.41,-0.49,-0.30,-0.10,0.11,0.94,
1.478,-0.41,-0.49,-0.30,-0.10,0.11,0.95,
1.478,-0.45,-0.50,-0.21,-0.10,0.11,0.95,
1.48,-0.45,-0.50,-0.21,-0.10,0.11,0.95,
1.482,-0.45,-0.50,-0.21,-0.10,0.11,0.95,
1.483,-0.48,-0.51,-0.14,-0.10,0.11,0.95,
1.485,-0.48,-0.51,-0.14,-0.11,0.10,0.96,
1.487,-0.48,-0.51,-0.14,-0.11,0.10,0.96,
1.487,-0.52,-0.50,-0.07,-0.11,0.10,0.96,
1.49,-0.52,-0.50,-0.07,-0.11,0.10,0.96,
1.492,-0.52,-0.50,-0.07,-0.12,0.10,0.96,
1.495,-0.58,-0.50,-0.02,-0.12,0.10,0.96,
1.496,-0.58,-0.50,-0.02,-0.12,0.10,0.97,
1.497,-0.58,-0.50,-0.02,-0.12,0.10,0.96,
1.497,-0.63,-0.53,0.03,-0.12,0.10,0.96,
1.5,-0.63,-0.53,0.03,-0.12,0.10,0.97,
1.502,-0.63,-0.53,0.03,-0.12,0.09,0.96,
1.502,-0.67,-0.54,0.04,-0.12,0.09,0.96,
1.504,-0.67,-0.54,0.04,-0.12,0.09,0.96,
1.507,-0.67,-0.54,0.04,-0.12,0.09,0.96,
1.508,-0.68,-0.56,0.04,-0.12,0.09,0.96,
1.509,-0.68,-0.56,0.04,-0.12,0.09,0.96,
1.512,-0.68,-0.56,0.04,-0.12,0.09,0.96,
1.512,-0.69,-0.59,0.03,-0.12,0.09,0.96,
1.514,-0.69,-0.59,0.03,-0.12,0.09,0.96,
1.517,-0.69,-0.59,0.03,-0.12,0.09,0.96,
1.517,-0.67,-0.60,0.02,-0.12,0.09,0.96,
1.519,-0.67,-0.60,0.02,-0.12,0.09,0.97,
1.522,-0.67,-0.60,0.02,-0.12,0.09,0.97,
1.522,-0.65,-0.61,0.04,-0.12,0.09,0.97,
1.524,-0.65,-0.61,0.04,-0.11,0.09,0.97,
1.526,-0.65,-0.61,0.04,-0.11,0.09,0.98,
1.526,-0.65,-0.60,0.08,-0.11,0.09,0.98,
1.529,-0.65,-0.60,0.08,-0.11,0.09,0.98,
1.531,-0.65,-0.60,0.08,-0.11,0.09,0.98,
1.531,-0.59,-0.61,0.14,-0.11,0.09,0.98,
1.534,-0.59,-0.61,0.14,-0.11,0.09,0.98,
1.536,-0.59,-0.61,0.14,-0.10,0.09,0.98,
1.536,-0.57,-0.59,0.17,-0.10,0.09,0.98,
1.538,-0.57,-0.59,0.17,-0.10,0.09,0.98,
1.544,-0.57,-0.59,0.17,-0.10,0.09,0.98,
1.544,-0.53,-0.57,0.21,-0.10,0.09,0.98,
1.545,-0.53,-0.57,0.21,-0.10,0.09,0.98,
1.546,-0.47,-0.56,0.22,-0.10,0.09,0.98,
1.546,-0.47,-0.56,0.22,-0.09,0.09,0.99,
1.548,-0.47,-0.56,0.22,-0.09,0.09,0.98,
1.551,-0.47,-0.56,0.22,-0.09,0.09,0.98,
1.551,-0.42,-0.58,0.22,-0.09,0.09,0.98,
1.553,-0.42,-0.58,0.22,-0.08,0.08,0.98,
1.556,-0.42,-0.58,0.22,-0.08,0.08,0.98,
1.556,-0.37,-0.58,0.21,-0.08,0.08,0.98,
1.558,-0.37,-0.58,0.21,-0.08,0.08,0.98,
1.561,-0.37,-0.58,0.21,-0.08,0.08,0.98,
1.561,-0.33,-0.59,0.20,-0.08,0.08,0.98,
1.563,-0.33,-0.59,0.20,-0.08,0.08,0.98,
1.565,-0.33,-0.59,0.20,-0.08,0.08,0.98,
1.566,-0.30,-0.61,0.19,-0.08,0.08,0.98,
1.568,-0.30,-0.61,0.19,-0.08,0.08,0.98,
1.57,-0.30,-0.61,0.19,-0.07,0.07,0.98,
1.571,-0.30,-0.64,0.17,-0.07,0.07,0.98,
1.573,-0.30,-0.64,0.17,-0.08,0.07,0.98,
1.576,-0.30,-0.64,0.17,-0.08,0.07,0.98,
1.576,-0.28,-0.65,0.16,-0.08,0.07,0.98,
1.578,-0.28,-0.65,0.16,-0.08,0.07,0.98,
1.58,-0.28,-0.65,0.16,-0.08,0.06,0.98,
1.581,-0.28,-0.70,0.14,-0.08,0.06,0.98,
1.582,-0.28,-0.70,0.14,-0.08,0.06,0.98,
1.585,-0.28,-0.70,0.14,-0.08,0.06,0.98,
1.585,-0.30,-0.75,0.14,-0.08,0.06,0.98,
1.587,-0.30,-0.75,0.14,-0.08,0.06,0.98,
1.59,-0.30,-0.75,0.14,-0.08,0.05,0.98,
1.591,-0.28,-0.80,0.16,-0.08,0.05,0.98,
1.593,-0.28,-0.80,0.16,-0.07,0.06,0.98,
1.595,-0.28,-0.80,0.16,-0.07,0.05,0.99,
1.595,-0.29,-0.80,0.17,-0.07,0.05,0.99,
1.597,-0.29,-0.80,0.17,-0.07,0.05,0.99,
1.6,-0.29,-0.80,0.17,-0.07,0.05,0.99,
1.6,-0.24,-0.80,0.20,-0.07,0.05,0.99,
1.602,-0.24,-0.80,0.20,-0.07,0.05,1.00,
1.605,-0.24,-0.80,0.20,-0.07,0.05,1.00,
1.605,-0.23,-0.80,0.25,-0.07,0.05,1.00,
1.607,-0.23,-0.80,0.25,-0.07,0.05,1.00,
1.61,-0.23,-0.80,0.25,-0.07,0.05,1.01,
1.61,-0.20,-0.78,0.33,-0.07,0.05,1.01,
1.612,-0.20,-0.78,0.33,-0.07,0.05,1.01,
1.614,-0.20,-0.78,0.33,-0.08,0.05,1.01,
1.615,-0.23,-0.77,0.38,-0.08,0.05,1.01,
1.617,-0.23,-0.77,0.38,-0.08,0.05,1.02,
1.619,-0.23,-0.77,0.38,-0.08,0.05,1.02,
1.62,-0.28,-0.78,0.43,-0.08,0.05,1.02,
1.622,-0.28,-0.78,0.43,-0.08,0.05,1.02,
1.628,-0.28,-0.78,0.43,-0.08,0.06,1.02,
1.629,-0.32,-0.77,0.49,-0.08,0.06,1.02,
1.632,-0.32,-0.77,0.49,-0.09,0.06,1.02,
1.632,-0.32,-0.77,0.49,-0.09,0.05,1.02,
1.633,-0.35,-0.74,0.52,-0.09,0.05,1.02,
1.633,-0.35,-0.74,0.52,-0.09,0.06,1.02,
1.634,-0.35,-0.74,0.52,-0.09,0.06,1.02,
1.635,-0.37,-0.73,0.51,-0.09,0.06,1.02,
1.636,-0.37,-0.73,0.51,-0.09,0.06,1.01,
1.64,-0.37,-0.73,0.51,-0.09,0.06,1.01,
1.64,-0.39,-0.70,0.49,-0.09,0.06,1.01,
1.641,-0.39,-0.70,0.49,-0.09,0.06,1.01,
1.644,-0.39,-0.70,0.49,-0.09,0.06,1.01,
1.645,-0.39,-0.69,0.44,-0.09,0.06,1.01,
1.646,-0.39,-0.69,0.44,-0.09,0.06,1.00,
1.649,-0.39,-0.69,0.44,-0.09,0.06,1.00,
1.649,-0.40,-0.68,0.39,-0.09,0.06,1.00,
1.651,-0.40,-0.68,0.39,-0.09,0.06,0.99,
1.654,-0.40,-0.68,0.39,-0.09,0.06,0.99,
1.654,-0.43,-0.68,0.31,-0.09,0.06,0.99,
1.657,-0.43,-0.68,0.31,-0.09,0.06,0.99,
1.659,-0.43,-0.68,0.31,-0.09,0.06,0.99,
1.659,-0.45,-0.69,0.23,-0.09,0.06,0.99,
1.661,-0.45,-0.69,0.23,-0.09,0.06,0.98,
1.663,-0.45,-0.69,0.23,-0.09,0.06,0.98,
1.664,-0.45,-0.67,0.17,-0.09,0.06,0.98,
1.666,-0.45,-0.67,0.17,-0.09,0.06,0.98,
1.668,-0.45,-0.67,0.17,-0.09,0.05,0.98,
1.668,-0.47,-0.65,0.11,-0.09,0.05,0.98,
1.67,-0.47,-0.65,0.11,-0.09,0.05,0.97,
1.673,-0.47,-0.65,0.11,-0.09,0.05,0.98,
1.674,-0.43,-0.68,0.06,-0.09,0.05,0.98,
1.675,-0.43,-0.68,0.06,-0.09,0.05,0.98,
1.679,-0.43,-0.68,0.06,-0.08,0.05,0.98,
1.679,-0.41,-0.69,0.06,-0.08,0.05,0.98,
1.68,-0.41,-0.69,0.06,-0.08,0.04,0.98,
1.683,-0.41,-0.69,0.06,-0.08,0.04,0.99,
1.683,-0.37,-0.73,0.09,-0.08,0.04,0.99,
1.685,-0.37,-0.73,0.09,-0.08,0.04,0.99,
1.688,-0.37,-0.73,0.09,-0.08,0.04,0.99,
1.688,-0.33,-0.76,0.15,-0.08,0.04,0.99,
1.69,-0.33,-0.76,0.15,-0.08,0.04,1.00,
1.693,-0.33,-0.76,0.15,-0.08,0.04,1.00,
1.693,-0.29,-0.80,0.21,-0.08,0.04,1.00,
1.695,-0.29,-0.80,0.21,-0.07,0.03,1.01,
1.698,-0.29,-0.80,0.21,-0.08,0.03,1.02,
1.698,-0.29,-0.82,0.31,-0.08,0.03,1.02,
1.7,-0.29,-0.82,0.31,-0.08,0.03,1.02,
1.703,-0.29,-0.82,0.31,-0.07,0.03,1.02,
1.703,-0.26,-0.84,0.41,-0.07,0.03,1.02,
1.706,-0.26,-0.84,0.41,-0.07,0.03,1.03,
1.708,-0.26,-0.84,0.41,-0.07,0.03,1.03,
1.708,-0.25,-0.85,0.48,-0.07,0.03,1.03,
1.71,-0.25,-0.85,0.48,-0.07,0.03,1.03,
1.713,-0.25,-0.85,0.48,-0.07,0.03,1.03,
1.713,-0.23,-0.84,0.56,-0.07,0.03,1.03,
1.715,-0.23,-0.84,0.56,-0.07,0.03,1.03,
1.717,-0.23,-0.84,0.56,-0.07,0.03,1.03,
1.718,-0.20,-0.83,0.59,-0.07,0.03,1.03,
1.719,-0.20,-0.83,0.59,-0.07,0.03,1.03,
1.728,-0.20,-0.83,0.59,-0.07,0.03,1.03,
1.728,-0.20,-0.84,0.59,-0.07,0.03,1.03,
1.729,-0.20,-0.84,0.59,-0.07,0.03,1.03,
1.729,-0.20,-0.84,0.59,-0.07,0.03,1.03,
1.729,-0.20,-0.83,0.56,-0.07,0.03,1.03,
1.73,-0.20,-0.83,0.56,-0.07,0.03,1.02,
1.732,-0.20,-0.83,0.56,-0.06,0.03,1.02,
1.732,-0.19,-0.83,0.51,-0.06,0.03,1.02,
1.734,-0.19,-0.83,0.51,-0.06,0.03,1.02,
1.737,-0.19,-0.83,0.51,-0.06,0.03,1.01,
1.737,-0.17,-0.83,0.45,-0.06,0.03,1.01,
1.739,-0.17,-0.83,0.45,-0.06,0.03,1.01,
1.742,-0.17,-0.83,0.45,-0.06,0.03,1.01,
1.742,-0.15,-0.81,0.39,-0.06,0.03,1.01,
1.744,-0.15,-0.81,0.39,-0.06,0.03,1.00,
1.747,-0.15,-0.81,0.39,-0.06,0.03,1.00,
1.747,-0.14,-0.81,0.32,-0.06,0.03,1.00,
1.749,-0.14,-0.81,0.32,-0.06,0.03,0.99,
1.751,-0.14,-0.81,0.32,-0.06,0.03,0.99,
1.752,-0.16,-0.80,0.22,-0.06,0.03,0.99,
1.754,-0.16,-0.80,0.22,-0.06,0.03,0.98,
1.756,-0.16,-0.80,0.22,-0.05,0.03,0.98,
1.757,-0.17,-0.80,0.13,-0.05,0.03,0.98,
1.759,-0.17,-0.80,0.13,-0.05,0.03,0.98,
1.761,-0.17,-0.80,0.13,-0.05,0.03,0.98,
1.761,-0.13,-0.79,0.07,-0.05,0.03,0.98,
1.764,-0.13,-0.79,0.07,-0.05,0.03,0.97,
1.766,-0.13,-0.79,0.07,-0.05,0.03,0.97,
1.766,-0.11,-0.75,0.01,-0.05,0.03,0.97,
1.768,-0.11,-0.75,0.01,-0.04,0.03,0.97,
1.771,-0.11,-0.75,0.01,-0.04,0.03,0.97,
1.771,-0.06,-0.73,-0.03,-0.04,0.03,0.97,
1.774,-0.06,-0.73,-0.03,-0.04,0.03,0.97,
1.776,-0.06,-0.73,-0.03,-0.03,0.03,0.98,
1.777,-0.01,-0.69,-0.03,-0.03,0.03,0.98,
1.778,-0.01,-0.69,-0.03,-0.03,0.04,0.98,
1.781,-0.01,-0.69,-0.03,-0.03,0.04,0.98,
1.781,0.05,-0.65,-0.01,-0.03,0.04,0.98,
1.783,0.05,-0.65,-0.01,-0.03,0.04,0.98,
1.786,0.05,-0.65,-0.01,-0.03,0.04,0.98,
1.786,0.10,-0.59,0.01,-0.03,0.04,0.98,
1.788,0.10,-0.59,0.01,-0.03,0.04,0.99,
1.791,0.10,-0.59,0.01,-0.03,0.04,0.99,
1.791,0.10,-0.56,0.06,-0.03,0.04,0.99,
1.793,0.10,-0.56,0.06,-0.03,0.04,0.99,
1.796,0.10,-0.56,0.06,-0.03,0.04,1.00,
1.796,0.09,-0.54,0.10,-0.03,0.04,1.00,
1.798,0.09,-0.54,0.10,-0.04,0.05,1.00,
1.8,0.09,-0.54,0.10,-0.04,0.05,1.00,
1.801,0.07,-0.51,0.16,-0.04,0.05,1.00,
1.803,0.07,-0.51,0.16,-0.04,0.05,1.01,
1.806,0.07,-0.51,0.16,-0.05,0.05,1.01,
1.806,0.01,-0.47,0.23,-0.05,0.05,1.01,
1.808,0.01,-0.47,0.23,-0.05,0.05,1.01,
1.81,0.01,-0.47,0.23,-0.05,0.05,1.01,
1.81,-0.06,-0.43,0.29,-0.05,0.05,1.01,
1.812,-0.06,-0.43,0.29,-0.05,0.05,1.02,
1.815,-0.06,-0.43,0.29,-0.06,0.06,1.02,
1.816,-0.11,-0.40,0.35,-0.06,0.06,1.02,
1.817,-0.11,-0.40,0.35,-0.06,0.06,1.02,
1.82,-0.11,-0.40,0.35,-0.06,0.06,1.02,
1.82,-0.15,-0.37,0.38,-0.06,0.06,1.02,
1.823,-0.15,-0.37,0.38,-0.06,0.06,1.02,
1.825,-0.15,-0.37,0.38,-0.06,0.06,1.02,
1.826,-0.17,-0.33,0.40,-0.06,0.06,1.02,
1.827,-0.17,-0.33,0.40,-0.07,0.06,1.02,
1.83,-0.17,-0.33,0.40,-0.07,0.07,1.02,
1.83,-0.21,-0.31,0.39,-0.07,0.07,1.02,
1.832,-0.21,-0.31,0.39,-0.07,0.07,1.02,
1.835,-0.21,-0.31,0.39,-0.07,0.07,1.02,
1.835,-0.26,-0.26,0.38,-0.07,0.07,1.02,
1.837,-0.26,-0.26,0.38,-0.07,0.07,1.01,
1.845,-0.26,-0.26,0.38,-0.07,0.07,1.01,
1.846,-0.28,-0.24,0.36,-0.07,0.07,1.01,
1.846,-0.28,-0.24,0.36,-0.07,0.08,1.01,
1.846,-0.28,-0.24,0.36,-0.07,0.08,1.01,
1.846,-0.28,-0.20,0.33,-0.07,0.08,1.01,
1.847,-0.28,-0.20,0.33,-0.08,0.08,1.01,
1.85,-0.28,-0.20,0.33,-0.08,0.08,1.01,
1.85,-0.29,-0.15,0.32,-0.08,0.08,1.01,
1.852,-0.29,-0.15,0.32,-0.07,0.08,1.01,
1.856,-0.29,-0.15,0.32,-0.07,0.09,1.00,
1.856,-0.32,-0.13,0.29,-0.07,0.09,1.00,
1.857,-0.32,-0.13,0.29,-0.07,0.09,1.00,
1.859,-0.32,-0.13,0.29,-0.07,0.09,1.00,
1.859,-0.30,-0.10,0.25,-0.07,0.09,1.00,
1.861,-0.30,-0.10,0.25,-0.07,0.08,1.00,
1.864,-0.30,-0.10,0.25,-0.07,0.09,0.99,
1.864,-0.29,-0.08,0.20,-0.07,0.09,0.99,
1.866,-0.29,-0.08,0.20,-0.06,0.09,0.99,
1.869,-0.29,-0.08,0.20,-0.06,0.09,0.99,
1.869,-0.26,-0.08,0.15,-0.06,0.09,0.99,
1.872,-0.26,-0.08,0.15,-0.06,0.09,0.99,
1.874,-0.26,-0.08,0.15,-0.06,0.09,0.98,
1.874,-0.19,-0.07,0.09,-0.06,0.09,0.98,
1.876,-0.19,-0.07,0.09,-0.05,0.09,0.98,
1.879,-0.19,-0.07,0.09,-0.05,0.09,0.98,
1.879,-0.14,-0.06,0.04,-0.05,0.09,0.98,
1.881,-0.14,-0.06,0.04,-0.05,0.09,0.98,
1.884,-0.14,-0.06,0.04,-0.05,0.08,0.97,
1.884,-0.09,-0.07,-0.01,-0.05,0.08,0.97,
1.886,-0.09,-0.07,-0.01,-0.05,0.08,0.97,
1.888,-0.09,-0.07,-0.01,-0.05,0.08,0.97,
1.889,-0.07,-0.09,-0.05,-0.05,0.08,0.97,
1.891,-0.07,-0.09,-0.05,-0.04,0.08,0.97,
1.894,-0.07,-0.09,-0.05,-0.04,0.08,0.97,
1.894,-0.04,-0.10,-0.08,-0.04,0.08,0.97,
1.896,-0.04,-0.10,-0.08,-0.04,0.08,0.97,
1.898,-0.04,-0.10,-0.08,-0.04,0.08,0.97,
1.899,-0.01,-0.12,-0.08,-0.04,0.08,0.97,
1.901,-0.01,-0.12,-0.08,-0.04,0.08,0.97,
1.903,-0.01,-0.12,-0.08,-0.04,0.07,0.97,
1.904,0.02,-0.13,-0.08,-0.04,0.07,0.97,
1.906,0.02,-0.13,-0.08,-0.03,0.07,0.98,
1.908,0.02,-0.13,-0.08,-0.04,0.07,0.97,
1.908,0.05,-0.18,-0.09,-0.04,0.07,0.97,
1.91,0.05,-0.18,-0.09,-0.04,0.07,0.97,
1.913,0.05,-0.18,-0.09,-0.04,0.07,0.97,
1.914,0.06,-0.18,-0.05,-0.04,0.07,0.97,
1.915,0.06,-0.18,-0.05,-0.04,0.07,0.98,
1.918,0.06,-0.18,-0.05,-0.04,0.07,0.98,
1.918,0.03,-0.19,-0.05,-0.04,0.07,0.98,
1.92,0.03,-0.19,-0.05,-0.04,0.07,0.98,
1.927,0.03,-0.19,-0.05,-0.04,0.07,0.98,
1.927,0.04,-0.23,-0.04,-0.04,0.07,0.98,
1.927,0.04,-0.23,-0.04,-0.04,0.07,0.98,
1.928,0.04,-0.23,-0.04,-0.04,0.07,0.98,
1.928,0.06,-0.22,-0.03,-0.04,0.07,0.98,
1.93,0.06,-0.22,-0.03,-0.04,0.07,0.98,
1.933,0.06,-0.22,-0.03,-0.04,0.07,0.98,
1.933,0.05,-0.22,-0.03,-0.04,0.07,0.98,
1.935,0.05,-0.22,-0.03,-0.04,0.07,0.98,
1.938,0.05,-0.22,-0.03,-0.04,0.07,0.98,
1.939,0.03,-0.20,-0.03,-0.04,0.07,0.98,
1.94,0.03,-0.20,-0.03,-0.04,0.07,0.98,
1.943,0.03,-0.20,-0.03,-0.04,0.07,0.98,
1.943,0.04,-0.16,-0.02,-0.04,0.07,0.98,
1.945,0.04,-0.16,-0.02,-0.04,0.07,0.98,
1.947,0.04,-0.16,-0.02,-0.04,0.08,0.98,
1.948,0.03,-0.15,-0.03,-0.04,0.08,0.98,
1.95,0.03,-0.15,-0.03,-0.04,0.08,0.98,
1.953,0.03,-0.15,-0.03,-0.04,0.08,0.97,
1.953,0.03,-0.13,-0.04,-0.04,0.08,0.97,
1.955,0.03,-0.13,-0.04,-0.04,0.08,0.97,
1.958,0.03,-0.13,-0.04,-0.04,0.08,0.97,
1.958,0.01,-0.10,-0.05,-0.04,0.08,0.97,
1.96,0.01,-0.10,-0.05,-0.04,0.08,0.97,
1.962,-0.01,-0.09,-0.09,-0.04,0.08,0.97,
1.963,-0.01,-0.09,-0.09,-0.05,0.08,0.97,
1.964,-0.01,-0.09,-0.09,-0.05,0.08,0.97,
1.967,-0.01,-0.09,-0.09,-0.04,0.09,0.97,
1.967,-0.04,-0.08,-0.11,-0.04,0.09,0.97,
1.97,-0.04,-0.08,-0.11,-0.04,0.09,0.97,
1.972,-0.03,-0.04,-0.11,-0.04,0.09,0.97,
1.973,-0.03,-0.04,-0.11,-0.04,0.09,0.97,
1.974,-0.03,-0.04,-0.11,-0.04,0.09,0.97,
1.978,-0.03,-0.04,-0.11,-0.04,0.09,0.97,
1.978,-0.03,-0.02,-0.13,-0.04,0.09,0.97,
1.979,-0.03,-0.02,-0.13,-0.04,0.09,0.96,
1.982,-0.03,-0.02,-0.13,-0.04,0.08,0.96,
1.984,-0.02,-0.02,-0.13,-0.04,0.08,0.96,
1.984,-0.02,-0.02,-0.13,-0.04,0.08,0.96,
1.987,-0.01,-0.04,-0.16,-0.04,0.08,0.96,
1.987,-0.01,-0.04,-0.16,-0.04,0.08,0.96,
1.989,-0.01,-0.04,-0.16,-0.04,0.09,0.96,
1.992,-0.01,-0.04,-0.16,-0.04,0.09,0.96,
1.992,0.01,-0.04,-0.17,-0.04,0.09,0.96,
1.994,0.01,-0.04,-0.17,-0.04,0.09,0.96,
1.996,0.01,-0.04,-0.17,-0.04,0.09,0.96,
1.997,0.01,-0.03,-0.18,-0.04,0.09,0.96,
1.999,0.01,-0.03,-0.18,-0.03,0.09,0.96,
2.001,0.01,-0.03,-0.18,-0.03,0.08,0.92,
2.002,0.06,-0.02,-0.18,-0.03,0.08,0.92,
2.004,0.06,-0.02,-0.18,-0.03,0.09,0.88,
2.007,0.06,-0.02,-0.18,-0.03,0.09,0.85,
2.007,0.09,-0.03,-0.37,-0.03,0.09,0.85,
2.009,0.09,-0.03,-0.37,-0.03,0.10,0.84,
2.011,0.09,-0.03,-0.37,-0.03,0.10,0.84,
2.012,0.10,-0.00,-1.12,-0.03,0.10,0.84,
2.014,0.10,-0.00,-1.12,-0.02,0.11,0.84,
2.016,0.10,-0.00,-1.12,-0.02,0.11,0.85,
2.016,0.14,0.13,-1.36,-0.02,0.11,0.85,
2.018,0.14,0.13,-1.36,-0.02,0.11,0.86,
2.025,0.14,0.13,-1.36,-0.01,0.10,0.87,
2.025,0.22,0.22,-1.27,-0.01,0.10,0.87,
2.025,0.22,0.22,-1.27,-0.01,0.10,0.89,
2.026,0.22,0.22,-1.27,-0.02,0.09,0.90,
2.026,0.30,0.21,-1.06,-0.02,0.09,0.90,
2.028,0.30,0.21,-1.06,-0.02,0.09,0.91,
2.031,0.30,0.21,-1.06,-0.03,0.08,0.93,
2.031,0.30,0.12,-0.80,-0.03,0.08,0.93,
2.033,0.30,0.12,-0.80,-0.04,0.07,0.94,
2.035,0.30,0.12,-0.80,-0.05,0.07,0.96,
2.036,0.18,0.02,-0.54,-0.05,0.07,0.96,
2.038,0.18,0.02,-0.54,-0.05,0.07,0.98,
2.04,0.18,0.02,-0.54,-0.06,0.06,1.00,
2.041,0.04,-0.07,-0.23,-0.06,0.06,1.00,
2.043,0.04,-0.07,-0.23,-0.06,0.06,1.02,
2.045,0.04,-0.07,-0.23,-0.06,0.06,1.04,
2.045,-0.06,-0.11,0.14,-0.06,0.06,1.04,
2.048,-0.06,-0.11,0.14,-0.06,0.06,1.05,
2.05,-0.06,-0.11,0.14,-0.06,0.06,1.06,
2.05,-0.12,-0.11,0.51,-0.06,0.06,1.06,
2.052,-0.12,-0.11,0.51,-0.06,0.06,1.08,
2.056,-0.12,-0.11,0.51,-0.06,0.06,1.08,
2.056,-0.17,-0.11,0.81,-0.06,0.06,1.08,
2.058,-0.17,-0.11,0.81,-0.06,0.06,1.09,
2.06,-0.17,-0.11,0.81,-0.06,0.06,1.09,
2.06,-0.17,-0.10,1.01,-0.06,0.06,1.09,
2.062,-0.17,-0.10,1.01,-0.05,0.06,1.08,
2.065,-0.17,-0.10,1.01,-0.05,0.07,1.08,
2.065,-0.14,-0.08,1.07,-0.05,0.07,1.08,
2.067,-0.14,-0.08,1.07,-0.04,0.07,1.07,
2.07,-0.14,-0.08,1.07,-0.04,0.07,1.06,
2.071,-0.06,-0.06,1.01,-0.04,0.07,1.06,
2.073,-0.06,-0.06,1.01,-0.04,0.07,1.06,
2.075,-0.06,-0.06,1.01,-0.03,0.07,1.05,
2.075,0.03,-0.04,0.87,-0.03,0.07,1.05,
2.077,0.03,-0.04,0.87,-0.03,0.07,1.05,
2.08,0.03,-0.04,0.87,-0.03,0.07,1.04,
2.08,0.12,-0.04,0.74,-0.03,0.07,1.04,
2.082,0.12,-0.04,0.74,-0.02,0.07,1.03,
2.085,0.12,-0.04,0.74,-0.02,0.07,1.03,
2.085,0.18,-0.01,0.62,-0.02,0.07,1.03,
2.087,0.18,-0.01,0.62,-0.02,0.08,1.02,
