
time,ax,ay,az,gFx,gFy,gFz,
0.002,-0.08,0.09,-0.07,-0.04,0.09,0.97,
0.002,-0.08,0.09,-0.07,-0.04,0.09,0.97,
0.002,-0.05,0.11,-0.10,-0.04,0.09,0.97,
0.002,-0.05,0.11,-0.10,-0.04,0.09,0.97,
0.003,-0.05,0.11,-0.10,-0.03,0.09,0.97,
0.004,-0.03,0.09,-0.12,-0.03,0.09,0.97,
0.006,-0.03,0.09,-0.12,-0.03,0.09,0.97,
0.008,-0.03,0.09,-0.12,-0.03,0.09,0.97,
0.009,-0.01,0.08,-0.13,-0.03,0.09,0.97,
0.011,-0.01,0.08,-0.13,-0.03,0.09,0.97,
0.013,-0.01,0.08,-0.13,-0.03,0.09,0.97,
0.013,0.00,0.06,-0.13,-0.03,0.09,0.97,
0.016,0.00,0.06,-0.13,-0.03,0.08,0.97,
0.018,0.00,0.04,-0.13,-0.03,0.08,0.97,
0.019,0.00,0.04,-0.13,-0.03,0.08,0.97,
0.02,0.00,0.04,-0.13,-0.03,0.08,0.97,
0.023,0.00,0.04,-0.13,-0.03,0.09,0.97,
0.023,0.01,0.02,-0.12,-0.03,0.09,0.97,
0.025,0.01,0.02,-0.12,-0.03,0.09,0.97,
0.03,0.01,0.02,-0.12,-0.04,0.08,0.98,
0.03,0.00,0.03,-0.08,-0.04,0.08,0.98,
0.031,0.00,0.03,-0.08,-0.04,0.08,0.98,
0.034,0.00,0.03,-0.08,-0.04,0.08,0.98,
0.034,-0.01,0.04,-0.04,-0.04,0.08,0.98,
0.035,-0.01,0.04,-0.04,-0.04,0.08,0.98,
0.038,-0.01,0.04,-0.04,-0.04,0.08,0.98,
0.038,-0.03,0.02,0.01,-0.04,0.08,0.98,
0.04,-0.03,0.02,0.01,-0.04,0.08,0.98,
0.042,-0.03,0.02,0.01,-0.04,0.08,0.98,
0.043,-0.03,0.02,0.03,-0.04,0.08,0.98,
0.045,-0.03,0.02,0.03,-0.04,0.08,0.98,
0.047,-0.03,0.02,0.03,-0.04,0.09,0.98,
0.048,-0.04,0.02,0.05,-0.04,0.09,0.98,
0.05,-0.04,0.02,0.05,-0.04,0.09,0.98,
0.053,-0.04,0.02,0.05,-0.04,0.09,0.98,
0.053,-0.06,0.03,0.03,-0.04,0.09,0.98,
0.055,-0.06,0.03,0.03,-0.04,0.09,0.98,
0.057,-0.06,0.03,0.03,-0.04,0.09,0.98,
0.057,-0.04,0.05,0.02,-0.04,0.09,0.98,
0.067,-0.04,0.05,0.02,-0.04,0.09,0.98,
0.068,-0.04,0.05,0.02,-0.04,0.09,0.97,
0.068,-0.06,0.09,-0.01,-0.04,0.09,0.97,
0.068,-0.06,0.09,-0.01,-0.04,0.09,0.97,
0.068,-0.06,0.09,-0.01,-0.04,0.09,0.97,
0.068,-0.05,0.10,-0.03,-0.04,0.09,0.97,
0.07,-0.05,0.10,-0.03,-0.04,0.09,0.97,
0.072,-0.05,0.10,-0.03,-0.04,0.09,0.97,
0.072,-0.07,0.11,-0.04,-0.04,0.09,0.97,
0.074,-0.07,0.11,-0.04,-0.04,0.09,0.97,
0.077,-0.07,0.11,-0.04,-0.04,0.09,0.97,
0.077,-0.07,0.10,-0.06,-0.04,0.09,0.97,
0.079,-0.07,0.10,-0.06,-0.04,0.09,0.97,
0.082,-0.06,0.11,-0.08,-0.04,0.09,0.97,
0.082,-0.06,0.11,-0.08,-0.04,0.09,0.97,
0.084,-0.06,0.11,-0.08,-0.04,0.09,0.97,
0.087,-0.06,0.11,-0.08,-0.04,0.09,0.97,
0.087,-0.06,0.10,-0.08,-0.04,0.09,0.97,
0.089,-0.06,0.10,-0.08,-0.04,0.09,0.97,
0.091,-0.04,0.09,-0.08,-0.04,0.09,0.97,
0.092,-0.04,0.09,-0.08,-0.04,0.09,0.97,
0.094,-0.04,0.09,-0.08,-0.04,0.09,0.97,
0.096,-0.04,0.09,-0.08,-0.04,0.09,0.97,
0.097,-0.02,0.07,-0.07,-0.04,0.09,0.97,
0.099,-0.02,0.07,-0.07,-0.03,0.09,0.97,
0.101,-0.02,0.07,-0.07,-0.04,0.09,0.97,
0.101,-0.00,0.07,-0.08,-0.04,0.09,0.97,
0.104,-0.00,0.07,-0.08,-0.04,0.09,0.97,
0.106,-0.00,0.07,-0.08,-0.04,0.08,0.97,
0.106,0.02,0.05,-0.10,-0.04,0.08,0.97,
0.108,0.02,0.05,-0.10,-0.04,0.08,0.97,
0.111,0.02,0.05,-0.10,-0.04,0.08,0.98,
0.111,0.01,0.03,-0.07,-0.04,0.08,0.98,
0.113,0.01,0.03,-0.07,-0.04,0.08,0.98,
0.116,0.01,0.03,-0.07,-0.04,0.08,0.98,
0.116,0.01,0.01,-0.04,-0.04,0.08,0.98,
0.118,0.01,0.01,-0.04,-0.04,0.08,0.98,
0.121,0.01,0.01,-0.04,-0.04,0.08,0.98,
0.121,-0.00,-0.02,0.00,-0.04,0.08,0.98,
0.123,-0.00,-0.02,0.00,-0.04,0.08,0.99,
0.126,-0.00,-0.03,0.04,-0.04,0.08,0.99,
0.128,-0.00,-0.03,0.04,-0.04,0.08,0.99,
0.129,-0.00,-0.03,0.04,-0.04,0.08,0.99,
0.131,-0.00,-0.03,0.04,-0.04,0.08,0.99,
0.131,0.00,-0.04,0.08,-0.04,0.08,0.99,
0.133,0.00,-0.04,0.08,-0.04,0.08,0.99,
0.136,0.00,-0.04,0.08,-0.04,0.08,0.99,
0.136,-0.04,-0.05,0.11,-0.04,0.08,0.99,
0.138,-0.04,-0.05,0.11,-0.04,0.08,0.99,
0.14,-0.04,-0.05,0.11,-0.04,0.08,0.99,
0.141,-0.03,-0.06,0.15,-0.04,0.08,0.99,
0.143,-0.03,-0.06,0.15,-0.04,0.08,0.99,
0.145,-0.03,-0.06,0.15,-0.04,0.08,0.99,
0.146,-0.04,-0.05,0.16,-0.04,0.08,0.99,
0.148,-0.04,-0.05,0.16,-0.04,0.08,0.99,
0.15,-0.04,-0.05,0.16,-0.04,0.08,0.99,
0.15,-0.00,-0.04,0.14,-0.04,0.08,0.99,
0.153,-0.00,-0.04,0.14,-0.04,0.08,0.99,
0.155,-0.00,-0.04,0.14,-0.04,0.08,0.99,
0.156,0.01,-0.04,0.13,-0.04,0.08,0.99,
0.158,0.01,-0.04,0.13,-0.04,0.08,0.99,
0.163,0.01,-0.04,0.13,-0.03,0.08,0.99,
0.164,0.01,-0.05,0.11,-0.03,0.08,0.99,
0.164,0.01,-0.05,0.11,-0.03,0.08,0.99,
0.165,0.02,-0.04,0.09,-0.03,0.08,0.99,
0.165,0.02,-0.04,0.09,-0.03,0.08,0.98,
0.167,0.02,-0.04,0.09,-0.03,0.08,0.98,
0.17,0.05,-0.05,0.06,-0.03,0.08,0.98,
0.17,0.05,-0.05,0.06,-0.03,0.08,0.98,
0.172,0.05,-0.05,0.06,-0.03,0.08,0.98,
0.175,0.07,-0.05,0.04,-0.03,0.08,0.98,
0.175,0.07,-0.05,0.04,-0.03,0.08,0.98,
0.177,0.07,-0.05,0.04,-0.03,0.08,0.98,
0.18,0.07,-0.05,0.04,-0.02,0.07,0.98,
0.18,0.09,-0.06,0.02,-0.02,0.07,0.98,
0.182,0.09,-0.06,0.02,-0.02,0.07,0.98,
0.185,0.09,-0.06,0.02,-0.02,0.07,0.98,
0.185,0.12,-0.06,0.01,-0.02,0.07,0.98,
0.187,0.12,-0.06,0.01,-0.02,0.07,0.98,
0.19,0.15,-0.07,-0.01,-0.02,0.07,0.98,
0.19,0.15,-0.07,-0.01,-0.02,0.07,0.98,
0.192,0.15,-0.07,-0.01,-0.02,0.07,0.98,
0.195,0.15,-0.07,-0.01,-0.02,0.07,0.98,
0.196,0.17,-0.08,-0.02,-0.02,0.07,0.98,
0.197,0.17,-0.08,-0.02,-0.02,0.07,0.98,
0.199,0.17,-0.08,-0.02,-0.02,0.07,0.98,
0.2,0.17,-0.07,-0.03,-0.02,0.07,0.98,
0.202,0.17,-0.07,-0.03,-0.02,0.07,0.97,
0.204,0.17,-0.07,-0.03,-0.02,0.07,0.97,
0.204,0.17,-0.09,-0.03,-0.02,0.07,0.97,
0.207,0.17,-0.09,-0.03,-0.03,0.07,0.98,
0.209,0.17,-0.09,-0.03,-0.03,0.07,0.98,
0.209,0.13,-0.10,-0.05,-0.03,0.07,0.98,
0.211,0.13,-0.10,-0.05,-0.03,0.07,0.98,
0.214,0.13,-0.10,-0.05,-0.03,0.07,0.98,
0.214,0.10,-0.13,-0.03,-0.03,0.07,0.98,
0.216,0.10,-0.13,-0.03,-0.03,0.07,0.98,
0.219,0.10,-0.13,-0.03,-0.03,0.07,0.98,
0.219,0.08,-0.13,0.01,-0.03,0.07,0.98,
0.221,0.08,-0.13,0.01,-0.03,0.07,0.99,
0.224,0.08,-0.13,0.01,-0.03,0.06,0.99,
0.224,0.05,-0.15,0.04,-0.03,0.06,0.99,
0.227,0.05,-0.15,0.04,-0.03,0.07,0.99,
0.229,0.05,-0.16,0.09,-0.03,0.07,0.99,
0.231,0.05,-0.16,0.09,-0.03,0.06,0.99,
0.232,0.05,-0.16,0.09,-0.03,0.06,0.99,
0.234,0.05,-0.16,0.09,-0.03,0.06,0.99,
0.234,0.05,-0.16,0.12,-0.03,0.06,0.99,
0.236,0.05,-0.16,0.12,-0.03,0.06,1.00,
0.238,0.05,-0.16,0.12,-0.03,0.06,1.00,
0.239,0.05,-0.17,0.14,-0.03,0.06,1.00,
0.241,0.05,-0.17,0.14,-0.03,0.06,1.00,
0.244,0.05,-0.17,0.14,-0.03,0.06,1.00,
0.244,0.05,-0.18,0.16,-0.03,0.06,1.00,
0.246,0.05,-0.18,0.16,-0.03,0.06,0.99,
0.248,0.05,-0.18,0.16,-0.02,0.06,0.99,
0.249,0.09,-0.19,0.16,-0.02,0.06,0.99,
0.251,0.09,-0.19,0.16,-0.02,0.06,0.99,
0.253,0.09,-0.19,0.16,-0.02,0.06,0.99,
0.253,0.11,-0.20,0.14,-0.02,0.06,0.99,
0.255,0.11,-0.20,0.14,-0.02,0.06,0.99,
0.258,0.11,-0.20,0.14,-0.02,0.06,0.98,
0.259,0.13,-0.21,0.10,-0.02,0.06,0.98,
0.267,0.13,-0.21,0.10,-0.02,0.06,0.98,
0.267,0.13,-0.21,0.10,-0.02,0.05,0.98,
0.267,0.15,-0.22,0.04,-0.02,0.05,0.98,
0.267,0.15,-0.22,0.04,-0.02,0.05,0.98,
0.268,0.15,-0.22,0.04,-0.02,0.05,0.97,
0.268,0.16,-0.25,-0.01,-0.02,0.05,0.97,
0.27,0.16,-0.25,-0.01,-0.02,0.05,0.97,
0.272,0.16,-0.25,-0.01,-0.02,0.05,0.97,
0.273,0.18,-0.28,-0.04,-0.02,0.05,0.97,
0.275,0.18,-0.28,-0.04,-0.02,0.05,0.97,
0.278,0.18,-0.28,-0.04,-0.01,0.05,0.97,
0.278,0.18,-0.29,-0.07,-0.01,0.05,0.97,
0.28,0.18,-0.29,-0.07,-0.02,0.05,0.97,
0.283,0.18,-0.29,-0.07,-0.02,0.05,0.97,
0.283,0.19,-0.32,-0.08,-0.02,0.05,0.97,
0.285,0.19,-0.32,-0.08,-0.02,0.05,0.97,
0.287,0.19,-0.32,-0.08,-0.02,0.05,0.97,
0.288,0.18,-0.34,-0.08,-0.02,0.05,0.97,
0.29,0.18,-0.34,-0.08,-0.02,0.05,0.98,
0.293,0.18,-0.34,-0.08,-0.02,0.05,0.98,
0.293,0.15,-0.33,-0.05,-0.02,0.05,0.98,
0.295,0.15,-0.33,-0.05,-0.02,0.05,0.98,
0.298,0.15,-0.33,-0.05,-0.02,0.05,0.98,
0.298,0.16,-0.32,-0.03,-0.02,0.05,0.98,
0.3,0.16,-0.32,-0.03,-0.02,0.05,0.98,
0.302,0.16,-0.32,-0.03,-0.02,0.05,0.98,
0.302,0.16,-0.32,-0.02,-0.02,0.05,0.98,
0.304,0.16,-0.32,-0.02,-0.02,0.05,0.98,
0.307,0.16,-0.32,-0.02,-0.02,0.05,0.98,
0.307,0.17,-0.31,0.00,-0.02,0.05,0.98,
0.309,0.17,-0.31,0.00,-0.02,0.05,0.98,
0.312,0.17,-0.31,0.00,-0.02,0.05,0.98,
0.312,0.18,-0.29,0.01,-0.02,0.05,0.98,
0.314,0.18,-0.29,0.01,-0.02,0.05,0.98,
0.317,0.18,-0.29,0.01,-0.02,0.05,0.98,
0.317,0.17,-0.30,0.01,-0.02,0.05,0.98,
0.319,0.17,-0.30,0.01,-0.02,0.04,0.98,
0.322,0.17,-0.30,0.01,-0.02,0.04,0.98,
0.322,0.18,-0.33,0.01,-0.02,0.04,0.98,
0.324,0.18,-0.33,0.01,-0.02,0.04,0.98,
0.328,0.18,-0.33,0.01,-0.02,0.04,0.98,
0.328,0.17,-0.35,0.04,-0.02,0.04,0.98,
0.329,0.17,-0.35,0.04,-0.02,0.04,0.98,
0.331,0.17,-0.35,0.04,-0.02,0.04,0.99,
0.332,0.17,-0.35,0.04,-0.02,0.04,0.99,
0.334,0.17,-0.35,0.04,-0.02,0.04,0.99,
0.336,0.17,-0.35,0.04,-0.02,0.04,0.99,
0.336,0.17,-0.38,0.06,-0.02,0.04,0.99,
0.339,0.17,-0.38,0.06,-0.02,0.04,0.99,
0.341,0.17,-0.38,0.06,-0.02,0.04,0.99,
0.341,0.18,-0.40,0.08,-0.02,0.04,0.99,
0.349,0.18,-0.40,0.08,-0.02,0.03,0.99,
0.35,0.18,-0.40,0.08,-0.02,0.03,0.99,
0.35,0.17,-0.39,0.12,-0.02,0.03,0.99,
0.35,0.17,-0.39,0.12,-0.02,0.03,1.00,
0.351,0.17,-0.39,0.12,-0.02,0.03,1.00,
0.351,0.18,-0.43,0.14,-0.02,0.03,1.00,
0.353,0.18,-0.43,0.14,-0.01,0.03,1.00,
0.356,0.18,-0.43,0.14,-0.02,0.03,1.00,
0.356,0.20,-0.43,0.19,-0.02,0.03,1.00,
0.358,0.20,-0.43,0.19,-0.01,0.03,1.01,
0.361,0.20,-0.43,0.19,-0.01,0.03,1.01,
0.362,0.21,-0.45,0.23,-0.01,0.03,1.01,
0.363,0.21,-0.45,0.23,-0.01,0.03,1.01,
0.366,0.21,-0.45,0.23,-0.01,0.03,1.01,
0.366,0.23,-0.47,0.27,-0.01,0.03,1.01,
0.368,0.23,-0.47,0.27,-0.01,0.02,1.01,
0.37,0.23,-0.47,0.27,-0.01,0.03,1.01,
0.371,0.25,-0.49,0.31,-0.01,0.03,1.01,
0.373,0.25,-0.49,0.31,-0.01,0.02,1.01,
0.376,0.25,-0.49,0.31,-0.01,0.02,1.01,
0.376,0.25,-0.50,0.31,-0.01,0.02,1.01,
0.378,0.25,-0.50,0.31,-0.01,0.02,1.01,
0.38,0.25,-0.50,0.31,-0.01,0.02,1.01,
0.381,0.26,-0.52,0.33,-0.01,0.02,1.01,
0.383,0.26,-0.52,0.33,-0.01,0.02,1.01,
0.385,0.26,-0.52,0.33,-0.01,0.02,1.01,
0.385,0.25,-0.52,0.32,-0.01,0.02,1.01,
0.387,0.25,-0.52,0.32,-0.01,0.02,1.01,
0.39,0.25,-0.52,0.32,-0.01,0.02,1.01,
0.39,0.24,-0.53,0.31,-0.01,0.02,1.01,
0.393,0.24,-0.53,0.31,-0.01,0.02,1.01,
0.395,0.24,-0.53,0.31,-0.01,0.02,1.01,
0.395,0.25,-0.54,0.30,-0.01,0.02,1.01,
0.397,0.25,-0.54,0.30,-0.01,0.02,1.01,
0.4,0.25,-0.54,0.30,-0.01,0.02,1.01,
0.4,0.25,-0.51,0.30,-0.01,0.02,1.01,
0.402,0.25,-0.51,0.30,-0.01,0.02,1.01,
0.405,0.25,-0.51,0.30,-0.01,0.02,1.01,
0.405,0.26,-0.52,0.29,-0.01,0.02,1.01,
0.407,0.26,-0.52,0.29,-0.01,0.02,1.01,
0.41,0.26,-0.52,0.29,-0.01,0.02,1.01,
0.41,0.27,-0.51,0.30,-0.01,0.02,1.01,
0.412,0.27,-0.51,0.30,-0.01,0.02,1.01,
0.415,0.27,-0.51,0.30,-0.01,0.02,1.01,
0.415,0.28,-0.54,0.30,-0.01,0.02,1.01,
0.417,0.28,-0.54,0.30,-0.01,0.02,1.01,
0.419,0.28,-0.54,0.30,-0.01,0.02,1.01,
0.42,0.26,-0.56,0.30,-0.01,0.02,1.01,
0.422,0.26,-0.56,0.30,-0.01,0.02,1.01,
0.424,0.26,-0.56,0.30,-0.01,0.02,1.01,
0.425,0.28,-0.57,0.29,-0.01,0.02,1.01,
0.427,0.28,-0.57,0.29,-0.01,0.02,1.01,
0.43,0.28,-0.57,0.29,-0.01,0.02,1.01,
0.43,0.28,-0.55,0.28,-0.01,0.02,1.01,
0.432,0.28,-0.55,0.28,-0.00,0.02,1.01,
0.434,0.28,-0.55,0.28,0.00,0.02,1.01,
0.434,0.29,-0.56,0.27,0.00,0.02,1.01,
0.436,0.29,-0.56,0.27,0.00,0.02,1.01,
0.439,0.29,-0.56,0.27,0.00,0.02,1.01,
0.439,0.33,-0.55,0.25,0.00,0.02,1.01,
0.446,0.33,-0.55,0.25,0.00,0.02,1.00,
0.446,0.33,-0.55,0.25,0.00,0.01,1.00,
0.446,0.34,-0.55,0.23,0.00,0.01,1.00,
0.447,0.34,-0.55,0.23,0.00,0.02,1.00,
0.449,0.34,-0.55,0.23,0.00,0.01,1.00,
0.449,0.35,-0.56,0.19,0.00,0.01,1.00,
0.451,0.35,-0.56,0.19,0.00,0.01,1.00,
0.454,0.35,-0.56,0.19,0.00,0.01,1.00,
0.454,0.35,-0.56,0.16,0.00,0.01,1.00,
0.456,0.35,-0.56,0.16,-0.00,0.01,1.00,
0.459,0.35,-0.56,0.16,-0.00,0.01,0.99,
0.46,0.33,-0.57,0.14,-0.00,0.01,0.99,
0.461,0.33,-0.57,0.14,-0.00,0.01,0.99,
0.464,0.33,-0.57,0.14,-0.00,0.01,0.99,
0.464,0.30,-0.57,0.10,-0.00,0.01,0.99,
0.466,0.30,-0.57,0.10,-0.00,0.01,0.99,
0.468,0.30,-0.57,0.10,-0.00,0.02,0.99,
0.469,0.28,-0.58,0.07,-0.00,0.02,0.99,
0.471,0.28,-0.58,0.07,-0.01,0.01,0.99,
0.474,0.28,-0.58,0.07,-0.01,0.02,0.99,
0.474,0.28,-0.56,0.03,-0.01,0.02,0.99,
0.476,0.28,-0.56,0.03,-0.00,0.02,0.98,
0.479,0.28,-0.56,0.03,-0.01,0.02,0.98,
0.479,0.25,-0.55,0.02,-0.01,0.02,0.98,
0.481,0.25,-0.55,0.02,-0.00,0.02,0.98,
0.483,0.25,-0.55,0.02,-0.00,0.02,0.98,
0.484,0.25,-0.52,-0.01,-0.00,0.02,0.98,
0.485,0.25,-0.52,-0.01,-0.00,0.02,0.98,
0.488,0.25,-0.52,-0.01,-0.00,0.02,0.98,
0.488,0.27,-0.51,-0.02,-0.00,0.02,0.98,
0.49,0.27,-0.51,-0.02,-0.00,0.02,0.98,
0.493,0.27,-0.51,-0.02,0.00,0.02,0.98,
0.493,0.27,-0.51,-0.04,0.00,0.02,0.98,
0.495,0.27,-0.51,-0.04,0.00,0.01,0.98,
0.498,0.27,-0.51,-0.04,0.01,0.01,0.98,
0.5,0.29,-0.53,-0.05,0.01,0.01,0.98,
0.5,0.29,-0.53,-0.05,0.01,0.01,0.98,
0.503,0.29,-0.53,-0.05,0.01,0.01,0.98,
0.503,0.35,-0.54,-0.06,0.01,0.01,0.98,
0.505,0.35,-0.54,-0.06,0.02,0.01,0.97,
0.508,0.35,-0.54,-0.06,0.02,0.01,0.97,
0.508,0.40,-0.54,-0.07,0.02,0.01,0.97,
0.51,0.40,-0.54,-0.07,0.02,0.01,0.97,
0.512,0.40,-0.54,-0.07,0.02,0.01,0.97,
0.513,0.44,-0.55,-0.10,0.02,0.01,0.97,
0.515,0.44,-0.55,-0.10,0.03,0.01,0.97,
0.517,0.44,-0.55,-0.10,0.03,0.01,0.97,
0.518,0.50,-0.57,-0.10,0.03,0.01,0.97,
0.52,0.50,-0.57,-0.10,0.03,0.01,0.97,
0.522,0.50,-0.57,-0.10,0.03,0.00,0.97,
0.523,0.52,-0.59,-0.12,0.03,0.00,0.97,
0.525,0.52,-0.59,-0.12,0.02,0.00,0.97,
0.528,0.52,-0.59,-0.12,0.02,0.00,0.97,
0.528,0.50,-0.61,-0.15,0.02,0.00,0.97,
0.53,0.50,-0.61,-0.15,0.02,0.00,0.97,
0.532,0.50,-0.61,-0.15,0.01,0.00,0.97,
0.532,0.46,-0.62,-0.15,0.01,0.00,0.97,
0.535,0.46,-0.62,-0.15,0.01,0.00,0.97,
0.537,0.46,-0.62,-0.15,0.01,0.00,0.97,
0.538,0.39,-0.62,-0.14,0.01,0.00,0.97,
0.54,0.39,-0.62,-0.14,0.01,0.01,0.97,
0.543,0.39,-0.62,-0.14,0.00,0.01,0.97,
0.544,0.34,-0.61,-0.13,0.00,0.01,0.97,
0.545,0.34,-0.61,-0.13,-0.00,0.01,0.97,
0.547,0.34,-0.61,-0.13,-0.01,0.01,0.97,
0.547,0.26,-0.57,-0.12,-0.01,0.01,0.97,
0.55,0.26,-0.57,-0.12,-0.01,0.02,0.97,
0.552,0.26,-0.57,-0.12,-0.02,0.02,0.97,
0.552,0.16,-0.51,-0.10,-0.02,0.02,0.97,
0.554,0.16,-0.51,-0.10,-0.02,0.02,0.97,
0.557,0.16,-0.51,-0.10,-0.03,0.03,0.97,
0.557,0.05,-0.46,-0.11,-0.03,0.03,0.97,
0.565,0.05,-0.46,-0.11,-0.03,0.03,0.97,
0.565,0.05,-0.46,-0.11,-0.04,0.03,0.97,
0.566,-0.03,-0.38,-0.11,-0.04,0.03,0.97,
0.566,-0.03,-0.38,-0.11,-0.04,0.04,0.97,
0.567,-0.03,-0.38,-0.11,-0.04,0.04,0.97,
0.567,-0.13,-0.33,-0.13,-0.04,0.04,0.97,
0.569,-0.13,-0.33,-0.13,-0.05,0.04,0.97,
0.571,-0.13,-0.33,-0.13,-0.05,0.04,0.96,
0.572,-0.20,-0.26,-0.15,-0.05,0.04,0.96,
0.574,-0.20,-0.26,-0.15,-0.05,0.04,0.96,
0.577,-0.26,-0.22,-0.17,-0.05,0.04,0.96,
0.578,-0.26,-0.22,-0.17,-0.05,0.05,0.96,
0.579,-0.26,-0.22,-0.17,-0.05,0.05,0.96,
0.581,-0.26,-0.22,-0.17,-0.05,0.05,0.96,
0.582,-0.29,-0.19,-0.21,-0.05,0.05,0.96,
0.584,-0.29,-0.19,-0.21,-0.05,0.05,0.95,
0.586,-0.29,-0.19,-0.21,-0.05,0.04,0.95,
0.586,-0.32,-0.17,-0.25,-0.05,0.04,0.95,
0.588,-0.32,-0.17,-0.25,-0.05,0.04,0.95,
0.591,-0.32,-0.17,-0.25,-0.05,0.04,0.95,
0.592,-0.30,-0.19,-0.28,-0.05,0.04,0.95,
0.593,-0.30,-0.19,-0.28,-0.05,0.04,0.95,
0.596,-0.30,-0.19,-0.28,-0.05,0.04,0.95,
0.596,-0.27,-0.20,-0.30,-0.05,0.04,0.95,
0.598,-0.27,-0.20,-0.30,-0.04,0.04,0.95,
0.601,-0.25,-0.24,-0.31,-0.04,0.04,0.95,
0.602,-0.25,-0.24,-0.31,-0.04,0.04,0.95,
0.603,-0.25,-0.24,-0.31,-0.04,0.03,0.95,
0.606,-0.22,-0.26,-0.29,-0.04,0.03,0.95,
0.606,-0.22,-0.26,-0.29,-0.04,0.03,0.95,
0.609,-0.22,-0.26,-0.29,-0.04,0.03,0.96,
0.611,-0.22,-0.26,-0.29,-0.03,0.03,0.96,
0.611,-0.19,-0.32,-0.27,-0.03,0.03,0.96,
0.613,-0.19,-0.32,-0.27,-0.03,0.03,0.96,
0.616,-0.19,-0.32,-0.27,-0.03,0.03,0.96,
0.616,-0.15,-0.32,-0.23,-0.03,0.03,0.96,
0.618,-0.15,-0.32,-0.23,-0.02,0.03,0.96,
0.62,-0.15,-0.32,-0.23,-0.02,0.03,0.96,
0.62,-0.09,-0.31,-0.21,-0.02,0.03,0.96,
0.622,-0.09,-0.31,-0.21,-0.02,0.03,0.97,
0.625,-0.09,-0.31,-0.21,-0.01,0.03,0.96,
0.625,-0.04,-0.31,-0.17,-0.01,0.03,0.96,
0.628,-0.04,-0.31,-0.17,-0.01,0.03,0.97,
0.63,-0.04,-0.31,-0.17,-0.01,0.03,0.97,
0.63,0.02,-0.28,-0.15,-0.01,0.03,0.97,
0.632,0.02,-0.28,-0.15,-0.00,0.04,0.96,
0.635,0.02,-0.28,-0.15,0.00,0.04,0.96,
0.635,0.08,-0.26,-0.14,0.00,0.04,0.96,
0.637,0.08,-0.26,-0.14,0.01,0.04,0.96,
0.64,0.08,-0.26,-0.14,0.01,0.04,0.95,
0.64,0.14,-0.21,-0.18,0.01,0.04,0.95,
0.642,0.14,-0.21,-0.18,0.02,0.04,0.95,
0.645,0.23,-0.18,-0.24,0.02,0.04,0.95,
0.645,0.23,-0.18,-0.24,0.02,0.05,0.95,
0.647,0.23,-0.18,-0.24,0.03,0.05,0.94,
0.65,0.23,-0.18,-0.24,0.03,0.05,0.94,
0.65,0.27,-0.12,-0.30,0.03,0.05,0.94,
0.652,0.27,-0.12,-0.30,0.03,0.05,0.94,
0.655,0.27,-0.12,-0.30,0.03,0.05,0.93,
0.655,0.32,-0.11,-0.37,0.03,0.05,0.93,
0.657,0.32,-0.11,-0.37,0.03,0.05,0.93,
0.663,0.32,-0.11,-0.37,0.03,0.05,0.93,
0.664,0.33,-0.10,-0.43,0.03,0.05,0.93,
0.665,0.33,-0.10,-0.43,0.03,0.05,0.93,
0.666,0.33,-0.10,-0.43,0.03,0.05,0.93,
0.666,0.32,-0.06,-0.47,0.03,0.05,0.93,
0.667,0.32,-0.06,-0.47,0.03,0.05,0.93,
0.669,0.32,-0.06,-0.47,0.04,0.05,0.94,
0.67,0.31,-0.03,-0.46,0.04,0.05,0.94,
0.671,0.31,-0.03,-0.46,0.04,0.05,0.94,
0.675,0.31,-0.03,-0.46,0.04,0.05,0.94,
0.675,0.32,-0.01,-0.44,0.04,0.05,0.94,
0.676,0.32,-0.01,-0.44,0.04,0.05,0.95,
0.679,0.32,-0.01,-0.44,0.04,0.05,0.95,
0.679,0.32,0.01,-0.37,0.04,0.05,0.95,
0.681,0.32,0.01,-0.37,0.04,0.06,0.95,
0.684,0.32,0.01,-0.37,0.04,0.06,0.96,
0.684,0.35,0.04,-0.30,0.04,0.06,0.96,
0.686,0.35,0.04,-0.30,0.04,0.06,0.96,
0.689,0.35,0.04,-0.30,0.05,0.06,0.96,
0.689,0.37,0.05,-0.24,0.05,0.06,0.96,
0.691,0.37,0.05,-0.24,0.05,0.06,0.96,
0.694,0.37,0.05,-0.24,0.04,0.06,0.97,
0.694,0.38,0.06,-0.17,0.04,0.06,0.97,
0.696,0.38,0.06,-0.17,0.04,0.06,0.97,
0.699,0.38,0.06,-0.17,0.04,0.06,0.97,
0.699,0.39,0.06,-0.11,0.04,0.06,0.97,
0.701,0.39,0.06,-0.11,0.04,0.05,0.97,
0.704,0.39,0.06,-0.11,0.03,0.05,0.97,
0.704,0.37,0.04,-0.08,0.03,0.05,0.97,
0.706,0.37,0.04,-0.08,0.03,0.05,0.97,
0.708,0.37,0.04,-0.08,0.03,0.05,0.97,
0.709,0.31,0.00,-0.08,0.03,0.05,0.97,
0.711,0.31,0.00,-0.08,0.03,0.05,0.97,
0.713,0.31,0.00,-0.08,0.03,0.05,0.97,
0.714,0.25,-0.02,-0.08,0.03,0.05,0.97,
0.716,0.25,-0.02,-0.08,0.02,0.05,0.97,
0.718,0.25,-0.02,-0.08,0.02,0.05,0.97,
0.718,0.22,-0.05,-0.06,0.02,0.05,0.97,
0.721,0.22,-0.05,-0.06,0.02,0.05,0.97,
0.723,0.22,-0.05,-0.06,0.02,0.05,0.97,
0.723,0.18,-0.05,-0.05,0.02,0.05,0.97,
0.725,0.18,-0.05,-0.05,0.01,0.05,0.97,
0.728,0.18,-0.05,-0.05,0.01,0.05,0.97,
0.728,0.15,-0.02,-0.05,0.01,0.05,0.97,
0.73,0.15,-0.02,-0.05,0.01,0.05,0.97,
0.733,0.15,-0.02,-0.05,0.01,0.05,0.97,
0.733,0.09,0.00,-0.07,0.01,0.05,0.97,
0.735,0.09,0.00,-0.07,0.00,0.06,0.96,
0.738,0.09,0.00,-0.07,0.00,0.06,0.96,
0.738,0.06,0.02,-0.10,0.00,0.06,0.96,
0.74,0.06,0.02,-0.10,0.00,0.05,0.96,
0.746,0.06,0.02,-0.10,0.00,0.05,0.96,
0.747,0.03,0.04,-0.14,0.00,0.05,0.96,
0.747,0.03,0.04,-0.14,0.00,0.05,0.95,
0.747,0.03,0.04,-0.14,0.00,0.05,0.95,
0.748,0.02,0.02,-0.19,0.00,0.05,0.95,
0.75,0.02,0.02,-0.19,-0.00,0.05,0.95,
0.752,0.02,0.02,-0.19,-0.00,0.05,0.95,
0.753,-0.02,0.03,-0.24,-0.00,0.05,0.95,
0.755,-0.02,0.03,-0.24,0.00,0.05,0.95,
0.757,-0.02,0.03,-0.24,0.00,0.05,0.95,
0.758,-0.06,0.03,-0.28,0.00,0.05,0.95,
0.76,-0.06,0.03,-0.28,0.01,0.05,0.95,
0.762,-0.06,0.03,-0.28,0.00,0.05,0.95,
0.762,-0.02,0.03,-0.27,0.00,0.05,0.95,
0.764,-0.02,0.03,-0.27,0.00,0.05,0.95,
0.767,-0.02,0.03,-0.27,0.00,0.05,0.95,
0.767,-0.01,0.03,-0.25,0.00,0.05,0.95,
0.77,-0.01,0.03,-0.25,0.00,0.05,0.95,
0.772,-0.01,0.03,-0.25,0.01,0.05,0.96,
0.772,-0.02,0.05,-0.23,0.01,0.05,0.96,
0.774,-0.02,0.05,-0.23,0.01,0.05,0.96,
0.777,-0.02,0.05,-0.23,0.01,0.05,0.96,
0.777,-0.02,0.04,-0.19,0.01,0.05,0.96,
0.779,-0.02,0.04,-0.19,0.00,0.05,0.96,
0.782,-0.02,0.04,-0.19,0.00,0.05,0.97,
0.782,-0.03,0.03,-0.15,0.00,0.05,0.97,
0.784,-0.03,0.03,-0.15,-0.00,0.05,0.97,
0.786,-0.03,0.03,-0.15,-0.01,0.05,0.97,
0.787,-0.07,0.05,-0.11,-0.01,0.05,0.97,
0.789,-0.07,0.05,-0.11,-0.01,0.05,0.97,
0.792,-0.07,0.05,-0.11,-0.01,0.05,0.97,
0.792,-0.15,0.05,-0.06,-0.01,0.05,0.97,
0.794,-0.15,0.05,-0.06,-0.01,0.05,0.97,
0.796,-0.15,0.05,-0.06,-0.02,0.05,0.98,
0.797,-0.17,0.06,-0.04,-0.02,0.05,0.98,
0.799,-0.17,0.06,-0.04,-0.02,0.06,0.97,
0.801,-0.17,0.06,-0.04,-0.02,0.06,0.97,
0.802,-0.24,0.13,-0.01,-0.02,0.06,0.97,
0.804,-0.24,0.13,-0.01,-0.02,0.06,0.97,
0.806,-0.24,0.13,-0.01,-0.03,0.07,0.97,
0.807,-0.28,0.18,-0.03,-0.03,0.07,0.97,
0.809,-0.28,0.18,-0.03,-0.03,0.07,0.97,
0.811,-0.28,0.18,-0.03,-0.03,0.07,0.96,
0.811,-0.34,0.25,-0.04,-0.03,0.07,0.96,
0.814,-0.34,0.25,-0.04,-0.04,0.07,0.96,
0.816,-0.34,0.25,-0.04,-0.04,0.07,0.96,
0.816,-0.40,0.32,-0.10,-0.04,0.07,0.96,
0.818,-0.40,0.32,-0.10,-0.04,0.08,0.95,
0.821,-0.40,0.32,-0.10,-0.05,0.08,0.95,
0.821,-0.46,0.34,-0.17,-0.05,0.08,0.95,
0.824,-0.46,0.34,-0.17,-0.05,0.08,0.94,
0.826,-0.46,0.34,-0.17,-0.05,0.08,0.94,
0.827,-0.50,0.38,-0.27,-0.05,0.08,0.94,
0.828,-0.50,0.38,-0.27,-0.05,0.08,0.94,
0.831,-0.50,0.38,-0.27,-0.05,0.08,0.94,
0.831,-0.53,0.42,-0.31,-0.05,0.08,0.94,
0.833,-0.53,0.42,-0.31,-0.05,0.08,0.94,
0.836,-0.53,0.42,-0.31,-0.05,0.09,0.93,
0.836,-0.54,0.44,-0.36,-0.05,0.09,0.93,
0.838,-0.54,0.44,-0.36,-0.05,0.09,0.93,
0.841,-0.54,0.44,-0.36,-0.04,0.09,0.93,
0.841,-0.53,0.44,-0.39,-0.04,0.09,0.93,
0.843,-0.53,0.44,-0.39,-0.04,0.09,0.93,
0.845,-0.53,0.44,-0.39,-0.04,0.09,0.93,
0.846,-0.49,0.46,-0.40,-0.04,0.09,0.93,
0.848,-0.49,0.46,-0.40,-0.03,0.09,0.93,
0.85,-0.49,0.46,-0.40,-0.03,0.08,0.93,
0.851,-0.43,0.47,-0.42,-0.03,0.08,0.93,
0.853,-0.43,0.47,-0.42,-0.02,0.08,0.93,
0.855,-0.43,0.47,-0.42,-0.02,0.08,0.94,
0.856,-0.35,0.45,-0.41,-0.02,0.08,0.94,
0.862,-0.35,0.45,-0.41,-0.02,0.08,0.94,
0.863,-0.35,0.45,-0.41,-0.01,0.08,0.94,
0.863,-0.28,0.45,-0.38,-0.01,0.08,0.94,
0.864,-0.28,0.45,-0.38,-0.01,0.08,0.94,
0.865,-0.28,0.45,-0.38,-0.01,0.08,0.94,
0.865,-0.23,0.44,-0.37,-0.01,0.08,0.94,
0.867,-0.23,0.44,-0.37,-0.01,0.08,0.95,
0.87,-0.23,0.44,-0.37,-0.01,0.08,0.95,
0.87,-0.19,0.43,-0.30,-0.01,0.08,0.95,
0.872,-0.19,0.43,-0.30,-0.01,0.08,0.96,
0.875,-0.19,0.43,-0.30,-0.01,0.08,0.96,
0.875,-0.17,0.43,-0.22,-0.01,0.08,0.96,
0.877,-0.17,0.43,-0.22,-0.01,0.08,0.96,
0.88,-0.17,0.43,-0.22,-0.01,0.08,0.97,
0.88,-0.17,0.43,-0.14,-0.01,0.08,0.97,
0.882,-0.17,0.43,-0.14,-0.02,0.08,0.97,
0.885,-0.17,0.43,-0.14,-0.02,0.09,0.97,
0.885,-0.19,0.47,-0.07,-0.02,0.09,0.97,
0.887,-0.19,0.47,-0.07,-0.02,0.09,0.97,
0.89,-0.19,0.47,-0.07,-0.03,0.10,0.98,
0.89,-0.26,0.52,-0.02,-0.03,0.10,0.98,
0.892,-0.26,0.52,-0.02,-0.03,0.10,0.98,
0.894,-0.26,0.52,-0.02,-0.04,0.11,0.99,
0.895,-0.34,0.59,0.03,-0.04,0.11,0.99,
0.897,-0.34,0.59,0.03,-0.05,0.11,0.99,
0.899,-0.34,0.59,0.03,-0.06,0.12,0.99,
0.899,-0.45,0.70,0.11,-0.06,0.12,0.99,
0.902,-0.45,0.70,0.11,-0.06,0.12,0.99,
0.904,-0.45,0.70,0.11,-0.07,0.13,0.99,
0.904,-0.59,0.84,0.13,-0.07,0.13,0.99,
0.907,-0.59,0.84,0.13,-0.08,0.14,0.99,
0.91,-0.72,0.92,0.15,-0.08,0.14,0.99,
0.91,-0.72,0.92,0.15,-0.08,0.14,0.99,
0.911,-0.72,0.92,0.15,-0.09,0.14,0.98,
0.914,-0.72,0.92,0.15,-0.09,0.15,0.98,
0.914,-0.83,1.03,0.13,-0.09,0.15,0.98,
0.916,-0.83,1.03,0.13,-0.10,0.15,0.98,
0.919,-0.83,1.03,0.13,-0.11,0.16,0.97,
0.919,-0.94,1.12,0.09,-0.11,0.16,0.97,
0.921,-0.94,1.12,0.09,-0.11,0.16,0.97,
0.924,-0.94,1.12,0.09,-0.11,0.17,0.97,
0.925,-1.06,1.22,0.01,-0.11,0.17,0.97,
0.926,-1.06,1.22,0.01,-0.11,0.17,0.96,
0.929,-1.06,1.22,0.01,-0.12,0.18,0.96,
0.929,-1.12,1.30,-0.07,-0.12,0.18,0.96,
0.931,-1.12,1.30,-0.07,-0.11,0.18,0.96,
0.934,-1.12,1.30,-0.07,-0.11,0.18,0.96,
0.934,-1.14,1.37,-0.11,-0.11,0.18,0.96,
0.936,-1.14,1.37,-0.11,-0.11,0.18,0.96,
0.939,-1.14,1.37,-0.11,-0.11,0.18,0.96,
0.939,-1.12,1.41,-0.15,-0.11,0.18,0.96,
0.941,-1.12,1.41,-0.15,-0.11,0.18,0.95,
0.944,-1.12,1.41,-0.15,-0.10,0.18,0.96,
0.944,-1.09,1.42,-0.17,-0.10,0.18,0.96,
0.946,-1.09,1.42,-0.17,-0.10,0.18,0.96,
0.948,-1.09,1.42,-0.17,-0.10,0.18,0.96,
0.949,-1.02,1.40,-0.17,-0.10,0.18,0.96,
0.951,-1.02,1.40,-0.17,-0.10,0.17,0.97,
0.953,-1.02,1.40,-0.17,-0.09,0.17,0.97,
0.954,-0.93,1.37,-0.11,-0.09,0.17,0.97,
0.956,-0.93,1.37,-0.11,-0.09,0.17,0.98,
0.963,-0.93,1.37,-0.11,-0.08,0.16,0.98,
0.964,-0.86,1.32,-0.04,-0.08,0.16,0.98,
0.964,-0.86,1.32,-0.04,-0.08,0.16,0.98,
0.964,-0.86,1.32,-0.04,-0.08,0.16,0.99,
0.965,-0.76,1.25,0.05,-0.08,0.16,0.99,
0.965,-0.76,1.25,0.05,-0.08,0.16,0.99,
0.968,-0.76,1.25,0.05,-0.07,0.15,0.99,
0.968,-0.69,1.18,0.12,-0.07,0.15,0.99,
0.97,-0.69,1.18,0.12,-0.07,0.15,1.00,
0.973,-0.69,1.18,0.12,-0.07,0.15,1.00,
0.974,-0.64,1.14,0.19,-0.07,0.15,1.00,
0.976,-0.64,1.14,0.19,-0.07,0.15,1.00,
0.978,-0.64,1.14,0.19,-0.07,0.15,1.01,
0.978,-0.60,1.10,0.24,-0.07,0.15,1.01,
0.98,-0.60,1.10,0.24,-0.07,0.15,1.01,
0.983,-0.60,1.10,0.24,-0.07,0.15,1.01,
0.983,-0.56,1.10,0.30,-0.07,0.15,1.01,
0.985,-0.56,1.10,0.30,-0.07,0.16,1.01,
0.987,-0.56,1.10,0.30,-0.07,0.16,1.01,
0.988,-0.56,1.11,0.33,-0.07,0.16,1.01,
0.99,-0.56,1.11,0.33,-0.07,0.16,1.01,
0.992,-0.56,1.11,0.33,-0.07,0.16,1.01,
0.993,-0.56,1.14,0.33,-0.07,0.16,1.01,
0.995,-0.56,1.14,0.33,-0.07,0.16,1.01,
0.997,-0.56,1.14,0.33,-0.08,0.16,1.01,
0.997,-0.56,1.15,0.32,-0.08,0.16,1.01,
1.0,-0.56,1.15,0.32,-0.08,0.16,1.01,
1.002,-0.56,1.15,0.32,-0.08,0.17,1.01,
1.002,-0.60,1.19,0.31,-0.08,0.17,1.01,
1.004,-0.60,1.19,0.31,-0.08,0.17,1.01,
1.007,-0.60,1.19,0.31,-0.08,0.17,1.00,
1.007,-0.61,1.22,0.30,-0.08,0.17,1.00,
1.009,-0.61,1.22,0.30,-0.08,0.17,1.00,
1.012,-0.63,1.27,0.28,-0.08,0.17,1.00,
1.013,-0.63,1.27,0.28,-0.08,0.18,1.00,
1.014,-0.63,1.27,0.28,-0.08,0.18,1.00,
1.017,-0.63,1.27,0.28,-0.09,0.18,1.01,
1.017,-0.66,1.32,0.28,-0.09,0.18,1.01,
1.019,-0.66,1.32,0.28,-0.09,0.18,1.01,
1.022,-0.66,1.32,0.28,-0.09,0.18,1.01,
1.022,-0.68,1.36,0.29,-0.09,0.18,1.01,
1.024,-0.68,1.36,0.29,-0.09,0.18,1.01,
1.027,-0.68,1.36,0.29,-0.09,0.18,1.01,
1.027,-0.71,1.39,0.32,-0.09,0.18,1.01,
1.03,-0.71,1.39,0.32,-0.09,0.18,1.02,
1.032,-0.71,1.39,0.32,-0.09,0.18,1.02,
1.032,-0.71,1.40,0.34,-0.09,0.18,1.02,
1.034,-0.71,1.40,0.34,-0.09,0.18,1.02,
1.036,-0.71,1.40,0.34,-0.08,0.18,1.02,
1.037,-0.69,1.39,0.40,-0.08,0.18,1.02,
1.039,-0.69,1.39,0.40,-0.08,0.18,1.03,
1.042,-0.69,1.39,0.40,-0.08,0.18,1.03,
1.042,-0.65,1.38,0.45,-0.08,0.18,1.03,
1.044,-0.65,1.38,0.45,-0.07,0.18,1.03,
1.047,-0.65,1.38,0.45,-0.07,0.18,1.03,
1.047,-0.57,1.37,0.49,-0.07,0.18,1.03,
1.049,-0.57,1.37,0.49,-0.07,0.18,1.03,
1.051,-0.57,1.37,0.49,-0.07,0.17,1.03,
1.052,-0.49,1.34,0.51,-0.07,0.17,1.03,
1.053,-0.49,1.34,0.51,-0.06,0.17,1.03,
1.063,-0.49,1.34,0.51,-0.06,0.17,1.03,
1.064,-0.42,1.26,0.51,-0.06,0.17,1.03,
1.064,-0.42,1.26,0.51,-0.05,0.17,1.03,
1.064,-0.42,1.26,0.51,-0.05,0.17,1.03,
1.065,-0.35,1.24,0.51,-0.05,0.17,1.03,
1.065,-0.35,1.24,0.51,-0.05,0.16,1.03,
1.066,-0.35,1.24,0.51,-0.05,0.16,1.03,
1.066,-0.26,1.18,0.49,-0.05,0.16,1.03,
1.068,-0.26,1.18,0.49,-0.04,0.16,1.03,
1.071,-0.26,1.18,0.49,-0.04,0.16,1.03,
1.071,-0.19,1.12,0.49,-0.04,0.16,1.03,
1.074,-0.19,1.12,0.49,-0.04,0.15,1.03,
1.076,-0.19,1.12,0.49,-0.04,0.15,1.02,
1.076,-0.14,1.05,0.46,-0.04,0.15,1.02,
1.078,-0.14,1.05,0.46,-0.04,0.15,1.03,
1.081,-0.14,1.05,0.46,-0.04,0.14,1.02,
1.081,-0.10,0.99,0.44,-0.04,0.14,1.02,
1.083,-0.10,0.99,0.44,-0.04,0.14,1.03,
1.085,-0.10,0.99,0.44,-0.04,0.14,1.03,
1.086,-0.10,0.92,0.43,-0.04,0.14,1.03,
1.088,-0.10,0.92,0.43,-0.04,0.14,1.03,
1.09,-0.10,0.92,0.43,-0.04,0.14,1.02,
1.091,-0.10,0.86,0.43,-0.04,0.14,1.02,
1.093,-0.10,0.86,0.43,-0.04,0.13,1.03,
1.095,-0.10,0.86,0.43,-0.04,0.13,1.02,
1.096,-0.08,0.81,0.42,-0.04,0.13,1.02,
1.098,-0.08,0.81,0.42,-0.04,0.13,1.03,
1.1,-0.08,0.81,0.42,-0.04,0.13,1.02,
1.1,-0.07,0.75,0.42,-0.04,0.13,1.02,
1.102,-0.07,0.75,0.42,-0.04,0.12,1.03,
1.105,-0.07,0.75,0.42,-0.03,0.12,1.03,
1.105,-0.03,0.71,0.42,-0.03,0.12,1.03,
1.107,-0.03,0.71,0.42,-0.03,0.12,1.03,
1.11,-0.03,0.71,0.42,-0.03,0.12,1.03,
1.11,-0.02,0.68,0.46,-0.03,0.12,1.03,
1.113,-0.02,0.68,0.46,-0.03,0.12,1.03,
1.115,-0.02,0.68,0.46,-0.03,0.12,1.03,
1.115,0.00,0.67,0.46,-0.03,0.12,1.03,
1.117,0.00,0.67,0.46,-0.03,0.12,1.03,
1.12,0.00,0.67,0.46,-0.03,0.11,1.04,
1.12,0.04,0.64,0.48,-0.03,0.11,1.04,
1.122,0.04,0.64,0.48,-0.02,0.11,1.04,
1.125,0.04,0.64,0.48,-0.02,0.11,1.04,
1.125,0.03,0.59,0.49,-0.02,0.11,1.04,
1.127,0.03,0.59,0.49,-0.02,0.11,1.04,
1.13,0.03,0.59,0.49,-0.02,0.11,1.04,
1.13,0.08,0.56,0.53,-0.02,0.11,1.04,
1.132,0.08,0.56,0.53,-0.02,0.11,1.04,
1.134,0.08,0.56,0.53,-0.02,0.11,1.04,
1.135,0.08,0.54,0.54,-0.02,0.11,1.04,
1.137,0.08,0.54,0.54,-0.02,0.11,1.04,
1.14,0.08,0.54,0.54,-0.01,0.11,1.04,
1.141,0.12,0.52,0.54,-0.01,0.11,1.04,
1.142,0.12,0.52,0.54,-0.01,0.10,1.04,
1.145,0.12,0.52,0.54,-0.01,0.10,1.04,
1.146,0.17,0.50,0.53,-0.01,0.10,1.04,
1.147,0.17,0.50,0.53,-0.00,0.10,1.03,
1.149,0.17,0.50,0.53,-0.00,0.10,1.03,
1.15,0.22,0.46,0.50,-0.00,0.10,1.03,
1.152,0.22,0.46,0.50,0.00,0.10,1.03,
1.154,0.22,0.46,0.50,0.01,0.10,1.03,
1.154,0.27,0.45,0.44,0.01,0.10,1.03,
1.162,0.27,0.45,0.44,0.01,0.10,1.02,
1.163,0.27,0.45,0.44,0.01,0.10,1.02,
1.163,0.34,0.43,0.40,0.01,0.10,1.02,
1.163,0.34,0.43,0.40,0.01,0.09,1.02,
1.164,0.34,0.43,0.40,0.01,0.09,1.02,
1.164,0.40,0.39,0.35,0.01,0.09,1.02,
1.166,0.40,0.39,0.35,0.01,0.09,1.01,
1.169,0.40,0.39,0.35,0.02,0.09,1.01,
1.169,0.42,0.34,0.29,0.02,0.09,1.01,
1.171,0.42,0.34,0.29,0.02,0.09,1.01,
1.175,0.42,0.34,0.29,0.02,0.09,1.01,
1.176,0.44,0.31,0.25,0.02,0.09,1.01,
1.176,0.44,0.31,0.25,0.02,0.09,1.01,
1.179,0.44,0.31,0.25,0.02,0.09,1.01,
1.179,0.47,0.28,0.23,0.02,0.09,1.01,
1.181,0.47,0.28,0.23,0.01,0.09,1.01,
1.183,0.47,0.28,0.23,0.01,0.08,1.01,
1.184,0.48,0.27,0.19,0.01,0.08,1.01,
1.186,0.48,0.27,0.19,0.01,0.08,1.00,
1.188,0.48,0.27,0.19,0.02,0.08,1.00,
1.188,0.45,0.22,0.18,0.02,0.08,1.00,
1.19,0.45,0.22,0.18,0.02,0.08,1.00,
1.193,0.45,0.22,0.18,0.02,0.08,1.00,
1.193,0.47,0.20,0.16,0.02,0.08,1.00,
1.196,0.47,0.20,0.16,0.02,0.08,1.01,
1.198,0.47,0.20,0.16,0.02,0.08,1.01,
1.198,0.49,0.17,0.15,0.02,0.08,1.01,
1.201,0.49,0.17,0.15,0.02,0.08,1.01,
1.203,0.49,0.17,0.15,0.02,0.08,1.01,
1.203,0.50,0.14,0.17,0.02,0.08,1.01,
1.205,0.50,0.14,0.17,0.02,0.08,1.01,
1.208,0.50,0.14,0.17,0.03,0.08,1.01,
1.208,0.52,0.13,0.17,0.03,0.08,1.01,
1.21,0.52,0.13,0.17,0.02,0.08,1.01,
1.213,0.52,0.13,0.17,0.03,0.08,1.01,
1.213,0.56,0.12,0.22,0.03,0.08,1.01,
1.215,0.56,0.12,0.22,0.03,0.08,1.01,
1.218,0.56,0.12,0.22,0.03,0.08,1.01,
1.218,0.57,0.11,0.21,0.03,0.08,1.01,
1.22,0.57,0.11,0.21,0.03,0.08,1.01,
1.224,0.57,0.11,0.21,0.04,0.08,1.01,
1.224,0.64,0.10,0.19,0.04,0.08,1.01,
1.225,0.64,0.10,0.19,0.04,0.08,1.01,
1.227,0.64,0.10,0.19,0.04,0.08,1.00,
1.228,0.69,0.10,0.18,0.04,0.08,1.00,
1.23,0.69,0.10,0.18,0.05,0.08,1.00,
1.232,0.69,0.10,0.18,0.05,0.09,1.00,
1.233,0.76,0.13,0.16,0.05,0.09,1.00,
1.235,0.76,0.13,0.16,0.05,0.09,1.00,
1.237,0.76,0.13,0.16,0.05,0.09,0.99,
1.237,0.80,0.15,0.12,0.05,0.09,0.99,
1.24,0.80,0.15,0.12,0.05,0.09,0.99,
1.242,0.80,0.15,0.12,0.06,0.09,0.99,
1.243,0.84,0.16,0.04,0.06,0.09,0.99,
1.244,0.84,0.16,0.04,0.06,0.09,0.98,
1.247,0.84,0.16,0.04,0.06,0.10,0.98,
1.247,0.88,0.20,-0.02,0.06,0.10,0.98,
1.249,0.88,0.20,-0.02,0.06,0.10,0.97,
1.252,0.88,0.20,-0.02,0.06,0.10,0.97,
1.252,0.89,0.23,-0.07,0.06,0.10,0.97,
1.254,0.89,0.23,-0.07,0.06,0.10,0.96,
1.257,0.89,0.27,-0.16,0.06,0.10,0.96,
1.258,0.89,0.27,-0.16,0.05,0.10,0.96,
1.259,0.89,0.27,-0.16,0.05,0.11,0.96,
1.262,0.89,0.27,-0.16,0.05,0.11,0.96,
1.262,0.88,0.30,-0.25,0.05,0.11,0.96,
1.264,0.88,0.30,-0.25,0.05,0.11,0.95,
1.267,0.88,0.30,-0.25,0.05,0.11,0.95,
1.267,0.86,0.31,-0.29,0.05,0.11,0.95,
1.269,0.86,0.31,-0.29,0.05,0.11,0.95,
1.272,0.86,0.31,-0.29,0.04,0.11,0.95,
1.272,0.84,0.35,-0.34,0.04,0.11,0.95,
1.279,0.84,0.35,-0.34,0.04,0.12,0.95,
1.28,0.80,0.36,-0.37,0.04,0.12,0.95,
1.28,0.80,0.36,-0.37,0.04,0.12,0.95,
1.28,0.80,0.36,-0.37,0.04,0.12,0.95,
1.281,0.80,0.36,-0.37,0.04,0.12,0.95,
1.282,0.78,0.37,-0.37,0.04,0.12,0.95,
1.284,0.78,0.37,-0.37,0.03,0.12,0.95,
1.286,0.78,0.37,-0.37,0.03,0.12,0.95,
1.287,0.77,0.37,-0.35,0.03,0.12,0.95,
1.291,0.77,0.37,-0.35,0.03,0.12,0.95,
1.291,0.77,0.37,-0.35,0.03,0.12,0.95,
1.292,0.72,0.38,-0.35,0.03,0.12,0.95,
1.294,0.72,0.38,-0.35,0.03,0.12,0.96,
1.296,0.72,0.38,-0.35,0.03,0.12,0.96,
1.296,0.71,0.38,-0.33,0.03,0.12,0.96,
1.298,0.71,0.38,-0.33,0.03,0.12,0.96,
1.301,0.71,0.38,-0.33,0.03,0.12,0.96,
1.301,0.69,0.40,-0.29,0.03,0.12,0.96,
1.303,0.69,0.40,-0.29,0.03,0.12,0.96,
1.306,0.69,0.40,-0.29,0.03,0.13,0.96,
1.306,0.69,0.40,-0.27,0.03,0.13,0.96,
1.308,0.69,0.40,-0.27,0.03,0.13,0.96,
1.311,0.69,0.40,-0.27,0.03,0.13,0.96,
1.311,0.69,0.39,-0.25,0.03,0.13,0.96,
1.313,0.69,0.39,-0.25,0.02,0.13,0.96,
1.316,0.69,0.39,-0.25,0.02,0.13,0.96,
1.316,0.68,0.40,-0.23,0.02,0.13,0.96,
1.318,0.68,0.40,-0.23,0.02,0.13,0.96,
1.321,0.68,0.40,-0.23,0.03,0.13,0.96,
1.321,0.66,0.40,-0.24,0.03,0.13,0.96,
1.323,0.66,0.40,-0.24,0.02,0.13,0.96,
1.326,0.66,0.40,-0.24,0.02,0.13,0.96,
1.326,0.67,0.40,-0.24,0.02,0.13,0.96,
1.328,0.67,0.40,-0.24,0.02,0.13,0.96,
1.33,0.67,0.40,-0.24,0.02,0.13,0.97,
1.331,0.66,0.40,-0.21,0.02,0.13,0.97,
1.333,0.66,0.40,-0.21,0.02,0.13,0.97,
1.335,0.66,0.40,-0.21,0.02,0.13,0.97,
1.335,0.65,0.40,-0.17,0.02,0.13,0.97,
1.338,0.65,0.40,-0.17,0.02,0.13,0.97,
1.34,0.65,0.40,-0.17,0.02,0.13,0.97,
1.341,0.65,0.38,-0.13,0.02,0.13,0.97,
1.342,0.65,0.38,-0.13,0.02,0.13,0.98,
1.345,0.65,0.38,-0.13,0.02,0.12,0.98,
1.345,0.66,0.36,-0.08,0.02,0.12,0.98,
1.347,0.66,0.36,-0.08,0.02,0.12,0.98,
1.35,0.66,0.36,-0.08,0.02,0.12,0.99,
1.35,0.66,0.35,-0.03,0.02,0.12,0.99,
1.352,0.66,0.35,-0.03,0.02,0.12,0.99,
1.355,0.66,0.35,-0.03,0.02,0.12,0.99,
1.356,0.64,0.32,0.03,0.02,0.12,0.99,
1.363,0.64,0.32,0.03,0.02,0.12,1.00,
1.364,0.64,0.32,0.03,0.01,0.12,1.00,
1.364,0.61,0.31,0.09,0.01,0.12,1.00,
1.364,0.61,0.31,0.09,0.01,0.12,1.00,
1.364,0.61,0.31,0.09,0.01,0.12,1.00,
1.365,0.57,0.28,0.15,0.01,0.12,1.00,
1.367,0.57,0.28,0.15,0.01,0.12,1.01,
1.369,0.52,0.26,0.20,0.01,0.12,1.01,
1.37,0.52,0.26,0.20,0.01,0.11,1.01,
1.374,0.52,0.26,0.20,0.00,0.11,1.01,
1.375,0.52,0.26,0.20,0.00,0.11,1.01,
1.375,0.50,0.24,0.24,0.00,0.11,1.01,
1.377,0.50,0.24,0.24,0.00,0.11,1.01,
1.379,0.50,0.24,0.24,0.00,0.11,1.01,
1.379,0.45,0.22,0.27,0.00,0.11,1.01,
1.382,0.45,0.22,0.27,-0.00,0.11,1.01,
1.384,0.45,0.22,0.27,-0.00,0.12,1.01,
1.384,0.44,0.22,0.27,-0.00,0.12,1.01,
1.387,0.44,0.22,0.27,0.00,0.12,1.01,
1.39,0.44,0.22,0.27,-0.00,0.12,1.01,
1.391,0.41,0.22,0.28,-0.00,0.12,1.01,
1.392,0.41,0.22,0.28,-0.00,0.12,1.01,
1.394,0.41,0.22,0.28,-0.01,0.12,1.00,
1.394,0.42,0.25,0.26,-0.01,0.12,1.00,
1.396,0.42,0.25,0.26,-0.01,0.12,1.00,
1.399,0.42,0.25,0.26,-0.01,0.12,1.00,
1.399,0.38,0.27,0.20,-0.01,0.12,1.00,
1.401,0.38,0.27,0.20,-0.01,0.13,0.99,
1.404,0.38,0.27,0.20,-0.01,0.13,0.99,
1.404,0.35,0.28,0.13,-0.01,0.13,0.99,
1.406,0.35,0.28,0.13,-0.01,0.13,0.98,
1.409,0.35,0.28,0.13,-0.01,0.13,0.97,
1.409,0.34,0.29,0.04,-0.01,0.13,0.97,
1.411,0.34,0.29,0.04,-0.01,0.13,0.97,
1.413,0.34,0.29,0.04,-0.01,0.13,0.96,
1.414,0.32,0.30,-0.07,-0.01,0.13,0.96,
1.416,0.32,0.30,-0.07,-0.01,0.13,0.96,
1.418,0.32,0.30,-0.07,-0.01,0.13,0.96,
1.419,0.31,0.30,-0.16,-0.01,0.13,0.96,
1.421,0.31,0.30,-0.16,-0.01,0.13,0.96,
1.423,0.31,0.30,-0.16,-0.01,0.13,0.95,
1.424,0.27,0.28,-0.22,-0.01,0.13,0.95,
1.426,0.27,0.28,-0.22,-0.01,0.12,0.96,
1.428,0.27,0.28,-0.22,-0.01,0.13,0.95,
1.428,0.28,0.26,-0.27,-0.01,0.13,0.95,
1.43,0.28,0.26,-0.27,-0.01,0.12,0.95,
1.433,0.28,0.26,-0.27,-0.01,0.12,0.95,
1.433,0.27,0.24,-0.28,-0.01,0.12,0.95,
1.435,0.27,0.24,-0.28,-0.01,0.12,0.96,
1.439,0.27,0.24,-0.28,-0.01,0.12,0.96,
1.44,0.24,0.21,-0.29,-0.01,0.12,0.96,
1.441,0.24,0.21,-0.29,-0.01,0.12,0.96,
1.443,0.24,0.21,-0.29,-0.02,0.12,0.96,
1.443,0.24,0.18,-0.26,-0.02,0.12,0.96,
1.445,0.24,0.18,-0.26,-0.02,0.11,0.96,
1.448,0.24,0.18,-0.26,-0.02,0.11,0.97,
1.448,0.22,0.15,-0.20,-0.02,0.11,0.97,
1.45,0.22,0.15,-0.20,-0.02,0.11,0.97,
1.453,0.22,0.15,-0.20,-0.02,0.11,0.97,
1.453,0.20,0.12,-0.16,-0.02,0.11,0.97,
1.456,0.20,0.12,-0.16,-0.02,0.11,0.98,
1.458,0.20,0.12,-0.16,-0.02,0.10,0.98,
1.458,0.16,0.07,-0.11,-0.02,0.10,0.98,
1.46,0.16,0.07,-0.11,-0.02,0.10,0.98,
1.462,0.16,0.07,-0.11,-0.02,0.10,0.98,
1.463,0.14,0.04,-0.04,-0.02,0.10,0.98,
1.465,0.14,0.04,-0.04,-0.02,0.10,0.99,
1.467,0.14,0.04,-0.04,-0.02,0.10,0.99,
1.468,0.13,0.01,0.02,-0.02,0.10,0.99,
1.47,0.13,0.01,0.02,-0.02,0.10,0.99,
1.478,0.13,0.01,0.02,-0.02,0.10,0.99,
1.478,0.13,-0.02,0.07,-0.02,0.10,0.99,
1.479,0.13,-0.02,0.07,-0.02,0.10,1.00,
1.479,0.13,-0.02,0.07,-0.02,0.10,1.00,
1.482,0.14,-0.05,0.11,-0.02,0.10,1.00,
1.482,0.14,-0.05,0.11,-0.02,0.10,1.00,
1.482,0.14,-0.07,0.14,-0.02,0.10,1.00,
1.483,0.14,-0.07,0.14,-0.02,0.10,1.00,
1.484,0.14,-0.07,0.14,-0.02,0.10,0.99,
1.487,0.14,-0.07,0.14,-0.02,0.09,0.99,
1.487,0.15,-0.06,0.13,-0.02,0.09,0.99,
1.491,0.15,-0.06,0.13,-0.02,0.09,0.99,
1.493,0.15,-0.06,0.13,-0.02,0.09,0.99,
1.493,0.15,-0.08,0.12,-0.02,0.09,0.99,
1.494,0.15,-0.08,0.12,-0.02,0.10,0.98,
1.497,0.15,-0.08,0.12,-0.02,0.10,0.98,
1.497,0.14,-0.10,0.07,-0.02,0.10,0.98,
1.499,0.14,-0.10,0.07,-0.02,0.10,0.98,
1.501,0.14,-0.10,0.07,-0.02,0.10,0.98,
1.502,0.12,-0.07,0.01,-0.02,0.10,0.98,
1.504,0.12,-0.07,0.01,-0.02,0.10,0.97,
1.507,0.12,-0.07,0.01,-0.02,0.10,0.97,
1.507,0.09,-0.07,-0.04,-0.02,0.10,0.97,
1.509,0.09,-0.07,-0.04,-0.02,0.10,0.97,
1.512,0.09,-0.07,-0.04,-0.03,0.10,0.96,
1.512,0.06,-0.06,-0.11,-0.03,0.10,0.96,
1.514,0.06,-0.06,-0.11,-0.03,0.10,0.96,
1.516,0.06,-0.06,-0.11,-0.03,0.10,0.96,
1.516,0.02,-0.07,-0.18,-0.03,0.10,0.96,
1.518,0.02,-0.07,-0.18,-0.03,0.10,0.95,
1.522,0.02,-0.07,-0.18,-0.03,0.10,0.95,
1.522,-0.05,-0.06,-0.24,-0.03,0.10,0.95,
1.523,-0.05,-0.06,-0.24,-0.04,0.10,0.95,
1.526,-0.05,-0.06,-0.24,-0.04,0.10,0.95,
1.526,-0.08,-0.05,-0.28,-0.04,0.10,0.95,
1.528,-0.08,-0.05,-0.28,-0.04,0.10,0.95,
1.531,-0.08,-0.05,-0.28,-0.04,0.10,0.95,
1.531,-0.13,-0.04,-0.30,-0.04,0.10,0.95,
1.533,-0.13,-0.04,-0.30,-0.04,0.10,0.95,
1.536,-0.13,-0.04,-0.30,-0.05,0.10,0.95,
1.536,-0.19,-0.04,-0.30,-0.05,0.10,0.95,
1.539,-0.19,-0.04,-0.30,-0.05,0.10,0.95,
1.541,-0.19,-0.04,-0.30,-0.05,0.10,0.96,
1.542,-0.21,-0.04,-0.28,-0.05,0.10,0.96,
1.544,-0.21,-0.04,-0.28,-0.05,0.10,0.96,
1.546,-0.21,-0.04,-0.28,-0.05,0.10,0.96,
1.546,-0.26,-0.05,-0.24,-0.05,0.10,0.96,
1.548,-0.26,-0.05,-0.24,-0.05,0.10,0.96,
1.55,-0.26,-0.05,-0.24,-0.05,0.09,0.96,
1.551,-0.25,-0.08,-0.19,-0.05,0.09,0.96,
1.553,-0.25,-0.08,-0.19,-0.05,0.09,0.97,
1.556,-0.25,-0.08,-0.19,-0.05,0.09,0.97,
1.556,-0.24,-0.12,-0.17,-0.05,0.09,0.97,
1.558,-0.24,-0.12,-0.17,-0.05,0.09,0.97,
1.561,-0.24,-0.12,-0.17,-0.05,0.09,0.97,
1.561,-0.22,-0.15,-0.11,-0.05,0.09,0.97,
1.563,-0.22,-0.15,-0.11,-0.05,0.09,0.98,
1.565,-0.22,-0.15,-0.11,-0.05,0.09,0.98,
1.565,-0.22,-0.17,-0.07,-0.05,0.09,0.98,
1.568,-0.22,-0.17,-0.07,-0.05,0.09,0.98,
1.57,-0.22,-0.17,-0.07,-0.05,0.09,0.98,
1.571,-0.22,-0.20,-0.03,-0.05,0.09,0.98,
1.579,-0.22,-0.20,-0.03,-0.05,0.08,0.99,
1.58,-0.22,-0.20,-0.03,-0.05,0.08,0.99,
1.58,-0.21,-0.21,0.02,-0.05,0.08,0.99,
1.58,-0.21,-0.21,0.02,-0.05,0.08,0.99,
1.581,-0.21,-0.21,0.02,-0.05,0.08,0.99,
1.581,-0.20,-0.23,0.10,-0.05,0.08,0.99,
1.582,-0.20,-0.23,0.10,-0.05,0.08,1.00,
1.585,-0.20,-0.23,0.10,-0.05,0.08,1.00,
1.585,-0.20,-0.25,0.14,-0.05,0.08,1.00,
1.588,-0.20,-0.25,0.14,-0.05,0.07,1.00,
1.59,-0.20,-0.25,0.14,-0.05,0.07,1.00,
1.59,-0.21,-0.29,0.18,-0.05,0.07,1.00,
1.592,-0.21,-0.29,0.18,-0.05,0.07,1.00,
1.595,-0.21,-0.29,0.18,-0.05,0.07,1.01,
1.595,-0.23,-0.34,0.21,-0.05,0.07,1.01,
1.597,-0.23,-0.34,0.21,-0.05,0.06,1.01,
1.599,-0.23,-0.34,0.21,-0.05,0.06,1.01,
1.6,-0.25,-0.38,0.24,-0.05,0.06,1.01,
1.602,-0.25,-0.38,0.24,-0.05,0.06,1.01,
1.605,-0.25,-0.38,0.24,-0.05,0.06,1.01,
1.606,-0.29,-0.42,0.25,-0.05,0.06,1.01,
1.607,-0.29,-0.42,0.25,-0.06,0.06,1.01,
1.61,-0.29,-0.42,0.25,-0.06,0.06,1.01,
1.61,-0.31,-0.45,0.26,-0.06,0.06,1.01,
1.612,-0.31,-0.45,0.26,-0.06,0.06,1.00,
1.614,-0.31,-0.45,0.26,-0.06,0.06,1.00,
1.615,-0.35,-0.46,0.24,-0.06,0.06,1.00,
1.617,-0.35,-0.46,0.24,-0.06,0.06,1.00,
1.619,-0.35,-0.46,0.24,-0.06,0.06,1.00,
1.619,-0.36,-0.47,0.19,-0.06,0.06,1.00,
1.622,-0.36,-0.47,0.19,-0.06,0.06,0.99,
1.624,-0.36,-0.47,0.19,-0.06,0.06,0.99,
1.625,-0.38,-0.47,0.15,-0.06,0.06,0.99,
1.627,-0.38,-0.47,0.15,-0.07,0.06,0.99,
1.629,-0.38,-0.47,0.15,-0.07,0.06,0.99,
1.63,-0.43,-0.47,0.11,-0.07,0.06,0.99,
1.631,-0.43,-0.47,0.11,-0.07,0.06,0.98,
1.634,-0.45,-0.46,0.07,-0.07,0.06,0.98,
1.634,-0.45,-0.46,0.07,-0.07,0.06,0.98,
1.636,-0.45,-0.46,0.07,-0.07,0.06,0.98,
1.639,-0.45,-0.46,0.07,-0.07,0.06,0.98,
1.639,-0.48,-0.44,0.02,-0.07,0.06,0.98,
1.642,-0.48,-0.44,0.02,-0.07,0.06,0.98,
1.643,-0.48,-0.44,0.02,-0.08,0.07,0.98,
1.644,-0.50,-0.42,-0.02,-0.08,0.07,0.98,
1.646,-0.50,-0.42,-0.02,-0.08,0.07,0.98,
1.648,-0.50,-0.42,-0.02,-0.08,0.07,0.97,
1.649,-0.53,-0.41,-0.04,-0.08,0.07,0.97,
1.651,-0.53,-0.41,-0.04,-0.08,0.07,0.97,
1.653,-0.53,-0.41,-0.04,-0.08,0.07,0.97,
1.661,-0.55,-0.39,-0.07,-0.08,0.07,0.97,
1.661,-0.55,-0.39,-0.07,-0.08,0.07,0.96,
1.662,-0.55,-0.39,-0.07,-0.08,0.08,0.96,
1.662,-0.58,-0.36,-0.12,-0.08,0.08,0.96,
1.662,-0.58,-0.36,-0.12,-0.08,0.08,0.96,
1.663,-0.58,-0.36,-0.12,-0.08,0.08,0.96,
1.664,-0.56,-0.33,-0.17,-0.08,0.08,0.96,
1.666,-0.56,-0.33,-0.17,-0.08,0.08,0.96,
1.668,-0.56,-0.33,-0.17,-0.08,0.08,0.95,
1.668,-0.59,-0.31,-0.20,-0.08,0.08,0.95,
1.672,-0.59,-0.31,-0.20,-0.08,0.08,0.95,
1.673,-0.59,-0.31,-0.20,-0.08,0.08,0.95,
1.673,-0.58,-0.32,-0.26,-0.08,0.08,0.95,
1.675,-0.58,-0.32,-0.26,-0.08,0.08,0.95,
1.678,-0.58,-0.32,-0.26,-0.08,0.08,0.95,
1.678,-0.59,-0.32,-0.30,-0.08,0.08,0.95,
1.68,-0.59,-0.32,-0.30,-0.08,0.07,0.94,
1.683,-0.59,-0.35,-0.33,-0.08,0.07,0.94,
1.683,-0.59,-0.35,-0.33,-0.08,0.07,0.94,
1.685,-0.59,-0.35,-0.33,-0.08,0.07,0.94,
1.688,-0.59,-0.35,-0.33,-0.08,0.07,0.94,
1.688,-0.59,-0.37,-0.36,-0.08,0.07,0.94,
1.69,-0.59,-0.37,-0.36,-0.08,0.07,0.94,
1.693,-0.59,-0.37,-0.36,-0.08,0.07,0.94,
1.693,-0.57,-0.42,-0.36,-0.08,0.07,0.94,
1.695,-0.57,-0.42,-0.36,-0.08,0.06,0.95,
1.698,-0.57,-0.42,-0.36,-0.08,0.06,0.94,
1.698,-0.54,-0.45,-0.34,-0.08,0.06,0.94,
1.7,-0.54,-0.45,-0.34,-0.08,0.06,0.95,
1.702,-0.54,-0.45,-0.34,-0.07,0.06,0.95,
1.702,-0.51,-0.49,-0.32,-0.07,0.06,0.95,
1.705,-0.51,-0.49,-0.32,-0.07,0.05,0.95,
1.707,-0.51,-0.49,-0.32,-0.07,0.05,0.96,
1.707,-0.49,-0.54,-0.27,-0.07,0.05,0.96,
1.71,-0.49,-0.54,-0.27,-0.07,0.05,0.96,
1.712,-0.49,-0.54,-0.27,-0.07,0.04,0.96,
1.712,-0.46,-0.59,-0.22,-0.07,0.04,0.96,
1.715,-0.46,-0.59,-0.22,-0.07,0.04,0.96,
1.717,-0.46,-0.59,-0.22,-0.06,0.04,0.96,
1.717,-0.44,-0.65,-0.17,-0.06,0.04,0.96,
1.719,-0.44,-0.65,-0.17,-0.06,0.04,0.97,
1.722,-0.44,-0.65,-0.17,-0.06,0.04,0.97,
1.723,-0.41,-0.70,-0.12,-0.06,0.04,0.97,
1.725,-0.41,-0.70,-0.12,-0.06,0.03,0.97,
1.727,-0.41,-0.70,-0.12,-0.06,0.03,0.97,
1.727,-0.38,-0.74,-0.11,-0.06,0.03,0.97,
1.729,-0.38,-0.74,-0.11,-0.06,0.03,0.97,
1.732,-0.38,-0.74,-0.11,-0.06,0.03,0.96,
1.732,-0.36,-0.77,-0.11,-0.06,0.03,0.96,
1.734,-0.36,-0.77,-0.11,-0.06,0.03,0.96,
1.737,-0.36,-0.77,-0.11,-0.06,0.03,0.96,
1.737,-0.35,-0.78,-0.11,-0.06,0.03,0.96,
1.739,-0.35,-0.78,-0.11,-0.06,0.03,0.96,
1.742,-0.35,-0.78,-0.11,-0.06,0.03,0.96,
1.742,-0.33,-0.80,-0.11,-0.06,0.03,0.96,
1.744,-0.33,-0.80,-0.11,-0.05,0.03,0.96,
1.746,-0.33,-0.80,-0.11,-0.06,0.03,0.96,
1.747,-0.31,-0.77,-0.12,-0.06,0.03,0.96,
1.749,-0.31,-0.77,-0.12,-0.06,0.03,0.97,
1.751,-0.31,-0.77,-0.12,-0.06,0.03,0.97,
1.752,-0.31,-0.77,-0.13,-0.06,0.03,0.97,
1.76,-0.31,-0.77,-0.13,-0.06,0.03,0.97,
1.761,-0.31,-0.77,-0.13,-0.06,0.03,0.96,
1.761,-0.32,-0.78,-0.10,-0.06,0.03,0.96,
1.761,-0.32,-0.78,-0.10,-0.06,0.03,0.97,
1.762,-0.32,-0.78,-0.10,-0.06,0.03,0.97,
1.762,-0.35,-0.77,-0.10,-0.06,0.03,0.97,
1.763,-0.35,-0.77,-0.10,-0.06,0.03,0.97,
1.766,-0.35,-0.77,-0.10,-0.06,0.03,0.97,
1.766,-0.37,-0.78,-0.09,-0.06,0.03,0.97,
1.768,-0.37,-0.78,-0.09,-0.07,0.03,0.97,
1.772,-0.37,-0.78,-0.09,-0.07,0.03,0.97,
1.773,-0.37,-0.76,-0.08,-0.07,0.03,0.97,
1.773,-0.37,-0.76,-0.08,-0.07,0.03,0.97,
1.776,-0.37,-0.76,-0.08,-0.07,0.03,0.97,
1.776,-0.40,-0.75,-0.07,-0.07,0.03,0.97,
1.778,-0.40,-0.75,-0.07,-0.07,0.03,0.97,
1.781,-0.40,-0.75,-0.07,-0.08,0.03,0.97,
1.781,-0.43,-0.76,-0.06,-0.08,0.03,0.97,
1.783,-0.43,-0.76,-0.06,-0.08,0.04,0.97,
1.786,-0.43,-0.76,-0.06,-0.08,0.03,0.97,
1.786,-0.45,-0.75,-0.08,-0.08,0.03,0.97,
1.788,-0.45,-0.75,-0.08,-0.08,0.03,0.97,
1.791,-0.45,-0.75,-0.08,-0.08,0.03,0.97,
1.791,-0.48,-0.74,-0.06,-0.08,0.03,0.97,
1.793,-0.48,-0.74,-0.06,-0.08,0.03,0.97,
1.795,-0.48,-0.74,-0.06,-0.08,0.02,0.97,
1.796,-0.50,-0.78,-0.04,-0.08,0.02,0.97,
1.798,-0.50,-0.78,-0.04,-0.08,0.02,0.98,
1.8,-0.50,-0.78,-0.04,-0.08,0.02,0.98,
1.801,-0.51,-0.82,-0.01,-0.08,0.02,0.98,
1.803,-0.51,-0.82,-0.01,-0.08,0.02,0.98,
1.806,-0.51,-0.82,-0.01,-0.08,0.02,0.98,
1.806,-0.53,-0.87,0.01,-0.08,0.02,0.98,
1.808,-0.53,-0.87,0.01,-0.08,0.01,0.98,
1.81,-0.53,-0.87,0.01,-0.08,0.01,0.99,
1.81,-0.51,-0.91,0.04,-0.08,0.01,0.99,
1.812,-0.51,-0.91,0.04,-0.08,0.00,0.99,
1.815,-0.51,-0.91,0.04,-0.07,0.00,0.99,
1.815,-0.49,-0.97,0.09,-0.07,0.00,0.99,
1.817,-0.49,-0.97,0.09,-0.07,-0.00,0.99,
1.821,-0.49,-0.97,0.09,-0.06,-0.00,1.00,
1.821,-0.43,-1.02,0.14,-0.06,-0.00,1.00,
1.824,-0.43,-1.02,0.14,-0.06,-0.01,1.00,
1.825,-0.43,-1.02,0.14,-0.05,-0.01,1.00,
1.825,-0.33,-1.06,0.18,-0.05,-0.01,1.00,
1.827,-0.33,-1.06,0.18,-0.05,-0.01,1.00,
1.829,-0.33,-1.06,0.18,-0.04,-0.01,1.00,
1.83,-0.24,-1.10,0.22,-0.04,-0.01,1.00,
1.832,-0.24,-1.10,0.22,-0.04,-0.01,1.00,
1.835,-0.24,-1.10,0.22,-0.03,-0.02,1.00,
1.835,-0.17,-1.14,0.24,-0.03,-0.02,1.00,
1.837,-0.17,-1.14,0.24,-0.03,-0.02,1.00,
1.839,-0.17,-1.14,0.24,-0.03,-0.02,1.00,
1.839,-0.07,-1.16,0.24,-0.03,-0.02,1.00,
1.842,-0.07,-1.16,0.24,-0.02,-0.02,1.00,
1.844,-0.07,-1.16,0.24,-0.02,-0.02,1.00,
1.844,-0.00,-1.17,0.25,-0.02,-0.02,1.00,
1.846,-0.00,-1.17,0.25,-0.02,-0.03,1.00,
1.849,-0.00,-1.17,0.25,-0.02,-0.03,1.00,
1.849,0.05,-1.20,0.24,-0.02,-0.03,1.00,
1.852,0.05,-1.20,0.24,-0.02,-0.03,1.00,
1.854,0.05,-1.20,0.24,-0.02,-0.03,1.00,
1.854,0.06,-1.22,0.22,-0.02,-0.03,1.00,
1.856,0.06,-1.22,0.22,-0.02,-0.03,1.00,
1.859,0.06,-1.22,0.22,-0.02,-0.03,1.00,
1.859,0.04,-1.22,0.22,-0.02,-0.03,1.00,
1.861,0.04,-1.22,0.22,-0.02,-0.03,0.99,
1.864,0.04,-1.22,0.22,-0.03,-0.03,0.99,
1.864,0.03,-1.23,0.19,-0.03,-0.03,0.99,
1.866,0.03,-1.23,0.19,-0.03,-0.02,0.99,
1.869,0.03,-1.23,0.19,-0.04,-0.02,0.99,
1.869,-0.03,-1.20,0.15,-0.04,-0.02,0.99,
1.877,-0.03,-1.20,0.15,-0.04,-0.02,0.99,
1.878,-0.03,-1.20,0.15,-0.04,-0.02,0.98,
1.878,-0.11,-1.18,0.12,-0.04,-0.02,0.98,
1.878,-0.11,-1.18,0.12,-0.05,-0.02,0.98,
1.879,-0.11,-1.18,0.12,-0.05,-0.01,0.98,
1.879,-0.18,-1.13,0.08,-0.05,-0.01,0.98,
1.881,-0.18,-1.13,0.08,-0.06,-0.01,0.98,
1.883,-0.18,-1.13,0.08,-0.06,-0.01,0.97,
1.884,-0.25,-1.06,0.04,-0.06,-0.01,0.97,
1.886,-0.25,-1.06,0.04,-0.07,-0.00,0.97,
1.889,-0.25,-1.06,0.04,-0.07,0.00,0.97,
1.889,-0.33,-1.01,-0.02,-0.07,0.00,0.97,
1.891,-0.33,-1.01,-0.02,-0.07,0.01,0.97,
1.893,-0.33,-1.01,-0.02,-0.08,0.01,0.96,
1.893,-0.41,-0.92,-0.07,-0.08,0.01,0.96,
1.895,-0.41,-0.92,-0.07,-0.09,0.01,0.96,
1.898,-0.41,-0.92,-0.07,-0.09,0.01,0.96,
1.898,-0.48,-0.84,-0.13,-0.09,0.01,0.96,
1.9,-0.48,-0.84,-0.13,-0.09,0.02,0.95,
1.903,-0.48,-0.84,-0.13,-0.09,0.02,0.95,
1.903,-0.56,-0.79,-0.19,-0.09,0.02,0.95,
1.905,-0.56,-0.79,-0.19,-0.09,0.02,0.95,
1.908,-0.56,-0.79,-0.19,-0.09,0.02,0.95,
1.908,-0.57,-0.74,-0.24,-0.09,0.02,0.95,
1.91,-0.57,-0.74,-0.24,-0.09,0.02,0.95,
1.913,-0.57,-0.74,-0.24,-0.09,0.03,0.95,
1.913,-0.57,-0.72,-0.28,-0.09,0.03,0.95,
1.915,-0.57,-0.72,-0.28,-0.09,0.03,0.95,
1.918,-0.57,-0.72,-0.28,-0.09,0.03,0.95,
1.918,-0.56,-0.67,-0.28,-0.09,0.03,0.95,
1.92,-0.56,-0.67,-0.28,-0.08,0.03,0.95,
1.923,-0.56,-0.67,-0.28,-0.08,0.03,0.95,
1.923,-0.53,-0.63,-0.29,-0.08,0.03,0.95,
1.925,-0.53,-0.63,-0.29,-0.08,0.03,0.95,
1.928,-0.53,-0.63,-0.29,-0.08,0.03,0.95,
1.928,-0.49,-0.63,-0.28,-0.08,0.03,0.95,
1.93,-0.49,-0.63,-0.28,-0.07,0.03,0.95,
1.933,-0.49,-0.63,-0.28,-0.07,0.03,0.96,
1.933,-0.43,-0.60,-0.24,-0.07,0.03,0.96,
1.935,-0.43,-0.60,-0.24,-0.06,0.03,0.96,
1.938,-0.43,-0.60,-0.24,-0.06,0.03,0.96,
1.938,-0.36,-0.60,-0.21,-0.06,0.03,0.96,
1.94,-0.36,-0.60,-0.21,-0.06,0.03,0.97,
1.942,-0.36,-0.60,-0.21,-0.06,0.02,0.97,
1.943,-0.28,-0.62,-0.14,-0.06,0.02,0.97,
1.945,-0.28,-0.62,-0.14,-0.06,0.02,0.97,
1.947,-0.28,-0.62,-0.14,-0.05,0.02,0.97,
1.947,-0.24,-0.65,-0.06,-0.05,0.02,0.97,
1.949,-0.24,-0.65,-0.06,-0.05,0.02,0.98,
1.952,-0.19,-0.67,-0.03,-0.05,0.02,0.98,
1.953,-0.19,-0.67,-0.03,-0.05,0.02,0.98,
1.96,-0.19,-0.67,-0.03,-0.05,0.02,0.98,
1.96,-0.17,-0.67,0.01,-0.05,0.02,0.98,
1.961,-0.17,-0.67,0.01,-0.05,0.02,0.98,
1.961,-0.17,-0.67,0.01,-0.05,0.02,0.98,
1.962,-0.17,-0.67,0.01,-0.05,0.02,0.98,
1.962,-0.15,-0.66,0.05,-0.05,0.02,0.98,
1.964,-0.15,-0.66,0.05,-0.05,0.02,0.98,
1.967,-0.15,-0.66,0.05,-0.05,0.02,0.98,
1.969,-0.13,-0.66,0.07,-0.05,0.02,0.98,
1.97,-0.13,-0.66,0.07,-0.06,0.02,0.98,
1.972,-0.13,-0.66,0.07,-0.06,0.02,0.98,
1.972,-0.19,-0.65,0.09,-0.06,0.02,0.98,
1.974,-0.19,-0.65,0.09,-0.06,0.02,0.98,
1.976,-0.19,-0.65,0.09,-0.06,0.03,0.98,
1.977,-0.23,-0.60,0.08,-0.06,0.03,0.98,
1.979,-0.23,-0.60,0.08,-0.06,0.03,0.98,
1.981,-0.23,-0.60,0.08,-0.07,0.03,0.98,
1.981,-0.25,-0.57,0.08,-0.07,0.03,0.98,
1.983,-0.25,-0.57,0.08,-0.07,0.03,0.99,
1.987,-0.25,-0.57,0.08,-0.07,0.03,0.99,
1.987,-0.28,-0.52,0.08,-0.07,0.03,0.99,
1.989,-0.28,-0.52,0.08,-0.07,0.04,0.99,
1.991,-0.28,-0.52,0.08,-0.07,0.04,0.99,
1.991,-0.31,-0.49,0.10,-0.07,0.04,0.99,
1.993,-0.31,-0.49,0.10,-0.07,0.04,0.99,
1.996,-0.31,-0.49,0.10,-0.07,0.04,0.99,
1.996,-0.33,-0.44,0.11,-0.07,0.04,0.99,
1.998,-0.33,-0.44,0.11,-0.07,0.05,0.99,
2.001,-0.33,-0.44,0.11,-0.07,0.05,0.99,
2.001,-0.34,-0.40,0.11,-0.07,0.05,0.99,
2.003,-0.34,-0.40,0.11,-0.07,0.05,0.98,
2.006,-0.34,-0.40,0.11,-0.07,0.05,0.98,
2.006,-0.32,-0.34,0.11,-0.07,0.05,0.98,
2.008,-0.32,-0.34,0.11,-0.07,0.05,0.98,
2.011,-0.32,-0.34,0.11,-0.07,0.05,0.98,
2.011,-0.29,-0.31,0.08,-0.07,0.05,0.98,
2.013,-0.29,-0.31,0.08,-0.07,0.05,0.98,
2.016,-0.29,-0.31,0.08,-0.07,0.05,0.97,
2.016,-0.27,-0.28,0.05,-0.07,0.05,0.97,
2.018,-0.27,-0.28,0.05,-0.07,0.05,0.97,
2.021,-0.27,-0.28,0.05,-0.07,0.06,0.97,
2.021,-0.26,-0.27,-0.00,-0.07,0.06,0.97,
2.023,-0.26,-0.27,-0.00,-0.06,0.06,0.97,
2.025,-0.26,-0.27,-0.00,-0.06,0.06,0.97,
2.026,-0.24,-0.26,-0.04,-0.06,0.06,0.97,
2.028,-0.24,-0.26,-0.04,-0.06,0.06,0.96,
2.03,-0.24,-0.26,-0.04,-0.06,0.06,0.97,
2.03,-0.19,-0.23,-0.08,-0.06,0.06,0.97,
2.032,-0.19,-0.23,-0.08,-0.06,0.05,0.96,
2.035,-0.19,-0.23,-0.08,-0.06,0.05,0.96,
2.035,-0.17,-0.25,-0.10,-0.06,0.05,0.96,
2.038,-0.17,-0.25,-0.10,-0.06,0.05,0.96,
2.04,-0.17,-0.25,-0.10,-0.06,0.05,0.96,
2.041,-0.16,-0.26,-0.12,-0.06,0.05,0.96,
2.042,-0.16,-0.26,-0.12,-0.06,0.05,0.96,
2.045,-0.16,-0.26,-0.12,-0.06,0.05,0.97,
2.045,-0.17,-0.27,-0.13,-0.06,0.05,0.97,
2.047,-0.17,-0.27,-0.13,-0.06,0.05,0.97,
2.05,-0.17,-0.27,-0.13,-0.06,0.05,0.97,
2.05,-0.18,-0.26,-0.10,-0.06,0.05,0.97,
2.059,-0.18,-0.26,-0.10,-0.06,0.05,0.97,
2.059,-0.18,-0.26,-0.10,-0.06,0.05,0.97,
2.059,-0.18,-0.27,-0.06,-0.06,0.05,0.97,
2.06,-0.18,-0.27,-0.06,-0.06,0.05,0.98,
2.06,-0.18,-0.27,-0.06,-0.06,0.05,0.98,
2.06,-0.18,-0.27,-0.01,-0.06,0.05,0.98,
2.062,-0.18,-0.27,-0.01,-0.06,0.05,0.99,
2.064,-0.18,-0.27,-0.01,-0.06,0.05,0.99,
2.065,-0.17,-0.27,0.05,-0.06,0.05,0.99,
2.067,-0.17,-0.27,0.05,-0.06,0.05,0.99,
2.072,-0.17,-0.27,0.05,-0.06,0.05,1.00,
2.072,-0.17,-0.29,0.11,-0.06,0.05,1.00,
2.072,-0.17,-0.29,0.11,-0.07,0.05,1.00,
2.075,-0.17,-0.29,0.11,-0.07,0.05,1.00,
2.075,-0.17,-0.29,0.18,-0.07,0.05,1.00,
2.077,-0.17,-0.29,0.18,-0.07,0.05,1.01,
2.079,-0.17,-0.29,0.18,-0.07,0.05,1.01,
2.079,-0.22,-0.25,0.25,-0.07,0.05,1.01,
2.082,-0.22,-0.25,0.25,-0.07,0.05,1.01,
2.084,-0.22,-0.25,0.25,-0.07,0.05,1.01,
2.084,-0.24,-0.24,0.29,-0.07,0.05,1.01,
2.086,-0.24,-0.24,0.29,-0.08,0.06,1.01,
2.089,-0.24,-0.24,0.29,-0.07,0.06,1.01,
2.089,-0.27,-0.21,0.34,-0.07,0.06,1.01,
2.092,-0.27,-0.21,0.34,-0.08,0.06,1.02,
2.094,-0.27,-0.21,0.34,-0.07,0.06,1.02,
2.094,-0.30,-0.16,0.35,-0.07,0.06,1.02,
2.096,-0.30,-0.16,0.35,-0.07,0.06,1.01,
2.099,-0.30,-0.16,0.35,-0.07,0.07,1.01,
2.099,-0.29,-0.13,0.37,-0.07,0.07,1.01,
2.101,-0.29,-0.13,0.37,-0.07,0.07,1.01,
2.104,-0.29,-0.13,0.37,-0.07,0.07,1.01,
2.104,-0.27,-0.07,0.35,-0.07,0.07,1.01,
2.106,-0.27,-0.07,0.35,-0.07,0.08,1.01,
2.109,-0.27,-0.07,0.35,-0.06,0.08,1.00,
2.109,-0.25,-0.00,0.33,-0.06,0.08,1.00,
2.111,-0.25,-0.00,0.33,-0.06,0.08,1.00,
2.114,-0.25,-0.00,0.33,-0.06,0.08,1.00,
2.114,-0.20,0.04,0.27,-0.06,0.08,1.00,
2.116,-0.20,0.04,0.27,-0.05,0.08,0.99,
2.119,-0.16,0.08,0.20,-0.05,0.08,0.99,
2.12,-0.16,0.08,0.20,-0.05,0.08,0.99,
2.122,-0.16,0.08,0.20,-0.05,0.08,0.99,
2.123,-0.16,0.08,0.20,-0.05,0.08,0.98,
2.124,-0.10,0.10,0.12,-0.05,0.08,0.98,
2.126,-0.10,0.10,0.12,-0.05,0.08,0.98,
2.128,-0.10,0.10,0.12,-0.04,0.08,0.97,
2.129,-0.06,0.10,0.06,-0.04,0.08,0.97,
2.131,-0.06,0.10,0.06,-0.04,0.08,0.97,
2.133,-0.06,0.10,0.06,-0.04,0.08,0.97,
2.134,-0.01,0.06,-0.02,-0.04,0.08,0.97,
2.136,-0.01,0.06,-0.02,-0.04,0.08,0.97,
2.139,-0.01,0.06,-0.02,-0.03,0.08,0.97,
2.139,0.04,0.06,-0.07,-0.03,0.08,0.97,
2.141,0.04,0.06,-0.07,-0.03,0.08,0.97,
2.143,0.04,0.06,-0.07,-0.03,0.08,0.97,
2.144,0.08,0.07,-0.10,-0.03,0.08,0.97,
2.145,0.08,0.07,-0.10,-0.03,0.07,0.97,
2.148,0.08,0.07,-0.10,-0.03,0.07,0.97,
2.148,0.13,0.06,-0.11,-0.03,0.07,0.97,
2.15,0.13,0.06,-0.11,-0.03,0.07,0.97,
2.154,0.13,0.06,-0.11,-0.03,0.07,0.97,
2.155,0.13,0.04,-0.12,-0.03,0.07,0.97,
2.155,0.13,0.04,-0.12,-0.03,0.07,0.97,
2.158,0.13,0.04,-0.12,-0.03,0.07,0.97,
2.159,0.13,0.03,-0.12,-0.03,0.07,0.97,
2.16,0.13,0.03,-0.12,-0.03,0.07,0.97,
2.163,0.13,0.03,-0.12,-0.03,0.07,0.97,
2.163,0.15,0.01,-0.10,-0.03,0.07,0.97,
2.165,0.15,0.01,-0.10,-0.03,0.07,0.97,
2.168,0.15,0.01,-0.10,-0.03,0.07,0.98,
2.168,0.13,-0.01,-0.08,-0.03,0.07,0.98,
2.175,0.13,-0.01,-0.08,-0.03,0.07,0.98,
2.176,0.13,-0.01,-0.08,-0.03,0.07,0.98,
2.176,0.13,-0.00,-0.03,-0.03,0.07,0.98,
2.176,0.13,-0.00,-0.03,-0.03,0.07,0.98,
2.178,0.13,-0.00,-0.03,-0.03,0.07,0.99,
2.178,0.14,0.00,0.01,-0.03,0.07,0.99,
2.179,0.14,0.00,0.01,-0.03,0.07,0.99,
2.182,0.14,0.00,0.01,-0.03,0.07,0.99,
2.182,0.12,-0.01,0.05,-0.03,0.07,0.99,
2.184,0.12,-0.01,0.05,-0.03,0.07,0.99,
2.189,0.12,-0.01,0.05,-0.03,0.07,0.99,
2.19,0.12,0.02,0.09,-0.03,0.07,0.99,
2.19,0.12,0.02,0.09,-0.03,0.07,0.99,
2.192,0.12,0.02,0.09,-0.02,0.07,1.00,
2.192,0.13,0.02,0.12,-0.02,0.07,1.00,
2.194,0.13,0.02,0.12,-0.02,0.07,1.00,
2.197,0.13,0.02,0.12,-0.02,0.07,1.00,
2.197,0.14,0.03,0.16,-0.02,0.07,1.00,
2.199,0.14,0.03,0.16,-0.03,0.07,1.00,
2.202,0.14,0.03,0.16,-0.03,0.07,1.00,
2.202,0.14,0.06,0.20,-0.03,0.07,1.00,
2.204,0.14,0.06,0.20,-0.02,0.07,1.00,
2.207,0.14,0.06,0.20,-0.02,0.07,1.00,
2.207,0.13,0.05,0.24,-0.02,0.07,1.00,
2.209,0.13,0.05,0.24,-0.03,0.07,1.00,
2.212,0.13,0.05,0.24,-0.02,0.07,1.00,
2.212,0.14,0.07,0.24,-0.02,0.07,1.00,
2.214,0.14,0.07,0.24,-0.02,0.07,1.00,
2.216,0.14,0.07,0.24,-0.02,0.07,1.00,
2.216,0.14,0.07,0.23,-0.02,0.07,1.00,
2.219,0.14,0.07,0.23,-0.02,0.08,1.00,
2.222,0.14,0.07,0.23,-0.02,0.08,1.00,
2.222,0.16,0.08,0.23,-0.02,0.08,1.00,
2.224,0.16,0.08,0.23,-0.02,0.08,1.00,
2.226,0.16,0.08,0.23,-0.02,0.08,1.00,
2.226,0.16,0.11,0.22,-0.02,0.08,1.00,
2.228,0.16,0.11,0.22,-0.02,0.08,1.00,
2.231,0.16,0.11,0.22,-0.01,0.07,1.00,
2.231,0.19,0.12,0.19,-0.01,0.07,1.00,
2.233,0.19,0.12,0.19,-0.01,0.07,1.00,
2.237,0.19,0.12,0.19,-0.01,0.07,1.00,
2.239,0.22,0.10,0.17,-0.01,0.07,1.00,
2.239,0.22,0.10,0.17,-0.01,0.07,0.99,
2.241,0.22,0.10,0.17,-0.01,0.07,1.00,
2.242,0.24,0.09,0.16,-0.01,0.07,1.00,
2.243,0.24,0.09,0.16,-0.01,0.07,0.99,
2.246,0.24,0.09,0.16,-0.01,0.07,0.99,
2.246,0.24,0.07,0.15,-0.01,0.07,0.99,
2.248,0.24,0.07,0.15,-0.01,0.07,0.99,
2.251,0.24,0.07,0.15,-0.01,0.07,0.99,
2.252,0.26,0.04,0.14,-0.01,0.07,0.99,
2.253,0.26,0.04,0.14,-0.01,0.07,0.99,
2.256,0.26,0.04,0.14,-0.01,0.07,0.99,
2.257,0.26,0.02,0.13,-0.01,0.07,0.99,
2.258,0.26,0.02,0.13,-0.01,0.07,1.00,
2.26,0.26,0.02,0.13,-0.01,0.07,1.00,
2.261,0.27,0.02,0.13,-0.01,0.07,1.00,
2.263,0.27,0.02,0.13,-0.01,0.06,1.00,
2.265,0.27,0.02,0.13,-0.01,0.07,1.00,
2.265,0.29,0.01,0.16,-0.01,0.07,1.00,
2.268,0.29,0.01,0.16,-0.01,0.07,1.00,
2.276,0.29,0.01,0.16,-0.01,0.07,1.00,
2.277,0.27,0.00,0.17,-0.01,0.07,1.00,
2.277,0.27,0.00,0.17,-0.01,0.07,1.01,
2.277,0.27,0.00,0.17,-0.01,0.07,1.01,
2.278,0.27,0.03,0.21,-0.01,0.07,1.01,
2.278,0.27,0.03,0.21,-0.02,0.07,1.01,
2.28,0.27,0.03,0.21,-0.02,0.07,1.01,
2.28,0.25,0.04,0.26,-0.02,0.07,1.01,
2.282,0.25,0.04,0.26,-0.02,0.07,1.01,
2.285,0.25,0.04,0.26,-0.03,0.07,1.01,
2.286,0.19,0.06,0.27,-0.03,0.07,1.01,
2.287,0.19,0.06,0.27,-0.03,0.07,1.01,
2.29,0.19,0.06,0.27,-0.04,0.08,0.98,
2.29,0.15,0.07,0.30,-0.04,0.08,0.98,
2.292,0.15,0.07,0.30,-0.04,0.08,0.93,
2.295,0.15,0.07,0.30,-0.05,0.09,0.89,
2.295,0.07,0.11,0.10,-0.05,0.09,0.89,
2.297,0.07,0.11,0.10,-0.05,0.09,0.89,
2.299,0.07,0.11,0.10,-0.05,0.10,0.89,
2.3,-0.06,0.17,-0.69,-0.05,0.10,0.89,
2.302,-0.06,0.17,-0.69,-0.05,0.11,0.91,
2.305,-0.06,0.17,-0.69,-0.05,0.11,0.92,
2.305,-0.11,0.32,-0.89,-0.05,0.11,0.92,
2.307,-0.11,0.32,-0.89,-0.04,0.11,0.92,
2.309,-0.11,0.32,-0.89,-0.05,0.11,0.93,
2.31,-0.06,0.46,-0.64,-0.05,0.11,0.93,
2.312,-0.06,0.46,-0.64,-0.04,0.11,0.93,
2.314,-0.06,0.46,-0.64,-0.05,0.11,0.94,
2.314,-0.03,0.48,-0.54,-0.05,0.11,0.94,
2.316,-0.03,0.48,-0.54,-0.05,0.10,0.96,
2.319,-0.03,0.48,-0.54,-0.04,0.10,0.98,
2.319,-0.04,0.46,-0.43,-0.04,0.10,0.98,
2.321,-0.04,0.46,-0.43,-0.04,0.09,1.00,
2.324,-0.04,0.46,-0.43,-0.04,0.08,1.01,
2.324,-0.03,0.37,-0.12,-0.04,0.08,1.01,
2.326,-0.03,0.37,-0.12,-0.03,0.07,1.03,
2.329,-0.03,0.37,-0.12,-0.02,0.07,1.04,
2.329,0.02,0.26,0.24,-0.02,0.07,1.04,
2.331,0.02,0.26,0.24,-0.02,0.06,1.05,
2.334,0.02,0.26,0.24,-0.01,0.06,1.06,
2.334,0.16,0.09,0.55,-0.01,0.06,1.06,
2.336,0.16,0.09,0.55,-0.01,0.06,1.07,
2.339,0.16,0.09,0.55,-0.01,0.06,1.07,
2.339,0.26,-0.03,0.75,-0.01,0.06,1.07,
2.341,0.26,-0.03,0.75,-0.02,0.06,1.07,
2.343,0.26,-0.03,0.75,-0.02,0.06,1.06,
2.344,0.27,-0.05,0.84,-0.02,0.06,1.06,
2.346,0.27,-0.05,0.84,-0.03,0.06,1.06,
2.349,0.27,-0.05,0.84,-0.03,0.06,1.05,
2.349,0.21,-0.04,0.80,-0.03,0.06,1.05,
2.351,0.21,-0.04,0.80,-0.03,0.07,1.04,
2.356,0.21,-0.04,0.80,-0.03,0.07,1.03,
2.356,0.14,-0.00,0.70,-0.03,0.07,1.03,
2.356,0.14,-0.00,0.70,-0.03,0.07,1.01,
2.358,0.14,-0.00,0.70,-0.02,0.07,1.00,
2.359,0.14,0.04,0.47,-0.02,0.07,1.00,
2.361,0.14,0.04,0.47,-0.02,0.08,0.99,
2.363,0.14,0.04,0.47,-0.03,0.08,0.98,
2.363,0.15,0.09,0.24,-0.03,0.08,0.98,
2.366,0.15,0.09,0.24,-0.03,0.08,0.98,
2.369,0.15,0.09,0.24,-0.03,0.09,0.97,
2.369,0.15,0.15,0.04,-0.03,0.09,0.97,
