
time,ax,ay,az,gFx,gFy,gFz,
0.002,0.03,0.01,-0.21,-0.02,0.09,0.96,
0.002,0.03,0.01,-0.21,-0.02,0.09,0.96,
0.002,0.03,-0.01,-0.25,-0.02,0.09,0.96,
0.002,0.03,-0.01,-0.25,-0.02,0.09,0.96,
0.004,0.03,-0.01,-0.25,-0.02,0.09,0.96,
0.004,0.01,-0.03,-0.23,-0.02,0.09,0.96,
0.006,0.01,-0.03,-0.23,-0.02,0.10,0.97,
0.009,0.02,-0.02,-0.18,-0.02,0.10,0.97,
0.009,0.02,-0.02,-0.18,-0.02,0.10,0.97,
0.011,0.02,-0.02,-0.18,-0.02,0.10,0.97,
0.013,0.02,-0.02,-0.18,-0.02,0.10,0.98,
0.014,0.01,0.00,-0.12,-0.02,0.10,0.98,
0.016,0.01,0.00,-0.12,-0.02,0.10,0.98,
0.018,0.01,0.00,-0.12,-0.02,0.10,0.98,
0.019,-0.00,0.01,-0.05,-0.02,0.10,0.98,
0.021,-0.00,0.01,-0.05,-0.02,0.10,0.99,
0.023,-0.00,0.01,-0.05,-0.02,0.10,0.99,
0.023,0.02,0.04,0.02,-0.02,0.10,0.99,
0.026,0.02,0.04,0.02,-0.02,0.10,1.00,
0.029,0.02,0.04,0.02,-0.02,0.10,1.00,
0.029,0.01,0.05,0.11,-0.02,0.10,1.00,
0.031,0.01,0.05,0.11,-0.02,0.10,1.00,
0.034,-0.00,0.06,0.18,-0.02,0.10,1.00,
0.034,-0.00,0.06,0.18,-0.02,0.10,1.00,
0.035,-0.00,0.06,0.18,-0.02,0.10,1.00,
0.038,-0.00,0.06,0.18,-0.02,0.10,1.00,
0.038,0.01,0.05,0.21,-0.02,0.10,1.00,
0.04,0.01,0.05,0.21,-0.02,0.10,1.00,
0.043,0.01,0.05,0.21,-0.02,0.10,1.00,
0.044,-0.00,0.06,0.20,-0.02,0.10,1.00,
0.046,-0.00,0.06,0.20,-0.02,0.10,1.00,
0.048,-0.00,0.06,0.20,-0.02,0.10,1.00,
0.048,0.00,0.05,0.21,-0.02,0.10,1.00,
0.05,0.00,0.05,0.21,-0.02,0.10,0.99,
0.053,0.00,0.05,0.21,-0.02,0.10,0.99,
0.053,0.00,0.05,0.16,-0.02,0.10,0.99,
0.055,0.00,0.05,0.16,-0.02,0.10,0.99,
0.058,0.00,0.05,0.16,-0.01,0.10,0.99,
0.058,0.02,0.03,0.11,-0.01,0.10,0.99,
0.067,0.02,0.03,0.11,-0.01,0.10,0.98,
0.067,0.02,0.03,0.11,-0.01,0.10,0.98,
0.068,0.05,0.02,0.06,-0.01,0.10,0.98,
0.068,0.05,0.02,0.06,-0.02,0.10,0.97,
0.068,0.05,0.02,0.06,-0.01,0.10,0.97,
0.068,0.06,0.02,-0.01,-0.01,0.10,0.97,
0.07,0.06,0.02,-0.01,-0.01,0.10,0.97,
0.072,0.06,0.02,-0.01,-0.02,0.10,0.97,
0.072,0.04,0.01,-0.07,-0.02,0.10,0.97,
0.075,0.04,0.01,-0.07,-0.02,0.10,0.97,
0.077,0.04,0.01,-0.07,-0.02,0.10,0.97,
0.078,0.04,-0.01,-0.10,-0.02,0.10,0.97,
0.08,0.04,-0.01,-0.10,-0.02,0.10,0.97,
0.082,0.04,-0.01,-0.10,-0.02,0.10,0.97,
0.082,0.02,-0.02,-0.12,-0.02,0.10,0.97,
0.085,0.02,-0.02,-0.12,-0.02,0.09,0.96,
0.087,0.02,-0.02,-0.12,-0.02,0.10,0.96,
0.087,0.00,-0.02,-0.13,-0.02,0.10,0.96,
0.089,0.00,-0.02,-0.13,-0.02,0.10,0.97,
0.092,0.00,-0.02,-0.13,-0.02,0.10,0.96,
0.092,0.01,-0.04,-0.15,-0.02,0.10,0.96,
0.094,0.01,-0.04,-0.15,-0.02,0.10,0.96,
0.097,0.01,-0.04,-0.15,-0.02,0.10,0.97,
0.097,0.00,-0.01,-0.14,-0.02,0.10,0.97,
0.099,0.00,-0.01,-0.14,-0.02,0.10,0.96,
0.102,0.00,-0.01,-0.14,-0.02,0.10,0.97,
0.102,-0.00,-0.01,-0.14,-0.02,0.10,0.97,
0.104,-0.00,-0.01,-0.14,-0.02,0.10,0.96,
0.106,-0.00,-0.01,-0.14,-0.02,0.10,0.96,
0.107,-0.01,-0.01,-0.14,-0.02,0.10,0.96,
0.109,-0.01,-0.01,-0.14,-0.02,0.10,0.96,
0.111,-0.01,-0.01,-0.14,-0.02,0.10,0.96,
0.112,-0.03,-0.01,-0.15,-0.02,0.10,0.96,
0.114,-0.03,-0.01,-0.15,-0.02,0.10,0.96,
0.116,-0.03,-0.01,-0.15,-0.02,0.10,0.96,
0.116,-0.02,-0.02,-0.16,-0.02,0.10,0.96,
0.119,-0.02,-0.02,-0.16,-0.02,0.10,0.97,
0.121,-0.02,-0.02,-0.16,-0.02,0.10,0.97,
0.121,-0.04,-0.02,-0.15,-0.02,0.10,0.97,
0.124,-0.04,-0.02,-0.15,-0.02,0.10,0.97,
0.128,-0.04,-0.02,-0.15,-0.02,0.10,0.97,
0.129,-0.03,-0.02,-0.12,-0.02,0.10,0.97,
0.129,-0.03,-0.02,-0.12,-0.02,0.10,0.97,
0.131,-0.03,-0.02,-0.12,-0.02,0.10,0.97,
0.131,-0.04,-0.02,-0.11,-0.02,0.10,0.97,
0.133,-0.04,-0.02,-0.11,-0.02,0.10,0.97,
0.136,-0.04,-0.02,-0.11,-0.02,0.10,0.97,
0.136,-0.01,-0.02,-0.09,-0.02,0.10,0.97,
0.138,-0.01,-0.02,-0.09,-0.02,0.10,0.98,
0.141,-0.01,-0.02,-0.09,-0.02,0.10,0.98,
0.141,0.01,-0.03,-0.06,-0.02,0.10,0.98,
0.143,0.01,-0.03,-0.06,-0.02,0.10,0.97,
0.146,0.01,-0.03,-0.06,-0.02,0.09,0.98,
0.146,0.00,-0.05,-0.03,-0.02,0.09,0.98,
0.148,0.00,-0.05,-0.03,-0.02,0.09,0.97,
0.151,0.00,-0.05,-0.03,-0.02,0.09,0.97,
0.151,0.00,-0.07,-0.03,-0.02,0.09,0.97,
0.153,0.00,-0.07,-0.03,-0.02,0.09,0.97,
0.155,0.00,-0.07,-0.03,-0.02,0.09,0.97,
0.156,0.02,-0.11,-0.05,-0.02,0.09,0.97,
0.158,0.02,-0.11,-0.05,-0.01,0.09,0.97,
0.163,0.02,-0.11,-0.05,-0.02,0.09,0.97,
0.163,0.04,-0.13,-0.08,-0.02,0.09,0.97,
0.163,0.04,-0.13,-0.08,-0.01,0.09,0.97,
0.165,0.04,-0.13,-0.08,-0.02,0.09,0.96,
0.165,0.04,-0.15,-0.10,-0.02,0.09,0.96,
0.167,0.04,-0.15,-0.10,-0.01,0.08,0.96,
0.17,0.04,-0.15,-0.10,-0.01,0.08,0.96,
0.17,0.04,-0.17,-0.12,-0.01,0.08,0.96,
0.172,0.04,-0.17,-0.12,-0.01,0.08,0.96,
0.175,0.04,-0.17,-0.12,-0.01,0.08,0.96,
0.175,0.06,-0.19,-0.14,-0.01,0.08,0.96,
0.177,0.06,-0.19,-0.14,-0.01,0.08,0.96,
0.18,0.06,-0.19,-0.14,-0.01,0.08,0.96,
0.18,0.07,-0.22,-0.17,-0.01,0.08,0.96,
0.182,0.07,-0.22,-0.17,-0.01,0.08,0.96,
0.185,0.07,-0.22,-0.17,-0.01,0.08,0.96,
0.185,0.09,-0.25,-0.20,-0.01,0.08,0.96,
0.187,0.09,-0.25,-0.20,-0.01,0.08,0.96,
0.19,0.09,-0.25,-0.20,-0.01,0.08,0.96,
0.19,0.10,-0.25,-0.19,-0.01,0.08,0.96,
0.192,0.10,-0.25,-0.19,-0.00,0.07,0.96,
0.195,0.10,-0.25,-0.19,-0.00,0.07,0.96,
0.195,0.12,-0.26,-0.18,-0.00,0.07,0.96,
0.197,0.12,-0.26,-0.18,-0.00,0.07,0.97,
0.199,0.12,-0.26,-0.18,-0.00,0.07,0.97,
0.2,0.14,-0.31,-0.15,-0.00,0.07,0.97,
0.202,0.14,-0.31,-0.15,0.00,0.07,0.97,
0.205,0.14,-0.31,-0.15,0.00,0.07,0.97,
0.205,0.15,-0.34,-0.10,0.00,0.07,0.97,
0.207,0.15,-0.34,-0.10,0.00,0.07,0.97,
0.21,0.15,-0.34,-0.10,0.00,0.06,0.97,
0.21,0.18,-0.34,-0.08,0.00,0.06,0.97,
0.212,0.18,-0.34,-0.08,0.00,0.06,0.98,
0.214,0.18,-0.34,-0.08,0.00,0.06,0.98,
0.214,0.21,-0.36,-0.03,0.00,0.06,0.98,
0.216,0.21,-0.36,-0.03,0.01,0.06,0.98,
0.219,0.21,-0.36,-0.03,0.01,0.06,0.98,
0.219,0.22,-0.40,-0.00,0.01,0.06,0.98,
0.222,0.22,-0.40,-0.00,0.01,0.05,0.98,
0.224,0.22,-0.40,-0.00,0.01,0.05,0.98,
0.224,0.23,-0.44,0.01,0.01,0.05,0.98,
0.226,0.23,-0.44,0.01,0.01,0.05,0.98,
0.229,0.23,-0.44,0.01,0.01,0.05,0.98,
0.229,0.27,-0.47,0.01,0.01,0.05,0.98,
0.231,0.27,-0.47,0.01,0.01,0.05,0.98,
0.234,0.27,-0.47,0.01,0.01,0.05,0.98,
0.234,0.27,-0.50,0.03,0.01,0.05,0.98,
0.236,0.27,-0.50,0.03,0.02,0.04,0.98,
0.239,0.27,-0.50,0.03,0.02,0.05,0.99,
0.239,0.30,-0.51,0.04,0.02,0.05,0.99,
0.241,0.30,-0.51,0.04,0.02,0.05,0.99,
0.25,0.30,-0.51,0.04,0.02,0.05,0.99,
0.25,0.33,-0.53,0.08,0.02,0.05,0.99,
0.251,0.33,-0.53,0.08,0.02,0.04,0.99,
0.251,0.33,-0.53,0.08,0.02,0.04,0.99,
0.251,0.34,-0.51,0.11,0.02,0.04,0.99,
0.251,0.34,-0.51,0.11,0.02,0.04,0.99,
0.253,0.34,-0.51,0.11,0.02,0.04,0.99,
0.253,0.32,-0.54,0.11,0.02,0.04,0.99,
0.256,0.32,-0.54,0.11,0.02,0.04,0.99,
0.258,0.32,-0.54,0.11,0.02,0.04,0.99,
0.258,0.32,-0.54,0.13,0.02,0.04,0.99,
0.261,0.32,-0.54,0.13,0.01,0.04,0.99,
0.263,0.32,-0.54,0.13,0.01,0.04,0.99,
0.263,0.32,-0.54,0.14,0.01,0.04,0.99,
0.265,0.32,-0.54,0.14,0.01,0.04,0.99,
0.268,0.32,-0.54,0.14,0.01,0.04,0.99,
0.268,0.28,-0.55,0.15,0.01,0.04,0.99,
0.27,0.28,-0.55,0.15,0.01,0.04,0.99,
0.273,0.28,-0.55,0.15,0.00,0.04,1.00,
0.273,0.25,-0.54,0.16,0.00,0.04,1.00,
0.276,0.25,-0.54,0.16,0.00,0.04,1.00,
0.278,0.25,-0.54,0.16,0.00,0.04,1.00,
0.278,0.21,-0.53,0.17,0.00,0.04,1.00,
0.28,0.21,-0.53,0.17,-0.00,0.04,1.00,
0.283,0.21,-0.53,0.17,-0.00,0.04,1.00,
0.283,0.18,-0.53,0.20,-0.00,0.04,1.00,
0.285,0.18,-0.53,0.20,-0.00,0.04,1.00,
0.287,0.18,-0.53,0.20,-0.01,0.04,1.00,
0.288,0.16,-0.52,0.21,-0.01,0.04,1.00,
0.29,0.16,-0.52,0.21,-0.01,0.04,1.00,
0.293,0.16,-0.52,0.21,-0.01,0.04,1.00,
0.294,0.11,-0.53,0.21,-0.01,0.04,1.00,
0.295,0.11,-0.53,0.21,-0.01,0.04,1.00,
0.298,0.11,-0.53,0.21,-0.02,0.04,1.00,
0.298,0.06,-0.55,0.22,-0.02,0.04,1.00,
0.3,0.06,-0.55,0.22,-0.01,0.04,1.00,
0.302,0.06,-0.55,0.22,-0.01,0.04,1.00,
0.302,0.03,-0.54,0.22,-0.01,0.04,1.00,
0.304,0.03,-0.54,0.22,-0.01,0.04,1.00,
0.307,0.03,-0.54,0.22,-0.02,0.04,1.00,
0.308,0.05,-0.55,0.21,-0.02,0.04,1.00,
0.309,0.05,-0.55,0.21,-0.01,0.04,1.00,
0.312,0.05,-0.55,0.21,-0.02,0.04,1.00,
0.312,0.05,-0.56,0.20,-0.02,0.04,1.00,
0.314,0.05,-0.56,0.20,-0.02,0.04,1.00,
0.317,0.05,-0.56,0.20,-0.01,0.04,1.00,
0.317,0.05,-0.57,0.18,-0.01,0.04,1.00,
0.319,0.05,-0.57,0.18,-0.01,0.04,1.00,
0.322,0.05,-0.57,0.18,-0.01,0.04,1.00,
0.322,0.05,-0.55,0.18,-0.01,0.04,1.00,
0.324,0.05,-0.55,0.18,-0.01,0.04,1.00,
0.327,0.05,-0.55,0.18,-0.01,0.04,1.00,
0.327,0.08,-0.55,0.18,-0.01,0.04,1.00,
0.329,0.08,-0.55,0.18,-0.01,0.04,1.01,
0.332,0.08,-0.55,0.18,-0.01,0.04,1.01,
0.332,0.09,-0.53,0.22,-0.01,0.04,1.01,
0.334,0.09,-0.53,0.22,-0.01,0.04,1.01,
0.336,0.09,-0.53,0.22,-0.01,0.04,1.01,
0.337,0.10,-0.53,0.26,-0.01,0.04,1.01,
0.339,0.10,-0.53,0.26,-0.01,0.04,1.01,
0.345,0.10,-0.53,0.26,-0.01,0.04,1.01,
0.346,0.13,-0.53,0.26,-0.01,0.04,1.01,
0.346,0.13,-0.53,0.26,-0.01,0.04,1.01,
0.346,0.13,-0.53,0.26,-0.00,0.04,1.02,
0.346,0.16,-0.53,0.30,-0.00,0.04,1.02,
0.349,0.16,-0.53,0.30,-0.00,0.03,1.02,
0.351,0.16,-0.53,0.30,-0.00,0.03,1.02,
0.351,0.18,-0.55,0.35,-0.00,0.03,1.02,
0.353,0.18,-0.55,0.35,-0.00,0.03,1.02,
0.356,0.18,-0.55,0.35,-0.00,0.03,1.02,
0.356,0.20,-0.58,0.36,-0.00,0.03,1.02,
0.359,0.20,-0.58,0.36,-0.00,0.03,1.02,
0.361,0.20,-0.58,0.36,-0.00,0.03,1.02,
0.361,0.19,-0.59,0.39,-0.00,0.03,1.02,
0.363,0.19,-0.59,0.39,-0.00,0.03,1.02,
0.366,0.19,-0.59,0.39,-0.00,0.03,1.02,
0.366,0.19,-0.60,0.40,-0.00,0.03,1.02,
0.368,0.19,-0.60,0.40,-0.00,0.03,1.02,
0.371,0.19,-0.60,0.40,-0.00,0.03,1.02,
0.371,0.18,-0.61,0.39,-0.00,0.03,1.02,
0.373,0.18,-0.61,0.39,-0.00,0.03,1.02,
0.376,0.18,-0.61,0.39,-0.01,0.03,1.02,
0.376,0.19,-0.60,0.38,-0.01,0.03,1.02,
0.378,0.19,-0.60,0.38,-0.01,0.03,1.01,
0.381,0.19,-0.60,0.38,-0.01,0.03,1.01,
0.381,0.16,-0.61,0.34,-0.01,0.03,1.01,
0.384,0.16,-0.61,0.34,-0.01,0.03,1.01,
0.385,0.16,-0.61,0.34,-0.01,0.03,1.01,
0.386,0.13,-0.58,0.31,-0.01,0.03,1.01,
0.388,0.13,-0.58,0.31,-0.01,0.03,1.00,
0.39,0.13,-0.58,0.31,-0.02,0.03,1.00,
0.39,0.11,-0.57,0.24,-0.02,0.03,1.00,
0.393,0.11,-0.57,0.24,-0.02,0.03,1.00,
0.395,0.11,-0.57,0.24,-0.02,0.04,1.00,
0.395,0.05,-0.55,0.20,-0.02,0.04,1.00,
0.398,0.05,-0.55,0.20,-0.02,0.04,1.00,
0.4,0.05,-0.55,0.20,-0.02,0.04,0.99,
0.4,0.02,-0.54,0.16,-0.02,0.04,0.99,
0.402,0.02,-0.54,0.16,-0.02,0.05,0.99,
0.405,0.02,-0.54,0.16,-0.02,0.05,0.99,
0.405,-0.01,-0.49,0.10,-0.02,0.05,0.99,
0.407,-0.01,-0.49,0.10,-0.02,0.05,0.98,
0.41,-0.01,-0.49,0.10,-0.02,0.05,0.98,
0.41,-0.05,-0.42,0.05,-0.02,0.05,0.98,
0.412,-0.05,-0.42,0.05,-0.02,0.06,0.98,
0.415,-0.05,-0.42,0.05,-0.02,0.06,0.97,
0.415,-0.07,-0.38,-0.01,-0.02,0.06,0.97,
0.417,-0.07,-0.38,-0.01,-0.02,0.06,0.97,
0.42,-0.07,-0.38,-0.01,-0.02,0.06,0.97,
0.42,-0.05,-0.33,-0.07,-0.02,0.06,0.97,
0.422,-0.05,-0.33,-0.07,-0.02,0.07,0.97,
0.425,-0.05,-0.33,-0.07,-0.01,0.07,0.97,
0.425,-0.04,-0.28,-0.09,-0.01,0.07,0.97,
0.427,-0.04,-0.28,-0.09,-0.01,0.07,0.97,
0.43,-0.04,-0.28,-0.09,-0.01,0.07,0.97,
0.43,-0.00,-0.23,-0.10,-0.01,0.07,0.97,
0.432,-0.00,-0.23,-0.10,-0.01,0.07,0.97,
0.434,-0.00,-0.23,-0.10,-0.01,0.07,0.97,
0.435,0.05,-0.21,-0.10,-0.01,0.07,0.97,
0.437,0.05,-0.21,-0.10,-0.00,0.07,0.97,
0.439,0.05,-0.21,-0.10,-0.00,0.07,0.97,
0.439,0.07,-0.21,-0.10,-0.00,0.07,0.97,
0.442,0.07,-0.21,-0.10,0.00,0.07,0.98,
0.444,0.07,-0.21,-0.10,0.00,0.06,0.98,
0.445,0.11,-0.21,-0.09,0.00,0.06,0.98,
0.446,0.11,-0.21,-0.09,0.00,0.06,0.98,
0.449,0.11,-0.21,-0.09,0.00,0.06,0.98,
0.449,0.14,-0.23,-0.06,0.00,0.06,0.98,
0.451,0.14,-0.23,-0.06,0.01,0.06,0.98,
0.454,0.14,-0.23,-0.06,0.01,0.06,0.98,
0.454,0.16,-0.24,-0.02,0.01,0.06,0.98,
0.456,0.16,-0.24,-0.02,0.01,0.06,0.98,
0.461,0.16,-0.24,-0.02,0.01,0.06,0.98,
0.462,0.17,-0.26,-0.01,0.01,0.06,0.98,
0.462,0.17,-0.26,-0.01,0.01,0.06,0.98,
0.464,0.17,-0.26,-0.01,0.01,0.05,0.98,
0.464,0.18,-0.29,0.01,0.01,0.05,0.98,
0.466,0.18,-0.29,0.01,0.01,0.05,0.98,
0.469,0.18,-0.29,0.01,0.02,0.05,0.98,
0.469,0.19,-0.33,0.01,0.02,0.05,0.98,
0.471,0.19,-0.33,0.01,0.01,0.05,0.98,
0.474,0.19,-0.33,0.01,0.02,0.05,0.98,
0.474,0.22,-0.34,0.02,0.02,0.05,0.98,
0.476,0.22,-0.34,0.02,0.02,0.05,0.98,
0.479,0.22,-0.34,0.02,0.02,0.05,0.98,
0.479,0.21,-0.35,0.01,0.02,0.05,0.98,
0.481,0.21,-0.35,0.01,0.02,0.05,0.98,
0.483,0.21,-0.35,0.01,0.02,0.05,0.97,
0.483,0.24,-0.37,-0.03,0.02,0.05,0.97,
0.486,0.24,-0.37,-0.03,0.02,0.05,0.97,
0.488,0.24,-0.37,-0.03,0.03,0.05,0.97,
0.488,0.24,-0.36,-0.07,0.03,0.05,0.97,
0.491,0.24,-0.36,-0.07,0.03,0.05,0.97,
0.493,0.24,-0.36,-0.07,0.03,0.05,0.97,
0.493,0.26,-0.37,-0.10,0.03,0.05,0.97,
0.496,0.26,-0.37,-0.10,0.03,0.05,0.96,
0.498,0.26,-0.37,-0.10,0.03,0.05,0.96,
0.498,0.28,-0.35,-0.13,0.03,0.05,0.96,
0.5,0.28,-0.35,-0.13,0.03,0.05,0.96,
0.503,0.28,-0.35,-0.13,0.04,0.06,0.96,
0.503,0.29,-0.32,-0.20,0.04,0.06,0.96,
0.505,0.29,-0.32,-0.20,0.04,0.06,0.95,
0.508,0.29,-0.32,-0.20,0.04,0.06,0.95,
0.508,0.31,-0.28,-0.24,0.04,0.06,0.95,
0.51,0.31,-0.28,-0.24,0.04,0.06,0.95,
0.513,0.31,-0.28,-0.24,0.04,0.07,0.95,
0.513,0.30,-0.24,-0.27,0.04,0.07,0.95,
0.515,0.30,-0.24,-0.27,0.04,0.07,0.95,
0.518,0.30,-0.24,-0.27,0.04,0.07,0.95,
0.518,0.30,-0.17,-0.29,0.04,0.07,0.95,
0.52,0.30,-0.17,-0.29,0.04,0.07,0.95,
0.523,0.30,-0.17,-0.29,0.04,0.08,0.95,
0.523,0.30,-0.12,-0.29,0.04,0.08,0.95,
0.525,0.30,-0.12,-0.29,0.04,0.08,0.95,
0.528,0.30,-0.12,-0.29,0.04,0.08,0.96,
0.528,0.30,-0.07,-0.27,0.04,0.08,0.96,
0.53,0.30,-0.07,-0.27,0.04,0.08,0.96,
0.532,0.30,-0.07,-0.27,0.03,0.09,0.96,
0.533,0.27,-0.02,-0.25,0.03,0.09,0.96,
0.535,0.27,-0.02,-0.25,0.03,0.08,0.96,
0.537,0.27,-0.02,-0.25,0.03,0.09,0.96,
0.537,0.25,0.03,-0.23,0.03,0.09,0.96,
0.54,0.25,0.03,-0.23,0.03,0.09,0.95,
0.543,0.25,0.03,-0.23,0.03,0.09,0.96,
0.543,0.21,0.04,-0.23,0.03,0.09,0.96,
0.545,0.21,0.04,-0.23,0.02,0.09,0.96,
0.548,0.21,0.04,-0.23,0.02,0.09,0.95,
0.548,0.16,0.05,-0.24,0.02,0.09,0.95,
0.55,0.16,0.05,-0.24,0.02,0.09,0.95,
0.552,0.16,0.05,-0.24,0.02,0.09,0.95,
0.553,0.13,0.04,-0.26,0.02,0.09,0.95,
0.555,0.13,0.04,-0.26,0.02,0.09,0.95,
0.557,0.13,0.04,-0.26,0.02,0.09,0.95,
0.558,0.10,0.05,-0.28,0.02,0.09,0.95,
0.571,0.10,0.05,-0.28,0.02,0.09,0.95,
0.572,0.10,0.05,-0.28,0.02,0.08,0.95,
0.572,0.11,0.04,-0.29,0.02,0.08,0.95,
0.573,0.11,0.04,-0.29,0.02,0.09,0.95,
0.573,0.11,0.04,-0.29,0.02,0.09,0.95,
0.573,0.10,0.04,-0.31,0.02,0.09,0.95,
0.574,0.10,0.04,-0.31,0.02,0.09,0.94,
0.574,0.10,0.04,-0.31,0.02,0.09,0.95,
0.575,0.09,0.04,-0.32,0.02,0.09,0.95,
0.575,0.09,0.04,-0.32,0.01,0.08,0.94,
0.588,0.09,0.04,-0.32,0.02,0.09,0.95,
0.588,0.10,0.04,-0.33,0.02,0.09,0.95,
0.589,0.10,0.04,-0.33,0.02,0.08,0.95,
0.589,0.10,0.04,-0.33,0.02,0.08,0.95,
0.589,0.07,0.03,-0.32,0.02,0.08,0.95,
0.59,0.07,0.03,-0.32,0.02,0.08,0.95,
0.59,0.07,0.03,-0.32,0.02,0.08,0.95,
0.59,0.10,0.01,-0.29,0.02,0.08,0.95,
0.591,0.10,0.01,-0.29,0.03,0.08,0.96,
0.591,0.10,0.01,-0.29,0.03,0.08,0.96,
0.592,0.13,0.01,-0.24,0.03,0.08,0.96,
0.595,0.13,0.01,-0.24,0.02,0.08,0.96,
0.596,0.13,0.01,-0.24,0.03,0.08,0.96,
0.596,0.19,0.02,-0.20,0.03,0.08,0.96,
0.599,0.19,0.02,-0.20,0.03,0.09,0.97,
0.601,0.19,0.02,-0.20,0.03,0.08,0.97,
0.601,0.20,0.03,-0.16,0.03,0.08,0.97,
0.603,0.20,0.03,-0.16,0.03,0.08,0.97,
0.606,0.20,0.03,-0.16,0.03,0.08,0.97,
0.606,0.23,0.04,-0.10,0.03,0.08,0.97,
0.608,0.23,0.04,-0.10,0.02,0.09,0.98,
0.611,0.23,0.04,-0.10,0.02,0.09,0.98,
0.611,0.20,0.04,-0.06,0.02,0.09,0.98,
0.614,0.20,0.04,-0.06,0.02,0.09,0.98,
0.616,0.20,0.04,-0.06,0.02,0.08,0.98,
0.618,0.16,0.07,-0.02,0.02,0.08,0.98,
0.618,0.16,0.07,-0.02,0.01,0.08,0.98,
0.62,0.16,0.07,-0.02,0.01,0.08,0.98,
0.621,0.12,0.05,0.02,0.01,0.08,0.98,
0.623,0.12,0.05,0.02,0.01,0.09,0.98,
0.626,0.12,0.05,0.02,0.00,0.09,0.98,
0.626,0.05,0.05,0.05,0.00,0.09,0.98,
0.628,0.05,0.05,0.05,-0.00,0.09,0.98,
0.63,0.05,0.05,0.05,-0.00,0.09,0.98,
0.631,-0.03,0.08,0.04,-0.00,0.09,0.98,
0.633,-0.03,0.08,0.04,-0.01,0.09,0.98,
0.635,-0.03,0.08,0.04,-0.01,0.09,0.98,
0.635,-0.10,0.11,0.04,-0.01,0.09,0.98,
0.638,-0.10,0.11,0.04,-0.01,0.10,0.98,
0.64,-0.10,0.11,0.04,-0.01,0.10,0.98,
0.64,-0.17,0.14,0.04,-0.01,0.10,0.98,
0.646,-0.17,0.14,0.04,-0.01,0.11,0.98,
0.646,-0.17,0.14,0.04,-0.01,0.11,0.98,
0.647,-0.19,0.22,0.04,-0.01,0.11,0.98,
0.647,-0.19,0.22,0.04,-0.01,0.11,0.98,
0.65,-0.19,0.22,0.04,-0.01,0.12,0.98,
0.65,-0.22,0.30,0.03,-0.01,0.12,0.98,
0.652,-0.22,0.30,0.03,-0.01,0.12,0.98,
0.655,-0.22,0.30,0.03,-0.01,0.12,0.99,
0.655,-0.23,0.37,0.04,-0.01,0.12,0.99,
0.658,-0.23,0.37,0.04,-0.02,0.13,0.99,
0.66,-0.23,0.37,0.04,-0.02,0.13,0.99,
0.66,-0.22,0.43,0.07,-0.02,0.13,0.99,
0.662,-0.22,0.43,0.07,-0.02,0.13,0.98,
0.665,-0.22,0.43,0.07,-0.01,0.13,0.98,
0.665,-0.23,0.48,0.08,-0.01,0.13,0.98,
0.667,-0.23,0.48,0.08,-0.01,0.13,0.98,
0.67,-0.23,0.48,0.08,-0.01,0.13,0.98,
0.67,-0.22,0.51,0.06,-0.01,0.13,0.98,
0.672,-0.22,0.51,0.06,-0.01,0.14,0.98,
0.675,-0.22,0.51,0.06,-0.01,0.13,0.98,
0.675,-0.20,0.54,0.06,-0.01,0.13,0.98,
0.677,-0.20,0.54,0.06,-0.01,0.13,0.98,
0.68,-0.20,0.54,0.06,-0.00,0.14,0.98,
0.68,-0.16,0.56,0.05,-0.00,0.14,0.98,
0.683,-0.16,0.56,0.05,-0.00,0.13,0.98,
0.684,-0.16,0.56,0.05,-0.00,0.13,0.98,
0.685,-0.11,0.55,0.04,-0.00,0.13,0.98,
0.686,-0.11,0.55,0.04,0.00,0.13,0.98,
0.689,-0.11,0.55,0.04,0.00,0.13,0.98,
0.69,-0.08,0.53,0.02,0.00,0.13,0.98,
0.692,-0.08,0.53,0.02,0.01,0.13,0.98,
0.694,-0.08,0.53,0.02,0.01,0.13,0.97,
0.695,-0.02,0.51,0.00,0.01,0.13,0.97,
0.697,-0.02,0.51,0.00,0.02,0.13,0.97,
0.699,-0.02,0.51,0.00,0.02,0.12,0.97,
0.699,0.06,0.48,-0.03,0.02,0.12,0.97,
0.701,0.06,0.48,-0.03,0.02,0.12,0.97,
0.704,0.06,0.48,-0.03,0.02,0.12,0.97,
0.704,0.11,0.44,-0.05,0.02,0.12,0.97,
0.706,0.11,0.44,-0.05,0.02,0.12,0.97,
0.709,0.11,0.44,-0.05,0.02,0.12,0.97,
0.71,0.15,0.42,-0.06,0.02,0.12,0.97,
0.711,0.15,0.42,-0.06,0.03,0.12,0.97,
0.714,0.15,0.42,-0.06,0.03,0.12,0.97,
0.714,0.17,0.39,-0.08,0.03,0.12,0.97,
0.716,0.17,0.39,-0.08,0.03,0.12,0.97,
0.719,0.17,0.39,-0.08,0.03,0.12,0.98,
0.719,0.20,0.35,-0.06,0.03,0.12,0.98,
0.721,0.20,0.35,-0.06,0.02,0.11,0.98,
0.724,0.20,0.35,-0.06,0.02,0.11,0.98,
0.724,0.20,0.34,-0.03,0.02,0.11,0.98,
0.726,0.20,0.34,-0.03,0.02,0.11,0.98,
0.728,0.15,0.32,-0.02,0.02,0.11,0.98,
0.729,0.15,0.32,-0.02,0.01,0.11,0.98,
0.731,0.15,0.32,-0.02,0.01,0.11,0.98,
0.733,0.15,0.32,-0.02,0.01,0.12,0.98,
0.734,0.10,0.32,-0.02,0.01,0.12,0.98,
0.736,0.10,0.32,-0.02,0.01,0.12,0.98,
0.738,0.10,0.32,-0.02,0.01,0.12,0.98,
0.738,0.06,0.33,-0.01,0.01,0.12,0.98,
0.746,0.06,0.33,-0.01,0.00,0.12,0.98,
0.747,0.06,0.33,-0.01,-0.00,0.12,0.98,
0.747,0.01,0.34,-0.00,-0.00,0.12,0.98,
0.748,0.01,0.34,-0.00,-0.01,0.12,0.97,
0.748,0.01,0.34,-0.00,-0.01,0.12,0.97,
0.748,-0.06,0.37,-0.01,-0.01,0.12,0.97,
0.75,-0.06,0.37,-0.01,-0.01,0.13,0.97,
0.753,-0.06,0.37,-0.01,-0.02,0.13,0.97,
0.753,-0.13,0.40,-0.05,-0.02,0.13,0.97,
0.755,-0.13,0.40,-0.05,-0.02,0.13,0.97,
0.759,-0.13,0.40,-0.05,-0.02,0.13,0.97,
0.759,-0.21,0.44,-0.06,-0.02,0.13,0.97,
0.76,-0.21,0.44,-0.06,-0.02,0.13,0.97,
0.763,-0.21,0.44,-0.06,-0.03,0.13,0.97,
0.763,-0.26,0.46,-0.08,-0.03,0.13,0.97,
0.765,-0.26,0.46,-0.08,-0.03,0.13,0.97,
0.767,-0.26,0.46,-0.08,-0.03,0.14,0.97,
0.768,-0.29,0.47,-0.10,-0.03,0.14,0.97,
0.77,-0.29,0.47,-0.10,-0.03,0.13,0.97,
0.773,-0.29,0.47,-0.10,-0.03,0.13,0.97,
0.773,-0.33,0.52,-0.10,-0.03,0.13,0.97,
0.775,-0.33,0.52,-0.10,-0.03,0.14,0.97,
0.777,-0.33,0.52,-0.10,-0.03,0.13,0.97,
0.778,-0.33,0.50,-0.11,-0.03,0.13,0.97,
0.78,-0.33,0.50,-0.11,-0.03,0.13,0.97,
0.782,-0.33,0.50,-0.11,-0.03,0.13,0.97,
0.783,-0.33,0.50,-0.12,-0.03,0.13,0.97,
0.785,-0.33,0.50,-0.12,-0.03,0.13,0.97,
0.787,-0.33,0.50,-0.12,-0.03,0.13,0.96,
0.787,-0.30,0.48,-0.12,-0.03,0.13,0.96,
0.79,-0.30,0.48,-0.12,-0.02,0.13,0.97,
0.792,-0.30,0.48,-0.12,-0.02,0.12,0.97,
0.792,-0.28,0.44,-0.12,-0.02,0.12,0.97,
0.794,-0.28,0.44,-0.12,-0.02,0.12,0.97,
0.797,-0.28,0.44,-0.12,-0.02,0.12,0.97,
0.797,-0.23,0.40,-0.11,-0.02,0.12,0.97,
0.799,-0.23,0.40,-0.11,-0.02,0.11,0.97,
0.802,-0.23,0.40,-0.11,-0.02,0.11,0.97,
0.802,-0.22,0.35,-0.11,-0.02,0.11,0.97,
0.804,-0.22,0.35,-0.11,-0.01,0.11,0.97,
0.808,-0.22,0.35,-0.11,-0.01,0.11,0.97,
0.809,-0.19,0.29,-0.09,-0.01,0.11,0.97,
0.809,-0.19,0.29,-0.09,-0.00,0.11,0.97,
0.812,-0.19,0.29,-0.09,0.00,0.11,0.97,
0.812,-0.11,0.25,-0.08,0.00,0.11,0.97,
0.814,-0.11,0.25,-0.08,0.00,0.11,0.97,
0.817,-0.11,0.25,-0.08,0.01,0.11,0.97,
0.817,-0.01,0.24,-0.06,0.01,0.11,0.97,
0.819,-0.01,0.24,-0.06,0.01,0.11,0.97,
0.822,-0.01,0.24,-0.06,0.01,0.10,0.97,
0.822,0.06,0.23,-0.03,0.01,0.10,0.97,
0.825,0.06,0.23,-0.03,0.01,0.10,0.97,
0.826,0.06,0.23,-0.03,0.01,0.10,0.97,
0.827,0.10,0.22,-0.03,0.01,0.10,0.97,
0.829,0.10,0.22,-0.03,0.02,0.10,0.97,
0.831,0.10,0.22,-0.03,0.02,0.10,0.97,
0.831,0.13,0.19,-0.06,0.02,0.10,0.97,
0.834,0.13,0.19,-0.06,0.02,0.10,0.97,
0.836,0.13,0.19,-0.06,0.01,0.10,0.97,
0.836,0.14,0.19,-0.08,0.01,0.10,0.97,
0.839,0.14,0.19,-0.08,0.01,0.10,0.96,
0.841,0.14,0.19,-0.08,0.01,0.10,0.96,
0.842,0.12,0.19,-0.11,0.01,0.10,0.96,
0.843,0.12,0.19,-0.11,0.00,0.10,0.96,
0.846,0.12,0.19,-0.11,0.00,0.11,0.96,
0.846,0.06,0.19,-0.14,0.00,0.11,0.96,
0.848,0.06,0.19,-0.14,-0.00,0.11,0.96,
0.851,0.06,0.19,-0.14,-0.01,0.11,0.95,
0.851,0.01,0.23,-0.19,-0.01,0.11,0.95,
0.853,0.01,0.23,-0.19,-0.01,0.11,0.95,
0.856,0.01,0.23,-0.19,-0.02,0.11,0.95,
0.856,-0.07,0.26,-0.21,-0.02,0.11,0.95,
0.864,-0.07,0.26,-0.21,-0.03,0.12,0.95,
0.864,-0.07,0.26,-0.21,-0.03,0.12,0.95,
0.865,-0.16,0.30,-0.24,-0.03,0.12,0.95,
0.865,-0.16,0.30,-0.24,-0.04,0.12,0.95,
0.866,-0.16,0.30,-0.24,-0.04,0.13,0.95,
0.866,-0.27,0.37,-0.24,-0.04,0.13,0.95,
0.868,-0.27,0.37,-0.24,-0.04,0.13,0.96,
0.87,-0.27,0.37,-0.24,-0.05,0.13,0.96,
0.871,-0.36,0.42,-0.24,-0.05,0.13,0.96,
0.873,-0.36,0.42,-0.24,-0.06,0.14,0.96,
0.875,-0.36,0.42,-0.24,-0.06,0.14,0.96,
0.876,-0.44,0.48,-0.20,-0.06,0.14,0.96,
0.878,-0.44,0.48,-0.20,-0.06,0.14,0.96,
0.88,-0.44,0.48,-0.20,-0.07,0.14,0.96,
0.88,-0.53,0.53,-0.17,-0.07,0.14,0.96,
0.882,-0.53,0.53,-0.17,-0.07,0.15,0.96,
0.885,-0.53,0.53,-0.17,-0.08,0.15,0.96,
0.885,-0.59,0.58,-0.16,-0.08,0.15,0.96,
0.887,-0.59,0.58,-0.16,-0.08,0.15,0.97,
0.891,-0.59,0.58,-0.16,-0.08,0.15,0.97,
0.891,-0.64,0.61,-0.14,-0.08,0.15,0.97,
0.892,-0.64,0.61,-0.14,-0.08,0.16,0.97,
0.895,-0.64,0.61,-0.14,-0.08,0.16,0.97,
0.895,-0.67,0.66,-0.10,-0.08,0.16,0.97,
0.897,-0.67,0.66,-0.10,-0.07,0.16,0.97,
0.9,-0.67,0.66,-0.10,-0.07,0.16,0.97,
0.9,-0.66,0.69,-0.09,-0.07,0.16,0.97,
0.902,-0.66,0.69,-0.09,-0.08,0.16,0.97,
0.904,-0.66,0.69,-0.09,-0.08,0.16,0.97,
0.905,-0.61,0.72,-0.09,-0.08,0.16,0.97,
0.907,-0.61,0.72,-0.09,-0.07,0.16,0.97,
0.91,-0.61,0.72,-0.09,-0.07,0.16,0.97,
0.91,-0.61,0.74,-0.07,-0.07,0.16,0.97,
0.912,-0.61,0.74,-0.07,-0.07,0.16,0.97,
0.914,-0.61,0.74,-0.07,-0.07,0.16,0.97,
0.915,-0.58,0.75,-0.08,-0.07,0.16,0.97,
0.917,-0.58,0.75,-0.08,-0.08,0.16,0.97,
0.919,-0.58,0.75,-0.08,-0.07,0.16,0.97,
0.919,-0.57,0.74,-0.06,-0.07,0.16,0.97,
0.922,-0.57,0.74,-0.06,-0.08,0.16,0.97,
0.925,-0.57,0.74,-0.06,-0.08,0.16,0.97,
0.925,-0.57,0.71,-0.08,-0.08,0.16,0.97,
0.927,-0.57,0.71,-0.08,-0.08,0.16,0.97,
0.929,-0.57,0.71,-0.08,-0.08,0.15,0.97,
0.929,-0.57,0.69,-0.08,-0.08,0.15,0.97,
0.931,-0.57,0.69,-0.08,-0.08,0.15,0.97,
0.934,-0.57,0.69,-0.08,-0.07,0.15,0.97,
0.934,-0.56,0.66,-0.08,-0.07,0.15,0.97,
0.936,-0.56,0.66,-0.08,-0.07,0.16,0.97,
0.939,-0.56,0.66,-0.08,-0.07,0.16,0.97,
0.939,-0.53,0.65,-0.09,-0.07,0.16,0.97,
0.945,-0.53,0.65,-0.09,-0.07,0.16,0.96,
0.947,-0.53,0.65,-0.09,-0.07,0.16,0.96,
0.948,-0.49,0.67,-0.10,-0.07,0.16,0.96,
0.948,-0.49,0.67,-0.10,-0.07,0.16,0.97,
0.949,-0.49,0.67,-0.10,-0.07,0.16,0.97,
0.949,-0.45,0.70,-0.10,-0.07,0.16,0.97,
0.951,-0.45,0.70,-0.10,-0.07,0.16,0.97,
0.953,-0.45,0.70,-0.10,-0.07,0.16,0.97,
0.954,-0.47,0.72,-0.09,-0.07,0.16,0.97,
0.956,-0.47,0.72,-0.09,-0.07,0.17,0.97,
0.959,-0.47,0.72,-0.09,-0.08,0.17,0.97,
0.96,-0.48,0.72,-0.08,-0.08,0.17,0.97,
0.961,-0.48,0.72,-0.08,-0.08,0.17,0.97,
0.963,-0.48,0.72,-0.08,-0.09,0.17,0.97,
0.963,-0.49,0.75,-0.08,-0.09,0.17,0.97,
0.966,-0.49,0.75,-0.08,-0.09,0.17,0.97,
0.968,-0.49,0.75,-0.08,-0.09,0.18,0.98,
0.968,-0.55,0.78,-0.04,-0.09,0.18,0.98,
0.97,-0.55,0.78,-0.04,-0.09,0.18,0.98,
0.973,-0.55,0.78,-0.04,-0.09,0.18,0.98,
0.973,-0.59,0.84,-0.01,-0.09,0.18,0.98,
0.976,-0.59,0.84,-0.01,-0.09,0.19,0.98,
0.978,-0.59,0.84,-0.01,-0.09,0.19,0.98,
0.978,-0.61,0.89,0.01,-0.09,0.19,0.98,
0.98,-0.61,0.89,0.01,-0.09,0.19,0.98,
0.983,-0.61,0.89,0.01,-0.09,0.20,0.98,
0.983,-0.61,0.96,0.05,-0.09,0.20,0.98,
0.985,-0.61,0.96,0.05,-0.09,0.20,0.98,
0.988,-0.61,0.96,0.05,-0.09,0.20,0.99,
0.988,-0.58,1.04,0.09,-0.09,0.20,0.99,
0.99,-0.58,1.04,0.09,-0.09,0.21,0.99,
0.993,-0.58,1.04,0.09,-0.09,0.21,0.99,
0.993,-0.58,1.10,0.09,-0.09,0.21,0.99,
0.995,-0.58,1.10,0.09,-0.09,0.21,0.99,
0.997,-0.58,1.10,0.09,-0.09,0.21,0.99,
0.998,-0.57,1.16,0.13,-0.09,0.21,0.99,
1.0,-0.57,1.16,0.13,-0.09,0.22,0.99,
1.002,-0.57,1.16,0.13,-0.09,0.22,0.99,
1.003,-0.53,1.20,0.15,-0.09,0.22,0.99,
1.005,-0.53,1.20,0.15,-0.09,0.22,0.99,
1.007,-0.53,1.20,0.15,-0.09,0.22,0.99,
1.008,-0.52,1.22,0.14,-0.09,0.22,0.99,
1.01,-0.52,1.22,0.14,-0.09,0.22,0.99,
1.012,-0.52,1.22,0.14,-0.09,0.22,0.99,
1.013,-0.50,1.24,0.15,-0.09,0.22,0.99,
1.015,-0.50,1.24,0.15,-0.09,0.22,0.99,
1.017,-0.50,1.24,0.15,-0.09,0.22,0.99,
1.018,-0.48,1.26,0.15,-0.09,0.22,0.99,
1.019,-0.48,1.26,0.15,-0.08,0.22,0.99,
1.024,-0.48,1.26,0.15,-0.08,0.22,0.99,
1.024,-0.47,1.25,0.15,-0.08,0.22,0.99,
1.025,-0.47,1.25,0.15,-0.08,0.22,0.99,
1.027,-0.47,1.25,0.15,-0.08,0.22,0.99,
1.028,-0.46,1.23,0.13,-0.08,0.22,0.99,
1.03,-0.46,1.23,0.13,-0.08,0.22,0.99,
1.032,-0.46,1.23,0.13,-0.08,0.22,0.98,
1.032,-0.44,1.22,0.11,-0.08,0.22,0.98,
1.034,-0.44,1.22,0.11,-0.08,0.21,0.98,
1.037,-0.44,1.22,0.11,-0.07,0.21,0.98,
1.037,-0.41,1.18,0.08,-0.07,0.21,0.98,
1.041,-0.41,1.18,0.08,-0.07,0.21,0.98,
1.042,-0.41,1.18,0.08,-0.07,0.21,0.98,
1.042,-0.36,1.15,0.06,-0.07,0.21,0.98,
1.045,-0.36,1.15,0.06,-0.07,0.21,0.98,
1.047,-0.36,1.15,0.06,-0.07,0.21,0.98,
1.047,-0.32,1.13,0.06,-0.07,0.21,0.98,
1.049,-0.32,1.13,0.06,-0.06,0.21,0.99,
1.051,-0.32,1.13,0.06,-0.06,0.21,0.99,
1.052,-0.26,1.11,0.05,-0.06,0.21,0.99,
1.054,-0.26,1.11,0.05,-0.05,0.21,0.99,
1.063,-0.26,1.11,0.05,-0.05,0.21,0.99,
1.063,-0.19,1.11,0.09,-0.05,0.21,0.99,
1.064,-0.19,1.11,0.09,-0.05,0.21,1.00,
1.064,-0.19,1.11,0.09,-0.05,0.21,1.00,
1.064,-0.12,1.09,0.14,-0.05,0.21,1.00,
1.064,-0.12,1.09,0.14,-0.05,0.20,1.00,
1.066,-0.12,1.09,0.14,-0.05,0.20,1.01,
1.067,-0.06,1.07,0.20,-0.05,0.20,1.01,
1.068,-0.06,1.07,0.20,-0.05,0.21,1.01,
1.071,-0.06,1.07,0.20,-0.05,0.20,1.01,
1.071,-0.03,1.04,0.27,-0.05,0.20,1.01,
1.073,-0.03,1.04,0.27,-0.05,0.20,1.02,
1.076,-0.03,1.04,0.27,-0.04,0.20,1.02,
1.076,-0.03,1.03,0.34,-0.04,0.20,1.02,
1.078,-0.03,1.03,0.34,-0.04,0.20,1.02,
1.081,-0.03,1.03,0.34,-0.04,0.20,1.03,
1.081,-0.01,0.97,0.40,-0.04,0.20,1.03,
1.083,-0.01,0.97,0.40,-0.04,0.19,1.03,
1.086,0.01,0.94,0.47,-0.04,0.19,1.03,
1.086,0.01,0.94,0.47,-0.04,0.19,1.03,
1.088,0.01,0.94,0.47,-0.04,0.19,1.04,
1.091,0.01,0.94,0.47,-0.04,0.19,1.04,
1.092,0.00,0.91,0.53,-0.04,0.19,1.04,
1.093,0.00,0.91,0.53,-0.04,0.19,1.04,
1.096,0.00,0.91,0.53,-0.05,0.19,1.04,
1.096,0.03,0.87,0.56,-0.05,0.19,1.04,
1.098,0.03,0.87,0.56,-0.04,0.19,1.04,
1.1,0.03,0.87,0.56,-0.04,0.18,1.04,
1.101,0.02,0.84,0.61,-0.04,0.18,1.04,
1.103,0.02,0.84,0.61,-0.04,0.18,1.05,
1.107,0.02,0.84,0.61,-0.04,0.18,1.05,
1.109,0.04,0.81,0.62,-0.04,0.18,1.05,
1.109,0.04,0.81,0.62,-0.04,0.18,1.05,
1.11,0.04,0.81,0.62,-0.04,0.18,1.05,
1.111,0.05,0.78,0.62,-0.04,0.18,1.05,
1.113,0.05,0.78,0.62,-0.04,0.18,1.04,
1.115,0.05,0.78,0.62,-0.04,0.18,1.04,
1.115,0.07,0.76,0.63,-0.04,0.18,1.04,
1.117,0.07,0.76,0.63,-0.03,0.18,1.04,
1.12,0.07,0.76,0.63,-0.03,0.18,1.04,
1.12,0.09,0.74,0.60,-0.03,0.18,1.04,
1.123,0.09,0.74,0.60,-0.03,0.18,1.04,
1.125,0.13,0.74,0.59,-0.03,0.18,1.04,
1.126,0.13,0.74,0.59,-0.03,0.18,1.04,
1.127,0.13,0.74,0.59,-0.03,0.18,1.04,
1.13,0.13,0.74,0.59,-0.03,0.17,1.04,
1.13,0.15,0.72,0.56,-0.03,0.17,1.04,
1.132,0.15,0.72,0.56,-0.03,0.18,1.04,
1.135,0.15,0.72,0.56,-0.02,0.17,1.04,
1.135,0.17,0.68,0.53,-0.02,0.17,1.04,
1.137,0.17,0.68,0.53,-0.02,0.18,1.03,
1.14,0.17,0.68,0.53,-0.02,0.17,1.03,
1.141,0.21,0.68,0.51,-0.02,0.17,1.03,
1.142,0.21,0.68,0.51,-0.02,0.17,1.03,
1.145,0.21,0.68,0.51,-0.02,0.17,1.03,
1.145,0.23,0.67,0.47,-0.02,0.17,1.03,
1.147,0.23,0.67,0.47,-0.01,0.17,1.03,
1.149,0.23,0.67,0.47,-0.01,0.17,1.03,
1.15,0.26,0.65,0.44,-0.01,0.17,1.03,
1.152,0.26,0.65,0.44,-0.01,0.17,1.02,
1.154,0.26,0.65,0.44,-0.01,0.17,1.02,
1.154,0.30,0.61,0.40,-0.01,0.17,1.02,
1.162,0.30,0.61,0.40,-0.01,0.17,1.02,
1.163,0.30,0.61,0.40,-0.01,0.17,1.02,
1.163,0.33,0.61,0.36,-0.01,0.17,1.02,
1.163,0.33,0.61,0.36,-0.00,0.17,1.02,
1.165,0.33,0.61,0.36,-0.00,0.17,1.02,
1.165,0.36,0.57,0.37,-0.00,0.17,1.02,
1.166,0.36,0.57,0.37,0.00,0.17,1.02,
1.169,0.36,0.57,0.37,0.00,0.17,1.02,
1.169,0.40,0.56,0.33,0.00,0.17,1.02,
1.171,0.40,0.56,0.33,0.01,0.17,1.01,
1.174,0.40,0.56,0.33,0.01,0.17,1.01,
1.175,0.43,0.55,0.30,0.01,0.17,1.01,
1.176,0.43,0.55,0.30,0.01,0.17,1.01,
1.179,0.43,0.55,0.30,0.01,0.17,1.01,
1.179,0.49,0.55,0.27,0.01,0.17,1.01,
1.181,0.49,0.55,0.27,0.01,0.17,1.01,
1.183,0.49,0.55,0.27,0.02,0.16,1.01,
1.184,0.50,0.53,0.26,0.02,0.16,1.01,
1.186,0.50,0.53,0.26,0.02,0.16,1.01,
1.189,0.50,0.53,0.26,0.02,0.16,1.01,
1.189,0.55,0.51,0.23,0.02,0.16,1.01,
1.191,0.55,0.51,0.23,0.02,0.16,1.00,
1.194,0.55,0.51,0.23,0.02,0.16,1.00,
1.194,0.56,0.49,0.19,0.02,0.16,1.00,
1.196,0.56,0.49,0.19,0.02,0.16,1.00,
1.199,0.56,0.49,0.19,0.02,0.16,1.00,
1.199,0.60,0.48,0.16,0.02,0.16,1.00,
1.201,0.60,0.48,0.16,0.02,0.16,0.99,
1.203,0.60,0.48,0.16,0.02,0.16,0.99,
1.204,0.61,0.46,0.11,0.02,0.16,0.99,
1.206,0.61,0.46,0.11,0.02,0.16,0.99,
1.208,0.61,0.46,0.11,0.02,0.16,0.98,
1.209,0.62,0.45,0.06,0.02,0.16,0.98,
1.211,0.62,0.45,0.06,0.02,0.16,0.98,
1.213,0.62,0.45,0.06,0.02,0.16,0.98,
1.213,0.60,0.44,-0.01,0.02,0.16,0.98,
1.215,0.60,0.44,-0.01,0.02,0.16,0.98,
1.218,0.60,0.44,-0.01,0.02,0.16,0.98,
1.218,0.57,0.41,-0.05,0.02,0.16,0.98,
1.22,0.57,0.41,-0.05,0.02,0.16,0.98,
1.223,0.57,0.41,-0.05,0.02,0.16,0.98,
1.223,0.57,0.39,-0.10,0.02,0.16,0.98,
1.225,0.57,0.39,-0.10,0.02,0.16,0.98,
1.228,0.57,0.39,-0.10,0.02,0.16,0.98,
1.228,0.56,0.39,-0.11,0.02,0.16,0.98,
1.23,0.56,0.39,-0.11,0.02,0.16,0.98,
1.233,0.56,0.39,-0.11,0.02,0.16,0.98,
1.233,0.56,0.38,-0.11,0.02,0.16,0.98,
1.235,0.56,0.38,-0.11,0.02,0.16,0.98,
1.238,0.57,0.36,-0.10,0.02,0.16,0.98,
1.238,0.57,0.36,-0.10,0.02,0.16,0.98,
1.245,0.57,0.36,-0.10,0.03,0.16,0.98,
1.246,0.57,0.36,-0.10,0.03,0.15,0.98,
1.246,0.58,0.35,-0.07,0.03,0.15,0.98,
1.247,0.58,0.35,-0.07,0.03,0.15,0.98,
1.247,0.58,0.35,-0.07,0.03,0.15,0.98,
1.248,0.60,0.31,-0.04,0.03,0.15,0.98,
1.25,0.60,0.31,-0.04,0.03,0.15,0.99,
1.252,0.60,0.31,-0.04,0.03,0.15,0.99,
1.252,0.61,0.29,-0.02,0.03,0.15,0.99,
1.255,0.61,0.29,-0.02,0.03,0.15,0.98,
1.258,0.61,0.29,-0.02,0.03,0.15,0.98,
1.258,0.62,0.27,-0.01,0.03,0.15,0.98,
1.26,0.62,0.27,-0.01,0.04,0.15,0.98,
1.262,0.62,0.27,-0.01,0.04,0.15,0.98,
1.263,0.64,0.23,-0.02,0.04,0.15,0.98,
1.265,0.64,0.23,-0.02,0.04,0.15,0.98,
1.267,0.64,0.23,-0.02,0.04,0.14,0.98,
1.267,0.66,0.20,-0.02,0.04,0.14,0.98,
1.269,0.66,0.20,-0.02,0.05,0.15,0.98,
1.272,0.66,0.20,-0.02,0.05,0.14,0.98,
1.273,0.71,0.20,-0.03,0.05,0.14,0.98,
1.274,0.71,0.20,-0.03,0.05,0.14,0.97,
1.277,0.71,0.20,-0.03,0.05,0.14,0.97,
1.277,0.75,0.18,-0.06,0.05,0.14,0.97,
1.279,0.75,0.18,-0.06,0.05,0.15,0.97,
1.282,0.75,0.18,-0.06,0.05,0.15,0.96,
1.282,0.78,0.15,-0.14,0.05,0.15,0.96,
1.284,0.78,0.15,-0.14,0.05,0.15,0.96,
1.286,0.78,0.15,-0.14,0.05,0.15,0.96,
1.287,0.79,0.16,-0.20,0.05,0.15,0.96,
1.289,0.79,0.16,-0.20,0.05,0.15,0.95,
1.291,0.79,0.16,-0.20,0.05,0.15,0.95,
1.292,0.79,0.16,-0.26,0.05,0.15,0.95,
1.294,0.79,0.16,-0.26,0.05,0.15,0.95,
1.296,0.79,0.16,-0.26,0.05,0.15,0.94,
1.296,0.76,0.16,-0.32,0.05,0.15,0.94,
1.299,0.76,0.16,-0.32,0.05,0.15,0.94,
1.301,0.74,0.16,-0.38,0.05,0.15,0.94,
1.302,0.74,0.16,-0.38,0.05,0.15,0.94,
1.304,0.74,0.16,-0.38,0.04,0.15,0.94,
1.307,0.74,0.16,-0.38,0.04,0.15,0.94,
1.308,0.72,0.14,-0.40,0.04,0.15,0.94,
1.309,0.72,0.14,-0.40,0.04,0.15,0.94,
1.311,0.66,0.13,-0.42,0.04,0.15,0.94,
1.311,0.66,0.13,-0.42,0.04,0.14,0.94,
1.313,0.66,0.13,-0.42,0.04,0.14,0.94,
1.316,0.66,0.13,-0.42,0.04,0.14,0.94,
1.316,0.63,0.12,-0.42,0.04,0.14,0.94,
1.318,0.63,0.12,-0.42,0.03,0.14,0.95,
1.321,0.63,0.12,-0.42,0.03,0.14,0.95,
1.321,0.58,0.09,-0.38,0.03,0.14,0.95,
1.323,0.58,0.09,-0.38,0.03,0.14,0.95,
1.326,0.58,0.09,-0.38,0.03,0.14,0.96,
1.326,0.55,0.06,-0.32,0.03,0.14,0.96,
1.328,0.55,0.06,-0.32,0.03,0.14,0.96,
1.331,0.55,0.06,-0.32,0.03,0.13,0.96,
1.331,0.51,0.04,-0.26,0.03,0.13,0.96,
1.333,0.51,0.04,-0.26,0.03,0.13,0.97,
1.336,0.51,0.04,-0.26,0.02,0.13,0.97,
1.336,0.49,0.00,-0.20,0.02,0.13,0.97,
1.341,0.49,0.00,-0.20,0.02,0.13,0.97,
1.341,0.49,0.00,-0.20,0.02,0.13,0.98,
1.342,0.47,-0.02,-0.13,0.02,0.13,0.98,
1.343,0.47,-0.02,-0.13,0.02,0.12,0.98,
1.345,0.47,-0.02,-0.13,0.02,0.12,0.98,
1.345,0.47,-0.07,-0.07,0.02,0.12,0.98,
1.347,0.47,-0.07,-0.07,0.02,0.12,0.98,
1.35,0.47,-0.07,-0.07,0.02,0.12,0.98,
1.35,0.45,-0.12,-0.02,0.02,0.12,0.98,
1.352,0.45,-0.12,-0.02,0.02,0.12,0.98,
1.355,0.45,-0.12,-0.02,0.01,0.12,0.98,
1.355,0.41,-0.14,0.00,0.01,0.12,0.98,
1.357,0.41,-0.14,0.00,0.01,0.12,0.98,
1.36,0.41,-0.14,0.00,0.01,0.12,0.98,
1.36,0.40,-0.17,0.03,0.01,0.12,0.98,
1.362,0.40,-0.17,0.03,0.01,0.11,0.98,
1.365,0.40,-0.17,0.03,0.01,0.11,0.98,
1.365,0.37,-0.20,0.03,0.01,0.11,0.98,
1.367,0.37,-0.20,0.03,0.01,0.11,0.98,
1.37,0.37,-0.20,0.03,0.01,0.11,0.98,
1.37,0.34,-0.25,0.02,0.01,0.11,0.98,
1.372,0.34,-0.25,0.02,0.01,0.11,0.98,
1.374,0.34,-0.25,0.02,0.00,0.11,0.98,
1.375,0.33,-0.28,-0.01,0.00,0.11,0.98,
1.377,0.33,-0.28,-0.01,0.01,0.11,0.97,
1.38,0.33,-0.28,-0.01,0.00,0.11,0.97,
1.38,0.31,-0.30,-0.04,0.00,0.11,0.97,
1.382,0.31,-0.30,-0.04,0.00,0.11,0.97,
1.384,0.31,-0.30,-0.04,0.00,0.11,0.97,
1.384,0.30,-0.31,-0.05,0.00,0.11,0.97,
1.387,0.30,-0.31,-0.05,0.00,0.11,0.98,
1.39,0.30,-0.31,-0.05,0.00,0.11,0.98,
1.39,0.29,-0.31,-0.06,0.00,0.11,0.98,
1.392,0.29,-0.31,-0.06,0.00,0.11,0.98,
1.394,0.29,-0.31,-0.06,0.00,0.11,0.98,
1.394,0.28,-0.30,-0.04,0.00,0.11,0.98,
1.397,0.28,-0.30,-0.04,0.00,0.11,0.98,
1.399,0.28,-0.30,-0.04,0.00,0.11,0.98,
1.399,0.27,-0.28,-0.01,0.00,0.11,0.98,
1.401,0.27,-0.28,-0.01,0.00,0.11,0.99,
1.406,0.27,-0.28,-0.01,0.01,0.12,0.99,
1.406,0.28,-0.27,0.04,0.01,0.12,0.99,
1.407,0.28,-0.27,0.04,0.01,0.11,0.99,
1.409,0.28,-0.27,0.04,0.01,0.12,0.99,
1.41,0.28,-0.25,0.06,0.01,0.12,0.99,
1.411,0.28,-0.25,0.06,0.01,0.11,1.00,
1.414,0.28,-0.25,0.06,0.01,0.11,1.00,
1.414,0.32,-0.24,0.11,0.01,0.11,1.00,
1.416,0.32,-0.24,0.11,0.01,0.11,1.00,
1.419,0.32,-0.24,0.11,0.01,0.11,1.00,
1.419,0.33,-0.26,0.17,0.01,0.11,1.00,
1.422,0.33,-0.26,0.17,0.01,0.10,1.00,
1.424,0.33,-0.26,0.17,0.01,0.10,1.00,
1.424,0.30,-0.30,0.19,0.01,0.10,1.00,
1.426,0.30,-0.30,0.19,0.01,0.10,1.00,
1.429,0.30,-0.30,0.19,0.01,0.10,1.00,
1.429,0.30,-0.35,0.20,0.01,0.10,1.00,
1.431,0.30,-0.35,0.20,0.01,0.10,1.00,
1.434,0.29,-0.38,0.22,0.01,0.10,1.00,
1.434,0.29,-0.38,0.22,0.01,0.10,1.00,
1.436,0.29,-0.38,0.22,0.02,0.09,1.00,
1.439,0.29,-0.38,0.22,0.01,0.09,1.00,
1.439,0.30,-0.42,0.22,0.01,0.09,1.00,
1.441,0.30,-0.42,0.22,0.02,0.09,1.00,
1.443,0.30,-0.42,0.22,0.02,0.09,1.00,
1.444,0.31,-0.45,0.19,0.02,0.09,1.00,
1.446,0.31,-0.45,0.19,0.02,0.09,1.00,
1.448,0.31,-0.45,0.19,0.01,0.09,0.99,
1.448,0.31,-0.47,0.17,0.01,0.09,0.99,
1.45,0.31,-0.47,0.17,0.01,0.09,0.99,
1.453,0.31,-0.47,0.17,0.01,0.09,0.99,
1.453,0.29,-0.48,0.13,0.01,0.09,0.99,
1.462,0.29,-0.48,0.13,0.01,0.09,0.98,
1.462,0.29,-0.48,0.13,0.01,0.09,0.98,
1.462,0.27,-0.49,0.06,0.01,0.09,0.98,
1.463,0.27,-0.49,0.06,0.01,0.09,0.97,
1.463,0.27,-0.49,0.06,0.00,0.10,0.97,
1.463,0.24,-0.47,-0.02,0.00,0.10,0.97,
1.465,0.24,-0.47,-0.02,0.00,0.10,0.97,
1.468,0.24,-0.47,-0.02,0.00,0.10,0.96,
1.468,0.18,-0.45,-0.08,0.00,0.10,0.96,
1.47,0.18,-0.45,-0.08,-0.00,0.10,0.96,
1.473,0.18,-0.45,-0.08,-0.01,0.11,0.95,
1.473,0.14,-0.41,-0.16,-0.01,0.11,0.95,
1.475,0.14,-0.41,-0.16,-0.01,0.11,0.94,
1.478,0.14,-0.41,-0.16,-0.01,0.11,0.94,
1.478,0.07,-0.37,-0.27,-0.01,0.11,0.94,
1.48,0.07,-0.37,-0.27,-0.01,0.11,0.93,
1.482,0.07,-0.37,-0.27,-0.02,0.12,0.93,
1.482,-0.00,-0.31,-0.38,-0.02,0.12,0.93,
1.485,-0.00,-0.31,-0.38,-0.02,0.12,0.92,
1.488,-0.00,-0.31,-0.38,-0.02,0.12,0.92,
1.488,-0.05,-0.29,-0.48,-0.02,0.12,0.92,
1.49,-0.05,-0.29,-0.48,-0.02,0.12,0.91,
1.492,-0.05,-0.29,-0.48,-0.03,0.12,0.91,
1.492,-0.12,-0.25,-0.57,-0.03,0.12,0.91,
1.495,-0.12,-0.25,-0.57,-0.03,0.12,0.91,
1.497,-0.12,-0.25,-0.57,-0.03,0.12,0.91,
1.498,-0.16,-0.22,-0.65,-0.03,0.12,0.91,
1.499,-0.16,-0.22,-0.65,-0.03,0.12,0.91,
1.502,-0.16,-0.22,-0.65,-0.03,0.12,0.91,
1.502,-0.22,-0.22,-0.68,-0.03,0.12,0.91,
1.504,-0.22,-0.22,-0.68,-0.03,0.12,0.91,
1.507,-0.22,-0.22,-0.68,-0.03,0.12,0.91,
1.507,-0.25,-0.23,-0.66,-0.03,0.12,0.91,
1.509,-0.25,-0.23,-0.66,-0.03,0.12,0.92,
1.512,-0.25,-0.23,-0.66,-0.03,0.12,0.92,
1.512,-0.24,-0.26,-0.62,-0.03,0.12,0.92,
1.514,-0.24,-0.26,-0.62,-0.04,0.12,0.93,
1.516,-0.24,-0.26,-0.62,-0.04,0.11,0.93,
1.517,-0.26,-0.27,-0.55,-0.04,0.11,0.93,
1.519,-0.26,-0.27,-0.55,-0.04,0.11,0.94,
1.522,-0.26,-0.27,-0.55,-0.04,0.11,0.94,
1.522,-0.28,-0.31,-0.45,-0.04,0.11,0.94,
1.524,-0.28,-0.31,-0.45,-0.04,0.11,0.95,
1.526,-0.28,-0.31,-0.45,-0.04,0.11,0.95,
1.527,-0.31,-0.36,-0.34,-0.04,0.11,0.95,
1.529,-0.31,-0.36,-0.34,-0.04,0.10,0.96,
1.531,-0.31,-0.36,-0.34,-0.04,0.10,0.96,
1.532,-0.34,-0.41,-0.24,-0.04,0.10,0.96,
1.534,-0.34,-0.41,-0.24,-0.04,0.10,0.97,
1.536,-0.34,-0.41,-0.24,-0.04,0.10,0.97,
1.536,-0.32,-0.45,-0.13,-0.04,0.10,0.97,
1.538,-0.32,-0.45,-0.13,-0.04,0.10,0.97,
1.541,-0.32,-0.45,-0.13,-0.04,0.10,0.97,
1.542,-0.35,-0.47,-0.07,-0.04,0.10,0.97,
1.543,-0.35,-0.47,-0.07,-0.04,0.10,0.98,
1.546,-0.35,-0.47,-0.07,-0.04,0.10,0.97,
1.546,-0.36,-0.46,-0.02,-0.04,0.10,0.97,
1.548,-0.36,-0.46,-0.02,-0.05,0.10,0.97,
1.551,-0.36,-0.46,-0.02,-0.05,0.10,0.97,
1.551,-0.36,-0.44,0.01,-0.05,0.10,0.97,
1.553,-0.36,-0.44,0.01,-0.05,0.10,0.97,
1.56,-0.36,-0.44,0.01,-0.05,0.11,0.97,
1.561,-0.39,-0.43,-0.01,-0.05,0.11,0.97,
1.561,-0.39,-0.43,-0.01,-0.05,0.11,0.97,
1.561,-0.39,-0.43,-0.01,-0.05,0.11,0.96,
1.562,-0.38,-0.40,-0.05,-0.05,0.11,0.96,
1.563,-0.38,-0.40,-0.05,-0.05,0.11,0.96,
1.566,-0.38,-0.40,-0.05,-0.05,0.12,0.96,
1.566,-0.39,-0.36,-0.08,-0.05,0.12,0.96,
1.568,-0.39,-0.36,-0.08,-0.04,0.12,0.96,
1.572,-0.39,-0.36,-0.08,-0.05,0.12,0.96,
1.572,-0.39,-0.31,-0.13,-0.05,0.12,0.96,
1.573,-0.39,-0.31,-0.13,-0.05,0.12,0.95,
1.576,-0.39,-0.31,-0.13,-0.05,0.12,0.95,
1.576,-0.40,-0.27,-0.16,-0.05,0.12,0.95,
1.578,-0.40,-0.27,-0.16,-0.05,0.12,0.95,
1.58,-0.40,-0.27,-0.16,-0.06,0.13,0.95,
1.58,-0.42,-0.23,-0.20,-0.06,0.13,0.95,
1.582,-0.42,-0.23,-0.20,-0.06,0.12,0.94,
1.585,-0.42,-0.23,-0.20,-0.06,0.12,0.94,
1.586,-0.48,-0.22,-0.26,-0.06,0.12,0.94,
1.587,-0.48,-0.22,-0.26,-0.06,0.13,0.94,
1.59,-0.48,-0.22,-0.26,-0.06,0.12,0.94,
1.59,-0.53,-0.24,-0.28,-0.06,0.12,0.94,
1.593,-0.53,-0.24,-0.28,-0.07,0.12,0.94,
1.595,-0.53,-0.24,-0.28,-0.07,0.12,0.94,
1.597,-0.57,-0.23,-0.30,-0.07,0.12,0.94,
1.597,-0.57,-0.23,-0.30,-0.07,0.12,0.94,
1.6,-0.57,-0.23,-0.30,-0.08,0.12,0.94,
1.6,-0.62,-0.25,-0.32,-0.08,0.12,0.94,
1.602,-0.62,-0.25,-0.32,-0.08,0.12,0.94,
1.605,-0.62,-0.25,-0.32,-0.08,0.12,0.94,
1.605,-0.67,-0.26,-0.34,-0.08,0.12,0.94,
1.607,-0.67,-0.26,-0.34,-0.08,0.12,0.94,
1.61,-0.67,-0.26,-0.34,-0.08,0.12,0.94,
1.61,-0.70,-0.28,-0.33,-0.08,0.12,0.94,
1.612,-0.70,-0.28,-0.33,-0.08,0.12,0.94,
1.614,-0.70,-0.28,-0.33,-0.08,0.11,0.95,
1.615,-0.70,-0.31,-0.29,-0.08,0.11,0.95,
1.617,-0.70,-0.31,-0.29,-0.08,0.11,0.95,
1.619,-0.70,-0.31,-0.29,-0.08,0.11,0.95,
1.62,-0.70,-0.35,-0.26,-0.08,0.11,0.95,
1.622,-0.70,-0.35,-0.26,-0.08,0.11,0.95,
1.624,-0.70,-0.35,-0.26,-0.08,0.11,0.95,
1.625,-0.69,-0.38,-0.20,-0.08,0.11,0.95,
1.627,-0.69,-0.38,-0.20,-0.08,0.11,0.96,
1.629,-0.69,-0.38,-0.20,-0.08,0.10,0.96,
1.63,-0.69,-0.42,-0.16,-0.08,0.10,0.96,
1.632,-0.69,-0.42,-0.16,-0.08,0.11,0.96,
1.634,-0.69,-0.42,-0.16,-0.07,0.10,0.97,
1.634,-0.67,-0.44,-0.11,-0.07,0.10,0.97,
1.636,-0.67,-0.44,-0.11,-0.07,0.10,0.97,
1.644,-0.67,-0.44,-0.11,-0.07,0.10,0.97,
1.644,-0.63,-0.47,-0.06,-0.07,0.10,0.97,
1.645,-0.63,-0.47,-0.06,-0.07,0.10,0.97,
1.645,-0.63,-0.47,-0.06,-0.06,0.10,0.97,
1.646,-0.58,-0.49,-0.00,-0.06,0.10,0.97,
1.646,-0.58,-0.49,-0.00,-0.06,0.10,0.97,
1.649,-0.58,-0.49,-0.00,-0.06,0.10,0.97,
1.649,-0.53,-0.51,0.03,-0.06,0.10,0.97,
1.651,-0.53,-0.51,0.03,-0.06,0.10,0.97,
1.655,-0.53,-0.51,0.03,-0.05,0.10,0.97,
1.656,-0.46,-0.52,0.05,-0.05,0.10,0.97,
1.656,-0.46,-0.52,0.05,-0.05,0.10,0.97,
1.659,-0.46,-0.52,0.05,-0.05,0.10,0.98,
1.659,-0.42,-0.51,0.05,-0.05,0.10,0.98,
1.661,-0.42,-0.51,0.05,-0.05,0.10,0.97,
1.663,-0.42,-0.51,0.05,-0.05,0.10,0.97,
1.663,-0.38,-0.50,0.05,-0.05,0.10,0.97,
1.666,-0.38,-0.50,0.05,-0.05,0.10,0.97,
1.668,-0.38,-0.50,0.05,-0.05,0.10,0.97,
1.668,-0.37,-0.48,0.04,-0.05,0.10,0.97,
1.671,-0.37,-0.48,0.04,-0.05,0.10,0.97,
1.673,-0.37,-0.48,0.04,-0.05,0.10,0.97,
1.674,-0.35,-0.47,0.02,-0.05,0.10,0.97,
1.676,-0.35,-0.47,0.02,-0.05,0.10,0.97,
1.678,-0.35,-0.47,0.02,-0.05,0.10,0.97,
1.679,-0.36,-0.46,0.01,-0.05,0.10,0.97,
1.68,-0.36,-0.46,0.01,-0.05,0.10,0.97,
1.683,-0.36,-0.46,0.01,-0.05,0.10,0.97,
1.683,-0.38,-0.46,-0.01,-0.05,0.10,0.97,
1.685,-0.38,-0.46,-0.01,-0.05,0.10,0.97,
1.688,-0.40,-0.48,-0.03,-0.05,0.10,0.97,
1.688,-0.40,-0.48,-0.03,-0.05,0.10,0.97,
1.69,-0.40,-0.48,-0.03,-0.05,0.10,0.96,
1.693,-0.40,-0.48,-0.03,-0.06,0.10,0.97,
1.694,-0.42,-0.50,-0.04,-0.06,0.10,0.97,
1.695,-0.42,-0.50,-0.04,-0.06,0.10,0.97,
1.698,-0.42,-0.50,-0.04,-0.06,0.10,0.97,
1.698,-0.44,-0.49,-0.04,-0.06,0.10,0.97,
1.7,-0.44,-0.49,-0.04,-0.05,0.10,0.97,
1.703,-0.44,-0.49,-0.04,-0.05,0.09,0.97,
1.703,-0.44,-0.52,-0.03,-0.05,0.09,0.97,
1.705,-0.44,-0.52,-0.03,-0.06,0.09,0.97,
1.708,-0.44,-0.52,-0.03,-0.05,0.09,0.97,
1.708,-0.42,-0.54,0.00,-0.05,0.09,0.97,
1.71,-0.42,-0.54,0.00,-0.06,0.09,0.97,
1.713,-0.42,-0.54,0.00,-0.05,0.09,0.97,
1.713,-0.42,-0.55,0.02,-0.05,0.09,0.97,
1.715,-0.42,-0.55,0.02,-0.05,0.09,0.98,
1.717,-0.42,-0.55,0.02,-0.06,0.09,0.98,
1.717,-0.41,-0.58,0.03,-0.06,0.09,0.98,
1.721,-0.41,-0.58,0.03,-0.05,0.09,0.98,
1.723,-0.41,-0.58,0.03,-0.05,0.09,0.98,
1.725,-0.40,-0.60,0.07,-0.05,0.09,0.98,
1.727,-0.40,-0.60,0.07,-0.05,0.09,0.98,
1.728,-0.40,-0.60,0.07,-0.05,0.08,0.98,
1.729,-0.36,-0.62,0.08,-0.05,0.08,0.98,
1.73,-0.36,-0.62,0.08,-0.05,0.08,0.98,
1.732,-0.36,-0.62,0.08,-0.05,0.08,0.98,
1.732,-0.32,-0.62,0.09,-0.05,0.08,0.98,
1.734,-0.32,-0.62,0.09,-0.05,0.08,0.98,
1.737,-0.32,-0.62,0.09,-0.04,0.08,0.99,
1.737,-0.31,-0.63,0.13,-0.04,0.08,0.99,
1.739,-0.31,-0.63,0.13,-0.04,0.08,0.99,
1.742,-0.31,-0.63,0.13,-0.05,0.08,0.99,
1.742,-0.29,-0.66,0.15,-0.05,0.08,0.99,
1.744,-0.29,-0.66,0.15,-0.05,0.08,0.99,
1.747,-0.29,-0.66,0.15,-0.05,0.08,0.99,
1.747,-0.28,-0.67,0.19,-0.05,0.08,0.99,
1.749,-0.28,-0.67,0.19,-0.05,0.07,1.00,
1.751,-0.28,-0.67,0.19,-0.05,0.07,1.00,
1.752,-0.30,-0.70,0.23,-0.05,0.07,1.00,
1.757,-0.30,-0.70,0.23,-0.05,0.07,1.01,
1.758,-0.30,-0.70,0.23,-0.05,0.06,1.01,
1.758,-0.31,-0.75,0.30,-0.05,0.06,1.01,
1.76,-0.31,-0.75,0.30,-0.05,0.06,1.01,
1.761,-0.31,-0.75,0.30,-0.06,0.06,1.01,
1.762,-0.35,-0.80,0.38,-0.06,0.06,1.01,
1.764,-0.35,-0.80,0.38,-0.06,0.06,1.02,
1.766,-0.35,-0.80,0.38,-0.06,0.05,1.02,
1.766,-0.39,-0.85,0.43,-0.06,0.05,1.02,
1.769,-0.39,-0.85,0.43,-0.06,0.06,1.02,
1.771,-0.39,-0.85,0.43,-0.06,0.05,1.02,
1.771,-0.41,-0.87,0.48,-0.06,0.05,1.02,
1.773,-0.41,-0.87,0.48,-0.06,0.05,1.03,
1.776,-0.41,-0.87,0.48,-0.06,0.05,1.03,
1.776,-0.44,-0.87,0.51,-0.06,0.05,1.03,
1.778,-0.44,-0.87,0.51,-0.07,0.05,1.03,
1.781,-0.44,-0.87,0.51,-0.07,0.05,1.03,
1.781,-0.47,-0.88,0.53,-0.07,0.05,1.03,
1.783,-0.47,-0.88,0.53,-0.07,0.05,1.03,
1.788,-0.47,-0.88,0.53,-0.07,0.05,1.02,
1.789,-0.51,-0.90,0.53,-0.07,0.05,1.02,
1.789,-0.51,-0.90,0.53,-0.08,0.05,1.02,
1.791,-0.56,-0.90,0.52,-0.08,0.05,1.02,
1.792,-0.56,-0.90,0.52,-0.08,0.05,1.02,
1.793,-0.56,-0.90,0.52,-0.08,0.05,1.01,
1.796,-0.56,-0.90,0.52,-0.08,0.05,1.01,
1.796,-0.62,-0.88,0.46,-0.08,0.05,1.01,
1.798,-0.62,-0.88,0.46,-0.08,0.05,1.01,
1.8,-0.62,-0.88,0.46,-0.08,0.06,1.00,
1.801,-0.64,-0.86,0.38,-0.08,0.06,1.00,
1.803,-0.64,-0.86,0.38,-0.08,0.06,1.00,
1.806,-0.64,-0.86,0.38,-0.08,0.06,0.99,
1.806,-0.65,-0.85,0.29,-0.08,0.06,0.99,
1.808,-0.65,-0.85,0.29,-0.08,0.06,0.98,
1.81,-0.65,-0.85,0.29,-0.08,0.07,0.98,
1.811,-0.63,-0.79,0.19,-0.08,0.07,0.98,
1.813,-0.63,-0.79,0.19,-0.08,0.07,0.98,
1.815,-0.63,-0.76,0.08,-0.08,0.07,0.98,
1.816,-0.63,-0.76,0.08,-0.08,0.07,0.97,
1.818,-0.63,-0.76,0.08,-0.08,0.07,0.97,
1.82,-0.63,-0.76,0.08,-0.08,0.07,0.97,
1.821,-0.60,-0.70,0.01,-0.08,0.07,0.97,
1.822,-0.60,-0.70,0.01,-0.08,0.08,0.96,
1.825,-0.60,-0.70,0.01,-0.08,0.07,0.96,
1.825,-0.57,-0.67,-0.06,-0.08,0.07,0.96,
1.827,-0.57,-0.67,-0.06,-0.08,0.08,0.96,
1.83,-0.57,-0.67,-0.06,-0.07,0.07,0.96,
1.83,-0.58,-0.65,-0.13,-0.07,0.07,0.96,
1.832,-0.58,-0.65,-0.13,-0.07,0.07,0.95,
1.835,-0.58,-0.65,-0.13,-0.07,0.07,0.95,
1.835,-0.56,-0.65,-0.17,-0.07,0.07,0.95,
1.837,-0.56,-0.65,-0.17,-0.07,0.07,0.95,
1.84,-0.56,-0.65,-0.17,-0.07,0.07,0.95,
1.84,-0.52,-0.69,-0.19,-0.07,0.07,0.95,
1.842,-0.52,-0.69,-0.19,-0.07,0.07,0.95,
1.845,-0.52,-0.69,-0.19,-0.06,0.06,0.95,
1.845,-0.48,-0.71,-0.18,-0.06,0.06,0.95,
1.847,-0.48,-0.71,-0.18,-0.06,0.06,0.95,
1.85,-0.48,-0.71,-0.18,-0.06,0.06,0.96,
1.85,-0.48,-0.73,-0.18,-0.06,0.06,0.96,
1.852,-0.48,-0.73,-0.18,-0.06,0.06,0.96,
1.859,-0.48,-0.73,-0.18,-0.06,0.06,0.96,
1.859,-0.45,-0.76,-0.16,-0.06,0.06,0.96,
1.86,-0.45,-0.76,-0.16,-0.05,0.06,0.96,
1.86,-0.45,-0.76,-0.16,-0.05,0.05,0.97,
1.86,-0.41,-0.79,-0.12,-0.05,0.05,0.97,
1.862,-0.41,-0.79,-0.12,-0.05,0.05,0.97,
1.864,-0.41,-0.79,-0.12,-0.05,0.05,0.97,
1.864,-0.38,-0.81,-0.07,-0.05,0.05,0.97,
1.867,-0.38,-0.81,-0.07,-0.05,0.05,0.97,
1.869,-0.38,-0.81,-0.07,-0.05,0.05,0.97,
1.87,-0.36,-0.82,-0.02,-0.05,0.05,0.97,
1.871,-0.36,-0.82,-0.02,-0.05,0.05,0.97,
1.874,-0.36,-0.82,-0.02,-0.05,0.05,0.98,
1.874,-0.35,-0.83,-0.01,-0.05,0.05,0.98,
1.876,-0.35,-0.83,-0.01,-0.05,0.05,0.98,
1.879,-0.35,-0.83,-0.01,-0.05,0.05,0.98,
1.879,-0.32,-0.84,0.02,-0.05,0.05,0.98,
1.881,-0.32,-0.84,0.02,-0.05,0.05,0.98,
1.884,-0.32,-0.84,0.02,-0.05,0.05,0.98,
1.884,-0.32,-0.82,0.04,-0.05,0.05,0.98,
1.886,-0.32,-0.82,0.04,-0.04,0.05,0.97,
1.889,-0.32,-0.82,0.04,-0.04,0.06,0.97,
1.889,-0.31,-0.80,0.03,-0.04,0.06,0.97,
1.891,-0.31,-0.80,0.03,-0.04,0.06,0.97,
1.893,-0.31,-0.80,0.03,-0.04,0.06,0.97,
1.894,-0.27,-0.75,0.02,-0.04,0.06,0.97,
1.896,-0.27,-0.75,0.02,-0.03,0.06,0.97,
1.898,-0.27,-0.75,0.02,-0.03,0.07,0.97,
1.898,-0.25,-0.69,-0.00,-0.03,0.07,0.97,
1.901,-0.25,-0.69,-0.00,-0.03,0.07,0.97,
1.904,-0.25,-0.69,-0.00,-0.03,0.07,0.97,
1.904,-0.20,-0.63,-0.02,-0.03,0.07,0.97,
1.906,-0.20,-0.63,-0.02,-0.03,0.07,0.97,
1.909,-0.20,-0.63,-0.02,-0.03,0.08,0.97,
1.91,-0.18,-0.56,-0.04,-0.03,0.08,0.97,
1.91,-0.18,-0.56,-0.04,-0.03,0.08,0.96,
1.913,-0.18,-0.56,-0.04,-0.02,0.08,0.97,
1.913,-0.13,-0.54,-0.06,-0.02,0.08,0.97,
1.915,-0.13,-0.54,-0.06,-0.02,0.08,0.97,
1.918,-0.13,-0.54,-0.06,-0.02,0.08,0.97,
1.918,-0.11,-0.49,-0.07,-0.02,0.08,0.97,
1.92,-0.11,-0.49,-0.07,-0.02,0.08,0.97,
1.923,-0.11,-0.49,-0.07,-0.02,0.08,0.97,
1.923,-0.08,-0.49,-0.04,-0.02,0.08,0.97,
1.925,-0.08,-0.49,-0.04,-0.02,0.08,0.97,
1.928,-0.08,-0.49,-0.04,-0.02,0.08,0.98,
1.928,-0.08,-0.50,0.01,-0.02,0.08,0.98,
1.93,-0.08,-0.50,0.01,-0.02,0.07,0.98,
1.932,-0.08,-0.50,0.01,-0.02,0.07,0.98,
1.933,-0.07,-0.51,0.04,-0.02,0.07,0.98,
1.935,-0.07,-0.51,0.04,-0.02,0.07,0.99,
1.942,-0.07,-0.51,0.04,-0.02,0.07,0.99,
1.942,-0.08,-0.54,0.09,-0.02,0.07,0.99,
1.943,-0.08,-0.54,0.09,-0.03,0.07,0.99,
1.943,-0.08,-0.54,0.09,-0.03,0.07,0.99,
1.943,-0.08,-0.56,0.15,-0.03,0.07,0.99,
1.945,-0.08,-0.56,0.15,-0.03,0.07,0.99,
1.947,-0.08,-0.56,0.15,-0.04,0.07,0.99,
1.947,-0.12,-0.56,0.19,-0.04,0.07,0.99,
1.95,-0.12,-0.56,0.19,-0.04,0.07,1.00,
1.953,-0.12,-0.56,0.19,-0.04,0.07,1.00,
1.953,-0.17,-0.55,0.21,-0.04,0.07,1.00,
1.955,-0.17,-0.55,0.21,-0.04,0.07,1.00,
1.957,-0.17,-0.55,0.21,-0.04,0.07,1.00,
1.957,-0.22,-0.56,0.22,-0.04,0.07,1.00,
1.959,-0.22,-0.56,0.22,-0.05,0.08,1.00,
1.962,-0.22,-0.56,0.22,-0.05,0.08,0.99,
1.962,-0.26,-0.53,0.22,-0.05,0.08,0.99,
1.964,-0.26,-0.53,0.22,-0.05,0.08,0.99,
1.967,-0.26,-0.53,0.22,-0.05,0.09,0.99,
1.967,-0.29,-0.48,0.21,-0.05,0.09,0.99,
1.97,-0.29,-0.48,0.21,-0.05,0.09,0.99,
1.972,-0.29,-0.48,0.21,-0.05,0.09,0.98,
1.972,-0.30,-0.39,0.17,-0.05,0.09,0.98,
1.974,-0.30,-0.39,0.17,-0.05,0.10,0.98,
1.977,-0.30,-0.39,0.17,-0.05,0.10,0.98,
1.977,-0.30,-0.31,0.11,-0.05,0.10,0.98,
1.979,-0.30,-0.31,0.11,-0.05,0.11,0.98,
1.982,-0.30,-0.31,0.11,-0.05,0.11,0.98,
1.982,-0.30,-0.24,0.08,-0.05,0.11,0.98,
1.984,-0.30,-0.24,0.08,-0.05,0.11,0.98,
1.987,-0.30,-0.24,0.08,-0.05,0.11,0.98,
1.987,-0.30,-0.15,0.05,-0.05,0.11,0.98,
1.989,-0.30,-0.15,0.05,-0.04,0.12,0.98,
1.991,-0.30,-0.15,0.05,-0.04,0.12,0.98,
1.992,-0.28,-0.09,0.02,-0.04,0.12,0.98,
1.994,-0.28,-0.09,0.02,-0.04,0.12,0.98,
1.996,-0.28,-0.09,0.02,-0.04,0.12,0.98,
1.996,-0.23,-0.06,0.02,-0.04,0.12,0.98,
1.998,-0.23,-0.06,0.02,-0.04,0.12,0.98,
2.001,-0.23,-0.06,0.02,-0.04,0.12,0.98,
2.001,-0.22,-0.02,0.02,-0.04,0.12,0.98,
2.004,-0.22,-0.02,0.02,-0.04,0.12,0.98,
2.006,-0.22,-0.02,0.02,-0.04,0.12,0.98,
2.006,-0.21,-0.00,0.05,-0.04,0.12,0.98,
2.008,-0.21,-0.00,0.05,-0.03,0.12,0.99,
2.011,-0.21,-0.00,0.05,-0.03,0.11,0.99,
2.011,-0.18,-0.00,0.09,-0.03,0.11,0.99,
2.013,-0.18,-0.00,0.09,-0.03,0.11,0.99,
2.016,-0.18,-0.00,0.09,-0.03,0.11,0.99,
2.016,-0.15,-0.07,0.14,-0.03,0.11,0.99,
2.018,-0.15,-0.07,0.14,-0.02,0.10,0.99,
2.021,-0.15,-0.07,0.14,-0.02,0.10,0.99,
2.021,-0.11,-0.12,0.16,-0.02,0.10,0.99,
2.023,-0.11,-0.12,0.16,-0.02,0.10,0.99,
2.025,-0.11,-0.12,0.16,-0.02,0.10,1.00,
2.026,-0.07,-0.19,0.18,-0.02,0.10,1.00,
2.028,-0.07,-0.19,0.18,-0.02,0.09,1.00,
2.03,-0.07,-0.19,0.18,-0.02,0.10,1.00,
2.031,-0.05,-0.21,0.19,-0.02,0.10,1.00,
2.033,-0.05,-0.21,0.19,-0.02,0.09,1.00,
2.041,-0.05,-0.21,0.19,-0.02,0.09,1.00,
2.041,-0.02,-0.25,0.21,-0.02,0.09,1.00,
2.041,-0.02,-0.25,0.21,-0.02,0.09,1.00,
2.042,-0.02,-0.25,0.21,-0.02,0.09,1.00,
2.042,-0.01,-0.27,0.21,-0.02,0.09,1.00,
2.043,-0.01,-0.27,0.21,-0.02,0.09,1.00,
2.045,-0.01,-0.27,0.21,-0.02,0.09,1.00,
2.046,0.00,-0.29,0.20,-0.02,0.09,1.00,
2.048,0.00,-0.29,0.20,-0.02,0.09,1.00,
2.05,0.00,-0.29,0.20,-0.02,0.09,0.99,
2.05,0.01,-0.28,0.20,-0.02,0.09,0.99,
2.053,0.01,-0.28,0.20,-0.02,0.10,0.99,
2.057,0.00,-0.27,0.19,-0.02,0.10,0.99,
2.057,0.00,-0.27,0.19,-0.02,0.10,0.99,
2.058,0.00,-0.27,0.19,-0.02,0.10,0.99,
2.06,0.00,-0.27,0.19,-0.02,0.10,0.99,
2.06,0.01,-0.23,0.16,-0.02,0.10,0.99,
2.062,0.01,-0.23,0.16,-0.02,0.10,0.99,
2.065,0.01,-0.23,0.16,-0.02,0.11,0.99,
2.065,0.00,-0.19,0.15,-0.02,0.11,0.99,
2.067,0.00,-0.19,0.15,-0.02,0.11,0.99,
2.07,0.00,-0.19,0.15,-0.02,0.11,0.99,
2.07,0.02,-0.15,0.12,-0.02,0.11,0.99,
2.072,0.02,-0.15,0.12,-0.02,0.12,0.98,
2.074,0.02,-0.15,0.12,-0.02,0.12,0.98,
2.074,0.03,-0.08,0.09,-0.02,0.12,0.98,
2.077,0.03,-0.08,0.09,-0.01,0.12,0.98,
2.079,0.03,-0.08,0.09,-0.01,0.12,0.98,
2.079,0.05,-0.03,0.05,-0.01,0.12,0.98,
2.082,0.05,-0.03,0.05,-0.01,0.12,0.98,
2.084,0.05,-0.03,0.05,-0.01,0.12,0.97,
2.085,0.07,-0.01,0.01,-0.01,0.12,0.97,
2.086,0.07,-0.01,0.01,-0.01,0.12,0.97,
2.09,0.07,-0.01,0.01,-0.01,0.12,0.97,
2.09,0.05,-0.00,-0.02,-0.01,0.12,0.97,
2.092,0.05,-0.00,-0.02,-0.01,0.12,0.97,
2.094,0.05,-0.00,-0.02,-0.01,0.12,0.97,
2.094,0.05,0.01,-0.03,-0.01,0.12,0.97,
2.096,0.05,0.01,-0.03,-0.01,0.12,0.97,
2.099,0.05,0.01,-0.03,-0.01,0.12,0.97,
2.099,0.07,0.01,-0.04,-0.01,0.12,0.97,
2.102,0.07,0.01,-0.04,-0.01,0.12,0.97,
2.104,0.07,0.01,-0.04,-0.01,0.12,0.98,
2.104,0.08,-0.01,-0.03,-0.01,0.12,0.98,
2.106,0.08,-0.01,-0.03,-0.00,0.11,0.98,
2.109,0.08,-0.01,-0.03,-0.00,0.11,0.98,
2.109,0.11,-0.03,-0.01,-0.00,0.11,0.98,
2.111,0.11,-0.03,-0.01,-0.00,0.11,0.98,
2.114,0.11,-0.03,-0.01,0.00,0.11,0.98,
2.114,0.15,-0.04,0.03,0.00,0.11,0.98,
2.116,0.15,-0.04,0.03,0.00,0.11,0.99,
2.119,0.15,-0.04,0.03,0.00,0.11,0.99,
2.12,0.18,-0.07,0.06,0.00,0.11,0.99,
2.121,0.18,-0.07,0.06,0.00,0.11,0.99,
2.124,0.18,-0.07,0.06,0.00,0.11,0.98,
2.124,0.20,-0.07,0.09,0.00,0.11,0.98,
2.126,0.20,-0.07,0.09,0.01,0.11,0.98,
2.128,0.20,-0.07,0.09,0.01,0.11,0.98,
2.129,0.22,-0.06,0.09,0.01,0.11,0.98,
2.131,0.22,-0.06,0.09,0.01,0.12,0.98,
2.133,0.22,-0.06,0.09,0.01,0.12,0.98,
2.134,0.24,-0.05,0.07,0.01,0.12,0.98,
2.136,0.24,-0.05,0.07,0.01,0.12,0.98,
2.138,0.24,-0.05,0.07,0.01,0.12,0.98,
2.139,0.25,-0.03,0.06,0.01,0.12,0.98,
2.141,0.25,-0.03,0.06,0.00,0.12,0.98,
2.143,0.25,-0.03,0.06,0.01,0.12,0.97,
2.144,0.24,-0.00,0.02,0.01,0.12,0.97,
2.145,0.24,-0.00,0.02,0.00,0.12,0.97,
2.148,0.24,-0.00,0.02,0.00,0.12,0.97,
2.148,0.24,0.02,-0.01,0.00,0.12,0.97,
2.15,0.24,0.02,-0.01,0.00,0.13,0.97,
2.158,0.24,0.02,-0.01,0.00,0.12,0.97,
2.159,0.23,0.03,-0.03,0.00,0.12,0.97,
2.159,0.23,0.03,-0.03,0.00,0.13,0.97,
2.16,0.23,0.03,-0.03,0.00,0.13,0.97,
2.16,0.19,0.06,-0.07,0.00,0.13,0.97,
2.16,0.19,0.06,-0.07,0.00,0.13,0.97,
2.163,0.19,0.06,-0.07,0.00,0.13,0.96,
2.163,0.20,0.09,-0.10,0.00,0.13,0.96,
2.165,0.20,0.09,-0.10,0.01,0.13,0.97,
2.171,0.20,0.09,-0.10,0.01,0.13,0.96,
2.172,0.23,0.10,-0.11,0.01,0.13,0.96,
2.172,0.23,0.10,-0.11,0.01,0.13,0.97,
2.173,0.27,0.13,-0.11,0.01,0.13,0.97,
2.173,0.27,0.13,-0.11,0.01,0.13,0.97,
2.175,0.27,0.13,-0.11,0.01,0.14,0.97,
2.177,0.27,0.13,-0.11,0.01,0.14,0.97,
2.178,0.27,0.14,-0.09,0.01,0.14,0.97,
2.18,0.27,0.14,-0.09,0.01,0.13,0.97,
2.182,0.27,0.14,-0.09,0.02,0.13,0.97,
2.182,0.30,0.15,-0.08,0.02,0.13,0.97,
2.185,0.30,0.15,-0.08,0.01,0.13,0.97,
2.187,0.30,0.15,-0.08,0.01,0.13,0.97,
2.188,0.34,0.12,-0.05,0.01,0.13,0.97,
2.19,0.34,0.12,-0.05,0.01,0.13,0.97,
2.192,0.34,0.12,-0.05,0.01,0.13,0.97,
2.193,0.33,0.11,-0.06,0.01,0.13,0.97,
2.194,0.33,0.11,-0.06,0.00,0.13,0.93,
2.197,0.33,0.11,-0.06,-0.00,0.13,0.88,
2.197,0.32,0.08,-0.07,-0.00,0.13,0.88,
2.199,0.32,0.08,-0.07,-0.01,0.14,0.85,
2.202,0.32,0.08,-0.07,-0.00,0.15,0.85,
2.202,0.20,0.10,-0.68,-0.00,0.15,0.85,
2.205,0.20,0.10,-0.68,0.00,0.15,0.86,
2.207,0.20,0.10,-0.68,0.00,0.16,0.88,
2.207,0.15,0.23,-1.21,0.00,0.16,0.88,
2.21,0.15,0.23,-1.21,0.01,0.16,0.89,
2.212,0.15,0.23,-1.21,0.01,0.15,0.90,
2.212,0.23,0.36,-1.03,0.01,0.15,0.90,
2.214,0.23,0.36,-1.03,0.01,0.15,0.91,
2.216,0.23,0.36,-1.03,0.01,0.14,0.92,
2.217,0.27,0.34,-0.75,0.01,0.14,0.92,
2.219,0.27,0.34,-0.75,0.00,0.14,0.93,
2.222,0.27,0.34,-0.75,-0.00,0.13,0.94,
2.222,0.28,0.27,-0.59,-0.00,0.13,0.94,
2.224,0.28,0.27,-0.59,-0.00,0.12,0.95,
2.226,0.28,0.27,-0.59,-0.01,0.12,0.96,
2.227,0.22,0.15,-0.40,-0.01,0.12,0.96,
2.229,0.22,0.15,-0.40,-0.01,0.11,0.98,
2.231,0.22,0.15,-0.40,-0.01,0.11,0.99,
2.231,0.17,0.03,-0.15,-0.01,0.11,0.99,
2.234,0.17,0.03,-0.15,-0.02,0.10,1.00,
2.236,0.17,0.03,-0.15,-0.02,0.10,1.02,
2.236,0.11,-0.05,0.12,-0.02,0.10,1.02,
2.239,0.11,-0.05,0.12,-0.02,0.11,1.03,
2.241,0.11,-0.05,0.12,-0.02,0.11,1.03,
2.241,0.06,-0.10,0.37,-0.02,0.11,1.03,
2.243,0.06,-0.10,0.37,-0.03,0.11,1.04,
2.246,0.06,-0.10,0.37,-0.03,0.11,1.04,
2.246,0.02,-0.08,0.56,-0.03,0.11,1.04,
2.248,0.02,-0.08,0.56,-0.03,0.11,1.04,
2.255,-0.03,-0.03,0.63,-0.03,0.11,1.04,
2.255,-0.03,-0.03,0.63,-0.03,0.12,1.04,
2.256,-0.03,-0.03,0.63,-0.04,0.12,1.05,
2.256,-0.03,-0.03,0.63,-0.04,0.12,1.05,
2.256,-0.08,0.02,0.67,-0.04,0.12,1.05,
2.258,-0.08,0.02,0.67,-0.04,0.13,1.05,
2.261,-0.08,0.02,0.67,-0.04,0.13,1.05,
2.261,-0.11,0.08,0.72,-0.04,0.13,1.05,
2.263,-0.11,0.08,0.72,-0.04,0.13,1.06,
2.266,-0.11,0.08,0.72,-0.04,0.13,1.05,
2.266,-0.13,0.14,0.75,-0.04,0.13,1.05,
2.268,-0.13,0.14,0.75,-0.05,0.13,1.05,
2.27,-0.13,0.14,0.75,-0.04,0.13,1.05,
2.271,-0.17,0.19,0.77,-0.04,0.13,1.05,
2.273,-0.17,0.19,0.77,-0.04,0.13,1.04,
2.275,-0.17,0.19,0.77,-0.04,0.14,1.03,
2.275,-0.18,0.20,0.70,-0.04,0.14,1.03,
2.278,-0.18,0.20,0.70,-0.04,0.13,1.03,
2.28,-0.18,0.20,0.70,-0.04,0.13,1.02,
2.28,-0.13,0.20,0.59,-0.04,0.13,1.02,
2.282,-0.13,0.20,0.59,-0.03,0.13,1.02,
