
time,ax,ay,az,gFx,gFy,gFz,
0.002,0.13,0.02,-0.02,-0.09,0.11,0.97,
0.002,0.12,0.03,-0.02,-0.09,0.11,0.97,
0.002,0.12,0.03,-0.02,-0.09,0.11,0.97,
0.003,0.12,0.03,-0.02,-0.09,0.11,0.97,
0.003,0.11,0.02,-0.02,-0.09,0.11,0.97,
0.005,0.11,0.02,-0.02,-0.09,0.11,0.97,
0.007,0.11,0.02,-0.02,-0.09,0.11,0.97,
0.008,0.08,0.03,-0.01,-0.09,0.11,0.97,
0.01,0.08,0.03,-0.01,-0.09,0.11,0.97,
0.012,0.08,0.03,-0.01,-0.09,0.11,0.97,
0.013,0.06,0.01,-0.01,-0.09,0.11,0.97,
0.015,0.06,0.01,-0.01,-0.10,0.11,0.97,
0.017,0.06,0.01,-0.01,-0.10,0.11,0.97,
0.017,0.03,0.00,-0.02,-0.10,0.11,0.97,
0.02,0.03,0.00,-0.02,-0.10,0.11,0.97,
0.022,0.03,0.00,-0.02,-0.10,0.11,0.97,
0.022,-0.01,0.00,0.00,-0.10,0.11,0.97,
0.024,-0.01,0.00,0.00,-0.10,0.11,0.97,
0.027,-0.01,0.00,0.00,-0.11,0.11,0.98,
0.027,-0.04,0.02,0.01,-0.11,0.11,0.98,
0.029,-0.04,0.02,0.01,-0.11,0.11,0.98,
0.032,-0.04,0.02,0.01,-0.11,0.11,0.98,
0.032,-0.08,0.04,0.03,-0.11,0.11,0.98,
0.034,-0.08,0.04,0.03,-0.11,0.11,0.98,
0.037,-0.08,0.04,0.03,-0.10,0.11,0.98,
0.037,-0.08,0.03,0.07,-0.10,0.11,0.98,
0.039,-0.08,0.03,0.07,-0.10,0.11,0.98,
0.042,-0.08,0.03,0.07,-0.10,0.11,0.98,
0.042,-0.08,0.04,0.10,-0.10,0.11,0.98,
0.044,-0.08,0.04,0.10,-0.10,0.11,0.99,
0.047,-0.08,0.04,0.10,-0.10,0.11,0.99,
0.047,-0.05,0.02,0.12,-0.10,0.11,0.99,
0.05,-0.05,0.02,0.12,-0.10,0.11,0.99,
0.052,-0.05,0.02,0.12,-0.10,0.11,0.99,
0.052,-0.04,0.04,0.15,-0.10,0.11,0.99,
0.054,-0.04,0.04,0.15,-0.10,0.11,0.99,
0.057,-0.04,0.04,0.15,-0.10,0.12,0.99,
0.057,-0.03,0.05,0.16,-0.10,0.12,0.99,
0.059,-0.03,0.05,0.16,-0.10,0.11,0.99,
0.061,-0.03,0.05,0.16,-0.10,0.11,0.99,
0.061,-0.03,0.07,0.19,-0.10,0.11,0.99,
0.067,-0.03,0.07,0.19,-0.09,0.11,0.99,
0.068,-0.03,0.07,0.19,-0.09,0.11,0.99,
0.068,0.00,0.07,0.21,-0.09,0.11,0.99,
0.068,0.00,0.07,0.21,-0.09,0.11,0.99,
0.071,0.00,0.07,0.21,-0.09,0.11,0.99,
0.071,0.06,0.06,0.19,-0.09,0.11,0.99,
0.073,0.06,0.06,0.19,-0.09,0.11,0.99,
0.076,0.06,0.06,0.19,-0.09,0.11,0.99,
0.076,0.10,0.03,0.18,-0.09,0.11,0.99,
0.078,0.10,0.03,0.18,-0.09,0.11,0.99,
0.081,0.09,0.04,0.17,-0.09,0.11,0.99,
0.081,0.09,0.04,0.17,-0.09,0.11,0.98,
0.083,0.09,0.04,0.17,-0.09,0.11,0.98,
0.086,0.09,0.04,0.17,-0.09,0.11,0.98,
0.086,0.07,0.06,0.13,-0.09,0.11,0.98,
0.088,0.07,0.06,0.13,-0.09,0.12,0.98,
0.091,0.07,0.06,0.13,-0.09,0.12,0.98,
0.091,0.06,0.06,0.09,-0.09,0.12,0.98,
0.093,0.06,0.06,0.09,-0.09,0.11,0.98,
0.096,0.06,0.06,0.09,-0.09,0.11,0.97,
0.096,0.04,0.06,0.06,-0.09,0.11,0.97,
0.098,0.04,0.06,0.06,-0.09,0.11,0.97,
0.101,0.04,0.06,0.06,-0.10,0.11,0.97,
0.101,0.04,0.03,0.03,-0.10,0.11,0.97,
0.103,0.04,0.03,0.03,-0.10,0.11,0.97,
0.106,0.04,0.03,0.03,-0.10,0.11,0.97,
0.106,0.01,0.01,-0.02,-0.10,0.11,0.97,
0.108,0.01,0.01,-0.02,-0.10,0.11,0.97,
0.11,0.01,0.01,-0.02,-0.10,0.11,0.97,
0.11,-0.02,0.01,-0.04,-0.10,0.11,0.97,
0.113,-0.02,0.01,-0.04,-0.10,0.11,0.97,
0.116,-0.02,0.01,-0.04,-0.10,0.11,0.97,
0.116,-0.06,0.00,-0.07,-0.10,0.11,0.97,
0.118,-0.06,0.00,-0.07,-0.11,0.11,0.96,
0.121,-0.06,0.00,-0.07,-0.10,0.11,0.96,
0.121,-0.07,0.00,-0.06,-0.10,0.11,0.96,
0.122,-0.07,0.00,-0.06,-0.11,0.11,0.96,
0.125,-0.07,0.00,-0.06,-0.10,0.11,0.96,
0.125,-0.08,0.04,-0.10,-0.10,0.11,0.96,
0.127,-0.08,0.04,-0.10,-0.10,0.11,0.96,
0.131,-0.08,0.04,-0.10,-0.10,0.11,0.96,
0.131,-0.08,0.02,-0.11,-0.10,0.11,0.96,
0.132,-0.08,0.02,-0.11,-0.10,0.11,0.96,
0.135,-0.08,0.02,-0.11,-0.10,0.11,0.97,
0.135,-0.05,0.01,-0.10,-0.10,0.11,0.97,
0.137,-0.05,0.01,-0.10,-0.10,0.11,0.97,
0.14,-0.05,0.01,-0.10,-0.10,0.11,0.97,
0.14,-0.02,0.03,-0.06,-0.10,0.11,0.97,
0.142,-0.02,0.03,-0.06,-0.10,0.12,0.97,
0.145,-0.02,0.03,-0.06,-0.10,0.12,0.97,
0.145,-0.00,0.04,-0.03,-0.10,0.12,0.97,
0.147,-0.00,0.04,-0.03,-0.09,0.12,0.97,
0.15,-0.00,0.04,-0.03,-0.09,0.12,0.97,
0.15,0.01,0.06,-0.02,-0.09,0.12,0.97,
0.152,0.01,0.06,-0.02,-0.09,0.12,0.97,
0.154,0.01,0.06,-0.02,-0.09,0.11,0.98,
0.154,0.03,0.07,0.01,-0.09,0.11,0.98,
0.157,0.03,0.07,0.01,-0.09,0.11,0.98,
0.159,0.03,0.07,0.01,-0.08,0.11,0.98,
0.159,0.07,0.05,0.03,-0.08,0.11,0.98,
0.162,0.07,0.05,0.03,-0.08,0.11,0.98,
0.164,0.07,0.05,0.03,-0.08,0.11,0.97,
0.165,0.10,0.02,0.04,-0.08,0.11,0.97,
0.166,0.10,0.02,0.04,-0.08,0.11,0.97,
0.169,0.10,0.02,0.04,-0.08,0.11,0.97,
0.169,0.12,0.01,0.03,-0.08,0.11,0.97,
0.171,0.12,0.01,0.03,-0.08,0.11,0.97,
0.174,0.12,0.01,0.03,-0.08,0.11,0.97,
0.174,0.12,0.00,0.01,-0.08,0.11,0.97,
0.176,0.12,0.00,0.01,-0.08,0.11,0.97,
0.179,0.12,0.00,0.01,-0.08,0.11,0.97,
0.179,0.13,-0.00,-0.01,-0.08,0.11,0.97,
0.187,0.13,-0.00,-0.01,-0.08,0.11,0.97,
0.188,0.13,-0.00,-0.01,-0.08,0.11,0.97,
0.188,0.14,-0.02,-0.02,-0.08,0.11,0.97,
0.188,0.14,-0.02,-0.02,-0.09,0.11,0.97,
0.189,0.14,-0.02,-0.02,-0.09,0.11,0.97,
0.189,0.13,-0.02,-0.05,-0.09,0.11,0.97,
0.191,0.13,-0.02,-0.05,-0.09,0.11,0.97,
0.193,0.13,-0.02,-0.05,-0.09,0.11,0.97,
0.194,0.08,-0.01,-0.04,-0.09,0.11,0.97,
0.196,0.08,-0.01,-0.04,-0.09,0.11,0.97,
0.199,0.08,-0.01,-0.04,-0.10,0.11,0.97,
0.199,0.04,-0.00,-0.05,-0.10,0.11,0.97,
0.201,0.04,-0.00,-0.05,-0.10,0.11,0.97,
0.203,0.04,-0.00,-0.05,-0.10,0.11,0.97,
0.204,-0.01,0.01,-0.03,-0.10,0.11,0.97,
0.206,-0.01,0.01,-0.03,-0.10,0.11,0.97,
0.208,-0.01,0.01,-0.03,-0.10,0.12,0.97,
0.209,-0.02,0.02,-0.00,-0.10,0.12,0.97,
0.21,-0.02,0.02,-0.00,-0.10,0.11,0.97,
0.213,-0.02,0.02,-0.00,-0.10,0.11,0.97,
0.214,-0.02,0.03,-0.01,-0.10,0.11,0.97,
0.215,-0.02,0.03,-0.01,-0.10,0.11,0.97,
0.218,-0.02,0.03,-0.01,-0.10,0.11,0.98,
0.218,-0.03,0.01,0.00,-0.10,0.11,0.98,
0.22,-0.03,0.01,0.00,-0.10,0.11,0.98,
0.223,-0.03,0.01,0.00,-0.10,0.11,0.98,
0.223,-0.05,0.00,0.04,-0.10,0.11,0.98,
0.225,-0.05,0.00,0.04,-0.10,0.11,0.98,
0.228,-0.05,0.00,0.04,-0.10,0.11,0.98,
0.228,-0.05,0.01,0.05,-0.10,0.11,0.98,
0.23,-0.05,0.01,0.05,-0.09,0.11,0.98,
0.233,-0.05,0.01,0.05,-0.10,0.11,0.98,
0.233,-0.04,0.01,0.06,-0.10,0.11,0.98,
0.235,-0.04,0.01,0.06,-0.10,0.11,0.98,
0.238,-0.04,0.01,0.06,-0.10,0.11,0.98,
0.238,-0.02,-0.01,0.07,-0.10,0.11,0.98,
0.24,-0.02,-0.01,0.07,-0.10,0.11,0.98,
0.243,-0.02,-0.01,0.07,-0.10,0.11,0.97,
0.243,-0.03,-0.00,0.05,-0.10,0.11,0.97,
0.245,-0.03,-0.00,0.05,-0.10,0.11,0.97,
0.247,-0.03,-0.00,0.05,-0.10,0.11,0.97,
0.248,-0.05,-0.01,0.04,-0.10,0.11,0.97,
0.25,-0.05,-0.01,0.04,-0.10,0.11,0.97,
0.252,-0.05,-0.01,0.04,-0.10,0.11,0.97,
0.253,-0.04,-0.01,0.01,-0.10,0.11,0.97,
0.254,-0.04,-0.01,0.01,-0.10,0.11,0.97,
0.257,-0.04,-0.01,0.01,-0.10,0.11,0.97,
0.257,-0.03,-0.03,-0.02,-0.10,0.11,0.97,
0.26,-0.03,-0.03,-0.02,-0.10,0.11,0.97,
0.262,-0.03,-0.03,-0.02,-0.10,0.11,0.97,
0.262,-0.06,-0.02,-0.03,-0.10,0.11,0.97,
0.27,-0.06,-0.02,-0.03,-0.10,0.11,0.96,
0.27,-0.06,-0.02,-0.03,-0.10,0.11,0.96,
0.271,-0.07,-0.02,-0.05,-0.10,0.11,0.96,
0.271,-0.07,-0.02,-0.05,-0.10,0.11,0.96,
0.272,-0.07,-0.02,-0.05,-0.10,0.11,0.96,
0.272,-0.04,-0.03,-0.07,-0.10,0.11,0.96,
0.274,-0.04,-0.03,-0.07,-0.10,0.11,0.96,
0.277,-0.04,-0.03,-0.07,-0.09,0.11,0.96,
0.277,-0.02,-0.06,-0.08,-0.09,0.11,0.96,
0.279,-0.02,-0.06,-0.08,-0.09,0.11,0.96,
0.282,-0.02,-0.06,-0.08,-0.09,0.11,0.96,
0.282,-0.01,-0.05,-0.09,-0.09,0.11,0.96,
0.284,-0.01,-0.05,-0.09,-0.09,0.11,0.96,
0.287,-0.01,-0.05,-0.09,-0.09,0.11,0.96,
0.287,0.02,-0.04,-0.09,-0.09,0.11,0.96,
0.289,0.02,-0.04,-0.09,-0.09,0.11,0.97,
0.291,0.02,-0.04,-0.09,-0.09,0.11,0.97,
0.292,0.01,-0.03,-0.07,-0.09,0.11,0.97,
0.294,0.01,-0.03,-0.07,-0.09,0.11,0.97,
0.297,0.01,-0.03,-0.07,-0.09,0.11,0.97,
0.297,0.01,0.00,-0.04,-0.09,0.11,0.97,
0.299,0.01,0.00,-0.04,-0.09,0.11,0.97,
0.301,0.01,0.00,-0.04,-0.09,0.11,0.97,
0.301,0.02,-0.00,-0.03,-0.09,0.11,0.97,
0.304,0.02,-0.00,-0.03,-0.09,0.11,0.97,
0.306,0.02,-0.00,-0.03,-0.09,0.11,0.97,
0.306,0.01,-0.02,-0.01,-0.09,0.11,0.97,
0.308,0.01,-0.02,-0.01,-0.09,0.11,0.97,
0.311,0.01,-0.02,-0.01,-0.09,0.11,0.98,
0.311,0.01,-0.02,0.01,-0.09,0.11,0.98,
0.314,0.01,-0.02,0.01,-0.10,0.11,0.98,
0.317,0.01,-0.02,0.01,-0.10,0.11,0.98,
0.318,-0.01,-0.01,0.04,-0.10,0.11,0.98,
0.32,-0.01,-0.01,0.04,-0.10,0.11,0.98,
0.321,-0.01,-0.01,0.04,-0.10,0.11,0.98,
0.321,-0.04,-0.01,0.06,-0.10,0.11,0.98,
0.323,-0.04,-0.01,0.06,-0.10,0.11,0.98,
0.326,-0.04,-0.01,0.06,-0.10,0.11,0.98,
0.326,-0.04,-0.01,0.09,-0.10,0.11,0.98,
0.328,-0.04,-0.01,0.09,-0.10,0.11,0.98,
0.331,-0.04,-0.01,0.09,-0.09,0.11,0.98,
0.331,-0.05,-0.03,0.11,-0.09,0.11,0.98,
0.333,-0.05,-0.03,0.11,-0.10,0.11,0.98,
0.336,-0.05,-0.03,0.11,-0.10,0.11,0.98,
0.336,-0.03,-0.03,0.12,-0.10,0.11,0.98,
0.338,-0.03,-0.03,0.12,-0.10,0.11,0.98,
0.34,-0.03,-0.03,0.12,-0.10,0.11,0.98,
0.34,-0.04,-0.04,0.12,-0.10,0.11,0.98,
0.343,-0.04,-0.04,0.12,-0.10,0.11,0.98,
0.346,-0.04,-0.04,0.12,-0.10,0.11,0.98,
0.346,-0.05,-0.06,0.09,-0.10,0.11,0.98,
0.348,-0.05,-0.06,0.09,-0.10,0.11,0.98,
0.35,-0.05,-0.06,0.09,-0.10,0.11,0.98,
0.35,-0.05,-0.03,0.07,-0.10,0.11,0.98,
0.353,-0.05,-0.03,0.07,-0.10,0.11,0.97,
0.355,-0.05,-0.03,0.07,-0.10,0.11,0.97,
0.355,-0.04,0.00,0.04,-0.10,0.11,0.97,
0.357,-0.04,0.00,0.04,-0.10,0.11,0.97,
0.36,-0.04,0.00,0.04,-0.09,0.11,0.97,
0.36,-0.04,-0.01,0.02,-0.09,0.11,0.97,
0.366,-0.04,-0.01,0.02,-0.09,0.11,0.97,
0.366,-0.04,-0.01,0.02,-0.09,0.11,0.97,
0.366,-0.02,-0.00,-0.01,-0.09,0.11,0.97,
0.367,-0.02,-0.00,-0.01,-0.09,0.11,0.97,
0.37,-0.02,-0.00,-0.01,-0.09,0.11,0.97,
0.37,0.00,-0.01,-0.02,-0.09,0.11,0.97,
0.372,0.00,-0.01,-0.02,-0.09,0.12,0.97,
0.375,0.00,-0.01,-0.02,-0.09,0.12,0.97,
0.375,0.01,0.01,-0.04,-0.09,0.12,0.97,
0.377,0.01,0.01,-0.04,-0.09,0.12,0.97,
0.38,0.01,0.01,-0.04,-0.09,0.12,0.97,
0.38,0.05,0.02,-0.04,-0.09,0.12,0.97,
0.382,0.05,0.02,-0.04,-0.09,0.12,0.96,
0.384,0.05,0.02,-0.04,-0.09,0.12,0.96,
0.385,0.06,0.02,-0.05,-0.09,0.12,0.96,
0.387,0.06,0.02,-0.05,-0.09,0.12,0.96,
0.389,0.06,0.02,-0.05,-0.08,0.12,0.96,
0.389,0.07,0.03,-0.08,-0.08,0.12,0.96,
0.392,0.07,0.03,-0.08,-0.09,0.12,0.96,
0.394,0.07,0.03,-0.08,-0.08,0.11,0.96,
0.394,0.07,0.03,-0.08,-0.08,0.11,0.96,
0.397,0.07,0.03,-0.08,-0.09,0.12,0.97,
0.399,0.07,0.03,-0.08,-0.09,0.12,0.97,
0.399,0.07,0.01,-0.07,-0.09,0.12,0.97,
0.401,0.07,0.01,-0.07,-0.09,0.12,0.97,
0.404,0.06,0.02,-0.04,-0.09,0.12,0.97,
0.404,0.06,0.02,-0.04,-0.09,0.11,0.97,
0.406,0.06,0.02,-0.04,-0.09,0.11,0.97,
0.409,0.06,0.02,-0.04,-0.09,0.12,0.97,
0.409,0.03,0.01,-0.01,-0.09,0.12,0.97,
0.411,0.03,0.01,-0.01,-0.10,0.11,0.98,
0.414,0.03,0.01,-0.01,-0.10,0.11,0.98,
0.414,-0.00,0.00,0.02,-0.10,0.11,0.98,
0.416,-0.00,0.00,0.02,-0.10,0.11,0.98,
0.419,-0.00,0.00,0.02,-0.10,0.11,0.98,
0.419,-0.04,-0.01,0.05,-0.10,0.11,0.98,
0.421,-0.04,-0.01,0.05,-0.10,0.11,0.98,
0.424,-0.04,-0.01,0.05,-0.10,0.11,0.98,
0.424,-0.06,-0.03,0.07,-0.10,0.11,0.98,
0.426,-0.06,-0.03,0.07,-0.10,0.11,0.98,
0.429,-0.06,-0.03,0.07,-0.10,0.11,0.98,
0.429,-0.10,-0.03,0.09,-0.10,0.11,0.98,
0.431,-0.10,-0.03,0.09,-0.10,0.11,0.98,
0.433,-0.10,-0.03,0.09,-0.10,0.11,0.98,
0.434,-0.11,-0.04,0.08,-0.10,0.11,0.98,
0.436,-0.11,-0.04,0.08,-0.10,0.11,0.98,
0.438,-0.11,-0.04,0.08,-0.10,0.11,0.98,
0.438,-0.11,-0.04,0.08,-0.10,0.11,0.98,
0.441,-0.11,-0.04,0.08,-0.10,0.10,0.98,
0.443,-0.11,-0.04,0.08,-0.10,0.10,0.97,
0.444,-0.12,-0.07,0.05,-0.10,0.10,0.97,
0.446,-0.12,-0.07,0.05,-0.10,0.10,0.97,
0.448,-0.12,-0.07,0.05,-0.10,0.10,0.97,
0.449,-0.10,-0.10,0.02,-0.10,0.10,0.97,
0.45,-0.10,-0.10,0.02,-0.10,0.11,0.96,
0.453,-0.10,-0.10,0.02,-0.10,0.10,0.96,
0.453,-0.07,-0.12,-0.03,-0.10,0.10,0.96,
0.455,-0.07,-0.12,-0.03,-0.10,0.10,0.96,
0.458,-0.07,-0.12,-0.03,-0.10,0.11,0.96,
0.458,-0.05,-0.10,-0.09,-0.10,0.11,0.96,
0.46,-0.05,-0.10,-0.09,-0.09,0.11,0.96,
0.463,-0.05,-0.10,-0.09,-0.09,0.11,0.95,
0.464,-0.04,-0.10,-0.13,-0.09,0.11,0.95,
0.465,-0.04,-0.10,-0.13,-0.09,0.10,0.95,
0.468,-0.04,-0.10,-0.13,-0.09,0.11,0.95,
0.468,-0.02,-0.09,-0.16,-0.09,0.11,0.95,
0.47,-0.02,-0.09,-0.16,-0.09,0.11,0.95,
0.473,-0.02,-0.09,-0.16,-0.09,0.11,0.94,
0.473,-0.00,-0.10,-0.23,-0.09,0.11,0.94,
0.475,-0.00,-0.10,-0.23,-0.08,0.11,0.94,
0.477,0.06,-0.09,-0.26,-0.08,0.11,0.94,
0.478,0.06,-0.09,-0.26,-0.08,0.11,0.94,
0.483,0.06,-0.09,-0.26,-0.08,0.11,0.95,
0.483,0.06,-0.09,-0.26,-0.08,0.12,0.95,
0.483,0.11,-0.05,-0.26,-0.08,0.12,0.95,
0.485,0.11,-0.05,-0.26,-0.08,0.12,0.95,
0.487,0.11,-0.05,-0.26,-0.08,0.12,0.95,
0.488,0.12,-0.01,-0.23,-0.08,0.12,0.95,
0.49,0.12,-0.01,-0.23,-0.08,0.12,0.95,
0.492,0.12,-0.01,-0.23,-0.08,0.12,0.96,
0.493,0.13,0.04,-0.19,-0.08,0.12,0.96,
0.495,0.13,0.04,-0.19,-0.08,0.12,0.96,
0.498,0.13,0.04,-0.19,-0.08,0.12,0.96,
0.498,0.14,0.08,-0.14,-0.08,0.12,0.96,
0.5,0.14,0.08,-0.14,-0.07,0.12,0.96,
0.502,0.14,0.08,-0.14,-0.08,0.12,0.97,
0.502,0.14,0.07,-0.10,-0.08,0.12,0.97,
0.504,0.14,0.07,-0.10,-0.08,0.12,0.97,
0.507,0.14,0.07,-0.10,-0.08,0.12,0.97,
0.507,0.15,0.10,-0.04,-0.08,0.12,0.97,
0.509,0.15,0.10,-0.04,-0.08,0.12,0.98,
0.512,0.15,0.10,-0.04,-0.08,0.13,0.98,
0.512,0.11,0.09,0.02,-0.08,0.13,0.98,
0.514,0.11,0.09,0.02,-0.08,0.12,0.98,
0.517,0.11,0.09,0.02,-0.09,0.12,0.98,
0.52,0.09,0.10,0.05,-0.09,0.12,0.98,
0.52,0.09,0.10,0.05,-0.09,0.12,0.98,
0.522,0.09,0.10,0.05,-0.09,0.12,0.98,
0.522,0.04,0.09,0.08,-0.09,0.12,0.98,
0.524,0.04,0.09,0.08,-0.09,0.12,0.98,
0.526,0.04,0.09,0.08,-0.09,0.12,0.98,
0.527,-0.01,0.04,0.09,-0.09,0.12,0.98,
0.53,-0.01,0.04,0.09,-0.09,0.11,0.98,
0.532,-0.01,0.04,0.09,-0.09,0.11,0.98,
0.532,-0.03,0.01,0.08,-0.09,0.11,0.98,
0.534,-0.03,0.01,0.08,-0.09,0.11,0.98,
0.536,-0.03,0.01,0.08,-0.09,0.11,0.98,
0.537,-0.02,-0.03,0.07,-0.09,0.11,0.98,
0.538,-0.02,-0.03,0.07,-0.09,0.11,0.98,
0.541,-0.02,-0.03,0.07,-0.09,0.11,0.97,
0.541,-0.04,-0.05,0.06,-0.09,0.11,0.97,
0.543,-0.04,-0.05,0.06,-0.09,0.11,0.97,
0.546,-0.04,-0.05,0.06,-0.09,0.11,0.97,
0.547,-0.04,-0.05,0.05,-0.09,0.11,0.97,
0.549,-0.04,-0.05,0.05,-0.10,0.11,0.97,
0.551,-0.04,-0.05,0.05,-0.09,0.11,0.97,
0.551,-0.05,-0.04,0.03,-0.09,0.11,0.97,
0.553,-0.05,-0.04,0.03,-0.09,0.11,0.97,
0.556,-0.05,-0.04,0.03,-0.09,0.11,0.97,
0.556,-0.06,-0.05,0.03,-0.09,0.11,0.97,
0.558,-0.06,-0.05,0.03,-0.10,0.11,0.97,
0.561,-0.06,-0.05,0.03,-0.10,0.11,0.97,
0.561,-0.04,-0.05,0.00,-0.10,0.11,0.97,
0.563,-0.04,-0.05,0.00,-0.10,0.11,0.97,
0.566,-0.04,-0.05,0.00,-0.10,0.11,0.97,
0.566,-0.07,-0.06,0.01,-0.10,0.11,0.97,
0.568,-0.07,-0.06,0.01,-0.10,0.11,0.97,
0.571,-0.07,-0.06,0.01,-0.10,0.11,0.97,
0.571,-0.08,-0.06,0.01,-0.10,0.11,0.97,
0.573,-0.08,-0.06,0.01,-0.10,0.11,0.97,
0.575,-0.08,-0.06,0.01,-0.10,0.11,0.97,
0.576,-0.08,-0.05,-0.01,-0.10,0.11,0.97,
0.578,-0.08,-0.05,-0.01,-0.10,0.11,0.97,
0.585,-0.08,-0.05,-0.01,-0.10,0.12,0.97,
0.586,-0.09,-0.04,-0.01,-0.10,0.12,0.97,
0.586,-0.09,-0.04,-0.01,-0.09,0.12,0.97,
0.586,-0.09,-0.04,-0.01,-0.10,0.12,0.97,
0.586,-0.07,-0.02,-0.02,-0.10,0.12,0.97,
0.588,-0.07,-0.02,-0.02,-0.10,0.12,0.97,
0.59,-0.07,-0.02,-0.02,-0.10,0.12,0.97,
0.59,-0.08,-0.01,0.00,-0.10,0.12,0.97,
0.592,-0.08,-0.01,0.00,-0.10,0.12,0.97,
0.595,-0.08,-0.01,0.00,-0.10,0.12,0.98,
0.595,-0.09,0.02,0.02,-0.10,0.12,0.98,
0.599,-0.09,0.02,0.02,-0.10,0.12,0.98,
0.6,-0.09,0.02,0.02,-0.10,0.12,0.98,
0.6,-0.12,0.03,0.03,-0.10,0.12,0.98,
0.603,-0.12,0.03,0.03,-0.10,0.12,0.98,
0.605,-0.12,0.03,0.03,-0.10,0.12,0.98,
0.605,-0.11,0.06,0.06,-0.10,0.12,0.98,
0.607,-0.11,0.06,0.06,-0.10,0.12,0.98,
0.609,-0.11,0.06,0.06,-0.09,0.12,0.98,
0.61,-0.11,0.05,0.09,-0.09,0.12,0.98,
0.612,-0.11,0.05,0.09,-0.09,0.12,0.98,
0.615,-0.11,0.05,0.09,-0.09,0.12,0.98,
0.615,-0.08,0.03,0.10,-0.09,0.12,0.98,
0.617,-0.08,0.03,0.10,-0.09,0.12,0.98,
0.62,-0.08,0.03,0.10,-0.09,0.12,0.98,
0.62,-0.07,0.04,0.09,-0.09,0.12,0.98,
0.622,-0.07,0.04,0.09,-0.09,0.12,0.98,
0.624,-0.07,0.04,0.09,-0.09,0.12,0.98,
0.624,-0.04,0.04,0.07,-0.09,0.12,0.98,
0.626,-0.04,0.04,0.07,-0.09,0.12,0.97,
0.629,-0.04,0.04,0.07,-0.09,0.12,0.97,
0.63,-0.03,0.01,0.05,-0.09,0.12,0.97,
0.632,-0.03,0.01,0.05,-0.09,0.12,0.97,
0.634,-0.03,0.01,0.05,-0.08,0.12,0.97,
0.634,-0.02,0.03,0.02,-0.08,0.12,0.97,
0.637,-0.02,0.03,0.02,-0.08,0.13,0.97,
0.639,-0.02,0.03,0.02,-0.08,0.13,0.96,
0.639,0.01,0.05,0.01,-0.08,0.13,0.96,
0.641,0.01,0.05,0.01,-0.08,0.13,0.96,
0.644,0.01,0.05,0.01,-0.08,0.13,0.97,
0.644,0.05,0.07,-0.05,-0.08,0.13,0.97,
0.646,0.05,0.07,-0.05,-0.08,0.13,0.96,
0.649,0.05,0.07,-0.05,-0.08,0.13,0.97,
0.649,0.05,0.09,-0.07,-0.08,0.13,0.97,
0.651,0.05,0.09,-0.07,-0.08,0.13,0.97,
0.654,0.05,0.09,-0.07,-0.08,0.13,0.96,
0.654,0.05,0.07,-0.06,-0.08,0.13,0.96,
0.656,0.05,0.07,-0.06,-0.08,0.13,0.97,
0.659,0.05,0.07,-0.06,-0.09,0.13,0.97,
0.659,0.02,0.09,-0.05,-0.09,0.13,0.97,
0.661,0.02,0.09,-0.05,-0.09,0.13,0.96,
0.664,0.02,0.09,-0.05,-0.09,0.13,0.97,
0.665,0.01,0.06,-0.06,-0.09,0.13,0.97,
0.666,0.01,0.06,-0.06,-0.09,0.13,0.97,
0.669,0.01,0.06,-0.06,-0.09,0.12,0.97,
0.669,-0.01,0.07,-0.06,-0.09,0.12,0.97,
0.671,-0.01,0.07,-0.06,-0.09,0.12,0.97,
0.673,-0.01,0.07,-0.06,-0.09,0.12,0.97,
0.674,-0.03,0.05,-0.03,-0.09,0.12,0.97,
0.676,-0.03,0.05,-0.03,-0.10,0.12,0.97,
0.685,-0.03,0.05,-0.03,-0.10,0.12,0.97,
0.685,-0.07,0.04,-0.03,-0.10,0.12,0.97,
0.687,-0.07,0.04,-0.03,-0.10,0.12,0.97,
0.687,-0.07,0.04,-0.03,-0.10,0.12,0.97,
0.687,-0.13,0.04,-0.02,-0.10,0.12,0.97,
0.687,-0.13,0.04,-0.02,-0.10,0.12,0.97,
0.688,-0.13,0.04,-0.02,-0.10,0.12,0.97,
0.688,-0.14,0.02,0.02,-0.10,0.12,0.97,
0.69,-0.14,0.02,0.02,-0.10,0.12,0.97,
0.693,-0.14,0.02,0.02,-0.10,0.12,0.98,
0.693,-0.16,0.01,0.02,-0.10,0.12,0.98,
0.695,-0.16,0.01,0.02,-0.11,0.12,0.98,
0.698,-0.16,0.01,0.02,-0.11,0.12,0.98,
0.698,-0.19,-0.01,0.06,-0.11,0.12,0.98,
0.7,-0.19,-0.01,0.06,-0.11,0.12,0.98,
0.703,-0.19,-0.01,0.06,-0.11,0.11,0.98,
0.703,-0.22,-0.03,0.08,-0.11,0.11,0.98,
0.705,-0.22,-0.03,0.08,-0.11,0.11,0.98,
0.708,-0.22,-0.03,0.08,-0.11,0.11,0.98,
0.708,-0.22,-0.04,0.11,-0.11,0.11,0.98,
0.71,-0.22,-0.04,0.11,-0.11,0.11,0.99,
0.712,-0.22,-0.04,0.11,-0.10,0.11,0.99,
0.713,-0.22,-0.05,0.12,-0.10,0.11,0.99,
0.715,-0.22,-0.05,0.12,-0.10,0.11,0.99,
0.717,-0.22,-0.05,0.12,-0.10,0.11,0.99,
0.718,-0.19,-0.06,0.14,-0.10,0.11,0.99,
0.72,-0.19,-0.06,0.14,-0.10,0.11,0.99,
0.722,-0.19,-0.06,0.14,-0.10,0.11,0.99,
0.723,-0.18,-0.09,0.14,-0.10,0.11,0.99,
0.724,-0.18,-0.09,0.14,-0.11,0.11,0.98,
0.727,-0.18,-0.09,0.14,-0.11,0.11,0.98,
0.727,-0.17,-0.08,0.14,-0.11,0.11,0.98,
0.73,-0.17,-0.08,0.14,-0.11,0.11,0.98,
0.732,-0.17,-0.08,0.14,-0.11,0.11,0.98,
0.733,-0.19,-0.08,0.11,-0.11,0.11,0.98,
0.735,-0.19,-0.08,0.11,-0.11,0.11,0.98,
0.737,-0.19,-0.08,0.11,-0.11,0.11,0.98,
0.737,-0.21,-0.07,0.09,-0.11,0.11,0.98,
0.739,-0.21,-0.07,0.09,-0.11,0.11,0.98,
0.742,-0.21,-0.07,0.09,-0.11,0.11,0.98,
0.742,-0.24,-0.06,0.08,-0.11,0.11,0.98,
0.744,-0.24,-0.06,0.08,-0.11,0.11,0.98,
0.747,-0.24,-0.06,0.08,-0.12,0.11,0.98,
0.748,-0.24,-0.07,0.06,-0.12,0.11,0.98,
0.749,-0.24,-0.07,0.06,-0.11,0.11,0.98,
0.752,-0.24,-0.07,0.06,-0.11,0.11,0.98,
0.752,-0.27,-0.07,0.05,-0.11,0.11,0.98,
0.754,-0.27,-0.07,0.05,-0.11,0.11,0.97,
0.757,-0.27,-0.07,0.05,-0.12,0.11,0.98,
0.757,-0.26,-0.07,0.05,-0.12,0.11,0.98,
0.759,-0.26,-0.07,0.05,-0.11,0.11,0.98,
0.763,-0.26,-0.07,0.05,-0.12,0.11,0.98,
0.763,-0.27,-0.05,0.03,-0.12,0.11,0.98,
0.764,-0.27,-0.05,0.03,-0.12,0.11,0.98,
0.767,-0.27,-0.05,0.03,-0.12,0.11,0.98,
0.767,-0.27,-0.07,0.05,-0.12,0.11,0.98,
0.769,-0.27,-0.07,0.05,-0.12,0.11,0.98,
0.771,-0.27,-0.07,0.05,-0.12,0.11,0.98,
0.772,-0.30,-0.07,0.05,-0.12,0.11,0.98,
0.774,-0.30,-0.07,0.05,-0.12,0.11,0.97,
0.777,-0.30,-0.07,0.05,-0.12,0.11,0.97,
0.777,-0.29,-0.09,0.03,-0.12,0.11,0.97,
0.779,-0.29,-0.09,0.03,-0.12,0.10,0.97,
0.781,-0.29,-0.09,0.03,-0.12,0.11,0.97,
0.782,-0.31,-0.12,0.01,-0.12,0.11,0.97,
0.784,-0.31,-0.12,0.01,-0.12,0.10,0.97,
0.786,-0.31,-0.12,0.01,-0.12,0.11,0.97,
0.786,-0.29,-0.14,-0.00,-0.12,0.11,0.97,
0.788,-0.29,-0.14,-0.00,-0.13,0.11,0.97,
0.791,-0.29,-0.14,-0.00,-0.12,0.11,0.97,
0.792,-0.31,-0.13,-0.04,-0.12,0.11,0.97,
0.793,-0.31,-0.13,-0.04,-0.13,0.10,0.97,
0.802,-0.31,-0.13,-0.04,-0.13,0.10,0.97,
0.802,-0.34,-0.13,-0.04,-0.13,0.10,0.97,
0.802,-0.34,-0.13,-0.04,-0.13,0.10,0.97,
0.803,-0.34,-0.13,-0.04,-0.13,0.10,0.97,
0.803,-0.35,-0.15,-0.05,-0.13,0.10,0.97,
0.803,-0.35,-0.15,-0.05,-0.13,0.10,0.97,
0.806,-0.35,-0.15,-0.05,-0.13,0.10,0.97,
0.806,-0.37,-0.14,-0.04,-0.13,0.10,0.97,
0.808,-0.37,-0.14,-0.04,-0.14,0.10,0.97,
0.811,-0.37,-0.14,-0.04,-0.14,0.11,0.97,
0.811,-0.41,-0.14,-0.03,-0.14,0.11,0.97,
0.818,-0.41,-0.14,-0.03,-0.14,0.10,0.97,
0.818,-0.41,-0.14,-0.03,-0.14,0.10,0.97,
0.818,-0.44,-0.13,-0.04,-0.14,0.10,0.97,
0.818,-0.44,-0.13,-0.04,-0.14,0.10,0.97,
0.82,-0.44,-0.13,-0.04,-0.14,0.10,0.97,
0.82,-0.46,-0.15,-0.04,-0.14,0.10,0.97,
0.822,-0.46,-0.15,-0.04,-0.14,0.10,0.97,
0.826,-0.46,-0.15,-0.04,-0.14,0.10,0.97,
0.826,-0.47,-0.18,-0.02,-0.14,0.10,0.97,
0.827,-0.47,-0.18,-0.02,-0.15,0.10,0.97,
0.83,-0.47,-0.18,-0.02,-0.15,0.10,0.97,
0.831,-0.49,-0.16,-0.02,-0.15,0.10,0.97,
0.833,-0.49,-0.16,-0.02,-0.15,0.10,0.97,
0.835,-0.49,-0.16,-0.02,-0.15,0.10,0.97,
0.836,-0.52,-0.16,-0.00,-0.15,0.10,0.97,
0.837,-0.52,-0.16,-0.00,-0.15,0.10,0.97,
0.84,-0.52,-0.16,-0.00,-0.15,0.10,0.97,
0.84,-0.55,-0.18,-0.03,-0.15,0.10,0.97,
0.842,-0.55,-0.18,-0.03,-0.15,0.10,0.97,
0.846,-0.55,-0.18,-0.03,-0.15,0.10,0.96,
0.846,-0.55,-0.20,-0.03,-0.15,0.10,0.96,
0.847,-0.55,-0.20,-0.03,-0.15,0.10,0.96,
0.85,-0.55,-0.20,-0.03,-0.15,0.10,0.96,
0.85,-0.52,-0.20,-0.06,-0.15,0.10,0.96,
0.852,-0.52,-0.20,-0.06,-0.15,0.10,0.96,
0.855,-0.52,-0.20,-0.06,-0.16,0.10,0.96,
0.855,-0.54,-0.21,-0.08,-0.16,0.10,0.96,
0.857,-0.54,-0.21,-0.08,-0.16,0.10,0.96,
0.86,-0.54,-0.21,-0.08,-0.15,0.10,0.96,
0.86,-0.57,-0.18,-0.08,-0.15,0.10,0.96,
0.862,-0.57,-0.18,-0.08,-0.15,0.10,0.95,
0.865,-0.57,-0.18,-0.08,-0.15,0.10,0.95,
0.865,-0.56,-0.16,-0.12,-0.15,0.10,0.95,
0.867,-0.56,-0.16,-0.12,-0.14,0.10,0.95,
0.869,-0.56,-0.16,-0.12,-0.14,0.10,0.95,
0.87,-0.50,-0.17,-0.16,-0.14,0.10,0.95,
0.872,-0.50,-0.17,-0.16,-0.14,0.10,0.95,
0.874,-0.45,-0.19,-0.18,-0.14,0.10,0.95,
0.875,-0.45,-0.19,-0.18,-0.14,0.10,0.95,
0.877,-0.45,-0.19,-0.18,-0.15,0.10,0.95,
0.88,-0.45,-0.19,-0.18,-0.14,0.10,0.95,
0.88,-0.43,-0.20,-0.20,-0.14,0.10,0.95,
0.882,-0.43,-0.20,-0.20,-0.15,0.10,0.95,
0.884,-0.43,-0.20,-0.20,-0.15,0.11,0.95,
0.885,-0.46,-0.18,-0.19,-0.15,0.11,0.95,
0.886,-0.46,-0.18,-0.19,-0.15,0.11,0.95,
0.889,-0.46,-0.18,-0.19,-0.15,0.10,0.95,
0.889,-0.50,-0.13,-0.20,-0.15,0.10,0.95,
0.891,-0.50,-0.13,-0.20,-0.16,0.10,0.95,
0.894,-0.50,-0.13,-0.20,-0.15,0.10,0.95,
0.895,-0.55,-0.14,-0.22,-0.15,0.10,0.95,
0.902,-0.55,-0.14,-0.22,-0.15,0.10,0.95,
0.902,-0.55,-0.14,-0.22,-0.15,0.10,0.95,
0.903,-0.55,-0.17,-0.23,-0.15,0.10,0.95,
0.903,-0.55,-0.17,-0.23,-0.16,0.10,0.95,
0.904,-0.55,-0.17,-0.23,-0.16,0.09,0.95,
0.904,-0.54,-0.21,-0.22,-0.16,0.09,0.95,
0.906,-0.54,-0.21,-0.22,-0.16,0.09,0.95,
0.909,-0.54,-0.21,-0.22,-0.16,0.09,0.95,
0.909,-0.58,-0.24,-0.22,-0.16,0.09,0.95,
0.919,-0.58,-0.24,-0.22,-0.16,0.09,0.95,
0.919,-0.58,-0.24,-0.22,-0.16,0.09,0.95,
0.919,-0.59,-0.26,-0.21,-0.16,0.09,0.95,
0.92,-0.59,-0.26,-0.21,-0.16,0.09,0.95,
0.92,-0.59,-0.26,-0.21,-0.16,0.09,0.95,
0.92,-0.61,-0.25,-0.21,-0.16,0.09,0.95,
0.921,-0.61,-0.25,-0.21,-0.16,0.09,0.95,
0.923,-0.61,-0.25,-0.21,-0.16,0.09,0.95,
0.923,-0.62,-0.24,-0.21,-0.16,0.09,0.95,
0.925,-0.62,-0.24,-0.21,-0.16,0.09,0.95,
0.928,-0.62,-0.24,-0.21,-0.16,0.09,0.95,
0.929,-0.61,-0.25,-0.18,-0.16,0.09,0.95,
0.93,-0.61,-0.25,-0.18,-0.16,0.09,0.96,
0.933,-0.59,-0.25,-0.15,-0.16,0.09,0.96,
0.935,-0.59,-0.25,-0.15,-0.16,0.09,0.96,
0.936,-0.59,-0.25,-0.15,-0.16,0.09,0.96,
0.938,-0.59,-0.25,-0.15,-0.17,0.09,0.96,
0.938,-0.62,-0.25,-0.11,-0.17,0.09,0.96,
0.94,-0.62,-0.25,-0.11,-0.17,0.09,0.96,
0.943,-0.62,-0.25,-0.11,-0.16,0.09,0.96,
0.943,-0.63,-0.23,-0.07,-0.16,0.09,0.96,
0.945,-0.63,-0.23,-0.07,-0.16,0.09,0.96,
0.948,-0.63,-0.23,-0.07,-0.16,0.09,0.96,
0.948,-0.61,-0.24,-0.05,-0.16,0.09,0.96,
0.95,-0.61,-0.24,-0.05,-0.16,0.09,0.96,
0.953,-0.61,-0.24,-0.05,-0.16,0.09,0.96,
0.953,-0.56,-0.25,-0.04,-0.16,0.09,0.96,
0.955,-0.56,-0.25,-0.04,-0.16,0.10,0.96,
0.957,-0.56,-0.25,-0.04,-0.16,0.10,0.96,
0.957,-0.57,-0.23,-0.05,-0.16,0.10,0.96,
0.96,-0.57,-0.23,-0.05,-0.16,0.10,0.96,
0.963,-0.57,-0.23,-0.05,-0.17,0.10,0.95,
0.963,-0.58,-0.21,-0.07,-0.17,0.10,0.95,
0.965,-0.58,-0.21,-0.07,-0.17,0.10,0.95,
0.967,-0.58,-0.21,-0.07,-0.17,0.10,0.95,
0.968,-0.60,-0.21,-0.12,-0.17,0.10,0.95,
0.969,-0.60,-0.21,-0.12,-0.17,0.09,0.95,
0.972,-0.60,-0.21,-0.12,-0.18,0.10,0.94,
0.972,-0.63,-0.21,-0.18,-0.18,0.10,0.94,
0.974,-0.63,-0.21,-0.18,-0.18,0.10,0.94,
0.977,-0.63,-0.21,-0.18,-0.19,0.10,0.94,
0.977,-0.69,-0.21,-0.23,-0.19,0.10,0.94,
0.984,-0.69,-0.21,-0.23,-0.19,0.10,0.94,
0.985,-0.69,-0.21,-0.23,-0.19,0.10,0.94,
0.985,-0.75,-0.17,-0.27,-0.19,0.10,0.94,
0.985,-0.75,-0.17,-0.27,-0.19,0.10,0.94,
0.987,-0.75,-0.17,-0.27,-0.20,0.10,0.94,
0.987,-0.80,-0.16,-0.29,-0.20,0.10,0.94,
0.989,-0.80,-0.16,-0.29,-0.19,0.10,0.94,
0.992,-0.80,-0.16,-0.29,-0.20,0.10,0.94,
0.992,-0.83,-0.14,-0.31,-0.20,0.10,0.94,
0.994,-0.83,-0.14,-0.31,-0.20,0.10,0.94,
0.997,-0.83,-0.14,-0.31,-0.20,0.10,0.94,
0.998,-0.84,-0.17,-0.30,-0.20,0.10,0.94,
0.999,-0.84,-0.17,-0.30,-0.21,0.09,0.94,
1.001,-0.84,-0.17,-0.30,-0.21,0.09,0.94,
1.002,-0.87,-0.21,-0.30,-0.21,0.09,0.94,
1.004,-0.87,-0.21,-0.30,-0.21,0.09,0.94,
1.006,-0.87,-0.21,-0.30,-0.21,0.09,0.94,
1.008,-0.93,-0.26,-0.27,-0.21,0.09,0.94,
1.009,-0.93,-0.26,-0.27,-0.22,0.08,0.95,
1.011,-0.93,-0.26,-0.27,-0.22,0.08,0.95,
1.012,-0.97,-0.29,-0.22,-0.22,0.08,0.95,
1.014,-0.97,-0.29,-0.22,-0.23,0.08,0.95,
1.016,-0.97,-0.29,-0.22,-0.23,0.07,0.95,
1.017,-1.04,-0.33,-0.18,-0.23,0.07,0.95,
1.018,-1.04,-0.33,-0.18,-0.23,0.07,0.95,
1.021,-1.09,-0.38,-0.16,-0.23,0.07,0.95,
1.021,-1.09,-0.38,-0.16,-0.23,0.07,0.95,
1.023,-1.09,-0.38,-0.16,-0.23,0.06,0.95,
1.026,-1.09,-0.38,-0.16,-0.23,0.06,0.95,
1.026,-1.10,-0.45,-0.13,-0.23,0.06,0.95,
1.028,-1.10,-0.45,-0.13,-0.23,0.06,0.96,
1.032,-1.10,-0.45,-0.13,-0.23,0.05,0.96,
1.032,-1.09,-0.50,-0.12,-0.23,0.05,0.96,
1.033,-1.09,-0.50,-0.12,-0.23,0.05,0.96,
1.036,-1.09,-0.50,-0.12,-0.23,0.05,0.96,
1.036,-1.08,-0.57,-0.08,-0.23,0.05,0.96,
1.038,-1.08,-0.57,-0.08,-0.23,0.05,0.96,
1.041,-1.08,-0.57,-0.08,-0.23,0.04,0.96,
1.041,-1.04,-0.62,-0.06,-0.23,0.04,0.96,
1.043,-1.04,-0.62,-0.06,-0.23,0.04,0.96,
1.046,-1.04,-0.62,-0.06,-0.23,0.04,0.96,
1.047,-1.03,-0.64,-0.03,-0.23,0.04,0.96,
1.048,-1.03,-0.64,-0.03,-0.23,0.04,0.96,
1.051,-1.03,-0.64,-0.03,-0.22,0.04,0.96,
1.051,-1.01,-0.67,-0.02,-0.22,0.04,0.96,
1.053,-1.01,-0.67,-0.02,-0.22,0.04,0.96,
1.055,-1.01,-0.67,-0.02,-0.22,0.04,0.96,
1.056,-0.98,-0.68,-0.04,-0.22,0.04,0.96,
1.058,-0.98,-0.68,-0.04,-0.22,0.04,0.96,
1.06,-0.98,-0.68,-0.04,-0.21,0.03,0.96,
1.06,-0.94,-0.70,-0.05,-0.21,0.03,0.96,
1.063,-0.94,-0.70,-0.05,-0.21,0.04,0.96,
1.065,-0.94,-0.70,-0.05,-0.21,0.04,0.96,
1.066,-0.86,-0.70,-0.05,-0.21,0.04,0.96,
1.067,-0.86,-0.70,-0.05,-0.21,0.03,0.96,
1.07,-0.86,-0.70,-0.05,-0.20,0.04,0.96,
1.07,-0.81,-0.70,-0.09,-0.20,0.04,0.96,
1.072,-0.81,-0.70,-0.09,-0.20,0.04,0.96,
1.075,-0.81,-0.70,-0.09,-0.19,0.04,0.96,
1.075,-0.72,-0.70,-0.09,-0.19,0.04,0.96,
1.08,-0.72,-0.70,-0.09,-0.19,0.04,0.96,
1.081,-0.72,-0.70,-0.09,-0.18,0.04,0.96,
1.081,-0.63,-0.69,-0.08,-0.18,0.04,0.96,
1.082,-0.63,-0.69,-0.08,-0.18,0.04,0.96,
1.085,-0.63,-0.69,-0.08,-0.18,0.04,0.96,
1.085,-0.53,-0.68,-0.09,-0.18,0.04,0.96,
1.087,-0.53,-0.68,-0.09,-0.18,0.04,0.95,
1.09,-0.53,-0.68,-0.09,-0.18,0.04,0.95,
1.09,-0.45,-0.67,-0.09,-0.18,0.04,0.95,
1.092,-0.45,-0.67,-0.09,-0.18,0.04,0.95,
1.094,-0.45,-0.67,-0.09,-0.18,0.04,0.95,
1.095,-0.44,-0.64,-0.11,-0.18,0.04,0.95,
1.097,-0.44,-0.64,-0.11,-0.18,0.05,0.95,
1.1,-0.45,-0.58,-0.14,-0.18,0.05,0.95,
1.101,-0.45,-0.58,-0.14,-0.19,0.05,0.94,
1.102,-0.45,-0.58,-0.14,-0.19,0.05,0.94,
1.104,-0.45,-0.58,-0.14,-0.19,0.05,0.94,
1.105,-0.50,-0.54,-0.19,-0.19,0.05,0.94,
1.107,-0.50,-0.54,-0.19,-0.19,0.05,0.94,
1.109,-0.50,-0.54,-0.19,-0.19,0.05,0.93,
1.11,-0.52,-0.52,-0.23,-0.19,0.05,0.93,
1.112,-0.52,-0.52,-0.23,-0.19,0.05,0.93,
1.114,-0.52,-0.52,-0.23,-0.19,0.05,0.93,
1.114,-0.54,-0.53,-0.28,-0.19,0.05,0.93,
1.117,-0.54,-0.53,-0.28,-0.20,0.04,0.92,
1.119,-0.54,-0.53,-0.28,-0.19,0.04,0.92,
1.12,-0.54,-0.54,-0.33,-0.19,0.04,0.92,
1.121,-0.54,-0.54,-0.33,-0.19,0.04,0.92,
1.124,-0.54,-0.54,-0.33,-0.19,0.04,0.91,
1.124,-0.54,-0.56,-0.41,-0.19,0.04,0.91,
1.126,-0.54,-0.56,-0.41,-0.19,0.03,0.91,
1.129,-0.54,-0.56,-0.41,-0.18,0.03,0.90,
1.13,-0.49,-0.60,-0.48,-0.18,0.03,0.90,
1.132,-0.49,-0.60,-0.48,-0.18,0.03,0.90,
1.134,-0.49,-0.60,-0.48,-0.17,0.03,0.90,
1.134,-0.43,-0.64,-0.56,-0.17,0.03,0.90,
1.136,-0.43,-0.64,-0.56,-0.17,0.03,0.90,
1.139,-0.43,-0.64,-0.56,-0.16,0.03,0.90,
1.139,-0.34,-0.66,-0.61,-0.16,0.03,0.90,
1.141,-0.34,-0.66,-0.61,-0.16,0.03,0.90,
1.144,-0.34,-0.66,-0.61,-0.16,0.03,0.90,
1.144,-0.24,-0.65,-0.58,-0.16,0.03,0.90,
1.146,-0.24,-0.65,-0.58,-0.15,0.04,0.90,
1.149,-0.24,-0.65,-0.58,-0.14,0.04,0.90,
1.149,-0.15,-0.62,-0.57,-0.14,0.04,0.90,
1.151,-0.15,-0.62,-0.57,-0.13,0.04,0.91,
1.153,-0.15,-0.62,-0.57,-0.12,0.04,0.91,
1.154,-0.02,-0.59,-0.55,-0.12,0.04,0.91,
1.156,-0.02,-0.59,-0.55,-0.11,0.04,0.91,
1.158,-0.02,-0.59,-0.55,-0.10,0.04,0.92,
1.159,0.16,-0.59,-0.49,-0.10,0.04,0.92,
1.161,0.16,-0.59,-0.49,-0.10,0.04,0.92,
1.163,0.16,-0.59,-0.49,-0.09,0.04,0.92,
1.164,0.35,-0.57,-0.43,-0.09,0.04,0.92,
1.166,0.35,-0.57,-0.43,-0.09,0.04,0.92,
1.168,0.35,-0.57,-0.43,-0.08,0.04,0.92,
1.169,0.49,-0.57,-0.41,-0.08,0.04,0.92,
1.171,0.49,-0.57,-0.41,-0.08,0.04,0.92,
1.173,0.49,-0.57,-0.41,-0.08,0.04,0.92,
1.173,0.57,-0.55,-0.41,-0.08,0.04,0.92,
1.175,0.57,-0.55,-0.41,-0.08,0.04,0.92,
1.178,0.57,-0.55,-0.41,-0.08,0.04,0.91,
1.179,0.60,-0.51,-0.41,-0.08,0.04,0.91,
1.18,0.60,-0.51,-0.41,-0.08,0.04,0.91,
1.183,0.60,-0.51,-0.41,-0.08,0.03,0.91,
1.183,0.59,-0.51,-0.41,-0.08,0.03,0.91,
1.185,0.59,-0.51,-0.41,-0.08,0.03,0.90,
1.188,0.59,-0.51,-0.41,-0.08,0.03,0.90,
1.188,0.61,-0.54,-0.46,-0.08,0.03,0.90,
1.19,0.61,-0.54,-0.46,-0.08,0.03,0.90,
1.193,0.61,-0.61,-0.52,-0.08,0.03,0.90,
1.193,0.61,-0.61,-0.52,-0.08,0.03,0.90,
1.201,0.61,-0.61,-0.52,-0.09,0.02,0.90,
1.201,0.61,-0.61,-0.52,-0.09,0.02,0.89,
1.202,0.58,-0.62,-0.54,-0.09,0.02,0.89,
1.202,0.58,-0.62,-0.54,-0.09,0.02,0.89,
1.203,0.58,-0.62,-0.54,-0.09,0.02,0.89,
1.203,0.54,-0.66,-0.59,-0.09,0.02,0.89,
1.205,0.54,-0.66,-0.59,-0.09,0.01,0.89,
1.207,0.54,-0.66,-0.59,-0.09,0.01,0.89,
1.208,0.52,-0.68,-0.62,-0.09,0.01,0.89,
1.21,0.52,-0.68,-0.62,-0.08,0.01,0.90,
1.218,0.52,-0.68,-0.62,-0.08,0.01,0.90,
1.218,0.53,-0.70,-0.59,-0.08,0.01,0.90,
1.219,0.53,-0.70,-0.59,-0.07,0.01,0.91,
1.219,0.58,-0.69,-0.53,-0.07,0.01,0.91,
1.219,0.58,-0.69,-0.53,-0.07,0.02,0.91,
1.22,0.58,-0.69,-0.53,-0.06,0.02,0.92,
1.222,0.58,-0.69,-0.53,-0.05,0.02,0.92,
1.223,0.67,-0.65,-0.44,-0.05,0.02,0.92,
1.224,0.67,-0.65,-0.44,-0.04,0.02,0.93,
1.227,0.67,-0.65,-0.44,-0.03,0.03,0.94,
1.228,0.81,-0.58,-0.33,-0.03,0.03,0.94,
1.229,0.81,-0.58,-0.33,-0.02,0.03,0.95,
1.232,0.81,-0.58,-0.33,-0.00,0.03,0.96,
1.232,1.01,-0.52,-0.18,-0.00,0.03,0.96,
1.234,1.01,-0.52,-0.18,0.01,0.03,0.96,
1.237,1.01,-0.52,-0.18,0.02,0.04,0.97,
1.237,1.24,-0.44,-0.02,0.02,0.04,0.97,
1.239,1.24,-0.44,-0.02,0.04,0.04,0.98,
1.242,1.51,-0.37,0.13,0.04,0.04,0.98,
1.242,1.51,-0.37,0.13,0.05,0.04,0.98,
1.244,1.51,-0.37,0.13,0.06,0.04,0.98,
1.247,1.51,-0.37,0.13,0.07,0.04,0.98,
1.247,1.77,-0.31,0.23,0.07,0.04,0.98,
1.249,1.77,-0.31,0.23,0.08,0.04,0.98,
1.251,1.77,-0.31,0.23,0.08,0.04,0.98,
1.251,1.98,-0.30,0.27,0.08,0.04,0.98,
1.254,1.98,-0.30,0.27,0.09,0.04,0.98,
1.256,1.98,-0.30,0.27,0.09,0.04,0.98,
1.256,2.12,-0.27,0.28,0.09,0.04,0.98,
1.258,2.12,-0.27,0.28,0.09,0.05,0.97,
1.262,2.12,-0.27,0.28,0.09,0.05,0.97,
1.263,2.21,-0.22,0.25,0.09,0.05,0.97,
1.264,2.21,-0.22,0.25,0.09,0.05,0.97,
1.266,2.21,-0.22,0.25,0.09,0.05,0.96,
1.267,2.22,-0.16,0.17,0.09,0.05,0.96,
1.268,2.22,-0.16,0.17,0.09,0.05,0.96,
1.271,2.22,-0.16,0.17,0.09,0.05,0.95,
1.271,2.20,-0.12,0.09,0.09,0.05,0.95,
1.273,2.20,-0.12,0.09,0.09,0.06,0.95,
1.276,2.20,-0.12,0.09,0.09,0.06,0.95,
1.276,2.24,-0.09,0.03,0.09,0.06,0.95,
1.278,2.24,-0.09,0.03,0.10,0.06,0.95,
1.281,2.24,-0.09,0.03,0.10,0.07,0.95,
1.281,2.25,-0.02,-0.03,0.10,0.07,0.95,
1.283,2.25,-0.02,-0.03,0.11,0.07,0.94,
1.286,2.25,-0.02,-0.03,0.12,0.07,0.95,
1.286,2.32,0.07,-0.08,0.12,0.07,0.95,
1.288,2.32,0.07,-0.08,0.13,0.08,0.95,
1.29,2.32,0.07,-0.08,0.14,0.08,0.95,
1.291,2.46,0.14,-0.09,0.14,0.08,0.95,
1.293,2.46,0.14,-0.09,0.15,0.09,0.95,
1.3,2.46,0.14,-0.09,0.16,0.09,0.96,
1.301,2.64,0.23,-0.06,0.16,0.09,0.96,
1.301,2.64,0.23,-0.06,0.17,0.10,0.96,
1.301,2.64,0.23,-0.06,0.18,0.11,0.97,
1.301,2.88,0.35,-0.00,0.18,0.11,0.97,
1.302,2.88,0.35,-0.00,0.19,0.11,0.97,
1.305,2.88,0.35,-0.00,0.20,0.12,0.98,
1.306,3.08,0.49,0.11,0.20,0.12,0.98,
1.307,3.08,0.49,0.11,0.21,0.12,0.99,
1.312,3.08,0.49,0.11,0.22,0.13,0.99,
1.312,3.23,0.64,0.22,0.22,0.13,0.99,
1.312,3.23,0.64,0.22,0.22,0.13,1.00,
1.315,3.23,0.64,0.22,0.23,0.14,1.00,
1.315,3.40,0.75,0.34,0.23,0.14,1.00,
1.317,3.40,0.75,0.34,0.23,0.14,1.00,
1.32,3.40,0.75,0.34,0.24,0.14,1.00,
1.32,3.54,0.84,0.41,0.24,0.14,1.00,
1.322,3.54,0.84,0.41,0.24,0.14,1.01,
1.325,3.54,0.84,0.41,0.25,0.14,1.01,
1.325,3.60,0.90,0.46,0.25,0.14,1.01,
1.327,3.60,0.90,0.46,0.25,0.14,1.02,
1.33,3.60,0.90,0.46,0.24,0.14,1.01,
1.33,3.71,0.93,0.50,0.24,0.14,1.01,
1.332,3.71,0.93,0.50,0.24,0.14,0.99,
1.335,3.71,0.93,0.50,0.25,0.13,0.99,
1.335,3.69,0.94,0.57,0.25,0.13,0.99,
1.337,3.69,0.94,0.57,0.26,0.12,1.00,
1.34,3.72,0.85,0.36,0.26,0.12,1.00,
1.34,3.72,0.85,0.36,0.26,0.11,1.00,
1.342,3.72,0.85,0.36,0.27,0.10,1.00,
1.344,3.84,0.68,0.46,0.27,0.10,1.00,
1.345,3.84,0.68,0.46,0.26,0.10,1.00,
1.347,3.84,0.68,0.46,0.26,0.09,1.00,
1.35,3.84,0.68,0.46,0.25,0.09,1.00,
1.35,3.85,0.55,0.44,0.25,0.09,1.00,
1.352,3.85,0.55,0.44,0.25,0.08,1.00,
1.354,3.85,0.55,0.44,0.25,0.08,1.00,
1.354,3.77,0.46,0.42,0.25,0.08,1.00,
1.357,3.77,0.46,0.42,0.24,0.07,1.00,
1.359,3.77,0.46,0.42,0.24,0.06,1.00,
1.359,3.68,0.38,0.39,0.24,0.06,1.00,
1.361,3.68,0.38,0.39,0.23,0.05,1.00,
1.365,3.68,0.38,0.39,0.22,0.05,1.00,
1.365,3.59,0.25,0.41,0.22,0.05,1.00,
1.366,3.59,0.25,0.41,0.22,0.04,1.00,
1.369,3.59,0.25,0.41,0.22,0.03,1.01,
1.369,3.47,0.12,0.44,0.22,0.03,1.01,
1.371,3.47,0.12,0.44,0.21,0.03,1.01,
1.374,3.47,0.12,0.44,0.20,0.02,1.01,
1.374,3.36,-0.02,0.48,0.20,0.02,1.01,
1.376,3.36,-0.02,0.48,0.20,0.01,1.02,
1.387,3.36,-0.02,0.48,0.19,0.01,1.02,
1.388,3.24,-0.13,0.54,0.19,0.01,1.02,
1.388,3.24,-0.13,0.54,0.18,-0.00,1.02,
1.388,3.24,-0.13,0.54,0.17,-0.01,1.02,
1.388,3.08,-0.25,0.58,0.17,-0.01,1.02,
1.389,3.08,-0.25,0.58,0.16,-0.01,1.02,
1.389,3.08,-0.25,0.58,0.15,-0.02,1.02,
1.389,2.91,-0.37,0.62,0.15,-0.02,1.02,
1.392,2.91,-0.37,0.62,0.14,-0.02,1.02,
1.401,2.91,-0.37,0.62,0.12,-0.02,1.02,
1.401,2.68,-0.47,0.62,0.12,-0.02,1.02,
1.402,2.68,-0.47,0.62,0.11,-0.03,1.02,
1.402,2.68,-0.47,0.62,0.10,-0.03,1.02,
1.402,2.44,-0.53,0.65,0.10,-0.03,1.02,
1.402,2.44,-0.53,0.65,0.09,-0.03,1.02,
1.403,2.44,-0.53,0.65,0.07,-0.04,1.02,
1.403,2.15,-0.58,0.62,0.07,-0.04,1.02,
1.405,2.15,-0.58,0.62,0.07,-0.04,1.02,
1.408,2.15,-0.58,0.62,0.06,-0.04,1.01,
1.408,1.91,-0.63,0.60,0.06,-0.04,1.01,
1.41,1.91,-0.63,0.60,0.05,-0.04,1.01,
1.413,1.91,-0.63,0.60,0.04,-0.04,1.01,
1.413,1.72,-0.66,0.55,0.04,-0.04,1.01,
1.415,1.72,-0.66,0.55,0.04,-0.05,1.01,
1.418,1.72,-0.66,0.55,0.04,-0.05,1.00,
1.418,1.56,-0.70,0.50,0.04,-0.05,1.00,
1.42,1.56,-0.70,0.50,0.04,-0.04,1.00,
1.422,1.56,-0.70,0.50,0.04,-0.04,0.99,
1.423,1.46,-0.71,0.43,0.04,-0.04,0.99,
1.425,1.46,-0.71,0.43,0.04,-0.04,0.99,
1.428,1.46,-0.71,0.43,0.04,-0.04,0.99,
1.428,1.43,-0.69,0.34,0.04,-0.04,0.99,
1.43,1.43,-0.69,0.34,0.05,-0.03,0.98,
1.432,1.43,-0.69,0.34,0.05,-0.03,0.98,
1.433,1.45,-0.63,0.27,0.05,-0.03,0.98,
1.435,1.45,-0.63,0.27,0.06,-0.02,0.97,
1.437,1.45,-0.63,0.27,0.07,-0.01,0.97,
1.437,1.51,-0.53,0.20,0.07,-0.01,0.97,
1.44,1.51,-0.53,0.20,0.07,0.01,0.97,
1.442,1.51,-0.53,0.20,0.09,0.02,0.97,
1.442,1.62,-0.36,0.12,0.09,0.02,0.97,
1.444,1.62,-0.36,0.12,0.10,0.03,0.97,
1.447,1.62,-0.36,0.12,0.11,0.04,0.97,
1.448,1.76,-0.14,0.09,0.11,0.04,0.97,
1.449,1.76,-0.14,0.09,0.13,0.05,0.97,
1.452,1.76,-0.14,0.09,0.14,0.06,0.97,
1.452,1.97,0.07,0.07,0.14,0.06,0.97,
1.454,1.97,0.07,0.07,0.16,0.06,0.97,
1.457,1.97,0.07,0.07,0.18,0.07,0.98,
1.457,2.24,0.25,0.10,0.18,0.07,0.98,
1.459,2.24,0.25,0.10,0.20,0.08,0.98,
1.462,2.24,0.25,0.10,0.22,0.08,0.98,
1.463,2.56,0.40,0.14,0.22,0.08,0.98,
1.464,2.56,0.40,0.14,0.24,0.09,0.98,
1.467,2.56,0.40,0.14,0.26,0.09,0.98,
1.467,2.90,0.53,0.17,0.26,0.09,0.98,
1.469,2.90,0.53,0.17,0.27,0.10,0.98,
1.472,2.90,0.53,0.17,0.28,0.11,0.98,
1.472,3.22,0.65,0.18,0.28,0.11,0.98,
1.474,3.22,0.65,0.18,0.29,0.12,0.98,
1.483,3.22,0.65,0.18,0.30,0.12,0.98,
1.484,3.45,0.78,0.20,0.30,0.12,0.98,
1.484,3.45,0.78,0.20,0.30,0.13,0.98,
1.485,3.45,0.78,0.20,0.30,0.14,0.98,
1.485,3.59,0.92,0.19,0.30,0.14,0.98,
1.485,3.59,0.92,0.19,0.31,0.15,0.98,
1.486,3.59,0.92,0.19,0.31,0.15,0.98,
1.487,3.65,1.07,0.20,0.31,0.15,0.98,
1.488,3.65,1.07,0.20,0.31,0.16,0.98,
1.491,3.65,1.07,0.20,0.32,0.16,0.98,
1.491,3.68,1.19,0.18,0.32,0.16,0.98,
1.494,3.68,1.19,0.18,0.32,0.16,0.98,
1.496,3.68,1.19,0.18,0.32,0.16,0.98,
1.498,3.69,1.27,0.16,0.32,0.16,0.98,
1.498,3.69,1.27,0.16,0.31,0.16,0.98,
1.501,3.69,1.27,0.16,0.31,0.16,0.98,
1.501,3.67,1.28,0.13,0.31,0.16,0.98,
1.503,3.67,1.28,0.13,0.30,0.16,0.98,
1.506,3.67,1.28,0.13,0.29,0.17,0.98,
1.506,3.60,1.31,0.12,0.29,0.17,0.98,
1.508,3.60,1.31,0.12,0.28,0.17,0.97,
1.511,3.60,1.31,0.12,0.27,0.17,0.97,
1.511,3.41,1.34,0.11,0.27,0.17,0.97,
1.513,3.41,1.34,0.11,0.26,0.17,0.97,
1.516,3.41,1.34,0.11,0.24,0.16,0.97,
1.516,3.19,1.36,0.10,0.24,0.16,0.97,
1.518,3.19,1.36,0.10,0.23,0.16,0.97,
1.521,2.91,1.35,0.09,0.23,0.16,0.97,
1.521,2.91,1.35,0.09,0.22,0.16,0.97,
1.523,2.91,1.35,0.09,0.21,0.16,0.97,
1.526,2.91,1.35,0.09,0.20,0.15,0.97,
1.526,2.66,1.33,0.06,0.20,0.15,0.97,
1.528,2.66,1.33,0.06,0.19,0.15,0.97,
1.531,2.40,1.26,0.06,0.19,0.15,0.97,
1.531,2.40,1.26,0.06,0.18,0.14,0.97,
1.533,2.40,1.26,0.06,0.17,0.14,0.97,
1.535,2.40,1.26,0.06,0.16,0.13,0.97,
1.536,2.17,1.19,0.05,0.16,0.13,0.97,
1.537,2.17,1.19,0.05,0.16,0.13,0.97,
1.54,2.17,1.19,0.05,0.15,0.12,0.97,
1.54,2.00,1.09,0.05,0.15,0.12,0.97,
1.542,2.00,1.09,0.05,0.15,0.11,0.97,
1.545,2.00,1.09,0.05,0.15,0.11,0.98,
1.546,1.88,0.98,0.06,0.15,0.11,0.98,
1.547,1.88,0.98,0.06,0.15,0.10,0.98,
1.55,1.88,0.98,0.06,0.15,0.10,0.98,
1.55,1.79,0.89,0.09,0.15,0.10,0.98,
1.552,1.79,0.89,0.09,0.15,0.10,0.99,
1.555,1.79,0.89,0.09,0.14,0.09,0.99,
1.555,1.76,0.79,0.16,0.14,0.09,0.99,
1.557,1.76,0.79,0.16,0.14,0.09,1.00,
1.561,1.76,0.79,0.16,0.14,0.09,1.00,
1.561,1.71,0.75,0.24,0.14,0.09,1.00,
1.563,1.71,0.75,0.24,0.14,0.09,1.01,
1.565,1.71,0.75,0.24,0.14,0.09,1.01,
1.565,1.68,0.72,0.33,0.14,0.09,1.01,
1.567,1.68,0.72,0.33,0.14,0.08,1.01,
1.569,1.68,0.72,0.33,0.15,0.08,1.02,
1.57,1.64,0.68,0.42,0.15,0.08,1.02,
1.572,1.64,0.68,0.42,0.15,0.08,1.02,
1.574,1.64,0.68,0.42,0.15,0.08,1.03,
1.575,1.63,0.65,0.49,0.15,0.08,1.03,
1.577,1.63,0.65,0.49,0.16,0.07,1.03,
1.58,1.63,0.65,0.49,0.16,0.07,1.04,
1.58,1.65,0.61,0.57,0.16,0.07,1.04,
1.582,1.65,0.61,0.57,0.16,0.07,1.04,
1.584,1.70,0.57,0.66,0.16,0.07,1.04,
1.585,1.70,0.57,0.66,0.15,0.07,1.04,
1.587,1.70,0.57,0.66,0.15,0.07,1.04,
1.589,1.70,0.57,0.66,0.14,0.07,1.05,
1.59,1.65,0.57,0.73,0.14,0.07,1.05,
1.592,1.65,0.57,0.73,0.14,0.07,1.05,
1.601,1.65,0.57,0.73,0.13,0.06,1.05,
1.601,1.52,0.55,0.78,0.13,0.06,1.05,
1.602,1.52,0.55,0.78,0.12,0.06,1.05,
1.602,1.52,0.55,0.78,0.12,0.06,1.05,
1.602,1.38,0.50,0.83,0.12,0.06,1.05,
1.602,1.38,0.50,0.83,0.11,0.05,1.05,
1.604,1.38,0.50,0.83,0.10,0.04,1.05,
1.604,1.20,0.44,0.82,0.10,0.04,1.05,
1.606,1.20,0.44,0.82,0.09,0.04,1.04,
1.609,1.20,0.44,0.82,0.09,0.04,1.04,
1.609,1.03,0.32,0.78,0.09,0.04,1.04,
1.626,1.03,0.32,0.78,0.08,0.03,1.04,
1.626,1.03,0.32,0.78,0.07,0.02,1.03,
1.627,0.84,0.24,0.74,0.07,0.02,1.03,
1.627,0.84,0.24,0.74,0.06,0.02,1.03,
1.627,0.84,0.24,0.74,0.04,0.02,1.02,
1.627,0.64,0.13,0.67,0.04,0.02,1.02,
1.627,0.64,0.13,0.67,0.03,0.01,1.02,
1.627,0.64,0.13,0.67,0.02,0.01,1.02,
1.627,0.40,0.04,0.58,0.02,0.01,1.02,
1.627,0.40,0.04,0.58,0.01,0.00,1.01,
1.63,0.40,0.04,0.58,0.00,-0.00,1.00,
1.63,0.16,-0.05,0.49,0.00,-0.00,1.00,
1.631,0.16,-0.05,0.49,-0.01,-0.01,1.00,
1.633,0.16,-0.05,0.49,-0.02,-0.01,1.00,
1.634,-0.06,-0.13,0.40,-0.02,-0.01,1.00,
1.635,-0.06,-0.13,0.40,-0.02,-0.01,1.00,
1.638,-0.06,-0.13,0.40,-0.03,-0.01,0.99,
1.638,-0.27,-0.21,0.34,-0.03,-0.01,0.99,
1.64,-0.27,-0.21,0.34,-0.04,-0.02,1.00,
1.644,-0.27,-0.21,0.34,-0.05,-0.02,1.00,
1.644,-0.48,-0.26,0.28,-0.05,-0.02,1.00,
1.645,-0.48,-0.26,0.28,-0.05,-0.02,1.00,
1.648,-0.48,-0.26,0.28,-0.06,-0.02,1.00,
1.648,-0.65,-0.29,0.29,-0.06,-0.02,1.00,
1.65,-0.65,-0.29,0.29,-0.06,-0.02,1.00,
1.653,-0.65,-0.29,0.29,-0.07,-0.02,1.00,
1.653,-0.77,-0.33,0.31,-0.07,-0.02,1.00,
1.655,-0.77,-0.33,0.31,-0.07,-0.03,1.00,
1.658,-0.77,-0.33,0.31,-0.07,-0.03,1.01,
1.658,-0.87,-0.35,0.33,-0.07,-0.03,1.01,
1.66,-0.87,-0.35,0.33,-0.07,-0.03,1.01,
1.663,-0.87,-0.35,0.33,-0.07,-0.03,1.02,
1.664,-0.98,-0.34,0.38,-0.07,-0.03,1.02,
1.665,-0.98,-0.34,0.38,-0.07,-0.03,1.02,
1.667,-0.98,-0.34,0.38,-0.07,-0.03,1.03,
1.668,-1.01,-0.34,0.46,-0.07,-0.03,1.03,
1.67,-1.01,-0.34,0.46,-0.07,-0.03,1.03,
1.672,-1.01,-0.34,0.46,-0.07,-0.03,1.04,
1.672,-1.02,-0.37,0.55,-0.07,-0.03,1.04,
1.675,-1.02,-0.37,0.55,-0.07,-0.04,1.04,
1.68,-1.02,-0.37,0.55,-0.07,-0.04,1.04,
1.68,-1.02,-0.38,0.65,-0.07,-0.04,1.04,
1.68,-1.02,-0.38,0.65,-0.07,-0.04,1.05,
1.682,-1.02,-0.38,0.65,-0.07,-0.04,1.05,
1.683,-1.02,-0.41,0.74,-0.07,-0.04,1.05,
1.684,-1.02,-0.41,0.74,-0.08,-0.05,1.06,
1.687,-1.02,-0.41,0.74,-0.08,-0.05,1.06,
1.687,-1.05,-0.45,0.81,-0.08,-0.05,1.06,
1.689,-1.05,-0.45,0.81,-0.09,-0.05,1.06,
1.692,-1.05,-0.45,0.81,-0.09,-0.06,1.07,
1.692,-1.14,-0.48,0.91,-0.09,-0.06,1.07,
1.694,-1.14,-0.48,0.91,-0.10,-0.06,1.07,
1.697,-1.14,-0.48,0.91,-0.10,-0.07,1.07,
1.697,-1.26,-0.54,0.96,-0.10,-0.07,1.07,
1.699,-1.26,-0.54,0.96,-0.11,-0.07,1.07,
1.702,-1.26,-0.54,0.96,-0.12,-0.07,1.07,
1.702,-1.37,-0.62,1.00,-0.12,-0.07,1.07,
1.704,-1.37,-0.62,1.00,-0.13,-0.08,1.07,
1.707,-1.37,-0.62,1.00,-0.14,-0.08,1.07,
1.707,-1.53,-0.69,1.02,-0.14,-0.08,1.07,
1.709,-1.53,-0.69,1.02,-0.15,-0.08,1.07,
1.712,-1.53,-0.69,1.02,-0.16,-0.08,1.07,
1.712,-1.74,-0.72,1.04,-0.16,-0.08,1.07,
1.714,-1.74,-0.72,1.04,-0.17,-0.08,1.07,
1.716,-1.74,-0.72,1.04,-0.17,-0.08,1.07,
1.717,-1.94,-0.72,1.01,-0.17,-0.08,1.07,
1.719,-1.94,-0.72,1.01,-0.17,-0.08,1.07,
1.721,-1.94,-0.72,1.01,-0.17,-0.09,1.06,
1.721,-2.08,-0.76,1.00,-0.17,-0.09,1.06,
1.724,-2.08,-0.76,1.00,-0.18,-0.09,1.06,
1.727,-2.08,-0.76,1.00,-0.18,-0.09,1.05,
1.727,-2.14,-0.78,0.94,-0.18,-0.09,1.05,
1.729,-2.14,-0.78,0.94,-0.18,-0.09,1.05,
1.731,-2.14,-0.78,0.94,-0.18,-0.09,1.05,
1.731,-2.18,-0.82,0.86,-0.18,-0.09,1.05,
1.733,-2.18,-0.82,0.86,-0.18,-0.09,1.04,
1.736,-2.18,-0.82,0.86,-0.18,-0.09,1.04,
1.736,-2.20,-0.83,0.80,-0.18,-0.09,1.04,
1.739,-2.20,-0.83,0.80,-0.18,-0.09,1.04,
1.741,-2.20,-0.83,0.80,-0.17,-0.09,1.04,
1.742,-2.22,-0.80,0.73,-0.17,-0.09,1.04,
1.744,-2.22,-0.80,0.73,-0.17,-0.09,1.03,
1.746,-2.22,-0.80,0.73,-0.16,-0.09,1.03,
1.746,-2.19,-0.80,0.70,-0.16,-0.09,1.03,
1.748,-2.19,-0.80,0.70,-0.16,-0.09,1.03,
1.751,-2.19,-0.80,0.70,-0.16,-0.08,1.02,
1.751,-2.11,-0.77,0.63,-0.16,-0.08,1.02,
1.753,-2.11,-0.77,0.63,-0.15,-0.08,1.02,
1.756,-2.11,-0.77,0.63,-0.15,-0.08,1.02,
1.756,-2.07,-0.75,0.56,-0.15,-0.08,1.02,
1.758,-2.07,-0.75,0.56,-0.14,-0.08,1.02,
1.761,-2.07,-0.75,0.56,-0.14,-0.08,1.02,
1.761,-2.01,-0.73,0.53,-0.14,-0.08,1.02,
1.763,-2.01,-0.73,0.53,-0.14,-0.08,1.02,
1.765,-2.01,-0.73,0.53,-0.14,-0.08,1.01,
1.766,-1.94,-0.74,0.51,-0.14,-0.08,1.01,
1.768,-1.94,-0.74,0.51,-0.13,-0.08,1.01,
1.77,-1.94,-0.74,0.51,-0.13,-0.08,1.01,
1.771,-1.89,-0.74,0.46,-0.13,-0.08,1.01,
1.773,-1.89,-0.74,0.46,-0.13,-0.08,1.01,
1.782,-1.89,-0.74,0.46,-0.13,-0.08,1.01,
1.783,-1.86,-0.72,0.42,-0.13,-0.08,1.01,
1.783,-1.86,-0.72,0.42,-0.13,-0.08,1.00,
1.784,-1.86,-0.72,0.42,-0.13,-0.08,1.00,
1.784,-1.86,-0.70,0.38,-0.13,-0.08,1.00,
1.784,-1.86,-0.70,0.38,-0.14,-0.08,0.99,
1.785,-1.86,-0.70,0.38,-0.14,-0.08,0.98,
1.786,-1.90,-0.72,0.30,-0.14,-0.08,0.98,
1.787,-1.90,-0.72,0.30,-0.15,-0.08,0.98,
1.79,-1.90,-0.72,0.30,-0.16,-0.08,0.97,
1.79,-1.96,-0.72,0.18,-0.16,-0.08,0.97,
1.795,-1.96,-0.72,0.18,-0.16,-0.08,0.96,
1.795,-1.96,-0.72,0.18,-0.17,-0.07,0.95,
1.795,-2.10,-0.71,0.04,-0.17,-0.07,0.95,
1.797,-2.10,-0.71,0.04,-0.18,-0.07,0.95,
1.8,-2.10,-0.71,0.04,-0.19,-0.07,0.94,
1.8,-2.24,-0.64,-0.09,-0.19,-0.07,0.94,
1.802,-2.24,-0.64,-0.09,-0.19,-0.06,0.93,
1.805,-2.24,-0.64,-0.09,-0.20,-0.06,0.93,
1.805,-2.39,-0.57,-0.24,-0.20,-0.06,0.93,
1.807,-2.39,-0.57,-0.24,-0.20,-0.06,0.93,
1.81,-2.39,-0.57,-0.24,-0.21,-0.05,0.92,
1.811,-2.53,-0.50,-0.36,-0.21,-0.05,0.92,
1.812,-2.53,-0.50,-0.36,-0.20,-0.05,0.92,
1.815,-2.53,-0.50,-0.36,-0.20,-0.05,0.92,
1.815,-2.61,-0.43,-0.42,-0.20,-0.05,0.92,
1.817,-2.61,-0.43,-0.42,-0.20,-0.04,0.92,
1.82,-2.61,-0.43,-0.42,-0.19,-0.04,0.92,
1.82,-2.60,-0.36,-0.46,-0.19,-0.04,0.92,
1.822,-2.60,-0.36,-0.46,-0.19,-0.04,0.93,
1.824,-2.60,-0.36,-0.46,-0.19,-0.04,0.93,
1.824,-2.53,-0.31,-0.45,-0.19,-0.04,0.93,
1.826,-2.53,-0.31,-0.45,-0.18,-0.03,0.94,
1.829,-2.53,-0.31,-0.45,-0.18,-0.03,0.95,
1.83,-2.47,-0.24,-0.34,-0.18,-0.03,0.95,
1.832,-2.47,-0.24,-0.34,-0.17,-0.03,0.96,
1.834,-2.47,-0.24,-0.34,-0.17,-0.02,0.97,
1.834,-2.39,-0.17,-0.20,-0.17,-0.02,0.97,
1.836,-2.39,-0.17,-0.20,-0.16,-0.02,0.98,
1.839,-2.39,-0.17,-0.20,-0.16,-0.02,0.99,
1.839,-2.30,-0.10,-0.03,-0.16,-0.02,0.99,
1.841,-2.30,-0.10,-0.03,-0.15,-0.02,1.00,
1.844,-2.30,-0.10,-0.03,-0.15,-0.02,1.01,
1.845,-2.22,-0.06,0.16,-0.15,-0.02,1.01,
1.846,-2.22,-0.06,0.16,-0.14,-0.02,1.02,
1.849,-2.22,-0.06,0.16,-0.14,-0.02,1.02,
1.849,-2.13,-0.03,0.35,-0.14,-0.02,1.02,
1.851,-2.13,-0.03,0.35,-0.14,-0.02,1.03,
1.854,-2.13,-0.03,0.35,-0.14,-0.03,1.04,
1.854,-2.05,-0.03,0.52,-0.14,-0.03,1.04,
1.856,-2.05,-0.03,0.52,-0.14,-0.03,1.04,
1.858,-2.05,-0.03,0.52,-0.14,-0.03,1.04,
1.859,-2.03,-0.04,0.65,-0.14,-0.03,1.04,
1.861,-2.03,-0.04,0.65,-0.15,-0.02,1.04,
1.864,-2.03,-0.04,0.65,-0.15,-0.02,1.04,
1.864,-2.06,-0.04,0.73,-0.15,-0.02,1.04,
1.866,-2.06,-0.04,0.73,-0.16,-0.02,1.04,
1.868,-2.06,-0.04,0.73,-0.16,-0.03,1.04,
1.869,-2.14,-0.01,0.74,-0.16,-0.03,1.04,
1.871,-2.14,-0.01,0.74,-0.17,-0.03,1.03,
1.874,-2.14,-0.01,0.74,-0.17,-0.03,1.03,
1.874,-2.22,-0.02,0.70,-0.17,-0.03,1.03,
1.883,-2.22,-0.02,0.70,-0.18,-0.03,1.02,
1.883,-2.22,-0.02,0.70,-0.18,-0.04,1.01,
1.884,-2.30,-0.06,0.60,-0.18,-0.04,1.01,
1.884,-2.30,-0.06,0.60,-0.19,-0.04,1.01,
1.884,-2.30,-0.06,0.60,-0.19,-0.04,1.00,
1.884,-2.40,-0.11,0.49,-0.19,-0.04,1.00,
1.885,-2.40,-0.11,0.49,-0.19,-0.04,0.99,
1.888,-2.40,-0.11,0.49,-0.20,-0.04,0.98,
1.888,-2.49,-0.15,0.36,-0.20,-0.04,0.98,
1.89,-2.49,-0.15,0.36,-0.20,-0.04,0.98,
1.897,-2.49,-0.15,0.36,-0.20,-0.04,0.98,
1.897,-2.55,-0.16,0.21,-0.20,-0.04,0.98,
1.897,-2.55,-0.16,0.21,-0.20,-0.05,0.98,
1.897,-2.61,-0.17,0.13,-0.20,-0.05,0.98,
1.898,-2.61,-0.17,0.13,-0.21,-0.05,0.98,
1.9,-2.61,-0.17,0.13,-0.21,-0.05,0.98,
1.902,-2.61,-0.17,0.13,-0.21,-0.04,0.98,
1.902,-2.65,-0.20,0.09,-0.21,-0.04,0.98,
1.905,-2.65,-0.20,0.09,-0.21,-0.04,0.98,
1.907,-2.65,-0.20,0.09,-0.22,-0.04,0.99,
1.908,-2.68,-0.17,0.09,-0.22,-0.04,0.99,
1.91,-2.68,-0.17,0.09,-0.22,-0.03,0.99,
1.913,-2.68,-0.17,0.09,-0.22,-0.03,1.00,
1.913,-2.74,-0.10,0.17,-0.22,-0.03,1.00,
1.915,-2.74,-0.10,0.17,-0.22,-0.02,1.01,
1.917,-2.74,-0.10,0.17,-0.22,-0.02,1.02,
1.917,-2.78,-0.01,0.32,-0.22,-0.02,1.02,
1.919,-2.78,-0.01,0.32,-0.21,-0.02,1.04,
1.922,-2.78,-0.01,0.32,-0.21,-0.02,1.04,
1.922,-2.76,0.11,0.50,-0.21,-0.02,1.04,
1.924,-2.76,0.11,0.50,-0.20,-0.01,1.05,
1.927,-2.76,0.11,0.50,-0.20,-0.01,1.06,
1.927,-2.69,0.16,0.71,-0.20,-0.01,1.06,
1.929,-2.69,0.16,0.71,-0.19,-0.00,1.07,
1.932,-2.69,0.16,0.71,-0.19,0.00,1.08,
1.933,-2.59,0.24,0.89,-0.19,0.00,1.08,
1.934,-2.59,0.24,0.89,-0.19,0.01,1.08,
1.937,-2.59,0.24,0.89,-0.19,0.02,1.09,
1.937,-2.53,0.38,1.07,-0.19,0.02,1.09,
1.939,-2.53,0.38,1.07,-0.19,0.03,1.09,
1.943,-2.53,0.38,1.07,-0.19,0.03,1.09,
1.943,-2.50,0.54,1.15,-0.19,0.03,1.09,
1.945,-2.50,0.54,1.15,-0.19,0.04,1.09,
1.947,-2.50,0.54,1.15,-0.18,0.04,1.08,
1.947,-2.46,0.70,1.19,-0.18,0.04,1.08,
1.949,-2.46,0.70,1.19,-0.18,0.04,1.08,
1.952,-2.46,0.70,1.19,-0.18,0.05,1.07,
1.952,-2.41,0.78,1.16,-0.18,0.05,1.07,
1.954,-2.41,0.78,1.16,-0.18,0.05,1.07,
1.957,-2.41,0.78,1.16,-0.17,0.05,1.06,
1.957,-2.33,0.86,1.07,-0.17,0.05,1.06,
1.959,-2.33,0.86,1.07,-0.17,0.05,1.05,
1.962,-2.33,0.86,1.07,-0.18,0.05,1.04,
1.962,-2.28,0.90,0.93,-0.18,0.05,1.04,
1.964,-2.28,0.90,0.93,-0.18,0.06,1.03,
1.966,-2.28,0.90,0.93,-0.18,0.06,1.02,
1.967,-2.27,0.94,0.74,-0.18,0.06,1.02,
1.968,-2.27,0.94,0.74,-0.18,0.06,1.01,
1.971,-2.27,0.94,0.74,-0.18,0.05,1.00,
1.971,-2.27,0.99,0.57,-0.18,0.05,1.00,
1.973,-2.27,0.99,0.57,-0.17,0.05,0.99,
1.976,-2.27,0.99,0.57,-0.17,0.05,0.99,
1.977,-2.24,0.98,0.37,-0.17,0.05,0.99,
1.978,-2.24,0.98,0.37,-0.17,0.04,0.98,
1.981,-2.24,0.98,0.37,-0.17,0.04,0.98,
1.981,-2.19,0.93,0.21,-0.17,0.04,0.98,
1.983,-2.19,0.93,0.21,-0.18,0.03,0.97,
1.986,-2.19,0.93,0.21,-0.18,0.03,0.97,
1.988,-2.16,0.85,0.12,-0.18,0.03,0.97,
1.989,-2.16,0.85,0.12,-0.19,0.03,0.97,
1.991,-2.16,0.85,0.12,-0.19,0.02,0.97,
1.991,-2.23,0.76,0.05,-0.19,0.02,0.97,
1.998,-2.23,0.76,0.05,-0.20,0.02,0.97,
1.999,-2.23,0.76,0.05,-0.20,0.02,0.98,
1.999,-2.32,0.71,0.03,-0.20,0.02,0.98,
1.999,-2.32,0.71,0.03,-0.21,0.01,0.98,
2.001,-2.44,0.65,0.09,-0.21,0.01,0.98,
2.001,-2.44,0.65,0.09,-0.21,0.01,0.99,
2.003,-2.44,0.65,0.09,-0.22,0.01,1.00,
2.005,-2.44,0.65,0.09,-0.22,0.01,1.01,
2.005,-2.54,0.60,0.20,-0.22,0.01,1.01,
2.008,-2.54,0.60,0.20,-0.22,0.02,1.02,
2.011,-2.54,0.60,0.20,-0.22,0.01,1.03,
2.011,-2.62,0.61,0.36,-0.22,0.01,1.03,
2.013,-2.62,0.61,0.36,-0.22,0.01,1.04,
2.015,-2.62,0.61,0.36,-0.21,0.01,1.05,
2.015,-2.66,0.64,0.55,-0.21,0.01,1.05,
2.017,-2.66,0.64,0.55,-0.21,0.01,1.06,
2.02,-2.66,0.64,0.55,-0.20,0.01,1.07,
2.02,-2.60,0.63,0.76,-0.20,0.01,1.07,
2.022,-2.60,0.63,0.76,-0.19,0.01,1.08,
2.026,-2.49,0.60,0.97,-0.19,0.01,1.08,
2.026,-2.49,0.60,0.97,-0.19,0.01,1.09,
2.027,-2.49,0.60,0.97,-0.18,0.01,1.10,
2.03,-2.49,0.60,0.97,-0.17,0.02,1.10,
2.03,-2.34,0.62,1.15,-0.17,0.02,1.10,
2.032,-2.34,0.62,1.15,-0.15,0.02,1.11,
2.035,-2.34,0.62,1.15,-0.14,0.03,1.12,
2.035,-2.16,0.69,1.29,-0.14,0.03,1.12,
2.037,-2.16,0.69,1.29,-0.13,0.04,1.12,
2.04,-2.16,0.69,1.29,-0.11,0.04,1.12,
2.04,-1.90,0.82,1.43,-0.11,0.04,1.12,
2.042,-1.90,0.82,1.43,-0.10,0.05,1.13,
2.044,-1.90,0.82,1.43,-0.08,0.05,1.13,
2.045,-1.64,0.94,1.51,-0.08,0.05,1.13,
2.047,-1.64,0.94,1.51,-0.07,0.06,1.13,
2.049,-1.64,0.94,1.51,-0.05,0.06,1.13,
2.049,-1.33,1.04,1.56,-0.05,0.06,1.13,
2.052,-1.33,1.04,1.56,-0.04,0.06,1.13,
2.054,-1.33,1.04,1.56,-0.03,0.07,1.12,
2.054,-1.02,1.13,1.57,-0.03,0.07,1.12,
2.056,-1.02,1.13,1.57,-0.01,0.07,1.11,
2.059,-1.02,1.13,1.57,-0.00,0.08,1.10,
2.06,-0.73,1.20,1.50,-0.00,0.08,1.10,
2.061,-0.73,1.20,1.50,0.00,0.08,1.09,
2.064,-0.73,1.20,1.50,0.01,0.09,1.09,
2.065,-0.47,1.28,1.36,0.01,0.09,1.09,
2.066,-0.47,1.28,1.36,0.02,0.09,1.08,
2.069,-0.47,1.28,1.36,0.02,0.09,1.06,
2.069,-0.28,1.37,1.18,0.02,0.09,1.06,
2.071,-0.28,1.37,1.18,0.03,0.09,1.05,
2.074,-0.28,1.37,1.18,0.03,0.09,1.04,
2.074,-0.15,1.43,0.98,0.03,0.09,1.04,
2.08,-0.15,1.43,0.98,0.03,0.09,1.02,
2.081,-0.15,1.43,0.98,0.03,0.09,1.01,
2.081,-0.05,1.43,0.74,0.03,0.09,1.01,
2.081,-0.05,1.43,0.74,0.03,0.08,0.99,
2.084,-0.05,1.43,0.74,0.03,0.08,0.98,
2.084,-0.00,1.39,0.46,0.03,0.08,0.98,
2.086,-0.00,1.39,0.46,0.02,0.07,0.96,
2.089,-0.00,1.39,0.46,0.02,0.06,0.95,
2.089,-0.00,1.28,0.15,0.02,0.06,0.95,
2.091,-0.00,1.28,0.15,0.02,0.05,0.94,
2.094,-0.00,1.28,0.15,0.02,0.04,0.92,
2.094,-0.01,1.13,-0.14,0.02,0.04,0.92,
2.096,-0.01,1.13,-0.14,0.01,0.04,0.91,
2.098,-0.01,1.13,-0.14,0.00,0.03,0.90,
2.099,-0.04,0.97,-0.41,0.00,0.03,0.90,
2.1,-0.04,0.97,-0.41,-0.01,0.03,0.90,
2.103,-0.04,0.97,-0.41,-0.01,0.02,0.89,
2.103,-0.16,0.85,-0.61,-0.01,0.02,0.89,
2.105,-0.16,0.85,-0.61,-0.02,0.02,0.89,
2.109,-0.16,0.85,-0.61,-0.03,0.02,0.88,
2.109,-0.29,0.73,-0.76,-0.03,0.02,0.88,
2.111,-0.29,0.73,-0.76,-0.04,0.01,0.88,
2.113,-0.29,0.73,-0.76,-0.04,0.01,0.88,
2.114,-0.45,0.67,-0.86,-0.04,0.01,0.88,
2.115,-0.45,0.67,-0.86,-0.05,0.01,0.88,
2.118,-0.45,0.67,-0.86,-0.06,0.00,0.88,
2.118,-0.60,0.60,-0.88,-0.06,0.00,0.88,
2.12,-0.60,0.60,-0.88,-0.06,0.00,0.89,
2.123,-0.60,0.60,-0.88,-0.06,0.00,0.90,
2.123,-0.69,0.55,-0.86,-0.06,0.00,0.90,
2.125,-0.69,0.55,-0.86,-0.06,0.00,0.91,
2.128,-0.69,0.55,-0.86,-0.06,0.00,0.92,
2.129,-0.74,0.55,-0.73,-0.06,0.00,0.92,
2.13,-0.74,0.55,-0.73,-0.06,0.01,0.93,
2.133,-0.74,0.55,-0.73,-0.06,0.01,0.93,
2.133,-0.78,0.57,-0.55,-0.06,0.01,0.93,
2.135,-0.78,0.57,-0.55,-0.06,0.01,0.94,
2.138,-0.78,0.57,-0.55,-0.06,0.01,0.95,
2.138,-0.77,0.61,-0.38,-0.06,0.01,0.95,
2.14,-0.77,0.61,-0.38,-0.06,0.02,0.96,
2.143,-0.77,0.61,-0.38,-0.05,0.02,0.96,
2.143,-0.77,0.69,-0.21,-0.05,0.02,0.96,
2.145,-0.77,0.69,-0.21,-0.05,0.02,0.97,
2.148,-0.68,0.74,-0.07,-0.05,0.02,0.97,
2.148,-0.68,0.74,-0.07,-0.04,0.03,0.97,
2.15,-0.68,0.74,-0.07,-0.03,0.03,0.97,
2.153,-0.68,0.74,-0.07,-0.02,0.03,0.97,
2.153,-0.57,0.82,0.00,-0.02,0.03,0.97,
2.155,-0.57,0.82,0.00,-0.01,0.03,0.97,
2.157,-0.57,0.82,0.00,-0.00,0.03,0.97,
2.158,-0.41,0.84,0.04,-0.00,0.03,0.97,
2.16,-0.41,0.84,0.04,0.01,0.04,0.97,
2.163,-0.41,0.84,0.04,0.02,0.04,0.97,
2.163,-0.19,0.90,0.05,0.02,0.04,0.97,
2.165,-0.19,0.90,0.05,0.03,0.05,0.97,
2.167,-0.19,0.90,0.05,0.04,0.05,0.96,
2.168,0.04,0.95,-0.00,0.04,0.05,0.96,
2.169,0.04,0.95,-0.00,0.06,0.06,0.96,
2.172,0.04,0.95,-0.00,0.07,0.06,0.96,
2.172,0.30,1.06,-0.05,0.07,0.06,0.96,
2.174,0.30,1.06,-0.05,0.08,0.07,0.95,
2.181,0.30,1.06,-0.05,0.09,0.08,0.95,
2.181,0.56,1.18,-0.12,0.09,0.08,0.95,
2.181,0.56,1.18,-0.12,0.10,0.08,0.95,
2.182,0.56,1.18,-0.12,0.11,0.09,0.94,
2.182,0.76,1.29,-0.18,0.11,0.09,0.94,
2.185,0.76,1.29,-0.18,0.12,0.09,0.94,
2.186,0.76,1.29,-0.18,0.12,0.10,0.95,
2.187,0.96,1.39,-0.24,0.12,0.10,0.95,
2.189,0.96,1.39,-0.24,0.13,0.10,0.95,
2.194,0.96,1.39,-0.24,0.14,0.10,0.95,
2.195,1.13,1.49,-0.24,0.14,0.10,0.95,
2.195,1.13,1.49,-0.24,0.14,0.10,0.95,
2.197,1.13,1.49,-0.24,0.14,0.10,0.96,
2.197,1.25,1.55,-0.20,0.14,0.10,0.96,
2.199,1.25,1.55,-0.20,0.15,0.10,0.97,
2.202,1.34,1.56,-0.12,0.15,0.10,0.97,
2.202,1.34,1.56,-0.12,0.15,0.10,0.98,
2.204,1.34,1.56,-0.12,0.15,0.09,0.98,
2.206,1.34,1.56,-0.12,0.15,0.09,0.99,
2.206,1.38,1.53,0.02,0.15,0.09,0.99,
2.208,1.38,1.53,0.02,0.15,0.09,1.00,
2.211,1.38,1.53,0.02,0.16,0.09,1.01,
2.211,1.42,1.47,0.18,0.16,0.09,1.01,
2.214,1.42,1.47,0.18,0.16,0.09,1.02,
2.216,1.42,1.47,0.18,0.16,0.08,1.03,
2.216,1.46,1.45,0.35,0.16,0.08,1.03,
2.218,1.46,1.45,0.35,0.16,0.08,1.03,
2.221,1.46,1.45,0.35,0.15,0.07,1.04,
2.221,1.47,1.40,0.51,0.15,0.07,1.04,
2.223,1.47,1.40,0.51,0.15,0.07,1.05,
2.225,1.47,1.40,0.51,0.15,0.06,1.06,
2.226,1.42,1.31,0.67,0.15,0.06,1.06,
2.228,1.42,1.31,0.67,0.15,0.06,1.06,
2.231,1.42,1.31,0.67,0.15,0.05,1.07,
2.231,1.37,1.19,0.81,0.15,0.05,1.07,
2.233,1.37,1.19,0.81,0.15,0.04,1.07,
2.236,1.37,1.19,0.81,0.16,0.04,1.08,
2.236,1.36,1.07,0.91,0.16,0.04,1.08,
2.238,1.36,1.07,0.91,0.16,0.03,1.08,
2.24,1.36,1.07,0.91,0.16,0.03,1.08,
2.241,1.41,0.97,1.00,0.16,0.03,1.08,
2.243,1.41,0.97,1.00,0.17,0.03,1.08,
2.245,1.41,0.97,1.00,0.17,0.03,1.08,
2.245,1.46,0.87,1.10,0.17,0.03,1.08,
2.248,1.46,0.87,1.10,0.17,0.02,1.08,
2.25,1.46,0.87,1.10,0.18,0.02,1.08,
2.25,1.55,0.82,1.09,0.18,0.02,1.08,
2.252,1.55,0.82,1.09,0.18,0.02,1.07,
2.255,1.55,0.82,1.09,0.19,0.02,1.07,
2.255,1.60,0.79,1.06,0.19,0.02,1.07,
2.258,1.60,0.79,1.06,0.20,0.02,1.07,
2.26,1.60,0.79,1.06,0.21,0.02,1.06,
2.26,1.72,0.75,0.99,0.21,0.02,1.06,
2.262,1.72,0.75,0.99,0.22,0.02,1.06,
2.265,1.72,0.75,0.99,0.22,0.02,1.06,
2.265,1.89,0.72,0.93,0.22,0.02,1.06,
2.267,1.89,0.72,0.93,0.23,0.02,1.05,
2.27,1.89,0.72,0.93,0.24,0.02,1.05,
2.27,2.07,0.72,0.86,0.24,0.02,1.05,
2.272,2.07,0.72,0.86,0.25,0.01,1.05,
2.275,2.07,0.72,0.86,0.26,0.01,1.04,
2.275,2.24,0.68,0.78,0.26,0.01,1.04,
2.277,2.24,0.68,0.78,0.27,0.01,1.04,
2.28,2.24,0.68,0.78,0.28,0.01,1.04,
2.28,2.46,0.62,0.73,0.28,0.01,1.04,
2.282,2.46,0.62,0.73,0.28,0.00,1.04,
2.284,2.46,0.62,0.73,0.28,0.00,1.04,
2.285,2.62,0.57,0.71,0.28,0.00,1.04,
2.287,2.62,0.57,0.71,0.28,0.00,1.05,
2.289,2.62,0.57,0.71,0.27,0.00,1.05,
2.29,2.69,0.54,0.71,0.27,0.00,1.05,
2.296,2.69,0.54,0.71,0.27,0.00,1.05,
2.297,2.69,0.54,0.71,0.26,-0.00,1.05,
2.297,2.66,0.50,0.75,0.26,-0.00,1.05,
2.298,2.66,0.50,0.75,0.26,-0.00,1.06,
2.299,2.66,0.50,0.75,0.25,-0.01,1.06,
2.3,2.56,0.48,0.78,0.25,-0.01,1.06,
2.301,2.56,0.48,0.78,0.24,-0.01,1.06,
2.304,2.56,0.48,0.78,0.24,-0.01,1.06,
2.304,2.43,0.44,0.83,0.24,-0.01,1.06,
2.306,2.43,0.44,0.83,0.24,-0.02,1.06,
2.31,2.43,0.44,0.83,0.24,-0.02,1.06,
2.31,2.34,0.35,0.85,0.24,-0.02,1.06,
2.311,2.34,0.35,0.85,0.24,-0.03,1.06,
2.314,2.34,0.35,0.85,0.24,-0.04,1.06,
2.314,2.33,0.25,0.87,0.24,-0.04,1.06,
2.316,2.33,0.25,0.87,0.24,-0.04,1.06,
2.318,2.33,0.25,0.87,0.24,-0.05,1.06,
2.319,2.31,0.13,0.88,0.24,-0.05,1.06,
2.321,2.31,0.13,0.88,0.23,-0.05,1.06,
2.323,2.31,0.13,0.88,0.23,-0.06,1.05,
2.325,2.29,0.01,0.86,0.23,-0.06,1.05,
2.326,2.29,0.01,0.86,0.23,-0.06,1.05,
2.329,2.29,0.01,0.86,0.22,-0.06,1.04,
2.329,2.23,-0.09,0.82,0.22,-0.06,1.04,
2.331,2.23,-0.09,0.82,0.22,-0.06,1.03,
2.333,2.23,-0.09,0.82,0.22,-0.06,1.03,
2.334,2.16,-0.16,0.71,0.22,-0.06,1.03,
2.336,2.16,-0.16,0.71,0.22,-0.06,1.02,
2.338,2.16,-0.16,0.71,0.22,-0.06,1.01,
2.338,2.12,-0.19,0.54,0.22,-0.06,1.01,
2.341,2.12,-0.19,0.54,0.22,-0.06,1.00,
2.344,2.12,-0.19,0.54,0.21,-0.06,0.99,
2.344,2.13,-0.16,0.39,0.21,-0.06,0.99,
2.346,2.13,-0.16,0.39,0.22,-0.05,0.99,
2.348,2.13,-0.16,0.39,0.22,-0.05,0.98,
2.348,2.14,-0.13,0.22,0.22,-0.05,0.98,
2.35,2.14,-0.13,0.22,0.22,-0.05,0.97,
2.353,2.14,-0.13,0.22,0.22,-0.05,0.97,
2.353,2.20,-0.10,0.09,0.22,-0.05,0.97,
2.355,2.20,-0.10,0.09,0.22,-0.05,0.96,
2.358,2.20,-0.10,0.09,0.23,-0.05,0.96,
2.358,2.24,-0.08,-0.03,0.23,-0.05,0.96,
2.36,2.24,-0.08,-0.03,0.23,-0.05,0.95,
2.363,2.24,-0.08,-0.03,0.23,-0.05,0.95,
2.363,2.32,-0.06,-0.13,0.23,-0.05,0.95,
2.365,2.32,-0.06,-0.13,0.24,-0.05,0.95,
2.368,2.32,-0.06,-0.13,0.24,-0.05,0.95,
2.368,2.39,-0.07,-0.22,0.24,-0.05,0.95,
2.37,2.39,-0.07,-0.22,0.24,-0.05,0.95,
2.373,2.39,-0.07,-0.22,0.24,-0.05,0.95,
2.373,2.44,-0.06,-0.23,0.24,-0.05,0.95,
2.375,2.44,-0.06,-0.23,0.24,-0.05,0.96,
2.377,2.44,-0.06,-0.23,0.23,-0.05,0.96,
2.378,2.46,-0.08,-0.21,0.23,-0.05,0.96,
2.38,2.46,-0.08,-0.21,0.22,-0.05,0.96,
2.382,2.46,-0.08,-0.21,0.22,-0.06,0.97,
2.383,2.42,-0.10,-0.15,0.22,-0.06,0.97,
2.385,2.42,-0.10,-0.15,0.21,-0.06,0.97,
2.387,2.42,-0.10,-0.15,0.20,-0.06,0.98,
2.387,2.28,-0.16,-0.06,0.20,-0.06,0.98,
2.389,2.28,-0.16,-0.06,0.20,-0.07,0.98,
2.397,2.28,-0.16,-0.06,0.19,-0.07,0.98,
2.398,2.12,-0.24,0.02,0.19,-0.07,0.98,
2.398,2.12,-0.24,0.02,0.19,-0.08,0.99,
2.398,2.12,-0.24,0.02,0.18,-0.09,0.99,
2.398,1.99,-0.34,0.08,0.18,-0.09,0.99,
2.399,1.99,-0.34,0.08,0.17,-0.09,0.99,
2.402,1.99,-0.34,0.08,0.17,-0.10,0.99,
2.403,1.85,-0.45,0.14,0.17,-0.10,0.99,
2.404,1.85,-0.45,0.14,0.16,-0.11,0.99,
2.407,1.85,-0.45,0.14,0.15,-0.11,0.99,
2.407,1.72,-0.60,0.19,0.15,-0.11,0.99,
2.413,1.72,-0.60,0.19,0.14,-0.12,0.99,
2.413,1.53,-0.74,0.21,0.14,-0.12,0.99,
2.413,1.53,-0.74,0.21,0.13,-0.12,0.99,
2.414,1.53,-0.74,0.21,0.12,-0.12,0.99,
2.417,1.53,-0.74,0.21,0.11,-0.12,0.98,
2.417,1.34,-0.82,0.19,0.11,-0.12,0.98,
2.419,1.34,-0.82,0.19,0.10,-0.12,0.98,
2.421,1.34,-0.82,0.19,0.09,-0.12,0.98,
2.422,1.14,-0.89,0.12,0.09,-0.12,0.98,
2.424,1.14,-0.89,0.12,0.09,-0.12,0.98,
2.426,1.14,-0.89,0.12,0.08,-0.11,0.97,
2.426,0.97,-0.88,0.06,0.08,-0.11,0.97,
2.429,0.97,-0.88,0.06,0.08,-0.11,0.97,
2.431,0.97,-0.88,0.06,0.07,-0.11,0.96,
2.431,0.83,-0.84,-0.00,0.07,-0.11,0.96,
2.433,0.83,-0.84,-0.00,0.07,-0.10,0.96,
2.436,0.83,-0.84,-0.00,0.07,-0.10,0.96,
2.436,0.76,-0.78,-0.09,0.07,-0.10,0.96,
2.438,0.76,-0.78,-0.09,0.07,-0.10,0.95,
2.441,0.76,-0.78,-0.09,0.08,-0.10,0.95,
2.441,0.73,-0.73,-0.15,0.08,-0.10,0.95,
2.443,0.73,-0.73,-0.15,0.08,-0.09,0.94,
2.446,0.73,-0.73,-0.15,0.08,-0.09,0.93,
2.446,0.80,-0.68,-0.24,0.08,-0.09,0.93,
2.448,0.80,-0.68,-0.24,0.08,-0.09,0.93,
2.451,0.80,-0.68,-0.24,0.09,-0.09,0.92,
2.451,0.88,-0.65,-0.35,0.09,-0.09,0.92,
2.453,0.88,-0.65,-0.35,0.09,-0.08,0.92,
2.456,0.88,-0.65,-0.35,0.09,-0.08,0.91,
2.456,0.90,-0.60,-0.47,0.09,-0.08,0.91,
2.458,0.90,-0.60,-0.47,0.09,-0.08,0.91,
2.461,0.90,-0.60,-0.47,0.09,-0.08,0.90,
2.461,0.97,-0.57,-0.55,0.09,-0.08,0.90,
2.463,0.97,-0.57,-0.55,0.09,-0.08,0.90,
2.466,0.97,-0.57,-0.55,0.10,-0.08,0.90,
2.466,1.01,-0.56,-0.66,0.10,-0.08,0.90,
2.468,1.01,-0.56,-0.66,0.10,-0.08,0.89,
2.471,1.02,-0.54,-0.75,0.10,-0.08,0.89,
2.471,1.02,-0.54,-0.75,0.10,-0.08,0.89,
2.473,1.02,-0.54,-0.75,0.10,-0.08,0.89,
2.481,1.02,-0.54,-0.75,0.10,-0.08,0.89,
2.484,1.04,-0.53,-0.78,0.10,-0.08,0.89,
2.485,1.04,-0.53,-0.78,0.10,-0.08,0.89,
2.485,1.04,-0.53,-0.78,0.11,-0.08,0.90,
2.485,1.07,-0.54,-0.79,0.11,-0.08,0.90,
2.486,1.07,-0.54,-0.79,0.11,-0.07,0.90,
2.486,1.07,-0.54,-0.79,0.11,-0.07,0.91,
2.486,1.09,-0.52,-0.76,0.11,-0.07,0.91,
2.488,1.09,-0.52,-0.76,0.11,-0.07,0.91,
2.496,1.09,-0.52,-0.76,0.11,-0.07,0.92,
2.496,1.10,-0.50,-0.68,0.11,-0.07,0.92,
2.497,1.10,-0.50,-0.68,0.11,-0.07,0.92,
2.497,1.10,-0.50,-0.68,0.11,-0.07,0.93,
2.497,1.10,-0.47,-0.58,0.11,-0.07,0.93,
2.497,1.10,-0.47,-0.58,0.11,-0.07,0.94,
2.5,1.10,-0.47,-0.58,0.11,-0.07,0.95,
2.5,1.10,-0.44,-0.45,0.11,-0.07,0.95,
2.502,1.10,-0.44,-0.45,0.11,-0.07,0.96,
2.505,1.10,-0.44,-0.45,0.11,-0.07,0.96,
2.505,1.11,-0.46,-0.30,0.11,-0.07,0.96,
2.507,1.11,-0.46,-0.30,0.11,-0.07,0.97,
2.51,1.11,-0.46,-0.30,0.11,-0.07,0.98,
2.51,1.12,-0.45,-0.13,0.11,-0.07,0.98,
2.512,1.12,-0.45,-0.13,0.11,-0.07,0.98,
2.515,1.12,-0.45,-0.13,0.11,-0.07,0.99,
2.515,1.12,-0.44,0.01,0.11,-0.07,0.99,
2.517,1.12,-0.44,0.01,0.10,-0.07,0.99,
2.519,1.12,-0.44,0.01,0.10,-0.07,1.00,
2.52,1.06,-0.42,0.12,0.10,-0.07,1.00,
2.522,1.06,-0.42,0.12,0.09,-0.07,1.00,
2.525,1.06,-0.42,0.12,0.09,-0.07,1.00,
2.525,0.97,-0.41,0.21,0.09,-0.07,1.00,
2.527,0.97,-0.41,0.21,0.08,-0.07,1.01,
2.529,0.97,-0.41,0.21,0.08,-0.08,1.01,
2.529,0.86,-0.44,0.28,0.08,-0.08,1.01,
2.531,0.86,-0.44,0.28,0.07,-0.08,1.00,
2.534,0.77,-0.49,0.33,0.07,-0.08,1.00,
2.534,0.77,-0.49,0.33,0.06,-0.08,1.00,
2.537,0.77,-0.49,0.33,0.06,-0.08,1.00,
2.54,0.65,-0.54,0.29,0.06,-0.08,1.00,
2.54,0.65,-0.54,0.29,0.05,-0.08,1.00,
2.541,0.65,-0.54,0.29,0.04,-0.08,0.99,
2.544,0.65,-0.54,0.29,0.04,-0.08,0.99,
2.545,0.53,-0.57,0.23,0.04,-0.08,0.99,
2.546,0.53,-0.57,0.23,0.03,-0.08,0.99,
2.549,0.53,-0.57,0.23,0.02,-0.08,0.99,
2.549,0.39,-0.57,0.18,0.02,-0.08,0.99,
2.551,0.39,-0.57,0.18,0.02,-0.08,0.99,
2.554,0.39,-0.57,0.18,0.01,-0.08,0.98,
2.554,0.26,-0.56,0.14,0.01,-0.08,0.98,
2.556,0.26,-0.56,0.14,0.00,-0.08,0.98,
2.559,0.26,-0.56,0.14,0.00,-0.08,0.98,
2.56,0.12,-0.53,0.12,0.00,-0.08,0.98,
2.561,0.12,-0.53,0.12,0.00,-0.08,0.98,
2.564,0.12,-0.53,0.12,-0.00,-0.08,0.98,
2.564,0.04,-0.52,0.08,-0.00,-0.08,0.98,
2.566,0.04,-0.52,0.08,-0.01,-0.08,0.98,
2.569,0.01,-0.54,0.07,-0.01,-0.08,0.98,
2.569,0.01,-0.54,0.07,-0.01,-0.08,0.98,
2.571,0.01,-0.54,0.07,-0.01,-0.08,0.98,
2.58,0.01,-0.54,0.07,-0.01,-0.08,0.98,
2.581,-0.04,-0.54,0.05,-0.01,-0.08,0.98,
2.581,-0.04,-0.54,0.05,-0.02,-0.07,0.98,
2.581,-0.04,-0.54,0.05,-0.02,-0.07,0.98,
2.581,-0.07,-0.51,0.03,-0.02,-0.07,0.98,
2.582,-0.07,-0.51,0.03,-0.02,-0.07,0.98,
2.583,-0.07,-0.51,0.03,-0.02,-0.07,0.98,
2.583,-0.11,-0.46,0.04,-0.02,-0.07,0.98,
2.586,-0.11,-0.46,0.04,-0.02,-0.06,0.98,
2.588,-0.11,-0.46,0.04,-0.02,-0.06,0.98,
2.589,-0.14,-0.40,0.04,-0.02,-0.06,0.98,
2.592,-0.14,-0.40,0.04,-0.02,-0.06,0.98,
2.593,-0.14,-0.40,0.04,-0.01,-0.06,0.98,
2.594,-0.14,-0.36,0.05,-0.01,-0.06,0.98,
2.595,-0.14,-0.36,0.05,-0.01,-0.06,0.98,
2.598,-0.14,-0.36,0.05,-0.01,-0.05,0.98,
2.598,-0.08,-0.31,0.07,-0.01,-0.05,0.98,
2.601,-0.08,-0.31,0.07,-0.02,-0.05,0.97,
2.603,-0.08,-0.31,0.07,-0.01,-0.05,0.98,
2.603,-0.05,-0.29,0.07,-0.01,-0.05,0.98,
2.605,-0.05,-0.29,0.07,-0.01,-0.04,0.98,
2.608,-0.05,-0.29,0.07,-0.01,-0.04,0.99,
2.608,-0.07,-0.22,0.03,-0.01,-0.04,0.99,
2.61,-0.07,-0.22,0.03,-0.01,-0.04,0.99,
2.612,-0.07,-0.22,0.03,-0.00,-0.04,0.99,
2.613,-0.02,-0.16,0.11,-0.00,-0.04,0.99,
2.615,-0.02,-0.16,0.11,0.00,-0.04,0.99,
2.617,-0.02,-0.16,0.11,0.01,-0.04,0.99,
2.617,0.03,-0.13,0.14,0.01,-0.04,0.99,
2.62,0.03,-0.13,0.14,0.01,-0.03,0.99,
2.622,0.03,-0.13,0.14,0.01,-0.03,0.99,
2.622,0.12,-0.11,0.13,0.01,-0.03,0.99,
2.625,0.12,-0.11,0.13,0.02,-0.03,0.99,
2.628,0.12,-0.11,0.13,0.02,-0.03,0.99,
2.628,0.18,-0.07,0.16,0.02,-0.03,0.99,
2.63,0.18,-0.07,0.16,0.03,-0.03,0.99,
2.632,0.18,-0.07,0.16,0.03,-0.03,0.99,
2.632,0.27,-0.06,0.18,0.03,-0.03,0.99,
2.634,0.27,-0.06,0.18,0.03,-0.02,0.99,
2.637,0.27,-0.06,0.18,0.04,-0.02,0.99,
2.637,0.33,-0.04,0.17,0.04,-0.02,0.99,
2.639,0.33,-0.04,0.17,0.04,-0.02,0.99,
2.642,0.33,-0.04,0.17,0.04,-0.02,0.99,
2.643,0.40,-0.00,0.16,0.04,-0.02,0.99,
2.644,0.40,-0.00,0.16,0.03,-0.02,0.98,
2.647,0.40,-0.00,0.16,0.03,-0.02,0.98,
2.647,0.42,0.02,0.14,0.03,-0.02,0.98,
2.649,0.42,0.02,0.14,0.03,-0.02,0.98,
2.652,0.42,0.02,0.14,0.03,-0.02,0.98,
2.652,0.39,0.00,0.11,0.03,-0.02,0.98,
2.654,0.39,0.00,0.11,0.03,-0.03,0.98,
2.658,0.39,0.00,0.11,0.03,-0.03,0.98,
2.658,0.40,-0.02,0.08,0.03,-0.03,0.98,
2.659,0.40,-0.02,0.08,0.02,-0.03,0.98,
2.662,0.40,-0.02,0.08,0.01,-0.03,0.97,
2.662,0.34,-0.06,0.06,0.01,-0.03,0.97,
2.664,0.34,-0.06,0.06,0.01,-0.03,0.97,
2.666,0.34,-0.06,0.06,0.00,-0.03,0.97,
2.667,0.25,-0.10,0.03,0.00,-0.03,0.97,
2.669,0.25,-0.10,0.03,-0.00,-0.03,0.97,
2.671,0.25,-0.10,0.03,-0.01,-0.03,0.97,
2.672,0.13,-0.10,-0.02,-0.01,-0.03,0.97,
2.674,0.13,-0.10,-0.02,-0.01,-0.03,0.97,
2.677,0.13,-0.10,-0.02,-0.02,-0.03,0.97,
2.677,0.03,-0.07,-0.03,-0.02,-0.03,0.97,
2.679,0.03,-0.07,-0.03,-0.02,-0.03,0.98,
2.681,0.03,-0.07,-0.03,-0.02,-0.03,0.98,
2.681,-0.05,-0.07,-0.01,-0.02,-0.03,0.98,
2.683,-0.05,-0.07,-0.01,-0.02,-0.03,0.98,
2.686,-0.05,-0.07,-0.01,-0.02,-0.03,0.99,
2.686,-0.10,-0.11,0.03,-0.02,-0.03,0.99,
2.688,-0.10,-0.11,0.03,-0.02,-0.03,0.99,
2.696,-0.10,-0.11,0.03,-0.02,-0.03,0.99,
2.697,-0.10,-0.10,0.11,-0.02,-0.03,0.99,
2.697,-0.10,-0.10,0.11,-0.02,-0.03,1.00,
2.697,-0.10,-0.10,0.11,-0.02,-0.03,1.00,
2.698,-0.12,-0.09,0.16,-0.02,-0.03,1.00,
2.698,-0.12,-0.09,0.16,-0.02,-0.03,1.00,
2.701,-0.12,-0.09,0.16,-0.02,-0.03,1.01,
2.701,-0.12,-0.06,0.25,-0.02,-0.03,1.01,
2.703,-0.12,-0.06,0.25,-0.02,-0.03,1.01,
2.706,-0.12,-0.06,0.25,-0.02,-0.02,1.01,
2.706,-0.08,-0.04,0.30,-0.02,-0.02,1.01,
2.71,-0.08,-0.04,0.30,-0.01,-0.02,1.01,
2.711,-0.08,-0.04,0.30,-0.01,-0.02,1.01,
2.711,-0.04,-0.02,0.34,-0.01,-0.02,1.01,
2.713,-0.04,-0.02,0.34,-0.01,-0.02,1.01,
2.716,0.03,0.00,0.36,-0.01,-0.02,1.01,
2.716,0.03,0.00,0.36,-0.01,-0.02,1.01,
2.718,0.03,0.00,0.36,-0.01,-0.02,1.01,
2.72,0.03,0.00,0.36,-0.01,-0.02,1.00,
2.72,0.06,0.03,0.35,-0.01,-0.02,1.00,
2.723,0.06,0.03,0.35,-0.01,-0.02,1.00,
2.725,0.06,0.03,0.35,-0.01,-0.02,1.00,
2.725,0.04,0.06,0.31,-0.01,-0.02,1.00,
2.727,0.04,0.06,0.31,-0.01,-0.02,0.99,
2.73,0.04,0.06,0.31,-0.02,-0.02,0.99,
2.73,0.02,0.06,0.24,-0.02,-0.02,0.99,
2.732,0.02,0.06,0.24,-0.02,-0.02,0.98,
2.735,0.02,0.06,0.24,-0.02,-0.02,0.97,
2.735,-0.00,0.06,0.17,-0.02,-0.02,0.97,
2.737,-0.00,0.06,0.17,-0.02,-0.02,0.97,
2.74,-0.00,0.06,0.17,-0.03,-0.02,0.97,
2.74,-0.05,0.03,0.04,-0.03,-0.02,0.97,
2.742,-0.05,0.03,0.04,-0.03,-0.02,0.96,
2.745,-0.05,0.03,0.04,-0.03,-0.03,0.96,
2.745,-0.08,0.00,-0.05,-0.03,-0.03,0.96,
2.747,-0.08,0.00,-0.05,-0.03,-0.03,0.95,
2.749,-0.08,0.00,-0.05,-0.03,-0.03,0.95,
2.75,-0.11,-0.05,-0.15,-0.03,-0.03,0.95,
2.752,-0.11,-0.05,-0.15,-0.03,-0.03,0.95,
2.755,-0.13,-0.05,-0.19,-0.03,-0.03,0.95,
2.755,-0.13,-0.05,-0.19,-0.03,-0.02,0.95,
2.757,-0.13,-0.05,-0.19,-0.03,-0.02,0.95,
2.76,-0.13,-0.05,-0.19,-0.04,-0.02,0.95,
2.76,-0.13,-0.04,-0.19,-0.04,-0.02,0.95,
2.762,-0.13,-0.04,-0.19,-0.03,-0.02,0.95,
2.764,-0.13,-0.04,-0.19,-0.03,-0.02,0.96,
2.765,-0.17,-0.02,-0.21,-0.03,-0.02,0.96,
2.767,-0.17,-0.02,-0.21,-0.03,-0.02,0.96,
2.769,-0.17,-0.02,-0.21,-0.02,-0.02,0.96,
2.769,-0.14,-0.01,-0.18,-0.02,-0.02,0.96,
2.772,-0.14,-0.01,-0.18,-0.02,-0.02,0.97,
2.774,-0.14,-0.01,-0.18,-0.02,-0.02,0.97,
2.775,-0.07,-0.02,-0.13,-0.02,-0.02,0.97,
2.776,-0.07,-0.02,-0.13,-0.01,-0.02,0.97,
2.779,-0.07,-0.02,-0.13,-0.01,-0.02,0.98,
2.78,-0.01,-0.01,-0.06,-0.01,-0.02,0.98,
2.781,-0.01,-0.01,-0.06,-0.01,-0.02,0.98,
2.784,-0.01,-0.01,-0.06,-0.00,-0.02,0.98,
2.784,0.09,0.02,0.01,-0.00,-0.02,0.98,
2.786,0.09,0.02,0.01,-0.00,-0.02,0.99,
2.789,0.09,0.02,0.01,0.00,-0.01,0.99,
2.789,0.13,0.04,0.09,0.00,-0.01,0.99,
2.796,0.13,0.04,0.09,-0.00,-0.01,0.99,
2.797,0.13,0.04,0.09,-0.00,-0.01,0.99,
2.797,0.16,0.06,0.15,-0.00,-0.01,0.99,
2.797,0.16,0.06,0.15,0.00,-0.01,1.00,
2.799,0.16,0.06,0.15,-0.00,-0.01,1.00,
2.799,0.17,0.10,0.20,-0.00,-0.01,1.00,
2.801,0.17,0.10,0.20,-0.01,-0.01,1.00,
2.804,0.17,0.10,0.20,-0.01,-0.01,1.00,
2.804,0.17,0.10,0.22,-0.01,-0.01,1.00,
2.806,0.17,0.10,0.22,-0.01,-0.01,0.99,
2.81,0.17,0.10,0.22,-0.01,-0.01,0.99,
2.81,0.13,0.10,0.24,-0.01,-0.01,0.99,
2.811,0.13,0.10,0.24,-0.01,-0.01,0.99,
2.814,0.13,0.10,0.24,-0.01,-0.01,0.98,
2.814,0.07,0.09,0.20,-0.01,-0.01,0.98,
2.816,0.07,0.09,0.20,-0.01,-0.02,0.98,
2.818,0.07,0.09,0.20,-0.02,-0.01,0.98,
2.818,0.06,0.06,0.14,-0.02,-0.01,0.98,
2.82,0.06,0.06,0.14,-0.01,-0.01,0.98,
2.823,0.06,0.06,0.14,-0.02,-0.01,0.98,
2.823,0.05,0.05,0.09,-0.02,-0.01,0.98,
2.825,0.05,0.05,0.09,-0.02,-0.01,0.97,
2.828,0.05,0.05,0.09,-0.02,-0.01,0.97,
2.828,0.05,0.06,0.06,-0.02,-0.01,0.97,
2.831,0.05,0.06,0.06,-0.02,-0.01,0.97,
2.833,0.05,0.06,0.06,-0.02,-0.01,0.97,
2.833,0.03,0.07,-0.00,-0.02,-0.01,0.97,
2.835,0.03,0.07,-0.00,-0.01,-0.01,0.97,
2.838,0.03,0.07,-0.00,-0.01,-0.01,0.97,
2.838,0.04,0.08,-0.02,-0.01,-0.01,0.97,
2.84,0.04,0.08,-0.02,-0.01,-0.01,0.97,
2.843,0.04,0.08,-0.02,-0.00,-0.01,0.97,
2.843,0.10,0.09,-0.05,-0.00,-0.01,0.97,
2.845,0.10,0.09,-0.05,0.00,-0.01,0.96,
2.848,0.10,0.09,-0.05,0.01,-0.00,0.96,
2.848,0.17,0.12,-0.08,0.01,-0.00,0.96,
2.85,0.17,0.12,-0.08,0.00,-0.00,0.96,
2.853,0.17,0.12,-0.08,0.00,-0.00,0.96,
2.853,0.26,0.14,-0.09,0.00,-0.00,0.96,
2.855,0.26,0.14,-0.09,0.01,-0.00,0.96,
2.857,0.26,0.14,-0.09,0.01,0.00,0.96,
2.858,0.27,0.16,-0.09,0.01,0.00,0.96,
2.86,0.27,0.16,-0.09,0.01,0.01,0.96,
2.862,0.27,0.16,-0.09,0.01,0.01,0.96,
2.863,0.31,0.17,-0.09,0.01,0.01,0.96,
2.865,0.31,0.17,-0.09,0.01,0.01,0.96,
2.867,0.31,0.17,-0.09,0.01,0.01,0.97,
2.867,0.29,0.27,-0.13,0.01,0.01,0.97,
2.869,0.29,0.27,-0.13,0.01,0.01,0.97,
2.873,0.29,0.27,-0.13,0.01,0.01,0.97,
2.873,0.30,0.32,-0.08,0.01,0.01,0.97,
2.88,0.30,0.32,-0.08,0.01,0.01,0.97,
2.88,0.30,0.32,-0.08,0.02,0.01,0.97,
2.881,0.32,0.31,-0.03,0.02,0.01,0.97,
2.881,0.32,0.31,-0.03,0.02,0.01,0.97,
2.882,0.32,0.31,-0.03,0.02,0.01,0.98,
2.882,0.37,0.29,-0.02,0.02,0.01,0.98,
2.884,0.37,0.29,-0.02,0.01,0.01,0.98,
2.887,0.37,0.29,-0.02,0.01,0.02,0.98,
2.887,0.38,0.28,0.02,0.01,0.02,0.98,
2.895,0.38,0.28,0.02,0.01,0.02,0.98,
2.895,0.38,0.28,0.02,0.01,0.02,0.98,
2.896,0.35,0.32,0.03,0.01,0.02,0.98,
2.896,0.35,0.32,0.03,0.00,0.02,0.98,
2.897,0.35,0.32,0.03,-0.00,0.02,0.98,
2.897,0.28,0.33,0.04,-0.00,0.02,0.98,
2.899,0.28,0.33,0.04,-0.00,0.02,0.98,
2.902,0.28,0.33,0.04,-0.00,0.02,0.98,
2.902,0.21,0.33,0.07,-0.00,0.02,0.98,
2.904,0.21,0.33,0.07,-0.00,0.01,0.98,
2.906,0.21,0.33,0.07,-0.00,0.01,0.98,
2.907,0.18,0.31,0.07,-0.00,0.01,0.98,
2.909,0.18,0.31,0.07,-0.00,0.01,0.99,
2.911,0.18,0.31,0.07,-0.00,0.01,0.99,
2.912,0.18,0.28,0.09,-0.00,0.01,0.99,
2.914,0.18,0.28,0.09,-0.00,0.01,0.99,
2.916,0.18,0.28,0.09,-0.01,0.01,0.94,
2.917,0.17,0.24,0.13,-0.01,0.01,0.94,
2.918,0.17,0.24,0.13,-0.01,-0.00,0.88,
2.921,0.17,0.24,0.13,0.00,-0.01,0.88,
2.921,0.15,0.22,-0.08,0.00,-0.01,0.88,
2.923,0.15,0.22,-0.08,0.02,-0.01,0.91,
2.926,0.15,0.22,-0.08,0.01,-0.01,0.93,
2.927,0.19,0.12,-0.89,0.01,-0.01,0.93,
2.928,0.19,0.12,-0.89,0.00,-0.01,0.93,
2.931,0.19,0.12,-0.89,0.00,-0.00,0.93,
2.931,0.35,0.06,-0.50,0.00,-0.00,0.93,
2.933,0.35,0.06,-0.50,0.00,0.00,0.93,
2.936,0.35,0.06,-0.50,0.01,0.00,0.93,
2.936,0.22,0.11,-0.40,0.01,0.00,0.93,
2.938,0.22,0.11,-0.40,0.02,-0.00,0.94,
2.941,0.22,0.11,-0.40,0.02,-0.01,0.94,
2.941,0.27,0.19,-0.41,0.02,-0.01,0.94,
2.943,0.27,0.19,-0.41,0.03,-0.01,0.94,
2.945,0.27,0.19,-0.41,0.03,-0.02,0.95,
2.946,0.40,0.14,-0.32,0.03,-0.02,0.95,
2.948,0.40,0.14,-0.32,0.03,-0.02,0.95,
2.95,0.40,0.14,-0.32,0.03,-0.02,0.97,
2.951,0.47,0.05,-0.24,0.03,-0.02,0.97,
2.953,0.47,0.05,-0.24,0.02,-0.01,0.97,
2.955,0.47,0.05,-0.24,0.02,-0.01,0.98,
2.956,0.47,0.05,-0.10,0.02,-0.01,0.98,
2.958,0.47,0.05,-0.10,0.02,-0.01,0.98,
2.96,0.47,0.05,-0.10,0.02,-0.02,0.99,
2.96,0.43,0.10,0.05,0.02,-0.02,0.99,
2.962,0.43,0.10,0.05,0.02,-0.02,1.00,
2.965,0.43,0.10,0.05,0.02,-0.01,1.01,
2.966,0.41,0.10,0.14,0.02,-0.01,1.01,
2.968,0.41,0.10,0.14,0.01,-0.01,1.02,
2.97,0.41,0.10,0.14,0.01,-0.01,1.03,
2.97,0.41,0.13,0.35,0.01,-0.01,1.03,
2.976,0.41,0.13,0.35,-0.00,-0.02,1.04,
2.977,0.41,0.13,0.35,-0.01,-0.02,1.05,
2.977,0.33,0.15,0.56,-0.01,-0.02,1.05,
2.977,0.33,0.15,0.56,-0.01,-0.02,1.05,
2.98,0.23,0.11,0.69,-0.01,-0.02,1.05,
2.98,0.23,0.11,0.69,-0.02,-0.02,1.06,
2.982,0.23,0.11,0.69,-0.02,-0.02,1.07,
2.985,0.23,0.11,0.69,-0.03,-0.02,1.07,
2.985,0.11,0.11,0.82,-0.03,-0.02,1.07,
2.987,0.11,0.11,0.82,-0.04,-0.02,1.08,
2.99,0.11,0.11,0.82,-0.04,-0.02,1.09,
2.99,0.01,0.10,0.95,-0.04,-0.02,1.09,
2.992,0.01,0.10,0.95,-0.05,-0.02,1.09,
2.994,0.01,0.10,0.95,-0.05,-0.03,1.09,
2.995,-0.12,0.09,1.07,-0.05,-0.03,1.09,
2.997,-0.12,0.09,1.07,-0.05,-0.03,1.08,
2.999,-0.12,0.09,1.07,-0.06,-0.03,1.08,
2.999,-0.22,0.02,1.10,-0.06,-0.03,1.08,
3.002,-0.22,0.02,1.10,-0.06,-0.03,1.08,
3.004,-0.28,-0.03,1.05,-0.06,-0.03,1.08,
3.004,-0.28,-0.03,1.05,-0.05,-0.03,1.07,
3.007,-0.28,-0.03,1.05,-0.05,-0.03,1.06,
3.009,-0.28,-0.03,1.05,-0.05,-0.03,1.05,
3.01,-0.27,-0.09,0.97,-0.05,-0.03,1.05,
3.012,-0.27,-0.09,0.97,-0.05,-0.03,1.04,
3.014,-0.27,-0.09,0.97,-0.05,-0.02,1.03,
3.014,-0.27,-0.06,0.80,-0.05,-0.02,1.03,
3.016,-0.27,-0.06,0.80,-0.05,-0.02,1.02,
3.019,-0.27,-0.06,0.80,-0.04,-0.02,1.01,
3.019,-0.21,-0.03,0.59,-0.04,-0.02,1.01,
3.021,-0.21,-0.03,0.59,-0.03,-0.02,1.01,
