
time,ax,ay,az,gFx,gFy,gFz,
0.002,0.14,0.04,0.08,0.00,0.13,0.98,
0.002,0.12,0.05,0.05,0.00,0.13,0.98,
0.002,0.12,0.05,0.05,0.00,0.13,0.98,
0.002,0.12,0.05,0.05,-0.00,0.13,0.98,
0.003,0.12,0.08,0.03,-0.00,0.13,0.98,
0.005,0.12,0.08,0.03,-0.00,0.13,0.98,
0.007,0.12,0.08,0.03,-0.00,0.14,0.98,
0.007,0.10,0.09,0.01,-0.00,0.14,0.98,
0.01,0.10,0.09,0.01,-0.00,0.13,0.98,
0.013,0.10,0.09,0.01,-0.01,0.13,0.98,
0.014,0.08,0.12,0.03,-0.01,0.13,0.98,
0.015,0.08,0.12,0.03,-0.01,0.13,0.98,
0.018,0.08,0.12,0.03,-0.00,0.13,0.98,
0.018,0.06,0.10,0.03,-0.00,0.13,0.98,
0.02,0.06,0.10,0.03,-0.00,0.13,0.98,
0.022,0.06,0.10,0.03,-0.01,0.14,0.98,
0.022,0.06,0.10,0.01,-0.01,0.14,0.98,
0.024,0.06,0.10,0.01,-0.01,0.13,0.98,
0.027,0.06,0.10,0.01,-0.01,0.13,0.98,
0.027,0.06,0.12,0.03,-0.01,0.13,0.98,
0.03,0.06,0.12,0.03,-0.01,0.13,0.98,
0.032,0.06,0.12,0.03,-0.01,0.13,0.98,
0.032,0.01,0.12,0.03,-0.01,0.13,0.98,
0.034,0.01,0.12,0.03,-0.01,0.13,0.98,
0.037,0.01,0.12,0.03,-0.01,0.13,0.98,
0.037,0.01,0.10,0.03,-0.01,0.13,0.98,
0.039,0.01,0.10,0.03,-0.01,0.13,0.98,
0.042,0.01,0.10,0.03,-0.02,0.13,0.98,
0.042,-0.00,0.10,0.04,-0.02,0.13,0.98,
0.044,-0.00,0.10,0.04,-0.02,0.13,0.98,
0.047,-0.00,0.10,0.04,-0.01,0.13,0.97,
0.047,-0.04,0.08,0.03,-0.01,0.13,0.97,
0.049,-0.04,0.08,0.03,-0.01,0.13,0.97,
0.052,-0.04,0.08,0.03,-0.02,0.13,0.97,
0.052,-0.02,0.07,-0.00,-0.02,0.13,0.97,
0.054,-0.02,0.07,-0.00,-0.01,0.13,0.97,
0.056,-0.02,0.07,-0.00,-0.01,0.13,0.97,
0.057,-0.03,0.06,-0.02,-0.01,0.13,0.97,
0.059,-0.03,0.06,-0.02,-0.01,0.12,0.97,
0.062,-0.03,0.06,-0.02,-0.01,0.12,0.97,
0.063,-0.02,0.03,-0.04,-0.01,0.12,0.97,
0.064,-0.02,0.03,-0.04,-0.01,0.13,0.97,
0.067,-0.02,0.03,-0.04,-0.01,0.12,0.96,
0.067,-0.01,0.02,-0.09,-0.01,0.12,0.96,
0.069,-0.01,0.02,-0.09,-0.01,0.12,0.96,
0.071,-0.01,0.02,-0.09,-0.01,0.12,0.96,
0.071,0.01,0.02,-0.09,-0.01,0.12,0.96,
0.074,0.01,0.02,-0.09,-0.01,0.12,0.96,
0.076,0.01,0.02,-0.09,-0.01,0.12,0.96,
0.076,-0.00,-0.00,-0.10,-0.01,0.12,0.96,
0.079,-0.00,-0.00,-0.10,-0.01,0.12,0.96,
0.081,-0.00,-0.00,-0.10,-0.01,0.12,0.96,
0.082,-0.01,-0.01,-0.11,-0.01,0.12,0.96,
0.084,-0.01,-0.01,-0.11,-0.01,0.12,0.96,
0.086,-0.01,-0.01,-0.11,-0.02,0.12,0.96,
0.086,-0.01,-0.00,-0.11,-0.02,0.12,0.96,
0.088,-0.01,-0.00,-0.11,-0.02,0.12,0.96,
0.091,-0.01,-0.00,-0.11,-0.02,0.12,0.96,
0.091,-0.03,-0.01,-0.10,-0.02,0.12,0.96,
0.093,-0.03,-0.01,-0.10,-0.02,0.12,0.96,
0.096,-0.03,-0.01,-0.10,-0.01,0.12,0.96,
0.096,-0.04,-0.05,-0.10,-0.01,0.12,0.96,
0.104,-0.04,-0.05,-0.10,-0.01,0.11,0.96,
0.104,-0.04,-0.05,-0.10,-0.01,0.11,0.96,
0.105,-0.01,-0.06,-0.09,-0.01,0.11,0.96,
0.105,-0.01,-0.06,-0.09,-0.01,0.11,0.97,
0.106,-0.01,-0.06,-0.09,-0.01,0.11,0.97,
0.106,0.01,-0.10,-0.09,-0.01,0.11,0.97,
0.108,0.01,-0.10,-0.09,-0.01,0.11,0.97,
0.11,0.01,-0.10,-0.09,-0.01,0.11,0.97,
0.11,-0.00,-0.11,-0.07,-0.01,0.11,0.97,
0.113,-0.00,-0.11,-0.07,-0.02,0.11,0.97,
0.115,-0.00,-0.11,-0.07,-0.02,0.12,0.97,
0.115,-0.01,-0.11,-0.07,-0.02,0.12,0.97,
0.118,-0.01,-0.11,-0.07,-0.02,0.12,0.97,
0.12,-0.01,-0.11,-0.07,-0.02,0.12,0.97,
0.12,-0.06,-0.08,-0.03,-0.02,0.12,0.97,
0.122,-0.06,-0.08,-0.03,-0.02,0.12,0.97,
0.125,-0.06,-0.08,-0.03,-0.02,0.12,0.97,
0.125,-0.07,-0.07,-0.01,-0.02,0.12,0.97,
0.127,-0.07,-0.07,-0.01,-0.02,0.12,0.97,
0.131,-0.07,-0.07,-0.01,-0.02,0.12,0.97,
0.131,-0.07,-0.05,-0.02,-0.02,0.12,0.97,
0.133,-0.07,-0.05,-0.02,-0.02,0.12,0.97,
0.135,-0.07,-0.05,-0.02,-0.01,0.12,0.98,
0.135,-0.06,-0.05,-0.01,-0.01,0.12,0.98,
0.137,-0.06,-0.05,-0.01,-0.01,0.12,0.98,
0.14,-0.06,-0.05,-0.01,-0.01,0.12,0.98,
0.14,-0.03,-0.04,0.02,-0.01,0.12,0.98,
0.142,-0.03,-0.04,0.02,-0.01,0.12,0.98,
0.145,-0.03,-0.04,0.02,-0.01,0.12,0.98,
0.145,0.00,-0.03,0.04,-0.01,0.12,0.98,
0.147,0.00,-0.03,0.04,-0.01,0.12,0.98,
0.15,0.00,-0.03,0.04,-0.01,0.12,0.98,
0.15,0.00,-0.02,0.05,-0.01,0.12,0.98,
0.152,0.00,-0.02,0.05,-0.01,0.12,0.98,
0.154,0.00,-0.02,0.05,-0.01,0.12,0.98,
0.155,0.03,-0.01,0.04,-0.01,0.12,0.98,
0.157,0.03,-0.01,0.04,-0.01,0.12,0.98,
0.159,0.03,-0.01,0.04,-0.01,0.12,0.98,
0.159,0.05,-0.00,0.03,-0.01,0.12,0.98,
0.162,0.05,-0.00,0.03,-0.00,0.12,0.98,
0.164,0.05,-0.00,0.03,-0.01,0.13,0.97,
0.164,0.07,0.02,0.03,-0.01,0.13,0.97,
0.167,0.07,0.02,0.03,-0.01,0.13,0.97,
0.169,0.07,0.02,0.03,-0.01,0.13,0.97,
0.17,0.07,0.02,0.01,-0.01,0.13,0.97,
0.171,0.07,0.02,0.01,-0.00,0.13,0.97,
0.174,0.07,0.02,0.01,-0.00,0.12,0.98,
0.174,0.06,0.03,-0.00,-0.00,0.12,0.98,
0.176,0.06,0.03,-0.00,-0.00,0.12,0.98,
0.185,0.06,0.03,-0.00,0.00,0.12,0.98,
0.186,0.08,0.03,0.02,0.00,0.12,0.98,
0.186,0.08,0.03,0.02,-0.00,0.12,0.98,
0.186,0.08,0.03,0.02,0.00,0.12,0.98,
0.186,0.11,0.01,0.03,0.00,0.12,0.98,
0.187,0.11,0.01,0.03,0.00,0.12,0.98,
0.189,0.11,0.01,0.03,-0.00,0.12,0.98,
0.189,0.11,0.00,0.03,-0.00,0.12,0.98,
0.191,0.11,0.00,0.03,-0.00,0.12,0.98,
0.193,0.11,0.00,0.03,-0.01,0.12,0.98,
0.194,0.10,-0.01,0.04,-0.01,0.12,0.98,
0.196,0.10,-0.01,0.04,-0.01,0.12,0.98,
0.199,0.10,-0.01,0.04,-0.01,0.12,0.98,
0.199,0.06,-0.02,0.04,-0.01,0.12,0.98,
0.201,0.06,-0.02,0.04,-0.01,0.12,0.98,
0.204,0.06,-0.02,0.04,-0.01,0.12,0.98,
0.204,0.04,-0.05,0.06,-0.01,0.12,0.98,
0.206,0.04,-0.05,0.06,-0.01,0.12,0.98,
0.208,0.04,-0.05,0.06,-0.01,0.12,0.98,
0.208,0.05,-0.05,0.07,-0.01,0.12,0.98,
0.211,0.05,-0.05,0.07,-0.01,0.11,0.98,
0.213,0.05,-0.05,0.07,-0.01,0.11,0.97,
0.214,0.02,-0.06,0.04,-0.01,0.11,0.97,
0.216,0.02,-0.06,0.04,-0.01,0.11,0.97,
0.218,0.02,-0.06,0.04,-0.01,0.11,0.97,
0.218,0.00,-0.09,0.00,-0.01,0.11,0.97,
0.221,0.00,-0.09,0.00,-0.01,0.11,0.97,
0.223,0.00,-0.09,0.00,-0.02,0.11,0.96,
0.223,-0.01,-0.13,-0.06,-0.02,0.11,0.96,
0.225,-0.01,-0.13,-0.06,-0.02,0.11,0.96,
0.229,-0.01,-0.13,-0.06,-0.02,0.11,0.96,
0.229,-0.04,-0.13,-0.10,-0.02,0.11,0.96,
0.23,-0.04,-0.13,-0.10,-0.03,0.11,0.96,
0.233,-0.04,-0.13,-0.10,-0.03,0.11,0.95,
0.233,-0.09,-0.12,-0.15,-0.03,0.11,0.95,
0.235,-0.09,-0.12,-0.15,-0.03,0.11,0.95,
0.238,-0.15,-0.12,-0.18,-0.03,0.11,0.95,
0.238,-0.15,-0.12,-0.18,-0.03,0.11,0.95,
0.24,-0.15,-0.12,-0.18,-0.03,0.11,0.95,
0.242,-0.15,-0.12,-0.18,-0.03,0.11,0.95,
0.243,-0.18,-0.11,-0.20,-0.03,0.11,0.95,
0.245,-0.18,-0.11,-0.20,-0.03,0.11,0.95,
0.248,-0.18,-0.11,-0.20,-0.03,0.11,0.95,
0.248,-0.17,-0.13,-0.22,-0.03,0.11,0.95,
0.25,-0.17,-0.13,-0.22,-0.03,0.11,0.95,
0.252,-0.17,-0.13,-0.22,-0.03,0.11,0.95,
0.253,-0.14,-0.13,-0.23,-0.03,0.11,0.95,
0.255,-0.14,-0.13,-0.23,-0.03,0.11,0.95,
0.257,-0.14,-0.13,-0.23,-0.03,0.11,0.96,
0.257,-0.14,-0.14,-0.21,-0.03,0.11,0.96,
0.26,-0.14,-0.14,-0.21,-0.03,0.11,0.96,
0.262,-0.14,-0.14,-0.21,-0.03,0.11,0.96,
0.263,-0.15,-0.11,-0.17,-0.03,0.11,0.96,
0.265,-0.15,-0.11,-0.17,-0.03,0.11,0.96,
0.268,-0.15,-0.11,-0.17,-0.03,0.11,0.96,
0.268,-0.16,-0.10,-0.14,-0.03,0.11,0.96,
0.269,-0.16,-0.10,-0.14,-0.03,0.11,0.96,
0.272,-0.16,-0.10,-0.14,-0.03,0.11,0.97,
0.272,-0.15,-0.09,-0.10,-0.03,0.11,0.97,
0.274,-0.15,-0.09,-0.10,-0.03,0.11,0.97,
0.277,-0.15,-0.09,-0.10,-0.03,0.11,0.97,
0.277,-0.15,-0.09,-0.07,-0.03,0.11,0.97,
0.281,-0.15,-0.09,-0.07,-0.03,0.11,0.97,
0.282,-0.15,-0.09,-0.07,-0.03,0.11,0.97,
0.282,-0.15,-0.10,-0.04,-0.03,0.11,0.97,
0.284,-0.15,-0.10,-0.04,-0.03,0.11,0.97,
0.287,-0.15,-0.10,-0.04,-0.03,0.11,0.97,
0.287,-0.14,-0.11,-0.03,-0.03,0.11,0.97,
0.289,-0.14,-0.11,-0.03,-0.03,0.11,0.97,
0.291,-0.14,-0.11,-0.03,-0.03,0.11,0.97,
0.291,-0.14,-0.13,-0.01,-0.03,0.11,0.97,
0.294,-0.14,-0.13,-0.01,-0.03,0.11,0.97,
0.296,-0.14,-0.13,-0.01,-0.03,0.11,0.97,
0.297,-0.18,-0.13,-0.03,-0.03,0.11,0.97,
0.299,-0.18,-0.13,-0.03,-0.04,0.11,0.97,
0.301,-0.18,-0.13,-0.03,-0.04,0.11,0.97,
0.301,-0.21,-0.12,-0.04,-0.04,0.11,0.97,
0.303,-0.21,-0.12,-0.04,-0.04,0.11,0.97,
0.306,-0.21,-0.12,-0.04,-0.04,0.11,0.97,
0.306,-0.27,-0.10,-0.03,-0.04,0.11,0.97,
0.308,-0.27,-0.10,-0.03,-0.04,0.12,0.97,
0.311,-0.27,-0.10,-0.03,-0.04,0.11,0.97,
0.311,-0.28,-0.08,-0.04,-0.04,0.11,0.97,
0.313,-0.28,-0.08,-0.04,-0.04,0.11,0.97,
0.316,-0.28,-0.08,-0.04,-0.04,0.12,0.97,
0.316,-0.30,-0.06,-0.05,-0.04,0.12,0.97,
0.318,-0.30,-0.06,-0.05,-0.04,0.12,0.97,
0.321,-0.30,-0.06,-0.05,-0.04,0.11,0.97,
0.321,-0.28,-0.06,-0.07,-0.04,0.11,0.97,
0.323,-0.28,-0.06,-0.07,-0.04,0.12,0.97,
0.326,-0.28,-0.06,-0.07,-0.04,0.12,0.97,
0.326,-0.25,-0.06,-0.05,-0.04,0.12,0.97,
0.328,-0.25,-0.06,-0.05,-0.04,0.12,0.97,
0.331,-0.25,-0.06,-0.05,-0.04,0.12,0.97,
0.331,-0.25,-0.03,-0.03,-0.04,0.12,0.97,
0.333,-0.25,-0.03,-0.03,-0.04,0.12,0.97,
0.335,-0.25,-0.03,-0.03,-0.03,0.12,0.97,
0.336,-0.24,-0.01,-0.01,-0.03,0.12,0.97,
0.338,-0.24,-0.01,-0.01,-0.03,0.12,0.97,
0.341,-0.24,-0.01,-0.01,-0.03,0.12,0.98,
0.341,-0.22,0.01,0.00,-0.03,0.12,0.98,
0.343,-0.22,0.01,0.00,-0.03,0.12,0.98,
0.345,-0.22,0.01,0.00,-0.03,0.12,0.98,
0.346,-0.21,0.03,0.05,-0.03,0.12,0.98,
0.348,-0.21,0.03,0.05,-0.03,0.12,0.98,
0.35,-0.21,0.03,0.05,-0.03,0.12,0.98,
0.351,-0.19,0.04,0.08,-0.03,0.12,0.98,
0.353,-0.19,0.04,0.08,-0.03,0.12,0.98,
0.355,-0.19,0.04,0.08,-0.03,0.12,0.99,
0.355,-0.18,0.04,0.10,-0.03,0.12,0.99,
0.358,-0.18,0.04,0.10,-0.03,0.12,0.99,
0.36,-0.18,0.04,0.10,-0.03,0.12,0.98,
0.36,-0.16,0.04,0.12,-0.03,0.12,0.98,
0.362,-0.16,0.04,0.12,-0.03,0.12,0.98,
0.365,-0.16,0.04,0.12,-0.03,0.12,0.98,
0.365,-0.16,0.01,0.12,-0.03,0.12,0.98,
0.367,-0.16,0.01,0.12,-0.03,0.12,0.99,
0.37,-0.16,0.01,0.12,-0.03,0.12,0.99,
0.37,-0.16,0.01,0.11,-0.03,0.12,0.99,
0.372,-0.16,0.01,0.11,-0.04,0.12,0.99,
0.375,-0.16,0.01,0.11,-0.04,0.12,0.99,
0.375,-0.19,0.02,0.13,-0.04,0.12,0.99,
0.385,-0.19,0.02,0.13,-0.04,0.12,0.98,
0.385,-0.19,0.02,0.13,-0.04,0.12,0.98,
0.386,-0.25,0.02,0.13,-0.04,0.12,0.98,
0.386,-0.25,0.02,0.13,-0.04,0.12,0.98,
0.386,-0.25,0.02,0.13,-0.04,0.12,0.98,
0.386,-0.28,0.04,0.11,-0.04,0.12,0.98,
0.387,-0.28,0.04,0.11,-0.04,0.12,0.98,
0.389,-0.28,0.04,0.11,-0.05,0.12,0.98,
0.389,-0.31,0.03,0.11,-0.05,0.12,0.98,
0.392,-0.31,0.03,0.11,-0.05,0.12,0.98,
0.394,-0.31,0.03,0.11,-0.05,0.12,0.98,
0.395,-0.31,0.01,0.11,-0.05,0.12,0.98,
0.397,-0.31,0.01,0.11,-0.05,0.11,0.98,
0.399,-0.31,0.01,0.11,-0.05,0.12,0.98,
0.399,-0.33,-0.03,0.09,-0.05,0.12,0.98,
0.402,-0.33,-0.03,0.09,-0.05,0.12,0.99,
0.404,-0.33,-0.03,0.09,-0.05,0.12,0.99,
0.404,-0.34,-0.03,0.09,-0.05,0.12,0.99,
0.406,-0.34,-0.03,0.09,-0.05,0.12,0.99,
0.409,-0.34,-0.03,0.09,-0.06,0.12,0.99,
0.41,-0.36,-0.00,0.12,-0.06,0.12,0.99,
0.411,-0.36,-0.00,0.12,-0.06,0.12,0.99,
0.414,-0.36,-0.00,0.12,-0.06,0.12,0.99,
0.414,-0.40,0.03,0.15,-0.06,0.12,0.99,
0.416,-0.40,0.03,0.15,-0.06,0.12,0.99,
0.419,-0.40,0.03,0.15,-0.06,0.12,0.99,
0.419,-0.44,0.04,0.17,-0.06,0.12,0.99,
0.421,-0.44,0.04,0.17,-0.05,0.11,0.99,
0.424,-0.44,0.04,0.17,-0.05,0.11,0.99,
0.424,-0.42,0.01,0.16,-0.05,0.11,0.99,
0.426,-0.42,0.01,0.16,-0.05,0.11,0.99,
0.429,-0.42,0.01,0.16,-0.05,0.11,0.99,
0.43,-0.37,-0.04,0.20,-0.05,0.11,0.99,
0.431,-0.37,-0.04,0.20,-0.05,0.11,0.99,
0.434,-0.37,-0.04,0.20,-0.06,0.11,0.99,
0.434,-0.37,-0.06,0.19,-0.06,0.11,0.99,
0.436,-0.37,-0.06,0.19,-0.06,0.11,0.99,
0.438,-0.37,-0.06,0.19,-0.06,0.12,0.99,
0.438,-0.37,-0.07,0.19,-0.06,0.12,0.99,
0.441,-0.37,-0.07,0.19,-0.06,0.12,0.99,
0.445,-0.37,-0.07,0.19,-0.06,0.12,0.99,
0.445,-0.44,-0.03,0.19,-0.06,0.12,0.99,
0.446,-0.44,-0.03,0.19,-0.06,0.11,0.99,
0.448,-0.45,-0.03,0.17,-0.06,0.11,0.99,
0.449,-0.45,-0.03,0.17,-0.06,0.11,0.99,
0.451,-0.45,-0.03,0.17,-0.06,0.11,0.99,
0.453,-0.45,-0.03,0.17,-0.06,0.11,0.99,
0.453,-0.45,-0.05,0.16,-0.06,0.11,0.99,
0.455,-0.45,-0.05,0.16,-0.06,0.11,0.99,
0.458,-0.45,-0.05,0.16,-0.07,0.11,0.99,
0.458,-0.45,-0.08,0.16,-0.07,0.11,0.99,
0.461,-0.45,-0.08,0.16,-0.07,0.11,0.99,
0.463,-0.45,-0.08,0.16,-0.07,0.11,0.99,
0.463,-0.46,-0.08,0.13,-0.07,0.11,0.99,
0.465,-0.46,-0.08,0.13,-0.07,0.11,0.99,
0.468,-0.46,-0.08,0.13,-0.07,0.11,0.98,
0.468,-0.45,-0.07,0.12,-0.07,0.11,0.98,
0.47,-0.45,-0.07,0.12,-0.07,0.11,0.98,
0.473,-0.45,-0.07,0.12,-0.07,0.11,0.98,
0.473,-0.45,-0.05,0.10,-0.07,0.11,0.98,
0.475,-0.45,-0.05,0.10,-0.07,0.11,0.98,
0.478,-0.45,-0.05,0.10,-0.07,0.11,0.98,
0.478,-0.47,-0.06,0.07,-0.07,0.11,0.98,
0.48,-0.47,-0.06,0.07,-0.07,0.11,0.98,
0.482,-0.47,-0.06,0.07,-0.07,0.11,0.98,
0.483,-0.48,-0.07,0.05,-0.07,0.11,0.98,
0.485,-0.48,-0.07,0.05,-0.08,0.11,0.98,
0.487,-0.48,-0.07,0.05,-0.08,0.11,0.98,
0.487,-0.51,-0.07,0.05,-0.08,0.11,0.98,
0.49,-0.51,-0.07,0.05,-0.08,0.11,0.97,
0.492,-0.51,-0.07,0.05,-0.08,0.11,0.97,
0.493,-0.53,-0.07,0.02,-0.08,0.11,0.97,
0.499,-0.53,-0.07,0.02,-0.08,0.11,0.97,
0.499,-0.53,-0.07,0.02,-0.09,0.11,0.97,
0.499,-0.54,-0.09,-0.01,-0.09,0.11,0.97,
0.499,-0.54,-0.09,-0.01,-0.09,0.10,0.97,
0.502,-0.54,-0.09,-0.01,-0.09,0.10,0.97,
0.502,-0.58,-0.12,-0.02,-0.09,0.10,0.97,
0.504,-0.58,-0.12,-0.02,-0.09,0.10,0.97,
0.507,-0.58,-0.12,-0.02,-0.09,0.10,0.97,
0.507,-0.61,-0.14,-0.06,-0.09,0.10,0.97,
0.509,-0.61,-0.14,-0.06,-0.09,0.10,0.97,
0.512,-0.61,-0.14,-0.06,-0.09,0.09,0.97,
0.513,-0.62,-0.19,-0.07,-0.09,0.09,0.97,
0.514,-0.62,-0.19,-0.07,-0.09,0.09,0.97,
0.517,-0.62,-0.19,-0.07,-0.10,0.09,0.96,
0.517,-0.64,-0.23,-0.09,-0.10,0.09,0.96,
0.519,-0.64,-0.23,-0.09,-0.10,0.09,0.96,
0.522,-0.64,-0.23,-0.09,-0.10,0.09,0.96,
0.522,-0.65,-0.27,-0.11,-0.10,0.09,0.96,
0.524,-0.65,-0.27,-0.11,-0.10,0.08,0.97,
0.526,-0.65,-0.27,-0.11,-0.10,0.08,0.96,
0.527,-0.67,-0.30,-0.11,-0.10,0.08,0.96,
0.529,-0.67,-0.30,-0.11,-0.10,0.08,0.97,
0.531,-0.67,-0.30,-0.11,-0.10,0.08,0.97,
0.532,-0.66,-0.35,-0.11,-0.10,0.08,0.97,
0.534,-0.66,-0.35,-0.11,-0.10,0.07,0.97,
0.536,-0.66,-0.35,-0.11,-0.10,0.08,0.97,
0.536,-0.68,-0.39,-0.08,-0.10,0.08,0.97,
0.539,-0.68,-0.39,-0.08,-0.10,0.08,0.97,
0.541,-0.68,-0.39,-0.08,-0.10,0.07,0.97,
0.542,-0.69,-0.40,-0.06,-0.10,0.07,0.97,
0.544,-0.69,-0.40,-0.06,-0.10,0.08,0.97,
0.546,-0.68,-0.39,-0.04,-0.10,0.08,0.97,
0.547,-0.68,-0.39,-0.04,-0.10,0.08,0.97,
0.548,-0.68,-0.39,-0.04,-0.10,0.08,0.97,
0.551,-0.68,-0.39,-0.04,-0.10,0.08,0.97,
0.551,-0.66,-0.38,-0.02,-0.10,0.08,0.97,
0.553,-0.66,-0.38,-0.02,-0.10,0.08,0.97,
0.556,-0.66,-0.38,-0.02,-0.10,0.08,0.97,
0.556,-0.63,-0.37,-0.02,-0.10,0.08,0.97,
0.558,-0.63,-0.37,-0.02,-0.10,0.08,0.97,
0.561,-0.63,-0.37,-0.02,-0.10,0.09,0.97,
0.561,-0.61,-0.35,-0.04,-0.10,0.09,0.97,
0.563,-0.61,-0.35,-0.04,-0.10,0.09,0.97,
0.566,-0.61,-0.35,-0.04,-0.10,0.09,0.96,
0.566,-0.61,-0.30,-0.07,-0.10,0.09,0.96,
0.568,-0.61,-0.30,-0.07,-0.10,0.09,0.96,
0.57,-0.61,-0.30,-0.07,-0.11,0.09,0.96,
0.571,-0.64,-0.25,-0.10,-0.11,0.09,0.96,
0.573,-0.64,-0.25,-0.10,-0.11,0.09,0.96,
0.575,-0.65,-0.24,-0.13,-0.11,0.09,0.96,
0.576,-0.65,-0.24,-0.13,-0.11,0.09,0.95,
0.578,-0.65,-0.24,-0.13,-0.11,0.09,0.95,
0.581,-0.65,-0.24,-0.13,-0.11,0.09,0.95,
0.581,-0.66,-0.22,-0.18,-0.11,0.09,0.95,
0.583,-0.66,-0.22,-0.18,-0.11,0.09,0.94,
0.585,-0.66,-0.22,-0.18,-0.12,0.09,0.94,
0.586,-0.69,-0.22,-0.25,-0.12,0.09,0.94,
0.587,-0.69,-0.22,-0.25,-0.12,0.08,0.94,
0.59,-0.69,-0.22,-0.25,-0.12,0.08,0.93,
0.59,-0.71,-0.26,-0.32,-0.12,0.08,0.93,
0.592,-0.71,-0.26,-0.32,-0.12,0.08,0.93,
0.597,-0.71,-0.26,-0.32,-0.12,0.08,0.93,
0.597,-0.73,-0.30,-0.38,-0.12,0.08,0.93,
0.597,-0.73,-0.30,-0.38,-0.12,0.07,0.93,
0.6,-0.73,-0.30,-0.38,-0.13,0.07,0.93,
0.601,-0.74,-0.34,-0.42,-0.13,0.07,0.93,
0.602,-0.74,-0.34,-0.42,-0.13,0.07,0.93,
0.605,-0.74,-0.34,-0.42,-0.12,0.07,0.93,
0.605,-0.77,-0.38,-0.42,-0.12,0.07,0.93,
0.607,-0.77,-0.38,-0.42,-0.12,0.07,0.93,
0.61,-0.77,-0.38,-0.42,-0.13,0.06,0.93,
0.61,-0.77,-0.41,-0.42,-0.13,0.06,0.93,
0.612,-0.77,-0.41,-0.42,-0.12,0.06,0.93,
0.615,-0.77,-0.41,-0.42,-0.12,0.06,0.93,
0.615,-0.75,-0.45,-0.41,-0.12,0.06,0.93,
0.617,-0.75,-0.45,-0.41,-0.12,0.05,0.93,
0.619,-0.75,-0.45,-0.41,-0.12,0.05,0.93,
0.62,-0.71,-0.51,-0.39,-0.12,0.05,0.93,
0.622,-0.71,-0.51,-0.39,-0.11,0.06,0.94,
0.624,-0.71,-0.51,-0.39,-0.11,0.06,0.94,
0.624,-0.66,-0.54,-0.37,-0.11,0.06,0.94,
0.627,-0.66,-0.54,-0.37,-0.11,0.06,0.94,
0.629,-0.66,-0.54,-0.37,-0.11,0.06,0.94,
0.629,-0.61,-0.52,-0.33,-0.11,0.06,0.94,
0.632,-0.61,-0.52,-0.33,-0.11,0.06,0.94,
0.634,-0.61,-0.52,-0.33,-0.10,0.06,0.94,
0.635,-0.57,-0.49,-0.33,-0.10,0.06,0.94,
0.636,-0.57,-0.49,-0.33,-0.10,0.06,0.94,
0.639,-0.57,-0.49,-0.33,-0.10,0.06,0.94,
0.639,-0.51,-0.46,-0.29,-0.10,0.06,0.94,
0.641,-0.51,-0.46,-0.29,-0.10,0.06,0.94,
0.644,-0.43,-0.45,-0.28,-0.10,0.06,0.94,
0.644,-0.43,-0.45,-0.28,-0.10,0.06,0.94,
0.646,-0.43,-0.45,-0.28,-0.09,0.06,0.94,
0.649,-0.43,-0.45,-0.28,-0.09,0.06,0.94,
0.649,-0.40,-0.44,-0.27,-0.09,0.06,0.94,
0.651,-0.40,-0.44,-0.27,-0.10,0.06,0.94,
0.654,-0.40,-0.44,-0.27,-0.10,0.06,0.94,
0.654,-0.38,-0.42,-0.26,-0.10,0.06,0.94,
0.656,-0.38,-0.42,-0.26,-0.10,0.06,0.94,
0.659,-0.38,-0.42,-0.26,-0.11,0.06,0.94,
0.659,-0.38,-0.39,-0.25,-0.11,0.06,0.94,
0.662,-0.38,-0.39,-0.25,-0.11,0.06,0.94,
0.665,-0.38,-0.39,-0.25,-0.11,0.06,0.94,
0.665,-0.45,-0.39,-0.27,-0.11,0.06,0.94,
0.666,-0.45,-0.39,-0.27,-0.12,0.06,0.94,
0.669,-0.45,-0.39,-0.27,-0.12,0.05,0.93,
0.669,-0.49,-0.42,-0.29,-0.12,0.05,0.93,
0.671,-0.49,-0.42,-0.29,-0.12,0.05,0.93,
0.673,-0.49,-0.42,-0.29,-0.13,0.04,0.93,
0.674,-0.55,-0.47,-0.34,-0.13,0.04,0.93,
0.676,-0.55,-0.47,-0.34,-0.13,0.04,0.93,
0.683,-0.55,-0.47,-0.34,-0.13,0.03,0.92,
0.684,-0.61,-0.54,-0.38,-0.13,0.03,0.92,
0.684,-0.61,-0.54,-0.38,-0.14,0.03,0.92,
0.684,-0.61,-0.54,-0.38,-0.14,0.03,0.92,
0.684,-0.67,-0.62,-0.42,-0.14,0.03,0.92,
0.686,-0.67,-0.62,-0.42,-0.14,0.03,0.92,
0.688,-0.67,-0.62,-0.42,-0.15,0.02,0.92,
0.688,-0.73,-0.68,-0.43,-0.15,0.02,0.92,
0.69,-0.73,-0.68,-0.43,-0.14,0.02,0.92,
0.694,-0.77,-0.71,-0.43,-0.14,0.02,0.92,
0.694,-0.77,-0.71,-0.43,-0.14,0.02,0.92,
0.695,-0.77,-0.71,-0.43,-0.14,0.02,0.93,
0.698,-0.77,-0.71,-0.43,-0.14,0.02,0.93,
0.698,-0.76,-0.76,-0.43,-0.14,0.02,0.93,
0.701,-0.76,-0.76,-0.43,-0.14,0.02,0.93,
0.703,-0.76,-0.76,-0.43,-0.14,0.02,0.94,
0.703,-0.73,-0.76,-0.36,-0.14,0.02,0.94,
0.705,-0.73,-0.76,-0.36,-0.13,0.02,0.94,
0.708,-0.73,-0.76,-0.36,-0.13,0.03,0.94,
0.708,-0.67,-0.74,-0.31,-0.13,0.03,0.94,
0.71,-0.67,-0.74,-0.31,-0.12,0.03,0.95,
0.713,-0.67,-0.74,-0.31,-0.12,0.03,0.95,
0.713,-0.61,-0.67,-0.24,-0.12,0.03,0.95,
0.715,-0.61,-0.67,-0.24,-0.11,0.03,0.96,
0.718,-0.61,-0.67,-0.24,-0.10,0.04,0.96,
0.718,-0.50,-0.59,-0.16,-0.10,0.04,0.96,
0.72,-0.50,-0.59,-0.16,-0.09,0.04,0.96,
0.722,-0.50,-0.59,-0.16,-0.09,0.04,0.97,
0.722,-0.34,-0.54,-0.06,-0.09,0.04,0.97,
0.725,-0.34,-0.54,-0.06,-0.08,0.04,0.97,
0.727,-0.34,-0.54,-0.06,-0.08,0.05,0.97,
0.728,-0.20,-0.48,0.01,-0.08,0.05,0.97,
0.73,-0.20,-0.48,0.01,-0.08,0.05,0.97,
0.732,-0.20,-0.48,0.01,-0.07,0.06,0.97,
0.733,-0.10,-0.42,0.04,-0.07,0.06,0.97,
0.735,-0.10,-0.42,0.04,-0.07,0.06,0.97,
0.737,-0.10,-0.42,0.04,-0.06,0.06,0.97,
0.737,-0.02,-0.33,0.04,-0.06,0.06,0.97,
0.74,-0.02,-0.33,0.04,-0.06,0.06,0.96,
0.742,-0.02,-0.33,0.04,-0.06,0.06,0.96,
0.743,0.08,-0.28,0.01,-0.06,0.06,0.96,
0.745,0.08,-0.28,0.01,-0.06,0.06,0.95,
0.747,0.08,-0.28,0.01,-0.06,0.06,0.95,
0.748,0.12,-0.26,-0.06,-0.06,0.06,0.95,
0.749,0.12,-0.26,-0.06,-0.06,0.06,0.94,
0.752,0.12,-0.26,-0.06,-0.06,0.06,0.94,
0.752,0.17,-0.26,-0.17,-0.06,0.06,0.94,
0.754,0.17,-0.26,-0.17,-0.06,0.06,0.93,
0.757,0.17,-0.26,-0.17,-0.06,0.06,0.93,
0.757,0.17,-0.28,-0.26,-0.06,0.06,0.93,
0.759,0.17,-0.28,-0.26,-0.06,0.06,0.92,
0.762,0.17,-0.28,-0.26,-0.06,0.05,0.92,
0.763,0.14,-0.29,-0.36,-0.06,0.05,0.92,
0.764,0.14,-0.29,-0.36,-0.07,0.05,0.92,
0.767,0.14,-0.29,-0.36,-0.06,0.05,0.92,
0.767,0.15,-0.31,-0.43,-0.06,0.05,0.92,
0.769,0.15,-0.31,-0.43,-0.06,0.05,0.92,
0.771,0.15,-0.31,-0.43,-0.06,0.04,0.92,
0.772,0.13,-0.32,-0.46,-0.06,0.04,0.92,
0.774,0.13,-0.32,-0.46,-0.06,0.04,0.92,
0.783,0.13,-0.32,-0.46,-0.06,0.04,0.92,
0.783,0.15,-0.38,-0.48,-0.06,0.04,0.92,
0.784,0.15,-0.38,-0.48,-0.06,0.04,0.92,
0.784,0.15,-0.38,-0.48,-0.05,0.04,0.92,
0.784,0.18,-0.43,-0.46,-0.05,0.04,0.92,
0.784,0.18,-0.43,-0.46,-0.05,0.04,0.92,
0.787,0.18,-0.43,-0.46,-0.05,0.04,0.93,
0.787,0.25,-0.44,-0.43,-0.05,0.04,0.93,
0.789,0.25,-0.44,-0.43,-0.04,0.04,0.93,
0.791,0.31,-0.43,-0.37,-0.04,0.04,0.93,
0.792,0.31,-0.43,-0.37,-0.04,0.04,0.93,
0.799,0.31,-0.43,-0.37,-0.04,0.04,0.94,
0.799,0.31,-0.43,-0.37,-0.03,0.04,0.95,
0.799,0.39,-0.40,-0.30,-0.03,0.04,0.95,
0.799,0.39,-0.40,-0.30,-0.03,0.04,0.95,
0.801,0.39,-0.40,-0.30,-0.03,0.05,0.96,
0.801,0.46,-0.36,-0.19,-0.03,0.05,0.96,
0.803,0.46,-0.36,-0.19,-0.03,0.05,0.96,
0.805,0.46,-0.36,-0.19,-0.02,0.05,0.96,
0.806,0.51,-0.30,-0.09,-0.02,0.05,0.96,
0.808,0.51,-0.30,-0.09,-0.02,0.05,0.96,
0.811,0.51,-0.30,-0.09,-0.02,0.05,0.96,
0.811,0.56,-0.27,-0.03,-0.02,0.05,0.96,
0.813,0.56,-0.27,-0.03,-0.02,0.05,0.96,
0.816,0.56,-0.27,-0.03,-0.02,0.05,0.96,
0.817,0.60,-0.26,-0.03,-0.02,0.05,0.96,
0.818,0.60,-0.26,-0.03,-0.02,0.05,0.96,
0.821,0.60,-0.26,-0.03,-0.02,0.05,0.96,
0.821,0.63,-0.26,-0.02,-0.02,0.05,0.96,
0.823,0.63,-0.26,-0.02,-0.03,0.05,0.96,
0.825,0.63,-0.26,-0.02,-0.03,0.05,0.96,
0.825,0.60,-0.23,-0.00,-0.03,0.05,0.96,
0.828,0.60,-0.23,-0.00,-0.03,0.05,0.95,
0.83,0.60,-0.23,-0.00,-0.03,0.05,0.95,
0.83,0.56,-0.20,-0.05,-0.03,0.05,0.95,
0.833,0.56,-0.20,-0.05,-0.03,0.05,0.94,
0.835,0.56,-0.20,-0.05,-0.03,0.04,0.94,
0.835,0.54,-0.21,-0.11,-0.03,0.04,0.94,
0.838,0.54,-0.21,-0.11,-0.03,0.04,0.94,
0.84,0.54,-0.21,-0.11,-0.02,0.04,0.93,
0.84,0.55,-0.26,-0.20,-0.02,0.04,0.93,
0.842,0.55,-0.26,-0.20,-0.02,0.03,0.93,
0.845,0.55,-0.26,-0.20,-0.03,0.03,0.92,
0.846,0.57,-0.29,-0.28,-0.03,0.03,0.92,
0.847,0.57,-0.29,-0.28,-0.02,0.03,0.92,
0.85,0.57,-0.29,-0.28,-0.03,0.02,0.92,
0.85,0.59,-0.35,-0.35,-0.03,0.02,0.92,
0.852,0.59,-0.35,-0.35,-0.02,0.02,0.92,
0.855,0.59,-0.41,-0.41,-0.02,0.02,0.92,
0.855,0.59,-0.41,-0.41,-0.02,0.02,0.92,
0.857,0.59,-0.41,-0.41,-0.02,0.01,0.92,
0.861,0.59,-0.41,-0.41,-0.02,0.01,0.92,
0.862,0.60,-0.46,-0.42,-0.02,0.01,0.92,
0.862,0.60,-0.46,-0.42,-0.01,0.01,0.92,
0.865,0.60,-0.46,-0.42,-0.01,0.01,0.92,
0.865,0.67,-0.49,-0.41,-0.01,0.01,0.92,
0.867,0.67,-0.49,-0.41,-0.00,0.02,0.92,
0.869,0.67,-0.49,-0.41,0.00,0.02,0.93,
0.87,0.74,-0.50,-0.40,0.00,0.02,0.93,
0.872,0.74,-0.50,-0.40,0.01,0.02,0.93,
0.874,0.74,-0.50,-0.40,0.02,0.03,0.94,
0.875,0.82,-0.42,-0.34,0.02,0.03,0.94,
0.877,0.82,-0.42,-0.34,0.03,0.03,0.94,
0.879,0.82,-0.42,-0.34,0.04,0.03,0.95,
0.88,0.97,-0.36,-0.24,0.04,0.03,0.95,
0.882,0.97,-0.36,-0.24,0.04,0.04,0.96,
0.884,0.97,-0.36,-0.24,0.05,0.04,0.96,
0.884,1.12,-0.24,-0.11,0.05,0.04,0.96,
0.886,1.12,-0.24,-0.11,0.07,0.04,0.97,
0.889,1.12,-0.24,-0.11,0.08,0.04,0.97,
0.889,1.28,-0.20,0.01,0.08,0.04,0.97,
0.891,1.28,-0.20,0.01,0.08,0.04,0.98,
0.899,1.28,-0.20,0.01,0.09,0.04,0.98,
0.9,1.48,-0.16,0.11,0.09,0.04,0.98,
0.9,1.48,-0.16,0.11,0.10,0.05,0.98,
0.9,1.48,-0.16,0.11,0.10,0.05,0.99,
0.9,1.62,-0.11,0.20,0.10,0.05,0.99,
0.901,1.62,-0.11,0.20,0.10,0.05,0.99,
0.904,1.62,-0.11,0.20,0.10,0.05,0.99,
0.904,1.71,-0.05,0.24,0.10,0.05,0.99,
0.906,1.71,-0.05,0.24,0.11,0.05,0.99,
0.908,1.71,-0.05,0.24,0.11,0.05,0.99,
0.909,1.75,-0.01,0.31,0.11,0.05,0.99,
0.911,1.75,-0.01,0.31,0.12,0.05,0.99,
0.913,1.75,-0.01,0.31,0.12,0.05,0.98,
0.914,1.81,0.01,0.30,0.12,0.05,0.98,
0.916,1.81,0.01,0.30,0.12,0.05,0.98,
0.918,1.81,0.01,0.30,0.12,0.05,0.97,
0.92,1.87,0.00,0.25,0.12,0.05,0.97,
0.921,1.87,0.00,0.25,0.12,0.04,0.97,
0.923,1.87,0.00,0.25,0.11,0.04,0.96,
0.924,1.85,-0.03,0.14,0.11,0.04,0.96,
0.926,1.85,-0.03,0.14,0.11,0.04,0.95,
0.928,1.85,-0.03,0.14,0.10,0.03,0.95,
0.929,1.80,-0.08,0.01,0.10,0.03,0.95,
0.93,1.80,-0.08,0.01,0.09,0.03,0.94,
0.933,1.80,-0.08,0.01,0.09,0.02,0.93,
0.933,1.68,-0.15,-0.11,0.09,0.02,0.93,
0.935,1.68,-0.15,-0.11,0.08,0.02,0.93,
0.938,1.68,-0.15,-0.11,0.07,0.02,0.93,
0.938,1.54,-0.23,-0.24,0.07,0.02,0.93,
0.94,1.54,-0.23,-0.24,0.07,0.02,0.92,
0.943,1.54,-0.23,-0.24,0.06,0.02,0.92,
0.943,1.44,-0.28,-0.33,0.06,0.02,0.92,
0.945,1.44,-0.28,-0.33,0.06,0.02,0.92,
0.948,1.44,-0.28,-0.33,0.06,0.02,0.92,
0.948,1.26,-0.27,-0.40,0.06,0.02,0.92,
0.95,1.26,-0.27,-0.40,0.06,0.03,0.92,
0.952,1.26,-0.27,-0.40,0.06,0.03,0.92,
0.953,1.18,-0.21,-0.44,0.06,0.03,0.92,
0.955,1.18,-0.21,-0.44,0.06,0.03,0.92,
0.958,1.18,-0.21,-0.44,0.07,0.03,0.93,
0.958,1.18,-0.13,-0.41,0.07,0.03,0.93,
0.96,1.18,-0.13,-0.41,0.07,0.04,0.93,
0.963,1.18,-0.13,-0.41,0.08,0.04,0.94,
0.963,1.27,-0.06,-0.34,0.08,0.04,0.94,
0.965,1.27,-0.06,-0.34,0.09,0.04,0.94,
0.967,1.27,-0.06,-0.34,0.10,0.05,0.95,
0.968,1.37,-0.01,-0.24,0.10,0.05,0.95,
0.97,1.37,-0.01,-0.24,0.10,0.05,0.95,
0.972,1.37,-0.01,-0.24,0.11,0.05,0.96,
0.973,1.49,0.07,-0.16,0.11,0.05,0.96,
0.975,1.49,0.07,-0.16,0.11,0.06,0.96,
0.977,1.49,0.07,-0.16,0.12,0.06,0.97,
0.978,1.61,0.17,-0.07,0.12,0.06,0.97,
0.979,1.61,0.17,-0.07,0.13,0.07,0.97,
0.982,1.61,0.17,-0.07,0.14,0.07,0.97,
0.982,1.71,0.27,0.03,0.14,0.07,0.97,
0.985,1.71,0.27,0.03,0.14,0.08,0.98,
0.987,1.71,0.27,0.03,0.15,0.08,0.98,
0.987,1.84,0.39,0.11,0.15,0.08,0.98,
0.989,1.84,0.39,0.11,0.15,0.08,0.98,
0.992,1.84,0.39,0.11,0.16,0.08,0.98,
0.992,1.96,0.49,0.17,0.16,0.08,0.98,
0.999,1.96,0.49,0.17,0.17,0.08,0.98,
1.0,1.96,0.49,0.17,0.18,0.08,0.98,
1.0,2.10,0.51,0.20,0.18,0.08,0.98,
1.0,2.10,0.51,0.20,0.19,0.08,0.98,
1.002,2.10,0.51,0.20,0.20,0.08,0.98,
1.002,2.28,0.53,0.20,0.20,0.08,0.98,
1.004,2.28,0.53,0.20,0.20,0.09,0.98,
1.006,2.28,0.53,0.20,0.21,0.09,0.98,
1.007,2.43,0.56,0.20,0.21,0.09,0.98,
1.01,2.43,0.56,0.20,0.22,0.09,0.98,
1.012,2.43,0.56,0.20,0.23,0.09,0.98,
1.012,2.55,0.60,0.19,0.23,0.09,0.98,
1.014,2.55,0.60,0.19,0.24,0.10,0.98,
1.016,2.55,0.60,0.19,0.24,0.10,0.98,
1.016,2.68,0.66,0.17,0.24,0.10,0.98,
1.018,2.68,0.66,0.17,0.25,0.10,0.98,
1.021,2.68,0.66,0.17,0.25,0.10,0.98,
1.021,2.83,0.71,0.17,0.25,0.10,0.98,
1.023,2.83,0.71,0.17,0.26,0.10,0.98,
1.026,2.83,0.71,0.17,0.26,0.10,0.99,
1.027,2.93,0.73,0.18,0.26,0.10,0.99,
1.028,2.93,0.73,0.18,0.26,0.10,0.99,
1.031,2.93,0.73,0.18,0.26,0.11,1.00,
1.031,3.00,0.78,0.25,0.26,0.11,1.00,
1.033,3.00,0.78,0.25,0.26,0.11,1.01,
1.036,3.00,0.78,0.25,0.26,0.11,1.02,
1.036,3.00,0.83,0.34,0.26,0.11,1.02,
1.038,3.00,0.83,0.34,0.26,0.11,1.01,
1.041,3.00,0.83,0.34,0.26,0.11,1.01,
1.041,2.94,0.90,0.50,0.26,0.11,1.01,
1.043,2.94,0.90,0.50,0.26,0.11,1.02,
1.046,2.94,0.90,0.50,0.27,0.11,1.03,
1.046,2.88,0.93,0.48,0.27,0.11,1.03,
1.048,2.88,0.93,0.48,0.27,0.10,1.03,
1.051,2.88,0.93,0.48,0.27,0.10,1.04,
1.051,2.95,0.89,0.60,0.27,0.10,1.04,
1.053,2.95,0.89,0.60,0.27,0.10,1.04,
1.055,2.95,0.89,0.60,0.27,0.10,1.05,
1.056,2.99,0.84,0.73,0.27,0.10,1.05,
1.058,2.99,0.84,0.73,0.27,0.10,1.05,
1.061,2.99,0.84,0.73,0.26,0.10,1.05,
1.061,2.95,0.81,0.83,0.26,0.10,1.05,
1.063,2.95,0.81,0.83,0.26,0.09,1.05,
1.065,2.95,0.81,0.83,0.26,0.09,1.05,
1.066,2.87,0.79,0.87,0.26,0.09,1.05,
1.068,2.87,0.79,0.87,0.26,0.09,1.05,
1.07,2.87,0.79,0.87,0.26,0.08,1.05,
1.07,2.81,0.76,0.87,0.26,0.08,1.05,
1.073,2.81,0.76,0.87,0.26,0.08,1.05,
1.075,2.81,0.76,0.87,0.26,0.07,1.04,
1.075,2.75,0.69,0.84,0.26,0.07,1.04,
1.083,2.75,0.69,0.84,0.26,0.07,1.04,
1.083,2.75,0.69,0.84,0.26,0.06,1.04,
1.083,2.74,0.59,0.80,0.26,0.06,1.04,
1.086,2.74,0.59,0.80,0.25,0.06,1.04,
1.086,2.74,0.59,0.80,0.25,0.06,1.03,
1.086,2.70,0.49,0.75,0.25,0.06,1.03,
1.087,2.70,0.49,0.75,0.25,0.06,1.03,
1.09,2.70,0.49,0.75,0.25,0.05,1.03,
1.09,2.64,0.45,0.69,0.25,0.05,1.03,
1.095,2.64,0.45,0.69,0.25,0.05,1.03,
1.096,2.60,0.42,0.65,0.25,0.05,1.03,
1.097,2.60,0.42,0.65,0.25,0.05,1.03,
1.097,2.60,0.42,0.65,0.25,0.05,1.03,
1.099,2.60,0.42,0.65,0.25,0.05,1.04,
1.1,2.56,0.40,0.67,0.25,0.05,1.04,
1.102,2.56,0.40,0.67,0.24,0.05,1.04,
1.104,2.56,0.40,0.67,0.25,0.05,1.04,
1.104,2.51,0.42,0.70,0.25,0.05,1.04,
1.107,2.51,0.42,0.70,0.25,0.05,1.04,
1.109,2.51,0.42,0.70,0.25,0.05,1.04,
1.11,2.47,0.43,0.72,0.25,0.05,1.04,
1.112,2.47,0.43,0.72,0.25,0.05,1.05,
1.115,2.47,0.43,0.72,0.25,0.05,1.05,
1.115,2.47,0.40,0.78,0.25,0.05,1.05,
1.117,2.47,0.40,0.78,0.25,0.05,1.05,
1.119,2.47,0.40,0.78,0.25,0.05,1.05,
1.119,2.45,0.40,0.82,0.25,0.05,1.05,
1.121,2.45,0.40,0.82,0.25,0.05,1.06,
1.124,2.45,0.40,0.82,0.25,0.05,1.06,
1.124,2.45,0.40,0.86,0.25,0.05,1.06,
1.126,2.45,0.40,0.86,0.25,0.05,1.06,
1.129,2.45,0.40,0.86,0.25,0.04,1.05,
1.13,2.45,0.40,0.90,0.25,0.04,1.05,
1.132,2.45,0.40,0.90,0.25,0.04,1.05,
1.134,2.45,0.40,0.90,0.25,0.04,1.05,
1.135,2.41,0.36,0.89,0.25,0.04,1.05,
1.136,2.41,0.36,0.89,0.25,0.04,1.05,
1.139,2.41,0.36,0.89,0.24,0.03,1.04,
1.139,2.37,0.34,0.83,0.24,0.03,1.04,
1.141,2.37,0.34,0.83,0.24,0.03,1.04,
1.144,2.37,0.34,0.83,0.23,0.03,1.03,
1.144,2.32,0.28,0.77,0.23,0.03,1.03,
1.146,2.32,0.28,0.77,0.23,0.03,1.02,
1.149,2.32,0.28,0.77,0.22,0.03,1.02,
1.149,2.21,0.23,0.68,0.22,0.03,1.02,
1.151,2.21,0.23,0.68,0.22,0.02,1.01,
1.153,2.21,0.23,0.68,0.21,0.02,1.00,
1.154,2.10,0.20,0.55,0.21,0.02,1.00,
1.156,2.10,0.20,0.55,0.21,0.02,1.00,
1.158,2.10,0.20,0.55,0.20,0.01,0.99,
1.159,1.98,0.13,0.41,0.20,0.01,0.99,
1.161,1.98,0.13,0.41,0.19,0.01,0.98,
1.164,1.98,0.13,0.41,0.19,0.01,0.98,
1.164,1.86,0.08,0.30,0.19,0.01,0.98,
1.166,1.86,0.08,0.30,0.18,0.01,0.97,
1.168,1.86,0.08,0.30,0.17,0.01,0.97,
1.168,1.71,0.05,0.16,0.17,0.01,0.97,
1.17,1.71,0.05,0.16,0.16,0.01,0.97,
1.173,1.71,0.05,0.16,0.15,0.02,0.96,
1.173,1.57,0.05,0.07,0.15,0.02,0.96,
1.182,1.57,0.05,0.07,0.14,0.02,0.96,
1.183,1.57,0.05,0.07,0.13,0.03,0.96,
1.183,1.37,0.10,-0.01,0.13,0.03,0.96,
1.183,1.37,0.10,-0.01,0.13,0.03,0.96,
1.183,1.16,0.18,-0.07,0.13,0.03,0.96,
1.184,1.16,0.18,-0.07,0.12,0.03,0.96,
1.185,1.16,0.18,-0.07,0.11,0.04,0.96,
1.188,1.16,0.18,-0.07,0.11,0.04,0.96,
1.188,0.99,0.24,-0.08,0.11,0.04,0.96,
1.19,0.99,0.24,-0.08,0.11,0.05,0.96,
1.195,0.99,0.24,-0.08,0.11,0.05,0.96,
1.196,0.88,0.34,-0.05,0.11,0.05,0.96,
1.196,0.88,0.34,-0.05,0.12,0.05,0.96,
1.198,0.88,0.34,-0.05,0.12,0.05,0.96,
1.199,0.86,0.43,-0.03,0.12,0.05,0.96,
1.2,0.86,0.43,-0.03,0.13,0.05,0.97,
1.202,0.86,0.43,-0.03,0.13,0.06,0.97,
1.202,0.89,0.47,-0.01,0.13,0.06,0.97,
1.205,0.89,0.47,-0.01,0.14,0.06,0.97,
1.207,0.89,0.47,-0.01,0.14,0.06,0.98,
1.207,0.96,0.52,0.05,0.14,0.06,0.98,
1.21,0.96,0.52,0.05,0.15,0.06,0.98,
1.212,0.96,0.52,0.05,0.15,0.07,0.98,
1.212,1.05,0.58,0.10,0.15,0.07,0.98,
1.215,1.05,0.58,0.10,0.16,0.07,0.98,
1.217,1.05,0.58,0.10,0.16,0.07,0.98,
1.217,1.11,0.64,0.14,0.16,0.07,0.98,
1.219,1.11,0.64,0.14,0.16,0.07,0.98,
1.222,1.11,0.64,0.14,0.16,0.07,0.98,
1.222,1.18,0.67,0.18,0.16,0.07,0.98,
1.224,1.18,0.67,0.18,0.17,0.07,0.98,
1.227,1.18,0.67,0.18,0.17,0.07,0.99,
1.227,1.21,0.66,0.18,0.17,0.07,0.99,
1.229,1.21,0.66,0.18,0.17,0.07,0.99,
1.232,1.22,0.66,0.20,0.17,0.07,0.99,
1.232,1.22,0.66,0.20,0.17,0.07,0.99,
1.234,1.22,0.66,0.20,0.17,0.07,1.00,
1.236,1.22,0.66,0.20,0.16,0.08,1.00,
1.237,1.22,0.69,0.25,0.16,0.08,1.00,
1.239,1.22,0.69,0.25,0.16,0.08,1.01,
1.242,1.22,0.69,0.25,0.16,0.08,1.01,
1.242,1.16,0.73,0.33,0.16,0.08,1.01,
1.244,1.16,0.73,0.33,0.15,0.08,1.02,
1.247,1.16,0.73,0.33,0.14,0.08,1.02,
1.247,1.06,0.76,0.44,0.14,0.08,1.02,
1.249,1.06,0.76,0.44,0.14,0.08,1.03,
1.251,1.06,0.76,0.44,0.14,0.07,1.03,
1.252,0.93,0.78,0.54,0.14,0.07,1.03,
1.254,0.93,0.78,0.54,0.13,0.07,1.04,
1.256,0.80,0.75,0.63,0.13,0.07,1.04,
1.257,0.80,0.75,0.63,0.13,0.06,1.04,
1.259,0.80,0.75,0.63,0.13,0.06,1.05,
1.261,0.80,0.75,0.63,0.13,0.05,1.05,
1.262,0.72,0.67,0.74,0.13,0.05,1.05,
1.264,0.72,0.67,0.74,0.12,0.05,1.05,
1.266,0.72,0.67,0.74,0.12,0.05,1.06,
1.267,0.66,0.57,0.83,0.12,0.05,1.06,
1.268,0.66,0.57,0.83,0.12,0.04,1.06,
1.271,0.56,0.51,0.90,0.12,0.04,1.06,
1.271,0.56,0.51,0.90,0.12,0.04,1.06,
1.273,0.56,0.51,0.90,0.11,0.04,1.06,
1.276,0.56,0.51,0.90,0.11,0.03,1.06,
1.277,0.47,0.45,0.97,0.11,0.03,1.06,
1.279,0.47,0.45,0.97,0.11,0.03,1.07,
1.281,0.47,0.45,0.97,0.12,0.03,1.07,
1.281,0.40,0.37,0.99,0.12,0.03,1.07,
1.283,0.40,0.37,0.99,0.12,0.03,1.06,
1.286,0.40,0.37,0.99,0.12,0.02,1.06,
1.286,0.41,0.33,1.02,0.12,0.02,1.06,
1.288,0.41,0.33,1.02,0.13,0.02,1.06,
1.291,0.41,0.33,1.02,0.13,0.02,1.06,
1.291,0.44,0.28,0.98,0.13,0.02,1.06,
1.297,0.44,0.28,0.98,0.13,0.01,1.05,
1.297,0.44,0.28,0.98,0.13,0.01,1.05,
1.297,0.46,0.20,0.92,0.13,0.01,1.05,
1.298,0.46,0.20,0.92,0.13,0.01,1.04,
1.3,0.46,0.20,0.92,0.13,0.01,1.03,
1.3,0.47,0.16,0.85,0.13,0.01,1.03,
1.303,0.47,0.16,0.85,0.13,0.01,1.03,
1.305,0.47,0.16,0.85,0.12,0.01,1.02,
1.306,0.44,0.12,0.73,0.12,0.01,1.02,
1.307,0.44,0.12,0.73,0.12,0.01,1.02,
1.31,0.44,0.12,0.73,0.11,0.02,1.01,
1.31,0.36,0.12,0.61,0.11,0.02,1.01,
1.312,0.36,0.12,0.61,0.10,0.02,1.00,
1.315,0.36,0.12,0.61,0.10,0.02,1.00,
1.315,0.23,0.15,0.50,0.10,0.02,1.00,
1.318,0.23,0.15,0.50,0.09,0.02,1.00,
1.32,0.23,0.15,0.50,0.09,0.03,0.99,
1.32,0.09,0.18,0.39,0.09,0.03,0.99,
1.322,0.09,0.18,0.39,0.08,0.03,0.99,
1.325,0.09,0.18,0.39,0.08,0.03,0.98,
1.325,-0.04,0.24,0.30,0.08,0.03,0.98,
1.327,-0.04,0.24,0.30,0.07,0.04,0.98,
1.33,-0.04,0.24,0.30,0.07,0.04,0.98,
1.331,-0.14,0.30,0.22,0.07,0.04,0.98,
1.332,-0.14,0.30,0.22,0.07,0.04,0.98,
1.335,-0.14,0.30,0.22,0.06,0.04,0.98,
1.335,-0.25,0.36,0.19,0.06,0.04,0.98,
1.337,-0.25,0.36,0.19,0.06,0.05,0.98,
1.339,-0.25,0.36,0.19,0.06,0.05,0.99,
1.34,-0.34,0.42,0.18,0.06,0.05,0.99,
1.342,-0.34,0.42,0.18,0.06,0.06,0.99,
1.345,-0.34,0.42,0.18,0.07,0.06,0.99,
1.345,-0.39,0.50,0.22,0.07,0.06,0.99,
1.347,-0.39,0.50,0.22,0.07,0.06,1.00,
1.349,-0.39,0.50,0.22,0.08,0.06,1.00,
1.349,-0.37,0.56,0.29,0.08,0.06,1.00,
1.352,-0.37,0.56,0.29,0.08,0.06,1.01,
1.354,-0.37,0.56,0.29,0.08,0.06,1.01,
1.354,-0.32,0.61,0.39,0.08,0.06,1.01,
1.356,-0.32,0.61,0.39,0.09,0.06,1.02,
1.36,-0.32,0.61,0.39,0.09,0.06,1.02,
1.361,-0.26,0.60,0.51,0.09,0.06,1.02,
1.362,-0.26,0.60,0.51,0.09,0.06,1.02,
1.364,-0.26,0.60,0.51,0.10,0.06,1.02,
1.364,-0.20,0.58,0.57,0.10,0.06,1.02,
1.366,-0.20,0.58,0.57,0.10,0.06,1.03,
1.369,-0.20,0.58,0.57,0.10,0.06,1.03,
1.369,-0.17,0.57,0.61,0.10,0.06,1.03,
1.371,-0.17,0.57,0.61,0.10,0.05,1.03,
1.374,-0.17,0.57,0.61,0.10,0.05,1.03,
1.374,-0.16,0.56,0.67,0.10,0.05,1.03,
1.381,-0.16,0.56,0.67,0.10,0.05,1.03,
1.382,-0.16,0.56,0.67,0.09,0.05,1.03,
1.382,-0.18,0.53,0.72,0.09,0.05,1.03,
1.382,-0.18,0.53,0.72,0.09,0.04,1.04,
1.384,-0.18,0.53,0.72,0.09,0.04,1.04,
1.384,-0.23,0.48,0.72,0.09,0.04,1.04,
1.386,-0.23,0.48,0.72,0.08,0.03,1.04,
1.39,-0.23,0.48,0.72,0.08,0.02,1.04,
1.39,-0.30,0.38,0.75,0.08,0.02,1.04,
1.391,-0.30,0.38,0.75,0.08,0.02,1.03,
1.393,-0.30,0.38,0.75,0.07,0.01,1.03,
1.394,-0.41,0.27,0.75,0.07,0.01,1.03,
1.396,-0.41,0.27,0.75,0.06,0.00,1.03,
1.398,-0.41,0.27,0.75,0.06,-0.00,1.03,
1.398,-0.53,0.14,0.72,0.06,-0.00,1.03,
1.4,-0.53,0.14,0.72,0.06,-0.01,1.03,
1.403,-0.53,0.14,0.72,0.05,-0.02,1.03,
1.403,-0.65,0.00,0.73,0.05,-0.02,1.03,
1.405,-0.65,0.00,0.73,0.04,-0.02,1.03,
1.408,-0.65,0.00,0.73,0.04,-0.03,1.03,
1.41,-0.76,-0.13,0.74,0.04,-0.03,1.03,
1.41,-0.76,-0.13,0.74,0.03,-0.03,1.03,
1.413,-0.76,-0.13,0.74,0.02,-0.03,1.03,
1.413,-0.90,-0.24,0.73,0.02,-0.03,1.03,
1.415,-0.90,-0.24,0.73,0.02,-0.04,1.03,
1.418,-0.90,-0.24,0.73,0.02,-0.04,1.04,
1.418,-1.04,-0.31,0.73,0.02,-0.04,1.04,
1.42,-1.04,-0.31,0.73,0.01,-0.04,1.04,
1.423,-1.04,-0.31,0.73,0.01,-0.04,1.04,
1.423,-1.16,-0.38,0.75,0.01,-0.04,1.04,
1.425,-1.16,-0.38,0.75,0.01,-0.04,1.04,
1.428,-1.16,-0.38,0.75,0.01,-0.04,1.04,
1.428,-1.24,-0.41,0.77,0.01,-0.04,1.04,
1.43,-1.24,-0.41,0.77,0.01,-0.05,1.04,
1.432,-1.24,-0.41,0.77,0.01,-0.05,1.04,
1.433,-1.30,-0.45,0.78,0.01,-0.05,1.04,
1.435,-1.30,-0.45,0.78,0.01,-0.05,1.04,
1.438,-1.30,-0.45,0.78,0.01,-0.05,1.04,
1.438,-1.32,-0.47,0.79,0.01,-0.05,1.04,
1.44,-1.32,-0.47,0.79,0.01,-0.06,1.03,
1.443,-1.32,-0.47,0.79,0.01,-0.06,1.03,
1.443,-1.31,-0.51,0.77,0.01,-0.06,1.03,
1.445,-1.31,-0.51,0.77,0.01,-0.06,1.03,
1.447,-1.31,-0.51,0.77,0.01,-0.06,1.03,
1.447,-1.30,-0.56,0.74,0.01,-0.06,1.03,
1.449,-1.30,-0.56,0.74,0.01,-0.06,1.03,
1.452,-1.30,-0.56,0.74,0.01,-0.06,1.03,
1.452,-1.28,-0.59,0.70,0.01,-0.06,1.03,
1.455,-1.28,-0.59,0.70,0.01,-0.06,1.02,
1.457,-1.28,-0.59,0.70,0.01,-0.07,1.02,
1.457,-1.28,-0.61,0.68,0.01,-0.07,1.02,
1.46,-1.28,-0.61,0.68,0.01,-0.07,1.02,
1.462,-1.28,-0.61,0.68,0.01,-0.07,1.02,
1.463,-1.29,-0.64,0.62,0.01,-0.07,1.02,
1.464,-1.29,-0.64,0.62,0.01,-0.07,1.01,
1.467,-1.29,-0.64,0.62,0.01,-0.07,1.01,
1.467,-1.32,-0.68,0.58,0.01,-0.07,1.01,
1.469,-1.32,-0.68,0.58,0.00,-0.08,1.01,
1.472,-1.32,-0.68,0.58,0.00,-0.08,1.01,
1.472,-1.34,-0.73,0.52,0.00,-0.08,1.01,
1.481,-1.34,-0.73,0.52,0.00,-0.08,1.00,
1.482,-1.34,-0.73,0.52,-0.00,-0.08,1.00,
1.482,-1.39,-0.77,0.48,-0.00,-0.08,1.00,
1.483,-1.39,-0.77,0.48,-0.01,-0.08,1.00,
1.483,-1.39,-0.77,0.48,-0.02,-0.08,0.99,
1.483,-1.45,-0.79,0.43,-0.02,-0.08,0.99,
1.484,-1.45,-0.79,0.43,-0.02,-0.08,0.99,
1.487,-1.45,-0.79,0.43,-0.03,-0.08,0.98,
1.487,-1.56,-0.81,0.36,-0.03,-0.08,0.98,
1.489,-1.56,-0.81,0.36,-0.03,-0.08,0.98,
1.495,-1.56,-0.81,0.36,-0.04,-0.08,0.98,
1.496,-1.67,-0.81,0.29,-0.04,-0.08,0.98,
1.496,-1.67,-0.81,0.29,-0.04,-0.08,0.97,
1.496,-1.67,-0.81,0.29,-0.05,-0.09,0.97,
1.496,-1.80,-0.82,0.20,-0.05,-0.09,0.97,
1.498,-1.80,-0.82,0.20,-0.05,-0.09,0.96,
1.501,-1.80,-0.82,0.20,-0.06,-0.09,0.96,
1.501,-1.89,-0.88,0.12,-0.06,-0.09,0.96,
1.503,-1.89,-0.88,0.12,-0.06,-0.10,0.95,
1.506,-1.89,-0.88,0.12,-0.07,-0.10,0.95,
1.507,-1.98,-0.94,0.03,-0.07,-0.10,0.95,
1.508,-1.98,-0.94,0.03,-0.07,-0.10,0.94,
1.511,-1.98,-0.94,0.03,-0.07,-0.10,0.94,
1.511,-2.08,-0.99,-0.06,-0.07,-0.10,0.94,
1.514,-2.08,-0.99,-0.06,-0.08,-0.11,0.94,
1.516,-2.08,-0.99,-0.06,-0.09,-0.11,0.94,
1.516,-2.14,-1.05,-0.15,-0.09,-0.11,0.94,
1.518,-2.14,-1.05,-0.15,-0.09,-0.11,0.94,
1.521,-2.14,-1.05,-0.15,-0.10,-0.11,0.94,
1.521,-2.25,-1.10,-0.19,-0.10,-0.11,0.94,
1.523,-2.25,-1.10,-0.19,-0.10,-0.11,0.94,
1.526,-2.25,-1.10,-0.19,-0.11,-0.11,0.94,
1.526,-2.39,-1.12,-0.19,-0.11,-0.11,0.94,
1.528,-2.39,-1.12,-0.19,-0.11,-0.11,0.95,
1.531,-2.49,-1.14,-0.16,-0.11,-0.11,0.95,
1.531,-2.49,-1.14,-0.16,-0.11,-0.11,0.95,
1.533,-2.49,-1.14,-0.16,-0.11,-0.11,0.95,
1.535,-2.49,-1.14,-0.16,-0.11,-0.12,0.95,
1.536,-2.55,-1.15,-0.11,-0.11,-0.12,0.95,
1.538,-2.55,-1.15,-0.11,-0.11,-0.12,0.96,
1.542,-2.55,-1.15,-0.11,-0.11,-0.12,0.96,
1.542,-2.58,-1.17,-0.06,-0.11,-0.12,0.96,
1.543,-2.58,-1.17,-0.06,-0.11,-0.12,0.97,
1.545,-2.60,-1.17,0.03,-0.11,-0.12,0.97,
1.546,-2.60,-1.17,0.03,-0.11,-0.12,0.97,
1.547,-2.60,-1.17,0.03,-0.11,-0.12,0.97,
1.55,-2.60,-1.17,0.03,-0.11,-0.12,0.98,
1.55,-2.57,-1.18,0.12,-0.11,-0.12,0.98,
1.552,-2.57,-1.18,0.12,-0.10,-0.12,0.98,
1.555,-2.57,-1.18,0.12,-0.11,-0.12,0.98,
1.555,-2.58,-1.19,0.19,-0.11,-0.12,0.98,
1.558,-2.58,-1.19,0.19,-0.11,-0.12,0.98,
1.56,-2.58,-1.19,0.19,-0.11,-0.12,0.98,
1.56,-2.58,-1.17,0.24,-0.11,-0.12,0.98,
1.562,-2.58,-1.17,0.24,-0.10,-0.12,0.98,
1.565,-2.58,-1.17,0.24,-0.10,-0.12,0.98,
1.565,-2.59,-1.17,0.28,-0.10,-0.12,0.98,
1.567,-2.59,-1.17,0.28,-0.10,-0.11,0.98,
1.57,-2.59,-1.17,0.28,-0.10,-0.11,0.98,
1.57,-2.55,-1.18,0.28,-0.10,-0.11,0.98,
1.573,-2.55,-1.18,0.28,-0.10,-0.11,0.98,
1.576,-2.55,-1.18,0.28,-0.09,-0.11,0.98,
1.576,-2.54,-1.15,0.27,-0.09,-0.11,0.98,
1.577,-2.54,-1.15,0.27,-0.09,-0.10,0.97,
1.58,-2.54,-1.15,0.27,-0.09,-0.10,0.97,
1.58,-2.51,-1.12,0.22,-0.09,-0.10,0.97,
1.582,-2.51,-1.12,0.22,-0.09,-0.10,0.96,
1.585,-2.51,-1.12,0.22,-0.09,-0.10,0.96,
1.585,-2.50,-1.05,0.14,-0.09,-0.10,0.96,
1.587,-2.50,-1.05,0.14,-0.10,-0.09,0.95,
1.589,-2.50,-1.05,0.14,-0.10,-0.09,0.95,
1.59,-2.51,-1.00,0.07,-0.10,-0.09,0.95,
1.595,-2.51,-1.00,0.07,-0.10,-0.09,0.95,
1.596,-2.51,-1.00,0.07,-0.10,-0.09,0.94,
1.596,-2.53,-0.96,-0.01,-0.10,-0.09,0.94,
1.596,-2.53,-0.96,-0.01,-0.10,-0.08,0.94,
1.599,-2.53,-0.96,-0.01,-0.10,-0.08,0.94,
1.599,-2.54,-0.91,-0.09,-0.10,-0.08,0.94,
1.601,-2.54,-0.91,-0.09,-0.11,-0.08,0.93,
1.604,-2.54,-0.91,-0.09,-0.11,-0.08,0.93,
1.604,-2.57,-0.85,-0.16,-0.11,-0.08,0.93,
1.606,-2.57,-0.85,-0.16,-0.12,-0.07,0.93,
1.609,-2.57,-0.85,-0.16,-0.12,-0.07,0.92,
1.609,-2.65,-0.80,-0.23,-0.12,-0.07,0.92,
1.611,-2.65,-0.80,-0.23,-0.13,-0.07,0.92,
1.614,-2.65,-0.80,-0.23,-0.13,-0.06,0.93,
1.614,-2.74,-0.71,-0.28,-0.13,-0.06,0.93,
1.616,-2.74,-0.71,-0.28,-0.14,-0.06,0.92,
1.619,-2.74,-0.71,-0.28,-0.14,-0.06,0.92,
1.619,-2.83,-0.65,-0.30,-0.14,-0.06,0.92,
1.622,-2.83,-0.65,-0.30,-0.14,-0.06,0.92,
1.623,-2.83,-0.65,-0.30,-0.14,-0.06,0.93,
1.624,-2.90,-0.58,-0.29,-0.14,-0.06,0.93,
1.626,-2.90,-0.58,-0.29,-0.14,-0.06,0.93,
1.628,-2.90,-0.58,-0.29,-0.13,-0.06,0.93,
1.629,-2.91,-0.54,-0.28,-0.13,-0.06,0.93,
1.631,-2.91,-0.54,-0.28,-0.13,-0.06,0.94,
1.633,-2.91,-0.54,-0.28,-0.13,-0.06,0.94,
1.633,-2.86,-0.51,-0.24,-0.13,-0.06,0.94,
1.638,-2.86,-0.51,-0.24,-0.13,-0.06,0.94,
1.639,-2.86,-0.51,-0.24,-0.12,-0.06,0.95,
1.639,-2.80,-0.51,-0.17,-0.12,-0.06,0.95,
1.641,-2.80,-0.51,-0.17,-0.12,-0.06,0.95,
1.644,-2.80,-0.51,-0.17,-0.12,-0.06,0.95,
1.644,-2.73,-0.53,-0.10,-0.12,-0.06,0.95,
1.646,-2.73,-0.53,-0.10,-0.11,-0.06,0.96,
1.648,-2.73,-0.53,-0.10,-0.11,-0.06,0.96,
1.648,-2.66,-0.49,-0.02,-0.11,-0.06,0.96,
1.65,-2.66,-0.49,-0.02,-0.10,-0.06,0.97,
1.653,-2.66,-0.49,-0.02,-0.10,-0.05,0.97,
1.653,-2.57,-0.46,0.04,-0.10,-0.05,0.97,
1.655,-2.57,-0.46,0.04,-0.09,-0.05,0.97,
1.659,-2.57,-0.46,0.04,-0.09,-0.05,0.97,
1.659,-2.47,-0.41,0.12,-0.09,-0.05,0.97,
1.661,-2.47,-0.41,0.12,-0.08,-0.05,0.97,
1.663,-2.47,-0.41,0.12,-0.08,-0.05,0.98,
1.663,-2.36,-0.36,0.16,-0.08,-0.05,0.98,
1.665,-2.36,-0.36,0.16,-0.07,-0.05,0.98,
1.668,-2.36,-0.36,0.16,-0.07,-0.04,0.98,
1.668,-2.23,-0.31,0.19,-0.07,-0.04,0.98,
1.67,-2.23,-0.31,0.19,-0.08,-0.04,0.98,
1.673,-2.23,-0.31,0.19,-0.08,-0.03,0.99,
1.673,-2.20,-0.27,0.23,-0.08,-0.03,0.99,
1.675,-2.20,-0.27,0.23,-0.08,-0.03,0.99,
1.678,-2.20,-0.27,0.23,-0.09,-0.02,0.99,
1.678,-2.22,-0.17,0.30,-0.09,-0.02,0.99,
1.68,-2.22,-0.17,0.30,-0.09,-0.01,0.99,
1.682,-2.22,-0.17,0.30,-0.09,-0.01,0.99,
1.683,-2.28,-0.01,0.32,-0.09,-0.01,0.99,
1.685,-2.28,-0.01,0.32,-0.09,-0.01,1.00,
1.687,-2.28,-0.01,0.32,-0.09,-0.00,1.00,
1.687,-2.33,0.11,0.35,-0.09,-0.00,1.00,
1.689,-2.33,0.11,0.35,-0.09,-0.00,1.00,
1.697,-2.33,0.11,0.35,-0.09,-0.00,1.00,
1.698,-2.33,0.17,0.40,-0.09,-0.00,1.00,
1.698,-2.33,0.17,0.40,-0.08,-0.00,1.00,
1.699,-2.33,0.17,0.40,-0.08,-0.00,1.00,
1.699,-2.29,0.20,0.41,-0.08,-0.00,1.00,
1.699,-2.29,0.20,0.41,-0.08,-0.00,1.00,
1.702,-2.29,0.20,0.41,-0.08,0.00,1.00,
1.702,-2.26,0.22,0.46,-0.08,0.00,1.00,
1.704,-2.26,0.22,0.46,-0.08,0.00,1.00,
1.707,-2.26,0.22,0.46,-0.08,-0.00,1.00,
1.708,-2.23,0.25,0.48,-0.08,-0.00,1.00,
1.71,-2.23,0.25,0.48,-0.07,-0.00,1.00,
1.712,-2.23,0.25,0.48,-0.07,-0.00,1.00,
1.712,-2.19,0.26,0.46,-0.07,-0.00,1.00,
1.714,-2.19,0.26,0.46,-0.07,-0.00,1.00,
1.717,-2.19,0.26,0.46,-0.07,-0.01,1.00,
1.717,-2.11,0.24,0.47,-0.07,-0.01,1.00,
1.719,-2.11,0.24,0.47,-0.07,-0.01,1.00,
1.721,-2.11,0.24,0.47,-0.07,-0.01,1.00,
1.722,-2.08,0.23,0.45,-0.07,-0.01,1.00,
1.725,-2.08,0.23,0.45,-0.07,-0.01,1.00,
1.727,-2.08,0.23,0.45,-0.07,-0.01,1.00,
1.727,-2.08,0.21,0.41,-0.07,-0.01,1.00,
1.729,-2.08,0.21,0.41,-0.07,-0.00,0.99,
1.731,-2.08,0.21,0.41,-0.08,-0.00,0.99,
1.732,-2.09,0.25,0.39,-0.08,-0.00,0.99,
1.734,-2.09,0.25,0.39,-0.08,-0.00,0.99,
1.736,-2.09,0.25,0.39,-0.08,0.00,0.99,
1.736,-2.15,0.29,0.35,-0.08,0.00,0.99,
1.738,-2.15,0.29,0.35,-0.08,0.00,0.99,
1.741,-2.15,0.29,0.35,-0.08,0.00,0.99,
1.742,-2.17,0.34,0.29,-0.08,0.00,0.99,
1.744,-2.17,0.34,0.29,-0.08,0.01,0.99,
1.747,-2.17,0.34,0.29,-0.08,0.01,0.99,
1.747,-2.17,0.37,0.29,-0.08,0.01,0.99,
1.748,-2.17,0.37,0.29,-0.08,0.01,0.99,
1.751,-2.17,0.37,0.29,-0.07,0.02,1.00,
1.751,-2.13,0.45,0.31,-0.07,0.02,1.00,
1.753,-2.13,0.45,0.31,-0.07,0.02,1.00,
1.756,-2.13,0.45,0.31,-0.07,0.03,1.00,
1.756,-2.05,0.55,0.37,-0.07,0.03,1.00,
1.758,-2.05,0.55,0.37,-0.06,0.03,1.01,
1.761,-2.05,0.55,0.37,-0.06,0.03,1.01,
1.761,-1.96,0.66,0.44,-0.06,0.03,1.01,
1.763,-1.96,0.66,0.44,-0.05,0.04,1.02,
1.765,-1.83,0.76,0.53,-0.05,0.04,1.02,
1.766,-1.83,0.76,0.53,-0.04,0.04,1.03,
1.768,-1.83,0.76,0.53,-0.03,0.05,1.04,
1.77,-1.64,0.88,0.67,-0.03,0.05,1.04,
1.771,-1.64,0.88,0.67,-0.02,0.06,1.04,
1.773,-1.64,0.88,0.67,-0.02,0.06,1.05,
1.775,-1.64,0.88,0.67,-0.01,0.07,1.05,
1.776,-1.47,1.02,0.81,-0.01,0.07,1.05,
1.778,-1.47,1.02,0.81,-0.00,0.07,1.06,
1.78,-1.47,1.02,0.81,0.01,0.07,1.06,
1.781,-1.32,1.15,0.93,0.01,0.07,1.06,
1.782,-1.32,1.15,0.93,0.02,0.08,1.06,
1.785,-1.32,1.15,0.93,0.02,0.08,1.07,
1.785,-1.14,1.25,1.01,0.02,0.08,1.07,
1.787,-1.14,1.25,1.01,0.03,0.08,1.07,
1.791,-1.14,1.25,1.01,0.03,0.08,1.07,
1.791,-0.97,1.31,1.04,0.03,0.08,1.07,
1.806,-0.97,1.31,1.04,0.04,0.08,1.07,
1.807,-0.97,1.31,1.04,0.05,0.08,1.07,
1.807,-0.82,1.35,1.06,0.05,0.08,1.07,
1.807,-0.82,1.35,1.06,0.05,0.08,1.07,
1.807,-0.82,1.35,1.06,0.06,0.08,1.06,
1.807,-0.66,1.38,1.06,0.06,0.08,1.06,
1.808,-0.66,1.38,1.06,0.05,0.07,1.06,
1.808,-0.66,1.38,1.06,0.05,0.07,1.06,
1.808,-0.54,1.37,1.03,0.05,0.07,1.06,
1.808,-0.54,1.37,1.03,0.06,0.06,1.05,
1.81,-0.54,1.37,1.03,0.05,0.06,1.05,
1.81,-0.53,1.29,0.97,0.05,0.06,1.05,
1.812,-0.53,1.29,0.97,0.05,0.05,1.05,
1.815,-0.53,1.29,0.97,0.05,0.05,1.04,
1.815,-0.51,1.18,0.91,0.05,0.05,1.04,
1.817,-0.51,1.18,0.91,0.05,0.05,1.04,
1.819,-0.51,1.18,0.91,0.04,0.05,1.04,
1.819,-0.53,1.10,0.84,0.04,0.05,1.04,
1.821,-0.53,1.10,0.84,0.04,0.04,1.03,
1.824,-0.53,1.10,0.84,0.04,0.04,1.03,
1.825,-0.57,1.06,0.75,0.04,0.04,1.03,
1.827,-0.57,1.06,0.75,0.04,0.04,1.03,
1.829,-0.57,1.06,0.75,0.03,0.03,1.03,
1.829,-0.61,1.01,0.68,0.03,0.03,1.03,
1.832,-0.61,1.01,0.68,0.03,0.03,1.03,
1.834,-0.61,1.01,0.68,0.03,0.04,1.03,
1.834,-0.65,0.97,0.64,0.03,0.04,1.03,
1.836,-0.65,0.97,0.64,0.02,0.04,1.03,
1.839,-0.65,0.97,0.64,0.02,0.04,1.04,
1.839,-0.70,0.98,0.65,0.02,0.04,1.04,
1.841,-0.70,0.98,0.65,0.02,0.04,1.04,
1.844,-0.70,0.98,0.65,0.02,0.04,1.05,
1.845,-0.74,1.00,0.72,0.02,0.04,1.05,
1.846,-0.74,1.00,0.72,0.02,0.04,1.05,
1.849,-0.74,1.00,0.72,0.03,0.04,1.06,
1.849,-0.75,1.03,0.82,0.03,0.04,1.06,
1.851,-0.75,1.03,0.82,0.03,0.04,1.07,
1.854,-0.75,1.03,0.82,0.03,0.04,1.07,
1.854,-0.67,1.06,0.94,0.03,0.04,1.07,
1.856,-0.67,1.06,0.94,0.04,0.05,1.08,
1.859,-0.67,1.06,0.94,0.04,0.05,1.08,
1.86,-0.60,1.10,1.06,0.04,0.05,1.08,
1.861,-0.60,1.10,1.06,0.05,0.05,1.08,
1.863,-0.60,1.10,1.06,0.05,0.06,1.08,
1.864,-0.51,1.16,1.14,0.05,0.06,1.08,
1.866,-0.51,1.16,1.14,0.06,0.06,1.09,
1.868,-0.38,1.24,1.19,0.06,0.06,1.09,
1.869,-0.38,1.24,1.19,0.07,0.06,1.09,
1.871,-0.38,1.24,1.19,0.07,0.07,1.09,
1.875,-0.38,1.24,1.19,0.08,0.07,1.09,
1.876,-0.23,1.33,1.21,0.08,0.07,1.09,
1.876,-0.23,1.33,1.21,0.09,0.07,1.09,
1.878,-0.08,1.39,1.23,0.09,0.07,1.09,
1.879,-0.08,1.39,1.23,0.09,0.07,1.08,
1.88,-0.08,1.39,1.23,0.10,0.07,1.08,
1.883,-0.08,1.39,1.23,0.11,0.06,1.08,
1.883,0.07,1.41,1.19,0.11,0.06,1.08,
1.885,0.07,1.41,1.19,0.11,0.06,1.07,
1.888,0.07,1.41,1.19,0.12,0.06,1.07,
1.888,0.24,1.38,1.14,0.12,0.06,1.07,
1.896,0.24,1.38,1.14,0.12,0.06,1.06,
1.896,0.24,1.38,1.14,0.13,0.06,1.05,
1.896,0.39,1.32,1.03,0.13,0.06,1.05,
1.896,0.39,1.32,1.03,0.13,0.05,1.05,
1.898,0.39,1.32,1.03,0.13,0.06,1.05,
1.899,0.53,1.29,0.91,0.13,0.06,1.05,
1.9,0.53,1.29,0.91,0.14,0.06,1.04,
1.902,0.53,1.29,0.91,0.14,0.06,1.04,
1.903,0.61,1.28,0.82,0.14,0.06,1.04,
1.905,0.61,1.28,0.82,0.14,0.07,1.04,
1.908,0.61,1.28,0.82,0.14,0.08,1.04,
1.908,0.67,1.34,0.78,0.14,0.08,1.04,
1.91,0.67,1.34,0.78,0.14,0.08,1.04,
1.912,0.67,1.34,0.78,0.14,0.09,1.04,
1.912,0.71,1.45,0.74,0.14,0.09,1.04,
1.915,0.71,1.45,0.74,0.15,0.09,1.04,
1.917,0.77,1.56,0.71,0.15,0.09,1.04,
1.918,0.77,1.56,0.71,0.15,0.09,1.04,
1.919,0.77,1.56,0.71,0.16,0.10,1.05,
1.922,0.77,1.56,0.71,0.17,0.10,1.05,
1.922,0.88,1.63,0.75,0.17,0.10,1.05,
1.924,0.88,1.63,0.75,0.18,0.10,1.05,
1.927,0.88,1.63,0.75,0.19,0.10,1.05,
1.927,1.03,1.67,0.80,0.19,0.10,1.05,
1.929,1.03,1.67,0.80,0.20,0.10,1.06,
1.932,1.03,1.67,0.80,0.20,0.11,1.06,
1.932,1.22,1.71,0.85,0.20,0.11,1.06,
1.934,1.22,1.71,0.85,0.20,0.11,1.07,
1.937,1.22,1.71,0.85,0.20,0.11,1.07,
1.937,1.34,1.73,0.93,0.20,0.11,1.07,
1.939,1.34,1.73,0.93,0.21,0.11,1.07,
1.942,1.34,1.73,0.93,0.21,0.11,1.08,
1.943,1.38,1.77,0.99,0.21,0.11,1.08,
1.944,1.38,1.77,0.99,0.20,0.11,1.08,
1.947,1.38,1.77,0.99,0.21,0.11,1.08,
1.947,1.45,1.80,1.05,0.21,0.11,1.08,
1.949,1.45,1.80,1.05,0.21,0.11,1.08,
1.952,1.45,1.80,1.05,0.21,0.11,1.08,
1.952,1.46,1.78,1.08,0.21,0.11,1.08,
1.954,1.46,1.78,1.08,0.22,0.10,1.07,
1.957,1.46,1.78,1.08,0.22,0.10,1.07,
1.957,1.50,1.73,1.06,0.22,0.10,1.07,
1.959,1.50,1.73,1.06,0.22,0.09,1.07,
1.962,1.50,1.73,1.06,0.22,0.08,1.07,
1.962,1.58,1.62,1.03,0.22,0.08,1.07,
1.964,1.58,1.62,1.03,0.22,0.08,1.06,
1.966,1.58,1.62,1.03,0.22,0.07,1.06,
1.967,1.60,1.47,0.98,0.22,0.07,1.06,
1.969,1.60,1.47,0.98,0.22,0.06,1.05,
1.971,1.60,1.47,0.98,0.21,0.06,1.04,
1.972,1.60,1.32,0.91,0.21,0.06,1.04,
1.974,1.60,1.32,0.91,0.21,0.05,1.04,
1.976,1.60,1.32,0.91,0.21,0.04,1.03,
1.977,1.59,1.18,0.77,0.21,0.04,1.03,
1.979,1.59,1.18,0.77,0.21,0.04,1.02,
1.981,1.59,1.18,0.77,0.21,0.03,1.01,
1.981,1.57,1.03,0.62,0.21,0.03,1.01,
1.983,1.57,1.03,0.62,0.21,0.02,1.01,
1.986,1.58,0.88,0.49,0.21,0.02,1.01,
1.986,1.58,0.88,0.49,0.21,0.01,1.00,
1.988,1.58,0.88,0.49,0.21,0.01,0.99,
1.992,1.58,0.88,0.49,0.21,0.01,0.99,
1.992,1.59,0.71,0.35,0.21,0.01,0.99,
1.993,1.59,0.71,0.35,0.21,0.00,0.98,
1.995,1.59,0.71,0.35,0.20,0.00,0.97,
1.996,1.61,0.62,0.21,0.20,0.00,0.97,
1.998,1.61,0.62,0.21,0.20,-0.00,0.97,
2.0,1.61,0.62,0.21,0.20,-0.00,0.96,
2.001,1.59,0.56,0.07,0.20,-0.00,0.96,
2.003,1.59,0.56,0.07,0.20,-0.00,0.95,
2.006,1.59,0.56,0.07,0.20,0.00,0.95,
2.006,1.56,0.52,-0.06,0.20,0.00,0.95,
2.014,1.56,0.52,-0.06,0.19,0.00,0.95,
2.014,1.56,0.52,-0.06,0.19,0.01,0.95,
2.015,1.56,0.53,-0.16,0.19,0.01,0.95,
2.015,1.56,0.53,-0.16,0.19,0.01,0.95,
2.015,1.56,0.53,-0.16,0.19,0.01,0.95,
2.015,1.52,0.58,-0.20,0.19,0.01,0.95,
2.017,1.52,0.58,-0.20,0.20,0.00,0.95,
2.02,1.52,0.58,-0.20,0.20,0.00,0.95,
2.021,1.52,0.60,-0.21,0.20,0.00,0.95,
2.022,1.52,0.60,-0.21,0.20,0.00,0.95,
2.026,1.52,0.60,-0.21,0.20,0.00,0.95,
2.026,1.60,0.58,-0.21,0.20,0.00,0.95,
2.028,1.60,0.58,-0.21,0.20,0.00,0.95,
2.03,1.60,0.58,-0.21,0.20,0.00,0.96,
2.03,1.63,0.56,-0.17,0.20,0.00,0.96,
2.032,1.63,0.56,-0.17,0.20,0.00,0.96,
2.035,1.63,0.56,-0.17,0.20,0.00,0.96,
2.035,1.66,0.55,-0.15,0.20,0.00,0.96,
2.037,1.66,0.55,-0.15,0.20,0.00,0.97,
2.04,1.66,0.55,-0.15,0.20,0.00,0.97,
2.041,1.71,0.55,-0.09,0.20,0.00,0.97,
2.042,1.71,0.55,-0.09,0.21,0.00,0.97,
2.045,1.71,0.55,-0.09,0.21,0.00,0.98,
2.045,1.73,0.55,0.00,0.21,0.00,0.98,
2.047,1.73,0.55,0.00,0.21,-0.00,0.98,
2.049,1.73,0.55,0.00,0.21,-0.00,0.98,
2.05,1.77,0.56,0.07,0.21,-0.00,0.98,
2.052,1.77,0.56,0.07,0.22,-0.01,0.99,
2.055,1.77,0.56,0.07,0.22,-0.01,0.99,
2.055,1.82,0.51,0.12,0.22,-0.01,0.99,
2.057,1.82,0.51,0.12,0.22,-0.01,0.99,
2.06,1.82,0.51,0.12,0.22,-0.01,0.99,
2.06,1.88,0.45,0.16,0.22,-0.01,0.99,
2.062,1.88,0.45,0.16,0.23,-0.02,0.99,
2.064,1.88,0.45,0.16,0.23,-0.01,0.99,
2.064,1.95,0.39,0.19,0.23,-0.01,0.99,
2.066,1.95,0.39,0.19,0.23,-0.01,0.99,
2.069,1.95,0.39,0.19,0.23,-0.01,0.99,
2.069,2.01,0.35,0.22,0.23,-0.01,0.99,
2.072,2.01,0.35,0.22,0.23,-0.01,0.99,
2.074,2.01,0.35,0.22,0.24,-0.01,0.99,
2.075,2.02,0.36,0.22,0.24,-0.01,0.99,
2.076,2.02,0.36,0.22,0.24,-0.01,0.99,
2.079,2.02,0.36,0.22,0.24,-0.02,0.99,
2.079,2.05,0.35,0.21,0.24,-0.02,0.99,
2.081,2.05,0.35,0.21,0.25,-0.02,0.99,
2.084,2.05,0.35,0.21,0.25,-0.02,0.99,
2.084,2.10,0.32,0.20,0.25,-0.02,0.99,
2.086,2.10,0.32,0.20,0.25,-0.02,0.98,
2.089,2.10,0.32,0.20,0.25,-0.02,0.98,
2.089,2.18,0.27,0.18,0.25,-0.02,0.98,
2.098,2.18,0.27,0.18,0.25,-0.02,0.98,
2.099,2.18,0.27,0.18,0.25,-0.02,0.97,
2.099,2.19,0.24,0.11,0.25,-0.02,0.97,
2.1,2.19,0.24,0.11,0.24,-0.02,0.97,
2.1,2.19,0.24,0.11,0.24,-0.02,0.97,
2.1,2.17,0.22,0.04,0.24,-0.02,0.97,
2.101,2.17,0.22,0.04,0.24,-0.02,0.97,
2.103,2.17,0.22,0.04,0.24,-0.02,0.96,
2.104,2.12,0.20,0.00,0.24,-0.02,0.96,
2.106,2.12,0.20,0.00,0.24,-0.03,0.96,
2.114,2.12,0.20,0.00,0.24,-0.03,0.96,
2.115,2.10,0.17,-0.05,0.24,-0.03,0.96,
2.115,2.10,0.17,-0.05,0.24,-0.03,0.96,
2.115,2.09,0.11,-0.11,0.24,-0.03,0.96,
2.115,2.09,0.11,-0.11,0.24,-0.04,0.95,
2.115,2.09,0.11,-0.11,0.24,-0.04,0.95,
2.118,2.09,0.11,-0.11,0.24,-0.04,0.95,
2.118,2.12,0.04,-0.17,0.24,-0.04,0.95,
2.12,2.12,0.04,-0.17,0.24,-0.05,0.95,
2.123,2.12,0.04,-0.17,0.24,-0.05,0.94,
2.124,2.12,-0.03,-0.22,0.24,-0.05,0.94,
2.125,2.12,-0.03,-0.22,0.23,-0.06,0.94,
2.128,2.12,-0.03,-0.22,0.23,-0.06,0.94,
2.128,2.10,-0.12,-0.26,0.23,-0.06,0.94,
2.13,2.10,-0.12,-0.26,0.23,-0.06,0.94,
2.133,2.10,-0.12,-0.26,0.22,-0.07,0.93,
2.133,2.05,-0.22,-0.29,0.22,-0.07,0.93,
2.135,2.05,-0.22,-0.29,0.22,-0.08,0.93,
2.138,2.05,-0.22,-0.29,0.22,-0.08,0.93,
2.139,2.00,-0.32,-0.35,0.22,-0.08,0.93,
2.14,2.00,-0.32,-0.35,0.22,-0.09,0.93,
2.143,2.00,-0.32,-0.35,0.21,-0.10,0.93,
2.143,1.94,-0.44,-0.40,0.21,-0.10,0.93,
2.145,1.94,-0.44,-0.40,0.21,-0.10,0.93,
2.147,1.94,-0.44,-0.40,0.20,-0.10,0.93,
2.147,1.90,-0.58,-0.42,0.20,-0.10,0.93,
2.15,1.90,-0.58,-0.42,0.19,-0.11,0.93,
2.152,1.90,-0.58,-0.42,0.19,-0.11,0.93,
2.152,1.80,-0.66,-0.43,0.19,-0.11,0.93,
2.155,1.80,-0.66,-0.43,0.18,-0.11,0.93,
2.158,1.80,-0.66,-0.43,0.18,-0.12,0.93,
2.158,1.67,-0.74,-0.40,0.18,-0.12,0.93,
2.16,1.67,-0.74,-0.40,0.17,-0.12,0.94,
2.162,1.55,-0.81,-0.36,0.17,-0.12,0.94,
2.163,1.55,-0.81,-0.36,0.17,-0.12,0.94,
2.164,1.55,-0.81,-0.36,0.16,-0.13,0.95,
2.167,1.55,-0.81,-0.36,0.15,-0.13,0.95,
2.167,1.43,-0.88,-0.29,0.15,-0.13,0.95,
2.169,1.43,-0.88,-0.29,0.15,-0.13,0.96,
2.172,1.43,-0.88,-0.29,0.14,-0.13,0.97,
2.173,1.30,-0.91,-0.19,0.14,-0.13,0.97,
2.175,1.30,-0.91,-0.19,0.14,-0.13,0.97,
2.177,1.30,-0.91,-0.19,0.13,-0.13,0.98,
2.177,1.22,-0.90,-0.06,0.13,-0.13,0.98,
2.179,1.22,-0.90,-0.06,0.13,-0.13,0.99,
2.182,1.22,-0.90,-0.06,0.13,-0.13,0.99,
2.182,1.13,-0.89,0.06,0.13,-0.13,0.99,
2.184,1.13,-0.89,0.06,0.13,-0.13,0.99,
2.187,1.04,-0.94,0.18,0.13,-0.13,0.99,
2.187,1.04,-0.94,0.18,0.12,-0.14,1.00,
2.196,1.04,-0.94,0.18,0.12,-0.14,1.00,
2.196,1.04,-0.94,0.18,0.12,-0.14,1.00,
2.197,1.00,-0.99,0.25,0.12,-0.14,1.00,
2.197,1.00,-0.99,0.25,0.11,-0.14,0.99,
2.197,1.00,-0.99,0.25,0.11,-0.13,0.99,
2.197,0.96,-1.01,0.26,0.11,-0.13,0.99,
2.199,0.96,-1.01,0.26,0.11,-0.13,0.99,
2.201,0.96,-1.01,0.26,0.10,-0.13,0.99,
2.201,0.88,-0.99,0.23,0.10,-0.13,0.99,
2.203,0.88,-0.99,0.23,0.10,-0.13,0.98,
2.207,0.88,-0.99,0.23,0.09,-0.13,0.98,
2.207,0.80,-0.97,0.16,0.09,-0.13,0.98,
2.209,0.80,-0.97,0.16,0.09,-0.14,0.98,
2.211,0.80,-0.97,0.16,0.08,-0.14,0.97,
2.211,0.72,-0.99,0.10,0.08,-0.14,0.97,
2.213,0.72,-0.99,0.10,0.08,-0.14,0.96,
2.216,0.72,-0.99,0.10,0.07,-0.14,0.96,
2.216,0.63,-1.01,0.02,0.07,-0.14,0.96,
2.218,0.63,-1.01,0.02,0.06,-0.14,0.95,
2.221,0.63,-1.01,0.02,0.06,-0.14,0.95,
2.221,0.53,-1.04,-0.09,0.06,-0.14,0.95,
2.223,0.53,-1.04,-0.09,0.05,-0.14,0.95,
2.226,0.53,-1.04,-0.09,0.04,-0.14,0.95,
2.226,0.41,-1.07,-0.19,0.04,-0.14,0.95,
2.228,0.41,-1.07,-0.19,0.04,-0.14,0.95,
2.231,0.41,-1.07,-0.19,0.03,-0.14,0.95,
2.231,0.27,-1.08,-0.23,0.03,-0.14,0.95,
2.233,0.27,-1.08,-0.23,0.02,-0.14,0.95,
2.236,0.27,-1.08,-0.23,0.02,-0.13,0.96,
2.236,0.13,-1.04,-0.22,0.02,-0.13,0.96,
2.238,0.13,-1.04,-0.22,0.02,-0.13,0.96,
2.241,0.13,-1.04,-0.22,0.02,-0.13,0.96,
2.241,0.05,-1.00,-0.17,0.02,-0.13,0.96,
2.243,0.05,-1.00,-0.17,0.01,-0.13,0.97,
2.246,0.05,-1.00,-0.17,0.02,-0.13,0.97,
2.246,-0.01,-0.97,-0.13,0.02,-0.13,0.97,
2.248,-0.01,-0.97,-0.13,0.02,-0.13,0.97,
2.25,-0.04,-0.95,-0.03,0.02,-0.13,0.97,
2.25,-0.04,-0.95,-0.03,0.02,-0.12,0.98,
2.252,-0.04,-0.95,-0.03,0.02,-0.12,0.98,
2.255,-0.04,-0.95,-0.03,0.03,-0.12,0.98,
2.256,0.01,-0.89,0.04,0.03,-0.12,0.98,
2.258,0.01,-0.89,0.04,0.03,-0.11,0.99,
2.26,0.01,-0.89,0.04,0.03,-0.11,0.99,
2.261,0.04,-0.84,0.12,0.03,-0.11,0.99,
2.262,0.04,-0.84,0.12,0.04,-0.11,1.00,
2.265,0.04,-0.84,0.12,0.04,-0.10,1.00,
2.265,0.12,-0.77,0.19,0.04,-0.10,1.00,
2.268,0.12,-0.77,0.19,0.04,-0.10,1.00,
2.27,0.12,-0.77,0.19,0.04,-0.09,1.00,
2.27,0.17,-0.70,0.25,0.04,-0.09,1.00,
2.273,0.17,-0.70,0.25,0.04,-0.09,1.00,
2.276,0.17,-0.70,0.25,0.04,-0.09,1.00,
2.277,0.20,-0.63,0.28,0.04,-0.09,1.00,
2.278,0.20,-0.63,0.28,0.04,-0.08,0.99,
2.28,0.20,-0.63,0.28,0.04,-0.08,0.99,
2.28,0.23,-0.57,0.25,0.04,-0.08,0.99,
2.282,0.23,-0.57,0.25,0.04,-0.08,0.98,
2.285,0.23,-0.57,0.25,0.04,-0.08,0.98,
2.285,0.22,-0.52,0.21,0.04,-0.08,0.98,
2.287,0.22,-0.52,0.21,0.04,-0.08,0.97,
2.29,0.22,-0.52,0.21,0.04,-0.08,0.97,
2.29,0.22,-0.49,0.10,0.04,-0.08,0.97,
2.292,0.22,-0.49,0.10,0.03,-0.07,0.96,
2.295,0.22,-0.49,0.10,0.03,-0.07,0.96,
2.295,0.19,-0.46,0.01,0.03,-0.07,0.96,
2.299,0.19,-0.46,0.01,0.03,-0.07,0.96,
2.299,0.19,-0.46,0.01,0.02,-0.06,0.95,
2.3,0.13,-0.41,-0.08,0.02,-0.06,0.95,
2.302,0.13,-0.41,-0.08,0.02,-0.06,0.95,
2.304,0.13,-0.41,-0.08,0.01,-0.06,0.95,
2.304,0.02,-0.36,-0.14,0.01,-0.06,0.95,
2.311,0.02,-0.36,-0.14,0.01,-0.06,0.95,
2.311,0.02,-0.36,-0.14,0.01,-0.06,0.95,
2.311,-0.05,-0.32,-0.18,0.01,-0.06,0.95,
2.312,-0.05,-0.32,-0.18,0.01,-0.06,0.95,
2.314,-0.05,-0.32,-0.18,0.01,-0.06,0.95,
2.314,-0.09,-0.32,-0.20,0.01,-0.06,0.95,
2.316,-0.09,-0.32,-0.20,0.01,-0.06,0.95,
2.319,-0.09,-0.32,-0.20,0.01,-0.06,0.95,
2.319,-0.10,-0.34,-0.19,0.01,-0.06,0.95,
2.321,-0.10,-0.34,-0.19,0.01,-0.06,0.95,
2.324,-0.10,-0.34,-0.19,0.01,-0.06,0.96,
2.324,-0.09,-0.35,-0.18,0.01,-0.06,0.96,
2.326,-0.09,-0.35,-0.18,0.01,-0.06,0.96,
2.329,-0.09,-0.35,-0.18,0.01,-0.06,0.96,
2.329,-0.08,-0.34,-0.15,0.01,-0.06,0.96,
2.331,-0.08,-0.34,-0.15,0.01,-0.05,0.97,
2.333,-0.08,-0.34,-0.15,0.01,-0.05,0.97,
2.334,-0.09,-0.30,-0.10,0.01,-0.05,0.97,
2.336,-0.09,-0.30,-0.10,0.01,-0.05,0.97,
2.339,-0.09,-0.30,-0.10,0.01,-0.04,0.97,
2.339,-0.10,-0.24,-0.02,0.01,-0.04,0.97,
2.341,-0.10,-0.24,-0.02,0.02,-0.04,0.97,
2.343,-0.10,-0.24,-0.02,0.02,-0.04,0.97,
2.344,-0.09,-0.19,-0.01,0.02,-0.04,0.97,
2.346,-0.09,-0.19,-0.01,0.02,-0.04,0.97,
2.348,-0.09,-0.19,-0.01,0.02,-0.04,0.97,
2.348,-0.05,-0.15,0.03,0.02,-0.04,0.97,
2.35,-0.05,-0.15,0.03,0.03,-0.03,0.97,
2.353,-0.05,-0.15,0.03,0.03,-0.03,0.97,
2.353,0.01,-0.10,0.04,0.03,-0.03,0.97,
2.356,0.01,-0.10,0.04,0.03,-0.03,0.97,
2.358,0.01,-0.10,0.04,0.03,-0.02,0.97,
2.359,0.05,-0.07,0.01,0.03,-0.02,0.97,
2.36,0.05,-0.07,0.01,0.02,-0.02,0.97,
2.363,0.05,-0.07,0.01,0.03,-0.02,0.96,
2.363,0.06,-0.00,-0.02,0.03,-0.02,0.96,
2.365,0.06,-0.00,-0.02,0.03,-0.01,0.96,
2.368,0.06,-0.00,-0.02,0.03,-0.01,0.96,
2.368,0.05,0.05,-0.04,0.03,-0.01,0.96,
2.37,0.05,0.05,-0.04,0.03,-0.01,0.96,
2.374,0.05,0.05,-0.04,0.03,-0.01,0.96,
2.374,0.11,0.12,-0.07,0.03,-0.01,0.96,
2.376,0.11,0.12,-0.07,0.04,-0.01,0.96,
2.378,0.11,0.12,-0.07,0.04,-0.00,0.96,
2.378,0.13,0.14,-0.08,0.04,-0.00,0.96,
2.38,0.13,0.14,-0.08,0.04,-0.00,0.96,
2.383,0.13,0.14,-0.08,0.04,-0.00,0.96,
2.383,0.17,0.19,-0.10,0.04,-0.00,0.96,
2.385,0.17,0.19,-0.10,0.04,-0.00,0.97,
2.388,0.17,0.19,-0.10,0.04,-0.00,0.97,
2.391,0.19,0.21,-0.07,0.04,-0.00,0.97,
2.391,0.19,0.21,-0.07,0.04,-0.00,0.97,
2.395,0.19,0.21,-0.07,0.04,-0.00,0.97,
2.395,0.18,0.22,-0.03,0.04,-0.00,0.97,
2.395,0.18,0.22,-0.03,0.04,-0.00,0.98,
2.397,0.18,0.22,-0.03,0.04,-0.01,0.98,
2.398,0.18,0.20,0.01,0.04,-0.01,0.98,
2.399,0.18,0.20,0.01,0.04,-0.01,0.98,
2.402,0.18,0.20,0.01,0.04,-0.01,0.99,
2.402,0.18,0.18,0.07,0.04,-0.01,0.99,
2.405,0.18,0.18,0.07,0.04,-0.01,0.99,
2.412,0.18,0.18,0.07,0.04,-0.01,1.00,
2.412,0.20,0.15,0.15,0.04,-0.01,1.00,
2.413,0.20,0.15,0.15,0.03,-0.01,1.00,
2.413,0.20,0.15,0.15,0.03,-0.01,1.00,
2.413,0.17,0.13,0.23,0.03,-0.01,1.00,
2.414,0.17,0.13,0.23,0.03,-0.01,1.00,
2.417,0.17,0.13,0.23,0.03,-0.02,1.00,
2.417,0.08,0.13,0.27,0.03,-0.02,1.00,
2.419,0.08,0.13,0.27,0.02,-0.02,1.00,
2.422,0.08,0.13,0.27,0.02,-0.02,1.00,
2.422,0.03,0.08,0.27,0.02,-0.02,1.00,
2.425,0.03,0.08,0.27,0.02,-0.02,1.00,
2.427,0.03,0.08,0.27,0.02,-0.03,0.99,
2.427,0.00,0.02,0.26,0.02,-0.03,0.99,
2.429,0.00,0.02,0.26,0.02,-0.03,0.99,
2.431,0.00,0.02,0.26,0.01,-0.03,0.99,
2.432,-0.01,-0.03,0.23,0.01,-0.03,0.99,
2.434,-0.01,-0.03,0.23,0.01,-0.03,0.99,
2.436,-0.01,-0.03,0.23,0.01,-0.02,0.98,
2.436,-0.06,-0.05,0.19,0.01,-0.02,0.98,
2.439,-0.06,-0.05,0.19,0.01,-0.02,0.98,
2.442,-0.06,-0.05,0.19,0.00,-0.02,0.98,
2.442,-0.12,-0.01,0.13,0.00,-0.02,0.98,
2.444,-0.12,-0.01,0.13,0.00,-0.02,0.98,
2.446,-0.12,-0.01,0.13,0.01,-0.01,0.98,
2.446,-0.16,0.02,0.11,0.01,-0.01,0.98,
2.449,-0.16,0.02,0.11,0.01,-0.01,0.97,
2.451,-0.16,0.02,0.11,0.01,-0.00,0.97,
2.451,-0.15,0.10,0.07,0.01,-0.00,0.97,
2.453,-0.15,0.10,0.07,0.02,-0.00,0.97,
2.456,-0.15,0.10,0.07,0.02,-0.00,0.97,
2.456,-0.08,0.17,0.03,0.02,-0.00,0.97,
2.458,-0.08,0.17,0.03,0.03,0.00,0.97,
2.461,-0.08,0.17,0.03,0.04,0.00,0.98,
2.461,0.02,0.21,0.02,0.04,0.00,0.98,
2.463,0.02,0.21,0.02,0.04,0.01,0.98,
2.466,0.02,0.21,0.02,0.04,0.01,0.98,
2.466,0.14,0.25,0.04,0.04,0.01,0.98,
2.468,0.14,0.25,0.04,0.05,0.01,0.98,
2.471,0.14,0.25,0.04,0.05,0.01,0.98,
2.471,0.23,0.30,0.06,0.05,0.01,0.98,
2.473,0.23,0.30,0.06,0.05,0.02,0.98,
2.476,0.23,0.30,0.06,0.05,0.02,0.98,
2.476,0.28,0.34,0.08,0.05,0.02,0.98,
2.478,0.28,0.34,0.08,0.05,0.02,0.98,
2.48,0.28,0.34,0.08,0.05,0.02,0.99,
2.481,0.30,0.39,0.09,0.05,0.02,0.99,
2.483,0.30,0.39,0.09,0.05,0.02,0.99,
2.485,0.30,0.39,0.09,0.05,0.02,0.99,
2.486,0.29,0.41,0.13,0.05,0.02,0.99,
2.488,0.29,0.41,0.13,0.05,0.01,0.99,
2.495,0.29,0.41,0.13,0.04,0.01,0.99,
2.496,0.30,0.39,0.16,0.04,0.01,0.99,
2.496,0.30,0.39,0.16,0.04,0.01,0.99,
2.496,0.30,0.39,0.16,0.04,0.00,0.99,
2.497,0.26,0.34,0.15,0.04,0.00,0.99,
2.497,0.26,0.34,0.15,0.03,0.00,0.98,
2.5,0.26,0.34,0.15,0.03,-0.00,0.98,
2.5,0.22,0.27,0.14,0.03,-0.00,0.98,
2.502,0.22,0.27,0.14,0.02,-0.01,0.98,
2.505,0.22,0.27,0.14,0.02,-0.01,0.98,
2.506,0.13,0.21,0.09,0.02,-0.01,0.98,
2.512,0.13,0.21,0.09,0.01,-0.01,0.98,
2.512,0.13,0.21,0.09,0.01,-0.01,0.97,
2.513,0.02,0.14,0.06,0.01,-0.01,0.97,
2.513,0.02,0.14,0.06,-0.00,-0.01,0.97,
2.515,0.02,0.14,0.06,-0.00,-0.01,0.97,
2.515,-0.09,0.11,0.04,-0.00,-0.01,0.97,
2.517,-0.09,0.11,0.04,-0.01,-0.01,0.97,
2.52,-0.09,0.11,0.04,-0.01,-0.01,0.97,
2.52,-0.19,0.08,0.02,-0.01,-0.01,0.97,
2.522,-0.19,0.08,0.02,-0.01,-0.02,0.98,
2.525,-0.19,0.08,0.02,-0.01,-0.02,0.98,
2.525,-0.26,0.08,0.02,-0.01,-0.02,0.98,
2.527,-0.26,0.08,0.02,-0.01,-0.02,0.98,
2.529,-0.26,0.08,0.02,-0.01,-0.02,0.98,
2.53,-0.26,0.04,0.04,-0.01,-0.02,0.98,
2.532,-0.26,0.04,0.04,-0.01,-0.02,0.98,
2.534,-0.26,0.04,0.04,-0.01,-0.02,0.98,
2.535,-0.24,0.02,0.07,-0.01,-0.02,0.98,
2.536,-0.24,0.02,0.07,-0.00,-0.02,0.99,
2.539,-0.24,0.02,0.07,-0.00,-0.02,0.99,
2.54,-0.22,0.01,0.11,-0.00,-0.02,0.99,
2.542,-0.22,0.01,0.11,0.00,-0.02,0.99,
2.544,-0.22,0.01,0.11,0.00,-0.02,0.99,
2.545,-0.18,0.02,0.15,0.00,-0.02,0.99,
2.546,-0.18,0.02,0.15,0.00,-0.02,1.00,
2.549,-0.18,0.02,0.15,0.00,-0.02,1.00,
2.549,-0.13,0.03,0.21,0.00,-0.02,1.00,
2.551,-0.13,0.03,0.21,0.00,-0.02,1.00,
2.554,-0.13,0.03,0.21,0.00,-0.01,1.01,
2.555,-0.13,0.04,0.27,0.00,-0.01,1.01,
2.556,-0.13,0.04,0.27,0.00,-0.01,1.00,
2.559,-0.13,0.04,0.27,-0.00,-0.01,1.01,
2.559,-0.10,0.07,0.31,-0.00,-0.01,1.01,
2.561,-0.10,0.07,0.31,-0.00,-0.01,1.00,
2.564,-0.10,0.07,0.31,-0.01,-0.01,1.00,
2.564,-0.14,0.07,0.33,-0.01,-0.01,1.00,
2.566,-0.14,0.07,0.33,-0.01,-0.02,1.00,
2.569,-0.14,0.07,0.33,-0.01,-0.02,1.00,
2.569,-0.17,0.07,0.31,-0.01,-0.02,1.00,
2.571,-0.17,0.07,0.31,-0.01,-0.02,1.00,
2.574,-0.17,0.07,0.31,-0.01,-0.02,0.99,
2.574,-0.19,0.05,0.28,-0.01,-0.02,0.99,
2.576,-0.19,0.05,0.28,-0.01,-0.02,0.99,
2.578,-0.19,0.05,0.28,-0.01,-0.02,0.99,
2.579,-0.20,0.01,0.24,-0.01,-0.02,0.99,
2.581,-0.20,0.01,0.24,-0.01,-0.02,0.99,
2.583,-0.20,0.01,0.24,-0.01,-0.02,0.98,
2.584,-0.23,-0.02,0.19,-0.01,-0.02,0.98,
2.586,-0.23,-0.02,0.19,-0.02,-0.02,0.98,
2.595,-0.23,-0.02,0.19,-0.02,-0.02,0.97,
2.596,-0.25,-0.02,0.13,-0.02,-0.02,0.97,
2.596,-0.25,-0.02,0.13,-0.02,-0.02,0.97,
2.596,-0.25,-0.02,0.13,-0.01,-0.02,0.97,
2.597,-0.28,-0.04,0.04,-0.01,-0.02,0.97,
2.597,-0.28,-0.04,0.04,-0.01,-0.03,0.97,
2.598,-0.28,-0.04,0.04,-0.01,-0.02,0.97,
2.598,-0.25,-0.03,-0.01,-0.01,-0.02,0.97,
2.6,-0.25,-0.03,-0.01,-0.01,-0.02,0.96,
2.603,-0.25,-0.03,-0.01,-0.00,-0.02,0.96,
2.603,-0.23,-0.04,-0.04,-0.00,-0.02,0.96,
2.611,-0.23,-0.04,-0.04,-0.00,-0.02,0.96,
2.611,-0.23,-0.04,-0.04,0.00,-0.02,0.96,
2.611,-0.15,-0.04,-0.07,0.00,-0.02,0.96,
2.611,-0.15,-0.04,-0.07,0.00,-0.02,0.96,
2.613,-0.15,-0.04,-0.07,0.01,-0.02,0.96,
2.613,-0.09,-0.03,-0.10,0.01,-0.02,0.96,
2.615,-0.09,-0.03,-0.10,0.01,-0.01,0.96,
2.618,-0.09,-0.03,-0.10,0.01,-0.01,0.96,
2.618,-0.04,0.02,-0.09,0.01,-0.01,0.96,
2.62,-0.04,0.02,-0.09,0.01,-0.01,0.97,
2.622,-0.04,0.02,-0.09,0.01,-0.01,0.97,
2.623,-0.01,0.05,-0.08,0.01,-0.01,0.97,
2.625,-0.01,0.05,-0.08,0.02,-0.01,0.97,
2.627,-0.01,0.05,-0.08,0.02,-0.01,0.98,
2.627,0.03,0.09,-0.03,0.02,-0.01,0.98,
2.63,0.03,0.09,-0.03,0.02,-0.00,0.98,
2.632,0.03,0.09,-0.03,0.02,-0.00,0.98,
2.632,0.06,0.11,0.04,0.02,-0.00,0.98,
2.634,0.06,0.11,0.04,0.02,-0.00,0.98,
2.637,0.06,0.11,0.04,0.02,-0.00,0.98,
2.637,0.07,0.16,0.07,0.02,-0.00,0.98,
2.639,0.07,0.16,0.07,0.02,-0.00,0.99,
2.642,0.07,0.16,0.07,0.02,-0.00,0.99,
2.642,0.08,0.17,0.10,0.02,-0.00,0.99,
2.644,0.08,0.17,0.10,0.02,0.00,0.99,
2.647,0.08,0.17,0.10,0.02,0.00,1.00,
2.647,0.09,0.18,0.16,0.02,0.00,1.00,
2.649,0.09,0.18,0.16,0.02,0.00,1.00,
2.652,0.09,0.18,0.16,0.02,0.00,1.00,
2.652,0.11,0.19,0.21,0.02,0.00,1.00,
2.654,0.11,0.19,0.21,0.02,0.00,1.00,
2.657,0.11,0.19,0.21,0.03,-0.01,0.92,
2.658,0.13,0.20,0.25,0.03,-0.01,0.92,
2.659,0.13,0.20,0.25,0.03,-0.02,0.83,
2.662,0.13,0.20,0.25,0.04,-0.02,0.85,
2.662,0.15,0.15,-0.13,0.04,-0.02,0.85,
2.664,0.15,0.15,-0.13,0.04,-0.01,0.91,
2.667,0.15,0.15,-0.13,0.03,-0.01,0.94,
2.667,0.24,0.01,-1.29,0.03,-0.01,0.94,
2.669,0.24,0.01,-1.29,0.01,-0.00,0.93,
2.673,0.24,0.01,-1.29,0.01,-0.00,0.92,
2.674,0.21,0.10,-0.49,0.01,-0.00,0.92,
2.675,0.21,0.10,-0.49,0.01,0.00,0.91,
2.677,-0.01,0.15,-0.42,0.01,0.00,0.91,
2.677,-0.01,0.15,-0.42,0.02,0.00,0.91,
2.679,-0.01,0.15,-0.42,0.03,-0.00,0.91,
2.681,-0.01,0.15,-0.42,0.04,-0.01,0.92,
2.681,0.04,0.22,-0.57,0.04,-0.01,0.92,
2.683,0.04,0.22,-0.57,0.04,-0.02,0.93,
2.686,0.04,0.22,-0.57,0.04,-0.02,0.93,
2.686,0.21,0.14,-0.51,0.04,-0.02,0.93,
2.689,0.21,0.14,-0.51,0.04,-0.02,0.93,
2.691,0.21,0.14,-0.51,0.03,-0.02,0.94,
2.691,0.31,0.01,-0.43,0.03,-0.02,0.94,
2.693,0.31,0.01,-0.43,0.03,-0.01,0.95,
2.696,0.31,0.01,-0.43,0.02,-0.01,0.96,
2.696,0.23,0.05,-0.35,0.02,-0.01,0.96,
2.698,0.23,0.05,-0.35,0.02,-0.01,0.97,
2.701,0.23,0.05,-0.35,0.02,-0.01,0.97,
2.701,0.15,0.15,-0.18,0.02,-0.01,0.97,
2.703,0.15,0.15,-0.18,0.02,-0.01,0.98,
2.71,0.15,0.15,-0.18,0.02,-0.01,0.99,
2.71,0.10,0.18,0.01,0.02,-0.01,0.99,
2.71,0.10,0.18,0.01,0.02,-0.01,1.00,
2.71,0.10,0.18,0.01,0.03,-0.02,1.01,
2.711,0.08,0.17,0.17,0.03,-0.02,1.01,
2.713,0.08,0.17,0.17,0.03,-0.02,1.02,
2.715,0.08,0.17,0.17,0.02,-0.03,1.03,
2.716,0.13,0.11,0.35,0.02,-0.03,1.03,
2.718,0.13,0.11,0.35,0.02,-0.02,1.04,
2.72,0.13,0.11,0.35,0.02,-0.02,1.05,
2.72,0.14,0.02,0.53,0.02,-0.02,1.05,
2.723,0.14,0.02,0.53,0.01,-0.02,1.07,
2.725,0.14,0.02,0.53,0.00,-0.02,1.08,
2.725,0.07,0.03,0.74,0.00,-0.02,1.08,
2.728,0.07,0.03,0.74,0.00,-0.03,1.08,
2.73,0.07,0.03,0.74,0.00,-0.03,1.09,
2.73,-0.05,0.02,1.00,0.00,-0.03,1.09,
2.732,-0.05,0.02,1.00,0.01,-0.03,1.09,
2.735,-0.05,0.02,1.00,0.01,-0.03,1.09,
2.735,-0.09,-0.05,1.12,0.01,-0.03,1.09,
2.737,-0.09,-0.05,1.12,0.01,-0.03,1.09,
2.74,-0.09,-0.05,1.12,0.01,-0.03,1.08,
2.74,-0.05,-0.11,1.15,0.01,-0.03,1.08,
2.742,-0.05,-0.11,1.15,0.00,-0.03,1.07,
2.745,-0.05,-0.11,1.15,0.00,-0.02,1.06,
2.745,-0.07,-0.10,1.09,0.00,-0.02,1.06,
2.747,-0.07,-0.10,1.09,0.00,-0.02,1.05,
2.75,-0.07,-0.10,1.09,0.00,-0.02,1.04,
2.75,-0.09,-0.06,0.89,0.00,-0.02,1.04,
2.752,-0.09,-0.06,0.89,0.01,-0.02,1.03,
2.755,-0.09,-0.06,0.89,0.01,-0.01,1.02,
2.755,-0.11,-0.04,0.66,0.01,-0.01,1.02,
