
time,ax,ay,az,gFx,gFy,gFz,
0.002,-0.04,-0.08,0.34,0.10,0.09,1.00,
0.002,-0.01,-0.10,0.31,0.10,0.09,1.00,
0.002,-0.01,-0.10,0.31,0.11,0.10,0.99,
0.003,-0.01,-0.10,0.31,0.10,0.10,0.99,
0.003,0.00,-0.09,0.26,0.10,0.10,0.99,
0.004,0.00,-0.09,0.26,0.11,0.10,0.99,
0.007,0.00,-0.09,0.26,0.11,0.10,0.99,
0.007,0.01,-0.06,0.21,0.11,0.10,0.99,
0.009,0.01,-0.06,0.21,0.11,0.10,0.99,
0.012,0.01,-0.06,0.21,0.11,0.10,0.98,
0.012,0.04,-0.04,0.17,0.11,0.10,0.98,
0.014,0.04,-0.04,0.17,0.11,0.10,0.98,
0.017,0.04,-0.04,0.17,0.11,0.11,0.97,
0.017,0.04,-0.02,0.11,0.11,0.11,0.97,
0.019,0.04,-0.02,0.11,0.11,0.11,0.97,
0.021,0.04,-0.02,0.11,0.11,0.11,0.97,
0.022,0.05,0.01,0.03,0.11,0.11,0.97,
0.024,0.05,0.01,0.03,0.11,0.11,0.96,
0.026,0.05,0.01,0.03,0.11,0.11,0.96,
0.026,0.05,0.02,-0.04,0.11,0.11,0.96,
0.029,0.05,0.02,-0.04,0.11,0.11,0.95,
0.031,0.05,0.02,-0.04,0.11,0.11,0.95,
0.031,0.07,0.06,-0.11,0.11,0.11,0.95,
0.034,0.07,0.06,-0.11,0.11,0.12,0.95,
0.036,0.07,0.06,-0.11,0.11,0.12,0.95,
0.036,0.06,0.08,-0.18,0.11,0.12,0.95,
0.039,0.06,0.08,-0.18,0.11,0.12,0.95,
0.041,0.06,0.08,-0.18,0.11,0.12,0.95,
0.041,0.06,0.11,-0.21,0.11,0.12,0.95,
0.043,0.06,0.11,-0.21,0.11,0.12,0.95,
0.055,0.06,0.11,-0.21,0.11,0.12,0.94,
0.055,0.04,0.12,-0.24,0.11,0.12,0.94,
0.055,0.04,0.12,-0.24,0.11,0.12,0.94,
0.056,0.04,0.12,-0.24,0.11,0.12,0.95,
0.056,0.03,0.14,-0.25,0.11,0.12,0.95,
0.056,0.03,0.14,-0.25,0.10,0.13,0.95,
0.056,0.03,0.14,-0.25,0.10,0.13,0.95,
0.056,0.03,0.17,-0.24,0.10,0.13,0.95,
0.061,0.03,0.17,-0.24,0.10,0.13,0.95,
0.061,0.03,0.17,-0.24,0.10,0.13,0.95,
0.061,-0.01,0.19,-0.22,0.10,0.13,0.95,
0.063,-0.01,0.19,-0.22,0.10,0.13,0.95,
0.065,-0.01,0.19,-0.22,0.11,0.13,0.96,
0.066,-0.01,0.18,-0.19,0.11,0.13,0.96,
0.068,-0.01,0.18,-0.19,0.11,0.12,0.96,
0.07,0.02,0.19,-0.14,0.11,0.12,0.96,
0.071,0.02,0.19,-0.14,0.11,0.12,0.96,
0.073,0.02,0.19,-0.14,0.11,0.12,0.96,
0.075,0.02,0.19,-0.14,0.11,0.12,0.97,
0.075,0.03,0.16,-0.11,0.11,0.12,0.97,
0.078,0.03,0.16,-0.11,0.11,0.12,0.97,
0.081,0.05,0.14,-0.05,0.11,0.12,0.97,
0.081,0.05,0.14,-0.05,0.11,0.12,0.97,
0.083,0.05,0.14,-0.05,0.11,0.12,0.98,
0.085,0.07,0.12,0.02,0.11,0.12,0.98,
0.085,0.07,0.12,0.02,0.11,0.12,0.98,
0.088,0.07,0.12,0.02,0.11,0.11,0.98,
0.09,0.07,0.12,0.02,0.11,0.11,0.98,
0.09,0.09,0.10,0.07,0.11,0.11,0.98,
0.092,0.09,0.10,0.07,0.11,0.11,0.98,
0.095,0.09,0.10,0.07,0.11,0.11,0.99,
0.095,0.07,0.09,0.10,0.11,0.11,0.99,
0.098,0.07,0.09,0.10,0.11,0.11,0.98,
0.1,0.07,0.09,0.10,0.11,0.11,0.98,
0.1,0.05,0.09,0.14,0.11,0.11,0.98,
0.103,0.05,0.09,0.14,0.11,0.11,0.99,
0.105,0.05,0.09,0.14,0.11,0.11,0.99,
0.105,0.06,0.04,0.14,0.11,0.11,0.99,
0.107,0.06,0.04,0.14,0.11,0.11,0.99,
0.109,0.06,0.04,0.14,0.11,0.10,0.99,
0.11,0.06,0.02,0.16,0.11,0.10,0.99,
0.112,0.06,0.02,0.16,0.11,0.10,0.99,
0.115,0.06,0.02,0.16,0.11,0.10,0.99,
0.115,0.05,0.01,0.16,0.11,0.10,0.99,
0.117,0.05,0.01,0.16,0.10,0.10,0.99,
0.119,0.05,0.01,0.16,0.10,0.10,0.99,
0.12,0.04,0.00,0.16,0.10,0.10,0.99,
0.122,0.04,0.00,0.16,0.10,0.10,0.99,
0.124,0.04,0.00,0.16,0.10,0.10,0.99,
0.124,0.01,0.02,0.17,0.10,0.10,0.99,
0.127,0.01,0.02,0.17,0.10,0.10,0.99,
0.13,0.01,0.02,0.17,0.10,0.11,0.99,
0.13,-0.02,0.02,0.16,0.10,0.11,0.99,
0.132,-0.02,0.02,0.16,0.10,0.10,0.98,
0.134,-0.02,0.02,0.16,0.10,0.10,0.98,
0.135,-0.04,0.02,0.15,0.10,0.10,0.98,
0.137,-0.04,0.02,0.15,0.10,0.10,0.98,
0.139,-0.04,0.02,0.15,0.10,0.10,0.98,
0.139,-0.05,0.02,0.12,0.10,0.10,0.98,
0.142,-0.05,0.02,0.12,0.10,0.10,0.98,
0.144,-0.05,0.02,0.12,0.10,0.10,0.98,
0.144,-0.05,0.01,0.10,0.10,0.10,0.98,
0.146,-0.05,0.01,0.10,0.10,0.10,0.98,
0.149,-0.05,0.01,0.10,0.10,0.10,0.98,
0.149,-0.03,-0.02,0.08,0.10,0.10,0.98,
0.151,-0.03,-0.02,0.08,0.10,0.10,0.98,
0.154,-0.03,-0.02,0.08,0.11,0.09,0.98,
0.154,-0.00,-0.06,0.06,0.11,0.09,0.98,
0.156,-0.00,-0.06,0.06,0.11,0.09,0.98,
0.159,-0.00,-0.06,0.06,0.11,0.09,0.98,
0.159,0.03,-0.07,0.07,0.11,0.09,0.98,
0.161,0.03,-0.07,0.07,0.11,0.09,0.98,
0.17,0.03,-0.07,0.07,0.11,0.09,0.98,
0.17,0.05,-0.10,0.05,0.11,0.09,0.98,
0.17,0.05,-0.10,0.05,0.10,0.09,0.98,
0.17,0.03,-0.10,0.05,0.10,0.09,0.98,
0.17,0.03,-0.10,0.05,0.10,0.09,0.98,
0.171,0.03,-0.10,0.05,0.10,0.09,0.98,
0.173,0.03,-0.10,0.05,0.10,0.09,0.98,
0.174,-0.01,-0.11,0.05,0.10,0.09,0.98,
0.176,-0.01,-0.11,0.05,0.10,0.09,0.98,
0.178,-0.01,-0.11,0.05,0.10,0.09,0.98,
0.178,-0.03,-0.11,0.06,0.10,0.09,0.98,
0.181,-0.03,-0.11,0.06,0.09,0.09,0.98,
0.183,-0.03,-0.11,0.06,0.10,0.09,0.98,
0.184,-0.05,-0.12,0.07,0.10,0.09,0.98,
0.186,-0.05,-0.12,0.07,0.10,0.09,0.98,
0.188,-0.05,-0.12,0.07,0.10,0.09,0.98,
0.188,-0.08,-0.12,0.08,0.10,0.09,0.98,
0.19,-0.08,-0.12,0.08,0.10,0.09,0.97,
0.193,-0.08,-0.12,0.08,0.10,0.09,0.97,
0.193,-0.06,-0.13,0.06,0.10,0.09,0.97,
0.196,-0.06,-0.13,0.06,0.10,0.09,0.97,
0.198,-0.06,-0.13,0.06,0.10,0.09,0.97,
0.198,-0.05,-0.14,0.02,0.10,0.09,0.97,
0.201,-0.05,-0.14,0.02,0.10,0.09,0.97,
0.203,-0.05,-0.14,0.02,0.10,0.09,0.97,
0.203,-0.02,-0.16,0.01,0.10,0.09,0.97,
0.205,-0.02,-0.16,0.01,0.10,0.09,0.96,
0.207,-0.02,-0.16,0.01,0.10,0.09,0.96,
0.208,-0.02,-0.15,-0.03,0.10,0.09,0.96,
0.21,-0.02,-0.15,-0.03,0.10,0.09,0.96,
0.213,-0.02,-0.15,-0.03,0.10,0.09,0.96,
0.213,0.00,-0.15,-0.09,0.10,0.09,0.96,
0.215,0.00,-0.15,-0.09,0.10,0.09,0.96,
0.218,0.00,-0.15,-0.09,0.10,0.09,0.96,
0.218,-0.01,-0.13,-0.11,0.10,0.09,0.96,
0.22,-0.01,-0.13,-0.11,0.10,0.10,0.96,
0.222,-0.01,-0.13,-0.11,0.10,0.10,0.96,
0.222,0.00,-0.10,-0.11,0.10,0.10,0.96,
0.225,0.00,-0.10,-0.11,0.10,0.10,0.96,
0.227,0.00,-0.10,-0.11,0.10,0.10,0.96,
0.227,0.00,-0.07,-0.14,0.10,0.10,0.96,
0.23,0.00,-0.07,-0.14,0.11,0.10,0.96,
0.232,0.00,-0.07,-0.14,0.11,0.10,0.96,
0.232,0.01,-0.04,-0.14,0.11,0.10,0.96,
0.235,0.01,-0.04,-0.14,0.11,0.10,0.96,
0.237,0.01,-0.04,-0.14,0.11,0.10,0.96,
0.237,0.03,-0.02,-0.14,0.11,0.10,0.96,
0.239,0.03,-0.02,-0.14,0.11,0.10,0.96,
0.242,0.03,-0.02,-0.14,0.11,0.10,0.96,
0.242,0.06,-0.04,-0.14,0.11,0.10,0.96,
0.244,0.06,-0.04,-0.14,0.12,0.10,0.96,
0.247,0.06,-0.04,-0.14,0.12,0.10,0.96,
0.247,0.10,-0.05,-0.13,0.12,0.10,0.96,
0.249,0.10,-0.05,-0.13,0.12,0.10,0.96,
0.252,0.10,-0.05,-0.13,0.13,0.10,0.95,
0.252,0.15,-0.06,-0.14,0.13,0.10,0.95,
0.254,0.15,-0.06,-0.14,0.13,0.10,0.96,
0.256,0.15,-0.06,-0.14,0.13,0.09,0.96,
0.257,0.22,-0.07,-0.15,0.13,0.09,0.96,
0.259,0.22,-0.07,-0.15,0.14,0.09,0.96,
0.261,0.22,-0.07,-0.15,0.14,0.09,0.96,
0.262,0.28,-0.08,-0.14,0.14,0.09,0.96,
0.27,0.28,-0.08,-0.14,0.14,0.09,0.96,
0.271,0.28,-0.08,-0.14,0.14,0.10,0.96,
0.271,0.34,-0.12,-0.12,0.14,0.10,0.96,
0.271,0.34,-0.12,-0.12,0.13,0.10,0.96,
0.271,0.34,-0.12,-0.12,0.13,0.10,0.96,
0.272,0.33,-0.09,-0.13,0.13,0.10,0.96,
0.274,0.33,-0.09,-0.13,0.14,0.09,0.96,
0.276,0.33,-0.09,-0.13,0.14,0.09,0.96,
0.276,0.29,-0.07,-0.12,0.14,0.09,0.96,
0.279,0.29,-0.07,-0.12,0.14,0.09,0.96,
0.281,0.29,-0.07,-0.12,0.14,0.09,0.96,
0.281,0.30,-0.10,-0.09,0.14,0.09,0.96,
0.284,0.30,-0.10,-0.09,0.14,0.09,0.96,
0.286,0.30,-0.10,-0.09,0.14,0.09,0.95,
0.286,0.30,-0.11,-0.10,0.14,0.09,0.95,
0.288,0.30,-0.11,-0.10,0.14,0.09,0.95,
0.291,0.30,-0.11,-0.10,0.14,0.09,0.95,
0.291,0.31,-0.14,-0.13,0.14,0.09,0.95,
0.293,0.31,-0.14,-0.13,0.14,0.09,0.95,
0.296,0.31,-0.14,-0.13,0.14,0.08,0.95,
0.296,0.34,-0.18,-0.15,0.14,0.08,0.95,
0.298,0.34,-0.18,-0.15,0.14,0.08,0.95,
0.301,0.34,-0.18,-0.15,0.14,0.08,0.95,
0.301,0.34,-0.20,-0.16,0.14,0.08,0.95,
0.303,0.34,-0.20,-0.16,0.14,0.08,0.95,
0.305,0.34,-0.20,-0.16,0.14,0.08,0.95,
0.305,0.32,-0.24,-0.19,0.14,0.08,0.95,
0.308,0.32,-0.24,-0.19,0.14,0.08,0.95,
0.31,0.32,-0.24,-0.19,0.14,0.08,0.94,
0.311,0.32,-0.26,-0.21,0.14,0.08,0.94,
0.313,0.32,-0.26,-0.21,0.14,0.07,0.94,
0.315,0.32,-0.26,-0.21,0.14,0.07,0.94,
0.315,0.31,-0.28,-0.23,0.14,0.07,0.94,
0.318,0.31,-0.28,-0.23,0.14,0.07,0.94,
0.32,0.31,-0.28,-0.23,0.14,0.07,0.94,
0.32,0.29,-0.30,-0.24,0.14,0.07,0.94,
0.323,0.29,-0.30,-0.24,0.14,0.07,0.94,
0.325,0.29,-0.30,-0.24,0.13,0.07,0.94,
0.325,0.26,-0.31,-0.28,0.13,0.07,0.94,
0.327,0.26,-0.31,-0.28,0.13,0.07,0.94,
0.33,0.26,-0.31,-0.28,0.13,0.07,0.94,
0.33,0.24,-0.32,-0.29,0.13,0.07,0.94,
0.333,0.24,-0.32,-0.29,0.13,0.07,0.94,
0.335,0.24,-0.32,-0.29,0.13,0.06,0.94,
0.335,0.22,-0.34,-0.29,0.13,0.06,0.94,
0.337,0.22,-0.34,-0.29,0.13,0.07,0.94,
0.34,0.22,-0.34,-0.29,0.13,0.07,0.94,
0.34,0.19,-0.37,-0.31,0.13,0.07,0.94,
0.342,0.19,-0.37,-0.31,0.13,0.06,0.93,
0.345,0.19,-0.37,-0.31,0.13,0.06,0.93,
0.345,0.21,-0.36,-0.30,0.13,0.06,0.93,
0.347,0.21,-0.36,-0.30,0.13,0.06,0.94,
0.35,0.21,-0.36,-0.30,0.14,0.06,0.94,
0.35,0.22,-0.38,-0.32,0.14,0.06,0.94,
0.352,0.22,-0.38,-0.32,0.14,0.06,0.93,
0.354,0.22,-0.38,-0.32,0.14,0.05,0.94,
0.355,0.23,-0.40,-0.30,0.14,0.05,0.94,
0.357,0.23,-0.40,-0.30,0.15,0.05,0.94,
0.359,0.23,-0.40,-0.30,0.15,0.05,0.93,
0.36,0.29,-0.44,-0.30,0.15,0.05,0.93,
0.369,0.29,-0.44,-0.30,0.16,0.05,0.94,
0.37,0.29,-0.44,-0.30,0.16,0.05,0.94,
0.37,0.38,-0.47,-0.30,0.16,0.05,0.94,
0.37,0.38,-0.47,-0.30,0.17,0.04,0.94,
0.37,0.38,-0.47,-0.30,0.17,0.04,0.94,
0.37,0.45,-0.52,-0.28,0.17,0.04,0.94,
0.372,0.45,-0.52,-0.28,0.17,0.04,0.94,
0.374,0.45,-0.52,-0.28,0.17,0.04,0.94,
0.374,0.53,-0.53,-0.28,0.17,0.04,0.94,
0.376,0.53,-0.53,-0.28,0.18,0.04,0.95,
0.379,0.53,-0.53,-0.28,0.18,0.04,0.95,
0.379,0.57,-0.54,-0.22,0.18,0.04,0.95,
0.381,0.57,-0.54,-0.22,0.18,0.04,0.95,
0.385,0.57,-0.54,-0.22,0.18,0.04,0.95,
0.385,0.61,-0.54,-0.17,0.18,0.04,0.95,
0.386,0.61,-0.54,-0.17,0.18,0.04,0.96,
0.389,0.61,-0.54,-0.17,0.18,0.04,0.96,
0.39,0.58,-0.53,-0.12,0.18,0.04,0.96,
0.391,0.58,-0.53,-0.12,0.17,0.04,0.96,
0.393,0.58,-0.53,-0.12,0.17,0.04,0.96,
0.394,0.58,-0.50,-0.06,0.17,0.04,0.96,
0.396,0.58,-0.50,-0.06,0.17,0.04,0.97,
0.398,0.58,-0.50,-0.06,0.17,0.04,0.97,
0.399,0.55,-0.48,-0.02,0.17,0.04,0.97,
0.401,0.55,-0.48,-0.02,0.17,0.04,0.97,
0.403,0.55,-0.48,-0.02,0.18,0.04,0.97,
0.404,0.53,-0.50,0.03,0.18,0.04,0.97,
0.406,0.53,-0.50,0.03,0.18,0.03,0.97,
0.408,0.53,-0.50,0.03,0.18,0.03,0.97,
0.408,0.55,-0.53,0.05,0.18,0.03,0.97,
0.411,0.55,-0.53,0.05,0.18,0.03,0.97,
0.413,0.55,-0.53,0.05,0.18,0.03,0.97,
0.414,0.56,-0.56,0.03,0.18,0.03,0.97,
0.416,0.56,-0.56,0.03,0.18,0.03,0.97,
0.418,0.56,-0.56,0.03,0.18,0.03,0.97,
0.418,0.56,-0.57,0.02,0.18,0.03,0.97,
0.42,0.56,-0.57,0.02,0.18,0.03,0.96,
0.423,0.56,-0.57,0.02,0.18,0.03,0.96,
0.423,0.57,-0.57,0.01,0.18,0.03,0.96,
0.425,0.57,-0.57,0.01,0.18,0.03,0.96,
0.428,0.57,-0.57,0.01,0.18,0.03,0.96,
0.428,0.55,-0.58,-0.02,0.18,0.03,0.96,
0.43,0.55,-0.58,-0.02,0.17,0.03,0.96,
0.433,0.55,-0.58,-0.02,0.17,0.03,0.96,
0.434,0.54,-0.60,-0.03,0.17,0.03,0.96,
0.435,0.54,-0.60,-0.03,0.17,0.03,0.96,
0.438,0.54,-0.60,-0.03,0.16,0.04,0.96,
0.438,0.49,-0.56,-0.06,0.16,0.04,0.96,
0.44,0.49,-0.56,-0.06,0.16,0.04,0.96,
0.442,0.49,-0.56,-0.06,0.16,0.04,0.96,
0.443,0.42,-0.50,-0.07,0.16,0.04,0.96,
0.449,0.42,-0.50,-0.07,0.15,0.05,0.95,
0.449,0.42,-0.50,-0.07,0.15,0.05,0.96,
0.449,0.34,-0.43,-0.09,0.15,0.05,0.96,
0.45,0.34,-0.43,-0.09,0.15,0.05,0.96,
0.452,0.34,-0.43,-0.09,0.15,0.05,0.96,
0.453,0.28,-0.38,-0.10,0.15,0.05,0.96,
0.455,0.28,-0.38,-0.10,0.15,0.05,0.96,
0.457,0.28,-0.38,-0.10,0.15,0.05,0.96,
0.458,0.24,-0.35,-0.07,0.15,0.05,0.96,
0.46,0.24,-0.35,-0.07,0.15,0.05,0.96,
0.462,0.24,-0.35,-0.07,0.15,0.05,0.95,
0.462,0.21,-0.32,-0.06,0.15,0.05,0.95,
0.465,0.21,-0.32,-0.06,0.15,0.05,0.95,
0.467,0.21,-0.32,-0.06,0.15,0.05,0.95,
0.467,0.20,-0.33,-0.09,0.15,0.05,0.95,
0.469,0.20,-0.33,-0.09,0.14,0.05,0.95,
0.472,0.20,-0.33,-0.09,0.14,0.06,0.96,
0.472,0.19,-0.32,-0.10,0.14,0.06,0.96,
0.474,0.19,-0.32,-0.10,0.14,0.06,0.96,
0.477,0.19,-0.32,-0.10,0.14,0.05,0.96,
0.477,0.15,-0.32,-0.08,0.14,0.05,0.96,
0.479,0.15,-0.32,-0.08,0.14,0.05,0.96,
0.482,0.15,-0.32,-0.08,0.14,0.05,0.96,
0.482,0.14,-0.33,-0.05,0.14,0.05,0.96,
0.484,0.14,-0.33,-0.05,0.14,0.04,0.97,
0.487,0.14,-0.33,-0.05,0.14,0.04,0.97,
0.487,0.13,-0.39,-0.02,0.14,0.04,0.97,
0.489,0.13,-0.39,-0.02,0.14,0.04,0.97,
0.492,0.13,-0.39,-0.02,0.14,0.04,0.97,
0.492,0.11,-0.43,0.05,0.14,0.04,0.97,
0.494,0.11,-0.43,0.05,0.14,0.04,0.97,
0.496,0.11,-0.43,0.05,0.13,0.03,0.97,
0.497,0.06,-0.48,0.06,0.13,0.03,0.97,
0.499,0.06,-0.48,0.06,0.13,0.03,0.97,
0.501,0.06,-0.48,0.06,0.13,0.03,0.97,
0.502,0.01,-0.52,0.05,0.13,0.03,0.97,
0.504,0.01,-0.52,0.05,0.13,0.02,0.97,
0.506,0.01,-0.52,0.05,0.13,0.02,0.97,
0.506,-0.04,-0.57,0.05,0.13,0.02,0.97,
0.509,-0.04,-0.57,0.05,0.13,0.02,0.97,
0.511,-0.04,-0.57,0.05,0.13,0.02,0.97,
0.512,-0.06,-0.62,0.09,0.13,0.02,0.97,
0.514,-0.06,-0.62,0.09,0.13,0.02,0.98,
0.516,-0.06,-0.62,0.09,0.13,0.02,0.98,
0.516,-0.06,-0.65,0.11,0.13,0.02,0.98,
0.518,-0.06,-0.65,0.11,0.13,0.02,0.98,
0.521,-0.06,-0.65,0.11,0.13,0.02,0.98,
0.521,-0.05,-0.67,0.14,0.13,0.02,0.98,
0.523,-0.05,-0.67,0.14,0.14,0.02,0.98,
0.526,-0.05,-0.67,0.14,0.14,0.02,0.99,
0.526,-0.06,-0.67,0.18,0.14,0.02,0.99,
0.529,-0.06,-0.67,0.18,0.14,0.02,0.98,
0.531,-0.06,-0.67,0.18,0.14,0.02,0.99,
0.531,-0.04,-0.68,0.22,0.14,0.02,0.99,
0.533,-0.04,-0.68,0.22,0.14,0.02,0.99,
0.536,-0.04,-0.68,0.22,0.14,0.02,0.99,
0.536,-0.05,-0.64,0.23,0.14,0.02,0.99,
0.538,-0.05,-0.64,0.23,0.14,0.02,0.99,
0.54,-0.05,-0.64,0.23,0.14,0.03,0.99,
0.541,-0.06,-0.60,0.24,0.14,0.03,0.99,
0.544,-0.06,-0.60,0.24,0.14,0.03,0.99,
0.549,-0.07,-0.56,0.25,0.14,0.03,0.99,
0.55,-0.07,-0.56,0.25,0.14,0.04,0.99,
0.552,-0.07,-0.56,0.25,0.13,0.04,0.99,
0.552,-0.07,-0.56,0.25,0.14,0.05,0.99,
0.553,-0.08,-0.48,0.25,0.14,0.05,0.99,
0.553,-0.08,-0.48,0.25,0.13,0.05,0.99,
0.556,-0.08,-0.48,0.25,0.13,0.06,0.99,
0.556,-0.10,-0.38,0.25,0.13,0.06,0.99,
0.558,-0.10,-0.38,0.25,0.13,0.06,0.99,
0.56,-0.14,-0.25,0.25,0.13,0.06,0.99,
0.561,-0.14,-0.25,0.25,0.13,0.07,0.99,
0.563,-0.14,-0.25,0.25,0.13,0.07,0.98,
0.566,-0.14,-0.25,0.25,0.13,0.08,0.98,
0.566,-0.15,-0.15,0.24,0.13,0.08,0.98,
0.568,-0.15,-0.15,0.24,0.13,0.08,0.98,
0.57,-0.15,-0.15,0.24,0.14,0.08,0.98,
0.57,-0.14,-0.06,0.20,0.14,0.08,0.98,
0.572,-0.14,-0.06,0.20,0.14,0.08,0.97,
0.575,-0.14,-0.06,0.20,0.15,0.08,0.97,
0.575,-0.08,-0.03,0.15,0.15,0.08,0.97,
0.578,-0.08,-0.03,0.15,0.15,0.08,0.97,
0.585,-0.08,-0.03,0.15,0.15,0.08,0.97,
0.585,0.00,-0.00,0.09,0.15,0.08,0.97,
0.586,0.00,-0.00,0.09,0.15,0.08,0.96,
0.586,0.00,-0.00,0.09,0.15,0.07,0.96,
0.586,0.06,-0.02,0.04,0.15,0.07,0.96,
0.587,0.06,-0.02,0.04,0.16,0.07,0.96,
0.59,0.06,-0.02,0.04,0.16,0.06,0.95,
0.59,0.11,-0.07,-0.02,0.16,0.06,0.95,
0.592,0.11,-0.07,-0.02,0.16,0.06,0.95,
0.595,0.11,-0.07,-0.02,0.15,0.06,0.95,
0.595,0.15,-0.15,-0.08,0.15,0.06,0.95,
0.598,0.15,-0.15,-0.08,0.15,0.06,0.95,
0.599,0.15,-0.15,-0.08,0.14,0.05,0.95,
0.599,0.13,-0.20,-0.12,0.14,0.05,0.95,
0.602,0.13,-0.20,-0.12,0.14,0.05,0.95,
0.604,0.13,-0.20,-0.12,0.13,0.05,0.95,
0.604,0.06,-0.26,-0.16,0.13,0.05,0.95,
0.607,0.06,-0.26,-0.16,0.13,0.04,0.95,
0.609,0.06,-0.26,-0.16,0.12,0.04,0.95,
0.609,-0.04,-0.31,-0.18,0.12,0.04,0.95,
0.612,-0.04,-0.31,-0.18,0.12,0.04,0.95,
0.614,-0.04,-0.31,-0.18,0.11,0.04,0.95,
0.614,-0.15,-0.35,-0.14,0.11,0.04,0.95,
0.616,-0.15,-0.35,-0.14,0.10,0.03,0.95,
0.619,-0.15,-0.35,-0.14,0.10,0.03,0.96,
0.619,-0.27,-0.38,-0.12,0.10,0.03,0.96,
0.621,-0.27,-0.38,-0.12,0.09,0.03,0.96,
0.624,-0.27,-0.38,-0.12,0.09,0.03,0.96,
0.624,-0.39,-0.46,-0.10,0.09,0.03,0.96,
0.626,-0.39,-0.46,-0.10,0.08,0.02,0.96,
0.629,-0.39,-0.46,-0.10,0.08,0.02,0.96,
0.629,-0.49,-0.48,-0.07,0.08,0.02,0.96,
0.631,-0.49,-0.48,-0.07,0.07,0.02,0.96,
0.634,-0.49,-0.48,-0.07,0.07,0.02,0.96,
0.634,-0.56,-0.54,-0.02,0.07,0.02,0.96,
0.636,-0.56,-0.54,-0.02,0.07,0.01,0.96,
0.638,-0.56,-0.54,-0.02,0.07,0.01,0.96,
0.639,-0.64,-0.56,-0.04,0.07,0.01,0.96,
0.641,-0.64,-0.56,-0.04,0.07,0.01,0.96,
0.643,-0.64,-0.56,-0.04,0.06,0.01,0.96,
0.643,-0.69,-0.58,-0.04,0.06,0.01,0.96,
0.646,-0.69,-0.58,-0.04,0.06,0.01,0.96,
0.648,-0.69,-0.58,-0.04,0.07,0.01,0.96,
0.648,-0.70,-0.58,-0.02,0.07,0.01,0.96,
0.651,-0.70,-0.58,-0.02,0.07,0.01,0.96,
0.653,-0.70,-0.58,-0.02,0.07,0.02,0.96,
0.653,-0.69,-0.60,-0.04,0.07,0.02,0.96,
0.655,-0.69,-0.60,-0.04,0.06,0.02,0.97,
0.658,-0.68,-0.55,-0.01,0.06,0.02,0.97,
0.658,-0.68,-0.55,-0.01,0.06,0.03,0.97,
0.66,-0.68,-0.55,-0.01,0.06,0.03,0.97,
0.667,-0.68,-0.55,-0.01,0.06,0.03,0.97,
0.668,-0.72,-0.44,0.02,0.06,0.03,0.97,
0.668,-0.72,-0.44,0.02,0.06,0.03,0.97,
0.668,-0.72,-0.44,0.02,0.07,0.03,0.97,
0.668,-0.72,-0.37,0.03,0.07,0.03,0.97,
0.67,-0.72,-0.37,0.03,0.07,0.03,0.96,
0.673,-0.72,-0.37,0.03,0.08,0.04,0.96,
0.673,-0.67,-0.31,0.01,0.08,0.04,0.96,
0.675,-0.67,-0.31,0.01,0.08,0.04,0.95,
0.678,-0.67,-0.31,0.01,0.08,0.04,0.95,
0.679,-0.57,-0.30,-0.04,0.08,0.04,0.95,
0.68,-0.57,-0.30,-0.04,0.09,0.04,0.95,
0.683,-0.57,-0.30,-0.04,0.09,0.04,0.95,
0.683,-0.48,-0.29,-0.11,0.09,0.04,0.95,
0.685,-0.48,-0.29,-0.11,0.09,0.04,0.94,
0.687,-0.48,-0.29,-0.11,0.10,0.04,0.94,
0.688,-0.40,-0.26,-0.15,0.10,0.04,0.94,
0.69,-0.40,-0.26,-0.15,0.10,0.04,0.94,
0.692,-0.40,-0.26,-0.15,0.10,0.04,0.94,
0.692,-0.33,-0.21,-0.21,0.10,0.04,0.94,
0.695,-0.33,-0.21,-0.21,0.10,0.04,0.93,
0.698,-0.33,-0.21,-0.21,0.11,0.04,0.93,
0.698,-0.27,-0.20,-0.26,0.11,0.04,0.93,
0.7,-0.27,-0.20,-0.26,0.11,0.04,0.93,
0.702,-0.27,-0.20,-0.26,0.11,0.04,0.92,
0.703,-0.20,-0.22,-0.34,0.11,0.04,0.92,
0.705,-0.20,-0.22,-0.34,0.11,0.04,0.92,
0.707,-0.20,-0.22,-0.34,0.11,0.04,0.92,
0.707,-0.14,-0.24,-0.39,0.11,0.04,0.92,
0.71,-0.14,-0.24,-0.39,0.12,0.03,0.92,
0.712,-0.14,-0.24,-0.39,0.11,0.03,0.92,
0.713,-0.10,-0.24,-0.43,0.11,0.03,0.92,
0.715,-0.10,-0.24,-0.43,0.11,0.03,0.92,
0.717,-0.10,-0.24,-0.43,0.11,0.03,0.91,
0.717,-0.08,-0.28,-0.46,0.11,0.03,0.91,
0.719,-0.08,-0.28,-0.46,0.11,0.03,0.91,
0.722,-0.08,-0.28,-0.46,0.10,0.03,0.91,
0.722,-0.10,-0.31,-0.48,0.10,0.03,0.91,
0.724,-0.10,-0.31,-0.48,0.09,0.02,0.91,
0.727,-0.10,-0.31,-0.48,0.09,0.02,0.91,
0.727,-0.17,-0.33,-0.50,0.09,0.02,0.91,
0.73,-0.17,-0.33,-0.50,0.08,0.02,0.91,
0.732,-0.17,-0.33,-0.50,0.07,0.02,0.91,
0.732,-0.29,-0.36,-0.52,0.07,0.02,0.91,
0.735,-0.29,-0.36,-0.52,0.06,0.02,0.91,
0.736,-0.29,-0.36,-0.52,0.05,0.02,0.91,
0.737,-0.44,-0.38,-0.52,0.05,0.02,0.91,
0.739,-0.44,-0.38,-0.52,0.04,0.02,0.91,
0.741,-0.44,-0.38,-0.52,0.03,0.02,0.91,
0.742,-0.62,-0.41,-0.52,0.03,0.02,0.91,
0.744,-0.62,-0.41,-0.52,0.03,0.02,0.91,
0.747,-0.62,-0.41,-0.52,0.01,0.02,0.91,
0.747,-0.78,-0.40,-0.54,0.01,0.02,0.91,
0.749,-0.78,-0.40,-0.54,0.00,0.02,0.91,
0.751,-0.78,-0.40,-0.54,-0.00,0.03,0.91,
0.751,-0.95,-0.37,-0.51,-0.00,0.03,0.91,
0.754,-0.95,-0.37,-0.51,-0.01,0.03,0.91,
0.756,-0.95,-0.37,-0.51,-0.01,0.03,0.92,
0.756,-1.13,-0.30,-0.49,-0.01,0.03,0.92,
0.759,-1.13,-0.30,-0.49,-0.02,0.03,0.92,
0.767,-1.13,-0.30,-0.49,-0.02,0.03,0.92,
0.768,-1.24,-0.25,-0.44,-0.02,0.03,0.92,
0.768,-1.24,-0.25,-0.44,-0.02,0.03,0.92,
0.769,-1.24,-0.25,-0.44,-0.01,0.03,0.92,
0.769,-1.26,-0.23,-0.41,-0.01,0.03,0.92,
0.769,-1.26,-0.23,-0.41,-0.01,0.03,0.92,
0.771,-1.26,-0.23,-0.41,-0.00,0.03,0.92,
0.771,-1.24,-0.22,-0.37,-0.00,0.03,0.92,
0.773,-1.24,-0.22,-0.37,0.01,0.03,0.92,
0.776,-1.24,-0.22,-0.37,0.01,0.03,0.93,
0.776,-1.14,-0.20,-0.35,0.01,0.03,0.93,
0.783,-1.14,-0.20,-0.35,0.02,0.02,0.93,
0.783,-1.14,-0.20,-0.35,0.04,0.02,0.93,
0.783,-0.99,-0.20,-0.33,0.04,0.02,0.93,
0.783,-0.99,-0.20,-0.33,0.05,0.02,0.93,
0.785,-0.99,-0.20,-0.33,0.06,0.02,0.93,
0.785,-0.80,-0.23,-0.30,0.06,0.02,0.93,
0.788,-0.80,-0.23,-0.30,0.07,0.01,0.93,
0.79,-0.80,-0.23,-0.30,0.08,0.01,0.93,
0.79,-0.56,-0.25,-0.29,0.08,0.01,0.93,
0.793,-0.56,-0.25,-0.29,0.09,0.02,0.93,
0.795,-0.56,-0.25,-0.29,0.09,0.02,0.93,
0.796,-0.37,-0.29,-0.28,0.09,0.02,0.93,
0.798,-0.37,-0.29,-0.28,0.10,0.02,0.93,
0.8,-0.37,-0.29,-0.28,0.10,0.02,0.93,
0.803,-0.22,-0.25,-0.29,0.10,0.02,0.93,
0.803,-0.22,-0.25,-0.29,0.11,0.03,0.93,
0.805,-0.22,-0.25,-0.29,0.11,0.03,0.93,
0.805,-0.10,-0.19,-0.28,0.11,0.03,0.93,
0.807,-0.10,-0.19,-0.28,0.11,0.04,0.93,
0.81,-0.10,-0.19,-0.28,0.12,0.04,0.93,
0.81,-0.02,-0.09,-0.26,0.12,0.04,0.93,
0.812,-0.02,-0.09,-0.26,0.12,0.04,0.93,
0.815,-0.02,-0.09,-0.26,0.12,0.04,0.93,
0.815,0.05,-0.01,-0.27,0.12,0.04,0.93,
0.817,0.05,-0.01,-0.27,0.13,0.05,0.93,
0.82,0.05,-0.01,-0.27,0.13,0.05,0.92,
0.82,0.12,0.05,-0.28,0.13,0.05,0.92,
0.822,0.12,0.05,-0.28,0.12,0.05,0.92,
0.825,0.12,0.05,-0.28,0.12,0.05,0.92,
0.825,0.15,0.08,-0.33,0.12,0.05,0.92,
0.827,0.15,0.08,-0.33,0.12,0.05,0.92,
0.83,0.15,0.08,-0.33,0.11,0.05,0.91,
0.83,0.12,0.12,-0.36,0.11,0.05,0.91,
0.832,0.12,0.12,-0.36,0.11,0.05,0.91,
0.835,0.12,0.12,-0.36,0.10,0.06,0.91,
0.835,0.06,0.16,-0.40,0.10,0.06,0.91,
0.837,0.06,0.16,-0.40,0.09,0.06,0.91,
0.839,0.06,0.16,-0.40,0.08,0.06,0.91,
0.84,-0.05,0.21,-0.46,0.08,0.06,0.91,
0.842,-0.05,0.21,-0.46,0.07,0.06,0.90,
0.845,-0.05,0.21,-0.46,0.06,0.06,0.90,
0.846,-0.21,0.22,-0.50,0.06,0.06,0.90,
0.847,-0.21,0.22,-0.50,0.06,0.06,0.90,
0.849,-0.21,0.22,-0.50,0.05,0.06,0.90,
0.849,-0.38,0.25,-0.52,0.05,0.06,0.90,
0.852,-0.38,0.25,-0.52,0.04,0.06,0.90,
0.854,-0.38,0.25,-0.52,0.03,0.06,0.91,
0.854,-0.52,0.27,-0.53,0.03,0.06,0.91,
0.856,-0.52,0.27,-0.53,0.02,0.06,0.91,
0.859,-0.52,0.27,-0.53,0.02,0.07,0.91,
0.859,-0.68,0.31,-0.49,0.02,0.07,0.91,
0.862,-0.68,0.31,-0.49,0.02,0.06,0.91,
0.864,-0.68,0.31,-0.49,0.02,0.07,0.91,
0.865,-0.81,0.36,-0.44,0.02,0.07,0.91,
0.867,-0.81,0.36,-0.44,0.02,0.07,0.92,
0.869,-0.81,0.36,-0.44,0.02,0.07,0.92,
0.87,-0.84,0.39,-0.41,0.02,0.07,0.92,
0.871,-0.84,0.39,-0.41,0.03,0.07,0.93,
0.874,-0.84,0.39,-0.41,0.04,0.07,0.93,
0.874,-0.79,0.42,-0.34,0.04,0.07,0.93,
0.876,-0.79,0.42,-0.34,0.04,0.07,0.94,
0.884,-0.79,0.42,-0.34,0.05,0.07,0.94,
0.884,-0.69,0.43,-0.24,0.05,0.07,0.94,
0.885,-0.69,0.43,-0.24,0.06,0.07,0.95,
0.885,-0.69,0.43,-0.24,0.07,0.06,0.95,
0.885,-0.54,0.43,-0.15,0.07,0.06,0.95,
0.886,-0.54,0.43,-0.15,0.09,0.06,0.96,
0.888,-0.54,0.43,-0.15,0.10,0.06,0.96,
0.888,-0.35,0.43,-0.05,0.10,0.06,0.96,
0.891,-0.35,0.43,-0.05,0.11,0.06,0.97,
0.893,-0.35,0.43,-0.05,0.12,0.06,0.97,
0.893,-0.13,0.43,0.05,0.12,0.06,0.97,
0.896,-0.13,0.43,0.05,0.13,0.06,0.98,
0.898,-0.13,0.43,0.05,0.13,0.06,0.98,
0.898,0.09,0.43,0.13,0.13,0.06,0.98,
0.9,0.09,0.43,0.13,0.14,0.05,0.98,
0.903,0.09,0.43,0.13,0.15,0.05,0.98,
0.903,0.25,0.40,0.21,0.15,0.05,0.98,
0.905,0.25,0.40,0.21,0.15,0.05,0.99,
0.908,0.25,0.40,0.21,0.15,0.05,0.99,
0.908,0.37,0.38,0.27,0.15,0.05,0.99,
0.911,0.37,0.38,0.27,0.15,0.05,0.99,
0.913,0.37,0.38,0.27,0.15,0.05,0.99,
0.913,0.43,0.37,0.32,0.15,0.05,0.99,
0.916,0.43,0.37,0.32,0.14,0.04,1.00,
0.918,0.43,0.37,0.32,0.14,0.04,1.00,
0.918,0.42,0.35,0.37,0.14,0.04,1.00,
0.92,0.42,0.35,0.37,0.13,0.04,1.00,
0.923,0.42,0.35,0.37,0.12,0.03,1.00,
0.923,0.32,0.30,0.43,0.12,0.03,1.00,
0.925,0.32,0.30,0.43,0.11,0.03,1.00,
0.928,0.32,0.30,0.43,0.09,0.03,1.00,
0.929,0.15,0.26,0.42,0.09,0.03,1.00,
0.93,0.15,0.26,0.42,0.08,0.03,0.99,
0.933,0.15,0.26,0.42,0.06,0.04,0.99,
0.933,-0.08,0.25,0.38,0.06,0.04,0.99,
0.935,-0.08,0.25,0.38,0.05,0.04,1.00,
0.937,-0.08,0.25,0.38,0.03,0.04,1.00,
0.938,-0.39,0.28,0.36,0.03,0.04,1.00,
0.94,-0.39,0.28,0.36,0.02,0.04,1.00,
0.942,-0.39,0.28,0.36,0.01,0.04,1.00,
0.943,-0.67,0.32,0.38,0.01,0.04,1.00,
0.945,-0.67,0.32,0.38,-0.01,0.04,1.00,
0.947,-0.67,0.32,0.38,-0.01,0.04,1.00,
0.948,-0.93,0.35,0.40,-0.01,0.04,1.00,
0.95,-0.93,0.35,0.40,-0.02,0.04,1.00,
0.952,-0.93,0.35,0.40,-0.02,0.04,1.00,
0.952,-1.16,0.36,0.39,-0.02,0.04,1.00,
0.955,-1.16,0.36,0.39,-0.03,0.04,1.00,
0.957,-1.16,0.36,0.39,-0.03,0.04,1.00,
0.957,-1.26,0.36,0.39,-0.03,0.04,1.00,
0.959,-1.26,0.36,0.39,-0.02,0.03,1.00,
0.962,-1.26,0.36,0.39,-0.02,0.03,1.00,
0.962,-1.31,0.34,0.38,-0.02,0.03,1.00,
0.964,-1.31,0.34,0.38,-0.01,0.03,1.00,
0.967,-1.23,0.31,0.39,-0.01,0.03,1.00,
0.967,-1.23,0.31,0.39,-0.00,0.03,1.00,
0.969,-1.23,0.31,0.39,0.00,0.03,1.00,
0.972,-1.23,0.31,0.39,0.01,0.03,1.01,
0.972,-1.12,0.29,0.41,0.01,0.03,1.01,
0.974,-1.12,0.29,0.41,0.02,0.04,1.01,
0.976,-1.12,0.29,0.41,0.03,0.04,1.01,
0.976,-0.96,0.33,0.47,0.03,0.04,1.01,
0.979,-0.96,0.33,0.47,0.04,0.05,1.02,
0.981,-0.96,0.33,0.47,0.05,0.05,1.02,
0.982,-0.76,0.40,0.52,0.05,0.05,1.02,
0.984,-0.76,0.40,0.52,0.06,0.05,1.03,
0.986,-0.76,0.40,0.52,0.07,0.06,1.03,
0.986,-0.56,0.50,0.58,0.07,0.06,1.03,
0.989,-0.56,0.50,0.58,0.08,0.06,1.03,
0.991,-0.56,0.50,0.58,0.08,0.07,1.03,
0.991,-0.39,0.58,0.65,0.08,0.07,1.03,
0.994,-0.39,0.58,0.65,0.09,0.07,1.04,
0.996,-0.39,0.58,0.65,0.09,0.08,1.04,
0.996,-0.26,0.69,0.70,0.09,0.08,1.04,
0.998,-0.26,0.69,0.70,0.10,0.08,1.04,
1.001,-0.26,0.69,0.70,0.10,0.09,1.05,
1.001,-0.16,0.79,0.75,0.10,0.09,1.05,
1.003,-0.16,0.79,0.75,0.11,0.09,1.05,
1.006,-0.16,0.79,0.75,0.11,0.09,1.05,
1.006,-0.06,0.90,0.80,0.11,0.09,1.05,
1.008,-0.06,0.90,0.80,0.11,0.10,1.05,
1.011,-0.06,0.90,0.80,0.11,0.10,1.05,
1.012,0.01,0.98,0.85,0.11,0.10,1.05,
1.013,0.01,0.98,0.85,0.11,0.10,1.05,
1.015,0.01,0.98,0.85,0.11,0.10,1.05,
1.016,0.07,1.05,0.84,0.11,0.10,1.05,
1.018,0.07,1.05,0.84,0.11,0.10,1.05,
1.02,0.07,1.05,0.84,0.11,0.09,1.05,
1.02,0.08,1.06,0.82,0.11,0.09,1.05,
1.023,0.08,1.06,0.82,0.11,0.09,1.04,
1.025,0.08,1.06,0.82,0.10,0.09,1.04,
1.026,0.09,1.02,0.80,0.10,0.09,1.04,
1.028,0.09,1.02,0.80,0.10,0.08,1.04,
1.03,0.09,1.02,0.80,0.10,0.07,1.03,
1.031,0.03,0.96,0.74,0.10,0.07,1.03,
1.033,0.03,0.96,0.74,0.10,0.07,1.03,
1.035,0.03,0.96,0.74,0.09,0.06,1.03,
1.035,-0.01,0.86,0.69,0.09,0.06,1.03,
1.038,-0.01,0.86,0.69,0.08,0.06,1.03,
1.04,-0.01,0.86,0.69,0.08,0.05,1.02,
1.041,-0.06,0.76,0.61,0.08,0.05,1.02,
1.045,-0.06,0.76,0.61,0.07,0.05,1.02,
1.045,-0.06,0.76,0.61,0.07,0.05,1.01,
1.046,-0.18,0.65,0.54,0.07,0.05,1.01,
1.047,-0.18,0.65,0.54,0.06,0.04,1.01,
1.05,-0.18,0.65,0.54,0.05,0.04,1.01,
1.05,-0.28,0.60,0.47,0.05,0.04,1.01,
1.052,-0.28,0.60,0.47,0.03,0.04,1.01,
1.055,-0.28,0.60,0.47,0.03,0.04,1.01,
1.055,-0.43,0.55,0.42,0.03,0.04,1.01,
1.057,-0.43,0.55,0.42,0.02,0.04,1.01,
1.059,-0.43,0.55,0.42,0.01,0.04,1.01,
1.06,-0.63,0.55,0.38,0.01,0.04,1.01,
1.067,-0.63,0.55,0.38,-0.00,0.04,1.01,
1.067,-0.63,0.55,0.38,-0.01,0.04,1.02,
1.068,-0.79,0.59,0.39,-0.01,0.04,1.02,
1.068,-0.79,0.59,0.39,-0.01,0.05,1.02,
1.069,-0.79,0.59,0.39,-0.02,0.05,1.02,
1.07,-0.92,0.61,0.44,-0.02,0.05,1.02,
1.072,-0.92,0.61,0.44,-0.02,0.05,1.03,
1.074,-0.92,0.61,0.44,-0.02,0.05,1.03,
1.075,-0.99,0.65,0.49,-0.02,0.05,1.03,
1.077,-0.99,0.65,0.49,-0.01,0.05,1.03,
1.081,-0.99,0.65,0.49,-0.01,0.05,1.04,
1.081,-1.02,0.65,0.56,-0.01,0.05,1.04,
1.082,-1.02,0.65,0.56,-0.00,0.05,1.05,
1.084,-1.02,0.65,0.56,0.00,0.05,1.05,
1.084,-0.95,0.67,0.65,0.00,0.05,1.05,
1.086,-0.95,0.67,0.65,0.01,0.05,1.06,
1.089,-0.95,0.67,0.65,0.02,0.05,1.06,
1.089,-0.81,0.71,0.75,0.02,0.05,1.06,
1.091,-0.81,0.71,0.75,0.03,0.05,1.07,
1.094,-0.81,0.71,0.75,0.04,0.05,1.07,
1.094,-0.64,0.76,0.86,0.04,0.05,1.07,
1.096,-0.64,0.76,0.86,0.05,0.05,1.08,
1.099,-0.64,0.76,0.86,0.06,0.05,1.08,
1.099,-0.45,0.76,0.95,0.06,0.05,1.08,
1.101,-0.45,0.76,0.95,0.07,0.05,1.08,
1.104,-0.45,0.76,0.95,0.08,0.04,1.09,
1.104,-0.22,0.75,1.03,0.08,0.04,1.09,
1.106,-0.22,0.75,1.03,0.09,0.05,1.09,
1.109,-0.22,0.75,1.03,0.10,0.04,1.09,
1.109,-0.01,0.74,1.09,0.10,0.04,1.09,
1.111,-0.01,0.74,1.09,0.11,0.04,1.10,
1.114,-0.01,0.74,1.09,0.12,0.04,1.09,
1.114,0.18,0.75,1.14,0.12,0.04,1.09,
1.116,0.18,0.75,1.14,0.12,0.03,1.09,
1.118,0.18,0.75,1.14,0.13,0.03,1.09,
1.118,0.34,0.71,1.15,0.13,0.03,1.09,
1.121,0.34,0.71,1.15,0.13,0.02,1.09,
1.123,0.34,0.71,1.15,0.13,0.02,1.09,
1.123,0.45,0.65,1.12,0.13,0.02,1.09,
1.126,0.45,0.65,1.12,0.13,0.01,1.08,
1.128,0.45,0.65,1.12,0.13,0.01,1.08,
1.129,0.51,0.55,1.08,0.13,0.01,1.08,
1.131,0.51,0.55,1.08,0.13,0.01,1.08,
1.133,0.51,0.55,1.08,0.12,0.00,1.07,
1.134,0.53,0.47,1.00,0.12,0.00,1.07,
1.135,0.53,0.47,1.00,0.12,-0.00,1.06,
1.138,0.53,0.47,1.00,0.11,-0.01,1.06,
1.138,0.49,0.40,0.90,0.11,-0.01,1.06,
1.14,0.49,0.40,0.90,0.10,-0.01,1.05,
1.143,0.49,0.40,0.90,0.10,-0.01,1.05,
1.144,0.40,0.31,0.77,0.10,-0.01,1.05,
1.146,0.40,0.31,0.77,0.09,-0.01,1.04,
1.148,0.40,0.31,0.77,0.08,-0.01,1.04,
1.148,0.29,0.27,0.65,0.08,-0.01,1.04,
1.15,0.29,0.27,0.65,0.07,-0.00,1.03,
1.153,0.29,0.27,0.65,0.06,0.00,1.03,
1.153,0.16,0.28,0.54,0.06,0.00,1.03,
1.155,0.16,0.28,0.54,0.05,0.01,1.02,
1.157,0.16,0.28,0.54,0.04,0.01,1.02,
1.158,-0.01,0.36,0.45,0.04,0.01,1.02,
1.167,-0.01,0.36,0.45,0.03,0.02,1.01,
1.167,-0.01,0.36,0.45,0.03,0.03,1.01,
1.168,-0.18,0.45,0.38,0.03,0.03,1.01,
1.168,-0.18,0.45,0.38,0.02,0.03,1.00,
1.168,-0.18,0.45,0.38,0.01,0.04,1.00,
1.168,-0.32,0.58,0.26,0.01,0.04,1.00,
1.17,-0.32,0.58,0.26,0.01,0.04,1.00,
1.172,-0.32,0.58,0.26,0.00,0.04,1.00,
1.173,-0.47,0.68,0.18,0.00,0.04,1.00,
1.175,-0.47,0.68,0.18,0.00,0.05,0.99,
1.179,-0.47,0.68,0.18,-0.00,0.05,0.99,
1.18,-0.52,0.77,0.13,-0.00,0.05,0.99,
1.18,-0.52,0.77,0.13,-0.00,0.05,0.99,
1.182,-0.52,0.77,0.13,-0.00,0.05,0.99,
1.182,-0.57,0.80,0.09,-0.00,0.05,0.99,
1.184,-0.57,0.80,0.09,0.00,0.05,0.99,
1.187,-0.57,0.80,0.09,0.00,0.05,0.99,
1.187,-0.57,0.81,0.06,0.00,0.05,0.99,
1.189,-0.57,0.81,0.06,0.01,0.04,0.99,
1.192,-0.57,0.81,0.06,0.01,0.04,0.98,
1.192,-0.52,0.79,0.04,0.01,0.04,0.98,
1.195,-0.52,0.79,0.04,0.02,0.04,0.98,
1.197,-0.52,0.79,0.04,0.02,0.04,0.98,
1.197,-0.43,0.74,-0.02,0.02,0.04,0.98,
1.199,-0.43,0.74,-0.02,0.02,0.03,0.98,
1.202,-0.43,0.74,-0.02,0.03,0.03,0.98,
1.202,-0.33,0.69,-0.07,0.03,0.03,0.98,
1.204,-0.33,0.69,-0.07,0.03,0.03,0.97,
1.206,-0.33,0.69,-0.07,0.04,0.02,0.97,
1.207,-0.23,0.63,-0.09,0.04,0.02,0.97,
1.209,-0.23,0.63,-0.09,0.04,0.02,0.97,
1.212,-0.23,0.63,-0.09,0.05,0.02,0.97,
1.212,-0.10,0.55,-0.11,0.05,0.02,0.97,
1.214,-0.10,0.55,-0.11,0.05,0.02,0.97,
1.217,-0.10,0.55,-0.11,0.05,0.01,0.97,
1.217,-0.02,0.49,-0.12,0.05,0.01,0.97,
1.219,-0.02,0.49,-0.12,0.05,0.01,0.98,
1.221,-0.02,0.49,-0.12,0.05,0.02,0.97,
1.222,0.03,0.45,-0.11,0.05,0.02,0.97,
1.224,0.03,0.45,-0.11,0.05,0.02,0.97,
1.227,0.03,0.45,-0.11,0.04,0.02,0.97,
1.228,0.03,0.46,-0.11,0.04,0.02,0.97,
1.229,0.03,0.46,-0.11,0.04,0.02,0.97,
1.231,0.03,0.46,-0.11,0.04,0.02,0.97,
1.231,0.01,0.51,-0.13,0.04,0.02,0.97,
1.234,0.01,0.51,-0.13,0.04,0.03,0.97,
1.236,0.01,0.51,-0.13,0.03,0.03,0.98,
1.236,-0.04,0.54,-0.14,0.03,0.03,0.98,
1.238,-0.04,0.54,-0.14,0.03,0.03,0.98,
1.241,-0.04,0.54,-0.14,0.04,0.03,0.98,
1.241,-0.08,0.56,-0.11,0.04,0.03,0.98,
1.244,-0.08,0.56,-0.11,0.04,0.02,0.98,
1.246,-0.08,0.56,-0.11,0.04,0.03,0.98,
1.246,-0.07,0.57,-0.05,0.04,0.03,0.98,
1.248,-0.07,0.57,-0.05,0.04,0.02,0.98,
1.251,-0.07,0.57,-0.05,0.04,0.02,0.98,
1.251,-0.04,0.57,-0.04,0.04,0.02,0.98,
1.253,-0.04,0.57,-0.04,0.04,0.02,0.98,
1.255,-0.04,0.57,-0.04,0.04,0.02,0.98,
1.256,-0.02,0.55,-0.06,0.04,0.02,0.98,
1.258,-0.02,0.55,-0.06,0.04,0.02,0.98,
1.261,-0.02,0.55,-0.06,0.04,0.02,0.98,
1.261,0.01,0.56,-0.05,0.04,0.02,0.98,
1.263,0.01,0.56,-0.05,0.04,0.02,0.98,
1.266,0.01,0.56,-0.05,0.04,0.02,0.98,
1.266,0.02,0.54,-0.04,0.04,0.02,0.98,
1.268,0.02,0.54,-0.04,0.04,0.02,0.98,
1.27,0.02,0.54,-0.04,0.04,0.01,0.98,
1.271,0.03,0.53,-0.03,0.04,0.01,0.98,
1.273,0.03,0.53,-0.03,0.04,0.01,0.98,
1.275,0.03,0.53,-0.03,0.04,0.01,0.98,
1.276,0.05,0.51,-0.03,0.04,0.01,0.98,
1.283,0.05,0.51,-0.03,0.04,0.01,0.98,
1.284,0.05,0.51,-0.03,0.04,0.01,0.97,
1.284,0.08,0.49,-0.06,0.04,0.01,0.97,
1.284,0.08,0.49,-0.06,0.03,0.01,0.97,
1.285,0.08,0.49,-0.06,0.03,0.01,0.97,
1.285,0.05,0.45,-0.10,0.03,0.01,0.97,
1.287,0.05,0.45,-0.10,0.03,0.01,0.97,
1.29,0.05,0.45,-0.10,0.03,0.01,0.97,
1.291,0.04,0.45,-0.13,0.03,0.01,0.97,
1.292,0.04,0.45,-0.13,0.03,0.01,0.97,
1.296,0.04,0.45,-0.13,0.03,0.00,0.97,
1.296,0.04,0.48,-0.14,0.03,0.00,0.97,
1.297,0.04,0.48,-0.14,0.02,0.01,0.97,
1.299,0.04,0.48,-0.14,0.02,0.01,0.97,
1.3,0.01,0.46,-0.15,0.02,0.01,0.97,
1.302,0.01,0.46,-0.15,0.01,0.01,0.97,
1.304,0.01,0.46,-0.15,0.01,0.01,0.98,
1.304,-0.05,0.48,-0.13,0.01,0.01,0.98,
1.307,-0.05,0.48,-0.13,-0.00,0.01,0.98,
1.309,-0.05,0.48,-0.13,-0.01,0.02,0.98,
1.31,-0.14,0.53,-0.09,-0.01,0.02,0.98,
1.312,-0.14,0.53,-0.09,-0.01,0.02,0.98,
1.314,-0.14,0.53,-0.09,-0.01,0.02,0.98,
1.314,-0.24,0.57,-0.06,-0.01,0.02,0.98,
1.317,-0.24,0.57,-0.06,-0.02,0.02,0.98,
1.319,-0.24,0.57,-0.06,-0.02,0.03,0.99,
1.319,-0.30,0.61,-0.02,-0.02,0.03,0.99,
1.322,-0.30,0.61,-0.02,-0.02,0.03,0.99,
1.324,-0.30,0.61,-0.02,-0.02,0.03,0.99,
1.324,-0.35,0.68,0.03,-0.02,0.03,0.99,
1.326,-0.35,0.68,0.03,-0.02,0.04,1.00,
1.329,-0.35,0.68,0.03,-0.01,0.04,1.00,
1.329,-0.36,0.73,0.09,-0.01,0.04,1.00,
1.332,-0.36,0.73,0.09,-0.01,0.04,1.00,
1.334,-0.36,0.73,0.09,-0.01,0.04,1.01,
1.334,-0.33,0.80,0.16,-0.01,0.04,1.01,
1.336,-0.33,0.80,0.16,-0.00,0.04,1.01,
1.339,-0.33,0.80,0.16,0.00,0.04,1.01,
1.339,-0.25,0.83,0.20,0.00,0.04,1.01,
1.341,-0.25,0.83,0.20,0.01,0.04,1.01,
1.344,-0.25,0.83,0.20,0.01,0.04,1.01,
1.344,-0.18,0.84,0.24,0.01,0.04,1.01,
1.346,-0.18,0.84,0.24,0.02,0.04,1.01,
1.349,-0.18,0.84,0.24,0.02,0.04,1.01,
1.349,-0.07,0.84,0.26,0.02,0.04,1.01,
1.351,-0.07,0.84,0.26,0.03,0.04,1.02,
1.353,-0.07,0.84,0.26,0.03,0.04,1.02,
1.354,0.03,0.84,0.27,0.03,0.04,1.02,
1.356,0.03,0.84,0.27,0.03,0.04,1.02,
1.358,0.03,0.84,0.27,0.03,0.04,1.02,
1.359,0.09,0.82,0.31,0.03,0.04,1.02,
1.367,0.09,0.82,0.31,0.03,0.04,1.02,
1.367,0.09,0.82,0.31,0.04,0.03,1.02,
1.368,0.13,0.82,0.33,0.04,0.03,1.02,
1.368,0.13,0.82,0.33,0.05,0.03,1.02,
1.368,0.13,0.82,0.33,0.05,0.02,1.02,
1.368,0.19,0.78,0.34,0.05,0.02,1.02,
1.371,0.19,0.78,0.34,0.05,0.02,1.02,
1.373,0.19,0.78,0.34,0.06,0.01,1.01,
1.373,0.30,0.69,0.32,0.06,0.01,1.01,
1.375,0.30,0.69,0.32,0.06,0.00,1.01,
1.378,0.30,0.69,0.32,0.07,-0.00,1.01,
1.379,0.37,0.55,0.27,0.07,-0.00,1.01,
1.38,0.37,0.55,0.27,0.07,-0.01,1.01,
1.383,0.37,0.55,0.27,0.07,-0.02,1.00,
1.383,0.46,0.42,0.22,0.07,-0.02,1.00,
1.385,0.46,0.42,0.22,0.07,-0.02,1.00,
1.388,0.46,0.42,0.22,0.07,-0.02,1.00,
1.388,0.50,0.28,0.18,0.07,-0.02,1.00,
1.39,0.50,0.28,0.18,0.06,-0.03,1.00,
1.394,0.50,0.28,0.18,0.05,-0.03,1.01,
1.394,0.50,0.20,0.16,0.05,-0.03,1.01,
1.395,0.50,0.20,0.16,0.04,-0.03,1.00,
1.398,0.50,0.20,0.16,0.03,-0.02,1.01,
1.398,0.39,0.16,0.18,0.03,-0.02,1.01,
1.4,0.39,0.16,0.18,0.02,-0.02,1.01,
1.403,0.39,0.16,0.18,0.01,-0.01,1.01,
1.403,0.21,0.19,0.18,0.01,-0.01,1.01,
1.405,0.21,0.19,0.18,-0.00,-0.01,1.01,
1.407,0.21,0.19,0.18,-0.01,-0.01,1.01,
1.408,0.01,0.28,0.22,-0.01,-0.01,1.01,
1.41,0.01,0.28,0.22,-0.02,-0.00,1.01,
1.412,0.01,0.28,0.22,-0.03,-0.00,1.01,
1.413,-0.19,0.34,0.24,-0.03,-0.00,1.01,
1.415,-0.19,0.34,0.24,-0.03,-0.00,1.01,
1.417,-0.19,0.34,0.24,-0.04,-0.00,1.01,
1.418,-0.35,0.40,0.25,-0.04,-0.00,1.01,
1.42,-0.35,0.40,0.25,-0.04,-0.00,1.01,
1.422,-0.35,0.40,0.25,-0.04,-0.00,1.01,
1.422,-0.46,0.40,0.24,-0.04,-0.00,1.01,
1.424,-0.46,0.40,0.24,-0.04,-0.01,1.01,
1.427,-0.46,0.40,0.24,-0.04,-0.01,1.01,
1.428,-0.50,0.40,0.25,-0.04,-0.01,1.01,
1.43,-0.50,0.40,0.25,-0.04,-0.01,1.01,
1.432,-0.50,0.40,0.25,-0.04,-0.01,1.01,
1.432,-0.47,0.36,0.25,-0.04,-0.01,1.01,
1.434,-0.47,0.36,0.25,-0.04,-0.01,1.01,
1.437,-0.47,0.36,0.25,-0.04,-0.02,1.01,
1.437,-0.46,0.31,0.22,-0.04,-0.02,1.01,
1.439,-0.46,0.31,0.22,-0.03,-0.02,1.00,
1.442,-0.46,0.31,0.22,-0.03,-0.02,1.00,
1.442,-0.42,0.27,0.20,-0.03,-0.02,1.00,
1.444,-0.42,0.27,0.20,-0.03,-0.02,1.00,
1.447,-0.42,0.27,0.20,-0.03,-0.02,1.00,
1.447,-0.37,0.26,0.15,-0.03,-0.02,1.00,
1.449,-0.37,0.26,0.15,-0.02,-0.02,1.00,
1.452,-0.37,0.26,0.15,-0.01,-0.01,1.00,
1.452,-0.30,0.26,0.12,-0.01,-0.01,1.00,
1.454,-0.30,0.26,0.12,-0.01,-0.01,1.00,
1.456,-0.30,0.26,0.12,-0.00,-0.01,1.00,
1.457,-0.18,0.27,0.09,-0.00,-0.01,1.00,
1.465,-0.18,0.27,0.09,0.00,-0.01,1.00,
1.466,-0.18,0.27,0.09,0.01,-0.01,1.00,
1.466,-0.07,0.29,0.07,0.01,-0.01,1.00,
1.466,-0.07,0.29,0.07,0.01,-0.01,1.00,
1.467,-0.07,0.29,0.07,0.02,-0.01,0.99,
1.467,0.03,0.32,0.08,0.02,-0.01,0.99,
1.469,0.03,0.32,0.08,0.03,-0.01,0.99,
1.471,0.03,0.32,0.08,0.03,-0.01,0.99,
1.471,0.16,0.33,0.06,0.03,-0.01,0.99,
1.473,0.16,0.33,0.06,0.04,-0.01,0.99,
1.479,0.16,0.33,0.06,0.04,-0.01,0.99,
1.479,0.31,0.32,0.04,0.04,-0.01,0.99,
1.479,0.31,0.32,0.04,0.05,-0.01,0.99,
1.481,0.31,0.32,0.04,0.05,-0.01,0.99,
1.481,0.40,0.30,0.01,0.05,-0.01,0.99,
1.483,0.40,0.30,0.01,0.05,-0.02,0.99,
1.486,0.40,0.30,0.01,0.05,-0.02,0.99,
1.486,0.48,0.25,0.02,0.05,-0.02,0.99,
1.488,0.48,0.25,0.02,0.05,-0.02,0.99,
1.49,0.48,0.25,0.02,0.05,-0.02,1.00,
1.491,0.50,0.18,0.04,0.05,-0.02,1.00,
1.493,0.50,0.18,0.04,0.04,-0.02,1.00,
1.495,0.50,0.18,0.04,0.03,-0.02,1.00,
1.496,0.45,0.17,0.06,0.03,-0.02,1.00,
1.498,0.45,0.17,0.06,0.03,-0.01,1.00,
1.5,0.45,0.17,0.06,0.02,-0.01,1.01,
1.501,0.33,0.19,0.10,0.02,-0.01,1.01,
1.503,0.33,0.19,0.10,0.01,-0.01,1.01,
1.505,0.33,0.19,0.10,0.00,-0.01,1.02,
1.505,0.17,0.23,0.17,0.00,-0.01,1.02,
1.508,0.17,0.23,0.17,-0.00,-0.01,1.03,
1.51,0.17,0.23,0.17,-0.01,-0.01,1.03,
1.511,0.02,0.27,0.28,-0.01,-0.01,1.03,
1.513,0.02,0.27,0.28,-0.01,-0.01,1.04,
1.515,0.02,0.27,0.28,-0.01,-0.01,1.04,
1.515,-0.10,0.28,0.38,-0.01,-0.01,1.04,
1.518,-0.10,0.28,0.38,-0.01,-0.01,1.04,
1.52,-0.10,0.28,0.38,-0.01,-0.01,1.04,
1.52,-0.20,0.26,0.46,-0.01,-0.01,1.04,
1.522,-0.20,0.26,0.46,-0.01,-0.01,1.04,
1.525,-0.20,0.26,0.46,-0.01,-0.01,1.05,
1.525,-0.21,0.26,0.50,-0.01,-0.01,1.05,
1.527,-0.21,0.26,0.50,-0.01,-0.01,1.05,
1.53,-0.21,0.26,0.50,-0.01,-0.01,1.05,
1.53,-0.19,0.25,0.53,-0.01,-0.01,1.05,
1.532,-0.19,0.25,0.53,-0.00,-0.01,1.05,
1.535,-0.19,0.25,0.53,0.00,-0.01,1.04,
1.535,-0.17,0.22,0.53,0.00,-0.01,1.04,
1.537,-0.17,0.22,0.53,0.01,-0.01,1.04,
1.539,-0.17,0.22,0.53,0.01,-0.01,1.04,
1.54,-0.08,0.20,0.52,0.01,-0.01,1.04,
1.543,-0.08,0.20,0.52,0.02,-0.01,1.04,
1.544,-0.08,0.20,0.52,0.02,-0.01,1.03,
1.545,0.01,0.21,0.47,0.02,-0.01,1.03,
1.547,0.01,0.21,0.47,0.03,-0.01,1.03,
1.549,0.01,0.21,0.47,0.03,-0.00,1.03,
1.55,0.12,0.20,0.41,0.03,-0.00,1.03,
1.552,0.12,0.20,0.41,0.04,0.00,1.02,
1.555,0.12,0.20,0.41,0.04,0.01,1.02,
1.555,0.25,0.25,0.33,0.04,0.01,1.02,
1.557,0.25,0.25,0.33,0.04,0.01,1.01,
1.56,0.25,0.25,0.33,0.05,0.02,1.01,
1.56,0.33,0.32,0.24,0.05,0.02,1.01,
1.562,0.33,0.32,0.24,0.05,0.02,1.00,
1.564,0.33,0.32,0.24,0.05,0.02,1.00,
1.565,0.40,0.39,0.14,0.05,0.02,1.00,
1.567,0.40,0.39,0.14,0.06,0.02,0.99,
1.569,0.40,0.39,0.14,0.07,0.03,0.99,
1.569,0.49,0.45,0.05,0.07,0.03,0.99,
1.572,0.49,0.45,0.05,0.07,0.03,0.98,
1.574,0.49,0.45,0.05,0.07,0.03,0.98,
1.574,0.59,0.48,-0.04,0.07,0.03,0.98,
1.582,0.59,0.48,-0.04,0.08,0.03,0.98,
1.583,0.59,0.48,-0.04,0.08,0.03,0.98,
1.583,0.69,0.48,-0.12,0.08,0.03,0.98,
1.583,0.69,0.48,-0.12,0.08,0.03,0.97,
1.584,0.69,0.48,-0.12,0.08,0.03,0.97,
1.584,0.75,0.47,-0.16,0.08,0.03,0.97,
1.586,0.75,0.47,-0.16,0.09,0.03,0.97,
1.589,0.75,0.47,-0.16,0.09,0.03,0.97,
1.589,0.80,0.47,-0.23,0.09,0.03,0.97,
1.591,0.80,0.47,-0.23,0.09,0.03,0.97,
1.599,0.80,0.47,-0.23,0.09,0.03,0.97,
1.599,0.82,0.45,-0.26,0.09,0.03,0.97,
1.6,0.82,0.45,-0.26,0.09,0.03,0.97,
1.6,0.82,0.45,-0.26,0.09,0.03,0.97,
1.6,0.85,0.45,-0.25,0.09,0.03,0.97,
1.601,0.85,0.45,-0.25,0.09,0.04,0.97,
1.603,0.85,0.45,-0.25,0.08,0.04,0.97,
1.603,0.83,0.47,-0.25,0.08,0.04,0.97,
1.606,0.83,0.47,-0.25,0.08,0.04,0.98,
1.608,0.83,0.47,-0.25,0.08,0.05,0.98,
1.608,0.76,0.51,-0.20,0.08,0.05,0.98,
1.61,0.76,0.51,-0.20,0.07,0.05,0.98,
1.613,0.70,0.58,-0.15,0.07,0.05,0.98,
1.613,0.70,0.58,-0.15,0.07,0.05,0.98,
1.615,0.70,0.58,-0.15,0.07,0.05,0.98,
1.618,0.70,0.58,-0.15,0.07,0.05,0.98,
1.618,0.61,0.61,-0.12,0.07,0.05,0.98,
1.62,0.61,0.61,-0.12,0.07,0.05,0.98,
1.623,0.61,0.61,-0.12,0.07,0.05,0.98,
1.623,0.57,0.63,-0.11,0.07,0.05,0.98,
1.626,0.57,0.63,-0.11,0.07,0.06,0.98,
1.628,0.57,0.63,-0.11,0.07,0.06,0.98,
1.628,0.55,0.62,-0.16,0.07,0.06,0.98,
1.63,0.55,0.62,-0.16,0.07,0.06,0.98,
1.632,0.55,0.62,-0.16,0.07,0.06,0.97,
1.633,0.54,0.62,-0.16,0.07,0.06,0.97,
1.635,0.54,0.62,-0.16,0.07,0.06,0.97,
1.637,0.54,0.62,-0.16,0.07,0.06,0.97,
1.637,0.51,0.63,-0.16,0.07,0.06,0.97,
1.64,0.51,0.63,-0.16,0.08,0.06,0.97,
1.643,0.51,0.63,-0.16,0.08,0.06,0.97,
1.644,0.57,0.64,-0.18,0.08,0.06,0.97,
1.645,0.57,0.64,-0.18,0.08,0.06,0.97,
1.647,0.57,0.64,-0.18,0.09,0.06,0.97,
1.647,0.63,0.61,-0.20,0.09,0.06,0.97,
1.65,0.63,0.61,-0.20,0.09,0.06,0.96,
1.652,0.63,0.61,-0.20,0.10,0.06,0.96,
1.652,0.70,0.60,-0.24,0.10,0.06,0.96,
1.655,0.70,0.60,-0.24,0.10,0.06,0.96,
1.657,0.70,0.60,-0.24,0.11,0.06,0.96,
1.657,0.79,0.61,-0.29,0.11,0.06,0.96,
1.66,0.79,0.61,-0.29,0.12,0.06,0.96,
1.662,0.79,0.61,-0.29,0.12,0.06,0.96,
1.662,0.89,0.59,-0.32,0.12,0.06,0.96,
1.664,0.89,0.59,-0.32,0.13,0.06,0.96,
1.667,0.89,0.59,-0.32,0.13,0.07,0.96,
1.667,1.01,0.62,-0.32,0.13,0.07,0.96,
1.669,1.01,0.62,-0.32,0.13,0.07,0.96,
1.672,1.01,0.62,-0.32,0.14,0.07,0.96,
1.672,1.10,0.62,-0.34,0.14,0.07,0.96,
1.674,1.10,0.62,-0.34,0.14,0.07,0.96,
1.683,1.10,0.62,-0.34,0.15,0.08,0.96,
1.683,1.15,0.64,-0.34,0.15,0.08,0.96,
1.684,1.15,0.64,-0.34,0.15,0.08,0.96,
1.684,1.15,0.64,-0.34,0.15,0.08,0.96,
1.684,1.23,0.69,-0.31,0.15,0.08,0.96,
1.685,1.23,0.69,-0.31,0.16,0.09,0.96,
1.686,1.23,0.69,-0.31,0.16,0.08,0.97,
1.687,1.29,0.73,-0.28,0.16,0.08,0.97,
1.689,1.29,0.73,-0.28,0.16,0.09,0.97,
1.691,1.29,0.73,-0.28,0.15,0.09,0.97,
1.692,1.32,0.76,-0.24,0.15,0.09,0.97,
1.697,1.32,0.76,-0.24,0.15,0.09,0.98,
1.698,1.32,0.76,-0.24,0.15,0.09,0.98,
1.698,1.29,0.78,-0.16,0.15,0.09,0.98,
1.698,1.29,0.78,-0.16,0.15,0.09,0.98,
1.701,1.29,0.78,-0.16,0.15,0.09,0.99,
1.701,1.23,0.78,-0.10,0.15,0.09,0.99,
1.704,1.23,0.78,-0.10,0.14,0.09,0.99,
1.706,1.23,0.78,-0.10,0.14,0.08,0.99,
1.706,1.17,0.77,-0.05,0.14,0.08,0.99,
1.708,1.17,0.77,-0.05,0.14,0.08,0.98,
1.711,1.17,0.77,-0.05,0.14,0.08,0.98,
1.711,1.09,0.72,-0.02,0.14,0.08,0.98,
1.713,1.09,0.72,-0.02,0.14,0.07,0.98,
1.716,1.09,0.72,-0.02,0.14,0.07,0.98,
1.716,1.03,0.66,-0.05,0.14,0.07,0.98,
1.718,1.03,0.66,-0.05,0.13,0.07,0.98,
1.721,1.03,0.66,-0.05,0.13,0.06,0.98,
1.721,0.99,0.57,-0.09,0.13,0.06,0.98,
1.723,0.99,0.57,-0.09,0.13,0.06,0.97,
1.726,0.99,0.57,-0.09,0.13,0.06,0.97,
1.726,0.94,0.47,-0.12,0.13,0.06,0.97,
1.728,0.94,0.47,-0.12,0.13,0.06,0.97,
1.731,0.94,0.47,-0.12,0.14,0.05,0.97,
1.731,0.91,0.43,-0.16,0.14,0.05,0.97,
1.733,0.91,0.43,-0.16,0.14,0.05,0.97,
1.735,0.91,0.43,-0.16,0.14,0.05,0.97,
1.735,0.92,0.35,-0.18,0.14,0.05,0.97,
1.738,0.92,0.35,-0.18,0.15,0.05,0.97,
1.74,0.92,0.35,-0.18,0.15,0.04,0.97,
1.74,0.97,0.28,-0.20,0.15,0.04,0.97,
1.743,0.97,0.28,-0.20,0.16,0.04,0.96,
1.746,0.97,0.28,-0.20,0.16,0.04,0.96,
1.746,1.03,0.24,-0.21,0.16,0.04,0.96,
1.748,1.03,0.24,-0.21,0.17,0.04,0.96,
1.75,1.03,0.24,-0.21,0.18,0.03,0.96,
1.75,1.12,0.21,-0.24,0.18,0.03,0.96,
1.752,1.12,0.21,-0.24,0.18,0.03,0.95,
1.755,1.12,0.21,-0.24,0.19,0.03,0.95,
1.755,1.25,0.13,-0.28,0.19,0.03,0.95,
1.757,1.25,0.13,-0.28,0.19,0.04,0.95,
1.765,1.25,0.13,-0.28,0.20,0.04,0.95,
1.765,1.35,0.10,-0.32,0.20,0.04,0.95,
1.766,1.35,0.10,-0.32,0.20,0.04,0.96,
1.766,1.35,0.10,-0.32,0.20,0.04,0.96,
1.766,1.42,0.11,-0.32,0.20,0.04,0.96,
1.767,1.42,0.11,-0.32,0.20,0.04,0.96,
1.77,1.42,0.11,-0.32,0.21,0.04,0.96,
1.77,1.48,0.13,-0.27,0.21,0.04,0.96,
1.772,1.48,0.13,-0.27,0.20,0.04,0.97,
1.774,1.48,0.13,-0.27,0.20,0.04,0.97,
1.775,1.48,0.16,-0.23,0.20,0.04,0.97,
1.777,1.48,0.16,-0.23,0.20,0.05,0.97,
1.779,1.48,0.16,-0.23,0.20,0.05,0.97,
1.781,1.45,0.16,-0.16,0.20,0.05,0.97,
1.782,1.45,0.16,-0.16,0.20,0.05,0.97,
1.784,1.45,0.16,-0.16,0.19,0.05,0.98,
1.784,1.41,0.19,-0.13,0.19,0.05,0.98,
1.787,1.41,0.19,-0.13,0.19,0.05,0.97,
1.789,1.41,0.19,-0.13,0.19,0.05,0.98,
1.789,1.31,0.20,-0.10,0.19,0.05,0.98,
1.792,1.31,0.20,-0.10,0.19,0.05,0.98,
1.794,1.31,0.20,-0.10,0.18,0.05,0.98,
1.794,1.21,0.21,-0.10,0.18,0.05,0.98,
1.797,1.21,0.21,-0.10,0.18,0.05,0.98,
1.799,1.21,0.21,-0.10,0.18,0.04,0.98,
1.799,1.13,0.20,-0.07,0.18,0.04,0.98,
1.802,1.13,0.20,-0.07,0.18,0.04,0.98,
1.804,1.13,0.20,-0.07,0.18,0.04,0.98,
1.804,1.08,0.14,-0.05,0.18,0.04,0.98,
1.806,1.08,0.14,-0.05,0.18,0.03,0.98,
1.809,1.08,0.14,-0.05,0.18,0.03,0.98,
1.809,1.03,0.05,-0.04,0.18,0.03,0.98,
1.811,1.03,0.05,-0.04,0.19,0.02,0.98,
1.814,1.03,0.05,-0.04,0.19,0.02,0.98,
1.814,1.03,-0.04,-0.06,0.19,0.02,0.98,
1.816,1.03,-0.04,-0.06,0.19,0.01,0.98,
1.818,1.03,-0.04,-0.06,0.20,0.01,0.98,
1.819,1.07,-0.14,-0.07,0.20,0.01,0.98,
1.821,1.07,-0.14,-0.07,0.20,0.01,0.98,
1.824,1.07,-0.14,-0.07,0.20,0.01,0.98,
1.824,1.12,-0.21,-0.07,0.20,0.01,0.98,
1.826,1.12,-0.21,-0.07,0.21,0.01,0.99,
1.829,1.12,-0.21,-0.07,0.21,0.02,0.99,
1.829,1.17,-0.24,-0.02,0.21,0.02,0.99,
1.831,1.17,-0.24,-0.02,0.22,0.02,1.00,
1.833,1.17,-0.24,-0.02,0.23,0.01,1.01,
1.834,1.23,-0.19,0.07,0.23,0.01,1.01,
1.836,1.23,-0.19,0.07,0.24,0.01,1.01,
1.838,1.23,-0.19,0.07,0.24,0.01,1.01,
1.838,1.35,-0.21,0.21,0.24,0.01,1.01,
1.841,1.35,-0.21,0.21,0.25,0.01,1.01,
1.844,1.35,-0.21,0.21,0.25,0.00,1.01,
1.844,1.50,-0.26,0.26,0.25,0.00,1.01,
1.846,1.50,-0.26,0.26,0.26,0.00,1.01,
1.848,1.50,-0.26,0.26,0.27,0.00,1.02,
1.848,1.61,-0.32,0.26,0.27,0.00,1.02,
1.85,1.61,-0.32,0.26,0.27,0.00,1.02,
1.853,1.61,-0.32,0.26,0.28,0.00,1.02,
1.853,1.71,-0.34,0.31,0.28,0.00,1.02,
1.855,1.71,-0.34,0.31,0.28,0.00,1.03,
1.865,1.71,-0.34,0.31,0.28,0.00,1.03,
1.865,1.81,-0.33,0.38,0.28,0.00,1.03,
1.865,1.81,-0.33,0.38,0.29,0.00,1.03,
1.866,1.81,-0.33,0.38,0.29,0.00,1.03,
1.866,1.84,-0.36,0.44,0.29,0.00,1.03,
1.866,1.84,-0.36,0.44,0.29,0.00,1.03,
1.868,1.84,-0.36,0.44,0.28,0.00,1.03,
1.868,1.86,-0.38,0.46,0.28,0.00,1.03,
1.87,1.86,-0.38,0.46,0.28,0.00,1.03,
1.872,1.86,-0.38,0.46,0.28,-0.00,1.02,
1.873,1.83,-0.38,0.45,0.28,-0.00,1.02,
1.877,1.83,-0.38,0.45,0.28,-0.00,1.02,
1.878,1.83,-0.38,0.45,0.28,-0.01,1.02,
1.878,1.82,-0.39,0.42,0.28,-0.01,1.02,
1.88,1.82,-0.39,0.42,0.28,-0.01,1.02,
1.882,1.82,-0.39,0.42,0.28,-0.01,1.01,
1.882,1.79,-0.45,0.38,0.28,-0.01,1.01,
1.884,1.79,-0.45,0.38,0.28,-0.01,1.01,
1.887,1.79,-0.45,0.38,0.28,-0.02,1.01,
1.887,1.76,-0.53,0.32,0.28,-0.02,1.01,
1.889,1.76,-0.53,0.32,0.28,-0.02,1.00,
1.892,1.76,-0.53,0.32,0.28,-0.02,1.00,
1.893,1.71,-0.58,0.25,0.28,-0.02,1.00,
1.895,1.71,-0.58,0.25,0.28,-0.02,1.00,
1.897,1.71,-0.58,0.25,0.28,-0.03,1.00,
1.898,1.67,-0.63,0.20,0.28,-0.03,1.00,
1.9,1.67,-0.63,0.20,0.28,-0.03,0.99,
1.902,1.67,-0.63,0.20,0.27,-0.03,0.99,
1.902,1.69,-0.69,0.15,0.27,-0.03,0.99,
1.904,1.69,-0.69,0.15,0.27,-0.03,0.99,
1.907,1.69,-0.69,0.15,0.27,-0.04,0.98,
1.907,1.64,-0.77,0.11,0.27,-0.04,0.98,
1.909,1.64,-0.77,0.11,0.26,-0.04,0.98,
1.912,1.64,-0.77,0.11,0.26,-0.03,0.98,
1.912,1.59,-0.81,0.03,0.26,-0.03,0.98,
1.914,1.59,-0.81,0.03,0.26,-0.03,0.97,
1.916,1.59,-0.81,0.03,0.27,-0.03,0.97,
1.916,1.51,-0.82,-0.03,0.27,-0.03,0.97,
1.919,1.51,-0.82,-0.03,0.27,-0.04,0.97,
1.921,1.51,-0.82,-0.03,0.27,-0.04,0.97,
1.921,1.51,-0.82,-0.07,0.27,-0.04,0.97,
1.924,1.51,-0.82,-0.07,0.27,-0.05,0.97,
1.927,1.51,-0.82,-0.07,0.28,-0.05,0.96,
1.927,1.54,-0.88,-0.10,0.28,-0.05,0.96,
1.929,1.54,-0.88,-0.10,0.28,-0.05,0.96,
1.931,1.54,-0.88,-0.10,0.28,-0.06,0.96,
1.932,1.59,-0.98,-0.16,0.28,-0.06,0.96,
1.934,1.59,-0.98,-0.16,0.28,-0.06,0.96,
1.936,1.59,-0.98,-0.16,0.29,-0.06,0.96,
1.936,1.65,-1.05,-0.20,0.29,-0.06,0.96,
1.939,1.65,-1.05,-0.20,0.29,-0.06,0.96,
1.941,1.65,-1.05,-0.20,0.29,-0.06,0.96,
1.942,1.69,-1.10,-0.24,0.29,-0.06,0.96,
1.944,1.69,-1.10,-0.24,0.29,-0.06,0.96,
1.946,1.69,-1.10,-0.24,0.29,-0.06,0.96,
1.946,1.72,-1.12,-0.24,0.29,-0.06,0.96,
1.949,1.72,-1.12,-0.24,0.29,-0.06,0.96,
1.951,1.72,-1.12,-0.24,0.29,-0.06,0.96,
1.951,1.75,-1.13,-0.23,0.29,-0.06,0.96,
1.953,1.75,-1.13,-0.23,0.29,-0.07,0.96,
1.956,1.75,-1.13,-0.23,0.29,-0.07,0.96,
1.956,1.71,-1.17,-0.19,0.29,-0.07,0.96,
1.964,1.71,-1.17,-0.19,0.29,-0.07,0.96,
1.965,1.71,-1.17,-0.19,0.29,-0.07,0.96,
1.965,1.68,-1.21,-0.18,0.29,-0.07,0.96,
1.965,1.68,-1.21,-0.18,0.28,-0.08,0.96,
1.966,1.68,-1.21,-0.18,0.28,-0.08,0.96,
1.966,1.65,-1.26,-0.17,0.28,-0.08,0.96,
1.968,1.65,-1.26,-0.17,0.27,-0.09,0.97,
1.971,1.56,-1.33,-0.15,0.27,-0.09,0.97,
1.971,1.56,-1.33,-0.15,0.27,-0.09,0.97,
1.973,1.56,-1.33,-0.15,0.26,-0.09,0.97,
1.976,1.56,-1.33,-0.15,0.26,-0.09,0.97,
1.976,1.46,-1.40,-0.12,0.26,-0.09,0.97,
1.978,1.46,-1.40,-0.12,0.25,-0.09,0.97,
1.98,1.46,-1.40,-0.12,0.24,-0.10,0.97,
1.98,1.35,-1.43,-0.08,0.24,-0.10,0.97,
1.983,1.35,-1.43,-0.08,0.24,-0.10,0.97,
1.985,1.35,-1.43,-0.08,0.23,-0.10,0.97,
1.985,1.21,-1.48,-0.06,0.23,-0.10,0.97,
1.987,1.21,-1.48,-0.06,0.22,-0.10,0.97,
1.99,1.21,-1.48,-0.06,0.22,-0.10,0.98,
1.99,1.07,-1.50,-0.07,0.22,-0.10,0.98,
1.992,1.07,-1.50,-0.07,0.21,-0.10,0.98,
1.995,1.07,-1.50,-0.07,0.21,-0.10,0.98,
1.995,0.93,-1.51,-0.04,0.21,-0.10,0.98,
1.997,0.93,-1.51,-0.04,0.20,-0.10,0.98,
2.0,0.93,-1.51,-0.04,0.19,-0.10,0.99,
2.0,0.80,-1.51,0.01,0.19,-0.10,0.99,
2.002,0.80,-1.51,0.01,0.19,-0.10,0.99,
2.005,0.80,-1.51,0.01,0.19,-0.10,0.99,
2.005,0.68,-1.51,0.07,0.19,-0.10,0.99,
2.007,0.68,-1.51,0.07,0.18,-0.10,0.99,
2.01,0.68,-1.51,0.07,0.18,-0.10,0.98,
2.01,0.59,-1.53,0.10,0.18,-0.10,0.98,
2.012,0.59,-1.53,0.10,0.17,-0.10,0.98,
2.015,0.59,-1.53,0.10,0.17,-0.10,0.98,
2.015,0.50,-1.54,0.06,0.17,-0.10,0.98,
2.017,0.50,-1.54,0.06,0.17,-0.10,0.98,
2.019,0.50,-1.54,0.06,0.17,-0.09,0.98,
2.019,0.41,-1.54,0.03,0.17,-0.09,0.98,
2.022,0.41,-1.54,0.03,0.17,-0.09,0.98,
2.025,0.41,-1.54,0.03,0.16,-0.09,0.99,
2.025,0.38,-1.48,0.04,0.16,-0.09,0.99,
2.027,0.38,-1.48,0.04,0.16,-0.09,0.98,
2.029,0.38,-1.48,0.04,0.16,-0.08,0.98,
2.03,0.35,-1.45,0.06,0.16,-0.08,0.98,
2.032,0.35,-1.45,0.06,0.17,-0.08,0.98,
2.034,0.35,-1.45,0.06,0.17,-0.08,0.98,
2.035,0.34,-1.40,0.05,0.17,-0.08,0.98,
2.037,0.34,-1.40,0.05,0.18,-0.08,0.98,
2.039,0.34,-1.40,0.05,0.18,-0.08,0.97,
2.039,0.40,-1.40,0.01,0.18,-0.08,0.97,
2.042,0.40,-1.40,0.01,0.19,-0.08,0.97,
2.044,0.40,-1.40,0.01,0.19,-0.08,0.97,
2.045,0.49,-1.40,-0.03,0.19,-0.08,0.97,
2.046,0.49,-1.40,-0.03,0.20,-0.08,0.97,
2.049,0.49,-1.40,-0.03,0.21,-0.08,0.97,
2.049,0.58,-1.39,-0.10,0.21,-0.08,0.97,
2.051,0.58,-1.39,-0.10,0.21,-0.08,0.97,
2.054,0.58,-1.39,-0.10,0.21,-0.08,0.97,
2.054,0.69,-1.39,-0.12,0.21,-0.08,0.97,
2.056,0.69,-1.39,-0.12,0.21,-0.08,0.96,
2.059,0.69,-1.39,-0.12,0.21,-0.07,0.96,
2.059,0.75,-1.40,-0.12,0.21,-0.07,0.96,
2.061,0.75,-1.40,-0.12,0.21,-0.07,0.96,
2.064,0.75,-1.40,-0.12,0.21,-0.07,0.96,
2.064,0.78,-1.38,-0.15,0.21,-0.07,0.96,
2.066,0.78,-1.38,-0.15,0.21,-0.07,0.96,
2.069,0.78,-1.38,-0.15,0.20,-0.07,0.96,
2.069,0.76,-1.36,-0.16,0.20,-0.07,0.96,
2.071,0.76,-1.36,-0.16,0.20,-0.06,0.96,
2.073,0.76,-1.36,-0.16,0.20,-0.06,0.96,
2.074,0.66,-1.31,-0.15,0.20,-0.06,0.96,
2.081,0.66,-1.31,-0.15,0.19,-0.06,0.96,
2.082,0.66,-1.31,-0.15,0.19,-0.07,0.96,
2.082,0.58,-1.29,-0.14,0.19,-0.07,0.96,
2.082,0.58,-1.29,-0.14,0.20,-0.07,0.96,
2.083,0.58,-1.29,-0.14,0.19,-0.07,0.96,
2.083,0.53,-1.31,-0.14,0.19,-0.07,0.96,
2.086,0.53,-1.31,-0.14,0.20,-0.08,0.96,
2.088,0.53,-1.31,-0.14,0.20,-0.09,0.96,
2.088,0.53,-1.39,-0.14,0.20,-0.09,0.96,
2.09,0.53,-1.39,-0.14,0.21,-0.10,0.96,
2.093,0.53,-1.39,-0.14,0.21,-0.10,0.96,
2.094,0.58,-1.54,-0.12,0.21,-0.10,0.96,
2.095,0.58,-1.54,-0.12,0.21,-0.10,0.97,
2.098,0.58,-1.54,-0.12,0.22,-0.11,0.97,
2.098,0.63,-1.66,-0.11,0.22,-0.11,0.97,
2.1,0.63,-1.66,-0.11,0.22,-0.11,0.97,
2.103,0.63,-1.66,-0.11,0.22,-0.11,0.97,
2.103,0.68,-1.74,-0.08,0.22,-0.11,0.97,
2.105,0.68,-1.74,-0.08,0.22,-0.11,0.97,
2.108,0.68,-1.74,-0.08,0.21,-0.12,0.97,
2.108,0.69,-1.82,-0.07,0.21,-0.12,0.97,
2.11,0.69,-1.82,-0.07,0.21,-0.12,0.97,
2.112,0.69,-1.82,-0.07,0.21,-0.11,0.97,
2.112,0.64,-1.85,-0.06,0.21,-0.11,0.97,
2.115,0.64,-1.85,-0.06,0.20,-0.11,0.97,
2.117,0.57,-1.86,-0.06,0.20,-0.11,0.97,
2.117,0.57,-1.86,-0.06,0.20,-0.11,0.97,
2.12,0.57,-1.86,-0.06,0.20,-0.11,0.97,
2.123,0.57,-1.86,-0.06,0.20,-0.11,0.97,
2.123,0.50,-1.84,-0.06,0.20,-0.11,0.97,
2.125,0.50,-1.84,-0.06,0.19,-0.11,0.97,
2.127,0.50,-1.84,-0.06,0.19,-0.12,0.97,
2.127,0.45,-1.83,-0.03,0.19,-0.12,0.97,
2.13,0.45,-1.83,-0.03,0.19,-0.12,0.97,
2.132,0.45,-1.83,-0.03,0.19,-0.12,0.97,
2.132,0.38,-1.85,-0.03,0.19,-0.12,0.97,
2.135,0.38,-1.85,-0.03,0.19,-0.12,0.96,
2.137,0.38,-1.85,-0.03,0.18,-0.12,0.96,
2.137,0.35,-1.87,-0.05,0.18,-0.12,0.96,
2.14,0.35,-1.87,-0.05,0.18,-0.11,0.95,
2.142,0.28,-1.88,-0.11,0.18,-0.11,0.95,
2.143,0.28,-1.88,-0.11,0.17,-0.11,0.95,
2.145,0.28,-1.88,-0.11,0.17,-0.11,0.94,
2.147,0.28,-1.88,-0.11,0.16,-0.11,0.94,
2.147,0.21,-1.85,-0.21,0.16,-0.11,0.94,
2.149,0.21,-1.85,-0.21,0.16,-0.11,0.94,
2.152,0.21,-1.85,-0.21,0.15,-0.11,0.93,
2.152,0.12,-1.82,-0.31,0.15,-0.11,0.93,
2.154,0.12,-1.82,-0.31,0.15,-0.10,0.93,
2.156,0.12,-1.82,-0.31,0.14,-0.10,0.93,
2.157,0.05,-1.78,-0.37,0.14,-0.10,0.93,
2.164,0.05,-1.78,-0.37,0.14,-0.10,0.92,
2.165,0.05,-1.78,-0.37,0.14,-0.10,0.92,
2.165,-0.04,-1.76,-0.43,0.14,-0.10,0.92,
2.165,-0.04,-1.76,-0.43,0.13,-0.10,0.92,
2.166,-0.04,-1.76,-0.43,0.13,-0.09,0.92,
2.166,-0.13,-1.74,-0.49,0.13,-0.09,0.92,
2.169,-0.13,-1.74,-0.49,0.12,-0.09,0.92,
2.172,-0.13,-1.74,-0.49,0.12,-0.08,0.92,
2.172,-0.22,-1.68,-0.53,0.12,-0.08,0.92,
2.175,-0.22,-1.68,-0.53,0.11,-0.08,0.92,
2.176,-0.22,-1.68,-0.53,0.11,-0.08,0.92,
2.176,-0.31,-1.60,-0.53,0.11,-0.08,0.92,
2.179,-0.31,-1.60,-0.53,0.11,-0.07,0.93,
2.181,-0.31,-1.60,-0.53,0.10,-0.07,0.93,
2.181,-0.39,-1.51,-0.49,0.10,-0.07,0.93,
2.184,-0.39,-1.51,-0.49,0.11,-0.07,0.93,
2.186,-0.39,-1.51,-0.49,0.11,-0.07,0.93,
2.186,-0.45,-1.45,-0.44,0.11,-0.07,0.93,
2.188,-0.45,-1.45,-0.44,0.11,-0.07,0.93,
2.191,-0.45,-1.45,-0.44,0.11,-0.08,0.93,
2.191,-0.45,-1.45,-0.43,0.11,-0.08,0.93,
2.193,-0.45,-1.45,-0.43,0.12,-0.08,0.93,
2.196,-0.45,-1.45,-0.43,0.12,-0.08,0.93,
2.196,-0.43,-1.48,-0.42,0.12,-0.08,0.93,
2.198,-0.43,-1.48,-0.42,0.12,-0.08,0.93,
2.2,-0.43,-1.48,-0.42,0.13,-0.09,0.93,
2.201,-0.35,-1.53,-0.42,0.13,-0.09,0.93,
2.203,-0.35,-1.53,-0.42,0.14,-0.09,0.93,
2.206,-0.35,-1.53,-0.42,0.14,-0.10,0.94,
2.206,-0.29,-1.60,-0.41,0.14,-0.10,0.94,
2.208,-0.29,-1.60,-0.41,0.14,-0.10,0.94,
2.211,-0.29,-1.60,-0.41,0.14,-0.10,0.94,
2.211,-0.19,-1.65,-0.36,0.14,-0.10,0.94,
2.213,-0.19,-1.65,-0.36,0.14,-0.10,0.94,
2.215,-0.19,-1.65,-0.36,0.14,-0.10,0.94,
2.215,-0.16,-1.72,-0.33,0.14,-0.10,0.94,
2.218,-0.16,-1.72,-0.33,0.13,-0.10,0.94,
2.22,-0.16,-1.72,-0.33,0.13,-0.10,0.94,
2.22,-0.20,-1.73,-0.28,0.13,-0.10,0.94,
2.223,-0.20,-1.73,-0.28,0.12,-0.09,0.94,
2.225,-0.20,-1.73,-0.28,0.11,-0.09,0.94,
2.226,-0.30,-1.67,-0.28,0.11,-0.09,0.94,
2.228,-0.30,-1.67,-0.28,0.11,-0.08,0.95,
2.23,-0.30,-1.67,-0.28,0.10,-0.08,0.95,
2.23,-0.44,-1.57,-0.26,0.10,-0.08,0.95,
2.233,-0.44,-1.57,-0.26,0.09,-0.07,0.95,
2.235,-0.44,-1.57,-0.26,0.08,-0.06,0.95,
2.235,-0.61,-1.46,-0.20,0.08,-0.06,0.95,
2.237,-0.61,-1.46,-0.20,0.08,-0.06,0.96,
2.24,-0.61,-1.46,-0.20,0.07,-0.05,0.96,
2.24,-0.75,-1.31,-0.16,0.07,-0.05,0.96,
2.243,-0.75,-1.31,-0.16,0.07,-0.05,0.96,
2.245,-0.75,-1.31,-0.16,0.07,-0.04,0.96,
2.245,-0.87,-1.20,-0.12,0.07,-0.04,0.96,
2.247,-0.87,-1.20,-0.12,0.07,-0.04,0.96,
2.249,-0.87,-1.20,-0.12,0.07,-0.04,0.96,
2.25,-0.95,-1.12,-0.08,0.07,-0.04,0.96,
2.252,-0.95,-1.12,-0.08,0.07,-0.04,0.96,
2.254,-0.95,-1.12,-0.08,0.07,-0.04,0.96,
2.255,-0.93,-1.06,-0.08,0.07,-0.04,0.96,
2.264,-0.93,-1.06,-0.08,0.08,-0.04,0.96,
2.264,-0.93,-1.06,-0.08,0.08,-0.04,0.96,
2.265,-0.89,-1.05,-0.09,0.08,-0.04,0.96,
2.265,-0.89,-1.05,-0.09,0.08,-0.04,0.95,
2.265,-0.89,-1.05,-0.09,0.09,-0.04,0.96,
2.265,-0.83,-1.07,-0.10,0.09,-0.04,0.96,
2.267,-0.83,-1.07,-0.10,0.09,-0.04,0.96,
2.269,-0.83,-1.07,-0.10,0.09,-0.04,0.96,
2.271,-0.78,-1.07,-0.12,0.09,-0.04,0.96,
2.272,-0.78,-1.07,-0.12,0.09,-0.04,0.96,
2.278,-0.78,-1.07,-0.12,0.09,-0.03,0.96,
2.278,-0.77,-1.03,-0.11,0.09,-0.03,0.96,
2.279,-0.77,-1.03,-0.11,0.09,-0.03,0.96,
2.279,-0.77,-1.03,-0.11,0.08,-0.02,0.96,
2.279,-0.74,-0.98,-0.08,0.08,-0.02,0.96,
2.281,-0.74,-0.98,-0.08,0.08,-0.02,0.97,
2.284,-0.74,-0.98,-0.08,0.08,-0.02,0.97,
2.284,-0.78,-0.89,-0.04,0.08,-0.02,0.97,
2.286,-0.78,-0.89,-0.04,0.08,-0.01,0.97,
2.289,-0.78,-0.89,-0.04,0.07,-0.01,0.97,
2.289,-0.84,-0.83,-0.01,0.07,-0.01,0.97,
2.291,-0.84,-0.83,-0.01,0.07,-0.00,0.97,
2.294,-0.84,-0.83,-0.01,0.07,-0.00,0.97,
2.294,-0.91,-0.74,0.03,0.07,-0.00,0.97,
2.296,-0.91,-0.74,0.03,0.06,-0.00,0.98,
2.299,-0.91,-0.74,0.03,0.06,0.00,0.98,
2.299,-0.97,-0.66,0.07,0.06,0.00,0.98,
2.301,-0.97,-0.66,0.07,0.06,-0.00,0.98,
2.303,-0.97,-0.66,0.07,0.06,-0.00,0.99,
2.304,-1.04,-0.62,0.13,0.06,-0.00,0.99,
2.306,-1.04,-0.62,0.13,0.06,-0.00,0.99,
2.309,-1.04,-0.62,0.13,0.06,-0.00,0.99,
2.309,-1.04,-0.62,0.17,0.06,-0.00,0.99,
2.311,-1.04,-0.62,0.17,0.06,-0.01,0.99,
2.314,-1.04,-0.62,0.17,0.06,-0.01,0.99,
2.314,-1.06,-0.63,0.22,0.06,-0.01,0.99,
2.315,-1.06,-0.63,0.22,0.07,-0.02,0.99,
2.318,-1.06,-0.63,0.22,0.07,-0.02,1.00,
2.318,-1.04,-0.70,0.25,0.07,-0.02,1.00,
2.32,-1.04,-0.70,0.25,0.07,-0.02,1.00,
2.323,-1.04,-0.70,0.25,0.07,-0.03,1.00,
2.323,-1.04,-0.78,0.28,0.07,-0.03,1.00,
2.326,-1.04,-0.78,0.28,0.06,-0.03,1.00,
2.328,-1.04,-0.78,0.28,0.06,-0.04,1.01,
2.328,-1.04,-0.83,0.33,0.06,-0.04,1.01,
2.33,-1.04,-0.83,0.33,0.06,-0.04,1.01,
2.333,-1.04,-0.83,0.33,0.06,-0.04,1.01,
2.333,-1.09,-0.91,0.37,0.06,-0.04,1.01,
2.335,-1.09,-0.91,0.37,0.05,-0.04,1.01,
2.338,-1.09,-0.91,0.37,0.05,-0.05,1.01,
2.338,-1.14,-0.98,0.40,0.05,-0.05,1.01,
2.341,-1.14,-0.98,0.40,0.04,-0.05,1.01,
2.343,-1.14,-0.98,0.40,0.04,-0.05,1.01,
2.343,-1.23,-1.01,0.46,0.04,-0.05,1.01,
2.345,-1.23,-1.01,0.46,0.04,-0.05,1.02,
2.347,-1.23,-1.01,0.46,0.03,-0.05,1.02,
2.348,-1.32,-1.02,0.47,0.03,-0.05,1.02,
2.35,-1.32,-1.02,0.47,0.03,-0.05,1.03,
2.352,-1.32,-1.02,0.47,0.03,-0.04,1.03,
2.353,-1.39,-1.03,0.53,0.03,-0.04,1.03,
2.355,-1.39,-1.03,0.53,0.03,-0.04,1.03,
2.358,-1.39,-1.03,0.53,0.02,-0.04,1.04,
2.358,-1.43,-0.99,0.61,0.02,-0.04,1.04,
2.36,-1.43,-0.99,0.61,0.02,-0.04,1.04,
2.362,-1.43,-0.99,0.61,0.02,-0.03,1.04,
2.362,-1.48,-0.96,0.69,0.02,-0.03,1.04,
2.364,-1.48,-0.96,0.69,0.02,-0.03,1.04,
2.367,-1.48,-0.96,0.69,0.02,-0.03,1.04,
2.367,-1.54,-0.89,0.72,0.02,-0.03,1.04,
2.37,-1.54,-0.89,0.72,0.02,-0.03,1.03,
2.372,-1.54,-0.89,0.72,0.02,-0.03,1.03,
2.372,-1.52,-0.85,0.69,0.02,-0.03,1.03,
2.381,-1.52,-0.85,0.69,0.03,-0.03,1.03,
2.382,-1.52,-0.85,0.69,0.03,-0.03,1.03,
2.382,-1.49,-0.82,0.66,0.03,-0.03,1.03,
2.383,-1.49,-0.82,0.66,0.03,-0.03,1.03,
2.383,-1.49,-0.82,0.66,0.04,-0.03,1.03,
2.383,-1.42,-0.80,0.61,0.04,-0.03,1.03,
2.384,-1.42,-0.80,0.61,0.04,-0.03,1.03,
2.387,-1.42,-0.80,0.61,0.05,-0.03,1.03,
2.387,-1.33,-0.80,0.58,0.05,-0.03,1.03,
2.389,-1.33,-0.80,0.58,0.05,-0.03,1.03,
2.392,-1.33,-0.80,0.58,0.06,-0.03,1.02,
2.392,-1.24,-0.78,0.57,0.06,-0.03,1.02,
2.394,-1.24,-0.78,0.57,0.06,-0.03,1.02,
2.396,-1.24,-0.78,0.57,0.07,-0.03,1.02,
2.397,-1.12,-0.79,0.56,0.07,-0.03,1.02,
2.399,-1.12,-0.79,0.56,0.07,-0.03,1.02,
2.401,-1.12,-0.79,0.56,0.07,-0.02,1.01,
2.402,-1.02,-0.78,0.50,0.07,-0.02,1.01,
2.403,-1.02,-0.78,0.50,0.07,-0.02,1.01,
2.406,-1.02,-0.78,0.50,0.07,-0.02,1.01,
2.407,-0.96,-0.73,0.45,0.07,-0.02,1.01,
2.409,-0.96,-0.73,0.45,0.07,-0.01,1.01,
2.412,-0.96,-0.73,0.45,0.07,-0.01,1.02,
2.412,-0.93,-0.67,0.42,0.07,-0.01,1.02,
2.414,-0.93,-0.67,0.42,0.07,-0.01,1.02,
2.416,-0.93,-0.67,0.42,0.07,-0.01,1.02,
2.416,-0.92,-0.59,0.44,0.07,-0.01,1.02,
2.418,-0.92,-0.59,0.44,0.06,-0.01,1.01,
2.421,-0.92,-0.59,0.44,0.06,-0.01,1.01,
2.421,-0.93,-0.55,0.47,0.06,-0.01,1.01,
2.424,-0.93,-0.55,0.47,0.06,-0.01,1.02,
2.426,-0.93,-0.55,0.47,0.06,-0.01,1.02,
2.426,-0.97,-0.53,0.44,0.06,-0.01,1.02,
2.428,-0.97,-0.53,0.44,0.06,-0.01,1.01,
2.43,-0.97,-0.53,0.44,0.05,-0.01,1.01,
2.431,-0.99,-0.55,0.46,0.05,-0.01,1.01,
2.433,-0.99,-0.55,0.46,0.05,-0.01,1.01,
2.435,-0.99,-0.55,0.46,0.04,-0.01,1.02,
2.436,-1.04,-0.55,0.43,0.04,-0.01,1.02,
2.438,-1.04,-0.55,0.43,0.04,-0.01,1.02,
2.44,-1.04,-0.55,0.43,0.04,-0.01,1.02,
2.441,-1.11,-0.50,0.44,0.04,-0.01,1.02,
2.443,-1.11,-0.50,0.44,0.04,-0.01,1.02,
2.446,-1.11,-0.50,0.44,0.05,-0.01,1.02,
2.446,-1.13,-0.48,0.47,0.05,-0.01,1.02,
2.448,-1.13,-0.48,0.47,0.05,-0.01,1.02,
2.45,-1.13,-0.48,0.47,0.06,-0.01,1.02,
2.45,-1.10,-0.48,0.49,0.06,-0.01,1.02,
2.453,-1.10,-0.48,0.49,0.06,-0.01,1.02,
2.456,-1.02,-0.47,0.48,0.06,-0.01,1.02,
2.456,-1.02,-0.47,0.48,0.07,-0.01,1.02,
2.458,-1.02,-0.47,0.48,0.07,-0.01,1.02,
2.46,-1.02,-0.47,0.48,0.08,-0.01,1.02,
2.461,-0.91,-0.49,0.49,0.08,-0.01,1.02,
2.463,-0.91,-0.49,0.49,0.09,-0.01,1.02,
2.465,-0.91,-0.49,0.49,0.09,-0.01,1.01,
2.465,-0.79,-0.50,0.47,0.09,-0.01,1.01,
2.467,-0.79,-0.50,0.47,0.10,-0.00,1.01,
2.47,-0.79,-0.50,0.47,0.10,-0.00,1.01,
2.47,-0.69,-0.49,0.44,0.10,-0.00,1.01,
2.473,-0.69,-0.49,0.44,0.10,-0.00,1.01,
2.481,-0.69,-0.49,0.44,0.10,0.00,1.01,
2.482,-0.61,-0.44,0.40,0.10,0.00,1.01,
2.482,-0.61,-0.44,0.40,0.10,0.00,1.01,
2.482,-0.61,-0.44,0.40,0.10,0.01,1.00,
2.482,-0.58,-0.41,0.36,0.10,0.01,1.00,
2.483,-0.58,-0.41,0.36,0.10,0.01,1.00,
2.485,-0.58,-0.41,0.36,0.10,0.01,1.00,
2.485,-0.57,-0.37,0.32,0.10,0.01,1.00,
2.487,-0.57,-0.37,0.32,0.10,0.01,0.99,
2.49,-0.57,-0.37,0.32,0.10,0.01,0.99,
2.49,-0.54,-0.34,0.25,0.10,0.01,0.99,
2.499,-0.54,-0.34,0.25,0.10,0.01,0.99,
2.499,-0.54,-0.34,0.25,0.10,0.01,0.99,
2.499,-0.52,-0.33,0.21,0.10,0.01,0.99,
2.499,-0.52,-0.33,0.21,0.11,0.01,0.99,
2.499,-0.52,-0.33,0.21,0.11,0.01,0.98,
2.5,-0.51,-0.33,0.17,0.11,0.01,0.98,
2.502,-0.51,-0.33,0.17,0.11,0.01,0.98,
2.504,-0.51,-0.33,0.17,0.11,0.01,0.98,
2.504,-0.45,-0.34,0.11,0.11,0.01,0.98,
2.507,-0.45,-0.34,0.11,0.12,0.01,0.97,
2.509,-0.45,-0.34,0.11,0.11,0.01,0.97,
2.509,-0.39,-0.33,0.05,0.11,0.01,0.97,
2.511,-0.39,-0.33,0.05,0.11,0.02,0.97,
2.514,-0.39,-0.33,0.05,0.11,0.02,0.97,
2.515,-0.36,-0.30,-0.01,0.11,0.02,0.97,
2.516,-0.36,-0.30,-0.01,0.11,0.02,0.96,
2.519,-0.36,-0.30,-0.01,0.11,0.02,0.96,
2.519,-0.38,-0.25,-0.06,0.11,0.02,0.96,
2.521,-0.38,-0.25,-0.06,0.11,0.02,0.96,
2.524,-0.38,-0.25,-0.06,0.11,0.02,0.96,
2.524,-0.41,-0.23,-0.10,0.11,0.02,0.96,
2.526,-0.41,-0.23,-0.10,0.11,0.02,0.96,
2.529,-0.41,-0.23,-0.10,0.10,0.01,0.95,
2.529,-0.40,-0.24,-0.13,0.10,0.01,0.95,
2.532,-0.40,-0.24,-0.13,0.10,0.01,0.95,
2.534,-0.40,-0.24,-0.13,0.10,0.01,0.95,
2.534,-0.42,-0.29,-0.17,0.10,0.01,0.95,
2.536,-0.42,-0.29,-0.17,0.11,0.01,0.95,
2.539,-0.42,-0.29,-0.17,0.11,0.01,0.95,
2.539,-0.42,-0.31,-0.19,0.11,0.01,0.95,
2.541,-0.42,-0.31,-0.19,0.11,0.00,0.95,
2.543,-0.42,-0.31,-0.19,0.11,0.00,0.95,
2.544,-0.38,-0.36,-0.19,0.11,0.00,0.95,
2.546,-0.38,-0.36,-0.19,0.12,-0.00,0.95,
2.548,-0.38,-0.36,-0.19,0.12,-0.00,0.95,
2.549,-0.32,-0.42,-0.19,0.12,-0.00,0.95,
2.551,-0.32,-0.42,-0.19,0.12,-0.01,0.95,
2.553,-0.32,-0.42,-0.19,0.12,-0.01,0.95,
2.553,-0.29,-0.47,-0.21,0.12,-0.01,0.95,
2.556,-0.29,-0.47,-0.21,0.12,-0.01,0.95,
2.563,-0.29,-0.47,-0.21,0.12,-0.01,0.95,
2.563,-0.24,-0.51,-0.22,0.12,-0.01,0.95,
2.563,-0.24,-0.51,-0.22,0.13,-0.01,0.95,
2.564,-0.24,-0.51,-0.22,0.13,-0.01,0.95,
2.564,-0.21,-0.51,-0.23,0.13,-0.01,0.95,
2.566,-0.21,-0.51,-0.23,0.12,-0.01,0.95,
2.568,-0.21,-0.51,-0.23,0.12,-0.01,0.96,
2.568,-0.19,-0.52,-0.22,0.12,-0.01,0.96,
2.57,-0.19,-0.52,-0.22,0.12,-0.01,0.96,
2.573,-0.19,-0.52,-0.22,0.12,-0.01,0.96,
2.573,-0.20,-0.53,-0.18,0.12,-0.01,0.96,
2.578,-0.20,-0.53,-0.18,0.12,-0.01,0.96,
2.578,-0.20,-0.53,-0.18,0.12,-0.01,0.96,
2.578,-0.22,-0.55,-0.11,0.12,-0.01,0.96,
2.58,-0.22,-0.55,-0.11,0.12,-0.02,0.96,
2.583,-0.22,-0.55,-0.11,0.12,-0.02,0.96,
2.583,-0.24,-0.53,-0.08,0.12,-0.02,0.96,
2.585,-0.24,-0.53,-0.08,0.12,-0.02,0.96,
2.587,-0.24,-0.53,-0.08,0.12,-0.02,0.96,
2.587,-0.26,-0.57,-0.07,0.12,-0.02,0.96,
2.59,-0.26,-0.57,-0.07,0.12,-0.02,0.97,
2.592,-0.26,-0.57,-0.07,0.12,-0.02,0.97,
2.593,-0.25,-0.57,-0.07,0.12,-0.02,0.97,
2.595,-0.25,-0.57,-0.07,0.12,-0.02,0.97,
2.597,-0.25,-0.57,-0.07,0.12,-0.02,0.97,
2.598,-0.24,-0.56,-0.04,0.12,-0.02,0.97,
2.6,-0.24,-0.56,-0.04,0.12,-0.02,0.98,
2.602,-0.24,-0.56,-0.04,0.12,-0.02,0.98,
2.603,-0.21,-0.56,0.02,0.12,-0.02,0.98,
2.605,-0.21,-0.56,0.02,0.12,-0.01,0.98,
2.607,-0.21,-0.56,0.02,0.12,-0.01,0.98,
2.607,-0.20,-0.52,0.06,0.12,-0.01,0.98,
2.609,-0.20,-0.52,0.06,0.12,-0.01,0.98,
2.612,-0.20,-0.52,0.06,0.12,-0.01,0.98,
2.612,-0.18,-0.48,0.10,0.12,-0.01,0.98,
2.614,-0.18,-0.48,0.10,0.12,-0.01,0.99,
2.617,-0.18,-0.48,0.10,0.13,-0.00,0.98,
2.617,-0.16,-0.44,0.11,0.13,-0.00,0.98,
2.619,-0.16,-0.44,0.11,0.13,0.00,0.98,
2.622,-0.16,-0.44,0.11,0.13,0.01,0.98,
2.622,-0.13,-0.37,0.12,0.13,0.01,0.98,
2.625,-0.13,-0.37,0.12,0.13,0.01,0.98,
2.627,-0.13,-0.37,0.12,0.13,0.01,0.98,
2.627,-0.11,-0.29,0.11,0.13,0.01,0.98,
2.629,-0.11,-0.29,0.11,0.13,0.01,0.98,
2.632,-0.11,-0.29,0.11,0.14,0.01,0.98,
2.632,-0.06,-0.25,0.09,0.14,0.01,0.98,
2.634,-0.06,-0.25,0.09,0.14,0.01,0.97,
2.636,-0.06,-0.25,0.09,0.15,0.01,0.97,
2.637,-0.02,-0.23,0.06,0.15,0.01,0.97,
2.639,-0.02,-0.23,0.06,0.15,0.01,0.97,
2.642,-0.02,-0.23,0.06,0.15,0.01,0.96,
2.642,0.09,-0.24,0.02,0.15,0.01,0.96,
2.644,0.09,-0.24,0.02,0.16,0.00,0.96,
2.646,0.09,-0.24,0.02,0.16,0.00,0.95,
2.646,0.17,-0.26,-0.05,0.16,0.00,0.95,
2.649,0.17,-0.26,-0.05,0.16,0.00,0.95,
2.651,0.17,-0.26,-0.05,0.16,0.00,0.95,
2.651,0.22,-0.29,-0.16,0.16,0.00,0.95,
2.653,0.22,-0.29,-0.16,0.16,0.00,0.95,
2.663,0.22,-0.29,-0.16,0.16,0.01,0.95,
2.663,0.23,-0.29,-0.22,0.16,0.01,0.95,
2.663,0.23,-0.29,-0.22,0.16,0.01,0.94,
2.664,0.23,-0.29,-0.22,0.16,0.01,0.94,
2.664,0.26,-0.29,-0.25,0.16,0.01,0.94,
2.664,0.26,-0.29,-0.25,0.16,0.01,0.94,
2.666,0.26,-0.29,-0.25,0.16,0.01,0.93,
2.666,0.25,-0.26,-0.30,0.16,0.01,0.93,
2.668,0.25,-0.26,-0.30,0.16,0.01,0.93,
2.67,0.25,-0.26,-0.30,0.15,0.01,0.93,
2.671,0.23,-0.23,-0.36,0.15,0.01,0.93,
2.674,0.23,-0.23,-0.36,0.15,0.01,0.93,
2.676,0.23,-0.23,-0.36,0.15,0.02,0.92,
2.676,0.22,-0.22,-0.41,0.15,0.02,0.92,
2.678,0.22,-0.22,-0.41,0.15,0.02,0.92,
2.68,0.22,-0.22,-0.41,0.15,0.02,0.93,
2.68,0.18,-0.20,-0.44,0.15,0.02,0.93,
2.683,0.18,-0.20,-0.44,0.15,0.02,0.92,
2.685,0.18,-0.20,-0.44,0.16,0.02,0.90,
2.685,0.15,-0.17,-0.43,0.16,0.02,0.90,
2.688,0.15,-0.17,-0.43,0.16,0.02,0.88,
2.69,0.15,-0.17,-0.43,0.16,0.02,0.87,
2.691,0.18,-0.16,-0.59,0.16,0.02,0.87,
2.693,0.18,-0.16,-0.59,0.16,0.03,0.89,
2.695,0.18,-0.16,-0.59,0.16,0.03,0.90,
2.695,0.22,-0.17,-0.92,0.16,0.03,0.90,
2.697,0.22,-0.17,-0.92,0.16,0.03,0.90,
2.7,0.22,-0.17,-0.92,0.16,0.03,0.90,
2.7,0.21,-0.11,-0.76,0.16,0.03,0.90,
2.703,0.21,-0.11,-0.76,0.15,0.03,0.89,
2.705,0.21,-0.11,-0.76,0.15,0.03,0.89,
2.705,0.18,-0.12,-0.67,0.15,0.03,0.89,
2.707,0.18,-0.12,-0.67,0.15,0.02,0.88,
2.71,0.18,-0.12,-0.67,0.16,0.02,0.89,
2.71,0.13,-0.11,-0.77,0.16,0.02,0.89,
2.712,0.13,-0.11,-0.77,0.16,0.03,0.89,
2.714,0.13,-0.11,-0.77,0.16,0.03,0.90,
2.715,0.16,-0.12,-0.80,0.16,0.03,0.90,
2.717,0.16,-0.12,-0.80,0.16,0.02,0.90,
2.72,0.16,-0.12,-0.80,0.16,0.03,0.90,
2.72,0.22,-0.09,-0.71,0.16,0.03,0.90,
2.722,0.22,-0.09,-0.71,0.16,0.02,0.91,
2.724,0.22,-0.09,-0.71,0.15,0.02,0.91,
2.725,0.21,-0.09,-0.62,0.15,0.02,0.91,
2.727,0.21,-0.09,-0.62,0.15,0.03,0.92,
2.729,0.21,-0.09,-0.62,0.15,0.03,0.93,
2.73,0.18,-0.09,-0.52,0.15,0.03,0.93,
2.732,0.18,-0.09,-0.52,0.16,0.03,0.93,
2.734,0.18,-0.09,-0.52,0.16,0.02,0.94,
2.734,0.17,-0.05,-0.42,0.16,0.02,0.94,
2.737,0.17,-0.05,-0.42,0.16,0.02,0.94,
2.74,0.17,-0.05,-0.42,0.16,0.02,0.95,
2.74,0.19,-0.04,-0.28,0.16,0.02,0.95,
2.742,0.19,-0.04,-0.28,0.16,0.02,0.96,
2.744,0.19,-0.04,-0.28,0.16,0.02,0.96,
2.744,0.24,-0.06,-0.17,0.16,0.02,0.96,
2.746,0.24,-0.06,-0.17,0.16,0.02,0.97,
2.749,0.24,-0.06,-0.17,0.17,0.02,0.98,
2.749,0.24,-0.07,-0.04,0.17,0.02,0.98,
2.751,0.24,-0.07,-0.04,0.17,0.01,0.98,
2.754,0.24,-0.07,-0.04,0.17,0.01,0.99,
2.755,0.27,-0.10,0.10,0.17,0.01,0.99,
2.757,0.27,-0.10,0.10,0.17,0.01,1.00,
2.759,0.27,-0.10,0.10,0.17,0.01,1.01,
2.76,0.30,-0.13,0.24,0.17,0.01,1.01,
2.761,0.30,-0.13,0.24,0.17,0.01,1.02,
2.763,0.30,-0.13,0.24,0.16,0.01,1.02,
2.764,0.27,-0.13,0.39,0.16,0.01,1.02,
2.766,0.27,-0.13,0.39,0.16,0.01,1.03,
2.768,0.27,-0.13,0.39,0.16,0.01,1.03,
2.769,0.24,-0.12,0.54,0.16,0.01,1.03,
2.771,0.24,-0.12,0.54,0.16,0.01,1.03,
2.776,0.24,-0.12,0.54,0.16,0.01,1.03,
2.777,0.20,-0.11,0.64,0.16,0.01,1.03,
2.777,0.20,-0.11,0.64,0.16,0.01,1.03,
2.778,0.20,-0.11,0.64,0.16,0.02,1.03,
2.779,0.15,-0.10,0.67,0.16,0.02,1.03,
2.781,0.15,-0.10,0.67,0.16,0.02,1.03,
2.783,0.15,-0.10,0.67,0.16,0.02,1.02,
2.783,0.13,-0.09,0.64,0.16,0.02,1.02,
2.786,0.13,-0.09,0.64,0.16,0.01,1.02,
2.788,0.13,-0.09,0.64,0.16,0.01,1.02,
2.788,0.13,-0.10,0.58,0.16,0.01,1.02,
