
time,ax,ay,az,gFx,gFy,gFz,
0.002,-0.02,-0.03,-0.09,-0.13,0.10,0.94,
0.003,-0.06,-0.02,-0.18,-0.13,0.10,0.94,
0.003,-0.06,-0.02,-0.18,-0.13,0.10,0.94,
0.003,-0.06,-0.02,-0.18,-0.13,0.10,0.94,
0.003,-0.07,-0.02,-0.23,-0.13,0.10,0.94,
0.004,-0.07,-0.02,-0.23,-0.13,0.10,0.94,
0.006,-0.07,-0.02,-0.23,-0.12,0.10,0.94,
0.006,-0.07,-0.00,-0.25,-0.12,0.10,0.94,
0.008,-0.07,-0.00,-0.25,-0.12,0.10,0.94,
0.011,-0.07,-0.00,-0.25,-0.12,0.10,0.94,
0.011,-0.06,0.03,-0.27,-0.12,0.10,0.94,
0.013,-0.06,0.03,-0.27,-0.11,0.10,0.94,
0.016,-0.06,0.03,-0.27,-0.11,0.10,0.94,
0.016,0.01,0.03,-0.28,-0.11,0.10,0.94,
0.018,0.01,0.03,-0.28,-0.11,0.10,0.95,
0.021,0.01,0.03,-0.28,-0.11,0.10,0.96,
0.021,0.06,0.05,-0.25,-0.11,0.10,0.96,
0.023,0.06,0.05,-0.25,-0.11,0.10,0.96,
0.026,0.06,0.05,-0.25,-0.11,0.11,0.96,
0.026,0.09,0.04,-0.15,-0.11,0.11,0.96,
0.029,0.09,0.04,-0.15,-0.11,0.11,0.97,
0.031,0.09,0.04,-0.15,-0.11,0.11,0.97,
0.031,0.08,0.08,-0.09,-0.11,0.11,0.97,
0.033,0.08,0.08,-0.09,-0.10,0.11,0.97,
0.035,0.08,0.08,-0.09,-0.10,0.11,0.97,
0.035,0.07,0.13,-0.01,-0.10,0.11,0.97,
0.038,0.07,0.13,-0.01,-0.10,0.11,0.98,
0.04,0.07,0.13,-0.01,-0.10,0.11,0.98,
0.041,0.12,0.14,0.04,-0.10,0.11,0.98,
0.044,0.12,0.14,0.04,-0.10,0.11,0.98,
0.045,0.12,0.14,0.04,-0.10,0.11,0.98,
0.045,0.15,0.15,0.07,-0.10,0.11,0.98,
0.048,0.15,0.15,0.07,-0.10,0.11,0.98,
0.05,0.15,0.15,0.07,-0.10,0.11,0.98,
0.05,0.14,0.14,0.12,-0.10,0.11,0.98,
0.053,0.14,0.14,0.12,-0.10,0.11,0.98,
0.055,0.14,0.14,0.12,-0.10,0.11,0.98,
0.055,0.13,0.13,0.14,-0.10,0.11,0.98,
0.057,0.13,0.13,0.14,-0.11,0.11,0.98,
0.06,0.13,0.13,0.14,-0.11,0.11,0.98,
0.06,0.09,0.10,0.15,-0.11,0.11,0.98,
0.062,0.09,0.10,0.15,-0.11,0.10,0.98,
0.065,0.09,0.10,0.15,-0.11,0.10,0.98,
0.065,0.06,0.09,0.12,-0.11,0.10,0.98,
0.067,0.06,0.09,0.12,-0.11,0.10,0.98,
0.07,0.06,0.09,0.12,-0.11,0.10,0.98,
0.07,0.06,0.04,0.12,-0.11,0.10,0.98,
0.072,0.06,0.04,0.12,-0.11,0.10,0.98,
0.075,0.06,0.04,0.12,-0.12,0.10,0.98,
0.075,0.01,0.01,0.11,-0.12,0.10,0.98,
0.078,0.01,0.01,0.11,-0.12,0.10,0.98,
0.08,0.01,0.01,0.11,-0.12,0.10,0.98,
0.08,-0.02,-0.01,0.10,-0.12,0.10,0.98,
0.082,-0.02,-0.01,0.10,-0.12,0.10,0.98,
0.084,-0.02,-0.01,0.10,-0.12,0.10,0.98,
0.084,-0.09,0.00,0.12,-0.12,0.10,0.98,
0.087,-0.09,0.00,0.12,-0.12,0.10,0.98,
0.09,-0.09,0.00,0.12,-0.12,0.10,0.98,
0.09,-0.09,-0.00,0.11,-0.12,0.10,0.98,
0.092,-0.09,-0.00,0.11,-0.12,0.09,0.98,
0.097,-0.09,-0.00,0.11,-0.11,0.10,0.98,
0.097,-0.07,-0.01,0.12,-0.11,0.10,0.98,
0.098,-0.07,-0.01,0.12,-0.11,0.10,0.98,
0.099,-0.07,-0.01,0.12,-0.11,0.09,0.98,
0.099,-0.02,-0.02,0.13,-0.11,0.09,0.98,
0.102,-0.02,-0.02,0.13,-0.11,0.10,0.98,
0.104,-0.02,-0.02,0.13,-0.11,0.10,0.99,
0.104,0.01,-0.01,0.13,-0.11,0.10,0.99,
0.107,0.01,-0.01,0.13,-0.11,0.10,0.99,
0.109,0.01,-0.01,0.13,-0.11,0.10,0.99,
0.109,0.02,0.00,0.14,-0.11,0.10,0.99,
0.111,0.02,0.00,0.14,-0.11,0.10,0.99,
0.114,0.02,0.00,0.14,-0.11,0.10,0.99,
0.114,0.03,0.02,0.15,-0.11,0.10,0.99,
0.116,0.03,0.02,0.15,-0.11,0.10,0.98,
0.119,0.03,0.02,0.15,-0.11,0.10,0.98,
0.119,0.02,0.03,0.15,-0.11,0.10,0.98,
0.121,0.02,0.03,0.15,-0.11,0.10,0.98,
0.124,0.02,0.03,0.15,-0.11,0.10,0.98,
0.124,0.01,0.04,0.11,-0.11,0.10,0.98,
0.127,0.01,0.04,0.11,-0.11,0.10,0.98,
0.129,0.01,0.04,0.11,-0.11,0.10,0.98,
0.129,0.01,0.01,0.10,-0.11,0.10,0.98,
0.131,0.01,0.01,0.10,-0.11,0.10,0.98,
0.133,0.01,0.01,0.10,-0.12,0.10,0.97,
0.134,0.00,0.02,0.08,-0.12,0.10,0.97,
0.136,0.00,0.02,0.08,-0.12,0.10,0.97,
0.138,0.00,0.02,0.08,-0.12,0.09,0.97,
0.138,-0.03,-0.01,0.05,-0.12,0.09,0.97,
0.141,-0.03,-0.01,0.05,-0.12,0.09,0.97,
0.143,-0.03,-0.01,0.05,-0.13,0.09,0.97,
0.144,-0.04,-0.02,0.02,-0.13,0.09,0.97,
0.146,-0.04,-0.02,0.02,-0.13,0.09,0.97,
0.148,-0.04,-0.02,0.02,-0.13,0.09,0.97,
0.149,-0.11,-0.03,-0.02,-0.13,0.09,0.97,
0.151,-0.11,-0.03,-0.02,-0.13,0.09,0.97,
0.153,-0.11,-0.03,-0.02,-0.13,0.09,0.97,
0.153,-0.13,-0.05,-0.03,-0.13,0.09,0.97,
0.155,-0.13,-0.05,-0.03,-0.13,0.09,0.97,
0.158,-0.13,-0.05,-0.03,-0.13,0.09,0.97,
0.159,-0.17,-0.06,-0.04,-0.13,0.09,0.97,
0.161,-0.17,-0.06,-0.04,-0.13,0.09,0.97,
0.163,-0.17,-0.06,-0.04,-0.13,0.09,0.97,
0.163,-0.19,-0.07,-0.04,-0.13,0.09,0.97,
0.165,-0.19,-0.07,-0.04,-0.13,0.09,0.97,
0.168,-0.19,-0.07,-0.04,-0.13,0.09,0.97,
0.168,-0.15,-0.08,-0.02,-0.13,0.09,0.97,
0.17,-0.15,-0.08,-0.02,-0.13,0.09,0.98,
0.172,-0.15,-0.08,-0.02,-0.13,0.09,0.98,
0.173,-0.15,-0.08,0.02,-0.13,0.09,0.98,
0.175,-0.15,-0.08,0.02,-0.13,0.09,0.98,
0.178,-0.15,-0.08,0.02,-0.12,0.09,0.98,
0.178,-0.16,-0.07,0.06,-0.12,0.09,0.98,
0.18,-0.16,-0.07,0.06,-0.12,0.09,0.98,
0.182,-0.16,-0.07,0.06,-0.12,0.09,0.99,
0.183,-0.13,-0.05,0.09,-0.12,0.09,0.99,
0.185,-0.13,-0.05,0.09,-0.12,0.09,0.99,
0.187,-0.13,-0.05,0.09,-0.12,0.09,0.99,
0.187,-0.08,-0.05,0.13,-0.12,0.09,0.99,
0.19,-0.08,-0.05,0.13,-0.11,0.09,0.99,
0.197,-0.08,-0.05,0.13,-0.11,0.09,0.99,
0.197,-0.04,-0.07,0.16,-0.11,0.09,0.99,
0.198,-0.04,-0.07,0.16,-0.11,0.10,0.99,
0.198,-0.04,-0.07,0.16,-0.11,0.10,0.99,
0.198,0.03,-0.05,0.17,-0.11,0.10,0.99,
0.2,0.03,-0.05,0.17,-0.11,0.10,0.99,
0.202,0.03,-0.05,0.17,-0.11,0.10,0.98,
0.202,0.05,-0.01,0.16,-0.11,0.10,0.98,
0.204,0.05,-0.01,0.16,-0.11,0.10,0.98,
0.207,0.05,-0.01,0.16,-0.11,0.10,0.98,
0.207,0.05,0.02,0.14,-0.11,0.10,0.98,
0.21,0.05,0.02,0.14,-0.11,0.10,0.98,
0.212,0.05,0.02,0.14,-0.11,0.10,0.97,
0.212,0.06,0.05,0.09,-0.11,0.10,0.97,
0.214,0.06,0.05,0.09,-0.11,0.10,0.97,
0.217,0.06,0.05,0.09,-0.11,0.10,0.97,
0.217,0.05,0.04,0.03,-0.11,0.10,0.97,
0.219,0.05,0.04,0.03,-0.11,0.10,0.97,
0.221,0.05,0.04,0.03,-0.11,0.10,0.97,
0.222,0.07,0.04,-0.01,-0.11,0.10,0.97,
0.224,0.07,0.04,-0.01,-0.11,0.10,0.96,
0.227,0.07,0.04,-0.01,-0.11,0.10,0.96,
0.227,0.06,0.04,-0.04,-0.11,0.10,0.96,
0.229,0.06,0.04,-0.04,-0.11,0.11,0.96,
0.231,0.06,0.04,-0.04,-0.12,0.11,0.97,
0.231,0.04,0.06,-0.07,-0.12,0.11,0.97,
0.234,0.04,0.06,-0.07,-0.12,0.10,0.97,
0.236,0.04,0.06,-0.07,-0.12,0.10,0.97,
0.236,-0.00,0.08,-0.06,-0.12,0.10,0.97,
0.239,-0.00,0.08,-0.06,-0.12,0.10,0.97,
0.241,-0.00,0.08,-0.06,-0.12,0.10,0.97,
0.241,-0.03,0.06,-0.05,-0.12,0.10,0.97,
0.244,-0.03,0.06,-0.05,-0.12,0.10,0.97,
0.246,-0.03,0.06,-0.05,-0.11,0.09,0.97,
0.246,-0.03,0.02,-0.05,-0.11,0.09,0.97,
0.248,-0.03,0.02,-0.05,-0.12,0.09,0.97,
0.251,-0.03,0.02,-0.05,-0.12,0.09,0.97,
0.251,-0.01,-0.04,-0.02,-0.12,0.09,0.97,
0.253,-0.01,-0.04,-0.02,-0.12,0.09,0.97,
0.256,-0.01,-0.04,-0.02,-0.12,0.09,0.97,
0.256,-0.04,-0.08,-0.02,-0.12,0.09,0.97,
0.258,-0.04,-0.08,-0.02,-0.12,0.09,0.97,
0.261,-0.04,-0.08,-0.02,-0.12,0.09,0.97,
0.261,-0.05,-0.08,-0.02,-0.12,0.09,0.97,
0.263,-0.05,-0.08,-0.02,-0.12,0.09,0.97,
0.265,-0.05,-0.08,-0.02,-0.12,0.09,0.97,
0.266,-0.08,-0.09,-0.02,-0.12,0.09,0.97,
0.268,-0.08,-0.09,-0.02,-0.12,0.08,0.97,
0.27,-0.08,-0.09,-0.02,-0.12,0.09,0.97,
0.27,-0.10,-0.11,-0.04,-0.12,0.09,0.97,
0.273,-0.10,-0.11,-0.04,-0.12,0.08,0.97,
0.275,-0.10,-0.11,-0.04,-0.12,0.09,0.97,
0.279,-0.09,-0.13,0.00,-0.12,0.09,0.97,
0.279,-0.09,-0.13,0.00,-0.12,0.09,0.96,
0.28,-0.09,-0.13,0.00,-0.12,0.09,0.96,
0.28,-0.09,-0.12,-0.04,-0.12,0.09,0.96,
0.283,-0.09,-0.12,-0.04,-0.12,0.09,0.96,
0.285,-0.09,-0.12,-0.04,-0.12,0.09,0.96,
0.285,-0.06,-0.11,-0.06,-0.12,0.09,0.96,
0.288,-0.06,-0.11,-0.06,-0.12,0.09,0.96,
0.29,-0.06,-0.11,-0.06,-0.12,0.09,0.96,
0.29,-0.06,-0.12,-0.08,-0.12,0.09,0.96,
0.293,-0.06,-0.12,-0.08,-0.12,0.09,0.96,
0.295,-0.06,-0.12,-0.08,-0.12,0.09,0.96,
0.295,-0.04,-0.10,-0.08,-0.12,0.09,0.96,
0.298,-0.04,-0.10,-0.08,-0.11,0.09,0.96,
0.3,-0.04,-0.10,-0.08,-0.11,0.09,0.96,
0.3,-0.02,-0.09,-0.11,-0.11,0.09,0.96,
0.302,-0.02,-0.09,-0.11,-0.11,0.09,0.96,
0.305,-0.02,-0.09,-0.11,-0.11,0.09,0.96,
0.305,0.00,-0.10,-0.12,-0.11,0.09,0.96,
0.307,0.00,-0.10,-0.12,-0.11,0.09,0.96,
0.31,0.00,-0.10,-0.12,-0.11,0.09,0.96,
0.31,0.04,-0.08,-0.11,-0.11,0.09,0.96,
0.313,0.04,-0.08,-0.11,-0.11,0.09,0.96,
0.314,0.04,-0.08,-0.11,-0.11,0.09,0.96,
0.315,0.03,-0.07,-0.11,-0.11,0.09,0.96,
0.317,0.03,-0.07,-0.11,-0.11,0.09,0.96,
0.319,0.03,-0.07,-0.11,-0.11,0.09,0.97,
0.319,0.05,-0.07,-0.09,-0.11,0.09,0.97,
0.322,0.05,-0.07,-0.09,-0.11,0.09,0.96,
0.324,0.05,-0.07,-0.09,-0.11,0.09,0.97,
0.324,0.05,-0.06,-0.05,-0.11,0.09,0.97,
0.327,0.05,-0.06,-0.05,-0.11,0.09,0.97,
0.329,0.05,-0.06,-0.05,-0.11,0.09,0.97,
0.329,0.06,-0.06,-0.04,-0.11,0.09,0.97,
0.332,0.06,-0.06,-0.04,-0.11,0.09,0.97,
0.334,0.06,-0.06,-0.04,-0.11,0.09,0.97,
0.334,0.06,-0.07,-0.03,-0.11,0.09,0.97,
0.337,0.06,-0.07,-0.03,-0.10,0.09,0.97,
0.339,0.06,-0.07,-0.03,-0.10,0.09,0.97,
0.339,0.06,-0.08,-0.01,-0.10,0.09,0.97,
0.341,0.06,-0.08,-0.01,-0.10,0.08,0.97,
0.344,0.06,-0.08,-0.01,-0.10,0.08,0.97,
0.345,0.08,-0.10,0.01,-0.10,0.08,0.97,
0.347,0.08,-0.10,0.01,-0.10,0.08,0.97,
0.349,0.08,-0.10,0.01,-0.10,0.08,0.97,
0.349,0.08,-0.14,0.01,-0.10,0.08,0.97,
0.351,0.08,-0.14,0.01,-0.10,0.08,0.97,
0.354,0.08,-0.14,0.01,-0.10,0.08,0.97,
0.354,0.08,-0.16,0.01,-0.10,0.08,0.97,
0.356,0.08,-0.16,0.01,-0.10,0.07,0.97,
0.359,0.08,-0.16,0.01,-0.10,0.08,0.97,
0.359,0.09,-0.19,0.01,-0.10,0.08,0.97,
0.361,0.09,-0.19,0.01,-0.11,0.08,0.97,
0.364,0.09,-0.19,0.01,-0.11,0.07,0.97,
0.364,0.07,-0.21,-0.01,-0.11,0.07,0.97,
0.366,0.07,-0.21,-0.01,-0.11,0.07,0.96,
0.368,0.07,-0.21,-0.01,-0.11,0.07,0.96,
0.369,0.05,-0.22,-0.04,-0.11,0.07,0.96,
0.371,0.05,-0.22,-0.04,-0.11,0.07,0.96,
0.373,0.05,-0.22,-0.04,-0.11,0.07,0.96,
0.373,0.04,-0.23,-0.07,-0.11,0.07,0.96,
0.379,0.04,-0.23,-0.07,-0.10,0.07,0.96,
0.379,0.04,-0.23,-0.07,-0.11,0.07,0.96,
0.379,0.05,-0.23,-0.09,-0.11,0.07,0.96,
0.381,0.05,-0.23,-0.09,-0.11,0.07,0.96,
0.383,0.05,-0.23,-0.09,-0.11,0.07,0.96,
0.383,0.06,-0.24,-0.11,-0.11,0.07,0.96,
0.385,0.06,-0.24,-0.11,-0.11,0.07,0.96,
0.388,0.06,-0.24,-0.11,-0.11,0.07,0.96,
0.388,0.05,-0.25,-0.10,-0.11,0.07,0.96,
0.39,0.05,-0.25,-0.10,-0.11,0.07,0.96,
0.393,0.05,-0.25,-0.10,-0.11,0.07,0.96,
0.393,0.05,-0.25,-0.11,-0.11,0.07,0.96,
0.395,0.05,-0.25,-0.11,-0.11,0.07,0.96,
0.398,0.05,-0.25,-0.11,-0.11,0.07,0.96,
0.398,0.02,-0.26,-0.10,-0.11,0.07,0.96,
0.4,0.02,-0.26,-0.10,-0.11,0.06,0.96,
0.403,0.02,-0.26,-0.10,-0.11,0.06,0.96,
0.403,0.01,-0.28,-0.09,-0.11,0.06,0.96,
0.405,0.01,-0.28,-0.09,-0.11,0.06,0.97,
0.407,0.01,-0.28,-0.09,-0.12,0.06,0.97,
0.408,-0.02,-0.31,-0.05,-0.12,0.06,0.97,
0.41,-0.02,-0.31,-0.05,-0.12,0.06,0.97,
0.413,-0.02,-0.31,-0.05,-0.12,0.06,0.97,
0.413,-0.03,-0.32,-0.03,-0.12,0.06,0.97,
0.416,-0.03,-0.32,-0.03,-0.12,0.06,0.97,
0.417,-0.03,-0.32,-0.03,-0.12,0.06,0.97,
0.418,-0.04,-0.33,-0.02,-0.12,0.06,0.97,
0.42,-0.04,-0.33,-0.02,-0.12,0.06,0.96,
0.422,-0.04,-0.33,-0.02,-0.12,0.06,0.96,
0.422,-0.06,-0.36,-0.03,-0.12,0.06,0.96,
0.425,-0.06,-0.36,-0.03,-0.11,0.05,0.96,
0.427,-0.06,-0.36,-0.03,-0.11,0.05,0.97,
0.428,-0.05,-0.38,-0.05,-0.11,0.05,0.97,
0.43,-0.05,-0.38,-0.05,-0.12,0.06,0.97,
0.433,-0.05,-0.38,-0.05,-0.12,0.06,0.97,
0.433,-0.03,-0.39,-0.03,-0.12,0.06,0.97,
0.434,-0.03,-0.39,-0.03,-0.12,0.06,0.97,
0.437,-0.03,-0.39,-0.03,-0.12,0.05,0.97,
0.437,-0.06,-0.37,-0.01,-0.12,0.05,0.97,
0.439,-0.06,-0.37,-0.01,-0.11,0.06,0.97,
0.443,-0.06,-0.37,-0.01,-0.11,0.05,0.97,
0.444,-0.05,-0.38,0.02,-0.11,0.05,0.97,
0.445,-0.05,-0.38,0.02,-0.11,0.05,0.97,
0.447,-0.05,-0.38,0.02,-0.10,0.06,0.97,
0.447,-0.03,-0.38,0.01,-0.10,0.06,0.97,
0.449,-0.03,-0.38,0.01,-0.10,0.06,0.97,
0.452,-0.03,-0.38,0.01,-0.10,0.06,0.97,
0.452,0.03,-0.38,0.02,-0.10,0.06,0.97,
0.454,0.03,-0.38,0.02,-0.10,0.06,0.97,
0.457,0.03,-0.38,0.02,-0.10,0.06,0.97,
0.457,0.05,-0.36,0.03,-0.10,0.06,0.97,
0.459,0.05,-0.36,0.03,-0.10,0.06,0.97,
0.461,0.05,-0.36,0.03,-0.09,0.06,0.97,
0.462,0.06,-0.34,0.02,-0.09,0.06,0.97,
0.464,0.06,-0.34,0.02,-0.09,0.06,0.98,
0.467,0.06,-0.34,0.02,-0.09,0.06,0.98,
0.467,0.09,-0.33,0.03,-0.09,0.06,0.98,
0.469,0.09,-0.33,0.03,-0.09,0.06,0.98,
0.471,0.09,-0.33,0.03,-0.08,0.06,0.98,
0.471,0.14,-0.33,0.05,-0.08,0.06,0.98,
0.474,0.14,-0.33,0.05,-0.08,0.06,0.98,
0.476,0.14,-0.33,0.05,-0.08,0.06,0.98,
0.476,0.19,-0.35,0.06,-0.08,0.06,0.98,
0.479,0.19,-0.35,0.06,-0.08,0.05,0.98,
0.481,0.19,-0.35,0.06,-0.08,0.06,0.98,
0.481,0.24,-0.38,0.08,-0.08,0.06,0.98,
0.484,0.24,-0.38,0.08,-0.08,0.06,0.98,
0.486,0.24,-0.38,0.08,-0.08,0.05,0.98,
0.486,0.20,-0.40,0.10,-0.08,0.05,0.98,
0.488,0.20,-0.40,0.10,-0.09,0.06,0.98,
0.491,0.20,-0.40,0.10,-0.08,0.06,0.98,
0.491,0.18,-0.40,0.09,-0.08,0.06,0.98,
0.495,0.18,-0.40,0.09,-0.08,0.05,0.98,
0.496,0.18,-0.40,0.09,-0.08,0.05,0.98,
0.496,0.16,-0.39,0.08,-0.08,0.05,0.98,
0.498,0.16,-0.39,0.08,-0.09,0.05,0.98,
0.501,0.16,-0.39,0.08,-0.08,0.05,0.98,
0.501,0.16,-0.42,0.10,-0.08,0.05,0.98,
0.503,0.16,-0.42,0.10,-0.08,0.05,0.98,
0.505,0.16,-0.42,0.10,-0.09,0.05,0.98,
0.506,0.14,-0.46,0.11,-0.09,0.05,0.98,
0.508,0.14,-0.46,0.11,-0.09,0.05,0.98,
0.51,0.14,-0.46,0.11,-0.09,0.05,0.98,
0.511,0.13,-0.47,0.07,-0.09,0.05,0.98,
0.513,0.13,-0.47,0.07,-0.09,0.05,0.98,
0.515,0.13,-0.47,0.07,-0.09,0.04,0.97,
0.515,0.12,-0.49,0.07,-0.09,0.04,0.97,
0.518,0.12,-0.49,0.07,-0.09,0.04,0.97,
0.52,0.12,-0.49,0.07,-0.09,0.05,0.97,
0.52,0.09,-0.49,0.04,-0.09,0.05,0.97,
0.523,0.09,-0.49,0.04,-0.09,0.05,0.97,
0.526,0.09,-0.49,0.04,-0.09,0.05,0.97,
0.526,0.08,-0.49,0.03,-0.09,0.05,0.97,
0.527,0.08,-0.49,0.03,-0.09,0.05,0.97,
0.53,0.08,-0.49,0.03,-0.09,0.05,0.97,
0.53,0.06,-0.48,0.02,-0.09,0.05,0.97,
0.532,0.06,-0.48,0.02,-0.09,0.05,0.97,
0.535,0.06,-0.48,0.02,-0.09,0.05,0.97,
0.535,0.04,-0.47,-0.01,-0.09,0.05,0.97,
0.537,0.04,-0.47,-0.01,-0.09,0.05,0.97,
0.54,0.04,-0.47,-0.01,-0.08,0.05,0.97,
0.54,0.04,-0.46,-0.02,-0.08,0.05,0.97,
0.545,0.04,-0.46,-0.02,-0.08,0.05,0.96,
0.546,0.04,-0.46,-0.02,-0.08,0.05,0.96,
0.547,0.09,-0.46,-0.04,-0.08,0.05,0.96,
0.548,0.09,-0.46,-0.04,-0.07,0.05,0.96,
0.55,0.09,-0.46,-0.04,-0.07,0.05,0.96,
0.551,0.17,-0.46,-0.07,-0.07,0.05,0.96,
0.553,0.17,-0.46,-0.07,-0.07,0.05,0.96,
0.555,0.17,-0.46,-0.07,-0.07,0.05,0.96,
0.555,0.22,-0.47,-0.09,-0.07,0.05,0.96,
0.557,0.22,-0.47,-0.09,-0.07,0.05,0.96,
0.561,0.22,-0.47,-0.09,-0.07,0.05,0.96,
0.562,0.27,-0.45,-0.09,-0.07,0.05,0.96,
0.562,0.27,-0.45,-0.09,-0.06,0.06,0.96,
0.565,0.27,-0.45,-0.09,-0.06,0.06,0.96,
0.565,0.28,-0.41,-0.10,-0.06,0.06,0.96,
0.567,0.28,-0.41,-0.10,-0.06,0.06,0.96,
0.57,0.28,-0.41,-0.10,-0.06,0.06,0.96,
0.57,0.32,-0.39,-0.13,-0.06,0.06,0.96,
0.572,0.32,-0.39,-0.13,-0.06,0.06,0.96,
0.574,0.32,-0.39,-0.13,-0.06,0.05,0.96,
0.575,0.33,-0.38,-0.10,-0.06,0.05,0.96,
0.587,0.33,-0.38,-0.10,-0.05,0.05,0.96,
0.588,0.33,-0.38,-0.10,-0.05,0.05,0.96,
0.588,0.36,-0.40,-0.11,-0.05,0.05,0.96,
0.589,0.36,-0.40,-0.11,-0.04,0.05,0.96,
0.589,0.36,-0.40,-0.11,-0.04,0.05,0.96,
0.59,0.41,-0.40,-0.08,-0.04,0.05,0.96,
0.59,0.41,-0.40,-0.08,-0.04,0.05,0.96,
0.591,0.41,-0.40,-0.08,-0.04,0.05,0.96,
0.592,0.48,-0.43,-0.07,-0.04,0.05,0.96,
0.593,0.48,-0.43,-0.07,-0.04,0.05,0.96,
0.61,0.48,-0.43,-0.07,-0.04,0.05,0.96,
0.611,0.49,-0.44,-0.08,-0.04,0.05,0.96,
0.612,0.49,-0.44,-0.08,-0.05,0.05,0.96,
0.613,0.49,-0.44,-0.08,-0.05,0.05,0.96,
0.613,0.50,-0.46,-0.09,-0.05,0.05,0.96,
0.614,0.50,-0.46,-0.09,-0.06,0.06,0.95,
0.614,0.50,-0.46,-0.09,-0.06,0.06,0.95,
0.614,0.42,-0.43,-0.12,-0.06,0.06,0.95,
0.614,0.42,-0.43,-0.12,-0.06,0.06,0.95,
0.615,0.42,-0.43,-0.12,-0.06,0.06,0.95,
0.615,0.31,-0.36,-0.17,-0.06,0.06,0.95,
0.615,0.31,-0.36,-0.17,-0.06,0.06,0.95,
0.616,0.31,-0.36,-0.17,-0.06,0.06,0.94,
0.616,0.26,-0.33,-0.20,-0.06,0.06,0.94,
0.616,0.26,-0.33,-0.20,-0.06,0.06,0.94,
0.618,0.26,-0.33,-0.20,-0.06,0.06,0.94,
0.618,0.24,-0.34,-0.24,-0.06,0.06,0.94,
0.621,0.24,-0.34,-0.24,-0.06,0.05,0.93,
0.623,0.24,-0.34,-0.24,-0.06,0.05,0.93,
0.623,0.24,-0.37,-0.31,-0.06,0.05,0.93,
0.626,0.24,-0.37,-0.31,-0.06,0.05,0.93,
0.628,0.24,-0.37,-0.31,-0.05,0.05,0.93,
0.628,0.28,-0.42,-0.36,-0.05,0.05,0.93,
0.63,0.28,-0.42,-0.36,-0.05,0.05,0.92,
0.633,0.28,-0.42,-0.36,-0.05,0.05,0.92,
0.633,0.32,-0.46,-0.40,-0.05,0.05,0.92,
0.635,0.32,-0.46,-0.40,-0.05,0.04,0.92,
0.638,0.34,-0.48,-0.44,-0.05,0.04,0.92,
0.639,0.34,-0.48,-0.44,-0.05,0.04,0.92,
0.641,0.34,-0.48,-0.44,-0.04,0.04,0.92,
0.644,0.34,-0.48,-0.44,-0.04,0.04,0.92,
0.644,0.37,-0.52,-0.46,-0.04,0.04,0.92,
0.645,0.37,-0.52,-0.46,-0.04,0.04,0.92,
0.647,0.37,-0.52,-0.46,-0.04,0.04,0.92,
0.651,0.43,-0.56,-0.46,-0.04,0.04,0.92,
0.651,0.43,-0.56,-0.46,-0.04,0.04,0.92,
0.652,0.43,-0.56,-0.46,-0.04,0.03,0.92,
0.653,0.43,-0.57,-0.45,-0.04,0.03,0.92,
0.655,0.43,-0.57,-0.45,-0.04,0.03,0.92,
0.658,0.43,-0.57,-0.45,-0.04,0.03,0.93,
0.658,0.46,-0.58,-0.44,-0.04,0.03,0.93,
0.66,0.46,-0.58,-0.44,-0.04,0.03,0.93,
0.662,0.46,-0.58,-0.44,-0.04,0.03,0.93,
0.662,0.45,-0.60,-0.41,-0.04,0.03,0.93,
0.665,0.45,-0.60,-0.41,-0.04,0.03,0.93,
0.667,0.45,-0.60,-0.41,-0.05,0.03,0.93,
0.667,0.42,-0.61,-0.37,-0.05,0.03,0.93,
0.67,0.42,-0.61,-0.37,-0.05,0.03,0.93,
0.672,0.42,-0.61,-0.37,-0.05,0.04,0.94,
0.672,0.37,-0.58,-0.35,-0.05,0.04,0.94,
0.674,0.37,-0.58,-0.35,-0.05,0.04,0.94,
0.679,0.37,-0.58,-0.35,-0.06,0.04,0.94,
0.679,0.31,-0.55,-0.30,-0.06,0.04,0.94,
0.68,0.31,-0.55,-0.30,-0.06,0.04,0.94,
0.682,0.31,-0.55,-0.30,-0.07,0.04,0.94,
0.682,0.25,-0.54,-0.26,-0.07,0.04,0.94,
0.684,0.25,-0.54,-0.26,-0.08,0.04,0.94,
0.687,0.25,-0.54,-0.26,-0.08,0.04,0.94,
0.687,0.14,-0.50,-0.25,-0.08,0.04,0.94,
0.689,0.14,-0.50,-0.25,-0.08,0.04,0.94,
0.692,0.14,-0.50,-0.25,-0.08,0.04,0.94,
0.693,0.05,-0.47,-0.25,-0.08,0.04,0.94,
0.694,0.05,-0.47,-0.25,-0.08,0.04,0.94,
0.696,0.05,-0.47,-0.25,-0.08,0.03,0.94,
0.697,0.02,-0.46,-0.23,-0.08,0.03,0.94,
0.699,0.02,-0.46,-0.23,-0.08,0.03,0.93,
0.701,0.02,-0.46,-0.23,-0.07,0.03,0.93,
0.702,0.02,-0.52,-0.26,-0.07,0.03,0.93,
0.704,0.02,-0.52,-0.26,-0.07,0.02,0.93,
0.707,0.02,-0.52,-0.26,-0.07,0.02,0.93,
0.707,0.08,-0.59,-0.30,-0.07,0.02,0.93,
0.709,0.08,-0.59,-0.30,-0.07,0.02,0.93,
0.711,0.08,-0.59,-0.30,-0.07,0.02,0.93,
0.712,0.11,-0.63,-0.33,-0.07,0.02,0.93,
0.714,0.11,-0.63,-0.33,-0.07,0.02,0.92,
0.716,0.11,-0.63,-0.33,-0.07,0.02,0.92,
0.716,0.13,-0.65,-0.36,-0.07,0.02,0.92,
0.719,0.13,-0.65,-0.36,-0.07,0.02,0.92,
0.721,0.13,-0.65,-0.36,-0.07,0.02,0.92,
0.721,0.15,-0.65,-0.40,-0.07,0.02,0.92,
0.724,0.15,-0.65,-0.40,-0.06,0.02,0.92,
0.726,0.15,-0.65,-0.40,-0.06,0.02,0.92,
0.727,0.16,-0.65,-0.41,-0.06,0.02,0.92,
0.729,0.16,-0.65,-0.41,-0.06,0.02,0.92,
0.731,0.16,-0.65,-0.41,-0.06,0.01,0.93,
0.731,0.19,-0.65,-0.41,-0.06,0.01,0.93,
0.733,0.19,-0.65,-0.41,-0.06,0.01,0.93,
0.736,0.19,-0.65,-0.41,-0.06,0.01,0.93,
0.736,0.22,-0.66,-0.37,-0.06,0.01,0.93,
0.738,0.22,-0.66,-0.37,-0.06,0.02,0.93,
0.741,0.22,-0.66,-0.37,-0.06,0.02,0.93,
0.741,0.24,-0.67,-0.35,-0.06,0.02,0.93,
0.743,0.24,-0.67,-0.35,-0.06,0.02,0.93,
0.746,0.24,-0.67,-0.35,-0.06,0.02,0.93,
0.746,0.26,-0.62,-0.32,-0.06,0.02,0.93,
0.748,0.26,-0.62,-0.32,-0.06,0.02,0.93,
0.75,0.26,-0.62,-0.32,-0.06,0.02,0.94,
0.751,0.25,-0.59,-0.28,-0.06,0.02,0.94,
0.753,0.25,-0.59,-0.28,-0.06,0.02,0.94,
0.755,0.25,-0.59,-0.28,-0.06,0.03,0.94,
0.755,0.22,-0.56,-0.26,-0.06,0.03,0.94,
0.759,0.22,-0.56,-0.26,-0.06,0.03,0.94,
0.761,0.22,-0.56,-0.26,-0.07,0.03,0.94,
0.761,0.21,-0.50,-0.25,-0.07,0.03,0.94,
0.763,0.21,-0.50,-0.25,-0.06,0.03,0.94,
0.765,0.21,-0.50,-0.25,-0.07,0.04,0.94,
0.766,0.17,-0.45,-0.25,-0.07,0.04,0.94,
0.768,0.17,-0.45,-0.25,-0.07,0.04,0.94,
0.77,0.17,-0.45,-0.25,-0.07,0.04,0.94,
0.77,0.15,-0.40,-0.23,-0.07,0.04,0.94,
0.772,0.15,-0.40,-0.23,-0.07,0.05,0.93,
0.776,0.10,-0.31,-0.23,-0.07,0.05,0.93,
0.776,0.10,-0.31,-0.23,-0.06,0.05,0.93,
0.778,0.10,-0.31,-0.23,-0.06,0.05,0.93,
0.78,0.10,-0.31,-0.23,-0.06,0.04,0.93,
0.78,0.15,-0.27,-0.26,-0.06,0.04,0.93,
0.782,0.15,-0.27,-0.26,-0.05,0.04,0.93,
0.785,0.15,-0.27,-0.26,-0.05,0.04,0.93,
0.785,0.22,-0.28,-0.27,-0.05,0.04,0.93,
0.787,0.22,-0.28,-0.27,-0.05,0.04,0.93,
0.79,0.22,-0.28,-0.27,-0.04,0.04,0.92,
0.79,0.31,-0.29,-0.30,-0.04,0.04,0.92,
0.797,0.31,-0.29,-0.30,-0.04,0.05,0.92,
0.797,0.31,-0.29,-0.30,-0.04,0.05,0.92,
0.798,0.36,-0.29,-0.33,-0.04,0.05,0.92,
0.798,0.36,-0.29,-0.33,-0.04,0.05,0.92,
0.799,0.36,-0.29,-0.33,-0.04,0.05,0.92,
0.8,0.37,-0.25,-0.39,-0.04,0.05,0.92,
0.802,0.37,-0.25,-0.39,-0.04,0.05,0.91,
0.804,0.37,-0.25,-0.39,-0.04,0.04,0.91,
0.805,0.40,-0.20,-0.42,-0.04,0.04,0.91,
0.807,0.40,-0.20,-0.42,-0.04,0.04,0.91,
0.809,0.40,-0.20,-0.42,-0.04,0.04,0.92,
0.81,0.41,-0.23,-0.44,-0.04,0.04,0.92,
0.812,0.41,-0.23,-0.44,-0.04,0.03,0.91,
0.814,0.41,-0.23,-0.44,-0.04,0.03,0.91,
0.814,0.41,-0.30,-0.42,-0.04,0.03,0.91,
0.817,0.41,-0.30,-0.42,-0.04,0.03,0.91,
0.819,0.41,-0.30,-0.42,-0.05,0.03,0.92,
0.819,0.37,-0.36,-0.42,-0.05,0.03,0.92,
0.821,0.37,-0.36,-0.42,-0.06,0.03,0.92,
0.824,0.37,-0.36,-0.42,-0.07,0.03,0.92,
0.824,0.28,-0.42,-0.42,-0.07,0.03,0.92,
0.827,0.28,-0.42,-0.42,-0.08,0.03,0.92,
0.829,0.28,-0.42,-0.42,-0.08,0.03,0.92,
0.829,0.12,-0.40,-0.41,-0.08,0.03,0.92,
0.831,0.12,-0.40,-0.41,-0.09,0.03,0.92,
0.834,0.12,-0.40,-0.41,-0.10,0.03,0.92,
0.834,-0.05,-0.35,-0.37,-0.10,0.03,0.92,
0.836,-0.05,-0.35,-0.37,-0.11,0.03,0.93,
0.838,-0.05,-0.35,-0.37,-0.11,0.03,0.93,
0.839,-0.24,-0.35,-0.33,-0.11,0.03,0.93,
0.842,-0.24,-0.35,-0.33,-0.12,0.03,0.93,
0.843,-0.24,-0.35,-0.33,-0.12,0.02,0.93,
0.844,-0.38,-0.35,-0.29,-0.12,0.02,0.93,
0.846,-0.38,-0.35,-0.29,-0.13,0.03,0.93,
0.848,-0.38,-0.35,-0.29,-0.13,0.03,0.93,
0.849,-0.49,-0.38,-0.26,-0.13,0.03,0.93,
0.851,-0.49,-0.38,-0.26,-0.13,0.03,0.94,
0.853,-0.49,-0.38,-0.26,-0.12,0.03,0.94,
0.853,-0.54,-0.35,-0.22,-0.12,0.03,0.94,
0.856,-0.54,-0.35,-0.22,-0.12,0.03,0.94,
0.859,-0.54,-0.35,-0.22,-0.11,0.03,0.94,
0.86,-0.53,-0.33,-0.21,-0.11,0.03,0.94,
0.861,-0.53,-0.33,-0.21,-0.10,0.03,0.94,
0.863,-0.53,-0.33,-0.21,-0.09,0.02,0.94,
0.864,-0.46,-0.34,-0.19,-0.09,0.02,0.94,
0.866,-0.46,-0.34,-0.19,-0.08,0.02,0.95,
0.868,-0.46,-0.34,-0.19,-0.07,0.02,0.95,
0.868,-0.27,-0.37,-0.14,-0.07,0.02,0.95,
0.87,-0.27,-0.37,-0.14,-0.06,0.02,0.95,
0.873,-0.27,-0.37,-0.14,-0.05,0.02,0.95,
0.873,-0.07,-0.38,-0.10,-0.05,0.02,0.95,
0.875,-0.07,-0.38,-0.10,-0.04,0.02,0.95,
0.878,-0.07,-0.38,-0.10,-0.03,0.02,0.96,
0.878,0.12,-0.36,-0.05,-0.03,0.02,0.96,
0.88,0.12,-0.36,-0.05,-0.03,0.03,0.96,
0.883,0.12,-0.36,-0.05,-0.02,0.03,0.96,
0.883,0.29,-0.36,-0.01,-0.02,0.03,0.96,
0.885,0.29,-0.36,-0.01,-0.02,0.03,0.96,
0.888,0.29,-0.36,-0.01,-0.01,0.03,0.97,
0.888,0.40,-0.31,0.02,-0.01,0.03,0.97,
0.89,0.40,-0.31,0.02,-0.01,0.03,0.97,
0.896,0.40,-0.31,0.02,-0.01,0.03,0.97,
0.897,0.47,-0.26,0.07,-0.01,0.03,0.97,
0.897,0.47,-0.26,0.07,-0.01,0.04,0.97,
0.897,0.47,-0.26,0.07,-0.01,0.04,0.97,
0.898,0.52,-0.23,0.10,-0.01,0.04,0.97,
0.9,0.52,-0.23,0.10,-0.01,0.04,0.97,
0.902,0.52,-0.23,0.10,-0.01,0.04,0.97,
0.903,0.52,-0.20,0.13,-0.01,0.04,0.97,
0.905,0.52,-0.20,0.13,-0.02,0.05,0.97,
0.907,0.52,-0.20,0.13,-0.03,0.06,0.96,
0.908,0.46,-0.14,0.12,-0.03,0.06,0.96,
0.91,0.46,-0.14,0.12,-0.04,0.07,0.96,
0.912,0.46,-0.14,0.12,-0.04,0.07,0.96,
0.913,0.31,-0.01,0.07,-0.04,0.07,0.96,
0.915,0.31,-0.01,0.07,-0.05,0.08,0.95,
0.917,0.31,-0.01,0.07,-0.06,0.08,0.95,
0.917,0.14,0.15,-0.00,-0.06,0.08,0.95,
0.919,0.14,0.15,-0.00,-0.06,0.09,0.95,
0.922,0.14,0.15,-0.00,-0.07,0.09,0.94,
0.922,0.01,0.26,-0.07,-0.07,0.09,0.94,
0.925,0.01,0.26,-0.07,-0.07,0.09,0.93,
0.927,0.01,0.26,-0.07,-0.07,0.10,0.93,
0.927,-0.07,0.33,-0.15,-0.07,0.10,0.93,
0.93,-0.07,0.33,-0.15,-0.07,0.10,0.92,
0.932,-0.07,0.33,-0.15,-0.07,0.10,0.92,
0.932,-0.13,0.38,-0.25,-0.07,0.10,0.92,
0.934,-0.13,0.38,-0.25,-0.07,0.10,0.91,
0.936,-0.13,0.38,-0.25,-0.07,0.10,0.91,
0.937,-0.16,0.43,-0.37,-0.07,0.10,0.91,
0.939,-0.16,0.43,-0.37,-0.06,0.10,0.91,
0.942,-0.16,0.43,-0.37,-0.05,0.09,0.91,
0.943,-0.12,0.43,-0.44,-0.05,0.09,0.91,
0.944,-0.12,0.43,-0.44,-0.04,0.08,0.90,
0.947,-0.12,0.43,-0.44,-0.04,0.08,0.91,
0.948,0.01,0.37,-0.49,-0.04,0.08,0.91,
0.949,0.01,0.37,-0.49,-0.03,0.08,0.91,
0.951,0.01,0.37,-0.49,-0.02,0.07,0.91,
0.951,0.16,0.26,-0.50,-0.02,0.07,0.91,
0.954,0.16,0.26,-0.50,-0.02,0.07,0.91,
0.956,0.16,0.26,-0.50,-0.01,0.07,0.92,
0.956,0.28,0.19,-0.47,-0.01,0.07,0.92,
0.959,0.28,0.19,-0.47,-0.01,0.06,0.92,
0.961,0.28,0.19,-0.47,-0.00,0.06,0.93,
0.962,0.37,0.13,-0.40,-0.00,0.06,0.93,
0.964,0.37,0.13,-0.40,0.00,0.05,0.94,
0.966,0.37,0.13,-0.40,0.01,0.05,0.94,
0.966,0.43,0.08,-0.30,0.01,0.05,0.94,
0.968,0.43,0.08,-0.30,0.01,0.04,0.95,
0.971,0.43,0.08,-0.30,0.02,0.04,0.96,
0.971,0.50,-0.00,-0.16,0.02,0.04,0.96,
0.973,0.50,-0.00,-0.16,0.02,0.04,0.97,
0.981,0.50,-0.00,-0.16,0.02,0.03,0.98,
0.982,0.59,-0.09,0.02,0.02,0.03,0.98,
0.982,0.59,-0.09,0.02,0.02,0.03,0.98,
0.982,0.59,-0.09,0.02,0.02,0.04,0.99,
0.983,0.62,-0.14,0.17,0.02,0.04,0.99,
0.983,0.62,-0.14,0.17,0.02,0.04,1.00,
0.987,0.62,-0.14,0.17,0.01,0.04,1.00,
0.987,0.59,-0.11,0.29,0.01,0.04,1.00,
0.988,0.59,-0.11,0.29,0.00,0.05,1.00,
0.99,0.59,-0.11,0.29,-0.00,0.05,1.00,
0.99,0.49,-0.03,0.40,-0.00,0.05,1.00,
0.993,0.49,-0.03,0.40,-0.01,0.06,1.00,
0.995,0.49,-0.03,0.40,-0.02,0.06,1.00,
0.995,0.34,0.05,0.43,-0.02,0.06,1.00,
0.998,0.34,0.05,0.43,-0.03,0.07,0.99,
1.0,0.34,0.05,0.43,-0.04,0.08,0.99,
1.0,0.16,0.14,0.39,-0.04,0.08,0.99,
1.003,0.16,0.14,0.39,-0.06,0.09,0.98,
1.005,-0.07,0.30,0.31,-0.06,0.09,0.98,
1.005,-0.07,0.30,0.31,-0.07,0.10,0.97,
1.008,-0.07,0.30,0.31,-0.08,0.10,0.97,
1.01,-0.07,0.30,0.31,-0.08,0.11,0.96,
1.01,-0.33,0.48,0.18,-0.08,0.11,0.96,
1.012,-0.33,0.48,0.18,-0.09,0.11,0.95,
1.015,-0.33,0.48,0.18,-0.09,0.11,0.94,
1.015,-0.49,0.62,0.03,-0.09,0.11,0.94,
1.017,-0.49,0.62,0.03,-0.09,0.12,0.92,
1.02,-0.49,0.62,0.03,-0.08,0.11,0.92,
1.02,-0.54,0.68,-0.16,-0.08,0.11,0.92,
1.022,-0.54,0.68,-0.16,-0.07,0.11,0.91,
1.025,-0.54,0.68,-0.16,-0.07,0.11,0.89,
1.025,-0.49,0.68,-0.37,-0.07,0.11,0.89,
1.027,-0.49,0.68,-0.37,-0.07,0.11,0.89,
1.03,-0.49,0.68,-0.37,-0.07,0.11,0.88,
1.03,-0.37,0.66,-0.57,-0.07,0.11,0.88,
1.032,-0.37,0.66,-0.57,-0.06,0.11,0.87,
1.034,-0.37,0.66,-0.57,-0.06,0.11,0.87,
1.035,-0.33,0.66,-0.71,-0.06,0.11,0.87,
1.037,-0.33,0.66,-0.71,-0.05,0.11,0.87,
1.04,-0.33,0.66,-0.71,-0.05,0.11,0.87,
1.04,-0.27,0.66,-0.83,-0.05,0.11,0.87,
1.042,-0.27,0.66,-0.83,-0.04,0.11,0.87,
1.045,-0.27,0.66,-0.83,-0.03,0.11,0.87,
1.045,-0.16,0.65,-0.87,-0.03,0.11,0.87,
1.047,-0.16,0.65,-0.87,-0.03,0.10,0.88,
1.049,-0.16,0.65,-0.87,-0.03,0.09,0.89,
1.05,-0.05,0.62,-0.83,-0.03,0.09,0.89,
1.052,-0.05,0.62,-0.83,-0.02,0.09,0.89,
1.054,-0.05,0.62,-0.83,-0.02,0.09,0.90,
1.054,0.02,0.54,-0.71,-0.02,0.09,0.90,
1.057,0.02,0.54,-0.71,-0.02,0.09,0.91,
1.059,0.02,0.54,-0.71,-0.02,0.09,0.92,
1.059,0.07,0.48,-0.56,-0.02,0.09,0.92,
1.061,0.07,0.48,-0.56,-0.03,0.09,0.93,
1.064,0.07,0.48,-0.56,-0.04,0.10,0.94,
1.064,0.03,0.49,-0.39,-0.04,0.10,0.94,
1.066,0.03,0.49,-0.39,-0.04,0.10,0.95,
1.069,0.03,0.49,-0.39,-0.05,0.11,0.96,
1.069,-0.11,0.57,-0.21,-0.05,0.11,0.96,
1.071,-0.11,0.57,-0.21,-0.06,0.12,0.97,
1.079,-0.11,0.57,-0.21,-0.07,0.12,0.98,
1.08,-0.28,0.70,-0.02,-0.07,0.12,0.98,
1.08,-0.28,0.70,-0.02,-0.07,0.13,0.99,
1.08,-0.28,0.70,-0.02,-0.08,0.13,1.00,
1.081,-0.46,0.85,0.17,-0.08,0.13,1.00,
1.081,-0.46,0.85,0.17,-0.08,0.13,1.00,
1.084,-0.46,0.85,0.17,-0.08,0.14,1.01,
1.084,-0.58,0.96,0.36,-0.08,0.14,1.01,
1.086,-0.58,0.96,0.36,-0.09,0.14,1.01,
1.088,-0.58,0.96,0.36,-0.08,0.14,1.01,
1.089,-0.66,1.03,0.48,-0.08,0.14,1.01,
1.091,-0.66,1.03,0.48,-0.09,0.15,1.02,
1.094,-0.66,1.03,0.48,-0.08,0.15,1.02,
1.094,-0.68,1.10,0.54,-0.08,0.15,1.02,
1.096,-0.68,1.10,0.54,-0.08,0.15,1.02,
1.098,-0.70,1.20,0.60,-0.08,0.15,1.02,
1.098,-0.70,1.20,0.60,-0.08,0.16,1.02,
1.101,-0.70,1.20,0.60,-0.07,0.16,1.02,
1.103,-0.70,1.20,0.60,-0.07,0.15,1.02,
1.103,-0.67,1.26,0.64,-0.07,0.15,1.02,
1.105,-0.67,1.26,0.64,-0.06,0.15,1.02,
1.108,-0.67,1.26,0.64,-0.06,0.15,1.02,
1.109,-0.57,1.26,0.63,-0.06,0.15,1.02,
1.11,-0.57,1.26,0.63,-0.05,0.15,1.01,
1.116,-0.57,1.26,0.63,-0.04,0.15,1.01,
1.116,-0.47,1.24,0.59,-0.04,0.15,1.01,
1.117,-0.47,1.24,0.59,-0.03,0.15,1.01,
1.118,-0.47,1.24,0.59,-0.02,0.15,1.01,
1.118,-0.34,1.23,0.54,-0.02,0.15,1.01,
1.12,-0.34,1.23,0.54,-0.02,0.15,1.01,
1.123,-0.34,1.23,0.54,-0.01,0.14,1.01,
1.123,-0.18,1.21,0.49,-0.01,0.14,1.01,
1.125,-0.18,1.21,0.49,-0.00,0.14,1.01,
1.128,-0.18,1.21,0.49,0.00,0.14,1.01,
1.128,-0.05,1.19,0.45,0.00,0.14,1.01,
1.13,-0.05,1.19,0.45,0.01,0.14,1.01,
1.132,-0.05,1.19,0.45,0.01,0.14,1.02,
1.132,0.06,1.16,0.46,0.01,0.14,1.02,
1.135,0.06,1.16,0.46,0.01,0.14,1.02,
1.137,0.06,1.16,0.46,0.01,0.15,1.03,
1.139,0.11,1.18,0.52,0.01,0.15,1.03,
1.14,0.11,1.18,0.52,0.01,0.15,1.04,
1.142,0.11,1.18,0.52,0.00,0.16,1.04,
1.142,0.11,1.22,0.63,0.00,0.16,1.04,
1.145,0.11,1.22,0.63,-0.00,0.16,1.05,
1.147,0.11,1.22,0.63,-0.01,0.17,1.06,
1.147,0.05,1.31,0.76,-0.01,0.17,1.06,
1.149,0.05,1.31,0.76,-0.01,0.17,1.07,
1.152,0.05,1.31,0.76,-0.02,0.18,1.08,
1.152,-0.05,1.43,0.90,-0.02,0.18,1.08,
1.154,-0.05,1.43,0.90,-0.02,0.18,1.08,
1.158,-0.05,1.43,0.90,-0.02,0.18,1.09,
1.159,-0.16,1.53,1.06,-0.02,0.18,1.09,
1.16,-0.16,1.53,1.06,-0.03,0.18,1.10,
1.162,-0.16,1.53,1.06,-0.04,0.18,1.10,
1.162,-0.27,1.59,1.18,-0.04,0.18,1.10,
1.164,-0.27,1.59,1.18,-0.04,0.19,1.11,
1.167,-0.27,1.59,1.18,-0.05,0.19,1.11,
1.167,-0.38,1.62,1.29,-0.05,0.19,1.11,
1.169,-0.38,1.62,1.29,-0.05,0.19,1.11,
1.171,-0.38,1.62,1.29,-0.06,0.19,1.11,
1.172,-0.53,1.67,1.38,-0.06,0.19,1.11,
1.175,-0.53,1.67,1.38,-0.06,0.19,1.11,
1.177,-0.53,1.67,1.38,-0.06,0.19,1.11,
1.177,-0.62,1.70,1.41,-0.06,0.19,1.11,
1.18,-0.62,1.70,1.41,-0.06,0.19,1.11,
1.181,-0.62,1.70,1.41,-0.06,0.19,1.11,
1.182,-0.67,1.73,1.40,-0.06,0.19,1.11,
1.184,-0.67,1.73,1.40,-0.06,0.19,1.11,
1.186,-0.67,1.73,1.40,-0.06,0.19,1.11,
1.187,-0.69,1.75,1.38,-0.06,0.19,1.11,
1.189,-0.69,1.75,1.38,-0.06,0.19,1.10,
1.196,-0.69,1.75,1.38,-0.05,0.18,1.10,
1.197,-0.69,1.74,1.37,-0.05,0.18,1.10,
1.197,-0.69,1.74,1.37,-0.05,0.18,1.09,
1.197,-0.69,1.74,1.37,-0.05,0.18,1.09,
1.198,-0.65,1.70,1.28,-0.05,0.18,1.09,
1.198,-0.65,1.70,1.28,-0.05,0.18,1.09,
1.201,-0.65,1.70,1.28,-0.04,0.17,1.08,
1.201,-0.59,1.68,1.19,-0.04,0.17,1.08,
1.204,-0.59,1.68,1.19,-0.04,0.17,1.08,
1.206,-0.59,1.68,1.19,-0.04,0.17,1.08,
1.206,-0.52,1.64,1.12,-0.04,0.17,1.08,
1.208,-0.52,1.64,1.12,-0.04,0.16,1.07,
1.211,-0.52,1.64,1.12,-0.04,0.16,1.07,
1.211,-0.48,1.59,1.06,-0.04,0.16,1.07,
1.213,-0.48,1.59,1.06,-0.04,0.16,1.07,
1.215,-0.48,1.59,1.06,-0.04,0.16,1.06,
1.216,-0.47,1.52,0.99,-0.04,0.16,1.06,
1.218,-0.47,1.52,0.99,-0.05,0.16,1.06,
1.221,-0.47,1.52,0.99,-0.05,0.15,1.06,
1.221,-0.49,1.49,0.93,-0.05,0.15,1.06,
1.223,-0.49,1.49,0.93,-0.05,0.15,1.06,
1.226,-0.49,1.49,0.93,-0.05,0.15,1.06,
1.226,-0.54,1.47,0.90,-0.05,0.15,1.06,
1.228,-0.54,1.47,0.90,-0.05,0.15,1.07,
1.23,-0.54,1.47,0.90,-0.05,0.16,1.07,
1.23,-0.57,1.48,0.90,-0.05,0.16,1.07,
1.233,-0.57,1.48,0.90,-0.05,0.16,1.07,
1.235,-0.57,1.48,0.90,-0.05,0.16,1.07,
1.235,-0.59,1.51,0.92,-0.05,0.16,1.07,
1.238,-0.59,1.51,0.92,-0.05,0.16,1.07,
1.241,-0.59,1.51,0.92,-0.05,0.16,1.07,
1.241,-0.58,1.54,0.97,-0.05,0.16,1.07,
1.242,-0.58,1.54,0.97,-0.05,0.16,1.08,
1.245,-0.58,1.54,0.97,-0.05,0.16,1.08,
1.245,-0.57,1.57,0.99,-0.05,0.16,1.08,
1.247,-0.57,1.57,0.99,-0.05,0.16,1.08,
1.25,-0.57,1.57,0.99,-0.05,0.16,1.08,
1.25,-0.58,1.61,1.04,-0.05,0.16,1.08,
1.252,-0.58,1.61,1.04,-0.05,0.17,1.08,
1.255,-0.58,1.61,1.04,-0.05,0.17,1.08,
1.256,-0.58,1.65,1.06,-0.05,0.17,1.08,
1.258,-0.58,1.65,1.06,-0.04,0.17,1.09,
1.26,-0.58,1.65,1.06,-0.04,0.16,1.09,
1.26,-0.55,1.69,1.08,-0.04,0.16,1.09,
1.262,-0.55,1.69,1.08,-0.03,0.16,1.08,
1.265,-0.55,1.69,1.08,-0.02,0.16,1.08,
1.265,-0.45,1.67,1.11,-0.02,0.16,1.08,
1.267,-0.45,1.67,1.11,-0.02,0.15,1.08,
1.269,-0.45,1.67,1.11,-0.01,0.15,1.08,
1.27,-0.33,1.63,1.08,-0.01,0.15,1.08,
1.272,-0.33,1.63,1.08,-0.00,0.15,1.08,
1.275,-0.33,1.63,1.08,-0.00,0.14,1.07,
1.275,-0.19,1.56,1.04,-0.00,0.14,1.07,
1.277,-0.19,1.56,1.04,0.00,0.14,1.07,
1.28,-0.19,1.56,1.04,0.00,0.14,1.07,
1.28,-0.09,1.50,1.00,0.00,0.14,1.07,
1.282,-0.09,1.50,1.00,0.00,0.14,1.07,
1.284,-0.09,1.50,1.00,0.00,0.13,1.07,
1.284,-0.04,1.46,0.96,0.00,0.13,1.07,
1.287,-0.04,1.46,0.96,0.00,0.13,1.07,
1.289,-0.04,1.46,0.96,0.01,0.13,1.06,
1.29,-0.05,1.40,0.93,0.01,0.13,1.06,
1.296,-0.05,1.40,0.93,0.00,0.12,1.06,
1.297,-0.05,1.40,0.93,0.00,0.11,1.06,
1.297,-0.03,1.34,0.90,0.00,0.11,1.06,
1.297,-0.03,1.34,0.90,0.00,0.11,1.06,
1.299,-0.03,1.34,0.90,0.00,0.10,1.07,
1.299,-0.04,1.24,0.89,0.00,0.10,1.07,
1.301,-0.04,1.24,0.89,-0.00,0.10,1.07,
1.304,-0.04,1.24,0.89,-0.01,0.09,1.07,
1.304,-0.07,1.11,0.90,-0.01,0.09,1.07,
1.307,-0.07,1.11,0.90,-0.01,0.09,1.07,
1.309,-0.07,1.11,0.90,-0.02,0.09,1.07,
1.309,-0.13,1.01,0.91,-0.02,0.09,1.07,
1.311,-0.13,1.01,0.91,-0.02,0.08,1.07,
1.314,-0.13,1.01,0.91,-0.03,0.08,1.08,
1.314,-0.24,0.95,0.94,-0.03,0.08,1.08,
1.316,-0.24,0.95,0.94,-0.03,0.08,1.08,
1.318,-0.24,0.95,0.94,-0.03,0.08,1.08,
1.319,-0.37,0.91,1.01,-0.03,0.08,1.08,
1.321,-0.37,0.91,1.01,-0.03,0.08,1.08,
1.324,-0.37,0.91,1.01,-0.02,0.07,1.08,
1.324,-0.40,0.87,1.04,-0.02,0.07,1.08,
1.326,-0.40,0.87,1.04,-0.02,0.07,1.08,
1.329,-0.40,0.87,1.04,-0.02,0.07,1.09,
1.329,-0.40,0.83,1.07,-0.02,0.07,1.09,
1.331,-0.40,0.83,1.07,-0.01,0.07,1.08,
1.333,-0.40,0.83,1.07,-0.02,0.07,1.08,
1.334,-0.32,0.76,1.09,-0.02,0.07,1.08,
1.336,-0.32,0.76,1.09,-0.01,0.07,1.08,
1.338,-0.32,0.76,1.09,-0.02,0.07,1.08,
1.338,-0.30,0.73,1.08,-0.02,0.07,1.08,
1.341,-0.30,0.73,1.08,-0.01,0.07,1.08,
1.343,-0.30,0.73,1.08,-0.01,0.07,1.07,
1.344,-0.30,0.71,1.04,-0.01,0.07,1.07,
1.346,-0.30,0.71,1.04,-0.01,0.07,1.07,
1.348,-0.30,0.71,1.04,-0.00,0.07,1.06,
1.348,-0.28,0.72,0.98,-0.00,0.07,1.06,
1.35,-0.28,0.72,0.98,-0.00,0.07,1.06,
1.353,-0.28,0.72,0.98,-0.00,0.06,1.05,
1.353,-0.22,0.71,0.90,-0.00,0.06,1.05,
1.355,-0.22,0.71,0.90,0.00,0.06,1.05,
1.358,-0.22,0.71,0.90,0.01,0.06,1.04,
1.359,-0.18,0.67,0.79,0.01,0.06,1.04,
1.36,-0.18,0.67,0.79,0.01,0.06,1.04,
1.363,-0.18,0.67,0.79,0.01,0.06,1.03,
1.363,-0.12,0.60,0.68,0.01,0.06,1.03,
1.365,-0.12,0.60,0.68,0.02,0.05,1.02,
1.367,-0.12,0.60,0.68,0.02,0.05,1.02,
1.368,-0.05,0.56,0.57,0.02,0.05,1.02,
1.37,-0.05,0.56,0.57,0.02,0.05,1.01,
1.372,-0.05,0.56,0.57,0.02,0.05,1.01,
1.373,-0.00,0.51,0.46,0.02,0.05,1.01,
1.379,-0.00,0.51,0.46,0.02,0.05,1.00,
1.379,-0.00,0.51,0.46,0.03,0.04,1.00,
1.38,0.05,0.46,0.33,0.03,0.04,1.00,
1.38,0.05,0.46,0.33,0.04,0.04,1.00,
1.382,0.05,0.46,0.33,0.04,0.04,1.00,
1.382,0.11,0.42,0.26,0.04,0.04,1.00,
1.385,0.11,0.42,0.26,0.05,0.03,0.99,
1.387,0.11,0.42,0.26,0.05,0.03,1.00,
1.387,0.22,0.36,0.21,0.05,0.03,1.00,
1.389,0.22,0.36,0.21,0.05,0.03,1.00,
1.392,0.22,0.36,0.21,0.06,0.03,1.00,
1.393,0.31,0.31,0.20,0.06,0.03,1.00,
1.394,0.31,0.31,0.20,0.06,0.03,1.00,
1.397,0.31,0.31,0.20,0.06,0.04,1.00,
1.397,0.37,0.32,0.20,0.06,0.04,1.00,
1.399,0.37,0.32,0.20,0.06,0.04,1.01,
1.402,0.37,0.32,0.20,0.06,0.04,1.01,
1.402,0.40,0.33,0.26,0.06,0.04,1.01,
1.404,0.40,0.33,0.26,0.06,0.04,1.01,
1.408,0.40,0.33,0.26,0.06,0.04,1.02,
1.408,0.42,0.36,0.33,0.06,0.04,1.02,
1.409,0.42,0.36,0.33,0.06,0.04,1.02,
1.412,0.42,0.36,0.33,0.06,0.04,1.02,
1.412,0.41,0.37,0.41,0.06,0.04,1.02,
1.414,0.41,0.37,0.41,0.06,0.04,1.03,
1.416,0.41,0.37,0.41,0.06,0.04,1.03,
1.417,0.41,0.38,0.46,0.06,0.04,1.03,
1.419,0.41,0.38,0.46,0.06,0.04,1.03,
1.421,0.41,0.38,0.46,0.06,0.04,1.04,
1.422,0.44,0.40,0.52,0.06,0.04,1.04,
1.424,0.44,0.40,0.52,0.07,0.04,1.04,
1.427,0.44,0.40,0.52,0.06,0.05,1.04,
1.427,0.44,0.42,0.58,0.06,0.05,1.04,
1.429,0.44,0.42,0.58,0.06,0.05,1.04,
1.431,0.44,0.42,0.58,0.06,0.05,1.04,
1.431,0.46,0.44,0.64,0.06,0.05,1.04,
1.434,0.46,0.44,0.64,0.06,0.05,1.04,
1.436,0.46,0.44,0.64,0.06,0.05,1.04,
1.436,0.45,0.49,0.66,0.06,0.05,1.04,
1.439,0.45,0.49,0.66,0.07,0.05,1.04,
1.441,0.45,0.49,0.66,0.07,0.05,1.04,
1.442,0.45,0.51,0.65,0.07,0.05,1.04,
1.444,0.45,0.51,0.65,0.08,0.05,1.04,
1.446,0.45,0.51,0.65,0.08,0.05,1.04,
1.446,0.51,0.50,0.65,0.08,0.05,1.04,
1.448,0.51,0.50,0.65,0.08,0.05,1.04,
1.451,0.51,0.50,0.65,0.08,0.05,1.04,
1.451,0.59,0.49,0.64,0.08,0.05,1.04,
1.453,0.59,0.49,0.64,0.08,0.05,1.04,
1.456,0.59,0.49,0.64,0.08,0.05,1.03,
1.456,0.63,0.48,0.62,0.08,0.05,1.03,
1.458,0.63,0.48,0.62,0.09,0.05,1.03,
1.461,0.63,0.48,0.62,0.09,0.05,1.03,
1.461,0.67,0.48,0.59,0.09,0.05,1.03,
1.463,0.67,0.48,0.59,0.09,0.06,1.03,
1.466,0.67,0.48,0.59,0.09,0.06,1.03,
1.467,0.71,0.51,0.55,0.09,0.06,1.03,
1.468,0.71,0.51,0.55,0.09,0.06,1.03,
1.47,0.71,0.51,0.55,0.10,0.06,1.02,
1.471,0.73,0.55,0.50,0.10,0.06,1.02,
1.479,0.73,0.55,0.50,0.10,0.06,1.02,
1.479,0.73,0.55,0.50,0.11,0.06,1.02,
1.48,0.82,0.56,0.47,0.11,0.06,1.02,
1.48,0.82,0.56,0.47,0.11,0.06,1.01,
1.48,0.82,0.56,0.47,0.11,0.06,1.01,
1.48,0.91,0.56,0.41,0.11,0.06,1.01,
1.482,0.91,0.56,0.41,0.11,0.06,1.01,
1.485,0.91,0.56,0.41,0.11,0.06,1.00,
1.485,0.97,0.55,0.35,0.11,0.06,1.00,
1.488,0.97,0.55,0.35,0.11,0.07,1.00,
1.49,0.97,0.55,0.35,0.11,0.07,1.00,
1.49,1.01,0.58,0.29,0.11,0.07,1.00,
1.492,1.01,0.58,0.29,0.11,0.07,1.00,
1.495,1.01,0.58,0.29,0.11,0.08,0.99,
1.495,1.03,0.63,0.24,0.11,0.08,0.99,
1.497,1.03,0.63,0.24,0.12,0.08,0.99,
1.499,1.03,0.63,0.24,0.12,0.08,0.98,
1.499,1.03,0.70,0.17,0.12,0.08,0.98,
1.502,1.03,0.70,0.17,0.12,0.08,0.98,
1.504,1.03,0.70,0.17,0.12,0.08,0.98,
1.505,1.07,0.76,0.09,0.12,0.08,0.98,
1.507,1.07,0.76,0.09,0.12,0.09,0.98,
1.509,1.07,0.76,0.09,0.12,0.09,0.97,
1.51,1.12,0.77,0.04,0.12,0.09,0.97,
1.512,1.12,0.77,0.04,0.12,0.09,0.97,
1.515,1.12,0.77,0.04,0.12,0.09,0.97,
1.515,1.13,0.80,-0.01,0.12,0.09,0.97,
1.517,1.13,0.80,-0.01,0.12,0.10,0.97,
1.519,1.13,0.80,-0.01,0.12,0.10,0.97,
1.519,1.12,0.84,-0.07,0.12,0.10,0.97,
1.522,1.12,0.84,-0.07,0.12,0.10,0.97,
1.524,1.12,0.84,-0.07,0.12,0.10,0.97,
1.524,1.14,0.89,-0.09,0.12,0.10,0.97,
1.527,1.14,0.89,-0.09,0.12,0.10,0.97,
1.529,1.14,0.89,-0.09,0.13,0.10,0.98,
1.53,1.12,0.93,-0.07,0.13,0.10,0.98,
1.531,1.12,0.93,-0.07,0.13,0.11,0.98,
1.534,1.12,0.93,-0.07,0.13,0.10,0.98,
1.534,1.17,0.95,-0.02,0.13,0.10,0.98,
1.536,1.17,0.95,-0.02,0.14,0.10,0.98,
1.539,1.17,0.95,-0.02,0.14,0.10,0.99,
1.539,1.23,0.95,0.03,0.14,0.10,0.99,
1.541,1.23,0.95,0.03,0.14,0.10,0.99,
1.544,1.23,0.95,0.03,0.14,0.10,1.00,
1.544,1.28,0.92,0.09,0.14,0.10,1.00,
1.547,1.28,0.92,0.09,0.14,0.10,1.00,
1.549,1.28,0.92,0.09,0.14,0.10,1.00,
1.549,1.29,0.92,0.17,0.14,0.10,1.00,
1.551,1.29,0.92,0.17,0.14,0.10,1.00,
1.553,1.29,0.92,0.17,0.14,0.10,1.01,
1.554,1.28,0.91,0.23,0.14,0.10,1.01,
1.557,1.28,0.91,0.23,0.14,0.10,1.01,
1.559,1.28,0.91,0.23,0.14,0.10,1.01,
1.559,1.29,0.90,0.26,0.14,0.10,1.01,
1.561,1.29,0.90,0.26,0.14,0.09,1.01,
1.564,1.29,0.90,0.26,0.14,0.09,1.01,
1.564,1.34,0.86,0.32,0.14,0.09,1.01,
1.566,1.34,0.86,0.32,0.14,0.09,1.01,
1.568,1.34,0.86,0.32,0.14,0.09,1.01,
1.569,1.34,0.81,0.33,0.14,0.09,1.01,
1.571,1.34,0.81,0.33,0.14,0.09,1.01,
1.574,1.34,0.81,0.33,0.14,0.09,1.00,
1.574,1.35,0.77,0.31,0.14,0.09,1.00,
1.576,1.35,0.77,0.31,0.14,0.09,1.00,
1.578,1.35,0.77,0.31,0.14,0.09,1.00,
1.579,1.32,0.77,0.29,0.14,0.09,1.00,
1.581,1.32,0.77,0.29,0.13,0.09,0.99,
1.583,1.32,0.77,0.29,0.13,0.09,0.99,
1.583,1.28,0.78,0.23,0.13,0.09,0.99,
1.585,1.28,0.78,0.23,0.13,0.09,0.99,
1.588,1.28,0.78,0.23,0.14,0.09,0.99,
1.588,1.26,0.80,0.17,0.14,0.09,0.99,
1.596,1.26,0.80,0.17,0.13,0.09,0.98,
1.596,1.26,0.80,0.17,0.13,0.09,0.98,
1.597,1.28,0.76,0.11,0.13,0.09,0.98,
1.597,1.28,0.76,0.11,0.13,0.10,0.97,
1.598,1.28,0.76,0.11,0.13,0.10,0.97,
1.598,1.27,0.76,0.04,0.13,0.10,0.97,
1.6,1.27,0.76,0.04,0.13,0.10,0.97,
1.602,1.27,0.76,0.04,0.13,0.10,0.97,
1.603,1.21,0.82,-0.03,0.13,0.10,0.97,
1.605,1.21,0.82,-0.03,0.13,0.11,0.96,
1.608,1.21,0.82,-0.03,0.13,0.11,0.96,
1.608,1.22,0.87,-0.08,0.13,0.11,0.96,
1.61,1.22,0.87,-0.08,0.13,0.11,0.96,
1.612,1.22,0.87,-0.08,0.13,0.11,0.96,
1.612,1.23,0.90,-0.12,0.13,0.11,0.96,
1.615,1.23,0.90,-0.12,0.13,0.11,0.96,
1.617,1.23,0.90,-0.12,0.13,0.11,0.96,
1.617,1.25,0.91,-0.12,0.13,0.11,0.96,
1.62,1.25,0.91,-0.12,0.13,0.11,0.96,
1.622,1.25,0.91,-0.12,0.13,0.11,0.96,
1.622,1.26,0.89,-0.13,0.13,0.11,0.96,
1.625,1.26,0.89,-0.13,0.13,0.11,0.96,
1.627,1.25,0.89,-0.13,0.13,0.11,0.96,
1.629,1.25,0.89,-0.13,0.13,0.11,0.96,
1.629,1.25,0.89,-0.13,0.13,0.11,0.97,
1.632,1.25,0.90,-0.14,0.13,0.11,0.97,
1.633,1.25,0.90,-0.14,0.13,0.11,0.97,
1.634,1.25,0.90,-0.14,0.13,0.11,0.97,
1.637,1.25,0.90,-0.14,0.13,0.11,0.97,
1.637,1.24,0.91,-0.08,0.13,0.11,0.97,
1.64,1.24,0.91,-0.08,0.13,0.11,0.97,
1.642,1.24,0.91,-0.08,0.13,0.12,0.97,
1.642,1.24,0.93,-0.05,0.13,0.12,0.97,
1.644,1.24,0.93,-0.05,0.12,0.12,0.98,
1.646,1.24,0.93,-0.05,0.12,0.12,0.97,
1.647,1.22,0.94,-0.03,0.12,0.12,0.97,
1.649,1.22,0.94,-0.03,0.12,0.12,0.97,
1.651,1.22,0.94,-0.03,0.12,0.12,0.98,
1.651,1.19,0.97,-0.01,0.12,0.12,0.98,
1.654,1.19,0.97,-0.01,0.12,0.12,0.98,
1.658,1.19,0.97,-0.01,0.12,0.12,0.98,
1.659,1.18,0.99,-0.02,0.12,0.12,0.98,
1.66,1.18,0.99,-0.02,0.12,0.12,0.97,
1.661,1.18,0.99,-0.02,0.13,0.12,0.97,
1.662,1.17,0.99,-0.01,0.13,0.12,0.97,
1.664,1.17,0.99,-0.01,0.12,0.13,0.97,
1.666,1.17,0.99,-0.01,0.12,0.13,0.97,
1.667,1.19,0.99,-0.02,0.12,0.13,0.97,
1.669,1.19,0.99,-0.02,0.12,0.12,0.97,
1.671,1.15,0.99,-0.05,0.12,0.12,0.97,
1.671,1.15,0.99,-0.05,0.12,0.12,0.97,
1.674,1.15,0.99,-0.05,0.12,0.12,0.97,
1.676,1.15,0.99,-0.05,0.12,0.12,0.96,
1.676,1.13,0.96,-0.08,0.12,0.12,0.96,
1.679,1.13,0.96,-0.08,0.12,0.12,0.96,
1.681,1.13,0.96,-0.08,0.12,0.11,0.96,
1.681,1.11,0.93,-0.11,0.12,0.11,0.96,
1.683,1.11,0.93,-0.11,0.12,0.11,0.96,
1.686,1.11,0.93,-0.11,0.12,0.11,0.95,
1.686,1.11,0.85,-0.16,0.12,0.11,0.95,
1.688,1.11,0.85,-0.16,0.12,0.10,0.95,
1.691,1.11,0.85,-0.16,0.12,0.10,0.94,
1.691,1.13,0.79,-0.22,0.12,0.10,0.94,
1.697,1.13,0.79,-0.22,0.12,0.09,0.94,
1.698,1.13,0.79,-0.22,0.12,0.09,0.94,
1.698,1.15,0.70,-0.30,0.12,0.09,0.94,
1.698,1.15,0.70,-0.30,0.11,0.09,0.94,
1.701,1.15,0.70,-0.30,0.10,0.09,0.94,
1.701,1.11,0.61,-0.34,0.10,0.09,0.94,
1.703,1.11,0.61,-0.34,0.10,0.09,0.94,
1.705,1.11,0.61,-0.34,0.09,0.09,0.94,
1.706,1.00,0.57,-0.36,0.09,0.09,0.94,
1.709,1.00,0.57,-0.36,0.09,0.09,0.94,
1.71,1.00,0.57,-0.36,0.09,0.09,0.94,
1.71,0.87,0.57,-0.38,0.09,0.09,0.94,
1.713,0.87,0.57,-0.38,0.08,0.09,0.94,
1.715,0.87,0.57,-0.38,0.09,0.09,0.94,
1.715,0.78,0.58,-0.38,0.09,0.09,0.94,
1.718,0.78,0.58,-0.38,0.09,0.08,0.95,
1.72,0.78,0.58,-0.38,0.09,0.09,0.95,
1.72,0.77,0.56,-0.33,0.09,0.09,0.95,
1.723,0.77,0.56,-0.33,0.09,0.09,0.95,
1.725,0.77,0.56,-0.33,0.09,0.09,0.95,
1.726,0.82,0.55,-0.26,0.09,0.09,0.95,
1.727,0.82,0.55,-0.26,0.10,0.09,0.96,
1.73,0.82,0.55,-0.26,0.10,0.08,0.96,
1.73,0.85,0.56,-0.21,0.10,0.08,0.96,
1.735,0.85,0.56,-0.21,0.10,0.09,0.96,
1.735,0.85,0.56,-0.21,0.10,0.08,0.97,
1.735,0.89,0.55,-0.15,0.10,0.08,0.97,
1.737,0.89,0.55,-0.15,0.10,0.08,0.97,
1.74,0.89,0.55,-0.15,0.10,0.08,0.97,
1.74,0.93,0.54,-0.10,0.10,0.08,0.97,
1.742,0.93,0.54,-0.10,0.10,0.08,0.97,
1.745,0.93,0.54,-0.10,0.10,0.08,0.97,
1.745,0.95,0.51,-0.07,0.10,0.08,0.97,
1.747,0.95,0.51,-0.07,0.10,0.08,0.97,
1.749,0.95,0.47,-0.08,0.10,0.08,0.97,
1.75,0.95,0.47,-0.08,0.10,0.07,0.97,
1.752,0.95,0.47,-0.08,0.09,0.07,0.97,
1.755,0.95,0.47,-0.08,0.09,0.07,0.97,
1.755,0.91,0.44,-0.05,0.09,0.07,0.97,
1.757,0.91,0.44,-0.05,0.08,0.07,0.97,
1.759,0.91,0.44,-0.05,0.07,0.06,0.97,
1.76,0.79,0.39,-0.06,0.07,0.06,0.97,
1.762,0.79,0.39,-0.06,0.05,0.06,0.97,
1.764,0.79,0.39,-0.06,0.04,0.05,0.98,
1.764,0.60,0.32,-0.03,0.04,0.05,0.98,
1.767,0.60,0.32,-0.03,0.03,0.05,0.98,
1.769,0.60,0.32,-0.03,0.02,0.05,0.98,
1.769,0.37,0.24,-0.01,0.02,0.05,0.98,
1.771,0.37,0.24,-0.01,0.00,0.05,0.98,
1.774,0.37,0.24,-0.01,-0.00,0.04,0.99,
1.774,0.11,0.18,0.04,-0.00,0.04,0.99,
1.777,0.11,0.18,0.04,-0.01,0.04,0.99,
1.779,0.11,0.18,0.04,-0.01,0.04,1.00,
1.779,-0.12,0.13,0.11,-0.01,0.04,1.00,
1.781,-0.12,0.13,0.11,-0.02,0.03,1.00,
1.784,-0.12,0.13,0.11,-0.02,0.03,1.00,
1.784,-0.26,0.05,0.17,-0.02,0.03,1.00,
1.786,-0.26,0.05,0.17,-0.02,0.03,1.01,
1.789,-0.26,0.05,0.17,-0.03,0.02,1.01,
1.789,-0.35,-0.04,0.24,-0.03,0.02,1.01,
1.792,-0.35,-0.04,0.24,-0.03,0.02,1.01,
1.798,-0.35,-0.04,0.24,-0.03,0.02,1.02,
1.799,-0.41,-0.09,0.31,-0.03,0.02,1.02,
1.799,-0.41,-0.09,0.31,-0.03,0.02,1.02,
1.799,-0.41,-0.09,0.31,-0.03,0.02,1.02,
1.8,-0.45,-0.13,0.38,-0.03,0.02,1.02,
1.801,-0.45,-0.13,0.38,-0.03,0.02,1.02,
1.803,-0.45,-0.13,0.38,-0.03,0.02,1.02,
1.804,-0.49,-0.16,0.43,-0.03,0.02,1.02,
1.806,-0.49,-0.16,0.43,-0.02,0.02,1.03,
1.811,-0.49,-0.16,0.43,-0.02,0.01,1.03,
1.812,-0.48,-0.18,0.47,-0.02,0.01,1.03,
1.812,-0.48,-0.18,0.47,-0.01,0.01,1.03,
1.813,-0.48,-0.18,0.47,-0.01,0.01,1.02,
1.814,-0.41,-0.25,0.49,-0.01,0.01,1.02,
1.816,-0.41,-0.25,0.49,-0.01,0.00,1.02,
1.818,-0.41,-0.25,0.49,-0.01,-0.00,1.01,
1.818,-0.35,-0.32,0.47,-0.01,-0.00,1.01,
1.821,-0.35,-0.32,0.47,-0.01,-0.01,1.01,
1.823,-0.35,-0.32,0.47,-0.01,-0.01,1.01,
1.823,-0.34,-0.41,0.39,-0.01,-0.01,1.01,
1.825,-0.34,-0.41,0.39,-0.02,-0.01,1.00,
1.828,-0.35,-0.52,0.30,-0.02,-0.01,1.00,
1.828,-0.35,-0.52,0.30,-0.02,-0.02,1.00,
1.83,-0.35,-0.52,0.30,-0.02,-0.02,0.99,
1.832,-0.35,-0.52,0.30,-0.03,-0.03,0.99,
1.833,-0.39,-0.59,0.21,-0.03,-0.03,0.99,
1.835,-0.39,-0.59,0.21,-0.04,-0.03,0.98,
1.838,-0.39,-0.59,0.21,-0.04,-0.03,0.98,
1.838,-0.47,-0.69,0.11,-0.04,-0.03,0.98,
1.84,-0.47,-0.69,0.11,-0.05,-0.03,0.97,
1.842,-0.47,-0.69,0.11,-0.05,-0.04,0.97,
1.843,-0.63,-0.74,0.00,-0.05,-0.04,0.97,
1.845,-0.63,-0.74,0.00,-0.06,-0.04,0.97,
1.847,-0.63,-0.74,0.00,-0.06,-0.04,0.97,
1.847,-0.74,-0.79,-0.06,-0.06,-0.04,0.97,
1.85,-0.74,-0.79,-0.06,-0.06,-0.05,0.97,
1.852,-0.74,-0.79,-0.06,-0.06,-0.05,0.97,
1.852,-0.83,-0.86,-0.06,-0.06,-0.05,0.97,
1.855,-0.83,-0.86,-0.06,-0.07,-0.05,0.97,
1.857,-0.83,-0.86,-0.06,-0.07,-0.06,0.97,
1.857,-0.86,-0.95,-0.05,-0.07,-0.06,0.97,
1.86,-0.86,-0.95,-0.05,-0.07,-0.06,0.98,
1.862,-0.86,-0.95,-0.05,-0.08,-0.06,0.98,
1.862,-0.91,-1.02,-0.03,-0.08,-0.06,0.98,
1.864,-0.91,-1.02,-0.03,-0.08,-0.06,0.98,
1.867,-0.91,-1.02,-0.03,-0.08,-0.06,0.99,
1.867,-1.00,-1.05,-0.01,-0.08,-0.06,0.99,
1.869,-1.00,-1.05,-0.01,-0.09,-0.06,0.99,
1.879,-1.00,-1.05,-0.01,-0.09,-0.07,0.99,
1.88,-1.09,-1.10,0.06,-0.09,-0.07,0.99,
1.88,-1.09,-1.10,0.06,-0.09,-0.07,0.99,
1.88,-1.09,-1.10,0.06,-0.09,-0.07,0.99,
1.88,-1.14,-1.12,0.13,-0.09,-0.07,0.99,
1.881,-1.14,-1.12,0.13,-0.09,-0.07,0.99,
1.882,-1.14,-1.12,0.13,-0.09,-0.08,0.99,
1.882,-1.17,-1.18,0.16,-0.09,-0.08,0.99,
1.884,-1.17,-1.18,0.16,-0.09,-0.08,0.99,
1.886,-1.17,-1.18,0.16,-0.09,-0.09,0.99,
1.887,-1.20,-1.25,0.16,-0.09,-0.09,0.99,
1.893,-1.20,-1.25,0.16,-0.08,-0.09,0.99,
1.893,-1.20,-1.25,0.16,-0.08,-0.10,0.99,
1.894,-1.19,-1.34,0.17,-0.08,-0.10,0.99,
1.894,-1.19,-1.34,0.17,-0.07,-0.10,0.98,
1.896,-1.19,-1.34,0.17,-0.07,-0.11,0.98,
1.897,-1.09,-1.43,0.11,-0.07,-0.11,0.98,
1.899,-1.09,-1.43,0.11,-0.06,-0.11,0.98,
1.901,-1.09,-1.43,0.11,-0.06,-0.12,0.98,
1.901,-0.97,-1.55,0.06,-0.06,-0.12,0.98,
1.904,-0.97,-1.55,0.06,-0.06,-0.12,0.97,
1.906,-0.97,-1.55,0.06,-0.06,-0.12,0.97,
1.907,-0.90,-1.65,0.01,-0.06,-0.12,0.97,
1.908,-0.90,-1.65,0.01,-0.07,-0.12,0.97,
1.911,-0.90,-1.65,0.01,-0.08,-0.12,0.96,
1.911,-0.89,-1.74,-0.05,-0.08,-0.12,0.96,
1.914,-0.89,-1.74,-0.05,-0.09,-0.12,0.96,
1.916,-0.89,-1.74,-0.05,-0.09,-0.11,0.96,
1.916,-1.01,-1.72,-0.11,-0.09,-0.11,0.96,
1.918,-1.01,-1.72,-0.11,-0.10,-0.11,0.96,
1.921,-1.01,-1.72,-0.11,-0.10,-0.11,0.97,
1.921,-1.18,-1.66,-0.14,-0.10,-0.11,0.97,
1.923,-1.18,-1.66,-0.14,-0.11,-0.11,0.97,
1.926,-1.18,-1.66,-0.14,-0.11,-0.10,0.97,
1.926,-1.30,-1.61,-0.12,-0.11,-0.10,0.97,
1.929,-1.30,-1.61,-0.12,-0.11,-0.10,0.98,
1.931,-1.30,-1.61,-0.12,-0.11,-0.10,0.98,
1.931,-1.37,-1.56,-0.05,-0.11,-0.10,0.98,
1.933,-1.37,-1.56,-0.05,-0.11,-0.10,0.99,
1.935,-1.37,-1.56,-0.05,-0.10,-0.10,0.99,
1.936,-1.38,-1.53,0.04,-0.10,-0.10,0.99,
1.938,-1.38,-1.53,0.04,-0.10,-0.10,1.00,
1.941,-1.38,-1.53,0.04,-0.10,-0.09,1.00,
1.941,-1.38,-1.50,0.12,-0.10,-0.09,1.00,
1.943,-1.38,-1.50,0.12,-0.09,-0.09,1.01,
1.945,-1.38,-1.50,0.12,-0.09,-0.08,1.01,
1.946,-1.33,-1.45,0.22,-0.09,-0.08,1.01,
1.948,-1.33,-1.45,0.22,-0.08,-0.08,1.01,
1.95,-1.33,-1.45,0.22,-0.08,-0.08,1.02,
1.95,-1.25,-1.38,0.33,-0.08,-0.08,1.02,
1.953,-1.25,-1.38,0.33,-0.08,-0.08,1.02,
1.957,-1.25,-1.38,0.33,-0.08,-0.08,1.02,
1.958,-1.19,-1.34,0.38,-0.08,-0.08,1.02,
1.958,-1.19,-1.34,0.38,-0.08,-0.08,1.02,
1.96,-1.19,-1.34,0.38,-0.08,-0.08,1.02,
1.96,-1.15,-1.35,0.44,-0.08,-0.08,1.02,
1.962,-1.15,-1.35,0.44,-0.08,-0.08,1.02,
1.965,-1.15,-1.35,0.44,-0.09,-0.08,1.01,
1.965,-1.13,-1.37,0.46,-0.09,-0.08,1.01,
1.967,-1.13,-1.37,0.46,-0.09,-0.08,1.01,
1.97,-1.13,-1.37,0.46,-0.09,-0.08,1.01,
1.97,-1.18,-1.36,0.39,-0.09,-0.08,1.01,
1.972,-1.18,-1.36,0.39,-0.09,-0.08,1.00,
1.975,-1.18,-1.36,0.39,-0.09,-0.08,1.00,
1.975,-1.24,-1.35,0.31,-0.09,-0.08,1.00,
1.977,-1.24,-1.35,0.31,-0.08,-0.08,0.99,
1.979,-1.24,-1.35,0.31,-0.08,-0.08,0.98,
1.98,-1.25,-1.36,0.21,-0.08,-0.08,0.98,
1.982,-1.25,-1.36,0.21,-0.08,-0.08,0.98,
1.984,-1.25,-1.36,0.21,-0.07,-0.08,0.97,
1.985,-1.18,-1.37,0.11,-0.07,-0.08,0.97,
1.987,-1.18,-1.37,0.11,-0.07,-0.07,0.97,
1.991,-1.18,-1.37,0.11,-0.06,-0.07,0.97,
1.991,-1.12,-1.34,-0.01,-0.06,-0.07,0.97,
1.992,-1.12,-1.34,-0.01,-0.06,-0.07,0.97,
1.994,-1.12,-1.34,-0.01,-0.05,-0.07,0.97,
1.994,-1.03,-1.31,-0.09,-0.05,-0.07,0.97,
1.997,-1.03,-1.31,-0.09,-0.05,-0.07,0.97,
1.999,-1.03,-1.31,-0.09,-0.05,-0.07,0.97,
1.999,-0.90,-1.30,-0.11,-0.05,-0.07,0.97,
2.001,-0.90,-1.30,-0.11,-0.05,-0.07,0.97,
2.004,-0.90,-1.30,-0.11,-0.05,-0.07,0.97,
2.004,-0.83,-1.29,-0.10,-0.05,-0.07,0.97,
2.006,-0.83,-1.29,-0.10,-0.05,-0.07,0.97,
2.009,-0.83,-1.29,-0.10,-0.05,-0.07,0.98,
2.009,-0.79,-1.28,-0.06,-0.05,-0.07,0.98,
2.011,-0.79,-1.28,-0.06,-0.05,-0.07,0.98,
2.014,-0.79,-1.28,-0.06,-0.05,-0.07,0.98,
2.014,-0.80,-1.26,-0.00,-0.05,-0.07,0.98,
2.016,-0.80,-1.26,-0.00,-0.05,-0.07,0.98,
2.019,-0.80,-1.26,-0.00,-0.05,-0.07,0.99,
2.019,-0.85,-1.23,0.05,-0.05,-0.07,0.99,
2.021,-0.85,-1.23,0.05,-0.04,-0.07,0.99,
2.024,-0.85,-1.23,0.05,-0.04,-0.08,1.00,
2.024,-0.83,-1.24,0.10,-0.04,-0.08,1.00,
2.026,-0.83,-1.24,0.10,-0.04,-0.08,1.00,
2.029,-0.83,-1.24,0.10,-0.04,-0.08,1.01,
2.029,-0.78,-1.30,0.19,-0.04,-0.08,1.01,
2.031,-0.78,-1.30,0.19,-0.05,-0.08,1.01,
2.033,-0.78,-1.30,0.19,-0.05,-0.08,1.01,
2.034,-0.78,-1.35,0.27,-0.05,-0.08,1.01,
2.036,-0.78,-1.35,0.27,-0.05,-0.08,1.01,
2.039,-0.78,-1.35,0.27,-0.06,-0.08,1.01,
2.04,-0.84,-1.37,0.31,-0.06,-0.08,1.01,
2.041,-0.84,-1.37,0.31,-0.06,-0.08,1.01,
2.044,-0.84,-1.37,0.31,-0.06,-0.08,1.00,
2.044,-0.91,-1.34,0.30,-0.06,-0.08,1.00,
2.046,-0.91,-1.34,0.30,-0.07,-0.08,1.00,
2.048,-0.91,-1.34,0.30,-0.07,-0.08,1.00,
2.049,-0.98,-1.31,0.28,-0.07,-0.08,1.00,
2.051,-0.98,-1.31,0.28,-0.06,-0.07,1.00,
2.053,-0.98,-1.31,0.28,-0.06,-0.07,0.99,
2.053,-1.03,-1.30,0.25,-0.06,-0.07,0.99,
2.056,-1.03,-1.30,0.25,-0.06,-0.07,0.99,
2.058,-1.03,-1.30,0.25,-0.06,-0.07,0.99,
2.058,-0.99,-1.28,0.20,-0.06,-0.07,0.99,
2.061,-0.99,-1.28,0.20,-0.06,-0.06,0.99,
2.063,-0.99,-1.28,0.20,-0.06,-0.06,0.98,
2.063,-0.97,-1.24,0.14,-0.06,-0.06,0.98,
2.065,-0.97,-1.24,0.14,-0.05,-0.05,0.98,
2.068,-0.97,-1.24,0.14,-0.04,-0.05,0.98,
2.068,-0.92,-1.18,0.08,-0.04,-0.05,0.98,
2.07,-0.92,-1.18,0.08,-0.04,-0.05,0.97,
2.073,-0.92,-1.18,0.08,-0.03,-0.04,0.97,
2.074,-0.82,-1.10,0.01,-0.03,-0.04,0.97,
2.075,-0.82,-1.10,0.01,-0.02,-0.04,0.97,
2.078,-0.69,-1.02,-0.03,-0.02,-0.04,0.97,
2.078,-0.69,-1.02,-0.03,-0.01,-0.03,0.97,
2.08,-0.69,-1.02,-0.03,-0.01,-0.03,0.97,
2.082,-0.69,-1.02,-0.03,0.00,-0.03,0.97,
2.083,-0.52,-0.95,-0.05,0.00,-0.03,0.97,
2.085,-0.52,-0.95,-0.05,0.01,-0.02,0.96,
2.088,-0.52,-0.95,-0.05,0.01,-0.02,0.96,
2.088,-0.37,-0.88,-0.08,0.01,-0.02,0.96,
2.095,-0.37,-0.88,-0.08,0.02,-0.01,0.96,
2.095,-0.37,-0.88,-0.08,0.02,-0.01,0.96,
2.096,-0.25,-0.82,-0.12,0.02,-0.01,0.96,
2.096,-0.25,-0.82,-0.12,0.02,-0.01,0.95,
2.097,-0.25,-0.82,-0.12,0.02,-0.01,0.96,
2.097,-0.16,-0.74,-0.15,0.02,-0.01,0.96,
2.1,-0.16,-0.74,-0.15,0.02,-0.01,0.95,
2.102,-0.16,-0.74,-0.15,0.02,-0.00,0.95,
2.102,-0.12,-0.70,-0.21,0.02,-0.00,0.95,
2.104,-0.12,-0.70,-0.21,0.02,-0.01,0.95,
2.108,-0.12,-0.70,-0.21,0.02,-0.01,0.95,
2.108,-0.09,-0.66,-0.23,0.02,-0.01,0.95,
2.11,-0.09,-0.66,-0.23,0.01,-0.00,0.95,
2.112,-0.09,-0.66,-0.23,0.01,-0.01,0.94,
2.112,-0.11,-0.68,-0.27,0.01,-0.01,0.94,
2.114,-0.11,-0.68,-0.27,0.01,-0.01,0.94,
2.117,-0.11,-0.68,-0.27,0.00,-0.01,0.94,
2.119,-0.20,-0.68,-0.31,0.00,-0.01,0.94,
2.119,-0.20,-0.68,-0.31,0.00,-0.01,0.94,
2.123,-0.20,-0.68,-0.31,-0.00,-0.01,0.94,
2.123,-0.27,-0.70,-0.34,-0.00,-0.01,0.94,
2.124,-0.27,-0.70,-0.34,-0.01,-0.02,0.94,
2.126,-0.27,-0.70,-0.34,-0.01,-0.02,0.94,
2.127,-0.33,-0.74,-0.35,-0.01,-0.02,0.94,
2.129,-0.33,-0.74,-0.35,-0.01,-0.02,0.95,
2.131,-0.33,-0.74,-0.35,-0.01,-0.02,0.95,
2.132,-0.41,-0.78,-0.33,-0.01,-0.02,0.95,
2.134,-0.41,-0.78,-0.33,-0.02,-0.02,0.95,
2.136,-0.41,-0.78,-0.33,-0.02,-0.02,0.96,
2.137,-0.46,-0.81,-0.26,-0.02,-0.02,0.96,
2.139,-0.46,-0.81,-0.26,-0.02,-0.03,0.96,
2.141,-0.46,-0.81,-0.26,-0.02,-0.03,0.97,
2.142,-0.50,-0.84,-0.20,-0.02,-0.03,0.97,
2.144,-0.50,-0.84,-0.20,-0.02,-0.03,0.98,
2.146,-0.50,-0.84,-0.20,-0.02,-0.03,0.98,
2.146,-0.54,-0.87,-0.08,-0.02,-0.03,0.98,
2.148,-0.54,-0.87,-0.08,-0.02,-0.03,0.98,
2.151,-0.54,-0.87,-0.08,-0.02,-0.03,0.99,
2.151,-0.54,-0.89,0.03,-0.02,-0.03,0.99,
2.153,-0.54,-0.89,0.03,-0.02,-0.03,0.99,
2.156,-0.54,-0.89,0.03,-0.02,-0.03,1.00,
2.156,-0.54,-0.89,0.10,-0.02,-0.03,1.00,
2.158,-0.54,-0.89,0.10,-0.02,-0.03,1.00,
2.161,-0.54,-0.89,0.10,-0.02,-0.02,1.01,
2.161,-0.52,-0.87,0.20,-0.02,-0.02,1.01,
2.163,-0.52,-0.87,0.20,-0.02,-0.02,1.01,
2.165,-0.52,-0.87,0.20,-0.02,-0.02,1.01,
2.166,-0.50,-0.85,0.29,-0.02,-0.02,1.01,
2.168,-0.50,-0.85,0.29,-0.02,-0.01,1.01,
2.171,-0.50,-0.85,0.29,-0.02,-0.01,1.01,
2.171,-0.53,-0.78,0.35,-0.02,-0.01,1.01,
2.176,-0.53,-0.78,0.35,-0.01,0.00,1.01,
2.177,-0.53,-0.78,0.35,-0.01,0.01,1.01,
2.177,-0.53,-0.69,0.37,-0.01,0.01,1.01,
2.178,-0.53,-0.69,0.37,-0.01,0.01,1.01,
2.181,-0.53,-0.69,0.37,-0.00,0.02,1.00,
2.181,-0.48,-0.56,0.35,-0.00,0.02,1.00,
2.183,-0.48,-0.56,0.35,0.01,0.02,1.00,
2.185,-0.48,-0.56,0.35,0.01,0.02,1.00,
2.185,-0.38,-0.46,0.30,0.01,0.02,1.00,
2.188,-0.38,-0.46,0.30,0.02,0.03,0.99,
2.19,-0.38,-0.46,0.30,0.03,0.03,0.99,
2.191,-0.24,-0.38,0.23,0.03,0.03,0.99,
2.193,-0.24,-0.38,0.23,0.03,0.03,0.98,
2.195,-0.24,-0.38,0.23,0.04,0.04,0.97,
2.195,-0.08,-0.32,0.14,0.04,0.04,0.97,
2.198,-0.08,-0.32,0.14,0.04,0.04,0.97,
2.2,-0.08,-0.32,0.14,0.04,0.04,0.96,
2.2,0.01,-0.26,0.02,0.04,0.04,0.96,
2.202,0.01,-0.26,0.02,0.04,0.04,0.96,
2.206,0.01,-0.26,0.02,0.04,0.05,0.95,
2.206,0.07,-0.22,-0.10,0.04,0.05,0.95,
2.207,0.07,-0.22,-0.10,0.04,0.05,0.95,
2.21,0.07,-0.22,-0.10,0.04,0.06,0.94,
2.211,0.10,-0.16,-0.20,0.04,0.06,0.94,
2.212,0.10,-0.16,-0.20,0.04,0.06,0.94,
2.215,0.10,-0.16,-0.20,0.04,0.06,0.94,
2.215,0.08,-0.07,-0.29,0.04,0.06,0.94,
2.217,0.08,-0.07,-0.29,0.04,0.06,0.93,
2.22,0.08,-0.07,-0.29,0.04,0.06,0.93,
2.22,0.08,-0.01,-0.36,0.04,0.06,0.93,
2.222,0.08,-0.01,-0.36,0.04,0.07,0.93,
2.225,0.08,-0.01,-0.36,0.04,0.07,0.94,
2.225,0.08,-0.00,-0.42,0.04,0.07,0.94,
2.227,0.08,-0.00,-0.42,0.04,0.07,0.94,
2.229,0.08,-0.00,-0.42,0.04,0.07,0.94,
2.229,0.12,0.03,-0.40,0.04,0.07,0.94,
2.232,0.12,0.03,-0.40,0.04,0.07,0.94,
2.234,0.12,0.03,-0.40,0.04,0.06,0.95,
2.234,0.09,0.04,-0.35,0.04,0.06,0.95,
2.237,0.09,0.04,-0.35,0.04,0.06,0.95,
2.24,0.09,0.04,-0.35,0.05,0.06,0.96,
2.242,0.11,0.03,-0.28,0.05,0.06,0.96,
2.243,0.11,0.03,-0.28,0.05,0.06,0.96,
2.244,0.11,0.03,-0.28,0.05,0.06,0.96,
2.245,0.14,0.00,-0.19,0.05,0.06,0.96,
2.246,0.14,0.00,-0.19,0.05,0.06,0.97,
2.249,0.14,0.00,-0.19,0.05,0.06,0.97,
2.249,0.18,-0.02,-0.11,0.05,0.06,0.97,
2.251,0.18,-0.02,-0.11,0.06,0.06,0.97,
2.254,0.18,-0.02,-0.11,0.05,0.06,0.98,
2.254,0.19,-0.04,-0.03,0.05,0.06,0.98,
2.257,0.19,-0.04,-0.03,0.06,0.06,0.98,
2.259,0.19,-0.04,-0.03,0.06,0.06,0.98,
2.26,0.20,-0.05,0.02,0.06,0.06,0.98,
2.261,0.20,-0.05,0.02,0.06,0.06,0.98,
2.263,0.20,-0.05,0.02,0.06,0.06,0.98,
2.264,0.20,-0.05,0.08,0.06,0.06,0.98,
2.266,0.20,-0.05,0.08,0.06,0.06,0.98,
2.268,0.20,-0.05,0.08,0.06,0.05,0.98,
2.269,0.21,-0.06,0.10,0.06,0.05,0.98,
2.276,0.21,-0.06,0.10,0.06,0.05,0.98,
2.277,0.23,-0.07,0.05,0.06,0.05,0.98,
2.277,0.23,-0.07,0.05,0.05,0.05,0.98,
2.277,0.23,-0.07,0.05,0.05,0.06,0.97,
2.278,0.23,-0.07,0.05,0.05,0.06,0.97,
2.279,0.20,-0.08,0.02,0.05,0.06,0.97,
2.281,0.20,-0.08,0.02,0.05,0.06,0.97,
2.283,0.20,-0.08,0.02,0.04,0.06,0.96,
2.284,0.15,-0.05,-0.03,0.04,0.06,0.96,
2.286,0.15,-0.05,-0.03,0.04,0.06,0.96,
2.291,0.15,-0.05,-0.03,0.04,0.06,0.96,
2.292,0.12,-0.02,-0.09,0.04,0.06,0.96,
2.292,0.12,-0.02,-0.09,0.04,0.07,0.96,
2.293,0.12,-0.02,-0.09,0.04,0.07,0.96,
2.293,0.10,0.01,-0.12,0.04,0.07,0.96,
2.295,0.10,0.01,-0.12,0.04,0.07,0.96,
2.298,0.10,0.01,-0.12,0.04,0.07,0.96,
2.298,0.08,0.05,-0.11,0.04,0.07,0.96,
2.3,0.08,0.05,-0.11,0.05,0.07,0.97,
2.303,0.11,0.07,-0.10,0.05,0.07,0.97,
2.303,0.11,0.07,-0.10,0.05,0.07,0.97,
2.305,0.11,0.07,-0.10,0.05,0.07,0.97,
2.308,0.11,0.07,-0.10,0.05,0.06,0.98,
2.308,0.14,0.05,-0.06,0.05,0.06,0.98,
2.31,0.14,0.05,-0.06,0.04,0.06,0.98,
2.312,0.14,0.05,-0.06,0.04,0.07,0.98,
2.313,0.14,0.04,0.01,0.04,0.07,0.98,
2.315,0.14,0.04,0.01,0.04,0.06,0.99,
2.318,0.14,0.04,0.01,0.04,0.06,0.99,
2.318,0.11,0.04,0.07,0.04,0.06,0.99,
2.32,0.11,0.04,0.07,0.04,0.06,0.99,
2.322,0.11,0.04,0.07,0.04,0.06,0.99,
2.323,0.11,0.04,0.12,0.04,0.06,0.99,
2.325,0.11,0.04,0.12,0.05,0.06,0.99,
2.327,0.11,0.04,0.12,0.05,0.06,0.99,
2.328,0.12,0.02,0.15,0.05,0.06,0.99,
2.33,0.12,0.02,0.15,0.05,0.06,0.99,
2.332,0.12,0.02,0.15,0.04,0.06,0.99,
2.332,0.14,-0.01,0.18,0.04,0.06,0.99,
2.335,0.14,-0.01,0.18,0.04,0.06,0.97,
2.337,0.14,-0.01,0.18,0.04,0.06,0.94,
2.337,0.14,-0.00,0.17,0.04,0.06,0.94,
2.339,0.14,-0.00,0.17,0.03,0.06,0.93,
2.342,0.14,-0.00,0.17,0.03,0.06,0.92,
2.342,0.06,-0.00,-0.18,0.03,0.06,0.92,
2.344,0.06,-0.00,-0.18,0.02,0.06,0.92,
2.347,0.06,-0.00,-0.18,0.02,0.06,0.92,
2.347,-0.02,0.01,-0.46,0.02,0.06,0.92,
2.35,-0.02,0.01,-0.46,0.02,0.06,0.91,
2.352,-0.10,0.05,-0.54,0.02,0.06,0.91,
2.353,-0.10,0.05,-0.54,0.02,0.06,0.91,
2.355,-0.10,0.05,-0.54,0.02,0.06,0.91,
2.357,-0.10,0.05,-0.54,0.03,0.06,0.92,
2.357,-0.10,0.06,-0.62,0.03,0.06,0.92,
2.359,-0.10,0.06,-0.62,0.03,0.06,0.93,
2.361,-0.10,0.06,-0.62,0.03,0.06,0.94,
2.362,-0.06,0.05,-0.56,0.03,0.06,0.94,
2.364,-0.06,0.05,-0.56,0.03,0.06,0.95,
2.366,-0.06,0.05,-0.56,0.03,0.07,0.97,
2.366,-0.00,0.07,-0.37,0.03,0.07,0.97,
2.369,-0.00,0.07,-0.37,0.03,0.07,0.98,
2.371,-0.00,0.07,-0.37,0.04,0.07,1.00,
2.372,0.01,0.13,-0.14,0.04,0.07,1.00,
2.374,0.01,0.13,-0.14,0.04,0.07,1.01,
2.376,0.01,0.13,-0.14,0.04,0.07,1.02,
2.376,0.05,0.15,0.14,0.04,0.07,1.02,
2.378,0.05,0.15,0.14,0.04,0.07,1.03,
2.381,0.05,0.15,0.14,0.04,0.07,1.04,
2.381,0.07,0.17,0.42,0.04,0.07,1.04,
2.383,0.07,0.17,0.42,0.05,0.06,1.05,
2.386,0.07,0.17,0.42,0.05,0.06,1.06,
2.386,0.12,0.15,0.63,0.05,0.06,1.06,
2.391,0.12,0.15,0.63,0.05,0.06,1.06,
2.391,0.12,0.15,0.63,0.04,0.05,1.06,
2.391,0.15,0.10,0.77,0.04,0.05,1.06,
2.393,0.15,0.10,0.77,0.04,0.05,1.06,
2.396,0.15,0.10,0.77,0.04,0.05,1.06,
2.396,0.13,0.04,0.86,0.04,0.05,1.06,
2.398,0.13,0.04,0.86,0.03,0.04,1.05,
2.4,0.13,0.04,0.86,0.03,0.04,1.05,
2.401,0.06,-0.03,0.84,0.03,0.04,1.05,
2.403,0.06,-0.03,0.84,0.02,0.04,1.04,
2.406,0.06,-0.03,0.84,0.02,0.04,1.04,
2.406,-0.03,-0.10,0.74,0.02,0.04,1.04,
2.408,-0.03,-0.10,0.74,0.02,0.04,1.03,
2.41,-0.03,-0.10,0.74,0.02,0.04,1.02,
2.411,-0.11,-0.14,0.63,0.02,0.04,1.02,
2.413,-0.11,-0.14,0.63,0.02,0.03,1.02,
2.415,-0.11,-0.14,0.63,0.01,0.03,1.01,
2.415,-0.16,-0.19,0.52,0.01,0.03,1.01,
2.418,-0.16,-0.19,0.52,0.01,0.03,1.01,
2.422,-0.16,-0.19,0.52,0.01,0.04,1.00,
2.422,-0.19,-0.21,0.41,0.01,0.04,1.00,
