
time,ax,ay,az,gFx,gFy,gFz,
0.002,0.01,-0.03,0.00,-0.05,0.15,0.97,
0.002,0.00,0.01,-0.03,-0.05,0.15,0.97,
0.003,0.00,0.01,-0.03,-0.05,0.15,0.97,
0.005,0.00,0.01,-0.03,-0.05,0.15,0.97,
0.005,0.02,0.06,-0.03,-0.05,0.15,0.97,
0.007,0.02,0.06,-0.03,-0.05,0.15,0.96,
0.009,0.02,0.06,-0.03,-0.04,0.15,0.96,
0.009,0.06,0.09,-0.04,-0.04,0.15,0.96,
0.012,0.06,0.09,-0.04,-0.04,0.16,0.96,
0.015,0.09,0.11,-0.06,-0.04,0.16,0.96,
0.016,0.09,0.11,-0.06,-0.04,0.16,0.96,
0.017,0.09,0.11,-0.06,-0.03,0.16,0.97,
0.019,0.09,0.11,-0.06,-0.03,0.16,0.97,
0.02,0.15,0.13,-0.06,-0.03,0.16,0.97,
0.022,0.15,0.13,-0.06,-0.03,0.16,0.97,
0.024,0.15,0.13,-0.06,-0.03,0.16,0.97,
0.024,0.21,0.13,-0.04,-0.03,0.16,0.97,
0.027,0.21,0.13,-0.04,-0.04,0.16,0.96,
0.029,0.21,0.13,-0.04,-0.04,0.16,0.96,
0.029,0.20,0.12,-0.04,-0.04,0.16,0.96,
0.031,0.20,0.12,-0.04,-0.04,0.16,0.97,
0.034,0.20,0.12,-0.04,-0.04,0.15,0.97,
0.035,0.17,0.13,-0.06,-0.04,0.15,0.97,
0.036,0.17,0.13,-0.06,-0.04,0.15,0.97,
0.039,0.17,0.13,-0.06,-0.04,0.15,0.97,
0.039,0.16,0.11,-0.05,-0.04,0.15,0.97,
0.041,0.16,0.11,-0.05,-0.04,0.14,0.96,
0.044,0.16,0.11,-0.05,-0.04,0.14,0.96,
0.044,0.15,0.06,-0.04,-0.04,0.14,0.96,
0.047,0.15,0.06,-0.04,-0.04,0.14,0.96,
0.049,0.15,0.06,-0.04,-0.04,0.14,0.96,
0.049,0.13,0.00,-0.06,-0.04,0.14,0.96,
0.051,0.13,0.00,-0.06,-0.05,0.14,0.96,
0.054,0.13,0.00,-0.06,-0.05,0.14,0.96,
0.054,0.10,-0.05,-0.06,-0.05,0.14,0.96,
0.056,0.10,-0.05,-0.06,-0.05,0.14,0.96,
0.058,0.10,-0.05,-0.06,-0.05,0.13,0.96,
0.059,0.06,-0.06,-0.07,-0.05,0.13,0.96,
0.061,0.06,-0.06,-0.07,-0.06,0.13,0.96,
0.064,0.06,-0.06,-0.07,-0.06,0.13,0.96,
0.064,0.02,-0.08,-0.09,-0.06,0.13,0.96,
0.066,0.02,-0.08,-0.09,-0.06,0.13,0.96,
0.068,0.02,-0.08,-0.09,-0.06,0.13,0.96,
0.069,-0.03,-0.10,-0.08,-0.06,0.13,0.96,
0.07,-0.03,-0.10,-0.08,-0.06,0.13,0.96,
0.073,-0.03,-0.10,-0.08,-0.07,0.13,0.96,
0.074,-0.08,-0.10,-0.09,-0.07,0.13,0.96,
0.076,-0.08,-0.10,-0.09,-0.07,0.13,0.96,
0.078,-0.08,-0.10,-0.09,-0.06,0.13,0.96,
0.078,-0.11,-0.09,-0.10,-0.06,0.13,0.96,
0.081,-0.11,-0.09,-0.10,-0.06,0.13,0.97,
0.083,-0.11,-0.09,-0.10,-0.06,0.13,0.97,
0.083,-0.11,-0.09,-0.07,-0.06,0.13,0.97,
0.085,-0.11,-0.09,-0.07,-0.06,0.14,0.97,
0.088,-0.11,-0.09,-0.07,-0.07,0.14,0.97,
0.088,-0.10,-0.07,-0.03,-0.07,0.14,0.97,
0.09,-0.10,-0.07,-0.03,-0.06,0.14,0.97,
0.093,-0.10,-0.07,-0.03,-0.06,0.14,0.97,
0.093,-0.11,-0.04,-0.01,-0.06,0.14,0.97,
0.095,-0.11,-0.04,-0.01,-0.06,0.14,0.97,
0.1,-0.11,-0.04,-0.01,-0.06,0.14,0.97,
0.1,-0.09,-0.05,-0.01,-0.06,0.14,0.97,
0.1,-0.09,-0.05,-0.01,-0.06,0.14,0.97,
0.102,-0.09,-0.05,-0.01,-0.05,0.14,0.98,
0.103,-0.04,-0.02,0.01,-0.05,0.14,0.98,
0.105,-0.04,-0.02,0.01,-0.05,0.15,0.97,
0.108,-0.04,-0.02,0.01,-0.05,0.15,0.97,
0.108,-0.02,0.01,0.05,-0.05,0.15,0.97,
0.11,-0.02,0.01,0.05,-0.05,0.14,0.97,
0.112,-0.02,0.01,0.05,-0.05,0.14,0.97,
0.113,-0.00,0.04,0.04,-0.05,0.14,0.97,
0.115,-0.00,0.04,0.04,-0.05,0.15,0.97,
0.117,-0.00,0.04,0.04,-0.05,0.14,0.97,
0.117,-0.01,0.02,0.03,-0.05,0.14,0.97,
0.119,-0.01,0.02,0.03,-0.05,0.15,0.97,
0.122,-0.01,0.02,0.03,-0.05,0.14,0.97,
0.122,0.00,0.03,0.02,-0.05,0.14,0.97,
0.124,0.00,0.03,0.02,-0.05,0.14,0.97,
0.127,0.00,0.03,0.02,-0.05,0.14,0.97,
0.127,0.01,0.03,-0.01,-0.05,0.14,0.97,
0.13,0.01,0.03,-0.01,-0.05,0.15,0.97,
0.132,0.01,0.03,-0.01,-0.05,0.15,0.97,
0.132,0.01,0.02,-0.03,-0.05,0.15,0.97,
0.134,0.01,0.02,-0.03,-0.05,0.15,0.97,
0.137,0.01,0.02,-0.03,-0.05,0.15,0.96,
0.137,0.02,0.04,-0.03,-0.05,0.15,0.96,
0.139,0.02,0.04,-0.03,-0.05,0.15,0.96,
0.143,0.02,0.04,-0.03,-0.05,0.15,0.96,
0.144,0.05,0.03,-0.06,-0.05,0.15,0.96,
0.144,0.05,0.03,-0.06,-0.05,0.14,0.96,
0.147,0.05,0.03,-0.06,-0.05,0.14,0.97,
0.147,0.04,0.04,-0.06,-0.05,0.14,0.97,
0.149,0.04,0.04,-0.06,-0.05,0.14,0.96,
0.152,0.04,0.02,-0.05,-0.05,0.14,0.96,
0.152,0.04,0.02,-0.05,-0.05,0.14,0.96,
0.154,0.04,0.02,-0.05,-0.05,0.14,0.96,
0.156,0.04,0.02,-0.05,-0.05,0.14,0.97,
0.157,0.04,0.02,-0.05,-0.05,0.14,0.97,
0.159,0.04,0.02,-0.05,-0.05,0.14,0.96,
0.161,0.04,0.02,-0.05,-0.05,0.14,0.97,
0.162,0.02,0.02,-0.05,-0.05,0.14,0.97,
0.164,0.02,0.02,-0.05,-0.05,0.14,0.97,
0.166,0.02,0.02,-0.05,-0.05,0.15,0.97,
0.167,0.04,0.02,-0.04,-0.05,0.15,0.97,
0.169,0.04,0.02,-0.04,-0.05,0.15,0.97,
0.171,0.04,0.02,-0.04,-0.05,0.15,0.97,
0.171,0.03,0.03,-0.00,-0.05,0.15,0.97,
0.173,0.03,0.03,-0.00,-0.05,0.15,0.97,
0.176,0.03,0.03,-0.00,-0.05,0.15,0.97,
0.176,0.02,0.05,-0.01,-0.05,0.15,0.97,
0.178,0.02,0.05,-0.01,-0.05,0.15,0.97,
0.183,0.02,0.05,-0.01,-0.05,0.15,0.97,
0.184,0.01,0.07,0.00,-0.05,0.15,0.97,
0.184,0.01,0.07,0.00,-0.05,0.15,0.97,
0.186,0.01,0.07,0.00,-0.05,0.15,0.97,
0.186,0.01,0.07,0.00,-0.05,0.15,0.97,
0.188,0.01,0.07,0.00,-0.05,0.14,0.97,
0.191,0.01,0.07,0.00,-0.05,0.14,0.97,
0.191,0.03,0.05,-0.01,-0.05,0.14,0.97,
0.193,0.03,0.05,-0.01,-0.05,0.14,0.97,
0.195,0.03,0.05,-0.01,-0.05,0.14,0.97,
0.196,0.05,0.00,-0.00,-0.05,0.14,0.97,
0.198,0.05,0.00,-0.00,-0.05,0.14,0.97,
0.201,0.05,0.00,-0.00,-0.05,0.14,0.96,
0.201,0.04,0.00,-0.02,-0.05,0.14,0.96,
0.203,0.04,0.00,-0.02,-0.05,0.14,0.96,
0.205,0.04,0.00,-0.02,-0.05,0.14,0.96,
0.206,-0.00,0.02,-0.05,-0.05,0.14,0.96,
0.208,-0.00,0.02,-0.05,-0.05,0.14,0.96,
0.21,-0.00,0.02,-0.05,-0.05,0.14,0.97,
0.21,0.01,0.01,-0.06,-0.05,0.14,0.97,
0.214,0.01,0.01,-0.06,-0.05,0.14,0.97,
0.215,0.01,0.01,-0.06,-0.05,0.14,0.97,
0.216,-0.00,-0.00,-0.05,-0.05,0.14,0.97,
0.218,-0.00,-0.00,-0.05,-0.05,0.14,0.97,
0.22,-0.00,-0.00,-0.05,-0.05,0.14,0.97,
0.22,0.01,-0.00,-0.04,-0.05,0.14,0.97,
0.222,0.01,-0.00,-0.04,-0.05,0.14,0.97,
0.225,0.01,-0.00,-0.04,-0.05,0.14,0.97,
0.225,0.02,-0.02,-0.04,-0.05,0.14,0.97,
0.227,0.02,-0.02,-0.04,-0.05,0.14,0.97,
0.231,0.02,-0.02,-0.04,-0.05,0.13,0.97,
0.231,0.00,-0.03,-0.00,-0.05,0.13,0.97,
0.232,0.00,-0.03,-0.00,-0.06,0.13,0.98,
0.235,0.00,-0.03,-0.00,-0.06,0.13,0.98,
0.235,-0.00,-0.05,0.03,-0.06,0.13,0.98,
0.237,-0.00,-0.05,0.03,-0.06,0.13,0.98,
0.24,-0.00,-0.05,0.03,-0.06,0.13,0.98,
0.24,-0.04,-0.06,0.06,-0.06,0.13,0.98,
0.242,-0.04,-0.06,0.06,-0.06,0.13,0.98,
0.244,-0.04,-0.06,0.06,-0.05,0.13,0.98,
0.245,-0.06,-0.07,0.07,-0.05,0.13,0.98,
0.247,-0.06,-0.07,0.07,-0.06,0.13,0.98,
0.25,-0.06,-0.07,0.07,-0.06,0.12,0.98,
0.25,-0.04,-0.11,0.10,-0.06,0.12,0.98,
0.252,-0.04,-0.11,0.10,-0.05,0.12,0.98,
0.254,-0.04,-0.11,0.10,-0.05,0.12,0.98,
0.255,-0.04,-0.14,0.12,-0.05,0.12,0.98,
0.257,-0.04,-0.14,0.12,-0.05,0.12,0.98,
0.259,-0.04,-0.14,0.12,-0.05,0.12,0.97,
0.259,-0.02,-0.17,0.08,-0.05,0.12,0.97,
0.262,-0.02,-0.17,0.08,-0.05,0.12,0.97,
0.264,-0.02,-0.17,0.08,-0.06,0.12,0.97,
0.265,-0.01,-0.19,0.05,-0.06,0.12,0.97,
0.267,-0.01,-0.19,0.05,-0.06,0.12,0.97,
0.269,-0.01,-0.19,0.05,-0.06,0.12,0.97,
0.269,-0.05,-0.21,0.03,-0.06,0.12,0.97,
0.271,-0.05,-0.21,0.03,-0.07,0.12,0.97,
0.274,-0.05,-0.21,0.03,-0.07,0.12,0.97,
0.274,-0.11,-0.21,0.01,-0.07,0.12,0.97,
0.276,-0.11,-0.21,0.01,-0.07,0.12,0.97,
0.279,-0.11,-0.21,0.01,-0.07,0.13,0.97,
0.279,-0.15,-0.18,-0.01,-0.07,0.13,0.97,
0.287,-0.15,-0.18,-0.01,-0.07,0.13,0.97,
0.287,-0.15,-0.18,-0.01,-0.07,0.13,0.96,
0.288,-0.20,-0.14,-0.04,-0.07,0.13,0.96,
0.288,-0.20,-0.14,-0.04,-0.07,0.13,0.97,
0.289,-0.20,-0.14,-0.04,-0.07,0.13,0.97,
0.289,-0.21,-0.11,-0.05,-0.07,0.13,0.97,
0.291,-0.21,-0.11,-0.05,-0.07,0.13,0.97,
0.293,-0.21,-0.11,-0.05,-0.07,0.13,0.97,
0.294,-0.21,-0.11,-0.04,-0.07,0.13,0.97,
0.297,-0.21,-0.11,-0.04,-0.07,0.13,0.97,
0.299,-0.21,-0.11,-0.04,-0.07,0.13,0.97,
0.299,-0.18,-0.09,-0.03,-0.07,0.13,0.97,
0.301,-0.18,-0.09,-0.03,-0.07,0.14,0.97,
0.303,-0.18,-0.09,-0.03,-0.07,0.14,0.97,
0.304,-0.15,-0.07,-0.01,-0.07,0.14,0.97,
0.306,-0.15,-0.07,-0.01,-0.07,0.14,0.97,
0.308,-0.15,-0.07,-0.01,-0.06,0.14,0.97,
0.308,-0.16,-0.01,0.02,-0.06,0.14,0.97,
0.31,-0.16,-0.01,0.02,-0.06,0.14,0.98,
0.313,-0.16,-0.01,0.02,-0.05,0.14,0.98,
0.313,-0.11,0.04,0.04,-0.05,0.14,0.98,
0.315,-0.11,0.04,0.04,-0.05,0.14,0.98,
0.318,-0.11,0.04,0.04,-0.05,0.15,0.98,
0.318,-0.03,0.06,0.07,-0.05,0.15,0.98,
0.321,-0.03,0.06,0.07,-0.04,0.14,0.98,
0.323,-0.03,0.06,0.07,-0.04,0.14,0.98,
0.323,0.05,0.07,0.10,-0.04,0.14,0.98,
0.325,0.05,0.07,0.10,-0.04,0.15,0.99,
0.328,0.05,0.07,0.10,-0.04,0.15,0.99,
0.328,0.13,0.06,0.13,-0.04,0.15,0.99,
0.33,0.13,0.06,0.13,-0.03,0.14,0.99,
0.333,0.13,0.06,0.13,-0.03,0.14,0.99,
0.333,0.15,0.07,0.16,-0.03,0.14,0.99,
0.335,0.15,0.07,0.16,-0.03,0.14,0.99,
0.338,0.15,0.07,0.16,-0.03,0.14,0.99,
0.338,0.18,0.05,0.17,-0.03,0.14,0.99,
0.34,0.18,0.05,0.17,-0.03,0.14,0.99,
0.342,0.18,0.05,0.17,-0.03,0.14,0.98,
0.343,0.20,0.04,0.17,-0.03,0.14,0.98,
0.345,0.20,0.04,0.17,-0.03,0.14,0.98,
0.347,0.20,0.04,0.17,-0.03,0.13,0.98,
0.348,0.21,-0.01,0.14,-0.03,0.13,0.98,
0.35,0.21,-0.01,0.14,-0.03,0.13,0.98,
0.352,0.21,-0.01,0.14,-0.03,0.14,0.98,
0.353,0.19,-0.04,0.11,-0.03,0.14,0.98,
0.355,0.19,-0.04,0.11,-0.04,0.14,0.97,
0.357,0.19,-0.04,0.11,-0.04,0.14,0.97,
0.357,0.17,-0.04,0.06,-0.04,0.14,0.97,
0.359,0.17,-0.04,0.06,-0.04,0.13,0.97,
0.362,0.17,-0.04,0.06,-0.04,0.13,0.96,
0.362,0.14,-0.04,0.00,-0.04,0.13,0.96,
0.364,0.14,-0.04,0.00,-0.05,0.13,0.96,
0.367,0.14,-0.04,0.00,-0.05,0.13,0.96,
0.367,0.09,-0.06,-0.07,-0.05,0.13,0.96,
0.369,0.09,-0.06,-0.07,-0.05,0.13,0.96,
0.372,0.09,-0.06,-0.07,-0.05,0.13,0.96,
0.372,0.04,-0.08,-0.11,-0.05,0.13,0.96,
0.374,0.04,-0.08,-0.11,-0.06,0.13,0.95,
0.377,0.04,-0.08,-0.11,-0.06,0.13,0.95,
0.377,-0.02,-0.10,-0.14,-0.06,0.13,0.95,
0.383,-0.02,-0.10,-0.14,-0.06,0.13,0.95,
0.383,-0.02,-0.10,-0.14,-0.06,0.12,0.95,
0.383,-0.06,-0.09,-0.18,-0.06,0.12,0.95,
0.384,-0.06,-0.09,-0.18,-0.07,0.12,0.95,
0.387,-0.06,-0.09,-0.18,-0.07,0.12,0.95,
0.387,-0.10,-0.13,-0.19,-0.07,0.12,0.95,
0.389,-0.10,-0.13,-0.19,-0.07,0.12,0.95,
0.392,-0.10,-0.13,-0.19,-0.07,0.12,0.95,
0.392,-0.14,-0.15,-0.21,-0.07,0.12,0.95,
0.394,-0.14,-0.15,-0.21,-0.07,0.12,0.95,
0.397,-0.14,-0.15,-0.21,-0.07,0.12,0.95,
0.397,-0.17,-0.18,-0.20,-0.07,0.12,0.95,
0.399,-0.17,-0.18,-0.20,-0.07,0.12,0.95,
0.401,-0.17,-0.18,-0.20,-0.07,0.12,0.96,
0.401,-0.19,-0.19,-0.18,-0.07,0.12,0.96,
0.403,-0.19,-0.19,-0.18,-0.07,0.12,0.96,
0.406,-0.19,-0.19,-0.18,-0.07,0.12,0.96,
0.407,-0.21,-0.19,-0.15,-0.07,0.12,0.96,
0.408,-0.21,-0.19,-0.15,-0.07,0.12,0.96,
0.411,-0.21,-0.19,-0.15,-0.07,0.12,0.96,
0.411,-0.20,-0.21,-0.11,-0.07,0.12,0.96,
0.413,-0.20,-0.21,-0.11,-0.07,0.12,0.96,
0.416,-0.20,-0.21,-0.11,-0.07,0.12,0.96,
0.416,-0.19,-0.21,-0.09,-0.07,0.12,0.96,
0.418,-0.19,-0.21,-0.09,-0.07,0.12,0.97,
0.421,-0.19,-0.21,-0.09,-0.07,0.12,0.97,
0.421,-0.17,-0.20,-0.07,-0.07,0.12,0.97,
0.423,-0.17,-0.20,-0.07,-0.07,0.12,0.97,
0.426,-0.17,-0.20,-0.07,-0.07,0.12,0.97,
0.426,-0.19,-0.18,-0.03,-0.07,0.12,0.97,
0.428,-0.19,-0.18,-0.03,-0.07,0.12,0.97,
0.431,-0.19,-0.18,-0.03,-0.06,0.12,0.97,
0.431,-0.20,-0.17,-0.01,-0.06,0.12,0.97,
0.433,-0.20,-0.17,-0.01,-0.06,0.12,0.97,
0.436,-0.20,-0.17,-0.01,-0.06,0.11,0.98,
0.436,-0.15,-0.19,0.03,-0.06,0.11,0.98,
0.438,-0.15,-0.19,0.03,-0.06,0.11,0.98,
0.441,-0.15,-0.19,0.03,-0.05,0.11,0.98,
0.441,-0.11,-0.21,0.06,-0.05,0.11,0.98,
0.443,-0.11,-0.21,0.06,-0.05,0.11,0.98,
0.446,-0.11,-0.21,0.06,-0.05,0.11,0.99,
0.446,-0.07,-0.25,0.11,-0.05,0.11,0.99,
0.448,-0.07,-0.25,0.11,-0.04,0.11,0.99,
0.45,-0.07,-0.25,0.11,-0.04,0.11,0.99,
0.451,0.00,-0.27,0.15,-0.04,0.11,0.99,
0.453,0.00,-0.27,0.15,-0.04,0.10,0.99,
0.455,0.00,-0.27,0.15,-0.04,0.10,1.00,
0.455,0.07,-0.30,0.17,-0.04,0.10,1.00,
0.458,0.07,-0.30,0.17,-0.03,0.10,1.00,
0.46,0.07,-0.30,0.17,-0.03,0.10,1.00,
0.46,0.08,-0.33,0.23,-0.03,0.10,1.00,
0.463,0.08,-0.33,0.23,-0.03,0.10,1.00,
0.465,0.08,-0.33,0.23,-0.03,0.10,1.01,
0.466,0.11,-0.37,0.28,-0.03,0.10,1.01,
0.467,0.11,-0.37,0.28,-0.03,0.10,1.01,
0.47,0.11,-0.37,0.28,-0.03,0.09,1.01,
0.47,0.10,-0.39,0.33,-0.03,0.09,1.01,
0.472,0.10,-0.39,0.33,-0.03,0.09,1.01,
0.475,0.10,-0.39,0.33,-0.03,0.09,1.01,
0.475,0.11,-0.43,0.36,-0.03,0.09,1.01,
0.477,0.11,-0.43,0.36,-0.03,0.08,1.01,
0.48,0.11,-0.43,0.36,-0.03,0.08,1.01,
0.48,0.10,-0.48,0.38,-0.03,0.08,1.01,
0.482,0.10,-0.48,0.38,-0.03,0.08,1.01,
0.485,0.10,-0.48,0.38,-0.03,0.08,1.01,
0.485,0.08,-0.54,0.38,-0.03,0.08,1.01,
0.487,0.08,-0.54,0.38,-0.03,0.08,1.01,
0.489,0.08,-0.54,0.38,-0.03,0.07,1.01,
0.489,0.09,-0.57,0.36,-0.03,0.07,1.01,
0.492,0.09,-0.57,0.36,-0.03,0.07,1.00,
0.494,0.09,-0.57,0.36,-0.03,0.07,1.00,
0.496,0.08,-0.63,0.33,-0.03,0.07,1.00,
0.497,0.08,-0.63,0.33,-0.04,0.07,1.00,
0.501,0.08,-0.63,0.33,-0.04,0.07,0.99,
0.501,0.05,-0.65,0.29,-0.04,0.07,0.99,
0.502,0.05,-0.65,0.29,-0.04,0.08,0.99,
0.504,0.00,-0.64,0.22,-0.04,0.08,0.99,
0.504,0.00,-0.64,0.22,-0.04,0.08,0.98,
0.506,0.00,-0.64,0.22,-0.04,0.08,0.98,
0.509,0.00,-0.64,0.22,-0.04,0.08,0.98,
0.509,-0.03,-0.61,0.14,-0.04,0.08,0.98,
0.511,-0.03,-0.61,0.14,-0.04,0.08,0.97,
0.514,-0.03,-0.61,0.14,-0.03,0.08,0.97,
0.514,-0.05,-0.61,0.07,-0.03,0.08,0.97,
0.516,-0.05,-0.61,0.07,-0.03,0.08,0.97,
0.519,-0.05,-0.61,0.07,-0.02,0.08,0.96,
0.519,0.01,-0.61,-0.01,-0.02,0.08,0.96,
0.521,0.01,-0.61,-0.01,-0.02,0.08,0.96,
0.523,0.01,-0.61,-0.01,-0.01,0.08,0.95,
0.524,0.10,-0.61,-0.08,-0.01,0.08,0.95,
0.526,0.10,-0.61,-0.08,-0.01,0.08,0.95,
0.529,0.10,-0.61,-0.08,-0.01,0.08,0.95,
0.53,0.21,-0.62,-0.16,-0.01,0.08,0.95,
0.531,0.21,-0.62,-0.16,0.00,0.08,0.95,
0.534,0.21,-0.62,-0.16,0.01,0.08,0.94,
0.534,0.29,-0.60,-0.22,0.01,0.08,0.94,
0.536,0.29,-0.60,-0.22,0.01,0.08,0.94,
0.538,0.29,-0.60,-0.22,0.02,0.08,0.94,
0.539,0.40,-0.59,-0.25,0.02,0.08,0.94,
0.541,0.40,-0.59,-0.25,0.02,0.08,0.94,
0.543,0.40,-0.59,-0.25,0.02,0.08,0.94,
0.544,0.49,-0.57,-0.27,0.02,0.08,0.94,
0.546,0.49,-0.57,-0.27,0.03,0.08,0.94,
0.548,0.49,-0.57,-0.27,0.03,0.08,0.94,
0.549,0.56,-0.56,-0.29,0.03,0.08,0.94,
0.551,0.56,-0.56,-0.29,0.03,0.08,0.94,
0.553,0.56,-0.56,-0.29,0.04,0.07,0.95,
0.553,0.63,-0.55,-0.27,0.04,0.07,0.95,
0.555,0.63,-0.55,-0.27,0.04,0.07,0.95,
0.558,0.63,-0.55,-0.27,0.05,0.07,0.95,
0.558,0.68,-0.62,-0.25,0.05,0.07,0.95,
0.56,0.68,-0.62,-0.25,0.05,0.06,0.95,
0.563,0.68,-0.62,-0.25,0.06,0.06,0.95,
0.564,0.78,-0.70,-0.24,0.06,0.06,0.95,
0.565,0.78,-0.70,-0.24,0.06,0.05,0.95,
0.569,0.84,-0.78,-0.22,0.06,0.05,0.95,
0.569,0.84,-0.78,-0.22,0.05,0.05,0.95,
0.57,0.84,-0.78,-0.22,0.05,0.05,0.95,
0.573,0.84,-0.78,-0.22,0.04,0.05,0.95,
0.574,0.83,-0.84,-0.19,0.04,0.05,0.95,
0.575,0.83,-0.84,-0.19,0.04,0.05,0.95,
0.578,0.74,-0.87,-0.21,0.04,0.05,0.95,
0.578,0.74,-0.87,-0.21,0.03,0.04,0.95,
0.581,0.74,-0.87,-0.21,0.03,0.04,0.95,
0.583,0.74,-0.87,-0.21,0.02,0.04,0.95,
0.583,0.65,-0.92,-0.20,0.02,0.04,0.95,
0.585,0.65,-0.92,-0.20,0.01,0.04,0.94,
0.588,0.65,-0.92,-0.20,0.01,0.03,0.94,
0.588,0.50,-0.97,-0.20,0.01,0.03,0.94,
0.59,0.50,-0.97,-0.20,0.00,0.03,0.94,
0.592,0.50,-0.97,-0.20,-0.00,0.03,0.93,
0.593,0.38,-1.00,-0.27,-0.00,0.03,0.93,
0.595,0.38,-1.00,-0.27,-0.01,0.03,0.93,
0.597,0.38,-1.00,-0.27,-0.01,0.03,0.93,
0.598,0.27,-1.03,-0.32,-0.01,0.03,0.93,
0.6,0.27,-1.03,-0.32,-0.02,0.03,0.93,
0.602,0.27,-1.03,-0.32,-0.02,0.03,0.93,
0.603,0.19,-1.05,-0.34,-0.02,0.03,0.93,
0.604,0.19,-1.05,-0.34,-0.02,0.02,0.93,
0.607,0.19,-1.05,-0.34,-0.02,0.02,0.93,
0.607,0.11,-1.07,-0.38,-0.02,0.02,0.93,
0.609,0.11,-1.07,-0.38,-0.02,0.02,0.93,
0.618,0.11,-1.07,-0.38,-0.02,0.02,0.92,
0.619,0.08,-1.10,-0.40,-0.02,0.02,0.92,
0.619,0.08,-1.10,-0.40,-0.02,0.02,0.93,
0.619,0.07,-1.12,-0.41,-0.02,0.02,0.93,
0.619,0.07,-1.12,-0.41,-0.02,0.02,0.93,
0.619,0.07,-1.12,-0.41,-0.02,0.02,0.93,
0.622,0.07,-1.12,-0.41,-0.02,0.02,0.93,
0.622,0.06,-1.12,-0.38,-0.02,0.02,0.93,
0.624,0.06,-1.12,-0.38,-0.02,0.02,0.93,
0.627,0.11,-1.11,-0.34,-0.02,0.02,0.93,
0.627,0.11,-1.11,-0.34,-0.02,0.02,0.93,
0.629,0.11,-1.11,-0.34,-0.01,0.02,0.94,
0.632,0.11,-1.11,-0.34,-0.00,0.02,0.94,
0.632,0.15,-1.08,-0.32,-0.00,0.02,0.94,
0.634,0.15,-1.08,-0.32,0.00,0.03,0.94,
0.636,0.15,-1.08,-0.32,0.01,0.03,0.94,
0.636,0.24,-1.05,-0.27,0.01,0.03,0.94,
0.639,0.24,-1.05,-0.27,0.01,0.03,0.95,
0.641,0.24,-1.05,-0.27,0.01,0.03,0.95,
0.641,0.34,-1.00,-0.21,0.01,0.03,0.95,
0.643,0.34,-1.00,-0.21,0.02,0.04,0.95,
0.646,0.34,-1.00,-0.21,0.02,0.04,0.95,
0.647,0.42,-0.95,-0.16,0.02,0.04,0.95,
0.648,0.42,-0.95,-0.16,0.02,0.04,0.95,
0.651,0.42,-0.95,-0.16,0.02,0.04,0.94,
0.652,0.47,-0.89,-0.15,0.02,0.04,0.94,
0.654,0.47,-0.89,-0.15,0.01,0.05,0.94,
0.656,0.47,-0.89,-0.15,0.01,0.06,0.93,
0.656,0.48,-0.83,-0.20,0.01,0.06,0.93,
0.658,0.48,-0.83,-0.20,0.00,0.06,0.93,
0.661,0.48,-0.83,-0.20,-0.00,0.07,0.92,
0.661,0.42,-0.72,-0.28,-0.00,0.07,0.92,
0.663,0.42,-0.72,-0.28,-0.00,0.07,0.92,
0.666,0.42,-0.72,-0.28,-0.00,0.07,0.91,
0.666,0.33,-0.61,-0.38,-0.00,0.07,0.91,
0.668,0.33,-0.61,-0.38,0.00,0.07,0.91,
0.671,0.33,-0.61,-0.38,0.00,0.07,0.90,
0.671,0.31,-0.58,-0.49,0.00,0.07,0.90,
0.673,0.31,-0.58,-0.49,-0.00,0.07,0.89,
0.676,0.31,-0.58,-0.49,-0.00,0.07,0.89,
0.676,0.34,-0.58,-0.57,-0.00,0.07,0.89,
0.678,0.34,-0.58,-0.57,-0.01,0.07,0.88,
0.681,0.34,-0.58,-0.57,-0.01,0.07,0.87,
0.681,0.30,-0.58,-0.71,-0.01,0.07,0.87,
0.683,0.30,-0.58,-0.71,-0.01,0.08,0.87,
0.685,0.30,-0.58,-0.71,-0.01,0.08,0.86,
0.686,0.26,-0.52,-0.85,-0.01,0.08,0.86,
0.688,0.26,-0.52,-0.85,-0.01,0.08,0.86,
0.69,0.26,-0.52,-0.85,-0.01,0.09,0.86,
0.691,0.22,-0.46,-0.93,-0.01,0.09,0.86,
0.693,0.22,-0.46,-0.93,-0.01,0.09,0.86,
0.701,0.22,-0.46,-0.93,-0.01,0.09,0.86,
0.702,0.21,-0.40,-0.99,-0.01,0.09,0.86,
0.702,0.21,-0.40,-0.99,-0.00,0.09,0.87,
0.703,0.21,-0.40,-0.99,0.00,0.09,0.88,
0.703,0.22,-0.35,-0.95,0.00,0.09,0.88,
0.703,0.22,-0.35,-0.95,0.01,0.09,0.88,
0.705,0.22,-0.35,-0.95,0.01,0.10,0.89,
0.705,0.29,-0.34,-0.85,0.01,0.10,0.89,
0.707,0.29,-0.34,-0.85,0.01,0.10,0.90,
0.71,0.29,-0.34,-0.85,0.02,0.10,0.91,
0.71,0.36,-0.30,-0.71,0.02,0.10,0.91,
0.714,0.36,-0.30,-0.71,0.02,0.10,0.92,
0.715,0.36,-0.30,-0.71,0.03,0.09,0.93,
0.715,0.41,-0.28,-0.53,0.03,0.09,0.93,
0.717,0.41,-0.28,-0.53,0.04,0.09,0.95,
0.72,0.41,-0.28,-0.53,0.04,0.09,0.96,
0.72,0.49,-0.31,-0.29,0.04,0.09,0.96,
0.722,0.49,-0.31,-0.29,0.04,0.09,0.98,
0.724,0.49,-0.31,-0.29,0.04,0.09,0.99,
0.725,0.58,-0.33,-0.03,0.04,0.09,0.99,
0.727,0.58,-0.33,-0.03,0.04,0.09,1.00,
0.729,0.58,-0.33,-0.03,0.04,0.09,1.01,
0.73,0.58,-0.33,0.23,0.04,0.09,1.01,
0.732,0.58,-0.33,0.23,0.04,0.09,1.02,
0.734,0.58,-0.33,0.23,0.04,0.09,1.03,
0.735,0.55,-0.32,0.45,0.04,0.09,1.03,
0.737,0.55,-0.32,0.45,0.03,0.09,1.03,
0.739,0.55,-0.32,0.45,0.03,0.09,1.04,
0.739,0.48,-0.34,0.63,0.03,0.09,1.04,
0.741,0.48,-0.34,0.63,0.02,0.09,1.04,
0.744,0.48,-0.34,0.63,0.02,0.09,1.03,
0.744,0.38,-0.35,0.72,0.02,0.09,1.03,
0.746,0.38,-0.35,0.72,0.01,0.09,1.03,
0.749,0.38,-0.35,0.72,0.00,0.09,1.03,
0.75,0.26,-0.34,0.74,0.00,0.09,1.03,
0.751,0.26,-0.34,0.74,-0.00,0.08,1.02,
0.754,0.26,-0.34,0.74,-0.00,0.08,1.02,
0.754,0.11,-0.36,0.69,-0.00,0.08,1.02,
0.756,0.11,-0.36,0.69,-0.01,0.08,1.01,
0.759,0.11,-0.36,0.69,-0.01,0.07,1.00,
0.759,0.03,-0.42,0.59,-0.01,0.07,1.00,
0.761,0.03,-0.42,0.59,-0.01,0.07,0.99,
0.764,0.03,-0.42,0.59,-0.01,0.07,0.98,
0.765,-0.02,-0.49,0.43,-0.01,0.07,0.98,
0.767,-0.02,-0.49,0.43,-0.02,0.07,0.97,
0.769,-0.02,-0.49,0.43,-0.02,0.07,0.96,
0.769,-0.04,-0.55,0.23,-0.02,0.07,0.96,
0.771,-0.04,-0.55,0.23,-0.02,0.07,0.94,
0.774,-0.04,-0.55,0.23,-0.03,0.07,0.93,
0.774,-0.13,-0.56,0.00,-0.03,0.07,0.93,
0.776,-0.13,-0.56,0.00,-0.03,0.07,0.92,
0.779,-0.13,-0.56,0.00,-0.03,0.07,0.92,
0.78,-0.18,-0.54,-0.21,-0.03,0.07,0.92,
0.781,-0.18,-0.54,-0.21,-0.03,0.07,0.91,
0.784,-0.18,-0.54,-0.21,-0.03,0.07,0.91,
0.785,-0.23,-0.54,-0.39,-0.03,0.07,0.91,
0.786,-0.23,-0.54,-0.39,-0.03,0.08,0.91,
0.788,-0.23,-0.54,-0.39,-0.03,0.08,0.90,
0.789,-0.24,-0.52,-0.48,-0.03,0.08,0.90,
0.791,-0.24,-0.52,-0.48,-0.02,0.08,0.90,
0.794,-0.24,-0.52,-0.48,-0.02,0.09,0.90,
0.794,-0.22,-0.46,-0.52,-0.02,0.09,0.90,
0.796,-0.22,-0.46,-0.52,-0.01,0.09,0.90,
0.798,-0.22,-0.46,-0.52,-0.00,0.09,0.90,
0.799,-0.14,-0.38,-0.55,-0.00,0.09,0.90,
0.801,-0.14,-0.38,-0.55,0.01,0.10,0.90,
0.803,-0.14,-0.38,-0.55,0.02,0.10,0.90,
0.803,0.00,-0.31,-0.57,0.02,0.10,0.90,
0.805,0.00,-0.31,-0.57,0.03,0.10,0.91,
0.808,0.00,-0.31,-0.57,0.03,0.11,0.91,
0.808,0.18,-0.25,-0.53,0.03,0.11,0.91,
0.81,0.18,-0.25,-0.53,0.04,0.12,0.91,
0.818,0.18,-0.25,-0.53,0.03,0.13,0.91,
0.818,0.34,-0.14,-0.51,0.03,0.13,0.91,
0.819,0.34,-0.14,-0.51,0.03,0.14,0.91,
0.819,0.34,-0.14,-0.51,0.03,0.15,0.91,
0.819,0.37,0.06,-0.50,0.03,0.15,0.91,
0.82,0.37,0.06,-0.50,0.03,0.15,0.91,
0.823,0.37,0.06,-0.50,0.04,0.16,0.92,
0.823,0.36,0.24,-0.46,0.04,0.16,0.92,
0.825,0.36,0.24,-0.46,0.04,0.16,0.92,
0.827,0.36,0.24,-0.46,0.04,0.16,0.92,
0.828,0.36,0.32,-0.41,0.04,0.16,0.92,
0.831,0.36,0.32,-0.41,0.04,0.16,0.92,
0.832,0.36,0.32,-0.41,0.05,0.16,0.92,
0.832,0.40,0.37,-0.37,0.05,0.16,0.92,
0.835,0.40,0.37,-0.37,0.05,0.16,0.92,
0.837,0.40,0.37,-0.37,0.05,0.16,0.92,
0.837,0.44,0.38,-0.35,0.05,0.16,0.92,
0.839,0.44,0.38,-0.35,0.06,0.15,0.92,
0.842,0.47,0.35,-0.35,0.06,0.15,0.92,
0.842,0.47,0.35,-0.35,0.06,0.15,0.92,
0.844,0.47,0.35,-0.35,0.07,0.15,0.92,
0.847,0.47,0.35,-0.35,0.07,0.15,0.92,
0.848,0.57,0.29,-0.34,0.07,0.15,0.92,
0.849,0.57,0.29,-0.34,0.07,0.15,0.92,
0.852,0.61,0.25,-0.36,0.07,0.15,0.92,
0.853,0.61,0.25,-0.36,0.06,0.14,0.92,
0.854,0.61,0.25,-0.36,0.06,0.15,0.92,
0.857,0.61,0.25,-0.36,0.06,0.15,0.92,
0.857,0.57,0.21,-0.37,0.06,0.15,0.92,
0.859,0.57,0.21,-0.37,0.06,0.15,0.92,
0.862,0.57,0.21,-0.37,0.05,0.14,0.92,
0.862,0.50,0.21,-0.37,0.05,0.14,0.92,
0.864,0.50,0.21,-0.37,0.05,0.14,0.92,
0.867,0.50,0.21,-0.37,0.05,0.14,0.92,
0.867,0.42,0.20,-0.36,0.05,0.14,0.92,
0.869,0.42,0.20,-0.36,0.05,0.14,0.93,
0.871,0.42,0.20,-0.36,0.04,0.14,0.93,
0.872,0.35,0.17,-0.31,0.04,0.14,0.93,
0.874,0.35,0.17,-0.31,0.03,0.14,0.93,
0.876,0.35,0.17,-0.31,0.03,0.15,0.94,
0.877,0.26,0.13,-0.26,0.03,0.15,0.94,
0.879,0.26,0.13,-0.26,0.02,0.15,0.94,
0.881,0.26,0.13,-0.26,0.01,0.15,0.95,
0.882,0.07,0.17,-0.17,0.01,0.15,0.95,
0.884,0.07,0.17,-0.17,0.01,0.15,0.95,
0.886,0.07,0.17,-0.17,0.01,0.16,0.95,
0.887,-0.09,0.23,-0.09,0.01,0.16,0.95,
0.888,-0.09,0.23,-0.09,0.00,0.16,0.95,
0.891,-0.09,0.23,-0.09,0.01,0.16,0.95,
0.891,-0.21,0.29,-0.05,0.01,0.16,0.95,
0.893,-0.21,0.29,-0.05,0.00,0.16,0.95,
0.896,-0.25,0.35,-0.04,0.00,0.16,0.95,
0.897,-0.25,0.35,-0.04,0.00,0.16,0.95,
0.898,-0.25,0.35,-0.04,0.01,0.16,0.95,
0.901,-0.25,0.35,-0.04,0.02,0.15,0.95,
0.901,-0.27,0.36,-0.02,0.02,0.15,0.95,
0.903,-0.27,0.36,-0.02,0.02,0.15,0.95,
0.906,-0.27,0.36,-0.02,0.04,0.14,0.95,
0.906,-0.17,0.31,-0.01,0.04,0.14,0.95,
0.908,-0.17,0.31,-0.01,0.04,0.14,0.95,
0.911,-0.17,0.31,-0.01,0.04,0.14,0.95,
0.911,-0.03,0.22,-0.01,0.04,0.14,0.95,
0.918,-0.03,0.22,-0.01,0.05,0.14,0.94,
0.918,-0.03,0.22,-0.01,0.05,0.13,0.94,
0.919,0.07,0.17,-0.04,0.05,0.13,0.94,
0.919,0.07,0.17,-0.04,0.05,0.13,0.94,
0.921,0.13,0.13,-0.09,0.05,0.13,0.94,
0.921,0.13,0.13,-0.09,0.05,0.13,0.94,
0.923,0.13,0.13,-0.09,0.05,0.13,0.93,
0.925,0.13,0.13,-0.09,0.05,0.13,0.93,
0.926,0.16,0.11,-0.16,0.05,0.13,0.93,
0.928,0.16,0.11,-0.16,0.05,0.14,0.93,
0.931,0.16,0.11,-0.16,0.04,0.14,0.93,
0.931,0.15,0.13,-0.22,0.04,0.14,0.93,
0.933,0.15,0.13,-0.22,0.04,0.14,0.92,
0.935,0.15,0.13,-0.22,0.05,0.14,0.92,
0.935,0.12,0.18,-0.26,0.05,0.14,0.92,
0.938,0.12,0.18,-0.26,0.05,0.15,0.92,
0.94,0.12,0.18,-0.26,0.05,0.15,0.92,
0.94,0.13,0.23,-0.30,0.05,0.15,0.92,
0.942,0.13,0.23,-0.30,0.05,0.15,0.92,
0.946,0.13,0.23,-0.30,0.05,0.15,0.92,
0.946,0.14,0.31,-0.31,0.05,0.15,0.92,
0.948,0.14,0.31,-0.31,0.05,0.16,0.92,
0.95,0.14,0.31,-0.31,0.05,0.16,0.93,
0.951,0.16,0.36,-0.32,0.05,0.16,0.93,
0.952,0.16,0.36,-0.32,0.05,0.16,0.93,
0.955,0.16,0.36,-0.32,0.04,0.16,0.93,
0.955,0.16,0.42,-0.29,0.04,0.16,0.93,
0.957,0.16,0.42,-0.29,0.04,0.17,0.94,
0.96,0.16,0.42,-0.29,0.03,0.17,0.94,
0.96,0.10,0.48,-0.21,0.03,0.17,0.94,
0.962,0.10,0.48,-0.21,0.03,0.18,0.95,
0.965,0.10,0.48,-0.21,0.02,0.18,0.95,
0.965,0.01,0.58,-0.14,0.02,0.18,0.95,
0.967,0.01,0.58,-0.14,0.01,0.18,0.95,
0.969,0.01,0.58,-0.14,0.01,0.19,0.96,
0.969,-0.12,0.69,-0.06,0.01,0.19,0.96,
0.972,-0.12,0.69,-0.06,0.00,0.19,0.96,
0.974,-0.12,0.69,-0.06,-0.00,0.19,0.97,
0.975,-0.26,0.76,0.03,-0.00,0.19,0.97,
0.977,-0.26,0.76,0.03,-0.01,0.18,0.97,
0.979,-0.26,0.76,0.03,-0.01,0.18,0.97,
0.98,-0.36,0.79,0.09,-0.01,0.18,0.97,
0.981,-0.36,0.79,0.09,-0.01,0.18,0.97,
0.984,-0.36,0.79,0.09,-0.01,0.17,0.97,
0.986,-0.43,0.75,0.13,-0.01,0.17,0.97,
0.986,-0.43,0.75,0.13,-0.01,0.16,0.97,
0.989,-0.43,0.75,0.13,-0.02,0.16,0.96,
0.989,-0.45,0.67,0.13,-0.02,0.16,0.96,
0.991,-0.45,0.67,0.13,-0.02,0.15,0.96,
0.994,-0.45,0.67,0.13,-0.03,0.15,0.96,
0.994,-0.48,0.56,0.09,-0.03,0.15,0.96,
0.998,-0.48,0.56,0.09,-0.03,0.14,0.95,
0.999,-0.48,0.56,0.09,-0.03,0.14,0.94,
0.999,-0.55,0.46,0.02,-0.03,0.14,0.94,
1.001,-0.55,0.46,0.02,-0.03,0.14,0.94,
1.004,-0.55,0.46,0.02,-0.03,0.14,0.94,
1.004,-0.57,0.42,-0.08,-0.03,0.14,0.94,
1.006,-0.57,0.42,-0.08,-0.03,0.14,0.94,
1.008,-0.57,0.42,-0.08,-0.03,0.14,0.94,
1.009,-0.59,0.41,-0.15,-0.03,0.14,0.94,
1.011,-0.59,0.41,-0.15,-0.03,0.14,0.94,
1.013,-0.59,0.41,-0.15,-0.02,0.14,0.94,
1.014,-0.59,0.40,-0.19,-0.02,0.14,0.94,
1.016,-0.59,0.40,-0.19,-0.02,0.15,0.94,
1.018,-0.59,0.40,-0.19,-0.01,0.15,0.94,
1.018,-0.53,0.46,-0.18,-0.01,0.15,0.94,
1.02,-0.53,0.46,-0.18,-0.01,0.15,0.95,
1.023,-0.53,0.46,-0.18,-0.00,0.15,0.96,
1.023,-0.47,0.52,-0.15,-0.00,0.15,0.96,
1.025,-0.47,0.52,-0.15,0.00,0.14,0.97,
1.028,-0.47,0.52,-0.15,0.01,0.14,0.98,
1.029,-0.39,0.52,-0.05,0.01,0.14,0.98,
1.03,-0.39,0.52,-0.05,0.01,0.15,0.99,
1.033,-0.39,0.52,-0.05,0.01,0.15,1.00,
1.034,-0.30,0.52,0.17,0.01,0.15,1.00,
1.035,-0.30,0.52,0.17,0.02,0.15,1.01,
1.038,-0.30,0.52,0.17,0.02,0.16,1.02,
1.038,-0.24,0.57,0.38,0.02,0.16,1.02,
1.041,-0.24,0.57,0.38,0.02,0.16,1.02,
1.043,-0.22,0.65,0.54,0.02,0.16,1.02,
1.044,-0.22,0.65,0.54,0.02,0.17,1.03,
1.045,-0.22,0.65,0.54,0.02,0.17,1.04,
1.048,-0.22,0.65,0.54,0.01,0.18,1.05,
1.048,-0.23,0.76,0.70,0.01,0.18,1.05,
1.05,-0.23,0.76,0.70,0.01,0.19,1.06,
1.053,-0.23,0.76,0.70,0.00,0.20,1.06,
1.053,-0.29,0.89,0.85,0.00,0.20,1.06,
1.055,-0.29,0.89,0.85,-0.00,0.20,1.06,
1.058,-0.29,0.89,0.85,-0.01,0.21,1.07,
1.058,-0.41,1.03,0.98,-0.01,0.21,1.07,
1.06,-0.41,1.03,0.98,-0.02,0.21,1.06,
1.063,-0.41,1.03,0.98,-0.03,0.22,1.06,
1.063,-0.53,1.15,1.02,-0.03,0.22,1.06,
1.065,-0.53,1.15,1.02,-0.03,0.22,1.05,
1.067,-0.53,1.15,1.02,-0.04,0.23,1.05,
1.068,-0.69,1.27,0.99,-0.04,0.23,1.05,
1.07,-0.69,1.27,0.99,-0.05,0.24,1.04,
1.072,-0.69,1.27,0.99,-0.06,0.24,1.03,
1.073,-0.86,1.36,0.89,-0.06,0.24,1.03,
1.075,-0.86,1.36,0.89,-0.06,0.25,1.03,
1.077,-0.86,1.36,0.89,-0.06,0.25,1.02,
1.078,-1.04,1.48,0.76,-0.06,0.25,1.02,
1.079,-1.04,1.48,0.76,-0.06,0.25,1.00,
1.082,-1.11,1.54,0.58,-0.06,0.25,1.00,
1.082,-1.11,1.54,0.58,-0.06,0.25,0.99,
1.084,-1.11,1.54,0.58,-0.05,0.25,0.98,
1.087,-1.07,1.55,0.36,-0.05,0.25,0.98,
1.087,-1.07,1.55,0.36,-0.04,0.25,0.97,
1.089,-1.07,1.55,0.36,-0.04,0.25,0.96,
1.092,-1.07,1.55,0.36,-0.02,0.25,0.96,
1.092,-0.96,1.54,0.14,-0.02,0.25,0.96,
1.101,-0.96,1.54,0.14,-0.01,0.25,0.95,
1.101,-0.96,1.54,0.14,-0.00,0.25,0.95,
1.101,-0.81,1.52,-0.01,-0.00,0.25,0.95,
1.102,-0.81,1.52,-0.01,0.00,0.25,0.94,
1.102,-0.81,1.52,-0.01,0.01,0.26,0.94,
1.102,-0.60,1.53,-0.13,0.01,0.26,0.94,
1.104,-0.60,1.53,-0.13,0.02,0.26,0.94,
1.106,-0.60,1.53,-0.13,0.03,0.26,0.94,
1.107,-0.45,1.56,-0.22,0.03,0.26,0.94,
1.109,-0.45,1.56,-0.22,0.04,0.26,0.95,
1.111,-0.45,1.56,-0.22,0.05,0.26,0.95,
1.112,-0.26,1.57,-0.22,0.05,0.26,0.95,
1.114,-0.26,1.57,-0.22,0.06,0.26,0.96,
1.116,-0.26,1.57,-0.22,0.06,0.27,0.97,
1.116,-0.13,1.59,-0.13,0.06,0.27,0.97,
1.118,-0.13,1.59,-0.13,0.07,0.27,0.97,
1.121,-0.13,1.59,-0.13,0.07,0.28,0.98,
1.121,0.01,1.67,0.02,0.07,0.28,0.98,
1.123,0.01,1.67,0.02,0.08,0.29,0.99,
1.126,0.01,1.67,0.02,0.08,0.29,0.99,
1.126,0.09,1.77,0.12,0.08,0.29,0.99,
1.129,0.09,1.77,0.12,0.08,0.30,1.00,
1.131,0.09,1.77,0.12,0.08,0.30,1.01,
1.132,0.13,1.90,0.27,0.08,0.30,1.01,
1.133,0.13,1.90,0.27,0.08,0.31,1.02,
1.136,0.13,1.90,0.27,0.08,0.32,1.03,
1.136,0.15,2.04,0.45,0.08,0.32,1.03,
1.138,0.15,2.04,0.45,0.07,0.32,1.04,
1.141,0.15,2.04,0.45,0.07,0.32,1.05,
1.141,0.11,2.17,0.63,0.07,0.32,1.05,
1.143,0.11,2.17,0.63,0.07,0.32,1.05,
1.146,0.11,2.17,0.63,0.07,0.33,1.06,
1.146,0.04,2.26,0.79,0.07,0.33,1.06,
1.149,0.04,2.26,0.79,0.07,0.33,1.06,
1.151,0.04,2.26,0.79,0.07,0.33,1.07,
1.151,-0.00,2.31,0.91,0.07,0.33,1.07,
1.153,-0.00,2.31,0.91,0.07,0.32,1.07,
1.155,-0.00,2.31,0.91,0.07,0.32,1.08,
1.156,-0.00,2.33,1.01,0.07,0.32,1.08,
1.158,-0.00,2.33,1.01,0.07,0.32,1.08,
1.161,-0.00,2.33,1.01,0.07,0.31,1.08,
1.162,-0.01,2.29,1.10,0.07,0.31,1.08,
1.163,-0.01,2.29,1.10,0.07,0.31,1.08,
1.165,-0.00,2.25,1.13,0.07,0.31,1.08,
1.166,-0.00,2.25,1.13,0.07,0.30,1.08,
1.167,-0.00,2.25,1.13,0.07,0.30,1.08,
1.17,-0.00,2.25,1.13,0.07,0.29,1.08,
1.17,0.00,2.18,1.14,0.07,0.29,1.08,
1.172,0.00,2.18,1.14,0.07,0.28,1.08,
1.175,0.00,2.18,1.14,0.07,0.27,1.07,
1.175,0.02,2.06,1.11,0.07,0.27,1.07,
1.178,0.02,2.06,1.11,0.07,0.26,1.07,
1.18,0.02,2.06,1.11,0.06,0.26,1.07,
1.18,0.01,1.90,1.09,0.06,0.26,1.07,
1.182,0.01,1.90,1.09,0.06,0.25,1.07,
1.185,0.01,1.90,1.09,0.05,0.24,1.07,
1.185,-0.05,1.74,1.06,0.05,0.24,1.07,
1.187,-0.05,1.74,1.06,0.05,0.24,1.07,
1.19,-0.05,1.74,1.06,0.04,0.24,1.07,
1.19,-0.12,1.62,1.05,0.04,0.24,1.07,
1.192,-0.12,1.62,1.05,0.03,0.23,1.07,
1.195,-0.12,1.62,1.05,0.03,0.23,1.07,
1.195,-0.25,1.55,1.02,0.03,0.23,1.07,
1.197,-0.25,1.55,1.02,0.03,0.23,1.07,
1.2,-0.25,1.55,1.02,0.03,0.22,1.07,
1.2,-0.37,1.52,1.01,0.03,0.22,1.07,
1.202,-0.37,1.52,1.01,0.03,0.22,1.08,
1.204,-0.37,1.52,1.01,0.03,0.22,1.08,
1.205,-0.40,1.48,1.05,0.03,0.22,1.08,
1.207,-0.40,1.48,1.05,0.04,0.22,1.08,
1.209,-0.40,1.48,1.05,0.04,0.22,1.09,
1.21,-0.38,1.44,1.11,0.04,0.22,1.09,
1.217,-0.38,1.44,1.11,0.04,0.21,1.09,
1.217,-0.38,1.44,1.11,0.05,0.21,1.10,
1.218,-0.31,1.43,1.16,0.05,0.21,1.10,
1.218,-0.31,1.43,1.16,0.05,0.22,1.10,
1.219,-0.31,1.43,1.16,0.06,0.22,1.10,
1.219,-0.23,1.42,1.24,0.06,0.22,1.10,
1.221,-0.23,1.42,1.24,0.07,0.22,1.11,
1.224,-0.23,1.42,1.24,0.07,0.22,1.11,
1.224,-0.11,1.44,1.33,0.07,0.22,1.11,
1.226,-0.11,1.44,1.33,0.08,0.22,1.12,
1.232,-0.11,1.44,1.33,0.09,0.22,1.12,
1.232,0.01,1.45,1.41,0.09,0.22,1.12,
1.232,0.01,1.45,1.41,0.10,0.22,1.12,
1.234,0.01,1.45,1.41,0.11,0.22,1.12,
1.234,0.16,1.48,1.46,0.11,0.22,1.12,
1.236,0.16,1.48,1.46,0.12,0.22,1.13,
1.239,0.16,1.48,1.46,0.13,0.22,1.13,
1.239,0.32,1.48,1.50,0.13,0.22,1.13,
1.241,0.32,1.48,1.50,0.14,0.22,1.13,
1.244,0.32,1.48,1.50,0.15,0.22,1.13,
1.244,0.52,1.49,1.54,0.15,0.22,1.13,
1.246,0.52,1.49,1.54,0.15,0.22,1.12,
1.249,0.52,1.49,1.54,0.16,0.22,1.12,
1.249,0.72,1.49,1.54,0.16,0.22,1.12,
1.251,0.72,1.49,1.54,0.16,0.22,1.12,
1.253,0.72,1.49,1.54,0.16,0.22,1.11,
1.254,0.83,1.50,1.49,0.16,0.22,1.11,
1.256,0.83,1.50,1.49,0.17,0.22,1.11,
1.258,0.83,1.50,1.49,0.17,0.22,1.10,
1.258,0.90,1.50,1.44,0.17,0.22,1.10,
1.261,0.90,1.50,1.44,0.17,0.21,1.10,
1.264,0.90,1.50,1.44,0.17,0.21,1.09,
1.264,0.98,1.48,1.34,0.17,0.21,1.09,
1.266,0.98,1.48,1.34,0.17,0.21,1.08,
1.268,0.98,1.48,1.34,0.17,0.21,1.08,
1.268,1.00,1.41,1.21,0.17,0.21,1.08,
1.27,1.00,1.41,1.21,0.17,0.21,1.07,
1.273,1.00,1.41,1.21,0.17,0.20,1.06,
1.273,1.01,1.38,1.07,0.17,0.20,1.06,
1.275,1.01,1.38,1.07,0.17,0.20,1.05,
1.278,1.01,1.38,1.07,0.17,0.20,1.05,
1.279,0.99,1.33,0.93,0.17,0.20,1.05,
1.281,0.99,1.33,0.93,0.17,0.19,1.04,
1.283,0.99,1.33,0.93,0.16,0.19,1.03,
1.283,0.98,1.25,0.79,0.16,0.19,1.03,
1.285,0.98,1.25,0.79,0.16,0.19,1.02,
1.288,0.98,1.25,0.79,0.16,0.18,1.02,
1.288,0.96,1.18,0.63,0.16,0.18,1.02,
1.29,0.96,1.18,0.63,0.16,0.18,1.01,
1.293,0.96,1.18,0.63,0.16,0.18,1.00,
1.293,0.92,1.10,0.50,0.16,0.18,1.00,
1.295,0.92,1.10,0.50,0.16,0.18,1.00,
1.298,0.92,1.10,0.50,0.16,0.17,0.99,
1.298,0.92,1.05,0.37,0.16,0.17,0.99,
1.3,0.92,1.05,0.37,0.15,0.17,0.98,
1.302,0.92,1.05,0.37,0.15,0.17,0.98,
1.303,0.93,1.00,0.25,0.15,0.17,0.98,
1.305,0.93,1.00,0.25,0.16,0.17,0.97,
1.307,0.93,1.00,0.25,0.16,0.16,0.97,
1.308,0.93,0.95,0.12,0.16,0.16,0.97,
1.31,0.93,0.95,0.12,0.16,0.16,0.96,
1.319,0.93,0.95,0.12,0.16,0.16,0.96,
1.319,0.99,0.91,0.01,0.16,0.16,0.96,
1.32,0.99,0.91,0.01,0.16,0.16,0.96,
1.32,1.05,0.89,-0.09,0.16,0.16,0.96,
1.32,1.05,0.89,-0.09,0.17,0.16,0.95,
1.32,1.05,0.89,-0.09,0.17,0.16,0.95,
1.322,1.05,0.89,-0.09,0.18,0.16,0.94,
1.322,1.10,0.86,-0.16,0.18,0.16,0.94,
1.324,1.10,0.86,-0.16,0.18,0.16,0.94,
1.328,1.10,0.86,-0.16,0.19,0.16,0.94,
1.328,1.20,0.86,-0.24,0.19,0.16,0.94,
1.334,1.20,0.86,-0.24,0.20,0.16,0.93,
1.334,1.20,0.86,-0.24,0.21,0.16,0.93,
1.334,1.37,0.86,-0.31,0.21,0.16,0.93,
1.334,1.37,0.86,-0.31,0.21,0.16,0.93,
1.337,1.53,0.85,-0.36,0.21,0.16,0.93,
1.337,1.53,0.85,-0.36,0.22,0.16,0.94,
1.339,1.53,0.85,-0.36,0.22,0.16,0.94,
1.341,1.53,0.85,-0.36,0.22,0.16,0.94,
1.341,1.66,0.83,-0.35,0.22,0.16,0.94,
1.344,1.66,0.83,-0.35,0.22,0.16,0.94,
1.347,1.66,0.83,-0.35,0.22,0.16,0.95,
1.347,1.72,0.87,-0.31,0.22,0.16,0.95,
1.349,1.72,0.87,-0.31,0.22,0.16,0.95,
1.351,1.72,0.87,-0.31,0.22,0.16,0.96,
1.351,1.73,0.87,-0.25,0.22,0.16,0.96,
1.354,1.73,0.87,-0.25,0.21,0.15,0.96,
1.356,1.73,0.87,-0.25,0.21,0.15,0.97,
1.356,1.73,0.85,-0.17,0.21,0.15,0.97,
1.358,1.73,0.85,-0.17,0.21,0.15,0.97,
1.361,1.73,0.85,-0.17,0.21,0.15,0.98,
1.362,1.67,0.81,-0.07,0.21,0.15,0.98,
1.364,1.67,0.81,-0.07,0.21,0.15,0.98,
1.367,1.67,0.81,-0.07,0.20,0.15,0.98,
1.367,1.64,0.79,0.02,0.20,0.15,0.98,
1.368,1.64,0.79,0.02,0.20,0.15,0.99,
1.371,1.64,0.79,0.02,0.20,0.15,0.99,
1.371,1.58,0.79,0.11,0.20,0.15,0.99,
1.373,1.58,0.79,0.11,0.20,0.15,0.99,
1.376,1.58,0.79,0.11,0.19,0.15,0.99,
1.376,1.53,0.78,0.16,0.19,0.15,0.99,
1.379,1.53,0.78,0.16,0.19,0.15,0.98,
1.381,1.53,0.78,0.16,0.19,0.15,0.98,
1.382,1.46,0.77,0.14,0.19,0.15,0.98,
1.384,1.46,0.77,0.14,0.19,0.15,0.98,
1.386,1.46,0.77,0.14,0.18,0.15,0.97,
1.386,1.41,0.76,0.11,0.18,0.15,0.97,
1.388,1.41,0.76,0.11,0.18,0.15,0.97,
1.391,1.41,0.76,0.11,0.18,0.15,0.96,
1.391,1.37,0.75,0.03,0.18,0.15,0.96,
1.393,1.37,0.75,0.03,0.18,0.15,0.96,
1.4,1.37,0.75,0.03,0.18,0.15,0.95,
1.401,1.35,0.75,-0.04,0.18,0.15,0.95,
1.401,1.35,0.75,-0.04,0.18,0.15,0.95,
1.401,1.35,0.75,-0.04,0.18,0.15,0.94,
1.401,1.32,0.75,-0.16,0.18,0.15,0.94,
1.403,1.32,0.75,-0.16,0.18,0.15,0.93,
1.405,1.32,0.75,-0.16,0.18,0.14,0.93,
1.405,1.32,0.72,-0.27,0.18,0.14,0.93,
1.407,1.32,0.72,-0.27,0.17,0.14,0.92,
1.414,1.32,0.72,-0.27,0.17,0.14,0.92,
1.414,1.30,0.70,-0.38,0.17,0.14,0.92,
1.414,1.30,0.70,-0.38,0.17,0.15,0.91,
1.415,1.30,0.70,-0.38,0.17,0.15,0.91,
1.415,1.26,0.68,-0.49,0.17,0.15,0.91,
1.417,1.26,0.68,-0.49,0.17,0.15,0.91,
1.42,1.26,0.68,-0.49,0.16,0.15,0.91,
1.42,1.22,0.69,-0.57,0.16,0.15,0.91,
1.422,1.22,0.69,-0.57,0.16,0.15,0.90,
1.425,1.22,0.69,-0.57,0.16,0.15,0.91,
1.425,1.18,0.70,-0.63,0.16,0.15,0.91,
1.427,1.18,0.70,-0.63,0.16,0.15,0.91,
1.43,1.18,0.70,-0.63,0.16,0.15,0.91,
1.43,1.16,0.71,-0.64,0.16,0.15,0.91,
1.432,1.16,0.71,-0.64,0.17,0.15,0.91,
1.435,1.16,0.71,-0.64,0.17,0.15,0.91,
1.435,1.16,0.72,-0.61,0.17,0.15,0.91,
1.437,1.16,0.72,-0.61,0.17,0.15,0.92,
1.44,1.16,0.72,-0.61,0.17,0.16,0.92,
1.44,1.18,0.75,-0.56,0.17,0.16,0.92,
1.442,1.18,0.75,-0.56,0.18,0.16,0.93,
1.445,1.18,0.75,-0.56,0.18,0.16,0.94,
1.445,1.23,0.77,-0.49,0.18,0.16,0.94,
1.447,1.23,0.77,-0.49,0.18,0.16,0.94,
1.449,1.23,0.77,-0.49,0.18,0.16,0.95,
1.45,1.29,0.79,-0.37,0.18,0.16,0.95,
1.452,1.29,0.79,-0.37,0.19,0.16,0.96,
1.454,1.29,0.79,-0.37,0.18,0.16,0.96,
1.454,1.32,0.80,-0.25,0.18,0.16,0.96,
1.456,1.32,0.80,-0.25,0.18,0.16,0.97,
1.459,1.32,0.80,-0.25,0.18,0.16,0.98,
1.459,1.31,0.82,-0.10,0.18,0.16,0.98,
1.461,1.31,0.82,-0.10,0.17,0.17,0.98,
1.464,1.31,0.82,-0.10,0.17,0.17,0.99,
1.464,1.24,0.86,0.04,0.17,0.17,0.99,
1.466,1.24,0.86,0.04,0.16,0.17,0.99,
1.469,1.24,0.86,0.04,0.16,0.17,0.99,
1.469,1.13,0.90,0.15,0.16,0.17,0.99,
1.471,1.13,0.90,0.15,0.16,0.17,0.99,
1.474,1.13,0.90,0.15,0.15,0.18,1.00,
1.476,1.03,0.94,0.22,0.15,0.18,1.00,
1.476,1.03,0.94,0.22,0.15,0.17,0.99,
1.479,1.03,0.94,0.22,0.15,0.18,0.99,
1.479,0.96,0.96,0.24,0.15,0.18,0.99,
1.481,0.96,0.96,0.24,0.15,0.18,0.99,
1.484,0.96,0.96,0.24,0.14,0.18,0.99,
1.484,0.88,0.96,0.23,0.14,0.18,0.99,
1.486,0.88,0.96,0.23,0.14,0.18,0.99,
1.488,0.88,0.96,0.23,0.14,0.18,0.98,
1.489,0.84,0.98,0.20,0.14,0.18,0.98,
1.491,0.84,0.98,0.20,0.14,0.18,0.98,
1.499,0.84,0.98,0.20,0.14,0.19,0.98,
1.5,0.82,1.00,0.14,0.14,0.19,0.98,
1.5,0.82,1.00,0.14,0.14,0.19,0.97,
1.5,0.82,1.00,0.14,0.15,0.19,0.97,
1.501,0.79,1.04,0.09,0.15,0.19,0.97,
1.501,0.79,1.04,0.09,0.15,0.19,0.97,
1.503,0.79,1.04,0.09,0.15,0.19,0.97,
1.504,0.82,1.05,0.03,0.15,0.19,0.97,
1.505,0.82,1.05,0.03,0.15,0.19,0.97,
1.508,0.82,1.05,0.03,0.15,0.19,0.97,
1.508,0.84,1.03,-0.02,0.15,0.19,0.97,
1.512,0.84,1.03,-0.02,0.15,0.19,0.97,
1.513,0.84,1.03,-0.02,0.14,0.18,0.97,
1.514,0.83,1.01,0.03,0.14,0.18,0.97,
1.515,0.83,1.01,0.03,0.14,0.19,0.98,
1.518,0.83,1.01,0.03,0.14,0.19,0.98,
1.518,0.78,1.00,0.04,0.14,0.19,0.98,
1.52,0.78,1.00,0.04,0.13,0.18,0.98,
1.523,0.78,1.00,0.04,0.13,0.18,0.99,
1.523,0.70,0.99,0.09,0.13,0.18,0.99,
1.525,0.70,0.99,0.09,0.13,0.18,0.99,
1.528,0.70,0.99,0.09,0.12,0.18,1.00,
1.528,0.63,0.97,0.16,0.12,0.18,1.00,
1.53,0.63,0.97,0.16,0.12,0.18,1.00,
1.533,0.63,0.97,0.16,0.11,0.17,1.01,
1.533,0.54,0.95,0.26,0.11,0.17,1.01,
1.535,0.54,0.95,0.26,0.11,0.17,1.01,
1.537,0.54,0.95,0.26,0.10,0.17,1.02,
1.538,0.46,0.89,0.36,0.10,0.17,1.02,
1.54,0.46,0.89,0.36,0.10,0.17,1.02,
1.542,0.46,0.89,0.36,0.09,0.16,1.02,
1.543,0.34,0.84,0.43,0.09,0.16,1.02,
1.545,0.34,0.84,0.43,0.08,0.16,1.03,
1.547,0.34,0.84,0.43,0.08,0.16,1.03,
1.548,0.19,0.78,0.54,0.08,0.16,1.03,
1.55,0.19,0.78,0.54,0.07,0.16,1.03,
1.552,0.19,0.78,0.54,0.07,0.15,1.03,
1.553,0.06,0.73,0.60,0.07,0.15,1.03,
1.555,0.06,0.73,0.60,0.07,0.15,1.03,
1.557,0.06,0.73,0.60,0.07,0.15,1.03,
1.557,-0.05,0.68,0.64,0.07,0.15,1.03,
1.559,-0.05,0.68,0.64,0.07,0.14,1.03,
1.562,-0.05,0.68,0.64,0.07,0.14,1.03,
1.563,-0.09,0.59,0.64,0.07,0.14,1.03,
1.564,-0.09,0.59,0.64,0.07,0.13,1.03,
1.567,-0.09,0.59,0.64,0.07,0.13,1.02,
1.567,-0.09,0.49,0.60,0.07,0.13,1.02,
1.569,-0.09,0.49,0.60,0.07,0.12,1.02,
1.572,-0.09,0.49,0.60,0.07,0.12,1.02,
1.572,-0.06,0.39,0.55,0.07,0.12,1.02,
1.574,-0.06,0.39,0.55,0.08,0.12,1.01,
1.578,-0.06,0.39,0.55,0.08,0.12,1.01,
1.579,-0.03,0.32,0.50,0.08,0.12,1.01,
1.579,-0.03,0.32,0.50,0.08,0.11,1.00,
1.582,-0.03,0.32,0.50,0.08,0.11,1.00,
1.582,0.04,0.28,0.41,0.08,0.11,1.00,
1.584,0.04,0.28,0.41,0.09,0.10,1.00,
1.587,0.04,0.28,0.41,0.09,0.10,0.99,
1.587,0.07,0.19,0.32,0.09,0.10,0.99,
1.589,0.07,0.19,0.32,0.09,0.10,0.99,
1.592,0.07,0.19,0.32,0.08,0.10,0.99,
1.592,0.09,0.11,0.25,0.08,0.10,0.99,
1.594,0.09,0.11,0.25,0.08,0.09,0.99,
1.596,0.09,0.11,0.25,0.08,0.09,0.99,
1.597,0.09,0.07,0.23,0.08,0.09,0.99,
1.599,0.09,0.07,0.23,0.08,0.09,0.99,
1.601,0.09,0.07,0.23,0.08,0.09,0.99,
1.601,0.09,0.03,0.20,0.08,0.09,0.99,
1.603,0.09,0.03,0.20,0.08,0.08,0.99,
1.606,0.09,0.03,0.20,0.07,0.08,0.99,
1.606,0.08,-0.02,0.20,0.07,0.08,0.99,
1.608,0.08,-0.02,0.20,0.06,0.08,1.00,
1.616,0.08,-0.02,0.20,0.05,0.08,1.00,
1.617,-0.01,-0.07,0.23,0.05,0.08,1.00,
1.617,-0.01,-0.07,0.23,0.05,0.08,1.01,
1.618,-0.01,-0.07,0.23,0.04,0.08,1.01,
1.618,-0.15,-0.10,0.32,0.04,0.08,1.01,
1.618,-0.15,-0.10,0.32,0.03,0.08,1.01,
1.621,-0.15,-0.10,0.32,0.02,0.07,1.02,
1.621,-0.28,-0.11,0.39,0.02,0.07,1.02,
1.623,-0.28,-0.11,0.39,0.02,0.07,1.02,
1.625,-0.28,-0.11,0.39,0.02,0.07,1.02,
1.626,-0.41,-0.12,0.47,0.02,0.07,1.02,
1.631,-0.41,-0.12,0.47,0.01,0.07,1.02,
1.632,-0.49,-0.16,0.52,0.01,0.07,1.02,
1.632,-0.49,-0.16,0.52,0.00,0.07,1.02,
1.633,-0.49,-0.16,0.52,-0.01,0.07,1.02,
1.635,-0.49,-0.16,0.52,-0.01,0.07,1.03,
1.635,-0.60,-0.19,0.52,-0.01,0.07,1.03,
1.637,-0.60,-0.19,0.52,-0.02,0.07,1.03,
1.64,-0.60,-0.19,0.52,-0.02,0.07,1.03,
1.64,-0.76,-0.19,0.55,-0.02,0.07,1.03,
1.642,-0.76,-0.19,0.55,-0.03,0.06,1.03,
1.645,-0.76,-0.19,0.55,-0.03,0.06,1.03,
1.646,-0.89,-0.21,0.57,-0.03,0.06,1.03,
1.648,-0.89,-0.21,0.57,-0.02,0.06,1.02,
1.65,-0.89,-0.21,0.57,-0.02,0.05,1.02,
1.65,-0.93,-0.26,0.57,-0.02,0.05,1.02,
1.652,-0.93,-0.26,0.57,-0.02,0.05,1.02,
1.655,-0.93,-0.26,0.57,-0.01,0.05,1.02,
1.655,-0.89,-0.33,0.53,-0.01,0.05,1.02,
1.657,-0.89,-0.33,0.53,-0.01,0.04,1.01,
1.66,-0.89,-0.33,0.53,-0.00,0.04,1.01,
1.66,-0.81,-0.42,0.46,-0.00,0.04,1.01,
1.662,-0.81,-0.42,0.46,0.00,0.03,1.01,
1.665,-0.81,-0.42,0.46,0.01,0.03,1.00,
1.665,-0.71,-0.51,0.40,0.01,0.03,1.00,
1.667,-0.71,-0.51,0.40,0.01,0.02,1.00,
1.67,-0.71,-0.51,0.40,0.02,0.02,0.99,
1.67,-0.61,-0.64,0.35,0.02,0.02,0.99,
1.672,-0.61,-0.64,0.35,0.02,0.01,0.99,
1.675,-0.51,-0.75,0.26,0.02,0.01,0.99,
1.675,-0.51,-0.75,0.26,0.01,0.01,0.99,
1.677,-0.51,-0.75,0.26,0.01,0.01,0.98,
1.68,-0.51,-0.75,0.26,0.00,0.00,0.98,
1.68,-0.51,-0.85,0.19,0.00,0.00,0.98,
1.682,-0.51,-0.85,0.19,-0.00,0.00,0.98,
1.684,-0.51,-0.85,0.19,-0.01,0.00,0.98,
1.685,-0.60,-0.90,0.12,-0.01,0.00,0.98,
1.687,-0.60,-0.90,0.12,-0.01,0.00,0.98,
1.689,-0.60,-0.90,0.12,-0.02,0.01,0.98,
1.69,-0.72,-0.93,0.09,-0.02,0.01,0.98,
1.692,-0.72,-0.93,0.09,-0.02,0.01,0.98,
1.694,-0.72,-0.93,0.09,-0.03,0.01,0.99,
1.695,-0.83,-0.90,0.12,-0.03,0.01,0.99,
1.697,-0.83,-0.90,0.12,-0.03,0.01,0.99,
1.699,-0.83,-0.90,0.12,-0.03,0.01,1.00,
1.699,-0.96,-0.87,0.16,-0.03,0.01,1.00,
1.701,-0.96,-0.87,0.16,-0.03,0.01,1.00,
1.704,-0.96,-0.87,0.16,-0.03,0.01,1.01,
1.704,-1.01,-0.88,0.26,-0.03,0.01,1.01,
1.706,-1.01,-0.88,0.26,-0.03,0.01,1.01,
1.716,-1.01,-0.88,0.26,-0.02,0.01,1.01,
1.717,-0.99,-0.88,0.34,-0.02,0.01,1.01,
1.717,-0.99,-0.88,0.34,-0.02,0.02,1.01,
1.717,-0.99,-0.88,0.34,-0.02,0.02,1.01,
1.717,-0.96,-0.85,0.38,-0.02,0.02,1.01,
1.718,-0.96,-0.85,0.38,-0.01,0.02,1.01,
1.719,-0.96,-0.85,0.38,-0.00,0.03,1.01,
1.719,-0.90,-0.80,0.42,-0.00,0.03,1.01,
1.721,-0.90,-0.80,0.42,0.01,0.03,1.01,
1.724,-0.90,-0.80,0.42,0.01,0.03,1.01,
1.724,-0.77,-0.77,0.43,0.01,0.03,1.01,
1.727,-0.77,-0.77,0.43,0.02,0.03,1.01,
1.729,-0.77,-0.77,0.43,0.02,0.03,1.00,
1.729,-0.63,-0.76,0.41,0.02,0.03,1.00,
1.731,-0.63,-0.76,0.41,0.02,0.04,1.00,
1.733,-0.63,-0.76,0.41,0.02,0.04,0.99,
1.733,-0.54,-0.73,0.36,0.02,0.04,0.99,
1.735,-0.54,-0.73,0.36,0.02,0.04,0.98,
1.738,-0.54,-0.73,0.36,0.03,0.04,0.97,
1.738,-0.48,-0.68,0.24,0.03,0.04,0.97,
1.74,-0.48,-0.68,0.24,0.04,0.04,0.97,
1.743,-0.48,-0.68,0.24,0.04,0.04,0.96,
1.744,-0.42,-0.65,0.09,0.04,0.04,0.96,
1.745,-0.42,-0.65,0.09,0.05,0.03,0.96,
1.748,-0.42,-0.65,0.09,0.05,0.03,0.95,
1.748,-0.29,-0.69,-0.03,0.05,0.03,0.95,
1.75,-0.29,-0.69,-0.03,0.05,0.03,0.95,
1.753,-0.29,-0.69,-0.03,0.05,0.02,0.95,
1.753,-0.20,-0.77,-0.10,0.05,0.02,0.95,
1.755,-0.20,-0.77,-0.10,0.04,0.02,0.94,
1.758,-0.20,-0.77,-0.10,0.04,0.02,0.94,
1.758,-0.20,-0.85,-0.19,0.04,0.02,0.94,
1.76,-0.20,-0.85,-0.19,0.03,0.02,0.94,
1.763,-0.20,-0.85,-0.19,0.02,0.02,0.94,
1.763,-0.26,-0.87,-0.26,0.02,0.02,0.94,
1.765,-0.26,-0.87,-0.26,0.02,0.01,0.94,
1.768,-0.26,-0.87,-0.26,0.01,0.01,0.95,
1.768,-0.38,-0.91,-0.27,0.01,0.01,0.95,
1.77,-0.38,-0.91,-0.27,0.01,0.01,0.96,
1.773,-0.38,-0.91,-0.27,0.00,0.00,0.96,
1.773,-0.48,-0.98,-0.20,0.00,0.00,0.96,
1.775,-0.48,-0.98,-0.20,0.00,-0.00,0.97,
1.778,-0.48,-0.98,-0.20,-0.01,-0.01,0.97,
1.778,-0.58,-1.05,-0.08,-0.01,-0.01,0.97,
1.78,-0.58,-1.05,-0.08,-0.01,-0.01,0.98,
1.782,-0.58,-1.05,-0.08,-0.02,-0.01,0.98,
1.783,-0.67,-1.12,0.03,-0.02,-0.01,0.98,
1.785,-0.67,-1.12,0.03,-0.02,-0.01,0.98,
1.787,-0.67,-1.12,0.03,-0.03,-0.01,0.99,
1.787,-0.79,-1.17,0.12,-0.03,-0.01,0.99,
1.789,-0.79,-1.17,0.12,-0.03,-0.01,0.99,
1.792,-0.79,-1.17,0.12,-0.03,-0.02,0.99,
1.792,-0.90,-1.20,0.17,-0.03,-0.02,0.99,
1.799,-0.90,-1.20,0.17,-0.04,-0.02,0.99,
1.8,-0.90,-1.20,0.17,-0.04,-0.03,0.99,
1.8,-0.96,-1.22,0.23,-0.04,-0.03,0.99,
1.801,-0.96,-1.22,0.23,-0.04,-0.03,0.98,
1.803,-0.96,-1.22,0.23,-0.04,-0.04,0.98,
1.803,-1.00,-1.34,0.21,-0.04,-0.04,0.98,
1.804,-1.00,-1.34,0.21,-0.04,-0.04,0.97,
1.807,-1.00,-1.34,0.21,-0.04,-0.04,0.97,
1.807,-1.00,-1.43,0.13,-0.04,-0.04,0.97,
1.809,-1.00,-1.43,0.13,-0.05,-0.04,0.96,
1.812,-1.00,-1.43,0.13,-0.04,-0.04,0.95,
1.812,-1.03,-1.45,0.02,-0.04,-0.04,0.95,
1.814,-1.03,-1.45,0.02,-0.04,-0.04,0.94,
1.816,-1.03,-1.45,0.02,-0.04,-0.04,0.94,
1.817,-1.03,-1.46,-0.13,-0.04,-0.04,0.94,
1.819,-1.03,-1.46,-0.13,-0.04,-0.03,0.93,
1.821,-1.03,-1.46,-0.13,-0.03,-0.03,0.92,
1.821,-0.99,-1.45,-0.26,-0.03,-0.03,0.92,
1.824,-0.99,-1.45,-0.26,-0.02,-0.03,0.92,
1.826,-0.99,-1.45,-0.26,-0.01,-0.03,0.91,
1.826,-0.90,-1.42,-0.39,-0.01,-0.03,0.91,
1.829,-0.90,-1.42,-0.39,-0.01,-0.02,0.91,
1.831,-0.90,-1.42,-0.39,-0.01,-0.02,0.90,
1.832,-0.74,-1.38,-0.52,-0.01,-0.02,0.90,
1.833,-0.74,-1.38,-0.52,-0.00,-0.02,0.90,
1.836,-0.74,-1.38,-0.52,-0.00,-0.02,0.90,
1.836,-0.63,-1.33,-0.62,-0.00,-0.02,0.90,
1.838,-0.63,-1.33,-0.62,-0.00,-0.02,0.91,
1.841,-0.60,-1.30,-0.64,-0.00,-0.02,0.91,
1.841,-0.60,-1.30,-0.64,-0.00,-0.01,0.91,
1.843,-0.60,-1.30,-0.64,-0.00,-0.01,0.92,
1.846,-0.60,-1.30,-0.64,-0.00,-0.01,0.92,
1.846,-0.58,-1.25,-0.57,-0.00,-0.01,0.92,
1.848,-0.58,-1.25,-0.57,-0.00,-0.01,0.93,
1.851,-0.58,-1.25,-0.57,-0.00,-0.02,0.94,
1.851,-0.60,-1.24,-0.48,-0.00,-0.02,0.94,
1.853,-0.60,-1.24,-0.48,-0.01,-0.02,0.95,
1.856,-0.60,-1.24,-0.48,-0.01,-0.02,0.96,
1.856,-0.62,-1.25,-0.33,-0.01,-0.02,0.96,
1.858,-0.62,-1.25,-0.33,-0.01,-0.03,0.97,
1.861,-0.62,-1.25,-0.33,-0.01,-0.03,0.98,
1.861,-0.68,-1.29,-0.15,-0.01,-0.03,0.98,
1.863,-0.68,-1.29,-0.15,-0.01,-0.03,0.99,
1.866,-0.68,-1.29,-0.15,-0.01,-0.03,1.00,
1.866,-0.68,-1.33,0.04,-0.01,-0.03,1.00,
1.868,-0.68,-1.33,0.04,-0.01,-0.04,1.00,
1.871,-0.68,-1.33,0.04,-0.02,-0.04,1.01,
1.871,-0.70,-1.37,0.23,-0.02,-0.04,1.01,
1.873,-0.70,-1.37,0.23,-0.01,-0.04,1.01,
1.877,-0.70,-1.37,0.23,-0.02,-0.04,1.01,
1.877,-0.76,-1.44,0.38,-0.02,-0.04,1.01,
1.878,-0.76,-1.44,0.38,-0.02,-0.04,1.02,
1.881,-0.76,-1.44,0.38,-0.02,-0.04,1.02,
1.881,-0.80,-1.47,0.45,-0.02,-0.04,1.02,
1.883,-0.80,-1.47,0.45,-0.02,-0.04,1.01,
1.885,-0.80,-1.47,0.45,-0.02,-0.04,1.01,
1.886,-0.84,-1.45,0.47,-0.02,-0.04,1.01,
1.887,-0.84,-1.45,0.47,-0.02,-0.04,1.01,
1.89,-0.84,-1.45,0.47,-0.02,-0.04,1.00,
1.891,-0.86,-1.44,0.43,-0.02,-0.04,1.00,
1.893,-0.86,-1.44,0.43,-0.02,-0.04,1.00,
1.897,-0.86,-1.44,0.43,-0.01,-0.04,0.99,
1.897,-0.81,-1.44,0.36,-0.01,-0.04,0.99,
1.898,-0.81,-1.44,0.36,-0.01,-0.04,0.99,
1.9,-0.79,-1.47,0.28,-0.01,-0.04,0.99,
1.9,-0.79,-1.47,0.28,-0.01,-0.04,0.98,
1.902,-0.79,-1.47,0.28,-0.01,-0.04,0.98,
1.905,-0.79,-1.47,0.28,-0.01,-0.04,0.98,
1.905,-0.74,-1.47,0.20,-0.01,-0.04,0.98,
1.907,-0.74,-1.47,0.20,-0.00,-0.03,0.98,
1.916,-0.74,-1.47,0.20,-0.00,-0.03,0.97,
1.917,-0.73,-1.43,0.12,-0.00,-0.03,0.97,
1.917,-0.73,-1.43,0.12,0.00,-0.03,0.97,
1.918,-0.73,-1.43,0.12,0.01,-0.03,0.97,
1.918,-0.69,-1.38,0.08,0.01,-0.03,0.97,
1.918,-0.69,-1.38,0.08,0.01,-0.03,0.97,
1.919,-0.69,-1.38,0.08,0.01,-0.02,0.97,
1.92,-0.62,-1.35,0.06,0.01,-0.02,0.97,
1.922,-0.62,-1.35,0.06,0.01,-0.02,0.97,
1.925,-0.62,-1.35,0.06,0.02,-0.02,0.97,
1.943,-0.57,-1.30,0.04,0.02,-0.02,0.97,
1.943,-0.57,-1.30,0.04,0.02,-0.02,0.97,
1.943,-0.57,-1.30,0.04,0.02,-0.01,0.97,
1.944,-0.50,-1.25,0.06,0.02,-0.01,0.97,
1.944,-0.50,-1.25,0.06,0.02,-0.01,0.97,
1.944,-0.50,-1.25,0.06,0.03,0.00,0.97,
1.944,-0.48,-1.19,0.07,0.03,0.00,0.97,
1.944,-0.48,-1.19,0.07,0.03,0.01,0.98,
1.944,-0.48,-1.19,0.07,0.03,0.01,0.98,
1.945,-0.42,-1.07,0.06,0.03,0.01,0.98,
1.945,-0.42,-1.07,0.06,0.04,0.01,0.98,
1.945,-0.42,-1.07,0.06,0.05,0.02,0.98,
1.945,-0.36,-0.97,0.11,0.05,0.02,0.98,
1.946,-0.36,-0.97,0.11,0.05,0.02,0.99,
1.949,-0.36,-0.97,0.11,0.06,0.02,0.99,
1.949,-0.24,-0.89,0.16,0.06,0.02,0.99,
1.951,-0.24,-0.89,0.16,0.06,0.03,0.99,
1.954,-0.24,-0.89,0.16,0.07,0.03,0.99,
1.954,-0.12,-0.83,0.21,0.07,0.03,0.99,
1.956,-0.12,-0.83,0.21,0.07,0.03,1.00,
1.959,-0.12,-0.83,0.21,0.07,0.03,1.00,
1.96,-0.06,-0.77,0.25,0.07,0.03,1.00,
1.961,-0.06,-0.77,0.25,0.07,0.03,1.00,
1.964,-0.06,-0.77,0.25,0.07,0.03,1.00,
1.966,0.03,-0.75,0.30,0.07,0.03,1.00,
1.966,0.03,-0.75,0.30,0.07,0.03,1.00,
1.968,0.03,-0.75,0.30,0.07,0.03,1.00,
1.968,0.06,-0.74,0.34,0.07,0.03,1.00,
1.971,0.06,-0.74,0.34,0.07,0.03,1.00,
1.974,0.06,-0.74,0.35,0.07,0.03,1.00,
1.974,0.06,-0.74,0.35,0.07,0.03,1.00,
1.976,0.06,-0.74,0.35,0.07,0.03,1.00,
1.978,0.06,-0.74,0.35,0.07,0.03,1.00,
1.978,0.06,-0.74,0.34,0.07,0.03,1.00,
1.98,0.06,-0.74,0.34,0.06,0.03,1.00,
1.984,0.06,-0.74,0.34,0.06,0.02,1.00,
1.984,0.03,-0.75,0.31,0.06,0.02,1.00,
1.985,0.03,-0.75,0.31,0.05,0.02,0.99,
1.988,0.03,-0.75,0.31,0.05,0.02,0.99,
1.988,-0.02,-0.78,0.28,0.05,0.02,0.99,
1.99,-0.02,-0.78,0.28,0.05,0.02,0.98,
1.994,-0.02,-0.78,0.28,0.05,0.02,0.98,
1.996,-0.10,-0.80,0.23,0.05,0.02,0.98,
1.996,-0.10,-0.80,0.23,0.05,0.01,0.98,
1.998,-0.11,-0.85,0.13,0.05,0.01,0.98,
1.998,-0.11,-0.85,0.13,0.05,0.01,0.97,
2.0,-0.11,-0.85,0.13,0.04,0.01,0.97,
2.003,-0.11,-0.85,0.13,0.03,0.01,0.97,
2.003,-0.12,-0.90,0.06,0.03,0.01,0.97,
2.005,-0.12,-0.90,0.06,0.03,0.01,0.97,
2.008,-0.12,-0.90,0.06,0.02,0.01,0.97,
2.008,-0.21,-0.93,0.06,0.02,0.01,0.97,
2.015,-0.21,-0.93,0.06,0.01,0.01,0.97,
2.016,-0.21,-0.93,0.06,0.00,0.01,0.97,
2.016,-0.36,-0.90,0.04,0.00,0.01,0.97,
2.016,-0.36,-0.90,0.04,0.00,0.01,0.98,
2.018,-0.36,-0.90,0.04,-0.00,0.01,0.98,
2.018,-0.49,-0.86,0.05,-0.00,0.01,0.98,
2.02,-0.49,-0.86,0.05,-0.00,0.01,0.98,
2.022,-0.49,-0.86,0.05,0.00,0.01,0.98,
2.023,-0.55,-0.82,0.07,0.00,0.01,0.98,
2.025,-0.55,-0.82,0.07,0.00,0.01,0.98,
2.027,-0.53,-0.80,0.11,0.00,0.01,0.98,
2.028,-0.53,-0.80,0.11,0.00,0.01,0.99,
2.029,-0.53,-0.80,0.11,0.00,0.02,0.99,
2.032,-0.53,-0.80,0.11,0.01,0.02,0.99,
2.032,-0.50,-0.78,0.15,0.01,0.02,0.99,
2.034,-0.50,-0.78,0.15,0.01,0.02,0.99,
2.037,-0.50,-0.78,0.15,0.01,0.03,0.99,
2.037,-0.46,-0.74,0.16,0.01,0.03,0.99,
2.039,-0.46,-0.74,0.16,0.01,0.03,0.99,
2.042,-0.46,-0.74,0.16,0.01,0.03,0.99,
2.042,-0.42,-0.67,0.17,0.01,0.03,0.99,
2.044,-0.42,-0.67,0.17,0.01,0.04,0.99,
2.047,-0.42,-0.67,0.17,0.02,0.04,0.99,
2.047,-0.38,-0.59,0.19,0.02,0.04,0.99,
2.049,-0.38,-0.59,0.19,0.02,0.05,0.98,
2.052,-0.38,-0.59,0.19,0.02,0.06,0.98,
2.052,-0.33,-0.48,0.16,0.02,0.06,0.98,
2.054,-0.33,-0.48,0.16,0.03,0.06,0.98,
2.056,-0.33,-0.48,0.16,0.03,0.06,0.98,
2.057,-0.27,-0.36,0.11,0.03,0.06,0.98,
2.059,-0.27,-0.36,0.11,0.03,0.07,0.97,
2.062,-0.19,-0.29,0.07,0.03,0.07,0.97,
2.062,-0.19,-0.29,0.07,0.04,0.07,0.97,
2.064,-0.19,-0.29,0.07,0.04,0.08,0.97,
2.066,-0.19,-0.29,0.07,0.05,0.08,0.97,
2.066,-0.09,-0.20,0.03,0.05,0.08,0.97,
2.069,-0.09,-0.20,0.03,0.06,0.09,0.97,
2.071,-0.09,-0.20,0.03,0.06,0.09,0.96,
2.071,0.01,-0.12,-0.02,0.06,0.09,0.96,
2.073,0.01,-0.12,-0.02,0.07,0.09,0.96,
2.076,0.01,-0.12,-0.02,0.07,0.10,0.96,
2.076,0.12,-0.05,-0.05,0.07,0.10,0.96,
2.078,0.12,-0.05,-0.05,0.07,0.10,0.96,
2.081,0.12,-0.05,-0.05,0.07,0.10,0.95,
2.081,0.20,0.02,-0.10,0.07,0.10,0.95,
2.083,0.20,0.02,-0.10,0.07,0.10,0.95,
2.086,0.20,0.02,-0.10,0.07,0.10,0.95,
2.086,0.24,0.08,-0.14,0.07,0.10,0.95,
2.088,0.24,0.08,-0.14,0.07,0.10,0.95,
2.091,0.24,0.08,-0.14,0.07,0.11,0.95,
2.091,0.24,0.09,-0.16,0.07,0.11,0.95,
2.098,0.24,0.09,-0.16,0.07,0.11,0.95,
2.099,0.24,0.09,-0.16,0.07,0.10,0.95,
2.099,0.22,0.11,-0.17,0.07,0.10,0.95,
2.099,0.22,0.11,-0.17,0.06,0.10,0.95,
2.101,0.22,0.11,-0.17,0.06,0.10,0.95,
2.101,0.18,0.11,-0.16,0.06,0.10,0.95,
2.103,0.18,0.11,-0.16,0.06,0.10,0.95,
2.105,0.18,0.11,-0.16,0.06,0.10,0.95,
2.105,0.13,0.08,-0.15,0.06,0.10,0.95,
2.108,0.13,0.08,-0.15,0.06,0.09,0.95,
2.111,0.13,0.08,-0.15,0.05,0.09,0.95,
2.111,0.08,0.02,-0.16,0.05,0.09,0.95,
2.113,0.08,0.02,-0.16,0.05,0.09,0.95,
2.115,0.08,0.02,-0.16,0.05,0.08,0.95,
2.115,0.05,-0.04,-0.16,0.05,0.08,0.95,
2.117,0.05,-0.04,-0.16,0.05,0.08,0.95,
2.12,0.05,-0.04,-0.16,0.05,0.08,0.95,
2.12,0.01,-0.09,-0.16,0.05,0.08,0.95,
2.122,0.01,-0.09,-0.16,0.05,0.08,0.95,
2.126,0.01,-0.09,-0.16,0.05,0.08,0.95,
2.126,-0.03,-0.11,-0.15,0.05,0.08,0.95,
2.13,-0.03,-0.11,-0.15,0.05,0.08,0.96,
2.13,-0.03,-0.11,-0.15,0.05,0.08,0.96,
2.13,-0.02,-0.11,-0.15,0.05,0.08,0.96,
2.132,-0.02,-0.11,-0.15,0.05,0.08,0.96,
2.135,-0.02,-0.11,-0.15,0.06,0.08,0.96,
2.135,-0.01,-0.11,-0.10,0.06,0.08,0.96,
2.137,-0.01,-0.11,-0.10,0.06,0.08,0.97,
2.14,-0.01,-0.11,-0.10,0.06,0.08,0.97,
2.14,0.05,-0.11,-0.05,0.06,0.08,0.97,
2.142,0.05,-0.11,-0.05,0.06,0.08,0.97,
2.145,0.05,-0.11,-0.05,0.07,0.09,0.98,
2.145,0.10,-0.09,-0.01,0.07,0.09,0.98,
2.147,0.10,-0.09,-0.01,0.07,0.09,0.98,
2.149,0.10,-0.09,-0.01,0.07,0.09,0.99,
2.15,0.14,-0.06,0.07,0.07,0.09,0.99,
2.152,0.14,-0.06,0.07,0.08,0.09,0.99,
2.155,0.14,-0.06,0.07,0.08,0.09,1.00,
2.155,0.21,-0.03,0.16,0.08,0.09,1.00,
2.157,0.21,-0.03,0.16,0.08,0.10,1.00,
2.16,0.21,-0.03,0.16,0.08,0.10,1.00,
2.161,0.26,0.00,0.24,0.08,0.10,1.00,
2.162,0.26,0.00,0.24,0.08,0.10,1.01,
2.164,0.26,0.00,0.24,0.08,0.10,1.01,
2.165,0.29,0.06,0.31,0.08,0.10,1.01,
2.166,0.29,0.06,0.31,0.08,0.10,1.01,
2.169,0.29,0.06,0.31,0.08,0.10,1.01,
2.169,0.29,0.10,0.37,0.08,0.10,1.01,
2.172,0.29,0.10,0.37,0.08,0.10,1.01,
2.174,0.29,0.10,0.37,0.08,0.11,1.01,
2.174,0.28,0.11,0.40,0.08,0.11,1.01,
2.176,0.28,0.11,0.40,0.08,0.11,1.01,
2.179,0.28,0.11,0.40,0.08,0.11,1.01,
2.179,0.29,0.13,0.40,0.08,0.11,1.01,
2.181,0.29,0.13,0.40,0.08,0.11,1.01,
2.184,0.29,0.13,0.40,0.08,0.11,1.01,
2.184,0.28,0.14,0.39,0.08,0.11,1.01,
2.186,0.28,0.14,0.39,0.07,0.11,1.00,
2.189,0.28,0.14,0.39,0.07,0.11,1.00,
2.189,0.25,0.15,0.36,0.07,0.11,1.00,
2.191,0.25,0.15,0.36,0.06,0.11,1.00,
2.198,0.25,0.15,0.36,0.06,0.12,0.99,
2.199,0.19,0.19,0.31,0.06,0.12,0.99,
2.199,0.19,0.19,0.31,0.05,0.12,0.99,
2.199,0.19,0.19,0.31,0.05,0.12,0.99,
2.2,0.08,0.23,0.23,0.05,0.12,0.99,
2.201,0.08,0.23,0.23,0.05,0.11,0.98,
2.203,0.08,0.23,0.23,0.05,0.11,0.98,
2.204,0.01,0.25,0.16,0.05,0.11,0.98,
2.206,0.01,0.25,0.16,0.05,0.11,0.98,
2.212,0.01,0.25,0.16,0.05,0.11,0.97,
2.213,-0.01,0.19,0.09,0.05,0.11,0.97,
2.213,-0.01,0.19,0.09,0.05,0.11,0.97,
2.213,-0.01,0.19,0.09,0.05,0.10,0.95,
2.213,-0.03,0.14,0.03,0.05,0.10,0.95,
2.215,-0.03,0.14,0.03,0.06,0.10,0.91,
2.218,-0.03,0.14,0.03,0.06,0.09,0.88,
2.218,-0.01,0.10,-0.09,0.06,0.09,0.88,
2.22,-0.01,0.10,-0.09,0.06,0.09,0.89,
2.223,-0.01,0.10,-0.09,0.07,0.10,0.92,
2.223,0.07,0.02,-0.73,0.07,0.10,0.92,
2.225,0.07,0.02,-0.73,0.06,0.10,0.93,
2.228,0.07,0.02,-0.73,0.06,0.10,0.94,
2.228,0.15,0.02,-0.64,0.06,0.10,0.94,
2.23,0.15,0.02,-0.64,0.06,0.10,0.94,
2.233,0.14,0.06,-0.36,0.06,0.10,0.94,
2.233,0.14,0.06,-0.36,0.06,0.10,0.94,
2.235,0.14,0.06,-0.36,0.07,0.10,0.94,
2.238,0.14,0.06,-0.36,0.08,0.11,0.94,
2.238,0.14,0.09,-0.32,0.08,0.11,0.94,
2.24,0.14,0.09,-0.32,0.09,0.10,0.95,
2.243,0.14,0.09,-0.32,0.09,0.10,0.96,
2.243,0.27,0.12,-0.29,0.09,0.10,0.96,
2.252,0.27,0.12,-0.29,0.10,0.10,0.96,
2.252,0.27,0.12,-0.29,0.10,0.10,0.97,
2.252,0.41,0.11,-0.16,0.10,0.10,0.97,
2.252,0.41,0.11,-0.16,0.09,0.10,0.97,
2.253,0.41,0.11,-0.16,0.09,0.11,0.98,
2.253,0.45,0.09,-0.04,0.09,0.11,0.98,
2.255,0.45,0.09,-0.04,0.09,0.12,0.98,
2.259,0.45,0.09,-0.04,0.09,0.12,0.99,
2.26,0.42,0.15,0.04,0.09,0.12,0.99,
2.26,0.42,0.15,0.04,0.09,0.12,0.99,
2.262,0.42,0.15,0.04,0.09,0.12,0.98,
2.263,0.39,0.24,0.14,0.09,0.12,0.98,
2.264,0.39,0.24,0.14,0.09,0.12,0.98,
2.267,0.39,0.24,0.14,0.08,0.13,0.98,
2.267,0.37,0.28,0.15,0.08,0.13,0.98,
2.269,0.37,0.28,0.15,0.08,0.13,0.98,
2.272,0.37,0.28,0.15,0.08,0.13,0.97,
2.272,0.34,0.29,0.12,0.08,0.13,0.97,
2.275,0.34,0.29,0.12,0.08,0.13,0.97,
