
time,ax,ay,az,gFx,gFy,gFz,
0.001,0.05,0.00,-0.34,0.02,0.07,0.92,
0.002,0.05,0.00,-0.34,0.03,0.07,0.92,
0.002,0.11,0.03,-0.48,0.03,0.07,0.92,
0.002,0.11,0.03,-0.48,0.03,0.07,0.92,
0.005,0.11,0.03,-0.48,0.03,0.08,0.92,
0.005,0.17,0.06,-0.55,0.03,0.08,0.92,
0.007,0.17,0.06,-0.55,0.03,0.08,0.92,
0.01,0.17,0.06,-0.55,0.03,0.08,0.93,
0.01,0.22,0.08,-0.55,0.03,0.08,0.93,
0.012,0.22,0.08,-0.55,0.04,0.08,0.93,
0.014,0.22,0.08,-0.55,0.04,0.08,0.94,
0.015,0.24,0.09,-0.51,0.04,0.08,0.94,
0.017,0.24,0.09,-0.51,0.04,0.08,0.95,
0.02,0.24,0.09,-0.51,0.04,0.08,0.95,
0.02,0.27,0.11,-0.40,0.04,0.08,0.95,
0.022,0.27,0.11,-0.40,0.04,0.07,0.96,
0.024,0.27,0.11,-0.40,0.04,0.07,0.97,
0.024,0.29,0.11,-0.27,0.04,0.07,0.97,
0.026,0.29,0.11,-0.27,0.04,0.07,0.97,
0.03,0.29,0.11,-0.27,0.04,0.07,0.98,
0.03,0.30,0.08,-0.13,0.04,0.07,0.98,
0.032,0.30,0.08,-0.13,0.04,0.07,0.99,
0.036,0.30,0.08,-0.13,0.04,0.07,0.99,
0.036,0.29,0.06,-0.01,0.04,0.07,0.99,
0.037,0.29,0.06,-0.01,0.03,0.07,0.99,
0.039,0.29,0.06,-0.01,0.03,0.07,1.00,
0.039,0.27,0.06,0.11,0.03,0.07,1.00,
0.041,0.27,0.06,0.11,0.03,0.07,1.00,
0.044,0.27,0.06,0.11,0.03,0.07,1.00,
0.044,0.24,0.05,0.17,0.03,0.07,1.00,
0.049,0.24,0.05,0.17,0.03,0.07,1.00,
0.049,0.21,0.05,0.22,0.03,0.07,1.00,
0.049,0.21,0.05,0.22,0.03,0.07,1.00,
0.051,0.21,0.05,0.22,0.03,0.07,1.00,
0.054,0.21,0.05,0.22,0.02,0.07,1.00,
0.054,0.19,0.05,0.24,0.02,0.07,1.00,
0.056,0.19,0.05,0.24,0.02,0.07,1.00,
0.059,0.19,0.05,0.24,0.03,0.07,1.00,
0.059,0.16,0.06,0.21,0.03,0.07,1.00,
0.061,0.16,0.06,0.21,0.03,0.07,1.00,
0.064,0.16,0.06,0.21,0.03,0.07,0.99,
0.064,0.17,0.06,0.20,0.03,0.07,0.99,
0.066,0.17,0.06,0.20,0.02,0.07,0.99,
0.068,0.17,0.06,0.20,0.02,0.07,0.99,
0.068,0.17,0.07,0.16,0.02,0.07,0.99,
0.071,0.17,0.07,0.16,0.03,0.08,0.98,
0.073,0.17,0.07,0.16,0.03,0.08,0.98,
0.073,0.16,0.10,0.10,0.03,0.08,0.98,
0.075,0.16,0.10,0.10,0.02,0.08,0.98,
0.078,0.16,0.10,0.10,0.02,0.08,0.97,
0.078,0.18,0.12,0.00,0.02,0.08,0.97,
0.08,0.18,0.12,0.00,0.02,0.09,0.97,
0.083,0.18,0.12,0.00,0.02,0.09,0.97,
0.083,0.17,0.17,-0.04,0.02,0.09,0.97,
0.085,0.17,0.17,-0.04,0.03,0.09,0.97,
0.088,0.17,0.17,-0.04,0.02,0.09,0.96,
0.088,0.16,0.19,-0.09,0.02,0.09,0.96,
0.09,0.16,0.19,-0.09,0.03,0.09,0.96,
0.093,0.16,0.19,-0.09,0.03,0.09,0.96,
0.093,0.17,0.19,-0.13,0.03,0.09,0.96,
0.095,0.17,0.19,-0.13,0.03,0.09,0.96,
0.098,0.17,0.19,-0.13,0.03,0.08,0.95,
0.098,0.19,0.19,-0.18,0.03,0.08,0.95,
0.1,0.19,0.19,-0.18,0.03,0.08,0.95,
0.103,0.19,0.19,-0.18,0.03,0.08,0.95,
0.103,0.20,0.17,-0.22,0.03,0.08,0.95,
0.105,0.20,0.17,-0.22,0.02,0.08,0.95,
0.107,0.20,0.17,-0.22,0.03,0.08,0.94,
0.108,0.20,0.12,-0.28,0.03,0.08,0.94,
0.11,0.20,0.12,-0.28,0.02,0.08,0.94,
0.112,0.20,0.12,-0.28,0.02,0.08,0.94,
0.113,0.17,0.11,-0.32,0.02,0.08,0.94,
0.115,0.17,0.11,-0.32,0.02,0.08,0.94,
0.117,0.17,0.11,-0.32,0.02,0.08,0.94,
0.118,0.15,0.09,-0.36,0.02,0.08,0.94,
0.119,0.15,0.09,-0.36,0.02,0.08,0.94,
0.122,0.15,0.09,-0.36,0.02,0.08,0.94,
0.123,0.12,0.08,-0.39,0.02,0.08,0.94,
0.124,0.12,0.08,-0.39,0.02,0.08,0.94,
0.127,0.12,0.08,-0.39,0.02,0.08,0.94,
0.127,0.12,0.07,-0.37,0.02,0.08,0.94,
0.131,0.12,0.07,-0.37,0.02,0.07,0.95,
0.132,0.12,0.07,-0.37,0.02,0.07,0.95,
0.132,0.13,0.07,-0.34,0.02,0.07,0.95,
0.134,0.13,0.07,-0.34,0.03,0.07,0.95,
0.137,0.13,0.07,-0.34,0.03,0.07,0.96,
0.137,0.15,0.04,-0.28,0.03,0.07,0.96,
0.139,0.15,0.04,-0.28,0.03,0.07,0.96,
0.142,0.15,0.04,-0.28,0.03,0.07,0.96,
0.142,0.20,0.03,-0.22,0.03,0.07,0.96,
0.145,0.20,0.03,-0.22,0.03,0.07,0.97,
0.147,0.20,0.03,-0.22,0.03,0.07,0.97,
0.147,0.22,0.03,-0.15,0.03,0.07,0.97,
0.149,0.22,0.03,-0.15,0.03,0.07,0.97,
0.152,0.22,0.03,-0.15,0.04,0.07,0.97,
0.152,0.24,0.02,-0.08,0.04,0.07,0.97,
0.154,0.24,0.02,-0.08,0.04,0.07,0.98,
0.157,0.24,0.02,-0.08,0.04,0.07,0.98,
0.157,0.26,0.02,-0.04,0.04,0.07,0.98,
0.159,0.26,0.02,-0.04,0.04,0.07,0.98,
0.162,0.26,0.02,-0.04,0.04,0.07,0.98,
0.163,0.30,0.04,0.02,0.04,0.07,0.98,
0.164,0.30,0.04,0.02,0.04,0.07,0.98,
0.167,0.30,0.04,0.02,0.04,0.06,0.98,
0.167,0.29,0.01,0.04,0.04,0.06,0.98,
0.169,0.29,0.01,0.04,0.04,0.06,0.98,
0.171,0.29,0.01,0.04,0.04,0.06,0.98,
0.172,0.33,-0.03,0.03,0.04,0.06,0.98,
0.174,0.33,-0.03,0.03,0.04,0.06,0.98,
0.176,0.33,-0.03,0.03,0.04,0.06,0.98,
0.177,0.31,-0.07,0.04,0.04,0.06,0.98,
0.178,0.31,-0.07,0.04,0.04,0.06,0.98,
0.181,0.31,-0.07,0.04,0.04,0.06,0.98,
0.182,0.31,-0.09,0.04,0.04,0.06,0.98,
0.183,0.31,-0.09,0.04,0.04,0.06,0.98,
0.186,0.31,-0.09,0.04,0.04,0.06,0.98,
0.186,0.30,-0.08,0.05,0.04,0.06,0.98,
0.188,0.30,-0.08,0.05,0.04,0.05,0.98,
0.191,0.30,-0.08,0.05,0.04,0.05,0.98,
0.191,0.31,-0.12,0.04,0.04,0.05,0.98,
0.193,0.31,-0.12,0.04,0.04,0.05,0.98,
0.196,0.31,-0.12,0.04,0.04,0.05,0.98,
0.196,0.31,-0.16,0.07,0.04,0.05,0.98,
0.198,0.31,-0.16,0.07,0.05,0.04,0.98,
0.201,0.31,-0.16,0.07,0.05,0.04,0.98,
0.201,0.30,-0.20,0.07,0.05,0.04,0.98,
0.203,0.30,-0.20,0.07,0.05,0.04,0.99,
0.205,0.30,-0.20,0.07,0.05,0.04,0.99,
0.206,0.32,-0.24,0.08,0.05,0.04,0.99,
0.208,0.32,-0.24,0.08,0.05,0.04,0.99,
0.211,0.32,-0.24,0.08,0.06,0.04,0.99,
0.212,0.35,-0.26,0.12,0.06,0.04,0.99,
0.213,0.35,-0.26,0.12,0.06,0.04,1.00,
0.215,0.35,-0.26,0.12,0.07,0.04,1.00,
0.216,0.41,-0.26,0.15,0.07,0.04,1.00,
0.218,0.41,-0.26,0.15,0.07,0.04,1.00,
0.22,0.41,-0.26,0.15,0.08,0.05,1.00,
0.221,0.48,-0.24,0.19,0.08,0.05,1.00,
0.222,0.48,-0.24,0.19,0.08,0.05,1.00,
0.225,0.58,-0.22,0.21,0.08,0.05,1.00,
0.226,0.58,-0.22,0.21,0.09,0.05,1.00,
0.228,0.58,-0.22,0.21,0.09,0.05,1.00,
0.23,0.58,-0.22,0.21,0.09,0.05,1.00,
0.23,0.67,-0.18,0.23,0.09,0.05,1.00,
0.232,0.67,-0.18,0.23,0.09,0.05,1.00,
0.235,0.67,-0.18,0.23,0.10,0.06,0.99,
0.235,0.72,-0.17,0.21,0.10,0.06,0.99,
0.237,0.72,-0.17,0.21,0.10,0.05,0.99,
0.24,0.76,-0.14,0.17,0.10,0.05,0.99,
0.24,0.76,-0.14,0.17,0.10,0.05,0.99,
0.242,0.76,-0.14,0.17,0.10,0.06,0.99,
0.251,0.76,-0.14,0.17,0.10,0.06,0.98,
0.252,0.77,-0.14,0.15,0.10,0.06,0.98,
0.252,0.77,-0.14,0.15,0.10,0.06,0.98,
0.252,0.77,-0.14,0.15,0.09,0.06,0.98,
0.252,0.76,-0.12,0.08,0.09,0.06,0.98,
0.253,0.76,-0.12,0.08,0.09,0.06,0.97,
0.254,0.76,-0.12,0.08,0.09,0.06,0.97,
0.255,0.74,-0.10,0.00,0.09,0.06,0.97,
0.257,0.74,-0.10,0.00,0.09,0.06,0.96,
0.26,0.74,-0.10,0.00,0.09,0.06,0.96,
0.26,0.70,-0.08,-0.10,0.09,0.06,0.96,
0.262,0.70,-0.08,-0.10,0.09,0.06,0.95,
0.264,0.70,-0.08,-0.10,0.09,0.06,0.95,
0.265,0.65,-0.10,-0.17,0.09,0.06,0.95,
0.267,0.65,-0.10,-0.17,0.08,0.05,0.95,
0.269,0.65,-0.10,-0.17,0.08,0.05,0.94,
0.269,0.62,-0.14,-0.25,0.08,0.05,0.94,
0.271,0.62,-0.14,-0.25,0.08,0.05,0.94,
0.274,0.57,-0.17,-0.31,0.08,0.05,0.94,
0.274,0.57,-0.17,-0.31,0.08,0.05,0.94,
0.276,0.57,-0.17,-0.31,0.08,0.06,0.94,
0.279,0.57,-0.17,-0.31,0.08,0.06,0.94,
0.279,0.54,-0.16,-0.34,0.08,0.06,0.94,
0.281,0.54,-0.16,-0.34,0.08,0.06,0.94,
0.284,0.53,-0.14,-0.34,0.08,0.06,0.94,
0.284,0.53,-0.14,-0.34,0.07,0.06,0.95,
0.286,0.53,-0.14,-0.34,0.07,0.06,0.95,
0.289,0.53,-0.14,-0.34,0.08,0.06,0.95,
0.289,0.49,-0.14,-0.31,0.08,0.06,0.95,
0.291,0.49,-0.14,-0.31,0.07,0.06,0.95,
0.295,0.47,-0.13,-0.24,0.07,0.06,0.95,
0.295,0.47,-0.13,-0.24,0.07,0.05,0.96,
0.296,0.47,-0.13,-0.24,0.07,0.05,0.96,
0.299,0.47,-0.13,-0.24,0.07,0.05,0.97,
0.299,0.45,-0.15,-0.19,0.07,0.05,0.97,
0.301,0.45,-0.15,-0.19,0.07,0.05,0.97,
0.303,0.45,-0.15,-0.19,0.07,0.05,0.97,
0.304,0.42,-0.17,-0.11,0.07,0.05,0.97,
0.306,0.42,-0.17,-0.11,0.07,0.05,0.97,
0.308,0.42,-0.17,-0.11,0.07,0.05,0.98,
0.309,0.40,-0.19,-0.05,0.07,0.05,0.98,
0.311,0.40,-0.19,-0.05,0.07,0.05,0.98,
0.313,0.40,-0.19,-0.05,0.07,0.05,0.98,
0.313,0.38,-0.21,0.01,0.07,0.05,0.98,
0.316,0.38,-0.21,0.01,0.06,0.04,0.98,
0.318,0.38,-0.21,0.01,0.06,0.04,0.99,
0.318,0.34,-0.23,0.06,0.06,0.04,0.99,
0.32,0.34,-0.23,0.06,0.06,0.04,0.99,
0.323,0.34,-0.23,0.06,0.06,0.04,0.99,
0.323,0.31,-0.25,0.10,0.06,0.04,0.99,
0.325,0.31,-0.25,0.10,0.06,0.03,0.99,
0.331,0.31,-0.25,0.10,0.06,0.03,0.99,
0.331,0.26,-0.31,0.11,0.06,0.03,0.99,
0.331,0.26,-0.31,0.11,0.05,0.03,0.99,
0.333,0.26,-0.31,0.11,0.05,0.03,0.98,
0.333,0.23,-0.34,0.11,0.05,0.03,0.98,
0.335,0.23,-0.34,0.11,0.05,0.03,0.98,
0.338,0.23,-0.34,0.11,0.05,0.03,0.98,
0.338,0.18,-0.36,0.10,0.05,0.03,0.98,
0.34,0.18,-0.36,0.10,0.05,0.03,0.98,
0.342,0.18,-0.36,0.10,0.05,0.03,0.98,
0.343,0.16,-0.39,0.07,0.05,0.03,0.98,
0.345,0.16,-0.39,0.07,0.05,0.03,0.98,
0.348,0.16,-0.39,0.07,0.05,0.03,0.98,
0.348,0.14,-0.39,0.04,0.05,0.03,0.98,
0.35,0.14,-0.39,0.04,0.05,0.02,0.98,
0.352,0.14,-0.39,0.04,0.04,0.02,0.98,
0.353,0.11,-0.39,0.02,0.04,0.02,0.98,
0.355,0.11,-0.39,0.02,0.04,0.03,0.98,
0.358,0.11,-0.39,0.02,0.04,0.03,0.98,
0.358,0.08,-0.41,0.02,0.04,0.03,0.98,
0.36,0.08,-0.41,0.02,0.05,0.02,0.98,
0.363,0.08,-0.41,0.02,0.05,0.02,0.98,
0.363,0.07,-0.40,0.03,0.05,0.02,0.98,
0.365,0.07,-0.40,0.03,0.05,0.02,0.98,
0.367,0.07,-0.40,0.03,0.05,0.02,0.98,
0.367,0.08,-0.41,0.02,0.05,0.02,0.98,
0.369,0.08,-0.41,0.02,0.05,0.02,0.98,
0.372,0.08,-0.41,0.02,0.05,0.02,0.97,
0.372,0.08,-0.42,0.01,0.05,0.02,0.97,
0.374,0.08,-0.42,0.01,0.05,0.02,0.98,
0.377,0.08,-0.42,0.01,0.05,0.02,0.97,
0.378,0.07,-0.45,0.00,0.05,0.02,0.97,
0.379,0.07,-0.45,0.00,0.05,0.02,0.97,
0.382,0.07,-0.45,0.00,0.05,0.02,0.97,
0.382,0.07,-0.46,-0.01,0.05,0.02,0.97,
0.384,0.07,-0.46,-0.01,0.05,0.02,0.97,
0.387,0.07,-0.46,-0.01,0.05,0.02,0.97,
0.387,0.06,-0.47,-0.04,0.05,0.02,0.97,
0.389,0.06,-0.47,-0.04,0.05,0.02,0.97,
0.391,0.06,-0.47,-0.04,0.05,0.01,0.97,
0.392,0.06,-0.48,-0.07,0.05,0.01,0.97,
0.394,0.06,-0.48,-0.07,0.05,0.01,0.96,
0.397,0.06,-0.48,-0.07,0.05,0.01,0.96,
0.397,0.04,-0.49,-0.07,0.05,0.01,0.96,
0.399,0.04,-0.49,-0.07,0.05,0.01,0.96,
0.401,0.04,-0.49,-0.07,0.05,0.01,0.96,
0.402,0.04,-0.51,-0.10,0.05,0.01,0.96,
0.404,0.04,-0.51,-0.10,0.05,0.01,0.96,
0.406,0.04,-0.51,-0.10,0.05,0.01,0.96,
0.407,0.03,-0.53,-0.11,0.05,0.01,0.96,
0.409,0.03,-0.53,-0.11,0.05,0.01,0.96,
0.411,0.03,-0.53,-0.11,0.05,0.00,0.97,
0.411,0.02,-0.55,-0.12,0.05,0.00,0.97,
0.414,0.02,-0.55,-0.12,0.05,0.00,0.97,
0.417,0.02,-0.55,-0.12,0.05,-0.00,0.97,
0.417,0.02,-0.58,-0.10,0.05,-0.00,0.97,
0.419,0.02,-0.58,-0.10,0.04,-0.01,0.97,
0.421,0.02,-0.58,-0.10,0.04,-0.01,0.98,
0.421,-0.01,-0.63,-0.05,0.04,-0.01,0.98,
0.423,-0.01,-0.63,-0.05,0.04,-0.01,0.98,
0.426,-0.01,-0.63,-0.05,0.03,-0.01,0.99,
0.426,-0.06,-0.69,0.02,0.03,-0.01,0.99,
0.432,-0.06,-0.69,0.02,0.03,-0.01,0.99,
0.432,-0.06,-0.69,0.02,0.03,-0.02,1.00,
0.432,-0.15,-0.72,0.11,0.03,-0.02,1.00,
0.433,-0.15,-0.72,0.11,0.03,-0.02,1.00,
0.436,-0.15,-0.72,0.11,0.02,-0.03,1.00,
0.436,-0.21,-0.74,0.19,0.02,-0.03,1.00,
0.438,-0.21,-0.74,0.19,0.02,-0.03,1.01,
0.44,-0.21,-0.74,0.19,0.01,-0.03,1.01,
0.441,-0.28,-0.81,0.28,0.01,-0.03,1.01,
0.443,-0.28,-0.81,0.28,0.01,-0.03,1.02,
0.445,-0.28,-0.81,0.28,0.01,-0.03,1.02,
0.446,-0.38,-0.86,0.35,0.01,-0.03,1.02,
0.448,-0.38,-0.86,0.35,0.00,-0.04,1.02,
0.45,-0.38,-0.86,0.35,-0.00,-0.04,1.02,
0.45,-0.46,-0.89,0.41,-0.00,-0.04,1.02,
0.452,-0.46,-0.89,0.41,-0.00,-0.04,1.02,
0.455,-0.46,-0.89,0.41,-0.01,-0.04,1.02,
0.455,-0.53,-0.92,0.43,-0.01,-0.04,1.02,
0.458,-0.53,-0.92,0.43,-0.01,-0.04,1.02,
0.46,-0.53,-0.92,0.43,-0.01,-0.04,1.02,
0.46,-0.58,-0.93,0.43,-0.01,-0.04,1.02,
0.462,-0.58,-0.93,0.43,-0.01,-0.04,1.01,
0.465,-0.58,-0.93,0.43,-0.01,-0.04,1.01,
0.465,-0.62,-0.92,0.40,-0.01,-0.04,1.01,
0.467,-0.62,-0.92,0.40,-0.01,-0.04,1.01,
0.47,-0.62,-0.92,0.40,-0.01,-0.04,1.00,
0.47,-0.66,-0.94,0.35,-0.01,-0.04,1.00,
0.472,-0.66,-0.94,0.35,-0.01,-0.04,1.00,
0.475,-0.66,-0.94,0.35,-0.01,-0.04,1.00,
0.475,-0.67,-0.91,0.29,-0.01,-0.04,1.00,
0.477,-0.67,-0.91,0.29,-0.01,-0.04,0.99,
0.48,-0.67,-0.91,0.29,-0.01,-0.04,0.99,
0.48,-0.65,-0.88,0.22,-0.01,-0.04,0.99,
0.482,-0.65,-0.88,0.22,-0.01,-0.03,0.99,
0.485,-0.65,-0.88,0.22,-0.00,-0.03,0.98,
0.485,-0.63,-0.87,0.13,-0.00,-0.03,0.98,
0.487,-0.63,-0.87,0.13,-0.00,-0.03,0.98,
0.489,-0.63,-0.87,0.13,0.00,-0.03,0.98,
0.49,-0.59,-0.83,0.07,0.00,-0.03,0.98,
0.492,-0.59,-0.83,0.07,0.00,-0.03,0.97,
0.495,-0.59,-0.83,0.07,0.01,-0.03,0.97,
0.495,-0.55,-0.78,0.00,0.01,-0.03,0.97,
0.497,-0.55,-0.78,0.00,0.01,-0.03,0.97,
0.5,-0.55,-0.78,0.00,0.01,-0.03,0.96,
0.5,-0.50,-0.77,-0.05,0.01,-0.03,0.96,
0.502,-0.50,-0.77,-0.05,0.01,-0.03,0.96,
0.504,-0.50,-0.77,-0.05,0.01,-0.03,0.96,
0.504,-0.49,-0.77,-0.11,0.01,-0.03,0.96,
0.506,-0.49,-0.77,-0.11,0.01,-0.03,0.96,
0.51,-0.49,-0.77,-0.11,0.01,-0.03,0.96,
0.511,-0.47,-0.75,-0.15,0.01,-0.03,0.96,
0.512,-0.47,-0.75,-0.15,0.01,-0.03,0.96,
0.514,-0.47,-0.75,-0.15,0.01,-0.03,0.96,
0.514,-0.46,-0.76,-0.17,0.01,-0.03,0.96,
0.516,-0.46,-0.76,-0.17,0.01,-0.03,0.96,
0.519,-0.46,-0.76,-0.17,0.00,-0.03,0.96,
0.519,-0.49,-0.76,-0.17,0.00,-0.03,0.96,
0.521,-0.49,-0.76,-0.17,0.00,-0.04,0.96,
0.524,-0.49,-0.76,-0.17,-0.00,-0.04,0.96,
0.524,-0.54,-0.79,-0.16,-0.00,-0.04,0.96,
0.527,-0.54,-0.79,-0.16,-0.01,-0.04,0.96,
0.529,-0.54,-0.79,-0.16,-0.01,-0.04,0.96,
0.529,-0.60,-0.83,-0.14,-0.01,-0.04,0.96,
0.531,-0.60,-0.83,-0.14,-0.01,-0.04,0.96,
0.534,-0.60,-0.83,-0.14,-0.02,-0.04,0.96,
0.534,-0.67,-0.84,-0.14,-0.02,-0.04,0.96,
0.536,-0.67,-0.84,-0.14,-0.02,-0.04,0.96,
0.538,-0.67,-0.84,-0.14,-0.02,-0.04,0.96,
0.539,-0.75,-0.85,-0.13,-0.02,-0.04,0.96,
0.541,-0.75,-0.85,-0.13,-0.03,-0.04,0.96,
0.547,-0.75,-0.85,-0.13,-0.03,-0.04,0.96,
0.548,-0.82,-0.84,-0.13,-0.03,-0.04,0.96,
0.548,-0.82,-0.84,-0.13,-0.03,-0.04,0.96,
0.548,-0.82,-0.84,-0.13,-0.03,-0.03,0.96,
0.548,-0.89,-0.82,-0.14,-0.03,-0.03,0.96,
0.551,-0.89,-0.82,-0.14,-0.03,-0.03,0.96,
0.553,-0.89,-0.82,-0.14,-0.02,-0.03,0.96,
0.553,-0.90,-0.78,-0.15,-0.02,-0.03,0.96,
0.555,-0.90,-0.78,-0.15,-0.02,-0.03,0.96,
0.558,-0.90,-0.78,-0.15,-0.02,-0.02,0.96,
0.559,-0.88,-0.72,-0.14,-0.02,-0.02,0.96,
0.561,-0.88,-0.72,-0.14,-0.01,-0.02,0.96,
0.563,-0.88,-0.72,-0.14,-0.01,-0.02,0.96,
0.563,-0.83,-0.65,-0.14,-0.01,-0.02,0.96,
0.565,-0.83,-0.65,-0.14,-0.01,-0.01,0.96,
0.568,-0.83,-0.65,-0.14,-0.01,-0.01,0.96,
0.569,-0.76,-0.57,-0.11,-0.01,-0.01,0.96,
0.57,-0.76,-0.57,-0.11,-0.00,-0.00,0.96,
0.573,-0.76,-0.57,-0.11,0.00,-0.00,0.97,
0.573,-0.71,-0.48,-0.11,0.00,-0.00,0.97,
0.575,-0.71,-0.48,-0.11,0.00,0.00,0.97,
0.578,-0.71,-0.48,-0.11,0.01,0.01,0.97,
0.578,-0.64,-0.40,-0.08,0.01,0.01,0.97,
0.58,-0.64,-0.40,-0.08,0.01,0.01,0.98,
0.583,-0.64,-0.40,-0.08,0.01,0.01,0.98,
0.584,-0.59,-0.32,-0.03,0.01,0.01,0.98,
0.585,-0.59,-0.32,-0.03,0.01,0.02,0.98,
0.587,-0.59,-0.32,-0.03,0.02,0.02,0.99,
0.588,-0.54,-0.25,0.04,0.02,0.02,0.99,
0.59,-0.54,-0.25,0.04,0.02,0.03,0.99,
0.593,-0.50,-0.16,0.13,0.02,0.03,0.99,
0.594,-0.50,-0.16,0.13,0.02,0.03,1.00,
0.595,-0.50,-0.16,0.13,0.02,0.03,1.00,
0.597,-0.50,-0.16,0.13,0.02,0.03,1.00,
0.598,-0.43,-0.09,0.20,0.02,0.03,1.00,
0.6,-0.43,-0.09,0.20,0.02,0.03,1.00,
0.602,-0.43,-0.09,0.20,0.02,0.04,1.00,
0.603,-0.42,-0.04,0.24,0.02,0.04,1.00,
0.604,-0.42,-0.04,0.24,0.02,0.04,1.00,
0.607,-0.42,-0.04,0.24,0.01,0.04,1.00,
0.607,-0.45,-0.00,0.28,0.01,0.04,1.00,
0.61,-0.45,-0.00,0.28,0.01,0.04,1.00,
0.612,-0.45,-0.00,0.28,0.01,0.04,1.00,
0.613,-0.48,0.01,0.29,0.01,0.04,1.00,
0.615,-0.48,0.01,0.29,0.01,0.04,0.99,
0.617,-0.53,0.03,0.25,0.01,0.04,0.99,
0.617,-0.53,0.03,0.25,0.01,0.04,0.99,
0.619,-0.53,0.03,0.25,0.01,0.03,0.99,
0.622,-0.53,0.03,0.25,0.01,0.03,0.99,
0.622,-0.56,0.00,0.18,0.01,0.03,0.99,
0.624,-0.56,0.00,0.18,0.00,0.03,0.98,
0.627,-0.56,0.00,0.18,0.00,0.03,0.97,
0.628,-0.57,-0.02,0.11,0.00,0.03,0.97,
0.629,-0.57,-0.02,0.11,-0.00,0.03,0.97,
0.632,-0.57,-0.02,0.11,-0.00,0.03,0.96,
0.632,-0.60,-0.02,0.01,-0.00,0.03,0.96,
0.634,-0.60,-0.02,0.01,-0.00,0.03,0.96,
0.637,-0.60,-0.02,0.01,-0.00,0.03,0.96,
0.637,-0.63,-0.06,-0.09,-0.00,0.03,0.96,
0.639,-0.63,-0.06,-0.09,-0.01,0.03,0.95,
0.642,-0.63,-0.06,-0.09,-0.01,0.03,0.95,
0.642,-0.65,-0.06,-0.17,-0.01,0.03,0.95,
0.649,-0.65,-0.06,-0.17,-0.01,0.03,0.95,
0.649,-0.65,-0.06,-0.17,-0.01,0.03,0.95,
0.65,-0.67,-0.06,-0.22,-0.01,0.03,0.95,
0.65,-0.67,-0.06,-0.22,-0.02,0.03,0.95,
0.651,-0.67,-0.06,-0.22,-0.02,0.03,0.96,
0.652,-0.73,-0.06,-0.23,-0.02,0.03,0.96,
0.654,-0.73,-0.06,-0.23,-0.02,0.04,0.96,
0.656,-0.78,-0.01,-0.19,-0.02,0.04,0.96,
0.656,-0.78,-0.01,-0.19,-0.02,0.04,0.96,
0.658,-0.78,-0.01,-0.19,-0.02,0.04,0.97,
0.661,-0.78,-0.01,-0.19,-0.03,0.04,0.97,
0.661,-0.83,0.03,-0.15,-0.03,0.04,0.97,
0.663,-0.83,0.03,-0.15,-0.03,0.04,0.98,
0.666,-0.83,0.03,-0.15,-0.03,0.04,0.98,
0.666,-0.86,0.04,-0.06,-0.03,0.04,0.98,
0.668,-0.86,0.04,-0.06,-0.03,0.04,0.98,
0.671,-0.86,0.04,-0.06,-0.03,0.04,0.99,
0.671,-0.92,0.06,0.04,-0.03,0.04,0.99,
0.673,-0.92,0.06,0.04,-0.03,0.04,0.99,
0.676,-0.92,0.06,0.04,-0.03,0.04,0.99,
0.677,-0.91,0.08,0.11,-0.03,0.04,0.99,
0.678,-0.91,0.08,0.11,-0.03,0.04,1.00,
0.681,-0.91,0.08,0.11,-0.03,0.04,1.00,
0.681,-0.89,0.08,0.18,-0.03,0.04,1.00,
0.683,-0.89,0.08,0.18,-0.03,0.04,1.01,
0.686,-0.89,0.08,0.18,-0.02,0.05,1.01,
0.686,-0.89,0.10,0.24,-0.02,0.05,1.01,
0.688,-0.89,0.10,0.24,-0.02,0.05,1.01,
0.69,-0.84,0.14,0.32,-0.02,0.05,1.01,
0.691,-0.84,0.14,0.32,-0.02,0.05,1.01,
0.693,-0.84,0.14,0.32,-0.02,0.05,1.01,
0.695,-0.84,0.14,0.32,-0.02,0.05,1.01,
0.696,-0.79,0.20,0.36,-0.02,0.05,1.01,
0.698,-0.79,0.20,0.36,-0.02,0.05,1.01,
0.7,-0.79,0.20,0.36,-0.02,0.05,1.01,
0.7,-0.77,0.22,0.35,-0.02,0.05,1.01,
0.702,-0.77,0.22,0.35,-0.02,0.05,1.01,
0.705,-0.77,0.22,0.35,-0.02,0.05,1.00,
0.705,-0.75,0.21,0.33,-0.02,0.05,1.00,
0.707,-0.75,0.21,0.33,-0.01,0.05,1.00,
0.711,-0.75,0.21,0.33,-0.01,0.05,1.00,
0.711,-0.75,0.22,0.27,-0.01,0.05,1.00,
0.713,-0.75,0.22,0.27,-0.01,0.05,0.99,
0.715,-0.75,0.22,0.27,-0.01,0.05,0.99,
0.715,-0.69,0.23,0.22,-0.01,0.05,0.99,
0.717,-0.69,0.23,0.22,-0.01,0.05,0.99,
0.72,-0.69,0.23,0.22,-0.00,0.05,0.98,
0.72,-0.62,0.25,0.16,-0.00,0.05,0.98,
0.722,-0.62,0.25,0.16,-0.00,0.05,0.98,
0.725,-0.62,0.25,0.16,-0.01,0.05,0.98,
0.725,-0.57,0.26,0.09,-0.01,0.05,0.98,
0.732,-0.57,0.26,0.09,-0.01,0.05,0.98,
0.733,-0.57,0.26,0.09,-0.01,0.06,0.98,
0.733,-0.57,0.28,0.05,-0.01,0.06,0.98,
0.733,-0.57,0.28,0.05,-0.02,0.06,0.98,
0.734,-0.57,0.28,0.05,-0.02,0.06,0.97,
0.735,-0.60,0.29,0.00,-0.02,0.06,0.97,
0.737,-0.60,0.29,0.00,-0.02,0.06,0.97,
0.74,-0.60,0.29,0.00,-0.02,0.06,0.97,
0.74,-0.66,0.31,-0.03,-0.02,0.06,0.97,
0.743,-0.66,0.31,-0.03,-0.03,0.06,0.96,
0.744,-0.66,0.31,-0.03,-0.03,0.06,0.96,
0.745,-0.71,0.33,-0.10,-0.03,0.06,0.96,
0.746,-0.71,0.33,-0.10,-0.03,0.06,0.96,
0.749,-0.71,0.33,-0.10,-0.03,0.06,0.96,
0.749,-0.73,0.33,-0.12,-0.03,0.06,0.96,
0.751,-0.73,0.33,-0.12,-0.03,0.06,0.96,
0.754,-0.73,0.33,-0.12,-0.03,0.06,0.96,
0.756,-0.75,0.34,-0.16,-0.03,0.06,0.96,
0.756,-0.75,0.34,-0.16,-0.03,0.06,0.96,
0.759,-0.75,0.34,-0.16,-0.04,0.06,0.96,
0.759,-0.77,0.36,-0.16,-0.04,0.06,0.96,
0.761,-0.77,0.36,-0.16,-0.04,0.06,0.96,
0.764,-0.77,0.36,-0.16,-0.03,0.06,0.96,
0.764,-0.79,0.39,-0.16,-0.03,0.06,0.96,
0.766,-0.79,0.39,-0.16,-0.03,0.07,0.96,
0.769,-0.79,0.39,-0.16,-0.03,0.07,0.97,
0.769,-0.78,0.41,-0.14,-0.03,0.07,0.97,
0.771,-0.78,0.41,-0.14,-0.03,0.07,0.97,
0.774,-0.78,0.41,-0.14,-0.03,0.07,0.98,
0.774,-0.74,0.43,-0.09,-0.03,0.07,0.98,
0.776,-0.74,0.43,-0.09,-0.02,0.07,0.98,
0.778,-0.74,0.43,-0.09,-0.02,0.07,0.98,
0.779,-0.69,0.46,-0.02,-0.02,0.07,0.98,
0.781,-0.69,0.46,-0.02,-0.01,0.07,0.99,
0.783,-0.69,0.46,-0.02,-0.01,0.07,0.99,
0.783,-0.62,0.48,0.03,-0.01,0.07,0.99,
0.786,-0.62,0.48,0.03,-0.01,0.07,0.99,
0.789,-0.62,0.48,0.03,-0.00,0.08,1.00,
0.789,-0.55,0.52,0.11,-0.00,0.08,1.00,
0.791,-0.55,0.52,0.11,-0.00,0.08,1.00,
0.793,-0.55,0.52,0.11,0.00,0.08,1.00,
0.794,-0.48,0.55,0.17,0.00,0.08,1.00,
0.796,-0.48,0.55,0.17,-0.00,0.08,1.00,
0.798,-0.48,0.55,0.17,-0.00,0.08,1.00,
0.798,-0.43,0.59,0.21,-0.00,0.08,1.00,
0.8,-0.43,0.59,0.21,-0.00,0.08,1.00,
0.803,-0.43,0.59,0.21,-0.00,0.08,1.00,
0.803,-0.43,0.60,0.23,-0.00,0.08,1.00,
0.805,-0.43,0.60,0.23,-0.01,0.08,1.00,
0.809,-0.43,0.60,0.23,-0.00,0.08,1.00,
0.81,-0.44,0.60,0.24,-0.00,0.08,1.00,
0.81,-0.44,0.60,0.24,-0.01,0.08,1.00,
0.813,-0.44,0.60,0.24,-0.01,0.07,1.00,
0.814,-0.46,0.58,0.21,-0.01,0.07,1.00,
0.815,-0.46,0.58,0.21,-0.01,0.07,1.00,
0.818,-0.46,0.58,0.21,-0.02,0.07,1.00,
0.818,-0.49,0.56,0.19,-0.02,0.07,1.00,
0.82,-0.49,0.56,0.19,-0.02,0.07,1.00,
0.823,-0.49,0.56,0.19,-0.03,0.07,1.00,
0.823,-0.55,0.52,0.19,-0.03,0.07,1.00,
0.826,-0.55,0.52,0.19,-0.03,0.06,1.00,
0.828,-0.55,0.52,0.19,-0.04,0.06,1.00,
0.828,-0.62,0.48,0.18,-0.04,0.06,1.00,
0.83,-0.62,0.48,0.18,-0.04,0.06,1.00,
0.832,-0.62,0.48,0.18,-0.05,0.06,1.00,
0.833,-0.72,0.45,0.21,-0.05,0.06,1.00,
0.835,-0.72,0.45,0.21,-0.05,0.06,1.01,
0.837,-0.72,0.45,0.21,-0.06,0.06,1.01,
0.838,-0.80,0.42,0.24,-0.06,0.06,1.01,
0.84,-0.80,0.42,0.24,-0.06,0.06,1.01,
0.848,-0.80,0.42,0.24,-0.06,0.06,1.01,
0.849,-0.90,0.42,0.28,-0.06,0.06,1.01,
0.849,-0.90,0.42,0.28,-0.06,0.06,1.01,
0.849,-0.90,0.42,0.28,-0.06,0.06,1.02,
0.849,-0.95,0.41,0.32,-0.06,0.06,1.02,
0.849,-0.95,0.41,0.32,-0.06,0.06,1.02,
0.852,-0.95,0.41,0.32,-0.06,0.06,1.02,
0.852,-0.96,0.43,0.36,-0.06,0.06,1.02,
0.854,-0.96,0.43,0.36,-0.06,0.06,1.02,
0.857,-0.96,0.43,0.36,-0.05,0.06,1.02,
0.858,-0.94,0.42,0.40,-0.05,0.06,1.02,
0.86,-0.94,0.42,0.40,-0.05,0.06,1.02,
0.862,-0.94,0.42,0.40,-0.04,0.06,1.02,
0.863,-0.87,0.45,0.42,-0.04,0.06,1.02,
0.864,-0.87,0.45,0.42,-0.04,0.06,1.02,
0.867,-0.87,0.45,0.42,-0.03,0.07,1.02,
0.868,-0.78,0.47,0.43,-0.03,0.07,1.02,
0.869,-0.78,0.47,0.43,-0.03,0.07,1.02,
0.871,-0.78,0.47,0.43,-0.03,0.07,1.01,
0.872,-0.66,0.52,0.41,-0.03,0.07,1.01,
0.874,-0.66,0.52,0.41,-0.02,0.07,1.01,
0.877,-0.66,0.52,0.41,-0.02,0.07,1.01,
0.877,-0.58,0.53,0.34,-0.02,0.07,1.01,
0.879,-0.58,0.53,0.34,-0.02,0.08,1.00,
0.881,-0.58,0.53,0.34,-0.02,0.08,1.00,
0.882,-0.50,0.58,0.26,-0.02,0.08,1.00,
0.884,-0.50,0.58,0.26,-0.01,0.08,0.99,
0.886,-0.50,0.58,0.26,-0.01,0.09,0.98,
0.886,-0.44,0.64,0.16,-0.01,0.09,0.98,
0.888,-0.44,0.64,0.16,-0.01,0.09,0.98,
0.892,-0.44,0.64,0.16,-0.01,0.09,0.97,
0.892,-0.40,0.70,0.05,-0.01,0.09,0.97,
0.894,-0.40,0.70,0.05,-0.01,0.09,0.97,
0.896,-0.36,0.72,-0.06,-0.01,0.09,0.97,
0.896,-0.36,0.72,-0.06,-0.01,0.09,0.96,
0.898,-0.36,0.72,-0.06,-0.00,0.09,0.96,
0.901,-0.36,0.72,-0.06,-0.00,0.09,0.95,
0.901,-0.30,0.72,-0.18,-0.00,0.09,0.95,
0.903,-0.30,0.72,-0.18,-0.00,0.09,0.95,
0.906,-0.30,0.72,-0.18,-0.00,0.09,0.95,
0.906,-0.26,0.74,-0.26,-0.00,0.09,0.95,
0.909,-0.26,0.74,-0.26,-0.00,0.09,0.95,
0.911,-0.25,0.74,-0.28,-0.00,0.09,0.95,
0.911,-0.25,0.74,-0.28,-0.00,0.09,0.95,
0.913,-0.25,0.74,-0.28,-0.01,0.09,0.95,
0.916,-0.25,0.74,-0.28,-0.01,0.09,0.95,
0.916,-0.24,0.73,-0.29,-0.01,0.09,0.95,
0.918,-0.24,0.73,-0.29,-0.01,0.08,0.95,
0.92,-0.24,0.73,-0.29,-0.01,0.08,0.95,
0.921,-0.27,0.71,-0.29,-0.01,0.08,0.95,
0.923,-0.27,0.71,-0.29,-0.02,0.08,0.96,
0.926,-0.27,0.71,-0.29,-0.02,0.08,0.96,
0.926,-0.33,0.68,-0.26,-0.02,0.08,0.96,
0.928,-0.33,0.68,-0.26,-0.02,0.08,0.97,
0.93,-0.33,0.68,-0.26,-0.02,0.08,0.97,
0.931,-0.36,0.65,-0.19,-0.02,0.08,0.97,
0.933,-0.36,0.65,-0.19,-0.02,0.07,0.98,
0.935,-0.36,0.65,-0.19,-0.02,0.07,0.99,
0.935,-0.40,0.62,-0.08,-0.02,0.07,0.99,
0.937,-0.40,0.62,-0.08,-0.03,0.07,0.99,
0.94,-0.40,0.62,-0.08,-0.03,0.07,0.99,
0.941,-0.41,0.58,0.03,-0.03,0.07,0.99,
0.947,-0.41,0.58,0.03,-0.03,0.07,1.00,
0.948,-0.41,0.58,0.03,-0.03,0.06,1.00,
0.948,-0.43,0.55,0.11,-0.03,0.06,1.00,
0.948,-0.43,0.55,0.11,-0.03,0.06,1.00,
0.95,-0.43,0.55,0.11,-0.03,0.06,1.00,
0.95,-0.44,0.51,0.17,-0.03,0.06,1.00,
0.952,-0.44,0.51,0.17,-0.03,0.06,1.00,
0.955,-0.44,0.51,0.17,-0.03,0.06,1.00,
0.955,-0.41,0.50,0.19,-0.03,0.06,1.00,
0.957,-0.41,0.50,0.19,-0.02,0.06,1.00,
0.96,-0.41,0.50,0.19,-0.02,0.06,1.00,
0.96,-0.40,0.51,0.22,-0.02,0.06,1.00,
0.962,-0.40,0.51,0.22,-0.02,0.07,1.00,
0.965,-0.40,0.51,0.22,-0.02,0.07,1.00,
0.965,-0.37,0.50,0.21,-0.02,0.07,1.00,
0.967,-0.37,0.50,0.21,-0.02,0.07,1.00,
0.969,-0.37,0.50,0.21,-0.02,0.07,0.99,
0.97,-0.32,0.54,0.17,-0.02,0.07,0.99,
0.972,-0.32,0.54,0.17,-0.02,0.07,0.99,
0.975,-0.32,0.54,0.17,-0.02,0.07,0.99,
0.976,-0.28,0.57,0.14,-0.02,0.07,0.99,
0.977,-0.28,0.57,0.14,-0.02,0.07,0.98,
0.98,-0.28,0.57,0.14,-0.02,0.07,0.98,
0.98,-0.25,0.57,0.07,-0.02,0.07,0.98,
0.982,-0.25,0.57,0.07,-0.02,0.07,0.98,
0.984,-0.25,0.57,0.07,-0.02,0.07,0.97,
0.984,-0.23,0.57,0.01,-0.02,0.07,0.97,
0.986,-0.23,0.57,0.01,-0.02,0.07,0.97,
0.989,-0.23,0.57,0.01,-0.02,0.07,0.97,
0.989,-0.24,0.60,-0.05,-0.02,0.07,0.97,
0.991,-0.24,0.60,-0.05,-0.02,0.07,0.97,
0.994,-0.24,0.60,-0.05,-0.02,0.07,0.96,
0.994,-0.24,0.60,-0.11,-0.02,0.07,0.96,
0.997,-0.24,0.60,-0.11,-0.02,0.07,0.96,
0.999,-0.24,0.60,-0.11,-0.02,0.07,0.96,
0.999,-0.24,0.61,-0.17,-0.02,0.07,0.96,
1.001,-0.24,0.61,-0.17,-0.02,0.07,0.96,
1.004,-0.24,0.61,-0.17,-0.03,0.07,0.96,
1.004,-0.24,0.60,-0.21,-0.03,0.07,0.96,
1.006,-0.24,0.60,-0.21,-0.03,0.07,0.95,
1.009,-0.24,0.60,-0.21,-0.03,0.07,0.96,
1.009,-0.26,0.58,-0.24,-0.03,0.07,0.96,
1.011,-0.26,0.58,-0.24,-0.03,0.06,0.96,
1.014,-0.29,0.57,-0.25,-0.03,0.06,0.96,
1.015,-0.29,0.57,-0.25,-0.03,0.06,0.95,
1.016,-0.29,0.57,-0.25,-0.03,0.06,0.95,
1.018,-0.29,0.57,-0.25,-0.03,0.06,0.95,
1.019,-0.28,0.53,-0.25,-0.03,0.06,0.95,
1.021,-0.28,0.53,-0.25,-0.03,0.06,0.95,
1.024,-0.28,0.53,-0.25,-0.03,0.06,0.95,
1.025,-0.29,0.52,-0.25,-0.03,0.06,0.95,
1.038,-0.29,0.52,-0.25,-0.03,0.06,0.96,
1.038,-0.29,0.52,-0.25,-0.03,0.07,0.96,
1.039,-0.28,0.53,-0.25,-0.03,0.07,0.96,
1.039,-0.28,0.53,-0.25,-0.03,0.07,0.96,
1.039,-0.28,0.53,-0.25,-0.02,0.07,0.96,
1.039,-0.25,0.55,-0.23,-0.02,0.07,0.96,
1.04,-0.25,0.55,-0.23,-0.02,0.08,0.97,
1.04,-0.25,0.55,-0.23,-0.01,0.08,0.97,
1.04,-0.21,0.61,-0.19,-0.01,0.08,0.97,
1.04,-0.21,0.61,-0.19,-0.01,0.08,0.98,
1.049,-0.21,0.61,-0.19,-0.00,0.08,0.98,
1.05,-0.14,0.67,-0.10,-0.00,0.08,0.98,
1.05,-0.14,0.67,-0.10,0.01,0.09,0.98,
1.05,-0.14,0.67,-0.10,0.01,0.09,0.99,
1.05,-0.02,0.73,-0.01,0.01,0.09,0.99,
1.051,-0.02,0.73,-0.01,0.02,0.09,1.00,
1.053,-0.02,0.73,-0.01,0.03,0.09,1.00,
1.053,0.11,0.75,0.08,0.03,0.09,1.00,
1.055,0.11,0.75,0.08,0.03,0.09,1.01,
1.058,0.11,0.75,0.08,0.04,0.09,1.01,
1.058,0.27,0.79,0.19,0.04,0.09,1.01,
1.06,0.27,0.79,0.19,0.04,0.09,1.01,
1.063,0.27,0.79,0.19,0.04,0.09,1.01,
1.063,0.38,0.81,0.26,0.04,0.09,1.01,
1.065,0.38,0.81,0.26,0.04,0.09,1.01,
1.067,0.38,0.81,0.26,0.04,0.09,1.01,
1.067,0.45,0.82,0.26,0.04,0.09,1.01,
1.07,0.45,0.82,0.26,0.05,0.09,1.00,
1.072,0.45,0.82,0.26,0.04,0.09,1.00,
1.073,0.47,0.83,0.25,0.04,0.09,1.00,
1.075,0.47,0.83,0.25,0.04,0.09,1.00,
1.077,0.47,0.83,0.25,0.04,0.09,1.00,
1.077,0.46,0.82,0.20,0.04,0.09,1.00,
1.08,0.46,0.82,0.20,0.04,0.09,0.99,
1.083,0.46,0.82,0.20,0.03,0.09,0.99,
1.083,0.40,0.79,0.16,0.03,0.09,0.99,
1.084,0.40,0.79,0.16,0.03,0.09,0.99,
1.087,0.40,0.79,0.16,0.03,0.09,0.99,
1.087,0.38,0.77,0.10,0.03,0.09,0.99,
1.09,0.38,0.77,0.10,0.02,0.08,0.99,
1.092,0.38,0.77,0.10,0.02,0.08,0.99,
1.093,0.30,0.77,0.07,0.02,0.08,0.99,
1.094,0.30,0.77,0.07,0.01,0.08,0.99,
1.097,0.30,0.77,0.07,0.01,0.08,0.99,
1.097,0.25,0.72,0.06,0.01,0.08,0.99,
1.099,0.25,0.72,0.06,0.01,0.08,1.00,
1.102,0.25,0.72,0.06,0.01,0.08,1.00,
1.102,0.20,0.68,0.09,0.01,0.08,1.00,
1.104,0.20,0.68,0.09,0.01,0.08,1.00,
1.108,0.20,0.68,0.09,0.01,0.08,1.00,
1.109,0.21,0.65,0.16,0.01,0.08,1.00,
1.109,0.21,0.65,0.16,0.01,0.08,1.01,
1.112,0.21,0.65,0.16,0.01,0.08,1.01,
1.112,0.17,0.68,0.21,0.01,0.08,1.01,
1.114,0.17,0.68,0.21,0.00,0.08,1.01,
1.117,0.17,0.68,0.21,0.00,0.08,1.01,
1.117,0.16,0.68,0.24,0.00,0.08,1.01,
1.119,0.16,0.68,0.24,0.00,0.08,1.01,
1.121,0.16,0.68,0.24,0.00,0.08,1.01,
1.122,0.14,0.70,0.27,0.00,0.08,1.01,
1.124,0.14,0.70,0.27,0.01,0.08,1.01,
1.126,0.14,0.70,0.27,0.01,0.08,1.01,
1.126,0.12,0.71,0.29,0.01,0.08,1.01,
1.128,0.12,0.71,0.29,0.01,0.09,1.01,
1.131,0.12,0.71,0.29,0.02,0.09,1.01,
1.131,0.18,0.73,0.30,0.02,0.09,1.01,
1.133,0.18,0.73,0.30,0.02,0.09,1.01,
1.136,0.18,0.73,0.30,0.03,0.10,1.01,
1.136,0.26,0.76,0.29,0.03,0.10,1.01,
1.138,0.26,0.76,0.29,0.03,0.10,1.01,
1.143,0.26,0.76,0.29,0.04,0.10,1.01,
1.143,0.37,0.82,0.29,0.04,0.10,1.01,
1.143,0.37,0.82,0.29,0.04,0.10,1.01,
1.146,0.37,0.82,0.29,0.04,0.10,1.01,
1.146,0.47,0.87,0.27,0.04,0.10,1.01,
1.148,0.47,0.87,0.27,0.05,0.11,1.00,
1.151,0.47,0.87,0.27,0.05,0.11,1.01,
1.151,0.55,0.89,0.24,0.05,0.11,1.01,
1.153,0.55,0.89,0.24,0.05,0.11,1.00,
1.155,0.55,0.89,0.24,0.06,0.11,1.00,
1.156,0.61,0.93,0.21,0.06,0.11,1.00,
1.158,0.61,0.93,0.21,0.06,0.11,1.00,
1.161,0.61,0.93,0.21,0.06,0.11,1.00,
1.161,0.67,0.93,0.19,0.06,0.11,1.00,
1.163,0.67,0.93,0.19,0.06,0.11,0.99,
1.165,0.67,0.93,0.19,0.06,0.11,0.99,
1.165,0.70,0.96,0.14,0.06,0.11,0.99,
1.168,0.70,0.96,0.14,0.06,0.11,0.99,
1.17,0.70,0.96,0.14,0.06,0.10,0.99,
1.17,0.73,0.95,0.09,0.06,0.10,0.99,
1.173,0.73,0.95,0.09,0.06,0.10,0.98,
1.175,0.73,0.95,0.09,0.06,0.10,0.98,
1.176,0.70,0.86,0.04,0.06,0.10,0.98,
1.177,0.70,0.86,0.04,0.05,0.09,0.98,
1.18,0.67,0.80,0.00,0.05,0.09,0.98,
1.181,0.67,0.80,0.00,0.05,0.09,0.98,
1.182,0.67,0.80,0.00,0.05,0.09,0.98,
1.185,0.67,0.80,0.00,0.05,0.08,0.99,
1.185,0.65,0.74,-0.01,0.05,0.08,0.99,
1.187,0.65,0.74,-0.01,0.05,0.08,0.99,
1.191,0.65,0.74,-0.01,0.05,0.08,0.99,
1.191,0.64,0.68,0.01,0.05,0.08,0.99,
1.192,0.64,0.68,0.01,0.05,0.08,1.00,
1.195,0.64,0.68,0.01,0.05,0.08,1.00,
1.195,0.64,0.66,0.06,0.05,0.08,1.00,
1.197,0.64,0.66,0.06,0.05,0.08,1.01,
1.2,0.64,0.66,0.06,0.04,0.07,1.01,
1.2,0.63,0.63,0.16,0.04,0.07,1.01,
1.202,0.63,0.63,0.16,0.04,0.07,1.02,
1.205,0.59,0.56,0.24,0.04,0.07,1.02,
1.205,0.59,0.56,0.24,0.04,0.07,1.02,
1.207,0.59,0.56,0.24,0.03,0.07,1.02,
1.21,0.54,0.54,0.34,0.03,0.07,1.02,
1.211,0.54,0.54,0.34,0.03,0.07,1.03,
1.212,0.54,0.54,0.34,0.03,0.07,1.03,
1.214,0.54,0.54,0.34,0.02,0.07,1.03,
1.215,0.46,0.50,0.40,0.02,0.07,1.03,
1.217,0.46,0.50,0.40,0.02,0.07,1.03,
1.22,0.46,0.50,0.40,0.02,0.07,1.03,
1.22,0.42,0.48,0.45,0.02,0.07,1.03,
1.222,0.42,0.48,0.45,0.02,0.07,1.03,
1.224,0.42,0.48,0.45,0.02,0.06,1.03,
1.225,0.40,0.49,0.46,0.02,0.06,1.03,
1.226,0.40,0.49,0.46,0.02,0.07,1.03,
1.229,0.40,0.49,0.46,0.02,0.06,1.02,
1.229,0.37,0.46,0.43,0.02,0.06,1.02,
1.231,0.37,0.46,0.43,0.02,0.06,1.02,
1.234,0.37,0.46,0.43,0.02,0.06,1.02,
1.234,0.41,0.45,0.40,0.02,0.06,1.02,
1.237,0.41,0.45,0.40,0.02,0.06,1.02,
1.239,0.41,0.45,0.40,0.02,0.06,1.01,
1.239,0.44,0.41,0.33,0.02,0.06,1.01,
1.246,0.44,0.41,0.33,0.02,0.06,1.01,
1.247,0.44,0.41,0.33,0.02,0.05,1.01,
1.249,0.44,0.38,0.28,0.02,0.05,1.01,
1.249,0.44,0.38,0.28,0.02,0.05,1.00,
1.249,0.44,0.38,0.28,0.02,0.05,1.00,
1.25,0.47,0.34,0.20,0.02,0.05,1.00,
1.251,0.47,0.34,0.20,0.02,0.05,1.00,
1.254,0.47,0.34,0.20,0.02,0.05,1.00,
1.254,0.47,0.33,0.14,0.02,0.05,1.00,
1.256,0.47,0.33,0.14,0.02,0.05,0.99,
1.259,0.47,0.33,0.14,0.02,0.05,0.99,
1.259,0.47,0.31,0.11,0.02,0.05,0.99,
1.261,0.47,0.31,0.11,0.02,0.05,0.99,
1.263,0.47,0.31,0.11,0.02,0.05,0.99,
1.263,0.47,0.29,0.05,0.02,0.05,0.99,
1.265,0.47,0.29,0.05,0.02,0.05,0.99,
1.268,0.47,0.29,0.05,0.01,0.05,0.99,
1.268,0.46,0.28,0.06,0.01,0.05,0.99,
1.271,0.46,0.28,0.06,0.01,0.05,0.99,
1.273,0.46,0.28,0.06,0.01,0.05,1.00,
1.273,0.45,0.29,0.07,0.01,0.05,1.00,
1.275,0.45,0.29,0.07,0.01,0.05,1.00,
1.278,0.45,0.29,0.07,0.01,0.05,1.00,
1.278,0.41,0.26,0.08,0.01,0.05,1.00,
1.28,0.41,0.26,0.08,0.01,0.05,1.01,
1.283,0.41,0.26,0.08,0.01,0.05,1.01,
1.283,0.39,0.27,0.13,0.01,0.05,1.01,
1.285,0.39,0.27,0.13,0.01,0.05,1.01,
1.288,0.39,0.27,0.13,0.00,0.05,1.01,
1.288,0.37,0.26,0.20,0.00,0.05,1.01,
1.29,0.37,0.26,0.20,0.00,0.05,1.02,
1.293,0.37,0.26,0.20,0.00,0.05,1.02,
1.293,0.37,0.25,0.25,0.00,0.05,1.02,
1.295,0.37,0.25,0.25,0.00,0.05,1.02,
1.298,0.37,0.25,0.25,0.00,0.05,1.02,
1.298,0.36,0.24,0.30,0.00,0.05,1.02,
1.3,0.36,0.24,0.30,0.00,0.05,1.02,
1.303,0.38,0.25,0.35,0.00,0.05,1.02,
1.303,0.38,0.25,0.35,0.01,0.05,1.02,
1.305,0.38,0.25,0.35,0.01,0.06,1.02,
1.308,0.38,0.25,0.35,0.01,0.06,1.02,
1.308,0.38,0.25,0.35,0.01,0.06,1.02,
1.31,0.38,0.25,0.35,0.02,0.06,1.02,
1.312,0.38,0.25,0.35,0.02,0.06,1.02,
1.313,0.45,0.28,0.31,0.02,0.06,1.02,
1.315,0.45,0.28,0.31,0.03,0.06,1.01,
1.317,0.45,0.28,0.31,0.03,0.07,1.01,
1.318,0.54,0.31,0.29,0.03,0.07,1.01,
1.319,0.54,0.31,0.29,0.04,0.07,1.00,
1.323,0.54,0.31,0.29,0.04,0.07,1.00,
1.323,0.64,0.32,0.23,0.04,0.07,1.00,
1.326,0.64,0.32,0.23,0.05,0.07,1.00,
1.327,0.64,0.32,0.23,0.05,0.08,0.99,
1.328,0.73,0.36,0.14,0.05,0.08,0.99,
1.329,0.73,0.36,0.14,0.06,0.08,0.99,
1.332,0.73,0.36,0.14,0.06,0.08,0.99,
1.332,0.82,0.41,0.07,0.06,0.08,0.99,
1.334,0.82,0.41,0.07,0.07,0.08,0.99,
1.337,0.82,0.41,0.07,0.07,0.08,0.99,
1.337,0.92,0.44,0.02,0.07,0.08,0.99,
1.345,0.92,0.44,0.02,0.08,0.09,0.99,
1.346,0.92,0.44,0.02,0.08,0.09,0.99,
1.346,0.99,0.45,0.02,0.08,0.09,0.99,
1.347,0.99,0.45,0.02,0.08,0.09,0.99,
1.347,0.99,0.45,0.02,0.08,0.09,0.99,
1.347,1.05,0.48,0.01,0.08,0.09,0.99,
1.349,1.05,0.48,0.01,0.08,0.09,0.99,
1.351,1.05,0.48,0.01,0.08,0.09,0.99,
1.352,1.07,0.48,0.01,0.08,0.09,0.99,
1.354,1.07,0.48,0.01,0.08,0.09,1.00,
1.357,1.07,0.48,0.01,0.07,0.09,1.00,
1.357,1.10,0.49,0.05,0.07,0.09,1.00,
1.359,1.10,0.49,0.05,0.07,0.09,1.00,
1.361,1.10,0.49,0.05,0.07,0.09,1.01,
1.362,1.06,0.46,0.11,0.07,0.09,1.01,
1.363,1.06,0.46,0.11,0.06,0.08,1.01,
1.366,1.06,0.46,0.11,0.06,0.08,1.01,
1.366,0.99,0.42,0.18,0.06,0.08,1.01,
1.368,0.99,0.42,0.18,0.06,0.08,1.02,
1.371,0.99,0.42,0.18,0.06,0.08,1.02,
1.371,0.93,0.38,0.23,0.06,0.08,1.02,
1.374,0.93,0.38,0.23,0.05,0.07,1.02,
1.376,0.93,0.38,0.23,0.05,0.07,1.03,
1.376,0.87,0.33,0.30,0.05,0.07,1.03,
1.378,0.87,0.33,0.30,0.05,0.07,1.03,
1.381,0.87,0.33,0.30,0.05,0.07,1.03,
1.381,0.81,0.27,0.37,0.05,0.07,1.03,
1.383,0.81,0.27,0.37,0.05,0.07,1.03,
1.386,0.81,0.27,0.37,0.05,0.06,1.03,
1.386,0.81,0.22,0.42,0.05,0.06,1.03,
1.388,0.81,0.22,0.42,0.05,0.06,1.04,
1.391,0.81,0.22,0.42,0.05,0.06,1.04,
1.391,0.79,0.17,0.43,0.05,0.06,1.04,
1.393,0.79,0.17,0.43,0.05,0.07,1.04,
1.396,0.79,0.17,0.43,0.06,0.07,1.05,
1.396,0.80,0.14,0.45,0.06,0.07,1.05,
1.398,0.80,0.14,0.45,0.06,0.06,1.05,
1.401,0.80,0.14,0.45,0.07,0.06,1.04,
1.401,0.85,0.18,0.51,0.07,0.06,1.04,
1.403,0.85,0.18,0.51,0.07,0.06,1.03,
1.405,0.85,0.18,0.51,0.07,0.06,1.02,
1.406,0.95,0.12,0.50,0.07,0.06,1.02,
1.408,0.95,0.12,0.50,0.07,0.06,1.01,
1.41,0.95,0.12,0.50,0.07,0.06,1.01,
1.411,0.99,0.12,0.35,0.07,0.06,1.01,
1.413,0.99,0.12,0.35,0.08,0.06,1.00,
1.415,0.99,0.12,0.35,0.07,0.06,1.00,
1.416,1.03,0.08,0.20,0.07,0.06,1.00,
1.417,1.03,0.08,0.20,0.07,0.06,0.99,
1.42,1.03,0.08,0.20,0.07,0.06,0.98,
1.42,1.05,0.02,0.07,0.07,0.06,0.98,
1.423,1.05,0.02,0.07,0.07,0.06,0.98,
1.425,1.05,0.02,0.07,0.06,0.06,0.98,
1.426,1.02,0.04,-0.03,0.06,0.06,0.98,
1.427,1.02,0.04,-0.03,0.06,0.06,0.98,
1.43,1.02,0.04,-0.03,0.06,0.07,0.98,
1.43,0.98,0.05,-0.08,0.06,0.07,0.98,
1.432,0.98,0.05,-0.08,0.05,0.07,0.98,
1.435,0.98,0.05,-0.08,0.05,0.07,0.98,
1.435,0.91,0.08,-0.11,0.05,0.07,0.98,
1.437,0.91,0.08,-0.11,0.05,0.07,0.98,
1.44,0.91,0.08,-0.11,0.04,0.07,0.98,
1.44,0.85,0.09,-0.13,0.04,0.07,0.98,
1.442,0.85,0.09,-0.13,0.04,0.06,0.98,
1.445,0.85,0.09,-0.13,0.04,0.06,0.98,
1.445,0.79,0.08,-0.10,0.04,0.06,0.98,
1.447,0.79,0.08,-0.10,0.03,0.06,0.99,
1.449,0.79,0.08,-0.10,0.03,0.06,0.99,
1.45,0.72,0.03,-0.06,0.03,0.06,0.99,
1.452,0.72,0.03,-0.06,0.03,0.05,0.99,
1.454,0.72,0.03,-0.06,0.02,0.05,1.00,
1.455,0.66,-0.03,-0.01,0.02,0.05,1.00,
1.462,0.66,-0.03,-0.01,0.02,0.04,1.00,
1.462,0.66,-0.03,-0.01,0.02,0.04,1.00,
1.462,0.59,-0.12,0.06,0.02,0.04,1.00,
1.462,0.59,-0.12,0.06,0.02,0.04,1.00,
1.464,0.59,-0.12,0.06,0.01,0.04,1.01,
1.464,0.54,-0.18,0.11,0.01,0.04,1.01,
1.466,0.54,-0.18,0.11,0.01,0.04,1.01,
1.469,0.54,-0.18,0.11,0.01,0.04,1.01,
1.469,0.48,-0.22,0.16,0.01,0.04,1.01,
1.471,0.48,-0.22,0.16,0.01,0.04,1.01,
1.474,0.48,-0.22,0.16,0.01,0.04,1.01,
1.475,0.44,-0.27,0.19,0.01,0.04,1.01,
1.476,0.44,-0.27,0.19,0.01,0.04,1.01,
1.479,0.44,-0.27,0.19,0.02,0.04,1.02,
1.479,0.44,-0.28,0.21,0.02,0.04,1.02,
1.481,0.44,-0.28,0.21,0.02,0.04,1.01,
1.483,0.44,-0.28,0.21,0.02,0.04,1.02,
1.484,0.48,-0.29,0.25,0.02,0.04,1.02,
1.486,0.48,-0.29,0.25,0.03,0.04,1.01,
1.489,0.48,-0.29,0.25,0.03,0.05,1.01,
1.49,0.53,-0.27,0.25,0.03,0.05,1.01,
1.491,0.53,-0.27,0.25,0.04,0.05,1.01,
1.494,0.53,-0.27,0.25,0.04,0.05,1.01,
1.494,0.61,-0.22,0.23,0.04,0.05,1.01,
1.496,0.61,-0.22,0.23,0.05,0.05,1.01,
1.498,0.61,-0.22,0.23,0.06,0.06,1.01,
1.498,0.72,-0.18,0.21,0.06,0.06,1.01,
1.501,0.72,-0.18,0.21,0.06,0.06,1.00,
1.503,0.72,-0.18,0.21,0.07,0.06,1.00,
1.503,0.84,-0.13,0.17,0.07,0.06,1.00,
1.505,0.84,-0.13,0.17,0.07,0.06,1.00,
1.508,0.84,-0.13,0.17,0.08,0.07,0.99,
1.509,0.95,-0.10,0.12,0.08,0.07,0.99,
1.511,0.95,-0.10,0.12,0.08,0.07,0.99,
1.513,0.95,-0.10,0.12,0.08,0.07,0.98,
1.513,1.03,-0.06,0.05,0.08,0.07,0.98,
1.515,1.03,-0.06,0.05,0.08,0.07,0.98,
1.518,1.03,-0.06,0.05,0.08,0.07,0.98,
1.518,1.09,-0.04,-0.03,0.08,0.07,0.98,
1.52,1.09,-0.04,-0.03,0.08,0.07,0.98,
1.523,1.09,-0.04,-0.03,0.08,0.07,0.97,
1.523,1.08,-0.03,-0.10,0.08,0.07,0.97,
1.525,1.08,-0.03,-0.10,0.07,0.07,0.97,
1.528,1.08,-0.03,-0.10,0.07,0.07,0.97,
1.528,1.04,-0.03,-0.16,0.07,0.07,0.97,
1.53,1.04,-0.03,-0.16,0.06,0.07,0.97,
1.532,1.04,-0.03,-0.16,0.05,0.07,0.97,
1.533,0.97,-0.04,-0.20,0.05,0.07,0.97,
1.535,0.97,-0.04,-0.20,0.05,0.06,0.97,
1.537,0.97,-0.04,-0.20,0.04,0.06,0.97,
1.538,0.84,-0.09,-0.23,0.04,0.06,0.97,
1.544,0.84,-0.09,-0.23,0.04,0.06,0.97,
1.544,0.84,-0.09,-0.23,0.03,0.05,0.97,
1.545,0.75,-0.15,-0.22,0.03,0.05,0.97,
1.545,0.75,-0.15,-0.22,0.03,0.05,0.98,
1.547,0.75,-0.15,-0.22,0.03,0.05,0.98,
1.547,0.63,-0.21,-0.17,0.03,0.05,0.98,
1.549,0.63,-0.21,-0.17,0.03,0.05,0.98,
1.552,0.63,-0.21,-0.17,0.03,0.05,0.99,
1.553,0.56,-0.25,-0.10,0.03,0.05,0.99,
1.554,0.56,-0.25,-0.10,0.03,0.05,0.99,
1.557,0.56,-0.25,-0.10,0.03,0.04,1.00,
1.557,0.54,-0.30,-0.03,0.03,0.04,1.00,
1.559,0.54,-0.30,-0.03,0.03,0.04,1.00,
1.562,0.54,-0.30,-0.03,0.03,0.04,1.00,
1.562,0.53,-0.32,0.06,0.03,0.04,1.00,
1.564,0.53,-0.32,0.06,0.03,0.04,1.01,
1.567,0.53,-0.32,0.06,0.03,0.04,1.01,
1.567,0.55,-0.35,0.11,0.03,0.04,1.01,
1.569,0.55,-0.35,0.11,0.03,0.05,1.01,
1.572,0.55,-0.35,0.11,0.04,0.04,1.01,
1.572,0.57,-0.36,0.18,0.04,0.04,1.01,
1.574,0.57,-0.36,0.18,0.04,0.05,1.01,
1.577,0.57,-0.36,0.18,0.04,0.05,1.01,
1.577,0.60,-0.34,0.21,0.04,0.05,1.01,
1.579,0.60,-0.34,0.21,0.05,0.05,1.01,
1.581,0.60,-0.34,0.21,0.05,0.05,1.01,
1.581,0.66,-0.33,0.22,0.05,0.05,1.01,
1.584,0.66,-0.33,0.22,0.06,0.05,1.01,
1.586,0.66,-0.33,0.22,0.06,0.05,1.01,
1.586,0.75,-0.30,0.23,0.06,0.05,1.01,
1.589,0.75,-0.30,0.23,0.06,0.05,1.00,
1.591,0.75,-0.30,0.23,0.06,0.05,1.00,
1.592,0.83,-0.30,0.20,0.06,0.05,1.00,
1.594,0.83,-0.30,0.20,0.06,0.05,1.00,
1.596,0.83,-0.30,0.20,0.06,0.05,1.00,
1.597,0.87,-0.29,0.14,0.06,0.05,1.00,
1.598,0.87,-0.29,0.14,0.06,0.05,1.00,
1.601,0.87,-0.29,0.14,0.05,0.05,0.99,
1.601,0.87,-0.27,0.09,0.05,0.05,0.99,
1.603,0.87,-0.27,0.09,0.05,0.05,0.99,
1.606,0.87,-0.27,0.09,0.04,0.05,0.99,
1.606,0.81,-0.28,0.04,0.04,0.05,0.99,
1.608,0.81,-0.28,0.04,0.04,0.05,0.98,
1.611,0.81,-0.28,0.04,0.04,0.05,0.98,
1.611,0.72,-0.30,-0.02,0.04,0.05,0.98,
1.613,0.72,-0.30,-0.02,0.03,0.05,0.98,
1.616,0.72,-0.30,-0.02,0.03,0.04,0.98,
1.616,0.64,-0.33,-0.06,0.03,0.04,0.98,
1.618,0.64,-0.33,-0.06,0.02,0.04,0.98,
1.622,0.64,-0.33,-0.06,0.02,0.04,0.98,
1.622,0.53,-0.38,-0.09,0.02,0.04,0.98,
1.623,0.53,-0.38,-0.09,0.01,0.04,0.97,
1.625,0.53,-0.38,-0.09,0.01,0.03,0.97,
1.626,0.45,-0.43,-0.12,0.01,0.03,0.97,
1.628,0.45,-0.43,-0.12,0.00,0.03,0.97,
1.631,0.45,-0.43,-0.12,-0.00,0.03,0.97,
1.631,0.34,-0.48,-0.14,-0.00,0.03,0.97,
1.633,0.34,-0.48,-0.14,-0.01,0.03,0.97,
1.635,0.34,-0.48,-0.14,-0.01,0.03,0.97,
1.636,0.24,-0.51,-0.16,-0.01,0.03,0.97,
1.638,0.24,-0.51,-0.16,-0.02,0.03,0.97,
1.64,0.24,-0.51,-0.16,-0.02,0.03,0.97,
1.64,0.14,-0.53,-0.16,-0.02,0.03,0.97,
1.642,0.14,-0.53,-0.16,-0.02,0.03,0.97,
1.645,0.14,-0.53,-0.16,-0.02,0.03,0.97,
1.645,0.08,-0.54,-0.18,-0.02,0.03,0.97,
1.648,0.08,-0.54,-0.18,-0.02,0.03,0.97,
1.65,0.08,-0.54,-0.18,-0.01,0.04,0.97,
1.651,0.07,-0.54,-0.20,-0.01,0.04,0.97,
1.652,0.07,-0.54,-0.20,-0.01,0.04,0.97,
1.661,0.07,-0.54,-0.20,-0.01,0.04,0.97,
1.662,0.10,-0.49,-0.19,-0.01,0.04,0.97,
1.662,0.10,-0.49,-0.19,-0.00,0.05,0.97,
1.662,0.10,-0.49,-0.19,0.00,0.05,0.97,
1.663,0.16,-0.44,-0.17,0.00,0.05,0.97,
1.663,0.16,-0.44,-0.17,0.01,0.06,0.97,
1.665,0.16,-0.44,-0.17,0.01,0.06,0.97,
1.665,0.24,-0.38,-0.17,0.01,0.06,0.97,
1.667,0.24,-0.38,-0.17,0.02,0.06,0.97,
1.67,0.24,-0.38,-0.17,0.02,0.06,0.97,
1.67,0.35,-0.31,-0.14,0.02,0.06,0.97,
1.674,0.35,-0.31,-0.14,0.03,0.07,0.97,
1.675,0.35,-0.31,-0.14,0.03,0.07,0.97,
1.676,0.44,-0.26,-0.13,0.03,0.07,0.97,
1.677,0.44,-0.26,-0.13,0.03,0.07,0.98,
1.68,0.44,-0.26,-0.13,0.03,0.07,0.98,
1.68,0.53,-0.22,-0.14,0.03,0.07,0.98,
1.682,0.53,-0.22,-0.14,0.04,0.07,0.98,
1.684,0.53,-0.22,-0.14,0.04,0.07,0.98,
1.684,0.56,-0.22,-0.10,0.04,0.07,0.98,
1.687,0.56,-0.22,-0.10,0.04,0.07,0.98,
1.689,0.56,-0.22,-0.10,0.04,0.07,0.98,
1.69,0.59,-0.23,-0.09,0.04,0.07,0.98,
1.692,0.59,-0.23,-0.09,0.03,0.07,0.97,
1.694,0.59,-0.23,-0.09,0.03,0.07,0.97,
1.694,0.57,-0.22,-0.08,0.03,0.07,0.97,
1.696,0.57,-0.22,-0.08,0.03,0.07,0.97,
1.699,0.57,-0.22,-0.08,0.03,0.06,0.97,
1.699,0.53,-0.25,-0.12,0.03,0.06,0.97,
1.701,0.53,-0.25,-0.12,0.02,0.06,0.97,
1.705,0.53,-0.25,-0.12,0.01,0.06,0.97,
1.705,0.46,-0.29,-0.13,0.01,0.06,0.97,
1.706,0.46,-0.29,-0.13,0.01,0.06,0.96,
1.709,0.46,-0.29,-0.13,0.01,0.06,0.96,
1.709,0.37,-0.36,-0.17,0.01,0.06,0.96,
1.711,0.37,-0.36,-0.17,-0.00,0.05,0.96,
1.714,0.37,-0.36,-0.17,-0.01,0.05,0.95,
1.714,0.26,-0.39,-0.23,-0.01,0.05,0.95,
1.716,0.26,-0.39,-0.23,-0.01,0.05,0.95,
1.719,0.26,-0.39,-0.23,-0.01,0.05,0.95,
1.719,0.15,-0.43,-0.28,-0.01,0.05,0.95,
1.722,0.15,-0.43,-0.28,-0.01,0.05,0.94,
1.724,0.15,-0.43,-0.28,-0.02,0.05,0.94,
1.724,0.09,-0.46,-0.35,-0.02,0.05,0.94,
1.726,0.09,-0.46,-0.35,-0.02,0.04,0.94,
1.729,0.09,-0.46,-0.35,-0.02,0.04,0.94,
1.729,0.02,-0.48,-0.40,-0.02,0.04,0.94,
1.731,0.02,-0.48,-0.40,-0.03,0.04,0.94,
1.734,0.02,-0.48,-0.40,-0.03,0.05,0.94,
1.736,-0.03,-0.53,-0.43,-0.03,0.05,0.94,
1.737,-0.03,-0.53,-0.43,-0.03,0.05,0.94,
1.739,-0.03,-0.53,-0.43,-0.03,0.04,0.94,
1.741,-0.08,-0.52,-0.45,-0.03,0.04,0.94,
1.741,-0.08,-0.52,-0.45,-0.03,0.05,0.94,
1.743,-0.08,-0.52,-0.45,-0.02,0.05,0.94,
1.744,-0.10,-0.51,-0.46,-0.02,0.05,0.94,
1.745,-0.10,-0.51,-0.46,-0.02,0.05,0.94,
1.748,-0.08,-0.51,-0.43,-0.02,0.05,0.94,
1.749,-0.08,-0.51,-0.43,-0.02,0.05,0.94,
1.751,-0.08,-0.51,-0.43,-0.02,0.05,0.94,
1.753,-0.03,-0.51,-0.41,-0.02,0.05,0.94,
1.754,-0.03,-0.51,-0.41,-0.02,0.05,0.94,
1.761,-0.03,-0.51,-0.41,-0.02,0.05,0.94,
1.761,-0.03,-0.51,-0.41,-0.02,0.05,0.94,
1.762,0.01,-0.51,-0.39,-0.02,0.05,0.94,
1.762,0.01,-0.51,-0.39,-0.01,0.04,0.94,
1.763,0.01,-0.51,-0.39,-0.01,0.04,0.95,
1.763,0.01,-0.51,-0.37,-0.01,0.04,0.95,
1.765,0.01,-0.51,-0.37,-0.01,0.05,0.95,
1.768,0.01,-0.51,-0.37,-0.01,0.05,0.95,
1.768,0.04,-0.52,-0.34,-0.01,0.05,0.95,
1.77,0.04,-0.52,-0.34,-0.00,0.05,0.95,
1.773,0.04,-0.52,-0.34,-0.00,0.05,0.96,
1.773,0.07,-0.50,-0.28,-0.00,0.05,0.96,
1.775,0.07,-0.50,-0.28,0.00,0.05,0.96,
1.777,0.07,-0.50,-0.28,0.01,0.05,0.97,
1.778,0.12,-0.49,-0.23,0.01,0.05,0.97,
1.78,0.12,-0.49,-0.23,0.01,0.05,0.97,
1.782,0.12,-0.49,-0.23,0.02,0.05,0.98,
1.782,0.20,-0.50,-0.14,0.02,0.05,0.98,
1.785,0.20,-0.50,-0.14,0.02,0.05,0.98,
1.788,0.27,-0.50,-0.06,0.02,0.05,0.98,
1.788,0.27,-0.50,-0.06,0.03,0.05,0.99,
1.79,0.27,-0.50,-0.06,0.03,0.04,0.99,
1.792,0.27,-0.50,-0.06,0.03,0.04,1.00,
1.792,0.35,-0.51,0.06,0.03,0.04,1.00,
1.794,0.35,-0.51,0.06,0.03,0.04,1.00,
1.797,0.35,-0.51,0.06,0.03,0.04,1.00,
1.797,0.34,-0.53,0.13,0.03,0.04,1.00,
1.799,0.34,-0.53,0.13,0.02,0.04,1.00,
1.802,0.34,-0.53,0.13,0.02,0.04,1.00,
1.802,0.33,-0.56,0.19,0.02,0.04,1.00,
1.805,0.33,-0.56,0.19,0.02,0.04,1.00,
1.807,0.33,-0.56,0.19,0.02,0.03,1.00,
1.808,0.28,-0.59,0.20,0.02,0.03,1.00,
1.809,0.28,-0.59,0.20,0.01,0.03,1.00,
1.812,0.28,-0.59,0.20,0.00,0.03,1.00,
1.812,0.21,-0.63,0.20,0.00,0.03,1.00,
1.814,0.21,-0.63,0.20,0.00,0.03,0.99,
1.817,0.21,-0.63,0.20,-0.00,0.03,0.99,
1.817,0.10,-0.66,0.17,-0.00,0.03,0.99,
1.819,0.10,-0.66,0.17,-0.01,0.03,0.99,
1.822,0.10,-0.66,0.17,-0.01,0.03,0.98,
1.822,0.02,-0.67,0.11,-0.01,0.03,0.98,
1.824,0.02,-0.67,0.11,-0.01,0.03,0.98,
1.826,0.02,-0.67,0.11,-0.02,0.02,0.98,
1.827,-0.06,-0.71,0.06,-0.02,0.02,0.98,
1.829,-0.06,-0.71,0.06,-0.02,0.02,0.98,
1.831,-0.06,-0.71,0.06,-0.02,0.02,0.97,
1.832,-0.13,-0.74,0.01,-0.02,0.02,0.97,
1.834,-0.13,-0.74,0.01,-0.02,0.02,0.97,
1.837,-0.13,-0.74,0.01,-0.03,0.02,0.97,
1.837,-0.18,-0.77,-0.05,-0.03,0.02,0.97,
1.843,-0.18,-0.77,-0.05,-0.03,0.02,0.97,
1.844,-0.18,-0.77,-0.05,-0.03,0.02,0.97,
1.844,-0.24,-0.80,-0.10,-0.03,0.02,0.97,
1.844,-0.24,-0.80,-0.10,-0.03,0.02,0.97,
1.846,-0.24,-0.80,-0.10,-0.04,0.02,0.97,
1.846,-0.29,-0.80,-0.12,-0.04,0.02,0.97,
1.848,-0.29,-0.80,-0.12,-0.04,0.02,0.96,
1.851,-0.29,-0.80,-0.12,-0.04,0.02,0.96,
1.851,-0.32,-0.80,-0.14,-0.04,0.02,0.96,
1.86,-0.32,-0.80,-0.14,-0.03,0.02,0.96,
1.861,-0.32,-0.80,-0.14,-0.03,0.01,0.96,
1.861,-0.33,-0.81,-0.16,-0.03,0.01,0.96,
1.861,-0.33,-0.81,-0.16,-0.03,0.02,0.96,
1.861,-0.33,-0.81,-0.16,-0.03,0.02,0.96,
1.861,-0.32,-0.82,-0.19,-0.03,0.02,0.96,
1.863,-0.32,-0.82,-0.19,-0.03,0.02,0.96,
1.866,-0.32,-0.82,-0.19,-0.03,0.02,0.96,
1.866,-0.30,-0.80,-0.20,-0.03,0.02,0.96,
1.868,-0.30,-0.80,-0.20,-0.03,0.02,0.96,
1.871,-0.30,-0.80,-0.20,-0.03,0.02,0.96,
1.871,-0.29,-0.79,-0.21,-0.03,0.02,0.96,
1.873,-0.29,-0.79,-0.21,-0.03,0.02,0.96,
1.875,-0.29,-0.79,-0.21,-0.02,0.02,0.97,
1.875,-0.27,-0.77,-0.16,-0.02,0.02,0.97,
1.878,-0.27,-0.77,-0.16,-0.02,0.02,0.97,
1.88,-0.27,-0.77,-0.16,-0.02,0.02,0.97,
1.88,-0.24,-0.75,-0.13,-0.02,0.02,0.97,
1.882,-0.24,-0.75,-0.13,-0.02,0.02,0.97,
1.885,-0.24,-0.75,-0.13,-0.02,0.02,0.97,
1.885,-0.22,-0.72,-0.10,-0.02,0.02,0.97,
1.888,-0.22,-0.72,-0.10,-0.02,0.02,0.97,
1.89,-0.22,-0.72,-0.10,-0.02,0.02,0.97,
1.891,-0.22,-0.71,-0.09,-0.02,0.02,0.97,
1.893,-0.22,-0.71,-0.09,-0.02,0.03,0.96,
1.895,-0.22,-0.71,-0.09,-0.02,0.02,0.96,
1.895,-0.21,-0.71,-0.12,-0.02,0.02,0.96,
1.897,-0.21,-0.71,-0.12,-0.01,0.02,0.96,
1.9,-0.21,-0.71,-0.12,-0.01,0.03,0.96,
1.9,-0.22,-0.70,-0.15,-0.01,0.03,0.96,
1.902,-0.22,-0.70,-0.15,-0.01,0.03,0.96,
1.905,-0.22,-0.70,-0.15,-0.01,0.03,0.95,
1.905,-0.19,-0.70,-0.18,-0.01,0.03,0.95,
1.907,-0.19,-0.70,-0.18,-0.01,0.03,0.95,
1.909,-0.19,-0.70,-0.18,-0.01,0.02,0.95,
1.91,-0.18,-0.69,-0.23,-0.01,0.02,0.95,
1.912,-0.18,-0.69,-0.23,-0.00,0.03,0.95,
1.915,-0.18,-0.69,-0.23,-0.01,0.03,0.95,
1.915,-0.17,-0.71,-0.26,-0.01,0.03,0.95,
1.917,-0.17,-0.71,-0.26,-0.01,0.03,0.95,
1.919,-0.17,-0.71,-0.26,-0.00,0.02,0.95,
1.919,-0.14,-0.70,-0.27,-0.00,0.02,0.95,
1.922,-0.14,-0.70,-0.27,-0.00,0.03,0.95,
1.925,-0.15,-0.70,-0.28,-0.00,0.03,0.95,
1.925,-0.15,-0.70,-0.28,0.00,0.03,0.95,
1.927,-0.15,-0.70,-0.28,-0.00,0.03,0.95,
1.929,-0.15,-0.70,-0.28,-0.00,0.03,0.95,
1.929,-0.12,-0.69,-0.28,-0.00,0.03,0.95,
1.931,-0.12,-0.69,-0.28,0.00,0.03,0.94,
1.934,-0.12,-0.69,-0.28,0.00,0.03,0.94,
1.934,-0.14,-0.68,-0.30,0.00,0.03,0.94,
1.942,-0.14,-0.68,-0.30,0.00,0.03,0.94,
1.942,-0.14,-0.68,-0.30,0.00,0.03,0.94,
1.943,-0.11,-0.67,-0.31,0.00,0.03,0.94,
1.943,-0.11,-0.67,-0.31,-0.00,0.03,0.95,
1.944,-0.11,-0.67,-0.31,0.00,0.03,0.95,
1.944,-0.12,-0.67,-0.32,0.00,0.03,0.95,
1.946,-0.12,-0.67,-0.32,0.00,0.03,0.94,
1.949,-0.12,-0.67,-0.32,-0.00,0.03,0.95,
1.949,-0.15,-0.65,-0.29,-0.00,0.03,0.95,
1.951,-0.15,-0.65,-0.29,0.00,0.03,0.95,
1.954,-0.15,-0.65,-0.29,0.00,0.03,0.95,
1.954,-0.15,-0.63,-0.29,0.00,0.03,0.95,
1.956,-0.15,-0.63,-0.29,0.01,0.03,0.95,
1.958,-0.15,-0.63,-0.29,0.01,0.03,0.95,
1.959,-0.13,-0.63,-0.25,0.01,0.03,0.95,
1.961,-0.13,-0.63,-0.25,0.01,0.03,0.95,
1.963,-0.13,-0.63,-0.25,0.01,0.03,0.95,
1.964,-0.12,-0.64,-0.24,0.01,0.03,0.95,
1.966,-0.12,-0.64,-0.24,0.01,0.03,0.95,
1.968,-0.12,-0.64,-0.24,0.01,0.03,0.95,
1.969,-0.12,-0.65,-0.24,0.01,0.03,0.95,
1.971,-0.12,-0.65,-0.24,0.01,0.03,0.95,
1.974,-0.12,-0.65,-0.24,0.01,0.03,0.96,
1.974,-0.13,-0.63,-0.21,0.01,0.03,0.96,
1.976,-0.13,-0.63,-0.21,0.01,0.03,0.96,
1.978,-0.13,-0.63,-0.21,0.01,0.03,0.96,
1.978,-0.12,-0.61,-0.19,0.01,0.03,0.96,
1.98,-0.12,-0.61,-0.19,0.01,0.03,0.95,
1.983,-0.12,-0.61,-0.19,0.01,0.03,0.96,
1.983,-0.13,-0.59,-0.17,0.01,0.03,0.96,
1.985,-0.13,-0.59,-0.17,0.00,0.03,0.96,
1.988,-0.13,-0.59,-0.17,0.00,0.03,0.96,
1.989,-0.15,-0.61,-0.18,0.00,0.03,0.96,
1.99,-0.15,-0.61,-0.18,0.00,0.03,0.96,
1.993,-0.15,-0.61,-0.18,0.00,0.03,0.95,
1.993,-0.18,-0.63,-0.17,0.00,0.03,0.95,
1.995,-0.18,-0.63,-0.17,0.00,0.02,0.96,
1.998,-0.18,-0.63,-0.17,0.00,0.02,0.95,
1.998,-0.21,-0.64,-0.18,0.00,0.02,0.95,
2.0,-0.21,-0.64,-0.18,-0.00,0.02,0.95,
2.004,-0.21,-0.64,-0.18,-0.00,0.02,0.95,
2.005,-0.22,-0.65,-0.18,-0.00,0.02,0.95,
2.005,-0.22,-0.65,-0.18,-0.00,0.02,0.95,
2.008,-0.22,-0.65,-0.18,-0.01,0.02,0.95,
2.008,-0.26,-0.64,-0.21,-0.01,0.02,0.95,
2.01,-0.26,-0.64,-0.21,-0.01,0.02,0.95,
2.013,-0.28,-0.65,-0.23,-0.01,0.02,0.95,
2.013,-0.28,-0.65,-0.23,-0.00,0.02,0.94,
2.015,-0.28,-0.65,-0.23,-0.01,0.02,0.95,
2.017,-0.28,-0.65,-0.23,-0.01,0.02,0.94,
2.018,-0.32,-0.65,-0.27,-0.01,0.02,0.94,
2.02,-0.32,-0.65,-0.27,-0.01,0.02,0.94,
2.023,-0.32,-0.65,-0.27,-0.01,0.02,0.95,
2.023,-0.35,-0.64,-0.27,-0.01,0.02,0.95,
2.025,-0.35,-0.64,-0.27,-0.01,0.03,0.95,
2.027,-0.35,-0.64,-0.27,-0.01,0.03,0.95,
2.027,-0.39,-0.60,-0.26,-0.01,0.03,0.95,
2.029,-0.39,-0.60,-0.26,-0.01,0.03,0.95,
2.032,-0.39,-0.60,-0.26,-0.01,0.03,0.96,
2.032,-0.42,-0.57,-0.23,-0.01,0.03,0.96,
2.034,-0.42,-0.57,-0.23,-0.01,0.03,0.96,
2.038,-0.42,-0.57,-0.23,-0.00,0.03,0.96,
2.038,-0.40,-0.56,-0.16,-0.00,0.03,0.96,
2.039,-0.40,-0.56,-0.16,-0.00,0.03,0.97,
2.042,-0.40,-0.56,-0.16,0.00,0.03,0.97,
2.042,-0.35,-0.53,-0.09,0.00,0.03,0.97,
2.044,-0.35,-0.53,-0.09,0.00,0.03,0.97,
2.047,-0.35,-0.53,-0.09,0.01,0.03,0.98,
2.047,-0.29,-0.51,-0.03,0.01,0.03,0.98,
2.049,-0.29,-0.51,-0.03,0.02,0.04,0.98,
2.052,-0.29,-0.51,-0.03,0.02,0.04,0.98,
2.052,-0.25,-0.48,0.02,0.02,0.04,0.98,
2.06,-0.25,-0.48,0.02,0.02,0.04,0.98,
2.06,-0.25,-0.48,0.02,0.02,0.04,0.98,
2.06,-0.17,-0.45,0.06,0.02,0.04,0.98,
2.061,-0.17,-0.45,0.06,0.02,0.04,0.98,
2.063,-0.17,-0.45,0.06,0.02,0.04,0.98,
2.063,-0.16,-0.43,0.05,0.02,0.04,0.98,
2.064,-0.16,-0.43,0.05,0.02,0.04,0.97,
2.066,-0.16,-0.43,0.05,0.02,0.04,0.97,
2.067,-0.12,-0.39,0.05,0.02,0.04,0.97,
2.069,-0.12,-0.39,0.05,0.02,0.04,0.97,
2.071,-0.12,-0.39,0.05,0.02,0.05,0.97,
2.072,-0.11,-0.37,0.01,0.02,0.05,0.97,
2.074,-0.11,-0.37,0.01,0.02,0.05,0.97,
2.076,-0.11,-0.37,0.01,0.02,0.05,0.96,
2.076,-0.12,-0.35,-0.02,0.02,0.05,0.96,
2.078,-0.12,-0.35,-0.02,0.02,0.05,0.96,
2.081,-0.12,-0.35,-0.02,0.02,0.05,0.96,
2.081,-0.14,-0.32,-0.08,0.02,0.05,0.96,
2.083,-0.14,-0.32,-0.08,0.02,0.05,0.95,
2.087,-0.14,-0.32,-0.08,0.02,0.05,0.95,
2.087,-0.18,-0.29,-0.14,0.02,0.05,0.95,
2.088,-0.18,-0.29,-0.14,0.01,0.05,0.95,
2.091,-0.18,-0.29,-0.14,0.01,0.05,0.95,
2.092,-0.21,-0.28,-0.17,0.01,0.05,0.95,
2.093,-0.21,-0.28,-0.17,0.01,0.05,0.95,
2.096,-0.21,-0.28,-0.17,0.01,0.05,0.96,
2.096,-0.25,-0.26,-0.17,0.01,0.05,0.96,
2.098,-0.25,-0.26,-0.17,0.01,0.05,0.96,
2.101,-0.25,-0.26,-0.17,0.00,0.05,0.96,
2.101,-0.29,-0.26,-0.15,0.00,0.05,0.96,
2.103,-0.29,-0.26,-0.15,0.00,0.05,0.96,
2.105,-0.29,-0.26,-0.15,-0.00,0.05,0.96,
2.106,-0.34,-0.24,-0.12,-0.00,0.05,0.96,
2.108,-0.34,-0.24,-0.12,-0.00,0.05,0.97,
2.111,-0.34,-0.24,-0.12,-0.01,0.05,0.97,
2.111,-0.40,-0.22,-0.08,-0.01,0.05,0.97,
2.113,-0.40,-0.22,-0.08,-0.01,0.05,0.98,
2.115,-0.40,-0.22,-0.08,-0.01,0.05,0.98,
2.116,-0.44,-0.22,0.00,-0.01,0.05,0.98,
2.118,-0.44,-0.22,0.00,-0.01,0.05,0.99,
2.121,-0.44,-0.22,0.00,-0.01,0.05,0.99,
2.121,-0.46,-0.22,0.10,-0.01,0.05,0.99,
2.123,-0.46,-0.22,0.10,-0.01,0.05,1.00,
2.125,-0.46,-0.22,0.10,-0.01,0.05,1.00,
2.126,-0.45,-0.23,0.19,-0.01,0.05,1.00,
2.128,-0.45,-0.23,0.19,-0.01,0.05,1.00,
2.13,-0.45,-0.23,0.19,-0.01,0.04,1.01,
2.13,-0.46,-0.23,0.26,-0.01,0.04,1.01,
2.132,-0.46,-0.23,0.26,-0.01,0.04,1.01,
2.135,-0.46,-0.23,0.26,-0.01,0.04,1.01,
2.135,-0.47,-0.24,0.34,-0.01,0.04,1.01,
2.142,-0.47,-0.24,0.34,-0.01,0.04,1.02,
2.143,-0.47,-0.24,0.34,-0.01,0.04,1.02,
2.143,-0.47,-0.25,0.39,-0.01,0.04,1.02,
2.144,-0.47,-0.25,0.39,-0.01,0.04,1.02,
2.145,-0.47,-0.25,0.39,-0.01,0.04,1.01,
2.145,-0.47,-0.27,0.43,-0.01,0.04,1.01,
2.147,-0.47,-0.27,0.43,-0.01,0.04,1.01,
2.15,-0.47,-0.27,0.43,-0.02,0.04,1.01,
2.15,-0.50,-0.28,0.41,-0.02,0.04,1.01,
2.158,-0.50,-0.28,0.41,-0.02,0.04,1.01,
2.158,-0.50,-0.28,0.41,-0.02,0.03,1.01,
2.159,-0.56,-0.31,0.39,-0.02,0.03,1.01,
2.159,-0.56,-0.31,0.39,-0.03,0.04,1.01,
2.159,-0.56,-0.31,0.39,-0.03,0.04,1.00,
2.16,-0.60,-0.30,0.36,-0.03,0.04,1.00,
2.162,-0.60,-0.30,0.36,-0.03,0.04,1.00,
2.164,-0.60,-0.30,0.36,-0.04,0.04,1.00,
2.164,-0.70,-0.28,0.31,-0.04,0.04,1.00,
2.166,-0.70,-0.28,0.31,-0.04,0.04,1.00,
2.169,-0.70,-0.28,0.31,-0.04,0.04,1.00,
2.17,-0.74,-0.26,0.25,-0.04,0.04,1.00,
2.171,-0.74,-0.26,0.25,-0.05,0.05,1.00,
2.174,-0.74,-0.26,0.25,-0.05,0.05,1.00,
2.174,-0.79,-0.19,0.23,-0.05,0.05,1.00,
2.176,-0.79,-0.19,0.23,-0.05,0.05,1.00,
2.179,-0.79,-0.19,0.23,-0.05,0.05,0.99,
2.179,-0.82,-0.16,0.22,-0.05,0.05,0.99,
2.181,-0.82,-0.16,0.22,-0.05,0.05,1.00,
2.184,-0.82,-0.16,0.22,-0.06,0.05,1.00,
2.184,-0.85,-0.15,0.20,-0.06,0.05,1.00,
2.186,-0.85,-0.15,0.20,-0.06,0.05,1.00,
2.189,-0.85,-0.15,0.20,-0.06,0.06,1.00,
2.189,-0.90,-0.09,0.21,-0.06,0.06,1.00,
2.191,-0.90,-0.09,0.21,-0.06,0.06,1.00,
2.194,-0.90,-0.09,0.21,-0.06,0.06,1.00,
2.194,-0.93,-0.04,0.21,-0.06,0.06,1.00,
2.196,-0.93,-0.04,0.21,-0.06,0.06,1.00,
2.198,-0.93,-0.04,0.21,-0.06,0.06,1.01,
2.199,-0.94,0.01,0.24,-0.06,0.06,1.01,
2.201,-0.94,0.01,0.24,-0.06,0.06,1.01,
2.203,-0.94,0.01,0.24,-0.06,0.06,1.01,
2.204,-0.92,0.03,0.28,-0.06,0.06,1.01,
2.206,-0.92,0.03,0.28,-0.06,0.07,1.01,
2.208,-0.92,0.03,0.28,-0.06,0.07,1.01,
2.209,-0.90,0.05,0.33,-0.06,0.07,1.01,
2.211,-0.90,0.05,0.33,-0.05,0.07,1.01,
2.213,-0.90,0.05,0.33,-0.06,0.07,1.02,
2.214,-0.87,0.08,0.34,-0.06,0.07,1.02,
2.215,-0.87,0.08,0.34,-0.06,0.07,1.01,
2.218,-0.87,0.08,0.34,-0.05,0.07,1.01,
2.219,-0.86,0.08,0.37,-0.05,0.07,1.01,
2.221,-0.86,0.08,0.37,-0.05,0.07,1.01,
2.224,-0.86,0.08,0.37,-0.06,0.07,1.01,
2.23,-0.86,0.09,0.36,-0.06,0.07,1.01,
2.23,-0.86,0.09,0.36,-0.05,0.07,1.01,
2.231,-0.86,0.09,0.36,-0.05,0.07,1.01,
2.231,-0.85,0.09,0.33,-0.05,0.07,1.01,
2.232,-0.85,0.09,0.33,-0.06,0.07,1.01,
2.233,-0.84,0.10,0.29,-0.06,0.07,1.01,
2.233,-0.84,0.10,0.29,-0.05,0.07,1.00,
2.241,-0.84,0.10,0.29,-0.05,0.07,1.00,
2.242,-0.84,0.10,0.29,-0.05,0.07,1.00,
2.242,-0.84,0.10,0.26,-0.05,0.07,1.00,
2.243,-0.84,0.10,0.26,-0.05,0.07,1.00,
2.243,-0.84,0.10,0.26,-0.05,0.07,1.00,
2.243,-0.81,0.08,0.21,-0.05,0.07,1.00,
2.245,-0.81,0.08,0.21,-0.05,0.07,0.99,
2.248,-0.81,0.08,0.21,-0.04,0.07,0.99,
2.248,-0.77,0.10,0.19,-0.04,0.07,0.99,
2.25,-0.77,0.10,0.19,-0.04,0.07,0.99,
2.253,-0.77,0.10,0.19,-0.04,0.07,0.99,
2.253,-0.75,0.09,0.16,-0.04,0.07,0.99,
2.255,-0.75,0.09,0.16,-0.04,0.07,0.99,
2.257,-0.75,0.09,0.16,-0.03,0.07,0.99,
2.258,-0.71,0.09,0.16,-0.03,0.07,0.99,
2.26,-0.71,0.09,0.16,-0.03,0.07,0.99,
2.262,-0.71,0.09,0.16,-0.03,0.07,0.99,
2.262,-0.63,0.08,0.15,-0.03,0.07,0.99,
2.265,-0.63,0.08,0.15,-0.03,0.07,0.99,
2.267,-0.63,0.08,0.15,-0.02,0.07,0.99,
2.267,-0.56,0.10,0.15,-0.02,0.07,0.99,
2.269,-0.56,0.10,0.15,-0.02,0.07,0.99,
2.272,-0.56,0.10,0.15,-0.02,0.07,0.99,
2.272,-0.52,0.12,0.14,-0.02,0.07,0.99,
2.274,-0.52,0.12,0.14,-0.01,0.07,0.99,
2.277,-0.52,0.12,0.14,-0.01,0.07,0.99,
2.277,-0.46,0.15,0.15,-0.01,0.07,0.99,
2.279,-0.46,0.15,0.15,-0.01,0.08,0.99,
2.282,-0.46,0.15,0.15,-0.01,0.08,1.00,
2.282,-0.40,0.14,0.14,-0.01,0.08,1.00,
2.284,-0.40,0.14,0.14,-0.01,0.08,1.00,
2.287,-0.40,0.14,0.14,-0.01,0.08,1.00,
2.287,-0.37,0.17,0.15,-0.01,0.08,1.00,
2.289,-0.37,0.17,0.15,-0.00,0.08,0.99,
2.292,-0.37,0.17,0.15,-0.00,0.08,0.99,
2.292,-0.34,0.19,0.16,-0.00,0.08,0.99,
2.294,-0.34,0.19,0.16,-0.00,0.08,0.99,
2.296,-0.34,0.19,0.16,-0.00,0.08,0.99,
2.297,-0.30,0.19,0.14,-0.00,0.08,0.99,
2.299,-0.30,0.19,0.14,-0.00,0.08,0.99,
2.302,-0.30,0.19,0.14,-0.00,0.08,0.99,
2.302,-0.30,0.17,0.13,-0.00,0.08,0.99,
2.304,-0.30,0.17,0.13,-0.01,0.08,0.99,
2.307,-0.30,0.17,0.13,-0.01,0.08,0.99,
2.309,-0.29,0.18,0.13,-0.01,0.08,0.99,
2.309,-0.29,0.18,0.13,-0.01,0.07,0.99,
2.311,-0.29,0.18,0.13,-0.01,0.07,0.99,
2.312,-0.33,0.17,0.11,-0.01,0.07,0.99,
2.313,-0.33,0.17,0.11,-0.01,0.07,0.99,
2.317,-0.33,0.17,0.11,-0.01,0.07,0.99,
2.317,-0.36,0.12,0.08,-0.01,0.07,0.99,
2.319,-0.36,0.12,0.08,-0.01,0.07,0.98,
2.321,-0.36,0.12,0.08,-0.02,0.07,0.98,
2.322,-0.40,0.11,0.06,-0.02,0.07,0.98,
2.324,-0.40,0.11,0.06,-0.02,0.06,0.98,
2.326,-0.40,0.11,0.06,-0.02,0.06,0.98,
2.326,-0.41,0.09,0.03,-0.02,0.06,0.98,
2.328,-0.41,0.09,0.03,-0.01,0.06,0.98,
2.331,-0.41,0.09,0.03,-0.01,0.06,0.98,
2.331,-0.43,0.05,0.02,-0.01,0.06,0.98,
2.334,-0.43,0.05,0.02,-0.01,0.06,0.98,
2.336,-0.43,0.05,0.02,-0.01,0.06,0.98,
2.337,-0.39,0.02,0.01,-0.01,0.06,0.98,
2.338,-0.39,0.02,0.01,-0.01,0.06,0.98,
2.341,-0.39,0.02,0.01,-0.00,0.06,0.98,
2.341,-0.36,-0.00,0.00,-0.00,0.06,0.98,
2.343,-0.36,-0.00,0.00,-0.00,0.06,0.98,
2.346,-0.36,-0.00,0.00,0.00,0.06,0.98,
2.346,-0.31,-0.03,0.01,0.00,0.06,0.98,
2.348,-0.31,-0.03,0.01,0.00,0.06,0.98,
2.351,-0.31,-0.03,0.01,0.00,0.06,0.98,
2.351,-0.26,-0.01,0.01,0.00,0.06,0.98,
2.358,-0.26,-0.01,0.01,0.01,0.06,0.99,
2.359,-0.26,-0.01,0.01,0.01,0.06,0.99,
2.359,-0.21,0.00,0.04,0.01,0.06,0.99,
2.359,-0.21,0.00,0.04,0.02,0.06,0.99,
2.36,-0.21,0.00,0.04,0.02,0.06,0.99,
2.36,-0.12,0.01,0.08,0.02,0.06,0.99,
2.362,-0.12,0.01,0.08,0.02,0.06,0.99,
2.365,-0.12,0.01,0.08,0.02,0.07,1.00,
2.365,-0.07,0.04,0.11,0.02,0.07,1.00,
2.372,-0.07,0.04,0.11,0.02,0.07,1.00,
2.373,-0.07,0.04,0.11,0.03,0.07,1.00,
2.373,-0.03,0.07,0.15,0.03,0.07,1.00,
2.373,-0.03,0.07,0.15,0.02,0.07,1.00,
2.375,-0.03,0.07,0.15,0.02,0.07,1.00,
2.375,0.00,0.09,0.16,0.02,0.07,1.00,
2.377,0.00,0.09,0.16,0.02,0.06,1.00,
2.38,0.00,0.09,0.16,0.02,0.07,1.00,
2.38,-0.01,0.09,0.18,0.02,0.07,1.00,
2.382,-0.01,0.09,0.18,0.02,0.07,1.00,
2.385,-0.01,0.09,0.18,0.02,0.06,1.00,
2.385,-0.02,0.07,0.18,0.02,0.06,1.00,
2.387,-0.02,0.07,0.18,0.02,0.06,1.00,
2.39,-0.02,0.07,0.18,0.01,0.06,1.00,
2.39,-0.03,0.07,0.18,0.01,0.06,1.00,
2.392,-0.03,0.07,0.18,0.01,0.06,1.00,
2.394,-0.03,0.07,0.18,0.01,0.06,1.00,
2.394,-0.07,0.05,0.16,0.01,0.06,1.00,
2.397,-0.07,0.05,0.16,0.01,0.06,1.00,
2.399,-0.07,0.05,0.16,0.01,0.06,1.00,
2.399,-0.11,0.02,0.17,0.01,0.06,1.00,
2.402,-0.11,0.02,0.17,0.01,0.06,1.00,
2.404,-0.11,0.02,0.15,0.01,0.06,1.00,
2.405,-0.11,0.02,0.15,0.01,0.06,1.00,
2.407,-0.11,0.02,0.15,0.01,0.06,1.00,
2.409,-0.11,0.02,0.15,0.00,0.06,0.99,
2.41,-0.14,0.01,0.15,0.00,0.06,0.99,
2.411,-0.14,0.01,0.15,0.00,0.06,1.00,
2.414,-0.14,0.01,0.15,0.01,0.06,1.00,
2.414,-0.16,0.02,0.13,0.01,0.06,1.00,
2.417,-0.16,0.02,0.13,0.01,0.07,0.99,
2.419,-0.16,0.02,0.13,0.01,0.06,0.99,
2.42,-0.15,0.05,0.14,0.01,0.06,0.99,
2.421,-0.15,0.05,0.14,0.01,0.06,0.99,
2.424,-0.15,0.05,0.14,0.01,0.06,0.99,
2.424,-0.12,0.06,0.12,0.01,0.06,0.99,
2.426,-0.12,0.06,0.12,0.01,0.06,0.99,
2.429,-0.12,0.06,0.12,0.01,0.07,0.99,
2.429,-0.10,0.05,0.11,0.01,0.07,0.99,
2.431,-0.10,0.05,0.11,0.02,0.07,0.99,
2.434,-0.10,0.05,0.11,0.02,0.07,0.99,
2.434,-0.06,0.06,0.09,0.02,0.07,0.99,
2.441,-0.06,0.06,0.09,0.02,0.07,0.99,
2.441,-0.06,0.06,0.09,0.02,0.07,0.99,
2.442,-0.02,0.08,0.08,0.02,0.07,0.99,
2.442,-0.02,0.08,0.08,0.03,0.07,0.98,
2.444,-0.02,0.08,0.08,0.03,0.07,0.98,
2.444,0.04,0.09,0.05,0.03,0.07,0.98,
2.446,0.04,0.09,0.05,0.03,0.07,0.98,
2.448,0.04,0.09,0.05,0.03,0.07,0.97,
2.449,0.09,0.12,-0.01,0.03,0.07,0.97,
2.455,0.09,0.12,-0.01,0.03,0.08,0.97,
2.455,0.09,0.12,-0.01,0.03,0.08,0.97,
2.456,0.08,0.14,-0.05,0.03,0.08,0.97,
2.456,0.08,0.14,-0.05,0.02,0.08,0.97,
2.458,0.08,0.14,-0.05,0.02,0.08,0.97,
2.458,0.09,0.16,-0.09,0.02,0.08,0.97,
2.46,0.09,0.16,-0.09,0.02,0.08,0.97,
2.463,0.09,0.16,-0.09,0.02,0.07,0.96,
2.463,0.06,0.15,-0.14,0.02,0.07,0.96,
2.465,0.06,0.15,-0.14,0.02,0.07,0.96,
2.468,0.06,0.15,-0.14,0.02,0.07,0.96,
2.468,0.02,0.14,-0.17,0.02,0.07,0.96,
2.47,0.02,0.14,-0.17,0.01,0.07,0.96,
2.473,0.02,0.14,-0.17,0.01,0.07,0.96,
2.473,-0.00,0.09,-0.20,0.01,0.07,0.96,
2.475,-0.00,0.09,-0.20,0.01,0.06,0.96,
2.478,-0.04,0.06,-0.21,0.01,0.06,0.96,
2.478,-0.04,0.06,-0.21,0.01,0.06,0.96,
2.48,-0.04,0.06,-0.21,0.00,0.06,0.96,
2.483,-0.04,0.06,-0.21,0.00,0.06,0.96,
2.483,-0.08,0.01,-0.21,0.00,0.06,0.96,
2.485,-0.08,0.01,-0.21,0.00,0.06,0.96,
2.488,-0.08,0.01,-0.21,0.00,0.06,0.97,
2.488,-0.12,-0.01,-0.19,0.00,0.06,0.97,
2.49,-0.12,-0.01,-0.19,0.00,0.06,0.97,
2.492,-0.12,-0.01,-0.19,-0.00,0.06,0.97,
2.493,-0.13,-0.03,-0.14,-0.00,0.06,0.97,
2.495,-0.13,-0.03,-0.14,-0.00,0.06,0.97,
2.497,-0.13,-0.03,-0.14,0.00,0.06,0.98,
2.497,-0.14,-0.04,-0.11,0.00,0.06,0.98,
2.5,-0.14,-0.04,-0.11,0.00,0.06,0.98,
2.502,-0.14,-0.04,-0.11,0.00,0.06,0.98,
2.503,-0.14,-0.03,-0.06,0.00,0.06,0.98,
2.505,-0.14,-0.03,-0.06,0.00,0.06,0.98,
2.507,-0.14,-0.03,-0.06,0.01,0.07,0.99,
2.508,-0.10,-0.02,0.00,0.01,0.07,0.99,
2.509,-0.10,-0.02,0.00,0.01,0.07,0.99,
2.512,-0.10,-0.02,0.00,0.02,0.07,0.99,
2.512,-0.08,0.03,0.04,0.02,0.07,0.99,
2.514,-0.08,0.03,0.04,0.02,0.07,0.99,
2.518,-0.08,0.03,0.04,0.02,0.07,0.99,
2.519,0.00,0.04,0.06,0.02,0.07,0.99,
2.52,0.00,0.04,0.06,0.02,0.07,0.99,
2.523,0.00,0.04,0.06,0.03,0.07,0.98,
2.523,0.07,0.07,0.06,0.03,0.07,0.98,
2.525,0.07,0.07,0.06,0.03,0.07,0.98,
2.527,0.07,0.07,0.06,0.03,0.07,0.98,
2.527,0.11,0.11,0.04,0.03,0.07,0.98,
2.529,0.11,0.11,0.04,0.03,0.08,0.98,
2.532,0.11,0.11,0.04,0.03,0.08,0.97,
2.532,0.14,0.12,0.01,0.03,0.08,0.97,
2.535,0.14,0.12,0.01,0.03,0.08,0.97,
2.537,0.14,0.12,0.01,0.03,0.08,0.97,
2.537,0.17,0.15,-0.04,0.03,0.08,0.97,
2.539,0.17,0.15,-0.04,0.03,0.08,0.96,
2.542,0.16,0.16,-0.10,0.03,0.08,0.96,
2.542,0.16,0.16,-0.10,0.03,0.08,0.96,
2.544,0.16,0.16,-0.10,0.03,0.08,0.96,
2.546,0.16,0.16,-0.10,0.02,0.08,0.96,
2.546,0.15,0.19,-0.17,0.02,0.08,0.96,
2.548,0.15,0.19,-0.17,0.02,0.08,0.96,
2.554,0.15,0.19,-0.17,0.02,0.08,0.96,
2.555,0.12,0.20,-0.20,0.02,0.08,0.96,
2.555,0.12,0.20,-0.20,0.02,0.08,0.96,
2.556,0.12,0.20,-0.20,0.02,0.08,0.96,
2.556,0.08,0.19,-0.23,0.02,0.08,0.96,
2.558,0.08,0.19,-0.23,0.02,0.08,0.95,
2.561,0.08,0.19,-0.23,0.02,0.08,0.95,
2.561,0.08,0.18,-0.23,0.02,0.08,0.95,
2.563,0.08,0.18,-0.23,0.02,0.08,0.96,
2.566,0.08,0.18,-0.23,0.02,0.08,0.96,
2.566,0.05,0.15,-0.25,0.02,0.08,0.96,
2.568,0.05,0.15,-0.25,0.02,0.07,0.96,
2.571,0.05,0.15,-0.25,0.02,0.07,0.97,
2.571,0.05,0.11,-0.19,0.02,0.07,0.97,
2.573,0.05,0.11,-0.19,0.02,0.07,0.97,
2.575,0.05,0.11,-0.19,0.02,0.07,0.97,
2.576,0.06,0.09,-0.14,0.02,0.07,0.97,
2.578,0.06,0.09,-0.14,0.02,0.07,0.98,
2.58,0.06,0.09,-0.14,0.02,0.07,0.98,
2.581,0.06,0.07,-0.08,0.02,0.07,0.98,
2.583,0.06,0.07,-0.08,0.02,0.07,0.98,
2.585,0.06,0.07,-0.08,0.02,0.07,0.98,
2.586,0.09,0.05,-0.01,0.02,0.07,0.98,
2.588,0.09,0.05,-0.01,0.02,0.07,0.99,
2.591,0.09,0.05,-0.01,0.02,0.07,0.99,
2.591,0.07,0.05,0.04,0.02,0.07,0.99,
2.593,0.07,0.05,0.04,0.02,0.07,0.99,
2.595,0.07,0.05,0.04,0.02,0.07,1.00,
2.596,0.07,0.02,0.09,0.02,0.07,1.00,
2.598,0.07,0.02,0.09,0.02,0.06,1.00,
2.601,0.07,0.01,0.14,0.02,0.06,1.00,
2.601,0.07,0.01,0.14,0.02,0.07,1.00,
2.603,0.07,0.01,0.14,0.02,0.07,1.00,
2.605,0.07,0.01,0.14,0.02,0.07,1.00,
2.606,0.06,0.01,0.18,0.02,0.07,1.00,
2.608,0.06,0.01,0.18,0.02,0.07,1.01,
2.61,0.06,0.01,0.18,0.02,0.07,1.01,
2.61,0.08,0.02,0.23,0.02,0.07,1.01,
2.612,0.08,0.02,0.23,0.02,0.07,1.01,
2.615,0.08,0.02,0.23,0.02,0.07,1.01,
2.615,0.08,0.01,0.25,0.02,0.07,1.01,
2.618,0.08,0.01,0.25,0.02,0.07,1.01,
2.62,0.08,0.01,0.25,0.02,0.07,1.01,
2.62,0.06,0.01,0.25,0.02,0.07,1.01,
2.622,0.06,0.01,0.25,0.02,0.07,1.00,
2.625,0.06,0.01,0.25,0.02,0.07,1.00,
2.625,0.08,0.02,0.25,0.02,0.07,1.00,
2.627,0.08,0.02,0.25,0.02,0.07,1.00,
2.63,0.08,0.02,0.25,0.02,0.07,1.00,
2.63,0.06,0.03,0.23,0.02,0.07,1.00,
2.632,0.06,0.03,0.23,0.02,0.07,1.00,
2.634,0.06,0.03,0.23,0.02,0.07,1.00,
2.635,0.08,0.04,0.20,0.02,0.07,1.00,
2.637,0.08,0.04,0.20,0.02,0.07,0.99,
2.639,0.08,0.04,0.20,0.02,0.07,0.99,
2.64,0.08,0.05,0.15,0.02,0.07,0.99,
2.642,0.08,0.05,0.15,0.03,0.07,0.99,
2.644,0.08,0.05,0.15,0.03,0.07,0.99,
2.644,0.10,0.05,0.11,0.03,0.07,0.99,
2.646,0.10,0.05,0.11,0.03,0.07,0.99,
2.649,0.10,0.05,0.11,0.03,0.07,0.98,
2.649,0.13,0.06,0.08,0.03,0.07,0.98,
2.656,0.13,0.06,0.08,0.04,0.07,0.94,
2.657,0.13,0.06,0.08,0.05,0.07,0.84,
2.657,0.15,0.07,0.03,0.05,0.07,0.84,
2.657,0.15,0.07,0.03,0.07,0.08,0.78,
2.659,0.15,0.07,0.03,0.08,0.09,0.81,
2.659,0.30,0.05,-0.86,0.08,0.09,0.81,
2.661,0.30,0.05,-0.86,0.08,0.08,0.86,
2.664,0.30,0.05,-0.86,0.07,0.07,0.90,
2.664,0.60,0.18,-1.83,0.07,0.07,0.90,
2.666,0.60,0.18,-1.83,0.06,0.06,0.91,
2.669,0.60,0.18,-1.83,0.05,0.06,0.92,
2.669,0.56,0.09,-0.96,0.05,0.06,0.92,
2.671,0.56,0.09,-0.96,0.05,0.07,0.93,
2.673,0.56,0.09,-0.96,0.05,0.08,0.93,
2.673,0.43,0.00,-0.60,0.05,0.08,0.93,
2.676,0.43,0.00,-0.60,0.05,0.08,0.94,
2.678,0.43,0.00,-0.60,0.05,0.08,0.95,
2.678,0.35,0.09,-0.48,0.05,0.08,0.95,
2.68,0.35,0.09,-0.48,0.05,0.08,0.96,
2.683,0.35,0.09,-0.48,0.04,0.07,0.98,
2.684,0.34,0.18,-0.29,0.04,0.07,0.98,
2.685,0.34,0.18,-0.29,0.04,0.07,0.99,
2.688,0.34,0.18,-0.29,0.03,0.06,1.00,
2.688,0.30,0.14,-0.07,0.03,0.06,1.00,
2.69,0.30,0.14,-0.07,0.03,0.06,1.01,
2.693,0.30,0.14,-0.07,0.03,0.06,1.03,
2.693,0.22,0.05,0.14,0.03,0.06,1.03,
2.695,0.22,0.05,0.14,0.02,0.06,1.04,
2.699,0.14,-0.00,0.40,0.02,0.06,1.04,
2.699,0.14,-0.00,0.40,0.02,0.06,1.05,
2.7,0.14,-0.00,0.40,0.02,0.07,1.06,
2.703,0.14,-0.00,0.40,0.01,0.07,1.07,
2.703,0.04,0.03,0.68,0.01,0.07,1.07,
2.705,0.04,0.03,0.68,0.01,0.06,1.07,
2.708,0.04,0.03,0.68,0.01,0.06,1.07,
2.708,0.00,0.05,0.84,0.01,0.06,1.07,
2.71,0.00,0.05,0.84,0.01,0.06,1.06,
2.712,0.00,0.05,0.84,0.02,0.06,1.05,
2.714,-0.04,0.01,0.87,0.02,0.06,1.05,
2.715,-0.04,0.01,0.87,0.02,0.06,1.04,
2.718,-0.04,0.01,0.87,0.02,0.07,1.03,
2.718,-0.01,-0.01,0.76,0.02,0.07,1.03,
2.72,-0.01,-0.01,0.76,0.02,0.07,1.02,
2.722,-0.01,-0.01,0.76,0.02,0.07,1.00,
2.722,0.03,0.01,0.55,0.02,0.07,1.00,
2.725,0.03,0.01,0.55,0.02,0.07,0.99,
2.728,0.03,0.01,0.55,0.02,0.08,0.97,
2.728,0.06,0.06,0.28,0.02,0.08,0.97,
2.73,0.06,0.06,0.28,0.03,0.08,0.96,
2.732,0.06,0.06,0.28,0.03,0.07,0.95,
2.737,0.07,0.08,0.00,0.03,0.07,0.95,
2.737,0.07,0.08,0.00,0.04,0.08,0.94,
2.737,0.07,0.08,0.00,0.04,0.08,0.94,
2.738,0.12,0.08,-0.22,0.04,0.08,0.94,
