
time,ax,ay,az,gFx,gFy,gFz,
0.0,-0.00,0.08,0.15,0.05,0.11,0.96,
0.001,-0.00,0.05,-0.02,0.05,0.11,0.96,
0.001,-0.00,0.05,-0.02,0.05,0.11,0.95,
0.002,-0.00,0.05,-0.02,0.06,0.11,0.95,
0.002,0.01,0.05,-0.16,0.06,0.11,0.95,
0.003,0.01,0.05,-0.16,0.06,0.11,0.94,
0.006,0.01,0.05,-0.16,0.06,0.11,0.94,
0.006,0.02,0.04,-0.26,0.06,0.11,0.94,
0.008,0.02,0.04,-0.26,0.06,0.11,0.94,
0.011,0.02,0.04,-0.26,0.06,0.11,0.94,
0.011,0.08,0.06,-0.31,0.06,0.11,0.94,
0.013,0.08,0.06,-0.31,0.06,0.12,0.94,
0.015,0.08,0.06,-0.31,0.06,0.11,0.94,
0.016,0.10,0.05,-0.33,0.06,0.11,0.94,
0.018,0.10,0.05,-0.33,0.06,0.12,0.94,
0.02,0.10,0.05,-0.33,0.06,0.12,0.94,
0.02,0.11,0.06,-0.34,0.06,0.12,0.94,
0.023,0.11,0.06,-0.34,0.07,0.12,0.94,
0.025,0.11,0.06,-0.34,0.07,0.12,0.94,
0.025,0.13,0.07,-0.32,0.07,0.12,0.94,
0.028,0.13,0.07,-0.32,0.07,0.12,0.95,
0.03,0.13,0.07,-0.32,0.07,0.12,0.95,
0.03,0.15,0.09,-0.30,0.07,0.12,0.95,
0.032,0.15,0.09,-0.30,0.07,0.12,0.95,
0.035,0.15,0.09,-0.30,0.07,0.12,0.95,
0.035,0.17,0.11,-0.26,0.07,0.12,0.95,
0.037,0.17,0.11,-0.26,0.07,0.12,0.96,
0.041,0.17,0.11,-0.26,0.07,0.12,0.96,
0.041,0.18,0.11,-0.22,0.07,0.12,0.96,
0.043,0.18,0.11,-0.22,0.07,0.12,0.96,
0.045,0.18,0.11,-0.22,0.06,0.12,0.97,
0.045,0.17,0.11,-0.17,0.06,0.12,0.97,
0.047,0.17,0.11,-0.17,0.06,0.12,0.97,
0.05,0.17,0.11,-0.17,0.06,0.12,0.97,
0.05,0.15,0.12,-0.09,0.06,0.12,0.97,
0.052,0.15,0.12,-0.09,0.06,0.12,0.98,
0.055,0.15,0.12,-0.09,0.06,0.12,0.98,
0.055,0.10,0.12,-0.02,0.06,0.12,0.98,
0.057,0.10,0.12,-0.02,0.05,0.11,0.98,
0.059,0.10,0.12,-0.02,0.05,0.11,0.99,
0.06,0.08,0.10,0.05,0.05,0.11,0.99,
0.062,0.08,0.10,0.05,0.05,0.11,0.99,
0.064,0.08,0.10,0.05,0.05,0.11,0.99,
0.064,0.05,0.09,0.11,0.05,0.11,0.99,
0.067,0.05,0.09,0.11,0.05,0.11,0.99,
0.07,0.05,0.09,0.11,0.05,0.11,1.00,
0.07,-0.00,0.06,0.16,0.05,0.11,1.00,
0.072,-0.00,0.06,0.16,0.04,0.11,1.00,
0.075,-0.00,0.06,0.16,0.04,0.11,1.00,
0.075,-0.03,0.06,0.20,0.04,0.11,1.00,
0.077,-0.03,0.06,0.20,0.04,0.11,1.00,
0.079,-0.03,0.06,0.20,0.04,0.11,1.00,
0.079,-0.05,0.05,0.23,0.04,0.11,1.00,
0.082,-0.05,0.05,0.23,0.04,0.11,1.00,
0.084,-0.05,0.05,0.23,0.04,0.11,1.00,
0.084,-0.06,0.04,0.22,0.04,0.11,1.00,
0.087,-0.06,0.04,0.22,0.04,0.11,0.99,
0.089,-0.06,0.04,0.22,0.04,0.11,0.99,
0.089,-0.08,0.03,0.20,0.04,0.11,0.99,
0.091,-0.08,0.03,0.20,0.04,0.11,0.99,
0.094,-0.08,0.03,0.20,0.04,0.11,0.99,
0.094,-0.10,0.02,0.16,0.04,0.11,0.99,
0.096,-0.10,0.02,0.16,0.04,0.11,0.98,
0.099,-0.10,0.02,0.16,0.04,0.11,0.98,
0.099,-0.11,0.04,0.11,0.04,0.11,0.98,
0.101,-0.11,0.04,0.11,0.04,0.11,0.97,
0.104,-0.11,0.04,0.11,0.04,0.11,0.97,
0.104,-0.12,0.03,0.04,0.04,0.11,0.97,
0.107,-0.12,0.03,0.04,0.04,0.11,0.97,
0.108,-0.12,0.03,0.04,0.04,0.11,0.96,
0.109,-0.10,0.03,-0.04,0.04,0.11,0.96,
0.111,-0.10,0.03,-0.04,0.04,0.11,0.96,
0.114,-0.09,0.03,-0.10,0.04,0.11,0.96,
0.114,-0.09,0.03,-0.10,0.04,0.11,0.96,
0.116,-0.09,0.03,-0.10,0.04,0.11,0.96,
0.118,-0.09,0.03,-0.10,0.04,0.11,0.96,
0.118,-0.07,0.01,-0.15,0.04,0.11,0.96,
0.121,-0.07,0.01,-0.15,0.05,0.11,0.95,
0.124,-0.07,0.01,-0.15,0.05,0.11,0.95,
0.124,-0.05,0.03,-0.18,0.05,0.11,0.95,
0.126,-0.05,0.03,-0.18,0.05,0.12,0.95,
0.128,-0.05,0.03,-0.18,0.05,0.11,0.95,
0.128,-0.03,0.04,-0.19,0.05,0.11,0.95,
0.13,-0.03,0.04,-0.19,0.05,0.12,0.95,
0.133,-0.03,0.04,-0.19,0.05,0.12,0.95,
0.133,-0.01,0.06,-0.20,0.05,0.12,0.95,
0.135,-0.01,0.06,-0.20,0.05,0.12,0.95,
0.138,-0.01,0.06,-0.20,0.05,0.12,0.95,
0.139,0.01,0.06,-0.21,0.05,0.12,0.95,
0.141,0.01,0.06,-0.21,0.06,0.12,0.95,
0.143,0.01,0.06,-0.21,0.06,0.11,0.96,
0.143,0.04,0.07,-0.20,0.06,0.11,0.96,
0.146,0.04,0.07,-0.20,0.06,0.11,0.96,
0.148,0.04,0.07,-0.20,0.06,0.11,0.96,
0.148,0.08,0.05,-0.18,0.06,0.11,0.96,
0.15,0.08,0.05,-0.18,0.06,0.11,0.96,
0.153,0.08,0.05,-0.18,0.06,0.11,0.96,
0.153,0.08,0.04,-0.16,0.06,0.11,0.96,
0.155,0.08,0.04,-0.16,0.06,0.11,0.97,
0.158,0.08,0.04,-0.16,0.06,0.11,0.97,
0.158,0.09,0.03,-0.12,0.06,0.11,0.97,
0.16,0.09,0.03,-0.12,0.06,0.11,0.97,
0.163,0.09,0.03,-0.12,0.06,0.11,0.97,
0.163,0.07,0.03,-0.06,0.06,0.11,0.97,
0.165,0.07,0.03,-0.06,0.05,0.11,0.97,
0.167,0.07,0.03,-0.06,0.05,0.11,0.98,
0.167,0.06,0.03,-0.02,0.05,0.11,0.98,
0.17,0.06,0.03,-0.02,0.05,0.11,0.98,
0.173,0.06,0.03,-0.02,0.05,0.11,0.98,
0.173,0.03,0.01,0.02,0.05,0.11,0.98,
0.18,0.03,0.01,0.02,0.05,0.11,0.98,
0.181,0.03,0.01,0.02,0.05,0.11,0.98,
0.181,0.01,-0.02,0.06,0.05,0.11,0.98,
0.181,0.01,-0.02,0.06,0.05,0.11,0.99,
0.182,0.01,-0.02,0.06,0.05,0.11,0.99,
0.183,-0.01,-0.00,0.09,0.05,0.11,0.99,
0.184,-0.01,-0.00,0.09,0.04,0.10,0.99,
0.187,-0.03,-0.02,0.14,0.04,0.10,0.99,
0.187,-0.03,-0.02,0.14,0.04,0.10,0.99,
0.19,-0.03,-0.02,0.14,0.04,0.10,0.99,
0.192,-0.03,-0.02,0.14,0.05,0.10,0.99,
0.192,-0.05,-0.04,0.16,0.05,0.10,0.99,
0.194,-0.05,-0.04,0.16,0.04,0.10,0.99,
0.197,-0.05,-0.04,0.16,0.04,0.10,0.99,
0.197,-0.05,-0.07,0.16,0.04,0.10,0.99,
0.199,-0.05,-0.07,0.16,0.04,0.10,0.99,
0.202,-0.05,-0.07,0.16,0.04,0.10,0.99,
0.202,-0.06,-0.09,0.16,0.04,0.10,0.99,
0.204,-0.06,-0.09,0.16,0.04,0.10,0.99,
0.207,-0.06,-0.09,0.16,0.04,0.10,0.99,
0.207,-0.09,-0.09,0.13,0.04,0.10,0.99,
0.209,-0.09,-0.09,0.13,0.04,0.10,0.99,
0.212,-0.09,-0.09,0.13,0.04,0.10,0.99,
0.212,-0.10,-0.10,0.13,0.04,0.10,0.99,
0.214,-0.10,-0.10,0.13,0.05,0.10,0.99,
0.216,-0.10,-0.10,0.13,0.05,0.10,0.99,
0.217,-0.07,-0.10,0.13,0.05,0.10,0.99,
0.219,-0.07,-0.10,0.13,0.05,0.10,0.99,
0.221,-0.07,-0.10,0.13,0.05,0.10,0.98,
0.222,-0.03,-0.10,0.12,0.05,0.10,0.98,
0.224,-0.03,-0.10,0.12,0.05,0.10,0.98,
0.226,-0.03,-0.10,0.12,0.05,0.09,0.98,
0.226,-0.04,-0.12,0.10,0.05,0.09,0.98,
0.228,-0.04,-0.12,0.10,0.05,0.09,0.98,
0.231,-0.02,-0.13,0.08,0.05,0.09,0.98,
0.231,-0.02,-0.13,0.08,0.05,0.09,0.98,
0.233,-0.02,-0.13,0.08,0.05,0.09,0.98,
0.236,-0.02,-0.13,0.08,0.05,0.09,0.98,
0.236,-0.02,-0.14,0.06,0.05,0.09,0.98,
0.238,-0.02,-0.14,0.06,0.05,0.09,0.98,
0.241,-0.02,-0.14,0.06,0.05,0.10,0.98,
0.241,-0.01,-0.14,0.05,0.05,0.10,0.98,
0.243,-0.01,-0.14,0.05,0.05,0.10,0.98,
0.246,-0.01,-0.14,0.05,0.05,0.09,0.98,
0.246,0.00,-0.14,0.05,0.05,0.09,0.98,
0.248,0.00,-0.14,0.05,0.05,0.10,0.98,
0.251,0.00,-0.14,0.05,0.04,0.09,0.98,
0.251,-0.00,-0.14,0.04,0.04,0.09,0.98,
0.253,-0.00,-0.14,0.04,0.04,0.09,0.98,
0.255,-0.00,-0.14,0.04,0.04,0.09,0.98,
0.256,-0.02,-0.14,0.05,0.04,0.09,0.98,
0.258,-0.02,-0.14,0.05,0.05,0.09,0.98,
0.26,-0.02,-0.14,0.05,0.05,0.09,0.98,
0.261,-0.05,-0.16,0.06,0.05,0.09,0.98,
0.263,-0.05,-0.16,0.06,0.04,0.09,0.98,
0.265,-0.05,-0.16,0.06,0.04,0.09,0.98,
0.266,-0.03,-0.16,0.05,0.04,0.09,0.98,
0.268,-0.03,-0.16,0.05,0.04,0.09,0.98,
0.27,-0.03,-0.16,0.05,0.04,0.09,0.98,
0.27,-0.05,-0.18,0.04,0.04,0.09,0.98,
0.273,-0.05,-0.18,0.04,0.04,0.09,0.98,
0.28,-0.05,-0.18,0.04,0.04,0.09,0.98,
0.28,-0.09,-0.20,0.02,0.04,0.09,0.98,
0.281,-0.09,-0.20,0.02,0.04,0.09,0.97,
0.281,-0.09,-0.20,0.02,0.04,0.09,0.97,
0.281,-0.09,-0.18,0.01,0.04,0.09,0.97,
0.282,-0.09,-0.18,0.01,0.04,0.09,0.97,
0.285,-0.09,-0.18,0.01,0.04,0.09,0.97,
0.285,-0.10,-0.21,-0.03,0.04,0.09,0.97,
0.287,-0.10,-0.21,-0.03,0.04,0.09,0.97,
0.29,-0.10,-0.21,-0.03,0.04,0.09,0.97,
0.29,-0.10,-0.20,-0.04,0.04,0.09,0.97,
0.292,-0.10,-0.20,-0.04,0.04,0.09,0.97,
0.295,-0.10,-0.20,-0.04,0.04,0.09,0.97,
0.295,-0.09,-0.21,-0.05,0.04,0.09,0.97,
0.297,-0.09,-0.21,-0.05,0.04,0.09,0.97,
0.3,-0.09,-0.21,-0.05,0.05,0.09,0.97,
0.3,-0.06,-0.21,-0.05,0.05,0.09,0.97,
0.302,-0.06,-0.21,-0.05,0.05,0.09,0.97,
0.304,-0.01,-0.20,-0.03,0.05,0.09,0.97,
0.305,-0.01,-0.20,-0.03,0.05,0.09,0.98,
0.307,-0.01,-0.20,-0.03,0.05,0.09,0.98,
0.31,0.06,-0.20,0.00,0.05,0.09,0.98,
0.31,0.06,-0.20,0.00,0.06,0.09,0.98,
0.312,0.06,-0.20,0.00,0.06,0.09,0.98,
0.314,0.06,-0.20,0.00,0.06,0.09,0.98,
0.314,0.10,-0.19,0.02,0.06,0.09,0.98,
0.317,0.10,-0.19,0.02,0.07,0.09,0.98,
0.319,0.10,-0.19,0.02,0.07,0.09,0.98,
0.319,0.15,-0.18,0.03,0.07,0.09,0.98,
0.321,0.15,-0.18,0.03,0.07,0.09,0.98,
0.324,0.15,-0.18,0.03,0.07,0.09,0.98,
0.325,0.19,-0.19,0.04,0.07,0.09,0.98,
0.327,0.19,-0.19,0.04,0.07,0.09,0.98,
0.33,0.19,-0.19,0.04,0.07,0.09,0.98,
0.33,0.21,-0.20,0.04,0.07,0.09,0.98,
0.331,0.21,-0.20,0.04,0.07,0.09,0.98,
0.334,0.21,-0.20,0.04,0.07,0.09,0.97,
0.334,0.22,-0.19,0.01,0.07,0.09,0.97,
0.336,0.22,-0.19,0.01,0.07,0.09,0.97,
0.339,0.22,-0.19,0.01,0.07,0.09,0.97,
0.339,0.20,-0.19,-0.01,0.07,0.09,0.97,
0.341,0.20,-0.19,-0.01,0.07,0.09,0.97,
0.344,0.20,-0.19,-0.01,0.07,0.09,0.96,
0.344,0.20,-0.19,-0.06,0.07,0.09,0.96,
0.346,0.20,-0.19,-0.06,0.07,0.09,0.96,
0.349,0.20,-0.19,-0.06,0.07,0.09,0.96,
0.349,0.22,-0.20,-0.10,0.07,0.09,0.96,
0.351,0.22,-0.20,-0.10,0.07,0.09,0.96,
0.354,0.22,-0.20,-0.10,0.07,0.09,0.95,
0.354,0.22,-0.22,-0.13,0.07,0.09,0.95,
0.356,0.22,-0.22,-0.13,0.07,0.09,0.95,
0.358,0.22,-0.22,-0.13,0.07,0.09,0.95,
0.359,0.23,-0.23,-0.19,0.07,0.09,0.95,
0.361,0.23,-0.23,-0.19,0.07,0.09,0.95,
0.363,0.23,-0.23,-0.19,0.07,0.09,0.95,
0.364,0.23,-0.24,-0.23,0.07,0.09,0.95,
0.366,0.23,-0.24,-0.23,0.07,0.09,0.95,
0.368,0.23,-0.24,-0.23,0.07,0.08,0.95,
0.368,0.22,-0.25,-0.23,0.07,0.08,0.95,
0.37,0.22,-0.25,-0.23,0.07,0.08,0.95,
0.373,0.22,-0.25,-0.23,0.07,0.08,0.95,
0.374,0.22,-0.25,-0.24,0.07,0.08,0.95,
0.376,0.22,-0.25,-0.24,0.07,0.08,0.95,
0.378,0.22,-0.25,-0.24,0.07,0.08,0.95,
0.378,0.22,-0.26,-0.26,0.07,0.08,0.95,
0.38,0.22,-0.26,-0.26,0.07,0.08,0.95,
0.383,0.22,-0.26,-0.26,0.08,0.08,0.95,
0.383,0.22,-0.27,-0.23,0.08,0.08,0.95,
0.385,0.22,-0.27,-0.23,0.08,0.08,0.95,
0.388,0.22,-0.27,-0.23,0.08,0.08,0.96,
0.388,0.24,-0.27,-0.19,0.08,0.08,0.96,
0.393,0.24,-0.27,-0.19,0.08,0.08,0.96,
0.393,0.24,-0.27,-0.19,0.08,0.08,0.96,
0.393,0.26,-0.29,-0.18,0.08,0.08,0.96,
0.396,0.26,-0.29,-0.18,0.08,0.08,0.96,
0.397,0.26,-0.29,-0.18,0.08,0.08,0.96,
0.398,0.26,-0.30,-0.16,0.08,0.08,0.96,
0.4,0.26,-0.30,-0.16,0.07,0.08,0.96,
0.402,0.26,-0.30,-0.16,0.07,0.08,0.96,
0.402,0.25,-0.31,-0.14,0.07,0.08,0.96,
0.405,0.25,-0.31,-0.14,0.07,0.08,0.96,
0.407,0.25,-0.31,-0.14,0.07,0.08,0.96,
0.407,0.23,-0.30,-0.12,0.07,0.08,0.96,
0.41,0.23,-0.30,-0.12,0.07,0.08,0.96,
0.412,0.23,-0.30,-0.12,0.07,0.08,0.96,
0.413,0.21,-0.29,-0.11,0.07,0.08,0.96,
0.415,0.21,-0.29,-0.11,0.07,0.08,0.96,
0.417,0.21,-0.29,-0.11,0.07,0.08,0.96,
0.417,0.19,-0.28,-0.09,0.07,0.08,0.96,
0.419,0.19,-0.28,-0.09,0.07,0.08,0.96,
0.422,0.19,-0.28,-0.09,0.07,0.08,0.96,
0.422,0.18,-0.29,-0.08,0.07,0.08,0.96,
0.424,0.18,-0.29,-0.08,0.06,0.08,0.96,
0.427,0.18,-0.29,-0.08,0.06,0.08,0.96,
0.427,0.16,-0.27,-0.08,0.06,0.08,0.96,
0.43,0.16,-0.27,-0.08,0.06,0.08,0.96,
0.432,0.16,-0.27,-0.08,0.06,0.08,0.96,
0.432,0.14,-0.26,-0.09,0.06,0.08,0.96,
0.434,0.14,-0.26,-0.09,0.06,0.08,0.96,
0.436,0.14,-0.26,-0.09,0.06,0.08,0.96,
0.437,0.11,-0.28,-0.11,0.06,0.08,0.96,
0.439,0.11,-0.28,-0.11,0.06,0.08,0.96,
0.442,0.11,-0.28,-0.11,0.06,0.08,0.96,
0.442,0.11,-0.28,-0.11,0.06,0.08,0.96,
0.444,0.11,-0.28,-0.11,0.06,0.08,0.96,
0.447,0.11,-0.28,-0.11,0.06,0.08,0.96,
0.447,0.08,-0.27,-0.11,0.06,0.08,0.96,
0.449,0.08,-0.27,-0.11,0.06,0.07,0.97,
0.451,0.08,-0.27,-0.11,0.06,0.07,0.97,
0.451,0.07,-0.28,-0.09,0.06,0.07,0.97,
0.454,0.07,-0.28,-0.09,0.06,0.07,0.97,
0.456,0.07,-0.28,-0.09,0.06,0.07,0.97,
0.457,0.07,-0.29,-0.06,0.06,0.07,0.97,
0.459,0.07,-0.29,-0.06,0.06,0.07,0.97,
0.461,0.07,-0.29,-0.06,0.06,0.07,0.97,
0.461,0.07,-0.29,-0.03,0.06,0.07,0.97,
0.464,0.07,-0.29,-0.03,0.06,0.07,0.97,
0.466,0.07,-0.29,-0.03,0.06,0.07,0.97,
0.466,0.08,-0.30,-0.01,0.06,0.07,0.97,
0.468,0.08,-0.30,-0.01,0.06,0.07,0.97,
0.471,0.08,-0.30,-0.01,0.06,0.07,0.97,
0.472,0.09,-0.29,0.00,0.06,0.07,0.97,
0.473,0.09,-0.29,0.00,0.06,0.07,0.97,
0.476,0.09,-0.29,0.00,0.06,0.07,0.97,
0.476,0.11,-0.33,-0.01,0.06,0.07,0.97,
0.478,0.11,-0.33,-0.01,0.06,0.07,0.97,
0.481,0.11,-0.33,-0.01,0.06,0.07,0.97,
0.481,0.09,-0.35,-0.03,0.06,0.07,0.97,
0.483,0.09,-0.35,-0.03,0.06,0.07,0.96,
0.486,0.09,-0.35,-0.03,0.06,0.07,0.96,
0.486,0.07,-0.35,-0.05,0.06,0.07,0.96,
0.488,0.07,-0.35,-0.05,0.05,0.06,0.96,
0.492,0.07,-0.35,-0.05,0.06,0.06,0.96,
0.493,0.06,-0.35,-0.11,0.06,0.06,0.96,
0.493,0.06,-0.35,-0.11,0.06,0.06,0.95,
0.495,0.06,-0.35,-0.11,0.06,0.06,0.95,
0.495,0.05,-0.37,-0.15,0.06,0.06,0.95,
0.498,0.05,-0.37,-0.15,0.06,0.06,0.95,
0.5,0.05,-0.37,-0.15,0.06,0.06,0.95,
0.5,0.06,-0.37,-0.18,0.06,0.06,0.95,
0.503,0.06,-0.37,-0.18,0.05,0.06,0.95,
0.505,0.06,-0.37,-0.18,0.05,0.06,0.95,
0.505,0.05,-0.37,-0.22,0.05,0.06,0.95,
0.507,0.05,-0.37,-0.22,0.05,0.06,0.95,
0.51,0.05,-0.37,-0.22,0.05,0.06,0.95,
0.51,0.04,-0.35,-0.22,0.05,0.06,0.95,
0.512,0.04,-0.35,-0.22,0.05,0.06,0.95,
0.515,0.04,-0.35,-0.22,0.05,0.07,0.95,
0.515,0.04,-0.35,-0.23,0.05,0.07,0.95,
0.517,0.04,-0.35,-0.23,0.06,0.07,0.95,
0.52,0.04,-0.35,-0.23,0.06,0.07,0.95,
0.52,0.05,-0.34,-0.21,0.06,0.07,0.95,
0.523,0.05,-0.34,-0.21,0.06,0.07,0.95,
0.525,0.05,-0.34,-0.21,0.06,0.07,0.96,
0.525,0.07,-0.31,-0.19,0.06,0.07,0.96,
0.527,0.07,-0.31,-0.19,0.06,0.07,0.96,
0.53,0.07,-0.31,-0.19,0.06,0.07,0.96,
0.53,0.09,-0.29,-0.14,0.06,0.07,0.96,
0.532,0.09,-0.29,-0.14,0.06,0.07,0.96,
0.534,0.09,-0.29,-0.14,0.06,0.07,0.97,
0.535,0.10,-0.27,-0.11,0.06,0.07,0.97,
0.537,0.10,-0.27,-0.11,0.07,0.07,0.97,
0.54,0.10,-0.27,-0.11,0.07,0.07,0.97,
0.54,0.14,-0.27,-0.05,0.07,0.07,0.97,
0.542,0.14,-0.27,-0.05,0.07,0.07,0.97,
0.544,0.14,-0.27,-0.05,0.07,0.07,0.98,
0.544,0.17,-0.28,0.01,0.07,0.07,0.98,
0.547,0.17,-0.28,0.01,0.07,0.07,0.98,
0.549,0.17,-0.28,0.01,0.07,0.07,0.98,
0.55,0.18,-0.27,0.04,0.07,0.07,0.98,
0.552,0.18,-0.27,0.04,0.07,0.07,0.99,
0.554,0.18,-0.27,0.04,0.07,0.07,0.99,
0.554,0.18,-0.28,0.09,0.07,0.07,0.99,
0.556,0.18,-0.28,0.09,0.06,0.07,0.99,
0.559,0.18,-0.28,0.09,0.06,0.06,0.99,
0.559,0.17,-0.29,0.17,0.06,0.06,0.99,
0.561,0.17,-0.29,0.17,0.06,0.06,0.99,
0.564,0.17,-0.29,0.17,0.06,0.06,1.00,
0.564,0.15,-0.29,0.21,0.06,0.06,1.00,
0.567,0.15,-0.29,0.21,0.07,0.06,0.99,
0.569,0.15,-0.29,0.21,0.06,0.06,0.99,
0.569,0.14,-0.31,0.23,0.06,0.06,0.99,
0.571,0.14,-0.31,0.23,0.06,0.06,0.99,
0.58,0.14,-0.31,0.23,0.06,0.05,0.99,
0.581,0.16,-0.33,0.21,0.06,0.05,0.99,
0.581,0.16,-0.33,0.21,0.06,0.05,0.99,
0.581,0.16,-0.33,0.21,0.06,0.05,0.99,
0.581,0.15,-0.38,0.19,0.06,0.05,0.99,
0.582,0.15,-0.38,0.19,0.06,0.05,0.98,
0.584,0.15,-0.38,0.19,0.06,0.05,0.98,
0.584,0.14,-0.39,0.14,0.06,0.05,0.98,
0.586,0.14,-0.39,0.14,0.06,0.05,0.98,
0.588,0.14,-0.39,0.14,0.06,0.05,0.97,
0.589,0.15,-0.41,0.10,0.06,0.05,0.97,
0.599,0.15,-0.41,0.10,0.06,0.05,0.97,
0.599,0.15,-0.41,0.10,0.06,0.05,0.97,
0.599,0.11,-0.42,0.02,0.06,0.05,0.97,
0.6,0.11,-0.42,0.02,0.06,0.05,0.97,
0.6,0.12,-0.43,-0.02,0.06,0.05,0.97,
0.6,0.12,-0.43,-0.02,0.06,0.05,0.96,
0.601,0.12,-0.43,-0.02,0.05,0.05,0.96,
0.604,0.12,-0.43,-0.02,0.05,0.05,0.95,
0.604,0.09,-0.43,-0.08,0.05,0.05,0.95,
0.606,0.09,-0.43,-0.08,0.05,0.05,0.95,
0.608,0.09,-0.43,-0.08,0.05,0.05,0.95,
0.609,0.05,-0.44,-0.16,0.05,0.05,0.95,
0.61,0.05,-0.44,-0.16,0.05,0.05,0.94,
0.613,0.05,-0.44,-0.16,0.05,0.05,0.94,
0.613,0.01,-0.42,-0.23,0.05,0.05,0.94,
0.615,0.01,-0.42,-0.23,0.05,0.06,0.94,
0.618,0.01,-0.42,-0.23,0.05,0.06,0.94,
0.618,-0.01,-0.40,-0.28,0.05,0.06,0.94,
0.62,-0.01,-0.40,-0.28,0.05,0.06,0.94,
0.623,-0.01,-0.40,-0.28,0.05,0.06,0.93,
0.623,-0.01,-0.36,-0.33,0.05,0.06,0.93,
0.625,-0.01,-0.36,-0.33,0.05,0.06,0.93,
0.628,-0.01,-0.36,-0.33,0.05,0.06,0.93,
0.628,-0.01,-0.32,-0.36,0.05,0.06,0.93,
0.63,-0.01,-0.32,-0.36,0.05,0.07,0.93,
0.632,-0.01,-0.32,-0.36,0.05,0.07,0.93,
0.632,0.03,-0.28,-0.38,0.05,0.07,0.93,
0.635,0.03,-0.28,-0.38,0.05,0.07,0.93,
0.637,0.03,-0.28,-0.38,0.06,0.07,0.93,
0.638,0.04,-0.24,-0.40,0.06,0.07,0.93,
0.64,0.04,-0.24,-0.40,0.06,0.07,0.93,
0.642,0.04,-0.24,-0.40,0.06,0.08,0.93,
0.643,0.08,-0.19,-0.41,0.06,0.08,0.93,
0.644,0.08,-0.19,-0.41,0.06,0.08,0.93,
0.647,0.08,-0.19,-0.41,0.06,0.08,0.94,
0.647,0.12,-0.16,-0.38,0.06,0.08,0.94,
0.65,0.12,-0.16,-0.38,0.07,0.08,0.94,
0.652,0.16,-0.12,-0.34,0.07,0.08,0.94,
0.653,0.16,-0.12,-0.34,0.07,0.08,0.94,
0.654,0.16,-0.12,-0.34,0.07,0.08,0.95,
0.657,0.16,-0.12,-0.34,0.07,0.08,0.95,
0.658,0.19,-0.10,-0.29,0.07,0.08,0.95,
0.659,0.19,-0.10,-0.29,0.07,0.08,0.95,
0.662,0.19,-0.10,-0.29,0.07,0.08,0.96,
0.662,0.22,-0.07,-0.20,0.07,0.08,0.96,
0.664,0.22,-0.07,-0.20,0.07,0.08,0.96,
0.667,0.22,-0.07,-0.20,0.08,0.08,0.97,
0.667,0.23,-0.06,-0.11,0.08,0.08,0.97,
0.669,0.23,-0.06,-0.11,0.07,0.08,0.97,
0.672,0.23,-0.06,-0.11,0.07,0.08,0.97,
0.674,0.25,-0.05,-0.03,0.07,0.08,0.97,
0.674,0.25,-0.05,-0.03,0.08,0.08,0.98,
0.682,0.25,-0.05,-0.03,0.08,0.08,0.98,
0.682,0.25,-0.08,0.02,0.08,0.08,0.98,
0.682,0.25,-0.08,0.02,0.08,0.08,0.98,
0.682,0.25,-0.08,0.02,0.07,0.08,0.98,
0.683,0.27,-0.09,0.09,0.07,0.08,0.98,
0.684,0.27,-0.09,0.09,0.07,0.08,0.98,
0.687,0.27,-0.09,0.09,0.07,0.07,0.98,
0.687,0.24,-0.10,0.11,0.07,0.07,0.98,
0.69,0.24,-0.10,0.11,0.07,0.08,0.98,
0.691,0.24,-0.10,0.11,0.07,0.08,0.98,
0.692,0.21,-0.11,0.13,0.07,0.08,0.98,
0.694,0.21,-0.11,0.13,0.07,0.08,0.98,
0.696,0.21,-0.11,0.13,0.07,0.07,0.98,
0.696,0.21,-0.10,0.13,0.07,0.07,0.98,
0.698,0.21,-0.10,0.13,0.07,0.07,0.98,
0.701,0.21,-0.10,0.13,0.07,0.08,0.98,
0.701,0.18,-0.10,0.12,0.07,0.08,0.98,
0.703,0.18,-0.10,0.12,0.06,0.08,0.98,
0.706,0.18,-0.10,0.12,0.06,0.08,0.97,
0.706,0.15,-0.09,0.10,0.06,0.08,0.97,
0.708,0.15,-0.09,0.10,0.06,0.08,0.97,
0.711,0.15,-0.09,0.10,0.06,0.08,0.97,
0.711,0.11,-0.08,0.06,0.06,0.08,0.97,
0.713,0.11,-0.08,0.06,0.06,0.08,0.97,
0.716,0.11,-0.08,0.06,0.06,0.08,0.96,
0.716,0.10,-0.07,0.01,0.06,0.08,0.96,
0.718,0.10,-0.07,0.01,0.06,0.08,0.96,
0.721,0.10,-0.07,0.01,0.06,0.08,0.96,
0.721,0.09,-0.06,-0.06,0.06,0.08,0.96,
0.723,0.09,-0.06,-0.06,0.06,0.08,0.96,
0.726,0.09,-0.06,-0.06,0.06,0.09,0.95,
0.726,0.06,-0.04,-0.11,0.06,0.09,0.95,
0.728,0.06,-0.04,-0.11,0.06,0.09,0.95,
0.73,0.06,-0.04,-0.11,0.06,0.09,0.95,
0.73,0.04,-0.00,-0.15,0.06,0.09,0.95,
0.733,0.04,-0.00,-0.15,0.06,0.09,0.96,
0.735,0.04,-0.00,-0.15,0.05,0.09,0.96,
0.736,0.04,0.04,-0.15,0.05,0.09,0.96,
0.738,0.04,0.04,-0.15,0.05,0.09,0.96,
0.74,0.04,0.04,-0.15,0.05,0.09,0.96,
0.741,-0.00,0.06,-0.12,0.05,0.09,0.96,
0.742,-0.00,0.06,-0.12,0.05,0.09,0.97,
0.745,-0.00,0.06,-0.12,0.06,0.09,0.97,
0.745,0.00,0.09,-0.06,0.06,0.09,0.97,
0.747,0.00,0.09,-0.06,0.06,0.09,0.97,
0.75,0.00,0.09,-0.06,0.06,0.09,0.97,
0.75,0.00,0.10,-0.02,0.06,0.09,0.97,
0.752,0.00,0.10,-0.02,0.06,0.09,0.98,
0.756,0.00,0.10,-0.02,0.06,0.09,0.98,
0.757,0.03,0.11,0.03,0.06,0.09,0.98,
0.757,0.03,0.11,0.03,0.06,0.09,0.98,
0.76,0.03,0.11,0.03,0.06,0.09,0.99,
0.76,0.06,0.10,0.11,0.06,0.09,0.99,
0.762,0.06,0.10,0.11,0.06,0.09,0.99,
0.765,0.06,0.10,0.11,0.06,0.09,1.00,
0.765,0.06,0.09,0.16,0.06,0.09,1.00,
0.767,0.06,0.09,0.16,0.06,0.09,1.00,
0.77,0.06,0.09,0.16,0.06,0.09,1.00,
0.77,0.07,0.11,0.23,0.06,0.09,1.00,
0.773,0.07,0.11,0.23,0.06,0.09,1.01,
0.775,0.07,0.11,0.23,0.06,0.09,1.01,
0.775,0.07,0.12,0.30,0.06,0.09,1.01,
0.777,0.07,0.12,0.30,0.06,0.09,1.01,
0.779,0.07,0.12,0.30,0.06,0.09,1.01,
0.78,0.04,0.13,0.35,0.06,0.09,1.01,
0.782,0.04,0.13,0.35,0.06,0.09,1.01,
0.784,0.04,0.13,0.35,0.06,0.09,1.01,
0.785,0.04,0.12,0.38,0.06,0.09,1.01,
0.787,0.04,0.12,0.38,0.06,0.09,1.01,
0.794,0.04,0.12,0.38,0.06,0.09,1.01,
0.795,0.03,0.09,0.39,0.06,0.09,1.01,
0.795,0.03,0.09,0.39,0.06,0.09,1.00,
0.796,0.03,0.09,0.39,0.06,0.08,1.00,
0.796,0.04,0.06,0.34,0.06,0.08,1.00,
0.797,0.04,0.06,0.34,0.06,0.08,1.00,
0.799,0.04,0.06,0.34,0.06,0.08,1.00,
0.799,0.05,0.05,0.30,0.06,0.08,1.00,
0.801,0.05,0.05,0.30,0.06,0.08,0.99,
0.804,0.05,0.05,0.30,0.06,0.08,0.99,
0.804,0.04,0.03,0.25,0.06,0.08,0.99,
0.808,0.04,0.03,0.25,0.06,0.08,0.99,
0.809,0.04,0.03,0.25,0.05,0.08,0.98,
0.809,0.03,0.02,0.17,0.05,0.08,0.98,
0.811,0.03,0.02,0.17,0.05,0.08,0.98,
0.813,0.03,0.02,0.17,0.05,0.09,0.97,
0.814,0.01,0.04,0.13,0.05,0.09,0.97,
0.816,0.01,0.04,0.13,0.05,0.09,0.97,
0.818,0.01,0.04,0.13,0.05,0.09,0.97,
0.819,0.00,0.05,0.04,0.05,0.09,0.97,
0.821,0.00,0.05,0.04,0.05,0.09,0.97,
0.824,0.00,0.05,0.04,0.05,0.09,0.96,
0.824,-0.03,0.08,-0.02,0.05,0.09,0.96,
0.826,-0.03,0.08,-0.02,0.05,0.09,0.96,
0.828,-0.03,0.08,-0.02,0.05,0.09,0.96,
0.828,-0.02,0.06,-0.08,0.05,0.09,0.96,
0.831,-0.02,0.06,-0.08,0.05,0.09,0.96,
0.834,-0.02,0.06,-0.08,0.05,0.09,0.96,
0.834,-0.05,0.06,-0.10,0.05,0.09,0.96,
0.836,-0.05,0.06,-0.10,0.05,0.09,0.96,
0.838,-0.05,0.06,-0.10,0.05,0.09,0.96,
0.838,-0.06,0.06,-0.12,0.05,0.09,0.96,
0.841,-0.06,0.06,-0.12,0.04,0.09,0.96,
0.843,-0.06,0.06,-0.12,0.04,0.09,0.96,
0.843,-0.06,0.07,-0.14,0.04,0.09,0.96,
0.845,-0.06,0.07,-0.14,0.04,0.09,0.96,
0.848,-0.06,0.07,-0.14,0.04,0.09,0.95,
0.848,-0.11,0.09,-0.15,0.04,0.09,0.95,
0.85,-0.11,0.09,-0.15,0.04,0.09,0.96,
0.853,-0.11,0.09,-0.15,0.04,0.09,0.96,
0.854,-0.13,0.08,-0.16,0.04,0.09,0.96,
0.855,-0.13,0.08,-0.16,0.04,0.09,0.96,
0.858,-0.13,0.08,-0.16,0.04,0.09,0.96,
0.858,-0.13,0.08,-0.16,0.04,0.09,0.96,
0.86,-0.13,0.08,-0.16,0.04,0.09,0.96,
0.863,-0.13,0.08,-0.16,0.05,0.09,0.96,
0.863,-0.13,0.09,-0.12,0.05,0.09,0.96,
0.865,-0.13,0.09,-0.12,0.04,0.09,0.97,
0.867,-0.13,0.09,-0.12,0.04,0.09,0.97,
0.868,-0.09,0.10,-0.08,0.04,0.09,0.97,
0.87,-0.09,0.10,-0.08,0.04,0.09,0.98,
0.872,-0.09,0.10,-0.08,0.04,0.09,0.98,
0.873,-0.12,0.10,-0.03,0.04,0.09,0.98,
0.875,-0.12,0.10,-0.03,0.04,0.09,0.99,
0.877,-0.12,0.10,-0.03,0.04,0.09,0.99,
0.878,-0.15,0.10,0.07,0.04,0.09,0.99,
0.88,-0.15,0.10,0.07,0.04,0.09,0.99,
0.882,-0.15,0.10,0.07,0.05,0.09,1.00,
0.882,-0.13,0.12,0.15,0.05,0.09,1.00,
0.885,-0.13,0.12,0.15,0.04,0.09,1.00,
0.887,-0.10,0.14,0.25,0.04,0.09,1.00,
0.887,-0.10,0.14,0.25,0.05,0.09,1.01,
0.894,-0.10,0.14,0.25,0.05,0.09,1.01,
0.894,-0.10,0.14,0.25,0.05,0.09,1.01,
0.895,-0.09,0.13,0.31,0.05,0.09,1.01,
0.895,-0.09,0.13,0.31,0.05,0.09,1.02,
0.897,-0.09,0.13,0.31,0.05,0.09,1.02,
0.897,-0.05,0.14,0.38,0.05,0.09,1.02,
0.899,-0.05,0.14,0.38,0.05,0.09,1.02,
0.902,-0.05,0.14,0.38,0.05,0.09,1.02,
0.902,-0.03,0.16,0.42,0.05,0.09,1.02,
0.905,-0.03,0.16,0.42,0.05,0.09,1.01,
0.907,-0.03,0.16,0.42,0.05,0.09,1.01,
0.907,-0.02,0.15,0.42,0.05,0.09,1.01,
0.91,-0.02,0.15,0.42,0.05,0.09,1.01,
0.912,-0.02,0.15,0.42,0.05,0.09,1.01,
0.912,-0.02,0.14,0.39,0.05,0.09,1.01,
0.914,-0.02,0.14,0.39,0.05,0.09,1.00,
0.917,-0.02,0.14,0.39,0.05,0.09,1.00,
0.917,-0.03,0.16,0.36,0.05,0.09,1.00,
0.919,-0.03,0.16,0.36,0.04,0.09,1.00,
0.923,-0.03,0.16,0.36,0.04,0.09,0.99,
0.923,-0.03,0.14,0.28,0.04,0.09,0.99,
0.924,-0.03,0.14,0.28,0.04,0.09,0.99,
0.927,-0.03,0.14,0.28,0.04,0.09,0.98,
0.927,-0.07,0.14,0.20,0.04,0.09,0.98,
0.929,-0.07,0.14,0.20,0.04,0.09,0.98,
0.931,-0.07,0.14,0.20,0.04,0.09,0.98,
0.932,-0.08,0.14,0.11,0.04,0.09,0.98,
0.934,-0.08,0.14,0.11,0.04,0.09,0.97,
0.936,-0.08,0.14,0.11,0.04,0.10,0.97,
0.937,-0.09,0.16,0.05,0.04,0.10,0.97,
0.939,-0.09,0.16,0.05,0.04,0.09,0.97,
0.941,-0.09,0.16,0.05,0.03,0.09,0.97,
0.942,-0.09,0.18,-0.01,0.03,0.09,0.97,
0.944,-0.09,0.18,-0.01,0.03,0.09,0.97,
0.946,-0.09,0.18,-0.01,0.03,0.09,0.97,
0.946,-0.13,0.17,-0.05,0.03,0.09,0.97,
0.948,-0.13,0.17,-0.05,0.03,0.09,0.96,
0.951,-0.13,0.17,-0.05,0.03,0.09,0.96,
0.951,-0.16,0.16,-0.07,0.03,0.09,0.96,
0.953,-0.16,0.16,-0.07,0.03,0.09,0.96,
0.956,-0.16,0.16,-0.07,0.03,0.09,0.96,
0.957,-0.17,0.16,-0.11,0.03,0.09,0.96,
0.958,-0.17,0.16,-0.11,0.03,0.09,0.96,
0.961,-0.17,0.16,-0.11,0.02,0.09,0.96,
0.962,-0.21,0.15,-0.13,0.02,0.09,0.96,
0.963,-0.21,0.15,-0.13,0.02,0.09,0.95,
0.966,-0.21,0.15,-0.13,0.02,0.09,0.95,
0.966,-0.22,0.12,-0.17,0.02,0.09,0.95,
0.968,-0.22,0.12,-0.17,0.02,0.09,0.95,
0.971,-0.25,0.12,-0.20,0.02,0.09,0.95,
0.971,-0.25,0.12,-0.20,0.02,0.09,0.95,
0.973,-0.25,0.12,-0.20,0.03,0.09,0.95,
0.976,-0.25,0.12,-0.20,0.02,0.09,0.95,
0.976,-0.25,0.11,-0.23,0.02,0.09,0.95,
0.978,-0.25,0.11,-0.23,0.03,0.09,0.95,
0.98,-0.25,0.11,-0.23,0.03,0.09,0.95,
0.981,-0.22,0.12,-0.23,0.03,0.09,0.95,
0.983,-0.22,0.12,-0.23,0.03,0.08,0.95,
0.985,-0.22,0.12,-0.23,0.03,0.08,0.95,
0.986,-0.21,0.10,-0.21,0.03,0.08,0.95,
0.988,-0.21,0.10,-0.21,0.03,0.08,0.95,
0.996,-0.21,0.10,-0.21,0.03,0.08,0.96,
0.997,-0.18,0.09,-0.19,0.03,0.08,0.96,
0.997,-0.18,0.09,-0.19,0.03,0.08,0.96,
0.997,-0.18,0.09,-0.19,0.03,0.08,0.96,
0.998,-0.15,0.07,-0.19,0.03,0.08,0.96,
0.998,-0.15,0.07,-0.19,0.03,0.08,0.96,
1.0,-0.15,0.07,-0.19,0.03,0.08,0.97,
1.0,-0.13,0.08,-0.13,0.03,0.08,0.97,
1.002,-0.13,0.08,-0.13,0.03,0.08,0.97,
1.005,-0.13,0.08,-0.13,0.03,0.08,0.98,
1.005,-0.13,0.10,-0.06,0.03,0.08,0.98,
1.01,-0.13,0.10,-0.06,0.04,0.08,0.98,
1.01,-0.13,0.10,-0.06,0.04,0.08,0.98,
1.01,-0.12,0.09,0.01,0.04,0.08,0.98,
1.012,-0.12,0.09,0.01,0.04,0.08,0.99,
1.014,-0.12,0.09,0.01,0.04,0.08,0.99,
1.015,-0.10,0.06,0.05,0.04,0.08,0.99,
1.017,-0.10,0.06,0.05,0.04,0.08,0.99,
1.019,-0.10,0.06,0.05,0.04,0.07,1.00,
1.02,-0.08,0.07,0.15,0.04,0.07,1.00,
1.022,-0.08,0.07,0.15,0.04,0.07,1.00,
1.024,-0.08,0.07,0.15,0.05,0.07,1.00,
1.024,-0.06,0.05,0.21,0.05,0.07,1.00,
1.027,-0.06,0.05,0.21,0.05,0.08,1.00,
1.03,-0.06,0.05,0.21,0.05,0.08,1.00,
1.03,-0.02,0.05,0.24,0.05,0.08,1.00,
1.032,-0.02,0.05,0.24,0.05,0.08,1.00,
1.034,-0.02,0.05,0.24,0.05,0.07,1.00,
1.034,-0.01,0.08,0.25,0.05,0.07,1.00,
1.036,-0.01,0.08,0.25,0.05,0.08,1.00,
1.039,-0.01,0.08,0.25,0.05,0.08,0.99,
1.039,0.02,0.07,0.24,0.05,0.08,0.99,
1.041,0.02,0.07,0.24,0.05,0.08,0.99,
1.044,0.02,0.07,0.24,0.04,0.08,0.99,
1.044,0.00,0.08,0.19,0.04,0.08,0.99,
1.046,0.00,0.08,0.19,0.04,0.08,0.98,
1.049,0.00,0.08,0.19,0.04,0.08,0.98,
1.049,-0.03,0.10,0.14,0.04,0.08,0.98,
1.051,-0.03,0.10,0.14,0.04,0.08,0.97,
1.054,-0.03,0.10,0.14,0.04,0.08,0.97,
1.054,-0.08,0.11,0.06,0.04,0.08,0.97,
1.056,-0.08,0.11,0.06,0.03,0.08,0.96,
1.059,-0.08,0.11,0.06,0.03,0.08,0.96,
1.059,-0.10,0.14,-0.04,0.03,0.08,0.96,
1.061,-0.10,0.14,-0.04,0.03,0.08,0.95,
1.064,-0.10,0.14,-0.04,0.02,0.08,0.95,
1.064,-0.15,0.14,-0.15,0.02,0.08,0.95,
1.066,-0.15,0.14,-0.15,0.02,0.08,0.94,
1.069,-0.15,0.14,-0.15,0.02,0.08,0.94,
1.069,-0.21,0.16,-0.24,0.02,0.08,0.94,
1.071,-0.21,0.16,-0.24,0.02,0.08,0.93,
1.079,-0.21,0.16,-0.24,0.01,0.08,0.93,
1.08,-0.29,0.16,-0.35,0.01,0.08,0.93,
1.08,-0.29,0.16,-0.35,0.01,0.09,0.93,
1.08,-0.29,0.16,-0.35,0.00,0.09,0.93,
1.08,-0.32,0.16,-0.42,0.00,0.09,0.93,
1.081,-0.32,0.16,-0.42,0.00,0.09,0.93,
1.083,-0.32,0.16,-0.42,-0.00,0.09,0.93,
1.083,-0.40,0.19,-0.45,-0.00,0.09,0.93,
1.085,-0.40,0.19,-0.45,0.00,0.09,0.93,
1.09,-0.40,0.19,-0.45,-0.00,0.09,0.93,
1.09,-0.46,0.20,-0.46,-0.00,0.09,0.93,
1.091,-0.46,0.20,-0.46,-0.00,0.09,0.93,
1.093,-0.46,0.20,-0.46,-0.00,0.09,0.94,
1.094,-0.46,0.21,-0.43,-0.00,0.09,0.94,
1.095,-0.46,0.21,-0.43,-0.00,0.09,0.94,
1.098,-0.46,0.21,-0.43,0.00,0.09,0.95,
1.098,-0.47,0.21,-0.36,0.00,0.09,0.95,
1.1,-0.47,0.21,-0.36,0.00,0.08,0.95,
1.103,-0.47,0.21,-0.36,0.00,0.08,0.95,
1.103,-0.45,0.22,-0.28,0.00,0.08,0.95,
1.106,-0.45,0.22,-0.28,0.01,0.09,0.96,
1.108,-0.45,0.22,-0.28,0.01,0.08,0.96,
1.108,-0.43,0.21,-0.21,0.01,0.08,0.96,
1.11,-0.43,0.21,-0.21,0.01,0.08,0.97,
1.112,-0.43,0.21,-0.21,0.01,0.08,0.97,
1.113,-0.37,0.23,-0.11,0.01,0.08,0.97,
1.115,-0.37,0.23,-0.11,0.01,0.09,0.98,
1.117,-0.37,0.23,-0.11,0.01,0.08,0.98,
1.118,-0.34,0.23,-0.02,0.01,0.08,0.98,
1.12,-0.34,0.23,-0.02,0.02,0.08,0.99,
1.123,-0.34,0.23,-0.02,0.02,0.09,0.99,
1.123,-0.32,0.25,0.07,0.02,0.09,0.99,
1.125,-0.32,0.25,0.07,0.01,0.09,0.99,
1.127,-0.32,0.25,0.07,0.01,0.09,0.99,
1.128,-0.29,0.25,0.13,0.01,0.09,0.99,
1.13,-0.29,0.25,0.13,0.01,0.09,1.00,
1.132,-0.29,0.25,0.13,0.01,0.09,1.00,
1.132,-0.32,0.28,0.19,0.01,0.09,1.00,
1.134,-0.32,0.28,0.19,0.01,0.09,1.00,
1.137,-0.32,0.28,0.19,0.01,0.09,1.00,
1.137,-0.33,0.29,0.22,0.01,0.09,1.00,
1.14,-0.33,0.29,0.22,0.01,0.09,1.00,
1.142,-0.33,0.29,0.22,0.01,0.09,1.01,
1.143,-0.33,0.29,0.27,0.01,0.09,1.01,
1.144,-0.33,0.29,0.27,0.01,0.09,1.01,
1.147,-0.33,0.29,0.27,0.01,0.08,1.00,
1.147,-0.32,0.30,0.30,0.01,0.08,1.00,
1.149,-0.32,0.30,0.30,0.01,0.08,1.00,
1.152,-0.32,0.30,0.30,0.01,0.09,1.00,
1.152,-0.34,0.28,0.30,0.01,0.09,1.00,
1.154,-0.34,0.28,0.30,0.01,0.08,1.00,
1.157,-0.34,0.28,0.30,0.01,0.09,1.00,
1.158,-0.32,0.29,0.27,0.01,0.09,1.00,
1.159,-0.32,0.29,0.27,0.02,0.09,1.00,
1.162,-0.32,0.29,0.27,0.02,0.09,0.99,
1.164,-0.30,0.30,0.23,0.02,0.09,0.99,
1.164,-0.30,0.30,0.23,0.02,0.09,0.99,
1.167,-0.30,0.30,0.23,0.02,0.09,0.98,
1.167,-0.28,0.32,0.17,0.02,0.09,0.98,
1.169,-0.28,0.32,0.17,0.02,0.09,0.98,
1.171,-0.28,0.32,0.17,0.02,0.09,0.98,
1.178,-0.24,0.37,0.09,0.02,0.09,0.98,
1.178,-0.24,0.37,0.09,0.02,0.10,0.97,
1.179,-0.24,0.37,0.09,0.02,0.10,0.97,
1.179,-0.23,0.39,0.04,0.02,0.10,0.97,
1.179,-0.23,0.39,0.04,0.03,0.10,0.97,
1.181,-0.23,0.39,0.04,0.03,0.10,0.96,
1.181,-0.21,0.43,-0.03,0.03,0.10,0.96,
1.184,-0.21,0.43,-0.03,0.03,0.10,0.96,
1.186,-0.21,0.43,-0.03,0.03,0.10,0.96,
1.186,-0.16,0.46,-0.09,0.03,0.10,0.96,
1.19,-0.16,0.46,-0.09,0.04,0.11,0.96,
1.191,-0.16,0.46,-0.09,0.04,0.11,0.96,
1.192,-0.11,0.48,-0.13,0.04,0.11,0.96,
1.193,-0.11,0.48,-0.13,0.04,0.11,0.95,
1.196,-0.11,0.48,-0.13,0.04,0.11,0.96,
1.196,-0.07,0.52,-0.17,0.04,0.11,0.96,
1.198,-0.07,0.52,-0.17,0.04,0.11,0.96,
1.201,-0.07,0.52,-0.17,0.05,0.11,0.96,
1.201,-0.05,0.55,-0.19,0.05,0.11,0.96,
1.203,-0.05,0.55,-0.19,0.05,0.11,0.97,
1.206,-0.05,0.55,-0.19,0.05,0.11,0.97,
1.206,0.01,0.56,-0.15,0.05,0.11,0.97,
1.208,0.01,0.56,-0.15,0.05,0.11,0.97,
1.21,0.01,0.56,-0.15,0.05,0.11,0.98,
1.211,0.03,0.55,-0.07,0.05,0.11,0.98,
1.213,0.03,0.55,-0.07,0.05,0.10,0.98,
1.215,0.03,0.55,-0.07,0.05,0.11,0.99,
1.216,0.03,0.54,0.01,0.05,0.11,0.99,
1.218,0.03,0.54,0.01,0.05,0.10,0.99,
1.22,0.03,0.54,0.01,0.05,0.10,0.99,
1.22,0.03,0.52,0.09,0.05,0.10,0.99,
1.223,0.03,0.52,0.09,0.05,0.10,1.00,
1.225,0.03,0.52,0.09,0.05,0.10,1.00,
1.226,0.03,0.50,0.16,0.05,0.10,1.00,
1.228,0.03,0.50,0.16,0.05,0.10,1.00,
1.23,0.03,0.50,0.16,0.05,0.10,1.00,
1.23,-0.00,0.47,0.21,0.05,0.10,1.00,
1.232,-0.00,0.47,0.21,0.05,0.10,1.00,
1.235,-0.00,0.47,0.21,0.05,0.10,1.00,
1.235,0.00,0.46,0.26,0.05,0.10,1.00,
1.237,0.00,0.46,0.26,0.05,0.10,1.00,
1.24,0.00,0.46,0.26,0.05,0.10,1.01,
1.241,0.01,0.46,0.26,0.05,0.10,1.01,
1.242,0.01,0.46,0.26,0.05,0.10,1.01,
1.245,0.01,0.46,0.26,0.05,0.10,1.01,
1.245,-0.00,0.48,0.29,0.05,0.10,1.01,
1.247,-0.00,0.48,0.29,0.05,0.10,1.01,
1.25,-0.00,0.48,0.29,0.05,0.10,1.01,
1.25,0.00,0.47,0.30,0.05,0.10,1.01,
1.252,0.00,0.47,0.30,0.05,0.10,1.00,
1.256,0.00,0.47,0.30,0.05,0.10,1.00,
1.256,0.01,0.50,0.29,0.05,0.10,1.00,
1.257,0.01,0.50,0.29,0.05,0.10,1.00,
1.26,0.01,0.50,0.29,0.05,0.10,1.00,
1.26,0.00,0.50,0.26,0.05,0.10,1.00,
1.262,0.00,0.50,0.26,0.05,0.10,1.01,
1.264,0.00,0.50,0.26,0.05,0.10,1.01,
1.265,0.02,0.51,0.26,0.05,0.10,1.01,
1.267,0.02,0.51,0.26,0.05,0.10,1.01,
1.27,0.02,0.51,0.26,0.05,0.10,1.00,
1.27,0.02,0.52,0.28,0.05,0.10,1.00,
1.273,0.02,0.52,0.28,0.04,0.10,1.00,
1.274,0.02,0.52,0.28,0.04,0.10,1.00,
1.274,-0.01,0.54,0.27,0.04,0.10,1.00,
1.277,-0.01,0.54,0.27,0.04,0.10,1.00,
1.279,-0.01,0.54,0.27,0.04,0.11,1.00,
1.279,-0.04,0.54,0.22,0.04,0.11,1.00,
1.281,-0.04,0.54,0.22,0.04,0.11,0.99,
1.284,-0.04,0.54,0.22,0.04,0.11,0.99,
1.284,-0.06,0.55,0.19,0.04,0.11,0.99,
1.287,-0.06,0.55,0.19,0.03,0.11,0.99,
1.294,-0.06,0.55,0.19,0.03,0.10,0.99,
1.295,-0.10,0.56,0.16,0.03,0.10,0.99,
1.295,-0.10,0.56,0.16,0.03,0.10,0.98,
1.295,-0.10,0.56,0.16,0.03,0.10,0.98,
1.296,-0.13,0.55,0.11,0.03,0.10,0.98,
1.297,-0.13,0.55,0.11,0.03,0.10,0.98,
1.299,-0.13,0.55,0.11,0.03,0.10,0.98,
1.299,-0.14,0.53,0.05,0.03,0.10,0.98,
1.301,-0.14,0.53,0.05,0.03,0.10,0.98,
1.304,-0.14,0.53,0.05,0.03,0.10,0.98,
1.304,-0.14,0.53,0.01,0.03,0.10,0.98,
1.306,-0.14,0.53,0.01,0.03,0.10,0.98,
1.308,-0.14,0.53,0.01,0.03,0.10,0.98,
1.309,-0.14,0.50,-0.01,0.03,0.10,0.98,
1.311,-0.14,0.50,-0.01,0.03,0.09,0.98,
1.313,-0.14,0.50,-0.01,0.03,0.10,0.98,
1.314,-0.15,0.47,-0.01,0.03,0.10,0.98,
1.316,-0.15,0.47,-0.01,0.03,0.10,0.99,
1.318,-0.15,0.47,-0.01,0.02,0.09,0.99,
1.318,-0.16,0.45,0.03,0.02,0.09,0.99,
1.321,-0.16,0.45,0.03,0.02,0.09,0.99,
1.323,-0.16,0.45,0.03,0.02,0.09,0.99,
1.323,-0.20,0.45,0.08,0.02,0.09,0.99,
1.326,-0.20,0.45,0.08,0.02,0.09,1.00,
1.328,-0.20,0.45,0.08,0.02,0.09,1.00,
1.328,-0.27,0.42,0.14,0.02,0.09,1.00,
1.33,-0.27,0.42,0.14,0.02,0.09,1.01,
1.333,-0.27,0.42,0.14,0.02,0.09,1.01,
1.333,-0.27,0.41,0.22,0.02,0.09,1.01,
1.335,-0.27,0.41,0.22,0.02,0.08,1.02,
1.339,-0.27,0.41,0.22,0.02,0.08,1.02,
1.339,-0.26,0.38,0.30,0.02,0.08,1.02,
1.34,-0.26,0.38,0.30,0.02,0.08,1.02,
1.343,-0.26,0.38,0.30,0.02,0.08,1.02,
1.343,-0.24,0.36,0.37,0.02,0.08,1.02,
1.345,-0.24,0.36,0.37,0.03,0.08,1.03,
1.347,-0.24,0.36,0.37,0.02,0.08,1.03,
1.348,-0.23,0.34,0.42,0.02,0.08,1.03,
1.35,-0.23,0.34,0.42,0.03,0.08,1.03,
1.352,-0.23,0.34,0.42,0.03,0.08,1.03,
1.353,-0.22,0.35,0.48,0.03,0.08,1.03,
1.356,-0.22,0.35,0.48,0.02,0.08,1.03,
1.358,-0.22,0.35,0.48,0.03,0.08,1.03,
1.358,-0.21,0.34,0.51,0.03,0.08,1.03,
1.36,-0.21,0.34,0.51,0.03,0.08,1.03,
1.363,-0.21,0.34,0.51,0.03,0.08,1.03,
1.363,-0.21,0.34,0.51,0.03,0.08,1.03,
1.365,-0.21,0.34,0.51,0.03,0.08,1.03,
1.367,-0.21,0.34,0.51,0.03,0.08,1.03,
1.368,-0.17,0.34,0.50,0.03,0.08,1.03,
1.37,-0.17,0.34,0.50,0.03,0.08,1.03,
1.373,-0.17,0.34,0.50,0.03,0.08,1.03,
1.375,-0.15,0.35,0.46,0.03,0.08,1.03,
1.376,-0.15,0.35,0.46,0.03,0.08,1.02,
1.378,-0.15,0.35,0.46,0.03,0.08,1.02,
1.379,-0.14,0.36,0.43,0.03,0.08,1.02,
1.379,-0.14,0.36,0.43,0.03,0.08,1.02,
1.382,-0.14,0.36,0.43,0.03,0.09,1.02,
1.382,-0.13,0.37,0.38,0.03,0.09,1.02,
1.384,-0.13,0.37,0.38,0.03,0.09,1.01,
1.387,-0.13,0.37,0.38,0.04,0.09,1.01,
1.387,-0.11,0.37,0.33,0.04,0.09,1.01,
1.396,-0.11,0.37,0.33,0.03,0.09,1.01,
1.397,-0.11,0.37,0.33,0.04,0.09,1.00,
1.397,-0.11,0.39,0.24,0.04,0.09,1.00,
1.397,-0.11,0.39,0.24,0.03,0.09,1.00,
1.397,-0.11,0.39,0.24,0.04,0.09,0.99,
1.398,-0.10,0.41,0.20,0.04,0.09,0.99,
1.399,-0.10,0.41,0.20,0.04,0.09,0.99,
1.402,-0.10,0.41,0.20,0.04,0.10,0.99,
1.402,-0.09,0.44,0.13,0.04,0.10,0.99,
1.404,-0.09,0.44,0.13,0.04,0.10,0.99,
1.407,-0.09,0.44,0.13,0.04,0.10,0.98,
1.407,-0.06,0.46,0.07,0.04,0.10,0.98,
1.409,-0.06,0.46,0.07,0.04,0.10,0.98,
1.411,-0.06,0.46,0.07,0.04,0.10,0.98,
1.411,-0.06,0.47,0.02,0.04,0.10,0.98,
1.414,-0.06,0.47,0.02,0.04,0.10,0.98,
1.416,-0.06,0.47,0.02,0.04,0.11,0.98,
1.416,-0.02,0.52,-0.01,0.04,0.11,0.98,
1.419,-0.02,0.52,-0.01,0.04,0.11,0.98,
1.422,-0.02,0.52,-0.01,0.04,0.11,0.98,
1.423,-0.05,0.54,-0.03,0.04,0.11,0.98,
1.424,-0.05,0.54,-0.03,0.04,0.11,0.98,
1.426,-0.05,0.54,-0.03,0.04,0.11,0.98,
1.426,-0.06,0.56,-0.05,0.04,0.11,0.98,
1.428,-0.06,0.56,-0.05,0.04,0.11,0.98,
1.431,-0.06,0.56,-0.05,0.05,0.11,0.98,
1.432,-0.02,0.55,-0.03,0.05,0.11,0.98,
1.434,-0.02,0.55,-0.03,0.05,0.11,0.98,
1.436,-0.02,0.55,-0.03,0.05,0.10,0.98,
1.436,0.03,0.54,-0.03,0.05,0.10,0.98,
1.438,0.03,0.54,-0.03,0.06,0.10,0.98,
1.441,0.03,0.54,-0.03,0.06,0.10,0.98,
1.441,0.10,0.54,-0.03,0.06,0.10,0.98,
1.443,0.10,0.54,-0.03,0.06,0.11,0.98,
1.445,0.10,0.54,-0.03,0.07,0.11,0.98,
1.446,0.14,0.53,-0.03,0.07,0.11,0.98,
1.448,0.14,0.53,-0.03,0.07,0.11,0.98,
1.45,0.14,0.53,-0.03,0.07,0.11,0.98,
1.45,0.19,0.55,-0.02,0.07,0.11,0.98,
1.453,0.19,0.55,-0.02,0.07,0.11,0.99,
1.455,0.19,0.55,-0.02,0.07,0.11,0.99,
1.456,0.22,0.57,0.01,0.07,0.11,0.99,
1.458,0.22,0.57,0.01,0.07,0.11,1.00,
1.46,0.22,0.57,0.01,0.07,0.11,1.00,
1.461,0.22,0.60,0.07,0.07,0.11,1.00,
1.463,0.22,0.60,0.07,0.07,0.11,1.00,
1.465,0.22,0.60,0.07,0.07,0.11,1.00,
1.465,0.25,0.60,0.14,0.07,0.11,1.00,
1.467,0.25,0.60,0.14,0.07,0.11,1.00,
1.47,0.25,0.60,0.14,0.08,0.11,1.01,
1.47,0.26,0.61,0.19,0.08,0.11,1.01,
1.473,0.26,0.61,0.19,0.08,0.11,1.01,
1.475,0.26,0.61,0.19,0.08,0.11,1.01,
1.476,0.30,0.61,0.22,0.08,0.11,1.01,
1.477,0.30,0.61,0.22,0.08,0.11,1.01,
1.48,0.30,0.61,0.22,0.08,0.11,1.01,
1.48,0.35,0.59,0.26,0.08,0.11,1.01,
1.482,0.35,0.59,0.26,0.08,0.11,1.01,
1.485,0.35,0.59,0.26,0.08,0.11,1.01,
1.485,0.36,0.59,0.27,0.08,0.11,1.01,
1.487,0.36,0.59,0.27,0.08,0.11,1.01,
1.49,0.36,0.59,0.27,0.08,0.11,1.01,
1.49,0.35,0.59,0.27,0.08,0.11,1.01,
1.497,0.35,0.59,0.27,0.08,0.11,1.01,
1.497,0.35,0.59,0.27,0.07,0.11,1.01,
1.497,0.33,0.58,0.27,0.07,0.11,1.01,
1.497,0.33,0.58,0.27,0.07,0.11,1.01,
1.499,0.33,0.58,0.27,0.07,0.11,1.01,
1.5,0.30,0.58,0.27,0.07,0.11,1.01,
1.502,0.30,0.58,0.27,0.07,0.11,1.01,
1.505,0.30,0.58,0.27,0.07,0.11,1.01,
1.506,0.26,0.57,0.26,0.07,0.11,1.01,
1.507,0.26,0.57,0.26,0.07,0.11,1.01,
1.509,0.26,0.57,0.26,0.07,0.11,1.01,
1.51,0.25,0.55,0.24,0.07,0.11,1.01,
1.511,0.25,0.55,0.24,0.07,0.11,1.01,
1.514,0.25,0.55,0.24,0.07,0.11,1.00,
1.514,0.23,0.53,0.21,0.07,0.11,1.00,
1.516,0.23,0.53,0.21,0.07,0.11,1.00,
1.519,0.23,0.53,0.21,0.07,0.11,1.00,
1.519,0.23,0.51,0.18,0.07,0.11,1.00,
1.521,0.23,0.51,0.18,0.07,0.11,1.00,
1.524,0.23,0.51,0.18,0.07,0.11,0.99,
1.524,0.22,0.48,0.13,0.07,0.11,0.99,
1.526,0.22,0.48,0.13,0.07,0.11,0.99,
1.529,0.22,0.48,0.13,0.07,0.11,0.99,
1.529,0.23,0.49,0.07,0.07,0.11,0.99,
1.531,0.23,0.49,0.07,0.07,0.11,0.98,
1.534,0.26,0.49,0.02,0.07,0.11,0.98,
1.534,0.26,0.49,0.02,0.07,0.11,0.98,
1.536,0.26,0.49,0.02,0.07,0.11,0.98,
1.539,0.26,0.49,0.02,0.08,0.11,0.98,
1.54,0.27,0.48,-0.03,0.08,0.11,0.98,
1.542,0.27,0.48,-0.03,0.08,0.11,0.97,
1.544,0.27,0.48,-0.03,0.08,0.11,0.97,
1.545,0.28,0.50,-0.09,0.08,0.11,0.97,
1.547,0.28,0.50,-0.09,0.08,0.11,0.97,
1.548,0.28,0.50,-0.09,0.08,0.11,0.97,
1.549,0.30,0.51,-0.13,0.08,0.11,0.97,
1.551,0.30,0.51,-0.13,0.08,0.11,0.97,
1.553,0.30,0.51,-0.13,0.08,0.11,0.97,
1.554,0.30,0.48,-0.15,0.08,0.11,0.97,
1.556,0.30,0.48,-0.15,0.08,0.11,0.97,
1.558,0.30,0.48,-0.15,0.08,0.11,0.97,
1.559,0.31,0.48,-0.13,0.08,0.11,0.97,
1.561,0.31,0.48,-0.13,0.08,0.11,0.97,
1.563,0.31,0.48,-0.13,0.08,0.11,0.97,
1.563,0.32,0.46,-0.15,0.08,0.11,0.97,
1.565,0.32,0.46,-0.15,0.08,0.11,0.97,
1.568,0.32,0.46,-0.15,0.08,0.11,0.97,
1.568,0.34,0.44,-0.16,0.08,0.11,0.97,
1.571,0.34,0.44,-0.16,0.08,0.11,0.97,
1.573,0.34,0.44,-0.16,0.09,0.10,0.97,
1.574,0.37,0.42,-0.15,0.09,0.10,0.97,
1.575,0.37,0.42,-0.15,0.09,0.11,0.97,
1.578,0.37,0.42,-0.15,0.09,0.11,0.98,
1.578,0.39,0.40,-0.15,0.09,0.11,0.98,
1.58,0.39,0.40,-0.15,0.09,0.11,0.98,
1.583,0.39,0.40,-0.15,0.09,0.10,0.98,
1.583,0.39,0.41,-0.11,0.09,0.10,0.98,
1.585,0.39,0.41,-0.11,0.09,0.11,0.98,
1.594,0.39,0.41,-0.11,0.09,0.10,0.99,
1.594,0.39,0.40,-0.07,0.09,0.10,0.99,
1.595,0.39,0.40,-0.07,0.09,0.10,0.99,
1.595,0.39,0.40,-0.07,0.09,0.10,0.99,
1.595,0.38,0.39,-0.01,0.09,0.10,0.99,
1.595,0.38,0.39,-0.01,0.09,0.10,1.00,
1.597,0.38,0.39,-0.01,0.09,0.10,1.00,
1.598,0.39,0.36,0.06,0.09,0.10,1.00,
1.6,0.39,0.36,0.06,0.09,0.10,1.00,
1.603,0.39,0.36,0.06,0.09,0.10,1.01,
1.603,0.39,0.32,0.16,0.09,0.10,1.01,
1.605,0.39,0.32,0.16,0.09,0.10,1.01,
1.607,0.39,0.32,0.16,0.08,0.10,1.01,
1.608,0.39,0.29,0.20,0.08,0.10,1.01,
1.61,0.39,0.29,0.20,0.08,0.09,1.01,
1.612,0.39,0.29,0.20,0.08,0.09,1.01,
1.613,0.36,0.27,0.22,0.08,0.09,1.01,
1.614,0.36,0.27,0.22,0.08,0.09,1.01,
1.617,0.36,0.27,0.22,0.08,0.09,1.00,
1.617,0.34,0.24,0.22,0.08,0.09,1.00,
1.619,0.34,0.24,0.22,0.08,0.09,1.00,
1.622,0.34,0.24,0.22,0.08,0.09,1.00,
1.622,0.33,0.23,0.20,0.08,0.09,1.00,
1.624,0.33,0.23,0.20,0.08,0.09,0.99,
1.627,0.33,0.23,0.20,0.08,0.09,0.99,
1.627,0.32,0.19,0.13,0.08,0.09,0.99,
1.629,0.32,0.19,0.13,0.08,0.09,0.98,
1.632,0.32,0.19,0.13,0.08,0.09,0.98,
1.632,0.32,0.15,0.04,0.08,0.09,0.98,
1.634,0.32,0.15,0.04,0.08,0.09,0.98,
1.636,0.32,0.15,0.04,0.08,0.09,0.97,
1.637,0.30,0.12,-0.03,0.08,0.09,0.97,
1.639,0.30,0.12,-0.03,0.08,0.09,0.97,
1.641,0.30,0.12,-0.03,0.08,0.09,0.97,
1.641,0.30,0.11,-0.09,0.08,0.09,0.97,
1.644,0.30,0.11,-0.09,0.08,0.09,0.96,
1.646,0.30,0.11,-0.09,0.08,0.08,0.96,
1.647,0.30,0.10,-0.18,0.08,0.08,0.96,
1.649,0.30,0.10,-0.18,0.08,0.08,0.96,
1.651,0.30,0.10,-0.18,0.08,0.08,0.96,
1.653,0.31,0.07,-0.20,0.08,0.08,0.96,
1.654,0.31,0.07,-0.20,0.08,0.08,0.96,
1.656,0.31,0.07,-0.20,0.08,0.08,0.96,
1.656,0.30,0.04,-0.23,0.08,0.08,0.96,
1.658,0.30,0.04,-0.23,0.09,0.08,0.96,
1.661,0.30,0.04,-0.23,0.08,0.08,0.96,
1.661,0.31,0.02,-0.25,0.08,0.08,0.96,
1.663,0.31,0.02,-0.25,0.08,0.08,0.96,
1.666,0.31,0.02,-0.25,0.08,0.08,0.96,
1.666,0.31,-0.01,-0.27,0.08,0.08,0.96,
1.668,0.31,-0.01,-0.27,0.08,0.08,0.96,
1.673,0.31,-0.01,-0.27,0.08,0.08,0.96,
1.673,0.30,-0.00,-0.24,0.08,0.08,0.96,
1.673,0.30,-0.00,-0.24,0.08,0.08,0.96,
1.676,0.30,-0.00,-0.24,0.08,0.08,0.96,
1.676,0.30,0.01,-0.23,0.08,0.08,0.96,
1.678,0.30,0.01,-0.23,0.08,0.08,0.97,
1.681,0.30,0.01,-0.23,0.08,0.08,0.97,
1.681,0.27,0.02,-0.19,0.08,0.08,0.97,
1.683,0.27,0.02,-0.19,0.08,0.08,0.97,
1.685,0.27,0.02,-0.19,0.08,0.08,0.97,
1.686,0.26,0.01,-0.15,0.08,0.08,0.97,
1.688,0.26,0.01,-0.15,0.08,0.08,0.97,
1.691,0.26,0.01,-0.15,0.09,0.08,0.97,
1.691,0.27,0.02,-0.12,0.09,0.08,0.97,
1.693,0.27,0.02,-0.12,0.09,0.08,0.97,
1.695,0.27,0.02,-0.12,0.09,0.08,0.98,
1.695,0.30,0.02,-0.10,0.09,0.08,0.98,
1.698,0.30,0.02,-0.10,0.09,0.08,0.98,
1.7,0.30,0.02,-0.10,0.09,0.08,0.98,
1.7,0.31,0.02,-0.08,0.09,0.08,0.98,
1.702,0.31,0.02,-0.08,0.09,0.09,0.98,
1.705,0.31,0.02,-0.08,0.09,0.08,0.98,
1.705,0.34,0.01,-0.04,0.09,0.08,0.98,
1.707,0.34,0.01,-0.04,0.09,0.08,0.98,
1.71,0.34,0.01,-0.04,0.09,0.08,0.98,
1.71,0.36,0.04,0.01,0.09,0.08,0.98,
1.712,0.36,0.04,0.01,0.09,0.09,0.98,
1.715,0.36,0.04,0.01,0.09,0.09,0.98,
1.715,0.37,0.01,0.01,0.09,0.09,0.98,
1.717,0.37,0.01,0.01,0.09,0.08,0.98,
1.72,0.37,0.01,0.01,0.10,0.08,0.98,
1.72,0.37,0.02,0.00,0.10,0.08,0.98,
1.722,0.37,0.02,0.00,0.09,0.09,0.98,
1.725,0.37,0.02,0.00,0.10,0.09,0.98,
1.725,0.38,-0.00,-0.02,0.10,0.09,0.98,
1.727,0.38,-0.00,-0.02,0.09,0.08,0.97,
1.73,0.38,-0.00,-0.02,0.09,0.08,0.97,
1.73,0.36,0.00,-0.06,0.09,0.08,0.97,
1.732,0.36,0.00,-0.06,0.09,0.09,0.96,
1.735,0.36,0.00,-0.06,0.09,0.09,0.96,
1.735,0.34,-0.01,-0.12,0.09,0.09,0.96,
1.737,0.34,-0.01,-0.12,0.08,0.09,0.96,
1.739,0.34,-0.01,-0.12,0.08,0.09,0.96,
1.74,0.30,0.01,-0.19,0.08,0.09,0.96,
1.742,0.30,0.01,-0.19,0.08,0.09,0.96,
1.744,0.30,0.01,-0.19,0.08,0.08,0.96,
1.745,0.25,-0.01,-0.20,0.08,0.08,0.96,
1.747,0.25,-0.01,-0.20,0.08,0.08,0.96,
1.749,0.25,-0.01,-0.20,0.08,0.08,0.96,
1.75,0.20,-0.03,-0.22,0.08,0.08,0.96,
1.751,0.20,-0.03,-0.22,0.08,0.08,0.95,
1.755,0.20,-0.03,-0.22,0.08,0.08,0.95,
1.755,0.18,-0.05,-0.24,0.08,0.08,0.95,
1.757,0.18,-0.05,-0.24,0.07,0.08,0.95,
1.759,0.18,-0.05,-0.24,0.07,0.08,0.95,
1.759,0.16,-0.08,-0.27,0.07,0.08,0.95,
1.761,0.16,-0.08,-0.27,0.07,0.08,0.95,
1.764,0.16,-0.08,-0.27,0.07,0.08,0.95,
1.764,0.13,-0.08,-0.27,0.07,0.08,0.95,
1.767,0.13,-0.08,-0.27,0.07,0.08,0.96,
1.769,0.13,-0.08,-0.27,0.07,0.08,0.96,
1.769,0.12,-0.06,-0.27,0.07,0.08,0.96,
1.771,0.12,-0.06,-0.27,0.07,0.09,0.96,
1.774,0.12,-0.06,-0.27,0.07,0.09,0.96,
1.774,0.11,-0.06,-0.23,0.07,0.09,0.96,
1.776,0.11,-0.06,-0.23,0.07,0.09,0.96,
1.779,0.11,-0.06,-0.23,0.07,0.09,0.96,
1.779,0.09,-0.03,-0.22,0.07,0.09,0.96,
1.781,0.09,-0.03,-0.22,0.07,0.09,0.96,
1.784,0.09,-0.03,-0.22,0.07,0.09,0.96,
1.784,0.10,-0.03,-0.19,0.07,0.09,0.96,
1.786,0.10,-0.03,-0.19,0.07,0.09,0.96,
1.793,0.10,-0.03,-0.19,0.07,0.09,0.96,
1.793,0.08,-0.02,-0.17,0.07,0.09,0.96,
1.794,0.08,-0.02,-0.17,0.07,0.09,0.96,
1.794,0.08,-0.02,-0.17,0.07,0.09,0.96,
1.794,0.06,-0.00,-0.16,0.07,0.09,0.96,
1.796,0.06,-0.00,-0.16,0.07,0.09,0.96,
1.798,0.06,-0.00,-0.16,0.07,0.09,0.96,
1.798,0.05,-0.01,-0.15,0.07,0.09,0.96,
1.8,0.05,-0.01,-0.15,0.07,0.09,0.96,
1.803,0.05,-0.01,-0.15,0.06,0.09,0.96,
1.803,0.06,-0.01,-0.16,0.06,0.09,0.96,
1.806,0.06,-0.01,-0.16,0.06,0.09,0.96,
1.808,0.06,-0.01,-0.16,0.06,0.09,0.96,
1.808,0.02,-0.01,-0.18,0.06,0.09,0.96,
1.81,0.02,-0.01,-0.18,0.06,0.09,0.96,
1.813,0.02,-0.01,-0.18,0.06,0.09,0.96,
1.813,-0.00,-0.01,-0.18,0.06,0.09,0.96,
1.815,-0.00,-0.01,-0.18,0.06,0.09,0.96,
1.818,-0.00,-0.01,-0.18,0.06,0.09,0.96,
1.818,-0.01,-0.01,-0.19,0.06,0.09,0.96,
1.82,-0.01,-0.01,-0.19,0.06,0.09,0.96,
1.822,-0.01,-0.01,-0.19,0.06,0.10,0.96,
1.823,-0.03,-0.03,-0.18,0.06,0.10,0.96,
1.825,-0.03,-0.03,-0.18,0.05,0.10,0.97,
1.827,-0.03,-0.03,-0.18,0.05,0.10,0.97,
1.828,-0.05,0.01,-0.15,0.05,0.10,0.97,
1.83,-0.05,0.01,-0.15,0.05,0.10,0.97,
1.832,-0.05,0.01,-0.15,0.06,0.10,0.97,
1.832,-0.10,0.03,-0.10,0.06,0.10,0.97,
1.835,-0.10,0.03,-0.10,0.06,0.10,0.98,
1.838,-0.10,0.03,-0.10,0.06,0.10,0.98,
1.838,-0.10,0.03,-0.04,0.06,0.10,0.98,
1.84,-0.10,0.03,-0.04,0.06,0.10,0.98,
1.842,-0.10,0.03,-0.04,0.06,0.10,0.99,
1.842,-0.08,0.05,0.01,0.06,0.10,0.99,
1.845,-0.08,0.05,0.01,0.06,0.10,0.99,
1.847,-0.08,0.05,0.01,0.07,0.10,0.99,
1.847,-0.06,0.06,0.09,0.07,0.10,0.99,
1.849,-0.06,0.06,0.09,0.07,0.10,1.00,
1.852,-0.06,0.06,0.09,0.07,0.10,1.00,
1.852,-0.01,0.06,0.15,0.07,0.10,1.00,
1.855,-0.01,0.06,0.15,0.07,0.10,1.00,
1.857,-0.01,0.06,0.15,0.07,0.11,1.00,
1.857,-0.01,0.05,0.18,0.07,0.11,1.00,
1.859,-0.01,0.05,0.18,0.07,0.11,1.00,
1.862,-0.01,0.05,0.18,0.07,0.11,1.00,
1.862,-0.02,0.07,0.20,0.07,0.11,1.00,
1.864,-0.02,0.07,0.20,0.07,0.11,0.99,
1.867,-0.02,0.07,0.20,0.07,0.11,0.99,
1.867,-0.00,0.07,0.19,0.07,0.11,0.99,
1.869,-0.00,0.07,0.19,0.06,0.10,0.99,
1.872,-0.00,0.07,0.19,0.06,0.10,0.99,
1.872,-0.03,0.06,0.17,0.06,0.10,0.99,
1.874,-0.03,0.06,0.17,0.06,0.10,0.99,
1.877,-0.03,0.06,0.17,0.06,0.10,0.99,
1.877,-0.06,0.03,0.14,0.06,0.10,0.99,
1.879,-0.06,0.03,0.14,0.06,0.10,0.98,
1.881,-0.06,0.03,0.14,0.06,0.10,0.98,
1.882,-0.10,0.01,0.09,0.06,0.10,0.98,
1.884,-0.10,0.01,0.09,0.05,0.10,0.98,
1.886,-0.10,0.01,0.09,0.05,0.09,0.97,
1.887,-0.12,-0.04,0.04,0.05,0.09,0.97,
1.893,-0.12,-0.04,0.04,0.05,0.09,0.97,
1.894,-0.12,-0.04,0.04,0.05,0.09,0.97,
1.894,-0.18,-0.09,-0.01,0.05,0.09,0.97,
1.894,-0.18,-0.09,-0.01,0.05,0.09,0.96,
1.896,-0.18,-0.09,-0.01,0.04,0.09,0.96,
1.896,-0.22,-0.10,-0.10,0.04,0.09,0.96,
1.898,-0.22,-0.10,-0.10,0.04,0.09,0.96,
1.901,-0.22,-0.10,-0.10,0.04,0.09,0.96,
1.901,-0.27,-0.13,-0.14,0.04,0.09,0.96,
1.905,-0.27,-0.13,-0.14,0.04,0.09,0.96,
1.906,-0.27,-0.13,-0.14,0.04,0.09,0.96,
1.906,-0.30,-0.16,-0.17,0.04,0.09,0.96,
1.908,-0.30,-0.16,-0.17,0.04,0.09,0.96,
1.911,-0.30,-0.16,-0.17,0.04,0.09,0.96,
1.911,-0.34,-0.19,-0.18,0.04,0.09,0.96,
1.913,-0.34,-0.19,-0.18,0.04,0.09,0.96,
1.915,-0.34,-0.19,-0.18,0.04,0.09,0.96,
1.916,-0.32,-0.17,-0.17,0.04,0.09,0.96,
1.918,-0.32,-0.17,-0.17,0.05,0.09,0.97,
1.921,-0.32,-0.17,-0.17,0.05,0.09,0.97,
1.921,-0.29,-0.17,-0.13,0.05,0.09,0.97,
1.923,-0.29,-0.17,-0.13,0.05,0.09,0.97,
1.925,-0.29,-0.17,-0.13,0.05,0.09,0.98,
1.926,-0.24,-0.16,-0.09,0.05,0.09,0.98,
1.928,-0.24,-0.16,-0.09,0.05,0.09,0.98,
1.93,-0.24,-0.16,-0.09,0.06,0.09,0.98,
1.93,-0.21,-0.15,-0.01,0.06,0.09,0.98,
1.933,-0.21,-0.15,-0.01,0.06,0.09,0.99,
1.935,-0.21,-0.15,-0.01,0.06,0.09,0.99,
1.935,-0.18,-0.14,0.04,0.06,0.09,0.99,
1.938,-0.18,-0.14,0.04,0.06,0.09,0.99,
1.94,-0.18,-0.14,0.04,0.06,0.09,0.99,
1.94,-0.13,-0.15,0.11,0.06,0.09,0.99,
1.943,-0.13,-0.15,0.11,0.07,0.09,1.00,
1.945,-0.13,-0.15,0.11,0.07,0.09,1.00,
1.945,-0.10,-0.15,0.16,0.07,0.09,1.00,
1.947,-0.10,-0.15,0.16,0.07,0.09,1.01,
1.95,-0.10,-0.15,0.16,0.07,0.09,1.01,
1.95,-0.06,-0.15,0.23,0.07,0.09,1.01,
1.952,-0.06,-0.15,0.23,0.07,0.09,1.01,
1.955,-0.06,-0.15,0.23,0.07,0.09,1.01,
1.955,-0.04,-0.17,0.29,0.07,0.09,1.01,
1.957,-0.04,-0.17,0.29,0.07,0.09,1.01,
1.96,-0.04,-0.17,0.29,0.07,0.09,1.01,
1.96,-0.04,-0.18,0.29,0.07,0.09,1.01,
1.962,-0.04,-0.18,0.29,0.07,0.08,1.01,
1.964,-0.04,-0.18,0.29,0.07,0.08,1.01,
1.965,-0.05,-0.21,0.29,0.07,0.08,1.01,
1.967,-0.05,-0.21,0.29,0.06,0.08,1.01,
1.969,-0.05,-0.21,0.29,0.06,0.08,1.00,
1.97,-0.07,-0.23,0.29,0.06,0.08,1.00,
1.976,-0.07,-0.23,0.29,0.06,0.08,1.00,
1.977,-0.07,-0.23,0.29,0.06,0.08,1.00,
1.977,-0.12,-0.26,0.27,0.06,0.08,1.00,
1.977,-0.12,-0.26,0.27,0.05,0.08,1.00,
1.979,-0.12,-0.26,0.27,0.05,0.08,1.00,
1.98,-0.16,-0.30,0.23,0.05,0.08,1.00,
1.982,-0.16,-0.30,0.23,0.05,0.08,1.00,
1.984,-0.16,-0.30,0.23,0.05,0.07,0.99,
1.984,-0.22,-0.33,0.19,0.05,0.07,0.99,
1.986,-0.22,-0.33,0.19,0.05,0.07,0.99,
1.989,-0.22,-0.33,0.19,0.04,0.07,0.99,
1.99,-0.27,-0.35,0.17,0.04,0.07,0.99,
1.991,-0.27,-0.35,0.17,0.04,0.07,0.99,
1.994,-0.27,-0.35,0.17,0.04,0.07,0.99,
1.994,-0.29,-0.39,0.15,0.04,0.07,0.99,
1.996,-0.29,-0.39,0.15,0.04,0.07,0.98,
1.999,-0.29,-0.39,0.15,0.04,0.07,0.98,
1.999,-0.34,-0.43,0.10,0.04,0.07,0.98,
2.001,-0.34,-0.43,0.10,0.04,0.07,0.98,
2.004,-0.34,-0.43,0.10,0.04,0.07,0.98,
2.004,-0.37,-0.44,0.05,0.04,0.07,0.98,
2.006,-0.37,-0.44,0.05,0.04,0.07,0.97,
2.009,-0.37,-0.44,0.05,0.04,0.07,0.97,
2.009,-0.34,-0.41,0.01,0.04,0.07,0.97,
2.011,-0.34,-0.41,0.01,0.05,0.07,0.97,
2.014,-0.34,-0.41,0.01,0.05,0.07,0.97,
2.014,-0.30,-0.40,-0.03,0.05,0.07,0.97,
2.016,-0.30,-0.40,-0.03,0.05,0.07,0.96,
2.02,-0.30,-0.40,-0.03,0.05,0.07,0.96,
2.021,-0.27,-0.41,-0.07,0.05,0.07,0.96,
2.021,-0.27,-0.41,-0.07,0.05,0.08,0.96,
2.024,-0.27,-0.41,-0.07,0.06,0.08,0.96,
2.024,-0.23,-0.38,-0.12,0.06,0.08,0.96,
2.026,-0.23,-0.38,-0.12,0.06,0.08,0.96,
2.028,-0.23,-0.38,-0.12,0.07,0.08,0.96,
2.028,-0.17,-0.35,-0.13,0.07,0.08,0.96,
2.03,-0.17,-0.35,-0.13,0.07,0.08,0.96,
2.033,-0.17,-0.35,-0.13,0.07,0.08,0.96,
2.033,-0.10,-0.33,-0.14,0.07,0.08,0.96,
2.035,-0.10,-0.33,-0.14,0.07,0.09,0.96,
2.038,-0.10,-0.33,-0.14,0.08,0.09,0.96,
2.039,-0.07,-0.29,-0.15,0.08,0.09,0.96,
2.041,-0.07,-0.29,-0.15,0.07,0.09,0.96,
2.043,-0.07,-0.29,-0.15,0.08,0.09,0.96,
2.043,0.01,-0.27,-0.16,0.08,0.09,0.96,
2.045,0.01,-0.27,-0.16,0.08,0.09,0.96,
2.048,0.01,-0.27,-0.16,0.08,0.09,0.96,
2.048,0.01,-0.26,-0.15,0.08,0.09,0.96,
2.05,0.01,-0.26,-0.15,0.08,0.09,0.96,
2.053,0.01,-0.26,-0.15,0.08,0.09,0.96,
2.053,0.04,-0.26,-0.14,0.08,0.09,0.96,
2.055,0.04,-0.26,-0.14,0.07,0.08,0.96,
2.058,0.04,-0.28,-0.12,0.07,0.08,0.96,
2.058,0.04,-0.28,-0.12,0.07,0.08,0.97,
2.06,0.04,-0.28,-0.12,0.07,0.08,0.97,
2.062,0.04,-0.28,-0.12,0.07,0.08,0.97,
2.063,-0.01,-0.30,-0.09,0.07,0.08,0.97,
2.065,-0.01,-0.30,-0.09,0.06,0.08,0.98,
2.068,-0.01,-0.30,-0.09,0.06,0.08,0.98,
2.068,-0.05,-0.31,-0.04,0.06,0.08,0.98,
2.076,-0.05,-0.31,-0.04,0.06,0.07,0.98,
2.076,-0.05,-0.31,-0.04,0.05,0.07,0.99,
2.077,-0.12,-0.35,0.04,0.05,0.07,0.99,
2.077,-0.12,-0.35,0.04,0.05,0.07,0.99,
2.077,-0.12,-0.35,0.04,0.05,0.07,1.00,
2.078,-0.17,-0.39,0.11,0.05,0.07,1.00,
2.08,-0.17,-0.39,0.11,0.05,0.07,1.00,
2.082,-0.17,-0.39,0.11,0.05,0.06,1.00,
2.082,-0.21,-0.44,0.20,0.05,0.06,1.00,
2.084,-0.21,-0.44,0.20,0.04,0.06,1.00,
2.088,-0.21,-0.44,0.20,0.04,0.06,1.00,
2.088,-0.27,-0.48,0.24,0.04,0.06,1.00,
2.089,-0.27,-0.48,0.24,0.04,0.06,1.00,
2.092,-0.27,-0.48,0.24,0.04,0.06,1.00,
2.093,-0.32,-0.51,0.26,0.04,0.06,1.00,
2.094,-0.32,-0.51,0.26,0.04,0.06,1.00,
2.097,-0.32,-0.51,0.26,0.04,0.06,1.00,
2.097,-0.33,-0.53,0.26,0.04,0.06,1.00,
2.099,-0.33,-0.53,0.26,0.04,0.06,0.99,
2.102,-0.33,-0.53,0.26,0.04,0.06,0.99,
2.102,-0.34,-0.54,0.23,0.04,0.06,0.99,
2.104,-0.34,-0.54,0.23,0.04,0.06,0.98,
2.107,-0.34,-0.54,0.23,0.04,0.06,0.98,
2.107,-0.33,-0.55,0.15,0.04,0.06,0.98,
2.109,-0.33,-0.55,0.15,0.05,0.06,0.98,
2.111,-0.33,-0.55,0.15,0.05,0.06,0.97,
2.112,-0.31,-0.53,0.07,0.05,0.06,0.97,
2.114,-0.31,-0.53,0.07,0.06,0.07,0.97,
2.117,-0.31,-0.53,0.07,0.06,0.07,0.97,
2.117,-0.25,-0.51,-0.00,0.06,0.07,0.97,
2.119,-0.25,-0.51,-0.00,0.07,0.07,0.96,
2.121,-0.25,-0.51,-0.00,0.07,0.07,0.96,
2.122,-0.15,-0.47,-0.07,0.07,0.07,0.96,
2.124,-0.15,-0.47,-0.07,0.07,0.08,0.96,
2.126,-0.15,-0.47,-0.07,0.08,0.08,0.96,
2.127,-0.07,-0.44,-0.13,0.08,0.08,0.96,
2.129,-0.07,-0.44,-0.13,0.08,0.08,0.96,
2.131,-0.07,-0.44,-0.13,0.08,0.08,0.96,
2.131,-0.01,-0.40,-0.16,0.08,0.08,0.96,
2.133,-0.01,-0.40,-0.16,0.08,0.09,0.96,
2.136,-0.01,-0.40,-0.16,0.08,0.09,0.96,
2.136,0.03,-0.35,-0.18,0.08,0.09,0.96,
2.139,0.03,-0.35,-0.18,0.08,0.09,0.96,
2.141,0.03,-0.35,-0.18,0.09,0.09,0.96,
2.145,0.07,-0.31,-0.17,0.09,0.09,0.96,
2.145,0.07,-0.31,-0.17,0.08,0.09,0.96,
2.147,0.07,-0.31,-0.17,0.08,0.09,0.96,
2.147,0.08,-0.29,-0.14,0.08,0.09,0.96,
2.148,0.08,-0.29,-0.14,0.08,0.09,0.97,
2.151,0.08,-0.29,-0.14,0.08,0.09,0.97,
2.151,0.07,-0.27,-0.10,0.08,0.09,0.97,
2.153,0.07,-0.27,-0.10,0.08,0.09,0.97,
2.156,0.07,-0.27,-0.10,0.07,0.09,0.97,
2.156,0.04,-0.29,-0.06,0.07,0.09,0.97,
2.158,0.04,-0.29,-0.06,0.07,0.09,0.97,
2.161,0.04,-0.29,-0.06,0.07,0.09,0.97,
2.161,-0.02,-0.29,-0.01,0.07,0.09,0.97,
2.163,-0.02,-0.29,-0.01,0.06,0.08,0.98,
2.166,-0.02,-0.29,-0.01,0.06,0.08,0.98,
2.166,-0.08,-0.31,0.01,0.06,0.08,0.98,
2.168,-0.08,-0.31,0.01,0.06,0.08,0.98,
2.173,-0.08,-0.31,0.01,0.06,0.08,0.98,
2.173,-0.15,-0.34,0.02,0.06,0.08,0.98,
2.173,-0.15,-0.34,0.02,0.06,0.08,0.98,
2.175,-0.15,-0.34,0.02,0.06,0.08,0.98,
2.175,-0.18,-0.35,0.05,0.06,0.08,0.98,
2.178,-0.18,-0.35,0.05,0.06,0.08,0.98,
2.18,-0.18,-0.35,0.05,0.06,0.08,0.98,
2.18,-0.22,-0.41,0.08,0.06,0.08,0.98,
2.182,-0.22,-0.41,0.08,0.06,0.07,0.98,
2.185,-0.22,-0.41,0.08,0.06,0.07,0.98,
2.185,-0.22,-0.43,0.11,0.06,0.07,0.98,
2.187,-0.22,-0.43,0.11,0.06,0.07,0.99,
2.19,-0.22,-0.43,0.11,0.06,0.07,0.99,
2.19,-0.21,-0.46,0.10,0.06,0.07,0.99,
2.192,-0.21,-0.46,0.10,0.06,0.07,0.99,
2.195,-0.21,-0.46,0.10,0.06,0.08,0.99,
2.195,-0.20,-0.45,0.13,0.06,0.08,0.99,
2.197,-0.20,-0.45,0.13,0.06,0.08,0.99,
2.2,-0.20,-0.45,0.13,0.06,0.08,0.99,
2.2,-0.21,-0.44,0.16,0.06,0.08,0.99,
2.202,-0.21,-0.44,0.16,0.06,0.08,1.00,
2.204,-0.21,-0.44,0.16,0.06,0.08,1.00,
2.205,-0.21,-0.41,0.19,0.06,0.08,1.00,
2.207,-0.21,-0.41,0.19,0.06,0.08,1.00,
2.209,-0.21,-0.41,0.19,0.06,0.07,1.00,
2.21,-0.19,-0.40,0.23,0.06,0.07,1.00,
2.212,-0.19,-0.40,0.23,0.06,0.08,1.00,
2.214,-0.19,-0.40,0.23,0.06,0.08,1.01,
2.215,-0.17,-0.41,0.27,0.06,0.08,1.01,
2.217,-0.17,-0.41,0.27,0.06,0.08,1.01,
2.219,-0.17,-0.41,0.27,0.06,0.08,1.01,
2.22,-0.18,-0.41,0.30,0.06,0.08,1.01,
2.222,-0.18,-0.41,0.30,0.06,0.07,1.01,
2.224,-0.18,-0.41,0.30,0.06,0.07,1.01,
2.225,-0.19,-0.41,0.33,0.06,0.07,1.01,
2.227,-0.19,-0.41,0.33,0.06,0.08,1.01,
2.229,-0.19,-0.41,0.33,0.06,0.08,1.01,
2.23,-0.19,-0.43,0.35,0.06,0.08,1.01,
2.231,-0.19,-0.43,0.35,0.06,0.07,1.01,
2.234,-0.19,-0.43,0.35,0.06,0.08,1.01,
2.234,-0.20,-0.41,0.36,0.06,0.08,1.01,
2.237,-0.20,-0.41,0.36,0.06,0.07,1.01,
2.239,-0.20,-0.41,0.36,0.06,0.08,1.01,
2.239,-0.18,-0.43,0.37,0.06,0.08,1.01,
2.241,-0.18,-0.43,0.37,0.06,0.07,1.01,
2.244,-0.18,-0.43,0.37,0.06,0.07,1.00,
2.244,-0.16,-0.43,0.34,0.06,0.07,1.00,
2.246,-0.16,-0.43,0.34,0.06,0.08,1.00,
2.249,-0.16,-0.43,0.34,0.06,0.07,1.00,
2.249,-0.14,-0.44,0.29,0.06,0.07,1.00,
2.251,-0.14,-0.44,0.29,0.06,0.08,0.99,
2.254,-0.14,-0.44,0.29,0.06,0.08,0.99,
2.254,-0.14,-0.44,0.23,0.06,0.08,0.99,
2.256,-0.14,-0.44,0.23,0.06,0.08,0.99,
2.258,-0.14,-0.44,0.23,0.06,0.08,0.98,
2.259,-0.15,-0.43,0.15,0.06,0.08,0.98,
2.261,-0.15,-0.43,0.15,0.06,0.08,0.98,
2.264,-0.15,-0.43,0.15,0.06,0.08,0.98,
2.264,-0.18,-0.43,0.09,0.06,0.08,0.98,
2.266,-0.18,-0.43,0.09,0.06,0.07,0.97,
2.268,-0.18,-0.43,0.09,0.06,0.07,0.97,
2.269,-0.18,-0.43,0.01,0.06,0.07,0.97,
2.271,-0.18,-0.43,0.01,0.05,0.07,0.97,
2.273,-0.18,-0.43,0.01,0.05,0.07,0.97,
2.274,-0.21,-0.46,-0.05,0.05,0.07,0.97,
2.276,-0.21,-0.46,-0.05,0.05,0.07,0.97,
2.278,-0.21,-0.46,-0.05,0.05,0.07,0.96,
2.278,-0.25,-0.49,-0.09,0.05,0.07,0.96,
2.281,-0.25,-0.49,-0.09,0.05,0.07,0.96,
2.283,-0.25,-0.49,-0.09,0.05,0.07,0.96,
2.283,-0.26,-0.50,-0.11,0.05,0.07,0.96,
2.285,-0.26,-0.50,-0.11,0.05,0.07,0.96,
2.288,-0.26,-0.50,-0.11,0.05,0.07,0.96,
2.288,-0.26,-0.52,-0.13,0.05,0.07,0.96,
2.29,-0.26,-0.52,-0.13,0.05,0.07,0.96,
2.293,-0.26,-0.52,-0.13,0.05,0.06,0.97,
2.293,-0.25,-0.55,-0.12,0.05,0.06,0.97,
2.295,-0.25,-0.55,-0.12,0.05,0.06,0.96,
2.298,-0.25,-0.55,-0.12,0.05,0.06,0.97,
2.298,-0.24,-0.55,-0.10,0.05,0.06,0.97,
2.3,-0.24,-0.55,-0.10,0.05,0.06,0.97,
2.302,-0.24,-0.55,-0.10,0.06,0.06,0.97,
2.303,-0.22,-0.56,-0.08,0.06,0.06,0.97,
2.312,-0.22,-0.56,-0.08,0.06,0.06,0.97,
2.312,-0.22,-0.56,-0.08,0.06,0.06,0.98,
2.313,-0.21,-0.58,-0.04,0.06,0.06,0.98,
2.313,-0.21,-0.58,-0.04,0.06,0.06,0.98,
2.313,-0.21,-0.58,-0.04,0.06,0.06,0.98,
2.313,-0.18,-0.59,0.00,0.06,0.06,0.98,
2.315,-0.18,-0.59,0.00,0.06,0.06,0.98,
2.317,-0.18,-0.59,0.00,0.06,0.06,0.98,
2.317,-0.19,-0.58,0.03,0.06,0.06,0.98,
2.321,-0.19,-0.58,0.03,0.06,0.06,0.98,
2.322,-0.19,-0.58,0.03,0.06,0.06,0.98,
2.322,-0.17,-0.55,0.03,0.06,0.06,0.98,
2.325,-0.17,-0.55,0.03,0.06,0.06,0.98,
2.327,-0.17,-0.55,0.03,0.06,0.06,0.98,
2.327,-0.17,-0.56,0.04,0.06,0.06,0.98,
2.329,-0.17,-0.56,0.04,0.05,0.06,0.98,
2.332,-0.17,-0.56,0.04,0.05,0.06,0.97,
2.332,-0.19,-0.57,0.03,0.05,0.06,0.97,
2.334,-0.19,-0.57,0.03,0.05,0.06,0.97,
2.337,-0.19,-0.57,0.03,0.05,0.06,0.97,
2.337,-0.23,-0.57,0.01,0.05,0.06,0.97,
2.339,-0.23,-0.57,0.01,0.05,0.06,0.97,
2.342,-0.23,-0.57,0.01,0.04,0.06,0.97,
2.342,-0.26,-0.56,-0.01,0.04,0.06,0.97,
2.344,-0.26,-0.56,-0.01,0.04,0.06,0.97,
2.347,-0.26,-0.56,-0.01,0.04,0.06,0.97,
2.347,-0.30,-0.57,-0.02,0.04,0.06,0.97,
2.349,-0.30,-0.57,-0.02,0.03,0.06,0.97,
2.351,-0.30,-0.57,-0.02,0.03,0.06,0.97,
2.352,-0.35,-0.58,-0.03,0.03,0.06,0.97,
2.354,-0.35,-0.58,-0.03,0.03,0.05,0.97,
2.356,-0.35,-0.58,-0.03,0.03,0.05,0.97,
2.357,-0.42,-0.61,-0.03,0.03,0.05,0.97,
2.359,-0.42,-0.61,-0.03,0.03,0.05,0.98,
2.361,-0.42,-0.61,-0.03,0.03,0.05,0.98,
2.362,-0.43,-0.67,-0.01,0.03,0.05,0.98,
2.364,-0.43,-0.67,-0.01,0.02,0.04,0.98,
2.366,-0.43,-0.67,-0.01,0.02,0.04,0.98,
2.367,-0.44,-0.68,0.02,0.02,0.04,0.98,
2.369,-0.44,-0.68,0.02,0.02,0.04,0.98,
2.371,-0.44,-0.68,0.02,0.02,0.04,0.97,
2.371,-0.49,-0.73,0.02,0.02,0.04,0.97,
2.374,-0.49,-0.73,0.02,0.02,0.04,0.98,
2.376,-0.49,-0.73,0.02,0.02,0.04,0.97,
2.376,-0.52,-0.74,0.01,0.02,0.04,0.97,
2.378,-0.52,-0.74,0.01,0.02,0.05,0.97,
2.381,-0.52,-0.74,0.01,0.02,0.05,0.97,
2.381,-0.52,-0.72,0.01,0.02,0.05,0.97,
2.383,-0.52,-0.72,0.01,0.02,0.04,0.97,
2.386,-0.52,-0.72,0.01,0.02,0.05,0.97,
2.386,-0.51,-0.71,0.00,0.02,0.05,0.97,
2.393,-0.51,-0.71,0.00,0.02,0.05,0.97,
2.394,-0.51,-0.71,0.00,0.02,0.05,0.97,
2.394,-0.52,-0.72,-0.02,0.02,0.05,0.97,
2.394,-0.52,-0.72,-0.02,0.03,0.05,0.97,
2.396,-0.52,-0.72,-0.02,0.03,0.05,0.97,
2.396,-0.49,-0.71,-0.04,0.03,0.05,0.97,
2.398,-0.49,-0.71,-0.04,0.03,0.05,0.97,
2.401,-0.49,-0.71,-0.04,0.03,0.05,0.97,
2.401,-0.45,-0.69,-0.04,0.03,0.05,0.97,
2.407,-0.45,-0.69,-0.04,0.03,0.05,0.97,
2.407,-0.45,-0.69,-0.04,0.04,0.05,0.97,
2.407,-0.42,-0.67,-0.04,0.04,0.05,0.97,
2.408,-0.42,-0.67,-0.04,0.03,0.05,0.97,
2.41,-0.42,-0.67,-0.04,0.03,0.05,0.97,
2.41,-0.38,-0.67,-0.04,0.03,0.05,0.97,
2.413,-0.38,-0.67,-0.04,0.04,0.05,0.97,
2.415,-0.38,-0.67,-0.04,0.04,0.05,0.97,
2.415,-0.36,-0.66,-0.06,0.04,0.05,0.97,
2.418,-0.36,-0.66,-0.06,0.04,0.05,0.97,
2.42,-0.36,-0.66,-0.06,0.04,0.05,0.96,
2.421,-0.33,-0.62,-0.07,0.04,0.05,0.96,
2.422,-0.33,-0.62,-0.07,0.04,0.05,0.96,
2.425,-0.33,-0.62,-0.07,0.04,0.06,0.96,
2.425,-0.31,-0.60,-0.07,0.04,0.06,0.96,
2.427,-0.31,-0.60,-0.07,0.04,0.06,0.96,
2.43,-0.31,-0.60,-0.07,0.04,0.06,0.96,
2.43,-0.29,-0.58,-0.09,0.04,0.06,0.96,
2.432,-0.29,-0.58,-0.09,0.04,0.06,0.96,
2.435,-0.29,-0.58,-0.09,0.04,0.06,0.96,
2.435,-0.28,-0.54,-0.10,0.04,0.06,0.96,
2.437,-0.28,-0.54,-0.10,0.05,0.06,0.96,
2.44,-0.28,-0.54,-0.10,0.05,0.06,0.96,
2.44,-0.26,-0.52,-0.11,0.05,0.06,0.96,
2.442,-0.26,-0.52,-0.11,0.05,0.06,0.96,
2.444,-0.26,-0.52,-0.11,0.05,0.06,0.96,
2.445,-0.22,-0.52,-0.14,0.05,0.06,0.96,
2.447,-0.22,-0.52,-0.14,0.06,0.06,0.96,
2.449,-0.22,-0.52,-0.14,0.06,0.07,0.96,
2.45,-0.17,-0.51,-0.14,0.06,0.07,0.96,
2.452,-0.17,-0.51,-0.14,0.06,0.07,0.95,
2.454,-0.17,-0.51,-0.14,0.06,0.07,0.95,
2.454,-0.14,-0.49,-0.16,0.06,0.07,0.95,
2.457,-0.14,-0.49,-0.16,0.06,0.07,0.95,
2.459,-0.14,-0.49,-0.16,0.06,0.07,0.95,
2.459,-0.10,-0.46,-0.19,0.06,0.07,0.95,
2.462,-0.10,-0.46,-0.19,0.07,0.07,0.95,
2.464,-0.10,-0.46,-0.19,0.07,0.07,0.95,
2.464,-0.07,-0.44,-0.21,0.07,0.07,0.95,
2.466,-0.07,-0.44,-0.21,0.07,0.07,0.95,
2.469,-0.07,-0.44,-0.21,0.07,0.07,0.95,
2.47,-0.03,-0.42,-0.25,0.07,0.07,0.95,
2.472,-0.03,-0.42,-0.25,0.07,0.07,0.95,
2.474,-0.03,-0.42,-0.25,0.07,0.08,0.95,
2.474,-0.01,-0.41,-0.24,0.07,0.08,0.95,
2.476,-0.01,-0.41,-0.24,0.07,0.07,0.95,
2.479,-0.01,-0.41,-0.24,0.07,0.07,0.95,
2.479,0.02,-0.38,-0.25,0.07,0.07,0.95,
2.481,0.02,-0.38,-0.25,0.07,0.07,0.95,
2.484,0.02,-0.38,-0.25,0.07,0.08,0.95,
2.484,0.03,-0.39,-0.23,0.07,0.08,0.95,
2.492,0.03,-0.39,-0.23,0.07,0.07,0.95,
2.492,0.03,-0.39,-0.23,0.07,0.08,0.95,
2.492,0.03,-0.38,-0.21,0.07,0.08,0.95,
2.493,0.03,-0.38,-0.21,0.07,0.08,0.95,
2.494,0.03,-0.38,-0.21,0.07,0.08,0.95,
2.495,0.02,-0.36,-0.19,0.07,0.08,0.95,
2.496,0.02,-0.36,-0.19,0.07,0.08,0.95,
2.499,0.02,-0.36,-0.19,0.07,0.08,0.95,
2.499,0.03,-0.34,-0.18,0.07,0.08,0.95,
2.501,0.03,-0.34,-0.18,0.07,0.08,0.95,
2.504,0.03,-0.34,-0.18,0.07,0.08,0.95,
2.504,0.03,-0.33,-0.19,0.07,0.08,0.95,
2.506,0.03,-0.33,-0.19,0.07,0.08,0.96,
2.508,0.03,-0.33,-0.19,0.07,0.08,0.96,
2.508,0.04,-0.31,-0.17,0.07,0.08,0.96,
2.511,0.04,-0.31,-0.17,0.07,0.08,0.96,
2.513,0.04,-0.31,-0.17,0.07,0.08,0.96,
2.514,0.03,-0.26,-0.14,0.07,0.08,0.96,
2.515,0.03,-0.26,-0.14,0.07,0.09,0.96,
2.518,0.03,-0.26,-0.14,0.07,0.09,0.96,
2.518,0.04,-0.26,-0.12,0.07,0.09,0.96,
2.52,0.04,-0.26,-0.12,0.08,0.09,0.96,
2.523,0.04,-0.26,-0.12,0.07,0.09,0.96,
2.523,0.03,-0.24,-0.12,0.07,0.09,0.96,
2.525,0.03,-0.24,-0.12,0.07,0.09,0.96,
2.528,0.03,-0.24,-0.12,0.07,0.09,0.96,
2.528,0.06,-0.23,-0.10,0.07,0.09,0.96,
2.53,0.06,-0.23,-0.10,0.07,0.09,0.96,
2.533,0.06,-0.23,-0.10,0.07,0.09,0.96,
2.533,0.04,-0.21,-0.11,0.07,0.09,0.96,
2.535,0.04,-0.21,-0.11,0.07,0.09,0.96,
2.538,0.04,-0.21,-0.11,0.07,0.09,0.96,
2.538,0.04,-0.20,-0.09,0.07,0.09,0.96,
2.54,0.04,-0.20,-0.09,0.07,0.09,0.96,
2.542,0.04,-0.20,-0.09,0.07,0.09,0.96,
2.543,0.04,-0.21,-0.07,0.07,0.09,0.96,
2.545,0.04,-0.21,-0.07,0.07,0.09,0.96,
2.547,0.04,-0.21,-0.07,0.07,0.09,0.96,
2.548,0.03,-0.21,-0.07,0.07,0.09,0.96,
2.55,0.03,-0.21,-0.07,0.07,0.09,0.96,
2.552,0.03,-0.21,-0.07,0.06,0.09,0.96,
2.553,0.01,-0.21,-0.06,0.06,0.09,0.96,
2.555,0.01,-0.21,-0.06,0.06,0.09,0.97,
2.557,0.01,-0.21,-0.06,0.06,0.09,0.97,
2.558,-0.01,-0.22,-0.07,0.06,0.09,0.97,
2.56,-0.01,-0.22,-0.07,0.06,0.09,0.97,
2.562,-0.01,-0.22,-0.07,0.06,0.08,0.97,
2.562,-0.06,-0.21,-0.03,0.06,0.08,0.97,
2.564,-0.06,-0.21,-0.03,0.06,0.08,0.97,
2.567,-0.06,-0.21,-0.03,0.06,0.08,0.97,
2.567,-0.06,-0.22,-0.02,0.06,0.08,0.97,
2.57,-0.06,-0.22,-0.02,0.06,0.08,0.97,
2.572,-0.06,-0.22,-0.02,0.06,0.08,0.97,
2.572,-0.05,-0.24,-0.03,0.06,0.08,0.97,
2.574,-0.05,-0.24,-0.03,0.06,0.08,0.97,
2.577,-0.05,-0.24,-0.03,0.06,0.08,0.97,
2.577,-0.07,-0.23,-0.03,0.06,0.08,0.97,
2.579,-0.07,-0.23,-0.03,0.06,0.08,0.97,
2.582,-0.07,-0.23,-0.03,0.07,0.08,0.96,
2.582,-0.04,-0.22,-0.03,0.07,0.08,0.96,
2.584,-0.04,-0.22,-0.03,0.07,0.09,0.96,
2.587,-0.04,-0.22,-0.03,0.07,0.09,0.96,
2.587,0.00,-0.22,-0.04,0.07,0.09,0.96,
2.589,0.00,-0.22,-0.04,0.08,0.09,0.96,
2.591,0.00,-0.22,-0.04,0.08,0.09,0.96,
2.592,0.06,-0.19,-0.07,0.08,0.09,0.96,
2.594,0.06,-0.19,-0.07,0.08,0.09,0.96,
2.596,0.06,-0.19,-0.07,0.08,0.09,0.96,
2.597,0.11,-0.17,-0.09,0.08,0.09,0.96,
2.599,0.11,-0.17,-0.09,0.08,0.09,0.96,
2.601,0.13,-0.15,-0.10,0.08,0.09,0.96,
2.602,0.13,-0.15,-0.10,0.08,0.10,0.96,
2.608,0.13,-0.15,-0.10,0.08,0.10,0.96,
2.609,0.13,-0.15,-0.10,0.08,0.10,0.95,
2.609,0.13,-0.11,-0.12,0.08,0.10,0.95,
2.609,0.13,-0.11,-0.12,0.08,0.10,0.95,
2.611,0.13,-0.11,-0.12,0.08,0.10,0.95,
2.611,0.15,-0.07,-0.15,0.08,0.10,0.95,
2.613,0.15,-0.07,-0.15,0.08,0.10,0.95,
2.616,0.15,-0.07,-0.15,0.08,0.10,0.95,
2.616,0.14,-0.04,-0.18,0.08,0.10,0.95,
2.618,0.14,-0.04,-0.18,0.08,0.10,0.95,
2.621,0.14,-0.04,-0.18,0.08,0.10,0.95,
2.621,0.12,-0.04,-0.20,0.08,0.10,0.95,
2.623,0.12,-0.04,-0.20,0.08,0.10,0.95,
2.626,0.12,-0.04,-0.20,0.08,0.10,0.95,
2.626,0.12,-0.04,-0.21,0.08,0.10,0.95,
2.628,0.12,-0.04,-0.21,0.08,0.10,0.95,
2.631,0.12,-0.04,-0.21,0.07,0.10,0.95,
2.632,0.12,-0.01,-0.21,0.07,0.10,0.95,
2.633,0.12,-0.01,-0.21,0.07,0.10,0.95,
2.635,0.12,-0.01,-0.21,0.07,0.10,0.96,
2.636,0.10,-0.01,-0.18,0.07,0.10,0.96,
2.638,0.10,-0.01,-0.18,0.07,0.10,0.96,
2.641,0.10,-0.01,-0.18,0.07,0.11,0.96,
2.641,0.09,-0.01,-0.13,0.07,0.11,0.96,
2.643,0.09,-0.01,-0.13,0.07,0.10,0.97,
2.645,0.09,-0.01,-0.13,0.07,0.11,0.97,
2.645,0.10,0.00,-0.08,0.07,0.11,0.97,
2.648,0.10,0.00,-0.08,0.07,0.10,0.97,
2.65,0.10,0.00,-0.08,0.07,0.10,0.97,
2.65,0.10,0.02,-0.02,0.07,0.10,0.97,
2.653,0.10,0.02,-0.02,0.07,0.10,0.98,
2.655,0.10,0.02,-0.02,0.07,0.10,0.98,
2.656,0.08,0.01,0.03,0.07,0.10,0.98,
2.658,0.08,0.01,0.03,0.07,0.11,0.98,
2.66,0.08,0.01,0.03,0.07,0.10,0.98,
2.66,0.07,0.03,0.08,0.07,0.10,0.98,
2.662,0.07,0.03,0.08,0.06,0.11,0.98,
2.665,0.07,0.03,0.08,0.06,0.11,0.98,
2.665,0.04,0.04,0.10,0.06,0.11,0.98,
2.667,0.04,0.04,0.10,0.06,0.11,0.98,
2.67,0.04,0.04,0.10,0.06,0.11,0.98,
2.671,0.02,0.05,0.10,0.06,0.11,0.98,
2.672,0.02,0.05,0.10,0.06,0.11,0.98,
2.675,0.02,0.05,0.10,0.06,0.10,0.98,
2.675,-0.00,0.05,0.11,0.06,0.10,0.98,
2.677,-0.00,0.05,0.11,0.06,0.11,0.98,
2.68,-0.00,0.05,0.11,0.06,0.11,0.98,
2.68,-0.00,0.05,0.12,0.06,0.11,0.98,
2.682,-0.00,0.05,0.12,0.06,0.11,0.98,
2.684,-0.00,0.05,0.12,0.06,0.11,0.98,
2.685,0.00,0.06,0.11,0.06,0.11,0.98,
2.687,0.00,0.06,0.11,0.06,0.11,0.98,
2.689,0.00,0.06,0.11,0.06,0.11,0.98,
2.69,0.02,0.07,0.11,0.06,0.11,0.98,
2.692,0.02,0.07,0.11,0.07,0.11,0.98,
2.694,0.02,0.07,0.11,0.07,0.11,0.98,
2.695,0.05,0.07,0.09,0.07,0.11,0.98,
2.697,0.05,0.07,0.09,0.07,0.11,0.98,
2.699,0.05,0.07,0.09,0.07,0.11,0.98,
2.699,0.08,0.10,0.08,0.07,0.11,0.98,
2.702,0.08,0.10,0.08,0.07,0.11,0.98,
2.708,0.08,0.10,0.08,0.07,0.12,0.99,
2.709,0.07,0.13,0.13,0.07,0.12,0.99,
2.709,0.07,0.13,0.13,0.07,0.12,0.98,
2.709,0.10,0.16,0.14,0.07,0.12,0.98,
2.71,0.10,0.16,0.14,0.07,0.12,0.98,
2.711,0.10,0.16,0.14,0.07,0.12,0.99,
2.714,0.10,0.16,0.14,0.07,0.12,0.99,
2.714,0.12,0.20,0.13,0.07,0.12,0.99,
2.716,0.12,0.20,0.13,0.07,0.12,0.99,
2.719,0.12,0.20,0.13,0.07,0.12,0.99,
2.719,0.14,0.19,0.16,0.07,0.12,0.99,
2.721,0.14,0.19,0.16,0.07,0.12,0.99,
2.724,0.14,0.19,0.16,0.07,0.12,0.99,
2.724,0.14,0.21,0.17,0.07,0.12,0.99,
2.726,0.14,0.21,0.17,0.07,0.12,0.99,
2.728,0.14,0.21,0.17,0.07,0.12,0.99,
2.729,0.11,0.22,0.16,0.07,0.12,0.99,
2.731,0.11,0.22,0.16,0.07,0.12,0.99,
2.734,0.11,0.22,0.16,0.07,0.12,0.98,
2.734,0.08,0.24,0.15,0.07,0.12,0.98,
2.736,0.08,0.24,0.15,0.06,0.12,0.98,
2.738,0.08,0.24,0.15,0.06,0.12,0.98,
2.739,0.07,0.23,0.13,0.06,0.12,0.98,
2.741,0.07,0.23,0.13,0.06,0.12,0.98,
2.743,0.07,0.23,0.13,0.06,0.12,0.98,
2.744,0.04,0.22,0.11,0.06,0.12,0.98,
2.746,0.04,0.22,0.11,0.06,0.12,0.98,
2.748,0.04,0.22,0.11,0.06,0.12,0.98,
2.748,0.01,0.21,0.08,0.06,0.12,0.98,
2.75,0.01,0.21,0.08,0.06,0.12,0.98,
2.753,0.01,0.21,0.08,0.06,0.12,0.98,
2.754,-0.01,0.21,0.05,0.06,0.12,0.98,
2.755,-0.01,0.21,0.05,0.06,0.12,0.97,
2.758,-0.01,0.21,0.05,0.06,0.12,0.97,
2.758,-0.00,0.18,0.04,0.06,0.12,0.97,
2.76,-0.00,0.18,0.04,0.06,0.12,0.97,
2.763,-0.00,0.18,0.04,0.06,0.12,0.98,
2.763,-0.01,0.20,0.02,0.06,0.12,0.98,
2.765,-0.01,0.20,0.02,0.06,0.12,0.98,
2.768,-0.01,0.20,0.02,0.06,0.12,0.98,
2.768,-0.00,0.21,0.03,0.06,0.12,0.98,
2.77,-0.00,0.21,0.03,0.06,0.12,0.98,
2.773,-0.00,0.21,0.03,0.07,0.12,0.98,
2.773,0.02,0.21,0.06,0.07,0.12,0.98,
2.775,0.02,0.21,0.06,0.07,0.12,0.99,
2.778,0.02,0.21,0.06,0.07,0.12,0.99,
2.778,0.07,0.24,0.11,0.07,0.12,0.99,
2.78,0.07,0.24,0.11,0.07,0.12,0.99,
2.782,0.07,0.24,0.11,0.07,0.12,0.99,
2.783,0.12,0.25,0.14,0.07,0.12,0.99,
2.785,0.12,0.25,0.14,0.08,0.12,0.99,
2.79,0.12,0.25,0.14,0.08,0.13,0.99,
2.791,0.16,0.25,0.16,0.08,0.13,0.99,
2.791,0.16,0.25,0.16,0.08,0.13,0.99,
2.792,0.16,0.25,0.16,0.08,0.13,0.99,
2.792,0.19,0.27,0.19,0.08,0.13,0.99,
2.795,0.19,0.27,0.19,0.08,0.13,1.00,
2.797,0.19,0.27,0.19,0.08,0.13,1.00,
2.797,0.21,0.29,0.21,0.08,0.13,1.00,
2.799,0.21,0.29,0.21,0.08,0.13,1.00,
2.802,0.21,0.29,0.21,0.08,0.12,1.00,
2.802,0.23,0.28,0.22,0.08,0.12,1.00,
2.805,0.23,0.28,0.22,0.08,0.13,1.00,
2.807,0.23,0.28,0.22,0.08,0.12,1.00,
2.807,0.21,0.26,0.23,0.08,0.12,1.00,
2.809,0.21,0.26,0.23,0.08,0.13,1.00,
2.812,0.21,0.26,0.23,0.08,0.13,1.00,
2.812,0.20,0.26,0.23,0.08,0.13,1.00,
2.814,0.20,0.26,0.23,0.07,0.13,1.00,
2.817,0.20,0.26,0.23,0.08,0.12,0.99,
2.817,0.19,0.27,0.23,0.08,0.12,0.99,
2.819,0.19,0.27,0.23,0.07,0.12,0.99,
2.822,0.19,0.27,0.23,0.07,0.12,0.99,
2.822,0.16,0.25,0.20,0.07,0.12,0.99,
2.824,0.16,0.25,0.20,0.07,0.12,0.99,
2.826,0.16,0.25,0.20,0.07,0.12,0.99,
2.827,0.15,0.23,0.17,0.07,0.12,0.99,
2.829,0.15,0.23,0.17,0.07,0.12,0.99,
2.831,0.15,0.23,0.17,0.07,0.12,0.98,
2.831,0.11,0.22,0.13,0.07,0.12,0.98,
2.834,0.11,0.22,0.13,0.07,0.12,0.98,
2.836,0.11,0.22,0.13,0.07,0.12,0.98,
2.837,0.09,0.21,0.10,0.07,0.12,0.98,
2.839,0.09,0.21,0.10,0.06,0.12,0.98,
2.841,0.09,0.21,0.10,0.06,0.12,0.98,
2.842,0.09,0.20,0.07,0.06,0.12,0.98,
2.844,0.09,0.20,0.07,0.06,0.12,0.98,
2.846,0.09,0.20,0.07,0.06,0.12,0.98,
2.847,0.04,0.19,0.05,0.06,0.12,0.98,
2.848,0.04,0.19,0.05,0.06,0.12,0.98,
2.851,0.04,0.19,0.05,0.06,0.12,0.98,
2.851,0.02,0.17,0.04,0.06,0.12,0.98,
2.854,0.02,0.17,0.04,0.06,0.11,0.98,
2.856,0.02,0.17,0.04,0.06,0.11,0.98,
2.857,0.02,0.16,0.04,0.06,0.11,0.98,
2.858,0.02,0.16,0.04,0.06,0.11,0.98,
2.861,0.02,0.16,0.04,0.06,0.11,0.98,
2.861,0.00,0.15,0.05,0.06,0.11,0.98,
2.863,0.00,0.15,0.05,0.06,0.11,0.98,
2.866,0.00,0.15,0.05,0.06,0.11,0.99,
2.866,-0.00,0.14,0.08,0.06,0.11,0.99,
2.868,-0.00,0.14,0.08,0.06,0.11,0.99,
2.871,-0.00,0.14,0.08,0.06,0.11,0.99,
2.871,0.03,0.12,0.10,0.06,0.11,0.99,
2.873,0.03,0.12,0.10,0.06,0.11,0.99,
2.875,0.03,0.12,0.10,0.06,0.11,0.99,
2.876,0.01,0.11,0.15,0.06,0.11,0.99,
2.878,0.01,0.11,0.15,0.06,0.11,1.00,
2.881,0.01,0.11,0.15,0.07,0.11,1.00,
2.881,0.02,0.09,0.18,0.07,0.11,1.00,
2.883,0.02,0.09,0.18,0.07,0.11,1.00,
2.885,0.02,0.09,0.18,0.06,0.11,1.00,
2.886,0.05,0.07,0.23,0.06,0.11,1.00,
2.893,0.05,0.07,0.23,0.07,0.11,1.00,
2.893,0.05,0.07,0.23,0.07,0.11,1.01,
2.893,0.06,0.08,0.27,0.07,0.11,1.01,
2.894,0.06,0.08,0.27,0.07,0.11,1.01,
2.895,0.06,0.08,0.27,0.07,0.11,1.01,
2.895,0.12,0.08,0.28,0.07,0.11,1.01,
2.898,0.12,0.08,0.28,0.08,0.11,1.00,
2.9,0.12,0.08,0.28,0.08,0.11,1.00,
2.9,0.15,0.08,0.29,0.08,0.11,1.00,
2.902,0.15,0.08,0.29,0.07,0.10,0.95,
2.905,0.15,0.08,0.29,0.09,0.11,0.78,
2.905,0.17,0.09,0.26,0.09,0.11,0.78,
2.907,0.17,0.09,0.26,0.13,0.13,0.69,
2.91,0.17,0.09,0.26,0.15,0.13,0.76,
2.91,0.24,0.06,-1.12,0.15,0.13,0.76,
2.912,0.24,0.06,-1.12,0.14,0.12,0.86,
2.915,0.24,0.06,-1.12,0.13,0.10,0.93,
2.915,0.80,0.31,-2.43,0.13,0.10,0.93,
2.917,0.80,0.31,-2.43,0.11,0.10,0.96,
2.92,0.80,0.31,-2.43,0.10,0.10,0.97,
2.92,0.79,0.15,-0.78,0.10,0.10,0.97,
2.922,0.79,0.15,-0.78,0.08,0.11,0.98,
2.924,0.79,0.15,-0.78,0.07,0.13,0.99,
2.925,0.48,0.07,-0.09,0.07,0.13,0.99,
2.927,0.48,0.07,-0.09,0.06,0.13,1.00,
2.929,0.48,0.07,-0.09,0.06,0.13,1.01,
2.929,0.21,0.26,0.14,0.06,0.13,1.01,
2.932,0.21,0.26,0.14,0.07,0.12,1.03,
2.934,0.21,0.26,0.14,0.07,0.11,1.04,
2.934,0.08,0.39,0.31,0.07,0.11,1.04,
2.937,0.08,0.39,0.31,0.07,0.10,1.06,
2.939,0.08,0.39,0.31,0.07,0.09,1.07,
2.939,0.14,0.27,0.60,0.07,0.09,1.07,
2.942,0.14,0.27,0.60,0.07,0.09,1.08,
2.944,0.14,0.27,0.60,0.06,0.08,1.09,
2.944,0.18,0.05,0.87,0.06,0.08,1.09,
2.946,0.18,0.05,0.87,0.06,0.09,1.09,
2.949,0.18,0.05,0.87,0.05,0.09,1.09,
2.949,0.11,-0.07,1.03,0.05,0.09,1.09,
2.951,0.11,-0.07,1.03,0.05,0.10,1.08,
2.954,0.11,-0.07,1.03,0.04,0.11,1.06,
2.954,0.00,-0.02,1.09,0.04,0.11,1.06,
2.956,0.00,-0.02,1.09,0.04,0.11,1.05,
2.959,0.00,-0.02,1.09,0.04,0.11,1.04,
2.959,-0.10,0.11,0.91,0.04,0.11,1.04,
2.961,-0.10,0.11,0.91,0.04,0.11,1.03,
2.964,-0.10,0.11,0.91,0.05,0.11,1.01,
2.964,-0.15,0.18,0.66,0.05,0.11,1.01,
2.966,-0.15,0.18,0.66,0.06,0.11,0.99,
2.968,-0.15,0.18,0.66,0.06,0.10,0.98,
2.969,-0.11,0.15,0.38,0.06,0.10,0.98,
