
time,ax,ay,az,gFx,gFy,gFz,
0.0,-0.03,0.12,0.28,0.06,0.10,0.95,
0.0,-0.08,0.10,0.01,0.06,0.10,0.95,
0.001,-0.08,0.10,0.01,0.06,0.10,0.94,
0.003,-0.08,0.10,0.01,0.07,0.10,0.93,
0.003,-0.04,0.04,-0.23,0.07,0.10,0.93,
0.005,-0.04,0.04,-0.23,0.07,0.10,0.92,
0.007,-0.04,0.04,-0.23,0.07,0.10,0.92,
0.008,0.01,0.01,-0.45,0.07,0.10,0.92,
0.01,0.01,0.01,-0.45,0.07,0.10,0.91,
0.014,0.08,-0.01,-0.56,0.07,0.10,0.91,
0.014,0.08,-0.01,-0.56,0.08,0.10,0.91,
0.015,0.08,-0.01,-0.56,0.08,0.10,0.91,
0.017,0.08,-0.01,-0.56,0.09,0.11,0.91,
0.017,0.14,0.01,-0.65,0.09,0.11,0.91,
0.02,0.14,0.01,-0.65,0.09,0.11,0.91,
0.022,0.14,0.01,-0.65,0.09,0.11,0.91,
0.022,0.20,0.06,-0.68,0.09,0.11,0.91,
0.025,0.20,0.06,-0.68,0.10,0.11,0.92,
0.027,0.20,0.06,-0.68,0.10,0.12,0.92,
0.028,0.27,0.12,-0.64,0.10,0.12,0.92,
0.03,0.27,0.12,-0.64,0.10,0.12,0.92,
0.032,0.27,0.12,-0.64,0.10,0.12,0.93,
0.032,0.31,0.17,-0.57,0.10,0.12,0.93,
0.034,0.31,0.17,-0.57,0.11,0.12,0.93,
0.037,0.31,0.17,-0.57,0.11,0.12,0.94,
0.037,0.38,0.20,-0.49,0.11,0.12,0.94,
0.039,0.38,0.20,-0.49,0.11,0.12,0.95,
0.042,0.38,0.20,-0.49,0.11,0.12,0.95,
0.042,0.44,0.23,-0.39,0.11,0.12,0.95,
0.044,0.44,0.23,-0.39,0.11,0.12,0.96,
0.047,0.44,0.23,-0.39,0.11,0.12,0.96,
0.047,0.45,0.26,-0.26,0.11,0.12,0.96,
0.049,0.45,0.26,-0.26,0.11,0.12,0.96,
0.052,0.45,0.26,-0.26,0.11,0.12,0.97,
0.052,0.47,0.27,-0.17,0.11,0.12,0.97,
0.054,0.47,0.27,-0.17,0.10,0.12,0.97,
0.056,0.47,0.27,-0.17,0.10,0.12,0.98,
0.057,0.45,0.26,-0.09,0.10,0.12,0.98,
0.059,0.45,0.26,-0.09,0.10,0.12,0.98,
0.062,0.45,0.26,-0.09,0.09,0.12,0.98,
0.062,0.38,0.27,-0.01,0.09,0.12,0.98,
0.07,0.38,0.27,-0.01,0.09,0.12,0.98,
0.07,0.38,0.27,-0.01,0.08,0.12,0.99,
0.071,0.32,0.26,0.03,0.08,0.12,0.99,
0.071,0.32,0.26,0.03,0.08,0.12,0.99,
0.071,0.32,0.26,0.03,0.08,0.12,0.99,
0.072,0.23,0.22,0.08,0.08,0.12,0.99,
0.074,0.23,0.22,0.08,0.07,0.11,0.98,
0.076,0.23,0.22,0.08,0.07,0.11,0.98,
0.076,0.16,0.22,0.09,0.07,0.11,0.98,
0.079,0.16,0.22,0.09,0.06,0.11,0.99,
0.081,0.16,0.22,0.09,0.06,0.11,0.98,
0.081,0.07,0.18,0.08,0.06,0.11,0.98,
0.083,0.07,0.18,0.08,0.05,0.10,0.98,
0.086,0.07,0.18,0.08,0.05,0.10,0.98,
0.086,-0.03,0.13,0.09,0.05,0.10,0.98,
0.088,-0.03,0.13,0.09,0.05,0.10,0.98,
0.091,-0.03,0.13,0.09,0.04,0.10,0.98,
0.091,-0.10,0.08,0.06,0.04,0.10,0.98,
0.093,-0.10,0.08,0.06,0.04,0.10,0.98,
0.096,-0.10,0.08,0.06,0.04,0.10,0.98,
0.097,-0.16,0.05,0.04,0.04,0.10,0.98,
0.098,-0.16,0.05,0.04,0.04,0.10,0.97,
0.101,-0.16,0.05,0.04,0.04,0.09,0.97,
0.101,-0.22,0.02,0.00,0.04,0.09,0.97,
0.103,-0.22,0.02,0.00,0.04,0.09,0.97,
0.105,-0.22,0.02,0.00,0.04,0.10,0.97,
0.106,-0.22,0.00,-0.03,0.04,0.10,0.97,
0.108,-0.22,0.00,-0.03,0.04,0.10,0.97,
0.11,-0.22,0.00,-0.03,0.04,0.10,0.97,
0.111,-0.23,-0.00,-0.05,0.04,0.10,0.97,
0.113,-0.23,-0.00,-0.05,0.04,0.10,0.97,
0.115,-0.23,-0.00,-0.05,0.04,0.10,0.97,
0.116,-0.22,-0.00,-0.05,0.04,0.10,0.97,
0.118,-0.22,-0.00,-0.05,0.04,0.10,0.97,
0.12,-0.22,-0.00,-0.05,0.05,0.10,0.97,
0.12,-0.21,0.01,-0.05,0.05,0.10,0.97,
0.122,-0.21,0.01,-0.05,0.05,0.10,0.97,
0.125,-0.21,0.01,-0.05,0.05,0.10,0.97,
0.125,-0.18,0.00,-0.05,0.05,0.10,0.97,
0.128,-0.18,0.00,-0.05,0.06,0.09,0.98,
0.13,-0.18,0.00,-0.05,0.06,0.10,0.98,
0.131,-0.13,-0.00,-0.02,0.06,0.10,0.98,
0.132,-0.13,-0.00,-0.02,0.06,0.10,0.98,
0.135,-0.13,-0.00,-0.02,0.07,0.09,0.98,
0.135,-0.06,-0.00,0.02,0.07,0.09,0.98,
0.137,-0.06,-0.00,0.02,0.07,0.10,0.98,
0.14,-0.06,-0.00,0.02,0.07,0.10,0.98,
0.14,-0.00,-0.00,0.04,0.07,0.10,0.98,
0.142,-0.00,-0.00,0.04,0.08,0.10,0.99,
0.145,-0.00,-0.00,0.04,0.08,0.10,0.99,
0.145,0.07,-0.00,0.07,0.08,0.10,0.99,
0.147,0.07,-0.00,0.07,0.08,0.10,0.99,
0.15,0.07,-0.00,0.07,0.08,0.10,0.99,
0.15,0.13,0.04,0.09,0.08,0.10,0.99,
0.152,0.13,0.04,0.09,0.08,0.10,0.99,
0.154,0.13,0.04,0.09,0.08,0.10,0.99,
0.155,0.16,0.06,0.10,0.08,0.10,0.99,
0.157,0.16,0.06,0.10,0.08,0.10,0.99,
0.16,0.16,0.06,0.10,0.08,0.10,0.98,
0.16,0.18,0.05,0.10,0.08,0.10,0.98,
0.162,0.18,0.05,0.10,0.08,0.10,0.98,
0.171,0.18,0.05,0.10,0.08,0.10,0.98,
0.171,0.18,0.06,0.08,0.08,0.10,0.98,
0.171,0.18,0.06,0.08,0.08,0.10,0.98,
0.171,0.18,0.06,0.08,0.08,0.10,0.98,
0.172,0.16,0.06,0.07,0.08,0.10,0.98,
0.172,0.16,0.06,0.07,0.08,0.10,0.98,
0.174,0.16,0.06,0.07,0.08,0.10,0.98,
0.174,0.15,0.04,0.04,0.08,0.10,0.98,
0.176,0.15,0.04,0.04,0.08,0.10,0.98,
0.18,0.15,0.04,0.04,0.08,0.10,0.97,
0.18,0.14,0.03,0.02,0.08,0.10,0.97,
0.182,0.14,0.03,0.02,0.07,0.10,0.97,
0.184,0.11,0.01,-0.01,0.07,0.10,0.97,
0.184,0.11,0.01,-0.01,0.07,0.10,0.97,
0.186,0.11,0.01,-0.01,0.07,0.10,0.97,
0.189,0.11,0.01,-0.01,0.06,0.10,0.97,
0.189,0.04,0.01,-0.05,0.06,0.10,0.97,
0.191,0.04,0.01,-0.05,0.06,0.09,0.97,
0.194,0.04,0.01,-0.05,0.06,0.09,0.97,
0.194,-0.03,-0.00,-0.05,0.06,0.09,0.97,
0.196,-0.03,-0.00,-0.05,0.06,0.09,0.97,
0.199,-0.03,-0.00,-0.05,0.05,0.09,0.97,
0.199,-0.07,-0.02,-0.06,0.05,0.09,0.97,
0.201,-0.07,-0.02,-0.06,0.05,0.09,0.97,
0.203,-0.07,-0.02,-0.06,0.05,0.09,0.97,
0.204,-0.12,-0.03,-0.06,0.05,0.09,0.97,
0.206,-0.12,-0.03,-0.06,0.05,0.09,0.97,
0.208,-0.12,-0.03,-0.06,0.05,0.09,0.97,
0.209,-0.16,-0.03,-0.05,0.05,0.09,0.97,
0.211,-0.16,-0.03,-0.05,0.05,0.09,0.97,
0.213,-0.16,-0.03,-0.05,0.05,0.09,0.97,
0.213,-0.17,-0.04,-0.04,0.05,0.09,0.97,
0.216,-0.17,-0.04,-0.04,0.05,0.09,0.97,
0.218,-0.17,-0.04,-0.04,0.05,0.09,0.97,
0.218,-0.15,-0.05,-0.03,0.05,0.09,0.97,
0.22,-0.15,-0.05,-0.03,0.06,0.09,0.97,
0.223,-0.15,-0.05,-0.03,0.06,0.09,0.97,
0.223,-0.17,-0.04,-0.03,0.06,0.09,0.97,
0.225,-0.17,-0.04,-0.03,0.06,0.09,0.97,
0.228,-0.17,-0.04,-0.03,0.06,0.10,0.97,
0.228,-0.14,-0.04,-0.03,0.06,0.10,0.97,
0.23,-0.14,-0.04,-0.03,0.05,0.10,0.97,
0.233,-0.14,-0.02,-0.03,0.05,0.10,0.97,
0.233,-0.14,-0.02,-0.03,0.06,0.10,0.97,
0.235,-0.14,-0.02,-0.03,0.06,0.10,0.97,
0.238,-0.14,-0.02,-0.03,0.06,0.10,0.97,
0.238,-0.15,0.00,-0.05,0.06,0.10,0.97,
0.24,-0.15,0.00,-0.05,0.06,0.11,0.97,
0.243,-0.15,0.00,-0.05,0.06,0.11,0.97,
0.243,-0.13,0.05,-0.07,0.06,0.11,0.97,
0.245,-0.13,0.05,-0.07,0.06,0.11,0.97,
0.248,-0.13,0.05,-0.07,0.07,0.11,0.97,
0.248,-0.08,0.09,-0.07,0.07,0.11,0.97,
0.25,-0.08,0.09,-0.07,0.06,0.11,0.96,
0.252,-0.08,0.09,-0.07,0.07,0.11,0.96,
0.253,-0.05,0.09,-0.08,0.07,0.11,0.96,
0.255,-0.05,0.09,-0.08,0.07,0.11,0.97,
0.257,-0.05,0.09,-0.08,0.07,0.11,0.97,
0.258,-0.03,0.13,-0.10,0.07,0.11,0.97,
0.26,-0.03,0.13,-0.10,0.07,0.11,0.97,
0.266,-0.03,0.13,-0.10,0.07,0.11,0.97,
0.266,-0.02,0.15,-0.09,0.07,0.11,0.97,
0.266,-0.02,0.15,-0.09,0.06,0.11,0.96,
0.268,-0.02,0.15,-0.09,0.06,0.11,0.96,
0.268,-0.03,0.15,-0.09,0.06,0.11,0.96,
0.269,-0.03,0.15,-0.09,0.06,0.11,0.96,
0.272,-0.03,0.15,-0.09,0.06,0.11,0.96,
0.272,-0.04,0.14,-0.10,0.06,0.11,0.96,
0.274,-0.04,0.14,-0.10,0.06,0.11,0.96,
0.277,-0.04,0.14,-0.10,0.05,0.11,0.96,
0.277,-0.07,0.12,-0.10,0.05,0.11,0.96,
0.279,-0.07,0.12,-0.10,0.05,0.11,0.96,
0.282,-0.07,0.12,-0.10,0.05,0.11,0.96,
0.282,-0.14,0.13,-0.12,0.05,0.11,0.96,
0.284,-0.14,0.13,-0.12,0.04,0.11,0.96,
0.287,-0.14,0.13,-0.12,0.04,0.11,0.97,
0.287,-0.20,0.13,-0.12,0.04,0.11,0.97,
0.289,-0.20,0.13,-0.12,0.04,0.11,0.97,
0.292,-0.20,0.13,-0.12,0.03,0.11,0.97,
0.292,-0.25,0.12,-0.09,0.03,0.11,0.97,
0.294,-0.25,0.12,-0.09,0.03,0.10,0.97,
0.296,-0.25,0.12,-0.09,0.03,0.10,0.97,
0.297,-0.32,0.08,-0.06,0.03,0.10,0.97,
0.299,-0.32,0.08,-0.06,0.03,0.10,0.98,
0.302,-0.32,0.08,-0.06,0.03,0.10,0.98,
0.302,-0.36,0.05,-0.01,0.03,0.10,0.98,
0.304,-0.36,0.05,-0.01,0.02,0.10,0.98,
0.306,-0.36,0.05,-0.01,0.02,0.09,0.98,
0.306,-0.40,-0.01,0.04,0.02,0.09,0.98,
0.309,-0.40,-0.01,0.04,0.02,0.09,0.98,
0.311,-0.40,-0.01,0.04,0.02,0.09,0.98,
0.311,-0.46,-0.03,0.08,0.02,0.09,0.98,
0.314,-0.46,-0.03,0.08,0.01,0.09,0.99,
0.316,-0.46,-0.03,0.08,0.01,0.09,0.99,
0.316,-0.50,-0.05,0.10,0.01,0.09,0.99,
0.319,-0.50,-0.05,0.10,0.01,0.09,0.99,
0.321,-0.50,-0.05,0.10,0.01,0.09,0.99,
0.321,-0.53,-0.06,0.12,0.01,0.09,0.99,
0.323,-0.53,-0.06,0.12,0.01,0.09,0.99,
0.326,-0.53,-0.06,0.12,0.01,0.09,0.99,
0.326,-0.54,-0.07,0.13,0.01,0.09,0.99,
0.328,-0.54,-0.07,0.13,0.01,0.09,0.99,
0.331,-0.54,-0.07,0.13,0.01,0.09,0.99,
0.331,-0.55,-0.09,0.13,0.01,0.09,0.99,
0.333,-0.55,-0.09,0.13,0.01,0.09,0.99,
0.336,-0.55,-0.09,0.13,0.02,0.09,1.00,
0.338,-0.53,-0.10,0.16,0.02,0.09,1.00,
0.338,-0.53,-0.10,0.16,0.02,0.09,1.00,
0.34,-0.53,-0.10,0.16,0.02,0.09,0.99,
0.341,-0.51,-0.10,0.19,0.02,0.09,0.99,
0.343,-0.51,-0.10,0.19,0.02,0.09,0.99,
0.346,-0.51,-0.10,0.19,0.02,0.09,1.00,
0.346,-0.47,-0.11,0.20,0.02,0.09,1.00,
0.348,-0.47,-0.11,0.20,0.02,0.09,1.00,
0.351,-0.47,-0.11,0.20,0.02,0.09,1.00,
0.351,-0.46,-0.09,0.20,0.02,0.09,1.00,
0.353,-0.46,-0.09,0.20,0.02,0.09,1.00,
0.355,-0.46,-0.09,0.20,0.02,0.09,1.00,
0.356,-0.43,-0.09,0.21,0.02,0.09,1.00,
0.358,-0.43,-0.09,0.21,0.02,0.09,1.00,
0.36,-0.43,-0.09,0.21,0.02,0.09,1.00,
0.36,-0.43,-0.07,0.21,0.02,0.09,1.00,
0.362,-0.43,-0.07,0.21,0.02,0.09,1.00,
0.365,-0.43,-0.07,0.21,0.02,0.09,1.00,
0.366,-0.45,-0.06,0.21,0.02,0.09,1.00,
0.368,-0.45,-0.06,0.21,0.01,0.09,1.00,
0.37,-0.47,-0.07,0.22,0.01,0.09,1.00,
0.37,-0.47,-0.07,0.22,0.01,0.09,1.00,
0.372,-0.47,-0.07,0.22,0.01,0.09,1.00,
0.375,-0.47,-0.07,0.22,0.00,0.09,1.01,
0.375,-0.52,-0.07,0.26,0.00,0.09,1.01,
0.377,-0.52,-0.07,0.26,-0.00,0.09,1.01,
0.382,-0.52,-0.07,0.26,-0.00,0.08,1.01,
0.383,-0.57,-0.09,0.28,-0.00,0.08,1.01,
0.383,-0.57,-0.09,0.28,-0.01,0.08,1.01,
0.385,-0.57,-0.09,0.28,-0.01,0.08,1.01,
0.385,-0.65,-0.12,0.32,-0.01,0.08,1.01,
0.387,-0.65,-0.12,0.32,-0.01,0.08,1.02,
0.39,-0.65,-0.12,0.32,-0.01,0.08,1.02,
0.39,-0.70,-0.16,0.35,-0.01,0.08,1.02,
0.392,-0.70,-0.16,0.35,-0.02,0.07,1.02,
0.395,-0.70,-0.16,0.35,-0.02,0.07,1.02,
0.395,-0.74,-0.19,0.39,-0.02,0.07,1.02,
0.397,-0.74,-0.19,0.39,-0.02,0.07,1.02,
0.399,-0.74,-0.19,0.39,-0.02,0.07,1.02,
0.4,-0.76,-0.24,0.43,-0.02,0.07,1.02,
0.402,-0.76,-0.24,0.43,-0.02,0.07,1.03,
0.404,-0.76,-0.24,0.43,-0.02,0.07,1.03,
0.405,-0.79,-0.28,0.44,-0.02,0.07,1.03,
0.406,-0.79,-0.28,0.44,-0.02,0.06,1.03,
0.409,-0.79,-0.28,0.44,-0.02,0.06,1.03,
0.409,-0.80,-0.28,0.47,-0.02,0.06,1.03,
0.411,-0.80,-0.28,0.47,-0.02,0.06,1.03,
0.414,-0.80,-0.28,0.47,-0.02,0.06,1.03,
0.415,-0.79,-0.32,0.48,-0.02,0.06,1.03,
0.416,-0.79,-0.32,0.48,-0.02,0.06,1.03,
0.419,-0.79,-0.32,0.48,-0.01,0.06,1.03,
0.419,-0.74,-0.33,0.47,-0.01,0.06,1.03,
0.421,-0.74,-0.33,0.47,-0.01,0.06,1.03,
0.424,-0.74,-0.33,0.47,-0.01,0.06,1.02,
0.424,-0.72,-0.34,0.46,-0.01,0.06,1.02,
0.426,-0.72,-0.34,0.46,-0.01,0.06,1.02,
0.429,-0.72,-0.34,0.46,-0.01,0.06,1.02,
0.429,-0.67,-0.36,0.44,-0.01,0.06,1.02,
0.431,-0.67,-0.36,0.44,-0.01,0.06,1.02,
0.434,-0.67,-0.36,0.44,-0.01,0.06,1.01,
0.434,-0.64,-0.36,0.39,-0.01,0.06,1.01,
0.436,-0.64,-0.36,0.39,-0.01,0.06,1.01,
0.439,-0.61,-0.32,0.34,-0.01,0.06,1.01,
0.439,-0.61,-0.32,0.34,-0.01,0.06,1.01,
0.441,-0.61,-0.32,0.34,-0.01,0.06,1.00,
0.443,-0.61,-0.32,0.34,-0.01,0.06,1.00,
0.444,-0.62,-0.30,0.26,-0.01,0.06,1.00,
0.446,-0.62,-0.30,0.26,-0.01,0.06,0.99,
0.448,-0.62,-0.30,0.26,-0.01,0.07,0.99,
0.448,-0.61,-0.28,0.18,-0.01,0.07,0.99,
0.45,-0.61,-0.28,0.18,-0.01,0.07,0.99,
0.453,-0.61,-0.26,0.10,-0.01,0.07,0.99,
0.453,-0.61,-0.26,0.10,-0.01,0.06,0.98,
0.456,-0.61,-0.26,0.10,-0.01,0.06,0.98,
0.458,-0.61,-0.26,0.10,-0.01,0.06,0.98,
0.458,-0.59,-0.27,0.04,-0.01,0.06,0.98,
0.46,-0.59,-0.27,0.04,-0.01,0.07,0.98,
0.463,-0.59,-0.27,0.04,-0.01,0.06,0.98,
0.463,-0.59,-0.28,-0.01,-0.01,0.06,0.98,
0.465,-0.59,-0.28,-0.01,-0.02,0.06,0.98,
0.468,-0.59,-0.28,-0.01,-0.02,0.06,0.98,
0.468,-0.61,-0.28,-0.04,-0.02,0.06,0.98,
0.47,-0.61,-0.28,-0.04,-0.02,0.06,0.98,
0.473,-0.61,-0.28,-0.04,-0.02,0.06,0.98,
0.473,-0.64,-0.32,-0.05,-0.02,0.06,0.98,
0.475,-0.64,-0.32,-0.05,-0.02,0.06,0.98,
0.478,-0.64,-0.32,-0.05,-0.02,0.06,0.98,
0.478,-0.68,-0.33,-0.05,-0.02,0.06,0.98,
0.483,-0.68,-0.33,-0.05,-0.02,0.06,0.98,
0.483,-0.68,-0.33,-0.05,-0.02,0.06,0.98,
0.483,-0.67,-0.32,-0.02,-0.02,0.06,0.98,
0.485,-0.67,-0.32,-0.02,-0.02,0.06,0.98,
0.488,-0.67,-0.32,-0.02,-0.01,0.06,0.99,
0.488,-0.64,-0.32,0.00,-0.01,0.06,0.99,
0.49,-0.64,-0.32,0.00,-0.01,0.06,0.99,
0.492,-0.64,-0.32,0.00,-0.01,0.06,0.99,
0.493,-0.61,-0.33,0.04,-0.01,0.06,0.99,
0.495,-0.61,-0.33,0.04,-0.01,0.06,1.00,
0.497,-0.61,-0.33,0.04,-0.00,0.06,1.00,
0.498,-0.57,-0.32,0.10,-0.00,0.06,1.00,
0.5,-0.57,-0.32,0.10,-0.00,0.06,1.00,
0.502,-0.57,-0.32,0.10,0.00,0.06,1.00,
0.503,-0.49,-0.33,0.13,0.00,0.06,1.00,
0.504,-0.49,-0.33,0.13,0.01,0.06,1.00,
0.507,-0.49,-0.33,0.13,0.01,0.06,1.00,
0.508,-0.44,-0.32,0.15,0.01,0.06,1.00,
0.509,-0.44,-0.32,0.15,0.01,0.06,0.99,
0.512,-0.44,-0.32,0.15,0.02,0.06,0.99,
0.513,-0.36,-0.29,0.14,0.02,0.06,0.99,
0.514,-0.36,-0.29,0.14,0.02,0.07,0.99,
0.517,-0.36,-0.29,0.14,0.02,0.07,0.99,
0.517,-0.29,-0.27,0.11,0.02,0.07,0.99,
0.519,-0.29,-0.27,0.11,0.02,0.07,0.98,
0.522,-0.29,-0.27,0.11,0.03,0.07,0.98,
0.522,-0.24,-0.23,0.07,0.03,0.07,0.98,
0.524,-0.24,-0.23,0.07,0.03,0.07,0.98,
0.527,-0.24,-0.23,0.07,0.03,0.07,0.97,
0.527,-0.18,-0.21,-0.01,0.03,0.07,0.97,
0.529,-0.18,-0.21,-0.01,0.03,0.07,0.97,
0.532,-0.18,-0.21,-0.01,0.03,0.07,0.97,
0.532,-0.14,-0.18,-0.07,0.03,0.07,0.97,
0.534,-0.14,-0.18,-0.07,0.03,0.07,0.96,
0.536,-0.14,-0.18,-0.07,0.03,0.08,0.96,
0.537,-0.10,-0.17,-0.14,0.03,0.08,0.96,
0.539,-0.10,-0.17,-0.14,0.03,0.07,0.95,
0.542,-0.10,-0.17,-0.14,0.04,0.07,0.95,
0.542,-0.08,-0.16,-0.22,0.04,0.07,0.95,
0.544,-0.08,-0.16,-0.22,0.04,0.07,0.95,
0.546,-0.08,-0.16,-0.22,0.04,0.08,0.94,
0.547,-0.05,-0.18,-0.28,0.04,0.08,0.94,
0.549,-0.05,-0.18,-0.28,0.04,0.08,0.94,
0.551,-0.05,-0.18,-0.28,0.04,0.08,0.94,
0.551,-0.02,-0.17,-0.34,0.04,0.08,0.94,
0.553,-0.02,-0.17,-0.34,0.04,0.07,0.94,
0.556,-0.02,-0.17,-0.34,0.04,0.07,0.94,
0.556,0.01,-0.16,-0.38,0.04,0.07,0.94,
0.558,0.01,-0.16,-0.38,0.05,0.07,0.94,
0.561,0.01,-0.16,-0.38,0.05,0.07,0.94,
0.561,0.04,-0.18,-0.39,0.05,0.07,0.94,
0.566,0.04,-0.18,-0.39,0.05,0.07,0.94,
0.566,0.04,-0.18,-0.39,0.05,0.07,0.94,
0.566,0.09,-0.19,-0.39,0.05,0.07,0.94,
0.568,0.09,-0.19,-0.39,0.05,0.07,0.94,
0.571,0.09,-0.19,-0.39,0.06,0.07,0.94,
0.571,0.13,-0.21,-0.37,0.06,0.07,0.94,
0.573,0.13,-0.21,-0.37,0.06,0.07,0.95,
0.576,0.13,-0.21,-0.37,0.06,0.07,0.95,
0.576,0.16,-0.21,-0.34,0.06,0.07,0.95,
0.578,0.16,-0.21,-0.34,0.06,0.07,0.95,
0.581,0.16,-0.21,-0.34,0.06,0.07,0.95,
0.581,0.21,-0.24,-0.31,0.06,0.07,0.95,
0.583,0.21,-0.24,-0.31,0.07,0.06,0.95,
0.585,0.21,-0.24,-0.31,0.07,0.06,0.95,
0.586,0.26,-0.25,-0.27,0.07,0.06,0.95,
0.588,0.26,-0.25,-0.27,0.07,0.06,0.96,
0.59,0.26,-0.25,-0.27,0.07,0.06,0.96,
0.59,0.30,-0.26,-0.24,0.07,0.06,0.96,
0.593,0.30,-0.26,-0.24,0.07,0.06,0.96,
0.595,0.30,-0.26,-0.24,0.06,0.06,0.96,
0.596,0.30,-0.28,-0.20,0.06,0.06,0.96,
0.598,0.30,-0.28,-0.20,0.06,0.06,0.96,
0.6,0.30,-0.28,-0.20,0.06,0.05,0.97,
0.6,0.27,-0.32,-0.16,0.06,0.05,0.97,
0.602,0.27,-0.32,-0.16,0.06,0.05,0.97,
0.605,0.27,-0.32,-0.16,0.06,0.05,0.97,
0.605,0.25,-0.33,-0.13,0.06,0.05,0.97,
0.607,0.25,-0.33,-0.13,0.06,0.05,0.97,
0.61,0.24,-0.34,-0.11,0.06,0.05,0.97,
0.61,0.24,-0.34,-0.11,0.06,0.05,0.97,
0.612,0.24,-0.34,-0.11,0.05,0.05,0.97,
0.615,0.24,-0.34,-0.11,0.05,0.05,0.97,
0.615,0.21,-0.36,-0.09,0.05,0.05,0.97,
0.617,0.21,-0.36,-0.09,0.05,0.05,0.97,
0.62,0.21,-0.36,-0.09,0.05,0.04,0.97,
0.62,0.17,-0.39,-0.08,0.05,0.04,0.97,
0.622,0.17,-0.39,-0.08,0.05,0.04,0.97,
0.625,0.15,-0.41,-0.08,0.05,0.04,0.97,
0.625,0.15,-0.41,-0.08,0.05,0.04,0.97,
0.627,0.15,-0.41,-0.08,0.06,0.04,0.97,
0.63,0.15,-0.41,-0.08,0.06,0.04,0.97,
0.63,0.17,-0.46,-0.10,0.06,0.04,0.97,
0.632,0.17,-0.46,-0.10,0.06,0.04,0.96,
0.634,0.17,-0.46,-0.10,0.06,0.04,0.96,
0.635,0.20,-0.49,-0.12,0.06,0.04,0.96,
0.637,0.20,-0.49,-0.12,0.06,0.04,0.96,
0.64,0.23,-0.48,-0.13,0.06,0.04,0.96,
0.64,0.23,-0.48,-0.13,0.06,0.04,0.96,
0.642,0.23,-0.48,-0.13,0.06,0.04,0.96,
0.645,0.23,-0.48,-0.13,0.07,0.04,0.95,
0.647,0.23,-0.47,-0.18,0.07,0.04,0.95,
0.647,0.23,-0.47,-0.18,0.07,0.04,0.95,
0.649,0.23,-0.47,-0.18,0.07,0.04,0.95,
0.65,0.29,-0.47,-0.23,0.07,0.04,0.95,
0.652,0.29,-0.47,-0.23,0.08,0.04,0.95,
0.654,0.29,-0.47,-0.23,0.08,0.04,0.94,
0.654,0.36,-0.47,-0.28,0.08,0.04,0.94,
0.656,0.36,-0.47,-0.28,0.08,0.04,0.94,
0.659,0.36,-0.47,-0.28,0.09,0.04,0.94,
0.659,0.42,-0.45,-0.32,0.09,0.04,0.94,
0.663,0.42,-0.45,-0.32,0.09,0.04,0.94,
0.666,0.42,-0.45,-0.32,0.09,0.04,0.94,
0.666,0.48,-0.42,-0.35,0.09,0.04,0.94,
0.666,0.48,-0.42,-0.35,0.10,0.04,0.94,
0.669,0.48,-0.42,-0.35,0.10,0.04,0.93,
0.669,0.54,-0.41,-0.37,0.10,0.04,0.93,
0.671,0.54,-0.41,-0.37,0.10,0.04,0.93,
0.674,0.62,-0.39,-0.41,0.10,0.04,0.93,
0.674,0.62,-0.39,-0.41,0.11,0.05,0.93,
0.676,0.62,-0.39,-0.41,0.11,0.04,0.93,
0.685,0.62,-0.39,-0.41,0.11,0.05,0.93,
0.685,0.66,-0.37,-0.43,0.11,0.05,0.93,
0.685,0.66,-0.37,-0.43,0.11,0.05,0.93,
0.686,0.66,-0.37,-0.43,0.11,0.05,0.93,
0.686,0.72,-0.35,-0.42,0.11,0.05,0.93,
0.686,0.72,-0.35,-0.42,0.12,0.05,0.94,
0.689,0.72,-0.35,-0.42,0.12,0.05,0.93,
0.689,0.75,-0.30,-0.41,0.12,0.05,0.93,
0.691,0.75,-0.30,-0.41,0.11,0.05,0.94,
0.694,0.78,-0.27,-0.39,0.11,0.05,0.94,
0.694,0.78,-0.27,-0.39,0.11,0.06,0.94,
0.697,0.78,-0.27,-0.39,0.11,0.06,0.94,
0.699,0.78,-0.27,-0.39,0.11,0.06,0.94,
0.699,0.75,-0.24,-0.36,0.11,0.06,0.94,
0.7,0.75,-0.24,-0.36,0.11,0.06,0.94,
0.703,0.75,-0.24,-0.36,0.11,0.06,0.94,
0.703,0.74,-0.22,-0.35,0.11,0.06,0.94,
0.705,0.74,-0.22,-0.35,0.11,0.06,0.94,
0.708,0.74,-0.22,-0.35,0.11,0.06,0.94,
0.708,0.71,-0.21,-0.35,0.11,0.06,0.94,
0.71,0.71,-0.21,-0.35,0.11,0.05,0.94,
0.713,0.71,-0.21,-0.35,0.11,0.06,0.94,
0.713,0.71,-0.21,-0.34,0.11,0.06,0.94,
0.715,0.71,-0.21,-0.34,0.11,0.05,0.94,
0.718,0.71,-0.21,-0.34,0.11,0.05,0.94,
0.718,0.69,-0.22,-0.32,0.11,0.05,0.94,
0.72,0.69,-0.22,-0.32,0.11,0.05,0.94,
0.722,0.69,-0.22,-0.32,0.11,0.05,0.94,
0.723,0.67,-0.23,-0.30,0.11,0.05,0.94,
0.725,0.67,-0.23,-0.30,0.11,0.05,0.94,
0.727,0.67,-0.23,-0.30,0.11,0.05,0.94,
0.728,0.64,-0.23,-0.30,0.11,0.05,0.94,
0.73,0.64,-0.23,-0.30,0.10,0.05,0.95,
0.732,0.64,-0.23,-0.30,0.10,0.05,0.95,
0.733,0.65,-0.24,-0.29,0.10,0.05,0.95,
0.735,0.65,-0.24,-0.29,0.11,0.05,0.95,
0.737,0.65,-0.24,-0.29,0.11,0.05,0.95,
0.737,0.63,-0.24,-0.27,0.11,0.05,0.95,
0.739,0.63,-0.24,-0.27,0.11,0.05,0.95,
0.742,0.63,-0.24,-0.27,0.11,0.06,0.95,
0.742,0.64,-0.22,-0.26,0.11,0.06,0.95,
0.746,0.64,-0.22,-0.26,0.11,0.06,0.95,
0.747,0.64,-0.22,-0.26,0.11,0.06,0.95,
0.748,0.66,-0.19,-0.25,0.11,0.06,0.95,
0.749,0.66,-0.19,-0.25,0.11,0.06,0.95,
0.752,0.66,-0.19,-0.25,0.11,0.06,0.95,
0.752,0.67,-0.17,-0.26,0.11,0.06,0.95,
0.754,0.67,-0.17,-0.26,0.11,0.06,0.95,
0.757,0.67,-0.17,-0.26,0.11,0.06,0.95,
0.757,0.67,-0.16,-0.25,0.11,0.06,0.95,
0.759,0.67,-0.16,-0.25,0.11,0.06,0.95,
0.762,0.67,-0.16,-0.25,0.11,0.06,0.95,
0.763,0.69,-0.14,-0.24,0.11,0.06,0.95,
0.764,0.69,-0.14,-0.24,0.11,0.06,0.95,
0.767,0.69,-0.14,-0.24,0.11,0.06,0.95,
0.767,0.67,-0.09,-0.25,0.11,0.06,0.95,
0.769,0.67,-0.09,-0.25,0.11,0.06,0.95,
0.771,0.67,-0.09,-0.25,0.11,0.07,0.95,
0.772,0.66,-0.08,-0.22,0.11,0.07,0.95,
0.774,0.66,-0.08,-0.22,0.11,0.06,0.95,
0.777,0.66,-0.08,-0.22,0.10,0.06,0.95,
0.777,0.64,-0.05,-0.21,0.10,0.06,0.95,
0.786,0.64,-0.05,-0.21,0.10,0.06,0.95,
0.787,0.64,-0.05,-0.21,0.10,0.06,0.96,
0.787,0.59,-0.05,-0.20,0.10,0.06,0.96,
0.787,0.59,-0.05,-0.20,0.10,0.06,0.96,
0.787,0.59,-0.05,-0.20,0.10,0.06,0.96,
0.787,0.57,-0.05,-0.16,0.10,0.06,0.96,
0.788,0.57,-0.05,-0.16,0.10,0.06,0.96,
0.791,0.57,-0.05,-0.16,0.10,0.06,0.96,
0.791,0.55,-0.05,-0.12,0.10,0.06,0.96,
0.793,0.55,-0.05,-0.12,0.10,0.06,0.96,
0.796,0.55,-0.05,-0.12,0.10,0.06,0.97,
0.797,0.51,-0.06,-0.10,0.10,0.06,0.97,
0.798,0.51,-0.06,-0.10,0.10,0.06,0.97,
0.801,0.51,-0.06,-0.10,0.10,0.06,0.97,
0.801,0.50,-0.06,-0.06,0.10,0.06,0.97,
0.803,0.50,-0.06,-0.06,0.10,0.05,0.97,
0.806,0.50,-0.06,-0.06,0.10,0.05,0.98,
0.806,0.49,-0.07,-0.02,0.10,0.05,0.98,
0.808,0.49,-0.07,-0.02,0.09,0.05,0.98,
0.812,0.49,-0.07,-0.02,0.09,0.05,0.98,
0.812,0.49,-0.11,0.04,0.09,0.05,0.98,
0.813,0.49,-0.11,0.04,0.09,0.05,0.98,
0.816,0.49,-0.11,0.04,0.09,0.05,0.99,
0.816,0.46,-0.10,0.09,0.09,0.05,0.99,
0.818,0.46,-0.10,0.09,0.10,0.05,0.99,
0.82,0.46,-0.10,0.09,0.09,0.06,0.99,
0.821,0.46,-0.08,0.12,0.09,0.06,0.99,
0.823,0.46,-0.08,0.12,0.09,0.06,0.99,
0.825,0.46,-0.08,0.12,0.10,0.06,0.99,
0.826,0.47,-0.06,0.16,0.10,0.06,0.99,
0.827,0.47,-0.06,0.16,0.10,0.05,0.99,
0.83,0.47,-0.06,0.16,0.10,0.06,0.99,
0.83,0.47,-0.04,0.20,0.10,0.06,0.99,
0.833,0.47,-0.04,0.20,0.10,0.06,0.99,
0.835,0.47,-0.04,0.20,0.10,0.06,0.99,
0.835,0.49,-0.05,0.19,0.10,0.06,0.99,
0.837,0.49,-0.05,0.19,0.10,0.06,0.99,
0.84,0.49,-0.05,0.19,0.10,0.06,0.99,
0.84,0.51,-0.02,0.20,0.10,0.06,0.99,
0.842,0.51,-0.02,0.20,0.10,0.06,0.99,
0.846,0.51,-0.02,0.20,0.10,0.06,0.99,
0.846,0.52,0.01,0.15,0.10,0.06,0.99,
0.847,0.52,0.01,0.15,0.10,0.06,0.99,
0.85,0.52,0.01,0.15,0.10,0.06,0.99,
0.85,0.51,0.01,0.13,0.10,0.06,0.99,
0.852,0.51,0.01,0.13,0.10,0.06,0.98,
0.855,0.51,0.01,0.13,0.10,0.06,0.98,
0.855,0.54,0.02,0.12,0.10,0.06,0.98,
0.857,0.54,0.02,0.12,0.10,0.06,0.98,
0.86,0.54,0.02,0.12,0.10,0.06,0.98,
0.86,0.53,0.05,0.09,0.10,0.06,0.98,
0.862,0.53,0.05,0.09,0.10,0.06,0.98,
0.865,0.53,0.05,0.09,0.10,0.06,0.98,
0.865,0.53,0.06,0.05,0.10,0.06,0.98,
0.867,0.53,0.06,0.05,0.10,0.06,0.98,
0.869,0.53,0.06,0.05,0.10,0.06,0.98,
0.87,0.53,0.07,0.04,0.10,0.06,0.98,
0.872,0.53,0.07,0.04,0.10,0.06,0.98,
0.874,0.53,0.07,0.04,0.10,0.06,0.98,
0.875,0.52,0.06,0.03,0.10,0.06,0.98,
0.877,0.52,0.06,0.03,0.10,0.06,0.98,
0.884,0.52,0.06,0.03,0.10,0.06,0.98,
0.884,0.51,0.06,0.03,0.10,0.06,0.98,
0.885,0.51,0.06,0.03,0.10,0.06,0.98,
0.885,0.51,0.06,0.03,0.10,0.06,0.98,
0.885,0.50,0.03,0.04,0.10,0.06,0.98,
0.886,0.50,0.03,0.04,0.10,0.06,0.98,
0.889,0.50,0.03,0.04,0.10,0.06,0.99,
0.889,0.48,0.02,0.08,0.10,0.06,0.99,
0.891,0.48,0.02,0.08,0.09,0.05,0.99,
0.894,0.48,0.02,0.08,0.09,0.05,0.99,
0.894,0.45,0.02,0.11,0.09,0.05,0.99,
0.896,0.45,0.02,0.11,0.09,0.05,0.99,
0.899,0.45,0.02,0.11,0.09,0.05,0.99,
0.899,0.41,0.00,0.13,0.09,0.05,0.99,
0.901,0.41,0.00,0.13,0.09,0.05,0.99,
0.904,0.41,0.00,0.13,0.09,0.05,1.00,
0.904,0.39,-0.03,0.17,0.09,0.05,1.00,
0.906,0.39,-0.03,0.17,0.09,0.05,1.00,
0.908,0.39,-0.03,0.17,0.09,0.05,1.00,
0.909,0.40,-0.04,0.21,0.09,0.05,1.00,
0.911,0.40,-0.04,0.21,0.10,0.05,1.00,
0.914,0.40,-0.04,0.21,0.10,0.05,1.00,
0.914,0.40,-0.04,0.23,0.10,0.05,1.00,
0.916,0.40,-0.04,0.23,0.10,0.05,1.00,
0.918,0.40,-0.04,0.23,0.10,0.05,1.00,
0.919,0.44,-0.03,0.27,0.10,0.05,1.00,
0.921,0.44,-0.03,0.27,0.11,0.05,1.00,
0.923,0.44,-0.03,0.27,0.11,0.05,1.00,
0.924,0.48,-0.02,0.27,0.11,0.05,1.00,
0.926,0.48,-0.02,0.27,0.11,0.05,1.00,
0.928,0.48,-0.02,0.27,0.11,0.05,1.00,
0.929,0.54,0.00,0.27,0.11,0.05,1.00,
0.931,0.54,0.00,0.27,0.12,0.06,1.00,
0.933,0.54,0.00,0.27,0.12,0.06,1.00,
0.933,0.59,0.04,0.26,0.12,0.06,1.00,
0.935,0.59,0.04,0.26,0.13,0.06,1.00,
0.938,0.59,0.04,0.26,0.13,0.06,1.00,
0.938,0.66,0.07,0.25,0.13,0.06,1.00,
0.94,0.66,0.07,0.25,0.13,0.06,1.00,
0.943,0.66,0.07,0.25,0.14,0.06,1.00,
0.943,0.74,0.10,0.24,0.14,0.06,1.00,
0.945,0.74,0.10,0.24,0.14,0.06,0.99,
0.948,0.74,0.10,0.24,0.14,0.06,0.99,
0.948,0.81,0.11,0.21,0.14,0.06,0.99,
0.95,0.81,0.11,0.21,0.14,0.07,0.99,
0.953,0.81,0.11,0.21,0.14,0.07,0.99,
0.953,0.85,0.15,0.16,0.14,0.07,0.99,
0.955,0.85,0.15,0.16,0.15,0.07,0.99,
0.957,0.85,0.15,0.16,0.15,0.07,0.99,
0.958,0.87,0.19,0.13,0.15,0.07,0.99,
0.96,0.87,0.19,0.13,0.15,0.07,0.99,
0.963,0.87,0.19,0.13,0.15,0.07,0.98,
0.963,0.91,0.20,0.10,0.15,0.07,0.98,
0.965,0.91,0.20,0.10,0.15,0.07,0.98,
0.967,0.91,0.20,0.10,0.15,0.08,0.98,
0.968,0.91,0.22,0.07,0.15,0.08,0.98,
0.97,0.91,0.22,0.07,0.15,0.08,0.98,
0.972,0.91,0.22,0.07,0.15,0.08,0.97,
0.973,0.92,0.26,0.02,0.15,0.08,0.97,
0.975,0.92,0.26,0.02,0.15,0.08,0.97,
0.977,0.92,0.26,0.02,0.15,0.08,0.97,
0.977,0.93,0.27,-0.02,0.15,0.08,0.97,
0.985,0.93,0.27,-0.02,0.16,0.08,0.97,
0.985,0.93,0.27,-0.02,0.16,0.08,0.97,
0.985,0.93,0.28,-0.04,0.16,0.08,0.97,
0.986,0.93,0.28,-0.04,0.15,0.08,0.97,
0.987,0.93,0.28,-0.04,0.16,0.08,0.97,
0.988,0.95,0.31,-0.05,0.16,0.08,0.97,
0.989,0.95,0.31,-0.05,0.16,0.08,0.97,
0.992,0.95,0.31,-0.05,0.16,0.09,0.97,
0.992,0.95,0.34,-0.09,0.16,0.09,0.97,
0.999,0.95,0.34,-0.09,0.16,0.09,0.97,
0.999,0.95,0.34,-0.09,0.16,0.09,0.97,
0.999,0.97,0.36,-0.10,0.16,0.09,0.97,
1.0,0.97,0.36,-0.10,0.16,0.09,0.96,
1.001,0.97,0.36,-0.10,0.17,0.09,0.96,
1.002,0.98,0.38,-0.10,0.17,0.09,0.96,
1.004,0.98,0.38,-0.10,0.17,0.09,0.97,
1.006,0.98,0.38,-0.10,0.17,0.09,0.97,
1.006,1.01,0.41,-0.12,0.17,0.09,0.97,
1.009,1.01,0.41,-0.12,0.17,0.09,0.97,
1.012,1.01,0.41,-0.12,0.17,0.09,0.96,
1.012,1.04,0.42,-0.11,0.17,0.09,0.96,
1.014,1.04,0.42,-0.11,0.18,0.09,0.96,
1.016,1.04,0.42,-0.11,0.18,0.09,0.96,
1.016,1.07,0.43,-0.11,0.18,0.09,0.96,
1.018,1.07,0.43,-0.11,0.18,0.09,0.96,
1.021,1.07,0.43,-0.11,0.18,0.09,0.96,
1.022,1.10,0.45,-0.11,0.18,0.09,0.96,
1.023,1.10,0.45,-0.11,0.18,0.09,0.97,
1.026,1.10,0.45,-0.11,0.18,0.09,0.97,
1.026,1.11,0.44,-0.11,0.18,0.09,0.97,
1.028,1.11,0.44,-0.11,0.18,0.09,0.97,
1.031,1.11,0.44,-0.11,0.18,0.09,0.97,
1.031,1.13,0.43,-0.10,0.18,0.09,0.97,
1.033,1.13,0.43,-0.10,0.19,0.09,0.97,
1.036,1.13,0.43,-0.10,0.19,0.09,0.97,
1.036,1.13,0.44,-0.08,0.19,0.09,0.97,
1.038,1.13,0.44,-0.08,0.19,0.09,0.97,
1.041,1.13,0.44,-0.08,0.19,0.10,0.97,
1.041,1.13,0.43,-0.04,0.19,0.10,0.97,
1.043,1.13,0.43,-0.04,0.19,0.10,0.97,
1.046,1.13,0.43,-0.04,0.19,0.10,0.97,
1.046,1.12,0.44,-0.03,0.19,0.10,0.97,
1.048,1.12,0.44,-0.03,0.18,0.10,0.97,
1.051,1.12,0.44,-0.03,0.18,0.09,0.97,
1.051,1.10,0.45,-0.04,0.18,0.09,0.97,
1.053,1.10,0.45,-0.04,0.18,0.09,0.97,
1.056,1.10,0.45,-0.04,0.18,0.09,0.97,
1.056,1.07,0.44,-0.05,0.18,0.09,0.97,
1.058,1.07,0.44,-0.05,0.18,0.09,0.97,
1.06,1.07,0.44,-0.05,0.18,0.09,0.97,
1.061,1.06,0.42,-0.05,0.18,0.09,0.97,
1.067,1.06,0.42,-0.05,0.18,0.09,0.97,
1.068,1.06,0.42,-0.05,0.18,0.09,0.96,
1.068,1.05,0.40,-0.09,0.18,0.09,0.96,
1.069,1.05,0.40,-0.09,0.18,0.09,0.96,
1.07,1.05,0.40,-0.09,0.18,0.09,0.96,
1.07,1.01,0.37,-0.11,0.18,0.09,0.96,
1.073,1.01,0.37,-0.11,0.18,0.09,0.96,
1.075,1.01,0.37,-0.11,0.18,0.09,0.96,
1.075,0.99,0.38,-0.13,0.18,0.09,0.96,
1.079,0.99,0.38,-0.13,0.18,0.09,0.95,
1.08,0.99,0.38,-0.13,0.17,0.09,0.96,
1.08,0.95,0.39,-0.17,0.17,0.09,0.96,
1.082,0.95,0.39,-0.17,0.17,0.09,0.96,
1.085,0.95,0.39,-0.17,0.17,0.09,0.96,
1.085,0.89,0.39,-0.19,0.17,0.09,0.96,
1.087,0.89,0.39,-0.19,0.17,0.09,0.96,
1.09,0.89,0.39,-0.19,0.16,0.09,0.96,
1.09,0.84,0.39,-0.19,0.16,0.09,0.96,
1.092,0.84,0.39,-0.19,0.16,0.09,0.96,
1.095,0.84,0.39,-0.19,0.16,0.09,0.96,
1.095,0.77,0.38,-0.18,0.16,0.09,0.96,
1.097,0.77,0.38,-0.18,0.16,0.09,0.96,
1.1,0.77,0.38,-0.18,0.15,0.08,0.96,
1.1,0.69,0.35,-0.16,0.15,0.08,0.96,
1.102,0.69,0.35,-0.16,0.15,0.08,0.96,
1.104,0.69,0.35,-0.16,0.15,0.08,0.97,
1.104,0.65,0.31,-0.15,0.15,0.08,0.97,
1.107,0.65,0.31,-0.15,0.15,0.08,0.97,
1.11,0.65,0.31,-0.15,0.15,0.08,0.97,
1.11,0.60,0.28,-0.09,0.15,0.08,0.97,
1.112,0.60,0.28,-0.09,0.15,0.08,0.97,
1.114,0.60,0.28,-0.09,0.15,0.08,0.98,
1.114,0.55,0.26,-0.04,0.15,0.08,0.98,
1.116,0.55,0.26,-0.04,0.14,0.08,0.98,
1.119,0.55,0.26,-0.04,0.14,0.08,0.98,
1.12,0.52,0.24,0.00,0.14,0.08,0.98,
1.121,0.52,0.24,0.00,0.15,0.07,0.98,
1.124,0.52,0.24,0.00,0.15,0.07,0.98,
1.125,0.49,0.22,0.06,0.15,0.07,0.98,
1.126,0.49,0.22,0.06,0.15,0.07,0.99,
1.129,0.49,0.22,0.06,0.15,0.07,0.99,
1.129,0.49,0.21,0.09,0.15,0.07,0.99,
1.131,0.49,0.21,0.09,0.14,0.07,0.99,
1.134,0.49,0.21,0.09,0.15,0.07,1.00,
1.134,0.47,0.19,0.15,0.15,0.07,1.00,
1.136,0.47,0.19,0.15,0.15,0.07,1.00,
1.139,0.47,0.19,0.15,0.15,0.07,1.00,
1.139,0.45,0.18,0.21,0.15,0.07,1.00,
1.141,0.45,0.18,0.21,0.15,0.07,1.00,
1.145,0.45,0.17,0.25,0.15,0.07,1.00,
1.145,0.45,0.17,0.25,0.15,0.07,1.00,
1.146,0.45,0.17,0.25,0.15,0.07,1.01,
1.149,0.45,0.17,0.25,0.15,0.06,1.01,
1.149,0.42,0.15,0.27,0.15,0.06,1.01,
1.151,0.42,0.15,0.27,0.15,0.06,1.01,
1.153,0.42,0.15,0.27,0.15,0.06,1.01,
1.154,0.44,0.09,0.32,0.15,0.06,1.01,
1.156,0.44,0.09,0.32,0.15,0.06,1.01,
1.159,0.44,0.09,0.32,0.15,0.06,1.01,
1.159,0.41,0.06,0.34,0.15,0.06,1.01,
1.161,0.41,0.06,0.34,0.15,0.06,1.01,
1.163,0.41,0.06,0.34,0.15,0.05,1.01,
1.164,0.40,0.05,0.35,0.15,0.05,1.01,
1.166,0.40,0.05,0.35,0.15,0.05,1.01,
1.168,0.40,0.05,0.35,0.15,0.05,1.01,
1.168,0.38,-0.01,0.34,0.15,0.05,1.01,
1.17,0.38,-0.01,0.34,0.15,0.05,1.01,
1.173,0.38,-0.01,0.34,0.15,0.05,1.00,
1.173,0.36,-0.05,0.32,0.15,0.05,1.00,
1.176,0.36,-0.05,0.32,0.14,0.05,1.00,
1.183,0.36,-0.05,0.32,0.14,0.05,1.00,
1.184,0.34,-0.08,0.30,0.14,0.05,1.00,
1.184,0.34,-0.08,0.30,0.14,0.05,1.00,
1.184,0.34,-0.08,0.30,0.14,0.05,1.00,
1.185,0.27,-0.08,0.28,0.14,0.05,1.00,
1.186,0.27,-0.08,0.28,0.13,0.05,1.00,
1.188,0.27,-0.08,0.28,0.13,0.05,1.00,
1.188,0.23,-0.09,0.27,0.13,0.05,1.00,
1.19,0.23,-0.09,0.27,0.13,0.05,1.00,
1.193,0.23,-0.09,0.27,0.12,0.05,0.99,
1.193,0.16,-0.10,0.25,0.12,0.05,0.99,
1.198,0.16,-0.10,0.25,0.12,0.05,0.99,
1.199,0.08,-0.12,0.19,0.12,0.05,0.99,
1.199,0.08,-0.12,0.19,0.12,0.05,0.99,
1.2,0.08,-0.12,0.19,0.12,0.05,0.98,
1.202,0.08,-0.12,0.19,0.11,0.05,0.98,
1.202,0.03,-0.13,0.12,0.11,0.05,0.98,
1.205,0.03,-0.13,0.12,0.11,0.05,0.97,
1.207,0.03,-0.13,0.12,0.11,0.05,0.97,
1.208,-0.03,-0.12,0.05,0.11,0.05,0.97,
1.21,-0.03,-0.12,0.05,0.10,0.05,0.97,
1.212,-0.03,-0.12,0.05,0.10,0.05,0.96,
1.213,-0.13,-0.13,-0.02,0.10,0.05,0.96,
1.215,-0.13,-0.13,-0.02,0.10,0.05,0.96,
1.217,-0.13,-0.13,-0.02,0.10,0.04,0.96,
1.218,-0.18,-0.15,-0.07,0.10,0.04,0.96,
1.22,-0.18,-0.15,-0.07,0.10,0.04,0.96,
1.222,-0.18,-0.15,-0.07,0.10,0.04,0.96,
1.222,-0.22,-0.16,-0.13,0.10,0.04,0.96,
1.224,-0.22,-0.16,-0.13,0.09,0.04,0.96,
1.228,-0.22,-0.16,-0.13,0.09,0.04,0.96,
1.228,-0.26,-0.18,-0.14,0.09,0.04,0.96,
1.229,-0.26,-0.18,-0.14,0.09,0.04,0.96,
1.232,-0.26,-0.18,-0.14,0.09,0.04,0.96,
1.232,-0.29,-0.19,-0.14,0.09,0.04,0.96,
1.234,-0.29,-0.19,-0.14,0.09,0.04,0.96,
1.237,-0.29,-0.19,-0.14,0.09,0.04,0.96,
1.237,-0.32,-0.20,-0.13,0.09,0.04,0.96,
1.239,-0.32,-0.20,-0.13,0.09,0.04,0.97,
1.242,-0.32,-0.20,-0.13,0.09,0.04,0.97,
1.242,-0.38,-0.21,-0.10,0.09,0.04,0.97,
1.245,-0.38,-0.21,-0.10,0.08,0.04,0.97,
1.247,-0.38,-0.21,-0.10,0.08,0.04,0.97,
1.247,-0.39,-0.22,-0.06,0.08,0.04,0.97,
1.249,-0.39,-0.22,-0.06,0.08,0.03,0.98,
1.252,-0.39,-0.22,-0.06,0.08,0.03,0.98,
1.252,-0.44,-0.26,-0.01,0.08,0.03,0.98,
1.254,-0.44,-0.26,-0.01,0.08,0.03,0.98,
1.256,-0.44,-0.26,-0.01,0.08,0.03,0.99,
1.257,-0.47,-0.30,0.08,0.08,0.03,0.99,
1.259,-0.47,-0.30,0.08,0.08,0.03,0.99,
1.262,-0.47,-0.30,0.08,0.08,0.02,0.99,
1.262,-0.48,-0.34,0.13,0.08,0.02,0.99,
1.264,-0.48,-0.34,0.13,0.08,0.02,0.99,
1.266,-0.48,-0.34,0.13,0.08,0.02,0.99,
1.267,-0.48,-0.38,0.15,0.08,0.02,0.99,
1.269,-0.48,-0.38,0.15,0.08,0.02,0.99,
1.271,-0.48,-0.38,0.15,0.08,0.02,0.99,
1.272,-0.49,-0.42,0.17,0.08,0.02,0.99,
1.273,-0.49,-0.42,0.17,0.08,0.02,0.99,
1.276,-0.51,-0.44,0.18,0.08,0.02,0.99,
1.277,-0.51,-0.44,0.18,0.08,0.02,0.99,
1.284,-0.51,-0.44,0.18,0.08,0.02,0.98,
1.284,-0.51,-0.44,0.18,0.08,0.02,0.98,
1.285,-0.55,-0.45,0.16,0.08,0.02,0.98,
1.285,-0.55,-0.45,0.16,0.08,0.01,0.98,
1.286,-0.55,-0.45,0.16,0.07,0.01,0.98,
1.286,-0.56,-0.47,0.11,0.07,0.01,0.98,
1.288,-0.56,-0.47,0.11,0.08,0.01,0.97,
1.291,-0.56,-0.47,0.11,0.07,0.01,0.97,
1.291,-0.60,-0.50,0.06,0.07,0.01,0.97,
1.293,-0.60,-0.50,0.06,0.07,0.01,0.97,
1.297,-0.60,-0.50,0.06,0.07,0.01,0.96,
1.298,-0.60,-0.50,-0.01,0.07,0.01,0.96,
1.298,-0.60,-0.50,-0.01,0.07,0.01,0.96,
1.301,-0.60,-0.50,-0.01,0.07,0.01,0.96,
1.301,-0.66,-0.51,-0.06,0.07,0.01,0.96,
1.303,-0.66,-0.51,-0.06,0.07,0.01,0.96,
1.305,-0.66,-0.51,-0.06,0.06,0.01,0.95,
1.305,-0.68,-0.52,-0.11,0.06,0.01,0.95,
1.308,-0.68,-0.52,-0.11,0.06,0.01,0.95,
1.31,-0.68,-0.52,-0.11,0.06,0.01,0.95,
1.31,-0.72,-0.53,-0.16,0.06,0.01,0.95,
1.313,-0.72,-0.53,-0.16,0.05,0.01,0.94,
1.316,-0.77,-0.52,-0.22,0.05,0.01,0.94,
1.317,-0.77,-0.52,-0.22,0.05,0.01,0.94,
1.318,-0.77,-0.52,-0.22,0.05,0.01,0.94,
1.32,-0.77,-0.52,-0.22,0.05,0.01,0.94,
1.32,-0.83,-0.53,-0.25,0.05,0.01,0.94,
1.322,-0.83,-0.53,-0.25,0.04,0.01,0.94,
1.325,-0.83,-0.53,-0.25,0.04,0.01,0.94,
1.325,-0.89,-0.52,-0.27,0.04,0.01,0.94,
1.328,-0.89,-0.52,-0.27,0.04,0.01,0.94,
1.33,-0.89,-0.52,-0.27,0.04,0.01,0.95,
1.33,-0.93,-0.54,-0.26,0.04,0.01,0.95,
1.332,-0.93,-0.54,-0.26,0.04,0.01,0.95,
1.335,-0.93,-0.54,-0.26,0.03,0.01,0.95,
1.335,-0.96,-0.53,-0.23,0.03,0.01,0.95,
1.337,-0.96,-0.53,-0.23,0.03,0.01,0.95,
1.34,-0.96,-0.53,-0.23,0.03,0.01,0.95,
1.34,-0.99,-0.53,-0.18,0.03,0.01,0.95,
1.342,-0.99,-0.53,-0.18,0.03,0.01,0.96,
1.345,-0.99,-0.53,-0.18,0.03,0.01,0.96,
1.345,-1.01,-0.55,-0.14,0.03,0.01,0.96,
1.347,-1.01,-0.55,-0.14,0.03,0.01,0.96,
1.349,-1.01,-0.55,-0.14,0.03,0.00,0.96,
1.349,-1.04,-0.56,-0.11,0.03,0.00,0.96,
1.352,-1.04,-0.56,-0.11,0.03,0.00,0.96,
1.354,-1.04,-0.56,-0.11,0.03,0.00,0.97,
1.354,-1.05,-0.56,-0.06,0.03,0.00,0.97,
1.356,-1.05,-0.56,-0.06,0.03,0.00,0.97,
1.359,-1.07,-0.59,-0.02,0.03,0.00,0.97,
1.359,-1.07,-0.59,-0.02,0.03,-0.00,0.97,
1.364,-1.07,-0.59,-0.02,0.03,-0.00,0.97,
1.365,-1.07,-0.59,-0.02,0.03,-0.00,0.97,
1.365,-1.07,-0.60,0.01,0.03,-0.00,0.97,
1.366,-1.07,-0.60,0.01,0.03,-0.00,0.97,
1.369,-1.07,-0.60,0.01,0.03,-0.00,0.97,
1.369,-1.08,-0.60,0.03,0.03,-0.00,0.97,
1.371,-1.08,-0.60,0.03,0.03,-0.00,0.97,
1.374,-1.08,-0.60,0.03,0.03,-0.00,0.97,
1.374,-1.08,-0.60,0.04,0.03,-0.00,0.97,
1.376,-1.08,-0.60,0.04,0.03,-0.00,0.97,
1.383,-1.08,-0.60,0.03,0.03,-0.00,0.97,
1.384,-1.08,-0.60,0.03,0.02,-0.00,0.97,
1.384,-1.08,-0.60,0.03,0.02,0.00,0.97,
1.384,-1.08,-0.60,0.03,0.02,0.00,0.97,
1.384,-1.11,-0.59,0.02,0.02,0.00,0.97,
1.386,-1.11,-0.59,0.02,0.02,0.00,0.97,
1.388,-1.11,-0.59,0.02,0.02,0.00,0.97,
1.388,-1.13,-0.56,0.00,0.02,0.00,0.97,
1.391,-1.13,-0.56,0.00,0.02,0.01,0.97,
1.394,-1.13,-0.56,0.00,0.02,0.01,0.97,
1.394,-1.13,-0.52,-0.01,0.02,0.01,0.97,
1.396,-1.13,-0.52,-0.01,0.02,0.01,0.97,
1.399,-1.13,-0.52,-0.01,0.02,0.01,0.97,
1.399,-1.15,-0.48,-0.00,0.02,0.01,0.97,
1.401,-1.15,-0.48,-0.00,0.02,0.01,0.97,
1.403,-1.15,-0.48,-0.00,0.01,0.01,0.97,
1.404,-1.16,-0.44,0.01,0.01,0.01,0.97,
1.405,-1.16,-0.44,0.01,0.01,0.01,0.97,
1.408,-1.16,-0.44,0.01,0.01,0.02,0.97,
1.408,-1.17,-0.42,0.00,0.01,0.02,0.97,
1.411,-1.17,-0.42,0.00,0.01,0.02,0.97,
1.413,-1.17,-0.42,0.00,0.01,0.02,0.97,
1.414,-1.19,-0.39,0.00,0.01,0.02,0.97,
1.416,-1.19,-0.39,0.00,0.01,0.02,0.97,
1.418,-1.19,-0.39,0.00,0.01,0.02,0.96,
1.418,-1.22,-0.36,0.01,0.01,0.02,0.96,
1.42,-1.22,-0.36,0.01,0.00,0.02,0.96,
1.423,-1.22,-0.36,0.01,0.00,0.02,0.96,
1.423,-1.22,-0.32,-0.01,0.00,0.02,0.96,
1.425,-1.22,-0.32,-0.01,0.00,0.02,0.96,
1.429,-1.22,-0.32,-0.01,-0.00,0.02,0.96,
1.429,-1.24,-0.30,-0.04,-0.00,0.02,0.96,
1.43,-1.24,-0.30,-0.04,-0.00,0.02,0.96,
1.433,-1.27,-0.29,-0.03,-0.00,0.02,0.96,
1.433,-1.27,-0.29,-0.03,-0.00,0.02,0.96,
1.435,-1.27,-0.29,-0.03,-0.00,0.03,0.96,
1.438,-1.27,-0.29,-0.03,-0.00,0.03,0.96,
1.438,-1.28,-0.26,-0.04,-0.00,0.03,0.96,
1.44,-1.28,-0.26,-0.04,-0.00,0.03,0.96,
1.443,-1.29,-0.24,-0.07,-0.00,0.03,0.96,
1.443,-1.29,-0.24,-0.07,-0.00,0.03,0.96,
1.445,-1.29,-0.24,-0.07,0.00,0.03,0.96,
1.448,-1.29,-0.24,-0.07,0.00,0.03,0.96,
1.448,-1.26,-0.21,-0.09,0.00,0.03,0.96,
1.45,-1.26,-0.21,-0.09,0.01,0.03,0.95,
1.452,-1.26,-0.21,-0.09,0.01,0.03,0.95,
1.453,-1.22,-0.19,-0.10,0.01,0.03,0.95,
1.455,-1.22,-0.19,-0.10,0.01,0.03,0.95,
1.457,-1.22,-0.19,-0.10,0.01,0.03,0.95,
1.457,-1.17,-0.18,-0.13,0.01,0.03,0.95,
1.46,-1.17,-0.18,-0.13,0.01,0.04,0.95,
1.462,-1.17,-0.18,-0.13,0.01,0.04,0.95,
1.463,-1.16,-0.15,-0.15,0.01,0.04,0.95,
1.464,-1.16,-0.15,-0.15,0.02,0.04,0.95,
1.467,-1.11,-0.10,-0.15,0.02,0.04,0.95,
1.468,-1.11,-0.10,-0.15,0.02,0.04,0.95,
1.469,-1.11,-0.10,-0.15,0.02,0.04,0.95,
1.472,-1.11,-0.10,-0.15,0.02,0.05,0.95,
1.472,-1.04,-0.04,-0.16,0.02,0.05,0.95,
1.474,-1.04,-0.04,-0.16,0.03,0.05,0.95,
1.484,-1.04,-0.04,-0.16,0.03,0.05,0.96,
1.485,-0.99,-0.01,-0.15,0.03,0.05,0.96,
1.487,-0.99,-0.01,-0.15,0.03,0.05,0.96,
1.487,-0.99,-0.01,-0.15,0.03,0.05,0.96,
1.487,-0.96,0.03,-0.12,0.03,0.05,0.96,
1.487,-0.96,0.03,-0.12,0.03,0.05,0.97,
1.488,-0.96,0.03,-0.12,0.02,0.05,0.97,
1.488,-0.95,0.06,-0.03,0.02,0.05,0.97,
1.489,-0.95,0.06,-0.03,0.02,0.05,0.98,
1.492,-0.95,0.06,-0.03,0.02,0.05,0.98,
1.492,-0.97,0.07,0.06,0.02,0.05,0.98,
1.498,-0.97,0.07,0.06,0.02,0.05,0.99,
1.499,-0.97,0.07,0.06,0.01,0.05,0.99,
1.499,-1.02,0.11,0.14,0.01,0.05,0.99,
1.499,-1.02,0.11,0.14,0.01,0.05,1.00,
1.502,-1.02,0.11,0.14,0.01,0.06,1.00,
1.502,-1.03,0.12,0.24,0.01,0.06,1.00,
1.503,-1.03,0.12,0.24,0.01,0.05,1.00,
1.506,-1.03,0.12,0.24,0.01,0.06,1.01,
1.506,-1.04,0.14,0.32,0.01,0.06,1.01,
1.508,-1.04,0.14,0.32,0.01,0.05,1.01,
1.511,-1.04,0.14,0.32,0.01,0.05,1.01,
1.512,-1.06,0.15,0.37,0.01,0.05,1.01,
1.513,-1.06,0.15,0.37,0.01,0.05,1.02,
1.516,-1.06,0.15,0.37,0.01,0.05,1.02,
1.517,-1.07,0.13,0.43,0.01,0.05,1.02,
1.518,-1.07,0.13,0.43,0.01,0.05,1.02,
1.521,-1.07,0.13,0.43,0.00,0.05,1.02,
1.521,-1.06,0.11,0.47,0.00,0.05,1.02,
1.523,-1.06,0.11,0.47,0.00,0.05,1.02,
1.526,-1.06,0.11,0.47,0.00,0.05,1.02,
1.526,-1.08,0.12,0.50,0.00,0.05,1.02,
1.528,-1.08,0.12,0.50,0.00,0.05,1.03,
1.531,-1.08,0.12,0.50,0.00,0.05,1.03,
1.531,-1.08,0.12,0.54,0.00,0.05,1.03,
1.533,-1.08,0.12,0.54,0.00,0.05,1.03,
1.536,-1.08,0.12,0.54,0.00,0.05,1.03,
1.536,-1.09,0.13,0.56,0.00,0.05,1.03,
1.538,-1.09,0.13,0.56,0.00,0.05,1.03,
1.54,-1.09,0.13,0.56,0.01,0.05,1.03,
1.541,-1.06,0.14,0.60,0.01,0.05,1.03,
1.543,-1.06,0.14,0.60,0.01,0.06,1.03,
1.546,-1.06,0.14,0.60,0.01,0.06,1.03,
1.546,-1.02,0.18,0.60,0.01,0.06,1.03,
1.548,-1.02,0.18,0.60,0.01,0.06,1.03,
1.55,-1.02,0.18,0.60,0.01,0.06,1.03,
1.551,-0.98,0.21,0.59,0.01,0.06,1.03,
1.553,-0.98,0.21,0.59,0.01,0.06,1.03,
1.555,-0.98,0.21,0.59,0.01,0.06,1.03,
1.555,-0.95,0.23,0.59,0.01,0.06,1.03,
1.557,-0.95,0.23,0.59,0.01,0.06,1.03,
1.566,-0.95,0.23,0.59,0.02,0.06,1.02,
1.567,-0.91,0.24,0.57,0.02,0.06,1.02,
1.567,-0.91,0.24,0.57,0.02,0.06,1.02,
1.567,-0.91,0.24,0.57,0.02,0.06,1.02,
1.568,-0.85,0.25,0.52,0.02,0.06,1.02,
1.568,-0.85,0.25,0.52,0.02,0.06,1.01,
1.57,-0.85,0.25,0.52,0.02,0.06,1.01,
1.57,-0.83,0.27,0.44,0.02,0.06,1.01,
1.572,-0.83,0.27,0.44,0.03,0.06,1.01,
1.575,-0.83,0.27,0.44,0.03,0.06,1.01,
1.575,-0.77,0.27,0.37,0.03,0.06,1.01,
1.579,-0.77,0.27,0.37,0.03,0.06,1.00,
1.58,-0.77,0.27,0.37,0.03,0.06,1.00,
1.58,-0.69,0.28,0.33,0.03,0.06,1.00,
1.583,-0.69,0.28,0.33,0.03,0.06,1.00,
1.584,-0.69,0.28,0.33,0.03,0.06,1.00,
1.584,-0.66,0.28,0.27,0.03,0.06,1.00,
1.587,-0.66,0.28,0.27,0.03,0.06,1.00,
1.589,-0.66,0.28,0.27,0.03,0.06,1.00,
1.589,-0.66,0.30,0.24,0.03,0.06,1.00,
1.592,-0.66,0.30,0.24,0.03,0.06,1.00,
1.594,-0.66,0.30,0.24,0.03,0.06,1.00,
1.595,-0.63,0.31,0.25,0.03,0.06,1.00,
1.597,-0.63,0.31,0.25,0.03,0.06,1.00,
1.6,-0.63,0.31,0.25,0.03,0.06,1.01,
1.6,-0.61,0.30,0.28,0.03,0.06,1.01,
1.601,-0.61,0.30,0.28,0.03,0.06,1.01,
1.604,-0.61,0.30,0.28,0.02,0.06,1.01,
1.605,-0.60,0.28,0.29,0.02,0.06,1.01,
1.606,-0.60,0.28,0.29,0.02,0.06,1.01,
1.609,-0.60,0.28,0.29,0.02,0.05,1.01,
1.609,-0.63,0.29,0.32,0.02,0.05,1.01,
1.611,-0.63,0.29,0.32,0.01,0.05,1.02,
1.614,-0.63,0.29,0.32,0.01,0.05,1.02,
1.615,-0.68,0.27,0.36,0.01,0.05,1.02,
1.616,-0.68,0.27,0.36,0.01,0.05,1.02,
1.619,-0.68,0.27,0.36,0.01,0.05,1.02,
1.619,-0.72,0.24,0.38,0.01,0.05,1.02,
1.621,-0.72,0.24,0.38,0.00,0.05,1.02,
1.624,-0.72,0.24,0.38,-0.00,0.05,1.02,
1.624,-0.76,0.21,0.42,-0.00,0.05,1.02,
1.626,-0.76,0.21,0.42,-0.00,0.04,1.02,
1.629,-0.76,0.21,0.42,-0.01,0.04,1.02,
1.63,-0.81,0.19,0.45,-0.01,0.04,1.02,
1.631,-0.81,0.19,0.45,-0.00,0.04,1.02,
1.633,-0.81,0.19,0.45,-0.01,0.04,1.02,
1.634,-0.83,0.17,0.43,-0.01,0.04,1.02,
1.636,-0.83,0.17,0.43,-0.01,0.04,1.02,
1.639,-0.83,0.17,0.43,-0.01,0.04,1.01,
1.639,-0.81,0.14,0.39,-0.01,0.04,1.01,
1.641,-0.81,0.14,0.39,-0.00,0.04,1.01,
1.646,-0.80,0.16,0.34,-0.00,0.04,1.01,
1.646,-0.80,0.16,0.34,-0.00,0.04,1.01,
1.646,-0.80,0.16,0.34,-0.00,0.05,1.01,
1.648,-0.80,0.16,0.34,-0.00,0.05,1.01,
1.649,-0.77,0.18,0.29,-0.00,0.05,1.01,
1.65,-0.77,0.18,0.29,-0.00,0.05,1.00,
1.653,-0.77,0.18,0.29,0.00,0.05,1.00,
1.653,-0.74,0.22,0.25,0.00,0.05,1.00,
1.656,-0.74,0.22,0.25,0.01,0.05,1.00,
1.658,-0.74,0.22,0.25,0.01,0.06,1.00,
1.658,-0.70,0.28,0.21,0.01,0.06,1.00,
1.661,-0.70,0.28,0.21,0.01,0.06,1.00,
1.663,-0.70,0.28,0.21,0.02,0.06,1.00,
1.663,-0.60,0.31,0.18,0.02,0.06,1.00,
1.665,-0.60,0.31,0.18,0.02,0.07,0.99,
1.668,-0.60,0.31,0.18,0.03,0.07,0.99,
1.668,-0.50,0.35,0.14,0.03,0.07,0.99,
1.67,-0.50,0.35,0.14,0.03,0.07,0.99,
1.673,-0.50,0.35,0.14,0.03,0.07,0.99,
1.673,-0.39,0.44,0.11,0.03,0.07,0.99,
1.675,-0.39,0.44,0.11,0.03,0.08,0.98,
1.683,-0.39,0.44,0.11,0.03,0.08,0.98,
1.684,-0.31,0.48,0.06,0.03,0.08,0.98,
1.684,-0.31,0.48,0.06,0.03,0.08,0.98,
1.684,-0.31,0.48,0.06,0.04,0.08,0.98,
1.684,-0.27,0.54,0.00,0.04,0.08,0.98,
1.685,-0.27,0.54,0.00,0.04,0.08,0.98,
1.688,-0.27,0.54,0.00,0.04,0.08,0.98,
1.688,-0.25,0.56,-0.03,0.04,0.08,0.98,
1.69,-0.25,0.56,-0.03,0.04,0.08,0.97,
1.692,-0.23,0.57,-0.06,0.04,0.08,0.97,
1.692,-0.23,0.57,-0.06,0.04,0.08,0.97,
1.695,-0.23,0.57,-0.06,0.04,0.08,0.97,
1.697,-0.23,0.57,-0.06,0.04,0.08,0.97,
1.698,-0.22,0.58,-0.07,0.04,0.08,0.97,
1.7,-0.22,0.58,-0.07,0.03,0.08,0.98,
1.702,-0.22,0.58,-0.07,0.03,0.08,0.98,
1.702,-0.20,0.56,-0.09,0.03,0.08,0.98,
1.704,-0.20,0.56,-0.09,0.02,0.08,0.98,
1.707,-0.20,0.56,-0.09,0.02,0.08,0.98,
1.707,-0.24,0.54,-0.06,0.02,0.08,0.98,
1.709,-0.24,0.54,-0.06,0.02,0.08,0.98,
1.712,-0.29,0.51,-0.06,0.02,0.08,0.98,
1.712,-0.29,0.51,-0.06,0.01,0.07,0.98,
1.714,-0.29,0.51,-0.06,0.01,0.07,0.98,
1.717,-0.29,0.51,-0.06,0.01,0.07,0.98,
1.717,-0.37,0.50,-0.05,0.01,0.07,0.98,
1.72,-0.37,0.50,-0.05,-0.00,0.07,0.98,
1.721,-0.37,0.50,-0.05,-0.01,0.06,0.98,
1.722,-0.42,0.46,-0.04,-0.01,0.06,0.98,
1.724,-0.42,0.46,-0.04,-0.01,0.06,0.98,
1.727,-0.42,0.46,-0.04,-0.02,0.06,0.99,
1.728,-0.52,0.42,0.01,-0.02,0.06,0.99,
1.729,-0.52,0.42,0.01,-0.02,0.06,0.99,
1.731,-0.52,0.42,0.01,-0.02,0.06,0.99,
1.732,-0.61,0.36,0.04,-0.02,0.06,0.99,
1.734,-0.61,0.36,0.04,-0.03,0.05,0.99,
1.736,-0.61,0.36,0.04,-0.03,0.05,1.00,
1.737,-0.67,0.34,0.09,-0.03,0.05,1.00,
1.739,-0.67,0.34,0.09,-0.03,0.05,1.00,
1.741,-0.67,0.34,0.09,-0.03,0.05,1.00,
1.742,-0.73,0.31,0.14,-0.03,0.05,1.00,
1.744,-0.73,0.31,0.14,-0.03,0.05,1.00,
1.746,-0.73,0.31,0.14,-0.03,0.05,1.01,
1.747,-0.74,0.30,0.19,-0.03,0.05,1.01,
1.748,-0.74,0.30,0.19,-0.03,0.06,1.01,
1.751,-0.74,0.30,0.19,-0.02,0.06,1.01,
1.751,-0.71,0.33,0.23,-0.02,0.06,1.01,
1.753,-0.71,0.33,0.23,-0.02,0.06,1.01,
1.756,-0.71,0.33,0.23,-0.01,0.07,1.01,
1.756,-0.63,0.37,0.27,-0.01,0.07,1.01,
1.759,-0.63,0.37,0.27,0.00,0.07,1.01,
1.762,-0.63,0.37,0.27,0.01,0.07,1.01,
1.763,-0.48,0.45,0.31,0.01,0.07,1.01,
1.764,-0.48,0.45,0.31,0.02,0.08,1.01,
1.766,-0.48,0.45,0.31,0.03,0.08,1.01,
1.766,-0.27,0.51,0.29,0.03,0.08,1.01,
1.768,-0.27,0.51,0.29,0.04,0.09,1.01,
1.771,-0.27,0.51,0.29,0.05,0.09,1.00,
1.771,-0.07,0.61,0.25,0.05,0.09,1.00,
1.773,-0.07,0.61,0.25,0.06,0.10,1.00,
1.776,-0.07,0.61,0.25,0.06,0.10,0.99,
1.776,0.11,0.70,0.18,0.06,0.10,0.99,
1.784,0.11,0.70,0.18,0.07,0.11,0.99,
1.784,0.11,0.70,0.18,0.07,0.11,0.98,
1.784,0.27,0.78,0.10,0.07,0.11,0.98,
1.785,0.27,0.78,0.10,0.08,0.11,0.97,
1.785,0.27,0.78,0.10,0.08,0.11,0.97,
1.785,0.39,0.85,-0.01,0.08,0.11,0.97,
1.788,0.39,0.85,-0.01,0.09,0.12,0.96,
1.79,0.39,0.85,-0.01,0.09,0.12,0.96,
1.79,0.46,0.90,-0.13,0.09,0.12,0.96,
1.792,0.46,0.90,-0.13,0.09,0.12,0.96,
1.795,0.46,0.90,-0.13,0.09,0.12,0.95,
1.796,0.52,0.95,-0.20,0.09,0.12,0.95,
1.797,0.52,0.95,-0.20,0.09,0.12,0.95,
1.8,0.52,0.95,-0.20,0.08,0.12,0.95,
1.8,0.52,0.96,-0.28,0.08,0.12,0.95,
1.802,0.52,0.96,-0.28,0.08,0.12,0.95,
1.805,0.52,0.96,-0.28,0.08,0.12,0.95,
1.806,0.49,0.94,-0.32,0.08,0.12,0.95,
1.807,0.49,0.94,-0.32,0.08,0.12,0.95,
1.81,0.49,0.94,-0.32,0.08,0.11,0.96,
1.811,0.45,0.94,-0.30,0.08,0.11,0.96,
1.812,0.45,0.94,-0.30,0.07,0.11,0.96,
1.815,0.45,0.94,-0.30,0.07,0.11,0.96,
1.815,0.41,0.87,-0.28,0.07,0.11,0.96,
1.817,0.41,0.87,-0.28,0.07,0.10,0.96,
1.82,0.37,0.81,-0.22,0.07,0.10,0.96,
1.82,0.37,0.81,-0.22,0.07,0.10,0.97,
1.822,0.37,0.81,-0.22,0.07,0.10,0.97,
1.824,0.37,0.81,-0.22,0.07,0.09,0.97,
1.825,0.36,0.73,-0.18,0.07,0.09,0.97,
1.827,0.36,0.73,-0.18,0.07,0.09,0.97,
1.83,0.36,0.73,-0.18,0.07,0.08,0.98,
1.83,0.37,0.67,-0.13,0.07,0.08,0.98,
1.832,0.37,0.67,-0.13,0.07,0.08,0.98,
1.834,0.37,0.67,-0.13,0.06,0.08,0.98,
1.835,0.35,0.58,-0.05,0.06,0.08,0.98,
1.837,0.35,0.58,-0.05,0.06,0.07,0.98,
1.839,0.35,0.58,-0.05,0.06,0.07,0.98,
1.84,0.30,0.51,0.00,0.06,0.07,0.98,
1.842,0.30,0.51,0.00,0.05,0.07,0.99,
1.845,0.30,0.51,0.00,0.05,0.06,0.99,
1.845,0.27,0.45,0.01,0.05,0.06,0.99,
1.846,0.27,0.45,0.01,0.05,0.06,0.99,
1.849,0.27,0.45,0.01,0.04,0.06,0.99,
1.85,0.21,0.41,0.04,0.04,0.06,0.99,
1.852,0.21,0.41,0.04,0.04,0.06,0.99,
1.854,0.21,0.41,0.04,0.04,0.06,0.99,
1.854,0.14,0.38,0.06,0.04,0.06,0.99,
1.856,0.14,0.38,0.06,0.03,0.06,0.99,
1.859,0.14,0.38,0.06,0.03,0.06,0.99,
1.859,0.08,0.37,0.05,0.03,0.06,0.99,
1.867,0.08,0.37,0.05,0.02,0.06,0.99,
1.867,0.08,0.37,0.05,0.02,0.06,0.99,
1.868,0.00,0.37,0.05,0.02,0.06,0.99,
1.868,0.00,0.37,0.05,0.01,0.06,0.99,
1.869,0.00,0.37,0.05,0.01,0.06,1.00,
1.869,-0.06,0.39,0.07,0.01,0.06,1.00,
1.871,-0.06,0.39,0.07,0.01,0.06,1.00,
1.873,-0.06,0.39,0.07,0.01,0.06,1.00,
1.874,-0.10,0.40,0.11,0.01,0.06,1.00,
1.876,-0.10,0.40,0.11,0.01,0.05,1.00,
1.879,-0.10,0.40,0.11,0.01,0.05,1.01,
1.879,-0.11,0.39,0.14,0.01,0.05,1.01,
1.881,-0.11,0.39,0.14,0.01,0.05,1.01,
1.883,-0.11,0.39,0.14,0.01,0.05,1.01,
1.883,-0.11,0.37,0.21,0.01,0.05,1.01,
1.885,-0.11,0.37,0.21,0.01,0.05,1.02,
1.888,-0.11,0.37,0.21,0.01,0.05,1.02,
1.888,-0.09,0.35,0.27,0.01,0.05,1.02,
1.89,-0.09,0.35,0.27,0.01,0.05,1.02,
1.893,-0.09,0.35,0.27,0.01,0.05,1.02,
1.893,-0.08,0.35,0.32,0.01,0.05,1.02,
1.895,-0.08,0.35,0.32,0.01,0.05,1.02,
1.898,-0.08,0.35,0.32,0.01,0.04,1.02,
1.898,-0.07,0.33,0.35,0.01,0.04,1.02,
1.9,-0.07,0.33,0.35,0.01,0.04,1.02,
1.903,-0.07,0.33,0.35,0.02,0.04,1.02,
1.903,-0.03,0.29,0.37,0.02,0.04,1.02,
1.905,-0.03,0.29,0.37,0.02,0.04,1.02,
1.908,0.01,0.28,0.35,0.02,0.04,1.02,
1.908,0.01,0.28,0.35,0.02,0.04,1.02,
1.91,0.01,0.28,0.35,0.02,0.04,1.01,
1.913,0.01,0.28,0.35,0.02,0.04,1.01,
1.913,0.05,0.25,0.32,0.02,0.04,1.01,
1.915,0.05,0.25,0.32,0.02,0.04,1.00,
1.917,0.05,0.25,0.32,0.02,0.04,1.00,
1.918,0.07,0.23,0.24,0.02,0.04,1.00,
1.92,0.07,0.23,0.24,0.02,0.04,0.99,
1.922,0.07,0.23,0.24,0.02,0.04,0.98,
1.923,0.09,0.22,0.14,0.02,0.04,0.98,
1.925,0.09,0.22,0.14,0.02,0.04,0.98,
1.928,0.09,0.22,0.14,0.03,0.04,0.97,
1.928,0.13,0.22,0.02,0.03,0.04,0.97,
1.93,0.13,0.22,0.02,0.03,0.04,0.97,
1.932,0.13,0.22,0.02,0.03,0.04,0.97,
1.933,0.15,0.24,-0.09,0.03,0.04,0.97,
1.934,0.15,0.24,-0.09,0.03,0.04,0.96,
1.937,0.15,0.24,-0.09,0.03,0.05,0.96,
1.937,0.18,0.27,-0.17,0.03,0.05,0.96,
1.94,0.18,0.27,-0.17,0.03,0.05,0.96,
1.942,0.18,0.27,-0.17,0.03,0.05,0.96,
1.942,0.19,0.31,-0.23,0.03,0.05,0.96,
1.944,0.19,0.31,-0.23,0.03,0.05,0.96,
1.948,0.19,0.31,-0.23,0.03,0.05,0.96,
1.949,0.24,0.32,-0.25,0.03,0.05,0.96,
1.949,0.24,0.32,-0.25,0.03,0.04,0.96,
1.952,0.24,0.32,-0.25,0.03,0.05,0.96,
1.952,0.25,0.32,-0.26,0.03,0.05,0.96,
1.954,0.25,0.32,-0.26,0.03,0.05,0.96,
1.957,0.25,0.32,-0.26,0.03,0.05,0.96,
1.957,0.26,0.33,-0.25,0.03,0.05,0.96,
1.959,0.26,0.33,-0.25,0.03,0.05,0.97,
1.968,0.26,0.33,-0.25,0.03,0.05,0.97,
1.968,0.27,0.35,-0.23,0.03,0.05,0.97,
1.968,0.27,0.35,-0.23,0.03,0.05,0.98,
1.969,0.27,0.35,-0.23,0.03,0.05,0.98,
1.969,0.27,0.38,-0.16,0.03,0.05,0.98,
1.97,0.27,0.38,-0.16,0.03,0.05,0.98,
1.972,0.27,0.38,-0.16,0.04,0.05,0.99,
1.972,0.25,0.39,-0.07,0.04,0.05,0.99,
1.974,0.25,0.39,-0.07,0.04,0.04,1.00,
1.981,0.25,0.39,-0.07,0.04,0.04,1.00,
1.981,0.29,0.37,0.03,0.04,0.04,1.00,
1.982,0.29,0.37,0.03,0.04,0.04,1.01,
1.982,0.29,0.37,0.03,0.04,0.04,1.01,
1.982,0.34,0.35,0.15,0.04,0.04,1.01,
1.984,0.34,0.35,0.15,0.05,0.04,1.02,
1.986,0.34,0.35,0.15,0.05,0.04,1.03,
1.986,0.38,0.34,0.26,0.05,0.04,1.03,
1.988,0.38,0.34,0.26,0.05,0.04,1.03,
1.991,0.38,0.34,0.26,0.05,0.04,1.03,
1.991,0.43,0.33,0.37,0.05,0.04,1.03,
1.993,0.43,0.33,0.37,0.06,0.04,1.03,
1.996,0.43,0.33,0.37,0.06,0.04,1.03,
1.996,0.47,0.33,0.44,0.06,0.04,1.03,
1.998,0.47,0.33,0.44,0.06,0.04,1.03,
2.001,0.47,0.33,0.44,0.07,0.04,1.03,
2.001,0.52,0.32,0.44,0.07,0.04,1.03,
2.003,0.52,0.32,0.44,0.07,0.04,1.03,
2.005,0.52,0.32,0.44,0.07,0.04,1.03,
2.006,0.57,0.29,0.42,0.07,0.04,1.03,
2.008,0.57,0.29,0.42,0.07,0.04,1.02,
2.01,0.57,0.29,0.42,0.08,0.04,1.02,
2.011,0.62,0.27,0.39,0.08,0.04,1.02,
2.013,0.62,0.27,0.39,0.08,0.04,1.02,
2.016,0.62,0.27,0.39,0.08,0.04,1.01,
2.016,0.68,0.28,0.32,0.08,0.04,1.01,
2.018,0.68,0.28,0.32,0.08,0.05,1.01,
2.02,0.68,0.28,0.32,0.08,0.05,1.01,
2.021,0.71,0.29,0.27,0.08,0.05,1.01,
2.023,0.71,0.29,0.27,0.08,0.05,1.01,
2.025,0.71,0.29,0.27,0.08,0.05,1.01,
2.026,0.72,0.35,0.22,0.08,0.05,1.01,
2.028,0.72,0.35,0.22,0.08,0.05,1.01,
2.03,0.72,0.35,0.22,0.09,0.05,1.01,
2.031,0.77,0.41,0.19,0.09,0.05,1.01,
2.033,0.77,0.41,0.19,0.09,0.05,1.01,
2.035,0.77,0.41,0.19,0.09,0.06,1.01,
2.035,0.78,0.43,0.19,0.09,0.06,1.01,
2.037,0.78,0.43,0.19,0.09,0.05,1.01,
2.04,0.78,0.43,0.19,0.09,0.06,1.01,
2.04,0.81,0.43,0.19,0.09,0.06,1.01,
2.042,0.81,0.43,0.19,0.08,0.05,1.01,
2.045,0.81,0.43,0.19,0.08,0.06,1.01,
2.045,0.80,0.43,0.20,0.08,0.06,1.01,
2.048,0.80,0.43,0.20,0.08,0.06,1.01,
2.05,0.80,0.43,0.20,0.08,0.06,1.01,
2.05,0.77,0.43,0.20,0.08,0.06,1.01,
2.052,0.77,0.43,0.20,0.08,0.06,1.01,
2.055,0.77,0.43,0.20,0.07,0.06,1.01,
2.055,0.75,0.44,0.22,0.07,0.06,1.01,
2.057,0.75,0.44,0.22,0.07,0.06,1.02,
2.066,0.75,0.44,0.22,0.07,0.06,1.02,
2.066,0.69,0.43,0.23,0.07,0.06,1.02,
2.067,0.69,0.43,0.23,0.07,0.05,1.02,
2.067,0.69,0.43,0.23,0.07,0.05,1.02,
2.068,0.67,0.42,0.27,0.07,0.05,1.02,
2.068,0.67,0.42,0.27,0.07,0.05,1.02,
2.069,0.67,0.42,0.27,0.06,0.05,1.02,
2.07,0.64,0.40,0.26,0.06,0.05,1.02,
2.072,0.64,0.40,0.26,0.06,0.05,1.01,
2.074,0.64,0.40,0.26,0.07,0.05,1.01,
2.074,0.60,0.37,0.26,0.07,0.05,1.01,
2.081,0.60,0.37,0.26,0.06,0.05,1.01,
2.081,0.60,0.37,0.26,0.06,0.05,1.01,
2.081,0.60,0.34,0.25,0.06,0.05,1.01,
2.082,0.60,0.34,0.25,0.06,0.05,1.01,
2.084,0.60,0.34,0.25,0.07,0.05,1.01,
2.084,0.58,0.33,0.22,0.07,0.05,1.01,
2.086,0.58,0.33,0.22,0.06,0.05,1.01,
2.089,0.58,0.33,0.22,0.07,0.05,1.01,
2.089,0.59,0.30,0.20,0.07,0.05,1.01,
2.091,0.59,0.30,0.20,0.07,0.04,1.00,
2.094,0.59,0.30,0.20,0.07,0.05,1.00,
2.095,0.61,0.28,0.16,0.07,0.05,1.00,
2.096,0.61,0.28,0.16,0.07,0.05,0.99,
2.099,0.61,0.28,0.16,0.07,0.05,0.99,
2.099,0.63,0.26,0.11,0.07,0.05,0.99,
2.101,0.63,0.26,0.11,0.07,0.05,0.99,
2.103,0.63,0.26,0.11,0.07,0.05,0.99,
2.104,0.63,0.28,0.03,0.07,0.05,0.99,
2.106,0.63,0.28,0.03,0.07,0.05,0.98,
2.109,0.63,0.28,0.03,0.07,0.05,0.98,
2.109,0.63,0.29,-0.03,0.07,0.05,0.98,
2.111,0.63,0.29,-0.03,0.07,0.06,0.98,
2.114,0.63,0.29,-0.03,0.07,0.06,0.97,
2.114,0.62,0.31,-0.10,0.07,0.06,0.97,
2.116,0.62,0.31,-0.10,0.07,0.06,0.97,
2.118,0.64,0.34,-0.16,0.07,0.06,0.97,
2.119,0.64,0.34,-0.16,0.07,0.05,0.97,
2.12,0.64,0.34,-0.16,0.07,0.05,0.96,
2.123,0.64,0.34,-0.16,0.07,0.05,0.96,
2.123,0.61,0.32,-0.22,0.07,0.05,0.96,
2.125,0.61,0.32,-0.22,0.06,0.05,0.96,
2.129,0.60,0.30,-0.26,0.06,0.05,0.96,
2.129,0.60,0.30,-0.26,0.06,0.06,0.96,
2.13,0.60,0.30,-0.26,0.06,0.05,0.96,
2.133,0.60,0.30,-0.26,0.06,0.05,0.96,
2.134,0.57,0.30,-0.26,0.06,0.05,0.96,
2.136,0.57,0.30,-0.26,0.06,0.05,0.97,
2.138,0.52,0.29,-0.24,0.06,0.05,0.97,
2.138,0.52,0.29,-0.24,0.05,0.05,0.97,
2.14,0.52,0.29,-0.24,0.05,0.05,0.97,
2.144,0.52,0.29,-0.24,0.05,0.05,0.97,
2.145,0.46,0.25,-0.20,0.05,0.05,0.97,
2.146,0.46,0.25,-0.20,0.04,0.04,0.98,
2.148,0.46,0.25,-0.20,0.04,0.04,0.98,
2.148,0.39,0.21,-0.16,0.04,0.04,0.98,
2.15,0.39,0.21,-0.16,0.04,0.04,0.98,
2.153,0.33,0.15,-0.11,0.04,0.04,0.98,
2.153,0.33,0.15,-0.11,0.04,0.03,0.98,
2.155,0.33,0.15,-0.11,0.04,0.03,0.99,
2.158,0.33,0.15,-0.11,0.03,0.03,0.99,
2.158,0.30,0.08,-0.05,0.03,0.03,0.99,
2.161,0.30,0.08,-0.05,0.04,0.03,0.99,
2.163,0.30,0.08,-0.05,0.04,0.03,1.00,
2.163,0.26,0.04,0.00,0.04,0.03,1.00,
2.165,0.26,0.04,0.00,0.04,0.02,1.00,
2.168,0.28,-0.01,0.08,0.04,0.02,1.00,
2.168,0.28,-0.01,0.08,0.04,0.02,1.01,
2.17,0.28,-0.01,0.08,0.05,0.02,1.01,
2.172,0.28,-0.01,0.08,0.05,0.02,1.02,
2.172,0.32,-0.05,0.17,0.05,0.02,1.02,
2.175,0.32,-0.05,0.17,0.05,0.02,1.02,
2.182,0.32,-0.05,0.17,0.06,0.02,1.02,
2.183,0.38,-0.06,0.26,0.06,0.02,1.02,
2.183,0.38,-0.06,0.26,0.06,0.02,1.03,
2.183,0.38,-0.06,0.26,0.06,0.02,1.03,
2.184,0.43,-0.08,0.33,0.06,0.02,1.03,
2.185,0.43,-0.08,0.33,0.06,0.02,1.03,
2.187,0.47,-0.08,0.37,0.06,0.02,1.03,
2.187,0.47,-0.08,0.37,0.06,0.02,1.03,
2.189,0.47,-0.08,0.37,0.06,0.02,1.03,
2.192,0.47,-0.08,0.37,0.05,0.02,1.02,
2.192,0.46,-0.09,0.37,0.05,0.02,1.02,
2.196,0.46,-0.09,0.37,0.05,0.03,1.02,
2.197,0.46,-0.09,0.37,0.05,0.02,1.02,
2.198,0.45,-0.09,0.34,0.05,0.02,1.02,
2.199,0.45,-0.09,0.34,0.05,0.03,1.01,
2.202,0.45,-0.09,0.34,0.04,0.03,1.00,
2.202,0.40,-0.09,0.26,0.04,0.03,1.00,
2.204,0.40,-0.09,0.26,0.04,0.02,1.00,
2.207,0.40,-0.09,0.26,0.04,0.02,0.99,
2.207,0.37,-0.10,0.15,0.04,0.02,0.99,
2.209,0.37,-0.10,0.15,0.03,0.02,0.99,
2.211,0.37,-0.10,0.15,0.03,0.02,0.98,
2.212,0.30,-0.13,0.05,0.03,0.02,0.98,
2.214,0.30,-0.13,0.05,0.03,0.02,0.98,
2.216,0.30,-0.13,0.05,0.02,0.02,0.97,
2.217,0.23,-0.15,-0.06,0.02,0.02,0.97,
2.218,0.23,-0.15,-0.06,0.02,0.02,0.97,
2.221,0.23,-0.15,-0.06,0.02,0.02,0.96,
2.222,0.17,-0.19,-0.17,0.02,0.02,0.96,
2.223,0.17,-0.19,-0.17,0.02,0.02,0.96,
2.226,0.17,-0.19,-0.17,0.01,0.02,0.96,
2.227,0.15,-0.19,-0.23,0.01,0.02,0.96,
2.228,0.15,-0.19,-0.23,0.01,0.02,0.96,
2.231,0.15,-0.19,-0.23,0.01,0.01,0.96,
2.231,0.08,-0.22,-0.29,0.01,0.01,0.96,
2.233,0.08,-0.22,-0.29,0.01,0.01,0.96,
2.236,0.08,-0.22,-0.29,0.01,0.01,0.97,
2.236,0.04,-0.26,-0.28,0.01,0.01,0.97,
2.238,0.04,-0.26,-0.28,0.01,0.01,0.97,
2.241,0.04,-0.26,-0.28,0.01,0.01,0.97,
2.241,0.02,-0.30,-0.25,0.01,0.01,0.97,
2.243,0.02,-0.30,-0.25,0.01,0.01,0.98,
2.246,0.02,-0.30,-0.25,0.01,0.01,0.98,
2.247,0.02,-0.32,-0.17,0.01,0.01,0.98,
2.248,0.02,-0.32,-0.17,0.02,0.01,0.98,
2.251,0.02,-0.32,-0.17,0.02,0.01,0.99,
2.251,0.07,-0.34,-0.11,0.02,0.01,0.99,
2.253,0.07,-0.34,-0.11,0.02,0.01,0.99,
2.256,0.07,-0.34,-0.11,0.02,0.01,0.99,
2.256,0.10,-0.35,-0.03,0.02,0.01,0.99,
2.258,0.10,-0.35,-0.03,0.01,0.01,0.99,
2.261,0.10,-0.35,-0.03,0.02,0.01,1.00,
2.261,0.11,-0.35,0.03,0.02,0.01,1.00,
2.263,0.11,-0.35,0.03,0.02,0.01,1.00,
2.266,0.11,-0.35,0.03,0.02,0.01,1.00,
2.266,0.11,-0.34,0.06,0.02,0.01,1.00,
2.268,0.11,-0.34,0.06,0.02,0.01,1.00,
2.27,0.11,-0.34,0.06,0.02,0.01,1.00,
2.27,0.13,-0.35,0.10,0.02,0.01,1.00,
2.273,0.13,-0.35,0.10,0.02,0.01,1.00,
2.275,0.13,-0.35,0.10,0.01,0.01,0.99,
2.275,0.14,-0.33,0.09,0.01,0.01,0.99,
2.283,0.14,-0.33,0.09,0.01,0.01,0.99,
2.284,0.14,-0.33,0.09,0.01,0.01,0.99,
2.284,0.12,-0.34,0.07,0.01,0.01,0.99,
2.284,0.12,-0.34,0.07,0.01,0.01,0.99,
2.285,0.12,-0.34,0.07,0.01,0.01,0.99,
2.286,0.12,-0.34,0.04,0.01,0.01,0.99,
2.287,0.12,-0.34,0.04,0.01,0.01,0.98,
2.29,0.12,-0.34,0.04,0.01,0.01,0.98,
2.29,0.11,-0.35,-0.02,0.01,0.01,0.98,
2.292,0.11,-0.35,-0.02,0.01,0.01,0.97,
2.295,0.11,-0.35,-0.02,0.01,0.01,0.97,
2.296,0.08,-0.38,-0.11,0.01,0.01,0.97,
2.297,0.08,-0.38,-0.11,0.01,0.01,0.96,
2.3,0.08,-0.38,-0.11,0.01,0.01,0.96,
2.3,0.07,-0.38,-0.19,0.01,0.01,0.96,
2.302,0.07,-0.38,-0.19,0.01,0.01,0.96,
2.304,0.07,-0.38,-0.19,0.01,0.01,0.96,
2.305,0.07,-0.39,-0.24,0.01,0.01,0.96,
2.307,0.07,-0.39,-0.24,0.01,0.01,0.96,
2.309,0.07,-0.39,-0.24,0.01,0.01,0.95,
2.31,0.08,-0.37,-0.28,0.01,0.01,0.95,
2.312,0.08,-0.37,-0.28,0.01,0.01,0.95,
2.314,0.08,-0.37,-0.28,0.01,0.02,0.95,
2.315,0.09,-0.37,-0.34,0.01,0.02,0.95,
2.317,0.09,-0.37,-0.34,0.02,0.02,0.95,
2.32,0.09,-0.37,-0.34,0.02,0.02,0.94,
2.32,0.12,-0.35,-0.37,0.02,0.02,0.94,
2.321,0.12,-0.35,-0.37,0.02,0.02,0.94,
2.324,0.17,-0.35,-0.41,0.02,0.02,0.94,
2.325,0.17,-0.35,-0.41,0.02,0.02,0.94,
2.326,0.17,-0.35,-0.41,0.02,0.02,0.94,
2.329,0.17,-0.35,-0.41,0.03,0.01,0.94,
2.33,0.20,-0.34,-0.44,0.03,0.01,0.94,
2.331,0.20,-0.34,-0.44,0.03,0.01,0.94,
2.334,0.20,-0.34,-0.44,0.03,0.01,0.94,
2.334,0.24,-0.37,-0.43,0.03,0.01,0.94,
2.336,0.24,-0.37,-0.43,0.03,0.01,0.94,
2.339,0.29,-0.41,-0.41,0.03,0.01,0.94,
2.339,0.29,-0.41,-0.41,0.03,0.01,0.94,
2.341,0.29,-0.41,-0.41,0.03,0.01,0.94,
2.344,0.29,-0.41,-0.41,0.04,0.00,0.94,
2.344,0.32,-0.45,-0.42,0.04,0.00,0.94,
2.346,0.32,-0.45,-0.42,0.04,0.00,0.94,
2.348,0.32,-0.45,-0.42,0.04,0.00,0.94,
2.349,0.34,-0.50,-0.41,0.04,0.00,0.94,
2.351,0.34,-0.50,-0.41,0.04,-0.00,0.94,
2.353,0.34,-0.50,-0.41,0.04,0.00,0.94,
2.354,0.35,-0.53,-0.41,0.04,0.00,0.94,
2.356,0.35,-0.53,-0.41,0.04,0.00,0.95,
2.358,0.35,-0.53,-0.41,0.03,0.00,0.95,
2.359,0.35,-0.55,-0.40,0.03,0.00,0.95,
2.367,0.35,-0.55,-0.40,0.03,0.00,0.95,
2.368,0.35,-0.55,-0.40,0.03,0.00,0.95,
2.368,0.33,-0.54,-0.36,0.03,0.00,0.95,
2.368,0.33,-0.54,-0.36,0.03,0.00,0.96,
2.369,0.33,-0.54,-0.36,0.04,0.00,0.96,
2.369,0.32,-0.51,-0.31,0.04,0.00,0.96,
2.37,0.32,-0.51,-0.31,0.04,-0.00,0.96,
2.373,0.34,-0.51,-0.25,0.04,-0.00,0.96,
2.373,0.34,-0.51,-0.25,0.04,-0.00,0.96,
2.378,0.34,-0.51,-0.25,0.05,-0.00,0.97,
2.378,0.34,-0.51,-0.25,0.05,-0.00,0.97,
2.378,0.40,-0.56,-0.20,0.05,-0.00,0.97,
2.38,0.40,-0.56,-0.20,0.05,-0.00,0.97,
2.383,0.40,-0.56,-0.20,0.05,-0.00,0.97,
2.383,0.43,-0.57,-0.15,0.05,-0.00,0.97,
2.385,0.43,-0.57,-0.15,0.05,-0.00,0.98,
2.388,0.43,-0.57,-0.15,0.05,0.00,0.97,
2.388,0.44,-0.56,-0.09,0.05,0.00,0.97,
2.39,0.44,-0.56,-0.09,0.05,0.00,0.98,
2.393,0.44,-0.56,-0.09,0.06,0.00,0.98,
2.393,0.45,-0.54,-0.07,0.06,0.00,0.98,
2.395,0.45,-0.54,-0.07,0.06,0.01,0.98,
2.398,0.45,-0.54,-0.07,0.06,0.01,0.98,
2.398,0.49,-0.52,-0.05,0.06,0.01,0.98,
2.4,0.49,-0.52,-0.05,0.06,0.01,0.98,
2.402,0.49,-0.52,-0.05,0.07,0.01,0.97,
2.403,0.52,-0.49,-0.06,0.07,0.01,0.97,
2.405,0.52,-0.49,-0.06,0.07,0.01,0.97,
2.407,0.52,-0.49,-0.06,0.07,0.01,0.97,
2.408,0.59,-0.49,-0.07,0.07,0.01,0.97,
2.41,0.59,-0.49,-0.07,0.07,0.01,0.97,
2.413,0.59,-0.49,-0.07,0.08,0.01,0.96,
2.413,0.62,-0.49,-0.11,0.08,0.01,0.96,
2.415,0.62,-0.49,-0.11,0.08,0.01,0.96,
2.417,0.62,-0.49,-0.11,0.08,0.01,0.96,
2.417,0.68,-0.49,-0.15,0.08,0.01,0.96,
2.419,0.68,-0.49,-0.15,0.08,0.01,0.95,
2.422,0.68,-0.49,-0.15,0.08,0.01,0.95,
2.422,0.68,-0.47,-0.23,0.08,0.01,0.95,
2.425,0.68,-0.47,-0.23,0.08,0.01,0.95,
2.427,0.68,-0.47,-0.23,0.07,0.02,0.95,
2.428,0.68,-0.45,-0.28,0.07,0.02,0.95,
2.429,0.68,-0.45,-0.28,0.07,0.02,0.95,
2.432,0.68,-0.45,-0.28,0.07,0.01,0.95,
2.432,0.66,-0.43,-0.32,0.07,0.01,0.95,
2.434,0.66,-0.43,-0.32,0.07,0.01,0.94,
2.437,0.66,-0.43,-0.32,0.07,0.01,0.95,
2.437,0.63,-0.43,-0.34,0.07,0.01,0.95,
2.439,0.63,-0.43,-0.34,0.07,0.01,0.95,
2.442,0.63,-0.43,-0.34,0.06,0.01,0.95,
2.442,0.60,-0.45,-0.34,0.06,0.01,0.95,
2.444,0.60,-0.45,-0.34,0.06,0.00,0.96,
2.446,0.60,-0.45,-0.34,0.06,0.00,0.96,
2.447,0.55,-0.49,-0.29,0.06,0.00,0.96,
2.449,0.55,-0.49,-0.29,0.05,-0.00,0.96,
2.451,0.55,-0.49,-0.29,0.05,-0.00,0.97,
2.452,0.49,-0.53,-0.23,0.05,-0.00,0.97,
2.454,0.49,-0.53,-0.23,0.05,-0.00,0.97,
2.456,0.49,-0.53,-0.23,0.04,-0.00,0.98,
2.457,0.42,-0.58,-0.14,0.04,-0.00,0.98,
2.459,0.42,-0.58,-0.14,0.04,-0.01,0.98,
2.467,0.42,-0.58,-0.14,0.04,-0.01,0.98,
2.468,0.36,-0.59,-0.07,0.04,-0.01,0.98,
2.468,0.36,-0.59,-0.07,0.04,-0.01,0.99,
2.468,0.36,-0.59,-0.07,0.04,-0.01,0.99,
2.469,0.33,-0.63,0.02,0.04,-0.01,0.99,
2.469,0.33,-0.63,0.02,0.04,-0.01,0.99,
2.471,0.33,-0.63,0.02,0.03,-0.01,0.99,
2.471,0.30,-0.65,0.09,0.03,-0.01,0.99,
2.473,0.30,-0.65,0.09,0.03,-0.01,1.00,
2.48,0.26,-0.68,0.13,0.03,-0.01,1.00,
2.48,0.26,-0.68,0.13,0.03,-0.01,1.00,
2.48,0.26,-0.68,0.13,0.03,-0.01,1.00,
2.481,0.26,-0.68,0.13,0.03,-0.01,1.00,
2.481,0.25,-0.67,0.16,0.03,-0.01,1.00,
2.483,0.25,-0.67,0.16,0.03,-0.01,1.00,
2.485,0.25,-0.67,0.16,0.03,-0.01,0.99,
2.486,0.22,-0.67,0.16,0.03,-0.01,0.99,
2.488,0.22,-0.67,0.16,0.03,-0.01,0.99,
2.49,0.22,-0.67,0.16,0.03,-0.01,0.99,
2.491,0.20,-0.65,0.14,0.03,-0.01,0.99,
2.493,0.20,-0.65,0.14,0.03,-0.01,0.98,
2.496,0.20,-0.65,0.14,0.03,-0.01,0.98,
2.496,0.21,-0.62,0.07,0.03,-0.01,0.98,
2.498,0.21,-0.62,0.07,0.03,-0.01,0.97,
2.501,0.21,-0.62,0.07,0.03,-0.00,0.97,
2.501,0.20,-0.61,0.01,0.03,-0.00,0.97,
2.503,0.20,-0.61,0.01,0.03,-0.00,0.97,
2.505,0.20,-0.61,0.01,0.03,-0.00,0.96,
2.505,0.21,-0.58,-0.08,0.03,-0.00,0.96,
2.508,0.21,-0.58,-0.08,0.03,0.00,0.96,
2.51,0.21,-0.58,-0.08,0.03,0.00,0.95,
2.51,0.24,-0.55,-0.17,0.03,0.00,0.95,
2.513,0.24,-0.55,-0.17,0.03,0.00,0.95,
2.515,0.24,-0.55,-0.17,0.03,0.01,0.94,
2.515,0.21,-0.52,-0.25,0.03,0.01,0.94,
2.517,0.21,-0.52,-0.25,0.03,0.01,0.94,
2.52,0.21,-0.52,-0.25,0.03,0.01,0.94,
2.52,0.21,-0.48,-0.32,0.03,0.01,0.94,
2.522,0.21,-0.48,-0.32,0.03,0.01,0.94,
2.525,0.21,-0.48,-0.32,0.02,0.01,0.94,
2.525,0.20,-0.44,-0.34,0.02,0.01,0.94,
2.527,0.20,-0.44,-0.34,0.02,0.01,0.95,
2.53,0.20,-0.44,-0.34,0.02,0.01,0.95,
2.53,0.17,-0.41,-0.35,0.02,0.01,0.95,
2.532,0.17,-0.41,-0.35,0.02,0.01,0.95,
2.535,0.17,-0.41,-0.35,0.02,0.01,0.95,
2.535,0.14,-0.39,-0.29,0.02,0.01,0.95,
2.537,0.14,-0.39,-0.29,0.02,0.01,0.96,
2.54,0.14,-0.39,-0.29,0.02,0.01,0.96,
2.54,0.13,-0.41,-0.25,0.02,0.01,0.96,
2.543,0.13,-0.41,-0.25,0.02,0.01,0.97,
2.544,0.12,-0.41,-0.17,0.02,0.01,0.97,
2.545,0.12,-0.41,-0.17,0.02,0.01,0.97,
2.547,0.12,-0.41,-0.17,0.02,0.01,0.98,
2.549,0.12,-0.41,-0.17,0.02,0.01,0.98,
2.55,0.11,-0.41,-0.10,0.02,0.01,0.98,
2.552,0.11,-0.41,-0.10,0.02,0.01,0.98,
2.554,0.11,-0.41,-0.10,0.01,0.01,0.99,
2.555,0.09,-0.40,-0.01,0.01,0.01,0.99,
2.556,0.09,-0.40,-0.01,0.01,0.01,0.99,
2.56,0.06,-0.40,0.06,0.01,0.01,0.99,
2.56,0.06,-0.40,0.06,0.01,0.01,0.99,
2.562,0.06,-0.40,0.06,0.01,0.01,1.00,
2.564,0.06,-0.40,0.06,0.00,0.02,1.00,
2.565,0.02,-0.37,0.14,0.00,0.02,1.00,
2.566,0.02,-0.37,0.14,0.00,0.02,1.00,
2.569,0.02,-0.37,0.14,0.00,0.02,1.00,
2.569,-0.02,-0.36,0.17,0.00,0.02,1.00,
2.571,-0.02,-0.36,0.17,0.00,0.02,1.00,
2.574,-0.02,-0.36,0.17,0.00,0.02,1.00,
2.574,-0.06,-0.35,0.19,0.00,0.02,1.00,
2.582,-0.06,-0.35,0.19,0.00,0.02,1.00,
2.582,-0.06,-0.35,0.19,0.00,0.02,1.00,
2.583,-0.05,-0.35,0.21,0.00,0.02,1.00,
2.583,-0.05,-0.35,0.21,0.00,0.02,1.00,
2.584,-0.05,-0.35,0.21,0.00,0.02,1.00,
2.584,-0.06,-0.35,0.22,0.00,0.02,1.00,
2.586,-0.06,-0.35,0.22,-0.00,0.02,1.00,
2.589,-0.06,-0.35,0.22,0.00,0.02,1.00,
2.589,-0.06,-0.33,0.21,0.00,0.02,1.00,
2.591,-0.06,-0.33,0.21,0.00,0.02,1.00,
2.593,-0.06,-0.33,0.21,0.00,0.02,0.99,
2.593,-0.06,-0.31,0.18,0.00,0.02,0.99,
2.596,-0.06,-0.31,0.18,0.00,0.02,0.99,
2.598,-0.06,-0.31,0.18,0.01,0.03,0.99,
2.599,-0.04,-0.30,0.16,0.01,0.03,0.99,
2.6,-0.04,-0.30,0.16,0.00,0.03,0.99,
2.603,-0.04,-0.30,0.16,0.00,0.03,0.99,
2.603,-0.01,-0.26,0.13,0.00,0.03,0.99,
2.605,-0.01,-0.26,0.13,0.00,0.03,0.99,
2.608,-0.01,-0.26,0.13,0.01,0.03,0.98,
2.608,-0.02,-0.22,0.10,0.01,0.03,0.98,
2.61,-0.02,-0.22,0.10,0.01,0.04,0.98,
2.613,-0.02,-0.22,0.10,0.01,0.04,0.98,
2.613,-0.01,-0.18,0.05,0.01,0.04,0.98,
2.616,-0.01,-0.18,0.05,0.01,0.04,0.98,
2.618,-0.01,-0.18,0.05,0.00,0.04,0.98,
2.618,0.00,-0.16,0.02,0.00,0.04,0.98,
2.62,0.00,-0.16,0.02,0.00,0.04,0.97,
2.624,0.00,-0.16,0.02,0.00,0.04,0.97,
2.624,-0.01,-0.13,-0.03,0.00,0.04,0.97,
2.626,-0.01,-0.13,-0.03,-0.00,0.04,0.97,
2.628,-0.01,-0.13,-0.03,-0.00,0.05,0.97,
2.628,-0.04,-0.10,-0.07,-0.00,0.05,0.97,
2.63,-0.04,-0.10,-0.07,-0.00,0.05,0.97,
2.633,-0.04,-0.10,-0.07,-0.00,0.05,0.96,
2.633,-0.06,-0.08,-0.11,-0.00,0.05,0.96,
2.635,-0.06,-0.08,-0.11,-0.00,0.05,0.97,
2.637,-0.06,-0.08,-0.11,-0.00,0.05,0.97,
2.638,-0.07,-0.07,-0.14,-0.00,0.05,0.97,
2.64,-0.07,-0.07,-0.14,-0.00,0.05,0.97,
2.643,-0.07,-0.07,-0.14,-0.00,0.05,0.97,
2.643,-0.09,-0.06,-0.13,-0.00,0.05,0.97,
2.645,-0.09,-0.06,-0.13,-0.01,0.05,0.97,
2.647,-0.09,-0.06,-0.13,-0.01,0.05,0.97,
2.648,-0.09,-0.05,-0.13,-0.01,0.05,0.97,
2.65,-0.09,-0.05,-0.13,-0.01,0.05,0.97,
2.652,-0.09,-0.05,-0.13,-0.01,0.05,0.97,
2.652,-0.13,-0.04,-0.12,-0.01,0.05,0.97,
2.654,-0.13,-0.04,-0.12,-0.01,0.05,0.97,
2.657,-0.13,-0.04,-0.12,-0.01,0.05,0.97,
2.658,-0.14,-0.06,-0.10,-0.01,0.05,0.97,
2.66,-0.14,-0.06,-0.10,-0.01,0.05,0.97,
2.662,-0.14,-0.06,-0.10,-0.01,0.05,0.97,
2.662,-0.15,-0.06,-0.07,-0.01,0.05,0.97,
2.664,-0.15,-0.06,-0.07,-0.01,0.05,0.97,
2.667,-0.15,-0.06,-0.07,-0.01,0.05,0.98,
2.667,-0.16,-0.08,-0.05,-0.01,0.05,0.98,
2.669,-0.16,-0.08,-0.05,-0.01,0.05,0.98,
2.672,-0.16,-0.08,-0.05,-0.01,0.05,0.98,
2.672,-0.14,-0.08,-0.04,-0.01,0.05,0.98,
2.674,-0.14,-0.08,-0.04,-0.01,0.05,0.98,
2.682,-0.14,-0.08,-0.04,-0.01,0.05,0.98,
2.682,-0.15,-0.07,-0.02,-0.01,0.05,0.98,
2.683,-0.15,-0.07,-0.02,-0.01,0.05,0.98,
2.683,-0.15,-0.07,-0.02,-0.00,0.04,0.99,
2.683,-0.15,-0.08,0.01,-0.00,0.04,0.99,
2.684,-0.15,-0.08,0.01,-0.00,0.05,0.99,
2.686,-0.15,-0.08,0.01,-0.00,0.05,0.99,
2.687,-0.11,-0.08,0.06,-0.00,0.05,0.99,
2.689,-0.11,-0.08,0.06,-0.00,0.05,0.99,
2.691,-0.11,-0.08,0.06,-0.00,0.05,0.99,
2.691,-0.09,-0.07,0.09,-0.00,0.05,0.99,
2.693,-0.09,-0.07,0.09,0.00,0.05,0.99,
2.696,-0.09,-0.07,0.09,0.00,0.05,0.99,
2.697,-0.08,-0.07,0.13,0.00,0.05,0.99,
2.698,-0.08,-0.07,0.13,0.00,0.05,1.00,
2.701,-0.08,-0.07,0.13,0.00,0.05,1.00,
2.701,-0.05,-0.04,0.15,0.00,0.05,1.00,
2.703,-0.05,-0.04,0.15,-0.00,0.05,1.00,
2.706,-0.05,-0.04,0.15,-0.00,0.05,1.00,
2.706,-0.05,-0.04,0.17,-0.00,0.05,1.00,
2.709,-0.05,-0.04,0.17,-0.00,0.05,1.00,
2.711,-0.05,-0.04,0.17,-0.00,0.05,0.99,
2.711,-0.08,-0.04,0.16,-0.00,0.05,0.99,
2.713,-0.08,-0.04,0.16,-0.00,0.05,0.99,
2.716,-0.08,-0.04,0.16,-0.01,0.05,0.97,
2.716,-0.09,-0.05,0.16,-0.01,0.05,0.97,
2.718,-0.09,-0.05,0.16,0.00,0.04,0.88,
2.721,-0.09,-0.05,0.16,0.03,0.05,0.81,
2.721,-0.11,-0.05,-0.00,0.03,0.05,0.81,
2.723,-0.11,-0.05,-0.00,0.05,0.06,0.82,
2.726,-0.11,-0.05,-0.00,0.05,0.06,0.85,
2.726,0.14,-0.10,-1.27,0.05,0.06,0.85,
2.728,0.14,-0.10,-1.27,0.03,0.06,0.87,
2.731,0.14,-0.10,-1.27,0.03,0.06,0.88,
2.731,0.43,0.05,-1.41,0.03,0.06,0.88,
2.733,0.43,0.05,-1.41,0.02,0.06,0.89,
2.736,0.43,0.05,-1.41,0.02,0.06,0.91,
2.736,0.25,0.07,-0.95,0.02,0.06,0.91,
2.738,0.25,0.07,-0.95,0.02,0.07,0.91,
2.74,0.25,0.07,-0.95,0.02,0.06,0.92,
2.741,0.15,0.10,-0.75,0.02,0.06,0.92,
2.742,0.15,0.10,-0.75,0.02,0.06,0.92,
2.745,0.15,0.10,-0.75,0.01,0.06,0.92,
2.745,0.16,0.14,-0.58,0.01,0.06,0.92,
2.747,0.16,0.14,-0.58,0.01,0.05,0.93,
2.75,0.16,0.14,-0.58,-0.00,0.05,0.95,
2.75,0.14,0.11,-0.52,-0.00,0.05,0.95,
2.753,0.14,0.11,-0.52,-0.01,0.04,0.97,
2.755,0.14,0.11,-0.52,-0.02,0.04,0.99,
2.755,0.00,0.03,-0.32,-0.02,0.04,0.99,
2.757,0.00,0.03,-0.32,-0.02,0.04,1.01,
2.76,-0.15,-0.05,0.06,-0.02,0.04,1.01,
2.76,-0.15,-0.05,0.06,-0.03,0.04,1.03,
2.762,-0.15,-0.05,0.06,-0.03,0.04,1.04,
2.765,-0.15,-0.05,0.06,-0.03,0.04,1.05,
2.765,-0.26,-0.07,0.44,-0.03,0.04,1.05,
2.767,-0.26,-0.07,0.44,-0.03,0.04,1.06,
2.77,-0.26,-0.07,0.44,-0.02,0.04,1.07,
2.77,-0.35,-0.06,0.71,-0.02,0.04,1.07,
2.772,-0.35,-0.06,0.71,-0.02,0.04,1.07,
2.774,-0.35,-0.06,0.71,-0.01,0.04,1.07,
2.775,-0.27,-0.07,0.84,-0.01,0.04,1.07,
2.78,-0.27,-0.07,0.84,-0.01,0.04,1.06,
2.78,-0.27,-0.07,0.84,-0.01,0.04,1.05,
2.78,-0.16,-0.08,0.88,-0.01,0.04,1.05,
2.782,-0.16,-0.08,0.88,-0.01,0.05,1.03,
2.784,-0.16,-0.08,0.88,-0.02,0.05,1.02,
2.785,-0.10,-0.08,0.76,-0.02,0.05,1.02,
2.787,-0.10,-0.08,0.76,-0.02,0.05,1.00,
2.789,-0.10,-0.08,0.76,-0.02,0.05,0.99,
2.789,-0.18,-0.01,0.47,-0.02,0.05,0.99,
2.792,-0.18,-0.01,0.47,-0.02,0.05,0.98,
2.794,-0.18,-0.01,0.47,-0.02,0.05,0.97,
2.794,-0.22,-0.00,0.19,-0.02,0.05,0.97,
2.796,-0.22,-0.00,0.19,-0.01,0.05,0.96,
2.799,-0.22,-0.00,0.19,-0.01,0.05,0.95,
2.799,-0.23,0.01,-0.05,-0.01,0.05,0.95,
2.801,-0.23,0.01,-0.05,-0.01,0.05,0.95,
2.804,-0.18,-0.01,-0.24,-0.01,0.05,0.95,
2.804,-0.18,-0.01,-0.24,-0.01,0.05,0.94,
2.806,-0.18,-0.01,-0.24,-0.01,0.05,0.94,
2.809,-0.18,-0.01,-0.24,-0.01,0.05,0.94,
2.809,-0.18,-0.03,-0.34,-0.01,0.05,0.94,
