
time,ax,ay,az,gFx,gFy,gFz,
0.001,0.02,-0.02,-0.21,0.04,0.12,0.95,
0.001,0.06,-0.03,-0.22,0.04,0.12,0.95,
0.001,0.06,-0.03,-0.22,0.04,0.12,0.95,
0.003,0.06,-0.03,-0.22,0.04,0.12,0.95,
0.004,0.08,-0.01,-0.21,0.04,0.12,0.95,
0.006,0.08,-0.01,-0.21,0.04,0.12,0.95,
0.008,0.08,-0.01,-0.21,0.04,0.12,0.95,
0.009,0.10,0.01,-0.21,0.04,0.12,0.95,
0.01,0.10,0.01,-0.21,0.04,0.12,0.95,
0.013,0.10,0.01,-0.21,0.04,0.13,0.96,
0.013,0.13,0.03,-0.20,0.04,0.13,0.96,
0.015,0.13,0.03,-0.20,0.04,0.13,0.95,
0.018,0.13,0.03,-0.20,0.04,0.13,0.96,
0.018,0.15,0.04,-0.19,0.04,0.13,0.96,
0.02,0.15,0.04,-0.19,0.04,0.13,0.96,
0.023,0.15,0.04,-0.19,0.04,0.13,0.96,
0.023,0.15,0.07,-0.19,0.04,0.13,0.96,
0.025,0.15,0.07,-0.19,0.04,0.13,0.96,
0.028,0.15,0.07,-0.19,0.04,0.13,0.96,
0.028,0.15,0.07,-0.17,0.04,0.13,0.96,
0.03,0.15,0.07,-0.17,0.04,0.13,0.96,
0.033,0.15,0.07,-0.17,0.03,0.13,0.96,
0.033,0.11,0.07,-0.16,0.03,0.13,0.96,
0.035,0.11,0.07,-0.16,0.03,0.13,0.96,
0.038,0.11,0.07,-0.16,0.03,0.13,0.96,
0.038,0.09,0.07,-0.16,0.03,0.13,0.96,
0.042,0.09,0.07,-0.16,0.03,0.13,0.96,
0.043,0.09,0.07,-0.16,0.02,0.12,0.96,
0.043,0.06,0.07,-0.16,0.02,0.12,0.96,
0.045,0.06,0.07,-0.16,0.03,0.12,0.95,
0.048,-0.00,0.05,-0.16,0.03,0.12,0.95,
0.048,-0.00,0.05,-0.16,0.02,0.12,0.96,
0.05,-0.00,0.05,-0.16,0.02,0.12,0.96,
0.052,-0.00,0.05,-0.16,0.02,0.12,0.96,
0.053,-0.01,0.04,-0.18,0.02,0.12,0.96,
0.055,-0.01,0.04,-0.18,0.02,0.12,0.96,
0.057,-0.01,0.04,-0.18,0.02,0.12,0.96,
0.058,-0.01,0.03,-0.15,0.02,0.12,0.96,
0.06,-0.01,0.03,-0.15,0.02,0.12,0.96,
0.062,-0.01,0.03,-0.15,0.02,0.12,0.96,
0.062,-0.04,-0.01,-0.13,0.02,0.12,0.96,
0.065,-0.04,-0.01,-0.13,0.02,0.11,0.96,
0.067,-0.04,-0.01,-0.13,0.02,0.11,0.96,
0.067,-0.05,-0.02,-0.12,0.02,0.11,0.96,
0.069,-0.05,-0.02,-0.12,0.02,0.12,0.97,
0.072,-0.05,-0.02,-0.12,0.02,0.11,0.97,
0.072,-0.05,-0.05,-0.09,0.02,0.11,0.97,
0.075,-0.05,-0.05,-0.09,0.02,0.11,0.97,
0.077,-0.05,-0.05,-0.09,0.02,0.11,0.97,
0.077,-0.04,-0.05,-0.06,0.02,0.11,0.97,
0.079,-0.04,-0.05,-0.06,0.02,0.12,0.97,
0.082,-0.04,-0.05,-0.06,0.02,0.12,0.97,
0.082,-0.02,-0.05,-0.03,0.02,0.12,0.97,
0.084,-0.02,-0.05,-0.03,0.03,0.11,0.97,
0.087,-0.02,-0.05,-0.03,0.03,0.11,0.97,
0.087,-0.02,-0.04,-0.04,0.03,0.11,0.97,
0.089,-0.02,-0.04,-0.04,0.03,0.11,0.97,
0.092,-0.02,-0.04,-0.04,0.03,0.11,0.97,
0.092,-0.00,-0.06,-0.05,0.03,0.11,0.97,
0.094,-0.00,-0.06,-0.05,0.03,0.11,0.97,
0.096,-0.00,-0.06,-0.05,0.03,0.11,0.96,
0.097,0.02,-0.08,-0.06,0.03,0.11,0.96,
0.099,0.02,-0.08,-0.06,0.03,0.11,0.96,
0.101,0.02,-0.08,-0.06,0.03,0.11,0.96,
0.102,0.04,-0.08,-0.08,0.03,0.11,0.96,
0.104,0.04,-0.08,-0.08,0.03,0.11,0.96,
0.106,0.04,-0.08,-0.08,0.03,0.11,0.96,
0.107,0.05,-0.10,-0.09,0.03,0.11,0.96,
0.115,0.05,-0.10,-0.09,0.03,0.11,0.96,
0.116,0.05,-0.10,-0.09,0.03,0.11,0.96,
0.116,0.03,-0.11,-0.11,0.03,0.11,0.96,
0.117,0.03,-0.11,-0.11,0.02,0.11,0.96,
0.117,0.03,-0.11,-0.11,0.02,0.11,0.96,
0.117,-0.01,-0.11,-0.13,0.02,0.11,0.96,
0.118,-0.01,-0.11,-0.13,0.02,0.11,0.96,
0.121,-0.01,-0.11,-0.13,0.02,0.11,0.95,
0.121,-0.03,-0.11,-0.15,0.02,0.11,0.95,
0.124,-0.03,-0.11,-0.15,0.03,0.11,0.95,
0.126,-0.03,-0.11,-0.15,0.02,0.11,0.95,
0.126,-0.03,-0.12,-0.17,0.02,0.11,0.95,
0.128,-0.03,-0.12,-0.17,0.02,0.11,0.95,
0.131,-0.03,-0.12,-0.17,0.02,0.11,0.95,
0.131,-0.03,-0.14,-0.18,0.02,0.11,0.95,
0.133,-0.03,-0.14,-0.18,0.02,0.11,0.95,
0.135,-0.03,-0.14,-0.18,0.02,0.11,0.96,
0.136,-0.03,-0.14,-0.19,0.02,0.11,0.96,
0.138,-0.03,-0.14,-0.19,0.02,0.11,0.96,
0.14,-0.03,-0.14,-0.19,0.02,0.11,0.96,
0.141,-0.05,-0.11,-0.16,0.02,0.11,0.96,
0.143,-0.05,-0.11,-0.16,0.02,0.11,0.96,
0.145,-0.05,-0.11,-0.16,0.02,0.11,0.96,
0.145,-0.07,-0.09,-0.14,0.02,0.11,0.96,
0.148,-0.07,-0.09,-0.14,0.02,0.11,0.96,
0.15,-0.07,-0.09,-0.14,0.02,0.11,0.97,
0.151,-0.05,-0.09,-0.11,0.02,0.11,0.97,
0.152,-0.05,-0.09,-0.11,0.02,0.11,0.97,
0.155,-0.05,-0.09,-0.11,0.02,0.11,0.97,
0.155,-0.07,-0.08,-0.07,0.02,0.11,0.97,
0.157,-0.07,-0.08,-0.07,0.02,0.11,0.97,
0.16,-0.07,-0.08,-0.07,0.02,0.11,0.98,
0.161,-0.07,-0.09,-0.01,0.02,0.11,0.98,
0.162,-0.07,-0.09,-0.01,0.02,0.10,0.98,
0.165,-0.07,-0.09,-0.01,0.02,0.10,0.98,
0.165,-0.06,-0.11,0.05,0.02,0.10,0.98,
0.167,-0.06,-0.11,0.05,0.02,0.11,0.98,
0.17,-0.06,-0.11,0.05,0.03,0.11,0.98,
0.17,-0.05,-0.13,0.09,0.03,0.11,0.98,
0.172,-0.05,-0.13,0.09,0.03,0.10,0.99,
0.175,-0.05,-0.13,0.09,0.03,0.10,0.99,
0.175,-0.03,-0.12,0.12,0.03,0.10,0.99,
0.177,-0.03,-0.12,0.12,0.03,0.10,0.99,
0.18,-0.03,-0.12,0.12,0.03,0.11,0.99,
0.18,-0.02,-0.13,0.15,0.03,0.11,0.99,
0.182,-0.02,-0.13,0.15,0.03,0.11,0.99,
0.185,-0.02,-0.13,0.15,0.03,0.11,0.99,
0.185,0.02,-0.12,0.18,0.03,0.11,0.99,
0.187,0.02,-0.12,0.18,0.03,0.11,0.99,
0.193,0.02,-0.12,0.18,0.03,0.11,1.00,
0.194,0.01,-0.10,0.21,0.03,0.11,1.00,
0.194,0.01,-0.10,0.21,0.03,0.11,0.99,
0.195,0.01,-0.10,0.21,0.03,0.11,0.99,
0.195,0.02,-0.08,0.22,0.03,0.11,0.99,
0.197,0.02,-0.08,0.22,0.03,0.11,0.99,
0.199,0.02,-0.08,0.22,0.03,0.11,0.99,
0.2,0.01,-0.11,0.20,0.03,0.11,0.99,
0.202,0.01,-0.11,0.20,0.03,0.11,0.99,
0.204,0.01,-0.11,0.20,0.03,0.11,0.99,
0.204,-0.02,-0.09,0.18,0.03,0.11,0.99,
0.207,-0.02,-0.09,0.18,0.03,0.10,0.98,
0.209,-0.02,-0.09,0.18,0.03,0.10,0.98,
0.209,0.00,-0.11,0.14,0.03,0.10,0.98,
0.211,0.00,-0.11,0.14,0.02,0.10,0.98,
0.214,0.00,-0.11,0.14,0.03,0.11,0.98,
0.214,-0.00,-0.14,0.10,0.03,0.11,0.98,
0.216,-0.00,-0.14,0.10,0.03,0.11,0.98,
0.219,-0.00,-0.14,0.10,0.03,0.11,0.98,
0.219,-0.03,-0.11,0.05,0.03,0.11,0.98,
0.221,-0.03,-0.11,0.05,0.03,0.11,0.97,
0.224,-0.03,-0.11,0.05,0.03,0.11,0.97,
0.225,-0.00,-0.10,0.03,0.03,0.11,0.97,
0.226,-0.00,-0.10,0.03,0.03,0.11,0.97,
0.229,-0.00,-0.10,0.03,0.03,0.11,0.97,
0.229,-0.01,-0.10,-0.01,0.03,0.11,0.97,
0.231,-0.01,-0.10,-0.01,0.03,0.11,0.97,
0.233,-0.01,-0.10,-0.01,0.03,0.11,0.97,
0.234,0.01,-0.07,-0.04,0.03,0.11,0.97,
0.236,0.01,-0.07,-0.04,0.03,0.11,0.97,
0.238,0.01,-0.07,-0.04,0.03,0.11,0.97,
0.239,-0.01,-0.06,-0.02,0.03,0.11,0.97,
0.241,-0.01,-0.06,-0.02,0.03,0.11,0.97,
0.244,-0.01,-0.06,-0.02,0.03,0.11,0.97,
0.244,-0.01,-0.05,-0.01,0.03,0.11,0.97,
0.246,-0.01,-0.05,-0.01,0.03,0.11,0.97,
0.248,-0.01,-0.05,-0.01,0.03,0.11,0.98,
0.248,-0.01,-0.04,-0.01,0.03,0.11,0.98,
0.25,-0.01,-0.04,-0.01,0.03,0.11,0.98,
0.253,-0.01,-0.04,-0.01,0.03,0.11,0.98,
0.253,-0.01,-0.04,0.02,0.03,0.11,0.98,
0.255,-0.01,-0.04,0.02,0.03,0.11,0.98,
0.258,-0.01,-0.04,0.02,0.03,0.11,0.98,
0.258,0.02,-0.03,0.03,0.03,0.11,0.98,
0.26,0.02,-0.03,0.03,0.03,0.11,0.98,
0.263,0.02,-0.03,0.03,0.03,0.11,0.98,
0.263,0.01,-0.04,0.06,0.03,0.11,0.98,
0.265,0.01,-0.04,0.06,0.03,0.11,0.98,
0.268,0.01,-0.04,0.06,0.03,0.11,0.99,
0.268,-0.00,-0.05,0.09,0.03,0.11,0.99,
0.27,-0.00,-0.05,0.09,0.03,0.11,0.99,
0.273,-0.00,-0.05,0.09,0.03,0.11,0.99,
0.274,0.00,-0.05,0.12,0.03,0.11,0.99,
0.275,0.00,-0.05,0.12,0.03,0.11,0.98,
0.278,0.00,-0.05,0.12,0.03,0.11,0.98,
0.278,0.02,-0.05,0.13,0.03,0.11,0.98,
0.28,0.02,-0.05,0.13,0.03,0.11,0.98,
0.282,0.02,-0.05,0.13,0.03,0.11,0.98,
0.283,0.03,-0.07,0.10,0.03,0.11,0.98,
0.285,0.03,-0.07,0.10,0.03,0.11,0.98,
0.288,0.06,-0.06,0.09,0.03,0.11,0.98,
0.288,0.06,-0.06,0.09,0.03,0.11,0.98,
0.29,0.06,-0.06,0.09,0.03,0.11,0.98,
0.292,0.06,-0.06,0.09,0.04,0.11,0.98,
0.293,0.06,-0.05,0.08,0.04,0.11,0.98,
0.295,0.06,-0.05,0.08,0.04,0.11,0.98,
0.297,0.06,-0.05,0.08,0.04,0.11,0.98,
0.297,0.07,-0.05,0.08,0.04,0.11,0.98,
0.299,0.07,-0.05,0.08,0.04,0.11,0.98,
0.302,0.07,-0.05,0.08,0.04,0.11,0.98,
0.302,0.09,-0.07,0.07,0.04,0.11,0.98,
0.304,0.09,-0.07,0.07,0.04,0.11,0.98,
0.307,0.09,-0.07,0.07,0.04,0.11,0.98,
0.307,0.10,-0.08,0.06,0.04,0.11,0.98,
0.309,0.10,-0.08,0.06,0.04,0.11,0.98,
0.312,0.10,-0.08,0.06,0.04,0.10,0.98,
0.312,0.11,-0.09,0.05,0.04,0.10,0.98,
0.314,0.11,-0.09,0.05,0.04,0.10,0.98,
0.317,0.11,-0.09,0.05,0.04,0.10,0.98,
0.317,0.12,-0.10,0.03,0.04,0.10,0.98,
0.319,0.12,-0.10,0.03,0.04,0.11,0.98,
0.322,0.12,-0.10,0.03,0.04,0.11,0.98,
0.322,0.12,-0.12,0.02,0.04,0.11,0.98,
0.327,0.12,-0.12,0.02,0.04,0.11,0.98,
0.327,0.12,-0.12,0.02,0.04,0.11,0.98,
0.327,0.14,-0.10,0.03,0.04,0.11,0.98,
0.329,0.14,-0.10,0.03,0.04,0.11,0.98,
0.332,0.14,-0.10,0.03,0.04,0.11,0.98,
0.332,0.12,-0.10,0.02,0.04,0.11,0.98,
0.334,0.12,-0.10,0.02,0.04,0.11,0.98,
0.336,0.12,-0.10,0.02,0.04,0.11,0.98,
0.336,0.11,-0.07,0.02,0.04,0.11,0.98,
0.339,0.11,-0.07,0.02,0.04,0.11,0.98,
0.341,0.11,-0.07,0.02,0.04,0.11,0.98,
0.341,0.09,-0.06,0.03,0.04,0.11,0.98,
0.343,0.09,-0.06,0.03,0.04,0.11,0.98,
0.346,0.08,-0.06,0.02,0.04,0.11,0.98,
0.346,0.08,-0.06,0.02,0.04,0.11,0.98,
0.348,0.08,-0.06,0.02,0.04,0.11,0.98,
0.351,0.08,-0.06,0.02,0.04,0.11,0.98,
0.351,0.10,-0.07,0.04,0.04,0.11,0.98,
0.353,0.10,-0.07,0.04,0.04,0.11,0.98,
0.356,0.09,-0.06,0.04,0.04,0.11,0.98,
0.357,0.09,-0.06,0.04,0.03,0.11,0.98,
0.358,0.09,-0.06,0.04,0.03,0.11,0.97,
0.361,0.09,-0.06,0.04,0.03,0.11,0.97,
0.361,0.08,-0.06,0.04,0.03,0.11,0.97,
0.363,0.08,-0.06,0.04,0.03,0.11,0.97,
0.366,0.08,-0.06,0.04,0.04,0.11,0.97,
0.366,0.06,-0.06,-0.01,0.04,0.11,0.97,
0.368,0.06,-0.06,-0.01,0.03,0.11,0.97,
0.371,0.06,-0.06,-0.01,0.03,0.11,0.97,
0.371,0.08,-0.05,-0.05,0.03,0.11,0.97,
0.373,0.08,-0.05,-0.05,0.04,0.11,0.97,
0.376,0.08,-0.05,-0.05,0.04,0.11,0.96,
0.376,0.06,-0.06,-0.06,0.04,0.11,0.96,
0.378,0.06,-0.06,-0.06,0.04,0.11,0.96,
0.38,0.06,-0.06,-0.06,0.04,0.11,0.96,
0.38,0.09,-0.04,-0.09,0.04,0.11,0.96,
0.383,0.09,-0.04,-0.09,0.04,0.11,0.96,
0.385,0.09,-0.04,-0.09,0.04,0.11,0.96,
0.386,0.13,-0.04,-0.10,0.04,0.11,0.96,
0.388,0.13,-0.04,-0.10,0.04,0.11,0.96,
0.39,0.13,-0.04,-0.10,0.04,0.11,0.96,
0.391,0.14,-0.05,-0.12,0.04,0.11,0.96,
0.392,0.14,-0.05,-0.12,0.04,0.11,0.96,
0.395,0.14,-0.05,-0.12,0.04,0.11,0.97,
0.395,0.14,-0.03,-0.10,0.04,0.11,0.97,
0.397,0.14,-0.03,-0.10,0.04,0.11,0.97,
0.4,0.14,-0.03,-0.10,0.04,0.11,0.97,
0.4,0.16,-0.03,-0.08,0.04,0.11,0.97,
0.402,0.16,-0.03,-0.08,0.05,0.11,0.97,
0.405,0.16,-0.03,-0.08,0.04,0.11,0.97,
0.405,0.15,-0.04,-0.07,0.04,0.11,0.97,
0.41,0.15,-0.04,-0.07,0.04,0.11,0.97,
0.41,0.15,-0.04,-0.07,0.05,0.11,0.97,
0.41,0.17,-0.05,-0.05,0.05,0.11,0.97,
0.412,0.17,-0.05,-0.05,0.04,0.11,0.98,
0.415,0.17,-0.05,-0.05,0.04,0.11,0.98,
0.415,0.16,-0.05,-0.00,0.04,0.11,0.98,
0.417,0.16,-0.05,-0.00,0.04,0.11,0.98,
0.42,0.16,-0.05,-0.00,0.04,0.10,0.98,
0.42,0.14,-0.07,0.04,0.04,0.10,0.98,
0.422,0.14,-0.07,0.04,0.04,0.10,0.99,
0.425,0.14,-0.07,0.04,0.04,0.10,0.99,
0.425,0.10,-0.08,0.08,0.04,0.10,0.99,
0.427,0.10,-0.08,0.08,0.04,0.10,0.99,
0.429,0.10,-0.08,0.08,0.04,0.10,0.99,
0.43,0.10,-0.12,0.12,0.04,0.10,0.99,
0.432,0.10,-0.12,0.12,0.04,0.10,0.99,
0.434,0.10,-0.12,0.12,0.04,0.10,0.99,
0.435,0.10,-0.16,0.14,0.04,0.10,0.99,
0.436,0.10,-0.16,0.14,0.04,0.09,0.99,
0.439,0.10,-0.16,0.14,0.04,0.09,0.99,
0.441,0.10,-0.16,0.16,0.04,0.09,0.99,
0.442,0.10,-0.16,0.16,0.04,0.09,0.99,
0.444,0.10,-0.16,0.16,0.04,0.09,0.99,
0.444,0.09,-0.20,0.15,0.04,0.09,0.99,
0.446,0.09,-0.20,0.15,0.04,0.09,0.99,
0.449,0.09,-0.20,0.15,0.04,0.09,0.98,
0.449,0.08,-0.19,0.14,0.04,0.09,0.98,
0.451,0.08,-0.19,0.14,0.04,0.09,0.98,
0.454,0.08,-0.19,0.14,0.04,0.09,0.98,
0.454,0.11,-0.21,0.12,0.04,0.09,0.98,
0.456,0.11,-0.21,0.12,0.04,0.09,0.98,
0.459,0.11,-0.21,0.12,0.05,0.09,0.98,
0.459,0.14,-0.21,0.09,0.05,0.09,0.98,
0.461,0.14,-0.21,0.09,0.05,0.09,0.98,
0.464,0.14,-0.21,0.09,0.05,0.09,0.98,
0.464,0.16,-0.20,0.05,0.05,0.09,0.98,
0.466,0.16,-0.20,0.05,0.05,0.09,0.97,
0.469,0.16,-0.20,0.05,0.06,0.09,0.97,
0.469,0.22,-0.21,0.02,0.06,0.09,0.97,
0.471,0.22,-0.21,0.02,0.06,0.09,0.97,
0.474,0.22,-0.21,0.02,0.06,0.09,0.97,
0.474,0.25,-0.22,-0.01,0.06,0.09,0.97,
0.476,0.25,-0.22,-0.01,0.06,0.09,0.97,
0.478,0.25,-0.22,-0.01,0.06,0.09,0.97,
0.478,0.28,-0.21,-0.03,0.06,0.09,0.97,
0.481,0.28,-0.21,-0.03,0.06,0.09,0.97,
0.483,0.28,-0.21,-0.03,0.07,0.09,0.96,
0.483,0.30,-0.21,-0.05,0.07,0.09,0.96,
0.485,0.30,-0.21,-0.05,0.07,0.09,0.97,
0.488,0.30,-0.21,-0.05,0.07,0.09,0.97,
0.489,0.34,-0.21,-0.09,0.07,0.09,0.97,
0.491,0.34,-0.21,-0.09,0.07,0.09,0.97,
0.494,0.34,-0.21,-0.09,0.07,0.09,0.96,
0.494,0.39,-0.21,-0.08,0.07,0.09,0.96,
0.495,0.39,-0.21,-0.08,0.07,0.09,0.96,
0.498,0.39,-0.21,-0.08,0.07,0.09,0.96,
0.498,0.40,-0.22,-0.09,0.07,0.09,0.96,
0.5,0.40,-0.22,-0.09,0.07,0.09,0.96,
0.503,0.40,-0.22,-0.09,0.08,0.09,0.96,
0.503,0.40,-0.22,-0.11,0.08,0.09,0.96,
0.505,0.40,-0.22,-0.11,0.08,0.09,0.96,
0.51,0.40,-0.22,-0.11,0.08,0.09,0.96,
0.51,0.42,-0.21,-0.14,0.08,0.09,0.96,
0.511,0.42,-0.21,-0.14,0.08,0.09,0.96,
0.513,0.42,-0.21,-0.14,0.08,0.08,0.96,
0.513,0.43,-0.23,-0.15,0.08,0.08,0.96,
0.515,0.43,-0.23,-0.15,0.08,0.08,0.96,
0.518,0.43,-0.23,-0.15,0.08,0.08,0.96,
0.518,0.44,-0.25,-0.13,0.08,0.08,0.96,
0.52,0.44,-0.25,-0.13,0.07,0.08,0.96,
0.523,0.44,-0.25,-0.13,0.07,0.08,0.96,
0.523,0.43,-0.27,-0.14,0.07,0.08,0.96,
0.525,0.43,-0.27,-0.14,0.07,0.08,0.96,
0.528,0.43,-0.27,-0.14,0.07,0.08,0.96,
0.528,0.40,-0.27,-0.13,0.07,0.08,0.96,
0.529,0.40,-0.27,-0.13,0.07,0.08,0.96,
0.532,0.40,-0.27,-0.13,0.06,0.08,0.96,
0.532,0.35,-0.25,-0.14,0.06,0.08,0.96,
0.534,0.35,-0.25,-0.14,0.06,0.08,0.96,
0.537,0.35,-0.25,-0.14,0.06,0.08,0.96,
0.537,0.32,-0.27,-0.15,0.06,0.08,0.96,
0.539,0.32,-0.27,-0.15,0.06,0.08,0.96,
0.542,0.32,-0.27,-0.15,0.06,0.08,0.96,
0.542,0.29,-0.28,-0.16,0.06,0.08,0.96,
0.545,0.29,-0.28,-0.16,0.06,0.08,0.96,
0.547,0.29,-0.28,-0.16,0.06,0.08,0.95,
0.547,0.30,-0.30,-0.17,0.06,0.08,0.95,
0.549,0.30,-0.30,-0.17,0.06,0.07,0.95,
0.552,0.30,-0.30,-0.17,0.06,0.07,0.95,
0.552,0.29,-0.31,-0.17,0.06,0.07,0.95,
0.554,0.29,-0.31,-0.17,0.07,0.07,0.95,
0.557,0.29,-0.31,-0.17,0.07,0.07,0.95,
0.557,0.29,-0.32,-0.18,0.07,0.07,0.95,
0.559,0.29,-0.32,-0.18,0.07,0.07,0.95,
0.562,0.29,-0.32,-0.18,0.06,0.07,0.95,
0.562,0.32,-0.32,-0.20,0.06,0.07,0.95,
0.564,0.32,-0.32,-0.20,0.07,0.07,0.95,
0.566,0.32,-0.32,-0.20,0.06,0.07,0.95,
0.566,0.30,-0.31,-0.20,0.06,0.07,0.95,
0.569,0.30,-0.31,-0.20,0.06,0.07,0.95,
0.572,0.30,-0.31,-0.20,0.07,0.07,0.95,
0.572,0.30,-0.31,-0.22,0.07,0.07,0.95,
0.575,0.30,-0.31,-0.22,0.07,0.07,0.95,
0.576,0.30,-0.31,-0.22,0.06,0.07,0.94,
0.577,0.31,-0.32,-0.24,0.06,0.07,0.94,
0.579,0.31,-0.32,-0.24,0.06,0.07,0.94,
0.581,0.31,-0.32,-0.24,0.07,0.07,0.94,
0.581,0.30,-0.33,-0.26,0.07,0.07,0.94,
0.583,0.30,-0.33,-0.26,0.07,0.07,0.94,
0.586,0.30,-0.33,-0.26,0.06,0.07,0.94,
0.586,0.31,-0.34,-0.27,0.06,0.07,0.94,
0.588,0.31,-0.34,-0.27,0.06,0.07,0.94,
0.591,0.31,-0.34,-0.27,0.06,0.07,0.94,
0.592,0.29,-0.35,-0.29,0.06,0.07,0.94,
0.594,0.29,-0.35,-0.29,0.06,0.07,0.94,
0.596,0.29,-0.35,-0.29,0.06,0.07,0.94,
0.596,0.24,-0.35,-0.29,0.06,0.07,0.94,
0.598,0.24,-0.35,-0.29,0.05,0.06,0.94,
0.601,0.24,-0.35,-0.29,0.05,0.06,0.94,
0.601,0.22,-0.35,-0.30,0.05,0.06,0.94,
0.604,0.22,-0.35,-0.30,0.05,0.06,0.94,
0.612,0.17,-0.38,-0.29,0.05,0.06,0.94,
0.613,0.17,-0.38,-0.29,0.05,0.06,0.94,
0.613,0.17,-0.38,-0.29,0.05,0.06,0.94,
0.613,0.17,-0.38,-0.29,0.05,0.06,0.94,
0.613,0.13,-0.42,-0.27,0.05,0.06,0.94,
0.614,0.13,-0.42,-0.27,0.05,0.05,0.94,
0.615,0.13,-0.42,-0.27,0.05,0.05,0.94,
0.616,0.11,-0.44,-0.27,0.05,0.05,0.94,
0.618,0.11,-0.44,-0.27,0.05,0.05,0.94,
0.62,0.11,-0.44,-0.27,0.05,0.05,0.94,
0.621,0.11,-0.47,-0.29,0.05,0.05,0.94,
0.623,0.11,-0.47,-0.29,0.05,0.05,0.94,
0.626,0.11,-0.47,-0.29,0.05,0.05,0.94,
0.626,0.09,-0.50,-0.27,0.05,0.05,0.94,
0.628,0.09,-0.50,-0.27,0.05,0.05,0.94,
0.63,0.09,-0.50,-0.27,0.05,0.04,0.94,
0.631,0.09,-0.53,-0.25,0.05,0.04,0.94,
0.632,0.09,-0.53,-0.25,0.05,0.04,0.94,
0.635,0.09,-0.53,-0.25,0.05,0.04,0.95,
0.635,0.09,-0.53,-0.25,0.05,0.04,0.95,
0.637,0.09,-0.53,-0.25,0.05,0.04,0.94,
0.64,0.09,-0.53,-0.25,0.05,0.04,0.95,
0.64,0.09,-0.54,-0.24,0.05,0.04,0.95,
0.642,0.09,-0.54,-0.24,0.05,0.04,0.95,
0.645,0.09,-0.54,-0.24,0.05,0.04,0.95,
0.645,0.10,-0.53,-0.24,0.05,0.04,0.95,
0.648,0.10,-0.53,-0.24,0.05,0.04,0.95,
0.65,0.10,-0.53,-0.24,0.05,0.05,0.95,
0.65,0.09,-0.52,-0.22,0.05,0.05,0.95,
0.652,0.09,-0.52,-0.22,0.05,0.05,0.95,
0.655,0.09,-0.52,-0.22,0.05,0.05,0.95,
0.655,0.08,-0.49,-0.22,0.05,0.05,0.95,
0.657,0.08,-0.49,-0.22,0.05,0.05,0.95,
0.66,0.08,-0.49,-0.22,0.05,0.06,0.95,
0.66,0.10,-0.43,-0.20,0.05,0.06,0.95,
0.662,0.10,-0.43,-0.20,0.05,0.06,0.95,
0.665,0.10,-0.43,-0.20,0.05,0.06,0.96,
0.665,0.13,-0.37,-0.17,0.05,0.06,0.96,
0.667,0.13,-0.37,-0.17,0.05,0.06,0.96,
0.669,0.13,-0.37,-0.17,0.06,0.06,0.96,
0.67,0.13,-0.34,-0.12,0.06,0.06,0.96,
0.672,0.13,-0.34,-0.12,0.06,0.06,0.96,
0.674,0.13,-0.34,-0.12,0.06,0.07,0.97,
0.675,0.15,-0.29,-0.08,0.06,0.07,0.97,
0.677,0.15,-0.29,-0.08,0.06,0.07,0.97,
0.679,0.15,-0.29,-0.08,0.06,0.07,0.97,
0.68,0.17,-0.27,-0.04,0.06,0.07,0.97,
0.682,0.17,-0.27,-0.04,0.06,0.07,0.97,
0.684,0.17,-0.27,-0.04,0.06,0.07,0.98,
0.684,0.17,-0.24,0.02,0.06,0.07,0.98,
0.686,0.17,-0.24,0.02,0.06,0.07,0.97,
0.69,0.17,-0.24,0.02,0.06,0.07,0.97,
0.691,0.15,-0.24,0.07,0.06,0.07,0.97,
0.692,0.15,-0.24,0.07,0.06,0.07,0.97,
0.694,0.15,-0.24,0.07,0.06,0.07,0.97,
0.694,0.16,-0.23,0.05,0.06,0.07,0.97,
0.696,0.16,-0.23,0.05,0.06,0.07,0.97,
0.699,0.16,-0.23,0.05,0.06,0.07,0.97,
0.699,0.17,-0.23,0.06,0.06,0.07,0.97,
0.701,0.17,-0.23,0.06,0.06,0.07,0.97,
0.704,0.18,-0.22,0.04,0.06,0.07,0.97,
0.704,0.18,-0.22,0.04,0.06,0.07,0.97,
0.706,0.18,-0.22,0.04,0.07,0.07,0.97,
0.709,0.18,-0.22,0.04,0.07,0.07,0.97,
0.709,0.20,-0.22,0.06,0.07,0.07,0.97,
0.711,0.20,-0.22,0.06,0.07,0.07,0.97,
0.713,0.20,-0.22,0.06,0.07,0.07,0.97,
0.714,0.21,-0.21,0.05,0.07,0.07,0.97,
0.716,0.21,-0.21,0.05,0.07,0.07,0.97,
0.718,0.21,-0.21,0.05,0.07,0.07,0.97,
0.719,0.21,-0.20,0.02,0.07,0.07,0.97,
0.721,0.21,-0.20,0.02,0.07,0.07,0.96,
0.729,0.21,-0.20,0.02,0.07,0.07,0.96,
0.729,0.21,-0.20,-0.02,0.07,0.07,0.96,
0.729,0.21,-0.20,-0.02,0.07,0.07,0.96,
0.73,0.21,-0.20,-0.02,0.07,0.07,0.96,
0.73,0.24,-0.19,-0.04,0.07,0.07,0.96,
0.731,0.24,-0.19,-0.04,0.07,0.07,0.96,
0.733,0.24,-0.19,-0.04,0.07,0.07,0.96,
0.734,0.23,-0.17,-0.04,0.07,0.07,0.96,
0.735,0.23,-0.17,-0.04,0.07,0.07,0.97,
0.738,0.23,-0.17,-0.04,0.07,0.07,0.96,
0.738,0.22,-0.18,-0.05,0.07,0.07,0.96,
0.741,0.22,-0.18,-0.05,0.07,0.07,0.96,
0.743,0.22,-0.18,-0.05,0.07,0.07,0.96,
0.743,0.21,-0.17,-0.03,0.07,0.07,0.96,
0.745,0.21,-0.17,-0.03,0.07,0.07,0.96,
0.748,0.21,-0.17,-0.03,0.06,0.07,0.96,
0.748,0.19,-0.19,-0.05,0.06,0.07,0.96,
0.75,0.19,-0.19,-0.05,0.06,0.07,0.96,
0.753,0.19,-0.19,-0.05,0.06,0.07,0.96,
0.753,0.17,-0.19,-0.05,0.06,0.07,0.96,
0.755,0.17,-0.19,-0.05,0.06,0.07,0.96,
0.758,0.17,-0.19,-0.05,0.06,0.07,0.96,
0.758,0.13,-0.18,-0.06,0.06,0.07,0.96,
0.76,0.13,-0.18,-0.06,0.06,0.07,0.96,
0.762,0.13,-0.18,-0.06,0.05,0.07,0.96,
0.763,0.10,-0.17,-0.08,0.05,0.07,0.96,
0.765,0.10,-0.17,-0.08,0.05,0.07,0.96,
0.768,0.10,-0.17,-0.08,0.04,0.07,0.96,
0.768,0.05,-0.17,-0.08,0.04,0.07,0.96,
0.769,0.05,-0.17,-0.08,0.04,0.07,0.96,
0.772,0.05,-0.17,-0.08,0.04,0.07,0.96,
0.773,-0.04,-0.18,-0.08,0.04,0.07,0.96,
0.774,-0.04,-0.18,-0.08,0.03,0.07,0.96,
0.777,-0.10,-0.18,-0.06,0.03,0.07,0.96,
0.778,-0.10,-0.18,-0.06,0.03,0.07,0.96,
0.779,-0.10,-0.18,-0.06,0.03,0.07,0.96,
0.782,-0.10,-0.18,-0.06,0.03,0.07,0.97,
0.782,-0.17,-0.17,-0.04,0.03,0.07,0.97,
0.785,-0.17,-0.17,-0.04,0.03,0.07,0.97,
0.787,-0.17,-0.17,-0.04,0.03,0.07,0.97,
0.787,-0.20,-0.14,-0.03,0.03,0.07,0.97,
0.789,-0.20,-0.14,-0.03,0.03,0.07,0.97,
0.792,-0.20,-0.14,-0.03,0.03,0.08,0.97,
0.792,-0.22,-0.12,0.01,0.03,0.08,0.97,
0.794,-0.22,-0.12,0.01,0.03,0.08,0.97,
0.797,-0.22,-0.12,0.01,0.03,0.08,0.97,
0.797,-0.22,-0.09,0.02,0.03,0.08,0.97,
0.799,-0.22,-0.09,0.02,0.03,0.08,0.97,
0.802,-0.22,-0.09,0.02,0.03,0.09,0.98,
0.802,-0.21,-0.05,0.05,0.03,0.09,0.98,
0.804,-0.21,-0.05,0.05,0.03,0.09,0.98,
0.807,-0.21,-0.05,0.05,0.04,0.09,0.98,
0.807,-0.19,0.00,0.08,0.04,0.09,0.98,
0.809,-0.19,0.00,0.08,0.04,0.09,0.98,
0.812,-0.19,0.00,0.08,0.04,0.09,0.98,
0.812,-0.16,0.05,0.10,0.04,0.09,0.98,
0.814,-0.16,0.05,0.10,0.04,0.09,0.98,
0.816,-0.16,0.05,0.10,0.05,0.10,0.97,
0.817,-0.10,0.08,0.09,0.05,0.10,0.97,
0.819,-0.10,0.08,0.09,0.05,0.10,0.98,
0.821,-0.10,0.08,0.09,0.05,0.10,0.98,
0.821,-0.07,0.11,0.07,0.05,0.10,0.98,
0.83,-0.07,0.11,0.07,0.05,0.10,0.98,
0.83,-0.07,0.11,0.07,0.06,0.10,0.98,
0.83,-0.01,0.14,0.08,0.06,0.10,0.98,
0.83,-0.01,0.14,0.08,0.06,0.10,0.98,
0.831,-0.01,0.14,0.08,0.06,0.10,0.98,
0.831,0.03,0.16,0.09,0.06,0.10,0.98,
0.833,0.03,0.16,0.09,0.06,0.10,0.98,
0.836,0.03,0.16,0.09,0.06,0.10,0.97,
0.836,0.05,0.17,0.08,0.06,0.10,0.97,
0.838,0.05,0.17,0.08,0.06,0.10,0.97,
0.841,0.05,0.17,0.08,0.06,0.10,0.97,
0.841,0.06,0.19,0.07,0.06,0.10,0.97,
0.844,0.06,0.19,0.07,0.06,0.10,0.97,
0.846,0.06,0.19,0.07,0.06,0.10,0.97,
0.846,0.06,0.18,0.05,0.06,0.10,0.97,
0.848,0.06,0.18,0.05,0.06,0.10,0.97,
0.85,0.06,0.18,0.05,0.05,0.10,0.97,
0.851,0.04,0.15,0.04,0.05,0.10,0.97,
0.853,0.04,0.15,0.04,0.05,0.10,0.97,
0.856,0.04,0.15,0.04,0.05,0.09,0.97,
0.856,-0.00,0.13,0.02,0.05,0.09,0.97,
0.858,-0.00,0.13,0.02,0.05,0.09,0.97,
0.861,-0.00,0.13,0.02,0.05,0.09,0.97,
0.861,-0.04,0.11,0.01,0.05,0.09,0.97,
0.863,-0.04,0.11,0.01,0.04,0.09,0.97,
0.866,-0.04,0.11,0.01,0.04,0.09,0.97,
0.866,-0.08,0.10,-0.02,0.04,0.09,0.97,
0.868,-0.08,0.10,-0.02,0.04,0.09,0.97,
0.871,-0.08,0.10,-0.02,0.04,0.09,0.97,
0.871,-0.13,0.10,-0.01,0.04,0.09,0.97,
0.873,-0.13,0.10,-0.01,0.03,0.09,0.97,
0.875,-0.13,0.10,-0.01,0.03,0.09,0.97,
0.876,-0.19,0.09,0.00,0.03,0.09,0.97,
0.877,-0.19,0.09,0.00,0.03,0.09,0.97,
0.88,-0.19,0.09,0.00,0.03,0.09,0.97,
0.88,-0.23,0.10,0.00,0.03,0.09,0.97,
0.882,-0.23,0.10,0.00,0.03,0.09,0.98,
0.885,-0.23,0.10,0.00,0.03,0.09,0.98,
0.885,-0.26,0.09,0.04,0.03,0.09,0.98,
0.888,-0.26,0.09,0.04,0.03,0.09,0.99,
0.89,-0.26,0.09,0.04,0.03,0.09,0.99,
0.89,-0.26,0.07,0.11,0.03,0.09,0.99,
0.892,-0.26,0.07,0.11,0.03,0.09,0.99,
0.895,-0.26,0.07,0.11,0.03,0.09,0.99,
0.895,-0.29,0.08,0.17,0.03,0.09,0.99,
0.897,-0.29,0.08,0.17,0.03,0.09,1.00,
0.9,-0.29,0.08,0.17,0.03,0.09,1.00,
0.9,-0.29,0.06,0.22,0.03,0.09,1.00,
0.902,-0.29,0.06,0.22,0.03,0.09,1.00,
0.905,-0.29,0.06,0.22,0.03,0.09,1.00,
0.905,-0.26,0.07,0.28,0.03,0.09,1.00,
0.913,-0.26,0.07,0.28,0.04,0.09,1.01,
0.913,-0.26,0.07,0.28,0.04,0.09,1.01,
0.913,-0.23,0.11,0.33,0.04,0.09,1.01,
0.914,-0.23,0.11,0.33,0.04,0.10,1.00,
0.914,-0.23,0.11,0.33,0.04,0.10,1.00,
0.914,-0.18,0.14,0.35,0.04,0.10,1.00,
0.916,-0.18,0.14,0.35,0.05,0.10,1.00,
0.919,-0.18,0.14,0.35,0.05,0.10,1.00,
0.919,-0.14,0.18,0.32,0.05,0.10,1.00,
0.921,-0.14,0.18,0.32,0.05,0.10,1.00,
0.924,-0.14,0.18,0.32,0.06,0.10,0.99,
0.925,-0.09,0.21,0.28,0.06,0.10,0.99,
0.926,-0.09,0.21,0.28,0.06,0.10,0.99,
0.929,-0.09,0.21,0.28,0.06,0.10,0.99,
0.93,-0.04,0.21,0.24,0.06,0.10,0.99,
0.931,-0.04,0.21,0.24,0.06,0.10,0.99,
0.934,-0.04,0.21,0.24,0.06,0.11,0.99,
0.934,-0.02,0.23,0.20,0.06,0.11,0.99,
0.936,-0.02,0.23,0.20,0.06,0.11,0.98,
0.939,-0.02,0.23,0.20,0.06,0.11,0.98,
0.94,0.01,0.25,0.15,0.06,0.11,0.98,
0.941,0.01,0.25,0.15,0.06,0.11,0.98,
0.944,0.01,0.25,0.15,0.07,0.11,0.98,
0.944,0.03,0.27,0.11,0.07,0.11,0.98,
0.946,0.03,0.27,0.11,0.07,0.10,0.98,
0.948,0.03,0.27,0.11,0.07,0.11,0.98,
0.948,0.04,0.26,0.09,0.07,0.11,0.98,
0.951,0.04,0.26,0.09,0.07,0.10,0.98,
0.953,0.04,0.26,0.09,0.06,0.10,0.97,
0.954,0.05,0.26,0.08,0.06,0.10,0.97,
0.956,0.05,0.26,0.08,0.06,0.10,0.98,
0.958,0.05,0.26,0.08,0.06,0.10,0.98,
0.958,0.03,0.26,0.04,0.06,0.10,0.98,
0.96,0.03,0.26,0.04,0.06,0.10,0.98,
0.963,0.03,0.26,0.04,0.06,0.10,0.98,
0.963,0.02,0.24,0.06,0.06,0.10,0.98,
0.965,0.02,0.24,0.06,0.06,0.10,0.98,
0.968,0.02,0.24,0.06,0.06,0.10,0.98,
0.968,0.02,0.22,0.06,0.06,0.10,0.98,
0.97,0.02,0.22,0.06,0.06,0.10,0.98,
0.973,0.02,0.22,0.06,0.06,0.10,0.98,
0.974,0.01,0.19,0.07,0.06,0.10,0.98,
0.975,0.01,0.19,0.07,0.06,0.10,0.99,
0.978,0.01,0.19,0.07,0.06,0.10,0.98,
0.978,-0.01,0.20,0.12,0.06,0.10,0.98,
0.98,-0.01,0.20,0.12,0.06,0.10,0.98,
0.983,-0.01,0.20,0.12,0.06,0.10,0.99,
0.983,-0.03,0.19,0.13,0.06,0.10,0.99,
0.985,-0.03,0.19,0.13,0.05,0.10,0.99,
0.988,-0.03,0.19,0.13,0.05,0.10,0.99,
0.988,-0.07,0.21,0.14,0.05,0.10,0.99,
0.99,-0.07,0.21,0.14,0.05,0.10,0.98,
0.993,-0.07,0.21,0.14,0.05,0.11,0.98,
0.993,-0.11,0.25,0.13,0.05,0.11,0.98,
0.995,-0.11,0.25,0.13,0.05,0.11,0.98,
0.997,-0.11,0.25,0.13,0.04,0.11,0.98,
0.998,-0.16,0.28,0.11,0.04,0.11,0.98,
1.0,-0.16,0.28,0.11,0.04,0.11,0.98,
1.002,-0.16,0.28,0.11,0.04,0.11,0.98,
1.003,-0.17,0.31,0.08,0.04,0.11,0.98,
1.004,-0.17,0.31,0.08,0.04,0.11,0.97,
1.012,-0.17,0.31,0.08,0.04,0.11,0.97,
1.012,-0.19,0.34,0.04,0.04,0.11,0.97,
1.012,-0.19,0.34,0.04,0.04,0.12,0.97,
1.013,-0.19,0.34,0.04,0.05,0.12,0.97,
1.013,-0.19,0.37,-0.01,0.05,0.12,0.97,
1.015,-0.19,0.37,-0.01,0.04,0.12,0.97,
1.017,-0.19,0.37,-0.01,0.05,0.12,0.97,
1.017,-0.17,0.40,-0.01,0.05,0.12,0.97,
1.019,-0.17,0.40,-0.01,0.05,0.12,0.97,
1.023,-0.17,0.40,-0.01,0.04,0.12,0.97,
1.023,-0.17,0.41,-0.04,0.04,0.12,0.97,
1.025,-0.17,0.41,-0.04,0.04,0.12,0.97,
1.027,-0.17,0.41,-0.04,0.04,0.12,0.96,
1.027,-0.18,0.44,-0.05,0.04,0.12,0.96,
1.029,-0.18,0.44,-0.05,0.04,0.12,0.96,
1.032,-0.18,0.44,-0.05,0.04,0.12,0.96,
1.032,-0.18,0.45,-0.06,0.04,0.12,0.96,
1.034,-0.18,0.45,-0.06,0.04,0.12,0.97,
1.036,-0.18,0.45,-0.06,0.04,0.12,0.97,
1.037,-0.19,0.48,-0.07,0.04,0.12,0.97,
1.039,-0.19,0.48,-0.07,0.04,0.12,0.97,
1.042,-0.19,0.48,-0.07,0.04,0.12,0.97,
1.042,-0.18,0.48,-0.06,0.04,0.12,0.97,
1.044,-0.18,0.48,-0.06,0.04,0.12,0.97,
1.046,-0.18,0.48,-0.06,0.04,0.12,0.97,
1.046,-0.21,0.49,-0.02,0.04,0.12,0.97,
1.048,-0.21,0.49,-0.02,0.04,0.12,0.98,
1.051,-0.21,0.49,-0.02,0.04,0.12,0.98,
1.052,-0.26,0.49,0.01,0.04,0.12,0.98,
1.054,-0.26,0.49,0.01,0.04,0.12,0.98,
1.056,-0.26,0.49,0.01,0.04,0.12,0.98,
1.057,-0.26,0.45,0.03,0.04,0.12,0.98,
1.059,-0.26,0.45,0.03,0.04,0.11,0.99,
1.061,-0.26,0.45,0.03,0.04,0.11,0.99,
1.062,-0.26,0.42,0.09,0.04,0.11,0.99,
1.063,-0.26,0.42,0.09,0.04,0.11,0.99,
1.066,-0.26,0.42,0.09,0.04,0.11,1.00,
1.066,-0.28,0.39,0.17,0.04,0.11,1.00,
1.068,-0.28,0.39,0.17,0.03,0.11,1.00,
1.071,-0.28,0.39,0.17,0.03,0.10,1.01,
1.071,-0.27,0.36,0.24,0.03,0.10,1.01,
1.073,-0.27,0.36,0.24,0.04,0.10,1.01,
1.076,-0.27,0.36,0.24,0.04,0.10,1.01,
1.076,-0.31,0.32,0.31,0.04,0.10,1.01,
1.078,-0.31,0.32,0.31,0.04,0.09,1.01,
1.081,-0.31,0.32,0.31,0.04,0.09,1.01,
1.081,-0.29,0.26,0.35,0.04,0.09,1.01,
1.083,-0.29,0.26,0.35,0.03,0.09,1.01,
1.085,-0.29,0.26,0.35,0.03,0.09,1.01,
1.086,-0.29,0.21,0.37,0.03,0.09,1.01,
1.088,-0.29,0.21,0.37,0.03,0.09,1.01,
1.091,-0.29,0.21,0.37,0.03,0.09,1.01,
1.091,-0.32,0.20,0.33,0.03,0.09,1.01,
1.093,-0.32,0.20,0.33,0.03,0.09,1.00,
1.096,-0.32,0.20,0.33,0.02,0.08,1.00,
1.096,-0.36,0.18,0.32,0.02,0.08,1.00,
1.098,-0.36,0.18,0.32,0.02,0.08,1.00,
1.101,-0.36,0.18,0.32,0.02,0.09,0.99,
1.101,-0.40,0.16,0.28,0.02,0.09,0.99,
1.103,-0.40,0.16,0.28,0.02,0.08,0.99,
1.109,-0.40,0.16,0.28,0.02,0.08,0.99,
1.109,-0.44,0.15,0.21,0.02,0.08,0.99,
1.109,-0.44,0.15,0.21,0.01,0.08,0.99,
1.11,-0.44,0.15,0.21,0.01,0.08,0.98,
1.111,-0.46,0.14,0.15,0.01,0.08,0.98,
1.112,-0.46,0.14,0.15,0.01,0.08,0.98,
1.115,-0.46,0.14,0.15,0.01,0.08,0.98,
1.115,-0.48,0.11,0.08,0.01,0.08,0.98,
1.117,-0.48,0.11,0.08,0.01,0.08,0.97,
1.12,-0.48,0.11,0.08,0.01,0.08,0.97,
1.12,-0.51,0.12,0.03,0.01,0.08,0.97,
1.122,-0.51,0.12,0.03,0.01,0.08,0.97,
1.125,-0.51,0.12,0.03,0.01,0.08,0.96,
1.125,-0.52,0.12,-0.04,0.01,0.08,0.96,
1.127,-0.52,0.12,-0.04,0.01,0.08,0.96,
1.13,-0.52,0.12,-0.04,0.01,0.08,0.96,
1.13,-0.52,0.13,-0.10,0.01,0.08,0.96,
1.132,-0.52,0.13,-0.10,0.01,0.08,0.96,
1.134,-0.52,0.13,-0.10,0.01,0.08,0.96,
1.135,-0.49,0.14,-0.13,0.01,0.08,0.96,
1.137,-0.49,0.14,-0.13,0.01,0.08,0.96,
1.139,-0.49,0.14,-0.13,0.01,0.09,0.97,
1.14,-0.46,0.16,-0.14,0.01,0.09,0.97,
1.142,-0.46,0.16,-0.14,0.02,0.09,0.97,
1.144,-0.46,0.16,-0.14,0.02,0.09,0.97,
1.145,-0.45,0.19,-0.10,0.02,0.09,0.97,
1.146,-0.45,0.19,-0.10,0.02,0.09,0.97,
1.149,-0.45,0.19,-0.10,0.03,0.09,0.98,
1.149,-0.40,0.22,-0.05,0.03,0.09,0.98,
1.152,-0.40,0.22,-0.05,0.03,0.09,0.98,
1.154,-0.40,0.22,-0.05,0.03,0.09,0.98,
1.154,-0.35,0.24,0.00,0.03,0.09,0.98,
1.156,-0.35,0.24,0.00,0.03,0.09,0.99,
1.159,-0.35,0.24,0.00,0.03,0.09,0.99,
1.159,-0.32,0.25,0.07,0.03,0.09,0.99,
1.161,-0.32,0.25,0.07,0.03,0.09,0.99,
1.164,-0.32,0.25,0.07,0.03,0.09,0.99,
1.164,-0.30,0.28,0.12,0.03,0.09,0.99,
1.166,-0.30,0.28,0.12,0.03,0.09,1.00,
1.169,-0.30,0.28,0.12,0.03,0.09,1.00,
1.169,-0.28,0.27,0.16,0.03,0.09,1.00,
1.171,-0.28,0.27,0.16,0.03,0.10,1.00,
1.174,-0.28,0.27,0.16,0.03,0.10,0.99,
1.174,-0.27,0.30,0.19,0.03,0.10,0.99,
1.176,-0.27,0.30,0.19,0.03,0.10,0.99,
1.179,-0.27,0.30,0.19,0.03,0.10,0.99,
1.179,-0.28,0.34,0.19,0.03,0.10,0.99,
1.181,-0.28,0.34,0.19,0.02,0.10,0.99,
1.183,-0.28,0.34,0.19,0.02,0.10,0.99,
1.184,-0.30,0.37,0.17,0.02,0.10,0.99,
1.186,-0.30,0.37,0.17,0.02,0.10,0.99,
1.189,-0.30,0.37,0.17,0.02,0.10,0.98,
1.19,-0.35,0.37,0.12,0.02,0.10,0.98,
1.191,-0.35,0.37,0.12,0.02,0.10,0.98,
1.193,-0.35,0.37,0.12,0.01,0.11,0.97,
1.194,-0.38,0.40,0.05,0.01,0.11,0.97,
1.196,-0.38,0.40,0.05,0.01,0.11,0.97,
1.198,-0.38,0.40,0.05,0.01,0.11,0.96,
1.199,-0.41,0.42,-0.02,0.01,0.11,0.96,
1.2,-0.41,0.42,-0.02,0.02,0.10,0.96,
1.203,-0.41,0.42,-0.02,0.02,0.10,0.96,
1.203,-0.40,0.45,-0.09,0.02,0.10,0.96,
1.205,-0.40,0.45,-0.09,0.02,0.10,0.96,
1.208,-0.40,0.45,-0.09,0.02,0.11,0.96,
1.208,-0.39,0.43,-0.17,0.02,0.11,0.96,
1.21,-0.39,0.43,-0.17,0.02,0.11,0.96,
1.213,-0.39,0.43,-0.17,0.02,0.11,0.96,
1.213,-0.38,0.44,-0.20,0.02,0.11,0.96,
1.215,-0.38,0.44,-0.20,0.02,0.11,0.96,
1.218,-0.38,0.44,-0.20,0.02,0.11,0.96,
1.218,-0.35,0.45,-0.20,0.02,0.11,0.96,
1.22,-0.35,0.45,-0.20,0.02,0.11,0.96,
1.228,-0.35,0.45,-0.20,0.03,0.12,0.96,
1.228,-0.31,0.50,-0.20,0.03,0.12,0.96,
1.229,-0.31,0.50,-0.20,0.03,0.12,0.97,
1.229,-0.31,0.50,-0.20,0.03,0.12,0.97,
1.229,-0.26,0.54,-0.15,0.03,0.12,0.97,
1.231,-0.26,0.54,-0.15,0.04,0.12,0.97,
1.233,-0.26,0.54,-0.15,0.04,0.13,0.97,
1.233,-0.21,0.59,-0.08,0.04,0.13,0.97,
1.235,-0.21,0.59,-0.08,0.04,0.13,0.98,
1.238,-0.21,0.59,-0.08,0.04,0.13,0.98,
1.238,-0.16,0.66,-0.05,0.04,0.13,0.98,
1.246,-0.16,0.66,-0.05,0.05,0.13,0.98,
1.246,-0.16,0.66,-0.05,0.05,0.14,0.98,
1.247,-0.11,0.68,0.01,0.05,0.14,0.98,
1.247,-0.11,0.68,0.01,0.05,0.14,0.98,
1.248,-0.11,0.68,0.01,0.06,0.14,0.99,
1.248,-0.05,0.77,0.04,0.06,0.14,0.99,
1.249,-0.05,0.77,0.04,0.06,0.15,0.99,
1.252,-0.05,0.77,0.04,0.06,0.15,0.99,
1.252,0.01,0.82,0.08,0.06,0.15,0.99,
1.254,0.01,0.82,0.08,0.06,0.15,0.99,
1.257,0.01,0.82,0.08,0.06,0.15,0.99,
1.258,0.06,0.88,0.14,0.06,0.15,0.99,
1.259,0.06,0.88,0.14,0.06,0.16,0.99,
1.262,0.10,0.94,0.14,0.06,0.16,0.99,
1.262,0.10,0.94,0.14,0.06,0.16,0.99,
1.265,0.10,0.94,0.14,0.06,0.16,0.99,
1.267,0.10,0.94,0.14,0.06,0.16,0.99,
1.267,0.09,0.98,0.17,0.06,0.16,0.99,
1.269,0.09,0.98,0.17,0.06,0.16,0.99,
1.272,0.09,0.98,0.17,0.06,0.16,0.99,
1.273,0.06,1.00,0.16,0.06,0.16,0.99,
1.274,0.06,1.00,0.16,0.05,0.16,0.99,
1.277,0.06,1.00,0.16,0.05,0.16,0.99,
1.278,0.03,1.01,0.14,0.05,0.16,0.99,
1.279,0.03,1.01,0.14,0.05,0.16,0.99,
1.282,0.03,1.01,0.14,0.05,0.16,0.99,
1.282,-0.00,1.02,0.12,0.05,0.16,0.99,
1.284,-0.00,1.02,0.12,0.05,0.16,0.99,
1.286,-0.00,1.02,0.12,0.04,0.16,0.99,
1.287,-0.04,1.00,0.12,0.04,0.16,0.99,
1.289,-0.04,1.00,0.12,0.04,0.15,0.99,
1.291,-0.04,1.00,0.12,0.04,0.15,0.99,
1.292,-0.08,0.97,0.13,0.04,0.15,0.99,
1.294,-0.08,0.97,0.13,0.04,0.15,0.99,
1.296,-0.08,0.97,0.13,0.04,0.15,0.99,
1.296,-0.13,0.94,0.12,0.04,0.15,0.99,
1.299,-0.13,0.94,0.12,0.03,0.15,1.00,
1.301,-0.13,0.94,0.12,0.03,0.15,1.00,
1.301,-0.15,0.93,0.13,0.03,0.15,1.00,
1.304,-0.15,0.93,0.13,0.03,0.15,1.00,
1.307,-0.15,0.93,0.13,0.03,0.15,1.00,
1.307,-0.19,0.91,0.19,0.03,0.15,1.00,
1.309,-0.19,0.91,0.19,0.03,0.15,1.01,
1.312,-0.19,0.91,0.19,0.03,0.15,1.01,
1.312,-0.18,0.93,0.22,0.03,0.15,1.01,
1.313,-0.18,0.93,0.22,0.04,0.15,1.01,
1.316,-0.18,0.93,0.22,0.04,0.15,1.02,
1.316,-0.17,0.94,0.27,0.04,0.15,1.02,
1.318,-0.17,0.94,0.27,0.04,0.15,1.02,
1.321,-0.17,0.94,0.27,0.04,0.15,1.02,
1.321,-0.14,0.93,0.34,0.04,0.15,1.02,
1.329,-0.14,0.93,0.34,0.05,0.15,1.02,
1.329,-0.14,0.93,0.34,0.05,0.16,1.02,
1.33,-0.09,0.94,0.40,0.05,0.16,1.02,
1.33,-0.09,0.94,0.40,0.05,0.15,1.02,
1.33,-0.09,0.94,0.40,0.06,0.15,1.02,
1.331,-0.03,0.95,0.43,0.06,0.15,1.02,
1.333,-0.03,0.95,0.43,0.06,0.15,1.03,
1.336,-0.03,0.95,0.43,0.06,0.16,1.02,
1.336,0.02,0.94,0.43,0.06,0.16,1.02,
1.338,0.02,0.94,0.43,0.06,0.16,1.02,
1.34,0.02,0.94,0.43,0.07,0.16,1.02,
1.341,0.09,0.94,0.43,0.07,0.16,1.02,
1.343,0.09,0.94,0.43,0.07,0.16,1.02,
1.345,0.09,0.94,0.43,0.07,0.16,1.02,
1.345,0.14,0.94,0.40,0.07,0.16,1.02,
1.347,0.14,0.94,0.40,0.07,0.16,1.02,
1.35,0.14,0.94,0.40,0.07,0.16,1.02,
1.35,0.18,0.95,0.38,0.07,0.16,1.02,
1.353,0.18,0.95,0.38,0.07,0.16,1.02,
1.356,0.18,0.95,0.38,0.07,0.15,1.02,
1.357,0.21,0.93,0.35,0.07,0.15,1.02,
1.358,0.21,0.93,0.35,0.07,0.15,1.02,
1.36,0.21,0.93,0.35,0.07,0.15,1.02,
1.36,0.20,0.92,0.37,0.07,0.15,1.02,
1.362,0.20,0.92,0.37,0.07,0.15,1.02,
1.365,0.20,0.92,0.37,0.07,0.14,1.02,
1.366,0.22,0.86,0.39,0.07,0.14,1.02,
1.368,0.22,0.86,0.39,0.07,0.14,1.03,
1.37,0.22,0.86,0.39,0.07,0.14,1.03,
1.37,0.21,0.83,0.40,0.07,0.14,1.03,
1.372,0.21,0.83,0.40,0.07,0.14,1.03,
1.375,0.21,0.83,0.40,0.07,0.14,1.03,
1.375,0.19,0.78,0.43,0.07,0.14,1.03,
1.377,0.19,0.78,0.43,0.07,0.14,1.03,
1.38,0.19,0.78,0.43,0.06,0.14,1.03,
1.38,0.18,0.73,0.45,0.06,0.14,1.03,
1.382,0.18,0.73,0.45,0.06,0.13,1.03,
1.385,0.18,0.73,0.45,0.06,0.13,1.03,
1.385,0.16,0.71,0.45,0.06,0.13,1.03,
1.387,0.16,0.71,0.45,0.06,0.13,1.03,
1.389,0.16,0.71,0.45,0.06,0.13,1.03,
1.39,0.14,0.65,0.47,0.06,0.13,1.03,
1.392,0.14,0.65,0.47,0.07,0.12,1.03,
1.394,0.14,0.65,0.47,0.07,0.12,1.03,
1.395,0.15,0.60,0.46,0.07,0.12,1.03,
1.396,0.15,0.60,0.46,0.07,0.12,1.03,
1.399,0.15,0.60,0.46,0.07,0.12,1.03,
1.399,0.20,0.55,0.45,0.07,0.12,1.03,
1.402,0.20,0.55,0.45,0.08,0.12,1.02,
1.404,0.20,0.55,0.45,0.08,0.12,1.02,
1.404,0.24,0.52,0.42,0.08,0.12,1.02,
1.413,0.24,0.52,0.42,0.08,0.12,1.02,
1.413,0.24,0.52,0.42,0.08,0.12,1.02,
1.413,0.28,0.49,0.37,0.08,0.12,1.02,
1.414,0.28,0.49,0.37,0.09,0.12,1.01,
1.414,0.28,0.49,0.37,0.08,0.12,1.01,
1.414,0.32,0.52,0.31,0.08,0.12,1.01,
1.416,0.32,0.52,0.31,0.08,0.12,1.01,
1.419,0.32,0.52,0.31,0.09,0.12,1.00,
1.421,0.37,0.53,0.24,0.09,0.12,1.00,
1.421,0.37,0.53,0.24,0.09,0.12,1.00,
1.426,0.37,0.53,0.24,0.09,0.12,0.99,
1.427,0.38,0.53,0.17,0.09,0.12,0.99,
1.427,0.38,0.53,0.17,0.09,0.12,0.99,
1.428,0.38,0.53,0.17,0.09,0.12,0.99,
1.428,0.39,0.50,0.10,0.09,0.12,0.99,
1.431,0.39,0.50,0.10,0.09,0.12,0.98,
1.433,0.39,0.50,0.10,0.09,0.12,0.98,
1.433,0.40,0.48,0.02,0.09,0.12,0.98,
1.436,0.40,0.48,0.02,0.09,0.12,0.98,
1.438,0.40,0.48,0.02,0.08,0.12,0.97,
1.438,0.39,0.46,-0.05,0.08,0.12,0.97,
1.44,0.39,0.46,-0.05,0.08,0.12,0.97,
1.444,0.39,0.46,-0.05,0.08,0.11,0.97,
1.444,0.38,0.43,-0.11,0.08,0.11,0.97,
1.445,0.38,0.43,-0.11,0.08,0.11,0.97,
1.448,0.38,0.43,-0.11,0.08,0.11,0.97,
1.448,0.37,0.41,-0.13,0.08,0.11,0.97,
1.45,0.37,0.41,-0.13,0.08,0.11,0.97,
1.453,0.37,0.41,-0.13,0.08,0.11,0.97,
1.454,0.34,0.36,-0.19,0.08,0.11,0.97,
1.455,0.34,0.36,-0.19,0.08,0.11,0.97,
1.458,0.34,0.36,-0.19,0.08,0.11,0.98,
1.458,0.33,0.32,-0.17,0.08,0.11,0.98,
1.46,0.33,0.32,-0.17,0.08,0.11,0.98,
1.463,0.33,0.32,-0.17,0.08,0.11,0.98,
1.463,0.32,0.31,-0.12,0.08,0.11,0.98,
1.465,0.32,0.31,-0.12,0.08,0.11,0.98,
1.468,0.32,0.31,-0.12,0.08,0.11,0.98,
1.468,0.30,0.29,-0.06,0.08,0.11,0.98,
1.47,0.30,0.29,-0.06,0.08,0.10,0.98,
1.473,0.30,0.29,-0.06,0.08,0.10,0.98,
1.473,0.30,0.28,-0.04,0.08,0.10,0.98,
1.475,0.30,0.28,-0.04,0.08,0.10,0.98,
1.477,0.30,0.28,-0.04,0.08,0.10,0.98,
1.478,0.31,0.24,-0.03,0.08,0.10,0.98,
1.48,0.31,0.24,-0.03,0.08,0.10,0.98,
1.482,0.31,0.24,-0.03,0.08,0.11,0.98,
1.483,0.33,0.23,-0.04,0.08,0.11,0.98,
1.485,0.33,0.23,-0.04,0.08,0.11,0.98,
1.488,0.33,0.23,-0.04,0.09,0.11,0.98,
1.489,0.34,0.24,-0.04,0.09,0.11,0.98,
1.491,0.34,0.24,-0.04,0.09,0.11,0.98,
1.492,0.34,0.24,-0.04,0.09,0.11,0.98,
1.493,0.36,0.25,-0.05,0.09,0.11,0.98,
1.494,0.36,0.25,-0.05,0.09,0.11,0.97,
1.497,0.36,0.25,-0.05,0.09,0.11,0.97,
1.497,0.38,0.25,-0.08,0.09,0.11,0.97,
1.499,0.38,0.25,-0.08,0.09,0.11,0.97,
1.502,0.38,0.25,-0.08,0.09,0.11,0.97,
1.502,0.42,0.25,-0.12,0.09,0.11,0.97,
1.505,0.42,0.25,-0.12,0.09,0.11,0.97,
1.507,0.42,0.25,-0.12,0.09,0.11,0.97,
1.508,0.42,0.27,-0.14,0.09,0.11,0.97,
1.509,0.42,0.27,-0.14,0.09,0.11,0.97,
1.512,0.42,0.27,-0.14,0.09,0.12,0.96,
1.512,0.42,0.28,-0.17,0.09,0.12,0.96,
1.514,0.42,0.28,-0.17,0.09,0.12,0.96,
1.517,0.42,0.28,-0.17,0.09,0.11,0.96,
1.517,0.39,0.28,-0.19,0.09,0.11,0.96,
1.519,0.39,0.28,-0.19,0.09,0.11,0.96,
1.528,0.39,0.28,-0.19,0.09,0.11,0.96,
1.528,0.38,0.28,-0.23,0.09,0.11,0.96,
1.528,0.38,0.28,-0.23,0.09,0.11,0.95,
1.529,0.38,0.28,-0.23,0.09,0.11,0.95,
1.529,0.38,0.26,-0.24,0.09,0.11,0.95,
1.529,0.38,0.26,-0.24,0.09,0.11,0.95,
1.532,0.38,0.26,-0.24,0.09,0.12,0.95,
1.532,0.36,0.25,-0.30,0.09,0.12,0.95,
1.534,0.36,0.25,-0.30,0.09,0.12,0.95,
1.536,0.36,0.25,-0.30,0.09,0.12,0.95,
1.537,0.34,0.24,-0.35,0.09,0.12,0.95,
1.539,0.34,0.24,-0.35,0.09,0.12,0.95,
1.541,0.34,0.24,-0.35,0.09,0.12,0.95,
1.542,0.36,0.24,-0.36,0.09,0.12,0.95,
1.544,0.36,0.24,-0.36,0.10,0.12,0.95,
1.546,0.36,0.24,-0.36,0.10,0.12,0.95,
1.546,0.38,0.24,-0.36,0.10,0.12,0.95,
1.548,0.38,0.24,-0.36,0.10,0.12,0.95,
1.551,0.38,0.24,-0.36,0.10,0.12,0.95,
1.551,0.42,0.23,-0.35,0.10,0.12,0.95,
1.553,0.42,0.23,-0.35,0.11,0.12,0.95,
1.556,0.42,0.23,-0.35,0.11,0.12,0.96,
1.556,0.46,0.24,-0.31,0.11,0.12,0.96,
1.558,0.46,0.24,-0.31,0.11,0.12,0.96,
1.561,0.46,0.24,-0.31,0.12,0.12,0.96,
1.561,0.51,0.22,-0.27,0.12,0.12,0.96,
1.563,0.51,0.22,-0.27,0.12,0.12,0.96,
1.565,0.51,0.22,-0.27,0.12,0.12,0.96,
1.566,0.55,0.22,-0.23,0.12,0.12,0.96,
1.568,0.55,0.22,-0.23,0.13,0.12,0.97,
1.57,0.55,0.22,-0.23,0.13,0.12,0.97,
1.571,0.60,0.22,-0.17,0.13,0.12,0.97,
1.573,0.60,0.22,-0.17,0.13,0.12,0.97,
1.575,0.60,0.22,-0.17,0.13,0.12,0.97,
1.576,0.65,0.24,-0.12,0.13,0.12,0.97,
1.578,0.65,0.24,-0.12,0.13,0.12,0.97,
1.58,0.65,0.24,-0.12,0.12,0.11,0.98,
1.58,0.63,0.21,-0.07,0.12,0.11,0.98,
1.583,0.63,0.21,-0.07,0.12,0.11,0.98,
1.585,0.63,0.21,-0.07,0.12,0.11,0.98,
1.585,0.60,0.16,-0.05,0.12,0.11,0.98,
1.588,0.60,0.16,-0.05,0.11,0.11,0.98,
1.59,0.60,0.16,-0.05,0.11,0.11,0.98,
1.591,0.56,0.14,-0.02,0.11,0.11,0.98,
1.592,0.56,0.14,-0.02,0.10,0.11,0.98,
1.595,0.56,0.14,-0.02,0.10,0.10,0.98,
1.595,0.47,0.10,0.00,0.10,0.10,0.98,
1.597,0.47,0.10,0.00,0.09,0.10,0.98,
1.6,0.47,0.10,0.00,0.09,0.10,0.98,
1.6,0.36,0.05,0.00,0.09,0.10,0.98,
1.602,0.36,0.05,0.00,0.08,0.10,0.98,
1.607,0.36,0.05,0.00,0.08,0.09,0.99,
1.608,0.22,-0.01,0.02,0.08,0.09,0.99,
1.608,0.22,-0.01,0.02,0.07,0.09,0.98,
1.61,0.22,-0.01,0.02,0.06,0.09,0.98,
1.61,0.11,-0.08,0.05,0.06,0.09,0.98,
1.612,0.11,-0.08,0.05,0.06,0.08,0.98,
1.614,0.11,-0.08,0.05,0.05,0.08,0.98,
1.615,-0.00,-0.13,0.02,0.05,0.08,0.98,
1.617,-0.00,-0.13,0.02,0.05,0.08,0.98,
1.619,-0.00,-0.13,0.02,0.04,0.08,0.98,
1.62,-0.10,-0.19,0.02,0.04,0.08,0.98,
1.622,-0.10,-0.19,0.02,0.04,0.08,0.98,
1.625,-0.10,-0.19,0.02,0.04,0.08,0.98,
1.625,-0.22,-0.22,0.01,0.04,0.08,0.98,
1.627,-0.22,-0.22,0.01,0.04,0.08,0.98,
1.629,-0.22,-0.22,0.01,0.04,0.08,0.98,
1.63,-0.25,-0.22,0.00,0.04,0.08,0.98,
1.632,-0.25,-0.22,0.00,0.05,0.08,0.98,
1.634,-0.25,-0.22,0.00,0.05,0.08,0.98,
1.634,-0.26,-0.23,0.01,0.05,0.08,0.98,
1.636,-0.26,-0.23,0.01,0.05,0.09,0.98,
1.639,-0.26,-0.23,0.01,0.05,0.09,0.98,
1.64,-0.23,-0.22,0.03,0.05,0.09,0.98,
1.642,-0.23,-0.22,0.03,0.06,0.09,0.98,
1.644,-0.23,-0.22,0.03,0.06,0.10,0.98,
1.645,-0.17,-0.19,0.03,0.06,0.10,0.98,
1.646,-0.17,-0.19,0.03,0.06,0.10,0.98,
1.649,-0.17,-0.19,0.03,0.06,0.10,0.98,
1.649,-0.14,-0.14,0.04,0.06,0.10,0.98,
1.651,-0.14,-0.14,0.04,0.07,0.10,0.98,
1.654,-0.14,-0.14,0.04,0.08,0.10,0.98,
1.654,-0.08,-0.08,0.02,0.08,0.10,0.98,
1.656,-0.08,-0.08,0.02,0.08,0.11,0.98,
1.659,0.02,-0.05,-0.01,0.08,0.11,0.98,
1.659,0.02,-0.05,-0.01,0.09,0.11,0.97,
1.661,0.02,-0.05,-0.01,0.09,0.11,0.97,
1.664,0.02,-0.05,-0.01,0.09,0.11,0.97,
1.664,0.10,0.02,-0.03,0.09,0.11,0.97,
1.666,0.10,0.02,-0.03,0.09,0.12,0.97,
1.669,0.10,0.02,-0.03,0.09,0.12,0.97,
1.669,0.16,0.01,-0.10,0.09,0.12,0.97,
1.672,0.16,0.01,-0.10,0.09,0.12,0.97,
1.674,0.16,0.01,-0.10,0.09,0.12,0.96,
1.674,0.18,0.06,-0.12,0.09,0.12,0.96,
1.676,0.18,0.06,-0.12,0.09,0.12,0.96,
1.678,0.18,0.06,-0.12,0.09,0.12,0.97,
1.678,0.15,0.08,-0.12,0.09,0.12,0.97,
1.68,0.15,0.08,-0.12,0.09,0.12,0.97,
1.683,0.15,0.08,-0.12,0.08,0.12,0.97,
1.683,0.13,0.08,-0.12,0.08,0.12,0.97,
1.685,0.13,0.08,-0.12,0.09,0.12,0.97,
1.689,0.13,0.08,-0.12,0.08,0.11,0.97,
1.689,0.07,0.04,-0.10,0.08,0.11,0.97,
1.69,0.07,0.04,-0.10,0.08,0.11,0.97,
1.693,0.07,0.04,-0.10,0.08,0.11,0.97,
1.693,0.04,-0.01,-0.07,0.08,0.11,0.97,
1.695,0.04,-0.01,-0.07,0.08,0.11,0.98,
1.698,0.04,-0.01,-0.07,0.07,0.10,0.98,
1.698,-0.02,-0.07,-0.02,0.07,0.10,0.98,
1.7,-0.02,-0.07,-0.02,0.07,0.10,0.98,
1.703,-0.02,-0.07,-0.02,0.07,0.10,0.98,
1.703,-0.08,-0.13,0.01,0.07,0.10,0.98,
1.705,-0.08,-0.13,0.01,0.07,0.10,0.99,
1.708,-0.08,-0.13,0.01,0.07,0.09,0.99,
1.708,-0.12,-0.19,0.06,0.07,0.09,0.99,
1.71,-0.12,-0.19,0.06,0.07,0.09,0.99,
1.712,-0.12,-0.19,0.06,0.07,0.09,0.99,
1.713,-0.14,-0.24,0.12,0.07,0.09,0.99,
1.715,-0.14,-0.24,0.12,0.07,0.09,1.00,
1.718,-0.14,-0.24,0.12,0.07,0.09,1.00,
1.718,-0.13,-0.27,0.16,0.07,0.09,1.00,
1.72,-0.13,-0.27,0.16,0.07,0.09,1.00,
1.728,-0.13,-0.27,0.16,0.08,0.09,1.00,
1.728,-0.13,-0.30,0.20,0.08,0.09,1.00,
1.729,-0.13,-0.30,0.20,0.08,0.09,1.00,
1.729,-0.13,-0.30,0.20,0.08,0.09,1.00,
1.729,-0.12,-0.31,0.24,0.08,0.09,1.00,
1.729,-0.12,-0.31,0.24,0.08,0.09,1.00,
1.732,-0.12,-0.31,0.24,0.08,0.09,1.00,
1.733,-0.09,-0.30,0.27,0.08,0.09,1.00,
1.734,-0.09,-0.30,0.27,0.08,0.09,1.00,
1.737,-0.09,-0.30,0.27,0.08,0.09,1.00,
1.737,-0.06,-0.30,0.28,0.08,0.09,1.00,
1.744,-0.06,-0.30,0.28,0.08,0.09,1.00,
1.745,-0.06,-0.30,0.28,0.08,0.09,1.00,
1.745,-0.07,-0.29,0.27,0.08,0.09,1.00,
1.745,-0.07,-0.29,0.27,0.08,0.10,1.00,
1.747,-0.07,-0.29,0.27,0.08,0.09,1.00,
1.747,-0.05,-0.28,0.26,0.08,0.09,1.00,
1.749,-0.05,-0.28,0.26,0.08,0.09,1.00,
1.752,-0.05,-0.28,0.26,0.08,0.09,0.99,
1.752,-0.09,-0.27,0.23,0.08,0.09,0.99,
1.754,-0.09,-0.27,0.23,0.08,0.09,0.99,
1.756,-0.09,-0.27,0.23,0.08,0.09,0.98,
1.757,-0.12,-0.29,0.16,0.08,0.09,0.98,
1.759,-0.12,-0.29,0.16,0.07,0.09,0.98,
1.762,-0.12,-0.29,0.16,0.07,0.09,0.97,
1.762,-0.13,-0.31,0.07,0.07,0.09,0.97,
1.764,-0.13,-0.31,0.07,0.07,0.09,0.97,
1.766,-0.13,-0.31,0.07,0.07,0.09,0.97,
1.766,-0.15,-0.34,0.01,0.07,0.09,0.97,
1.769,-0.15,-0.34,0.01,0.07,0.09,0.97,
1.771,-0.15,-0.34,0.01,0.06,0.09,0.96,
1.772,-0.19,-0.36,-0.05,0.06,0.09,0.96,
1.773,-0.19,-0.36,-0.05,0.06,0.09,0.96,
1.776,-0.19,-0.36,-0.05,0.06,0.09,0.96,
1.776,-0.23,-0.38,-0.11,0.06,0.09,0.96,
1.779,-0.23,-0.38,-0.11,0.06,0.09,0.95,
1.781,-0.23,-0.38,-0.11,0.06,0.09,0.95,
1.782,-0.29,-0.40,-0.17,0.06,0.09,0.95,
1.783,-0.29,-0.40,-0.17,0.06,0.09,0.95,
1.786,-0.29,-0.40,-0.17,0.05,0.08,0.94,
1.787,-0.31,-0.40,-0.22,0.05,0.08,0.94,
1.789,-0.31,-0.40,-0.22,0.06,0.08,0.94,
1.791,-0.31,-0.40,-0.22,0.06,0.08,0.94,
1.792,-0.34,-0.43,-0.28,0.06,0.08,0.94,
1.793,-0.34,-0.43,-0.28,0.06,0.08,0.93,
1.796,-0.34,-0.43,-0.28,0.06,0.08,0.93,
1.796,-0.32,-0.44,-0.33,0.06,0.08,0.93,
1.798,-0.32,-0.44,-0.33,0.06,0.08,0.93,
1.801,-0.32,-0.44,-0.33,0.07,0.08,0.93,
1.801,-0.28,-0.46,-0.39,0.07,0.08,0.93,
1.803,-0.28,-0.46,-0.39,0.07,0.08,0.93,
1.806,-0.28,-0.46,-0.39,0.06,0.08,0.93,
1.807,-0.24,-0.45,-0.42,0.06,0.08,0.93,
1.808,-0.24,-0.45,-0.42,0.07,0.09,0.93,
1.81,-0.24,-0.45,-0.42,0.06,0.09,0.93,
1.811,-0.23,-0.45,-0.43,0.06,0.09,0.93,
1.813,-0.23,-0.45,-0.43,0.07,0.09,0.93,
1.815,-0.23,-0.45,-0.43,0.07,0.09,0.94,
1.816,-0.22,-0.42,-0.40,0.07,0.09,0.94,
1.818,-0.22,-0.42,-0.40,0.07,0.09,0.94,
1.82,-0.22,-0.42,-0.40,0.07,0.09,0.94,
1.82,-0.22,-0.41,-0.36,0.07,0.09,0.94,
1.828,-0.22,-0.41,-0.36,0.07,0.09,0.95,
1.829,-0.22,-0.41,-0.36,0.06,0.09,0.95,
1.829,-0.22,-0.41,-0.29,0.06,0.09,0.95,
1.829,-0.22,-0.41,-0.29,0.06,0.09,0.96,
1.83,-0.22,-0.41,-0.29,0.06,0.08,0.96,
1.831,-0.25,-0.42,-0.22,0.06,0.08,0.96,
1.832,-0.25,-0.42,-0.22,0.06,0.08,0.96,
1.835,-0.25,-0.42,-0.22,0.06,0.08,0.97,
1.835,-0.26,-0.44,-0.14,0.06,0.08,0.97,
1.842,-0.26,-0.44,-0.14,0.05,0.08,0.97,
1.842,-0.26,-0.44,-0.14,0.05,0.08,0.97,
1.842,-0.31,-0.48,-0.07,0.05,0.08,0.97,
1.842,-0.31,-0.48,-0.07,0.05,0.08,0.98,
1.845,-0.31,-0.48,-0.07,0.05,0.07,0.98,
1.845,-0.35,-0.49,0.02,0.05,0.07,0.98,
1.847,-0.35,-0.49,0.02,0.05,0.07,0.99,
1.85,-0.35,-0.49,0.02,0.05,0.07,0.99,
1.85,-0.38,-0.53,0.09,0.05,0.07,0.99,
1.852,-0.38,-0.53,0.09,0.05,0.07,1.00,
1.855,-0.38,-0.53,0.09,0.05,0.07,1.00,
1.855,-0.39,-0.57,0.18,0.05,0.07,1.00,
1.857,-0.39,-0.57,0.18,0.05,0.07,1.00,
1.859,-0.39,-0.57,0.18,0.05,0.07,1.00,
1.86,-0.39,-0.57,0.24,0.05,0.07,1.00,
1.862,-0.39,-0.57,0.24,0.06,0.07,1.00,
1.865,-0.39,-0.57,0.24,0.06,0.07,1.00,
1.865,-0.38,-0.57,0.26,0.06,0.07,1.00,
1.866,-0.38,-0.57,0.26,0.06,0.07,1.00,
1.869,-0.38,-0.57,0.26,0.07,0.07,1.00,
1.869,-0.34,-0.55,0.26,0.07,0.07,1.00,
1.871,-0.34,-0.55,0.26,0.06,0.07,0.99,
1.875,-0.34,-0.55,0.26,0.07,0.07,0.99,
1.875,-0.29,-0.56,0.24,0.07,0.07,0.99,
1.877,-0.29,-0.56,0.24,0.07,0.08,0.98,
1.879,-0.29,-0.56,0.24,0.08,0.08,0.98,
1.879,-0.24,-0.55,0.18,0.08,0.08,0.98,
1.881,-0.24,-0.55,0.18,0.08,0.08,0.98,
1.884,-0.24,-0.55,0.18,0.08,0.08,0.97,
1.884,-0.18,-0.53,0.10,0.08,0.08,0.97,
1.886,-0.18,-0.53,0.10,0.08,0.08,0.97,
1.889,-0.18,-0.53,0.10,0.08,0.09,0.97,
1.889,-0.14,-0.48,0.04,0.08,0.09,0.97,
1.891,-0.14,-0.48,0.04,0.09,0.09,0.96,
1.894,-0.14,-0.48,0.04,0.09,0.08,0.96,
1.894,-0.10,-0.46,-0.02,0.09,0.08,0.96,
1.896,-0.10,-0.46,-0.02,0.09,0.09,0.96,
1.899,-0.10,-0.46,-0.02,0.09,0.09,0.96,
1.899,-0.07,-0.46,-0.08,0.09,0.09,0.96,
1.901,-0.07,-0.46,-0.08,0.09,0.09,0.96,
1.91,-0.07,-0.46,-0.08,0.08,0.09,0.96,
1.91,-0.09,-0.44,-0.10,0.08,0.09,0.96,
1.911,-0.09,-0.44,-0.10,0.08,0.09,0.96,
1.911,-0.09,-0.44,-0.10,0.08,0.09,0.96,
1.913,-0.10,-0.43,-0.09,0.08,0.09,0.96,
1.913,-0.10,-0.43,-0.09,0.07,0.09,0.96,
1.914,-0.10,-0.43,-0.09,0.07,0.08,0.97,
1.914,-0.13,-0.44,-0.08,0.07,0.08,0.97,
1.916,-0.13,-0.44,-0.08,0.06,0.08,0.97,
1.918,-0.13,-0.44,-0.08,0.06,0.08,0.97,
1.918,-0.23,-0.46,-0.04,0.06,0.08,0.97,
1.922,-0.23,-0.46,-0.04,0.06,0.08,0.97,
1.924,-0.23,-0.46,-0.04,0.06,0.08,0.97,
1.924,-0.33,-0.49,-0.01,0.06,0.08,0.97,
1.925,-0.33,-0.49,-0.01,0.05,0.07,0.97,
1.928,-0.37,-0.52,0.00,0.05,0.07,0.97,
1.928,-0.37,-0.52,0.00,0.05,0.07,0.97,
1.93,-0.37,-0.52,0.00,0.05,0.07,0.97,
1.933,-0.41,-0.57,0.02,0.05,0.07,0.97,
1.933,-0.41,-0.57,0.02,0.05,0.07,0.98,
1.935,-0.41,-0.57,0.02,0.05,0.07,0.98,
1.938,-0.41,-0.57,0.02,0.05,0.07,0.98,
1.938,-0.44,-0.61,0.06,0.05,0.07,0.98,
1.94,-0.44,-0.61,0.06,0.05,0.07,0.99,
1.943,-0.44,-0.61,0.06,0.05,0.07,0.99,
1.943,-0.43,-0.63,0.12,0.05,0.07,0.99,
1.945,-0.43,-0.63,0.12,0.06,0.07,1.00,
1.947,-0.43,-0.63,0.12,0.06,0.07,1.00,
1.948,-0.41,-0.62,0.20,0.06,0.07,1.00,
1.95,-0.41,-0.62,0.20,0.06,0.07,1.00,
1.953,-0.41,-0.62,0.20,0.06,0.07,1.00,
1.953,-0.36,-0.60,0.25,0.06,0.07,1.00,
1.955,-0.36,-0.60,0.25,0.07,0.07,1.00,
1.958,-0.36,-0.60,0.25,0.07,0.07,1.00,
1.958,-0.31,-0.57,0.31,0.07,0.07,1.00,
1.96,-0.31,-0.57,0.31,0.07,0.08,1.00,
1.962,-0.31,-0.57,0.31,0.08,0.08,1.00,
1.963,-0.26,-0.55,0.31,0.08,0.08,1.00,
1.964,-0.26,-0.55,0.31,0.08,0.08,1.00,
1.967,-0.26,-0.55,0.31,0.08,0.08,1.00,
1.968,-0.20,-0.53,0.31,0.08,0.08,1.00,
1.97,-0.20,-0.53,0.31,0.08,0.08,1.00,
1.972,-0.20,-0.53,0.31,0.08,0.08,1.00,
1.973,-0.13,-0.51,0.30,0.08,0.08,1.00,
1.974,-0.13,-0.51,0.30,0.09,0.08,0.99,
1.977,-0.13,-0.51,0.30,0.09,0.08,0.99,
1.977,-0.11,-0.50,0.26,0.09,0.08,0.99,
1.979,-0.11,-0.50,0.26,0.09,0.08,0.99,
1.982,-0.11,-0.50,0.26,0.09,0.08,0.98,
1.982,-0.09,-0.49,0.20,0.09,0.08,0.98,
1.984,-0.09,-0.49,0.20,0.08,0.08,0.98,
1.987,-0.09,-0.49,0.20,0.08,0.08,0.98,
1.987,-0.08,-0.48,0.14,0.08,0.08,0.98,
1.989,-0.08,-0.48,0.14,0.08,0.08,0.97,
1.992,-0.08,-0.48,0.14,0.08,0.08,0.97,
1.992,-0.12,-0.49,0.09,0.08,0.08,0.97,
1.994,-0.12,-0.49,0.09,0.08,0.08,0.97,
1.996,-0.12,-0.49,0.09,0.07,0.07,0.97,
1.997,-0.16,-0.50,0.02,0.07,0.07,0.97,
1.999,-0.16,-0.50,0.02,0.07,0.07,0.96,
2.002,-0.16,-0.50,0.02,0.06,0.08,0.96,
2.002,-0.22,-0.54,-0.04,0.06,0.08,0.96,
2.01,-0.22,-0.54,-0.04,0.06,0.07,0.95,
2.01,-0.22,-0.54,-0.04,0.06,0.07,0.95,
2.011,-0.28,-0.54,-0.13,0.06,0.07,0.95,
2.011,-0.28,-0.54,-0.13,0.05,0.07,0.94,
2.011,-0.28,-0.54,-0.13,0.05,0.07,0.94,
2.012,-0.34,-0.57,-0.19,0.05,0.07,0.94,
2.013,-0.34,-0.57,-0.19,0.05,0.07,0.94,
2.016,-0.40,-0.57,-0.26,0.05,0.07,0.94,
2.016,-0.40,-0.57,-0.26,0.05,0.07,0.94,
2.019,-0.40,-0.57,-0.26,0.05,0.07,0.94,
2.021,-0.40,-0.57,-0.26,0.05,0.07,0.94,
2.022,-0.43,-0.57,-0.29,0.05,0.07,0.94,
2.024,-0.43,-0.57,-0.29,0.05,0.07,0.94,
2.026,-0.45,-0.55,-0.31,0.05,0.07,0.94,
2.026,-0.45,-0.55,-0.31,0.05,0.07,0.94,
2.028,-0.45,-0.55,-0.31,0.05,0.07,0.94,
2.031,-0.45,-0.55,-0.31,0.06,0.07,0.94,
2.031,-0.45,-0.55,-0.30,0.06,0.07,0.94,
2.033,-0.45,-0.55,-0.30,0.06,0.07,0.94,
2.036,-0.45,-0.55,-0.30,0.06,0.07,0.95,
2.036,-0.38,-0.55,-0.28,0.06,0.07,0.95,
2.038,-0.38,-0.55,-0.28,0.06,0.07,0.95,
2.041,-0.38,-0.55,-0.28,0.07,0.07,0.96,
2.041,-0.33,-0.55,-0.22,0.07,0.07,0.96,
2.043,-0.33,-0.55,-0.22,0.08,0.07,0.96,
2.045,-0.33,-0.55,-0.22,0.08,0.07,0.96,
2.046,-0.24,-0.55,-0.14,0.08,0.07,0.96,
2.048,-0.24,-0.55,-0.14,0.08,0.07,0.97,
2.05,-0.24,-0.55,-0.14,0.09,0.08,0.97,
2.051,-0.14,-0.54,-0.07,0.09,0.08,0.97,
2.053,-0.14,-0.54,-0.07,0.09,0.08,0.98,
2.056,-0.14,-0.54,-0.07,0.09,0.08,0.98,
2.056,-0.09,-0.52,0.02,0.09,0.08,0.98,
2.058,-0.09,-0.52,0.02,0.09,0.07,0.98,
2.061,-0.09,-0.52,0.02,0.09,0.07,0.99,
2.061,-0.08,-0.49,0.10,0.09,0.07,0.99,
2.063,-0.08,-0.49,0.10,0.09,0.07,0.99,
2.065,-0.08,-0.49,0.10,0.09,0.07,0.99,
2.065,-0.06,-0.53,0.15,0.09,0.07,0.99,
2.067,-0.06,-0.53,0.15,0.09,0.07,0.99,
2.071,-0.06,-0.53,0.15,0.09,0.07,1.00,
2.072,-0.06,-0.56,0.21,0.09,0.07,1.00,
2.074,-0.06,-0.56,0.21,0.09,0.07,1.00,
2.075,-0.06,-0.57,0.25,0.09,0.07,1.00,
2.075,-0.06,-0.57,0.25,0.09,0.07,1.00,
2.077,-0.06,-0.57,0.25,0.09,0.07,1.00,
2.08,-0.06,-0.57,0.25,0.08,0.06,1.00,
2.08,-0.09,-0.58,0.28,0.08,0.06,1.00,
2.082,-0.09,-0.58,0.28,0.08,0.06,1.00,
2.085,-0.09,-0.58,0.28,0.08,0.06,1.00,
2.085,-0.11,-0.59,0.29,0.08,0.06,1.00,
2.088,-0.11,-0.59,0.29,0.07,0.06,1.00,
2.09,-0.11,-0.59,0.29,0.07,0.06,1.00,
2.09,-0.17,-0.61,0.28,0.07,0.06,1.00,
2.092,-0.17,-0.61,0.28,0.07,0.06,1.00,
2.094,-0.17,-0.61,0.28,0.07,0.06,1.00,
2.094,-0.23,-0.62,0.29,0.07,0.06,1.00,
2.097,-0.23,-0.62,0.29,0.07,0.06,1.00,
2.099,-0.23,-0.62,0.29,0.07,0.06,1.00,
2.1,-0.27,-0.62,0.30,0.07,0.06,1.00,
2.101,-0.27,-0.62,0.30,0.07,0.06,1.00,
2.104,-0.27,-0.62,0.30,0.07,0.07,1.00,
2.105,-0.28,-0.60,0.30,0.07,0.07,1.00,
2.106,-0.28,-0.60,0.30,0.07,0.06,1.00,
2.109,-0.28,-0.60,0.30,0.07,0.06,1.00,
2.109,-0.28,-0.58,0.30,0.07,0.06,1.00,
2.111,-0.28,-0.58,0.30,0.07,0.07,1.00,
2.114,-0.28,-0.58,0.30,0.07,0.07,1.00,
2.114,-0.24,-0.58,0.30,0.07,0.07,1.00,
2.116,-0.24,-0.58,0.30,0.08,0.07,1.00,
2.119,-0.24,-0.58,0.30,0.08,0.07,1.00,
2.119,-0.21,-0.55,0.28,0.08,0.07,1.00,
2.124,-0.21,-0.55,0.28,0.08,0.07,0.99,
2.124,-0.21,-0.55,0.28,0.08,0.07,0.99,
2.125,-0.16,-0.51,0.25,0.08,0.07,0.99,
2.126,-0.16,-0.51,0.25,0.08,0.08,0.99,
2.129,-0.16,-0.51,0.25,0.08,0.08,0.98,
2.129,-0.15,-0.48,0.20,0.08,0.08,0.98,
2.131,-0.15,-0.48,0.20,0.08,0.08,0.98,
2.133,-0.15,-0.48,0.20,0.08,0.08,0.98,
2.134,-0.13,-0.43,0.14,0.08,0.08,0.98,
2.136,-0.13,-0.43,0.14,0.08,0.08,0.97,
2.139,-0.13,-0.43,0.14,0.08,0.08,0.97,
2.139,-0.10,-0.41,0.07,0.08,0.08,0.97,
2.141,-0.10,-0.41,0.07,0.08,0.08,0.96,
2.143,-0.10,-0.41,0.07,0.08,0.08,0.96,
2.144,-0.09,-0.42,-0.01,0.08,0.08,0.96,
2.146,-0.09,-0.42,-0.01,0.08,0.08,0.96,
2.148,-0.09,-0.42,-0.01,0.08,0.08,0.95,
2.148,-0.07,-0.39,-0.10,0.08,0.08,0.95,
2.151,-0.07,-0.39,-0.10,0.09,0.08,0.95,
2.154,-0.07,-0.39,-0.10,0.09,0.08,0.95,
2.155,-0.07,-0.39,-0.16,0.09,0.08,0.95,
2.156,-0.07,-0.39,-0.16,0.09,0.09,0.94,
2.158,-0.07,-0.39,-0.16,0.09,0.09,0.94,
2.159,-0.04,-0.38,-0.23,0.09,0.09,0.94,
2.16,-0.04,-0.38,-0.23,0.09,0.08,0.94,
2.163,-0.04,-0.38,-0.23,0.09,0.09,0.94,
2.163,-0.03,-0.37,-0.29,0.09,0.09,0.94,
2.165,-0.03,-0.37,-0.29,0.09,0.09,0.94,
2.168,-0.03,-0.37,-0.29,0.09,0.09,0.94,
2.168,-0.03,-0.37,-0.32,0.09,0.09,0.94,
2.17,-0.03,-0.37,-0.32,0.09,0.09,0.94,
2.173,-0.03,-0.37,-0.32,0.09,0.09,0.94,
2.173,-0.02,-0.36,-0.31,0.09,0.09,0.94,
2.175,-0.02,-0.36,-0.31,0.09,0.09,0.94,
2.178,-0.02,-0.36,-0.31,0.09,0.09,0.94,
2.178,0.00,-0.36,-0.29,0.09,0.09,0.94,
2.18,0.00,-0.36,-0.29,0.09,0.09,0.95,
2.183,0.00,-0.36,-0.29,0.09,0.09,0.95,
2.183,0.01,-0.33,-0.26,0.09,0.09,0.95,
2.185,0.01,-0.33,-0.26,0.09,0.09,0.95,
2.188,0.01,-0.31,-0.22,0.09,0.09,0.95,
2.189,0.01,-0.31,-0.22,0.09,0.09,0.96,
2.19,0.01,-0.31,-0.22,0.09,0.09,0.96,
2.193,0.01,-0.31,-0.22,0.09,0.09,0.96,
2.193,0.01,-0.30,-0.15,0.09,0.09,0.96,
2.195,0.01,-0.30,-0.15,0.09,0.09,0.96,
2.198,0.01,-0.29,-0.09,0.09,0.09,0.96,
2.198,0.01,-0.29,-0.09,0.09,0.09,0.97,
2.2,0.01,-0.29,-0.09,0.09,0.09,0.97,
2.202,0.01,-0.29,-0.09,0.09,0.09,0.97,
2.203,0.00,-0.29,-0.04,0.09,0.09,0.97,
2.205,0.00,-0.29,-0.04,0.09,0.10,0.98,
2.208,0.00,-0.29,-0.04,0.09,0.09,0.98,
2.208,0.00,-0.26,0.02,0.09,0.09,0.98,
2.21,0.00,-0.26,0.02,0.09,0.09,0.98,
2.212,0.00,-0.26,0.02,0.09,0.09,0.98,
2.212,0.02,-0.25,0.08,0.09,0.09,0.98,
2.214,0.02,-0.25,0.08,0.09,0.09,0.98,
2.217,0.02,-0.25,0.08,0.08,0.09,0.99,
2.217,0.00,-0.27,0.12,0.08,0.09,0.99,
2.219,0.00,-0.27,0.12,0.08,0.09,0.98,
2.226,0.00,-0.27,0.12,0.08,0.09,0.99,
2.227,-0.04,-0.27,0.14,0.08,0.09,0.99,
2.227,-0.04,-0.27,0.14,0.08,0.09,0.99,
2.227,-0.04,-0.27,0.14,0.08,0.09,0.98,
2.228,-0.07,-0.27,0.14,0.08,0.09,0.98,
2.229,-0.07,-0.27,0.14,0.08,0.09,0.98,
2.232,-0.07,-0.27,0.14,0.08,0.09,0.98,
2.232,-0.08,-0.29,0.15,0.08,0.09,0.98,
2.234,-0.08,-0.29,0.15,0.08,0.08,0.98,
2.237,-0.08,-0.29,0.15,0.08,0.09,0.98,
2.237,-0.11,-0.31,0.13,0.08,0.09,0.98,
2.239,-0.11,-0.31,0.13,0.08,0.08,0.97,
2.241,-0.11,-0.31,0.13,0.08,0.08,0.97,
2.242,-0.11,-0.33,0.07,0.08,0.08,0.97,
2.243,-0.11,-0.33,0.07,0.08,0.08,0.97,
2.246,-0.11,-0.33,0.07,0.08,0.09,0.97,
2.246,-0.09,-0.35,0.03,0.08,0.09,0.97,
2.248,-0.09,-0.35,0.03,0.08,0.08,0.97,
2.251,-0.09,-0.35,0.03,0.08,0.09,0.97,
2.251,-0.08,-0.34,-0.00,0.08,0.09,0.97,
2.254,-0.08,-0.34,-0.00,0.08,0.09,0.96,
2.256,-0.08,-0.34,-0.00,0.08,0.09,0.96,
2.256,-0.11,-0.33,-0.04,0.08,0.09,0.96,
2.259,-0.11,-0.33,-0.04,0.08,0.09,0.96,
2.261,-0.11,-0.33,-0.04,0.08,0.09,0.96,
2.261,-0.11,-0.32,-0.06,0.08,0.09,0.96,
2.263,-0.11,-0.32,-0.06,0.08,0.09,0.97,
2.266,-0.11,-0.32,-0.06,0.08,0.09,0.97,
2.266,-0.09,-0.32,-0.06,0.08,0.09,0.97,
2.268,-0.09,-0.32,-0.06,0.08,0.09,0.97,
2.271,-0.09,-0.32,-0.06,0.08,0.09,0.97,
2.271,-0.06,-0.30,-0.05,0.08,0.09,0.97,
2.273,-0.06,-0.30,-0.05,0.08,0.09,0.97,
2.276,-0.06,-0.30,-0.05,0.09,0.09,0.97,
2.276,-0.04,-0.28,-0.04,0.09,0.09,0.97,
2.278,-0.04,-0.28,-0.04,0.08,0.09,0.97,
2.28,-0.04,-0.28,-0.04,0.09,0.09,0.98,
2.281,-0.02,-0.25,-0.02,0.09,0.09,0.98,
2.283,-0.02,-0.25,-0.02,0.09,0.10,0.98,
2.285,-0.02,-0.25,-0.02,0.09,0.10,0.98,
2.286,-0.02,-0.23,0.02,0.09,0.10,0.98,
2.288,-0.02,-0.23,0.02,0.09,0.10,0.98,
2.29,-0.02,-0.23,0.02,0.09,0.10,0.98,
2.291,-0.00,-0.20,0.09,0.09,0.10,0.98,
2.293,-0.00,-0.20,0.09,0.09,0.10,0.99,
2.295,-0.00,-0.20,0.09,0.09,0.10,0.99,
2.296,0.02,-0.19,0.12,0.09,0.10,0.99,
2.298,0.02,-0.19,0.12,0.09,0.10,0.99,
2.3,0.02,-0.19,0.12,0.09,0.10,0.99,
2.3,0.02,-0.15,0.16,0.09,0.10,0.99,
2.302,0.02,-0.15,0.16,0.09,0.10,0.99,
2.31,0.02,-0.15,0.16,0.09,0.11,0.99,
2.31,0.04,-0.14,0.16,0.09,0.11,0.99,
2.311,0.04,-0.14,0.16,0.09,0.11,0.99,
2.311,0.04,-0.14,0.16,0.09,0.10,0.99,
2.311,0.05,-0.10,0.16,0.09,0.10,0.99,
2.312,0.05,-0.10,0.16,0.08,0.11,0.99,
2.315,0.05,-0.10,0.16,0.08,0.10,0.98,
2.315,0.02,-0.10,0.15,0.08,0.10,0.98,
2.317,0.02,-0.10,0.15,0.08,0.10,0.98,
2.324,0.02,-0.10,0.15,0.08,0.10,0.98,
2.324,-0.01,-0.10,0.13,0.08,0.10,0.98,
2.325,-0.01,-0.10,0.13,0.08,0.10,0.98,
2.325,-0.01,-0.10,0.13,0.08,0.10,0.98,
2.325,-0.04,-0.11,0.09,0.08,0.10,0.98,
2.327,-0.04,-0.11,0.09,0.07,0.10,0.98,
2.329,-0.04,-0.11,0.09,0.07,0.10,0.98,
2.33,-0.05,-0.13,0.08,0.07,0.10,0.98,
2.332,-0.05,-0.13,0.08,0.07,0.10,0.97,
2.334,-0.05,-0.13,0.08,0.07,0.10,0.97,
2.334,-0.09,-0.12,0.04,0.07,0.10,0.97,
2.337,-0.09,-0.12,0.04,0.07,0.10,0.97,
2.339,-0.09,-0.12,0.04,0.06,0.10,0.97,
2.339,-0.14,-0.12,0.03,0.06,0.10,0.97,
2.342,-0.14,-0.12,0.03,0.06,0.10,0.97,
2.344,-0.14,-0.12,0.03,0.06,0.10,0.97,
2.345,-0.15,-0.14,0.01,0.06,0.10,0.97,
2.346,-0.15,-0.14,0.01,0.06,0.10,0.97,
2.349,-0.15,-0.14,0.01,0.07,0.10,0.97,
2.349,-0.16,-0.13,-0.02,0.07,0.10,0.97,
2.352,-0.16,-0.13,-0.02,0.07,0.10,0.97,
2.354,-0.16,-0.13,-0.02,0.07,0.11,0.97,
2.354,-0.13,-0.11,-0.02,0.07,0.11,0.97,
2.356,-0.13,-0.11,-0.02,0.07,0.11,0.97,
2.359,-0.13,-0.11,-0.02,0.07,0.11,0.97,
2.36,-0.11,-0.09,-0.02,0.07,0.11,0.97,
2.361,-0.11,-0.09,-0.02,0.07,0.11,0.97,
2.364,-0.11,-0.09,-0.02,0.08,0.11,0.97,
2.364,-0.07,-0.07,-0.03,0.08,0.11,0.97,
2.366,-0.07,-0.07,-0.03,0.08,0.11,0.97,
2.369,-0.07,-0.07,-0.03,0.08,0.11,0.97,
2.369,-0.03,-0.07,-0.02,0.08,0.11,0.97,
2.372,-0.03,-0.07,-0.02,0.08,0.11,0.97,
2.374,-0.03,-0.07,-0.02,0.08,0.11,0.97,
2.374,0.01,-0.04,0.01,0.08,0.11,0.97,
2.376,0.01,-0.04,0.01,0.08,0.12,0.98,
2.379,0.01,-0.04,0.01,0.08,0.12,0.98,
2.379,0.02,-0.01,0.02,0.08,0.12,0.98,
2.381,0.02,-0.01,0.02,0.08,0.12,0.98,
2.383,0.02,-0.01,0.02,0.08,0.12,0.98,
2.384,0.01,0.03,0.06,0.08,0.12,0.98,
2.386,0.01,0.03,0.06,0.08,0.12,0.98,
2.388,0.01,0.03,0.06,0.08,0.12,0.98,
2.388,0.04,0.03,0.10,0.08,0.12,0.98,
2.39,0.04,0.03,0.10,0.08,0.12,0.99,
2.393,0.04,0.03,0.10,0.08,0.12,0.98,
2.393,0.03,0.04,0.12,0.08,0.12,0.98,
2.395,0.03,0.04,0.12,0.08,0.12,0.98,
2.398,0.03,0.04,0.12,0.08,0.12,0.98,
2.4,0.02,0.04,0.12,0.08,0.12,0.98,
2.4,0.02,0.04,0.12,0.07,0.12,0.98,
2.409,0.02,0.04,0.12,0.07,0.11,0.98,
2.409,0.02,0.04,0.11,0.07,0.11,0.98,
2.409,0.02,0.04,0.11,0.07,0.12,0.98,
2.41,0.02,0.04,0.11,0.07,0.11,0.98,
2.41,-0.03,0.01,0.10,0.07,0.11,0.98,
2.41,-0.03,0.01,0.10,0.07,0.11,0.98,
2.413,-0.03,0.01,0.10,0.06,0.11,0.98,
2.413,-0.07,0.00,0.07,0.06,0.11,0.98,
2.415,-0.07,0.00,0.07,0.06,0.11,0.98,
2.418,-0.07,0.00,0.07,0.06,0.11,0.97,
2.418,-0.11,-0.02,0.05,0.06,0.11,0.97,
2.422,-0.11,-0.02,0.05,0.06,0.11,0.97,
2.423,-0.11,-0.02,0.05,0.06,0.11,0.97,
2.423,-0.13,-0.03,0.02,0.06,0.11,0.97,
2.425,-0.13,-0.03,0.02,0.06,0.10,0.97,
2.427,-0.13,-0.03,0.02,0.06,0.10,0.97,
2.427,-0.13,-0.07,0.01,0.06,0.10,0.97,
2.43,-0.13,-0.07,0.01,0.06,0.10,0.97,
2.432,-0.13,-0.07,0.01,0.06,0.10,0.98,
2.433,-0.15,-0.09,0.00,0.06,0.10,0.98,
2.434,-0.15,-0.09,0.00,0.06,0.10,0.98,
2.437,-0.15,-0.09,0.00,0.06,0.10,0.98,
2.437,-0.13,-0.11,0.02,0.06,0.10,0.98,
2.44,-0.13,-0.11,0.02,0.06,0.10,0.98,
2.442,-0.13,-0.11,0.02,0.06,0.10,0.98,
2.442,-0.12,-0.11,0.05,0.06,0.10,0.98,
2.444,-0.12,-0.11,0.05,0.06,0.10,0.98,
2.448,-0.12,-0.11,0.05,0.07,0.10,0.96,
2.448,-0.11,-0.10,0.05,0.07,0.10,0.96,
2.449,-0.11,-0.10,0.05,0.07,0.10,0.84,
2.452,-0.11,-0.10,0.05,0.11,0.13,0.69,
2.452,-0.07,-0.09,-0.03,0.11,0.13,0.69,
2.454,-0.07,-0.09,-0.03,0.14,0.14,0.71,
2.457,-0.07,-0.09,-0.03,0.14,0.12,0.81,
2.457,0.23,0.03,-2.05,0.14,0.12,0.81,
2.46,0.23,0.03,-2.05,0.14,0.11,0.88,
2.462,0.23,0.03,-2.05,0.13,0.10,0.92,
2.462,0.68,0.20,-2.02,0.13,0.10,0.92,
2.464,0.68,0.20,-2.02,0.12,0.10,0.94,
2.467,0.68,0.20,-2.02,0.11,0.11,0.96,
2.467,0.64,-0.04,-0.73,0.11,0.11,0.96,
2.469,0.64,-0.04,-0.73,0.10,0.12,0.96,
2.472,0.64,-0.04,-0.73,0.10,0.13,0.96,
2.472,0.42,0.01,-0.21,0.10,0.13,0.96,
2.474,0.42,0.01,-0.21,0.10,0.13,0.97,
2.476,0.42,0.01,-0.21,0.10,0.13,0.97,
2.477,0.28,0.22,-0.07,0.10,0.13,0.97,
2.479,0.28,0.22,-0.07,0.11,0.12,0.98,
2.481,0.28,0.22,-0.07,0.11,0.11,0.99,
2.482,0.33,0.24,-0.02,0.11,0.11,0.99,
2.483,0.33,0.24,-0.02,0.10,0.10,1.00,
2.487,0.33,0.24,-0.02,0.10,0.10,1.01,
2.487,0.38,0.09,0.10,0.10,0.10,1.01,
2.489,0.38,0.09,0.10,0.08,0.09,1.03,
2.491,0.38,0.09,0.10,0.08,0.10,1.04,
2.491,0.30,-0.05,0.33,0.08,0.10,1.04,
2.493,0.30,-0.05,0.33,0.06,0.10,1.05,
2.496,0.30,-0.05,0.33,0.05,0.10,1.06,
2.496,0.11,-0.09,0.59,0.05,0.10,1.06,
2.498,0.11,-0.09,0.59,0.05,0.10,1.06,
2.501,0.11,-0.09,0.59,0.05,0.10,1.06,
2.501,-0.10,-0.05,0.78,0.05,0.10,1.06,
2.504,-0.10,-0.05,0.78,0.04,0.10,1.06,
2.506,-0.10,-0.05,0.78,0.05,0.09,1.05,
2.506,-0.22,-0.03,0.86,0.05,0.09,1.05,
2.508,-0.22,-0.03,0.86,0.06,0.09,1.04,
2.511,-0.22,-0.03,0.86,0.06,0.09,1.03,
2.511,-0.23,-0.09,0.81,0.06,0.09,1.03,
2.513,-0.23,-0.09,0.81,0.06,0.09,1.02,
2.516,-0.23,-0.09,0.81,0.07,0.09,1.00,
2.516,-0.12,-0.18,0.62,0.07,0.09,1.00,
2.518,-0.12,-0.18,0.62,0.07,0.09,0.98,
2.524,-0.12,-0.18,0.62,0.07,0.10,0.97,
2.524,-0.07,-0.19,0.34,0.07,0.10,0.97,
2.524,-0.07,-0.19,0.34,0.07,0.10,0.95,
2.525,-0.07,-0.19,0.34,0.07,0.10,0.94,
2.526,-0.02,-0.15,0.02,0.07,0.10,0.94,
2.528,-0.02,-0.15,0.02,0.07,0.11,0.93,
2.53,-0.02,-0.15,0.02,0.08,0.11,0.92,
2.53,-0.02,-0.08,-0.24,0.08,0.11,0.92,
2.533,-0.02,-0.08,-0.24,0.08,0.11,0.92,
2.535,0.02,-0.02,-0.44,0.08,0.11,0.92,
2.535,0.02,-0.02,-0.44,0.08,0.11,0.91,
