
time,ax,ay,az,gFx,gFy,gFz,
0.002,0.11,0.05,-0.04,-0.01,0.07,0.96,
0.002,0.08,0.03,-0.12,-0.01,0.07,0.96,
0.002,0.08,0.03,-0.12,-0.01,0.07,0.96,
0.003,0.08,0.03,-0.12,-0.01,0.07,0.96,
0.003,0.06,0.01,-0.17,-0.01,0.07,0.96,
0.005,0.06,0.01,-0.17,-0.01,0.07,0.96,
0.008,0.06,0.01,-0.17,-0.01,0.07,0.96,
0.008,0.05,-0.00,-0.19,-0.01,0.07,0.96,
0.01,0.05,-0.00,-0.19,-0.01,0.07,0.96,
0.013,0.05,-0.00,-0.19,-0.01,0.07,0.96,
0.013,0.01,-0.03,-0.19,-0.01,0.07,0.96,
0.016,0.01,-0.03,-0.19,-0.01,0.07,0.96,
0.018,0.01,-0.03,-0.19,-0.01,0.07,0.97,
0.018,0.01,-0.02,-0.17,-0.01,0.07,0.97,
0.02,0.01,-0.02,-0.17,-0.01,0.07,0.97,
0.022,0.01,-0.02,-0.17,-0.01,0.07,0.97,
0.022,0.01,-0.03,-0.14,-0.01,0.07,0.97,
0.025,0.01,-0.03,-0.14,-0.01,0.07,0.97,
0.027,0.01,-0.03,-0.14,-0.01,0.07,0.97,
0.027,0.00,-0.03,-0.11,-0.01,0.07,0.97,
0.03,0.00,-0.03,-0.11,-0.01,0.07,0.97,
0.032,0.00,-0.03,-0.11,-0.01,0.07,0.97,
0.032,-0.00,-0.04,-0.09,-0.01,0.07,0.97,
0.034,-0.00,-0.04,-0.09,-0.01,0.07,0.97,
0.037,-0.00,-0.04,-0.09,-0.01,0.07,0.97,
0.037,0.03,-0.02,-0.09,-0.01,0.07,0.97,
0.039,0.03,-0.02,-0.09,-0.01,0.07,0.97,
0.042,0.03,-0.02,-0.09,-0.01,0.07,0.97,
0.042,0.02,-0.01,-0.09,-0.01,0.07,0.97,
0.044,0.02,-0.01,-0.09,-0.01,0.07,0.97,
0.047,0.02,-0.01,-0.09,-0.01,0.07,0.97,
0.047,0.03,-0.02,-0.10,-0.01,0.07,0.97,
0.049,0.03,-0.02,-0.10,-0.00,0.07,0.97,
0.052,0.03,-0.02,-0.10,-0.00,0.07,0.97,
0.052,0.04,-0.03,-0.12,-0.00,0.07,0.97,
0.054,0.04,-0.03,-0.12,-0.00,0.07,0.96,
0.057,0.04,-0.03,-0.12,-0.00,0.07,0.96,
0.057,0.07,-0.05,-0.12,-0.00,0.07,0.96,
0.059,0.07,-0.05,-0.12,-0.00,0.07,0.96,
0.062,0.07,-0.05,-0.12,-0.00,0.07,0.96,
0.062,0.07,-0.04,-0.16,-0.00,0.07,0.96,
0.071,0.07,-0.04,-0.16,-0.00,0.07,0.96,
0.071,0.07,-0.04,-0.16,-0.00,0.07,0.96,
0.072,0.09,-0.03,-0.16,-0.00,0.07,0.96,
0.072,0.09,-0.03,-0.16,-0.00,0.07,0.96,
0.072,0.09,-0.03,-0.16,-0.00,0.07,0.96,
0.072,0.10,-0.01,-0.16,-0.00,0.07,0.96,
0.074,0.10,-0.01,-0.16,0.00,0.07,0.97,
0.076,0.10,-0.01,-0.16,0.00,0.07,0.97,
0.077,0.11,-0.00,-0.14,0.00,0.07,0.97,
0.078,0.11,-0.00,-0.14,0.00,0.07,0.97,
0.081,0.11,-0.00,-0.14,0.00,0.07,0.97,
0.082,0.12,0.02,-0.12,0.00,0.07,0.97,
0.084,0.12,0.02,-0.12,0.00,0.08,0.97,
0.086,0.12,0.02,-0.12,0.00,0.08,0.97,
0.086,0.14,0.02,-0.12,0.00,0.08,0.97,
0.088,0.14,0.02,-0.12,0.00,0.08,0.97,
0.091,0.14,0.02,-0.12,0.00,0.08,0.97,
0.091,0.15,0.05,-0.08,0.00,0.08,0.97,
0.093,0.15,0.05,-0.08,0.00,0.08,0.97,
0.096,0.15,0.05,-0.08,0.00,0.08,0.97,
0.097,0.15,0.08,-0.07,0.00,0.08,0.97,
0.098,0.15,0.08,-0.07,0.00,0.08,0.98,
0.101,0.15,0.08,-0.07,0.01,0.08,0.98,
0.101,0.13,0.07,-0.05,0.01,0.08,0.98,
0.103,0.13,0.07,-0.05,0.01,0.08,0.98,
0.106,0.13,0.07,-0.05,0.00,0.08,0.98,
0.106,0.16,0.09,-0.01,0.00,0.08,0.98,
0.108,0.16,0.09,-0.01,0.00,0.08,0.98,
0.111,0.16,0.09,-0.01,0.00,0.08,0.98,
0.111,0.15,0.09,0.00,0.00,0.08,0.98,
0.114,0.15,0.09,0.00,0.01,0.08,0.98,
0.115,0.15,0.09,0.00,0.00,0.08,0.98,
0.116,0.15,0.09,0.01,0.00,0.08,0.98,
0.118,0.15,0.09,0.01,0.01,0.08,0.98,
0.12,0.15,0.09,0.01,0.00,0.08,0.98,
0.12,0.17,0.09,-0.01,0.00,0.08,0.98,
0.123,0.17,0.09,-0.01,0.01,0.08,0.98,
0.125,0.17,0.09,-0.01,0.01,0.08,0.98,
0.125,0.16,0.09,-0.00,0.01,0.08,0.98,
0.128,0.16,0.09,-0.00,0.01,0.08,0.97,
0.13,0.16,0.09,-0.00,0.01,0.08,0.98,
0.13,0.18,0.09,-0.01,0.01,0.08,0.98,
0.132,0.18,0.09,-0.01,0.01,0.08,0.97,
0.135,0.18,0.09,-0.01,0.01,0.08,0.97,
0.135,0.21,0.09,-0.03,0.01,0.08,0.97,
0.137,0.21,0.09,-0.03,0.01,0.08,0.98,
0.14,0.21,0.09,-0.03,0.01,0.08,0.97,
0.14,0.23,0.08,-0.04,0.01,0.08,0.97,
0.142,0.23,0.08,-0.04,0.02,0.08,0.97,
0.145,0.25,0.07,-0.03,0.02,0.08,0.97,
0.148,0.25,0.07,-0.03,0.02,0.08,0.97,
0.148,0.25,0.07,-0.03,0.02,0.08,0.97,
0.15,0.25,0.07,-0.03,0.02,0.08,0.97,
0.15,0.26,0.07,-0.05,0.02,0.08,0.97,
0.152,0.26,0.07,-0.05,0.02,0.08,0.97,
0.155,0.26,0.07,-0.05,0.02,0.08,0.97,
0.155,0.29,0.08,-0.05,0.02,0.08,0.97,
0.157,0.29,0.08,-0.05,0.02,0.08,0.97,
0.159,0.29,0.08,-0.05,0.02,0.08,0.97,
0.159,0.29,0.07,-0.04,0.02,0.08,0.97,
0.169,0.29,0.07,-0.04,0.02,0.08,0.97,
0.17,0.29,0.07,-0.04,0.02,0.08,0.97,
0.171,0.30,0.07,-0.07,0.02,0.08,0.97,
0.171,0.30,0.07,-0.07,0.02,0.08,0.97,
0.172,0.30,0.07,-0.07,0.02,0.07,0.97,
0.172,0.32,0.06,-0.08,0.02,0.07,0.97,
0.172,0.32,0.06,-0.08,0.02,0.07,0.97,
0.174,0.32,0.06,-0.08,0.02,0.07,0.97,
0.174,0.31,0.01,-0.08,0.02,0.07,0.97,
0.176,0.31,0.01,-0.08,0.03,0.07,0.97,
0.18,0.31,0.01,-0.08,0.03,0.07,0.97,
0.18,0.33,-0.03,-0.08,0.03,0.07,0.97,
0.182,0.33,-0.03,-0.08,0.03,0.07,0.97,
0.184,0.33,-0.03,-0.08,0.03,0.06,0.97,
0.184,0.36,-0.07,-0.07,0.03,0.06,0.97,
0.186,0.36,-0.07,-0.07,0.03,0.06,0.98,
0.189,0.36,-0.07,-0.07,0.03,0.06,0.98,
0.189,0.38,-0.10,-0.04,0.03,0.06,0.98,
0.191,0.38,-0.10,-0.04,0.03,0.06,0.98,
0.193,0.38,-0.10,-0.04,0.03,0.06,0.98,
0.194,0.39,-0.13,0.01,0.03,0.06,0.98,
0.196,0.39,-0.13,0.01,0.04,0.05,0.99,
0.198,0.39,-0.13,0.01,0.04,0.05,0.99,
0.198,0.41,-0.17,0.05,0.04,0.05,0.99,
0.201,0.41,-0.17,0.05,0.04,0.05,1.00,
0.203,0.41,-0.17,0.05,0.04,0.05,1.00,
0.204,0.45,-0.20,0.12,0.04,0.05,1.00,
0.206,0.45,-0.20,0.12,0.05,0.05,1.00,
0.208,0.45,-0.20,0.12,0.06,0.05,1.01,
0.208,0.49,-0.22,0.21,0.06,0.05,1.01,
0.211,0.49,-0.22,0.21,0.06,0.05,1.01,
0.213,0.49,-0.22,0.21,0.06,0.05,1.01,
0.214,0.59,-0.22,0.26,0.06,0.05,1.01,
0.216,0.59,-0.22,0.26,0.07,0.05,1.01,
0.218,0.59,-0.22,0.26,0.07,0.05,1.01,
0.218,0.66,-0.23,0.31,0.07,0.05,1.01,
0.22,0.66,-0.23,0.31,0.07,0.05,1.02,
0.223,0.66,-0.23,0.31,0.08,0.05,1.02,
0.223,0.72,-0.24,0.35,0.08,0.05,1.02,
0.225,0.72,-0.24,0.35,0.08,0.05,1.01,
0.228,0.72,-0.24,0.35,0.08,0.05,1.01,
0.228,0.78,-0.25,0.36,0.08,0.05,1.01,
0.231,0.78,-0.25,0.36,0.08,0.05,1.01,
0.233,0.78,-0.25,0.36,0.08,0.05,1.01,
0.233,0.80,-0.23,0.32,0.08,0.05,1.01,
0.235,0.80,-0.23,0.32,0.08,0.05,1.01,
0.238,0.80,-0.23,0.32,0.09,0.05,1.00,
0.238,0.81,-0.24,0.29,0.09,0.05,1.00,
0.24,0.81,-0.24,0.29,0.09,0.05,1.00,
0.243,0.81,-0.24,0.29,0.09,0.05,0.99,
0.243,0.85,-0.26,0.25,0.09,0.05,0.99,
0.246,0.85,-0.26,0.25,0.08,0.05,0.99,
0.248,0.85,-0.26,0.25,0.08,0.05,0.99,
0.248,0.84,-0.28,0.16,0.08,0.05,0.99,
0.25,0.84,-0.28,0.16,0.08,0.04,0.98,
0.253,0.84,-0.28,0.16,0.08,0.04,0.98,
0.253,0.81,-0.30,0.08,0.08,0.04,0.98,
0.255,0.81,-0.30,0.08,0.08,0.04,0.98,
0.257,0.81,-0.30,0.08,0.08,0.04,0.97,
0.257,0.79,-0.34,0.01,0.08,0.04,0.97,
0.26,0.79,-0.34,0.01,0.07,0.03,0.97,
0.262,0.79,-0.34,0.01,0.07,0.03,0.97,
0.263,0.75,-0.39,-0.06,0.07,0.03,0.97,
0.265,0.75,-0.39,-0.06,0.07,0.03,0.97,
0.267,0.75,-0.39,-0.06,0.06,0.03,0.96,
0.267,0.67,-0.45,-0.12,0.06,0.03,0.96,
0.269,0.67,-0.45,-0.12,0.06,0.02,0.96,
0.272,0.67,-0.45,-0.12,0.06,0.02,0.96,
0.272,0.60,-0.49,-0.15,0.06,0.02,0.96,
0.274,0.60,-0.49,-0.15,0.05,0.01,0.96,
0.277,0.60,-0.49,-0.15,0.05,0.01,0.96,
0.277,0.53,-0.57,-0.19,0.05,0.01,0.96,
0.282,0.53,-0.57,-0.19,0.05,0.01,0.96,
0.283,0.53,-0.57,-0.19,0.05,0.00,0.96,
0.283,0.46,-0.63,-0.21,0.05,0.00,0.96,
0.284,0.46,-0.63,-0.21,0.05,0.00,0.96,
0.287,0.46,-0.63,-0.21,0.05,-0.00,0.96,
0.287,0.40,-0.70,-0.20,0.05,-0.00,0.96,
0.289,0.40,-0.70,-0.20,0.05,-0.00,0.96,
0.292,0.40,-0.70,-0.20,0.05,-0.01,0.97,
0.292,0.39,-0.75,-0.17,0.05,-0.01,0.97,
0.294,0.39,-0.75,-0.17,0.05,-0.01,0.97,
0.297,0.39,-0.75,-0.17,0.05,-0.01,0.97,
0.297,0.38,-0.80,-0.13,0.05,-0.01,0.97,
0.299,0.38,-0.80,-0.13,0.05,-0.01,0.98,
0.302,0.38,-0.80,-0.13,0.05,-0.01,0.98,
0.302,0.37,-0.83,-0.08,0.05,-0.01,0.98,
0.304,0.37,-0.83,-0.08,0.05,-0.00,0.98,
0.306,0.37,-0.83,-0.08,0.05,-0.00,0.99,
0.306,0.34,-0.82,-0.01,0.05,-0.00,0.99,
0.309,0.34,-0.82,-0.01,0.05,-0.00,0.99,
0.312,0.34,-0.82,-0.01,0.05,-0.00,1.00,
0.312,0.35,-0.79,0.07,0.05,-0.00,1.00,
0.314,0.35,-0.79,0.07,0.05,-0.00,1.00,
0.317,0.36,-0.77,0.15,0.05,-0.00,1.00,
0.317,0.36,-0.77,0.15,0.06,0.00,1.00,
0.319,0.36,-0.77,0.15,0.06,0.00,1.01,
0.321,0.36,-0.77,0.15,0.06,0.00,1.01,
0.321,0.38,-0.75,0.23,0.06,0.00,1.01,
0.323,0.38,-0.75,0.23,0.06,0.01,1.01,
0.326,0.38,-0.75,0.23,0.06,0.01,1.00,
0.326,0.40,-0.72,0.27,0.06,0.01,1.00,
0.329,0.40,-0.72,0.27,0.06,0.01,1.01,
0.331,0.40,-0.72,0.27,0.06,0.01,1.01,
0.331,0.41,-0.70,0.26,0.06,0.01,1.01,
0.333,0.41,-0.70,0.26,0.06,0.01,1.00,
0.336,0.41,-0.70,0.26,0.07,0.01,1.00,
0.336,0.41,-0.67,0.26,0.07,0.01,1.00,
0.338,0.41,-0.67,0.26,0.07,0.01,1.00,
0.341,0.41,-0.67,0.26,0.07,0.01,0.99,
0.341,0.41,-0.66,0.21,0.07,0.01,0.99,
0.343,0.41,-0.66,0.21,0.07,0.01,0.99,
0.346,0.41,-0.66,0.21,0.07,0.01,0.98,
0.346,0.42,-0.66,0.15,0.07,0.01,0.98,
0.348,0.42,-0.66,0.15,0.07,0.01,0.98,
0.351,0.42,-0.66,0.15,0.07,0.01,0.97,
0.351,0.40,-0.65,0.06,0.07,0.01,0.97,
0.353,0.40,-0.65,0.06,0.07,0.01,0.97,
0.355,0.40,-0.65,0.06,0.06,0.01,0.96,
0.355,0.38,-0.65,-0.04,0.06,0.01,0.96,
0.358,0.38,-0.65,-0.04,0.06,0.02,0.96,
0.36,0.38,-0.65,-0.04,0.06,0.02,0.95,
0.361,0.35,-0.67,-0.15,0.06,0.02,0.95,
0.369,0.35,-0.67,-0.15,0.06,0.02,0.95,
0.369,0.35,-0.67,-0.15,0.06,0.02,0.94,
0.37,0.31,-0.65,-0.24,0.06,0.02,0.94,
0.37,0.31,-0.65,-0.24,0.06,0.02,0.94,
0.37,0.31,-0.65,-0.24,0.06,0.02,0.94,
0.37,0.27,-0.64,-0.32,0.06,0.02,0.94,
0.372,0.27,-0.64,-0.32,0.06,0.02,0.94,
0.375,0.27,-0.64,-0.32,0.06,0.02,0.94,
0.375,0.23,-0.62,-0.38,0.06,0.02,0.94,
0.377,0.23,-0.62,-0.38,0.06,0.02,0.94,
0.38,0.23,-0.62,-0.38,0.05,0.02,0.94,
0.38,0.20,-0.59,-0.39,0.05,0.02,0.94,
0.382,0.20,-0.59,-0.39,0.05,0.02,0.94,
0.385,0.20,-0.59,-0.39,0.05,0.02,0.94,
0.385,0.17,-0.58,-0.40,0.05,0.02,0.94,
0.387,0.17,-0.58,-0.40,0.05,0.03,0.94,
0.389,0.17,-0.58,-0.40,0.05,0.02,0.94,
0.39,0.16,-0.57,-0.38,0.05,0.02,0.94,
0.392,0.16,-0.57,-0.38,0.05,0.02,0.94,
0.395,0.16,-0.57,-0.38,0.05,0.03,0.94,
0.395,0.13,-0.57,-0.35,0.05,0.03,0.94,
0.397,0.13,-0.57,-0.35,0.05,0.03,0.94,
0.399,0.13,-0.57,-0.35,0.05,0.03,0.95,
0.399,0.11,-0.56,-0.32,0.05,0.03,0.95,
0.402,0.11,-0.56,-0.32,0.04,0.03,0.95,
0.404,0.11,-0.56,-0.32,0.04,0.03,0.95,
0.404,0.06,-0.53,-0.29,0.04,0.03,0.95,
0.406,0.06,-0.53,-0.29,0.04,0.03,0.95,
0.409,0.06,-0.53,-0.29,0.04,0.04,0.96,
0.409,0.02,-0.49,-0.26,0.04,0.04,0.96,
0.412,0.02,-0.49,-0.26,0.04,0.04,0.96,
0.414,0.02,-0.49,-0.26,0.04,0.04,0.96,
0.414,0.00,-0.46,-0.20,0.04,0.04,0.96,
0.416,0.00,-0.46,-0.20,0.03,0.04,0.96,
0.419,0.00,-0.46,-0.20,0.03,0.04,0.96,
0.419,-0.07,-0.45,-0.11,0.03,0.04,0.96,
0.421,-0.07,-0.45,-0.11,0.03,0.04,0.97,
0.424,-0.07,-0.45,-0.11,0.03,0.04,0.97,
0.424,-0.10,-0.43,-0.10,0.03,0.04,0.97,
0.426,-0.10,-0.43,-0.10,0.03,0.04,0.97,
0.429,-0.10,-0.43,-0.10,0.03,0.04,0.97,
0.429,-0.14,-0.43,-0.06,0.03,0.04,0.97,
0.431,-0.14,-0.43,-0.06,0.02,0.04,0.97,
0.434,-0.14,-0.43,-0.06,0.02,0.04,0.97,
0.434,-0.19,-0.40,-0.03,0.02,0.04,0.97,
0.436,-0.19,-0.40,-0.03,0.02,0.04,0.97,
0.438,-0.19,-0.40,-0.03,0.01,0.04,0.97,
0.439,-0.25,-0.37,-0.01,0.01,0.04,0.97,
0.441,-0.25,-0.37,-0.01,0.01,0.05,0.98,
0.443,-0.25,-0.37,-0.01,0.01,0.04,0.98,
0.444,-0.31,-0.38,0.00,0.01,0.04,0.98,
0.446,-0.31,-0.38,0.00,0.01,0.04,0.98,
0.448,-0.31,-0.38,0.00,0.00,0.04,0.98,
0.449,-0.36,-0.36,0.03,0.00,0.04,0.98,
0.451,-0.36,-0.36,0.03,0.00,0.04,0.98,
0.453,-0.36,-0.36,0.03,-0.00,0.04,0.98,
0.454,-0.43,-0.37,0.04,-0.00,0.04,0.98,
0.456,-0.43,-0.37,0.04,-0.01,0.04,0.98,
0.458,-0.43,-0.37,0.04,-0.01,0.04,0.98,
0.458,-0.47,-0.38,0.02,-0.01,0.04,0.98,
0.46,-0.47,-0.38,0.02,-0.01,0.03,0.98,
0.465,-0.47,-0.38,0.02,-0.01,0.03,0.98,
0.466,-0.55,-0.42,0.03,-0.01,0.03,0.98,
0.466,-0.55,-0.42,0.03,-0.02,0.03,0.98,
0.468,-0.55,-0.42,0.03,-0.02,0.03,0.98,
0.468,-0.61,-0.47,0.05,-0.02,0.03,0.98,
0.47,-0.61,-0.47,0.05,-0.02,0.02,0.98,
0.473,-0.61,-0.47,0.05,-0.02,0.02,0.99,
0.473,-0.68,-0.50,0.08,-0.02,0.02,0.99,
0.475,-0.68,-0.50,0.08,-0.03,0.02,0.99,
0.478,-0.68,-0.50,0.08,-0.04,0.01,0.99,
0.478,-0.72,-0.54,0.12,-0.04,0.01,0.99,
0.48,-0.72,-0.54,0.12,-0.04,0.01,0.99,
0.483,-0.72,-0.54,0.12,-0.05,0.01,0.99,
0.483,-0.81,-0.61,0.15,-0.05,0.01,0.99,
0.485,-0.81,-0.61,0.15,-0.05,0.01,0.99,
0.488,-0.81,-0.61,0.15,-0.05,0.01,1.00,
0.488,-0.93,-0.63,0.17,-0.05,0.01,1.00,
0.49,-0.93,-0.63,0.17,-0.06,0.01,1.00,
0.492,-0.93,-0.63,0.17,-0.06,0.01,1.00,
0.493,-1.01,-0.64,0.20,-0.06,0.01,1.00,
0.495,-1.01,-0.64,0.20,-0.06,0.01,1.00,
0.497,-1.01,-0.64,0.20,-0.06,0.01,1.00,
0.497,-1.06,-0.66,0.26,-0.06,0.01,1.00,
0.5,-1.06,-0.66,0.26,-0.07,0.01,1.00,
0.502,-1.06,-0.66,0.26,-0.07,0.01,1.00,
0.502,-1.10,-0.68,0.27,-0.07,0.01,1.00,
0.505,-1.10,-0.68,0.27,-0.07,0.01,1.00,
0.507,-1.10,-0.68,0.27,-0.07,0.01,1.00,
0.507,-1.17,-0.67,0.29,-0.07,0.01,1.00,
0.509,-1.17,-0.67,0.29,-0.07,0.01,1.00,
0.512,-1.17,-0.67,0.29,-0.07,0.01,1.00,
0.512,-1.18,-0.66,0.26,-0.07,0.01,1.00,
0.514,-1.18,-0.66,0.26,-0.07,0.01,1.00,
0.517,-1.18,-0.66,0.26,-0.07,0.01,1.00,
0.517,-1.17,-0.65,0.23,-0.07,0.01,1.00,
0.519,-1.17,-0.65,0.23,-0.06,0.01,0.99,
0.522,-1.17,-0.65,0.23,-0.06,0.01,0.99,
0.522,-1.15,-0.64,0.21,-0.06,0.01,0.99,
0.524,-1.15,-0.64,0.21,-0.06,0.01,0.99,
0.526,-1.15,-0.64,0.21,-0.05,0.01,0.99,
0.527,-1.10,-0.60,0.17,-0.05,0.01,0.99,
0.529,-1.10,-0.60,0.17,-0.05,0.01,0.99,
0.531,-1.10,-0.60,0.17,-0.05,0.01,0.99,
0.532,-1.01,-0.57,0.16,-0.05,0.01,0.99,
0.534,-1.01,-0.57,0.16,-0.04,0.01,0.99,
0.536,-1.01,-0.57,0.16,-0.04,0.01,0.99,
0.537,-0.95,-0.58,0.14,-0.04,0.01,0.99,
0.539,-0.95,-0.58,0.14,-0.04,0.01,0.99,
0.541,-0.95,-0.58,0.14,-0.04,0.01,0.99,
0.541,-0.88,-0.56,0.14,-0.04,0.01,0.99,
0.544,-0.88,-0.56,0.14,-0.04,0.01,0.99,
0.546,-0.88,-0.56,0.14,-0.04,0.01,0.99,
0.547,-0.86,-0.55,0.15,-0.04,0.01,0.99,
0.549,-0.86,-0.55,0.15,-0.04,0.02,1.00,
0.551,-0.86,-0.55,0.15,-0.05,0.02,1.00,
0.551,-0.85,-0.53,0.17,-0.05,0.02,1.00,
0.553,-0.85,-0.53,0.17,-0.05,0.02,1.00,
0.556,-0.85,-0.53,0.17,-0.06,0.02,1.00,
0.556,-0.89,-0.50,0.21,-0.06,0.02,1.00,
0.558,-0.89,-0.50,0.21,-0.06,0.02,1.00,
0.561,-0.89,-0.50,0.21,-0.06,0.02,1.00,
0.562,-0.96,-0.48,0.22,-0.06,0.02,1.00,
0.563,-0.96,-0.48,0.22,-0.06,0.02,1.00,
0.566,-0.96,-0.48,0.22,-0.07,0.02,1.01,
0.566,-1.02,-0.45,0.26,-0.07,0.02,1.01,
0.568,-1.02,-0.45,0.26,-0.07,0.02,1.01,
0.571,-1.02,-0.45,0.26,-0.07,0.02,1.01,
0.571,-1.06,-0.45,0.28,-0.07,0.02,1.01,
0.573,-1.06,-0.45,0.28,-0.08,0.02,1.01,
0.576,-1.06,-0.45,0.28,-0.08,0.01,1.01,
0.576,-1.10,-0.46,0.29,-0.08,0.01,1.01,
0.584,-1.10,-0.46,0.29,-0.08,0.01,1.01,
0.584,-1.10,-0.46,0.29,-0.08,0.01,1.00,
0.585,-1.16,-0.47,0.29,-0.08,0.01,1.00,
0.585,-1.16,-0.47,0.29,-0.08,0.01,1.00,
0.586,-1.16,-0.47,0.29,-0.08,0.01,1.00,
0.586,-1.17,-0.49,0.27,-0.08,0.01,1.00,
0.588,-1.17,-0.49,0.27,-0.08,0.01,1.00,
0.591,-1.17,-0.49,0.27,-0.08,0.02,1.00,
0.591,-1.18,-0.47,0.22,-0.08,0.02,1.00,
0.593,-1.18,-0.47,0.22,-0.08,0.02,0.99,
0.595,-1.18,-0.47,0.22,-0.08,0.02,0.99,
0.596,-1.17,-0.46,0.18,-0.08,0.02,0.99,
0.597,-1.17,-0.46,0.18,-0.07,0.03,0.99,
0.6,-1.17,-0.46,0.18,-0.07,0.03,0.98,
0.6,-1.14,-0.39,0.12,-0.07,0.03,0.98,
0.602,-1.14,-0.39,0.12,-0.07,0.03,0.98,
0.605,-1.14,-0.39,0.12,-0.07,0.03,0.98,
0.605,-1.08,-0.33,0.06,-0.07,0.03,0.98,
0.608,-1.08,-0.33,0.06,-0.06,0.03,0.98,
0.61,-1.02,-0.28,0.04,-0.06,0.03,0.98,
0.61,-1.02,-0.28,0.04,-0.06,0.04,0.97,
0.612,-1.02,-0.28,0.04,-0.06,0.04,0.97,
0.616,-1.02,-0.28,0.04,-0.06,0.04,0.97,
0.616,-0.96,-0.23,-0.03,-0.06,0.04,0.97,
0.617,-0.96,-0.23,-0.03,-0.06,0.04,0.97,
0.62,-0.96,-0.23,-0.03,-0.06,0.05,0.97,
0.62,-0.91,-0.20,-0.07,-0.06,0.05,0.97,
0.622,-0.91,-0.20,-0.07,-0.06,0.05,0.96,
0.625,-0.91,-0.20,-0.07,-0.06,0.05,0.96,
0.625,-0.90,-0.14,-0.10,-0.06,0.05,0.96,
0.627,-0.90,-0.14,-0.10,-0.06,0.06,0.96,
0.63,-0.90,-0.14,-0.10,-0.06,0.06,0.96,
0.63,-0.89,-0.05,-0.15,-0.06,0.06,0.96,
0.632,-0.89,-0.05,-0.15,-0.06,0.06,0.96,
0.634,-0.89,-0.05,-0.15,-0.06,0.06,0.96,
0.635,-0.89,0.02,-0.19,-0.06,0.06,0.96,
0.637,-0.89,0.02,-0.19,-0.06,0.07,0.96,
0.639,-0.89,0.02,-0.19,-0.07,0.07,0.96,
0.64,-0.93,0.08,-0.20,-0.07,0.07,0.96,
0.642,-0.93,0.08,-0.20,-0.07,0.07,0.96,
0.644,-0.93,0.08,-0.20,-0.07,0.07,0.97,
0.645,-0.94,0.14,-0.18,-0.07,0.07,0.97,
0.647,-0.94,0.14,-0.18,-0.07,0.07,0.97,
0.649,-0.94,0.14,-0.18,-0.08,0.07,0.97,
0.649,-0.97,0.19,-0.13,-0.08,0.07,0.97,
0.651,-0.97,0.19,-0.13,-0.08,0.07,0.97,
0.654,-0.97,0.19,-0.13,-0.08,0.07,0.97,
0.656,-1.02,0.19,-0.11,-0.08,0.07,0.97,
0.657,-1.02,0.19,-0.11,-0.08,0.07,0.97,
0.659,-1.02,0.19,-0.11,-0.09,0.07,0.97,
0.66,-1.06,0.20,-0.06,-0.09,0.07,0.97,
0.661,-1.06,0.20,-0.06,-0.09,0.07,0.98,
0.664,-1.06,0.20,-0.06,-0.09,0.07,0.98,
0.664,-1.10,0.20,-0.04,-0.09,0.07,0.98,
0.666,-1.10,0.20,-0.04,-0.09,0.07,0.97,
0.669,-1.10,0.20,-0.04,-0.09,0.07,0.98,
0.669,-1.11,0.21,-0.02,-0.09,0.07,0.98,
0.671,-1.11,0.21,-0.02,-0.09,0.07,0.97,
0.674,-1.11,0.21,-0.02,-0.09,0.07,0.97,
0.674,-1.11,0.22,-0.02,-0.09,0.07,0.97,
0.676,-1.11,0.22,-0.02,-0.09,0.07,0.97,
0.683,-1.11,0.22,-0.02,-0.09,0.07,0.97,
0.684,-1.10,0.20,-0.04,-0.09,0.07,0.97,
0.684,-1.10,0.20,-0.04,-0.09,0.07,0.97,
0.684,-1.10,0.20,-0.04,-0.09,0.07,0.96,
0.685,-1.11,0.22,-0.07,-0.09,0.07,0.96,
0.686,-1.11,0.22,-0.07,-0.09,0.08,0.96,
0.688,-1.11,0.22,-0.07,-0.09,0.08,0.95,
0.688,-1.06,0.23,-0.13,-0.09,0.08,0.95,
0.691,-1.06,0.23,-0.13,-0.09,0.08,0.95,
0.697,-1.06,0.23,-0.13,-0.08,0.08,0.94,
0.698,-1.06,0.26,-0.20,-0.08,0.08,0.94,
0.698,-1.06,0.26,-0.20,-0.08,0.09,0.94,
0.698,-1.06,0.26,-0.20,-0.08,0.09,0.94,
0.699,-1.03,0.32,-0.31,-0.08,0.09,0.94,
0.7,-1.03,0.32,-0.31,-0.08,0.09,0.93,
0.703,-1.03,0.32,-0.31,-0.09,0.10,0.93,
0.703,-0.99,0.39,-0.36,-0.09,0.10,0.93,
0.705,-0.99,0.39,-0.36,-0.09,0.11,0.93,
0.708,-0.99,0.39,-0.36,-0.09,0.11,0.93,
0.708,-0.99,0.48,-0.42,-0.09,0.11,0.93,
0.71,-0.99,0.48,-0.42,-0.09,0.11,0.93,
0.713,-0.99,0.48,-0.42,-0.09,0.12,0.93,
0.713,-1.02,0.59,-0.46,-0.09,0.12,0.93,
0.716,-1.02,0.59,-0.46,-0.09,0.12,0.93,
0.718,-1.02,0.59,-0.46,-0.10,0.12,0.93,
0.718,-1.00,0.68,-0.45,-0.10,0.12,0.93,
0.72,-1.00,0.68,-0.45,-0.10,0.12,0.94,
0.723,-1.00,0.68,-0.45,-0.10,0.13,0.94,
0.723,-1.02,0.75,-0.42,-0.10,0.13,0.94,
0.725,-1.02,0.75,-0.42,-0.10,0.13,0.95,
0.728,-1.02,0.75,-0.42,-0.10,0.13,0.95,
0.729,-1.03,0.79,-0.33,-0.10,0.13,0.95,
0.73,-1.03,0.79,-0.33,-0.10,0.13,0.96,
0.733,-1.03,0.79,-0.33,-0.10,0.13,0.97,
0.733,-1.01,0.82,-0.24,-0.10,0.13,0.97,
0.735,-1.01,0.82,-0.24,-0.10,0.13,0.97,
0.737,-1.01,0.82,-0.24,-0.10,0.13,0.98,
0.737,-1.01,0.83,-0.11,-0.10,0.13,0.98,
0.74,-1.01,0.83,-0.11,-0.10,0.12,0.99,
0.742,-1.01,0.83,-0.11,-0.10,0.12,0.99,
0.742,-0.98,0.84,0.02,-0.10,0.12,0.99,
0.745,-0.98,0.84,0.02,-0.10,0.12,1.00,
0.747,-0.98,0.84,0.02,-0.10,0.12,1.01,
0.747,-0.95,0.83,0.15,-0.10,0.12,1.01,
0.749,-0.95,0.83,0.15,-0.10,0.12,1.01,
0.752,-0.95,0.83,0.15,-0.09,0.12,1.01,
0.752,-0.92,0.83,0.27,-0.09,0.12,1.01,
0.754,-0.92,0.83,0.27,-0.09,0.12,1.02,
0.757,-0.92,0.83,0.27,-0.09,0.12,1.02,
0.757,-0.89,0.81,0.34,-0.09,0.12,1.02,
0.759,-0.89,0.81,0.34,-0.09,0.12,1.02,
0.766,-0.89,0.81,0.34,-0.09,0.12,1.02,
0.766,-0.86,0.83,0.39,-0.09,0.12,1.02,
0.767,-0.86,0.83,0.39,-0.09,0.12,1.02,
0.767,-0.86,0.83,0.39,-0.09,0.12,1.01,
0.767,-0.85,0.83,0.40,-0.09,0.12,1.01,
0.769,-0.85,0.83,0.40,-0.09,0.12,1.01,
0.771,-0.85,0.83,0.40,-0.09,0.12,1.01,
0.772,-0.83,0.82,0.37,-0.09,0.12,1.01,
0.774,-0.83,0.82,0.37,-0.09,0.11,1.00,
0.777,-0.83,0.82,0.37,-0.10,0.11,1.00,
0.778,-0.81,0.80,0.33,-0.10,0.11,1.00,
0.779,-0.81,0.80,0.33,-0.10,0.11,0.99,
0.781,-0.81,0.80,0.33,-0.10,0.11,0.99,
0.781,-0.82,0.78,0.24,-0.10,0.11,0.99,
0.783,-0.82,0.78,0.24,-0.10,0.11,0.98,
0.786,-0.82,0.78,0.24,-0.10,0.11,0.98,
0.786,-0.85,0.77,0.13,-0.10,0.11,0.98,
0.789,-0.85,0.77,0.13,-0.11,0.11,0.97,
0.791,-0.85,0.77,0.13,-0.11,0.11,0.96,
0.791,-0.86,0.79,0.01,-0.11,0.11,0.96,
0.793,-0.86,0.79,0.01,-0.11,0.11,0.96,
0.796,-0.86,0.79,0.01,-0.12,0.11,0.95,
0.797,-0.90,0.76,-0.13,-0.12,0.11,0.95,
0.798,-0.90,0.76,-0.13,-0.12,0.11,0.95,
0.801,-0.90,0.76,-0.13,-0.12,0.11,0.95,
0.802,-0.93,0.78,-0.23,-0.12,0.11,0.95,
0.803,-0.93,0.78,-0.23,-0.12,0.11,0.95,
0.806,-0.93,0.78,-0.23,-0.13,0.11,0.95,
0.806,-0.97,0.80,-0.28,-0.13,0.11,0.95,
0.808,-0.97,0.80,-0.28,-0.13,0.11,0.95,
0.811,-0.97,0.80,-0.28,-0.14,0.11,0.95,
0.811,-1.02,0.83,-0.28,-0.14,0.11,0.95,
0.813,-1.02,0.83,-0.28,-0.14,0.11,0.96,
0.816,-1.02,0.83,-0.28,-0.15,0.11,0.97,
0.816,-1.09,0.83,-0.23,-0.15,0.11,0.97,
0.819,-1.09,0.83,-0.23,-0.14,0.11,0.97,
0.82,-1.09,0.83,-0.23,-0.14,0.11,0.98,
0.821,-1.15,0.82,-0.13,-0.14,0.11,0.98,
0.823,-1.15,0.82,-0.13,-0.14,0.11,0.99,
0.825,-1.15,0.82,-0.13,-0.14,0.11,1.00,
0.826,-1.12,0.81,0.02,-0.14,0.11,1.00,
0.828,-1.12,0.81,0.02,-0.14,0.11,1.01,
0.831,-1.12,0.81,0.02,-0.14,0.12,1.02,
0.831,-1.08,0.84,0.19,-0.14,0.12,1.02,
0.833,-1.08,0.84,0.19,-0.13,0.12,1.03,
0.835,-1.08,0.84,0.19,-0.13,0.12,1.03,
0.836,-1.04,0.90,0.34,-0.13,0.12,1.03,
0.838,-1.04,0.90,0.34,-0.12,0.12,1.04,
0.84,-1.04,0.90,0.34,-0.11,0.12,1.05,
0.84,-0.96,0.94,0.51,-0.11,0.12,1.05,
0.843,-0.96,0.94,0.51,-0.10,0.13,1.05,
0.845,-0.96,0.94,0.51,-0.09,0.13,1.05,
0.846,-0.82,0.98,0.64,-0.09,0.13,1.05,
0.848,-0.82,0.98,0.64,-0.08,0.13,1.05,
0.85,-0.82,0.98,0.64,-0.07,0.14,1.05,
0.85,-0.63,1.04,0.72,-0.07,0.14,1.05,
0.852,-0.63,1.04,0.72,-0.06,0.14,1.05,
0.855,-0.63,1.04,0.72,-0.06,0.14,1.05,
0.855,-0.41,1.09,0.71,-0.06,0.14,1.05,
0.857,-0.41,1.09,0.71,-0.05,0.15,1.04,
0.86,-0.41,1.09,0.71,-0.04,0.15,1.03,
0.86,-0.21,1.18,0.66,-0.04,0.15,1.03,
0.862,-0.21,1.18,0.66,-0.04,0.16,1.02,
0.865,-0.21,1.18,0.66,-0.03,0.16,1.01,
0.865,-0.08,1.26,0.54,-0.03,0.16,1.01,
0.867,-0.08,1.26,0.54,-0.03,0.16,1.00,
0.869,-0.08,1.26,0.54,-0.03,0.17,0.99,
0.869,0.06,1.32,0.36,-0.03,0.17,0.99,
0.872,0.06,1.32,0.36,-0.02,0.17,0.98,
0.874,0.12,1.38,0.14,-0.02,0.17,0.98,
0.874,0.12,1.38,0.14,-0.02,0.17,0.97,
0.882,0.12,1.38,0.14,-0.02,0.17,0.96,
0.882,0.12,1.38,0.14,-0.02,0.17,0.95,
0.883,0.17,1.42,-0.08,-0.02,0.17,0.95,
0.883,0.17,1.42,-0.08,-0.02,0.17,0.94,
0.884,0.17,1.42,-0.08,-0.02,0.17,0.93,
0.884,0.20,1.43,-0.29,-0.02,0.17,0.93,
0.887,0.20,1.43,-0.29,-0.03,0.18,0.92,
0.889,0.20,1.43,-0.29,-0.03,0.18,0.91,
0.889,0.21,1.43,-0.48,-0.03,0.18,0.91,
0.891,0.21,1.43,-0.48,-0.04,0.17,0.91,
0.895,0.21,1.43,-0.48,-0.04,0.17,0.90,
0.895,0.15,1.45,-0.62,-0.04,0.17,0.90,
0.896,0.15,1.45,-0.62,-0.05,0.17,0.90,
0.899,0.15,1.45,-0.62,-0.05,0.17,0.90,
0.899,0.05,1.43,-0.71,-0.05,0.17,0.90,
0.901,0.05,1.43,-0.71,-0.06,0.17,0.90,
0.904,-0.02,1.41,-0.75,-0.06,0.17,0.90,
0.904,-0.02,1.41,-0.75,-0.07,0.17,0.90,
0.906,-0.02,1.41,-0.75,-0.07,0.16,0.90,
0.908,-0.02,1.41,-0.75,-0.08,0.16,0.91,
0.909,-0.14,1.39,-0.75,-0.08,0.16,0.91,
0.911,-0.14,1.39,-0.75,-0.08,0.16,0.91,
0.913,-0.14,1.39,-0.75,-0.08,0.16,0.92,
0.914,-0.23,1.33,-0.69,-0.08,0.16,0.92,
0.916,-0.23,1.33,-0.69,-0.08,0.16,0.93,
0.918,-0.23,1.33,-0.69,-0.08,0.15,0.94,
0.919,-0.27,1.31,-0.58,-0.08,0.15,0.94,
0.921,-0.27,1.31,-0.58,-0.08,0.15,0.95,
0.923,-0.27,1.31,-0.58,-0.08,0.15,0.96,
0.923,-0.28,1.28,-0.43,-0.08,0.15,0.96,
0.926,-0.28,1.28,-0.43,-0.07,0.15,0.97,
0.928,-0.28,1.28,-0.43,-0.07,0.15,0.97,
0.929,-0.25,1.26,-0.24,-0.07,0.15,0.97,
0.931,-0.25,1.26,-0.24,-0.06,0.15,0.98,
0.933,-0.25,1.26,-0.24,-0.06,0.14,0.99,
0.934,-0.18,1.21,-0.06,-0.06,0.14,0.99,
0.936,-0.18,1.21,-0.06,-0.05,0.14,1.00,
0.938,-0.18,1.21,-0.06,-0.05,0.14,1.00,
0.938,-0.07,1.18,0.10,-0.05,0.14,1.00,
0.94,-0.07,1.18,0.10,-0.04,0.14,1.01,
0.943,-0.07,1.18,0.10,-0.04,0.14,1.01,
0.944,0.03,1.17,0.23,-0.04,0.14,1.01,
0.945,0.03,1.17,0.23,-0.03,0.14,1.01,
0.948,0.03,1.17,0.23,-0.03,0.14,1.01,
0.948,0.14,1.14,0.32,-0.03,0.14,1.01,
0.95,0.14,1.14,0.32,-0.02,0.14,1.01,
0.953,0.14,1.14,0.32,-0.02,0.14,1.01,
0.953,0.22,1.11,0.36,-0.02,0.14,1.01,
0.955,0.22,1.11,0.36,-0.02,0.14,1.01,
0.958,0.22,1.11,0.36,-0.02,0.14,1.01,
0.958,0.32,1.10,0.35,-0.02,0.14,1.01,
0.965,0.32,1.10,0.35,-0.01,0.14,1.00,
0.966,0.32,1.10,0.35,-0.01,0.14,1.00,
0.966,0.37,1.11,0.30,-0.01,0.14,1.00,
0.966,0.37,1.11,0.30,-0.01,0.14,1.00,
0.968,0.37,1.11,0.30,-0.01,0.14,0.99,
0.968,0.43,1.13,0.23,-0.01,0.14,0.99,
0.97,0.43,1.13,0.23,-0.01,0.14,0.99,
0.972,0.43,1.13,0.23,-0.01,0.14,0.99,
0.972,0.47,1.15,0.17,-0.01,0.14,0.99,
0.975,0.47,1.15,0.17,-0.01,0.14,0.99,
0.977,0.47,1.15,0.17,-0.00,0.14,0.99,
0.978,0.48,1.16,0.12,-0.00,0.14,0.99,
0.979,0.48,1.16,0.12,-0.01,0.14,0.99,
0.982,0.48,1.16,0.12,-0.01,0.14,0.99,
0.982,0.53,1.17,0.11,-0.01,0.14,0.99,
0.985,0.53,1.17,0.11,-0.01,0.14,0.99,
0.987,0.53,1.17,0.11,-0.01,0.14,1.00,
0.987,0.53,1.17,0.12,-0.01,0.14,1.00,
0.989,0.53,1.17,0.12,-0.01,0.14,1.00,
0.993,0.53,1.17,0.12,-0.02,0.14,1.00,
0.993,0.51,1.18,0.16,-0.02,0.14,1.00,
0.994,0.51,1.18,0.16,-0.02,0.14,1.01,
0.998,0.45,1.19,0.22,-0.02,0.14,1.01,
0.998,0.45,1.19,0.22,-0.02,0.14,1.01,
0.999,0.45,1.19,0.22,-0.02,0.14,1.01,
1.002,0.45,1.19,0.22,-0.03,0.13,1.02,
1.002,0.42,1.17,0.28,-0.03,0.13,1.02,
1.004,0.42,1.17,0.28,-0.03,0.13,1.02,
1.006,0.42,1.17,0.28,-0.03,0.13,1.02,
1.007,0.37,1.13,0.36,-0.03,0.13,1.02,
1.009,0.37,1.13,0.36,-0.02,0.12,1.03,
1.012,0.37,1.13,0.36,-0.02,0.12,1.03,
1.012,0.37,1.07,0.43,-0.02,0.12,1.03,
1.014,0.37,1.07,0.43,-0.02,0.12,1.03,
1.016,0.37,1.07,0.43,-0.02,0.12,1.03,
1.017,0.40,1.00,0.48,-0.02,0.12,1.03,
1.019,0.40,1.00,0.48,-0.01,0.12,1.03,
1.021,0.40,1.00,0.48,-0.01,0.12,1.03,
1.021,0.45,0.95,0.52,-0.01,0.12,1.03,
1.024,0.45,0.95,0.52,-0.00,0.12,1.03,
1.027,0.45,0.95,0.52,-0.00,0.11,1.03,
1.028,0.52,0.92,0.51,-0.00,0.11,1.03,
1.029,0.52,0.92,0.51,0.00,0.11,1.03,
1.031,0.52,0.92,0.51,0.01,0.11,1.02,
1.032,0.61,0.90,0.48,0.01,0.11,1.02,
1.033,0.61,0.90,0.48,0.01,0.12,1.02,
1.036,0.61,0.90,0.48,0.02,0.12,1.01,
1.036,0.72,0.87,0.41,0.02,0.12,1.01,
1.038,0.72,0.87,0.41,0.03,0.12,1.00,
1.041,0.72,0.87,0.41,0.03,0.12,1.00,
1.041,0.82,0.90,0.32,0.03,0.12,1.00,
1.043,0.82,0.90,0.32,0.04,0.12,0.99,
1.046,0.82,0.90,0.32,0.04,0.12,0.99,
1.046,0.94,0.91,0.20,0.04,0.12,0.99,
1.048,0.94,0.91,0.20,0.05,0.12,0.98,
1.051,0.94,0.91,0.20,0.05,0.13,0.98,
1.051,1.02,0.93,0.08,0.05,0.13,0.98,
1.053,1.02,0.93,0.08,0.05,0.13,0.97,
1.056,1.02,0.93,0.08,0.06,0.13,0.97,
1.056,1.13,0.96,-0.03,0.06,0.13,0.97,
1.058,1.13,0.96,-0.03,0.06,0.13,0.97,
1.065,1.13,0.96,-0.03,0.06,0.14,0.97,
1.066,1.19,1.01,-0.08,0.06,0.14,0.97,
1.066,1.19,1.01,-0.08,0.06,0.14,0.97,
1.067,1.19,1.01,-0.08,0.06,0.14,0.97,
1.067,1.24,1.05,-0.09,0.06,0.14,0.97,
1.068,1.24,1.05,-0.09,0.06,0.14,0.98,
1.07,1.24,1.05,-0.09,0.06,0.14,0.98,
1.071,1.28,1.08,-0.07,0.06,0.14,0.98,
1.072,1.28,1.08,-0.07,0.06,0.14,0.99,
1.078,1.27,1.11,-0.00,0.06,0.14,0.99,
1.079,1.27,1.11,-0.00,0.06,0.14,1.00,
1.079,1.27,1.11,-0.00,0.06,0.14,1.00,
1.08,1.27,1.11,-0.00,0.05,0.13,1.01,
1.08,1.24,1.09,0.11,0.05,0.13,1.01,
1.082,1.24,1.09,0.11,0.05,0.13,1.02,
1.085,1.24,1.09,0.11,0.05,0.13,1.03,
1.085,1.20,1.04,0.26,0.05,0.13,1.03,
1.087,1.20,1.04,0.26,0.04,0.12,1.04,
1.09,1.20,1.04,0.26,0.04,0.12,1.05,
1.09,1.15,0.97,0.44,0.04,0.12,1.05,
1.092,1.15,0.97,0.44,0.04,0.11,1.06,
1.095,1.15,0.97,0.44,0.04,0.11,1.06,
1.096,1.10,0.88,0.61,0.04,0.11,1.06,
1.097,1.10,0.88,0.61,0.04,0.11,1.07,
1.1,1.10,0.88,0.61,0.04,0.10,1.07,
1.1,1.06,0.80,0.77,0.04,0.10,1.07,
1.102,1.06,0.80,0.77,0.04,0.10,1.08,
1.105,1.06,0.80,0.77,0.04,0.10,1.08,
1.105,1.06,0.72,0.88,0.04,0.10,1.08,
1.107,1.06,0.72,0.88,0.04,0.10,1.08,
1.11,1.06,0.72,0.88,0.04,0.10,1.08,
1.11,1.04,0.68,0.95,0.04,0.10,1.08,
1.112,1.04,0.68,0.95,0.04,0.10,1.08,
1.114,1.04,0.68,0.95,0.04,0.10,1.08,
1.115,1.02,0.63,0.97,0.04,0.10,1.08,
1.117,1.02,0.63,0.97,0.04,0.10,1.08,
1.119,1.02,0.63,0.97,0.04,0.10,1.07,
1.119,0.99,0.61,0.94,0.04,0.10,1.07,
1.122,0.99,0.61,0.94,0.05,0.10,1.06,
1.124,0.99,0.61,0.94,0.05,0.10,1.06,
1.124,1.03,0.59,0.88,0.05,0.10,1.06,
1.126,1.03,0.59,0.88,0.05,0.10,1.05,
1.129,1.09,0.58,0.73,0.05,0.10,1.05,
1.13,1.09,0.58,0.73,0.05,0.10,1.04,
1.131,1.09,0.58,0.73,0.06,0.11,1.03,
1.134,1.09,0.58,0.73,0.06,0.11,1.02,
1.134,1.14,0.60,0.54,0.06,0.11,1.02,
1.136,1.14,0.60,0.54,0.06,0.11,1.01,
1.139,1.14,0.60,0.54,0.07,0.12,1.00,
1.139,1.22,0.64,0.34,0.07,0.12,1.00,
1.142,1.22,0.64,0.34,0.07,0.12,0.99,
1.144,1.22,0.64,0.34,0.07,0.12,0.99,
1.147,1.26,0.69,0.16,0.07,0.12,0.99,
1.147,1.26,0.69,0.16,0.07,0.12,0.98,
1.149,1.26,0.69,0.16,0.07,0.12,0.98,
1.149,1.32,0.70,0.03,0.07,0.12,0.98,
1.151,1.32,0.70,0.03,0.07,0.12,0.97,
1.153,1.32,0.70,0.03,0.07,0.12,0.97,
1.154,1.33,0.70,-0.08,0.07,0.12,0.97,
1.156,1.33,0.70,-0.08,0.06,0.12,0.97,
1.159,1.33,0.70,-0.08,0.06,0.12,0.97,
1.159,1.28,0.70,-0.14,0.06,0.12,0.97,
1.161,1.28,0.70,-0.14,0.06,0.11,0.97,
1.163,1.28,0.70,-0.14,0.05,0.11,0.97,
1.164,1.22,0.66,-0.15,0.05,0.11,0.97,
1.166,1.22,0.66,-0.15,0.05,0.11,0.97,
1.168,1.22,0.66,-0.15,0.04,0.10,0.98,
1.168,1.15,0.59,-0.14,0.04,0.10,0.98,
1.17,1.15,0.59,-0.14,0.04,0.10,0.98,
1.173,1.15,0.59,-0.14,0.04,0.09,0.98,
1.174,1.07,0.52,-0.10,0.04,0.09,0.98,
1.176,1.07,0.52,-0.10,0.03,0.09,0.98,
1.178,1.07,0.52,-0.10,0.03,0.08,0.99,
1.178,0.98,0.41,-0.06,0.03,0.08,0.99,
1.18,0.98,0.41,-0.06,0.02,0.08,0.99,
1.183,0.98,0.41,-0.06,0.02,0.08,1.00,
1.183,0.90,0.29,0.01,0.02,0.08,1.00,
1.185,0.90,0.29,0.01,0.02,0.07,1.01,
1.188,0.90,0.29,0.01,0.02,0.07,1.01,
1.188,0.81,0.21,0.11,0.02,0.07,1.01,
1.19,0.81,0.21,0.11,0.02,0.06,1.01,
1.199,0.81,0.21,0.11,0.02,0.06,1.02,
1.199,0.76,0.12,0.22,0.02,0.06,1.02,
1.2,0.76,0.12,0.22,0.01,0.06,1.02,
1.2,0.76,0.12,0.22,0.02,0.06,1.02,
1.201,0.74,0.05,0.29,0.02,0.06,1.02,
1.201,0.74,0.05,0.29,0.02,0.06,1.03,
1.202,0.74,0.05,0.29,0.02,0.06,1.03,
1.202,0.73,0.01,0.36,0.02,0.06,1.03,
1.205,0.73,0.01,0.36,0.02,0.06,1.03,
1.216,0.76,0.01,0.40,0.02,0.06,1.03,
1.217,0.76,0.01,0.40,0.03,0.06,1.03,
1.217,0.76,0.01,0.40,0.03,0.06,1.02,
1.217,0.76,0.01,0.40,0.03,0.06,1.02,
1.217,0.80,-0.00,0.40,0.03,0.06,1.02,
1.217,0.80,-0.00,0.40,0.04,0.06,1.02,
1.217,0.80,-0.00,0.40,0.04,0.06,1.01,
1.217,0.88,0.01,0.35,0.04,0.06,1.01,
1.219,0.88,0.01,0.35,0.05,0.07,1.01,
1.222,0.88,0.01,0.35,0.05,0.07,1.00,
1.222,0.96,0.01,0.28,0.05,0.07,1.00,
1.224,0.96,0.01,0.28,0.05,0.07,1.00,
1.227,0.96,0.01,0.28,0.05,0.07,1.00,
1.227,1.02,0.03,0.19,0.05,0.07,1.00,
1.229,1.02,0.03,0.19,0.06,0.07,0.99,
1.232,1.02,0.03,0.19,0.06,0.07,0.99,
1.232,1.07,0.04,0.09,0.06,0.07,0.99,
1.234,1.07,0.04,0.09,0.05,0.07,0.98,
1.237,1.07,0.04,0.09,0.05,0.07,0.98,
1.237,1.11,0.05,0.02,0.05,0.07,0.98,
1.239,1.11,0.05,0.02,0.05,0.07,0.97,
1.242,1.11,0.05,0.02,0.05,0.07,0.97,
1.243,1.10,0.04,-0.08,0.05,0.07,0.97,
1.244,1.10,0.04,-0.08,0.04,0.06,0.97,
1.247,1.10,0.04,-0.08,0.04,0.07,0.97,
1.247,1.06,0.01,-0.16,0.04,0.07,0.97,
1.249,1.06,0.01,-0.16,0.04,0.06,0.96,
1.251,1.06,0.01,-0.16,0.03,0.06,0.96,
1.252,0.96,-0.03,-0.19,0.03,0.06,0.96,
1.254,0.96,-0.03,-0.19,0.03,0.05,0.96,
1.256,0.96,-0.03,-0.19,0.02,0.05,0.97,
1.257,0.88,-0.08,-0.22,0.02,0.05,0.97,
1.259,0.88,-0.08,-0.22,0.02,0.05,0.97,
1.261,0.88,-0.08,-0.22,0.01,0.04,0.97,
1.261,0.79,-0.18,-0.20,0.01,0.04,0.97,
1.263,0.79,-0.18,-0.20,0.01,0.04,0.97,
1.266,0.79,-0.18,-0.20,0.01,0.04,0.98,
1.266,0.70,-0.26,-0.16,0.01,0.04,0.98,
1.268,0.70,-0.26,-0.16,0.01,0.03,0.98,
1.271,0.70,-0.26,-0.16,0.01,0.03,0.99,
1.271,0.63,-0.34,-0.11,0.01,0.03,0.99,
1.273,0.63,-0.34,-0.11,0.01,0.03,0.99,
1.28,0.63,-0.34,-0.11,0.01,0.03,0.99,
1.281,0.62,-0.38,-0.01,0.01,0.03,0.99,
1.281,0.62,-0.38,-0.01,0.01,0.04,1.00,
1.281,0.62,-0.38,-0.01,0.02,0.04,1.00,
1.282,0.61,-0.39,0.07,0.02,0.04,1.00,
1.283,0.61,-0.39,0.07,0.02,0.03,1.00,
1.286,0.61,-0.39,0.07,0.03,0.03,1.00,
1.286,0.63,-0.39,0.12,0.03,0.03,1.00,
1.288,0.63,-0.39,0.12,0.03,0.03,1.00,
1.291,0.63,-0.39,0.12,0.04,0.03,1.00,
1.291,0.72,-0.42,0.15,0.04,0.03,1.00,
1.293,0.72,-0.42,0.15,0.04,0.04,1.00,
1.295,0.72,-0.42,0.15,0.05,0.04,0.99,
1.296,0.81,-0.43,0.14,0.05,0.04,0.99,
1.298,0.81,-0.43,0.14,0.05,0.04,0.99,
1.3,0.81,-0.43,0.14,0.06,0.04,0.98,
1.3,0.89,-0.43,0.09,0.06,0.04,0.98,
1.303,0.89,-0.43,0.09,0.07,0.04,0.98,
1.305,0.89,-0.43,0.09,0.07,0.04,0.97,
1.305,1.01,-0.41,0.00,0.07,0.04,0.97,
1.308,1.01,-0.41,0.00,0.08,0.05,0.97,
1.311,1.01,-0.41,0.00,0.09,0.05,0.96,
1.311,1.13,-0.41,-0.09,0.09,0.05,0.96,
1.313,1.13,-0.41,-0.09,0.09,0.05,0.96,
1.315,1.13,-0.41,-0.09,0.09,0.05,0.96,
1.316,1.24,-0.40,-0.18,0.09,0.05,0.96,
1.317,1.24,-0.40,-0.18,0.10,0.05,0.95,
1.32,1.24,-0.40,-0.18,0.10,0.05,0.95,
1.32,1.29,-0.39,-0.25,0.10,0.05,0.95,
1.322,1.29,-0.39,-0.25,0.10,0.05,0.95,
1.325,1.29,-0.39,-0.25,0.10,0.05,0.94,
1.325,1.32,-0.38,-0.31,0.10,0.05,0.94,
1.328,1.32,-0.38,-0.31,0.10,0.05,0.94,
1.33,1.32,-0.38,-0.31,0.10,0.05,0.94,
1.33,1.36,-0.39,-0.37,0.10,0.05,0.94,
1.332,1.36,-0.39,-0.37,0.10,0.05,0.94,
1.335,1.36,-0.39,-0.37,0.10,0.05,0.94,
1.335,1.38,-0.41,-0.42,0.10,0.05,0.94,
1.337,1.38,-0.41,-0.42,0.10,0.04,0.93,
1.34,1.38,-0.41,-0.42,0.09,0.04,0.93,
1.34,1.34,-0.44,-0.46,0.09,0.04,0.93,
1.343,1.34,-0.44,-0.46,0.09,0.04,0.93,
1.345,1.34,-0.44,-0.46,0.08,0.04,0.93,
1.345,1.24,-0.50,-0.47,0.08,0.04,0.93,
1.347,1.24,-0.50,-0.47,0.08,0.03,0.94,
1.349,1.24,-0.50,-0.47,0.07,0.03,0.93,
1.35,1.14,-0.56,-0.47,0.07,0.03,0.93,
1.352,1.14,-0.56,-0.47,0.07,0.02,0.94,
1.354,1.14,-0.56,-0.47,0.07,0.02,0.94,
1.355,1.02,-0.65,-0.45,0.07,0.02,0.94,
1.358,1.02,-0.65,-0.45,0.06,0.02,0.94,
1.36,1.02,-0.65,-0.45,0.06,0.02,0.94,
1.36,0.95,-0.72,-0.42,0.06,0.02,0.94,
1.362,0.95,-0.72,-0.42,0.06,0.01,0.94,
1.364,0.95,-0.72,-0.42,0.06,0.01,0.95,
1.364,0.87,-0.78,-0.39,0.06,0.01,0.95,
1.366,0.87,-0.78,-0.39,0.06,0.01,0.95,
1.369,0.87,-0.78,-0.39,0.06,0.01,0.96,
1.369,0.84,-0.83,-0.33,0.06,0.01,0.96,
1.371,0.84,-0.83,-0.33,0.06,0.01,0.96,
1.374,0.84,-0.83,-0.33,0.05,0.01,0.96,
1.375,0.81,-0.84,-0.26,0.05,0.01,0.96,
1.376,0.81,-0.84,-0.26,0.05,0.01,0.97,
1.379,0.81,-0.84,-0.26,0.05,0.01,0.97,
1.379,0.77,-0.86,-0.18,0.05,0.01,0.97,
1.381,0.77,-0.86,-0.18,0.05,0.01,0.97,
1.384,0.77,-0.86,-0.18,0.05,0.01,0.98,
1.384,0.74,-0.83,-0.11,0.05,0.01,0.98,
1.386,0.74,-0.83,-0.11,0.05,0.01,0.98,
1.389,0.74,-0.83,-0.11,0.06,0.01,0.98,
1.389,0.73,-0.83,-0.04,0.06,0.01,0.98,
1.397,0.73,-0.83,-0.04,0.06,0.01,0.99,
1.397,0.73,-0.83,-0.04,0.06,0.01,0.99,
1.397,0.75,-0.84,0.02,0.06,0.01,0.99,
1.398,0.75,-0.84,0.02,0.06,0.01,0.99,
1.398,0.75,-0.84,0.02,0.06,0.00,0.99,
1.398,0.78,-0.86,0.07,0.06,0.00,0.99,
1.401,0.78,-0.86,0.07,0.06,0.00,0.99,
1.403,0.78,-0.86,0.07,0.06,0.00,0.99,
1.403,0.76,-0.90,0.08,0.06,0.00,0.99,
1.405,0.76,-0.90,0.08,0.05,-0.00,0.99,
1.409,0.76,-0.90,0.08,0.06,-0.01,0.99,
1.409,0.75,-0.93,0.12,0.06,-0.01,0.99,
1.411,0.75,-0.93,0.12,0.05,-0.01,0.99,
1.413,0.75,-0.93,0.12,0.05,-0.00,0.99,
1.413,0.72,-0.96,0.12,0.05,-0.00,0.99,
1.415,0.72,-0.96,0.12,0.05,-0.01,0.99,
1.418,0.72,-0.96,0.12,0.04,-0.01,1.00,
1.418,0.68,-0.98,0.14,0.04,-0.01,1.00,
1.42,0.68,-0.98,0.14,0.04,-0.01,1.00,
1.423,0.68,-0.98,0.14,0.03,-0.01,1.00,
1.423,0.60,-0.99,0.15,0.03,-0.01,1.00,
1.425,0.60,-0.99,0.15,0.03,-0.02,0.99,
1.428,0.60,-0.99,0.15,0.03,-0.02,0.99,
1.428,0.52,-1.05,0.16,0.03,-0.02,0.99,
1.43,0.52,-1.05,0.16,0.03,-0.02,0.99,
1.433,0.52,-1.05,0.16,0.02,-0.02,0.99,
1.433,0.46,-1.09,0.14,0.02,-0.02,0.99,
1.435,0.46,-1.09,0.14,0.02,-0.02,0.99,
1.437,0.46,-1.09,0.14,0.02,-0.02,0.99,
1.438,0.36,-1.11,0.15,0.02,-0.02,0.99,
1.441,0.36,-1.11,0.15,0.01,-0.03,0.99,
1.443,0.36,-1.11,0.15,0.01,-0.03,0.98,
1.443,0.31,-1.14,0.09,0.01,-0.03,0.98,
1.445,0.31,-1.14,0.09,0.01,-0.03,0.98,
1.448,0.31,-1.14,0.09,0.01,-0.02,0.98,
1.448,0.25,-1.17,0.05,0.01,-0.02,0.98,
1.45,0.25,-1.17,0.05,0.01,-0.02,0.98,
1.452,0.25,-1.17,0.05,0.01,-0.02,0.98,
1.452,0.19,-1.16,0.03,0.01,-0.02,0.98,
1.455,0.19,-1.16,0.03,0.01,-0.02,0.98,
1.458,0.19,-1.16,0.03,0.01,-0.02,0.98,
1.458,0.20,-1.13,0.01,0.01,-0.02,0.98,
1.459,0.20,-1.13,0.01,0.02,-0.02,0.98,
1.462,0.20,-1.13,0.01,0.02,-0.01,0.98,
1.462,0.23,-1.10,0.01,0.02,-0.01,0.98,
1.465,0.23,-1.10,0.01,0.03,-0.01,0.98,
1.467,0.23,-1.10,0.01,0.03,-0.01,0.99,
1.467,0.29,-1.04,0.02,0.03,-0.01,0.99,
1.469,0.29,-1.04,0.02,0.03,-0.01,0.99,
1.472,0.29,-1.04,0.02,0.03,-0.01,0.99,
1.473,0.36,-1.00,0.05,0.03,-0.01,0.99,
1.475,0.36,-1.00,0.05,0.03,-0.00,0.99,
1.477,0.36,-1.00,0.05,0.03,-0.00,1.00,
1.477,0.38,-0.96,0.11,0.03,-0.00,1.00,
1.48,0.38,-0.96,0.11,0.04,-0.00,1.00,
1.482,0.38,-0.96,0.11,0.03,-0.00,1.00,
1.482,0.39,-0.91,0.15,0.03,-0.00,1.00,
1.484,0.39,-0.91,0.15,0.03,-0.00,1.00,
1.486,0.39,-0.91,0.15,0.03,-0.00,1.00,
1.487,0.39,-0.91,0.17,0.03,-0.00,1.00,
1.489,0.39,-0.91,0.17,0.03,-0.00,1.00,
1.495,0.39,-0.91,0.17,0.03,-0.00,1.00,
1.496,0.37,-0.92,0.20,0.03,-0.00,1.00,
1.496,0.37,-0.92,0.20,0.03,-0.00,1.00,
1.496,0.37,-0.92,0.20,0.03,-0.00,1.00,
1.496,0.33,-0.91,0.22,0.03,-0.00,1.00,
1.499,0.33,-0.91,0.22,0.03,-0.00,1.00,
1.501,0.33,-0.91,0.22,0.02,-0.01,1.00,
1.501,0.31,-0.92,0.20,0.02,-0.01,1.00,
1.503,0.31,-0.92,0.20,0.02,-0.01,1.00,
1.507,0.31,-0.92,0.20,0.02,-0.01,1.00,
1.508,0.25,-0.93,0.21,0.02,-0.01,1.00,
1.508,0.25,-0.93,0.21,0.01,-0.01,1.00,
1.511,0.25,-0.93,0.21,0.02,-0.01,0.99,
1.511,0.21,-0.95,0.19,0.02,-0.01,0.99,
1.513,0.21,-0.95,0.19,0.01,-0.01,0.99,
1.516,0.21,-0.95,0.19,0.01,-0.01,0.99,
1.516,0.15,-0.96,0.15,0.01,-0.01,0.99,
1.518,0.15,-0.96,0.15,0.01,-0.01,0.99,
1.521,0.15,-0.96,0.15,0.01,-0.00,0.98,
1.521,0.10,-0.96,0.11,0.01,-0.00,0.98,
1.523,0.10,-0.96,0.11,0.01,-0.00,0.98,
1.525,0.10,-0.96,0.11,0.01,-0.00,0.98,
1.526,0.06,-0.94,0.05,0.01,-0.00,0.98,
1.528,0.06,-0.94,0.05,0.01,0.00,0.97,
1.53,0.06,-0.94,0.05,0.00,0.00,0.97,
1.53,0.04,-0.92,-0.02,0.00,0.00,0.97,
1.533,0.04,-0.92,-0.02,0.00,0.01,0.97,
1.535,0.04,-0.92,-0.02,0.01,0.01,0.97,
1.536,0.02,-0.87,-0.09,0.01,0.01,0.97,
1.538,0.02,-0.87,-0.09,0.01,0.01,0.96,
1.54,0.02,-0.87,-0.09,0.01,0.01,0.96,
1.541,0.01,-0.82,-0.13,0.01,0.01,0.96,
1.543,0.01,-0.82,-0.13,0.01,0.02,0.96,
1.545,0.01,-0.82,-0.13,0.01,0.02,0.96,
1.546,0.04,-0.79,-0.17,0.01,0.02,0.96,
1.547,0.04,-0.79,-0.17,0.01,0.02,0.96,
1.55,0.04,-0.79,-0.17,0.02,0.02,0.96,
1.551,0.05,-0.72,-0.21,0.02,0.02,0.96,
1.552,0.05,-0.72,-0.21,0.02,0.02,0.96,
1.555,0.05,-0.72,-0.21,0.02,0.02,0.96,
1.556,0.10,-0.68,-0.23,0.02,0.02,0.96,
1.557,0.10,-0.68,-0.23,0.03,0.02,0.95,
1.56,0.10,-0.68,-0.23,0.03,0.03,0.95,
1.56,0.15,-0.65,-0.23,0.03,0.03,0.95,
1.562,0.15,-0.65,-0.23,0.03,0.03,0.95,
1.565,0.15,-0.65,-0.23,0.03,0.03,0.96,
1.565,0.23,-0.63,-0.25,0.03,0.03,0.96,
1.567,0.23,-0.63,-0.25,0.03,0.03,0.96,
1.57,0.23,-0.63,-0.25,0.03,0.03,0.96,
1.57,0.26,-0.59,-0.22,0.03,0.03,0.96,
1.572,0.26,-0.59,-0.22,0.03,0.03,0.96,
1.579,0.26,-0.59,-0.22,0.03,0.03,0.96,
1.58,0.25,-0.59,-0.22,0.03,0.03,0.96,
1.58,0.25,-0.59,-0.22,0.03,0.03,0.96,
1.58,0.25,-0.59,-0.22,0.02,0.03,0.96,
1.58,0.22,-0.56,-0.22,0.02,0.03,0.96,
1.582,0.22,-0.56,-0.22,0.02,0.03,0.96,
1.585,0.22,-0.56,-0.22,0.02,0.03,0.96,
1.585,0.18,-0.55,-0.20,0.02,0.03,0.96,
1.587,0.18,-0.55,-0.20,0.02,0.03,0.96,
1.59,0.12,-0.54,-0.19,0.02,0.03,0.96,
1.59,0.12,-0.54,-0.19,0.01,0.03,0.96,
1.592,0.12,-0.54,-0.19,0.01,0.03,0.96,
1.594,0.12,-0.54,-0.19,0.01,0.03,0.96,
1.594,0.06,-0.56,-0.18,0.01,0.03,0.96,
1.597,0.06,-0.56,-0.18,0.01,0.03,0.96,
1.599,0.06,-0.56,-0.18,0.00,0.03,0.96,
1.599,0.03,-0.58,-0.17,0.00,0.03,0.96,
1.602,0.03,-0.58,-0.17,0.00,0.03,0.96,
1.604,0.03,-0.58,-0.17,-0.00,0.03,0.96,
1.604,-0.04,-0.57,-0.15,-0.00,0.03,0.96,
1.606,-0.04,-0.57,-0.15,-0.01,0.03,0.96,
1.609,-0.04,-0.57,-0.15,-0.01,0.03,0.96,
1.609,-0.10,-0.57,-0.15,-0.01,0.03,0.96,
1.611,-0.10,-0.57,-0.15,-0.01,0.03,0.96,
1.614,-0.10,-0.57,-0.15,-0.02,0.03,0.96,
1.614,-0.18,-0.55,-0.16,-0.02,0.03,0.96,
1.616,-0.18,-0.55,-0.16,-0.02,0.03,0.96,
1.619,-0.18,-0.55,-0.16,-0.02,0.03,0.96,
1.619,-0.26,-0.55,-0.15,-0.02,0.03,0.96,
1.621,-0.26,-0.55,-0.15,-0.02,0.03,0.96,
1.624,-0.26,-0.55,-0.15,-0.03,0.03,0.97,
1.625,-0.33,-0.57,-0.14,-0.03,0.03,0.97,
1.626,-0.33,-0.57,-0.14,-0.03,0.02,0.97,
1.629,-0.33,-0.57,-0.14,-0.02,0.02,0.97,
1.629,-0.37,-0.57,-0.11,-0.02,0.02,0.97,
1.631,-0.37,-0.57,-0.11,-0.03,0.03,0.97,
1.633,-0.37,-0.57,-0.11,-0.03,0.03,0.97,
1.635,-0.37,-0.59,-0.08,-0.03,0.03,0.97,
1.636,-0.37,-0.59,-0.08,-0.03,0.03,0.97,
1.638,-0.37,-0.59,-0.08,-0.03,0.03,0.98,
1.639,-0.38,-0.56,-0.04,-0.03,0.03,0.98,
1.641,-0.38,-0.56,-0.04,-0.02,0.03,0.98,
1.643,-0.38,-0.56,-0.04,-0.02,0.03,0.98,
1.644,-0.38,-0.54,-0.00,-0.02,0.03,0.98,
1.645,-0.38,-0.54,-0.00,-0.02,0.03,0.98,
1.648,-0.38,-0.54,-0.00,-0.02,0.03,0.99,
1.648,-0.34,-0.53,0.04,-0.02,0.03,0.99,
1.65,-0.34,-0.53,0.04,-0.02,0.03,0.99,
1.653,-0.34,-0.53,0.04,-0.01,0.03,0.99,
1.653,-0.31,-0.52,0.09,-0.01,0.03,0.99,
1.655,-0.31,-0.52,0.09,-0.01,0.03,0.99,
1.659,-0.31,-0.52,0.09,-0.01,0.03,0.99,
1.66,-0.29,-0.50,0.13,-0.01,0.03,0.99,
1.661,-0.29,-0.50,0.13,-0.00,0.03,1.00,
1.663,-0.29,-0.50,0.13,-0.00,0.03,0.99,
1.663,-0.24,-0.48,0.15,-0.00,0.03,0.99,
1.665,-0.24,-0.48,0.15,-0.00,0.03,0.99,
1.668,-0.24,-0.48,0.15,-0.00,0.04,0.99,
1.668,-0.20,-0.48,0.18,-0.00,0.04,0.99,
1.67,-0.20,-0.48,0.18,-0.00,0.04,0.99,
1.679,-0.20,-0.48,0.18,-0.00,0.03,0.99,
1.679,-0.20,-0.46,0.16,-0.00,0.03,0.99,
1.68,-0.20,-0.46,0.16,-0.00,0.04,1.00,
1.68,-0.20,-0.46,0.16,-0.00,0.04,0.99,
1.68,-0.21,-0.46,0.17,-0.00,0.04,0.99,
1.681,-0.21,-0.46,0.17,-0.00,0.04,0.99,
1.682,-0.21,-0.46,0.17,0.00,0.04,0.99,
1.683,-0.20,-0.46,0.18,0.00,0.04,0.99,
1.685,-0.20,-0.46,0.18,-0.00,0.04,0.99,
1.687,-0.20,-0.46,0.18,-0.00,0.04,1.00,
1.688,-0.19,-0.44,0.16,-0.00,0.04,1.00,
1.694,-0.19,-0.44,0.16,-0.00,0.04,1.00,
1.694,-0.19,-0.44,0.16,-0.00,0.04,1.00,
1.694,-0.20,-0.41,0.17,-0.00,0.04,1.00,
1.694,-0.20,-0.41,0.17,0.00,0.04,1.00,
1.697,-0.20,-0.41,0.17,-0.00,0.04,1.00,
1.697,-0.22,-0.43,0.19,-0.00,0.04,1.00,
1.699,-0.22,-0.43,0.19,0.00,0.04,1.00,
1.702,-0.22,-0.43,0.19,-0.00,0.04,1.00,
1.702,-0.21,-0.44,0.22,-0.00,0.04,1.00,
1.704,-0.21,-0.44,0.22,-0.01,0.04,1.00,
1.707,-0.21,-0.44,0.22,-0.01,0.03,1.00,
1.707,-0.22,-0.44,0.24,-0.01,0.03,1.00,
1.709,-0.22,-0.44,0.24,-0.01,0.04,1.00,
1.712,-0.22,-0.44,0.24,-0.01,0.04,1.00,
1.712,-0.28,-0.44,0.22,-0.01,0.04,1.00,
1.714,-0.28,-0.44,0.22,-0.01,0.03,1.00,
1.717,-0.28,-0.44,0.22,-0.02,0.03,0.99,
1.717,-0.32,-0.43,0.20,-0.02,0.03,0.99,
1.719,-0.32,-0.43,0.20,-0.02,0.04,0.99,
1.722,-0.32,-0.43,0.20,-0.02,0.03,0.99,
1.722,-0.37,-0.46,0.17,-0.02,0.03,0.99,
1.724,-0.37,-0.46,0.17,-0.02,0.04,0.99,
1.726,-0.37,-0.46,0.17,-0.03,0.04,0.98,
1.727,-0.39,-0.45,0.11,-0.03,0.04,0.98,
1.729,-0.39,-0.45,0.11,-0.03,0.04,0.98,
1.731,-0.39,-0.45,0.11,-0.03,0.04,0.98,
1.731,-0.46,-0.43,0.08,-0.03,0.04,0.98,
1.733,-0.46,-0.43,0.08,-0.03,0.04,0.98,
1.737,-0.46,-0.43,0.08,-0.03,0.04,0.97,
1.737,-0.50,-0.42,0.03,-0.03,0.04,0.97,
1.74,-0.50,-0.42,0.03,-0.04,0.04,0.97,
1.741,-0.50,-0.42,0.03,-0.04,0.04,0.97,
1.742,-0.54,-0.40,-0.03,-0.04,0.04,0.97,
1.743,-0.54,-0.40,-0.03,-0.04,0.04,0.97,
1.746,-0.54,-0.40,-0.03,-0.04,0.04,0.97,
1.747,-0.58,-0.37,-0.09,-0.04,0.04,0.97,
1.749,-0.58,-0.37,-0.09,-0.04,0.04,0.96,
1.751,-0.58,-0.37,-0.09,-0.04,0.04,0.96,
1.751,-0.61,-0.36,-0.12,-0.04,0.04,0.96,
1.753,-0.61,-0.36,-0.12,-0.04,0.04,0.96,
1.756,-0.61,-0.36,-0.12,-0.04,0.04,0.96,
1.757,-0.63,-0.36,-0.14,-0.04,0.04,0.96,
1.758,-0.63,-0.36,-0.14,-0.04,0.04,0.96,
1.761,-0.63,-0.36,-0.14,-0.04,0.04,0.96,
1.761,-0.62,-0.36,-0.14,-0.04,0.04,0.96,
1.763,-0.62,-0.36,-0.14,-0.04,0.04,0.96,
1.765,-0.62,-0.36,-0.14,-0.03,0.05,0.96,
1.766,-0.61,-0.36,-0.18,-0.03,0.05,0.96,
1.768,-0.61,-0.36,-0.18,-0.03,0.05,0.96,
1.771,-0.61,-0.36,-0.18,-0.03,0.05,0.96,
1.771,-0.57,-0.32,-0.19,-0.03,0.05,0.96,
1.773,-0.57,-0.32,-0.19,-0.03,0.05,0.96,
1.775,-0.57,-0.32,-0.19,-0.03,0.05,0.96,
1.776,-0.53,-0.29,-0.17,-0.03,0.05,0.96,
1.778,-0.53,-0.29,-0.17,-0.02,0.06,0.96,
1.78,-0.53,-0.29,-0.17,-0.03,0.06,0.96,
1.78,-0.48,-0.26,-0.14,-0.03,0.06,0.96,
1.782,-0.48,-0.26,-0.14,-0.03,0.06,0.97,
1.785,-0.48,-0.26,-0.14,-0.03,0.06,0.97,
1.785,-0.47,-0.21,-0.12,-0.03,0.06,0.97,
1.788,-0.47,-0.21,-0.12,-0.03,0.06,0.97,
1.795,-0.47,-0.21,-0.12,-0.03,0.06,0.97,
1.795,-0.48,-0.19,-0.10,-0.03,0.06,0.97,
1.796,-0.48,-0.19,-0.10,-0.03,0.06,0.97,
1.796,-0.52,-0.18,-0.09,-0.03,0.06,0.97,
1.796,-0.52,-0.18,-0.09,-0.03,0.06,0.97,
1.798,-0.52,-0.18,-0.09,-0.04,0.06,0.97,
1.8,-0.52,-0.18,-0.09,-0.04,0.06,0.97,
1.8,-0.57,-0.20,-0.10,-0.04,0.06,0.97,
1.802,-0.57,-0.20,-0.10,-0.04,0.06,0.97,
1.805,-0.57,-0.20,-0.10,-0.05,0.06,0.97,
1.805,-0.64,-0.20,-0.10,-0.05,0.06,0.97,
1.809,-0.64,-0.20,-0.10,-0.05,0.06,0.96,
1.81,-0.64,-0.20,-0.10,-0.05,0.06,0.97,
1.81,-0.69,-0.22,-0.10,-0.05,0.06,0.97,
1.812,-0.69,-0.22,-0.10,-0.06,0.06,0.96,
1.815,-0.69,-0.22,-0.10,-0.06,0.05,0.97,
1.815,-0.75,-0.22,-0.11,-0.06,0.05,0.97,
1.817,-0.75,-0.22,-0.11,-0.06,0.05,0.97,
1.819,-0.75,-0.22,-0.11,-0.06,0.05,0.97,
1.819,-0.81,-0.24,-0.10,-0.06,0.05,0.97,
1.822,-0.81,-0.24,-0.10,-0.06,0.05,0.97,
1.824,-0.81,-0.24,-0.10,-0.07,0.05,0.97,
1.825,-0.86,-0.26,-0.07,-0.07,0.05,0.97,
1.827,-0.86,-0.26,-0.07,-0.07,0.05,0.98,
1.829,-0.86,-0.26,-0.07,-0.07,0.05,0.98,
1.829,-0.89,-0.25,-0.04,-0.07,0.05,0.98,
1.831,-0.89,-0.25,-0.04,-0.06,0.05,0.98,
1.834,-0.89,-0.25,-0.04,-0.06,0.05,0.99,
1.834,-0.89,-0.25,0.03,-0.06,0.05,0.99,
1.837,-0.89,-0.25,0.03,-0.06,0.05,0.99,
1.839,-0.89,-0.25,0.03,-0.06,0.05,0.99,
1.84,-0.88,-0.25,0.08,-0.06,0.05,0.99,
1.842,-0.88,-0.25,0.08,-0.06,0.05,1.00,
1.844,-0.88,-0.25,0.08,-0.05,0.05,1.00,
1.844,-0.83,-0.23,0.16,-0.05,0.05,1.00,
1.846,-0.83,-0.23,0.16,-0.05,0.06,1.00,
1.849,-0.83,-0.23,0.16,-0.05,0.06,1.00,
1.849,-0.79,-0.22,0.22,-0.05,0.06,1.00,
1.851,-0.79,-0.22,0.22,-0.04,0.06,1.01,
1.854,-0.79,-0.22,0.22,-0.04,0.06,1.01,
1.854,-0.73,-0.19,0.26,-0.04,0.06,1.01,
1.856,-0.73,-0.19,0.26,-0.04,0.06,1.01,
1.859,-0.65,-0.17,0.31,-0.04,0.06,1.01,
1.859,-0.65,-0.17,0.31,-0.03,0.06,1.01,
1.861,-0.65,-0.17,0.31,-0.04,0.06,1.01,
1.863,-0.65,-0.17,0.31,-0.04,0.07,1.02,
1.864,-0.58,-0.12,0.34,-0.04,0.07,1.02,
1.866,-0.58,-0.12,0.34,-0.04,0.07,1.01,
1.868,-0.58,-0.12,0.34,-0.04,0.07,1.02,
1.868,-0.59,-0.09,0.37,-0.04,0.07,1.02,
1.871,-0.59,-0.09,0.37,-0.04,0.07,1.01,
1.875,-0.59,-0.09,0.37,-0.04,0.06,1.01,
1.876,-0.59,-0.08,0.37,-0.04,0.06,1.01,
1.876,-0.59,-0.08,0.37,-0.04,0.06,1.01,
1.878,-0.59,-0.08,0.37,-0.04,0.06,1.01,
1.879,-0.61,-0.09,0.35,-0.04,0.06,1.01,
1.88,-0.61,-0.09,0.35,-0.05,0.06,1.01,
1.883,-0.61,-0.09,0.35,-0.05,0.06,1.01,
1.883,-0.63,-0.12,0.32,-0.05,0.06,1.01,
1.885,-0.63,-0.12,0.32,-0.05,0.06,1.00,
1.888,-0.63,-0.12,0.32,-0.05,0.05,1.00,
1.889,-0.67,-0.16,0.27,-0.05,0.05,1.00,
1.89,-0.67,-0.16,0.27,-0.06,0.05,0.99,
1.893,-0.67,-0.16,0.27,-0.06,0.05,0.99,
1.893,-0.72,-0.20,0.19,-0.06,0.05,0.99,
1.895,-0.72,-0.20,0.19,-0.07,0.05,0.99,
1.898,-0.72,-0.20,0.19,-0.07,0.05,0.98,
1.898,-0.78,-0.23,0.13,-0.07,0.05,0.98,
1.9,-0.78,-0.23,0.13,-0.07,0.05,0.98,
1.903,-0.78,-0.23,0.13,-0.07,0.05,0.98,
1.903,-0.87,-0.25,0.05,-0.07,0.05,0.98,
1.905,-0.87,-0.25,0.05,-0.08,0.05,0.97,
1.908,-0.87,-0.25,0.05,-0.08,0.05,0.97,
1.908,-0.89,-0.26,-0.01,-0.08,0.05,0.97,
1.91,-0.89,-0.26,-0.01,-0.08,0.05,0.97,
1.912,-0.89,-0.26,-0.01,-0.08,0.05,0.97,
1.913,-0.95,-0.27,-0.06,-0.08,0.05,0.97,
1.915,-0.95,-0.27,-0.06,-0.08,0.05,0.97,
1.917,-0.95,-0.27,-0.06,-0.08,0.05,0.97,
1.918,-0.96,-0.25,-0.09,-0.08,0.05,0.97,
1.92,-0.96,-0.25,-0.09,-0.08,0.05,0.97,
1.923,-0.96,-0.25,-0.09,-0.07,0.05,0.98,
1.923,-0.97,-0.24,-0.08,-0.07,0.05,0.98,
1.925,-0.97,-0.24,-0.08,-0.07,0.05,0.98,
1.928,-0.97,-0.24,-0.08,-0.07,0.05,0.98,
1.928,-0.92,-0.24,-0.02,-0.07,0.05,0.98,
1.929,-0.92,-0.24,-0.02,-0.07,0.05,0.99,
1.932,-0.92,-0.24,-0.02,-0.07,0.05,0.99,
1.932,-0.90,-0.21,0.04,-0.07,0.05,0.99,
1.934,-0.90,-0.21,0.04,-0.06,0.05,1.00,
1.937,-0.90,-0.21,0.04,-0.06,0.05,1.00,
1.937,-0.85,-0.21,0.12,-0.06,0.05,1.00,
1.939,-0.85,-0.21,0.12,-0.06,0.05,1.01,
1.942,-0.85,-0.21,0.12,-0.06,0.05,1.01,
1.942,-0.78,-0.21,0.20,-0.06,0.05,1.01,
1.945,-0.78,-0.21,0.20,-0.06,0.05,1.01,
1.947,-0.78,-0.21,0.20,-0.05,0.05,1.01,
1.947,-0.73,-0.21,0.28,-0.05,0.05,1.01,
1.949,-0.73,-0.21,0.28,-0.05,0.05,1.02,
1.952,-0.73,-0.21,0.28,-0.04,0.05,1.02,
1.952,-0.68,-0.21,0.33,-0.04,0.05,1.02,
1.957,-0.68,-0.21,0.33,-0.04,0.05,1.02,
1.958,-0.68,-0.21,0.33,-0.04,0.05,1.02,
1.958,-0.59,-0.21,0.39,-0.04,0.05,1.02,
1.959,-0.59,-0.21,0.39,-0.04,0.05,1.02,
1.962,-0.59,-0.21,0.39,-0.04,0.05,1.02,
1.962,-0.55,-0.18,0.42,-0.04,0.05,1.02,
1.964,-0.55,-0.18,0.42,-0.04,0.06,1.02,
1.966,-0.55,-0.18,0.42,-0.04,0.06,1.02,
1.967,-0.50,-0.16,0.41,-0.04,0.06,1.02,
1.969,-0.50,-0.16,0.41,-0.04,0.06,1.02,
1.972,-0.50,-0.16,0.41,-0.04,0.06,1.01,
1.972,-0.47,-0.14,0.39,-0.04,0.06,1.01,
1.974,-0.47,-0.14,0.39,-0.03,0.06,1.01,
1.976,-0.47,-0.14,0.39,-0.03,0.06,1.01,
1.976,-0.47,-0.14,0.33,-0.03,0.06,1.01,
1.979,-0.47,-0.14,0.33,-0.04,0.06,1.01,
1.981,-0.47,-0.14,0.33,-0.04,0.06,1.00,
1.981,-0.45,-0.14,0.29,-0.04,0.06,1.00,
1.984,-0.45,-0.14,0.29,-0.04,0.06,1.00,
1.986,-0.47,-0.14,0.23,-0.04,0.06,1.00,
1.987,-0.47,-0.14,0.23,-0.04,0.06,1.00,
1.993,-0.47,-0.14,0.23,-0.04,0.06,1.00,
1.994,-0.47,-0.14,0.23,-0.03,0.06,1.00,
1.994,-0.47,-0.12,0.20,-0.03,0.06,1.00,
1.994,-0.47,-0.12,0.20,-0.03,0.06,0.99,
1.996,-0.47,-0.12,0.20,-0.03,0.06,0.99,
1.996,-0.43,-0.11,0.15,-0.03,0.06,0.99,
1.998,-0.43,-0.11,0.15,-0.03,0.06,0.99,
2.0,-0.43,-0.11,0.15,-0.03,0.06,0.99,
2.001,-0.40,-0.09,0.10,-0.03,0.06,0.99,
2.003,-0.40,-0.09,0.10,-0.03,0.07,0.99,
2.006,-0.40,-0.09,0.10,-0.04,0.07,0.99,
2.006,-0.40,-0.07,0.06,-0.04,0.07,0.99,
2.008,-0.40,-0.07,0.06,-0.03,0.07,0.99,
2.01,-0.40,-0.07,0.06,-0.03,0.07,0.98,
2.01,-0.41,-0.03,0.05,-0.03,0.07,0.98,
2.013,-0.41,-0.03,0.05,-0.03,0.07,0.98,
2.015,-0.41,-0.03,0.05,-0.03,0.08,0.98,
2.015,-0.39,0.00,0.03,-0.03,0.08,0.98,
2.018,-0.39,0.00,0.03,-0.03,0.08,0.98,
2.02,-0.39,0.00,0.03,-0.03,0.08,0.98,
2.02,-0.36,0.04,0.00,-0.03,0.08,0.98,
2.023,-0.36,0.04,0.00,-0.03,0.08,0.98,
2.025,-0.36,0.04,0.00,-0.03,0.08,0.98,
2.025,-0.35,0.05,0.00,-0.03,0.08,0.98,
2.027,-0.35,0.05,0.00,-0.03,0.08,0.98,
2.03,-0.35,0.05,0.00,-0.02,0.08,0.98,
2.03,-0.32,0.06,-0.00,-0.02,0.08,0.98,
2.032,-0.32,0.06,-0.00,-0.02,0.08,0.98,
2.035,-0.32,0.06,-0.00,-0.02,0.08,0.98,
2.035,-0.28,0.08,0.01,-0.02,0.08,0.98,
2.038,-0.28,0.08,0.01,-0.02,0.08,0.98,
2.04,-0.28,0.08,0.01,-0.02,0.08,0.99,
2.04,-0.26,0.11,0.02,-0.02,0.08,0.99,
2.042,-0.26,0.11,0.02,-0.02,0.08,0.99,
2.045,-0.26,0.11,0.02,-0.02,0.08,0.99,
2.045,-0.23,0.11,0.04,-0.02,0.08,0.99,
2.047,-0.23,0.11,0.04,-0.01,0.08,0.99,
2.049,-0.23,0.11,0.04,-0.01,0.08,0.99,
2.05,-0.20,0.11,0.06,-0.01,0.08,0.99,
2.052,-0.20,0.11,0.06,-0.01,0.08,0.99,
2.055,-0.20,0.11,0.06,-0.01,0.08,0.99,
2.056,-0.11,0.10,0.07,-0.01,0.08,0.99,
2.057,-0.11,0.10,0.07,-0.00,0.08,0.99,
2.06,-0.11,0.10,0.07,-0.00,0.08,0.99,
2.06,-0.08,0.10,0.10,-0.00,0.08,0.99,
2.062,-0.08,0.10,0.10,-0.00,0.08,0.99,
2.064,-0.08,0.10,0.10,-0.00,0.08,0.99,
2.065,-0.05,0.08,0.11,-0.00,0.08,0.99,
2.067,-0.05,0.08,0.11,-0.00,0.08,0.99,
2.069,-0.05,0.08,0.11,-0.00,0.08,0.99,
2.07,-0.04,0.08,0.11,-0.00,0.08,0.99,
2.072,-0.04,0.08,0.11,-0.00,0.08,0.99,
2.075,-0.03,0.07,0.10,-0.00,0.08,0.99,
2.075,-0.03,0.07,0.10,-0.00,0.08,0.99,
2.077,-0.03,0.07,0.10,-0.00,0.08,0.99,
2.079,-0.03,0.07,0.10,-0.00,0.08,0.99,
2.08,-0.03,0.07,0.10,-0.00,0.08,0.99,
2.082,-0.03,0.07,0.10,-0.00,0.08,0.99,
2.084,-0.03,0.07,0.10,-0.00,0.08,0.99,
2.084,-0.04,0.07,0.09,-0.00,0.08,0.99,
2.086,-0.04,0.07,0.09,-0.00,0.08,0.99,
2.093,-0.03,0.08,0.08,-0.00,0.08,0.99,
2.094,-0.03,0.08,0.08,-0.00,0.08,0.99,
2.094,-0.03,0.08,0.08,-0.00,0.08,0.99,
2.094,-0.03,0.08,0.08,0.00,0.09,0.99,
2.094,-0.02,0.09,0.07,0.00,0.09,0.99,
2.096,-0.02,0.09,0.07,0.00,0.09,0.99,
2.099,-0.02,0.09,0.07,0.00,0.09,0.99,
2.099,0.01,0.10,0.06,0.00,0.09,0.99,
2.101,0.01,0.10,0.06,0.00,0.09,0.99,
2.106,0.01,0.10,0.06,0.00,0.09,0.99,
2.106,0.03,0.13,0.06,0.00,0.09,0.99,
2.106,0.03,0.13,0.06,0.00,0.09,0.99,
2.108,0.03,0.13,0.06,0.01,0.09,0.98,
2.109,0.04,0.14,0.05,0.01,0.09,0.98,
2.111,0.04,0.14,0.05,0.01,0.10,0.98,
2.113,0.04,0.14,0.05,0.01,0.10,0.98,
2.113,0.06,0.16,0.03,0.01,0.10,0.98,
2.116,0.06,0.16,0.03,0.01,0.10,0.98,
2.118,0.06,0.16,0.03,0.01,0.10,0.98,
2.118,0.12,0.20,-0.00,0.01,0.10,0.98,
2.121,0.12,0.20,-0.00,0.01,0.10,0.98,
2.123,0.12,0.20,-0.00,0.02,0.10,0.98,
2.125,0.14,0.20,-0.03,0.02,0.10,0.98,
2.125,0.14,0.20,-0.03,0.02,0.10,0.97,
2.128,0.14,0.20,-0.03,0.02,0.10,0.97,
2.128,0.17,0.20,-0.06,0.02,0.10,0.97,
2.13,0.17,0.20,-0.06,0.02,0.10,0.97,
2.133,0.17,0.20,-0.06,0.02,0.10,0.97,
2.133,0.19,0.21,-0.09,0.02,0.10,0.97,
2.135,0.19,0.21,-0.09,0.02,0.10,0.97,
2.138,0.19,0.21,-0.09,0.02,0.10,0.97,
2.138,0.20,0.22,-0.13,0.02,0.10,0.97,
2.14,0.20,0.22,-0.13,0.02,0.10,0.96,
2.143,0.20,0.22,-0.13,0.02,0.10,0.96,
2.143,0.22,0.23,-0.15,0.02,0.10,0.96,
2.145,0.22,0.23,-0.15,0.02,0.10,0.96,
2.148,0.22,0.23,-0.15,0.02,0.10,0.96,
2.148,0.23,0.21,-0.18,0.02,0.10,0.96,
2.15,0.23,0.21,-0.18,0.02,0.10,0.96,
2.153,0.23,0.21,-0.18,0.02,0.10,0.96,
2.153,0.23,0.18,-0.19,0.02,0.10,0.96,
2.155,0.23,0.18,-0.19,0.02,0.09,0.96,
2.157,0.23,0.18,-0.19,0.02,0.09,0.96,
2.158,0.21,0.16,-0.21,0.02,0.09,0.96,
2.16,0.21,0.16,-0.21,0.01,0.09,0.96,
2.162,0.21,0.16,-0.21,0.01,0.09,0.96,
2.162,0.18,0.14,-0.22,0.01,0.09,0.96,
2.165,0.18,0.14,-0.22,0.01,0.09,0.96,
2.167,0.18,0.14,-0.22,0.00,0.09,0.96,
2.168,0.14,0.12,-0.22,0.00,0.09,0.96,
2.17,0.14,0.12,-0.22,0.00,0.09,0.96,
2.172,0.14,0.12,-0.22,-0.00,0.09,0.96,
2.173,0.08,0.09,-0.20,-0.00,0.09,0.96,
2.175,0.08,0.09,-0.20,-0.00,0.08,0.97,
2.177,0.08,0.09,-0.20,-0.01,0.08,0.97,
2.177,0.05,0.06,-0.17,-0.01,0.08,0.97,
2.179,0.05,0.06,-0.17,-0.01,0.09,0.97,
2.182,0.05,0.06,-0.17,-0.01,0.09,0.97,
2.182,0.01,0.05,-0.12,-0.01,0.09,0.97,
2.184,0.01,0.05,-0.12,-0.01,0.08,0.98,
2.189,0.01,0.05,-0.12,-0.01,0.08,0.98,
2.19,-0.04,0.06,-0.08,-0.01,0.08,0.98,
2.19,-0.04,0.06,-0.08,-0.01,0.08,0.98,
2.191,-0.04,0.06,-0.08,-0.01,0.08,0.98,
2.192,-0.05,0.05,-0.03,-0.01,0.08,0.98,
2.194,-0.05,0.05,-0.03,-0.02,0.08,0.98,
2.196,-0.05,0.05,-0.03,-0.02,0.08,0.98,
2.196,-0.06,0.05,0.01,-0.02,0.08,0.98,
2.199,-0.06,0.05,0.01,-0.02,0.08,0.98,
2.202,-0.06,0.05,0.01,-0.02,0.09,0.98,
2.202,-0.08,0.05,0.02,-0.02,0.09,0.98,
2.204,-0.08,0.05,0.02,-0.02,0.09,0.98,
2.206,-0.08,0.05,0.02,-0.02,0.09,0.98,
2.206,-0.07,0.06,0.03,-0.02,0.09,0.98,
2.208,-0.07,0.06,0.03,-0.02,0.09,0.98,
2.211,-0.07,0.06,0.03,-0.02,0.09,0.98,
2.211,-0.08,0.10,0.02,-0.02,0.09,0.98,
2.213,-0.08,0.10,0.02,-0.02,0.09,0.97,
2.216,-0.08,0.10,0.02,-0.01,0.09,0.97,
2.216,-0.06,0.10,-0.03,-0.01,0.09,0.97,
2.219,-0.06,0.10,-0.03,-0.01,0.09,0.97,
2.221,-0.06,0.10,-0.03,-0.01,0.09,0.97,
2.221,-0.06,0.12,-0.08,-0.01,0.09,0.97,
2.223,-0.06,0.12,-0.08,-0.01,0.09,0.97,
2.226,-0.06,0.12,-0.08,-0.01,0.09,0.96,
2.226,-0.04,0.12,-0.12,-0.01,0.09,0.96,
2.228,-0.04,0.12,-0.12,-0.01,0.09,0.96,
2.231,-0.04,0.12,-0.12,-0.01,0.09,0.96,
2.231,-0.05,0.10,-0.15,-0.01,0.09,0.96,
2.233,-0.05,0.10,-0.15,-0.01,0.09,0.96,
2.236,-0.05,0.10,-0.15,-0.01,0.09,0.96,
2.236,-0.03,0.09,-0.19,-0.01,0.09,0.96,
2.238,-0.03,0.09,-0.19,-0.01,0.09,0.96,
2.241,-0.03,0.09,-0.19,-0.01,0.09,0.96,
2.241,-0.02,0.06,-0.21,-0.01,0.09,0.96,
2.243,-0.02,0.06,-0.21,-0.01,0.08,0.96,
2.245,-0.02,0.06,-0.21,-0.00,0.08,0.96,
2.246,0.00,0.05,-0.20,-0.00,0.08,0.96,
2.248,0.00,0.05,-0.20,-0.00,0.09,0.96,
2.25,0.03,0.02,-0.18,-0.00,0.09,0.96,
2.251,0.03,0.02,-0.18,-0.00,0.08,0.97,
2.254,0.03,0.02,-0.18,-0.00,0.08,0.97,
2.256,0.03,0.02,-0.18,-0.01,0.08,0.97,
2.256,0.06,0.03,-0.15,-0.01,0.08,0.97,
2.263,0.06,0.03,-0.15,-0.00,0.08,0.97,
2.263,0.06,0.03,-0.15,-0.01,0.08,0.98,
2.263,0.04,0.01,-0.09,-0.01,0.08,0.98,
2.263,0.04,0.01,-0.09,-0.01,0.08,0.98,
2.265,0.04,0.01,-0.09,-0.01,0.08,0.98,
2.266,0.03,-0.01,-0.04,-0.01,0.08,0.98,
2.267,0.03,-0.01,-0.04,-0.00,0.08,0.99,
2.27,0.03,-0.01,-0.04,-0.01,0.08,0.99,
2.271,0.02,0.01,0.03,-0.01,0.08,0.99,
2.273,0.02,0.01,0.03,-0.01,0.08,0.99,
2.275,0.02,0.01,0.03,-0.01,0.08,0.99,
2.276,0.03,0.01,0.10,-0.01,0.08,0.99,
2.278,0.03,0.01,0.10,-0.01,0.08,1.00,
2.28,0.03,0.01,0.10,-0.01,0.08,1.00,
2.28,-0.02,0.02,0.14,-0.01,0.08,1.00,
2.282,-0.02,0.02,0.14,-0.02,0.08,1.00,
2.285,-0.02,0.02,0.14,-0.02,0.08,1.00,
2.285,-0.04,0.02,0.17,-0.02,0.08,1.00,
2.288,-0.04,0.02,0.17,-0.02,0.08,1.00,
2.295,-0.04,0.02,0.17,-0.02,0.08,1.00,
2.296,-0.07,0.02,0.20,-0.02,0.08,1.00,
2.296,-0.07,0.02,0.20,-0.02,0.08,0.96,
2.296,-0.07,0.02,0.20,-0.02,0.08,0.89,
2.296,-0.07,0.02,0.18,-0.02,0.08,0.89,
2.297,-0.07,0.02,0.18,-0.01,0.09,0.85,
2.299,-0.07,0.02,0.18,0.00,0.10,0.86,
2.299,-0.09,-0.00,-0.54,0.00,0.10,0.86,
2.302,-0.09,-0.00,-0.54,0.01,0.09,0.89,
2.307,-0.09,-0.00,-0.54,0.01,0.08,0.91,
2.308,0.08,0.12,-1.26,0.01,0.08,0.91,
2.308,0.08,0.12,-1.26,0.01,0.08,0.93,
2.309,0.08,0.12,-1.26,0.01,0.07,0.95,
2.309,0.17,0.07,-0.79,0.01,0.07,0.95,
2.311,0.17,0.07,-0.79,0.00,0.07,0.96,
2.314,0.17,0.07,-0.79,-0.00,0.08,0.96,
2.314,0.18,-0.04,-0.39,-0.00,0.08,0.96,
2.316,0.18,-0.04,-0.39,-0.01,0.08,0.96,
2.319,0.18,-0.04,-0.39,-0.01,0.08,0.96,
2.319,0.10,-0.02,-0.19,-0.01,0.08,0.96,
2.321,0.10,-0.02,-0.19,-0.01,0.09,0.97,
2.324,0.10,-0.02,-0.19,-0.00,0.09,0.98,
2.324,0.02,0.06,-0.15,-0.00,0.09,0.98,
2.326,0.02,0.06,-0.15,-0.00,0.08,0.99,
2.329,0.02,0.06,-0.15,0.00,0.08,1.00,
2.329,0.03,0.09,-0.02,0.00,0.08,1.00,
2.331,0.03,0.09,-0.02,0.00,0.08,1.01,
2.334,0.03,0.09,-0.02,0.01,0.07,1.02,
2.334,0.09,0.05,0.15,0.01,0.07,1.02,
2.337,0.09,0.05,0.15,0.01,0.07,1.03,
2.339,0.09,0.05,0.15,0.01,0.07,1.05,
2.339,0.13,-0.01,0.37,0.01,0.07,1.05,
2.341,0.13,-0.01,0.37,0.01,0.08,1.06,
2.343,0.13,-0.01,0.37,0.01,0.08,1.06,
2.343,0.14,-0.03,0.60,0.01,0.08,1.06,
2.346,0.14,-0.03,0.60,0.02,0.08,1.07,
2.348,0.14,-0.03,0.60,0.02,0.08,1.07,
2.348,0.16,0.02,0.79,0.02,0.08,1.07,
2.35,0.16,0.02,0.79,0.02,0.08,1.07,
2.354,0.16,0.02,0.79,0.01,0.08,1.06,
2.355,0.24,0.04,0.90,0.01,0.08,1.06,
2.356,0.24,0.04,0.90,0.01,0.09,1.05,
2.358,0.24,0.04,0.90,0.00,0.09,1.03,
2.359,0.19,0.04,0.82,0.00,0.09,1.03,
2.36,0.19,0.04,0.82,0.00,0.09,1.02,
2.363,0.19,0.04,0.82,-0.00,0.09,1.01,
2.364,0.10,0.06,0.59,-0.00,0.09,1.01,
2.365,0.10,0.06,0.59,-0.01,0.09,0.99,
2.368,0.10,0.06,0.59,-0.01,0.09,0.98,
2.368,0.04,0.06,0.32,-0.01,0.09,0.98,
