
time,ax,ay,az,gFx,gFy,gFz,
0.002,-0.17,0.01,0.32,0.01,0.09,0.97,
0.003,-0.19,0.00,0.12,0.01,0.09,0.97,
0.003,-0.19,0.00,0.12,0.01,0.09,0.96,
0.003,-0.19,0.00,0.12,0.01,0.09,0.95,
0.003,-0.16,-0.00,-0.07,0.01,0.09,0.95,
0.004,-0.16,-0.00,-0.07,0.01,0.09,0.95,
0.006,-0.16,-0.00,-0.07,0.01,0.09,0.94,
0.006,-0.14,0.00,-0.23,0.01,0.09,0.94,
0.009,-0.14,0.00,-0.23,0.01,0.09,0.94,
0.011,-0.14,0.00,-0.23,0.02,0.09,0.94,
0.011,-0.12,0.01,-0.32,0.02,0.09,0.94,
0.02,-0.12,0.01,-0.32,0.02,0.09,0.94,
0.02,-0.12,0.01,-0.32,0.02,0.09,0.94,
0.02,-0.07,0.02,-0.36,0.02,0.09,0.94,
0.02,-0.07,0.02,-0.36,0.02,0.09,0.94,
0.021,-0.07,0.02,-0.36,0.02,0.10,0.94,
0.021,-0.02,0.02,-0.36,0.02,0.10,0.94,
0.023,-0.02,0.02,-0.36,0.02,0.10,0.94,
0.026,-0.02,0.02,-0.36,0.02,0.10,0.94,
0.026,0.01,0.03,-0.36,0.02,0.10,0.94,
0.028,0.01,0.03,-0.36,0.03,0.10,0.94,
0.031,0.01,0.03,-0.36,0.03,0.10,0.95,
0.031,0.01,0.05,-0.34,0.03,0.10,0.95,
0.033,0.01,0.05,-0.34,0.03,0.10,0.95,
0.035,0.01,0.05,-0.34,0.03,0.10,0.95,
0.036,0.04,0.06,-0.30,0.03,0.10,0.95,
0.038,0.04,0.06,-0.30,0.03,0.10,0.95,
0.041,0.05,0.09,-0.26,0.03,0.10,0.95,
0.041,0.05,0.09,-0.26,0.03,0.10,0.95,
0.043,0.05,0.09,-0.26,0.03,0.10,0.95,
0.046,0.05,0.09,-0.26,0.03,0.10,0.96,
0.047,0.06,0.10,-0.23,0.03,0.10,0.96,
0.048,0.06,0.10,-0.23,0.03,0.10,0.96,
0.05,0.06,0.10,-0.23,0.03,0.10,0.96,
0.05,0.08,0.10,-0.20,0.03,0.10,0.96,
0.053,0.08,0.10,-0.20,0.03,0.10,0.96,
0.055,0.08,0.10,-0.20,0.03,0.10,0.96,
0.055,0.09,0.11,-0.17,0.03,0.10,0.96,
0.058,0.09,0.11,-0.17,0.03,0.10,0.96,
0.06,0.09,0.11,-0.17,0.03,0.10,0.96,
0.06,0.08,0.08,-0.14,0.03,0.10,0.96,
0.063,0.08,0.08,-0.14,0.02,0.10,0.96,
0.065,0.08,0.08,-0.14,0.02,0.09,0.96,
0.065,0.05,0.09,-0.14,0.02,0.09,0.96,
0.067,0.05,0.09,-0.14,0.02,0.10,0.96,
0.07,0.05,0.09,-0.14,0.02,0.10,0.96,
0.07,0.02,0.08,-0.13,0.02,0.10,0.96,
0.072,0.02,0.08,-0.13,0.02,0.10,0.96,
0.075,0.02,0.08,-0.13,0.01,0.10,0.96,
0.075,0.00,0.08,-0.13,0.01,0.10,0.96,
0.077,0.00,0.08,-0.13,0.01,0.10,0.96,
0.079,0.00,0.08,-0.13,0.01,0.10,0.96,
0.08,-0.06,0.10,-0.11,0.01,0.10,0.96,
0.082,-0.06,0.10,-0.11,0.01,0.10,0.96,
0.084,-0.06,0.10,-0.11,0.01,0.10,0.96,
0.085,-0.11,0.12,-0.10,0.01,0.10,0.96,
0.087,-0.11,0.12,-0.10,0.01,0.10,0.97,
0.089,-0.11,0.12,-0.10,0.01,0.10,0.97,
0.09,-0.15,0.11,-0.10,0.01,0.10,0.97,
0.092,-0.15,0.11,-0.10,0.01,0.09,0.97,
0.094,-0.15,0.11,-0.10,0.01,0.09,0.97,
0.094,-0.12,0.09,-0.06,0.01,0.09,0.97,
0.098,-0.12,0.09,-0.06,0.02,0.09,0.98,
0.099,-0.12,0.09,-0.06,0.02,0.09,0.98,
0.1,-0.11,0.06,-0.02,0.02,0.09,0.98,
0.102,-0.11,0.06,-0.02,0.02,0.09,0.98,
0.104,-0.11,0.06,-0.02,0.02,0.09,0.98,
0.104,-0.03,0.07,0.02,0.02,0.09,0.98,
0.106,-0.03,0.07,0.02,0.02,0.10,0.98,
0.109,-0.03,0.07,0.02,0.02,0.09,0.98,
0.109,-0.03,0.07,0.05,0.02,0.09,0.98,
0.112,-0.03,0.07,0.05,0.02,0.09,0.98,
0.114,-0.03,0.07,0.05,0.03,0.09,0.98,
0.114,-0.01,0.08,0.09,0.03,0.09,0.98,
0.116,-0.01,0.08,0.09,0.03,0.09,0.99,
0.119,-0.01,0.08,0.09,0.03,0.09,0.98,
0.119,0.01,0.07,0.09,0.03,0.09,0.98,
0.121,0.01,0.07,0.09,0.03,0.09,0.98,
0.123,0.01,0.07,0.09,0.03,0.09,0.98,
0.124,0.02,0.07,0.10,0.03,0.09,0.98,
0.126,0.02,0.07,0.10,0.03,0.09,0.98,
0.129,0.02,0.07,0.10,0.03,0.10,0.98,
0.129,0.04,0.07,0.09,0.03,0.10,0.98,
0.131,0.04,0.07,0.09,0.03,0.09,0.98,
0.133,0.04,0.07,0.09,0.03,0.10,0.98,
0.134,0.08,0.08,0.06,0.03,0.10,0.98,
0.136,0.08,0.08,0.06,0.03,0.09,0.98,
0.138,0.08,0.08,0.06,0.03,0.09,0.98,
0.138,0.07,0.08,0.05,0.03,0.09,0.98,
0.141,0.07,0.08,0.05,0.03,0.09,0.97,
0.143,0.07,0.08,0.05,0.03,0.09,0.97,
0.144,0.04,0.07,0.02,0.03,0.09,0.97,
0.146,0.04,0.07,0.02,0.03,0.09,0.97,
0.148,0.04,0.07,0.02,0.02,0.09,0.97,
0.148,0.03,0.04,-0.01,0.02,0.09,0.97,
0.151,0.03,0.04,-0.01,0.02,0.09,0.97,
0.153,0.03,0.04,-0.01,0.02,0.09,0.97,
0.153,-0.01,0.03,-0.06,0.02,0.09,0.97,
0.155,-0.01,0.03,-0.06,0.01,0.09,0.97,
0.158,-0.01,0.03,-0.06,0.01,0.09,0.97,
0.158,-0.05,0.02,-0.06,0.01,0.09,0.97,
0.161,-0.05,0.02,-0.06,0.01,0.09,0.97,
0.163,-0.05,0.02,-0.06,0.01,0.09,0.97,
0.163,-0.13,0.02,-0.07,0.01,0.09,0.97,
0.165,-0.13,0.02,-0.07,0.00,0.09,0.97,
0.168,-0.17,0.02,-0.09,0.00,0.09,0.97,
0.168,-0.17,0.02,-0.09,0.00,0.09,0.97,
0.17,-0.17,0.02,-0.09,0.00,0.09,0.97,
0.173,-0.17,0.02,-0.09,0.00,0.09,0.98,
0.173,-0.22,0.02,-0.06,0.00,0.09,0.98,
0.175,-0.22,0.02,-0.06,-0.00,0.09,0.98,
0.178,-0.22,0.02,-0.06,-0.00,0.09,0.98,
0.178,-0.24,0.01,-0.01,-0.00,0.09,0.98,
0.18,-0.24,0.01,-0.01,-0.00,0.09,0.98,
0.182,-0.24,0.01,-0.01,-0.00,0.09,0.99,
0.182,-0.26,0.03,0.05,-0.00,0.09,0.99,
0.185,-0.26,0.03,0.05,-0.00,0.09,0.99,
0.187,-0.26,0.03,0.05,-0.01,0.09,0.99,
0.187,-0.27,0.05,0.10,-0.01,0.09,0.99,
0.19,-0.27,0.05,0.10,-0.01,0.09,1.00,
0.192,-0.27,0.05,0.10,-0.01,0.09,1.00,
0.192,-0.29,0.04,0.16,-0.01,0.09,1.00,
0.198,-0.29,0.04,0.16,-0.01,0.09,1.00,
0.198,-0.29,0.04,0.16,-0.01,0.09,1.00,
0.199,-0.29,0.04,0.22,-0.01,0.09,1.00,
0.199,-0.29,0.04,0.22,-0.01,0.09,1.00,
0.202,-0.29,0.04,0.22,-0.01,0.09,1.01,
0.202,-0.30,0.05,0.25,-0.01,0.09,1.01,
0.204,-0.30,0.05,0.25,-0.01,0.09,1.00,
0.207,-0.30,0.05,0.25,-0.01,0.09,1.00,
0.209,-0.31,0.06,0.28,-0.01,0.09,1.00,
0.209,-0.31,0.06,0.28,-0.00,0.09,1.00,
0.212,-0.31,0.06,0.28,-0.00,0.09,1.01,
0.213,-0.29,0.06,0.26,-0.00,0.09,1.01,
0.214,-0.29,0.06,0.26,-0.00,0.09,1.00,
0.217,-0.29,0.06,0.26,-0.00,0.09,1.00,
0.217,-0.27,0.06,0.27,-0.00,0.09,1.00,
0.219,-0.27,0.06,0.27,-0.00,0.09,1.00,
0.221,-0.27,0.06,0.27,-0.01,0.09,1.00,
0.221,-0.27,0.05,0.26,-0.01,0.09,1.00,
0.224,-0.27,0.05,0.26,-0.01,0.09,1.00,
0.226,-0.27,0.05,0.26,-0.01,0.09,1.00,
0.226,-0.27,0.04,0.24,-0.01,0.09,1.00,
0.229,-0.27,0.04,0.24,-0.01,0.09,1.00,
0.231,-0.27,0.04,0.24,-0.01,0.09,1.00,
0.231,-0.30,0.06,0.21,-0.01,0.09,1.00,
0.234,-0.30,0.06,0.21,-0.01,0.09,1.00,
0.236,-0.30,0.06,0.21,-0.02,0.09,1.00,
0.236,-0.33,0.06,0.20,-0.02,0.09,1.00,
0.239,-0.33,0.06,0.20,-0.02,0.09,1.00,
0.241,-0.33,0.06,0.20,-0.02,0.09,1.00,
0.241,-0.36,0.04,0.18,-0.02,0.09,1.00,
0.243,-0.36,0.04,0.18,-0.02,0.09,1.00,
0.246,-0.36,0.04,0.18,-0.02,0.09,1.00,
0.246,-0.39,0.04,0.19,-0.02,0.09,1.00,
0.248,-0.39,0.04,0.19,-0.02,0.09,1.00,
0.251,-0.39,0.04,0.19,-0.02,0.09,1.00,
0.251,-0.42,0.02,0.18,-0.02,0.09,1.00,
0.253,-0.42,0.02,0.18,-0.03,0.09,1.00,
0.256,-0.42,0.02,0.18,-0.03,0.08,1.00,
0.256,-0.43,0.01,0.18,-0.03,0.08,1.00,
0.258,-0.43,0.01,0.18,-0.03,0.08,1.00,
0.261,-0.43,0.01,0.18,-0.03,0.08,1.00,
0.261,-0.48,0.00,0.22,-0.03,0.08,1.00,
0.263,-0.48,0.00,0.22,-0.04,0.08,1.00,
0.265,-0.48,0.00,0.22,-0.04,0.08,1.01,
0.266,-0.51,-0.04,0.24,-0.04,0.08,1.01,
0.268,-0.51,-0.04,0.24,-0.04,0.08,1.01,
0.27,-0.51,-0.04,0.24,-0.04,0.08,1.01,
0.271,-0.57,-0.05,0.26,-0.04,0.08,1.01,
0.273,-0.57,-0.05,0.26,-0.05,0.08,1.01,
0.275,-0.57,-0.05,0.26,-0.05,0.08,1.01,
0.275,-0.61,-0.06,0.28,-0.05,0.08,1.01,
0.279,-0.61,-0.06,0.28,-0.05,0.08,1.01,
0.281,-0.61,-0.06,0.28,-0.05,0.08,1.01,
0.281,-0.66,-0.08,0.28,-0.05,0.08,1.01,
0.283,-0.66,-0.08,0.28,-0.06,0.08,1.01,
0.285,-0.66,-0.08,0.28,-0.05,0.08,1.01,
0.285,-0.71,-0.08,0.29,-0.05,0.08,1.01,
0.288,-0.71,-0.08,0.29,-0.06,0.08,1.01,
0.29,-0.71,-0.08,0.29,-0.06,0.08,1.01,
0.29,-0.72,-0.08,0.28,-0.06,0.08,1.01,
0.292,-0.72,-0.08,0.28,-0.05,0.08,1.01,
0.295,-0.72,-0.08,0.28,-0.06,0.08,1.01,
0.295,-0.72,-0.07,0.26,-0.06,0.08,1.01,
0.298,-0.72,-0.07,0.26,-0.06,0.08,1.01,
0.3,-0.72,-0.07,0.26,-0.06,0.08,1.01,
0.3,-0.70,-0.06,0.26,-0.06,0.08,1.01,
0.302,-0.70,-0.06,0.26,-0.05,0.08,1.01,
0.305,-0.70,-0.06,0.26,-0.05,0.08,1.01,
0.305,-0.70,-0.03,0.27,-0.05,0.08,1.01,
0.307,-0.70,-0.03,0.27,-0.05,0.09,1.01,
0.309,-0.70,-0.03,0.27,-0.05,0.08,1.01,
0.31,-0.68,-0.02,0.28,-0.05,0.08,1.01,
0.314,-0.68,-0.02,0.28,-0.06,0.09,1.01,
0.315,-0.68,-0.02,0.28,-0.05,0.09,1.01,
0.315,-0.68,-0.01,0.30,-0.05,0.09,1.01,
0.317,-0.68,-0.01,0.30,-0.06,0.09,1.01,
0.32,-0.68,-0.01,0.30,-0.06,0.08,1.01,
0.32,-0.69,-0.01,0.30,-0.06,0.08,1.01,
0.322,-0.69,-0.01,0.30,-0.06,0.08,1.01,
0.324,-0.69,-0.01,0.30,-0.06,0.08,1.01,
0.325,-0.70,-0.02,0.30,-0.06,0.08,1.01,
0.327,-0.70,-0.02,0.30,-0.06,0.08,1.01,
0.329,-0.70,-0.02,0.30,-0.07,0.08,1.01,
0.329,-0.74,-0.03,0.29,-0.07,0.08,1.01,
0.332,-0.74,-0.03,0.29,-0.07,0.08,1.01,
0.334,-0.74,-0.03,0.29,-0.07,0.08,1.01,
0.334,-0.76,-0.04,0.28,-0.07,0.08,1.01,
0.336,-0.76,-0.04,0.28,-0.07,0.08,1.01,
0.339,-0.76,-0.04,0.28,-0.08,0.08,1.01,
0.339,-0.79,-0.06,0.27,-0.08,0.08,1.01,
0.341,-0.79,-0.06,0.27,-0.08,0.08,1.01,
0.344,-0.79,-0.06,0.27,-0.08,0.07,1.01,
0.345,-0.84,-0.10,0.25,-0.08,0.07,1.01,
0.346,-0.84,-0.10,0.25,-0.08,0.07,1.01,
0.349,-0.84,-0.10,0.25,-0.08,0.07,1.00,
0.349,-0.88,-0.12,0.23,-0.08,0.07,1.00,
0.351,-0.88,-0.12,0.23,-0.08,0.07,1.00,
0.354,-0.88,-0.12,0.23,-0.09,0.07,1.00,
0.354,-0.89,-0.15,0.22,-0.09,0.07,1.00,
0.356,-0.89,-0.15,0.22,-0.09,0.07,1.00,
0.358,-0.89,-0.15,0.22,-0.09,0.07,1.00,
0.359,-0.90,-0.15,0.21,-0.09,0.07,1.00,
0.362,-0.90,-0.15,0.21,-0.09,0.07,1.00,
0.364,-0.90,-0.15,0.21,-0.09,0.07,1.00,
0.364,-0.92,-0.15,0.21,-0.09,0.07,1.00,
0.366,-0.92,-0.15,0.21,-0.09,0.07,1.00,
0.368,-0.92,-0.15,0.21,-0.09,0.07,1.00,
0.368,-0.93,-0.17,0.20,-0.09,0.07,1.00,
0.371,-0.93,-0.17,0.20,-0.09,0.07,1.00,
0.373,-0.93,-0.17,0.20,-0.09,0.07,1.00,
0.373,-0.89,-0.17,0.18,-0.09,0.07,1.00,
0.376,-0.89,-0.17,0.18,-0.09,0.07,1.00,
0.378,-0.89,-0.17,0.18,-0.09,0.07,0.99,
0.378,-0.89,-0.17,0.15,-0.09,0.07,0.99,
0.381,-0.89,-0.17,0.15,-0.09,0.07,0.99,
0.383,-0.89,-0.17,0.15,-0.09,0.08,0.99,
0.383,-0.88,-0.17,0.12,-0.09,0.08,0.99,
0.386,-0.88,-0.17,0.12,-0.09,0.08,0.99,
0.388,-0.88,-0.17,0.12,-0.09,0.08,0.99,
0.388,-0.87,-0.14,0.08,-0.09,0.08,0.99,
0.39,-0.87,-0.14,0.08,-0.08,0.08,0.99,
0.393,-0.87,-0.14,0.08,-0.09,0.08,0.99,
0.393,-0.83,-0.10,0.04,-0.09,0.08,0.99,
0.397,-0.83,-0.10,0.04,-0.08,0.08,0.98,
0.398,-0.83,-0.10,0.04,-0.08,0.08,0.98,
0.398,-0.81,-0.08,0.05,-0.08,0.08,0.98,
0.4,-0.81,-0.08,0.05,-0.08,0.08,0.98,
0.403,-0.81,-0.08,0.05,-0.08,0.08,0.98,
0.403,-0.78,-0.06,0.02,-0.08,0.08,0.98,
0.405,-0.78,-0.06,0.02,-0.08,0.08,0.98,
0.407,-0.78,-0.06,0.02,-0.08,0.08,0.98,
0.408,-0.75,-0.08,0.00,-0.08,0.08,0.98,
0.41,-0.75,-0.08,0.00,-0.08,0.08,0.98,
0.413,-0.75,-0.08,0.00,-0.08,0.08,0.98,
0.413,-0.73,-0.08,0.00,-0.08,0.08,0.98,
0.415,-0.73,-0.08,0.00,-0.08,0.08,0.98,
0.417,-0.73,-0.08,0.00,-0.08,0.08,0.98,
0.418,-0.70,-0.08,0.00,-0.08,0.08,0.98,
0.42,-0.70,-0.08,0.00,-0.08,0.08,0.98,
0.422,-0.70,-0.08,0.00,-0.08,0.08,0.98,
0.422,-0.68,-0.12,-0.00,-0.08,0.08,0.98,
0.425,-0.68,-0.12,-0.00,-0.08,0.07,0.98,
0.427,-0.68,-0.12,-0.00,-0.08,0.07,0.98,
0.427,-0.69,-0.14,-0.02,-0.08,0.07,0.98,
0.43,-0.69,-0.14,-0.02,-0.08,0.07,0.98,
0.432,-0.69,-0.14,-0.02,-0.08,0.07,0.98,
0.432,-0.69,-0.17,-0.04,-0.08,0.07,0.98,
0.435,-0.69,-0.17,-0.04,-0.08,0.07,0.98,
0.437,-0.69,-0.17,-0.04,-0.09,0.06,0.98,
0.437,-0.68,-0.22,-0.05,-0.09,0.06,0.98,
0.439,-0.68,-0.22,-0.05,-0.09,0.06,0.98,
0.442,-0.68,-0.22,-0.05,-0.09,0.06,0.98,
0.442,-0.71,-0.27,-0.05,-0.09,0.06,0.98,
0.444,-0.71,-0.27,-0.05,-0.09,0.06,0.98,
0.447,-0.71,-0.27,-0.05,-0.09,0.05,0.98,
0.447,-0.72,-0.33,-0.03,-0.09,0.05,0.98,
0.449,-0.72,-0.33,-0.03,-0.09,0.05,0.98,
0.452,-0.72,-0.33,-0.03,-0.09,0.04,0.98,
0.452,-0.73,-0.37,-0.02,-0.09,0.04,0.98,
0.454,-0.73,-0.37,-0.02,-0.09,0.04,0.98,
0.457,-0.73,-0.37,-0.02,-0.09,0.04,0.98,
0.457,-0.71,-0.44,-0.02,-0.09,0.04,0.98,
0.459,-0.71,-0.44,-0.02,-0.09,0.04,0.98,
0.461,-0.71,-0.44,-0.02,-0.09,0.04,0.98,
0.462,-0.71,-0.48,-0.01,-0.09,0.04,0.98,
0.464,-0.71,-0.48,-0.01,-0.09,0.04,0.98,
0.466,-0.71,-0.48,-0.01,-0.09,0.04,0.98,
0.466,-0.70,-0.49,-0.01,-0.09,0.04,0.98,
0.469,-0.70,-0.49,-0.01,-0.08,0.04,0.98,
0.471,-0.70,-0.49,-0.01,-0.08,0.04,0.98,
0.471,-0.66,-0.50,0.00,-0.08,0.04,0.98,
0.474,-0.66,-0.50,0.00,-0.08,0.04,0.98,
0.476,-0.66,-0.50,0.00,-0.08,0.04,0.98,
0.476,-0.61,-0.51,0.02,-0.08,0.04,0.98,
0.48,-0.61,-0.51,0.02,-0.08,0.04,0.98,
0.481,-0.61,-0.51,0.02,-0.07,0.04,0.98,
0.481,-0.57,-0.51,0.02,-0.07,0.04,0.98,
0.483,-0.57,-0.51,0.02,-0.07,0.04,0.98,
0.486,-0.57,-0.51,0.02,-0.07,0.04,0.98,
0.486,-0.51,-0.51,0.01,-0.07,0.04,0.98,
0.488,-0.51,-0.51,0.01,-0.06,0.04,0.98,
0.491,-0.51,-0.51,0.01,-0.06,0.04,0.98,
0.491,-0.43,-0.50,-0.00,-0.06,0.04,0.98,
0.497,-0.43,-0.50,-0.00,-0.06,0.04,0.97,
0.497,-0.43,-0.50,-0.00,-0.05,0.04,0.97,
0.497,-0.35,-0.48,-0.04,-0.05,0.04,0.97,
0.498,-0.35,-0.48,-0.04,-0.05,0.04,0.97,
0.501,-0.35,-0.48,-0.04,-0.05,0.04,0.97,
0.501,-0.27,-0.46,-0.08,-0.05,0.04,0.97,
0.503,-0.27,-0.46,-0.08,-0.05,0.04,0.97,
0.505,-0.27,-0.46,-0.08,-0.05,0.04,0.97,
0.506,-0.21,-0.45,-0.10,-0.05,0.04,0.97,
0.508,-0.21,-0.45,-0.10,-0.04,0.04,0.97,
0.511,-0.21,-0.45,-0.10,-0.04,0.04,0.96,
0.511,-0.16,-0.46,-0.12,-0.04,0.04,0.96,
0.513,-0.16,-0.46,-0.12,-0.04,0.04,0.96,
0.516,-0.16,-0.46,-0.12,-0.04,0.04,0.96,
0.516,-0.10,-0.47,-0.17,-0.04,0.04,0.96,
0.518,-0.10,-0.47,-0.17,-0.03,0.04,0.96,
0.52,-0.10,-0.47,-0.17,-0.03,0.04,0.95,
0.52,-0.04,-0.47,-0.23,-0.03,0.04,0.95,
0.523,-0.04,-0.47,-0.23,-0.03,0.04,0.95,
0.525,-0.04,-0.47,-0.23,-0.03,0.04,0.95,
0.525,-0.01,-0.46,-0.25,-0.03,0.04,0.95,
0.527,-0.01,-0.46,-0.25,-0.03,0.04,0.95,
0.53,-0.01,-0.46,-0.25,-0.03,0.04,0.95,
0.53,0.01,-0.49,-0.29,-0.03,0.04,0.95,
0.532,0.01,-0.49,-0.29,-0.03,0.04,0.94,
0.535,0.01,-0.49,-0.29,-0.03,0.04,0.94,
0.535,0.05,-0.49,-0.32,-0.03,0.04,0.94,
0.537,0.05,-0.49,-0.32,-0.03,0.04,0.95,
0.54,0.05,-0.49,-0.32,-0.03,0.04,0.95,
0.54,0.08,-0.50,-0.34,-0.03,0.04,0.95,
0.542,0.08,-0.50,-0.34,-0.02,0.04,0.95,
0.545,0.08,-0.50,-0.34,-0.02,0.04,0.95,
0.545,0.10,-0.49,-0.33,-0.02,0.04,0.95,
0.547,0.10,-0.49,-0.33,-0.02,0.04,0.95,
0.55,0.10,-0.49,-0.33,-0.02,0.04,0.95,
0.55,0.14,-0.50,-0.30,-0.02,0.04,0.95,
0.552,0.14,-0.50,-0.30,-0.02,0.04,0.95,
0.555,0.14,-0.50,-0.30,-0.02,0.04,0.96,
0.555,0.17,-0.48,-0.27,-0.02,0.04,0.96,
0.557,0.17,-0.48,-0.27,-0.01,0.04,0.96,
0.559,0.17,-0.48,-0.27,-0.01,0.04,0.96,
0.56,0.22,-0.49,-0.23,-0.01,0.04,0.96,
0.562,0.22,-0.49,-0.23,-0.01,0.04,0.96,
0.564,0.22,-0.49,-0.23,-0.00,0.04,0.97,
0.564,0.29,-0.47,-0.18,-0.00,0.04,0.97,
0.567,0.29,-0.47,-0.18,-0.00,0.04,0.97,
0.569,0.29,-0.47,-0.18,-0.00,0.04,0.97,
0.569,0.33,-0.45,-0.13,-0.00,0.04,0.97,
0.572,0.33,-0.45,-0.13,-0.00,0.04,0.98,
0.574,0.33,-0.45,-0.13,0.00,0.04,0.98,
0.574,0.36,-0.45,-0.06,0.00,0.04,0.98,
0.579,0.36,-0.45,-0.06,0.01,0.04,0.98,
0.58,0.36,-0.45,-0.06,0.01,0.04,0.97,
0.58,0.40,-0.47,-0.02,0.01,0.04,0.97,
0.582,0.40,-0.47,-0.02,0.01,0.04,0.98,
0.584,0.40,-0.47,-0.02,0.01,0.04,0.98,
0.584,0.46,-0.47,-0.03,0.01,0.04,0.98,
0.586,0.46,-0.47,-0.03,0.01,0.04,0.98,
0.589,0.46,-0.47,-0.03,0.01,0.04,0.98,
0.589,0.51,-0.48,-0.01,0.01,0.04,0.98,
0.591,0.51,-0.48,-0.01,0.01,0.04,0.98,
0.594,0.51,-0.48,-0.01,0.01,0.04,0.98,
0.594,0.54,-0.48,-0.02,0.01,0.04,0.98,
0.596,0.54,-0.48,-0.02,0.02,0.03,0.97,
0.599,0.54,-0.48,-0.02,0.02,0.03,0.97,
0.599,0.55,-0.48,-0.02,0.02,0.03,0.97,
0.601,0.55,-0.48,-0.02,0.02,0.03,0.97,
0.603,0.55,-0.48,-0.02,0.02,0.03,0.97,
0.604,0.57,-0.51,-0.05,0.02,0.03,0.97,
0.606,0.57,-0.51,-0.05,0.02,0.03,0.96,
0.608,0.57,-0.51,-0.05,0.02,0.03,0.97,
0.609,0.60,-0.51,-0.09,0.02,0.03,0.97,
0.615,0.60,-0.51,-0.09,0.02,0.03,0.96,
0.615,0.60,-0.51,-0.09,0.02,0.03,0.96,
0.616,0.64,-0.52,-0.12,0.02,0.03,0.96,
0.616,0.64,-0.52,-0.12,0.02,0.03,0.96,
0.618,0.64,-0.52,-0.12,0.02,0.03,0.95,
0.618,0.65,-0.53,-0.15,0.02,0.03,0.95,
0.621,0.65,-0.53,-0.15,0.02,0.03,0.95,
0.623,0.65,-0.53,-0.15,0.02,0.03,0.95,
0.623,0.65,-0.54,-0.21,0.02,0.03,0.95,
0.626,0.65,-0.54,-0.21,0.02,0.03,0.95,
0.628,0.65,-0.54,-0.21,0.02,0.03,0.95,
0.629,0.65,-0.53,-0.25,0.02,0.03,0.95,
0.63,0.65,-0.53,-0.25,0.02,0.03,0.95,
0.633,0.65,-0.53,-0.25,0.02,0.03,0.94,
0.633,0.65,-0.54,-0.28,0.02,0.03,0.94,
0.635,0.65,-0.54,-0.28,0.01,0.03,0.94,
0.638,0.65,-0.54,-0.28,0.01,0.03,0.94,
0.638,0.61,-0.51,-0.30,0.01,0.03,0.94,
0.64,0.61,-0.51,-0.30,0.01,0.03,0.94,
0.643,0.61,-0.51,-0.30,0.01,0.03,0.94,
0.643,0.58,-0.51,-0.33,0.01,0.03,0.94,
0.645,0.58,-0.51,-0.33,0.01,0.03,0.94,
0.648,0.58,-0.51,-0.33,0.01,0.03,0.94,
0.648,0.58,-0.49,-0.34,0.01,0.03,0.94,
0.65,0.58,-0.49,-0.34,0.01,0.04,0.94,
0.653,0.58,-0.49,-0.34,0.01,0.04,0.94,
0.653,0.59,-0.48,-0.36,0.01,0.04,0.94,
0.655,0.59,-0.48,-0.36,0.01,0.04,0.94,
0.658,0.59,-0.48,-0.36,0.02,0.04,0.94,
0.658,0.59,-0.43,-0.37,0.02,0.04,0.94,
0.66,0.59,-0.43,-0.37,0.02,0.04,0.94,
0.662,0.59,-0.43,-0.37,0.02,0.04,0.94,
0.663,0.62,-0.42,-0.37,0.02,0.04,0.94,
0.665,0.62,-0.42,-0.37,0.02,0.04,0.94,
0.667,0.62,-0.42,-0.37,0.02,0.04,0.94,
0.667,0.67,-0.39,-0.37,0.02,0.04,0.94,
0.67,0.67,-0.39,-0.37,0.03,0.04,0.94,
0.672,0.67,-0.39,-0.37,0.03,0.04,0.94,
0.672,0.71,-0.35,-0.34,0.03,0.04,0.94,
0.675,0.71,-0.35,-0.34,0.03,0.04,0.94,
0.677,0.71,-0.35,-0.34,0.04,0.04,0.94,
0.678,0.78,-0.36,-0.33,0.04,0.04,0.94,
0.68,0.78,-0.36,-0.33,0.04,0.04,0.94,
0.682,0.78,-0.36,-0.33,0.04,0.04,0.94,
0.682,0.84,-0.35,-0.32,0.04,0.04,0.94,
0.687,0.84,-0.35,-0.32,0.04,0.04,0.94,
0.687,0.84,-0.35,-0.32,0.04,0.05,0.94,
0.688,0.90,-0.33,-0.30,0.04,0.05,0.94,
0.689,0.90,-0.33,-0.30,0.04,0.04,0.94,
0.692,0.90,-0.33,-0.30,0.05,0.04,0.94,
0.692,0.93,-0.32,-0.30,0.05,0.04,0.94,
0.699,0.93,-0.32,-0.30,0.05,0.05,0.94,
0.699,0.93,-0.32,-0.30,0.05,0.05,0.94,
0.701,0.94,-0.31,-0.27,0.05,0.05,0.94,
0.702,0.94,-0.31,-0.27,0.04,0.05,0.94,
0.702,0.94,-0.31,-0.27,0.05,0.04,0.94,
0.702,0.96,-0.28,-0.27,0.05,0.04,0.94,
0.704,0.96,-0.28,-0.27,0.04,0.04,0.94,
0.706,0.96,-0.28,-0.27,0.04,0.04,0.94,
0.706,0.95,-0.29,-0.27,0.04,0.04,0.94,
0.71,0.95,-0.29,-0.27,0.04,0.04,0.94,
0.711,0.93,-0.28,-0.28,0.04,0.04,0.94,
0.711,0.93,-0.28,-0.28,0.04,0.04,0.94,
0.714,0.93,-0.28,-0.28,0.04,0.04,0.94,
0.716,0.93,-0.28,-0.28,0.04,0.04,0.94,
0.716,0.91,-0.30,-0.28,0.04,0.04,0.94,
0.719,0.91,-0.30,-0.28,0.04,0.04,0.94,
0.721,0.91,-0.30,-0.28,0.04,0.04,0.94,
0.721,0.91,-0.30,-0.28,0.04,0.04,0.94,
0.723,0.91,-0.30,-0.28,0.04,0.04,0.94,
0.726,0.91,-0.30,-0.28,0.04,0.04,0.94,
0.727,0.90,-0.30,-0.28,0.04,0.04,0.94,
0.728,0.90,-0.30,-0.28,0.04,0.04,0.94,
0.731,0.90,-0.30,-0.28,0.04,0.04,0.94,
0.731,0.89,-0.28,-0.27,0.04,0.04,0.94,
0.733,0.89,-0.28,-0.27,0.04,0.04,0.94,
0.736,0.89,-0.28,-0.27,0.05,0.04,0.95,
0.736,0.91,-0.26,-0.27,0.05,0.04,0.95,
0.738,0.91,-0.26,-0.27,0.05,0.05,0.95,
0.741,0.91,-0.26,-0.27,0.05,0.05,0.95,
0.741,0.94,-0.24,-0.25,0.05,0.05,0.95,
0.743,0.94,-0.24,-0.25,0.06,0.05,0.95,
0.746,0.94,-0.24,-0.25,0.06,0.05,0.95,
0.746,0.97,-0.21,-0.22,0.06,0.05,0.95,
0.748,0.97,-0.21,-0.22,0.06,0.05,0.95,
0.75,0.97,-0.21,-0.22,0.07,0.05,0.95,
0.751,1.04,-0.16,-0.17,0.07,0.05,0.95,
0.753,1.04,-0.16,-0.17,0.07,0.06,0.96,
0.755,1.04,-0.16,-0.17,0.08,0.06,0.96,
0.755,1.11,-0.14,-0.16,0.08,0.06,0.96,
0.758,1.11,-0.14,-0.16,0.08,0.06,0.96,
0.761,1.11,-0.14,-0.16,0.08,0.06,0.96,
0.761,1.19,-0.10,-0.13,0.08,0.06,0.96,
0.763,1.19,-0.10,-0.13,0.08,0.06,0.96,
0.765,1.19,-0.10,-0.13,0.09,0.06,0.96,
0.766,1.23,-0.05,-0.11,0.09,0.06,0.96,
0.768,1.23,-0.05,-0.11,0.09,0.06,0.96,
0.77,1.23,-0.05,-0.11,0.09,0.06,0.96,
0.77,1.27,-0.01,-0.07,0.09,0.06,0.96,
0.773,1.27,-0.01,-0.07,0.09,0.07,0.97,
0.775,1.27,-0.01,-0.07,0.09,0.07,0.97,
0.775,1.27,0.00,-0.05,0.09,0.07,0.97,
0.778,1.27,0.00,-0.05,0.09,0.07,0.97,
0.78,1.27,0.00,-0.05,0.09,0.07,0.96,
0.78,1.28,0.02,-0.03,0.09,0.07,0.96,
0.782,1.28,0.02,-0.03,0.09,0.07,0.97,
0.785,1.28,0.02,-0.03,0.10,0.07,0.97,
0.785,1.30,0.03,-0.05,0.10,0.07,0.97,
0.787,1.30,0.03,-0.05,0.10,0.07,0.97,
0.79,1.30,0.03,-0.05,0.10,0.07,0.97,
0.79,1.31,0.03,-0.04,0.10,0.07,0.97,
0.799,1.31,0.03,-0.04,0.10,0.07,0.97,
0.799,1.33,0.04,-0.01,0.10,0.07,0.97,
0.799,1.33,0.04,-0.01,0.10,0.07,0.97,
0.8,1.33,0.04,-0.01,0.10,0.07,0.97,
0.8,1.33,0.04,-0.01,0.10,0.07,0.97,
0.8,1.33,0.04,0.00,0.10,0.07,0.97,
0.802,1.33,0.04,0.00,0.10,0.07,0.98,
0.804,1.33,0.04,0.00,0.11,0.07,0.98,
0.804,1.33,0.08,0.03,0.11,0.07,0.98,
0.807,1.33,0.08,0.03,0.11,0.07,0.98,
0.81,1.33,0.08,0.03,0.11,0.08,0.99,
0.81,1.35,0.11,0.08,0.11,0.08,0.99,
0.812,1.35,0.11,0.08,0.12,0.08,0.99,
0.814,1.35,0.11,0.08,0.13,0.08,0.99,
0.814,1.40,0.16,0.14,0.13,0.08,0.99,
0.817,1.40,0.16,0.14,0.13,0.09,0.99,
0.819,1.40,0.16,0.14,0.14,0.09,0.99,
0.819,1.49,0.21,0.20,0.14,0.09,0.99,
0.821,1.49,0.21,0.20,0.14,0.09,1.00,
0.824,1.49,0.21,0.20,0.15,0.09,1.00,
0.824,1.56,0.27,0.23,0.15,0.09,1.00,
0.827,1.56,0.27,0.23,0.15,0.10,1.00,
0.829,1.56,0.27,0.23,0.16,0.10,1.00,
0.829,1.65,0.31,0.24,0.16,0.10,1.00,
0.835,1.65,0.31,0.24,0.17,0.10,1.00,
0.835,1.65,0.31,0.24,0.17,0.10,1.00,
0.835,1.77,0.37,0.25,0.17,0.10,1.00,
0.836,1.77,0.37,0.25,0.18,0.11,1.00,
0.839,1.77,0.37,0.25,0.19,0.11,0.99,
0.839,1.88,0.42,0.25,0.19,0.11,0.99,
0.841,1.88,0.42,0.25,0.19,0.12,0.99,
0.844,1.88,0.42,0.25,0.20,0.12,0.99,
0.844,1.98,0.50,0.22,0.20,0.12,0.99,
0.846,1.98,0.50,0.22,0.20,0.12,0.99,
0.849,1.98,0.50,0.22,0.20,0.13,0.99,
0.849,2.05,0.57,0.20,0.20,0.13,0.99,
0.851,2.05,0.57,0.20,0.21,0.13,0.99,
0.853,2.05,0.57,0.20,0.21,0.13,0.99,
0.854,2.13,0.64,0.17,0.21,0.13,0.99,
0.856,2.13,0.64,0.17,0.21,0.14,0.98,
0.858,2.13,0.64,0.17,0.21,0.14,0.98,
0.859,2.15,0.70,0.14,0.21,0.14,0.98,
0.861,2.15,0.70,0.14,0.21,0.14,0.98,
0.864,2.15,0.70,0.14,0.21,0.14,0.98,
0.864,2.20,0.77,0.09,0.21,0.14,0.98,
0.866,2.20,0.77,0.09,0.21,0.14,0.97,
0.868,2.20,0.77,0.09,0.21,0.15,0.97,
0.869,2.20,0.82,0.05,0.21,0.15,0.97,
0.871,2.20,0.82,0.05,0.21,0.15,0.97,
0.873,2.20,0.82,0.05,0.21,0.15,0.97,
0.874,2.18,0.86,-0.00,0.21,0.15,0.97,
0.876,2.18,0.86,-0.00,0.21,0.15,0.97,
0.878,2.18,0.86,-0.00,0.21,0.15,0.97,
0.878,2.17,0.91,-0.03,0.21,0.15,0.97,
0.881,2.17,0.91,-0.03,0.21,0.15,0.97,
0.883,2.17,0.91,-0.03,0.21,0.15,0.97,
0.883,2.12,0.91,-0.05,0.21,0.15,0.97,
0.885,2.12,0.91,-0.05,0.21,0.15,0.97,
0.887,2.12,0.91,-0.05,0.20,0.15,0.97,
0.887,2.12,0.89,-0.04,0.20,0.15,0.97,
0.89,2.12,0.89,-0.04,0.20,0.14,0.97,
0.892,2.12,0.89,-0.04,0.20,0.14,0.97,
0.893,2.08,0.88,-0.02,0.20,0.14,0.97,
0.895,2.08,0.88,-0.02,0.20,0.14,0.97,
0.898,2.08,0.88,-0.02,0.20,0.13,0.98,
0.898,2.03,0.85,0.01,0.20,0.13,0.98,
0.9,2.03,0.85,0.01,0.19,0.13,0.98,
0.902,2.03,0.85,0.01,0.19,0.13,0.98,
0.903,1.99,0.79,0.04,0.19,0.13,0.98,
0.905,1.99,0.79,0.04,0.19,0.13,0.99,
0.907,1.92,0.74,0.09,0.19,0.13,0.99,
0.908,1.92,0.74,0.09,0.18,0.13,0.99,
0.914,1.92,0.74,0.09,0.18,0.12,0.99,
0.915,1.92,0.74,0.09,0.18,0.12,1.00,
0.915,1.85,0.70,0.16,0.18,0.12,1.00,
0.915,1.85,0.70,0.16,0.18,0.12,1.00,
0.917,1.85,0.70,0.16,0.17,0.12,1.00,
0.917,1.77,0.67,0.20,0.17,0.12,1.00,
0.919,1.77,0.67,0.20,0.17,0.12,1.00,
0.922,1.77,0.67,0.20,0.17,0.12,1.01,
0.922,1.71,0.65,0.26,0.17,0.12,1.01,
0.924,1.71,0.65,0.26,0.17,0.12,1.01,
0.927,1.71,0.65,0.26,0.16,0.12,1.01,
0.927,1.66,0.65,0.32,0.16,0.12,1.01,
0.929,1.66,0.65,0.32,0.16,0.12,1.01,
0.932,1.66,0.65,0.32,0.16,0.12,1.01,
0.932,1.62,0.65,0.37,0.16,0.12,1.01,
0.934,1.62,0.65,0.37,0.16,0.12,1.02,
0.936,1.62,0.65,0.37,0.16,0.11,1.02,
0.937,1.58,0.65,0.40,0.16,0.11,1.02,
0.939,1.58,0.65,0.40,0.15,0.11,1.02,
0.942,1.58,0.65,0.40,0.15,0.11,1.02,
0.942,1.53,0.62,0.43,0.15,0.11,1.02,
0.944,1.53,0.62,0.43,0.15,0.11,1.02,
0.947,1.53,0.62,0.43,0.15,0.11,1.02,
0.947,1.47,0.61,0.43,0.15,0.11,1.02,
0.949,1.47,0.61,0.43,0.14,0.11,1.02,
0.951,1.47,0.61,0.43,0.14,0.11,1.02,
0.951,1.42,0.60,0.44,0.14,0.11,1.02,
0.954,1.42,0.60,0.44,0.14,0.11,1.02,
0.956,1.42,0.60,0.44,0.14,0.11,1.02,
0.956,1.36,0.58,0.44,0.14,0.11,1.02,
0.959,1.36,0.58,0.44,0.13,0.10,1.02,
0.961,1.36,0.58,0.44,0.13,0.10,1.02,
0.962,1.29,0.55,0.42,0.13,0.10,1.02,
0.964,1.29,0.55,0.42,0.13,0.10,1.01,
0.966,1.29,0.55,0.42,0.13,0.10,1.01,
0.966,1.23,0.52,0.43,0.13,0.10,1.01,
0.968,1.23,0.52,0.43,0.12,0.09,1.01,
0.971,1.23,0.52,0.43,0.12,0.09,1.01,
0.971,1.15,0.49,0.39,0.12,0.09,1.01,
0.973,1.15,0.49,0.39,0.12,0.09,1.01,
0.976,1.15,0.49,0.39,0.11,0.09,1.01,
0.976,1.09,0.44,0.38,0.11,0.09,1.01,
0.978,1.09,0.44,0.38,0.11,0.08,1.01,
0.981,1.09,0.44,0.38,0.11,0.08,1.01,
0.981,1.02,0.39,0.39,0.11,0.08,1.01,
0.983,1.02,0.39,0.39,0.10,0.08,1.01,
0.986,0.95,0.33,0.38,0.10,0.08,1.01,
0.986,0.95,0.33,0.38,0.10,0.07,1.01,
0.988,0.95,0.33,0.38,0.10,0.07,1.01,
0.991,0.95,0.33,0.38,0.10,0.07,1.01,
0.991,0.88,0.27,0.38,0.10,0.07,1.01,
0.998,0.88,0.27,0.38,0.10,0.07,1.01,
0.998,0.88,0.27,0.38,0.09,0.07,1.01,
0.999,0.82,0.23,0.39,0.09,0.07,1.01,
0.999,0.82,0.23,0.39,0.09,0.07,1.01,
1.0,0.82,0.23,0.39,0.09,0.07,1.01,
1.001,0.76,0.19,0.39,0.09,0.07,1.01,
1.003,0.76,0.19,0.39,0.09,0.06,1.01,
1.005,0.76,0.19,0.39,0.08,0.06,1.01,
1.005,0.72,0.18,0.40,0.08,0.06,1.01,
1.008,0.72,0.18,0.40,0.08,0.06,1.01,
1.013,0.72,0.18,0.40,0.08,0.06,1.01,
1.013,0.65,0.15,0.38,0.08,0.06,1.01,
1.014,0.65,0.15,0.38,0.08,0.06,1.01,
1.015,0.65,0.15,0.38,0.08,0.06,1.01,
1.015,0.61,0.13,0.36,0.08,0.06,1.01,
1.017,0.61,0.13,0.36,0.08,0.06,1.01,
1.02,0.61,0.13,0.36,0.07,0.06,1.01,
1.02,0.57,0.11,0.34,0.07,0.06,1.01,
1.022,0.57,0.11,0.34,0.07,0.06,1.00,
1.025,0.57,0.11,0.34,0.07,0.06,1.00,
1.025,0.52,0.08,0.31,0.07,0.06,1.00,
1.027,0.52,0.08,0.31,0.07,0.05,1.00,
1.03,0.52,0.08,0.31,0.07,0.05,1.00,
1.03,0.45,0.06,0.29,0.07,0.05,1.00,
1.032,0.45,0.06,0.29,0.06,0.05,1.00,
1.035,0.45,0.06,0.29,0.06,0.04,1.00,
1.035,0.39,0.00,0.27,0.06,0.04,1.00,
1.037,0.39,0.00,0.27,0.06,0.04,1.00,
1.039,0.39,0.00,0.27,0.05,0.04,0.99,
1.039,0.31,-0.05,0.25,0.05,0.04,0.99,
1.042,0.31,-0.05,0.25,0.05,0.04,0.99,
1.045,0.31,-0.05,0.25,0.05,0.04,0.99,
1.045,0.24,-0.09,0.21,0.05,0.04,0.99,
1.047,0.24,-0.09,0.21,0.04,0.03,0.99,
1.049,0.24,-0.09,0.21,0.04,0.03,0.99,
1.049,0.17,-0.13,0.17,0.04,0.03,0.99,
1.052,0.17,-0.13,0.17,0.05,0.03,0.99,
1.054,0.17,-0.13,0.17,0.04,0.03,0.98,
1.054,0.11,-0.17,0.15,0.04,0.03,0.98,
1.056,0.11,-0.17,0.15,0.04,0.02,0.98,
1.06,0.11,-0.17,0.15,0.04,0.02,0.98,
1.062,0.08,-0.22,0.11,0.04,0.02,0.98,
1.063,0.08,-0.22,0.11,0.04,0.02,0.98,
1.064,0.08,-0.22,0.11,0.03,0.02,0.97,
1.064,0.02,-0.29,0.06,0.03,0.02,0.97,
1.066,0.02,-0.29,0.06,0.03,0.02,0.98,
1.069,0.02,-0.29,0.06,0.03,0.02,0.98,
1.069,-0.04,-0.33,0.02,0.03,0.02,0.98,
1.071,-0.04,-0.33,0.02,0.03,0.02,0.97,
1.074,-0.04,-0.33,0.02,0.03,0.01,0.98,
1.074,-0.08,-0.35,0.02,0.03,0.01,0.98,
1.076,-0.08,-0.35,0.02,0.03,0.01,0.98,
1.079,-0.08,-0.35,0.02,0.03,0.01,0.98,
1.079,-0.11,-0.36,0.02,0.03,0.01,0.98,
1.081,-0.11,-0.36,0.02,0.03,0.01,0.98,
1.083,-0.11,-0.36,0.02,0.03,0.01,0.98,
1.084,-0.15,-0.38,0.03,0.03,0.01,0.98,
1.086,-0.15,-0.38,0.03,0.02,0.01,0.98,
1.088,-0.15,-0.38,0.03,0.02,0.01,0.99,
1.089,-0.19,-0.40,0.06,0.02,0.01,0.99,
1.098,-0.19,-0.40,0.06,0.02,0.00,0.99,
1.099,-0.19,-0.40,0.06,0.02,0.00,0.99,
1.099,-0.22,-0.43,0.11,0.02,0.00,0.99,
1.099,-0.22,-0.43,0.11,0.02,-0.00,0.99,
1.099,-0.22,-0.43,0.11,0.02,-0.00,0.99,
1.099,-0.27,-0.50,0.15,0.02,-0.00,0.99,
1.101,-0.27,-0.50,0.15,0.01,-0.00,1.00,
1.103,-0.27,-0.50,0.15,0.01,-0.01,1.00,
1.104,-0.31,-0.53,0.20,0.01,-0.01,1.00,
1.105,-0.31,-0.53,0.20,0.01,-0.01,1.00,
1.109,-0.31,-0.53,0.20,0.00,-0.01,1.00,
1.109,-0.38,-0.56,0.23,0.00,-0.01,1.00,
1.111,-0.38,-0.56,0.23,0.00,-0.01,1.00,
1.113,-0.38,-0.56,0.23,-0.00,-0.02,1.00,
1.113,-0.46,-0.60,0.24,-0.00,-0.02,1.00,
1.115,-0.46,-0.60,0.24,-0.00,-0.02,0.99,
1.118,-0.46,-0.60,0.24,-0.01,-0.02,0.99,
1.118,-0.54,-0.64,0.23,-0.01,-0.02,0.99,
1.12,-0.54,-0.64,0.23,-0.01,-0.02,0.99,
1.123,-0.54,-0.64,0.23,-0.02,-0.03,0.99,
1.123,-0.62,-0.68,0.20,-0.02,-0.03,0.99,
1.125,-0.62,-0.68,0.20,-0.02,-0.03,0.99,
1.128,-0.62,-0.68,0.20,-0.02,-0.03,0.99,
1.128,-0.72,-0.73,0.18,-0.02,-0.03,0.99,
1.13,-0.72,-0.73,0.18,-0.02,-0.03,0.98,
1.132,-0.72,-0.73,0.18,-0.03,-0.03,0.98,
1.133,-0.79,-0.77,0.13,-0.03,-0.03,0.98,
1.135,-0.79,-0.77,0.13,-0.03,-0.04,0.98,
1.137,-0.79,-0.77,0.13,-0.03,-0.04,0.97,
1.138,-0.85,-0.82,0.08,-0.03,-0.04,0.97,
1.14,-0.85,-0.82,0.08,-0.03,-0.04,0.97,
1.143,-0.85,-0.82,0.08,-0.04,-0.04,0.97,
1.143,-0.90,-0.87,0.02,-0.04,-0.04,0.97,
1.145,-0.90,-0.87,0.02,-0.04,-0.04,0.96,
1.147,-0.90,-0.87,0.02,-0.04,-0.04,0.96,
1.147,-0.94,-0.90,-0.04,-0.04,-0.04,0.96,
1.15,-0.94,-0.90,-0.04,-0.04,-0.04,0.96,
1.152,-0.94,-0.90,-0.04,-0.04,-0.04,0.95,
1.152,-1.00,-0.90,-0.11,-0.04,-0.04,0.95,
1.155,-1.00,-0.90,-0.11,-0.04,-0.04,0.95,
1.157,-1.00,-0.90,-0.11,-0.04,-0.04,0.95,
1.158,-1.04,-0.91,-0.17,-0.04,-0.04,0.95,
1.16,-1.04,-0.91,-0.17,-0.04,-0.04,0.95,
1.162,-1.04,-0.91,-0.17,-0.05,-0.04,0.95,
1.162,-1.06,-0.90,-0.21,-0.05,-0.04,0.95,
1.164,-1.06,-0.90,-0.21,-0.05,-0.04,0.95,
1.167,-1.06,-0.90,-0.21,-0.05,-0.04,0.95,
1.167,-1.10,-0.89,-0.25,-0.05,-0.04,0.95,
1.169,-1.10,-0.89,-0.25,-0.05,-0.04,0.95,
1.172,-1.10,-0.89,-0.25,-0.05,-0.04,0.95,
1.172,-1.14,-0.88,-0.24,-0.05,-0.04,0.95,
1.175,-1.14,-0.88,-0.24,-0.05,-0.04,0.95,
1.177,-1.14,-0.88,-0.24,-0.05,-0.04,0.95,
1.177,-1.19,-0.88,-0.21,-0.05,-0.04,0.95,
1.179,-1.19,-0.88,-0.21,-0.06,-0.04,0.95,
1.182,-1.19,-0.88,-0.21,-0.06,-0.04,0.96,
1.182,-1.22,-0.88,-0.19,-0.06,-0.04,0.96,
1.184,-1.22,-0.88,-0.19,-0.06,-0.04,0.96,
1.186,-1.22,-0.88,-0.19,-0.06,-0.04,0.96,
1.189,-1.25,-0.87,-0.17,-0.06,-0.04,0.96,
1.19,-1.25,-0.87,-0.17,-0.06,-0.04,0.96,
1.192,-1.25,-0.87,-0.17,-0.06,-0.04,0.96,
1.192,-1.25,-0.87,-0.14,-0.06,-0.04,0.96,
1.194,-1.25,-0.87,-0.14,-0.06,-0.04,0.96,
1.197,-1.25,-0.87,-0.14,-0.06,-0.04,0.96,
1.197,-1.27,-0.87,-0.11,-0.06,-0.04,0.96,
1.199,-1.27,-0.87,-0.11,-0.06,-0.04,0.96,
1.201,-1.27,-0.87,-0.11,-0.06,-0.04,0.97,
1.201,-1.30,-0.87,-0.08,-0.06,-0.04,0.97,
1.204,-1.30,-0.87,-0.08,-0.06,-0.04,0.97,
1.206,-1.30,-0.87,-0.08,-0.06,-0.04,0.97,
1.207,-1.30,-0.86,-0.07,-0.06,-0.04,0.97,
1.214,-1.30,-0.86,-0.07,-0.06,-0.04,0.97,
1.214,-1.30,-0.86,-0.07,-0.06,-0.03,0.97,
1.215,-1.33,-0.85,-0.05,-0.06,-0.03,0.97,
1.215,-1.33,-0.85,-0.05,-0.06,-0.03,0.97,
1.216,-1.33,-0.85,-0.05,-0.06,-0.04,0.96,
1.216,-1.36,-0.84,-0.04,-0.06,-0.04,0.96,
1.218,-1.36,-0.84,-0.04,-0.06,-0.03,0.97,
1.22,-1.36,-0.84,-0.04,-0.06,-0.03,0.96,
1.221,-1.36,-0.83,-0.06,-0.06,-0.03,0.96,
1.223,-1.36,-0.83,-0.06,-0.06,-0.03,0.96,
1.226,-1.36,-0.83,-0.06,-0.06,-0.03,0.96,
1.226,-1.35,-0.81,-0.07,-0.06,-0.03,0.96,
1.228,-1.35,-0.81,-0.07,-0.05,-0.03,0.96,
1.231,-1.36,-0.79,-0.10,-0.05,-0.03,0.96,
1.231,-1.36,-0.79,-0.10,-0.06,-0.03,0.96,
1.233,-1.36,-0.79,-0.10,-0.05,-0.03,0.95,
1.235,-1.36,-0.79,-0.10,-0.05,-0.03,0.95,
1.236,-1.35,-0.77,-0.14,-0.05,-0.03,0.95,
1.238,-1.35,-0.77,-0.14,-0.05,-0.02,0.95,
1.241,-1.35,-0.77,-0.14,-0.05,-0.02,0.95,
1.241,-1.34,-0.75,-0.18,-0.05,-0.02,0.95,
1.242,-1.34,-0.75,-0.18,-0.05,-0.02,0.94,
1.245,-1.34,-0.75,-0.18,-0.05,-0.02,0.94,
1.245,-1.32,-0.72,-0.23,-0.05,-0.02,0.94,
1.248,-1.32,-0.72,-0.23,-0.05,-0.02,0.94,
1.25,-1.32,-0.72,-0.23,-0.06,-0.02,0.94,
1.25,-1.34,-0.69,-0.29,-0.06,-0.02,0.94,
1.252,-1.34,-0.69,-0.29,-0.06,-0.02,0.93,
1.255,-1.34,-0.69,-0.29,-0.06,-0.01,0.93,
1.255,-1.38,-0.65,-0.34,-0.06,-0.01,0.93,
1.258,-1.38,-0.65,-0.34,-0.06,-0.01,0.93,
1.26,-1.38,-0.65,-0.34,-0.06,-0.01,0.93,
1.26,-1.42,-0.62,-0.37,-0.06,-0.01,0.93,
1.262,-1.42,-0.62,-0.37,-0.06,-0.01,0.93,
1.265,-1.42,-0.62,-0.37,-0.06,-0.01,0.93,
1.265,-1.44,-0.57,-0.38,-0.06,-0.01,0.93,
1.267,-1.44,-0.57,-0.38,-0.07,-0.00,0.94,
1.269,-1.44,-0.57,-0.38,-0.07,-0.00,0.94,
1.27,-1.48,-0.54,-0.36,-0.07,-0.00,0.94,
1.272,-1.48,-0.54,-0.36,-0.07,-0.00,0.95,
1.275,-1.48,-0.54,-0.36,-0.07,-0.00,0.95,
1.275,-1.52,-0.49,-0.31,-0.07,-0.00,0.95,
1.277,-1.52,-0.49,-0.31,-0.07,-0.00,0.96,
1.279,-1.52,-0.49,-0.31,-0.07,0.00,0.96,
1.28,-1.56,-0.47,-0.21,-0.07,0.00,0.96,
1.282,-1.56,-0.47,-0.21,-0.07,-0.00,0.97,
1.284,-1.56,-0.47,-0.21,-0.07,0.00,0.98,
1.285,-1.56,-0.44,-0.10,-0.07,0.00,0.98,
1.287,-1.56,-0.44,-0.10,-0.07,0.00,0.98,
1.289,-1.56,-0.44,-0.10,-0.07,-0.00,0.98,
1.29,-1.58,-0.43,0.02,-0.07,-0.00,0.98,
1.297,-1.58,-0.43,0.02,-0.07,0.00,0.99,
1.298,-1.58,-0.43,0.02,-0.07,-0.00,0.99,
1.298,-1.59,-0.42,0.12,-0.07,-0.00,0.99,
1.298,-1.59,-0.42,0.12,-0.07,0.00,0.99,
1.299,-1.59,-0.42,0.12,-0.06,0.00,1.00,
1.299,-1.60,-0.41,0.19,-0.06,0.00,1.00,
1.301,-1.60,-0.41,0.19,-0.07,0.00,1.00,
1.304,-1.60,-0.41,0.19,-0.07,0.01,1.00,
1.304,-1.56,-0.40,0.24,-0.07,0.01,1.00,
1.306,-1.56,-0.40,0.24,-0.06,0.01,0.99,
1.309,-1.56,-0.40,0.24,-0.07,0.01,0.99,
1.31,-1.57,-0.35,0.25,-0.07,0.01,0.99,
1.311,-1.57,-0.35,0.25,-0.07,0.01,0.99,
1.314,-1.57,-0.35,0.25,-0.06,0.02,0.98,
1.314,-1.57,-0.28,0.22,-0.06,0.02,0.98,
1.316,-1.57,-0.28,0.22,-0.07,0.02,0.98,
1.318,-1.57,-0.28,0.22,-0.07,0.02,0.97,
1.319,-1.58,-0.23,0.15,-0.07,0.02,0.97,
1.321,-1.58,-0.23,0.15,-0.07,0.03,0.97,
1.325,-1.58,-0.23,0.15,-0.07,0.03,0.97,
1.325,-1.59,-0.16,0.07,-0.07,0.03,0.97,
1.326,-1.59,-0.16,0.07,-0.07,0.03,0.96,
1.328,-1.59,-0.16,0.07,-0.07,0.03,0.96,
1.329,-1.60,-0.10,-0.01,-0.07,0.03,0.96,
1.331,-1.60,-0.10,-0.01,-0.07,0.03,0.96,
1.333,-1.60,-0.10,-0.01,-0.07,0.04,0.95,
1.333,-1.61,-0.05,-0.07,-0.07,0.04,0.95,
1.336,-1.61,-0.05,-0.07,-0.07,0.04,0.95,
1.338,-1.61,-0.05,-0.07,-0.07,0.04,0.95,
1.338,-1.61,0.00,-0.15,-0.07,0.04,0.95,
1.341,-1.61,0.00,-0.15,-0.07,0.04,0.95,
1.344,-1.61,0.00,-0.15,-0.08,0.05,0.95,
1.344,-1.64,0.05,-0.19,-0.08,0.05,0.95,
1.346,-1.64,0.05,-0.19,-0.08,0.05,0.95,
1.348,-1.64,0.05,-0.19,-0.08,0.05,0.95,
1.348,-1.67,0.11,-0.19,-0.08,0.05,0.95,
1.351,-1.67,0.11,-0.19,-0.08,0.05,0.95,
1.353,-1.67,0.11,-0.19,-0.08,0.05,0.96,
1.353,-1.71,0.18,-0.18,-0.08,0.05,0.96,
1.355,-1.71,0.18,-0.18,-0.09,0.06,0.96,
1.358,-1.71,0.18,-0.18,-0.09,0.06,0.97,
1.358,-1.73,0.22,-0.14,-0.09,0.06,0.97,
1.36,-1.73,0.22,-0.14,-0.09,0.06,0.97,
1.363,-1.73,0.22,-0.14,-0.09,0.06,0.98,
1.363,-1.75,0.29,-0.07,-0.09,0.06,0.98,
1.365,-1.75,0.29,-0.07,-0.09,0.06,0.98,
1.367,-1.75,0.29,-0.07,-0.09,0.06,0.99,
1.368,-1.79,0.32,0.03,-0.09,0.06,0.99,
1.37,-1.79,0.32,0.03,-0.09,0.06,0.99,
1.372,-1.79,0.32,0.03,-0.09,0.06,1.00,
1.373,-1.80,0.34,0.14,-0.09,0.06,1.00,
1.375,-1.80,0.34,0.14,-0.09,0.06,1.01,
1.378,-1.80,0.34,0.14,-0.09,0.06,1.01,
1.378,-1.78,0.37,0.25,-0.09,0.06,1.01,
1.38,-1.78,0.37,0.25,-0.09,0.07,1.02,
1.382,-1.78,0.37,0.25,-0.09,0.07,1.02,
1.383,-1.78,0.41,0.38,-0.09,0.07,1.02,
1.385,-1.78,0.41,0.38,-0.09,0.07,1.02,
1.387,-1.78,0.41,0.38,-0.08,0.07,1.03,
1.388,-1.78,0.46,0.47,-0.08,0.07,1.03,
1.396,-1.78,0.46,0.47,-0.09,0.07,1.03,
1.397,-1.78,0.46,0.47,-0.09,0.07,1.03,
1.397,-1.74,0.50,0.54,-0.09,0.07,1.03,
1.397,-1.74,0.50,0.54,-0.09,0.07,1.03,
1.397,-1.74,0.50,0.54,-0.09,0.07,1.03,
1.398,-1.75,0.54,0.59,-0.09,0.07,1.03,
1.399,-1.75,0.54,0.59,-0.09,0.07,1.04,
1.402,-1.75,0.54,0.59,-0.09,0.08,1.04,
1.403,-1.78,0.57,0.61,-0.09,0.08,1.04,
1.404,-1.78,0.57,0.61,-0.09,0.08,1.03,
1.409,-1.78,0.57,0.61,-0.10,0.08,1.04,
1.41,-1.80,0.60,0.64,-0.10,0.08,1.04,
1.41,-1.80,0.60,0.64,-0.10,0.07,1.04,
1.412,-1.80,0.60,0.64,-0.10,0.08,1.03,
1.412,-1.81,0.63,0.62,-0.10,0.08,1.03,
1.414,-1.81,0.63,0.62,-0.10,0.08,1.03,
1.416,-1.81,0.63,0.62,-0.11,0.08,1.03,
1.417,-1.88,0.63,0.63,-0.11,0.08,1.03,
1.419,-1.88,0.63,0.63,-0.11,0.08,1.03,
1.421,-1.88,0.63,0.63,-0.11,0.08,1.03,
1.422,-1.91,0.66,0.61,-0.11,0.08,1.03,
1.424,-1.91,0.66,0.61,-0.12,0.08,1.03,
1.426,-1.91,0.66,0.61,-0.12,0.08,1.04,
1.427,-1.96,0.68,0.60,-0.12,0.08,1.04,
1.429,-1.96,0.68,0.60,-0.12,0.08,1.04,
1.431,-1.96,0.68,0.60,-0.12,0.08,1.04,
1.431,-2.00,0.70,0.62,-0.12,0.08,1.04,
1.433,-2.00,0.70,0.62,-0.11,0.08,1.04,
1.436,-2.00,0.70,0.62,-0.12,0.08,1.04,
1.436,-1.99,0.73,0.63,-0.12,0.08,1.04,
1.438,-1.99,0.73,0.63,-0.11,0.08,1.05,
1.441,-1.99,0.73,0.63,-0.11,0.09,1.05,
1.442,-1.96,0.75,0.67,-0.11,0.09,1.05,
1.443,-1.96,0.75,0.67,-0.11,0.09,1.05,
1.446,-1.96,0.75,0.67,-0.11,0.09,1.05,
1.446,-1.93,0.80,0.74,-0.11,0.09,1.05,
1.448,-1.93,0.80,0.74,-0.11,0.09,1.05,
1.451,-1.93,0.80,0.74,-0.11,0.09,1.05,
1.451,-1.90,0.85,0.78,-0.11,0.09,1.05,
1.453,-1.90,0.85,0.78,-0.10,0.09,1.06,
1.456,-1.90,0.85,0.78,-0.10,0.09,1.06,
1.456,-1.85,0.88,0.79,-0.10,0.09,1.06,
1.458,-1.85,0.88,0.79,-0.10,0.10,1.05,
1.46,-1.85,0.88,0.79,-0.10,0.10,1.05,
1.461,-1.79,0.92,0.80,-0.10,0.10,1.05,
1.463,-1.79,0.92,0.80,-0.10,0.10,1.05,
1.465,-1.79,0.92,0.80,-0.10,0.10,1.05,
1.466,-1.74,0.97,0.78,-0.10,0.10,1.05,
1.468,-1.74,0.97,0.78,-0.10,0.10,1.04,
1.47,-1.74,0.97,0.78,-0.10,0.10,1.04,
1.471,-1.72,0.99,0.74,-0.10,0.10,1.04,
1.474,-1.72,0.99,0.74,-0.10,0.10,1.04,
1.476,-1.72,0.99,0.74,-0.10,0.10,1.03,
1.476,-1.70,1.00,0.66,-0.10,0.10,1.03,
1.478,-1.70,1.00,0.66,-0.10,0.10,1.03,
1.48,-1.70,1.00,0.66,-0.11,0.10,1.02,
1.481,-1.70,1.01,0.57,-0.11,0.10,1.02,
1.483,-1.70,1.01,0.57,-0.11,0.10,1.02,
1.485,-1.70,1.01,0.57,-0.11,0.10,1.02,
1.485,-1.70,1.01,0.48,-0.11,0.10,1.02,
1.487,-1.70,1.01,0.48,-0.11,0.10,1.01,
1.49,-1.70,1.01,0.48,-0.11,0.10,1.01,
1.49,-1.71,0.96,0.40,-0.11,0.10,1.01,
1.492,-1.71,0.96,0.40,-0.11,0.10,1.01,
1.495,-1.71,0.96,0.40,-0.12,0.10,1.01,
1.495,-1.73,0.95,0.34,-0.12,0.10,1.01,
1.498,-1.73,0.95,0.34,-0.12,0.09,1.01,
1.5,-1.73,0.95,0.34,-0.12,0.09,1.01,
1.5,-1.74,0.94,0.30,-0.12,0.09,1.01,
1.502,-1.74,0.94,0.30,-0.12,0.09,1.01,
1.505,-1.74,0.94,0.30,-0.12,0.09,1.01,
1.506,-1.75,0.91,0.31,-0.12,0.09,1.01,
1.513,-1.75,0.91,0.31,-0.12,0.09,1.02,
1.513,-1.75,0.91,0.31,-0.12,0.09,1.02,
1.514,-1.78,0.91,0.34,-0.12,0.09,1.02,
1.514,-1.78,0.91,0.34,-0.12,0.09,1.03,
1.517,-1.78,0.91,0.34,-0.12,0.09,1.03,
1.517,-1.75,0.89,0.40,-0.12,0.09,1.03,
1.518,-1.75,0.89,0.40,-0.11,0.09,1.03,
1.519,-1.75,0.89,0.40,-0.11,0.09,1.04,
1.52,-1.69,0.90,0.50,-0.11,0.09,1.04,
1.522,-1.69,0.90,0.50,-0.11,0.09,1.04,
1.53,-1.69,0.90,0.50,-0.10,0.09,1.05,
1.531,-1.60,0.91,0.57,-0.10,0.09,1.05,
1.531,-1.60,0.91,0.57,-0.09,0.09,1.06,
1.531,-1.60,0.91,0.57,-0.09,0.09,1.06,
1.531,-1.50,0.92,0.67,-0.09,0.09,1.06,
1.532,-1.50,0.92,0.67,-0.08,0.09,1.06,
1.534,-1.50,0.92,0.67,-0.07,0.09,1.07,
1.534,-1.37,0.91,0.78,-0.07,0.09,1.07,
1.536,-1.37,0.91,0.78,-0.06,0.09,1.07,
1.539,-1.37,0.91,0.78,-0.05,0.09,1.07,
1.539,-1.20,0.92,0.83,-0.05,0.09,1.07,
1.541,-1.20,0.92,0.83,-0.04,0.09,1.07,
1.544,-1.20,0.92,0.83,-0.04,0.09,1.07,
1.544,-1.00,0.90,0.86,-0.04,0.09,1.07,
1.546,-1.00,0.90,0.86,-0.03,0.10,1.06,
1.549,-1.00,0.90,0.86,-0.02,0.10,1.06,
1.549,-0.81,0.90,0.83,-0.02,0.10,1.06,
1.551,-0.81,0.90,0.83,-0.02,0.10,1.06,
1.553,-0.81,0.90,0.83,-0.01,0.10,1.06,
1.554,-0.66,0.93,0.79,-0.01,0.10,1.06,
1.556,-0.66,0.93,0.79,-0.00,0.11,1.05,
1.558,-0.66,0.93,0.79,0.00,0.11,1.05,
1.559,-0.51,0.97,0.73,0.00,0.11,1.05,
1.562,-0.51,0.97,0.73,0.01,0.11,1.04,
1.563,-0.51,0.97,0.73,0.02,0.11,1.03,
1.563,-0.35,1.01,0.64,0.02,0.11,1.03,
1.566,-0.35,1.01,0.64,0.02,0.12,1.02,
1.568,-0.35,1.01,0.64,0.03,0.12,1.01,
1.568,-0.21,1.06,0.51,0.03,0.12,1.01,
1.571,-0.21,1.06,0.51,0.03,0.12,1.01,
1.574,-0.21,1.06,0.51,0.04,0.13,1.00,
1.574,-0.05,1.11,0.33,0.04,0.13,1.00,
1.576,-0.05,1.11,0.33,0.05,0.13,0.99,
1.578,-0.05,1.11,0.33,0.05,0.13,0.98,
1.578,0.08,1.16,0.16,0.05,0.13,0.98,
1.581,0.08,1.16,0.16,0.05,0.13,0.98,
1.583,0.08,1.16,0.16,0.05,0.14,0.97,
1.584,0.20,1.19,0.02,0.05,0.14,0.97,
1.585,0.20,1.19,0.02,0.06,0.14,0.97,
1.588,0.20,1.19,0.02,0.06,0.14,0.96,
1.588,0.27,1.24,-0.11,0.06,0.14,0.96,
1.595,0.27,1.24,-0.11,0.06,0.14,0.96,
1.596,0.27,1.24,-0.11,0.06,0.15,0.95,
1.596,0.32,1.30,-0.22,0.06,0.15,0.95,
1.596,0.32,1.30,-0.22,0.06,0.15,0.95,
1.598,0.32,1.30,-0.22,0.05,0.15,0.95,
1.598,0.37,1.32,-0.29,0.05,0.15,0.95,
1.6,0.37,1.32,-0.29,0.05,0.14,0.95,
1.603,0.37,1.32,-0.29,0.05,0.14,0.95,
1.603,0.36,1.34,-0.33,0.05,0.14,0.95,
1.606,0.36,1.34,-0.33,0.05,0.15,0.95,
1.607,0.36,1.34,-0.33,0.05,0.14,0.95,
1.608,0.35,1.31,-0.33,0.05,0.14,0.95,
1.61,0.35,1.31,-0.33,0.05,0.14,0.95,
1.612,0.35,1.31,-0.33,0.05,0.14,0.95,
1.612,0.34,1.32,-0.34,0.05,0.14,0.95,
1.615,0.34,1.32,-0.34,0.05,0.14,0.96,
1.617,0.34,1.32,-0.34,0.05,0.13,0.96,
1.618,0.34,1.28,-0.31,0.05,0.13,0.96,
1.62,0.34,1.28,-0.31,0.05,0.13,0.96,
1.623,0.34,1.28,-0.31,0.05,0.13,0.96,
1.623,0.33,1.25,-0.27,0.05,0.13,0.96,
1.625,0.33,1.25,-0.27,0.05,0.13,0.97,
1.627,0.33,1.25,-0.27,0.05,0.13,0.97,
1.627,0.36,1.22,-0.22,0.05,0.13,0.97,
1.63,0.36,1.22,-0.22,0.06,0.13,0.98,
1.632,0.36,1.22,-0.22,0.06,0.13,0.98,
1.632,0.40,1.19,-0.15,0.06,0.13,0.98,
1.635,0.40,1.19,-0.15,0.07,0.13,0.99,
1.637,0.40,1.19,-0.15,0.07,0.13,0.99,
1.637,0.47,1.17,-0.07,0.07,0.13,0.99,
1.639,0.47,1.17,-0.07,0.07,0.12,1.00,
1.642,0.47,1.17,-0.07,0.08,0.12,1.00,
1.642,0.57,1.16,0.05,0.08,0.12,1.00,
1.644,0.57,1.16,0.05,0.08,0.12,1.01,
1.647,0.57,1.16,0.05,0.08,0.12,1.01,
1.647,0.64,1.12,0.16,0.08,0.12,1.01,
1.649,0.64,1.12,0.16,0.08,0.12,1.01,
1.652,0.64,1.12,0.16,0.09,0.12,1.02,
1.652,0.70,1.08,0.25,0.09,0.12,1.02,
1.654,0.70,1.08,0.25,0.09,0.11,1.02,
1.657,0.70,1.08,0.25,0.09,0.11,1.02,
1.657,0.75,1.06,0.30,0.09,0.11,1.02,
1.659,0.75,1.06,0.30,0.09,0.11,1.02,
1.661,0.75,1.06,0.30,0.09,0.11,1.03,
1.662,0.77,1.02,0.35,0.09,0.11,1.03,
1.664,0.77,1.02,0.35,0.09,0.11,1.03,
1.666,0.77,1.02,0.35,0.09,0.11,1.03,
1.666,0.77,0.99,0.40,0.09,0.11,1.03,
1.669,0.77,0.99,0.40,0.09,0.11,1.02,
1.671,0.77,0.99,0.40,0.08,0.10,1.02,
1.671,0.79,0.99,0.40,0.08,0.10,1.02,
1.674,0.79,0.99,0.40,0.08,0.10,1.02,
1.676,0.79,0.99,0.40,0.08,0.10,1.02,
1.679,0.79,0.95,0.36,0.08,0.10,1.02,
1.679,0.79,0.95,0.36,0.08,0.10,1.02,
1.681,0.79,0.95,0.36,0.08,0.10,1.01,
1.681,0.77,0.94,0.33,0.08,0.10,1.01,
1.683,0.77,0.94,0.33,0.08,0.10,1.01,
1.686,0.77,0.94,0.33,0.07,0.10,1.01,
1.686,0.76,0.93,0.30,0.07,0.10,1.01,
1.695,0.76,0.93,0.30,0.07,0.10,1.01,
1.695,0.76,0.93,0.30,0.07,0.10,1.00,
1.696,0.73,0.93,0.25,0.07,0.10,1.00,
1.696,0.73,0.93,0.25,0.07,0.10,1.00,
1.696,0.73,0.93,0.25,0.07,0.10,1.00,
1.697,0.70,0.90,0.19,0.07,0.10,1.00,
1.698,0.70,0.90,0.19,0.06,0.10,0.99,
1.7,0.70,0.90,0.19,0.06,0.10,0.99,
1.701,0.67,0.87,0.13,0.06,0.10,0.99,
1.703,0.67,0.87,0.13,0.06,0.10,0.99,
1.708,0.67,0.87,0.13,0.06,0.10,0.99,
1.708,0.64,0.85,0.07,0.06,0.10,0.99,
1.708,0.64,0.85,0.07,0.06,0.10,0.98,
1.71,0.64,0.85,0.07,0.06,0.10,0.98,
1.71,0.65,0.84,0.02,0.06,0.10,0.98,
1.713,0.65,0.84,0.02,0.06,0.10,0.98,
1.715,0.65,0.84,0.02,0.06,0.10,0.98,
1.715,0.63,0.84,-0.02,0.06,0.10,0.98,
1.718,0.63,0.84,-0.02,0.05,0.10,0.98,
1.72,0.63,0.84,-0.02,0.06,0.10,0.98,
1.72,0.61,0.83,-0.06,0.06,0.10,0.98,
1.723,0.61,0.83,-0.06,0.06,0.10,0.98,
1.725,0.61,0.83,-0.06,0.06,0.10,0.98,
1.725,0.61,0.83,-0.07,0.06,0.10,0.98,
1.727,0.61,0.83,-0.07,0.06,0.10,0.97,
1.73,0.61,0.83,-0.07,0.06,0.10,0.97,
1.73,0.65,0.84,-0.09,0.06,0.10,0.97,
1.732,0.65,0.84,-0.09,0.07,0.10,0.98,
1.735,0.65,0.84,-0.09,0.07,0.10,0.98,
1.735,0.70,0.85,-0.12,0.07,0.10,0.98,
1.737,0.70,0.85,-0.12,0.07,0.10,0.98,
1.74,0.70,0.85,-0.12,0.07,0.10,0.98,
1.74,0.76,0.84,-0.09,0.07,0.10,0.98,
1.742,0.76,0.84,-0.09,0.08,0.10,0.98,
1.745,0.76,0.84,-0.09,0.08,0.10,0.98,
1.745,0.81,0.83,-0.08,0.08,0.10,0.98,
1.747,0.81,0.83,-0.08,0.08,0.09,0.98,
1.749,0.81,0.83,-0.08,0.09,0.09,0.98,
1.75,0.85,0.80,-0.07,0.09,0.09,0.98,
1.752,0.85,0.80,-0.07,0.09,0.09,0.98,
1.755,0.85,0.80,-0.07,0.09,0.09,0.98,
1.755,0.92,0.77,-0.05,0.09,0.09,0.98,
1.757,0.92,0.77,-0.05,0.09,0.08,0.98,
1.76,0.92,0.77,-0.05,0.09,0.08,0.98,
1.76,0.95,0.71,-0.04,0.09,0.08,0.98,
1.762,0.95,0.71,-0.04,0.09,0.08,0.98,
1.764,0.95,0.71,-0.04,0.08,0.07,0.98,
1.765,0.95,0.64,-0.02,0.08,0.07,0.98,
1.767,0.95,0.64,-0.02,0.08,0.07,0.99,
1.769,0.95,0.64,-0.02,0.07,0.07,0.99,
1.769,0.92,0.56,-0.01,0.07,0.07,0.99,
1.772,0.92,0.56,-0.01,0.07,0.07,0.99,
1.774,0.92,0.56,-0.01,0.06,0.07,0.99,
1.774,0.84,0.52,0.03,0.06,0.07,0.99,
1.776,0.84,0.52,0.03,0.05,0.07,0.99,
1.779,0.84,0.52,0.03,0.05,0.06,0.99,
1.779,0.71,0.49,0.04,0.05,0.06,0.99,
1.781,0.71,0.49,0.04,0.05,0.06,0.99,
1.784,0.71,0.49,0.04,0.04,0.06,0.99,
1.784,0.62,0.46,0.06,0.04,0.06,0.99,
1.786,0.62,0.46,0.06,0.04,0.06,0.99,
1.789,0.62,0.46,0.06,0.03,0.05,0.99,
1.789,0.52,0.41,0.07,0.03,0.05,0.99,
1.791,0.52,0.41,0.07,0.02,0.05,0.99,
1.793,0.52,0.41,0.07,0.02,0.05,0.99,
1.794,0.43,0.34,0.06,0.02,0.05,0.99,
1.796,0.43,0.34,0.06,0.02,0.04,0.99,
1.798,0.43,0.34,0.06,0.01,0.04,0.99,
1.799,0.31,0.28,0.06,0.01,0.04,0.99,
1.801,0.31,0.28,0.06,0.02,0.04,0.99,
1.803,0.31,0.28,0.06,0.02,0.04,0.99,
1.804,0.25,0.19,0.07,0.02,0.04,0.99,
1.81,0.25,0.19,0.07,0.02,0.03,0.99,
1.811,0.25,0.19,0.07,0.02,0.03,0.99,
1.811,0.25,0.15,0.08,0.02,0.03,0.99,
1.811,0.25,0.15,0.08,0.02,0.03,0.99,
1.813,0.25,0.15,0.08,0.02,0.03,0.99,
1.813,0.28,0.07,0.07,0.02,0.03,0.99,
1.816,0.28,0.07,0.07,0.03,0.03,0.99,
1.818,0.28,0.07,0.07,0.03,0.03,0.99,
1.818,0.32,0.02,0.08,0.03,0.03,0.99,
1.82,0.32,0.02,0.08,0.03,0.03,0.99,
1.824,0.32,0.02,0.08,0.03,0.03,0.99,
1.825,0.36,-0.02,0.07,0.03,0.03,0.99,
1.825,0.36,-0.02,0.07,0.03,0.03,0.99,
1.828,0.36,-0.02,0.07,0.04,0.03,0.99,
1.828,0.40,-0.03,0.07,0.04,0.03,0.99,
1.83,0.40,-0.03,0.07,0.04,0.03,0.99,
1.833,0.40,-0.03,0.07,0.04,0.03,0.99,
1.833,0.45,-0.04,0.08,0.04,0.03,0.99,
1.835,0.45,-0.04,0.08,0.04,0.03,1.00,
1.838,0.45,-0.04,0.08,0.05,0.03,1.00,
1.838,0.50,-0.03,0.08,0.05,0.03,1.00,
1.84,0.50,-0.03,0.08,0.05,0.03,1.00,
1.845,0.55,-0.05,0.11,0.05,0.03,1.00,
1.846,0.55,-0.05,0.11,0.05,0.03,1.00,
1.846,0.55,-0.05,0.11,0.05,0.03,1.00,
1.848,0.55,-0.05,0.11,0.05,0.03,1.00,
1.848,0.58,-0.04,0.12,0.05,0.03,1.00,
1.85,0.58,-0.04,0.12,0.05,0.03,1.00,
1.852,0.58,-0.04,0.12,0.05,0.03,1.00,
1.852,0.60,-0.05,0.14,0.05,0.03,1.00,
1.855,0.60,-0.05,0.14,0.05,0.02,1.00,
1.857,0.60,-0.05,0.14,0.05,0.02,1.00,
1.858,0.61,-0.09,0.14,0.05,0.02,1.00,
1.86,0.61,-0.09,0.14,0.05,0.02,1.00,
1.862,0.61,-0.09,0.14,0.05,0.02,1.00,
1.862,0.60,-0.13,0.16,0.05,0.02,1.00,
1.865,0.60,-0.13,0.16,0.05,0.02,1.00,
1.867,0.60,-0.13,0.16,0.05,0.02,1.00,
1.867,0.58,-0.15,0.15,0.05,0.02,1.00,
1.87,0.58,-0.15,0.15,0.04,0.02,1.00,
1.872,0.58,-0.15,0.15,0.04,0.02,1.00,
1.872,0.56,-0.17,0.17,0.04,0.02,1.00,
1.875,0.56,-0.17,0.17,0.04,0.02,1.00,
1.877,0.56,-0.17,0.17,0.04,0.01,1.01,
1.877,0.49,-0.21,0.19,0.04,0.01,1.01,
1.879,0.49,-0.21,0.19,0.04,0.01,1.01,
1.882,0.49,-0.21,0.19,0.04,0.01,1.01,
1.882,0.48,-0.27,0.21,0.04,0.01,1.01,
1.884,0.48,-0.27,0.21,0.03,0.01,1.01,
1.886,0.48,-0.27,0.21,0.03,0.01,1.01,
1.887,0.43,-0.32,0.24,0.03,0.01,1.01,
1.889,0.43,-0.32,0.24,0.03,0.00,1.01,
1.892,0.43,-0.32,0.24,0.03,0.00,1.01,
1.892,0.36,-0.38,0.24,0.03,0.00,1.01,
1.894,0.36,-0.38,0.24,0.03,-0.00,1.01,
1.896,0.36,-0.38,0.24,0.03,-0.01,1.01,
1.896,0.33,-0.45,0.24,0.03,-0.01,1.01,
1.899,0.33,-0.45,0.24,0.03,-0.01,1.01,
1.901,0.33,-0.45,0.24,0.03,-0.01,1.00,
1.901,0.33,-0.51,0.24,0.03,-0.01,1.00,
1.904,0.33,-0.51,0.24,0.03,-0.01,1.00,
1.908,0.33,-0.51,0.24,0.03,-0.01,1.00,
1.909,0.37,-0.56,0.20,0.03,-0.01,1.00,
1.909,0.37,-0.56,0.20,0.03,-0.01,0.99,
1.911,0.37,-0.56,0.20,0.03,-0.01,0.99,
1.911,0.37,-0.61,0.13,0.03,-0.01,0.99,
1.913,0.37,-0.61,0.13,0.03,-0.01,0.99,
1.916,0.37,-0.61,0.13,0.03,-0.01,0.98,
1.916,0.36,-0.63,0.08,0.03,-0.01,0.98,
1.918,0.36,-0.63,0.08,0.03,-0.01,0.98,
1.923,0.36,-0.63,0.08,0.03,-0.01,0.98,
1.923,0.35,-0.64,-0.01,0.03,-0.01,0.98,
1.923,0.35,-0.64,-0.01,0.03,-0.01,0.98,
1.926,0.35,-0.64,-0.01,0.03,-0.01,0.97,
1.926,0.34,-0.64,-0.04,0.03,-0.01,0.97,
1.928,0.34,-0.64,-0.04,0.03,-0.01,0.96,
1.93,0.34,-0.64,-0.04,0.03,-0.01,0.96,
1.93,0.36,-0.65,-0.10,0.03,-0.01,0.96,
1.933,0.36,-0.65,-0.10,0.04,-0.01,0.96,
1.935,0.36,-0.65,-0.10,0.04,-0.01,0.95,
1.935,0.37,-0.66,-0.22,0.04,-0.01,0.95,
1.938,0.37,-0.66,-0.22,0.04,-0.01,0.95,
1.94,0.37,-0.66,-0.22,0.04,-0.01,0.95,
1.94,0.45,-0.66,-0.29,0.04,-0.01,0.95,
1.943,0.45,-0.66,-0.29,0.05,-0.01,0.95,
1.945,0.45,-0.66,-0.29,0.05,-0.01,0.95,
1.945,0.48,-0.65,-0.33,0.05,-0.01,0.95,
1.947,0.48,-0.65,-0.33,0.05,-0.01,0.95,
1.95,0.48,-0.65,-0.33,0.05,-0.01,0.95,
1.95,0.53,-0.65,-0.34,0.05,-0.01,0.95,
1.952,0.53,-0.65,-0.34,0.05,-0.01,0.95,
1.955,0.53,-0.65,-0.34,0.05,-0.00,0.95,
1.955,0.56,-0.65,-0.35,0.05,-0.00,0.95,
1.957,0.56,-0.65,-0.35,0.05,-0.01,0.95,
1.96,0.56,-0.65,-0.35,0.05,-0.01,0.95,
1.96,0.54,-0.64,-0.33,0.05,-0.01,0.95,
1.962,0.54,-0.64,-0.33,0.05,-0.01,0.95,
1.965,0.54,-0.64,-0.33,0.05,-0.01,0.96,
1.965,0.53,-0.65,-0.31,0.05,-0.01,0.96,
1.967,0.53,-0.65,-0.31,0.05,-0.01,0.96,
1.97,0.53,-0.65,-0.31,0.05,-0.01,0.97,
1.97,0.51,-0.65,-0.26,0.05,-0.01,0.97,
1.972,0.51,-0.65,-0.26,0.05,-0.01,0.98,
1.974,0.51,-0.65,-0.26,0.05,-0.01,0.98,
1.975,0.51,-0.66,-0.17,0.05,-0.01,0.98,
1.977,0.51,-0.66,-0.17,0.05,-0.01,0.98,
1.979,0.51,-0.66,-0.17,0.05,-0.01,0.99,
1.98,0.51,-0.67,-0.04,0.05,-0.01,0.99,
1.982,0.51,-0.67,-0.04,0.06,-0.01,1.00,
1.984,0.51,-0.67,-0.04,0.06,-0.01,1.00,
1.985,0.54,-0.71,0.04,0.06,-0.01,1.00,
1.988,0.54,-0.71,0.04,0.06,-0.01,1.01,
1.989,0.54,-0.71,0.04,0.06,-0.02,1.01,
1.989,0.57,-0.73,0.16,0.06,-0.02,1.01,
1.992,0.57,-0.73,0.16,0.07,-0.02,1.01,
1.994,0.57,-0.73,0.16,0.07,-0.02,1.01,
1.995,0.60,-0.74,0.25,0.07,-0.02,1.01,
1.997,0.60,-0.74,0.25,0.07,-0.02,1.02,
1.999,0.60,-0.74,0.25,0.07,-0.02,1.02,
1.999,0.62,-0.77,0.30,0.07,-0.02,1.02,
2.001,0.62,-0.77,0.30,0.07,-0.02,1.02,
2.005,0.62,-0.77,0.30,0.07,-0.02,1.02,
2.005,0.62,-0.77,0.35,0.07,-0.02,1.02,
2.006,0.62,-0.77,0.35,0.07,-0.02,1.02,
2.009,0.62,-0.77,0.35,0.07,-0.02,1.02,
2.009,0.62,-0.77,0.38,0.07,-0.02,1.02,
2.012,0.62,-0.77,0.38,0.07,-0.01,1.02,
2.014,0.62,-0.77,0.38,0.07,-0.02,1.02,
2.016,0.60,-0.77,0.38,0.07,-0.02,1.02,
2.016,0.60,-0.77,0.38,0.06,-0.02,1.02,
2.019,0.60,-0.77,0.38,0.06,-0.02,1.01,
2.019,0.60,-0.75,0.35,0.06,-0.02,1.01,
2.026,0.60,-0.75,0.35,0.06,-0.02,1.01,
2.026,0.60,-0.75,0.35,0.06,-0.02,1.01,
2.026,0.55,-0.77,0.30,0.06,-0.02,1.01,
2.027,0.55,-0.77,0.30,0.05,-0.01,1.00,
2.029,0.55,-0.77,0.30,0.05,-0.01,1.00,
2.029,0.50,-0.76,0.23,0.05,-0.01,1.00,
2.031,0.50,-0.76,0.23,0.05,-0.01,1.00,
2.033,0.50,-0.76,0.23,0.05,-0.01,0.99,
2.034,0.46,-0.74,0.17,0.05,-0.01,0.99,
2.036,0.46,-0.74,0.17,0.05,-0.01,0.99,
2.041,0.43,-0.73,0.10,0.05,-0.01,0.99,
2.041,0.43,-0.73,0.10,0.05,-0.01,0.99,
2.041,0.43,-0.73,0.10,0.05,-0.01,0.98,
2.043,0.43,-0.73,0.10,0.05,-0.01,0.98,
2.043,0.43,-0.71,0.04,0.05,-0.01,0.98,
2.046,0.43,-0.71,0.04,0.05,-0.01,0.98,
2.048,0.43,-0.71,0.04,0.05,-0.00,0.97,
2.048,0.45,-0.69,-0.02,0.05,-0.00,0.97,
2.05,0.45,-0.69,-0.02,0.05,-0.00,0.97,
2.053,0.45,-0.69,-0.02,0.05,-0.00,0.97,
2.054,0.50,-0.64,-0.09,0.05,-0.00,0.97,
2.055,0.50,-0.64,-0.09,0.05,0.00,0.97,
2.058,0.50,-0.64,-0.09,0.05,0.00,0.96,
2.058,0.49,-0.61,-0.15,0.05,0.00,0.96,
2.06,0.49,-0.61,-0.15,0.06,0.00,0.96,
2.063,0.49,-0.61,-0.15,0.05,0.01,0.96,
2.063,0.49,-0.57,-0.19,0.05,0.01,0.96,
2.065,0.49,-0.57,-0.19,0.05,0.01,0.96,
2.068,0.49,-0.57,-0.19,0.06,0.01,0.96,
2.068,0.51,-0.54,-0.23,0.06,0.01,0.96,
2.071,0.51,-0.54,-0.23,0.06,0.01,0.96,
2.073,0.51,-0.54,-0.23,0.06,0.01,0.95,
2.073,0.52,-0.49,-0.26,0.06,0.01,0.95,
2.075,0.52,-0.49,-0.26,0.06,0.02,0.95,
2.077,0.52,-0.49,-0.26,0.06,0.02,0.95,
2.078,0.53,-0.44,-0.27,0.06,0.02,0.95,
2.08,0.53,-0.44,-0.27,0.06,0.02,0.95,
2.082,0.53,-0.44,-0.27,0.06,0.02,0.95,
2.083,0.54,-0.41,-0.29,0.06,0.02,0.95,
2.085,0.54,-0.41,-0.29,0.05,0.02,0.95,
2.088,0.54,-0.41,-0.29,0.05,0.02,0.95,
2.088,0.54,-0.38,-0.30,0.05,0.02,0.95,
2.09,0.54,-0.38,-0.30,0.05,0.02,0.96,
2.092,0.54,-0.38,-0.30,0.04,0.03,0.96,
2.092,0.50,-0.36,-0.28,0.04,0.03,0.96,
2.095,0.50,-0.36,-0.28,0.04,0.03,0.96,
2.097,0.50,-0.36,-0.28,0.04,0.03,0.96,
2.098,0.43,-0.33,-0.25,0.04,0.03,0.96,
2.1,0.43,-0.33,-0.25,0.03,0.03,0.96,
2.102,0.43,-0.33,-0.25,0.03,0.03,0.97,
2.102,0.35,-0.32,-0.22,0.03,0.03,0.97,
2.105,0.35,-0.32,-0.22,0.03,0.02,0.97,
2.107,0.35,-0.32,-0.22,0.02,0.02,0.97,
2.108,0.27,-0.32,-0.17,0.02,0.02,0.97,
2.11,0.27,-0.32,-0.17,0.02,0.02,0.97,
2.112,0.27,-0.32,-0.17,0.02,0.02,0.97,
2.112,0.21,-0.35,-0.12,0.02,0.02,0.97,
2.114,0.21,-0.35,-0.12,0.01,0.02,0.97,
2.117,0.21,-0.35,-0.12,0.01,0.02,0.98,
2.117,0.15,-0.39,-0.09,0.01,0.02,0.98,
2.119,0.15,-0.39,-0.09,0.01,0.01,0.98,
2.127,0.15,-0.39,-0.09,0.01,0.01,0.98,
2.127,0.11,-0.41,-0.07,0.01,0.01,0.98,
2.127,0.11,-0.41,-0.07,0.01,0.01,0.98,
2.128,0.11,-0.41,-0.07,0.01,0.01,0.98,
2.128,0.06,-0.45,-0.04,0.01,0.01,0.98,
2.129,0.06,-0.45,-0.04,0.01,0.01,0.98,
2.132,0.06,-0.45,-0.04,0.01,0.02,0.98,
2.132,0.03,-0.45,-0.03,0.01,0.02,0.98,
2.134,0.03,-0.45,-0.03,0.00,0.02,0.98,
2.139,0.03,-0.45,-0.03,0.01,0.02,0.98,
2.14,0.03,-0.44,-0.03,0.01,0.02,0.98,
2.14,0.03,-0.44,-0.03,0.01,0.02,0.98,
2.142,0.03,-0.44,-0.03,0.02,0.02,0.97,
2.142,0.03,-0.40,-0.05,0.02,0.02,0.97,
2.144,0.03,-0.40,-0.05,0.02,0.02,0.97,
2.146,0.03,-0.40,-0.05,0.03,0.03,0.97,
2.146,0.12,-0.39,-0.06,0.03,0.03,0.97,
2.149,0.12,-0.39,-0.06,0.03,0.03,0.97,
2.151,0.12,-0.39,-0.06,0.04,0.03,0.97,
2.151,0.22,-0.32,-0.11,0.04,0.03,0.97,
2.153,0.22,-0.32,-0.11,0.04,0.04,0.96,
2.156,0.22,-0.32,-0.11,0.04,0.04,0.96,
2.156,0.31,-0.27,-0.13,0.04,0.04,0.96,
2.159,0.31,-0.27,-0.13,0.05,0.04,0.96,
2.161,0.31,-0.27,-0.13,0.05,0.04,0.96,
2.162,0.40,-0.22,-0.17,0.05,0.04,0.96,
2.163,0.40,-0.22,-0.17,0.05,0.05,0.96,
2.166,0.40,-0.22,-0.17,0.05,0.05,0.96,
2.168,0.45,-0.16,-0.19,0.05,0.05,0.96,
2.168,0.45,-0.16,-0.19,0.05,0.05,0.95,
2.171,0.45,-0.16,-0.19,0.05,0.05,0.95,
2.171,0.51,-0.10,-0.24,0.05,0.05,0.95,
2.173,0.51,-0.10,-0.24,0.05,0.06,0.95,
2.176,0.51,-0.10,-0.24,0.05,0.06,0.95,
2.176,0.50,-0.05,-0.28,0.05,0.06,0.95,
2.178,0.50,-0.05,-0.28,0.05,0.06,0.95,
2.18,0.50,-0.05,-0.28,0.05,0.06,0.95,
2.181,0.50,-0.03,-0.29,0.05,0.06,0.95,
2.183,0.50,-0.03,-0.29,0.04,0.06,0.95,
2.186,0.50,-0.03,-0.29,0.04,0.06,0.95,
2.186,0.47,0.01,-0.30,0.04,0.06,0.95,
2.188,0.47,0.01,-0.30,0.04,0.06,0.95,
2.19,0.47,0.01,-0.30,0.03,0.06,0.95,
2.191,0.41,0.04,-0.29,0.03,0.06,0.95,
2.193,0.41,0.04,-0.29,0.03,0.06,0.95,
2.195,0.41,0.04,-0.29,0.03,0.06,0.96,
2.195,0.35,0.03,-0.26,0.03,0.06,0.96,
2.197,0.35,0.03,-0.26,0.03,0.06,0.96,
2.2,0.35,0.03,-0.26,0.02,0.06,0.96,
2.2,0.28,0.01,-0.24,0.02,0.06,0.96,
2.209,0.28,0.01,-0.24,0.02,0.06,0.96,
2.21,0.28,0.01,-0.24,0.02,0.05,0.97,
2.21,0.22,-0.02,-0.19,0.02,0.05,0.97,
2.21,0.22,-0.02,-0.19,0.02,0.05,0.97,
2.21,0.22,-0.02,-0.19,0.01,0.05,0.97,
2.211,0.17,-0.04,-0.15,0.01,0.05,0.97,
2.212,0.17,-0.04,-0.15,0.01,0.05,0.98,
2.215,0.17,-0.04,-0.15,0.01,0.05,0.98,
2.215,0.11,-0.08,-0.08,0.01,0.05,0.98,
2.217,0.11,-0.08,-0.08,0.01,0.05,0.98,
2.222,0.11,-0.08,-0.08,0.01,0.05,0.98,
2.222,0.08,-0.10,-0.03,0.01,0.05,0.98,
2.223,0.08,-0.10,-0.03,0.01,0.05,0.98,
2.224,0.08,-0.10,-0.03,0.01,0.05,0.98,
2.225,0.07,-0.11,0.01,0.01,0.05,0.98,
2.227,0.07,-0.11,0.01,0.02,0.05,0.98,
2.229,0.07,-0.11,0.01,0.02,0.05,0.99,
2.229,0.10,-0.12,0.05,0.02,0.05,0.99,
2.232,0.10,-0.12,0.05,0.02,0.05,0.98,
2.234,0.10,-0.12,0.05,0.02,0.05,0.98,
2.234,0.14,-0.13,0.05,0.02,0.05,0.98,
2.237,0.14,-0.13,0.05,0.02,0.05,0.98,
2.239,0.14,-0.13,0.05,0.02,0.06,0.98,
2.239,0.19,-0.07,0.05,0.02,0.06,0.98,
2.241,0.19,-0.07,0.05,0.03,0.06,0.98,
2.244,0.19,-0.07,0.05,0.03,0.06,0.98,
2.244,0.21,-0.05,0.03,0.03,0.06,0.98,
2.246,0.21,-0.05,0.03,0.03,0.06,0.98,
2.249,0.21,-0.05,0.03,0.03,0.06,0.98,
2.249,0.26,-0.01,0.03,0.03,0.06,0.98,
2.251,0.26,-0.01,0.03,0.03,0.06,0.98,
2.254,0.26,-0.01,0.03,0.03,0.06,0.98,
2.255,0.29,0.01,0.02,0.03,0.06,0.98,
2.256,0.29,0.01,0.02,0.03,0.07,0.98,
2.259,0.29,0.01,0.02,0.03,0.07,0.98,
2.259,0.29,0.04,-0.02,0.03,0.07,0.98,
2.261,0.29,0.04,-0.02,0.02,0.07,0.97,
2.264,0.29,0.04,-0.02,0.02,0.07,0.98,
2.264,0.27,0.07,-0.03,0.02,0.07,0.98,
2.266,0.27,0.07,-0.03,0.02,0.07,0.97,
2.271,0.27,0.07,-0.03,0.02,0.07,0.98,
2.271,0.22,0.09,-0.04,0.02,0.07,0.98,
2.272,0.22,0.09,-0.04,0.01,0.07,0.98,
2.273,0.22,0.09,-0.04,0.01,0.07,0.98,
2.274,0.17,0.10,-0.04,0.01,0.07,0.98,
2.276,0.17,0.10,-0.04,0.01,0.07,0.98,
2.278,0.17,0.10,-0.04,0.01,0.07,0.98,
2.279,0.11,0.11,-0.03,0.01,0.07,0.98,
2.281,0.11,0.11,-0.03,0.00,0.06,0.98,
2.283,0.11,0.11,-0.03,-0.00,0.06,0.98,
2.283,0.07,0.08,-0.03,-0.00,0.06,0.98,
2.287,0.07,0.08,-0.03,-0.00,0.06,0.98,
2.288,0.07,0.08,-0.03,-0.01,0.06,0.98,
2.289,-0.01,0.03,-0.02,-0.01,0.06,0.98,
2.291,-0.01,0.03,-0.02,-0.01,0.06,0.98,
2.293,-0.01,0.03,-0.02,-0.01,0.06,0.98,
2.294,-0.06,-0.00,-0.00,-0.01,0.06,0.98,
2.296,-0.06,-0.00,-0.00,-0.02,0.06,0.98,
2.298,-0.06,-0.00,-0.00,-0.02,0.06,0.98,
2.298,-0.13,-0.01,0.03,-0.02,0.06,0.98,
2.3,-0.13,-0.01,0.03,-0.02,0.06,0.99,
2.304,-0.13,-0.01,0.03,-0.02,0.05,0.99,
2.304,-0.17,-0.01,0.05,-0.02,0.05,0.99,
2.305,-0.17,-0.01,0.05,-0.02,0.05,0.99,
2.308,-0.17,-0.01,0.05,-0.02,0.06,0.99,
2.308,-0.19,-0.04,0.08,-0.02,0.06,0.99,
2.31,-0.19,-0.04,0.08,-0.01,0.06,0.99,
2.312,-0.19,-0.04,0.08,-0.01,0.06,0.99,
2.313,-0.17,-0.04,0.13,-0.01,0.06,0.99,
2.315,-0.17,-0.04,0.13,-0.01,0.06,1.00,
2.318,-0.17,-0.04,0.13,-0.01,0.06,0.99,
2.318,-0.14,-0.02,0.15,-0.01,0.06,0.99,
2.325,-0.14,-0.02,0.15,-0.01,0.05,0.87,
2.326,-0.14,-0.02,0.15,0.02,0.08,0.59,
2.326,-0.09,-0.01,0.15,0.02,0.08,0.59,
2.327,-0.09,-0.01,0.15,0.05,0.10,0.54,
2.327,-0.09,-0.01,0.15,0.07,0.10,0.66,
2.328,0.03,0.08,-2.40,0.07,0.10,0.66,
2.33,0.03,0.08,-2.40,0.09,0.08,0.74,
2.332,0.03,0.08,-2.40,0.09,0.06,0.77,
2.332,0.59,0.43,-3.65,0.09,0.06,0.77,
2.335,0.59,0.43,-3.65,0.09,0.04,0.78,
2.34,0.59,0.43,-3.65,0.09,0.04,0.79,
2.34,0.88,0.12,-2.11,0.09,0.04,0.79,
2.34,0.88,0.12,-2.11,0.09,0.04,0.80,
2.342,0.88,0.12,-2.11,0.08,0.05,0.80,
2.342,0.90,-0.13,-1.84,0.08,0.05,0.80,
2.344,0.90,-0.13,-1.84,0.07,0.06,0.81,
2.347,0.90,-0.13,-1.84,0.06,0.07,0.82,
2.347,0.86,-0.02,-1.66,0.06,0.07,0.82,
2.349,0.86,-0.02,-1.66,0.04,0.07,0.85,
2.352,0.86,-0.02,-1.66,0.02,0.06,0.89,
2.352,0.64,0.19,-1.52,0.02,0.06,0.89,
2.355,0.64,0.19,-1.52,0.01,0.05,0.92,
2.357,0.64,0.19,-1.52,-0.01,0.04,0.95,
2.357,0.33,0.22,-0.95,-0.01,0.04,0.95,
2.359,0.33,0.22,-0.95,-0.02,0.03,0.98,
2.362,0.33,0.22,-0.95,-0.03,0.02,1.01,
2.362,0.02,0.08,-0.30,-0.03,0.02,1.01,
2.364,0.02,0.08,-0.30,-0.02,0.01,1.04,
2.366,0.02,0.08,-0.30,-0.03,0.01,1.06,
2.367,-0.20,-0.10,0.28,-0.03,0.01,1.06,
2.37,-0.20,-0.10,0.28,-0.03,0.01,1.08,
2.372,-0.20,-0.10,0.28,-0.03,0.02,1.11,
2.372,-0.21,-0.20,0.79,-0.03,0.02,1.11,
2.374,-0.21,-0.20,0.79,-0.03,0.02,1.13,
2.376,-0.21,-0.20,0.79,-0.03,0.03,1.16,
2.376,-0.25,-0.13,1.25,-0.03,0.03,1.16,
2.379,-0.25,-0.13,1.25,-0.03,0.03,1.18,
2.381,-0.25,-0.13,1.25,-0.03,0.03,1.19,
2.381,-0.25,-0.01,1.70,-0.03,0.03,1.19,
2.384,-0.25,-0.01,1.70,-0.02,0.03,1.20,
2.387,-0.25,-0.01,1.70,-0.02,0.03,1.20,
2.387,-0.24,0.06,2.05,-0.02,0.03,1.20,
2.389,-0.24,0.06,2.05,-0.02,0.03,1.19,
2.391,-0.24,0.06,2.05,-0.02,0.03,1.18,
2.391,-0.21,0.03,2.22,-0.02,0.03,1.18,
2.393,-0.21,0.03,2.22,-0.02,0.03,1.16,
2.396,-0.21,0.03,2.22,-0.02,0.03,1.14,
2.396,-0.19,0.00,2.04,-0.02,0.03,1.14,
2.398,-0.19,0.00,2.04,-0.02,0.03,1.12,
2.401,-0.19,0.00,2.04,-0.02,0.04,1.09,
2.401,-0.22,-0.01,1.69,-0.02,0.04,1.09,
2.403,-0.22,-0.01,1.69,-0.02,0.04,1.07,
