
time,gFx,gFy,gFz,ax,ay,az,
0.004,-0.05,0.06,0.96,-0.65,0.12,-0.61,
0.004,-0.05,0.06,0.96,-0.57,0.12,-0.48,
0.004,-0.05,0.06,0.97,-0.57,0.12,-0.48,
0.004,-0.04,0.06,0.97,-0.57,0.12,-0.48,
0.005,-0.04,0.06,0.97,-0.50,0.21,-0.34,
0.005,-0.04,0.06,0.98,-0.50,0.21,-0.34,
0.011,-0.04,0.06,0.99,-0.50,0.21,-0.34,
0.011,-0.04,0.06,0.99,-0.36,0.23,-0.27,
0.011,-0.03,0.05,0.99,-0.36,0.23,-0.27,
0.012,-0.03,0.05,0.99,-0.29,0.22,-0.14,
0.012,-0.02,0.05,1.00,-0.29,0.22,-0.14,
0.014,-0.02,0.05,1.00,-0.29,0.22,-0.14,
0.017,-0.02,0.05,0.99,-0.29,0.22,-0.14,
0.017,-0.02,0.05,0.99,-0.18,0.15,-0.01,
0.019,-0.02,0.05,1.00,-0.18,0.15,-0.01,
0.028,-0.01,0.05,1.00,-0.18,0.15,-0.01,
0.028,-0.01,0.05,1.00,-0.13,0.11,-0.02,
0.028,-0.01,0.05,0.99,-0.13,0.11,-0.02,
0.029,-0.01,0.05,0.99,-0.06,0.10,0.01,
0.029,-0.01,0.04,0.99,-0.06,0.10,0.01,
0.029,-0.01,0.05,0.99,-0.06,0.10,0.01,
0.031,-0.01,0.04,0.99,-0.06,0.10,0.01,
0.032,-0.01,0.04,0.99,-0.03,0.08,-0.06,
0.034,-0.01,0.04,1.00,-0.03,0.08,-0.06,
0.046,-0.01,0.04,0.99,-0.03,0.08,-0.06,
0.046,-0.01,0.04,0.99,-0.01,0.08,-0.05,
0.047,-0.01,0.04,0.99,-0.01,0.08,-0.05,
0.047,-0.01,0.04,1.00,-0.01,0.08,-0.05,
0.047,-0.01,0.04,1.00,-0.01,0.06,-0.02,
0.047,-0.01,0.04,1.00,-0.01,0.06,-0.02,
0.048,-0.01,0.04,1.00,0.01,0.06,-0.04,
0.048,-0.01,0.05,1.00,0.01,0.06,-0.04,
0.049,-0.00,0.04,1.01,0.01,0.06,-0.04,
0.052,0.00,0.03,1.01,0.01,0.06,-0.04,
0.052,0.00,0.03,1.01,0.04,0.08,0.05,
0.062,-0.00,0.03,1.01,0.04,0.08,0.05,
0.063,-0.00,0.04,1.01,0.04,0.08,0.05,
0.063,-0.00,0.04,1.01,0.08,0.00,0.08,
0.063,-0.00,0.03,1.01,0.08,0.00,0.08,
0.064,-0.00,0.03,1.01,0.08,0.00,0.08,
0.064,-0.00,0.03,1.01,0.08,-0.01,0.11,
0.064,-0.01,0.02,1.01,0.08,-0.01,0.11,
0.067,-0.01,0.02,1.00,0.08,-0.01,0.11,
0.068,-0.01,0.02,1.00,0.06,-0.08,0.13,
0.068,-0.01,0.02,1.00,0.06,-0.08,0.13,
0.079,-0.02,0.02,1.00,0.06,-0.08,0.13,
0.08,-0.02,0.02,1.00,0.01,-0.11,0.09,
0.08,-0.02,0.02,0.99,0.01,-0.11,0.09,
0.08,-0.02,0.02,0.98,0.01,-0.11,0.09,
0.081,-0.02,0.02,0.98,-0.04,-0.15,-0.01,
0.081,-0.02,0.02,0.98,-0.04,-0.15,-0.01,
0.081,-0.02,0.02,0.98,-0.04,-0.15,-0.01,
0.081,-0.02,0.02,0.98,-0.11,-0.14,-0.12,
0.084,-0.02,0.02,0.97,-0.11,-0.14,-0.12,
0.086,-0.02,0.02,0.97,-0.11,-0.14,-0.12,
0.087,-0.02,0.02,0.97,-0.09,-0.16,-0.17,
0.095,-0.01,0.02,0.96,-0.09,-0.16,-0.17,
0.095,-0.01,0.03,0.96,-0.09,-0.16,-0.17,
0.096,-0.01,0.03,0.96,-0.05,-0.14,-0.26,
0.096,-0.00,0.03,0.95,-0.05,-0.14,-0.26,
0.096,0.00,0.03,0.96,-0.05,-0.14,-0.26,
0.096,0.00,0.03,0.96,0.00,-0.10,-0.37,
0.098,0.00,0.04,0.95,0.00,-0.10,-0.37,
0.101,0.00,0.04,0.95,0.09,-0.04,-0.42,
0.101,0.01,0.04,0.95,0.09,-0.04,-0.42,
0.104,0.01,0.03,0.95,0.09,-0.04,-0.42,
0.113,0.02,0.03,0.95,0.09,-0.04,-0.42,
0.113,0.02,0.03,0.95,0.17,-0.00,-0.44,
0.114,0.02,0.03,0.95,0.17,-0.00,-0.44,
0.114,0.02,0.03,0.95,0.24,-0.03,-0.43,
0.114,0.03,0.03,0.95,0.24,-0.03,-0.43,
0.114,0.04,0.03,0.95,0.24,-0.03,-0.43,
0.116,0.04,0.03,0.96,0.24,-0.03,-0.43,
0.117,0.04,0.03,0.96,0.33,-0.05,-0.41,
0.118,0.05,0.03,0.96,0.33,-0.05,-0.41,
0.128,0.05,0.03,0.97,0.33,-0.05,-0.41,
0.129,0.05,0.03,0.97,0.48,-0.03,-0.37,
0.129,0.05,0.03,0.97,0.48,-0.03,-0.37,
0.13,0.05,0.03,0.97,0.57,-0.04,-0.32,
0.13,0.06,0.03,0.98,0.57,-0.04,-0.32,
0.13,0.07,0.03,0.98,0.57,-0.04,-0.32,
0.13,0.07,0.03,0.98,0.67,-0.02,-0.19,
0.13,0.06,0.03,0.99,0.67,-0.02,-0.19,
0.133,0.06,0.03,0.99,0.67,-0.02,-0.19,
0.136,0.06,0.03,0.99,0.73,-0.03,-0.11,
0.136,0.06,0.03,1.01,0.73,-0.03,-0.11,
0.148,0.06,0.03,1.00,0.73,-0.03,-0.11,
0.149,0.07,0.03,1.01,0.73,-0.03,-0.11,
0.149,0.07,0.03,1.01,0.67,-0.01,0.05,
0.15,0.07,0.03,1.01,0.67,-0.01,0.05,
0.15,0.07,0.03,1.01,0.67,-0.01,0.05,
0.15,0.07,0.03,1.01,0.70,0.01,0.11,
0.15,0.07,0.03,1.02,0.70,0.01,0.11,
0.151,0.07,0.03,1.02,0.74,0.03,0.18,
0.151,0.07,0.03,1.02,0.74,0.03,0.18,
0.152,0.07,0.03,1.02,0.74,0.03,0.18,
0.161,0.08,0.03,1.01,0.74,0.03,0.18,
0.162,0.08,0.03,1.01,0.75,-0.02,0.21,
0.162,0.07,0.03,1.00,0.75,-0.02,0.21,
0.162,0.07,0.03,1.00,0.75,-0.02,0.21,
0.165,0.07,0.03,1.00,0.76,-0.02,0.18,
0.165,0.06,0.03,0.99,0.76,-0.02,0.18,
0.165,0.05,0.03,0.98,0.76,-0.02,0.18,
0.166,0.05,0.03,0.98,0.73,-0.04,0.07,
0.168,0.05,0.03,0.97,0.73,-0.04,0.07,
0.179,0.04,0.03,0.96,0.73,-0.04,0.07,
0.18,0.04,0.03,0.96,0.58,-0.02,-0.10,
0.18,0.04,0.03,0.95,0.58,-0.02,-0.10,
0.18,0.04,0.03,0.95,0.43,-0.04,-0.30,
0.181,0.04,0.03,0.93,0.43,-0.04,-0.30,
0.181,0.04,0.03,0.92,0.43,-0.04,-0.30,
0.181,0.04,0.03,0.92,0.43,-0.04,-0.30,
0.181,0.04,0.03,0.92,0.40,-0.04,-0.56,
0.182,0.04,0.04,0.91,0.40,-0.04,-0.56,
0.185,0.03,0.04,0.89,0.40,-0.04,-0.56,
0.185,0.03,0.04,0.89,0.34,0.00,-0.72,
0.193,0.03,0.04,0.87,0.34,0.00,-0.72,
0.194,0.04,0.04,0.86,0.34,0.00,-0.72,
0.194,0.04,0.04,0.86,0.31,0.06,-0.93,
0.194,0.05,0.05,0.86,0.31,0.06,-0.93,
0.195,0.05,0.05,0.86,0.34,0.09,-1.25,
0.195,0.05,0.05,0.84,0.34,0.09,-1.25,
0.197,0.04,0.06,0.83,0.34,0.09,-1.25,
0.2,0.05,0.06,0.82,0.34,0.09,-1.25,
0.2,0.05,0.06,0.82,0.41,0.15,-1.39,
0.202,0.05,0.06,0.81,0.41,0.15,-1.39,
0.209,0.05,0.06,0.80,0.41,0.15,-1.39,
0.21,0.05,0.06,0.80,0.38,0.20,-1.58,
0.21,0.06,0.07,0.79,0.38,0.20,-1.58,
0.21,0.05,0.07,0.79,0.38,0.20,-1.58,
0.211,0.05,0.07,0.79,0.44,0.24,-1.79,
0.212,0.06,0.07,0.79,0.44,0.24,-1.79,
0.215,0.06,0.07,0.78,0.44,0.24,-1.79,
0.215,0.06,0.07,0.78,0.48,0.27,-1.94,
0.217,0.06,0.07,0.78,0.48,0.27,-1.94,
0.219,0.06,0.08,0.78,0.48,0.27,-1.94,
0.22,0.06,0.08,0.78,0.54,0.32,-1.95,
0.227,0.06,0.09,0.77,0.54,0.32,-1.95,
0.227,0.06,0.09,0.77,0.54,0.32,-1.95,
0.227,0.06,0.09,0.77,0.50,0.34,-1.99,
0.228,0.06,0.09,0.77,0.50,0.34,-1.99,
0.23,0.06,0.10,0.78,0.50,0.34,-1.99,
0.23,0.06,0.10,0.78,0.55,0.47,-2.08,
0.232,0.05,0.10,0.77,0.55,0.47,-2.08,
0.234,0.05,0.09,0.76,0.55,0.47,-2.08,
0.235,0.05,0.09,0.76,0.51,0.50,-1.99,
0.237,0.04,0.09,0.76,0.51,0.50,-1.99,
0.249,0.04,0.09,0.75,0.51,0.50,-1.99,
0.249,0.04,0.09,0.75,0.42,0.48,-2.10,
0.25,0.04,0.09,0.74,0.42,0.48,-2.10,
0.25,0.04,0.09,0.73,0.42,0.48,-2.10,
0.25,0.04,0.09,0.73,0.33,0.44,-2.16,
0.25,0.04,0.09,0.73,0.33,0.44,-2.16,
0.25,0.04,0.09,0.73,0.33,0.41,-2.32,
0.25,0.04,0.08,0.73,0.33,0.41,-2.32,
0.252,0.03,0.08,0.72,0.33,0.41,-2.32,
0.254,0.03,0.09,0.71,0.33,0.41,-2.32,
0.254,0.03,0.09,0.71,0.29,0.37,-2.40,
0.262,0.03,0.08,0.72,0.29,0.37,-2.40,
0.263,0.02,0.08,0.72,0.29,0.37,-2.40,
0.263,0.02,0.08,0.72,0.21,0.37,-2.50,
0.263,0.01,0.08,0.71,0.21,0.37,-2.50,
0.264,0.01,0.07,0.71,0.21,0.37,-2.50,
0.265,0.01,0.07,0.71,0.12,0.34,-2.44,
0.267,0.01,0.07,0.71,0.12,0.34,-2.44,
0.269,0.01,0.07,0.71,0.12,0.34,-2.44,
0.27,0.01,0.07,0.71,0.01,0.27,-2.50,
0.271,0.00,0.07,0.71,0.01,0.27,-2.50,
0.279,0.00,0.07,0.71,-0.05,0.25,-2.49,
0.28,-0.00,0.07,0.71,-0.05,0.25,-2.49,
0.28,-0.01,0.07,0.72,-0.05,0.25,-2.49,
0.28,-0.01,0.07,0.72,-0.05,0.25,-2.49,
0.28,-0.01,0.07,0.72,-0.14,0.24,-2.47,
0.281,-0.02,0.07,0.72,-0.14,0.24,-2.47,
0.284,-0.02,0.07,0.72,-0.27,0.26,-2.39,
0.285,-0.03,0.07,0.72,-0.27,0.26,-2.39,
0.287,-0.03,0.07,0.72,-0.27,0.26,-2.39,
0.296,-0.03,0.06,0.73,-0.27,0.26,-2.39,
0.296,-0.03,0.06,0.73,-0.42,0.30,-2.35,
0.297,-0.03,0.07,0.72,-0.42,0.30,-2.35,
0.297,-0.02,0.06,0.73,-0.42,0.30,-2.35,
0.297,-0.02,0.06,0.73,-0.46,0.23,-2.31,
0.297,-0.01,0.06,0.74,-0.46,0.23,-2.31,
0.299,-0.01,0.06,0.74,-0.40,0.23,-2.24,
0.3,-0.01,0.06,0.75,-0.40,0.23,-2.24,
0.301,-0.01,0.06,0.76,-0.40,0.23,-2.24,
0.304,-0.00,0.05,0.75,-0.40,0.23,-2.24,
0.304,-0.00,0.05,0.75,-0.33,0.19,-2.07,
0.311,0.00,0.05,0.77,-0.33,0.19,-2.07,
0.311,0.01,0.05,0.76,-0.33,0.19,-2.07,
0.311,0.01,0.05,0.76,-0.28,0.19,-1.94,
0.312,0.01,0.04,0.77,-0.28,0.19,-1.94,
0.314,0.02,0.04,0.77,-0.28,0.19,-1.94,
0.314,0.02,0.04,0.77,-0.20,0.13,-1.83,
0.316,0.03,0.03,0.77,-0.20,0.13,-1.83,
0.319,0.05,0.02,0.77,-0.20,0.13,-1.83,
0.319,0.05,0.02,0.77,-0.14,0.07,-1.79,
0.321,0.06,0.01,0.76,-0.14,0.07,-1.79,
0.327,0.06,0.01,0.76,0.14,-0.06,-1.78,
0.327,0.07,-0.00,0.77,0.14,-0.06,-1.78,
0.33,0.08,-0.01,0.77,0.14,-0.06,-1.78,
0.33,0.09,-0.02,0.77,0.14,-0.06,-1.78,
0.33,0.09,-0.02,0.77,0.37,-0.24,-1.78,
0.331,0.11,-0.04,0.77,0.37,-0.24,-1.78,
0.334,0.12,-0.05,0.79,0.37,-0.24,-1.78,
0.334,0.12,-0.05,0.79,0.56,-0.41,-1.71,
0.336,0.13,-0.05,0.80,0.56,-0.41,-1.71,
0.343,0.14,-0.06,0.82,0.56,-0.41,-1.71,
0.344,0.14,-0.06,0.82,0.82,-0.62,-1.59,
0.344,0.14,-0.06,0.83,0.82,-0.62,-1.59,
0.344,0.16,-0.07,0.85,0.82,-0.62,-1.59,
0.345,0.16,-0.07,0.85,1.04,-0.72,-1.33,
0.346,0.17,-0.07,0.87,1.04,-0.72,-1.33,
0.349,0.17,-0.07,0.87,1.21,-0.81,-0.99,
0.349,0.18,-0.07,0.90,1.21,-0.81,-0.99,
0.352,0.18,-0.07,0.93,1.21,-0.81,-0.99,
0.354,0.19,-0.08,0.96,1.21,-0.81,-0.99,
0.354,0.19,-0.08,0.96,1.45,-0.83,-0.58,
0.366,0.19,-0.07,0.98,1.45,-0.83,-0.58,
0.366,0.19,-0.07,1.01,1.45,-0.83,-0.58,
0.367,0.19,-0.07,1.01,1.53,-0.83,0.00,
0.367,0.19,-0.08,1.04,1.53,-0.83,0.00,
0.368,0.19,-0.08,1.05,1.53,-0.83,0.00,
0.368,0.19,-0.08,1.05,1.61,-0.76,0.48,
0.368,0.20,-0.09,1.06,1.61,-0.76,0.48,
0.368,0.20,-0.09,1.07,1.61,-0.76,0.48,
0.368,0.20,-0.09,1.07,1.65,-0.82,0.97,
0.37,0.22,-0.10,1.07,1.65,-0.82,0.97,
0.379,0.22,-0.10,1.07,1.75,-0.86,1.16,
0.379,0.22,-0.10,1.07,1.75,-0.86,1.16,
0.38,0.23,-0.10,1.07,1.75,-0.86,1.16,
0.38,0.23,-0.11,1.06,1.75,-0.86,1.16,
0.38,0.23,-0.11,1.06,1.94,-0.93,1.23,
0.38,0.23,-0.11,1.04,1.94,-0.93,1.23,
0.382,0.23,-0.11,1.04,1.94,-0.93,1.23,
0.383,0.23,-0.11,1.04,2.01,-0.97,1.14,
0.385,0.23,-0.11,1.03,2.01,-0.97,1.14,
0.397,0.23,-0.11,1.02,2.01,-0.97,1.14,
0.398,0.23,-0.11,1.02,2.02,-1.04,0.89,
0.398,0.23,-0.10,1.00,2.02,-1.04,0.89,
0.398,0.22,-0.10,0.99,2.02,-1.04,0.89,
0.399,0.22,-0.10,0.99,1.98,-1.01,0.71,
0.399,0.22,-0.09,0.98,1.98,-1.01,0.71,
0.399,0.22,-0.09,0.98,1.93,-0.88,0.44,
0.399,0.21,-0.08,0.96,1.93,-0.88,0.44,
0.4,0.20,-0.08,0.94,1.93,-0.88,0.44,
0.402,0.18,-0.07,0.93,1.93,-0.88,0.44,
0.403,0.18,-0.07,0.93,1.82,-0.74,0.18,
0.411,0.16,-0.07,0.91,1.82,-0.74,0.18,
0.411,0.13,-0.07,0.90,1.82,-0.74,0.18,
0.412,0.13,-0.07,0.90,1.55,-0.60,-0.15,
0.412,0.12,-0.07,0.89,1.55,-0.60,-0.15,
0.412,0.09,-0.07,0.88,1.55,-0.60,-0.15,
0.412,0.09,-0.07,0.88,1.13,-0.57,-0.42,
0.415,0.08,-0.08,0.88,1.13,-0.57,-0.42,
0.418,0.06,-0.08,0.87,1.13,-0.57,-0.42,
0.418,0.06,-0.08,0.87,0.73,-0.59,-0.64,
0.419,0.05,-0.08,0.86,0.73,-0.59,-0.64,
0.427,0.05,-0.08,0.86,0.37,-0.63,-0.71,
0.428,0.04,-0.08,0.86,0.37,-0.63,-0.71,
0.428,0.03,-0.07,0.87,0.37,-0.63,-0.71,
0.428,0.02,-0.07,0.87,0.37,-0.63,-0.71,
0.428,0.02,-0.07,0.87,0.14,-0.60,-0.84,
0.429,0.01,-0.07,0.88,0.14,-0.60,-0.84,
0.432,-0.01,-0.07,0.88,0.14,-0.60,-0.84,
0.432,-0.01,-0.07,0.88,-0.06,-0.52,-0.75,
0.434,-0.01,-0.06,0.90,-0.06,-0.52,-0.75,
0.437,-0.02,-0.06,0.91,-0.06,-0.52,-0.75,
0.437,-0.02,-0.06,0.91,-0.28,-0.46,-0.64,
0.445,-0.03,-0.07,0.93,-0.28,-0.46,-0.64,
0.446,-0.03,-0.07,0.94,-0.28,-0.46,-0.64,
0.446,-0.03,-0.07,0.94,-0.43,-0.38,-0.39,
0.446,-0.03,-0.07,0.97,-0.43,-0.38,-0.39,
0.447,-0.03,-0.07,0.97,-0.54,-0.39,-0.08,
0.447,-0.03,-0.07,0.98,-0.54,-0.39,-0.08,
0.449,-0.02,-0.08,1.01,-0.54,-0.39,-0.08,
0.452,-0.02,-0.08,1.03,-0.54,-0.39,-0.08,
0.452,-0.02,-0.08,1.03,-0.58,-0.41,0.28,
0.454,-0.01,-0.08,1.05,-0.58,-0.41,0.28,
0.46,0.01,-0.08,1.07,-0.58,-0.41,0.28,
0.461,0.01,-0.08,1.07,-0.45,-0.46,0.70,
0.461,0.03,-0.08,1.08,-0.45,-0.46,0.70,
0.462,0.04,-0.09,1.10,-0.45,-0.46,0.70,
0.463,0.04,-0.09,1.10,-0.22,-0.44,1.08,
0.464,0.05,-0.09,1.11,-0.22,-0.44,1.08,
0.467,0.07,-0.08,1.11,-0.22,-0.44,1.08,
0.467,0.07,-0.08,1.11,0.10,-0.44,1.38,
0.469,0.08,-0.08,1.13,0.10,-0.44,1.38,
0.482,0.08,-0.08,1.13,0.36,-0.41,1.57,
0.483,0.09,-0.09,1.13,0.36,-0.41,1.57,
0.483,0.10,-0.08,1.13,0.36,-0.41,1.57,
0.484,0.10,-0.08,1.13,0.36,-0.41,1.57,
0.484,0.10,-0.08,1.13,0.59,-0.38,1.73,
0.485,0.11,-0.08,1.14,0.59,-0.38,1.73,
0.485,0.12,-0.07,1.12,0.59,-0.38,1.73,
0.485,0.12,-0.07,1.12,0.75,-0.37,1.77,
0.485,0.12,-0.06,1.12,0.75,-0.37,1.77,
0.487,0.12,-0.06,1.11,0.75,-0.37,1.77,
0.487,0.12,-0.06,1.11,0.89,-0.30,1.75,
0.496,0.12,-0.05,1.10,0.89,-0.30,1.75,
0.5,0.11,-0.03,1.09,0.89,-0.30,1.75,
0.5,0.11,-0.03,1.09,0.94,-0.12,1.61,
0.5,0.10,-0.02,1.07,0.94,-0.12,1.61,
0.501,0.10,-0.02,1.07,0.89,0.08,1.36,
0.501,0.10,-0.02,1.05,0.89,0.08,1.36,
0.501,0.08,-0.01,1.03,0.89,0.08,1.36,
0.502,0.07,-0.01,1.01,0.89,0.08,1.36,
0.502,0.07,-0.01,1.01,0.75,0.25,1.03,
0.504,0.05,-0.01,1.00,0.75,0.25,1.03,
0.516,0.02,-0.01,0.99,0.75,0.25,1.03,
0.517,0.02,-0.01,0.99,0.49,0.36,0.66,
0.517,-0.00,-0.01,0.97,0.49,0.36,0.66,
0.518,-0.03,-0.01,0.95,0.49,0.36,0.66,
0.518,-0.03,-0.01,0.95,0.08,0.36,0.38,
0.518,-0.05,-0.02,0.94,0.08,0.36,0.38,
0.519,-0.06,-0.03,0.93,0.08,0.36,0.38,
0.519,-0.06,-0.03,0.93,-0.42,0.33,0.02,
0.519,-0.08,-0.03,0.92,-0.42,0.33,0.02,
0.524,-0.08,-0.03,0.92,-0.81,0.20,-0.23,
0.524,-0.09,-0.04,0.92,-0.81,0.20,-0.23,
0.524,-0.10,-0.05,0.91,-0.81,0.20,-0.23,
0.528,-0.09,-0.06,0.92,-0.81,0.20,-0.23,
0.528,-0.09,-0.06,0.92,-1.11,0.09,-0.34,
0.529,-0.09,-0.07,0.92,-1.11,0.09,-0.34,
0.532,-0.10,-0.09,0.92,-1.11,0.09,-0.34,
0.532,-0.10,-0.09,0.92,-1.23,-0.11,-0.38,
0.534,-0.10,-0.10,0.93,-1.23,-0.11,-0.38,
0.537,-0.10,-0.11,0.94,-1.23,-0.11,-0.38,
0.537,-0.10,-0.11,0.94,-1.25,-0.33,-0.34,
0.539,-0.09,-0.11,0.97,-1.25,-0.33,-0.34,
0.546,-0.09,-0.12,1.00,-1.25,-0.33,-0.34,
0.546,-0.09,-0.12,1.00,-1.30,-0.54,-0.16,
0.546,-0.07,-0.13,1.01,-1.30,-0.54,-0.16,
0.547,-0.07,-0.13,1.01,-1.27,-0.66,0.28,
0.547,-0.06,-0.13,1.03,-1.27,-0.66,0.28,
0.549,-0.06,-0.14,1.06,-1.27,-0.66,0.28,
0.552,-0.05,-0.15,1.09,-1.27,-0.66,0.28,
0.552,-0.05,-0.15,1.09,-1.04,-0.77,0.67,
0.554,-0.04,-0.15,1.10,-1.04,-0.77,0.67,
0.561,-0.04,-0.15,1.12,-1.04,-0.77,0.67,
0.561,-0.04,-0.15,1.12,-0.95,-0.87,1.18,
0.561,-0.03,-0.14,1.14,-0.95,-0.87,1.18,
0.562,-0.03,-0.14,1.14,-0.85,-0.87,1.52,
0.562,-0.03,-0.14,1.16,-0.85,-0.87,1.52,
0.564,-0.03,-0.14,1.18,-0.85,-0.87,1.52,
0.567,-0.03,-0.14,1.18,-0.74,-0.75,1.90,
0.567,-0.04,-0.14,1.20,-0.74,-0.75,1.90,
0.569,-0.04,-0.13,1.21,-0.74,-0.75,1.90,
0.571,-0.04,-0.13,1.21,-0.76,-0.68,2.28,
0.572,-0.05,-0.13,1.22,-0.76,-0.68,2.28,
0.582,-0.06,-0.12,1.23,-0.76,-0.68,2.28,
0.583,-0.06,-0.12,1.24,-0.76,-0.68,2.28,
0.583,-0.06,-0.12,1.24,-0.83,-0.57,2.52,
0.583,-0.06,-0.11,1.24,-0.83,-0.57,2.52,
0.583,-0.06,-0.10,1.25,-0.83,-0.57,2.52,
0.584,-0.06,-0.10,1.25,-0.94,-0.47,2.72,
0.584,-0.06,-0.09,1.25,-0.94,-0.47,2.72,
0.586,-0.05,-0.08,1.25,-0.94,-0.47,2.72,
0.587,-0.05,-0.08,1.25,-0.96,-0.31,2.78,
0.588,-0.05,-0.08,1.26,-0.96,-0.31,2.78,
0.596,-0.05,-0.07,1.25,-0.96,-0.31,2.78,
0.596,-0.05,-0.07,1.25,-0.89,-0.14,2.81,
0.597,-0.07,-0.07,1.23,-0.89,-0.14,2.81,
0.597,-0.07,-0.07,1.23,-0.83,0.03,2.84,
0.597,-0.07,-0.09,1.23,-0.83,0.03,2.84,
0.599,-0.08,-0.10,1.22,-0.83,0.03,2.84,
0.601,-0.08,-0.12,1.21,-0.83,0.03,2.84,
0.602,-0.08,-0.12,1.21,-0.99,-0.05,2.60,
0.603,-0.07,-0.14,1.20,-0.99,-0.05,2.60,
0.606,-0.06,-0.15,1.18,-0.99,-0.05,2.60,
0.606,-0.06,-0.15,1.18,-1.06,-0.33,2.48,
0.613,-0.05,-0.17,1.17,-1.06,-0.33,2.48,
0.614,-0.04,-0.17,1.16,-1.06,-0.33,2.48,
0.614,-0.04,-0.17,1.16,-0.93,-0.66,2.20,
0.614,-0.03,-0.18,1.14,-0.93,-0.66,2.20,
0.616,-0.01,-0.18,1.14,-0.93,-0.66,2.20,
0.616,-0.01,-0.18,1.14,-0.71,-0.92,1.94,
0.619,-0.00,-0.18,1.13,-0.71,-0.92,1.94,
0.621,-0.00,-0.18,1.13,-0.49,-0.96,1.67,
0.621,0.00,-0.17,1.12,-0.49,-0.96,1.67,
0.63,0.01,-0.16,1.11,-0.49,-0.96,1.67,
0.63,0.01,-0.17,1.11,-0.49,-0.96,1.67,
0.631,0.01,-0.17,1.11,-0.27,-0.93,1.50,
0.631,0.02,-0.17,1.10,-0.27,-0.93,1.50,
0.631,0.02,-0.16,1.10,-0.27,-0.93,1.50,
0.631,0.02,-0.16,1.10,-0.19,-0.83,1.39,
0.633,0.02,-0.16,1.09,-0.19,-0.83,1.39,
0.636,0.02,-0.16,1.09,-0.19,-0.83,1.39,
0.637,0.02,-0.16,1.09,-0.13,-0.82,1.28,
0.638,0.03,-0.15,1.09,-0.13,-0.82,1.28,
0.644,0.02,-0.14,1.09,-0.13,-0.82,1.28,
0.645,0.02,-0.14,1.09,-0.08,-0.76,1.20,
0.645,0.02,-0.14,1.08,-0.08,-0.76,1.20,
0.645,0.02,-0.14,1.08,-0.06,-0.62,1.17,
0.645,0.01,-0.14,1.08,-0.06,-0.62,1.17,
0.647,0.01,-0.14,1.08,-0.06,-0.62,1.17,
0.65,-0.00,-0.13,1.08,-0.06,-0.62,1.17,
0.65,-0.00,-0.13,1.08,-0.12,-0.54,1.09,
0.652,-0.00,-0.13,1.09,-0.12,-0.54,1.09,
0.655,-0.01,-0.13,1.10,-0.12,-0.54,1.09,
0.657,-0.01,-0.13,1.10,-0.25,-0.49,1.10,
0.662,-0.01,-0.13,1.10,-0.25,-0.49,1.10,
0.663,-0.01,-0.13,1.10,-0.25,-0.49,1.10,
0.663,-0.01,-0.13,1.10,-0.35,-0.45,1.20,
0.663,-0.02,-0.13,1.11,-0.35,-0.45,1.20,
0.665,-0.02,-0.12,1.12,-0.35,-0.45,1.20,
0.665,-0.02,-0.12,1.12,-0.39,-0.44,1.28,
0.667,-0.03,-0.12,1.13,-0.39,-0.44,1.28,
0.67,-0.03,-0.12,1.13,-0.46,-0.36,1.37,
0.67,-0.03,-0.12,1.14,-0.46,-0.36,1.37,
0.672,-0.03,-0.12,1.15,-0.46,-0.36,1.37,
0.683,-0.03,-0.11,1.15,-0.46,-0.36,1.37,
0.684,-0.03,-0.11,1.15,-0.54,-0.28,1.54,
0.685,-0.03,-0.12,1.15,-0.54,-0.28,1.54,
0.685,-0.03,-0.12,1.15,-0.54,-0.28,1.54,
0.685,-0.03,-0.12,1.15,-0.55,-0.22,1.74,
0.686,-0.03,-0.12,1.16,-0.55,-0.22,1.74,
0.686,-0.02,-0.12,1.17,-0.55,-0.22,1.74,
0.686,-0.02,-0.12,1.17,-0.54,-0.23,1.74,
0.687,-0.02,-0.11,1.17,-0.54,-0.23,1.74,
0.697,-0.01,-0.11,1.18,-0.54,-0.23,1.74,
0.697,-0.01,-0.11,1.18,-0.48,-0.22,1.85,
0.698,-0.01,-0.11,1.19,-0.48,-0.22,1.85,
0.698,-0.01,-0.11,1.19,-0.32,-0.11,1.92,
0.698,-0.01,-0.12,1.18,-0.32,-0.11,1.92,
0.698,-0.01,-0.11,1.18,-0.32,-0.11,1.92,
0.699,-0.01,-0.12,1.19,-0.32,-0.11,1.92,
0.7,-0.01,-0.12,1.19,-0.30,-0.14,2.02,
0.703,-0.00,-0.11,1.19,-0.30,-0.14,2.02,
0.705,-0.00,-0.11,1.19,-0.30,-0.13,2.03,
0.705,0.00,-0.11,1.19,-0.30,-0.13,2.03,
0.715,0.01,-0.11,1.19,-0.30,-0.13,2.03,
0.716,0.00,-0.11,1.18,-0.30,-0.13,2.03,
0.716,0.00,-0.11,1.18,-0.23,-0.08,2.04,
0.716,0.00,-0.10,1.18,-0.23,-0.08,2.04,
0.716,0.01,-0.09,1.17,-0.23,-0.08,2.04,
0.717,0.01,-0.09,1.17,-0.19,-0.02,2.02,
0.717,0.01,-0.09,1.17,-0.19,-0.02,2.02,
0.719,0.01,-0.09,1.17,-0.18,0.12,1.92,
0.719,0.00,-0.09,1.17,-0.18,0.12,1.92,
0.721,0.00,-0.09,1.16,-0.18,0.12,1.92,
0.729,-0.00,-0.08,1.16,-0.18,0.12,1.92,
0.73,-0.00,-0.08,1.16,-0.18,0.18,1.84,
0.73,-0.00,-0.09,1.15,-0.18,0.18,1.84,
0.73,-0.01,-0.08,1.15,-0.18,0.18,1.84,
0.73,-0.01,-0.08,1.15,-0.25,0.25,1.77,
0.732,-0.01,-0.08,1.14,-0.25,0.25,1.77,
0.734,-0.02,-0.08,1.14,-0.25,0.25,1.77,
0.734,-0.02,-0.08,1.14,-0.28,0.28,1.66,
0.736,-0.01,-0.07,1.13,-0.28,0.28,1.66,
0.745,-0.02,-0.07,1.13,-0.28,0.28,1.66,
0.745,-0.02,-0.07,1.13,-0.34,0.36,1.55,
0.745,-0.03,-0.05,1.13,-0.34,0.36,1.55,
0.746,-0.03,-0.05,1.13,-0.38,0.43,1.44,
0.746,-0.03,-0.06,1.13,-0.38,0.43,1.44,
0.746,-0.04,-0.06,1.13,-0.38,0.43,1.44,
0.749,-0.05,-0.06,1.12,-0.38,0.43,1.44,
0.749,-0.05,-0.06,1.12,-0.51,0.57,1.40,
0.751,-0.05,-0.06,1.12,-0.51,0.57,1.40,
0.754,-0.05,-0.06,1.12,-0.51,0.57,1.40,
0.754,-0.05,-0.06,1.12,-0.62,0.55,1.36,
0.761,-0.04,-0.06,1.11,-0.62,0.55,1.36,
0.762,-0.04,-0.06,1.10,-0.62,0.55,1.36,
0.762,-0.04,-0.06,1.10,-0.65,0.56,1.31,
0.762,-0.04,-0.06,1.10,-0.65,0.56,1.31,
0.764,-0.04,-0.06,1.10,-0.65,0.56,1.31,
0.764,-0.04,-0.06,1.10,-0.56,0.52,1.20,
0.766,-0.04,-0.06,1.09,-0.56,0.52,1.20,
0.769,-0.04,-0.06,1.09,-0.52,0.55,1.12,
0.769,-0.03,-0.06,1.09,-0.52,0.55,1.12,
0.771,-0.02,-0.06,1.09,-0.52,0.55,1.12,
0.779,-0.01,-0.06,1.08,-0.52,0.55,1.12,
0.78,-0.01,-0.06,1.08,-0.43,0.57,1.04,
0.78,-0.01,-0.06,1.08,-0.43,0.57,1.04,
0.78,-0.01,-0.07,1.07,-0.43,0.57,1.04,
0.781,-0.01,-0.07,1.07,-0.26,0.54,0.96,
0.781,-0.00,-0.07,1.08,-0.26,0.54,0.96,
0.784,0.00,-0.07,1.08,-0.26,0.54,0.96,
0.784,0.00,-0.07,1.08,-0.20,0.52,0.90,
0.787,0.01,-0.07,1.07,-0.20,0.52,0.90,
0.788,0.01,-0.07,1.07,-0.09,0.50,0.91,
0.789,0.01,-0.07,1.08,-0.09,0.50,0.91,
0.8,0.02,-0.07,1.08,-0.09,0.50,0.91,
0.801,0.02,-0.07,1.08,0.02,0.47,0.87,
0.801,0.02,-0.07,1.08,0.02,0.47,0.87,
0.801,0.03,-0.07,1.07,0.02,0.47,0.87,
0.802,0.03,-0.07,1.08,0.02,0.47,0.87,
0.802,0.03,-0.07,1.08,0.11,0.48,0.89,
0.802,0.04,-0.07,1.07,0.11,0.48,0.89,
0.803,0.05,-0.08,1.07,0.11,0.48,0.89,
0.804,0.05,-0.08,1.07,0.21,0.48,0.86,
0.806,0.05,-0.08,1.08,0.21,0.48,0.86,
0.814,0.05,-0.09,1.08,0.21,0.48,0.86,
0.815,0.05,-0.09,1.08,0.34,0.46,0.84,
0.815,0.06,-0.08,1.08,0.34,0.46,0.84,
0.815,0.05,-0.09,1.09,0.34,0.46,0.84,
0.816,0.05,-0.09,1.09,0.43,0.39,0.87,
0.816,0.06,-0.09,1.09,0.43,0.39,0.87,
0.818,0.06,-0.09,1.09,0.46,0.36,0.93,
0.819,0.07,-0.09,1.08,0.46,0.36,0.93,
0.822,0.06,-0.10,1.08,0.46,0.36,0.93,
0.835,0.07,-0.10,1.08,0.46,0.36,0.93,
0.836,0.07,-0.10,1.08,0.53,0.30,0.92,
0.836,0.07,-0.10,1.07,0.53,0.30,0.92,
0.836,0.06,-0.09,1.07,0.53,0.30,0.92,
0.836,0.06,-0.09,1.07,0.53,0.23,0.88,
0.836,0.06,-0.09,1.07,0.53,0.23,0.88,
0.837,0.06,-0.09,1.07,0.53,0.23,0.88,
0.837,0.06,-0.09,1.07,0.53,0.26,0.81,
0.837,0.05,-0.08,1.06,0.53,0.26,0.81,
0.839,0.05,-0.08,1.06,0.53,0.26,0.81,
0.839,0.05,-0.08,1.06,0.48,0.32,0.76,
0.847,0.04,-0.07,1.05,0.48,0.32,0.76,
0.849,0.03,-0.07,1.05,0.48,0.32,0.76,
0.849,0.03,-0.07,1.05,0.39,0.42,0.68,
0.849,0.03,-0.06,1.04,0.39,0.42,0.68,
0.849,0.03,-0.06,1.04,0.39,0.42,0.68,
0.849,0.03,-0.06,1.04,0.21,0.51,0.60,
0.85,0.02,-0.06,1.04,0.21,0.51,0.60,
0.853,0.02,-0.06,1.04,0.21,0.51,0.60,
0.853,0.02,-0.06,1.04,0.18,0.56,0.51,
0.855,0.01,-0.06,1.04,0.18,0.56,0.51,
0.863,0.01,-0.06,1.03,0.18,0.56,0.51,
0.864,0.01,-0.06,1.03,0.09,0.61,0.48,
0.864,0.01,-0.06,1.04,0.09,0.61,0.48,
0.864,0.02,-0.07,1.04,0.09,0.61,0.48,
0.865,0.02,-0.07,1.04,0.01,0.56,0.47,
0.865,0.02,-0.07,1.04,0.01,0.56,0.47,
0.869,0.02,-0.07,1.04,0.05,0.53,0.46,
0.869,0.02,-0.07,1.05,0.05,0.53,0.46,
0.871,0.03,-0.08,1.06,0.05,0.53,0.46,
0.873,0.04,-0.09,1.06,0.05,0.53,0.46,
0.873,0.04,-0.09,1.06,0.08,0.45,0.51,
0.881,0.04,-0.09,1.07,0.08,0.45,0.51,
0.881,0.05,-0.09,1.08,0.08,0.45,0.51,
0.882,0.05,-0.09,1.08,0.25,0.33,0.66,
0.882,0.06,-0.09,1.09,0.25,0.33,0.66,
0.883,0.06,-0.10,1.10,0.25,0.33,0.66,
0.883,0.06,-0.10,1.10,0.40,0.28,0.83,
0.885,0.07,-0.10,1.11,0.40,0.28,0.83,
0.888,0.07,-0.11,1.12,0.40,0.28,0.83,
0.888,0.07,-0.11,1.12,0.53,0.22,1.03,
0.89,0.07,-0.11,1.13,0.53,0.22,1.03,
0.897,0.07,-0.11,1.13,0.59,0.12,1.22,
0.898,0.08,-0.11,1.14,0.59,0.12,1.22,
0.898,0.08,-0.12,1.15,0.59,0.12,1.22,
0.898,0.08,-0.12,1.16,0.59,0.12,1.22,
0.898,0.08,-0.12,1.16,0.63,0.07,1.39,
0.9,0.08,-0.11,1.16,0.63,0.07,1.39,
0.903,0.09,-0.11,1.17,0.63,0.07,1.39,
0.903,0.09,-0.11,1.17,0.70,0.02,1.59,
0.905,0.09,-0.11,1.18,0.70,0.02,1.59,
0.916,0.08,-0.11,1.18,0.70,0.02,1.59,
0.916,0.08,-0.11,1.18,0.77,0.06,1.71,
0.917,0.08,-0.10,1.19,0.77,0.06,1.71,
0.917,0.08,-0.10,1.20,0.77,0.06,1.71,
0.917,0.08,-0.10,1.20,0.75,0.11,1.83,
0.917,0.08,-0.10,1.20,0.75,0.11,1.83,
0.918,0.08,-0.10,1.20,0.72,0.19,1.92,
0.918,0.07,-0.10,1.21,0.72,0.19,1.92,
0.92,0.05,-0.10,1.21,0.72,0.19,1.92,
0.923,0.05,-0.11,1.21,0.72,0.19,1.92,
0.923,0.05,-0.11,1.21,0.61,0.19,2.05,
0.931,0.04,-0.11,1.20,0.61,0.19,2.05,
0.931,0.04,-0.11,1.20,0.61,0.19,2.05,
0.932,0.04,-0.11,1.20,0.42,0.15,2.07,
0.932,0.03,-0.10,1.20,0.42,0.15,2.07,
0.932,0.03,-0.11,1.20,0.42,0.15,2.07,
0.932,0.03,-0.11,1.20,0.28,0.13,1.96,
0.934,0.03,-0.10,1.21,0.28,0.13,1.96,
0.938,0.02,-0.10,1.21,0.28,0.13,1.96,
0.938,0.02,-0.10,1.21,0.19,0.14,2.01,
0.94,0.02,-0.09,1.21,0.19,0.14,2.01,
0.946,0.02,-0.09,1.21,0.11,0.19,2.05,
0.947,0.02,-0.10,1.22,0.11,0.19,2.05,
0.947,0.02,-0.10,1.22,0.11,0.19,2.05,
0.947,0.01,-0.10,1.22,0.11,0.19,2.05,
0.947,0.01,-0.10,1.22,0.07,0.24,2.09,
0.95,0.01,-0.11,1.23,0.07,0.24,2.09,
0.953,0.01,-0.11,1.23,0.03,0.18,2.11,
0.953,0.01,-0.11,1.23,0.03,0.18,2.11,
0.954,0.01,-0.11,1.23,0.03,0.18,2.11,
0.964,0.01,-0.11,1.24,0.03,0.18,2.11,
0.965,0.01,-0.11,1.24,0.01,0.10,2.23,
0.965,0.01,-0.11,1.24,0.01,0.10,2.23,
0.965,0.01,-0.12,1.25,0.01,0.10,2.23,
0.965,0.01,-0.12,1.25,-0.05,0.06,2.29,
0.965,0.01,-0.11,1.25,-0.05,0.06,2.29,
0.968,0.01,-0.11,1.25,-0.04,0.02,2.38,
0.968,0.01,-0.11,1.25,-0.04,0.02,2.38,
0.97,0.01,-0.11,1.25,-0.04,0.02,2.38,
0.972,0.02,-0.11,1.26,-0.04,0.02,2.38,
0.973,0.02,-0.11,1.26,-0.04,0.03,2.38,
0.974,0.01,-0.11,1.27,-0.04,0.03,2.38,
0.979,0.01,-0.11,1.26,-0.04,0.03,2.38,
0.98,0.01,-0.11,1.26,0.01,0.06,2.45,
0.98,0.00,-0.11,1.27,0.01,0.06,2.45,
0.982,-0.00,-0.11,1.27,0.01,0.06,2.45,
0.983,-0.00,-0.11,1.27,-0.03,0.08,2.53,
0.984,-0.00,-0.11,1.27,-0.03,0.08,2.53,
0.987,-0.01,-0.11,1.28,-0.03,0.08,2.53,
0.988,-0.01,-0.11,1.28,-0.15,0.08,2.57,
0.989,-0.02,-0.11,1.28,-0.15,0.08,2.57,
1.003,-0.02,-0.11,1.28,-0.21,0.05,2.61,
1.004,-0.03,-0.12,1.28,-0.21,0.05,2.61,
1.004,-0.03,-0.11,1.27,-0.21,0.05,2.61,
1.005,-0.03,-0.11,1.27,-0.21,0.05,2.61,
1.005,-0.03,-0.11,1.27,-0.38,-0.01,2.66,
1.005,-0.04,-0.10,1.26,-0.38,-0.01,2.66,
1.005,-0.04,-0.10,1.25,-0.38,-0.01,2.66,
1.005,-0.04,-0.10,1.25,-0.45,0.00,2.54,
1.006,-0.03,-0.09,1.25,-0.45,0.00,2.54,
1.006,-0.03,-0.09,1.25,-0.45,0.00,2.54,
1.007,-0.03,-0.09,1.25,-0.51,0.07,2.42,
1.015,-0.03,-0.09,1.23,-0.51,0.07,2.42,
1.015,-0.03,-0.09,1.23,-0.51,0.07,2.42,
1.015,-0.03,-0.09,1.23,-0.46,0.13,2.32,
1.016,-0.03,-0.09,1.22,-0.46,0.13,2.32,
1.016,-0.03,-0.09,1.22,-0.45,0.16,2.13,
1.016,-0.03,-0.09,1.21,-0.45,0.16,2.13,
1.019,-0.03,-0.10,1.21,-0.45,0.16,2.13,
1.021,-0.03,-0.09,1.20,-0.45,0.16,2.13,
1.021,-0.03,-0.09,1.20,-0.48,0.12,1.98,
1.023,-0.02,-0.10,1.19,-0.48,0.12,1.98,
1.033,-0.02,-0.10,1.19,-0.48,0.12,1.98,
1.034,-0.02,-0.10,1.19,-0.48,0.06,1.86,
1.034,-0.01,-0.09,1.19,-0.48,0.06,1.86,
1.034,-0.01,-0.10,1.18,-0.48,0.06,1.86,
1.034,-0.01,-0.10,1.18,-0.40,-0.01,1.69,
1.035,-0.00,-0.09,1.18,-0.40,-0.01,1.69,
1.036,0.00,-0.09,1.17,-0.40,-0.01,1.69,
1.036,0.00,-0.09,1.17,-0.28,0.01,1.63,
1.038,0.00,-0.08,1.17,-0.28,0.01,1.63,
1.047,0.00,-0.08,1.17,-0.20,0.04,1.54,
1.048,0.01,-0.07,1.16,-0.20,0.04,1.54,
1.048,0.01,-0.08,1.15,-0.20,0.04,1.54,
1.049,0.01,-0.07,1.15,-0.20,0.04,1.54,
1.049,0.01,-0.07,1.15,-0.13,0.12,1.41,
1.049,0.01,-0.07,1.14,-0.13,0.12,1.41,
1.051,0.00,-0.07,1.14,-0.13,0.12,1.41,
1.051,0.00,-0.07,1.14,-0.08,0.14,1.28,
1.053,0.01,-0.07,1.13,-0.08,0.14,1.28,
1.056,0.00,-0.08,1.12,-0.08,0.14,1.28,
1.056,0.00,-0.08,1.12,-0.14,0.12,1.17,
1.062,0.01,-0.08,1.12,-0.14,0.12,1.17,
1.063,0.01,-0.07,1.12,-0.14,0.12,1.17,
1.063,0.01,-0.07,1.12,-0.16,0.08,1.05,
1.063,0.01,-0.07,1.11,-0.16,0.08,1.05,
1.066,0.01,-0.07,1.11,-0.16,0.07,0.97,
1.066,0.01,-0.07,1.11,-0.16,0.07,0.97,
1.068,0.01,-0.06,1.10,-0.16,0.07,0.97,
1.071,0.01,-0.06,1.10,-0.16,0.07,0.97,
1.071,0.01,-0.06,1.10,-0.14,0.08,0.85,
1.073,0.01,-0.06,1.09,-0.14,0.08,0.85,
1.081,0.01,-0.06,1.09,-0.14,0.08,0.85,
1.081,0.01,-0.06,1.09,-0.14,0.14,0.73,
1.081,0.01,-0.05,1.08,-0.14,0.14,0.73,
1.082,0.00,-0.05,1.07,-0.14,0.14,0.73,
1.082,0.00,-0.05,1.07,-0.16,0.13,0.61,
1.083,-0.00,-0.05,1.07,-0.16,0.13,0.61,
1.086,-0.01,-0.04,1.06,-0.16,0.13,0.61,
1.086,-0.01,-0.04,1.06,-0.19,0.19,0.54,
1.088,-0.01,-0.04,1.05,-0.19,0.19,0.54,
1.09,-0.01,-0.04,1.05,-0.33,0.22,0.35,
1.091,-0.02,-0.04,1.04,-0.33,0.22,0.35,
1.096,-0.03,-0.03,1.04,-0.33,0.22,0.35,
1.097,-0.04,-0.03,1.03,-0.33,0.22,0.35,
1.097,-0.04,-0.03,1.03,-0.44,0.26,0.19,
1.098,-0.05,-0.03,1.03,-0.44,0.26,0.19,
1.1,-0.05,-0.03,1.03,-0.60,0.29,0.09,
1.101,-0.04,-0.03,1.03,-0.60,0.29,0.09,
1.103,-0.04,-0.03,1.02,-0.60,0.29,0.09,
1.105,-0.04,-0.03,1.01,-0.60,0.29,0.09,
1.105,-0.04,-0.03,1.01,-0.71,0.29,0.01,
1.118,-0.04,-0.03,1.03,-0.71,0.29,0.01,
1.119,-0.03,-0.03,1.04,-0.71,0.29,0.01,
1.119,-0.03,-0.03,1.04,-0.68,0.27,-0.09,
1.12,-0.03,-0.03,1.05,-0.68,0.27,-0.09,
1.12,-0.03,-0.04,1.06,-0.68,0.27,-0.09,
1.12,-0.03,-0.04,1.06,-0.61,0.27,0.07,
1.121,-0.03,-0.04,1.06,-0.61,0.27,0.07,
1.121,-0.02,-0.05,1.07,-0.61,0.27,0.07,
1.121,-0.02,-0.05,1.07,-0.57,0.17,0.25,
1.123,-0.01,-0.06,1.08,-0.57,0.17,0.25,
1.132,-0.01,-0.07,1.08,-0.57,0.17,0.25,
1.133,-0.01,-0.07,1.08,-0.54,0.06,0.41,
1.133,0.01,-0.07,1.10,-0.54,0.06,0.41,
1.134,0.01,-0.07,1.10,-0.54,0.06,0.41,
1.134,0.01,-0.07,1.10,-0.40,-0.12,0.53,
1.134,0.01,-0.07,1.09,-0.40,-0.12,0.53,
1.135,0.01,-0.08,1.09,-0.40,-0.12,0.53,
1.135,0.01,-0.08,1.09,-0.24,-0.19,0.68,
1.138,0.02,-0.08,1.11,-0.24,-0.19,0.68,
1.14,0.01,-0.07,1.11,-0.24,-0.19,0.68,
1.14,0.01,-0.07,1.11,-0.18,-0.25,0.62,
1.151,0.01,-0.08,1.11,-0.18,-0.25,0.62,
1.151,0.00,-0.07,1.11,-0.18,-0.25,0.62,
1.152,0.00,-0.07,1.11,-0.19,-0.26,0.77,
1.152,-0.01,-0.06,1.11,-0.19,-0.26,0.77,
1.152,-0.01,-0.06,1.12,-0.19,-0.26,0.77,
1.156,-0.01,-0.06,1.12,-0.27,-0.27,0.80,
1.156,-0.02,-0.06,1.11,-0.27,-0.27,0.80,
1.157,-0.03,-0.06,1.11,-0.27,-0.27,0.80,
1.157,-0.03,-0.06,1.11,-0.41,-0.18,0.82,
1.157,-0.03,-0.05,1.10,-0.41,-0.18,0.82,
1.165,-0.04,-0.05,1.09,-0.41,-0.18,0.82,
1.166,-0.04,-0.05,1.09,-0.54,-0.17,0.76,
1.167,-0.05,-0.04,1.08,-0.54,-0.17,0.76,
1.167,-0.05,-0.04,1.08,-0.68,-0.08,0.62,
1.167,-0.06,-0.04,1.07,-0.68,-0.08,0.62,
1.168,-0.07,-0.04,1.07,-0.68,-0.08,0.62,
1.17,-0.07,-0.03,1.06,-0.68,-0.08,0.62,
1.171,-0.07,-0.03,1.06,-0.80,-0.03,0.45,
1.175,-0.07,-0.03,1.04,-0.80,-0.03,0.45,
1.175,-0.08,-0.02,1.04,-0.80,-0.03,0.45,
1.176,-0.08,-0.02,1.04,-0.99,-0.02,0.31,
1.181,-0.08,-0.02,1.03,-0.99,-0.02,0.31,
1.182,-0.08,-0.03,1.03,-0.99,-0.02,0.31,
1.182,-0.08,-0.03,1.03,-1.01,0.06,0.07,
1.182,-0.06,-0.03,1.02,-1.01,0.06,0.07,
1.185,-0.06,-0.03,1.01,-1.01,0.06,0.07,
1.185,-0.06,-0.03,1.01,-1.03,0.03,-0.02,
1.187,-0.06,-0.03,1.01,-1.03,0.03,-0.02,
1.191,-0.06,-0.03,1.01,-0.90,-0.02,-0.16,
1.191,-0.05,-0.04,1.01,-0.90,-0.02,-0.16,
1.198,-0.05,-0.04,1.02,-0.90,-0.02,-0.16,
1.198,-0.04,-0.05,1.03,-0.90,-0.02,-0.16,
1.198,-0.04,-0.05,1.03,-0.80,-0.13,-0.18,
1.199,-0.04,-0.06,1.03,-0.80,-0.13,-0.18,
1.2,-0.04,-0.07,1.03,-0.80,-0.13,-0.18,
1.2,-0.04,-0.07,1.03,-0.73,-0.29,-0.10,
1.202,-0.03,-0.07,1.04,-0.73,-0.29,-0.10,
1.205,-0.03,-0.07,1.04,-0.73,-0.29,-0.10,
1.205,-0.03,-0.07,1.04,-0.65,-0.48,-0.02,
1.207,-0.01,-0.08,1.04,-0.65,-0.48,-0.02,
1.219,-0.00,-0.08,1.04,-0.65,-0.48,-0.02,
1.22,-0.00,-0.08,1.04,-0.57,-0.56,0.08,
1.22,0.01,-0.08,1.05,-0.57,-0.56,0.08,
1.22,0.01,-0.08,1.05,-0.38,-0.67,0.11,
1.221,0.01,-0.07,1.04,-0.38,-0.67,0.11,
1.221,0.02,-0.07,1.04,-0.38,-0.67,0.11,
1.221,0.03,-0.06,1.04,-0.38,-0.67,0.11,
1.221,0.03,-0.06,1.04,-0.20,-0.66,0.12,
1.222,0.03,-0.06,1.04,-0.20,-0.66,0.12,
1.224,0.03,-0.06,1.04,-0.20,-0.66,0.12,
1.225,0.03,-0.06,1.04,-0.07,-0.58,0.06,
1.232,0.03,-0.06,1.03,-0.07,-0.58,0.06,
1.233,0.03,-0.06,1.03,-0.07,-0.58,0.06,
1.233,0.03,-0.06,1.03,-0.00,-0.58,0.08,
1.233,0.03,-0.06,1.04,-0.00,-0.58,0.08,
1.234,0.03,-0.06,1.03,-0.00,-0.58,0.08,
1.235,0.03,-0.06,1.03,-0.01,-0.59,-0.04,
1.237,0.02,-0.06,1.03,-0.01,-0.59,-0.04,
1.24,0.02,-0.06,1.03,-0.05,-0.64,0.01,
1.24,0.02,-0.06,1.02,-0.05,-0.64,0.01,
1.242,0.02,-0.06,1.02,-0.05,-0.64,0.01,
1.252,0.02,-0.05,1.02,-0.05,-0.64,0.01,
1.253,0.02,-0.05,1.02,-0.13,-0.63,-0.08,
1.253,0.01,-0.04,1.01,-0.13,-0.63,-0.08,
1.254,-0.00,-0.05,1.01,-0.13,-0.63,-0.08,
1.254,-0.00,-0.05,1.01,-0.18,-0.61,-0.11,
1.254,-0.00,-0.04,1.00,-0.18,-0.61,-0.11,
1.254,-0.00,-0.03,0.99,-0.18,-0.61,-0.11,
1.255,-0.00,-0.03,0.99,-0.31,-0.57,-0.22,
1.257,-0.00,-0.03,0.98,-0.31,-0.57,-0.22,
1.267,0.00,-0.02,0.97,-0.31,-0.57,-0.22,
1.268,0.00,-0.02,0.97,-0.38,-0.51,-0.33,
1.268,0.00,-0.02,0.96,-0.38,-0.51,-0.33,
1.268,-0.00,-0.02,0.95,-0.38,-0.51,-0.33,
1.268,-0.00,-0.02,0.95,-0.35,-0.44,-0.53,
1.268,-0.00,-0.02,0.94,-0.35,-0.44,-0.53,
1.269,-0.01,-0.01,0.93,-0.35,-0.44,-0.53,
1.269,-0.01,-0.01,0.93,-0.36,-0.40,-0.77,
1.272,-0.01,-0.01,0.92,-0.36,-0.40,-0.77,
1.274,-0.01,-0.00,0.91,-0.36,-0.40,-0.77,
1.275,-0.01,-0.00,0.91,-0.42,-0.38,-0.91,
1.282,-0.02,0.00,0.90,-0.42,-0.38,-0.91,
1.283,-0.02,0.01,0.89,-0.42,-0.38,-0.91,
1.283,-0.02,0.01,0.89,-0.47,-0.31,-1.14,
1.283,-0.03,0.01,0.89,-0.47,-0.31,-1.14,
1.284,-0.03,0.01,0.89,-0.47,-0.31,-1.14,
1.284,-0.03,0.01,0.89,-0.53,-0.26,-1.30,
1.286,-0.04,0.02,0.88,-0.53,-0.26,-1.30,
1.288,-0.04,0.02,0.88,-0.64,-0.24,-1.35,
1.289,-0.05,0.02,0.88,-0.64,-0.24,-1.35,
1.291,-0.05,0.02,0.88,-0.64,-0.24,-1.35,
1.3,-0.05,0.02,0.87,-0.64,-0.24,-1.35,
1.301,-0.05,0.02,0.87,-0.76,-0.20,-1.45,
1.301,-0.05,0.02,0.88,-0.76,-0.20,-1.45,
1.301,-0.05,0.02,0.89,-0.76,-0.20,-1.45,
1.301,-0.05,0.02,0.89,-0.81,-0.22,-1.48,
1.302,-0.05,0.01,0.89,-0.81,-0.22,-1.48,
1.304,-0.05,0.01,0.89,-0.81,-0.22,-1.48,
1.304,-0.05,0.01,0.89,-0.79,-0.28,-1.43,
1.306,-0.04,0.01,0.90,-0.79,-0.28,-1.43,
1.319,-0.04,0.01,0.91,-0.79,-0.28,-1.43,
1.32,-0.04,0.01,0.91,-0.76,-0.35,-1.32,
1.32,-0.04,0.00,0.91,-0.76,-0.35,-1.32,
1.32,-0.04,0.00,0.91,-0.67,-0.44,-1.21,
1.321,-0.03,0.00,0.92,-0.67,-0.44,-1.21,
1.323,-0.03,0.00,0.92,-0.67,-0.44,-1.21,
1.323,-0.02,0.01,0.92,-0.67,-0.44,-1.21,
1.323,-0.02,0.01,0.92,-0.59,-0.52,-1.08,
1.324,-0.02,0.00,0.92,-0.59,-0.52,-1.08,
1.325,-0.01,0.00,0.94,-0.59,-0.52,-1.08,
1.325,-0.01,0.00,0.94,-0.50,-0.51,-1.03,
1.326,-0.01,0.00,0.93,-0.50,-0.51,-1.03,
1.338,-0.00,0.01,0.92,-0.50,-0.51,-1.03,
1.339,-0.00,0.01,0.92,-0.39,-0.53,-0.94,
1.34,0.00,0.01,0.92,-0.39,-0.53,-0.94,
1.34,0.00,0.01,0.92,-0.39,-0.53,-0.94,
1.34,0.00,0.01,0.92,-0.32,-0.54,-1.00,
1.341,-0.00,0.02,0.93,-0.32,-0.54,-1.00,
1.341,-0.01,0.01,0.93,-0.32,-0.54,-1.00,
1.341,-0.01,0.01,0.93,-0.24,-0.51,-1.02,
1.341,-0.00,0.02,0.92,-0.24,-0.51,-1.02,
1.353,-0.00,0.02,0.92,-0.24,-0.51,-1.02,
1.353,-0.00,0.02,0.92,-0.33,-0.49,-0.95,
1.354,-0.00,0.02,0.91,-0.33,-0.49,-0.95,
1.354,-0.01,0.03,0.91,-0.33,-0.49,-0.95,
1.354,-0.01,0.03,0.91,-0.31,-0.45,-1.05,
1.354,-0.01,0.02,0.91,-0.31,-0.45,-1.05,
1.355,-0.01,0.03,0.91,-0.31,-0.45,-1.05,
1.355,-0.01,0.03,0.91,-0.36,-0.45,-1.12,
1.355,-0.02,0.03,0.91,-0.36,-0.45,-1.12,
1.358,-0.02,0.03,0.90,-0.36,-0.45,-1.12,
1.358,-0.02,0.03,0.90,-0.39,-0.48,-1.11,
1.371,-0.03,0.03,0.89,-0.39,-0.48,-1.11,
1.372,-0.03,0.03,0.89,-0.48,-0.45,-1.14,
1.372,-0.03,0.04,0.88,-0.48,-0.45,-1.14,
1.372,-0.03,0.04,0.88,-0.48,-0.45,-1.14,
1.373,-0.04,0.04,0.87,-0.48,-0.45,-1.14,
1.373,-0.04,0.04,0.87,-0.60,-0.44,-1.33,
1.373,-0.05,0.04,0.87,-0.60,-0.44,-1.33,
1.373,-0.06,0.04,0.86,-0.60,-0.44,-1.33,
1.374,-0.06,0.04,0.86,-0.66,-0.40,-1.46,
1.375,-0.06,0.04,0.85,-0.66,-0.40,-1.46,
1.384,-0.07,0.05,0.85,-0.66,-0.40,-1.46,
1.385,-0.07,0.05,0.85,-0.84,-0.42,-1.53,
1.385,-0.07,0.05,0.84,-0.84,-0.42,-1.53,
1.386,-0.07,0.05,0.84,-0.84,-0.42,-1.53,
1.386,-0.07,0.05,0.84,-0.94,-0.41,-1.68,
1.386,-0.08,0.05,0.84,-0.94,-0.41,-1.68,
1.387,-0.08,0.05,0.84,-1.00,-0.42,-1.76,
1.388,-0.08,0.05,0.84,-1.00,-0.42,-1.76,
1.39,-0.08,0.04,0.84,-1.00,-0.42,-1.76,
1.4,-0.09,0.04,0.84,-1.00,-0.42,-1.76,
1.401,-0.09,0.04,0.84,-1.05,-0.44,-1.74,
1.401,-0.08,0.05,0.84,-1.05,-0.44,-1.74,
1.402,-0.08,0.04,0.84,-1.05,-0.44,-1.74,
1.402,-0.08,0.04,0.84,-1.10,-0.51,-1.70,
1.402,-0.08,0.05,0.84,-1.10,-0.51,-1.70,
1.402,-0.07,0.05,0.84,-1.10,-0.51,-1.70,
1.403,-0.07,0.05,0.84,-1.05,-0.53,-1.73,
1.404,-0.07,0.05,0.84,-1.05,-0.53,-1.73,
1.407,-0.07,0.04,0.85,-1.05,-0.53,-1.73,
1.407,-0.07,0.04,0.85,-0.99,-0.52,-1.70,
1.416,-0.06,0.04,0.84,-0.99,-0.52,-1.70,
1.417,-0.06,0.04,0.84,-0.90,-0.57,-1.67,
1.418,-0.05,0.04,0.84,-0.90,-0.57,-1.67,
1.418,-0.04,0.04,0.84,-0.90,-0.57,-1.67,
1.418,-0.03,0.04,0.84,-0.90,-0.57,-1.67,
1.418,-0.03,0.04,0.84,-0.79,-0.62,-1.69,
1.419,-0.02,0.05,0.84,-0.79,-0.62,-1.69,
1.423,-0.02,0.05,0.84,-0.79,-0.62,-1.69,
1.423,-0.02,0.05,0.84,-0.59,-0.64,-1.67,
1.424,-0.02,0.05,0.84,-0.59,-0.64,-1.67,
1.436,-0.01,0.06,0.83,-0.59,-0.64,-1.67,
1.437,-0.01,0.06,0.83,-0.45,-0.61,-1.68,
1.437,-0.01,0.06,0.83,-0.45,-0.61,-1.68,
1.437,-0.00,0.05,0.82,-0.45,-0.61,-1.68,
1.438,-0.00,0.05,0.82,-0.37,-0.57,-1.75,
1.438,0.00,0.05,0.82,-0.37,-0.57,-1.75,
1.438,0.00,0.05,0.82,-0.32,-0.57,-1.84,
1.438,0.00,0.05,0.82,-0.32,-0.57,-1.84,
1.44,0.00,0.05,0.82,-0.32,-0.57,-1.84,
1.442,0.00,0.05,0.82,-0.24,-0.64,-1.90,
1.455,0.01,0.05,0.81,-0.24,-0.64,-1.90,
1.456,0.01,0.06,0.82,-0.24,-0.64,-1.90,
1.456,0.01,0.06,0.82,-0.24,-0.64,-1.90,
1.456,0.01,0.06,0.82,-0.20,-0.64,-1.89,
1.457,0.02,0.06,0.82,-0.20,-0.64,-1.89,
1.457,0.02,0.06,0.82,-0.14,-0.62,-1.86,
1.457,0.02,0.07,0.82,-0.14,-0.62,-1.86,
1.457,0.03,0.07,0.81,-0.14,-0.62,-1.86,
1.458,0.03,0.07,0.81,-0.03,-0.56,-1.85,
1.458,0.03,0.08,0.82,-0.03,-0.56,-1.85,
1.47,0.04,0.08,0.81,-0.03,-0.56,-1.85,
1.47,0.03,0.08,0.82,-0.03,-0.56,-1.85,
1.47,0.03,0.08,0.82,0.01,-0.48,-1.89,
1.471,0.03,0.07,0.82,0.01,-0.48,-1.89,
1.471,0.03,0.08,0.82,0.01,-0.48,-1.89,
1.471,0.03,0.08,0.82,0.08,-0.49,-1.88,
1.471,0.03,0.08,0.82,0.08,-0.49,-1.88,
1.472,0.03,0.08,0.82,0.03,-0.53,-1.82,
1.473,0.03,0.08,0.82,0.03,-0.53,-1.82,
1.475,0.03,0.08,0.81,0.03,-0.53,-1.82,
1.487,0.03,0.09,0.81,0.03,-0.53,-1.82,
1.487,0.03,0.09,0.81,0.04,-0.51,-1.83,
1.488,0.03,0.09,0.81,0.04,-0.51,-1.83,
1.491,0.02,0.10,0.81,0.04,-0.51,-1.83,
1.491,0.02,0.10,0.81,0.03,-0.46,-1.90,
1.491,0.02,0.10,0.81,0.03,-0.46,-1.90,
1.491,0.02,0.10,0.81,-0.02,-0.39,-1.91,
1.492,0.01,0.10,0.81,-0.02,-0.39,-1.91,
1.492,0.01,0.10,0.80,-0.02,-0.39,-1.91,
1.492,0.01,0.10,0.80,-0.07,-0.34,-1.92,
1.492,0.00,0.10,0.80,-0.07,-0.34,-1.92,
1.5,0.00,0.10,0.80,-0.07,-0.34,-1.92,
1.5,0.01,0.10,0.80,-0.07,-0.34,-1.92,
1.501,0.01,0.10,0.80,-0.17,-0.34,-1.95,
1.501,0.00,0.10,0.80,-0.17,-0.34,-1.95,
1.502,-0.00,0.11,0.80,-0.17,-0.34,-1.95,
1.502,-0.00,0.11,0.80,-0.20,-0.34,-1.96,
1.504,-0.00,0.11,0.80,-0.20,-0.34,-1.96,
1.507,-0.00,0.11,0.80,-0.23,-0.34,-1.95,
1.507,-0.01,0.10,0.80,-0.23,-0.34,-1.95,
1.509,-0.01,0.11,0.79,-0.23,-0.34,-1.95,
1.516,-0.01,0.11,0.79,-0.29,-0.34,-1.99,
1.516,-0.02,0.10,0.80,-0.29,-0.34,-1.99,
1.517,-0.02,0.10,0.80,-0.29,-0.34,-1.99,
1.517,-0.02,0.10,0.80,-0.29,-0.34,-1.99,
1.517,-0.02,0.10,0.80,-0.36,-0.35,-1.99,
1.519,-0.03,0.10,0.81,-0.36,-0.35,-1.99,
1.521,-0.02,0.10,0.81,-0.36,-0.35,-1.99,
1.521,-0.02,0.10,0.81,-0.42,-0.39,-1.95,
1.524,-0.02,0.10,0.81,-0.42,-0.39,-1.95,
1.527,-0.02,0.10,0.81,-0.42,-0.39,-1.95,
1.527,-0.02,0.10,0.81,-0.47,-0.46,-1.86,
1.531,-0.02,0.11,0.83,-0.47,-0.46,-1.86,
1.532,-0.02,0.11,0.84,-0.47,-0.46,-1.86,
1.532,-0.02,0.11,0.84,-0.40,-0.43,-1.81,
1.534,-0.02,0.11,0.84,-0.40,-0.43,-1.81,
1.537,-0.02,0.11,0.84,-0.39,-0.38,-1.63,
1.537,-0.01,0.12,0.85,-0.39,-0.38,-1.63,
1.539,-0.01,0.12,0.86,-0.39,-0.38,-1.63,
1.542,-0.01,0.13,0.87,-0.39,-0.38,-1.63,
1.542,-0.01,0.13,0.87,-0.33,-0.31,-1.47,
1.556,-0.00,0.13,0.88,-0.33,-0.31,-1.47,
1.557,-0.00,0.13,0.88,-0.33,-0.31,-1.47,
1.557,-0.00,0.13,0.88,-0.26,-0.22,-1.29,
1.557,-0.00,0.12,0.89,-0.26,-0.22,-1.29,
1.557,0.00,0.13,0.89,-0.26,-0.22,-1.29,
1.558,0.00,0.13,0.89,-0.21,-0.17,-1.13,
1.558,0.00,0.13,0.90,-0.21,-0.17,-1.13,
1.558,-0.00,0.13,0.91,-0.21,-0.17,-1.13,
1.558,-0.00,0.13,0.91,-0.18,-0.21,-1.03,
1.558,0.00,0.12,0.91,-0.18,-0.21,-1.03,
1.568,0.00,0.12,0.91,-0.17,-0.20,-0.88,
1.568,-0.00,0.12,0.91,-0.17,-0.20,-0.88,
1.569,-0.00,0.13,0.92,-0.17,-0.20,-0.88,
1.569,-0.00,0.13,0.92,-0.18,-0.23,-0.79,
1.569,-0.00,0.13,0.92,-0.18,-0.23,-0.79,
1.569,-0.01,0.13,0.92,-0.18,-0.23,-0.79,
1.571,-0.02,0.13,0.92,-0.18,-0.23,-0.79,
1.572,-0.02,0.13,0.92,-0.21,-0.19,-0.72,
1.574,-0.03,0.13,0.93,-0.21,-0.19,-0.72,
1.576,-0.02,0.13,0.93,-0.21,-0.19,-0.72,
1.577,-0.02,0.13,0.93,-0.30,-0.18,-0.74,
1.587,-0.03,0.14,0.93,-0.30,-0.18,-0.74,
1.588,-0.03,0.14,0.93,-0.30,-0.18,-0.74,
1.588,-0.03,0.14,0.93,-0.42,-0.17,-0.66,
1.588,-0.03,0.14,0.93,-0.42,-0.17,-0.66,
1.588,-0.03,0.14,0.93,-0.46,-0.11,-0.66,
1.589,-0.04,0.14,0.93,-0.46,-0.11,-0.66,
1.589,-0.04,0.14,0.94,-0.46,-0.11,-0.66,
1.591,-0.04,0.14,0.94,-0.46,-0.11,-0.66,
1.592,-0.04,0.14,0.94,-0.50,-0.11,-0.60,
1.593,-0.03,0.14,0.94,-0.50,-0.11,-0.60,
1.6,-0.03,0.14,0.95,-0.50,-0.11,-0.60,
1.601,-0.03,0.14,0.95,-0.52,-0.08,-0.53,
1.601,-0.03,0.14,0.96,-0.52,-0.08,-0.53,
1.601,-0.03,0.14,0.96,-0.48,-0.10,-0.46,
1.602,-0.02,0.15,0.96,-0.48,-0.10,-0.46,
1.604,-0.02,0.14,0.97,-0.48,-0.10,-0.46,
1.606,-0.02,0.15,0.98,-0.48,-0.10,-0.46,
1.606,-0.02,0.15,0.98,-0.42,-0.04,-0.33,
1.608,-0.02,0.15,0.97,-0.42,-0.04,-0.33,
1.611,-0.02,0.15,0.97,-0.38,-0.05,-0.21,
1.611,-0.02,0.15,0.97,-0.38,-0.05,-0.21,
1.616,-0.02,0.15,0.97,-0.38,-0.05,-0.21,
1.617,-0.02,0.15,0.96,-0.38,-0.05,-0.21,
1.617,-0.02,0.15,0.96,-0.36,-0.01,-0.20,
1.618,-0.02,0.16,0.96,-0.36,-0.01,-0.20,
1.621,-0.02,0.15,0.95,-0.36,-0.01,-0.20,
1.621,-0.02,0.15,0.95,-0.37,0.02,-0.28,
1.623,-0.03,0.16,0.94,-0.37,0.02,-0.28,
1.626,-0.03,0.16,0.94,-0.37,0.02,-0.28,
1.626,-0.03,0.16,0.94,-0.37,0.04,-0.39,
1.634,-0.03,0.16,0.94,-0.37,0.04,-0.39,
1.634,-0.02,0.17,0.94,-0.37,0.04,-0.39,
1.635,-0.02,0.17,0.94,-0.42,0.07,-0.47,
1.635,-0.02,0.17,0.94,-0.42,0.07,-0.47,
1.635,-0.02,0.17,0.94,-0.40,0.10,-0.51,
1.635,-0.02,0.18,0.93,-0.40,0.10,-0.51,
1.638,-0.02,0.18,0.93,-0.40,0.10,-0.51,
1.641,-0.02,0.18,0.93,-0.40,0.10,-0.51,
1.641,-0.02,0.18,0.93,-0.36,0.18,-0.56,
1.643,-0.02,0.19,0.93,-0.36,0.18,-0.56,
1.649,-0.02,0.19,0.93,-0.36,0.18,-0.56,
1.651,-0.02,0.19,0.93,-0.36,0.24,-0.60,
1.652,-0.03,0.18,0.92,-0.36,0.24,-0.60,
1.652,-0.02,0.18,0.92,-0.36,0.24,-0.60,
1.652,-0.02,0.18,0.92,-0.32,0.30,-0.64,
1.652,-0.02,0.18,0.92,-0.32,0.30,-0.64,
1.655,-0.02,0.17,0.92,-0.32,0.30,-0.64,
1.655,-0.02,0.17,0.92,-0.37,0.23,-0.68,
1.657,-0.01,0.16,0.92,-0.37,0.23,-0.68,
1.661,-0.01,0.16,0.92,-0.35,0.16,-0.68,
1.661,-0.01,0.16,0.92,-0.35,0.16,-0.68,
1.672,-0.01,0.16,0.92,-0.35,0.16,-0.68,
1.672,-0.00,0.16,0.92,-0.35,0.16,-0.68,
1.673,-0.00,0.16,0.92,-0.22,0.05,-0.72,
1.673,0.00,0.16,0.92,-0.22,0.05,-0.72,
1.673,0.00,0.16,0.92,-0.22,0.05,-0.72,
1.674,0.00,0.16,0.92,-0.16,0.01,-0.69,
1.674,0.00,0.16,0.92,-0.16,0.01,-0.69,
1.675,0.00,0.16,0.92,-0.16,0.01,-0.69,
1.675,0.00,0.16,0.92,-0.09,0.02,-0.68,
1.677,-0.00,0.16,0.93,-0.09,0.02,-0.68,
1.685,0.00,0.16,0.94,-0.09,0.02,-0.68,
1.686,0.00,0.16,0.94,-0.12,0.02,-0.64,
1.686,-0.00,0.16,0.93,-0.12,0.02,-0.64,
1.687,-0.00,0.16,0.93,-0.13,0.04,-0.56,
1.687,0.00,0.16,0.94,-0.13,0.04,-0.56,
1.687,0.00,0.17,0.95,-0.13,0.04,-0.56,
1.69,-0.00,0.17,0.95,-0.13,0.04,-0.56,
1.691,-0.00,0.17,0.95,-0.13,0.06,-0.50,
1.692,0.00,0.18,0.95,-0.13,0.06,-0.50,
1.702,0.00,0.18,0.96,-0.13,0.06,-0.50,
1.703,0.00,0.18,0.96,-0.14,0.15,-0.41,
1.703,0.00,0.18,0.96,-0.14,0.15,-0.41,
1.703,0.00,0.18,0.96,-0.14,0.15,-0.41,
1.703,0.00,0.18,0.96,-0.13,0.22,-0.35,
1.704,0.01,0.19,0.96,-0.13,0.22,-0.35,
1.704,0.00,0.19,0.97,-0.13,0.22,-0.35,
1.705,0.00,0.19,0.97,-0.11,0.26,-0.31,
1.706,0.01,0.18,0.97,-0.11,0.26,-0.31,
1.709,0.01,0.18,0.97,-0.11,0.26,-0.31,
1.709,0.01,0.18,0.97,-0.07,0.29,-0.24,
1.716,0.01,0.18,0.96,-0.07,0.29,-0.24,
1.717,0.01,0.18,0.96,-0.07,0.29,-0.24,
1.717,0.01,0.18,0.96,-0.06,0.26,-0.22,
1.717,0.00,0.18,0.96,-0.06,0.26,-0.22,
1.719,0.00,0.18,0.96,-0.06,0.26,-0.22,
1.719,0.00,0.18,0.96,-0.06,0.25,-0.27,
1.721,-0.01,0.18,0.96,-0.06,0.25,-0.27,
1.724,-0.01,0.17,0.95,-0.06,0.25,-0.27,
1.724,-0.01,0.17,0.95,-0.10,0.23,-0.30,
1.727,-0.01,0.17,0.95,-0.10,0.23,-0.30,
1.732,-0.02,0.16,0.94,-0.10,0.23,-0.30,
1.732,-0.02,0.16,0.94,-0.18,0.18,-0.35,
1.732,-0.02,0.17,0.94,-0.18,0.18,-0.35,
1.734,-0.02,0.17,0.94,-0.26,0.09,-0.42,
1.734,-0.01,0.16,0.94,-0.26,0.09,-0.42,
1.736,-0.01,0.17,0.94,-0.26,0.09,-0.42,
1.739,-0.01,0.17,0.94,-0.26,0.07,-0.51,
1.739,-0.01,0.17,0.94,-0.26,0.07,-0.51,
1.741,-0.01,0.17,0.93,-0.26,0.07,-0.51,
1.749,-0.01,0.17,0.94,-0.26,0.07,-0.51,
1.749,-0.01,0.17,0.94,-0.21,0.10,-0.50,
1.75,-0.01,0.18,0.94,-0.21,0.10,-0.50,
1.75,-0.01,0.17,0.94,-0.21,0.10,-0.50,
1.75,-0.01,0.17,0.94,-0.22,0.10,-0.54,
1.751,-0.01,0.17,0.95,-0.22,0.10,-0.54,
1.754,-0.00,0.18,0.95,-0.22,0.10,-0.54,
1.754,-0.00,0.18,0.95,-0.19,0.15,-0.47,
1.756,0.00,0.18,0.95,-0.19,0.15,-0.47,
1.759,0.00,0.18,0.95,-0.13,0.16,-0.39,
1.759,0.00,0.17,0.96,-0.13,0.16,-0.39,
1.761,0.00,0.17,0.97,-0.13,0.16,-0.39,
1.772,0.00,0.17,0.97,-0.13,0.16,-0.39,
1.773,0.00,0.17,0.97,-0.07,0.18,-0.32,
1.773,0.00,0.17,0.98,-0.07,0.18,-0.32,
1.773,0.00,0.17,0.98,-0.07,0.18,-0.32,
1.774,0.00,0.17,0.98,-0.07,0.15,-0.20,
1.774,-0.00,0.17,0.98,-0.07,0.15,-0.20,
1.774,-0.01,0.17,0.99,-0.07,0.15,-0.20,
1.774,-0.01,0.17,0.99,-0.08,0.14,-0.12,
1.776,-0.01,0.17,1.00,-0.08,0.14,-0.12,
1.785,-0.01,0.16,1.00,-0.08,0.14,-0.12,
1.785,-0.01,0.16,1.00,-0.14,0.13,-0.01,
1.786,-0.01,0.16,1.01,-0.14,0.13,-0.01,
1.786,-0.01,0.16,1.01,-0.17,0.09,0.12,
1.786,-0.01,0.16,1.01,-0.17,0.09,0.12,
1.786,-0.01,0.16,1.02,-0.17,0.09,0.12,
1.788,-0.01,0.16,1.03,-0.17,0.09,0.12,
1.789,-0.01,0.16,1.03,-0.22,0.10,0.20,
1.791,-0.01,0.17,1.03,-0.22,0.10,0.20,
1.802,-0.01,0.17,1.03,-0.22,0.10,0.20,
1.803,-0.01,0.17,1.03,-0.21,0.10,0.33,
1.804,-0.01,0.16,1.04,-0.21,0.10,0.33,
1.804,-0.01,0.16,1.04,-0.21,0.10,0.33,
1.804,-0.01,0.16,1.04,-0.19,0.12,0.39,
1.804,-0.01,0.16,1.05,-0.19,0.12,0.39,
1.804,-0.01,0.16,1.05,-0.19,0.12,0.39,
1.805,-0.01,0.16,1.05,-0.17,0.08,0.51,
1.805,-0.00,0.16,1.06,-0.17,0.08,0.51,
1.808,-0.00,0.16,1.06,-0.15,0.07,0.57,
1.808,-0.00,0.16,1.06,-0.15,0.07,0.57,
1.812,-0.00,0.16,1.06,-0.15,0.07,0.57,
1.819,-0.00,0.16,1.06,-0.15,0.07,0.57,
1.82,-0.00,0.16,1.06,-0.11,0.06,0.66,
1.821,-0.00,0.16,1.06,-0.11,0.06,0.66,
1.821,-0.00,0.16,1.06,-0.11,0.06,0.66,
1.821,-0.00,0.16,1.06,-0.09,0.06,0.70,
1.822,0.00,0.16,1.05,-0.09,0.06,0.70,
1.824,0.00,0.16,1.05,-0.09,0.06,0.70,
1.824,0.00,0.16,1.05,-0.09,0.06,0.64,
1.826,0.00,0.16,1.05,-0.09,0.06,0.64,
1.834,0.00,0.16,1.04,-0.09,0.06,0.64,
1.835,0.00,0.16,1.04,-0.05,0.05,0.59,
1.836,-0.00,0.15,1.04,-0.05,0.05,0.59,
1.836,-0.00,0.15,1.03,-0.05,0.05,0.59,
1.836,-0.00,0.15,1.03,-0.03,0.05,0.51,
1.837,-0.00,0.15,1.03,-0.03,0.05,0.51,
1.838,-0.01,0.15,1.02,-0.03,0.05,0.51,
1.839,-0.01,0.15,1.02,-0.08,-0.00,0.43,
1.841,-0.00,0.15,1.02,-0.08,-0.00,0.43,
1.844,-0.01,0.15,1.01,-0.08,-0.00,0.43,
1.844,-0.01,0.15,1.01,-0.11,-0.03,0.34,
1.852,-0.01,0.14,1.01,-0.11,-0.03,0.34,
1.852,-0.01,0.14,1.00,-0.11,-0.03,0.34,
1.852,-0.01,0.14,1.00,-0.10,-0.07,0.22,
1.852,-0.01,0.14,1.00,-0.10,-0.07,0.22,
1.853,-0.01,0.14,0.99,-0.10,-0.07,0.22,
1.854,-0.01,0.14,0.99,-0.15,-0.14,0.11,
1.856,-0.01,0.15,0.99,-0.15,-0.14,0.11,
1.858,-0.01,0.15,0.99,-0.17,-0.17,0.05,
1.859,-0.01,0.15,0.99,-0.17,-0.17,0.05,
1.861,-0.01,0.16,0.99,-0.17,-0.17,0.05,
1.867,-0.01,0.17,0.98,-0.17,-0.17,0.05,
1.868,-0.01,0.17,0.98,-0.15,-0.11,-0.01,
1.868,-0.01,0.17,0.97,-0.15,-0.11,-0.01,
1.868,-0.01,0.17,0.97,-0.12,0.02,-0.07,
1.869,-0.01,0.17,0.96,-0.12,0.02,-0.07,
1.871,-0.02,0.17,0.96,-0.12,0.02,-0.07,
1.873,-0.02,0.17,0.96,-0.12,0.02,-0.07,
1.874,-0.02,0.17,0.96,-0.15,0.07,-0.23,
1.876,-0.02,0.17,0.95,-0.15,0.07,-0.23,
1.889,-0.02,0.17,0.96,-0.15,0.07,-0.23,
1.889,-0.02,0.17,0.96,-0.21,0.07,-0.32,
1.89,-0.01,0.17,0.96,-0.21,0.07,-0.32,
1.89,-0.01,0.17,0.96,-0.20,0.09,-0.33,
1.89,-0.02,0.17,0.95,-0.20,0.09,-0.33,
1.89,-0.01,0.18,0.95,-0.20,0.09,-0.33,
1.891,-0.01,0.18,0.95,-0.20,0.09,-0.33,
1.891,-0.01,0.18,0.95,-0.20,0.07,-0.36,
1.891,-0.01,0.18,0.95,-0.20,0.07,-0.36,
1.893,-0.01,0.18,0.96,-0.20,0.07,-0.36,
1.894,-0.01,0.18,0.96,-0.17,0.12,-0.38,
1.895,-0.01,0.18,0.96,-0.17,0.12,-0.38,
1.904,-0.01,0.17,0.97,-0.17,0.12,-0.38,
1.905,-0.01,0.17,0.97,-0.17,0.13,-0.35,
1.905,-0.01,0.17,0.94,-0.17,0.13,-0.35,
1.905,-0.00,0.18,0.90,-0.17,0.13,-0.35,
1.905,-0.00,0.18,0.90,-0.15,0.11,-0.23,
1.906,-0.01,0.18,0.87,-0.15,0.11,-0.23,
1.909,-0.01,0.18,0.87,-0.09,0.09,-0.66,
1.909,-0.01,0.18,0.89,-0.09,0.09,-0.66,
1.909,-0.01,0.18,0.92,-0.09,0.09,-0.66,
1.921,-0.01,0.17,0.96,-0.09,0.09,-0.66,
1.921,-0.01,0.17,0.96,-0.12,0.16,-1.06,
1.921,-0.01,0.16,0.99,-0.12,0.16,-1.06,
1.922,-0.02,0.15,1.01,-0.12,0.16,-1.06,
1.922,-0.02,0.15,1.01,-0.14,0.07,-0.48,
1.922,-0.03,0.15,1.03,-0.14,0.07,-0.48,
1.924,-0.02,0.14,1.03,-0.14,0.07,-0.48,
1.924,-0.02,0.14,1.03,-0.18,-0.09,0.11,
1.925,-0.01,0.14,1.04,-0.18,-0.09,0.11,
1.928,0.00,0.15,1.03,-0.18,-0.09,0.11,
1.928,0.00,0.15,1.03,-0.23,-0.16,0.39,
1.934,0.02,0.15,1.03,-0.23,-0.16,0.39,
1.934,0.02,0.14,1.03,-0.23,-0.16,0.39,
1.934,0.02,0.14,1.03,-0.04,-0.19,0.44,
1.935,0.03,0.14,1.04,-0.04,-0.19,0.44,
1.937,0.04,0.14,1.03,-0.04,-0.19,0.44,
1.937,0.04,0.14,1.03,0.18,-0.16,0.37,
1.939,0.03,0.14,1.04,0.18,-0.16,0.37,
1.943,0.03,0.14,1.06,0.18,-0.16,0.37,
1.943,0.03,0.14,1.06,0.32,-0.20,0.45,
1.945,0.03,0.14,1.06,0.32,-0.20,0.45,
1.951,0.03,0.14,1.06,0.32,-0.20,0.45,
1.951,0.03,0.14,1.06,0.30,-0.21,0.57,
1.951,0.03,0.14,1.07,0.30,-0.21,0.57,
1.968,0.03,0.14,1.06,0.30,-0.21,0.57,
1.968,0.03,0.14,1.06,0.24,-0.25,0.70,
1.969,0.02,0.14,1.06,0.24,-0.25,0.70,
1.969,0.02,0.14,1.06,0.26,-0.22,0.74,
1.969,0.02,0.15,1.05,0.26,-0.22,0.74,
1.969,0.02,0.15,1.05,0.26,-0.22,0.74,
1.969,0.02,0.15,1.04,0.26,-0.22,0.74,
1.97,0.02,0.15,1.04,0.18,-0.17,0.64,
1.97,0.01,0.16,1.04,0.18,-0.17,0.64,
1.97,0.01,0.16,1.04,0.14,-0.12,0.55,
1.97,0.01,0.17,1.02,0.14,-0.12,0.55,
1.971,0.01,0.17,1.01,0.14,-0.12,0.55,
1.985,0.01,0.17,1.01,0.14,-0.12,0.55,
1.986,0.01,0.17,1.01,0.08,-0.02,0.38,
1.986,0.01,0.18,1.00,0.08,-0.02,0.38,
1.988,0.01,0.19,0.98,0.08,-0.02,0.38,
1.989,0.01,0.19,0.98,0.10,0.04,0.16,
1.989,0.01,0.19,0.98,0.10,0.04,0.16,
1.989,0.01,0.19,0.98,0.06,0.17,-0.01,
1.989,-0.00,0.19,0.97,0.06,0.17,-0.01,
1.99,-0.01,0.19,0.96,0.06,0.17,-0.01,
1.99,-0.01,0.20,0.95,0.06,0.17,-0.01,
1.99,-0.01,0.20,0.95,0.02,0.19,-0.17,
1.99,-0.01,0.20,0.95,0.02,0.19,-0.17,
2.006,-0.02,0.20,0.95,0.02,0.19,-0.17,
2.007,-0.02,0.20,0.95,-0.09,0.23,-0.35,
2.007,-0.02,0.21,0.94,-0.09,0.23,-0.35,
2.008,-0.02,0.21,0.94,-0.09,0.23,-0.35,
2.008,-0.02,0.21,0.94,-0.14,0.26,-0.38,
2.008,-0.02,0.21,0.92,-0.14,0.26,-0.38,
2.008,-0.01,0.22,0.91,-0.14,0.26,-0.38,
2.008,-0.01,0.22,0.91,-0.16,0.30,-0.52,
2.009,-0.02,0.22,0.91,-0.16,0.30,-0.52,
2.009,-0.02,0.22,0.91,-0.11,0.39,-0.72,
2.009,-0.02,0.23,0.91,-0.11,0.39,-0.72,
2.009,-0.02,0.23,0.90,-0.11,0.39,-0.72,
