
time,gFx,gFy,gFz,ax,ay,az,
0.004,-0.03,0.05,0.98,0.14,0.15,0.31,
0.004,-0.03,0.05,0.98,0.19,0.24,-0.02,
0.004,-0.03,0.05,0.97,0.19,0.24,-0.02,
0.005,-0.03,0.05,0.96,0.19,0.24,-0.02,
0.005,-0.03,0.05,0.96,0.15,0.25,-0.20,
0.005,-0.04,0.05,0.97,0.15,0.25,-0.20,
0.005,-0.03,0.05,0.96,0.15,0.25,-0.20,
0.006,-0.03,0.05,0.96,0.06,0.21,-0.31,
0.006,-0.04,0.06,0.96,0.06,0.21,-0.31,
0.011,-0.04,0.06,0.97,0.06,0.21,-0.31,
0.011,-0.04,0.06,0.97,0.01,0.20,-0.30,
0.011,-0.03,0.05,0.96,0.01,0.20,-0.30,
0.013,-0.03,0.05,0.96,0.01,0.20,-0.30,
0.013,-0.03,0.05,0.96,0.00,0.22,-0.33,
0.016,-0.03,0.05,0.97,0.00,0.22,-0.33,
0.018,-0.03,0.05,0.97,0.00,0.22,-0.33,
0.019,-0.03,0.05,0.97,0.04,0.19,-0.36,
0.021,-0.03,0.05,0.98,0.04,0.19,-0.36,
0.024,-0.03,0.05,0.98,0.04,0.19,-0.36,
0.024,-0.03,0.05,0.98,0.02,0.18,-0.25,
0.029,-0.03,0.05,0.98,0.02,0.18,-0.25,
0.03,-0.03,0.05,0.99,0.02,0.18,-0.25,
0.03,-0.03,0.05,0.99,0.05,0.18,-0.18,
0.03,-0.03,0.04,0.99,0.05,0.18,-0.18,
0.033,-0.03,0.04,0.99,0.05,0.18,-0.18,
0.034,-0.03,0.04,0.99,0.03,0.15,-0.13,
0.036,-0.03,0.04,0.99,0.03,0.15,-0.13,
0.038,-0.03,0.04,0.99,0.03,0.15,-0.13,
0.039,-0.03,0.04,0.99,0.01,0.05,-0.06,
0.041,-0.04,0.04,0.99,0.01,0.05,-0.06,
0.044,-0.04,0.04,0.99,0.01,0.05,-0.06,
0.045,-0.04,0.04,0.99,0.01,0.05,-0.09,
0.045,-0.04,0.04,0.99,0.01,0.05,-0.09,
0.048,-0.04,0.04,0.99,0.01,0.05,-0.09,
0.048,-0.04,0.04,0.99,-0.03,0.02,-0.06,
0.051,-0.04,0.04,0.98,-0.03,0.02,-0.06,
0.053,-0.05,0.04,0.98,-0.03,0.02,-0.06,
0.054,-0.05,0.04,0.98,-0.06,0.01,-0.12,
0.056,-0.05,0.04,0.97,-0.06,0.01,-0.12,
0.058,-0.05,0.04,0.97,-0.06,0.01,-0.12,
0.058,-0.05,0.04,0.97,-0.09,0.02,-0.18,
0.064,-0.05,0.04,0.97,-0.09,0.02,-0.18,
0.065,-0.05,0.04,0.96,-0.09,0.02,-0.18,
0.065,-0.05,0.04,0.96,-0.10,0.04,-0.24,
0.065,-0.05,0.04,0.96,-0.10,0.04,-0.24,
0.068,-0.05,0.04,0.96,-0.10,0.04,-0.24,
0.068,-0.05,0.04,0.96,-0.12,0.06,-0.30,
0.07,-0.05,0.05,0.95,-0.12,0.06,-0.30,
0.073,-0.05,0.05,0.95,-0.12,0.06,-0.30,
0.073,-0.05,0.05,0.95,-0.14,0.05,-0.33,
0.076,-0.06,0.05,0.95,-0.14,0.05,-0.33,
0.078,-0.06,0.05,0.95,-0.14,0.05,-0.33,
0.079,-0.06,0.05,0.95,-0.16,0.10,-0.42,
0.08,-0.07,0.05,0.95,-0.16,0.10,-0.42,
0.083,-0.07,0.05,0.94,-0.16,0.10,-0.42,
0.083,-0.07,0.05,0.94,-0.23,0.11,-0.44,
0.085,-0.08,0.05,0.95,-0.23,0.11,-0.44,
0.088,-0.08,0.05,0.94,-0.23,0.11,-0.44,
0.088,-0.08,0.05,0.94,-0.31,0.13,-0.49,
0.091,-0.08,0.05,0.94,-0.31,0.13,-0.49,
0.093,-0.08,0.05,0.95,-0.31,0.13,-0.49,
0.094,-0.08,0.05,0.95,-0.39,0.13,-0.52,
0.095,-0.08,0.05,0.94,-0.39,0.13,-0.52,
0.097,-0.08,0.05,0.94,-0.39,0.13,-0.52,
0.098,-0.08,0.05,0.94,-0.44,0.14,-0.47,
0.1,-0.08,0.06,0.94,-0.44,0.14,-0.47,
0.103,-0.08,0.06,0.94,-0.44,0.14,-0.47,
0.104,-0.08,0.06,0.94,-0.41,0.13,-0.53,
0.105,-0.08,0.06,0.94,-0.41,0.13,-0.53,
0.108,-0.08,0.06,0.93,-0.41,0.13,-0.53,
0.108,-0.08,0.06,0.93,-0.39,0.19,-0.53,
0.111,-0.07,0.06,0.93,-0.39,0.19,-0.53,
0.113,-0.07,0.06,0.93,-0.39,0.19,-0.53,
0.113,-0.07,0.06,0.93,-0.37,0.20,-0.57,
0.115,-0.07,0.06,0.93,-0.37,0.20,-0.57,
0.117,-0.07,0.06,0.93,-0.37,0.20,-0.57,
0.118,-0.07,0.06,0.93,-0.32,0.19,-0.61,
0.12,-0.07,0.05,0.93,-0.32,0.19,-0.61,
0.123,-0.06,0.06,0.93,-0.32,0.19,-0.61,
0.124,-0.06,0.06,0.93,-0.31,0.16,-0.62,
0.126,-0.05,0.06,0.92,-0.31,0.16,-0.62,
0.128,-0.05,0.06,0.92,-0.31,0.16,-0.62,
0.128,-0.05,0.06,0.92,-0.23,0.15,-0.60,
0.13,-0.05,0.07,0.92,-0.23,0.15,-0.60,
0.132,-0.04,0.06,0.92,-0.23,0.15,-0.60,
0.132,-0.04,0.06,0.92,-0.12,0.17,-0.68,
0.135,-0.04,0.06,0.91,-0.12,0.17,-0.68,
0.138,-0.04,0.06,0.91,-0.12,0.17,-0.68,
0.138,-0.04,0.06,0.91,-0.07,0.21,-0.70,
0.14,-0.03,0.06,0.90,-0.07,0.21,-0.70,
0.143,-0.03,0.06,0.90,-0.07,0.21,-0.70,
0.144,-0.03,0.06,0.90,0.01,0.17,-0.81,
0.144,-0.02,0.06,0.90,0.01,0.17,-0.81,
0.147,-0.02,0.06,0.89,0.01,0.17,-0.81,
0.148,-0.02,0.06,0.89,0.07,0.16,-0.85,
0.149,-0.01,0.06,0.89,0.07,0.16,-0.85,
0.153,-0.02,0.05,0.89,0.07,0.16,-0.85,
0.153,-0.02,0.05,0.89,0.19,0.11,-0.92,
0.155,-0.02,0.05,0.89,0.19,0.11,-0.92,
0.157,-0.02,0.05,0.88,0.19,0.11,-0.92,
0.16,-0.02,0.05,0.88,0.25,0.08,-0.94,
0.161,-0.02,0.05,0.88,0.25,0.08,-0.94,
0.164,-0.02,0.05,0.88,0.25,0.08,-0.94,
0.165,-0.02,0.05,0.88,0.21,0.05,-0.97,
0.165,-0.02,0.04,0.88,0.21,0.05,-0.97,
0.167,-0.02,0.03,0.87,0.21,0.05,-0.97,
0.167,-0.02,0.03,0.87,0.24,-0.02,-1.06,
0.169,-0.02,0.03,0.87,0.24,-0.02,-1.06,
0.171,-0.02,0.03,0.87,0.24,-0.02,-1.06,
0.172,-0.02,0.03,0.87,0.19,-0.13,-1.08,
0.173,-0.02,0.02,0.86,0.19,-0.13,-1.08,
0.18,-0.03,0.02,0.86,0.19,-0.13,-1.08,
0.181,-0.03,0.02,0.86,0.18,-0.21,-1.13,
0.181,-0.03,0.02,0.86,0.18,-0.21,-1.13,
0.182,-0.03,0.01,0.85,0.18,-0.21,-1.13,
0.182,-0.03,0.01,0.85,0.15,-0.28,-1.19,
0.183,-0.04,0.01,0.85,0.15,-0.28,-1.19,
0.186,-0.03,0.01,0.84,0.15,-0.28,-1.19,
0.187,-0.03,0.01,0.84,0.09,-0.37,-1.27,
0.19,-0.03,0.01,0.83,0.09,-0.37,-1.27,
0.193,-0.02,0.00,0.82,0.09,-0.37,-1.27,
0.194,-0.02,0.00,0.82,0.06,-0.43,-1.35,
0.194,-0.02,0.00,0.81,0.06,-0.43,-1.35,
0.196,-0.02,-0.00,0.81,0.06,-0.43,-1.35,
0.197,-0.02,-0.00,0.81,0.14,-0.46,-1.48,
0.199,-0.01,-0.00,0.80,0.14,-0.46,-1.48,
0.202,-0.01,-0.00,0.80,0.17,-0.50,-1.62,
0.202,-0.00,0.00,0.79,0.17,-0.50,-1.62,
0.204,-0.01,0.00,0.79,0.17,-0.50,-1.62,
0.206,-0.00,0.00,0.79,0.17,-0.50,-1.62,
0.207,-0.00,0.00,0.79,0.31,-0.51,-1.72,
0.209,0.00,-0.00,0.77,0.31,-0.51,-1.72,
0.212,0.01,0.00,0.77,0.31,-0.51,-1.72,
0.212,0.01,0.00,0.77,0.32,-0.53,-1.83,
0.214,0.00,-0.00,0.76,0.32,-0.53,-1.83,
0.216,0.00,-0.00,0.76,0.38,-0.55,-2.01,
0.217,0.01,-0.00,0.75,0.38,-0.55,-2.01,
0.218,0.02,0.00,0.75,0.38,-0.55,-2.01,
0.222,0.02,0.00,0.74,0.38,-0.55,-2.01,
0.222,0.02,0.00,0.74,0.43,-0.57,-2.08,
0.224,0.03,0.01,0.74,0.43,-0.57,-2.08,
0.226,0.04,0.01,0.73,0.43,-0.57,-2.08,
0.227,0.04,0.01,0.73,0.52,-0.57,-2.19,
0.229,0.05,0.01,0.72,0.52,-0.57,-2.19,
0.231,0.05,0.02,0.71,0.52,-0.57,-2.19,
0.231,0.05,0.02,0.71,0.66,-0.51,-2.30,
0.234,0.06,0.02,0.70,0.66,-0.51,-2.30,
0.236,0.06,0.02,0.70,0.66,-0.51,-2.30,
0.237,0.06,0.02,0.70,0.83,-0.46,-2.47,
0.239,0.07,0.02,0.71,0.83,-0.46,-2.47,
0.241,0.07,0.03,0.71,0.83,-0.46,-2.47,
0.241,0.07,0.03,0.71,0.89,-0.41,-2.56,
0.243,0.08,0.04,0.72,0.89,-0.41,-2.56,
0.246,0.07,0.04,0.73,0.89,-0.41,-2.56,
0.246,0.07,0.04,0.73,0.98,-0.34,-2.51,
0.248,0.08,0.04,0.74,0.98,-0.34,-2.51,
0.252,0.08,0.04,0.74,1.04,-0.26,-2.33,
0.252,0.07,0.04,0.76,1.04,-0.26,-2.33,
0.253,0.07,0.05,0.77,1.04,-0.26,-2.33,
0.255,0.07,0.05,0.79,1.04,-0.26,-2.33,
0.256,0.07,0.05,0.79,1.05,-0.22,-2.09,
0.261,0.07,0.05,0.80,1.05,-0.22,-2.09,
0.261,0.06,0.04,0.83,1.05,-0.22,-2.09,
0.261,0.06,0.04,0.83,1.00,-0.18,-1.79,
0.263,0.05,0.04,0.84,1.00,-0.18,-1.79,
0.265,0.05,0.04,0.86,1.00,-0.18,-1.79,
0.266,0.05,0.04,0.86,0.92,-0.20,-1.40,
0.268,0.05,0.04,0.88,0.92,-0.20,-1.40,
0.271,0.04,0.04,0.90,0.92,-0.20,-1.40,
0.271,0.04,0.04,0.90,0.83,-0.22,-1.05,
0.273,0.04,0.03,0.92,0.83,-0.22,-1.05,
0.276,0.04,0.03,0.92,0.77,-0.22,-0.63,
0.277,0.03,0.02,0.94,0.77,-0.22,-0.63,
0.278,0.03,0.03,0.96,0.77,-0.22,-0.63,
0.281,0.03,0.03,0.98,0.77,-0.22,-0.63,
0.281,0.03,0.03,0.98,0.72,-0.34,-0.24,
0.283,0.03,0.02,0.98,0.72,-0.34,-0.24,
0.286,0.02,0.02,0.99,0.72,-0.34,-0.24,
0.286,0.02,0.02,0.99,0.62,-0.32,0.12,
0.289,0.03,0.03,1.00,0.62,-0.32,0.12,
0.291,0.03,0.03,1.00,0.62,-0.32,0.12,
0.291,0.03,0.03,1.00,0.63,-0.32,0.31,
0.294,0.04,0.03,1.00,0.63,-0.32,0.31,
0.296,0.04,0.03,1.01,0.63,-0.32,0.31,
0.297,0.04,0.03,1.01,0.67,-0.28,0.39,
0.298,0.04,0.03,1.00,0.67,-0.28,0.39,
0.301,0.04,0.03,1.00,0.67,-0.28,0.39,
0.301,0.04,0.03,1.00,0.76,-0.21,0.45,
0.304,0.05,0.04,1.00,0.76,-0.21,0.45,
0.306,0.05,0.04,1.01,0.76,-0.21,0.45,
0.306,0.05,0.04,1.01,0.79,-0.20,0.45,
0.308,0.05,0.04,1.00,0.79,-0.20,0.45,
0.311,0.05,0.04,1.00,0.85,-0.12,0.45,
0.311,0.05,0.04,1.00,0.85,-0.12,0.45,
0.313,0.05,0.04,1.00,0.85,-0.12,0.45,
0.315,0.05,0.04,0.99,0.85,-0.12,0.45,
0.316,0.05,0.04,0.99,0.87,-0.12,0.36,
0.318,0.04,0.03,0.99,0.87,-0.12,0.36,
0.321,0.05,0.03,0.99,0.87,-0.12,0.36,
0.321,0.05,0.03,0.99,0.85,-0.09,0.36,
0.324,0.05,0.03,0.98,0.85,-0.09,0.36,
0.326,0.05,0.03,0.98,0.83,-0.12,0.29,
0.326,0.05,0.04,0.98,0.83,-0.12,0.29,
0.329,0.05,0.04,0.97,0.83,-0.12,0.29,
0.331,0.04,0.03,0.97,0.83,-0.12,0.29,
0.331,0.04,0.03,0.97,0.84,-0.11,0.23,
0.333,0.04,0.04,0.97,0.84,-0.11,0.23,
0.336,0.05,0.04,0.96,0.84,-0.11,0.23,
0.336,0.05,0.04,0.96,0.82,-0.06,0.10,
0.338,0.05,0.04,0.96,0.82,-0.06,0.10,
0.341,0.05,0.04,0.96,0.82,-0.02,0.04,
0.341,0.05,0.04,0.97,0.82,-0.02,0.04,
0.344,0.04,0.04,0.97,0.82,-0.02,0.04,
0.345,0.04,0.04,0.97,0.82,-0.02,0.04,
0.346,0.04,0.04,0.97,0.83,-0.01,0.06,
0.347,0.03,0.04,0.98,0.83,-0.01,0.06,
0.35,0.03,0.04,0.98,0.76,-0.00,0.13,
0.351,0.02,0.04,0.98,0.76,-0.00,0.13,
0.353,0.02,0.04,0.98,0.76,-0.00,0.13,
0.355,0.02,0.04,0.98,0.76,-0.00,0.13,
0.355,0.02,0.04,0.98,0.64,-0.03,0.19,
0.358,0.02,0.04,0.98,0.64,-0.03,0.19,
0.361,0.01,0.04,0.98,0.64,-0.03,0.19,
0.362,0.01,0.04,0.98,0.60,0.02,0.20,
0.362,0.01,0.05,0.98,0.60,0.02,0.20,
0.365,0.01,0.05,0.98,0.60,0.02,0.20,
0.365,0.01,0.05,0.98,0.57,0.03,0.20,
0.368,0.01,0.04,0.99,0.57,0.03,0.20,
0.371,0.01,0.05,0.99,0.57,0.03,0.20,
0.371,0.01,0.05,0.99,0.54,0.08,0.20,
0.373,0.01,0.05,0.99,0.54,0.08,0.20,
0.378,0.01,0.06,0.99,0.54,0.08,0.20,
0.379,0.01,0.06,0.99,0.52,0.09,0.25,
0.379,0.01,0.06,1.00,0.52,0.09,0.25,
0.38,0.01,0.06,1.00,0.52,0.09,0.25,
0.38,0.01,0.06,1.00,0.54,0.20,0.27,
0.382,0.01,0.06,1.00,0.54,0.20,0.27,
0.384,0.01,0.06,1.00,0.54,0.20,0.27,
0.385,0.01,0.06,1.00,0.57,0.25,0.38,
0.386,0.01,0.06,1.00,0.57,0.25,0.38,
0.389,0.01,0.06,1.01,0.57,0.25,0.38,
0.39,0.01,0.06,1.01,0.55,0.26,0.38,
0.391,0.01,0.06,1.01,0.55,0.26,0.38,
0.399,0.00,0.06,1.01,0.55,0.26,0.38,
0.4,0.00,0.06,1.01,0.59,0.28,0.43,
0.4,0.00,0.05,1.01,0.59,0.28,0.43,
0.4,0.00,0.05,1.01,0.57,0.24,0.46,
0.4,-0.00,0.04,1.01,0.57,0.24,0.46,
0.401,-0.00,0.03,1.01,0.57,0.24,0.46,
0.404,-0.00,0.02,1.01,0.57,0.24,0.46,
0.404,-0.00,0.02,1.01,0.50,0.09,0.46,
0.406,-0.00,0.00,1.02,0.50,0.09,0.46,
0.41,-0.00,-0.00,1.01,0.50,0.09,0.46,
0.411,-0.00,-0.00,1.01,0.49,-0.08,0.50,
0.412,-0.00,-0.01,1.00,0.49,-0.08,0.50,
0.414,0.00,-0.02,0.99,0.49,-0.08,0.50,
0.414,0.00,-0.02,0.99,0.49,-0.30,0.50,
0.416,0.00,-0.02,0.99,0.49,-0.30,0.50,
0.419,0.00,-0.03,0.98,0.49,-0.30,0.50,
0.419,0.00,-0.03,0.98,0.52,-0.43,0.36,
0.421,0.00,-0.04,0.96,0.52,-0.43,0.36,
0.424,0.00,-0.04,0.96,0.53,-0.55,0.19,
0.424,0.01,-0.03,0.95,0.53,-0.55,0.19,
0.427,0.02,-0.04,0.94,0.53,-0.55,0.19,
0.429,0.02,-0.04,0.93,0.53,-0.55,0.19,
0.429,0.02,-0.04,0.93,0.57,-0.60,-0.04,
0.431,0.03,-0.04,0.92,0.57,-0.60,-0.04,
0.434,0.03,-0.04,0.92,0.57,-0.60,-0.04,
0.434,0.03,-0.04,0.92,0.69,-0.68,-0.23,
0.436,0.03,-0.05,0.91,0.69,-0.68,-0.23,
0.439,0.03,-0.05,0.91,0.69,-0.68,-0.23,
0.439,0.03,-0.05,0.91,0.73,-0.64,-0.41,
0.441,0.02,-0.05,0.91,0.73,-0.64,-0.41,
0.444,0.02,-0.05,0.92,0.73,-0.64,-0.41,
0.445,0.02,-0.05,0.92,0.70,-0.71,-0.47,
0.446,0.02,-0.04,0.93,0.70,-0.71,-0.47,
0.449,0.02,-0.04,0.93,0.67,-0.71,-0.44,
0.449,0.01,-0.04,0.94,0.67,-0.71,-0.44,
0.451,0.00,-0.04,0.96,0.67,-0.71,-0.44,
0.454,-0.01,-0.04,0.97,0.67,-0.71,-0.44,
0.455,-0.01,-0.04,0.97,0.60,-0.63,-0.28,
0.456,-0.02,-0.04,0.99,0.60,-0.63,-0.28,
0.459,-0.02,-0.04,1.02,0.60,-0.63,-0.28,
0.459,-0.02,-0.04,1.02,0.39,-0.59,0.03,
0.463,-0.03,-0.03,1.03,0.39,-0.59,0.03,
0.465,-0.04,-0.02,1.05,0.39,-0.59,0.03,
0.465,-0.04,-0.02,1.05,0.22,-0.54,0.42,
0.466,-0.04,-0.01,1.06,0.22,-0.54,0.42,
0.468,-0.04,-0.01,1.06,0.22,-0.54,0.42,
0.469,-0.04,-0.01,1.06,0.11,-0.43,0.79,
0.471,-0.04,-0.00,1.07,0.11,-0.43,0.79,
0.474,-0.04,-0.00,1.07,0.07,-0.27,0.97,
0.474,-0.05,-0.00,1.08,0.07,-0.27,0.97,
0.477,-0.05,0.00,1.08,0.07,-0.27,0.97,
0.478,-0.05,0.01,1.08,0.07,-0.27,0.97,
0.479,-0.05,0.01,1.08,0.02,-0.16,1.12,
0.481,-0.06,0.01,1.08,0.02,-0.16,1.12,
0.484,-0.07,0.01,1.08,0.02,-0.16,1.12,
0.484,-0.07,0.01,1.08,-0.04,-0.07,1.16,
0.486,-0.07,0.02,1.06,-0.04,-0.07,1.16,
0.491,-0.07,0.02,1.05,-0.04,-0.07,1.16,
0.492,-0.07,0.02,1.05,-0.12,-0.01,1.12,
0.493,-0.07,0.02,1.04,-0.12,-0.01,1.12,
0.494,-0.08,0.02,1.02,-0.12,-0.01,1.12,
0.494,-0.08,0.02,1.02,-0.22,0.05,0.93,
0.505,-0.08,0.02,1.01,-0.22,0.05,0.93,
0.507,-0.08,0.02,1.01,-0.26,0.05,0.64,
0.507,-0.08,0.02,1.00,-0.26,0.05,0.64,
0.507,-0.09,0.02,0.99,-0.26,0.05,0.64,
0.508,-0.09,0.02,0.99,-0.32,0.04,0.42,
0.508,-0.09,0.02,0.98,-0.32,0.04,0.42,
0.508,-0.09,0.03,0.97,-0.32,0.04,0.42,
0.508,-0.08,0.03,0.97,-0.32,0.04,0.42,
0.508,-0.08,0.03,0.97,-0.35,0.08,0.20,
0.513,-0.08,0.03,0.96,-0.35,0.08,0.20,
0.514,-0.08,0.03,0.96,-0.36,0.14,0.07,
0.514,-0.08,0.03,0.96,-0.36,0.14,0.07,
0.515,-0.08,0.04,0.96,-0.36,0.14,0.07,
0.519,-0.06,0.04,0.96,-0.36,0.14,0.07,
0.519,-0.06,0.04,0.96,-0.32,0.18,-0.04,
0.521,-0.05,0.04,0.96,-0.32,0.18,-0.04,
0.524,-0.05,0.04,0.96,-0.24,0.30,-0.08,
0.524,-0.04,0.05,0.97,-0.24,0.30,-0.08,
0.526,-0.03,0.05,0.99,-0.24,0.30,-0.08,
0.528,-0.01,0.06,1.00,-0.24,0.30,-0.08,
0.529,-0.01,0.06,1.00,-0.04,0.40,0.03,
0.531,-0.00,0.06,1.02,-0.04,0.40,0.03,
0.533,0.01,0.06,1.04,-0.04,0.40,0.03,
0.533,0.01,0.06,1.04,0.21,0.50,0.31,
0.536,0.02,0.07,1.05,0.21,0.50,0.31,
0.539,0.04,0.07,1.06,0.21,0.50,0.31,
0.539,0.04,0.07,1.06,0.45,0.59,0.64,
0.54,0.05,0.07,1.08,0.45,0.59,0.64,
0.543,0.06,0.07,1.10,0.45,0.59,0.64,
0.543,0.06,0.07,1.10,0.69,0.71,0.90,
0.545,0.07,0.07,1.11,0.69,0.71,0.90,
0.548,0.07,0.07,1.11,0.89,0.77,1.17,
0.549,0.07,0.06,1.13,0.89,0.77,1.17,
0.55,0.08,0.06,1.14,0.89,0.77,1.17,
0.553,0.09,0.06,1.16,0.89,0.77,1.17,
0.554,0.09,0.06,1.16,1.06,0.76,1.49,
0.556,0.09,0.05,1.17,1.06,0.76,1.49,
0.558,0.09,0.04,1.19,1.06,0.76,1.49,
0.559,0.09,0.04,1.19,1.18,0.73,1.79,
0.561,0.08,0.04,1.20,1.18,0.73,1.79,
0.563,0.07,0.03,1.21,1.18,0.73,1.79,
0.564,0.07,0.03,1.21,1.20,0.63,2.07,
0.565,0.07,0.02,1.22,1.20,0.63,2.07,
0.568,0.07,0.02,1.22,1.13,0.54,2.33,
0.569,0.06,0.01,1.23,1.13,0.54,2.33,
0.571,0.05,0.00,1.24,1.13,0.54,2.33,
0.574,0.05,0.00,1.24,0.97,0.35,2.49,
0.574,0.04,-0.01,1.24,0.97,0.35,2.49,
0.576,0.03,-0.01,1.24,0.97,0.35,2.49,
0.579,0.02,-0.02,1.24,0.97,0.35,2.49,
0.58,0.02,-0.02,1.24,0.81,0.26,2.59,
0.58,0.00,-0.03,1.24,0.81,0.26,2.59,
0.583,-0.01,-0.03,1.24,0.81,0.26,2.59,
0.583,-0.01,-0.03,1.24,0.60,0.13,2.58,
0.586,-0.02,-0.03,1.24,0.60,0.13,2.58,
0.588,-0.04,-0.03,1.23,0.60,0.13,2.58,
0.588,-0.04,-0.03,1.23,0.37,0.02,2.61,
0.591,-0.05,-0.04,1.22,0.37,0.02,2.61,
0.593,-0.07,-0.05,1.21,0.37,0.02,2.61,
0.594,-0.07,-0.05,1.21,0.10,-0.02,2.53,
0.597,-0.09,-0.05,1.19,0.10,-0.02,2.53,
0.598,-0.09,-0.05,1.19,-0.21,-0.11,2.33,
0.599,-0.10,-0.05,1.17,-0.21,-0.11,2.33,
0.6,-0.11,-0.04,1.15,-0.21,-0.11,2.33,
0.603,-0.12,-0.04,1.14,-0.21,-0.11,2.33,
0.603,-0.12,-0.04,1.14,-0.48,-0.13,2.01,
0.606,-0.12,-0.04,1.11,-0.48,-0.13,2.01,
0.608,-0.13,-0.04,1.09,-0.48,-0.13,2.01,
0.608,-0.13,-0.04,1.09,-0.68,-0.08,1.63,
0.61,-0.13,-0.03,1.07,-0.68,-0.08,1.63,
0.619,-0.14,-0.02,1.05,-0.68,-0.08,1.63,
0.62,-0.14,-0.02,1.05,-0.79,-0.07,1.20,
0.62,-0.15,-0.02,1.04,-0.79,-0.07,1.20,
0.621,-0.14,-0.02,1.02,-0.79,-0.07,1.20,
0.621,-0.14,-0.02,1.02,-0.87,0.02,0.82,
0.621,-0.14,-0.01,1.00,-0.87,0.02,0.82,
0.622,-0.14,-0.01,1.00,-0.97,0.08,0.47,
0.622,-0.13,-0.01,0.98,-0.97,0.08,0.47,
0.624,-0.13,-0.01,0.96,-0.97,0.08,0.47,
0.632,-0.13,0.00,0.93,-0.97,0.08,0.47,
0.633,-0.13,0.00,0.93,-0.91,0.19,0.08,
0.633,-0.12,0.00,0.92,-0.91,0.19,0.08,
0.634,-0.12,0.00,0.91,-0.91,0.19,0.08,
0.634,-0.12,0.00,0.91,-0.84,0.24,-0.32,
0.634,-0.11,0.01,0.90,-0.84,0.24,-0.32,
0.637,-0.10,0.01,0.89,-0.84,0.24,-0.32,
0.637,-0.10,0.01,0.89,-0.72,0.29,-0.60,
0.64,-0.09,0.01,0.89,-0.72,0.29,-0.60,
0.641,-0.08,0.01,0.89,-0.72,0.29,-0.60,
0.642,-0.08,0.01,0.89,-0.58,0.31,-0.78,
0.644,-0.07,0.01,0.88,-0.58,0.31,-0.78,
0.646,-0.07,0.01,0.88,-0.58,0.31,-0.78,
0.647,-0.07,0.01,0.88,-0.42,0.35,-0.89,
0.649,-0.06,0.02,0.89,-0.42,0.35,-0.89,
0.651,-0.05,0.01,0.89,-0.42,0.35,-0.89,
0.654,-0.05,0.01,0.89,-0.27,0.34,-0.94,
0.654,-0.05,0.01,0.89,-0.27,0.34,-0.94,
0.656,-0.04,0.01,0.90,-0.27,0.34,-0.94,
0.656,-0.04,0.01,0.90,-0.10,0.37,-0.88,
0.659,-0.02,0.01,0.91,-0.10,0.37,-0.88,
0.662,-0.03,0.00,0.92,-0.10,0.37,-0.88,
0.663,-0.03,0.00,0.92,0.01,0.37,-0.80,
0.664,-0.03,-0.00,0.93,0.01,0.37,-0.80,
0.667,-0.03,-0.01,0.94,0.01,0.37,-0.80,
0.667,-0.03,-0.01,0.94,0.17,0.30,-0.65,
0.669,-0.03,-0.02,0.95,0.17,0.30,-0.65,
0.671,-0.04,-0.03,0.97,0.17,0.30,-0.65,
0.672,-0.04,-0.03,0.97,0.15,0.20,-0.40,
0.674,-0.05,-0.04,0.98,0.15,0.20,-0.40,
0.678,-0.06,-0.05,0.99,0.15,0.20,-0.40,
0.678,-0.06,-0.05,0.99,0.06,0.01,-0.14,
0.679,-0.07,-0.06,1.01,0.06,0.01,-0.14,
0.681,-0.08,-0.06,1.02,0.06,0.01,-0.14,
0.682,-0.08,-0.06,1.02,-0.15,-0.15,0.11,
0.684,-0.09,-0.06,1.03,-0.15,-0.15,0.11,
0.686,-0.09,-0.07,1.04,-0.15,-0.15,0.11,
0.687,-0.09,-0.07,1.04,-0.30,-0.27,0.37,
0.688,-0.11,-0.07,1.05,-0.30,-0.27,0.37,
0.691,-0.12,-0.07,1.06,-0.30,-0.27,0.37,
0.692,-0.12,-0.07,1.06,-0.44,-0.31,0.60,
0.695,-0.13,-0.08,1.08,-0.44,-0.31,0.60,
0.697,-0.13,-0.08,1.08,-0.44,-0.31,0.60,
0.698,-0.13,-0.08,1.08,-0.65,-0.35,0.77,
0.699,-0.14,-0.08,1.08,-0.65,-0.35,0.77,
0.701,-0.14,-0.08,1.08,-0.65,-0.35,0.77,
0.702,-0.14,-0.08,1.08,-0.79,-0.37,0.98,
0.704,-0.15,-0.07,1.08,-0.79,-0.37,0.98,
0.706,-0.15,-0.08,1.07,-0.79,-0.37,0.98,
0.707,-0.15,-0.08,1.07,-0.90,-0.37,1.02,
0.708,-0.15,-0.07,1.06,-0.90,-0.37,1.02,
0.719,-0.15,-0.07,1.05,-0.90,-0.37,1.02,
0.72,-0.15,-0.07,1.05,-0.99,-0.34,0.91,
0.721,-0.14,-0.07,1.03,-0.99,-0.34,0.91,
0.721,-0.14,-0.07,1.02,-0.99,-0.34,0.91,
0.722,-0.14,-0.07,1.02,-0.96,-0.32,0.75,
0.722,-0.14,-0.07,1.01,-0.96,-0.32,0.75,
0.722,-0.14,-0.07,0.99,-0.96,-0.32,0.75,
0.723,-0.14,-0.07,0.99,-0.89,-0.28,0.46,
0.723,-0.14,-0.06,0.96,-0.89,-0.28,0.46,
0.734,-0.13,-0.06,0.94,-0.89,-0.28,0.46,
0.736,-0.13,-0.06,0.94,-0.87,-0.25,0.18,
0.736,-0.13,-0.06,0.93,-0.87,-0.25,0.18,
0.736,-0.12,-0.06,0.91,-0.87,-0.25,0.18,
0.737,-0.12,-0.06,0.91,-0.80,-0.23,-0.23,
0.737,-0.12,-0.06,0.90,-0.80,-0.23,-0.23,
0.738,-0.12,-0.05,0.89,-0.80,-0.23,-0.23,
0.738,-0.12,-0.05,0.89,-0.70,-0.19,-0.55,
0.738,-0.12,-0.05,0.88,-0.70,-0.19,-0.55,
0.741,-0.12,-0.05,0.87,-0.70,-0.19,-0.55,
0.741,-0.12,-0.05,0.87,-0.65,-0.16,-0.82,
0.743,-0.13,-0.06,0.87,-0.65,-0.16,-0.82,
0.745,-0.12,-0.05,0.86,-0.65,-0.16,-0.82,
0.746,-0.12,-0.05,0.86,-0.67,-0.13,-0.98,
0.748,-0.11,-0.05,0.87,-0.67,-0.13,-0.98,
0.75,-0.12,-0.05,0.86,-0.67,-0.13,-0.98,
0.751,-0.12,-0.05,0.86,-0.67,-0.15,-1.11,
0.753,-0.11,-0.05,0.87,-0.67,-0.15,-1.11,
0.755,-0.10,-0.05,0.87,-0.67,-0.15,-1.11,
0.755,-0.10,-0.05,0.87,-0.58,-0.10,-1.10,
0.758,-0.09,-0.05,0.88,-0.58,-0.10,-1.10,
0.763,-0.09,-0.05,0.88,-0.49,-0.06,-1.07,
0.764,-0.08,-0.04,0.89,-0.49,-0.06,-1.07,
0.764,-0.08,-0.04,0.91,-0.49,-0.06,-1.07,
0.765,-0.08,-0.04,0.94,-0.49,-0.06,-1.07,
0.766,-0.08,-0.04,0.94,-0.34,-0.02,-0.89,
0.768,-0.08,-0.05,0.96,-0.34,-0.02,-0.89,
0.77,-0.08,-0.05,0.96,-0.25,0.03,-0.49,
0.771,-0.09,-0.05,0.98,-0.25,0.03,-0.49,
0.773,-0.09,-0.05,1.01,-0.25,0.03,-0.49,
0.776,-0.10,-0.05,1.04,-0.25,0.03,-0.49,
0.776,-0.10,-0.05,1.04,-0.28,0.01,-0.06,
0.78,-0.10,-0.05,1.06,-0.28,0.01,-0.06,
0.781,-0.11,-0.05,1.08,-0.28,0.01,-0.06,
0.782,-0.11,-0.05,1.08,-0.39,0.00,0.51,
0.783,-0.11,-0.06,1.10,-0.39,0.00,0.51,
0.785,-0.12,-0.06,1.12,-0.39,0.00,0.51,
0.786,-0.12,-0.06,1.12,-0.49,0.05,0.96,
0.788,-0.13,-0.06,1.14,-0.49,0.05,0.96,
0.79,-0.13,-0.06,1.16,-0.49,0.05,0.96,
0.79,-0.13,-0.06,1.16,-0.58,0.03,1.34,
0.792,-0.14,-0.07,1.17,-0.58,0.03,1.34,
0.795,-0.14,-0.07,1.17,-0.74,0.02,1.69,
0.796,-0.15,-0.07,1.18,-0.74,0.02,1.69,
0.797,-0.15,-0.07,1.18,-0.74,0.02,1.69,
0.8,-0.16,-0.08,1.18,-0.74,0.02,1.69,
0.801,-0.16,-0.08,1.18,-0.88,-0.02,1.93,
0.802,-0.16,-0.09,1.18,-0.88,-0.02,1.93,
0.805,-0.16,-0.08,1.18,-0.88,-0.02,1.93,
0.805,-0.16,-0.08,1.18,-1.00,-0.09,1.99,
0.807,-0.16,-0.10,1.17,-1.00,-0.09,1.99,
0.812,-0.16,-0.10,1.17,-1.01,-0.14,1.99,
0.813,-0.15,-0.10,1.15,-1.01,-0.14,1.99,
0.813,-0.15,-0.10,1.14,-1.01,-0.14,1.99,
0.815,-0.14,-0.10,1.12,-1.01,-0.14,1.99,
0.816,-0.14,-0.10,1.12,-1.00,-0.26,1.78,
0.824,-0.13,-0.10,1.11,-1.00,-0.26,1.78,
0.825,-0.13,-0.10,1.11,-0.87,-0.26,1.48,
0.826,-0.12,-0.10,1.10,-0.87,-0.26,1.48,
0.827,-0.11,-0.10,1.08,-0.87,-0.26,1.48,
0.828,-0.11,-0.10,1.06,-0.87,-0.26,1.48,
0.828,-0.11,-0.10,1.06,-0.67,-0.25,1.24,
0.829,-0.10,-0.11,1.03,-0.67,-0.25,1.24,
0.841,-0.10,-0.11,1.03,-0.54,-0.28,0.86,
0.842,-0.08,-0.10,1.01,-0.54,-0.28,0.86,
0.842,-0.08,-0.11,0.99,-0.54,-0.28,0.86,
0.843,-0.07,-0.10,0.98,-0.54,-0.28,0.86,
0.843,-0.07,-0.10,0.98,-0.38,-0.29,0.43,
0.843,-0.06,-0.10,0.96,-0.38,-0.29,0.43,
0.844,-0.06,-0.11,0.96,-0.38,-0.29,0.43,
0.844,-0.06,-0.11,0.96,-0.24,-0.29,0.06,
0.844,-0.06,-0.11,0.96,-0.24,-0.29,0.06,
0.845,-0.05,-0.11,0.96,-0.24,-0.29,0.06,
0.845,-0.05,-0.11,0.96,-0.13,-0.27,-0.18,
0.852,-0.05,-0.10,0.96,-0.13,-0.27,-0.18,
0.856,-0.05,-0.10,0.97,-0.13,-0.27,-0.18,
0.856,-0.05,-0.10,0.97,-0.06,-0.30,-0.22,
0.856,-0.05,-0.10,0.98,-0.06,-0.30,-0.22,
0.857,-0.05,-0.10,0.99,-0.06,-0.30,-0.22,
0.857,-0.05,-0.10,0.99,-0.02,-0.23,-0.11,
0.857,-0.05,-0.10,1.00,-0.02,-0.23,-0.11,
0.859,-0.04,-0.09,1.02,-0.02,-0.23,-0.11,
0.86,-0.04,-0.09,1.02,-0.00,-0.19,0.07,
0.862,-0.05,-0.09,1.03,-0.00,-0.19,0.07,
0.865,-0.05,-0.09,1.04,-0.00,-0.19,0.07,
0.865,-0.05,-0.09,1.04,-0.00,-0.11,0.32,
0.867,-0.05,-0.09,1.05,-0.00,-0.11,0.32,
0.869,-0.05,-0.09,1.05,0.01,-0.05,0.56,
0.87,-0.06,-0.09,1.07,0.01,-0.05,0.56,
0.872,-0.07,-0.09,1.08,0.01,-0.05,0.56,
0.874,-0.07,-0.09,1.11,0.01,-0.05,0.56,
0.874,-0.07,-0.09,1.11,-0.04,-0.01,0.80,
0.877,-0.08,-0.09,1.13,-0.04,-0.01,0.80,
0.88,-0.08,-0.10,1.15,-0.04,-0.01,0.80,
0.88,-0.08,-0.10,1.15,-0.19,0.01,1.14,
0.882,-0.09,-0.10,1.17,-0.19,0.01,1.14,
0.885,-0.10,-0.11,1.19,-0.19,0.01,1.14,
0.885,-0.10,-0.11,1.19,-0.30,-0.01,1.55,
0.887,-0.11,-0.11,1.21,-0.30,-0.01,1.55,
0.89,-0.11,-0.11,1.22,-0.30,-0.01,1.55,
0.89,-0.11,-0.11,1.22,-0.44,-0.10,1.97,
0.892,-0.12,-0.12,1.23,-0.44,-0.10,1.97,
0.894,-0.12,-0.12,1.24,-0.44,-0.10,1.97,
0.895,-0.12,-0.12,1.24,-0.55,-0.10,2.29,
0.897,-0.13,-0.12,1.25,-0.55,-0.10,2.29,
0.9,-0.13,-0.12,1.26,-0.55,-0.10,2.29,
0.9,-0.13,-0.12,1.26,-0.67,-0.15,2.47,
0.902,-0.13,-0.12,1.26,-0.67,-0.15,2.47,
0.905,-0.13,-0.13,1.27,-0.67,-0.15,2.47,
0.906,-0.13,-0.13,1.27,-0.72,-0.13,2.65,
0.908,-0.13,-0.13,1.27,-0.72,-0.13,2.65,
0.91,-0.12,-0.13,1.28,-0.72,-0.13,2.65,
0.91,-0.12,-0.13,1.28,-0.71,-0.19,2.76,
0.912,-0.11,-0.13,1.27,-0.71,-0.19,2.76,
0.915,-0.11,-0.13,1.27,-0.71,-0.19,2.76,
0.915,-0.11,-0.13,1.27,-0.67,-0.21,2.86,
0.916,-0.10,-0.12,1.27,-0.67,-0.21,2.86,
0.92,-0.10,-0.12,1.27,-0.56,-0.17,2.85,
0.92,-0.09,-0.13,1.27,-0.56,-0.17,2.85,
0.922,-0.08,-0.13,1.27,-0.56,-0.17,2.85,
0.925,-0.07,-0.14,1.26,-0.56,-0.17,2.85,
0.925,-0.07,-0.14,1.26,-0.41,-0.15,2.80,
0.927,-0.06,-0.14,1.26,-0.41,-0.15,2.80,
0.934,-0.05,-0.14,1.25,-0.41,-0.15,2.80,
0.935,-0.05,-0.14,1.25,-0.18,-0.21,2.75,
0.935,-0.04,-0.14,1.25,-0.18,-0.21,2.75,
0.936,-0.03,-0.14,1.24,-0.18,-0.21,2.75,
0.936,-0.03,-0.14,1.24,0.04,-0.25,2.63,
0.937,-0.02,-0.15,1.23,0.04,-0.25,2.63,
0.94,-0.01,-0.15,1.23,0.04,-0.25,2.63,
0.94,-0.01,-0.15,1.23,0.20,-0.25,2.51,
0.942,-0.01,-0.15,1.22,0.20,-0.25,2.51,
0.944,-0.01,-0.16,1.22,0.20,-0.25,2.51,
0.945,-0.01,-0.16,1.22,0.39,-0.34,2.37,
0.948,-0.00,-0.16,1.21,0.39,-0.34,2.37,
0.949,0.00,-0.17,1.20,0.39,-0.34,2.37,
0.95,0.00,-0.17,1.20,0.49,-0.39,2.26,
0.951,0.00,-0.17,1.20,0.49,-0.39,2.26,
0.954,0.00,-0.17,1.20,0.49,-0.39,2.26,
0.955,0.00,-0.17,1.20,0.59,-0.47,2.13,
0.957,0.00,-0.17,1.20,0.59,-0.47,2.13,
0.959,0.00,-0.17,1.20,0.59,-0.47,2.13,
0.96,0.00,-0.17,1.20,0.61,-0.55,2.09,
0.962,-0.00,-0.17,1.19,0.61,-0.55,2.09,
0.964,-0.01,-0.16,1.19,0.61,-0.55,2.09,
0.965,-0.01,-0.16,1.19,0.63,-0.53,2.02,
0.967,-0.01,-0.16,1.18,0.63,-0.53,2.02,
0.969,-0.01,-0.16,1.18,0.52,-0.51,1.95,
0.97,-0.02,-0.15,1.18,0.52,-0.51,1.95,
0.971,-0.03,-0.15,1.18,0.52,-0.51,1.95,
0.974,-0.04,-0.15,1.18,0.52,-0.51,1.95,
0.975,-0.04,-0.15,1.18,0.41,-0.39,1.88,
0.977,-0.05,-0.14,1.18,0.41,-0.39,1.88,
0.981,-0.06,-0.14,1.19,0.41,-0.39,1.88,
0.982,-0.06,-0.14,1.19,0.25,-0.32,1.87,
0.982,-0.07,-0.14,1.19,0.25,-0.32,1.87,
0.985,-0.07,-0.13,1.20,0.25,-0.32,1.87,
0.986,-0.07,-0.13,1.20,0.05,-0.26,1.88,
0.986,-0.08,-0.13,1.20,0.05,-0.26,1.88,
0.988,-0.08,-0.13,1.20,0.05,-0.26,1.88,
0.988,-0.08,-0.13,1.20,-0.10,-0.20,1.96,
0.99,-0.08,-0.12,1.21,-0.10,-0.20,1.96,
0.993,-0.08,-0.12,1.21,-0.19,-0.13,2.03,
0.993,-0.08,-0.12,1.21,-0.19,-0.13,2.03,
0.996,-0.08,-0.11,1.21,-0.19,-0.13,2.03,
0.998,-0.08,-0.10,1.22,-0.19,-0.13,2.03,
0.998,-0.08,-0.10,1.22,-0.24,-0.03,2.09,
1.0,-0.08,-0.10,1.22,-0.24,-0.03,2.09,
1.003,-0.08,-0.10,1.22,-0.24,-0.03,2.09,
1.004,-0.08,-0.10,1.22,-0.25,0.11,2.15,
1.005,-0.08,-0.09,1.22,-0.25,0.11,2.15,
1.008,-0.07,-0.08,1.22,-0.25,0.11,2.15,
1.008,-0.07,-0.08,1.22,-0.21,0.19,2.20,
1.01,-0.07,-0.08,1.23,-0.21,0.19,2.20,
1.013,-0.07,-0.08,1.23,-0.21,0.19,2.20,
1.014,-0.07,-0.08,1.23,-0.16,0.30,2.22,
1.015,-0.06,-0.07,1.23,-0.16,0.30,2.22,
1.018,-0.06,-0.07,1.23,-0.13,0.39,2.30,
1.018,-0.06,-0.08,1.23,-0.13,0.39,2.30,
1.02,-0.05,-0.08,1.23,-0.13,0.39,2.30,
1.023,-0.05,-0.08,1.23,-0.13,0.39,2.30,
1.023,-0.05,-0.08,1.23,-0.05,0.42,2.29,
1.025,-0.05,-0.08,1.23,-0.05,0.42,2.29,
1.03,-0.04,-0.08,1.23,-0.05,0.42,2.29,
1.031,-0.04,-0.08,1.23,0.00,0.40,2.27,
1.031,-0.05,-0.09,1.23,0.00,0.40,2.27,
1.033,-0.04,-0.09,1.23,0.00,0.40,2.27,
1.033,-0.04,-0.09,1.23,0.05,0.36,2.28,
1.035,-0.03,-0.10,1.23,0.05,0.36,2.28,
1.038,-0.03,-0.10,1.23,0.05,0.26,2.28,
1.039,-0.03,-0.10,1.23,0.05,0.26,2.28,
1.04,-0.03,-0.11,1.23,0.05,0.26,2.28,
1.043,-0.03,-0.11,1.23,0.16,0.18,2.23,
1.043,-0.02,-0.11,1.23,0.16,0.18,2.23,
1.054,-0.01,-0.11,1.22,0.16,0.18,2.23,
1.055,-0.01,-0.11,1.21,0.16,0.18,2.23,
1.055,-0.01,-0.11,1.21,0.24,0.10,2.21,
1.056,-0.00,-0.12,1.20,0.24,0.10,2.21,
1.056,0.00,-0.11,1.19,0.24,0.10,2.21,
1.057,0.00,-0.11,1.19,0.35,0.05,2.06,
1.058,0.01,-0.12,1.18,0.35,0.05,2.06,
1.058,0.01,-0.12,1.18,0.35,0.05,2.06,
1.059,0.01,-0.12,1.18,0.41,0.02,1.90,
1.06,0.01,-0.12,1.17,0.41,0.02,1.90,
1.067,0.01,-0.13,1.16,0.41,0.02,1.90,
1.068,0.01,-0.13,1.16,0.48,-0.03,1.72,
1.068,0.01,-0.12,1.15,0.48,-0.03,1.72,
1.069,0.00,-0.12,1.15,0.48,-0.03,1.72,
1.069,0.00,-0.12,1.15,0.49,-0.07,1.56,
1.07,0.00,-0.13,1.14,0.49,-0.07,1.56,
1.072,0.00,-0.13,1.13,0.49,-0.07,1.56,
1.073,0.00,-0.13,1.13,0.42,-0.08,1.41,
1.075,0.01,-0.13,1.12,0.42,-0.08,1.41,
1.077,0.01,-0.12,1.12,0.42,-0.08,1.41,
1.078,0.01,-0.12,1.12,0.35,-0.15,1.25,
1.08,0.01,-0.12,1.11,0.35,-0.15,1.25,
1.082,0.01,-0.12,1.10,0.35,-0.15,1.25,
1.082,0.01,-0.12,1.10,0.40,-0.09,1.12,
1.085,0.01,-0.11,1.10,0.40,-0.09,1.12,
1.087,0.01,-0.11,1.10,0.39,-0.06,0.97,
1.087,0.02,-0.11,1.09,0.39,-0.06,0.97,
1.089,0.02,-0.11,1.08,0.39,-0.06,0.97,
1.092,0.02,-0.11,1.08,0.39,-0.06,0.97,
1.092,0.02,-0.11,1.08,0.39,-0.01,0.82,
1.094,0.02,-0.12,1.07,0.39,-0.01,0.82,
1.098,0.02,-0.11,1.07,0.39,-0.01,0.82,
1.099,0.02,-0.11,1.07,0.39,-0.03,0.73,
1.099,0.02,-0.12,1.08,0.39,-0.03,0.73,
1.102,0.02,-0.12,1.08,0.40,-0.04,0.64,
1.102,0.03,-0.11,1.08,0.40,-0.04,0.64,
1.104,0.03,-0.11,1.09,0.40,-0.04,0.64,
1.107,0.04,-0.11,1.09,0.40,-0.04,0.64,
1.107,0.04,-0.11,1.09,0.42,-0.05,0.72,
1.109,0.05,-0.11,1.10,0.42,-0.05,0.72,
1.113,0.05,-0.11,1.11,0.42,-0.05,0.72,
1.114,0.05,-0.11,1.11,0.49,-0.01,0.79,
1.115,0.06,-0.11,1.11,0.49,-0.01,0.79,
1.117,0.06,-0.11,1.11,0.60,0.01,0.93,
1.117,0.06,-0.10,1.12,0.60,0.01,0.93,
1.119,0.06,-0.11,1.13,0.60,0.01,0.93,
1.122,0.07,-0.10,1.14,0.60,0.01,0.93,
1.122,0.07,-0.10,1.14,0.67,0.06,1.02,
1.124,0.07,-0.10,1.15,0.67,0.06,1.02,
1.127,0.07,-0.10,1.15,0.70,0.06,1.21,
1.127,0.07,-0.10,1.15,0.70,0.06,1.21,
1.13,0.08,-0.11,1.16,0.70,0.06,1.21,
1.132,0.07,-0.12,1.16,0.70,0.06,1.21,
1.132,0.07,-0.12,1.16,0.75,0.07,1.37,
1.134,0.07,-0.12,1.17,0.75,0.07,1.37,
1.137,0.08,-0.12,1.17,0.75,0.07,1.37,
1.138,0.08,-0.12,1.17,0.74,-0.05,1.48,
1.139,0.08,-0.12,1.17,0.74,-0.05,1.48,
1.142,0.07,-0.12,1.17,0.74,-0.05,1.48,
1.142,0.07,-0.12,1.17,0.72,-0.07,1.53,
1.144,0.06,-0.12,1.17,0.72,-0.07,1.53,
1.155,0.07,-0.13,1.15,0.72,-0.07,1.53,
1.162,0.07,-0.13,1.15,0.67,-0.11,1.55,
1.162,0.07,-0.13,1.15,0.67,-0.11,1.55,
1.162,0.07,-0.13,1.15,0.59,-0.18,1.45,
1.163,0.06,-0.13,1.14,0.59,-0.18,1.45,
1.164,0.06,-0.13,1.12,0.59,-0.18,1.45,
1.164,0.06,-0.13,1.10,0.59,-0.18,1.45,
1.164,0.06,-0.13,1.10,0.58,-0.25,1.28,
1.165,0.06,-0.13,1.08,0.58,-0.25,1.28,
1.165,0.06,-0.14,1.07,0.58,-0.25,1.28,
1.165,0.06,-0.14,1.07,0.51,-0.29,0.95,
1.166,0.05,-0.13,1.05,0.51,-0.29,0.95,
1.167,0.05,-0.13,1.03,0.51,-0.29,0.95,
1.167,0.05,-0.13,1.03,0.47,-0.33,0.63,
1.168,0.04,-0.13,1.01,0.47,-0.33,0.63,
1.171,0.04,-0.13,1.00,0.47,-0.33,0.63,
1.172,0.04,-0.13,1.00,0.41,-0.34,0.23,
1.173,0.04,-0.12,0.99,0.41,-0.34,0.23,
1.177,0.03,-0.12,0.98,0.41,-0.34,0.23,
1.177,0.03,-0.12,0.98,0.28,-0.33,-0.08,
1.181,0.02,-0.11,0.98,0.28,-0.33,-0.08,
1.182,0.02,-0.11,0.97,0.28,-0.33,-0.08,
1.182,0.02,-0.11,0.97,0.18,-0.29,-0.27,
1.183,0.01,-0.10,0.97,0.18,-0.29,-0.27,
1.186,0.01,-0.09,0.97,0.18,-0.29,-0.27,
1.186,0.01,-0.09,0.97,0.04,-0.21,-0.38,
1.188,0.00,-0.08,0.98,0.04,-0.21,-0.38,
1.191,-0.00,-0.09,0.97,0.04,-0.21,-0.38,
1.191,-0.00,-0.09,0.97,-0.11,-0.10,-0.45,
1.194,-0.01,-0.08,0.98,-0.11,-0.10,-0.45,
1.198,-0.02,-0.08,1.00,-0.11,-0.10,-0.45,
1.199,-0.02,-0.08,1.00,-0.20,-0.02,-0.39,
1.199,-0.03,-0.07,1.00,-0.20,-0.02,-0.39,
1.201,-0.04,-0.07,1.01,-0.20,-0.02,-0.39,
1.202,-0.04,-0.07,1.01,-0.38,0.03,-0.23,
1.204,-0.04,-0.07,1.02,-0.38,0.03,-0.23,
1.206,-0.05,-0.06,1.04,-0.38,0.03,-0.23,
1.206,-0.05,-0.06,1.04,-0.56,0.05,-0.07,
1.208,-0.07,-0.06,1.05,-0.56,0.05,-0.07,
1.212,-0.07,-0.06,1.05,-0.56,0.05,-0.07,
1.212,-0.07,-0.06,1.05,-0.74,0.12,0.15,
1.214,-0.07,-0.06,1.06,-0.74,0.12,0.15,
1.216,-0.07,-0.06,1.06,-0.74,0.12,0.15,
1.216,-0.07,-0.06,1.06,-0.94,0.14,0.33,
1.219,-0.07,-0.05,1.07,-0.94,0.14,0.33,
1.222,-0.07,-0.05,1.07,-1.02,0.17,0.46,
1.222,-0.07,-0.05,1.07,-1.02,0.17,0.46,
1.224,-0.07,-0.04,1.07,-1.02,0.17,0.46,
1.227,-0.07,-0.04,1.07,-1.02,0.17,0.46,
1.227,-0.07,-0.04,1.07,-1.03,0.24,0.54,
1.229,-0.06,-0.04,1.07,-1.03,0.24,0.54,
1.231,-0.06,-0.04,1.07,-1.03,0.29,0.56,
1.232,-0.06,-0.04,1.07,-1.03,0.29,0.56,
1.233,-0.04,-0.04,1.06,-1.03,0.29,0.56,
1.236,-0.04,-0.04,1.06,-1.03,0.29,0.56,
1.236,-0.04,-0.04,1.06,-0.98,0.31,0.50,
1.239,-0.03,-0.04,1.05,-0.98,0.31,0.50,
1.241,-0.03,-0.04,1.05,-0.80,0.32,0.43,
1.242,-0.01,-0.04,1.04,-0.80,0.32,0.43,
1.244,-0.01,-0.04,1.03,-0.80,0.32,0.43,
1.246,-0.00,-0.04,1.02,-0.80,0.32,0.43,
1.246,-0.00,-0.04,1.02,-0.65,0.28,0.28,
1.252,0.00,-0.04,1.02,-0.65,0.28,0.28,
1.252,0.01,-0.05,1.00,-0.65,0.28,0.28,
1.252,0.01,-0.05,1.00,-0.53,0.23,0.08,
1.254,0.02,-0.05,0.98,-0.53,0.23,0.08,
1.256,0.03,-0.05,0.97,-0.53,0.23,0.08,
1.256,0.03,-0.05,0.97,-0.44,0.18,-0.08,
1.258,0.03,-0.05,0.97,-0.44,0.18,-0.08,
1.262,0.04,-0.06,0.95,-0.44,0.18,-0.08,
1.262,0.04,-0.06,0.95,-0.30,0.10,-0.37,
1.264,0.05,-0.06,0.95,-0.30,0.10,-0.37,
1.266,0.05,-0.06,0.95,-0.21,0.05,-0.54,
1.266,0.05,-0.06,0.95,-0.21,0.05,-0.54,
1.268,0.05,-0.06,0.95,-0.21,0.05,-0.54,
1.271,0.05,-0.06,0.95,-0.21,0.05,-0.54,
1.271,0.05,-0.06,0.95,-0.14,-0.00,-0.65,
1.273,0.05,-0.06,0.96,-0.14,-0.00,-0.65,
1.276,0.05,-0.06,0.96,-0.14,-0.00,-0.65,
1.277,0.05,-0.06,0.96,-0.13,-0.03,-0.62,
1.279,0.04,-0.05,0.97,-0.13,-0.03,-0.62,
1.281,0.04,-0.05,0.98,-0.13,-0.03,-0.62,
1.282,0.04,-0.05,0.98,-0.17,-0.06,-0.55,
1.283,0.03,-0.05,1.00,-0.17,-0.06,-0.55,
1.285,0.02,-0.05,1.01,-0.17,-0.06,-0.55,
1.286,0.02,-0.05,1.01,-0.26,-0.02,-0.37,
1.288,0.02,-0.05,1.01,-0.26,-0.02,-0.37,
1.291,0.02,-0.05,1.01,-0.42,-0.02,-0.13,
1.291,0.02,-0.05,1.03,-0.42,-0.02,-0.13,
1.293,0.01,-0.05,1.04,-0.42,-0.02,-0.13,
1.296,-0.01,-0.05,1.05,-0.42,-0.02,-0.13,
1.296,-0.01,-0.05,1.05,-0.52,-0.02,0.07,
1.298,-0.01,-0.06,1.06,-0.52,-0.02,0.07,
1.3,-0.02,-0.05,1.06,-0.52,-0.02,0.07,
1.301,-0.02,-0.05,1.06,-0.72,-0.05,0.28,
1.303,-0.02,-0.06,1.06,-0.72,-0.05,0.28,
1.306,-0.02,-0.06,1.07,-0.72,-0.05,0.28,
1.306,-0.02,-0.06,1.07,-0.89,-0.08,0.44,
1.308,-0.03,-0.06,1.07,-0.89,-0.08,0.44,
1.31,-0.03,-0.05,1.07,-0.89,-0.08,0.44,
1.311,-0.03,-0.05,1.07,-0.99,-0.11,0.50,
1.313,-0.03,-0.05,1.07,-0.99,-0.11,0.50,
1.316,-0.03,-0.05,1.07,-1.12,-0.12,0.53,
1.317,-0.03,-0.05,1.06,-1.12,-0.12,0.53,
1.318,-0.03,-0.05,1.05,-1.12,-0.12,0.53,
1.321,-0.03,-0.05,1.04,-1.12,-0.12,0.53,
1.321,-0.03,-0.05,1.04,-1.13,-0.11,0.48,
1.323,-0.02,-0.05,1.03,-1.13,-0.11,0.48,
1.325,-0.01,-0.04,1.03,-1.13,-0.11,0.48,
1.326,-0.01,-0.04,1.03,-1.13,-0.12,0.31,
1.328,-0.01,-0.04,1.01,-1.13,-0.12,0.31,
1.332,-0.01,-0.03,1.00,-1.13,-0.12,0.31,
1.332,-0.01,-0.03,1.00,-1.06,-0.08,0.16,
1.333,-0.00,-0.02,0.99,-1.06,-0.08,0.16,
1.336,0.00,-0.02,0.98,-1.06,-0.08,0.16,
1.336,0.00,-0.02,0.98,-1.04,0.00,-0.10,
1.338,0.01,-0.01,0.96,-1.04,0.00,-0.10,
1.341,0.01,-0.01,0.96,-0.97,0.10,-0.30,
1.341,0.01,-0.01,0.96,-0.97,0.10,-0.30,
1.342,0.02,-0.00,0.95,-0.97,0.10,-0.30,
1.345,0.02,0.00,0.94,-0.97,0.10,-0.30,
1.346,0.02,0.00,0.94,-0.88,0.19,-0.52,
1.352,0.02,-0.00,0.93,-0.88,0.19,-0.52,
1.353,0.02,0.01,0.92,-0.88,0.19,-0.52,
1.353,0.02,0.01,0.92,-0.86,0.25,-0.67,
1.354,0.02,0.01,0.92,-0.86,0.25,-0.67,
1.354,0.02,0.01,0.91,-0.86,0.25,-0.67,
1.355,0.02,0.01,0.91,-0.85,0.26,-0.87,
1.357,0.02,0.02,0.91,-0.85,0.26,-0.87,
1.36,0.02,0.02,0.91,-0.85,0.26,-0.87,
1.36,0.02,0.02,0.91,-0.83,0.33,-0.96,
1.362,0.02,0.02,0.91,-0.83,0.33,-0.96,
1.365,0.01,0.02,0.92,-0.83,0.33,-0.96,
1.365,0.01,0.02,0.92,-0.81,0.37,-0.99,
1.367,0.01,0.02,0.93,-0.81,0.37,-0.99,
1.369,-0.00,0.03,0.94,-0.81,0.37,-0.99,
1.37,-0.00,0.03,0.94,-0.88,0.38,-0.91,
1.372,-0.01,0.02,0.95,-0.88,0.38,-0.91,
1.375,-0.01,0.02,0.95,-0.99,0.41,-0.73,
1.375,-0.01,0.02,0.96,-0.99,0.41,-0.73,
1.377,-0.02,0.02,0.97,-0.99,0.41,-0.73,
1.38,-0.02,0.03,0.98,-0.99,0.41,-0.73,
1.38,-0.02,0.03,0.98,-1.13,0.37,-0.56,
1.385,-0.03,0.03,0.98,-1.13,0.37,-0.56,
1.386,-0.03,0.02,0.98,-1.13,0.37,-0.56,
1.387,-0.03,0.02,0.98,-1.21,0.36,-0.37,
1.387,-0.03,0.02,0.99,-1.21,0.36,-0.37,
1.39,-0.03,0.02,0.99,-1.24,0.34,-0.29,
1.39,-0.03,0.02,1.00,-1.24,0.34,-0.29,
1.392,-0.03,0.01,0.99,-1.24,0.34,-0.29,
1.394,-0.03,0.01,1.00,-1.24,0.34,-0.29,
1.395,-0.03,0.01,1.00,-1.27,0.28,-0.20,
1.398,-0.03,0.01,0.99,-1.27,0.28,-0.20,
1.4,-0.03,0.01,0.99,-1.25,0.20,-0.16,
1.4,-0.03,0.00,0.98,-1.25,0.20,-0.16,
1.401,-0.03,0.00,0.98,-1.25,0.20,-0.16,
1.405,-0.03,-0.01,0.98,-1.25,0.20,-0.16,
1.405,-0.03,-0.01,0.98,-1.22,0.13,-0.25,
1.407,-0.02,-0.02,0.97,-1.22,0.13,-0.25,
1.41,-0.02,-0.02,0.96,-1.22,0.13,-0.25,
1.41,-0.02,-0.02,0.96,-1.25,0.04,-0.28,
1.412,-0.01,-0.02,0.96,-1.25,0.04,-0.28,
1.415,-0.01,-0.02,0.96,-1.22,-0.11,-0.46,
1.415,-0.01,-0.03,0.95,-1.22,-0.11,-0.46,
1.416,-0.01,-0.03,0.94,-1.22,-0.11,-0.46,
1.419,0.00,-0.03,0.93,-1.22,-0.11,-0.46,
1.419,0.00,-0.03,0.93,-1.16,-0.18,-0.58,
1.421,0.01,-0.03,0.93,-1.16,-0.18,-0.58,
1.424,0.02,-0.03,0.92,-1.16,-0.18,-0.58,
1.425,0.02,-0.03,0.92,-1.10,-0.27,-0.74,
1.427,0.02,-0.03,0.92,-1.10,-0.27,-0.74,
1.429,0.03,-0.03,0.92,-1.10,-0.27,-0.74,
1.429,0.03,-0.03,0.92,-0.96,-0.27,-0.82,
1.432,0.03,-0.03,0.92,-0.96,-0.27,-0.82,
1.434,0.03,-0.03,0.92,-0.92,-0.30,-0.87,
1.435,0.04,-0.03,0.91,-0.92,-0.30,-0.87,
1.437,0.04,-0.02,0.91,-0.92,-0.30,-0.87,
1.44,0.04,-0.02,0.91,-0.84,-0.26,-0.93,
1.44,0.05,-0.02,0.90,-0.84,-0.26,-0.93,
1.442,0.05,-0.01,0.90,-0.84,-0.26,-0.93,
1.444,0.05,-0.01,0.89,-0.84,-0.26,-0.93,
1.444,0.05,-0.01,0.89,-0.76,-0.18,-1.00,
1.447,0.05,-0.01,0.88,-0.76,-0.18,-1.00,
1.449,0.06,-0.00,0.88,-0.76,-0.18,-1.00,
1.45,0.06,-0.00,0.88,-0.71,-0.08,-1.13,
1.451,0.05,-0.01,0.87,-0.71,-0.08,-1.13,
1.454,0.05,-0.01,0.87,-0.71,-0.05,-1.22,
1.455,0.05,-0.00,0.87,-0.71,-0.05,-1.22,
1.457,0.05,-0.00,0.86,-0.71,-0.05,-1.22,
1.459,0.05,0.01,0.86,-0.71,-0.05,-1.22,
1.459,0.05,0.01,0.86,-0.75,-0.08,-1.33,
1.462,0.05,0.01,0.86,-0.75,-0.08,-1.33,
1.464,0.05,0.01,0.86,-0.78,-0.02,-1.40,
1.464,0.05,0.01,0.85,-0.78,-0.02,-1.40,
1.472,0.05,0.02,0.86,-0.78,-0.02,-1.40,
1.473,0.05,0.03,0.85,-0.78,-0.02,-1.40,
1.473,0.05,0.03,0.85,-0.77,0.02,-1.45,
1.473,0.05,0.03,0.85,-0.77,0.02,-1.45,
1.474,0.05,0.03,0.85,-0.77,0.02,-1.45,
1.474,0.05,0.03,0.85,-0.74,0.15,-1.47,
1.476,0.05,0.04,0.85,-0.74,0.15,-1.47,
1.481,0.05,0.04,0.85,-0.74,0.15,-1.47,
1.481,0.05,0.04,0.85,-0.73,0.18,-1.48,
1.481,0.05,0.04,0.85,-0.73,0.18,-1.48,
1.487,0.04,0.04,0.85,-0.73,0.18,-1.48,
1.487,0.04,0.04,0.85,-0.70,0.23,-1.52,
1.488,0.04,0.05,0.85,-0.70,0.23,-1.52,
1.488,0.03,0.04,0.86,-0.70,0.23,-1.52,
1.488,0.03,0.04,0.86,-0.69,0.25,-1.51,
1.491,0.02,0.03,0.87,-0.69,0.25,-1.51,
1.493,0.02,0.03,0.87,-0.69,0.25,-1.51,
1.496,0.02,0.03,0.87,-0.78,0.25,-1.45,
1.496,0.01,0.03,0.88,-0.78,0.25,-1.45,
1.499,-0.00,0.02,0.88,-0.78,0.25,-1.45,
1.5,-0.00,0.02,0.88,-0.88,0.14,-1.31,
1.5,-0.00,0.02,0.88,-0.88,0.14,-1.31,
1.503,-0.01,0.01,0.88,-0.88,0.14,-1.31,
1.503,-0.01,0.01,0.88,-1.02,0.06,-1.25,
1.505,-0.02,-0.00,0.88,-1.02,0.06,-1.25,
1.509,-0.02,-0.01,0.89,-1.02,0.06,-1.25,
1.509,-0.02,-0.01,0.89,-1.11,-0.10,-1.18,
1.511,-0.02,-0.01,0.88,-1.11,-0.10,-1.18,
1.513,-0.02,-0.02,0.88,-1.11,-0.10,-1.18,
1.514,-0.02,-0.02,0.88,-1.21,-0.27,-1.16,
1.516,-0.02,-0.02,0.87,-1.21,-0.27,-1.16,
1.518,-0.02,-0.03,0.86,-1.21,-0.27,-1.16,
1.518,-0.02,-0.03,0.86,-1.22,-0.39,-1.20,
1.52,-0.02,-0.03,0.86,-1.22,-0.39,-1.20,
1.523,-0.01,-0.04,0.86,-1.22,-0.39,-1.20,
1.523,-0.01,-0.04,0.86,-1.23,-0.49,-1.35,
1.526,-0.01,-0.04,0.85,-1.23,-0.49,-1.35,
1.529,-0.01,-0.04,0.84,-1.23,-0.49,-1.35,
1.529,-0.01,-0.04,0.84,-1.18,-0.61,-1.39,
1.531,0.00,-0.04,0.83,-1.18,-0.61,-1.39,
1.533,0.01,-0.04,0.83,-1.18,-0.61,-1.39,
1.534,0.01,-0.04,0.83,-1.11,-0.63,-1.55,
1.535,0.01,-0.04,0.82,-1.11,-0.63,-1.55,
1.538,0.02,-0.03,0.82,-1.11,-0.63,-1.55,
1.538,0.02,-0.03,0.82,-1.02,-0.65,-1.65,
1.54,0.03,-0.03,0.81,-1.02,-0.65,-1.65,
1.543,0.04,-0.03,0.81,-1.02,-0.65,-1.65,
1.544,0.04,-0.03,0.81,-0.90,-0.62,-1.78,
1.545,0.04,-0.03,0.80,-0.90,-0.62,-1.78,
1.549,0.05,-0.02,0.80,-0.90,-0.62,-1.78,
1.55,0.05,-0.02,0.80,-0.77,-0.60,-1.86,
1.55,0.06,-0.02,0.80,-0.77,-0.60,-1.86,
1.553,0.06,-0.02,0.80,-0.77,-0.60,-1.86,
1.553,0.06,-0.02,0.80,-0.64,-0.55,-1.93,
1.555,0.07,-0.01,0.79,-0.64,-0.55,-1.93,
1.558,0.07,-0.01,0.79,-0.64,-0.55,-1.93,
1.558,0.07,-0.01,0.79,-0.52,-0.47,-1.95,
1.56,0.08,-0.01,0.80,-0.52,-0.47,-1.95,
1.563,0.09,-0.01,0.80,-0.52,-0.47,-1.95,
1.563,0.09,-0.01,0.80,-0.45,-0.40,-2.01,
1.569,0.09,-0.01,0.80,-0.45,-0.40,-2.01,
1.57,0.10,-0.00,0.81,-0.45,-0.40,-2.01,
1.57,0.10,-0.00,0.81,-0.36,-0.39,-1.95,
1.57,0.10,0.00,0.82,-0.36,-0.39,-1.95,
1.572,0.10,-0.00,0.82,-0.36,-0.39,-1.95,
1.572,0.10,-0.00,0.82,-0.22,-0.31,-1.87,
1.575,0.11,0.00,0.83,-0.22,-0.31,-1.87,
1.577,0.11,0.01,0.84,-0.22,-0.31,-1.87,
1.577,0.11,0.01,0.84,-0.15,-0.26,-1.72,
1.58,0.12,0.01,0.85,-0.15,-0.26,-1.72,
1.583,0.12,0.02,0.86,-0.15,-0.26,-1.72,
1.583,0.12,0.02,0.86,-0.10,-0.22,-1.56,
1.584,0.13,0.01,0.87,-0.10,-0.22,-1.56,
1.587,0.13,0.01,0.88,-0.10,-0.22,-1.56,
1.587,0.13,0.01,0.88,0.02,-0.13,-1.40,
1.59,0.13,0.02,0.89,0.02,-0.13,-1.40,
1.593,0.13,0.01,0.90,0.02,-0.13,-1.40,
1.593,0.13,0.01,0.90,0.11,-0.12,-1.17,
1.594,0.13,0.01,0.91,0.11,-0.12,-1.17,
1.599,0.13,0.01,0.93,0.11,-0.12,-1.17,
1.6,0.13,0.01,0.93,0.16,-0.11,-0.96,
1.6,0.13,0.00,0.93,0.16,-0.11,-0.96,
1.602,0.13,-0.00,0.94,0.16,-0.11,-0.96,
1.602,0.13,-0.00,0.94,0.17,-0.17,-0.75,
1.605,0.13,-0.00,0.95,0.17,-0.17,-0.75,
1.607,0.13,-0.01,0.95,0.17,-0.17,-0.75,
1.607,0.13,-0.01,0.95,0.18,-0.22,-0.57,
1.61,0.12,-0.01,0.96,0.18,-0.22,-0.57,
1.613,0.12,-0.01,0.96,0.15,-0.27,-0.45,
1.613,0.12,-0.01,0.96,0.15,-0.27,-0.45,
1.615,0.12,-0.02,0.96,0.15,-0.27,-0.45,
1.618,0.10,-0.02,0.96,0.15,-0.27,-0.45,
1.618,0.10,-0.02,0.96,0.06,-0.34,-0.34,
1.619,0.09,-0.02,0.95,0.06,-0.34,-0.34,
1.622,0.09,-0.03,0.96,0.06,-0.34,-0.34,
1.622,0.09,-0.03,0.96,-0.03,-0.40,-0.33,
1.625,0.08,-0.03,0.96,-0.03,-0.40,-0.33,
1.627,0.07,-0.03,0.95,-0.03,-0.40,-0.33,
1.627,0.07,-0.03,0.95,-0.21,-0.46,-0.39,
1.629,0.07,-0.04,0.94,-0.21,-0.46,-0.39,
1.634,0.06,-0.04,0.94,-0.21,-0.46,-0.39,
1.634,0.06,-0.04,0.94,-0.32,-0.52,-0.39,
1.635,0.06,-0.03,0.94,-0.32,-0.52,-0.39,
1.637,0.06,-0.03,0.94,-0.43,-0.58,-0.50,
1.637,0.06,-0.03,0.94,-0.43,-0.58,-0.50,
1.639,0.05,-0.03,0.93,-0.43,-0.58,-0.50,
1.641,0.06,-0.03,0.93,-0.43,-0.58,-0.50,
1.644,0.06,-0.03,0.93,-0.52,-0.56,-0.54,
1.644,0.06,-0.02,0.92,-0.52,-0.56,-0.54,
1.646,0.05,-0.02,0.92,-0.52,-0.56,-0.54,
1.646,0.05,-0.02,0.92,-0.52,-0.52,-0.64,
1.649,0.06,-0.01,0.92,-0.52,-0.52,-0.64,
1.651,0.07,-0.01,0.92,-0.52,-0.52,-0.64,
1.652,0.07,-0.01,0.92,-0.54,-0.42,-0.73,
1.653,0.07,-0.00,0.92,-0.54,-0.42,-0.73,
1.656,0.08,0.01,0.92,-0.54,-0.42,-0.73,
1.657,0.08,0.01,0.92,-0.46,-0.35,-0.75,
1.658,0.09,0.02,0.92,-0.46,-0.35,-0.75,
1.661,0.09,0.02,0.91,-0.46,-0.35,-0.75,
1.661,0.09,0.02,0.91,-0.32,-0.22,-0.73,
1.663,0.09,0.03,0.91,-0.32,-0.22,-0.73,
1.671,0.10,0.04,0.91,-0.32,-0.22,-0.73,
1.671,0.10,0.04,0.91,-0.21,-0.07,-0.79,
1.672,0.11,0.04,0.91,-0.21,-0.07,-0.79,
1.672,0.11,0.04,0.91,-0.21,-0.07,-0.79,
1.674,0.11,0.04,0.91,-0.12,0.08,-0.80,
1.674,0.10,0.04,0.92,-0.12,0.08,-0.80,
1.677,0.10,0.05,0.92,-0.12,0.08,-0.80,
1.677,0.10,0.05,0.92,-0.02,0.16,-0.80,
1.678,0.10,0.04,0.92,-0.02,0.16,-0.80,
1.682,0.09,0.04,0.92,-0.02,0.16,-0.80,
1.683,0.09,0.04,0.92,-0.04,0.17,-0.74,
1.683,0.08,0.04,0.92,-0.04,0.17,-0.74,
1.686,0.08,0.04,0.92,-0.11,0.14,-0.70,
1.686,0.08,0.04,0.93,-0.11,0.14,-0.70,
1.688,0.07,0.04,0.93,-0.11,0.14,-0.70,
1.691,0.06,0.04,0.93,-0.11,0.14,-0.70,
1.691,0.06,0.04,0.93,-0.23,0.11,-0.66,
1.693,0.05,0.04,0.94,-0.23,0.11,-0.66,
1.696,0.05,0.04,0.94,-0.23,0.11,-0.66,
1.696,0.05,0.04,0.94,-0.34,0.11,-0.63,
1.698,0.04,0.04,0.94,-0.34,0.11,-0.63,
1.701,0.03,0.04,0.94,-0.34,0.11,-0.63,
1.701,0.03,0.04,0.94,-0.45,0.08,-0.57,
1.703,0.03,0.04,0.94,-0.45,0.08,-0.57,
1.706,0.03,0.04,0.94,-0.55,0.08,-0.58,
1.706,0.02,0.05,0.95,-0.55,0.08,-0.58,
1.708,0.01,0.05,0.94,-0.55,0.08,-0.58,
1.711,0.01,0.05,0.94,-0.66,0.08,-0.51,
1.711,0.01,0.05,0.95,-0.66,0.08,-0.51,
1.713,0.00,0.05,0.94,-0.66,0.08,-0.51,
1.715,0.00,0.05,0.94,-0.66,0.08,-0.51,
1.716,0.00,0.05,0.94,-0.76,0.10,-0.51,
1.718,-0.00,0.05,0.93,-0.76,0.10,-0.51,
1.721,-0.01,0.05,0.93,-0.76,0.10,-0.51,
1.721,-0.01,0.05,0.93,-0.83,0.11,-0.56,
1.723,-0.02,0.05,0.92,-0.83,0.11,-0.56,
1.726,-0.02,0.05,0.93,-0.83,0.11,-0.56,
1.726,-0.02,0.05,0.93,-0.90,0.12,-0.62,
1.728,-0.03,0.05,0.92,-0.90,0.12,-0.62,
1.731,-0.03,0.04,0.92,-0.90,0.12,-0.62,
1.731,-0.03,0.04,0.92,-1.02,0.08,-0.68,
1.734,-0.03,0.04,0.91,-1.02,0.08,-0.68,
1.736,-0.03,0.04,0.91,-1.02,0.08,-0.68,
1.736,-0.03,0.04,0.91,-1.07,0.04,-0.73,
1.738,-0.03,0.03,0.91,-1.07,0.04,-0.73,
1.74,-0.02,0.03,0.91,-1.07,0.04,-0.73,
1.741,-0.02,0.03,0.91,-1.10,-0.03,-0.82,
1.743,-0.03,0.04,0.91,-1.10,-0.03,-0.82,
1.745,-0.02,0.04,0.91,-1.10,-0.03,-0.82,
1.746,-0.02,0.04,0.91,-1.08,-0.07,-0.86,
1.748,-0.01,0.03,0.91,-1.08,-0.07,-0.86,
1.751,-0.01,0.04,0.91,-1.08,-0.07,-0.86,
1.752,-0.01,0.04,0.91,-1.07,-0.04,-0.86,
1.753,0.00,0.04,0.91,-1.07,-0.04,-0.86,
1.756,0.00,0.04,0.91,-0.93,-0.06,-0.82,
1.756,0.01,0.04,0.92,-0.93,-0.06,-0.82,
1.758,0.01,0.05,0.93,-0.93,-0.06,-0.82,
1.76,0.02,0.05,0.93,-0.93,-0.06,-0.82,
1.761,0.02,0.05,0.93,-0.80,-0.01,-0.76,
1.763,0.02,0.05,0.94,-0.80,-0.01,-0.76,
1.774,0.03,0.05,0.95,-0.80,-0.01,-0.76,
1.776,0.03,0.05,0.95,-0.70,0.08,-0.61,
1.777,0.03,0.05,0.96,-0.70,0.08,-0.61,
1.778,0.04,0.05,0.96,-0.70,0.08,-0.61,
1.779,0.04,0.05,0.96,-0.62,0.07,-0.49,
1.78,0.04,0.04,0.97,-0.62,0.07,-0.49,
1.781,0.04,0.04,0.97,-0.62,0.07,-0.49,
1.781,0.04,0.04,0.97,-0.50,0.08,-0.33,
1.782,0.04,0.04,0.98,-0.50,0.08,-0.33,
1.783,0.04,0.03,0.98,-0.50,0.08,-0.33,
1.783,0.04,0.03,0.98,-0.48,0.05,-0.22,
1.784,0.04,0.03,0.98,-0.48,0.05,-0.22,
1.785,0.04,0.03,0.99,-0.48,0.05,-0.22,
1.787,0.04,0.03,0.99,-0.44,-0.04,-0.13,
1.787,0.05,0.02,0.99,-0.44,-0.04,-0.13,
1.791,0.05,0.02,0.98,-0.44,-0.04,-0.13,
1.792,0.05,0.02,0.98,-0.42,-0.10,-0.08,
1.792,0.05,0.01,0.99,-0.42,-0.10,-0.08,
1.796,0.05,0.01,0.99,-0.42,-0.10,-0.08,
1.796,0.05,0.01,0.99,-0.39,-0.23,-0.08,
1.798,0.05,0.00,0.99,-0.39,-0.23,-0.08,
1.801,0.05,0.00,0.98,-0.39,-0.23,-0.08,
1.802,0.05,0.00,0.98,-0.34,-0.29,-0.06,
1.802,0.06,0.00,0.98,-0.34,-0.29,-0.06,
1.805,0.06,0.00,0.97,-0.34,-0.29,-0.06,
1.806,0.06,0.00,0.97,-0.34,-0.35,-0.08,
1.813,0.06,0.01,0.97,-0.34,-0.35,-0.08,
1.813,0.06,0.01,0.97,-0.23,-0.36,-0.15,
1.814,0.06,0.01,0.97,-0.23,-0.36,-0.15,
1.814,0.06,0.02,0.96,-0.23,-0.36,-0.15,
1.816,0.06,0.02,0.96,-0.23,-0.36,-0.15,
1.816,0.06,0.02,0.96,-0.19,-0.30,-0.20,
1.817,0.06,0.02,0.96,-0.19,-0.30,-0.20,
1.82,0.06,0.02,0.96,-0.19,-0.30,-0.20,
1.821,0.06,0.02,0.96,-0.13,-0.21,-0.33,
1.823,0.06,0.02,0.95,-0.13,-0.21,-0.33,
1.825,0.06,0.02,0.95,-0.13,-0.21,-0.33,
1.826,0.06,0.02,0.95,-0.15,-0.22,-0.32,
1.827,0.07,0.02,0.95,-0.15,-0.22,-0.32,
1.83,0.06,0.02,0.94,-0.15,-0.22,-0.32,
1.83,0.06,0.02,0.94,-0.14,-0.20,-0.39,
1.832,0.07,0.02,0.94,-0.14,-0.20,-0.39,
1.835,0.07,0.02,0.94,-0.11,-0.20,-0.45,
1.835,0.07,0.02,0.94,-0.11,-0.20,-0.45,
1.838,0.07,0.01,0.94,-0.11,-0.20,-0.45,
1.84,0.07,0.01,0.94,-0.11,-0.20,-0.45,
1.841,0.07,0.01,0.94,-0.09,-0.21,-0.52,
1.843,0.08,0.01,0.95,-0.09,-0.21,-0.52,
1.845,0.08,0.01,0.95,-0.08,-0.27,-0.46,
1.846,0.07,0.01,0.95,-0.08,-0.27,-0.46,
1.848,0.08,0.01,0.96,-0.08,-0.27,-0.46,
1.85,0.08,0.02,0.96,-0.08,-0.27,-0.46,
1.851,0.08,0.02,0.96,-0.04,-0.26,-0.43,
1.852,0.09,0.02,0.96,-0.04,-0.26,-0.43,
1.855,0.09,0.02,0.96,-0.01,-0.23,-0.31,
1.855,0.09,0.02,0.97,-0.01,-0.23,-0.31,
1.858,0.10,0.03,0.98,-0.01,-0.23,-0.31,
1.861,0.10,0.03,0.98,0.06,-0.16,-0.24,
1.861,0.10,0.03,0.98,0.06,-0.16,-0.24,
1.862,0.10,0.03,0.99,0.06,-0.16,-0.24,
1.865,0.10,0.04,0.99,0.06,-0.16,-0.24,
1.865,0.10,0.04,0.99,0.13,-0.09,-0.12,
1.868,0.10,0.04,1.00,0.13,-0.09,-0.12,
1.87,0.09,0.04,1.01,0.13,-0.09,-0.12,
1.87,0.09,0.04,1.01,0.15,-0.01,0.01,
1.872,0.09,0.04,1.02,0.15,-0.01,0.01,
1.875,0.09,0.04,1.02,0.15,-0.01,0.01,
1.875,0.09,0.04,1.02,0.15,0.05,0.15,
1.877,0.08,0.04,1.03,0.15,0.05,0.15,
1.88,0.08,0.04,1.03,0.15,0.05,0.15,
1.88,0.08,0.04,1.03,0.08,0.07,0.30,
1.882,0.06,0.04,1.04,0.08,0.07,0.30,
1.889,0.06,0.04,1.04,-0.02,0.09,0.38,
1.889,0.06,0.04,1.04,-0.02,0.09,0.38,
1.89,0.05,0.04,1.04,-0.02,0.09,0.38,
1.89,0.05,0.04,1.04,-0.02,0.09,0.38,
1.89,0.05,0.04,1.04,-0.20,0.04,0.46,
1.892,0.05,0.05,1.05,-0.20,0.04,0.46,
1.894,0.05,0.04,1.05,-0.20,0.04,0.46,
1.895,0.05,0.04,1.05,-0.24,0.07,0.49,
1.897,0.05,0.05,1.05,-0.24,0.07,0.49,
1.899,0.05,0.05,1.04,-0.24,0.07,0.49,
1.899,0.05,0.05,1.04,-0.30,0.11,0.54,
1.902,0.05,0.05,1.04,-0.30,0.11,0.54,
1.904,0.05,0.05,1.04,-0.30,0.11,0.54,
1.904,0.05,0.05,1.04,-0.28,0.16,0.49,
1.907,0.06,0.06,1.04,-0.28,0.16,0.49,
1.91,0.06,0.06,1.04,-0.24,0.16,0.46,
1.91,0.06,0.06,1.03,-0.24,0.16,0.46,
1.912,0.06,0.05,1.03,-0.24,0.16,0.46,
1.915,0.07,0.06,1.03,-0.24,0.16,0.46,
1.915,0.07,0.06,1.03,-0.17,0.22,0.40,
1.918,0.07,0.06,1.02,-0.17,0.22,0.40,
1.919,0.07,0.06,1.02,-0.17,0.22,0.40,
1.919,0.07,0.06,1.02,-0.11,0.20,0.33,
1.921,0.07,0.06,1.02,-0.11,0.20,0.33,
1.925,0.07,0.06,1.02,-0.11,0.20,0.33,
1.925,0.07,0.06,1.02,-0.03,0.25,0.28,
1.927,0.08,0.05,1.01,-0.03,0.25,0.28,
1.929,0.08,0.05,1.02,-0.03,0.25,0.28,
1.929,0.08,0.05,1.02,-0.01,0.22,0.25,
1.932,0.08,0.05,1.02,-0.01,0.22,0.25,
1.935,0.08,0.05,1.02,0.05,0.15,0.20,
1.936,0.08,0.05,1.01,0.05,0.15,0.20,
1.936,0.08,0.05,1.01,0.05,0.15,0.20,
1.94,0.08,0.04,1.01,0.05,0.15,0.20,
1.94,0.08,0.04,1.01,0.09,0.11,0.19,
1.942,0.08,0.04,1.02,0.09,0.11,0.19,
1.944,0.08,0.03,1.01,0.09,0.11,0.19,
1.945,0.08,0.03,1.01,0.10,0.07,0.19,
1.947,0.08,0.04,1.02,0.10,0.07,0.19,
1.949,0.08,0.03,1.02,0.10,0.07,0.19,
1.949,0.08,0.03,1.02,0.06,-0.02,0.21,
1.952,0.08,0.03,1.02,0.06,-0.02,0.21,
1.954,0.08,0.04,1.02,0.06,-0.02,0.21,
1.955,0.08,0.04,1.02,0.07,-0.02,0.20,
1.956,0.08,0.03,1.02,0.07,-0.02,0.20,
1.959,0.08,0.03,1.02,0.08,-0.01,0.21,
1.959,0.09,0.03,1.02,0.08,-0.01,0.21,
1.961,0.09,0.03,1.02,0.08,-0.01,0.21,
1.963,0.09,0.04,1.02,0.08,-0.01,0.21,
1.963,0.09,0.04,1.02,0.08,-0.04,0.23,
1.966,0.09,0.04,1.02,0.08,-0.04,0.23,
1.968,0.09,0.04,1.02,0.08,-0.04,0.23,
1.969,0.09,0.04,1.02,0.14,-0.02,0.23,
1.971,0.09,0.05,1.02,0.14,-0.02,0.23,
1.974,0.09,0.05,1.02,0.14,-0.02,0.23,
1.974,0.09,0.05,1.02,0.12,0.03,0.20,
1.976,0.09,0.05,1.02,0.12,0.03,0.20,
1.979,0.09,0.05,1.01,0.12,0.03,0.20,
1.98,0.09,0.05,1.01,0.15,0.09,0.21,
1.981,0.09,0.05,1.01,0.15,0.09,0.21,
1.987,0.09,0.05,1.02,0.15,0.09,0.21,
1.988,0.09,0.05,1.02,0.16,0.12,0.20,
1.988,0.09,0.05,1.03,0.16,0.12,0.20,
1.988,0.08,0.05,1.03,0.16,0.12,0.20,
1.988,0.08,0.05,1.03,0.12,0.13,0.21,
1.991,0.08,0.06,1.02,0.12,0.13,0.21,
1.993,0.08,0.06,1.03,0.12,0.13,0.21,
1.993,0.08,0.06,1.03,0.09,0.13,0.31,
1.995,0.08,0.06,1.04,0.09,0.13,0.31,
1.998,0.08,0.06,1.04,0.09,0.13,0.31,
1.999,0.08,0.06,1.04,0.06,0.16,0.31,
2.001,0.08,0.07,1.04,0.06,0.16,0.31,
2.003,0.08,0.06,1.05,0.06,0.16,0.31,
2.004,0.08,0.06,1.05,0.08,0.21,0.42,
2.005,0.08,0.06,1.06,0.08,0.21,0.42,
2.008,0.08,0.06,1.06,0.06,0.22,0.50,
2.009,0.08,0.07,1.06,0.06,0.22,0.50,
2.012,0.08,0.07,1.06,0.06,0.22,0.50,
2.013,0.08,0.07,1.06,0.06,0.22,0.50,
2.013,0.08,0.07,1.06,0.09,0.23,0.63,
2.016,0.08,0.07,1.06,0.09,0.23,0.63,
2.019,0.09,0.06,1.06,0.09,0.23,0.63,
2.02,0.09,0.06,1.06,0.09,0.21,0.63,
2.021,0.08,0.06,1.07,0.09,0.21,0.63,
2.023,0.08,0.06,1.06,0.09,0.21,0.63,
2.023,0.08,0.06,1.06,0.12,0.19,0.65,
2.026,0.08,0.06,1.05,0.12,0.19,0.65,
2.029,0.08,0.06,1.05,0.09,0.15,0.64,
2.029,0.07,0.05,1.05,0.09,0.15,0.64,
2.031,0.07,0.06,1.05,0.09,0.15,0.64,
2.033,0.06,0.05,1.05,0.09,0.15,0.64,
2.033,0.06,0.05,1.05,0.05,0.09,0.53,
2.036,0.06,0.05,1.05,0.05,0.09,0.53,
2.04,0.05,0.05,1.05,0.05,0.09,0.53,
2.041,0.05,0.05,1.05,-0.05,0.04,0.48,
2.041,0.05,0.05,1.04,-0.05,0.04,0.48,
2.043,0.04,0.05,1.04,-0.05,0.04,0.48,
2.043,0.04,0.05,1.04,-0.13,-0.02,0.49,
2.045,0.04,0.04,1.04,-0.13,-0.02,0.49,
2.048,0.03,0.05,1.03,-0.13,-0.02,0.49,
2.048,0.03,0.05,1.03,-0.25,-0.08,0.42,
2.05,0.02,0.05,1.03,-0.25,-0.08,0.42,
2.052,0.02,0.05,1.03,-0.25,-0.08,0.42,
2.052,0.02,0.05,1.03,-0.36,-0.10,0.36,
2.055,0.02,0.06,1.02,-0.36,-0.10,0.36,
2.058,0.02,0.06,1.02,-0.44,-0.07,0.30,
2.058,0.02,0.06,1.00,-0.44,-0.07,0.30,
2.06,-0.01,0.05,0.82,-0.44,-0.07,0.30,
2.063,-0.12,0.07,0.54,-0.44,-0.07,0.30,
2.063,-0.12,0.07,0.54,-0.45,-0.01,0.12,
2.065,-0.18,0.11,0.42,-0.45,-0.01,0.12,
2.068,-0.15,0.15,0.49,-0.45,-0.01,0.12,
2.068,-0.15,0.15,0.49,-1.30,0.01,-3.10,
2.07,-0.09,0.18,0.60,-1.30,0.01,-3.10,
2.073,-0.06,0.19,0.68,-1.30,0.01,-3.10,
2.073,-0.06,0.19,0.68,-2.24,0.70,-5.28,
2.076,-0.04,0.19,0.73,-2.24,0.70,-5.28,
2.078,-0.04,0.19,0.73,-1.35,1.24,-3.50,
2.078,-0.02,0.18,0.76,-1.35,1.24,-3.50,
2.081,0.00,0.15,0.81,-1.35,1.24,-3.50,
2.083,0.04,0.13,0.88,-1.35,1.24,-3.50,
2.083,0.04,0.13,0.88,-0.91,1.23,-2.43,
2.085,0.07,0.11,0.97,-0.91,1.23,-2.43,
2.087,0.10,0.09,1.04,-0.91,1.23,-2.43,
2.088,0.10,0.09,1.04,-0.38,0.86,-1.44,
2.092,0.12,0.06,1.08,-0.38,0.86,-1.44,
2.093,0.12,0.04,1.13,-0.38,0.86,-1.44,
2.093,0.12,0.04,1.13,0.25,0.42,0.12,
2.094,0.12,0.02,1.14,0.25,0.42,0.12,
2.098,0.11,0.01,1.14,0.25,0.42,0.12,
2.098,0.11,0.01,1.14,0.56,-0.04,1.09,
2.106,0.09,0.00,1.14,0.56,-0.04,1.09,
2.106,0.07,-0.01,1.12,0.56,-0.04,1.09,
2.107,0.07,-0.01,1.12,0.53,-0.39,1.45,
2.107,0.06,0.00,1.10,0.53,-0.39,1.45,
2.107,0.05,0.02,1.08,0.53,-0.39,1.45,
2.107,0.05,0.02,1.08,0.17,-0.53,1.33,
2.109,0.05,0.03,1.07,0.17,-0.53,1.33,
2.112,0.05,0.04,1.06,0.17,-0.53,1.33,
2.112,0.05,0.04,1.06,-0.05,-0.44,0.95,
2.114,0.04,0.06,1.05,-0.05,-0.44,0.95,
2.118,0.04,0.07,1.05,-0.05,-0.44,0.95,
2.119,0.04,0.07,1.05,-0.14,-0.18,0.71,
2.119,0.04,0.08,1.04,-0.14,-0.18,0.71,
2.122,0.04,0.08,1.03,-0.14,-0.18,0.71,
2.122,0.04,0.08,1.03,-0.18,0.09,0.55,
2.124,0.05,0.09,1.03,-0.18,0.09,0.55,
2.127,0.05,0.09,1.03,-0.18,0.09,0.55,
2.127,0.05,0.09,1.03,-0.23,0.26,0.42,
2.13,0.04,0.08,1.03,-0.23,0.26,0.42,
2.132,0.04,0.07,1.01,-0.23,0.26,0.42,
2.132,0.04,0.07,1.01,-0.18,0.28,0.36,
2.135,0.04,0.07,1.01,-0.18,0.28,0.36,
2.138,0.03,0.07,1.00,-0.18,0.28,0.36,
2.142,0.03,0.07,1.00,-0.26,0.18,0.24,
2.142,0.03,0.07,1.00,-0.26,0.18,0.24,
2.142,0.03,0.06,1.00,-0.26,0.18,0.24,
2.142,0.03,0.06,1.00,-0.31,0.10,0.10,
2.144,0.03,0.06,1.00,-0.31,0.10,0.10,
2.147,0.03,0.06,1.00,-0.31,0.10,0.10,
2.147,0.03,0.06,1.00,-0.32,0.04,0.06,
2.149,0.04,0.07,0.99,-0.32,0.04,0.06,
2.152,0.04,0.07,0.99,-0.32,0.02,0.03,
2.153,0.05,0.07,0.99,-0.32,0.02,0.03,
