
time,gFx,gFy,gFz,ax,ay,az,
0.004,-0.04,0.06,1.01,-0.33,0.10,0.25,
0.004,-0.04,0.06,1.01,-0.32,0.07,0.15,
0.004,-0.05,0.06,1.00,-0.32,0.07,0.15,
0.005,-0.04,0.07,0.99,-0.32,0.07,0.15,
0.005,-0.04,0.07,0.99,-0.32,0.10,0.07,
0.005,-0.04,0.07,1.00,-0.32,0.10,0.07,
0.005,-0.03,0.07,0.99,-0.32,0.10,0.07,
0.006,-0.03,0.07,0.99,-0.29,0.12,-0.06,
0.008,-0.03,0.07,0.99,-0.29,0.12,-0.06,
0.01,-0.03,0.07,0.99,-0.29,0.12,-0.06,
0.01,-0.03,0.07,0.99,-0.21,0.14,-0.06,
0.013,-0.02,0.07,0.98,-0.21,0.14,-0.06,
0.015,-0.02,0.07,0.98,-0.21,0.14,-0.06,
0.015,-0.02,0.07,0.98,-0.17,0.13,-0.09,
0.017,-0.02,0.07,0.98,-0.17,0.13,-0.09,
0.026,-0.02,0.07,0.97,-0.17,0.13,-0.09,
0.026,-0.02,0.07,0.97,-0.08,0.15,-0.19,
0.027,-0.02,0.07,0.97,-0.08,0.15,-0.19,
0.027,-0.01,0.07,0.98,-0.08,0.15,-0.19,
0.027,-0.01,0.07,0.98,-0.02,0.15,-0.24,
0.027,-0.01,0.07,0.98,-0.02,0.15,-0.24,
0.03,-0.01,0.07,0.98,-0.02,0.15,-0.24,
0.031,-0.01,0.07,0.98,0.01,0.11,-0.25,
0.032,-0.01,0.07,0.98,0.01,0.11,-0.25,
0.047,-0.00,0.07,0.98,0.01,0.11,-0.25,
0.048,-0.00,0.07,0.98,0.06,0.13,-0.21,
0.048,0.00,0.07,0.98,0.06,0.13,-0.21,
0.049,-0.00,0.07,0.98,0.06,0.13,-0.21,
0.049,-0.00,0.07,0.98,0.09,0.15,-0.23,
0.049,-0.00,0.07,0.98,0.09,0.15,-0.23,
0.049,0.00,0.07,0.98,0.09,0.15,-0.23,
0.05,0.00,0.07,0.98,0.14,0.15,-0.23,
0.05,0.00,0.07,0.98,0.14,0.15,-0.23,
0.05,0.00,0.07,0.98,0.14,0.15,-0.21,
0.05,0.00,0.07,0.98,0.14,0.15,-0.21,
0.061,0.00,0.07,0.98,0.14,0.15,-0.21,
0.062,0.00,0.06,0.99,0.14,0.15,-0.21,
0.062,0.00,0.06,0.99,0.16,0.09,-0.17,
0.062,-0.00,0.06,0.99,0.16,0.09,-0.17,
0.063,0.00,0.06,0.98,0.16,0.09,-0.17,
0.063,0.00,0.06,0.98,0.15,0.08,-0.14,
0.063,0.01,0.05,0.99,0.15,0.08,-0.14,
0.064,0.00,0.05,1.00,0.15,0.08,-0.14,
0.065,0.00,0.05,1.00,0.16,0.02,-0.11,
0.067,0.01,0.05,1.01,0.16,0.02,-0.11,
0.075,0.01,0.05,1.01,0.16,0.02,-0.11,
0.076,0.01,0.05,1.01,0.18,-0.04,-0.01,
0.076,0.01,0.04,1.01,0.18,-0.04,-0.01,
0.076,0.01,0.04,1.01,0.20,-0.11,0.09,
0.077,0.01,0.05,1.02,0.20,-0.11,0.09,
0.077,0.01,0.05,1.02,0.20,-0.11,0.09,
0.079,0.01,0.05,1.03,0.20,-0.11,0.09,
0.079,0.01,0.05,1.03,0.23,-0.11,0.15,
0.082,0.01,0.04,1.02,0.23,-0.11,0.15,
0.084,0.01,0.04,1.01,0.23,-0.11,0.15,
0.084,0.01,0.04,1.01,0.24,-0.07,0.23,
0.093,0.01,0.04,1.02,0.24,-0.07,0.23,
0.094,0.01,0.04,1.02,0.24,-0.07,0.23,
0.094,0.01,0.04,1.02,0.23,-0.13,0.16,
0.094,0.00,0.04,1.02,0.23,-0.13,0.16,
0.094,0.00,0.04,1.02,0.23,-0.13,0.16,
0.094,0.00,0.04,1.02,0.21,-0.14,0.21,
0.097,-0.00,0.04,1.02,0.21,-0.14,0.21,
0.099,0.00,0.04,1.01,0.21,-0.14,0.21,
0.099,0.00,0.04,1.01,0.13,-0.14,0.18,
0.111,0.00,0.04,1.01,0.13,-0.14,0.18,
0.111,0.00,0.05,1.00,0.13,-0.14,0.18,
0.112,0.00,0.05,1.00,0.12,-0.11,0.14,
0.112,0.00,0.05,1.00,0.12,-0.11,0.14,
0.112,-0.00,0.06,1.00,0.12,-0.11,0.14,
0.112,-0.00,0.06,1.00,0.12,-0.10,0.06,
0.112,-0.00,0.06,0.99,0.12,-0.10,0.06,
0.113,-0.01,0.06,0.99,0.12,-0.10,0.06,
0.114,-0.01,0.06,0.99,0.11,-0.01,-0.03,
0.116,-0.00,0.06,0.98,0.11,-0.01,-0.03,
0.118,-0.00,0.06,0.98,0.11,-0.01,-0.03,
0.119,-0.00,0.06,0.98,0.05,0.04,-0.10,
0.126,-0.00,0.06,0.98,0.05,0.04,-0.10,
0.126,-0.00,0.06,0.98,0.06,0.04,-0.18,
0.127,0.00,0.06,0.98,0.06,0.04,-0.18,
0.127,0.01,0.07,0.97,0.06,0.04,-0.18,
0.128,0.01,0.07,0.97,0.06,0.04,-0.18,
0.128,0.01,0.07,0.97,0.08,0.06,-0.20,
0.131,0.01,0.07,0.97,0.08,0.06,-0.20,
0.133,0.01,0.07,0.97,0.17,0.11,-0.25,
0.133,0.02,0.07,0.97,0.17,0.11,-0.25,
0.149,0.03,0.07,0.97,0.17,0.11,-0.25,
0.149,0.03,0.07,0.97,0.17,0.11,-0.25,
0.15,0.03,0.07,0.97,0.23,0.13,-0.31,
0.15,0.03,0.07,0.97,0.23,0.13,-0.31,
0.15,0.04,0.07,0.97,0.23,0.13,-0.31,
0.15,0.04,0.07,0.97,0.36,0.11,-0.26,
0.15,0.04,0.06,0.97,0.36,0.11,-0.26,
0.151,0.05,0.07,0.97,0.36,0.11,-0.26,
0.151,0.05,0.07,0.97,0.47,0.08,-0.31,
0.151,0.05,0.06,0.98,0.47,0.08,-0.31,
0.159,0.06,0.06,0.99,0.47,0.08,-0.31,
0.159,0.06,0.06,0.99,0.55,0.09,-0.25,
0.16,0.06,0.06,0.98,0.55,0.09,-0.25,
0.16,0.07,0.06,0.98,0.55,0.09,-0.25,
0.162,0.07,0.06,0.98,0.63,0.01,-0.14,
0.162,0.07,0.05,0.99,0.63,0.01,-0.14,
0.163,0.08,0.05,0.99,0.63,0.01,-0.14,
0.163,0.08,0.05,0.99,0.72,0.00,-0.14,
0.165,0.08,0.05,0.99,0.72,0.00,-0.14,
0.168,0.08,0.05,0.99,0.72,0.00,-0.14,
0.178,0.08,0.05,0.99,0.79,-0.03,-0.11,
0.178,0.09,0.05,1.00,0.79,-0.03,-0.11,
0.179,0.09,0.04,1.00,0.79,-0.03,-0.11,
0.179,0.09,0.04,1.00,0.82,-0.07,-0.08,
0.179,0.09,0.05,1.00,0.82,-0.07,-0.08,
0.179,0.10,0.05,1.00,0.82,-0.07,-0.08,
0.18,0.10,0.05,1.00,0.89,-0.13,0.02,
0.18,0.11,0.04,1.00,0.89,-0.13,0.02,
0.182,0.11,0.04,1.00,0.89,-0.13,0.02,
0.183,0.11,0.04,1.00,0.98,-0.10,0.02,
0.193,0.12,0.04,1.00,0.98,-0.10,0.02,
0.193,0.12,0.03,0.99,0.98,-0.10,0.02,
0.194,0.12,0.03,0.99,1.07,-0.15,0.03,
0.194,0.12,0.03,0.99,1.07,-0.15,0.03,
0.194,0.12,0.03,0.99,1.07,-0.15,0.03,
0.194,0.12,0.03,0.99,1.15,-0.21,-0.03,
0.195,0.12,0.03,1.00,1.15,-0.21,-0.03,
0.197,0.13,0.03,0.99,1.15,-0.21,-0.03,
0.198,0.13,0.03,0.99,1.17,-0.24,-0.07,
0.2,0.13,0.03,0.99,1.17,-0.24,-0.07,
0.207,0.13,0.03,0.98,1.17,-0.24,-0.07,
0.208,0.13,0.03,0.98,1.23,-0.24,-0.03,
0.208,0.13,0.03,0.98,1.23,-0.24,-0.03,
0.208,0.13,0.04,0.98,1.23,-0.24,-0.03,
0.209,0.13,0.04,0.98,1.22,-0.21,-0.12,
0.21,0.13,0.04,0.97,1.22,-0.21,-0.12,
0.212,0.12,0.04,0.97,1.22,-0.21,-0.12,
0.213,0.12,0.04,0.97,1.21,-0.20,-0.18,
0.215,0.13,0.04,0.96,1.21,-0.20,-0.18,
0.217,0.12,0.04,0.95,1.21,-0.20,-0.18,
0.217,0.12,0.04,0.95,1.19,-0.17,-0.28,
0.225,0.12,0.04,0.96,1.19,-0.17,-0.28,
0.225,0.12,0.04,0.95,1.19,-0.17,-0.28,
0.225,0.12,0.04,0.95,1.14,-0.15,-0.41,
0.226,0.12,0.05,0.94,1.14,-0.15,-0.41,
0.227,0.12,0.05,0.94,1.14,-0.15,-0.41,
0.227,0.12,0.05,0.94,1.11,-0.13,-0.44,
0.229,0.13,0.05,0.94,1.11,-0.13,-0.44,
0.232,0.13,0.05,0.93,1.11,-0.13,-0.44,
0.232,0.13,0.05,0.93,1.09,-0.09,-0.54,
0.234,0.13,0.05,0.93,1.09,-0.09,-0.54,
0.24,0.13,0.04,0.92,1.09,-0.09,-0.54,
0.241,0.13,0.04,0.92,1.16,-0.09,-0.61,
0.241,0.14,0.04,0.92,1.16,-0.09,-0.61,
0.242,0.14,0.03,0.91,1.16,-0.09,-0.61,
0.242,0.14,0.03,0.91,1.18,-0.11,-0.68,
0.244,0.14,0.03,0.90,1.18,-0.11,-0.68,
0.248,0.14,0.03,0.91,1.18,-0.11,-0.68,
0.248,0.14,0.03,0.91,1.22,-0.20,-0.77,
0.25,0.15,0.03,0.91,1.22,-0.20,-0.77,
0.263,0.15,0.03,0.91,1.22,-0.20,-0.77,
0.264,0.15,0.03,0.91,1.26,-0.27,-0.86,
0.264,0.16,0.03,0.90,1.26,-0.27,-0.86,
0.264,0.17,0.03,0.91,1.26,-0.27,-0.86,
0.265,0.17,0.03,0.91,1.30,-0.28,-0.85,
0.265,0.17,0.03,0.91,1.30,-0.28,-0.85,
0.265,0.17,0.03,0.91,1.30,-0.28,-0.85,
0.265,0.17,0.03,0.91,1.41,-0.26,-0.85,
0.266,0.17,0.04,0.91,1.41,-0.26,-0.85,
0.267,0.17,0.04,0.91,1.41,-0.26,-0.85,
0.267,0.17,0.04,0.91,1.47,-0.21,-0.83,
0.277,0.16,0.04,0.91,1.47,-0.21,-0.83,
0.277,0.16,0.04,0.92,1.47,-0.21,-0.83,
0.277,0.16,0.04,0.92,1.45,-0.16,-0.80,
0.278,0.16,0.03,0.92,1.45,-0.16,-0.80,
0.278,0.15,0.03,0.91,1.45,-0.16,-0.80,
0.278,0.15,0.03,0.91,1.40,-0.15,-0.74,
0.279,0.15,0.03,0.92,1.40,-0.15,-0.74,
0.282,0.14,0.02,0.92,1.40,-0.15,-0.74,
0.282,0.14,0.02,0.92,1.31,-0.20,-0.73,
0.284,0.14,0.02,0.91,1.31,-0.20,-0.73,
0.294,0.14,0.01,0.91,1.31,-0.20,-0.73,
0.295,0.14,0.01,0.91,1.20,-0.27,-0.68,
0.295,0.14,0.01,0.92,1.20,-0.27,-0.68,
0.295,0.14,0.01,0.92,1.20,-0.27,-0.68,
0.296,0.14,0.01,0.92,1.16,-0.32,-0.73,
0.296,0.14,0.02,0.92,1.16,-0.32,-0.73,
0.296,0.14,0.02,0.92,1.11,-0.35,-0.68,
0.297,0.14,0.02,0.92,1.11,-0.35,-0.68,
0.299,0.14,0.01,0.92,1.11,-0.35,-0.68,
0.308,0.13,0.01,0.92,1.11,-0.35,-0.68,
0.309,0.13,0.01,0.92,1.13,-0.32,-0.69,
0.309,0.13,0.01,0.92,1.13,-0.32,-0.69,
0.309,0.12,0.01,0.91,1.13,-0.32,-0.69,
0.31,0.12,0.01,0.91,1.10,-0.34,-0.69,
0.31,0.12,0.01,0.91,1.10,-0.34,-0.69,
0.312,0.13,0.01,0.92,1.10,-0.34,-0.69,
0.312,0.13,0.01,0.92,1.00,-0.35,-0.71,
0.314,0.12,0.01,0.92,1.00,-0.35,-0.71,
0.317,0.12,0.00,0.92,1.00,-0.35,-0.71,
0.317,0.12,0.00,0.92,0.99,-0.37,-0.70,
0.325,0.12,-0.00,0.92,0.99,-0.37,-0.70,
0.325,0.12,-0.00,0.92,0.95,-0.40,-0.66,
0.326,0.12,-0.00,0.93,0.95,-0.40,-0.66,
0.329,0.12,-0.00,0.93,0.95,-0.40,-0.66,
0.329,0.11,0.00,0.92,0.95,-0.40,-0.66,
0.33,0.11,0.00,0.92,0.90,-0.44,-0.59,
0.33,0.11,0.00,0.93,0.90,-0.44,-0.59,
0.332,0.11,0.00,0.93,0.90,-0.44,-0.59,
0.332,0.11,0.00,0.93,0.89,-0.42,-0.59,
0.334,0.11,0.00,0.94,0.89,-0.42,-0.59,
0.342,0.10,0.00,0.94,0.89,-0.42,-0.59,
0.343,0.10,0.00,0.94,0.83,-0.38,-0.54,
0.345,0.10,0.00,0.94,0.83,-0.38,-0.54,
0.345,0.10,0.00,0.94,0.83,-0.38,-0.54,
0.345,0.10,0.00,0.94,0.78,-0.36,-0.46,
0.345,0.10,0.01,0.94,0.78,-0.36,-0.46,
0.346,0.10,0.01,0.94,0.75,-0.34,-0.46,
0.346,0.10,0.01,0.95,0.75,-0.34,-0.46,
0.348,0.10,0.01,0.95,0.75,-0.34,-0.46,
0.351,0.10,0.01,0.95,0.75,-0.34,-0.46,
0.351,0.10,0.01,0.95,0.74,-0.30,-0.37,
0.359,0.09,0.01,0.95,0.74,-0.30,-0.37,
0.36,0.09,0.01,0.96,0.74,-0.30,-0.37,
0.36,0.09,0.01,0.96,0.74,-0.24,-0.36,
0.36,0.10,0.01,0.96,0.74,-0.24,-0.36,
0.361,0.10,0.01,0.96,0.74,-0.24,-0.36,
0.361,0.10,0.01,0.96,0.67,-0.26,-0.28,
0.364,0.09,0.00,0.96,0.67,-0.26,-0.28,
0.366,0.09,0.00,0.96,0.71,-0.26,-0.24,
0.366,0.09,0.01,0.96,0.71,-0.26,-0.24,
0.369,0.09,0.00,0.96,0.71,-0.26,-0.24,
0.376,0.09,0.00,0.96,0.71,-0.26,-0.24,
0.376,0.09,0.00,0.96,0.63,-0.27,-0.20,
0.377,0.09,-0.00,0.96,0.63,-0.27,-0.20,
0.377,0.09,-0.00,0.95,0.63,-0.27,-0.20,
0.377,0.09,-0.00,0.95,0.64,-0.30,-0.23,
0.379,0.09,-0.00,0.94,0.64,-0.30,-0.23,
0.381,0.09,-0.00,0.93,0.64,-0.30,-0.23,
0.382,0.09,-0.00,0.93,0.61,-0.33,-0.27,
0.384,0.08,-0.01,0.93,0.61,-0.33,-0.27,
0.386,0.08,-0.01,0.92,0.61,-0.33,-0.27,
0.386,0.08,-0.01,0.92,0.55,-0.32,-0.45,
0.393,0.08,-0.01,0.91,0.55,-0.32,-0.45,
0.394,0.08,-0.02,0.90,0.55,-0.32,-0.45,
0.394,0.08,-0.02,0.90,0.47,-0.42,-0.55,
0.394,0.09,-0.02,0.88,0.47,-0.42,-0.55,
0.396,0.09,-0.02,0.88,0.47,-0.44,-0.79,
0.396,0.09,-0.02,0.88,0.47,-0.44,-0.79,
0.399,0.09,-0.02,0.87,0.47,-0.44,-0.79,
0.401,0.09,-0.02,0.87,0.52,-0.47,-1.01,
0.401,0.09,-0.02,0.86,0.52,-0.47,-1.01,
0.409,0.08,-0.01,0.86,0.52,-0.47,-1.01,
0.41,0.09,-0.02,0.85,0.52,-0.47,-1.01,
0.41,0.09,-0.02,0.85,0.51,-0.45,-1.10,
0.41,0.08,-0.01,0.85,0.51,-0.45,-1.10,
0.41,0.07,-0.02,0.85,0.51,-0.45,-1.10,
0.41,0.07,-0.02,0.85,0.48,-0.42,-1.22,
0.414,0.07,-0.02,0.84,0.48,-0.42,-1.22,
0.416,0.07,-0.03,0.84,0.48,-0.42,-1.22,
0.416,0.07,-0.03,0.84,0.37,-0.40,-1.27,
0.418,0.06,-0.03,0.84,0.37,-0.40,-1.27,
0.424,0.06,-0.03,0.84,0.37,-0.40,-1.27,
0.424,0.06,-0.03,0.84,0.30,-0.47,-1.37,
0.425,0.06,-0.03,0.85,0.30,-0.47,-1.37,
0.425,0.06,-0.02,0.85,0.30,-0.47,-1.37,
0.426,0.06,-0.02,0.85,0.22,-0.50,-1.32,
0.428,0.07,-0.02,0.86,0.22,-0.50,-1.32,
0.431,0.07,-0.03,0.86,0.22,-0.50,-1.32,
0.431,0.07,-0.03,0.86,0.25,-0.44,-1.25,
0.433,0.07,-0.03,0.87,0.25,-0.44,-1.25,
0.436,0.07,-0.03,0.88,0.25,-0.44,-1.25,
0.436,0.07,-0.03,0.88,0.30,-0.46,-1.13,
0.441,0.07,-0.03,0.88,0.30,-0.46,-1.13,
0.442,0.07,-0.03,0.88,0.30,-0.46,-1.13,
0.442,0.07,-0.03,0.88,0.27,-0.49,-1.00,
0.443,0.07,-0.03,0.89,0.27,-0.49,-1.00,
0.446,0.07,-0.03,0.89,0.26,-0.44,-0.96,
0.446,0.08,-0.03,0.89,0.26,-0.44,-0.96,
0.448,0.08,-0.03,0.90,0.26,-0.44,-0.96,
0.451,0.08,-0.03,0.90,0.26,-0.44,-0.96,
0.451,0.08,-0.03,0.90,0.34,-0.44,-0.86,
0.453,0.08,-0.03,0.90,0.34,-0.44,-0.86,
0.464,0.08,-0.04,0.90,0.34,-0.44,-0.86,
0.465,0.08,-0.04,0.90,0.36,-0.46,-0.76,
0.465,0.08,-0.04,0.90,0.36,-0.46,-0.76,
0.465,0.08,-0.04,0.90,0.36,-0.46,-0.76,
0.465,0.08,-0.04,0.90,0.35,-0.49,-0.71,
0.466,0.07,-0.03,0.91,0.35,-0.49,-0.71,
0.466,0.07,-0.03,0.90,0.35,-0.49,-0.71,
0.466,0.07,-0.03,0.90,0.36,-0.50,-0.71,
0.467,0.07,-0.03,0.90,0.36,-0.50,-0.71,
0.479,0.07,-0.03,0.90,0.36,-0.50,-0.71,
0.48,0.07,-0.03,0.90,0.28,-0.46,-0.69,
0.481,0.07,-0.02,0.89,0.28,-0.46,-0.69,
0.481,0.06,-0.02,0.88,0.28,-0.46,-0.69,
0.481,0.06,-0.02,0.88,0.27,-0.43,-0.70,
0.481,0.06,-0.02,0.88,0.27,-0.43,-0.70,
0.481,0.06,-0.02,0.88,0.27,-0.43,-0.70,
0.482,0.06,-0.02,0.88,0.20,-0.33,-0.82,
0.483,0.05,-0.02,0.87,0.20,-0.33,-0.82,
0.484,0.05,-0.01,0.87,0.20,-0.33,-0.82,
0.485,0.05,-0.01,0.87,0.10,-0.31,-0.87,
0.496,0.05,-0.01,0.87,0.10,-0.31,-0.87,
0.499,0.04,-0.01,0.86,0.10,-0.31,-0.87,
0.499,0.04,-0.01,0.86,0.04,-0.28,-0.97,
0.5,0.04,-0.01,0.86,0.04,-0.28,-0.97,
0.5,0.04,-0.01,0.86,-0.00,-0.22,-1.03,
0.5,0.03,-0.01,0.85,-0.00,-0.22,-1.03,
0.5,0.03,-0.00,0.85,-0.00,-0.22,-1.03,
0.5,0.02,0.00,0.86,-0.00,-0.22,-1.03,
0.501,0.02,0.00,0.86,-0.10,-0.20,-1.13,
0.502,0.02,0.01,0.85,-0.10,-0.20,-1.13,
0.511,0.01,0.01,0.85,-0.10,-0.20,-1.13,
0.512,0.01,0.01,0.85,-0.18,-0.14,-1.11,
0.512,0.01,0.01,0.85,-0.18,-0.14,-1.11,
0.512,0.01,0.02,0.84,-0.18,-0.14,-1.11,
0.513,0.01,0.02,0.84,-0.26,-0.05,-1.17,
0.513,0.00,0.02,0.84,-0.26,-0.05,-1.17,
0.515,-0.00,0.02,0.83,-0.26,-0.05,-1.17,
0.515,-0.00,0.02,0.83,-0.30,0.01,-1.17,
0.517,-0.01,0.03,0.82,-0.30,0.01,-1.17,
0.519,-0.01,0.03,0.83,-0.30,0.01,-1.17,
0.519,-0.01,0.03,0.83,-0.40,0.07,-1.25,
0.524,-0.01,0.03,0.82,-0.40,0.07,-1.25,
0.525,-0.03,0.03,0.81,-0.40,0.07,-1.25,
0.526,-0.03,0.03,0.81,-0.47,0.11,-1.37,
0.527,-0.03,0.02,0.80,-0.47,0.11,-1.37,
0.529,-0.04,0.02,0.80,-0.47,0.11,-1.37,
0.529,-0.04,0.02,0.80,-0.57,0.06,-1.45,
0.532,-0.05,0.01,0.79,-0.57,0.06,-1.45,
0.534,-0.05,0.01,0.78,-0.57,0.06,-1.45,
0.535,-0.05,0.01,0.78,-0.72,-0.02,-1.57,
0.541,-0.06,0.02,0.77,-0.72,-0.02,-1.57,
0.542,-0.07,0.02,0.77,-0.72,-0.02,-1.57,
0.542,-0.07,0.02,0.77,-0.86,-0.10,-1.71,
0.542,-0.08,0.03,0.76,-0.86,-0.10,-1.71,
0.544,-0.08,0.03,0.76,-0.86,-0.10,-1.71,
0.544,-0.08,0.03,0.76,-1.02,-0.02,-1.87,
0.547,-0.09,0.03,0.75,-1.02,-0.02,-1.87,
0.549,-0.09,0.03,0.74,-1.02,-0.02,-1.87,
0.55,-0.09,0.03,0.74,-1.14,0.02,-1.96,
0.552,-0.10,0.03,0.74,-1.14,0.02,-1.96,
0.558,-0.10,0.04,0.74,-1.14,0.02,-1.96,
0.559,-0.10,0.04,0.74,-1.26,0.04,-2.07,
0.559,-0.10,0.04,0.75,-1.26,0.04,-2.07,
0.559,-0.10,0.04,0.75,-1.26,0.04,-2.07,
0.559,-0.10,0.04,0.75,-1.31,0.07,-2.10,
0.562,-0.11,0.03,0.75,-1.31,0.07,-2.10,
0.564,-0.11,0.03,0.75,-1.36,0.11,-2.01,
0.565,-0.11,0.04,0.76,-1.36,0.11,-2.01,
0.567,-0.11,0.03,0.77,-1.36,0.11,-2.01,
0.57,-0.11,0.03,0.78,-1.36,0.11,-2.01,
0.57,-0.11,0.03,0.78,-1.40,0.08,-1.93,
0.578,-0.10,0.03,0.79,-1.40,0.08,-1.93,
0.579,-0.10,0.03,0.80,-1.40,0.08,-1.93,
0.579,-0.10,0.03,0.80,-1.40,0.06,-1.77,
0.579,-0.09,0.03,0.82,-1.40,0.06,-1.77,
0.58,-0.09,0.03,0.83,-1.40,0.06,-1.77,
0.58,-0.09,0.03,0.83,-1.32,0.04,-1.56,
0.582,-0.09,0.03,0.85,-1.32,0.04,-1.56,
0.584,-0.09,0.03,0.85,-1.32,0.04,-1.56,
0.584,-0.09,0.03,0.85,-1.29,0.06,-1.27,
0.587,-0.09,0.03,0.86,-1.29,0.06,-1.27,
0.594,-0.09,0.02,0.87,-1.29,0.06,-1.27,
0.595,-0.09,0.02,0.87,-1.28,0.02,-1.01,
0.595,-0.08,0.01,0.87,-1.28,0.02,-1.01,
0.595,-0.08,0.00,0.89,-1.28,0.02,-1.01,
0.595,-0.08,0.00,0.89,-1.23,-0.04,-0.86,
0.597,-0.07,0.00,0.88,-1.23,-0.04,-0.86,
0.599,-0.07,-0.00,0.88,-1.23,-0.04,-0.86,
0.599,-0.07,-0.00,0.88,-1.16,-0.19,-0.72,
0.601,-0.07,-0.00,0.88,-1.16,-0.19,-0.72,
0.604,-0.07,-0.00,0.87,-1.16,-0.19,-0.72,
0.604,-0.07,-0.00,0.87,-1.07,-0.27,-0.68,
0.612,-0.07,0.00,0.86,-1.07,-0.27,-0.68,
0.612,-0.08,0.01,0.84,-1.07,-0.27,-0.68,
0.613,-0.08,0.01,0.84,-1.02,-0.30,-0.75,
0.613,-0.09,0.01,0.83,-1.02,-0.30,-0.75,
0.614,-0.09,0.01,0.83,-1.08,-0.26,-0.99,
0.614,-0.10,0.01,0.82,-1.08,-0.26,-0.99,
0.616,-0.11,0.01,0.81,-1.08,-0.26,-0.99,
0.619,-0.12,0.02,0.81,-1.08,-0.26,-0.99,
0.619,-0.12,0.02,0.81,-1.27,-0.23,-1.19,
0.627,-0.14,0.02,0.80,-1.27,-0.23,-1.19,
0.627,-0.15,0.03,0.79,-1.27,-0.23,-1.19,
0.627,-0.15,0.03,0.79,-1.46,-0.16,-1.38,
0.628,-0.16,0.04,0.78,-1.46,-0.16,-1.38,
0.628,-0.18,0.04,0.77,-1.46,-0.16,-1.38,
0.629,-0.18,0.04,0.77,-1.71,-0.09,-1.51,
0.631,-0.20,0.05,0.78,-1.71,-0.09,-1.51,
0.634,-0.21,0.05,0.78,-1.71,-0.09,-1.51,
0.634,-0.21,0.05,0.78,-1.92,0.03,-1.66,
0.636,-0.23,0.05,0.77,-1.92,0.03,-1.66,
0.642,-0.25,0.05,0.77,-1.92,0.03,-1.66,
0.643,-0.25,0.05,0.77,-2.24,0.07,-1.65,
0.643,-0.27,0.04,0.78,-2.24,0.07,-1.65,
0.643,-0.27,0.04,0.78,-2.54,0.09,-1.71,
0.644,-0.28,0.04,0.78,-2.54,0.09,-1.71,
0.646,-0.29,0.04,0.79,-2.54,0.09,-1.71,
0.649,-0.30,0.03,0.79,-2.54,0.09,-1.71,
0.649,-0.30,0.03,0.79,-2.87,0.03,-1.63,
0.651,-0.31,0.03,0.80,-2.87,0.03,-1.63,
0.653,-0.31,0.03,0.80,-3.07,-0.03,-1.52,
0.656,-0.31,0.02,0.81,-3.07,-0.03,-1.52,
0.656,-0.32,0.00,0.82,-3.07,-0.03,-1.52,
0.659,-0.32,0.00,0.82,-3.19,-0.14,-1.35,
0.659,-0.32,-0.00,0.83,-3.19,-0.14,-1.35,
0.66,-0.31,-0.01,0.83,-3.19,-0.14,-1.35,
0.663,-0.31,-0.02,0.84,-3.19,-0.14,-1.35,
0.663,-0.31,-0.02,0.84,-3.24,-0.33,-1.14,
0.665,-0.31,-0.03,0.85,-3.24,-0.33,-1.14,
0.668,-0.30,-0.04,0.85,-3.24,-0.33,-1.14,
0.668,-0.30,-0.04,0.85,-3.16,-0.49,-1.09,
0.676,-0.29,-0.04,0.86,-3.16,-0.49,-1.09,
0.676,-0.27,-0.04,0.86,-3.16,-0.49,-1.09,
0.677,-0.27,-0.04,0.86,-3.07,-0.66,-0.89,
0.677,-0.26,-0.05,0.87,-3.07,-0.66,-0.89,
0.677,-0.24,-0.04,0.87,-3.07,-0.66,-0.89,
0.679,-0.24,-0.04,0.87,-2.83,-0.68,-0.80,
0.68,-0.23,-0.04,0.87,-2.83,-0.68,-0.80,
0.682,-0.23,-0.04,0.87,-2.54,-0.68,-0.73,
0.683,-0.23,-0.03,0.87,-2.54,-0.68,-0.73,
0.685,-0.22,-0.03,0.87,-2.54,-0.68,-0.73,
0.698,-0.22,-0.03,0.87,-2.54,-0.68,-0.73,
0.699,-0.22,-0.03,0.87,-2.30,-0.55,-0.76,
0.699,-0.22,-0.03,0.87,-2.30,-0.55,-0.76,
0.7,-0.22,-0.02,0.87,-2.30,-0.55,-0.76,
0.7,-0.22,-0.02,0.87,-2.21,-0.49,-0.70,
0.7,-0.23,-0.03,0.87,-2.21,-0.49,-0.70,
0.701,-0.23,-0.02,0.87,-2.21,-0.49,-0.70,
0.701,-0.23,-0.02,0.87,-2.22,-0.42,-0.69,
0.701,-0.23,-0.02,0.87,-2.22,-0.42,-0.69,
0.702,-0.24,-0.02,0.88,-2.22,-0.42,-0.69,
0.702,-0.24,-0.02,0.88,-2.25,-0.37,-0.71,
0.711,-0.26,-0.02,0.88,-2.25,-0.37,-0.71,
0.711,-0.27,-0.02,0.89,-2.25,-0.37,-0.71,
0.712,-0.27,-0.02,0.89,-2.32,-0.35,-0.67,
0.712,-0.28,-0.02,0.89,-2.32,-0.35,-0.67,
0.712,-0.29,-0.02,0.89,-2.32,-0.35,-0.67,
0.712,-0.29,-0.02,0.89,-2.55,-0.28,-0.58,
0.715,-0.30,-0.02,0.90,-2.55,-0.28,-0.58,
0.717,-0.30,-0.02,0.91,-2.55,-0.28,-0.58,
0.717,-0.30,-0.02,0.91,-2.69,-0.23,-0.50,
0.719,-0.31,-0.02,0.92,-2.69,-0.23,-0.50,
0.729,-0.32,-0.03,0.93,-2.69,-0.23,-0.50,
0.73,-0.32,-0.03,0.93,-2.83,-0.24,-0.34,
0.73,-0.33,-0.03,0.95,-2.83,-0.24,-0.34,
0.73,-0.33,-0.04,0.96,-2.83,-0.24,-0.34,
0.731,-0.33,-0.04,0.96,-2.95,-0.22,-0.15,
0.731,-0.34,-0.04,0.97,-2.95,-0.22,-0.15,
0.732,-0.36,-0.05,0.99,-2.95,-0.22,-0.15,
0.732,-0.36,-0.05,0.99,-3.02,-0.27,0.12,
0.734,-0.37,-0.06,1.00,-3.02,-0.27,0.12,
0.737,-0.38,-0.07,1.02,-3.02,-0.27,0.12,
0.737,-0.38,-0.07,1.02,-3.19,-0.33,0.40,
0.745,-0.38,-0.08,1.03,-3.19,-0.33,0.40,
0.746,-0.39,-0.08,1.05,-3.19,-0.33,0.40,
0.746,-0.39,-0.08,1.05,-3.39,-0.48,0.67,
0.746,-0.39,-0.10,1.07,-3.39,-0.48,0.67,
0.747,-0.39,-0.10,1.09,-3.39,-0.48,0.67,
0.747,-0.39,-0.10,1.09,-3.47,-0.58,0.99,
0.749,-0.39,-0.12,1.10,-3.47,-0.58,0.99,
0.752,-0.39,-0.13,1.12,-3.47,-0.58,0.99,
0.753,-0.39,-0.13,1.12,-3.46,-0.70,1.36,
0.759,-0.38,-0.14,1.13,-3.46,-0.70,1.36,
0.76,-0.38,-0.15,1.14,-3.46,-0.70,1.36,
0.76,-0.38,-0.15,1.14,-3.44,-0.85,1.65,
0.76,-0.37,-0.15,1.15,-3.44,-0.85,1.65,
0.762,-0.36,-0.16,1.16,-3.44,-0.85,1.65,
0.762,-0.36,-0.16,1.16,-3.36,-0.99,1.88,
0.764,-0.35,-0.17,1.17,-3.36,-0.99,1.88,
0.767,-0.34,-0.17,1.18,-3.36,-0.99,1.88,
0.767,-0.34,-0.17,1.18,-3.19,-1.09,2.10,
0.769,-0.32,-0.17,1.19,-3.19,-1.09,2.10,
0.776,-0.31,-0.17,1.20,-3.19,-1.09,2.10,
0.777,-0.31,-0.17,1.20,-2.98,-1.14,2.27,
0.777,-0.31,-0.18,1.21,-2.98,-1.14,2.27,
0.777,-0.30,-0.17,1.22,-2.98,-1.14,2.27,
0.778,-0.30,-0.17,1.22,-2.72,-1.12,2.49,
0.779,-0.30,-0.18,1.22,-2.72,-1.12,2.49,
0.781,-0.30,-0.18,1.23,-2.72,-1.12,2.49,
0.782,-0.30,-0.18,1.23,-2.59,-1.12,2.64,
0.784,-0.29,-0.18,1.24,-2.59,-1.12,2.64,
0.786,-0.30,-0.18,1.24,-2.59,-1.12,2.64,
0.786,-0.30,-0.18,1.24,-2.49,-1.10,2.71,
0.799,-0.30,-0.18,1.24,-2.49,-1.10,2.71,
0.799,-0.29,-0.17,1.24,-2.49,-1.10,2.71,
0.8,-0.29,-0.17,1.24,-2.44,-1.08,2.85,
0.8,-0.29,-0.17,1.24,-2.44,-1.08,2.85,
0.8,-0.30,-0.17,1.23,-2.44,-1.08,2.85,
0.801,-0.30,-0.17,1.23,-2.40,-0.97,2.88,
0.801,-0.30,-0.16,1.22,-2.40,-0.97,2.88,
0.801,-0.31,-0.15,1.22,-2.40,-0.97,2.88,
0.801,-0.31,-0.15,1.22,-2.38,-0.90,2.79,
0.804,-0.31,-0.14,1.22,-2.38,-0.90,2.79,
0.813,-0.31,-0.13,1.21,-2.38,-0.90,2.79,
0.813,-0.31,-0.13,1.21,-2.44,-0.74,2.69,
0.813,-0.31,-0.13,1.20,-2.44,-0.74,2.69,
0.814,-0.32,-0.12,1.20,-2.44,-0.74,2.69,
0.814,-0.32,-0.12,1.20,-2.46,-0.53,2.57,
0.814,-0.32,-0.10,1.20,-2.46,-0.53,2.57,
0.816,-0.33,-0.09,1.18,-2.46,-0.53,2.57,
0.816,-0.33,-0.09,1.18,-2.48,-0.34,2.44,
0.819,-0.33,-0.08,1.17,-2.48,-0.34,2.44,
0.829,-0.33,-0.07,1.16,-2.48,-0.34,2.44,
0.83,-0.33,-0.07,1.16,-2.55,-0.09,2.34,
0.83,-0.33,-0.07,1.15,-2.55,-0.09,2.34,
0.831,-0.33,-0.07,1.15,-2.54,0.13,2.12,
0.831,-0.34,-0.07,1.14,-2.54,0.13,2.12,
0.831,-0.34,-0.07,1.13,-2.54,0.13,2.12,
0.832,-0.35,-0.07,1.12,-2.54,0.13,2.12,
0.832,-0.35,-0.07,1.12,-2.60,0.21,1.93,
0.834,-0.35,-0.08,1.11,-2.60,0.21,1.93,
0.836,-0.36,-0.08,1.10,-2.60,0.21,1.93,
0.836,-0.36,-0.08,1.10,-2.65,0.22,1.69,
0.844,-0.37,-0.09,1.11,-2.65,0.22,1.69,
0.845,-0.36,-0.10,1.10,-2.65,0.22,1.69,
0.845,-0.36,-0.10,1.10,-2.78,0.16,1.49,
0.845,-0.37,-0.11,1.10,-2.78,0.16,1.49,
0.846,-0.37,-0.12,1.10,-2.78,0.16,1.49,
0.847,-0.37,-0.12,1.10,-2.82,0.02,1.46,
0.848,-0.37,-0.12,1.10,-2.82,0.02,1.46,
0.851,-0.37,-0.13,1.11,-2.82,0.02,1.46,
0.851,-0.37,-0.13,1.11,-2.84,-0.10,1.43,
0.854,-0.37,-0.14,1.12,-2.84,-0.10,1.43,
0.859,-0.37,-0.15,1.12,-2.84,-0.10,1.43,
0.859,-0.37,-0.15,1.12,-2.82,-0.17,1.47,
0.86,-0.37,-0.16,1.13,-2.82,-0.17,1.47,
0.861,-0.38,-0.16,1.15,-2.82,-0.17,1.47,
0.862,-0.38,-0.16,1.15,-2.79,-0.33,1.63,
0.864,-0.38,-0.17,1.16,-2.79,-0.33,1.63,
0.866,-0.38,-0.18,1.18,-2.79,-0.33,1.63,
0.867,-0.38,-0.18,1.18,-2.86,-0.42,1.84,
0.869,-0.38,-0.19,1.19,-2.86,-0.42,1.84,
0.877,-0.38,-0.20,1.20,-2.86,-0.42,1.84,
0.877,-0.38,-0.20,1.20,-2.89,-0.53,2.15,
0.877,-0.38,-0.20,1.21,-2.89,-0.53,2.15,
0.878,-0.37,-0.20,1.23,-2.89,-0.53,2.15,
0.878,-0.37,-0.20,1.23,-2.87,-0.64,2.36,
0.878,-0.36,-0.20,1.24,-2.87,-0.64,2.36,
0.881,-0.35,-0.19,1.24,-2.87,-0.64,2.36,
0.881,-0.35,-0.19,1.24,-2.79,-0.66,2.59,
0.884,-0.34,-0.19,1.26,-2.79,-0.66,2.59,
0.886,-0.33,-0.18,1.27,-2.79,-0.66,2.59,
0.886,-0.33,-0.18,1.27,-2.62,-0.60,2.80,
0.888,-0.33,-0.16,1.28,-2.62,-0.60,2.80,
0.894,-0.32,-0.15,1.29,-2.62,-0.60,2.80,
0.894,-0.32,-0.15,1.29,-2.42,-0.44,3.06,
0.894,-0.31,-0.14,1.30,-2.42,-0.44,3.06,
0.896,-0.30,-0.13,1.30,-2.42,-0.44,3.06,
0.896,-0.30,-0.13,1.30,-2.24,-0.11,3.20,
0.898,-0.30,-0.12,1.31,-2.24,-0.11,3.20,
0.901,-0.31,-0.12,1.31,-2.24,-0.11,3.20,
0.901,-0.31,-0.12,1.31,-2.08,0.17,3.37,
0.904,-0.31,-0.12,1.31,-2.08,0.17,3.37,
0.916,-0.32,-0.13,1.30,-2.08,0.17,3.37,
0.916,-0.32,-0.13,1.30,-2.04,0.30,3.47,
0.917,-0.33,-0.14,1.30,-2.04,0.30,3.47,
0.917,-0.34,-0.15,1.31,-2.04,0.30,3.47,
0.917,-0.34,-0.15,1.31,-2.10,0.26,3.43,
0.917,-0.34,-0.17,1.30,-2.10,0.26,3.43,
0.917,-0.35,-0.18,1.30,-2.10,0.26,3.43,
0.918,-0.35,-0.18,1.30,-2.27,0.09,3.38,
0.918,-0.35,-0.19,1.31,-2.27,0.09,3.38,
0.921,-0.36,-0.19,1.30,-2.27,0.09,3.38,
0.921,-0.36,-0.19,1.30,-2.39,-0.11,3.38,
0.93,-0.36,-0.20,1.31,-2.39,-0.11,3.38,
0.93,-0.37,-0.21,1.30,-2.39,-0.11,3.38,
0.93,-0.37,-0.21,1.30,-2.49,-0.27,3.40,
0.931,-0.37,-0.21,1.30,-2.49,-0.27,3.40,
0.931,-0.37,-0.21,1.30,-2.49,-0.27,3.40,
0.931,-0.37,-0.21,1.30,-2.56,-0.39,3.37,
0.933,-0.37,-0.22,1.30,-2.56,-0.39,3.37,
0.936,-0.37,-0.23,1.29,-2.56,-0.39,3.37,
0.936,-0.37,-0.23,1.29,-2.55,-0.43,3.34,
0.938,-0.37,-0.23,1.29,-2.55,-0.43,3.34,
0.947,-0.37,-0.24,1.28,-2.55,-0.43,3.34,
0.947,-0.37,-0.24,1.28,-2.57,-0.55,3.26,
0.948,-0.37,-0.25,1.28,-2.57,-0.55,3.26,
0.948,-0.36,-0.26,1.28,-2.57,-0.55,3.26,
0.948,-0.36,-0.26,1.28,-2.54,-0.67,3.18,
0.949,-0.35,-0.26,1.27,-2.54,-0.67,3.18,
0.95,-0.34,-0.27,1.27,-2.54,-0.67,3.18,
0.95,-0.34,-0.27,1.27,-2.45,-0.81,3.12,
0.952,-0.33,-0.27,1.27,-2.45,-0.81,3.12,
0.961,-0.32,-0.27,1.26,-2.45,-0.81,3.12,
0.962,-0.32,-0.27,1.26,-2.25,-0.93,2.99,
0.962,-0.30,-0.27,1.25,-2.25,-0.93,2.99,
0.963,-0.29,-0.27,1.25,-2.25,-0.93,2.99,
0.963,-0.29,-0.27,1.25,-2.01,-0.94,2.91,
0.963,-0.29,-0.28,1.24,-2.01,-0.94,2.91,
0.965,-0.27,-0.28,1.24,-2.01,-0.94,2.91,
0.965,-0.27,-0.28,1.24,-1.76,-0.98,2.78,
0.967,-0.27,-0.29,1.23,-1.76,-0.98,2.78,
0.97,-0.26,-0.29,1.23,-1.76,-0.98,2.78,
0.971,-0.26,-0.29,1.23,-1.58,-1.04,2.70,
0.976,-0.25,-0.29,1.22,-1.58,-1.04,2.70,
0.977,-0.24,-0.30,1.21,-1.58,-1.04,2.70,
0.977,-0.24,-0.30,1.21,-1.43,-1.10,2.57,
0.978,-0.24,-0.29,1.21,-1.43,-1.10,2.57,
0.979,-0.23,-0.29,1.20,-1.43,-1.10,2.57,
0.98,-0.23,-0.29,1.20,-1.24,-1.18,2.45,
0.982,-0.23,-0.29,1.19,-1.24,-1.18,2.45,
0.985,-0.22,-0.28,1.18,-1.24,-1.18,2.45,
0.985,-0.22,-0.28,1.18,-1.11,-1.18,2.30,
0.987,-0.21,-0.27,1.18,-1.11,-1.18,2.30,
0.995,-0.20,-0.27,1.18,-1.11,-1.18,2.30,
0.996,-0.20,-0.27,1.18,-0.95,-1.09,2.12,
0.996,-0.20,-0.25,1.17,-0.95,-1.09,2.12,
0.996,-0.19,-0.25,1.16,-0.95,-1.09,2.12,
0.996,-0.19,-0.25,1.16,-0.79,-0.97,2.08,
0.997,-0.19,-0.25,1.15,-0.79,-0.97,2.08,
0.999,-0.19,-0.24,1.15,-0.79,-0.97,2.08,
0.999,-0.19,-0.24,1.15,-0.71,-0.78,1.89,
1.002,-0.18,-0.23,1.14,-0.71,-0.78,1.89,
1.004,-0.18,-0.22,1.12,-0.71,-0.78,1.89,
1.004,-0.18,-0.22,1.12,-0.61,-0.70,1.77,
1.016,-0.18,-0.21,1.12,-0.61,-0.70,1.77,
1.016,-0.18,-0.21,1.10,-0.61,-0.70,1.77,
1.017,-0.18,-0.21,1.10,-0.53,-0.56,1.55,
1.017,-0.18,-0.21,1.09,-0.53,-0.56,1.55,
1.017,-0.19,-0.20,1.07,-0.53,-0.56,1.55,
1.017,-0.19,-0.20,1.07,-0.52,-0.44,1.32,
1.018,-0.19,-0.19,1.06,-0.52,-0.44,1.32,
1.019,-0.20,-0.18,1.05,-0.52,-0.44,1.32,
1.02,-0.20,-0.18,1.05,-0.56,-0.35,1.03,
1.031,-0.20,-0.18,1.04,-0.56,-0.35,1.03,
1.032,-0.21,-0.17,1.03,-0.56,-0.35,1.03,
1.032,-0.21,-0.17,1.03,-0.68,-0.20,0.76,
1.032,-0.21,-0.16,1.02,-0.68,-0.20,0.76,
1.033,-0.22,-0.15,1.01,-0.68,-0.20,0.76,
1.033,-0.22,-0.15,1.01,-0.74,-0.13,0.58,
1.033,-0.22,-0.14,1.00,-0.74,-0.13,0.58,
1.034,-0.23,-0.14,0.99,-0.74,-0.13,0.58,
1.034,-0.23,-0.14,0.99,-0.85,0.02,0.40,
1.037,-0.24,-0.13,0.99,-0.85,0.02,0.40,
1.047,-0.25,-0.13,0.98,-0.85,0.02,0.40,
1.048,-0.25,-0.13,0.98,-0.94,0.15,0.21,
1.048,-0.26,-0.12,0.97,-0.94,0.15,0.21,
1.048,-0.27,-0.12,0.98,-0.94,0.15,0.21,
1.049,-0.27,-0.12,0.98,-1.09,0.25,0.09,
1.049,-0.28,-0.12,0.98,-1.09,0.25,0.09,
1.049,-0.29,-0.12,0.98,-1.09,0.25,0.09,
1.049,-0.29,-0.12,0.98,-1.26,0.29,0.00,
1.051,-0.29,-0.12,0.98,-1.26,0.29,0.00,
1.054,-0.29,-0.12,0.99,-1.26,0.29,0.00,
1.054,-0.29,-0.12,0.99,-1.45,0.30,0.03,
1.062,-0.29,-0.12,0.99,-1.45,0.30,0.03,
1.063,-0.29,-0.12,0.99,-1.45,0.30,0.03,
1.063,-0.29,-0.12,0.99,-1.49,0.30,0.07,
1.064,-0.29,-0.12,1.00,-1.49,0.30,0.07,
1.064,-0.28,-0.12,1.00,-1.49,0.30,0.07,
1.064,-0.28,-0.12,1.00,-1.49,0.33,0.14,
1.066,-0.28,-0.12,1.01,-1.49,0.33,0.14,
1.07,-0.27,-0.13,1.02,-1.49,0.33,0.14,
1.07,-0.27,-0.13,1.02,-1.45,0.28,0.21,
1.071,-0.26,-0.13,1.03,-1.45,0.28,0.21,
1.077,-0.25,-0.13,1.03,-1.45,0.28,0.21,
1.077,-0.25,-0.13,1.03,-1.29,0.22,0.37,
1.078,-0.24,-0.14,1.05,-1.29,0.22,0.37,
1.079,-0.23,-0.14,1.05,-1.29,0.22,0.37,
1.079,-0.23,-0.14,1.05,-1.13,0.15,0.53,
1.081,-0.22,-0.14,1.06,-1.13,0.15,0.53,
1.083,-0.21,-0.15,1.07,-1.13,0.15,0.53,
1.084,-0.21,-0.15,1.07,-0.92,0.09,0.72,
1.086,-0.21,-0.15,1.08,-0.92,0.09,0.72,
1.088,-0.20,-0.15,1.08,-0.92,0.09,0.72,
1.089,-0.20,-0.15,1.08,-0.70,0.03,0.87,
1.094,-0.19,-0.16,1.09,-0.70,0.03,0.87,
1.095,-0.18,-0.16,1.09,-0.70,0.03,0.87,
1.095,-0.18,-0.16,1.09,-0.55,-0.04,1.02,
1.096,-0.17,-0.16,1.09,-0.55,-0.04,1.02,
1.098,-0.17,-0.16,1.10,-0.55,-0.04,1.02,
1.099,-0.17,-0.16,1.10,-0.34,-0.08,1.14,
1.101,-0.16,-0.17,1.11,-0.34,-0.08,1.14,
1.103,-0.15,-0.17,1.11,-0.34,-0.08,1.14,
1.104,-0.15,-0.17,1.11,-0.21,-0.14,1.20,
1.106,-0.15,-0.17,1.12,-0.21,-0.14,1.20,
1.112,-0.15,-0.17,1.12,-0.08,-0.18,1.31,
1.113,-0.15,-0.17,1.11,-0.08,-0.18,1.31,
1.113,-0.14,-0.17,1.12,-0.08,-0.18,1.31,
1.113,-0.14,-0.17,1.12,-0.08,-0.18,1.31,
1.113,-0.14,-0.17,1.12,0.02,-0.24,1.37,
1.116,-0.14,-0.16,1.12,0.02,-0.24,1.37,
1.118,-0.13,-0.16,1.12,0.02,-0.24,1.37,
1.118,-0.13,-0.16,1.12,0.14,-0.21,1.41,
1.12,-0.13,-0.16,1.12,0.14,-0.21,1.41,
1.134,-0.13,-0.15,1.12,0.14,-0.21,1.41,
1.134,-0.13,-0.15,1.12,0.23,-0.16,1.40,
1.135,-0.13,-0.15,1.11,0.23,-0.16,1.40,
1.135,-0.13,-0.15,1.11,0.23,-0.16,1.40,
1.135,-0.13,-0.15,1.11,0.31,-0.11,1.39,
1.136,-0.13,-0.15,1.10,0.31,-0.11,1.39,
1.136,-0.13,-0.15,1.10,0.31,-0.11,1.39,
1.136,-0.13,-0.15,1.10,0.32,-0.11,1.29,
1.136,-0.14,-0.15,1.10,0.32,-0.11,1.29,
1.147,-0.15,-0.15,1.10,0.32,-0.11,1.29,
1.147,-0.15,-0.15,1.10,0.31,-0.10,1.22,
1.148,-0.15,-0.16,1.11,0.31,-0.10,1.22,
1.148,-0.15,-0.15,1.11,0.31,-0.10,1.22,
1.148,-0.15,-0.15,1.11,0.20,-0.16,1.17,
1.149,-0.16,-0.15,1.11,0.20,-0.16,1.17,
1.149,-0.15,-0.15,1.11,0.20,-0.16,1.17,
1.152,-0.15,-0.15,1.11,0.13,-0.20,1.28,
1.152,-0.15,-0.15,1.11,0.13,-0.20,1.28,
1.153,-0.14,-0.15,1.11,0.13,-0.20,1.28,
1.153,-0.14,-0.15,1.11,0.11,-0.16,1.30,
1.155,-0.14,-0.15,1.12,0.11,-0.16,1.30,
1.166,-0.13,-0.15,1.12,0.11,-0.16,1.30,
1.167,-0.13,-0.15,1.12,0.19,-0.19,1.30,
1.167,-0.13,-0.16,1.13,0.19,-0.19,1.30,
1.167,-0.12,-0.17,1.13,0.19,-0.19,1.30,
1.167,-0.12,-0.17,1.13,0.34,-0.21,1.41,
1.167,-0.11,-0.17,1.14,0.34,-0.21,1.41,
1.168,-0.11,-0.17,1.14,0.34,-0.21,1.41,
1.168,-0.11,-0.17,1.14,0.44,-0.34,1.49,
1.172,-0.11,-0.18,1.14,0.44,-0.34,1.49,
1.173,-0.09,-0.18,1.15,0.44,-0.34,1.49,
1.173,-0.09,-0.18,1.15,0.58,-0.40,1.55,
1.179,-0.09,-0.18,1.15,0.58,-0.40,1.55,
1.18,-0.08,-0.19,1.16,0.58,-0.40,1.55,
1.18,-0.08,-0.19,1.16,0.70,-0.50,1.59,
1.181,-0.07,-0.19,1.16,0.70,-0.50,1.59,
1.183,-0.06,-0.19,1.17,0.70,-0.50,1.59,
1.183,-0.06,-0.19,1.17,0.83,-0.64,1.68,
1.185,-0.05,-0.19,1.17,0.83,-0.64,1.68,
1.188,-0.05,-0.19,1.17,1.01,-0.66,1.75,
1.188,-0.04,-0.19,1.17,1.01,-0.66,1.75,
1.193,-0.04,-0.18,1.17,1.01,-0.66,1.75,
1.194,-0.03,-0.18,1.17,1.01,-0.66,1.75,
1.194,-0.03,-0.18,1.17,1.23,-0.67,1.81,
1.196,-0.02,-0.18,1.18,1.23,-0.67,1.81,
1.198,-0.01,-0.17,1.18,1.23,-0.67,1.81,
1.198,-0.01,-0.17,1.18,1.37,-0.62,1.85,
1.2,-0.01,-0.17,1.18,1.37,-0.62,1.85,
1.203,-0.00,-0.17,1.18,1.37,-0.62,1.85,
1.203,-0.00,-0.17,1.18,1.51,-0.60,1.90,
1.205,0.00,-0.17,1.18,1.51,-0.60,1.90,
1.21,0.01,-0.17,1.18,1.51,-0.60,1.90,
1.21,0.01,-0.17,1.18,1.62,-0.56,1.89,
1.21,0.02,-0.16,1.18,1.62,-0.56,1.89,
1.213,0.02,-0.16,1.18,1.75,-0.54,1.91,
1.213,0.02,-0.17,1.19,1.75,-0.54,1.91,
1.215,0.02,-0.17,1.18,1.75,-0.54,1.91,
1.218,0.02,-0.17,1.18,1.75,-0.54,1.91,
1.218,0.02,-0.17,1.18,1.85,-0.53,1.92,
1.22,0.02,-0.17,1.18,1.85,-0.53,1.92,
1.223,0.02,-0.17,1.17,1.85,-0.53,1.92,
1.223,0.02,-0.17,1.17,1.88,-0.57,1.89,
1.234,0.03,-0.18,1.17,1.88,-0.57,1.89,
1.234,0.03,-0.18,1.16,1.88,-0.57,1.89,
1.235,0.03,-0.18,1.16,1.91,-0.61,1.83,
1.235,0.03,-0.18,1.16,1.91,-0.61,1.83,
1.235,0.03,-0.18,1.16,1.96,-0.73,1.72,
1.235,0.04,-0.18,1.15,1.96,-0.73,1.72,
1.235,0.03,-0.19,1.15,1.96,-0.73,1.72,
1.238,0.03,-0.19,1.15,1.96,-0.73,1.72,
1.238,0.03,-0.19,1.15,2.03,-0.78,1.61,
1.24,0.03,-0.19,1.15,2.03,-0.78,1.61,
1.248,0.03,-0.19,1.15,2.03,-0.78,1.61,
1.249,0.03,-0.19,1.15,2.01,-0.86,1.55,
1.249,0.03,-0.19,1.15,2.01,-0.86,1.55,
1.249,0.03,-0.18,1.16,2.01,-0.86,1.55,
1.249,0.03,-0.18,1.16,1.99,-0.89,1.58,
1.25,0.02,-0.18,1.15,1.99,-0.89,1.58,
1.252,0.02,-0.19,1.16,1.99,-0.89,1.58,
1.253,0.02,-0.19,1.16,2.00,-0.87,1.60,
1.256,0.02,-0.18,1.15,2.00,-0.87,1.60,
1.265,0.02,-0.18,1.15,2.00,-0.87,1.60,
1.265,0.02,-0.18,1.15,1.95,-0.87,1.60,
1.266,0.02,-0.18,1.16,1.95,-0.87,1.60,
1.266,0.02,-0.17,1.16,1.95,-0.87,1.60,
1.266,0.02,-0.17,1.16,1.96,-0.83,1.60,
1.266,0.02,-0.17,1.16,1.96,-0.83,1.60,
1.267,0.02,-0.18,1.16,1.96,-0.83,1.60,
1.267,0.02,-0.18,1.16,1.98,-0.84,1.66,
1.271,0.02,-0.17,1.17,1.98,-0.84,1.66,
1.272,0.03,-0.17,1.17,1.98,-0.84,1.66,
1.273,0.03,-0.17,1.17,2.02,-0.85,1.69,
1.28,0.03,-0.17,1.17,2.02,-0.85,1.69,
1.28,0.05,-0.17,1.17,2.02,-0.85,1.69,
1.281,0.05,-0.17,1.17,2.14,-0.83,1.73,
1.281,0.05,-0.16,1.17,2.14,-0.83,1.73,
1.282,0.05,-0.16,1.17,2.14,-0.83,1.73,
1.282,0.05,-0.16,1.17,2.28,-0.83,1.73,
1.285,0.05,-0.16,1.18,2.28,-0.83,1.73,
1.287,0.06,-0.16,1.18,2.28,-0.83,1.73,
1.287,0.06,-0.16,1.18,2.40,-0.77,1.76,
1.289,0.06,-0.17,1.18,2.40,-0.77,1.76,
1.295,0.06,-0.17,1.18,2.40,-0.77,1.76,
1.296,0.06,-0.17,1.18,2.47,-0.79,1.81,
1.296,0.07,-0.17,1.18,2.47,-0.79,1.81,
1.296,0.07,-0.17,1.18,2.47,-0.79,1.81,
1.297,0.07,-0.17,1.18,2.54,-0.84,1.83,
1.3,0.08,-0.17,1.19,2.54,-0.84,1.83,
1.302,0.08,-0.17,1.19,2.54,-0.84,1.83,
1.302,0.08,-0.17,1.19,2.63,-0.84,1.88,
1.304,0.09,-0.17,1.19,2.63,-0.84,1.88,
1.307,0.09,-0.18,1.20,2.63,-0.84,1.88,
1.307,0.09,-0.18,1.20,2.76,-0.90,1.91,
1.312,0.09,-0.19,1.20,2.76,-0.90,1.91,
1.313,0.10,-0.19,1.20,2.76,-0.90,1.91,
1.313,0.10,-0.19,1.20,2.84,-0.97,1.98,
1.315,0.09,-0.19,1.21,2.84,-0.97,1.98,
1.316,0.10,-0.19,1.20,2.84,-0.97,1.98,
1.316,0.10,-0.19,1.20,2.92,-1.09,2.02,
1.319,0.10,-0.20,1.20,2.92,-1.09,2.02,
1.321,0.11,-0.20,1.20,2.92,-1.09,2.02,
1.322,0.11,-0.20,1.20,2.94,-1.17,2.07,
1.331,0.11,-0.20,1.20,2.94,-1.17,2.07,
1.331,0.11,-0.20,1.20,2.94,-1.17,2.07,
1.332,0.11,-0.20,1.20,3.02,-1.22,2.06,
1.332,0.11,-0.20,1.19,3.02,-1.22,2.06,
1.332,0.11,-0.21,1.19,3.02,-1.22,2.06,
1.332,0.11,-0.21,1.19,3.09,-1.29,2.03,
1.333,0.11,-0.20,1.19,3.09,-1.29,2.03,
1.336,0.10,-0.20,1.18,3.09,-1.29,2.03,
1.337,0.10,-0.20,1.18,3.12,-1.32,1.95,
1.338,0.10,-0.20,1.18,3.12,-1.32,1.95,
1.351,0.10,-0.20,1.17,3.12,-1.32,1.95,
1.352,0.10,-0.20,1.17,3.08,-1.33,1.88,
1.352,0.10,-0.20,1.16,3.08,-1.33,1.88,
1.353,0.09,-0.19,1.15,3.08,-1.33,1.88,
1.353,0.09,-0.19,1.15,3.04,-1.36,1.74,
1.353,0.09,-0.19,1.14,3.04,-1.36,1.74,
1.353,0.09,-0.18,1.13,3.04,-1.36,1.74,
1.354,0.09,-0.18,1.13,2.98,-1.31,1.58,
1.354,0.08,-0.17,1.14,2.98,-1.31,1.58,
1.356,0.08,-0.16,1.12,2.98,-1.31,1.58,
1.356,0.08,-0.16,1.12,2.91,-1.23,1.39,
1.364,0.08,-0.16,1.11,2.91,-1.23,1.39,
1.365,0.07,-0.15,1.11,2.91,-1.23,1.39,
1.365,0.07,-0.15,1.11,2.84,-1.10,1.28,
1.366,0.07,-0.13,1.10,2.84,-1.10,1.28,
1.367,0.07,-0.12,1.09,2.84,-1.10,1.28,
1.367,0.07,-0.12,1.09,2.75,-0.94,1.12,
1.369,0.07,-0.12,1.09,2.75,-0.94,1.12,
1.37,0.06,-0.11,1.08,2.75,-0.94,1.12,
1.371,0.06,-0.11,1.08,2.71,-0.75,0.97,
1.383,0.06,-0.11,1.08,2.71,-0.75,0.97,
1.384,0.07,-0.11,1.08,2.71,-0.75,0.97,
1.384,0.07,-0.11,1.08,2.63,-0.64,0.87,
1.384,0.07,-0.10,1.07,2.63,-0.64,0.87,
1.385,0.06,-0.09,1.07,2.63,-0.64,0.87,
1.385,0.06,-0.09,1.07,2.61,-0.57,0.79,
1.385,0.07,-0.09,1.06,2.61,-0.57,0.79,
1.385,0.07,-0.09,1.06,2.61,-0.57,0.79,
1.386,0.07,-0.09,1.06,2.58,-0.49,0.72,
1.388,0.07,-0.09,1.06,2.58,-0.49,0.72,
1.396,0.07,-0.09,1.06,2.58,-0.49,0.72,
1.397,0.07,-0.09,1.06,2.61,-0.45,0.60,
1.397,0.07,-0.09,1.06,2.61,-0.45,0.60,
1.397,0.08,-0.09,1.06,2.61,-0.45,0.60,
1.397,0.08,-0.09,1.06,2.56,-0.44,0.59,
1.398,0.08,-0.09,1.05,2.56,-0.44,0.59,
1.4,0.09,-0.09,1.06,2.56,-0.44,0.59,
1.401,0.09,-0.09,1.06,2.63,-0.49,0.57,
1.403,0.09,-0.09,1.06,2.63,-0.49,0.57,
1.405,0.09,-0.09,1.06,2.63,-0.49,0.57,
1.405,0.09,-0.09,1.06,2.68,-0.45,0.53,
1.412,0.10,-0.09,1.06,2.68,-0.45,0.53,
1.413,0.10,-0.10,1.06,2.68,-0.45,0.53,
1.413,0.10,-0.10,1.06,2.73,-0.49,0.59,
1.413,0.10,-0.10,1.06,2.73,-0.49,0.59,
1.415,0.11,-0.10,1.06,2.73,-0.49,0.59,
1.415,0.11,-0.10,1.06,2.75,-0.53,0.55,
1.417,0.11,-0.11,1.07,2.75,-0.53,0.55,
1.42,0.10,-0.11,1.07,2.75,-0.53,0.55,
1.421,0.10,-0.11,1.07,2.81,-0.62,0.58,
1.422,0.11,-0.12,1.08,2.81,-0.62,0.58,
1.429,0.10,-0.12,1.09,2.81,-0.62,0.58,
1.429,0.10,-0.12,1.09,2.79,-0.71,0.64,
1.43,0.10,-0.12,1.08,2.79,-0.71,0.64,
1.43,0.10,-0.12,1.08,2.79,-0.71,0.64,
1.43,0.10,-0.12,1.08,2.80,-0.77,0.77,
1.432,0.09,-0.12,1.09,2.80,-0.77,0.77,
1.435,0.09,-0.11,1.09,2.80,-0.77,0.77,
1.435,0.09,-0.11,1.09,2.73,-0.80,0.78,
1.437,0.08,-0.11,1.10,2.73,-0.80,0.78,
1.441,0.08,-0.11,1.10,2.62,-0.76,0.83,
1.441,0.07,-0.11,1.10,2.62,-0.76,0.83,
1.447,0.06,-0.11,1.11,2.62,-0.76,0.83,
1.449,0.06,-0.11,1.11,2.62,-0.76,0.83,
1.449,0.06,-0.11,1.11,2.49,-0.73,0.91,
1.449,0.05,-0.10,1.11,2.49,-0.73,0.91,
1.45,0.05,-0.10,1.11,2.49,-0.73,0.91,
1.45,0.05,-0.10,1.11,2.36,-0.71,1.01,
1.452,0.05,-0.10,1.11,2.36,-0.71,1.01,
1.455,0.05,-0.09,1.12,2.36,-0.71,1.01,
1.455,0.05,-0.09,1.12,2.27,-0.66,1.01,
1.457,0.04,-0.09,1.12,2.27,-0.66,1.01,
1.471,0.03,-0.09,1.12,2.27,-0.66,1.01,
1.472,0.03,-0.09,1.12,2.25,-0.63,1.09,
1.472,0.03,-0.09,1.13,2.25,-0.63,1.09,
1.473,0.02,-0.09,1.13,2.25,-0.63,1.09,
1.473,0.02,-0.09,1.13,2.17,-0.57,1.14,
1.473,0.02,-0.09,1.13,2.17,-0.57,1.14,
1.473,0.01,-0.09,1.13,2.17,-0.57,1.14,
1.474,0.01,-0.09,1.13,2.03,-0.56,1.20,
1.474,0.00,-0.09,1.13,2.03,-0.56,1.20,
1.482,0.00,-0.08,1.13,2.03,-0.56,1.20,
1.482,0.00,-0.08,1.13,1.90,-0.56,1.22,
1.482,0.00,-0.08,1.13,1.90,-0.56,1.22,
1.486,0.01,-0.08,1.13,1.90,-0.56,1.22,
1.486,0.01,-0.08,1.13,1.82,-0.55,1.23,
1.486,0.01,-0.08,1.13,1.82,-0.55,1.23,
1.487,0.02,-0.08,1.13,1.82,-0.55,1.23,
1.488,0.02,-0.08,1.13,1.84,-0.56,1.22,
1.488,0.02,-0.08,1.12,1.84,-0.56,1.22,
1.49,0.03,-0.08,1.12,1.84,-0.56,1.22,
1.49,0.03,-0.08,1.12,1.90,-0.54,1.19,
1.499,0.03,-0.09,1.12,1.90,-0.54,1.19,
1.499,0.04,-0.08,1.12,1.90,-0.54,1.19,
1.5,0.04,-0.08,1.12,1.99,-0.53,1.13,
1.5,0.05,-0.08,1.11,1.99,-0.53,1.13,
1.5,0.05,-0.08,1.11,1.99,-0.53,1.13,
1.5,0.05,-0.08,1.11,2.09,-0.62,1.08,
1.502,0.06,-0.08,1.10,2.09,-0.62,1.08,
1.505,0.06,-0.08,1.10,2.09,-0.62,1.08,
1.506,0.06,-0.08,1.10,2.21,-0.56,0.98,
1.507,0.06,-0.08,1.09,2.21,-0.56,0.98,
1.515,0.06,-0.08,1.09,2.21,-0.56,0.98,
1.516,0.06,-0.08,1.09,2.25,-0.62,0.90,
1.516,0.06,-0.07,1.08,2.25,-0.62,0.90,
1.516,0.06,-0.07,1.08,2.23,-0.63,0.75,
1.516,0.06,-0.08,1.07,2.23,-0.63,0.75,
1.517,0.06,-0.08,1.06,2.23,-0.63,0.75,
1.519,0.06,-0.07,1.07,2.23,-0.63,0.75,
1.519,0.06,-0.07,1.07,2.19,-0.63,0.61,
1.522,0.05,-0.07,1.06,2.19,-0.63,0.61,
1.529,0.05,-0.07,1.06,2.19,-0.63,0.61,
1.53,0.05,-0.07,1.06,2.14,-0.63,0.53,
1.53,0.05,-0.07,1.05,2.14,-0.63,0.53,
1.53,0.05,-0.07,1.05,2.14,-0.63,0.53,
1.53,0.05,-0.07,1.05,2.06,-0.62,0.44,
1.532,0.05,-0.06,1.05,2.06,-0.62,0.44,
1.535,0.05,-0.06,1.05,2.06,-0.62,0.44,
1.535,0.05,-0.06,1.05,2.03,-0.63,0.42,
1.537,0.05,-0.06,1.06,2.03,-0.63,0.42,
1.539,0.05,-0.06,1.06,1.99,-0.60,0.40,
1.54,0.05,-0.05,1.06,1.99,-0.60,0.40,
1.541,0.05,-0.05,1.06,1.99,-0.60,0.40,
1.546,0.05,-0.05,1.07,1.99,-0.60,0.40,
1.547,0.05,-0.05,1.07,1.97,-0.53,0.48,
1.547,0.05,-0.04,1.07,1.97,-0.53,0.48,
1.549,0.04,-0.04,1.08,1.97,-0.53,0.48,
1.55,0.04,-0.04,1.08,1.96,-0.49,0.52,
1.552,0.05,-0.03,1.08,1.96,-0.49,0.52,
1.554,0.04,-0.03,1.08,1.96,-0.49,0.52,
1.555,0.04,-0.03,1.08,1.89,-0.43,0.61,
1.557,0.04,-0.03,1.08,1.89,-0.43,0.61,
1.57,0.04,-0.03,1.08,1.89,-0.43,0.61,
1.571,0.04,-0.03,1.08,1.86,-0.40,0.64,
1.571,0.04,-0.02,1.08,1.86,-0.40,0.64,
1.571,0.03,-0.02,1.08,1.86,-0.40,0.64,
1.571,0.03,-0.02,1.08,1.81,-0.38,0.65,
1.571,0.03,-0.02,1.08,1.81,-0.38,0.65,
1.572,0.02,-0.01,1.07,1.81,-0.38,0.65,
1.572,0.02,-0.01,1.07,1.77,-0.35,0.67,
1.572,0.02,-0.01,1.07,1.77,-0.35,0.67,
1.581,0.02,-0.01,1.06,1.77,-0.35,0.67,
1.582,0.02,-0.01,1.06,1.65,-0.32,0.59,
1.582,0.01,-0.00,1.05,1.65,-0.32,0.59,
1.583,0.01,-0.00,1.05,1.58,-0.32,0.46,
1.583,0.01,-0.01,1.04,1.58,-0.32,0.46,
1.583,0.01,-0.00,1.03,1.58,-0.32,0.46,
1.584,0.01,0.01,1.02,1.58,-0.32,0.46,
1.585,0.01,0.01,1.02,1.49,-0.30,0.28,
1.587,0.01,0.00,1.01,1.49,-0.30,0.28,
1.589,0.00,0.01,1.00,1.49,-0.30,0.28,
1.589,0.00,0.01,1.00,1.45,-0.27,0.12,
1.592,0.00,0.02,0.99,1.45,-0.27,0.12,
1.601,-0.00,0.02,0.98,1.45,-0.27,0.12,
1.602,-0.00,0.02,0.98,1.42,-0.28,-0.11,
1.602,0.00,0.02,0.96,1.42,-0.28,-0.11,
1.602,0.00,0.02,0.96,1.37,-0.19,-0.31,
1.602,-0.00,0.03,0.96,1.37,-0.19,-0.31,
1.602,-0.00,0.03,0.94,1.37,-0.19,-0.31,
1.604,0.00,0.03,0.93,1.37,-0.19,-0.31,
1.604,0.00,0.03,0.93,1.36,-0.21,-0.51,
1.606,0.01,0.04,0.92,1.36,-0.21,-0.51,
1.608,0.01,0.04,0.91,1.36,-0.21,-0.51,
1.609,0.01,0.04,0.91,1.38,-0.20,-0.76,
1.614,0.01,0.04,0.90,1.38,-0.20,-0.76,
1.615,0.01,0.04,0.89,1.38,-0.20,-0.76,
1.615,0.01,0.04,0.89,1.42,-0.19,-0.93,
1.616,0.01,0.04,0.88,1.42,-0.19,-0.93,
1.618,0.01,0.04,0.87,1.42,-0.19,-0.93,
1.618,0.01,0.04,0.87,1.45,-0.22,-1.16,
1.621,0.02,0.05,0.87,1.45,-0.22,-1.16,
1.623,0.02,0.05,0.86,1.45,-0.22,-1.16,
1.623,0.02,0.05,0.86,1.45,-0.22,-1.32,
1.629,0.02,0.05,0.86,1.45,-0.22,-1.32,
1.63,0.02,0.05,0.86,1.45,-0.22,-1.32,
1.63,0.02,0.05,0.86,1.47,-0.19,-1.45,
1.63,0.03,0.05,0.85,1.47,-0.19,-1.45,
1.633,0.03,0.05,0.86,1.47,-0.19,-1.45,
1.634,0.03,0.05,0.86,1.50,-0.20,-1.50,
1.635,0.03,0.05,0.86,1.50,-0.20,-1.50,
1.639,0.04,0.05,0.86,1.50,-0.20,-1.50,
1.639,0.04,0.05,0.86,1.56,-0.23,-1.52,
1.64,0.03,0.05,0.86,1.56,-0.23,-1.52,
1.647,0.03,0.05,0.86,1.56,-0.23,-1.52,
1.65,0.03,0.05,0.86,1.58,-0.27,-1.47,
1.65,0.02,0.05,0.86,1.58,-0.27,-1.47,
1.65,0.02,0.04,0.86,1.58,-0.27,-1.47,
1.651,0.02,0.04,0.86,1.49,-0.31,-1.47,
1.651,0.02,0.04,0.86,1.49,-0.31,-1.47,
1.653,0.02,0.04,0.86,1.49,-0.31,-1.47,
1.653,0.02,0.04,0.86,1.43,-0.39,-1.45,
1.655,0.01,0.03,0.87,1.43,-0.39,-1.45,
1.658,0.01,0.03,0.87,1.39,-0.45,-1.42,
1.658,0.01,0.03,0.88,1.39,-0.45,-1.42,
1.678,0.00,0.03,0.88,1.39,-0.45,-1.42,
1.679,-0.01,0.03,0.88,1.39,-0.45,-1.42,
1.679,-0.01,0.03,0.88,1.28,-0.54,-1.30,
1.679,-0.01,0.03,0.89,1.28,-0.54,-1.30,
1.68,-0.01,0.03,0.89,1.28,-0.54,-1.30,
1.68,-0.01,0.03,0.89,1.13,-0.59,-1.21,
1.68,-0.02,0.03,0.90,1.13,-0.59,-1.21,
1.683,-0.02,0.03,0.91,1.13,-0.59,-1.21,
1.683,-0.02,0.03,0.91,1.00,-0.59,-1.14,
1.683,-0.03,0.03,0.91,1.00,-0.59,-1.14,
1.684,-0.03,0.03,0.90,1.00,-0.59,-1.14,
1.684,-0.03,0.03,0.90,0.93,-0.60,-1.02,
1.684,-0.03,0.03,0.90,0.93,-0.60,-1.02,
1.684,-0.04,0.03,0.91,0.93,-0.60,-1.02,
1.684,-0.04,0.03,0.91,0.83,-0.59,-1.01,
1.686,-0.04,0.03,0.91,0.83,-0.59,-1.01,
1.688,-0.05,0.02,0.92,0.83,-0.59,-1.01,
1.689,-0.05,0.02,0.92,0.73,-0.65,-0.98,
1.69,-0.05,0.02,0.92,0.73,-0.65,-0.98,
1.693,-0.05,0.02,0.92,0.73,-0.65,-0.98,
1.694,-0.05,0.02,0.92,0.63,-0.69,-0.92,
1.697,-0.05,0.02,0.93,0.63,-0.69,-0.92,
1.697,-0.05,0.02,0.93,0.63,-0.69,-0.92,
1.697,-0.05,0.02,0.93,0.55,-0.75,-0.83,
1.701,-0.04,0.01,0.93,0.55,-0.75,-0.83,
1.703,-0.04,0.02,0.93,0.55,-0.75,-0.83,
1.703,-0.04,0.02,0.93,0.54,-0.77,-0.78,
1.705,-0.04,0.02,0.93,0.54,-0.77,-0.78,
1.708,-0.03,0.01,0.93,0.54,-0.77,-0.78,
1.708,-0.03,0.01,0.93,0.59,-0.80,-0.73,
1.71,-0.03,0.01,0.93,0.59,-0.80,-0.73,
1.712,-0.02,0.02,0.93,0.59,-0.80,-0.73,
1.712,-0.02,0.02,0.93,0.64,-0.82,-0.75,
1.715,-0.02,0.01,0.93,0.64,-0.82,-0.75,
1.718,-0.02,0.02,0.93,0.64,-0.82,-0.75,
1.718,-0.02,0.02,0.93,0.69,-0.83,-0.72,
1.72,-0.02,0.02,0.93,0.69,-0.83,-0.72,
1.723,-0.01,0.03,0.92,0.69,-0.83,-0.72,
1.723,-0.01,0.03,0.92,0.72,-0.83,-0.73,
1.725,-0.01,0.03,0.92,0.72,-0.83,-0.73,
1.727,-0.01,0.04,0.91,0.72,-0.83,-0.73,
1.728,-0.01,0.04,0.91,0.74,-0.76,-0.77,
1.73,-0.00,0.04,0.91,0.74,-0.76,-0.77,
1.733,0.00,0.04,0.91,0.74,-0.76,-0.77,
1.733,0.00,0.04,0.91,0.78,-0.67,-0.88,
1.735,0.00,0.04,0.91,0.78,-0.67,-0.88,
1.737,0.01,0.05,0.90,0.78,-0.67,-0.88,
1.738,0.01,0.05,0.90,0.83,-0.62,-0.96,
1.74,0.01,0.04,0.90,0.83,-0.62,-0.96,
1.744,0.01,0.05,0.89,0.83,-0.62,-0.96,
1.744,0.01,0.05,0.89,0.86,-0.59,-1.00,
1.744,0.02,0.05,0.89,0.86,-0.59,-1.00,
1.748,0.02,0.05,0.89,0.86,-0.59,-1.00,
1.748,0.02,0.05,0.89,0.87,-0.60,-1.07,
1.75,0.02,0.04,0.88,0.87,-0.60,-1.07,
1.752,0.02,0.04,0.87,0.87,-0.60,-1.07,
1.753,0.02,0.04,0.87,0.91,-0.60,-1.17,
1.755,0.02,0.05,0.87,0.91,-0.60,-1.17,
1.757,0.01,0.05,0.86,0.91,-0.60,-1.17,
1.758,0.01,0.05,0.86,0.89,-0.66,-1.26,
1.764,0.02,0.05,0.86,0.89,-0.66,-1.26,
1.764,0.01,0.05,0.85,0.89,-0.66,-1.26,
1.765,0.01,0.05,0.85,0.84,-0.63,-1.37,
1.765,0.01,0.05,0.84,0.84,-0.63,-1.37,
1.767,0.01,0.06,0.84,0.84,-0.63,-1.37,
1.767,0.01,0.06,0.84,0.80,-0.63,-1.51,
1.769,0.01,0.05,0.84,0.80,-0.63,-1.51,
1.772,0.01,0.05,0.84,0.80,-0.63,-1.51,
1.773,0.01,0.05,0.84,0.74,-0.58,-1.59,
1.775,0.00,0.05,0.84,0.74,-0.58,-1.59,
1.777,-0.01,0.05,0.84,0.74,-0.58,-1.59,
1.777,-0.01,0.05,0.84,0.67,-0.58,-1.61,
1.779,-0.01,0.05,0.84,0.67,-0.58,-1.61,
1.782,-0.01,0.06,0.83,0.67,-0.58,-1.61,
1.783,-0.01,0.06,0.83,0.56,-0.62,-1.63,
1.785,-0.01,0.05,0.83,0.56,-0.62,-1.63,
1.787,-0.01,0.06,0.84,0.56,-0.62,-1.63,
1.787,-0.01,0.06,0.84,0.47,-0.59,-1.65,
1.789,-0.01,0.05,0.84,0.47,-0.59,-1.65,
1.792,-0.01,0.06,0.84,0.47,-0.59,-1.65,
1.792,-0.01,0.06,0.84,0.43,-0.59,-1.65,
1.794,-0.01,0.07,0.84,0.43,-0.59,-1.65,
1.796,-0.01,0.07,0.85,0.43,-0.59,-1.65,
1.797,-0.01,0.07,0.85,0.41,-0.59,-1.62,
1.799,-0.02,0.07,0.85,0.41,-0.59,-1.62,
1.801,-0.02,0.07,0.86,0.41,-0.59,-1.62,
1.802,-0.02,0.07,0.86,0.44,-0.50,-1.54,
1.804,-0.02,0.06,0.86,0.44,-0.50,-1.54,
1.806,-0.02,0.06,0.86,0.44,-0.50,-1.54,
1.806,-0.02,0.06,0.86,0.36,-0.49,-1.45,
1.811,-0.02,0.06,0.86,0.36,-0.49,-1.45,
1.814,-0.02,0.06,0.86,0.34,-0.54,-1.43,
1.814,-0.02,0.05,0.86,0.34,-0.54,-1.43,
1.814,-0.01,0.05,0.87,0.34,-0.54,-1.43,
1.816,-0.01,0.05,0.86,0.34,-0.54,-1.43,
1.816,-0.01,0.05,0.86,0.29,-0.62,-1.37,
1.819,-0.01,0.05,0.86,0.29,-0.62,-1.37,
1.822,-0.01,0.05,0.86,0.29,-0.62,-1.37,
1.822,-0.01,0.05,0.86,0.34,-0.67,-1.36,
1.824,-0.01,0.05,0.86,0.34,-0.67,-1.36,
1.826,-0.01,0.04,0.85,0.34,-0.67,-1.36,
1.826,-0.01,0.04,0.85,0.34,-0.70,-1.39,
1.829,-0.01,0.03,0.85,0.34,-0.70,-1.39,
1.832,-0.01,0.02,0.85,0.34,-0.70,-1.39,
1.832,-0.01,0.02,0.85,0.37,-0.78,-1.43,
1.834,-0.00,0.02,0.85,0.37,-0.78,-1.43,
1.837,-0.00,0.01,0.86,0.37,-0.78,-1.43,
1.837,-0.00,0.01,0.86,0.38,-0.95,-1.48,
1.839,0.00,0.01,0.85,0.38,-0.95,-1.48,
1.841,0.00,0.01,0.85,0.38,-0.95,-1.48,
1.841,0.00,0.01,0.85,0.42,-1.01,-1.43,
1.843,0.01,0.01,0.85,0.42,-1.01,-1.43,
1.846,0.01,0.01,0.84,0.42,-1.01,-1.43,
1.846,0.01,0.01,0.84,0.45,-1.07,-1.46,
1.849,0.02,0.02,0.84,0.45,-1.07,-1.46,
1.851,0.01,0.02,0.83,0.45,-1.07,-1.46,
1.851,0.01,0.02,0.83,0.51,-1.07,-1.52,
1.854,0.01,0.02,0.83,0.51,-1.07,-1.52,
1.856,0.01,0.02,0.82,0.51,-1.07,-1.52,
1.856,0.01,0.02,0.82,0.56,-1.02,-1.60,
1.859,0.00,0.02,0.83,0.56,-1.02,-1.60,
1.862,0.00,0.02,0.82,0.56,-1.02,-1.60,
1.862,0.00,0.02,0.82,0.48,-1.02,-1.68,
1.864,-0.00,0.02,0.83,0.48,-1.02,-1.68,
1.866,-0.00,0.03,0.83,0.48,-1.02,-1.68,
1.866,-0.00,0.03,0.83,0.41,-1.03,-1.70,
1.869,-0.01,0.03,0.84,0.41,-1.03,-1.70,
1.871,-0.01,0.04,0.84,0.41,-1.03,-1.70,
1.871,-0.01,0.04,0.84,0.34,-0.95,-1.63,
1.874,-0.02,0.05,0.84,0.34,-0.95,-1.63,
1.877,-0.02,0.05,0.84,0.34,-0.95,-1.63,
1.878,-0.02,0.05,0.84,0.24,-0.82,-1.58,
1.878,-0.02,0.06,0.85,0.24,-0.82,-1.58,
1.881,-0.02,0.06,0.85,0.15,-0.70,-1.52,
1.881,-0.03,0.06,0.86,0.15,-0.70,-1.52,
1.884,-0.03,0.07,0.86,0.15,-0.70,-1.52,
1.885,-0.04,0.07,0.86,0.15,-0.70,-1.52,
1.886,-0.04,0.07,0.86,0.06,-0.59,-1.42,
1.888,-0.04,0.08,0.87,0.06,-0.59,-1.42,
1.89,-0.05,0.08,0.87,0.06,-0.59,-1.42,
1.891,-0.05,0.08,0.87,-0.02,-0.48,-1.33,
1.893,-0.05,0.08,0.88,-0.02,-0.48,-1.33,
1.895,-0.05,0.08,0.88,-0.02,-0.48,-1.33,
1.896,-0.05,0.08,0.88,-0.15,-0.41,-1.28,
1.898,-0.06,0.07,0.89,-0.15,-0.41,-1.28,
1.901,-0.07,0.07,0.89,-0.15,-0.41,-1.28,
1.901,-0.07,0.07,0.89,-0.23,-0.40,-1.17,
1.904,-0.07,0.06,0.89,-0.23,-0.40,-1.17,
1.906,-0.07,0.06,0.90,-0.23,-0.40,-1.17,
1.906,-0.07,0.06,0.90,-0.40,-0.44,-1.05,
1.908,-0.08,0.05,0.91,-0.40,-0.44,-1.05,
1.911,-0.08,0.05,0.91,-0.40,-0.44,-1.05,
1.913,-0.08,0.05,0.91,-0.50,-0.55,-1.00,
1.914,-0.08,0.05,0.91,-0.50,-0.55,-1.00,
1.915,-0.08,0.05,0.91,-0.50,-0.55,-1.00,
1.916,-0.08,0.05,0.91,-0.56,-0.57,-0.85,
1.918,-0.07,0.05,0.91,-0.56,-0.57,-0.85,
1.921,-0.07,0.05,0.92,-0.56,-0.57,-0.85,
1.921,-0.07,0.05,0.92,-0.55,-0.57,-0.85,
1.923,-0.07,0.05,0.92,-0.55,-0.57,-0.85,
1.926,-0.08,0.05,0.93,-0.55,-0.57,-0.85,
1.926,-0.08,0.05,0.93,-0.55,-0.56,-0.78,
1.928,-0.08,0.05,0.93,-0.55,-0.56,-0.78,
1.931,-0.08,0.05,0.92,-0.55,-0.56,-0.78,
1.931,-0.08,0.05,0.92,-0.57,-0.53,-0.74,
1.933,-0.09,0.05,0.92,-0.57,-0.53,-0.74,
1.936,-0.09,0.04,0.92,-0.57,-0.53,-0.74,
1.936,-0.09,0.04,0.92,-0.67,-0.57,-0.72,
1.938,-0.10,0.04,0.92,-0.67,-0.57,-0.72,
1.941,-0.11,0.04,0.93,-0.67,-0.57,-0.72,
1.941,-0.11,0.04,0.93,-0.78,-0.58,-0.74,
1.943,-0.11,0.04,0.93,-0.78,-0.58,-0.74,
1.945,-0.11,0.04,0.93,-0.78,-0.58,-0.74,
1.945,-0.11,0.04,0.93,-0.97,-0.65,-0.69,
1.948,-0.12,0.04,0.94,-0.97,-0.65,-0.69,
1.951,-0.12,0.04,0.94,-0.97,-0.65,-0.69,
1.951,-0.12,0.04,0.94,-1.03,-0.63,-0.64,
1.953,-0.12,0.04,0.95,-1.03,-0.63,-0.64,
1.955,-0.11,0.04,0.95,-1.03,-0.63,-0.64,
1.956,-0.11,0.04,0.95,-1.09,-0.61,-0.57,
1.958,-0.12,0.05,0.96,-1.09,-0.61,-0.57,
1.961,-0.11,0.06,0.95,-1.09,-0.61,-0.57,
1.962,-0.11,0.06,0.95,-1.09,-0.58,-0.48,
1.962,-0.11,0.05,0.95,-1.09,-0.58,-0.48,
1.965,-0.11,0.06,0.95,-1.09,-0.58,-0.48,
1.966,-0.11,0.06,0.95,-1.09,-0.45,-0.43,
1.968,-0.11,0.06,0.95,-1.09,-0.45,-0.43,
1.97,-0.11,0.05,0.94,-1.09,-0.45,-0.43,
1.97,-0.11,0.05,0.94,-1.05,-0.42,-0.51,
1.972,-0.11,0.05,0.94,-1.05,-0.42,-0.51,
1.974,-0.10,0.05,0.93,-1.05,-0.42,-0.51,
1.975,-0.10,0.05,0.93,-1.04,-0.44,-0.53,
1.982,-0.10,0.05,0.93,-1.04,-0.44,-0.53,
1.982,-0.10,0.05,0.93,-1.04,-0.44,-0.53,
1.982,-0.10,0.05,0.93,-1.04,-0.48,-0.59,
1.983,-0.10,0.06,0.92,-1.04,-0.48,-0.59,
1.984,-0.10,0.05,0.91,-1.04,-0.48,-0.59,
1.985,-0.10,0.05,0.91,-1.04,-0.49,-0.64,
1.987,-0.10,0.05,0.91,-1.04,-0.49,-0.64,
1.989,-0.10,0.06,0.90,-1.04,-0.49,-0.64,
1.99,-0.10,0.06,0.90,-1.00,-0.47,-0.78,
1.992,-0.10,0.06,0.89,-1.00,-0.47,-0.78,
1.995,-0.10,0.06,0.89,-1.00,-0.47,-0.78,
1.996,-0.10,0.06,0.89,-1.00,-0.43,-0.92,
1.997,-0.10,0.06,0.88,-1.00,-0.43,-0.92,
1.999,-0.11,0.07,0.87,-1.00,-0.43,-0.92,
1.999,-0.11,0.07,0.87,-1.01,-0.40,-1.03,
2.002,-0.11,0.06,0.87,-1.01,-0.40,-1.03,
2.004,-0.11,0.06,0.87,-1.01,-0.40,-1.03,
2.004,-0.11,0.06,0.87,-1.07,-0.36,-1.18,
2.007,-0.11,0.07,0.87,-1.07,-0.36,-1.18,
2.012,-0.12,0.07,0.86,-1.07,-0.36,-1.18,
2.013,-0.12,0.07,0.86,-1.14,-0.37,-1.24,
2.013,-0.13,0.08,0.86,-1.14,-0.37,-1.24,
2.015,-0.13,0.08,0.85,-1.14,-0.37,-1.24,
2.015,-0.13,0.08,0.85,-1.20,-0.31,-1.30,
2.017,-0.13,0.08,0.85,-1.20,-0.31,-1.30,
2.019,-0.14,0.08,0.84,-1.20,-0.31,-1.30,
2.019,-0.14,0.08,0.84,-1.32,-0.25,-1.36,
2.021,-0.15,0.09,0.85,-1.32,-0.25,-1.36,
2.024,-0.15,0.09,0.85,-1.32,-0.25,-1.36,
2.024,-0.15,0.09,0.85,-1.39,-0.21,-1.46,
2.027,-0.15,0.09,0.85,-1.39,-0.21,-1.46,
2.03,-0.16,0.10,0.86,-1.39,-0.21,-1.46,
2.03,-0.16,0.10,0.86,-1.54,-0.13,-1.40,
2.031,-0.17,0.10,0.86,-1.54,-0.13,-1.40,
2.034,-0.19,0.09,0.87,-1.54,-0.13,-1.40,
2.034,-0.19,0.09,0.87,-1.63,-0.07,-1.36,
2.037,-0.18,0.10,0.88,-1.63,-0.07,-1.36,
2.039,-0.18,0.10,0.88,-1.83,-0.05,-1.26,
2.039,-0.18,0.10,0.87,-1.83,-0.05,-1.26,
2.041,-0.19,0.10,0.89,-1.83,-0.05,-1.26,
2.045,-0.19,0.09,0.90,-1.83,-0.05,-1.26,
2.045,-0.19,0.09,0.90,-1.91,-0.01,-1.17,
2.046,-0.19,0.09,0.90,-1.91,-0.01,-1.17,
2.049,-0.20,0.09,0.92,-1.91,-0.01,-1.17,
2.049,-0.20,0.09,0.92,-1.98,-0.04,-0.97,
2.051,-0.19,0.09,0.92,-1.98,-0.04,-0.97,
2.054,-0.20,0.08,0.94,-1.98,-0.04,-0.97,
2.054,-0.20,0.08,0.94,-2.05,-0.07,-0.83,
2.056,-0.20,0.08,0.94,-2.05,-0.07,-0.83,
2.059,-0.20,0.08,0.96,-2.05,-0.07,-0.83,
2.059,-0.20,0.08,0.96,-2.08,-0.10,-0.65,
2.061,-0.20,0.08,0.97,-2.08,-0.10,-0.65,
2.064,-0.20,0.08,0.97,-2.08,-0.10,-0.65,
2.064,-0.20,0.08,0.97,-2.10,-0.10,-0.44,
2.066,-0.19,0.08,0.98,-2.10,-0.10,-0.44,
2.068,-0.20,0.07,0.99,-2.10,-0.10,-0.44,
2.069,-0.20,0.07,0.99,-2.10,-0.10,-0.20,
2.071,-0.19,0.08,0.99,-2.10,-0.10,-0.20,
2.073,-0.19,0.08,0.99,-2.10,-0.10,-0.20,
2.074,-0.19,0.08,0.99,-2.09,-0.10,-0.11,
2.076,-0.19,0.08,0.99,-2.09,-0.10,-0.11,
2.078,-0.19,0.08,1.00,-2.09,-0.10,-0.11,
2.079,-0.19,0.08,1.00,-2.09,-0.09,-0.05,
2.081,-0.19,0.08,0.99,-2.09,-0.09,-0.05,
2.083,-0.19,0.08,1.00,-2.09,-0.09,-0.05,
2.084,-0.19,0.08,1.00,-2.08,-0.09,0.00,
2.086,-0.18,0.08,1.00,-2.08,-0.09,0.00,
2.088,-0.18,0.08,1.01,-2.08,-0.09,0.00,
2.088,-0.18,0.08,1.01,-2.09,-0.02,0.02,
2.091,-0.18,0.09,1.00,-2.09,-0.02,0.02,
2.099,-0.19,0.09,0.99,-2.09,-0.02,0.02,
2.1,-0.19,0.09,0.99,-2.02,-0.01,0.10,
2.1,-0.19,0.09,0.99,-2.02,-0.01,0.10,
2.1,-0.18,0.09,0.99,-2.02,-0.01,0.10,
2.1,-0.18,0.09,0.99,-2.07,0.08,0.04,
2.101,-0.18,0.09,1.00,-2.07,0.08,0.04,
2.103,-0.18,0.09,1.00,-2.07,0.08,0.04,
2.103,-0.18,0.09,1.00,-2.06,0.09,-0.03,
2.106,-0.17,0.10,0.99,-2.06,0.09,-0.03,
2.109,-0.18,0.10,0.99,-2.06,0.09,-0.03,
2.109,-0.18,0.10,0.99,-2.04,0.12,0.08,
2.112,-0.17,0.10,0.99,-2.04,0.12,0.08,
2.113,-0.17,0.10,0.99,-2.04,0.12,0.08,
2.113,-0.17,0.10,0.99,-2.01,0.16,-0.04,
2.116,-0.17,0.10,0.99,-2.01,0.16,-0.04,
2.118,-0.17,0.09,0.99,-2.01,0.16,-0.04,
2.119,-0.17,0.09,0.99,-1.97,0.15,-0.05,
2.12,-0.16,0.09,0.99,-1.97,0.15,-0.05,
2.124,-0.16,0.10,0.98,-1.97,0.15,-0.05,
2.125,-0.16,0.10,0.98,-1.93,0.12,-0.06,
2.126,-0.15,0.10,0.98,-1.93,0.12,-0.06,
2.129,-0.14,0.10,0.98,-1.93,0.12,-0.06,
2.13,-0.14,0.10,0.98,-1.88,0.14,-0.10,
2.131,-0.15,0.10,0.99,-1.88,0.14,-0.10,
2.133,-0.14,0.10,0.98,-1.88,0.14,-0.10,
2.133,-0.14,0.10,0.98,-1.75,0.21,-0.11,
2.135,-0.14,0.10,0.98,-1.75,0.21,-0.11,
2.138,-0.14,0.10,0.98,-1.75,0.21,-0.11,
2.141,-0.14,0.10,0.98,-1.73,0.18,-0.12,
2.142,-0.13,0.10,0.97,-1.73,0.18,-0.12,
2.143,-0.13,0.10,0.98,-1.73,0.18,-0.12,
2.143,-0.13,0.10,0.98,-1.70,0.23,-0.10,
2.146,-0.13,0.09,0.98,-1.70,0.23,-0.10,
2.148,-0.12,0.09,0.98,-1.70,0.23,-0.10,
2.148,-0.12,0.09,0.98,-1.60,0.20,-0.14,
2.152,-0.12,0.09,0.98,-1.60,0.20,-0.14,
2.153,-0.12,0.09,0.98,-1.55,0.13,-0.13,
2.153,-0.11,0.09,0.98,-1.55,0.13,-0.13,
2.156,-0.11,0.08,0.98,-1.55,0.13,-0.13,
2.158,-0.10,0.09,0.98,-1.55,0.13,-0.13,
2.158,-0.10,0.09,0.98,-1.47,0.09,-0.13,
2.161,-0.10,0.09,0.99,-1.47,0.09,-0.13,
2.162,-0.09,0.08,0.98,-1.47,0.09,-0.13,
2.164,-0.09,0.08,0.98,-1.37,0.07,-0.16,
2.165,-0.09,0.08,0.99,-1.37,0.07,-0.16,
2.168,-0.09,0.08,0.99,-1.37,0.07,-0.16,
2.168,-0.09,0.08,0.99,-1.27,0.08,-0.13,
2.171,-0.08,0.08,0.99,-1.27,0.08,-0.13,
2.173,-0.08,0.08,0.99,-1.27,0.08,-0.13,
2.173,-0.08,0.08,0.99,-1.19,0.05,-0.06,
2.176,-0.07,0.08,0.99,-1.19,0.05,-0.06,
2.182,-0.06,0.08,1.00,-1.19,0.05,-0.06,
2.182,-0.06,0.08,1.00,-1.10,0.04,-0.04,
2.182,-0.06,0.08,1.01,-1.10,0.04,-0.04,
2.183,-0.06,0.08,1.01,-0.99,0.08,0.01,
2.183,-0.06,0.09,1.00,-0.99,0.08,0.01,
2.185,-0.05,0.09,1.00,-0.99,0.08,0.01,
2.188,-0.05,0.09,1.00,-0.99,0.08,0.01,
2.188,-0.05,0.09,1.00,-0.93,0.13,0.08,
2.191,-0.05,0.09,1.00,-0.93,0.13,0.08,
2.193,-0.04,0.09,0.99,-0.93,0.13,0.08,
2.193,-0.04,0.09,0.99,-0.83,0.18,0.01,
2.196,-0.05,0.09,1.01,-0.83,0.18,0.01,
2.197,-0.05,0.08,1.01,-0.83,0.18,0.01,
2.198,-0.05,0.08,1.01,-0.78,0.19,0.01,
2.2,-0.05,0.09,1.01,-0.78,0.19,0.01,
2.203,-0.04,0.08,1.00,-0.78,0.19,0.01,
2.203,-0.04,0.08,1.00,-0.80,0.13,0.16,
2.206,-0.04,0.08,1.00,-0.80,0.13,0.16,
2.208,-0.05,0.08,1.01,-0.80,0.13,0.16,
2.208,-0.05,0.08,1.01,-0.79,0.11,0.11,
2.21,-0.05,0.08,1.01,-0.79,0.11,0.11,
2.213,-0.05,0.07,1.01,-0.79,0.11,0.11,
2.214,-0.05,0.07,1.01,-0.80,0.07,0.09,
2.215,-0.05,0.07,1.01,-0.80,0.07,0.09,
2.217,-0.04,0.07,1.01,-0.80,0.07,0.09,
2.217,-0.04,0.07,1.01,-0.81,0.06,0.16,
2.22,-0.04,0.06,1.01,-0.81,0.06,0.16,
2.223,-0.04,0.06,1.01,-0.75,0.00,0.13,
2.223,-0.04,0.06,1.01,-0.75,0.00,0.13,
2.225,-0.04,0.06,1.01,-0.75,0.00,0.13,
2.228,-0.03,0.06,1.00,-0.75,0.00,0.13,
2.228,-0.03,0.06,1.00,-0.75,-0.08,0.16,
2.23,-0.04,0.06,1.00,-0.75,-0.08,0.16,
2.232,-0.04,0.06,1.00,-0.75,-0.08,0.16,
2.232,-0.04,0.06,1.00,-0.66,-0.07,0.10,
2.235,-0.04,0.06,0.99,-0.66,-0.07,0.10,
2.238,-0.04,0.06,0.99,-0.66,-0.07,0.10,
2.238,-0.04,0.06,0.99,-0.68,-0.08,0.05,
2.24,-0.04,0.06,1.00,-0.68,-0.08,0.05,
2.242,-0.05,0.07,1.00,-0.68,-0.08,0.05,
2.243,-0.05,0.07,1.00,-0.72,-0.08,-0.03,
2.245,-0.05,0.06,0.99,-0.72,-0.08,-0.03,
2.247,-0.05,0.07,0.99,-0.72,-0.08,-0.03,
2.247,-0.05,0.07,0.99,-0.75,-0.05,0.04,
2.25,-0.05,0.07,1.00,-0.75,-0.05,0.04,
2.253,-0.05,0.08,0.99,-0.75,-0.05,0.04,
2.253,-0.05,0.08,0.99,-0.74,-0.03,-0.03,
2.255,-0.05,0.08,0.98,-0.74,-0.03,-0.03,
2.257,-0.06,0.08,0.98,-0.74,-0.03,-0.03,
2.258,-0.06,0.08,0.98,-0.78,0.05,-0.02,
2.26,-0.06,0.08,0.98,-0.78,0.05,-0.02,
2.264,-0.07,0.09,0.99,-0.78,0.05,-0.02,
2.265,-0.07,0.09,0.99,-0.82,0.09,-0.16,
2.265,-0.07,0.09,0.98,-0.82,0.09,-0.16,
2.267,-0.06,0.09,0.98,-0.82,0.09,-0.16,
2.267,-0.06,0.09,0.98,-0.92,0.12,-0.10,
2.27,-0.07,0.08,0.99,-0.92,0.12,-0.10,
2.272,-0.06,0.08,0.98,-0.92,0.12,-0.10,
2.273,-0.06,0.08,0.98,-0.88,0.17,-0.12,
2.275,-0.06,0.08,0.99,-0.88,0.17,-0.12,
2.278,-0.06,0.08,0.99,-0.88,0.17,-0.12,
2.278,-0.06,0.08,0.99,-0.88,0.13,-0.09,
2.28,-0.06,0.08,0.99,-0.88,0.13,-0.09,
2.282,-0.05,0.07,1.01,-0.88,0.13,-0.09,
2.283,-0.05,0.07,1.01,-0.85,0.11,-0.06,
2.284,-0.04,0.07,1.01,-0.85,0.11,-0.06,
2.286,-0.04,0.07,1.02,-0.85,0.11,-0.06,
2.287,-0.04,0.07,1.02,-0.77,0.05,0.05,
2.29,-0.04,0.07,1.03,-0.77,0.05,0.05,
2.292,-0.03,0.07,1.04,-0.77,0.05,0.05,
2.292,-0.03,0.07,1.04,-0.63,0.05,0.21,
2.294,-0.03,0.07,1.04,-0.63,0.05,0.21,
2.297,-0.02,0.06,1.04,-0.63,0.05,0.21,
2.297,-0.02,0.06,1.04,-0.58,0.04,0.37,
2.299,-0.02,0.06,1.04,-0.58,0.04,0.37,
2.301,-0.01,0.06,1.04,-0.58,0.04,0.37,
2.302,-0.01,0.06,1.04,-0.47,-0.02,0.45,
2.304,-0.00,0.06,1.05,-0.47,-0.02,0.45,
2.307,-0.00,0.06,1.05,-0.47,-0.02,0.45,
2.307,-0.00,0.06,1.05,-0.37,-0.07,0.47,
2.309,0.00,0.06,1.05,-0.37,-0.07,0.47,
2.317,0.01,0.06,1.05,-0.37,-0.07,0.47,
2.317,0.01,0.06,1.05,-0.24,-0.10,0.58,
2.318,0.01,0.06,1.05,-0.24,-0.10,0.58,
2.318,0.01,0.06,1.06,-0.24,-0.10,0.58,
2.318,0.01,0.06,1.06,-0.18,-0.10,0.53,
2.319,0.01,0.05,1.06,-0.18,-0.10,0.53,
2.321,0.01,0.06,1.05,-0.18,-0.10,0.53,
2.321,0.01,0.06,1.05,-0.13,-0.11,0.60,
2.323,0.01,0.06,1.05,-0.13,-0.11,0.60,
2.326,0.01,0.07,1.05,-0.13,-0.11,0.60,
2.327,0.01,0.07,1.05,-0.13,-0.10,0.55,
2.33,0.01,0.06,1.04,-0.13,-0.10,0.55,
2.332,0.00,0.07,1.04,-0.13,-0.10,0.55,
2.332,0.00,0.07,1.04,-0.12,-0.05,0.51,
2.337,-0.00,0.07,1.03,-0.12,-0.05,0.51,
2.337,-0.00,0.07,1.03,-0.12,-0.05,0.51,
2.337,-0.00,0.07,1.03,-0.13,-0.04,0.43,
2.338,-0.01,0.07,1.02,-0.13,-0.04,0.43,
2.342,-0.00,0.07,1.01,-0.13,-0.04,0.43,
2.342,-0.00,0.07,1.01,-0.19,0.01,0.36,
2.343,-0.01,0.08,1.01,-0.19,0.01,0.36,
2.347,-0.01,0.08,1.00,-0.19,0.01,0.36,
2.348,-0.01,0.08,1.00,-0.22,0.03,0.20,
2.348,-0.01,0.08,1.00,-0.22,0.03,0.20,
2.351,-0.01,0.08,1.00,-0.21,0.09,0.10,
2.351,-0.01,0.08,0.99,-0.21,0.09,0.10,
2.354,-0.02,0.09,0.99,-0.21,0.09,0.10,
2.356,-0.02,0.09,0.99,-0.21,0.09,0.10,
2.356,-0.02,0.09,0.99,-0.27,0.13,0.00,
2.359,-0.02,0.10,0.98,-0.27,0.13,0.00,
2.361,-0.02,0.09,0.98,-0.27,0.13,0.00,
2.362,-0.02,0.09,0.98,-0.33,0.17,-0.04,
2.364,-0.03,0.09,0.98,-0.33,0.17,-0.04,
2.366,-0.03,0.09,0.98,-0.33,0.17,-0.04,
2.367,-0.03,0.09,0.98,-0.35,0.23,-0.17,
2.368,-0.03,0.09,0.97,-0.35,0.23,-0.17,
2.372,-0.03,0.09,0.97,-0.35,0.23,-0.17,
2.372,-0.03,0.09,0.97,-0.39,0.19,-0.19,
2.374,-0.03,0.09,0.98,-0.39,0.19,-0.19,
2.376,-0.03,0.08,0.97,-0.39,0.19,-0.19,
2.376,-0.03,0.08,0.97,-0.42,0.18,-0.26,
2.381,-0.03,0.08,0.97,-0.42,0.18,-0.26,
2.381,-0.03,0.09,0.98,-0.42,0.18,-0.26,
2.381,-0.03,0.09,0.98,-0.43,0.17,-0.21,
2.383,-0.03,0.08,0.98,-0.43,0.17,-0.21,
2.387,-0.03,0.08,0.98,-0.43,0.17,-0.21,
2.387,-0.03,0.08,0.98,-0.46,0.12,-0.20,
2.389,-0.02,0.07,0.99,-0.46,0.12,-0.20,
2.391,-0.02,0.07,0.99,-0.46,0.12,-0.20,
2.392,-0.02,0.07,0.99,-0.44,0.08,-0.13,
2.394,-0.02,0.07,0.99,-0.44,0.08,-0.13,
2.397,-0.01,0.07,1.01,-0.44,0.08,-0.13,
2.398,-0.01,0.07,1.01,-0.32,0.01,-0.05,
2.398,-0.00,0.07,1.01,-0.32,0.01,-0.05,
2.4,0.00,0.07,1.02,-0.32,0.01,-0.05,
2.401,0.00,0.07,1.02,-0.24,-0.02,0.05,
2.404,0.01,0.06,1.02,-0.24,-0.02,0.05,
2.406,0.02,0.06,1.03,-0.24,-0.02,0.05,
2.406,0.02,0.06,1.03,-0.13,-0.01,0.18,
2.408,0.03,0.06,1.04,-0.13,-0.01,0.18,
2.411,0.03,0.05,1.04,-0.13,-0.01,0.18,
2.411,0.03,0.05,1.04,0.04,-0.08,0.30,
2.417,0.04,0.05,1.05,0.04,-0.08,0.30,
2.417,0.04,0.05,1.05,0.04,-0.08,0.30,
2.417,0.04,0.05,1.05,0.18,-0.13,0.42,
2.418,0.05,0.05,1.05,0.18,-0.13,0.42,
2.42,0.05,0.05,1.05,0.18,-0.13,0.42,
2.42,0.05,0.05,1.05,0.28,-0.15,0.49,
2.423,0.05,0.05,1.05,0.28,-0.15,0.49,
2.426,0.05,0.05,1.05,0.28,-0.15,0.49,
2.426,0.05,0.05,1.05,0.39,-0.21,0.50,
2.428,0.06,0.05,1.04,0.39,-0.21,0.50,
2.43,0.05,0.05,1.05,0.39,-0.21,0.50,
2.431,0.05,0.05,1.05,0.42,-0.20,0.50,
2.433,0.05,0.06,1.04,0.42,-0.20,0.50,
2.435,0.05,0.06,1.03,0.42,-0.20,0.50,
2.436,0.05,0.06,1.03,0.45,-0.17,0.48,
2.438,0.05,0.07,1.02,0.45,-0.17,0.48,
2.441,0.04,0.07,1.02,0.45,-0.17,0.48,
2.441,0.04,0.07,1.02,0.44,-0.09,0.41,
2.443,0.03,0.07,1.01,0.44,-0.09,0.41,
2.446,0.03,0.07,1.01,0.44,-0.09,0.41,
2.446,0.03,0.07,1.01,0.35,-0.06,0.25,
2.448,0.02,0.07,1.01,0.35,-0.06,0.25,
2.45,0.02,0.08,1.00,0.35,-0.06,0.25,
2.451,0.02,0.08,1.00,0.23,-0.03,0.15,
2.452,0.02,0.08,1.00,0.23,-0.03,0.15,
2.456,0.01,0.07,0.99,0.23,-0.03,0.15,
2.456,0.01,0.07,0.99,0.14,0.02,0.08,
2.457,0.01,0.08,0.99,0.14,0.02,0.08,
2.46,0.01,0.08,0.98,0.14,0.02,0.08,
2.461,0.01,0.08,0.98,0.10,0.00,-0.03,
2.463,0.01,0.08,0.98,0.10,0.00,-0.03,
2.466,0.01,0.08,0.98,0.03,0.02,-0.11,
2.466,0.01,0.08,0.98,0.03,0.02,-0.11,
2.467,0.00,0.07,0.98,0.03,0.02,-0.11,
2.47,0.00,0.08,0.97,0.03,0.02,-0.11,
2.471,0.00,0.08,0.97,0.03,0.01,-0.14,
2.472,0.00,0.08,0.98,0.03,0.01,-0.14,
2.475,0.00,0.07,0.98,0.03,0.01,-0.14,
2.475,0.00,0.07,0.98,-0.03,0.02,-0.21,
2.477,-0.00,0.08,0.98,-0.03,0.02,-0.21,
2.481,0.00,0.07,0.99,-0.03,0.02,-0.21,
2.482,0.00,0.07,0.99,-0.02,0.01,-0.16,
2.482,-0.00,0.07,0.99,-0.02,0.01,-0.16,
2.485,-0.00,0.07,0.99,-0.04,-0.02,-0.11,
2.485,-0.00,0.06,0.99,-0.04,-0.02,-0.11,
2.488,-0.01,0.06,1.00,-0.04,-0.02,-0.11,
2.49,-0.01,0.06,1.00,-0.04,-0.02,-0.11,
2.49,-0.01,0.06,1.00,-0.06,-0.10,-0.07,
2.493,-0.01,0.06,1.01,-0.06,-0.10,-0.07,
2.495,-0.01,0.06,1.02,-0.06,-0.10,-0.07,
2.495,-0.01,0.06,1.02,-0.13,-0.15,0.04,
2.497,-0.01,0.06,1.02,-0.13,-0.15,0.04,
2.499,-0.02,0.06,1.03,-0.13,-0.15,0.04,
2.5,-0.02,0.06,1.03,-0.16,-0.15,0.16,
2.502,-0.01,0.06,1.03,-0.16,-0.15,0.16,
2.505,-0.01,0.06,1.03,-0.16,-0.15,0.27,
2.505,-0.01,0.06,1.04,-0.16,-0.15,0.27,
2.507,-0.01,0.06,1.04,-0.16,-0.15,0.27,
2.51,-0.01,0.06,1.05,-0.16,-0.15,0.27,
2.51,-0.01,0.06,1.05,-0.16,-0.14,0.41,
2.512,-0.01,0.06,1.06,-0.16,-0.14,0.41,
2.514,-0.01,0.06,1.06,-0.16,-0.11,0.49,
2.515,-0.01,0.07,1.06,-0.16,-0.11,0.49,
2.517,-0.01,0.07,1.06,-0.16,-0.11,0.49,
2.52,-0.01,0.07,1.06,-0.13,-0.08,0.62,
2.52,-0.01,0.07,1.07,-0.13,-0.08,0.62,
2.522,-0.01,0.07,1.06,-0.13,-0.08,0.62,
2.525,-0.01,0.06,1.05,-0.13,-0.08,0.62,
2.525,-0.01,0.06,1.05,-0.12,-0.06,0.68,
2.527,-0.01,0.06,1.05,-0.12,-0.06,0.68,
2.535,-0.01,0.07,1.06,-0.12,-0.06,0.68,
2.535,-0.01,0.07,1.06,-0.10,-0.09,0.58,
2.535,-0.00,0.07,1.05,-0.10,-0.09,0.58,
2.536,-0.00,0.07,1.05,-0.10,-0.09,0.58,
2.536,-0.00,0.07,1.05,-0.16,-0.10,0.57,
2.538,-0.01,0.07,1.04,-0.16,-0.10,0.57,
2.539,0.00,0.07,1.03,-0.16,-0.10,0.57,
2.54,0.00,0.07,1.03,-0.07,-0.10,0.49,
2.542,0.00,0.07,1.02,-0.07,-0.10,0.49,
2.544,-0.00,0.07,1.02,-0.07,-0.10,0.49,
2.544,-0.00,0.07,1.02,-0.06,-0.06,0.40,
2.549,-0.00,0.07,1.02,-0.06,-0.06,0.40,
2.55,0.00,0.07,1.02,-0.06,-0.06,0.40,
2.55,0.00,0.07,1.02,-0.04,-0.09,0.25,
2.552,0.00,0.07,1.01,-0.04,-0.09,0.25,
2.554,-0.00,0.07,1.01,-0.04,-0.09,0.25,
2.555,-0.00,0.07,1.01,-0.05,-0.09,0.22,
2.556,-0.01,0.08,1.01,-0.05,-0.09,0.22,
2.56,-0.00,0.08,1.00,-0.05,-0.09,0.22,
2.56,-0.00,0.08,1.00,-0.05,-0.09,0.14,
2.562,-0.00,0.08,1.00,-0.05,-0.09,0.14,
2.564,-0.00,0.09,0.93,-0.05,-0.09,0.14,
2.564,-0.00,0.09,0.93,-0.09,-0.06,0.08,
2.566,-0.02,0.10,0.86,-0.09,-0.06,0.08,
2.569,-0.03,0.11,0.82,-0.09,-0.06,0.08,
2.569,-0.03,0.11,0.82,-0.07,0.03,-0.31,
2.572,-0.03,0.11,0.84,-0.07,0.03,-0.31,
2.574,-0.02,0.11,0.89,-0.07,0.03,-0.31,
2.574,-0.02,0.11,0.89,-0.26,0.17,-1.56,
2.577,-0.03,0.12,0.93,-0.26,0.17,-1.56,
2.579,-0.03,0.12,0.95,-0.26,0.17,-1.56,
2.579,-0.03,0.12,0.95,-0.27,0.23,-1.25,
2.581,-0.04,0.11,0.95,-0.27,0.23,-1.25,
2.584,-0.04,0.11,0.96,-0.27,0.23,-1.25,
2.584,-0.04,0.11,0.96,-0.28,0.31,-0.56,
2.586,-0.05,0.10,0.97,-0.28,0.31,-0.56,
2.589,-0.05,0.10,0.96,-0.28,0.31,-0.56,
2.589,-0.05,0.10,0.96,-0.40,0.23,-0.38,
2.591,-0.04,0.10,0.96,-0.40,0.23,-0.38,
2.593,-0.03,0.09,0.98,-0.40,0.23,-0.38,
2.593,-0.03,0.09,0.98,-0.49,0.15,-0.32,
2.598,-0.03,0.09,0.98,-0.49,0.15,-0.32,
2.599,-0.02,0.09,1.00,-0.49,0.15,-0.32,
2.599,-0.02,0.09,1.00,-0.36,0.09,-0.23,
2.602,-0.02,0.09,1.01,-0.36,0.09,-0.23,
2.603,-0.01,0.10,1.02,-0.36,0.09,-0.23,
2.603,-0.01,0.10,1.02,-0.22,0.03,-0.04,
2.606,-0.02,0.10,1.02,-0.22,0.03,-0.04,
2.608,-0.02,0.10,1.03,-0.22,0.03,-0.04,
2.609,-0.02,0.10,1.03,-0.17,0.08,0.20,
2.611,-0.02,0.11,1.05,-0.17,0.08,0.20,
2.619,-0.01,0.11,1.04,-0.17,0.08,0.20,
2.619,-0.01,0.11,1.04,-0.18,0.13,0.33,
2.619,-0.01,0.10,1.05,-0.18,0.13,0.33,
2.62,-0.01,0.10,1.05,-0.18,0.13,0.33,
2.62,-0.01,0.10,1.05,-0.16,0.21,0.50,
2.621,-0.01,0.10,1.04,-0.16,0.21,0.50,
2.623,-0.00,0.10,1.03,-0.16,0.21,0.50,
2.623,-0.00,0.10,1.03,-0.12,0.16,0.55,
2.626,-0.00,0.10,1.03,-0.12,0.16,0.55,
2.628,0.00,0.10,1.02,-0.12,0.16,0.55,
2.628,0.00,0.10,1.02,-0.06,0.12,0.38,
2.636,-0.00,0.09,1.01,-0.06,0.12,0.38,
2.636,0.00,0.09,1.01,-0.06,0.12,0.38,
2.639,0.00,0.09,1.01,-0.01,0.08,0.31,
2.639,0.00,0.09,1.00,-0.01,0.08,0.31,
2.639,0.00,0.09,1.00,-0.01,0.02,0.14,
2.639,0.00,0.09,1.00,-0.01,0.02,0.14,
2.641,0.00,0.09,1.00,-0.01,0.02,0.14,
2.644,0.00,0.09,1.00,-0.01,0.02,0.14,
2.644,0.00,0.09,1.00,-0.00,0.01,0.04,
2.646,0.01,0.09,0.99,-0.00,0.01,0.04,
2.657,0.00,0.09,0.99,-0.00,0.01,0.04,
2.658,0.00,0.09,0.99,0.02,0.02,0.04,
2.658,0.01,0.09,0.98,0.02,0.02,0.04,
2.658,0.01,0.09,0.98,0.04,0.02,-0.05,
2.658,0.00,0.08,0.99,0.04,0.02,-0.05,
2.659,0.01,0.08,0.99,0.04,0.02,-0.05,
2.659,0.01,0.08,0.99,0.04,0.02,-0.05,
2.659,0.01,0.08,0.99,0.04,-0.04,-0.06,
