
time,gFx,gFy,gFz,ax,ay,az,
0.001,0.02,0.18,0.86,0.00,0.40,-1.16,
0.001,0.02,0.18,0.86,0.14,0.51,-1.31,
0.001,0.02,0.20,0.87,0.14,0.51,-1.31,
0.003,0.01,0.20,0.87,0.14,0.51,-1.31,
0.003,0.01,0.20,0.87,0.27,0.63,-1.33,
0.006,-0.00,0.18,0.88,0.27,0.63,-1.33,
0.008,-0.01,0.16,0.89,0.27,0.63,-1.33,
0.008,-0.01,0.16,0.89,0.25,0.94,-1.18,
0.011,-0.01,0.14,0.90,0.25,0.94,-1.18,
0.014,-0.01,0.13,0.91,0.25,0.94,-1.18,
0.014,-0.01,0.13,0.91,0.08,0.65,-1.03,
0.016,-0.01,0.12,0.92,0.08,0.65,-1.03,
0.018,-0.00,0.11,0.92,0.08,0.65,-1.03,
0.018,-0.00,0.11,0.92,0.05,0.32,-0.86,
0.021,-0.00,0.11,0.93,0.05,0.32,-0.86,
0.023,0.00,0.10,0.93,0.05,0.32,-0.86,
0.023,0.00,0.10,0.93,0.08,0.11,-0.69,
0.026,0.01,0.10,0.93,0.08,0.11,-0.69,
0.028,0.02,0.10,0.94,0.08,0.11,-0.69,
0.028,0.02,0.10,0.94,0.13,0.04,-0.58,
0.031,0.02,0.10,0.94,0.13,0.04,-0.58,
0.033,0.03,0.09,0.94,0.13,0.04,-0.58,
0.033,0.03,0.09,0.94,0.27,-0.02,-0.54,
0.036,0.04,0.10,0.95,0.27,-0.02,-0.54,
0.038,0.05,0.10,0.95,0.27,-0.02,-0.54,
0.038,0.05,0.10,0.95,0.39,-0.04,-0.46,
0.04,0.06,0.10,0.95,0.39,-0.04,-0.46,
0.043,0.06,0.10,0.95,0.39,-0.04,-0.46,
0.043,0.06,0.10,0.95,0.56,0.03,-0.39,
0.045,0.08,0.09,0.95,0.56,0.03,-0.39,
0.048,0.08,0.09,0.96,0.56,0.03,-0.39,
0.049,0.08,0.09,0.96,0.72,-0.01,-0.37,
0.05,0.09,0.08,0.96,0.72,-0.01,-0.37,
0.053,0.09,0.08,0.95,0.72,-0.01,-0.37,
0.053,0.09,0.08,0.95,0.90,-0.07,-0.35,
0.055,0.10,0.08,0.95,0.90,-0.07,-0.35,
0.058,0.10,0.08,0.95,0.90,-0.07,-0.35,
0.058,0.10,0.08,0.95,0.97,-0.13,-0.33,
0.06,0.11,0.07,0.95,0.97,-0.13,-0.33,
0.063,0.11,0.07,0.94,0.97,-0.13,-0.33,
0.063,0.11,0.07,0.94,1.07,-0.15,-0.40,
0.065,0.11,0.07,0.93,1.07,-0.15,-0.40,
0.068,0.11,0.07,0.93,1.07,-0.15,-0.40,
0.068,0.11,0.07,0.93,1.15,-0.23,-0.44,
0.07,0.11,0.07,0.92,1.15,-0.23,-0.44,
0.073,0.11,0.07,0.92,1.15,-0.23,-0.44,
0.073,0.11,0.07,0.92,1.15,-0.23,-0.58,
0.075,0.10,0.06,0.92,1.15,-0.23,-0.58,
0.078,0.10,0.07,0.92,1.15,-0.23,-0.58,
0.078,0.10,0.07,0.92,1.13,-0.27,-0.65,
0.081,0.10,0.07,0.92,1.13,-0.27,-0.65,
0.083,0.10,0.07,0.92,1.13,-0.27,-0.65,
0.083,0.10,0.07,0.92,1.03,-0.30,-0.64,
0.085,0.10,0.07,0.92,1.03,-0.30,-0.64,
0.087,0.09,0.08,0.92,1.03,-0.30,-0.64,
0.088,0.09,0.08,0.92,0.97,-0.26,-0.61,
0.09,0.09,0.08,0.92,0.97,-0.26,-0.61,
0.093,0.09,0.08,0.92,0.91,-0.20,-0.63,
0.093,0.09,0.08,0.93,0.91,-0.20,-0.63,
0.095,0.09,0.08,0.92,0.91,-0.20,-0.63,
0.097,0.09,0.08,0.92,0.91,-0.20,-0.63,
0.098,0.09,0.08,0.92,0.88,-0.15,-0.62,
0.1,0.09,0.08,0.92,0.88,-0.15,-0.62,
0.102,0.10,0.08,0.93,0.88,-0.15,-0.62,
0.102,0.10,0.08,0.93,0.86,-0.14,-0.59,
0.105,0.10,0.08,0.93,0.86,-0.14,-0.59,
0.107,0.10,0.07,0.94,0.86,-0.14,-0.59,
0.107,0.10,0.07,0.94,0.87,-0.15,-0.57,
0.11,0.11,0.07,0.95,0.87,-0.15,-0.57,
0.112,0.11,0.07,0.95,0.87,-0.15,-0.57,
0.112,0.11,0.07,0.95,0.90,-0.14,-0.48,
0.115,0.11,0.07,0.95,0.90,-0.14,-0.48,
0.117,0.12,0.06,0.95,0.90,-0.14,-0.48,
0.118,0.12,0.06,0.95,0.97,-0.20,-0.36,
0.12,0.12,0.06,0.96,0.97,-0.20,-0.36,
0.122,0.12,0.06,0.96,0.97,-0.20,-0.36,
0.122,0.12,0.06,0.96,1.00,-0.24,-0.31,
0.125,0.12,0.06,0.97,1.00,-0.24,-0.31,
0.127,0.12,0.05,0.97,1.00,-0.24,-0.31,
0.127,0.12,0.05,0.97,1.04,-0.27,-0.22,
0.13,0.12,0.05,0.98,1.04,-0.27,-0.22,
0.132,0.12,0.05,0.98,1.07,-0.32,-0.09,
0.132,0.12,0.04,0.99,1.07,-0.32,-0.09,
0.135,0.13,0.03,1.00,1.07,-0.32,-0.09,
0.137,0.13,0.03,1.00,1.07,-0.32,-0.09,
0.137,0.13,0.03,1.00,1.08,-0.43,0.03,
0.139,0.13,0.02,1.01,1.08,-0.43,0.03,
0.142,0.14,0.02,1.02,1.08,-0.43,0.03,
0.142,0.14,0.02,1.02,1.17,-0.54,0.15,
0.144,0.14,0.01,1.02,1.17,-0.54,0.15,
0.148,0.14,0.01,1.03,1.17,-0.54,0.15,
0.149,0.14,0.01,1.03,1.20,-0.62,0.30,
0.149,0.13,0.00,1.03,1.20,-0.62,0.30,
0.152,0.14,-0.00,1.03,1.20,-0.62,0.30,
0.152,0.14,-0.00,1.03,1.23,-0.73,0.38,
0.154,0.14,-0.01,1.03,1.23,-0.73,0.38,
0.157,0.14,-0.01,1.04,1.23,-0.73,0.38,
0.157,0.14,-0.01,1.04,1.21,-0.81,0.45,
0.159,0.14,-0.02,1.04,1.21,-0.81,0.45,
0.162,0.14,-0.02,1.04,1.21,-0.81,0.45,
0.163,0.14,-0.02,1.04,1.22,-0.88,0.49,
0.164,0.14,-0.02,1.04,1.22,-0.88,0.49,
0.167,0.14,-0.02,1.04,1.22,-0.88,0.49,
0.167,0.14,-0.02,1.04,1.23,-0.94,0.51,
0.169,0.14,-0.02,1.04,1.23,-0.94,0.51,
0.171,0.13,-0.02,1.04,1.23,-0.94,0.51,
0.172,0.13,-0.02,1.04,1.20,-0.97,0.53,
0.174,0.13,-0.02,1.04,1.20,-0.97,0.53,
0.176,0.14,-0.02,1.03,1.20,-0.97,0.53,
0.176,0.14,-0.02,1.03,1.18,-0.97,0.50,
0.179,0.14,-0.02,1.03,1.18,-0.97,0.50,
0.181,0.13,-0.01,1.03,1.18,-0.97,0.50,
0.182,0.13,-0.01,1.03,1.18,-0.94,0.49,
0.184,0.12,-0.01,1.03,1.18,-0.94,0.49,
0.186,0.12,-0.00,1.03,1.18,-0.94,0.49,
0.186,0.12,-0.00,1.03,1.16,-0.87,0.43,
0.189,0.12,0.00,1.02,1.16,-0.87,0.43,
0.191,0.11,0.01,1.01,1.16,-0.87,0.43,
0.191,0.11,0.01,1.01,1.05,-0.77,0.44,
0.194,0.10,0.02,1.01,1.05,-0.77,0.44,
0.196,0.10,0.02,0.99,1.05,-0.77,0.44,
0.196,0.10,0.02,0.99,0.97,-0.67,0.27,
0.199,0.09,0.03,1.00,0.97,-0.67,0.27,
0.201,0.09,0.03,1.00,0.97,-0.67,0.27,
0.201,0.09,0.03,1.00,0.83,-0.55,0.12,
0.204,0.08,0.04,1.00,0.83,-0.55,0.12,
0.206,0.08,0.04,1.00,0.83,-0.55,0.12,
0.206,0.08,0.04,1.00,0.70,-0.43,0.10,
0.209,0.07,0.05,1.00,0.70,-0.43,0.10,
0.211,0.07,0.07,1.00,0.70,-0.43,0.10,
0.211,0.07,0.07,1.00,0.56,-0.30,0.08,
0.214,0.07,0.07,1.00,0.56,-0.30,0.08,
0.216,0.06,0.08,1.01,0.56,-0.30,0.08,
0.216,0.06,0.08,1.01,0.48,-0.14,0.14,
0.219,0.07,0.09,1.01,0.48,-0.14,0.14,
0.221,0.06,0.09,1.01,0.48,-0.14,0.14,
0.221,0.06,0.09,1.01,0.44,0.03,0.17,
0.223,0.06,0.10,1.01,0.44,0.03,0.17,
0.226,0.05,0.11,1.02,0.44,0.03,0.17,
0.226,0.05,0.11,1.02,0.40,0.17,0.19,
0.228,0.06,0.12,1.02,0.40,0.17,0.19,
0.231,0.06,0.12,1.03,0.40,0.17,0.19,
0.231,0.06,0.12,1.03,0.32,0.31,0.24,
0.233,0.05,0.12,1.04,0.32,0.31,0.24,
0.236,0.06,0.12,1.04,0.32,0.31,0.24,
0.236,0.06,0.12,1.04,0.30,0.47,0.38,
0.238,0.05,0.12,1.04,0.30,0.47,0.38,
0.241,0.05,0.12,1.04,0.30,0.47,0.38,
0.241,0.05,0.12,1.04,0.29,0.49,0.49,
0.243,0.05,0.12,1.04,0.29,0.49,0.49,
0.246,0.05,0.12,1.04,0.29,0.49,0.49,
0.246,0.05,0.12,1.04,0.28,0.46,0.53,
0.249,0.06,0.12,1.05,0.28,0.46,0.53,
0.251,0.06,0.12,1.04,0.28,0.46,0.53,
0.251,0.06,0.12,1.04,0.25,0.42,0.52,
0.253,0.06,0.11,1.04,0.25,0.42,0.52,
0.256,0.06,0.12,1.04,0.25,0.42,0.52,
0.256,0.06,0.12,1.04,0.30,0.44,0.50,
0.258,0.06,0.11,1.04,0.30,0.44,0.50,
0.261,0.07,0.11,1.04,0.30,0.44,0.50,
0.261,0.07,0.11,1.04,0.35,0.39,0.50,
0.263,0.07,0.11,1.04,0.35,0.39,0.50,
0.266,0.06,0.11,1.04,0.35,0.39,0.50,
0.266,0.06,0.11,1.04,0.38,0.36,0.49,
0.268,0.06,0.11,1.05,0.38,0.36,0.49,
0.27,0.07,0.11,1.05,0.38,0.36,0.49,
0.271,0.07,0.11,1.05,0.37,0.33,0.51,
0.273,0.07,0.11,1.05,0.37,0.33,0.51,
0.275,0.06,0.12,1.05,0.37,0.33,0.51,
0.275,0.06,0.12,1.05,0.36,0.36,0.55,
0.278,0.06,0.12,1.05,0.36,0.36,0.55,
0.28,0.06,0.12,1.05,0.36,0.36,0.55,
0.281,0.06,0.12,1.05,0.36,0.37,0.57,
0.283,0.06,0.13,1.06,0.36,0.37,0.57,
0.285,0.05,0.13,1.05,0.36,0.37,0.57,
0.285,0.05,0.13,1.05,0.31,0.42,0.58,
0.288,0.04,0.13,1.05,0.31,0.42,0.58,
0.29,0.04,0.12,1.05,0.31,0.42,0.58,
0.29,0.04,0.12,1.05,0.25,0.49,0.61,
0.293,0.03,0.12,1.05,0.25,0.49,0.61,
0.295,0.03,0.12,1.05,0.25,0.49,0.61,
0.295,0.03,0.12,1.05,0.14,0.45,0.59,
0.298,0.02,0.12,1.05,0.14,0.45,0.59,
0.3,0.02,0.11,1.05,0.14,0.45,0.59,
0.3,0.02,0.11,1.05,0.01,0.42,0.58,
0.303,0.02,0.12,1.04,0.01,0.42,0.58,
0.305,0.02,0.12,1.04,0.01,0.42,0.58,
0.305,0.02,0.12,1.04,-0.09,0.37,0.56,
0.308,0.02,0.12,1.02,-0.09,0.37,0.56,
0.31,0.01,0.11,1.01,-0.09,0.37,0.56,
0.31,0.01,0.11,1.01,-0.13,0.38,0.46,
0.313,0.01,0.11,1.00,-0.13,0.38,0.46,
0.315,0.01,0.11,0.99,-0.13,0.38,0.46,
0.315,0.01,0.11,0.99,-0.18,0.39,0.20,
0.318,0.01,0.11,0.98,-0.18,0.39,0.20,
0.32,0.02,0.11,0.97,-0.18,0.39,0.20,
0.32,0.02,0.11,0.97,-0.27,0.34,0.03,
0.323,0.03,0.11,0.96,-0.27,0.34,0.03,
0.325,0.04,0.11,0.96,-0.27,0.34,0.03,
0.325,0.04,0.11,0.96,-0.19,0.31,-0.14,
0.328,0.04,0.11,0.95,-0.19,0.31,-0.14,
0.33,0.05,0.11,0.93,-0.19,0.31,-0.14,
0.33,0.05,0.11,0.93,-0.09,0.32,-0.33,
0.333,0.05,0.11,0.93,-0.09,0.32,-0.33,
0.335,0.06,0.11,0.92,-0.09,0.32,-0.33,
0.335,0.06,0.11,0.92,-0.01,0.29,-0.51,
0.337,0.07,0.11,0.92,-0.01,0.29,-0.51,
0.34,0.07,0.11,0.92,0.13,0.31,-0.67,
0.34,0.07,0.11,0.91,0.13,0.31,-0.67,
0.342,0.08,0.11,0.91,0.13,0.31,-0.67,
0.345,0.08,0.10,0.91,0.13,0.31,-0.67,
0.345,0.08,0.10,0.91,0.21,0.28,-0.75,
0.347,0.09,0.09,0.91,0.21,0.28,-0.75,
0.35,0.09,0.09,0.90,0.21,0.28,-0.75,
0.35,0.09,0.09,0.90,0.28,0.25,-0.83,
0.352,0.09,0.08,0.91,0.28,0.25,-0.83,
0.355,0.09,0.08,0.90,0.28,0.25,-0.83,
0.355,0.09,0.08,0.90,0.35,0.12,-0.85,
0.357,0.09,0.07,0.90,0.35,0.12,-0.85,
0.36,0.09,0.07,0.91,0.35,0.12,-0.85,
0.36,0.09,0.07,0.91,0.35,0.04,-0.85,
0.362,0.09,0.07,0.91,0.35,0.04,-0.85,
0.366,0.08,0.06,0.91,0.35,0.04,-0.85,
0.366,0.08,0.06,0.91,0.33,-0.05,-0.84,
0.367,0.09,0.06,0.91,0.33,-0.05,-0.84,
0.37,0.08,0.06,0.92,0.33,-0.05,-0.84,
0.37,0.08,0.06,0.92,0.32,-0.10,-0.80,
0.372,0.08,0.06,0.92,0.32,-0.10,-0.80,
0.374,0.07,0.06,0.92,0.32,-0.10,-0.80,
0.374,0.07,0.06,0.92,0.31,-0.13,-0.73,
0.377,0.06,0.06,0.93,0.31,-0.13,-0.73,
0.379,0.06,0.06,0.92,0.31,-0.13,-0.73,
0.38,0.06,0.06,0.92,0.21,-0.15,-0.67,
0.382,0.06,0.06,0.93,0.21,-0.15,-0.67,
0.384,0.05,0.05,0.93,0.21,-0.15,-0.67,
0.385,0.05,0.05,0.93,0.13,-0.13,-0.62,
0.387,0.04,0.05,0.93,0.13,-0.13,-0.62,
0.389,0.04,0.05,0.93,0.05,-0.20,-0.56,
0.389,0.04,0.05,0.94,0.05,-0.20,-0.56,
0.392,0.02,0.05,0.95,0.05,-0.20,-0.56,
0.394,0.01,0.05,0.95,0.05,-0.20,-0.56,
0.394,0.01,0.05,0.95,-0.09,-0.26,-0.47,
0.397,0.01,0.05,0.94,-0.09,-0.26,-0.47,
0.399,-0.00,0.04,0.95,-0.09,-0.26,-0.47,
0.399,-0.00,0.04,0.95,-0.29,-0.27,-0.40,
0.402,-0.01,0.04,0.94,-0.29,-0.27,-0.40,
0.404,-0.02,0.05,0.93,-0.29,-0.27,-0.40,
0.404,-0.02,0.05,0.93,-0.42,-0.32,-0.42,
0.407,-0.02,0.04,0.93,-0.42,-0.32,-0.42,
0.409,-0.03,0.04,0.92,-0.42,-0.32,-0.42,
0.409,-0.03,0.04,0.92,-0.55,-0.32,-0.49,
0.412,-0.04,0.04,0.91,-0.55,-0.32,-0.49,
0.416,-0.04,0.04,0.91,-0.70,-0.38,-0.60,
0.416,-0.04,0.04,0.91,-0.70,-0.38,-0.60,
0.418,-0.05,0.04,0.90,-0.70,-0.38,-0.60,
0.42,-0.07,0.04,0.89,-0.70,-0.38,-0.60,
0.42,-0.07,0.04,0.89,-0.81,-0.36,-0.74,
0.422,-0.06,0.05,0.88,-0.81,-0.36,-0.74,
0.425,-0.07,0.05,0.87,-0.81,-0.36,-0.74,
0.425,-0.07,0.05,0.87,-1.00,-0.38,-0.87,
0.428,-0.07,0.05,0.87,-1.00,-0.38,-0.87,
0.43,-0.07,0.05,0.87,-1.00,-0.38,-0.87,
0.43,-0.07,0.05,0.87,-1.08,-0.36,-1.04,
0.432,-0.07,0.06,0.86,-1.08,-0.36,-1.04,
0.435,-0.07,0.06,0.86,-1.08,-0.36,-1.04,
0.435,-0.07,0.06,0.86,-1.12,-0.32,-1.10,
0.437,-0.07,0.06,0.85,-1.12,-0.32,-1.10,
0.439,-0.07,0.06,0.85,-1.17,-0.27,-1.19,
0.44,-0.07,0.06,0.86,-1.17,-0.27,-1.19,
0.442,-0.07,0.07,0.85,-1.17,-0.27,-1.19,
0.444,-0.07,0.07,0.85,-1.17,-0.27,-1.19,
0.444,-0.07,0.07,0.85,-1.16,-0.23,-1.23,
0.446,-0.07,0.07,0.85,-1.16,-0.23,-1.23,
0.451,-0.07,0.07,0.85,-1.16,-0.23,-1.23,
0.452,-0.07,0.07,0.85,-1.16,-0.18,-1.26,
0.452,-0.07,0.07,0.85,-1.16,-0.18,-1.26,
0.454,-0.07,0.07,0.85,-1.17,-0.14,-1.28,
0.455,-0.07,0.07,0.84,-1.17,-0.14,-1.28,
0.457,-0.06,0.08,0.85,-1.17,-0.14,-1.28,
0.459,-0.06,0.08,0.85,-1.17,-0.14,-1.28,
0.459,-0.06,0.08,0.85,-1.15,-0.14,-1.29,
0.461,-0.06,0.08,0.86,-1.15,-0.14,-1.29,
0.464,-0.06,0.08,0.86,-1.15,-0.14,-1.29,
0.464,-0.06,0.08,0.86,-1.12,-0.08,-1.22,
0.467,-0.06,0.08,0.87,-1.12,-0.08,-1.22,
0.469,-0.06,0.08,0.87,-1.12,-0.08,-1.22,
0.47,-0.06,0.08,0.87,-1.10,-0.05,-1.16,
0.472,-0.05,0.08,0.88,-1.10,-0.05,-1.16,
0.474,-0.05,0.09,0.88,-1.10,-0.05,-1.16,
0.474,-0.05,0.09,0.88,-1.09,-0.02,-1.07,
0.477,-0.05,0.09,0.88,-1.09,-0.02,-1.07,
0.479,-0.05,0.09,0.88,-1.09,-0.02,-1.07,
0.48,-0.05,0.09,0.88,-1.08,0.03,-0.97,
0.481,-0.04,0.09,0.89,-1.08,0.03,-0.97,
0.492,-0.04,0.09,0.90,-1.08,0.03,-0.97,
0.493,-0.04,0.09,0.90,-1.03,0.04,-0.94,
0.493,-0.04,0.09,0.90,-1.03,0.04,-0.94,
0.494,-0.04,0.09,0.90,-0.99,0.07,-0.80,
0.494,-0.03,0.09,0.90,-0.99,0.07,-0.80,
0.495,-0.04,0.09,0.92,-0.99,0.07,-0.80,
0.5,-0.04,0.08,0.93,-0.99,0.07,-0.80,
0.5,-0.04,0.08,0.93,-0.93,0.08,-0.72,
0.5,-0.03,0.08,0.94,-0.93,0.08,-0.72,
0.501,-0.04,0.08,0.95,-0.93,0.08,-0.72,
0.502,-0.04,0.08,0.95,-0.95,0.08,-0.51,
0.502,-0.04,0.08,0.95,-0.95,0.08,-0.51,
0.507,-0.05,0.08,0.96,-0.95,0.08,-0.51,
0.509,-0.05,0.08,0.96,-0.96,0.03,-0.32,
0.509,-0.05,0.07,0.97,-0.96,0.03,-0.32,
0.509,-0.05,0.07,0.97,-0.96,0.03,-0.32,
0.51,-0.05,0.07,0.97,-1.01,0.01,-0.20,
0.511,-0.05,0.07,0.97,-1.01,0.01,-0.20,
0.513,-0.06,0.06,0.99,-1.01,0.01,-0.20,
0.514,-0.06,0.06,0.99,-1.08,-0.03,-0.02,
0.517,-0.06,0.05,0.99,-1.08,-0.03,-0.02,
0.52,-0.07,0.06,1.00,-1.08,-0.03,-0.02,
0.52,-0.07,0.06,1.00,-1.11,-0.10,0.06,
0.521,-0.07,0.05,1.00,-1.11,-0.10,0.06,
0.523,-0.07,0.05,1.00,-1.11,-0.10,0.06,
0.523,-0.07,0.05,1.00,-1.21,-0.20,0.18,
0.526,-0.07,0.05,0.99,-1.21,-0.20,0.18,
0.529,-0.08,0.04,0.99,-1.21,-0.20,0.18,
0.53,-0.08,0.04,0.99,-1.27,-0.26,0.25,
0.531,-0.08,0.04,0.99,-1.27,-0.26,0.25,
0.534,-0.08,0.04,0.98,-1.27,-0.26,0.25,
0.535,-0.08,0.04,0.98,-1.32,-0.30,0.19,
0.536,-0.08,0.04,0.97,-1.32,-0.30,0.19,
0.538,-0.08,0.04,0.97,-1.37,-0.36,0.08,
0.538,-0.08,0.04,0.97,-1.37,-0.36,0.08,
0.541,-0.07,0.04,0.95,-1.37,-0.36,0.08,
0.543,-0.06,0.05,0.94,-1.37,-0.36,0.08,
0.543,-0.06,0.05,0.94,-1.35,-0.32,-0.05,
0.545,-0.06,0.05,0.94,-1.35,-0.32,-0.05,
0.548,-0.05,0.05,0.93,-1.35,-0.32,-0.05,
0.548,-0.05,0.05,0.93,-1.26,-0.31,-0.27,
0.552,-0.04,0.05,0.92,-1.26,-0.31,-0.27,
0.553,-0.03,0.06,0.91,-1.26,-0.31,-0.27,
0.554,-0.03,0.06,0.91,-1.12,-0.26,-0.43,
0.556,-0.03,0.05,0.90,-1.12,-0.26,-0.43,
0.558,-0.02,0.06,0.89,-1.12,-0.26,-0.43,
0.559,-0.02,0.06,0.89,-0.98,-0.24,-0.61,
0.56,-0.02,0.05,0.88,-0.98,-0.24,-0.61,
0.563,-0.01,0.05,0.87,-0.98,-0.24,-0.61,
0.563,-0.01,0.05,0.87,-0.85,-0.23,-0.78,
0.567,-0.01,0.06,0.86,-0.85,-0.23,-0.78,
0.569,-0.00,0.06,0.85,-0.85,-0.23,-0.78,
0.57,-0.00,0.06,0.85,-0.77,-0.26,-0.93,
0.571,0.00,0.06,0.85,-0.77,-0.26,-0.93,
0.573,0.00,0.06,0.85,-0.77,-0.26,-0.93,
0.573,0.00,0.06,0.85,-0.69,-0.18,-1.11,
0.576,0.00,0.06,0.85,-0.69,-0.18,-1.11,
0.578,0.00,0.06,0.85,-0.69,-0.18,-1.11,
0.579,0.00,0.06,0.85,-0.62,-0.18,-1.18,
0.581,0.00,0.06,0.87,-0.62,-0.18,-1.18,
0.586,0.00,0.06,0.87,-0.61,-0.16,-1.18,
0.586,-0.00,0.06,0.87,-0.61,-0.16,-1.18,
0.587,0.01,0.07,0.88,-0.61,-0.16,-1.18,
0.588,0.01,0.07,0.88,-0.62,-0.17,-1.02,
0.588,0.00,0.07,0.89,-0.62,-0.17,-1.02,
0.59,0.01,0.08,0.90,-0.62,-0.17,-1.02,
0.593,0.00,0.07,0.90,-0.62,-0.17,-1.02,
0.594,0.00,0.07,0.90,-0.58,-0.04,-0.84,
0.595,0.00,0.07,0.91,-0.58,-0.04,-0.84,
0.598,0.00,0.07,0.91,-0.57,0.01,-0.69,
0.598,-0.00,0.08,0.92,-0.57,0.01,-0.69,
0.611,-0.00,0.07,0.93,-0.57,0.01,-0.69,
0.611,-0.01,0.07,0.93,-0.57,0.01,-0.69,
0.612,-0.01,0.07,0.93,-0.57,0.02,-0.51,
0.612,-0.01,0.07,0.94,-0.57,0.02,-0.51,
0.613,-0.02,0.06,0.94,-0.57,0.02,-0.51,
0.613,-0.02,0.06,0.94,-0.63,-0.01,-0.39,
0.613,-0.02,0.06,0.94,-0.63,-0.01,-0.39,
0.614,-0.02,0.06,0.94,-0.70,-0.06,-0.28,
0.614,-0.03,0.06,0.95,-0.70,-0.06,-0.28,
0.615,-0.03,0.06,0.96,-0.70,-0.06,-0.28,
0.626,-0.05,0.06,0.96,-0.70,-0.06,-0.28,
0.627,-0.05,0.06,0.96,-0.80,-0.08,-0.23,
0.628,-0.06,0.06,0.95,-0.80,-0.08,-0.23,
0.628,-0.07,0.06,0.95,-0.80,-0.08,-0.23,
0.628,-0.07,0.06,0.95,-0.91,-0.12,-0.13,
0.629,-0.08,0.06,0.95,-0.91,-0.12,-0.13,
0.63,-0.09,0.06,0.94,-0.91,-0.12,-0.13,
0.633,-0.09,0.06,0.94,-1.14,-0.06,-0.19,
0.633,-0.10,0.06,0.93,-1.14,-0.06,-0.19,
0.634,-0.11,0.06,0.93,-1.14,-0.06,-0.19,
0.634,-0.11,0.06,0.93,-1.30,-0.06,-0.26,
0.637,-0.12,0.05,0.93,-1.30,-0.06,-0.26,
0.638,-0.12,0.05,0.93,-1.51,-0.12,-0.38,
0.639,-0.12,0.05,0.92,-1.51,-0.12,-0.38,
0.64,-0.12,0.06,0.92,-1.51,-0.12,-0.38,
0.643,-0.12,0.06,0.92,-1.51,-0.12,-0.38,
0.644,-0.12,0.06,0.92,-1.63,-0.16,-0.46,
0.645,-0.13,0.06,0.92,-1.63,-0.16,-0.46,
0.647,-0.13,0.06,0.91,-1.63,-0.16,-0.46,
0.647,-0.13,0.06,0.91,-1.68,-0.10,-0.51,
0.653,-0.13,0.07,0.92,-1.68,-0.10,-0.51,
0.654,-0.13,0.06,0.92,-1.68,-0.10,-0.51,
0.654,-0.13,0.06,0.92,-1.72,-0.12,-0.54,
0.655,-0.12,0.07,0.91,-1.72,-0.12,-0.54,
0.657,-0.12,0.07,0.91,-1.72,-0.12,-0.54,
0.658,-0.12,0.07,0.91,-1.72,-0.04,-0.50,
0.66,-0.11,0.07,0.91,-1.72,-0.04,-0.50,
0.663,-0.11,0.07,0.91,-1.64,0.03,-0.55,
0.663,-0.10,0.08,0.92,-1.64,0.03,-0.55,
0.665,-0.10,0.08,0.92,-1.64,0.03,-0.55,
0.667,-0.08,0.08,0.92,-1.64,0.03,-0.55,
0.667,-0.08,0.08,0.92,-1.52,0.10,-0.53,
0.669,-0.07,0.08,0.92,-1.52,0.10,-0.53,
0.672,-0.07,0.08,0.93,-1.52,0.10,-0.53,
0.672,-0.07,0.08,0.93,-1.34,0.11,-0.46,
0.675,-0.06,0.08,0.93,-1.34,0.11,-0.46,
0.677,-0.04,0.08,0.93,-1.34,0.11,-0.46,
0.678,-0.04,0.08,0.93,-1.14,0.17,-0.42,
0.68,-0.03,0.07,0.94,-1.14,0.17,-0.42,
0.683,-0.02,0.08,0.94,-1.14,0.17,-0.42,
0.683,-0.02,0.08,0.94,-0.94,0.19,-0.37,
0.688,-0.02,0.07,0.95,-0.94,0.19,-0.37,
0.689,-0.02,0.07,0.95,-0.72,0.19,-0.25,
0.689,-0.01,0.08,0.95,-0.72,0.19,-0.25,
0.69,-0.01,0.07,0.96,-0.72,0.19,-0.25,
0.692,-0.01,0.07,0.96,-0.72,0.19,-0.25,
0.692,-0.01,0.07,0.96,-0.59,0.20,-0.19,
0.694,-0.00,0.07,0.97,-0.59,0.20,-0.19,
0.697,-0.01,0.07,0.97,-0.59,0.20,-0.19,
0.698,-0.01,0.07,0.97,-0.47,0.22,-0.09,
0.7,-0.01,0.06,0.98,-0.47,0.22,-0.09,
0.702,-0.01,0.06,0.98,-0.47,0.22,-0.09,
0.702,-0.01,0.06,0.98,-0.43,0.17,0.00,
0.704,-0.02,0.05,0.99,-0.43,0.17,0.00,
0.707,-0.02,0.05,0.99,-0.50,0.15,0.12,
0.707,-0.04,0.05,0.99,-0.50,0.15,0.12,
0.71,-0.04,0.04,0.99,-0.50,0.15,0.12,
0.712,-0.04,0.04,0.99,-0.63,0.06,0.19,
0.713,-0.05,0.03,1.00,-0.63,0.06,0.19,
0.715,-0.06,0.03,1.00,-0.63,0.06,0.19,
0.717,-0.08,0.02,1.00,-0.63,0.06,0.19,
0.717,-0.08,0.02,1.00,-0.75,-0.04,0.25,
0.719,-0.09,0.02,1.00,-0.75,-0.04,0.25,
0.722,-0.10,0.02,1.01,-0.75,-0.04,0.25,
0.722,-0.10,0.02,1.01,-0.97,-0.15,0.30,
0.725,-0.11,0.02,1.00,-0.97,-0.15,0.30,
0.727,-0.12,0.01,1.01,-0.97,-0.15,0.30,
0.727,-0.12,0.01,1.01,-1.19,-0.18,0.33,
0.73,-0.13,0.01,1.01,-1.19,-0.18,0.33,
0.732,-0.14,0.00,1.01,-1.19,-0.18,0.33,
0.733,-0.14,0.00,1.01,-1.38,-0.23,0.34,
0.734,-0.14,0.00,1.00,-1.38,-0.23,0.34,
0.737,-0.14,0.00,1.00,-1.51,-0.29,0.34,
0.737,-0.15,0.01,1.00,-1.51,-0.29,0.34,
0.739,-0.15,0.00,1.00,-1.51,-0.29,0.34,
0.742,-0.15,0.00,1.00,-1.51,-0.29,0.34,
0.742,-0.15,0.00,1.00,-1.63,-0.30,0.30,
0.744,-0.15,0.01,0.99,-1.63,-0.30,0.30,
0.746,-0.15,0.01,0.99,-1.63,-0.30,0.30,
0.747,-0.15,0.01,0.99,-1.69,-0.29,0.28,
0.749,-0.15,0.01,0.99,-1.69,-0.29,0.28,
0.751,-0.15,0.01,1.00,-1.69,-0.29,0.28,
0.752,-0.15,0.01,1.00,-1.67,-0.26,0.19,
0.754,-0.14,0.01,0.99,-1.67,-0.26,0.19,
0.756,-0.13,0.01,1.00,-1.67,-0.26,0.19,
0.756,-0.13,0.01,1.00,-1.62,-0.19,0.22,
0.759,-0.13,0.02,0.99,-1.62,-0.19,0.22,
0.761,-0.13,0.02,0.99,-1.51,-0.16,0.22,
0.762,-0.12,0.02,1.00,-1.51,-0.16,0.22,
0.764,-0.12,0.02,1.00,-1.51,-0.16,0.22,
0.766,-0.11,0.02,1.00,-1.51,-0.16,0.22,
0.767,-0.11,0.02,1.00,-1.40,-0.06,0.23,
0.77,-0.10,0.02,1.00,-1.40,-0.06,0.23,
0.772,-0.10,0.02,1.01,-1.40,-0.06,0.23,
0.772,-0.10,0.02,1.01,-1.29,-0.01,0.26,
0.774,-0.10,0.02,1.01,-1.29,-0.01,0.26,
0.776,-0.09,0.01,1.01,-1.29,-0.01,0.26,
0.777,-0.09,0.01,1.01,-1.17,0.00,0.31,
0.779,-0.09,0.01,1.01,-1.17,0.00,0.31,
0.782,-0.09,0.01,1.01,-1.13,-0.03,0.38,
0.782,-0.09,-0.00,1.02,-1.13,-0.03,0.38,
0.784,-0.09,-0.01,1.03,-1.13,-0.03,0.38,
0.786,-0.09,-0.01,1.03,-1.08,-0.14,0.41,
0.787,-0.09,-0.01,1.03,-1.08,-0.14,0.41,
0.788,-0.09,-0.02,1.03,-1.08,-0.14,0.41,
0.791,-0.09,-0.03,1.03,-1.08,-0.14,0.41,
0.792,-0.09,-0.03,1.03,-1.06,-0.24,0.53,
0.794,-0.09,-0.04,1.03,-1.06,-0.24,0.53,
0.796,-0.09,-0.04,1.03,-1.08,-0.36,0.57,
0.797,-0.09,-0.04,1.03,-1.08,-0.36,0.57,
0.799,-0.09,-0.04,1.03,-1.08,-0.36,0.57,
0.81,-0.09,-0.05,1.02,-1.08,-0.36,0.57,
0.811,-0.09,-0.05,1.02,-1.06,-0.44,0.57,
0.811,-0.09,-0.06,1.02,-1.06,-0.44,0.57,
0.811,-0.10,-0.06,1.01,-1.06,-0.44,0.57,
0.812,-0.10,-0.06,1.01,-1.10,-0.52,0.48,
0.812,-0.10,-0.07,1.01,-1.10,-0.52,0.48,
0.812,-0.10,-0.07,1.01,-1.10,-0.52,0.48,
0.812,-0.10,-0.07,1.01,-1.11,-0.61,0.41,
0.813,-0.11,-0.08,1.01,-1.11,-0.61,0.41,
0.815,-0.11,-0.08,1.01,-1.11,-0.61,0.41,
0.816,-0.11,-0.08,1.01,-1.19,-0.71,0.36,
0.821,-0.12,-0.08,1.01,-1.19,-0.71,0.36,
0.821,-0.13,-0.08,1.02,-1.19,-0.71,0.36,
0.821,-0.13,-0.08,1.02,-1.26,-0.72,0.34,
0.825,-0.13,-0.08,1.03,-1.26,-0.72,0.34,
0.825,-0.14,-0.08,1.03,-1.26,-0.72,0.34,
0.825,-0.14,-0.08,1.03,-1.40,-0.73,0.43,
0.828,-0.14,-0.08,1.03,-1.40,-0.73,0.43,
0.83,-0.14,-0.07,1.03,-1.40,-0.73,0.43,
0.83,-0.14,-0.07,1.03,-1.50,-0.71,0.54,
0.833,-0.14,-0.07,1.04,-1.50,-0.71,0.54,
0.836,-0.14,-0.07,1.04,-1.54,-0.66,0.52,
0.836,-0.14,-0.07,1.04,-1.54,-0.66,0.52,
0.838,-0.14,-0.07,1.04,-1.54,-0.66,0.52,
0.841,-0.14,-0.06,1.04,-1.54,-0.66,0.52,
0.841,-0.14,-0.06,1.04,-1.56,-0.57,0.62,
0.843,-0.14,-0.06,1.04,-1.56,-0.57,0.62,
0.846,-0.14,-0.05,1.04,-1.56,-0.57,0.62,
0.846,-0.14,-0.05,1.04,-1.54,-0.53,0.66,
0.848,-0.13,-0.05,1.04,-1.54,-0.53,0.66,
0.851,-0.13,-0.04,1.04,-1.54,-0.53,0.66,
0.851,-0.13,-0.04,1.04,-1.50,-0.44,0.67,
0.855,-0.12,-0.04,1.04,-1.50,-0.44,0.67,
0.856,-0.12,-0.04,1.04,-1.50,-0.44,0.67,
0.856,-0.12,-0.04,1.04,-1.41,-0.37,0.63,
0.858,-0.11,-0.03,1.04,-1.41,-0.37,0.63,
0.861,-0.11,-0.03,1.04,-1.28,-0.29,0.65,
0.862,-0.11,-0.03,1.04,-1.28,-0.29,0.65,
0.863,-0.10,-0.03,1.03,-1.28,-0.29,0.65,
0.866,-0.10,-0.02,1.03,-1.28,-0.29,0.65,
0.866,-0.10,-0.02,1.03,-1.17,-0.22,0.62,
0.868,-0.10,-0.02,1.03,-1.17,-0.22,0.62,
0.87,-0.10,-0.02,1.03,-1.17,-0.22,0.62,
0.871,-0.10,-0.02,1.03,-1.08,-0.17,0.55,
0.873,-0.09,-0.02,1.02,-1.08,-0.17,0.55,
0.875,-0.09,-0.02,1.02,-1.08,-0.17,0.55,
0.876,-0.09,-0.02,1.02,-1.03,-0.12,0.52,
0.88,-0.09,-0.02,1.01,-1.03,-0.12,0.52,
0.88,-0.09,-0.02,1.01,-1.03,-0.12,0.52,
0.88,-0.09,-0.02,1.01,-0.94,-0.10,0.43,
0.883,-0.09,-0.02,1.01,-0.94,-0.10,0.43,
0.885,-0.09,-0.02,1.01,-0.89,-0.11,0.35,
0.885,-0.08,-0.02,1.00,-0.89,-0.11,0.35,
0.888,-0.08,-0.03,1.00,-0.89,-0.11,0.35,
0.89,-0.08,-0.03,1.00,-0.89,-0.11,0.35,
0.89,-0.08,-0.03,1.00,-0.82,-0.14,0.27,
0.893,-0.08,-0.03,1.00,-0.82,-0.14,0.27,
0.895,-0.08,-0.03,1.00,-0.82,-0.14,0.27,
0.895,-0.08,-0.03,1.00,-0.76,-0.19,0.23,
0.898,-0.08,-0.04,0.99,-0.76,-0.19,0.23,
0.901,-0.08,-0.04,0.99,-0.76,-0.19,0.23,
0.901,-0.08,-0.04,0.99,-0.74,-0.20,0.22,
0.903,-0.08,-0.05,1.00,-0.74,-0.20,0.22,
0.906,-0.07,-0.05,1.01,-0.74,-0.20,0.22,
0.906,-0.07,-0.05,1.01,-0.68,-0.25,0.16,
0.908,-0.07,-0.05,1.01,-0.68,-0.25,0.16,
0.91,-0.07,-0.05,1.01,-0.64,-0.38,0.26,
0.91,-0.07,-0.06,1.01,-0.64,-0.38,0.26,
0.913,-0.07,-0.06,1.00,-0.64,-0.38,0.26,
0.915,-0.06,-0.06,1.00,-0.64,-0.38,0.26,
0.915,-0.06,-0.06,1.00,-0.58,-0.42,0.28,
0.918,-0.06,-0.06,1.00,-0.58,-0.42,0.28,
0.923,-0.06,-0.06,1.01,-0.58,-0.42,0.28,
0.923,-0.06,-0.06,1.01,-0.48,-0.47,0.25,
0.924,-0.05,-0.06,1.01,-0.48,-0.47,0.25,
0.925,-0.06,-0.06,1.01,-0.48,-0.47,0.25,
0.925,-0.06,-0.06,1.01,-0.41,-0.46,0.27,
0.927,-0.06,-0.06,1.01,-0.41,-0.46,0.27,
0.93,-0.06,-0.05,1.02,-0.41,-0.46,0.27,
0.93,-0.06,-0.05,1.02,-0.40,-0.42,0.31,
0.933,-0.06,-0.05,1.02,-0.40,-0.42,0.31,
0.936,-0.06,-0.05,1.02,-0.40,-0.42,0.31,
0.937,-0.06,-0.05,1.02,-0.42,-0.38,0.38,
0.937,-0.07,-0.05,1.02,-0.42,-0.38,0.38,
0.939,-0.08,-0.04,1.01,-0.42,-0.38,0.38,
0.94,-0.08,-0.04,1.01,-0.42,-0.30,0.39,
0.942,-0.08,-0.04,1.02,-0.42,-0.30,0.39,
0.945,-0.08,-0.04,1.02,-0.53,-0.22,0.37,
0.945,-0.09,-0.04,1.02,-0.53,-0.22,0.37,
0.948,-0.10,-0.03,1.02,-0.53,-0.22,0.37,
0.95,-0.10,-0.03,1.02,-0.53,-0.22,0.37,
0.95,-0.10,-0.03,1.02,-0.63,-0.15,0.40,
0.953,-0.11,-0.03,1.02,-0.63,-0.15,0.40,
0.955,-0.11,-0.03,1.02,-0.79,-0.07,0.41,
0.955,-0.12,-0.02,1.02,-0.79,-0.07,0.41,
0.957,-0.12,-0.02,1.03,-0.79,-0.07,0.41,
0.959,-0.12,-0.02,1.03,-0.91,-0.01,0.42,
0.96,-0.13,-0.02,1.03,-0.91,-0.01,0.42,
0.962,-0.13,-0.01,1.03,-0.91,-0.01,0.42,
0.965,-0.13,-0.00,1.02,-0.91,-0.01,0.42,
0.965,-0.13,-0.00,1.02,-1.01,0.05,0.48,
0.967,-0.12,0.00,1.02,-1.01,0.05,0.48,
0.97,-0.12,0.01,1.02,-1.01,0.05,0.48,
0.97,-0.12,0.01,1.02,-1.06,0.20,0.45,
0.972,-0.12,0.01,1.02,-1.06,0.20,0.45,
0.975,-0.12,0.01,1.02,-1.01,0.33,0.40,
0.975,-0.12,0.02,1.02,-1.01,0.33,0.40,
0.977,-0.12,0.03,1.04,-1.01,0.33,0.40,
0.98,-0.12,0.03,1.05,-1.01,0.33,0.40,
0.98,-0.12,0.03,1.05,-0.97,0.46,0.43,
0.982,-0.11,0.03,1.05,-0.97,0.46,0.43,
0.985,-0.11,0.03,1.05,-0.94,0.61,0.63,
0.985,-0.12,0.03,1.06,-0.94,0.61,0.63,
0.988,-0.12,0.03,1.06,-0.94,0.61,0.63,
0.992,-0.12,0.03,1.07,-0.94,0.61,0.63,
0.992,-0.12,0.03,1.07,-0.90,0.65,0.75,
0.993,-0.12,0.02,1.06,-0.90,0.65,0.75,
0.994,-0.12,0.02,1.06,-0.89,0.65,0.85,
0.995,-0.12,0.02,1.07,-0.89,0.65,0.85,
0.997,-0.11,0.02,1.07,-0.89,0.65,0.85,
1.0,-0.12,0.01,1.07,-0.89,0.65,0.85,
1.0,-0.12,0.01,1.07,-0.86,0.57,0.88,
1.002,-0.12,0.00,1.07,-0.86,0.57,0.88,
1.005,-0.12,-0.01,1.07,-0.86,0.57,0.88,
1.006,-0.12,-0.01,1.07,-0.80,0.50,0.90,
1.006,-0.12,-0.02,1.06,-0.80,0.50,0.90,
1.009,-0.12,-0.02,1.06,-0.80,0.34,0.88,
1.01,-0.13,-0.02,1.06,-0.80,0.34,0.88,
1.011,-0.13,-0.03,1.06,-0.80,0.34,0.88,
1.013,-0.14,-0.05,1.06,-0.80,0.34,0.88,
1.014,-0.14,-0.05,1.06,-0.83,0.18,0.77,
1.016,-0.14,-0.06,1.06,-0.83,0.18,0.77,
1.024,-0.14,-0.07,1.05,-0.83,0.18,0.77,
1.024,-0.14,-0.07,1.05,-0.88,-0.04,0.75,
1.025,-0.15,-0.08,1.05,-0.88,-0.04,0.75,
1.025,-0.15,-0.09,1.04,-0.88,-0.04,0.75,
1.025,-0.15,-0.09,1.04,-0.90,-0.29,0.73,
1.026,-0.16,-0.10,1.03,-0.90,-0.29,0.73,
1.028,-0.16,-0.11,1.03,-0.90,-0.29,0.73,
1.028,-0.16,-0.11,1.03,-0.95,-0.49,0.61,
1.031,-0.16,-0.11,1.03,-0.95,-0.49,0.61,
1.033,-0.16,-0.11,1.03,-0.96,-0.65,0.53,
1.034,-0.16,-0.11,1.03,-0.96,-0.65,0.53,
1.037,-0.16,-0.12,1.04,-0.96,-0.65,0.53,
1.038,-0.16,-0.12,1.04,-0.96,-0.65,0.53,
1.038,-0.16,-0.12,1.04,-0.95,-0.75,0.54,
1.04,-0.16,-0.12,1.05,-0.95,-0.75,0.54,
1.043,-0.15,-0.12,1.04,-0.95,-0.75,0.54,
1.043,-0.15,-0.12,1.04,-0.93,-0.80,0.57,
1.046,-0.14,-0.11,1.05,-0.93,-0.80,0.57,
1.048,-0.14,-0.11,1.05,-0.93,-0.80,0.57,
1.048,-0.14,-0.11,1.05,-0.82,-0.78,0.64,
1.05,-0.12,-0.11,1.05,-0.82,-0.78,0.64,
1.054,-0.12,-0.10,1.05,-0.82,-0.78,0.64,
1.054,-0.12,-0.10,1.05,-0.65,-0.71,0.71,
1.056,-0.12,-0.10,1.06,-0.65,-0.71,0.71,
1.058,-0.11,-0.09,1.06,-0.65,-0.71,0.71,
1.058,-0.11,-0.09,1.06,-0.44,-0.62,0.71,
1.061,-0.11,-0.09,1.05,-0.44,-0.62,0.71,
1.063,-0.10,-0.08,1.05,-0.44,-0.62,0.71,
1.063,-0.10,-0.08,1.05,-0.34,-0.50,0.76,
1.065,-0.09,-0.08,1.05,-0.34,-0.50,0.76,
1.069,-0.09,-0.08,1.06,-0.34,-0.50,0.76,
1.07,-0.09,-0.08,1.06,-0.23,-0.37,0.69,
1.071,-0.09,-0.07,1.07,-0.23,-0.37,0.69,
1.073,-0.08,-0.07,1.06,-0.23,-0.37,0.69,
1.073,-0.08,-0.07,1.06,-0.13,-0.33,0.76,
1.076,-0.07,-0.07,1.07,-0.13,-0.33,0.76,
1.078,-0.06,-0.06,1.07,-0.13,-0.33,0.76,
1.078,-0.06,-0.06,1.07,-0.03,-0.22,0.84,
1.08,-0.06,-0.06,1.06,-0.03,-0.22,0.84,
1.083,-0.06,-0.06,1.06,0.13,-0.14,0.83,
1.084,-0.05,-0.06,1.06,0.13,-0.14,0.83,
1.087,-0.04,-0.06,1.06,0.13,-0.14,0.83,
1.088,-0.04,-0.06,1.06,0.13,-0.14,0.83,
1.089,-0.04,-0.06,1.06,0.24,-0.03,0.79,
1.091,-0.04,-0.06,1.06,0.24,-0.03,0.79,
1.093,-0.04,-0.06,1.06,0.37,-0.02,0.75,
1.093,-0.03,-0.06,1.06,0.37,-0.02,0.75,
1.095,-0.03,-0.06,1.07,0.37,-0.02,0.75,
1.098,-0.03,-0.06,1.07,0.37,-0.02,0.75,
1.099,-0.03,-0.06,1.07,0.44,-0.02,0.77,
1.105,-0.03,-0.07,1.07,0.44,-0.02,0.77,
1.105,-0.03,-0.07,1.07,0.44,-0.02,0.77,
1.106,-0.03,-0.07,1.07,0.47,0.01,0.88,
1.106,-0.04,-0.08,1.08,0.47,0.01,0.88,
1.11,-0.04,-0.08,1.08,0.47,0.01,0.88,
1.111,-0.04,-0.08,1.08,0.48,-0.04,0.90,
1.111,-0.05,-0.08,1.08,0.48,-0.04,0.90,
1.112,-0.05,-0.09,1.08,0.48,-0.04,0.90,
1.112,-0.05,-0.09,1.08,0.43,-0.12,0.93,
1.116,-0.06,-0.08,1.08,0.43,-0.12,0.93,
1.118,-0.07,-0.09,1.08,0.43,-0.12,0.93,
1.118,-0.07,-0.09,1.08,0.35,-0.15,0.93,
1.12,-0.07,-0.09,1.08,0.35,-0.15,0.93,
1.123,-0.08,-0.09,1.07,0.35,-0.15,0.93,
1.123,-0.08,-0.09,1.07,0.23,-0.14,0.97,
1.125,-0.09,-0.09,1.08,0.23,-0.14,0.97,
1.127,-0.10,-0.09,1.07,0.23,-0.14,0.97,
1.128,-0.10,-0.09,1.07,0.11,-0.16,0.90,
1.13,-0.11,-0.09,1.07,0.11,-0.16,0.90,
1.133,-0.11,-0.09,1.07,0.11,-0.16,0.90,
1.133,-0.11,-0.09,1.07,-0.05,-0.15,0.90,
1.141,-0.12,-0.09,1.07,-0.05,-0.15,0.90,
1.141,-0.13,-0.09,1.07,-0.05,-0.15,0.90,
1.142,-0.13,-0.09,1.07,-0.14,-0.18,0.86,
1.142,-0.13,-0.09,1.07,-0.14,-0.18,0.86,
1.142,-0.13,-0.09,1.07,-0.14,-0.18,0.86,
1.143,-0.13,-0.09,1.07,-0.21,-0.12,0.86,
1.145,-0.14,-0.09,1.07,-0.21,-0.12,0.86,
1.147,-0.14,-0.10,1.08,-0.21,-0.12,0.86,
1.148,-0.14,-0.10,1.08,-0.26,-0.15,0.83,
1.151,-0.14,-0.10,1.08,-0.26,-0.15,0.83,
1.152,-0.15,-0.10,1.09,-0.26,-0.15,0.83,
1.156,-0.15,-0.10,1.09,-0.28,-0.20,0.91,
1.156,-0.15,-0.11,1.08,-0.28,-0.20,0.91,
1.16,-0.15,-0.11,1.09,-0.28,-0.20,0.91,
1.161,-0.15,-0.11,1.09,-0.34,-0.24,0.97,
1.162,-0.15,-0.11,1.09,-0.34,-0.24,0.97,
1.162,-0.15,-0.11,1.09,-0.34,-0.24,0.97,
1.163,-0.15,-0.11,1.09,-0.34,-0.28,0.99,
1.165,-0.14,-0.11,1.09,-0.34,-0.28,0.99,
1.168,-0.14,-0.12,1.09,-0.34,-0.28,0.99,
1.169,-0.14,-0.12,1.09,-0.29,-0.28,0.97,
1.17,-0.14,-0.12,1.08,-0.29,-0.28,0.97,
1.172,-0.14,-0.12,1.09,-0.29,-0.28,0.97,
1.172,-0.14,-0.12,1.09,-0.17,-0.30,1.01,
1.177,-0.13,-0.13,1.09,-0.17,-0.30,1.01,
1.177,-0.13,-0.13,1.10,-0.17,-0.30,1.01,
1.177,-0.13,-0.13,1.10,-0.14,-0.34,0.98,
1.18,-0.13,-0.13,1.10,-0.14,-0.34,0.98,
1.183,-0.13,-0.13,1.10,-0.14,-0.34,0.98,
1.183,-0.13,-0.13,1.10,-0.07,-0.42,1.04,
1.185,-0.13,-0.14,1.10,-0.07,-0.42,1.04,
1.187,-0.13,-0.14,1.11,-0.07,-0.42,1.04,
1.187,-0.13,-0.14,1.11,-0.04,-0.42,1.07,
1.19,-0.13,-0.14,1.11,-0.04,-0.42,1.07,
1.192,-0.13,-0.14,1.12,-0.04,-0.42,1.07,
1.192,-0.13,-0.14,1.12,0.01,-0.47,1.11,
1.195,-0.13,-0.14,1.12,0.01,-0.47,1.11,
1.197,-0.13,-0.14,1.12,0.01,-0.47,1.11,
1.197,-0.13,-0.14,1.12,-0.01,-0.48,1.20,
1.2,-0.13,-0.14,1.12,-0.01,-0.48,1.20,
1.204,-0.13,-0.14,1.12,-0.01,-0.48,1.20,
1.204,-0.13,-0.14,1.12,0.01,-0.44,1.28,
1.204,-0.13,-0.14,1.12,0.01,-0.44,1.28,
1.207,-0.13,-0.14,1.12,0.03,-0.44,1.24,
1.207,-0.13,-0.14,1.12,0.03,-0.44,1.24,
1.21,-0.13,-0.14,1.12,0.03,-0.44,1.24,
1.212,-0.13,-0.13,1.12,0.03,-0.44,1.24,
1.212,-0.13,-0.13,1.12,0.00,-0.38,1.22,
1.215,-0.13,-0.13,1.12,0.00,-0.38,1.22,
1.217,-0.14,-0.13,1.11,0.00,-0.38,1.22,
1.217,-0.14,-0.13,1.11,-0.01,-0.34,1.24,
1.221,-0.14,-0.13,1.11,-0.01,-0.34,1.24,
1.222,-0.15,-0.13,1.12,-0.01,-0.34,1.24,
1.222,-0.15,-0.13,1.12,-0.06,-0.25,1.17,
1.224,-0.16,-0.12,1.12,-0.06,-0.25,1.17,
1.227,-0.17,-0.12,1.11,-0.06,-0.25,1.17,
1.228,-0.17,-0.12,1.11,-0.16,-0.19,1.15,
1.23,-0.17,-0.12,1.11,-0.16,-0.19,1.15,
1.232,-0.18,-0.12,1.11,-0.16,-0.19,1.15,
1.234,-0.18,-0.12,1.11,-0.33,-0.15,1.14,
1.234,-0.18,-0.12,1.10,-0.33,-0.15,1.14,
1.238,-0.19,-0.12,1.10,-0.33,-0.15,1.14,
1.238,-0.19,-0.12,1.10,-0.46,-0.13,1.11,
1.239,-0.19,-0.11,1.11,-0.46,-0.13,1.11,
1.241,-0.19,-0.11,1.10,-0.46,-0.13,1.11,
1.242,-0.19,-0.11,1.10,-0.56,-0.10,1.04,
1.245,-0.19,-0.11,1.10,-0.56,-0.10,1.04,
1.247,-0.19,-0.10,1.09,-0.56,-0.10,1.04,
1.247,-0.19,-0.10,1.09,-0.62,-0.00,1.01,
1.249,-0.18,-0.10,1.10,-0.62,-0.00,1.01,
1.252,-0.17,-0.10,1.10,-0.62,-0.00,1.01,
1.252,-0.17,-0.10,1.10,-0.60,0.07,0.96,
1.258,-0.17,-0.09,1.09,-0.60,0.07,0.96,
1.259,-0.17,-0.09,1.09,-0.60,0.07,0.96,
1.259,-0.17,-0.09,1.09,-0.50,0.13,0.95,
1.26,-0.16,-0.09,1.09,-0.50,0.13,0.95,
1.262,-0.15,-0.09,1.08,-0.50,0.13,0.95,
1.262,-0.15,-0.09,1.08,-0.41,0.22,0.87,
1.264,-0.14,-0.09,1.08,-0.41,0.22,0.87,
1.266,-0.13,-0.09,1.08,-0.41,0.22,0.87,
1.267,-0.13,-0.09,1.08,-0.24,0.27,0.82,
1.271,-0.12,-0.09,1.08,-0.24,0.27,0.82,
1.272,-0.12,-0.09,1.08,-0.24,0.27,0.82,
1.272,-0.12,-0.09,1.08,-0.08,0.25,0.74,
1.274,-0.11,-0.09,1.08,-0.08,0.25,0.74,
1.276,-0.11,-0.09,1.08,-0.08,0.25,0.74,
1.276,-0.11,-0.09,1.08,0.06,0.29,0.73,
1.279,-0.10,-0.09,1.08,0.06,0.29,0.73,
1.282,-0.10,-0.09,1.08,0.06,0.29,0.73,
1.282,-0.10,-0.09,1.08,0.15,0.27,0.75,
1.284,-0.10,-0.10,1.07,0.15,0.27,0.75,
1.288,-0.10,-0.10,1.07,0.15,0.27,0.75,
1.289,-0.10,-0.10,1.07,0.23,0.25,0.71,
1.289,-0.10,-0.11,1.06,0.23,0.25,0.71,
1.291,-0.10,-0.11,1.06,0.23,0.25,0.71,
1.291,-0.10,-0.11,1.06,0.23,0.18,0.64,
1.293,-0.10,-0.11,1.05,0.23,0.18,0.64,
1.296,-0.11,-0.11,1.05,0.23,0.18,0.64,
1.296,-0.11,-0.11,1.05,0.22,0.07,0.54,
1.298,-0.12,-0.12,1.04,0.22,0.07,0.54,
1.3,-0.12,-0.12,1.03,0.22,0.07,0.54,
1.301,-0.12,-0.12,1.03,0.22,0.06,0.44,
1.303,-0.12,-0.12,1.02,0.22,0.06,0.44,
1.305,-0.12,-0.12,1.02,0.22,0.06,0.44,
1.306,-0.12,-0.12,1.02,0.11,-0.03,0.28,
1.308,-0.13,-0.12,1.01,0.11,-0.03,0.28,
1.311,-0.13,-0.12,1.00,0.11,-0.03,0.28,
1.311,-0.13,-0.12,1.00,0.07,-0.03,0.16,
1.313,-0.14,-0.12,0.99,0.07,-0.03,0.16,
1.316,-0.14,-0.11,0.99,0.07,-0.03,0.16,
1.317,-0.14,-0.11,0.99,-0.01,-0.07,0.01,
1.321,-0.14,-0.11,0.99,-0.01,-0.07,0.01,
1.321,-0.14,-0.11,0.98,-0.01,-0.07,0.01,
1.321,-0.14,-0.11,0.98,-0.10,-0.02,-0.15,
1.324,-0.15,-0.10,0.98,-0.10,-0.02,-0.15,
1.325,-0.16,-0.10,0.98,-0.10,-0.02,-0.15,
1.326,-0.16,-0.10,0.98,-0.13,0.03,-0.21,
1.328,-0.16,-0.09,0.98,-0.13,0.03,-0.21,
1.33,-0.16,-0.09,0.98,-0.13,0.03,-0.21,
1.331,-0.16,-0.09,0.98,-0.23,0.13,-0.24,
1.333,-0.16,-0.08,0.99,-0.23,0.13,-0.24,
1.337,-0.16,-0.08,0.99,-0.23,0.13,-0.24,
1.338,-0.16,-0.08,0.99,-0.26,0.23,-0.21,
1.338,-0.16,-0.08,1.00,-0.26,0.23,-0.21,
1.34,-0.17,-0.08,0.99,-0.26,0.23,-0.21,
1.34,-0.17,-0.08,0.99,-0.29,0.30,-0.16,
1.343,-0.16,-0.07,0.99,-0.29,0.30,-0.16,
1.345,-0.16,-0.07,1.00,-0.29,0.30,-0.16,
1.346,-0.16,-0.07,1.00,-0.29,0.33,-0.12,
1.347,-0.16,-0.07,1.00,-0.29,0.33,-0.12,
1.35,-0.16,-0.07,1.00,-0.29,0.33,-0.12,
1.351,-0.16,-0.07,1.00,-0.28,0.42,-0.11,
1.355,-0.17,-0.07,1.01,-0.28,0.42,-0.11,
1.356,-0.17,-0.07,1.01,-0.28,0.42,-0.11,
1.357,-0.17,-0.07,1.01,-0.27,0.41,-0.04,
1.358,-0.17,-0.08,1.01,-0.27,0.41,-0.04,
1.36,-0.17,-0.08,1.02,-0.27,0.41,-0.04,
1.361,-0.17,-0.08,1.02,-0.31,0.39,0.04,
1.363,-0.17,-0.08,1.02,-0.31,0.39,0.04,
1.365,-0.17,-0.08,1.02,-0.31,0.39,0.04,
1.365,-0.17,-0.08,1.02,-0.31,0.34,0.11,
1.368,-0.17,-0.09,1.01,-0.31,0.34,0.11,
1.377,-0.17,-0.09,1.01,-0.31,0.34,0.11,
1.378,-0.17,-0.09,1.01,-0.34,0.33,0.12,
1.378,-0.16,-0.09,1.01,-0.34,0.33,0.12,
1.379,-0.16,-0.09,1.01,-0.34,0.33,0.12,
1.379,-0.16,-0.09,1.01,-0.30,0.24,0.09,
1.38,-0.16,-0.09,1.01,-0.30,0.24,0.09,
1.381,-0.15,-0.09,1.01,-0.30,0.24,0.09,
1.381,-0.15,-0.09,1.01,-0.22,0.23,0.08,
1.382,-0.15,-0.10,1.01,-0.22,0.23,0.08,
1.385,-0.14,-0.09,1.00,-0.22,0.23,0.08,
1.386,-0.14,-0.09,1.00,-0.15,0.20,0.04,
1.395,-0.14,-0.09,1.00,-0.15,0.20,0.04,
1.396,-0.13,-0.09,1.00,-0.15,0.20,0.04,
1.397,-0.13,-0.09,1.00,-0.05,0.20,0.02,
1.397,-0.13,-0.09,0.99,-0.05,0.20,0.02,
1.397,-0.13,-0.09,1.00,-0.05,0.20,0.02,
1.397,-0.13,-0.09,1.00,0.05,0.21,-0.04,
1.398,-0.13,-0.09,1.00,0.05,0.21,-0.04,
1.399,-0.13,-0.09,1.00,0.05,0.21,-0.04,
1.4,-0.13,-0.09,1.00,0.12,0.25,-0.08,
1.402,-0.13,-0.10,1.00,0.12,0.25,-0.08,
1.404,-0.12,-0.10,1.01,0.12,0.25,-0.08,
1.405,-0.12,-0.10,1.01,0.16,0.24,-0.06,
1.407,-0.13,-0.10,1.01,0.16,0.24,-0.06,
1.409,-0.13,-0.10,1.02,0.16,0.24,-0.06,
1.41,-0.13,-0.10,1.02,0.17,0.17,0.00,
1.412,-0.12,-0.10,1.03,0.17,0.17,0.00,
1.414,-0.13,-0.10,1.05,0.17,0.17,0.00,
1.415,-0.13,-0.10,1.05,0.17,0.19,0.16,
1.417,-0.12,-0.11,1.06,0.17,0.19,0.16,
1.421,-0.12,-0.11,1.08,0.17,0.19,0.16,
1.421,-0.12,-0.11,1.08,0.20,0.15,0.38,
1.422,-0.13,-0.11,1.09,0.20,0.15,0.38,
1.424,-0.13,-0.12,1.10,0.20,0.15,0.38,
1.424,-0.13,-0.12,1.10,0.23,0.10,0.64,
1.426,-0.13,-0.12,1.11,0.23,0.10,0.64,
1.429,-0.13,-0.12,1.11,0.23,0.10,0.64,
1.429,-0.13,-0.12,1.11,0.20,0.05,0.90,
1.431,-0.13,-0.13,1.12,0.20,0.05,0.90,
1.434,-0.12,-0.14,1.13,0.20,0.05,0.90,
1.435,-0.12,-0.14,1.13,0.21,0.01,1.03,
1.437,-0.12,-0.14,1.13,0.21,0.01,1.03,
1.439,-0.11,-0.14,1.13,0.21,0.01,1.03,
1.439,-0.11,-0.14,1.13,0.24,-0.09,1.17,
1.442,-0.11,-0.15,1.13,0.24,-0.09,1.17,
1.444,-0.10,-0.14,1.13,0.24,-0.09,1.17,
1.444,-0.10,-0.14,1.13,0.30,-0.16,1.25,
1.446,-0.09,-0.15,1.13,0.30,-0.16,1.25,
1.451,-0.09,-0.15,1.12,0.30,-0.16,1.25,
1.451,-0.09,-0.15,1.12,0.39,-0.19,1.20,
1.452,-0.08,-0.15,1.11,0.39,-0.19,1.20,
1.455,-0.07,-0.15,1.10,0.39,-0.19,1.20,
1.456,-0.07,-0.15,1.10,0.50,-0.21,1.13,
1.457,-0.07,-0.16,1.09,0.50,-0.21,1.13,
1.46,-0.06,-0.16,1.08,0.50,-0.21,1.13,
1.46,-0.06,-0.16,1.08,0.62,-0.22,0.95,
1.462,-0.05,-0.15,1.08,0.62,-0.22,0.95,
1.464,-0.04,-0.15,1.06,0.62,-0.22,0.95,
1.464,-0.04,-0.15,1.06,0.72,-0.25,0.76,
1.466,-0.04,-0.15,1.05,0.72,-0.25,0.76,
1.469,-0.03,-0.15,1.04,0.72,-0.25,0.76,
1.47,-0.03,-0.15,1.04,0.85,-0.22,0.58,
1.48,-0.03,-0.15,1.04,0.85,-0.22,0.58,
1.481,-0.03,-0.15,1.02,0.85,-0.22,0.58,
1.481,-0.03,-0.15,1.02,0.94,-0.16,0.36,
1.482,-0.03,-0.15,1.02,0.94,-0.16,0.36,
1.482,-0.02,-0.14,1.01,0.94,-0.16,0.36,
1.483,-0.02,-0.14,1.01,0.95,-0.13,0.19,
1.483,-0.02,-0.14,1.01,0.95,-0.13,0.19,
1.49,-0.03,-0.15,1.00,0.95,-0.13,0.19,
1.491,-0.03,-0.15,1.00,0.98,-0.11,0.05,
1.492,-0.03,-0.15,0.99,0.98,-0.11,0.05,
1.492,-0.03,-0.14,0.99,0.98,-0.11,0.05,
1.492,-0.03,-0.14,0.99,0.95,-0.10,-0.06,
1.493,-0.04,-0.14,0.99,0.95,-0.10,-0.06,
1.496,-0.04,-0.15,1.00,0.95,-0.10,-0.06,
1.496,-0.04,-0.15,1.00,0.92,-0.08,-0.17,
1.497,-0.05,-0.14,1.00,0.92,-0.08,-0.17,
1.499,-0.06,-0.13,1.01,0.92,-0.08,-0.17,
1.499,-0.06,-0.13,1.01,0.82,-0.08,-0.14,
1.501,-0.06,-0.13,1.03,0.82,-0.08,-0.14,
1.507,-0.07,-0.12,1.04,0.82,-0.08,-0.14,
1.508,-0.07,-0.12,1.04,0.69,0.00,-0.03,
1.508,-0.07,-0.12,1.06,0.69,0.00,-0.03,
1.508,-0.08,-0.11,1.08,0.69,0.00,-0.03,
1.509,-0.08,-0.11,1.08,0.59,0.15,0.25,
1.512,-0.09,-0.10,1.10,0.59,0.15,0.25,
1.514,-0.09,-0.10,1.11,0.59,0.15,0.25,
1.514,-0.09,-0.10,1.11,0.48,0.26,0.55,
1.516,-0.09,-0.10,1.13,0.48,0.26,0.55,
1.519,-0.10,-0.10,1.15,0.48,0.26,0.55,
1.519,-0.10,-0.10,1.15,0.38,0.37,0.92,
1.522,-0.10,-0.10,1.16,0.38,0.37,0.92,
1.524,-0.10,-0.10,1.17,0.38,0.37,0.92,
1.524,-0.10,-0.10,1.17,0.30,0.39,1.28,
1.526,-0.11,-0.10,1.18,0.30,0.39,1.28,
1.528,-0.11,-0.11,1.18,0.30,0.39,1.28,
1.528,-0.11,-0.11,1.18,0.28,0.40,1.50,
1.531,-0.10,-0.12,1.18,0.28,0.40,1.50,
1.534,-0.10,-0.12,1.18,0.22,0.34,1.61,
1.534,-0.10,-0.12,1.18,0.22,0.34,1.61,
1.537,-0.09,-0.13,1.17,0.22,0.34,1.61,
1.539,-0.09,-0.14,1.17,0.22,0.34,1.61,
1.539,-0.09,-0.14,1.17,0.27,0.23,1.62,
1.541,-0.09,-0.14,1.16,0.27,0.23,1.62,
1.543,-0.08,-0.15,1.15,0.27,0.23,1.62,
1.544,-0.08,-0.15,1.15,0.36,0.10,1.51,
1.547,-0.07,-0.15,1.14,0.36,0.10,1.51,
1.549,-0.07,-0.16,1.13,0.36,0.10,1.51,
1.549,-0.07,-0.16,1.13,0.42,-0.04,1.37,
1.551,-0.06,-0.16,1.13,0.42,-0.04,1.37,
1.554,-0.06,-0.16,1.13,0.55,-0.15,1.15,
1.554,-0.05,-0.16,1.12,0.55,-0.15,1.15,
1.556,-0.03,-0.17,1.10,0.55,-0.15,1.15,
1.558,-0.03,-0.17,1.09,0.55,-0.15,1.15,
1.558,-0.03,-0.17,1.09,0.67,-0.20,1.00,
1.561,-0.01,-0.18,1.08,0.67,-0.20,1.00,
1.564,-0.01,-0.18,1.06,0.67,-0.20,1.00,
1.564,-0.01,-0.18,1.06,0.89,-0.30,0.72,
1.566,0.00,-0.18,1.05,0.89,-0.30,0.72,
1.569,0.01,-0.18,1.04,0.89,-0.30,0.72,
1.569,0.01,-0.18,1.04,1.04,-0.37,0.46,
1.571,0.02,-0.19,1.02,1.04,-0.37,0.46,
1.577,0.03,-0.19,1.01,1.04,-0.37,0.46,
1.578,0.03,-0.19,1.01,1.18,-0.40,0.22,
1.578,0.03,-0.18,1.00,1.18,-0.40,0.22,
1.578,0.03,-0.18,1.00,1.29,-0.46,-0.06,
1.579,0.04,-0.18,0.99,1.29,-0.46,-0.06,
1.581,0.05,-0.18,0.98,1.29,-0.46,-0.06,
1.583,0.05,-0.18,0.98,1.29,-0.46,-0.06,
1.583,0.05,-0.18,0.98,1.40,-0.44,-0.25,
1.586,0.06,-0.17,0.96,1.40,-0.44,-0.25,
1.59,0.07,-0.16,0.96,1.40,-0.44,-0.25,
1.59,0.07,-0.16,0.96,1.50,-0.36,-0.43,
1.591,0.07,-0.16,0.95,1.50,-0.36,-0.43,
1.593,0.07,-0.15,0.95,1.50,-0.36,-0.43,
1.594,0.07,-0.15,0.95,1.59,-0.29,-0.62,
1.595,0.07,-0.14,0.96,1.59,-0.29,-0.62,
1.599,0.08,-0.13,0.98,1.59,-0.29,-0.62,
1.599,0.08,-0.13,0.98,1.66,-0.17,-0.70,
1.601,0.07,-0.12,1.01,1.66,-0.17,-0.70,
1.604,0.07,-0.12,1.01,1.71,0.04,-0.49,
1.604,0.07,-0.11,1.05,1.71,0.04,-0.49,
1.606,0.06,-0.10,1.08,1.71,0.04,-0.49,
1.608,0.05,-0.09,1.10,1.71,0.04,-0.49,
1.609,0.05,-0.09,1.10,1.68,0.28,0.09,
1.611,0.03,-0.09,1.13,1.68,0.28,0.09,
1.613,0.03,-0.09,1.13,1.54,0.48,0.69,
1.613,0.02,-0.10,1.16,1.54,0.48,0.69,
1.616,0.00,-0.10,1.19,1.54,0.48,0.69,
1.618,-0.01,-0.11,1.22,1.54,0.48,0.69,
1.619,-0.01,-0.11,1.22,1.25,0.48,1.21,
1.621,-0.01,-0.12,1.23,1.25,0.48,1.21,
1.624,-0.01,-0.12,1.24,1.25,0.48,1.21,
1.624,-0.01,-0.12,1.24,0.98,0.39,1.78,
1.625,-0.01,-0.13,1.25,0.98,0.39,1.78,
1.628,-0.01,-0.13,1.25,0.93,0.25,2.09,
1.628,-0.01,-0.15,1.26,0.93,0.25,2.09,
1.631,-0.00,-0.16,1.25,0.93,0.25,2.09,
1.633,0.00,-0.17,1.24,0.93,0.25,2.09,
1.633,0.00,-0.17,1.24,0.90,0.03,2.27,
1.636,0.01,-0.17,1.23,0.90,0.03,2.27,
1.64,0.02,-0.18,1.22,0.90,0.03,2.27,
1.64,0.02,-0.18,1.22,0.99,-0.19,2.21,
1.64,0.04,-0.19,1.20,0.99,-0.19,2.21,
1.643,0.05,-0.20,1.18,0.99,-0.19,2.21,
1.643,0.05,-0.20,1.18,1.14,-0.36,1.99,
1.646,0.06,-0.20,1.15,1.14,-0.36,1.99,
1.648,0.07,-0.20,1.12,1.14,-0.36,1.99,
1.652,0.07,-0.20,1.12,1.37,-0.50,1.61,
1.652,0.08,-0.20,1.09,1.37,-0.50,1.61,
1.652,0.08,-0.20,1.09,1.52,-0.63,1.03,
1.652,0.08,-0.21,1.07,1.52,-0.63,1.03,
1.655,0.10,-0.21,1.05,1.52,-0.63,1.03,
1.657,0.10,-0.21,1.03,1.52,-0.63,1.03,
1.658,0.10,-0.21,1.03,1.68,-0.66,0.51,
1.66,0.11,-0.21,1.01,1.68,-0.66,0.51,
1.662,0.11,-0.21,0.99,1.68,-0.66,0.51,
1.663,0.11,-0.21,0.99,1.84,-0.70,0.10,
1.666,0.11,-0.20,0.99,1.84,-0.70,0.10,
1.668,0.11,-0.20,0.97,1.84,-0.70,0.10,
1.668,0.11,-0.20,0.97,1.90,-0.73,-0.25,
1.67,0.11,-0.19,0.96,1.90,-0.73,-0.25,
1.679,0.11,-0.19,0.95,1.90,-0.73,-0.25,
1.68,0.11,-0.19,0.95,1.93,-0.71,-0.47,
1.68,0.11,-0.19,0.93,1.93,-0.71,-0.47,
1.68,0.11,-0.19,0.93,1.92,-0.63,-0.70,
1.68,0.11,-0.17,0.93,1.92,-0.63,-0.70,
1.681,0.11,-0.17,0.93,1.92,-0.63,-0.70,
1.682,0.10,-0.16,0.93,1.92,-0.63,-0.70,
1.682,0.10,-0.16,0.93,1.90,-0.52,-0.96,
1.685,0.10,-0.15,0.93,1.90,-0.52,-0.96,
1.689,0.09,-0.14,0.94,1.90,-0.52,-0.96,
1.69,0.09,-0.14,0.94,1.81,-0.37,-0.97,
1.69,0.08,-0.13,0.96,1.81,-0.37,-0.97,
1.693,0.06,-0.13,0.97,1.81,-0.37,-0.97,
1.693,0.06,-0.13,0.97,1.69,-0.20,-0.90,
1.694,0.05,-0.12,0.98,1.69,-0.20,-0.90,
1.698,0.04,-0.11,0.99,1.69,-0.20,-0.90,
1.698,0.04,-0.11,0.99,1.47,-0.07,-0.65,
1.7,0.03,-0.11,1.02,1.47,-0.07,-0.65,
1.702,0.03,-0.11,1.02,1.24,0.05,-0.39,
1.703,0.02,-0.10,1.03,1.24,0.05,-0.39,
1.705,0.01,-0.09,1.06,1.24,0.05,-0.39,
1.708,-0.00,-0.08,1.07,1.24,0.05,-0.39,
1.709,-0.00,-0.08,1.07,1.03,0.17,-0.03,
1.711,-0.01,-0.08,1.09,1.03,0.17,-0.03,
1.712,-0.02,-0.07,1.11,1.03,0.17,-0.03,
1.712,-0.02,-0.07,1.11,0.84,0.32,0.35,
1.715,-0.02,-0.06,1.12,0.84,0.32,0.35,
1.717,-0.03,-0.06,1.13,0.84,0.32,0.35,
1.718,-0.03,-0.06,1.13,0.70,0.46,0.73,
1.72,-0.03,-0.07,1.14,0.70,0.46,0.73,
1.722,-0.03,-0.07,1.15,0.70,0.46,0.73,
1.722,-0.03,-0.07,1.15,0.57,0.54,0.94,
1.725,-0.03,-0.07,1.15,0.57,0.54,0.94,
1.727,-0.03,-0.07,1.15,0.51,0.49,1.15,
1.728,-0.03,-0.08,1.15,0.51,0.49,1.15,
1.729,-0.03,-0.08,1.14,0.51,0.49,1.15,
1.732,-0.03,-0.08,1.14,0.52,0.41,1.17,
1.732,-0.03,-0.08,1.14,0.52,0.41,1.17,
1.735,-0.02,-0.08,1.13,0.52,0.41,1.17,
1.737,-0.01,-0.08,1.12,0.52,0.41,1.17,
1.738,-0.01,-0.08,1.12,0.51,0.32,1.07,
1.74,0.00,-0.09,1.11,0.51,0.32,1.07,
1.742,0.01,-0.09,1.10,0.51,0.32,1.07,
1.742,0.01,-0.09,1.10,0.66,0.28,0.93,
1.744,0.02,-0.10,1.09,0.66,0.28,0.93,
1.747,0.02,-0.10,1.09,0.85,0.18,0.72,
1.748,0.03,-0.10,1.08,0.85,0.18,0.72,
1.75,0.04,-0.10,1.07,0.85,0.18,0.72,
1.752,0.04,-0.10,1.07,1.04,0.10,0.55,
1.753,0.05,-0.10,1.06,1.04,0.10,0.55,
1.754,0.07,-0.11,1.04,1.04,0.10,0.55,
1.757,0.08,-0.11,1.03,1.04,0.10,0.55,
1.757,0.08,-0.11,1.03,1.23,0.02,0.30,
1.759,0.08,-0.11,1.02,1.23,0.02,0.30,
1.762,0.09,-0.12,1.00,1.23,0.02,0.30,
1.762,0.09,-0.12,1.00,1.45,-0.05,0.01,
1.764,0.09,-0.12,0.98,1.45,-0.05,0.01,
1.767,0.10,-0.12,0.97,1.45,-0.05,0.01,
1.767,0.10,-0.12,0.97,1.57,-0.11,-0.25,
1.769,0.10,-0.13,0.95,1.57,-0.11,-0.25,
1.772,0.10,-0.13,0.93,1.57,-0.11,-0.25,
1.772,0.10,-0.13,0.93,1.67,-0.23,-0.56,
1.775,0.11,-0.13,0.92,1.67,-0.23,-0.56,
1.777,0.11,-0.13,0.92,1.69,-0.30,-0.88,
1.777,0.11,-0.13,0.91,1.69,-0.30,-0.88,
1.779,0.11,-0.13,0.91,1.69,-0.30,-0.88,
1.782,0.11,-0.12,0.91,1.69,-0.30,-0.88,
1.782,0.11,-0.12,0.91,1.72,-0.31,-1.11,
1.784,0.11,-0.11,0.92,1.72,-0.31,-1.11,
1.786,0.10,-0.10,0.94,1.72,-0.31,-1.11,
1.786,0.10,-0.10,0.94,1.72,-0.27,-1.16,
1.797,0.10,-0.10,0.96,1.72,-0.27,-1.16,
1.797,0.09,-0.09,0.98,1.72,-0.27,-1.16,
1.798,0.09,-0.09,0.98,1.67,-0.12,-1.02,
1.798,0.08,-0.08,1.00,1.67,-0.12,-1.02,
1.798,0.08,-0.08,1.04,1.67,-0.12,-1.02,
1.799,0.08,-0.08,1.04,1.59,0.01,-0.63,
1.799,0.07,-0.07,1.06,1.59,0.01,-0.63,
1.801,0.07,-0.07,1.06,1.45,0.17,-0.11,
1.801,0.07,-0.06,1.09,1.45,0.17,-0.11,
1.804,0.07,-0.06,1.12,1.45,0.17,-0.11,
1.814,0.06,-0.06,1.14,1.45,0.17,-0.11,
1.815,0.06,-0.06,1.14,1.34,0.32,0.45,
1.816,0.05,-0.06,1.16,1.34,0.32,0.45,
1.816,0.05,-0.06,1.17,1.34,0.32,0.45,
1.816,0.05,-0.06,1.17,1.27,0.39,0.96,
1.819,0.04,-0.06,1.18,1.27,0.39,0.96,
1.82,0.04,-0.06,1.19,1.27,0.39,0.96,
1.82,0.04,-0.06,1.19,1.13,0.35,1.33,
1.82,0.04,-0.07,1.19,1.13,0.35,1.33,
1.82,0.03,-0.08,1.19,1.13,0.35,1.33,
1.82,0.03,-0.08,1.19,1.05,0.34,1.50,
1.823,0.03,-0.09,1.17,1.05,0.34,1.50,
1.826,0.03,-0.09,1.16,1.05,0.34,1.50,
1.827,0.03,-0.09,1.16,0.99,0.19,1.51,
1.828,0.03,-0.10,1.15,0.99,0.19,1.51,
1.83,0.03,-0.10,1.15,0.99,0.19,1.51,
1.83,0.03,-0.10,1.15,0.91,0.04,1.33,
1.832,0.03,-0.10,1.13,0.91,0.04,1.33,
1.835,0.03,-0.10,1.12,0.91,0.04,1.33,
1.835,0.03,-0.10,1.12,0.90,-0.05,1.15,
1.838,0.04,-0.10,1.10,0.90,-0.05,1.15,
1.84,0.04,-0.10,1.08,0.90,-0.05,1.15,
1.84,0.04,-0.10,1.08,0.93,-0.14,0.91,
1.843,0.04,-0.11,1.07,0.93,-0.14,0.91,
1.845,0.04,-0.11,1.05,0.93,-0.14,0.91,
1.845,0.04,-0.11,1.05,0.96,-0.17,0.57,
1.847,0.04,-0.11,1.03,0.96,-0.17,0.57,
1.85,0.04,-0.11,1.02,0.96,-0.17,0.57,
1.85,0.04,-0.11,1.02,0.95,-0.24,0.25,
1.852,0.05,-0.12,1.00,0.95,-0.24,0.25,
1.855,0.05,-0.12,0.98,0.95,-0.24,0.25,
1.856,0.05,-0.12,0.98,0.93,-0.29,-0.09,
1.857,0.05,-0.11,0.97,0.93,-0.29,-0.09,
1.86,0.05,-0.12,0.96,0.93,-0.29,-0.09,
1.86,0.05,-0.12,0.96,0.97,-0.36,-0.42,
1.863,0.06,-0.12,0.95,0.97,-0.36,-0.42,
1.865,0.06,-0.12,0.94,0.97,-0.36,-0.42,
1.865,0.06,-0.12,0.94,0.96,-0.36,-0.69,
1.867,0.07,-0.11,0.93,0.96,-0.36,-0.69,
1.87,0.06,-0.11,0.92,0.96,-0.36,-0.69,
1.87,0.06,-0.11,0.92,0.98,-0.40,-0.94,
1.872,0.07,-0.11,0.91,0.98,-0.40,-0.94,
1.875,0.07,-0.11,0.91,1.01,-0.34,-1.11,
1.875,0.07,-0.11,0.91,1.01,-0.34,-1.11,
1.878,0.07,-0.11,0.90,1.01,-0.34,-1.11,
1.88,0.08,-0.11,0.90,1.01,-0.34,-1.11,
1.88,0.08,-0.11,0.90,1.02,-0.34,-1.22,
1.883,0.07,-0.11,0.90,1.02,-0.34,-1.22,
1.885,0.07,-0.12,0.90,1.02,-0.34,-1.22,
1.886,0.07,-0.12,0.90,1.03,-0.33,-1.35,
1.888,0.07,-0.12,0.90,1.03,-0.33,-1.35,
1.892,0.07,-0.12,0.91,1.03,-0.33,-1.35,
1.892,0.07,-0.12,0.91,0.99,-0.38,-1.32,
1.892,0.07,-0.11,0.91,0.99,-0.38,-1.32,
1.895,0.07,-0.11,0.92,0.99,-0.38,-1.32,
1.895,0.07,-0.11,0.92,0.94,-0.42,-1.29,
1.897,0.07,-0.10,0.94,0.94,-0.42,-1.29,
1.9,0.07,-0.09,0.95,0.94,-0.42,-1.29,
1.9,0.07,-0.09,0.95,0.93,-0.31,-1.16,
1.902,0.07,-0.09,0.97,0.93,-0.31,-1.16,
1.905,0.07,-0.08,0.99,0.93,-0.31,-1.16,
1.905,0.07,-0.08,0.99,0.87,-0.18,-0.92,
1.907,0.06,-0.07,1.01,0.87,-0.18,-0.92,
1.909,0.06,-0.07,1.02,0.87,-0.18,-0.92,
1.909,0.06,-0.07,1.02,0.82,-0.08,-0.55,
1.912,0.06,-0.07,1.04,0.82,-0.08,-0.55,
1.915,0.05,-0.07,1.05,0.82,-0.08,-0.55,
1.915,0.05,-0.07,1.05,0.75,0.05,-0.21,
1.917,0.05,-0.07,1.07,0.75,0.05,-0.21,
1.92,0.05,-0.07,1.07,0.75,0.05,-0.21,
1.92,0.05,-0.07,1.07,0.65,0.06,0.06,
1.922,0.04,-0.07,1.08,0.65,0.06,0.06,
1.924,0.04,-0.08,1.08,0.65,0.06,0.06,
1.925,0.04,-0.08,1.08,0.56,0.07,0.32,
1.927,0.03,-0.08,1.08,0.56,0.07,0.32,
1.929,0.03,-0.09,1.08,0.56,0.07,0.32,
1.929,0.03,-0.09,1.08,0.46,-0.01,0.44,
1.932,0.03,-0.09,1.07,0.46,-0.01,0.44,
1.935,0.02,-0.10,1.06,0.46,-0.01,0.44,
1.935,0.02,-0.10,1.06,0.36,-0.12,0.42,
1.937,0.02,-0.10,1.06,0.36,-0.12,0.42,
1.94,0.02,-0.10,1.05,0.36,-0.12,0.42,
1.941,0.02,-0.10,1.05,0.31,-0.25,0.27,
1.942,0.03,-0.11,1.03,0.31,-0.25,0.27,
1.945,0.03,-0.12,1.02,0.31,-0.25,0.27,
1.945,0.03,-0.12,1.02,0.28,-0.33,0.15,
1.947,0.03,-0.12,1.01,0.28,-0.33,0.15,
1.95,0.03,-0.12,1.01,0.30,-0.45,-0.10,
1.95,0.04,-0.12,1.00,0.30,-0.45,-0.10,
1.952,0.04,-0.12,0.99,0.30,-0.45,-0.10,
1.955,0.05,-0.12,0.97,0.30,-0.45,-0.10,
1.955,0.05,-0.12,0.97,0.36,-0.53,-0.28,
1.957,0.05,-0.12,0.96,0.36,-0.53,-0.28,
1.959,0.05,-0.12,0.95,0.36,-0.53,-0.28,
1.959,0.05,-0.12,0.95,0.40,-0.56,-0.56,
1.962,0.06,-0.12,0.94,0.40,-0.56,-0.56,
1.964,0.06,-0.12,0.94,0.40,-0.56,-0.56,
1.964,0.06,-0.12,0.94,0.46,-0.60,-0.81,
1.967,0.06,-0.12,0.93,0.46,-0.60,-0.81,
1.969,0.06,-0.12,0.93,0.46,-0.60,-0.81,
1.97,0.06,-0.12,0.93,0.49,-0.58,-0.96,
1.972,0.07,-0.11,0.92,0.49,-0.58,-0.96,
1.974,0.07,-0.11,0.92,0.50,-0.59,-1.08,
1.975,0.07,-0.11,0.91,0.50,-0.59,-1.08,
1.976,0.07,-0.11,0.91,0.50,-0.59,-1.08,
1.979,0.07,-0.11,0.91,0.50,-0.59,-1.08,
1.98,0.07,-0.11,0.91,0.52,-0.56,-1.15,
1.981,0.07,-0.11,0.91,0.52,-0.56,-1.15,
1.984,0.07,-0.10,0.91,0.52,-0.56,-1.15,
1.985,0.07,-0.10,0.91,0.48,-0.56,-1.21,
1.987,0.07,-0.10,0.92,0.48,-0.56,-1.21,
1.989,0.07,-0.10,0.92,0.48,-0.56,-1.21,
1.989,0.07,-0.10,0.92,0.47,-0.51,-1.24,
1.992,0.07,-0.10,0.93,0.47,-0.51,-1.24,
1.995,0.07,-0.09,0.94,0.47,-0.51,-1.24,
1.995,0.07,-0.09,0.94,0.45,-0.47,-1.14,
1.996,0.06,-0.09,0.94,0.45,-0.47,-1.14,
1.999,0.06,-0.09,0.94,0.42,-0.43,-1.00,
1.999,0.06,-0.09,0.95,0.42,-0.43,-1.00,
2.001,0.05,-0.08,0.95,0.42,-0.43,-1.00,
2.004,0.05,-0.08,0.96,0.42,-0.43,-1.00,
2.004,0.05,-0.08,0.96,0.35,-0.39,-0.89,
2.013,0.05,-0.08,0.96,0.35,-0.39,-0.89,
2.014,0.05,-0.08,0.96,0.35,-0.39,-0.89,
2.014,0.05,-0.08,0.96,0.20,-0.34,-0.79,
2.014,0.04,-0.08,0.96,0.20,-0.34,-0.79,
2.015,0.04,-0.08,0.97,0.20,-0.34,-0.79,
2.015,0.04,-0.08,0.97,0.15,-0.36,-0.77,
2.016,0.03,-0.07,0.97,0.15,-0.36,-0.77,
2.018,0.03,-0.07,0.97,0.15,-0.36,-0.77,
2.018,0.03,-0.07,0.97,0.08,-0.34,-0.65,
2.021,0.04,-0.07,0.97,0.08,-0.34,-0.65,
2.025,0.04,-0.07,0.97,0.08,-0.34,-0.65,
2.025,0.04,-0.07,0.97,-0.01,-0.32,-0.61,
2.026,0.03,-0.07,0.97,-0.01,-0.32,-0.61,
2.028,0.03,-0.06,0.96,-0.01,-0.32,-0.61,
2.028,0.03,-0.06,0.96,0.03,-0.30,-0.62,
2.03,0.03,-0.07,0.97,0.03,-0.30,-0.62,
2.033,0.03,-0.07,0.96,0.03,-0.30,-0.62,
2.033,0.03,-0.07,0.96,-0.05,-0.27,-0.66,
2.036,0.03,-0.07,0.96,-0.05,-0.27,-0.66,
2.038,0.02,-0.08,0.96,-0.05,-0.27,-0.66,
2.038,0.02,-0.08,0.96,-0.11,-0.34,-0.67,
2.04,0.02,-0.09,0.95,-0.11,-0.34,-0.67,
2.043,0.03,-0.08,0.95,-0.11,-0.34,-0.67,
2.043,0.03,-0.08,0.95,-0.14,-0.45,-0.74,
2.045,0.03,-0.08,0.95,-0.14,-0.45,-0.74,
2.048,0.03,-0.07,0.94,-0.14,-0.45,-0.74,
2.048,0.03,-0.07,0.94,-0.13,-0.52,-0.81,
2.05,0.04,-0.07,0.93,-0.13,-0.52,-0.81,
2.053,0.04,-0.06,0.92,-0.13,-0.52,-0.81,
2.053,0.04,-0.06,0.92,-0.09,-0.45,-0.87,
2.056,0.04,-0.06,0.92,-0.09,-0.45,-0.87,
2.058,0.04,-0.06,0.92,-0.09,-0.45,-0.87,
2.058,0.04,-0.06,0.92,-0.05,-0.40,-1.05,
2.06,0.05,-0.05,0.92,-0.05,-0.40,-1.05,
2.063,0.05,-0.04,0.92,-0.05,-0.40,-1.05,
2.063,0.05,-0.04,0.92,-0.05,-0.34,-1.13,
2.065,0.05,-0.04,0.93,-0.05,-0.34,-1.13,
2.068,0.05,-0.03,0.93,-0.05,-0.34,-1.13,
2.068,0.05,-0.03,0.93,0.00,-0.23,-1.11,
2.07,0.05,-0.02,0.93,0.00,-0.23,-1.11,
2.075,0.05,-0.02,0.93,0.00,-0.23,-1.11,
2.076,0.05,-0.02,0.93,0.03,-0.10,-1.04,
2.076,0.04,-0.02,0.94,0.03,-0.10,-1.04,
2.078,0.04,-0.02,0.94,0.03,-0.10,-1.04,
2.079,0.04,-0.02,0.94,-0.02,-0.01,-0.98,
2.08,0.04,-0.01,0.94,-0.02,-0.01,-0.98,
2.083,0.03,-0.01,0.95,-0.02,-0.01,-0.98,
2.083,0.03,-0.01,0.95,-0.08,0.01,-0.91,
2.085,0.03,-0.01,0.94,-0.08,0.01,-0.91,
2.088,0.02,-0.01,0.94,-0.08,0.01,-0.91,
2.088,0.02,-0.01,0.94,-0.17,0.09,-0.85,
2.091,0.02,-0.01,0.94,-0.17,0.09,-0.85,
2.094,0.02,-0.01,0.93,-0.17,0.09,-0.85,
2.094,0.02,-0.01,0.93,-0.26,0.08,-0.90,
2.095,0.02,-0.00,0.93,-0.26,0.08,-0.90,
2.098,0.02,-0.00,0.93,-0.35,0.06,-0.91,
2.098,0.02,-0.00,0.93,-0.35,0.06,-0.91,
2.1,0.02,0.00,0.93,-0.35,0.06,-0.91,
2.103,0.02,0.00,0.93,-0.41,0.09,-0.98,
2.103,0.02,-0.00,0.93,-0.41,0.09,-0.98,
2.105,0.03,0.00,0.93,-0.41,0.09,-0.98,
2.116,0.03,0.00,0.93,-0.41,0.09,-0.98,
2.118,0.03,0.00,0.93,-0.37,0.09,-1.01,
2.118,0.04,0.01,0.92,-0.37,0.09,-1.01,
2.119,0.04,0.01,0.92,-0.33,0.10,-1.02,
2.119,0.04,0.01,0.92,-0.33,0.10,-1.02,
2.12,0.05,0.01,0.92,-0.33,0.10,-1.02,
2.12,0.06,0.01,0.92,-0.33,0.10,-1.02,
2.121,0.06,0.01,0.92,-0.27,0.19,-1.06,
2.121,0.06,0.01,0.91,-0.27,0.19,-1.06,
2.133,0.06,0.01,0.91,-0.15,0.19,-1.11,
2.134,0.07,0.02,0.91,-0.15,0.19,-1.11,
2.135,0.07,0.01,0.90,-0.15,0.19,-1.11,
2.135,0.08,0.01,0.90,-0.15,0.19,-1.11,
2.136,0.08,0.01,0.90,-0.08,0.20,-1.18,
2.136,0.09,0.01,0.89,-0.08,0.20,-1.18,
2.136,0.10,0.01,0.90,-0.08,0.20,-1.18,
2.137,0.10,0.01,0.90,0.03,0.15,-1.26,
2.137,0.11,0.01,0.90,0.03,0.15,-1.26,
2.138,0.11,0.01,0.90,0.03,0.15,-1.26,
2.138,0.11,0.01,0.90,0.17,0.13,-1.29,
2.143,0.12,0.01,0.90,0.17,0.13,-1.29,
2.144,0.12,0.01,0.90,0.17,0.13,-1.29,
2.149,0.12,0.01,0.90,0.31,0.09,-1.23,
2.15,0.13,0.01,0.90,0.31,0.09,-1.23,
2.152,0.13,0.01,0.90,0.43,0.09,-1.24,
2.152,0.13,0.01,0.90,0.43,0.09,-1.24,
2.152,0.13,0.01,0.89,0.43,0.09,-1.24,
2.152,0.14,0.00,0.88,0.43,0.09,-1.24,
2.152,0.14,0.00,0.88,0.49,0.09,-1.28,
2.155,0.14,0.00,0.88,0.49,0.09,-1.28,
2.157,0.14,-0.00,0.89,0.49,0.09,-1.28,
2.158,0.14,-0.00,0.89,0.58,0.05,-1.37,
2.159,0.15,-0.00,0.89,0.58,0.05,-1.37,
2.162,0.14,-0.01,0.89,0.58,0.05,-1.37,
2.163,0.14,-0.01,0.89,0.60,-0.00,-1.40,
2.165,0.14,-0.01,0.89,0.60,-0.00,-1.40,
2.167,0.14,-0.01,0.88,0.60,-0.00,-1.40,
2.167,0.14,-0.01,0.88,0.63,-0.05,-1.36,
2.17,0.14,-0.01,0.89,0.63,-0.05,-1.36,
2.173,0.14,-0.01,0.89,0.62,-0.08,-1.39,
2.173,0.14,-0.02,0.88,0.62,-0.08,-1.39,
2.175,0.14,-0.02,0.88,0.62,-0.08,-1.39,
2.177,0.14,-0.02,0.88,0.62,-0.08,-1.39,
2.177,0.14,-0.02,0.88,0.61,-0.15,-1.40,
2.18,0.14,-0.02,0.88,0.61,-0.15,-1.40,
2.182,0.14,-0.02,0.87,0.61,-0.15,-1.40,
2.182,0.14,-0.02,0.87,0.57,-0.21,-1.44,
2.185,0.13,-0.01,0.87,0.57,-0.21,-1.44,
2.187,0.13,-0.01,0.86,0.57,-0.21,-1.44,
2.187,0.13,-0.01,0.86,0.56,-0.20,-1.49,
2.19,0.13,-0.01,0.87,0.56,-0.20,-1.49,
2.192,0.13,-0.01,0.87,0.56,-0.20,-1.49,
2.192,0.13,-0.01,0.87,0.53,-0.17,-1.56,
2.194,0.13,-0.01,0.88,0.53,-0.17,-1.56,
2.197,0.13,-0.01,0.88,0.50,-0.15,-1.51,
2.198,0.12,-0.01,0.88,0.50,-0.15,-1.51,
2.2,0.12,0.00,0.89,0.50,-0.15,-1.51,
2.202,0.12,0.00,0.89,0.50,-0.15,-1.51,
2.202,0.12,0.00,0.89,0.46,-0.12,-1.44,
2.205,0.12,-0.00,0.89,0.46,-0.12,-1.44,
2.211,0.11,-0.00,0.89,0.46,-0.12,-1.44,
2.212,0.11,-0.00,0.89,0.39,-0.05,-1.34,
2.212,0.10,0.00,0.90,0.39,-0.05,-1.34,
2.213,0.10,0.01,0.91,0.39,-0.05,-1.34,
2.213,0.10,0.01,0.91,0.35,-0.08,-1.29,
2.214,0.10,0.01,0.92,0.35,-0.08,-1.29,
2.216,0.09,0.01,0.93,0.35,-0.08,-1.29,
2.217,0.09,0.01,0.93,0.24,-0.04,-1.18,
2.219,0.09,0.01,0.92,0.24,-0.04,-1.18,
2.222,0.09,0.01,0.92,0.18,0.01,-1.00,
2.222,0.09,0.00,0.93,0.18,0.01,-1.00,
2.225,0.09,0.01,0.94,0.18,0.01,-1.00,
2.227,0.08,0.01,0.94,0.18,0.01,-1.00,
2.227,0.08,0.01,0.94,0.13,-0.03,-0.95,
2.229,0.08,0.01,0.94,0.13,-0.03,-0.95,
2.231,0.08,0.00,0.95,0.13,-0.03,-0.95,
2.231,0.08,0.00,0.95,0.07,-0.03,-0.82,
2.234,0.08,-0.01,0.96,0.07,-0.03,-0.82,
2.237,0.07,-0.01,0.96,0.07,-0.03,-0.82,
2.237,0.07,-0.01,0.96,0.02,-0.04,-0.75,
2.239,0.07,-0.01,0.96,0.02,-0.04,-0.75,
2.241,0.07,-0.01,0.96,0.02,-0.04,-0.75,
2.241,0.07,-0.01,0.96,-0.04,-0.15,-0.65,
2.244,0.07,-0.01,0.96,-0.04,-0.15,-0.65,
2.246,0.07,-0.01,0.96,-0.06,-0.16,-0.64,
2.247,0.07,-0.02,0.95,-0.06,-0.16,-0.64,
2.249,0.07,-0.01,0.95,-0.06,-0.16,-0.64,
2.251,0.07,-0.02,0.95,-0.06,-0.16,-0.64,
2.252,0.07,-0.02,0.95,-0.09,-0.22,-0.64,
2.254,0.07,-0.02,0.95,-0.09,-0.22,-0.64,
2.256,0.08,-0.02,0.94,-0.09,-0.22,-0.64,
2.256,0.08,-0.02,0.94,-0.08,-0.23,-0.75,
2.258,0.08,-0.02,0.93,-0.08,-0.23,-0.75,
2.261,0.08,-0.03,0.92,-0.08,-0.23,-0.75,
2.261,0.08,-0.03,0.92,-0.06,-0.28,-0.78,
2.263,0.08,-0.03,0.92,-0.06,-0.28,-0.78,
2.265,0.08,-0.03,0.91,-0.06,-0.28,-0.78,
2.266,0.08,-0.03,0.91,-0.05,-0.32,-0.93,
2.268,0.08,-0.03,0.90,-0.05,-0.32,-0.93,
2.27,0.08,-0.03,0.90,-0.03,-0.34,-1.06,
2.271,0.08,-0.03,0.90,-0.03,-0.34,-1.06,
2.275,0.09,-0.02,0.90,-0.03,-0.34,-1.06,
2.277,0.09,-0.02,0.89,-0.03,-0.34,-1.06,
2.277,0.09,-0.02,0.89,-0.02,-0.35,-1.21,
2.278,0.09,-0.02,0.89,-0.02,-0.35,-1.21,
2.28,0.09,-0.02,0.88,-0.02,-0.35,-1.21,
2.281,0.09,-0.02,0.88,0.04,-0.29,-1.26,
2.283,0.09,-0.01,0.87,0.04,-0.29,-1.26,
2.285,0.09,-0.01,0.87,0.04,-0.29,-1.26,
2.286,0.09,-0.01,0.87,0.05,-0.28,-1.34,
2.288,0.09,-0.01,0.87,0.05,-0.28,-1.34,
2.293,0.09,-0.01,0.88,0.05,-0.28,-1.34,
2.293,0.09,-0.01,0.88,0.06,-0.23,-1.45,
2.294,0.09,-0.01,0.88,0.06,-0.23,-1.45,
2.295,0.09,-0.01,0.88,0.04,-0.21,-1.43,
2.296,0.08,-0.01,0.88,0.04,-0.21,-1.43,
2.298,0.08,-0.01,0.88,0.04,-0.21,-1.43,
2.3,0.08,-0.01,0.88,-0.05,-0.21,-1.40,
2.3,0.07,-0.01,0.88,-0.05,-0.21,-1.40,
2.303,0.06,-0.01,0.88,-0.05,-0.21,-1.40,
2.305,0.06,-0.01,0.88,-0.05,-0.21,-1.40,
2.305,0.06,-0.01,0.88,-0.16,-0.22,-1.36,
2.31,0.05,-0.01,0.88,-0.16,-0.22,-1.36,
2.311,0.04,-0.01,0.88,-0.16,-0.22,-1.36,
2.311,0.04,-0.01,0.88,-0.28,-0.20,-1.35,
2.314,0.04,-0.01,0.88,-0.28,-0.20,-1.35,
2.315,0.03,-0.01,0.88,-0.28,-0.20,-1.35,
2.315,0.03,-0.01,0.88,-0.40,-0.22,-1.36,
2.318,0.02,-0.02,0.88,-0.40,-0.22,-1.36,
2.321,0.02,-0.02,0.88,-0.40,-0.22,-1.36,
2.322,0.02,-0.02,0.88,-0.51,-0.23,-1.37,
2.323,0.01,-0.02,0.89,-0.51,-0.23,-1.37,
2.331,0.01,-0.01,0.89,-0.51,-0.23,-1.37,
2.332,0.01,-0.01,0.89,-0.64,-0.29,-1.37,
2.332,0.01,-0.01,0.89,-0.64,-0.29,-1.37,
2.333,0.01,-0.01,0.90,-0.64,-0.29,-1.37,
2.333,0.01,-0.01,0.90,-0.70,-0.25,-1.27,
2.333,0.01,0.00,0.91,-0.70,-0.25,-1.27,
2.335,0.01,0.01,0.91,-0.70,-0.25,-1.27,
2.335,0.01,0.01,0.91,-0.70,-0.20,-1.20,
2.338,0.01,0.01,0.92,-0.70,-0.20,-1.20,
2.342,0.01,0.01,0.92,-0.70,-0.20,-1.20,
2.342,0.01,0.01,0.92,-0.69,-0.08,-1.05,
2.342,0.01,0.01,0.93,-0.69,-0.08,-1.05,
2.346,0.01,0.01,0.93,-0.66,-0.01,-0.96,
2.346,0.01,0.01,0.93,-0.66,-0.01,-0.96,
2.348,0.01,0.01,0.93,-0.66,-0.01,-0.96,
2.35,0.01,0.01,0.94,-0.66,-0.01,-0.96,
2.35,0.01,0.01,0.94,-0.65,-0.02,-0.83,
2.353,0.01,-0.00,0.94,-0.65,-0.02,-0.83,
2.355,0.02,-0.00,0.94,-0.65,-0.02,-0.83,
2.355,0.02,-0.00,0.94,-0.62,-0.06,-0.77,
2.357,0.01,-0.01,0.94,-0.62,-0.06,-0.77,
2.36,0.02,-0.01,0.93,-0.62,-0.06,-0.77,
2.361,0.02,-0.01,0.93,-0.56,-0.14,-0.73,
2.362,0.02,-0.01,0.93,-0.56,-0.14,-0.73,
2.365,0.02,-0.02,0.92,-0.56,-0.14,-0.73,
2.365,0.02,-0.02,0.92,-0.53,-0.21,-0.76,
2.368,0.02,-0.02,0.92,-0.53,-0.21,-0.76,
2.371,0.02,-0.02,0.92,-0.47,-0.28,-0.83,
2.371,0.02,-0.03,0.92,-0.47,-0.28,-0.83,
2.373,0.03,-0.03,0.92,-0.47,-0.28,-0.83,
2.375,0.03,-0.03,0.90,-0.47,-0.28,-0.83,
2.376,0.03,-0.03,0.90,-0.45,-0.39,-0.92,
2.377,0.03,-0.03,0.90,-0.45,-0.39,-0.92,
2.38,0.04,-0.03,0.90,-0.45,-0.39,-0.92,
2.38,0.04,-0.03,0.90,-0.35,-0.44,-0.99,
2.383,0.04,-0.03,0.90,-0.35,-0.44,-0.99,
2.385,0.05,-0.03,0.90,-0.35,-0.44,-0.99,
2.385,0.05,-0.03,0.90,-0.32,-0.45,-1.06,
2.387,0.05,-0.03,0.89,-0.32,-0.45,-1.06,
2.39,0.05,-0.03,0.89,-0.20,-0.49,-1.10,
2.392,0.05,-0.04,0.90,-0.20,-0.49,-1.10,
2.392,0.06,-0.04,0.88,-0.20,-0.49,-1.10,
2.394,0.06,-0.04,0.88,-0.20,-0.49,-1.10,
2.395,0.06,-0.04,0.88,-0.16,-0.50,-1.12,
2.397,0.06,-0.04,0.88,-0.16,-0.50,-1.12,
2.401,0.07,-0.04,0.88,-0.16,-0.50,-1.12,
2.401,0.07,-0.04,0.88,-0.10,-0.55,-1.26,
2.403,0.06,-0.04,0.88,-0.10,-0.55,-1.26,
2.405,0.07,-0.04,0.88,-0.10,-0.55,-1.26,
2.406,0.07,-0.04,0.88,-0.02,-0.53,-1.24,
2.407,0.06,-0.04,0.88,-0.02,-0.53,-1.24,
2.414,0.06,-0.04,0.88,-0.02,-0.53,-1.24,
2.414,0.06,-0.04,0.88,-0.02,-0.52,-1.25,
2.415,0.06,-0.04,0.89,-0.02,-0.52,-1.25,
2.415,0.05,-0.03,0.89,-0.02,-0.52,-1.25,
2.415,0.05,-0.03,0.89,-0.06,-0.51,-1.22,
2.417,0.05,-0.03,0.89,-0.06,-0.51,-1.22,
2.42,0.04,-0.03,0.90,-0.06,-0.51,-1.22,
2.42,0.04,-0.03,0.90,-0.11,-0.47,-1.10,
2.422,0.03,-0.03,0.92,-0.11,-0.47,-1.10,
2.426,0.02,-0.02,0.93,-0.11,-0.47,-1.10,
2.426,0.02,-0.02,0.93,-0.22,-0.40,-1.03,
2.426,0.01,-0.02,0.94,-0.22,-0.40,-1.03,
2.429,0.00,-0.02,0.96,-0.22,-0.40,-1.03,
2.43,0.00,-0.02,0.96,-0.37,-0.38,-0.78,
2.432,-0.00,-0.01,0.98,-0.37,-0.38,-0.78,
2.435,-0.02,-0.01,0.99,-0.37,-0.38,-0.78,
2.435,-0.02,-0.01,0.99,-0.53,-0.31,-0.51,
2.437,-0.03,-0.01,1.00,-0.53,-0.31,-0.51,
2.44,-0.03,-0.01,1.02,-0.53,-0.31,-0.51,
2.44,-0.03,-0.01,1.02,-0.69,-0.20,-0.17,
2.442,-0.04,-0.00,1.03,-0.69,-0.20,-0.17,
2.444,-0.04,-0.00,1.04,-0.69,-0.20,-0.17,
2.445,-0.04,-0.00,1.04,-0.85,-0.16,0.08,
2.447,-0.04,-0.00,1.05,-0.85,-0.16,0.08,
2.449,-0.04,0.00,1.06,-0.85,-0.16,0.08,
2.45,-0.04,0.00,1.06,-0.95,-0.11,0.36,
2.452,-0.05,0.00,1.07,-0.95,-0.11,0.36,
2.455,-0.05,0.00,1.07,-0.97,-0.06,0.53,
2.455,-0.04,0.00,1.07,-0.97,-0.06,0.53,
2.457,-0.05,-0.00,1.08,-0.97,-0.06,0.53,
2.46,-0.05,-0.00,1.07,-0.97,-0.06,0.53,
2.46,-0.05,-0.00,1.07,-0.97,-0.03,0.64,
2.462,-0.04,-0.01,1.08,-0.97,-0.03,0.64,
2.464,-0.04,-0.01,1.08,-1.00,-0.09,0.69,
2.465,-0.04,-0.01,1.08,-1.00,-0.09,0.69,
2.467,-0.04,-0.01,1.08,-1.00,-0.09,0.69,
2.47,-0.04,-0.01,1.08,-0.92,-0.14,0.72,
2.47,-0.04,-0.01,1.08,-0.92,-0.14,0.72,
2.472,-0.03,-0.01,1.07,-0.92,-0.14,0.72,
2.476,-0.03,-0.01,1.06,-0.92,-0.14,0.72,
2.476,-0.03,-0.01,1.06,-0.88,-0.17,0.71,
2.477,-0.02,-0.00,1.05,-0.88,-0.17,0.71,
2.48,-0.02,-0.00,1.05,-0.88,-0.17,0.71,
2.481,-0.02,-0.00,1.05,-0.79,-0.12,0.59,
2.482,-0.02,-0.00,1.05,-0.79,-0.12,0.59,
2.485,-0.02,-0.00,1.04,-0.79,-0.12,0.59,
2.485,-0.02,-0.00,1.04,-0.68,-0.07,0.44,
2.487,-0.02,-0.00,1.04,-0.68,-0.07,0.44,
2.489,-0.02,0.00,1.03,-0.68,-0.07,0.44,
2.49,-0.02,0.00,1.03,-0.66,-0.08,0.37,
2.491,-0.02,-0.00,1.02,-0.66,-0.08,0.37,
2.494,-0.02,-0.00,1.02,-0.66,-0.05,0.27,
2.495,-0.02,-0.00,1.02,-0.66,-0.05,0.27,
2.496,-0.03,0.00,1.02,-0.66,-0.05,0.27,
2.5,-0.03,0.01,1.02,-0.66,-0.05,0.27,
2.5,-0.03,0.01,1.02,-0.70,-0.06,0.13,
2.502,-0.04,0.01,1.02,-0.70,-0.06,0.13,
2.504,-0.04,0.01,1.02,-0.70,-0.06,0.13,
2.504,-0.04,0.01,1.02,-0.78,-0.01,0.10,
2.507,-0.05,0.01,1.02,-0.78,-0.01,0.10,
2.509,-0.06,0.01,1.01,-0.78,-0.01,0.10,
2.51,-0.06,0.01,1.01,-0.86,0.02,0.11,
2.512,-0.06,0.02,1.02,-0.86,0.02,0.11,
2.514,-0.07,0.02,1.02,-0.86,0.02,0.11,
2.515,-0.07,0.02,1.02,-1.00,0.07,0.08,
2.517,-0.07,0.02,1.02,-1.00,0.07,0.08,
2.519,-0.07,0.02,1.02,-1.08,0.12,0.10,
2.52,-0.08,0.02,1.01,-1.08,0.12,0.10,
2.522,-0.08,0.02,1.02,-1.08,0.12,0.10,
2.524,-0.08,0.02,1.02,-1.08,0.12,0.10,
2.525,-0.08,0.02,1.02,-1.16,0.16,0.11,
2.527,-0.09,0.03,1.02,-1.16,0.16,0.11,
2.529,-0.09,0.03,1.02,-1.16,0.16,0.11,
2.53,-0.09,0.03,1.02,-1.26,0.16,0.13,
2.531,-0.09,0.03,1.02,-1.26,0.16,0.13,
2.533,-0.08,0.03,1.03,-1.26,0.16,0.13,
2.534,-0.08,0.03,1.03,-1.30,0.20,0.14,
2.536,-0.08,0.03,1.03,-1.30,0.20,0.14,
2.538,-0.08,0.03,1.04,-1.30,0.20,0.14,
2.539,-0.08,0.03,1.04,-1.27,0.20,0.17,
2.54,-0.08,0.03,1.03,-1.27,0.20,0.17,
2.549,-0.07,0.04,1.04,-1.27,0.20,0.17,
2.55,-0.07,0.04,1.04,-1.22,0.24,0.28,
2.55,-0.07,0.03,1.04,-1.22,0.24,0.28,
2.551,-0.07,0.03,1.05,-1.22,0.24,0.28,
2.551,-0.07,0.03,1.05,-1.18,0.26,0.30,
2.551,-0.06,0.03,1.05,-1.18,0.26,0.30,
2.553,-0.05,0.03,1.05,-1.18,0.26,0.30,
2.553,-0.05,0.03,1.05,-1.10,0.21,0.36,
2.555,-0.05,0.02,1.05,-1.10,0.21,0.36,
2.562,-0.04,0.02,1.05,-1.10,0.21,0.36,
2.563,-0.04,0.02,1.05,-0.98,0.18,0.43,
2.563,-0.04,0.02,1.05,-0.98,0.18,0.43,
2.564,-0.03,0.01,1.05,-0.98,0.18,0.43,
2.564,-0.03,0.01,1.05,-0.86,0.11,0.40,
2.566,-0.02,0.01,1.04,-0.86,0.11,0.40,
2.568,-0.02,0.00,1.05,-0.86,0.11,0.40,
2.568,-0.02,0.00,1.05,-0.76,0.06,0.38,
2.57,-0.02,-0.01,1.04,-0.76,0.06,0.38,
2.573,-0.02,-0.01,1.04,-0.76,0.06,0.38,
2.573,-0.02,-0.01,1.04,-0.64,-0.03,0.37,
2.576,-0.02,-0.01,1.04,-0.64,-0.03,0.37,
2.578,-0.01,-0.02,1.04,-0.64,-0.03,0.37,
2.578,-0.01,-0.02,1.04,-0.60,-0.13,0.36,
2.58,-0.01,-0.02,1.04,-0.60,-0.13,0.36,
2.582,-0.02,-0.02,1.04,-0.60,-0.13,0.36,
2.583,-0.02,-0.02,1.04,-0.60,-0.20,0.34,
2.585,-0.02,-0.02,1.03,-0.60,-0.20,0.34,
2.588,-0.02,-0.02,1.03,-0.60,-0.20,0.34,
2.589,-0.02,-0.02,1.03,-0.60,-0.23,0.29,
2.59,-0.02,-0.02,1.03,-0.60,-0.23,0.29,
2.593,-0.03,-0.03,1.03,-0.60,-0.23,0.29,
2.594,-0.03,-0.03,1.03,-0.63,-0.24,0.25,
2.596,-0.04,-0.02,1.02,-0.63,-0.24,0.25,
2.598,-0.04,-0.02,1.02,-0.63,-0.24,0.25,
2.598,-0.04,-0.02,1.02,-0.69,-0.29,0.21,
2.601,-0.04,-0.02,1.01,-0.69,-0.29,0.21,
2.603,-0.04,-0.02,1.01,-0.69,-0.29,0.21,
2.603,-0.04,-0.02,1.01,-0.77,-0.30,0.09,
2.606,-0.04,-0.02,1.01,-0.77,-0.30,0.09,
2.608,-0.04,-0.02,1.00,-0.77,-0.30,0.09,
2.608,-0.04,-0.02,1.00,-0.79,-0.26,0.02,
2.611,-0.05,-0.01,0.99,-0.79,-0.26,0.02,
2.613,-0.05,-0.01,0.99,-0.79,-0.26,0.02,
2.613,-0.05,-0.01,0.99,-0.83,-0.28,-0.05,
2.615,-0.05,-0.01,0.99,-0.83,-0.28,-0.05,
2.617,-0.05,-0.01,0.99,-0.90,-0.26,-0.15,
2.617,-0.05,-0.01,0.99,-0.90,-0.26,-0.15,
2.62,-0.05,-0.00,0.98,-0.90,-0.26,-0.15,
2.622,-0.05,0.00,0.97,-0.90,-0.26,-0.15,
2.623,-0.05,0.00,0.97,-0.87,-0.20,-0.19,
2.625,-0.05,0.00,0.97,-0.87,-0.20,-0.19,
2.627,-0.05,0.01,0.96,-0.87,-0.20,-0.19,
2.628,-0.05,0.01,0.96,-0.88,-0.13,-0.30,
2.63,-0.05,0.01,0.96,-0.88,-0.13,-0.30,
2.632,-0.06,0.02,0.96,-0.88,-0.13,-0.30,
2.632,-0.06,0.02,0.96,-0.90,-0.10,-0.43,
2.635,-0.06,0.02,0.97,-0.90,-0.10,-0.43,
2.637,-0.06,0.02,0.97,-0.90,-0.10,-0.43,
2.639,-0.06,0.02,0.97,-0.96,-0.00,-0.44,
2.641,-0.06,0.04,0.97,-0.96,-0.00,-0.44,
2.645,-0.06,0.04,0.97,-0.96,-0.00,-0.44,
2.646,-0.06,0.04,0.97,-1.00,0.06,-0.39,
2.648,-0.06,0.05,0.97,-1.00,0.06,-0.39,
2.648,-0.06,0.05,0.97,-0.99,0.20,-0.36,
2.648,-0.06,0.05,0.97,-0.99,0.20,-0.36,
2.649,-0.06,0.06,0.97,-0.99,0.20,-0.36,
2.652,-0.05,0.05,0.97,-0.99,0.20,-0.36,
2.652,-0.05,0.05,0.97,-0.99,0.31,-0.36,
2.654,-0.05,0.06,0.98,-0.99,0.31,-0.36,
2.657,-0.05,0.06,0.98,-0.97,0.36,-0.35,
2.658,-0.05,0.06,0.98,-0.97,0.36,-0.35,
2.66,-0.05,0.06,0.98,-0.97,0.36,-0.35,
2.662,-0.05,0.05,0.98,-0.97,0.36,-0.35,
2.662,-0.05,0.05,0.98,-0.92,0.39,-0.26,
2.664,-0.05,0.05,0.98,-0.92,0.39,-0.26,
2.667,-0.05,0.05,0.98,-0.88,0.36,-0.26,
2.668,-0.04,0.05,0.99,-0.88,0.36,-0.26,
2.67,-0.04,0.04,0.99,-0.88,0.36,-0.26,
2.672,-0.05,0.03,0.99,-0.88,0.36,-0.26,
2.673,-0.05,0.03,0.99,-0.87,0.25,-0.19,
2.675,-0.05,0.02,0.99,-0.87,0.25,-0.19,
2.677,-0.05,0.02,0.98,-0.87,0.25,-0.19,
2.678,-0.05,0.02,0.98,-0.87,0.14,-0.17,
2.68,-0.05,0.02,0.99,-0.87,0.14,-0.17,
2.682,-0.05,0.01,0.98,-0.87,0.14,-0.17,
2.682,-0.05,0.01,0.98,-0.90,0.00,-0.20,
2.684,-0.05,0.01,0.98,-0.90,0.00,-0.20,
2.687,-0.04,0.01,0.98,-0.90,0.00,-0.20,
2.688,-0.04,0.01,0.98,-0.91,-0.06,-0.22,
2.69,-0.04,0.01,0.98,-0.91,-0.06,-0.22,
2.692,-0.04,0.01,0.98,-0.88,-0.14,-0.25,
2.693,-0.04,0.01,0.98,-0.88,-0.14,-0.25,
2.695,-0.04,0.01,0.98,-0.88,-0.14,-0.25,
2.697,-0.03,0.01,0.98,-0.88,-0.14,-0.25,
2.698,-0.03,0.01,0.98,-0.82,-0.15,-0.24,
2.7,-0.03,0.01,0.97,-0.82,-0.15,-0.24,
2.702,-0.03,0.01,0.97,-0.82,-0.15,-0.24,
2.702,-0.03,0.01,0.97,-0.75,-0.11,-0.26,
2.705,-0.02,0.01,0.97,-0.75,-0.11,-0.26,
2.707,-0.01,0.01,0.97,-0.75,-0.11,-0.26,
2.708,-0.01,0.01,0.97,-0.70,-0.08,-0.32,
2.709,-0.01,0.02,0.97,-0.70,-0.08,-0.32,
2.712,-0.01,0.02,0.97,-0.62,-0.09,-0.38,
2.712,-0.01,0.02,0.97,-0.62,-0.09,-0.38,
2.714,-0.01,0.02,0.97,-0.62,-0.09,-0.38,
2.716,-0.01,0.02,0.97,-0.55,-0.05,-0.37,
2.716,-0.01,0.02,0.96,-0.55,-0.05,-0.37,
2.719,-0.00,0.03,0.96,-0.55,-0.05,-0.37,
2.722,0.00,0.03,0.96,-0.55,-0.05,-0.37,
2.722,0.00,0.03,0.96,-0.51,-0.02,-0.40,
2.725,0.01,0.03,0.96,-0.51,-0.02,-0.40,
2.727,0.01,0.04,0.95,-0.51,-0.02,-0.40,
2.728,0.01,0.04,0.95,-0.42,0.03,-0.43,
2.73,0.01,0.04,0.96,-0.42,0.03,-0.43,
2.732,0.02,0.04,0.96,-0.42,0.03,-0.43,
2.732,0.02,0.04,0.96,-0.35,0.10,-0.46,
2.735,0.01,0.04,0.96,-0.35,0.10,-0.46,
2.737,0.02,0.04,0.97,-0.35,0.10,-0.46,
2.738,0.02,0.04,0.97,-0.28,0.15,-0.47,
2.74,0.02,0.05,0.97,-0.28,0.15,-0.47,
2.742,0.02,0.05,0.97,-0.24,0.18,-0.37,
2.742,0.03,0.05,0.98,-0.24,0.18,-0.37,
2.745,0.03,0.05,0.98,-0.24,0.18,-0.37,
2.746,0.03,0.05,0.98,-0.24,0.18,-0.37,
2.746,0.03,0.05,0.98,-0.16,0.24,-0.29,
2.749,0.03,0.05,0.99,-0.16,0.24,-0.29,
2.752,0.03,0.05,0.98,-0.16,0.24,-0.29,
2.752,0.03,0.05,0.98,-0.10,0.22,-0.22,
2.754,0.03,0.04,0.99,-0.10,0.22,-0.22,
2.757,0.04,0.04,1.00,-0.10,0.22,-0.22,
2.757,0.04,0.04,1.00,-0.06,0.22,-0.17,
2.759,0.04,0.04,1.00,-0.06,0.22,-0.17,
2.768,0.04,0.04,0.99,-0.06,0.22,-0.17,
2.769,0.04,0.04,0.99,-0.01,0.17,-0.11,
2.77,0.04,0.04,1.00,-0.01,0.17,-0.11,
2.77,0.04,0.04,1.00,0.03,0.13,-0.06,
2.771,0.04,0.05,1.00,0.03,0.13,-0.06,
2.771,0.05,0.04,1.00,0.03,0.13,-0.06,
2.771,0.04,0.04,1.00,0.03,0.13,-0.06,
2.772,0.04,0.04,1.00,0.07,0.19,-0.03,
2.773,0.04,0.04,1.01,0.07,0.19,-0.03,
2.783,0.04,0.04,1.00,0.07,0.19,-0.03,
2.784,0.04,0.04,1.00,0.10,0.17,-0.02,
2.784,0.03,0.03,1.01,0.10,0.17,-0.02,
2.785,0.03,0.03,1.02,0.10,0.17,-0.02,
2.785,0.03,0.03,1.02,0.07,0.15,0.01,
2.785,0.03,0.03,1.02,0.07,0.15,0.01,
2.786,0.02,0.03,1.02,0.07,0.15,0.01,
2.786,0.02,0.03,1.02,-0.04,0.04,0.08,
2.788,0.02,0.03,1.02,-0.04,0.04,0.08,
2.79,0.02,0.04,1.02,-0.04,0.04,0.08,
2.791,0.02,0.04,1.02,-0.07,0.05,0.14,
2.793,0.02,0.04,1.02,-0.07,0.05,0.14,
2.795,0.01,0.05,1.02,-0.07,0.05,0.14,
2.796,0.01,0.05,1.02,-0.10,0.09,0.14,
2.798,0.01,0.05,1.02,-0.10,0.09,0.14,
2.8,0.01,0.05,1.01,-0.10,0.09,0.14,
2.8,0.01,0.05,1.01,-0.14,0.21,0.12,
2.803,0.00,0.06,1.01,-0.14,0.21,0.12,
2.805,-0.00,0.06,1.02,-0.14,0.21,0.12,
2.805,-0.00,0.06,1.02,-0.21,0.24,0.11,
2.808,-0.01,0.06,1.01,-0.21,0.24,0.11,
2.812,-0.01,0.06,1.00,-0.21,0.24,0.11,
2.812,-0.01,0.06,1.00,-0.28,0.31,0.10,
2.813,-0.02,0.06,1.00,-0.28,0.31,0.10,
2.815,-0.02,0.06,1.00,-0.35,0.33,0.01,
2.816,-0.02,0.06,1.00,-0.35,0.33,0.01,
2.818,-0.02,0.06,1.00,-0.35,0.33,0.01,
2.821,-0.02,0.07,1.00,-0.35,0.33,0.01,
2.821,-0.02,0.07,1.00,-0.43,0.32,-0.04,
2.824,-0.03,0.06,1.01,-0.43,0.32,-0.04,
2.826,-0.03,0.06,1.01,-0.47,0.36,-0.07,
2.826,-0.04,0.05,1.02,-0.47,0.36,-0.07,
2.829,-0.03,0.05,1.02,-0.47,0.36,-0.07,
2.832,-0.03,0.05,1.02,-0.57,0.27,0.06,
2.832,-0.03,0.05,1.03,-0.57,0.27,0.06,
2.833,-0.01,0.05,1.04,-0.57,0.27,0.06,
2.836,0.00,0.06,1.04,-0.57,0.27,0.06,
2.836,0.00,0.06,1.04,-0.54,0.19,0.22,
2.838,0.02,0.06,1.04,-0.54,0.19,0.22,
2.841,0.02,0.06,1.04,-0.31,0.24,0.30,
2.842,0.04,0.06,1.03,-0.31,0.24,0.30,
2.844,0.05,0.06,1.02,-0.31,0.24,0.30,
2.848,0.06,0.06,1.02,-0.31,0.24,0.30,
2.849,0.06,0.06,1.02,0.02,0.27,0.27,
2.849,0.05,0.05,1.01,0.02,0.27,0.27,
2.85,0.06,0.05,1.01,0.02,0.27,0.27,
2.851,0.06,0.05,1.01,0.25,0.29,0.12,
2.853,0.07,0.04,1.01,0.25,0.29,0.12,
2.856,0.06,0.03,1.01,0.25,0.29,0.12,
2.856,0.06,0.03,1.01,0.27,0.17,0.04,
2.858,0.06,0.03,1.01,0.27,0.17,0.04,
2.86,0.06,0.03,1.00,0.27,0.17,0.04,
2.86,0.06,0.03,1.00,0.33,0.01,0.04,
2.867,0.07,0.02,1.00,0.33,0.01,0.04,
2.868,0.07,0.02,1.00,0.33,-0.06,-0.03,
2.868,0.07,0.03,1.00,0.33,-0.06,-0.03,
2.868,0.08,0.03,1.00,0.33,-0.06,-0.03,
2.87,0.08,0.03,1.01,0.33,-0.06,-0.03,
2.871,0.08,0.03,1.01,0.40,-0.10,-0.05,
2.872,0.09,0.03,1.01,0.40,-0.10,-0.05,
2.874,0.09,0.03,1.01,0.40,-0.10,-0.05,
2.875,0.09,0.03,1.01,0.49,-0.07,-0.01,
2.877,0.09,0.03,1.01,0.49,-0.07,-0.01,
2.88,0.08,0.03,1.02,0.49,-0.07,-0.01,
2.88,0.08,0.03,1.02,0.57,-0.07,0.03,
2.882,0.09,0.03,1.02,0.57,-0.07,0.03,
2.885,0.09,0.03,1.02,0.53,-0.05,0.10,
2.886,0.08,0.03,1.02,0.53,-0.05,0.10,
2.888,0.08,0.03,1.02,0.53,-0.05,0.10,
2.89,0.08,0.03,1.02,0.50,-0.05,0.14,
2.89,0.07,0.03,1.02,0.50,-0.05,0.14,
2.893,0.06,0.04,1.01,0.50,-0.05,0.14,
2.895,0.06,0.04,1.01,0.50,-0.05,0.14,
2.895,0.06,0.04,1.01,0.39,-0.03,0.14,
2.898,0.06,0.04,1.01,0.39,-0.03,0.14,
2.9,0.05,0.04,1.00,0.39,-0.03,0.14,
2.9,0.05,0.04,1.00,0.29,-0.00,0.03,
2.903,0.04,0.04,1.00,0.29,-0.00,0.03,
2.905,0.03,0.04,1.00,0.29,-0.00,0.03,
2.906,0.03,0.04,1.00,0.21,0.02,-0.02,
2.908,0.03,0.04,1.00,0.21,0.02,-0.02,
2.91,0.02,0.04,1.01,0.21,0.02,-0.02,
2.911,0.02,0.04,1.01,0.06,0.02,-0.06,
2.914,0.02,0.04,1.01,0.06,0.02,-0.06,
2.915,0.02,0.04,1.01,-0.05,-0.00,-0.02,
2.915,0.02,0.04,1.01,-0.05,-0.00,-0.02,
2.918,0.01,0.04,1.01,-0.05,-0.00,-0.02,
2.92,0.01,0.04,1.02,-0.05,-0.00,-0.02,
2.92,0.01,0.04,1.02,-0.10,0.00,0.04,
2.923,0.01,0.04,1.02,-0.10,0.00,0.04,
2.925,0.01,0.04,1.03,-0.10,0.00,0.04,
2.925,0.01,0.04,1.03,-0.17,0.03,0.07,
2.928,0.01,0.04,1.03,-0.17,0.03,0.07,
2.93,0.01,0.04,1.04,-0.17,0.03,0.07,
2.93,0.01,0.04,1.04,-0.18,-0.00,0.15,
2.932,0.02,0.04,1.04,-0.18,-0.00,0.15,
2.935,0.02,0.04,1.05,-0.18,-0.00,0.15,
2.936,0.02,0.04,1.05,-0.16,-0.02,0.30,
2.938,0.03,0.04,1.04,-0.16,-0.02,0.30,
2.94,0.03,0.04,1.04,-0.07,-0.02,0.35,
2.941,0.03,0.04,1.04,-0.07,-0.02,0.35,
2.942,0.03,0.04,1.03,-0.07,-0.02,0.35,
2.944,0.04,0.04,1.03,-0.07,-0.02,0.35,
2.945,0.04,0.04,1.03,0.01,-0.02,0.32,
2.947,0.04,0.04,1.03,0.01,-0.02,0.32,
2.949,0.05,0.03,1.03,0.01,-0.02,0.32,
2.95,0.05,0.03,1.03,0.08,-0.07,0.22,
2.952,0.06,0.04,1.02,0.08,-0.07,0.22,
2.954,0.06,0.04,1.01,0.08,-0.07,0.22,
2.955,0.06,0.04,1.01,0.20,-0.10,0.19,
2.957,0.06,0.03,1.01,0.20,-0.10,0.19,
2.959,0.06,0.03,1.00,0.20,-0.10,0.19,
2.96,0.06,0.03,1.00,0.32,-0.09,0.08,
2.963,0.07,0.03,1.00,0.32,-0.09,0.08,
2.964,0.07,0.03,1.00,0.35,-0.11,-0.02,
2.965,0.06,0.03,1.00,0.35,-0.11,-0.02,
2.967,0.06,0.03,0.99,0.35,-0.11,-0.02,
2.97,0.06,0.03,0.99,0.43,-0.16,-0.09,
2.971,0.06,0.03,0.99,0.43,-0.16,-0.09,
2.971,0.06,0.03,0.99,0.43,-0.16,-0.09,
2.975,0.05,0.03,0.99,0.43,-0.16,-0.09,
2.975,0.05,0.03,0.99,0.40,-0.19,-0.18,
2.977,0.05,0.03,0.99,0.40,-0.19,-0.18,
2.983,0.04,0.03,0.99,0.40,-0.19,-0.18,
2.985,0.04,0.03,0.99,0.35,-0.15,-0.19,
2.985,0.03,0.03,0.99,0.35,-0.15,-0.19,
2.986,0.03,0.03,0.99,0.28,-0.13,-0.19,
2.986,0.03,0.03,0.98,0.28,-0.13,-0.19,
2.986,0.02,0.02,0.99,0.28,-0.13,-0.19,
2.99,0.02,0.02,0.99,0.15,-0.19,-0.20,
2.99,0.02,0.03,0.99,0.15,-0.19,-0.20,
2.992,0.01,0.02,0.99,0.15,-0.19,-0.20,
3.006,0.00,0.02,0.99,0.15,-0.19,-0.20,
3.007,0.00,0.02,0.99,0.04,-0.21,-0.17,
3.007,0.00,0.02,1.00,0.04,-0.21,-0.17,
3.007,0.00,0.01,1.00,0.04,-0.21,-0.17,
3.007,0.00,0.01,1.00,-0.05,-0.29,-0.14,
3.007,-0.00,0.02,1.01,-0.05,-0.29,-0.14,
3.008,-0.01,0.01,1.01,-0.05,-0.29,-0.14,
3.008,-0.01,0.01,1.01,-0.09,-0.30,-0.03,
3.008,-0.01,0.01,1.02,-0.09,-0.30,-0.03,
3.008,-0.01,0.02,1.02,-0.09,-0.30,-0.03,
3.008,-0.01,0.02,1.02,-0.18,-0.30,0.05,
3.012,-0.01,0.02,1.01,-0.18,-0.30,0.05,
3.014,-0.01,0.02,1.01,-0.19,-0.29,0.11,
3.014,-0.02,0.01,0.95,-0.19,-0.29,0.11,
3.016,-0.05,0.02,0.81,-0.19,-0.29,0.11,
3.018,-0.07,0.07,0.70,-0.19,-0.29,0.11,
3.018,-0.07,0.07,0.70,-0.24,-0.30,-0.24,
3.021,-0.06,0.12,0.67,-0.24,-0.30,-0.24,
3.023,-0.04,0.14,0.72,-0.24,-0.30,-0.24,
3.023,-0.04,0.14,0.72,-0.68,-0.02,-2.45,
3.027,-0.03,0.15,0.79,-0.68,-0.02,-2.45,
3.029,-0.03,0.14,0.82,-0.68,-0.02,-2.45,
3.03,-0.03,0.14,0.82,-0.51,0.82,-3.00,
3.03,-0.02,0.12,0.85,-0.51,0.82,-3.00,
3.035,-0.02,0.09,0.92,-0.51,0.82,-3.00,
3.035,-0.02,0.09,0.92,-0.28,0.97,-1.94,
3.035,-0.02,0.07,0.97,-0.28,0.97,-1.94,
3.038,-0.02,0.07,0.97,-0.18,0.60,-1.13,
3.038,-0.02,0.05,1.01,-0.18,0.60,-1.13,
3.041,-0.03,0.03,1.06,-0.18,0.60,-1.13,
3.044,-0.04,0.02,1.09,-0.18,0.60,-1.13,
3.044,-0.04,0.02,1.09,-0.18,0.15,-0.09,
3.046,-0.04,0.01,1.12,-0.18,0.15,-0.09,
3.051,-0.04,-0.00,1.14,-0.18,0.15,-0.09,
3.052,-0.04,-0.00,1.14,-0.27,-0.17,0.72,
3.052,-0.04,-0.01,1.16,-0.27,-0.17,0.72,
3.054,-0.03,-0.01,1.16,-0.27,-0.17,0.72,
3.054,-0.03,-0.01,1.16,-0.38,-0.34,1.27,
3.058,-0.02,-0.01,1.16,-0.38,-0.34,1.27,
3.059,-0.02,-0.01,1.15,-0.38,-0.34,1.27,
3.06,-0.02,-0.01,1.15,-0.34,-0.47,1.51,
3.066,-0.01,-0.02,1.14,-0.34,-0.47,1.51,
3.067,-0.01,-0.01,1.12,-0.34,-0.47,1.51,
3.067,-0.01,-0.01,1.12,-0.17,-0.51,1.48,
3.067,-0.01,0.00,1.10,-0.17,-0.51,1.48,
3.067,-0.01,0.01,1.08,-0.17,-0.51,1.48,
3.068,-0.01,0.01,1.08,-0.09,-0.51,1.19,
3.071,-0.01,0.02,1.07,-0.09,-0.51,1.19,
3.072,0.00,0.03,1.05,-0.09,-0.51,1.19,
3.073,0.00,0.03,1.05,-0.11,-0.33,0.84,
3.075,0.01,0.04,1.04,-0.11,-0.33,0.84,
3.083,0.02,0.04,1.03,-0.11,-0.33,0.84,
3.083,0.02,0.04,1.03,-0.02,-0.19,0.52,
3.084,0.03,0.03,1.02,-0.02,-0.19,0.52,
3.084,0.03,0.03,1.02,0.11,-0.06,0.26,
3.084,0.03,0.03,1.02,0.11,-0.06,0.26,
3.085,0.03,0.03,1.01,0.11,-0.06,0.26,
3.088,0.03,0.03,1.01,0.25,-0.15,0.13,
3.088,0.04,0.03,1.01,0.25,-0.15,0.13,
3.09,0.04,0.04,1.00,0.25,-0.15,0.13,
3.092,0.03,0.05,0.99,0.25,-0.15,0.13,
3.092,0.03,0.05,0.99,0.31,-0.15,0.05,
3.108,0.03,0.06,0.99,0.31,-0.15,0.05,
3.109,0.03,0.06,0.98,0.31,-0.15,0.05,
3.109,0.03,0.06,0.98,0.30,-0.03,-0.09,
3.109,0.03,0.07,0.97,0.30,-0.03,-0.09,
3.109,0.02,0.08,0.97,0.30,-0.03,-0.09,
3.11,0.02,0.08,0.97,0.25,0.11,-0.24,
3.11,0.01,0.07,0.98,0.25,0.11,-0.24,
3.11,0.01,0.07,0.97,0.25,0.11,-0.24,
3.11,0.01,0.07,0.97,0.20,0.21,-0.31,
3.11,0.00,0.07,0.96,0.20,0.21,-0.31,
3.12,0.00,0.07,0.96,0.11,0.22,-0.29,
3.12,-0.00,0.07,0.97,0.11,0.22,-0.29,
3.121,-0.01,0.07,0.97,0.11,0.22,-0.29,
3.121,-0.01,0.07,0.96,0.11,0.22,-0.29,
3.121,-0.01,0.07,0.96,-0.01,0.21,-0.38,
3.121,-0.02,0.07,0.98,-0.01,0.21,-0.38,
