
time,gFx,gFy,gFz,ax,ay,az,
0.004,0.01,0.07,0.97,-0.09,0.03,-0.40,
0.004,0.01,0.07,0.97,-0.00,0.05,-0.32,
0.005,0.01,0.06,0.97,-0.00,0.05,-0.32,
0.005,0.02,0.06,0.98,-0.00,0.05,-0.32,
0.005,0.02,0.06,0.98,-0.00,0.05,-0.32,
0.005,0.02,0.06,0.98,0.09,0.04,-0.26,
0.011,0.02,0.06,0.98,0.09,0.04,-0.26,
0.012,0.02,0.06,0.99,0.09,0.04,-0.26,
0.012,0.02,0.06,0.99,0.15,0.03,-0.19,
0.012,0.02,0.06,0.98,0.15,0.03,-0.19,
0.014,0.02,0.06,0.98,0.19,0.01,-0.12,
0.015,0.02,0.06,0.99,0.19,0.01,-0.12,
0.016,0.02,0.06,0.99,0.19,0.01,-0.12,
0.027,0.02,0.05,0.98,0.19,0.01,-0.12,
0.028,0.02,0.05,0.98,0.20,-0.03,-0.12,
0.028,0.02,0.06,0.98,0.20,-0.03,-0.12,
0.028,0.02,0.06,0.98,0.17,-0.01,-0.11,
0.028,0.02,0.06,0.98,0.17,-0.01,-0.11,
0.028,0.01,0.06,0.98,0.17,-0.01,-0.11,
0.028,0.01,0.07,0.98,0.17,-0.01,-0.11,
0.029,0.01,0.07,0.98,0.16,0.02,-0.13,
0.031,0.01,0.07,0.98,0.16,0.02,-0.13,
0.034,0.01,0.07,0.98,0.16,0.02,-0.13,
0.034,0.01,0.07,0.98,0.08,0.06,-0.15,
0.036,0.01,0.07,0.98,0.08,0.06,-0.15,
0.044,0.01,0.07,0.98,0.08,0.06,-0.15,
0.045,0.01,0.07,0.98,0.05,0.10,-0.14,
0.045,0.01,0.07,0.98,0.05,0.10,-0.14,
0.045,0.01,0.08,0.98,0.05,0.10,-0.14,
0.046,0.01,0.08,0.98,0.03,0.13,-0.16,
0.046,0.01,0.07,0.98,0.03,0.13,-0.16,
0.049,0.01,0.07,0.98,0.04,0.16,-0.15,
0.05,0.01,0.07,0.98,0.04,0.16,-0.15,
0.051,0.01,0.08,0.97,0.04,0.16,-0.15,
0.062,0.01,0.08,0.97,0.04,0.16,-0.15,
0.063,0.01,0.08,0.97,0.04,0.16,-0.16,
0.063,0.00,0.07,0.97,0.04,0.16,-0.16,
0.063,0.01,0.07,0.97,0.04,0.16,-0.16,
0.063,0.01,0.07,0.97,0.03,0.17,-0.24,
0.063,0.01,0.07,0.96,0.03,0.17,-0.24,
0.064,0.01,0.06,0.96,0.03,0.17,-0.24,
0.064,0.01,0.06,0.96,-0.01,0.12,-0.25,
0.066,0.01,0.07,0.96,-0.01,0.12,-0.25,
0.069,0.01,0.07,0.95,-0.01,0.12,-0.25,
0.069,0.01,0.07,0.95,0.02,0.07,-0.33,
0.079,0.02,0.06,0.95,0.02,0.07,-0.33,
0.08,0.02,0.06,0.95,0.06,0.10,-0.39,
0.08,0.02,0.06,0.96,0.06,0.10,-0.39,
0.08,0.02,0.07,0.95,0.06,0.10,-0.39,
0.081,0.03,0.07,0.95,0.06,0.10,-0.39,
0.081,0.03,0.07,0.95,0.11,0.06,-0.38,
0.081,0.03,0.07,0.95,0.11,0.06,-0.38,
0.083,0.02,0.06,0.95,0.11,0.06,-0.38,
0.084,0.02,0.06,0.95,0.19,0.09,-0.41,
0.095,0.03,0.07,0.95,0.19,0.09,-0.41,
0.096,0.03,0.07,0.96,0.19,0.09,-0.41,
0.096,0.03,0.07,0.96,0.20,0.08,-0.40,
0.096,0.03,0.06,0.96,0.20,0.08,-0.40,
0.096,0.03,0.06,0.97,0.20,0.08,-0.40,
0.096,0.03,0.06,0.97,0.21,0.07,-0.37,
0.097,0.03,0.06,0.97,0.21,0.07,-0.37,
0.099,0.03,0.06,0.97,0.24,0.05,-0.28,
0.099,0.03,0.06,0.97,0.24,0.05,-0.28,
0.1,0.04,0.06,0.97,0.24,0.05,-0.28,
0.111,0.05,0.06,0.98,0.24,0.05,-0.28,
0.112,0.05,0.06,0.98,0.28,0.00,-0.22,
0.112,0.05,0.06,0.98,0.28,0.00,-0.22,
0.113,0.05,0.06,0.98,0.28,0.00,-0.22,
0.113,0.05,0.06,0.98,0.35,0.05,-0.18,
0.113,0.06,0.06,0.99,0.35,0.05,-0.18,
0.113,0.06,0.06,0.99,0.35,0.05,-0.18,
0.113,0.06,0.06,0.99,0.42,0.01,-0.11,
0.116,0.06,0.05,0.99,0.42,0.01,-0.11,
0.118,0.06,0.05,0.99,0.42,0.01,-0.11,
0.118,0.06,0.05,0.99,0.50,0.01,-0.04,
0.129,0.06,0.05,0.98,0.50,0.01,-0.04,
0.13,0.06,0.05,0.98,0.49,-0.03,-0.02,
0.13,0.06,0.04,0.98,0.49,-0.03,-0.02,
0.13,0.06,0.04,0.99,0.49,-0.03,-0.02,
0.131,0.05,0.03,0.99,0.49,-0.03,-0.02,
0.131,0.05,0.03,0.99,0.50,-0.10,-0.09,
0.131,0.05,0.03,0.98,0.50,-0.10,-0.09,
0.133,0.05,0.03,0.97,0.50,-0.10,-0.09,
0.133,0.05,0.03,0.97,0.46,-0.20,-0.06,
0.135,0.05,0.03,0.97,0.46,-0.20,-0.06,
0.143,0.05,0.03,0.97,0.38,-0.19,-0.20,
0.144,0.05,0.03,0.96,0.38,-0.19,-0.20,
0.144,0.04,0.03,0.96,0.38,-0.19,-0.20,
0.144,0.04,0.03,0.96,0.38,-0.19,-0.20,
0.145,0.04,0.03,0.96,0.39,-0.19,-0.27,
0.145,0.04,0.04,0.95,0.39,-0.19,-0.27,
0.147,0.04,0.04,0.95,0.33,-0.18,-0.32,
0.147,0.03,0.04,0.95,0.33,-0.18,-0.32,
0.149,0.03,0.04,0.95,0.33,-0.18,-0.32,
0.158,0.03,0.05,0.95,0.33,-0.18,-0.32,
0.159,0.03,0.05,0.95,0.26,-0.09,-0.39,
0.159,0.03,0.05,0.93,0.26,-0.09,-0.39,
0.159,0.03,0.04,0.94,0.26,-0.09,-0.39,
0.16,0.03,0.04,0.94,0.22,-0.07,-0.44,
0.16,0.02,0.04,0.94,0.22,-0.07,-0.44,
0.163,0.03,0.05,0.93,0.22,-0.07,-0.44,
0.164,0.03,0.05,0.93,0.19,-0.06,-0.54,
0.164,0.02,0.05,0.93,0.19,-0.06,-0.54,
0.167,0.02,0.05,0.93,0.19,-0.06,-0.54,
0.168,0.02,0.05,0.93,0.14,-0.06,-0.53,
0.182,0.02,0.05,0.92,0.14,-0.06,-0.53,
0.183,0.02,0.05,0.92,0.11,-0.05,-0.62,
0.183,0.02,0.06,0.92,0.11,-0.05,-0.62,
0.184,0.02,0.06,0.91,0.11,-0.05,-0.62,
0.184,0.02,0.06,0.91,0.11,-0.05,-0.62,
0.184,0.02,0.06,0.91,0.08,0.00,-0.68,
0.184,0.01,0.07,0.90,0.08,0.00,-0.68,
0.184,0.01,0.06,0.89,0.08,0.00,-0.68,
0.184,0.01,0.06,0.89,0.08,0.08,-0.79,
0.184,0.01,0.06,0.89,0.08,0.08,-0.79,
0.193,0.01,0.07,0.90,0.08,0.08,-0.79,
0.194,0.01,0.07,0.90,0.02,0.13,-0.88,
0.194,0.01,0.07,0.89,0.02,0.13,-0.88,
0.194,0.01,0.08,0.89,0.02,0.13,-0.88,
0.194,0.01,0.08,0.89,-0.01,0.15,-0.92,
0.194,0.01,0.08,0.89,-0.01,0.15,-0.92,
0.197,0.01,0.08,0.89,-0.02,0.23,-0.92,
0.197,0.01,0.09,0.89,-0.02,0.23,-0.92,
0.199,-0.00,0.08,0.90,-0.02,0.23,-0.92,
0.202,-0.00,0.09,0.90,-0.02,0.23,-0.92,
0.202,-0.00,0.09,0.90,-0.03,0.32,-0.98,
0.211,-0.00,0.09,0.90,-0.03,0.32,-0.98,
0.211,-0.01,0.09,0.91,-0.03,0.32,-0.98,
0.211,-0.01,0.09,0.91,-0.09,0.35,-0.87,
0.211,-0.01,0.09,0.92,-0.09,0.35,-0.87,
0.212,-0.01,0.09,0.92,-0.09,0.35,-0.87,
0.212,-0.01,0.09,0.92,-0.14,0.39,-0.75,
0.214,-0.01,0.08,0.93,-0.14,0.39,-0.75,
0.217,-0.02,0.08,0.93,-0.14,0.39,-0.75,
0.217,-0.02,0.08,0.93,-0.14,0.42,-0.63,
0.219,-0.02,0.07,0.94,-0.14,0.42,-0.63,
0.226,-0.02,0.07,0.94,-0.22,0.33,-0.54,
0.227,-0.01,0.06,0.94,-0.22,0.33,-0.54,
0.227,-0.01,0.05,0.94,-0.22,0.33,-0.54,
0.227,-0.01,0.04,0.95,-0.22,0.33,-0.54,
0.228,-0.01,0.04,0.95,-0.22,0.19,-0.47,
0.229,-0.01,0.04,0.96,-0.22,0.19,-0.47,
0.232,-0.00,0.04,0.97,-0.22,0.19,-0.47,
0.232,-0.00,0.04,0.97,-0.17,0.01,-0.34,
0.234,-0.00,0.03,0.98,-0.17,0.01,-0.34,
0.236,0.00,0.04,0.98,-0.17,0.01,-0.34,
0.237,0.00,0.04,0.98,-0.10,-0.04,-0.15,
0.242,0.01,0.04,0.99,-0.10,-0.04,-0.15,
0.243,0.01,0.04,0.99,-0.05,-0.06,-0.01,
0.243,0.01,0.04,1.00,-0.05,-0.06,-0.01,
0.244,0.01,0.03,1.01,-0.05,-0.06,-0.01,
0.247,0.01,0.03,1.01,0.04,-0.05,0.11,
0.247,0.01,0.04,1.01,0.04,-0.05,0.11,
0.249,0.01,0.03,1.02,0.04,-0.05,0.11,
0.252,0.01,0.03,1.02,0.04,-0.05,0.11,
0.252,0.01,0.03,1.02,0.05,-0.04,0.25,
0.259,0.02,0.03,1.02,0.05,-0.04,0.25,
0.26,0.02,0.03,1.02,0.05,-0.04,0.25,
0.26,0.02,0.03,1.02,0.05,-0.05,0.34,
0.26,0.02,0.03,1.01,0.05,-0.05,0.34,
0.262,0.02,0.02,1.02,0.05,-0.05,0.34,
0.262,0.02,0.02,1.02,0.13,-0.06,0.32,
0.264,0.03,0.02,1.01,0.13,-0.06,0.32,
0.267,0.03,0.02,1.01,0.16,-0.10,0.32,
0.267,0.03,0.02,1.01,0.16,-0.10,0.32,
0.269,0.03,0.02,1.00,0.16,-0.10,0.32,
0.276,0.03,0.02,1.00,0.23,-0.13,0.26,
0.276,0.03,0.03,1.00,0.23,-0.13,0.26,
0.276,0.03,0.02,1.00,0.23,-0.13,0.26,
0.277,0.03,0.02,0.99,0.23,-0.13,0.26,
0.277,0.03,0.02,0.99,0.26,-0.10,0.15,
0.279,0.02,0.03,0.98,0.26,-0.10,0.15,
0.282,0.02,0.03,0.97,0.26,-0.10,0.15,
0.282,0.02,0.03,0.97,0.21,-0.11,0.07,
0.284,0.02,0.03,0.96,0.21,-0.11,0.07,
0.287,0.02,0.03,0.96,0.21,-0.11,0.07,
0.287,0.02,0.03,0.96,0.13,-0.06,-0.06,
0.296,0.02,0.03,0.95,0.13,-0.06,-0.06,
0.297,0.01,0.04,0.94,0.13,-0.06,-0.06,
0.297,0.01,0.04,0.94,0.14,-0.04,-0.21,
0.298,0.01,0.04,0.93,0.14,-0.04,-0.21,
0.298,0.01,0.04,0.93,0.05,0.01,-0.42,
0.298,0.01,0.04,0.92,0.05,0.01,-0.42,
0.298,0.00,0.05,0.91,0.05,0.01,-0.42,
0.301,0.00,0.06,0.90,0.05,0.01,-0.42,
0.301,0.00,0.06,0.90,-0.00,0.08,-0.60,
0.311,0.00,0.06,0.90,-0.00,0.08,-0.60,
0.312,-0.00,0.06,0.89,-0.00,0.08,-0.60,
0.312,-0.00,0.06,0.89,-0.05,0.17,-0.78,
0.312,0.00,0.07,0.89,-0.05,0.17,-0.78,
0.312,0.00,0.07,0.87,-0.05,0.17,-0.78,
0.313,0.00,0.07,0.87,-0.08,0.25,-0.87,
0.313,-0.00,0.07,0.87,-0.08,0.25,-0.87,
0.316,-0.01,0.07,0.86,-0.08,0.25,-0.87,
0.316,-0.01,0.07,0.86,-0.09,0.30,-0.99,
0.318,-0.01,0.07,0.85,-0.09,0.30,-0.99,
0.332,-0.01,0.07,0.85,-0.15,0.30,-1.13,
0.333,-0.00,0.06,0.85,-0.15,0.30,-1.13,
0.333,-0.00,0.06,0.84,-0.15,0.30,-1.13,
0.334,0.00,0.06,0.84,-0.15,0.30,-1.13,
0.336,0.00,0.06,0.84,-0.15,0.26,-1.28,
0.336,0.01,0.06,0.84,-0.15,0.26,-1.28,
0.337,0.01,0.05,0.84,-0.15,0.26,-1.28,
0.337,0.01,0.05,0.84,-0.10,0.20,-1.33,
0.337,0.02,0.05,0.84,-0.10,0.20,-1.33,
0.338,0.02,0.05,0.84,-0.10,0.20,-1.33,
0.338,0.02,0.05,0.84,-0.03,0.17,-1.37,
0.338,0.02,0.04,0.85,-0.03,0.17,-1.37,
0.344,0.03,0.04,0.85,-0.03,0.17,-1.37,
0.344,0.03,0.04,0.85,0.09,0.15,-1.34,
0.344,0.03,0.04,0.85,0.09,0.15,-1.34,
0.347,0.03,0.04,0.85,0.13,0.07,-1.26,
0.347,0.04,0.03,0.86,0.13,0.07,-1.26,
0.347,0.05,0.03,0.86,0.13,0.07,-1.26,
0.35,0.05,0.01,0.86,0.13,0.07,-1.26,
0.351,0.05,0.01,0.86,0.26,-0.01,-1.18,
0.352,0.07,0.01,0.86,0.26,-0.01,-1.18,
0.364,0.07,0.00,0.86,0.26,-0.01,-1.18,
0.365,0.07,0.00,0.86,0.36,-0.16,-1.14,
0.365,0.08,-0.01,0.86,0.36,-0.16,-1.14,
0.365,0.09,-0.01,0.86,0.36,-0.16,-1.14,
0.366,0.09,-0.01,0.86,0.51,-0.32,-1.09,
0.366,0.10,-0.01,0.86,0.51,-0.32,-1.09,
0.366,0.12,-0.02,0.85,0.51,-0.32,-1.09,
0.366,0.12,-0.02,0.85,0.64,-0.44,-1.09,
0.367,0.13,-0.01,0.85,0.64,-0.44,-1.09,
0.373,0.13,-0.01,0.85,0.87,-0.48,-1.17,
0.373,0.14,-0.01,0.86,0.87,-0.48,-1.17,
0.374,0.15,-0.00,0.85,0.87,-0.48,-1.17,
0.375,0.16,0.00,0.83,0.87,-0.48,-1.17,
0.376,0.16,0.00,0.83,1.10,-0.42,-1.15,
0.377,0.16,0.01,0.82,1.10,-0.42,-1.15,
0.381,0.16,0.02,0.82,1.10,-0.42,-1.15,
0.381,0.16,0.02,0.82,1.24,-0.34,-1.25,
0.383,0.16,0.03,0.82,1.24,-0.34,-1.25,
0.386,0.15,0.03,0.80,1.24,-0.34,-1.25,
0.386,0.15,0.03,0.80,1.29,-0.22,-1.43,
0.388,0.15,0.04,0.79,1.29,-0.22,-1.43,
0.39,0.15,0.04,0.79,1.21,-0.06,-1.53,
0.39,0.14,0.05,0.79,1.21,-0.06,-1.53,
0.392,0.13,0.06,0.78,1.21,-0.06,-1.53,
0.395,0.11,0.07,0.77,1.21,-0.06,-1.53,
0.395,0.11,0.07,0.77,1.10,0.09,-1.70,
0.398,0.10,0.08,0.75,1.10,0.09,-1.70,
0.4,0.08,0.09,0.74,1.10,0.09,-1.70,
0.401,0.08,0.09,0.74,0.85,0.28,-1.87,
0.403,0.06,0.09,0.72,0.85,0.28,-1.87,
0.408,0.04,0.10,0.70,0.85,0.28,-1.87,
0.408,0.04,0.10,0.70,0.52,0.45,-2.11,
0.409,0.02,0.10,0.69,0.52,0.45,-2.11,
0.41,0.00,0.10,0.68,0.52,0.45,-2.11,
0.41,0.00,0.10,0.68,0.10,0.53,-2.40,
0.412,-0.01,0.10,0.68,0.10,0.53,-2.40,
0.415,-0.01,0.10,0.68,-0.27,0.60,-2.67,
0.415,-0.03,0.10,0.68,-0.27,0.60,-2.67,
0.417,-0.04,0.10,0.67,-0.27,0.60,-2.67,
0.42,-0.04,0.10,0.67,-0.54,0.59,-2.74,
0.42,-0.06,0.10,0.66,-0.54,0.59,-2.74,
0.422,-0.07,0.09,0.67,-0.54,0.59,-2.74,
0.425,-0.08,0.08,0.68,-0.54,0.59,-2.74,
0.426,-0.08,0.08,0.68,-0.87,0.55,-2.83,
0.427,-0.09,0.07,0.68,-0.87,0.55,-2.83,
0.43,-0.10,0.06,0.69,-0.87,0.55,-2.83,
0.43,-0.10,0.06,0.69,-1.10,0.43,-2.74,
0.432,-0.10,0.05,0.71,-1.10,0.43,-2.74,
0.435,-0.09,0.04,0.73,-1.10,0.43,-2.74,
0.435,-0.09,0.04,0.73,-1.30,0.25,-2.63,
0.437,-0.09,0.03,0.74,-1.30,0.25,-2.63,
0.44,-0.08,0.02,0.77,-1.30,0.25,-2.63,
0.441,-0.08,0.02,0.77,-1.31,0.05,-2.31,
0.442,-0.08,0.01,0.79,-1.31,0.05,-2.31,
0.445,-0.08,0.01,0.79,-1.23,-0.12,-1.88,
0.445,-0.07,0.01,0.82,-1.23,-0.12,-1.88,
0.447,-0.05,-0.00,0.85,-1.23,-0.12,-1.88,
0.45,-0.04,-0.00,0.88,-1.23,-0.12,-1.88,
0.45,-0.04,-0.00,0.88,-1.10,-0.25,-1.38,
0.451,-0.03,-0.01,0.91,-1.10,-0.25,-1.38,
0.456,0.00,-0.01,0.94,-1.10,-0.25,-1.38,
0.457,0.00,-0.01,0.94,-0.84,-0.34,-0.85,
0.457,0.02,-0.01,0.96,-0.84,-0.34,-0.85,
0.459,0.04,-0.00,0.98,-0.84,-0.34,-0.85,
0.46,0.04,-0.00,0.98,-0.52,-0.36,-0.26,
0.462,0.06,-0.01,1.01,-0.52,-0.36,-0.26,
0.465,0.06,-0.01,1.02,-0.52,-0.36,-0.26,
0.465,0.06,-0.01,1.02,-0.12,-0.32,0.22,
0.467,0.08,-0.01,1.02,-0.12,-0.32,0.22,
0.47,0.08,-0.01,1.02,0.18,-0.32,0.62,
0.47,0.10,-0.02,1.02,0.18,-0.32,0.62,
0.472,0.12,-0.02,1.02,0.18,-0.32,0.62,
0.474,0.14,-0.02,1.02,0.18,-0.32,0.62,
0.475,0.14,-0.02,1.02,0.46,-0.36,0.68,
0.476,0.16,-0.02,1.01,0.46,-0.36,0.68,
0.48,0.17,-0.02,1.00,0.46,-0.36,0.68,
0.48,0.17,-0.02,1.00,0.83,-0.43,0.67,
0.481,0.18,-0.02,1.00,0.83,-0.43,0.67,
0.484,0.18,-0.01,0.97,0.83,-0.43,0.67,
0.484,0.18,-0.01,0.97,1.15,-0.39,0.55,
0.486,0.18,-0.01,0.97,1.15,-0.39,0.55,
0.493,0.16,-0.01,0.97,1.15,-0.39,0.55,
0.493,0.16,-0.01,0.97,1.32,-0.35,0.33,
0.496,0.14,-0.01,0.96,1.32,-0.35,0.33,
0.496,0.14,-0.01,0.96,1.17,-0.29,0.19,
0.496,0.12,-0.01,0.93,1.17,-0.29,0.19,
0.497,0.11,-0.01,0.92,1.17,-0.29,0.19,
0.499,0.10,-0.01,0.90,1.17,-0.29,0.19,
0.499,0.10,-0.01,0.90,0.82,-0.30,-0.07,
0.501,0.09,-0.01,0.89,0.82,-0.30,-0.07,
0.506,0.08,-0.02,0.88,0.82,-0.30,-0.07,
0.506,0.08,-0.02,0.88,0.53,-0.34,-0.40,
0.506,0.06,-0.02,0.87,0.53,-0.34,-0.40,
0.509,0.06,-0.02,0.87,0.29,-0.37,-0.65,
0.51,0.06,-0.01,0.85,0.29,-0.37,-0.65,
0.511,0.05,-0.01,0.84,0.29,-0.37,-0.65,
0.514,0.03,-0.01,0.84,0.29,-0.37,-0.65,
0.514,0.03,-0.01,0.84,0.06,-0.37,-0.86,
0.516,0.02,-0.02,0.84,0.06,-0.37,-0.86,
0.519,0.02,-0.02,0.84,-0.15,-0.34,-1.04,
0.52,0.01,-0.02,0.85,-0.15,-0.34,-1.04,
0.521,0.01,-0.03,0.85,-0.15,-0.34,-1.04,
0.524,-0.00,-0.03,0.85,-0.15,-0.34,-1.04,
0.524,-0.00,-0.03,0.85,-0.41,-0.39,-1.03,
0.526,-0.00,-0.04,0.86,-0.41,-0.39,-1.03,
0.529,-0.00,-0.05,0.88,-0.41,-0.39,-1.03,
0.529,-0.00,-0.05,0.88,-0.55,-0.49,-0.94,
0.531,-0.00,-0.06,0.90,-0.55,-0.49,-0.94,
0.534,0.01,-0.07,0.92,-0.55,-0.49,-0.94,
0.534,0.01,-0.07,0.92,-0.60,-0.63,-0.74,
0.536,0.01,-0.08,0.95,-0.60,-0.63,-0.74,
0.539,0.02,-0.09,0.97,-0.60,-0.63,-0.74,
0.539,0.02,-0.09,0.97,-0.57,-0.79,-0.37,
0.541,0.04,-0.09,0.99,-0.57,-0.79,-0.37,
0.544,0.04,-0.09,0.99,-0.44,-0.92,0.12,
0.544,0.06,-0.09,1.02,-0.44,-0.92,0.12,
0.546,0.07,-0.09,1.04,-0.44,-0.92,0.12,
0.549,0.08,-0.10,1.06,-0.44,-0.92,0.12,
0.549,0.08,-0.10,1.06,-0.21,-0.99,0.55,
0.551,0.10,-0.11,1.07,-0.21,-0.99,0.55,
0.554,0.11,-0.11,1.09,-0.21,-0.99,0.55,
0.554,0.11,-0.11,1.09,0.05,-0.99,0.97,
0.556,0.13,-0.11,1.10,0.05,-0.99,0.97,
0.558,0.14,-0.12,1.10,0.05,-0.99,0.97,
0.559,0.14,-0.12,1.10,0.32,-1.08,1.31,
0.561,0.16,-0.13,1.11,0.32,-1.08,1.31,
0.564,0.18,-0.13,1.11,0.32,-1.08,1.31,
0.564,0.18,-0.13,1.11,0.61,-1.14,1.49,
0.566,0.20,-0.13,1.11,0.61,-1.14,1.49,
0.568,0.20,-0.13,1.11,0.89,-1.22,1.57,
0.568,0.22,-0.12,1.10,0.89,-1.22,1.57,
0.571,0.23,-0.12,1.09,0.89,-1.22,1.57,
0.574,0.24,-0.12,1.07,0.89,-1.22,1.57,
0.574,0.24,-0.12,1.07,1.25,-1.16,1.52,
0.575,0.24,-0.11,1.06,1.25,-1.16,1.52,
0.579,0.24,-0.12,1.04,1.25,-1.16,1.52,
0.579,0.24,-0.12,1.04,1.53,-1.09,1.29,
0.58,0.23,-0.13,1.02,1.53,-1.09,1.29,
0.584,0.24,-0.13,1.00,1.53,-1.09,1.29,
0.584,0.24,-0.13,1.00,1.53,-1.10,0.95,
0.586,0.25,-0.14,0.98,1.53,-1.10,0.95,
0.593,0.25,-0.14,0.96,1.53,-1.10,0.95,
0.594,0.25,-0.14,0.96,1.54,-1.23,0.55,
0.594,0.26,-0.14,0.94,1.54,-1.23,0.55,
0.594,0.26,-0.14,0.94,1.65,-1.32,0.22,
0.594,0.27,-0.14,0.92,1.65,-1.32,0.22,
0.596,0.27,-0.14,0.91,1.65,-1.32,0.22,
0.598,0.27,-0.14,0.89,1.65,-1.32,0.22,
0.598,0.27,-0.14,0.89,1.80,-1.30,-0.23,
0.6,0.27,-0.13,0.88,1.80,-1.30,-0.23,
0.603,0.26,-0.14,0.87,1.80,-1.30,-0.23,
0.603,0.26,-0.14,0.87,1.86,-1.33,-0.49,
0.605,0.25,-0.14,0.86,1.86,-1.33,-0.49,
0.608,0.25,-0.14,0.85,1.86,-1.33,-0.49,
0.608,0.25,-0.14,0.85,1.84,-1.31,-0.73,
0.61,0.25,-0.14,0.85,1.84,-1.31,-0.73,
0.613,0.25,-0.13,0.85,1.84,-1.31,-0.73,
0.613,0.25,-0.13,0.85,1.73,-1.33,-0.91,
0.615,0.25,-0.13,0.85,1.73,-1.33,-0.91,
0.618,0.25,-0.13,0.85,1.69,-1.28,-0.99,
0.618,0.24,-0.14,0.86,1.69,-1.28,-0.99,
0.62,0.23,-0.14,0.87,1.69,-1.28,-0.99,
0.624,0.23,-0.13,0.88,1.69,-1.28,-0.99,
0.624,0.23,-0.13,0.88,1.63,-1.27,-0.93,
0.625,0.21,-0.13,0.89,1.63,-1.27,-0.93,
0.628,0.20,-0.12,0.91,1.63,-1.27,-0.93,
0.628,0.20,-0.12,0.91,1.48,-1.23,-0.75,
0.63,0.20,-0.11,0.94,1.48,-1.23,-0.75,
0.632,0.20,-0.10,0.96,1.48,-1.23,-0.75,
0.633,0.20,-0.10,0.96,1.23,-1.13,-0.48,
0.635,0.19,-0.09,0.96,1.23,-1.13,-0.48,
0.638,0.18,-0.09,0.99,1.23,-1.13,-0.48,
0.638,0.18,-0.09,0.99,1.18,-0.87,-0.01,
0.64,0.18,-0.08,1.01,1.18,-0.87,-0.01,
0.643,0.18,-0.08,1.01,1.01,-0.72,0.26,
0.643,0.17,-0.08,1.04,1.01,-0.72,0.26,
0.645,0.16,-0.07,1.06,1.01,-0.72,0.26,
0.647,0.15,-0.07,1.09,1.01,-0.72,0.26,
0.647,0.15,-0.07,1.09,0.83,-0.56,0.75,
0.649,0.13,-0.08,1.11,0.83,-0.56,0.75,
0.652,0.12,-0.08,1.13,0.83,-0.56,0.75,
0.652,0.12,-0.08,1.13,0.61,-0.44,1.27,
0.654,0.12,-0.08,1.15,0.61,-0.44,1.27,
0.658,0.11,-0.08,1.16,0.61,-0.44,1.27,
0.659,0.11,-0.08,1.16,0.33,-0.46,1.66,
0.659,0.11,-0.09,1.17,0.33,-0.46,1.66,
0.662,0.11,-0.09,1.18,0.33,-0.46,1.66,
0.662,0.11,-0.09,1.18,0.18,-0.44,1.99,
0.664,0.11,-0.09,1.19,0.18,-0.44,1.99,
0.667,0.11,-0.09,1.19,0.12,-0.42,2.22,
0.668,0.11,-0.09,1.20,0.12,-0.42,2.22,
0.669,0.11,-0.10,1.21,0.12,-0.42,2.22,
0.673,0.11,-0.10,1.21,0.12,-0.42,2.22,
0.674,0.11,-0.10,1.21,0.13,-0.43,2.40,
0.674,0.11,-0.10,1.21,0.13,-0.43,2.40,
0.677,0.10,-0.11,1.21,0.13,-0.43,2.40,
0.677,0.10,-0.11,1.21,0.09,-0.46,2.51,
0.679,0.10,-0.11,1.21,0.09,-0.46,2.51,
0.683,0.09,-0.12,1.21,0.09,-0.46,2.51,
0.683,0.09,-0.12,1.21,0.01,-0.52,2.53,
0.685,0.09,-0.12,1.21,0.01,-0.52,2.53,
0.687,0.10,-0.12,1.20,0.01,-0.52,2.53,
0.687,0.10,-0.12,1.20,-0.06,-0.59,2.52,
0.689,0.10,-0.12,1.19,-0.06,-0.59,2.52,
0.692,0.10,-0.12,1.19,-0.07,-0.63,2.43,
0.692,0.10,-0.11,1.18,-0.07,-0.63,2.43,
0.694,0.10,-0.10,1.17,-0.07,-0.63,2.43,
0.697,0.10,-0.10,1.16,-0.07,-0.63,2.43,
0.697,0.10,-0.10,1.16,-0.03,-0.53,2.24,
0.699,0.10,-0.10,1.15,-0.03,-0.53,2.24,
0.702,0.09,-0.09,1.15,-0.03,-0.53,2.24,
0.702,0.09,-0.09,1.15,-0.02,-0.38,2.02,
0.704,0.09,-0.08,1.14,-0.02,-0.38,2.02,
0.71,0.10,-0.08,1.14,-0.02,-0.38,2.02,
0.71,0.10,-0.08,1.14,-0.02,-0.28,1.90,
0.711,0.10,-0.07,1.14,-0.02,-0.28,1.90,
0.711,0.10,-0.07,1.13,-0.02,-0.28,1.90,
0.712,0.10,-0.07,1.13,0.02,-0.12,1.82,
0.714,0.09,-0.07,1.12,0.02,-0.12,1.82,
0.717,0.09,-0.07,1.12,0.06,-0.04,1.71,
0.717,0.08,-0.07,1.12,0.06,-0.04,1.71,
0.719,0.08,-0.07,1.12,0.06,-0.04,1.71,
0.723,0.08,-0.07,1.12,0.06,-0.04,1.71,
0.724,0.08,-0.07,1.12,-0.02,-0.07,1.61,
0.724,0.08,-0.07,1.12,-0.02,-0.07,1.61,
0.726,0.07,-0.08,1.13,-0.02,-0.07,1.61,
0.726,0.07,-0.08,1.13,-0.02,-0.06,1.60,
0.729,0.06,-0.08,1.13,-0.02,-0.06,1.60,
0.731,0.05,-0.09,1.13,-0.02,-0.06,1.60,
0.731,0.05,-0.09,1.13,-0.04,-0.07,1.64,
0.733,0.05,-0.09,1.13,-0.04,-0.07,1.64,
0.737,0.05,-0.09,1.13,-0.04,-0.07,1.64,
0.737,0.05,-0.09,1.13,-0.24,-0.18,1.66,
0.74,0.06,-0.10,1.14,-0.24,-0.18,1.66,
0.741,0.06,-0.10,1.14,-0.24,-0.24,1.67,
0.741,0.06,-0.10,1.14,-0.24,-0.24,1.67,
0.743,0.06,-0.10,1.15,-0.24,-0.24,1.67,
0.746,0.06,-0.10,1.15,-0.24,-0.24,1.67,
0.747,0.06,-0.10,1.15,-0.17,-0.28,1.70,
0.748,0.06,-0.10,1.14,-0.17,-0.28,1.70,
0.751,0.06,-0.09,1.15,-0.17,-0.28,1.70,
0.751,0.06,-0.09,1.15,-0.18,-0.26,1.79,
0.753,0.06,-0.08,1.15,-0.18,-0.26,1.79,
0.756,0.05,-0.08,1.14,-0.18,-0.26,1.79,
0.757,0.05,-0.08,1.14,-0.14,-0.19,1.81,
0.758,0.03,-0.08,1.13,-0.14,-0.19,1.81,
0.761,0.02,-0.08,1.13,-0.14,-0.19,1.81,
0.761,0.02,-0.08,1.13,-0.21,-0.07,1.73,
0.763,0.01,-0.08,1.13,-0.21,-0.07,1.73,
0.766,0.01,-0.08,1.13,-0.47,-0.03,1.62,
0.766,0.00,-0.08,1.13,-0.47,-0.03,1.62,
0.768,-0.01,-0.07,1.12,-0.47,-0.03,1.62,
0.771,-0.02,-0.07,1.11,-0.47,-0.03,1.62,
0.771,-0.02,-0.07,1.11,-0.68,-0.01,1.57,
0.773,-0.03,-0.05,1.11,-0.68,-0.01,1.57,
0.776,-0.03,-0.04,1.11,-0.68,-0.01,1.57,
0.776,-0.03,-0.04,1.11,-0.88,0.08,1.46,
0.778,-0.04,-0.03,1.11,-0.88,0.08,1.46,
0.781,-0.04,-0.03,1.11,-1.03,0.31,1.38,
0.781,-0.05,-0.02,1.10,-1.03,0.31,1.38,
0.783,-0.05,-0.02,1.11,-1.03,0.31,1.38,
0.786,-0.05,-0.01,1.11,-1.03,0.31,1.38,
0.786,-0.05,-0.01,1.11,-1.18,0.53,1.36,
0.788,-0.06,-0.00,1.10,-1.18,0.53,1.36,
0.792,-0.06,-0.00,1.10,-1.25,0.70,1.39,
0.792,-0.06,-0.00,1.11,-1.25,0.70,1.39,
0.793,-0.06,0.00,1.11,-1.25,0.70,1.39,
0.796,-0.07,-0.01,1.11,-1.25,0.70,1.39,
0.796,-0.07,-0.01,1.11,-1.30,0.81,1.35,
0.798,-0.06,-0.01,1.11,-1.30,0.81,1.35,
0.8,-0.06,-0.01,1.10,-1.30,0.81,1.35,
0.801,-0.06,-0.01,1.10,-1.34,0.83,1.38,
0.803,-0.06,-0.01,1.11,-1.34,0.83,1.38,
0.81,-0.06,-0.02,1.11,-1.34,0.83,1.38,
0.811,-0.06,-0.02,1.11,-1.29,0.78,1.35,
0.811,-0.05,-0.02,1.12,-1.29,0.78,1.35,
0.811,-0.05,-0.03,1.13,-1.29,0.78,1.35,
0.812,-0.05,-0.03,1.13,-1.24,0.70,1.41,
0.814,-0.05,-0.03,1.13,-1.24,0.70,1.41,
0.815,-0.05,-0.03,1.13,-1.16,0.66,1.53,
0.816,-0.04,-0.03,1.14,-1.16,0.66,1.53,
0.818,-0.04,-0.03,1.14,-1.16,0.66,1.53,
0.82,-0.04,-0.03,1.15,-1.16,0.66,1.53,
0.824,-0.04,-0.03,1.15,-1.05,0.64,1.65,
0.825,-0.04,-0.03,1.15,-1.05,0.64,1.65,
0.826,-0.04,-0.03,1.15,-1.05,0.64,1.65,
0.827,-0.04,-0.03,1.15,-0.97,0.69,1.71,
0.828,-0.04,-0.03,1.15,-0.97,0.69,1.71,
0.831,-0.03,-0.03,1.16,-0.97,0.69,1.71,
0.831,-0.03,-0.03,1.16,-0.99,0.67,1.78,
0.833,-0.02,-0.03,1.16,-0.99,0.67,1.78,
0.836,-0.02,-0.03,1.16,-0.99,0.67,1.78,
0.836,-0.02,-0.03,1.16,-0.90,0.69,1.83,
0.837,-0.02,-0.04,1.16,-0.90,0.69,1.83,
0.842,-0.02,-0.04,1.16,-0.73,0.68,1.83,
0.842,-0.01,-0.04,1.15,-0.73,0.68,1.83,
0.843,-0.01,-0.04,1.15,-0.73,0.68,1.83,
0.846,-0.02,-0.05,1.14,-0.73,0.68,1.83,
0.846,-0.02,-0.05,1.14,-0.66,0.66,1.78,
0.849,-0.01,-0.07,1.13,-0.66,0.66,1.78,
0.85,-0.01,-0.08,1.12,-0.66,0.66,1.78,
0.85,-0.01,-0.08,1.12,-0.67,0.57,1.68,
0.853,-0.01,-0.09,1.12,-0.67,0.57,1.68,
0.856,-0.02,-0.10,1.12,-0.67,0.57,1.68,
0.856,-0.02,-0.10,1.12,-0.64,0.35,1.50,
0.858,-0.01,-0.11,1.12,-0.64,0.35,1.50,
0.86,-0.00,-0.11,1.11,-0.64,0.35,1.50,
0.86,-0.00,-0.11,1.11,-0.65,0.15,1.41,
0.862,0.01,-0.11,1.11,-0.65,0.15,1.41,
0.866,0.01,-0.11,1.11,-0.55,-0.00,1.38,
0.866,0.01,-0.12,1.10,-0.55,-0.00,1.38,
0.868,0.02,-0.12,1.11,-0.55,-0.00,1.38,
0.871,0.02,-0.12,1.11,-0.55,-0.00,1.38,
0.871,0.02,-0.12,1.11,-0.41,-0.04,1.27,
0.873,0.03,-0.13,1.11,-0.41,-0.04,1.27,
0.876,0.03,-0.13,1.12,-0.41,-0.04,1.27,
0.876,0.03,-0.13,1.12,-0.29,-0.07,1.32,
0.877,0.04,-0.13,1.14,-0.29,-0.07,1.32,
0.88,0.04,-0.13,1.14,-0.29,-0.07,1.32,
0.881,0.04,-0.13,1.14,-0.19,-0.12,1.42,
0.882,0.05,-0.13,1.15,-0.19,-0.12,1.42,
0.886,0.05,-0.14,1.15,-0.19,-0.12,1.42,
0.886,0.05,-0.14,1.15,-0.09,-0.13,1.61,
0.888,0.06,-0.14,1.17,-0.09,-0.13,1.61,
0.895,0.06,-0.14,1.17,0.04,-0.18,1.72,
0.896,0.06,-0.14,1.17,0.04,-0.18,1.72,
0.896,0.06,-0.14,1.17,0.04,-0.18,1.72,
0.896,0.07,-0.14,1.18,0.04,-0.18,1.72,
0.896,0.07,-0.14,1.18,0.12,-0.18,1.90,
0.897,0.07,-0.14,1.18,0.12,-0.18,1.90,
0.9,0.07,-0.14,1.18,0.12,-0.18,1.90,
0.9,0.07,-0.14,1.18,0.19,-0.18,1.94,
0.902,0.07,-0.14,1.18,0.19,-0.18,1.94,
0.905,0.07,-0.14,1.19,0.19,-0.18,1.94,
0.906,0.07,-0.14,1.19,0.24,-0.19,2.00,
0.908,0.08,-0.14,1.18,0.24,-0.19,2.00,
0.91,0.08,-0.14,1.18,0.24,-0.19,2.00,
0.91,0.08,-0.14,1.18,0.28,-0.18,2.02,
0.912,0.09,-0.14,1.18,0.28,-0.18,2.02,
0.915,0.09,-0.14,1.18,0.36,-0.14,2.01,
0.916,0.09,-0.14,1.17,0.36,-0.14,2.01,
0.917,0.09,-0.14,1.16,0.36,-0.14,2.01,
0.92,0.10,-0.13,1.15,0.36,-0.14,2.01,
0.92,0.10,-0.13,1.15,0.45,-0.13,1.89,
0.922,0.11,-0.13,1.15,0.45,-0.13,1.89,
0.925,0.11,-0.13,1.14,0.45,-0.13,1.89,
0.925,0.11,-0.13,1.14,0.52,-0.10,1.73,
0.928,0.12,-0.13,1.14,0.52,-0.10,1.73,
0.93,0.12,-0.13,1.13,0.52,-0.10,1.73,
0.93,0.12,-0.13,1.13,0.66,-0.04,1.63,
0.932,0.12,-0.13,1.12,0.66,-0.04,1.63,
0.935,0.12,-0.13,1.11,0.66,-0.04,1.63,
0.935,0.12,-0.13,1.11,0.72,-0.01,1.48,
0.937,0.12,-0.13,1.11,0.72,-0.01,1.48,
0.942,0.12,-0.13,1.11,0.75,-0.02,1.31,
0.942,0.11,-0.13,1.10,0.75,-0.02,1.31,
0.942,0.11,-0.13,1.10,0.75,-0.02,1.31,
0.944,0.11,-0.13,1.09,0.75,-0.02,1.31,
0.945,0.11,-0.13,1.09,0.72,-0.03,1.21,
0.947,0.11,-0.12,1.08,0.72,-0.03,1.21,
0.95,0.10,-0.12,1.08,0.72,-0.03,1.21,
0.95,0.10,-0.12,1.08,0.65,-0.05,1.11,
0.952,0.11,-0.12,1.08,0.65,-0.05,1.11,
0.955,0.11,-0.12,1.08,0.61,0.06,0.98,
0.955,0.11,-0.11,1.08,0.61,0.06,0.98,
0.958,0.11,-0.10,1.07,0.61,0.06,0.98,
0.96,0.12,-0.10,1.07,0.61,0.06,0.98,
0.96,0.12,-0.10,1.07,0.64,0.13,0.95,
0.962,0.11,-0.09,1.06,0.64,0.13,0.95,
0.965,0.11,-0.09,1.06,0.69,0.27,0.86,
0.965,0.12,-0.09,1.07,0.69,0.27,0.86,
0.967,0.11,-0.09,1.07,0.69,0.27,0.86,
0.97,0.11,-0.08,1.06,0.69,0.27,0.86,
0.97,0.11,-0.08,1.06,0.72,0.34,0.79,
0.971,0.12,-0.08,1.06,0.72,0.34,0.79,
0.975,0.12,-0.08,1.06,0.72,0.34,0.79,
0.976,0.12,-0.08,1.06,0.71,0.39,0.77,
0.976,0.11,-0.07,1.06,0.71,0.39,0.77,
0.979,0.11,-0.07,1.06,0.71,0.39,0.77,
0.979,0.11,-0.07,1.06,0.75,0.46,0.76,
0.981,0.11,-0.07,1.05,0.75,0.46,0.76,
0.984,0.11,-0.07,1.05,0.69,0.50,0.71,
0.984,0.11,-0.07,1.06,0.69,0.50,0.71,
0.986,0.10,-0.07,1.05,0.69,0.50,0.71,
0.989,0.10,-0.07,1.05,0.65,0.55,0.69,
0.989,0.10,-0.07,1.05,0.65,0.55,0.69,
0.991,0.10,-0.07,1.06,0.65,0.55,0.69,
0.994,0.09,-0.08,1.06,0.65,0.55,0.69,
0.994,0.09,-0.08,1.06,0.57,0.53,0.65,
0.996,0.09,-0.07,1.06,0.57,0.53,0.65,
0.998,0.08,-0.07,1.07,0.57,0.53,0.65,
0.999,0.08,-0.07,1.07,0.50,0.49,0.69,
1.001,0.07,-0.07,1.07,0.50,0.49,0.69,
1.003,0.07,-0.07,1.08,0.50,0.49,0.69,
1.004,0.07,-0.07,1.08,0.41,0.51,0.80,
1.006,0.06,-0.07,1.09,0.41,0.51,0.80,
1.009,0.06,-0.07,1.10,0.41,0.51,0.80,
1.01,0.06,-0.07,1.10,0.30,0.53,0.90,
1.011,0.05,-0.08,1.11,0.30,0.53,0.90,
1.014,0.05,-0.08,1.11,0.19,0.52,1.04,
1.014,0.04,-0.08,1.11,0.19,0.52,1.04,
1.015,0.04,-0.09,1.13,0.19,0.52,1.04,
1.018,0.03,-0.09,1.14,0.19,0.52,1.04,
1.019,0.03,-0.09,1.14,0.04,0.41,1.22,
1.02,0.04,-0.10,1.13,0.04,0.41,1.22,
1.028,0.03,-0.10,1.14,0.04,0.41,1.22,
1.029,0.03,-0.10,1.14,-0.06,0.36,1.41,
1.029,0.03,-0.10,1.15,-0.06,0.36,1.41,
1.029,0.04,-0.10,1.15,-0.06,0.36,1.41,
1.031,0.04,-0.10,1.15,-0.05,0.25,1.46,
1.031,0.04,-0.10,1.16,-0.05,0.25,1.46,
1.033,0.04,-0.10,1.16,-0.05,0.25,1.46,
1.034,0.04,-0.10,1.16,-0.04,0.24,1.60,
1.035,0.04,-0.10,1.16,-0.04,0.24,1.60,
1.038,0.04,-0.10,1.16,0.01,0.25,1.67,
1.038,0.05,-0.10,1.17,0.01,0.25,1.67,
1.041,0.05,-0.10,1.17,0.01,0.25,1.67,
1.043,0.05,-0.09,1.17,0.01,0.25,1.67,
1.043,0.05,-0.09,1.17,0.06,0.28,1.75,
1.046,0.05,-0.09,1.18,0.06,0.28,1.75,
1.048,0.06,-0.09,1.17,0.06,0.28,1.75,
1.048,0.06,-0.09,1.17,0.08,0.30,1.78,
1.05,0.06,-0.08,1.17,0.08,0.30,1.78,
1.053,0.07,-0.08,1.17,0.08,0.30,1.78,
1.053,0.07,-0.08,1.17,0.14,0.35,1.78,
1.055,0.07,-0.08,1.17,0.14,0.35,1.78,
1.059,0.07,-0.07,1.17,0.14,0.35,1.78,
1.059,0.07,-0.07,1.17,0.23,0.40,1.74,
1.06,0.07,-0.07,1.17,0.23,0.40,1.74,
1.063,0.07,-0.07,1.17,0.30,0.46,1.76,
1.063,0.08,-0.06,1.17,0.30,0.46,1.76,
1.065,0.08,-0.06,1.17,0.30,0.46,1.76,
1.068,0.07,-0.06,1.17,0.30,0.46,1.76,
1.068,0.07,-0.06,1.17,0.34,0.55,1.74,
1.07,0.07,-0.06,1.18,0.34,0.55,1.74,
1.073,0.07,-0.07,1.18,0.34,0.55,1.74,
1.073,0.07,-0.07,1.18,0.34,0.59,1.77,
1.075,0.07,-0.07,1.19,0.34,0.59,1.77,
1.078,0.06,-0.08,1.19,0.34,0.59,1.77,
1.078,0.06,-0.08,1.19,0.28,0.56,1.83,
1.08,0.06,-0.08,1.19,0.28,0.56,1.83,
1.083,0.06,-0.08,1.20,0.28,0.56,1.83,
1.083,0.06,-0.08,1.20,0.24,0.45,1.92,
1.085,0.06,-0.09,1.21,0.24,0.45,1.92,
1.088,0.06,-0.09,1.21,0.20,0.36,2.00,
1.088,0.06,-0.09,1.21,0.20,0.36,2.00,
1.09,0.06,-0.09,1.21,0.20,0.36,2.00,
1.093,0.06,-0.09,1.21,0.20,0.36,2.00,
1.093,0.06,-0.09,1.21,0.18,0.31,2.06,
1.095,0.06,-0.09,1.21,0.18,0.31,2.06,
1.098,0.07,-0.09,1.22,0.18,0.31,2.06,
1.098,0.07,-0.09,1.22,0.18,0.28,2.12,
1.1,0.06,-0.09,1.21,0.18,0.28,2.12,
1.103,0.07,-0.09,1.21,0.18,0.28,2.12,
1.103,0.07,-0.09,1.21,0.21,0.24,2.12,
1.105,0.07,-0.09,1.20,0.21,0.24,2.12,
1.108,0.07,-0.09,1.21,0.21,0.24,2.12,
1.109,0.07,-0.09,1.21,0.20,0.26,2.09,
1.111,0.07,-0.09,1.21,0.20,0.26,2.09,
1.113,0.07,-0.09,1.21,0.21,0.25,2.03,
1.113,0.08,-0.08,1.21,0.21,0.25,2.03,
1.114,0.08,-0.08,1.21,0.21,0.25,2.03,
1.117,0.08,-0.08,1.21,0.28,0.27,2.09,
1.118,0.08,-0.07,1.21,0.28,0.27,2.09,
1.12,0.08,-0.07,1.20,0.28,0.27,2.09,
1.122,0.08,-0.07,1.20,0.28,0.27,2.09,
1.122,0.08,-0.07,1.20,0.31,0.35,2.03,
1.129,0.08,-0.07,1.19,0.31,0.35,2.03,
1.13,0.08,-0.06,1.18,0.31,0.35,2.03,
1.13,0.08,-0.06,1.18,0.28,0.39,1.96,
1.13,0.08,-0.06,1.18,0.28,0.39,1.96,
1.132,0.08,-0.06,1.17,0.28,0.39,1.96,
1.132,0.08,-0.06,1.17,0.27,0.42,1.83,
1.135,0.08,-0.06,1.17,0.27,0.42,1.83,
1.137,0.08,-0.06,1.16,0.27,0.42,1.83,
1.137,0.08,-0.06,1.16,0.26,0.46,1.70,
1.139,0.07,-0.06,1.16,0.26,0.46,1.70,
1.143,0.07,-0.06,1.16,0.26,0.46,1.70,
1.144,0.07,-0.06,1.16,0.25,0.46,1.58,
1.144,0.07,-0.06,1.16,0.25,0.46,1.58,
1.147,0.07,-0.05,1.16,0.25,0.46,1.58,
1.147,0.07,-0.05,1.16,0.14,0.45,1.49,
1.149,0.07,-0.06,1.17,0.14,0.45,1.49,
1.152,0.07,-0.06,1.17,0.14,0.45,1.49,
1.153,0.07,-0.06,1.17,0.12,0.44,1.50,
1.154,0.08,-0.06,1.17,0.12,0.44,1.50,
1.158,0.08,-0.06,1.18,0.12,0.44,1.50,
1.159,0.08,-0.06,1.18,0.14,0.38,1.57,
1.159,0.08,-0.07,1.19,0.14,0.38,1.57,
1.163,0.08,-0.07,1.20,0.14,0.38,1.57,
1.164,0.08,-0.07,1.20,0.20,0.32,1.60,
1.164,0.08,-0.08,1.20,0.20,0.32,1.60,
1.168,0.09,-0.08,1.21,0.20,0.32,1.60,
1.168,0.09,-0.08,1.21,0.19,0.24,1.76,
1.17,0.09,-0.09,1.22,0.19,0.24,1.76,
1.172,0.08,-0.09,1.22,0.19,0.24,1.76,
1.173,0.08,-0.09,1.22,0.24,0.16,1.88,
1.175,0.08,-0.09,1.22,0.24,0.16,1.88,
1.179,0.08,-0.09,1.22,0.24,0.16,1.88,
1.179,0.08,-0.09,1.22,0.25,0.06,1.97,
1.18,0.09,-0.10,1.22,0.25,0.06,1.97,
1.183,0.09,-0.09,1.22,0.25,0.06,1.97,
1.183,0.09,-0.09,1.22,0.20,0.01,2.01,
1.184,0.09,-0.10,1.23,0.20,0.01,2.01,
1.187,0.09,-0.10,1.22,0.20,0.01,2.01,
1.188,0.09,-0.10,1.22,0.25,-0.05,1.98,
1.189,0.09,-0.10,1.21,0.25,-0.05,1.98,
1.192,0.08,-0.10,1.21,0.25,-0.05,1.98,
1.193,0.08,-0.10,1.21,0.22,-0.14,2.00,
1.195,0.08,-0.10,1.20,0.22,-0.14,2.00,
1.197,0.09,-0.10,1.19,0.22,-0.14,2.00,
1.197,0.09,-0.10,1.19,0.19,-0.12,1.85,
1.199,0.08,-0.10,1.18,0.19,-0.12,1.85,
1.202,0.08,-0.09,1.18,0.19,-0.12,1.85,
1.202,0.08,-0.09,1.18,0.14,-0.13,1.71,
1.204,0.08,-0.09,1.18,0.14,-0.13,1.71,
1.207,0.08,-0.09,1.17,0.14,-0.13,1.71,
1.207,0.08,-0.09,1.17,0.13,-0.09,1.53,
1.209,0.08,-0.08,1.17,0.13,-0.09,1.53,
1.212,0.08,-0.08,1.17,0.08,-0.05,1.49,
1.212,0.07,-0.08,1.16,0.08,-0.05,1.49,
1.214,0.07,-0.08,1.15,0.08,-0.05,1.49,
1.217,0.07,-0.08,1.15,0.02,-0.03,1.36,
1.217,0.07,-0.08,1.15,0.02,-0.03,1.36,
1.219,0.08,-0.08,1.15,0.02,-0.03,1.36,
1.222,0.08,-0.08,1.15,0.02,-0.03,1.36,
1.222,0.08,-0.08,1.15,-0.02,-0.04,1.20,
1.224,0.08,-0.08,1.14,-0.02,-0.04,1.20,
1.229,0.08,-0.08,1.14,-0.02,-0.04,1.20,
1.23,0.08,-0.08,1.14,0.01,-0.03,1.15,
1.23,0.08,-0.08,1.14,0.01,-0.03,1.15,
1.232,0.08,-0.08,1.14,0.01,-0.03,1.15,
1.232,0.08,-0.08,1.14,0.04,-0.04,1.04,
1.234,0.08,-0.08,1.14,0.04,-0.04,1.04,
1.237,0.08,-0.09,1.15,0.04,-0.04,1.04,
1.237,0.08,-0.09,1.15,0.03,-0.09,1.08,
1.239,0.07,-0.09,1.15,0.03,-0.09,1.08,
1.243,0.07,-0.09,1.15,0.03,-0.09,1.08,
1.243,0.07,-0.09,1.15,-0.04,-0.18,1.08,
1.244,0.06,-0.10,1.14,-0.04,-0.18,1.08,
1.246,0.05,-0.10,1.15,-0.04,-0.18,1.08,
1.246,0.05,-0.10,1.15,-0.11,-0.24,1.11,
1.249,0.05,-0.10,1.16,-0.11,-0.24,1.11,
1.252,0.05,-0.10,1.15,-0.11,-0.24,1.11,
1.252,0.05,-0.10,1.15,-0.25,-0.34,1.11,
1.254,0.04,-0.10,1.16,-0.25,-0.34,1.11,
1.257,0.04,-0.10,1.15,-0.25,-0.34,1.11,
1.257,0.04,-0.10,1.15,-0.34,-0.42,1.18,
1.259,0.04,-0.10,1.15,-0.34,-0.42,1.18,
1.261,0.03,-0.10,1.14,-0.34,-0.42,1.18,
1.262,0.03,-0.10,1.14,-0.42,-0.44,1.15,
1.263,0.03,-0.09,1.13,-0.42,-0.44,1.15,
1.266,0.03,-0.09,1.13,-0.48,-0.45,1.02,
1.266,0.03,-0.09,1.13,-0.48,-0.45,1.02,
1.269,0.03,-0.08,1.14,-0.48,-0.45,1.02,
1.272,0.02,-0.07,1.14,-0.48,-0.45,1.02,
1.272,0.02,-0.07,1.14,-0.53,-0.36,0.92,
1.275,0.02,-0.07,1.13,-0.53,-0.36,0.92,
1.278,0.02,-0.07,1.13,-0.53,-0.36,0.92,
1.278,0.02,-0.07,1.13,-0.57,-0.28,0.96,
1.278,0.03,-0.07,1.13,-0.57,-0.28,0.96,
1.281,0.03,-0.07,1.12,-0.57,-0.28,0.96,
1.281,0.03,-0.07,1.12,-0.61,-0.26,0.87,
1.283,0.03,-0.07,1.11,-0.61,-0.26,0.87,
1.287,0.03,-0.07,1.11,-0.55,-0.25,0.79,
1.287,0.03,-0.06,1.10,-0.55,-0.25,0.79,
1.289,0.03,-0.06,1.09,-0.55,-0.25,0.79,
1.291,0.03,-0.06,1.08,-0.55,-0.25,0.79,
1.292,0.03,-0.06,1.08,-0.54,-0.24,0.62,
1.294,0.03,-0.06,1.07,-0.54,-0.24,0.62,
1.296,0.03,-0.05,1.07,-0.54,-0.24,0.62,
1.296,0.03,-0.05,1.07,-0.54,-0.22,0.41,
1.298,0.04,-0.04,1.06,-0.54,-0.22,0.41,
1.302,0.03,-0.04,1.05,-0.54,-0.22,0.41,
1.302,0.03,-0.04,1.05,-0.51,-0.23,0.28,
1.303,0.04,-0.04,1.05,-0.51,-0.23,0.28,
1.306,0.04,-0.04,1.05,-0.51,-0.23,0.28,
1.306,0.04,-0.04,1.05,-0.51,-0.16,0.12,
1.31,0.04,-0.04,1.05,-0.51,-0.16,0.12,
1.311,0.05,-0.05,1.05,-0.51,-0.16,0.12,
1.311,0.05,-0.05,1.05,-0.50,-0.17,0.05,
1.313,0.05,-0.05,1.05,-0.50,-0.17,0.05,
1.316,0.05,-0.05,1.05,-0.43,-0.24,0.09,
1.319,0.05,-0.04,1.05,-0.43,-0.24,0.09,
1.319,0.06,-0.05,1.05,-0.43,-0.24,0.09,
1.321,0.06,-0.05,1.05,-0.43,-0.24,0.09,
1.322,0.06,-0.05,1.05,-0.37,-0.28,0.06,
1.323,0.06,-0.05,1.05,-0.37,-0.28,0.06,
1.327,0.05,-0.05,1.05,-0.37,-0.28,0.06,
1.327,0.05,-0.05,1.05,-0.30,-0.37,0.07,
1.328,0.05,-0.05,1.05,-0.30,-0.37,0.07,
1.331,0.06,-0.05,1.04,-0.30,-0.37,0.07,
1.332,0.06,-0.05,1.04,-0.31,-0.43,0.07,
1.333,0.06,-0.05,1.04,-0.31,-0.43,0.07,
1.335,0.06,-0.05,1.04,-0.31,-0.43,0.07,
1.336,0.06,-0.05,1.04,-0.32,-0.49,-0.00,
1.338,0.05,-0.05,1.04,-0.32,-0.49,-0.00,
1.34,0.06,-0.05,1.03,-0.32,-0.49,-0.00,
1.34,0.06,-0.05,1.03,-0.30,-0.50,-0.06,
1.343,0.05,-0.04,1.02,-0.30,-0.50,-0.06,
1.345,0.05,-0.03,1.01,-0.30,-0.50,-0.06,
1.345,0.05,-0.03,1.01,-0.32,-0.53,-0.09,
1.347,0.05,-0.03,1.01,-0.32,-0.53,-0.09,
1.35,0.04,-0.02,0.99,-0.32,-0.53,-0.09,
1.35,0.04,-0.02,0.99,-0.37,-0.44,-0.25,
1.352,0.04,-0.02,0.98,-0.37,-0.44,-0.25,
1.355,0.03,-0.02,0.98,-0.37,-0.44,-0.25,
1.355,0.03,-0.02,0.98,-0.40,-0.37,-0.45,
1.357,0.02,-0.02,0.96,-0.40,-0.37,-0.45,
1.365,0.02,-0.01,0.96,-0.40,-0.37,-0.45,
1.366,0.02,-0.01,0.96,-0.52,-0.31,-0.58,
1.366,0.01,-0.01,0.95,-0.52,-0.31,-0.58,
1.366,-0.00,0.00,0.94,-0.52,-0.31,-0.58,
1.366,-0.00,0.00,0.94,-0.63,-0.31,-0.77,
1.367,-0.00,0.00,0.93,-0.63,-0.31,-0.77,
1.37,-0.00,0.01,0.93,-0.63,-0.31,-0.77,
1.37,-0.00,0.01,0.93,-0.78,-0.25,-0.92,
1.372,0.00,0.01,0.93,-0.78,-0.25,-0.92,
1.376,0.00,0.02,0.93,-0.78,-0.25,-0.92,
1.377,0.00,0.02,0.93,-0.82,-0.23,-1.07,
1.377,-0.00,0.02,0.92,-0.82,-0.23,-1.07,
1.38,-0.00,0.03,0.93,-0.82,-0.23,-1.07,
1.38,-0.00,0.03,0.93,-0.76,-0.14,-1.07,
1.382,0.00,0.03,0.93,-0.76,-0.14,-1.07,
1.385,0.00,0.02,0.94,-0.76,-0.14,-1.07,
1.385,0.00,0.02,0.94,-0.78,-0.11,-1.11,
1.387,0.01,0.02,0.94,-0.78,-0.11,-1.11,
1.39,0.01,0.02,0.94,-0.78,-0.11,-1.11,
1.39,0.01,0.02,0.94,-0.74,-0.15,-1.03,
1.393,0.02,0.02,0.95,-0.74,-0.15,-1.03,
1.395,0.03,0.01,0.95,-0.74,-0.15,-1.03,
1.396,0.03,0.01,0.95,-0.64,-0.20,-0.94,
1.397,0.03,0.01,0.96,-0.64,-0.20,-0.94,
1.4,0.04,0.00,0.98,-0.64,-0.20,-0.94,
1.4,0.04,0.00,0.98,-0.50,-0.29,-0.89,
1.402,0.04,0.00,0.98,-0.50,-0.29,-0.89,
1.404,0.04,-0.01,0.99,-0.50,-0.29,-0.89,
1.405,0.04,-0.01,0.99,-0.39,-0.38,-0.66,
1.407,0.05,-0.01,1.00,-0.39,-0.38,-0.66,
1.41,0.04,-0.01,1.01,-0.39,-0.38,-0.66,
1.411,0.04,-0.01,1.01,-0.34,-0.50,-0.48,
1.412,0.05,-0.01,1.02,-0.34,-0.50,-0.48,
1.414,0.05,-0.01,1.03,-0.34,-0.50,-0.48,
1.415,0.05,-0.01,1.03,-0.30,-0.59,-0.30,
1.417,0.05,-0.02,1.03,-0.30,-0.59,-0.30,
1.419,0.05,-0.03,1.03,-0.30,-0.59,-0.30,
1.419,0.05,-0.03,1.03,-0.23,-0.64,-0.12,
1.422,0.05,-0.03,1.04,-0.23,-0.64,-0.12,
1.424,0.05,-0.03,1.03,-0.23,-0.64,-0.12,
1.424,0.05,-0.03,1.03,-0.23,-0.79,-0.06,
1.428,0.04,-0.03,1.03,-0.23,-0.79,-0.06,
1.429,0.03,-0.03,1.03,-0.23,-0.79,-0.06,
1.429,0.03,-0.03,1.03,-0.27,-0.84,-0.02,
1.431,0.03,-0.03,1.03,-0.27,-0.84,-0.02,
1.434,0.02,-0.02,1.02,-0.27,-0.84,-0.02,
1.434,0.02,-0.02,1.02,-0.39,-0.89,-0.07,
1.436,0.00,-0.01,1.01,-0.39,-0.89,-0.07,
1.439,-0.01,-0.00,1.00,-0.39,-0.89,-0.07,
1.439,-0.01,-0.00,1.00,-0.53,-0.85,-0.14,
1.441,-0.02,0.00,0.98,-0.53,-0.85,-0.14,
1.447,-0.03,0.01,0.97,-0.53,-0.85,-0.14,
1.448,-0.03,0.01,0.97,-0.80,-0.71,-0.32,
1.448,-0.04,0.01,0.95,-0.80,-0.71,-0.32,
1.449,-0.05,0.01,0.94,-0.80,-0.71,-0.32,
1.449,-0.05,0.01,0.94,-0.98,-0.63,-0.60,
1.452,-0.06,0.01,0.93,-0.98,-0.63,-0.60,
1.454,-0.08,0.02,0.92,-0.98,-0.63,-0.60,
1.454,-0.08,0.02,0.92,-1.21,-0.64,-0.86,
1.456,-0.09,0.02,0.91,-1.21,-0.64,-0.86,
1.462,-0.10,0.02,0.90,-1.21,-0.64,-0.86,
1.463,-0.10,0.02,0.90,-1.44,-0.63,-1.09,
1.463,-0.09,0.03,0.89,-1.44,-0.63,-1.09,
1.464,-0.09,0.03,0.89,-1.44,-0.63,-1.09,
1.464,-0.09,0.03,0.89,-1.67,-0.60,-1.24,
1.466,-0.09,0.04,0.89,-1.67,-0.60,-1.24,
1.469,-0.08,0.04,0.88,-1.67,-0.60,-1.24,
1.469,-0.08,0.04,0.88,-1.62,-0.53,-1.40,
1.471,-0.07,0.04,0.87,-1.62,-0.53,-1.40,
1.474,-0.06,0.04,0.87,-1.62,-0.53,-1.40,
1.474,-0.06,0.04,0.87,-1.54,-0.52,-1.47,
1.478,-0.05,0.04,0.87,-1.54,-0.52,-1.47,
1.479,-0.04,0.03,0.87,-1.54,-0.52,-1.47,
1.479,-0.04,0.03,0.87,-1.36,-0.53,-1.58,
1.483,-0.03,0.03,0.87,-1.36,-0.53,-1.58,
1.484,-0.03,0.03,0.87,-1.16,-0.64,-1.60,
1.485,-0.01,0.03,0.87,-1.16,-0.64,-1.60,
1.486,-0.01,0.03,0.87,-1.16,-0.64,-1.60,
1.489,0.00,0.03,0.87,-1.16,-0.64,-1.60,
1.489,0.00,0.03,0.87,-0.93,-0.72,-1.55,
1.491,0.01,0.03,0.87,-0.93,-0.72,-1.55,
1.494,0.02,0.03,0.86,-0.93,-0.72,-1.55,
1.495,0.02,0.03,0.86,-0.71,-0.77,-1.55,
1.496,0.03,0.03,0.86,-0.71,-0.77,-1.55,
1.499,0.04,0.03,0.85,-0.71,-0.77,-1.55,
1.499,0.04,0.03,0.85,-0.53,-0.80,-1.59,
1.501,0.04,0.03,0.84,-0.53,-0.80,-1.59,
1.504,0.05,0.04,0.84,-0.53,-0.80,-1.59,
1.504,0.05,0.04,0.84,-0.36,-0.83,-1.65,
1.506,0.05,0.04,0.83,-0.36,-0.83,-1.65,
1.511,0.05,0.04,0.82,-0.36,-0.83,-1.65,
1.511,0.05,0.04,0.82,-0.27,-0.83,-1.81,
1.511,0.05,0.04,0.81,-0.27,-0.83,-1.81,
1.514,0.05,0.05,0.80,-0.27,-0.83,-1.81,
1.514,0.05,0.05,0.80,-0.19,-0.81,-1.95,
1.517,0.05,0.05,0.79,-0.19,-0.81,-1.95,
1.519,0.05,0.06,0.78,-0.19,-0.81,-1.95,
1.519,0.05,0.06,0.78,-0.19,-0.78,-2.16,
1.521,0.05,0.06,0.77,-0.19,-0.78,-2.16,
1.524,0.05,0.06,0.77,-0.15,-0.72,-2.32,
1.524,0.05,0.06,0.76,-0.15,-0.72,-2.32,
1.526,0.04,0.07,0.76,-0.15,-0.72,-2.32,
1.528,0.04,0.07,0.75,-0.15,-0.72,-2.32,
1.529,0.04,0.07,0.75,-0.21,-0.67,-2.51,
1.531,0.03,0.08,0.74,-0.21,-0.67,-2.51,
1.534,0.03,0.08,0.73,-0.21,-0.67,-2.51,
1.534,0.03,0.08,0.73,-0.28,-0.61,-2.64,
1.536,0.02,0.07,0.72,-0.28,-0.61,-2.64,
1.539,0.01,0.08,0.72,-0.28,-0.61,-2.64,
1.539,0.01,0.08,0.72,-0.36,-0.60,-2.82,
1.541,0.01,0.08,0.72,-0.36,-0.60,-2.82,
1.548,-0.00,0.08,0.72,-0.36,-0.60,-2.82,
1.548,-0.00,0.08,0.72,-0.50,-0.64,-2.93,
1.549,-0.00,0.08,0.71,-0.50,-0.64,-2.93,
1.549,-0.01,0.08,0.71,-0.50,-0.64,-2.93,
1.549,-0.01,0.08,0.71,-0.63,-0.64,-2.96,
1.55,-0.00,0.08,0.71,-0.63,-0.64,-2.96,
1.553,-0.01,0.08,0.71,-0.63,-0.64,-2.96,
1.553,-0.01,0.08,0.71,-0.69,-0.69,-3.03,
1.555,-0.01,0.08,0.72,-0.69,-0.69,-3.03,
1.559,-0.02,0.09,0.73,-0.69,-0.69,-3.03,
1.559,-0.02,0.09,0.73,-0.69,-0.69,-2.97,
1.561,-0.02,0.09,0.74,-0.69,-0.69,-2.97,
1.563,-0.03,0.09,0.74,-0.69,-0.69,-2.97,
1.563,-0.03,0.09,0.74,-0.79,-0.66,-2.89,
1.566,-0.03,0.09,0.75,-0.79,-0.66,-2.89,
1.569,-0.04,0.10,0.76,-0.79,-0.66,-2.89,
1.569,-0.04,0.10,0.76,-0.85,-0.63,-2.69,
1.571,-0.04,0.10,0.77,-0.85,-0.63,-2.69,
1.574,-0.04,0.10,0.77,-0.85,-0.63,-2.69,
1.574,-0.04,0.10,0.77,-0.93,-0.60,-2.55,
1.576,-0.04,0.10,0.78,-0.93,-0.60,-2.55,
1.579,-0.04,0.11,0.78,-0.93,-0.60,-2.55,
1.579,-0.04,0.11,0.78,-0.99,-0.58,-2.40,
1.58,-0.04,0.11,0.78,-0.99,-0.58,-2.40,
1.583,-0.04,0.11,0.78,-0.99,-0.58,-2.40,
1.583,-0.04,0.11,0.78,-0.98,-0.54,-2.28,
1.586,-0.03,0.12,0.79,-0.98,-0.54,-2.28,
1.588,-0.02,0.13,0.77,-0.98,-0.54,-2.28,
1.589,-0.02,0.13,0.77,-0.96,-0.46,-2.24,
1.591,-0.02,0.13,0.78,-0.96,-0.46,-2.24,
1.594,-0.02,0.14,0.79,-0.96,-0.46,-2.24,
1.595,-0.02,0.14,0.79,-0.86,-0.38,-2.26,
1.596,-0.01,0.14,0.79,-0.86,-0.38,-2.26,
1.599,-0.01,0.14,0.78,-0.86,-0.38,-2.26,
1.599,-0.01,0.14,0.78,-0.74,-0.28,-2.22,
1.601,-0.01,0.14,0.78,-0.74,-0.28,-2.22,
1.603,-0.01,0.14,0.77,-0.74,-0.28,-2.22,
1.603,-0.01,0.14,0.77,-0.68,-0.24,-2.20,
1.605,-0.00,0.14,0.78,-0.68,-0.24,-2.20,
1.608,-0.00,0.13,0.76,-0.68,-0.24,-2.20,
1.609,-0.00,0.13,0.76,-0.64,-0.24,-2.27,
1.611,-0.00,0.13,0.76,-0.64,-0.24,-2.27,
1.613,-0.00,0.12,0.77,-0.64,-0.24,-2.27,
1.613,-0.00,0.12,0.77,-0.54,-0.34,-2.33,
1.616,0.01,0.12,0.77,-0.54,-0.34,-2.33,
1.618,0.00,0.12,0.76,-0.54,-0.34,-2.33,
1.618,0.00,0.12,0.76,-0.55,-0.42,-2.33,
1.62,0.01,0.12,0.76,-0.55,-0.42,-2.33,
1.623,0.01,0.12,0.76,-0.55,-0.42,-2.33,
1.623,0.01,0.12,0.76,-0.49,-0.47,-2.36,
1.625,0.01,0.11,0.76,-0.49,-0.47,-2.36,
1.627,0.01,0.11,0.76,-0.49,-0.47,-2.36,
1.628,0.01,0.11,0.76,-0.44,-0.52,-2.38,
1.63,0.01,0.11,0.76,-0.44,-0.52,-2.38,
1.632,0.01,0.12,0.76,-0.44,-0.52,-2.38,
1.633,0.01,0.12,0.76,-0.40,-0.57,-2.41,
1.635,0.01,0.12,0.76,-0.40,-0.57,-2.41,
1.637,0.00,0.12,0.76,-0.40,-0.57,-2.41,
1.637,0.00,0.12,0.76,-0.39,-0.55,-2.43,
1.639,-0.01,0.13,0.77,-0.39,-0.55,-2.43,
1.642,-0.01,0.13,0.77,-0.39,-0.55,-2.43,
1.642,-0.01,0.13,0.77,-0.43,-0.52,-2.36,
1.645,-0.02,0.14,0.78,-0.43,-0.52,-2.36,
1.648,-0.02,0.14,0.78,-0.56,-0.43,-2.26,
1.648,-0.02,0.14,0.79,-0.56,-0.43,-2.26,
1.649,-0.02,0.15,0.80,-0.56,-0.43,-2.26,
1.652,-0.02,0.15,0.80,-0.56,-0.43,-2.26,
1.652,-0.02,0.15,0.80,-0.64,-0.35,-2.14,
1.654,-0.02,0.16,0.80,-0.64,-0.35,-2.14,
1.657,-0.02,0.16,0.81,-0.64,-0.35,-2.14,
1.657,-0.02,0.16,0.81,-0.66,-0.23,-2.00,
1.665,-0.02,0.16,0.81,-0.66,-0.23,-2.00,
1.665,-0.01,0.16,0.82,-0.66,-0.23,-2.00,
1.665,-0.01,0.16,0.82,-0.63,-0.15,-1.92,
1.666,-0.02,0.16,0.83,-0.63,-0.15,-1.92,
1.667,-0.03,0.16,0.83,-0.63,-0.15,-1.92,
1.667,-0.03,0.16,0.83,-0.57,-0.11,-1.81,
1.669,-0.02,0.16,0.84,-0.57,-0.11,-1.81,
1.672,-0.02,0.15,0.85,-0.57,-0.11,-1.81,
1.672,-0.02,0.15,0.85,-0.61,-0.13,-1.67,
1.674,-0.02,0.14,0.86,-0.61,-0.13,-1.67,
1.677,-0.02,0.14,0.87,-0.61,-0.13,-1.67,
1.678,-0.02,0.14,0.87,-0.62,-0.18,-1.51,
1.679,-0.01,0.14,0.88,-0.62,-0.18,-1.51,
1.682,-0.00,0.14,0.87,-0.62,-0.18,-1.51,
1.682,-0.00,0.14,0.87,-0.55,-0.28,-1.35,
1.684,0.00,0.14,0.88,-0.55,-0.28,-1.35,
1.687,0.00,0.14,0.88,-0.43,-0.33,-1.21,
1.687,0.00,0.14,0.89,-0.43,-0.33,-1.21,
1.689,0.01,0.14,0.90,-0.43,-0.33,-1.21,
1.692,0.02,0.14,0.90,-0.43,-0.33,-1.21,
1.692,0.02,0.14,0.90,-0.33,-0.35,-1.12,
1.694,0.02,0.14,0.90,-0.33,-0.35,-1.12,
1.696,0.01,0.14,0.91,-0.33,-0.35,-1.12,
1.697,0.01,0.14,0.91,-0.22,-0.30,-0.98,
1.699,0.01,0.15,0.91,-0.22,-0.30,-0.98,
1.702,0.02,0.15,0.91,-0.22,-0.30,-0.98,
1.702,0.02,0.15,0.91,-0.20,-0.28,-0.93,
1.704,0.01,0.16,0.92,-0.20,-0.28,-0.93,
1.706,-0.00,0.17,0.92,-0.20,-0.28,-0.93,
1.707,-0.00,0.17,0.92,-0.20,-0.17,-0.91,
1.709,-0.00,0.17,0.92,-0.20,-0.17,-0.91,
1.711,-0.01,0.18,0.92,-0.20,-0.17,-0.91,
1.712,-0.01,0.18,0.92,-0.29,-0.07,-0.78,
1.713,-0.01,0.18,0.92,-0.29,-0.07,-0.78,
1.717,-0.02,0.18,0.93,-0.29,-0.07,-0.78,
1.717,-0.02,0.18,0.93,-0.38,0.04,-0.75,
1.719,-0.03,0.19,0.93,-0.38,0.04,-0.75,
1.721,-0.04,0.19,0.93,-0.38,0.04,-0.75,
1.721,-0.04,0.19,0.93,-0.46,0.14,-0.71,
1.723,-0.05,0.19,0.94,-0.46,0.14,-0.71,
1.727,-0.05,0.19,0.93,-0.46,0.14,-0.71,
1.728,-0.05,0.19,0.93,-0.65,0.16,-0.67,
1.729,-0.06,0.19,0.94,-0.65,0.16,-0.67,
1.731,-0.06,0.19,0.93,-0.65,0.16,-0.67,
1.732,-0.06,0.19,0.93,-0.79,0.19,-0.62,
1.733,-0.06,0.19,0.93,-0.79,0.19,-0.62,
1.736,-0.06,0.19,0.94,-0.79,0.19,-0.62,
1.737,-0.06,0.19,0.94,-0.88,0.19,-0.63,
1.738,-0.06,0.19,0.93,-0.88,0.19,-0.63,
1.741,-0.06,0.19,0.93,-0.88,0.19,-0.63,
1.741,-0.06,0.19,0.93,-0.90,0.17,-0.62,
1.745,-0.07,0.18,0.93,-0.90,0.17,-0.62,
1.746,-0.07,0.18,0.93,-0.90,0.17,-0.62,
1.746,-0.07,0.18,0.93,-0.89,0.18,-0.69,
1.748,-0.07,0.18,0.93,-0.89,0.18,-0.69,
1.751,-0.06,0.18,0.93,-0.89,0.18,-0.69,
1.751,-0.06,0.18,0.93,-0.94,0.12,-0.68,
1.753,-0.07,0.17,0.93,-0.94,0.12,-0.68,
1.757,-0.06,0.17,0.94,-0.94,0.12,-0.68,
1.757,-0.06,0.17,0.94,-0.91,0.08,-0.65,
1.758,-0.07,0.16,0.95,-0.91,0.08,-0.65,
1.761,-0.06,0.16,0.95,-0.91,0.08,-0.65,
1.762,-0.06,0.16,0.95,-0.90,0.01,-0.63,
1.763,-0.05,0.16,0.95,-0.90,0.01,-0.63,
1.766,-0.05,0.16,0.96,-0.90,0.01,-0.63,
1.766,-0.05,0.16,0.96,-0.86,-0.05,-0.49,
1.768,-0.04,0.15,0.97,-0.86,-0.05,-0.49,
1.771,-0.03,0.15,0.98,-0.86,-0.05,-0.49,
1.771,-0.03,0.15,0.98,-0.73,-0.10,-0.40,
1.773,-0.03,0.15,0.98,-0.73,-0.10,-0.40,
1.776,-0.03,0.15,0.98,-0.56,-0.15,-0.27,
1.776,-0.02,0.15,0.98,-0.56,-0.15,-0.27,
1.782,-0.02,0.15,0.98,-0.56,-0.15,-0.27,
1.782,-0.01,0.15,0.99,-0.56,-0.15,-0.27,
1.782,-0.01,0.15,0.99,-0.46,-0.17,-0.20,
1.783,-0.00,0.15,0.99,-0.46,-0.17,-0.20,
1.786,0.00,0.15,1.00,-0.46,-0.17,-0.20,
1.786,0.00,0.15,1.00,-0.38,-0.19,-0.10,
1.788,0.01,0.15,1.00,-0.38,-0.19,-0.10,
1.791,0.00,0.14,1.00,-0.38,-0.19,-0.10,
1.791,0.00,0.14,1.00,-0.21,-0.20,-0.02,
1.793,0.01,0.14,1.00,-0.21,-0.20,-0.02,
1.796,0.01,0.15,1.00,-0.21,-0.20,-0.02,
1.797,0.01,0.15,1.00,-0.19,-0.23,0.01,
1.798,0.01,0.14,1.00,-0.19,-0.23,0.01,
1.801,0.02,0.14,1.00,-0.19,-0.23,0.01,
1.801,0.02,0.14,1.00,-0.09,-0.22,0.03,
1.803,0.01,0.14,0.99,-0.09,-0.22,0.03,
1.806,0.01,0.14,0.99,-0.09,-0.22,0.03,
1.806,0.01,0.14,0.99,-0.08,-0.25,-0.00,
1.808,0.02,0.14,0.99,-0.08,-0.25,-0.00,
1.812,0.02,0.14,0.98,-0.08,-0.25,-0.00,
1.816,0.02,0.14,0.98,-0.07,-0.28,-0.07,
1.816,0.02,0.13,0.97,-0.07,-0.28,-0.07,
1.817,0.03,0.14,0.97,-0.07,-0.28,-0.07,
1.817,0.03,0.14,0.97,-0.04,-0.31,-0.16,
1.818,0.02,0.14,0.96,-0.04,-0.31,-0.16,
1.82,0.02,0.14,0.96,0.03,-0.33,-0.29,
1.821,0.02,0.14,0.95,0.03,-0.33,-0.29,
1.823,0.02,0.14,0.95,0.03,-0.33,-0.29,
1.826,0.02,0.14,0.94,0.03,-0.33,-0.29,
1.826,0.02,0.14,0.94,0.02,-0.29,-0.38,
1.829,0.02,0.14,0.93,0.02,-0.29,-0.38,
1.831,0.02,0.14,0.93,0.02,-0.29,-0.38,
1.831,0.02,0.14,0.93,0.00,-0.31,-0.53,
1.832,0.01,0.14,0.92,0.00,-0.31,-0.53,
1.838,0.01,0.15,0.92,0.00,-0.31,-0.53,
1.838,0.01,0.15,0.92,-0.02,-0.31,-0.66,
1.839,0.02,0.15,0.92,-0.02,-0.31,-0.66,
1.841,0.02,0.15,0.92,-0.02,-0.31,-0.66,
1.841,0.02,0.15,0.92,-0.09,-0.26,-0.74,
1.842,0.01,0.15,0.91,-0.09,-0.26,-0.74,
1.845,0.02,0.16,0.91,-0.09,-0.26,-0.74,
1.846,0.02,0.16,0.91,-0.05,-0.24,-0.75,
1.848,0.02,0.16,0.92,-0.05,-0.24,-0.75,
1.851,0.01,0.16,0.92,-0.05,-0.24,-0.75,
1.851,0.01,0.16,0.92,-0.05,-0.19,-0.80,
1.852,0.01,0.16,0.92,-0.05,-0.19,-0.80,
1.855,0.01,0.16,0.92,-0.05,-0.19,-0.80,
1.855,0.01,0.16,0.92,-0.06,-0.13,-0.78,
1.857,0.01,0.16,0.92,-0.06,-0.13,-0.78,
1.861,0.01,0.17,0.93,-0.06,-0.13,-0.78,
1.861,0.01,0.17,0.93,-0.10,-0.10,-0.72,
1.867,0.01,0.17,0.93,-0.10,-0.10,-0.72,
1.867,0.01,0.17,0.93,-0.13,-0.08,-0.69,
1.868,0.01,0.16,0.94,-0.13,-0.08,-0.69,
1.868,0.01,0.17,0.94,-0.13,-0.08,-0.69,
1.871,0.01,0.17,0.94,-0.13,-0.08,-0.69,
1.871,0.01,0.17,0.94,-0.10,-0.07,-0.60,
1.872,0.01,0.16,0.95,-0.10,-0.07,-0.60,
1.875,0.01,0.16,0.95,-0.10,-0.07,-0.60,
1.875,0.01,0.16,0.95,-0.09,-0.05,-0.53,
1.879,0.02,0.16,0.95,-0.09,-0.05,-0.53,
1.88,0.02,0.16,0.96,-0.09,-0.05,-0.53,
1.881,0.02,0.16,0.96,-0.06,-0.08,-0.48,
1.882,0.02,0.16,0.96,-0.06,-0.08,-0.48,
1.886,0.02,0.16,0.96,-0.01,-0.11,-0.41,
1.886,0.02,0.16,0.97,-0.01,-0.11,-0.41,
1.888,0.03,0.15,0.97,-0.01,-0.11,-0.41,
1.89,0.03,0.16,0.98,-0.01,-0.11,-0.41,
1.89,0.03,0.16,0.98,0.02,-0.13,-0.31,
1.894,0.03,0.16,0.98,0.02,-0.13,-0.31,
1.895,0.04,0.16,0.98,0.02,-0.13,-0.31,
1.896,0.04,0.16,0.98,0.09,-0.15,-0.23,
1.898,0.04,0.16,0.99,0.09,-0.15,-0.23,
1.9,0.05,0.16,1.00,0.09,-0.15,-0.23,
1.9,0.05,0.16,1.00,0.16,-0.14,-0.15,
1.902,0.05,0.16,1.00,0.16,-0.14,-0.15,
1.905,0.05,0.16,1.00,0.25,-0.08,-0.05,
1.906,0.05,0.16,1.00,0.25,-0.08,-0.05,
1.908,0.05,0.17,0.99,0.25,-0.08,-0.05,
1.91,0.06,0.17,1.00,0.25,-0.08,-0.05,
1.91,0.06,0.17,1.00,0.30,-0.05,0.02,
1.912,0.06,0.18,1.00,0.30,-0.05,0.02,
1.915,0.07,0.17,1.00,0.30,-0.05,0.02,
1.915,0.07,0.17,1.00,0.35,0.03,0.02,
1.918,0.07,0.18,1.00,0.35,0.03,0.02,
1.92,0.07,0.18,1.00,0.35,0.03,0.02,
1.92,0.07,0.18,1.00,0.44,0.05,0.06,
1.922,0.07,0.18,1.00,0.44,0.05,0.06,
1.925,0.07,0.18,1.00,0.44,0.05,0.06,
1.925,0.07,0.18,1.00,0.49,0.10,0.03,
1.927,0.06,0.18,1.00,0.49,0.10,0.03,
1.93,0.06,0.18,0.99,0.49,0.10,0.03,
1.93,0.06,0.18,0.99,0.49,0.11,0.03,
1.932,0.05,0.18,0.99,0.49,0.11,0.03,
1.935,0.05,0.18,0.98,0.49,0.11,0.03,
1.935,0.05,0.18,0.98,0.43,0.08,-0.01,
1.937,0.05,0.18,0.98,0.43,0.08,-0.01,
1.94,0.05,0.18,0.97,0.43,0.08,-0.01,
1.94,0.05,0.18,0.97,0.35,0.08,-0.08,
1.942,0.05,0.19,0.97,0.35,0.08,-0.08,
1.945,0.04,0.18,0.97,0.35,0.08,-0.08,
1.945,0.04,0.18,0.97,0.35,0.10,-0.19,
1.947,0.03,0.18,0.96,0.35,0.10,-0.19,
1.949,0.03,0.18,0.95,0.35,0.10,-0.19,
1.949,0.03,0.18,0.95,0.26,0.11,-0.26,
1.952,0.02,0.18,0.95,0.26,0.11,-0.26,
1.954,0.02,0.17,0.96,0.26,0.11,-0.26,
1.954,0.02,0.17,0.96,0.14,0.11,-0.35,
1.957,0.01,0.18,0.96,0.14,0.11,-0.35,
1.96,0.00,0.18,0.96,0.14,0.11,-0.35,
1.96,0.00,0.18,0.96,0.03,0.04,-0.38,
1.961,-0.00,0.18,0.96,0.03,0.04,-0.38,
1.964,-0.01,0.18,0.97,0.03,0.04,-0.38,
1.965,-0.01,0.18,0.97,-0.09,0.08,-0.36,
1.967,-0.01,0.18,0.97,-0.09,0.08,-0.36,
1.97,-0.01,0.18,0.98,-0.09,0.08,-0.36,
1.97,-0.01,0.18,0.98,-0.21,0.07,-0.30,
1.972,-0.02,0.18,0.99,-0.21,0.07,-0.30,
1.975,-0.01,0.18,1.00,-0.21,0.07,-0.30,
1.975,-0.01,0.18,1.00,-0.26,0.06,-0.17,
1.978,-0.02,0.17,1.01,-0.26,0.06,-0.17,
1.983,-0.01,0.17,1.02,-0.26,0.06,-0.17,
1.984,-0.01,0.17,1.02,-0.31,0.06,-0.03,
1.984,-0.01,0.17,1.02,-0.31,0.06,-0.03,
1.984,-0.02,0.16,1.03,-0.31,0.06,-0.03,
1.984,-0.02,0.16,1.03,-0.30,0.02,0.17,
1.988,-0.01,0.16,1.04,-0.30,0.02,0.17,
1.989,-0.01,0.16,1.05,-0.30,0.02,0.17,
1.989,-0.01,0.16,1.05,-0.30,-0.03,0.32,
1.991,-0.01,0.16,1.05,-0.30,-0.03,0.32,
1.993,-0.01,0.15,1.07,-0.30,-0.03,0.32,
1.994,-0.01,0.15,1.07,-0.26,-0.08,0.48,
1.997,-0.00,0.15,1.07,-0.26,-0.08,0.48,
1.998,0.01,0.15,1.08,-0.26,-0.08,0.48,
1.999,0.01,0.15,1.08,-0.20,-0.13,0.64,
2.001,0.01,0.15,1.08,-0.20,-0.13,0.64,
2.004,0.01,0.15,1.08,-0.20,-0.13,0.64,
2.004,0.01,0.15,1.08,-0.12,-0.16,0.75,
2.006,0.01,0.15,1.08,-0.12,-0.16,0.75,
2.008,0.01,0.15,1.08,-0.12,-0.16,0.75,
2.009,0.01,0.15,1.08,-0.06,-0.16,0.83,
2.011,0.01,0.15,1.08,-0.06,-0.16,0.83,
2.014,0.01,0.15,1.08,-0.01,-0.16,0.86,
2.015,0.01,0.15,1.08,-0.01,-0.16,0.86,
2.016,0.01,0.15,1.07,-0.01,-0.16,0.86,
2.018,0.01,0.15,1.07,-0.01,-0.16,0.86,
2.018,0.01,0.15,1.07,-0.02,-0.18,0.78,
2.021,0.01,0.15,1.07,-0.02,-0.18,0.78,
2.023,0.01,0.15,1.07,-0.02,-0.20,0.73,
2.024,0.00,0.16,1.05,-0.02,-0.20,0.73,
2.025,0.00,0.16,1.05,-0.02,-0.20,0.73,
2.029,-0.01,0.16,1.04,-0.02,-0.20,0.73,
2.03,-0.01,0.16,1.04,-0.09,-0.15,0.60,
2.031,-0.01,0.16,1.03,-0.09,-0.15,0.60,
2.033,-0.01,0.16,1.03,-0.09,-0.15,0.60,
2.033,-0.01,0.16,1.03,-0.18,-0.12,0.45,
2.036,-0.02,0.17,1.02,-0.18,-0.12,0.45,
2.038,-0.02,0.17,1.01,-0.18,-0.12,0.45,
2.038,-0.02,0.17,1.01,-0.24,-0.08,0.32,
2.04,-0.02,0.18,1.00,-0.24,-0.08,0.32,
2.043,-0.02,0.18,1.00,-0.24,-0.08,0.32,
2.043,-0.02,0.18,1.00,-0.32,-0.04,0.16,
2.046,-0.03,0.18,0.99,-0.32,-0.04,0.16,
2.048,-0.03,0.18,0.98,-0.32,-0.04,0.16,
2.048,-0.03,0.18,0.98,-0.34,0.04,0.03,
2.05,-0.03,0.18,0.98,-0.34,0.04,0.03,
2.053,-0.03,0.18,0.98,-0.34,0.04,0.03,
2.053,-0.03,0.18,0.98,-0.45,0.02,-0.08,
2.055,-0.03,0.18,0.98,-0.45,0.02,-0.08,
2.058,-0.03,0.18,0.98,-0.45,0.02,-0.08,
2.058,-0.03,0.18,0.98,-0.44,0.06,-0.15,
2.06,-0.02,0.18,0.98,-0.44,0.06,-0.15,
2.063,-0.02,0.18,0.97,-0.44,0.06,-0.15,
2.064,-0.02,0.18,0.97,-0.40,0.07,-0.17,
2.065,-0.02,0.19,0.97,-0.40,0.07,-0.17,
2.068,-0.01,0.19,0.94,-0.40,0.07,-0.17,
2.068,-0.01,0.19,0.94,-0.38,0.06,-0.20,
2.07,-0.01,0.20,0.83,-0.38,0.06,-0.20,
2.073,-0.02,0.21,0.72,-0.38,0.06,-0.20,
2.073,-0.02,0.21,0.72,-0.32,0.09,-0.38,
2.075,-0.03,0.21,0.71,-0.32,0.09,-0.38,
2.078,-0.02,0.20,0.82,-0.32,0.09,-0.38,
2.078,-0.02,0.20,0.82,-0.29,0.27,-2.15,
2.08,-0.01,0.20,0.92,-0.29,0.27,-2.15,
2.083,-0.02,0.19,0.96,-0.29,0.27,-2.15,
2.083,-0.02,0.19,0.96,-0.36,0.29,-2.22,
2.085,-0.02,0.18,0.99,-0.36,0.29,-2.22,
2.088,-0.02,0.19,1.00,-0.36,0.29,-2.22,
2.088,-0.02,0.19,1.00,-0.28,0.19,-0.54,
2.09,-0.01,0.19,0.99,-0.28,0.19,-0.54,
2.094,-0.00,0.19,0.99,-0.28,0.19,-0.54,
2.094,-0.00,0.19,0.99,-0.30,0.08,-0.01,
2.096,0.01,0.19,0.99,-0.30,0.08,-0.01,
2.102,0.03,0.19,0.99,-0.30,0.08,-0.01,
2.102,0.03,0.19,0.99,-0.22,0.12,-0.06,
2.103,0.05,0.18,1.00,-0.22,0.12,-0.06,
2.103,0.05,0.18,1.02,-0.22,0.12,-0.06,
2.103,0.05,0.18,1.02,0.08,0.15,-0.05,
2.105,0.05,0.18,1.02,0.08,0.15,-0.05,
2.107,0.04,0.18,1.03,0.08,0.15,-0.05,
2.108,0.04,0.18,1.03,0.34,0.06,0.14,
2.11,0.03,0.18,1.04,0.34,0.06,0.14,
2.118,0.03,0.18,1.05,0.34,0.06,0.14,
2.119,0.03,0.18,1.05,0.28,-0.01,0.33,
2.119,0.03,0.19,1.05,0.28,-0.01,0.33,
2.119,0.02,0.19,1.06,0.28,-0.01,0.33,
2.119,0.02,0.19,1.06,0.17,0.02,0.51,
2.12,0.03,0.19,1.05,0.17,0.02,0.51,
2.123,0.03,0.19,1.05,0.10,0.11,0.61,
2.123,0.02,0.19,1.03,0.10,0.11,0.61,
2.125,0.03,0.19,1.02,0.10,0.11,0.61,
2.127,0.03,0.20,1.01,0.10,0.11,0.61,
2.127,0.03,0.20,1.01,0.10,0.12,0.46,
2.141,0.02,0.20,1.00,0.10,0.12,0.46,
2.142,0.02,0.20,1.00,0.10,0.12,0.46,
2.143,0.02,0.20,1.00,0.12,0.16,0.20,
2.143,0.01,0.20,0.99,0.12,0.16,0.20,
2.143,0.01,0.19,0.99,0.12,0.16,0.20,
2.143,0.01,0.19,0.99,0.03,0.14,0.09,
2.144,0.00,0.19,0.98,0.03,0.14,0.09,
2.147,0.00,0.20,0.97,0.03,0.14,0.09,
2.148,0.00,0.20,0.97,-0.06,0.13,-0.04,
2.148,0.00,0.20,0.97,-0.06,0.13,-0.04,
2.149,0.00,0.20,0.97,-0.06,0.13,-0.04,
2.149,0.00,0.20,0.97,-0.12,0.13,-0.17,
2.149,-0.00,0.20,0.97,-0.12,0.13,-0.17,
2.155,-0.00,0.20,0.97,-0.12,0.17,-0.23,
2.156,-0.00,0.20,0.96,-0.12,0.17,-0.23,
2.156,-0.00,0.21,0.96,-0.12,0.17,-0.23,
