
time,gFx,gFy,gFz,ax,ay,az,
0.001,-0.07,0.16,0.85,-0.22,0.29,-1.46,
0.002,-0.07,0.16,0.85,-0.19,0.23,-1.39,
0.002,-0.07,0.16,0.88,-0.19,0.23,-1.39,
0.004,-0.06,0.17,0.90,-0.19,0.23,-1.39,
0.004,-0.06,0.17,0.90,-0.20,0.22,-1.08,
0.006,-0.05,0.17,0.93,-0.20,0.22,-1.08,
0.009,-0.05,0.16,0.95,-0.20,0.22,-1.08,
0.009,-0.05,0.16,0.95,-0.10,0.28,-0.59,
0.011,-0.04,0.17,0.97,-0.10,0.28,-0.59,
0.014,-0.04,0.17,0.99,-0.10,0.28,-0.59,
0.014,-0.04,0.17,0.99,0.03,0.26,-0.08,
0.016,-0.03,0.17,1.01,0.03,0.26,-0.08,
0.019,-0.03,0.17,1.02,0.03,0.26,-0.08,
0.019,-0.03,0.17,1.02,0.13,0.30,0.33,
0.021,-0.03,0.17,1.03,0.13,0.30,0.33,
0.024,-0.03,0.17,1.03,0.13,0.30,0.33,
0.024,-0.03,0.17,1.03,0.22,0.35,0.63,
0.026,-0.03,0.18,1.03,0.22,0.35,0.63,
0.029,-0.04,0.17,1.04,0.22,0.35,0.63,
0.029,-0.04,0.17,1.04,0.18,0.36,0.77,
0.031,-0.03,0.17,1.05,0.18,0.36,0.77,
0.034,-0.03,0.18,1.04,0.18,0.36,0.77,
0.034,-0.03,0.18,1.04,0.15,0.40,0.86,
0.036,-0.03,0.18,1.04,0.15,0.40,0.86,
0.038,-0.02,0.18,1.03,0.15,0.40,0.86,
0.039,-0.02,0.18,1.03,0.18,0.40,0.88,
0.041,-0.02,0.18,1.02,0.18,0.40,0.88,
0.043,-0.02,0.18,1.01,0.18,0.40,0.88,
0.044,-0.02,0.18,1.01,0.23,0.47,0.78,
0.046,-0.02,0.18,1.01,0.23,0.47,0.78,
0.049,-0.02,0.18,1.00,0.23,0.47,0.78,
0.049,-0.02,0.18,1.00,0.23,0.50,0.62,
0.051,-0.01,0.18,0.99,0.23,0.50,0.62,
0.053,-0.01,0.18,0.97,0.23,0.50,0.62,
0.053,-0.01,0.18,0.97,0.28,0.48,0.48,
0.056,-0.01,0.18,0.96,0.28,0.48,0.48,
0.058,0.00,0.18,0.96,0.28,0.48,0.48,
0.058,0.00,0.18,0.96,0.35,0.48,0.24,
0.061,-0.00,0.18,0.95,0.35,0.48,0.24,
0.063,-0.01,0.18,0.95,0.35,0.48,0.24,
0.063,-0.01,0.18,0.95,0.37,0.47,0.07,
0.066,-0.01,0.18,0.94,0.37,0.47,0.07,
0.068,-0.01,0.18,0.94,0.37,0.47,0.07,
0.068,-0.01,0.18,0.94,0.35,0.48,-0.05,
0.071,-0.03,0.18,0.94,0.35,0.48,-0.05,
0.073,-0.03,0.17,0.93,0.35,0.48,-0.05,
0.073,-0.03,0.17,0.93,0.28,0.48,-0.17,
0.076,-0.03,0.17,0.93,0.28,0.48,-0.17,
0.078,-0.03,0.18,0.94,0.28,0.48,-0.17,
0.078,-0.03,0.18,0.94,0.07,0.45,-0.20,
0.081,-0.04,0.18,0.95,0.07,0.45,-0.20,
0.083,-0.04,0.18,0.95,0.03,0.44,-0.22,
0.084,-0.03,0.17,0.96,0.03,0.44,-0.22,
0.086,-0.03,0.15,0.98,0.03,0.44,-0.22,
0.088,-0.04,0.13,1.00,0.03,0.44,-0.22,
0.088,-0.04,0.13,1.00,0.02,0.42,-0.01,
0.091,-0.04,0.14,1.01,0.02,0.42,-0.01,
0.093,-0.04,0.15,1.02,0.02,0.42,-0.01,
0.093,-0.04,0.15,1.02,-0.05,0.14,0.31,
0.096,-0.03,0.15,1.04,-0.05,0.14,0.31,
0.098,-0.03,0.16,1.05,-0.05,0.14,0.31,
0.098,-0.03,0.16,1.05,-0.10,0.21,0.54,
0.101,-0.02,0.17,1.05,-0.10,0.21,0.54,
0.104,-0.02,0.17,1.06,-0.10,0.21,0.54,
0.104,-0.02,0.17,1.06,-0.02,0.34,0.84,
0.106,-0.03,0.17,1.08,-0.02,0.34,0.84,
0.109,-0.04,0.17,1.09,-0.02,0.34,0.84,
0.109,-0.04,0.17,1.09,0.06,0.46,0.94,
0.111,-0.04,0.17,1.09,0.06,0.46,0.94,
0.113,-0.05,0.17,1.09,0.06,0.46,0.94,
0.113,-0.05,0.17,1.09,-0.05,0.47,1.18,
0.116,-0.06,0.16,1.10,-0.05,0.47,1.18,
0.118,-0.07,0.16,1.09,-0.05,0.47,1.18,
0.118,-0.07,0.16,1.09,-0.18,0.47,1.27,
0.121,-0.08,0.16,1.09,-0.18,0.47,1.27,
0.123,-0.08,0.16,1.08,-0.18,0.47,1.27,
0.123,-0.08,0.16,1.08,-0.36,0.40,1.31,
0.125,-0.09,0.16,1.07,-0.36,0.40,1.31,
0.128,-0.10,0.17,1.07,-0.36,0.40,1.31,
0.128,-0.10,0.17,1.07,-0.55,0.38,1.18,
0.134,-0.10,0.17,1.06,-0.55,0.38,1.18,
0.134,-0.10,0.17,1.06,-0.55,0.38,1.18,
0.134,-0.10,0.17,1.06,-0.70,0.40,1.03,
0.136,-0.11,0.17,1.06,-0.70,0.40,1.03,
0.138,-0.11,0.18,1.05,-0.70,0.40,1.03,
0.138,-0.11,0.18,1.05,-0.79,0.44,0.92,
0.14,-0.11,0.18,1.04,-0.79,0.44,0.92,
0.143,-0.12,0.18,1.04,-0.79,0.44,0.92,
0.143,-0.12,0.18,1.04,-0.89,0.49,0.84,
0.146,-0.12,0.19,1.04,-0.89,0.49,0.84,
0.148,-0.12,0.19,1.05,-0.89,0.49,0.84,
0.148,-0.12,0.19,1.05,-0.94,0.56,0.72,
0.15,-0.12,0.19,1.04,-0.94,0.56,0.72,
0.152,-0.12,0.20,1.04,-0.94,0.56,0.72,
0.153,-0.12,0.20,1.04,-0.99,0.63,0.73,
0.155,-0.13,0.21,1.04,-0.99,0.63,0.73,
0.158,-0.13,0.21,1.04,-1.00,0.66,0.67,
0.158,-0.12,0.20,1.03,-1.00,0.66,0.67,
0.16,-0.13,0.20,1.03,-1.00,0.66,0.67,
0.163,-0.14,0.20,1.03,-1.00,0.66,0.67,
0.164,-0.14,0.20,1.03,-1.05,0.75,0.62,
0.165,-0.15,0.19,1.04,-1.05,0.75,0.62,
0.168,-0.15,0.19,1.03,-1.05,0.75,0.62,
0.168,-0.15,0.19,1.03,-1.14,0.68,0.61,
0.17,-0.15,0.19,1.03,-1.14,0.68,0.61,
0.172,-0.15,0.19,1.04,-1.14,0.68,0.61,
0.173,-0.15,0.19,1.04,-1.26,0.60,0.60,
0.175,-0.15,0.19,1.04,-1.26,0.60,0.60,
0.177,-0.15,0.19,1.04,-1.26,0.60,0.60,
0.178,-0.15,0.19,1.04,-1.25,0.56,0.66,
0.18,-0.15,0.19,1.04,-1.25,0.56,0.66,
0.182,-0.14,0.19,1.03,-1.25,0.56,0.66,
0.183,-0.14,0.19,1.03,-1.27,0.52,0.69,
0.185,-0.15,0.19,1.03,-1.27,0.52,0.69,
0.187,-0.15,0.19,1.03,-1.24,0.52,0.61,
0.188,-0.15,0.18,1.02,-1.24,0.52,0.61,
0.19,-0.16,0.18,1.02,-1.24,0.52,0.61,
0.192,-0.16,0.18,1.01,-1.24,0.52,0.61,
0.192,-0.16,0.18,1.01,-1.24,0.47,0.52,
0.195,-0.17,0.17,1.00,-1.24,0.47,0.52,
0.197,-0.18,0.17,1.00,-1.24,0.47,0.52,
0.197,-0.18,0.17,1.00,-1.35,0.44,0.44,
0.2,-0.19,0.17,0.99,-1.35,0.44,0.44,
0.202,-0.19,0.17,0.99,-1.35,0.44,0.44,
0.202,-0.19,0.17,0.99,-1.43,0.31,0.29,
0.204,-0.20,0.17,0.98,-1.43,0.31,0.29,
0.207,-0.20,0.18,0.98,-1.43,0.31,0.29,
0.207,-0.20,0.18,0.98,-1.61,0.31,0.19,
0.21,-0.20,0.18,0.98,-1.61,0.31,0.19,
0.213,-0.19,0.19,0.97,-1.61,0.31,0.19,
0.213,-0.19,0.19,0.97,-1.66,0.34,0.12,
0.215,-0.19,0.19,0.98,-1.66,0.34,0.12,
0.217,-0.18,0.20,0.97,-1.66,0.34,0.12,
0.217,-0.18,0.20,0.97,-1.64,0.46,0.03,
0.219,-0.18,0.20,0.98,-1.64,0.46,0.03,
0.222,-0.18,0.20,0.98,-1.64,0.46,0.03,
0.222,-0.18,0.20,0.98,-1.53,0.55,0.02,
0.224,-0.17,0.21,0.98,-1.53,0.55,0.02,
0.227,-0.16,0.21,0.98,-1.53,0.55,0.02,
0.227,-0.16,0.21,0.98,-1.51,0.62,0.04,
0.23,-0.16,0.20,1.00,-1.51,0.62,0.04,
0.232,-0.15,0.20,1.00,-1.51,0.62,0.04,
0.233,-0.15,0.20,1.00,-1.37,0.67,0.09,
0.234,-0.15,0.20,1.00,-1.37,0.67,0.09,
0.237,-0.14,0.20,1.02,-1.37,0.67,0.09,
0.237,-0.14,0.20,1.02,-1.27,0.63,0.26,
0.239,-0.14,0.19,1.02,-1.27,0.63,0.26,
0.242,-0.13,0.19,1.02,-1.27,0.63,0.26,
0.242,-0.13,0.19,1.02,-1.16,0.60,0.35,
0.244,-0.13,0.18,1.03,-1.16,0.60,0.35,
0.247,-0.13,0.18,1.03,-1.16,0.60,0.35,
0.247,-0.13,0.18,1.03,-1.08,0.53,0.45,
0.251,-0.13,0.17,1.03,-1.08,0.53,0.45,
0.252,-0.13,0.16,1.03,-1.08,0.53,0.45,
0.252,-0.13,0.16,1.03,-1.03,0.44,0.52,
0.254,-0.12,0.15,1.04,-1.03,0.44,0.52,
0.257,-0.13,0.15,1.05,-1.03,0.44,0.52,
0.257,-0.13,0.15,1.05,-1.03,0.32,0.57,
0.259,-0.13,0.14,1.06,-1.03,0.32,0.57,
0.262,-0.13,0.14,1.07,-1.03,0.32,0.57,
0.262,-0.13,0.14,1.07,-1.04,0.19,0.67,
0.264,-0.13,0.13,1.07,-1.04,0.19,0.67,
0.267,-0.13,0.13,1.07,-1.04,0.19,0.67,
0.267,-0.13,0.13,1.07,-1.10,0.10,0.84,
0.269,-0.12,0.13,1.08,-1.10,0.10,0.84,
0.271,-0.12,0.13,1.08,-1.10,0.10,0.84,
0.272,-0.12,0.13,1.08,-1.07,0.02,0.92,
0.274,-0.13,0.14,1.09,-1.07,0.02,0.92,
0.276,-0.12,0.14,1.08,-1.07,0.02,0.92,
0.277,-0.12,0.14,1.08,-1.04,0.06,1.00,
0.279,-0.13,0.14,1.08,-1.04,0.06,1.00,
0.283,-0.13,0.14,1.08,-1.06,0.14,1.07,
0.283,-0.12,0.16,1.09,-1.06,0.14,1.07,
0.285,-0.12,0.16,1.08,-1.06,0.14,1.07,
0.287,-0.13,0.16,1.08,-1.06,0.14,1.07,
0.287,-0.13,0.16,1.08,-1.07,0.27,1.00,
0.289,-0.13,0.17,1.08,-1.07,0.27,1.00,
0.291,-0.13,0.17,1.08,-1.07,0.27,1.00,
0.291,-0.13,0.17,1.08,-1.07,0.36,0.99,
0.294,-0.13,0.18,1.08,-1.07,0.36,0.99,
0.296,-0.12,0.18,1.07,-1.07,0.36,0.99,
0.297,-0.12,0.18,1.07,-1.10,0.47,0.97,
0.3,-0.13,0.19,1.06,-1.10,0.47,0.97,
0.302,-0.14,0.19,1.05,-1.10,0.47,0.97,
0.302,-0.14,0.19,1.05,-1.09,0.53,0.88,
0.304,-0.15,0.19,1.05,-1.09,0.53,0.88,
0.306,-0.15,0.18,1.04,-1.09,0.53,0.88,
0.307,-0.15,0.18,1.04,-1.19,0.58,0.75,
0.309,-0.16,0.18,1.03,-1.19,0.58,0.75,
0.312,-0.17,0.18,1.03,-1.19,0.58,0.75,
0.313,-0.17,0.18,1.03,-1.31,0.54,0.61,
0.315,-0.17,0.18,1.02,-1.31,0.54,0.61,
0.317,-0.18,0.18,1.00,-1.31,0.54,0.61,
0.317,-0.18,0.18,1.00,-1.45,0.50,0.47,
0.319,-0.18,0.18,0.99,-1.45,0.50,0.47,
0.321,-0.18,0.18,0.99,-1.53,0.44,0.25,
0.322,-0.18,0.17,0.99,-1.53,0.44,0.25,
0.324,-0.19,0.17,0.98,-1.53,0.44,0.25,
0.327,-0.19,0.17,0.97,-1.53,0.44,0.25,
0.327,-0.19,0.17,0.97,-1.58,0.40,0.05,
0.328,-0.20,0.17,0.97,-1.58,0.40,0.05,
0.331,-0.21,0.16,0.96,-1.58,0.40,0.05,
0.332,-0.21,0.16,0.96,-1.66,0.36,-0.08,
0.334,-0.21,0.16,0.95,-1.66,0.36,-0.08,
0.336,-0.22,0.15,0.94,-1.66,0.36,-0.08,
0.336,-0.22,0.15,0.94,-1.79,0.28,-0.21,
0.339,-0.23,0.14,0.94,-1.79,0.28,-0.21,
0.341,-0.23,0.14,0.94,-1.79,0.28,-0.21,
0.341,-0.23,0.14,0.94,-1.90,0.13,-0.36,
0.344,-0.24,0.13,0.93,-1.90,0.13,-0.36,
0.346,-0.24,0.12,0.93,-1.90,0.13,-0.36,
0.346,-0.24,0.12,0.93,-2.01,-0.03,-0.40,
0.349,-0.25,0.12,0.93,-2.01,-0.03,-0.40,
0.353,-0.25,0.11,0.92,-2.01,-0.03,-0.40,
0.354,-0.25,0.11,0.92,-2.09,-0.17,-0.48,
0.354,-0.25,0.10,0.92,-2.09,-0.17,-0.48,
0.356,-0.25,0.11,0.91,-2.09,-0.17,-0.48,
0.356,-0.25,0.11,0.91,-2.15,-0.25,-0.58,
0.359,-0.25,0.10,0.91,-2.15,-0.25,-0.58,
0.361,-0.25,0.11,0.91,-2.15,-0.25,-0.58,
0.361,-0.25,0.11,0.91,-2.16,-0.37,-0.64,
0.364,-0.24,0.11,0.90,-2.16,-0.37,-0.64,
0.368,-0.24,0.12,0.90,-2.16,-0.37,-0.64,
0.368,-0.24,0.12,0.90,-2.10,-0.38,-0.70,
0.368,-0.22,0.13,0.89,-2.10,-0.38,-0.70,
0.371,-0.20,0.14,0.89,-2.10,-0.38,-0.70,
0.371,-0.20,0.14,0.89,-2.04,-0.30,-0.74,
0.373,-0.20,0.14,0.88,-2.04,-0.30,-0.74,
0.376,-0.20,0.15,0.88,-2.04,-0.30,-0.74,
0.376,-0.20,0.15,0.88,-1.77,-0.11,-0.86,
0.379,-0.19,0.15,0.88,-1.77,-0.11,-0.86,
0.381,-0.18,0.15,0.88,-1.77,-0.11,-0.86,
0.381,-0.18,0.15,0.88,-1.64,-0.02,-0.94,
0.383,-0.18,0.17,0.87,-1.64,-0.02,-0.94,
0.386,-0.17,0.17,0.86,-1.64,-0.02,-0.94,
0.386,-0.17,0.17,0.86,-1.54,0.07,-0.98,
0.388,-0.17,0.18,0.86,-1.54,0.07,-0.98,
0.391,-0.17,0.19,0.86,-1.54,0.07,-0.98,
0.391,-0.17,0.19,0.86,-1.41,0.21,-1.08,
0.393,-0.17,0.19,0.85,-1.41,0.21,-1.08,
0.396,-0.18,0.19,0.84,-1.41,0.21,-1.08,
0.396,-0.18,0.19,0.84,-1.37,0.33,-1.17,
0.398,-0.18,0.19,0.84,-1.37,0.33,-1.17,
0.401,-0.18,0.19,0.84,-1.37,0.33,-1.17,
0.402,-0.18,0.19,0.84,-1.39,0.41,-1.27,
0.403,-0.19,0.19,0.83,-1.39,0.41,-1.27,
0.406,-0.19,0.19,0.83,-1.46,0.42,-1.34,
0.406,-0.20,0.19,0.83,-1.46,0.42,-1.34,
0.409,-0.21,0.18,0.82,-1.46,0.42,-1.34,
0.41,-0.21,0.17,0.82,-1.46,0.42,-1.34,
0.41,-0.21,0.17,0.82,-1.60,0.38,-1.41,
0.413,-0.22,0.18,0.82,-1.60,0.38,-1.41,
0.416,-0.22,0.17,0.83,-1.60,0.38,-1.41,
0.416,-0.22,0.17,0.83,-1.72,0.27,-1.50,
0.418,-0.23,0.17,0.81,-1.72,0.27,-1.50,
0.421,-0.23,0.17,0.81,-1.79,0.24,-1.44,
0.421,-0.23,0.17,0.81,-1.79,0.24,-1.44,
0.423,-0.23,0.16,0.81,-1.79,0.24,-1.44,
0.425,-0.24,0.15,0.81,-1.79,0.24,-1.44,
0.426,-0.24,0.15,0.81,-1.86,0.20,-1.58,
0.428,-0.24,0.15,0.81,-1.86,0.20,-1.58,
0.43,-0.24,0.14,0.81,-1.86,0.20,-1.58,
0.43,-0.24,0.14,0.81,-1.91,0.08,-1.57,
0.438,-0.24,0.13,0.81,-1.91,0.08,-1.57,
0.438,-0.24,0.13,0.81,-1.91,0.08,-1.57,
0.438,-0.24,0.13,0.81,-1.96,-0.05,-1.56,
0.439,-0.24,0.12,0.82,-1.96,-0.05,-1.56,
0.441,-0.23,0.12,0.83,-1.96,-0.05,-1.56,
0.442,-0.23,0.12,0.83,-1.94,-0.16,-1.56,
0.442,-0.22,0.12,0.82,-1.94,-0.16,-1.56,
0.444,-0.22,0.12,0.84,-1.94,-0.16,-1.56,
0.445,-0.22,0.12,0.84,-1.87,-0.25,-1.40,
0.447,-0.21,0.11,0.86,-1.87,-0.25,-1.40,
0.455,-0.19,0.12,0.87,-1.87,-0.25,-1.40,
0.455,-0.19,0.12,0.87,-1.72,-0.26,-1.30,
0.455,-0.18,0.13,0.88,-1.72,-0.26,-1.30,
0.456,-0.16,0.13,0.89,-1.72,-0.26,-1.30,
0.456,-0.16,0.13,0.89,-1.49,-0.24,-1.02,
0.457,-0.15,0.13,0.91,-1.49,-0.24,-1.02,
0.459,-0.14,0.14,0.92,-1.49,-0.24,-1.02,
0.46,-0.14,0.14,0.92,-1.21,-0.12,-0.78,
0.463,-0.12,0.15,0.92,-1.21,-0.12,-0.78,
0.464,-0.11,0.16,0.94,-1.21,-0.12,-0.78,
0.465,-0.11,0.16,0.94,-0.97,0.00,-0.53,
0.467,-0.10,0.17,0.95,-0.97,0.00,-0.53,
0.469,-0.09,0.17,0.96,-0.97,0.00,-0.53,
0.469,-0.09,0.17,0.96,-0.68,0.21,-0.35,
0.472,-0.09,0.18,0.97,-0.68,0.21,-0.35,
0.474,-0.08,0.18,0.97,-0.68,0.21,-0.35,
0.475,-0.08,0.18,0.97,-0.47,0.33,-0.11,
0.477,-0.07,0.18,0.98,-0.47,0.33,-0.11,
0.479,-0.07,0.18,0.98,-0.47,0.33,-0.11,
0.479,-0.07,0.18,0.98,-0.32,0.44,0.04,
0.484,-0.06,0.18,0.98,-0.32,0.44,0.04,
0.486,-0.06,0.18,0.98,-0.32,0.44,0.04,
0.487,-0.06,0.18,0.98,-0.22,0.49,0.12,
0.487,-0.05,0.16,0.98,-0.22,0.49,0.12,
0.489,-0.05,0.16,0.97,-0.22,0.49,0.12,
0.489,-0.05,0.16,0.97,-0.13,0.46,0.16,
0.492,-0.05,0.14,0.97,-0.13,0.46,0.16,
0.495,-0.05,0.13,0.96,-0.13,0.46,0.16,
0.495,-0.05,0.13,0.96,-0.06,0.30,0.10,
0.497,-0.05,0.12,0.96,-0.06,0.30,0.10,
0.499,-0.05,0.11,0.96,-0.06,0.30,0.10,
0.5,-0.05,0.11,0.96,-0.08,0.08,-0.01,
0.503,-0.05,0.09,0.95,-0.08,0.08,-0.01,
0.504,-0.05,0.08,0.95,-0.08,0.08,-0.01,
0.504,-0.05,0.08,0.95,-0.07,-0.18,-0.08,
0.507,-0.04,0.08,0.95,-0.07,-0.18,-0.08,
0.51,-0.05,0.07,0.95,-0.07,-0.18,-0.08,
0.51,-0.05,0.07,0.95,-0.04,-0.39,-0.19,
0.512,-0.04,0.06,0.94,-0.04,-0.39,-0.19,
0.514,-0.04,0.05,0.94,-0.04,-0.39,-0.19,
0.514,-0.04,0.05,0.94,-0.02,-0.54,-0.19,
0.519,-0.05,0.05,0.94,-0.02,-0.54,-0.19,
0.52,-0.04,0.03,0.94,-0.02,-0.54,-0.19,
0.52,-0.04,0.03,0.94,0.00,-0.73,-0.25,
0.522,-0.05,0.03,0.94,0.00,-0.73,-0.25,
0.524,-0.04,0.02,0.94,0.00,-0.73,-0.25,
0.525,-0.04,0.02,0.94,-0.02,-0.86,-0.28,
0.527,-0.04,0.02,0.94,-0.02,-0.86,-0.28,
0.529,-0.05,0.01,0.95,-0.02,-0.86,-0.28,
0.53,-0.05,0.01,0.95,-0.01,-1.00,-0.27,
0.532,-0.05,0.00,0.94,-0.01,-1.00,-0.27,
0.534,-0.05,-0.00,0.94,-0.01,-1.00,-0.27,
0.535,-0.05,-0.00,0.94,-0.01,-1.12,-0.21,
0.536,-0.05,0.00,0.95,-0.01,-1.12,-0.21,
0.539,-0.05,0.01,0.95,-0.01,-1.12,-0.21,
0.54,-0.05,0.01,0.95,-0.03,-1.24,-0.25,
0.542,-0.05,0.01,0.95,-0.03,-1.24,-0.25,
0.544,-0.05,0.01,0.95,-0.03,-1.24,-0.25,
0.544,-0.05,0.01,0.95,-0.04,-1.22,-0.19,
0.547,-0.05,0.02,0.96,-0.04,-1.22,-0.19,
0.549,-0.04,0.02,0.95,-0.04,-1.22,-0.19,
0.549,-0.04,0.02,0.95,0.03,-1.14,-0.16,
0.553,-0.04,0.02,0.95,0.03,-1.14,-0.16,
0.554,-0.04,0.03,0.95,0.03,-1.14,-0.16,
0.554,-0.04,0.03,0.95,0.10,-1.05,-0.11,
0.556,-0.04,0.03,0.95,0.10,-1.05,-0.11,
0.559,-0.03,0.04,0.95,0.10,-1.05,-0.11,
0.559,-0.03,0.04,0.95,0.16,-1.02,-0.12,
0.562,-0.02,0.05,0.94,0.16,-1.02,-0.12,
0.564,-0.01,0.06,0.95,0.16,-1.02,-0.12,
0.564,-0.01,0.06,0.95,0.26,-0.93,-0.16,
0.567,-0.01,0.07,0.94,0.26,-0.93,-0.16,
0.569,-0.00,0.08,0.93,0.26,-0.93,-0.16,
0.569,-0.00,0.08,0.93,0.42,-0.78,-0.19,
0.571,-0.00,0.09,0.93,0.42,-0.78,-0.19,
0.573,0.00,0.10,0.92,0.42,-0.78,-0.19,
0.573,0.00,0.10,0.92,0.54,-0.58,-0.29,
0.576,0.00,0.11,0.91,0.54,-0.58,-0.29,
0.579,0.00,0.11,0.90,0.54,-0.58,-0.29,
0.579,0.00,0.11,0.90,0.62,-0.38,-0.39,
0.581,0.01,0.12,0.90,0.62,-0.38,-0.39,
0.585,0.01,0.12,0.89,0.62,-0.38,-0.39,
0.585,0.01,0.12,0.89,0.66,-0.24,-0.57,
0.586,0.00,0.13,0.88,0.66,-0.24,-0.57,
0.588,0.01,0.13,0.87,0.66,-0.24,-0.57,
0.589,0.01,0.13,0.87,0.71,-0.15,-0.67,
0.591,0.01,0.13,0.87,0.71,-0.15,-0.67,
0.594,0.00,0.13,0.86,0.71,-0.15,-0.67,
0.594,0.00,0.13,0.86,0.67,-0.07,-0.84,
0.596,-0.00,0.12,0.85,0.67,-0.07,-0.84,
0.599,-0.01,0.12,0.85,0.67,-0.07,-0.84,
0.599,-0.01,0.12,0.85,0.69,-0.08,-0.97,
0.601,-0.01,0.11,0.86,0.69,-0.08,-0.97,
0.603,-0.01,0.11,0.86,0.69,-0.08,-0.97,
0.604,-0.01,0.11,0.86,0.59,-0.17,-1.08,
0.606,-0.01,0.12,0.86,0.59,-0.17,-1.08,
0.609,-0.01,0.11,0.87,0.59,-0.17,-1.08,
0.609,-0.01,0.11,0.87,0.51,-0.27,-1.00,
0.611,-0.02,0.10,0.87,0.51,-0.27,-1.00,
0.614,-0.03,0.09,0.88,0.51,-0.27,-1.00,
0.614,-0.03,0.09,0.88,0.48,-0.30,-0.94,
0.616,-0.02,0.09,0.90,0.48,-0.30,-0.94,
0.619,-0.02,0.08,0.91,0.48,-0.30,-0.94,
0.619,-0.02,0.08,0.91,0.39,-0.43,-0.79,
0.62,-0.03,0.07,0.93,0.39,-0.43,-0.79,
0.623,-0.03,0.07,0.94,0.39,-0.43,-0.79,
0.624,-0.03,0.07,0.94,0.38,-0.54,-0.55,
0.626,-0.03,0.06,0.95,0.38,-0.54,-0.55,
0.628,-0.03,0.05,0.96,0.38,-0.54,-0.55,
0.629,-0.03,0.05,0.96,0.32,-0.62,-0.28,
0.631,-0.02,0.04,0.97,0.32,-0.62,-0.28,
0.634,-0.03,0.04,0.98,0.32,-0.62,-0.28,
0.634,-0.03,0.04,0.98,0.30,-0.76,-0.06,
0.636,-0.02,0.03,0.99,0.30,-0.76,-0.06,
0.638,-0.02,0.02,0.99,0.30,-0.76,-0.06,
0.639,-0.02,0.02,0.99,0.32,-0.89,0.15,
0.64,-0.02,0.01,1.00,0.32,-0.89,0.15,
0.643,-0.02,0.01,1.01,0.32,-0.89,0.15,
0.643,-0.02,0.01,1.01,0.34,-1.05,0.28,
0.645,-0.02,0.01,1.02,0.34,-1.05,0.28,
0.647,-0.01,0.00,1.01,0.34,-1.05,0.28,
0.648,-0.01,0.00,1.01,0.38,-1.15,0.43,
0.656,0.00,-0.00,1.01,0.38,-1.15,0.43,
0.657,0.01,0.00,1.00,0.38,-1.15,0.43,
0.657,0.01,0.00,1.00,0.45,-1.20,0.52,
0.657,0.01,0.01,1.00,0.45,-1.20,0.52,
0.657,0.01,0.01,1.00,0.45,-1.20,0.52,
0.659,0.01,0.01,1.00,0.62,-1.25,0.45,
0.661,0.02,0.01,0.99,0.62,-1.25,0.45,
0.662,0.02,0.01,0.98,0.62,-1.25,0.45,
0.663,0.02,0.01,0.98,0.67,-1.19,0.40,
0.665,0.03,0.02,0.98,0.67,-1.19,0.40,
0.668,0.03,0.03,0.98,0.67,-1.19,0.40,
0.669,0.03,0.03,0.98,0.80,-1.15,0.24,
0.67,0.05,0.03,0.96,0.80,-1.15,0.24,
0.672,0.05,0.04,0.95,0.80,-1.15,0.24,
0.672,0.05,0.04,0.95,0.92,-1.05,0.16,
0.675,0.05,0.04,0.94,0.92,-1.05,0.16,
0.677,0.05,0.04,0.94,1.07,-0.93,-0.07,
0.677,0.06,0.05,0.93,1.07,-0.93,-0.07,
0.68,0.06,0.05,0.93,1.07,-0.93,-0.07,
0.683,0.07,0.06,0.91,1.07,-0.93,-0.07,
0.683,0.07,0.06,0.91,1.14,-0.84,-0.25,
0.686,0.07,0.06,0.90,1.14,-0.84,-0.25,
0.687,0.07,0.05,0.89,1.14,-0.84,-0.25,
0.687,0.07,0.05,0.89,1.25,-0.80,-0.40,
0.69,0.07,0.06,0.88,1.25,-0.80,-0.40,
0.692,0.07,0.07,0.87,1.25,-0.80,-0.40,
0.692,0.07,0.07,0.87,1.31,-0.82,-0.64,
0.695,0.08,0.07,0.87,1.31,-0.82,-0.64,
0.697,0.08,0.07,0.85,1.31,-0.82,-0.64,
0.697,0.08,0.07,0.85,1.35,-0.77,-0.83,
0.699,0.09,0.07,0.84,1.35,-0.77,-0.83,
0.703,0.08,0.08,0.83,1.35,-0.77,-0.83,
0.704,0.08,0.08,0.83,1.47,-0.75,-0.95,
0.704,0.09,0.08,0.82,1.47,-0.75,-0.95,
0.707,0.09,0.08,0.82,1.47,-0.75,-0.95,
0.707,0.09,0.08,0.82,1.56,-0.72,-1.16,
0.709,0.10,0.08,0.81,1.56,-0.72,-1.16,
0.712,0.10,0.08,0.80,1.56,-0.72,-1.16,
0.712,0.10,0.08,0.80,1.64,-0.72,-1.30,
0.714,0.10,0.08,0.80,1.64,-0.72,-1.30,
0.717,0.10,0.08,0.79,1.64,-0.72,-1.30,
0.719,0.10,0.08,0.79,1.74,-0.75,-1.45,
0.72,0.10,0.08,0.78,1.74,-0.75,-1.45,
0.722,0.10,0.09,0.78,1.74,-0.75,-1.45,
0.723,0.10,0.09,0.78,1.82,-0.73,-1.56,
0.724,0.10,0.09,0.78,1.82,-0.73,-1.56,
0.727,0.10,0.09,0.78,1.85,-0.74,-1.66,
0.727,0.10,0.09,0.76,1.85,-0.74,-1.66,
0.729,0.10,0.08,0.77,1.85,-0.74,-1.66,
0.732,0.10,0.08,0.76,1.85,-0.74,-1.66,
0.732,0.10,0.08,0.76,1.88,-0.74,-1.74,
0.735,0.10,0.07,0.76,1.88,-0.74,-1.74,
0.737,0.09,0.07,0.76,1.88,-0.74,-1.74,
0.737,0.09,0.07,0.76,1.85,-0.80,-1.79,
0.739,0.10,0.07,0.75,1.85,-0.80,-1.79,
0.741,0.10,0.08,0.75,1.85,-0.80,-1.79,
0.742,0.10,0.08,0.75,1.83,-0.92,-1.83,
0.744,0.10,0.07,0.75,1.83,-0.92,-1.83,
0.747,0.10,0.08,0.75,1.83,-0.92,-1.83,
0.748,0.10,0.08,0.75,1.86,-0.91,-1.89,
0.749,0.10,0.08,0.75,1.86,-0.91,-1.89,
0.756,0.11,0.08,0.75,1.86,-0.91,-1.89,
0.756,0.11,0.08,0.75,1.90,-0.89,-1.90,
0.757,0.12,0.09,0.75,1.90,-0.89,-1.90,
0.757,0.13,0.10,0.75,1.90,-0.89,-1.90,
0.764,0.13,0.10,0.75,1.98,-0.83,-1.89,
0.764,0.13,0.10,0.75,1.98,-0.83,-1.89,
0.765,0.14,0.10,0.76,1.98,-0.83,-1.89,
0.765,0.14,0.10,0.76,2.11,-0.71,-1.85,
0.765,0.15,0.10,0.77,2.11,-0.71,-1.85,
0.766,0.15,0.11,0.77,2.11,-0.71,-1.85,
0.766,0.15,0.11,0.77,2.25,-0.65,-1.78,
0.77,0.16,0.11,0.78,2.25,-0.65,-1.78,
0.771,0.17,0.12,0.78,2.25,-0.65,-1.78,
0.771,0.17,0.12,0.78,2.35,-0.61,-1.69,
0.774,0.19,0.12,0.79,2.35,-0.61,-1.69,
0.776,0.20,0.13,0.80,2.35,-0.61,-1.69,
0.777,0.20,0.13,0.80,2.50,-0.45,-1.56,
0.779,0.22,0.13,0.79,2.50,-0.45,-1.56,
0.781,0.22,0.13,0.80,2.50,-0.45,-1.56,
0.782,0.22,0.13,0.80,2.78,-0.38,-1.41,
0.787,0.23,0.13,0.80,2.78,-0.38,-1.41,
0.787,0.24,0.13,0.81,2.78,-0.38,-1.41,
0.787,0.24,0.13,0.81,2.99,-0.34,-1.39,
0.789,0.24,0.13,0.81,2.99,-0.34,-1.39,
0.791,0.24,0.13,0.81,2.99,-0.34,-1.39,
0.791,0.24,0.13,0.81,3.14,-0.32,-1.33,
0.795,0.25,0.13,0.82,3.14,-0.32,-1.33,
0.796,0.24,0.13,0.82,3.14,-0.32,-1.33,
0.796,0.24,0.13,0.82,3.21,-0.28,-1.22,
0.799,0.23,0.13,0.83,3.21,-0.28,-1.22,
0.804,0.23,0.13,0.83,3.22,-0.27,-1.14,
0.804,0.23,0.13,0.83,3.22,-0.27,-1.14,
0.804,0.22,0.13,0.83,3.22,-0.27,-1.14,
0.808,0.21,0.13,0.83,3.22,-0.27,-1.14,
0.808,0.21,0.13,0.83,3.11,-0.26,-1.07,
0.808,0.20,0.13,0.84,3.11,-0.26,-1.07,
0.811,0.20,0.12,0.84,3.11,-0.26,-1.07,
0.811,0.20,0.12,0.84,2.96,-0.24,-1.01,
0.814,0.18,0.13,0.85,2.96,-0.24,-1.01,
0.817,0.18,0.12,0.85,2.96,-0.24,-1.01,
0.817,0.18,0.12,0.85,2.79,-0.27,-0.92,
0.82,0.17,0.12,0.86,2.79,-0.27,-0.92,
0.822,0.16,0.11,0.86,2.79,-0.27,-0.92,
0.822,0.16,0.11,0.86,2.61,-0.31,-0.81,
0.825,0.15,0.10,0.86,2.61,-0.31,-0.81,
0.826,0.14,0.10,0.87,2.61,-0.31,-0.81,
0.826,0.14,0.10,0.87,2.47,-0.39,-0.76,
0.828,0.15,0.09,0.86,2.47,-0.39,-0.76,
0.831,0.14,0.09,0.86,2.47,-0.39,-0.76,
0.831,0.14,0.09,0.86,2.32,-0.54,-0.68,
0.834,0.14,0.08,0.86,2.32,-0.54,-0.68,
0.836,0.13,0.07,0.87,2.32,-0.54,-0.68,
0.837,0.13,0.07,0.87,2.29,-0.61,-0.70,
0.84,0.14,0.06,0.86,2.29,-0.61,-0.70,
0.841,0.14,0.06,0.87,2.29,-0.61,-0.70,
0.841,0.14,0.06,0.87,2.21,-0.74,-0.68,
0.844,0.15,0.05,0.87,2.21,-0.74,-0.68,
0.846,0.15,0.04,0.88,2.21,-0.74,-0.68,
0.846,0.15,0.04,0.88,2.26,-0.84,-0.68,
0.848,0.15,0.04,0.88,2.26,-0.84,-0.68,
0.851,0.15,0.03,0.88,2.26,-0.84,-0.68,
0.851,0.15,0.03,0.88,2.31,-0.95,-0.58,
0.861,0.16,0.03,0.88,2.31,-0.95,-0.58,
0.862,0.17,0.03,0.88,2.31,-0.95,-0.58,
0.862,0.17,0.03,0.88,2.37,-1.02,-0.53,
0.862,0.17,0.02,0.88,2.37,-1.02,-0.53,
0.863,0.19,0.01,0.87,2.37,-1.02,-0.53,
0.863,0.19,0.01,0.87,2.49,-1.11,-0.56,
0.863,0.19,0.00,0.87,2.49,-1.11,-0.56,
0.865,0.19,0.00,0.88,2.49,-1.11,-0.56,
0.866,0.19,0.00,0.88,2.62,-1.21,-0.55,
0.868,0.19,-0.00,0.88,2.62,-1.21,-0.55,
0.871,0.20,-0.01,0.88,2.62,-1.21,-0.55,
0.871,0.20,-0.01,0.88,2.68,-1.31,-0.58,
0.873,0.21,-0.01,0.89,2.68,-1.31,-0.58,
0.876,0.21,-0.01,0.89,2.76,-1.35,-0.53,
0.876,0.21,-0.01,0.89,2.76,-1.35,-0.53,
0.878,0.22,-0.00,0.89,2.76,-1.35,-0.53,
0.881,0.22,-0.00,0.90,2.76,-1.35,-0.53,
0.881,0.22,-0.00,0.90,2.89,-1.37,-0.44,
0.883,0.23,0.00,0.90,2.89,-1.37,-0.44,
0.885,0.23,0.01,0.90,2.89,-1.37,-0.44,
0.886,0.23,0.01,0.90,3.02,-1.31,-0.37,
0.888,0.23,0.01,0.90,3.02,-1.31,-0.37,
0.89,0.23,0.02,0.91,3.02,-1.31,-0.37,
0.89,0.23,0.02,0.91,3.12,-1.19,-0.33,
0.893,0.24,0.03,0.92,3.12,-1.19,-0.33,
0.896,0.24,0.03,0.92,3.17,-1.10,-0.24,
0.896,0.24,0.03,0.92,3.17,-1.10,-0.24,
0.898,0.25,0.03,0.93,3.17,-1.10,-0.24,
0.901,0.26,0.04,0.93,3.17,-1.10,-0.24,
0.901,0.26,0.04,0.93,3.26,-0.94,-0.13,
0.903,0.25,0.04,0.93,3.26,-0.94,-0.13,
0.906,0.25,0.04,0.95,3.26,-0.94,-0.13,
0.906,0.25,0.04,0.95,3.37,-0.84,-0.01,
0.908,0.25,0.04,0.96,3.37,-0.84,-0.01,
0.91,0.25,0.03,0.96,3.37,-0.84,-0.01,
0.91,0.25,0.03,0.96,3.37,-0.77,0.07,
0.913,0.25,0.03,0.97,3.37,-0.77,0.07,
0.915,0.25,0.02,0.97,3.37,-0.77,0.07,
0.915,0.25,0.02,0.97,3.38,-0.80,0.26,
0.918,0.25,0.02,0.97,3.38,-0.80,0.26,
0.92,0.24,0.01,0.98,3.38,-0.80,0.26,
0.92,0.24,0.01,0.98,3.36,-0.88,0.33,
0.922,0.24,-0.00,0.98,3.36,-0.88,0.33,
0.926,0.24,-0.00,0.98,3.30,-0.97,0.37,
0.926,0.25,-0.01,0.99,3.30,-0.97,0.37,
0.928,0.25,-0.02,1.00,3.30,-0.97,0.37,
0.93,0.26,-0.02,1.00,3.30,-0.97,0.37,
0.931,0.26,-0.02,1.00,3.33,-1.12,0.48,
0.933,0.26,-0.03,1.00,3.33,-1.12,0.48,
0.937,0.27,-0.02,1.01,3.33,-1.12,0.48,
0.937,0.27,-0.02,1.01,3.38,-1.22,0.63,
0.938,0.28,-0.03,1.01,3.38,-1.22,0.63,
0.94,0.29,-0.03,1.02,3.38,-1.22,0.63,
0.941,0.29,-0.03,1.02,3.49,-1.24,0.68,
0.943,0.29,-0.03,1.02,3.49,-1.24,0.68,
0.945,0.30,-0.03,1.03,3.49,-1.24,0.68,
0.946,0.30,-0.03,1.03,3.65,-1.25,0.78,
0.948,0.31,-0.03,1.03,3.65,-1.25,0.78,
0.95,0.32,-0.03,1.03,3.65,-1.25,0.78,
0.95,0.32,-0.03,1.03,3.75,-1.19,0.85,
0.957,0.33,-0.03,1.04,3.75,-1.19,0.85,
0.957,0.34,-0.03,1.05,3.75,-1.19,0.85,
0.958,0.34,-0.03,1.05,3.94,-1.17,0.92,
0.958,0.35,-0.02,1.05,3.94,-1.17,0.92,
0.96,0.35,-0.02,1.05,4.11,-1.09,1.00,
0.96,0.36,-0.02,1.05,4.11,-1.09,1.00,
0.963,0.37,-0.02,1.05,4.11,-1.09,1.00,
0.965,0.37,-0.02,1.06,4.11,-1.09,1.00,
0.965,0.37,-0.02,1.06,4.26,-0.98,1.10,
0.967,0.37,-0.02,1.07,4.26,-0.98,1.10,
0.971,0.38,-0.02,1.07,4.26,-0.98,1.10,
0.971,0.38,-0.02,1.07,4.39,-0.89,1.16,
0.972,0.38,-0.01,1.08,4.39,-0.89,1.16,
0.974,0.39,-0.01,1.09,4.39,-0.89,1.16,
0.975,0.39,-0.01,1.09,4.48,-0.84,1.28,
0.978,0.39,-0.01,1.10,4.48,-0.84,1.28,
0.979,0.39,-0.01,1.10,4.58,-0.75,1.43,
0.979,0.39,-0.01,1.11,4.58,-0.75,1.43,
0.982,0.39,-0.01,1.12,4.58,-0.75,1.43,
0.984,0.39,-0.01,1.12,4.58,-0.75,1.43,
0.984,0.39,-0.01,1.12,4.58,-0.66,1.60,
0.987,0.39,-0.00,1.13,4.58,-0.66,1.60,
0.989,0.38,-0.01,1.13,4.58,-0.66,1.60,
0.99,0.38,-0.01,1.13,4.55,-0.61,1.72,
0.992,0.37,-0.01,1.14,4.55,-0.61,1.72,
0.994,0.36,-0.01,1.14,4.55,-0.61,1.72,
0.994,0.36,-0.01,1.14,4.52,-0.55,1.81,
0.997,0.36,-0.01,1.15,4.52,-0.55,1.81,
0.999,0.35,-0.01,1.16,4.52,-0.55,1.81,
0.999,0.35,-0.01,1.16,4.34,-0.53,1.91,
1.002,0.33,-0.02,1.16,4.34,-0.53,1.91,
1.004,0.32,-0.03,1.17,4.34,-0.53,1.91,
1.004,0.32,-0.03,1.17,4.15,-0.53,2.02,
1.006,0.32,-0.03,1.17,4.15,-0.53,2.02,
1.009,0.31,-0.04,1.18,4.15,-0.53,2.02,
1.009,0.31,-0.04,1.18,3.91,-0.59,2.12,
1.011,0.30,-0.05,1.18,3.91,-0.59,2.12,
1.014,0.29,-0.05,1.19,3.91,-0.59,2.12,
1.014,0.29,-0.05,1.19,3.73,-0.65,2.21,
1.016,0.29,-0.06,1.19,3.73,-0.65,2.21,
1.02,0.28,-0.06,1.21,3.73,-0.65,2.21,
1.021,0.28,-0.06,1.21,3.53,-0.71,2.31,
1.021,0.28,-0.07,1.20,3.53,-0.71,2.31,
1.024,0.28,-0.07,1.21,3.53,-0.71,2.31,
1.024,0.28,-0.07,1.21,3.36,-0.76,2.43,
1.026,0.29,-0.07,1.22,3.36,-0.76,2.43,
1.029,0.30,-0.06,1.23,3.36,-0.76,2.43,
1.029,0.30,-0.06,1.23,3.31,-0.79,2.48,
1.031,0.30,-0.06,1.24,3.31,-0.79,2.48,
1.034,0.32,-0.07,1.25,3.31,-0.79,2.48,
1.034,0.32,-0.07,1.25,3.40,-0.71,2.62,
1.037,0.33,-0.07,1.26,3.40,-0.71,2.62,
1.038,0.34,-0.06,1.26,3.40,-0.71,2.62,
1.039,0.34,-0.06,1.26,3.54,-0.66,2.83,
1.041,0.35,-0.06,1.28,3.54,-0.66,2.83,
1.044,0.37,-0.06,1.28,3.54,-0.66,2.83,
1.044,0.37,-0.06,1.28,3.73,-0.60,2.99,
1.046,0.37,-0.06,1.28,3.73,-0.60,2.99,
1.049,0.38,-0.06,1.29,3.73,-0.60,2.99,
1.05,0.38,-0.06,1.29,3.96,-0.49,3.15,
1.051,0.38,-0.06,1.29,3.96,-0.49,3.15,
1.058,0.39,-0.06,1.29,3.96,-0.49,3.15,
1.059,0.39,-0.06,1.29,4.07,-0.46,3.20,
1.059,0.38,-0.07,1.29,4.07,-0.46,3.20,
1.059,0.39,-0.07,1.29,4.07,-0.46,3.20,
1.059,0.39,-0.07,1.29,4.15,-0.42,3.26,
1.061,0.39,-0.07,1.29,4.15,-0.42,3.26,
1.063,0.38,-0.08,1.29,4.15,-0.42,3.26,
1.064,0.38,-0.08,1.29,4.12,-0.46,3.23,
1.066,0.38,-0.08,1.29,4.12,-0.46,3.23,
1.068,0.38,-0.08,1.28,4.12,-0.46,3.23,
1.068,0.38,-0.08,1.28,4.09,-0.47,3.20,
1.072,0.37,-0.08,1.27,4.09,-0.47,3.20,
1.073,0.37,-0.08,1.27,4.01,-0.49,3.15,
1.074,0.37,-0.08,1.27,4.01,-0.49,3.15,
1.076,0.36,-0.09,1.26,4.01,-0.49,3.15,
1.078,0.35,-0.09,1.25,4.01,-0.49,3.15,
1.078,0.35,-0.09,1.25,3.89,-0.51,3.02,
1.081,0.34,-0.08,1.24,3.89,-0.51,3.02,
1.084,0.33,-0.09,1.23,3.89,-0.51,3.02,
1.084,0.33,-0.09,1.23,3.71,-0.52,2.88,
1.088,0.33,-0.09,1.23,3.71,-0.52,2.88,
1.089,0.33,-0.09,1.23,3.53,-0.48,2.67,
1.089,0.31,-0.09,1.22,3.53,-0.48,2.67,
1.091,0.30,-0.09,1.21,3.53,-0.48,2.67,
1.093,0.30,-0.09,1.19,3.53,-0.48,2.67,
1.094,0.30,-0.09,1.19,3.33,-0.51,2.51,
1.096,0.29,-0.08,1.19,3.33,-0.51,2.51,
1.098,0.29,-0.08,1.19,3.13,-0.45,2.30,
1.098,0.27,-0.08,1.18,3.13,-0.45,2.30,
1.101,0.26,-0.08,1.17,3.13,-0.45,2.30,
1.103,0.25,-0.08,1.16,3.13,-0.45,2.30,
1.103,0.25,-0.08,1.16,2.92,-0.41,2.11,
1.106,0.24,-0.08,1.15,2.92,-0.41,2.11,
1.109,0.24,-0.07,1.15,2.92,-0.41,2.11,
1.109,0.24,-0.07,1.15,2.69,-0.34,1.95,
1.111,0.23,-0.08,1.14,2.69,-0.34,1.95,
1.113,0.23,-0.08,1.14,2.47,-0.31,1.78,
1.113,0.22,-0.07,1.13,2.47,-0.31,1.78,
1.115,0.20,-0.07,1.12,2.47,-0.31,1.78,
1.118,0.19,-0.08,1.12,2.47,-0.31,1.78,
1.118,0.19,-0.08,1.12,2.29,-0.28,1.62,
1.121,0.18,-0.08,1.11,2.29,-0.28,1.62,
1.123,0.18,-0.08,1.10,2.29,-0.28,1.62,
1.124,0.18,-0.08,1.10,2.02,-0.27,1.49,
1.125,0.17,-0.07,1.10,2.02,-0.27,1.49,
1.128,0.16,-0.07,1.10,2.02,-0.27,1.49,
1.128,0.16,-0.07,1.10,1.86,-0.27,1.35,
1.13,0.16,-0.07,1.09,1.86,-0.27,1.35,
1.133,0.16,-0.07,1.09,1.86,-0.27,1.35,
1.133,0.16,-0.07,1.09,1.68,-0.20,1.28,
1.135,0.15,-0.07,1.09,1.68,-0.20,1.28,
1.142,0.15,-0.07,1.08,1.68,-0.20,1.28,
1.142,0.15,-0.07,1.08,1.59,-0.15,1.18,
1.143,0.14,-0.07,1.08,1.59,-0.15,1.18,
1.143,0.14,-0.07,1.08,1.59,-0.15,1.18,
1.144,0.14,-0.07,1.08,1.46,-0.14,1.13,
1.145,0.13,-0.07,1.08,1.46,-0.14,1.13,
1.147,0.14,-0.07,1.08,1.46,-0.14,1.13,
1.148,0.14,-0.07,1.08,1.33,-0.13,1.08,
1.15,0.13,-0.07,1.09,1.33,-0.13,1.08,
1.153,0.13,-0.07,1.09,1.33,-0.13,1.08,
1.155,0.13,-0.07,1.09,1.29,-0.13,1.11,
1.158,0.13,-0.08,1.10,1.29,-0.13,1.11,
1.159,0.13,-0.08,1.11,1.29,-0.13,1.11,
1.159,0.13,-0.08,1.11,1.24,-0.12,1.20,
1.16,0.13,-0.07,1.11,1.24,-0.12,1.20,
1.163,0.13,-0.07,1.11,1.22,-0.10,1.30,
1.163,0.13,-0.07,1.12,1.22,-0.10,1.30,
1.165,0.14,-0.06,1.12,1.22,-0.10,1.30,
1.168,0.13,-0.06,1.12,1.22,-0.10,1.30,
1.168,0.13,-0.06,1.12,1.20,-0.01,1.40,
1.173,0.13,-0.06,1.12,1.20,-0.01,1.40,
1.173,0.13,-0.06,1.13,1.20,-0.01,1.40,
1.174,0.13,-0.06,1.13,1.18,0.09,1.47,
1.176,0.13,-0.05,1.14,1.18,0.09,1.47,
1.182,0.13,-0.05,1.14,1.18,0.09,1.47,
1.182,0.13,-0.05,1.14,1.14,0.16,1.52,
1.182,0.12,-0.05,1.14,1.14,0.16,1.52,
1.183,0.11,-0.05,1.15,1.14,0.16,1.52,
1.183,0.11,-0.05,1.15,1.08,0.22,1.62,
1.186,0.10,-0.05,1.15,1.08,0.22,1.62,
1.188,0.09,-0.05,1.15,1.08,0.22,1.62,
1.189,0.09,-0.05,1.15,0.95,0.28,1.70,
1.19,0.08,-0.05,1.15,0.95,0.28,1.70,
1.193,0.07,-0.06,1.15,0.95,0.28,1.70,
1.193,0.07,-0.06,1.15,0.71,0.27,1.74,
1.196,0.06,-0.06,1.15,0.71,0.27,1.74,
1.198,0.05,-0.06,1.15,0.71,0.27,1.74,
1.198,0.05,-0.06,1.15,0.50,0.27,1.74,
1.2,0.04,-0.06,1.15,0.50,0.27,1.74,
1.203,0.03,-0.06,1.14,0.50,0.27,1.74,
1.203,0.03,-0.06,1.14,0.24,0.22,1.76,
1.205,0.03,-0.06,1.14,0.24,0.22,1.76,
1.207,0.02,-0.06,1.14,0.24,0.22,1.76,
1.207,0.02,-0.06,1.14,0.03,0.21,1.70,
1.21,0.02,-0.06,1.14,0.03,0.21,1.70,
1.213,0.02,-0.06,1.14,-0.12,0.23,1.62,
1.213,0.02,-0.07,1.13,-0.12,0.23,1.62,
1.215,0.02,-0.06,1.12,-0.12,0.23,1.62,
1.218,0.02,-0.07,1.11,-0.12,0.23,1.62,
1.218,0.02,-0.07,1.11,-0.23,0.22,1.56,
1.22,0.02,-0.08,1.09,-0.23,0.22,1.56,
1.222,0.02,-0.09,1.09,-0.23,0.22,1.56,
1.223,0.02,-0.09,1.09,-0.27,0.17,1.36,
1.225,0.02,-0.09,1.07,-0.27,0.17,1.36,
1.228,0.02,-0.09,1.05,-0.27,0.17,1.36,
1.228,0.02,-0.09,1.05,-0.30,0.05,1.14,
1.23,0.03,-0.10,1.04,-0.30,0.05,1.14,
1.232,0.03,-0.10,1.04,-0.30,0.05,1.14,
1.233,0.03,-0.10,1.04,-0.32,-0.05,0.85,
1.235,0.04,-0.11,1.02,-0.32,-0.05,0.85,
1.239,0.04,-0.11,1.02,-0.27,-0.14,0.65,
1.24,0.05,-0.10,1.01,-0.27,-0.14,0.65,
1.24,0.06,-0.10,1.00,-0.27,-0.14,0.65,
1.242,0.07,-0.10,1.00,-0.27,-0.14,0.65,
1.242,0.07,-0.10,1.00,-0.14,-0.18,0.39,
1.245,0.08,-0.09,0.99,-0.14,-0.18,0.39,
1.247,0.09,-0.09,0.98,-0.14,-0.18,0.39,
1.248,0.09,-0.09,0.98,-0.00,-0.13,0.25,
1.25,0.10,-0.08,0.98,-0.00,-0.13,0.25,
1.252,0.11,-0.07,0.98,-0.00,-0.13,0.25,
1.252,0.11,-0.07,0.98,0.19,-0.05,0.12,
1.259,0.12,-0.06,0.99,0.19,-0.05,0.12,
1.259,0.13,-0.05,0.99,0.19,-0.05,0.12,
1.26,0.13,-0.05,0.99,0.39,0.11,0.07,
1.26,0.13,-0.05,0.99,0.39,0.11,0.07,
1.261,0.13,-0.05,0.99,0.39,0.11,0.07,
1.262,0.13,-0.05,0.99,0.57,0.25,0.12,
1.264,0.13,-0.05,1.00,0.57,0.25,0.12,
1.267,0.13,-0.05,1.00,0.57,0.25,0.12,
1.267,0.13,-0.05,1.00,0.64,0.29,0.19,
1.27,0.13,-0.06,1.01,0.64,0.29,0.19,
1.272,0.12,-0.06,1.02,0.64,0.29,0.19,
1.272,0.12,-0.06,1.02,0.60,0.28,0.26,
1.274,0.11,-0.06,1.02,0.60,0.28,0.26,
1.277,0.10,-0.07,1.02,0.60,0.28,0.26,
1.277,0.10,-0.07,1.02,0.50,0.21,0.41,
1.28,0.10,-0.07,1.03,0.50,0.21,0.41,
1.282,0.09,-0.08,1.03,0.50,0.21,0.41,
1.282,0.09,-0.08,1.03,0.35,0.15,0.46,
1.284,0.08,-0.08,1.04,0.35,0.15,0.46,
1.287,0.08,-0.08,1.04,0.24,0.05,0.54,
1.287,0.07,-0.08,1.04,0.24,0.05,0.54,
1.289,0.06,-0.08,1.04,0.24,0.05,0.54,
1.291,0.06,-0.09,1.05,0.24,0.05,0.54,
1.292,0.06,-0.09,1.05,0.07,-0.04,0.62,
1.294,0.05,-0.09,1.04,0.07,-0.04,0.62,
1.296,0.04,-0.10,1.03,0.07,-0.04,0.62,
1.296,0.04,-0.10,1.03,-0.11,-0.08,0.68,
1.299,0.03,-0.10,1.03,-0.11,-0.08,0.68,
1.301,0.02,-0.10,1.03,-0.11,-0.08,0.68,
1.301,0.02,-0.10,1.03,-0.25,-0.16,0.59,
1.305,0.01,-0.10,1.02,-0.25,-0.16,0.59,
1.307,0.00,-0.11,1.01,-0.25,-0.16,0.59,
1.307,0.00,-0.11,1.01,-0.45,-0.21,0.53,
1.309,-0.02,-0.11,1.00,-0.45,-0.21,0.53,
1.311,-0.03,-0.12,1.00,-0.45,-0.21,0.53,
1.311,-0.03,-0.12,1.00,-0.68,-0.28,0.38,
1.313,-0.04,-0.12,0.99,-0.68,-0.28,0.38,
1.316,-0.06,-0.12,0.98,-0.68,-0.28,0.38,
1.316,-0.06,-0.12,0.98,-1.02,-0.40,0.24,
1.318,-0.05,-0.12,0.96,-1.02,-0.40,0.24,
1.323,-0.06,-0.12,0.95,-1.02,-0.40,0.24,
1.324,-0.06,-0.12,0.95,-1.28,-0.48,0.07,
1.324,-0.06,-0.12,0.94,-1.28,-0.48,0.07,
1.326,-0.05,-0.11,0.94,-1.28,-0.48,0.07,
1.326,-0.05,-0.11,0.94,-1.39,-0.50,-0.18,
1.329,-0.05,-0.11,0.93,-1.39,-0.50,-0.18,
1.331,-0.04,-0.10,0.93,-1.39,-0.50,-0.18,
1.331,-0.04,-0.10,0.93,-1.39,-0.46,-0.34,
1.335,-0.03,-0.09,0.92,-1.39,-0.46,-0.34,
1.336,-0.02,-0.09,0.92,-1.39,-0.46,-0.34,
1.336,-0.02,-0.09,0.92,-1.31,-0.38,-0.39,
1.339,-0.01,-0.08,0.92,-1.31,-0.38,-0.39,
1.341,0.00,-0.06,0.93,-1.31,-0.38,-0.39,
1.341,0.00,-0.06,0.93,-1.14,-0.23,-0.51,
1.344,0.01,-0.06,0.93,-1.14,-0.23,-0.51,
1.346,0.02,-0.05,0.94,-1.14,-0.23,-0.51,
1.346,0.02,-0.05,0.94,-0.97,-0.07,-0.48,
1.351,0.03,-0.04,0.94,-0.97,-0.07,-0.48,
1.351,0.04,-0.03,0.95,-0.97,-0.07,-0.48,
1.352,0.04,-0.03,0.95,-0.78,0.13,-0.39,
1.353,0.05,-0.03,0.95,-0.78,0.13,-0.39,
1.36,0.05,-0.03,0.96,-0.78,0.13,-0.39,
1.361,0.05,-0.03,0.96,-0.64,0.24,-0.24,
1.361,0.06,-0.03,0.97,-0.64,0.24,-0.24,
1.361,0.06,-0.03,0.97,-0.64,0.24,-0.24,
1.361,0.06,-0.03,0.97,-0.47,0.34,-0.17,
1.363,0.06,-0.03,0.98,-0.47,0.34,-0.17,
1.366,0.06,-0.03,0.98,-0.47,0.34,-0.17,
1.366,0.06,-0.03,0.98,-0.40,0.32,-0.04,
1.368,0.06,-0.04,0.98,-0.40,0.32,-0.04,
1.376,0.07,-0.04,0.98,-0.40,0.32,-0.04,
1.377,0.07,-0.04,0.98,-0.36,0.29,0.06,
1.377,0.06,-0.05,0.99,-0.36,0.29,0.06,
1.377,0.06,-0.05,0.99,-0.36,0.29,0.06,
1.378,0.06,-0.05,0.99,-0.33,0.16,0.05,
1.378,0.06,-0.06,0.99,-0.33,0.16,0.05,
1.38,0.06,-0.06,0.99,-0.33,0.16,0.05,
1.381,0.06,-0.06,0.99,-0.34,0.07,0.16,
1.383,0.06,-0.07,0.99,-0.34,0.07,0.16,
1.386,0.06,-0.07,0.99,-0.34,0.07,0.16,
1.386,0.06,-0.07,0.99,-0.32,-0.06,0.16,
1.389,0.05,-0.07,0.99,-0.32,-0.06,0.16,
1.39,0.05,-0.07,0.99,-0.32,-0.06,0.16,
1.391,0.05,-0.07,0.99,-0.33,-0.13,0.20,
1.393,0.05,-0.08,0.99,-0.33,-0.13,0.20,
1.395,0.04,-0.09,0.99,-0.33,-0.13,0.20,
1.395,0.04,-0.09,0.99,-0.41,-0.17,0.15,
1.398,0.03,-0.09,0.98,-0.41,-0.17,0.15,
1.4,0.02,-0.09,0.97,-0.41,-0.17,0.15,
1.401,0.02,-0.09,0.97,-0.52,-0.31,0.11,
1.403,0.01,-0.09,0.98,-0.52,-0.31,0.11,
1.408,0.01,-0.09,0.97,-0.52,-0.31,0.11,
1.408,0.01,-0.09,0.97,-0.69,-0.37,0.02,
1.409,-0.00,-0.10,0.97,-0.69,-0.37,0.02,
1.41,-0.01,-0.10,0.97,-0.69,-0.37,0.02,
1.41,-0.01,-0.10,0.97,-0.86,-0.45,-0.02,
1.413,-0.02,-0.10,0.96,-0.86,-0.45,-0.02,
1.415,-0.03,-0.10,0.96,-0.86,-0.45,-0.02,
1.415,-0.03,-0.10,0.96,-1.03,-0.51,-0.04,
1.418,-0.03,-0.10,0.95,-1.03,-0.51,-0.04,
1.42,-0.04,-0.10,0.95,-1.03,-0.51,-0.04,
1.42,-0.04,-0.10,0.95,-1.18,-0.55,-0.15,
1.423,-0.05,-0.11,0.93,-1.18,-0.55,-0.15,
1.425,-0.05,-0.11,0.93,-1.18,-0.55,-0.15,
1.425,-0.05,-0.11,0.93,-1.36,-0.58,-0.25,
1.427,-0.05,-0.11,0.93,-1.36,-0.58,-0.25,
1.43,-0.06,-0.12,0.93,-1.36,-0.58,-0.25,
1.431,-0.06,-0.12,0.93,-1.50,-0.67,-0.44,
1.433,-0.05,-0.12,0.93,-1.50,-0.67,-0.44,
1.436,-0.05,-0.11,0.93,-1.50,-0.67,-0.44,
1.436,-0.05,-0.11,0.93,-1.53,-0.77,-0.45,
1.437,-0.05,-0.11,0.94,-1.53,-0.77,-0.45,
1.441,-0.04,-0.10,0.94,-1.53,-0.77,-0.45,
1.441,-0.04,-0.10,0.94,-1.51,-0.78,-0.46,
1.442,-0.02,-0.08,0.95,-1.51,-0.78,-0.46,
1.445,-0.01,-0.08,0.96,-1.51,-0.78,-0.46,
1.446,-0.01,-0.08,0.96,-1.42,-0.68,-0.33,
1.447,-0.01,-0.07,0.97,-1.42,-0.68,-0.33,
1.45,-0.00,-0.06,0.98,-1.42,-0.68,-0.33,
1.45,-0.00,-0.06,0.98,-1.19,-0.47,-0.18,
1.452,0.00,-0.05,1.00,-1.19,-0.47,-0.18,
1.46,0.01,-0.04,1.00,-1.19,-0.47,-0.18,
1.461,0.01,-0.04,1.00,-1.05,-0.31,0.02,
1.461,0.01,-0.04,1.01,-1.05,-0.31,0.02,
1.461,0.01,-0.03,1.03,-1.05,-0.31,0.02,
1.463,0.01,-0.03,1.03,-0.93,-0.17,0.27,
1.463,0.01,-0.04,1.03,-0.93,-0.17,0.27,
1.465,0.01,-0.03,1.04,-0.93,-0.17,0.27,
1.465,0.01,-0.03,1.04,-0.84,-0.08,0.45,
1.467,0.01,-0.03,1.05,-0.84,-0.08,0.45,
1.469,0.01,-0.04,1.04,-0.84,-0.08,0.45,
1.47,0.01,-0.04,1.04,-0.83,-0.08,0.61,
1.472,0.01,-0.04,1.04,-0.83,-0.08,0.61,
1.475,0.00,-0.05,1.05,-0.83,-0.08,0.61,
1.475,0.00,-0.05,1.05,-0.81,-0.08,0.68,
1.477,0.00,-0.05,1.04,-0.81,-0.08,0.68,
1.479,-0.01,-0.06,1.04,-0.81,-0.08,0.68,
1.48,-0.01,-0.06,1.04,-0.85,-0.17,0.69,
1.482,-0.02,-0.06,1.05,-0.85,-0.17,0.69,
1.485,-0.02,-0.06,1.05,-0.92,-0.28,0.66,
1.485,-0.02,-0.06,1.04,-0.92,-0.28,0.66,
1.487,-0.03,-0.07,1.05,-0.92,-0.28,0.66,
1.49,-0.04,-0.07,1.04,-0.92,-0.28,0.66,
1.49,-0.04,-0.07,1.04,-1.07,-0.33,0.68,
1.492,-0.05,-0.07,1.04,-1.07,-0.33,0.68,
1.495,-0.06,-0.07,1.03,-1.07,-0.33,0.68,
1.495,-0.06,-0.07,1.03,-1.23,-0.45,0.67,
1.497,-0.06,-0.07,1.03,-1.23,-0.45,0.67,
1.499,-0.07,-0.07,1.01,-1.23,-0.45,0.67,
1.499,-0.07,-0.07,1.01,-1.40,-0.47,0.58,
1.503,-0.07,-0.06,1.01,-1.40,-0.47,0.58,
1.504,-0.06,-0.06,1.01,-1.40,-0.47,0.58,
1.504,-0.06,-0.06,1.01,-1.52,-0.43,0.42,
1.507,-0.07,-0.06,0.99,-1.52,-0.43,0.42,
1.509,-0.07,-0.06,0.98,-1.52,-0.43,0.42,
1.509,-0.07,-0.06,0.98,-1.51,-0.39,0.30,
1.512,-0.08,-0.06,0.96,-1.51,-0.39,0.30,
1.514,-0.08,-0.06,0.96,-1.51,-0.39,0.30,
1.514,-0.08,-0.06,0.96,-1.57,-0.42,0.10,
1.516,-0.08,-0.06,0.95,-1.57,-0.42,0.10,
1.519,-0.08,-0.06,0.94,-1.57,-0.42,0.10,
1.519,-0.08,-0.06,0.94,-1.69,-0.44,-0.15,
1.522,-0.08,-0.05,0.94,-1.69,-0.44,-0.15,
1.524,-0.08,-0.05,0.93,-1.69,-0.44,-0.15,
1.524,-0.08,-0.05,0.93,-1.71,-0.41,-0.31,
1.527,-0.08,-0.05,0.92,-1.71,-0.41,-0.31,
1.529,-0.08,-0.05,0.92,-1.71,-0.41,-0.31,
1.53,-0.08,-0.05,0.92,-1.69,-0.36,-0.41,
1.532,-0.09,-0.05,0.92,-1.69,-0.36,-0.41,
1.534,-0.09,-0.05,0.92,-1.69,-0.36,-0.41,
1.534,-0.09,-0.05,0.92,-1.76,-0.34,-0.52,
1.537,-0.09,-0.06,0.91,-1.76,-0.34,-0.52,
1.539,-0.09,-0.06,0.91,-1.76,-0.34,-0.52,
1.539,-0.09,-0.06,0.91,-1.87,-0.38,-0.56,
1.542,-0.09,-0.06,0.92,-1.87,-0.38,-0.56,
1.544,-0.09,-0.05,0.92,-1.87,-0.38,-0.56,
1.545,-0.09,-0.05,0.92,-1.83,-0.48,-0.60,
1.547,-0.09,-0.05,0.92,-1.83,-0.48,-0.60,
1.55,-0.09,-0.04,0.92,-1.83,-0.48,-0.60,
1.55,-0.09,-0.04,0.92,-1.87,-0.46,-0.58,
1.552,-0.09,-0.03,0.93,-1.87,-0.46,-0.58,
1.554,-0.09,-0.03,0.94,-1.87,-0.46,-0.58,
1.555,-0.09,-0.03,0.94,-1.89,-0.36,-0.56,
1.56,-0.09,-0.02,0.95,-1.89,-0.36,-0.56,
1.56,-0.09,-0.01,0.96,-1.89,-0.36,-0.56,
1.56,-0.09,-0.01,0.96,-1.84,-0.24,-0.39,
1.561,-0.09,-0.00,0.96,-1.84,-0.24,-0.39,
1.564,-0.09,-0.00,0.97,-1.84,-0.24,-0.39,
1.564,-0.09,-0.00,0.97,-1.82,-0.08,-0.17,
1.566,-0.10,-0.00,0.97,-1.82,-0.08,-0.17,
1.569,-0.10,-0.00,0.98,-1.82,-0.08,-0.17,
1.569,-0.10,-0.00,0.98,-1.80,0.02,-0.09,
1.572,-0.11,-0.01,0.98,-1.80,0.02,-0.09,
1.575,-0.11,-0.01,0.98,-1.86,0.01,0.04,
1.575,-0.12,-0.01,0.98,-1.86,0.01,0.04,
1.576,-0.13,-0.02,0.99,-1.86,0.01,0.04,
1.579,-0.13,-0.03,1.00,-1.86,0.01,0.04,
1.579,-0.13,-0.03,1.00,-1.98,-0.08,0.08,
1.582,-0.14,-0.03,0.99,-1.98,-0.08,0.08,
1.584,-0.14,-0.03,1.00,-1.98,-0.08,0.08,
1.584,-0.14,-0.03,1.00,-2.10,-0.19,0.19,
1.588,-0.15,-0.04,1.01,-2.10,-0.19,0.19,
1.59,-0.15,-0.05,1.01,-2.10,-0.19,0.19,
1.591,-0.15,-0.05,1.01,-2.21,-0.27,0.23,
1.591,-0.16,-0.05,1.00,-2.21,-0.27,0.23,
1.594,-0.16,-0.06,1.00,-2.21,-0.27,0.23,
1.594,-0.16,-0.06,1.00,-2.30,-0.40,0.30,
1.597,-0.16,-0.05,0.98,-2.30,-0.40,0.30,
1.599,-0.16,-0.05,0.98,-2.30,-0.40,0.30,
1.599,-0.16,-0.05,0.98,-2.33,-0.50,0.23,
1.601,-0.16,-0.06,0.97,-2.33,-0.50,0.23,
1.604,-0.16,-0.06,0.96,-2.33,-0.50,0.23,
1.605,-0.16,-0.06,0.96,-2.34,-0.50,0.04,
1.607,-0.16,-0.06,0.96,-2.34,-0.50,0.04,
1.608,-0.15,-0.06,0.95,-2.34,-0.50,0.04,
1.609,-0.15,-0.06,0.95,-2.38,-0.53,-0.07,
1.611,-0.15,-0.05,0.94,-2.38,-0.53,-0.07,
1.614,-0.14,-0.05,0.94,-2.38,-0.53,-0.07,
1.614,-0.14,-0.05,0.94,-2.32,-0.51,-0.20,
1.616,-0.13,-0.05,0.94,-2.32,-0.51,-0.20,
1.618,-0.12,-0.05,0.93,-2.32,-0.51,-0.20,
1.619,-0.12,-0.05,0.93,-2.21,-0.43,-0.35,
1.621,-0.11,-0.04,0.93,-2.21,-0.43,-0.35,
1.625,-0.11,-0.04,0.93,-2.03,-0.42,-0.42,
1.625,-0.11,-0.04,0.93,-2.03,-0.42,-0.42,
1.626,-0.10,-0.04,0.93,-2.03,-0.42,-0.42,
1.629,-0.09,-0.03,0.92,-2.03,-0.42,-0.42,
1.629,-0.09,-0.03,0.92,-1.90,-0.39,-0.47,
1.631,-0.09,-0.03,0.92,-1.90,-0.39,-0.47,
1.633,-0.08,-0.03,0.92,-1.90,-0.39,-0.47,
1.634,-0.08,-0.03,0.92,-1.77,-0.32,-0.51,
1.636,-0.08,-0.03,0.92,-1.77,-0.32,-0.51,
1.638,-0.07,-0.03,0.93,-1.77,-0.32,-0.51,
1.641,-0.07,-0.03,0.93,-1.66,-0.29,-0.52,
1.641,-0.07,-0.04,0.93,-1.66,-0.29,-0.52,
1.644,-0.07,-0.03,0.93,-1.66,-0.29,-0.52,
1.644,-0.07,-0.03,0.93,-1.55,-0.27,-0.51,
1.645,-0.07,-0.03,0.93,-1.55,-0.27,-0.51,
1.648,-0.07,-0.03,0.93,-1.50,-0.33,-0.45,
1.65,-0.07,-0.03,0.93,-1.50,-0.33,-0.45,
1.65,-0.07,-0.04,0.93,-1.50,-0.33,-0.45,
1.652,-0.08,-0.03,0.93,-1.50,-0.33,-0.45,
1.653,-0.08,-0.03,0.93,-1.49,-0.29,-0.41,
1.655,-0.08,-0.03,0.93,-1.49,-0.29,-0.41,
1.662,-0.09,-0.04,0.94,-1.49,-0.29,-0.41,
1.663,-0.09,-0.04,0.94,-1.49,-0.33,-0.39,
1.663,-0.10,-0.04,0.93,-1.49,-0.33,-0.39,
1.663,-0.10,-0.04,0.93,-1.49,-0.33,-0.39,
1.664,-0.10,-0.04,0.93,-1.57,-0.38,-0.39,
1.666,-0.12,-0.05,0.93,-1.57,-0.38,-0.39,
1.668,-0.13,-0.05,0.93,-1.57,-0.38,-0.39,
1.669,-0.13,-0.05,0.93,-1.70,-0.47,-0.41,
1.67,-0.13,-0.05,0.91,-1.70,-0.47,-0.41,
1.675,-0.13,-0.05,0.90,-1.70,-0.47,-0.41,
1.675,-0.13,-0.05,0.90,-1.89,-0.54,-0.41,
1.676,-0.15,-0.05,0.90,-1.89,-0.54,-0.41,
1.678,-0.15,-0.05,0.89,-1.89,-0.54,-0.41,
1.678,-0.15,-0.05,0.89,-1.96,-0.56,-0.65,
1.68,-0.16,-0.05,0.88,-1.96,-0.56,-0.65,
1.683,-0.17,-0.05,0.87,-1.96,-0.56,-0.65,
1.684,-0.17,-0.05,0.87,-2.11,-0.57,-0.82,
1.685,-0.18,-0.05,0.86,-2.11,-0.57,-0.82,
1.688,-0.19,-0.05,0.86,-2.11,-0.57,-0.82,
1.688,-0.19,-0.05,0.86,-2.24,-0.59,-0.99,
1.692,-0.19,-0.05,0.86,-2.24,-0.59,-0.99,
1.692,-0.19,-0.05,0.85,-2.24,-0.59,-0.99,
1.693,-0.19,-0.05,0.85,-2.40,-0.63,-1.10,
1.695,-0.20,-0.05,0.86,-2.40,-0.63,-1.10,
1.697,-0.20,-0.05,0.85,-2.40,-0.63,-1.10,
1.698,-0.20,-0.05,0.85,-2.49,-0.64,-1.18,
1.7,-0.20,-0.05,0.85,-2.49,-0.64,-1.18,
1.703,-0.20,-0.05,0.85,-2.49,-0.64,-1.18,
1.704,-0.20,-0.05,0.85,-2.54,-0.66,-1.18,
1.705,-0.20,-0.05,0.85,-2.54,-0.66,-1.18,
1.708,-0.20,-0.04,0.86,-2.54,-0.66,-1.18,
1.708,-0.20,-0.04,0.86,-2.53,-0.70,-1.23,
1.71,-0.19,-0.04,0.86,-2.53,-0.70,-1.23,
1.712,-0.19,-0.04,0.86,-2.53,-0.70,-1.23,
1.712,-0.19,-0.04,0.86,-2.49,-0.66,-1.18,
1.715,-0.19,-0.03,0.87,-2.49,-0.66,-1.18,
1.717,-0.19,-0.02,0.88,-2.49,-0.66,-1.18,
1.718,-0.19,-0.02,0.88,-2.42,-0.61,-1.08,
1.72,-0.18,-0.02,0.88,-2.42,-0.61,-1.08,
1.722,-0.18,-0.01,0.89,-2.42,-0.61,-1.08,
1.722,-0.18,-0.01,0.89,-2.37,-0.47,-0.95,
1.725,-0.18,-0.01,0.89,-2.37,-0.47,-0.95,
1.727,-0.18,-0.01,0.89,-2.29,-0.36,-0.83,
1.727,-0.19,-0.00,0.90,-2.29,-0.36,-0.83,
1.73,-0.19,0.01,0.90,-2.29,-0.36,-0.83,
1.732,-0.20,0.01,0.91,-2.29,-0.36,-0.83,
1.732,-0.20,0.01,0.91,-2.28,-0.27,-0.76,
1.734,-0.20,0.02,0.91,-2.28,-0.27,-0.76,
1.738,-0.20,0.02,0.91,-2.28,-0.27,-0.76,
1.738,-0.20,0.02,0.91,-2.31,-0.14,-0.66,
1.744,-0.21,0.02,0.91,-2.31,-0.14,-0.66,
1.745,-0.22,0.02,0.92,-2.31,-0.14,-0.66,
1.745,-0.22,0.02,0.92,-2.38,-0.03,-0.60,
1.745,-0.22,0.03,0.92,-2.38,-0.03,-0.60,
1.747,-0.23,0.02,0.93,-2.38,-0.03,-0.60,
1.747,-0.23,0.02,0.93,-2.49,0.01,-0.56,
1.749,-0.23,0.02,0.94,-2.49,0.01,-0.56,
1.751,-0.24,0.02,0.93,-2.49,0.01,-0.56,
1.752,-0.24,0.02,0.93,-2.56,0.02,-0.45,
1.754,-0.25,0.02,0.94,-2.56,0.02,-0.45,
1.764,-0.26,0.02,0.95,-2.56,0.02,-0.45,
1.764,-0.26,0.02,0.95,-2.64,0.00,-0.37,
1.764,-0.26,0.01,0.95,-2.64,0.00,-0.37,
1.765,-0.26,0.01,0.96,-2.64,0.00,-0.37,
1.765,-0.26,0.01,0.96,-2.76,-0.02,-0.27,
1.765,-0.26,0.01,0.96,-2.76,-0.02,-0.27,
1.767,-0.26,0.00,0.96,-2.76,-0.02,-0.27,
1.768,-0.26,0.00,0.96,-2.79,-0.07,-0.19,
1.769,-0.25,-0.01,0.97,-2.79,-0.07,-0.19,
1.772,-0.25,-0.01,0.97,-2.80,-0.13,-0.11,
1.772,-0.25,-0.01,0.97,-2.80,-0.13,-0.11,
1.775,-0.25,-0.00,0.97,-2.80,-0.13,-0.11,
1.777,-0.24,-0.01,0.99,-2.80,-0.13,-0.11,
1.777,-0.24,-0.01,0.99,-2.72,-0.22,-0.03,
1.779,-0.24,-0.01,0.99,-2.72,-0.22,-0.03,
1.782,-0.23,-0.01,0.99,-2.72,-0.22,-0.03,
1.782,-0.23,-0.01,0.99,-2.64,-0.20,0.07,
1.785,-0.23,-0.00,1.00,-2.64,-0.20,0.07,
1.787,-0.22,-0.00,1.00,-2.64,-0.20,0.07,
1.787,-0.22,-0.00,1.00,-2.51,-0.19,0.19,
1.789,-0.21,-0.01,1.01,-2.51,-0.19,0.19,
1.792,-0.20,-0.01,1.01,-2.51,-0.19,0.19,
1.792,-0.20,-0.01,1.01,-2.39,-0.15,0.24,
1.794,-0.20,-0.01,1.00,-2.39,-0.15,0.24,
1.796,-0.20,-0.01,1.00,-2.18,-0.14,0.33,
1.797,-0.20,-0.01,1.01,-2.18,-0.14,0.33,
1.799,-0.20,-0.01,1.02,-2.18,-0.14,0.33,
1.802,-0.20,-0.00,1.03,-2.18,-0.14,0.33,
1.802,-0.20,-0.00,1.03,-2.11,-0.12,0.35,
1.804,-0.19,-0.00,1.04,-2.11,-0.12,0.35,
1.807,-0.19,-0.00,1.04,-2.11,-0.12,0.35,
1.807,-0.19,-0.00,1.04,-2.04,-0.10,0.50,
1.809,-0.20,0.00,1.05,-2.04,-0.10,0.50,
1.811,-0.20,0.01,1.05,-2.04,-0.10,0.50,
1.811,-0.20,0.01,1.05,-1.96,-0.03,0.65,
1.816,-0.20,0.01,1.06,-1.96,-0.03,0.65,
1.816,-0.20,0.02,1.07,-1.96,-0.03,0.65,
1.816,-0.20,0.02,1.07,-1.99,0.09,0.76,
1.819,-0.21,0.03,1.07,-1.99,0.09,0.76,
1.821,-0.21,0.03,1.07,-1.99,0.09,0.76,
1.822,-0.21,0.03,1.07,-1.99,0.18,0.87,
1.825,-0.22,0.03,1.08,-1.99,0.18,0.87,
1.826,-0.23,0.03,1.08,-1.99,0.18,0.87,
1.826,-0.23,0.03,1.08,-2.05,0.31,0.91,
1.828,-0.25,0.04,1.07,-2.05,0.31,0.91,
1.831,-0.25,0.04,1.07,-2.18,0.36,1.02,
1.831,-0.26,0.04,1.07,-2.18,0.36,1.02,
1.834,-0.27,0.03,1.06,-2.18,0.36,1.02,
1.836,-0.28,0.04,1.06,-2.18,0.36,1.02,
1.836,-0.28,0.04,1.06,-2.37,0.42,0.93,
1.838,-0.30,0.04,1.06,-2.37,0.42,0.93,
1.842,-0.30,0.03,1.05,-2.37,0.42,0.93,
1.842,-0.30,0.03,1.05,-2.59,0.41,0.86,
1.844,-0.31,0.03,1.04,-2.59,0.41,0.86,
1.846,-0.32,0.03,1.04,-2.59,0.41,0.86,
1.847,-0.32,0.03,1.04,-2.78,0.40,0.75,
1.849,-0.32,0.03,1.03,-2.78,0.40,0.75,
1.851,-0.33,0.02,1.03,-2.78,0.40,0.75,
1.851,-0.33,0.02,1.03,-2.89,0.35,0.65,
1.854,-0.33,0.02,1.02,-2.89,0.35,0.65,
1.855,-0.33,0.02,1.01,-2.89,0.35,0.65,
1.856,-0.33,0.02,1.01,-2.98,0.33,0.56,
1.862,-0.32,0.02,1.02,-2.98,0.33,0.56,
1.863,-0.32,0.02,1.02,-2.98,0.33,0.56,
1.863,-0.32,0.02,1.02,-2.98,0.31,0.41,
1.863,-0.32,0.02,1.02,-2.98,0.31,0.41,
1.866,-0.32,0.01,1.02,-2.98,0.31,0.41,
1.866,-0.32,0.01,1.02,-2.90,0.25,0.41,
1.868,-0.31,0.02,1.03,-2.90,0.25,0.41,
1.872,-0.31,0.02,1.03,-2.90,0.25,0.41,
1.872,-0.31,0.02,1.03,-2.85,0.26,0.46,
1.873,-0.30,0.02,1.04,-2.85,0.26,0.46,
1.876,-0.30,0.02,1.04,-2.85,0.26,0.46,
1.876,-0.30,0.02,1.04,-2.72,0.31,0.53,
1.878,-0.30,0.01,1.04,-2.72,0.31,0.53,
1.881,-0.29,0.01,1.05,-2.72,0.31,0.53,
1.881,-0.29,0.01,1.05,-2.63,0.34,0.61,
1.884,-0.29,0.01,1.06,-2.63,0.34,0.61,
1.886,-0.27,0.00,1.07,-2.63,0.34,0.61,
1.886,-0.27,0.00,1.07,-2.52,0.25,0.69,
1.888,-0.27,-0.01,1.07,-2.52,0.25,0.69,
1.892,-0.26,-0.01,1.08,-2.52,0.25,0.69,
1.892,-0.26,-0.01,1.08,-2.33,0.22,0.85,
1.893,-0.25,-0.02,1.09,-2.33,0.22,0.85,
1.895,-0.24,-0.02,1.10,-2.33,0.22,0.85,
1.896,-0.24,-0.02,1.10,-2.15,0.15,0.99,
1.898,-0.23,-0.02,1.10,-2.15,0.15,0.99,
1.901,-0.23,-0.02,1.10,-1.92,0.06,1.15,
1.901,-0.23,-0.03,1.10,-1.92,0.06,1.15,
1.903,-0.22,-0.04,1.10,-1.92,0.06,1.15,
1.906,-0.21,-0.05,1.11,-1.92,0.06,1.15,
1.906,-0.21,-0.05,1.11,-1.75,-0.00,1.22,
1.909,-0.21,-0.05,1.12,-1.75,-0.00,1.22,
1.91,-0.22,-0.06,1.12,-1.75,-0.00,1.22,
1.911,-0.22,-0.06,1.12,-1.61,-0.10,1.30,
1.913,-0.22,-0.07,1.12,-1.61,-0.10,1.30,
1.915,-0.23,-0.07,1.13,-1.61,-0.10,1.30,
1.916,-0.23,-0.07,1.13,-1.55,-0.18,1.40,
1.918,-0.23,-0.07,1.13,-1.55,-0.18,1.40,
1.921,-0.23,-0.07,1.13,-1.63,-0.30,1.47,
1.921,-0.24,-0.07,1.13,-1.63,-0.30,1.47,
1.923,-0.24,-0.08,1.13,-1.63,-0.30,1.47,
1.925,-0.25,-0.08,1.14,-1.63,-0.30,1.47,
1.926,-0.25,-0.08,1.14,-1.68,-0.30,1.53,
1.927,-0.26,-0.08,1.14,-1.68,-0.30,1.53,
1.93,-0.27,-0.08,1.14,-1.68,-0.30,1.53,
1.931,-0.27,-0.08,1.14,-1.78,-0.34,1.57,
1.934,-0.27,-0.08,1.14,-1.78,-0.34,1.57,
1.935,-0.27,-0.09,1.15,-1.78,-0.34,1.57,
1.935,-0.27,-0.09,1.15,-1.91,-0.36,1.63,
1.938,-0.29,-0.09,1.15,-1.91,-0.36,1.63,
1.94,-0.29,-0.09,1.15,-1.91,-0.36,1.63,
1.94,-0.29,-0.09,1.15,-2.01,-0.39,1.66,
1.943,-0.29,-0.10,1.15,-2.01,-0.39,1.66,
1.945,-0.29,-0.10,1.15,-2.01,-0.39,1.66,
1.945,-0.29,-0.10,1.15,-2.14,-0.40,1.67,
1.948,-0.29,-0.10,1.14,-2.14,-0.40,1.67,
1.95,-0.29,-0.10,1.14,-2.14,-0.40,1.67,
1.95,-0.29,-0.10,1.14,-2.13,-0.43,1.67,
1.953,-0.28,-0.10,1.13,-2.13,-0.43,1.67,
1.955,-0.29,-0.10,1.14,-2.13,-0.43,1.67,
1.955,-0.29,-0.10,1.14,-2.10,-0.49,1.59,
1.963,-0.28,-0.10,1.14,-2.10,-0.49,1.59,
1.963,-0.27,-0.11,1.13,-2.10,-0.49,1.59,
1.965,-0.27,-0.11,1.13,-2.05,-0.46,1.56,
1.965,-0.26,-0.10,1.13,-2.05,-0.46,1.56,
1.966,-0.25,-0.10,1.14,-2.05,-0.46,1.56,
1.966,-0.25,-0.10,1.14,-1.92,-0.45,1.55,
1.967,-0.24,-0.10,1.14,-1.92,-0.45,1.55,
1.969,-0.23,-0.10,1.15,-1.92,-0.45,1.55,
1.97,-0.23,-0.10,1.15,-1.70,-0.39,1.57,
1.972,-0.22,-0.10,1.15,-1.70,-0.39,1.57,
1.976,-0.21,-0.10,1.15,-1.70,-0.39,1.57,
1.976,-0.21,-0.10,1.15,-1.49,-0.38,1.65,
1.977,-0.20,-0.11,1.15,-1.49,-0.38,1.65,
1.98,-0.20,-0.11,1.14,-1.49,-0.38,1.65,
1.98,-0.20,-0.11,1.14,-1.32,-0.36,1.69,
1.982,-0.19,-0.11,1.14,-1.32,-0.36,1.69,
1.984,-0.18,-0.12,1.14,-1.32,-0.36,1.69,
1.985,-0.18,-0.12,1.14,-1.11,-0.42,1.67,
1.987,-0.17,-0.12,1.14,-1.11,-0.42,1.67,
1.989,-0.16,-0.12,1.13,-1.11,-0.42,1.67,
1.989,-0.16,-0.12,1.13,-0.94,-0.45,1.62,
1.994,-0.16,-0.12,1.13,-0.94,-0.45,1.62,
1.995,-0.16,-0.13,1.12,-0.94,-0.45,1.62,
1.995,-0.16,-0.13,1.12,-0.75,-0.48,1.55,
1.997,-0.15,-0.13,1.11,-0.75,-0.48,1.55,
1.999,-0.15,-0.12,1.10,-0.75,-0.48,1.55,
2.0,-0.15,-0.12,1.10,-0.64,-0.54,1.44,
2.002,-0.15,-0.12,1.10,-0.64,-0.54,1.44,
2.004,-0.14,-0.13,1.09,-0.64,-0.54,1.44,
2.004,-0.14,-0.13,1.09,-0.54,-0.53,1.29,
2.006,-0.15,-0.13,1.09,-0.54,-0.53,1.29,
2.011,-0.15,-0.13,1.08,-0.54,-0.53,1.29,
2.011,-0.15,-0.13,1.08,-0.48,-0.52,1.15,
2.012,-0.15,-0.12,1.07,-0.48,-0.52,1.15,
2.014,-0.15,-0.12,1.07,-0.48,-0.52,1.15,
2.015,-0.15,-0.12,1.07,-0.46,-0.54,1.06,
2.016,-0.15,-0.12,1.07,-0.46,-0.54,1.06,
2.019,-0.15,-0.12,1.07,-0.47,-0.48,0.91,
2.019,-0.15,-0.12,1.06,-0.47,-0.48,0.91,
2.021,-0.15,-0.12,1.06,-0.47,-0.48,0.91,
2.024,-0.16,-0.12,1.05,-0.47,-0.48,0.91,
2.024,-0.16,-0.12,1.05,-0.46,-0.48,0.84,
2.027,-0.16,-0.11,1.06,-0.46,-0.48,0.84,
2.029,-0.16,-0.11,1.05,-0.46,-0.48,0.84,
2.03,-0.16,-0.11,1.05,-0.49,-0.44,0.79,
2.031,-0.16,-0.10,1.04,-0.49,-0.44,0.79,
2.034,-0.17,-0.10,1.04,-0.49,-0.44,0.79,
2.034,-0.17,-0.10,1.04,-0.52,-0.37,0.74,
2.036,-0.18,-0.10,1.05,-0.52,-0.37,0.74,
2.038,-0.18,-0.10,1.05,-0.52,-0.37,0.74,
2.039,-0.18,-0.10,1.05,-0.56,-0.26,0.66,
2.047,-0.18,-0.09,1.05,-0.56,-0.26,0.66,
2.048,-0.18,-0.09,1.05,-0.70,-0.23,0.74,
2.048,-0.19,-0.09,1.05,-0.70,-0.23,0.74,
2.048,-0.20,-0.08,1.05,-0.70,-0.23,0.74,
2.05,-0.20,-0.08,1.05,-0.70,-0.23,0.74,
2.05,-0.20,-0.08,1.05,-0.72,-0.12,0.71,
2.051,-0.20,-0.08,1.06,-0.72,-0.12,0.71,
2.054,-0.21,-0.08,1.06,-0.72,-0.12,0.71,
2.054,-0.21,-0.08,1.06,-0.85,-0.04,0.73,
2.056,-0.21,-0.07,1.07,-0.85,-0.04,0.73,
2.059,-0.21,-0.08,1.07,-0.85,-0.04,0.73,
2.06,-0.21,-0.08,1.07,-0.88,0.04,0.81,
2.061,-0.21,-0.07,1.08,-0.88,0.04,0.81,
2.063,-0.21,-0.07,1.08,-0.88,0.04,0.81,
2.064,-0.21,-0.07,1.08,-0.95,0.07,0.90,
2.066,-0.21,-0.08,1.09,-0.95,0.07,0.90,
2.068,-0.21,-0.08,1.09,-0.92,0.11,1.03,
2.069,-0.20,-0.07,1.09,-0.92,0.11,1.03,
2.071,-0.20,-0.07,1.09,-0.92,0.11,1.03,
2.074,-0.20,-0.08,1.10,-0.92,0.11,1.03,
2.074,-0.20,-0.08,1.10,-0.87,0.11,1.09,
2.077,-0.19,-0.07,1.09,-0.87,0.11,1.09,
2.078,-0.18,-0.08,1.09,-0.87,0.11,1.09,
2.079,-0.18,-0.08,1.09,-0.79,0.12,1.15,
2.081,-0.17,-0.08,1.09,-0.79,0.12,1.15,
2.083,-0.17,-0.08,1.08,-0.79,0.12,1.15,
2.084,-0.17,-0.08,1.08,-0.63,0.11,1.15,
2.086,-0.16,-0.08,1.08,-0.63,0.11,1.15,
2.09,-0.14,-0.08,1.08,-0.63,0.11,1.15,
2.091,-0.14,-0.08,1.08,-0.48,0.11,1.11,
2.091,-0.14,-0.08,1.08,-0.48,0.11,1.11,
2.094,-0.14,-0.08,1.08,-0.28,0.09,0.99,
2.095,-0.14,-0.08,1.06,-0.28,0.09,0.99,
2.096,-0.13,-0.09,1.06,-0.28,0.09,0.99,
2.098,-0.12,-0.09,1.05,-0.28,0.09,0.99,
2.098,-0.12,-0.09,1.05,-0.17,0.08,0.92,
2.1,-0.12,-0.09,1.05,-0.17,0.08,0.92,
2.103,-0.11,-0.09,1.05,-0.17,0.08,0.92,
2.103,-0.11,-0.09,1.05,-0.01,0.04,0.79,
2.105,-0.11,-0.09,1.04,-0.01,0.04,0.79,
2.11,-0.11,-0.09,1.03,-0.01,0.04,0.79,
2.11,-0.11,-0.09,1.03,0.10,0.00,0.73,
2.111,-0.10,-0.09,1.03,0.10,0.00,0.73,
2.113,-0.11,-0.09,1.03,0.10,0.00,0.73,
2.113,-0.11,-0.09,1.03,0.16,-0.01,0.56,
2.115,-0.11,-0.09,1.03,0.16,-0.01,0.56,
2.119,-0.12,-0.09,1.04,0.16,-0.01,0.56,
2.119,-0.12,-0.09,1.04,0.23,0.05,0.49,
2.12,-0.12,-0.08,1.03,0.23,0.05,0.49,
2.123,-0.13,-0.08,1.04,0.23,0.05,0.49,
2.124,-0.13,-0.08,1.04,0.17,0.06,0.56,
2.126,-0.13,-0.08,1.05,0.17,0.06,0.56,
2.128,-0.14,-0.07,1.06,0.17,0.06,0.56,
2.128,-0.14,-0.07,1.06,0.09,0.12,0.63,
2.13,-0.15,-0.07,1.06,0.09,0.12,0.63,
2.133,-0.16,-0.07,1.06,0.09,0.12,0.63,
2.134,-0.16,-0.07,1.06,-0.01,0.18,0.77,
2.135,-0.16,-0.07,1.07,-0.01,0.18,0.77,
2.138,-0.17,-0.06,1.08,-0.01,0.18,0.77,
2.138,-0.17,-0.06,1.08,-0.13,0.24,0.85,
2.14,-0.18,-0.07,1.08,-0.13,0.24,0.85,
2.144,-0.18,-0.06,1.08,-0.13,0.24,0.85,
2.148,-0.18,-0.06,1.08,-0.26,0.28,0.94,
2.148,-0.19,-0.07,1.09,-0.26,0.28,0.94,
2.149,-0.19,-0.07,1.09,-0.26,0.28,0.94,
2.149,-0.19,-0.07,1.09,-0.33,0.27,1.02,
2.15,-0.19,-0.07,1.09,-0.33,0.27,1.02,
2.152,-0.19,-0.06,1.10,-0.33,0.27,1.02,
2.153,-0.19,-0.06,1.10,-0.41,0.27,1.13,
2.156,-0.18,-0.07,1.11,-0.41,0.27,1.13,
2.158,-0.18,-0.07,1.11,-0.41,0.27,1.13,
2.158,-0.18,-0.07,1.11,-0.37,0.31,1.20,
2.164,-0.18,-0.07,1.11,-0.37,0.31,1.20,
2.164,-0.18,-0.07,1.11,-0.37,0.31,1.20,
2.164,-0.18,-0.07,1.11,-0.32,0.27,1.31,
2.165,-0.18,-0.08,1.11,-0.32,0.27,1.31,
2.168,-0.17,-0.08,1.11,-0.32,0.27,1.31,
2.168,-0.17,-0.08,1.11,-0.25,0.23,1.33,
2.17,-0.17,-0.08,1.10,-0.25,0.23,1.33,
2.172,-0.17,-0.09,1.10,-0.25,0.23,1.33,
2.173,-0.17,-0.09,1.10,-0.19,0.17,1.33,
2.175,-0.17,-0.09,1.10,-0.19,0.17,1.33,
2.177,-0.17,-0.09,1.09,-0.19,0.17,1.33,
2.178,-0.17,-0.09,1.09,-0.14,0.11,1.27,
2.18,-0.16,-0.10,1.09,-0.14,0.11,1.27,
2.182,-0.16,-0.10,1.09,-0.14,0.11,1.27,
2.183,-0.16,-0.10,1.09,-0.12,0.04,1.19,
2.185,-0.15,-0.10,1.08,-0.12,0.04,1.19,
2.188,-0.15,-0.11,1.08,-0.12,0.04,1.19,
2.188,-0.15,-0.11,1.08,-0.02,-0.03,1.15,
2.191,-0.15,-0.11,1.07,-0.02,-0.03,1.15,
2.193,-0.15,-0.11,1.07,0.05,-0.11,1.04,
2.193,-0.15,-0.11,1.06,0.05,-0.11,1.04,
2.195,-0.14,-0.11,1.06,0.05,-0.11,1.04,
2.197,-0.13,-0.12,1.05,0.05,-0.11,1.04,
2.197,-0.13,-0.12,1.05,0.12,-0.17,0.90,
2.2,-0.13,-0.12,1.05,0.12,-0.17,0.90,
2.202,-0.13,-0.11,1.04,0.12,-0.17,0.90,
2.202,-0.13,-0.11,1.04,0.24,-0.22,0.79,
2.205,-0.12,-0.12,1.04,0.24,-0.22,0.79,
2.207,-0.12,-0.12,1.04,0.24,-0.22,0.79,
2.207,-0.12,-0.12,1.04,0.32,-0.22,0.69,
2.21,-0.11,-0.11,1.03,0.32,-0.22,0.69,
2.212,-0.10,-0.11,1.03,0.32,-0.22,0.69,
2.212,-0.10,-0.11,1.03,0.40,-0.24,0.61,
2.215,-0.10,-0.11,1.03,0.40,-0.24,0.61,
2.218,-0.10,-0.11,1.03,0.53,-0.20,0.56,
2.218,-0.09,-0.11,1.03,0.53,-0.20,0.56,
2.22,-0.09,-0.11,1.04,0.53,-0.20,0.56,
2.222,-0.09,-0.11,1.04,0.53,-0.20,0.56,
2.222,-0.09,-0.11,1.04,0.65,-0.20,0.54,
2.225,-0.09,-0.11,1.04,0.65,-0.20,0.54,
2.227,-0.09,-0.11,1.05,0.65,-0.20,0.54,
2.227,-0.09,-0.11,1.05,0.72,-0.22,0.63,
2.229,-0.09,-0.12,1.06,0.72,-0.22,0.63,
2.232,-0.10,-0.11,1.07,0.72,-0.22,0.63,
2.233,-0.10,-0.11,1.07,0.73,-0.16,0.70,
2.235,-0.10,-0.12,1.07,0.73,-0.16,0.70,
2.237,-0.10,-0.12,1.07,0.73,-0.16,0.70,
2.237,-0.10,-0.12,1.07,0.70,-0.22,0.85,
2.24,-0.10,-0.12,1.08,0.70,-0.22,0.85,
2.242,-0.11,-0.12,1.08,0.70,-0.22,0.85,
2.242,-0.11,-0.12,1.08,0.68,-0.26,0.94,
2.245,-0.10,-0.12,1.09,0.68,-0.26,0.94,
2.247,-0.10,-0.12,1.09,0.68,-0.26,0.94,
2.247,-0.10,-0.12,1.09,0.65,-0.26,1.06,
2.249,-0.11,-0.13,1.10,0.65,-0.26,1.06,
2.252,-0.11,-0.12,1.11,0.65,-0.26,1.06,
2.252,-0.11,-0.12,1.11,0.66,-0.28,1.15,
2.255,-0.12,-0.13,1.10,0.66,-0.28,1.15,
2.257,-0.12,-0.13,1.11,0.66,-0.28,1.15,
2.257,-0.12,-0.13,1.11,0.59,-0.33,1.29,
2.259,-0.11,-0.13,1.12,0.59,-0.33,1.29,
2.262,-0.12,-0.13,1.11,0.59,-0.33,1.29,
2.262,-0.12,-0.13,1.11,0.56,-0.36,1.29,
2.264,-0.11,-0.13,1.11,0.56,-0.36,1.29,
2.267,-0.11,-0.13,1.11,0.57,-0.40,1.39,
2.267,-0.11,-0.13,1.10,0.57,-0.40,1.39,
2.27,-0.11,-0.13,1.10,0.57,-0.40,1.39,
2.272,-0.11,-0.13,1.10,0.57,-0.40,1.39,
2.272,-0.11,-0.13,1.10,0.59,-0.40,1.29,
2.274,-0.12,-0.13,1.10,0.59,-0.40,1.29,
2.278,-0.11,-0.13,1.09,0.59,-0.40,1.29,
2.278,-0.11,-0.13,1.09,0.61,-0.42,1.21,
2.279,-0.11,-0.13,1.09,0.61,-0.42,1.21,
2.281,-0.11,-0.13,1.09,0.61,-0.42,1.21,
2.282,-0.11,-0.13,1.09,0.58,-0.40,1.14,
2.284,-0.11,-0.13,1.08,0.58,-0.40,1.14,
2.286,-0.11,-0.13,1.08,0.58,-0.40,1.14,
2.287,-0.11,-0.13,1.08,0.61,-0.38,1.09,
2.289,-0.11,-0.12,1.07,0.61,-0.38,1.09,
2.292,-0.12,-0.12,1.07,0.61,-0.38,1.09,
2.292,-0.12,-0.12,1.07,0.63,-0.37,1.00,
2.294,-0.11,-0.12,1.06,0.63,-0.37,1.00,
2.296,-0.11,-0.11,1.05,0.63,-0.37,1.00,
2.296,-0.11,-0.11,1.05,0.60,-0.34,0.90,
2.299,-0.11,-0.11,1.05,0.60,-0.34,0.90,
2.302,-0.12,-0.11,1.05,0.60,-0.34,0.90,
2.302,-0.12,-0.11,1.05,0.63,-0.29,0.78,
2.304,-0.11,-0.11,1.05,0.63,-0.29,0.78,
2.307,-0.12,-0.11,1.04,0.63,-0.29,0.78,
2.307,-0.12,-0.11,1.04,0.60,-0.24,0.71,
2.309,-0.12,-0.10,1.04,0.60,-0.24,0.71,
2.312,-0.12,-0.10,1.03,0.60,-0.24,0.71,
2.312,-0.12,-0.10,1.03,0.58,-0.24,0.65,
2.313,-0.11,-0.09,1.03,0.58,-0.24,0.65,
2.317,-0.12,-0.09,1.03,0.58,-0.24,0.65,
2.317,-0.12,-0.09,1.03,0.53,-0.15,0.57,
2.319,-0.12,-0.09,1.02,0.53,-0.15,0.57,
2.321,-0.12,-0.09,1.02,0.53,-0.15,0.57,
2.322,-0.12,-0.09,1.02,0.58,-0.08,0.50,
2.324,-0.12,-0.09,1.03,0.58,-0.08,0.50,
2.326,-0.11,-0.08,1.03,0.58,-0.08,0.50,
2.326,-0.11,-0.08,1.03,0.56,-0.06,0.46,
2.329,-0.11,-0.08,1.02,0.56,-0.06,0.46,
2.331,-0.11,-0.07,1.02,0.56,-0.06,0.46,
2.331,-0.11,-0.07,1.02,0.56,-0.02,0.49,
2.334,-0.11,-0.07,1.03,0.56,-0.02,0.49,
2.336,-0.11,-0.07,1.02,0.56,-0.02,0.49,
2.337,-0.11,-0.07,1.02,0.64,0.04,0.43,
2.339,-0.10,-0.07,1.03,0.64,0.04,0.43,
2.341,-0.10,-0.07,1.03,0.63,0.07,0.48,
2.342,-0.10,-0.07,1.02,0.63,0.07,0.48,
2.348,-0.10,-0.07,1.02,0.63,0.07,0.48,
2.348,-0.10,-0.07,1.02,0.63,0.07,0.48,
2.349,-0.10,-0.07,1.02,0.72,0.06,0.44,
2.349,-0.09,-0.07,1.02,0.72,0.06,0.44,
2.352,-0.09,-0.08,1.02,0.72,0.06,0.44,
2.352,-0.09,-0.08,1.02,0.75,0.06,0.39,
2.353,-0.09,-0.08,1.01,0.75,0.06,0.39,
2.356,-0.09,-0.08,1.01,0.75,0.06,0.39,
2.357,-0.09,-0.08,1.01,0.79,0.01,0.39,
2.359,-0.08,-0.09,1.01,0.79,0.01,0.39,
2.361,-0.09,-0.09,1.01,0.79,0.01,0.39,
2.362,-0.09,-0.09,1.01,0.81,-0.07,0.32,
2.363,-0.08,-0.09,1.01,0.81,-0.07,0.32,
2.366,-0.08,-0.09,1.01,0.85,-0.16,0.31,
2.366,-0.08,-0.09,1.01,0.85,-0.16,0.31,
2.369,-0.08,-0.09,1.01,0.85,-0.16,0.31,
2.371,-0.07,-0.09,1.01,0.85,-0.16,0.31,
2.371,-0.07,-0.09,1.01,0.89,-0.17,0.27,
2.373,-0.07,-0.09,1.01,0.89,-0.17,0.27,
2.376,-0.06,-0.09,1.02,0.89,-0.17,0.27,
2.376,-0.06,-0.09,1.02,0.94,-0.19,0.27,
2.378,-0.05,-0.09,1.01,0.94,-0.19,0.27,
2.38,-0.04,-0.09,1.02,0.94,-0.19,0.27,
2.381,-0.04,-0.09,1.02,1.02,-0.19,0.34,
2.383,-0.03,-0.09,1.02,1.02,-0.19,0.34,
2.386,-0.03,-0.09,1.03,1.02,-0.19,0.34,
2.386,-0.03,-0.09,1.03,1.17,-0.20,0.37,
2.388,-0.02,-0.08,1.04,1.17,-0.20,0.37,
2.391,-0.01,-0.08,1.04,1.17,-0.20,0.37,
2.391,-0.01,-0.08,1.04,1.30,-0.21,0.45,
2.395,-0.00,-0.08,1.04,1.30,-0.21,0.45,
2.395,0.01,-0.09,1.04,1.30,-0.21,0.45,
2.396,0.01,-0.09,1.04,1.47,-0.16,0.56,
2.398,0.02,-0.09,1.05,1.47,-0.16,0.56,
2.401,0.02,-0.08,1.05,1.47,-0.16,0.56,
2.401,0.02,-0.08,1.05,1.62,-0.16,0.58,
2.403,0.03,-0.08,1.06,1.62,-0.16,0.58,
2.406,0.04,-0.08,1.06,1.62,-0.16,0.58,
2.406,0.04,-0.08,1.06,1.75,-0.17,0.65,
2.408,0.04,-0.08,1.06,1.75,-0.17,0.65,
2.41,0.04,-0.07,1.07,1.75,-0.17,0.65,
2.41,0.04,-0.07,1.07,1.87,-0.14,0.72,
2.412,0.05,-0.07,1.07,1.87,-0.14,0.72,
2.416,0.05,-0.07,1.07,1.87,-0.14,0.72,
2.416,0.05,-0.07,1.07,1.93,-0.08,0.79,
2.417,0.05,-0.07,1.08,1.93,-0.08,0.79,
2.42,0.04,-0.07,1.09,1.93,-0.08,0.79,
2.42,0.04,-0.07,1.09,1.98,-0.07,0.85,
2.422,0.04,-0.08,1.09,1.98,-0.07,0.85,
2.425,0.04,-0.08,1.09,1.98,-0.07,0.85,
2.426,0.04,-0.08,1.09,1.97,-0.10,0.94,
2.428,0.04,-0.08,1.09,1.97,-0.10,0.94,
2.43,0.04,-0.08,1.08,1.97,-0.10,0.94,
2.43,0.04,-0.08,1.08,1.94,-0.14,1.00,
2.432,0.04,-0.08,1.09,1.94,-0.14,1.00,
2.434,0.04,-0.08,1.08,1.94,-0.14,1.00,
2.435,0.04,-0.08,1.08,1.90,-0.16,0.97,
2.437,0.03,-0.07,1.08,1.90,-0.16,0.97,
2.44,0.03,-0.07,1.08,1.90,-0.16,0.97,
2.441,0.03,-0.07,1.08,1.88,-0.14,0.97,
2.443,0.03,-0.07,1.08,1.88,-0.14,0.97,
2.45,0.03,-0.07,1.07,1.88,-0.14,0.97,
2.45,0.03,-0.07,1.07,1.83,-0.12,0.92,
2.45,0.03,-0.06,1.07,1.83,-0.12,0.92,
2.451,0.03,-0.06,1.06,1.83,-0.12,0.92,
2.451,0.03,-0.06,1.06,1.83,-0.12,0.83,
2.452,0.03,-0.06,1.06,1.83,-0.12,0.83,
2.454,0.03,-0.06,1.05,1.83,-0.12,0.83,
2.455,0.03,-0.06,1.05,1.79,-0.04,0.76,
2.457,0.03,-0.06,1.05,1.79,-0.04,0.76,
2.46,0.03,-0.06,1.05,1.79,-0.04,0.76,
2.46,0.03,-0.06,1.05,1.74,-0.06,0.68,
2.462,0.02,-0.06,1.05,1.74,-0.06,0.68,
2.464,0.02,-0.05,1.05,1.74,-0.06,0.68,
2.465,0.02,-0.05,1.05,1.72,-0.03,0.59,
2.467,0.02,-0.05,1.04,1.72,-0.03,0.59,
2.47,0.02,-0.05,1.04,1.72,-0.03,0.59,
2.47,0.02,-0.05,1.04,1.66,0.00,0.58,
2.472,0.02,-0.05,1.05,1.66,0.00,0.58,
2.475,0.02,-0.04,1.04,1.66,0.00,0.58,
2.476,0.02,-0.04,1.04,1.64,0.03,0.54,
2.478,0.02,-0.04,1.04,1.64,0.03,0.54,
2.48,0.03,-0.04,1.04,1.64,0.03,0.54,
2.48,0.03,-0.04,1.04,1.61,0.04,0.55,
2.482,0.02,-0.04,1.04,1.61,0.04,0.55,
2.484,0.02,-0.04,1.04,1.61,0.04,0.55,
2.485,0.02,-0.04,1.04,1.61,0.07,0.51,
2.487,0.02,-0.04,1.03,1.61,0.07,0.51,
2.489,0.02,-0.05,1.03,1.61,0.07,0.51,
2.491,0.02,-0.05,1.03,1.56,0.06,0.49,
2.492,0.02,-0.05,1.03,1.56,0.06,0.49,
2.495,0.02,-0.05,1.03,1.56,0.06,0.49,
2.495,0.02,-0.05,1.03,1.57,0.02,0.43,
2.497,0.02,-0.05,1.02,1.57,0.02,0.43,
2.499,0.01,-0.05,1.02,1.57,0.02,0.43,
2.499,0.01,-0.05,1.02,1.49,-0.04,0.39,
2.502,0.02,-0.05,1.01,1.49,-0.04,0.39,
2.504,0.01,-0.05,1.01,1.49,-0.04,0.39,
2.504,0.01,-0.05,1.01,1.48,-0.06,0.29,
2.507,0.02,-0.04,1.00,1.48,-0.06,0.29,
2.509,0.01,-0.04,1.00,1.48,-0.06,0.29,
2.51,0.01,-0.04,1.00,1.46,-0.05,0.19,
2.512,0.01,-0.04,0.99,1.46,-0.05,0.19,
2.514,0.01,-0.04,0.99,1.46,-0.05,0.19,
2.514,0.01,-0.04,0.99,1.42,-0.02,0.08,
2.517,0.01,-0.04,0.98,1.42,-0.02,0.08,
2.52,0.00,-0.04,0.97,1.42,-0.02,0.08,
2.52,0.00,-0.04,0.97,1.36,-0.01,-0.03,
2.521,0.01,-0.04,0.97,1.36,-0.01,-0.03,
2.524,0.00,-0.04,0.97,1.36,-0.01,-0.03,
2.525,0.00,-0.04,0.97,1.32,-0.03,-0.15,
2.527,-0.00,-0.04,0.96,1.32,-0.03,-0.15,
2.529,-0.00,-0.03,0.96,1.32,-0.03,-0.15,
2.529,-0.00,-0.03,0.96,1.30,-0.02,-0.24,
2.531,-0.01,-0.04,0.96,1.30,-0.02,-0.24,
2.534,-0.00,-0.03,0.95,1.30,-0.02,-0.24,
2.534,-0.00,-0.03,0.95,1.22,0.01,-0.33,
2.537,-0.01,-0.03,0.94,1.22,0.01,-0.33,
2.539,-0.01,-0.03,0.94,1.22,0.01,-0.33,
2.54,-0.01,-0.03,0.94,1.18,0.00,-0.41,
2.542,-0.01,-0.03,0.94,1.18,0.00,-0.41,
2.544,-0.01,-0.03,0.94,1.18,0.00,-0.41,
2.544,-0.01,-0.03,0.94,1.13,0.04,-0.49,
2.546,-0.01,-0.03,0.93,1.13,0.04,-0.49,
2.549,-0.01,-0.03,0.93,1.13,0.04,-0.49,
2.549,-0.01,-0.03,0.93,1.08,-0.01,-0.51,
2.552,-0.02,-0.03,0.93,1.08,-0.01,-0.51,
2.554,-0.02,-0.03,0.92,1.08,-0.01,-0.51,
2.554,-0.02,-0.03,0.92,1.07,0.01,-0.60,
2.557,-0.02,-0.03,0.92,1.07,0.01,-0.60,
2.559,-0.02,-0.03,0.92,1.07,0.01,-0.60,
2.559,-0.02,-0.03,0.92,0.99,-0.00,-0.68,
2.566,-0.02,-0.03,0.91,0.99,-0.00,-0.68,
2.566,-0.02,-0.03,0.91,0.99,-0.00,-0.68,
2.566,-0.02,-0.03,0.91,0.94,0.00,-0.75,
2.567,-0.02,-0.03,0.91,0.94,0.00,-0.75,
2.568,-0.01,-0.03,0.92,0.94,0.00,-0.75,
2.568,-0.01,-0.03,0.92,0.97,-0.00,-0.84,
2.571,-0.01,-0.03,0.92,0.97,-0.00,-0.84,
2.574,-0.01,-0.03,0.92,0.97,-0.00,-0.84,
2.574,-0.01,-0.03,0.92,1.02,0.03,-0.75,
2.577,-0.00,-0.03,0.93,1.02,0.03,-0.75,
2.579,0.00,-0.03,0.93,1.02,0.03,-0.75,
2.58,0.00,-0.03,0.93,1.05,0.03,-0.72,
2.581,0.01,-0.03,0.93,1.05,0.03,-0.72,
2.584,0.01,-0.03,0.93,1.05,0.03,-0.72,
2.584,0.01,-0.03,0.93,1.11,0.04,-0.64,
2.586,0.02,-0.03,0.93,1.11,0.04,-0.64,
2.589,0.01,-0.03,0.94,1.11,0.04,-0.64,
2.589,0.01,-0.03,0.94,1.19,0.04,-0.63,
2.591,0.02,-0.03,0.94,1.19,0.04,-0.63,
2.594,0.02,-0.03,0.94,1.19,0.04,-0.63,
2.594,0.02,-0.03,0.94,1.23,-0.00,-0.56,
2.596,0.02,-0.03,0.95,1.23,-0.00,-0.56,
2.598,0.02,-0.04,0.96,1.23,-0.00,-0.56,
2.598,0.02,-0.04,0.96,1.28,-0.01,-0.51,
2.601,0.02,-0.04,0.95,1.28,-0.01,-0.51,
2.603,0.02,-0.04,0.97,1.28,-0.01,-0.51,
2.604,0.02,-0.04,0.97,1.27,-0.05,-0.39,
2.605,0.01,-0.04,0.97,1.27,-0.05,-0.39,
2.608,0.01,-0.04,0.97,1.27,-0.05,-0.39,
2.608,0.01,-0.04,0.97,1.25,-0.05,-0.31,
2.611,0.01,-0.04,0.98,1.25,-0.05,-0.31,
2.614,0.01,-0.04,0.98,1.25,-0.05,-0.31,
2.614,0.01,-0.04,0.98,1.19,-0.07,-0.19,
2.615,0.01,-0.04,0.99,1.19,-0.07,-0.19,
2.618,0.00,-0.03,0.99,1.19,-0.07,-0.19,
2.618,0.00,-0.03,0.99,1.19,-0.06,-0.13,
2.62,-0.01,-0.03,0.99,1.19,-0.06,-0.13,
2.623,-0.01,-0.03,0.99,1.19,-0.06,-0.13,
2.623,-0.01,-0.03,0.99,1.10,-0.05,-0.05,
2.625,-0.01,-0.03,0.99,1.10,-0.05,-0.05,
2.629,-0.02,-0.02,0.99,1.10,-0.05,-0.05,
2.629,-0.02,-0.02,0.99,0.99,0.02,0.01,
2.63,-0.03,-0.02,1.00,0.99,0.02,0.01,
2.633,-0.04,-0.01,1.00,0.99,0.02,0.01,
2.633,-0.04,-0.01,1.00,0.91,0.03,0.00,
2.635,-0.04,-0.01,1.00,0.91,0.03,0.00,
2.638,-0.04,-0.01,1.00,0.76,0.11,0.02,
2.639,-0.05,-0.00,0.99,0.76,0.11,0.02,
2.641,-0.05,-0.01,0.99,0.76,0.11,0.02,
2.643,-0.05,-0.01,0.99,0.61,0.18,0.02,
2.643,-0.06,-0.00,0.99,0.61,0.18,0.02,
2.645,-0.06,-0.00,0.99,0.61,0.18,0.02,
2.647,-0.07,0.00,0.98,0.61,0.18,0.02,
2.648,-0.07,0.00,0.98,0.52,0.22,-0.04,
2.65,-0.06,0.01,0.98,0.52,0.22,-0.04,
2.652,-0.07,0.01,0.98,0.52,0.22,-0.04,
2.653,-0.07,0.01,0.98,0.43,0.25,-0.09,
2.655,-0.07,0.01,0.97,0.43,0.25,-0.09,
2.657,-0.07,0.01,0.97,0.43,0.25,-0.09,
2.658,-0.07,0.01,0.97,0.41,0.34,-0.14,
2.66,-0.07,0.01,0.97,0.41,0.34,-0.14,
2.666,-0.07,0.01,0.97,0.39,0.35,-0.22,
2.667,-0.07,0.01,0.96,0.39,0.35,-0.22,
2.667,-0.07,0.01,0.96,0.39,0.35,-0.22,
2.667,-0.06,0.01,0.96,0.39,0.35,-0.22,
2.667,-0.06,0.01,0.96,0.39,0.32,-0.26,
2.672,-0.06,0.01,0.96,0.39,0.32,-0.26,
2.672,-0.06,0.01,0.96,0.39,0.32,-0.26,
2.672,-0.06,0.01,0.96,0.39,0.33,-0.32,
2.675,-0.05,0.01,0.96,0.39,0.33,-0.32,
2.677,-0.04,0.01,0.96,0.39,0.33,-0.32,
2.68,-0.04,0.01,0.96,0.46,0.33,-0.33,
2.68,-0.04,0.01,0.96,0.46,0.33,-0.33,
2.682,-0.04,0.00,0.96,0.46,0.33,-0.33,
2.682,-0.04,0.00,0.96,0.56,0.34,-0.35,
2.685,-0.04,0.00,0.96,0.56,0.34,-0.35,
2.687,-0.04,0.00,0.96,0.56,0.34,-0.35,
2.688,-0.04,0.00,0.96,0.60,0.30,-0.31,
2.69,-0.04,-0.00,0.97,0.60,0.30,-0.31,
2.692,-0.06,-0.01,0.98,0.60,0.30,-0.31,
2.692,-0.06,-0.01,0.98,0.63,0.27,-0.32,
2.696,-0.11,-0.02,1.00,0.63,0.27,-0.32,
2.698,-0.19,-0.03,1.05,0.63,0.27,-0.32,
2.698,-0.19,-0.03,1.05,0.47,0.20,-0.17,
2.7,-0.29,-0.04,1.12,0.47,0.20,-0.17,
2.702,-0.35,-0.03,1.18,0.47,0.20,-0.17,
2.702,-0.35,-0.03,1.18,-0.45,0.00,0.32,
2.704,-0.30,0.01,1.18,-0.45,0.00,0.32,
2.708,-0.20,0.06,1.14,-0.45,0.00,0.32,
2.708,-0.20,0.06,1.14,-2.19,-0.09,1.56,
2.709,-0.12,0.10,1.09,-2.19,-0.09,1.56,
2.714,-0.08,0.12,1.06,-2.19,-0.09,1.56,
2.714,-0.08,0.12,1.06,-1.50,0.56,1.65,
2.715,-0.06,0.12,1.05,-1.50,0.56,1.65,
2.717,-0.07,0.11,1.05,-1.50,0.56,1.65,
2.717,-0.07,0.11,1.05,-0.02,1.28,0.78,
2.719,-0.09,0.09,1.06,-0.02,1.28,0.78,
2.722,-0.12,0.07,1.06,-0.02,1.28,0.78,
2.722,-0.12,0.07,1.06,0.25,1.32,0.54,
2.724,-0.13,0.05,1.06,0.25,1.32,0.54,
2.727,-0.13,0.03,1.04,0.25,1.32,0.54,
2.727,-0.13,0.03,1.04,-0.10,1.00,0.60,
2.73,-0.14,0.03,1.02,-0.10,1.00,0.60,
2.732,-0.13,0.03,1.00,-0.10,1.00,0.60,
2.732,-0.13,0.03,1.00,-0.40,0.57,0.51,
2.734,-0.12,0.03,0.99,-0.40,0.57,0.51,
2.737,-0.12,0.03,0.99,-0.40,0.39,0.11,
2.737,-0.13,0.03,0.99,-0.40,0.39,0.11,
2.739,-0.13,0.05,0.99,-0.40,0.39,0.11,
2.742,-0.13,0.06,0.99,-0.40,0.39,0.11,
2.742,-0.13,0.06,0.99,-0.32,0.42,-0.05,
2.744,-0.11,0.08,0.99,-0.32,0.42,-0.05,
2.75,-0.08,0.08,0.99,-0.32,0.42,-0.05,
2.75,-0.08,0.08,0.99,-0.41,0.65,-0.09,
2.75,-0.10,0.09,0.99,-0.41,0.65,-0.09,
2.753,-0.10,0.09,1.00,-0.41,0.65,-0.09,
2.753,-0.10,0.09,1.00,-0.05,0.85,-0.05,
2.754,-0.09,0.08,0.99,-0.05,0.85,-0.05,
2.756,-0.08,0.08,1.00,-0.05,0.85,-0.05,
2.757,-0.08,0.08,1.00,-0.08,0.90,-0.00,
2.759,-0.07,0.08,1.00,-0.08,0.90,-0.00,
2.763,-0.07,0.06,1.01,-0.08,0.90,-0.00,
2.763,-0.07,0.06,1.01,0.04,0.83,0.01,
2.764,-0.06,0.05,1.01,0.04,0.83,0.01,
2.766,-0.04,0.04,1.02,0.04,0.83,0.01,
2.767,-0.04,0.04,1.02,0.16,0.70,0.10,
2.769,-0.04,0.03,1.02,0.16,0.70,0.10,
2.771,-0.03,0.01,1.02,0.16,0.70,0.10,
2.771,-0.03,0.01,1.02,0.36,0.43,0.18,
2.774,-0.02,0.01,1.02,0.36,0.43,0.18,
2.776,-0.02,0.00,1.01,0.36,0.43,0.18,
2.777,-0.02,0.00,1.01,0.48,0.17,0.22,
2.78,-0.01,-0.01,1.00,0.48,0.17,0.22,
2.782,-0.00,-0.00,0.98,0.48,0.17,0.22,
2.782,-0.00,-0.00,0.98,0.63,0.01,0.17,
2.784,0.00,-0.00,0.98,0.63,0.01,0.17,
2.786,0.01,-0.00,0.97,0.63,0.01,0.17,
2.786,0.01,-0.00,0.97,0.74,-0.09,-0.03,
2.789,0.01,0.01,0.96,0.74,-0.09,-0.03,
2.792,0.01,0.01,0.94,0.74,-0.09,-0.03,
2.792,0.01,0.01,0.94,0.87,-0.07,-0.24,
2.794,0.01,0.02,0.92,0.87,-0.07,-0.24,
2.796,0.01,0.02,0.91,0.87,-0.07,-0.24,
2.797,0.01,0.02,0.91,0.88,0.04,-0.48,
2.798,-0.00,0.03,0.88,0.88,0.04,-0.48,
2.801,-0.02,0.04,0.82,0.88,0.04,-0.48,
2.801,-0.02,0.04,0.82,0.84,0.13,-0.77,
2.804,-0.06,0.04,0.76,0.84,0.13,-0.77,
2.806,-0.06,0.04,0.76,0.67,0.24,-1.44,
2.807,-0.08,0.05,0.74,0.67,0.24,-1.44,
2.809,-0.09,0.06,0.74,0.67,0.24,-1.44,
2.811,-0.09,0.07,0.77,0.67,0.24,-1.44,
2.811,-0.09,0.07,0.77,0.13,0.40,-2.41,
2.814,-0.09,0.07,0.79,0.13,0.40,-2.41,
2.816,-0.10,0.07,0.81,0.13,0.40,-2.41,
2.817,-0.10,0.07,0.81,-0.08,0.60,-2.35,
2.818,-0.11,0.06,0.85,-0.08,0.60,-2.35,
2.823,-0.11,0.06,0.85,-0.13,0.64,-1.91,
2.824,-0.10,0.05,0.87,-0.13,0.64,-1.91,
2.824,-0.10,0.04,0.90,-0.13,0.64,-1.91,
2.826,-0.10,0.03,0.93,-0.13,0.64,-1.91,
2.826,-0.10,0.03,0.93,-0.26,0.56,-1.35,
2.828,-0.09,0.02,0.96,-0.26,0.56,-1.35,
2.832,-0.08,0.01,0.99,-0.26,0.56,-1.35,
2.832,-0.08,0.01,0.99,-0.18,0.34,-0.78,
2.833,-0.08,-0.00,1.02,-0.18,0.34,-0.78,
2.836,-0.07,-0.01,1.05,-0.18,0.34,-0.78,
2.836,-0.07,-0.01,1.05,-0.03,0.15,-0.19,
2.839,-0.07,-0.01,1.08,-0.03,0.15,-0.19,
2.841,-0.06,-0.01,1.10,-0.03,0.15,-0.19,
2.841,-0.06,-0.01,1.10,0.07,-0.01,0.42,
2.843,-0.05,-0.01,1.12,0.07,-0.01,0.42,
2.845,-0.03,-0.01,1.13,0.07,-0.01,0.42,
2.846,-0.03,-0.01,1.13,0.19,-0.05,0.94,
2.852,-0.03,-0.01,1.14,0.19,-0.05,0.94,
2.853,-0.04,-0.02,1.15,0.19,-0.05,0.94,
2.853,-0.04,-0.02,1.15,0.40,-0.06,1.26,
2.853,-0.04,-0.02,1.15,0.40,-0.06,1.26,
2.856,-0.05,-0.02,1.16,0.40,-0.06,1.26,
2.856,-0.05,-0.02,1.16,0.45,-0.09,1.45,
2.859,-0.06,-0.02,1.16,0.45,-0.09,1.45,
2.86,-0.07,-0.03,1.16,0.45,-0.09,1.45,
2.861,-0.07,-0.03,1.16,0.35,-0.09,1.57,
2.872,-0.08,-0.04,1.16,0.35,-0.09,1.57,
2.873,-0.08,-0.04,1.17,0.35,-0.09,1.57,
2.873,-0.08,-0.04,1.17,0.13,-0.19,1.59,
2.873,-0.07,-0.05,1.16,0.13,-0.19,1.59,
2.874,-0.07,-0.05,1.16,0.13,-0.19,1.59,
2.874,-0.07,-0.05,1.16,0.03,-0.35,1.66,
2.874,-0.07,-0.04,1.15,0.03,-0.35,1.66,
2.875,-0.06,-0.03,1.14,0.03,-0.35,1.66,
2.875,-0.06,-0.03,1.14,0.04,-0.40,1.64,
2.878,-0.06,-0.02,1.10,0.04,-0.40,1.64,
2.892,-0.05,-0.01,1.08,0.04,-0.40,1.64,
2.892,-0.05,-0.01,1.08,0.12,-0.31,1.47,
2.893,-0.04,0.00,1.05,0.12,-0.31,1.47,
2.893,-0.03,0.01,1.03,0.12,-0.31,1.47,
2.893,-0.03,0.01,1.03,0.21,-0.14,0.89,
2.893,-0.03,0.02,1.00,0.21,-0.14,0.89,
2.894,-0.02,0.03,0.97,0.21,-0.14,0.89,
2.894,-0.02,0.03,0.97,0.41,0.08,0.43,
2.894,-0.02,0.03,0.95,0.41,0.08,0.43,
2.896,-0.02,0.03,0.93,0.41,0.08,0.43,
2.896,-0.02,0.03,0.93,0.48,0.23,-0.11,
2.903,-0.02,0.03,0.92,0.48,0.23,-0.11,
2.904,-0.02,0.03,0.91,0.48,0.23,-0.11,
2.904,-0.02,0.03,0.91,0.53,0.29,-0.55,
2.904,-0.02,0.03,0.91,0.53,0.29,-0.55,
