
time,gFx,gFy,gFz,ax,ay,az,
0.002,-0.03,0.07,0.98,-0.37,-0.10,-0.24,
0.002,-0.03,0.08,0.98,-0.37,-0.10,-0.24,
0.002,-0.03,0.08,0.98,-0.39,-0.11,-0.20,
0.003,-0.03,0.08,0.99,-0.39,-0.11,-0.20,
0.006,-0.03,0.08,0.99,-0.39,-0.07,-0.20,
0.006,-0.02,0.09,0.99,-0.39,-0.07,-0.20,
0.008,-0.01,0.09,0.99,-0.39,-0.07,-0.20,
0.011,-0.01,0.09,0.99,-0.33,0.02,-0.13,
0.011,-0.01,0.09,1.00,-0.33,0.02,-0.13,
0.014,-0.01,0.09,1.00,-0.33,0.02,-0.13,
0.016,-0.01,0.09,1.00,-0.33,0.02,-0.13,
0.016,-0.01,0.09,1.00,-0.20,0.04,-0.07,
0.018,-0.01,0.09,1.00,-0.20,0.04,-0.07,
0.021,-0.00,0.09,1.01,-0.20,0.04,-0.07,
0.021,-0.00,0.09,1.01,-0.17,0.09,0.02,
0.023,0.01,0.09,1.01,-0.17,0.09,0.02,
0.026,0.01,0.09,1.01,-0.17,0.09,0.02,
0.026,0.01,0.09,1.01,-0.12,0.09,0.08,
0.028,0.01,0.09,1.01,-0.12,0.09,0.08,
0.031,0.01,0.09,1.01,-0.12,0.09,0.08,
0.031,0.01,0.09,1.01,-0.01,0.08,0.12,
0.033,0.01,0.09,1.02,-0.01,0.08,0.12,
0.036,0.01,0.09,1.02,-0.01,0.08,0.12,
0.036,0.01,0.09,1.02,0.05,0.09,0.12,
0.038,0.02,0.09,1.02,0.05,0.09,0.12,
0.041,0.01,0.09,1.02,0.05,0.09,0.12,
0.041,0.01,0.09,1.02,0.05,0.08,0.16,
0.043,0.01,0.09,1.02,0.05,0.08,0.16,
0.046,0.02,0.08,1.02,0.05,0.08,0.16,
0.046,0.02,0.08,1.02,0.06,0.06,0.20,
0.048,0.02,0.09,1.02,0.06,0.06,0.20,
0.051,0.01,0.09,1.01,0.06,0.06,0.20,
0.051,0.01,0.09,1.01,0.08,0.05,0.18,
0.053,0.01,0.09,1.01,0.08,0.05,0.18,
0.056,0.02,0.09,1.00,0.08,0.05,0.18,
0.056,0.02,0.09,1.00,0.07,0.06,0.13,
0.058,0.01,0.08,1.00,0.07,0.06,0.13,
0.061,0.01,0.08,1.00,0.07,0.06,0.13,
0.061,0.01,0.08,1.00,0.05,0.05,0.03,
0.063,0.01,0.08,1.01,0.05,0.05,0.03,
0.066,0.01,0.08,0.99,0.05,0.05,0.03,
0.066,0.01,0.08,0.99,0.04,0.02,-0.01,
0.068,0.01,0.08,0.99,0.04,0.02,-0.01,
0.071,0.01,0.08,0.99,0.02,0.01,-0.00,
0.071,0.01,0.08,0.99,0.02,0.01,-0.00,
0.073,0.01,0.08,0.98,0.02,0.01,-0.00,
0.075,0.02,0.07,0.98,0.02,0.01,-0.00,
0.076,0.02,0.07,0.98,0.03,-0.02,-0.13,
0.078,0.02,0.07,0.98,0.03,-0.02,-0.13,
0.081,0.02,0.07,0.98,0.06,-0.08,-0.21,
0.081,0.02,0.07,0.98,0.06,-0.08,-0.21,
0.083,0.02,0.07,0.98,0.06,-0.08,-0.21,
0.086,0.03,0.07,0.98,0.06,-0.08,-0.21,
0.086,0.03,0.07,0.98,0.09,-0.10,-0.18,
0.088,0.03,0.07,0.98,0.09,-0.10,-0.18,
0.091,0.03,0.07,0.98,0.09,-0.10,-0.18,
0.091,0.03,0.07,0.98,0.16,-0.10,-0.22,
0.093,0.02,0.08,0.98,0.16,-0.10,-0.22,
0.096,0.03,0.07,0.99,0.16,-0.10,-0.22,
0.096,0.03,0.07,0.99,0.19,-0.11,-0.19,
0.099,0.03,0.08,1.00,0.19,-0.11,-0.19,
0.1,0.03,0.08,0.99,0.19,-0.11,-0.19,
0.101,0.03,0.08,0.99,0.16,-0.07,-0.15,
0.103,0.03,0.07,1.00,0.16,-0.07,-0.15,
0.106,0.03,0.08,1.00,0.16,-0.07,-0.15,
0.106,0.03,0.08,1.00,0.18,-0.04,-0.07,
0.107,0.03,0.08,1.00,0.18,-0.04,-0.07,
0.111,0.03,0.07,1.01,0.18,-0.04,-0.07,
0.111,0.03,0.07,1.01,0.18,-0.06,-0.00,
0.112,0.03,0.07,1.01,0.18,-0.06,-0.00,
0.115,0.02,0.07,1.01,0.18,-0.06,-0.00,
0.116,0.02,0.07,1.01,0.20,-0.07,0.05,
0.118,0.03,0.07,1.01,0.20,-0.07,0.05,
0.12,0.03,0.07,1.01,0.16,-0.10,0.09,
0.12,0.03,0.07,1.02,0.16,-0.10,0.09,
0.122,0.03,0.07,1.01,0.16,-0.10,0.09,
0.125,0.03,0.07,1.02,0.16,-0.10,0.09,
0.125,0.03,0.07,1.02,0.17,-0.08,0.14,
0.127,0.04,0.07,1.02,0.17,-0.08,0.14,
0.131,0.04,0.07,1.02,0.17,-0.08,0.14,
0.131,0.04,0.07,1.02,0.22,-0.08,0.14,
0.132,0.04,0.07,1.02,0.22,-0.08,0.14,
0.135,0.04,0.07,1.02,0.28,-0.11,0.20,
0.135,0.05,0.07,1.02,0.28,-0.11,0.20,
0.137,0.05,0.07,1.02,0.28,-0.11,0.20,
0.14,0.05,0.07,1.02,0.28,-0.11,0.20,
0.14,0.05,0.07,1.02,0.31,-0.13,0.19,
0.143,0.05,0.06,1.02,0.31,-0.13,0.19,
0.145,0.05,0.06,1.03,0.31,-0.13,0.19,
0.146,0.05,0.06,1.03,0.36,-0.11,0.19,
0.147,0.06,0.06,1.02,0.36,-0.11,0.19,
0.15,0.06,0.06,1.02,0.38,-0.15,0.22,
0.15,0.05,0.06,1.02,0.38,-0.15,0.22,
0.153,0.06,0.06,1.02,0.38,-0.15,0.22,
0.155,0.06,0.06,1.02,0.44,-0.16,0.20,
0.155,0.06,0.06,1.02,0.44,-0.16,0.20,
0.158,0.06,0.06,1.01,0.44,-0.16,0.20,
0.16,0.06,0.06,1.01,0.44,-0.16,0.20,
0.161,0.06,0.06,1.01,0.46,-0.20,0.17,
0.162,0.06,0.06,1.00,0.46,-0.20,0.17,
0.168,0.06,0.07,1.00,0.46,-0.20,0.17,
0.169,0.06,0.07,1.00,0.47,-0.18,0.10,
0.169,0.06,0.07,1.00,0.47,-0.18,0.10,
0.17,0.06,0.07,0.99,0.47,-0.18,0.10,
0.17,0.06,0.07,0.99,0.49,-0.17,-0.00,
0.172,0.07,0.07,0.99,0.49,-0.17,-0.00,
0.175,0.07,0.07,0.99,0.49,-0.17,-0.00,
0.175,0.07,0.07,0.99,0.50,-0.13,-0.06,
0.177,0.07,0.07,0.98,0.50,-0.13,-0.06,
0.18,0.07,0.08,0.98,0.50,-0.13,-0.06,
0.181,0.07,0.08,0.98,0.53,-0.10,-0.13,
0.183,0.08,0.07,0.98,0.53,-0.10,-0.13,
0.185,0.08,0.07,0.98,0.57,-0.05,-0.17,
0.185,0.08,0.07,0.98,0.57,-0.05,-0.17,
0.187,0.08,0.07,0.97,0.57,-0.05,-0.17,
0.19,0.08,0.06,0.98,0.57,-0.05,-0.17,
0.19,0.08,0.06,0.98,0.61,-0.08,-0.22,
0.192,0.08,0.06,0.98,0.61,-0.08,-0.22,
0.195,0.08,0.06,0.98,0.61,-0.08,-0.22,
0.195,0.08,0.06,0.98,0.64,-0.15,-0.25,
0.197,0.08,0.06,0.98,0.64,-0.15,-0.25,
0.2,0.08,0.06,0.98,0.62,-0.19,-0.22,
0.2,0.08,0.06,0.98,0.62,-0.19,-0.22,
0.202,0.08,0.05,0.98,0.62,-0.19,-0.22,
0.205,0.08,0.05,0.99,0.62,-0.19,-0.22,
0.205,0.08,0.05,0.99,0.61,-0.23,-0.21,
0.207,0.08,0.06,0.99,0.61,-0.23,-0.21,
0.21,0.09,0.06,0.99,0.61,-0.23,-0.21,
0.21,0.09,0.06,0.99,0.62,-0.26,-0.18,
0.212,0.08,0.06,0.99,0.62,-0.26,-0.18,
0.215,0.08,0.06,0.99,0.62,-0.26,-0.18,
0.217,0.08,0.06,0.99,0.67,-0.18,-0.10,
0.217,0.08,0.06,0.99,0.67,-0.18,-0.10,
0.22,0.07,0.06,1.00,0.67,-0.18,-0.10,
0.22,0.07,0.06,1.00,0.61,-0.18,-0.13,
0.222,0.07,0.06,0.99,0.61,-0.18,-0.13,
0.225,0.07,0.07,1.00,0.61,-0.18,-0.13,
0.225,0.07,0.07,1.00,0.54,-0.16,-0.04,
0.227,0.06,0.07,1.00,0.54,-0.16,-0.04,
0.23,0.06,0.07,1.00,0.54,-0.16,-0.04,
0.23,0.06,0.07,1.00,0.47,-0.11,-0.04,
0.231,0.06,0.07,1.01,0.47,-0.11,-0.04,
0.234,0.06,0.07,1.01,0.40,-0.11,0.02,
0.235,0.06,0.07,1.01,0.40,-0.11,0.02,
0.237,0.05,0.07,1.00,0.40,-0.11,0.02,
0.24,0.05,0.07,1.00,0.40,-0.11,0.02,
0.24,0.05,0.07,1.00,0.39,-0.04,0.07,
0.242,0.05,0.07,1.01,0.39,-0.04,0.07,
0.244,0.05,0.07,1.01,0.39,-0.04,0.07,
0.245,0.05,0.07,1.01,0.31,-0.03,0.02,
0.247,0.05,0.08,1.01,0.31,-0.03,0.02,
0.251,0.05,0.08,1.00,0.31,-0.03,0.02,
0.251,0.05,0.08,1.00,0.28,-0.02,0.05,
0.252,0.05,0.07,1.00,0.28,-0.02,0.05,
0.254,0.05,0.07,0.99,0.28,-0.02,0.05,
0.254,0.05,0.07,0.99,0.27,0.01,0.05,
0.257,0.05,0.07,0.99,0.27,0.01,0.05,
0.259,0.05,0.07,0.99,0.27,0.01,0.05,
0.26,0.05,0.07,0.99,0.30,-0.04,-0.03,
0.262,0.05,0.06,0.99,0.30,-0.04,-0.03,
0.264,0.05,0.06,0.99,0.31,-0.08,-0.10,
0.265,0.06,0.06,0.98,0.31,-0.08,-0.10,
0.266,0.06,0.06,0.98,0.31,-0.08,-0.10,
0.269,0.07,0.06,0.98,0.31,-0.08,-0.10,
0.269,0.07,0.06,0.98,0.32,-0.12,-0.13,
0.272,0.07,0.05,0.98,0.32,-0.12,-0.13,
0.274,0.08,0.05,0.98,0.32,-0.12,-0.13,
0.275,0.08,0.05,0.98,0.42,-0.17,-0.21,
0.276,0.09,0.05,0.98,0.42,-0.17,-0.21,
0.279,0.10,0.05,0.98,0.42,-0.17,-0.21,
0.279,0.10,0.05,0.98,0.50,-0.23,-0.19,
0.281,0.10,0.04,0.98,0.50,-0.23,-0.19,
0.284,0.10,0.04,0.98,0.67,-0.25,-0.20,
0.285,0.10,0.04,0.98,0.67,-0.25,-0.20,
0.286,0.11,0.04,0.99,0.67,-0.25,-0.20,
0.289,0.12,0.04,0.98,0.67,-0.25,-0.20,
0.289,0.12,0.04,0.98,0.76,-0.32,-0.20,
0.291,0.12,0.04,0.98,0.76,-0.32,-0.20,
0.294,0.13,0.04,0.97,0.76,-0.32,-0.20,
0.294,0.13,0.04,0.97,0.88,-0.33,-0.17,
0.296,0.14,0.03,0.97,0.88,-0.33,-0.17,
0.299,0.14,0.03,0.97,0.88,-0.33,-0.17,
0.3,0.14,0.03,0.97,1.01,-0.38,-0.26,
0.301,0.14,0.02,0.97,1.01,-0.38,-0.26,
0.304,0.15,0.02,0.96,1.01,-0.38,-0.26,
0.304,0.15,0.02,0.96,1.09,-0.46,-0.27,
0.305,0.15,0.02,0.96,1.09,-0.46,-0.27,
0.309,0.15,0.02,0.96,1.09,-0.46,-0.27,
0.309,0.15,0.02,0.96,1.17,-0.53,-0.33,
0.311,0.15,0.02,0.95,1.17,-0.53,-0.33,
0.314,0.15,0.02,0.95,1.17,-0.53,-0.33,
0.314,0.15,0.02,0.95,1.19,-0.56,-0.40,
0.316,0.14,0.02,0.94,1.19,-0.56,-0.40,
0.319,0.14,0.02,0.94,1.19,-0.56,-0.40,
0.319,0.14,0.02,0.94,1.19,-0.53,-0.46,
0.321,0.14,0.03,0.95,1.19,-0.53,-0.46,
0.324,0.14,0.03,0.94,1.19,-0.53,-0.46,
0.324,0.14,0.03,0.94,1.12,-0.53,-0.52,
0.326,0.14,0.03,0.93,1.12,-0.53,-0.52,
0.329,0.13,0.04,0.94,1.12,-0.53,-0.52,
0.331,0.13,0.04,0.94,1.07,-0.48,-0.51,
0.332,0.12,0.04,0.93,1.07,-0.48,-0.51,
0.334,0.12,0.04,0.93,1.02,-0.41,-0.59,
0.335,0.12,0.03,0.92,1.02,-0.41,-0.59,
0.335,0.12,0.03,0.92,1.02,-0.41,-0.59,
0.338,0.12,0.03,0.92,1.02,-0.41,-0.59,
0.338,0.12,0.03,0.92,0.91,-0.40,-0.66,
0.34,0.11,0.03,0.92,0.91,-0.40,-0.66,
0.343,0.10,0.03,0.92,0.91,-0.40,-0.66,
0.343,0.10,0.03,0.92,0.87,-0.41,-0.70,
0.345,0.10,0.03,0.91,0.87,-0.41,-0.70,
0.352,0.10,0.03,0.91,0.87,-0.41,-0.70,
0.353,0.10,0.03,0.91,0.73,-0.41,-0.73,
0.353,0.10,0.03,0.91,0.73,-0.41,-0.73,
0.353,0.10,0.03,0.91,0.70,-0.45,-0.78,
0.354,0.10,0.02,0.91,0.70,-0.45,-0.78,
0.356,0.10,0.02,0.91,0.70,-0.45,-0.78,
0.359,0.09,0.02,0.91,0.70,-0.45,-0.78,
0.359,0.09,0.02,0.91,0.65,-0.48,-0.81,
0.36,0.10,0.01,0.91,0.65,-0.48,-0.81,
0.363,0.10,0.01,0.91,0.65,-0.48,-0.81,
0.363,0.10,0.01,0.91,0.62,-0.51,-0.82,
0.365,0.09,0.01,0.90,0.62,-0.51,-0.82,
0.368,0.09,0.01,0.90,0.68,-0.60,-0.82,
0.368,0.10,0.02,0.90,0.68,-0.60,-0.82,
0.371,0.10,0.01,0.91,0.68,-0.60,-0.82,
0.373,0.10,0.01,0.90,0.68,-0.60,-0.82,
0.373,0.10,0.01,0.90,0.63,-0.57,-0.88,
0.375,0.10,0.01,0.90,0.63,-0.57,-0.88,
0.378,0.10,0.01,0.90,0.69,-0.62,-0.84,
0.378,0.11,0.01,0.89,0.69,-0.62,-0.84,
0.38,0.11,0.02,0.90,0.69,-0.62,-0.84,
0.386,0.11,0.02,0.90,0.69,-0.62,-0.84,
0.387,0.11,0.02,0.90,0.74,-0.58,-0.92,
0.387,0.11,0.02,0.90,0.74,-0.58,-0.92,
0.388,0.12,0.03,0.90,0.74,-0.58,-0.92,
0.388,0.12,0.03,0.90,0.80,-0.52,-0.88,
0.39,0.12,0.03,0.89,0.80,-0.52,-0.88,
0.393,0.12,0.03,0.90,0.80,-0.52,-0.88,
0.393,0.12,0.03,0.90,0.84,-0.46,-0.87,
0.395,0.12,0.03,0.90,0.84,-0.46,-0.87,
0.398,0.12,0.03,0.91,0.84,-0.46,-0.87,
0.398,0.12,0.03,0.91,0.88,-0.44,-0.90,
0.4,0.11,0.03,0.90,0.88,-0.44,-0.90,
0.402,0.12,0.03,0.90,0.88,-0.44,-0.90,
0.403,0.12,0.03,0.90,0.86,-0.42,-0.79,
0.405,0.12,0.03,0.90,0.86,-0.42,-0.79,
0.408,0.12,0.03,0.90,0.87,-0.40,-0.88,
0.408,0.11,0.04,0.90,0.87,-0.40,-0.88,
0.41,0.11,0.03,0.91,0.87,-0.40,-0.88,
0.413,0.11,0.04,0.90,0.87,-0.40,-0.88,
0.413,0.11,0.04,0.90,0.83,-0.37,-0.83,
0.415,0.11,0.04,0.90,0.83,-0.37,-0.83,
0.418,0.11,0.04,0.90,0.79,-0.34,-0.79,
0.418,0.10,0.04,0.90,0.79,-0.34,-0.79,
0.42,0.11,0.04,0.89,0.79,-0.34,-0.79,
0.423,0.10,0.05,0.89,0.79,-0.34,-0.79,
0.423,0.10,0.05,0.89,0.76,-0.29,-0.82,
0.424,0.10,0.05,0.89,0.76,-0.29,-0.82,
0.428,0.09,0.05,0.89,0.76,-0.29,-0.82,
0.428,0.09,0.05,0.89,0.75,-0.23,-0.91,
0.43,0.08,0.05,0.89,0.75,-0.23,-0.91,
0.435,0.08,0.05,0.89,0.66,-0.19,-0.90,
0.435,0.08,0.06,0.89,0.66,-0.19,-0.90,
0.435,0.07,0.06,0.88,0.66,-0.19,-0.90,
0.438,0.07,0.06,0.89,0.66,-0.19,-0.90,
0.438,0.07,0.06,0.89,0.55,-0.13,-0.89,
0.44,0.06,0.07,0.88,0.55,-0.13,-0.89,
0.443,0.05,0.07,0.88,0.55,-0.13,-0.89,
0.443,0.05,0.07,0.88,0.45,-0.11,-0.95,
0.445,0.05,0.07,0.88,0.45,-0.11,-0.95,
0.447,0.04,0.08,0.88,0.45,-0.11,-0.95,
0.448,0.04,0.08,0.88,0.33,-0.03,-0.96,
0.45,0.03,0.08,0.88,0.33,-0.03,-0.96,
0.452,0.03,0.08,0.88,0.24,0.05,-0.97,
0.452,0.02,0.08,0.89,0.24,0.05,-0.97,
0.454,0.01,0.08,0.88,0.24,0.05,-0.97,
0.457,0.01,0.08,0.88,0.24,0.05,-0.97,
0.457,0.01,0.08,0.88,0.04,0.10,-0.94,
0.459,-0.00,0.09,0.89,0.04,0.10,-0.94,
0.462,-0.00,0.09,0.89,-0.10,0.14,-0.95,
0.462,-0.01,0.09,0.89,-0.10,0.14,-0.95,
0.464,-0.02,0.09,0.89,-0.10,0.14,-0.95,
0.467,-0.03,0.08,0.89,-0.10,0.14,-0.95,
0.467,-0.03,0.08,0.89,-0.25,0.19,-0.85,
0.47,-0.04,0.09,0.89,-0.25,0.19,-0.85,
0.472,-0.05,0.09,0.90,-0.25,0.19,-0.85,
0.472,-0.05,0.09,0.90,-0.45,0.19,-0.82,
0.474,-0.05,0.08,0.91,-0.45,0.19,-0.82,
0.476,-0.06,0.09,0.91,-0.45,0.19,-0.82,
0.477,-0.06,0.09,0.91,-0.58,0.20,-0.77,
0.479,-0.06,0.08,0.93,-0.58,0.20,-0.77,
0.481,-0.06,0.09,0.93,-0.58,0.20,-0.77,
0.482,-0.06,0.09,0.93,-0.68,0.20,-0.61,
0.487,-0.06,0.08,0.93,-0.68,0.20,-0.61,
0.488,-0.06,0.08,0.93,-0.68,0.20,-0.61,
0.488,-0.06,0.08,0.93,-0.69,0.20,-0.45,
0.489,-0.06,0.08,0.94,-0.69,0.20,-0.45,
0.491,-0.06,0.08,0.94,-0.69,0.20,-0.45,
0.492,-0.06,0.08,0.94,-0.72,0.19,-0.40,
0.494,-0.06,0.07,0.94,-0.72,0.19,-0.40,
0.496,-0.06,0.07,0.93,-0.72,0.19,-0.40,
0.497,-0.06,0.07,0.93,-0.72,0.17,-0.35,
0.499,-0.06,0.07,0.93,-0.72,0.17,-0.35,
0.501,-0.06,0.06,0.93,-0.72,0.17,-0.35,
0.502,-0.06,0.06,0.93,-0.71,0.08,-0.40,
0.503,-0.06,0.07,0.93,-0.71,0.08,-0.40,
0.507,-0.05,0.05,0.92,-0.71,0.08,-0.40,
0.507,-0.05,0.05,0.92,-0.65,0.02,-0.43,
0.508,-0.05,0.05,0.91,-0.65,0.02,-0.43,
0.511,-0.05,0.05,0.91,-0.61,-0.02,-0.50,
0.512,-0.05,0.06,0.91,-0.61,-0.02,-0.50,
0.513,-0.05,0.06,0.90,-0.61,-0.02,-0.50,
0.517,-0.04,0.06,0.90,-0.61,-0.02,-0.50,
0.518,-0.04,0.06,0.90,-0.55,-0.07,-0.64,
0.519,-0.02,0.06,0.89,-0.55,-0.07,-0.64,
0.521,-0.01,0.06,0.88,-0.55,-0.07,-0.64,
0.521,-0.01,0.06,0.88,-0.45,-0.05,-0.75,
0.523,-0.01,0.06,0.88,-0.45,-0.05,-0.75,
0.526,-0.00,0.06,0.88,-0.45,-0.05,-0.75,
0.526,-0.00,0.06,0.88,-0.22,-0.04,-0.87,
0.528,0.01,0.06,0.86,-0.22,-0.04,-0.87,
0.531,0.02,0.05,0.86,-0.22,-0.04,-0.87,
0.531,0.02,0.05,0.86,-0.06,-0.04,-0.93,
0.534,0.02,0.05,0.86,-0.06,-0.04,-0.93,
0.536,0.02,0.05,0.86,0.11,-0.07,-1.05,
0.536,0.02,0.05,0.86,0.11,-0.07,-1.05,
0.538,0.02,0.05,0.86,0.11,-0.07,-1.05,
0.541,0.02,0.05,0.86,0.18,-0.09,-1.04,
0.541,0.03,0.05,0.87,0.18,-0.09,-1.04,
0.543,0.03,0.05,0.87,0.18,-0.09,-1.04,
0.546,0.03,0.05,0.87,0.18,-0.09,-1.04,
0.546,0.03,0.05,0.87,0.26,-0.15,-1.02,
0.548,0.04,0.05,0.87,0.26,-0.15,-1.02,
0.552,0.04,0.04,0.88,0.26,-0.15,-1.02,
0.552,0.04,0.04,0.88,0.33,-0.14,-0.94,
0.553,0.04,0.04,0.89,0.33,-0.14,-0.94,
0.556,0.04,0.04,0.89,0.33,-0.14,-0.94,
0.556,0.04,0.04,0.89,0.43,-0.16,-0.89,
0.558,0.05,0.04,0.89,0.43,-0.16,-0.89,
0.561,0.05,0.04,0.90,0.43,-0.16,-0.89,
0.561,0.05,0.04,0.90,0.45,-0.23,-0.75,
0.563,0.05,0.04,0.89,0.45,-0.23,-0.75,
0.568,0.04,0.03,0.90,0.45,-0.23,-0.75,
0.568,0.04,0.03,0.90,0.51,-0.22,-0.71,
0.568,0.04,0.03,0.89,0.51,-0.22,-0.71,
0.571,0.04,0.04,0.89,0.51,-0.22,-0.71,
0.571,0.04,0.04,0.89,0.50,-0.25,-0.68,
0.573,0.04,0.04,0.88,0.50,-0.25,-0.68,
0.576,0.04,0.04,0.88,0.42,-0.26,-0.76,
0.576,0.03,0.04,0.88,0.42,-0.26,-0.76,
0.578,0.03,0.05,0.87,0.42,-0.26,-0.76,
0.581,0.03,0.05,0.87,0.39,-0.22,-0.81,
0.582,0.02,0.05,0.86,0.39,-0.22,-0.81,
0.584,0.01,0.05,0.86,0.39,-0.22,-0.81,
0.585,-0.00,0.05,0.84,0.39,-0.22,-0.81,
0.586,-0.00,0.05,0.84,0.31,-0.11,-0.96,
0.588,-0.02,0.06,0.83,0.31,-0.11,-0.96,
0.591,-0.02,0.06,0.83,0.11,-0.06,-1.10,
0.591,-0.04,0.07,0.83,0.11,-0.06,-1.10,
0.593,-0.06,0.07,0.83,0.11,-0.06,-1.10,
0.595,-0.08,0.07,0.82,0.11,-0.06,-1.10,
0.596,-0.08,0.07,0.82,-0.20,0.07,-1.26,
0.598,-0.10,0.07,0.82,-0.20,0.07,-1.26,
0.604,-0.12,0.08,0.82,-0.20,0.07,-1.26,
0.605,-0.12,0.08,0.82,-0.55,0.12,-1.36,
0.605,-0.14,0.09,0.82,-0.55,0.12,-1.36,
0.606,-0.15,0.09,0.82,-0.55,0.12,-1.36,
0.606,-0.15,0.09,0.82,-0.95,0.19,-1.36,
0.607,-0.17,0.09,0.82,-0.95,0.19,-1.36,
0.61,-0.18,0.09,0.83,-0.95,0.19,-1.36,
0.611,-0.18,0.09,0.83,-1.26,0.31,-1.35,
0.612,-0.20,0.09,0.84,-1.26,0.31,-1.35,
0.615,-0.21,0.10,0.85,-1.26,0.31,-1.35,
0.615,-0.21,0.10,0.85,-1.55,0.35,-1.27,
0.618,-0.21,0.09,0.87,-1.55,0.35,-1.27,
0.62,-0.22,0.09,0.88,-1.55,0.35,-1.27,
0.62,-0.22,0.09,0.88,-1.80,0.40,-1.07,
0.623,-0.23,0.09,0.89,-1.80,0.40,-1.07,
0.625,-0.23,0.08,0.91,-1.80,0.40,-1.07,
0.625,-0.23,0.08,0.91,-1.90,0.39,-0.80,
0.627,-0.23,0.08,0.92,-1.90,0.39,-0.80,
0.63,-0.23,0.08,0.92,-2.01,0.33,-0.53,
0.63,-0.23,0.07,0.94,-2.01,0.33,-0.53,
0.632,-0.22,0.06,0.96,-2.01,0.33,-0.53,
0.636,-0.22,0.05,0.98,-2.01,0.33,-0.53,
0.637,-0.22,0.05,0.98,-1.99,0.25,-0.24,
0.637,-0.22,0.04,0.99,-1.99,0.25,-0.24,
0.64,-0.21,0.03,0.99,-1.99,0.25,-0.24,
0.64,-0.21,0.03,0.99,-1.92,0.08,0.12,
0.642,-0.20,0.02,1.01,-1.92,0.08,0.12,
0.645,-0.20,0.02,1.01,-1.80,-0.10,0.35,
0.645,-0.19,0.02,1.01,-1.80,-0.10,0.35,
0.647,-0.17,0.02,1.01,-1.80,-0.10,0.35,
0.651,-0.15,0.01,1.01,-1.80,-0.10,0.35,
0.652,-0.15,0.01,1.01,-1.57,-0.21,0.53,
0.653,-0.14,0.01,1.01,-1.57,-0.21,0.53,
0.655,-0.12,0.02,1.00,-1.57,-0.21,0.53,
0.655,-0.12,0.02,1.00,-1.28,-0.24,0.51,
0.657,-0.10,0.02,0.99,-1.28,-0.24,0.51,
0.66,-0.10,0.03,0.99,-1.28,-0.24,0.51,
0.66,-0.10,0.03,0.99,-0.91,-0.20,0.44,
0.662,-0.08,0.03,0.97,-0.91,-0.20,0.44,
0.665,-0.08,0.04,0.97,-0.91,-0.20,0.44,
0.665,-0.08,0.04,0.97,-0.64,-0.11,0.31,
0.67,-0.08,0.04,0.95,-0.64,-0.11,0.31,
0.671,-0.08,0.04,0.94,-0.64,-0.11,0.31,
0.671,-0.08,0.04,0.94,-0.45,-0.03,0.14,
0.673,-0.07,0.04,0.93,-0.45,-0.03,0.14,
0.675,-0.07,0.05,0.93,-0.45,-0.03,0.14,
0.676,-0.07,0.05,0.93,-0.40,0.02,-0.10,
0.678,-0.07,0.05,0.92,-0.40,0.02,-0.10,
0.68,-0.07,0.05,0.92,-0.32,0.08,-0.28,
0.681,-0.07,0.06,0.91,-0.32,0.08,-0.28,
0.685,-0.07,0.06,0.90,-0.32,0.08,-0.28,
0.685,-0.07,0.06,0.90,-0.32,0.08,-0.28,
0.685,-0.07,0.06,0.90,-0.26,0.16,-0.40,
0.687,-0.08,0.06,0.90,-0.26,0.16,-0.40,
0.69,-0.08,0.06,0.90,-0.25,0.18,-0.52,
0.691,-0.08,0.07,0.89,-0.25,0.18,-0.52,
0.692,-0.09,0.07,0.89,-0.25,0.18,-0.52,
0.695,-0.09,0.06,0.89,-0.25,0.18,-0.52,
0.695,-0.09,0.06,0.89,-0.31,0.22,-0.60,
0.697,-0.09,0.07,0.89,-0.31,0.22,-0.60,
0.7,-0.10,0.06,0.89,-0.31,0.22,-0.60,
0.7,-0.10,0.06,0.89,-0.39,0.24,-0.64,
0.706,-0.09,0.06,0.90,-0.39,0.24,-0.64,
0.706,-0.09,0.06,0.90,-0.43,0.24,-0.64,
0.706,-0.10,0.06,0.90,-0.43,0.24,-0.64,
0.706,-0.10,0.05,0.90,-0.43,0.24,-0.64,
0.71,-0.09,0.05,0.90,-0.43,0.24,-0.64,
0.71,-0.09,0.05,0.90,-0.42,0.20,-0.57,
0.711,-0.09,0.05,0.90,-0.42,0.20,-0.57,
0.715,-0.09,0.05,0.91,-0.42,0.20,-0.57,
0.715,-0.09,0.05,0.91,-0.42,0.11,-0.56,
0.717,-0.08,0.04,0.91,-0.42,0.11,-0.56,
0.72,-0.07,0.03,0.92,-0.42,0.11,-0.56,
0.72,-0.07,0.03,0.92,-0.37,0.06,-0.48,
0.722,-0.07,0.03,0.92,-0.37,0.06,-0.48,
0.724,-0.07,0.02,0.92,-0.37,0.06,-0.48,
0.725,-0.07,0.02,0.92,-0.27,-0.02,-0.37,
0.727,-0.07,0.01,0.92,-0.27,-0.02,-0.37,
0.73,-0.07,0.01,0.92,-0.23,-0.15,-0.37,
0.73,-0.06,0.01,0.91,-0.23,-0.15,-0.37,
0.731,-0.06,-0.00,0.91,-0.23,-0.15,-0.37,
0.736,-0.05,-0.00,0.91,-0.23,-0.15,-0.37,
0.736,-0.05,-0.00,0.91,-0.16,-0.29,-0.40,
0.736,-0.04,-0.00,0.91,-0.16,-0.29,-0.40,
0.739,-0.04,-0.00,0.91,-0.07,-0.41,-0.45,
0.739,-0.03,-0.00,0.90,-0.07,-0.41,-0.45,
0.742,-0.03,-0.00,0.89,-0.07,-0.41,-0.45,
0.745,-0.03,0.00,0.89,-0.07,-0.41,-0.45,
0.745,-0.03,0.00,0.89,0.13,-0.41,-0.49,
0.746,-0.03,-0.00,0.88,0.13,-0.41,-0.49,
0.749,-0.03,0.00,0.87,0.13,-0.41,-0.49,
0.749,-0.03,0.00,0.87,0.18,-0.38,-0.62,
0.752,-0.04,0.01,0.87,0.18,-0.38,-0.62,
0.755,-0.04,0.01,0.87,0.18,-0.37,-0.79,
0.755,-0.05,0.01,0.86,0.18,-0.37,-0.79,
0.756,-0.06,0.01,0.85,0.18,-0.37,-0.79,
0.759,-0.07,0.02,0.84,0.18,-0.37,-0.79,
0.759,-0.07,0.02,0.84,0.05,-0.30,-0.89,
0.761,-0.08,0.02,0.84,0.05,-0.30,-0.89,
0.764,-0.08,0.02,0.84,-0.15,-0.25,-1.05,
0.764,-0.10,0.03,0.83,-0.15,-0.25,-1.05,
0.767,-0.12,0.03,0.84,-0.15,-0.25,-1.05,
0.769,-0.13,0.04,0.84,-0.15,-0.25,-1.05,
0.769,-0.13,0.04,0.84,-0.41,-0.17,-1.14,
0.772,-0.15,0.05,0.84,-0.41,-0.17,-1.14,
0.775,-0.18,0.05,0.86,-0.41,-0.17,-1.14,
0.775,-0.18,0.05,0.86,-0.73,-0.04,-1.08,
0.777,-0.19,0.06,0.86,-0.73,-0.04,-1.08,
0.779,-0.19,0.06,0.86,-1.05,0.09,-0.98,
0.779,-0.21,0.07,0.86,-1.05,0.09,-0.98,
0.781,-0.23,0.07,0.87,-1.05,0.09,-0.98,
0.785,-0.25,0.07,0.87,-1.05,0.09,-0.98,
0.787,-0.25,0.07,0.87,-1.41,0.24,-0.90,
0.788,-0.27,0.08,0.88,-1.41,0.24,-0.90,
0.789,-0.27,0.08,0.88,-1.78,0.31,-0.78,
0.789,-0.29,0.08,0.89,-1.78,0.31,-0.78,
0.791,-0.31,0.09,0.90,-1.78,0.31,-0.78,
0.794,-0.33,0.08,0.90,-1.78,0.31,-0.78,
0.794,-0.33,0.08,0.90,-2.16,0.38,-0.67,
0.796,-0.35,0.08,0.91,-2.16,0.38,-0.67,
0.799,-0.36,0.08,0.92,-2.16,0.38,-0.67,
0.799,-0.36,0.08,0.92,-2.52,0.44,-0.49,
0.801,-0.37,0.07,0.93,-2.52,0.44,-0.49,
0.804,-0.37,0.07,0.93,-2.81,0.43,-0.31,
0.805,-0.38,0.07,0.94,-2.81,0.43,-0.31,
0.806,-0.39,0.07,0.95,-2.81,0.43,-0.31,
0.808,-0.39,0.07,0.96,-2.81,0.43,-0.31,
0.809,-0.39,0.07,0.96,-3.01,0.37,-0.15,
0.811,-0.39,0.06,0.97,-3.01,0.37,-0.15,
0.814,-0.39,0.06,0.98,-3.01,0.37,-0.15,
0.814,-0.39,0.06,0.98,-3.12,0.38,0.05,
0.816,-0.39,0.06,0.99,-3.12,0.38,0.05,
0.818,-0.39,0.06,1.00,-3.12,0.38,0.05,
0.819,-0.39,0.06,1.00,-3.13,0.35,0.25,
0.821,-0.39,0.06,1.00,-3.13,0.35,0.25,
0.824,-0.39,0.06,1.00,-3.12,0.34,0.44,
0.827,-0.38,0.05,1.01,-3.12,0.34,0.44,
0.827,-0.37,0.05,1.02,-3.12,0.34,0.44,
0.829,-0.37,0.05,1.02,-3.03,0.33,0.55,
0.829,-0.37,0.05,1.02,-3.03,0.33,0.55,
0.831,-0.36,0.05,1.03,-3.03,0.33,0.55,
0.834,-0.35,0.05,1.04,-3.03,0.33,0.55,
0.834,-0.35,0.05,1.04,-2.91,0.32,0.71,
0.836,-0.34,0.05,1.05,-2.91,0.32,0.71,
0.838,-0.33,0.05,1.05,-2.91,0.32,0.71,
0.839,-0.33,0.05,1.05,-2.71,0.34,0.83,
0.841,-0.32,0.05,1.06,-2.71,0.34,0.83,
0.844,-0.32,0.05,1.06,-2.52,0.36,0.96,
0.844,-0.31,0.04,1.07,-2.52,0.36,0.96,
0.846,-0.31,0.05,1.07,-2.52,0.36,0.96,
0.849,-0.31,0.05,1.08,-2.52,0.36,0.96,
0.849,-0.31,0.05,1.08,-2.32,0.34,1.08,
0.851,-0.30,0.04,1.08,-2.32,0.34,1.08,
0.853,-0.30,0.04,1.08,-2.19,0.35,1.18,
0.853,-0.30,0.04,1.09,-2.19,0.35,1.18,
0.855,-0.30,0.04,1.09,-2.19,0.35,1.18,
0.859,-0.30,0.03,1.09,-2.19,0.35,1.18,
0.859,-0.30,0.03,1.09,-2.11,0.33,1.30,
0.861,-0.30,0.03,1.09,-2.11,0.33,1.30,
0.863,-0.30,0.03,1.10,-2.11,0.33,1.30,
0.864,-0.30,0.03,1.10,-2.04,0.28,1.38,
0.866,-0.30,0.03,1.10,-2.04,0.28,1.38,
0.868,-0.30,0.03,1.10,-2.04,0.28,1.38,
0.868,-0.30,0.03,1.10,-2.04,0.25,1.40,
0.87,-0.30,0.03,1.11,-2.04,0.25,1.40,
0.873,-0.30,0.03,1.11,-2.04,0.25,1.40,
0.873,-0.30,0.03,1.11,-2.04,0.28,1.44,
0.876,-0.31,0.03,1.11,-2.04,0.28,1.44,
0.878,-0.31,0.03,1.11,-2.04,0.32,1.50,
0.878,-0.31,0.03,1.11,-2.04,0.32,1.50,
0.88,-0.31,0.03,1.10,-2.04,0.32,1.50,
0.883,-0.32,0.02,1.10,-2.04,0.32,1.50,
0.883,-0.32,0.02,1.10,-2.05,0.32,1.48,
0.885,-0.32,0.03,1.10,-2.05,0.32,1.48,
0.888,-0.32,0.02,1.09,-2.05,0.32,1.48,
0.888,-0.32,0.02,1.09,-2.12,0.27,1.46,
0.89,-0.33,0.02,1.09,-2.12,0.27,1.46,
0.893,-0.34,0.02,1.08,-2.12,0.27,1.46,
0.893,-0.34,0.02,1.08,-2.18,0.27,1.37,
0.895,-0.34,0.01,1.07,-2.18,0.27,1.37,
0.898,-0.34,0.01,1.07,-2.18,0.27,1.37,
0.898,-0.34,0.01,1.07,-2.30,0.26,1.24,
0.9,-0.35,0.01,1.07,-2.30,0.26,1.24,
0.905,-0.35,0.01,1.07,-2.36,0.20,1.15,
0.905,-0.35,0.01,1.06,-2.36,0.20,1.15,
0.906,-0.35,0.01,1.06,-2.36,0.20,1.15,
0.908,-0.35,0.00,1.05,-2.36,0.20,1.15,
0.908,-0.35,0.00,1.05,-2.42,0.16,1.03,
0.909,-0.35,0.00,1.04,-2.42,0.16,1.03,
0.912,-0.35,-0.00,1.03,-2.42,0.16,1.03,
0.912,-0.35,-0.00,1.03,-2.43,0.15,0.94,
0.914,-0.35,-0.01,1.03,-2.43,0.15,0.94,
0.917,-0.35,-0.01,1.03,-2.43,0.15,0.94,
0.917,-0.35,-0.01,1.03,-2.40,0.12,0.79,
0.921,-0.34,-0.02,1.02,-2.40,0.12,0.79,
0.922,-0.34,-0.03,1.02,-2.40,0.12,0.79,
0.922,-0.34,-0.03,1.02,-2.39,0.04,0.74,
0.924,-0.34,-0.04,1.02,-2.39,0.04,0.74,
0.927,-0.34,-0.04,1.02,-2.32,-0.10,0.63,
0.928,-0.34,-0.05,1.02,-2.32,-0.10,0.63,
0.929,-0.34,-0.05,1.03,-2.32,-0.10,0.63,
0.932,-0.33,-0.06,1.03,-2.32,-0.10,0.63,
0.932,-0.33,-0.06,1.03,-2.28,-0.25,0.63,
0.934,-0.33,-0.07,1.03,-2.28,-0.25,0.63,
0.937,-0.33,-0.08,1.03,-2.28,-0.25,0.63,
0.938,-0.33,-0.08,1.03,-2.23,-0.36,0.69,
0.939,-0.32,-0.08,1.03,-2.23,-0.36,0.69,
0.943,-0.32,-0.09,1.04,-2.23,-0.36,0.69,
0.943,-0.32,-0.09,1.04,-2.16,-0.53,0.69,
0.944,-0.32,-0.10,1.04,-2.16,-0.53,0.69,
0.947,-0.33,-0.10,1.03,-2.16,-0.53,0.69,
0.947,-0.33,-0.10,1.03,-2.08,-0.65,0.74,
0.949,-0.33,-0.10,1.04,-2.08,-0.65,0.74,
0.953,-0.33,-0.10,1.04,-2.10,-0.70,0.74,
0.954,-0.32,-0.11,1.04,-2.10,-0.70,0.74,
0.954,-0.32,-0.10,1.04,-2.10,-0.70,0.74,
0.957,-0.32,-0.10,1.04,-2.10,-0.70,0.74,
0.957,-0.32,-0.10,1.04,-2.06,-0.78,0.80,
0.959,-0.32,-0.10,1.04,-2.06,-0.78,0.80,
0.962,-0.31,-0.10,1.04,-2.06,-0.78,0.80,
0.962,-0.31,-0.10,1.04,-2.02,-0.73,0.77,
0.965,-0.30,-0.09,1.04,-2.02,-0.73,0.77,
0.966,-0.30,-0.09,1.04,-2.02,-0.73,0.77,
0.967,-0.30,-0.09,1.04,-1.93,-0.71,0.80,
0.97,-0.30,-0.08,1.03,-1.93,-0.71,0.80,
0.972,-0.30,-0.07,1.04,-1.93,-0.71,0.80,
0.972,-0.30,-0.07,1.04,-1.80,-0.59,0.77,
0.974,-0.31,-0.07,1.03,-1.80,-0.59,0.77,
0.977,-0.31,-0.07,1.03,-1.82,-0.43,0.74,
0.977,-0.30,-0.06,1.02,-1.82,-0.43,0.74,
0.979,-0.30,-0.06,1.02,-1.82,-0.43,0.74,
0.981,-0.31,-0.06,1.02,-1.82,-0.43,0.74,
0.982,-0.31,-0.06,1.02,-1.82,-0.33,0.61,
0.984,-0.30,-0.06,1.01,-1.82,-0.33,0.61,
0.986,-0.30,-0.06,1.01,-1.82,-0.33,0.61,
0.987,-0.30,-0.06,1.01,-1.81,-0.27,0.56,
0.989,-0.31,-0.06,1.00,-1.81,-0.27,0.56,
0.992,-0.31,-0.06,1.00,-1.81,-0.27,0.56,
0.993,-0.31,-0.06,1.00,-1.79,-0.26,0.49,
0.994,-0.32,-0.07,0.99,-1.79,-0.26,0.49,
0.997,-0.32,-0.07,0.99,-1.79,-0.26,0.49,
0.997,-0.32,-0.07,0.99,-1.84,-0.25,0.38,
0.999,-0.33,-0.08,0.99,-1.84,-0.25,0.38,
1.007,-0.33,-0.08,0.99,-1.98,-0.32,0.31,
1.008,-0.34,-0.09,0.98,-1.98,-0.32,0.31,
1.008,-0.35,-0.09,0.98,-1.98,-0.32,0.31,
1.008,-0.35,-0.10,0.98,-1.98,-0.32,0.31,
1.008,-0.35,-0.10,0.98,-2.15,-0.45,0.24,
1.009,-0.36,-0.10,0.98,-2.15,-0.45,0.24,
1.012,-0.36,-0.10,0.99,-2.15,-0.45,0.24,
1.012,-0.36,-0.10,0.99,-2.29,-0.52,0.20,
1.014,-0.36,-0.10,0.99,-2.29,-0.52,0.20,
1.017,-0.36,-0.09,1.00,-2.29,-0.52,0.20,
1.018,-0.36,-0.09,1.00,-2.37,-0.56,0.24,
1.018,-0.36,-0.09,1.01,-2.37,-0.56,0.24,
1.022,-0.36,-0.08,1.02,-2.37,-0.56,0.24,
1.023,-0.36,-0.08,1.02,-2.37,-0.51,0.37,
1.024,-0.36,-0.07,1.03,-2.37,-0.51,0.37,
1.026,-0.36,-0.07,1.03,-2.38,-0.36,0.52,
1.026,-0.36,-0.07,1.03,-2.38,-0.36,0.52,
1.029,-0.35,-0.06,1.04,-2.38,-0.36,0.52,
1.031,-0.36,-0.05,1.05,-2.38,-0.36,0.52,
1.031,-0.36,-0.05,1.05,-2.35,-0.19,0.68,
1.033,-0.35,-0.05,1.05,-2.35,-0.19,0.68,
1.037,-0.35,-0.05,1.05,-2.31,0.01,0.79,
1.039,-0.35,-0.05,1.06,-2.31,0.01,0.79,
1.039,-0.35,-0.04,1.06,-2.31,0.01,0.79,
1.041,-0.35,-0.04,1.06,-2.31,0.01,0.79,
1.041,-0.35,-0.04,1.06,-2.30,0.09,0.91,
1.043,-0.35,-0.04,1.06,-2.30,0.09,0.91,
1.047,-0.35,-0.03,1.07,-2.30,0.09,0.91,
1.047,-0.35,-0.03,1.07,-2.28,0.16,0.94,
1.048,-0.34,-0.03,1.08,-2.28,0.16,0.94,
1.051,-0.34,-0.03,1.08,-2.22,0.26,1.03,
1.052,-0.33,-0.03,1.09,-2.22,0.26,1.03,
1.053,-0.33,-0.03,1.09,-2.22,0.26,1.03,
1.057,-0.33,-0.03,1.09,-2.10,0.32,1.20,
1.057,-0.32,-0.03,1.10,-2.10,0.32,1.20,
1.059,-0.31,-0.02,1.10,-2.10,0.32,1.20,
1.062,-0.29,-0.03,1.11,-2.10,0.32,1.20,
1.062,-0.29,-0.03,1.11,-1.93,0.38,1.31,
1.064,-0.29,-0.03,1.11,-1.93,0.38,1.31,
1.066,-0.29,-0.04,1.11,-1.93,0.38,1.31,
1.067,-0.29,-0.04,1.11,-1.71,0.41,1.40,
1.069,-0.29,-0.06,1.11,-1.71,0.41,1.40,
1.071,-0.28,-0.07,1.10,-1.71,0.41,1.40,
1.071,-0.28,-0.07,1.10,-1.61,0.30,1.45,
1.073,-0.28,-0.09,1.10,-1.61,0.30,1.45,
1.076,-0.28,-0.09,1.10,-1.54,0.06,1.42,
1.077,-0.28,-0.10,1.10,-1.54,0.06,1.42,
1.078,-0.27,-0.11,1.10,-1.54,0.06,1.42,
1.081,-0.26,-0.13,1.10,-1.54,0.06,1.42,
1.081,-0.26,-0.13,1.10,-1.43,-0.19,1.35,
1.083,-0.25,-0.14,1.11,-1.43,-0.19,1.35,
1.088,-0.25,-0.14,1.11,-1.32,-0.45,1.37,
1.088,-0.24,-0.15,1.11,-1.32,-0.45,1.37,
1.089,-0.23,-0.15,1.10,-1.32,-0.45,1.37,
1.091,-0.22,-0.16,1.10,-1.32,-0.45,1.37,
1.091,-0.22,-0.16,1.10,-1.14,-0.63,1.41,
1.094,-0.21,-0.16,1.11,-1.14,-0.63,1.41,
1.096,-0.20,-0.17,1.11,-1.14,-0.63,1.41,
1.096,-0.20,-0.17,1.11,-0.89,-0.77,1.37,
1.098,-0.19,-0.17,1.12,-0.89,-0.77,1.37,
1.101,-0.19,-0.17,1.12,-0.68,-0.82,1.44,
1.101,-0.18,-0.18,1.12,-0.68,-0.82,1.44,
1.103,-0.18,-0.18,1.12,-0.68,-0.82,1.44,
1.106,-0.17,-0.18,1.13,-0.68,-0.82,1.44,
1.106,-0.17,-0.18,1.13,-0.49,-0.90,1.50,
1.108,-0.16,-0.19,1.12,-0.49,-0.90,1.50,
1.111,-0.16,-0.19,1.13,-0.49,-0.90,1.50,
1.111,-0.16,-0.19,1.13,-0.35,-0.96,1.59,
1.113,-0.16,-0.19,1.12,-0.35,-0.96,1.59,
1.116,-0.16,-0.19,1.12,-0.35,-0.96,1.59,
1.116,-0.16,-0.19,1.12,-0.23,-1.00,1.59,
1.118,-0.16,-0.19,1.12,-0.23,-1.00,1.59,
1.124,-0.17,-0.19,1.12,-0.23,-1.00,1.59,
1.125,-0.17,-0.19,1.12,-0.22,-0.99,1.56,
1.125,-0.17,-0.19,1.12,-0.22,-0.99,1.56,
1.125,-0.17,-0.19,1.12,-0.25,-0.96,1.51,
1.126,-0.18,-0.18,1.12,-0.25,-0.96,1.51,
1.128,-0.18,-0.17,1.11,-0.25,-0.96,1.51,
1.13,-0.18,-0.16,1.11,-0.25,-0.96,1.51,
1.131,-0.18,-0.16,1.11,-0.35,-0.91,1.53,
1.133,-0.19,-0.14,1.11,-0.35,-0.91,1.53,
1.136,-0.20,-0.12,1.10,-0.35,-0.91,1.53,
1.136,-0.20,-0.12,1.10,-0.43,-0.69,1.45,
1.138,-0.21,-0.11,1.09,-0.43,-0.69,1.45,
1.14,-0.22,-0.09,1.08,-0.43,-0.69,1.45,
1.14,-0.22,-0.09,1.08,-0.56,-0.36,1.32,
1.142,-0.23,-0.08,1.07,-0.56,-0.36,1.32,
1.146,-0.24,-0.06,1.06,-0.56,-0.36,1.32,
1.146,-0.24,-0.06,1.06,-0.73,-0.03,1.17,
1.148,-0.25,-0.05,1.05,-0.73,-0.03,1.17,
1.151,-0.25,-0.05,1.05,-0.94,0.27,0.95,
1.151,-0.26,-0.05,1.03,-0.94,0.27,0.95,
1.155,-0.27,-0.05,1.02,-0.94,0.27,0.95,
1.158,-0.27,-0.05,1.02,-1.17,0.47,0.71,
1.158,-0.28,-0.05,1.01,-1.17,0.47,0.71,
1.158,-0.29,-0.05,0.99,-1.17,0.47,0.71,
1.16,-0.29,-0.05,0.99,-1.37,0.52,0.44,
1.16,-0.29,-0.04,0.98,-1.37,0.52,0.44,
1.162,-0.29,-0.05,0.97,-1.37,0.52,0.44,
1.165,-0.30,-0.05,0.97,-1.37,0.52,0.44,
1.165,-0.30,-0.05,0.97,-1.52,0.53,0.19,
1.167,-0.29,-0.05,0.97,-1.52,0.53,0.19,
1.171,-0.29,-0.05,0.97,-1.52,0.53,0.19,
1.171,-0.29,-0.05,0.97,-1.54,0.52,0.05,
1.172,-0.28,-0.05,0.96,-1.54,0.52,0.05,
1.175,-0.28,-0.05,0.96,-1.49,0.52,0.05,
1.175,-0.27,-0.05,0.97,-1.49,0.52,0.05,
1.177,-0.26,-0.06,0.98,-1.49,0.52,0.05,
1.18,-0.24,-0.06,0.99,-1.49,0.52,0.05,
1.18,-0.24,-0.06,0.99,-1.29,0.53,-0.01,
1.182,-0.23,-0.07,1.00,-1.29,0.53,-0.01,
1.184,-0.21,-0.09,1.01,-1.29,0.53,-0.01,
1.185,-0.21,-0.09,1.01,-1.06,0.46,0.17,
1.187,-0.20,-0.09,1.02,-1.06,0.46,0.17,
1.189,-0.18,-0.11,1.03,-1.06,0.46,0.17,
1.19,-0.18,-0.11,1.03,-0.79,0.28,0.39,
1.192,-0.17,-0.12,1.04,-0.79,0.28,0.39,
1.194,-0.17,-0.12,1.04,-0.47,0.09,0.59,
1.195,-0.16,-0.13,1.06,-0.47,0.09,0.59,
1.196,-0.15,-0.15,1.08,-0.47,0.09,0.59,
1.199,-0.15,-0.15,1.08,-0.23,-0.11,0.85,
1.199,-0.14,-0.15,1.10,-0.23,-0.11,0.85,
1.201,-0.13,-0.16,1.11,-0.23,-0.11,0.85,
1.205,-0.12,-0.17,1.13,-0.23,-0.11,0.85,
1.205,-0.12,-0.17,1.13,-0.03,-0.31,1.18,
1.206,-0.12,-0.18,1.14,-0.03,-0.31,1.18,
1.209,-0.11,-0.18,1.15,-0.03,-0.31,1.18,
1.21,-0.11,-0.18,1.15,0.15,-0.46,1.53,
1.212,-0.11,-0.19,1.15,0.15,-0.46,1.53,
1.215,-0.11,-0.19,1.16,0.15,-0.46,1.53,
1.215,-0.11,-0.19,1.16,0.24,-0.54,1.74,
1.216,-0.12,-0.20,1.17,0.24,-0.54,1.74,
1.225,-0.12,-0.20,1.18,0.24,-0.54,1.74,
1.225,-0.12,-0.20,1.18,0.29,-0.59,1.86,
1.225,-0.12,-0.21,1.18,0.29,-0.59,1.86,
1.226,-0.12,-0.21,1.18,0.23,-0.67,2.04,
1.226,-0.13,-0.21,1.18,0.23,-0.67,2.04,
1.227,-0.13,-0.21,1.18,0.23,-0.67,2.04,
1.229,-0.13,-0.21,1.18,0.23,-0.67,2.04,
1.229,-0.13,-0.21,1.18,0.19,-0.76,2.09,
1.231,-0.13,-0.21,1.18,0.19,-0.76,2.09,
1.234,-0.14,-0.20,1.17,0.19,-0.76,2.09,
1.234,-0.14,-0.20,1.17,0.12,-0.70,2.08,
1.237,-0.15,-0.20,1.16,0.12,-0.70,2.08,
1.239,-0.16,-0.19,1.16,0.12,-0.70,2.08,
1.239,-0.16,-0.19,1.16,0.04,-0.63,2.02,
1.241,-0.17,-0.19,1.14,0.04,-0.63,2.02,
1.244,-0.19,-0.18,1.12,0.04,-0.63,2.02,
1.244,-0.19,-0.18,1.12,-0.16,-0.52,1.87,
1.246,-0.21,-0.18,1.11,-0.16,-0.52,1.87,
1.249,-0.21,-0.18,1.11,-0.41,-0.39,1.63,
1.249,-0.22,-0.17,1.10,-0.41,-0.39,1.63,
1.251,-0.22,-0.16,1.08,-0.41,-0.39,1.63,
1.254,-0.23,-0.15,1.07,-0.41,-0.39,1.63,
1.254,-0.23,-0.15,1.07,-0.70,-0.27,1.36,
1.257,-0.23,-0.14,1.06,-0.70,-0.27,1.36,
1.259,-0.23,-0.14,1.06,-0.86,-0.11,1.06,
1.259,-0.24,-0.13,1.05,-0.86,-0.11,1.06,
1.261,-0.25,-0.13,1.04,-0.86,-0.11,1.06,
1.264,-0.25,-0.13,1.04,-0.98,0.08,0.87,
1.264,-0.25,-0.12,1.03,-0.98,0.08,0.87,
1.266,-0.26,-0.12,1.03,-0.98,0.08,0.87,
1.269,-0.27,-0.12,1.03,-0.98,0.08,0.87,
1.269,-0.27,-0.12,1.03,-1.08,0.20,0.67,
1.271,-0.29,-0.12,1.02,-1.08,0.20,0.67,
1.274,-0.29,-0.12,1.02,-1.28,0.24,0.57,
1.275,-0.29,-0.13,1.02,-1.28,0.24,0.57,
1.276,-0.30,-0.14,1.02,-1.28,0.24,0.57,
1.278,-0.30,-0.14,1.02,-1.46,0.20,0.49,
1.279,-0.30,-0.14,1.02,-1.46,0.20,0.49,
1.281,-0.30,-0.15,1.03,-1.46,0.20,0.49,
1.283,-0.30,-0.16,1.03,-1.46,0.20,0.49,
1.284,-0.30,-0.16,1.03,-1.56,0.06,0.48,
1.286,-0.30,-0.16,1.04,-1.56,0.06,0.48,
1.29,-0.29,-0.17,1.05,-1.56,0.06,0.48,
1.291,-0.29,-0.17,1.05,-1.55,-0.05,0.60,
1.291,-0.29,-0.17,1.06,-1.55,-0.05,0.60,
1.293,-0.29,-0.17,1.06,-1.50,-0.16,0.74,
1.295,-0.27,-0.18,1.06,-1.50,-0.16,0.74,
1.295,-0.26,-0.19,1.07,-1.50,-0.16,0.74,
1.298,-0.26,-0.19,1.07,-1.33,-0.23,0.87,
1.298,-0.25,-0.19,1.08,-1.33,-0.23,0.87,
1.3,-0.24,-0.19,1.08,-1.33,-0.23,0.87,
1.309,-0.23,-0.20,1.09,-1.33,-0.23,0.87,
1.31,-0.23,-0.20,1.09,-1.10,-0.35,1.01,
1.31,-0.21,-0.20,1.10,-1.10,-0.35,1.01,
1.31,-0.20,-0.21,1.10,-1.10,-0.35,1.01,
1.31,-0.20,-0.21,1.10,-0.84,-0.42,1.15,
1.311,-0.18,-0.21,1.11,-0.84,-0.42,1.15,
1.313,-0.17,-0.21,1.11,-0.84,-0.42,1.15,
1.314,-0.17,-0.21,1.11,-0.53,-0.49,1.30,
1.315,-0.15,-0.21,1.11,-0.53,-0.49,1.30,
1.318,-0.14,-0.21,1.11,-0.53,-0.49,1.30,
1.324,-0.14,-0.21,1.11,-0.24,-0.54,1.38,
1.324,-0.12,-0.22,1.11,-0.24,-0.54,1.38,
1.324,-0.12,-0.22,1.11,0.12,-0.55,1.38,
1.325,-0.11,-0.21,1.12,0.12,-0.55,1.38,
1.327,-0.10,-0.22,1.13,0.12,-0.55,1.38,
1.328,-0.10,-0.21,1.12,0.12,-0.55,1.38,
1.329,-0.10,-0.21,1.12,0.36,-0.56,1.44,
1.331,-0.09,-0.21,1.12,0.36,-0.56,1.44,
1.333,-0.09,-0.20,1.12,0.36,-0.56,1.44,
1.334,-0.09,-0.20,1.12,0.56,-0.54,1.53,
1.336,-0.08,-0.20,1.12,0.56,-0.54,1.53,
1.339,-0.08,-0.20,1.11,0.56,-0.54,1.53,
1.34,-0.08,-0.20,1.11,0.70,-0.45,1.51,
1.34,-0.08,-0.20,1.11,0.70,-0.45,1.51,
1.343,-0.08,-0.19,1.10,0.70,-0.45,1.51,
1.344,-0.08,-0.19,1.10,0.79,-0.37,1.46,
1.347,-0.09,-0.19,1.10,0.79,-0.37,1.46,
1.348,-0.09,-0.19,1.10,0.78,-0.35,1.35,
1.348,-0.09,-0.19,1.10,0.78,-0.35,1.35,
1.35,-0.10,-0.19,1.09,0.78,-0.35,1.35,
1.353,-0.11,-0.19,1.08,0.78,-0.35,1.35,
1.354,-0.11,-0.19,1.08,0.72,-0.29,1.27,
1.355,-0.12,-0.19,1.07,0.72,-0.29,1.27,
1.358,-0.13,-0.19,1.07,0.72,-0.29,1.27,
1.358,-0.13,-0.19,1.07,0.59,-0.29,1.16,
1.361,-0.13,-0.19,1.06,0.59,-0.29,1.16,
1.363,-0.14,-0.19,1.05,0.59,-0.29,1.16,
1.364,-0.14,-0.19,1.05,0.43,-0.30,1.00,
1.366,-0.14,-0.19,1.04,0.43,-0.30,1.00,
1.368,-0.14,-0.19,1.04,0.31,-0.29,0.85,
1.368,-0.15,-0.19,1.04,0.31,-0.29,0.85,
1.371,-0.16,-0.19,1.04,0.31,-0.29,0.85,
1.373,-0.16,-0.19,1.04,0.18,-0.29,0.71,
1.373,-0.17,-0.19,1.03,0.18,-0.29,0.71,
1.375,-0.17,-0.19,1.03,0.18,-0.29,0.71,
1.378,-0.18,-0.19,1.03,0.18,-0.29,0.71,
1.378,-0.18,-0.19,1.03,0.07,-0.31,0.67,
1.381,-0.19,-0.19,1.04,0.07,-0.31,0.67,
1.383,-0.19,-0.19,1.04,-0.06,-0.33,0.61,
1.384,-0.20,-0.20,1.03,-0.06,-0.33,0.61,
1.386,-0.20,-0.19,1.04,-0.06,-0.33,0.61,
1.389,-0.20,-0.19,1.05,-0.06,-0.33,0.61,
1.39,-0.20,-0.19,1.05,-0.19,-0.39,0.64,
1.39,-0.20,-0.19,1.05,-0.19,-0.39,0.64,
1.393,-0.21,-0.19,1.06,-0.19,-0.39,0.64,
1.394,-0.21,-0.19,1.06,-0.27,-0.37,0.72,
1.395,-0.21,-0.19,1.06,-0.27,-0.37,0.72,
1.398,-0.21,-0.19,1.06,-0.27,-0.36,0.84,
1.398,-0.21,-0.19,1.07,-0.27,-0.36,0.84,
1.4,-0.20,-0.19,1.07,-0.27,-0.36,0.84,
1.403,-0.20,-0.19,1.08,-0.27,-0.36,0.84,
1.403,-0.20,-0.19,1.08,-0.28,-0.35,0.94,
1.405,-0.20,-0.19,1.08,-0.28,-0.35,0.94,
1.407,-0.19,-0.19,1.08,-0.28,-0.35,0.94,
1.408,-0.19,-0.19,1.08,-0.23,-0.33,1.04,
1.41,-0.19,-0.19,1.09,-0.23,-0.33,1.04,
1.413,-0.19,-0.19,1.09,-0.16,-0.33,1.10,
1.413,-0.18,-0.19,1.08,-0.16,-0.33,1.10,
1.415,-0.18,-0.20,1.09,-0.16,-0.33,1.10,
1.418,-0.17,-0.20,1.09,-0.16,-0.33,1.10,
1.418,-0.17,-0.20,1.09,-0.04,-0.32,1.14,
1.42,-0.16,-0.20,1.09,-0.04,-0.32,1.14,
1.422,-0.16,-0.20,1.09,0.10,-0.38,1.22,
1.423,-0.15,-0.20,1.09,0.10,-0.38,1.22,
1.425,-0.14,-0.21,1.10,0.10,-0.38,1.22,
1.428,-0.14,-0.21,1.11,0.10,-0.38,1.22,
1.428,-0.14,-0.21,1.11,0.25,-0.42,1.20,
1.43,-0.13,-0.22,1.11,0.25,-0.42,1.20,
1.433,-0.13,-0.22,1.11,0.25,-0.42,1.20,
1.433,-0.13,-0.22,1.11,0.43,-0.51,1.32,
1.435,-0.12,-0.22,1.12,0.43,-0.51,1.32,
1.443,-0.12,-0.23,1.12,0.43,-0.51,1.32,
1.443,-0.12,-0.23,1.12,0.54,-0.58,1.39,
1.444,-0.11,-0.23,1.13,0.54,-0.58,1.39,
1.444,-0.11,-0.24,1.13,0.54,-0.58,1.39,
1.444,-0.11,-0.24,1.13,0.64,-0.64,1.46,
1.444,-0.12,-0.24,1.13,0.64,-0.64,1.46,
1.447,-0.12,-0.24,1.13,0.66,-0.73,1.56,
1.447,-0.11,-0.24,1.13,0.66,-0.73,1.56,
1.449,-0.11,-0.25,1.14,0.66,-0.73,1.56,
1.453,-0.12,-0.25,1.14,0.66,-0.73,1.56,
1.454,-0.12,-0.25,1.14,0.69,-0.79,1.58,
1.456,-0.12,-0.26,1.14,0.69,-0.79,1.58,
1.457,-0.12,-0.26,1.15,0.69,-0.79,1.58,
1.457,-0.12,-0.26,1.15,0.66,-0.85,1.67,
1.459,-0.13,-0.26,1.16,0.66,-0.85,1.67,
1.462,-0.13,-0.26,1.16,0.61,-0.95,1.68,
1.462,-0.13,-0.26,1.15,0.61,-0.95,1.68,
1.464,-0.14,-0.26,1.15,0.61,-0.95,1.68,
1.467,-0.14,-0.26,1.16,0.61,-0.95,1.68,
1.467,-0.14,-0.26,1.16,0.54,-0.99,1.80,
1.469,-0.15,-0.25,1.17,0.54,-0.99,1.80,
1.472,-0.15,-0.25,1.17,0.46,-0.97,1.79,
1.472,-0.15,-0.25,1.17,0.46,-0.97,1.79,
1.474,-0.16,-0.24,1.18,0.46,-0.97,1.79,
1.476,-0.16,-0.24,1.17,0.46,-0.97,1.79,
1.477,-0.16,-0.24,1.17,0.34,-0.85,1.93,
1.479,-0.16,-0.23,1.18,0.34,-0.85,1.93,
1.482,-0.16,-0.22,1.17,0.34,-0.85,1.93,
1.482,-0.16,-0.22,1.17,0.30,-0.76,1.99,
1.484,-0.16,-0.21,1.17,0.30,-0.76,1.99,
1.486,-0.16,-0.21,1.16,0.30,-0.76,1.99,
1.487,-0.16,-0.21,1.16,0.27,-0.62,1.97,
1.489,-0.16,-0.21,1.16,0.27,-0.62,1.97,
1.491,-0.15,-0.21,1.15,0.27,-0.62,1.97,
1.492,-0.15,-0.21,1.15,0.25,-0.51,1.87,
1.494,-0.15,-0.20,1.13,0.25,-0.51,1.87,
1.497,-0.15,-0.20,1.13,0.35,-0.49,1.79,
1.497,-0.14,-0.20,1.13,0.35,-0.49,1.79,
1.499,-0.12,-0.20,1.12,0.35,-0.49,1.79,
1.501,-0.12,-0.20,1.12,0.51,-0.46,1.53,
1.501,-0.10,-0.20,1.11,0.51,-0.46,1.53,
1.503,-0.09,-0.21,1.10,0.51,-0.46,1.53,
1.506,-0.08,-0.21,1.10,0.51,-0.46,1.53,
1.507,-0.08,-0.21,1.10,0.78,-0.44,1.38,
1.508,-0.06,-0.21,1.09,0.78,-0.44,1.38,
1.511,-0.06,-0.21,1.09,1.07,-0.54,1.22,
1.511,-0.04,-0.21,1.09,1.07,-0.54,1.22,
1.513,-0.02,-0.21,1.08,1.07,-0.54,1.22,
1.516,-0.00,-0.21,1.09,1.07,-0.54,1.22,
1.516,-0.00,-0.21,1.09,1.41,-0.59,1.15,
1.518,0.01,-0.21,1.08,1.41,-0.59,1.15,
1.522,0.01,-0.21,1.08,1.77,-0.62,1.04,
1.523,0.02,-0.21,1.07,1.77,-0.62,1.04,
1.523,0.04,-0.22,1.07,1.77,-0.62,1.04,
1.526,0.05,-0.21,1.07,1.77,-0.62,1.04,
1.526,0.05,-0.21,1.07,2.03,-0.63,0.94,
1.528,0.06,-0.21,1.07,2.03,-0.63,0.94,
1.531,0.06,-0.21,1.07,2.03,-0.63,0.94,
1.531,0.06,-0.21,1.07,2.31,-0.64,0.91,
1.533,0.07,-0.22,1.07,2.31,-0.64,0.91,
1.537,0.07,-0.22,1.08,2.31,-0.64,0.91,
1.537,0.07,-0.22,1.08,2.45,-0.67,0.93,
1.539,0.07,-0.23,1.08,2.45,-0.67,0.93,
1.541,0.07,-0.22,1.08,2.45,-0.67,0.93,
1.541,0.07,-0.22,1.08,2.55,-0.73,0.96,
1.543,0.06,-0.22,1.08,2.55,-0.73,0.96,
1.546,0.06,-0.22,1.08,2.55,-0.78,0.97,
1.546,0.06,-0.22,1.08,2.55,-0.78,0.97,
1.548,0.05,-0.22,1.08,2.55,-0.78,0.97,
1.551,0.05,-0.22,1.08,2.55,-0.78,0.97,
1.551,0.05,-0.22,1.08,2.49,-0.79,1.02,
1.554,0.05,-0.22,1.08,2.49,-0.79,1.02,
1.56,0.04,-0.21,1.09,2.49,-0.79,1.02,
1.56,0.04,-0.21,1.09,2.41,-0.78,1.02,
1.56,0.03,-0.21,1.10,2.41,-0.78,1.02,
1.561,0.03,-0.21,1.09,2.41,-0.78,1.02,
1.561,0.03,-0.21,1.09,2.33,-0.72,1.06,
1.563,0.03,-0.20,1.09,2.33,-0.72,1.06,
1.566,0.02,-0.20,1.09,2.33,-0.72,1.06,
1.566,0.02,-0.20,1.09,2.24,-0.68,1.12,
1.568,0.03,-0.20,1.09,2.24,-0.68,1.12,
1.571,0.03,-0.20,1.09,2.21,-0.62,1.10,
1.571,0.02,-0.20,1.10,2.21,-0.62,1.10,
1.573,0.02,-0.20,1.10,2.21,-0.62,1.10,
1.576,0.02,-0.20,1.11,2.21,-0.62,1.10,
1.576,0.02,-0.20,1.11,2.16,-0.61,1.15,
1.578,0.01,-0.20,1.11,2.16,-0.61,1.15,
1.581,0.01,-0.20,1.09,2.16,-0.61,1.15,
1.581,0.01,-0.20,1.09,2.14,-0.59,1.21,
1.583,0.01,-0.20,1.09,2.14,-0.59,1.21,
1.585,0.01,-0.20,1.10,2.14,-0.59,1.21,
1.586,0.01,-0.20,1.10,2.06,-0.60,1.19,
1.588,0.00,-0.20,1.10,2.06,-0.60,1.19,
1.591,-0.00,-0.20,1.10,2.06,-0.60,1.19,
1.592,-0.00,-0.20,1.10,2.00,-0.59,1.14,
1.593,-0.00,-0.21,1.10,2.00,-0.59,1.14,
1.596,-0.00,-0.21,1.10,1.95,-0.62,1.14,
1.596,-0.02,-0.21,1.10,1.95,-0.62,1.14,
1.597,-0.01,-0.20,1.10,1.95,-0.62,1.14,
1.6,-0.02,-0.20,1.10,1.95,-0.62,1.14,
1.601,-0.02,-0.20,1.10,1.83,-0.68,1.14,
1.602,-0.03,-0.20,1.10,1.83,-0.68,1.14,
1.606,-0.02,-0.20,1.11,1.83,-0.68,1.14,
1.607,-0.02,-0.20,1.11,1.75,-0.65,1.18,
1.608,-0.03,-0.20,1.11,1.75,-0.65,1.18,
1.61,-0.03,-0.20,1.11,1.75,-0.65,1.18,
1.61,-0.03,-0.20,1.11,1.67,-0.61,1.21,
1.613,-0.03,-0.19,1.12,1.67,-0.61,1.21,
1.615,-0.03,-0.19,1.12,1.62,-0.58,1.29,
1.615,-0.03,-0.19,1.12,1.62,-0.58,1.29,
1.617,-0.04,-0.19,1.12,1.62,-0.58,1.29,
1.62,-0.04,-0.19,1.12,1.59,-0.52,1.33,
1.62,-0.04,-0.19,1.12,1.59,-0.52,1.33,
1.623,-0.04,-0.19,1.12,1.59,-0.52,1.33,
1.625,-0.04,-0.19,1.13,1.59,-0.52,1.33,
1.625,-0.04,-0.19,1.13,1.49,-0.55,1.38,
1.627,-0.04,-0.19,1.13,1.49,-0.55,1.38,
1.63,-0.04,-0.19,1.13,1.45,-0.54,1.39,
1.63,-0.04,-0.19,1.13,1.45,-0.54,1.39,
1.632,-0.04,-0.20,1.12,1.45,-0.54,1.39,
1.635,-0.03,-0.19,1.13,1.45,-0.54,1.39,
1.635,-0.03,-0.19,1.13,1.47,-0.56,1.42,
1.637,-0.03,-0.19,1.13,1.47,-0.56,1.42,
1.643,-0.03,-0.20,1.12,1.47,-0.56,1.42,
1.644,-0.03,-0.20,1.12,1.48,-0.59,1.41,
1.644,-0.02,-0.19,1.11,1.48,-0.59,1.41,
1.645,-0.02,-0.19,1.11,1.55,-0.59,1.36,
1.645,-0.02,-0.20,1.10,1.55,-0.59,1.36,
1.647,-0.02,-0.20,1.09,1.55,-0.59,1.36,
1.65,-0.02,-0.21,1.08,1.55,-0.59,1.36,
1.65,-0.02,-0.21,1.08,1.63,-0.60,1.16,
1.652,-0.02,-0.21,1.07,1.63,-0.60,1.16,
1.657,-0.02,-0.22,1.07,1.63,-0.60,1.16,
1.658,-0.02,-0.22,1.07,1.57,-0.69,0.96,
1.658,-0.02,-0.22,1.08,1.57,-0.69,0.96,
1.661,-0.01,-0.22,1.08,1.57,-0.69,0.96,
1.662,-0.01,-0.22,1.08,1.54,-0.83,0.81,
1.662,-0.01,-0.22,1.07,1.54,-0.83,0.81,
1.665,-0.00,-0.21,1.07,1.54,-0.83,0.81,
1.665,-0.00,-0.21,1.07,1.58,-0.88,0.88,
1.667,0.00,-0.21,1.07,1.58,-0.88,0.88,
1.67,0.00,-0.21,1.07,1.68,-0.85,0.82,
1.67,0.01,-0.20,1.07,1.68,-0.85,0.82,
1.672,0.01,-0.19,1.08,1.68,-0.85,0.82,
1.677,0.01,-0.19,1.08,1.80,-0.76,0.83,
1.677,0.02,-0.19,1.08,1.80,-0.76,0.83,
1.677,0.02,-0.19,1.08,1.80,-0.76,0.83,
1.68,0.02,-0.19,1.08,1.85,-0.65,0.87,
1.681,0.02,-0.18,1.09,1.85,-0.65,0.87,
1.682,0.02,-0.18,1.08,1.85,-0.65,0.87,
1.685,0.01,-0.18,1.08,1.85,-0.65,0.87,
1.686,0.01,-0.18,1.08,1.89,-0.59,0.92,
1.687,0.01,-0.19,1.07,1.89,-0.59,0.92,
1.691,0.02,-0.18,1.08,1.89,-0.59,0.92,
1.692,0.02,-0.18,1.08,1.84,-0.59,0.87,
1.692,0.02,-0.19,1.08,1.84,-0.59,0.87,
1.695,0.02,-0.19,1.08,1.87,-0.65,0.84,
1.695,0.02,-0.19,1.08,1.87,-0.65,0.84,
1.697,0.03,-0.18,1.07,1.87,-0.65,0.84,
1.7,0.03,-0.18,1.06,1.87,-0.65,0.84,
1.7,0.03,-0.18,1.06,1.93,-0.70,0.85,
1.702,0.04,-0.18,1.06,1.93,-0.70,0.85,
1.705,0.04,-0.18,1.06,2.03,-0.69,0.73,
1.705,0.04,-0.18,1.06,2.03,-0.69,0.73,
1.707,0.04,-0.18,1.05,2.03,-0.69,0.73,
1.71,0.04,-0.18,1.05,2.10,-0.69,0.65,
1.71,0.04,-0.18,1.05,2.10,-0.69,0.65,
1.712,0.04,-0.17,1.04,2.10,-0.69,0.65,
1.715,0.04,-0.18,1.04,2.10,-0.69,0.65,
1.715,0.04,-0.18,1.04,2.10,-0.66,0.56,
1.717,0.04,-0.18,1.04,2.10,-0.66,0.56,
1.72,0.04,-0.18,1.04,2.09,-0.66,0.48,
1.72,0.03,-0.18,1.04,2.09,-0.66,0.48,
1.722,0.04,-0.18,1.04,2.09,-0.66,0.48,
1.724,0.04,-0.18,1.03,2.09,-0.66,0.48,
1.724,0.04,-0.18,1.03,2.04,-0.73,0.48,
1.727,0.04,-0.17,1.02,2.04,-0.73,0.48,
1.73,0.04,-0.17,1.02,2.04,-0.73,0.48,
1.73,0.04,-0.17,1.02,2.03,-0.72,0.38,
1.732,0.03,-0.17,1.02,2.03,-0.72,0.38,
1.735,0.03,-0.16,1.01,2.03,-0.72,0.38,
1.735,0.03,-0.16,1.01,2.00,-0.66,0.27,
1.737,0.03,-0.17,1.01,2.00,-0.66,0.27,
1.741,0.03,-0.16,1.01,2.00,-0.66,0.27,
1.741,0.03,-0.16,1.01,1.91,-0.61,0.19,
1.742,0.02,-0.16,1.01,1.91,-0.61,0.19,
1.744,0.02,-0.16,1.01,1.85,-0.61,0.13,
1.744,0.01,-0.16,1.01,1.85,-0.61,0.13,
1.747,0.01,-0.16,1.02,1.85,-0.61,0.13,
1.75,0.01,-0.15,1.02,1.85,-0.61,0.13,
1.75,0.01,-0.15,1.02,1.71,-0.56,0.17,
1.752,0.00,-0.15,1.02,1.71,-0.56,0.17,
1.754,-0.00,-0.15,1.02,1.71,-0.56,0.17,
1.755,-0.00,-0.15,1.02,1.61,-0.53,0.19,
1.756,-0.01,-0.15,1.01,1.61,-0.53,0.19,
1.759,-0.01,-0.15,1.01,1.49,-0.47,0.19,
1.759,-0.02,-0.15,1.02,1.49,-0.47,0.19,
1.762,-0.02,-0.14,1.02,1.49,-0.47,0.19,
1.764,-0.03,-0.14,1.01,1.49,-0.47,0.19,
1.765,-0.03,-0.14,1.01,1.34,-0.45,0.13,
1.766,-0.03,-0.15,1.02,1.34,-0.45,0.13,
1.769,-0.03,-0.15,1.02,1.19,-0.41,0.17,
1.77,-0.04,-0.15,1.02,1.19,-0.41,0.17,
1.771,-0.05,-0.15,1.03,1.19,-0.41,0.17,
1.777,-0.05,-0.15,1.04,1.19,-0.41,0.17,
1.778,-0.05,-0.15,1.04,1.02,-0.47,0.22,
1.778,-0.06,-0.15,1.05,1.02,-0.47,0.22,
1.779,-0.06,-0.14,1.07,1.02,-0.47,0.22,
1.779,-0.06,-0.14,1.07,0.83,-0.47,0.40,
1.781,-0.05,-0.14,1.07,0.83,-0.47,0.40,
1.784,-0.05,-0.14,1.07,0.78,-0.47,0.58,
1.784,-0.05,-0.14,1.08,0.78,-0.47,0.58,
1.786,-0.04,-0.14,1.09,0.78,-0.47,0.58,
1.789,-0.04,-0.13,1.11,0.78,-0.47,0.58,
1.789,-0.04,-0.13,1.11,0.81,-0.42,0.76,
1.792,-0.04,-0.13,1.13,0.81,-0.42,0.76,
1.794,-0.04,-0.13,1.13,0.86,-0.35,0.98,
1.794,-0.03,-0.13,1.13,0.86,-0.35,0.98,
1.796,-0.03,-0.13,1.13,0.86,-0.35,0.98,
1.799,-0.02,-0.13,1.14,0.86,-0.35,0.98,
1.799,-0.02,-0.13,1.14,0.93,-0.29,1.23,
1.801,-0.02,-0.14,1.14,0.93,-0.29,1.23,
1.804,-0.01,-0.13,1.14,0.93,-0.29,1.23,
1.804,-0.01,-0.13,1.14,1.02,-0.29,1.29,
1.806,-0.00,-0.13,1.14,1.02,-0.29,1.29,
1.808,0.00,-0.13,1.13,1.02,-0.29,1.29,
1.809,0.00,-0.13,1.13,1.08,-0.34,1.36,
1.811,0.00,-0.13,1.13,1.08,-0.34,1.36,
1.814,0.01,-0.13,1.12,1.08,-0.34,1.36,
1.818,0.01,-0.13,1.12,1.20,-0.31,1.29,
1.818,0.02,-0.12,1.11,1.20,-0.31,1.29,
1.818,0.02,-0.12,1.11,1.25,-0.34,1.18,
1.818,0.03,-0.12,1.10,1.25,-0.34,1.18,
1.821,0.03,-0.11,1.10,1.25,-0.34,1.18,
1.825,0.03,-0.11,1.09,1.25,-0.34,1.18,
1.826,0.03,-0.11,1.09,1.39,-0.29,0.97,
1.826,0.04,-0.11,1.08,1.39,-0.29,0.97,
1.828,0.04,-0.11,1.07,1.39,-0.29,0.97,
1.828,0.04,-0.11,1.07,1.43,-0.23,0.85,
1.83,0.05,-0.11,1.06,1.43,-0.23,0.85,
1.833,0.06,-0.10,1.05,1.43,-0.23,0.85,
1.833,0.06,-0.10,1.05,1.52,-0.19,0.67,
1.835,0.06,-0.10,1.04,1.52,-0.19,0.67,
1.838,0.06,-0.10,1.03,1.52,-0.19,0.67,
1.838,0.06,-0.10,1.03,1.62,-0.21,0.48,
1.841,0.05,-0.10,1.02,1.62,-0.21,0.48,
1.844,0.05,-0.10,1.02,1.64,-0.22,0.25,
1.844,0.06,-0.10,1.02,1.64,-0.22,0.25,
1.845,0.06,-0.11,1.01,1.64,-0.22,0.25,
1.848,0.06,-0.11,1.00,1.64,-0.22,0.25,
1.848,0.06,-0.11,1.00,1.62,-0.27,0.10,
1.85,0.07,-0.11,0.99,1.62,-0.27,0.10,
1.853,0.07,-0.11,0.99,1.66,-0.37,-0.04,
1.853,0.07,-0.11,0.99,1.66,-0.37,-0.04,
1.855,0.07,-0.11,0.99,1.66,-0.37,-0.04,
1.858,0.08,-0.11,0.99,1.66,-0.37,-0.04,
1.858,0.08,-0.11,0.99,1.68,-0.38,-0.16,
1.86,0.08,-0.11,0.99,1.68,-0.38,-0.16,
1.863,0.08,-0.10,0.99,1.68,-0.38,-0.16,
1.863,0.08,-0.10,0.99,1.73,-0.40,-0.15,
1.865,0.09,-0.10,0.98,1.73,-0.40,-0.15,
1.868,0.09,-0.10,0.98,1.79,-0.38,-0.18,
1.868,0.09,-0.10,0.98,1.79,-0.38,-0.18,
1.87,0.09,-0.10,0.98,1.79,-0.38,-0.18,
1.878,0.10,-0.10,0.98,1.79,-0.38,-0.18,
1.879,0.10,-0.10,0.98,1.84,-0.34,-0.26,
1.879,0.10,-0.10,0.97,1.84,-0.34,-0.26,
1.879,0.10,-0.10,0.96,1.84,-0.34,-0.26,
1.879,0.10,-0.10,0.96,1.87,-0.37,-0.30,
1.88,0.10,-0.10,0.96,1.87,-0.37,-0.30,
1.883,0.10,-0.10,0.96,1.91,-0.39,-0.44,
1.883,0.10,-0.10,0.96,1.91,-0.39,-0.44,
1.885,0.10,-0.11,0.96,1.91,-0.39,-0.44,
1.888,0.10,-0.11,0.95,1.91,-0.39,-0.44,
1.888,0.10,-0.11,0.95,1.89,-0.44,-0.47,
1.891,0.10,-0.11,0.96,1.89,-0.44,-0.47,
1.894,0.10,-0.11,0.95,1.89,-0.44,-0.47,
1.894,0.10,-0.11,0.95,1.86,-0.48,-0.52,
1.895,0.10,-0.11,0.95,1.86,-0.48,-0.52,
1.897,0.09,-0.11,0.95,1.86,-0.48,-0.52,
1.898,0.09,-0.11,0.95,1.81,-0.49,-0.55,
1.9,0.09,-0.11,0.95,1.81,-0.49,-0.55,
1.903,0.08,-0.10,0.95,1.81,-0.49,-0.55,
1.903,0.08,-0.10,0.95,1.72,-0.50,-0.56,
1.905,0.08,-0.10,0.96,1.72,-0.50,-0.56,
1.909,0.08,-0.11,0.96,1.72,-0.50,-0.56,
1.91,0.08,-0.11,0.96,1.62,-0.47,-0.59,
1.91,0.07,-0.11,0.96,1.62,-0.47,-0.59,
1.912,0.07,-0.11,0.97,1.62,-0.47,-0.59,
1.912,0.07,-0.11,0.97,1.50,-0.48,-0.52,
1.915,0.07,-0.11,0.97,1.50,-0.48,-0.52,
1.917,0.07,-0.11,0.97,1.41,-0.51,-0.43,
1.918,0.06,-0.11,0.98,1.41,-0.51,-0.43,
1.919,0.06,-0.11,0.99,1.41,-0.51,-0.43,
1.924,0.06,-0.11,0.99,1.41,-0.51,-0.43,
1.925,0.06,-0.11,0.99,1.30,-0.52,-0.35,
1.925,0.05,-0.12,0.99,1.30,-0.52,-0.35,
1.927,0.04,-0.11,0.99,1.30,-0.52,-0.35,
1.928,0.04,-0.11,0.99,1.20,-0.53,-0.21,
1.929,0.04,-0.11,1.00,1.20,-0.53,-0.21,
1.932,0.04,-0.11,1.00,1.04,-0.56,-0.18,
1.932,0.04,-0.11,1.00,1.04,-0.56,-0.18,
1.934,0.04,-0.11,1.01,1.04,-0.56,-0.18,
1.937,0.04,-0.11,1.01,1.04,-0.56,-0.18,
1.937,0.04,-0.11,1.01,1.01,-0.54,-0.11,
1.939,0.03,-0.11,1.02,1.01,-0.54,-0.11,
1.942,0.03,-0.11,1.02,0.96,-0.55,-0.00,
1.942,0.03,-0.12,1.02,0.96,-0.55,-0.00,
1.944,0.03,-0.11,1.02,0.96,-0.55,-0.00,
1.947,0.03,-0.11,1.03,0.96,-0.55,-0.00,
1.947,0.03,-0.11,1.03,0.81,-0.58,0.11,
1.949,0.03,-0.11,1.04,0.81,-0.58,0.11,
1.952,0.03,-0.11,1.04,0.82,-0.57,0.16,
1.952,0.03,-0.12,1.03,0.82,-0.57,0.16,
1.954,0.04,-0.11,1.03,0.82,-0.57,0.16,
1.958,0.03,-0.11,1.04,0.82,-0.57,0.16,
1.959,0.03,-0.11,1.04,0.79,-0.61,0.22,
1.96,0.03,-0.11,1.04,0.79,-0.61,0.22,
1.962,0.03,-0.11,1.04,0.79,-0.61,0.22,
1.962,0.03,-0.11,1.04,0.80,-0.57,0.24,
1.964,0.03,-0.11,1.04,0.80,-0.57,0.24,
1.967,0.03,-0.11,1.04,0.74,-0.58,0.25,
1.967,0.03,-0.11,1.04,0.74,-0.58,0.25,
1.969,0.02,-0.11,1.03,0.74,-0.58,0.25,
1.972,0.02,-0.11,1.02,0.74,-0.58,0.25,
1.972,0.02,-0.11,1.02,0.72,-0.58,0.24,
1.975,0.02,-0.12,1.03,0.72,-0.58,0.24,
1.976,0.01,-0.12,1.02,0.72,-0.58,0.24,
1.977,0.01,-0.12,1.02,0.61,-0.64,0.13,
1.979,0.01,-0.13,1.02,0.61,-0.64,0.13,
1.982,0.01,-0.13,1.02,0.61,-0.64,0.13,
1.983,0.01,-0.13,1.02,0.51,-0.73,0.09,
1.984,0.00,-0.13,1.02,0.51,-0.73,0.09,
1.987,0.00,-0.13,1.01,0.51,-0.73,0.09,
1.987,0.00,-0.13,1.01,0.45,-0.82,0.07,
1.989,0.00,-0.13,1.01,0.45,-0.82,0.07,
1.996,0.01,-0.12,1.01,0.45,-0.82,0.07,
1.997,0.01,-0.12,1.01,0.38,-0.81,0.03,
1.997,0.00,-0.11,1.01,0.38,-0.81,0.03,
1.997,-0.00,-0.11,1.01,0.38,-0.81,0.03,
1.998,-0.00,-0.11,1.01,0.38,-0.79,0.01,
1.999,-0.01,-0.11,1.01,0.38,-0.79,0.01,
2.002,-0.01,-0.11,1.01,0.33,-0.71,-0.03,
2.003,0.00,-0.10,1.00,0.33,-0.71,-0.03,
2.004,0.01,-0.10,1.01,0.33,-0.71,-0.03,
2.006,0.01,-0.10,1.01,0.33,-0.71,-0.03,
2.007,0.01,-0.10,1.01,0.27,-0.65,-0.09,
2.009,0.02,-0.10,1.01,0.27,-0.65,-0.09,
2.011,0.02,-0.10,1.01,0.27,-0.65,-0.09,
2.012,0.02,-0.10,1.01,0.38,-0.64,-0.03,
2.013,0.03,-0.10,1.01,0.38,-0.64,-0.03,
2.017,0.03,-0.10,1.01,0.45,-0.66,-0.02,
2.017,0.03,-0.10,1.01,0.45,-0.66,-0.02,
2.019,0.04,-0.10,1.01,0.45,-0.66,-0.02,
2.022,0.04,-0.10,1.01,0.55,-0.66,-0.04,
2.022,0.05,-0.09,1.00,0.55,-0.66,-0.04,
2.024,0.05,-0.09,1.00,0.55,-0.66,-0.04,
2.027,0.05,-0.08,1.00,0.55,-0.66,-0.04,
2.027,0.05,-0.08,1.00,0.65,-0.60,-0.08,
2.028,0.06,-0.08,1.00,0.65,-0.60,-0.08,
2.032,0.06,-0.08,1.00,0.65,-0.60,-0.08,
2.032,0.06,-0.08,1.00,0.69,-0.55,-0.11,
2.034,0.07,-0.07,0.99,0.69,-0.55,-0.11,
2.037,0.07,-0.06,0.99,0.69,-0.55,-0.11,
2.037,0.07,-0.06,0.99,0.79,-0.52,-0.13,
2.039,0.06,-0.05,0.99,0.79,-0.52,-0.13,
2.043,0.06,-0.05,0.99,0.82,-0.41,-0.20,
2.044,0.06,-0.05,0.98,0.82,-0.41,-0.20,
2.044,0.06,-0.05,0.98,0.82,-0.41,-0.20,
2.046,0.06,-0.04,0.97,0.82,-0.41,-0.20,
2.047,0.06,-0.04,0.97,0.76,-0.31,-0.27,
2.049,0.06,-0.04,0.97,0.76,-0.31,-0.27,
2.052,0.05,-0.04,0.96,0.76,-0.31,-0.27,
2.053,0.05,-0.04,0.96,0.74,-0.27,-0.37,
2.053,0.05,-0.04,0.95,0.74,-0.27,-0.37,
2.056,0.05,-0.05,0.93,0.74,-0.27,-0.37,
2.056,0.05,-0.05,0.93,0.66,-0.24,-0.47,
2.059,0.05,-0.05,0.92,0.66,-0.24,-0.47,
2.061,0.05,-0.05,0.92,0.59,-0.33,-0.73,
2.062,0.04,-0.06,0.92,0.59,-0.33,-0.73,
2.063,0.04,-0.06,0.90,0.59,-0.33,-0.73,
2.067,0.04,-0.06,0.90,0.51,-0.47,-0.89,
2.067,0.04,-0.07,0.89,0.51,-0.47,-0.89,
2.068,0.03,-0.08,0.88,0.51,-0.47,-0.89,
2.071,0.03,-0.08,0.88,0.51,-0.47,-0.89,
2.072,0.03,-0.08,0.88,0.44,-0.66,-1.11,
2.073,0.03,-0.08,0.87,0.44,-0.66,-1.11,
2.076,0.03,-0.08,0.87,0.44,-0.66,-1.11,
2.077,0.03,-0.08,0.87,0.38,-0.80,-1.28,
2.078,0.03,-0.08,0.87,0.38,-0.80,-1.28,
2.082,0.04,-0.08,0.86,0.38,-0.80,-1.28,
2.082,0.04,-0.08,0.86,0.35,-0.81,-1.40,
2.083,0.05,-0.08,0.86,0.35,-0.81,-1.40,
2.086,0.05,-0.08,0.86,0.35,-0.81,-1.40,
2.086,0.05,-0.08,0.86,0.40,-0.88,-1.43,
2.088,0.06,-0.08,0.85,0.40,-0.88,-1.43,
2.097,0.06,-0.08,0.85,0.53,-0.87,-1.48,
2.098,0.06,-0.08,0.86,0.53,-0.87,-1.48,
2.098,0.07,-0.08,0.85,0.53,-0.87,-1.48,
2.098,0.07,-0.08,0.85,0.53,-0.87,-1.48,
2.098,0.07,-0.08,0.85,0.57,-0.89,-1.53,
2.099,0.07,-0.08,0.86,0.57,-0.89,-1.53,
2.1,0.07,-0.08,0.86,0.57,-0.89,-1.53,
2.101,0.07,-0.08,0.86,0.65,-0.95,-1.52,
2.103,0.08,-0.08,0.87,0.65,-0.95,-1.52,
2.106,0.08,-0.08,0.87,0.65,-0.95,-1.52,
2.107,0.08,-0.08,0.87,0.68,-0.95,-1.45,
2.108,0.08,-0.07,0.88,0.68,-0.95,-1.45,
2.11,0.09,-0.07,0.88,0.68,-0.95,-1.45,
2.111,0.09,-0.07,0.88,0.76,-0.95,-1.35,
2.113,0.09,-0.07,0.89,0.76,-0.95,-1.35,
2.116,0.09,-0.07,0.89,0.79,-0.90,-1.27,
2.116,0.10,-0.07,0.90,0.79,-0.90,-1.27,
2.118,0.10,-0.06,0.91,0.79,-0.90,-1.27,
2.121,0.10,-0.06,0.91,0.79,-0.90,-1.27,
2.122,0.10,-0.06,0.91,0.88,-0.90,-1.13,
2.123,0.11,-0.06,0.91,0.88,-0.90,-1.13,
2.128,0.11,-0.05,0.92,0.88,-0.90,-1.13,
2.129,0.11,-0.05,0.92,0.90,-0.84,-0.98,
2.129,0.11,-0.05,0.92,0.90,-0.84,-0.98,
2.13,0.11,-0.04,0.93,0.90,-0.84,-0.98,
2.13,0.11,-0.04,0.93,0.95,-0.76,-0.90,
2.132,0.11,-0.05,0.94,0.95,-0.76,-0.90,
2.136,0.11,-0.05,0.94,0.93,-0.71,-0.78,
2.136,0.11,-0.04,0.94,0.93,-0.71,-0.78,
2.138,0.11,-0.04,0.94,0.93,-0.71,-0.78,
2.14,0.11,-0.04,0.94,0.90,-0.71,-0.66,
2.14,0.10,-0.03,0.94,0.90,-0.71,-0.66,
2.146,0.09,-0.03,0.94,0.90,-0.71,-0.66,
2.159,0.08,-0.03,0.95,0.90,-0.71,-0.66,
2.159,0.08,-0.03,0.95,0.85,-0.63,-0.61,
2.159,0.08,-0.03,0.94,0.85,-0.63,-0.61,
2.159,0.06,-0.02,0.94,0.85,-0.63,-0.61,
2.16,0.06,-0.02,0.94,0.70,-0.58,-0.61,
2.16,0.05,-0.02,0.94,0.70,-0.58,-0.61,
2.16,0.04,-0.01,0.94,0.70,-0.58,-0.61,
2.16,0.04,-0.01,0.94,0.50,-0.55,-0.62,
2.16,0.03,-0.01,0.95,0.50,-0.55,-0.62,
2.16,0.03,-0.01,0.95,0.29,-0.49,-0.62,
2.161,0.02,-0.00,0.94,0.29,-0.49,-0.62,
2.162,0.02,0.01,0.93,0.29,-0.49,-0.62,
2.165,0.02,0.01,0.93,0.05,-0.44,-0.60,
2.165,0.01,0.02,0.93,0.05,-0.44,-0.60,
2.168,0.01,0.03,0.92,0.05,-0.44,-0.60,
2.17,0.00,0.03,0.91,0.05,-0.44,-0.60,
2.17,0.00,0.03,0.91,-0.09,-0.28,-0.71,
2.173,-0.01,0.04,0.90,-0.09,-0.28,-0.71,
2.18,-0.01,0.05,0.89,-0.09,-0.28,-0.71,
2.181,-0.01,0.05,0.89,-0.18,-0.12,-0.87,
2.181,-0.02,0.05,0.88,-0.18,-0.12,-0.87,
2.181,-0.03,0.05,0.86,-0.18,-0.12,-0.87,
2.181,-0.03,0.05,0.86,-0.30,0.03,-1.09,
2.182,-0.03,0.05,0.85,-0.30,0.03,-1.09,
2.185,-0.04,0.05,0.84,-0.30,0.03,-1.09,
2.185,-0.04,0.05,0.84,-0.44,0.02,-1.32,
2.188,-0.04,0.05,0.83,-0.44,0.02,-1.32,
2.19,-0.04,0.05,0.83,-0.55,0.02,-1.52,
2.19,-0.04,0.06,0.83,-0.55,0.02,-1.52,
2.193,-0.04,0.05,0.81,-0.55,0.02,-1.52,
2.195,-0.03,0.06,0.81,-0.55,0.02,-1.52,
2.195,-0.03,0.06,0.81,-0.61,0.01,-1.70,
2.197,-0.03,0.05,0.80,-0.61,0.01,-1.70,
2.199,-0.03,0.06,0.81,-0.61,0.01,-1.70,
2.2,-0.03,0.06,0.81,-0.56,-0.01,-1.88,
2.202,-0.03,0.06,0.81,-0.56,-0.01,-1.88,
2.204,-0.03,0.06,0.81,-0.56,-0.01,-1.88,
2.204,-0.03,0.06,0.81,-0.53,-0.01,-1.93,
2.208,-0.03,0.06,0.81,-0.53,-0.01,-1.93,
2.215,-0.03,0.07,0.82,-0.53,-0.01,-1.93,
2.216,-0.03,0.07,0.82,-0.56,0.00,-1.92,
2.216,-0.03,0.07,0.84,-0.56,0.00,-1.92,
2.216,-0.03,0.07,0.84,-0.51,0.04,-1.82,
2.217,-0.02,0.07,0.84,-0.51,0.04,-1.82,
2.217,-0.02,0.07,0.85,-0.51,0.04,-1.82,
2.22,-0.02,0.07,0.85,-0.51,0.04,-1.82,
2.22,-0.02,0.07,0.85,-0.49,0.03,-1.58,
2.221,-0.03,0.07,0.86,-0.49,0.03,-1.58,
2.224,-0.02,0.07,0.87,-0.49,0.03,-1.58,
2.225,-0.02,0.07,0.87,-0.47,0.04,-1.48,
2.229,-0.02,0.07,0.88,-0.47,0.04,-1.48,
2.229,-0.01,0.07,0.89,-0.47,0.04,-1.48,
2.23,-0.01,0.07,0.89,-0.47,0.06,-1.28,
2.231,-0.02,0.07,0.90,-0.47,0.06,-1.28,
2.234,-0.01,0.07,0.90,-0.47,0.06,-1.28,
2.234,-0.01,0.07,0.90,-0.41,0.00,-1.14,
2.236,-0.02,0.06,0.91,-0.41,0.00,-1.14,
2.24,-0.02,0.06,0.91,-0.42,0.02,-0.98,
2.24,-0.02,0.06,0.92,-0.42,0.02,-0.98,
2.242,-0.03,0.06,0.93,-0.42,0.02,-0.98,
2.245,-0.03,0.06,0.93,-0.49,-0.03,-0.80,
2.245,-0.03,0.06,0.93,-0.49,-0.03,-0.80,
2.246,-0.03,0.06,0.93,-0.49,-0.03,-0.80,
2.249,-0.03,0.06,0.94,-0.49,-0.03,-0.80,
2.249,-0.03,0.06,0.94,-0.57,-0.05,-0.71,
2.252,-0.04,0.06,0.94,-0.57,-0.05,-0.71,
2.255,-0.04,0.07,0.94,-0.57,-0.05,-0.71,
2.255,-0.04,0.07,0.94,-0.63,-0.03,-0.64,
2.257,-0.05,0.06,0.94,-0.63,-0.03,-0.64,
2.26,-0.05,0.06,0.94,-0.63,-0.03,-0.64,
2.261,-0.05,0.06,0.94,-0.71,-0.02,-0.57,
2.261,-0.05,0.06,0.94,-0.71,-0.02,-0.57,
2.264,-0.05,0.06,0.94,-0.79,-0.04,-0.55,
2.265,-0.06,0.06,0.94,-0.79,-0.04,-0.55,
2.267,-0.06,0.06,0.95,-0.79,-0.04,-0.55,
2.269,-0.06,0.06,0.95,-0.79,-0.04,-0.55,
2.27,-0.06,0.06,0.95,-0.87,-0.07,-0.56,
2.272,-0.07,0.07,0.95,-0.87,-0.07,-0.56,
2.274,-0.06,0.07,0.94,-0.87,-0.07,-0.56,
2.274,-0.06,0.07,0.94,-0.94,-0.06,-0.45,
2.277,-0.07,0.07,0.94,-0.94,-0.06,-0.45,
2.279,-0.07,0.07,0.94,-0.94,-0.06,-0.45,
2.279,-0.07,0.07,0.94,-1.00,-0.02,-0.53,
2.282,-0.08,0.07,0.93,-1.00,-0.02,-0.53,
2.284,-0.08,0.07,0.92,-1.00,-0.02,-0.53,
2.285,-0.08,0.07,0.92,-1.06,-0.03,-0.61,
2.286,-0.08,0.07,0.92,-1.06,-0.03,-0.61,
2.289,-0.08,0.07,0.92,-1.14,-0.01,-0.70,
2.29,-0.08,0.07,0.92,-1.14,-0.01,-0.70,
2.291,-0.08,0.07,0.91,-1.14,-0.01,-0.70,
2.293,-0.09,0.07,0.91,-1.14,-0.01,-0.70,
2.294,-0.09,0.07,0.91,-1.18,0.01,-0.77,
2.296,-0.08,0.07,0.90,-1.18,0.01,-0.77,
2.299,-0.09,0.07,0.90,-1.18,0.01,-0.77,
2.3,-0.09,0.07,0.90,-1.23,0.00,-0.84,
2.301,-0.09,0.06,0.89,-1.23,0.00,-0.84,
2.304,-0.09,0.06,0.89,-1.23,0.00,-0.84,
2.304,-0.09,0.06,0.89,-1.25,-0.03,-0.96,
2.306,-0.10,0.06,0.88,-1.25,-0.03,-0.96,
2.311,-0.11,0.06,0.88,-1.25,-0.03,-0.96,
2.314,-0.11,0.06,0.88,-1.32,-0.09,-1.06,
2.314,-0.10,0.05,0.88,-1.32,-0.09,-1.06,
2.314,-0.10,0.05,0.88,-1.41,-0.15,-1.12,
2.314,-0.10,0.05,0.87,-1.41,-0.15,-1.12,
2.316,-0.11,0.04,0.88,-1.41,-0.15,-1.12,
2.318,-0.10,0.04,0.87,-1.41,-0.15,-1.12,
2.319,-0.10,0.04,0.87,-1.42,-0.26,-1.19,
2.321,-0.10,0.04,0.88,-1.42,-0.26,-1.19,
2.324,-0.09,0.04,0.87,-1.42,-0.26,-1.19,
2.324,-0.09,0.04,0.87,-1.41,-0.34,-1.19,
2.33,-0.08,0.04,0.87,-1.41,-0.34,-1.19,
2.331,-0.08,0.04,0.88,-1.41,-0.34,-1.19,
2.331,-0.08,0.04,0.88,-1.29,-0.39,-1.16,
2.331,-0.07,0.04,0.89,-1.29,-0.39,-1.16,
2.336,-0.07,0.04,0.89,-1.15,-0.36,-1.18,
2.338,-0.06,0.04,0.89,-1.15,-0.36,-1.18,
2.338,-0.05,0.03,0.89,-1.15,-0.36,-1.18,
2.339,-0.05,0.03,0.89,-1.00,-0.42,-1.07,
2.339,-0.04,0.03,0.90,-1.00,-0.42,-1.07,
2.34,-0.03,0.02,0.90,-1.00,-0.42,-1.07,
2.343,-0.02,0.02,0.91,-1.00,-0.42,-1.07,
2.344,-0.02,0.02,0.91,-0.82,-0.47,-0.96,
2.345,-0.01,0.01,0.92,-0.82,-0.47,-0.96,
2.348,-0.01,0.01,0.91,-0.82,-0.47,-0.96,
2.348,-0.01,0.01,0.91,-0.63,-0.57,-0.88,
2.35,-0.00,0.01,0.92,-0.63,-0.57,-0.88,
2.353,-0.00,0.01,0.92,-0.46,-0.63,-0.77,
2.353,0.00,0.01,0.93,-0.46,-0.63,-0.77,
2.355,0.00,0.01,0.93,-0.46,-0.63,-0.77,
2.358,0.01,0.01,0.94,-0.46,-0.63,-0.77,
2.358,0.01,0.01,0.94,-0.38,-0.70,-0.68,
2.36,0.00,0.01,0.95,-0.38,-0.70,-0.68,
2.364,0.00,0.01,0.95,-0.33,-0.70,-0.61,
2.364,0.01,0.02,0.95,-0.33,-0.70,-0.61,
2.365,0.01,0.02,0.95,-0.33,-0.70,-0.61,
2.368,0.01,0.02,0.95,-0.34,-0.64,-0.46,
2.368,0.01,0.02,0.95,-0.34,-0.64,-0.46,
2.37,0.00,0.03,0.95,-0.34,-0.64,-0.46,
2.373,0.01,0.03,0.95,-0.34,-0.64,-0.46,
2.373,0.01,0.03,0.95,-0.32,-0.58,-0.43,
2.375,0.00,0.04,0.94,-0.32,-0.58,-0.43,
2.378,-0.01,0.04,0.94,-0.32,-0.58,-0.43,
2.379,-0.01,0.04,0.94,-0.33,-0.50,-0.45,
2.38,-0.02,0.05,0.94,-0.33,-0.50,-0.45,
2.383,-0.02,0.05,0.94,-0.43,-0.38,-0.51,
2.384,-0.02,0.05,0.94,-0.43,-0.38,-0.51,
2.386,-0.04,0.05,0.94,-0.43,-0.38,-0.51,
2.388,-0.04,0.05,0.94,-0.58,-0.31,-0.54,
2.388,-0.05,0.06,0.93,-0.58,-0.31,-0.54,
2.39,-0.06,0.06,0.93,-0.58,-0.31,-0.54,
2.394,-0.06,0.06,0.92,-0.58,-0.31,-0.54,
2.395,-0.06,0.06,0.92,-0.78,-0.27,-0.60,
2.395,-0.07,0.06,0.92,-0.78,-0.27,-0.60,
2.398,-0.07,0.07,0.93,-0.78,-0.27,-0.60,
2.398,-0.07,0.07,0.93,-0.97,-0.20,-0.65,
2.4,-0.08,0.08,0.92,-0.97,-0.20,-0.65,
2.403,-0.09,0.08,0.92,-0.97,-0.20,-0.65,
2.403,-0.09,0.08,0.92,-1.08,-0.14,-0.68,
2.405,-0.09,0.07,0.92,-1.08,-0.14,-0.68,
2.408,-0.09,0.08,0.91,-1.08,-0.14,-0.68,
2.408,-0.09,0.08,0.91,-1.20,-0.07,-0.71,
2.409,-0.10,0.08,0.91,-1.20,-0.07,-0.71,
2.413,-0.10,0.08,0.91,-1.28,-0.09,-0.77,
2.413,-0.10,0.08,0.91,-1.28,-0.09,-0.77,
2.416,-0.11,0.07,0.92,-1.28,-0.09,-0.77,
2.418,-0.11,0.07,0.92,-1.28,-0.09,-0.77,
2.418,-0.11,0.07,0.92,-1.38,-0.08,-0.81,
2.42,-0.11,0.07,0.92,-1.38,-0.08,-0.81,
2.423,-0.12,0.08,0.92,-1.38,-0.08,-0.81,
2.423,-0.12,0.08,0.92,-1.46,-0.11,-0.71,
2.425,-0.12,0.07,0.92,-1.46,-0.11,-0.71,
2.431,-0.12,0.07,0.91,-1.46,-0.11,-0.71,
2.431,-0.12,0.07,0.91,-1.51,-0.12,-0.68,
2.432,-0.12,0.08,0.92,-1.51,-0.12,-0.68,
2.432,-0.11,0.08,0.91,-1.51,-0.12,-0.68,
2.433,-0.11,0.08,0.91,-1.52,-0.13,-0.75,
2.434,-0.11,0.08,0.91,-1.52,-0.13,-0.75,
2.437,-0.11,0.08,0.91,-1.48,-0.07,-0.75,
2.438,-0.10,0.09,0.92,-1.48,-0.07,-0.75,
2.44,-0.10,0.09,0.91,-1.48,-0.07,-0.75,
2.443,-0.09,0.09,0.91,-1.48,-0.07,-0.75,
2.443,-0.09,0.09,0.91,-1.43,-0.03,-0.76,
2.446,-0.09,0.08,0.91,-1.43,-0.03,-0.76,
2.447,-0.08,0.08,0.91,-1.43,-0.03,-0.76,
2.447,-0.08,0.08,0.91,-1.30,-0.02,-0.81,
2.45,-0.08,0.08,0.91,-1.30,-0.02,-0.81,
2.453,-0.07,0.08,0.91,-1.30,-0.02,-0.81,
2.453,-0.07,0.08,0.91,-1.20,-0.06,-0.78,
2.455,-0.07,0.08,0.92,-1.20,-0.06,-0.78,
2.458,-0.06,0.08,0.92,-1.20,-0.06,-0.78,
2.458,-0.06,0.08,0.92,-1.10,-0.08,-0.79,
2.46,-0.05,0.08,0.92,-1.10,-0.08,-0.79,
2.462,-0.05,0.08,0.92,-0.97,-0.11,-0.72,
2.463,-0.04,0.08,0.92,-0.97,-0.11,-0.72,
2.464,-0.03,0.08,0.93,-0.97,-0.11,-0.72,
2.467,-0.03,0.08,0.93,-0.97,-0.11,-0.72,
2.467,-0.03,0.08,0.93,-0.78,-0.12,-0.66,
2.47,-0.03,0.08,0.94,-0.78,-0.12,-0.66,
2.473,-0.03,0.08,0.94,-0.78,-0.12,-0.66,
2.473,-0.03,0.08,0.94,-0.63,-0.11,-0.60,
2.476,-0.02,0.08,0.95,-0.63,-0.11,-0.60,
2.478,-0.02,0.07,0.95,-0.63,-0.11,-0.60,
2.479,-0.02,0.07,0.95,-0.62,-0.09,-0.49,
2.479,-0.01,0.08,0.95,-0.62,-0.09,-0.49,
2.482,-0.01,0.08,0.95,-0.56,-0.12,-0.41,
2.482,-0.01,0.08,0.96,-0.56,-0.12,-0.41,
2.485,-0.02,0.08,0.96,-0.56,-0.12,-0.41,
2.487,-0.02,0.08,0.96,-0.47,-0.11,-0.36,
2.487,-0.01,0.07,0.96,-0.47,-0.11,-0.36,
2.489,-0.01,0.07,0.97,-0.47,-0.11,-0.36,
2.492,-0.01,0.07,0.96,-0.47,-0.11,-0.36,
2.492,-0.01,0.07,0.96,-0.48,-0.12,-0.30,
2.495,-0.01,0.08,0.97,-0.48,-0.12,-0.30,
2.497,-0.01,0.07,0.97,-0.48,-0.12,-0.30,
2.497,-0.01,0.07,0.97,-0.48,-0.18,-0.26,
2.498,-0.02,0.07,0.98,-0.48,-0.18,-0.26,
2.501,-0.02,0.07,0.98,-0.48,-0.14,-0.20,
2.502,-0.02,0.07,0.98,-0.48,-0.14,-0.20,
2.503,-0.02,0.07,0.99,-0.48,-0.14,-0.20,
2.506,-0.03,0.07,0.99,-0.48,-0.14,-0.20,
2.506,-0.03,0.07,0.99,-0.51,-0.18,-0.09,
2.508,-0.03,0.07,1.00,-0.51,-0.18,-0.09,
2.512,-0.03,0.07,1.00,-0.58,-0.18,-0.03,
2.512,-0.04,0.07,1.00,-0.58,-0.18,-0.03,
2.513,-0.04,0.07,1.00,-0.58,-0.18,-0.03,
2.516,-0.05,0.08,1.00,-0.58,-0.18,-0.03,
2.516,-0.05,0.08,1.00,-0.67,-0.16,0.05,
2.518,-0.05,0.08,1.00,-0.67,-0.16,0.05,
2.521,-0.05,0.08,1.00,-0.76,-0.11,0.07,
2.521,-0.05,0.08,1.00,-0.76,-0.11,0.07,
2.523,-0.06,0.08,1.00,-0.76,-0.11,0.07,
2.532,-0.07,0.08,1.00,-0.76,-0.11,0.07,
2.532,-0.07,0.08,1.00,-0.86,-0.09,0.07,
2.532,-0.08,0.08,0.99,-0.86,-0.09,0.07,
2.533,-0.08,0.08,1.00,-0.86,-0.09,0.07,
2.533,-0.08,0.08,1.00,-0.99,-0.06,0.07,
2.533,-0.08,0.08,0.99,-0.99,-0.06,0.07,
2.536,-0.08,0.08,0.99,-1.10,-0.08,0.04,
2.536,-0.08,0.08,0.99,-1.10,-0.08,0.04,
2.538,-0.08,0.08,0.99,-1.10,-0.08,0.04,
2.541,-0.08,0.08,0.99,-1.10,-0.08,0.04,
2.541,-0.08,0.08,0.99,-1.15,-0.05,0.02,
2.544,-0.08,0.08,0.99,-1.15,-0.05,0.02,
2.546,-0.08,0.09,0.99,-1.15,-0.05,0.02,
2.546,-0.08,0.09,0.99,-1.17,-0.06,-0.03,
2.548,-0.08,0.09,0.99,-1.17,-0.06,-0.03,
2.551,-0.08,0.09,1.00,-1.17,-0.06,-0.03,
2.551,-0.08,0.09,1.00,-1.14,-0.01,-0.00,
2.553,-0.07,0.09,0.99,-1.14,-0.01,-0.00,
2.557,-0.07,0.09,0.99,-1.14,-0.01,-0.00,
2.557,-0.07,0.09,0.99,-1.10,0.03,0.04,
2.558,-0.06,0.09,0.99,-1.10,0.03,0.04,
2.562,-0.06,0.09,0.99,-1.03,0.03,0.01,
2.563,-0.06,0.09,0.98,-1.03,0.03,0.01,
2.563,-0.06,0.10,0.98,-1.03,0.03,0.01,
2.566,-0.06,0.10,0.98,-1.03,0.03,0.01,
2.566,-0.06,0.10,0.98,-0.93,0.04,-0.06,
2.568,-0.05,0.10,0.98,-0.93,0.04,-0.06,
2.571,-0.05,0.10,0.98,-0.93,0.04,-0.06,
2.571,-0.05,0.10,0.98,-0.91,0.09,-0.09,
2.573,-0.05,0.10,0.98,-0.91,0.09,-0.09,
2.575,-0.04,0.10,0.98,-0.91,0.09,-0.09,
2.576,-0.04,0.10,0.98,-0.80,0.10,-0.11,
2.578,-0.04,0.10,0.98,-0.80,0.10,-0.11,
2.58,-0.04,0.11,0.98,-0.80,0.10,-0.11,
2.581,-0.04,0.11,0.98,-0.74,0.09,-0.13,
2.583,-0.03,0.10,0.98,-0.74,0.09,-0.13,
2.586,-0.03,0.10,0.98,-0.68,0.15,-0.13,
2.586,-0.03,0.11,0.97,-0.68,0.15,-0.13,
2.587,-0.02,0.11,0.97,-0.68,0.15,-0.13,
2.59,-0.02,0.11,0.97,-0.68,0.15,-0.13,
2.59,-0.02,0.11,0.97,-0.59,0.17,-0.16,
2.593,-0.02,0.12,0.97,-0.59,0.17,-0.16,
2.596,-0.01,0.11,0.97,-0.59,0.17,-0.16,
2.597,-0.01,0.11,0.97,-0.51,0.21,-0.19,
2.598,-0.01,0.12,0.97,-0.51,0.21,-0.19,
2.6,-0.01,0.12,0.97,-0.51,0.21,-0.19,
2.601,-0.01,0.12,0.97,-0.45,0.26,-0.18,
2.602,-0.01,0.12,0.97,-0.45,0.26,-0.18,
2.605,-0.01,0.12,0.97,-0.45,0.26,-0.18,
2.606,-0.01,0.12,0.97,-0.41,0.27,-0.19,
2.607,-0.01,0.13,0.97,-0.41,0.27,-0.19,
2.612,-0.01,0.13,0.97,-0.39,0.31,-0.19,
2.613,-0.01,0.13,0.97,-0.39,0.31,-0.19,
2.613,-0.01,0.13,0.97,-0.39,0.31,-0.19,
2.615,-0.01,0.13,0.97,-0.39,0.31,-0.19,
2.615,-0.01,0.13,0.97,-0.38,0.35,-0.19,
2.617,-0.02,0.13,0.97,-0.38,0.35,-0.19,
2.62,-0.02,0.13,0.96,-0.38,0.35,-0.19,
2.62,-0.02,0.13,0.96,-0.40,0.34,-0.18,
2.622,-0.03,0.13,0.96,-0.40,0.34,-0.18,
2.625,-0.03,0.13,0.96,-0.40,0.34,-0.18,
2.625,-0.03,0.13,0.96,-0.44,0.36,-0.25,
2.627,-0.04,0.13,0.96,-0.44,0.36,-0.25,
2.63,-0.05,0.13,0.95,-0.44,0.36,-0.25,
2.63,-0.05,0.13,0.95,-0.52,0.38,-0.29,
2.632,-0.05,0.13,0.95,-0.52,0.38,-0.29,
2.635,-0.05,0.13,0.95,-0.63,0.40,-0.33,
2.635,-0.05,0.13,0.96,-0.63,0.40,-0.33,
2.637,-0.06,0.13,0.96,-0.63,0.40,-0.33,
2.64,-0.06,0.13,0.96,-0.63,0.40,-0.33,
2.641,-0.06,0.13,0.96,-0.72,0.35,-0.34,
2.642,-0.07,0.12,0.96,-0.72,0.35,-0.34,
2.647,-0.07,0.12,0.97,-0.72,0.35,-0.34,
2.649,-0.07,0.12,0.97,-0.80,0.37,-0.33,
2.649,-0.07,0.12,0.96,-0.80,0.37,-0.33,
2.65,-0.07,0.12,0.96,-0.90,0.27,-0.25,
2.65,-0.08,0.11,0.98,-0.90,0.27,-0.25,
2.653,-0.08,0.11,0.98,-0.90,0.27,-0.25,
2.655,-0.07,0.11,0.98,-0.90,0.27,-0.25,
2.655,-0.07,0.11,0.98,-0.91,0.22,-0.18,
2.657,-0.07,0.11,0.99,-0.91,0.22,-0.18,
2.66,-0.07,0.11,0.99,-0.90,0.19,-0.06,
2.66,-0.07,0.11,1.00,-0.90,0.19,-0.06,
2.662,-0.07,0.11,1.01,-0.90,0.19,-0.06,
2.665,-0.06,0.11,1.01,-0.90,0.19,-0.06,
2.665,-0.06,0.11,1.01,-0.83,0.18,0.06,
2.667,-0.05,0.10,1.01,-0.83,0.18,0.06,
2.67,-0.05,0.10,1.02,-0.83,0.18,0.06,
2.671,-0.05,0.10,1.02,-0.77,0.15,0.17,
2.673,-0.05,0.10,1.03,-0.77,0.15,0.17,
2.675,-0.05,0.10,1.02,-0.77,0.15,0.17,
2.675,-0.05,0.10,1.02,-0.66,0.10,0.27,
2.678,-0.05,0.10,1.03,-0.66,0.10,0.27,
2.681,-0.05,0.10,1.03,-0.66,0.10,0.27,
2.681,-0.05,0.10,1.03,-0.60,0.08,0.36,
2.682,-0.05,0.10,1.03,-0.60,0.08,0.36,
2.684,-0.05,0.10,1.03,-0.58,0.06,0.39,
2.685,-0.05,0.10,1.02,-0.58,0.06,0.39,
2.687,-0.05,0.09,1.02,-0.58,0.06,0.39,
2.69,-0.05,0.09,1.02,-0.57,0.06,0.33,
2.69,-0.05,0.10,1.02,-0.57,0.06,0.33,
2.693,-0.05,0.11,1.02,-0.57,0.06,0.33,
2.696,-0.05,0.10,1.02,-0.57,0.06,0.33,
2.696,-0.05,0.10,1.02,-0.58,0.08,0.33,
2.697,-0.05,0.10,1.01,-0.58,0.08,0.33,
2.699,-0.05,0.11,1.01,-0.58,0.08,0.33,
2.7,-0.05,0.11,1.01,-0.58,0.14,0.27,
2.702,-0.05,0.10,1.00,-0.58,0.14,0.27,
2.705,-0.05,0.10,1.00,-0.58,0.14,0.27,
2.705,-0.05,0.10,1.00,-0.59,0.12,0.21,
2.707,-0.05,0.10,1.00,-0.59,0.12,0.21,
2.71,-0.05,0.10,1.00,-0.54,0.08,0.11,
2.71,-0.04,0.10,1.00,-0.54,0.08,0.11,
2.712,-0.04,0.10,1.00,-0.54,0.08,0.11,
2.714,-0.04,0.11,0.99,-0.54,0.08,0.11,
2.715,-0.04,0.11,0.99,-0.49,0.10,0.09,
2.717,-0.04,0.10,1.00,-0.49,0.10,0.09,
2.72,-0.04,0.10,1.00,-0.44,0.12,0.03,
2.72,-0.03,0.11,1.00,-0.44,0.12,0.03,
2.722,-0.03,0.11,1.00,-0.44,0.12,0.03,
2.725,-0.03,0.11,1.00,-0.44,0.12,0.03,
2.725,-0.03,0.11,1.00,-0.39,0.13,0.10,
2.727,-0.03,0.10,1.00,-0.39,0.13,0.10,
2.729,-0.02,0.10,1.00,-0.39,0.13,0.10,
2.73,-0.02,0.10,1.00,-0.29,0.13,0.06,
2.732,-0.02,0.10,1.01,-0.29,0.13,0.06,
2.735,-0.03,0.10,1.01,-0.29,0.13,0.06,
2.735,-0.03,0.10,1.01,-0.28,0.10,0.10,
2.737,-0.03,0.10,1.01,-0.28,0.10,0.10,
2.74,-0.03,0.10,1.01,-0.26,0.09,0.15,
2.74,-0.03,0.10,1.00,-0.26,0.09,0.15,
2.742,-0.03,0.10,1.00,-0.26,0.09,0.15,
2.744,-0.03,0.10,1.01,-0.26,0.09,0.15,
2.745,-0.03,0.10,1.01,-0.29,0.06,0.13,
2.75,-0.03,0.10,1.01,-0.29,0.06,0.13,
2.751,-0.03,0.10,1.01,-0.29,0.06,0.13,
2.751,-0.03,0.10,1.01,-0.29,0.05,0.14,
2.752,-0.03,0.10,1.01,-0.29,0.05,0.14,
2.754,-0.03,0.11,1.01,-0.29,0.05,0.14,
2.754,-0.03,0.11,1.01,-0.27,0.10,0.20,
2.756,-0.02,0.10,1.01,-0.27,0.10,0.20,
2.76,-0.02,0.10,1.01,-0.28,0.11,0.15,
2.76,-0.03,0.10,1.01,-0.28,0.11,0.15,
2.763,-0.03,0.10,1.01,-0.28,0.11,0.15,
2.764,-0.03,0.09,1.01,-0.28,0.11,0.15,
2.764,-0.03,0.09,1.01,-0.26,0.09,0.17,
2.766,-0.03,0.10,1.01,-0.26,0.09,0.17,
2.769,-0.03,0.10,1.01,-0.26,0.09,0.17,
2.77,-0.03,0.10,1.01,-0.30,0.06,0.18,
2.772,-0.03,0.10,1.01,-0.30,0.06,0.18,
2.774,-0.03,0.10,1.00,-0.30,0.06,0.18,
2.774,-0.03,0.10,1.00,-0.31,0.05,0.18,
2.776,-0.04,0.10,1.00,-0.31,0.05,0.18,
2.779,-0.04,0.10,1.00,-0.31,0.05,0.18,
2.78,-0.04,0.10,1.00,-0.31,0.05,0.12,
2.782,-0.04,0.10,1.00,-0.31,0.05,0.12,
2.784,-0.04,0.10,1.00,-0.36,0.06,0.09,
2.784,-0.03,0.10,1.00,-0.36,0.06,0.09,
2.786,-0.03,0.10,1.00,-0.36,0.06,0.09,
2.789,-0.03,0.10,1.00,-0.36,0.06,0.09,
2.79,-0.03,0.10,1.00,-0.33,0.09,0.10,
2.791,-0.03,0.10,1.00,-0.33,0.09,0.10,
2.793,-0.03,0.10,1.00,-0.33,0.09,0.10,
2.794,-0.03,0.10,1.00,-0.32,0.08,0.07,
2.798,-0.02,0.09,1.01,-0.32,0.08,0.07,
2.798,-0.02,0.09,1.00,-0.32,0.08,0.07,
2.799,-0.02,0.09,1.00,-0.27,0.05,0.07,
2.8,-0.02,0.09,1.01,-0.27,0.05,0.07,
2.803,-0.01,0.09,1.02,-0.27,0.05,0.07,
2.806,-0.01,0.09,1.02,-0.22,-0.00,0.12,
2.806,-0.01,0.09,1.01,-0.22,-0.00,0.12,
2.808,-0.01,0.09,1.01,-0.14,-0.02,0.19,
2.808,-0.01,0.09,1.02,-0.14,-0.02,0.19,
2.811,-0.00,0.08,1.01,-0.14,-0.02,0.19,
2.814,-0.00,0.08,1.02,-0.14,-0.02,0.19,
2.814,-0.00,0.08,1.02,-0.08,-0.04,0.23,
2.815,0.00,0.08,1.02,-0.08,-0.04,0.23,
2.818,-0.00,0.08,1.02,-0.08,-0.04,0.23,
2.818,-0.00,0.08,1.02,0.00,-0.10,0.20,
2.82,0.01,0.08,1.02,0.00,-0.10,0.20,
2.823,0.01,0.08,1.02,0.00,-0.10,0.20,
2.823,0.01,0.08,1.02,0.03,-0.13,0.27,
2.825,0.01,0.08,1.01,0.03,-0.13,0.27,
2.829,0.01,0.07,1.01,0.03,-0.13,0.27,
2.829,0.01,0.07,1.01,0.08,-0.17,0.24,
2.83,0.02,0.07,1.01,0.08,-0.17,0.24,
2.833,0.02,0.07,1.01,0.14,-0.18,0.16,
2.833,0.02,0.08,1.00,0.14,-0.18,0.16,
2.835,0.03,0.08,1.00,0.14,-0.18,0.16,
2.838,0.03,0.08,1.00,0.14,-0.18,0.16,
2.838,0.03,0.08,1.00,0.22,-0.20,0.11,
2.84,0.03,0.08,1.00,0.22,-0.20,0.11,
2.843,0.03,0.09,1.00,0.22,-0.20,0.11,
2.843,0.03,0.09,1.00,0.34,-0.16,0.08,
2.846,0.03,0.08,0.99,0.34,-0.16,0.08,
2.848,0.03,0.08,0.99,0.34,-0.16,0.08,
2.848,0.03,0.08,0.99,0.34,-0.10,0.03,
2.85,0.03,0.08,0.99,0.34,-0.10,0.03,
2.853,0.03,0.08,0.98,0.34,-0.10,0.03,
2.853,0.03,0.08,0.98,0.36,-0.13,-0.02,
2.855,0.03,0.09,0.98,0.36,-0.13,-0.02,
2.858,0.03,0.09,0.98,0.31,-0.12,-0.08,
2.858,0.02,0.09,0.98,0.31,-0.12,-0.08,
2.86,0.02,0.08,0.98,0.31,-0.12,-0.08,
2.866,0.02,0.08,0.98,0.31,-0.12,-0.08,
2.867,0.02,0.08,0.98,0.28,-0.08,-0.11,
2.867,0.02,0.08,0.98,0.28,-0.08,-0.11,
2.868,0.01,0.08,0.98,0.28,-0.08,-0.11,
2.868,0.01,0.08,0.98,0.20,-0.11,-0.17,
2.87,0.02,0.08,0.98,0.20,-0.11,-0.17,
2.873,0.01,0.08,0.98,0.20,-0.11,-0.17,
2.873,0.01,0.08,0.98,0.19,-0.12,-0.14,
2.875,0.01,0.08,0.98,0.19,-0.12,-0.14,
2.878,0.01,0.08,0.99,0.19,-0.12,-0.14,
2.878,0.01,0.08,0.99,0.18,-0.12,-0.16,
2.88,0.01,0.08,0.98,0.18,-0.12,-0.16,
2.882,0.01,0.08,0.98,0.12,-0.14,-0.07,
2.883,0.00,0.08,0.99,0.12,-0.14,-0.07,
2.885,0.00,0.08,0.99,0.12,-0.14,-0.07,
2.887,0.00,0.08,1.00,0.12,-0.14,-0.07,
2.888,0.00,0.08,1.00,0.10,-0.15,-0.07,
2.89,0.00,0.08,1.00,0.10,-0.15,-0.07,
2.892,-0.00,0.08,1.00,0.10,-0.15,-0.07,
2.892,-0.00,0.08,1.00,0.08,-0.15,0.03,
2.895,-0.00,0.07,1.01,0.08,-0.15,0.03,
2.898,0.00,0.08,1.02,0.08,-0.15,0.03,
2.898,0.00,0.08,1.02,0.03,-0.18,0.07,
2.899,-0.00,0.08,1.01,0.03,-0.18,0.07,
2.902,-0.01,0.08,1.02,0.03,-0.18,0.07,
2.903,-0.01,0.08,1.02,0.05,-0.17,0.17,
2.904,-0.01,0.08,1.01,0.05,-0.17,0.17,
2.907,-0.01,0.08,1.01,0.01,-0.12,0.21,
2.908,-0.01,0.08,1.01,0.01,-0.12,0.21,
2.909,-0.01,0.08,1.01,0.01,-0.12,0.21,
2.914,-0.01,0.08,1.01,0.01,-0.12,0.21,
2.914,-0.01,0.08,1.01,-0.02,-0.13,0.17,
2.915,-0.01,0.08,1.01,-0.02,-0.13,0.17,
2.917,-0.02,0.08,1.00,-0.02,-0.13,0.17,
2.917,-0.02,0.08,1.00,-0.04,-0.14,0.16,
2.919,-0.02,0.09,1.01,-0.04,-0.14,0.16,
2.922,-0.02,0.09,1.00,-0.04,-0.14,0.16,
2.922,-0.02,0.09,1.00,-0.09,-0.13,0.11,
2.925,-0.03,0.10,0.98,-0.09,-0.13,0.11,
2.927,-0.03,0.10,0.97,-0.09,-0.13,0.11,
2.927,-0.03,0.10,0.97,-0.16,-0.07,0.11,
2.93,-0.04,0.11,0.95,-0.16,-0.07,0.11,
2.932,-0.04,0.11,0.95,-0.21,0.02,-0.21,
2.932,-0.04,0.11,0.95,-0.21,0.02,-0.21,
2.934,-0.04,0.12,0.95,-0.21,0.02,-0.21,
2.937,-0.04,0.12,0.96,-0.21,0.02,-0.21,
2.937,-0.04,0.12,0.96,-0.26,0.15,-0.38,
2.939,-0.04,0.13,0.96,-0.26,0.15,-0.38,
2.942,-0.04,0.13,0.96,-0.28,0.25,-0.35,
2.942,-0.04,0.13,0.96,-0.28,0.25,-0.35,
2.944,-0.04,0.13,0.96,-0.28,0.25,-0.35,
2.95,-0.04,0.14,0.96,-0.28,0.25,-0.35,
2.95,-0.04,0.14,0.96,-0.31,0.33,-0.28,
2.95,-0.05,0.13,0.97,-0.31,0.33,-0.28,
2.952,-0.05,0.14,0.97,-0.31,0.33,-0.28,
2.952,-0.05,0.14,0.97,-0.32,0.36,-0.30,
2.954,-0.05,0.14,0.98,-0.32,0.36,-0.30,
2.957,-0.05,0.14,0.98,-0.33,0.38,-0.24,
2.957,-0.05,0.14,0.98,-0.33,0.38,-0.24,
2.96,-0.05,0.14,0.99,-0.33,0.38,-0.24,
2.967,-0.04,0.14,0.99,-0.33,0.38,-0.24,
2.968,-0.04,0.14,0.99,-0.35,0.40,-0.13,
2.968,-0.05,0.14,1.00,-0.35,0.40,-0.13,
2.968,-0.04,0.13,1.00,-0.35,0.40,-0.13,
2.968,-0.04,0.13,1.00,-0.30,0.43,-0.02,
2.971,-0.04,0.13,1.02,-0.30,0.43,-0.02,
2.972,-0.04,0.12,1.03,-0.30,0.43,-0.02,
2.973,-0.04,0.12,1.03,-0.29,0.37,0.09,
2.978,-0.04,0.12,1.03,-0.29,0.37,0.09,
2.979,-0.04,0.12,1.04,-0.29,0.37,0.09,
2.98,-0.04,0.12,1.04,-0.27,0.29,0.30,
2.98,-0.03,0.11,1.04,-0.27,0.29,0.30,
2.985,-0.03,0.11,1.04,-0.24,0.22,0.42,
2.986,-0.04,0.11,1.04,-0.24,0.22,0.42,
2.986,-0.04,0.10,1.04,-0.24,0.22,0.42,
2.987,-0.04,0.10,1.04,-0.24,0.22,0.42,
2.987,-0.04,0.10,1.04,-0.21,0.14,0.45,
2.989,-0.04,0.10,1.04,-0.21,0.14,0.45,
2.992,-0.05,0.10,1.04,-0.21,0.14,0.45,
2.992,-0.05,0.10,1.04,-0.26,0.07,0.46,
2.994,-0.05,0.10,1.04,-0.26,0.07,0.46,
3.003,-0.05,0.10,1.04,-0.32,0.02,0.42,
3.004,-0.05,0.09,1.04,-0.32,0.02,0.42,
3.004,-0.06,0.10,1.04,-0.32,0.02,0.42,
3.004,-0.06,0.10,1.04,-0.32,0.02,0.42,
3.004,-0.06,0.10,1.04,-0.35,-0.01,0.43,
3.004,-0.06,0.10,1.02,-0.35,-0.01,0.43,
3.006,-0.06,0.10,1.02,-0.41,-0.02,0.43,
3.007,-0.05,0.10,1.02,-0.41,-0.02,0.43,
3.009,-0.05,0.09,1.01,-0.41,-0.02,0.43,
3.012,-0.04,0.09,1.01,-0.41,-0.02,0.43,
3.012,-0.04,0.09,1.01,-0.35,-0.04,0.25,
3.019,-0.04,0.09,1.00,-0.35,-0.04,0.25,
3.019,-0.04,0.09,1.00,-0.35,-0.04,0.25,
3.019,-0.04,0.09,1.00,-0.30,-0.09,0.14,
3.02,-0.04,0.09,0.99,-0.30,-0.09,0.14,
