
time,gFx,gFy,gFz,ax,ay,az,
0.003,-0.05,0.10,0.93,-0.01,0.38,-0.59,
0.004,-0.06,0.10,0.92,-0.01,0.38,-0.59,
0.004,-0.06,0.10,0.92,-0.01,0.38,-0.59,
0.004,-0.06,0.10,0.93,-0.01,0.38,-0.59,
0.004,-0.06,0.10,0.93,-0.07,0.41,-0.71,
0.004,-0.06,0.11,0.93,-0.07,0.41,-0.71,
0.005,-0.06,0.11,0.93,-0.07,0.41,-0.71,
0.005,-0.06,0.11,0.93,-0.13,0.43,-0.74,
0.008,-0.06,0.11,0.92,-0.13,0.43,-0.74,
0.008,-0.06,0.11,0.92,-0.12,0.49,-0.73,
0.008,-0.07,0.11,0.93,-0.12,0.49,-0.73,
0.011,-0.07,0.11,0.93,-0.12,0.49,-0.73,
0.013,-0.07,0.10,0.93,-0.12,0.49,-0.73,
0.013,-0.07,0.10,0.93,-0.17,0.47,-0.71,
0.018,-0.08,0.10,0.92,-0.17,0.47,-0.71,
0.018,-0.07,0.10,0.93,-0.17,0.47,-0.71,
0.018,-0.07,0.10,0.93,-0.23,0.41,-0.68,
0.021,-0.08,0.10,0.93,-0.23,0.41,-0.68,
0.023,-0.08,0.09,0.94,-0.23,0.41,-0.68,
0.024,-0.08,0.09,0.94,-0.26,0.37,-0.71,
0.026,-0.08,0.09,0.94,-0.26,0.37,-0.71,
0.028,-0.08,0.09,0.94,-0.26,0.37,-0.71,
0.028,-0.08,0.09,0.94,-0.29,0.29,-0.61,
0.031,-0.08,0.09,0.94,-0.29,0.29,-0.61,
0.035,-0.08,0.09,0.95,-0.29,0.29,-0.61,
0.035,-0.08,0.09,0.95,-0.32,0.24,-0.55,
0.036,-0.08,0.09,0.95,-0.32,0.24,-0.55,
0.038,-0.08,0.09,0.95,-0.32,0.24,-0.55,
0.038,-0.08,0.09,0.95,-0.31,0.20,-0.51,
0.04,-0.08,0.09,0.96,-0.31,0.20,-0.51,
0.043,-0.08,0.09,0.96,-0.31,0.21,-0.45,
0.043,-0.08,0.09,0.96,-0.31,0.21,-0.45,
0.046,-0.08,0.08,0.97,-0.31,0.21,-0.45,
0.048,-0.08,0.08,0.97,-0.31,0.20,-0.36,
0.049,-0.08,0.08,0.96,-0.31,0.20,-0.36,
0.051,-0.08,0.08,0.96,-0.31,0.20,-0.36,
0.053,-0.07,0.08,0.96,-0.31,0.20,-0.36,
0.054,-0.07,0.08,0.96,-0.28,0.15,-0.31,
0.056,-0.07,0.08,0.96,-0.28,0.15,-0.31,
0.058,-0.07,0.08,0.97,-0.28,0.15,-0.31,
0.058,-0.07,0.08,0.97,-0.24,0.13,-0.31,
0.061,-0.07,0.08,0.97,-0.24,0.13,-0.31,
0.063,-0.07,0.08,0.97,-0.24,0.13,-0.31,
0.064,-0.07,0.08,0.97,-0.21,0.12,-0.28,
0.066,-0.06,0.07,0.97,-0.21,0.12,-0.28,
0.068,-0.06,0.07,0.97,-0.21,0.12,-0.28,
0.069,-0.06,0.07,0.97,-0.17,0.10,-0.23,
0.071,-0.06,0.07,0.97,-0.17,0.10,-0.23,
0.073,-0.06,0.07,0.97,-0.13,0.06,-0.23,
0.073,-0.06,0.07,0.97,-0.13,0.06,-0.23,
0.075,-0.05,0.07,0.96,-0.13,0.06,-0.23,
0.078,-0.05,0.07,0.96,-0.13,0.06,-0.23,
0.079,-0.05,0.07,0.96,-0.09,0.05,-0.27,
0.081,-0.05,0.07,0.96,-0.09,0.05,-0.27,
0.089,-0.04,0.07,0.95,-0.09,0.05,-0.27,
0.089,-0.04,0.07,0.95,-0.03,0.05,-0.30,
0.09,-0.03,0.06,0.95,-0.03,0.05,-0.30,
0.09,-0.03,0.06,0.95,0.06,0.01,-0.37,
0.09,-0.03,0.06,0.95,0.06,0.01,-0.37,
0.09,-0.03,0.06,0.95,0.06,0.01,-0.37,
0.092,-0.02,0.05,0.94,0.06,0.01,-0.37,
0.092,-0.02,0.05,0.94,0.15,-0.07,-0.42,
0.095,-0.02,0.05,0.95,0.15,-0.07,-0.42,
0.098,-0.01,0.05,0.94,0.15,-0.07,-0.42,
0.098,-0.01,0.05,0.94,0.24,-0.10,-0.46,
0.101,-0.00,0.05,0.94,0.24,-0.10,-0.46,
0.103,-0.00,0.05,0.94,0.24,-0.10,-0.46,
0.103,-0.00,0.05,0.94,0.32,-0.13,-0.49,
0.105,0.00,0.05,0.93,0.32,-0.13,-0.49,
0.107,0.02,0.04,0.93,0.32,-0.13,-0.49,
0.107,0.02,0.04,0.93,0.41,-0.18,-0.55,
0.11,0.02,0.04,0.93,0.41,-0.18,-0.55,
0.113,0.03,0.04,0.93,0.41,-0.18,-0.55,
0.113,0.03,0.04,0.93,0.52,-0.22,-0.64,
0.116,0.04,0.04,0.92,0.52,-0.22,-0.64,
0.119,0.05,0.05,0.92,0.52,-0.22,-0.64,
0.119,0.05,0.05,0.92,0.66,-0.25,-0.64,
0.121,0.05,0.04,0.92,0.66,-0.25,-0.64,
0.123,0.05,0.04,0.92,0.82,-0.21,-0.69,
0.123,0.06,0.04,0.92,0.82,-0.21,-0.69,
0.125,0.06,0.04,0.92,0.82,-0.21,-0.69,
0.128,0.07,0.03,0.91,0.82,-0.21,-0.69,
0.128,0.07,0.03,0.91,0.89,-0.23,-0.67,
0.13,0.07,0.03,0.92,0.89,-0.23,-0.67,
0.133,0.07,0.03,0.92,0.89,-0.23,-0.67,
0.133,0.07,0.03,0.92,0.99,-0.30,-0.72,
0.136,0.07,0.03,0.92,0.99,-0.30,-0.72,
0.137,0.08,0.02,0.92,0.99,-0.30,-0.72,
0.139,0.08,0.02,0.92,1.07,-0.33,-0.68,
0.14,0.08,0.03,0.92,1.07,-0.33,-0.68,
0.142,0.08,0.02,0.92,1.07,-0.33,-0.68,
0.142,0.08,0.02,0.92,1.07,-0.39,-0.65,
0.146,0.08,0.03,0.93,1.07,-0.39,-0.65,
0.148,0.08,0.03,0.93,1.12,-0.39,-0.67,
0.148,0.08,0.03,0.92,1.12,-0.39,-0.67,
0.153,0.08,0.03,0.92,1.12,-0.39,-0.67,
0.153,0.08,0.03,0.92,1.12,-0.39,-0.67,
0.154,0.08,0.03,0.92,1.11,-0.37,-0.61,
0.155,0.08,0.03,0.92,1.11,-0.37,-0.61,
0.158,0.08,0.03,0.93,1.11,-0.37,-0.61,
0.161,0.08,0.03,0.93,1.12,-0.35,-0.62,
0.161,0.08,0.03,0.93,1.12,-0.35,-0.62,
0.162,0.08,0.03,0.93,1.11,-0.32,-0.60,
0.162,0.08,0.04,0.93,1.11,-0.32,-0.60,
0.165,0.08,0.04,0.92,1.11,-0.32,-0.60,
0.168,0.08,0.04,0.92,1.11,-0.32,-0.60,
0.168,0.08,0.04,0.92,1.11,-0.29,-0.56,
0.17,0.08,0.04,0.92,1.11,-0.29,-0.56,
0.172,0.08,0.04,0.92,1.10,-0.22,-0.61,
0.173,0.08,0.04,0.92,1.10,-0.22,-0.61,
0.175,0.07,0.05,0.91,1.10,-0.22,-0.61,
0.178,0.08,0.05,0.91,1.10,-0.22,-0.61,
0.178,0.08,0.05,0.91,1.06,-0.24,-0.63,
0.18,0.07,0.05,0.91,1.06,-0.24,-0.63,
0.182,0.07,0.05,0.90,1.06,-0.24,-0.63,
0.183,0.07,0.05,0.90,1.04,-0.17,-0.72,
0.185,0.06,0.05,0.90,1.04,-0.17,-0.72,
0.187,0.06,0.06,0.89,1.04,-0.17,-0.72,
0.188,0.06,0.06,0.89,1.00,-0.14,-0.80,
0.19,0.05,0.06,0.88,1.00,-0.14,-0.80,
0.193,0.05,0.06,0.88,1.00,-0.14,-0.80,
0.193,0.05,0.06,0.88,0.86,-0.09,-0.88,
0.195,0.04,0.06,0.88,0.86,-0.09,-0.88,
0.198,0.04,0.06,0.88,0.77,-0.06,-1.01,
0.198,0.03,0.07,0.87,0.77,-0.06,-1.01,
0.2,0.03,0.07,0.87,0.77,-0.06,-1.01,
0.208,0.02,0.07,0.87,0.77,-0.06,-1.01,
0.209,0.02,0.07,0.87,0.65,-0.03,-1.07,
0.209,0.02,0.07,0.87,0.65,-0.03,-1.07,
0.21,0.02,0.07,0.86,0.65,-0.03,-1.07,
0.21,0.02,0.07,0.86,0.53,0.00,-1.12,
0.211,0.01,0.08,0.86,0.53,0.00,-1.12,
0.211,0.01,0.08,0.85,0.53,0.00,-1.12,
0.211,0.01,0.08,0.85,0.44,0.05,-1.16,
0.213,0.01,0.08,0.85,0.44,0.05,-1.16,
0.225,0.01,0.08,0.85,0.44,0.05,-1.16,
0.226,0.01,0.08,0.85,0.38,0.07,-1.24,
0.226,0.00,0.08,0.85,0.38,0.07,-1.24,
0.227,0.00,0.08,0.85,0.34,0.10,-1.30,
0.227,-0.00,0.07,0.85,0.34,0.10,-1.30,
0.227,-0.00,0.07,0.84,0.34,0.10,-1.30,
0.228,0.00,0.07,0.85,0.34,0.10,-1.30,
0.228,0.00,0.07,0.85,0.29,0.05,-1.26,
0.228,-0.00,0.07,0.85,0.29,0.05,-1.26,
0.231,-0.01,0.06,0.84,0.29,0.05,-1.26,
0.232,-0.01,0.06,0.84,0.29,0.02,-1.29,
0.234,0.00,0.05,0.84,0.29,0.02,-1.29,
0.236,0.00,0.05,0.84,0.25,-0.07,-1.28,
0.237,0.01,0.05,0.86,0.25,-0.07,-1.28,
0.239,0.01,0.05,0.86,0.25,-0.07,-1.28,
0.241,0.01,0.05,0.86,0.25,-0.07,-1.28,
0.241,0.01,0.05,0.86,0.34,-0.17,-1.23,
0.244,0.02,0.06,0.85,0.34,-0.17,-1.23,
0.246,0.02,0.06,0.85,0.40,-0.19,-1.12,
0.246,0.02,0.06,0.86,0.40,-0.19,-1.12,
0.248,0.03,0.06,0.87,0.40,-0.19,-1.12,
0.253,0.03,0.05,0.87,0.40,-0.19,-1.12,
0.254,0.03,0.05,0.87,0.50,-0.16,-1.15,
0.254,0.04,0.05,0.86,0.50,-0.16,-1.15,
0.257,0.04,0.06,0.86,0.50,-0.16,-1.15,
0.257,0.04,0.06,0.86,0.63,-0.18,-1.06,
0.259,0.05,0.06,0.87,0.63,-0.18,-1.06,
0.262,0.05,0.06,0.87,0.73,-0.17,-1.07,
0.262,0.05,0.05,0.88,0.73,-0.17,-1.07,
0.264,0.05,0.05,0.88,0.73,-0.17,-1.07,
0.267,0.05,0.05,0.89,0.73,-0.17,-1.07,
0.267,0.05,0.05,0.89,0.79,-0.18,-0.95,
0.27,0.05,0.05,0.90,0.79,-0.18,-0.95,
0.271,0.05,0.05,0.90,0.79,-0.18,-0.95,
0.272,0.05,0.05,0.90,0.77,-0.21,-0.84,
0.274,0.05,0.05,0.90,0.77,-0.21,-0.84,
0.277,0.04,0.05,0.90,0.77,-0.21,-0.84,
0.277,0.04,0.05,0.90,0.79,-0.21,-0.69,
0.279,0.04,0.05,0.90,0.79,-0.21,-0.69,
0.281,0.04,0.05,0.90,0.79,-0.21,-0.69,
0.281,0.04,0.05,0.90,0.74,-0.19,-0.68,
0.284,0.04,0.06,0.90,0.74,-0.19,-0.68,
0.286,0.03,0.06,0.90,0.74,-0.19,-0.68,
0.287,0.03,0.06,0.90,0.68,-0.21,-0.65,
0.289,0.04,0.06,0.89,0.68,-0.21,-0.65,
0.291,0.04,0.06,0.89,0.66,-0.17,-0.69,
0.291,0.03,0.05,0.89,0.66,-0.17,-0.69,
0.294,0.03,0.05,0.89,0.66,-0.17,-0.69,
0.296,0.03,0.05,0.89,0.65,-0.19,-0.76,
0.296,0.02,0.05,0.87,0.65,-0.19,-0.76,
0.299,0.02,0.05,0.87,0.65,-0.19,-0.76,
0.301,0.02,0.05,0.87,0.65,-0.19,-0.76,
0.301,0.02,0.05,0.87,0.53,-0.27,-0.85,
0.309,0.03,0.05,0.88,0.53,-0.27,-0.85,
0.31,0.03,0.05,0.87,0.53,-0.27,-0.85,
0.31,0.03,0.05,0.87,0.51,-0.23,-0.93,
0.311,0.02,0.06,0.86,0.51,-0.23,-0.93,
0.311,0.02,0.06,0.86,0.51,-0.23,-0.93,
0.311,0.02,0.06,0.86,0.56,-0.22,-0.93,
0.313,0.02,0.06,0.85,0.56,-0.22,-0.93,
0.315,0.02,0.06,0.84,0.56,-0.22,-0.93,
0.315,0.02,0.06,0.84,0.51,-0.18,-1.06,
0.319,0.02,0.05,0.84,0.51,-0.18,-1.06,
0.32,0.02,0.05,0.84,0.46,-0.18,-1.20,
0.321,0.01,0.06,0.83,0.46,-0.18,-1.20,
0.325,0.00,0.06,0.84,0.46,-0.18,-1.20,
0.325,-0.00,0.06,0.84,0.46,-0.18,-1.20,
0.325,-0.00,0.06,0.84,0.40,-0.21,-1.26,
0.328,-0.01,0.06,0.84,0.40,-0.21,-1.26,
0.33,-0.01,0.06,0.84,0.40,-0.21,-1.26,
0.331,-0.01,0.06,0.84,0.28,-0.21,-1.26,
0.333,-0.01,0.06,0.85,0.28,-0.21,-1.26,
0.335,-0.01,0.06,0.85,0.21,-0.21,-1.23,
0.336,-0.01,0.06,0.84,0.21,-0.21,-1.23,
0.34,-0.02,0.07,0.85,0.21,-0.21,-1.23,
0.34,-0.02,0.07,0.86,0.21,-0.21,-1.23,
0.34,-0.02,0.07,0.86,0.17,-0.16,-1.16,
0.342,-0.01,0.07,0.87,0.17,-0.16,-1.16,
0.345,-0.01,0.07,0.87,0.15,-0.08,-1.07,
0.345,-0.02,0.07,0.89,0.15,-0.08,-1.07,
0.348,-0.03,0.07,0.90,0.15,-0.08,-1.07,
0.35,-0.02,0.07,0.91,0.15,-0.08,-1.07,
0.35,-0.02,0.07,0.91,0.15,-0.08,-0.84,
0.353,-0.01,0.08,0.93,0.15,-0.08,-0.84,
0.355,-0.01,0.08,0.93,0.15,-0.08,-0.84,
0.355,-0.01,0.08,0.93,0.11,-0.06,-0.55,
0.358,-0.01,0.08,0.95,0.11,-0.06,-0.55,
0.36,-0.01,0.08,0.96,0.11,-0.06,-0.55,
0.36,-0.01,0.08,0.96,0.22,-0.01,-0.30,
0.363,-0.01,0.09,0.97,0.22,-0.01,-0.30,
0.365,-0.01,0.09,0.98,0.22,-0.01,-0.30,
0.365,-0.01,0.09,0.98,0.29,0.05,-0.05,
0.367,-0.00,0.08,0.99,0.29,0.05,-0.05,
0.369,-0.00,0.08,0.99,0.31,0.10,0.15,
0.37,-0.01,0.08,1.00,0.31,0.10,0.15,
0.372,-0.00,0.07,1.00,0.31,0.10,0.15,
0.375,-0.00,0.07,1.01,0.31,0.10,0.15,
0.375,-0.00,0.07,1.01,0.34,0.03,0.34,
0.378,-0.00,0.06,1.01,0.34,0.03,0.34,
0.38,0.00,0.05,1.00,0.34,0.03,0.34,
0.381,0.00,0.05,1.00,0.35,-0.04,0.44,
0.383,0.01,0.05,1.00,0.35,-0.04,0.44,
0.386,0.01,0.05,1.00,0.40,-0.18,0.40,
0.387,0.00,0.05,0.99,0.40,-0.18,0.40,
0.387,0.01,0.05,0.99,0.40,-0.18,0.40,
0.39,0.00,0.05,0.99,0.40,-0.18,0.40,
0.391,0.00,0.05,0.99,0.44,-0.22,0.35,
0.393,0.00,0.04,0.99,0.44,-0.22,0.35,
0.395,0.00,0.04,0.99,0.43,-0.25,0.28,
0.396,-0.00,0.04,1.00,0.43,-0.25,0.28,
0.398,-0.01,0.04,1.01,0.43,-0.25,0.28,
0.4,-0.01,0.03,1.02,0.43,-0.25,0.28,
0.4,-0.01,0.03,1.02,0.40,-0.33,0.31,
0.407,-0.01,0.03,1.02,0.40,-0.33,0.31,
0.408,-0.01,0.03,1.03,0.40,-0.33,0.31,
0.408,-0.01,0.03,1.03,0.30,-0.34,0.50,
0.408,-0.01,0.04,1.03,0.30,-0.34,0.50,
0.41,-0.01,0.04,1.02,0.30,-0.34,0.50,
0.41,-0.01,0.04,1.02,0.25,-0.36,0.60,
0.412,-0.01,0.05,1.03,0.25,-0.36,0.60,
0.414,-0.00,0.06,1.03,0.25,-0.36,0.60,
0.414,-0.00,0.06,1.03,0.28,-0.23,0.60,
0.417,-0.00,0.06,1.02,0.28,-0.23,0.60,
0.419,-0.00,0.06,1.02,0.32,-0.13,0.62,
0.42,0.00,0.07,1.02,0.32,-0.13,0.62,
0.422,0.00,0.07,1.01,0.32,-0.13,0.62,
0.424,0.00,0.07,1.01,0.37,-0.01,0.57,
0.425,0.01,0.08,1.01,0.37,-0.01,0.57,
0.428,0.02,0.08,1.01,0.37,-0.01,0.57,
0.43,0.03,0.09,1.00,0.37,-0.01,0.57,
0.43,0.03,0.09,1.00,0.41,0.07,0.44,
0.432,0.04,0.10,1.01,0.41,0.07,0.44,
0.434,0.05,0.10,1.00,0.41,0.07,0.44,
0.435,0.05,0.10,1.00,0.59,0.25,0.40,
0.437,0.06,0.11,1.00,0.59,0.25,0.40,
0.44,0.06,0.11,1.00,0.59,0.25,0.40,
0.44,0.06,0.11,1.00,0.79,0.34,0.38,
0.442,0.07,0.11,0.99,0.79,0.34,0.38,
0.445,0.07,0.11,0.99,0.92,0.44,0.32,
0.445,0.07,0.12,0.99,0.92,0.44,0.32,
0.447,0.07,0.11,0.99,0.92,0.44,0.32,
0.449,0.07,0.11,0.99,1.00,0.52,0.24,
0.45,0.08,0.11,0.99,1.00,0.52,0.24,
0.453,0.07,0.11,0.99,1.00,0.52,0.24,
0.455,0.07,0.10,1.00,1.00,0.52,0.24,
0.455,0.07,0.10,1.00,1.07,0.48,0.24,
0.456,0.07,0.10,0.99,1.07,0.48,0.24,
0.459,0.06,0.09,1.00,1.07,0.48,0.24,
0.459,0.06,0.09,1.00,1.04,0.43,0.27,
0.461,0.06,0.08,1.00,1.04,0.43,0.27,
0.463,0.05,0.08,1.00,1.04,0.43,0.27,
0.464,0.05,0.08,1.00,1.01,0.35,0.28,
0.466,0.04,0.07,1.01,1.01,0.35,0.28,
0.471,0.03,0.07,1.01,1.01,0.35,0.28,
0.472,0.03,0.07,1.01,0.90,0.19,0.31,
0.472,0.02,0.05,1.02,0.90,0.19,0.31,
0.474,0.00,0.04,1.03,0.90,0.19,0.31,
0.474,0.00,0.04,1.03,0.71,0.10,0.40,
0.476,-0.01,0.04,1.04,0.71,0.10,0.40,
0.478,-0.02,0.03,1.05,0.71,0.10,0.40,
0.479,-0.02,0.03,1.05,0.50,-0.07,0.55,
0.481,-0.03,0.03,1.05,0.50,-0.07,0.55,
0.484,-0.04,0.02,1.05,0.50,-0.07,0.55,
0.484,-0.04,0.02,1.05,0.24,-0.18,0.71,
0.488,-0.05,0.02,1.05,0.24,-0.18,0.71,
0.492,-0.06,0.02,1.06,0.24,-0.18,0.71,
0.492,-0.06,0.02,1.06,0.04,-0.27,0.80,
0.493,-0.07,0.01,1.06,0.04,-0.27,0.80,
0.494,-0.07,0.01,1.06,-0.11,-0.33,0.82,
0.495,-0.07,0.02,1.07,-0.11,-0.33,0.82,
0.496,-0.07,0.02,1.07,-0.11,-0.33,0.82,
0.499,-0.07,0.02,1.08,-0.11,-0.33,0.82,
0.499,-0.07,0.02,1.08,-0.26,-0.33,0.92,
0.501,-0.06,0.03,1.08,-0.26,-0.33,0.92,
0.504,-0.06,0.03,1.07,-0.26,-0.33,0.92,
0.505,-0.06,0.03,1.07,-0.27,-0.26,0.99,
0.506,-0.06,0.03,1.07,-0.27,-0.26,0.99,
0.508,-0.05,0.04,1.08,-0.27,-0.26,0.99,
0.509,-0.05,0.04,1.08,-0.18,-0.14,1.01,
0.511,-0.05,0.04,1.07,-0.18,-0.14,1.01,
0.514,-0.04,0.05,1.07,-0.18,-0.14,1.01,
0.514,-0.04,0.05,1.07,-0.13,-0.06,1.04,
0.516,-0.03,0.05,1.07,-0.13,-0.06,1.04,
0.523,-0.03,0.05,1.07,-0.03,0.05,0.95,
0.523,-0.03,0.05,1.07,-0.03,0.05,0.95,
0.523,-0.02,0.05,1.06,-0.03,0.05,0.95,
0.524,-0.01,0.06,1.05,-0.03,0.05,0.95,
0.524,-0.01,0.06,1.05,0.06,0.12,0.91,
0.526,-0.00,0.06,1.04,0.06,0.12,0.91,
0.528,-0.00,0.06,1.03,0.06,0.12,0.91,
0.528,-0.00,0.06,1.03,0.17,0.21,0.78,
0.531,0.01,0.06,1.03,0.17,0.21,0.78,
0.534,0.02,0.06,1.02,0.17,0.21,0.78,
0.534,0.02,0.06,1.02,0.29,0.26,0.62,
0.536,0.02,0.06,1.01,0.29,0.26,0.62,
0.539,0.03,0.04,1.00,0.29,0.26,0.62,
0.539,0.03,0.04,1.00,0.44,0.24,0.46,
0.541,0.03,0.04,0.99,0.44,0.24,0.46,
0.543,0.03,0.04,0.99,0.52,0.17,0.26,
0.543,0.04,0.02,0.98,0.52,0.17,0.26,
0.546,0.04,0.02,0.97,0.52,0.17,0.26,
0.549,0.05,0.03,0.98,0.52,0.17,0.26,
0.549,0.05,0.03,0.98,0.59,-0.01,0.09,
0.551,0.06,0.02,0.98,0.59,-0.01,0.09,
0.553,0.06,0.02,0.98,0.69,-0.06,-0.01,
0.554,0.06,0.02,0.98,0.69,-0.06,-0.01,
0.556,0.06,0.01,0.98,0.69,-0.06,-0.01,
0.558,0.05,0.01,0.98,0.69,-0.06,-0.01,
0.558,0.05,0.01,0.98,0.82,-0.08,0.02,
0.561,0.04,0.00,0.98,0.82,-0.08,0.02,
0.564,0.03,-0.00,0.99,0.82,-0.08,0.02,
0.564,0.03,-0.00,0.99,0.78,-0.17,0.03,
0.566,0.02,-0.01,0.99,0.78,-0.17,0.03,
0.568,0.02,-0.01,0.99,0.64,-0.28,0.13,
0.569,0.01,-0.01,0.99,0.64,-0.28,0.13,
0.572,-0.01,-0.02,0.99,0.64,-0.28,0.13,
0.573,-0.03,-0.02,1.00,0.64,-0.28,0.13,
0.573,-0.03,-0.02,1.00,0.42,-0.34,0.12,
0.579,-0.04,-0.02,0.99,0.42,-0.34,0.12,
0.58,-0.06,-0.03,1.00,0.42,-0.34,0.12,
0.58,-0.06,-0.03,1.00,0.16,-0.43,0.17,
0.581,-0.07,-0.03,1.00,0.16,-0.43,0.17,
0.583,-0.07,-0.03,1.00,-0.16,-0.48,0.19,
0.583,-0.08,-0.02,1.00,-0.16,-0.48,0.19,
0.586,-0.09,-0.02,0.99,-0.16,-0.48,0.19,
0.587,-0.10,-0.02,0.99,-0.16,-0.48,0.19,
0.588,-0.10,-0.02,0.99,-0.36,-0.48,0.20,
0.59,-0.10,-0.01,0.98,-0.36,-0.48,0.20,
0.595,-0.10,-0.01,0.98,-0.54,-0.41,0.12,
0.595,-0.11,-0.01,0.98,-0.54,-0.41,0.12,
0.595,-0.11,0.00,0.97,-0.54,-0.41,0.12,
0.597,-0.11,0.00,0.97,-0.54,-0.41,0.12,
0.597,-0.11,0.00,0.97,-0.69,-0.28,0.06,
0.601,-0.11,0.01,0.97,-0.69,-0.28,0.06,
0.603,-0.12,0.02,0.97,-0.69,-0.28,0.06,
0.603,-0.12,0.02,0.97,-0.69,-0.18,-0.05,
0.607,-0.12,0.01,0.96,-0.69,-0.18,-0.05,
0.607,-0.12,0.02,0.97,-0.69,-0.18,-0.05,
0.607,-0.12,0.02,0.97,-0.73,-0.05,-0.10,
0.611,-0.13,0.02,0.97,-0.73,-0.05,-0.10,
0.613,-0.13,0.02,0.97,-0.81,-0.01,-0.12,
0.613,-0.13,0.02,0.97,-0.81,-0.01,-0.12,
0.616,-0.14,0.01,0.98,-0.81,-0.01,-0.12,
0.618,-0.14,0.01,0.98,-0.91,0.02,-0.08,
0.618,-0.14,0.02,0.98,-0.91,0.02,-0.08,
0.621,-0.14,0.02,0.98,-0.91,0.02,-0.08,
0.622,-0.15,0.03,0.98,-0.91,0.02,-0.08,
0.622,-0.15,0.03,0.98,-1.02,0.02,0.00,
0.626,-0.14,0.03,0.98,-1.02,0.02,0.00,
0.629,-0.14,0.03,0.98,-1.02,0.02,0.00,
0.629,-0.14,0.03,0.98,-1.07,0.11,0.03,
0.63,-0.14,0.04,0.98,-1.07,0.11,0.03,
0.633,-0.14,0.04,0.98,-1.07,0.11,0.03,
0.633,-0.14,0.04,0.98,-1.03,0.18,0.01,
0.635,-0.13,0.05,0.98,-1.03,0.18,0.01,
0.642,-0.13,0.05,0.98,-1.03,0.18,0.01,
0.643,-0.13,0.05,0.98,-1.01,0.29,-0.00,
0.644,-0.13,0.06,0.99,-1.01,0.29,-0.00,
0.644,-0.14,0.06,0.99,-1.01,0.29,-0.00,
0.644,-0.14,0.06,0.99,-0.97,0.40,0.07,
0.644,-0.14,0.06,0.99,-0.97,0.40,0.07,
0.647,-0.14,0.06,0.99,-1.01,0.45,0.10,
0.648,-0.14,0.06,0.99,-1.01,0.45,0.10,
0.65,-0.14,0.06,0.99,-1.01,0.45,0.10,
0.656,-0.15,0.06,0.99,-1.01,0.45,0.10,
0.659,-0.15,0.06,0.99,-1.05,0.49,0.10,
0.659,-0.15,0.06,0.99,-1.05,0.49,0.10,
0.659,-0.15,0.06,0.99,-1.05,0.49,0.10,
0.66,-0.15,0.06,0.99,-1.09,0.47,0.12,
0.66,-0.16,0.06,0.99,-1.09,0.47,0.12,
0.663,-0.16,0.07,0.99,-1.09,0.47,0.12,
0.663,-0.16,0.07,0.99,-1.14,0.50,0.09,
0.665,-0.16,0.06,0.98,-1.14,0.50,0.09,
0.667,-0.16,0.06,0.98,-1.19,0.57,0.10,
0.667,-0.16,0.06,0.99,-1.19,0.57,0.10,
0.67,-0.16,0.06,0.99,-1.19,0.57,0.10,
0.673,-0.16,0.06,0.99,-1.19,0.57,0.10,
0.673,-0.16,0.06,0.99,-1.20,0.56,0.09,
0.675,-0.16,0.05,0.99,-1.20,0.56,0.09,
0.677,-0.16,0.05,1.00,-1.20,0.56,0.09,
0.678,-0.16,0.05,1.00,-1.19,0.54,0.13,
0.68,-0.15,0.04,1.00,-1.19,0.54,0.13,
0.682,-0.15,0.04,1.01,-1.19,0.54,0.13,
0.682,-0.15,0.04,1.01,-1.17,0.47,0.18,
0.685,-0.14,0.04,1.02,-1.17,0.47,0.18,
0.688,-0.14,0.04,1.03,-1.17,0.47,0.18,
0.688,-0.14,0.04,1.03,-1.13,0.40,0.30,
0.691,-0.15,0.03,1.03,-1.13,0.40,0.30,
0.691,-0.15,0.03,1.03,-1.04,0.41,0.49,
0.691,-0.14,0.03,1.03,-1.04,0.41,0.49,
0.694,-0.13,0.03,1.03,-1.04,0.41,0.49,
0.697,-0.12,0.03,1.03,-1.04,0.41,0.49,
0.697,-0.12,0.03,1.03,-1.04,0.35,0.48,
0.699,-0.11,0.03,1.03,-1.04,0.35,0.48,
0.702,-0.11,0.03,1.04,-1.04,0.35,0.48,
0.702,-0.11,0.03,1.04,-0.91,0.38,0.52,
0.705,-0.11,0.02,1.03,-0.91,0.38,0.52,
0.706,-0.10,0.01,1.03,-0.91,0.38,0.52,
0.706,-0.10,0.01,1.03,-0.79,0.37,0.53,
0.709,-0.09,0.00,1.03,-0.79,0.37,0.53,
0.711,-0.09,-0.00,1.03,-0.79,0.37,0.53,
0.711,-0.09,-0.00,1.03,-0.73,0.25,0.52,
0.714,-0.09,-0.01,1.03,-0.73,0.25,0.52,
0.716,-0.09,-0.02,1.03,-0.73,0.25,0.52,
0.716,-0.09,-0.02,1.03,-0.62,0.15,0.48,
0.727,-0.09,-0.02,1.03,-0.62,0.15,0.48,
0.728,-0.09,-0.03,1.03,-0.62,0.15,0.48,
0.728,-0.09,-0.03,1.03,-0.59,0.01,0.48,
0.729,-0.09,-0.04,1.03,-0.59,0.01,0.48,
0.729,-0.09,-0.04,1.04,-0.59,0.01,0.48,
0.73,-0.09,-0.04,1.04,-0.61,-0.09,0.47,
0.73,-0.08,-0.05,1.05,-0.61,-0.09,0.47,
0.731,-0.08,-0.05,1.05,-0.61,-0.09,0.47,
0.731,-0.08,-0.05,1.05,-0.60,-0.19,0.55,
0.733,-0.08,-0.05,1.05,-0.60,-0.19,0.55,
0.741,-0.09,-0.05,1.06,-0.60,-0.19,0.55,
0.742,-0.09,-0.05,1.06,-0.56,-0.24,0.65,
0.742,-0.09,-0.04,1.06,-0.56,-0.24,0.65,
0.743,-0.09,-0.04,1.07,-0.56,-0.24,0.65,
0.743,-0.09,-0.04,1.07,-0.56,-0.22,0.71,
0.744,-0.10,-0.04,1.07,-0.56,-0.22,0.71,
0.746,-0.10,-0.03,1.09,-0.56,-0.22,0.71,
0.746,-0.10,-0.03,1.09,-0.58,-0.13,0.84,
0.748,-0.10,-0.03,1.11,-0.58,-0.13,0.84,
0.75,-0.10,-0.02,1.12,-0.58,-0.13,0.84,
0.751,-0.10,-0.02,1.12,-0.63,-0.07,1.00,
0.753,-0.10,-0.03,1.12,-0.63,-0.07,1.00,
0.756,-0.10,-0.02,1.13,-0.63,-0.07,1.00,
0.756,-0.10,-0.02,1.13,-0.64,0.02,1.27,
0.758,-0.11,-0.02,1.14,-0.64,0.02,1.27,
0.76,-0.10,-0.03,1.14,-0.64,0.02,1.27,
0.761,-0.10,-0.03,1.14,-0.66,0.06,1.45,
0.763,-0.11,-0.03,1.15,-0.66,0.06,1.45,
0.765,-0.11,-0.04,1.15,-0.66,0.06,1.45,
0.765,-0.11,-0.04,1.15,-0.65,0.05,1.57,
0.768,-0.11,-0.04,1.15,-0.65,0.05,1.57,
0.77,-0.12,-0.04,1.15,-0.65,0.05,1.57,
0.771,-0.12,-0.04,1.15,-0.72,0.00,1.63,
0.773,-0.12,-0.05,1.15,-0.72,0.00,1.63,
0.776,-0.11,-0.05,1.14,-0.72,0.00,1.63,
0.776,-0.11,-0.05,1.14,-0.73,-0.03,1.61,
0.778,-0.12,-0.06,1.14,-0.73,-0.03,1.61,
0.78,-0.12,-0.06,1.13,-0.73,-0.03,1.61,
0.78,-0.12,-0.06,1.13,-0.73,-0.13,1.60,
0.783,-0.12,-0.07,1.12,-0.73,-0.13,1.60,
0.787,-0.12,-0.07,1.11,-0.73,-0.13,1.60,
0.788,-0.12,-0.07,1.11,-0.74,-0.22,1.46,
0.789,-0.12,-0.08,1.10,-0.74,-0.22,1.46,
0.79,-0.13,-0.09,1.09,-0.74,-0.22,1.46,
0.791,-0.13,-0.09,1.09,-0.75,-0.28,1.26,
0.793,-0.13,-0.09,1.08,-0.75,-0.28,1.26,
0.795,-0.13,-0.10,1.07,-0.75,-0.28,1.26,
0.796,-0.13,-0.10,1.07,-0.82,-0.45,1.08,
0.798,-0.13,-0.11,1.07,-0.82,-0.45,1.08,
0.8,-0.13,-0.11,1.06,-0.82,-0.45,1.08,
0.801,-0.13,-0.11,1.06,-0.86,-0.53,0.91,
0.804,-0.12,-0.11,1.06,-0.86,-0.53,0.91,
0.805,-0.12,-0.11,1.06,-0.86,-0.53,0.91,
0.806,-0.12,-0.11,1.06,-0.87,-0.66,0.78,
0.808,-0.12,-0.12,1.06,-0.87,-0.66,0.78,
0.81,-0.12,-0.12,1.08,-0.87,-0.66,0.78,
0.81,-0.12,-0.12,1.08,-0.78,-0.69,0.74,
0.812,-0.12,-0.12,1.10,-0.78,-0.69,0.74,
0.816,-0.12,-0.12,1.11,-0.78,-0.69,0.74,
0.816,-0.12,-0.12,1.11,-0.75,-0.72,0.84,
0.822,-0.12,-0.12,1.14,-0.75,-0.72,0.84,
0.822,-0.11,-0.11,1.15,-0.75,-0.72,0.84,
0.823,-0.11,-0.11,1.15,-0.75,-0.71,1.17,
0.823,-0.11,-0.11,1.16,-0.75,-0.71,1.17,
0.827,-0.10,-0.11,1.18,-0.75,-0.71,1.17,
0.828,-0.10,-0.11,1.18,-0.69,-0.65,1.52,
0.828,-0.10,-0.10,1.20,-0.69,-0.65,1.52,
0.83,-0.10,-0.10,1.20,-0.59,-0.56,1.82,
0.83,-0.09,-0.09,1.22,-0.59,-0.56,1.82,
0.833,-0.08,-0.09,1.23,-0.59,-0.56,1.82,
0.835,-0.07,-0.09,1.24,-0.59,-0.56,1.82,
0.836,-0.07,-0.09,1.24,-0.46,-0.42,2.20,
0.838,-0.06,-0.08,1.26,-0.46,-0.42,2.20,
0.841,-0.05,-0.08,1.27,-0.46,-0.42,2.20,
0.841,-0.05,-0.08,1.27,-0.27,-0.31,2.45,
0.843,-0.04,-0.08,1.28,-0.27,-0.31,2.45,
0.846,-0.03,-0.07,1.29,-0.27,-0.31,2.45,
0.846,-0.03,-0.07,1.29,-0.10,-0.20,2.71,
0.848,-0.03,-0.07,1.29,-0.10,-0.20,2.71,
0.85,-0.02,-0.07,1.29,-0.10,-0.20,2.71,
0.851,-0.02,-0.07,1.29,0.09,-0.14,2.88,
0.858,-0.01,-0.07,1.28,0.09,-0.14,2.88,
0.861,-0.01,-0.07,1.28,0.09,-0.14,2.88,
0.861,-0.01,-0.07,1.28,0.25,-0.09,2.94,
0.861,0.00,-0.06,1.28,0.25,-0.09,2.94,
0.862,0.01,-0.06,1.27,0.25,-0.09,2.94,
0.862,0.01,-0.06,1.27,0.37,-0.05,2.82,
0.862,0.02,-0.06,1.26,0.37,-0.05,2.82,
0.865,0.02,-0.06,1.25,0.37,-0.05,2.82,
0.865,0.02,-0.06,1.25,0.53,0.06,2.75,
0.867,0.02,-0.06,1.24,0.53,0.06,2.75,
0.871,0.02,-0.06,1.24,0.53,0.06,2.75,
0.872,0.02,-0.06,1.24,0.66,0.08,2.57,
0.872,0.02,-0.06,1.24,0.66,0.08,2.57,
0.875,0.02,-0.07,1.24,0.66,0.08,2.57,
0.875,0.02,-0.07,1.24,0.66,0.07,2.44,
0.877,0.02,-0.07,1.24,0.66,0.07,2.44,
0.88,0.02,-0.07,1.24,0.66,0.03,2.41,
0.88,0.01,-0.07,1.23,0.66,0.03,2.41,
0.882,0.01,-0.07,1.22,0.66,0.03,2.41,
0.886,0.00,-0.07,1.22,0.66,0.03,2.41,
0.886,0.00,-0.07,1.22,0.60,-0.01,2.36,
0.888,0.00,-0.07,1.22,0.60,-0.01,2.36,
0.89,-0.00,-0.07,1.21,0.60,-0.01,2.36,
0.89,-0.00,-0.07,1.21,0.53,-0.02,2.22,
0.892,-0.00,-0.08,1.21,0.53,-0.02,2.22,
0.894,-0.01,-0.08,1.21,0.53,-0.02,2.22,
0.894,-0.01,-0.08,1.21,0.48,-0.06,2.15,
0.897,-0.01,-0.08,1.21,0.48,-0.06,2.15,
0.9,-0.01,-0.08,1.21,0.48,-0.06,2.15,
0.901,-0.01,-0.08,1.21,0.45,-0.12,2.06,
0.901,-0.01,-0.08,1.21,0.45,-0.12,2.06,
0.905,-0.01,-0.08,1.21,0.39,-0.12,2.05,
0.905,-0.01,-0.08,1.21,0.39,-0.12,2.05,
0.907,-0.00,-0.09,1.21,0.39,-0.12,2.05,
0.909,0.00,-0.08,1.21,0.39,-0.12,2.05,
0.909,0.00,-0.08,1.21,0.42,-0.16,2.06,
0.912,0.00,-0.09,1.21,0.42,-0.16,2.06,
0.915,0.01,-0.09,1.21,0.42,-0.16,2.06,
0.915,0.01,-0.09,1.21,0.48,-0.16,2.08,
0.917,0.00,-0.09,1.20,0.48,-0.16,2.08,
0.919,0.01,-0.09,1.20,0.48,-0.16,2.08,
0.92,0.01,-0.09,1.20,0.53,-0.18,2.04,
0.921,0.00,-0.10,1.20,0.53,-0.18,2.04,
0.924,0.01,-0.09,1.19,0.53,-0.18,2.04,
0.924,0.01,-0.09,1.19,0.55,-0.20,1.98,
0.927,0.01,-0.09,1.19,0.55,-0.20,1.98,
0.93,0.01,-0.09,1.19,0.54,-0.24,1.91,
0.93,0.00,-0.09,1.19,0.54,-0.24,1.91,
0.932,0.00,-0.09,1.19,0.54,-0.24,1.91,
0.935,0.01,-0.09,1.18,0.54,-0.24,1.91,
0.935,0.01,-0.09,1.18,0.55,-0.18,1.83,
0.936,0.00,-0.09,1.17,0.55,-0.18,1.83,
0.941,-0.01,-0.09,1.17,0.55,-0.18,1.83,
0.941,-0.01,-0.09,1.17,0.55,-0.21,1.77,
0.942,-0.01,-0.09,1.17,0.55,-0.21,1.77,
0.944,-0.01,-0.08,1.16,0.55,-0.21,1.77,
0.944,-0.01,-0.08,1.16,0.48,-0.19,1.64,
0.946,-0.02,-0.09,1.16,0.48,-0.19,1.64,
0.949,-0.03,-0.09,1.15,0.48,-0.19,1.64,
0.95,-0.03,-0.09,1.15,0.40,-0.18,1.57,
0.952,-0.03,-0.09,1.15,0.40,-0.18,1.57,
0.954,-0.03,-0.09,1.15,0.29,-0.18,1.50,
0.955,-0.03,-0.09,1.14,0.29,-0.18,1.50,
0.957,-0.04,-0.09,1.14,0.29,-0.18,1.50,
0.96,-0.04,-0.08,1.13,0.29,-0.18,1.50,
0.96,-0.04,-0.08,1.13,0.21,-0.18,1.37,
0.962,-0.04,-0.08,1.13,0.21,-0.18,1.37,
0.964,-0.04,-0.08,1.13,0.21,-0.18,1.37,
0.964,-0.04,-0.08,1.13,0.09,-0.19,1.30,
0.967,-0.04,-0.08,1.12,0.09,-0.19,1.30,
0.969,-0.04,-0.08,1.12,0.09,-0.19,1.30,
0.969,-0.04,-0.08,1.12,0.08,-0.13,1.20,
0.972,-0.04,-0.08,1.13,0.08,-0.13,1.20,
0.974,-0.04,-0.08,1.13,0.03,-0.15,1.10,
0.975,-0.04,-0.09,1.12,0.03,-0.15,1.10,
0.977,-0.04,-0.09,1.11,0.03,-0.15,1.10,
0.981,-0.04,-0.09,1.11,0.04,-0.17,1.11,
0.982,-0.04,-0.09,1.11,0.04,-0.17,1.11,
0.982,-0.03,-0.08,1.10,0.04,-0.17,1.11,
0.985,-0.03,-0.09,1.10,0.04,-0.17,1.11,
0.985,-0.03,-0.09,1.10,0.06,-0.21,0.99,
0.989,-0.04,-0.09,1.10,0.06,-0.21,0.99,
0.99,-0.04,-0.08,1.10,0.06,-0.21,0.99,
0.99,-0.04,-0.08,1.10,0.08,-0.20,0.92,
0.993,-0.03,-0.08,1.10,0.08,-0.20,0.92,
0.993,-0.04,-0.08,1.10,0.08,-0.20,0.92,
0.994,-0.04,-0.08,1.10,0.02,-0.18,0.91,
0.997,-0.04,-0.08,1.10,0.02,-0.18,0.91,
0.999,-0.04,-0.08,1.09,0.02,-0.18,0.91,
0.999,-0.04,-0.08,1.09,0.00,-0.14,0.91,
1.002,-0.04,-0.07,1.09,0.00,-0.14,0.91,
1.004,-0.04,-0.07,1.08,0.00,-0.14,0.91,
1.004,-0.04,-0.07,1.08,-0.04,-0.13,0.85,
1.007,-0.05,-0.07,1.08,-0.04,-0.13,0.85,
1.009,-0.05,-0.07,1.07,-0.04,-0.13,0.85,
1.009,-0.05,-0.07,1.07,-0.08,-0.05,0.77,
1.011,-0.05,-0.07,1.06,-0.08,-0.05,0.77,
1.014,-0.05,-0.07,1.06,-0.08,-0.05,0.77,
1.014,-0.05,-0.07,1.06,-0.14,-0.02,0.63,
1.016,-0.05,-0.07,1.06,-0.14,-0.02,0.63,
1.019,-0.05,-0.07,1.06,-0.18,-0.02,0.53,
1.019,-0.05,-0.07,1.06,-0.18,-0.02,0.53,
1.022,-0.05,-0.06,1.06,-0.18,-0.02,0.53,
1.024,-0.05,-0.06,1.06,-0.18,-0.02,0.53,
1.025,-0.05,-0.06,1.06,-0.18,-0.01,0.52,
1.025,-0.05,-0.06,1.06,-0.18,-0.01,0.52,
1.028,-0.05,-0.06,1.06,-0.17,0.02,0.46,
1.029,-0.04,-0.06,1.06,-0.17,0.02,0.46,
1.031,-0.04,-0.05,1.06,-0.17,0.02,0.46,
1.032,-0.03,-0.05,1.06,-0.17,0.02,0.46,
1.033,-0.03,-0.05,1.06,-0.13,0.04,0.47,
1.035,-0.03,-0.05,1.07,-0.13,0.04,0.47,
1.038,-0.02,-0.05,1.07,-0.13,0.04,0.47,
1.039,-0.02,-0.05,1.07,-0.04,0.13,0.45,
1.04,-0.02,-0.05,1.07,-0.04,0.13,0.45,
1.043,-0.02,-0.05,1.07,0.09,0.13,0.56,
1.043,-0.01,-0.05,1.08,0.09,0.13,0.56,
1.045,-0.01,-0.06,1.10,0.09,0.13,0.56,
1.047,-0.01,-0.06,1.10,0.09,0.13,0.56,
1.048,-0.01,-0.06,1.10,0.22,0.14,0.65,
1.05,-0.01,-0.07,1.11,0.22,0.14,0.65,
1.053,-0.02,-0.07,1.12,0.22,0.14,0.65,
1.053,-0.02,-0.07,1.12,0.24,0.06,0.85,
1.064,-0.01,-0.08,1.13,0.24,0.06,0.85,
1.065,-0.02,-0.08,1.14,0.24,0.06,0.85,
1.065,-0.02,-0.08,1.14,0.20,-0.05,1.04,
1.066,-0.01,-0.08,1.15,0.20,-0.05,1.04,
1.066,-0.01,-0.09,1.16,0.20,-0.05,1.04,
1.067,-0.01,-0.09,1.16,0.21,-0.12,1.25,
1.067,-0.01,-0.10,1.16,0.21,-0.12,1.25,
1.068,-0.01,-0.10,1.16,0.23,-0.20,1.41,
1.068,-0.01,-0.10,1.16,0.23,-0.20,1.41,
1.081,-0.00,-0.10,1.17,0.23,-0.20,1.41,
1.082,-0.00,-0.11,1.17,0.23,-0.20,1.41,
1.083,-0.00,-0.11,1.17,0.30,-0.28,1.47,
1.083,0.01,-0.11,1.16,0.30,-0.28,1.47,
1.083,0.01,-0.11,1.17,0.30,-0.28,1.47,
1.084,0.01,-0.11,1.17,0.35,-0.34,1.53,
1.084,0.02,-0.11,1.17,0.35,-0.34,1.53,
1.084,0.02,-0.11,1.16,0.35,-0.34,1.53,
1.085,0.02,-0.11,1.16,0.44,-0.40,1.50,
1.085,0.03,-0.11,1.16,0.44,-0.40,1.50,
1.088,0.03,-0.11,1.16,0.44,-0.40,1.50,
1.089,0.03,-0.11,1.16,0.51,-0.42,1.49,
1.091,0.03,-0.11,1.15,0.51,-0.42,1.49,
1.092,0.03,-0.11,1.15,0.56,-0.39,1.42,
1.092,0.04,-0.11,1.14,0.56,-0.39,1.42,
1.094,0.04,-0.10,1.13,0.56,-0.39,1.42,
1.097,0.04,-0.10,1.11,0.56,-0.39,1.42,
1.097,0.04,-0.10,1.11,0.65,-0.38,1.25,
1.099,0.05,-0.10,1.10,0.65,-0.38,1.25,
1.102,0.05,-0.10,1.08,0.65,-0.38,1.25,
1.102,0.05,-0.10,1.08,0.65,-0.32,1.01,
1.104,0.06,-0.09,1.08,0.65,-0.32,1.01,
1.107,0.06,-0.09,1.07,0.65,-0.32,1.01,
1.107,0.06,-0.09,1.07,0.71,-0.27,0.73,
1.109,0.06,-0.08,1.06,0.71,-0.27,0.73,
1.112,0.06,-0.08,1.06,0.71,-0.27,0.73,
1.112,0.06,-0.08,1.06,0.76,-0.19,0.59,
1.114,0.05,-0.08,1.05,0.76,-0.19,0.59,
1.117,0.04,-0.07,1.04,0.76,-0.19,0.59,
1.117,0.04,-0.07,1.04,0.73,-0.12,0.42,
1.119,0.03,-0.07,1.04,0.73,-0.12,0.42,
1.122,0.02,-0.06,1.03,0.73,-0.12,0.42,
1.123,0.02,-0.06,1.03,0.54,-0.08,0.26,
1.124,0.02,-0.05,1.02,0.54,-0.08,0.26,
1.127,0.01,-0.05,1.01,0.54,-0.08,0.26,
1.127,0.01,-0.05,1.01,0.36,0.02,0.14,
1.13,0.00,-0.04,1.01,0.36,0.02,0.14,
1.131,-0.00,-0.03,1.01,0.36,0.02,0.14,
1.132,-0.00,-0.03,1.01,0.21,0.19,-0.01,
1.134,-0.01,-0.03,1.01,0.21,0.19,-0.01,
1.138,-0.02,-0.02,1.01,0.21,0.19,-0.01,
1.139,-0.02,-0.02,1.01,0.09,0.30,-0.05,
1.14,-0.03,-0.01,1.02,0.09,0.30,-0.05,
1.142,-0.04,-0.01,1.03,0.09,0.30,-0.05,
1.142,-0.04,-0.01,1.03,-0.07,0.40,-0.02,
1.145,-0.06,-0.02,1.03,-0.07,0.40,-0.02,
1.147,-0.06,-0.02,1.03,-0.25,0.50,0.04,
1.153,-0.07,-0.01,1.03,-0.25,0.50,0.04,
1.153,-0.07,-0.01,1.03,-0.25,0.50,0.04,
1.154,-0.08,-0.01,1.04,-0.25,0.50,0.04,
1.154,-0.08,-0.01,1.04,-0.51,0.49,0.13,
1.154,-0.08,-0.01,1.05,-0.51,0.49,0.13,
1.158,-0.08,-0.01,1.05,-0.51,0.49,0.13,
1.159,-0.08,-0.01,1.05,-0.65,0.54,0.20,
1.16,-0.08,-0.02,1.05,-0.65,0.54,0.20,
1.161,-0.08,-0.02,1.06,-0.65,0.54,0.20,
1.162,-0.08,-0.02,1.06,-0.66,0.51,0.31,
1.164,-0.07,-0.02,1.06,-0.66,0.51,0.31,
1.167,-0.07,-0.02,1.06,-0.66,0.51,0.31,
1.167,-0.07,-0.02,1.06,-0.64,0.42,0.37,
1.169,-0.06,-0.04,1.05,-0.64,0.42,0.37,
1.171,-0.06,-0.04,1.05,-0.64,0.42,0.37,
1.171,-0.06,-0.04,1.05,-0.55,0.37,0.40,
1.176,-0.05,-0.04,1.05,-0.55,0.37,0.40,
1.176,-0.05,-0.05,1.04,-0.55,0.37,0.40,
1.177,-0.05,-0.05,1.04,-0.48,0.23,0.29,
1.181,-0.04,-0.05,1.03,-0.48,0.23,0.29,
1.181,-0.03,-0.05,1.02,-0.48,0.23,0.29,
1.181,-0.03,-0.05,1.02,-0.38,0.15,0.28,
1.184,-0.02,-0.06,1.01,-0.38,0.15,0.28,
1.187,-0.01,-0.06,1.01,-0.38,0.15,0.28,
1.187,-0.01,-0.06,1.01,-0.24,0.08,0.10,
1.189,-0.01,-0.06,1.00,-0.24,0.08,0.10,
1.191,-0.01,-0.06,1.00,-0.12,-0.01,-0.06,
1.192,-0.00,-0.06,0.99,-0.12,-0.01,-0.06,
1.194,0.01,-0.06,0.98,-0.12,-0.01,-0.06,
1.197,0.01,-0.06,0.97,-0.12,-0.01,-0.06,
1.197,0.01,-0.06,0.97,-0.03,-0.02,-0.20,
1.199,0.01,-0.06,0.97,-0.03,-0.02,-0.20,
1.202,0.01,-0.06,0.96,-0.03,-0.02,-0.20,
1.202,0.01,-0.06,0.96,0.08,-0.02,-0.39,
1.204,0.02,-0.05,0.95,0.08,-0.02,-0.39,
1.206,0.02,-0.05,0.94,0.08,-0.02,-0.39,
1.207,0.02,-0.05,0.94,0.05,0.00,-0.51,
1.209,0.02,-0.05,0.94,0.05,0.00,-0.51,
1.212,0.01,-0.04,0.94,0.05,0.00,-0.51,
1.213,0.01,-0.04,0.94,0.07,0.05,-0.67,
1.214,0.01,-0.03,0.93,0.07,0.05,-0.67,
1.217,0.01,-0.03,0.93,0.02,0.15,-0.75,
1.217,0.01,-0.02,0.93,0.02,0.15,-0.75,
1.219,0.01,-0.01,0.92,0.02,0.15,-0.75,
1.221,0.00,-0.01,0.93,0.02,0.15,-0.75,
1.221,0.00,-0.01,0.93,-0.04,0.29,-0.87,
1.225,-0.01,-0.00,0.93,-0.04,0.29,-0.87,
1.226,-0.02,0.00,0.94,-0.04,0.29,-0.87,
1.227,-0.02,0.00,0.94,-0.12,0.48,-0.89,
1.229,-0.03,0.01,0.96,-0.12,0.48,-0.89,
1.232,-0.05,0.02,0.98,-0.12,0.48,-0.89,
1.232,-0.05,0.02,0.98,-0.29,0.60,-0.78,
1.234,-0.05,0.02,1.00,-0.29,0.60,-0.78,
1.237,-0.07,0.01,1.02,-0.29,0.60,-0.78,
1.237,-0.07,0.01,1.02,-0.54,0.73,-0.47,
1.239,-0.08,0.02,1.04,-0.54,0.73,-0.47,
1.241,-0.09,0.01,1.06,-0.54,0.73,-0.47,
1.242,-0.09,0.01,1.06,-0.78,0.75,-0.06,
1.244,-0.10,0.01,1.07,-0.78,0.75,-0.06,
1.247,-0.10,0.01,1.10,-0.78,0.75,-0.06,
1.248,-0.10,0.01,1.10,-1.02,0.75,0.34,
1.249,-0.10,0.01,1.11,-1.02,0.75,0.34,
1.251,-0.10,0.00,1.12,-1.02,0.75,0.34,
1.252,-0.10,0.00,1.12,-1.13,0.74,0.67,
1.254,-0.09,-0.00,1.12,-1.13,0.74,0.67,
1.256,-0.09,-0.00,1.12,-1.11,0.68,0.96,
1.257,-0.08,-0.01,1.13,-1.11,0.68,0.96,
1.259,-0.08,-0.01,1.14,-1.11,0.68,0.96,
1.261,-0.07,-0.02,1.14,-1.11,0.68,0.96,
1.261,-0.07,-0.02,1.14,-1.01,0.59,1.10,
1.264,-0.07,-0.03,1.13,-1.01,0.59,1.10,
1.266,-0.07,-0.03,1.13,-0.88,0.47,1.18,
1.267,-0.06,-0.04,1.13,-0.88,0.47,1.18,
1.269,-0.05,-0.04,1.13,-0.88,0.47,1.18,
1.271,-0.03,-0.05,1.11,-0.88,0.47,1.18,
1.272,-0.03,-0.05,1.11,-0.77,0.31,1.12,
1.275,-0.02,-0.06,1.10,-0.77,0.31,1.12,
1.276,-0.01,-0.07,1.09,-0.77,0.31,1.12,
1.276,-0.01,-0.07,1.09,-0.58,0.14,0.97,
1.279,0.00,-0.07,1.08,-0.58,0.14,0.97,
1.281,0.01,-0.08,1.06,-0.58,0.14,0.97,
1.282,0.01,-0.08,1.06,-0.36,-0.05,0.75,
1.284,0.02,-0.09,1.05,-0.36,-0.05,0.75,
1.286,0.03,-0.09,1.03,-0.36,-0.05,0.75,
1.286,0.03,-0.09,1.03,-0.19,-0.18,0.53,
1.288,0.04,-0.10,1.02,-0.19,-0.18,0.53,
1.295,0.05,-0.10,1.01,-0.19,-0.18,0.53,
1.295,0.05,-0.10,1.01,-0.01,-0.32,0.20,
1.295,0.06,-0.09,0.99,-0.01,-0.32,0.20,
1.296,0.07,-0.10,0.99,-0.01,-0.32,0.20,
1.296,0.07,-0.10,0.99,0.14,-0.40,-0.02,
1.299,0.08,-0.10,0.98,0.14,-0.40,-0.02,
1.3,0.08,-0.09,0.98,0.14,-0.40,-0.02,
1.301,0.08,-0.09,0.98,0.30,-0.41,-0.25,
1.303,0.08,-0.09,0.97,0.30,-0.41,-0.25,
1.307,0.09,-0.09,0.96,0.30,-0.41,-0.25,
1.308,0.09,-0.09,0.96,0.38,-0.39,-0.37,
1.308,0.08,-0.09,0.96,0.38,-0.39,-0.37,
1.31,0.08,-0.08,0.95,0.38,-0.39,-0.37,
1.311,0.08,-0.08,0.95,0.43,-0.33,-0.52,
1.313,0.06,-0.08,0.95,0.43,-0.33,-0.52,
1.316,0.06,-0.08,0.95,0.37,-0.31,-0.62,
1.316,0.05,-0.07,0.95,0.37,-0.31,-0.62,
1.318,0.04,-0.06,0.96,0.37,-0.31,-0.62,
1.321,0.03,-0.06,0.95,0.37,-0.31,-0.62,
1.321,0.03,-0.06,0.95,0.16,-0.21,-0.67,
1.323,0.01,-0.04,0.95,0.16,-0.21,-0.67,
1.326,-0.01,-0.03,0.95,0.16,-0.21,-0.67,
1.326,-0.01,-0.03,0.95,-0.08,-0.08,-0.63,
1.328,-0.02,-0.03,0.96,-0.08,-0.08,-0.63,
1.33,-0.04,-0.02,0.97,-0.08,-0.08,-0.63,
1.331,-0.04,-0.02,0.97,-0.39,0.11,-0.62,
1.333,-0.05,-0.02,0.97,-0.39,0.11,-0.62,
1.335,-0.06,-0.01,0.99,-0.39,0.11,-0.62,
1.336,-0.06,-0.01,0.99,-0.71,0.22,-0.51,
1.338,-0.07,0.00,0.99,-0.71,0.22,-0.51,
1.341,-0.07,0.00,0.99,-0.96,0.34,-0.37,
1.342,-0.08,0.00,1.01,-0.96,0.34,-0.37,
1.343,-0.09,0.01,1.01,-0.96,0.34,-0.37,
1.345,-0.10,0.01,1.02,-0.96,0.34,-0.37,
1.345,-0.10,0.01,1.02,-1.13,0.46,-0.18,
1.348,-0.10,0.01,1.03,-1.13,0.46,-0.18,
1.351,-0.10,0.02,1.03,-1.13,0.46,-0.18,
1.351,-0.10,0.02,1.03,-1.29,0.54,-0.00,
1.353,-0.11,0.02,1.05,-1.29,0.54,-0.00,
1.355,-0.11,0.01,1.05,-1.29,0.54,-0.00,
1.355,-0.11,0.01,1.05,-1.38,0.60,0.12,
1.358,-0.10,0.01,1.05,-1.38,0.60,0.12,
1.36,-0.10,0.01,1.05,-1.38,0.60,0.12,
1.36,-0.10,0.01,1.05,-1.41,0.57,0.28,
1.363,-0.10,0.01,1.06,-1.41,0.57,0.28,
1.365,-0.10,0.01,1.06,-1.36,0.52,0.34,
1.365,-0.09,0.00,1.06,-1.36,0.52,0.34,
1.368,-0.08,-0.00,1.05,-1.36,0.52,0.34,
1.37,-0.07,-0.01,1.04,-1.36,0.52,0.34,
1.37,-0.07,-0.01,1.04,-1.28,0.44,0.38,
1.373,-0.07,-0.01,1.04,-1.28,0.44,0.38,
1.375,-0.06,-0.02,1.03,-1.28,0.44,0.38,
1.375,-0.06,-0.02,1.03,-1.16,0.34,0.31,
1.377,-0.05,-0.03,1.02,-1.16,0.34,0.31,
1.381,-0.04,-0.03,1.02,-1.16,0.34,0.31,
1.381,-0.04,-0.03,1.02,-1.04,0.23,0.18,
1.383,-0.03,-0.04,1.01,-1.04,0.23,0.18,
1.385,-0.03,-0.04,1.01,-0.89,0.09,0.04,
1.385,-0.02,-0.05,1.01,-0.89,0.09,0.04,
1.388,-0.01,-0.05,1.00,-0.89,0.09,0.04,
1.395,-0.01,-0.05,1.00,-0.73,-0.05,-0.04,
1.396,-0.01,-0.06,0.99,-0.73,-0.05,-0.04,
1.396,-0.00,-0.06,0.99,-0.73,-0.05,-0.04,
1.397,0.00,-0.06,0.98,-0.73,-0.05,-0.04,
1.397,0.00,-0.06,0.98,-0.64,-0.16,-0.19,
1.397,0.01,-0.07,0.98,-0.64,-0.16,-0.19,
1.399,0.01,-0.07,0.97,-0.64,-0.16,-0.19,
1.4,0.01,-0.07,0.97,-0.54,-0.25,-0.29,
1.402,0.01,-0.07,0.97,-0.54,-0.25,-0.29,
1.404,0.01,-0.07,0.96,-0.54,-0.25,-0.29,
1.405,0.01,-0.07,0.96,-0.51,-0.33,-0.40,
1.408,0.01,-0.07,0.96,-0.51,-0.33,-0.40,
1.41,0.01,-0.07,0.96,-0.51,-0.33,-0.40,
1.41,0.01,-0.07,0.96,-0.49,-0.34,-0.50,
1.412,0.01,-0.07,0.95,-0.49,-0.34,-0.50,
1.415,0.01,-0.07,0.95,-0.47,-0.40,-0.54,
1.415,0.01,-0.08,0.95,-0.47,-0.40,-0.54,
1.417,0.01,-0.08,0.95,-0.47,-0.40,-0.54,
1.419,0.01,-0.07,0.94,-0.47,-0.40,-0.54,
1.42,0.01,-0.07,0.94,-0.52,-0.41,-0.60,
1.422,-0.00,-0.07,0.94,-0.52,-0.41,-0.60,
1.425,-0.01,-0.07,0.94,-0.52,-0.41,-0.60,
1.425,-0.01,-0.07,0.94,-0.54,-0.41,-0.72,
1.427,-0.02,-0.08,0.93,-0.54,-0.41,-0.72,
1.429,-0.03,-0.07,0.94,-0.54,-0.41,-0.72,
1.43,-0.03,-0.07,0.94,-0.68,-0.39,-0.77,
1.432,-0.04,-0.07,0.94,-0.68,-0.39,-0.77,
1.435,-0.04,-0.07,0.93,-0.68,-0.39,-0.77,
1.435,-0.04,-0.07,0.93,-0.84,-0.46,-0.78,
1.437,-0.05,-0.07,0.94,-0.84,-0.46,-0.78,
1.44,-0.05,-0.07,0.94,-0.97,-0.43,-0.75,
1.441,-0.06,-0.06,0.94,-0.97,-0.43,-0.75,
1.442,-0.06,-0.06,0.93,-0.97,-0.43,-0.75,
1.444,-0.07,-0.05,0.92,-0.97,-0.43,-0.75,
1.445,-0.07,-0.05,0.92,-1.07,-0.41,-0.77,
1.446,-0.07,-0.04,0.92,-1.07,-0.41,-0.77,
1.448,-0.07,-0.03,0.91,-1.07,-0.41,-0.77,
1.449,-0.07,-0.03,0.91,-1.18,-0.29,-0.92,
1.451,-0.08,-0.03,0.92,-1.18,-0.29,-0.92,
1.453,-0.08,-0.03,0.91,-1.18,-0.29,-0.92,
1.454,-0.08,-0.03,0.91,-1.25,-0.17,-0.98,
1.456,-0.08,-0.02,0.91,-1.25,-0.17,-0.98,
1.459,-0.07,-0.02,0.91,-1.25,-0.17,-0.98,
1.459,-0.07,-0.02,0.91,-1.27,-0.12,-0.99,
1.461,-0.07,-0.02,0.91,-1.27,-0.12,-0.99,
1.463,-0.07,-0.02,0.91,-1.24,-0.07,-1.01,
1.464,-0.06,-0.02,0.90,-1.24,-0.07,-1.01,
1.466,-0.05,-0.01,0.90,-1.24,-0.07,-1.01,
1.468,-0.04,-0.01,0.90,-1.24,-0.07,-1.01,
1.468,-0.04,-0.01,0.90,-1.15,-0.07,-1.06,
1.471,-0.04,-0.01,0.89,-1.15,-0.07,-1.06,
1.474,-0.03,-0.01,0.89,-1.15,-0.07,-1.06,
1.475,-0.03,-0.01,0.89,-0.98,-0.02,-1.12,
1.476,-0.03,-0.01,0.88,-0.98,-0.02,-1.12,
1.485,-0.02,-0.01,0.87,-0.98,-0.02,-1.12,
1.485,-0.02,-0.01,0.87,-0.89,-0.02,-1.20,
1.486,-0.02,-0.01,0.88,-0.89,-0.02,-1.20,
1.487,-0.01,-0.02,0.87,-0.89,-0.02,-1.20,
1.488,-0.01,-0.02,0.87,-0.75,-0.03,-1.33,
1.489,-0.01,-0.02,0.86,-0.75,-0.03,-1.33,
1.49,-0.01,-0.02,0.86,-0.62,-0.11,-1.37,
1.491,0.00,-0.02,0.86,-0.62,-0.11,-1.37,
1.491,0.00,-0.03,0.85,-0.62,-0.11,-1.37,
1.495,-0.00,-0.03,0.85,-0.62,-0.11,-1.37,
1.496,-0.00,-0.03,0.85,-0.54,-0.17,-1.49,
1.496,-0.00,-0.03,0.84,-0.54,-0.17,-1.49,
1.499,-0.00,-0.03,0.84,-0.54,-0.17,-1.49,
1.499,-0.00,-0.03,0.84,-0.51,-0.24,-1.60,
1.502,-0.01,-0.04,0.84,-0.51,-0.24,-1.60,
1.504,-0.01,-0.03,0.84,-0.51,-0.24,-1.60,
1.505,-0.01,-0.03,0.84,-0.55,-0.28,-1.66,
1.513,-0.01,-0.04,0.84,-0.55,-0.28,-1.66,
1.513,-0.02,-0.04,0.84,-0.55,-0.28,-1.66,
1.514,-0.02,-0.04,0.84,-0.61,-0.33,-1.71,
1.514,-0.03,-0.03,0.84,-0.61,-0.33,-1.71,
1.515,-0.03,-0.03,0.84,-0.70,-0.37,-1.71,
1.515,-0.03,-0.04,0.84,-0.70,-0.37,-1.71,
1.515,-0.04,-0.03,0.84,-0.70,-0.37,-1.71,
1.52,-0.05,-0.03,0.84,-0.70,-0.37,-1.71,
1.52,-0.05,-0.03,0.84,-0.85,-0.33,-1.70,
1.522,-0.05,-0.03,0.85,-0.85,-0.33,-1.70,
1.525,-0.06,-0.03,0.85,-0.85,-0.33,-1.70,
1.526,-0.06,-0.03,0.85,-1.02,-0.32,-1.64,
1.526,-0.06,-0.02,0.86,-1.02,-0.32,-1.64,
1.528,-0.07,-0.02,0.87,-1.02,-0.32,-1.64,
1.528,-0.07,-0.02,0.87,-1.12,-0.29,-1.56,
1.53,-0.07,-0.02,0.87,-1.12,-0.29,-1.56,
1.533,-0.07,-0.02,0.89,-1.12,-0.29,-1.56,
1.533,-0.07,-0.02,0.89,-1.22,-0.20,-1.44,
1.536,-0.07,-0.01,0.90,-1.22,-0.20,-1.44,
1.538,-0.07,-0.01,0.90,-1.28,-0.17,-1.24,
1.538,-0.07,-0.01,0.90,-1.28,-0.17,-1.24,
1.54,-0.06,-0.00,0.91,-1.28,-0.17,-1.24,
1.544,-0.06,-0.00,0.92,-1.28,-0.17,-1.24,
1.544,-0.06,-0.00,0.92,-1.30,-0.08,-1.08,
1.545,-0.05,0.00,0.92,-1.30,-0.08,-1.08,
1.549,-0.04,0.00,0.92,-1.30,-0.08,-1.08,
1.549,-0.04,0.00,0.92,-1.23,-0.02,-0.94,
1.551,-0.03,0.01,0.92,-1.23,-0.02,-0.94,
1.553,-0.02,0.01,0.92,-1.23,-0.02,-0.94,
1.553,-0.02,0.01,0.92,-1.11,0.03,-0.88,
1.557,-0.01,0.01,0.91,-1.11,0.03,-0.88,
1.558,-0.00,0.02,0.92,-1.11,0.03,-0.88,
1.558,-0.00,0.02,0.92,-0.94,0.08,-0.86,
1.562,0.00,0.02,0.92,-0.94,0.08,-0.86,
1.563,0.00,0.02,0.92,-0.76,0.15,-0.91,
1.563,0.01,0.01,0.91,-0.76,0.15,-0.91,
1.566,0.01,0.02,0.90,-0.76,0.15,-0.91,
1.568,0.02,0.01,0.89,-0.76,0.15,-0.91,
1.568,0.02,0.01,0.89,-0.63,0.16,-0.92,
1.571,0.02,0.02,0.89,-0.63,0.16,-0.92,
1.574,0.03,0.02,0.88,-0.63,0.16,-0.92,
1.574,0.03,0.02,0.88,-0.56,0.15,-1.07,
1.575,0.03,0.02,0.88,-0.56,0.15,-1.07,
1.577,0.04,0.01,0.87,-0.56,0.15,-1.07,
1.578,0.04,0.01,0.87,-0.46,0.16,-1.19,
1.581,0.03,0.01,0.87,-0.46,0.16,-1.19,
1.583,0.03,0.02,0.86,-0.46,0.16,-1.19,
1.583,0.03,0.02,0.86,-0.40,0.14,-1.30,
1.585,0.03,0.01,0.86,-0.40,0.14,-1.30,
1.588,0.03,0.01,0.85,-0.40,0.14,-1.30,
1.588,0.03,0.01,0.85,-0.43,0.12,-1.37,
1.591,0.03,0.01,0.85,-0.43,0.12,-1.37,
1.593,0.03,0.01,0.84,-0.43,0.12,-1.37,
1.593,0.03,0.01,0.84,-0.44,0.07,-1.47,
1.595,0.02,0.01,0.85,-0.44,0.07,-1.47,
1.598,0.02,0.01,0.85,-0.46,0.05,-1.57,
1.599,0.02,0.01,0.84,-0.46,0.05,-1.57,
1.599,0.01,0.01,0.84,-0.46,0.05,-1.57,
1.603,0.01,0.01,0.85,-0.46,0.05,-1.57,
1.604,0.01,0.01,0.85,-0.56,0.03,-1.55,
1.605,0.00,0.01,0.85,-0.56,0.03,-1.55,
1.612,-0.00,0.02,0.86,-0.56,0.03,-1.55,
1.612,-0.00,0.02,0.86,-0.66,0.06,-1.53,
1.613,-0.00,0.02,0.86,-0.66,0.06,-1.53,
1.613,-0.00,0.02,0.87,-0.66,0.06,-1.53,
1.613,-0.00,0.02,0.87,-0.73,0.08,-1.44,
1.614,-0.01,0.02,0.87,-0.73,0.08,-1.44,
1.617,-0.00,0.03,0.88,-0.73,0.08,-1.44,
1.617,-0.00,0.03,0.88,-0.75,0.14,-1.36,
1.619,-0.00,0.03,0.88,-0.75,0.14,-1.36,
1.623,0.00,0.03,0.89,-0.75,0.14,-1.36,
1.623,0.00,0.03,0.89,-0.75,0.19,-1.24,
1.625,0.00,0.03,0.89,-0.75,0.19,-1.24,
1.627,0.01,0.03,0.89,-0.75,0.19,-1.24,
1.627,0.01,0.03,0.89,-0.71,0.25,-1.19,
1.629,0.01,0.03,0.90,-0.71,0.25,-1.19,
1.632,0.02,0.03,0.91,-0.71,0.25,-1.19,
1.632,0.02,0.03,0.91,-0.66,0.25,-1.09,
1.635,0.02,0.03,0.91,-0.66,0.25,-1.09,
1.637,0.02,0.03,0.92,-0.66,0.25,-1.09,
1.637,0.02,0.03,0.92,-0.57,0.25,-0.94,
1.639,0.03,0.03,0.92,-0.57,0.25,-0.94,
1.643,0.04,0.02,0.92,-0.57,0.25,-0.94,
1.646,0.04,0.02,0.92,-0.48,0.26,-0.85,
1.646,0.04,0.02,0.92,-0.48,0.26,-0.85,
1.646,0.04,0.02,0.92,-0.34,0.20,-0.79,
1.647,0.05,0.02,0.93,-0.34,0.20,-0.79,
1.649,0.06,0.01,0.93,-0.34,0.20,-0.79,
1.653,0.07,0.01,0.94,-0.34,0.20,-0.79,
1.653,0.07,0.01,0.94,-0.24,0.17,-0.73,
1.655,0.07,0.00,0.94,-0.24,0.17,-0.73,
1.657,0.07,-0.00,0.94,-0.24,0.17,-0.73,
1.658,0.07,-0.00,0.94,-0.10,0.05,-0.64,
1.66,0.08,-0.01,0.95,-0.10,0.05,-0.64,
1.662,0.08,-0.01,0.95,-0.02,-0.04,-0.60,
1.662,0.09,-0.01,0.95,-0.02,-0.04,-0.60,
1.665,0.10,-0.02,0.96,-0.02,-0.04,-0.60,
1.667,0.10,-0.02,0.96,-0.02,-0.04,-0.60,
1.667,0.10,-0.02,0.96,0.16,-0.11,-0.50,
1.669,0.10,-0.02,0.97,0.16,-0.11,-0.50,
1.672,0.11,-0.03,0.97,0.16,-0.11,-0.50,
1.672,0.11,-0.03,0.97,0.25,-0.17,-0.37,
1.675,0.12,-0.04,0.97,0.25,-0.17,-0.37,
1.676,0.12,-0.04,0.98,0.25,-0.17,-0.37,
1.677,0.12,-0.04,0.98,0.33,-0.25,-0.31,
1.68,0.12,-0.04,0.98,0.33,-0.25,-0.31,
1.681,0.12,-0.04,0.98,0.44,-0.35,-0.23,
1.681,0.12,-0.04,0.98,0.44,-0.35,-0.23,
1.683,0.13,-0.04,0.98,0.44,-0.35,-0.23,
1.687,0.12,-0.05,0.97,0.44,-0.35,-0.23,
1.687,0.12,-0.05,0.97,0.46,-0.35,-0.17,
1.688,0.12,-0.05,0.97,0.46,-0.35,-0.17,
1.692,0.12,-0.04,0.97,0.46,-0.35,-0.17,
1.692,0.12,-0.04,0.97,0.47,-0.42,-0.24,
1.693,0.11,-0.05,0.97,0.47,-0.42,-0.24,
1.697,0.10,-0.05,0.97,0.47,-0.42,-0.24,
1.697,0.10,-0.05,0.97,0.43,-0.45,-0.29,
1.698,0.09,-0.05,0.96,0.43,-0.45,-0.29,
1.702,0.08,-0.05,0.95,0.43,-0.45,-0.29,
1.702,0.08,-0.05,0.95,0.28,-0.48,-0.29,
1.703,0.08,-0.05,0.95,0.28,-0.48,-0.29,
1.706,0.07,-0.05,0.95,0.28,-0.48,-0.29,
1.706,0.07,-0.05,0.95,0.11,-0.52,-0.41,
1.713,0.06,-0.05,0.94,0.11,-0.52,-0.41,
1.714,0.05,-0.04,0.94,0.11,-0.52,-0.41,
1.714,0.05,-0.04,0.94,-0.02,-0.51,-0.47,
1.715,0.04,-0.04,0.94,-0.02,-0.51,-0.47,
1.716,0.04,-0.03,0.93,-0.02,-0.51,-0.47,
1.717,0.04,-0.03,0.93,-0.19,-0.50,-0.57,
1.718,0.03,-0.03,0.93,-0.19,-0.50,-0.57,
1.721,0.02,-0.02,0.93,-0.19,-0.50,-0.57,
1.722,0.02,-0.02,0.93,-0.29,-0.41,-0.62,
1.726,0.02,-0.01,0.92,-0.29,-0.41,-0.62,
1.726,0.02,-0.01,0.92,-0.43,-0.36,-0.67,
1.727,0.01,-0.01,0.93,-0.43,-0.36,-0.67,
1.728,0.01,-0.01,0.93,-0.43,-0.36,-0.67,
1.73,0.01,-0.00,0.94,-0.43,-0.36,-0.67,
1.731,0.01,-0.00,0.94,-0.50,-0.22,-0.73,
1.733,0.00,0.00,0.94,-0.50,-0.22,-0.73,
1.736,0.00,0.01,0.93,-0.50,-0.22,-0.73,
1.736,0.00,0.01,0.93,-0.57,-0.20,-0.62,
1.738,0.00,0.01,0.94,-0.57,-0.20,-0.62,
1.741,0.01,0.02,0.94,-0.57,-0.20,-0.62,
1.742,0.01,0.02,0.94,-0.58,-0.10,-0.64,
1.744,0.01,0.02,0.94,-0.58,-0.10,-0.64,
1.746,0.01,0.02,0.94,-0.58,-0.10,-0.64,
1.747,0.01,0.02,0.94,-0.56,-0.04,-0.60,
1.749,0.02,0.02,0.94,-0.56,-0.04,-0.60,
1.751,0.03,0.02,0.94,-0.56,-0.04,-0.60,
1.752,0.03,0.02,0.94,-0.46,-0.01,-0.60,
1.753,0.03,0.01,0.94,-0.46,-0.01,-0.60,
1.756,0.04,0.01,0.94,-0.46,-0.01,-0.60,
1.757,0.04,0.01,0.94,-0.35,0.01,-0.60,
1.759,0.04,0.01,0.94,-0.35,0.01,-0.60,
1.76,0.06,0.01,0.93,-0.35,0.01,-0.60,
1.761,0.06,0.01,0.93,-0.24,-0.05,-0.63,
1.763,0.06,0.00,0.93,-0.24,-0.05,-0.63,
1.766,0.07,-0.00,0.93,-0.24,-0.05,-0.63,
1.766,0.07,-0.00,0.93,-0.10,-0.09,-0.61,
1.768,0.08,-0.00,0.93,-0.10,-0.09,-0.61,
1.771,0.09,-0.01,0.93,-0.10,-0.09,-0.61,
1.771,0.09,-0.01,0.93,0.04,-0.20,-0.66,
1.773,0.09,-0.01,0.93,0.04,-0.20,-0.66,
1.776,0.11,-0.02,0.93,0.04,-0.20,-0.66,
1.776,0.11,-0.02,0.93,0.22,-0.24,-0.67,
1.778,0.11,-0.02,0.93,0.22,-0.24,-0.67,
1.781,0.12,-0.02,0.93,0.22,-0.24,-0.67,
1.781,0.12,-0.02,0.93,0.39,-0.32,-0.67,
1.784,0.12,-0.02,0.93,0.39,-0.32,-0.67,
1.786,0.12,-0.02,0.93,0.53,-0.36,-0.70,
1.786,0.13,-0.02,0.94,0.53,-0.36,-0.70,
1.788,0.13,-0.02,0.94,0.53,-0.36,-0.70,
1.791,0.12,-0.02,0.94,0.53,-0.36,-0.70,
1.792,0.12,-0.02,0.94,0.58,-0.34,-0.60,
1.793,0.12,-0.02,0.95,0.58,-0.34,-0.60,
1.796,0.12,-0.01,0.96,0.58,-0.34,-0.60,
1.796,0.12,-0.01,0.96,0.59,-0.35,-0.55,
1.798,0.11,-0.01,0.96,0.59,-0.35,-0.55,
1.801,0.10,-0.01,0.97,0.59,-0.35,-0.55,
1.801,0.10,-0.01,0.97,0.55,-0.31,-0.42,
1.803,0.09,-0.01,0.98,0.55,-0.31,-0.42,
1.806,0.08,-0.01,0.99,0.55,-0.31,-0.42,
1.806,0.08,-0.01,0.99,0.37,-0.26,-0.30,
1.811,0.06,-0.00,0.99,0.37,-0.26,-0.30,
1.811,0.05,-0.00,1.00,0.37,-0.26,-0.30,
1.812,0.05,-0.00,1.00,0.17,-0.27,-0.16,
1.815,0.04,0.00,1.00,0.17,-0.27,-0.16,
1.816,0.03,0.01,1.00,0.17,-0.27,-0.16,
1.816,0.03,0.01,1.00,-0.07,-0.18,-0.04,
1.818,0.02,0.01,1.01,-0.07,-0.18,-0.04,
1.82,0.01,0.02,1.00,-0.07,-0.18,-0.04,
1.821,0.01,0.02,1.00,-0.25,-0.11,0.05,
1.823,0.00,0.02,1.00,-0.25,-0.11,0.05,
1.829,-0.00,0.03,1.01,-0.25,-0.11,0.05,
1.83,-0.00,0.03,1.01,-0.46,-0.01,0.06,
1.83,-0.01,0.04,1.01,-0.46,-0.01,0.06,
1.83,-0.01,0.04,1.01,-0.46,-0.01,0.06,
1.831,-0.01,0.04,1.01,-0.59,0.11,0.09,
1.832,-0.02,0.04,1.02,-0.59,0.11,0.09,
1.837,-0.02,0.04,1.02,-0.68,0.21,0.14,
1.837,-0.02,0.04,1.02,-0.68,0.21,0.14,
1.838,-0.02,0.05,1.02,-0.68,0.21,0.14,
1.841,-0.02,0.04,1.03,-0.68,0.21,0.14,
1.841,-0.02,0.04,1.03,-0.75,0.26,0.20,
1.842,-0.02,0.05,1.03,-0.75,0.26,0.20,
1.846,-0.01,0.04,1.02,-0.75,0.26,0.20,
1.846,-0.01,0.04,1.02,-0.79,0.28,0.25,
1.847,-0.01,0.04,1.02,-0.79,0.28,0.25,
1.849,-0.01,0.04,1.03,-0.79,0.28,0.25,
1.85,-0.01,0.04,1.03,-0.74,0.29,0.27,
1.852,-0.00,0.03,1.03,-0.74,0.29,0.27,
1.855,-0.00,0.03,1.03,-0.74,0.29,0.27,
1.855,-0.00,0.03,1.03,-0.68,0.24,0.24,
1.858,0.01,0.03,1.03,-0.68,0.24,0.24,
1.86,0.01,0.03,1.03,-0.61,0.14,0.28,
1.86,0.01,0.02,1.03,-0.61,0.14,0.28,
1.862,0.02,0.01,1.04,-0.61,0.14,0.28,
1.865,0.02,0.01,1.04,-0.49,0.04,0.35,
1.865,0.03,0.01,1.04,-0.49,0.04,0.35,
1.868,0.04,0.01,1.05,-0.49,0.04,0.35,
1.87,0.04,0.00,1.05,-0.49,0.04,0.35,
1.87,0.04,0.00,1.05,-0.37,-0.08,0.42,
1.873,0.04,0.00,1.05,-0.37,-0.08,0.42,
1.875,0.04,0.00,1.05,-0.23,-0.10,0.47,
1.876,0.05,0.00,1.05,-0.23,-0.10,0.47,
1.877,0.05,0.00,1.06,-0.23,-0.10,0.47,
1.879,0.05,0.00,1.05,-0.23,-0.10,0.47,
1.879,0.05,0.00,1.05,-0.14,-0.15,0.49,
1.883,0.06,-0.00,1.05,-0.14,-0.15,0.49,
1.885,0.06,-0.00,1.05,-0.09,-0.14,0.55,
1.885,0.06,-0.00,1.06,-0.09,-0.14,0.55,
1.888,0.06,0.00,1.05,-0.09,-0.14,0.55,
1.89,0.06,0.00,1.05,-0.09,-0.14,0.55,
1.89,0.06,0.00,1.05,-0.01,-0.19,0.54,
1.893,0.07,0.00,1.06,-0.01,-0.19,0.54,
1.894,0.07,0.00,1.06,-0.01,-0.19,0.54,
1.895,0.07,0.00,1.06,0.02,-0.16,0.53,
1.898,0.07,0.00,1.06,0.02,-0.16,0.53,
1.9,0.07,0.01,1.05,0.02,-0.16,0.53,
1.9,0.07,0.01,1.05,0.05,-0.17,0.57,
1.903,0.07,0.01,1.06,0.05,-0.17,0.57,
1.905,0.07,0.01,1.06,0.05,-0.17,0.57,
1.905,0.07,0.01,1.06,0.10,-0.15,0.54,
1.907,0.08,0.02,1.05,0.10,-0.15,0.54,
1.909,0.08,0.02,1.05,0.09,-0.08,0.56,
1.91,0.08,0.02,1.05,0.09,-0.08,0.56,
1.912,0.08,0.03,1.05,0.09,-0.08,0.56,
1.915,0.07,0.03,1.04,0.09,-0.08,0.56,
1.915,0.07,0.03,1.04,0.14,-0.03,0.48,
1.918,0.08,0.03,1.04,0.14,-0.03,0.48,
1.92,0.07,0.04,1.03,0.14,-0.03,0.48,
1.92,0.07,0.04,1.03,0.13,0.06,0.46,
1.923,0.07,0.04,1.03,0.13,0.06,0.46,
1.926,0.07,0.04,1.03,0.13,0.06,0.46,
1.926,0.07,0.04,1.03,0.14,0.14,0.36,
1.927,0.06,0.04,1.02,0.14,0.14,0.36,
1.929,0.06,0.05,1.02,0.14,0.14,0.36,
1.93,0.06,0.05,1.02,0.07,0.16,0.26,
1.932,0.05,0.05,1.03,0.07,0.16,0.26,
1.935,0.05,0.05,1.03,0.00,0.18,0.23,
1.935,0.04,0.04,1.03,0.00,0.18,0.23,
1.937,0.04,0.04,1.03,0.00,0.18,0.23,
1.939,0.03,0.04,1.04,0.00,0.18,0.23,
1.94,0.03,0.04,1.04,-0.11,0.16,0.26,
1.948,0.02,0.04,1.03,-0.11,0.16,0.26,
1.949,-0.05,0.04,0.76,-0.11,0.16,0.26,
1.949,-0.05,0.04,0.76,-0.25,0.07,0.32,
1.949,-0.22,0.07,0.36,-0.25,0.07,0.32,
1.95,-0.28,0.12,0.27,-0.25,0.07,0.32,
1.95,-0.28,0.12,0.27,-0.75,0.05,-1.06,
1.952,-0.19,0.16,0.45,-0.75,0.05,-1.06,
1.953,-0.09,0.18,0.61,-0.75,0.05,-1.06,
1.953,-0.09,0.18,0.61,-2.96,0.63,-6.73,
1.959,-0.06,0.18,0.71,-2.96,0.63,-6.73,
1.96,-0.06,0.18,0.71,-1.86,1.34,-4.55,
1.96,-0.05,0.17,0.79,-1.86,1.34,-4.55,
1.962,-0.03,0.15,0.85,-1.86,1.34,-4.55,
1.963,-0.01,0.11,0.95,-1.86,1.34,-4.55,
1.967,-0.01,0.11,0.95,-0.98,1.44,-2.43,
1.967,0.01,0.08,1.06,-0.98,1.44,-2.43,
1.971,0.02,0.04,1.15,-0.98,1.44,-2.43,
1.971,0.02,0.04,1.15,-0.60,1.04,-0.95,
1.971,0.01,0.00,1.22,-0.60,1.04,-0.95,
1.975,-0.00,-0.04,1.27,-0.60,1.04,-0.95,
1.975,-0.00,-0.04,1.27,-0.24,0.32,1.02,
1.982,-0.06,-0.07,1.30,-0.24,0.32,1.02,
1.983,-0.09,-0.09,1.29,-0.24,0.32,1.02,
1.983,-0.09,-0.09,1.29,-0.31,-0.39,2.45,
1.983,-0.09,-0.10,1.27,-0.31,-0.39,2.45,
1.983,-0.09,-0.10,1.27,-1.08,-1.04,2.86,
1.983,-0.09,-0.09,1.27,-1.08,-1.04,2.86,
1.985,-0.09,-0.06,1.25,-1.08,-1.04,2.86,
1.988,-0.09,-0.06,1.25,-1.27,-1.15,2.66,
1.988,-0.08,-0.03,1.23,-1.27,-1.15,2.66,
1.999,-0.06,-0.01,1.20,-1.27,-1.15,2.66,
2.0,-0.03,0.02,1.17,-1.27,-1.15,2.66,
2.0,-0.03,0.02,1.17,-1.20,-0.72,2.35,
2.0,-0.01,0.05,1.13,-1.20,-0.72,2.35,
2.0,0.01,0.08,1.09,-1.20,-0.72,2.35,
2.0,0.01,0.08,1.09,-0.87,-0.20,1.78,
2.0,0.04,0.09,1.06,-0.87,-0.20,1.78,
2.003,0.05,0.10,1.04,-0.87,-0.20,1.78,
2.003,0.05,0.10,1.04,-0.43,0.31,1.07,
2.006,0.07,0.11,1.01,-0.43,0.31,1.07,
2.012,0.08,0.10,0.99,-0.43,0.31,1.07,
2.013,0.08,0.10,0.99,-0.05,0.57,0.49,
2.013,0.09,0.10,0.98,-0.05,0.57,0.49,
2.013,0.09,0.10,0.96,-0.05,0.57,0.49,
2.013,0.09,0.10,0.96,0.22,0.64,0.02,
