
time,gFx,gFy,gFz,ax,ay,az,
0.002,-0.03,0.12,1.01,-0.14,0.44,0.12,
0.002,-0.03,0.11,1.01,-0.14,0.44,0.12,
0.002,-0.03,0.11,1.01,-0.08,0.42,0.15,
0.003,-0.03,0.11,1.01,-0.08,0.42,0.15,
0.006,-0.03,0.10,1.00,-0.08,0.42,0.15,
0.006,-0.03,0.10,1.00,-0.13,0.25,0.16,
0.008,-0.03,0.09,1.00,-0.13,0.25,0.16,
0.011,-0.03,0.08,1.00,-0.13,0.25,0.16,
0.011,-0.03,0.08,1.00,-0.12,0.16,0.10,
0.015,-0.02,0.08,0.99,-0.12,0.16,0.10,
0.016,-0.01,0.08,0.99,-0.12,0.16,0.10,
0.016,-0.01,0.08,0.99,-0.11,0.01,0.04,
0.018,0.01,0.09,0.99,-0.11,0.01,0.04,
0.021,0.02,0.08,0.98,-0.11,0.01,0.04,
0.021,0.02,0.08,0.98,0.01,-0.03,-0.03,
0.023,0.02,0.08,0.98,0.01,-0.03,-0.03,
0.025,0.04,0.08,0.99,0.01,-0.03,-0.03,
0.026,0.04,0.08,0.99,0.24,0.02,-0.10,
0.028,0.04,0.08,0.99,0.24,0.02,-0.10,
0.031,0.05,0.07,0.99,0.24,0.02,-0.10,
0.031,0.05,0.07,0.99,0.41,-0.01,-0.08,
0.033,0.06,0.06,0.99,0.41,-0.01,-0.08,
0.035,0.06,0.07,1.00,0.41,-0.01,-0.08,
0.036,0.06,0.07,1.00,0.56,-0.09,-0.04,
0.038,0.07,0.07,0.99,0.56,-0.09,-0.04,
0.04,0.08,0.07,0.99,0.56,-0.09,-0.04,
0.041,0.08,0.07,0.99,0.68,-0.15,0.00,
0.043,0.08,0.06,0.99,0.68,-0.15,0.00,
0.045,0.09,0.06,0.99,0.68,-0.15,0.00,
0.045,0.09,0.06,0.99,0.76,-0.12,-0.01,
0.048,0.09,0.06,0.99,0.76,-0.12,-0.01,
0.05,0.09,0.06,0.99,0.76,-0.12,-0.01,
0.05,0.09,0.06,0.99,0.84,-0.16,-0.06,
0.053,0.10,0.05,0.99,0.84,-0.16,-0.06,
0.055,0.10,0.06,0.98,0.84,-0.16,-0.06,
0.055,0.10,0.06,0.98,0.88,-0.17,-0.06,
0.058,0.10,0.06,0.98,0.88,-0.17,-0.06,
0.06,0.10,0.06,0.99,0.88,-0.17,-0.06,
0.06,0.10,0.06,0.99,0.92,-0.18,-0.06,
0.063,0.10,0.06,0.98,0.92,-0.18,-0.06,
0.066,0.11,0.06,0.98,0.92,-0.18,-0.06,
0.066,0.11,0.06,0.98,0.91,-0.15,-0.07,
0.069,0.11,0.06,0.98,0.91,-0.15,-0.07,
0.07,0.10,0.06,0.98,0.91,-0.15,-0.07,
0.07,0.10,0.06,0.98,0.94,-0.13,-0.11,
0.073,0.10,0.06,0.98,0.94,-0.13,-0.11,
0.075,0.10,0.06,0.98,0.94,-0.13,-0.11,
0.075,0.10,0.06,0.98,0.91,-0.12,-0.15,
0.078,0.09,0.06,0.98,0.91,-0.12,-0.15,
0.08,0.08,0.06,0.99,0.91,-0.12,-0.15,
0.08,0.08,0.06,0.99,0.84,-0.10,-0.16,
0.083,0.07,0.06,0.98,0.84,-0.10,-0.16,
0.085,0.06,0.06,0.98,0.84,-0.10,-0.16,
0.085,0.06,0.06,0.98,0.72,-0.12,-0.12,
0.087,0.05,0.06,0.99,0.72,-0.12,-0.12,
0.09,0.05,0.06,1.00,0.72,-0.12,-0.12,
0.09,0.05,0.06,1.00,0.50,-0.10,-0.13,
0.092,0.05,0.05,1.00,0.50,-0.10,-0.13,
0.095,0.05,0.05,1.01,0.50,-0.10,-0.13,
0.095,0.05,0.05,1.01,0.38,-0.14,0.02,
0.097,0.05,0.05,1.01,0.38,-0.14,0.02,
0.1,0.05,0.05,1.01,0.38,-0.14,0.02,
0.1,0.05,0.05,1.01,0.38,-0.17,0.10,
0.102,0.06,0.06,1.02,0.38,-0.17,0.10,
0.105,0.06,0.05,1.01,0.38,-0.17,0.10,
0.105,0.06,0.05,1.01,0.37,-0.18,0.16,
0.107,0.06,0.05,1.01,0.37,-0.18,0.16,
0.11,0.06,0.05,1.01,0.37,-0.18,0.16,
0.11,0.06,0.05,1.01,0.43,-0.16,0.18,
0.112,0.06,0.06,1.00,0.43,-0.16,0.18,
0.115,0.06,0.05,1.00,0.43,-0.16,0.18,
0.115,0.06,0.05,1.00,0.46,-0.18,0.14,
0.117,0.06,0.05,0.99,0.46,-0.18,0.14,
0.12,0.06,0.05,0.99,0.46,-0.18,0.14,
0.12,0.06,0.05,0.99,0.45,-0.18,0.06,
0.124,0.07,0.06,0.98,0.45,-0.18,0.06,
0.126,0.07,0.06,0.97,0.45,-0.18,0.06,
0.126,0.07,0.06,0.97,0.46,-0.18,-0.04,
0.129,0.07,0.06,0.97,0.46,-0.18,-0.04,
0.13,0.07,0.07,0.96,0.46,-0.18,-0.04,
0.131,0.07,0.07,0.96,0.48,-0.15,-0.17,
0.133,0.08,0.07,0.96,0.48,-0.15,-0.17,
0.136,0.08,0.07,0.95,0.48,-0.15,-0.17,
0.136,0.08,0.07,0.95,0.53,-0.10,-0.23,
0.138,0.08,0.07,0.95,0.53,-0.10,-0.23,
0.14,0.09,0.07,0.95,0.53,-0.10,-0.23,
0.14,0.09,0.07,0.95,0.60,-0.08,-0.34,
0.143,0.10,0.07,0.95,0.60,-0.08,-0.34,
0.145,0.10,0.07,0.95,0.60,-0.08,-0.34,
0.145,0.10,0.07,0.95,0.66,-0.08,-0.42,
0.147,0.10,0.07,0.95,0.66,-0.08,-0.42,
0.151,0.10,0.07,0.95,0.66,-0.08,-0.42,
0.152,0.10,0.07,0.95,0.74,-0.08,-0.42,
0.152,0.10,0.07,0.95,0.74,-0.08,-0.42,
0.155,0.11,0.07,0.95,0.74,-0.08,-0.42,
0.155,0.11,0.07,0.95,0.76,-0.05,-0.40,
0.158,0.11,0.07,0.96,0.76,-0.05,-0.40,
0.16,0.11,0.08,0.96,0.76,-0.05,-0.40,
0.16,0.11,0.08,0.96,0.81,-0.05,-0.39,
0.162,0.11,0.08,0.97,0.81,-0.05,-0.39,
0.165,0.11,0.08,0.97,0.86,-0.03,-0.33,
0.165,0.12,0.07,0.96,0.86,-0.03,-0.33,
0.174,0.11,0.07,0.97,0.86,-0.03,-0.33,
0.174,0.11,0.07,0.97,0.86,-0.03,-0.33,
0.175,0.11,0.07,0.97,0.90,-0.05,-0.24,
0.175,0.11,0.07,0.97,0.90,-0.05,-0.24,
0.175,0.12,0.07,0.97,0.90,-0.05,-0.24,
0.175,0.12,0.07,0.97,0.83,-0.07,-0.24,
0.177,0.12,0.07,0.98,0.83,-0.07,-0.24,
0.18,0.12,0.08,0.98,0.83,-0.07,-0.24,
0.181,0.12,0.08,0.98,0.88,-0.08,-0.17,
0.187,0.11,0.07,0.97,0.88,-0.08,-0.17,
0.188,0.11,0.07,0.96,0.88,-0.08,-0.17,
0.188,0.11,0.07,0.96,0.93,-0.04,-0.14,
0.188,0.11,0.07,0.96,0.93,-0.04,-0.14,
0.189,0.11,0.06,0.96,0.93,-0.04,-0.14,
0.189,0.11,0.06,0.96,0.86,-0.06,-0.25,
0.192,0.11,0.06,0.96,0.86,-0.06,-0.25,
0.194,0.11,0.06,0.96,0.86,-0.06,-0.25,
0.194,0.11,0.06,0.96,0.82,-0.12,-0.33,
0.197,0.11,0.06,0.95,0.82,-0.12,-0.33,
0.201,0.11,0.06,0.95,0.82,-0.12,-0.33,
0.202,0.11,0.06,0.95,0.78,-0.16,-0.32,
0.202,0.11,0.06,0.94,0.78,-0.16,-0.32,
0.206,0.11,0.06,0.93,0.78,-0.16,-0.32,
0.207,0.11,0.06,0.93,0.76,-0.18,-0.40,
0.207,0.11,0.06,0.93,0.76,-0.18,-0.40,
0.209,0.11,0.06,0.93,0.76,-0.18,-0.40,
0.21,0.11,0.06,0.93,0.77,-0.16,-0.51,
0.212,0.11,0.07,0.93,0.77,-0.16,-0.51,
0.214,0.11,0.06,0.93,0.77,-0.16,-0.51,
0.215,0.11,0.06,0.93,0.75,-0.15,-0.59,
0.218,0.11,0.06,0.92,0.75,-0.15,-0.59,
0.22,0.11,0.06,0.93,0.75,-0.15,-0.59,
0.22,0.11,0.06,0.93,0.74,-0.15,-0.61,
0.222,0.11,0.06,0.93,0.74,-0.15,-0.61,
0.226,0.12,0.06,0.92,0.74,-0.15,-0.61,
0.227,0.12,0.06,0.92,0.75,-0.17,-0.61,
0.227,0.11,0.06,0.92,0.75,-0.17,-0.61,
0.229,0.11,0.06,0.92,0.75,-0.17,-0.61,
0.229,0.11,0.06,0.92,0.78,-0.19,-0.60,
0.235,0.11,0.06,0.92,0.78,-0.19,-0.60,
0.236,0.12,0.05,0.92,0.78,-0.19,-0.60,
0.236,0.12,0.05,0.92,0.74,-0.20,-0.63,
0.237,0.12,0.05,0.93,0.74,-0.20,-0.63,
0.24,0.12,0.05,0.92,0.74,-0.20,-0.63,
0.24,0.12,0.05,0.92,0.76,-0.23,-0.67,
0.243,0.12,0.05,0.93,0.76,-0.23,-0.67,
0.244,0.12,0.05,0.92,0.76,-0.23,-0.67,
0.245,0.12,0.05,0.92,0.79,-0.28,-0.59,
0.247,0.13,0.05,0.92,0.79,-0.28,-0.59,
0.249,0.13,0.05,0.92,0.79,-0.28,-0.59,
0.249,0.13,0.05,0.92,0.81,-0.31,-0.60,
0.252,0.13,0.05,0.91,0.81,-0.31,-0.60,
0.254,0.14,0.04,0.91,0.81,-0.31,-0.60,
0.254,0.14,0.04,0.91,0.89,-0.30,-0.64,
0.257,0.14,0.04,0.92,0.89,-0.30,-0.64,
0.26,0.14,0.04,0.92,0.89,-0.30,-0.64,
0.26,0.14,0.04,0.92,0.93,-0.32,-0.71,
0.262,0.14,0.04,0.92,0.93,-0.32,-0.71,
0.265,0.15,0.04,0.92,0.93,-0.32,-0.71,
0.265,0.15,0.04,0.92,0.96,-0.40,-0.58,
0.273,0.15,0.03,0.92,0.96,-0.40,-0.58,
0.273,0.16,0.03,0.91,0.96,-0.40,-0.58,
0.273,0.16,0.03,0.91,1.04,-0.42,-0.64,
0.274,0.16,0.02,0.91,1.04,-0.42,-0.64,
0.274,0.17,0.01,0.90,1.04,-0.42,-0.64,
0.274,0.17,0.01,0.90,1.12,-0.50,-0.67,
0.277,0.18,0.01,0.89,1.12,-0.50,-0.67,
0.279,0.18,0.01,0.89,1.12,-0.50,-0.67,
0.279,0.18,0.01,0.89,1.21,-0.64,-0.77,
0.282,0.18,0.02,0.89,1.21,-0.64,-0.77,
0.284,0.18,0.03,0.89,1.21,-0.64,-0.77,
0.285,0.18,0.03,0.89,1.34,-0.69,-0.90,
0.286,0.18,0.04,0.89,1.34,-0.69,-0.90,
0.289,0.18,0.04,0.89,1.32,-0.51,-0.93,
0.289,0.17,0.05,0.89,1.32,-0.51,-0.93,
0.292,0.17,0.06,0.90,1.32,-0.51,-0.93,
0.294,0.17,0.08,0.90,1.32,-0.51,-0.93,
0.294,0.17,0.08,0.90,1.24,-0.29,-0.90,
0.297,0.16,0.09,0.91,1.24,-0.29,-0.90,
0.299,0.16,0.10,0.92,1.24,-0.29,-0.90,
0.302,0.16,0.10,0.92,1.17,-0.06,-0.78,
0.303,0.15,0.10,0.92,1.17,-0.06,-0.78,
0.303,0.15,0.10,0.93,1.17,-0.06,-0.78,
0.304,0.15,0.10,0.93,1.07,0.15,-0.62,
0.307,0.15,0.09,0.93,1.07,0.15,-0.62,
0.309,0.14,0.09,0.94,1.07,0.15,-0.62,
0.309,0.14,0.09,0.94,0.92,0.22,-0.50,
0.311,0.14,0.10,0.94,0.92,0.22,-0.50,
0.314,0.14,0.10,0.94,0.85,0.16,-0.45,
0.315,0.13,0.10,0.95,0.85,0.16,-0.45,
0.317,0.13,0.10,0.95,0.85,0.16,-0.45,
0.319,0.12,0.10,0.95,0.85,0.16,-0.45,
0.319,0.12,0.10,0.95,0.75,0.24,-0.33,
0.321,0.11,0.10,0.96,0.75,0.24,-0.33,
0.323,0.11,0.09,0.96,0.75,0.24,-0.33,
0.324,0.11,0.09,0.96,0.66,0.24,-0.25,
0.327,0.11,0.09,0.96,0.66,0.24,-0.25,
0.33,0.10,0.09,0.97,0.66,0.24,-0.25,
0.333,0.10,0.09,0.97,0.50,0.18,-0.15,
0.333,0.09,0.09,0.97,0.50,0.18,-0.15,
0.333,0.08,0.09,0.97,0.50,0.18,-0.15,
0.334,0.08,0.09,0.97,0.43,0.16,-0.12,
0.337,0.06,0.08,0.97,0.43,0.16,-0.12,
0.338,0.05,0.07,0.97,0.43,0.16,-0.12,
0.339,0.05,0.07,0.97,0.24,0.10,-0.04,
0.342,0.03,0.07,0.98,0.24,0.10,-0.04,
0.344,0.02,0.07,0.98,0.24,0.10,-0.04,
0.344,0.02,0.07,0.98,-0.11,-0.01,-0.04,
0.346,0.01,0.07,0.98,-0.11,-0.01,-0.04,
0.349,0.01,0.08,0.98,-0.11,-0.01,-0.04,
0.349,0.01,0.08,0.98,-0.38,-0.06,0.00,
0.351,0.00,0.09,0.98,-0.38,-0.06,0.00,
0.354,0.01,0.09,0.98,-0.38,-0.06,0.00,
0.354,0.01,0.09,0.98,-0.55,-0.00,0.01,
0.356,0.00,0.09,0.98,-0.55,-0.00,0.01,
0.359,0.01,0.10,0.98,-0.55,-0.00,0.01,
0.359,0.01,0.10,0.98,-0.59,0.09,0.05,
0.361,0.01,0.10,0.98,-0.59,0.09,0.05,
0.364,0.01,0.10,0.98,-0.59,0.09,0.05,
0.364,0.01,0.10,0.98,-0.58,0.16,0.03,
0.366,0.01,0.10,0.98,-0.58,0.16,0.03,
0.374,0.02,0.10,0.97,-0.58,0.16,0.03,
0.374,0.02,0.10,0.97,-0.56,0.23,0.05,
0.375,0.02,0.10,0.97,-0.56,0.23,0.05,
0.375,0.02,0.10,0.96,-0.56,0.23,0.05,
0.375,0.02,0.10,0.96,-0.48,0.26,-0.02,
0.375,0.02,0.10,0.95,-0.48,0.26,-0.02,
0.378,0.04,0.09,0.95,-0.48,0.26,-0.02,
0.378,0.04,0.09,0.95,-0.42,0.21,-0.14,
0.38,0.04,0.09,0.94,-0.42,0.21,-0.14,
0.385,0.05,0.09,0.93,-0.42,0.21,-0.14,
0.386,0.05,0.09,0.93,-0.35,0.16,-0.26,
0.386,0.06,0.08,0.92,-0.35,0.16,-0.26,
0.388,0.06,0.08,0.92,-0.22,0.06,-0.41,
0.389,0.07,0.08,0.91,-0.22,0.06,-0.41,
0.391,0.07,0.08,0.90,-0.22,0.06,-0.41,
0.393,0.08,0.08,0.89,-0.22,0.06,-0.41,
0.393,0.08,0.08,0.89,-0.05,0.03,-0.59,
0.395,0.09,0.08,0.89,-0.05,0.03,-0.59,
0.397,0.09,0.08,0.88,-0.05,0.03,-0.59,
0.398,0.09,0.08,0.88,0.09,0.03,-0.79,
0.402,0.10,0.08,0.87,0.09,0.03,-0.79,
0.404,0.11,0.09,0.86,0.09,0.03,-0.79,
0.406,0.11,0.09,0.86,0.20,0.02,-0.88,
0.406,0.12,0.08,0.86,0.20,0.02,-0.88,
0.408,0.12,0.08,0.86,0.20,0.02,-0.88,
0.408,0.12,0.08,0.86,0.37,0.03,-1.08,
0.41,0.13,0.08,0.86,0.37,0.03,-1.08,
0.412,0.13,0.08,0.86,0.51,-0.00,-1.13,
0.413,0.13,0.08,0.86,0.51,-0.00,-1.13,
0.414,0.13,0.08,0.86,0.51,-0.00,-1.13,
0.417,0.12,0.08,0.87,0.51,-0.00,-1.13,
0.418,0.12,0.08,0.87,0.55,-0.00,-1.12,
0.419,0.12,0.09,0.87,0.55,-0.00,-1.12,
0.422,0.12,0.09,0.88,0.55,-0.00,-1.12,
0.422,0.12,0.09,0.88,0.51,-0.02,-1.03,
0.424,0.11,0.09,0.89,0.51,-0.02,-1.03,
0.427,0.11,0.09,0.89,0.51,-0.02,-1.03,
0.427,0.11,0.09,0.89,0.46,0.05,-0.96,
0.429,0.11,0.09,0.90,0.46,0.05,-0.96,
0.432,0.10,0.09,0.91,0.46,0.05,-0.96,
0.432,0.10,0.09,0.91,0.41,0.10,-0.78,
0.435,0.09,0.09,0.92,0.41,0.10,-0.78,
0.437,0.07,0.08,0.93,0.41,0.10,-0.78,
0.437,0.07,0.08,0.93,0.32,0.09,-0.60,
0.439,0.06,0.08,0.94,0.32,0.09,-0.60,
0.442,0.05,0.08,0.95,0.32,0.09,-0.60,
0.442,0.05,0.08,0.95,0.11,0.05,-0.43,
0.444,0.03,0.07,0.96,0.11,0.05,-0.43,
0.446,0.02,0.06,0.97,0.11,0.05,-0.43,
0.447,0.02,0.06,0.97,-0.10,-0.01,-0.21,
0.45,0.00,0.06,0.98,-0.10,-0.01,-0.21,
0.452,-0.00,0.06,0.98,-0.10,-0.01,-0.21,
0.452,-0.00,0.06,0.98,-0.40,-0.15,-0.01,
0.454,-0.02,0.05,0.99,-0.40,-0.15,-0.01,
0.457,-0.03,0.05,0.99,-0.40,-0.15,-0.01,
0.457,-0.03,0.05,0.99,-0.65,-0.19,0.11,
0.459,-0.04,0.06,0.99,-0.65,-0.19,0.11,
0.461,-0.05,0.06,1.00,-0.65,-0.19,0.11,
0.462,-0.05,0.06,1.00,-0.85,-0.24,0.23,
0.464,-0.06,0.06,1.00,-0.85,-0.24,0.23,
0.468,-0.07,0.06,1.00,-0.85,-0.24,0.23,
0.469,-0.07,0.06,1.00,-1.06,-0.20,0.25,
0.469,-0.07,0.06,1.00,-1.06,-0.20,0.25,
0.472,-0.08,0.06,1.00,-1.06,-0.20,0.25,
0.472,-0.08,0.06,1.00,-1.23,-0.15,0.28,
0.474,-0.08,0.06,0.99,-1.23,-0.15,0.28,
0.476,-0.08,0.06,0.99,-1.23,-0.15,0.28,
0.477,-0.08,0.06,0.99,-1.35,-0.12,0.26,
0.479,-0.08,0.06,0.98,-1.35,-0.12,0.26,
0.481,-0.08,0.06,0.98,-1.35,-0.12,0.26,
0.482,-0.08,0.06,0.98,-1.40,-0.13,0.16,
0.491,-0.08,0.06,0.97,-1.40,-0.13,0.16,
0.492,-0.07,0.06,0.96,-1.40,-0.13,0.16,
0.492,-0.07,0.06,0.96,-1.41,-0.10,0.09,
0.493,-0.07,0.07,0.95,-1.41,-0.10,0.09,
0.493,-0.07,0.07,0.94,-1.41,-0.10,0.09,
0.494,-0.07,0.07,0.94,-1.33,-0.08,-0.06,
0.497,-0.06,0.07,0.94,-1.33,-0.08,-0.06,
0.497,-0.05,0.08,0.93,-1.33,-0.08,-0.06,
0.497,-0.05,0.08,0.93,-1.23,-0.01,-0.22,
0.5,-0.05,0.08,0.92,-1.23,-0.01,-0.22,
0.504,-0.05,0.08,0.92,-1.23,-0.01,-0.22,
0.505,-0.05,0.08,0.92,-1.12,0.05,-0.36,
0.505,-0.05,0.08,0.91,-1.12,0.05,-0.36,
0.506,-0.05,0.08,0.91,-1.12,0.05,-0.36,
0.507,-0.05,0.08,0.91,-1.08,0.12,-0.48,
0.509,-0.05,0.08,0.91,-1.08,0.12,-0.48,
0.512,-0.05,0.09,0.91,-1.08,0.12,-0.48,
0.512,-0.05,0.09,0.91,-1.06,0.14,-0.58,
0.514,-0.05,0.08,0.91,-1.06,0.14,-0.58,
0.516,-0.06,0.09,0.92,-1.06,0.14,-0.58,
0.517,-0.06,0.09,0.92,-1.05,0.17,-0.57,
0.519,-0.06,0.09,0.93,-1.05,0.17,-0.57,
0.523,-0.07,0.09,0.92,-1.05,0.17,-0.57,
0.523,-0.07,0.09,0.92,-1.11,0.18,-0.50,
0.524,-0.07,0.09,0.93,-1.11,0.18,-0.50,
0.526,-0.07,0.09,0.93,-1.11,0.18,-0.50,
0.526,-0.07,0.09,0.93,-1.17,0.21,-0.42,
0.529,-0.07,0.09,0.94,-1.17,0.21,-0.42,
0.531,-0.07,0.08,0.95,-1.17,0.21,-0.42,
0.532,-0.07,0.08,0.95,-1.22,0.23,-0.35,
0.534,-0.07,0.08,0.96,-1.22,0.23,-0.35,
0.536,-0.07,0.08,0.96,-1.24,0.18,-0.21,
0.537,-0.07,0.08,0.97,-1.24,0.18,-0.21,
0.538,-0.07,0.09,0.97,-1.24,0.18,-0.21,
0.541,-0.06,0.09,0.98,-1.24,0.18,-0.21,
0.541,-0.06,0.09,0.98,-1.21,0.17,-0.05,
0.545,-0.05,0.09,0.98,-1.21,0.17,-0.05,
0.546,-0.05,0.09,0.98,-1.21,0.17,-0.05,
0.546,-0.05,0.09,0.98,-1.13,0.19,0.05,
0.548,-0.04,0.09,0.98,-1.13,0.19,0.05,
0.55,-0.03,0.09,0.98,-1.13,0.19,0.05,
0.551,-0.03,0.09,0.98,-0.97,0.22,0.15,
0.556,-0.02,0.09,0.98,-0.97,0.22,0.15,
0.556,-0.01,0.09,0.98,-0.97,0.22,0.15,
0.557,-0.01,0.09,0.98,-0.82,0.20,0.15,
0.559,-0.01,0.08,0.98,-0.82,0.20,0.15,
0.561,-0.01,0.08,0.98,-0.63,0.19,0.14,
0.562,-0.00,0.08,0.98,-0.63,0.19,0.14,
0.564,0.01,0.08,0.97,-0.63,0.19,0.14,
0.566,0.01,0.08,0.97,-0.63,0.19,0.14,
0.566,0.01,0.08,0.97,-0.50,0.16,0.12,
0.569,0.02,0.07,0.96,-0.50,0.16,0.12,
0.572,0.01,0.07,0.96,-0.50,0.16,0.12,
0.572,0.01,0.07,0.96,-0.37,0.11,0.03,
0.574,0.02,0.06,0.95,-0.37,0.11,0.03,
0.577,0.01,0.06,0.95,-0.37,0.11,0.03,
0.577,0.01,0.06,0.95,-0.32,0.03,-0.06,
0.579,0.01,0.06,0.94,-0.32,0.03,-0.06,
0.581,0.01,0.05,0.94,-0.32,0.03,-0.06,
0.581,0.01,0.05,0.94,-0.30,-0.07,-0.13,
0.584,0.00,0.05,0.93,-0.30,-0.07,-0.13,
0.591,0.00,0.05,0.93,-0.35,-0.11,-0.27,
0.591,-0.00,0.05,0.92,-0.35,-0.11,-0.27,
0.592,-0.01,0.05,0.91,-0.35,-0.11,-0.27,
0.592,-0.02,0.04,0.91,-0.35,-0.11,-0.27,
0.592,-0.02,0.04,0.91,-0.44,-0.18,-0.42,
0.594,-0.02,0.04,0.91,-0.44,-0.18,-0.42,
0.595,-0.03,0.04,0.91,-0.44,-0.18,-0.42,
0.596,-0.03,0.04,0.91,-0.56,-0.24,-0.57,
0.598,-0.04,0.05,0.90,-0.56,-0.24,-0.57,
0.602,-0.05,0.04,0.90,-0.56,-0.24,-0.57,
0.603,-0.05,0.04,0.90,-0.69,-0.26,-0.58,
0.603,-0.07,0.04,0.89,-0.69,-0.26,-0.58,
0.605,-0.07,0.04,0.89,-0.69,-0.26,-0.58,
0.606,-0.07,0.04,0.89,-0.87,-0.25,-0.66,
0.609,-0.08,0.04,0.89,-0.87,-0.25,-0.66,
0.611,-0.08,0.04,0.89,-1.07,-0.30,-0.74,
0.612,-0.09,0.04,0.89,-1.07,-0.30,-0.74,
0.613,-0.10,0.05,0.89,-1.07,-0.30,-0.74,
0.616,-0.11,0.05,0.89,-1.07,-0.30,-0.74,
0.616,-0.11,0.05,0.89,-1.21,-0.29,-0.77,
0.619,-0.12,0.05,0.89,-1.21,-0.29,-0.77,
0.622,-0.12,0.05,0.90,-1.21,-0.29,-0.77,
0.623,-0.12,0.05,0.90,-1.38,-0.23,-0.72,
0.623,-0.12,0.05,0.90,-1.38,-0.23,-0.72,
0.626,-0.12,0.06,0.91,-1.38,-0.23,-0.72,
0.626,-0.12,0.06,0.91,-1.46,-0.17,-0.66,
0.628,-0.12,0.06,0.91,-1.46,-0.17,-0.66,
0.631,-0.13,0.06,0.92,-1.46,-0.17,-0.66,
0.631,-0.13,0.06,0.92,-1.48,-0.13,-0.60,
0.633,-0.13,0.07,0.93,-1.48,-0.13,-0.60,
0.636,-0.13,0.07,0.93,-1.48,-0.13,-0.60,
0.636,-0.13,0.07,0.93,-1.51,-0.10,-0.47,
0.638,-0.14,0.07,0.93,-1.51,-0.10,-0.47,
0.64,-0.14,0.07,0.94,-1.51,-0.10,-0.47,
0.64,-0.14,0.07,0.94,-1.53,-0.00,-0.37,
0.643,-0.14,0.07,0.94,-1.53,-0.00,-0.37,
0.646,-0.14,0.07,0.94,-1.56,0.00,-0.26,
0.646,-0.15,0.07,0.94,-1.56,0.00,-0.26,
0.648,-0.15,0.08,0.96,-1.56,0.00,-0.26,
0.653,-0.16,0.07,0.96,-1.56,0.00,-0.26,
0.654,-0.16,0.07,0.96,-1.60,0.02,-0.20,
0.654,-0.16,0.07,0.96,-1.60,0.02,-0.20,
0.656,-0.17,0.07,0.96,-1.60,0.02,-0.20,
0.656,-0.17,0.07,0.96,-1.66,0.02,-0.06,
0.658,-0.17,0.07,0.97,-1.66,0.02,-0.06,
0.662,-0.17,0.07,0.97,-1.77,-0.02,-0.01,
0.662,-0.17,0.06,0.97,-1.77,-0.02,-0.01,
0.662,-0.18,0.06,0.97,-1.77,-0.02,-0.01,
0.665,-0.17,0.05,0.97,-1.77,-0.02,-0.01,
0.666,-0.17,0.05,0.97,-1.81,-0.08,0.07,
0.667,-0.17,0.05,0.96,-1.81,-0.08,0.07,
0.67,-0.17,0.04,0.96,-1.81,-0.08,0.07,
0.671,-0.17,0.04,0.96,-1.83,-0.15,0.05,
0.672,-0.17,0.03,0.95,-1.83,-0.15,0.05,
0.675,-0.16,0.02,0.95,-1.83,-0.15,0.05,
0.675,-0.16,0.02,0.95,-1.79,-0.30,-0.02,
0.679,-0.16,0.01,0.94,-1.79,-0.30,-0.02,
0.68,-0.16,0.01,0.93,-1.79,-0.30,-0.02,
0.681,-0.16,0.01,0.93,-1.73,-0.44,-0.11,
0.683,-0.15,0.00,0.93,-1.73,-0.44,-0.11,
0.686,-0.15,-0.00,0.92,-1.73,-0.44,-0.11,
0.687,-0.15,-0.00,0.92,-1.67,-0.60,-0.27,
0.687,-0.15,-0.01,0.92,-1.67,-0.60,-0.27,
0.69,-0.14,-0.01,0.91,-1.67,-0.60,-0.27,
0.69,-0.14,-0.01,0.91,-1.54,-0.67,-0.37,
0.692,-0.14,-0.02,0.90,-1.54,-0.67,-0.37,
0.694,-0.14,-0.02,0.90,-1.54,-0.67,-0.37,
0.695,-0.14,-0.02,0.90,-1.48,-0.78,-0.47,
0.697,-0.13,-0.03,0.90,-1.48,-0.78,-0.47,
0.699,-0.13,-0.03,0.90,-1.48,-0.78,-0.47,
0.699,-0.13,-0.03,0.90,-1.43,-0.87,-0.60,
0.708,-0.14,-0.03,0.89,-1.43,-0.87,-0.60,
0.709,-0.14,-0.03,0.90,-1.43,-0.87,-0.60,
0.709,-0.14,-0.03,0.90,-1.35,-0.93,-0.66,
0.71,-0.14,-0.03,0.91,-1.35,-0.93,-0.66,
0.71,-0.15,-0.03,0.91,-1.35,-0.93,-0.66,
0.711,-0.15,-0.03,0.91,-1.39,-0.93,-0.66,
0.712,-0.16,-0.03,0.91,-1.39,-0.93,-0.66,
0.714,-0.17,-0.03,0.92,-1.39,-0.93,-0.66,
0.714,-0.17,-0.03,0.92,-1.46,-0.95,-0.57,
0.716,-0.17,-0.03,0.92,-1.46,-0.95,-0.57,
0.721,-0.18,-0.03,0.93,-1.46,-0.95,-0.57,
0.722,-0.18,-0.03,0.93,-1.60,-0.92,-0.50,
0.722,-0.19,-0.03,0.93,-1.60,-0.92,-0.50,
0.724,-0.19,-0.03,0.94,-1.60,-0.92,-0.50,
0.724,-0.19,-0.03,0.94,-1.68,-0.93,-0.37,
0.726,-0.20,-0.03,0.95,-1.68,-0.93,-0.37,
0.729,-0.20,-0.02,0.95,-1.68,-0.93,-0.37,
0.729,-0.20,-0.02,0.95,-1.79,-0.92,-0.25,
0.731,-0.21,-0.02,0.96,-1.79,-0.92,-0.25,
0.735,-0.21,-0.01,0.97,-1.79,-0.92,-0.25,
0.735,-0.21,-0.01,0.97,-1.86,-0.84,-0.15,
0.736,-0.22,-0.01,0.97,-1.86,-0.84,-0.15,
0.739,-0.22,-0.01,0.98,-1.86,-0.84,-0.15,
0.739,-0.22,-0.01,0.98,-1.92,-0.74,-0.03,
0.741,-0.22,-0.01,0.98,-1.92,-0.74,-0.03,
0.743,-0.22,-0.00,0.98,-1.92,-0.74,-0.03,
0.744,-0.22,-0.00,0.98,-2.00,-0.67,0.12,
0.746,-0.22,-0.00,0.99,-2.00,-0.67,0.12,
0.748,-0.22,-0.00,0.99,-2.00,-0.67,0.12,
0.749,-0.22,-0.00,0.99,-1.99,-0.64,0.15,
0.752,-0.22,0.00,1.00,-1.99,-0.64,0.15,
0.754,-0.22,-0.00,1.00,-1.99,-0.64,0.15,
0.754,-0.22,-0.00,1.00,-1.97,-0.59,0.27,
0.756,-0.22,-0.00,1.00,-1.97,-0.59,0.27,
0.758,-0.22,-0.00,1.00,-1.95,-0.58,0.37,
0.759,-0.22,-0.01,1.00,-1.95,-0.58,0.37,
0.761,-0.21,-0.01,1.01,-1.95,-0.58,0.37,
0.764,-0.21,-0.01,1.01,-1.95,-0.58,0.37,
0.765,-0.21,-0.01,1.01,-1.93,-0.60,0.37,
0.766,-0.21,-0.01,1.01,-1.93,-0.60,0.37,
0.771,-0.20,-0.01,1.01,-1.93,-0.60,0.37,
0.772,-0.20,-0.01,1.01,-1.85,-0.64,0.43,
0.773,-0.19,-0.01,1.01,-1.85,-0.64,0.43,
0.773,-0.19,-0.01,1.02,-1.85,-0.64,0.43,
0.774,-0.19,-0.01,1.02,-1.76,-0.61,0.44,
0.776,-0.19,-0.01,1.02,-1.76,-0.61,0.44,
0.778,-0.18,-0.02,1.02,-1.76,-0.61,0.44,
0.779,-0.18,-0.02,1.02,-1.63,-0.60,0.47,
0.781,-0.18,-0.02,1.03,-1.63,-0.60,0.47,
0.783,-0.17,-0.02,1.04,-1.63,-0.60,0.47,
0.783,-0.17,-0.02,1.04,-1.52,-0.59,0.52,
0.786,-0.17,-0.02,1.04,-1.52,-0.59,0.52,
0.788,-0.16,-0.02,1.04,-1.52,-0.59,0.52,
0.789,-0.16,-0.02,1.04,-1.44,-0.60,0.67,
0.791,-0.16,-0.01,1.03,-1.44,-0.60,0.67,
0.793,-0.15,-0.02,1.03,-1.44,-0.60,0.67,
0.793,-0.15,-0.02,1.03,-1.32,-0.59,0.70,
0.797,-0.14,-0.02,1.03,-1.32,-0.59,0.70,
0.799,-0.14,-0.01,1.04,-1.32,-0.59,0.70,
0.799,-0.14,-0.01,1.04,-1.18,-0.52,0.66,
0.803,-0.13,-0.01,1.03,-1.18,-0.52,0.66,
0.804,-0.13,-0.01,1.04,-1.18,-0.52,0.66,
0.804,-0.13,-0.01,1.04,-1.05,-0.49,0.67,
0.807,-0.13,-0.00,1.04,-1.05,-0.49,0.67,
0.809,-0.12,0.00,1.05,-1.05,-0.49,0.67,
0.809,-0.12,0.00,1.05,-0.93,-0.40,0.68,
0.811,-0.12,0.00,1.05,-0.93,-0.40,0.68,
0.814,-0.13,0.01,1.05,-0.93,-0.40,0.68,
0.814,-0.13,0.01,1.05,-0.88,-0.30,0.77,
0.817,-0.13,0.01,1.05,-0.88,-0.30,0.77,
0.823,-0.13,0.01,1.05,-0.88,-0.30,0.77,
0.824,-0.13,0.01,1.05,-0.86,-0.20,0.78,
0.824,-0.13,0.02,1.05,-0.86,-0.20,0.78,
0.824,-0.14,0.01,1.05,-0.86,-0.20,0.78,
0.83,-0.14,0.01,1.05,-0.90,-0.13,0.83,
0.83,-0.14,0.01,1.05,-0.90,-0.13,0.83,
0.83,-0.14,0.01,1.05,-0.90,-0.13,0.83,
0.831,-0.14,0.01,1.05,-0.98,-0.08,0.83,
0.831,-0.15,0.01,1.04,-0.98,-0.08,0.83,
0.833,-0.15,0.01,1.04,-0.98,-0.08,0.83,
0.833,-0.15,0.01,1.04,-1.01,-0.08,0.76,
0.836,-0.15,0.01,1.03,-1.01,-0.08,0.76,
0.838,-0.16,0.01,1.03,-1.01,-0.08,0.76,
0.839,-0.16,0.01,1.03,-1.12,-0.07,0.71,
0.841,-0.16,0.00,1.03,-1.12,-0.07,0.71,
0.843,-0.17,0.01,1.03,-1.12,-0.07,0.71,
0.844,-0.17,0.01,1.03,-1.17,-0.08,0.64,
0.846,-0.17,0.02,1.04,-1.17,-0.08,0.64,
0.848,-0.17,0.02,1.04,-1.17,-0.08,0.64,
0.849,-0.17,0.02,1.04,-1.25,-0.10,0.62,
0.851,-0.17,0.03,1.04,-1.25,-0.10,0.62,
0.854,-0.16,0.04,1.04,-1.25,-0.10,0.62,
0.855,-0.16,0.04,1.04,-1.29,0.06,0.68,
0.857,-0.15,0.05,1.05,-1.29,0.06,0.68,
0.858,-0.15,0.05,1.05,-1.21,0.20,0.71,
0.858,-0.14,0.05,1.05,-1.21,0.20,0.71,
0.86,-0.14,0.06,1.06,-1.21,0.20,0.71,
0.863,-0.14,0.06,1.07,-1.21,0.20,0.71,
0.863,-0.14,0.06,1.07,-1.05,0.40,0.75,
0.866,-0.13,0.06,1.07,-1.05,0.40,0.75,
0.87,-0.13,0.06,1.07,-1.00,0.54,0.89,
0.871,-0.14,0.07,1.08,-1.00,0.54,0.89,
0.871,-0.14,0.06,1.10,-1.00,0.54,0.89,
0.873,-0.14,0.06,1.10,-0.91,0.61,1.04,
0.873,-0.14,0.06,1.11,-0.91,0.61,1.04,
0.876,-0.14,0.06,1.12,-0.91,0.61,1.04,
0.878,-0.14,0.06,1.13,-0.91,0.61,1.04,
0.878,-0.14,0.06,1.13,-0.93,0.60,1.30,
0.881,-0.14,0.05,1.14,-0.93,0.60,1.30,
0.883,-0.15,0.05,1.14,-0.93,0.60,1.30,
0.884,-0.15,0.05,1.14,-0.86,0.55,1.52,
0.885,-0.15,0.05,1.14,-0.86,0.55,1.52,
0.888,-0.14,0.04,1.15,-0.86,0.55,1.52,
0.889,-0.14,0.04,1.15,-0.90,0.55,1.66,
0.89,-0.14,0.05,1.16,-0.90,0.55,1.66,
0.894,-0.14,0.04,1.16,-0.90,0.55,1.66,
0.894,-0.14,0.04,1.16,-0.91,0.49,1.70,
0.896,-0.14,0.04,1.16,-0.91,0.49,1.70,
0.898,-0.14,0.04,1.16,-0.86,0.52,1.80,
0.899,-0.13,0.04,1.16,-0.86,0.52,1.80,
0.901,-0.13,0.04,1.16,-0.86,0.52,1.80,
0.904,-0.12,0.03,1.16,-0.86,0.52,1.80,
0.904,-0.12,0.03,1.16,-0.77,0.49,1.84,
0.906,-0.11,0.03,1.16,-0.77,0.49,1.84,
0.908,-0.11,0.02,1.15,-0.77,0.49,1.84,
0.908,-0.11,0.02,1.15,-0.66,0.46,1.82,
0.911,-0.11,0.02,1.14,-0.66,0.46,1.82,
0.913,-0.11,0.02,1.14,-0.56,0.41,1.74,
0.913,-0.10,0.01,1.13,-0.56,0.41,1.74,
0.916,-0.10,0.01,1.13,-0.56,0.41,1.74,
0.918,-0.09,0.02,1.12,-0.56,0.41,1.74,
0.918,-0.09,0.02,1.12,-0.49,0.35,1.57,
0.925,-0.09,0.01,1.11,-0.49,0.35,1.57,
0.925,-0.09,0.01,1.10,-0.49,0.35,1.57,
0.926,-0.09,0.01,1.10,-0.40,0.33,1.43,
0.926,-0.09,0.00,1.10,-0.40,0.33,1.43,
0.927,-0.09,0.00,1.10,-0.34,0.28,1.28,
0.928,-0.09,-0.00,1.09,-0.34,0.28,1.28,
0.93,-0.08,-0.01,1.08,-0.34,0.28,1.28,
0.932,-0.08,-0.01,1.08,-0.34,0.28,1.28,
0.932,-0.08,-0.01,1.08,-0.33,0.23,1.15,
0.935,-0.08,-0.02,1.07,-0.33,0.23,1.15,
0.937,-0.08,-0.02,1.06,-0.33,0.23,1.15,
0.938,-0.08,-0.02,1.06,-0.28,0.17,1.02,
0.94,-0.08,-0.03,1.07,-0.28,0.17,1.02,
0.942,-0.08,-0.03,1.07,-0.28,0.17,1.02,
0.942,-0.08,-0.03,1.07,-0.28,0.10,0.85,
0.946,-0.08,-0.04,1.07,-0.28,0.10,0.85,
0.948,-0.08,-0.05,1.07,-0.28,0.10,0.85,
0.949,-0.08,-0.05,1.07,-0.32,0.01,0.87,
0.95,-0.08,-0.05,1.08,-0.32,0.01,0.87,
0.955,-0.08,-0.05,1.08,-0.32,0.01,0.87,
0.955,-0.08,-0.05,1.08,-0.36,-0.06,0.88,
0.955,-0.09,-0.06,1.09,-0.36,-0.06,0.88,
0.958,-0.09,-0.06,1.09,-0.39,-0.12,1.00,
0.958,-0.08,-0.07,1.10,-0.39,-0.12,1.00,
0.96,-0.08,-0.07,1.11,-0.39,-0.12,1.00,
0.962,-0.08,-0.07,1.11,-0.39,-0.12,1.00,
0.963,-0.08,-0.07,1.11,-0.39,-0.19,1.14,
0.965,-0.07,-0.07,1.12,-0.39,-0.19,1.14,
0.967,-0.07,-0.07,1.12,-0.39,-0.19,1.14,
0.967,-0.07,-0.07,1.12,-0.33,-0.19,1.25,
0.97,-0.07,-0.07,1.13,-0.33,-0.19,1.25,
0.972,-0.06,-0.07,1.14,-0.33,-0.19,1.25,
0.973,-0.06,-0.07,1.14,-0.24,-0.17,1.38,
0.974,-0.06,-0.08,1.13,-0.24,-0.17,1.38,
0.976,-0.06,-0.08,1.14,-0.24,-0.17,1.38,
0.977,-0.06,-0.08,1.14,-0.19,-0.19,1.50,
0.979,-0.05,-0.08,1.14,-0.19,-0.19,1.50,
0.981,-0.05,-0.09,1.13,-0.19,-0.19,1.50,
0.982,-0.05,-0.09,1.13,-0.12,-0.21,1.55,
0.984,-0.05,-0.09,1.13,-0.12,-0.21,1.55,
0.987,-0.04,-0.09,1.12,-0.12,-0.21,1.55,
0.988,-0.04,-0.09,1.12,-0.00,-0.25,1.51,
0.991,-0.04,-0.10,1.12,-0.00,-0.25,1.51,
0.992,-0.03,-0.10,1.12,-0.00,-0.25,1.51,
0.992,-0.03,-0.10,1.12,0.07,-0.31,1.42,
0.994,-0.03,-0.10,1.12,0.07,-0.31,1.42,
0.996,-0.03,-0.10,1.12,0.15,-0.36,1.40,
0.997,-0.02,-0.10,1.12,0.15,-0.36,1.40,
0.999,-0.02,-0.10,1.12,0.15,-0.36,1.40,
1.001,-0.02,-0.10,1.12,0.26,-0.35,1.35,
1.002,-0.02,-0.10,1.11,0.26,-0.35,1.35,
1.005,-0.02,-0.10,1.11,0.26,-0.35,1.35,
1.007,-0.02,-0.10,1.11,0.26,-0.35,1.35,
1.008,-0.02,-0.10,1.11,0.36,-0.33,1.31,
1.009,-0.02,-0.10,1.11,0.36,-0.33,1.31,
1.011,-0.02,-0.11,1.10,0.36,-0.33,1.31,
1.012,-0.02,-0.11,1.10,0.37,-0.33,1.23,
1.013,-0.02,-0.10,1.09,0.37,-0.33,1.23,
1.016,-0.02,-0.11,1.09,0.37,-0.33,1.23,
1.016,-0.02,-0.11,1.09,0.36,-0.34,1.17,
1.02,-0.03,-0.12,1.08,0.36,-0.34,1.17,
1.021,-0.03,-0.12,1.08,0.37,-0.37,1.06,
1.021,-0.04,-0.12,1.08,0.37,-0.37,1.06,
1.023,-0.04,-0.12,1.07,0.37,-0.37,1.06,
1.026,-0.04,-0.12,1.07,0.37,-0.37,1.06,
1.026,-0.04,-0.12,1.07,0.25,-0.48,0.98,
1.028,-0.05,-0.13,1.07,0.25,-0.48,0.98,
1.031,-0.06,-0.14,1.07,0.25,-0.48,0.98,
1.032,-0.06,-0.14,1.07,0.19,-0.52,0.89,
1.034,-0.07,-0.14,1.06,0.19,-0.52,0.89,
1.045,-0.08,-0.15,1.05,0.19,-0.52,0.89,
1.046,-0.08,-0.15,1.05,0.04,-0.61,0.84,
1.047,-0.08,-0.15,1.05,0.04,-0.61,0.84,
1.048,-0.09,-0.15,1.05,0.04,-0.61,0.84,
1.048,-0.09,-0.15,1.05,-0.13,-0.68,0.72,
1.049,-0.10,-0.15,1.06,-0.13,-0.68,0.72,
1.049,-0.11,-0.15,1.06,-0.13,-0.68,0.72,
1.05,-0.11,-0.15,1.06,-0.23,-0.72,0.70,
1.051,-0.11,-0.15,1.06,-0.23,-0.72,0.70,
1.052,-0.11,-0.14,1.06,-0.23,-0.72,0.70,
1.052,-0.11,-0.14,1.06,-0.37,-0.69,0.73,
1.061,-0.12,-0.14,1.06,-0.37,-0.69,0.73,
1.062,-0.12,-0.13,1.05,-0.37,-0.69,0.73,
1.063,-0.12,-0.13,1.05,-0.45,-0.68,0.72,
1.063,-0.12,-0.14,1.05,-0.45,-0.68,0.72,
1.063,-0.12,-0.14,1.05,-0.49,-0.58,0.69,
1.064,-0.11,-0.14,1.05,-0.49,-0.58,0.69,
1.064,-0.12,-0.13,1.05,-0.49,-0.58,0.69,
1.065,-0.12,-0.12,1.04,-0.49,-0.58,0.69,
1.066,-0.12,-0.12,1.04,-0.45,-0.57,0.64,
1.068,-0.11,-0.12,1.04,-0.45,-0.57,0.64,
1.07,-0.11,-0.12,1.04,-0.45,-0.57,0.64,
1.071,-0.11,-0.12,1.04,-0.46,-0.45,0.60,
1.073,-0.10,-0.11,1.04,-0.46,-0.45,0.60,
1.075,-0.09,-0.11,1.03,-0.46,-0.45,0.60,
1.076,-0.09,-0.11,1.03,-0.38,-0.38,0.55,
1.078,-0.09,-0.10,1.03,-0.38,-0.38,0.55,
1.08,-0.08,-0.09,1.03,-0.38,-0.38,0.55,
1.08,-0.08,-0.09,1.03,-0.27,-0.28,0.50,
1.083,-0.08,-0.09,1.02,-0.27,-0.28,0.50,
1.087,-0.07,-0.08,1.03,-0.27,-0.28,0.50,
1.087,-0.07,-0.08,1.03,-0.12,-0.14,0.43,
1.088,-0.08,-0.08,1.02,-0.12,-0.14,0.43,
1.09,-0.07,-0.08,1.02,-0.12,-0.14,0.43,
1.091,-0.07,-0.08,1.02,-0.04,-0.02,0.41,
1.093,-0.07,-0.07,1.03,-0.04,-0.02,0.41,
1.095,-0.07,-0.07,1.03,-0.03,0.07,0.38,
1.095,-0.08,-0.07,1.03,-0.03,0.07,0.38,
1.098,-0.08,-0.07,1.02,-0.03,0.07,0.38,
1.1,-0.08,-0.08,1.02,-0.03,0.07,0.38,
1.1,-0.08,-0.08,1.02,-0.01,0.13,0.44,
1.104,-0.08,-0.08,1.02,-0.01,0.13,0.44,
1.105,-0.08,-0.08,1.02,-0.01,0.13,0.44,
1.105,-0.08,-0.08,1.02,-0.05,0.11,0.39,
1.108,-0.08,-0.09,1.03,-0.05,0.11,0.39,
1.11,-0.08,-0.09,1.03,-0.08,0.06,0.36,
1.111,-0.09,-0.08,1.03,-0.08,0.06,0.36,
1.113,-0.09,-0.09,1.03,-0.08,0.06,0.36,
1.115,-0.10,-0.09,1.03,-0.08,0.06,0.36,
1.115,-0.10,-0.09,1.03,-0.12,0.02,0.42,
1.117,-0.10,-0.09,1.03,-0.12,0.02,0.42,
1.12,-0.11,-0.10,1.04,-0.12,0.02,0.42,
1.121,-0.11,-0.10,1.04,-0.18,-0.04,0.47,
1.122,-0.11,-0.10,1.03,-0.18,-0.04,0.47,
1.125,-0.11,-0.10,1.03,-0.18,-0.04,0.47,
1.126,-0.11,-0.10,1.03,-0.25,-0.07,0.49,
1.128,-0.12,-0.10,1.03,-0.25,-0.07,0.49,
1.13,-0.12,-0.10,1.04,-0.25,-0.07,0.49,
1.13,-0.12,-0.10,1.04,-0.29,-0.10,0.48,
1.133,-0.12,-0.11,1.04,-0.29,-0.10,0.48,
1.135,-0.12,-0.11,1.04,-0.29,-0.10,0.48,
1.136,-0.12,-0.11,1.04,-0.37,-0.14,0.52,
1.147,-0.13,-0.11,1.05,-0.37,-0.14,0.52,
1.148,-0.13,-0.11,1.05,-0.37,-0.14,0.52,
1.149,-0.13,-0.11,1.05,-0.39,-0.17,0.56,
1.15,-0.13,-0.10,1.05,-0.39,-0.17,0.56,
1.15,-0.13,-0.10,1.05,-0.43,-0.15,0.62,
1.151,-0.13,-0.10,1.05,-0.43,-0.15,0.62,
1.152,-0.13,-0.10,1.05,-0.43,-0.15,0.62,
1.152,-0.13,-0.09,1.05,-0.43,-0.15,0.62,
1.152,-0.13,-0.09,1.05,-0.40,-0.07,0.61,
1.153,-0.14,-0.09,1.05,-0.40,-0.07,0.61,
1.158,-0.13,-0.08,1.05,-0.40,-0.07,0.61,
1.158,-0.13,-0.08,1.05,-0.40,-0.03,0.62,
1.158,-0.13,-0.08,1.06,-0.40,-0.03,0.62,
1.167,-0.13,-0.07,1.06,-0.40,-0.03,0.62,
1.167,-0.13,-0.07,1.06,-0.43,0.07,0.67,
1.168,-0.12,-0.07,1.06,-0.43,0.07,0.67,
1.168,-0.12,-0.06,1.06,-0.43,0.07,0.67,
1.168,-0.12,-0.06,1.06,-0.35,0.19,0.72,
1.168,-0.12,-0.06,1.06,-0.35,0.19,0.72,
1.172,-0.12,-0.06,1.06,-0.26,0.28,0.74,
1.172,-0.11,-0.05,1.06,-0.26,0.28,0.74,
1.174,-0.10,-0.05,1.06,-0.26,0.28,0.74,
1.174,-0.09,-0.04,1.06,-0.26,0.28,0.74,
1.175,-0.09,-0.04,1.06,-0.18,0.39,0.77,
1.177,-0.09,-0.04,1.07,-0.18,0.39,0.77,
1.18,-0.09,-0.03,1.06,-0.18,0.39,0.77,
1.18,-0.09,-0.03,1.06,-0.02,0.52,0.78,
1.183,-0.09,-0.02,1.07,-0.02,0.52,0.78,
1.185,-0.08,-0.02,1.07,-0.02,0.52,0.78,
1.185,-0.08,-0.02,1.07,0.07,0.62,0.79,
1.189,-0.08,-0.01,1.07,0.07,0.62,0.79,
1.19,-0.08,-0.01,1.07,0.07,0.62,0.79,
1.19,-0.08,-0.01,1.07,0.10,0.76,0.83,
1.192,-0.08,-0.01,1.07,0.10,0.76,0.83,
1.195,-0.09,-0.01,1.08,0.10,0.76,0.83,
1.195,-0.09,-0.01,1.08,0.15,0.82,0.86,
1.197,-0.09,-0.01,1.07,0.15,0.82,0.86,
1.2,-0.09,-0.01,1.07,0.15,0.82,0.86,
1.2,-0.09,-0.01,1.07,0.11,0.85,0.87,
1.202,-0.10,-0.02,1.07,0.11,0.85,0.87,
1.205,-0.10,-0.02,1.07,0.11,0.85,0.87,
1.206,-0.10,-0.02,1.07,0.08,0.88,0.83,
1.207,-0.10,-0.03,1.06,0.08,0.88,0.83,
1.21,-0.10,-0.03,1.06,0.08,0.88,0.83,
1.21,-0.10,-0.03,1.06,-0.01,0.78,0.82,
1.212,-0.11,-0.04,1.06,-0.01,0.78,0.82,
1.214,-0.11,-0.05,1.06,-0.01,0.78,0.82,
1.214,-0.11,-0.05,1.06,-0.04,0.68,0.78,
1.217,-0.12,-0.06,1.05,-0.04,0.68,0.78,
1.219,-0.11,-0.06,1.05,-0.04,0.68,0.78,
1.219,-0.11,-0.06,1.05,-0.11,0.54,0.71,
1.222,-0.11,-0.07,1.05,-0.11,0.54,0.71,
1.224,-0.11,-0.07,1.05,-0.15,0.40,0.67,
1.224,-0.11,-0.08,1.05,-0.15,0.40,0.67,
1.226,-0.11,-0.08,1.05,-0.15,0.40,0.67,
1.229,-0.11,-0.09,1.04,-0.15,0.40,0.67,
1.229,-0.11,-0.09,1.04,-0.12,0.21,0.66,
1.232,-0.11,-0.10,1.04,-0.12,0.21,0.66,
1.234,-0.10,-0.10,1.04,-0.12,0.21,0.66,
1.235,-0.10,-0.10,1.04,-0.09,0.12,0.58,
1.236,-0.10,-0.11,1.03,-0.09,0.12,0.58,
1.241,-0.10,-0.12,1.03,-0.09,0.12,0.58,
1.241,-0.10,-0.12,1.03,-0.05,-0.03,0.54,
1.242,-0.09,-0.12,1.03,-0.05,-0.03,0.54,
1.244,-0.09,-0.12,1.02,-0.05,-0.03,0.54,
1.244,-0.09,-0.12,1.02,0.02,-0.12,0.46,
1.247,-0.08,-0.12,1.02,0.02,-0.12,0.46,
1.249,-0.08,-0.11,1.03,0.02,-0.12,0.46,
1.249,-0.08,-0.11,1.03,0.13,-0.18,0.42,
1.252,-0.07,-0.12,1.03,0.13,-0.18,0.42,
1.254,-0.07,-0.12,1.03,0.13,-0.18,0.42,
1.255,-0.07,-0.12,1.03,0.21,-0.13,0.40,
1.257,-0.07,-0.11,1.03,0.21,-0.13,0.40,
1.259,-0.07,-0.12,1.04,0.21,-0.13,0.40,
1.259,-0.07,-0.12,1.04,0.29,-0.13,0.45,
1.261,-0.08,-0.12,1.04,0.29,-0.13,0.45,
1.265,-0.08,-0.12,1.05,0.29,-0.13,0.45,
1.265,-0.08,-0.12,1.05,0.33,-0.10,0.51,
1.267,-0.09,-0.13,1.07,0.33,-0.10,0.51,
1.269,-0.09,-0.14,1.07,0.33,-0.10,0.51,
1.269,-0.09,-0.14,1.07,0.24,-0.15,0.59,
1.272,-0.10,-0.15,1.08,0.24,-0.15,0.59,
1.275,-0.11,-0.15,1.09,0.24,-0.15,0.59,
1.276,-0.11,-0.15,1.09,0.14,-0.24,0.80,
1.276,-0.11,-0.15,1.09,0.14,-0.24,0.80,
1.279,-0.11,-0.15,1.10,0.14,-0.24,0.80,
1.28,-0.11,-0.15,1.10,0.04,-0.36,0.92,
1.282,-0.12,-0.15,1.10,0.04,-0.36,0.92,
1.284,-0.12,-0.15,1.11,0.04,-0.36,0.92,
1.285,-0.12,-0.15,1.11,-0.05,-0.42,1.03,
1.289,-0.12,-0.15,1.12,-0.05,-0.42,1.03,
1.29,-0.12,-0.15,1.12,-0.08,-0.40,1.14,
1.29,-0.12,-0.15,1.13,-0.08,-0.40,1.14,
1.292,-0.11,-0.15,1.13,-0.08,-0.40,1.14,
1.294,-0.11,-0.15,1.13,-0.09,-0.36,1.30,
1.296,-0.11,-0.14,1.13,-0.09,-0.36,1.30,
1.297,-0.10,-0.14,1.14,-0.09,-0.36,1.30,
1.299,-0.10,-0.14,1.15,-0.09,-0.36,1.30,
1.299,-0.10,-0.14,1.15,-0.02,-0.28,1.39,
1.302,-0.09,-0.14,1.14,-0.02,-0.28,1.39,
1.306,-0.08,-0.14,1.15,-0.02,-0.28,1.39,
1.306,-0.08,-0.14,1.15,0.11,-0.23,1.48,
1.307,-0.07,-0.14,1.15,0.11,-0.23,1.48,
1.309,-0.07,-0.14,1.15,0.11,-0.23,1.48,
1.309,-0.07,-0.14,1.15,0.26,-0.22,1.49,
1.312,-0.06,-0.14,1.15,0.26,-0.22,1.49,
1.314,-0.05,-0.14,1.15,0.26,-0.22,1.49,
1.314,-0.05,-0.14,1.15,0.38,-0.21,1.56,
1.317,-0.04,-0.15,1.14,0.38,-0.21,1.56,
1.319,-0.03,-0.15,1.14,0.38,-0.21,1.56,
1.322,-0.03,-0.15,1.14,0.55,-0.22,1.51,
1.322,-0.03,-0.15,1.13,0.55,-0.22,1.51,
1.327,-0.02,-0.15,1.12,0.55,-0.22,1.51,
1.327,-0.02,-0.15,1.12,0.71,-0.24,1.43,
1.328,-0.01,-0.16,1.11,0.71,-0.24,1.43,
1.328,-0.00,-0.16,1.10,0.71,-0.24,1.43,
1.328,-0.00,-0.16,1.10,0.83,-0.29,1.27,
1.331,0.01,-0.16,1.11,0.83,-0.29,1.27,
1.333,0.01,-0.15,1.10,0.83,-0.29,1.27,
1.333,0.01,-0.15,1.10,1.02,-0.33,1.10,
1.335,0.02,-0.15,1.08,1.02,-0.33,1.10,
1.338,0.03,-0.15,1.08,1.02,-0.33,1.10,
1.338,0.03,-0.15,1.08,1.16,-0.31,1.03,
1.34,0.03,-0.14,1.07,1.16,-0.31,1.03,
1.343,0.03,-0.14,1.07,1.28,-0.24,0.81,
1.343,0.03,-0.14,1.06,1.28,-0.24,0.81,
1.345,0.03,-0.12,1.05,1.28,-0.24,0.81,
1.347,0.04,-0.12,1.05,1.28,-0.24,0.81,
1.348,0.04,-0.12,1.05,1.35,-0.14,0.67,
1.35,0.03,-0.11,1.05,1.35,-0.14,0.67,
1.353,0.04,-0.10,1.06,1.35,-0.14,0.67,
1.353,0.04,-0.10,1.06,1.36,0.04,0.57,
1.362,0.03,-0.09,1.06,1.36,0.04,0.57,
1.363,0.02,-0.09,1.07,1.36,0.04,0.57,
1.364,0.02,-0.09,1.07,1.38,0.21,0.60,
1.364,0.02,-0.08,1.07,1.38,0.21,0.60,
1.364,0.02,-0.09,1.08,1.38,0.21,0.60,
1.365,0.02,-0.09,1.08,1.29,0.31,0.68,
1.365,0.01,-0.09,1.09,1.29,0.31,0.68,
1.367,-0.00,-0.08,1.09,1.29,0.31,0.68,
1.368,-0.00,-0.08,1.09,1.21,0.40,0.79,
1.376,-0.01,-0.08,1.09,1.21,0.40,0.79,
1.377,-0.02,-0.08,1.09,1.21,0.40,0.79,
1.378,-0.02,-0.08,1.09,1.06,0.40,0.92,
1.378,-0.03,-0.08,1.09,1.06,0.40,0.92,
1.378,-0.03,-0.09,1.10,1.06,0.40,0.92,
1.379,-0.03,-0.09,1.10,0.90,0.41,0.92,
1.38,-0.04,-0.09,1.10,0.90,0.41,0.92,
1.382,-0.05,-0.09,1.10,0.90,0.41,0.92,
1.382,-0.05,-0.09,1.10,0.76,0.39,0.95,
1.385,-0.04,-0.09,1.10,0.76,0.39,0.95,
1.388,-0.05,-0.09,1.10,0.76,0.39,0.95,
1.388,-0.05,-0.09,1.10,0.61,0.36,0.98,
1.39,-0.05,-0.10,1.11,0.61,0.36,0.98,
1.392,-0.05,-0.10,1.10,0.61,0.36,0.98,
1.393,-0.05,-0.10,1.10,0.57,0.31,1.02,
1.395,-0.05,-0.10,1.10,0.57,0.31,1.02,
1.397,-0.05,-0.09,1.10,0.57,0.31,1.02,
1.397,-0.05,-0.09,1.10,0.53,0.26,1.03,
1.4,-0.05,-0.10,1.10,0.53,0.26,1.03,
1.402,-0.05,-0.10,1.10,0.56,0.29,0.98,
1.402,-0.04,-0.10,1.10,0.56,0.29,0.98,
1.405,-0.04,-0.10,1.09,0.56,0.29,0.98,
1.407,-0.04,-0.10,1.09,0.56,0.29,0.98,
1.408,-0.04,-0.10,1.09,0.64,0.28,0.95,
1.409,-0.03,-0.10,1.08,0.64,0.28,0.95,
1.412,-0.03,-0.10,1.08,0.64,0.28,0.95,
1.413,-0.03,-0.10,1.08,0.71,0.22,0.87,
1.414,-0.03,-0.10,1.08,0.71,0.22,0.87,
1.417,-0.03,-0.10,1.08,0.71,0.22,0.87,
1.417,-0.03,-0.10,1.08,0.76,0.21,0.77,
1.42,-0.02,-0.10,1.07,0.76,0.21,0.77,
1.424,-0.02,-0.11,1.07,0.76,0.21,0.77,
1.425,-0.02,-0.11,1.07,0.82,0.20,0.71,
1.425,-0.02,-0.11,1.07,0.82,0.20,0.71,
1.427,-0.02,-0.11,1.07,0.82,0.20,0.71,
1.427,-0.02,-0.11,1.07,0.87,0.17,0.67,
1.43,-0.02,-0.12,1.06,0.87,0.17,0.67,
1.432,-0.02,-0.12,1.06,0.87,0.17,0.67,
1.433,-0.02,-0.12,1.06,0.86,0.13,0.62,
1.435,-0.02,-0.13,1.05,0.86,0.13,0.62,
1.439,-0.02,-0.13,1.05,0.86,0.13,0.62,
1.44,-0.02,-0.13,1.05,0.84,0.02,0.53,
1.441,-0.02,-0.13,1.04,0.84,0.02,0.53,
1.442,-0.02,-0.13,1.04,0.85,-0.08,0.41,
1.443,-0.02,-0.14,1.03,0.85,-0.08,0.41,
1.444,-0.01,-0.14,1.03,0.85,-0.08,0.41,
1.447,-0.02,-0.14,1.02,0.85,-0.08,0.41,
1.447,-0.02,-0.14,1.02,0.83,-0.12,0.29,
1.449,-0.02,-0.14,1.02,0.83,-0.12,0.29,
1.452,-0.02,-0.14,1.01,0.83,-0.12,0.29,
1.453,-0.02,-0.14,1.01,0.82,-0.16,0.18,
1.457,-0.01,-0.14,1.01,0.82,-0.16,0.18,
1.458,-0.01,-0.14,1.01,0.82,-0.16,0.18,
1.458,-0.01,-0.14,1.01,0.79,-0.14,0.07,
1.459,-0.00,-0.14,1.01,0.79,-0.14,0.07,
1.462,-0.00,-0.13,1.01,0.79,-0.14,0.07,
1.463,-0.00,-0.13,1.01,0.84,-0.13,0.06,
1.464,0.00,-0.13,1.00,0.84,-0.13,0.06,
1.468,0.00,-0.13,1.00,0.89,-0.06,0.02,
1.468,0.01,-0.12,1.00,0.89,-0.06,0.02,
1.469,0.01,-0.11,0.99,0.89,-0.06,0.02,
1.479,0.02,-0.11,0.98,0.89,-0.06,0.02,
1.48,0.02,-0.11,0.98,0.95,0.04,-0.10,
1.481,0.02,-0.10,0.98,0.95,0.04,-0.10,
1.482,0.02,-0.10,0.99,0.95,0.04,-0.10,
1.482,0.02,-0.10,0.99,1.02,0.21,-0.19,
1.483,0.02,-0.10,1.00,1.02,0.21,-0.19,
1.483,0.02,-0.10,1.01,1.02,0.21,-0.19,
1.484,0.02,-0.10,1.01,1.08,0.30,-0.22,
1.489,0.02,-0.10,1.03,1.08,0.30,-0.22,
1.489,0.02,-0.09,1.05,1.08,0.30,-0.22,
1.49,0.02,-0.09,1.05,1.08,0.38,-0.04,
1.49,0.02,-0.09,1.07,1.08,0.38,-0.04,
1.495,0.01,-0.09,1.09,1.08,0.38,-0.04,
1.496,0.01,-0.09,1.09,1.06,0.42,0.34,
1.496,0.01,-0.10,1.10,1.06,0.42,0.34,
1.496,0.00,-0.11,1.12,1.06,0.42,0.34,
1.497,0.00,-0.11,1.12,1.00,0.44,0.75,
1.5,-0.01,-0.12,1.13,1.00,0.44,0.75,
1.502,-0.01,-0.13,1.15,1.00,0.44,0.75,
1.502,-0.01,-0.13,1.15,0.90,0.33,1.03,
1.506,-0.01,-0.13,1.16,0.90,0.33,1.03,
1.507,-0.01,-0.13,1.17,0.90,0.33,1.03,
1.507,-0.01,-0.13,1.17,0.81,0.19,1.32,
1.508,-0.01,-0.14,1.19,0.81,0.19,1.32,
1.512,-0.01,-0.14,1.20,0.81,0.19,1.32,
1.513,-0.01,-0.14,1.20,0.75,0.13,1.55,
1.514,-0.02,-0.15,1.20,0.75,0.13,1.55,
1.517,-0.02,-0.15,1.20,0.73,0.00,1.80,
1.517,-0.02,-0.15,1.20,0.73,0.00,1.80,
1.519,-0.02,-0.15,1.20,0.73,0.00,1.80,
1.523,-0.02,-0.16,1.19,0.73,0.00,1.80,
1.523,-0.02,-0.16,1.19,0.66,-0.04,1.83,
1.525,-0.02,-0.16,1.19,0.66,-0.04,1.83,
1.526,-0.01,-0.15,1.18,0.66,-0.04,1.83,
1.526,-0.01,-0.15,1.18,0.64,-0.11,1.83,
1.529,-0.01,-0.16,1.18,0.64,-0.11,1.83,
1.532,-0.01,-0.16,1.17,0.64,-0.11,1.83,
1.532,-0.01,-0.16,1.17,0.66,-0.10,1.69,
1.534,-0.01,-0.16,1.16,0.66,-0.10,1.69,
1.536,-0.00,-0.16,1.15,0.66,-0.10,1.69,
1.537,-0.00,-0.16,1.15,0.72,-0.11,1.55,
1.541,0.01,-0.16,1.13,0.72,-0.11,1.55,
1.542,0.01,-0.16,1.13,0.73,-0.12,1.32,
1.542,0.01,-0.16,1.12,0.73,-0.12,1.32,
1.544,0.01,-0.16,1.11,0.73,-0.12,1.32,
1.546,0.01,-0.15,1.10,0.73,-0.12,1.32,
1.547,0.01,-0.15,1.10,0.81,-0.16,1.09,
1.549,0.01,-0.15,1.08,0.81,-0.16,1.09,
1.551,0.02,-0.15,1.06,0.81,-0.16,1.09,
1.552,0.02,-0.15,1.06,0.81,-0.09,0.83,
1.554,0.02,-0.16,1.05,0.81,-0.09,0.83,
1.556,0.02,-0.16,1.04,0.81,-0.09,0.83,
1.556,0.02,-0.16,1.04,0.83,-0.03,0.50,
1.558,0.02,-0.16,1.04,0.83,-0.03,0.50,
1.561,0.03,-0.15,1.04,0.83,-0.03,0.50,
1.562,0.03,-0.15,1.04,0.89,-0.14,0.25,
1.564,0.03,-0.14,1.05,0.89,-0.14,0.25,
1.566,0.03,-0.14,1.06,0.89,-0.14,0.25,
1.566,0.03,-0.14,1.06,0.93,-0.10,0.22,
1.569,0.02,-0.13,1.08,0.93,-0.10,0.22,
1.571,0.02,-0.12,1.09,0.93,-0.10,0.22,
1.571,0.02,-0.12,1.09,0.99,0.02,0.36,
1.575,0.01,-0.12,1.10,0.99,0.02,0.36,
1.575,0.01,-0.12,1.11,0.99,0.02,0.36,
1.576,0.01,-0.12,1.11,0.91,0.14,0.65,
1.579,0.00,-0.13,1.12,0.91,0.14,0.65,
1.581,0.00,-0.13,1.12,0.82,0.16,0.84,
1.582,0.00,-0.13,1.13,0.82,0.16,0.84,
1.584,0.00,-0.13,1.14,0.82,0.16,0.84,
1.586,-0.00,-0.13,1.15,0.82,0.16,0.84,
1.587,-0.00,-0.13,1.15,0.74,0.12,1.00,
1.594,-0.00,-0.13,1.15,0.74,0.12,1.00,
1.594,-0.00,-0.13,1.15,0.74,0.12,1.00,
1.595,-0.00,-0.13,1.15,0.74,0.04,1.17,
1.595,-0.00,-0.14,1.15,0.74,0.04,1.17,
1.595,-0.00,-0.14,1.15,0.74,0.04,1.17,
1.595,-0.00,-0.14,1.15,0.71,0.03,1.27,
1.598,-0.01,-0.14,1.15,0.71,0.03,1.27,
1.6,-0.01,-0.14,1.14,0.71,0.03,1.27,
1.6,-0.01,-0.14,1.14,0.72,-0.04,1.21,
1.603,-0.01,-0.14,1.12,0.72,-0.04,1.21,
1.606,-0.01,-0.14,1.11,0.72,-0.04,1.21,
1.607,-0.01,-0.14,1.11,0.65,-0.11,1.11,
1.608,-0.01,-0.14,1.10,0.65,-0.11,1.11,
1.61,-0.01,-0.14,1.09,0.65,-0.11,1.11,
1.611,-0.01,-0.14,1.09,0.62,-0.12,0.85,
1.613,-0.01,-0.14,1.08,0.62,-0.12,0.85,
1.616,-0.01,-0.13,1.06,0.62,-0.12,0.85,
1.616,-0.01,-0.13,1.06,0.60,-0.12,0.64,
1.619,-0.00,-0.14,1.05,0.60,-0.12,0.64,
1.621,-0.00,-0.13,1.03,0.60,-0.12,0.64,
1.621,-0.00,-0.13,1.03,0.60,-0.11,0.39,
1.625,0.00,-0.13,1.02,0.60,-0.11,0.39,
1.626,0.00,-0.13,1.00,0.60,-0.11,0.39,
1.627,0.00,-0.13,1.00,0.65,-0.14,0.09,
1.628,0.01,-0.13,0.99,0.65,-0.14,0.09,
1.63,0.02,-0.13,0.98,0.65,-0.14,0.09,
1.63,0.02,-0.13,0.98,0.67,-0.11,-0.18,
1.633,0.02,-0.13,0.97,0.67,-0.11,-0.18,
1.635,0.03,-0.12,0.96,0.67,-0.11,-0.18,
1.635,0.03,-0.12,0.96,0.71,-0.11,-0.48,
1.638,0.04,-0.12,0.95,0.71,-0.11,-0.48,
1.64,0.05,-0.11,0.94,0.71,-0.11,-0.48,
1.641,0.05,-0.11,0.94,0.83,-0.10,-0.69,
1.643,0.06,-0.11,0.94,0.83,-0.10,-0.69,
1.645,0.07,-0.11,0.94,0.83,-0.10,-0.69,
1.645,0.07,-0.11,0.94,1.00,-0.00,-0.86,
1.647,0.08,-0.11,0.94,1.00,-0.00,-0.86,
1.651,0.09,-0.10,0.95,1.00,-0.00,-0.86,
1.651,0.09,-0.10,0.95,1.17,0.05,-0.91,
1.652,0.09,-0.10,0.96,1.17,0.05,-0.91,
1.656,0.10,-0.10,0.98,1.17,0.05,-0.91,
1.657,0.10,-0.10,0.98,1.30,0.09,-0.87,
1.657,0.10,-0.09,1.01,1.30,0.09,-0.87,
1.659,0.11,-0.09,1.05,1.30,0.09,-0.87,
1.66,0.11,-0.09,1.05,1.41,0.13,-0.55,
1.662,0.10,-0.09,1.08,1.41,0.13,-0.55,
1.664,0.10,-0.09,1.11,1.41,0.13,-0.55,
1.665,0.10,-0.09,1.11,1.48,0.26,0.01,
1.667,0.09,-0.09,1.14,1.48,0.26,0.01,
1.669,0.08,-0.09,1.17,1.48,0.26,0.01,
1.669,0.08,-0.09,1.17,1.46,0.31,0.63,
1.672,0.07,-0.10,1.19,1.46,0.31,0.63,
1.674,0.07,-0.10,1.21,1.46,0.31,0.63,
1.675,0.07,-0.10,1.21,1.31,0.28,1.21,
1.677,0.07,-0.11,1.23,1.31,0.28,1.21,
1.679,0.06,-0.11,1.24,1.31,0.28,1.21,
1.68,0.06,-0.11,1.24,1.19,0.20,1.67,
1.682,0.06,-0.11,1.25,1.19,0.20,1.67,
1.684,0.06,-0.12,1.24,1.19,0.20,1.67,
1.685,0.06,-0.12,1.24,1.10,0.10,1.99,
1.687,0.05,-0.12,1.24,1.10,0.10,1.99,
1.695,0.05,-0.12,1.24,1.10,0.10,1.99,
1.696,0.05,-0.12,1.24,1.03,0.06,2.10,
1.697,0.04,-0.12,1.23,1.03,0.06,2.10,
1.697,0.03,-0.12,1.22,1.03,0.06,2.10,
1.698,0.03,-0.12,1.22,0.95,0.01,2.07,
1.698,0.02,-0.13,1.21,0.95,0.01,2.07,
1.699,0.02,-0.13,1.20,0.95,0.01,2.07,
1.7,0.02,-0.13,1.20,0.82,-0.05,1.88,
1.702,0.01,-0.13,1.17,0.82,-0.05,1.88,
1.704,0.01,-0.13,1.16,0.82,-0.05,1.88,
1.705,0.01,-0.13,1.16,0.64,-0.14,1.66,
1.713,0.01,-0.13,1.14,0.64,-0.14,1.66,
1.714,0.01,-0.14,1.12,0.64,-0.14,1.66,
1.714,0.01,-0.14,1.12,0.52,-0.19,1.32,
1.714,0.01,-0.14,1.10,0.52,-0.19,1.32,
1.714,0.01,-0.13,1.09,0.52,-0.19,1.32,
1.715,0.01,-0.13,1.09,0.47,-0.27,0.96,
1.716,0.01,-0.13,1.07,0.47,-0.27,0.96,
1.719,0.02,-0.13,1.06,0.47,-0.27,0.96,
1.719,0.02,-0.13,1.06,0.45,-0.30,0.60,
1.722,0.02,-0.14,1.04,0.45,-0.30,0.60,
1.723,0.02,-0.14,1.01,0.45,-0.30,0.60,
1.724,0.02,-0.14,1.01,0.47,-0.34,0.30,
1.726,0.03,-0.13,1.00,0.47,-0.34,0.30,
1.728,0.03,-0.14,0.98,0.47,-0.34,0.30,
1.729,0.03,-0.14,0.98,0.53,-0.41,-0.10,
1.731,0.04,-0.13,0.97,0.53,-0.41,-0.10,
1.733,0.04,-0.14,0.95,0.53,-0.41,-0.10,
1.734,0.04,-0.14,0.95,0.57,-0.43,-0.44,
1.736,0.05,-0.14,0.93,0.57,-0.43,-0.44,
1.739,0.06,-0.14,0.92,0.57,-0.43,-0.44,
1.74,0.06,-0.14,0.92,0.66,-0.47,-0.74,
1.741,0.06,-0.14,0.91,0.66,-0.47,-0.74,
1.744,0.07,-0.14,0.89,0.66,-0.47,-0.74,
1.744,0.07,-0.14,0.89,0.78,-0.53,-1.09,
1.746,0.07,-0.14,0.88,0.78,-0.53,-1.09,
1.748,0.07,-0.14,0.87,0.78,-0.53,-1.09,
1.749,0.07,-0.14,0.87,0.88,-0.57,-1.37,
1.751,0.07,-0.13,0.87,0.88,-0.57,-1.37,
1.754,0.07,-0.13,0.88,0.88,-0.57,-1.37,
1.754,0.07,-0.13,0.88,0.92,-0.57,-1.59,
1.757,0.08,-0.12,0.90,0.92,-0.57,-1.59,
1.758,0.08,-0.11,0.92,0.92,-0.57,-1.59,
1.759,0.08,-0.11,0.92,0.98,-0.51,-1.60,
1.761,0.09,-0.11,0.94,0.98,-0.51,-1.60,
1.764,0.09,-0.10,0.96,0.98,-0.51,-1.60,
1.764,0.09,-0.10,0.96,1.03,-0.41,-1.24,
1.766,0.09,-0.10,0.99,1.03,-0.41,-1.24,
1.768,0.08,-0.10,1.01,1.03,-0.41,-1.24,
1.769,0.08,-0.10,1.01,1.13,-0.33,-0.81,
1.774,0.08,-0.10,1.03,1.13,-0.33,-0.81,
1.775,0.08,-0.10,1.06,1.13,-0.33,-0.81,
1.776,0.08,-0.10,1.06,1.10,-0.30,-0.37,
1.776,0.08,-0.11,1.07,1.10,-0.30,-0.37,
1.778,0.07,-0.11,1.09,1.10,-0.30,-0.37,
1.779,0.07,-0.11,1.09,1.06,-0.31,0.08,
1.781,0.07,-0.12,1.10,1.06,-0.31,0.08,
1.784,0.06,-0.13,1.10,1.06,-0.31,0.08,
1.784,0.06,-0.13,1.10,1.02,-0.39,0.43,
1.786,0.05,-0.14,1.11,1.02,-0.39,0.43,
1.8,0.05,-0.14,1.11,0.90,-0.59,0.61,
1.801,0.05,-0.15,1.11,0.90,-0.59,0.61,
1.801,0.05,-0.16,1.10,0.90,-0.59,0.61,
1.801,0.05,-0.16,1.09,0.90,-0.59,0.61,
1.802,0.05,-0.16,1.09,0.80,-0.80,0.72,
1.803,0.05,-0.17,1.08,0.80,-0.80,0.72,
1.803,0.05,-0.17,1.07,0.80,-0.80,0.72,
1.804,0.05,-0.17,1.07,0.75,-0.93,0.54,
1.805,0.05,-0.17,1.05,0.75,-0.93,0.54,
1.805,0.06,-0.18,1.04,0.75,-0.93,0.54,
1.805,0.06,-0.18,1.04,0.71,-1.04,0.37,
1.816,0.06,-0.18,1.03,0.71,-1.04,0.37,
1.817,0.06,-0.18,1.01,0.71,-1.04,0.37,
1.817,0.06,-0.18,1.01,0.72,-1.14,0.11,
1.817,0.07,-0.19,1.01,0.72,-1.14,0.11,
1.818,0.08,-0.19,0.99,0.72,-1.14,0.11,
1.821,0.08,-0.19,0.99,0.80,-1.23,-0.14,
1.822,0.08,-0.19,0.98,0.80,-1.23,-0.14,
1.822,0.09,-0.19,0.97,0.80,-1.23,-0.14,
1.822,0.09,-0.19,0.97,0.84,-1.35,-0.38,
1.822,0.10,-0.19,0.95,0.84,-1.35,-0.38,
1.825,0.11,-0.18,0.94,0.84,-1.35,-0.38,
1.825,0.11,-0.18,0.94,0.96,-1.36,-0.64,
1.826,0.12,-0.17,0.92,0.96,-1.36,-0.64,
1.828,0.13,-0.16,0.91,0.96,-1.36,-0.64,
1.828,0.13,-0.16,0.91,1.09,-1.30,-0.88,
1.83,0.14,-0.15,0.89,1.09,-1.30,-0.88,
1.833,0.15,-0.15,0.87,1.09,-1.30,-0.88,
1.834,0.15,-0.15,0.87,1.23,-1.15,-1.21,
1.836,0.15,-0.14,0.86,1.23,-1.15,-1.21,
1.838,0.16,-0.14,0.85,1.23,-1.15,-1.21,
1.839,0.16,-0.14,0.85,1.39,-1.06,-1.51,
1.841,0.16,-0.13,0.83,1.39,-1.06,-1.51,
1.843,0.16,-0.12,0.81,1.39,-1.06,-1.51,
1.844,0.16,-0.12,0.81,1.48,-0.97,-1.82,
1.845,0.16,-0.12,0.80,1.48,-0.97,-1.82,
1.848,0.16,-0.11,0.79,1.48,-0.97,-1.82,
1.849,0.16,-0.11,0.79,1.48,-0.83,-2.10,
1.852,0.15,-0.10,0.78,1.48,-0.83,-2.10,
1.852,0.15,-0.09,0.78,1.48,-0.83,-2.10,
1.853,0.15,-0.09,0.78,1.47,-0.76,-2.40,
1.857,0.15,-0.08,0.79,1.47,-0.76,-2.40,
1.858,0.14,-0.06,0.80,1.47,-0.76,-2.40,
1.858,0.14,-0.06,0.80,1.40,-0.62,-2.53,
1.86,0.14,-0.05,0.82,1.40,-0.62,-2.53,
1.863,0.14,-0.05,0.82,1.31,-0.40,-2.37,
1.863,0.13,-0.04,0.84,1.31,-0.40,-2.37,
1.865,0.12,-0.03,0.86,1.31,-0.40,-2.37,
1.868,0.11,-0.02,0.87,1.31,-0.40,-2.37,
1.868,0.11,-0.02,0.87,1.20,-0.17,-2.05,
1.87,0.10,-0.02,0.90,1.20,-0.17,-2.05,
1.874,0.09,-0.01,0.91,1.20,-0.17,-2.05,
1.874,0.09,-0.01,0.91,1.05,-0.00,-1.66,
1.877,0.08,-0.01,0.94,1.05,-0.00,-1.66,
1.877,0.07,-0.01,0.95,1.05,-0.00,-1.66,
1.877,0.07,-0.01,0.95,0.86,0.11,-1.26,
1.88,0.07,-0.01,0.96,0.86,0.11,-1.26,
1.883,0.07,-0.01,0.96,0.68,0.15,-0.89,
1.883,0.06,-0.01,0.97,0.68,0.15,-0.89,
1.885,0.05,-0.01,0.98,0.68,0.15,-0.89,
1.888,0.05,-0.02,0.99,0.68,0.15,-0.89,
1.888,0.05,-0.02,0.99,0.49,0.12,-0.69,
1.895,0.04,-0.02,0.99,0.49,0.12,-0.69,
1.895,0.03,-0.03,0.99,0.49,0.12,-0.69,
1.896,0.03,-0.03,0.99,0.41,0.02,-0.50,
1.896,0.03,-0.04,0.98,0.41,0.02,-0.50,
1.898,0.02,-0.04,0.97,0.41,0.02,-0.50,
1.898,0.02,-0.04,0.97,0.25,-0.11,-0.45,
1.901,0.02,-0.05,0.96,0.25,-0.11,-0.45,
1.902,0.02,-0.06,0.95,0.25,-0.11,-0.45,
1.903,0.02,-0.06,0.95,0.15,-0.29,-0.56,
1.905,0.02,-0.07,0.94,0.15,-0.29,-0.56,
1.908,0.02,-0.07,0.92,0.15,-0.29,-0.56,
1.908,0.02,-0.07,0.92,0.07,-0.49,-0.76,
1.91,0.02,-0.08,0.91,0.07,-0.49,-0.76,
1.912,0.02,-0.09,0.89,0.07,-0.49,-0.76,
1.913,0.02,-0.09,0.89,0.03,-0.64,-1.04,
1.915,0.02,-0.09,0.89,0.03,-0.64,-1.04,
1.918,0.03,-0.09,0.88,0.03,-0.64,-1.04,
1.918,0.03,-0.09,0.88,0.01,-0.83,-1.29,
1.92,0.03,-0.09,0.87,0.01,-0.83,-1.29,
1.924,0.03,-0.10,0.86,0.01,-0.83,-1.29,
1.925,0.03,-0.10,0.86,0.05,-0.89,-1.46,
1.925,0.03,-0.10,0.85,0.05,-0.89,-1.46,
1.928,0.03,-0.10,0.84,0.05,-0.89,-1.46,
1.928,0.03,-0.10,0.84,0.08,-1.01,-1.66,
1.929,0.04,-0.09,0.83,0.08,-1.01,-1.66,
1.932,0.04,-0.08,0.82,0.08,-1.01,-1.66,
1.932,0.04,-0.08,0.82,0.05,-1.04,-1.84,
1.935,0.05,-0.08,0.81,0.05,-1.04,-1.84,
1.938,0.06,-0.07,0.80,0.05,-1.04,-1.84,
1.938,0.06,-0.07,0.80,0.15,-0.95,-2.04,
1.939,0.06,-0.07,0.79,0.15,-0.95,-2.04,
1.942,0.06,-0.06,0.78,0.15,-0.95,-2.04,
1.942,0.06,-0.06,0.78,0.25,-0.87,-2.22,
1.946,0.07,-0.05,0.77,0.25,-0.87,-2.22,
1.947,0.07,-0.04,0.76,0.25,-0.87,-2.22,
1.948,0.07,-0.04,0.76,0.30,-0.78,-2.38,
1.951,0.07,-0.04,0.76,0.30,-0.78,-2.38,
1.952,0.07,-0.04,0.76,0.37,-0.63,-2.56,
1.952,0.08,-0.03,0.76,0.37,-0.63,-2.56,
1.955,0.08,-0.03,0.75,0.37,-0.63,-2.56,
1.958,0.08,-0.02,0.75,0.37,-0.63,-2.56,
1.959,0.08,-0.02,0.75,0.41,-0.54,-2.64,
1.96,0.08,-0.01,0.76,0.41,-0.54,-2.64,
1.962,0.08,-0.01,0.76,0.41,-0.54,-2.64,
1.963,0.08,-0.01,0.76,0.40,-0.46,-2.70,
1.965,0.07,-0.00,0.76,0.40,-0.46,-2.70,
1.967,0.07,-0.00,0.77,0.40,-0.46,-2.70,
1.967,0.07,-0.00,0.77,0.39,-0.36,-2.65,
1.97,0.07,0.00,0.78,0.39,-0.36,-2.65,
1.973,0.07,0.01,0.78,0.39,-0.36,-2.65,
1.973,0.07,0.01,0.78,0.32,-0.31,-2.59,
1.976,0.07,0.01,0.79,0.32,-0.31,-2.59,
1.977,0.07,0.01,0.80,0.32,-0.31,-2.59,
1.977,0.07,0.01,0.80,0.29,-0.22,-2.44,
1.981,0.07,0.02,0.81,0.29,-0.22,-2.44,
1.983,0.07,0.02,0.82,0.29,-0.22,-2.44,
1.984,0.07,0.02,0.82,0.23,-0.19,-2.24,
1.984,0.07,0.03,0.83,0.23,-0.19,-2.24,
1.987,0.07,0.03,0.85,0.23,-0.19,-2.24,
1.987,0.07,0.03,0.85,0.26,-0.10,-2.04,
1.989,0.07,0.03,0.86,0.26,-0.10,-2.04,
1.992,0.07,0.02,0.86,0.26,-0.10,-2.04,
1.993,0.07,0.02,0.86,0.21,-0.03,-1.83,
1.994,0.07,0.02,0.87,0.21,-0.03,-1.83,
1.996,0.07,0.02,0.88,0.21,-0.03,-1.83,
1.996,0.07,0.02,0.88,0.18,-0.07,-1.61,
1.998,0.07,0.02,0.89,0.18,-0.07,-1.61,
2.001,0.07,0.02,0.89,0.18,-0.07,-1.61,
2.001,0.07,0.02,0.89,0.16,-0.09,-1.45,
2.003,0.07,0.02,0.90,0.16,-0.09,-1.45,
2.012,0.07,0.02,0.91,0.16,-0.09,-1.45,
2.013,0.07,0.02,0.91,0.18,-0.14,-1.30,
2.013,0.07,0.01,0.92,0.18,-0.14,-1.30,
2.013,0.07,0.01,0.92,0.18,-0.14,-1.30,
2.014,0.07,0.01,0.92,0.15,-0.16,-1.18,
2.014,0.07,0.01,0.92,0.15,-0.16,-1.18,
2.016,0.07,0.01,0.93,0.15,-0.16,-1.18,
2.016,0.07,0.01,0.93,0.14,-0.23,-1.04,
2.018,0.08,0.00,0.93,0.14,-0.23,-1.04,
2.02,0.08,0.00,0.93,0.14,-0.23,-1.04,
2.021,0.08,0.00,0.93,0.15,-0.25,-0.98,
2.024,0.08,-0.00,0.93,0.15,-0.25,-0.98,
2.026,0.08,-0.00,0.92,0.15,-0.25,-0.98,
2.026,0.08,-0.00,0.92,0.21,-0.29,-0.95,
2.028,0.08,-0.00,0.92,0.21,-0.29,-0.95,
2.03,0.08,0.00,0.92,0.21,-0.29,-0.95,
2.031,0.08,0.00,0.92,0.21,-0.33,-0.96,
2.033,0.08,0.00,0.91,0.21,-0.33,-0.96,
2.036,0.09,0.00,0.90,0.21,-0.33,-0.96,
2.036,0.09,0.00,0.90,0.22,-0.31,-1.03,
2.038,0.09,0.00,0.89,0.22,-0.31,-1.03,
2.042,0.09,0.01,0.88,0.22,-0.31,-1.03,
2.043,0.09,0.01,0.88,0.27,-0.30,-1.13,
2.043,0.10,0.01,0.87,0.27,-0.30,-1.13,
2.045,0.10,0.01,0.86,0.27,-0.30,-1.13,
2.046,0.10,0.01,0.86,0.31,-0.30,-1.32,
2.048,0.09,0.01,0.85,0.31,-0.30,-1.32,
2.05,0.09,0.01,0.83,0.31,-0.30,-1.32,
2.05,0.09,0.01,0.83,0.35,-0.29,-1.53,
2.053,0.09,0.01,0.83,0.35,-0.29,-1.53,
2.055,0.09,0.01,0.82,0.35,-0.29,-1.53,
2.055,0.09,0.01,0.82,0.30,-0.25,-1.77,
2.058,0.08,0.02,0.80,0.30,-0.25,-1.77,
2.06,0.08,0.02,0.80,0.30,-0.25,-1.77,
2.06,0.08,0.02,0.80,0.26,-0.25,-1.94,
2.063,0.08,0.02,0.80,0.26,-0.25,-1.94,
2.065,0.08,0.02,0.79,0.26,-0.25,-1.94,
2.066,0.08,0.02,0.79,0.22,-0.23,-2.13,
2.068,0.07,0.03,0.79,0.22,-0.23,-2.13,
2.07,0.06,0.04,0.79,0.22,-0.23,-2.13,
2.07,0.06,0.04,0.79,0.16,-0.21,-2.23,
2.075,0.06,0.04,0.80,0.16,-0.21,-2.23,
2.076,0.06,0.05,0.81,0.16,-0.21,-2.23,
2.077,0.06,0.05,0.81,0.07,-0.08,-2.23,
2.078,0.05,0.05,0.82,0.07,-0.08,-2.23,
2.08,0.04,0.05,0.83,0.07,-0.08,-2.23,
2.08,0.04,0.05,0.83,-0.01,0.02,-2.10,
2.082,0.03,0.06,0.84,-0.01,0.02,-2.10,
2.085,0.02,0.06,0.86,-0.01,0.02,-2.10,
2.085,0.02,0.06,0.86,-0.14,0.10,-1.92,
2.087,0.02,0.06,0.87,-0.14,0.10,-1.92,
2.091,0.01,0.06,0.88,-0.14,0.10,-1.92,
2.092,0.01,0.06,0.88,-0.32,0.17,-1.66,
2.092,-0.00,0.06,0.90,-0.32,0.17,-1.66,
2.096,-0.01,0.05,0.91,-0.32,0.17,-1.66,
2.096,-0.01,0.05,0.91,-0.42,0.18,-1.39,
2.098,-0.02,0.05,0.92,-0.42,0.18,-1.39,
2.1,-0.03,0.04,0.94,-0.42,0.18,-1.39,
2.1,-0.03,0.04,0.94,-0.60,0.17,-1.10,
2.102,-0.05,0.04,0.95,-0.60,0.17,-1.10,
2.105,-0.06,0.04,0.96,-0.60,0.17,-1.10,
2.105,-0.06,0.04,0.96,-0.79,0.11,-0.87,
2.107,-0.07,0.04,0.97,-0.79,0.11,-0.87,
2.11,-0.07,0.03,0.98,-0.79,0.11,-0.87,
2.11,-0.07,0.03,0.98,-1.02,0.08,-0.64,
2.112,-0.08,0.03,0.98,-1.02,0.08,-0.64,
2.115,-0.08,0.03,0.98,-1.16,0.01,-0.42,
2.115,-0.08,0.03,0.99,-1.16,0.01,-0.42,
2.117,-0.08,0.03,0.99,-1.16,0.01,-0.42,
2.119,-0.08,0.03,1.00,-1.16,0.01,-0.42,
2.12,-0.08,0.03,1.00,-1.26,-0.02,-0.30,
2.122,-0.09,0.03,1.00,-1.26,-0.02,-0.30,
2.131,-0.09,0.02,1.00,-1.26,-0.02,-0.30,
2.132,-0.09,0.02,1.00,-1.29,-0.02,-0.20,
2.132,-0.08,0.02,1.00,-1.29,-0.02,-0.20,
2.132,-0.08,0.02,1.00,-1.29,-0.02,-0.20,
2.133,-0.08,0.02,1.00,-1.35,-0.05,-0.18,
2.133,-0.08,0.02,1.00,-1.35,-0.05,-0.18,
2.134,-0.08,0.01,0.99,-1.35,-0.05,-0.18,
2.135,-0.08,0.01,0.99,-1.31,-0.09,-0.16,
2.137,-0.08,0.01,0.99,-1.31,-0.09,-0.16,
2.143,-0.07,0.00,0.97,-1.31,-0.09,-0.16,
2.144,-0.07,0.00,0.97,-1.28,-0.13,-0.25,
2.145,-0.07,0.01,0.97,-1.28,-0.13,-0.25,
2.148,-0.06,0.00,0.96,-1.28,-0.13,-0.25,
2.149,-0.06,0.00,0.96,-1.24,-0.19,-0.36,
2.149,-0.07,0.00,0.95,-1.24,-0.19,-0.36,
2.15,-0.06,-0.00,0.95,-1.24,-0.19,-0.36,
2.151,-0.06,-0.00,0.95,-1.17,-0.23,-0.52,
2.152,-0.05,-0.00,0.94,-1.17,-0.23,-0.52,
2.154,-0.05,-0.00,0.93,-1.17,-0.23,-0.52,
2.155,-0.05,-0.00,0.93,-1.15,-0.26,-0.68,
2.158,-0.05,-0.00,0.93,-1.15,-0.26,-0.68,
2.159,-0.04,0.00,0.92,-1.15,-0.26,-0.68,
2.161,-0.04,0.00,0.92,-1.02,-0.27,-0.82,
2.162,-0.04,0.00,0.91,-1.02,-0.27,-0.82,
2.165,-0.03,-0.00,0.91,-1.02,-0.27,-0.82,
2.165,-0.03,-0.00,0.91,-0.99,-0.26,-0.92,
2.167,-0.03,-0.00,0.91,-0.99,-0.26,-0.92,
2.172,-0.03,0.00,0.90,-0.99,-0.26,-0.92,
2.172,-0.03,0.00,0.90,-0.92,-0.26,-1.02,
2.172,-0.03,-0.00,0.90,-0.92,-0.26,-1.02,
2.175,-0.02,-0.00,0.90,-0.92,-0.26,-1.02,
2.176,-0.02,-0.00,0.90,-0.90,-0.26,-1.11,
2.179,-0.02,0.00,0.90,-0.90,-0.26,-1.11,
2.179,-0.03,-0.01,0.89,-0.90,-0.26,-1.11,
2.179,-0.03,-0.01,0.89,-0.84,-0.29,-1.12,
2.182,-0.02,-0.01,0.89,-0.84,-0.29,-1.12,
2.185,-0.02,-0.01,0.89,-0.84,-0.29,-1.12,
2.185,-0.02,-0.01,0.89,-0.81,-0.29,-1.17,
2.187,-0.02,-0.01,0.89,-0.81,-0.29,-1.17,
2.189,-0.02,-0.01,0.88,-0.81,-0.29,-1.17,
2.189,-0.02,-0.01,0.88,-0.77,-0.32,-1.26,
2.192,-0.02,-0.02,0.88,-0.77,-0.32,-1.26,
2.194,-0.01,-0.02,0.88,-0.77,-0.32,-1.26,
2.194,-0.01,-0.02,0.88,-0.73,-0.35,-1.29,
2.197,-0.02,-0.02,0.88,-0.73,-0.35,-1.29,
2.2,-0.01,-0.02,0.88,-0.73,-0.35,-1.29,
2.2,-0.01,-0.02,0.88,-0.70,-0.45,-1.34,
2.202,-0.00,-0.02,0.88,-0.70,-0.45,-1.34,
2.205,0.00,-0.02,0.88,-0.70,-0.45,-1.34,
2.205,0.00,-0.02,0.88,-0.67,-0.46,-1.33,
2.207,0.01,-0.01,0.88,-0.67,-0.46,-1.33,
2.213,0.01,-0.01,0.88,-0.67,-0.46,-1.33,
2.214,0.01,-0.01,0.88,-0.53,-0.45,-1.34,
2.214,0.02,-0.00,0.88,-0.53,-0.45,-1.34,
2.214,0.02,-0.00,0.87,-0.53,-0.45,-1.34,
2.215,0.02,-0.00,0.87,-0.39,-0.36,-1.34,
2.217,0.02,-0.00,0.88,-0.39,-0.36,-1.34,
2.219,0.02,-0.01,0.87,-0.39,-0.36,-1.34,
2.219,0.02,-0.01,0.87,-0.33,-0.30,-1.38,
2.222,0.01,-0.00,0.88,-0.33,-0.30,-1.38,
2.225,0.01,-0.01,0.88,-0.33,-0.30,-1.38,
2.226,0.01,-0.01,0.88,-0.31,-0.31,-1.36,
2.226,-0.00,-0.01,0.88,-0.31,-0.31,-1.36,
2.229,-0.01,-0.01,0.89,-0.31,-0.31,-1.36,
2.229,-0.01,-0.01,0.89,-0.36,-0.33,-1.32,
2.232,-0.02,-0.01,0.89,-0.36,-0.33,-1.32,
2.235,-0.03,-0.01,0.91,-0.36,-0.33,-1.32,
2.235,-0.03,-0.01,0.91,-0.48,-0.39,-1.24,
2.237,-0.04,-0.00,0.91,-0.48,-0.39,-1.24,
2.239,-0.05,-0.01,0.92,-0.48,-0.39,-1.24,
2.241,-0.05,-0.01,0.92,-0.69,-0.39,-1.12,
2.242,-0.06,-0.00,0.93,-0.69,-0.39,-1.12,
2.245,-0.07,-0.00,0.93,-0.69,-0.39,-1.12,
2.245,-0.07,-0.00,0.93,-0.82,-0.30,-0.94,
2.247,-0.08,0.00,0.94,-0.82,-0.30,-0.94,
2.249,-0.08,0.00,0.94,-1.00,-0.28,-0.80,
2.249,-0.08,0.01,0.95,-1.00,-0.28,-0.80,
2.252,-0.09,0.01,0.96,-1.00,-0.28,-0.80,
2.254,-0.09,0.01,0.95,-1.00,-0.28,-0.80,
2.255,-0.09,0.01,0.95,-1.08,-0.20,-0.67,
2.257,-0.10,0.00,0.96,-1.08,-0.20,-0.67,
2.259,-0.10,0.00,0.96,-1.08,-0.20,-0.67,
2.26,-0.10,0.00,0.96,-1.18,-0.17,-0.56,
2.262,-0.10,0.00,0.96,-1.18,-0.17,-0.56,
2.264,-0.11,-0.00,0.96,-1.18,-0.17,-0.56,
2.264,-0.11,-0.00,0.96,-1.26,-0.20,-0.54,
2.267,-0.11,0.00,0.96,-1.26,-0.20,-0.54,
2.269,-0.11,0.00,0.96,-1.28,-0.22,-0.52,
2.27,-0.10,-0.01,0.96,-1.28,-0.22,-0.52,
2.272,-0.10,-0.01,0.96,-1.28,-0.22,-0.52,
2.274,-0.10,-0.01,0.95,-1.28,-0.22,-0.52,
2.275,-0.10,-0.01,0.95,-1.28,-0.25,-0.53,
2.278,-0.09,-0.01,0.95,-1.28,-0.25,-0.53,
2.279,-0.09,-0.01,0.95,-1.28,-0.25,-0.53,
2.279,-0.09,-0.01,0.95,-1.21,-0.30,-0.58,
2.281,-0.08,-0.01,0.95,-1.21,-0.30,-0.58,
2.284,-0.08,-0.01,0.95,-1.21,-0.30,-0.58,
2.284,-0.08,-0.01,0.95,-1.14,-0.29,-0.64,
2.286,-0.08,-0.01,0.95,-1.14,-0.29,-0.64,
2.289,-0.07,-0.00,0.95,-1.14,-0.29,-0.64,
2.289,-0.07,-0.00,0.95,-1.06,-0.30,-0.66,
2.291,-0.07,-0.00,0.94,-1.06,-0.30,-0.66,
2.294,-0.07,0.00,0.94,-1.06,-0.30,-0.66,
2.294,-0.07,0.00,0.94,-0.98,-0.24,-0.65,
2.296,-0.07,0.01,0.95,-0.98,-0.24,-0.65,
2.299,-0.07,0.01,0.94,-0.98,-0.24,-0.65,
2.299,-0.07,0.01,0.94,-0.91,-0.19,-0.68,
2.301,-0.07,0.02,0.95,-0.91,-0.19,-0.68,
2.304,-0.08,0.03,0.95,-0.91,-0.19,-0.68,
2.304,-0.08,0.03,0.95,-0.91,-0.07,-0.70,
2.306,-0.08,0.03,0.95,-0.91,-0.07,-0.70,
2.308,-0.09,0.03,0.96,-0.91,-0.07,-0.70,
2.312,-0.09,0.03,0.96,-0.98,0.05,-0.63,
2.312,-0.10,0.03,0.96,-0.98,0.05,-0.63,
2.314,-0.11,0.03,0.97,-0.98,0.05,-0.63,
2.314,-0.11,0.03,0.97,-1.10,0.12,-0.54,
2.317,-0.12,0.04,0.98,-1.10,0.12,-0.54,
2.319,-0.12,0.03,0.99,-1.10,0.12,-0.54,
2.319,-0.12,0.03,0.99,-1.28,0.18,-0.43,
2.321,-0.14,0.03,0.99,-1.28,0.18,-0.43,
2.324,-0.14,0.03,1.00,-1.28,0.18,-0.43,
2.324,-0.14,0.03,1.00,-1.44,0.20,-0.28,
2.331,-0.15,0.04,1.00,-1.44,0.20,-0.28,
2.332,-0.15,0.04,1.01,-1.44,0.20,-0.28,
2.332,-0.15,0.04,1.01,-1.60,0.19,-0.15,
2.332,-0.15,0.03,1.01,-1.60,0.19,-0.15,
2.333,-0.16,0.03,1.01,-1.60,0.19,-0.15,
2.334,-0.16,0.03,1.01,-1.72,0.23,-0.09,
2.335,-0.16,0.03,1.02,-1.72,0.23,-0.09,
2.338,-0.16,0.03,1.02,-1.72,0.23,-0.09,
2.338,-0.16,0.03,1.02,-1.76,0.18,0.01,
2.342,-0.16,0.03,1.04,-1.76,0.18,0.01,
2.343,-0.15,0.03,1.04,-1.76,0.18,0.01,
2.343,-0.15,0.03,1.04,-1.80,0.18,0.08,
2.346,-0.17,0.03,1.04,-1.80,0.18,0.08,
2.348,-0.27,0.02,1.06,-1.80,0.18,0.08,
2.348,-0.27,0.02,1.06,-1.73,0.19,0.24,
2.351,-0.34,0.01,1.08,-1.73,0.19,0.24,
2.353,-0.36,0.03,1.09,-1.73,0.19,0.24,
2.353,-0.36,0.03,1.09,-2.34,0.17,0.38,
2.356,-0.31,0.07,1.08,-2.34,0.17,0.38,
2.358,-0.24,0.09,1.07,-2.34,0.17,0.38,
2.358,-0.24,0.09,1.07,-3.61,0.16,0.71,
2.361,-0.22,0.12,1.06,-3.61,0.16,0.71,
2.363,-0.20,0.12,1.07,-3.61,0.16,0.71,
2.363,-0.20,0.12,1.07,-2.89,0.70,0.62,
2.365,-0.20,0.12,1.08,-2.89,0.70,0.62,
2.368,-0.20,0.12,1.08,-2.89,0.70,0.62,
2.368,-0.20,0.12,1.08,-2.24,1.09,0.51,
2.371,-0.21,0.12,1.08,-2.24,1.09,0.51,
2.374,-0.21,0.12,1.08,-2.16,1.13,0.63,
2.374,-0.22,0.12,1.09,-2.16,1.13,0.63,
2.377,-0.22,0.11,1.08,-2.16,1.13,0.63,
2.377,-0.22,0.10,1.07,-2.16,1.13,0.63,
2.377,-0.22,0.10,1.07,-2.27,1.09,0.71,
2.381,-0.25,0.08,1.09,-2.27,1.09,0.71,
2.383,-0.27,0.07,1.10,-2.27,1.09,0.71,
2.383,-0.27,0.07,1.10,-2.33,0.92,0.62,
2.386,-0.26,0.07,1.10,-2.33,0.92,0.62,
2.388,-0.24,0.07,1.10,-2.33,0.92,0.62,
2.388,-0.24,0.07,1.10,-2.74,0.62,0.77,
2.39,-0.22,0.08,1.10,-2.74,0.62,0.77,
2.394,-0.20,0.09,1.11,-2.74,0.62,0.77,
2.394,-0.20,0.09,1.11,-2.62,0.60,0.88,
2.395,-0.17,0.09,1.12,-2.62,0.60,0.88,
2.397,-0.15,0.08,1.13,-2.62,0.60,0.88,
2.398,-0.15,0.08,1.13,-2.19,0.73,0.89,
2.4,-0.12,0.07,1.15,-2.19,0.73,0.89,
2.403,-0.09,0.05,1.16,-2.19,0.73,0.89,
2.403,-0.09,0.05,1.16,-1.72,0.70,1.08,
2.405,-0.07,0.04,1.17,-1.72,0.70,1.08,
2.408,-0.04,0.03,1.18,-1.72,0.70,1.08,
2.408,-0.04,0.03,1.18,-1.19,0.50,1.36,
2.411,-0.02,0.02,1.19,-1.19,0.50,1.36,
2.412,-0.00,0.01,1.19,-1.19,0.50,1.36,
2.413,-0.00,0.01,1.19,-0.72,0.25,1.58,
2.416,0.02,-0.00,1.18,-0.72,0.25,1.58,
2.418,0.04,-0.01,1.17,-0.72,0.25,1.58,
2.418,0.04,-0.01,1.17,-0.30,0.03,1.72,
2.42,0.05,-0.02,1.16,-0.30,0.03,1.72,
2.423,0.07,-0.03,1.14,-0.30,0.03,1.72,
2.423,0.07,-0.03,1.14,0.09,-0.21,1.61,
2.428,0.08,-0.03,1.13,0.09,-0.21,1.61,
2.428,0.08,-0.04,1.11,0.09,-0.21,1.61,
2.428,0.08,-0.04,1.11,0.40,-0.38,1.34,
2.43,0.09,-0.04,1.09,0.40,-0.38,1.34,
2.434,0.09,-0.05,1.06,0.40,-0.38,1.34,
2.434,0.09,-0.05,1.06,0.58,-0.49,1.00,
2.434,0.09,-0.05,1.05,0.58,-0.49,1.00,
2.437,0.09,-0.05,1.03,0.58,-0.49,1.00,
2.438,0.09,-0.05,1.03,0.67,-0.60,0.61,
2.44,0.09,-0.05,1.02,0.67,-0.60,0.61,
2.442,0.09,-0.05,1.01,0.67,-0.60,0.61,
2.45,0.09,-0.05,1.01,0.71,-0.68,0.24,
2.451,0.09,-0.04,1.00,0.71,-0.68,0.24,
2.451,0.09,-0.04,0.99,0.71,-0.68,0.24,
2.451,0.09,-0.04,0.99,0.72,-0.65,-0.01,
2.452,0.09,-0.03,0.99,0.72,-0.65,-0.01,
2.452,0.09,-0.04,0.99,0.72,-0.65,-0.01,
2.452,0.09,-0.04,0.99,0.73,-0.59,-0.18,
2.455,0.08,-0.03,1.00,0.73,-0.59,-0.18,
2.457,0.08,-0.03,1.00,0.73,-0.59,-0.18,
2.458,0.08,-0.03,1.00,0.68,-0.54,-0.24,
2.463,0.07,-0.02,0.99,0.68,-0.54,-0.24,
2.464,0.06,-0.02,0.99,0.68,-0.54,-0.24,
2.465,0.06,-0.02,0.99,0.59,-0.47,-0.15,
2.465,0.06,-0.01,1.00,0.59,-0.47,-0.15,
2.466,0.05,-0.01,1.00,0.59,-0.47,-0.15,
2.467,0.05,-0.01,1.00,0.48,-0.37,-0.21,
2.469,0.04,-0.00,1.00,0.48,-0.37,-0.21,
2.472,0.04,0.00,1.00,0.48,-0.37,-0.21,
2.472,0.04,0.00,1.00,0.33,-0.29,-0.14,
2.474,0.04,0.01,1.00,0.33,-0.29,-0.14,
2.477,0.04,0.01,1.00,0.22,-0.21,-0.16,
2.477,0.03,0.01,1.00,0.22,-0.21,-0.16,
2.479,0.03,0.01,1.00,0.22,-0.21,-0.16,
2.482,0.02,0.02,1.00,0.22,-0.21,-0.16,
2.482,0.02,0.02,1.00,0.15,-0.11,-0.13,
2.485,0.02,0.02,1.00,0.15,-0.11,-0.13,
2.486,0.02,0.02,1.00,0.15,-0.11,-0.13,
2.487,0.02,0.02,1.00,0.07,-0.06,-0.19,
2.489,0.02,0.02,1.00,0.07,-0.06,-0.19,
2.492,0.02,0.03,1.00,0.07,-0.06,-0.19,
2.492,0.02,0.03,1.00,0.01,-0.01,-0.19,
2.494,0.01,0.03,1.00,0.01,-0.01,-0.19,
2.496,0.01,0.03,1.00,0.01,-0.01,-0.19,
2.496,0.01,0.03,1.00,-0.00,0.06,-0.15,
2.5,0.00,0.02,1.01,-0.00,0.06,-0.15,
2.501,-0.00,0.03,1.01,-0.00,0.06,-0.15,
2.502,-0.00,0.03,1.01,-0.12,0.08,-0.13,
2.504,-0.02,0.02,1.01,-0.12,0.08,-0.13,
2.506,-0.02,0.02,1.02,-0.12,0.08,-0.13,
2.507,-0.02,0.02,1.02,-0.22,0.04,-0.07,
2.508,-0.03,0.02,1.01,-0.22,0.04,-0.07,
2.511,-0.04,0.02,1.01,-0.22,0.04,-0.07,
2.512,-0.04,0.02,1.01,-0.40,0.02,-0.00,
2.513,-0.04,0.02,1.02,-0.40,0.02,-0.00,
2.517,-0.04,0.02,1.02,-0.58,-0.03,-0.05,
2.517,-0.05,0.02,1.01,-0.58,-0.03,-0.05,
2.519,-0.05,0.02,1.01,-0.58,-0.03,-0.05,
2.522,-0.05,0.02,1.01,-0.58,-0.03,-0.05,
2.522,-0.05,0.02,1.01,-0.68,-0.02,-0.02,
2.524,-0.05,0.02,1.01,-0.68,-0.02,-0.02,
2.526,-0.05,0.02,1.01,-0.68,-0.02,-0.02,
2.527,-0.05,0.02,1.01,-0.73,-0.05,-0.04,
2.529,-0.05,0.02,1.00,-0.73,-0.05,-0.04,
2.531,-0.04,0.02,1.00,-0.73,-0.05,-0.04,
2.531,-0.04,0.02,1.00,-0.68,-0.03,-0.08,
2.534,-0.04,0.02,1.00,-0.68,-0.03,-0.08,
2.536,-0.04,0.02,0.99,-0.68,-0.03,-0.08,
2.537,-0.04,0.02,0.99,-0.65,-0.05,-0.15,
2.539,-0.03,0.02,0.98,-0.65,-0.05,-0.15,
2.541,-0.03,0.02,0.99,-0.65,-0.05,-0.15,
2.541,-0.03,0.02,0.99,-0.55,-0.02,-0.19,
2.548,-0.02,0.02,0.98,-0.55,-0.02,-0.19,
2.549,-0.02,0.01,0.98,-0.55,-0.02,-0.19,
2.549,-0.02,0.01,0.98,-0.46,-0.02,-0.30,
2.549,-0.02,0.01,0.97,-0.46,-0.02,-0.30,
2.551,-0.01,0.00,0.97,-0.46,-0.02,-0.30,
2.551,-0.01,0.00,0.97,-0.36,-0.11,-0.34,
2.553,-0.01,0.00,0.97,-0.36,-0.11,-0.34,
2.556,-0.01,0.00,0.97,-0.36,-0.11,-0.34,
2.556,-0.01,0.00,0.97,-0.29,-0.16,-0.42,
2.559,-0.01,-0.00,0.97,-0.29,-0.16,-0.42,
2.561,-0.00,-0.00,0.97,-0.29,-0.16,-0.42,
2.562,-0.00,-0.00,0.97,-0.25,-0.25,-0.42,
2.564,-0.00,-0.00,0.97,-0.25,-0.25,-0.42,
2.566,-0.00,-0.00,0.97,-0.25,-0.25,-0.42,
2.566,-0.00,-0.00,0.97,-0.19,-0.28,-0.43,
2.568,-0.00,-0.00,0.96,-0.19,-0.28,-0.43,
2.571,-0.00,0.00,0.96,-0.19,-0.28,-0.43,
2.571,-0.00,0.00,0.96,-0.12,-0.30,-0.47,
2.574,-0.00,-0.00,0.96,-0.12,-0.30,-0.47,
2.578,-0.00,0.00,0.95,-0.12,-0.30,-0.47,
2.579,-0.00,0.00,0.95,-0.12,-0.29,-0.56,
2.579,-0.01,0.01,0.95,-0.12,-0.29,-0.56,
2.581,-0.01,0.01,0.96,-0.12,-0.29,-0.56,
2.583,-0.01,0.01,0.96,-0.11,-0.28,-0.59,
2.583,-0.02,0.01,0.95,-0.11,-0.28,-0.59,
2.586,-0.02,0.01,0.95,-0.21,-0.24,-0.58,
2.586,-0.02,0.01,0.95,-0.21,-0.24,-0.58,
2.588,-0.03,0.01,0.96,-0.21,-0.24,-0.58,
2.591,-0.04,0.01,0.96,-0.21,-0.24,-0.58,
2.591,-0.04,0.01,0.96,-0.30,-0.23,-0.60,
2.594,-0.04,0.01,0.96,-0.30,-0.23,-0.60,
2.596,-0.04,0.01,0.96,-0.41,-0.26,-0.55,
2.596,-0.03,0.01,0.97,-0.41,-0.26,-0.55,
2.597,-0.04,0.01,0.97,-0.41,-0.26,-0.55,
2.6,-0.04,0.01,0.98,-0.41,-0.26,-0.55,
2.601,-0.04,0.01,0.98,-0.43,-0.27,-0.48,
2.603,-0.04,0.01,0.98,-0.43,-0.27,-0.48,
2.606,-0.04,0.01,0.99,-0.43,-0.27,-0.48,
2.606,-0.04,0.01,0.99,-0.47,-0.26,-0.38,
2.608,-0.03,0.01,0.99,-0.47,-0.26,-0.38,
2.611,-0.02,0.01,0.99,-0.47,-0.26,-0.38,
2.612,-0.02,0.01,0.99,-0.46,-0.24,-0.27,
2.613,-0.03,0.01,0.99,-0.46,-0.24,-0.27,
2.616,-0.02,0.01,0.99,-0.46,-0.24,-0.27,
2.616,-0.02,0.01,0.99,-0.40,-0.22,-0.24,
2.618,-0.01,0.02,0.99,-0.40,-0.22,-0.24,
2.621,-0.01,0.02,1.00,-0.40,-0.22,-0.24,
2.622,-0.01,0.02,1.00,-0.35,-0.22,-0.21,
2.623,-0.01,0.02,1.00,-0.35,-0.22,-0.21,
2.626,0.00,0.02,1.01,-0.35,-0.22,-0.21,
2.626,0.00,0.02,1.01,-0.23,-0.15,-0.16,
2.629,0.01,0.02,1.01,-0.23,-0.15,-0.16,
2.63,0.01,0.02,1.01,-0.23,-0.15,-0.16,
2.63,0.01,0.02,1.01,-0.15,-0.16,-0.08,
2.632,0.02,0.02,1.01,-0.15,-0.16,-0.08,
2.636,0.02,0.02,1.01,-0.15,-0.16,-0.08,
2.636,0.02,0.02,1.01,-0.05,-0.15,-0.04,
2.638,0.02,0.02,1.02,-0.05,-0.15,-0.04,
2.642,0.01,0.02,1.02,-0.05,-0.15,-0.04,
2.642,0.01,0.02,1.02,0.03,-0.13,-0.02,
2.643,0.02,0.02,1.02,0.03,-0.13,-0.02,
2.646,0.02,0.03,1.02,0.03,-0.13,-0.02,
2.647,0.02,0.03,1.02,0.01,-0.12,0.07,
2.647,0.02,0.03,1.02,0.01,-0.12,0.07,
2.65,0.01,0.03,1.02,0.01,-0.12,0.07,
2.65,0.01,0.03,1.02,0.04,-0.10,0.06,
2.653,0.01,0.04,1.02,0.04,-0.10,0.06,
2.655,0.01,0.04,1.01,0.04,-0.10,0.06,
2.656,0.01,0.04,1.01,-0.02,-0.03,0.06,
2.658,0.01,0.04,1.01,-0.02,-0.03,0.06,
2.665,-0.00,0.04,1.01,-0.02,-0.03,0.06,
2.666,-0.00,0.04,1.01,-0.05,0.02,0.01,
2.666,-0.00,0.05,1.01,-0.05,0.02,0.01,
2.667,-0.00,0.05,1.01,-0.11,0.04,-0.03,
2.667,0.00,0.05,1.00,-0.11,0.04,-0.03,
2.667,0.00,0.05,0.99,-0.11,0.04,-0.03,
2.669,-0.00,0.05,0.99,-0.11,0.04,-0.03,
2.669,-0.00,0.05,0.99,-0.12,0.11,-0.13,
2.672,-0.00,0.05,0.99,-0.12,0.11,-0.13,
2.674,-0.00,0.05,0.98,-0.12,0.11,-0.13,
2.674,-0.00,0.05,0.98,-0.10,0.13,-0.20,
2.679,-0.00,0.05,0.98,-0.10,0.13,-0.20,
2.68,0.00,0.05,0.95,-0.10,0.13,-0.20,
2.68,0.00,0.05,0.95,-0.11,0.13,-0.25,
2.682,0.01,0.04,0.86,-0.11,0.13,-0.25,
2.684,-0.01,0.06,0.79,-0.11,0.13,-0.25,
2.684,-0.01,0.06,0.79,-0.07,0.11,-0.44,
2.686,-0.03,0.09,0.76,-0.07,0.11,-0.44,
2.689,-0.05,0.09,0.79,-0.07,0.11,-0.44,
2.689,-0.05,0.09,0.79,-0.10,0.14,-1.81,
2.692,-0.06,0.09,0.86,-0.10,0.14,-1.81,
2.695,-0.08,0.09,0.92,-0.10,0.14,-1.81,
2.696,-0.08,0.09,0.92,-0.40,0.53,-2.33,
2.696,-0.09,0.08,0.96,-0.40,0.53,-2.33,
2.699,-0.11,0.06,1.00,-0.40,0.53,-2.33,
2.699,-0.11,0.06,1.00,-0.67,0.54,-1.23,
2.703,-0.11,0.06,1.04,-0.67,0.54,-1.23,
2.704,-0.11,0.05,1.07,-0.67,0.54,-1.23,
2.704,-0.11,0.05,1.07,-0.94,0.38,-0.31,
2.708,-0.11,0.03,1.09,-0.94,0.38,-0.31,
2.711,-0.10,0.02,1.10,-0.94,0.38,-0.31,
2.711,-0.10,0.02,1.10,-1.05,0.20,0.37,
2.712,-0.08,0.01,1.11,-1.05,0.20,0.37,
2.717,-0.07,-0.00,1.13,-1.05,0.20,0.37,
2.717,-0.07,-0.00,1.13,-0.94,-0.03,0.81,
2.718,-0.06,-0.01,1.13,-0.94,-0.03,0.81,
2.719,-0.06,-0.02,1.14,-0.94,-0.03,0.81,
2.719,-0.06,-0.02,1.14,-0.71,-0.26,1.04,
2.721,-0.05,-0.02,1.14,-0.71,-0.26,1.04,
2.724,-0.05,-0.03,1.15,-0.71,-0.26,1.04,
2.724,-0.05,-0.03,1.15,-0.53,-0.48,1.19,
2.732,-0.06,-0.03,1.13,-0.53,-0.48,1.19,
2.733,-0.06,-0.02,1.12,-0.53,-0.48,1.19,
2.734,-0.06,-0.02,1.12,-0.51,-0.58,1.29,
2.734,-0.05,-0.02,1.12,-0.51,-0.58,1.29,
2.734,-0.05,-0.00,1.10,-0.51,-0.58,1.29,
2.734,-0.05,-0.00,1.10,-0.56,-0.59,1.11,
2.736,-0.04,0.01,1.09,-0.56,-0.59,1.11,
2.738,-0.03,0.03,1.08,-0.56,-0.59,1.11,
2.738,-0.03,0.03,1.08,-0.54,-0.46,0.94,
2.741,-0.02,0.04,1.08,-0.54,-0.46,0.94,
2.748,-0.02,0.05,1.08,-0.54,-0.46,0.94,
2.749,-0.02,0.05,1.08,-0.40,-0.20,0.67,
2.749,-0.01,0.05,1.07,-0.40,-0.20,0.67,
2.75,-0.01,0.07,1.08,-0.40,-0.20,0.67,
2.75,-0.01,0.07,1.08,-0.28,0.05,0.62,
2.752,-0.01,0.07,1.07,-0.28,0.05,0.62,
2.753,-0.01,0.08,1.06,-0.28,0.05,0.62,
2.753,-0.01,0.08,1.06,-0.19,0.17,0.60,
2.755,-0.00,0.09,1.05,-0.19,0.17,0.60,
2.758,0.01,0.10,1.05,-0.19,0.17,0.60,
2.758,0.01,0.10,1.05,-0.17,0.31,0.53,
2.765,0.01,0.10,1.03,-0.17,0.31,0.53,
2.766,0.02,0.10,1.01,-0.17,0.31,0.53,
2.766,0.02,0.10,1.01,-0.10,0.46,0.34,
2.766,0.03,0.09,0.99,-0.10,0.46,0.34,
2.768,0.03,0.10,0.97,-0.10,0.46,0.34,
2.768,0.03,0.10,0.97,0.01,0.47,0.03,
2.771,0.03,0.09,0.96,0.01,0.47,0.03,
2.773,0.02,0.09,0.95,0.01,0.47,0.03,
2.774,0.02,0.09,0.95,0.14,0.44,-0.34,
2.792,0.02,0.08,0.93,0.14,0.44,-0.34,
2.793,0.02,0.08,0.92,0.14,0.44,-0.34,
2.793,0.02,0.08,0.92,0.12,0.37,-0.61,
2.793,0.02,0.07,0.92,0.12,0.37,-0.61,
2.794,0.02,0.07,0.92,0.12,0.37,-0.61,
2.794,0.02,0.07,0.92,0.11,0.29,-0.84,
2.794,0.02,0.06,0.92,0.11,0.29,-0.84,
2.794,0.02,0.06,0.92,0.11,0.29,-0.84,
2.795,0.02,0.06,0.92,0.06,0.19,-0.92,
2.795,0.01,0.06,0.92,0.06,0.19,-0.92,
2.795,0.02,0.05,0.94,0.06,0.19,-0.92,
2.795,0.02,0.05,0.94,0.09,0.10,-0.89,
2.796,0.02,0.05,0.94,0.09,0.10,-0.89,
