
time,gFx,gFy,gFz,ax,ay,az,
0.004,-0.03,0.02,0.90,-0.02,0.09,-0.86,
0.004,-0.03,0.02,0.91,-0.02,0.09,-0.86,
0.004,-0.03,0.02,0.91,-0.02,-0.02,-1.02,
0.005,-0.03,0.02,0.90,-0.02,-0.02,-1.02,
0.005,-0.03,0.02,0.91,-0.02,-0.02,-1.02,
0.005,-0.03,0.02,0.91,-0.01,-0.07,-1.02,
0.006,-0.03,0.02,0.92,-0.01,-0.07,-1.02,
0.008,-0.02,0.02,0.94,-0.01,-0.07,-1.02,
0.009,-0.02,0.02,0.94,0.01,-0.06,-0.98,
0.015,-0.02,0.02,0.96,0.01,-0.06,-0.98,
0.015,-0.02,0.02,0.97,0.01,-0.06,-0.98,
0.015,-0.02,0.02,0.97,0.06,-0.07,-0.74,
0.016,-0.03,0.02,0.99,0.06,-0.07,-0.74,
0.018,-0.03,0.02,0.99,0.09,-0.07,-0.42,
0.019,-0.03,0.01,1.00,0.09,-0.07,-0.42,
0.021,-0.03,0.02,1.02,0.09,-0.07,-0.42,
0.023,-0.03,0.01,1.04,0.09,-0.07,-0.42,
0.024,-0.03,0.01,1.04,0.01,-0.09,-0.09,
0.029,-0.04,0.01,1.05,0.01,-0.09,-0.09,
0.029,-0.03,0.01,1.06,0.01,-0.09,-0.09,
0.029,-0.03,0.01,1.06,-0.04,-0.10,0.21,
0.031,-0.03,0.01,1.07,-0.04,-0.10,0.21,
0.034,-0.02,0.02,1.08,-0.04,-0.10,0.21,
0.034,-0.02,0.02,1.08,-0.06,-0.14,0.51,
0.036,-0.01,0.02,1.08,-0.06,-0.14,0.51,
0.038,-0.02,0.03,1.09,-0.06,-0.14,0.51,
0.038,-0.02,0.03,1.09,0.02,-0.05,0.66,
0.041,-0.02,0.03,1.08,0.02,-0.05,0.66,
0.044,-0.02,0.03,1.08,0.02,-0.05,0.66,
0.044,-0.02,0.03,1.08,0.14,0.00,0.76,
0.046,-0.01,0.03,1.07,0.14,0.00,0.76,
0.048,-0.01,0.03,1.07,0.12,0.04,0.70,
0.049,-0.02,0.03,1.06,0.12,0.04,0.70,
0.051,-0.02,0.03,1.05,0.12,0.04,0.70,
0.053,-0.01,0.03,1.04,0.12,0.04,0.70,
0.053,-0.01,0.03,1.04,0.15,0.06,0.55,
0.056,-0.01,0.03,1.03,0.15,0.06,0.55,
0.058,-0.00,0.04,1.02,0.15,0.06,0.55,
0.058,-0.00,0.04,1.02,0.12,0.05,0.32,
0.061,0.00,0.04,1.00,0.12,0.05,0.32,
0.063,0.01,0.04,0.98,0.12,0.05,0.32,
0.063,0.01,0.04,0.98,0.22,0.08,0.12,
0.066,0.01,0.04,0.97,0.22,0.08,0.12,
0.068,0.00,0.05,0.96,0.22,0.08,0.12,
0.068,0.00,0.05,0.96,0.33,0.13,-0.23,
0.07,-0.00,0.05,0.96,0.33,0.13,-0.23,
0.073,-0.01,0.05,0.95,0.33,0.13,-0.23,
0.073,-0.01,0.05,0.95,0.33,0.16,-0.40,
0.075,-0.01,0.04,0.94,0.33,0.16,-0.40,
0.078,-0.01,0.04,0.94,0.33,0.16,-0.40,
0.078,-0.01,0.04,0.94,0.23,0.17,-0.52,
0.08,-0.02,0.04,0.94,0.23,0.17,-0.52,
0.083,-0.02,0.04,0.92,0.23,0.17,-0.52,
0.083,-0.02,0.04,0.92,0.17,0.08,-0.66,
0.085,-0.02,0.04,0.93,0.17,0.08,-0.66,
0.088,-0.02,0.04,0.93,0.17,0.08,-0.66,
0.088,-0.02,0.04,0.93,0.10,0.10,-0.75,
0.09,-0.03,0.04,0.93,0.10,0.10,-0.75,
0.093,-0.03,0.04,0.93,0.10,0.10,-0.75,
0.093,-0.03,0.04,0.93,0.12,0.06,-0.76,
0.096,-0.02,0.04,0.93,0.12,0.06,-0.76,
0.098,-0.03,0.04,0.93,0.12,0.06,-0.76,
0.098,-0.03,0.04,0.93,0.02,0.07,-0.75,
0.1,-0.03,0.04,0.95,0.02,0.07,-0.75,
0.103,-0.02,0.03,0.96,0.02,0.07,-0.75,
0.103,-0.02,0.03,0.96,0.05,0.09,-0.70,
0.105,-0.03,0.03,0.97,0.05,0.09,-0.70,
0.107,-0.03,0.02,0.98,0.05,0.09,-0.70,
0.108,-0.03,0.02,0.98,0.03,0.04,-0.51,
0.111,-0.03,0.02,1.00,0.03,0.04,-0.51,
0.112,-0.03,0.01,1.01,0.03,0.04,-0.51,
0.113,-0.03,0.01,1.01,-0.04,-0.07,-0.25,
0.115,-0.04,0.01,1.02,-0.04,-0.07,-0.25,
0.118,-0.04,0.01,1.03,-0.04,-0.07,-0.25,
0.118,-0.04,0.01,1.03,-0.05,-0.16,-0.01,
0.12,-0.04,0.01,1.03,-0.05,-0.16,-0.01,
0.123,-0.04,0.00,1.04,-0.05,-0.16,-0.01,
0.123,-0.04,0.00,1.04,-0.12,-0.24,0.18,
0.125,-0.04,0.00,1.05,-0.12,-0.24,0.18,
0.127,-0.04,0.01,1.04,-0.12,-0.24,0.18,
0.127,-0.04,0.01,1.04,-0.16,-0.26,0.29,
0.13,-0.04,0.01,1.05,-0.16,-0.26,0.29,
0.133,-0.04,0.01,1.05,-0.16,-0.26,0.29,
0.133,-0.04,0.01,1.05,-0.16,-0.26,0.41,
0.135,-0.05,0.01,1.05,-0.16,-0.26,0.41,
0.138,-0.05,0.02,1.05,-0.16,-0.26,0.41,
0.138,-0.05,0.02,1.05,-0.18,-0.18,0.45,
0.14,-0.05,0.02,1.04,-0.18,-0.18,0.45,
0.142,-0.06,0.01,1.05,-0.18,-0.18,0.45,
0.142,-0.06,0.01,1.05,-0.31,-0.15,0.43,
0.145,-0.07,0.01,1.05,-0.31,-0.15,0.43,
0.147,-0.07,0.02,1.04,-0.31,-0.15,0.43,
0.147,-0.07,0.02,1.04,-0.39,-0.14,0.38,
0.15,-0.07,0.02,1.04,-0.39,-0.14,0.38,
0.152,-0.08,0.02,1.04,-0.39,-0.14,0.38,
0.152,-0.08,0.02,1.04,-0.52,-0.15,0.36,
0.154,-0.08,0.02,1.04,-0.52,-0.15,0.36,
0.157,-0.08,0.02,1.03,-0.52,-0.15,0.36,
0.157,-0.08,0.02,1.03,-0.58,-0.15,0.32,
0.16,-0.08,0.03,1.03,-0.58,-0.15,0.32,
0.163,-0.08,0.03,1.02,-0.58,-0.15,0.32,
0.163,-0.08,0.03,1.02,-0.64,-0.09,0.27,
0.165,-0.08,0.02,1.03,-0.64,-0.09,0.27,
0.167,-0.08,0.02,1.03,-0.67,-0.07,0.18,
0.167,-0.08,0.03,1.03,-0.67,-0.07,0.18,
0.169,-0.07,0.03,1.03,-0.67,-0.07,0.18,
0.172,-0.07,0.02,1.02,-0.67,-0.07,0.18,
0.172,-0.07,0.02,1.02,-0.69,-0.08,0.23,
0.174,-0.07,0.02,1.01,-0.69,-0.08,0.23,
0.177,-0.07,0.01,1.01,-0.69,-0.08,0.23,
0.178,-0.07,0.01,1.01,-0.55,-0.11,0.17,
0.179,-0.06,0.01,1.01,-0.55,-0.11,0.17,
0.182,-0.07,0.01,1.01,-0.55,-0.11,0.17,
0.182,-0.07,0.01,1.01,-0.52,-0.21,0.06,
0.185,-0.07,0.00,1.01,-0.52,-0.21,0.06,
0.187,-0.07,-0.00,1.01,-0.52,-0.21,0.06,
0.187,-0.07,-0.00,1.01,-0.50,-0.27,0.01,
0.19,-0.06,-0.00,1.01,-0.50,-0.27,0.01,
0.191,-0.06,-0.01,1.00,-0.50,-0.27,0.01,
0.192,-0.06,-0.01,1.00,-0.52,-0.35,0.04,
0.194,-0.05,-0.01,1.00,-0.52,-0.35,0.04,
0.197,-0.05,-0.00,0.98,-0.52,-0.35,0.04,
0.197,-0.05,-0.00,0.98,-0.42,-0.41,-0.05,
0.199,-0.05,-0.01,0.99,-0.42,-0.41,-0.05,
0.202,-0.05,-0.01,0.99,-0.33,-0.41,-0.16,
0.202,-0.06,-0.01,0.99,-0.33,-0.41,-0.16,
0.204,-0.06,-0.01,0.98,-0.33,-0.41,-0.16,
0.206,-0.07,-0.00,0.98,-0.33,-0.41,-0.16,
0.207,-0.07,-0.00,0.98,-0.35,-0.48,-0.21,
0.209,-0.08,-0.00,0.97,-0.35,-0.48,-0.21,
0.215,-0.08,0.00,0.97,-0.35,-0.48,-0.21,
0.215,-0.08,0.00,0.97,-0.43,-0.45,-0.28,
0.216,-0.08,0.00,0.97,-0.43,-0.45,-0.28,
0.216,-0.09,0.01,0.96,-0.43,-0.45,-0.28,
0.217,-0.09,0.01,0.96,-0.56,-0.39,-0.37,
0.219,-0.10,0.02,0.96,-0.56,-0.39,-0.37,
0.221,-0.10,0.02,0.96,-0.61,-0.31,-0.40,
0.222,-0.10,0.02,0.96,-0.61,-0.31,-0.40,
0.224,-0.10,0.02,0.96,-0.61,-0.31,-0.40,
0.227,-0.10,0.03,0.96,-0.61,-0.31,-0.40,
0.227,-0.10,0.03,0.96,-0.71,-0.21,-0.46,
0.229,-0.09,0.04,0.95,-0.71,-0.21,-0.46,
0.231,-0.10,0.04,0.96,-0.71,-0.21,-0.46,
0.232,-0.10,0.04,0.96,-0.74,-0.14,-0.45,
0.234,-0.10,0.05,0.96,-0.74,-0.14,-0.45,
0.237,-0.09,0.05,0.97,-0.74,-0.14,-0.45,
0.237,-0.09,0.05,0.97,-0.70,-0.01,-0.46,
0.239,-0.09,0.06,0.98,-0.70,-0.01,-0.46,
0.242,-0.08,0.06,0.98,-0.70,-0.01,-0.46,
0.242,-0.08,0.06,0.98,-0.68,0.09,-0.40,
0.245,-0.09,0.06,0.99,-0.68,0.09,-0.40,
0.247,-0.09,0.06,0.99,-0.63,0.21,-0.22,
0.247,-0.08,0.06,0.99,-0.63,0.21,-0.22,
0.249,-0.08,0.06,1.00,-0.63,0.21,-0.22,
0.252,-0.08,0.06,1.01,-0.63,0.21,-0.22,
0.252,-0.08,0.06,1.01,-0.62,0.24,-0.15,
0.254,-0.08,0.06,1.02,-0.62,0.24,-0.15,
0.256,-0.08,0.06,1.03,-0.62,0.24,-0.15,
0.257,-0.08,0.06,1.03,-0.60,0.27,0.04,
0.259,-0.09,0.06,1.04,-0.60,0.27,0.04,
0.262,-0.09,0.06,1.05,-0.60,0.27,0.04,
0.263,-0.09,0.06,1.05,-0.58,0.27,0.24,
0.263,-0.09,0.06,1.06,-0.58,0.27,0.24,
0.266,-0.09,0.05,1.06,-0.58,0.27,0.24,
0.267,-0.09,0.05,1.06,-0.65,0.23,0.35,
0.269,-0.10,0.05,1.06,-0.65,0.23,0.35,
0.271,-0.10,0.05,1.06,-0.65,0.23,0.35,
0.272,-0.10,0.05,1.06,-0.66,0.22,0.50,
0.274,-0.10,0.05,1.06,-0.66,0.22,0.50,
0.277,-0.11,0.04,1.07,-0.66,0.22,0.50,
0.277,-0.11,0.04,1.07,-0.73,0.19,0.50,
0.28,-0.12,0.04,1.06,-0.73,0.19,0.50,
0.281,-0.12,0.04,1.06,-0.73,0.19,0.50,
0.281,-0.12,0.04,1.06,-0.83,0.13,0.58,
0.284,-0.13,0.04,1.06,-0.83,0.13,0.58,
0.286,-0.14,0.04,1.05,-0.83,0.13,0.58,
0.286,-0.14,0.04,1.05,-0.93,0.08,0.50,
0.289,-0.15,0.04,1.04,-0.93,0.08,0.50,
0.291,-0.17,0.04,1.04,-0.93,0.08,0.50,
0.291,-0.17,0.04,1.04,-1.09,0.06,0.48,
0.294,-0.19,0.04,1.04,-1.09,0.06,0.48,
0.296,-0.21,0.04,1.03,-1.09,0.06,0.48,
0.296,-0.21,0.04,1.03,-1.31,0.02,0.32,
0.299,-0.22,0.04,1.02,-1.31,0.02,0.32,
0.301,-0.23,0.04,1.01,-1.31,0.02,0.32,
0.301,-0.23,0.04,1.01,-1.66,0.02,0.27,
0.304,-0.25,0.05,1.01,-1.66,0.02,0.27,
0.306,-0.25,0.05,0.99,-1.66,0.02,0.27,
0.306,-0.25,0.05,0.99,-1.90,0.06,0.08,
0.309,-0.26,0.05,0.98,-1.90,0.06,0.08,
0.311,-0.27,0.05,0.98,-1.90,0.06,0.08,
0.311,-0.27,0.05,0.98,-2.10,0.07,-0.10,
0.316,-0.28,0.06,0.97,-2.10,0.07,-0.10,
0.317,-0.28,0.06,0.97,-2.10,0.07,-0.10,
0.317,-0.28,0.06,0.97,-2.25,0.09,-0.23,
0.318,-0.28,0.06,0.97,-2.25,0.09,-0.23,
0.321,-0.28,0.06,0.96,-2.25,0.09,-0.23,
0.321,-0.28,0.06,0.96,-2.35,0.14,-0.33,
0.323,-0.29,0.05,0.97,-2.35,0.14,-0.33,
0.325,-0.29,0.05,0.97,-2.35,0.14,-0.33,
0.328,-0.29,0.05,0.97,-2.34,0.12,-0.41,
0.328,-0.29,0.05,0.96,-2.34,0.12,-0.41,
0.33,-0.28,0.05,0.96,-2.34,0.12,-0.41,
0.331,-0.28,0.05,0.96,-2.39,0.09,-0.36,
0.333,-0.29,0.04,0.96,-2.39,0.09,-0.36,
0.336,-0.28,0.04,0.96,-2.39,0.09,-0.36,
0.336,-0.28,0.04,0.96,-2.37,0.06,-0.44,
0.338,-0.28,0.04,0.95,-2.37,0.06,-0.44,
0.341,-0.27,0.04,0.95,-2.37,0.06,-0.44,
0.341,-0.27,0.04,0.95,-2.36,-0.03,-0.43,
0.343,-0.27,0.04,0.95,-2.36,-0.03,-0.43,
0.346,-0.26,0.04,0.95,-2.36,-0.03,-0.43,
0.347,-0.26,0.04,0.95,-2.24,-0.06,-0.52,
0.349,-0.25,0.05,0.95,-2.24,-0.06,-0.52,
0.35,-0.24,0.06,0.94,-2.24,-0.06,-0.52,
0.35,-0.24,0.06,0.94,-2.14,-0.07,-0.52,
0.352,-0.24,0.06,0.95,-2.14,-0.07,-0.52,
0.356,-0.24,0.06,0.94,-2.14,-0.07,-0.52,
0.356,-0.24,0.06,0.94,-1.99,0.02,-0.58,
0.358,-0.24,0.07,0.93,-1.99,0.02,-0.58,
0.36,-0.23,0.06,0.93,-1.99,0.02,-0.58,
0.36,-0.23,0.06,0.93,-1.92,0.06,-0.61,
0.364,-0.23,0.07,0.92,-1.92,0.06,-0.61,
0.365,-0.23,0.07,0.92,-1.92,0.06,-0.61,
0.365,-0.23,0.07,0.92,-1.84,0.11,-0.72,
0.367,-0.23,0.07,0.91,-1.84,0.11,-0.72,
0.37,-0.23,0.07,0.91,-1.81,0.12,-0.79,
0.37,-0.24,0.07,0.91,-1.81,0.12,-0.79,
0.373,-0.24,0.07,0.91,-1.81,0.12,-0.79,
0.375,-0.25,0.06,0.90,-1.81,0.12,-0.79,
0.375,-0.25,0.06,0.90,-1.81,0.11,-0.90,
0.377,-0.25,0.06,0.89,-1.81,0.11,-0.90,
0.381,-0.25,0.06,0.89,-1.90,0.07,-0.96,
0.381,-0.26,0.06,0.89,-1.90,0.07,-0.96,
0.382,-0.27,0.06,0.89,-1.90,0.07,-0.96,
0.385,-0.27,0.06,0.89,-1.90,0.07,-0.96,
0.385,-0.27,0.06,0.89,-2.01,0.00,-1.07,
0.388,-0.27,0.06,0.88,-2.01,0.00,-1.07,
0.389,-0.28,0.06,0.89,-2.01,0.00,-1.07,
0.39,-0.28,0.06,0.89,-2.15,-0.02,-1.10,
0.392,-0.28,0.07,0.88,-2.15,-0.02,-1.10,
0.401,-0.28,0.07,0.89,-2.15,-0.02,-1.10,
0.401,-0.28,0.07,0.89,-2.17,-0.04,-1.11,
0.401,-0.27,0.07,0.90,-2.17,-0.04,-1.11,
0.402,-0.27,0.08,0.90,-2.17,-0.04,-1.11,
0.402,-0.27,0.08,0.90,-2.21,0.01,-1.07,
0.402,-0.27,0.09,0.91,-2.21,0.01,-1.07,
0.404,-0.26,0.09,0.91,-2.21,0.01,-1.07,
0.405,-0.26,0.09,0.91,-2.12,0.09,-0.97,
0.407,-0.26,0.10,0.92,-2.12,0.09,-0.97,
0.409,-0.24,0.11,0.92,-2.12,0.09,-0.97,
0.41,-0.24,0.11,0.92,-2.05,0.22,-0.86,
0.413,-0.23,0.13,0.93,-2.05,0.22,-0.86,
0.415,-0.22,0.13,0.93,-2.05,0.22,-0.86,
0.415,-0.22,0.13,0.93,-1.88,0.37,-0.77,
0.417,-0.20,0.14,0.94,-1.88,0.37,-0.77,
0.42,-0.19,0.15,0.95,-1.88,0.37,-0.77,
0.42,-0.19,0.15,0.95,-1.65,0.57,-0.63,
0.422,-0.19,0.15,0.95,-1.65,0.57,-0.63,
0.425,-0.18,0.16,0.95,-1.65,0.57,-0.63,
0.425,-0.18,0.16,0.95,-1.40,0.71,-0.48,
0.427,-0.18,0.16,0.96,-1.40,0.71,-0.48,
0.431,-0.17,0.16,0.96,-1.40,0.71,-0.48,
0.431,-0.17,0.16,0.96,-1.28,0.83,-0.45,
0.432,-0.17,0.15,0.96,-1.28,0.83,-0.45,
0.434,-0.17,0.15,0.96,-1.28,0.83,-0.45,
0.434,-0.17,0.15,0.96,-1.18,0.85,-0.38,
0.437,-0.17,0.14,0.96,-1.18,0.85,-0.38,
0.439,-0.17,0.14,0.96,-1.18,0.85,-0.38,
0.439,-0.17,0.14,0.96,-1.10,0.77,-0.38,
0.441,-0.17,0.13,0.96,-1.10,0.77,-0.38,
0.444,-0.17,0.11,0.96,-1.10,0.77,-0.38,
0.444,-0.17,0.11,0.96,-1.12,0.64,-0.35,
0.446,-0.16,0.11,0.97,-1.12,0.64,-0.35,
0.449,-0.16,0.10,0.97,-1.12,0.64,-0.35,
0.449,-0.16,0.10,0.97,-1.12,0.45,-0.33,
0.452,-0.16,0.09,0.98,-1.12,0.45,-0.33,
0.454,-0.16,0.09,0.98,-1.08,0.27,-0.24,
0.454,-0.16,0.08,0.98,-1.08,0.27,-0.24,
0.456,-0.16,0.08,0.98,-1.08,0.27,-0.24,
0.459,-0.15,0.07,0.98,-1.08,0.27,-0.24,
0.459,-0.15,0.07,0.98,-1.07,0.12,-0.14,
0.463,-0.15,0.07,0.99,-1.07,0.12,-0.14,
0.465,-0.15,0.06,1.00,-1.07,0.12,-0.14,
0.465,-0.15,0.06,1.00,-1.04,0.02,-0.10,
0.466,-0.15,0.06,1.00,-1.04,0.02,-0.10,
0.469,-0.15,0.05,1.01,-1.04,0.02,-0.10,
0.469,-0.15,0.05,1.01,-1.03,-0.09,0.01,
0.471,-0.15,0.04,1.02,-1.03,-0.09,0.01,
0.474,-0.15,0.04,1.02,-1.03,-0.09,0.01,
0.474,-0.15,0.04,1.02,-1.01,-0.15,0.08,
0.476,-0.14,0.03,1.03,-1.01,-0.15,0.08,
0.48,-0.14,0.03,1.03,-1.01,-0.15,0.08,
0.48,-0.14,0.03,1.03,-0.98,-0.30,0.22,
0.481,-0.15,0.02,1.04,-0.98,-0.30,0.22,
0.484,-0.14,0.02,1.05,-0.98,-0.30,0.22,
0.484,-0.14,0.02,1.05,-0.95,-0.39,0.35,
0.486,-0.14,0.01,1.06,-0.95,-0.39,0.35,
0.489,-0.14,0.01,1.06,-0.96,-0.50,0.48,
0.489,-0.14,0.00,1.07,-0.96,-0.50,0.48,
0.492,-0.13,0.00,1.08,-0.96,-0.50,0.48,
0.494,-0.13,-0.00,1.07,-0.96,-0.50,0.48,
0.494,-0.13,-0.00,1.07,-0.90,-0.61,0.66,
0.497,-0.12,-0.01,1.07,-0.90,-0.61,0.66,
0.499,-0.11,-0.01,1.08,-0.90,-0.61,0.66,
0.499,-0.11,-0.01,1.08,-0.81,-0.68,0.76,
0.502,-0.11,-0.01,1.08,-0.81,-0.68,0.76,
0.504,-0.11,-0.01,1.08,-0.71,-0.74,0.79,
0.505,-0.10,-0.00,1.08,-0.71,-0.74,0.79,
0.507,-0.09,0.01,1.08,-0.71,-0.74,0.79,
0.509,-0.09,0.01,1.08,-0.58,-0.71,0.82,
0.509,-0.08,0.02,1.08,-0.58,-0.71,0.82,
0.512,-0.07,0.03,1.08,-0.58,-0.71,0.82,
0.518,-0.06,0.03,1.07,-0.58,-0.71,0.82,
0.52,-0.06,0.03,1.07,-0.37,-0.54,0.78,
0.52,-0.05,0.04,1.08,-0.37,-0.54,0.78,
0.52,-0.04,0.05,1.07,-0.37,-0.54,0.78,
0.521,-0.04,0.05,1.07,-0.19,-0.41,0.74,
0.523,-0.04,0.06,1.06,-0.19,-0.41,0.74,
0.524,-0.03,0.06,1.05,-0.19,-0.41,0.74,
0.524,-0.03,0.06,1.05,0.02,-0.27,0.70,
0.526,-0.02,0.07,1.05,0.02,-0.27,0.70,
0.529,-0.02,0.07,1.04,0.02,-0.27,0.70,
0.529,-0.02,0.07,1.04,0.10,-0.16,0.55,
0.531,-0.03,0.07,1.03,0.10,-0.16,0.55,
0.533,-0.03,0.07,1.02,0.10,-0.16,0.55,
0.534,-0.03,0.07,1.02,0.20,-0.13,0.43,
0.536,-0.02,0.07,1.01,0.20,-0.13,0.43,
0.538,-0.03,0.06,1.00,0.20,-0.13,0.43,
0.538,-0.03,0.06,1.00,0.16,-0.14,0.27,
0.541,-0.04,0.06,0.99,0.16,-0.14,0.27,
0.544,-0.04,0.06,0.99,0.16,-0.14,0.27,
0.544,-0.04,0.06,0.99,0.18,-0.23,0.05,
0.548,-0.05,0.06,0.97,0.18,-0.23,0.05,
0.548,-0.06,0.05,0.97,0.18,-0.23,0.05,
0.548,-0.06,0.05,0.97,0.02,-0.32,-0.09,
0.551,-0.07,0.05,0.96,0.02,-0.32,-0.09,
0.554,-0.07,0.05,0.96,-0.10,-0.40,-0.26,
0.554,-0.08,0.05,0.94,-0.10,-0.40,-0.26,
0.556,-0.09,0.05,0.93,-0.10,-0.40,-0.26,
0.558,-0.11,0.04,0.92,-0.10,-0.40,-0.26,
0.558,-0.11,0.04,0.92,-0.29,-0.52,-0.48,
0.561,-0.11,0.04,0.91,-0.29,-0.52,-0.48,
0.564,-0.12,0.04,0.90,-0.29,-0.52,-0.48,
0.565,-0.12,0.04,0.90,-0.49,-0.60,-0.70,
0.566,-0.12,0.04,0.90,-0.49,-0.60,-0.70,
0.569,-0.13,0.05,0.89,-0.49,-0.60,-0.70,
0.569,-0.13,0.05,0.89,-0.65,-0.65,-0.87,
0.571,-0.13,0.05,0.89,-0.65,-0.65,-0.87,
0.573,-0.13,0.06,0.89,-0.65,-0.65,-0.87,
0.574,-0.13,0.06,0.89,-0.70,-0.62,-1.00,
0.576,-0.13,0.07,0.89,-0.70,-0.62,-1.00,
0.578,-0.12,0.07,0.90,-0.70,-0.62,-1.00,
0.578,-0.12,0.07,0.90,-0.70,-0.56,-1.02,
0.58,-0.12,0.08,0.90,-0.70,-0.56,-1.02,
0.583,-0.11,0.09,0.91,-0.70,-0.56,-1.02,
0.583,-0.11,0.09,0.91,-0.64,-0.45,-0.95,
0.586,-0.10,0.10,0.91,-0.64,-0.45,-0.95,
0.588,-0.09,0.09,0.92,-0.64,-0.45,-0.95,
0.588,-0.09,0.09,0.92,-0.53,-0.30,-0.84,
0.591,-0.10,0.09,0.92,-0.53,-0.30,-0.84,
0.593,-0.08,0.10,0.93,-0.53,-0.30,-0.84,
0.594,-0.08,0.10,0.93,-0.33,-0.27,-0.73,
0.596,-0.06,0.11,0.94,-0.33,-0.27,-0.73,
0.598,-0.05,0.12,0.96,-0.33,-0.27,-0.73,
0.599,-0.05,0.12,0.96,-0.27,-0.28,-0.63,
0.603,-0.03,0.13,0.96,-0.27,-0.28,-0.63,
0.603,-0.03,0.13,0.96,0.07,-0.09,-0.41,
0.603,-0.01,0.13,0.96,0.07,-0.09,-0.41,
0.605,0.00,0.14,0.97,0.07,-0.09,-0.41,
0.608,0.01,0.14,0.98,0.07,-0.09,-0.41,
0.608,0.01,0.14,0.98,0.39,0.03,-0.28,
0.611,0.02,0.15,0.98,0.39,0.03,-0.28,
0.617,0.03,0.16,0.98,0.39,0.03,-0.28,
0.618,0.03,0.16,0.98,0.67,0.16,-0.15,
0.618,0.03,0.15,0.98,0.67,0.16,-0.15,
0.618,0.04,0.15,0.98,0.67,0.16,-0.15,
0.618,0.04,0.15,0.98,0.81,0.27,-0.10,
0.62,0.04,0.15,0.98,0.81,0.27,-0.10,
0.623,0.04,0.14,0.98,0.81,0.27,-0.10,
0.623,0.04,0.14,0.98,0.95,0.21,-0.09,
0.625,0.04,0.14,0.98,0.95,0.21,-0.09,
0.628,0.04,0.13,0.98,0.95,0.21,-0.09,
0.628,0.04,0.13,0.98,0.98,0.14,-0.06,
0.631,0.04,0.13,0.98,0.98,0.14,-0.06,
0.633,0.03,0.13,0.98,0.98,0.14,-0.06,
0.633,0.03,0.13,0.98,1.01,0.04,-0.06,
0.635,0.03,0.12,0.97,1.01,0.04,-0.06,
0.638,0.02,0.12,0.97,1.01,0.04,-0.06,
0.638,0.02,0.12,0.97,0.96,-0.03,-0.09,
0.64,0.02,0.11,0.96,0.96,-0.03,-0.09,
0.643,0.01,0.10,0.96,0.96,-0.03,-0.09,
0.643,0.01,0.10,0.96,0.86,-0.14,-0.15,
0.645,0.01,0.09,0.96,0.86,-0.14,-0.15,
0.647,0.00,0.09,0.95,0.86,-0.14,-0.15,
0.648,0.00,0.09,0.95,0.74,-0.31,-0.26,
0.651,-0.00,0.08,0.95,0.74,-0.31,-0.26,
0.652,-0.00,0.08,0.95,0.67,-0.45,-0.30,
0.653,-0.01,0.08,0.95,0.67,-0.45,-0.30,
0.655,-0.01,0.07,0.94,0.67,-0.45,-0.30,
0.658,-0.01,0.06,0.94,0.67,-0.45,-0.30,
0.658,-0.01,0.06,0.94,0.56,-0.58,-0.37,
0.66,-0.01,0.05,0.94,0.56,-0.58,-0.37,
0.663,-0.01,0.04,0.94,0.56,-0.58,-0.37,
0.663,-0.01,0.04,0.94,0.52,-0.74,-0.46,
0.665,-0.01,0.04,0.94,0.52,-0.74,-0.46,
0.667,-0.01,0.03,0.95,0.52,-0.74,-0.46,
0.667,-0.01,0.03,0.95,0.51,-0.92,-0.44,
0.67,0.00,0.02,0.95,0.51,-0.92,-0.44,
0.673,0.00,0.02,0.95,0.51,-0.92,-0.44,
0.673,0.00,0.02,0.95,0.53,-1.04,-0.39,
0.675,0.01,0.01,0.96,0.53,-1.04,-0.39,
0.678,0.01,0.01,0.96,0.53,-1.04,-0.39,
0.678,0.01,0.01,0.96,0.62,-1.15,-0.36,
0.681,0.02,0.01,0.96,0.62,-1.15,-0.36,
0.682,0.03,0.01,0.96,0.62,-1.15,-0.36,
0.683,0.03,0.01,0.96,0.72,-1.24,-0.28,
0.685,0.04,0.01,0.96,0.72,-1.24,-0.28,
0.687,0.04,0.01,0.96,0.83,-1.29,-0.25,
0.688,0.05,0.01,0.97,0.83,-1.29,-0.25,
0.69,0.06,0.00,0.97,0.83,-1.29,-0.25,
0.692,0.07,0.01,0.97,0.83,-1.29,-0.25,
0.692,0.07,0.01,0.97,1.07,-1.26,-0.17,
0.695,0.09,0.01,0.97,1.07,-1.26,-0.17,
0.698,0.10,0.00,0.98,1.07,-1.26,-0.17,
0.699,0.10,0.00,0.98,1.29,-1.31,-0.12,
0.699,0.12,0.01,0.98,1.29,-1.31,-0.12,
0.702,0.12,0.01,0.98,1.58,-1.31,-0.06,
0.703,0.14,0.01,0.98,1.58,-1.31,-0.06,
0.705,0.15,0.02,0.98,1.58,-1.31,-0.06,
0.707,0.16,0.02,0.98,1.58,-1.31,-0.06,
0.707,0.16,0.02,0.98,1.88,-1.28,-0.03,
0.71,0.18,0.02,0.98,1.88,-1.28,-0.03,
0.712,0.19,0.03,0.98,1.88,-1.28,-0.03,
0.712,0.19,0.03,0.98,2.17,-1.20,-0.02,
0.719,0.20,0.04,0.98,2.17,-1.20,-0.02,
0.719,0.21,0.04,0.97,2.17,-1.20,-0.02,
0.72,0.21,0.04,0.97,2.44,-1.13,-0.04,
0.72,0.22,0.05,0.97,2.44,-1.13,-0.04,
0.721,0.22,0.05,0.96,2.44,-1.13,-0.04,
0.722,0.22,0.05,0.96,2.67,-1.04,-0.08,
0.724,0.22,0.06,0.95,2.67,-1.04,-0.08,
0.726,0.22,0.07,0.94,2.67,-1.04,-0.08,
0.727,0.22,0.07,0.94,2.80,-0.97,-0.18,
0.729,0.22,0.08,0.93,2.80,-0.97,-0.18,
0.732,0.22,0.09,0.92,2.80,-0.97,-0.18,
0.732,0.22,0.09,0.92,2.83,-0.87,-0.38,
0.734,0.22,0.09,0.90,2.83,-0.87,-0.38,
0.737,0.21,0.09,0.90,2.83,-0.87,-0.38,
0.737,0.21,0.09,0.90,2.89,-0.67,-0.52,
0.739,0.20,0.09,0.89,2.89,-0.67,-0.52,
0.741,0.18,0.09,0.87,2.89,-0.67,-0.52,
0.741,0.18,0.09,0.87,2.80,-0.62,-0.76,
0.743,0.18,0.09,0.86,2.80,-0.62,-0.76,
0.746,0.16,0.09,0.85,2.80,-0.62,-0.76,
0.748,0.16,0.09,0.85,2.61,-0.66,-0.96,
0.749,0.14,0.08,0.85,2.61,-0.66,-0.96,
0.751,0.13,0.07,0.83,2.61,-0.66,-0.96,
0.751,0.13,0.07,0.83,2.40,-0.71,-1.16,
0.754,0.12,0.08,0.82,2.40,-0.71,-1.16,
0.756,0.12,0.07,0.81,2.40,-0.71,-1.16,
0.756,0.12,0.07,0.81,2.14,-0.85,-1.34,
0.759,0.11,0.07,0.81,2.14,-0.85,-1.34,
0.761,0.10,0.07,0.80,2.14,-0.85,-1.34,
0.761,0.10,0.07,0.80,1.96,-0.90,-1.52,
0.764,0.09,0.07,0.79,1.96,-0.90,-1.52,
0.767,0.08,0.08,0.79,1.96,-0.90,-1.52,
0.767,0.08,0.08,0.79,1.80,-0.95,-1.65,
0.768,0.08,0.08,0.78,1.80,-0.95,-1.65,
0.771,0.08,0.08,0.79,1.80,-0.95,-1.65,
0.771,0.08,0.08,0.79,1.62,-0.95,-1.77,
0.773,0.07,0.08,0.80,1.62,-0.95,-1.77,
0.776,0.07,0.08,0.80,1.62,-0.95,-1.77,
0.777,0.07,0.08,0.80,1.58,-0.93,-1.81,
0.778,0.07,0.09,0.80,1.58,-0.93,-1.81,
0.782,0.07,0.09,0.82,1.58,-0.93,-1.81,
0.782,0.07,0.09,0.82,1.49,-0.87,-1.67,
0.783,0.07,0.09,0.83,1.49,-0.87,-1.67,
0.785,0.07,0.08,0.84,1.49,-0.87,-1.67,
0.787,0.07,0.08,0.84,1.47,-0.80,-1.55,
0.788,0.07,0.08,0.85,1.47,-0.80,-1.55,
0.791,0.07,0.09,0.86,1.47,-0.80,-1.55,
0.791,0.07,0.09,0.86,1.47,-0.82,-1.29,
0.793,0.07,0.09,0.87,1.47,-0.82,-1.29,
0.796,0.08,0.09,0.88,1.47,-0.82,-1.29,
0.797,0.08,0.09,0.88,1.51,-0.80,-1.08,
0.799,0.08,0.09,0.89,1.51,-0.80,-1.08,
0.8,0.08,0.10,0.91,1.51,-0.80,-1.08,
0.801,0.08,0.10,0.91,1.52,-0.76,-0.88,
0.803,0.09,0.10,0.93,1.52,-0.76,-0.88,
0.805,0.09,0.10,0.93,1.57,-0.68,-0.67,
0.806,0.09,0.10,0.93,1.57,-0.68,-0.67,
0.808,0.08,0.11,0.94,1.57,-0.68,-0.67,
0.81,0.09,0.12,0.95,1.57,-0.68,-0.67,
0.81,0.09,0.12,0.95,1.63,-0.60,-0.38,
0.813,0.09,0.13,0.97,1.63,-0.60,-0.38,
0.819,0.10,0.14,0.97,1.63,-0.60,-0.38,
0.819,0.10,0.14,0.97,1.62,-0.48,-0.21,
0.819,0.10,0.14,0.97,1.62,-0.48,-0.21,
0.82,0.11,0.15,0.97,1.62,-0.48,-0.21,
0.823,0.11,0.15,0.97,1.73,-0.28,-0.01,
0.823,0.10,0.16,0.97,1.73,-0.28,-0.01,
0.826,0.10,0.16,0.96,1.73,-0.28,-0.01,
0.826,0.10,0.16,0.96,1.82,-0.10,0.04,
0.828,0.10,0.16,0.95,1.82,-0.10,0.04,
0.83,0.09,0.16,0.95,1.82,-0.10,0.04,
0.831,0.09,0.16,0.95,1.80,0.03,-0.02,
0.835,0.09,0.16,0.95,1.80,0.03,-0.02,
0.836,0.08,0.16,0.94,1.80,0.03,-0.02,
0.836,0.08,0.16,0.94,1.75,0.02,-0.13,
0.838,0.08,0.15,0.93,1.75,0.02,-0.13,
0.841,0.06,0.15,0.92,1.75,0.02,-0.13,
0.841,0.06,0.15,0.92,1.66,0.00,-0.23,
0.843,0.06,0.14,0.91,1.66,0.00,-0.23,
0.846,0.06,0.14,0.90,1.66,0.00,-0.23,
0.846,0.06,0.14,0.90,1.54,-0.10,-0.38,
0.848,0.05,0.13,0.90,1.54,-0.10,-0.38,
0.851,0.05,0.13,0.90,1.45,-0.22,-0.59,
0.851,0.05,0.12,0.88,1.45,-0.22,-0.59,
0.853,0.05,0.11,0.87,1.45,-0.22,-0.59,
0.856,0.04,0.10,0.86,1.45,-0.22,-0.59,
0.856,0.04,0.10,0.86,1.34,-0.40,-0.72,
0.858,0.03,0.09,0.86,1.34,-0.40,-0.72,
0.86,0.04,0.08,0.85,1.34,-0.40,-0.72,
0.861,0.04,0.08,0.85,1.31,-0.60,-0.93,
0.863,0.04,0.07,0.85,1.31,-0.60,-0.93,
0.865,0.03,0.06,0.84,1.31,-0.60,-0.93,
0.866,0.03,0.06,0.84,1.22,-0.78,-1.07,
0.869,0.03,0.05,0.84,1.22,-0.78,-1.07,
0.87,0.03,0.04,0.84,1.22,-0.78,-1.07,
0.87,0.03,0.04,0.84,1.21,-0.98,-1.16,
0.873,0.03,0.03,0.85,1.21,-0.98,-1.16,
0.876,0.03,0.03,0.85,1.18,-1.17,-1.19,
0.876,0.03,0.03,0.85,1.18,-1.17,-1.19,
0.878,0.04,0.02,0.86,1.18,-1.17,-1.19,
0.88,0.04,0.02,0.87,1.18,-1.17,-1.19,
0.881,0.04,0.02,0.87,1.21,-1.27,-1.09,
0.882,0.05,0.02,0.88,1.21,-1.27,-1.09,
0.885,0.05,0.02,0.88,1.21,-1.27,-1.09,
0.885,0.05,0.02,0.88,1.31,-1.33,-0.94,
0.888,0.06,0.01,0.89,1.31,-1.33,-0.94,
0.89,0.07,0.01,0.88,1.31,-1.33,-0.94,
0.891,0.07,0.01,0.88,1.38,-1.35,-0.82,
0.893,0.08,0.00,0.90,1.38,-1.35,-0.82,
0.895,0.08,-0.00,0.90,1.38,-1.35,-0.82,
0.896,0.08,-0.00,0.90,1.53,-1.41,-0.76,
0.898,0.08,-0.00,0.91,1.53,-1.41,-0.76,
0.9,0.08,-0.00,0.91,1.62,-1.48,-0.60,
0.901,0.09,-0.00,0.92,1.62,-1.48,-0.60,
0.902,0.10,-0.01,0.92,1.62,-1.48,-0.60,
0.905,0.11,-0.00,0.93,1.62,-1.48,-0.60,
0.905,0.11,-0.00,0.93,1.73,-1.47,-0.50,
0.908,0.11,0.00,0.93,1.73,-1.47,-0.50,
0.91,0.12,0.00,0.93,1.73,-1.47,-0.50,
0.91,0.12,0.00,0.93,1.90,-1.45,-0.38,
0.913,0.12,0.00,0.93,1.90,-1.45,-0.38,
0.919,0.13,0.01,0.93,1.90,-1.45,-0.38,
0.92,0.13,0.01,0.93,2.00,-1.35,-0.30,
0.92,0.13,0.02,0.93,2.00,-1.35,-0.30,
0.92,0.13,0.02,0.93,2.00,-1.35,-0.30,
0.921,0.13,0.02,0.93,2.13,-1.26,-0.30,
0.922,0.14,0.02,0.93,2.13,-1.26,-0.30,
0.925,0.14,0.02,0.93,2.18,-1.13,-0.32,
0.925,0.13,0.03,0.92,2.18,-1.13,-0.32,
0.928,0.13,0.03,0.92,2.18,-1.13,-0.32,
0.93,0.14,0.03,0.91,2.18,-1.13,-0.32,
0.931,0.14,0.03,0.91,2.23,-1.04,-0.37,
0.933,0.13,0.03,0.91,2.23,-1.04,-0.37,
0.934,0.13,0.04,0.90,2.23,-1.04,-0.37,
0.935,0.13,0.04,0.90,2.22,-0.97,-0.48,
0.937,0.14,0.04,0.90,2.22,-0.97,-0.48,
0.94,0.14,0.04,0.90,2.22,-0.91,-0.57,
0.94,0.14,0.04,0.90,2.22,-0.91,-0.57,
0.943,0.14,0.04,0.88,2.22,-0.91,-0.57,
0.945,0.13,0.05,0.87,2.22,-0.91,-0.57,
0.945,0.13,0.05,0.87,2.28,-0.86,-0.63,
0.947,0.13,0.04,0.86,2.28,-0.86,-0.63,
0.95,0.13,0.04,0.86,2.26,-0.81,-0.82,
0.95,0.12,0.04,0.86,2.26,-0.81,-0.82,
0.952,0.11,0.03,0.85,2.26,-0.81,-0.82,
0.954,0.11,0.03,0.85,2.26,-0.81,-0.82,
0.954,0.11,0.03,0.85,2.16,-0.82,-0.98,
0.957,0.10,0.02,0.85,2.16,-0.82,-0.98,
0.96,0.09,0.02,0.85,2.16,-0.82,-0.98,
0.96,0.09,0.02,0.85,2.02,-0.89,-1.06,
0.962,0.09,0.02,0.86,2.02,-0.89,-1.06,
0.964,0.08,0.02,0.87,2.02,-0.89,-1.06,
0.965,0.08,0.02,0.87,1.88,-0.95,-1.07,
0.967,0.07,0.01,0.88,1.88,-0.95,-1.07,
0.969,0.07,0.02,0.89,1.88,-0.95,-1.07,
0.969,0.07,0.02,0.89,1.77,-0.97,-0.92,
0.972,0.06,0.02,0.90,1.77,-0.97,-0.92,
0.975,0.06,0.02,0.90,1.64,-0.97,-0.71,
0.975,0.05,0.01,0.91,1.64,-0.97,-0.71,
0.977,0.05,0.01,0.92,1.64,-0.97,-0.71,
0.979,0.05,0.01,0.93,1.64,-0.97,-0.71,
0.98,0.05,0.01,0.93,1.52,-0.93,-0.53,
0.981,0.04,0.01,0.95,1.52,-0.93,-0.53,
0.984,0.05,0.01,0.96,1.52,-0.93,-0.53,
0.984,0.05,0.01,0.96,1.44,-0.90,-0.33,
0.987,0.05,0.02,0.98,1.44,-0.90,-0.33,
0.989,0.04,0.01,1.00,1.44,-0.90,-0.33,
0.99,0.04,0.01,1.00,1.39,-0.87,-0.03,
0.991,0.05,0.01,1.01,1.39,-0.87,-0.03,
0.993,0.05,0.01,1.03,1.39,-0.87,-0.03,
0.994,0.05,0.01,1.03,1.38,-0.79,0.27,
0.996,0.06,0.01,1.04,1.38,-0.79,0.27,
1.004,0.07,0.01,1.05,1.38,-0.79,0.27,
1.004,0.07,0.01,1.05,1.41,-0.75,0.56,
1.004,0.08,0.01,1.06,1.41,-0.75,0.56,
1.005,0.08,0.01,1.06,1.41,-0.75,0.56,
1.005,0.08,0.01,1.06,1.54,-0.72,0.81,
1.007,0.09,0.00,1.07,1.54,-0.72,0.81,
1.008,0.10,0.00,1.07,1.54,-0.72,0.81,
1.008,0.10,0.00,1.07,1.68,-0.71,0.91,
1.011,0.11,-0.00,1.08,1.68,-0.71,0.91,
1.013,0.12,-0.01,1.08,1.68,-0.71,0.91,
1.013,0.12,-0.01,1.08,1.81,-0.67,1.02,
1.016,0.12,-0.01,1.08,1.81,-0.67,1.02,
1.018,0.13,-0.01,1.07,1.81,-0.67,1.02,
1.019,0.13,-0.01,1.07,1.96,-0.73,1.11,
1.021,0.14,-0.02,1.07,1.96,-0.73,1.11,
1.023,0.14,-0.02,1.07,2.07,-0.74,1.03,
1.023,0.14,-0.03,1.07,2.07,-0.74,1.03,
1.026,0.14,-0.03,1.06,2.07,-0.74,1.03,
1.028,0.14,-0.04,1.05,2.07,-0.74,1.03,
1.028,0.14,-0.04,1.05,2.15,-0.83,0.97,
1.03,0.15,-0.04,1.05,2.15,-0.83,0.97,
1.034,0.14,-0.05,1.04,2.15,-0.83,0.97,
1.035,0.14,-0.05,1.04,2.18,-0.87,0.88,
1.036,0.14,-0.05,1.04,2.18,-0.87,0.88,
1.038,0.15,-0.05,1.03,2.18,-0.87,0.88,
1.038,0.15,-0.05,1.03,2.21,-0.93,0.73,
1.041,0.14,-0.05,1.03,2.21,-0.93,0.73,
1.043,0.14,-0.06,1.03,2.21,-0.93,0.73,
1.043,0.14,-0.06,1.03,2.18,-0.96,0.63,
1.045,0.14,-0.05,1.02,2.18,-0.96,0.63,
1.051,0.14,-0.05,1.02,2.15,-0.99,0.59,
1.052,0.14,-0.05,1.03,2.15,-0.99,0.59,
1.052,0.14,-0.05,1.03,2.15,-0.99,0.59,
1.053,0.14,-0.05,1.03,2.15,-0.99,0.59,
1.053,0.14,-0.05,1.03,2.16,-0.93,0.54,
1.056,0.14,-0.04,1.03,2.16,-0.93,0.54,
1.058,0.14,-0.04,1.04,2.16,-0.93,0.54,
1.058,0.14,-0.04,1.04,2.15,-0.87,0.59,
1.06,0.14,-0.03,1.04,2.15,-0.87,0.59,
1.063,0.14,-0.03,1.05,2.15,-0.87,0.59,
1.063,0.14,-0.03,1.05,2.16,-0.76,0.62,
1.065,0.14,-0.03,1.05,2.16,-0.76,0.62,
1.068,0.15,-0.02,1.05,2.16,-0.76,0.62,
1.068,0.15,-0.02,1.05,2.20,-0.68,0.73,
1.07,0.15,-0.02,1.05,2.20,-0.68,0.73,
1.073,0.16,-0.02,1.05,2.20,-0.68,0.73,
1.073,0.16,-0.02,1.05,2.26,-0.59,0.76,
1.075,0.16,-0.02,1.05,2.26,-0.59,0.76,
1.078,0.16,-0.03,1.04,2.26,-0.59,0.76,
1.078,0.16,-0.03,1.04,2.41,-0.54,0.78,
1.08,0.17,-0.03,1.05,2.41,-0.54,0.78,
1.084,0.18,-0.03,1.04,2.41,-0.54,0.78,
1.084,0.18,-0.03,1.04,2.46,-0.56,0.74,
1.085,0.18,-0.03,1.04,2.46,-0.56,0.74,
1.087,0.20,-0.03,1.03,2.46,-0.56,0.74,
1.088,0.20,-0.03,1.03,2.59,-0.56,0.72,
1.09,0.20,-0.03,1.03,2.59,-0.56,0.72,
1.093,0.20,-0.04,1.03,2.59,-0.56,0.72,
1.093,0.20,-0.04,1.03,2.75,-0.56,0.62,
1.095,0.22,-0.04,1.02,2.75,-0.56,0.62,
1.098,0.23,-0.04,1.02,2.75,-0.56,0.62,
1.098,0.23,-0.04,1.02,2.84,-0.60,0.60,
1.101,0.23,-0.04,1.02,2.84,-0.60,0.60,
1.103,0.24,-0.04,1.01,2.84,-0.60,0.60,
1.103,0.24,-0.04,1.01,3.05,-0.64,0.51,
1.105,0.24,-0.05,1.01,3.05,-0.64,0.51,
1.107,0.24,-0.05,1.01,3.18,-0.63,0.42,
1.108,0.25,-0.05,1.00,3.18,-0.63,0.42,
1.11,0.25,-0.06,1.00,3.18,-0.63,0.42,
1.112,0.25,-0.06,0.99,3.18,-0.63,0.42,
1.112,0.25,-0.06,0.99,3.25,-0.69,0.35,
1.121,0.25,-0.06,0.99,3.25,-0.69,0.35,
1.121,0.25,-0.07,0.98,3.25,-0.69,0.35,
1.122,0.25,-0.07,0.98,3.30,-0.75,0.23,
1.122,0.25,-0.07,0.97,3.30,-0.75,0.23,
1.123,0.25,-0.07,0.97,3.32,-0.79,0.13,
1.123,0.25,-0.07,0.97,3.32,-0.79,0.13,
1.125,0.24,-0.07,0.96,3.32,-0.79,0.13,
1.127,0.23,-0.08,0.96,3.32,-0.79,0.13,
1.128,0.23,-0.08,0.96,3.25,-0.78,-0.01,
1.13,0.22,-0.08,0.96,3.25,-0.78,-0.01,
1.133,0.21,-0.08,0.97,3.25,-0.78,-0.01,
1.134,0.21,-0.08,0.97,3.15,-0.78,-0.10,
1.135,0.20,-0.08,0.96,3.15,-0.78,-0.10,
1.137,0.19,-0.09,0.96,3.15,-0.78,-0.10,
1.138,0.19,-0.09,0.96,2.93,-0.82,-0.08,
1.139,0.18,-0.08,0.97,2.93,-0.82,-0.08,
1.142,0.17,-0.08,0.97,2.93,-0.82,-0.08,
1.142,0.17,-0.08,0.97,2.68,-0.81,-0.10,
1.145,0.16,-0.08,0.97,2.68,-0.81,-0.10,
1.147,0.15,-0.08,0.98,2.68,-0.81,-0.10,
1.147,0.15,-0.08,0.98,2.47,-0.78,-0.02,
1.15,0.14,-0.09,0.99,2.47,-0.78,-0.02,
1.153,0.13,-0.09,0.99,2.47,-0.78,-0.02,
1.154,0.13,-0.09,0.99,2.28,-0.74,0.04,
1.154,0.13,-0.08,1.01,2.28,-0.74,0.04,
1.157,0.13,-0.08,1.02,2.28,-0.74,0.04,
1.157,0.13,-0.08,1.02,2.09,-0.71,0.21,
1.159,0.12,-0.08,1.03,2.09,-0.71,0.21,
1.162,0.12,-0.07,1.04,2.09,-0.71,0.21,
1.163,0.12,-0.07,1.04,2.00,-0.59,0.38,
1.165,0.12,-0.07,1.05,2.00,-0.59,0.38,
1.167,0.11,-0.07,1.06,2.00,-0.59,0.38,
1.168,0.11,-0.07,1.06,1.90,-0.52,0.61,
1.17,0.12,-0.07,1.07,1.90,-0.52,0.61,
1.172,0.12,-0.07,1.07,1.82,-0.43,0.81,
1.172,0.11,-0.07,1.09,1.82,-0.43,0.81,
1.175,0.12,-0.07,1.09,1.82,-0.43,0.81,
1.177,0.12,-0.06,1.10,1.82,-0.43,0.81,
1.178,0.12,-0.06,1.10,1.78,-0.34,1.04,
1.18,0.12,-0.06,1.12,1.78,-0.34,1.04,
1.182,0.13,-0.06,1.12,1.78,-0.34,1.04,
1.182,0.13,-0.06,1.12,1.82,-0.28,1.23,
1.185,0.13,-0.06,1.13,1.82,-0.28,1.23,
1.187,0.14,-0.06,1.13,1.82,-0.28,1.23,
1.187,0.14,-0.06,1.13,1.84,-0.20,1.42,
1.19,0.14,-0.07,1.14,1.84,-0.20,1.42,
1.192,0.14,-0.07,1.15,1.84,-0.20,1.42,
1.192,0.14,-0.07,1.15,1.93,-0.15,1.53,
1.195,0.14,-0.07,1.15,1.93,-0.15,1.53,
1.197,0.15,-0.08,1.15,1.93,-0.15,1.53,
1.198,0.15,-0.08,1.15,1.98,-0.15,1.66,
1.204,0.15,-0.08,1.15,1.98,-0.15,1.66,
1.205,0.14,-0.08,1.15,1.98,-0.15,1.66,
1.205,0.14,-0.08,1.15,2.00,-0.18,1.68,
1.205,0.14,-0.09,1.15,2.00,-0.18,1.68,
1.206,0.14,-0.09,1.15,2.00,-0.18,1.68,
1.207,0.14,-0.09,1.15,1.99,-0.20,1.69,
1.209,0.13,-0.10,1.14,1.99,-0.20,1.69,
1.213,0.13,-0.11,1.14,1.99,-0.20,1.69,
1.213,0.13,-0.11,1.14,1.91,-0.29,1.68,
1.214,0.12,-0.12,1.13,1.91,-0.29,1.68,
1.218,0.12,-0.12,1.13,1.91,-0.29,1.68,
1.218,0.12,-0.12,1.13,1.79,-0.40,1.61,
1.219,0.11,-0.13,1.12,1.79,-0.40,1.61,
1.222,0.11,-0.13,1.12,1.69,-0.51,1.52,
1.222,0.10,-0.14,1.12,1.69,-0.51,1.52,
1.225,0.10,-0.14,1.12,1.69,-0.51,1.52,
1.227,0.10,-0.15,1.12,1.69,-0.51,1.52,
1.227,0.10,-0.15,1.12,1.55,-0.62,1.44,
1.23,0.09,-0.14,1.12,1.55,-0.62,1.44,
1.232,0.09,-0.14,1.12,1.55,-0.62,1.44,
1.232,0.09,-0.14,1.12,1.46,-0.70,1.42,
1.235,0.09,-0.14,1.11,1.46,-0.70,1.42,
1.237,0.09,-0.14,1.11,1.46,-0.70,1.42,
1.237,0.09,-0.14,1.11,1.39,-0.66,1.38,
1.239,0.10,-0.13,1.11,1.39,-0.66,1.38,
1.242,0.10,-0.12,1.11,1.39,-0.66,1.38,
1.242,0.10,-0.12,1.11,1.35,-0.61,1.34,
1.244,0.10,-0.12,1.11,1.35,-0.61,1.34,
1.247,0.10,-0.12,1.11,1.39,-0.50,1.27,
1.247,0.11,-0.12,1.10,1.39,-0.50,1.27,
1.249,0.10,-0.11,1.10,1.39,-0.50,1.27,
1.252,0.11,-0.11,1.10,1.39,-0.50,1.27,
1.252,0.11,-0.11,1.10,1.44,-0.39,1.25,
1.254,0.11,-0.11,1.10,1.44,-0.39,1.25,
1.257,0.12,-0.11,1.10,1.44,-0.39,1.25,
1.257,0.12,-0.11,1.10,1.46,-0.28,1.22,
1.259,0.12,-0.11,1.10,1.46,-0.28,1.22,
1.262,0.12,-0.10,1.10,1.46,-0.28,1.22,
1.262,0.12,-0.10,1.10,1.52,-0.25,1.15,
1.264,0.13,-0.10,1.09,1.52,-0.25,1.15,
1.268,0.14,-0.10,1.09,1.52,-0.25,1.15,
1.269,0.14,-0.10,1.09,1.57,-0.22,1.16,
1.269,0.14,-0.10,1.09,1.57,-0.22,1.16,
1.271,0.14,-0.10,1.09,1.67,-0.16,1.06,
1.271,0.14,-0.10,1.09,1.67,-0.16,1.06,
1.274,0.15,-0.10,1.09,1.67,-0.16,1.06,
1.276,0.15,-0.10,1.09,1.67,-0.16,1.06,
1.277,0.15,-0.10,1.09,1.71,-0.14,1.06,
1.279,0.16,-0.10,1.09,1.71,-0.14,1.06,
1.281,0.16,-0.09,1.09,1.71,-0.14,1.06,
1.282,0.16,-0.09,1.09,1.78,-0.09,1.05,
1.285,0.17,-0.10,1.09,1.78,-0.09,1.05,
1.286,0.17,-0.10,1.08,1.78,-0.09,1.05,
1.286,0.17,-0.10,1.08,1.88,-0.06,1.07,
1.288,0.17,-0.10,1.08,1.88,-0.06,1.07,
1.291,0.16,-0.11,1.08,1.88,-0.06,1.07,
1.291,0.16,-0.11,1.08,1.93,-0.09,1.01,
1.293,0.16,-0.11,1.07,1.93,-0.09,1.01,
1.296,0.16,-0.11,1.07,1.85,-0.13,0.97,
1.297,0.16,-0.11,1.07,1.85,-0.13,0.97,
1.298,0.15,-0.12,1.07,1.85,-0.13,0.97,
1.301,0.15,-0.13,1.07,1.85,-0.13,0.97,
1.302,0.15,-0.13,1.07,1.78,-0.17,0.89,
1.303,0.15,-0.12,1.06,1.78,-0.17,0.89,
1.306,0.14,-0.13,1.06,1.78,-0.17,0.89,
1.306,0.14,-0.13,1.06,1.66,-0.28,0.88,
1.308,0.13,-0.14,1.06,1.66,-0.28,0.88,
1.31,0.13,-0.13,1.05,1.66,-0.28,0.88,
1.311,0.13,-0.13,1.05,1.61,-0.30,0.78,
1.313,0.13,-0.14,1.05,1.61,-0.30,0.78,
1.315,0.13,-0.14,1.05,1.61,-0.30,0.78,
1.317,0.13,-0.14,1.05,1.47,-0.38,0.74,
1.318,0.13,-0.14,1.05,1.47,-0.38,0.74,
1.324,0.13,-0.14,1.05,1.47,-0.38,0.74,
1.324,0.13,-0.14,1.05,1.43,-0.42,0.66,
1.324,0.12,-0.14,1.05,1.43,-0.42,0.66,
1.326,0.12,-0.13,1.05,1.43,-0.42,0.66,
1.327,0.12,-0.13,1.05,1.37,-0.42,0.64,
1.328,0.13,-0.13,1.05,1.37,-0.42,0.64,
1.33,0.13,-0.12,1.05,1.37,-0.42,0.64,
1.33,0.13,-0.12,1.05,1.31,-0.35,0.65,
1.334,0.13,-0.12,1.05,1.31,-0.35,0.65,
1.336,0.12,-0.11,1.05,1.31,-0.35,0.65,
1.336,0.12,-0.11,1.05,1.35,-0.25,0.67,
1.337,0.12,-0.11,1.05,1.35,-0.25,0.67,
1.34,0.11,-0.10,1.05,1.35,-0.25,0.67,
1.34,0.11,-0.10,1.05,1.28,-0.13,0.64,
1.342,0.11,-0.10,1.05,1.28,-0.13,0.64,
1.345,0.11,-0.10,1.05,1.14,-0.04,0.67,
1.345,0.10,-0.10,1.05,1.14,-0.04,0.67,
1.348,0.09,-0.10,1.05,1.14,-0.04,0.67,
1.351,0.08,-0.10,1.05,1.14,-0.04,0.67,
1.352,0.08,-0.10,1.05,1.00,0.03,0.64,
1.353,0.07,-0.09,1.05,1.00,0.03,0.64,
1.355,0.06,-0.10,1.05,1.00,0.03,0.64,
1.355,0.06,-0.10,1.05,0.83,0.07,0.68,
1.358,0.06,-0.10,1.05,0.83,0.07,0.68,
1.36,0.05,-0.10,1.06,0.83,0.07,0.68,
1.36,0.05,-0.10,1.06,0.62,0.09,0.70,
1.363,0.04,-0.10,1.07,0.62,0.09,0.70,
1.365,0.03,-0.10,1.06,0.62,0.09,0.70,
1.365,0.03,-0.10,1.06,0.49,0.07,0.72,
1.368,0.03,-0.10,1.06,0.49,0.07,0.72,
1.37,0.03,-0.10,1.06,0.49,0.07,0.72,
1.371,0.03,-0.10,1.06,0.30,0.08,0.78,
1.372,0.03,-0.10,1.06,0.30,0.08,0.78,
1.375,0.02,-0.10,1.06,0.30,0.08,0.78,
1.375,0.02,-0.10,1.06,0.22,0.05,0.75,
1.377,0.02,-0.10,1.06,0.22,0.05,0.75,
1.379,0.02,-0.10,1.06,0.22,0.05,0.75,
1.38,0.02,-0.10,1.06,0.14,0.08,0.78,
1.382,0.02,-0.11,1.06,0.14,0.08,0.78,
1.386,0.02,-0.10,1.06,0.14,0.08,0.78,
1.386,0.02,-0.10,1.06,0.07,0.08,0.76,
1.387,0.01,-0.10,1.06,0.07,0.08,0.76,
1.39,0.01,-0.10,1.07,0.07,0.08,0.76,
1.39,0.01,-0.10,1.07,0.03,0.07,0.78,
1.392,0.01,-0.11,1.07,0.03,0.07,0.78,
1.394,0.00,-0.10,1.06,0.03,0.07,0.78,
1.395,0.00,-0.10,1.06,-0.07,0.11,0.82,
1.397,-0.01,-0.11,1.06,-0.07,0.11,0.82,
1.399,-0.00,-0.11,1.07,-0.07,0.11,0.82,
1.4,-0.00,-0.11,1.07,-0.14,0.08,0.80,
1.402,-0.01,-0.11,1.06,-0.14,0.08,0.80,
1.404,-0.01,-0.11,1.07,-0.14,0.08,0.80,
1.405,-0.01,-0.11,1.07,-0.25,0.07,0.81,
1.407,-0.01,-0.12,1.07,-0.25,0.07,0.81,
1.409,-0.01,-0.12,1.07,-0.34,0.06,0.81,
1.41,-0.01,-0.12,1.07,-0.34,0.06,0.81,
1.412,-0.02,-0.12,1.07,-0.34,0.06,0.81,
1.414,-0.01,-0.13,1.06,-0.34,0.06,0.81,
1.414,-0.01,-0.13,1.06,-0.38,-0.02,0.81,
1.422,-0.01,-0.13,1.07,-0.38,-0.02,0.81,
1.422,-0.01,-0.13,1.07,-0.38,-0.02,0.81,
1.423,-0.01,-0.13,1.07,-0.44,-0.07,0.80,
1.423,-0.01,-0.13,1.06,-0.44,-0.07,0.80,
1.424,-0.01,-0.14,1.06,-0.44,-0.07,0.80,
1.424,-0.01,-0.14,1.06,-0.44,-0.13,0.83,
1.427,-0.00,-0.15,1.07,-0.44,-0.13,0.83,
1.429,0.00,-0.14,1.07,-0.44,-0.13,0.83,
1.429,0.00,-0.14,1.07,-0.42,-0.21,0.79,
1.432,0.00,-0.14,1.07,-0.42,-0.21,0.79,
1.435,0.01,-0.14,1.07,-0.42,-0.21,0.79,
1.436,0.01,-0.14,1.07,-0.37,-0.27,0.81,
1.437,0.02,-0.14,1.07,-0.37,-0.27,0.81,
1.439,0.03,-0.14,1.08,-0.37,-0.27,0.81,
1.439,0.03,-0.14,1.08,-0.31,-0.24,0.88,
1.442,0.03,-0.13,1.08,-0.31,-0.24,0.88,
1.444,0.03,-0.13,1.08,-0.31,-0.24,0.88,
1.444,0.03,-0.13,1.08,-0.17,-0.21,0.89,
1.446,0.04,-0.13,1.08,-0.17,-0.21,0.89,
1.449,0.05,-0.12,1.08,-0.17,-0.21,0.89,
1.449,0.05,-0.12,1.08,-0.07,-0.14,0.93,
1.454,0.05,-0.12,1.08,-0.07,-0.14,0.93,
1.455,0.06,-0.12,1.08,-0.07,-0.14,0.93,
1.455,0.06,-0.12,1.08,0.08,-0.05,0.93,
1.456,0.06,-0.12,1.08,0.08,-0.05,0.93,
1.459,0.06,-0.11,1.08,0.08,-0.05,0.93,
1.459,0.06,-0.11,1.08,0.15,-0.00,0.93,
1.461,0.06,-0.11,1.08,0.15,-0.00,0.93,
1.464,0.06,-0.12,1.08,0.15,-0.00,0.93,
1.464,0.06,-0.12,1.08,0.18,0.03,0.92,
1.466,0.06,-0.12,1.07,0.18,0.03,0.92,
1.47,0.06,-0.11,1.07,0.18,0.03,0.92,
1.47,0.06,-0.11,1.07,0.22,0.04,0.92,
1.471,0.06,-0.12,1.07,0.22,0.04,0.92,
1.474,0.06,-0.12,1.06,0.22,0.04,0.92,
1.474,0.06,-0.12,1.06,0.18,0.05,0.84,
1.476,0.05,-0.12,1.06,0.18,0.05,0.84,
1.479,0.05,-0.13,1.05,0.18,0.05,0.84,
1.48,0.05,-0.13,1.05,0.15,-0.02,0.81,
1.482,0.04,-0.13,1.05,0.15,-0.02,0.81,
1.486,0.04,-0.13,1.05,0.15,-0.02,0.81,
1.487,0.04,-0.13,1.05,0.06,-0.05,0.69,
1.487,0.03,-0.14,1.05,0.06,-0.05,0.69,
1.489,0.03,-0.14,1.05,0.06,-0.05,0.69,
1.49,0.03,-0.14,1.05,-0.06,-0.11,0.65,
1.492,0.03,-0.14,1.05,-0.06,-0.11,0.65,
1.494,0.03,-0.14,1.05,-0.18,-0.16,0.63,
1.495,0.02,-0.13,1.05,-0.18,-0.16,0.63,
1.497,0.01,-0.14,1.06,-0.18,-0.16,0.63,
1.499,0.01,-0.13,1.06,-0.18,-0.16,0.63,
1.5,0.01,-0.13,1.06,-0.32,-0.16,0.66,
1.501,-0.00,-0.13,1.07,-0.32,-0.16,0.66,
1.507,-0.01,-0.13,1.08,-0.32,-0.16,0.66,
1.508,-0.01,-0.13,1.08,-0.47,-0.14,0.73,
1.508,-0.01,-0.13,1.08,-0.47,-0.14,0.73,
1.509,-0.01,-0.13,1.08,-0.47,-0.14,0.73,
1.509,-0.01,-0.13,1.08,-0.61,-0.14,0.86,
1.512,-0.01,-0.13,1.08,-0.61,-0.14,0.86,
1.514,-0.01,-0.13,1.09,-0.61,-0.14,0.86,
1.515,-0.01,-0.13,1.09,-0.65,-0.12,0.96,
1.516,-0.01,-0.13,1.10,-0.65,-0.12,0.96,
1.519,-0.02,-0.13,1.10,-0.65,-0.12,0.96,
1.519,-0.02,-0.13,1.10,-0.70,-0.08,1.00,
1.521,-0.01,-0.12,1.11,-0.70,-0.08,1.00,
1.524,-0.01,-0.12,1.12,-0.70,-0.08,1.00,
1.524,-0.01,-0.12,1.12,-0.74,-0.07,1.12,
1.527,-0.01,-0.12,1.11,-0.74,-0.07,1.12,
1.529,-0.01,-0.12,1.12,-0.74,-0.07,1.12,
1.529,-0.01,-0.12,1.12,-0.71,-0.00,1.25,
1.532,0.00,-0.12,1.12,-0.71,-0.00,1.25,
1.534,0.01,-0.12,1.12,-0.71,-0.00,1.25,
1.534,0.01,-0.12,1.12,-0.70,0.06,1.25,
1.538,0.02,-0.11,1.12,-0.70,0.06,1.25,
1.539,0.01,-0.11,1.11,-0.70,0.06,1.25,
1.539,0.01,-0.11,1.11,-0.62,0.06,1.32,
1.542,0.02,-0.11,1.11,-0.62,0.06,1.32,
1.543,0.02,-0.11,1.11,-0.54,0.12,1.28,
1.544,0.02,-0.11,1.11,-0.54,0.12,1.28,
1.546,0.03,-0.10,1.11,-0.54,0.12,1.28,
1.549,0.03,-0.10,1.10,-0.54,0.12,1.28,
1.549,0.03,-0.10,1.10,-0.46,0.18,1.22,
1.553,0.04,-0.10,1.09,-0.46,0.18,1.22,
1.553,0.04,-0.10,1.08,-0.46,0.18,1.22,
1.554,0.04,-0.10,1.08,-0.42,0.23,1.11,
1.556,0.04,-0.10,1.08,-0.42,0.23,1.11,
1.559,0.05,-0.09,1.07,-0.42,0.23,1.11,
1.559,0.05,-0.09,1.07,-0.33,0.26,0.98,
1.561,0.04,-0.10,1.06,-0.33,0.26,0.98,
1.564,0.04,-0.10,1.05,-0.33,0.26,0.98,
1.564,0.04,-0.10,1.05,-0.31,0.26,0.87,
1.566,0.03,-0.11,1.03,-0.31,0.26,0.87,
1.569,0.03,-0.11,1.03,-0.35,0.23,0.61,
1.569,0.03,-0.11,1.02,-0.35,0.23,0.61,
1.57,0.02,-0.12,1.01,-0.35,0.23,0.61,
1.573,0.02,-0.13,1.01,-0.35,0.23,0.61,
1.573,0.02,-0.13,1.01,-0.47,0.10,0.40,
1.575,0.01,-0.14,1.00,-0.47,0.10,0.40,
1.578,0.00,-0.15,0.99,-0.47,0.10,0.40,
1.579,0.00,-0.15,0.99,-0.59,-0.10,0.22,
1.581,0.00,-0.16,0.98,-0.59,-0.10,0.22,
1.583,-0.01,-0.16,0.97,-0.59,-0.10,0.22,
1.584,-0.01,-0.16,0.97,-0.74,-0.29,0.05,
1.586,-0.02,-0.17,0.97,-0.74,-0.29,0.05,
1.588,-0.02,-0.18,0.97,-0.74,-0.29,0.05,
1.588,-0.02,-0.18,0.97,-0.85,-0.48,-0.10,
1.59,-0.02,-0.18,0.96,-0.85,-0.48,-0.10,
1.593,-0.02,-0.18,0.96,-0.99,-0.65,-0.19,
1.594,-0.01,-0.18,0.96,-0.99,-0.65,-0.19,
1.596,-0.01,-0.18,0.96,-0.99,-0.65,-0.19,
1.598,-0.02,-0.18,0.97,-0.99,-0.65,-0.19,
1.598,-0.02,-0.18,0.97,-0.98,-0.73,-0.27,
1.601,-0.01,-0.18,0.97,-0.98,-0.73,-0.27,
1.603,-0.01,-0.18,0.97,-0.98,-0.73,-0.27,
1.604,-0.01,-0.18,0.97,-0.99,-0.76,-0.24,
1.605,-0.02,-0.18,0.98,-0.99,-0.76,-0.24,
1.608,-0.02,-0.17,0.99,-0.99,-0.76,-0.24,
1.608,-0.02,-0.17,0.99,-0.95,-0.77,-0.19,
1.611,-0.02,-0.17,0.99,-0.95,-0.77,-0.19,
1.613,-0.02,-0.16,1.01,-0.95,-0.77,-0.19,
1.613,-0.02,-0.16,1.01,-1.00,-0.74,-0.05,
1.616,-0.03,-0.16,1.02,-1.00,-0.74,-0.05,
1.619,-0.03,-0.16,1.02,-1.00,-0.74,-0.05,
1.619,-0.03,-0.16,1.02,-0.99,-0.67,0.12,
1.621,-0.03,-0.16,1.03,-0.99,-0.67,0.12,
1.623,-0.03,-0.16,1.03,-0.99,-0.67,0.12,
1.623,-0.03,-0.16,1.03,-1.04,-0.64,0.28,
1.626,-0.04,-0.16,1.04,-1.04,-0.64,0.28,
1.628,-0.04,-0.17,1.04,-1.04,-0.64,0.28,
1.628,-0.04,-0.17,1.04,-1.04,-0.61,0.39,
1.63,-0.04,-0.17,1.04,-1.04,-0.61,0.39,
1.633,-0.04,-0.17,1.04,-1.04,-0.61,0.39,
1.633,-0.04,-0.17,1.04,-1.13,-0.68,0.45,
1.635,-0.04,-0.17,1.04,-1.13,-0.68,0.45,
1.641,-0.05,-0.17,1.04,-1.13,-0.68,0.45,
1.641,-0.05,-0.17,1.04,-1.15,-0.71,0.48,
1.641,-0.04,-0.17,1.04,-1.15,-0.71,0.48,
1.643,-0.04,-0.17,1.04,-1.17,-0.75,0.48,
1.643,-0.04,-0.18,1.05,-1.17,-0.75,0.48,
1.645,-0.03,-0.17,1.05,-1.17,-0.75,0.48,
1.647,-0.02,-0.18,1.05,-1.17,-0.75,0.48,
1.648,-0.02,-0.18,1.05,-1.14,-0.77,0.53,
1.651,-0.01,-0.17,1.04,-1.14,-0.77,0.53,
1.653,-0.00,-0.17,1.04,-1.14,-0.77,0.53,
1.654,-0.00,-0.17,1.04,-0.99,-0.77,0.53,
1.654,0.00,-0.16,1.04,-0.99,-0.77,0.53,
1.657,0.01,-0.16,1.03,-0.99,-0.77,0.53,
1.657,0.01,-0.16,1.03,-0.81,-0.70,0.44,
1.66,0.02,-0.15,1.02,-0.81,-0.70,0.44,
1.663,0.03,-0.15,1.01,-0.81,-0.70,0.44,
1.663,0.03,-0.15,1.01,-0.67,-0.64,0.39,
1.665,0.04,-0.14,1.01,-0.67,-0.64,0.39,
1.668,0.04,-0.14,1.00,-0.67,-0.64,0.39,
1.668,0.04,-0.14,1.00,-0.51,-0.54,0.25,
1.67,0.05,-0.14,1.00,-0.51,-0.54,0.25,
1.672,0.05,-0.14,0.99,-0.51,-0.54,0.25,
1.672,0.05,-0.14,0.99,-0.38,-0.47,0.15,
1.675,0.05,-0.13,0.98,-0.38,-0.47,0.15,
1.678,0.05,-0.13,0.97,-0.38,-0.47,0.15,
1.678,0.05,-0.13,0.97,-0.32,-0.44,0.04,
1.68,0.04,-0.13,0.96,-0.32,-0.44,0.04,
1.682,0.04,-0.13,0.95,-0.32,-0.44,0.04,
1.683,0.04,-0.13,0.95,-0.35,-0.40,-0.18,
1.685,0.03,-0.13,0.94,-0.35,-0.40,-0.18,
1.687,0.01,-0.13,0.94,-0.35,-0.40,-0.18,
1.687,0.01,-0.13,0.94,-0.45,-0.42,-0.36,
1.689,0.01,-0.13,0.93,-0.45,-0.42,-0.36,
1.693,-0.00,-0.13,0.92,-0.45,-0.42,-0.36,
1.693,-0.00,-0.13,0.92,-0.66,-0.42,-0.53,
1.695,-0.01,-0.13,0.92,-0.66,-0.42,-0.53,
1.697,-0.02,-0.12,0.91,-0.66,-0.42,-0.53,
1.697,-0.02,-0.12,0.91,-0.85,-0.43,-0.63,
1.7,-0.03,-0.12,0.91,-0.85,-0.43,-0.63,
1.704,-0.04,-0.12,0.91,-0.85,-0.43,-0.63,
1.704,-0.04,-0.12,0.91,-1.04,-0.45,-0.74,
1.704,-0.05,-0.12,0.91,-1.04,-0.45,-0.74,
1.706,-0.06,-0.12,0.92,-1.04,-0.45,-0.74,
1.707,-0.06,-0.12,0.92,-1.20,-0.42,-0.78,
1.709,-0.07,-0.12,0.92,-1.20,-0.42,-0.78,
1.711,-0.08,-0.12,0.92,-1.20,-0.42,-0.78,
1.711,-0.08,-0.12,0.92,-1.41,-0.44,-0.75,
1.714,-0.09,-0.12,0.93,-1.41,-0.44,-0.75,
1.716,-0.10,-0.12,0.93,-1.41,-0.44,-0.75,
1.717,-0.10,-0.12,0.93,-1.59,-0.48,-0.69,
1.719,-0.10,-0.13,0.94,-1.59,-0.48,-0.69,
1.721,-0.10,-0.12,0.94,-1.59,-0.48,-0.69,
1.722,-0.10,-0.12,0.94,-1.74,-0.55,-0.63,
1.724,-0.10,-0.13,0.95,-1.74,-0.55,-0.63,
1.726,-0.10,-0.13,0.95,-1.80,-0.60,-0.48,
1.726,-0.10,-0.13,0.95,-1.80,-0.60,-0.48,
1.729,-0.10,-0.14,0.96,-1.80,-0.60,-0.48,
1.732,-0.10,-0.14,0.97,-1.80,-0.60,-0.48,
1.732,-0.10,-0.14,0.97,-1.79,-0.67,-0.38,
1.733,-0.10,-0.14,0.98,-1.79,-0.67,-0.38,
1.74,-0.10,-0.14,0.98,-1.79,-0.67,-0.38,
1.741,-0.10,-0.14,0.98,-1.78,-0.75,-0.27,
1.741,-0.10,-0.14,0.98,-1.78,-0.75,-0.27,
1.742,-0.09,-0.14,0.98,-1.78,-0.75,-0.27,
1.742,-0.09,-0.14,0.98,-1.70,-0.81,-0.12,
1.744,-0.08,-0.14,0.99,-1.70,-0.81,-0.12,
1.746,-0.08,-0.14,1.00,-1.70,-0.81,-0.12,
1.746,-0.08,-0.14,1.00,-1.65,-0.83,-0.09,
1.749,-0.07,-0.13,1.00,-1.65,-0.83,-0.09,
1.751,-0.06,-0.13,1.00,-1.65,-0.83,-0.09,
1.753,-0.06,-0.13,1.00,-1.48,-0.82,0.04,
1.754,-0.05,-0.13,1.00,-1.48,-0.82,0.04,
1.756,-0.04,-0.12,1.00,-1.48,-0.82,0.04,
1.756,-0.04,-0.12,1.00,-1.30,-0.77,0.10,
1.758,-0.03,-0.12,1.00,-1.30,-0.77,0.10,
1.761,-0.02,-0.11,1.00,-1.30,-0.77,0.10,
1.761,-0.02,-0.11,1.00,-1.08,-0.71,0.03,
1.763,-0.02,-0.11,1.00,-1.08,-0.71,0.03,
1.767,-0.01,-0.10,0.99,-1.08,-0.71,0.03,
1.767,-0.01,-0.10,0.99,-0.87,-0.63,0.04,
1.77,-0.01,-0.10,0.99,-0.87,-0.63,0.04,
1.771,-0.01,-0.10,0.97,-0.87,-0.63,0.04,
1.771,-0.01,-0.10,0.97,-0.74,-0.56,-0.02,
1.773,-0.01,-0.09,0.97,-0.74,-0.56,-0.02,
1.776,-0.00,-0.09,0.96,-0.74,-0.56,-0.02,
1.776,-0.00,-0.09,0.96,-0.66,-0.51,-0.13,
1.778,-0.01,-0.08,0.95,-0.66,-0.51,-0.13,
1.781,-0.01,-0.08,0.94,-0.66,-0.51,-0.13,
1.781,-0.01,-0.08,0.94,-0.61,-0.44,-0.29,
1.783,-0.02,-0.07,0.93,-0.61,-0.44,-0.29,
1.787,-0.02,-0.06,0.94,-0.61,-0.44,-0.29,
1.787,-0.02,-0.06,0.94,-0.63,-0.38,-0.47,
1.788,-0.03,-0.06,0.93,-0.63,-0.38,-0.47,
1.791,-0.05,-0.05,0.92,-0.63,-0.38,-0.47,
1.791,-0.05,-0.05,0.92,-0.73,-0.28,-0.58,
1.793,-0.06,-0.06,0.92,-0.73,-0.28,-0.58,
1.795,-0.06,-0.06,0.92,-0.91,-0.21,-0.65,
1.796,-0.06,-0.05,0.92,-0.91,-0.21,-0.65,
1.798,-0.07,-0.05,0.92,-0.91,-0.21,-0.65,
1.8,-0.08,-0.05,0.91,-0.91,-0.21,-0.65,
1.801,-0.08,-0.05,0.91,-1.10,-0.22,-0.70,
1.804,-0.09,-0.05,0.91,-1.10,-0.22,-0.70,
1.805,-0.11,-0.05,0.91,-1.10,-0.22,-0.70,
1.806,-0.11,-0.05,0.91,-1.28,-0.21,-0.75,
1.808,-0.12,-0.06,0.91,-1.28,-0.21,-0.75,
1.81,-0.13,-0.06,0.91,-1.28,-0.21,-0.75,
1.813,-0.13,-0.06,0.91,-1.50,-0.28,-0.82,
1.813,-0.14,-0.06,0.92,-1.50,-0.28,-0.82,
1.815,-0.14,-0.06,0.92,-1.50,-0.28,-0.82,
1.816,-0.14,-0.06,0.92,-1.69,-0.35,-0.83,
1.818,-0.15,-0.06,0.92,-1.69,-0.35,-0.83,
1.826,-0.16,-0.06,0.93,-1.69,-0.35,-0.83,
1.827,-0.16,-0.06,0.93,-1.85,-0.42,-0.74,
1.827,-0.16,-0.06,0.93,-1.85,-0.42,-0.74,
1.827,-0.16,-0.06,0.93,-1.85,-0.42,-0.74,
1.828,-0.16,-0.06,0.93,-1.97,-0.45,-0.69,
1.829,-0.16,-0.06,0.93,-1.97,-0.45,-0.69,
1.83,-0.16,-0.05,0.93,-1.97,-0.45,-0.69,
1.831,-0.16,-0.05,0.93,-2.03,-0.46,-0.65,
1.833,-0.15,-0.05,0.93,-2.03,-0.46,-0.65,
1.839,-0.15,-0.05,0.93,-2.03,-0.46,-0.65,
1.839,-0.15,-0.05,0.93,-2.00,-0.46,-0.62,
1.839,-0.15,-0.05,0.93,-2.00,-0.46,-0.62,
1.84,-0.15,-0.05,0.93,-1.91,-0.43,-0.58,
1.841,-0.15,-0.05,0.94,-1.91,-0.43,-0.58,
1.843,-0.14,-0.04,0.93,-1.91,-0.43,-0.58,
1.845,-0.15,-0.04,0.94,-1.91,-0.43,-0.58,
1.845,-0.15,-0.04,0.94,-1.90,-0.41,-0.58,
1.848,-0.14,-0.04,0.93,-1.90,-0.41,-0.58,
1.85,-0.14,-0.04,0.93,-1.90,-0.41,-0.58,
1.85,-0.14,-0.04,0.93,-1.82,-0.41,-0.54,
1.853,-0.14,-0.04,0.92,-1.82,-0.41,-0.54,
1.855,-0.14,-0.04,0.92,-1.78,-0.41,-0.59,
1.856,-0.14,-0.04,0.92,-1.78,-0.41,-0.59,
1.858,-0.14,-0.04,0.91,-1.78,-0.41,-0.59,
1.86,-0.14,-0.03,0.90,-1.78,-0.41,-0.59,
1.86,-0.14,-0.03,0.90,-1.76,-0.41,-0.71,
1.863,-0.14,-0.03,0.89,-1.76,-0.41,-0.71,
1.866,-0.15,-0.03,0.89,-1.76,-0.41,-0.71,
1.866,-0.15,-0.03,0.89,-1.74,-0.41,-0.86,
1.868,-0.15,-0.03,0.88,-1.74,-0.41,-0.86,
1.871,-0.15,-0.02,0.87,-1.74,-0.41,-0.86,
1.871,-0.15,-0.02,0.87,-1.74,-0.41,-1.01,
1.873,-0.15,-0.01,0.87,-1.74,-0.41,-1.01,
1.876,-0.15,-0.01,0.87,-1.78,-0.39,-1.12,
1.876,-0.16,-0.01,0.86,-1.78,-0.39,-1.12,
1.878,-0.17,-0.01,0.85,-1.78,-0.39,-1.12,
1.88,-0.17,-0.00,0.85,-1.78,-0.39,-1.12,
1.881,-0.17,-0.00,0.85,-1.82,-0.29,-1.26,
1.883,-0.18,0.00,0.84,-1.82,-0.29,-1.26,
1.886,-0.19,0.00,0.84,-1.82,-0.29,-1.26,
1.886,-0.19,0.00,0.84,-1.92,-0.24,-1.35,
1.888,-0.20,0.01,0.84,-1.92,-0.24,-1.35,
1.89,-0.22,0.01,0.83,-1.92,-0.24,-1.35,
1.89,-0.22,0.01,0.83,-2.06,-0.19,-1.48,
1.893,-0.22,0.01,0.83,-2.06,-0.19,-1.48,
1.894,-0.23,0.01,0.84,-2.06,-0.19,-1.48,
1.895,-0.23,0.01,0.84,-2.27,-0.12,-1.48,
1.898,-0.24,0.01,0.83,-2.27,-0.12,-1.48,
1.9,-0.25,0.01,0.84,-2.27,-0.12,-1.48,
1.9,-0.25,0.01,0.84,-2.42,-0.15,-1.51,
1.903,-0.25,0.02,0.83,-2.42,-0.15,-1.51,
1.905,-0.25,0.02,0.83,-2.42,-0.15,-1.51,
1.906,-0.25,0.02,0.83,-2.58,-0.20,-1.51,
1.907,-0.26,0.01,0.83,-2.58,-0.20,-1.51,
1.91,-0.27,0.01,0.83,-2.58,-0.20,-1.51,
1.91,-0.27,0.01,0.83,-2.64,-0.15,-1.54,
1.913,-0.27,0.01,0.84,-2.64,-0.15,-1.54,
1.915,-0.28,0.01,0.85,-2.64,-0.15,-1.54,
1.915,-0.28,0.01,0.85,-2.75,-0.21,-1.51,
1.917,-0.28,0.01,0.85,-2.75,-0.21,-1.51,
1.922,-0.28,0.01,0.86,-2.75,-0.21,-1.51,
1.922,-0.28,0.01,0.86,-2.84,-0.24,-1.42,
1.923,-0.28,0.01,0.87,-2.84,-0.24,-1.42,
1.925,-0.29,0.02,0.88,-2.84,-0.24,-1.42,
1.925,-0.29,0.02,0.88,-2.89,-0.30,-1.28,
1.928,-0.28,0.02,0.90,-2.89,-0.30,-1.28,
1.93,-0.28,0.02,0.90,-2.89,-0.30,-1.28,
1.93,-0.28,0.02,0.90,-2.90,-0.24,-1.07,
1.933,-0.28,0.02,0.91,-2.90,-0.24,-1.07,
1.936,-0.27,0.03,0.91,-2.90,-0.24,-1.07,
1.936,-0.27,0.03,0.91,-2.84,-0.21,-0.87,
1.942,-0.27,0.03,0.92,-2.84,-0.21,-0.87,
1.942,-0.27,0.03,0.92,-2.76,-0.17,-0.75,
1.944,-0.26,0.03,0.93,-2.76,-0.17,-0.75,
1.945,-0.25,0.02,0.93,-2.76,-0.17,-0.75,
1.945,-0.25,0.02,0.93,-2.76,-0.17,-0.75,
1.945,-0.25,0.02,0.93,-2.62,-0.15,-0.60,
1.947,-0.25,0.03,0.94,-2.62,-0.15,-0.60,
1.95,-0.24,0.02,0.94,-2.62,-0.15,-0.60,
1.95,-0.24,0.02,0.94,-2.45,-0.16,-0.55,
1.952,-0.24,0.02,0.93,-2.45,-0.16,-0.55,
1.954,-0.23,0.02,0.93,-2.45,-0.16,-0.55,
1.955,-0.23,0.02,0.93,-2.34,-0.17,-0.50,
1.957,-0.23,0.01,0.93,-2.34,-0.17,-0.50,
1.959,-0.24,0.01,0.93,-2.34,-0.17,-0.50,
1.959,-0.24,0.01,0.93,-2.22,-0.21,-0.54,
1.962,-0.23,0.01,0.92,-2.22,-0.21,-0.54,
1.965,-0.23,0.01,0.92,-2.21,-0.28,-0.55,
1.965,-0.22,0.01,0.91,-2.21,-0.28,-0.55,
1.967,-0.23,0.01,0.91,-2.21,-0.28,-0.55,
1.97,-0.23,0.01,0.91,-2.21,-0.28,-0.55,
1.97,-0.23,0.01,0.91,-2.10,-0.31,-0.70,
1.972,-0.23,0.01,0.91,-2.10,-0.31,-0.70,
1.975,-0.23,0.01,0.90,-2.10,-0.31,-0.70,
1.975,-0.23,0.01,0.90,-2.07,-0.35,-0.72,
1.977,-0.23,0.01,0.90,-2.07,-0.35,-0.72,
1.979,-0.23,0.01,0.90,-2.07,-0.35,-0.72,
1.98,-0.23,0.01,0.90,-2.08,-0.37,-0.79,
1.982,-0.24,0.01,0.89,-2.08,-0.37,-0.79,
1.984,-0.24,0.01,0.89,-2.08,-0.37,-0.79,
1.985,-0.24,0.01,0.89,-2.07,-0.38,-0.86,
1.989,-0.24,0.01,0.90,-2.07,-0.38,-0.86,
1.99,-0.24,0.01,0.90,-2.09,-0.36,-0.90,
1.99,-0.24,0.01,0.89,-2.09,-0.36,-0.90,
1.992,-0.25,0.01,0.90,-2.09,-0.36,-0.90,
1.994,-0.25,0.01,0.90,-2.09,-0.36,-0.90,
1.995,-0.25,0.01,0.90,-2.09,-0.37,-0.88,
1.997,-0.26,0.01,0.91,-2.09,-0.37,-0.88,
1.998,-0.26,0.02,0.91,-2.09,-0.37,-0.88,
1.999,-0.26,0.02,0.91,-2.16,-0.35,-0.80,
2.002,-0.26,0.02,0.92,-2.16,-0.35,-0.80,
2.006,-0.26,0.03,0.92,-2.16,-0.35,-0.80,
2.006,-0.26,0.03,0.92,-2.21,-0.30,-0.74,
2.007,-0.26,0.03,0.92,-2.21,-0.30,-0.74,
2.008,-0.27,0.03,0.93,-2.21,-0.30,-0.74,
2.009,-0.27,0.03,0.93,-2.20,-0.21,-0.58,
2.011,-0.27,0.03,0.93,-2.20,-0.21,-0.58,
2.014,-0.27,0.04,0.94,-2.20,-0.21,-0.58,
2.014,-0.27,0.04,0.94,-2.25,-0.11,-0.56,
2.017,-0.27,0.04,0.95,-2.25,-0.11,-0.56,
2.018,-0.27,0.04,0.96,-2.25,-0.11,-0.56,
2.019,-0.27,0.04,0.96,-2.25,-0.08,-0.46,
2.026,-0.28,0.03,0.97,-2.25,-0.08,-0.46,
2.027,-0.28,0.04,0.98,-2.25,-0.08,-0.46,
2.028,-0.28,0.04,0.98,-2.26,-0.07,-0.30,
2.028,-0.28,0.04,0.98,-2.26,-0.07,-0.30,
2.028,-0.27,0.04,0.98,-2.26,-0.07,-0.30,
2.029,-0.27,0.04,0.98,-2.30,-0.05,-0.11,
2.032,-0.27,0.04,0.98,-2.30,-0.05,-0.11,
2.034,-0.27,0.04,0.99,-2.30,-0.05,-0.11,
2.034,-0.27,0.04,0.99,-2.24,0.01,-0.05,
2.036,-0.27,0.04,0.99,-2.24,0.01,-0.05,
2.039,-0.27,0.04,0.99,-2.19,0.02,0.01,
2.04,-0.27,0.04,0.99,-2.19,0.02,0.01,
2.041,-0.26,0.04,1.00,-2.19,0.02,0.01,
2.043,-0.25,0.04,1.00,-2.19,0.02,0.01,
2.044,-0.25,0.04,1.00,-2.09,0.04,0.08,
2.046,-0.25,0.04,1.00,-2.09,0.04,0.08,
2.049,-0.25,0.04,1.00,-2.09,0.04,0.08,
2.049,-0.25,0.04,1.00,-1.97,0.06,0.12,
2.051,-0.25,0.04,1.01,-1.97,0.06,0.12,
2.055,-0.24,0.04,1.01,-1.97,0.06,0.12,
2.055,-0.24,0.04,1.01,-1.86,0.03,0.19,
2.056,-0.24,0.04,1.01,-1.86,0.03,0.19,
2.058,-0.24,0.04,1.00,-1.86,0.03,0.19,
2.059,-0.24,0.04,1.00,-1.81,0.08,0.26,
2.061,-0.24,0.04,1.01,-1.81,0.08,0.26,
2.064,-0.23,0.03,1.01,-1.81,0.08,0.26,
2.064,-0.23,0.03,1.01,-1.76,0.05,0.22,
2.066,-0.23,0.02,1.01,-1.76,0.05,0.22,
2.068,-0.23,0.02,1.01,-1.76,0.05,0.22,
2.069,-0.23,0.02,1.01,-1.67,0.01,0.23,
2.071,-0.23,0.02,1.01,-1.67,0.01,0.23,
2.074,-0.23,0.02,1.01,-1.67,0.01,0.23,
2.074,-0.23,0.02,1.01,-1.55,-0.09,0.24,
2.076,-0.23,0.01,1.01,-1.55,-0.09,0.24,
2.079,-0.24,0.01,1.02,-1.55,-0.09,0.24,
2.079,-0.24,0.01,1.02,-1.54,-0.13,0.27,
2.081,-0.24,0.01,1.01,-1.54,-0.13,0.27,
2.083,-0.24,0.01,1.01,-1.54,-0.13,0.27,
2.084,-0.24,0.01,1.01,-1.58,-0.17,0.30,
2.085,-0.24,-0.00,1.01,-1.58,-0.17,0.30,
2.088,-0.24,0.00,1.02,-1.58,-0.17,0.30,
2.089,-0.24,0.00,1.02,-1.55,-0.18,0.27,
2.091,-0.24,0.01,1.01,-1.55,-0.18,0.27,
2.093,-0.24,0.00,1.02,-1.55,-0.18,0.27,
2.093,-0.24,0.00,1.02,-1.56,-0.24,0.32,
2.095,-0.24,0.00,1.02,-1.56,-0.24,0.32,
2.098,-0.23,0.00,1.01,-1.56,-0.24,0.32,
2.098,-0.23,0.00,1.01,-1.51,-0.19,0.36,
2.101,-0.23,0.00,1.02,-1.51,-0.19,0.36,
2.103,-0.23,-0.01,1.02,-1.51,-0.19,0.36,
2.103,-0.23,-0.01,1.02,-1.47,-0.19,0.33,
2.105,-0.23,-0.00,1.02,-1.47,-0.19,0.33,
2.108,-0.23,-0.00,1.02,-1.41,-0.20,0.36,
2.108,-0.23,0.00,1.02,-1.41,-0.20,0.36,
2.111,-0.22,-0.00,1.03,-1.41,-0.20,0.36,
2.113,-0.22,-0.00,1.03,-1.33,-0.18,0.37,
2.114,-0.23,-0.00,1.04,-1.33,-0.18,0.37,
2.115,-0.22,-0.01,1.04,-1.33,-0.18,0.37,
2.118,-0.23,-0.00,1.05,-1.33,-0.18,0.37,
2.118,-0.23,-0.00,1.05,-1.29,-0.18,0.50,
2.12,-0.22,-0.00,1.05,-1.29,-0.18,0.50,
2.124,-0.23,-0.00,1.06,-1.29,-0.18,0.50,
2.128,-0.23,-0.00,1.06,-1.27,-0.19,0.60,
2.128,-0.23,-0.01,1.06,-1.27,-0.19,0.60,
2.129,-0.23,-0.01,1.06,-1.26,-0.16,0.74,
2.129,-0.23,-0.01,1.07,-1.26,-0.16,0.74,
2.13,-0.24,-0.01,1.08,-1.26,-0.16,0.74,
2.133,-0.24,-0.01,1.08,-1.26,-0.16,0.74,
2.133,-0.24,-0.01,1.08,-1.29,-0.20,0.83,
2.135,-0.24,-0.02,1.09,-1.29,-0.20,0.83,
2.139,-0.24,-0.02,1.09,-1.33,-0.20,0.97,
2.139,-0.24,-0.01,1.09,-1.33,-0.20,0.97,
2.14,-0.25,-0.02,1.09,-1.33,-0.20,0.97,
2.143,-0.25,-0.03,1.10,-1.33,-0.20,0.97,
2.144,-0.25,-0.03,1.10,-1.33,-0.23,1.09,
2.145,-0.25,-0.03,1.10,-1.33,-0.23,1.09,
2.148,-0.25,-0.02,1.09,-1.33,-0.23,1.09,
2.148,-0.25,-0.02,1.09,-1.36,-0.29,1.13,
2.15,-0.25,-0.02,1.09,-1.36,-0.29,1.13,
2.152,-0.25,-0.02,1.09,-1.33,-0.31,1.11,
2.153,-0.26,-0.03,1.09,-1.33,-0.31,1.11,
2.155,-0.26,-0.03,1.09,-1.33,-0.31,1.11,
2.157,-0.25,-0.02,1.08,-1.33,-0.31,1.11,
2.158,-0.25,-0.02,1.08,-1.36,-0.29,1.07,
2.16,-0.25,-0.02,1.08,-1.36,-0.29,1.07,
2.162,-0.25,-0.02,1.08,-1.36,-0.29,1.07,
2.163,-0.25,-0.02,1.08,-1.34,-0.28,1.01,
2.165,-0.25,-0.02,1.07,-1.34,-0.28,1.01,
2.168,-0.25,-0.02,1.07,-1.34,-0.28,1.01,
2.168,-0.25,-0.02,1.07,-1.29,-0.24,0.94,
2.17,-0.24,-0.02,1.06,-1.29,-0.24,0.94,
2.172,-0.24,-0.02,1.05,-1.29,-0.24,0.94,
2.173,-0.24,-0.02,1.05,-1.22,-0.23,0.87,
2.175,-0.23,-0.02,1.04,-1.22,-0.23,0.87,
2.177,-0.23,-0.02,1.05,-1.22,-0.23,0.87,
2.177,-0.23,-0.02,1.05,-1.12,-0.17,0.75,
2.18,-0.23,-0.02,1.04,-1.12,-0.17,0.75,
2.182,-0.23,-0.02,1.03,-1.12,-0.17,0.75,
2.182,-0.23,-0.02,1.03,-1.03,-0.19,0.62,
2.185,-0.23,-0.02,1.03,-1.03,-0.19,0.62,
2.187,-0.23,-0.02,1.03,-1.03,-0.19,0.62,
2.188,-0.23,-0.02,1.03,-1.02,-0.14,0.52,
2.19,-0.23,-0.02,1.02,-1.02,-0.14,0.52,
2.192,-0.23,-0.02,1.02,-1.02,-0.14,0.52,
2.192,-0.23,-0.02,1.02,-0.95,-0.15,0.47,
2.195,-0.23,-0.02,1.02,-0.95,-0.15,0.47,
2.197,-0.23,-0.02,1.03,-0.95,-0.15,0.47,
2.198,-0.23,-0.02,1.03,-0.93,-0.11,0.40,
2.2,-0.23,-0.02,1.03,-0.93,-0.11,0.40,
2.203,-0.24,-0.02,1.04,-0.93,-0.11,0.40,
2.203,-0.24,-0.02,1.04,-0.93,-0.12,0.42,
2.206,-0.24,-0.02,1.05,-0.93,-0.12,0.42,
2.207,-0.26,-0.02,1.05,-0.93,-0.12,0.42,
2.207,-0.26,-0.02,1.05,-0.97,-0.13,0.55,
2.209,-0.26,-0.02,1.07,-0.97,-0.13,0.55,
2.212,-0.26,-0.02,1.07,-1.10,-0.13,0.70,
2.212,-0.25,-0.01,1.09,-1.10,-0.13,0.70,
2.214,-0.25,-0.00,1.10,-1.10,-0.13,0.70,
2.217,-0.25,0.00,1.11,-1.10,-0.13,0.70,
2.217,-0.25,0.00,1.11,-1.10,0.01,0.96,
2.219,-0.26,0.00,1.12,-1.10,0.01,0.96,
2.226,-0.25,-0.00,1.13,-1.10,0.01,0.96,
2.227,-0.25,-0.00,1.13,-1.02,0.14,1.23,
2.227,-0.25,-0.01,1.14,-1.02,0.14,1.23,
2.227,-0.25,-0.01,1.15,-1.02,0.14,1.23,
2.228,-0.25,-0.01,1.15,-1.05,0.18,1.42,
2.229,-0.26,-0.02,1.15,-1.05,0.18,1.42,
2.231,-0.25,-0.03,1.15,-1.05,0.18,1.42,
2.232,-0.25,-0.03,1.15,-1.00,0.12,1.62,
2.234,-0.25,-0.03,1.16,-1.00,0.12,1.62,
2.237,-0.25,-0.03,1.16,-1.00,0.00,1.69,
2.237,-0.25,-0.03,1.16,-1.00,0.00,1.69,
2.24,-0.24,-0.04,1.15,-1.00,0.00,1.69,
2.241,-0.24,-0.04,1.15,-1.00,0.00,1.69,
2.241,-0.24,-0.04,1.15,-0.94,-0.08,1.74,
2.244,-0.24,-0.04,1.14,-0.94,-0.08,1.74,
2.247,-0.23,-0.04,1.14,-0.94,-0.08,1.74,
2.247,-0.23,-0.04,1.14,-0.85,-0.15,1.67,
2.249,-0.22,-0.05,1.13,-0.85,-0.15,1.67,
2.251,-0.22,-0.05,1.12,-0.85,-0.15,1.67,
2.251,-0.22,-0.05,1.12,-0.75,-0.15,1.58,
2.254,-0.22,-0.05,1.11,-0.75,-0.15,1.58,
2.256,-0.21,-0.05,1.11,-0.75,-0.15,1.58,
2.257,-0.21,-0.05,1.11,-0.61,-0.16,1.47,
2.259,-0.20,-0.05,1.10,-0.61,-0.16,1.47,
2.261,-0.20,-0.05,1.10,-0.49,-0.15,1.29,
2.261,-0.20,-0.05,1.10,-0.49,-0.15,1.29,
2.264,-0.20,-0.05,1.09,-0.49,-0.15,1.29,
2.267,-0.20,-0.05,1.09,-0.49,-0.15,1.29,
2.267,-0.20,-0.05,1.09,-0.38,-0.17,1.17,
2.269,-0.20,-0.05,1.09,-0.38,-0.17,1.17,
2.271,-0.20,-0.05,1.08,-0.38,-0.17,1.17,
2.272,-0.20,-0.05,1.08,-0.34,-0.14,1.10,
2.275,-0.20,-0.05,1.08,-0.34,-0.14,1.10,
2.276,-0.20,-0.05,1.08,-0.34,-0.14,1.10,
2.276,-0.20,-0.05,1.08,-0.36,-0.14,1.06,
2.279,-0.20,-0.05,1.08,-0.36,-0.14,1.06,
2.282,-0.20,-0.05,1.07,-0.36,-0.14,1.06,
2.282,-0.20,-0.05,1.07,-0.36,-0.12,0.99,
2.284,-0.20,-0.05,1.07,-0.36,-0.12,0.99,
2.286,-0.21,-0.05,1.07,-0.36,-0.12,0.99,
2.287,-0.21,-0.05,1.07,-0.35,-0.10,0.93,
2.289,-0.22,-0.05,1.06,-0.35,-0.10,0.93,
2.29,-0.22,-0.05,1.06,-0.35,-0.10,0.93,
2.291,-0.22,-0.05,1.06,-0.43,-0.13,0.88,
2.293,-0.21,-0.04,1.05,-0.43,-0.13,0.88,
2.295,-0.22,-0.04,1.05,-0.43,-0.13,0.88,
2.296,-0.22,-0.04,1.05,-0.52,-0.08,0.78,
2.298,-0.21,-0.04,1.05,-0.52,-0.08,0.78,
2.301,-0.21,-0.04,1.04,-0.52,-0.08,0.78,
2.301,-0.21,-0.04,1.04,-0.48,-0.02,0.71,
2.303,-0.21,-0.04,1.04,-0.48,-0.02,0.71,
2.306,-0.20,-0.03,1.04,-0.48,-0.02,0.71,
2.309,-0.20,-0.03,1.04,-0.44,0.06,0.65,
2.309,-0.20,-0.04,1.04,-0.44,0.06,0.65,
2.31,-0.19,-0.04,1.04,-0.44,0.06,0.65,
2.311,-0.19,-0.04,1.04,-0.37,0.09,0.59,
2.313,-0.19,-0.04,1.04,-0.37,0.09,0.59,
2.315,-0.18,-0.04,1.04,-0.37,0.09,0.59,
2.316,-0.18,-0.04,1.04,-0.26,0.09,0.60,
2.318,-0.18,-0.04,1.04,-0.26,0.09,0.60,
2.321,-0.18,-0.04,1.04,-0.26,0.09,0.60,
2.321,-0.18,-0.04,1.04,-0.16,0.10,0.56,
2.323,-0.17,-0.04,1.05,-0.16,0.10,0.56,
2.325,-0.17,-0.05,1.06,-0.16,0.10,0.56,
2.325,-0.17,-0.05,1.06,-0.08,0.08,0.59,
2.328,-0.17,-0.05,1.07,-0.08,0.08,0.59,
2.331,-0.17,-0.06,1.08,-0.08,0.08,0.59,
2.331,-0.17,-0.06,1.08,-0.05,0.04,0.75,
2.332,-0.16,-0.05,1.08,-0.05,0.04,0.75,
2.335,-0.16,-0.05,1.09,-0.05,0.04,0.75,
2.335,-0.16,-0.05,1.09,0.02,-0.02,0.93,
2.337,-0.16,-0.06,1.10,0.02,-0.02,0.93,
2.343,-0.15,-0.07,1.10,0.02,-0.02,0.93,
2.344,-0.15,-0.07,1.10,0.10,0.01,1.06,
2.344,-0.15,-0.07,1.10,0.10,0.01,1.06,
2.345,-0.15,-0.08,1.11,0.10,0.01,1.06,
2.345,-0.15,-0.08,1.11,0.16,-0.10,1.15,
2.348,-0.14,-0.08,1.11,0.16,-0.10,1.15,
2.35,-0.14,-0.08,1.11,0.16,-0.10,1.15,
2.35,-0.14,-0.08,1.11,0.21,-0.18,1.22,
2.353,-0.14,-0.08,1.11,0.21,-0.18,1.22,
2.356,-0.14,-0.09,1.12,0.21,-0.18,1.22,
2.357,-0.14,-0.09,1.12,0.30,-0.21,1.29,
2.358,-0.14,-0.09,1.11,0.30,-0.21,1.29,
2.36,-0.14,-0.09,1.11,0.30,-0.21,1.29,
2.36,-0.14,-0.09,1.11,0.34,-0.25,1.32,
2.362,-0.14,-0.09,1.10,0.34,-0.25,1.32,
2.365,-0.13,-0.10,1.10,0.34,-0.25,1.32,
2.366,-0.13,-0.10,1.10,0.36,-0.29,1.27,
2.367,-0.13,-0.10,1.09,0.36,-0.29,1.27,
2.37,-0.13,-0.10,1.09,0.36,-0.29,1.27,
2.371,-0.13,-0.10,1.09,0.40,-0.34,1.20,
2.373,-0.13,-0.10,1.09,0.40,-0.34,1.20,
2.376,-0.12,-0.10,1.08,0.40,-0.34,1.20,
2.376,-0.12,-0.10,1.08,0.46,-0.38,1.07,
2.377,-0.12,-0.10,1.08,0.46,-0.38,1.07,
2.38,-0.12,-0.10,1.08,0.46,-0.38,1.07,
2.38,-0.12,-0.10,1.08,0.48,-0.36,1.01,
2.382,-0.12,-0.09,1.07,0.48,-0.36,1.01,
2.385,-0.12,-0.09,1.07,0.50,-0.35,0.94,
2.386,-0.12,-0.09,1.07,0.50,-0.35,0.94,
2.387,-0.12,-0.09,1.07,0.50,-0.35,0.94,
2.39,-0.12,-0.09,1.07,0.50,-0.35,0.94,
2.391,-0.12,-0.09,1.07,0.52,-0.29,0.87,
2.392,-0.12,-0.09,1.07,0.52,-0.29,0.87,
2.394,-0.12,-0.09,1.06,0.52,-0.29,0.87,
2.395,-0.12,-0.09,1.06,0.54,-0.27,0.88,
2.397,-0.12,-0.09,1.07,0.54,-0.27,0.88,
2.399,-0.12,-0.08,1.06,0.54,-0.27,0.88,
2.399,-0.12,-0.08,1.06,0.56,-0.26,0.84,
2.402,-0.12,-0.08,1.07,0.56,-0.26,0.84,
2.404,-0.12,-0.08,1.06,0.56,-0.26,0.84,
2.404,-0.12,-0.08,1.06,0.57,-0.21,0.82,
2.408,-0.12,-0.07,1.07,0.57,-0.21,0.82,
2.409,-0.12,-0.08,1.07,0.57,-0.21,0.82,
2.409,-0.12,-0.08,1.07,0.56,-0.15,0.83,
2.412,-0.11,-0.08,1.07,0.56,-0.15,0.83,
2.414,-0.12,-0.08,1.06,0.56,-0.15,0.83,
2.415,-0.12,-0.08,1.06,0.57,-0.11,0.89,
2.417,-0.11,-0.08,1.06,0.57,-0.11,0.89,
2.419,-0.11,-0.08,1.05,0.57,-0.11,0.89,
2.419,-0.11,-0.08,1.05,0.59,-0.14,0.81,
2.427,-0.11,-0.08,1.05,0.59,-0.14,0.81,
2.428,-0.11,-0.08,1.05,0.59,-0.14,0.81,
2.428,-0.11,-0.08,1.05,0.59,-0.12,0.74,
2.428,-0.11,-0.08,1.04,0.59,-0.12,0.74,
2.429,-0.11,-0.08,1.05,0.59,-0.12,0.74,
2.43,-0.11,-0.08,1.05,0.59,-0.14,0.70,
2.432,-0.11,-0.08,1.05,0.59,-0.14,0.70,
2.434,-0.11,-0.09,1.05,0.59,-0.14,0.70,
2.434,-0.11,-0.09,1.05,0.63,-0.16,0.65,
2.437,-0.10,-0.08,1.05,0.63,-0.16,0.65,
2.44,-0.09,-0.07,1.05,0.63,-0.16,0.65,
2.44,-0.09,-0.07,1.05,0.62,-0.21,0.67,
2.442,-0.08,-0.07,1.04,0.62,-0.21,0.67,
2.444,-0.08,-0.07,1.05,0.62,-0.21,0.67,
2.444,-0.08,-0.07,1.05,0.74,-0.14,0.64,
2.446,-0.08,-0.06,1.05,0.74,-0.14,0.64,
2.449,-0.07,-0.06,1.05,0.74,-0.14,0.64,
2.449,-0.07,-0.06,1.05,0.89,-0.04,0.62,
2.452,-0.07,-0.07,1.05,0.89,-0.04,0.62,
2.455,-0.07,-0.07,1.05,0.89,-0.04,0.62,
2.455,-0.07,-0.07,1.05,0.96,0.02,0.66,
2.457,-0.07,-0.07,1.06,0.96,0.02,0.66,
2.46,-0.07,-0.07,1.06,1.00,-0.04,0.69,
2.46,-0.07,-0.07,1.06,1.00,-0.04,0.69,
2.461,-0.07,-0.07,1.06,1.00,-0.04,0.69,
2.464,-0.08,-0.07,1.08,1.00,-0.04,0.69,
2.464,-0.08,-0.07,1.08,0.99,-0.07,0.73,
2.466,-0.08,-0.08,1.08,0.99,-0.07,0.73,
2.469,-0.08,-0.08,1.09,0.99,-0.07,0.73,
2.469,-0.08,-0.08,1.09,0.94,-0.10,0.86,
2.472,-0.08,-0.08,1.10,0.94,-0.10,0.86,
2.475,-0.09,-0.09,1.10,0.94,-0.10,0.86,
2.476,-0.09,-0.09,1.10,0.90,-0.13,1.01,
2.476,-0.09,-0.08,1.11,0.90,-0.13,1.01,
2.479,-0.08,-0.09,1.11,0.90,-0.13,1.01,
2.48,-0.08,-0.09,1.11,0.86,-0.19,1.13,
2.482,-0.08,-0.09,1.12,0.86,-0.19,1.13,
2.484,-0.09,-0.09,1.13,0.86,-0.19,1.13,
2.484,-0.09,-0.09,1.13,0.84,-0.20,1.26,
2.487,-0.08,-0.10,1.14,0.84,-0.20,1.26,
2.489,-0.08,-0.10,1.14,0.84,-0.20,1.26,
2.489,-0.08,-0.10,1.14,0.85,-0.25,1.41,
2.492,-0.08,-0.10,1.14,0.85,-0.25,1.41,
2.494,-0.08,-0.10,1.15,0.85,-0.25,1.41,
2.494,-0.08,-0.10,1.15,0.85,-0.30,1.50,
2.497,-0.08,-0.10,1.15,0.85,-0.30,1.50,
2.499,-0.07,-0.10,1.15,0.85,-0.30,1.50,
2.499,-0.07,-0.10,1.15,0.86,-0.34,1.56,
2.501,-0.08,-0.10,1.14,0.86,-0.34,1.56,
2.504,-0.07,-0.09,1.14,0.86,-0.34,1.56,
2.504,-0.07,-0.09,1.14,0.92,-0.32,1.61,
2.507,-0.07,-0.09,1.13,0.92,-0.32,1.61,
2.509,-0.06,-0.09,1.13,0.92,-0.32,1.61,
2.509,-0.06,-0.09,1.13,0.93,-0.28,1.53,
2.511,-0.05,-0.09,1.11,0.93,-0.28,1.53,
2.513,-0.05,-0.09,1.10,0.93,-0.28,1.53,
2.514,-0.05,-0.09,1.10,1.02,-0.28,1.42,
2.516,-0.04,-0.09,1.10,1.02,-0.28,1.42,
2.518,-0.04,-0.09,1.09,1.02,-0.28,1.42,
2.518,-0.04,-0.09,1.09,1.15,-0.25,1.21,
2.521,-0.03,-0.09,1.08,1.15,-0.25,1.21,
2.526,-0.03,-0.09,1.07,1.15,-0.25,1.21,
2.526,-0.03,-0.09,1.07,1.24,-0.27,1.05,
2.526,-0.02,-0.09,1.06,1.24,-0.27,1.05,
2.528,-0.01,-0.09,1.05,1.24,-0.27,1.05,
2.528,-0.01,-0.09,1.05,1.32,-0.29,0.88,
2.532,-0.00,-0.09,1.04,1.32,-0.29,0.88,
2.534,0.00,-0.09,1.04,1.32,-0.29,0.88,
2.534,0.00,-0.09,1.04,1.47,-0.29,0.66,
2.536,0.02,-0.09,1.03,1.47,-0.29,0.66,
2.539,0.01,-0.08,1.03,1.47,-0.29,0.66,
2.54,0.01,-0.08,1.03,1.55,-0.28,0.53,
2.542,0.02,-0.08,1.03,1.55,-0.28,0.53,
2.543,0.03,-0.07,1.02,1.55,-0.28,0.53,
2.543,0.03,-0.07,1.02,1.70,-0.21,0.42,
2.546,0.03,-0.07,1.02,1.70,-0.21,0.42,
2.548,0.03,-0.07,1.03,1.70,-0.21,0.42,
2.548,0.03,-0.07,1.03,1.78,-0.13,0.35,
2.551,0.03,-0.07,1.03,1.78,-0.13,0.35,
2.554,0.03,-0.06,1.03,1.78,-0.13,0.35,
2.554,0.03,-0.06,1.03,1.83,-0.09,0.33,
2.556,0.03,-0.06,1.04,1.83,-0.09,0.33,
2.558,0.04,-0.07,1.05,1.83,-0.09,0.33,
2.559,0.04,-0.07,1.05,1.81,-0.02,0.40,
2.561,0.03,-0.07,1.05,1.81,-0.02,0.40,
2.563,0.03,-0.07,1.05,1.81,-0.02,0.40,
2.563,0.03,-0.07,1.05,1.82,-0.04,0.55,
2.566,0.03,-0.07,1.06,1.82,-0.04,0.55,
2.569,0.02,-0.07,1.06,1.82,-0.04,0.55,
2.569,0.02,-0.07,1.06,1.73,-0.08,0.62,
2.571,0.03,-0.07,1.07,1.73,-0.08,0.62,
2.575,0.03,-0.07,1.07,1.73,-0.08,0.62,
2.575,0.03,-0.07,1.07,1.66,-0.11,0.68,
2.576,0.03,-0.07,1.08,1.66,-0.11,0.68,
2.578,0.02,-0.08,1.08,1.66,-0.11,0.68,
2.578,0.02,-0.08,1.08,1.66,-0.08,0.78,
2.581,0.02,-0.08,1.09,1.66,-0.08,0.78,
2.583,0.02,-0.08,1.09,1.62,-0.12,0.86,
2.584,0.02,-0.07,1.09,1.62,-0.12,0.86,
2.586,0.02,-0.07,1.09,1.62,-0.12,0.86,
2.588,0.02,-0.08,1.09,1.62,-0.12,0.86,
2.589,0.02,-0.08,1.09,1.55,-0.15,0.95,
2.591,0.02,-0.07,1.10,1.55,-0.15,0.95,
2.593,0.03,-0.07,1.09,1.55,-0.15,0.95,
2.593,0.03,-0.07,1.09,1.56,-0.14,0.97,
2.596,0.02,-0.07,1.09,1.56,-0.14,0.97,
2.598,0.03,-0.07,1.09,1.56,-0.14,0.97,
2.598,0.03,-0.07,1.09,1.57,-0.14,0.99,
2.601,0.03,-0.07,1.09,1.57,-0.14,0.99,
2.603,0.04,-0.07,1.08,1.57,-0.14,0.99,
2.604,0.04,-0.07,1.08,1.59,-0.12,0.97,
2.606,0.04,-0.07,1.08,1.59,-0.12,0.97,
2.608,0.04,-0.07,1.08,1.59,-0.12,0.97,
2.609,0.04,-0.07,1.08,1.67,-0.12,0.93,
2.61,0.05,-0.06,1.07,1.67,-0.12,0.93,
2.612,0.06,-0.06,1.07,1.67,-0.12,0.93,
2.613,0.06,-0.06,1.07,1.72,-0.09,0.84,
2.615,0.06,-0.06,1.06,1.72,-0.09,0.84,
2.618,0.07,-0.05,1.07,1.72,-0.09,0.84,
2.618,0.07,-0.05,1.07,1.85,-0.04,0.76,
2.62,0.07,-0.05,1.06,1.85,-0.04,0.76,
2.623,0.08,-0.06,1.05,1.85,-0.04,0.76,
2.623,0.08,-0.06,1.05,1.91,-0.01,0.71,
2.625,0.09,-0.05,1.04,1.91,-0.01,0.71,
2.627,0.09,-0.06,1.04,1.91,-0.01,0.71,
2.628,0.09,-0.06,1.04,2.03,-0.03,0.58,
2.63,0.09,-0.06,1.03,2.03,-0.03,0.58,
2.633,0.09,-0.06,1.02,2.03,-0.03,0.58,
2.633,0.09,-0.06,1.02,2.12,-0.05,0.45,
2.635,0.09,-0.06,1.02,2.12,-0.05,0.45,
2.638,0.09,-0.06,1.02,2.12,-0.05,0.45,
2.638,0.09,-0.06,1.02,2.10,-0.10,0.33,
2.641,0.09,-0.07,1.01,2.10,-0.10,0.33,
2.646,0.09,-0.06,1.01,2.10,-0.10,0.33,
2.647,0.09,-0.06,1.01,2.15,-0.15,0.25,
2.647,0.09,-0.07,1.01,2.15,-0.15,0.25,
2.647,0.09,-0.07,1.01,2.14,-0.19,0.19,
2.648,0.09,-0.07,1.01,2.14,-0.19,0.19,
2.65,0.09,-0.07,1.01,2.14,-0.19,0.19,
2.652,0.09,-0.07,1.01,2.14,-0.19,0.19,
2.652,0.09,-0.07,1.01,2.12,-0.22,0.17,
2.654,0.08,-0.07,1.01,2.12,-0.22,0.17,
2.658,0.08,-0.06,1.01,2.12,-0.22,0.17,
2.659,0.08,-0.06,1.01,2.07,-0.24,0.14,
2.659,0.08,-0.06,1.01,2.07,-0.24,0.14,
2.662,0.09,-0.06,1.01,2.07,-0.24,0.14,
2.662,0.09,-0.06,1.01,2.02,-0.22,0.15,
2.664,0.08,-0.05,1.02,2.02,-0.22,0.15,
2.668,0.07,-0.05,1.01,2.02,-0.22,0.15,
2.668,0.07,-0.05,1.01,2.02,-0.20,0.17,
2.67,0.07,-0.05,1.01,2.02,-0.20,0.17,
2.672,0.07,-0.05,1.01,2.02,-0.20,0.17,
2.673,0.07,-0.05,1.01,1.95,-0.11,0.19,
2.676,0.07,-0.05,1.01,1.95,-0.11,0.19,
2.677,0.07,-0.05,1.01,1.95,-0.11,0.19,
2.677,0.07,-0.05,1.01,1.86,-0.15,0.19,
2.679,0.07,-0.04,1.01,1.86,-0.15,0.19,
2.682,0.06,-0.05,1.01,1.86,-0.15,0.19,
2.682,0.06,-0.05,1.01,1.84,-0.08,0.16,
2.684,0.06,-0.04,1.01,1.84,-0.08,0.16,
2.686,0.05,-0.05,1.01,1.84,-0.08,0.16,
2.687,0.05,-0.05,1.01,1.78,-0.09,0.11,
2.689,0.05,-0.05,1.00,1.78,-0.09,0.11,
2.692,0.04,-0.04,1.00,1.78,-0.09,0.11,
2.693,0.04,-0.04,1.00,1.68,-0.08,0.12,
2.694,0.03,-0.04,1.00,1.68,-0.08,0.12,
2.696,0.02,-0.04,1.01,1.68,-0.08,0.12,
2.697,0.02,-0.04,1.01,1.55,-0.08,0.07,
2.699,0.02,-0.04,1.00,1.55,-0.08,0.07,
2.701,0.02,-0.04,1.00,1.55,-0.08,0.07,
2.701,0.02,-0.04,1.00,1.40,-0.07,0.09,
2.704,0.01,-0.04,1.01,1.40,-0.07,0.09,
2.706,-0.00,-0.04,1.01,1.40,-0.07,0.09,
2.707,-0.00,-0.04,1.01,1.28,-0.07,0.07,
2.709,-0.01,-0.04,1.01,1.28,-0.07,0.07,
2.711,-0.01,-0.03,1.02,1.28,-0.07,0.07,
2.712,-0.01,-0.03,1.02,1.14,-0.07,0.13,
2.714,-0.02,-0.04,1.02,1.14,-0.07,0.13,
2.716,-0.02,-0.03,1.02,1.14,-0.07,0.13,
2.717,-0.02,-0.03,1.02,0.99,-0.03,0.17,
2.719,-0.02,-0.03,1.03,0.99,-0.03,0.17,
2.721,-0.03,-0.03,1.03,0.99,-0.03,0.17,
2.721,-0.03,-0.03,1.03,0.88,-0.01,0.25,
2.729,-0.03,-0.03,1.02,0.88,-0.01,0.25,
2.729,-0.02,-0.03,1.03,0.88,-0.01,0.25,
2.73,-0.02,-0.03,1.03,0.84,0.00,0.30,
2.73,-0.02,-0.03,1.02,0.84,0.00,0.30,
2.731,-0.02,-0.03,1.01,0.84,0.00,0.30,
2.731,-0.02,-0.03,1.01,0.84,0.01,0.27,
2.734,-0.01,-0.03,1.01,0.84,0.01,0.27,
2.737,-0.01,-0.03,1.01,0.84,0.01,0.27,
2.738,-0.01,-0.03,1.01,0.86,0.02,0.19,
2.738,-0.00,-0.03,1.00,0.86,0.02,0.19,
2.742,0.00,-0.03,0.99,0.86,0.02,0.19,
2.742,0.00,-0.03,0.99,0.95,0.00,0.11,
2.744,0.01,-0.03,0.99,0.95,0.00,0.11,
2.746,0.01,-0.04,0.99,0.95,0.00,0.11,
2.747,0.01,-0.04,0.99,1.01,-0.00,-0.02,
2.748,0.02,-0.03,0.98,1.01,-0.00,-0.02,
2.751,0.03,-0.03,0.98,1.01,-0.00,-0.02,
2.751,0.03,-0.03,0.98,1.10,-0.06,-0.08,
2.753,0.03,-0.03,0.97,1.10,-0.06,-0.08,
2.757,0.04,-0.04,0.96,1.10,-0.06,-0.08,
2.757,0.04,-0.04,0.96,1.21,-0.05,-0.19,
2.759,0.04,-0.04,0.96,1.21,-0.05,-0.19,
2.762,0.05,-0.04,0.95,1.21,-0.05,-0.19,
2.762,0.05,-0.04,0.95,1.30,-0.07,-0.33,
2.763,0.05,-0.04,0.95,1.30,-0.07,-0.33,
2.767,0.05,-0.04,0.94,1.30,-0.07,-0.33,
2.767,0.05,-0.04,0.94,1.38,-0.09,-0.43,
2.768,0.05,-0.05,0.94,1.38,-0.09,-0.43,
2.771,0.04,-0.05,0.94,1.38,-0.09,-0.43,
2.772,0.04,-0.05,0.94,1.40,-0.14,-0.54,
2.773,-0.01,-0.05,0.95,1.40,-0.14,-0.54,
2.777,-0.06,-0.05,0.98,1.40,-0.14,-0.54,
2.778,-0.06,-0.05,0.98,1.34,-0.24,-0.59,
2.778,-0.09,-0.05,0.99,1.34,-0.24,-0.59,
2.781,-0.09,-0.05,0.99,0.60,-0.23,-0.35,
2.781,-0.12,-0.05,0.99,0.60,-0.23,-0.35,
2.783,-0.12,-0.04,0.98,0.60,-0.23,-0.35,
2.785,-0.09,-0.03,0.97,0.60,-0.23,-0.35,
2.786,-0.09,-0.03,0.97,-0.15,-0.23,-0.06,
2.788,-0.04,-0.01,0.97,-0.15,-0.23,-0.06,
2.792,-0.01,0.01,0.97,-0.15,-0.23,-0.06,
2.792,-0.01,0.01,0.97,-0.12,-0.08,-0.20,
2.793,0.01,0.02,0.97,-0.12,-0.08,-0.20,
2.795,0.01,0.02,0.97,-0.12,-0.08,-0.20,
2.796,0.01,0.02,0.97,0.59,0.24,-0.26,
2.798,0.01,0.02,0.98,0.59,0.24,-0.26,
2.801,-0.02,0.01,1.00,0.59,0.24,-0.26,
2.803,-0.02,0.01,1.00,0.98,0.41,-0.26,
2.804,-0.05,0.01,1.01,0.98,0.41,-0.26,
2.806,-0.05,0.01,1.01,0.79,0.39,-0.10,
2.806,-0.07,-0.01,1.03,0.79,0.39,-0.10,
2.809,-0.09,-0.01,1.04,0.79,0.39,-0.10,
2.811,-0.10,-0.02,1.04,0.79,0.39,-0.10,
2.811,-0.10,-0.02,1.04,0.27,0.22,0.20,
2.813,-0.11,-0.02,1.04,0.27,0.22,0.20,
2.816,-0.11,-0.02,1.04,-0.05,0.08,0.40,
2.816,-0.12,-0.02,1.04,-0.05,0.08,0.40,
2.818,-0.11,-0.01,1.04,-0.05,0.08,0.40,
2.821,-0.10,-0.01,1.03,-0.05,0.08,0.40,
2.821,-0.10,-0.01,1.03,-0.25,0.03,0.41,
2.824,-0.10,-0.00,1.02,-0.25,0.03,0.41,
2.829,-0.09,0.00,1.01,-0.25,0.03,0.41,
2.83,-0.09,0.00,1.01,-0.20,0.11,0.36,
2.83,-0.08,0.01,1.00,-0.20,0.11,0.36,
2.831,-0.08,0.01,1.00,-0.04,0.15,0.16,
2.831,-0.07,0.02,0.99,-0.04,0.15,0.16,
2.834,-0.07,0.01,0.98,-0.04,0.15,0.16,
2.835,-0.06,0.01,0.98,-0.04,0.15,0.16,
2.835,-0.06,0.01,0.98,0.12,0.27,-0.03,
2.838,-0.06,0.01,0.97,0.12,0.27,-0.03,
2.841,-0.06,0.01,0.96,0.12,0.27,-0.03,
2.841,-0.06,0.01,0.96,0.22,0.26,-0.22,
2.846,-0.06,-0.00,0.96,0.22,0.26,-0.22,
2.846,-0.05,-0.00,0.95,0.22,0.26,-0.22,
2.846,-0.05,-0.00,0.95,0.25,0.22,-0.35,
2.848,-0.04,-0.01,0.94,0.25,0.22,-0.35,
2.85,-0.04,-0.01,0.94,0.25,0.22,-0.35,
2.85,-0.04,-0.01,0.94,0.32,0.09,-0.45,
2.853,-0.03,-0.01,0.94,0.32,0.09,-0.45,
2.856,-0.02,-0.01,0.94,0.32,0.09,-0.45,
2.856,-0.02,-0.01,0.94,0.42,0.03,-0.57,
2.858,-0.01,-0.01,0.94,0.42,0.03,-0.57,
2.86,-0.01,-0.01,0.94,0.42,0.03,-0.57,
2.861,-0.01,-0.01,0.94,0.59,0.01,-0.55,
2.863,-0.00,-0.00,0.94,0.59,0.01,-0.55,
2.865,0.00,-0.01,0.96,0.59,0.01,-0.55,
2.865,0.00,-0.01,0.96,0.70,0.02,-0.58,
2.868,0.01,-0.00,0.95,0.70,0.02,-0.58,
2.87,0.01,0.00,0.96,0.70,0.02,-0.58,
2.871,0.01,0.00,0.96,0.76,0.03,-0.49,
2.873,0.01,0.00,0.97,0.76,0.03,-0.49,
2.875,0.01,0.00,0.97,0.76,0.03,-0.49,
2.875,0.01,0.00,0.97,0.83,0.11,-0.42,
2.878,0.01,0.00,0.98,0.83,0.11,-0.42,
2.88,0.01,0.00,0.99,0.83,0.11,-0.42,
2.88,0.01,0.00,0.99,0.84,0.11,-0.31,
2.883,0.00,0.00,0.99,0.84,0.11,-0.31,
2.885,0.00,0.00,0.99,0.84,0.11,-0.18,
2.886,0.00,0.00,0.99,0.84,0.11,-0.18,
2.888,0.00,0.00,1.00,0.84,0.11,-0.18,
2.89,0.00,0.01,0.99,0.84,0.11,-0.18,
2.89,0.00,0.01,0.99,0.76,0.12,-0.08,
2.893,-0.00,0.01,1.00,0.76,0.12,-0.08,
2.896,-0.01,0.01,1.00,0.76,0.12,-0.08,
2.896,-0.01,0.01,1.00,0.73,0.16,-0.04,
2.897,-0.01,0.01,1.00,0.73,0.16,-0.04,
2.9,-0.01,0.01,1.00,0.73,0.16,-0.04,
2.901,-0.01,0.01,1.00,0.69,0.14,-0.04,
2.903,-0.01,0.01,1.00,0.69,0.14,-0.04,
2.905,-0.01,0.01,1.00,0.69,0.14,-0.04,
2.906,-0.01,0.01,1.00,0.64,0.19,-0.00,
2.908,-0.01,0.01,1.00,0.64,0.19,-0.00,
2.91,-0.01,0.01,1.00,0.64,0.19,-0.00,
2.91,-0.01,0.01,1.00,0.65,0.19,-0.02,
2.912,-0.02,0.01,1.01,0.65,0.19,-0.02,
2.915,-0.02,0.01,1.01,0.65,0.19,-0.02,
2.916,-0.02,0.01,1.01,0.59,0.16,-0.03,
2.918,-0.02,0.00,1.00,0.59,0.16,-0.03,
2.92,-0.02,0.00,1.00,0.54,0.13,0.08,
2.92,-0.02,-0.00,1.00,0.54,0.13,0.08,
2.922,-0.02,-0.01,1.00,0.54,0.13,0.08,
2.925,-0.02,-0.01,1.00,0.54,0.13,0.08,
2.925,-0.02,-0.01,1.00,0.57,0.05,-0.01,
2.927,-0.02,-0.01,0.99,0.57,0.05,-0.01,
2.93,-0.02,-0.01,0.99,0.57,0.05,-0.01,
2.93,-0.02,-0.01,0.99,0.53,-0.02,0.01,
2.932,-0.02,-0.01,0.99,0.53,-0.02,0.01,
2.935,-0.02,-0.02,0.98,0.53,-0.02,0.01,
2.936,-0.02,-0.02,0.98,0.55,-0.06,-0.07,
2.937,-0.02,-0.02,0.98,0.55,-0.06,-0.07,
2.94,-0.02,-0.02,0.98,0.55,-0.06,-0.07,
2.94,-0.02,-0.02,0.98,0.53,-0.13,-0.15,
2.942,-0.02,-0.02,0.98,0.53,-0.13,-0.15,
2.948,-0.02,-0.02,0.98,0.53,-0.13,-0.15,
2.949,-0.02,-0.02,0.98,0.52,-0.19,-0.18,
2.949,-0.03,-0.01,0.99,0.52,-0.19,-0.18,
2.949,-0.03,-0.02,0.99,0.52,-0.19,-0.18,
2.949,-0.03,-0.02,0.99,0.54,-0.21,-0.21,
2.952,-0.02,-0.01,0.99,0.54,-0.21,-0.21,
2.955,-0.02,-0.01,0.98,0.54,-0.21,-0.21,
2.955,-0.02,-0.01,0.98,0.52,-0.18,-0.10,
2.957,-0.02,-0.00,0.98,0.52,-0.18,-0.10,
2.96,-0.01,0.00,0.97,0.52,-0.18,-0.10,
2.96,-0.01,0.00,0.97,0.57,-0.15,-0.15,
2.962,-0.01,0.01,0.97,0.57,-0.15,-0.15,
2.964,-0.01,0.01,0.96,0.57,-0.15,-0.15,
2.964,-0.01,0.01,0.96,0.62,-0.07,-0.26,
2.967,-0.01,0.01,0.96,0.62,-0.07,-0.26,
2.97,-0.02,0.01,0.96,0.62,-0.07,-0.26,
2.97,-0.02,0.01,0.96,0.68,0.01,-0.35,
2.972,-0.03,0.01,0.95,0.68,0.01,-0.35,
2.974,-0.04,0.01,0.96,0.68,0.01,-0.35,
2.974,-0.04,0.01,0.96,0.63,0.03,-0.39,
2.976,-0.05,0.01,0.96,0.63,0.03,-0.39,
2.979,-0.06,0.01,0.96,0.63,0.03,-0.39,
2.98,-0.06,0.01,0.96,0.47,0.02,-0.40,
2.981,-0.07,0.01,0.97,0.47,0.02,-0.40,
2.984,-0.07,0.01,0.97,0.47,0.02,-0.40,
2.984,-0.07,0.01,0.97,0.27,-0.00,-0.33,
2.987,-0.07,0.02,0.98,0.27,-0.00,-0.33,
2.989,-0.07,0.02,0.99,0.27,-0.00,-0.33,
2.989,-0.07,0.02,0.99,0.15,-0.02,-0.23,
2.992,-0.08,0.02,1.00,0.15,-0.02,-0.23,
2.994,-0.08,0.02,1.00,0.15,-0.02,-0.23,
2.994,-0.08,0.02,1.00,0.12,0.07,-0.11,
2.996,-0.08,0.03,1.00,0.12,0.07,-0.11,
2.999,-0.08,0.03,1.01,0.12,0.07,-0.11,
2.999,-0.08,0.03,1.01,0.05,0.09,0.02,
3.002,-0.09,0.03,1.02,0.05,0.09,0.02,
3.004,-0.09,0.03,1.02,0.01,0.17,0.09,
3.005,-0.09,0.04,1.03,0.01,0.17,0.09,
3.007,-0.10,0.03,1.05,0.01,0.17,0.09,
3.009,-0.10,0.03,1.05,-0.04,0.20,0.30,
3.009,-0.09,0.03,1.05,-0.04,0.20,0.30,
3.011,-0.10,0.04,1.06,-0.04,0.20,0.30,
3.014,-0.09,0.04,1.07,-0.04,0.20,0.30,
3.014,-0.09,0.04,1.07,-0.11,0.18,0.52,
3.017,-0.08,0.04,1.07,-0.11,0.18,0.52,
3.019,-0.08,0.04,1.07,-0.11,0.18,0.52,
3.019,-0.08,0.04,1.07,-0.09,0.20,0.65,
3.022,-0.08,0.04,1.08,-0.09,0.20,0.65,
3.024,-0.08,0.04,1.08,-0.09,0.20,0.65,
3.024,-0.08,0.04,1.08,-0.02,0.21,0.72,
3.027,-0.07,0.04,1.07,-0.02,0.21,0.72,
3.029,-0.06,0.04,1.06,-0.02,0.21,0.72,
3.029,-0.06,0.04,1.06,0.03,0.18,0.79,
3.032,-0.06,0.04,1.06,0.03,0.18,0.79,
3.034,-0.05,0.04,1.05,0.03,0.18,0.79,
3.034,-0.05,0.04,1.05,0.15,0.19,0.63,
3.036,-0.06,0.03,1.00,0.15,0.19,0.63,
3.038,-0.08,0.03,0.88,0.15,0.19,0.63,
3.039,-0.08,0.03,0.88,0.23,0.19,0.54,
3.041,-0.10,0.04,0.76,0.23,0.19,0.54,
3.047,-0.12,0.07,0.69,0.23,0.19,0.54,
3.047,-0.12,0.07,0.69,0.14,0.09,-0.56,
3.048,-0.13,0.08,0.70,0.14,0.09,-0.56,
3.048,-0.12,0.09,0.77,0.14,0.09,-0.56,
3.048,-0.12,0.09,0.77,-0.30,0.30,-2.66,
3.051,-0.12,0.09,0.81,-0.30,0.30,-2.66,
3.054,-0.13,0.09,0.80,-0.30,0.30,-2.66,
3.054,-0.13,0.09,0.80,-0.38,0.66,-2.54,
3.056,-0.15,0.08,0.79,-0.38,0.66,-2.54,
3.058,-0.17,0.07,0.79,-0.38,0.66,-2.54,
3.059,-0.17,0.07,0.79,-0.41,0.69,-1.85,
3.061,-0.17,0.06,0.81,-0.41,0.69,-1.85,
3.064,-0.17,0.05,0.85,-0.41,0.69,-1.85,
3.064,-0.17,0.05,0.85,-0.71,0.56,-1.99,
3.065,-0.15,0.04,0.88,-0.71,0.56,-1.99,
3.068,-0.13,0.04,0.90,-0.71,0.56,-1.99,
3.068,-0.13,0.04,0.90,-0.79,0.36,-1.61,
3.071,-0.10,0.04,0.93,-0.79,0.36,-1.61,
3.074,-0.07,0.04,0.95,-0.79,0.36,-1.61,
3.074,-0.07,0.04,0.95,-0.47,0.24,-1.01,
3.076,-0.05,0.02,0.99,-0.47,0.24,-1.01,
3.078,-0.04,0.00,1.03,-0.47,0.24,-1.01,
3.078,-0.04,0.00,1.03,0.04,0.26,-0.55,
3.085,-0.03,-0.01,1.06,0.04,0.26,-0.55,
3.086,-0.03,-0.03,1.08,0.04,0.26,-0.55,
3.086,-0.03,-0.03,1.08,0.45,-0.04,0.11,
3.086,-0.02,-0.04,1.11,0.45,-0.04,0.11,
3.088,-0.02,-0.05,1.12,0.45,-0.04,0.11,
3.088,-0.02,-0.05,1.12,0.58,-0.36,0.73,
3.091,-0.03,-0.05,1.15,0.58,-0.36,0.73,
3.099,-0.02,-0.05,1.17,0.58,-0.36,0.73,
3.1,-0.02,-0.05,1.17,0.66,-0.60,1.17,
3.1,-0.02,-0.04,1.18,0.66,-0.60,1.17,
3.1,-0.03,-0.04,1.19,0.66,-0.60,1.17,
3.101,-0.03,-0.04,1.19,0.63,-0.62,1.58,
3.101,-0.03,-0.03,1.20,0.63,-0.62,1.58,
3.102,-0.04,-0.01,1.20,0.63,-0.62,1.58,
3.103,-0.04,-0.01,1.20,0.63,-0.54,1.89,
3.106,-0.06,0.01,1.19,0.63,-0.54,1.89,
3.108,-0.08,0.03,1.17,0.63,-0.54,1.89,
3.108,-0.08,0.03,1.17,0.48,-0.36,2.00,
3.114,-0.09,0.05,1.16,0.48,-0.36,2.00,
3.115,-0.09,0.06,1.13,0.48,-0.36,2.00,
3.115,-0.09,0.06,1.13,0.18,0.01,1.80,
3.115,-0.10,0.07,1.10,0.18,0.01,1.80,
3.118,-0.10,0.07,1.08,0.18,0.01,1.80,
3.118,-0.10,0.07,1.08,-0.04,0.31,1.44,
3.12,-0.10,0.07,1.05,-0.04,0.31,1.44,
3.122,-0.10,0.07,1.02,-0.04,0.31,1.44,
3.122,-0.10,0.07,1.02,-0.14,0.46,0.93,
3.125,-0.09,0.07,0.99,-0.14,0.46,0.93,
3.134,-0.08,0.07,0.97,-0.14,0.46,0.93,
3.135,-0.08,0.07,0.97,-0.12,0.43,0.34,
3.135,-0.06,0.06,0.94,-0.12,0.43,0.34,
3.139,-0.05,0.06,0.92,-0.12,0.43,0.34,
3.14,-0.05,0.06,0.92,0.01,0.40,-0.15,
3.14,-0.03,0.06,0.90,0.01,0.40,-0.15,
3.14,-0.01,0.05,0.89,0.01,0.40,-0.15,
3.14,-0.01,0.05,0.89,0.33,0.30,-0.64,
3.141,-0.00,0.05,0.89,0.33,0.30,-0.64,
3.143,-0.01,0.06,0.88,0.33,0.30,-0.64,
3.143,-0.01,0.06,0.88,0.65,0.24,-1.00,
3.154,-0.02,0.06,0.89,0.65,0.24,-1.00,
3.154,-0.02,0.05,0.89,0.65,0.24,-1.00,
3.155,-0.02,0.05,0.89,0.82,0.26,-1.13,
3.155,-0.02,0.05,0.90,0.82,0.26,-1.13,
3.155,-0.02,0.05,0.91,0.82,0.26,-1.13,
3.155,-0.02,0.05,0.91,0.69,0.26,-1.03,
3.155,-0.03,0.04,0.92,0.69,0.26,-1.03,
