
time,gFx,gFy,gFz,ax,ay,az,
0.004,-0.06,0.15,0.98,0.02,-0.04,-0.30,
0.005,-0.06,0.15,0.98,0.01,0.08,-0.05,
0.005,-0.06,0.15,0.98,0.01,0.08,-0.05,
0.005,-0.05,0.15,0.99,0.01,0.08,-0.05,
0.006,-0.05,0.15,0.99,0.04,0.10,-0.06,
0.006,-0.05,0.15,0.98,0.04,0.10,-0.06,
0.011,-0.05,0.15,0.98,0.04,0.10,-0.06,
0.011,-0.05,0.15,0.98,0.10,0.11,-0.00,
0.011,-0.04,0.16,0.98,0.10,0.11,-0.00,
0.012,-0.05,0.15,0.99,0.10,0.11,-0.00,
0.012,-0.05,0.15,0.99,0.15,0.09,-0.01,
0.014,-0.05,0.15,0.99,0.15,0.09,-0.01,
0.017,-0.05,0.15,0.99,0.15,0.09,-0.01,
0.017,-0.05,0.15,0.99,0.17,0.14,-0.01,
0.019,-0.04,0.15,1.00,0.17,0.14,-0.01,
0.03,-0.04,0.15,0.99,0.17,0.14,-0.01,
0.031,-0.04,0.15,0.99,0.15,0.10,0.06,
0.031,-0.04,0.15,1.00,0.15,0.10,0.06,
0.031,-0.03,0.16,1.00,0.15,0.10,0.06,
0.031,-0.03,0.16,1.00,0.17,0.09,0.12,
0.032,-0.03,0.15,0.99,0.17,0.09,0.12,
0.032,-0.03,0.15,0.99,0.17,0.09,0.12,
0.032,-0.03,0.15,0.99,0.26,0.14,0.16,
0.034,-0.03,0.15,1.00,0.26,0.14,0.16,
0.037,-0.02,0.15,0.99,0.26,0.14,0.16,
0.037,-0.02,0.15,0.99,0.31,0.08,0.09,
0.048,-0.02,0.15,1.00,0.31,0.08,0.09,
0.049,-0.02,0.15,0.99,0.31,0.08,0.09,
0.049,-0.02,0.15,0.99,0.32,0.09,0.07,
0.049,-0.02,0.14,0.98,0.32,0.09,0.07,
0.05,-0.02,0.14,0.98,0.32,0.09,0.07,
0.05,-0.02,0.14,0.98,0.34,0.05,0.05,
0.05,-0.03,0.14,0.99,0.34,0.05,0.05,
0.052,-0.03,0.14,0.99,0.34,0.05,0.05,
0.052,-0.03,0.14,0.99,0.35,-0.02,-0.01,
0.054,-0.03,0.13,1.00,0.35,-0.02,-0.01,
0.063,-0.03,0.13,1.00,0.35,-0.02,-0.01,
0.063,-0.03,0.13,1.00,0.29,-0.06,0.02,
0.064,-0.02,0.13,1.00,0.29,-0.06,0.02,
0.064,-0.02,0.13,1.00,0.29,-0.06,0.02,
0.064,-0.02,0.13,1.00,0.26,-0.11,0.13,
0.064,-0.02,0.14,1.00,0.26,-0.11,0.13,
0.066,-0.03,0.14,1.00,0.26,-0.11,0.13,
0.067,-0.03,0.14,1.00,0.30,-0.11,0.13,
0.068,-0.03,0.14,0.98,0.30,-0.11,0.13,
0.078,-0.03,0.14,0.99,0.30,-0.11,0.13,
0.079,-0.03,0.14,0.99,0.29,-0.08,0.12,
0.079,-0.03,0.14,0.97,0.29,-0.08,0.12,
0.079,-0.03,0.14,0.97,0.19,-0.05,0.00,
0.079,-0.03,0.14,0.96,0.19,-0.05,0.00,
0.08,-0.02,0.14,0.95,0.19,-0.05,0.00,
0.081,-0.01,0.14,0.94,0.19,-0.05,0.00,
0.082,-0.01,0.14,0.94,0.26,-0.06,-0.16,
0.083,-0.01,0.14,0.93,0.26,-0.06,-0.16,
0.086,-0.01,0.14,0.93,0.34,-0.03,-0.39,
0.086,-0.02,0.15,0.92,0.34,-0.03,-0.39,
0.095,-0.03,0.14,0.93,0.34,-0.03,-0.39,
0.096,-0.03,0.14,0.93,0.34,-0.01,-0.55,
0.096,-0.02,0.15,0.92,0.34,-0.01,-0.55,
0.097,-0.02,0.15,0.92,0.34,-0.01,-0.55,
0.097,-0.02,0.15,0.92,0.34,-0.01,-0.55,
0.097,-0.02,0.15,0.92,0.24,-0.00,-0.56,
0.098,-0.03,0.16,0.92,0.24,-0.00,-0.56,
0.101,-0.03,0.16,0.92,0.24,-0.00,-0.56,
0.102,-0.03,0.16,0.92,0.29,0.07,-0.60,
0.103,-0.02,0.16,0.92,0.29,0.07,-0.60,
0.11,-0.03,0.16,0.91,0.29,0.07,-0.60,
0.11,-0.03,0.16,0.91,0.20,0.10,-0.63,
0.11,-0.02,0.15,0.92,0.20,0.10,-0.63,
0.111,-0.03,0.15,0.93,0.20,0.10,-0.63,
0.111,-0.03,0.15,0.93,0.24,0.11,-0.65,
0.114,-0.03,0.15,0.93,0.24,0.11,-0.65,
0.116,-0.03,0.15,0.94,0.24,0.11,-0.65,
0.116,-0.03,0.15,0.94,0.23,0.07,-0.58,
0.118,-0.03,0.14,0.96,0.23,0.07,-0.58,
0.121,-0.03,0.14,0.97,0.23,0.07,-0.58,
0.121,-0.03,0.14,0.97,0.19,0.01,-0.44,
0.127,-0.03,0.14,0.99,0.19,0.01,-0.44,
0.128,-0.03,0.14,0.99,0.19,0.01,-0.44,
0.128,-0.03,0.14,0.99,0.17,-0.05,-0.17,
0.128,-0.03,0.14,1.00,0.17,-0.05,-0.17,
0.131,-0.03,0.14,1.00,0.18,-0.02,0.09,
0.131,-0.03,0.14,1.00,0.18,-0.02,0.09,
0.133,-0.02,0.14,1.00,0.18,-0.02,0.09,
0.136,-0.02,0.14,1.00,0.18,-0.02,0.09,
0.136,-0.02,0.14,1.00,0.18,-0.01,0.18,
0.138,-0.02,0.14,1.00,0.18,-0.01,0.18,
0.143,-0.02,0.14,1.00,0.18,-0.01,0.18,
0.143,-0.02,0.14,1.00,0.26,0.01,0.18,
0.143,-0.02,0.15,1.00,0.26,0.01,0.18,
0.146,-0.02,0.15,1.00,0.26,0.01,0.15,
0.146,-0.02,0.15,1.01,0.26,0.01,0.15,
0.148,-0.01,0.14,1.00,0.26,0.01,0.15,
0.151,-0.01,0.14,1.00,0.26,0.01,0.15,
0.151,-0.01,0.14,1.00,0.26,0.07,0.20,
0.153,-0.01,0.14,1.01,0.26,0.07,0.20,
0.155,-0.00,0.14,1.00,0.26,0.07,0.20,
0.156,-0.00,0.14,1.00,0.28,0.03,0.17,
0.165,-0.00,0.15,1.00,0.28,0.03,0.17,
0.166,-0.00,0.15,1.00,0.28,0.03,0.17,
0.168,-0.00,0.15,1.00,0.34,0.03,0.20,
0.168,-0.00,0.15,0.99,0.34,0.03,0.20,
0.168,-0.00,0.15,0.98,0.34,0.03,0.20,
0.168,-0.00,0.15,0.98,0.35,0.09,0.14,
0.169,0.00,0.15,0.97,0.35,0.09,0.14,
0.171,-0.00,0.14,0.97,0.35,0.09,0.14,
0.171,-0.00,0.14,0.97,0.35,0.08,-0.01,
0.179,-0.01,0.14,0.97,0.35,0.08,-0.01,
0.179,-0.00,0.14,0.97,0.35,0.08,-0.01,
0.179,-0.00,0.14,0.97,0.35,0.06,-0.13,
0.18,-0.00,0.14,0.97,0.35,0.06,-0.13,
0.18,-0.01,0.14,0.97,0.35,0.06,-0.13,
0.181,-0.01,0.14,0.97,0.32,0.04,-0.14,
0.183,-0.01,0.14,0.98,0.32,0.04,-0.14,
0.185,-0.03,0.14,0.98,0.32,0.04,-0.14,
0.186,-0.03,0.14,0.98,0.29,0.05,-0.12,
0.188,-0.04,0.14,0.98,0.29,0.05,-0.12,
0.196,-0.04,0.14,0.98,0.29,0.05,-0.12,
0.197,-0.04,0.14,0.98,0.16,0.03,-0.03,
0.197,-0.05,0.14,0.98,0.16,0.03,-0.03,
0.197,-0.05,0.14,0.97,0.16,0.03,-0.03,
0.197,-0.05,0.14,0.97,-0.03,0.01,-0.01,
0.198,-0.06,0.14,0.97,-0.03,0.01,-0.01,
0.2,-0.07,0.14,0.97,-0.03,0.01,-0.01,
0.201,-0.07,0.14,0.97,-0.16,0.01,-0.07,
0.203,-0.07,0.14,0.97,-0.16,0.01,-0.07,
0.205,-0.07,0.14,0.96,-0.16,0.01,-0.07,
0.206,-0.07,0.14,0.96,-0.27,0.02,-0.13,
0.211,-0.06,0.14,0.96,-0.27,0.02,-0.13,
0.212,-0.06,0.14,0.95,-0.27,0.02,-0.13,
0.212,-0.06,0.14,0.95,-0.30,0.01,-0.21,
0.212,-0.06,0.15,0.95,-0.30,0.01,-0.21,
0.215,-0.06,0.15,0.94,-0.30,0.01,-0.21,
0.216,-0.06,0.15,0.94,-0.25,0.05,-0.27,
0.217,-0.06,0.15,0.94,-0.25,0.05,-0.27,
0.22,-0.06,0.15,0.94,-0.25,0.05,-0.27,
0.22,-0.06,0.15,0.94,-0.22,0.09,-0.37,
0.228,-0.06,0.15,0.94,-0.22,0.09,-0.37,
0.228,-0.05,0.15,0.94,-0.22,0.09,-0.37,
0.228,-0.05,0.15,0.94,-0.21,0.10,-0.41,
0.228,-0.06,0.16,0.94,-0.21,0.10,-0.41,
0.229,-0.06,0.16,0.94,-0.20,0.13,-0.40,
0.23,-0.06,0.16,0.95,-0.20,0.13,-0.40,
0.232,-0.05,0.16,0.95,-0.20,0.13,-0.40,
0.234,-0.05,0.16,0.96,-0.20,0.13,-0.40,
0.235,-0.05,0.16,0.96,-0.18,0.15,-0.36,
0.237,-0.05,0.16,0.96,-0.18,0.15,-0.36,
0.244,-0.04,0.17,0.97,-0.18,0.15,-0.36,
0.244,-0.04,0.17,0.97,-0.12,0.20,-0.25,
0.244,-0.04,0.17,0.97,-0.12,0.20,-0.25,
0.245,-0.04,0.17,0.97,-0.12,0.20,-0.25,
0.245,-0.04,0.17,0.97,-0.07,0.23,-0.16,
0.246,-0.04,0.17,0.98,-0.07,0.23,-0.16,
0.249,-0.04,0.17,0.98,-0.04,0.29,-0.10,
0.249,-0.04,0.17,0.98,-0.04,0.29,-0.10,
0.251,-0.04,0.17,0.98,-0.04,0.29,-0.10,
0.254,-0.05,0.17,0.98,-0.04,0.29,-0.10,
0.254,-0.05,0.17,0.98,-0.05,0.28,0.01,
0.264,-0.04,0.17,0.99,-0.05,0.28,0.01,
0.265,-0.04,0.18,0.99,-0.05,0.28,0.01,
0.265,-0.04,0.18,0.99,-0.05,0.29,-0.00,
0.265,-0.05,0.17,0.99,-0.05,0.29,-0.00,
0.265,-0.04,0.17,0.99,-0.05,0.29,-0.00,
0.266,-0.04,0.17,0.99,-0.03,0.29,0.09,
0.266,-0.04,0.17,0.98,-0.03,0.29,0.09,
0.269,-0.05,0.17,0.99,-0.03,0.29,0.09,
0.269,-0.05,0.17,0.99,-0.03,0.29,0.09,
0.271,-0.05,0.17,0.98,-0.03,0.29,0.09,
0.279,-0.05,0.18,0.97,-0.03,0.29,0.09,
0.28,-0.05,0.18,0.97,-0.07,0.26,0.04,
0.28,-0.05,0.18,0.96,-0.07,0.26,0.04,
0.28,-0.05,0.17,0.95,-0.07,0.26,0.04,
0.281,-0.05,0.17,0.95,-0.10,0.28,-0.10,
0.281,-0.05,0.18,0.94,-0.10,0.28,-0.10,
0.284,-0.05,0.18,0.93,-0.10,0.28,-0.10,
0.284,-0.05,0.18,0.93,-0.14,0.28,-0.23,
0.286,-0.06,0.18,0.93,-0.14,0.28,-0.23,
0.298,-0.06,0.18,0.92,-0.14,0.28,-0.23,
0.299,-0.06,0.18,0.92,-0.14,0.28,-0.42,
0.299,-0.07,0.18,0.90,-0.14,0.28,-0.42,
0.299,-0.08,0.18,0.90,-0.14,0.28,-0.42,
0.299,-0.08,0.18,0.90,-0.22,0.32,-0.57,
0.3,-0.08,0.18,0.89,-0.22,0.32,-0.57,
0.3,-0.07,0.18,0.88,-0.22,0.32,-0.57,
0.3,-0.07,0.18,0.88,-0.31,0.33,-0.75,
0.301,-0.08,0.19,0.87,-0.31,0.33,-0.75,
0.304,-0.07,0.19,0.86,-0.31,0.33,-0.75,
0.305,-0.07,0.19,0.86,-0.34,0.33,-0.94,
0.312,-0.07,0.19,0.86,-0.34,0.33,-0.94,
0.312,-0.07,0.19,0.85,-0.34,0.33,-0.94,
0.313,-0.07,0.19,0.85,-0.33,0.35,-1.08,
0.313,-0.07,0.19,0.85,-0.33,0.35,-1.08,
0.314,-0.06,0.20,0.84,-0.33,0.35,-1.08,
0.314,-0.06,0.20,0.84,-0.29,0.36,-1.17,
0.316,-0.06,0.20,0.84,-0.29,0.36,-1.17,
0.319,-0.05,0.20,0.83,-0.29,0.36,-1.17,
0.319,-0.05,0.20,0.83,-0.22,0.40,-1.26,
0.321,-0.04,0.20,0.83,-0.22,0.40,-1.26,
0.328,-0.04,0.20,0.82,-0.22,0.40,-1.26,
0.328,-0.04,0.20,0.82,-0.11,0.41,-1.35,
0.331,-0.03,0.20,0.82,-0.11,0.41,-1.35,
0.331,-0.02,0.20,0.81,-0.11,0.41,-1.35,
0.331,-0.02,0.20,0.81,0.02,0.45,-1.43,
0.332,-0.01,0.20,0.80,0.02,0.45,-1.43,
0.333,-0.00,0.21,0.81,0.02,0.45,-1.43,
0.334,-0.00,0.21,0.81,0.20,0.44,-1.53,
0.335,0.01,0.21,0.80,0.20,0.44,-1.53,
0.338,0.02,0.21,0.80,0.20,0.44,-1.53,
0.338,0.02,0.21,0.80,0.34,0.45,-1.60,
0.346,0.03,0.21,0.80,0.34,0.45,-1.60,
0.346,0.03,0.22,0.80,0.34,0.45,-1.60,
0.347,0.03,0.22,0.80,0.53,0.47,-1.65,
0.347,0.04,0.22,0.80,0.53,0.47,-1.65,
0.349,0.05,0.22,0.80,0.53,0.47,-1.65,
0.349,0.05,0.22,0.80,0.70,0.52,-1.63,
0.351,0.06,0.22,0.80,0.70,0.52,-1.63,
0.354,0.06,0.23,0.79,0.70,0.52,-1.63,
0.354,0.06,0.23,0.79,0.84,0.59,-1.65,
0.356,0.06,0.23,0.80,0.84,0.59,-1.65,
0.364,0.06,0.23,0.80,0.84,0.59,-1.65,
0.364,0.06,0.23,0.80,0.97,0.64,-1.64,
0.365,0.07,0.23,0.80,0.97,0.64,-1.64,
0.365,0.08,0.24,0.79,0.97,0.64,-1.64,
0.365,0.08,0.24,0.79,0.99,0.70,-1.61,
0.366,0.08,0.24,0.79,0.99,0.70,-1.61,
0.368,0.09,0.24,0.78,0.99,0.70,-1.61,
0.369,0.09,0.24,0.78,1.10,0.73,-1.61,
0.371,0.09,0.24,0.78,1.10,0.73,-1.61,
0.379,0.09,0.24,0.78,1.10,0.73,-1.61,
0.38,0.09,0.24,0.78,1.21,0.76,-1.69,
0.38,0.08,0.24,0.77,1.21,0.76,-1.69,
0.38,0.09,0.24,0.76,1.21,0.76,-1.69,
0.38,0.09,0.24,0.76,1.23,0.71,-1.74,
0.381,0.08,0.23,0.75,1.23,0.71,-1.74,
0.384,0.07,0.24,0.74,1.23,0.71,-1.74,
0.384,0.07,0.24,0.74,1.21,0.69,-1.89,
0.386,0.07,0.23,0.73,1.21,0.69,-1.89,
0.388,0.06,0.23,0.72,1.21,0.69,-1.89,
0.388,0.06,0.23,0.72,1.14,0.65,-2.06,
0.399,0.05,0.22,0.70,1.14,0.65,-2.06,
0.4,0.04,0.21,0.69,1.14,0.65,-2.06,
0.4,0.04,0.21,0.69,0.98,0.56,-2.28,
0.4,0.02,0.20,0.68,0.98,0.56,-2.28,
0.4,0.02,0.20,0.66,0.98,0.56,-2.28,
0.4,0.02,0.20,0.66,0.81,0.44,-2.52,
0.4,0.02,0.20,0.65,0.81,0.44,-2.52,
0.404,0.01,0.20,0.65,0.81,0.44,-2.52,
0.404,0.01,0.20,0.65,0.58,0.28,-2.73,
0.406,0.00,0.19,0.65,0.58,0.28,-2.73,
0.415,0.01,0.20,0.64,0.58,0.28,-2.73,
0.415,0.01,0.20,0.64,0.51,0.23,-2.92,
0.416,0.01,0.20,0.64,0.51,0.23,-2.92,
0.416,0.01,0.20,0.65,0.51,0.23,-2.92,
0.416,0.01,0.20,0.65,0.43,0.18,-2.95,
0.416,0.01,0.19,0.66,0.43,0.18,-2.95,
0.418,0.01,0.19,0.66,0.50,0.20,-2.94,
0.418,0.00,0.19,0.67,0.50,0.20,-2.94,
0.42,-0.00,0.18,0.69,0.50,0.20,-2.94,
0.423,-0.00,0.18,0.69,0.50,0.20,-2.94,
0.423,-0.00,0.18,0.69,0.43,0.12,-2.69,
0.429,-0.00,0.18,0.71,0.43,0.12,-2.69,
0.429,0.00,0.18,0.72,0.43,0.12,-2.69,
0.43,0.00,0.18,0.72,0.39,0.05,-2.47,
0.43,0.01,0.18,0.74,0.39,0.05,-2.47,
0.433,0.01,0.18,0.76,0.39,0.05,-2.47,
0.433,0.01,0.18,0.76,0.41,0.02,-2.20,
0.435,0.01,0.19,0.77,0.41,0.02,-2.20,
0.438,0.02,0.18,0.79,0.41,0.02,-2.20,
0.438,0.02,0.18,0.79,0.51,0.05,-1.88,
0.447,0.02,0.18,0.80,0.51,0.05,-1.88,
0.447,0.03,0.18,0.81,0.51,0.05,-1.88,
0.448,0.03,0.18,0.81,0.58,0.09,-1.54,
0.448,0.03,0.17,0.83,0.58,0.09,-1.54,
0.448,0.03,0.16,0.84,0.58,0.09,-1.54,
0.448,0.03,0.16,0.84,0.68,0.02,-1.32,
0.45,0.03,0.16,0.84,0.68,0.02,-1.32,
0.453,0.04,0.15,0.85,0.68,0.02,-1.32,
0.453,0.04,0.15,0.85,0.70,-0.07,-1.03,
0.455,0.05,0.15,0.86,0.70,-0.07,-1.03,
0.463,0.06,0.15,0.86,0.70,-0.07,-1.03,
0.463,0.06,0.15,0.86,0.78,-0.20,-0.92,
0.463,0.06,0.15,0.86,0.78,-0.20,-0.92,
0.464,0.08,0.16,0.86,0.78,-0.20,-0.92,
0.464,0.08,0.16,0.86,0.97,-0.22,-0.79,
0.465,0.09,0.16,0.85,0.97,-0.22,-0.79,
0.468,0.09,0.16,0.84,0.97,-0.22,-0.79,
0.468,0.09,0.16,0.84,1.16,-0.22,-0.79,
0.471,0.10,0.16,0.84,1.16,-0.22,-0.79,
0.473,0.09,0.16,0.83,1.16,-0.22,-0.79,
0.473,0.09,0.16,0.83,1.31,-0.18,-0.86,
0.483,0.08,0.15,0.82,1.31,-0.18,-0.86,
0.484,0.07,0.14,0.81,1.31,-0.18,-0.86,
0.484,0.07,0.14,0.81,1.34,-0.18,-0.96,
0.484,0.06,0.14,0.79,1.34,-0.18,-0.96,
0.484,0.05,0.13,0.78,1.34,-0.18,-0.96,
0.485,0.05,0.13,0.78,1.20,-0.32,-1.19,
0.485,0.03,0.12,0.76,1.20,-0.32,-1.19,
0.488,0.02,0.11,0.74,1.20,-0.32,-1.19,
0.488,0.02,0.11,0.74,0.95,-0.51,-1.46,
0.49,0.01,0.11,0.73,0.95,-0.51,-1.46,
0.492,0.01,0.11,0.72,0.95,-0.51,-1.46,
0.493,0.01,0.11,0.72,0.69,-0.67,-1.78,
0.498,0.00,0.10,0.71,0.69,-0.67,-1.78,
0.498,0.00,0.10,0.70,0.69,-0.67,-1.78,
0.499,0.00,0.10,0.70,0.52,-0.78,-2.04,
0.499,0.00,0.11,0.70,0.52,-0.78,-2.04,
0.502,0.01,0.12,0.69,0.52,-0.78,-2.04,
0.502,0.01,0.12,0.69,0.45,-0.84,-2.19,
0.504,0.01,0.12,0.69,0.45,-0.84,-2.19,
0.516,0.02,0.12,0.68,0.45,-0.84,-2.19,
0.517,0.02,0.12,0.68,0.46,-0.75,-2.29,
0.517,0.02,0.12,0.68,0.46,-0.75,-2.29,
0.517,0.03,0.13,0.68,0.46,-0.75,-2.29,
0.518,0.03,0.13,0.68,0.53,-0.68,-2.35,
0.518,0.04,0.13,0.68,0.53,-0.68,-2.35,
0.518,0.05,0.13,0.69,0.53,-0.68,-2.35,
0.518,0.05,0.13,0.69,0.62,-0.67,-2.38,
0.519,0.05,0.12,0.70,0.62,-0.67,-2.38,
0.522,0.07,0.12,0.69,0.62,-0.67,-2.38,
0.522,0.07,0.12,0.69,0.81,-0.63,-2.33,
0.53,0.08,0.12,0.70,0.81,-0.63,-2.33,
0.531,0.09,0.12,0.72,0.81,-0.63,-2.33,
0.531,0.09,0.12,0.72,0.97,-0.67,-2.24,
0.531,0.10,0.12,0.72,0.97,-0.67,-2.24,
0.532,0.11,0.12,0.73,0.97,-0.67,-2.24,
0.532,0.11,0.12,0.73,1.18,-0.70,-2.10,
0.534,0.11,0.12,0.73,1.18,-0.70,-2.10,
0.537,0.11,0.12,0.73,1.40,-0.72,-1.93,
0.537,0.12,0.12,0.74,1.40,-0.72,-1.93,
0.539,0.12,0.12,0.74,1.40,-0.72,-1.93,
0.547,0.13,0.11,0.75,1.40,-0.72,-1.93,
0.548,0.13,0.11,0.75,1.49,-0.73,-1.80,
0.548,0.12,0.10,0.76,1.49,-0.73,-1.80,
0.548,0.11,0.10,0.76,1.49,-0.73,-1.80,
0.548,0.11,0.10,0.76,1.58,-0.76,-1.71,
0.549,0.10,0.10,0.77,1.58,-0.76,-1.71,
0.551,0.10,0.08,0.77,1.58,-0.76,-1.71,
0.551,0.10,0.08,0.77,1.47,-0.84,-1.57,
0.553,0.09,0.09,0.77,1.47,-0.84,-1.57,
0.556,0.08,0.09,0.77,1.47,-0.84,-1.57,
0.556,0.08,0.09,0.77,1.29,-0.96,-1.46,
0.562,0.08,0.09,0.78,1.29,-0.96,-1.46,
0.563,0.08,0.09,0.78,1.29,-0.96,-1.46,
0.563,0.08,0.09,0.78,1.11,-0.97,-1.47,
0.563,0.07,0.09,0.78,1.11,-0.97,-1.47,
0.566,0.07,0.09,0.77,1.11,-0.97,-1.47,
0.566,0.07,0.09,0.77,1.05,-0.97,-1.39,
0.568,0.07,0.09,0.77,1.05,-0.97,-1.39,
0.571,0.05,0.09,0.76,1.05,-0.97,-1.39,
0.571,0.05,0.09,0.76,0.99,-0.90,-1.40,
0.573,0.04,0.09,0.75,0.99,-0.90,-1.40,
0.58,0.04,0.09,0.75,0.99,-0.90,-1.40,
0.581,0.04,0.09,0.75,0.83,-0.90,-1.50,
0.581,0.03,0.08,0.74,0.83,-0.90,-1.50,
0.582,0.03,0.07,0.74,0.83,-0.90,-1.50,
0.582,0.03,0.07,0.74,0.62,-0.93,-1.63,
0.583,0.04,0.07,0.73,0.62,-0.93,-1.63,
0.586,0.04,0.07,0.73,0.51,-1.04,-1.73,
0.586,0.04,0.06,0.73,0.51,-1.04,-1.73,
0.588,0.04,0.06,0.74,0.51,-1.04,-1.73,
0.601,0.05,0.06,0.74,0.51,-1.04,-1.73,
0.602,0.05,0.06,0.74,0.54,-1.12,-1.80,
0.602,0.05,0.05,0.75,0.54,-1.12,-1.80,
0.603,0.05,0.05,0.76,0.54,-1.12,-1.80,
0.603,0.05,0.05,0.76,0.56,-1.15,-1.72,
0.603,0.04,0.04,0.77,0.56,-1.15,-1.72,
0.603,0.04,0.04,0.79,0.56,-1.15,-1.72,
0.604,0.04,0.04,0.79,0.57,-1.21,-1.55,
0.604,0.04,0.04,0.80,0.57,-1.21,-1.55,
0.606,0.05,0.04,0.82,0.57,-1.21,-1.55,
0.606,0.05,0.04,0.82,0.49,-1.24,-1.33,
0.617,0.05,0.05,0.83,0.49,-1.24,-1.33,
0.617,0.06,0.05,0.85,0.49,-1.24,-1.33,
0.618,0.06,0.05,0.85,0.50,-1.23,-1.05,
0.618,0.07,0.05,0.87,0.50,-1.23,-1.05,
0.618,0.07,0.06,0.89,0.50,-1.23,-1.05,
0.618,0.07,0.06,0.89,0.58,-1.12,-0.71,
0.618,0.08,0.06,0.90,0.58,-1.12,-0.71,
0.62,0.08,0.06,0.91,0.58,-1.12,-0.71,
0.621,0.08,0.06,0.91,0.66,-1.03,-0.35,
0.623,0.09,0.06,0.92,0.66,-1.03,-0.35,
0.634,0.08,0.06,0.93,0.66,-1.03,-0.35,
0.634,0.08,0.06,0.93,0.76,-0.96,-0.13,
0.635,0.08,0.06,0.95,0.76,-0.96,-0.13,
0.635,0.09,0.06,0.95,0.76,-0.96,-0.13,
0.636,0.09,0.06,0.95,0.78,-0.91,0.06,
0.636,0.08,0.06,0.95,0.78,-0.91,0.06,
0.636,0.08,0.06,0.97,0.78,-0.91,0.06,
0.636,0.08,0.06,0.97,0.79,-0.91,0.30,
0.638,0.08,0.05,0.97,0.79,-0.91,0.30,
0.64,0.07,0.05,0.97,0.79,-0.91,0.30,
0.643,0.07,0.05,0.97,0.69,-0.90,0.41,
0.657,0.06,0.05,0.96,0.69,-0.90,0.41,
0.658,0.06,0.04,0.96,0.69,-0.90,0.41,
0.658,0.06,0.04,0.96,0.61,-0.91,0.49,
0.659,0.05,0.03,0.95,0.61,-0.91,0.49,
0.659,0.05,0.04,0.94,0.61,-0.91,0.49,
0.659,0.05,0.04,0.94,0.49,-1.01,0.43,
0.659,0.05,0.03,0.92,0.49,-1.01,0.43,
0.66,0.06,0.04,0.90,0.49,-1.01,0.43,
0.664,0.06,0.04,0.90,0.44,-1.06,0.26,
0.664,0.07,0.04,0.88,0.44,-1.06,0.26,
0.665,0.08,0.04,0.86,0.44,-1.06,0.26,
0.665,0.08,0.04,0.86,0.47,-1.04,-0.09,
0.665,0.08,0.04,0.83,0.47,-1.04,-0.09,
0.666,0.08,0.04,0.83,0.61,-1.00,-0.51,
0.666,0.07,0.04,0.81,0.61,-1.00,-0.51,
0.667,0.06,0.03,0.78,0.61,-1.00,-0.51,
0.671,0.05,0.04,0.75,0.61,-1.00,-0.51,
0.671,0.05,0.04,0.75,0.63,-1.02,-0.97,
0.673,0.05,0.04,0.72,0.63,-1.02,-0.97,
0.676,0.05,0.05,0.70,0.63,-1.02,-0.97,
0.677,0.05,0.05,0.70,0.46,-1.05,-1.52,
0.677,0.04,0.05,0.69,0.46,-1.05,-1.52,
0.68,0.04,0.05,0.68,0.46,-1.05,-1.52,
0.681,0.04,0.05,0.68,0.40,-0.97,-2.01,
0.683,0.03,0.05,0.68,0.40,-0.97,-2.01,
0.688,0.03,0.05,0.69,0.40,-0.97,-2.01,
0.688,0.03,0.05,0.69,0.35,-0.90,-2.27,
0.688,0.01,0.05,0.71,0.35,-0.90,-2.27,
0.69,-0.00,0.06,0.74,0.35,-0.90,-2.27,
0.69,-0.00,0.06,0.74,0.23,-0.84,-2.25,
0.694,-0.02,0.06,0.76,0.23,-0.84,-2.25,
0.695,-0.03,0.06,0.80,0.23,-0.84,-2.25,
0.695,-0.03,0.06,0.80,0.00,-0.80,-1.85,
0.697,-0.03,0.06,0.84,0.00,-0.80,-1.85,
0.701,-0.04,0.06,0.88,0.00,-0.80,-1.85,
0.701,-0.04,0.06,0.88,-0.26,-0.73,-1.30,
0.703,-0.04,0.05,0.93,-0.26,-0.73,-1.30,
0.705,-0.04,0.05,0.93,-0.37,-0.66,-0.53,
0.705,-0.04,0.05,0.98,-0.37,-0.66,-0.53,
0.707,-0.04,0.04,1.02,-0.37,-0.66,-0.53,
0.71,-0.04,0.03,1.07,-0.37,-0.66,-0.53,
0.711,-0.04,0.03,1.07,-0.44,-0.66,0.38,
0.712,-0.05,0.02,1.11,-0.44,-0.66,0.38,
0.715,-0.04,0.01,1.14,-0.44,-0.66,0.38,
0.715,-0.04,0.01,1.14,-0.41,-0.76,1.25,
0.717,-0.03,0.01,1.17,-0.41,-0.76,1.25,
0.72,-0.03,0.01,1.17,-0.46,-0.91,2.01,
0.72,-0.02,0.00,1.19,-0.46,-0.91,2.01,
0.723,-0.01,0.00,1.22,-0.46,-0.91,2.01,
0.727,-0.00,-0.00,1.24,-0.46,-0.91,2.01,
0.727,-0.00,-0.00,1.24,-0.31,-0.93,2.55,
0.727,0.01,-0.01,1.26,-0.31,-0.93,2.55,
0.73,0.03,-0.02,1.28,-0.31,-0.93,2.55,
0.73,0.03,-0.02,1.28,-0.09,-0.91,3.01,
0.732,0.03,-0.03,1.29,-0.09,-0.91,3.01,
0.735,0.04,-0.04,1.29,-0.09,-0.91,3.01,
0.735,0.04,-0.04,1.29,0.19,-1.02,3.36,
0.737,0.04,-0.04,1.29,0.19,-1.02,3.36,
0.74,0.03,-0.04,1.29,0.19,-1.02,3.36,
0.74,0.03,-0.04,1.29,0.34,-1.14,3.55,
0.743,0.02,-0.04,1.28,0.34,-1.14,3.55,
0.745,0.02,-0.04,1.26,0.34,-1.14,3.55,
0.745,0.02,-0.04,1.26,0.35,-1.17,3.58,
0.747,0.01,-0.03,1.24,0.35,-1.17,3.58,
0.75,0.01,-0.03,1.24,0.23,-1.11,3.36,
0.75,-0.00,-0.03,1.22,0.23,-1.11,3.36,
0.752,-0.00,-0.02,1.19,0.23,-1.11,3.36,
0.756,-0.00,-0.01,1.16,0.23,-1.11,3.36,
0.756,-0.00,-0.01,1.16,0.07,-0.97,2.95,
0.756,-0.00,-0.01,1.14,0.07,-0.97,2.95,
0.761,-0.01,-0.00,1.13,0.07,-0.97,2.95,
0.761,-0.01,-0.00,1.13,0.04,-0.79,2.40,
0.761,-0.01,0.00,1.10,0.04,-0.79,2.40,
0.765,-0.01,0.00,1.08,0.04,-0.79,2.40,
0.765,-0.01,0.00,1.08,0.01,-0.69,1.98,
0.767,-0.01,0.01,1.07,0.01,-0.69,1.98,
0.77,-0.00,0.01,1.05,0.01,-0.69,1.98,
0.77,-0.00,0.01,1.05,-0.05,-0.61,1.56,
0.771,0.00,0.01,1.04,-0.05,-0.61,1.56,
0.775,0.01,0.01,1.04,-0.05,-0.61,1.56,
0.775,0.01,0.01,1.04,0.02,-0.52,1.22,
0.777,0.01,0.01,1.03,0.02,-0.52,1.22,
0.779,0.02,0.02,1.03,0.02,-0.52,1.22,
0.779,0.02,0.02,1.03,0.15,-0.47,1.01,
0.781,0.02,0.02,1.03,0.15,-0.47,1.01,
0.785,0.02,0.02,1.04,0.15,-0.47,1.01,
0.785,0.02,0.02,1.04,0.22,-0.40,0.93,
0.787,0.01,0.00,1.06,0.22,-0.40,0.93,
0.79,0.01,0.00,1.08,0.22,-0.40,0.93,
0.79,0.01,0.00,1.08,0.26,-0.36,1.00,
0.792,0.01,-0.01,1.10,0.26,-0.36,1.00,
0.798,0.01,-0.00,1.13,0.26,-0.36,1.00,
0.798,0.01,-0.00,1.13,0.17,-0.47,1.32,
0.798,0.01,-0.01,1.14,0.17,-0.47,1.32,
0.799,0.00,-0.01,1.16,0.17,-0.47,1.32,
0.8,0.00,-0.01,1.16,0.14,-0.49,1.70,
0.801,-0.00,-0.01,1.18,0.14,-0.49,1.70,
0.804,-0.01,-0.02,1.20,0.14,-0.49,1.70,
0.804,-0.01,-0.02,1.20,0.11,-0.50,2.07,
0.806,-0.02,-0.02,1.21,0.11,-0.50,2.07,
0.811,-0.04,-0.02,1.22,0.11,-0.50,2.07,
0.811,-0.04,-0.02,1.22,0.05,-0.51,2.43,
0.811,-0.05,-0.02,1.23,0.05,-0.51,2.43,
0.813,-0.05,-0.02,1.24,0.05,-0.51,2.43,
0.814,-0.05,-0.02,1.24,-0.16,-0.49,2.68,
0.816,-0.06,-0.02,1.24,-0.16,-0.49,2.68,
0.819,-0.06,-0.01,1.24,-0.16,-0.49,2.68,
0.819,-0.06,-0.01,1.24,-0.34,-0.43,2.84,
0.822,-0.06,-0.02,1.25,-0.34,-0.43,2.84,
0.823,-0.07,-0.02,1.25,-0.34,-0.43,2.84,
0.824,-0.07,-0.02,1.25,-0.40,-0.39,2.89,
0.826,-0.08,-0.02,1.25,-0.40,-0.39,2.89,
0.828,-0.10,-0.02,1.26,-0.40,-0.39,2.89,
0.829,-0.10,-0.02,1.26,-0.42,-0.38,3.01,
0.831,-0.13,-0.02,1.25,-0.42,-0.38,3.01,
0.833,-0.17,-0.01,1.25,-0.42,-0.38,3.01,
0.834,-0.17,-0.01,1.25,-0.67,-0.33,3.04,
0.835,-0.21,-0.01,1.26,-0.67,-0.33,3.04,
0.838,-0.23,-0.00,1.26,-0.67,-0.33,3.04,
0.839,-0.23,-0.00,1.26,-1.24,-0.27,3.01,
0.84,-0.24,0.00,1.25,-1.24,-0.27,3.01,
0.844,-0.25,0.01,1.25,-1.24,-0.27,3.01,
0.845,-0.25,0.01,1.25,-1.89,-0.13,3.02,
0.845,-0.25,0.02,1.25,-1.89,-0.13,3.02,
0.848,-0.25,0.03,1.24,-1.89,-0.13,3.02,
0.848,-0.25,0.03,1.24,-2.17,0.04,2.96,
0.851,-0.24,0.04,1.24,-2.17,0.04,2.96,
0.853,-0.23,0.03,1.23,-2.17,0.04,2.96,
0.854,-0.23,0.03,1.23,-2.19,0.25,2.89,
0.855,-0.21,0.03,1.22,-2.19,0.25,2.89,
0.859,-0.20,0.04,1.21,-2.19,0.25,2.89,
0.859,-0.20,0.04,1.21,-2.04,0.35,2.76,
0.862,-0.18,0.03,1.20,-2.04,0.35,2.76,
0.863,-0.15,0.03,1.18,-2.04,0.35,2.76,
0.863,-0.15,0.03,1.18,-1.82,0.38,2.59,
0.865,-0.12,0.03,1.16,-1.82,0.38,2.59,
0.868,-0.09,0.03,1.15,-1.82,0.38,2.59,
0.868,-0.09,0.03,1.15,-1.44,0.37,2.32,
0.87,-0.06,0.03,1.14,-1.44,0.37,2.32,
0.874,-0.03,0.02,1.13,-1.44,0.37,2.32,
0.874,-0.03,0.02,1.13,-0.87,0.38,2.00,
0.876,0.00,0.01,1.13,-0.87,0.38,2.00,
0.878,0.03,-0.00,1.12,-0.87,0.38,2.00,
0.878,0.03,-0.00,1.12,-0.30,0.36,1.81,
0.88,0.04,-0.02,1.12,-0.30,0.36,1.81,
0.883,0.05,-0.03,1.11,-0.30,0.36,1.81,
0.883,0.05,-0.03,1.11,0.29,0.17,1.64,
0.885,0.05,-0.04,1.11,0.29,0.17,1.64,
0.888,0.05,-0.05,1.11,0.29,0.17,1.64,
0.888,0.05,-0.05,1.11,0.59,-0.03,1.55,
0.89,0.05,-0.06,1.11,0.59,-0.03,1.55,
0.896,0.05,-0.06,1.10,0.59,-0.03,1.55,
0.897,0.05,-0.06,1.10,0.62,-0.25,1.49,
0.897,0.06,-0.06,1.10,0.62,-0.25,1.49,
0.898,0.06,-0.06,1.10,0.62,-0.25,1.49,
0.898,0.06,-0.06,1.10,0.64,-0.32,1.45,
0.9,0.06,-0.06,1.09,0.64,-0.32,1.45,
0.903,0.04,-0.06,1.08,0.64,-0.32,1.45,
0.903,0.04,-0.06,1.08,0.77,-0.28,1.43,
0.906,0.02,-0.07,1.06,0.77,-0.28,1.43,
0.907,0.00,-0.07,1.05,0.77,-0.28,1.43,
0.908,0.00,-0.07,1.05,0.66,-0.24,1.26,
0.911,-0.02,-0.07,1.03,0.66,-0.24,1.26,
0.913,-0.03,-0.08,1.02,0.66,-0.24,1.26,
0.913,-0.03,-0.08,1.02,0.32,-0.32,1.01,
0.915,-0.05,-0.09,1.02,0.32,-0.32,1.01,
0.917,-0.05,-0.09,1.01,0.32,-0.32,1.01,
0.918,-0.05,-0.09,1.01,-0.07,-0.38,0.70,
0.92,-0.06,-0.09,1.00,-0.07,-0.38,0.70,
0.922,-0.06,-0.10,1.00,-0.07,-0.38,0.70,
0.923,-0.06,-0.10,1.00,-0.29,-0.46,0.54,
0.925,-0.06,-0.10,0.99,-0.29,-0.46,0.54,
0.928,-0.06,-0.10,0.99,-0.35,-0.48,0.43,
0.929,-0.06,-0.10,1.00,-0.35,-0.48,0.43,
0.93,-0.06,-0.10,1.00,-0.35,-0.48,0.43,
0.932,-0.06,-0.10,1.01,-0.35,-0.48,0.43,
0.932,-0.06,-0.10,1.01,-0.36,-0.44,0.38,
0.935,-0.06,-0.10,1.03,-0.36,-0.44,0.38,
0.937,-0.06,-0.10,1.05,-0.36,-0.44,0.38,
0.938,-0.06,-0.10,1.05,-0.39,-0.38,0.48,
0.94,-0.06,-0.10,1.08,-0.39,-0.38,0.48,
0.944,-0.05,-0.10,1.10,-0.39,-0.38,0.48,
0.944,-0.05,-0.10,1.10,-0.39,-0.33,0.83,
0.945,-0.04,-0.10,1.12,-0.39,-0.33,0.83,
0.947,-0.03,-0.11,1.15,-0.39,-0.33,0.83,
0.948,-0.03,-0.11,1.15,-0.29,-0.29,1.29,
0.949,-0.03,-0.11,1.17,-0.29,-0.29,1.29,
0.952,-0.03,-0.11,1.17,-0.11,-0.31,1.72,
0.952,-0.04,-0.11,1.18,-0.11,-0.31,1.72,
0.954,-0.05,-0.11,1.20,-0.11,-0.31,1.72,
0.957,-0.06,-0.12,1.23,-0.11,-0.31,1.72,
0.957,-0.06,-0.12,1.23,-0.11,-0.37,2.14,
0.96,-0.07,-0.12,1.25,-0.11,-0.37,2.14,
0.962,-0.07,-0.12,1.26,-0.11,-0.37,2.14,
0.962,-0.07,-0.12,1.26,-0.27,-0.31,2.55,
0.964,-0.07,-0.13,1.28,-0.27,-0.31,2.55,
0.968,-0.08,-0.13,1.29,-0.27,-0.31,2.55,
0.968,-0.08,-0.13,1.29,-0.41,-0.32,2.93,
0.969,-0.08,-0.13,1.30,-0.41,-0.32,2.93,
0.973,-0.08,-0.14,1.31,-0.41,-0.32,2.93,
0.973,-0.08,-0.14,1.31,-0.41,-0.34,3.17,
0.974,-0.09,-0.14,1.33,-0.41,-0.34,3.17,
0.977,-0.10,-0.14,1.33,-0.41,-0.34,3.17,
0.977,-0.10,-0.14,1.33,-0.41,-0.38,3.41,
0.979,-0.12,-0.14,1.34,-0.41,-0.38,3.41,
0.982,-0.13,-0.14,1.34,-0.41,-0.38,3.41,
0.982,-0.13,-0.14,1.34,-0.54,-0.38,3.65,
0.984,-0.14,-0.14,1.33,-0.54,-0.38,3.65,
0.987,-0.16,-0.14,1.33,-0.54,-0.38,3.65,
0.987,-0.16,-0.14,1.33,-0.78,-0.35,3.68,
0.989,-0.17,-0.13,1.32,-0.78,-0.35,3.68,
0.992,-0.16,-0.12,1.31,-0.78,-0.35,3.68,
0.992,-0.16,-0.12,1.31,-1.01,-0.29,3.61,
0.995,-0.16,-0.11,1.31,-1.01,-0.29,3.61,
0.997,-0.16,-0.11,1.29,-1.01,-0.29,3.61,
0.997,-0.16,-0.11,1.29,-1.14,-0.11,3.48,
0.999,-0.15,-0.11,1.28,-1.14,-0.11,3.48,
1.003,-0.15,-0.10,1.27,-1.14,-0.11,3.48,
1.003,-0.15,-0.10,1.27,-1.06,0.03,3.31,
1.005,-0.14,-0.11,1.26,-1.06,0.03,3.31,
1.007,-0.13,-0.10,1.25,-1.06,0.03,3.31,
1.008,-0.13,-0.10,1.25,-0.96,0.10,3.05,
1.01,-0.12,-0.10,1.24,-0.96,0.10,3.05,
1.016,-0.12,-0.10,1.24,-0.96,0.10,3.05,
1.016,-0.12,-0.10,1.24,-0.79,0.16,2.85,
1.017,-0.10,-0.09,1.23,-0.79,0.16,2.85,
1.017,-0.09,-0.09,1.23,-0.79,0.16,2.85,
1.017,-0.09,-0.09,1.23,-0.63,0.23,2.67,
1.019,-0.08,-0.09,1.23,-0.63,0.23,2.67,
1.022,-0.07,-0.09,1.24,-0.63,0.23,2.67,
1.022,-0.07,-0.09,1.24,-0.43,0.33,2.60,
1.024,-0.07,-0.10,1.25,-0.43,0.33,2.60,
1.027,-0.07,-0.11,1.27,-0.43,0.33,2.60,
1.027,-0.07,-0.11,1.27,-0.22,0.33,2.64,
1.029,-0.07,-0.11,1.30,-0.22,0.33,2.64,
1.032,-0.07,-0.11,1.30,-0.13,0.27,2.94,
1.032,-0.07,-0.11,1.32,-0.13,0.27,2.94,
1.034,-0.08,-0.12,1.34,-0.13,0.27,2.94,
1.037,-0.08,-0.12,1.36,-0.13,0.27,2.94,
1.037,-0.08,-0.12,1.36,-0.11,0.25,3.37,
1.039,-0.09,-0.12,1.37,-0.11,0.25,3.37,
1.041,-0.10,-0.12,1.39,-0.11,0.25,3.37,
1.042,-0.10,-0.12,1.39,-0.17,0.19,3.80,
1.045,-0.11,-0.12,1.40,-0.17,0.19,3.80,
1.047,-0.11,-0.13,1.42,-0.17,0.19,3.80,
1.047,-0.11,-0.13,1.42,-0.29,0.19,4.06,
1.05,-0.13,-0.13,1.44,-0.29,0.19,4.06,
1.051,-0.14,-0.14,1.45,-0.29,0.19,4.06,
1.051,-0.14,-0.14,1.45,-0.45,0.17,4.35,
1.054,-0.16,-0.14,1.46,-0.45,0.17,4.35,
1.057,-0.16,-0.14,1.46,-0.69,0.10,4.68,
1.057,-0.18,-0.15,1.47,-0.69,0.10,4.68,
1.059,-0.18,-0.15,1.46,-0.69,0.10,4.68,
1.062,-0.19,-0.15,1.46,-0.69,0.10,4.68,
1.062,-0.19,-0.15,1.46,-0.97,0.04,4.86,
1.063,-0.19,-0.15,1.46,-0.97,0.04,4.86,
1.067,-0.19,-0.15,1.46,-0.97,0.04,4.86,
1.067,-0.19,-0.15,1.46,-1.15,0.04,4.81,
1.069,-0.19,-0.15,1.46,-1.15,0.04,4.81,
1.072,-0.18,-0.14,1.45,-1.15,0.04,4.81,
1.072,-0.18,-0.14,1.45,-1.16,0.01,4.83,
1.074,-0.18,-0.14,1.44,-1.16,0.01,4.83,
1.077,-0.17,-0.14,1.42,-1.16,0.01,4.83,
1.077,-0.17,-0.14,1.42,-1.13,0.10,4.74,
1.079,-0.15,-0.14,1.40,-1.13,0.10,4.74,
1.081,-0.15,-0.14,1.40,-0.99,0.15,4.46,
1.081,-0.13,-0.13,1.40,-0.99,0.15,4.46,
1.083,-0.12,-0.12,1.38,-0.99,0.15,4.46,
1.087,-0.11,-0.13,1.36,-0.99,0.15,4.46,
1.087,-0.11,-0.13,1.36,-0.69,0.24,4.17,
1.089,-0.10,-0.12,1.34,-0.69,0.24,4.17,
1.091,-0.09,-0.12,1.33,-0.69,0.24,4.17,
1.092,-0.09,-0.12,1.33,-0.48,0.33,3.86,
1.093,-0.08,-0.12,1.32,-0.48,0.33,3.86,
1.096,-0.07,-0.12,1.32,-0.48,0.33,3.86,
1.097,-0.07,-0.12,1.32,-0.24,0.36,3.53,
1.098,-0.06,-0.12,1.32,-0.24,0.36,3.53,
1.101,-0.05,-0.12,1.31,-0.24,0.36,3.53,
1.102,-0.05,-0.12,1.31,-0.05,0.39,3.38,
1.104,-0.05,-0.12,1.31,-0.05,0.39,3.38,
1.106,-0.05,-0.12,1.31,0.09,0.40,3.28,
1.107,-0.04,-0.12,1.31,0.09,0.40,3.28,
1.109,-0.03,-0.12,1.32,0.09,0.40,3.28,
1.112,-0.03,-0.12,1.32,0.09,0.40,3.28,
1.112,-0.03,-0.12,1.32,0.22,0.45,3.26,
1.113,-0.03,-0.12,1.33,0.22,0.45,3.26,
1.116,-0.02,-0.12,1.35,0.22,0.45,3.26,
1.116,-0.02,-0.12,1.35,0.31,0.46,3.34,
1.119,-0.02,-0.11,1.35,0.31,0.46,3.34,
1.121,-0.02,-0.11,1.35,0.38,0.46,3.51,
1.121,-0.01,-0.12,1.36,0.38,0.46,3.51,
1.123,-0.02,-0.12,1.38,0.38,0.46,3.51,
1.126,-0.02,-0.12,1.38,0.38,0.46,3.51,
1.127,-0.02,-0.12,1.38,0.44,0.46,3.68,
1.132,-0.02,-0.12,1.38,0.44,0.46,3.68,
1.132,-0.03,-0.11,1.38,0.44,0.46,3.68,
1.133,-0.03,-0.11,1.38,0.40,0.41,3.89,
1.133,-0.04,-0.11,1.38,0.40,0.41,3.89,
1.136,-0.05,-0.11,1.39,0.40,0.41,3.89,
1.136,-0.05,-0.11,1.39,0.32,0.48,3.90,
1.138,-0.06,-0.10,1.39,0.32,0.48,3.90,
1.141,-0.06,-0.10,1.39,0.32,0.48,3.90,
1.141,-0.06,-0.10,1.39,0.13,0.55,3.93,
1.143,-0.08,-0.10,1.38,0.13,0.55,3.93,
1.146,-0.08,-0.10,1.38,0.13,0.55,3.93,
1.147,-0.08,-0.10,1.38,-0.05,0.60,3.92,
1.148,-0.09,-0.09,1.37,-0.05,0.60,3.92,
1.151,-0.09,-0.09,1.36,-0.05,0.60,3.92,
1.154,-0.09,-0.09,1.36,-0.23,0.61,3.83,
1.154,-0.10,-0.08,1.35,-0.23,0.61,3.83,
1.155,-0.10,-0.06,1.33,-0.23,0.61,3.83,
1.155,-0.10,-0.06,1.33,-0.36,0.73,3.67,
1.157,-0.10,-0.05,1.31,-0.36,0.73,3.67,
1.162,-0.10,-0.05,1.30,-0.36,0.73,3.67,
1.163,-0.10,-0.05,1.30,-0.43,0.90,3.42,
1.163,-0.10,-0.05,1.28,-0.43,0.90,3.42,
1.165,-0.09,-0.04,1.26,-0.43,0.90,3.42,
1.165,-0.09,-0.04,1.26,-0.45,1.07,3.09,
1.167,-0.09,-0.03,1.25,-0.45,1.07,3.09,
1.17,-0.09,-0.02,1.23,-0.45,1.07,3.09,
1.17,-0.09,-0.02,1.23,-0.47,1.13,2.74,
1.172,-0.08,-0.02,1.22,-0.47,1.13,2.74,
1.175,-0.07,-0.02,1.20,-0.47,1.13,2.74,
1.175,-0.07,-0.02,1.20,-0.41,1.28,2.41,
1.178,-0.07,-0.02,1.20,-0.41,1.28,2.41,
1.18,-0.07,-0.02,1.19,-0.41,1.28,2.41,
1.181,-0.07,-0.02,1.19,-0.29,1.31,2.12,
1.182,-0.06,-0.01,1.18,-0.29,1.31,2.12,
1.185,-0.05,-0.02,1.18,-0.29,1.31,2.12,
1.185,-0.05,-0.02,1.18,-0.24,1.36,1.94,
1.187,-0.04,-0.02,1.19,-0.24,1.36,1.94,
1.191,-0.04,-0.02,1.19,-0.09,1.34,1.83,
1.191,-0.03,-0.03,1.20,-0.09,1.34,1.83,
1.192,-0.01,-0.03,1.20,-0.09,1.34,1.83,
1.196,-0.01,-0.04,1.22,-0.09,1.34,1.83,
1.196,-0.01,-0.04,1.22,0.11,1.26,1.95,
1.197,0.00,-0.04,1.23,0.11,1.26,1.95,
1.2,0.01,-0.05,1.24,0.11,1.26,1.95,
1.2,0.01,-0.05,1.24,0.27,1.17,2.11,
1.202,0.01,-0.05,1.26,0.27,1.17,2.11,
1.204,0.01,-0.06,1.27,0.27,1.17,2.11,
1.205,0.01,-0.06,1.27,0.42,1.02,2.33,
1.207,0.01,-0.06,1.27,0.42,1.02,2.33,
1.209,0.01,-0.07,1.29,0.42,1.02,2.33,
1.21,0.01,-0.07,1.29,0.42,0.93,2.60,
1.215,0.01,-0.07,1.29,0.42,0.93,2.60,
1.216,0.01,-0.07,1.30,0.42,0.93,2.60,
1.216,0.01,-0.07,1.30,0.40,0.84,2.76,
1.217,0.01,-0.07,1.32,0.40,0.84,2.76,
1.219,0.01,-0.07,1.32,0.40,0.84,2.76,
1.22,0.01,-0.07,1.32,0.40,0.79,2.92,
1.222,0.01,-0.08,1.31,0.40,0.79,2.92,
1.224,0.02,-0.09,1.32,0.40,0.79,2.92,
1.225,0.02,-0.09,1.32,0.34,0.76,3.08,
1.228,0.01,-0.09,1.32,0.34,0.76,3.08,
1.23,0.01,-0.09,1.32,0.34,0.76,3.08,
1.23,0.01,-0.09,1.32,0.35,0.62,3.10,
1.232,0.01,-0.09,1.31,0.35,0.62,3.10,
1.234,0.01,-0.09,1.30,0.35,0.62,3.10,
1.235,0.01,-0.09,1.30,0.30,0.60,3.11,
1.236,0.02,-0.08,1.29,0.30,0.60,3.11,
1.239,0.02,-0.08,1.29,0.30,0.60,3.11,
1.239,0.02,-0.08,1.29,0.29,0.63,2.93,
1.242,0.02,-0.08,1.27,0.29,0.63,2.93,
1.245,0.02,-0.08,1.27,0.29,0.63,2.93,
1.246,0.02,-0.08,1.27,0.30,0.65,2.77,
1.247,0.01,-0.08,1.26,0.30,0.65,2.77,
1.249,0.00,-0.09,1.26,0.30,0.65,2.77,
1.249,0.00,-0.09,1.26,0.29,0.72,2.57,
1.251,-0.01,-0.09,1.25,0.29,0.72,2.57,
1.254,-0.02,-0.09,1.25,0.29,0.72,2.57,
1.254,-0.02,-0.09,1.25,0.15,0.61,2.48,
1.256,-0.03,-0.09,1.25,0.15,0.61,2.48,
1.259,-0.03,-0.08,1.25,0.15,0.61,2.48,
1.259,-0.03,-0.08,1.25,-0.12,0.57,2.40,
1.262,-0.04,-0.09,1.26,-0.12,0.57,2.40,
1.264,-0.04,-0.08,1.26,-0.12,0.57,2.40,
1.264,-0.04,-0.08,1.26,-0.27,0.60,2.37,
1.266,-0.03,-0.08,1.27,-0.27,0.60,2.37,
1.269,-0.02,-0.08,1.28,-0.27,0.60,2.37,
1.27,-0.02,-0.08,1.28,-0.34,0.61,2.49,
1.271,-0.03,-0.09,1.28,-0.34,0.61,2.49,
1.274,-0.03,-0.10,1.29,-0.34,0.61,2.49,
1.274,-0.03,-0.10,1.29,-0.23,0.64,2.60,
1.276,-0.03,-0.12,1.29,-0.23,0.64,2.60,
1.281,-0.03,-0.13,1.30,-0.23,0.64,2.60,
1.281,-0.03,-0.13,1.30,-0.27,0.46,2.71,
1.282,-0.03,-0.14,1.30,-0.27,0.46,2.71,
1.284,-0.03,-0.14,1.30,-0.33,0.22,2.78,
1.284,-0.03,-0.14,1.31,-0.33,0.22,2.78,
1.286,-0.03,-0.15,1.31,-0.33,0.22,2.78,
1.289,-0.03,-0.15,1.31,-0.33,0.22,2.78,
1.289,-0.03,-0.15,1.31,-0.33,0.05,2.89,
1.291,-0.04,-0.15,1.32,-0.33,0.05,2.89,
1.295,-0.04,-0.16,1.32,-0.33,0.05,2.89,
1.295,-0.04,-0.16,1.32,-0.38,-0.09,2.92,
1.296,-0.03,-0.15,1.31,-0.38,-0.09,2.92,
1.299,-0.03,-0.16,1.31,-0.38,-0.09,2.92,
1.299,-0.03,-0.16,1.31,-0.45,-0.09,2.98,
1.301,-0.02,-0.15,1.30,-0.45,-0.09,2.98,
1.304,-0.02,-0.15,1.30,-0.45,-0.09,2.98,
1.304,-0.02,-0.15,1.30,-0.42,-0.14,2.91,
1.306,-0.01,-0.15,1.29,-0.42,-0.14,2.91,
1.309,-0.01,-0.15,1.29,-0.37,-0.08,2.80,
1.31,-0.00,-0.14,1.28,-0.37,-0.08,2.80,
1.312,0.00,-0.13,1.26,-0.37,-0.08,2.80,
1.313,0.01,-0.12,1.25,-0.37,-0.08,2.80,
1.314,0.01,-0.12,1.25,-0.28,-0.01,2.61,
1.316,0.02,-0.11,1.23,-0.28,-0.01,2.61,
1.319,0.02,-0.10,1.22,-0.28,-0.01,2.61,
1.32,0.02,-0.10,1.22,-0.17,0.14,2.36,
1.321,0.03,-0.09,1.19,-0.17,0.14,2.36,
1.324,0.03,-0.08,1.18,-0.17,0.14,2.36,
1.324,0.03,-0.08,1.18,-0.10,0.30,2.04,
1.326,0.03,-0.07,1.16,-0.10,0.30,2.04,
1.33,0.02,-0.07,1.15,-0.10,0.30,2.04,
1.331,0.02,-0.07,1.15,-0.05,0.46,1.62,
1.331,0.02,-0.07,1.15,-0.05,0.46,1.62,
1.334,0.02,-0.07,1.16,-0.05,0.46,1.62,
1.335,0.02,-0.07,1.16,-0.12,0.57,1.36,
1.339,-0.00,-0.08,1.17,-0.12,0.57,1.36,
1.339,-0.02,-0.08,1.17,-0.12,0.57,1.36,
1.339,-0.02,-0.08,1.17,-0.20,0.58,1.33,
1.341,-0.03,-0.09,1.18,-0.20,0.58,1.33,
1.344,-0.04,-0.10,1.18,-0.20,0.58,1.33,
1.344,-0.04,-0.10,1.18,-0.47,0.47,1.47,
1.348,-0.04,-0.10,1.19,-0.47,0.47,1.47,
1.349,-0.05,-0.11,1.21,-0.47,0.47,1.47,
1.349,-0.05,-0.11,1.21,-0.77,0.31,1.56,
1.351,-0.05,-0.12,1.22,-0.77,0.31,1.56,
1.353,-0.05,-0.12,1.23,-0.77,0.31,1.56,
1.354,-0.05,-0.12,1.23,-0.89,0.18,1.74,
1.356,-0.04,-0.12,1.25,-0.89,0.18,1.74,
1.359,-0.03,-0.13,1.26,-0.89,0.18,1.74,
1.359,-0.03,-0.13,1.26,-0.94,0.04,2.01,
1.361,-0.03,-0.13,1.27,-0.94,0.04,2.01,
1.363,-0.03,-0.15,1.28,-0.94,0.04,2.01,
1.363,-0.03,-0.15,1.28,-0.80,-0.02,2.29,
1.365,-0.03,-0.16,1.28,-0.80,-0.02,2.29,
1.368,-0.03,-0.16,1.28,-0.81,-0.16,2.46,
1.369,-0.03,-0.17,1.29,-0.81,-0.16,2.46,
1.37,-0.03,-0.18,1.29,-0.81,-0.16,2.46,
1.374,-0.03,-0.18,1.29,-0.83,-0.42,2.57,
1.374,-0.02,-0.18,1.29,-0.83,-0.42,2.57,
1.376,-0.01,-0.18,1.28,-0.83,-0.42,2.57,
1.38,-0.00,-0.18,1.27,-0.83,-0.42,2.57,
1.381,-0.00,-0.18,1.27,-0.78,-0.59,2.58,
1.381,0.00,-0.17,1.26,-0.78,-0.59,2.58,
1.383,0.00,-0.17,1.26,-0.67,-0.59,2.45,
1.383,0.01,-0.16,1.25,-0.67,-0.59,2.45,
1.385,0.01,-0.16,1.23,-0.67,-0.59,2.45,
1.389,0.01,-0.16,1.23,-0.64,-0.49,2.25,
1.389,0.02,-0.14,1.21,-0.64,-0.49,2.25,
1.391,0.03,-0.13,1.19,-0.64,-0.49,2.25,
1.394,0.03,-0.13,1.17,-0.64,-0.49,2.25,
1.394,0.03,-0.13,1.17,-0.56,-0.35,1.94,
1.396,0.04,-0.12,1.15,-0.56,-0.35,1.94,
1.398,0.05,-0.11,1.12,-0.56,-0.35,1.94,
1.398,0.05,-0.11,1.12,-0.50,-0.18,1.56,
1.4,0.05,-0.11,1.09,-0.50,-0.18,1.56,
1.403,0.05,-0.11,1.09,-0.41,-0.05,1.07,
1.404,0.05,-0.10,1.07,-0.41,-0.05,1.07,
1.405,0.06,-0.09,1.04,-0.41,-0.05,1.07,
1.408,0.06,-0.09,1.01,-0.41,-0.05,1.07,
1.408,0.06,-0.09,1.01,-0.35,0.03,0.54,
1.411,0.06,-0.09,0.99,-0.35,0.03,0.54,
1.413,0.06,-0.09,0.97,-0.35,0.03,0.54,
1.413,0.06,-0.09,0.97,-0.29,0.08,-0.01,
1.415,0.05,-0.09,0.95,-0.29,0.08,-0.01,
1.418,0.05,-0.09,0.95,-0.31,0.04,-0.45,
1.419,0.05,-0.09,0.93,-0.31,0.04,-0.45,
1.42,0.05,-0.09,0.92,-0.31,0.04,-0.45,
1.423,0.05,-0.09,0.92,-0.36,0.04,-0.85,
1.423,0.04,-0.09,0.92,-0.36,0.04,-0.85,
1.425,0.04,-0.10,0.91,-0.36,0.04,-0.85,
1.428,0.03,-0.10,0.92,-0.36,0.04,-0.85,
1.428,0.03,-0.10,0.92,-0.42,0.01,-1.05,
1.434,0.02,-0.10,0.94,-0.42,0.01,-1.05,
1.434,0.02,-0.11,0.97,-0.42,0.01,-1.05,
1.434,0.02,-0.11,0.97,-0.54,-0.05,-1.09,
1.435,0.01,-0.12,1.00,-0.54,-0.05,-1.09,
1.438,0.01,-0.12,1.00,-0.65,-0.12,-0.69,
1.438,0.00,-0.12,1.02,-0.65,-0.12,-0.69,
1.44,-0.00,-0.13,1.05,-0.65,-0.12,-0.69,
1.443,-0.01,-0.14,1.08,-0.65,-0.12,-0.69,
1.443,-0.01,-0.14,1.08,-0.77,-0.25,-0.14,
1.447,-0.01,-0.15,1.11,-0.77,-0.25,-0.14,
1.447,-0.01,-0.16,1.14,-0.77,-0.25,-0.14,
1.448,-0.01,-0.16,1.14,-0.87,-0.42,0.41,
1.45,-0.00,-0.17,1.16,-0.87,-0.42,0.41,
1.452,-0.00,-0.17,1.16,-0.91,-0.61,0.97,
1.452,0.00,-0.18,1.18,-0.91,-0.61,0.97,
1.455,0.00,-0.19,1.19,-0.91,-0.61,0.97,
1.457,0.00,-0.19,1.20,-0.91,-0.61,0.97,
1.457,0.00,-0.19,1.20,-0.83,-0.76,1.41,
1.459,0.01,-0.20,1.21,-0.83,-0.76,1.41,
1.464,0.02,-0.21,1.22,-0.83,-0.76,1.41,
1.464,0.02,-0.21,1.22,-0.83,-0.92,1.68,
1.464,0.02,-0.22,1.23,-0.83,-0.92,1.68,
1.467,0.03,-0.22,1.22,-0.83,-0.92,1.68,
1.467,0.03,-0.22,1.22,-0.77,-1.06,1.84,
1.469,0.04,-0.22,1.21,-0.77,-1.06,1.84,
1.472,0.05,-0.22,1.20,-0.77,-1.06,1.84,
1.472,0.05,-0.22,1.20,-0.69,-1.22,1.94,
1.474,0.05,-0.22,1.20,-0.69,-1.22,1.94,
1.477,0.06,-0.22,1.18,-0.69,-1.22,1.94,
1.477,0.06,-0.22,1.18,-0.53,-1.27,1.79,
1.479,0.06,-0.21,1.16,-0.53,-1.27,1.79,
1.482,0.07,-0.20,1.14,-0.53,-1.27,1.79,
1.483,0.07,-0.20,1.14,-0.48,-1.26,1.60,
1.484,0.07,-0.20,1.13,-0.48,-1.26,1.60,
1.487,0.07,-0.20,1.13,-0.42,-1.15,1.22,
1.487,0.07,-0.19,1.11,-0.42,-1.15,1.22,
1.489,0.08,-0.18,1.08,-0.42,-1.15,1.22,
1.492,0.08,-0.17,1.06,-0.42,-1.15,1.22,
1.492,0.08,-0.17,1.06,-0.38,-1.05,0.87,
1.494,0.09,-0.16,1.04,-0.38,-1.05,0.87,
1.497,0.09,-0.15,1.01,-0.38,-1.05,0.87,
1.497,0.09,-0.15,1.01,-0.31,-0.90,0.43,
1.499,0.09,-0.14,0.99,-0.31,-0.90,0.43,
1.501,0.09,-0.14,0.96,-0.31,-0.90,0.43,
1.502,0.09,-0.14,0.96,-0.25,-0.76,-0.04,
1.504,0.08,-0.13,0.94,-0.25,-0.76,-0.04,
1.507,0.08,-0.13,0.91,-0.25,-0.76,-0.04,
1.507,0.08,-0.13,0.91,-0.29,-0.65,-0.50,
1.509,0.08,-0.13,0.89,-0.29,-0.65,-0.50,
1.513,0.07,-0.13,0.86,-0.29,-0.65,-0.50,
1.513,0.07,-0.13,0.86,-0.34,-0.59,-1.01,
1.515,0.07,-0.12,0.85,-0.34,-0.59,-1.01,
1.517,0.08,-0.11,0.83,-0.34,-0.59,-1.01,
1.517,0.08,-0.11,0.83,-0.39,-0.60,-1.52,
1.519,0.08,-0.11,0.82,-0.39,-0.60,-1.52,
1.521,0.08,-0.10,0.81,-0.39,-0.60,-1.52,
1.521,0.08,-0.10,0.81,-0.40,-0.56,-1.84,
1.524,0.09,-0.09,0.81,-0.40,-0.56,-1.84,
1.526,0.09,-0.09,0.81,-0.40,-0.56,-1.84,
1.527,0.09,-0.09,0.81,-0.30,-0.45,-2.08,
1.53,0.09,-0.08,0.82,-0.30,-0.45,-2.08,
1.531,0.09,-0.08,0.82,-0.21,-0.38,-2.15,
1.532,0.09,-0.08,0.83,-0.21,-0.38,-2.15,
1.533,0.09,-0.07,0.84,-0.21,-0.38,-2.15,
1.536,0.09,-0.07,0.84,-0.17,-0.30,-1.97,
1.536,0.09,-0.08,0.84,-0.17,-0.30,-1.97,
1.539,0.08,-0.08,0.85,-0.17,-0.30,-1.97,
1.541,0.08,-0.09,0.86,-0.17,-0.30,-1.97,
1.541,0.08,-0.09,0.86,-0.22,-0.30,-1.81,
1.543,0.08,-0.10,0.87,-0.22,-0.30,-1.81,
1.546,0.08,-0.11,0.87,-0.22,-0.30,-1.81,
1.547,0.08,-0.11,0.87,-0.30,-0.41,-1.67,
1.548,0.09,-0.12,0.88,-0.30,-0.41,-1.67,
1.551,0.09,-0.13,0.89,-0.30,-0.41,-1.67,
1.551,0.09,-0.13,0.89,-0.26,-0.61,-1.54,
1.554,0.10,-0.13,0.89,-0.26,-0.61,-1.54,
1.556,0.11,-0.13,0.90,-0.26,-0.61,-1.54,
1.556,0.11,-0.13,0.90,-0.20,-0.81,-1.41,
1.558,0.12,-0.14,0.89,-0.20,-0.81,-1.41,
1.561,0.12,-0.15,0.90,-0.20,-0.81,-1.41,
1.561,0.12,-0.15,0.90,-0.08,-0.93,-1.29,
1.567,0.12,-0.16,0.90,-0.08,-0.93,-1.29,
1.568,0.12,-0.17,0.90,-0.08,-0.93,-1.29,
1.568,0.12,-0.17,0.90,0.05,-1.08,-1.26,
1.568,0.12,-0.17,0.90,0.05,-1.08,-1.26,
1.571,0.12,-0.17,0.90,0.02,-1.28,-1.18,
1.571,0.12,-0.17,0.90,0.02,-1.28,-1.18,
1.574,0.12,-0.17,0.90,0.02,-1.28,-1.18,
1.578,0.12,-0.16,0.90,0.02,-1.28,-1.18,
1.578,0.12,-0.16,0.90,0.03,-1.36,-1.22,
1.582,0.11,-0.16,0.89,0.03,-1.36,-1.22,
1.582,0.11,-0.16,0.90,0.03,-1.36,-1.22,
1.583,0.11,-0.16,0.90,-0.05,-1.31,-1.20,
1.583,0.10,-0.15,0.89,-0.05,-1.31,-1.20,
1.586,0.09,-0.15,0.89,-0.05,-1.31,-1.20,
1.586,0.09,-0.15,0.89,-0.13,-1.27,-1.26,
1.588,0.08,-0.16,0.89,-0.13,-1.27,-1.26,
1.591,0.08,-0.16,0.89,-0.28,-1.24,-1.31,
1.591,0.08,-0.16,0.88,-0.28,-1.24,-1.31,
1.593,0.07,-0.15,0.88,-0.28,-1.24,-1.31,
1.597,0.07,-0.15,0.87,-0.28,-1.24,-1.31,
1.598,0.07,-0.15,0.87,-0.45,-1.29,-1.37,
1.599,0.06,-0.14,0.85,-0.45,-1.29,-1.37,
1.601,0.06,-0.14,0.84,-0.45,-1.29,-1.37,
1.601,0.06,-0.14,0.84,-0.53,-1.28,-1.49,
1.603,0.06,-0.13,0.82,-0.53,-1.28,-1.49,
1.606,0.06,-0.12,0.80,-0.53,-1.28,-1.49,
1.606,0.06,-0.12,0.80,-0.59,-1.18,-1.73,
1.608,0.07,-0.11,0.78,-0.59,-1.18,-1.73,
1.611,0.07,-0.10,0.76,-0.59,-1.18,-1.73,
1.611,0.07,-0.10,0.76,-0.60,-1.07,-2.08,
1.616,0.08,-0.09,0.73,-0.60,-1.07,-2.08,
1.616,0.08,-0.09,0.73,-0.50,-0.95,-2.50,
1.617,0.08,-0.09,0.72,-0.50,-0.95,-2.50,
1.619,0.09,-0.09,0.71,-0.50,-0.95,-2.50,
1.62,0.10,-0.09,0.69,-0.50,-0.95,-2.50,
1.621,0.10,-0.09,0.69,-0.36,-0.87,-2.90,
1.624,0.11,-0.09,0.68,-0.36,-0.87,-2.90,
1.626,0.12,-0.09,0.67,-0.36,-0.87,-2.90,
1.627,0.12,-0.09,0.67,-0.20,-0.91,-3.16,
1.629,0.13,-0.08,0.68,-0.20,-0.91,-3.16,
1.631,0.14,-0.08,0.68,-0.20,-0.91,-3.16,
1.631,0.14,-0.08,0.68,0.00,-0.89,-3.35,
1.633,0.14,-0.08,0.69,0.00,-0.89,-3.35,
1.635,0.15,-0.08,0.70,0.00,-0.89,-3.35,
1.636,0.15,-0.08,0.70,0.23,-0.89,-3.35,
1.638,0.15,-0.08,0.70,0.23,-0.89,-3.35,
1.641,0.15,-0.08,0.72,0.23,-0.89,-3.35,
1.642,0.15,-0.08,0.72,0.41,-0.92,-3.20,
1.643,0.16,-0.08,0.73,0.41,-0.92,-3.20,
1.646,0.16,-0.07,0.75,0.41,-0.92,-3.20,
1.648,0.16,-0.07,0.75,0.47,-0.90,-3.04,
1.648,0.17,-0.07,0.77,0.47,-0.90,-3.04,
1.651,0.17,-0.07,0.77,0.59,-0.88,-2.76,
1.651,0.16,-0.08,0.80,0.59,-0.88,-2.76,
1.653,0.16,-0.08,0.81,0.59,-0.88,-2.76,
1.655,0.16,-0.08,0.81,0.68,-0.86,-2.33,
1.656,0.15,-0.09,0.83,0.68,-0.86,-2.33,
1.658,0.13,-0.09,0.85,0.68,-0.86,-2.33,
1.661,0.11,-0.09,0.86,0.68,-0.86,-2.33,
1.661,0.11,-0.09,0.86,0.58,-0.98,-1.95,
1.665,0.10,-0.09,0.87,0.58,-0.98,-1.95,
1.665,0.08,-0.09,0.88,0.58,-0.98,-1.95,
1.666,0.08,-0.09,0.88,0.29,-1.03,-1.60,
1.668,0.05,-0.09,0.88,0.29,-1.03,-1.60,
1.67,0.03,-0.08,0.88,0.29,-1.03,-1.60,
1.671,0.03,-0.08,0.88,-0.01,-1.07,-1.44,
1.672,0.02,-0.08,0.88,-0.01,-1.07,-1.44,
1.676,0.02,-0.08,0.88,-0.43,-1.05,-1.33,
1.677,-0.01,-0.08,0.88,-0.43,-1.05,-1.33,
1.677,-0.03,-0.08,0.88,-0.43,-1.05,-1.33,
1.68,-0.06,-0.07,0.88,-0.43,-1.05,-1.33,
1.68,-0.06,-0.07,0.88,-0.80,-1.01,-1.35,
1.682,-0.09,-0.07,0.88,-0.80,-1.01,-1.35,
1.685,-0.12,-0.06,0.87,-0.80,-1.01,-1.35,
1.686,-0.12,-0.06,0.87,-1.30,-0.97,-1.36,
1.687,-0.14,-0.05,0.86,-1.30,-0.97,-1.36,
1.691,-0.14,-0.05,0.86,-1.84,-0.87,-1.41,
1.691,-0.16,-0.04,0.85,-1.84,-0.87,-1.41,
1.692,-0.18,-0.03,0.85,-1.84,-0.87,-1.41,
1.695,-0.21,-0.02,0.84,-1.84,-0.87,-1.41,
1.695,-0.21,-0.02,0.84,-2.29,-0.72,-1.57,
1.697,-0.22,-0.01,0.83,-2.29,-0.72,-1.57,
1.7,-0.22,-0.01,0.82,-2.29,-0.72,-1.57,
1.7,-0.22,-0.01,0.82,-2.69,-0.59,-1.68,
1.702,-0.23,-0.00,0.81,-2.69,-0.59,-1.68,
1.705,-0.23,-0.00,0.81,-2.92,-0.47,-1.88,
1.705,-0.23,0.00,0.80,-2.92,-0.47,-1.88,
1.707,-0.23,0.01,0.79,-2.92,-0.47,-1.88,
1.71,-0.22,0.01,0.78,-2.92,-0.47,-1.88,
1.71,-0.22,0.01,0.78,-3.01,-0.41,-2.06,
1.712,-0.21,0.02,0.77,-3.01,-0.41,-2.06,
1.715,-0.21,0.02,0.77,-2.90,-0.37,-2.24,
1.715,-0.20,0.02,0.76,-2.90,-0.37,-2.24,
1.717,-0.18,0.02,0.75,-2.90,-0.37,-2.24,
1.72,-0.15,0.01,0.73,-2.90,-0.37,-2.24,
1.72,-0.15,0.01,0.73,-2.70,-0.33,-2.45,
1.722,-0.14,0.02,0.72,-2.70,-0.33,-2.45,
1.724,-0.12,0.03,0.71,-2.70,-0.33,-2.45,
1.725,-0.12,0.03,0.71,-2.30,-0.39,-2.67,
1.727,-0.09,0.03,0.69,-2.30,-0.39,-2.67,
1.73,-0.08,0.03,0.68,-2.30,-0.39,-2.67,
1.73,-0.08,0.03,0.68,-1.90,-0.36,-2.92,
1.733,-0.06,0.04,0.67,-1.90,-0.36,-2.92,
1.734,-0.04,0.04,0.66,-1.90,-0.36,-2.92,
1.734,-0.04,0.04,0.66,-1.47,-0.39,-3.19,
1.736,-0.03,0.04,0.63,-1.47,-0.39,-3.19,
1.739,-0.02,0.04,0.62,-1.47,-0.39,-3.19,
1.739,-0.02,0.04,0.62,-1.13,-0.32,-3.41,
1.742,-0.01,0.05,0.60,-1.13,-0.32,-3.41,
1.744,-0.00,0.05,0.59,-1.13,-0.32,-3.41,
1.745,-0.00,0.05,0.59,-0.84,-0.33,-3.78,
1.747,0.00,0.05,0.58,-0.84,-0.33,-3.78,
1.749,0.01,0.06,0.57,-0.84,-0.33,-3.78,
1.749,0.01,0.06,0.57,-0.65,-0.30,-4.04,
1.752,0.01,0.06,0.56,-0.65,-0.30,-4.04,
1.754,0.01,0.07,0.55,-0.65,-0.30,-4.04,
1.754,0.01,0.07,0.55,-0.53,-0.29,-4.22,
1.756,0.01,0.07,0.55,-0.53,-0.29,-4.22,
1.759,0.01,0.07,0.54,-0.53,-0.29,-4.22,
1.759,0.01,0.07,0.54,-0.45,-0.25,-4.41,
1.762,0.01,0.07,0.54,-0.45,-0.25,-4.41,
1.765,0.01,0.07,0.54,-0.44,-0.27,-4.48,
1.765,0.01,0.07,0.54,-0.44,-0.27,-4.48,
1.767,0.00,0.07,0.54,-0.44,-0.27,-4.48,
1.769,-0.00,0.07,0.54,-0.44,-0.27,-4.48,
1.769,-0.00,0.07,0.54,-0.42,-0.29,-4.54,
1.771,-0.01,0.07,0.55,-0.42,-0.29,-4.54,
1.774,-0.02,0.06,0.56,-0.42,-0.29,-4.54,
1.774,-0.02,0.06,0.56,-0.52,-0.31,-4.52,
1.776,-0.02,0.06,0.56,-0.52,-0.31,-4.52,
1.779,-0.02,0.06,0.56,-0.52,-0.31,-4.52,
1.779,-0.02,0.06,0.56,-0.64,-0.37,-4.38,
1.781,-0.03,0.06,0.58,-0.64,-0.37,-4.38,
1.784,-0.03,0.06,0.59,-0.64,-0.37,-4.38,
1.784,-0.03,0.06,0.59,-0.73,-0.41,-4.29,
1.786,-0.03,0.07,0.60,-0.73,-0.41,-4.29,
1.789,-0.03,0.07,0.60,-0.80,-0.44,-4.08,
1.789,-0.04,0.08,0.61,-0.80,-0.44,-4.08,
1.791,-0.04,0.08,0.61,-0.80,-0.44,-4.08,
1.794,-0.04,0.08,0.61,-0.83,-0.32,-3.88,
1.794,-0.05,0.09,0.62,-0.83,-0.32,-3.88,
1.796,-0.07,0.09,0.63,-0.83,-0.32,-3.88,
1.799,-0.07,0.09,0.63,-0.94,-0.21,-3.76,
1.8,-0.08,0.09,0.64,-0.94,-0.21,-3.76,
1.801,-0.08,0.08,0.65,-0.94,-0.21,-3.76,
1.805,-0.08,0.08,0.65,-0.94,-0.21,-3.76,
1.805,-0.08,0.08,0.65,-1.17,-0.20,-3.53,
1.806,-0.09,0.07,0.66,-1.17,-0.20,-3.53,
1.809,-0.09,0.07,0.66,-1.17,-0.20,-3.53,
1.809,-0.09,0.07,0.66,-1.25,-0.28,-3.41,
1.811,-0.10,0.07,0.67,-1.25,-0.28,-3.41,
1.814,-0.09,0.07,0.68,-1.25,-0.28,-3.41,
1.814,-0.09,0.07,0.68,-1.35,-0.37,-3.29,
1.817,-0.10,0.07,0.70,-1.35,-0.37,-3.29,
1.82,-0.09,0.08,0.70,-1.35,-0.37,-3.29,
1.82,-0.09,0.08,0.70,-1.33,-0.37,-3.10,
1.821,-0.09,0.08,0.71,-1.33,-0.37,-3.10,
1.824,-0.09,0.09,0.71,-1.33,-0.37,-3.10,
1.824,-0.09,0.09,0.71,-1.32,-0.30,-2.88,
1.826,-0.11,0.08,0.74,-1.32,-0.30,-2.88,
1.829,-0.11,0.08,0.74,-1.26,-0.23,-2.78,
1.829,-0.27,0.06,0.96,-1.26,-0.23,-2.78,
1.831,-0.67,0.04,1.63,-1.26,-0.23,-2.78,
1.833,-0.63,0.12,1.83,-1.26,-0.23,-2.78,
1.833,-0.63,0.12,1.83,-2.19,-0.34,-1.42,
1.836,-0.21,0.17,1.29,-2.19,-0.34,-1.42,
1.839,-0.04,0.14,1.00,-2.19,-0.34,-1.42,
1.839,-0.04,0.14,1.00,-6.69,-0.27,7.16,
1.841,-0.02,0.11,0.91,-6.69,-0.27,7.16,
1.843,-0.07,0.08,0.88,-6.69,-0.27,7.16,
1.843,-0.07,0.08,0.88,-1.58,0.41,1.46,
1.846,-0.13,0.06,0.91,-1.58,0.41,1.46,
1.849,-0.16,0.05,0.98,-1.58,0.41,1.46,
1.849,-0.16,0.05,0.98,-0.75,-0.26,-1.00,
1.85,-0.13,0.04,1.01,-0.75,-0.26,-1.00,
1.854,-0.09,0.03,1.00,-0.75,-0.26,-1.00,
1.854,-0.09,0.03,1.00,-1.71,-0.71,-0.50,
1.856,-0.05,0.03,0.97,-1.71,-0.71,-0.50,
1.859,-0.03,0.04,0.95,-1.71,-0.71,-0.50,
1.859,-0.03,0.04,0.95,-1.35,-0.92,0.13,
1.861,-0.01,0.06,0.94,-1.35,-0.92,0.13,
1.864,-0.00,0.07,0.92,-1.35,-0.92,0.13,
1.864,-0.00,0.07,0.92,-0.64,-0.97,-0.28,
1.869,0.01,0.09,0.91,-0.64,-0.97,-0.28,
1.869,0.02,0.11,0.90,-0.64,-0.97,-0.28,
1.869,0.02,0.11,0.90,-0.30,-0.73,-0.62,
1.87,0.03,0.12,0.88,-0.30,-0.73,-0.62,
1.873,0.03,0.14,0.86,-0.30,-0.73,-0.62,
1.873,0.03,0.14,0.86,-0.08,-0.43,-0.83,
1.876,0.02,0.14,0.84,-0.08,-0.43,-0.83,
1.878,0.02,0.15,0.82,-0.08,-0.43,-0.83,
1.879,0.02,0.15,0.82,0.06,-0.20,-1.15,
1.88,0.01,0.16,0.81,0.06,-0.20,-1.15,
1.883,-0.00,0.16,0.80,0.06,-0.20,-1.15,
1.883,-0.00,0.16,0.80,-0.01,-0.07,-1.52,
1.885,-0.02,0.17,0.79,-0.01,-0.07,-1.52,
1.888,-0.03,0.17,0.77,-0.01,-0.07,-1.52,
1.889,-0.03,0.17,0.77,-0.14,0.01,-1.76,
1.891,-0.05,0.18,0.75,-0.14,0.01,-1.76,
1.893,-0.05,0.18,0.73,-0.14,0.01,-1.76,
1.894,-0.05,0.18,0.73,-0.46,0.03,-2.03,
1.896,-0.06,0.18,0.71,-0.46,0.03,-2.03,
1.898,-0.06,0.18,0.69,-0.46,0.03,-2.03,
1.899,-0.06,0.18,0.69,-0.68,0.08,-2.37,
1.9,-0.07,0.19,0.67,-0.68,0.08,-2.37,
1.903,-0.07,0.19,0.67,-0.68,0.08,-2.37,
1.904,-0.07,0.19,0.67,-0.77,0.08,-2.78,
1.905,-0.09,0.19,0.66,-0.77,0.08,-2.78,
1.908,-0.09,0.19,0.65,-0.77,0.08,-2.78,
1.908,-0.09,0.19,0.65,-0.87,0.10,-3.07,
1.91,-0.10,0.20,0.65,-0.87,0.10,-3.07,
1.913,-0.10,0.20,0.65,-1.05,0.11,-3.22,
1.914,-0.11,0.21,0.65,-1.05,0.11,-3.22,
1.915,-0.12,0.21,0.66,-1.05,0.11,-3.22,
1.918,-0.12,0.22,0.69,-1.05,0.11,-3.22,
1.918,-0.12,0.22,0.69,-1.20,0.22,-3.26,
1.921,-0.12,0.22,0.72,-1.20,0.22,-3.26,
1.923,-0.11,0.22,0.74,-1.20,0.22,-3.26,
1.923,-0.11,0.22,0.74,-1.36,0.31,-3.00,
1.925,-0.09,0.23,0.75,-1.36,0.31,-3.00,
1.928,-0.07,0.23,0.74,-1.36,0.31,-3.00,
1.928,-0.07,0.23,0.74,-1.34,0.34,-2.44,
1.93,-0.06,0.24,0.73,-1.34,0.34,-2.44,
1.932,-0.04,0.24,0.72,-1.34,0.34,-2.44,
1.933,-0.04,0.24,0.72,-1.00,0.44,-2.30,
1.934,-0.03,0.24,0.73,-1.00,0.44,-2.30,
1.937,-0.03,0.24,0.73,-1.00,0.44,-2.30,
1.938,-0.03,0.24,0.73,-0.68,0.51,-2.46,
1.94,-0.03,0.23,0.75,-0.68,0.51,-2.46,
1.942,-0.04,0.23,0.77,-0.68,0.51,-2.46,
1.942,-0.04,0.23,0.77,-0.46,0.51,-2.41,
1.944,-0.05,0.22,0.81,-0.46,0.51,-2.41,
1.948,-0.07,0.21,0.83,-0.46,0.51,-2.41,
1.949,-0.07,0.21,0.83,-0.48,0.45,-2.10,
1.949,-0.09,0.21,0.86,-0.48,0.45,-2.10,
1.952,-0.11,0.20,0.88,-0.48,0.45,-2.10,
1.952,-0.11,0.20,0.88,-0.76,0.29,-1.55,
1.954,-0.12,0.20,0.90,-0.76,0.29,-1.55,
1.957,-0.12,0.20,0.91,-0.76,0.29,-1.55,
1.957,-0.12,0.20,0.91,-1.12,0.17,-1.06,
1.959,-0.09,0.22,0.92,-1.12,0.17,-1.06,
1.962,-0.04,0.24,0.92,-1.12,0.17,-1.06,
1.962,-0.04,0.24,0.92,-1.34,0.18,-0.69,
1.965,0.01,0.25,0.93,-1.34,0.18,-0.69,
1.967,0.04,0.25,0.93,-1.34,0.18,-0.69,
1.967,0.04,0.25,0.93,-0.82,0.48,-0.55,
1.969,0.04,0.23,0.95,-0.82,0.48,-0.55,
1.972,0.03,0.22,0.95,-0.82,0.48,-0.55,
1.972,0.03,0.22,0.95,0.13,0.70,-0.44,
1.974,0.01,0.20,0.95,0.13,0.70,-0.44,
1.977,-0.01,0.18,0.96,0.13,0.70,-0.44,
1.977,-0.01,0.18,0.96,0.22,0.45,-0.31,
1.979,-0.01,0.18,0.96,0.22,0.45,-0.31,
1.982,-0.01,0.18,0.97,0.22,0.45,-0.31,
1.983,-0.01,0.18,0.97,-0.12,0.09,-0.24,
1.984,-0.00,0.19,0.97,-0.12,0.09,-0.24,
1.987,0.01,0.21,0.97,-0.12,0.09,-0.24,
1.987,0.01,0.21,0.97,-0.24,0.01,-0.13,
1.989,0.02,0.22,0.98,-0.24,0.01,-0.13,
1.992,0.02,0.22,0.98,-0.07,0.21,-0.04,
1.992,0.02,0.23,0.98,-0.07,0.21,-0.04,
1.995,0.01,0.22,0.98,-0.07,0.21,-0.04,
1.997,0.01,0.22,0.97,-0.07,0.21,-0.04,
1.997,0.01,0.22,0.97,0.06,0.45,0.01,
2.002,0.01,0.21,0.97,0.06,0.45,0.01,
2.002,0.01,0.20,0.97,0.06,0.45,0.01,
2.003,0.01,0.20,0.97,-0.02,0.41,-0.01,
2.005,0.02,0.19,0.97,-0.02,0.41,-0.01,
2.007,0.02,0.19,0.97,-0.02,0.41,-0.01,
2.007,0.02,0.19,0.97,-0.00,0.29,-0.06,
2.009,0.02,0.18,0.97,-0.00,0.29,-0.06,
2.012,0.02,0.17,0.97,-0.00,0.29,-0.06,
2.012,0.02,0.17,0.97,0.08,0.14,-0.08,
2.014,0.02,0.16,0.98,0.08,0.14,-0.08,
2.017,0.02,0.15,0.98,0.08,0.14,-0.08,
2.017,0.02,0.15,0.98,0.12,-0.03,-0.06,
2.019,0.01,0.15,0.99,0.12,-0.03,-0.06,
2.021,0.01,0.15,0.99,0.11,-0.17,0.06,
2.022,0.01,0.15,0.98,0.11,-0.17,0.06,
2.024,0.01,0.15,0.98,0.11,-0.17,0.06,
2.027,0.01,0.15,0.98,0.11,-0.17,0.06,
2.027,0.01,0.15,0.98,0.04,-0.24,0.07,
2.029,0.01,0.15,0.98,0.04,-0.24,0.07,
2.032,-0.00,0.15,0.97,0.04,-0.24,0.07,
2.033,-0.00,0.15,0.97,0.01,-0.27,0.04,
2.034,-0.00,0.15,0.96,0.01,-0.27,0.04,
2.037,-0.00,0.15,0.95,0.01,-0.27,0.04,
2.037,-0.00,0.15,0.95,-0.04,-0.26,-0.06,
2.039,-0.00,0.15,0.96,-0.04,-0.26,-0.06,
2.041,0.01,0.16,0.96,-0.04,-0.26,-0.06,
2.042,0.01,0.16,0.96,-0.10,-0.22,-0.21,
2.044,-0.01,0.16,0.95,-0.10,-0.22,-0.21,
2.047,-0.02,0.15,0.94,-0.10,-0.22,-0.21,
2.047,-0.02,0.15,0.94,-0.04,-0.19,-0.17,
2.048,-0.00,0.16,0.96,-0.04,-0.19,-0.17,
2.052,-0.01,0.15,0.96,-0.04,-0.19,-0.17,
2.052,-0.01,0.15,0.96,-0.22,-0.20,-0.31,
2.054,-0.03,0.16,0.95,-0.22,-0.20,-0.31,
2.057,-0.01,0.16,0.97,-0.22,-0.20,-0.31,
2.057,-0.01,0.16,0.97,-0.12,-0.21,-0.16,
2.059,-0.00,0.16,0.98,-0.12,-0.21,-0.16,
2.061,-0.02,0.16,0.98,-0.12,-0.21,-0.16,
2.062,-0.02,0.16,0.98,-0.28,-0.15,-0.18,
2.064,-0.01,0.16,0.99,-0.28,-0.15,-0.18,
2.066,-0.01,0.16,0.99,-0.28,-0.15,-0.18,
2.067,-0.01,0.16,0.99,-0.15,-0.12,0.02,
2.068,-0.01,0.16,0.99,-0.15,-0.12,0.02,
2.071,-0.01,0.15,0.99,-0.15,-0.12,0.02,
2.072,-0.01,0.15,0.99,-0.12,-0.14,0.10,
2.074,-0.01,0.16,1.00,-0.12,-0.14,0.10,
2.077,-0.00,0.16,0.99,-0.12,-0.14,0.10,
2.077,-0.00,0.16,0.99,-0.12,-0.18,0.11,
2.079,-0.01,0.16,1.00,-0.12,-0.18,0.11,
2.081,-0.01,0.16,1.00,-0.13,-0.11,0.15,
2.082,-0.00,0.17,0.99,-0.13,-0.11,0.15,
2.086,-0.00,0.17,0.99,-0.13,-0.11,0.15,
2.087,-0.00,0.17,1.00,-0.13,-0.11,0.15,
2.087,-0.00,0.17,1.00,-0.09,-0.06,0.17,
2.09,0.00,0.16,1.00,-0.09,-0.06,0.17,
2.091,0.00,0.17,0.99,-0.09,-0.06,0.17,
2.091,0.00,0.17,0.99,-0.07,-0.04,0.17,
2.093,0.00,0.17,0.98,-0.07,-0.04,0.17,
2.096,0.01,0.17,0.98,-0.07,-0.04,0.17,
2.096,0.01,0.17,0.98,-0.01,-0.06,0.14,
2.1,0.01,0.17,0.97,-0.01,-0.06,0.14,
2.101,0.01,0.18,0.96,-0.01,-0.06,0.14,
2.101,0.01,0.18,0.96,0.03,-0.01,-0.00,
2.103,0.00,0.18,0.96,0.03,-0.01,-0.00,
2.105,-0.00,0.19,0.95,0.03,-0.01,-0.00,
2.106,-0.00,0.19,0.95,0.04,0.05,-0.15,
2.108,-0.01,0.20,0.94,0.04,0.05,-0.15,
2.111,-0.02,0.20,0.94,0.04,0.05,-0.15,
2.111,-0.02,0.20,0.94,-0.01,0.17,-0.27,
2.113,-0.02,0.20,0.93,-0.01,0.17,-0.27,
2.115,-0.02,0.20,0.93,-0.01,0.17,-0.27,
2.116,-0.02,0.20,0.93,-0.12,0.27,-0.40,
2.118,-0.02,0.20,0.92,-0.12,0.27,-0.40,
2.12,-0.04,0.21,0.92,-0.12,0.27,-0.40,
2.121,-0.04,0.21,0.92,-0.22,0.28,-0.47,
2.123,-0.03,0.21,0.92,-0.22,0.28,-0.47,
2.125,-0.03,0.21,0.92,-0.22,0.28,-0.47,
2.125,-0.03,0.21,0.92,-0.31,0.36,-0.55,
2.127,-0.02,0.22,0.94,-0.31,0.36,-0.55,
2.13,-0.02,0.21,0.96,-0.31,0.36,-0.55,
2.13,-0.02,0.21,0.96,-0.28,0.44,-0.57,
2.133,-0.02,0.21,0.97,-0.28,0.44,-0.57,
2.135,-0.02,0.21,0.98,-0.28,0.44,-0.57,
2.135,-0.02,0.21,0.98,-0.18,0.46,-0.29,
2.138,-0.02,0.20,0.99,-0.18,0.46,-0.29,
2.141,-0.01,0.20,0.98,-0.18,0.46,-0.29,
2.144,-0.01,0.20,0.98,-0.17,0.44,-0.02,
2.144,-0.02,0.19,0.96,-0.17,0.44,-0.02,
2.146,-0.02,0.19,0.96,-0.11,0.36,0.06,
2.146,-0.02,0.19,0.96,-0.11,0.36,0.06,
2.148,-0.02,0.19,0.97,-0.11,0.36,0.06,
2.15,-0.02,0.19,1.00,-0.11,0.36,0.06,
2.151,-0.02,0.19,1.00,-0.14,0.23,-0.23,
2.153,-0.01,0.19,1.01,-0.14,0.23,-0.23,
2.157,-0.00,0.19,1.03,-0.14,0.23,-0.23,
2.157,-0.00,0.19,1.03,-0.11,0.28,0.05,
2.157,-0.01,0.19,1.03,-0.11,0.28,0.05,
2.161,-0.01,0.19,1.04,-0.11,0.28,0.05,
2.161,-0.01,0.19,1.04,-0.01,0.29,0.39,
2.162,-0.01,0.19,1.05,-0.01,0.29,0.39,
2.167,-0.02,0.19,1.06,-0.01,0.29,0.39,
2.168,-0.02,0.19,1.06,-0.03,0.26,0.58,
2.168,-0.01,0.18,1.05,-0.03,0.26,0.58,
2.17,-0.01,0.18,1.05,-0.09,0.26,0.73,
2.171,-0.00,0.18,1.05,-0.09,0.26,0.73,
2.172,-0.00,0.17,1.04,-0.09,0.26,0.73,
2.176,0.01,0.17,1.04,-0.09,0.26,0.73,
2.176,0.01,0.17,1.04,0.01,0.20,0.67,
2.178,0.01,0.17,1.03,0.01,0.20,0.67,
2.18,0.01,0.16,1.03,0.01,0.20,0.67,
2.18,0.01,0.16,1.03,0.09,0.10,0.58,
2.183,0.01,0.16,1.03,0.09,0.10,0.58,
2.186,0.01,0.16,1.03,0.16,0.02,0.51,
2.186,0.01,0.16,1.03,0.16,0.02,0.51,
2.187,0.01,0.16,1.03,0.16,0.02,0.51,
2.19,0.00,0.16,1.03,0.16,0.02,0.51,
2.191,0.00,0.16,1.03,0.18,-0.03,0.51,
2.193,-0.00,0.16,1.05,0.18,-0.03,0.51,
2.195,-0.01,0.17,1.06,0.18,-0.03,0.51,
2.196,-0.01,0.17,1.06,0.15,-0.03,0.50,
2.197,-0.02,0.17,1.07,0.15,-0.03,0.50,
2.2,-0.04,0.18,1.08,0.15,-0.03,0.50,
2.201,-0.04,0.18,1.08,0.04,0.04,0.72,
2.203,-0.04,0.18,1.07,0.04,0.04,0.72,
2.205,-0.06,0.18,1.07,0.04,0.04,0.72,
2.205,-0.06,0.18,1.07,-0.20,0.11,0.91,
2.207,-0.06,0.18,1.07,-0.20,0.11,0.91,
2.209,-0.07,0.18,1.07,-0.20,0.11,0.91,
2.21,-0.07,0.18,1.07,-0.39,0.16,0.90,
2.212,-0.06,0.17,1.05,-0.39,0.16,0.90,
2.214,-0.07,0.17,1.04,-0.39,0.16,0.90,
2.215,-0.07,0.17,1.04,-0.51,0.13,0.85,
2.22,-0.06,0.16,1.03,-0.51,0.13,0.85,
2.221,-0.06,0.16,1.03,-0.51,0.13,0.85,
2.221,-0.06,0.16,1.03,-0.53,0.03,0.61,
2.222,-0.06,0.16,1.01,-0.53,0.03,0.61,
2.224,-0.05,0.16,1.01,-0.53,0.03,0.61,
2.224,-0.05,0.16,1.01,-0.47,-0.08,0.47,
2.227,-0.06,0.16,1.00,-0.47,-0.08,0.47,
2.229,-0.06,0.16,0.99,-0.47,-0.08,0.47,
2.23,-0.06,0.16,0.99,-0.42,-0.13,0.29,
2.232,-0.06,0.16,0.99,-0.42,-0.13,0.29,
