
time,gFx,gFy,gFz,ax,ay,az,
0.004,-0.07,0.28,0.95,-0.12,-0.15,0.05,
0.004,-0.07,0.28,0.95,-0.26,-0.16,0.03,
0.004,-0.07,0.28,0.96,-0.26,-0.16,0.03,
0.005,-0.07,0.29,0.96,-0.26,-0.16,0.03,
0.005,-0.07,0.29,0.96,-0.32,-0.12,-0.01,
0.005,-0.07,0.29,0.96,-0.32,-0.12,-0.01,
0.005,-0.07,0.29,0.96,-0.37,-0.04,0.07,
0.005,-0.07,0.29,0.96,-0.37,-0.04,0.07,
0.008,-0.07,0.29,0.96,-0.37,-0.04,0.07,
0.009,-0.07,0.30,0.96,-0.37,-0.04,0.07,
0.009,-0.07,0.30,0.96,-0.37,-0.02,0.09,
0.011,-0.07,0.30,0.96,-0.37,-0.02,0.09,
0.014,-0.07,0.30,0.96,-0.37,-0.02,0.09,
0.014,-0.07,0.30,0.96,-0.37,0.05,0.06,
0.016,-0.06,0.30,0.96,-0.37,0.05,0.06,
0.019,-0.06,0.30,0.96,-0.37,0.05,0.06,
0.019,-0.06,0.30,0.96,-0.33,0.08,0.09,
0.021,-0.06,0.30,0.96,-0.33,0.08,0.09,
0.026,-0.05,0.30,0.95,-0.33,0.08,0.09,
0.026,-0.05,0.30,0.95,-0.26,0.11,0.06,
0.027,-0.05,0.29,0.95,-0.26,0.11,0.06,
0.029,-0.05,0.29,0.95,-0.17,0.10,0.03,
0.029,-0.04,0.29,0.94,-0.17,0.10,0.03,
0.032,-0.05,0.29,0.94,-0.17,0.10,0.03,
0.034,-0.04,0.29,0.94,-0.17,0.10,0.03,
0.034,-0.04,0.29,0.94,-0.09,0.05,-0.07,
0.036,-0.03,0.29,0.94,-0.09,0.05,-0.07,
0.039,-0.03,0.28,0.93,-0.09,0.05,-0.07,
0.039,-0.03,0.28,0.93,-0.06,0.03,-0.09,
0.041,-0.03,0.29,0.93,-0.06,0.03,-0.09,
0.044,-0.02,0.28,0.93,-0.06,0.03,-0.09,
0.044,-0.02,0.28,0.93,0.05,-0.04,-0.16,
0.045,-0.01,0.28,0.93,0.05,-0.04,-0.16,
0.049,-0.01,0.28,0.94,0.05,-0.04,-0.16,
0.049,-0.01,0.28,0.94,0.14,-0.04,-0.19,
0.051,-0.00,0.28,0.93,0.14,-0.04,-0.19,
0.054,-0.00,0.28,0.93,0.25,-0.05,-0.15,
0.054,-0.00,0.28,0.93,0.25,-0.05,-0.15,
0.06,0.00,0.28,0.93,0.25,-0.05,-0.15,
0.061,0.01,0.28,0.93,0.25,-0.05,-0.15,
0.061,0.01,0.28,0.93,0.33,-0.04,-0.20,
0.061,0.00,0.27,0.93,0.33,-0.04,-0.20,
0.063,0.00,0.27,0.93,0.33,-0.04,-0.20,
0.063,0.00,0.27,0.93,0.38,-0.08,-0.19,
0.066,0.01,0.27,0.94,0.38,-0.08,-0.19,
0.069,0.01,0.27,0.94,0.36,-0.12,-0.19,
0.069,0.01,0.27,0.93,0.36,-0.12,-0.19,
0.071,0.01,0.27,0.92,0.36,-0.12,-0.19,
0.073,0.01,0.27,0.94,0.36,-0.12,-0.19,
0.074,0.01,0.27,0.94,0.44,-0.16,-0.19,
0.075,0.01,0.27,0.93,0.44,-0.16,-0.19,
0.078,0.01,0.27,0.93,0.45,-0.18,-0.20,
0.078,0.01,0.27,0.93,0.45,-0.18,-0.20,
0.081,0.01,0.27,0.94,0.45,-0.18,-0.20,
0.084,0.01,0.27,0.94,0.45,-0.18,-0.20,
0.084,0.01,0.27,0.94,0.43,-0.15,-0.21,
0.086,0.01,0.27,0.94,0.43,-0.15,-0.21,
0.089,0.01,0.26,0.94,0.43,-0.15,-0.21,
0.089,0.01,0.26,0.94,0.43,-0.13,-0.15,
0.091,0.01,0.27,0.93,0.43,-0.13,-0.15,
0.093,0.01,0.27,0.93,0.43,-0.16,-0.15,
0.093,0.00,0.27,0.94,0.43,-0.16,-0.15,
0.095,0.00,0.26,0.94,0.43,-0.16,-0.15,
0.098,-0.00,0.26,0.94,0.43,-0.16,-0.15,
0.099,-0.00,0.26,0.94,0.37,-0.13,-0.15,
0.101,0.00,0.26,0.94,0.37,-0.13,-0.15,
0.103,0.00,0.26,0.94,0.31,-0.19,-0.12,
0.104,0.00,0.27,0.94,0.31,-0.19,-0.12,
0.107,0.00,0.27,0.94,0.31,-0.19,-0.12,
0.108,-0.00,0.26,0.94,0.31,-0.19,-0.12,
0.108,-0.00,0.26,0.94,0.33,-0.14,-0.12,
0.111,0.00,0.26,0.94,0.33,-0.14,-0.12,
0.114,0.00,0.26,0.94,0.33,-0.14,-0.12,
0.114,0.00,0.26,0.94,0.31,-0.13,-0.11,
0.116,0.00,0.25,0.95,0.31,-0.13,-0.11,
0.119,0.00,0.25,0.94,0.31,-0.13,-0.11,
0.119,0.00,0.25,0.94,0.32,-0.18,-0.10,
0.121,0.00,0.25,0.94,0.32,-0.18,-0.10,
0.124,-0.00,0.25,0.94,0.32,-0.18,-0.10,
0.125,-0.00,0.25,0.94,0.34,-0.24,-0.07,
0.125,0.00,0.24,0.93,0.34,-0.24,-0.07,
0.128,0.00,0.24,0.93,0.31,-0.26,-0.14,
0.128,0.01,0.24,0.92,0.31,-0.26,-0.14,
0.13,0.01,0.24,0.92,0.31,-0.26,-0.14,
0.133,0.01,0.24,0.91,0.31,-0.26,-0.14,
0.133,0.01,0.24,0.91,0.37,-0.32,-0.24,
0.135,0.01,0.23,0.91,0.37,-0.32,-0.24,
0.138,0.00,0.23,0.91,0.37,-0.32,-0.24,
0.138,0.00,0.23,0.91,0.38,-0.36,-0.37,
0.141,-0.00,0.22,0.90,0.38,-0.36,-0.37,
0.142,-0.00,0.22,0.89,0.38,-0.36,-0.37,
0.143,-0.00,0.22,0.89,0.31,-0.45,-0.44,
0.144,-0.00,0.22,0.89,0.31,-0.45,-0.44,
0.148,0.00,0.22,0.89,0.31,-0.45,-0.44,
0.148,0.00,0.22,0.89,0.25,-0.52,-0.54,
0.149,0.01,0.21,0.89,0.25,-0.52,-0.54,
0.152,0.01,0.21,0.89,0.28,-0.54,-0.58,
0.152,0.02,0.21,0.90,0.28,-0.54,-0.58,
0.154,0.02,0.21,0.89,0.28,-0.54,-0.58,
0.161,0.03,0.21,0.90,0.28,-0.54,-0.58,
0.163,0.03,0.21,0.90,0.39,-0.57,-0.54,
0.163,0.03,0.21,0.90,0.39,-0.57,-0.54,
0.163,0.04,0.21,0.89,0.39,-0.57,-0.54,
0.164,0.04,0.21,0.89,0.50,-0.61,-0.54,
0.164,0.05,0.20,0.89,0.50,-0.61,-0.54,
0.167,0.05,0.21,0.91,0.50,-0.61,-0.54,
0.167,0.05,0.21,0.91,0.62,-0.60,-0.55,
0.169,0.06,0.20,0.91,0.62,-0.60,-0.55,
0.173,0.06,0.21,0.91,0.62,-0.60,-0.55,
0.174,0.06,0.21,0.91,0.72,-0.59,-0.48,
0.175,0.07,0.21,0.92,0.72,-0.59,-0.48,
0.177,0.07,0.21,0.92,0.72,-0.59,-0.48,
0.177,0.07,0.21,0.92,0.82,-0.57,-0.40,
0.179,0.07,0.21,0.93,0.82,-0.57,-0.40,
0.182,0.06,0.21,0.92,0.82,-0.57,-0.40,
0.182,0.06,0.21,0.92,0.92,-0.53,-0.34,
0.184,0.05,0.22,0.91,0.92,-0.53,-0.34,
0.187,0.04,0.22,0.91,0.92,-0.53,-0.34,
0.187,0.04,0.22,0.91,0.86,-0.49,-0.27,
0.19,0.03,0.22,0.91,0.86,-0.49,-0.27,
0.193,0.03,0.22,0.90,0.86,-0.49,-0.27,
0.193,0.03,0.22,0.90,0.71,-0.42,-0.38,
0.194,0.01,0.22,0.90,0.71,-0.42,-0.38,
0.198,-0.01,0.23,0.89,0.71,-0.42,-0.38,
0.198,-0.01,0.23,0.89,0.53,-0.44,-0.41,
0.199,-0.02,0.23,0.88,0.53,-0.44,-0.41,
0.203,-0.02,0.23,0.88,0.26,-0.37,-0.55,
0.203,-0.04,0.23,0.87,0.26,-0.37,-0.55,
0.204,-0.05,0.24,0.86,0.26,-0.37,-0.55,
0.207,-0.07,0.25,0.85,0.26,-0.37,-0.55,
0.208,-0.07,0.25,0.85,-0.09,-0.31,-0.69,
0.209,-0.08,0.26,0.84,-0.09,-0.31,-0.69,
0.211,-0.08,0.27,0.84,-0.09,-0.31,-0.69,
0.212,-0.08,0.27,0.84,-0.37,-0.12,-0.87,
0.214,-0.09,0.28,0.83,-0.37,-0.12,-0.87,
0.217,-0.10,0.29,0.83,-0.37,-0.12,-0.87,
0.217,-0.10,0.29,0.83,-0.55,0.08,-1.05,
0.219,-0.10,0.30,0.82,-0.55,0.08,-1.05,
0.221,-0.09,0.31,0.81,-0.55,0.08,-1.05,
0.222,-0.09,0.31,0.81,-0.67,0.26,-1.13,
0.224,-0.09,0.30,0.81,-0.67,0.26,-1.13,
0.227,-0.09,0.30,0.81,-0.69,0.46,-1.28,
0.227,-0.09,0.30,0.79,-0.69,0.46,-1.28,
0.229,-0.09,0.30,0.78,-0.69,0.46,-1.28,
0.231,-0.09,0.29,0.77,-0.69,0.46,-1.28,
0.232,-0.09,0.29,0.77,-0.69,0.46,-1.42,
0.234,-0.08,0.29,0.77,-0.69,0.46,-1.42,
0.236,-0.08,0.29,0.77,-0.69,0.46,-1.42,
0.237,-0.08,0.29,0.77,-0.70,0.40,-1.63,
0.239,-0.08,0.28,0.77,-0.70,0.40,-1.63,
0.244,-0.07,0.27,0.78,-0.70,0.40,-1.63,
0.245,-0.07,0.27,0.78,-0.60,0.34,-1.70,
0.245,-0.06,0.26,0.79,-0.60,0.34,-1.70,
0.246,-0.06,0.25,0.81,-0.60,0.34,-1.70,
0.247,-0.06,0.25,0.81,-0.53,0.23,-1.63,
0.248,-0.06,0.25,0.81,-0.53,0.23,-1.63,
0.251,-0.06,0.25,0.81,-0.42,0.09,-1.37,
0.251,-0.06,0.23,0.82,-0.42,0.09,-1.37,
0.253,-0.07,0.22,0.84,-0.42,0.09,-1.37,
0.257,-0.07,0.22,0.87,-0.42,0.09,-1.37,
0.258,-0.07,0.22,0.87,-0.45,-0.07,-1.28,
0.259,-0.07,0.20,0.88,-0.45,-0.07,-1.28,
0.261,-0.07,0.20,0.90,-0.45,-0.07,-1.28,
0.261,-0.07,0.20,0.90,-0.53,-0.23,-0.85,
0.263,-0.08,0.19,0.92,-0.53,-0.23,-0.85,
0.266,-0.08,0.19,0.94,-0.53,-0.23,-0.85,
0.266,-0.08,0.19,0.94,-0.54,-0.37,-0.49,
0.268,-0.08,0.18,0.97,-0.54,-0.37,-0.49,
0.271,-0.08,0.17,0.98,-0.54,-0.37,-0.49,
0.271,-0.08,0.17,0.98,-0.62,-0.44,-0.11,
0.276,-0.07,0.16,0.99,-0.62,-0.44,-0.11,
0.276,-0.08,0.15,1.01,-0.62,-0.44,-0.11,
0.277,-0.08,0.15,1.01,-0.64,-0.56,0.27,
0.278,-0.08,0.13,1.02,-0.64,-0.56,0.27,
0.281,-0.08,0.12,1.02,-0.64,-0.56,0.27,
0.281,-0.08,0.12,1.02,-0.61,-0.75,0.56,
0.283,-0.07,0.11,1.02,-0.61,-0.75,0.56,
0.286,-0.07,0.10,1.02,-0.61,-0.75,0.56,
0.286,-0.07,0.10,1.02,-0.61,-1.02,0.75,
0.288,-0.07,0.08,1.01,-0.61,-1.02,0.75,
0.293,-0.06,0.08,1.01,-0.61,-1.02,0.75,
0.294,-0.06,0.08,1.01,-0.55,-1.24,0.73,
0.294,-0.05,0.08,1.00,-0.55,-1.24,0.73,
0.296,-0.03,0.08,0.99,-0.55,-1.24,0.73,
0.296,-0.03,0.08,0.99,-0.44,-1.45,0.63,
0.298,-0.01,0.09,0.97,-0.44,-1.45,0.63,
0.301,-0.01,0.09,0.97,-0.20,-1.48,0.48,
0.301,0.02,0.09,0.96,-0.20,-1.48,0.48,
0.303,0.04,0.10,0.93,-0.20,-1.48,0.48,
0.306,0.07,0.11,0.92,-0.20,-1.48,0.48,
0.306,0.07,0.11,0.92,0.24,-1.40,0.19,
0.308,0.09,0.12,0.89,0.24,-1.40,0.19,
0.311,0.11,0.12,0.88,0.24,-1.40,0.19,
0.311,0.11,0.12,0.88,0.75,-1.25,-0.19,
0.313,0.13,0.13,0.85,0.75,-1.25,-0.19,
0.315,0.15,0.13,0.82,0.75,-1.25,-0.19,
0.316,0.15,0.13,0.82,1.22,-1.13,-0.57,
0.318,0.16,0.13,0.78,1.22,-1.13,-0.57,
0.32,0.16,0.12,0.77,1.22,-1.13,-0.57,
0.321,0.16,0.12,0.77,1.57,-1.08,-1.08,
0.324,0.17,0.12,0.76,1.57,-1.08,-1.08,
0.329,0.18,0.13,0.73,1.57,-1.08,-1.08,
0.329,0.18,0.13,0.73,1.79,-1.13,-1.57,
0.329,0.18,0.13,0.70,1.79,-1.13,-1.57,
0.331,0.18,0.14,0.68,1.79,-1.13,-1.57,
0.331,0.18,0.14,0.68,1.89,-1.19,-1.92,
0.334,0.17,0.14,0.65,1.89,-1.19,-1.92,
0.336,0.16,0.15,0.63,1.89,-1.19,-1.92,
0.337,0.16,0.15,0.63,1.95,-1.13,-2.37,
0.338,0.14,0.16,0.62,1.95,-1.13,-2.37,
0.343,0.13,0.17,0.61,1.95,-1.13,-2.37,
0.343,0.13,0.17,0.61,1.80,-1.03,-2.83,
0.343,0.11,0.18,0.60,1.80,-1.03,-2.83,
0.346,0.10,0.19,0.59,1.80,-1.03,-2.83,
0.346,0.10,0.19,0.59,1.49,-0.87,-3.09,
0.35,0.08,0.19,0.58,1.49,-0.87,-3.09,
0.35,0.08,0.19,0.58,1.16,-0.71,-3.26,
0.351,0.07,0.20,0.57,1.16,-0.71,-3.26,
0.353,0.06,0.21,0.56,1.16,-0.71,-3.26,
0.356,0.04,0.21,0.56,1.16,-0.71,-3.26,
0.357,0.04,0.21,0.56,0.88,-0.61,-3.44,
0.361,0.02,0.21,0.55,0.88,-0.61,-3.44,
0.362,-0.00,0.20,0.55,0.88,-0.61,-3.44,
0.364,-0.00,0.20,0.55,0.59,-0.48,-3.57,
0.364,-0.03,0.19,0.56,0.59,-0.48,-3.57,
0.367,-0.05,0.19,0.57,0.59,-0.48,-3.57,
0.367,-0.05,0.19,0.57,0.19,-0.50,-3.64,
0.367,-0.06,0.18,0.57,0.19,-0.50,-3.64,
0.37,-0.07,0.16,0.59,0.19,-0.50,-3.64,
0.37,-0.07,0.16,0.59,-0.31,-0.65,-3.50,
0.372,-0.08,0.16,0.60,-0.31,-0.65,-3.50,
0.376,-0.08,0.16,0.60,-0.59,-0.83,-3.29,
0.376,-0.08,0.15,0.62,-0.59,-0.83,-3.29,
0.377,-0.07,0.14,0.64,-0.59,-0.83,-3.29,
0.38,-0.05,0.13,0.65,-0.59,-0.83,-3.29,
0.38,-0.05,0.13,0.65,-0.71,-0.96,-3.04,
0.383,-0.04,0.13,0.68,-0.71,-0.96,-3.04,
0.385,-0.02,0.12,0.70,-0.71,-0.96,-3.04,
0.385,-0.02,0.12,0.70,-0.52,-1.09,-2.63,
0.387,-0.01,0.11,0.73,-0.52,-1.09,-2.63,
0.391,0.02,0.10,0.75,-0.52,-1.09,-2.63,
0.391,0.02,0.10,0.75,-0.24,-1.18,-2.23,
0.393,0.04,0.09,0.77,-0.24,-1.18,-2.23,
0.395,0.06,0.08,0.80,-0.24,-1.18,-2.23,
0.395,0.06,0.08,0.80,0.08,-1.32,-1.74,
0.397,0.09,0.07,0.82,0.08,-1.32,-1.74,
0.401,0.09,0.07,0.82,0.48,-1.47,-1.26,
0.401,0.12,0.06,0.84,0.48,-1.47,-1.26,
0.403,0.15,0.06,0.86,0.48,-1.47,-1.26,
0.405,0.17,0.06,0.88,0.48,-1.47,-1.26,
0.406,0.17,0.06,0.88,1.02,-1.61,-0.83,
0.407,0.19,0.06,0.89,1.02,-1.61,-0.83,
0.41,0.21,0.08,0.90,1.02,-1.61,-0.83,
0.411,0.21,0.08,0.90,1.49,-1.63,-0.49,
0.412,0.23,0.09,0.92,1.49,-1.63,-0.49,
0.415,0.23,0.09,0.92,1.93,-1.46,-0.22,
0.415,0.24,0.10,0.92,1.93,-1.46,-0.22,
0.417,0.24,0.11,0.93,1.93,-1.46,-0.22,
0.42,0.23,0.12,0.94,1.93,-1.46,-0.22,
0.421,0.23,0.12,0.94,2.24,-1.19,0.01,
0.422,0.23,0.13,0.95,2.24,-1.19,0.01,
0.425,0.23,0.13,0.95,2.25,-0.92,0.12,
0.426,0.22,0.14,0.95,2.25,-0.92,0.12,
0.427,0.20,0.16,0.95,2.25,-0.92,0.12,
0.431,0.20,0.17,0.95,2.25,-0.92,0.12,
0.431,0.20,0.17,0.95,2.12,-0.68,0.28,
0.433,0.19,0.18,0.94,2.12,-0.68,0.28,
0.435,0.18,0.20,0.93,2.12,-0.68,0.28,
0.435,0.18,0.20,0.93,1.92,-0.40,0.28,
0.437,0.16,0.20,0.91,1.92,-0.40,0.28,
0.44,0.15,0.22,0.90,1.92,-0.40,0.28,
0.44,0.15,0.22,0.90,1.74,-0.14,0.09,
0.443,0.13,0.23,0.89,1.74,-0.14,0.09,
0.445,0.12,0.24,0.87,1.74,-0.14,0.09,
0.445,0.12,0.24,0.87,1.49,0.09,-0.15,
0.447,0.11,0.25,0.86,1.49,0.09,-0.15,
0.45,0.11,0.25,0.86,1.22,0.38,-0.43,
0.45,0.10,0.27,0.84,1.22,0.38,-0.43,
0.452,0.09,0.28,0.82,1.22,0.38,-0.43,
0.455,0.07,0.29,0.80,1.22,0.38,-0.43,
0.455,0.07,0.29,0.80,1.02,0.59,-0.70,
0.458,0.06,0.30,0.79,1.02,0.59,-0.70,
0.463,0.05,0.30,0.79,1.02,0.59,-0.70,
0.464,0.05,0.30,0.79,0.77,0.84,-1.07,
0.464,0.04,0.31,0.79,0.77,0.84,-1.07,
0.464,0.03,0.32,0.78,0.77,0.84,-1.07,
0.464,0.03,0.32,0.78,0.48,1.00,-1.28,
0.467,0.02,0.32,0.76,0.48,1.00,-1.28,
0.47,0.01,0.32,0.75,0.48,1.00,-1.28,
0.47,0.01,0.32,0.75,0.26,1.17,-1.37,
0.472,-0.00,0.31,0.76,0.26,1.17,-1.37,
0.476,-0.00,0.31,0.76,0.10,1.21,-1.64,
0.477,-0.02,0.30,0.75,0.10,1.21,-1.64,
0.477,-0.04,0.29,0.74,0.10,1.21,-1.64,
0.479,-0.06,0.28,0.73,0.10,1.21,-1.64,
0.479,-0.06,0.28,0.73,-0.13,1.10,-1.66,
0.481,-0.07,0.27,0.72,-0.13,1.10,-1.66,
0.484,-0.07,0.27,0.72,-0.50,0.90,-1.81,
0.484,-0.08,0.26,0.71,-0.50,0.90,-1.81,
0.486,-0.08,0.27,0.71,-0.50,0.90,-1.81,
0.489,-0.08,0.27,0.71,-0.50,0.90,-1.81,
0.489,-0.08,0.27,0.71,-0.77,0.76,-2.01,
0.492,-0.07,0.28,0.72,-0.77,0.76,-2.01,
0.494,-0.07,0.28,0.73,-0.77,0.76,-2.01,
0.494,-0.07,0.28,0.73,-0.79,0.80,-2.08,
0.496,-0.06,0.29,0.75,-0.79,0.80,-2.08,
0.499,-0.06,0.29,0.75,-0.68,0.93,-1.92,
0.499,-0.07,0.29,0.76,-0.68,0.93,-1.92,
0.501,-0.07,0.30,0.78,-0.68,0.93,-1.92,
0.504,-0.07,0.30,0.81,-0.68,0.93,-1.92,
0.504,-0.07,0.30,0.81,-0.63,1.08,-1.60,
0.506,-0.07,0.30,0.81,-0.63,1.08,-1.60,
0.509,-0.06,0.30,0.83,-0.63,1.08,-1.60,
0.509,-0.06,0.30,0.83,-0.68,1.16,-1.24,
0.511,-0.06,0.30,0.86,-0.68,1.16,-1.24,
0.514,-0.05,0.30,0.86,-0.68,1.16,-1.24,
0.514,-0.05,0.30,0.86,-0.61,1.19,-0.95,
0.516,-0.05,0.30,0.88,-0.61,1.19,-0.95,
0.519,-0.04,0.30,0.90,-0.61,1.19,-0.95,
0.519,-0.04,0.30,0.90,-0.53,1.25,-0.60,
0.521,-0.03,0.30,0.92,-0.53,1.25,-0.60,
0.529,-0.03,0.30,0.92,-0.36,1.34,-0.27,
0.531,-0.02,0.29,0.93,-0.36,1.34,-0.27,
0.531,-0.01,0.29,0.94,-0.36,1.34,-0.27,
0.531,-0.00,0.28,0.96,-0.36,1.34,-0.27,
0.531,-0.00,0.28,0.96,-0.18,1.33,0.04,
0.532,0.00,0.27,0.98,-0.18,1.33,0.04,
0.534,0.01,0.27,0.99,-0.18,1.33,0.04,
0.534,0.01,0.27,0.99,-0.03,1.25,0.27,
0.536,0.02,0.26,1.00,-0.03,1.25,0.27,
0.538,0.03,0.25,1.01,-0.03,1.25,0.27,
0.538,0.03,0.25,1.01,0.12,1.18,0.55,
0.542,0.04,0.24,1.02,0.12,1.18,0.55,
0.544,0.04,0.23,1.03,0.12,1.18,0.55,
0.544,0.04,0.23,1.03,0.30,1.13,0.77,
0.546,0.03,0.22,1.04,0.30,1.13,0.77,
0.548,0.03,0.22,1.04,0.39,0.99,0.94,
0.548,0.02,0.20,1.04,0.39,0.99,0.94,
0.551,0.01,0.18,1.05,0.39,0.99,0.94,
0.554,0.01,0.18,1.05,0.21,0.76,1.11,
0.554,-0.00,0.17,1.05,0.21,0.76,1.11,
0.556,-0.01,0.16,1.05,0.21,0.76,1.11,
0.563,-0.02,0.15,1.05,0.21,0.76,1.11,
0.564,-0.02,0.15,1.05,-0.03,0.53,1.17,
0.564,-0.04,0.14,1.06,-0.03,0.53,1.17,
0.564,-0.07,0.14,1.06,-0.03,0.53,1.17,
0.564,-0.07,0.14,1.06,-0.24,0.39,1.16,
0.565,-0.09,0.14,1.07,-0.24,0.39,1.16,
0.568,-0.11,0.13,1.08,-0.24,0.39,1.16,
0.569,-0.11,0.13,1.08,-0.64,0.31,1.24,
0.571,-0.13,0.12,1.09,-0.64,0.31,1.24,
0.574,-0.13,0.12,1.09,-1.14,0.24,1.35,
0.574,-0.15,0.11,1.10,-1.14,0.24,1.35,
0.576,-0.17,0.10,1.10,-1.14,0.24,1.35,
0.578,-0.18,0.10,1.11,-1.14,0.24,1.35,
0.579,-0.18,0.10,1.11,-1.56,0.15,1.55,
0.581,-0.18,0.09,1.13,-1.56,0.15,1.55,
0.584,-0.18,0.09,1.14,-1.56,0.15,1.55,
0.584,-0.18,0.09,1.14,-1.85,0.03,1.68,
0.586,-0.18,0.09,1.15,-1.85,0.03,1.68,
0.589,-0.18,0.08,1.16,-1.85,0.03,1.68,
0.589,-0.18,0.08,1.16,-1.93,-0.02,1.94,
0.591,-0.17,0.09,1.18,-1.93,-0.02,1.94,
0.593,-0.17,0.09,1.18,-1.95,-0.02,2.13,
0.593,-0.16,0.10,1.19,-1.95,-0.02,2.13,
0.595,-0.14,0.10,1.22,-1.95,-0.02,2.13,
0.598,-0.14,0.10,1.22,-1.75,0.09,2.40,
0.598,-0.12,0.11,1.23,-1.75,0.09,2.40,
0.601,-0.10,0.11,1.24,-1.75,0.09,2.40,
0.603,-0.09,0.12,1.25,-1.75,0.09,2.40,
0.603,-0.09,0.12,1.25,-1.36,0.23,2.76,
0.606,-0.08,0.12,1.27,-1.36,0.23,2.76,
0.609,-0.07,0.12,1.27,-1.36,0.23,2.76,
0.61,-0.07,0.12,1.27,-1.04,0.40,2.98,
0.61,-0.07,0.12,1.25,-1.04,0.40,2.98,
0.614,-0.06,0.12,1.23,-1.04,0.40,2.98,
0.614,-0.06,0.12,1.23,-0.81,0.47,3.14,
0.616,-0.04,0.12,1.21,-0.81,0.47,3.14,
0.618,-0.03,0.12,1.20,-0.81,0.47,3.14,
0.618,-0.03,0.12,1.20,-0.61,0.49,2.90,
0.621,-0.01,0.13,1.19,-0.61,0.49,2.90,
0.623,-0.01,0.13,1.19,-0.33,0.47,2.50,
0.624,0.01,0.13,1.17,-0.33,0.47,2.50,
0.626,0.04,0.14,1.15,-0.33,0.47,2.50,
0.628,0.06,0.14,1.13,-0.33,0.47,2.50,
0.628,0.06,0.14,1.13,0.03,0.58,2.23,
0.63,0.07,0.13,1.10,0.03,0.58,2.23,
0.633,0.07,0.11,1.07,0.03,0.58,2.23,
0.633,0.07,0.11,1.07,0.46,0.64,1.84,
0.635,0.07,0.10,1.05,0.46,0.64,1.84,
0.637,0.07,0.08,1.03,0.46,0.64,1.84,
0.638,0.07,0.08,1.03,0.64,0.50,1.35,
0.64,0.06,0.06,1.01,0.64,0.50,1.35,
0.643,0.05,0.05,0.99,0.64,0.50,1.35,
0.643,0.05,0.05,0.99,0.63,0.19,0.86,
0.645,0.05,0.05,0.98,0.63,0.19,0.86,
0.648,0.05,0.05,0.98,0.48,-0.08,0.48,
0.648,0.05,0.04,0.96,0.48,-0.08,0.48,
0.65,0.06,0.05,0.95,0.48,-0.08,0.48,
0.653,0.08,0.05,0.94,0.48,-0.08,0.48,
0.655,0.08,0.05,0.94,0.41,-0.21,0.17,
0.655,0.08,0.06,0.93,0.41,-0.21,0.17,
0.657,0.08,0.08,0.92,0.41,-0.21,0.17,
0.658,0.08,0.08,0.92,0.55,-0.15,-0.09,
0.671,0.07,0.08,0.92,0.55,-0.15,-0.09,
0.672,0.06,0.10,0.92,0.55,-0.15,-0.09,
0.673,0.06,0.10,0.92,0.58,0.06,-0.25,
0.673,0.03,0.10,0.92,0.58,0.06,-0.25,
0.673,0.01,0.10,0.91,0.58,0.06,-0.25,
0.674,0.01,0.10,0.91,0.43,0.28,-0.31,
0.676,-0.01,0.10,0.92,0.43,0.28,-0.31,
0.676,-0.01,0.10,0.92,0.01,0.40,-0.36,
0.677,-0.03,0.10,0.92,0.01,0.40,-0.36,
0.677,-0.04,0.10,0.91,0.01,0.40,-0.36,
0.679,-0.05,0.09,0.91,0.01,0.40,-0.36,
0.679,-0.05,0.09,0.91,-0.41,0.40,-0.33,
0.679,-0.06,0.08,0.91,-0.41,0.40,-0.33,
0.682,-0.06,0.08,0.91,-0.67,0.36,-0.38,
0.682,-0.08,0.07,0.92,-0.67,0.36,-0.38,
0.685,-0.11,0.06,0.93,-0.67,0.36,-0.38,
0.687,-0.13,0.04,0.95,-0.67,0.36,-0.38,
0.688,-0.13,0.04,0.95,-0.91,0.20,-0.33,
0.69,-0.16,0.03,0.97,-0.91,0.20,-0.33,
0.693,-0.18,0.01,1.00,-0.91,0.20,-0.33,
0.694,-0.18,0.01,1.00,-1.38,0.01,-0.11,
0.694,-0.19,-0.01,1.02,-1.38,0.01,-0.11,
0.697,-0.19,-0.01,1.02,-1.81,-0.26,0.32,
0.698,-0.19,-0.03,1.04,-1.81,-0.26,0.32,
0.7,-0.18,-0.04,1.06,-1.81,-0.26,0.32,
0.702,-0.17,-0.05,1.09,-1.81,-0.26,0.32,
0.703,-0.17,-0.05,1.09,-2.01,-0.58,0.77,
0.705,-0.17,-0.06,1.13,-2.01,-0.58,0.77,
0.707,-0.17,-0.06,1.13,-1.86,-0.79,1.23,
0.708,-0.17,-0.06,1.15,-1.86,-0.79,1.23,
0.71,-0.16,-0.06,1.16,-1.86,-0.79,1.23,
0.713,-0.15,-0.07,1.18,-1.86,-0.79,1.23,
0.714,-0.15,-0.07,1.18,-1.73,-0.87,1.82,
0.714,-0.13,-0.07,1.20,-1.73,-0.87,1.82,
0.717,-0.11,-0.08,1.20,-1.73,-0.87,1.82,
0.718,-0.11,-0.08,1.20,-1.57,-0.86,2.13,
0.719,-0.10,-0.08,1.21,-1.57,-0.86,2.13,
0.723,-0.10,-0.08,1.21,-1.19,-0.90,2.40,
0.723,-0.08,-0.09,1.23,-1.19,-0.90,2.40,
0.725,-0.07,-0.10,1.24,-1.19,-0.90,2.40,
0.727,-0.06,-0.11,1.25,-1.19,-0.90,2.40,
0.727,-0.06,-0.11,1.25,-0.89,-0.93,2.58,
0.73,-0.04,-0.12,1.25,-0.89,-0.93,2.58,
0.732,-0.04,-0.12,1.25,-0.64,-1.08,2.78,
0.732,-0.03,-0.13,1.26,-0.64,-1.08,2.78,
0.735,-0.02,-0.14,1.26,-0.64,-1.08,2.78,
0.737,-0.00,-0.15,1.25,-0.64,-1.08,2.78,
0.737,-0.00,-0.15,1.25,-0.41,-1.21,2.89,
0.739,0.04,-0.31,1.35,-0.41,-1.21,2.89,
0.744,0.11,-0.78,1.85,-0.41,-1.21,2.89,
0.745,0.11,-0.78,1.85,-0.16,-1.33,2.88,
0.745,0.23,-2.05,3.46,-0.16,-1.33,2.88,
0.747,0.23,-2.05,3.46,0.69,-5.16,6.23,
0.747,0.26,-1.56,2.90,0.69,-5.16,6.23,
0.749,0.41,0.40,1.20,0.69,-5.16,6.23,
0.752,0.50,0.85,0.99,0.69,-5.16,6.23,
0.752,0.50,0.85,0.99,2.25,-17.47,21.61,
0.754,0.44,0.61,1.18,2.25,-17.47,21.61,
0.757,0.44,0.61,1.18,4.28,6.35,1.24,
0.757,0.32,0.45,1.04,4.28,6.35,1.24,
0.759,0.19,0.26,0.88,4.28,6.35,1.24,
0.764,0.08,0.05,0.82,4.28,6.35,1.24,
0.765,0.08,0.05,0.82,3.55,5.33,1.34,
0.765,-0.02,-0.13,0.80,3.55,5.33,1.34,
0.766,-0.02,-0.13,0.80,1.10,1.65,-1.21,
0.767,-0.10,-0.24,0.81,1.10,1.65,-1.21,
0.768,-0.15,-0.29,0.82,1.10,1.65,-1.21,
0.771,-0.15,-0.29,0.82,-0.80,-1.64,-1.62,
0.772,-0.18,-0.29,0.82,-0.80,-1.64,-1.62,
0.774,-0.17,-0.23,0.83,-0.80,-1.64,-1.62,
0.777,-0.12,-0.15,0.84,-0.80,-1.64,-1.62,
0.777,-0.12,-0.15,0.84,-1.85,-2.67,-1.51,
0.778,-0.06,-0.06,0.87,-1.85,-2.67,-1.51,
0.781,-0.01,0.02,0.88,-1.85,-2.67,-1.51,
0.781,-0.01,0.02,0.88,-1.63,-1.66,-1.30,
0.784,0.03,0.06,0.87,-1.63,-1.66,-1.30,
0.787,0.04,0.07,0.86,-1.63,-1.66,-1.30,
0.787,0.04,0.07,0.86,-0.54,-0.01,-0.95,
0.789,0.04,0.06,0.86,-0.54,-0.01,-0.95,
0.791,0.02,0.03,0.85,-0.54,-0.01,-0.95,
0.792,0.02,0.03,0.85,0.18,0.88,-1.04,
0.794,0.00,-0.01,0.84,0.18,0.88,-1.04,
0.796,0.00,-0.01,0.84,0.14,0.66,-1.11,
0.796,-0.01,-0.04,0.85,0.14,0.66,-1.11,
0.798,-0.03,-0.07,0.85,0.14,0.66,-1.11,
0.801,-0.05,-0.08,0.86,0.14,0.66,-1.11,
0.801,-0.05,-0.08,0.86,-0.19,0.03,-1.21,
0.803,-0.06,-0.09,0.87,-0.19,0.03,-1.21,
0.805,-0.08,-0.10,0.90,-0.19,0.03,-1.21,
0.806,-0.08,-0.10,0.90,-0.50,-0.41,-1.12,
0.808,-0.09,-0.09,0.95,-0.50,-0.41,-1.12,
0.812,-0.10,-0.08,1.00,-0.50,-0.41,-1.12,
0.812,-0.10,-0.08,1.00,-0.84,-0.55,-0.78,
0.813,-0.12,-0.07,1.05,-0.84,-0.55,-0.78,
0.815,-0.14,-0.07,1.09,-0.84,-0.55,-0.78,
0.816,-0.14,-0.07,1.09,-1.08,-0.37,0.07,
0.818,-0.17,-0.08,1.14,-1.08,-0.37,0.07,
0.82,-0.17,-0.08,1.14,-1.39,-0.20,1.01,
0.821,-0.19,-0.09,1.18,-1.39,-0.20,1.01,
0.823,-0.20,-0.09,1.23,-1.39,-0.20,1.01,
0.827,-0.22,-0.10,1.28,-1.39,-0.20,1.01,
0.827,-0.22,-0.10,1.28,-1.82,-0.25,1.85,
0.828,-0.22,-0.10,1.32,-1.82,-0.25,1.85,
0.83,-0.23,-0.10,1.37,-1.82,-0.25,1.85,
0.831,-0.23,-0.10,1.37,-2.13,-0.27,2.82,
0.833,-0.23,-0.10,1.42,-2.13,-0.27,2.82,
0.835,-0.22,-0.10,1.46,-2.13,-0.27,2.82,
0.836,-0.22,-0.10,1.46,-2.26,-0.26,3.71,
0.838,-0.21,-0.09,1.51,-2.26,-0.26,3.71,
0.84,-0.19,-0.09,1.55,-2.26,-0.26,3.71,
0.84,-0.19,-0.09,1.55,-2.24,-0.16,4.62,
0.843,-0.18,-0.08,1.60,-2.24,-0.16,4.62,
0.845,-0.18,-0.08,1.60,-1.98,0.04,5.49,
0.846,-0.16,-0.07,1.63,-1.98,0.04,5.49,
0.847,-0.14,-0.07,1.67,-1.98,0.04,5.49,
0.85,-0.12,-0.08,1.69,-1.98,0.04,5.49,
0.851,-0.12,-0.08,1.69,-1.65,0.24,6.28,
0.853,-0.11,-0.08,1.72,-1.65,0.24,6.28,
0.855,-0.10,-0.10,1.73,-1.65,0.24,6.28,
0.855,-0.10,-0.10,1.73,-1.29,0.34,6.91,
0.858,-0.09,-0.11,1.73,-1.29,0.34,6.91,
0.864,-0.08,-0.12,1.73,-1.29,0.34,6.91,
0.864,-0.08,-0.12,1.73,-1.07,0.23,7.29,
0.864,-0.06,-0.12,1.72,-1.07,0.23,7.29,
0.865,-0.04,-0.13,1.69,-1.07,0.23,7.29,
0.865,-0.04,-0.13,1.69,-0.82,0.02,7.36,
0.867,-0.03,-0.13,1.67,-0.82,0.02,7.36,
0.87,-0.03,-0.13,1.67,-0.53,-0.02,7.12,
0.871,0.00,-0.13,1.64,-0.53,-0.02,7.12,
0.872,0.03,-0.12,1.60,-0.53,-0.02,7.12,
0.875,0.05,-0.12,1.56,-0.53,-0.02,7.12,
0.875,0.05,-0.12,1.56,-0.15,-0.08,6.56,
0.878,0.07,-0.11,1.52,-0.15,-0.08,6.56,
0.88,0.10,-0.11,1.48,-0.15,-0.08,6.56,
0.88,0.10,-0.11,1.48,0.33,0.04,5.84,
0.882,0.12,-0.10,1.43,0.33,0.04,5.84,
0.885,0.14,-0.10,1.38,0.33,0.04,5.84,
0.885,0.14,-0.10,1.38,0.81,0.17,5.00,
0.887,0.15,-0.09,1.33,0.81,0.17,5.00,
0.89,0.16,-0.08,1.29,0.81,0.17,5.00,
0.89,0.16,-0.08,1.29,1.17,0.25,4.12,
0.893,0.16,-0.08,1.25,1.17,0.25,4.12,
0.896,0.16,-0.08,1.25,1.41,0.35,3.13,
0.896,0.17,-0.07,1.21,1.41,0.35,3.13,
0.897,0.17,-0.07,1.18,1.41,0.35,3.13,
0.9,0.16,-0.07,1.15,1.41,0.35,3.13,
0.9,0.16,-0.07,1.15,1.48,0.43,2.34,
0.902,0.16,-0.06,1.12,1.48,0.43,2.34,
0.905,0.16,-0.06,1.10,1.48,0.43,2.34,
0.906,0.16,-0.06,1.10,1.49,0.46,1.69,
0.907,0.16,-0.06,1.09,1.49,0.46,1.69,
0.91,0.15,-0.07,1.07,1.49,0.46,1.69,
0.911,0.15,-0.07,1.07,1.45,0.47,1.15,
0.912,0.15,-0.06,1.07,1.45,0.47,1.15,
0.915,0.14,-0.06,1.07,1.45,0.47,1.15,
0.915,0.14,-0.06,1.07,1.42,0.45,0.85,
0.917,0.14,-0.06,1.07,1.42,0.45,0.85,
0.919,0.14,-0.06,1.07,1.31,0.46,0.72,
0.92,0.13,-0.06,1.08,1.31,0.46,0.72,
0.922,0.13,-0.05,1.08,1.31,0.46,0.72,
0.924,0.12,-0.05,1.09,1.31,0.46,0.72,
0.925,0.12,-0.05,1.09,1.18,0.44,0.78,
0.927,0.12,-0.05,1.10,1.18,0.44,0.78,
0.929,0.10,-0.05,1.10,1.18,0.44,0.78,
0.93,0.10,-0.05,1.10,1.07,0.51,0.92,
0.932,0.10,-0.05,1.11,1.07,0.51,0.92,
0.934,0.08,-0.05,1.12,1.07,0.51,0.92,
0.935,0.08,-0.05,1.12,0.96,0.51,1.03,
0.937,0.07,-0.05,1.12,0.96,0.51,1.03,
0.939,0.06,-0.05,1.13,0.96,0.51,1.03,
0.939,0.06,-0.05,1.13,0.77,0.55,1.15,
0.942,0.05,-0.05,1.14,0.77,0.55,1.15,
0.945,0.05,-0.05,1.14,0.48,0.55,1.26,
0.945,0.04,-0.05,1.14,0.48,0.55,1.26,
0.947,0.04,-0.04,1.13,0.48,0.55,1.26,
0.949,0.04,-0.05,1.14,0.48,0.55,1.26,
0.95,0.04,-0.05,1.14,0.29,0.55,1.41,
0.951,0.03,-0.05,1.14,0.29,0.55,1.41,
0.954,0.02,-0.04,1.12,0.29,0.55,1.41,
0.954,0.02,-0.04,1.12,0.24,0.57,1.38,
0.956,0.02,-0.04,1.11,0.24,0.57,1.38,
0.964,0.02,-0.04,1.09,0.24,0.57,1.38,
0.965,0.02,-0.04,1.09,0.13,0.56,1.30,
0.965,0.02,-0.03,1.09,0.13,0.56,1.30,
0.965,0.02,-0.02,1.09,0.13,0.56,1.30,
0.965,0.02,-0.02,1.09,0.01,0.64,1.01,
0.968,0.03,-0.02,1.07,0.01,0.64,1.01,
0.969,0.03,-0.02,1.07,0.02,0.72,0.89,
0.969,0.03,-0.02,1.06,0.02,0.72,0.89,
0.971,0.03,-0.02,1.05,0.02,0.72,0.89,
0.974,0.03,-0.02,1.04,0.02,0.72,0.89,
0.974,0.03,-0.02,1.04,0.08,0.82,0.63,
0.978,0.03,-0.02,1.03,0.08,0.82,0.63,
0.979,0.04,-0.01,1.03,0.08,0.82,0.63,
0.979,0.04,-0.01,1.03,0.07,0.81,0.42,
0.981,0.04,-0.01,1.02,0.07,0.81,0.42,
0.984,0.05,-0.01,1.02,0.07,0.81,0.42,
0.984,0.05,-0.01,1.02,0.14,0.84,0.33,
0.986,0.05,-0.01,1.02,0.14,0.84,0.33,
0.99,0.05,-0.00,1.02,0.14,0.84,0.33,
0.99,0.05,-0.00,1.02,0.23,0.88,0.23,
0.992,0.06,-0.00,1.03,0.23,0.88,0.23,
0.997,0.06,-0.00,1.03,0.26,0.92,0.24,
0.997,0.06,0.00,1.04,0.26,0.92,0.24,
0.997,0.07,0.00,1.05,0.26,0.92,0.24,
0.999,0.07,-0.00,1.06,0.26,0.92,0.24,
0.999,0.07,-0.00,1.06,0.33,0.96,0.36,
1.001,0.08,-0.01,1.08,0.33,0.96,0.36,
1.005,0.08,-0.02,1.10,0.33,0.96,0.36,
1.005,0.08,-0.02,1.10,0.42,0.97,0.55,
1.007,0.09,-0.03,1.11,0.42,0.97,0.55,
1.009,0.09,-0.05,1.13,0.42,0.97,0.55,
1.01,0.09,-0.05,1.13,0.53,0.82,0.89,
1.013,0.10,-0.06,1.15,0.53,0.82,0.89,
1.014,0.11,-0.07,1.15,0.53,0.82,0.89,
1.014,0.11,-0.07,1.15,0.64,0.59,1.21,
1.016,0.11,-0.09,1.16,0.64,0.59,1.21,
1.019,0.11,-0.09,1.16,0.76,0.36,1.47,
1.019,0.12,-0.10,1.16,0.76,0.36,1.47,
1.021,0.11,-0.11,1.17,0.76,0.36,1.47,
1.024,0.10,-0.12,1.16,0.76,0.36,1.47,
1.024,0.10,-0.12,1.16,0.87,0.09,1.56,
1.026,0.10,-0.12,1.17,0.87,0.09,1.56,
1.029,0.10,-0.13,1.18,0.87,0.09,1.56,
1.029,0.10,-0.13,1.18,0.79,-0.09,1.62,
1.031,0.10,-0.12,1.19,0.79,-0.09,1.62,
1.033,0.10,-0.12,1.19,0.79,-0.09,1.62,
1.034,0.10,-0.12,1.19,0.71,-0.22,1.70,
1.036,0.09,-0.12,1.19,0.71,-0.22,1.70,
1.039,0.09,-0.12,1.19,0.67,-0.19,1.84,
1.039,0.08,-0.11,1.20,0.67,-0.19,1.84,
1.041,0.08,-0.12,1.21,0.67,-0.19,1.84,
1.044,0.08,-0.12,1.21,0.55,-0.12,1.92,
1.044,0.08,-0.12,1.21,0.55,-0.12,1.92,
1.047,0.08,-0.11,1.21,0.55,-0.12,1.92,
1.049,0.08,-0.11,1.21,0.55,-0.12,1.92,
1.049,0.08,-0.11,1.21,0.47,-0.12,2.01,
1.051,0.08,-0.11,1.20,0.47,-0.12,2.01,
1.054,0.08,-0.11,1.19,0.47,-0.12,2.01,
1.054,0.08,-0.11,1.19,0.44,-0.06,2.03,
1.056,0.08,-0.11,1.19,0.44,-0.06,2.03,
1.059,0.08,-0.11,1.19,0.44,-0.08,1.91,
1.059,0.08,-0.11,1.18,0.44,-0.08,1.91,
1.064,0.08,-0.11,1.18,0.44,-0.08,1.91,
1.065,0.09,-0.11,1.18,0.44,-0.08,1.91,
1.065,0.09,-0.11,1.18,0.43,-0.09,1.78,
1.065,0.09,-0.11,1.17,0.43,-0.09,1.78,
1.068,0.09,-0.11,1.17,0.45,-0.11,1.74,
1.069,0.10,-0.10,1.16,0.45,-0.11,1.74,
1.07,0.10,-0.10,1.14,0.45,-0.11,1.74,
1.074,0.10,-0.10,1.13,0.45,-0.11,1.74,
1.074,0.10,-0.10,1.13,0.59,-0.04,1.58,
1.076,0.09,-0.10,1.12,0.59,-0.04,1.58,
1.078,0.08,-0.10,1.11,0.59,-0.04,1.58,
1.079,0.08,-0.10,1.11,0.59,-0.00,1.28,
1.081,0.08,-0.10,1.10,0.59,-0.00,1.28,
1.084,0.08,-0.10,1.09,0.59,-0.00,1.28,
1.084,0.08,-0.10,1.09,0.44,-0.01,1.07,
1.086,0.08,-0.09,1.09,0.44,-0.01,1.07,
1.089,0.09,-0.09,1.09,0.44,-0.01,1.07,
1.089,0.09,-0.09,1.09,0.42,-0.00,0.86,
1.091,0.09,-0.09,1.09,0.42,-0.00,0.86,
1.094,0.09,-0.09,1.09,0.42,-0.00,0.86,
1.094,0.09,-0.09,1.09,0.40,-0.00,0.80,
1.096,0.09,-0.08,1.09,0.40,-0.00,0.80,
1.098,0.09,-0.08,1.10,0.40,-0.00,0.80,
1.098,0.09,-0.08,1.10,0.46,0.03,0.82,
1.1,0.08,-0.08,1.10,0.46,0.03,0.82,
1.103,0.08,-0.08,1.11,0.46,0.03,0.82,
1.104,0.08,-0.08,1.11,0.42,0.09,0.83,
1.106,0.08,-0.07,1.11,0.42,0.09,0.83,
1.108,0.07,-0.07,1.12,0.42,0.09,0.83,
1.109,0.07,-0.07,1.12,0.32,0.13,0.97,
1.11,0.06,-0.06,1.13,0.32,0.13,0.97,
1.113,0.05,-0.06,1.14,0.32,0.13,0.97,
1.114,0.05,-0.06,1.14,0.22,0.22,1.09,
1.115,0.05,-0.06,1.15,0.22,0.22,1.09,
1.119,0.05,-0.06,1.15,0.03,0.30,1.24,
1.119,0.04,-0.05,1.16,0.03,0.30,1.24,
1.121,0.04,-0.05,1.16,0.03,0.30,1.24,
1.123,0.03,-0.04,1.16,0.03,0.30,1.24,
1.123,0.03,-0.04,1.16,-0.08,0.34,1.42,
1.125,0.03,-0.04,1.16,-0.08,0.34,1.42,
1.129,0.03,-0.04,1.15,-0.08,0.34,1.42,
1.13,0.03,-0.04,1.15,-0.19,0.42,1.46,
1.13,0.03,-0.03,1.15,-0.19,0.42,1.46,
1.133,0.03,-0.04,1.15,-0.19,0.42,1.46,
1.133,0.03,-0.04,1.15,-0.25,0.45,1.43,
1.136,0.03,-0.03,1.14,-0.25,0.45,1.43,
1.137,0.03,-0.03,1.13,-0.25,0.45,1.43,
1.138,0.03,-0.03,1.13,-0.26,0.47,1.36,
1.14,0.03,-0.03,1.12,-0.26,0.47,1.36,
1.142,0.03,-0.03,1.12,-0.33,0.51,1.26,
1.142,0.03,-0.02,1.12,-0.33,0.51,1.26,
1.145,0.03,-0.02,1.11,-0.33,0.51,1.26,
1.147,0.03,-0.03,1.10,-0.33,0.51,1.26,
1.15,0.03,-0.03,1.10,-0.28,0.52,1.09,
1.15,0.03,-0.02,1.10,-0.28,0.52,1.09,
1.152,0.04,-0.02,1.09,-0.28,0.52,1.09,
1.152,0.04,-0.02,1.09,-0.30,0.50,0.90,
1.155,0.04,-0.02,1.09,-0.30,0.50,0.90,
1.157,0.04,-0.01,1.09,-0.30,0.50,0.90,
1.158,0.04,-0.01,1.09,-0.26,0.51,0.81,
1.16,0.04,-0.01,1.08,-0.26,0.51,0.81,
1.166,0.04,-0.00,1.08,-0.26,0.51,0.81,
1.167,0.04,-0.00,1.08,-0.16,0.55,0.74,
1.167,0.04,0.00,1.09,-0.16,0.55,0.74,
1.168,0.04,0.00,1.09,-0.19,0.62,0.65,
1.168,0.04,0.00,1.09,-0.19,0.62,0.65,
1.169,0.03,0.00,1.09,-0.19,0.62,0.65,
1.172,0.03,0.01,1.09,-0.19,0.62,0.65,
1.172,0.03,0.01,1.09,-0.19,0.69,0.72,
1.174,0.03,0.00,1.09,-0.19,0.69,0.72,
1.178,0.02,-0.00,1.09,-0.19,0.69,0.72,
1.179,0.02,-0.00,1.09,-0.31,0.70,0.77,
1.18,0.01,-0.02,1.09,-0.31,0.70,0.77,
1.183,0.01,-0.03,1.10,-0.31,0.70,0.77,
1.183,0.01,-0.03,1.10,-0.35,0.61,0.78,
1.184,0.00,-0.04,1.11,-0.35,0.61,0.78,
1.187,0.00,-0.04,1.11,-0.49,0.37,0.82,
1.187,-0.00,-0.03,1.11,-0.49,0.37,0.82,
1.189,-0.01,-0.04,1.11,-0.49,0.37,0.82,
1.192,-0.01,-0.04,1.11,-0.60,0.24,0.97,
1.193,-0.01,-0.05,1.11,-0.60,0.24,0.97,
1.195,-0.01,-0.04,1.12,-0.60,0.24,0.97,
1.197,-0.02,-0.05,1.12,-0.60,0.24,0.97,
1.197,-0.02,-0.05,1.12,-0.69,0.15,0.97,
1.199,-0.01,-0.05,1.12,-0.69,0.15,0.97,
1.202,-0.01,-0.04,1.11,-0.69,0.15,0.97,
1.202,-0.01,-0.04,1.11,-0.79,0.08,1.01,
1.204,-0.01,-0.04,1.11,-0.79,0.08,1.01,
1.208,-0.01,-0.03,1.10,-0.79,0.08,1.01,
1.208,-0.01,-0.03,1.10,-0.76,0.08,0.97,
1.209,-0.00,-0.03,1.10,-0.76,0.08,0.97,
1.213,0.00,-0.03,1.09,-0.76,0.08,0.97,
1.214,0.00,-0.03,1.09,-0.74,0.13,0.85,
1.214,0.01,-0.02,1.08,-0.74,0.13,0.85,
1.218,0.01,-0.02,1.08,-0.70,0.16,0.75,
1.218,0.01,-0.02,1.07,-0.70,0.16,0.75,
1.219,0.01,-0.02,1.05,-0.70,0.16,0.75,
1.221,0.01,-0.02,1.05,-0.70,0.16,0.75,
1.222,0.01,-0.02,1.05,-0.61,0.22,0.55,
1.224,0.02,-0.03,1.04,-0.61,0.22,0.55,
1.226,0.01,-0.03,1.04,-0.61,0.22,0.55,
1.227,0.01,-0.03,1.04,-0.59,0.19,0.35,
1.23,0.02,-0.03,1.02,-0.59,0.19,0.35,
1.232,0.02,-0.02,1.02,-0.59,0.19,0.35,
1.232,0.02,-0.02,1.02,-0.58,0.06,0.24,
1.234,0.03,-0.02,1.02,-0.58,0.06,0.24,
1.237,0.03,-0.01,1.02,-0.58,0.06,0.24,
1.237,0.03,-0.01,1.02,-0.54,0.09,0.04,
1.238,0.03,-0.01,1.03,-0.54,0.09,0.04,
1.241,0.03,-0.01,1.03,-0.43,0.17,0.01,
1.241,0.03,-0.01,1.03,-0.43,0.17,0.01,
1.249,0.03,-0.01,1.03,-0.43,0.17,0.01,
1.249,0.03,-0.02,1.04,-0.43,0.17,0.01,
1.25,0.03,-0.02,1.04,-0.44,0.21,0.12,
1.25,0.02,-0.02,1.03,-0.44,0.21,0.12,
1.251,0.02,-0.03,1.04,-0.44,0.21,0.12,
1.252,0.02,-0.03,1.04,-0.46,0.12,0.17,
1.253,0.02,-0.03,1.04,-0.46,0.12,0.17,
1.256,0.03,-0.04,1.05,-0.46,0.12,0.17,
1.257,0.03,-0.04,1.05,-0.52,0.01,0.20,
1.258,0.03,-0.04,1.05,-0.52,0.01,0.20,
1.262,0.03,-0.05,1.05,-0.52,0.01,0.20,
1.262,0.03,-0.05,1.05,-0.47,-0.15,0.28,
1.264,0.03,-0.05,1.05,-0.47,-0.15,0.28,
1.266,0.03,-0.05,1.05,-0.45,-0.26,0.35,
1.266,0.03,-0.04,1.06,-0.45,-0.26,0.35,
1.268,0.03,-0.05,1.06,-0.45,-0.26,0.35,
1.271,0.03,-0.05,1.06,-0.40,-0.27,0.37,
1.271,0.03,-0.05,1.07,-0.40,-0.27,0.37,
1.273,0.03,-0.04,1.07,-0.40,-0.27,0.37,
1.276,0.03,-0.05,1.08,-0.40,-0.27,0.37,
1.276,0.03,-0.05,1.08,-0.47,-0.30,0.47,
1.278,0.03,-0.05,1.08,-0.47,-0.30,0.47,
1.281,0.03,-0.05,1.08,-0.47,-0.30,0.47,
1.281,0.03,-0.05,1.08,-0.47,-0.32,0.56,
1.283,0.04,-0.05,1.08,-0.47,-0.32,0.56,
1.286,0.04,-0.05,1.09,-0.47,-0.32,0.56,
1.286,0.04,-0.05,1.09,-0.46,-0.36,0.64,
1.288,0.04,-0.05,1.09,-0.46,-0.36,0.64,
1.291,0.04,-0.05,1.09,-0.42,-0.36,0.66,
1.291,0.04,-0.05,1.09,-0.42,-0.36,0.66,
1.293,0.04,-0.04,1.09,-0.42,-0.36,0.66,
1.296,0.04,-0.04,1.09,-0.42,-0.36,0.66,
1.296,0.04,-0.04,1.09,-0.42,-0.39,0.74,
1.298,0.04,-0.04,1.09,-0.42,-0.39,0.74,
1.301,0.04,-0.03,1.09,-0.42,-0.39,0.74,
1.301,0.04,-0.03,1.09,-0.44,-0.34,0.72,
1.303,0.05,-0.03,1.08,-0.44,-0.34,0.72,
1.306,0.06,-0.02,1.08,-0.44,-0.34,0.72,
1.306,0.06,-0.02,1.08,-0.43,-0.31,0.71,
1.308,0.06,-0.02,1.09,-0.43,-0.31,0.71,
1.312,0.06,-0.02,1.07,-0.43,-0.31,0.71,
1.312,0.06,-0.02,1.07,-0.34,-0.22,0.62,
1.315,0.05,-0.03,1.07,-0.34,-0.22,0.62,
1.316,0.05,-0.03,1.07,-0.32,-0.19,0.62,
1.316,0.05,-0.03,1.06,-0.32,-0.19,0.62,
1.318,0.05,-0.03,1.06,-0.32,-0.19,0.62,
1.321,0.04,-0.04,1.05,-0.32,-0.19,0.62,
1.321,0.04,-0.04,1.05,-0.38,-0.29,0.46,
1.323,0.03,-0.03,1.05,-0.38,-0.29,0.46,
1.325,0.03,-0.03,1.05,-0.38,-0.29,0.46,
1.326,0.03,-0.03,1.05,-0.45,-0.39,0.37,
1.329,0.02,-0.02,1.06,-0.45,-0.39,0.37,
1.331,0.01,-0.01,1.05,-0.45,-0.39,0.37,
1.331,0.01,-0.01,1.05,-0.55,-0.38,0.35,
1.334,0.00,-0.00,1.03,-0.55,-0.38,0.35,
1.336,-0.00,-0.00,1.02,-0.55,-0.38,0.35,
1.336,-0.00,-0.00,1.02,-0.73,-0.23,0.34,
1.338,-0.00,0.01,1.02,-0.73,-0.23,0.34,
1.341,-0.00,0.01,1.02,-0.86,-0.18,0.11,
1.342,-0.00,0.01,1.01,-0.86,-0.18,0.11,
1.343,-0.00,0.02,1.00,-0.86,-0.18,0.11,
1.346,-0.00,0.02,1.00,-0.86,-0.18,0.11,
1.346,-0.00,0.02,1.00,-0.85,-0.10,-0.05,
1.348,-0.01,0.02,0.99,-0.85,-0.10,-0.05,
1.351,-0.00,0.02,0.99,-0.85,-0.10,-0.05,
1.351,-0.00,0.02,0.99,-0.85,-0.06,-0.19,
1.353,-0.00,0.02,0.99,-0.85,-0.06,-0.19,
1.356,0.00,0.03,0.98,-0.85,-0.06,-0.19,
1.356,0.00,0.03,0.98,-0.90,-0.07,-0.24,
1.358,0.01,0.03,0.97,-0.90,-0.07,-0.24,
1.361,0.02,0.03,0.98,-0.90,-0.07,-0.24,
1.361,0.02,0.03,0.98,-0.83,-0.08,-0.33,
1.367,0.03,0.02,0.97,-0.83,-0.08,-0.33,
1.367,0.03,0.02,0.97,-0.65,-0.06,-0.40,
1.368,0.04,0.02,0.97,-0.65,-0.06,-0.40,
1.368,0.05,0.03,0.97,-0.65,-0.06,-0.40,
1.371,0.05,0.03,0.96,-0.65,-0.06,-0.40,
1.371,0.05,0.03,0.96,-0.50,-0.13,-0.42,
1.372,0.07,0.03,0.96,-0.50,-0.13,-0.42,
1.375,0.07,0.03,0.96,-0.50,-0.13,-0.42,
1.375,0.07,0.03,0.96,-0.32,-0.15,-0.53,
1.377,0.08,0.03,0.95,-0.32,-0.15,-0.53,
1.381,0.08,0.03,0.95,-0.32,-0.15,-0.53,
1.381,0.08,0.03,0.95,-0.13,-0.15,-0.55,
1.382,0.09,0.03,0.94,-0.13,-0.15,-0.55,
1.385,0.09,0.02,0.94,-0.13,-0.15,-0.55,
1.385,0.09,0.02,0.94,-0.03,-0.19,-0.67,
1.387,0.09,0.03,0.94,-0.03,-0.19,-0.67,
1.39,0.09,0.03,0.94,0.06,-0.22,-0.74,
1.391,0.09,0.03,0.94,0.06,-0.22,-0.74,
1.393,0.08,0.04,0.94,0.06,-0.22,-0.74,
1.395,0.09,0.04,0.94,0.06,-0.22,-0.74,
1.395,0.09,0.04,0.94,0.04,-0.19,-0.73,
1.397,0.09,0.04,0.94,0.04,-0.19,-0.73,
1.4,0.09,0.04,0.94,0.02,-0.15,-0.72,
1.4,0.09,0.05,0.93,0.02,-0.15,-0.72,
1.403,0.08,0.06,0.93,0.02,-0.15,-0.72,
1.405,0.08,0.06,0.92,0.02,-0.15,-0.72,
1.406,0.08,0.06,0.92,0.05,-0.10,-0.74,
1.407,0.07,0.07,0.92,0.05,-0.10,-0.74,
1.41,0.06,0.08,0.93,0.05,-0.10,-0.74,
1.411,0.06,0.08,0.93,-0.03,0.01,-0.88,
1.412,0.05,0.09,0.93,-0.03,0.01,-0.88,
1.415,0.03,0.10,0.93,-0.03,0.01,-0.88,
1.416,0.03,0.10,0.93,-0.18,0.14,-0.89,
1.417,0.02,0.11,0.93,-0.18,0.14,-0.89,
1.42,0.01,0.11,0.94,-0.18,0.14,-0.89,
1.42,0.01,0.11,0.94,-0.39,0.28,-0.82,
1.422,-0.00,0.11,0.93,-0.39,0.28,-0.82,
1.425,-0.01,0.12,0.93,-0.39,0.28,-0.82,
1.425,-0.01,0.12,0.93,-0.60,0.35,-0.80,
1.427,-0.01,0.12,0.93,-0.60,0.35,-0.80,
1.43,-0.02,0.12,0.93,-0.60,0.35,-0.80,
1.43,-0.02,0.12,0.93,-0.81,0.41,-0.81,
1.432,-0.02,0.11,0.93,-0.81,0.41,-0.81,
1.435,-0.02,0.11,0.93,-0.81,0.41,-0.81,
1.435,-0.02,0.11,0.93,-0.92,0.42,-0.84,
1.437,-0.04,0.09,0.93,-0.92,0.42,-0.84,
1.44,-0.04,0.09,0.93,-0.95,0.31,-0.83,
1.44,-0.04,0.09,0.94,-0.95,0.31,-0.83,
1.442,-0.04,0.08,0.94,-0.95,0.31,-0.83,
1.445,-0.04,0.07,0.94,-0.95,0.31,-0.83,
1.445,-0.04,0.07,0.94,-1.11,0.08,-0.75,
1.448,-0.03,0.06,0.93,-1.11,0.08,-0.75,
1.449,-0.03,0.05,0.94,-1.11,0.08,-0.75,
1.449,-0.03,0.05,0.94,-1.12,-0.10,-0.71,
1.452,-0.01,0.06,0.93,-1.12,-0.10,-0.71,
1.455,-0.01,0.06,0.94,-1.12,-0.10,-0.71,
1.455,-0.01,0.06,0.94,-1.03,-0.30,-0.74,
1.457,-0.00,0.05,0.94,-1.03,-0.30,-0.74,
1.459,-0.00,0.05,0.94,-1.03,-0.30,-0.74,
1.459,-0.00,0.05,0.94,-0.81,-0.30,-0.74,
1.463,0.00,0.04,0.94,-0.81,-0.30,-0.74,
1.47,0.00,0.04,0.94,-0.75,-0.40,-0.69,
1.47,0.00,0.03,0.95,-0.75,-0.40,-0.69,
1.471,0.00,0.03,0.96,-0.75,-0.40,-0.69,
1.471,0.01,0.04,0.95,-0.75,-0.40,-0.69,
1.471,0.01,0.04,0.95,-0.71,-0.57,-0.62,
1.471,0.01,0.04,0.94,-0.71,-0.57,-0.62,
1.475,0.01,0.04,0.92,-0.71,-0.57,-0.62,
1.475,0.01,0.04,0.92,-0.68,-0.59,-0.56,
1.476,0.01,0.04,0.91,-0.68,-0.59,-0.56,
1.481,0.01,0.04,0.92,-0.68,-0.59,-0.56,
1.481,0.01,0.04,0.92,-0.62,-0.54,-0.76,
1.482,0.00,0.05,0.92,-0.62,-0.54,-0.76,
1.484,-0.01,0.05,0.90,-0.62,-0.54,-0.76,
1.484,-0.01,0.05,0.90,-0.64,-0.60,-0.91,
1.486,-0.01,0.06,0.90,-0.64,-0.60,-0.91,
1.489,-0.01,0.06,0.90,-0.75,-0.49,-0.97,
1.489,-0.02,0.06,0.90,-0.75,-0.49,-0.97,
1.491,-0.02,0.07,0.89,-0.75,-0.49,-0.97,
1.494,-0.03,0.07,0.89,-0.75,-0.49,-0.97,
1.494,-0.03,0.07,0.89,-0.85,-0.43,-1.06,
1.499,-0.03,0.07,0.89,-0.85,-0.43,-1.06,
1.5,-0.04,0.07,0.88,-0.85,-0.43,-1.06,
1.5,-0.04,0.07,0.88,-0.91,-0.35,-1.11,
1.502,-0.04,0.07,0.87,-0.91,-0.35,-1.11,
1.504,-0.04,0.07,0.86,-0.91,-0.35,-1.11,
1.505,-0.04,0.07,0.86,-1.01,-0.38,-1.21,
1.506,-0.04,0.07,0.86,-1.01,-0.38,-1.21,
1.509,-0.04,0.07,0.85,-1.01,-0.38,-1.21,
1.51,-0.04,0.07,0.85,-1.06,-0.37,-1.38,
1.512,-0.04,0.07,0.86,-1.06,-0.37,-1.38,
1.514,-0.04,0.07,0.86,-1.06,-0.41,-1.46,
1.514,-0.04,0.06,0.85,-1.06,-0.41,-1.46,
1.516,-0.04,0.05,0.85,-1.06,-0.41,-1.46,
1.519,-0.05,0.04,0.85,-1.06,-0.41,-1.46,
1.519,-0.05,0.04,0.85,-1.05,-0.47,-1.45,
1.521,-0.04,0.04,0.85,-1.05,-0.47,-1.45,
1.524,-0.05,0.04,0.85,-1.05,-0.47,-1.45,
1.524,-0.05,0.04,0.85,-1.06,-0.65,-1.55,
1.526,-0.05,0.04,0.85,-1.06,-0.65,-1.55,
1.53,-0.05,0.04,0.85,-1.03,-0.71,-1.56,
1.531,-0.05,0.04,0.86,-1.03,-0.71,-1.56,
1.531,-0.04,0.03,0.87,-1.03,-0.71,-1.56,
1.534,-0.04,0.03,0.88,-1.03,-0.71,-1.56,
1.534,-0.04,0.03,0.88,-1.10,-0.77,-1.43,
1.536,-0.04,0.02,0.89,-1.10,-0.77,-1.43,
1.539,-0.04,0.02,0.89,-1.02,-0.86,-1.29,
1.539,-0.04,0.03,0.90,-1.02,-0.86,-1.29,
1.541,-0.03,0.02,0.90,-1.02,-0.86,-1.29,
1.544,-0.02,0.02,0.90,-1.02,-0.86,-1.29,
1.544,-0.02,0.02,0.90,-1.00,-0.90,-1.09,
1.547,-0.02,0.02,0.91,-1.00,-0.90,-1.09,
1.548,-0.01,0.02,0.92,-1.00,-0.90,-1.09,
1.549,-0.01,0.02,0.92,-0.89,-0.96,-0.99,
1.551,-0.01,0.02,0.92,-0.89,-0.96,-0.99,
1.554,-0.01,0.02,0.92,-0.89,-0.96,-0.99,
1.554,-0.01,0.02,0.92,-0.75,-0.96,-0.86,
1.556,-0.00,0.03,0.92,-0.75,-0.96,-0.86,
1.559,-0.00,0.03,0.92,-0.68,-0.91,-0.82,
1.559,-0.01,0.03,0.91,-0.68,-0.91,-0.82,
1.561,-0.01,0.03,0.92,-0.68,-0.91,-0.82,
1.568,-0.01,0.03,0.92,-0.68,-0.88,-0.85,
1.568,-0.01,0.03,0.92,-0.68,-0.88,-0.85,
1.57,-0.00,0.05,0.91,-0.68,-0.88,-0.85,
1.57,0.00,0.05,0.90,-0.68,-0.88,-0.85,
1.571,0.00,0.05,0.90,-0.72,-0.86,-0.84,
1.571,-0.01,0.03,0.89,-0.72,-0.86,-0.84,
1.573,-0.02,0.03,0.88,-0.72,-0.86,-0.84,
1.573,-0.02,0.03,0.88,-0.64,-0.71,-0.91,
1.576,-0.02,0.04,0.88,-0.64,-0.71,-0.91,
1.579,-0.02,0.04,0.86,-0.64,-0.71,-0.91,
1.579,-0.02,0.04,0.86,-0.81,-0.87,-1.13,
1.581,-0.02,0.04,0.87,-0.81,-0.87,-1.13,
1.584,-0.03,0.05,0.86,-0.81,-0.87,-1.13,
1.584,-0.03,0.05,0.86,-0.85,-0.82,-1.28,
1.586,-0.03,0.05,0.86,-0.85,-0.82,-1.28,
1.589,-0.03,0.05,0.86,-0.87,-0.79,-1.33,
1.589,-0.03,0.06,0.86,-0.87,-0.79,-1.33,
1.591,-0.03,0.07,0.86,-0.87,-0.79,-1.33,
1.593,-0.02,0.07,0.86,-0.87,-0.79,-1.33,
1.594,-0.02,0.07,0.86,-0.94,-0.70,-1.35,
1.596,-0.03,0.08,0.84,-0.94,-0.70,-1.35,
1.599,-0.02,0.08,0.83,-0.94,-0.70,-1.35,
1.599,-0.02,0.08,0.83,-0.86,-0.59,-1.37,
1.6,-0.02,0.08,0.83,-0.86,-0.59,-1.37,
1.604,-0.02,0.08,0.82,-0.86,-0.59,-1.37,
1.604,-0.02,0.08,0.82,-0.85,-0.49,-1.57,
1.606,-0.02,0.09,0.82,-0.85,-0.49,-1.57,
1.608,-0.02,0.09,0.81,-0.85,-0.49,-1.57,
1.608,-0.02,0.09,0.81,-0.77,-0.50,-1.68,
1.61,-0.02,0.09,0.80,-0.77,-0.50,-1.68,
1.615,-0.02,0.09,0.80,-0.80,-0.48,-1.78,
1.616,-0.02,0.09,0.80,-0.80,-0.48,-1.78,
1.616,-0.01,0.09,0.80,-0.80,-0.48,-1.78,
1.618,-0.00,0.09,0.80,-0.80,-0.48,-1.78,
1.618,-0.00,0.09,0.80,-0.75,-0.46,-1.89,
1.62,-0.00,0.09,0.81,-0.75,-0.46,-1.89,
1.622,0.01,0.09,0.80,-0.75,-0.46,-1.89,
1.622,0.01,0.09,0.80,-0.64,-0.49,-1.87,
1.625,0.01,0.09,0.81,-0.64,-0.49,-1.87,
1.627,0.02,0.09,0.80,-0.64,-0.49,-1.87,
1.628,0.02,0.09,0.80,-0.53,-0.53,-1.87,
1.632,0.02,0.09,0.81,-0.53,-0.53,-1.87,
1.632,0.03,0.09,0.82,-0.53,-0.53,-1.87,
1.633,0.03,0.09,0.82,-0.38,-0.55,-1.86,
1.635,0.04,0.09,0.83,-0.38,-0.55,-1.86,
1.637,0.04,0.09,0.83,-0.31,-0.58,-1.73,
1.638,0.05,0.09,0.84,-0.31,-0.58,-1.73,
1.64,0.05,0.09,0.84,-0.31,-0.58,-1.73,
1.642,0.05,0.09,0.85,-0.31,-0.58,-1.73,
1.646,0.05,0.09,0.85,-0.15,-0.54,-1.55,
1.647,0.05,0.09,0.85,-0.15,-0.54,-1.55,
1.647,0.05,0.09,0.86,-0.15,-0.54,-1.55,
1.647,0.05,0.09,0.86,-0.08,-0.58,-1.45,
1.652,0.05,0.09,0.86,-0.08,-0.58,-1.45,
1.652,0.05,0.09,0.87,-0.08,-0.58,-1.45,
1.652,0.05,0.09,0.87,-0.02,-0.59,-1.35,
1.655,0.05,0.09,0.87,-0.02,-0.59,-1.35,
1.659,0.05,0.09,0.87,-0.02,-0.59,-1.35,
1.659,0.05,0.09,0.87,-0.01,-0.60,-1.24,
1.659,0.05,0.10,0.86,-0.01,-0.60,-1.24,
1.663,0.05,0.10,0.86,-0.03,-0.62,-1.21,
1.663,0.05,0.10,0.86,-0.03,-0.62,-1.21,
1.669,0.05,0.10,0.85,-0.03,-0.62,-1.21,
1.669,0.04,0.10,0.85,-0.03,-0.62,-1.21,
1.67,0.04,0.10,0.85,-0.02,-0.56,-1.23,
1.67,0.03,0.10,0.84,-0.02,-0.56,-1.23,
1.673,0.02,0.10,0.84,-0.02,-0.56,-1.23,
1.673,0.02,0.10,0.84,-0.07,-0.56,-1.35,
1.675,0.02,0.10,0.82,-0.07,-0.56,-1.35,
1.678,0.00,0.11,0.82,-0.07,-0.56,-1.35,
1.678,0.00,0.11,0.82,-0.23,-0.55,-1.47,
1.681,-0.01,0.11,0.82,-0.23,-0.55,-1.47,
1.682,-0.02,0.11,0.82,-0.23,-0.55,-1.47,
1.683,-0.02,0.11,0.82,-0.39,-0.55,-1.61,
1.684,-0.03,0.12,0.81,-0.39,-0.55,-1.61,
1.687,-0.03,0.12,0.81,-0.62,-0.51,-1.65,
1.687,-0.04,0.12,0.81,-0.62,-0.51,-1.65,
1.689,-0.04,0.12,0.80,-0.62,-0.51,-1.65,
1.692,-0.04,0.12,0.80,-0.82,-0.45,-1.72,
1.692,-0.04,0.13,0.80,-0.82,-0.45,-1.72,
1.695,-0.04,0.14,0.80,-0.82,-0.45,-1.72,
1.698,-0.04,0.15,0.80,-0.82,-0.45,-1.72,
1.698,-0.04,0.15,0.80,-0.85,-0.36,-1.81,
1.7,-0.04,0.15,0.80,-0.85,-0.36,-1.81,
1.703,-0.03,0.15,0.79,-0.85,-0.36,-1.81,
1.703,-0.03,0.15,0.79,-0.79,-0.23,-1.85,
1.705,-0.03,0.15,0.79,-0.79,-0.23,-1.85,
1.707,-0.02,0.15,0.80,-0.79,-0.23,-1.85,
1.707,-0.02,0.15,0.80,-0.75,-0.18,-1.87,
1.71,-0.02,0.16,0.80,-0.75,-0.18,-1.87,
1.712,-0.02,0.16,0.80,-0.65,-0.16,-1.86,
1.712,-0.02,0.15,0.81,-0.65,-0.16,-1.86,
1.715,-0.01,0.14,0.81,-0.65,-0.16,-1.86,
1.717,-0.00,0.14,0.82,-0.65,-0.16,-1.86,
1.717,-0.00,0.14,0.82,-0.59,-0.17,-1.74,
1.719,0.01,0.13,0.84,-0.59,-0.17,-1.74,
1.722,0.01,0.13,0.84,-0.45,-0.29,-1.62,
1.722,0.01,0.14,0.85,-0.45,-0.29,-1.62,
1.725,0.02,0.13,0.86,-0.45,-0.29,-1.62,
1.727,0.02,0.14,0.87,-0.45,-0.29,-1.62,
1.727,0.02,0.14,0.87,-0.31,-0.34,-1.40,
1.729,0.03,0.14,0.88,-0.31,-0.34,-1.40,
1.731,0.04,0.14,0.89,-0.31,-0.34,-1.40,
1.732,0.04,0.14,0.89,-0.22,-0.32,-1.19,
1.734,0.05,0.14,0.90,-0.22,-0.32,-1.19,
1.737,0.05,0.14,0.90,-0.09,-0.30,-0.96,
1.737,0.05,0.14,0.91,-0.09,-0.30,-0.96,
1.739,0.05,0.14,0.92,-0.09,-0.30,-0.96,
1.742,0.06,0.14,0.92,-0.09,-0.30,-0.96,
1.742,0.06,0.14,0.92,0.07,-0.27,-0.78,
1.744,0.07,0.14,0.92,0.07,-0.27,-0.78,
1.752,0.07,0.14,0.93,0.07,-0.27,-0.78,
1.753,0.07,0.14,0.93,0.14,-0.27,-0.62,
1.753,0.07,0.13,0.93,0.14,-0.27,-0.62,
1.753,0.06,0.13,0.93,0.14,-0.27,-0.62,
1.754,0.06,0.13,0.93,0.26,-0.30,-0.55,
1.754,0.06,0.13,0.93,0.26,-0.30,-0.55,
1.757,0.06,0.13,0.93,0.26,-0.35,-0.54,
1.757,0.05,0.13,0.93,0.26,-0.35,-0.54,
1.759,0.05,0.13,0.93,0.26,-0.35,-0.54,
1.761,0.05,0.13,0.93,0.15,-0.38,-0.53,
1.762,0.04,0.13,0.93,0.15,-0.38,-0.53,
1.764,0.03,0.13,0.94,0.15,-0.38,-0.53,
1.766,0.02,0.14,0.94,0.15,-0.38,-0.53,
1.767,0.02,0.14,0.94,0.05,-0.37,-0.50,
1.768,0.01,0.14,0.94,0.05,-0.37,-0.50,
1.771,0.00,0.15,0.94,0.05,-0.37,-0.50,
1.771,0.00,0.15,0.94,-0.12,-0.32,-0.43,
1.774,-0.00,0.15,0.95,-0.12,-0.32,-0.43,
1.777,-0.02,0.16,0.95,-0.12,-0.32,-0.43,
1.777,-0.02,0.16,0.95,-0.26,-0.25,-0.40,
1.779,-0.03,0.16,0.95,-0.26,-0.25,-0.40,
1.782,-0.04,0.17,0.95,-0.26,-0.25,-0.40,
1.782,-0.04,0.17,0.95,-0.42,-0.12,-0.35,
1.783,-0.05,0.18,0.95,-0.42,-0.12,-0.35,
1.787,-0.05,0.18,0.95,-0.62,-0.02,-0.31,
1.787,-0.05,0.18,0.95,-0.62,-0.02,-0.31,
1.789,-0.05,0.19,0.95,-0.62,-0.02,-0.31,
1.792,-0.05,0.19,0.94,-0.62,-0.02,-0.31,
1.792,-0.05,0.19,0.94,-0.76,0.10,-0.32,
1.794,-0.05,0.20,0.94,-0.76,0.10,-0.32,
1.796,-0.05,0.20,0.94,-0.76,0.10,-0.32,
1.797,-0.05,0.20,0.94,-0.77,0.18,-0.35,
1.799,-0.06,0.20,0.94,-0.77,0.18,-0.35,
1.801,-0.06,0.21,0.93,-0.77,0.18,-0.35,
1.801,-0.06,0.21,0.93,-0.79,0.25,-0.40,
1.804,-0.06,0.21,0.92,-0.79,0.25,-0.40,
1.806,-0.06,0.21,0.92,-0.87,0.32,-0.48,
1.807,-0.05,0.21,0.92,-0.87,0.32,-0.48,
1.809,-0.05,0.21,0.91,-0.87,0.32,-0.48,
1.811,-0.05,0.21,0.91,-0.82,0.37,-0.61,
1.812,-0.05,0.22,0.91,-0.82,0.37,-0.61,
1.814,-0.04,0.21,0.91,-0.82,0.37,-0.61,
1.816,-0.04,0.21,0.91,-0.82,0.37,-0.61,
1.817,-0.04,0.21,0.91,-0.75,0.42,-0.70,
1.818,-0.03,0.21,0.91,-0.75,0.42,-0.70,
1.821,-0.03,0.21,0.91,-0.75,0.42,-0.70,
1.822,-0.03,0.21,0.91,-0.63,0.39,-0.73,
1.823,-0.03,0.21,0.91,-0.63,0.39,-0.73,
1.826,-0.02,0.21,0.90,-0.63,0.39,-0.73,
1.826,-0.02,0.21,0.90,-0.59,0.37,-0.70,
1.828,-0.02,0.20,0.91,-0.59,0.37,-0.70,
1.831,-0.01,0.20,0.92,-0.59,0.37,-0.70,
1.831,-0.01,0.20,0.92,-0.53,0.33,-0.77,
1.833,-0.01,0.21,0.92,-0.53,0.33,-0.77,
1.836,-0.01,0.21,0.92,-0.41,0.29,-0.65,
1.836,0.00,0.20,0.92,-0.41,0.29,-0.65,
1.837,-0.00,0.21,0.93,-0.41,0.29,-0.65,
1.841,-0.00,0.21,0.93,-0.41,0.29,-0.65,
1.841,-0.00,0.21,0.93,-0.31,0.31,-0.59,
1.844,0.00,0.21,0.94,-0.31,0.31,-0.59,
1.846,-0.00,0.21,0.95,-0.31,0.31,-0.59,
1.846,-0.00,0.21,0.95,-0.28,0.36,-0.50,
1.848,-0.00,0.21,0.95,-0.28,0.36,-0.50,
1.85,0.00,0.21,0.96,-0.28,0.36,-0.50,
1.851,0.00,0.21,0.96,-0.26,0.38,-0.38,
1.853,-0.00,0.21,0.96,-0.26,0.38,-0.38,
1.856,-0.00,0.21,0.96,-0.27,0.39,-0.23,
1.856,-0.00,0.21,0.97,-0.27,0.39,-0.23,
1.858,-0.01,0.21,0.98,-0.27,0.39,-0.23,
1.861,-0.01,0.21,0.98,-0.27,0.42,-0.13,
1.861,-0.00,0.21,0.99,-0.27,0.42,-0.13,
1.863,-0.00,0.21,0.99,-0.27,0.42,-0.13,
1.868,-0.01,0.21,1.00,-0.27,0.42,-0.13,
1.869,-0.01,0.21,1.00,-0.30,0.40,0.03,
1.869,-0.00,0.21,1.00,-0.30,0.40,0.03,
1.87,0.00,0.21,1.01,-0.30,0.40,0.03,
1.87,0.00,0.21,1.01,-0.29,0.42,0.13,
1.872,0.01,0.20,1.01,-0.29,0.42,0.13,
1.875,0.01,0.20,1.02,-0.29,0.42,0.13,
1.875,0.01,0.20,1.02,-0.24,0.38,0.23,
1.877,0.01,0.21,1.02,-0.24,0.38,0.23,
1.88,0.01,0.20,1.01,-0.24,0.38,0.23,
1.88,0.01,0.20,1.01,-0.17,0.34,0.34,
1.882,0.01,0.20,1.01,-0.17,0.34,0.34,
1.885,0.01,0.20,1.01,-0.17,0.35,0.34,
1.885,0.01,0.20,1.00,-0.17,0.35,0.34,
1.887,0.02,0.19,1.00,-0.17,0.35,0.34,
1.89,0.02,0.19,0.99,-0.17,0.35,0.34,
1.89,0.02,0.19,0.99,-0.14,0.28,0.23,
1.892,0.03,0.19,0.99,-0.14,0.28,0.23,
1.895,0.03,0.18,0.99,-0.14,0.28,0.23,
1.895,0.03,0.18,0.99,-0.07,0.23,0.14,
1.9,0.03,0.18,0.99,-0.07,0.23,0.14,
1.9,0.03,0.18,0.98,-0.07,0.23,0.14,
1.901,0.03,0.18,0.98,0.01,0.15,0.07,
1.902,0.03,0.17,0.99,0.01,0.15,0.07,
1.904,0.03,0.17,0.98,0.01,0.15,0.07,
1.905,0.03,0.17,0.98,0.05,0.11,0.03,
1.907,0.04,0.16,0.98,0.05,0.11,0.03,
1.91,0.04,0.16,0.98,0.05,0.02,0.04,
1.91,0.04,0.16,0.98,0.05,0.02,0.04,
1.912,0.04,0.16,0.98,0.05,0.02,0.04,
1.915,0.05,0.16,0.98,0.05,0.02,0.04,
1.916,0.05,0.16,0.98,0.09,-0.07,-0.04,
1.917,0.04,0.16,0.98,0.09,-0.07,-0.04,
1.919,0.05,0.16,0.99,0.09,-0.07,-0.04,
1.92,0.05,0.16,0.99,0.17,-0.05,-0.02,
1.922,0.05,0.16,0.99,0.17,-0.05,-0.02,
1.924,0.04,0.15,1.00,0.17,-0.05,-0.02,
1.925,0.04,0.15,1.00,0.16,-0.07,0.04,
1.927,0.04,0.15,1.00,0.16,-0.07,0.04,
1.929,0.04,0.15,1.00,0.16,-0.07,0.04,
1.929,0.04,0.15,1.00,0.15,-0.10,0.14,
1.932,0.04,0.15,1.01,0.15,-0.10,0.14,
1.935,0.04,0.15,1.01,0.09,-0.13,0.16,
1.935,0.03,0.15,1.01,0.09,-0.13,0.16,
1.937,0.04,0.15,1.01,0.09,-0.13,0.16,
1.939,0.03,0.15,1.01,0.09,-0.13,0.16,
1.939,0.03,0.15,1.01,0.07,-0.19,0.29,
1.941,0.03,0.15,1.01,0.07,-0.19,0.29,
1.944,0.03,0.15,1.02,0.07,-0.19,0.29,
1.944,0.03,0.15,1.02,0.06,-0.15,0.27,
1.946,0.02,0.16,1.02,0.06,-0.15,0.27,
1.95,0.02,0.16,1.02,0.06,-0.15,0.27,
1.95,0.02,0.16,1.02,0.03,-0.13,0.34,
1.951,0.02,0.16,1.03,0.03,-0.13,0.34,
1.954,0.02,0.16,1.03,-0.04,-0.06,0.41,
1.954,0.02,0.17,1.03,-0.04,-0.06,0.41,
1.956,0.02,0.17,1.03,-0.04,-0.06,0.41,
1.959,0.02,0.17,1.03,-0.09,-0.00,0.44,
1.959,0.02,0.17,1.03,-0.09,-0.00,0.44,
1.961,0.02,0.17,1.02,-0.09,-0.00,0.44,
1.97,0.02,0.18,1.02,-0.09,-0.00,0.44,
1.97,0.02,0.18,1.02,-0.09,0.07,0.47,
1.97,0.02,0.18,1.02,-0.09,0.07,0.47,
1.971,0.02,0.18,1.02,-0.08,0.10,0.38,
1.971,0.02,0.18,1.02,-0.08,0.10,0.38,
1.972,0.03,0.17,1.02,-0.08,0.10,0.38,
1.974,0.04,0.17,1.02,-0.08,0.10,0.38,
1.974,0.04,0.17,1.02,-0.04,0.12,0.37,
1.976,0.03,0.17,1.02,-0.04,0.12,0.37,
1.979,0.03,0.17,1.02,0.05,0.06,0.35,
1.979,0.04,0.16,1.02,0.05,0.06,0.35,
1.982,0.05,0.16,1.01,0.05,0.06,0.35,
1.984,0.05,0.16,1.01,0.07,0.00,0.34,
1.984,0.05,0.16,1.02,0.07,0.00,0.34,
1.986,0.06,0.16,1.02,0.07,0.00,0.34,
1.989,0.06,0.16,1.01,0.07,0.00,0.34,
1.989,0.06,0.16,1.01,0.19,-0.04,0.32,
1.993,0.06,0.16,1.01,0.19,-0.04,0.32,
1.994,0.06,0.15,1.02,0.19,-0.04,0.32,
1.994,0.06,0.15,1.02,0.31,-0.05,0.30,
1.996,0.06,0.16,1.01,0.31,-0.05,0.30,
1.999,0.07,0.15,1.02,0.31,-0.05,0.30,
2.0,0.07,0.15,1.02,0.33,-0.09,0.30,
2.002,0.06,0.15,1.01,0.33,-0.09,0.30,
2.004,0.06,0.15,1.01,0.33,-0.09,0.30,
2.004,0.06,0.15,1.01,0.34,-0.11,0.30,
2.006,0.05,0.15,1.02,0.34,-0.11,0.30,
2.009,0.05,0.15,1.02,0.33,-0.14,0.28,
2.009,0.05,0.15,1.01,0.33,-0.14,0.28,
2.012,0.04,0.15,1.01,0.33,-0.14,0.28,
2.014,0.04,0.15,1.01,0.33,-0.14,0.28,
2.014,0.04,0.15,1.01,0.23,-0.14,0.30,
2.016,0.03,0.15,1.01,0.23,-0.14,0.30,
2.019,0.02,0.15,1.00,0.23,-0.14,0.30,
2.02,0.02,0.15,1.00,0.13,-0.13,0.31,
2.021,0.02,0.16,1.01,0.13,-0.13,0.31,
2.024,0.01,0.17,1.00,0.13,-0.13,0.31,
2.024,0.01,0.17,1.00,-0.00,-0.13,0.24,
2.026,0.01,0.17,1.01,-0.00,-0.13,0.24,
2.029,0.00,0.16,1.00,-0.00,-0.13,0.24,
2.029,0.00,0.16,1.00,-0.14,-0.05,0.22,
2.033,-0.00,0.17,1.00,-0.14,-0.05,0.22,
2.033,-0.00,0.17,1.00,-0.25,-0.02,0.23,
2.033,-0.00,0.17,1.01,-0.25,-0.02,0.23,
2.036,-0.01,0.17,1.01,-0.25,-0.02,0.23,
2.039,-0.01,0.17,1.00,-0.25,-0.02,0.23,
2.039,-0.01,0.17,1.00,-0.31,0.02,0.22,
2.041,-0.01,0.17,1.01,-0.31,0.02,0.22,
2.044,-0.01,0.17,1.01,-0.31,0.02,0.22,
2.044,-0.01,0.17,1.01,-0.38,0.04,0.21,
2.046,-0.01,0.18,1.01,-0.38,0.04,0.21,
2.05,0.00,0.18,1.01,-0.38,0.04,0.21,
2.051,0.00,0.18,1.01,-0.38,0.03,0.24,
2.051,-0.00,0.18,1.01,-0.38,0.03,0.24,
2.054,0.00,0.18,1.01,-0.38,0.03,0.24,
2.054,0.00,0.18,1.01,-0.30,0.08,0.25,
2.055,0.00,0.18,1.00,-0.30,0.08,0.25,
2.059,0.00,0.18,1.00,-0.28,0.13,0.25,
2.059,-0.00,0.18,1.00,-0.28,0.13,0.25,
2.061,0.01,0.19,1.00,-0.28,0.13,0.25,
2.064,0.02,0.19,0.99,-0.28,0.13,0.25,
2.064,0.02,0.19,0.99,-0.27,0.12,0.19,
2.07,0.01,0.19,1.00,-0.27,0.12,0.19,
2.07,0.02,0.18,0.98,-0.27,0.12,0.19,
2.071,0.02,0.18,0.98,-0.17,0.16,0.14,
2.071,0.04,0.18,0.89,-0.17,0.16,0.14,
2.073,0.06,0.19,0.76,-0.17,0.16,0.14,
2.073,0.06,0.19,0.76,-0.14,0.11,0.05,
2.075,0.04,0.21,0.71,-0.14,0.11,0.05,
2.078,0.03,0.21,0.76,-0.14,0.11,0.05,
2.078,0.03,0.21,0.76,0.24,0.14,-1.49,
2.08,0.03,0.21,0.85,0.24,0.14,-1.49,
2.084,0.03,0.21,0.85,0.06,0.36,-2.45,
2.084,0.03,0.21,0.91,0.06,0.36,-2.45,
2.085,0.03,0.22,0.94,0.06,0.36,-2.45,
2.088,0.02,0.22,0.93,0.06,0.36,-2.45,
2.088,0.02,0.22,0.93,0.02,0.38,-1.00,
2.091,0.02,0.22,0.91,0.02,0.38,-1.00,
2.094,0.01,0.22,0.90,0.02,0.38,-1.00,
2.094,0.01,0.22,0.90,-0.03,0.47,-0.45,
2.096,0.02,0.22,0.90,-0.03,0.47,-0.45,
2.098,0.03,0.21,0.91,-0.03,0.47,-0.45,
2.098,0.03,0.21,0.91,-0.13,0.53,-0.72,
2.101,0.03,0.20,0.93,-0.13,0.53,-0.72,
2.106,0.03,0.20,0.94,-0.13,0.53,-0.72,
2.107,0.03,0.20,0.94,-0.07,0.48,-0.74,
2.107,0.03,0.19,0.96,-0.07,0.48,-0.74,
2.107,0.03,0.19,0.96,0.04,0.31,-0.46,
2.108,0.03,0.19,0.97,0.04,0.31,-0.46,
2.111,0.03,0.18,0.99,0.04,0.31,-0.46,
2.113,0.03,0.18,1.02,0.04,0.31,-0.46,
2.113,0.03,0.18,1.02,-0.00,0.23,-0.16,
2.122,0.02,0.17,1.04,-0.00,0.23,-0.16,
2.123,0.03,0.18,1.06,-0.00,0.23,-0.16,
2.123,0.03,0.18,1.06,-0.02,0.12,0.24,
2.123,0.03,0.17,1.08,-0.02,0.12,0.24,
2.124,0.02,0.17,1.09,-0.02,0.12,0.24,
2.124,0.02,0.17,1.09,-0.02,0.09,0.67,
2.125,0.02,0.16,1.10,-0.02,0.09,0.67,
2.128,0.02,0.16,1.10,-0.02,0.09,0.67,
2.128,0.02,0.16,1.10,-0.05,0.04,1.00,
2.13,0.02,0.16,1.10,-0.05,0.04,1.00,
2.139,0.02,0.16,1.10,-0.09,-0.05,1.13,
2.14,0.01,0.16,1.10,-0.09,-0.05,1.13,
2.14,0.01,0.16,1.10,-0.09,-0.05,1.13,
2.14,0.01,0.16,1.09,-0.09,-0.05,1.13,
2.143,0.01,0.16,1.09,-0.13,-0.06,1.12,
2.143,0.01,0.16,1.08,-0.13,-0.06,1.12,
2.144,0.01,0.16,1.06,-0.13,-0.06,1.12,
2.144,0.01,0.16,1.06,-0.18,-0.05,1.08,
2.146,0.01,0.17,1.05,-0.18,-0.05,1.08,
2.148,0.01,0.17,1.03,-0.18,-0.05,1.08,
2.148,0.01,0.17,1.03,-0.19,-0.06,0.84,
2.154,0.01,0.17,1.01,-0.19,-0.06,0.84,
2.155,0.01,0.17,0.99,-0.19,-0.06,0.84,
2.155,0.01,0.17,0.99,-0.21,0.03,0.57,
2.155,0.00,0.17,0.99,-0.21,0.03,0.57,
2.158,0.00,0.17,0.99,-0.23,0.00,0.20,
2.158,0.01,0.18,0.98,-0.23,0.00,0.20,
2.16,0.01,0.18,0.96,-0.23,0.00,0.20,
2.163,0.00,0.18,0.95,-0.23,0.00,0.20,
2.163,0.00,0.18,0.95,-0.24,0.02,0.01,
2.165,-0.00,0.19,0.94,-0.24,0.02,0.01,
2.171,-0.00,0.19,0.92,-0.24,0.02,0.01,
2.172,-0.00,0.19,0.92,-0.22,0.05,-0.22,
2.172,0.00,0.19,0.92,-0.22,0.05,-0.22,
2.172,0.01,0.19,0.92,-0.22,0.05,-0.22,
2.172,0.01,0.19,0.92,-0.30,0.11,-0.50,
