
time,gFx,gFy,gFz,ax,ay,az,
0.002,-0.05,0.05,0.88,-0.24,-0.53,-2.16,
0.002,-0.05,0.05,0.88,-0.36,-0.32,-1.60,
0.002,-0.05,0.06,0.91,-0.36,-0.32,-1.60,
0.002,-0.05,0.06,0.93,-0.36,-0.32,-1.60,
0.002,-0.05,0.06,0.93,-0.41,-0.24,-1.21,
0.008,-0.04,0.06,0.95,-0.41,-0.24,-1.21,
0.008,-0.03,0.06,0.96,-0.41,-0.24,-1.21,
0.008,-0.03,0.06,0.96,-0.44,-0.09,-0.79,
0.01,-0.03,0.06,0.98,-0.44,-0.09,-0.79,
0.012,-0.02,0.06,1.00,-0.44,-0.09,-0.79,
0.012,-0.02,0.06,1.00,-0.31,-0.07,-0.43,
0.015,-0.01,0.05,1.01,-0.31,-0.07,-0.43,
0.017,-0.00,0.05,1.02,-0.31,-0.07,-0.43,
0.017,-0.00,0.05,1.02,-0.17,-0.03,-0.07,
0.019,0.00,0.06,1.04,-0.17,-0.03,-0.07,
0.022,0.01,0.06,1.04,-0.17,-0.03,-0.07,
0.022,0.01,0.06,1.04,-0.01,-0.10,0.20,
0.024,0.02,0.06,1.04,-0.01,-0.10,0.20,
0.027,0.03,0.06,1.05,-0.01,-0.10,0.20,
0.027,0.03,0.06,1.05,0.10,-0.01,0.38,
0.029,0.05,0.07,1.06,0.10,-0.01,0.38,
0.032,0.05,0.07,1.06,0.28,0.01,0.43,
0.032,0.06,0.07,1.08,0.28,0.01,0.43,
0.034,0.05,0.06,1.10,0.28,0.01,0.43,
0.037,0.04,0.04,1.11,0.28,0.01,0.43,
0.037,0.04,0.04,1.11,0.54,0.08,0.69,
0.039,0.02,0.04,1.11,0.54,0.08,0.69,
0.041,0.01,0.04,1.10,0.54,0.08,0.69,
0.042,0.01,0.04,1.10,0.44,-0.08,1.01,
0.044,-0.01,0.04,1.09,0.44,-0.08,1.01,
0.047,-0.02,0.04,1.07,0.44,-0.08,1.01,
0.047,-0.02,0.04,1.07,0.14,-0.20,1.00,
0.049,-0.03,0.06,1.05,0.14,-0.20,1.00,
0.051,-0.04,0.06,1.01,0.14,-0.20,1.00,
0.052,-0.04,0.06,1.01,-0.12,-0.20,0.76,
0.054,-0.04,0.06,0.97,-0.12,-0.20,0.76,
0.056,-0.05,0.07,0.95,-0.12,-0.20,0.76,
0.056,-0.05,0.07,0.95,-0.32,-0.05,0.25,
0.059,-0.07,0.07,0.91,-0.32,-0.05,0.25,
0.061,-0.08,0.08,0.89,-0.32,-0.05,0.25,
0.061,-0.08,0.08,0.89,-0.45,0.02,-0.40,
0.064,-0.08,0.08,0.86,-0.45,0.02,-0.40,
0.067,-0.09,0.08,0.83,-0.45,0.02,-0.40,
0.067,-0.09,0.08,0.83,-0.67,0.06,-0.99,
0.07,-0.09,0.08,0.80,-0.67,0.06,-0.99,
0.072,-0.09,0.09,0.79,-0.67,0.06,-0.99,
0.072,-0.09,0.09,0.79,-0.80,0.11,-1.54,
0.074,-0.09,0.09,0.76,-0.80,0.11,-1.54,
0.077,-0.08,0.09,0.75,-0.80,0.11,-1.54,
0.077,-0.08,0.09,0.75,-0.81,0.08,-1.98,
0.079,-0.07,0.09,0.74,-0.81,0.08,-1.98,
0.081,-0.06,0.09,0.73,-0.81,0.08,-1.98,
0.082,-0.06,0.09,0.73,-0.74,0.10,-2.36,
0.084,-0.05,0.10,0.72,-0.74,0.10,-2.36,
0.087,-0.03,0.10,0.72,-0.74,0.10,-2.36,
0.087,-0.03,0.10,0.72,-0.57,0.07,-2.54,
0.089,-0.01,0.11,0.72,-0.57,0.07,-2.54,
0.092,0.00,0.12,0.73,-0.57,0.07,-2.54,
0.092,0.00,0.12,0.73,-0.28,0.17,-2.65,
0.094,0.01,0.13,0.73,-0.28,0.17,-2.65,
0.097,0.03,0.13,0.73,-0.28,0.17,-2.65,
0.097,0.03,0.13,0.73,0.04,0.34,-2.60,
0.099,0.04,0.13,0.74,0.04,0.34,-2.60,
0.102,0.05,0.14,0.75,0.04,0.34,-2.60,
0.102,0.05,0.14,0.75,0.32,0.43,-2.57,
0.104,0.06,0.14,0.75,0.32,0.43,-2.57,
0.107,0.06,0.14,0.75,0.54,0.54,-2.37,
0.107,0.06,0.14,0.76,0.54,0.54,-2.37,
0.109,0.07,0.14,0.77,0.54,0.54,-2.37,
0.112,0.08,0.14,0.78,0.54,0.54,-2.37,
0.112,0.08,0.14,0.78,0.69,0.57,-2.23,
0.114,0.08,0.14,0.79,0.69,0.57,-2.23,
0.116,0.09,0.14,0.80,0.69,0.57,-2.23,
0.117,0.09,0.14,0.80,0.82,0.61,-2.03,
0.119,0.09,0.13,0.81,0.82,0.61,-2.03,
0.122,0.10,0.12,0.82,0.82,0.61,-2.03,
0.122,0.10,0.12,0.82,0.93,0.55,-1.82,
0.124,0.10,0.12,0.83,0.93,0.55,-1.82,
0.126,0.11,0.12,0.85,0.93,0.55,-1.82,
0.126,0.11,0.12,0.85,1.01,0.49,-1.62,
0.128,0.11,0.12,0.86,1.01,0.49,-1.62,
0.135,0.11,0.12,0.88,1.01,0.49,-1.62,
0.136,0.11,0.12,0.88,1.10,0.41,-1.35,
0.136,0.11,0.12,0.88,1.10,0.41,-1.35,
0.136,0.11,0.11,0.89,1.10,0.41,-1.35,
0.137,0.11,0.11,0.89,1.14,0.41,-1.10,
0.138,0.11,0.10,0.91,1.14,0.41,-1.10,
0.141,0.11,0.10,0.92,1.14,0.41,-1.10,
0.141,0.11,0.10,0.92,1.17,0.39,-0.91,
0.143,0.11,0.11,0.93,1.17,0.39,-0.91,
0.146,0.11,0.11,0.94,1.17,0.39,-0.91,
0.146,0.11,0.11,0.94,1.14,0.31,-0.65,
0.148,0.11,0.11,0.95,1.14,0.31,-0.65,
0.151,0.10,0.11,0.96,1.14,0.31,-0.65,
0.151,0.10,0.11,0.96,1.12,0.37,-0.43,
0.153,0.09,0.11,0.97,1.12,0.37,-0.43,
0.156,0.09,0.11,0.97,1.05,0.39,-0.24,
0.156,0.08,0.11,0.98,1.05,0.39,-0.24,
0.158,0.07,0.11,0.97,1.05,0.39,-0.24,
0.16,0.07,0.10,0.96,1.05,0.39,-0.24,
0.162,0.07,0.10,0.96,0.86,0.41,-0.02,
0.163,0.07,0.10,0.95,0.86,0.41,-0.02,
0.166,0.06,0.09,0.93,0.86,0.41,-0.02,
0.167,0.06,0.09,0.93,0.69,0.34,-0.18,
0.168,0.05,0.08,0.91,0.69,0.34,-0.18,
0.17,0.04,0.07,0.89,0.69,0.34,-0.18,
0.171,0.04,0.07,0.89,0.60,0.21,-0.40,
0.173,0.04,0.06,0.86,0.60,0.21,-0.40,
0.175,0.03,0.05,0.84,0.60,0.21,-0.40,
0.176,0.03,0.05,0.84,0.44,0.06,-0.73,
0.178,0.02,0.04,0.81,0.44,0.06,-0.73,
0.18,0.01,0.02,0.79,0.44,0.06,-0.73,
0.181,0.01,0.02,0.79,0.32,-0.12,-1.22,
0.184,0.01,0.01,0.76,0.32,-0.12,-1.22,
0.186,0.01,0.00,0.73,0.32,-0.12,-1.22,
0.186,0.01,0.00,0.73,0.15,-0.42,-1.72,
0.188,0.01,-0.01,0.72,0.15,-0.42,-1.72,
0.19,0.03,-0.01,0.69,0.15,-0.42,-1.72,
0.191,0.03,-0.01,0.69,0.14,-0.63,-2.23,
0.193,0.04,-0.01,0.68,0.14,-0.63,-2.23,
0.195,0.04,-0.01,0.67,0.14,-0.63,-2.23,
0.196,0.04,-0.01,0.67,0.23,-0.79,-2.62,
0.199,0.06,-0.01,0.67,0.23,-0.79,-2.62,
0.2,0.08,-0.01,0.68,0.23,-0.79,-2.62,
0.2,0.08,-0.01,0.68,0.43,-0.82,-2.87,
0.203,0.09,0.00,0.68,0.43,-0.82,-2.87,
0.206,0.11,0.01,0.69,0.43,-0.82,-2.87,
0.206,0.11,0.01,0.69,0.73,-0.79,-2.89,
0.208,0.13,0.01,0.70,0.73,-0.79,-2.89,
0.21,0.15,0.01,0.72,0.73,-0.79,-2.89,
0.211,0.15,0.01,0.72,1.10,-0.66,-2.78,
0.212,0.17,0.01,0.74,1.10,-0.66,-2.78,
0.216,0.18,0.01,0.77,1.10,-0.66,-2.78,
0.216,0.18,0.01,0.77,1.49,-0.56,-2.48,
0.218,0.20,0.01,0.80,1.49,-0.56,-2.48,
0.22,0.21,0.00,0.82,1.49,-0.56,-2.48,
0.221,0.21,0.00,0.82,1.81,-0.56,-2.07,
0.222,0.21,-0.00,0.85,1.81,-0.56,-2.07,
0.225,0.23,-0.00,0.87,1.81,-0.56,-2.07,
0.225,0.23,-0.00,0.87,2.08,-0.56,-1.49,
0.227,0.23,0.00,0.89,2.08,-0.56,-1.49,
0.23,0.24,0.01,0.91,2.08,-0.56,-1.49,
0.23,0.24,0.01,0.91,2.26,-0.62,-1.01,
0.233,0.24,0.01,0.93,2.26,-0.62,-1.01,
0.235,0.25,0.02,0.94,2.26,-0.62,-1.01,
0.235,0.25,0.02,0.94,2.42,-0.49,-0.60,
0.237,0.24,0.02,0.94,2.42,-0.49,-0.60,
0.24,0.24,0.02,0.93,2.42,-0.49,-0.60,
0.24,0.24,0.02,0.93,2.50,-0.41,-0.31,
0.242,0.22,0.02,0.92,2.50,-0.41,-0.31,
0.245,0.19,0.02,0.91,2.50,-0.41,-0.31,
0.245,0.19,0.02,0.91,2.43,-0.33,-0.29,
0.247,0.17,0.03,0.90,2.43,-0.33,-0.29,
0.253,0.16,0.02,0.88,2.43,-0.33,-0.29,
0.253,0.16,0.02,0.88,2.03,-0.27,-0.46,
0.253,0.13,0.04,0.87,2.03,-0.27,-0.46,
0.255,0.11,0.04,0.84,2.03,-0.27,-0.46,
0.255,0.11,0.04,0.84,1.64,-0.25,-0.69,
0.257,0.10,0.05,0.82,1.64,-0.25,-0.69,
0.26,0.09,0.06,0.81,1.64,-0.25,-0.69,
0.26,0.09,0.06,0.81,1.23,-0.10,-1.03,
0.262,0.07,0.07,0.79,1.23,-0.10,-1.03,
0.267,0.06,0.08,0.78,1.23,-0.10,-1.03,
0.267,0.06,0.08,0.78,0.94,0.05,-1.42,
0.268,0.05,0.09,0.76,0.94,0.05,-1.42,
0.269,0.05,0.10,0.74,0.94,0.05,-1.42,
0.27,0.05,0.10,0.74,0.69,0.21,-1.73,
0.272,0.05,0.10,0.73,0.69,0.21,-1.73,
0.274,0.04,0.10,0.72,0.69,0.21,-1.73,
0.275,0.04,0.10,0.72,0.55,0.45,-2.05,
0.277,0.05,0.09,0.70,0.55,0.45,-2.05,
0.279,0.05,0.10,0.69,0.55,0.45,-2.05,
0.28,0.05,0.10,0.69,0.49,0.46,-2.30,
0.282,0.06,0.09,0.68,0.49,0.46,-2.30,
0.284,0.08,0.09,0.68,0.49,0.46,-2.30,
0.285,0.08,0.09,0.68,0.54,0.44,-2.53,
0.287,0.08,0.09,0.68,0.54,0.44,-2.53,
0.289,0.09,0.09,0.69,0.54,0.44,-2.53,
0.29,0.09,0.09,0.69,0.70,0.43,-2.69,
0.292,0.11,0.09,0.70,0.70,0.43,-2.69,
0.294,0.12,0.09,0.71,0.70,0.43,-2.69,
0.295,0.12,0.09,0.71,0.91,0.37,-2.61,
0.297,0.15,0.10,0.71,0.91,0.37,-2.61,
0.299,0.17,0.10,0.72,0.91,0.37,-2.61,
0.301,0.17,0.10,0.72,1.19,0.42,-2.43,
0.302,0.19,0.10,0.74,1.19,0.42,-2.43,
0.305,0.19,0.10,0.74,1.57,0.50,-2.34,
0.305,0.21,0.10,0.76,1.57,0.50,-2.34,
0.307,0.23,0.11,0.77,1.57,0.50,-2.34,
0.31,0.25,0.12,0.78,1.57,0.50,-2.34,
0.31,0.25,0.12,0.78,1.99,0.54,-1.94,
0.312,0.27,0.12,0.79,1.99,0.54,-1.94,
0.314,0.28,0.13,0.81,1.99,0.54,-1.94,
0.315,0.28,0.13,0.81,2.37,0.66,-1.67,
0.316,0.29,0.14,0.82,2.37,0.66,-1.67,
0.319,0.29,0.15,0.82,2.37,0.66,-1.67,
0.32,0.29,0.15,0.82,2.70,0.80,-1.42,
0.322,0.27,0.16,0.81,2.70,0.80,-1.42,
0.324,0.25,0.16,0.79,2.70,0.80,-1.42,
0.325,0.25,0.16,0.79,2.81,0.99,-1.25,
0.327,0.23,0.16,0.77,2.81,0.99,-1.25,
0.329,0.19,0.15,0.74,2.81,0.99,-1.25,
0.33,0.19,0.15,0.74,2.53,1.12,-1.48,
0.333,0.16,0.15,0.71,2.53,1.12,-1.48,
0.334,0.13,0.14,0.69,2.53,1.12,-1.48,
0.334,0.13,0.14,0.69,2.00,1.04,-1.88,
0.337,0.10,0.14,0.67,2.00,1.04,-1.88,
0.339,0.07,0.14,0.65,2.00,1.04,-1.88,
0.34,0.07,0.14,0.65,1.27,0.96,-2.38,
0.342,0.04,0.15,0.63,1.27,0.96,-2.38,
0.344,0.03,0.14,0.62,1.27,0.96,-2.38,
0.345,0.03,0.14,0.62,0.66,0.92,-2.72,
0.347,0.01,0.14,0.61,0.66,0.92,-2.72,
0.349,-0.01,0.14,0.62,0.66,0.92,-2.72,
0.349,-0.01,0.14,0.62,0.19,0.93,-3.09,
0.351,-0.02,0.14,0.63,0.19,0.93,-3.09,
0.354,-0.01,0.14,0.64,0.19,0.93,-3.09,
0.355,-0.01,0.14,0.64,-0.16,0.89,-3.18,
0.357,-0.01,0.15,0.65,-0.16,0.89,-3.18,
0.359,-0.00,0.16,0.67,-0.16,0.89,-3.18,
0.359,-0.00,0.16,0.67,-0.37,0.90,-2.96,
0.362,0.01,0.16,0.69,-0.37,0.90,-2.96,
0.364,0.02,0.15,0.72,-0.37,0.90,-2.96,
0.364,0.02,0.15,0.72,-0.28,1.06,-2.71,
0.369,0.03,0.14,0.76,-0.28,1.06,-2.71,
0.37,0.04,0.12,0.78,-0.28,1.06,-2.71,
0.37,0.04,0.12,0.78,-0.12,1.03,-2.24,
0.371,0.05,0.11,0.82,-0.12,1.03,-2.24,
0.374,0.07,0.10,0.85,-0.12,1.03,-2.24,
0.374,0.07,0.10,0.85,0.05,0.84,-1.61,
0.377,0.09,0.09,0.88,0.05,0.84,-1.61,
0.379,0.12,0.08,0.91,0.05,0.84,-1.61,
0.379,0.12,0.08,0.91,0.31,0.58,-0.94,
0.382,0.15,0.07,0.93,0.31,0.58,-0.94,
0.384,0.18,0.06,0.96,0.31,0.58,-0.94,
0.384,0.18,0.06,0.96,0.71,0.37,-0.37,
0.386,0.20,0.06,0.97,0.71,0.37,-0.37,
0.389,0.23,0.06,0.98,0.71,0.37,-0.37,
0.39,0.23,0.06,0.98,1.20,0.18,0.11,
0.392,0.25,0.06,0.98,1.20,0.18,0.11,
0.394,0.27,0.06,0.96,1.20,0.18,0.11,
0.394,0.27,0.06,0.96,1.72,0.11,0.42,
0.396,0.27,0.05,0.95,1.72,0.11,0.42,
0.399,0.26,0.04,0.93,1.72,0.11,0.42,
0.401,0.26,0.04,0.93,2.10,0.13,0.37,
0.401,0.25,0.03,0.90,2.10,0.13,0.37,
0.403,0.25,0.03,0.87,2.10,0.13,0.37,
0.404,0.25,0.03,0.87,2.16,-0.04,0.09,
0.406,0.24,0.03,0.83,2.16,-0.04,0.09,
0.409,0.23,0.04,0.78,2.16,-0.04,0.09,
0.409,0.23,0.04,0.78,1.99,-0.24,-0.45,
0.411,0.21,0.04,0.75,1.99,-0.24,-0.45,
0.414,0.18,0.03,0.70,1.99,-0.24,-0.45,
0.414,0.18,0.03,0.70,1.85,-0.27,-1.23,
0.416,0.16,0.04,0.66,1.85,-0.27,-1.23,
0.418,0.13,0.04,0.63,1.85,-0.27,-1.23,
0.419,0.13,0.04,0.63,1.46,-0.31,-2.01,
0.421,0.10,0.03,0.61,1.46,-0.31,-2.01,
0.424,0.07,0.03,0.58,1.46,-0.31,-2.01,
0.424,0.07,0.03,0.58,0.96,-0.36,-2.78,
0.425,0.06,0.03,0.55,0.96,-0.36,-2.78,
0.428,0.04,0.03,0.53,0.96,-0.36,-2.78,
0.428,0.04,0.03,0.53,0.39,-0.46,-3.29,
0.43,0.03,0.02,0.52,0.39,-0.46,-3.29,
0.434,0.02,0.02,0.50,0.39,-0.46,-3.29,
0.434,0.02,0.02,0.50,0.01,-0.51,-3.75,
0.435,0.02,0.01,0.48,0.01,-0.51,-3.75,
0.439,0.01,-0.00,0.47,0.01,-0.51,-3.75,
0.439,0.01,-0.00,0.47,-0.22,-0.64,-4.06,
0.44,-0.00,-0.02,0.46,-0.22,-0.64,-4.06,
0.443,-0.01,-0.03,0.45,-0.22,-0.64,-4.06,
0.443,-0.01,-0.03,0.45,-0.40,-0.85,-4.36,
0.445,-0.00,-0.06,0.45,-0.40,-0.85,-4.36,
0.448,0.01,-0.08,0.46,-0.40,-0.85,-4.36,
0.45,0.01,-0.08,0.46,-0.60,-1.16,-4.53,
0.451,0.03,-0.10,0.47,-0.60,-1.16,-4.53,
0.453,0.04,-0.11,0.50,-0.60,-1.16,-4.53,
0.453,0.04,-0.11,0.50,-0.51,-1.56,-4.49,
0.455,0.06,-0.13,0.53,-0.51,-1.56,-4.49,
0.457,0.08,-0.14,0.56,-0.51,-1.56,-4.49,
0.458,0.08,-0.14,0.56,-0.26,-1.90,-4.15,
0.46,0.09,-0.14,0.61,-0.26,-1.90,-4.15,
0.463,0.11,-0.14,0.67,-0.26,-1.90,-4.15,
0.464,0.11,-0.14,0.67,0.01,-2.12,-3.58,
0.471,0.12,-0.13,0.72,0.01,-2.12,-3.58,
0.472,0.14,-0.12,0.79,0.01,-2.12,-3.58,
0.472,0.14,-0.12,0.79,0.24,-2.14,-2.64,
0.472,0.16,-0.11,0.85,0.24,-2.14,-2.64,
0.473,0.17,-0.10,0.93,0.24,-2.14,-2.64,
0.473,0.17,-0.10,0.93,0.52,-1.96,-1.49,
0.475,0.18,-0.09,0.99,0.52,-1.96,-1.49,
0.477,0.18,-0.09,1.04,0.52,-1.96,-1.49,
0.478,0.18,-0.09,1.04,0.80,-1.68,-0.18,
0.48,0.19,-0.10,1.08,0.80,-1.68,-0.18,
0.483,0.20,-0.11,1.13,0.80,-1.68,-0.18,
0.484,0.20,-0.11,1.13,0.89,-1.49,1.03,
0.486,0.21,-0.13,1.17,0.89,-1.49,1.03,
0.487,0.23,-0.14,1.20,0.89,-1.49,1.03,
0.488,0.23,-0.14,1.20,0.97,-1.53,1.92,
0.49,0.24,-0.15,1.24,0.97,-1.53,1.92,
0.492,0.26,-0.15,1.26,0.97,-1.53,1.92,
0.493,0.26,-0.15,1.26,1.18,-1.74,2.70,
0.495,0.29,-0.16,1.28,1.18,-1.74,2.70,
0.497,0.30,-0.16,1.31,1.18,-1.74,2.70,
0.498,0.30,-0.16,1.31,1.45,-1.87,3.33,
0.503,0.31,-0.16,1.32,1.45,-1.87,3.33,
0.504,0.32,-0.15,1.33,1.45,-1.87,3.33,
0.504,0.32,-0.15,1.33,1.77,-1.89,3.73,
0.505,0.33,-0.15,1.34,1.77,-1.89,3.73,
0.508,0.34,-0.15,1.34,1.77,-1.89,3.73,
0.509,0.34,-0.15,1.34,1.94,-1.81,4.01,
0.51,0.34,-0.14,1.34,1.94,-1.81,4.01,
0.513,0.34,-0.14,1.34,1.94,-1.81,4.01,
0.513,0.34,-0.14,1.34,2.10,-1.77,4.12,
0.52,0.33,-0.14,1.35,2.10,-1.77,4.12,
0.52,0.31,-0.13,1.34,2.10,-1.77,4.12,
0.52,0.31,-0.13,1.34,2.17,-1.66,4.16,
0.521,0.27,-0.13,1.33,2.17,-1.66,4.16,
0.523,0.23,-0.14,1.32,2.17,-1.66,4.16,
0.523,0.23,-0.14,1.32,1.96,-1.56,4.13,
0.525,0.19,-0.14,1.30,1.96,-1.56,4.13,
0.528,0.16,-0.15,1.27,1.96,-1.56,4.13,
0.528,0.16,-0.15,1.27,1.29,-1.61,3.91,
0.529,0.13,-0.15,1.24,1.29,-1.61,3.91,
0.532,0.11,-0.15,1.21,1.29,-1.61,3.91,
0.533,0.11,-0.15,1.21,0.54,-1.70,3.51,
0.534,0.11,-0.15,1.19,0.54,-1.70,3.51,
0.538,0.10,-0.14,1.16,0.54,-1.70,3.51,
0.538,0.10,-0.14,1.16,0.04,-1.81,2.94,
0.54,0.11,-0.13,1.12,0.04,-1.81,2.94,
0.543,0.12,-0.12,1.10,0.04,-1.81,2.94,
0.543,0.12,-0.12,1.10,-0.06,-1.75,2.42,
0.545,0.13,-0.10,1.09,-0.06,-1.75,2.42,
0.548,0.13,-0.09,1.06,-0.06,-1.75,2.42,
0.548,0.13,-0.09,1.06,0.03,-1.59,1.82,
0.554,0.14,-0.09,1.04,0.03,-1.59,1.82,
0.555,0.14,-0.08,1.02,0.03,-1.59,1.82,
0.555,0.14,-0.08,1.02,0.25,-1.37,1.45,
0.555,0.14,-0.09,1.00,0.25,-1.37,1.45,
0.557,0.14,-0.09,0.98,0.25,-1.37,1.45,
0.557,0.14,-0.09,0.98,0.38,-1.28,0.99,
0.559,0.15,-0.09,0.97,0.38,-1.28,0.99,
0.562,0.16,-0.09,0.96,0.38,-1.28,0.99,
0.563,0.16,-0.09,0.96,0.45,-1.33,0.59,
0.565,0.16,-0.08,0.95,0.45,-1.33,0.59,
0.568,0.17,-0.07,0.96,0.45,-1.33,0.59,
0.569,0.17,-0.07,0.96,0.65,-1.33,0.30,
0.569,0.17,-0.06,0.97,0.65,-1.33,0.30,
0.572,0.17,-0.06,0.99,0.65,-1.33,0.30,
0.572,0.17,-0.06,0.99,0.78,-1.23,0.25,
0.575,0.16,-0.05,1.00,0.78,-1.23,0.25,
0.577,0.14,-0.05,1.02,0.78,-1.23,0.25,
0.577,0.14,-0.05,1.02,0.85,-1.08,0.47,
0.579,0.12,-0.05,1.04,0.85,-1.08,0.47,
0.582,0.10,-0.05,1.05,0.85,-1.08,0.47,
0.582,0.10,-0.05,1.05,0.67,-0.99,0.79,
0.585,0.09,-0.05,1.07,0.67,-0.99,0.79,
0.587,0.07,-0.05,1.08,0.67,-0.99,0.79,
0.587,0.07,-0.05,1.08,0.32,-0.94,1.08,
0.589,0.06,-0.05,1.09,0.32,-0.94,1.08,
0.592,0.06,-0.05,1.09,-0.01,-0.91,1.35,
0.592,0.05,-0.05,1.10,-0.01,-0.91,1.35,
0.594,0.04,-0.05,1.11,-0.01,-0.91,1.35,
0.597,0.03,-0.06,1.13,-0.01,-0.91,1.35,
0.597,0.03,-0.06,1.13,-0.27,-0.86,1.58,
0.6,0.02,-0.06,1.14,-0.27,-0.86,1.58,
0.602,0.02,-0.06,1.14,-0.45,-0.88,1.80,
0.602,0.00,-0.06,1.14,-0.45,-0.88,1.80,
0.604,-0.01,-0.06,1.15,-0.45,-0.88,1.80,
0.607,-0.01,-0.06,1.15,-0.45,-0.88,1.80,
0.607,-0.01,-0.06,1.15,-0.74,-0.94,2.01,
0.609,-0.02,-0.07,1.15,-0.74,-0.94,2.01,
0.612,-0.02,-0.07,1.15,-0.74,-0.94,2.01,
0.612,-0.02,-0.07,1.15,-0.96,-0.92,2.10,
0.615,-0.00,-0.07,1.15,-0.96,-0.92,2.10,
0.618,0.01,-0.07,1.15,-0.96,-0.92,2.10,
0.619,0.01,-0.07,1.15,-1.06,-0.93,2.11,
0.619,0.04,-0.07,1.14,-1.06,-0.93,2.11,
0.621,0.06,-0.08,1.14,-1.06,-0.93,2.11,
0.622,0.06,-0.08,1.14,-0.87,-0.96,2.07,
0.624,0.08,-0.08,1.13,-0.87,-0.96,2.07,
0.627,0.08,-0.08,1.13,-0.44,-0.98,1.99,
0.627,0.11,-0.08,1.12,-0.44,-0.98,1.99,
0.629,0.13,-0.09,1.10,-0.44,-0.98,1.99,
0.632,0.15,-0.09,1.08,-0.44,-0.98,1.99,
0.632,0.15,-0.09,1.08,-0.01,-1.03,1.85,
0.634,0.17,-0.08,1.07,-0.01,-1.03,1.85,
0.636,0.19,-0.08,1.05,-0.01,-1.03,1.85,
0.637,0.19,-0.08,1.05,0.38,-1.07,1.48,
0.639,0.21,-0.08,1.04,0.38,-1.07,1.48,
0.641,0.23,-0.08,1.03,0.38,-1.07,1.48,
0.641,0.23,-0.08,1.03,0.81,-1.00,1.17,
0.643,0.25,-0.08,1.02,0.81,-1.00,1.17,
0.647,0.25,-0.09,1.01,0.81,-1.00,1.17,
0.647,0.25,-0.09,1.01,1.24,-0.98,0.91,
0.648,0.25,-0.09,1.00,1.24,-0.98,0.91,
0.652,0.25,-0.10,1.00,1.24,-0.98,0.91,
0.652,0.25,-0.10,1.00,1.50,-0.99,0.70,
0.653,0.24,-0.11,1.00,1.50,-0.99,0.70,
0.656,0.24,-0.12,1.00,1.50,-0.99,0.70,
0.658,0.24,-0.12,1.00,1.52,-1.14,0.61,
0.658,0.23,-0.12,1.00,1.52,-1.14,0.61,
0.661,0.23,-0.12,1.00,1.52,-1.14,0.61,
0.661,0.23,-0.12,1.00,1.41,-1.30,0.59,
0.663,0.21,-0.13,1.00,1.41,-1.30,0.59,
0.672,0.20,-0.13,1.01,1.41,-1.30,0.59,
0.672,0.20,-0.13,1.01,1.30,-1.33,0.53,
0.673,0.19,-0.13,1.00,1.30,-1.33,0.53,
0.673,0.17,-0.13,1.00,1.30,-1.33,0.53,
0.674,0.17,-0.13,1.00,1.08,-1.40,0.60,
0.674,0.16,-0.12,0.99,1.08,-1.40,0.60,
0.675,0.14,-0.12,0.99,1.08,-1.40,0.60,
0.676,0.14,-0.12,0.99,0.84,-1.36,0.55,
0.678,0.12,-0.12,0.99,0.84,-1.36,0.55,
0.681,0.10,-0.12,0.98,0.84,-1.36,0.55,
0.682,0.10,-0.12,0.98,0.48,-1.30,0.47,
0.684,0.08,-0.11,0.97,0.48,-1.30,0.47,
0.686,0.06,-0.11,0.98,0.48,-1.30,0.47,
0.686,0.06,-0.11,0.98,0.09,-1.22,0.40,
0.688,0.05,-0.11,0.98,0.09,-1.22,0.40,
0.691,0.04,-0.11,0.99,0.09,-1.22,0.40,
0.691,0.04,-0.11,0.99,-0.26,-1.13,0.34,
0.693,0.03,-0.10,1.01,-0.26,-1.13,0.34,
0.695,0.01,-0.10,1.03,-0.26,-1.13,0.34,
0.695,0.01,-0.10,1.03,-0.49,-1.05,0.46,
0.698,-0.01,-0.11,1.06,-0.49,-1.05,0.46,
0.702,-0.01,-0.11,1.09,-0.49,-1.05,0.46,
0.703,-0.01,-0.11,1.09,-0.72,-0.96,0.78,
0.703,-0.02,-0.10,1.12,-0.72,-0.96,0.78,
0.705,-0.03,-0.10,1.16,-0.72,-0.96,0.78,
0.705,-0.03,-0.10,1.16,-1.01,-1.00,1.32,
0.708,-0.04,-0.10,1.19,-1.01,-1.00,1.32,
0.711,-0.04,-0.10,1.22,-1.01,-1.00,1.32,
0.711,-0.04,-0.10,1.22,-1.17,-0.91,1.96,
0.713,-0.03,-0.10,1.26,-1.17,-0.91,1.96,
0.716,-0.03,-0.10,1.29,-1.17,-0.91,1.96,
0.716,-0.03,-0.10,1.29,-1.25,-0.85,2.55,
0.719,-0.04,-0.11,1.32,-1.25,-0.85,2.55,
0.72,-0.05,-0.11,1.35,-1.25,-0.85,2.55,
0.72,-0.05,-0.11,1.35,-1.14,-0.81,3.18,
0.723,-0.06,-0.12,1.37,-1.14,-0.81,3.18,
0.725,-0.06,-0.12,1.37,-1.22,-0.85,3.80,
0.726,-0.07,-0.13,1.39,-1.22,-0.85,3.80,
0.727,-0.07,-0.13,1.40,-1.22,-0.85,3.80,
0.73,-0.07,-0.14,1.41,-1.22,-0.85,3.80,
0.73,-0.07,-0.14,1.41,-1.37,-0.93,4.24,
0.732,-0.07,-0.14,1.42,-1.37,-0.93,4.24,
0.74,-0.07,-0.15,1.43,-1.37,-0.93,4.24,
0.741,-0.07,-0.15,1.43,-1.41,-0.99,4.47,
0.741,-0.07,-0.15,1.43,-1.41,-0.99,4.47,
0.741,-0.08,-0.15,1.44,-1.41,-0.99,4.47,
0.741,-0.08,-0.15,1.44,-1.38,-1.06,4.61,
0.742,-0.09,-0.16,1.43,-1.38,-1.06,4.61,
0.745,-0.11,-0.16,1.42,-1.38,-1.06,4.61,
0.745,-0.11,-0.16,1.42,-1.40,-1.09,4.69,
0.747,-0.12,-0.15,1.41,-1.40,-1.09,4.69,
0.75,-0.12,-0.15,1.41,-1.61,-1.14,4.55,
0.75,-0.13,-0.15,1.40,-1.61,-1.14,4.55,
0.752,-0.14,-0.14,1.39,-1.61,-1.14,4.55,
0.757,-0.14,-0.13,1.37,-1.61,-1.14,4.55,
0.757,-0.14,-0.13,1.37,-1.84,-1.07,4.34,
0.757,-0.14,-0.13,1.36,-1.84,-1.07,4.34,
0.76,-0.14,-0.12,1.35,-1.84,-1.07,4.34,
0.76,-0.14,-0.12,1.35,-1.95,-0.92,4.09,
0.763,-0.14,-0.12,1.34,-1.95,-0.92,4.09,
0.765,-0.14,-0.12,1.33,-1.95,-0.92,4.09,
0.765,-0.14,-0.12,1.33,-1.93,-0.77,3.83,
0.767,-0.15,-0.12,1.32,-1.93,-0.77,3.83,
0.77,-0.15,-0.11,1.32,-1.93,-0.77,3.83,
0.77,-0.15,-0.11,1.32,-1.90,-0.70,3.60,
0.772,-0.15,-0.11,1.31,-1.90,-0.70,3.60,
0.775,-0.15,-0.11,1.31,-1.98,-0.63,3.44,
0.775,-0.15,-0.11,1.30,-1.98,-0.63,3.44,
0.778,-0.16,-0.11,1.30,-1.98,-0.63,3.44,
0.78,-0.16,-0.12,1.31,-1.98,-0.63,3.44,
0.78,-0.16,-0.12,1.31,-2.02,-0.59,3.32,
0.783,-0.16,-0.12,1.32,-2.02,-0.59,3.32,
0.79,-0.16,-0.12,1.32,-2.02,-0.59,3.32,
0.79,-0.16,-0.12,1.32,-2.07,-0.57,3.33,
0.79,-0.16,-0.11,1.34,-2.07,-0.57,3.33,
0.791,-0.15,-0.11,1.35,-2.07,-0.57,3.33,
0.791,-0.15,-0.11,1.35,-2.06,-0.56,3.46,
0.792,-0.15,-0.11,1.37,-2.06,-0.56,3.46,
0.795,-0.15,-0.10,1.39,-2.06,-0.56,3.46,
0.795,-0.15,-0.10,1.39,-1.99,-0.48,3.69,
0.797,-0.15,-0.10,1.40,-1.99,-0.48,3.69,
0.799,-0.16,-0.11,1.42,-1.99,-0.48,3.69,
0.8,-0.16,-0.11,1.42,-1.91,-0.38,3.98,
0.802,-0.16,-0.11,1.44,-1.91,-0.38,3.98,
0.804,-0.16,-0.11,1.47,-1.91,-0.38,3.98,
0.805,-0.16,-0.11,1.47,-1.94,-0.35,4.34,
0.807,-0.16,-0.12,1.49,-1.94,-0.35,4.34,
0.809,-0.16,-0.13,1.51,-1.94,-0.35,4.34,
0.81,-0.16,-0.13,1.51,-1.97,-0.35,4.72,
0.812,-0.17,-0.13,1.53,-1.97,-0.35,4.72,
0.815,-0.17,-0.14,1.55,-1.97,-0.35,4.72,
0.815,-0.17,-0.14,1.55,-1.97,-0.42,5.15,
0.817,-0.17,-0.14,1.57,-1.97,-0.42,5.15,
0.819,-0.18,-0.14,1.59,-1.97,-0.42,5.15,
0.82,-0.18,-0.14,1.59,-1.99,-0.49,5.49,
0.824,-0.17,-0.14,1.60,-1.99,-0.49,5.49,
0.824,-0.17,-0.13,1.61,-1.99,-0.49,5.49,
0.825,-0.17,-0.13,1.61,-2.03,-0.49,5.85,
0.827,-0.17,-0.13,1.63,-2.03,-0.49,5.85,
0.829,-0.16,-0.12,1.63,-2.03,-0.49,5.85,
0.83,-0.16,-0.12,1.63,-1.99,-0.40,6.13,
0.831,-0.15,-0.12,1.63,-1.99,-0.40,6.13,
0.838,-0.15,-0.11,1.64,-1.99,-0.40,6.13,
0.839,-0.15,-0.11,1.64,-1.88,-0.25,6.33,
0.839,-0.15,-0.11,1.65,-1.88,-0.25,6.33,
0.839,-0.14,-0.12,1.65,-1.88,-0.25,6.33,
0.839,-0.14,-0.12,1.65,-1.74,-0.12,6.42,
0.842,-0.14,-0.11,1.65,-1.74,-0.12,6.42,
0.844,-0.13,-0.11,1.66,-1.74,-0.12,6.42,
0.844,-0.13,-0.11,1.66,-1.72,-0.09,6.49,
0.847,-0.13,-0.11,1.67,-1.72,-0.09,6.49,
0.849,-0.12,-0.11,1.67,-1.72,-0.09,6.49,
0.849,-0.12,-0.11,1.67,-1.64,-0.03,6.56,
0.852,-0.12,-0.11,1.67,-1.64,-0.03,6.56,
0.854,-0.12,-0.10,1.67,-1.64,-0.03,6.56,
0.854,-0.12,-0.10,1.67,-1.55,0.03,6.65,
0.856,-0.11,-0.10,1.65,-1.55,0.03,6.65,
0.859,-0.11,-0.10,1.64,-1.55,0.03,6.65,
0.859,-0.11,-0.10,1.64,-1.52,0.11,6.62,
0.861,-0.12,-0.08,1.64,-1.52,0.11,6.62,
0.864,-0.12,-0.08,1.63,-1.52,0.11,6.62,
0.864,-0.12,-0.08,1.63,-1.47,0.17,6.42,
0.866,-0.13,-0.07,1.61,-1.47,0.17,6.42,
0.871,-0.13,-0.07,1.59,-1.47,0.17,6.42,
0.872,-0.13,-0.07,1.59,-1.54,0.37,6.22,
0.872,-0.13,-0.06,1.58,-1.54,0.37,6.22,
0.874,-0.13,-0.05,1.56,-1.54,0.37,6.22,
0.874,-0.13,-0.05,1.56,-1.60,0.48,5.91,
0.876,-0.13,-0.05,1.54,-1.60,0.48,5.91,
0.879,-0.14,-0.05,1.52,-1.60,0.48,5.91,
0.879,-0.14,-0.05,1.52,-1.64,0.66,5.58,
0.881,-0.15,-0.05,1.51,-1.64,0.66,5.58,
0.884,-0.15,-0.04,1.49,-1.64,0.66,5.58,
0.884,-0.15,-0.04,1.49,-1.73,0.69,5.18,
0.886,-0.16,-0.04,1.48,-1.73,0.69,5.18,
0.889,-0.17,-0.04,1.45,-1.73,0.69,5.18,
0.889,-0.17,-0.04,1.45,-1.84,0.74,4.88,
0.891,-0.18,-0.03,1.43,-1.84,0.74,4.88,
0.894,-0.19,-0.02,1.41,-1.84,0.74,4.88,
0.894,-0.19,-0.02,1.41,-2.01,0.82,4.51,
0.896,-0.20,-0.02,1.39,-2.01,0.82,4.51,
0.899,-0.20,-0.01,1.37,-2.01,0.82,4.51,
0.899,-0.20,-0.01,1.37,-2.13,0.93,4.08,
0.901,-0.21,-0.01,1.35,-2.13,0.93,4.08,
0.907,-0.22,-0.01,1.34,-2.13,0.93,4.08,
0.907,-0.22,-0.01,1.34,-2.30,1.02,3.65,
0.908,-0.22,-0.00,1.32,-2.30,1.02,3.65,
0.908,-0.23,0.01,1.30,-2.30,1.02,3.65,
0.909,-0.23,0.01,1.30,-2.43,1.09,3.33,
0.911,-0.23,0.02,1.29,-2.43,1.09,3.33,
0.913,-0.23,0.02,1.28,-2.43,1.09,3.33,
0.914,-0.23,0.02,1.28,-2.54,1.21,2.99,
0.917,-0.23,0.03,1.27,-2.54,1.21,2.99,
0.92,-0.23,0.03,1.27,-2.54,1.21,2.99,
0.92,-0.23,0.03,1.27,-2.58,1.36,2.69,
0.921,-0.23,0.03,1.27,-2.58,1.36,2.69,
0.923,-0.23,0.03,1.27,-2.60,1.43,2.52,
0.924,-0.23,0.03,1.26,-2.60,1.43,2.52,
0.926,-0.22,0.03,1.25,-2.60,1.43,2.52,
0.929,-0.21,0.03,1.25,-2.60,1.43,2.52,
0.929,-0.21,0.03,1.25,-2.59,1.44,2.45,
0.931,-0.21,0.02,1.24,-2.59,1.44,2.45,
0.933,-0.20,0.01,1.25,-2.59,1.44,2.45,
0.934,-0.20,0.01,1.25,-2.49,1.46,2.32,
0.936,-0.19,0.00,1.25,-2.49,1.46,2.32,
0.938,-0.17,-0.00,1.25,-2.49,1.46,2.32,
0.938,-0.17,-0.00,1.25,-2.33,1.33,2.29,
0.941,-0.16,-0.01,1.25,-2.33,1.33,2.29,
0.943,-0.15,-0.01,1.25,-2.33,1.33,2.29,
0.944,-0.15,-0.01,1.25,-2.16,1.20,2.37,
0.946,-0.14,-0.01,1.23,-2.16,1.20,2.37,
0.948,-0.14,-0.01,1.23,-1.98,1.11,2.32,
0.949,-0.14,-0.01,1.23,-1.98,1.11,2.32,
0.951,-0.13,-0.01,1.21,-1.98,1.11,2.32,
0.953,-0.13,-0.01,1.20,-1.98,1.11,2.32,
0.954,-0.13,-0.01,1.20,-1.86,1.17,2.14,
0.956,-0.12,-0.01,1.20,-1.86,1.17,2.14,
0.959,-0.11,-0.01,1.19,-1.86,1.17,2.14,
0.959,-0.11,-0.01,1.19,-1.77,1.14,1.90,
0.961,-0.10,-0.01,1.18,-1.77,1.14,1.90,
0.963,-0.09,-0.01,1.18,-1.77,1.14,1.90,
0.963,-0.09,-0.01,1.18,-1.64,1.16,1.78,
0.966,-0.08,-0.01,1.18,-1.64,1.16,1.78,
0.97,-0.07,-0.01,1.18,-1.64,1.16,1.78,
0.971,-0.07,-0.01,1.18,-1.49,1.18,1.63,
0.971,-0.07,-0.00,1.17,-1.49,1.18,1.63,
0.973,-0.07,-0.00,1.17,-1.33,1.24,1.60,
0.973,-0.06,-0.00,1.16,-1.33,1.24,1.60,
0.976,-0.06,0.00,1.15,-1.33,1.24,1.60,
0.978,-0.05,0.00,1.15,-1.33,1.24,1.60,
0.979,-0.05,0.00,1.15,-1.22,1.34,1.53,
0.98,-0.04,0.00,1.15,-1.22,1.34,1.53,
0.982,-0.04,-0.01,1.15,-1.22,1.34,1.53,
0.983,-0.04,-0.01,1.15,-1.15,1.40,1.38,
0.986,-0.03,-0.01,1.15,-1.15,1.40,1.38,
0.988,-0.03,-0.00,1.14,-1.15,1.40,1.38,
0.989,-0.03,-0.00,1.14,-1.06,1.38,1.36,
0.99,-0.03,-0.01,1.13,-1.06,1.38,1.36,
0.992,-0.03,-0.01,1.14,-1.06,1.38,1.36,
0.993,-0.03,-0.01,1.14,-0.98,1.39,1.29,
0.995,-0.03,-0.01,1.16,-0.98,1.39,1.29,
0.997,-0.04,-0.01,1.17,-0.98,1.39,1.29,
0.997,-0.04,-0.01,1.17,-1.00,1.37,1.22,
1.0,-0.04,-0.00,1.18,-1.00,1.37,1.22,
1.006,-0.05,-0.00,1.18,-1.00,1.37,1.22,
1.007,-0.05,-0.00,1.18,-1.03,1.39,1.51,
1.007,-0.06,-0.01,1.19,-1.03,1.39,1.51,
1.008,-0.07,-0.01,1.20,-1.03,1.39,1.51,
1.008,-0.07,-0.01,1.20,-1.16,1.44,1.66,
1.01,-0.08,-0.02,1.21,-1.16,1.44,1.66,
1.013,-0.08,-0.03,1.23,-1.16,1.44,1.66,
1.013,-0.08,-0.03,1.23,-1.38,1.40,1.78,
1.015,-0.08,-0.03,1.24,-1.38,1.40,1.78,
1.017,-0.09,-0.04,1.25,-1.38,1.40,1.78,
1.017,-0.09,-0.04,1.25,-1.49,1.28,2.02,
1.019,-0.09,-0.05,1.27,-1.49,1.28,2.02,
1.022,-0.09,-0.07,1.28,-1.49,1.28,2.02,
1.022,-0.09,-0.07,1.28,-1.58,1.16,2.29,
1.024,-0.08,-0.07,1.29,-1.58,1.16,2.29,
1.027,-0.07,-0.08,1.31,-1.58,1.16,2.29,
1.028,-0.07,-0.08,1.31,-1.61,0.96,2.55,
1.029,-0.06,-0.08,1.32,-1.61,0.96,2.55,
1.032,-0.06,-0.08,1.32,-1.52,0.81,2.83,
1.032,-0.04,-0.09,1.32,-1.52,0.81,2.83,
1.036,-0.03,-0.09,1.32,-1.52,0.81,2.83,
1.038,-0.01,-0.09,1.32,-1.52,0.81,2.83,
1.038,-0.01,-0.09,1.32,-1.30,0.74,3.00,
1.039,0.00,-0.09,1.31,-1.30,0.74,3.00,
1.042,0.01,-0.09,1.31,-1.30,0.74,3.00,
1.042,0.01,-0.09,1.31,-1.01,0.69,2.99,
1.044,0.03,-0.10,1.30,-1.01,0.69,2.99,
1.047,0.03,-0.10,1.30,-0.76,0.65,2.90,
1.047,0.04,-0.10,1.29,-0.76,0.65,2.90,
1.049,0.05,-0.11,1.28,-0.76,0.65,2.90,
1.053,0.05,-0.11,1.26,-0.76,0.65,2.90,
1.054,0.05,-0.11,1.26,-0.53,0.57,2.72,
1.054,0.05,-0.12,1.25,-0.53,0.57,2.72,
1.057,0.04,-0.11,1.23,-0.53,0.57,2.72,
1.057,0.04,-0.11,1.23,-0.40,0.44,2.48,
1.059,0.04,-0.11,1.20,-0.40,0.44,2.48,
1.061,0.04,-0.10,1.18,-0.40,0.44,2.48,
1.062,0.04,-0.10,1.18,-0.44,0.39,2.13,
1.064,0.03,-0.10,1.15,-0.44,0.39,2.13,
1.066,0.03,-0.09,1.14,-0.44,0.39,2.13,
1.067,0.03,-0.09,1.14,-0.49,0.48,1.67,
1.069,0.03,-0.08,1.11,-0.49,0.48,1.67,
1.071,0.03,-0.07,1.09,-0.49,0.48,1.67,
1.072,0.03,-0.07,1.09,-0.65,0.56,1.22,
1.074,0.03,-0.06,1.07,-0.65,0.56,1.22,
1.076,0.03,-0.06,1.05,-0.65,0.56,1.22,
1.077,0.03,-0.06,1.05,-0.66,0.69,0.74,
1.079,0.02,-0.05,1.05,-0.66,0.69,0.74,
1.081,0.02,-0.05,1.02,-0.66,0.69,0.74,
1.081,0.02,-0.05,1.02,-0.65,0.81,0.41,
1.084,0.01,-0.04,1.00,-0.65,0.81,0.41,
1.087,0.00,-0.04,0.98,-0.65,0.81,0.41,
1.087,0.00,-0.04,0.98,-0.74,0.85,0.12,
1.089,-0.01,-0.04,0.96,-0.74,0.85,0.12,
1.091,-0.01,-0.04,0.96,-0.88,0.88,-0.30,
1.092,-0.00,-0.04,0.94,-0.88,0.88,-0.30,
1.094,-0.01,-0.04,0.92,-0.88,0.88,-0.30,
1.096,-0.01,-0.04,0.92,-1.00,0.87,-0.73,
1.096,-0.02,-0.04,0.91,-1.00,0.87,-0.73,
1.099,-0.02,-0.04,0.91,-1.00,0.87,-0.73,
1.101,-0.04,-0.05,0.91,-1.00,0.87,-0.73,
1.107,-0.04,-0.05,0.91,-1.07,0.85,-1.03,
1.107,-0.05,-0.06,0.90,-1.07,0.85,-1.03,
1.108,-0.05,-0.05,0.91,-1.07,0.85,-1.03,
1.108,-0.05,-0.05,0.91,-1.26,0.74,-1.12,
1.11,-0.05,-0.04,0.92,-1.26,0.74,-1.12,
1.111,-0.03,-0.05,0.93,-1.26,0.74,-1.12,
1.112,-0.03,-0.05,0.93,-1.42,0.64,-1.10,
1.113,-0.02,-0.04,0.95,-1.42,0.64,-1.10,
1.116,-0.01,-0.04,0.96,-1.42,0.64,-1.10,
1.116,-0.01,-0.04,0.96,-1.35,0.68,-0.92,
1.121,0.00,-0.04,0.97,-1.35,0.68,-0.92,
1.122,0.00,-0.04,0.97,-1.13,0.70,-0.67,
1.122,0.02,-0.05,0.98,-1.13,0.70,-0.67,
1.124,0.03,-0.05,0.99,-1.13,0.70,-0.67,
1.127,0.04,-0.06,1.01,-1.13,0.70,-0.67,
1.127,0.04,-0.06,1.01,-0.89,0.67,-0.44,
1.129,0.04,-0.07,1.01,-0.89,0.67,-0.44,
1.131,0.05,-0.08,1.02,-0.89,0.67,-0.44,
1.131,0.05,-0.08,1.02,-0.71,0.56,-0.22,
1.133,0.06,-0.08,1.03,-0.71,0.56,-0.22,
1.137,0.06,-0.08,1.03,-0.71,0.56,-0.22,
1.137,0.06,-0.08,1.03,-0.63,0.34,-0.03,
1.138,0.07,-0.08,1.03,-0.63,0.34,-0.03,
1.141,0.07,-0.08,1.04,-0.63,0.34,-0.03,
1.141,0.07,-0.08,1.04,-0.48,0.29,0.08,
1.143,0.07,-0.07,1.05,-0.48,0.29,0.08,
1.146,0.07,-0.07,1.05,-0.46,0.27,0.16,
1.146,0.07,-0.06,1.04,-0.46,0.27,0.16,
1.148,0.07,-0.05,1.05,-0.46,0.27,0.16,
1.151,0.07,-0.04,1.05,-0.46,0.27,0.16,
1.153,0.07,-0.04,1.05,-0.47,0.40,0.23,
1.154,0.06,-0.03,1.05,-0.47,0.40,0.23,
1.156,0.06,-0.03,1.04,-0.47,0.40,0.23,
1.157,0.06,-0.03,1.04,-0.48,0.54,0.27,
1.158,0.05,-0.02,1.04,-0.48,0.54,0.27,
1.161,0.05,-0.01,1.04,-0.48,0.54,0.27,
1.161,0.05,-0.01,1.04,-0.57,0.66,0.23,
1.163,0.04,-0.01,1.02,-0.57,0.66,0.23,
1.165,0.04,0.00,1.00,-0.57,0.66,0.23,
1.166,0.04,0.00,1.00,-0.68,0.76,0.17,
1.168,0.04,0.01,0.99,-0.68,0.76,0.17,
1.173,0.04,0.01,0.99,-0.71,0.88,-0.12,
1.174,0.04,0.03,0.97,-0.71,0.88,-0.12,
1.174,0.03,0.03,0.94,-0.71,0.88,-0.12,
1.176,0.02,0.03,0.93,-0.71,0.88,-0.12,
1.176,0.02,0.03,0.93,-0.74,1.05,-0.46,
1.179,0.01,0.03,0.91,-0.74,1.05,-0.46,
1.181,-0.00,0.03,0.89,-0.74,1.05,-0.46,
1.181,-0.00,0.03,0.89,-0.83,1.13,-0.85,
1.184,-0.01,0.03,0.88,-0.83,1.13,-0.85,
1.186,-0.01,0.03,0.86,-0.83,1.13,-0.85,
1.186,-0.01,0.03,0.86,-1.02,1.11,-1.18,
1.188,-0.01,0.03,0.86,-1.02,1.11,-1.18,
1.191,-0.01,0.02,0.86,-1.02,1.11,-1.18,
1.191,-0.01,0.02,0.86,-1.16,1.05,-1.51,
1.194,-0.00,0.02,0.85,-1.16,1.05,-1.51,
1.196,0.01,0.02,0.86,-1.16,1.05,-1.51,
1.196,0.01,0.02,0.86,-1.15,0.97,-1.59,
1.198,0.02,0.01,0.87,-1.15,0.97,-1.59,
1.201,0.04,0.01,0.89,-1.15,0.97,-1.59,
1.201,0.04,0.01,0.89,-0.98,0.90,-1.64,
1.208,0.05,0.01,0.90,-0.98,0.90,-1.64,
1.208,0.06,-0.00,0.93,-0.98,0.90,-1.64,
1.209,0.06,-0.00,0.93,-0.72,0.80,-1.40,
1.209,0.07,-0.01,0.95,-0.72,0.80,-1.40,
1.211,0.08,-0.01,0.98,-0.72,0.80,-1.40,
1.211,0.08,-0.01,0.98,-0.44,0.71,-1.05,
1.213,0.09,-0.01,1.00,-0.44,0.71,-1.05,
1.215,0.09,-0.02,1.03,-0.44,0.71,-1.05,
1.215,0.09,-0.02,1.03,-0.26,0.61,-0.56,
1.218,0.09,-0.03,1.05,-0.26,0.61,-0.56,
1.22,0.09,-0.04,1.07,-0.26,0.61,-0.56,
1.221,0.09,-0.04,1.07,-0.15,0.52,-0.08,
1.223,0.10,-0.03,1.09,-0.15,0.52,-0.08,
1.226,0.10,-0.04,1.10,-0.15,0.52,-0.08,
1.226,0.10,-0.04,1.10,-0.09,0.34,0.38,
1.228,0.10,-0.05,1.11,-0.09,0.34,0.38,
1.231,0.09,-0.07,1.12,-0.09,0.34,0.38,
1.231,0.09,-0.07,1.12,-0.03,0.36,0.74,
1.233,0.08,-0.08,1.13,-0.03,0.36,0.74,
1.236,0.08,-0.09,1.13,-0.03,0.36,0.74,
1.236,0.08,-0.09,1.13,-0.10,0.10,0.89,
1.238,0.07,-0.09,1.13,-0.10,0.10,0.89,
1.24,0.06,-0.09,1.12,-0.10,0.10,0.89,
1.24,0.06,-0.09,1.12,-0.23,-0.13,1.09,
1.243,0.06,-0.09,1.11,-0.23,-0.13,1.09,
1.245,0.05,-0.09,1.10,-0.23,-0.13,1.09,
1.247,0.05,-0.09,1.10,-0.38,-0.23,1.00,
1.247,0.05,-0.09,1.09,-0.38,-0.23,1.00,
1.25,0.06,-0.09,1.08,-0.38,-0.23,1.00,
1.251,0.06,-0.09,1.08,-0.46,-0.26,0.83,
1.254,0.05,-0.09,1.07,-0.46,-0.26,0.83,
1.255,0.05,-0.08,1.05,-0.46,-0.26,0.83,
1.255,0.05,-0.08,1.05,-0.48,-0.27,0.60,
1.258,0.05,-0.08,1.04,-0.48,-0.27,0.60,
1.259,0.04,-0.08,1.02,-0.48,-0.27,0.60,
1.26,0.04,-0.08,1.02,-0.48,-0.28,0.35,
1.263,0.04,-0.08,1.01,-0.48,-0.28,0.35,
1.265,0.03,-0.08,1.01,-0.48,-0.28,0.35,
1.266,0.03,-0.08,1.01,-0.54,-0.28,0.06,
1.268,0.03,-0.07,0.99,-0.54,-0.28,0.06,
1.269,0.02,-0.07,0.97,-0.54,-0.28,0.06,
1.27,0.02,-0.07,0.97,-0.63,-0.27,-0.15,
1.272,0.02,-0.06,0.96,-0.63,-0.27,-0.15,
1.274,0.02,-0.06,0.95,-0.63,-0.27,-0.15,
1.275,0.02,-0.06,0.95,-0.71,-0.21,-0.44,
1.278,0.01,-0.05,0.94,-0.71,-0.21,-0.44,
1.279,0.01,-0.05,0.94,-0.71,-0.21,-0.44,
1.28,0.01,-0.05,0.94,-0.74,-0.17,-0.68,
1.282,0.02,-0.04,0.94,-0.74,-0.17,-0.68,
1.285,0.01,-0.04,0.93,-0.74,-0.17,-0.68,
1.285,0.01,-0.04,0.93,-0.75,-0.17,-0.82,
1.288,0.00,-0.04,0.92,-0.75,-0.17,-0.82,
1.29,-0.01,-0.03,0.93,-0.75,-0.17,-0.82,
1.29,-0.01,-0.03,0.93,-0.70,-0.09,-0.92,
1.293,-0.02,-0.03,0.93,-0.70,-0.09,-0.92,
1.294,-0.02,-0.03,0.93,-0.81,-0.10,-1.01,
1.295,-0.03,-0.03,0.92,-0.81,-0.10,-1.01,
1.297,-0.04,-0.03,0.92,-0.81,-0.10,-1.01,
1.299,-0.04,-0.03,0.92,-0.81,-0.10,-1.01,
1.299,-0.04,-0.03,0.92,-1.01,-0.09,-1.01,
1.301,-0.04,-0.03,0.92,-1.01,-0.09,-1.01,
1.305,-0.04,-0.02,0.92,-1.01,-0.09,-1.01,
1.305,-0.04,-0.02,0.92,-1.14,-0.11,-1.07,
1.307,-0.03,-0.02,0.93,-1.14,-0.11,-1.07,
1.309,-0.03,-0.03,0.93,-1.14,-0.11,-1.07,
1.309,-0.03,-0.03,0.93,-1.10,-0.11,-1.05,
1.312,-0.03,-0.03,0.94,-1.10,-0.11,-1.05,
1.314,-0.02,-0.03,0.94,-1.10,-0.11,-1.05,
1.314,-0.02,-0.03,0.94,-0.98,-0.18,-0.95,
1.316,-0.02,-0.04,0.94,-0.98,-0.18,-0.95,
1.319,-0.02,-0.04,0.94,-0.87,-0.28,-0.85,
1.319,-0.01,-0.05,0.95,-0.87,-0.28,-0.85,
1.326,0.00,-0.06,0.95,-0.87,-0.28,-0.85,
1.326,0.01,-0.07,0.96,-0.87,-0.28,-0.85,
1.326,0.01,-0.07,0.96,-0.74,-0.41,-0.80,
1.327,0.02,-0.08,0.97,-0.74,-0.41,-0.80,
1.329,0.03,-0.08,0.97,-0.74,-0.41,-0.80,
1.329,0.03,-0.08,0.97,-0.50,-0.62,-0.68,
1.331,0.04,-0.09,0.96,-0.50,-0.62,-0.68,
1.335,0.02,-0.10,0.99,-0.50,-0.62,-0.68,
1.335,0.02,-0.10,0.99,-0.31,-0.84,-0.55,
1.338,-0.06,-0.11,1.06,-0.31,-0.84,-0.55,
1.339,-0.22,-0.13,1.23,-0.31,-0.84,-0.55,
1.34,-0.22,-0.13,1.23,-0.28,-1.00,-0.50,
1.341,-0.36,-0.11,1.42,-0.28,-1.00,-0.50,
1.344,-0.24,-0.06,1.41,-0.28,-1.00,-0.50,
1.344,-0.24,-0.06,1.41,-1.98,-1.31,1.17,
1.346,-0.04,-0.02,1.25,-1.98,-1.31,1.17,
1.349,0.07,-0.02,1.12,-1.98,-1.31,1.17,
1.35,0.07,-0.02,1.12,-3.53,-1.00,3.78,
1.351,0.11,-0.03,1.04,-3.53,-1.00,3.78,
1.355,0.09,-0.05,0.99,-3.53,-1.00,3.78,
1.356,0.09,-0.05,0.99,-0.42,-0.40,1.58,
1.356,0.05,-0.07,0.98,-0.42,-0.40,1.58,
1.359,0.05,-0.07,0.98,0.36,-0.65,-0.12,
1.359,0.01,-0.09,1.00,0.36,-0.65,-0.12,
1.361,-0.03,-0.10,1.04,0.36,-0.65,-0.12,
1.364,-0.05,-0.09,1.06,0.36,-0.65,-0.12,
1.364,-0.05,-0.09,1.06,-0.29,-1.07,-0.36,
1.366,-0.04,-0.07,1.05,-0.29,-1.07,-0.36,
1.368,-0.02,-0.04,1.02,-0.29,-1.07,-0.36,
1.369,-0.02,-0.04,1.02,-0.96,-1.28,0.23,
1.372,0.00,-0.02,0.98,-0.96,-1.28,0.23,
1.373,0.02,-0.01,0.93,-0.96,-1.28,0.23,
1.374,0.02,-0.01,0.93,-0.89,-0.94,0.06,
1.376,0.02,0.00,0.90,-0.89,-0.94,0.06,
1.378,0.03,0.01,0.87,-0.89,-0.94,0.06,
1.379,0.03,0.01,0.87,-0.46,-0.62,-0.68,
1.381,0.02,0.01,0.84,-0.46,-0.62,-0.68,
1.383,0.01,0.01,0.82,-0.46,-0.62,-0.68,
1.383,0.01,0.01,0.82,-0.25,-0.46,-1.39,
1.386,0.01,0.01,0.80,-0.25,-0.46,-1.39,
1.389,0.00,0.01,0.80,-0.25,-0.46,-1.39,
1.389,0.00,0.01,0.80,-0.35,-0.50,-1.88,
1.391,-0.00,0.01,0.79,-0.35,-0.50,-1.88,
1.393,0.00,0.01,0.79,-0.35,-0.50,-1.88,
1.393,0.00,0.01,0.79,-0.44,-0.50,-2.21,
1.396,-0.01,0.01,0.78,-0.44,-0.50,-2.21,
1.398,-0.01,0.01,0.78,-0.44,-0.50,-2.21,
1.398,-0.01,0.01,0.78,-0.46,-0.54,-2.29,
1.401,-0.01,0.02,0.78,-0.46,-0.54,-2.29,
1.409,-0.01,0.02,0.77,-0.46,-0.54,-2.29,
1.41,-0.01,0.02,0.77,-0.53,-0.62,-2.35,
1.41,-0.01,0.02,0.77,-0.53,-0.62,-2.35,
1.41,-0.02,0.02,0.77,-0.53,-0.62,-2.35,
1.41,-0.02,0.02,0.77,-0.50,-0.52,-2.44,
1.411,-0.02,0.01,0.79,-0.50,-0.52,-2.44,
1.414,-0.03,0.01,0.79,-0.50,-0.52,-2.44,
1.414,-0.03,0.01,0.79,-0.55,-0.59,-2.45,
1.416,-0.04,0.01,0.80,-0.55,-0.59,-2.45,
1.419,-0.04,0.00,0.81,-0.55,-0.59,-2.45,
1.419,-0.04,0.00,0.81,-0.66,-0.69,-2.27,
1.421,-0.05,0.00,0.81,-0.66,-0.69,-2.27,
1.423,-0.06,0.00,0.82,-0.66,-0.69,-2.27,
1.423,-0.06,0.00,0.82,-0.79,-0.74,-2.15,
1.426,-0.06,0.00,0.83,-0.79,-0.74,-2.15,
1.428,-0.06,0.00,0.83,-0.79,-0.74,-2.15,
1.428,-0.06,0.00,0.83,-0.89,-0.80,-1.99,
1.43,-0.06,0.01,0.84,-0.89,-0.80,-1.99,
1.433,-0.07,0.01,0.85,-0.89,-0.80,-1.99,
1.433,-0.07,0.01,0.85,-0.94,-0.82,-1.88,
1.435,-0.07,0.01,0.85,-0.94,-0.82,-1.88,
1.439,-0.07,0.01,0.85,-0.94,-0.82,-1.88,
1.439,-0.07,0.01,0.85,-0.97,-0.80,-1.72,
1.44,-0.07,0.02,0.86,-0.97,-0.80,-1.72,
1.443,-0.07,0.02,0.86,-1.00,-0.77,-1.62,
1.443,-0.07,0.03,0.87,-1.00,-0.77,-1.62,
1.445,-0.07,0.03,0.87,-1.00,-0.77,-1.62,
1.448,-0.07,0.03,0.87,-1.01,-0.67,-1.46,
1.448,-0.07,0.04,0.88,-1.01,-0.67,-1.46,
1.45,-0.06,0.04,0.88,-1.01,-0.67,-1.46,
1.452,-0.06,0.04,0.89,-1.01,-0.67,-1.46,
1.453,-0.06,0.04,0.89,-0.99,-0.55,-1.36,
1.455,-0.06,0.04,0.90,-0.99,-0.55,-1.36,
1.458,-0.04,0.04,0.91,-0.99,-0.55,-1.36,
1.458,-0.04,0.04,0.91,-0.91,-0.54,-1.25,
1.46,-0.04,0.04,0.93,-0.91,-0.54,-1.25,
1.463,-0.03,0.04,0.95,-0.91,-0.54,-1.25,
1.463,-0.03,0.04,0.95,-0.80,-0.53,-1.09,
1.465,-0.02,0.04,0.97,-0.80,-0.53,-1.09,
1.467,-0.01,0.03,0.98,-0.80,-0.53,-1.09,
1.468,-0.01,0.03,0.98,-0.68,-0.58,-0.74,
1.472,0.00,0.02,0.98,-0.68,-0.58,-0.74,
1.473,0.01,0.00,0.99,-0.68,-0.58,-0.74,
1.473,0.01,0.00,0.99,-0.44,-0.70,-0.39,
1.475,0.01,-0.01,0.99,-0.44,-0.70,-0.39,
1.477,0.01,-0.02,0.99,-0.44,-0.70,-0.39,
1.478,0.01,-0.02,0.99,-0.22,-0.94,-0.28,
1.48,0.02,-0.00,0.98,-0.22,-0.94,-0.28,
1.483,0.02,0.01,0.95,-0.22,-0.94,-0.28,
1.484,0.02,0.01,0.95,-0.14,-1.16,-0.24,
1.485,0.03,0.03,0.94,-0.14,-1.16,-0.24,
1.487,0.04,0.05,0.94,-0.14,-1.16,-0.24,
1.488,0.04,0.05,0.94,-0.03,-1.06,-0.49,
1.491,0.05,0.06,0.93,-0.03,-1.06,-0.49,
1.493,0.05,0.05,0.92,-0.03,-1.06,-0.49,
1.493,0.05,0.05,0.92,0.18,-0.71,-0.74,
1.496,0.04,0.04,0.91,0.18,-0.71,-0.74,
1.498,0.02,0.02,0.90,0.18,-0.71,-0.74,
1.498,0.02,0.02,0.90,0.26,-0.56,-0.89,
1.5,-0.00,0.00,0.89,0.26,-0.56,-0.89,
1.502,-0.02,-0.01,0.88,0.26,-0.56,-0.89,
1.502,-0.02,-0.01,0.88,0.12,-0.85,-1.07,
1.509,-0.05,-0.01,0.88,0.12,-0.85,-1.07,
1.51,-0.05,-0.01,0.87,0.12,-0.85,-1.07,
1.51,-0.05,-0.01,0.87,-0.29,-1.21,-1.22,
1.51,-0.05,0.01,0.87,-0.29,-1.21,-1.22,
1.512,-0.05,0.03,0.87,-0.29,-1.21,-1.22,
1.513,-0.05,0.03,0.87,-0.65,-1.30,-1.34,
1.515,-0.05,0.04,0.87,-0.65,-1.30,-1.34,
1.518,-0.05,0.04,0.87,-0.68,-1.02,-1.39,
1.518,-0.04,0.06,0.86,-0.68,-1.02,-1.39,
1.519,-0.03,0.07,0.86,-0.68,-1.02,-1.39,
1.522,-0.03,0.07,0.86,-0.68,-1.02,-1.39,
1.523,-0.03,0.07,0.86,-0.58,-0.71,-1.42,
1.525,-0.02,0.06,0.86,-0.58,-0.71,-1.42,
1.528,-0.01,0.05,0.86,-0.58,-0.71,-1.42,
1.528,-0.01,0.05,0.86,-0.46,-0.62,-1.46,
1.529,-0.01,0.05,0.86,-0.46,-0.62,-1.46,
1.532,-0.00,0.04,0.85,-0.46,-0.62,-1.46,
1.533,-0.00,0.04,0.85,-0.33,-0.75,-1.46,
1.535,-0.00,0.04,0.85,-0.33,-0.75,-1.46,
1.543,-0.00,0.04,0.84,-0.33,-0.75,-1.46,
1.543,-0.00,0.04,0.84,-0.22,-0.91,-1.53,
1.544,-0.00,0.04,0.83,-0.22,-0.91,-1.53,
1.544,-0.00,0.04,0.82,-0.22,-0.91,-1.53,
1.544,-0.00,0.04,0.82,-0.22,-0.95,-1.61,
1.544,0.00,0.04,0.82,-0.22,-0.95,-1.61,
1.547,0.01,0.04,0.80,-0.22,-0.95,-1.61,
1.547,0.01,0.04,0.80,-0.19,-0.98,-1.78,
1.55,0.02,0.03,0.79,-0.19,-0.98,-1.78,
1.552,0.02,0.03,0.79,-0.19,-0.98,-1.78,
1.553,0.02,0.03,0.79,-0.11,-1.02,-1.93,
1.556,0.03,0.02,0.78,-0.11,-1.02,-1.93,
1.557,0.04,0.03,0.78,-0.11,-1.02,-1.93,
1.557,0.04,0.03,0.78,0.02,-1.14,-2.10,
1.56,0.04,0.03,0.79,0.02,-1.14,-2.10,
1.562,0.04,0.04,0.79,0.02,-1.14,-2.10,
1.562,0.04,0.04,0.79,0.17,-1.18,-2.19,
1.565,0.04,0.04,0.80,0.17,-1.18,-2.19,
1.567,0.04,0.04,0.80,0.23,-1.13,-2.07,
1.567,0.03,0.04,0.81,0.23,-1.13,-2.07,
1.569,0.03,0.04,0.80,0.23,-1.13,-2.07,
1.572,0.03,0.04,0.80,0.23,-1.13,-2.07,
1.573,0.03,0.04,0.80,0.20,-1.10,-1.97,
1.574,0.03,0.04,0.80,0.20,-1.10,-1.97,
1.577,0.03,0.04,0.80,0.20,-1.10,-1.97,
1.577,0.03,0.04,0.80,0.10,-1.08,-1.93,
1.579,0.03,0.05,0.80,0.10,-1.08,-1.93,
1.582,0.03,0.05,0.81,0.10,-1.08,-1.93,
1.582,0.03,0.05,0.81,0.12,-1.09,-1.94,
1.584,0.03,0.05,0.81,0.12,-1.09,-1.94,
1.587,0.02,0.06,0.81,0.12,-1.09,-1.94,
1.587,0.02,0.06,0.81,0.14,-1.06,-1.93,
1.59,0.01,0.06,0.82,0.14,-1.06,-1.93,
1.591,0.01,0.06,0.82,0.08,-0.98,-1.85,
1.592,-0.01,0.06,0.82,0.08,-0.98,-1.85,
1.594,-0.02,0.07,0.83,0.08,-0.98,-1.85,
1.597,-0.04,0.07,0.83,0.08,-0.98,-1.85,
1.597,-0.04,0.07,0.83,-0.17,-0.94,-1.76,
1.599,-0.05,0.08,0.84,-0.17,-0.94,-1.76,
1.602,-0.05,0.08,0.84,-0.17,-0.94,-1.76,
1.602,-0.05,0.08,0.84,-0.45,-0.86,-1.64,
1.606,-0.06,0.09,0.84,-0.45,-0.86,-1.64,
1.607,-0.05,0.09,0.85,-0.45,-0.86,-1.64,
1.607,-0.05,0.09,0.85,-0.65,-0.79,-1.55,
1.609,-0.06,0.10,0.85,-0.65,-0.79,-1.55,
1.612,-0.06,0.10,0.85,-0.71,-0.68,-1.49,
1.612,-0.06,0.10,0.86,-0.71,-0.68,-1.49,
1.614,-0.06,0.10,0.86,-0.71,-0.68,-1.49,
1.617,-0.05,0.11,0.87,-0.71,-0.68,-1.49,
1.617,-0.05,0.11,0.87,-0.75,-0.59,-1.39,
1.619,-0.04,0.10,0.87,-0.75,-0.59,-1.39,
1.621,-0.04,0.10,0.87,-0.75,-0.59,-1.39,
1.621,-0.04,0.10,0.87,-0.72,-0.56,-1.27,
1.623,-0.04,0.10,0.87,-0.72,-0.56,-1.27,
1.626,-0.02,0.10,0.86,-0.72,-0.56,-1.27,
1.626,-0.02,0.10,0.86,-0.61,-0.58,-1.20,
1.629,-0.01,0.10,0.86,-0.61,-0.58,-1.20,
1.632,-0.01,0.10,0.86,-0.49,-0.60,-1.30,
1.632,-0.00,0.11,0.85,-0.49,-0.60,-1.30,
1.633,-0.00,0.11,0.85,-0.49,-0.60,-1.30,
1.636,0.00,0.10,0.85,-0.49,-0.60,-1.30,
1.636,0.00,0.10,0.85,-0.28,-0.57,-1.36,
1.643,0.01,0.11,0.85,-0.28,-0.57,-1.36,
1.643,0.01,0.10,0.85,-0.28,-0.57,-1.36,
1.643,0.01,0.10,0.85,-0.22,-0.56,-1.43,
1.644,0.01,0.10,0.85,-0.22,-0.56,-1.43,
1.647,0.01,0.10,0.85,-0.22,-0.56,-1.43,
1.649,0.01,0.10,0.85,-0.12,-0.57,-1.43,
1.649,0.02,0.10,0.85,-0.12,-0.57,-1.43,
1.651,0.02,0.10,0.85,-0.12,-0.57,-1.43,
1.651,0.02,0.10,0.85,-0.12,-0.58,-1.45,
1.653,0.02,0.11,0.85,-0.12,-0.58,-1.45,
1.655,0.01,0.11,0.86,-0.12,-0.58,-1.45,
1.656,0.01,0.11,0.86,-0.04,-0.58,-1.44,
1.658,0.02,0.11,0.86,-0.04,-0.58,-1.44,
1.66,0.01,0.12,0.86,-0.04,-0.58,-1.44,
1.661,0.01,0.12,0.86,-0.08,-0.53,-1.37,
1.663,0.01,0.12,0.86,-0.08,-0.53,-1.37,
1.665,0.01,0.12,0.86,-0.06,-0.43,-1.32,
1.666,0.01,0.12,0.87,-0.06,-0.43,-1.32,
1.668,0.01,0.12,0.87,-0.06,-0.43,-1.32,
1.672,0.01,0.13,0.88,-0.06,-0.43,-1.32,
1.672,0.01,0.13,0.88,-0.13,-0.40,-1.25,
1.673,0.01,0.13,0.88,-0.13,-0.40,-1.25,
1.675,0.01,0.14,0.88,-0.13,-0.40,-1.25,
1.676,0.01,0.14,0.88,-0.11,-0.35,-1.14,
1.678,0.01,0.15,0.88,-0.11,-0.35,-1.14,
1.68,0.01,0.15,0.88,-0.11,-0.35,-1.14,
1.681,0.01,0.15,0.88,-0.10,-0.25,-1.07,
1.683,0.00,0.15,0.88,-0.10,-0.25,-1.07,
1.685,0.00,0.15,0.88,-0.12,-0.13,-1.06,
1.686,-0.01,0.16,0.87,-0.12,-0.13,-1.06,
1.689,-0.01,0.16,0.87,-0.12,-0.13,-1.06,
1.69,-0.01,0.17,0.86,-0.12,-0.13,-1.06,
1.691,-0.01,0.17,0.86,-0.22,-0.07,-1.14,
1.693,-0.01,0.17,0.86,-0.22,-0.07,-1.14,
1.695,-0.02,0.16,0.85,-0.22,-0.07,-1.14,
1.695,-0.02,0.16,0.85,-0.29,0.00,-1.23,
1.698,-0.03,0.17,0.85,-0.29,0.00,-1.23,
1.7,-0.04,0.16,0.85,-0.29,0.00,-1.23,
1.701,-0.04,0.16,0.85,-0.35,0.01,-1.32,
1.703,-0.04,0.16,0.84,-0.35,0.01,-1.32,
1.706,-0.04,0.16,0.84,-0.35,0.01,-1.32,
1.706,-0.04,0.16,0.84,-0.53,0.02,-1.40,
1.707,-0.04,0.16,0.84,-0.53,0.02,-1.40,
1.71,-0.05,0.15,0.84,-0.53,0.02,-1.40,
1.71,-0.05,0.15,0.84,-0.58,-0.05,-1.48,
1.713,-0.05,0.15,0.84,-0.58,-0.05,-1.48,
1.715,-0.05,0.15,0.84,-0.66,-0.12,-1.47,
1.715,-0.05,0.14,0.84,-0.66,-0.12,-1.47,
1.717,-0.05,0.14,0.84,-0.66,-0.12,-1.47,
1.72,-0.05,0.14,0.85,-0.66,-0.12,-1.47,
1.72,-0.05,0.14,0.85,-0.67,-0.22,-1.49,
1.725,-0.04,0.13,0.84,-0.67,-0.22,-1.49,
1.726,-0.03,0.13,0.85,-0.67,-0.22,-1.49,
1.726,-0.03,0.13,0.85,-0.68,-0.30,-1.41,
1.728,-0.02,0.12,0.85,-0.68,-0.30,-1.41,
1.73,-0.02,0.12,0.85,-0.68,-0.30,-1.41,
1.73,-0.02,0.12,0.85,-0.57,-0.39,-1.43,
1.732,-0.01,0.12,0.86,-0.57,-0.39,-1.43,
1.735,-0.01,0.12,0.86,-0.57,-0.39,-1.43,
1.735,-0.01,0.12,0.86,-0.40,-0.45,-1.34,
1.737,0.00,0.12,0.86,-0.40,-0.45,-1.34,
1.743,0.01,0.12,0.86,-0.40,-0.45,-1.34,
1.744,0.01,0.12,0.86,-0.28,-0.45,-1.25,
1.744,0.01,0.12,0.87,-0.28,-0.45,-1.25,
1.745,0.01,0.12,0.88,-0.28,-0.45,-1.25,
1.745,0.01,0.12,0.88,-0.15,-0.51,-1.21,
1.747,0.02,0.13,0.88,-0.15,-0.51,-1.21,
1.75,0.01,0.14,0.89,-0.15,-0.51,-1.21,
1.75,0.01,0.14,0.89,-0.09,-0.51,-1.08,
1.752,0.01,0.14,0.90,-0.09,-0.51,-1.08,
1.757,0.02,0.15,0.89,-0.09,-0.51,-1.08,
1.757,0.02,0.15,0.89,-0.07,-0.37,-0.99,
1.758,0.03,0.15,0.89,-0.07,-0.37,-0.99,
1.76,0.03,0.16,0.89,-0.07,-0.37,-0.99,
1.76,0.03,0.16,0.89,-0.04,-0.26,-0.91,
1.762,0.03,0.16,0.88,-0.04,-0.26,-0.91,
1.765,0.03,0.16,0.88,0.09,-0.14,-0.96,
1.765,0.04,0.16,0.87,0.09,-0.14,-0.96,
1.767,0.04,0.16,0.86,0.09,-0.14,-0.96,
1.77,0.05,0.16,0.86,0.09,-0.14,-0.96,
1.77,0.05,0.16,0.86,0.11,-0.09,-1.11,
1.775,0.05,0.16,0.85,0.11,-0.09,-1.11,
1.775,0.05,0.16,0.85,0.11,-0.09,-1.11,
1.775,0.05,0.16,0.85,0.24,-0.09,-1.22,
1.777,0.04,0.16,0.85,0.24,-0.09,-1.22,
1.779,0.03,0.16,0.85,0.24,-0.09,-1.22,
1.78,0.03,0.16,0.85,0.26,-0.13,-1.31,
1.782,0.03,0.16,0.85,0.26,-0.13,-1.31,
1.784,0.03,0.17,0.84,0.26,-0.13,-1.31,
1.785,0.03,0.17,0.84,0.11,-0.10,-1.31,
1.787,0.03,0.17,0.84,0.11,-0.10,-1.31,
1.79,0.02,0.17,0.84,0.11,-0.10,-1.31,
1.79,0.02,0.17,0.84,0.05,-0.09,-1.34,
1.792,0.02,0.18,0.83,0.05,-0.09,-1.34,
1.794,0.02,0.18,0.83,0.05,-0.09,-1.34,
1.794,0.02,0.18,0.83,-0.00,-0.02,-1.41,
1.797,0.01,0.18,0.84,-0.00,-0.02,-1.41,
1.799,0.01,0.18,0.84,-0.00,-0.02,-1.41,
1.8,0.01,0.18,0.84,-0.06,0.05,-1.48,
1.802,0.01,0.18,0.85,-0.06,0.05,-1.48,
1.804,0.00,0.17,0.85,-0.06,0.05,-1.48,
1.804,0.00,0.17,0.85,-0.16,0.08,-1.42,
1.807,-0.00,0.17,0.86,-0.16,0.08,-1.42,
1.81,-0.00,0.16,0.88,-0.16,0.08,-1.42,
1.81,-0.00,0.16,0.88,-0.24,0.05,-1.31,
1.812,-0.00,0.17,0.87,-0.24,0.05,-1.31,
1.814,0.01,0.16,0.87,-0.24,0.05,-1.31,
1.814,0.01,0.16,0.87,-0.30,-0.05,-1.11,
1.816,0.01,0.16,0.87,-0.30,-0.05,-1.11,
1.819,0.02,0.16,0.87,-0.30,-0.05,-1.11,
1.82,0.02,0.16,0.87,-0.27,-0.08,-1.06,
1.823,0.02,0.17,0.87,-0.27,-0.08,-1.06,
1.824,0.03,0.17,0.85,-0.27,-0.08,-1.06,
1.824,0.03,0.17,0.85,-0.15,-0.07,-1.10,
1.827,0.03,0.18,0.81,-0.15,-0.07,-1.10,
1.83,0.03,0.18,0.78,-0.15,-0.07,-1.10,
1.83,0.03,0.18,0.78,-0.06,0.01,-1.23,
1.832,0.03,0.19,0.79,-0.06,0.01,-1.23,
1.834,0.03,0.19,0.80,-0.06,0.01,-1.23,
1.835,0.03,0.19,0.80,0.01,0.12,-1.81,
1.837,0.03,0.19,0.81,0.01,0.12,-1.81,
1.84,0.02,0.19,0.83,0.01,0.12,-1.81,
1.841,0.02,0.19,0.83,-0.02,0.25,-1.85,
1.842,0.02,0.20,0.83,-0.02,0.25,-1.85,
1.844,0.01,0.20,0.84,-0.02,0.25,-1.85,
1.844,0.01,0.20,0.84,-0.10,0.24,-1.59,
1.848,0.02,0.20,0.86,-0.10,0.24,-1.59,
1.849,0.03,0.20,0.88,-0.10,0.24,-1.59,
1.849,0.03,0.20,0.88,-0.17,0.29,-1.40,
1.853,0.04,0.20,0.88,-0.17,0.29,-1.40,
1.854,0.05,0.20,0.89,-0.17,0.29,-1.40,
1.854,0.05,0.20,0.89,-0.08,0.32,-1.10,
1.859,0.06,0.19,0.90,-0.08,0.32,-1.10,
1.859,0.05,0.19,0.90,-0.08,0.32,-1.10,
1.859,0.05,0.19,0.90,0.13,0.35,-0.91,
1.862,0.05,0.19,0.91,0.13,0.35,-0.91,
1.863,0.05,0.19,0.92,0.13,0.35,-0.91,
1.863,0.05,0.19,0.92,0.23,0.29,-0.80,
1.867,0.05,0.19,0.93,0.23,0.29,-0.80,
1.869,0.04,0.19,0.94,0.23,0.29,-0.80,
1.869,0.04,0.19,0.94,0.21,0.30,-0.62,
1.872,0.04,0.20,0.95,0.21,0.30,-0.62,
1.873,0.04,0.21,0.96,0.21,0.30,-0.62,
1.874,0.04,0.21,0.96,0.15,0.29,-0.48,
1.877,0.04,0.20,0.97,0.15,0.29,-0.48,
1.878,0.03,0.21,0.97,0.15,0.29,-0.48,
1.878,0.03,0.21,0.97,0.08,0.40,-0.26,
1.882,0.03,0.22,0.98,0.08,0.40,-0.26,
1.884,0.03,0.22,0.98,0.08,0.40,-0.26,
1.884,0.03,0.22,0.98,0.04,0.45,-0.10,
1.886,0.03,0.22,0.97,0.04,0.45,-0.10,
1.889,0.03,0.22,0.97,0.02,0.56,-0.04,
1.89,0.03,0.23,0.97,0.02,0.56,-0.04,
1.891,0.02,0.23,0.97,0.02,0.56,-0.04,
1.893,0.01,0.24,0.96,0.02,0.56,-0.04,
1.893,0.01,0.24,0.96,-0.02,0.63,-0.08,
1.896,0.01,0.24,0.96,-0.02,0.63,-0.08,
1.899,0.01,0.24,0.95,-0.02,0.63,-0.08,
1.899,0.01,0.24,0.95,-0.13,0.74,-0.20,
1.901,0.03,0.24,0.97,-0.13,0.74,-0.20,
1.903,0.03,0.24,0.97,-0.23,0.78,-0.28,
1.903,0.01,0.24,0.95,-0.23,0.78,-0.28,
1.908,-0.01,0.24,0.94,-0.23,0.78,-0.28,
1.908,-0.01,0.25,0.93,-0.23,0.78,-0.28,
1.908,-0.01,0.25,0.93,-0.09,0.77,-0.23,
1.911,-0.01,0.25,0.93,-0.09,0.77,-0.23,
1.914,-0.02,0.26,0.94,-0.09,0.77,-0.23,
1.915,-0.02,0.26,0.94,-0.36,0.79,-0.50,
1.916,-0.02,0.27,0.94,-0.36,0.79,-0.50,
1.919,-0.02,0.28,0.95,-0.36,0.79,-0.50,
1.92,-0.02,0.28,0.95,-0.44,0.97,-0.42,
1.921,-0.01,0.28,0.96,-0.44,0.97,-0.42,
1.924,-0.00,0.28,0.97,-0.44,0.97,-0.42,
1.924,-0.00,0.28,0.97,-0.47,1.14,-0.38,
