
time,gFx,gFy,gFz,ax,ay,az,
0.003,-0.05,0.12,0.94,-0.05,-0.12,-0.10,
0.003,-0.06,0.12,0.93,-0.05,-0.12,-0.10,
0.003,-0.06,0.12,0.93,-0.17,-0.16,-0.29,
0.004,-0.06,0.12,0.93,-0.17,-0.16,-0.29,
0.007,-0.07,0.11,0.93,-0.17,-0.16,-0.29,
0.007,-0.07,0.11,0.93,-0.38,-0.20,-0.50,
0.009,-0.08,0.12,0.93,-0.38,-0.20,-0.50,
0.011,-0.08,0.12,0.93,-0.38,-0.20,-0.50,
0.012,-0.08,0.12,0.93,-0.47,-0.22,-0.57,
0.015,-0.08,0.13,0.94,-0.47,-0.22,-0.57,
0.016,-0.07,0.13,0.95,-0.47,-0.22,-0.57,
0.017,-0.07,0.13,0.95,-0.55,-0.20,-0.56,
0.019,-0.07,0.14,0.95,-0.55,-0.20,-0.56,
0.022,-0.07,0.15,0.95,-0.55,-0.20,-0.56,
0.022,-0.07,0.15,0.95,-0.53,-0.08,-0.44,
0.024,-0.07,0.15,0.96,-0.53,-0.08,-0.44,
0.026,-0.06,0.16,0.97,-0.53,-0.08,-0.44,
0.026,-0.06,0.16,0.97,-0.47,0.05,-0.36,
0.029,-0.06,0.16,0.97,-0.47,0.05,-0.36,
0.032,-0.06,0.16,0.98,-0.47,0.05,-0.36,
0.033,-0.06,0.16,0.98,-0.41,0.17,-0.23,
0.034,-0.05,0.16,0.99,-0.41,0.17,-0.23,
0.036,-0.04,0.16,0.98,-0.41,0.17,-0.23,
0.036,-0.04,0.16,0.98,-0.36,0.20,-0.09,
0.039,-0.04,0.16,0.99,-0.36,0.20,-0.09,
0.041,-0.04,0.16,0.99,-0.36,0.20,-0.09,
0.041,-0.04,0.16,0.99,-0.25,0.25,-0.01,
0.044,-0.04,0.16,1.00,-0.25,0.25,-0.01,
0.046,-0.04,0.16,1.00,-0.25,0.25,-0.01,
0.046,-0.04,0.16,1.00,-0.20,0.25,0.06,
0.049,-0.04,0.16,1.00,-0.20,0.25,0.06,
0.051,-0.04,0.16,1.00,-0.20,0.25,0.06,
0.051,-0.04,0.16,1.00,-0.19,0.26,0.13,
0.053,-0.04,0.16,1.00,-0.19,0.26,0.13,
0.056,-0.03,0.16,0.99,-0.19,0.26,0.13,
0.056,-0.03,0.16,0.99,-0.17,0.22,0.12,
0.058,-0.03,0.16,1.00,-0.17,0.22,0.12,
0.061,-0.03,0.16,1.00,-0.17,0.22,0.12,
0.061,-0.03,0.16,1.00,-0.14,0.25,0.09,
0.063,-0.04,0.16,1.00,-0.14,0.25,0.09,
0.066,-0.03,0.16,0.99,-0.14,0.25,0.09,
0.066,-0.03,0.16,0.99,-0.08,0.24,0.10,
0.068,-0.03,0.16,0.98,-0.08,0.24,0.10,
0.071,-0.03,0.15,0.99,-0.08,0.24,0.10,
0.071,-0.03,0.15,0.99,-0.11,0.24,0.10,
0.073,-0.03,0.15,0.98,-0.11,0.24,0.10,
0.076,-0.03,0.15,0.97,-0.11,0.24,0.10,
0.076,-0.03,0.15,0.97,-0.09,0.16,-0.01,
0.078,-0.03,0.14,0.97,-0.09,0.16,-0.01,
0.081,-0.02,0.15,0.98,-0.09,0.16,-0.01,
0.081,-0.02,0.15,0.98,-0.06,0.12,-0.12,
0.083,-0.02,0.15,0.98,-0.06,0.12,-0.12,
0.086,-0.02,0.15,0.98,-0.06,0.12,-0.12,
0.086,-0.02,0.15,0.98,-0.04,0.07,-0.11,
0.088,-0.02,0.15,0.98,-0.04,0.07,-0.11,
0.091,-0.01,0.15,0.98,-0.04,0.07,-0.11,
0.091,-0.01,0.15,0.98,0.03,0.14,-0.05,
0.093,-0.01,0.16,0.98,0.03,0.14,-0.05,
0.095,-0.02,0.16,0.98,0.03,0.14,-0.05,
0.096,-0.02,0.16,0.98,0.06,0.17,-0.06,
0.098,-0.02,0.16,0.99,0.06,0.17,-0.06,
0.1,-0.02,0.15,0.98,0.06,0.17,-0.06,
0.101,-0.02,0.15,0.98,0.07,0.20,-0.09,
0.103,-0.02,0.15,0.99,0.07,0.20,-0.09,
0.105,-0.02,0.15,0.99,0.07,0.20,-0.09,
0.105,-0.02,0.15,0.99,0.03,0.17,-0.03,
0.108,-0.02,0.14,0.99,0.03,0.17,-0.03,
0.11,-0.02,0.14,0.99,0.03,0.17,-0.03,
0.11,-0.02,0.14,0.99,0.03,0.11,0.03,
0.113,-0.01,0.14,0.99,0.03,0.11,0.03,
0.115,-0.01,0.14,0.99,0.03,0.11,0.03,
0.115,-0.01,0.14,0.99,-0.01,0.05,0.01,
0.118,-0.02,0.13,1.00,-0.01,0.05,0.01,
0.12,-0.01,0.14,1.00,-0.01,0.05,0.01,
0.12,-0.01,0.14,1.00,0.07,0.04,0.03,
0.123,-0.01,0.14,1.00,0.07,0.04,0.03,
0.125,-0.00,0.13,1.00,0.07,0.04,0.03,
0.125,-0.00,0.13,1.00,0.06,-0.01,0.09,
0.128,-0.00,0.13,1.00,0.06,-0.01,0.09,
0.13,0.00,0.13,1.01,0.06,-0.01,0.09,
0.13,0.00,0.13,1.01,0.13,0.01,0.11,
0.133,0.00,0.14,1.00,0.13,0.01,0.11,
0.135,0.00,0.13,1.00,0.13,0.01,0.11,
0.135,0.00,0.13,1.00,0.17,-0.01,0.17,
0.138,0.01,0.13,0.99,0.17,-0.01,0.17,
0.14,0.00,0.12,1.00,0.17,-0.01,0.17,
0.14,0.00,0.12,1.00,0.22,-0.03,0.10,
0.143,0.00,0.12,0.99,0.22,-0.03,0.10,
0.145,0.00,0.12,0.99,0.22,-0.03,0.10,
0.145,0.00,0.12,0.99,0.23,-0.09,0.06,
0.148,0.00,0.12,0.99,0.23,-0.09,0.06,
0.15,0.00,0.12,0.99,0.23,-0.09,0.06,
0.15,0.00,0.12,0.99,0.18,-0.11,0.04,
0.152,0.01,0.12,0.99,0.18,-0.11,0.04,
0.155,0.02,0.12,0.99,0.18,-0.11,0.04,
0.155,0.02,0.12,0.99,0.20,-0.12,-0.01,
0.157,0.01,0.12,0.99,0.20,-0.12,-0.01,
0.16,0.02,0.12,0.98,0.20,-0.12,-0.01,
0.16,0.02,0.12,0.98,0.31,-0.11,0.00,
0.162,0.01,0.12,0.99,0.31,-0.11,0.00,
0.165,0.01,0.12,0.98,0.31,-0.11,0.00,
0.165,0.01,0.12,0.98,0.30,-0.14,-0.01,
0.168,0.01,0.11,0.98,0.30,-0.14,-0.01,
0.17,0.01,0.12,0.97,0.30,-0.14,-0.01,
0.171,0.01,0.12,0.97,0.24,-0.14,-0.05,
0.172,0.02,0.12,0.97,0.24,-0.14,-0.05,
0.175,0.03,0.12,0.97,0.24,-0.14,-0.05,
0.175,0.03,0.12,0.97,0.25,-0.18,-0.13,
0.177,0.03,0.12,0.97,0.25,-0.18,-0.13,
0.181,0.03,0.12,0.96,0.25,-0.18,-0.13,
0.181,0.03,0.12,0.96,0.36,-0.15,-0.18,
0.183,0.03,0.11,0.96,0.36,-0.15,-0.18,
0.185,0.02,0.11,0.96,0.36,-0.15,-0.18,
0.185,0.02,0.11,0.96,0.42,-0.16,-0.20,
0.188,0.01,0.11,0.95,0.42,-0.16,-0.20,
0.19,0.01,0.11,0.94,0.42,-0.16,-0.20,
0.19,0.01,0.11,0.94,0.36,-0.21,-0.28,
0.193,0.00,0.11,0.94,0.36,-0.21,-0.28,
0.195,0.01,0.12,0.93,0.36,-0.21,-0.28,
0.195,0.01,0.12,0.93,0.23,-0.22,-0.44,
0.198,0.01,0.12,0.94,0.23,-0.22,-0.44,
0.2,0.02,0.13,0.93,0.23,-0.22,-0.44,
0.2,0.02,0.13,0.93,0.17,-0.19,-0.49,
0.203,0.02,0.12,0.93,0.17,-0.19,-0.49,
0.205,0.02,0.13,0.93,0.17,-0.19,-0.49,
0.206,0.02,0.13,0.93,0.26,-0.10,-0.51,
0.208,0.02,0.13,0.93,0.26,-0.10,-0.51,
0.21,0.02,0.13,0.93,0.31,-0.10,-0.52,
0.211,0.01,0.12,0.93,0.31,-0.10,-0.52,
0.213,0.01,0.12,0.93,0.31,-0.10,-0.52,
0.215,-0.00,0.12,0.93,0.31,-0.10,-0.52,
0.215,-0.00,0.12,0.93,0.26,-0.09,-0.52,
0.217,-0.00,0.13,0.93,0.26,-0.09,-0.52,
0.22,-0.01,0.13,0.93,0.26,-0.09,-0.52,
0.22,-0.01,0.13,0.93,0.13,-0.12,-0.55,
0.223,-0.00,0.13,0.94,0.13,-0.12,-0.55,
0.224,0.00,0.13,0.94,0.13,-0.12,-0.55,
0.225,0.00,0.13,0.94,0.06,-0.08,-0.51,
0.227,-0.00,0.13,0.94,0.06,-0.08,-0.51,
0.23,0.01,0.12,0.94,0.06,-0.08,-0.51,
0.23,0.01,0.12,0.94,0.07,-0.06,-0.45,
0.232,0.00,0.12,0.94,0.07,-0.06,-0.45,
0.235,-0.00,0.12,0.95,0.07,-0.06,-0.45,
0.235,-0.00,0.12,0.95,0.10,-0.07,-0.40,
0.238,-0.00,0.12,0.94,0.10,-0.07,-0.40,
0.24,-0.00,0.11,0.95,0.10,-0.07,-0.40,
0.24,-0.00,0.11,0.95,0.07,-0.13,-0.36,
0.242,0.00,0.11,0.95,0.07,-0.13,-0.36,
0.245,0.00,0.11,0.95,0.05,-0.16,-0.35,
0.245,0.01,0.12,0.95,0.05,-0.16,-0.35,
0.247,0.02,0.11,0.96,0.05,-0.16,-0.35,
0.253,0.01,0.11,0.96,0.05,-0.16,-0.35,
0.254,0.01,0.11,0.96,0.11,-0.17,-0.30,
0.254,0.01,0.11,0.96,0.11,-0.17,-0.30,
0.254,0.01,0.11,0.96,0.11,-0.17,-0.30,
0.255,0.01,0.11,0.96,0.18,-0.19,-0.22,
0.257,0.00,0.11,0.95,0.18,-0.19,-0.22,
0.259,-0.00,0.11,0.95,0.18,-0.19,-0.22,
0.26,-0.00,0.11,0.95,0.15,-0.21,-0.24,
0.262,0.01,0.11,0.96,0.15,-0.21,-0.24,
0.265,0.01,0.11,0.94,0.15,-0.21,-0.24,
0.265,0.01,0.11,0.94,0.05,-0.23,-0.29,
0.267,0.02,0.11,0.94,0.05,-0.23,-0.29,
0.269,0.02,0.11,0.94,0.13,-0.19,-0.32,
0.27,0.02,0.11,0.93,0.13,-0.19,-0.32,
0.272,0.01,0.10,0.94,0.13,-0.19,-0.32,
0.275,0.02,0.10,0.93,0.13,-0.19,-0.32,
0.275,0.02,0.10,0.93,0.20,-0.18,-0.46,
0.277,0.01,0.10,0.92,0.20,-0.18,-0.46,
0.279,0.01,0.09,0.92,0.20,-0.18,-0.46,
0.28,0.01,0.09,0.92,0.14,-0.27,-0.44,
0.281,0.01,0.09,0.91,0.14,-0.27,-0.44,
0.285,0.01,0.08,0.91,0.14,-0.27,-0.44,
0.285,0.01,0.08,0.91,0.09,-0.33,-0.59,
0.286,0.02,0.08,0.89,0.09,-0.33,-0.59,
0.289,0.02,0.08,0.89,0.09,-0.33,-0.59,
0.289,0.02,0.08,0.89,0.11,-0.45,-0.68,
0.291,0.02,0.08,0.87,0.11,-0.45,-0.68,
0.295,0.02,0.07,0.86,0.11,-0.45,-0.68,
0.295,0.02,0.07,0.86,0.17,-0.52,-0.89,
0.296,0.02,0.07,0.86,0.17,-0.52,-0.89,
0.301,0.03,0.08,0.86,0.17,-0.52,-0.89,
0.301,0.03,0.08,0.86,0.16,-0.58,-1.12,
0.302,0.03,0.07,0.88,0.16,-0.58,-1.12,
0.304,0.03,0.07,0.87,0.16,-0.58,-1.12,
0.304,0.03,0.07,0.87,0.22,-0.57,-1.14,
0.306,0.02,0.07,0.85,0.22,-0.57,-1.14,
0.309,0.02,0.07,0.85,0.29,-0.62,-0.99,
0.309,0.02,0.07,0.84,0.29,-0.62,-0.99,
0.311,0.02,0.07,0.84,0.29,-0.62,-0.99,
0.314,0.03,0.07,0.84,0.29,-0.62,-0.99,
0.314,0.03,0.07,0.84,0.18,-0.59,-1.28,
0.317,0.03,0.06,0.83,0.18,-0.59,-1.28,
0.318,0.04,0.07,0.83,0.18,-0.59,-1.28,
0.319,0.04,0.07,0.83,0.21,-0.64,-1.33,
0.321,0.04,0.06,0.83,0.21,-0.64,-1.33,
0.323,0.04,0.06,0.83,0.21,-0.64,-1.33,
0.324,0.04,0.06,0.83,0.30,-0.65,-1.40,
0.326,0.05,0.07,0.82,0.30,-0.65,-1.40,
0.328,0.06,0.07,0.83,0.30,-0.65,-1.40,
0.33,0.06,0.07,0.83,0.37,-0.68,-1.38,
0.331,0.06,0.06,0.84,0.37,-0.68,-1.38,
0.334,0.07,0.05,0.85,0.37,-0.68,-1.38,
0.334,0.07,0.05,0.85,0.46,-0.64,-1.39,
0.336,0.08,0.05,0.85,0.46,-0.64,-1.39,
0.338,0.08,0.04,0.86,0.46,-0.64,-1.39,
0.339,0.08,0.04,0.86,0.56,-0.73,-1.24,
0.341,0.09,0.03,0.87,0.56,-0.73,-1.24,
0.343,0.09,0.03,0.87,0.76,-0.86,-1.11,
0.343,0.10,0.02,0.88,0.76,-0.86,-1.11,
0.346,0.11,0.01,0.89,0.76,-0.86,-1.11,
0.348,0.12,0.01,0.91,0.76,-0.86,-1.11,
0.348,0.12,0.01,0.91,0.87,-0.98,-0.86,
0.354,0.13,0.01,0.92,0.87,-0.98,-0.86,
0.354,0.15,0.01,0.92,0.87,-0.98,-0.86,
0.354,0.15,0.01,0.92,1.01,-1.14,-0.66,
0.356,0.16,0.00,0.93,1.01,-1.14,-0.66,
0.358,0.17,0.01,0.94,1.01,-1.14,-0.66,
0.358,0.17,0.01,0.94,1.23,-1.14,-0.46,
0.361,0.18,0.01,0.94,1.23,-1.14,-0.46,
0.364,0.19,0.01,0.94,1.23,-1.14,-0.46,
0.364,0.19,0.01,0.94,1.46,-1.15,-0.34,
0.367,0.20,0.01,0.95,1.46,-1.15,-0.34,
0.368,0.20,0.02,0.95,1.46,-1.15,-0.34,
0.369,0.20,0.02,0.95,1.66,-1.12,-0.23,
0.37,0.21,0.02,0.95,1.66,-1.12,-0.23,
0.374,0.21,0.02,0.95,1.66,-1.12,-0.23,
0.374,0.21,0.02,0.95,1.77,-1.05,-0.13,
0.375,0.22,0.03,0.94,1.77,-1.05,-0.13,
0.378,0.22,0.03,0.94,1.77,-1.05,-0.13,
0.378,0.22,0.03,0.94,1.87,-0.95,-0.17,
0.38,0.22,0.03,0.92,1.87,-0.95,-0.17,
0.385,0.22,0.04,0.91,1.87,-0.95,-0.17,
0.386,0.22,0.04,0.91,1.89,-0.89,-0.27,
0.386,0.22,0.05,0.89,1.89,-0.89,-0.27,
0.388,0.21,0.05,0.87,1.89,-0.89,-0.27,
0.388,0.21,0.05,0.87,1.89,-0.81,-0.48,
0.39,0.20,0.06,0.86,1.89,-0.81,-0.48,
0.393,0.20,0.06,0.86,1.86,-0.70,-0.79,
0.393,0.19,0.07,0.85,1.86,-0.70,-0.79,
0.395,0.18,0.07,0.83,1.86,-0.70,-0.79,
0.398,0.17,0.08,0.83,1.86,-0.70,-0.79,
0.398,0.17,0.08,0.83,1.68,-0.57,-1.06,
0.401,0.16,0.09,0.84,1.68,-0.57,-1.06,
0.403,0.15,0.09,0.83,1.68,-0.57,-1.06,
0.403,0.15,0.09,0.83,1.48,-0.48,-1.31,
0.405,0.14,0.09,0.79,1.48,-0.48,-1.31,
0.408,0.13,0.10,0.77,1.48,-0.48,-1.31,
0.408,0.13,0.10,0.77,1.23,-0.39,-1.24,
0.41,0.11,0.11,0.76,1.23,-0.39,-1.24,
0.413,0.10,0.11,0.75,1.23,-0.39,-1.24,
0.413,0.10,0.11,0.75,1.02,-0.28,-1.75,
0.415,0.10,0.11,0.75,1.02,-0.28,-1.75,
0.419,0.08,0.12,0.74,1.02,-0.28,-1.75,
0.42,0.08,0.12,0.74,0.78,-0.17,-1.99,
0.42,0.07,0.12,0.73,0.78,-0.17,-1.99,
0.422,0.06,0.12,0.74,0.78,-0.17,-1.99,
0.423,0.06,0.12,0.74,0.58,-0.13,-2.10,
0.426,0.05,0.13,0.73,0.58,-0.13,-2.10,
0.429,0.05,0.13,0.73,0.34,-0.07,-2.18,
0.429,0.04,0.13,0.74,0.34,-0.07,-2.18,
0.431,0.03,0.14,0.75,0.34,-0.07,-2.18,
0.433,0.01,0.13,0.77,0.34,-0.07,-2.18,
0.433,0.01,0.13,0.77,0.11,0.04,-2.16,
0.435,-0.00,0.13,0.78,0.11,0.04,-2.16,
0.438,-0.02,0.12,0.80,0.11,0.04,-2.16,
0.438,-0.02,0.12,0.80,-0.16,0.11,-1.94,
0.441,-0.02,0.12,0.82,-0.16,0.11,-1.94,
0.443,-0.02,0.12,0.82,-0.42,0.05,-1.62,
0.443,-0.03,0.11,0.84,-0.42,0.05,-1.62,
0.445,-0.03,0.11,0.87,-0.42,0.05,-1.62,
0.448,-0.03,0.10,0.88,-0.42,0.05,-1.62,
0.448,-0.03,0.10,0.88,-0.56,-0.04,-1.21,
0.45,-0.02,0.10,0.90,-0.56,-0.04,-1.21,
0.454,-0.01,0.10,0.92,-0.56,-0.04,-1.21,
0.454,-0.01,0.10,0.92,-0.63,-0.12,-0.80,
0.455,-0.00,0.10,0.94,-0.63,-0.12,-0.80,
0.458,-0.00,0.10,0.94,-0.49,-0.14,-0.47,
0.458,0.01,0.10,0.96,-0.49,-0.14,-0.47,
0.46,0.03,0.10,0.97,-0.49,-0.14,-0.47,
0.463,0.03,0.10,0.97,-0.31,-0.09,-0.08,
0.463,0.04,0.11,0.99,-0.31,-0.09,-0.08,
0.465,0.06,0.12,1.00,-0.31,-0.09,-0.08,
0.469,0.07,0.12,1.02,-0.31,-0.09,-0.08,
0.469,0.07,0.12,1.02,0.01,-0.00,0.23,
0.47,0.09,0.13,1.02,0.01,-0.00,0.23,
0.472,0.10,0.13,1.03,0.01,-0.00,0.23,
0.472,0.10,0.13,1.03,0.24,0.15,0.52,
0.476,0.10,0.13,1.03,0.24,0.15,0.52,
0.478,0.11,0.13,1.03,0.24,0.15,0.52,
0.478,0.11,0.13,1.03,0.55,0.26,0.66,
0.48,0.11,0.12,1.03,0.55,0.26,0.66,
0.483,0.10,0.11,1.03,0.55,0.26,0.66,
0.484,0.10,0.11,1.03,0.66,0.26,0.70,
0.486,0.10,0.10,1.02,0.66,0.26,0.70,
0.487,0.09,0.10,1.01,0.66,0.26,0.70,
0.487,0.09,0.10,1.01,0.66,0.19,0.68,
0.489,0.09,0.09,1.00,0.66,0.19,0.68,
0.493,0.09,0.09,1.00,0.58,0.03,0.53,
0.493,0.09,0.09,0.99,0.58,0.03,0.53,
0.495,0.09,0.09,0.98,0.58,0.03,0.53,
0.498,0.09,0.09,0.97,0.58,0.03,0.53,
0.498,0.09,0.09,0.97,0.54,-0.04,0.37,
0.5,0.09,0.09,0.96,0.54,-0.04,0.37,
0.502,0.08,0.09,0.94,0.54,-0.04,0.37,
0.503,0.08,0.09,0.94,0.51,-0.05,0.15,
0.505,0.07,0.09,0.95,0.51,-0.05,0.15,
0.507,0.06,0.09,0.96,0.51,-0.05,0.15,
0.508,0.06,0.09,0.96,0.43,-0.01,-0.08,
0.51,0.05,0.10,0.94,0.43,-0.01,-0.08,
0.512,0.04,0.10,0.95,0.43,-0.01,-0.08,
0.513,0.04,0.10,0.95,0.24,0.00,-0.06,
0.515,0.04,0.09,0.95,0.24,0.00,-0.06,
0.517,0.03,0.09,0.95,0.24,0.00,-0.06,
0.517,0.03,0.09,0.95,0.09,0.05,-0.14,
0.52,0.03,0.09,0.95,0.09,0.05,-0.14,
0.522,0.03,0.09,0.95,0.09,0.05,-0.14,
0.522,0.03,0.09,0.95,-0.03,-0.01,-0.10,
0.525,0.03,0.09,0.96,-0.03,-0.01,-0.10,
0.527,0.03,0.09,0.96,-0.03,-0.01,-0.10,
0.528,0.03,0.09,0.96,-0.08,0.02,-0.11,
0.53,0.03,0.09,0.97,-0.08,0.02,-0.11,
0.533,0.03,0.09,0.98,-0.08,0.02,-0.11,
0.533,0.03,0.09,0.98,-0.12,0.05,-0.00,
0.535,0.03,0.09,0.99,-0.12,0.05,-0.00,
0.537,0.03,0.09,1.00,-0.12,0.05,-0.00,
0.537,0.03,0.09,1.00,-0.14,0.10,0.17,
0.539,0.04,0.08,1.01,-0.14,0.10,0.17,
0.542,0.04,0.08,1.01,-0.14,0.08,0.32,
0.542,0.04,0.08,1.02,-0.14,0.08,0.32,
0.545,0.05,0.08,1.03,-0.14,0.08,0.32,
0.547,0.05,0.07,1.04,-0.14,0.08,0.32,
0.547,0.05,0.07,1.04,-0.06,0.03,0.54,
0.55,0.05,0.06,1.05,-0.06,0.03,0.54,
0.552,0.05,0.07,1.05,-0.06,0.03,0.54,
0.552,0.05,0.07,1.05,0.02,0.03,0.73,
0.554,0.06,0.07,1.06,0.02,0.03,0.73,
0.556,0.06,0.06,1.06,0.02,0.03,0.73,
0.556,0.06,0.06,1.06,0.04,-0.05,0.87,
0.559,0.06,0.06,1.07,0.04,-0.05,0.87,
0.561,0.07,0.05,1.07,0.04,-0.05,0.87,
0.561,0.07,0.05,1.07,0.06,-0.05,0.99,
0.563,0.07,0.05,1.08,0.06,-0.05,0.99,
0.566,0.07,0.05,1.08,0.06,-0.05,0.99,
0.566,0.07,0.05,1.08,0.12,-0.09,1.07,
0.568,0.08,0.05,1.08,0.12,-0.09,1.07,
0.572,0.08,0.05,1.08,0.12,-0.09,1.07,
0.572,0.08,0.05,1.08,0.14,-0.10,1.12,
0.574,0.08,0.06,1.08,0.14,-0.10,1.12,
0.576,0.09,0.06,1.08,0.14,-0.10,1.12,
0.576,0.09,0.06,1.08,0.24,-0.08,1.11,
0.578,0.09,0.06,1.07,0.24,-0.08,1.11,
0.581,0.09,0.05,1.06,0.24,-0.08,1.11,
0.581,0.09,0.05,1.06,0.26,-0.00,1.12,
0.589,0.09,0.05,1.05,0.26,-0.00,1.12,
0.59,0.09,0.04,1.05,0.26,-0.00,1.12,
0.59,0.09,0.04,1.05,0.29,-0.04,0.95,
0.59,0.10,0.04,1.03,0.29,-0.04,0.95,
0.591,0.11,0.03,1.02,0.29,-0.04,0.95,
0.591,0.11,0.03,1.02,0.30,-0.16,0.81,
0.593,0.12,0.04,1.01,0.30,-0.16,0.81,
0.596,0.12,0.03,1.01,0.30,-0.16,0.81,
0.596,0.12,0.03,1.01,0.43,-0.22,0.59,
0.599,0.12,0.02,1.00,0.43,-0.22,0.59,
0.602,0.12,0.02,1.00,0.43,-0.22,0.59,
0.602,0.12,0.02,1.00,0.59,-0.25,0.45,
0.603,0.12,0.02,1.00,0.59,-0.25,0.45,
0.606,0.11,0.02,1.00,0.59,-0.25,0.45,
0.606,0.11,0.02,1.00,0.60,-0.32,0.35,
0.608,0.12,0.02,1.00,0.60,-0.32,0.35,
0.611,0.12,0.02,1.00,0.56,-0.31,0.34,
0.611,0.12,0.02,1.00,0.56,-0.31,0.34,
0.613,0.11,0.01,0.99,0.56,-0.31,0.34,
0.616,0.12,0.02,0.99,0.56,-0.31,0.34,
0.617,0.12,0.02,0.99,0.60,-0.35,0.29,
0.62,0.11,0.02,0.99,0.60,-0.35,0.29,
0.62,0.11,0.02,0.99,0.60,-0.35,0.29,
0.621,0.11,0.02,0.99,0.57,-0.37,0.26,
0.623,0.12,0.01,0.99,0.57,-0.37,0.26,
0.626,0.11,0.01,0.99,0.57,-0.37,0.26,
0.626,0.11,0.01,0.99,0.57,-0.34,0.23,
0.628,0.11,0.02,1.00,0.57,-0.34,0.23,
0.63,0.12,0.01,1.01,0.57,-0.34,0.23,
0.631,0.12,0.01,1.01,0.58,-0.34,0.24,
0.633,0.12,0.01,1.02,0.58,-0.34,0.24,
0.636,0.12,0.01,1.02,0.58,-0.34,0.24,
0.637,0.12,0.01,1.02,0.58,-0.29,0.37,
0.638,0.12,0.01,1.03,0.58,-0.29,0.37,
0.64,0.12,0.01,1.03,0.65,-0.31,0.52,
0.641,0.12,0.01,1.04,0.65,-0.31,0.52,
0.643,0.12,0.01,1.05,0.65,-0.31,0.52,
0.645,0.11,0.02,1.06,0.65,-0.31,0.52,
0.645,0.11,0.02,1.06,0.62,-0.32,0.64,
0.648,0.11,0.02,1.07,0.62,-0.32,0.64,
0.652,0.11,0.02,1.07,0.62,-0.32,0.64,
0.652,0.11,0.02,1.07,0.53,-0.23,0.85,
0.653,0.10,0.02,1.08,0.53,-0.23,0.85,
0.655,0.09,0.02,1.08,0.53,-0.23,0.85,
0.655,0.09,0.02,1.08,0.48,-0.19,0.99,
0.658,0.09,0.02,1.09,0.48,-0.19,0.99,
0.66,0.09,0.02,1.09,0.35,-0.14,1.08,
0.66,0.08,0.03,1.09,0.35,-0.14,1.08,
0.662,0.07,0.03,1.08,0.35,-0.14,1.08,
0.665,0.06,0.03,1.08,0.35,-0.14,1.08,
0.665,0.06,0.03,1.08,0.20,-0.08,1.17,
0.669,0.05,0.03,1.07,0.20,-0.08,1.17,
0.67,0.03,0.02,1.07,0.20,-0.08,1.17,
0.671,0.03,0.02,1.07,-0.00,-0.02,1.08,
0.673,0.02,0.02,1.07,-0.00,-0.02,1.08,
0.675,0.01,0.02,1.07,-0.00,-0.02,1.08,
0.675,0.01,0.02,1.07,-0.23,-0.07,0.97,
0.678,0.00,0.02,1.06,-0.23,-0.07,0.97,
0.68,-0.01,0.02,1.06,-0.23,-0.07,0.97,
0.68,-0.01,0.02,1.06,-0.49,-0.07,0.94,
0.683,-0.02,0.01,1.05,-0.49,-0.07,0.94,
0.689,-0.03,0.01,1.06,-0.49,-0.07,0.94,
0.69,-0.03,0.01,1.06,-0.62,-0.11,0.86,
0.69,-0.04,0.02,1.06,-0.62,-0.11,0.86,
0.691,-0.05,0.01,1.06,-0.62,-0.11,0.86,
0.691,-0.05,0.01,1.06,-0.80,-0.14,0.80,
0.693,-0.05,0.01,1.06,-0.80,-0.14,0.80,
0.695,-0.05,0.01,1.06,-0.99,-0.13,0.87,
0.695,-0.06,0.01,1.06,-0.99,-0.13,0.87,
0.697,-0.06,0.01,1.07,-0.99,-0.13,0.87,
0.7,-0.05,0.01,1.06,-0.99,-0.13,0.87,
0.7,-0.05,0.01,1.06,-1.11,-0.16,0.87,
0.702,-0.05,0.01,1.07,-1.11,-0.16,0.87,
0.705,-0.04,0.01,1.07,-1.11,-0.16,0.87,
0.705,-0.04,0.01,1.07,-1.14,-0.15,0.89,
0.708,-0.03,0.01,1.08,-1.14,-0.15,0.89,
0.71,-0.03,0.02,1.08,-1.14,-0.15,0.89,
0.71,-0.03,0.02,1.08,-1.01,-0.13,0.94,
0.713,-0.03,0.02,1.09,-1.01,-0.13,0.94,
0.715,-0.03,0.02,1.10,-1.01,-0.13,0.94,
0.715,-0.03,0.02,1.10,-0.89,-0.05,1.06,
0.718,-0.03,0.03,1.11,-0.89,-0.05,1.06,
0.719,-0.03,0.03,1.11,-0.89,-0.05,1.06,
0.72,-0.03,0.03,1.11,-0.92,0.03,1.17,
0.722,-0.03,0.04,1.12,-0.92,0.03,1.17,
0.725,-0.03,0.04,1.13,-0.92,0.03,1.17,
0.725,-0.03,0.04,1.13,-0.88,0.13,1.31,
0.728,-0.04,0.05,1.14,-0.88,0.13,1.31,
0.73,-0.04,0.05,1.13,-0.88,0.13,1.31,
0.73,-0.04,0.05,1.13,-0.88,0.23,1.44,
0.733,-0.04,0.06,1.12,-0.88,0.23,1.44,
0.736,-0.05,0.06,1.12,-0.88,0.23,1.44,
0.737,-0.05,0.06,1.12,-0.96,0.34,1.51,
0.737,-0.05,0.07,1.11,-0.96,0.34,1.51,
0.74,-0.05,0.07,1.11,-0.96,0.34,1.51,
0.74,-0.05,0.07,1.11,-1.02,0.42,1.40,
0.743,-0.06,0.08,1.10,-1.02,0.42,1.40,
0.745,-0.06,0.09,1.09,-1.02,0.42,1.40,
0.745,-0.06,0.09,1.09,-1.14,0.53,1.29,
0.747,-0.06,0.09,1.08,-1.14,0.53,1.29,
0.75,-0.07,0.09,1.06,-1.14,0.53,1.29,
0.75,-0.07,0.09,1.06,-1.18,0.63,1.17,
0.753,-0.08,0.09,1.05,-1.18,0.63,1.17,
0.754,-0.09,0.09,1.02,-1.18,0.63,1.17,
0.755,-0.09,0.09,1.02,-1.29,0.71,0.93,
0.757,-0.10,0.09,1.01,-1.29,0.71,0.93,
0.76,-0.10,0.08,0.99,-1.29,0.71,0.93,
0.76,-0.10,0.08,0.99,-1.41,0.70,0.56,
0.763,-0.11,0.08,0.97,-1.41,0.70,0.56,
0.765,-0.11,0.07,0.95,-1.41,0.70,0.56,
0.765,-0.11,0.07,0.95,-1.59,0.64,0.22,
0.767,-0.11,0.07,0.93,-1.59,0.64,0.22,
0.769,-0.10,0.08,0.92,-1.59,0.64,0.22,
0.77,-0.10,0.08,0.92,-1.71,0.53,-0.20,
0.772,-0.09,0.08,0.90,-1.71,0.53,-0.20,
0.775,-0.08,0.08,0.89,-1.71,0.53,-0.20,
0.775,-0.08,0.08,0.89,-1.64,0.50,-0.52,
0.778,-0.07,0.08,0.88,-1.64,0.50,-0.52,
0.78,-0.06,0.08,0.87,-1.64,0.50,-0.52,
0.78,-0.06,0.08,0.87,-1.43,0.55,-0.80,
0.782,-0.06,0.08,0.85,-1.43,0.55,-0.80,
0.785,-0.05,0.07,0.85,-1.43,0.55,-0.80,
0.785,-0.05,0.07,0.85,-1.21,0.55,-1.03,
0.787,-0.04,0.06,0.84,-1.21,0.55,-1.03,
0.789,-0.03,0.05,0.84,-1.21,0.55,-1.03,
0.789,-0.03,0.05,0.84,-1.06,0.45,-1.21,
0.792,-0.02,0.04,0.85,-1.06,0.45,-1.21,
0.795,-0.02,0.04,0.85,-0.92,0.29,-1.29,
0.795,-0.00,0.03,0.84,-0.92,0.29,-1.29,
0.797,0.02,0.03,0.85,-0.92,0.29,-1.29,
0.799,0.03,0.03,0.85,-0.92,0.29,-1.29,
0.799,0.03,0.03,0.85,-0.63,0.16,-1.29,
0.808,0.05,0.04,0.86,-0.63,0.16,-1.29,
0.809,0.06,0.04,0.88,-0.63,0.16,-1.29,
0.809,0.06,0.04,0.88,-0.30,0.08,-1.24,
0.809,0.07,0.04,0.90,-0.30,0.08,-1.24,
0.81,0.09,0.05,0.92,-0.30,0.08,-1.24,
0.81,0.09,0.05,0.92,0.03,0.20,-1.01,
0.811,0.10,0.05,0.94,0.03,0.20,-1.01,
0.813,0.11,0.06,0.97,0.03,0.20,-1.01,
0.814,0.11,0.06,0.97,0.29,0.28,-0.65,
0.816,0.11,0.06,0.99,0.29,0.28,-0.65,
0.821,0.11,0.06,1.01,0.29,0.28,-0.65,
0.821,0.11,0.06,1.01,0.50,0.40,-0.21,
0.822,0.10,0.05,1.03,0.50,0.40,-0.21,
0.824,0.09,0.05,1.05,0.50,0.40,-0.21,
0.827,0.09,0.05,1.05,0.58,0.49,0.21,
0.827,0.08,0.04,1.08,0.58,0.49,0.21,
0.829,0.08,0.04,1.10,0.58,0.49,0.21,
0.829,0.08,0.04,1.10,0.47,0.46,0.66,
0.831,0.06,0.04,1.12,0.47,0.46,0.66,
0.833,0.06,0.04,1.13,0.47,0.46,0.66,
0.834,0.06,0.04,1.13,0.27,0.42,1.15,
0.837,0.06,0.03,1.14,0.27,0.42,1.15,
0.839,0.06,0.04,1.16,0.27,0.42,1.15,
0.839,0.06,0.04,1.16,0.10,0.41,1.47,
0.841,0.06,0.03,1.17,0.10,0.41,1.47,
0.844,0.06,0.04,1.18,0.10,0.41,1.47,
0.844,0.06,0.04,1.18,0.03,0.40,1.72,
0.846,0.05,0.04,1.17,0.03,0.40,1.72,
0.849,0.05,0.04,1.18,0.03,0.40,1.72,
0.849,0.05,0.04,1.18,0.03,0.44,1.93,
0.851,0.05,0.03,1.17,0.03,0.44,1.93,
0.856,0.05,0.03,1.17,0.03,0.44,1.93,
0.856,0.05,0.03,1.17,-0.02,0.45,1.95,
0.856,0.05,0.03,1.16,-0.02,0.45,1.95,
0.859,0.04,0.02,1.15,-0.02,0.45,1.95,
0.859,0.04,0.02,1.15,-0.05,0.38,1.86,
0.862,0.04,0.01,1.14,-0.05,0.38,1.86,
0.864,0.03,0.01,1.12,-0.05,0.38,1.86,
0.864,0.03,0.01,1.12,-0.10,0.33,1.70,
0.866,0.03,0.01,1.10,-0.10,0.33,1.70,
0.869,0.01,0.00,1.07,-0.10,0.33,1.70,
0.869,0.01,0.00,1.07,-0.17,0.25,1.47,
0.871,-0.01,-0.00,1.05,-0.17,0.25,1.47,
0.873,-0.03,-0.01,1.03,-0.17,0.25,1.47,
0.873,-0.03,-0.01,1.03,-0.33,0.16,1.05,
0.876,-0.05,-0.02,1.00,-0.33,0.16,1.05,
0.879,-0.05,-0.02,0.98,-0.33,0.16,1.05,
0.879,-0.05,-0.02,0.98,-0.67,0.04,0.59,
0.881,-0.05,-0.03,0.97,-0.67,0.04,0.59,
0.884,-0.05,-0.02,0.94,-0.67,0.04,0.59,
0.884,-0.05,-0.02,0.94,-0.96,-0.11,0.11,
0.886,-0.04,-0.02,0.93,-0.96,-0.11,0.11,
0.891,-0.04,-0.01,0.92,-0.96,-0.11,0.11,
0.892,-0.04,-0.01,0.92,-0.93,-0.17,-0.26,
0.892,-0.04,-0.00,0.91,-0.93,-0.17,-0.26,
0.893,-0.04,0.00,0.91,-0.93,-0.17,-0.26,
0.894,-0.04,0.00,0.91,-0.80,-0.06,-0.56,
0.896,-0.05,0.01,0.92,-0.80,-0.06,-0.56,
0.898,-0.05,0.01,0.93,-0.80,-0.06,-0.56,
0.898,-0.05,0.01,0.93,-0.75,0.05,-0.66,
0.901,-0.05,0.02,0.94,-0.75,0.05,-0.66,
0.904,-0.05,0.02,0.95,-0.75,0.05,-0.66,
0.905,-0.05,0.02,0.95,-0.75,0.15,-0.57,
0.905,-0.04,0.01,0.96,-0.75,0.15,-0.57,
0.908,-0.05,0.01,0.97,-0.75,0.15,-0.57,
0.908,-0.05,0.01,0.97,-0.71,0.21,-0.31,
0.911,-0.04,0.01,0.98,-0.71,0.21,-0.31,
0.914,-0.04,0.01,0.98,-0.64,0.20,-0.16,
0.914,-0.03,0.01,1.00,-0.64,0.20,-0.16,
0.916,-0.02,0.01,1.02,-0.64,0.20,-0.16,
0.918,-0.02,0.01,1.04,-0.64,0.20,-0.16,
0.918,-0.02,0.01,1.04,-0.50,0.22,0.07,
0.921,-0.01,0.02,1.05,-0.50,0.22,0.07,
0.923,-0.00,0.02,1.07,-0.50,0.22,0.07,
0.923,-0.00,0.02,1.07,-0.35,0.24,0.45,
0.926,-0.00,0.01,1.09,-0.35,0.24,0.45,
0.928,0.00,0.01,1.10,-0.35,0.24,0.45,
0.928,0.00,0.01,1.10,-0.22,0.30,0.79,
0.931,0.01,0.01,1.11,-0.22,0.30,0.79,
0.933,0.01,0.01,1.11,-0.22,0.30,0.79,
0.933,0.01,0.01,1.11,-0.13,0.30,1.11,
0.936,0.01,0.01,1.12,-0.13,0.30,1.11,
0.938,0.01,0.01,1.13,-0.13,0.30,1.11,
0.939,0.01,0.01,1.13,-0.08,0.31,1.26,
0.94,0.02,0.01,1.14,-0.08,0.31,1.26,
0.943,0.03,0.00,1.15,-0.08,0.31,1.26,
0.943,0.03,0.00,1.15,-0.08,0.33,1.40,
0.946,0.03,-0.00,1.16,-0.08,0.33,1.40,
0.948,0.03,-0.01,1.17,-0.08,0.33,1.40,
0.948,0.03,-0.01,1.17,0.07,0.33,1.61,
0.95,0.02,-0.01,1.18,0.07,0.33,1.61,
0.953,0.02,-0.02,1.19,0.07,0.33,1.61,
0.953,0.02,-0.02,1.19,0.06,0.27,1.81,
0.955,0.02,-0.02,1.20,0.06,0.27,1.81,
0.958,0.01,-0.02,1.20,0.06,0.27,1.81,
0.958,0.01,-0.02,1.20,-0.04,0.20,1.98,
0.96,0.01,-0.02,1.21,-0.04,0.20,1.98,
0.963,0.01,-0.02,1.20,-0.04,0.20,1.98,
0.963,0.01,-0.02,1.20,-0.08,0.17,2.13,
0.965,0.01,-0.02,1.20,-0.08,0.17,2.13,
0.968,-0.01,-0.01,1.20,-0.08,0.17,2.13,
0.969,-0.01,-0.01,1.20,-0.17,0.19,2.17,
0.971,-0.01,-0.00,1.19,-0.17,0.19,2.17,
0.972,-0.03,-0.00,1.19,-0.17,0.19,2.17,
0.972,-0.03,-0.00,1.19,-0.27,0.28,2.13,
0.975,-0.03,-0.00,1.19,-0.27,0.28,2.13,
0.978,-0.04,0.00,1.17,-0.27,0.28,2.13,
0.978,-0.04,0.00,1.17,-0.46,0.40,2.04,
0.98,-0.05,0.01,1.16,-0.46,0.40,2.04,
0.983,-0.06,0.01,1.15,-0.46,0.40,2.04,
0.983,-0.06,0.01,1.15,-0.63,0.42,1.90,
0.985,-0.06,0.01,1.13,-0.63,0.42,1.90,
0.987,-0.06,0.01,1.10,-0.63,0.42,1.90,
0.988,-0.06,0.01,1.10,-0.75,0.48,1.66,
0.99,-0.07,0.01,1.08,-0.75,0.48,1.66,
0.993,-0.07,0.01,1.06,-0.75,0.48,1.66,
0.993,-0.07,0.01,1.06,-0.83,0.49,1.25,
0.995,-0.07,0.01,1.04,-0.83,0.49,1.25,
0.997,-0.06,0.01,1.02,-0.83,0.49,1.25,
0.998,-0.06,0.01,1.02,-0.89,0.45,0.77,
1.0,-0.05,0.01,1.01,-0.89,0.45,0.77,
1.002,-0.04,0.02,1.00,-0.89,0.45,0.77,
1.002,-0.04,0.02,1.00,-0.79,0.44,0.43,
1.007,-0.03,0.03,0.98,-0.79,0.44,0.43,
1.008,-0.03,0.03,0.98,-0.55,0.49,0.13,
1.008,-0.01,0.04,0.96,-0.55,0.49,0.13,
1.011,-0.01,0.03,0.95,-0.55,0.49,0.13,
1.012,0.00,0.03,0.94,-0.55,0.49,0.13,
1.013,0.00,0.03,0.94,-0.26,0.63,-0.18,
1.014,0.01,0.04,0.92,-0.26,0.63,-0.18,
1.017,0.02,0.04,0.92,-0.26,0.63,-0.18,
1.017,0.02,0.04,0.92,-0.05,0.63,-0.45,
1.024,0.02,0.04,0.91,-0.05,0.63,-0.45,
1.025,0.03,0.03,0.91,-0.05,0.63,-0.45,
1.025,0.03,0.03,0.91,0.15,0.65,-0.69,
1.025,0.04,0.03,0.92,0.15,0.65,-0.69,
1.026,0.05,0.03,0.92,0.15,0.65,-0.69,
1.027,0.05,0.03,0.92,0.28,0.63,-0.76,
1.029,0.06,0.04,0.93,0.28,0.63,-0.76,
1.032,0.07,0.03,0.95,0.28,0.63,-0.76,
1.032,0.07,0.03,0.95,0.49,0.60,-0.68,
1.035,0.07,0.04,0.97,0.49,0.60,-0.68,
1.036,0.08,0.04,0.99,0.49,0.60,-0.68,
1.038,0.08,0.04,0.99,0.63,0.64,-0.48,
1.039,0.07,0.04,1.02,0.63,0.64,-0.48,
1.042,0.07,0.03,1.05,0.63,0.64,-0.48,
1.042,0.07,0.03,1.05,0.73,0.70,-0.07,
1.045,0.06,0.03,1.07,0.73,0.70,-0.07,
1.047,0.06,0.02,1.10,0.73,0.70,-0.07,
1.047,0.06,0.02,1.10,0.71,0.71,0.45,
1.049,0.05,0.01,1.13,0.71,0.71,0.45,
1.052,0.04,0.00,1.16,0.71,0.71,0.45,
1.053,0.04,0.00,1.16,0.57,0.65,0.98,
1.055,0.03,-0.00,1.19,0.57,0.65,0.98,
1.056,0.02,-0.01,1.22,0.57,0.65,0.98,
1.057,0.02,-0.01,1.22,0.45,0.52,1.55,
1.059,0.01,-0.02,1.24,0.45,0.52,1.55,
1.062,0.01,-0.02,1.24,0.24,0.41,2.12,
1.062,0.01,-0.02,1.27,0.24,0.41,2.12,
1.065,-0.00,-0.03,1.29,0.24,0.41,2.12,
1.066,-0.01,-0.03,1.31,0.24,0.41,2.12,
1.066,-0.01,-0.03,1.31,0.08,0.31,2.58,
1.069,-0.01,-0.04,1.31,0.08,0.31,2.58,
1.071,-0.03,-0.04,1.32,0.08,0.31,2.58,
1.072,-0.03,-0.04,1.32,-0.10,0.24,3.04,
1.075,-0.04,-0.04,1.34,-0.10,0.24,3.04,
1.077,-0.04,-0.04,1.36,-0.10,0.24,3.04,
1.077,-0.04,-0.04,1.36,-0.26,0.22,3.19,
1.079,-0.04,-0.05,1.37,-0.26,0.22,3.19,
1.082,-0.04,-0.05,1.37,-0.45,0.22,3.53,
1.082,-0.05,-0.04,1.37,-0.45,0.22,3.53,
1.084,-0.07,-0.04,1.38,-0.45,0.22,3.53,
1.087,-0.08,-0.04,1.38,-0.45,0.22,3.53,
1.087,-0.08,-0.04,1.38,-0.51,0.20,3.72,
1.089,-0.09,-0.04,1.40,-0.51,0.20,3.72,
1.091,-0.10,-0.05,1.40,-0.51,0.20,3.72,
1.091,-0.10,-0.05,1.40,-0.74,0.26,3.79,
1.094,-0.11,-0.04,1.40,-0.74,0.26,3.79,
1.097,-0.11,-0.04,1.38,-0.74,0.26,3.79,
1.097,-0.11,-0.04,1.38,-0.93,0.20,3.99,
1.098,-0.12,-0.04,1.39,-0.93,0.20,3.99,
1.101,-0.11,-0.03,1.39,-0.93,0.20,3.99,
1.102,-0.11,-0.03,1.39,-1.06,0.21,3.87,
1.103,-0.11,-0.03,1.38,-1.06,0.21,3.87,
1.105,-0.11,-0.02,1.37,-1.06,0.21,3.87,
1.106,-0.11,-0.02,1.37,-1.07,0.32,3.85,
1.108,-0.11,-0.01,1.36,-1.07,0.32,3.85,
1.112,-0.11,-0.01,1.36,-1.02,0.42,3.72,
1.112,-0.11,-0.01,1.36,-1.02,0.42,3.72,
1.114,-0.10,-0.00,1.35,-1.02,0.42,3.72,
1.116,-0.09,0.00,1.33,-1.02,0.42,3.72,
1.116,-0.09,0.00,1.33,-0.98,0.51,3.54,
1.118,-0.08,0.00,1.32,-0.98,0.51,3.54,
1.126,-0.07,0.00,1.31,-0.98,0.51,3.54,
1.126,-0.07,0.00,1.31,-0.84,0.58,3.32,
1.126,-0.06,0.00,1.30,-0.84,0.58,3.32,
1.127,-0.05,0.01,1.28,-0.84,0.58,3.32,
1.127,-0.05,0.01,1.28,-0.63,0.60,3.06,
1.128,-0.03,0.01,1.27,-0.63,0.60,3.06,
1.13,-0.02,0.00,1.26,-0.63,0.60,3.06,
1.13,-0.02,0.00,1.26,-0.38,0.58,2.80,
1.133,-0.01,-0.00,1.25,-0.38,0.58,2.80,
1.135,0.01,0.00,1.23,-0.38,0.58,2.80,
1.136,0.01,0.00,1.23,-0.12,0.56,2.57,
1.146,0.02,0.01,1.23,-0.12,0.56,2.57,
1.147,0.03,0.01,1.22,-0.12,0.56,2.57,
1.147,0.03,0.01,1.22,0.16,0.52,2.31,
1.148,0.04,0.01,1.21,0.16,0.52,2.31,
1.148,0.05,0.01,1.20,0.16,0.52,2.31,
1.148,0.05,0.01,1.20,0.38,0.59,2.14,
1.148,0.05,0.01,1.20,0.38,0.59,2.14,
1.151,0.06,0.01,1.19,0.38,0.59,2.14,
1.152,0.06,0.01,1.19,0.55,0.57,1.99,
1.153,0.06,0.02,1.19,0.55,0.57,1.99,
1.156,0.05,0.01,1.19,0.55,0.57,1.99,
1.159,0.05,0.01,1.19,0.63,0.56,1.87,
1.159,0.05,0.01,1.18,0.63,0.56,1.87,
1.16,0.05,0.02,1.17,0.63,0.56,1.87,
1.161,0.05,0.02,1.17,0.65,0.61,1.77,
1.163,0.04,0.02,1.17,0.65,0.61,1.77,
1.165,0.03,0.02,1.16,0.65,0.61,1.77,
1.166,0.03,0.02,1.16,0.59,0.63,1.65,
1.168,0.02,0.02,1.16,0.59,0.63,1.65,
1.171,0.01,0.02,1.15,0.59,0.63,1.65,
1.172,0.01,0.02,1.15,0.41,0.70,1.51,
1.173,-0.00,0.02,1.15,0.41,0.70,1.51,
1.175,-0.01,0.02,1.15,0.41,0.70,1.51,
1.175,-0.01,0.02,1.15,0.15,0.69,1.47,
1.177,-0.02,0.02,1.15,0.15,0.69,1.47,
1.18,-0.03,0.02,1.15,0.15,0.69,1.47,
1.18,-0.03,0.02,1.15,-0.03,0.69,1.38,
1.182,-0.04,0.02,1.16,-0.03,0.69,1.38,
1.185,-0.04,0.02,1.15,-0.03,0.69,1.38,
1.185,-0.04,0.02,1.15,-0.21,0.67,1.43,
1.188,-0.04,0.02,1.16,-0.21,0.67,1.43,
1.19,-0.04,0.02,1.17,-0.21,0.67,1.43,
1.19,-0.04,0.02,1.17,-0.40,0.67,1.41,
1.192,-0.05,0.01,1.18,-0.40,0.67,1.41,
1.195,-0.05,0.01,1.20,-0.40,0.67,1.41,
1.195,-0.05,0.01,1.20,-0.43,0.63,1.49,
1.197,-0.05,0.01,1.21,-0.43,0.63,1.49,
1.2,-0.05,0.01,1.23,-0.43,0.63,1.49,
1.201,-0.05,0.01,1.23,-0.50,0.57,1.79,
1.203,-0.04,-0.01,1.24,-0.50,0.57,1.79,
1.206,-0.04,-0.01,1.25,-0.50,0.57,1.79,
1.207,-0.04,-0.01,1.25,-0.50,0.55,2.08,
1.208,-0.04,-0.01,1.26,-0.50,0.55,2.08,
1.21,-0.04,-0.01,1.26,-0.46,0.41,2.30,
1.21,-0.04,-0.02,1.27,-0.46,0.41,2.30,
1.213,-0.03,-0.03,1.28,-0.46,0.41,2.30,
1.215,-0.02,-0.03,1.28,-0.46,0.41,2.30,
1.215,-0.02,-0.03,1.28,-0.42,0.28,2.47,
1.218,-0.02,-0.04,1.29,-0.42,0.28,2.47,
1.22,-0.01,-0.03,1.28,-0.42,0.28,2.47,
1.22,-0.01,-0.03,1.28,-0.30,0.16,2.62,
1.222,-0.00,-0.04,1.27,-0.30,0.16,2.62,
1.225,-0.00,-0.03,1.26,-0.30,0.16,2.62,
1.225,-0.00,-0.03,1.26,-0.19,0.08,2.63,
1.228,0.00,-0.03,1.25,-0.19,0.08,2.63,
1.23,0.01,-0.03,1.23,-0.19,0.08,2.63,
1.23,0.01,-0.03,1.23,-0.08,0.03,2.48,
1.233,0.01,-0.02,1.22,-0.08,0.03,2.48,
1.235,0.02,-0.02,1.21,-0.08,0.03,2.48,
1.235,0.02,-0.02,1.21,0.01,0.07,2.22,
1.242,0.02,-0.02,1.19,0.01,0.07,2.22,
1.243,0.02,-0.01,1.17,0.01,0.07,2.22,
1.243,0.02,-0.01,1.17,0.10,0.09,1.94,
1.243,0.03,-0.01,1.16,0.10,0.09,1.94,
1.244,0.03,-0.00,1.14,0.10,0.09,1.94,
1.244,0.03,-0.00,1.14,0.19,0.12,1.63,
1.247,0.04,0.01,1.12,0.19,0.12,1.63,
1.249,0.04,0.02,1.10,0.19,0.12,1.63,
1.249,0.04,0.02,1.10,0.27,0.17,1.32,
1.252,0.04,0.03,1.08,0.27,0.17,1.32,
1.255,0.04,0.03,1.07,0.27,0.17,1.32,
1.256,0.04,0.03,1.07,0.34,0.29,0.92,
1.257,0.04,0.03,1.05,0.34,0.29,0.92,
1.259,0.04,0.04,1.04,0.34,0.29,0.92,
1.259,0.04,0.04,1.04,0.38,0.41,0.59,
1.262,0.04,0.04,1.03,0.38,0.41,0.59,
1.264,0.04,0.04,1.02,0.38,0.41,0.59,
1.264,0.04,0.04,1.02,0.38,0.44,0.28,
1.267,0.05,0.05,1.01,0.38,0.44,0.28,
1.269,0.05,0.05,1.01,0.38,0.44,0.28,
1.269,0.05,0.05,1.01,0.40,0.44,0.07,
1.272,0.05,0.05,1.01,0.40,0.44,0.07,
1.274,0.05,0.05,1.00,0.40,0.44,0.07,
1.274,0.05,0.05,1.00,0.43,0.49,-0.04,
1.276,0.05,0.05,1.01,0.43,0.49,-0.04,
1.279,0.06,0.05,1.02,0.43,0.49,-0.04,
1.279,0.06,0.05,1.02,0.44,0.47,-0.11,
1.281,0.05,0.05,1.03,0.44,0.47,-0.11,
1.284,0.05,0.05,1.04,0.44,0.47,-0.11,
1.284,0.05,0.05,1.04,0.50,0.46,-0.06,
1.286,0.04,0.05,1.05,0.50,0.46,-0.06,
1.289,0.04,0.05,1.06,0.50,0.46,-0.06,
1.29,0.04,0.05,1.06,0.46,0.45,0.14,
1.291,0.03,0.04,1.07,0.46,0.45,0.14,
1.295,0.03,0.04,1.08,0.46,0.45,0.14,
1.295,0.03,0.04,1.08,0.40,0.36,0.38,
1.296,0.03,0.04,1.10,0.40,0.36,0.38,
1.299,0.03,0.04,1.09,0.40,0.36,0.38,
1.299,0.03,0.04,1.09,0.31,0.32,0.56,
1.301,0.03,0.04,1.09,0.31,0.32,0.56,
1.306,0.03,0.04,1.09,0.31,0.32,0.56,
1.306,0.03,0.04,1.09,0.27,0.25,0.76,
1.306,0.02,0.04,1.09,0.27,0.25,0.76,
1.309,0.01,0.04,1.08,0.27,0.25,0.76,
1.309,0.01,0.04,1.08,0.22,0.22,0.74,
1.311,0.02,0.05,1.09,0.22,0.22,0.74,
1.313,0.02,0.04,1.09,0.22,0.22,0.74,
1.314,0.02,0.04,1.09,0.11,0.22,0.65,
1.316,0.01,0.05,1.10,0.11,0.22,0.65,
1.319,-0.00,0.05,1.10,0.11,0.22,0.65,
1.322,-0.00,0.05,1.10,0.12,0.26,0.70,
1.322,-0.01,0.05,1.10,0.12,0.26,0.70,
1.324,-0.01,0.05,1.10,0.12,0.26,0.70,
1.325,-0.01,0.05,1.10,-0.04,0.27,0.76,
1.326,-0.02,0.05,1.11,-0.04,0.27,0.76,
1.33,-0.03,0.05,1.12,-0.04,0.27,0.76,
1.33,-0.03,0.05,1.12,-0.17,0.25,0.81,
1.332,-0.03,0.04,1.12,-0.17,0.25,0.81,
1.334,-0.03,0.04,1.12,-0.33,0.24,0.91,
1.335,-0.03,0.05,1.11,-0.33,0.24,0.91,
1.337,-0.03,0.05,1.11,-0.33,0.24,0.91,
1.34,-0.03,0.04,1.11,-0.33,0.24,0.91,
1.341,-0.03,0.04,1.11,-0.44,0.20,0.96,
1.341,-0.03,0.04,1.10,-0.44,0.20,0.96,
1.344,-0.03,0.04,1.09,-0.44,0.20,0.96,
1.344,-0.03,0.04,1.09,-0.45,0.14,0.87,
1.346,-0.03,0.04,1.09,-0.45,0.14,0.87,
1.348,-0.03,0.03,1.08,-0.45,0.14,0.87,
1.349,-0.03,0.03,1.08,-0.43,0.08,0.76,
1.351,-0.03,0.03,1.08,-0.43,0.08,0.76,
1.353,-0.03,0.03,1.07,-0.43,0.08,0.76,
1.353,-0.03,0.03,1.07,-0.43,0.01,0.66,
1.358,-0.04,0.02,1.07,-0.43,0.01,0.66,
1.36,-0.04,0.02,1.07,-0.43,0.01,0.66,
1.36,-0.04,0.02,1.07,-0.50,-0.08,0.52,
1.364,-0.04,0.02,1.07,-0.50,-0.08,0.52,
1.364,-0.04,0.00,1.07,-0.50,-0.08,0.52,
1.364,-0.04,0.00,1.07,-0.58,-0.18,0.48,
1.366,-0.04,0.00,1.07,-0.58,-0.18,0.48,
1.368,-0.04,0.00,1.08,-0.58,-0.18,0.48,
1.368,-0.04,0.00,1.08,-0.61,-0.31,0.48,
1.371,-0.04,-0.00,1.07,-0.61,-0.31,0.48,
1.373,-0.04,-0.00,1.07,-0.61,-0.31,0.48,
1.374,-0.04,-0.00,1.07,-0.60,-0.42,0.53,
1.376,-0.03,-0.00,1.07,-0.60,-0.42,0.53,
1.378,-0.03,-0.00,1.07,-0.60,-0.42,0.53,
1.378,-0.03,-0.00,1.07,-0.53,-0.51,0.52,
1.381,-0.03,-0.00,1.07,-0.53,-0.51,0.52,
1.383,-0.02,-0.00,1.07,-0.53,-0.51,0.52,
1.384,-0.02,-0.00,1.07,-0.46,-0.52,0.48,
1.386,-0.01,-0.00,1.07,-0.46,-0.52,0.48,
1.388,-0.00,0.00,1.06,-0.46,-0.52,0.48,
1.388,-0.00,0.00,1.06,-0.37,-0.56,0.48,
1.391,0.00,0.00,1.05,-0.37,-0.56,0.48,
1.393,0.01,0.01,1.04,-0.37,-0.56,0.48,
1.393,0.01,0.01,1.04,-0.20,-0.59,0.44,
1.396,0.02,0.01,1.04,-0.20,-0.59,0.44,
1.398,0.02,0.02,1.02,-0.20,-0.59,0.44,
1.398,0.02,0.02,1.02,-0.03,-0.55,0.30,
1.401,0.02,0.02,1.02,-0.03,-0.55,0.30,
1.403,0.02,0.02,1.02,-0.03,-0.55,0.30,
1.404,0.02,0.02,1.02,0.09,-0.50,0.11,
1.407,0.01,0.03,1.01,0.09,-0.50,0.11,
1.408,0.01,0.03,1.00,0.09,-0.50,0.11,
1.408,0.01,0.03,1.00,0.10,-0.47,0.00,
1.41,0.01,0.04,1.00,0.10,-0.47,0.00,
1.413,-0.00,0.04,0.99,0.10,-0.47,0.00,
1.413,-0.00,0.04,0.99,0.01,-0.42,-0.14,
1.416,-0.00,0.06,0.97,0.01,-0.42,-0.14,
1.418,-0.00,0.06,0.96,0.01,-0.42,-0.14,
1.419,-0.00,0.06,0.96,-0.05,-0.36,-0.27,
1.421,-0.01,0.06,0.96,-0.05,-0.36,-0.27,
1.424,-0.02,0.07,0.96,-0.05,-0.36,-0.27,
1.424,-0.02,0.07,0.96,-0.07,-0.21,-0.48,
1.425,-0.02,0.08,0.95,-0.07,-0.21,-0.48,
1.428,-0.02,0.08,0.94,-0.07,-0.21,-0.48,
1.428,-0.02,0.08,0.94,-0.19,-0.15,-0.56,
1.431,-0.03,0.08,0.94,-0.19,-0.15,-0.56,
1.433,-0.04,0.09,0.93,-0.19,-0.15,-0.56,
1.434,-0.04,0.09,0.93,-0.26,-0.06,-0.72,
1.436,-0.04,0.09,0.93,-0.26,-0.06,-0.72,
1.438,-0.06,0.10,0.93,-0.26,-0.06,-0.72,
1.438,-0.06,0.10,0.93,-0.39,-0.04,-0.80,
1.441,-0.07,0.10,0.93,-0.39,-0.04,-0.80,
1.442,-0.07,0.11,0.94,-0.39,-0.04,-0.80,
1.443,-0.07,0.11,0.94,-0.57,0.01,-0.83,
1.446,-0.07,0.11,0.95,-0.57,0.01,-0.83,
1.448,-0.07,0.12,0.96,-0.57,0.01,-0.83,
1.448,-0.07,0.12,0.96,-0.74,0.07,-0.83,
1.45,-0.07,0.12,0.95,-0.74,0.07,-0.83,
1.453,-0.07,0.13,0.95,-0.74,0.07,-0.83,
1.453,-0.07,0.13,0.95,-0.80,0.16,-0.60,
1.455,-0.06,0.13,0.97,-0.80,0.16,-0.60,
1.461,-0.07,0.12,0.98,-0.80,0.16,-0.60,
1.461,-0.07,0.12,0.98,-0.76,0.25,-0.60,
1.461,-0.07,0.12,0.99,-0.76,0.25,-0.60,
1.463,-0.08,0.12,0.99,-0.76,0.25,-0.60,
1.463,-0.08,0.12,0.99,-0.74,0.21,-0.38,
1.465,-0.07,0.12,0.99,-0.74,0.21,-0.38,
1.467,-0.06,0.11,1.00,-0.74,0.21,-0.38,
1.467,-0.06,0.11,1.00,-0.84,0.16,-0.25,
1.471,-0.05,0.10,1.01,-0.84,0.16,-0.25,
1.473,-0.05,0.09,1.01,-0.84,0.16,-0.25,
1.473,-0.05,0.09,1.01,-0.77,0.05,-0.17,
1.475,-0.05,0.09,1.01,-0.77,0.05,-0.17,
1.477,-0.05,0.09,1.00,-0.77,0.05,-0.17,
1.478,-0.05,0.09,1.00,-0.59,-0.13,-0.08,
1.48,-0.05,0.09,0.99,-0.59,-0.13,-0.08,
1.483,-0.05,0.09,0.99,-0.58,-0.21,-0.08,
1.483,-0.05,0.08,0.99,-0.58,-0.21,-0.08,
1.486,-0.04,0.07,1.02,-0.58,-0.21,-0.08,
1.488,-0.04,0.07,1.02,-0.58,-0.21,-0.08,
1.488,-0.04,0.07,1.02,-0.58,-0.30,-0.21,
1.49,-0.04,0.07,1.01,-0.58,-0.30,-0.21,
1.492,-0.04,0.07,1.01,-0.58,-0.30,-0.21,
1.492,-0.04,0.07,1.01,-0.51,-0.43,0.09,
1.495,-0.04,0.08,1.00,-0.51,-0.43,0.09,
1.497,-0.03,0.08,1.00,-0.51,-0.43,0.09,
1.497,-0.03,0.08,1.00,-0.48,-0.50,-0.02,
1.499,-0.03,0.09,0.99,-0.48,-0.50,-0.02,
1.501,-0.02,0.09,0.98,-0.48,-0.50,-0.02,
1.502,-0.02,0.09,0.98,-0.44,-0.40,-0.11,
1.504,-0.02,0.10,0.98,-0.44,-0.40,-0.11,
1.508,-0.02,0.10,0.96,-0.44,-0.40,-0.11,
1.508,-0.02,0.10,0.96,-0.35,-0.33,-0.28,
1.509,-0.03,0.10,0.95,-0.35,-0.33,-0.28,
1.511,-0.03,0.10,0.95,-0.34,-0.25,-0.41,
1.512,-0.03,0.10,0.94,-0.34,-0.25,-0.41,
1.514,-0.03,0.10,0.93,-0.34,-0.25,-0.41,
1.516,-0.03,0.10,0.91,-0.34,-0.25,-0.41,
1.517,-0.03,0.10,0.91,-0.40,-0.30,-0.61,
1.519,-0.03,0.09,0.90,-0.40,-0.30,-0.61,
1.524,-0.04,0.09,0.89,-0.40,-0.30,-0.61,
1.524,-0.04,0.09,0.89,-0.44,-0.37,-0.86,
1.524,-0.03,0.09,0.88,-0.44,-0.37,-0.86,
1.526,-0.05,0.09,0.88,-0.44,-0.37,-0.86,
1.527,-0.05,0.09,0.88,-0.47,-0.47,-1.11,
1.529,-0.05,0.09,0.87,-0.47,-0.47,-1.11,
1.531,-0.05,0.09,0.87,-0.55,-0.52,-1.26,
1.532,-0.04,0.09,0.87,-0.55,-0.52,-1.26,
1.534,-0.04,0.09,0.86,-0.55,-0.52,-1.26,
1.536,-0.04,0.08,0.85,-0.55,-0.52,-1.26,
1.536,-0.04,0.08,0.85,-0.59,-0.54,-1.35,
1.54,-0.04,0.08,0.85,-0.59,-0.54,-1.35,
1.541,-0.04,0.08,0.84,-0.59,-0.54,-1.35,
1.542,-0.04,0.08,0.84,-0.54,-0.59,-1.50,
1.544,-0.04,0.08,0.83,-0.54,-0.59,-1.50,
1.546,-0.04,0.08,0.83,-0.60,-0.67,-1.61,
1.547,-0.04,0.07,0.83,-0.60,-0.67,-1.61,
1.549,-0.03,0.07,0.82,-0.60,-0.67,-1.61,
1.552,-0.03,0.07,0.83,-0.60,-0.67,-1.61,
1.552,-0.03,0.07,0.83,-0.58,-0.73,-1.74,
1.554,-0.02,0.07,0.83,-0.58,-0.73,-1.74,
1.562,-0.03,0.07,0.83,-0.58,-0.73,-1.74,
1.563,-0.03,0.07,0.83,-0.48,-0.78,-1.74,
1.564,-0.02,0.07,0.84,-0.48,-0.78,-1.74,
1.564,-0.02,0.07,0.85,-0.48,-0.78,-1.74,
1.564,-0.02,0.07,0.85,-0.46,-0.81,-1.69,
1.565,-0.01,0.07,0.85,-0.46,-0.81,-1.69,
1.567,-0.01,0.07,0.85,-0.46,-0.81,-1.69,
1.567,-0.01,0.07,0.85,-0.43,-0.80,-1.58,
1.569,-0.00,0.06,0.86,-0.43,-0.80,-1.58,
1.571,0.00,0.06,0.88,-0.43,-0.80,-1.58,
1.571,0.00,0.06,0.88,-0.34,-0.86,-1.49,
1.574,0.00,0.05,0.90,-0.34,-0.86,-1.49,
1.577,-0.01,0.04,0.90,-0.34,-0.86,-1.49,
1.577,-0.01,0.04,0.90,-0.23,-0.95,-1.31,
1.58,-0.01,0.04,0.91,-0.23,-0.95,-1.31,
1.581,-0.01,0.04,0.91,-0.23,-0.95,-1.31,
1.581,-0.01,0.04,0.91,-0.28,-1.07,-0.99,
1.583,-0.01,0.04,0.91,-0.28,-1.07,-0.99,
1.587,-0.01,0.04,0.90,-0.28,-1.07,-0.99,
1.587,-0.01,0.04,0.90,-0.32,-1.15,-0.89,
1.59,0.00,0.04,0.92,-0.32,-1.15,-0.89,
1.592,0.00,0.04,0.93,-0.32,-1.15,-0.89,
1.593,0.00,0.04,0.93,-0.33,-1.17,-0.90,
1.593,0.00,0.05,0.93,-0.33,-1.17,-0.90,
1.596,-0.00,0.05,0.92,-0.33,-1.17,-0.90,
1.596,-0.00,0.05,0.92,-0.24,-1.16,-0.74,
1.598,-0.01,0.06,0.92,-0.24,-1.16,-0.74,
1.601,-0.00,0.06,0.91,-0.24,-1.16,-0.74,
1.601,-0.00,0.06,0.91,-0.30,-1.13,-0.73,
1.603,-0.01,0.08,0.91,-0.30,-1.13,-0.73,
1.607,-0.01,0.09,0.91,-0.30,-1.13,-0.73,
1.607,-0.01,0.09,0.91,-0.34,-1.03,-0.82,
1.609,-0.01,0.09,0.91,-0.34,-1.03,-0.82,
1.61,-0.02,0.10,0.90,-0.34,-1.03,-0.82,
1.611,-0.02,0.10,0.90,-0.43,-0.82,-0.82,
1.613,-0.02,0.11,0.89,-0.43,-0.82,-0.82,
1.615,-0.03,0.11,0.87,-0.43,-0.82,-0.82,
1.616,-0.03,0.11,0.87,-0.48,-0.71,-0.93,
1.618,-0.03,0.12,0.87,-0.48,-0.71,-0.93,
1.62,-0.04,0.12,0.85,-0.48,-0.71,-0.93,
1.621,-0.04,0.12,0.85,-0.58,-0.62,-1.14,
1.624,-0.03,0.12,0.83,-0.58,-0.62,-1.14,
1.625,-0.04,0.11,0.82,-0.58,-0.62,-1.14,
1.626,-0.04,0.11,0.82,-0.67,-0.57,-1.37,
1.628,-0.04,0.11,0.81,-0.67,-0.57,-1.37,
1.631,-0.04,0.11,0.81,-0.68,-0.63,-1.65,
1.631,-0.03,0.10,0.80,-0.68,-0.63,-1.65,
1.633,-0.03,0.10,0.79,-0.68,-0.63,-1.65,
1.635,-0.03,0.10,0.77,-0.68,-0.63,-1.65,
1.636,-0.03,0.10,0.77,-0.69,-0.76,-1.88,
1.638,-0.03,0.10,0.76,-0.69,-0.76,-1.88,
1.641,-0.03,0.10,0.75,-0.69,-0.76,-1.88,
1.642,-0.03,0.10,0.75,-0.67,-0.82,-2.11,
1.643,-0.02,0.10,0.75,-0.67,-0.82,-2.11,
1.646,-0.02,0.11,0.74,-0.67,-0.82,-2.11,
1.646,-0.02,0.11,0.74,-0.65,-0.85,-2.32,
1.648,-0.02,0.10,0.74,-0.65,-0.85,-2.32,
1.65,-0.02,0.11,0.74,-0.65,-0.85,-2.32,
1.651,-0.02,0.11,0.74,-0.56,-0.84,-2.44,
1.653,-0.02,0.11,0.73,-0.56,-0.84,-2.44,
1.656,-0.02,0.11,0.73,-0.56,-0.84,-2.44,
1.657,-0.02,0.11,0.73,-0.51,-0.86,-2.44,
1.665,-0.02,0.11,0.74,-0.51,-0.86,-2.44,
1.666,-0.02,0.11,0.74,-0.51,-0.86,-2.44,
1.666,-0.02,0.11,0.74,-0.49,-0.86,-2.54,
1.667,-0.03,0.12,0.74,-0.49,-0.86,-2.54,
1.667,-0.03,0.13,0.76,-0.49,-0.86,-2.54,
1.667,-0.03,0.13,0.76,-0.52,-0.81,-2.42,
1.668,-0.04,0.13,0.76,-0.52,-0.81,-2.42,
1.67,-0.05,0.13,0.77,-0.52,-0.81,-2.42,
1.671,-0.05,0.13,0.77,-0.63,-0.74,-2.32,
1.674,-0.04,0.14,0.78,-0.63,-0.74,-2.32,
1.676,-0.04,0.14,0.79,-0.63,-0.74,-2.32,
1.677,-0.04,0.14,0.79,-0.73,-0.69,-2.16,
1.678,-0.05,0.15,0.79,-0.73,-0.69,-2.16,
1.68,-0.05,0.15,0.79,-0.74,-0.59,-1.96,
1.68,-0.04,0.15,0.79,-0.74,-0.59,-1.96,
1.683,-0.04,0.16,0.81,-0.74,-0.59,-1.96,
1.686,-0.04,0.16,0.80,-0.74,-0.59,-1.96,
1.686,-0.04,0.16,0.80,-0.74,-0.51,-1.87,
1.688,-0.03,0.16,0.80,-0.74,-0.51,-1.87,
1.691,-0.03,0.15,0.81,-0.74,-0.51,-1.87,
1.691,-0.03,0.15,0.81,-0.69,-0.43,-1.76,
1.693,-0.03,0.15,0.81,-0.69,-0.43,-1.76,
1.695,-0.03,0.15,0.82,-0.69,-0.43,-1.76,
1.696,-0.03,0.15,0.82,-0.63,-0.47,-1.71,
1.697,-0.03,0.15,0.82,-0.63,-0.47,-1.71,
1.701,-0.03,0.15,0.82,-0.59,-0.51,-1.66,
1.701,-0.02,0.16,0.83,-0.59,-0.51,-1.66,
1.703,-0.02,0.15,0.82,-0.59,-0.51,-1.66,
1.705,-0.01,0.15,0.82,-0.59,-0.51,-1.66,
1.705,-0.01,0.15,0.82,-0.57,-0.51,-1.55,
1.708,-0.01,0.16,0.82,-0.57,-0.51,-1.55,
1.71,-0.02,0.16,0.84,-0.57,-0.51,-1.55,
1.71,-0.02,0.16,0.84,-0.49,-0.52,-1.59,
1.713,-0.03,0.16,0.84,-0.49,-0.52,-1.59,
1.715,-0.04,0.17,0.84,-0.49,-0.52,-1.59,
1.716,-0.04,0.17,0.84,-0.46,-0.49,-1.46,
1.718,-0.05,0.17,0.83,-0.46,-0.49,-1.46,
1.72,-0.06,0.18,0.83,-0.46,-0.49,-1.46,
1.72,-0.06,0.18,0.83,-0.68,-0.40,-1.37,
1.723,-0.07,0.19,0.83,-0.68,-0.40,-1.37,
1.725,-0.07,0.20,0.83,-0.68,-0.40,-1.37,
1.725,-0.07,0.20,0.83,-0.89,-0.31,-1.44,
1.727,-0.08,0.20,0.83,-0.89,-0.31,-1.44,
1.73,-0.08,0.20,0.83,-1.06,-0.20,-1.47,
1.73,-0.09,0.21,0.83,-1.06,-0.20,-1.47,
1.733,-0.09,0.21,0.82,-1.06,-0.20,-1.47,
1.735,-0.10,0.22,0.82,-1.06,-0.20,-1.47,
1.735,-0.10,0.22,0.82,-1.19,-0.08,-1.46,
1.738,-0.10,0.22,0.82,-1.19,-0.08,-1.46,
1.74,-0.10,0.23,0.82,-1.19,-0.08,-1.46,
1.74,-0.10,0.23,0.82,-1.27,0.03,-1.54,
1.743,-0.11,0.24,0.83,-1.27,0.03,-1.54,
1.744,-0.10,0.24,0.83,-1.27,0.03,-1.54,
1.745,-0.10,0.24,0.83,-1.33,0.10,-1.50,
1.747,-0.10,0.24,0.83,-1.33,0.10,-1.50,
1.75,-0.10,0.24,0.85,-1.33,0.10,-1.50,
1.75,-0.10,0.24,0.85,-1.36,0.20,-1.44,
1.753,-0.10,0.23,0.85,-1.36,0.20,-1.44,
1.755,-0.10,0.23,0.85,-1.26,0.19,-1.34,
1.755,-0.09,0.23,0.85,-1.26,0.19,-1.34,
1.757,-0.09,0.23,0.86,-1.26,0.19,-1.34,
1.759,-0.08,0.22,0.86,-1.26,0.19,-1.34,
1.76,-0.08,0.22,0.86,-1.23,0.10,-1.23,
1.762,-0.07,0.22,0.87,-1.23,0.10,-1.23,
1.765,-0.07,0.21,0.86,-1.23,0.10,-1.23,
1.765,-0.07,0.21,0.86,-1.16,0.05,-1.14,
1.767,-0.06,0.21,0.87,-1.16,0.05,-1.14,
1.77,-0.06,0.20,0.88,-1.16,0.05,-1.14,
1.77,-0.06,0.20,0.88,-0.99,-0.03,-1.07,
1.772,-0.04,0.20,0.88,-0.99,-0.03,-1.07,
1.778,-0.03,0.21,0.88,-0.99,-0.03,-1.07,
1.778,-0.03,0.21,0.88,-0.90,-0.15,-1.00,
1.779,-0.03,0.21,0.88,-0.90,-0.15,-1.00,
1.78,-0.03,0.21,0.88,-0.69,-0.16,-0.96,
1.78,-0.01,0.21,0.88,-0.69,-0.16,-0.96,
1.781,-0.01,0.21,0.88,-0.69,-0.16,-0.96,
1.784,0.00,0.21,0.88,-0.69,-0.16,-0.96,
1.784,0.00,0.21,0.88,-0.49,-0.15,-0.90,
1.787,0.01,0.21,0.88,-0.49,-0.15,-0.90,
1.789,0.01,0.20,0.88,-0.49,-0.15,-0.90,
1.79,0.01,0.20,0.88,-0.31,-0.16,-0.93,
1.792,0.02,0.20,0.88,-0.31,-0.16,-0.93,
1.794,0.03,0.21,0.88,-0.31,-0.16,-0.93,
1.794,0.03,0.21,0.88,-0.18,-0.18,-0.90,
1.796,0.04,0.21,0.88,-0.18,-0.18,-0.90,
1.799,0.05,0.21,0.88,-0.18,-0.18,-0.90,
1.799,0.05,0.21,0.88,-0.01,-0.17,-0.90,
1.801,0.04,0.21,0.88,-0.01,-0.17,-0.90,
1.803,0.04,0.20,0.88,-0.01,-0.17,-0.90,
1.804,0.04,0.20,0.88,0.15,-0.18,-0.91,
1.807,0.04,0.21,0.88,0.15,-0.18,-0.91,
1.809,0.04,0.21,0.88,0.15,-0.18,-0.91,
1.809,0.04,0.21,0.88,0.13,-0.18,-0.90,
1.811,0.03,0.20,0.88,0.13,-0.18,-0.90,
1.813,0.03,0.20,0.88,0.13,-0.18,-0.90,
1.816,0.03,0.20,0.88,0.10,-0.18,-0.93,
1.816,0.03,0.20,0.88,0.10,-0.18,-0.93,
1.819,0.03,0.20,0.89,0.10,-0.18,-0.93,
1.819,0.03,0.20,0.89,0.02,-0.23,-0.91,
1.822,0.03,0.20,0.89,0.02,-0.23,-0.91,
1.824,0.03,0.20,0.90,0.02,-0.23,-0.91,
1.825,0.03,0.20,0.90,-0.01,-0.23,-0.85,
1.826,0.02,0.20,0.91,-0.01,-0.23,-0.85,
1.828,0.02,0.20,0.92,-0.01,-0.23,-0.85,
1.828,0.02,0.20,0.92,-0.05,-0.26,-0.71,
1.831,0.03,0.20,0.92,-0.05,-0.26,-0.71,
1.833,0.03,0.20,0.92,-0.08,-0.27,-0.55,
1.833,0.02,0.20,0.93,-0.08,-0.27,-0.55,
1.836,0.02,0.19,0.94,-0.08,-0.27,-0.55,
1.838,0.02,0.18,0.95,-0.08,-0.27,-0.55,
1.839,0.02,0.18,0.95,-0.08,-0.27,-0.43,
1.841,0.02,0.18,0.95,-0.08,-0.27,-0.43,
1.843,0.01,0.18,0.95,-0.08,-0.27,-0.43,
1.843,0.01,0.18,0.95,-0.10,-0.38,-0.27,
1.846,0.01,0.17,0.95,-0.10,-0.38,-0.27,
1.848,0.00,0.17,0.94,-0.10,-0.38,-0.27,
1.848,0.00,0.17,0.94,-0.18,-0.45,-0.23,
1.85,-0.00,0.17,0.94,-0.18,-0.45,-0.23,
1.854,-0.01,0.17,0.94,-0.18,-0.45,-0.23,
1.854,-0.01,0.17,0.94,-0.27,-0.54,-0.26,
1.856,-0.01,0.18,0.94,-0.27,-0.54,-0.26,
1.859,-0.02,0.18,0.93,-0.27,-0.54,-0.26,
1.86,-0.02,0.18,0.93,-0.36,-0.51,-0.29,
1.86,-0.03,0.19,0.92,-0.36,-0.51,-0.29,
1.864,-0.04,0.18,0.93,-0.36,-0.51,-0.29,
1.864,-0.04,0.18,0.93,-0.44,-0.45,-0.35,
1.866,-0.05,0.19,0.92,-0.44,-0.45,-0.35,
1.868,-0.05,0.20,0.91,-0.44,-0.45,-0.35,
1.868,-0.05,0.20,0.91,-0.66,-0.39,-0.45,
1.87,-0.05,0.20,0.91,-0.66,-0.39,-0.45,
1.879,-0.06,0.21,0.91,-0.66,-0.39,-0.45,
1.879,-0.06,0.21,0.91,-0.82,-0.31,-0.52,
1.879,-0.06,0.21,0.90,-0.82,-0.31,-0.52,
1.88,-0.06,0.22,0.91,-0.82,-0.31,-0.52,
1.88,-0.06,0.22,0.91,-0.87,-0.18,-0.61,
1.881,-0.06,0.23,0.91,-0.87,-0.18,-0.61,
1.883,-0.06,0.23,0.91,-0.87,-0.18,-0.61,
1.883,-0.06,0.23,0.91,-0.89,-0.06,-0.62,
1.885,-0.05,0.24,0.90,-0.89,-0.06,-0.62,
1.888,-0.04,0.24,0.91,-0.89,-0.06,-0.62,
1.889,-0.04,0.24,0.91,-0.87,0.05,-0.61,
1.891,-0.04,0.24,0.92,-0.87,0.05,-0.61,
1.893,-0.03,0.24,0.92,-0.87,0.05,-0.61,
1.893,-0.03,0.24,0.92,-0.79,0.11,-0.62,
1.895,-0.02,0.24,0.92,-0.79,0.11,-0.62,
1.898,-0.01,0.24,0.93,-0.79,0.11,-0.62,
1.898,-0.01,0.24,0.93,-0.66,0.14,-0.49,
1.9,-0.00,0.24,0.93,-0.66,0.14,-0.49,
1.904,-0.00,0.24,0.93,-0.49,0.13,-0.44,
1.904,0.00,0.24,0.93,-0.49,0.13,-0.44,
1.905,0.01,0.23,0.93,-0.49,0.13,-0.44,
1.908,0.02,0.23,0.94,-0.49,0.13,-0.44,
1.909,0.02,0.23,0.94,-0.32,0.15,-0.40,
1.911,0.02,0.23,0.93,-0.32,0.15,-0.40,
1.912,0.03,0.23,0.93,-0.32,0.15,-0.40,
1.913,0.03,0.23,0.93,-0.18,0.07,-0.36,
1.915,0.03,0.23,0.93,-0.18,0.07,-0.36,
1.917,0.04,0.23,0.93,-0.18,0.07,-0.36,
1.918,0.04,0.23,0.93,-0.06,0.04,-0.36,
1.92,0.04,0.23,0.92,-0.06,0.04,-0.36,
1.922,0.04,0.23,0.92,-0.06,0.04,-0.36,
1.923,0.04,0.23,0.92,0.07,0.02,-0.36,
1.925,0.04,0.23,0.92,0.07,0.02,-0.36,
1.928,0.04,0.24,0.91,0.07,0.02,-0.36,
1.929,0.04,0.24,0.91,0.09,0.04,-0.45,
1.93,0.04,0.24,0.90,0.09,0.04,-0.45,
1.932,0.04,0.24,0.90,0.09,0.04,-0.45,
1.933,0.04,0.24,0.90,0.08,0.07,-0.54,
1.935,0.03,0.24,0.90,0.08,0.07,-0.54,
1.937,0.03,0.24,0.89,0.08,0.07,-0.54,
1.937,0.03,0.24,0.89,0.07,0.08,-0.64,
1.943,0.02,0.23,0.89,0.07,0.08,-0.64,
1.944,0.02,0.24,0.90,0.07,0.08,-0.64,
1.944,0.02,0.24,0.90,0.00,0.08,-0.72,
1.945,0.02,0.24,0.90,0.00,0.08,-0.72,
1.947,0.02,0.23,0.90,0.00,0.08,-0.72,
1.948,0.02,0.23,0.90,-0.07,0.06,-0.69,
1.95,0.02,0.23,0.91,-0.07,0.06,-0.69,
1.952,0.02,0.22,0.92,-0.07,0.06,-0.69,
1.953,0.02,0.22,0.92,-0.12,0.08,-0.66,
1.954,0.01,0.22,0.92,-0.12,0.08,-0.66,
1.96,0.01,0.22,0.93,-0.12,0.08,-0.66,
1.961,0.01,0.22,0.93,-0.13,-0.01,-0.56,
1.961,0.01,0.21,0.94,-0.13,-0.01,-0.56,
1.963,0.02,0.21,0.95,-0.13,-0.01,-0.56,
1.963,0.02,0.21,0.95,-0.18,-0.09,-0.46,
1.964,0.02,0.20,0.96,-0.18,-0.09,-0.46,
1.967,0.02,0.20,0.97,-0.18,-0.09,-0.46,
1.967,0.02,0.20,0.97,-0.13,-0.18,-0.24,
1.97,0.03,0.19,0.98,-0.13,-0.18,-0.24,
1.973,0.02,0.19,1.00,-0.13,-0.18,-0.24,
1.973,0.02,0.19,1.00,-0.08,-0.23,-0.05,
1.981,0.02,0.18,1.01,-0.08,-0.23,-0.05,
1.982,0.02,0.19,1.01,-0.08,-0.23,-0.05,
1.982,0.02,0.19,1.01,-0.05,-0.33,0.19,
1.984,0.02,0.19,1.02,-0.05,-0.33,0.19,
1.985,0.02,0.19,1.02,-0.05,-0.33,0.19,
1.985,0.02,0.19,1.02,-0.10,-0.36,0.39,
1.985,0.01,0.19,1.02,-0.10,-0.36,0.39,
1.987,0.01,0.19,1.04,-0.10,-0.36,0.39,
1.987,0.01,0.19,1.04,-0.13,-0.32,0.50,
1.989,0.00,0.19,1.04,-0.13,-0.32,0.50,
1.993,-0.00,0.20,1.04,-0.13,-0.32,0.50,
1.993,-0.00,0.20,1.04,-0.21,-0.34,0.60,
1.994,-0.01,0.21,1.04,-0.21,-0.34,0.60,
1.997,-0.01,0.22,1.04,-0.21,-0.34,0.60,
1.997,-0.01,0.22,1.04,-0.31,-0.23,0.69,
1.999,-0.01,0.22,1.05,-0.31,-0.23,0.69,
2.002,-0.01,0.22,1.05,-0.37,-0.07,0.70,
2.002,-0.01,0.23,1.05,-0.37,-0.07,0.70,
2.004,-0.01,0.24,1.05,-0.37,-0.07,0.70,
2.007,-0.01,0.24,1.04,-0.37,-0.07,0.70,
2.008,-0.01,0.24,1.04,-0.38,0.05,0.75,
2.009,0.00,0.24,0.97,-0.38,0.05,0.75,
2.012,0.00,0.26,0.88,-0.38,0.05,0.75,
2.012,0.00,0.26,0.88,-0.41,0.17,0.70,
2.014,-0.02,0.27,0.84,-0.41,0.17,0.70,
2.016,-0.02,0.27,0.86,-0.41,0.17,0.70,
2.017,-0.02,0.27,0.86,-0.24,0.29,-0.42,
2.019,-0.02,0.27,0.91,-0.24,0.29,-0.42,
2.022,-0.02,0.26,0.97,-0.24,0.29,-0.42,
2.022,-0.02,0.26,0.97,-0.46,0.51,-1.17,
2.026,-0.02,0.25,1.00,-0.46,0.51,-1.17,
2.027,-0.02,0.25,1.00,-0.44,0.43,-0.29,
2.027,-0.02,0.24,1.01,-0.44,0.43,-0.29,
2.03,-0.02,0.24,1.02,-0.44,0.43,-0.29,
2.032,-0.02,0.25,1.02,-0.44,0.43,-0.29,
2.032,-0.02,0.25,1.02,-0.50,0.23,0.36,
2.035,-0.01,0.25,1.01,-0.50,0.23,0.36,
2.037,0.00,0.24,1.01,-0.50,0.23,0.36,
2.037,0.00,0.24,1.01,-0.46,0.23,0.49,
2.04,0.01,0.25,1.01,-0.46,0.23,0.49,
2.043,0.01,0.25,1.00,-0.46,0.23,0.49,
2.043,0.01,0.25,1.00,-0.29,0.22,0.38,
2.044,0.01,0.25,0.98,-0.29,0.22,0.38,
2.047,0.01,0.25,0.97,-0.29,0.22,0.38,
2.047,0.01,0.25,0.97,-0.14,0.23,0.33,
2.049,-0.01,0.25,0.97,-0.14,0.23,0.33,
2.052,-0.01,0.25,0.97,-0.15,0.23,0.03,
2.052,-0.01,0.25,0.96,-0.15,0.23,0.03,
2.055,-0.02,0.25,0.96,-0.15,0.23,0.03,
2.057,-0.02,0.25,0.96,-0.15,0.23,0.03,
2.057,-0.02,0.25,0.96,-0.36,0.24,-0.03,
2.062,-0.03,0.26,0.95,-0.36,0.24,-0.03,
2.062,-0.02,0.26,0.95,-0.36,0.24,-0.03,
2.063,-0.02,0.26,0.95,-0.45,0.27,-0.10,
2.064,-0.03,0.26,0.94,-0.45,0.27,-0.10,
2.066,-0.04,0.26,0.95,-0.45,0.27,-0.10,
2.066,-0.04,0.26,0.95,-0.49,0.31,-0.21,
2.068,-0.04,0.25,0.94,-0.49,0.31,-0.21,
2.072,-0.04,0.25,0.94,-0.49,0.31,-0.21,
2.072,-0.04,0.25,0.94,-0.60,0.30,-0.24,
2.074,-0.05,0.24,0.94,-0.60,0.30,-0.24,
2.079,-0.04,0.23,0.94,-0.60,0.30,-0.24,
2.079,-0.04,0.23,0.94,-0.66,0.22,-0.30,
2.079,-0.04,0.23,0.94,-0.66,0.22,-0.30,
2.085,-0.03,0.24,0.95,-0.66,0.22,-0.30,
2.085,-0.03,0.24,0.95,-0.68,0.11,-0.30,
2.085,-0.03,0.23,0.96,-0.68,0.11,-0.30,
2.086,-0.02,0.23,0.97,-0.68,0.11,-0.30,
2.086,-0.02,0.23,0.97,-0.60,0.11,-0.21,
2.089,-0.02,0.23,0.97,-0.60,0.11,-0.21,
2.092,-0.00,0.23,0.99,-0.60,0.11,-0.21,
2.092,-0.00,0.23,0.99,-0.48,0.06,-0.07,
2.097,0.01,0.23,0.99,-0.48,0.06,-0.07,
2.098,0.01,0.23,1.01,-0.48,0.06,-0.07,
2.098,0.01,0.23,1.01,-0.35,0.07,0.11,
2.098,0.02,0.23,1.01,-0.35,0.07,0.11,
2.101,0.02,0.23,1.01,-0.16,0.05,0.28,
2.101,0.02,0.23,1.02,-0.16,0.05,0.28,
2.103,0.02,0.23,1.02,-0.16,0.05,0.28,
2.106,0.02,0.22,1.01,-0.16,0.05,0.28,
2.106,0.02,0.22,1.01,-0.09,0.07,0.40,
2.108,0.02,0.23,1.02,-0.09,0.07,0.40,
2.112,0.03,0.23,1.01,-0.09,0.07,0.40,
2.112,0.03,0.23,1.01,-0.08,0.04,0.44,
2.113,0.02,0.23,1.01,-0.08,0.04,0.44,
2.116,0.03,0.23,1.00,-0.08,0.04,0.44,
2.116,0.03,0.23,1.00,-0.02,0.06,0.44,
2.118,0.03,0.23,0.99,-0.02,0.06,0.44,
2.121,0.03,0.23,0.99,-0.01,0.08,0.34,
2.122,0.02,0.23,0.98,-0.01,0.08,0.34,
2.124,0.03,0.23,0.98,-0.01,0.08,0.34,
2.126,0.03,0.23,0.98,-0.03,0.10,0.17,
2.126,0.03,0.23,0.97,-0.03,0.10,0.17,
2.129,0.03,0.23,0.97,-0.03,0.10,0.17,
2.131,0.03,0.23,0.95,-0.03,0.10,0.17,
2.131,0.03,0.23,0.95,0.03,0.11,0.01,
2.133,0.02,0.23,0.94,0.03,0.11,0.01,
2.136,0.02,0.23,0.95,0.03,0.11,0.01,
2.137,0.02,0.23,0.95,-0.01,0.08,-0.09,
2.138,0.02,0.23,0.94,-0.01,0.08,-0.09,
2.141,0.02,0.22,0.94,-0.01,0.08,-0.09,
2.143,0.02,0.22,0.94,-0.06,0.04,-0.25,
2.144,0.01,0.22,0.95,-0.06,0.04,-0.25,
2.146,0.01,0.22,0.95,-0.11,0.04,-0.28,
2.147,0.01,0.22,0.95,-0.11,0.04,-0.28,
2.148,0.01,0.23,0.95,-0.11,0.04,-0.28,
2.15,0.02,0.23,0.95,-0.11,0.04,-0.28,
2.152,0.02,0.23,0.95,-0.15,0.03,-0.22,
2.153,0.01,0.23,0.95,-0.15,0.03,-0.22,
2.155,0.01,0.22,0.96,-0.15,0.03,-0.22,
2.156,0.01,0.22,0.96,-0.13,0.05,-0.20,
2.162,0.01,0.23,0.97,-0.13,0.05,-0.20,
2.162,0.02,0.22,0.97,-0.13,0.05,-0.20,
2.163,0.02,0.22,0.97,-0.12,0.02,-0.11,
2.163,0.02,0.22,0.97,-0.12,0.02,-0.11,
2.165,0.02,0.22,0.98,-0.12,0.02,-0.11,
2.166,0.02,0.22,0.98,-0.11,0.03,-0.01,
2.167,0.02,0.21,0.98,-0.11,0.03,-0.01,
2.17,0.02,0.21,0.98,-0.11,0.03,-0.01,
2.17,0.02,0.21,0.98,-0.08,-0.03,0.04,
2.172,0.03,0.21,0.98,-0.08,-0.03,0.04,
2.176,0.03,0.21,0.98,-0.08,-0.03,0.04,
2.176,0.03,0.21,0.98,-0.03,-0.13,0.11,
2.178,0.03,0.21,0.98,-0.03,-0.13,0.11,
2.18,0.03,0.21,0.98,-0.03,-0.13,0.11,
2.18,0.03,0.21,0.98,0.03,-0.11,0.09,
2.183,0.03,0.21,0.99,0.03,-0.11,0.09,
2.186,0.03,0.21,0.99,0.03,-0.11,0.09,
2.186,0.03,0.21,0.99,0.04,-0.13,0.13,
2.188,0.04,0.21,1.00,0.04,-0.13,0.13,
2.19,0.04,0.21,1.00,0.04,-0.13,0.13,
2.191,0.04,0.21,1.00,0.05,-0.13,0.19,
2.197,0.04,0.20,1.00,0.05,-0.13,0.19,
2.197,0.05,0.21,1.00,0.05,-0.13,0.19,
2.197,0.05,0.21,1.00,0.15,-0.12,0.24,
2.198,0.05,0.20,1.00,0.15,-0.12,0.24,
2.2,0.05,0.20,1.00,0.15,-0.12,0.24,
2.2,0.05,0.20,1.00,0.17,-0.12,0.31,
2.202,0.05,0.20,1.00,0.17,-0.12,0.31,
2.204,0.05,0.21,1.00,0.17,-0.12,0.31,
2.205,0.05,0.21,1.00,0.20,-0.15,0.27,
2.207,0.06,0.20,1.00,0.20,-0.15,0.27,
2.21,0.06,0.20,1.00,0.20,-0.15,0.27,
2.211,0.06,0.20,1.00,0.23,-0.14,0.28,
2.212,0.06,0.20,0.99,0.23,-0.14,0.28,
2.214,0.06,0.21,0.99,0.23,-0.14,0.28,
2.215,0.06,0.21,0.99,0.30,-0.17,0.27,
2.217,0.06,0.21,0.99,0.30,-0.17,0.27,
2.219,0.05,0.21,1.00,0.30,-0.17,0.27,
2.22,0.05,0.21,1.00,0.30,-0.14,0.19,
2.222,0.05,0.21,0.99,0.30,-0.14,0.19,
2.224,0.05,0.22,0.98,0.30,-0.14,0.19,
2.225,0.05,0.22,0.98,0.28,-0.10,0.22,
2.227,0.05,0.22,0.98,0.28,-0.10,0.22,
2.229,0.04,0.23,0.98,0.28,-0.10,0.22,
2.23,0.04,0.23,0.98,0.25,-0.00,0.12,
2.232,0.04,0.23,0.97,0.25,-0.00,0.12,
2.234,0.04,0.23,0.97,0.25,-0.00,0.12,
2.234,0.04,0.23,0.97,0.18,0.06,0.03,
2.237,0.04,0.24,0.97,0.18,0.06,0.03,
2.24,0.03,0.24,0.97,0.18,0.06,0.03,
2.24,0.03,0.24,0.97,0.18,0.13,-0.04,
2.243,0.03,0.24,0.96,0.18,0.13,-0.04,
2.245,0.03,0.24,0.96,0.18,0.13,-0.04,
2.245,0.03,0.24,0.96,0.07,0.18,-0.06,
2.247,0.03,0.24,0.96,0.07,0.18,-0.06,
2.249,0.02,0.24,0.95,0.07,0.18,-0.06,
2.249,0.02,0.24,0.95,0.03,0.19,-0.16,
2.252,0.02,0.23,0.95,0.03,0.19,-0.16,
2.254,0.02,0.24,0.95,0.03,0.19,-0.16,
2.254,0.02,0.24,0.95,0.00,0.17,-0.18,
2.256,0.02,0.23,0.95,0.00,0.17,-0.18,
2.26,0.02,0.23,0.96,0.00,0.17,-0.18,
2.261,0.02,0.23,0.96,-0.03,0.15,-0.22,
2.262,0.02,0.22,0.96,-0.03,0.15,-0.22,
2.264,0.02,0.22,0.95,-0.03,0.15,-0.22,
2.264,0.02,0.22,0.95,-0.07,0.09,-0.17,
2.266,0.02,0.22,0.96,-0.07,0.09,-0.17,
2.269,0.02,0.22,0.96,-0.09,0.04,-0.17,
2.269,0.02,0.22,0.96,-0.09,0.04,-0.17,
2.272,0.02,0.21,0.97,-0.09,0.04,-0.17,
2.274,0.02,0.21,0.98,-0.09,0.04,-0.17,
2.274,0.02,0.21,0.98,-0.09,-0.01,-0.10,
2.277,0.02,0.21,0.98,-0.09,-0.01,-0.10,
2.279,0.03,0.21,0.99,-0.09,-0.01,-0.10,
2.279,0.03,0.21,0.99,-0.07,-0.05,0.03,
2.282,0.03,0.21,0.99,-0.07,-0.05,0.03,
2.284,0.03,0.21,0.99,-0.07,-0.05,0.03,
2.284,0.03,0.21,0.99,-0.01,-0.06,0.10,
2.286,0.03,0.21,1.00,-0.01,-0.06,0.10,
2.289,0.03,0.22,0.99,-0.01,-0.06,0.10,
2.289,0.03,0.22,0.99,0.00,-0.07,0.18,
2.291,0.03,0.22,1.00,0.00,-0.07,0.18,
2.294,0.03,0.21,1.00,0.00,-0.07,0.18,
2.295,0.03,0.21,1.00,0.05,-0.03,0.22,
2.296,0.04,0.22,1.00,0.05,-0.03,0.22,
2.299,0.04,0.22,1.00,0.08,-0.03,0.26,
2.299,0.03,0.21,1.00,0.08,-0.03,0.26,
2.301,0.04,0.22,1.00,0.08,-0.03,0.26,
2.303,0.03,0.22,1.00,0.08,-0.03,0.26,
2.304,0.03,0.22,1.00,0.09,-0.02,0.28,
2.306,0.03,0.22,1.00,0.09,-0.02,0.28,
2.314,0.03,0.22,1.00,0.09,-0.02,0.28,
2.319,0.03,0.22,1.00,0.08,-0.00,0.26,
2.319,0.03,0.22,0.99,0.08,-0.00,0.26,
2.32,0.03,0.22,0.99,0.08,-0.00,0.26,
2.32,0.03,0.22,0.99,0.06,0.01,0.22,
2.32,0.02,0.22,0.99,0.06,0.01,0.22,
2.321,0.03,0.23,0.99,0.06,0.01,0.22,
2.321,0.03,0.23,0.99,0.03,0.06,0.16,
2.321,0.03,0.22,0.99,0.03,0.06,0.16,
2.324,0.03,0.22,0.99,0.03,0.06,0.16,
2.325,0.03,0.22,0.99,-0.01,0.07,0.18,
2.328,0.02,0.22,0.99,-0.01,0.07,0.18,
2.329,0.02,0.23,0.98,-0.01,0.07,0.18,
2.329,0.02,0.23,0.98,0.03,0.05,0.12,
2.331,0.02,0.22,0.98,0.03,0.05,0.12,
2.334,0.02,0.22,0.97,0.03,0.05,0.12,
2.336,0.02,0.22,0.97,-0.04,0.07,0.08,
2.339,0.02,0.22,0.97,-0.04,0.07,0.08,
2.34,0.02,0.21,0.97,-0.04,0.07,0.08,
2.34,0.02,0.21,0.97,-0.05,0.01,0.01,
2.341,0.02,0.21,0.96,-0.05,0.01,0.01,
2.344,0.02,0.21,0.96,-0.05,0.01,0.01,
2.344,0.02,0.21,0.96,-0.07,-0.03,-0.04,
2.346,0.02,0.21,0.96,-0.07,-0.03,-0.04,
2.349,0.02,0.21,0.97,-0.07,-0.03,-0.04,
2.349,0.02,0.21,0.97,-0.09,-0.06,-0.13,
2.351,0.02,0.21,0.96,-0.09,-0.06,-0.13,
2.354,0.02,0.22,0.96,-0.09,-0.06,-0.13,
2.354,0.02,0.22,0.96,-0.07,-0.05,-0.09,
2.356,0.02,0.22,0.96,-0.07,-0.05,-0.09,
2.358,0.02,0.22,0.96,-0.07,-0.05,-0.09,
2.359,0.02,0.22,0.96,-0.06,-0.04,-0.11,
2.361,0.01,0.22,0.96,-0.06,-0.04,-0.11,
2.363,0.01,0.22,0.97,-0.06,-0.04,-0.11,
2.363,0.01,0.22,0.97,-0.05,0.01,-0.12,
2.366,0.01,0.22,0.97,-0.05,0.01,-0.12,
2.368,0.01,0.22,0.97,-0.05,0.01,-0.12,
2.369,0.01,0.22,0.97,-0.11,0.02,-0.08,
2.371,0.02,0.22,0.97,-0.11,0.02,-0.08,
2.374,0.02,0.22,0.97,-0.11,0.02,-0.08,
2.374,0.02,0.22,0.97,-0.12,-0.02,-0.06,
2.376,0.02,0.22,0.98,-0.12,-0.02,-0.06,
2.378,0.03,0.22,0.97,-0.12,-0.02,-0.06,
2.379,0.03,0.22,0.97,-0.05,-0.01,-0.05,
2.381,0.03,0.22,0.98,-0.05,-0.01,-0.05,
2.384,0.03,0.22,0.98,-0.05,-0.01,-0.05,
2.384,0.03,0.22,0.98,-0.01,-0.02,0.01,
2.386,0.03,0.23,0.98,-0.01,-0.02,0.01,
2.388,0.03,0.22,0.99,-0.01,-0.02,0.01,
2.389,0.03,0.22,0.99,0.04,0.01,0.06,
2.391,0.03,0.23,0.99,0.04,0.01,0.06,
2.393,0.03,0.23,0.99,0.04,0.01,0.06,
2.393,0.03,0.23,0.99,0.07,0.06,0.11,
2.395,0.03,0.23,1.00,0.07,0.06,0.11,
2.398,0.03,0.23,1.00,0.07,0.07,0.17,
2.398,0.03,0.22,0.99,0.07,0.07,0.17,
2.401,0.03,0.23,1.00,0.07,0.07,0.17,
2.403,0.03,0.22,1.00,0.07,0.07,0.17,
2.404,0.03,0.22,1.00,0.04,0.05,0.21,
2.406,0.03,0.22,1.01,0.04,0.05,0.21,
2.408,0.03,0.23,1.01,0.04,0.05,0.21,
2.409,0.03,0.23,1.01,0.04,0.06,0.27,
2.415,0.03,0.23,1.00,0.04,0.06,0.27,
2.415,0.03,0.23,1.00,0.04,0.06,0.27,
2.415,0.03,0.23,1.00,0.06,0.05,0.33,
2.416,0.03,0.23,1.00,0.06,0.05,0.33,
2.418,0.03,0.23,1.00,0.06,0.05,0.33,
2.418,0.03,0.23,1.00,0.10,0.11,0.29,
2.42,0.02,0.23,1.00,0.10,0.11,0.29,
2.423,0.02,0.24,1.00,0.10,0.11,0.29,
2.423,0.02,0.24,1.00,0.06,0.12,0.29,
2.426,0.02,0.23,1.00,0.06,0.12,0.29,
2.428,0.01,0.23,1.00,0.06,0.12,0.29,
2.428,0.01,0.23,1.00,-0.05,0.14,0.26,
2.43,0.01,0.23,1.00,-0.05,0.14,0.26,
2.433,0.01,0.23,1.00,-0.05,0.14,0.26,
2.433,0.01,0.23,1.00,-0.09,0.09,0.25,
2.435,0.01,0.23,1.00,-0.09,0.09,0.25,
2.438,0.01,0.23,1.00,-0.09,0.09,0.25,
2.438,0.01,0.23,1.00,-0.12,0.11,0.23,
2.44,0.00,0.24,1.01,-0.12,0.11,0.23,
2.443,-0.00,0.24,1.00,-0.12,0.11,0.23,
2.443,-0.00,0.24,1.00,-0.16,0.12,0.22,
2.445,-0.02,0.24,0.99,-0.16,0.12,0.22,
2.447,-0.02,0.25,0.99,-0.16,0.12,0.22,
2.448,-0.02,0.25,0.99,-0.24,0.20,0.26,
2.45,-0.02,0.24,0.96,-0.24,0.20,0.26,
2.453,0.00,0.25,0.69,-0.24,0.20,0.26,
2.453,0.00,0.25,0.69,-0.42,0.21,0.12,
2.455,-0.06,0.29,0.35,-0.42,0.21,0.12,
2.458,-0.06,0.31,0.57,-0.42,0.21,0.12,
2.458,-0.06,0.31,0.57,-0.31,0.21,-1.47,
2.46,-0.02,0.30,0.85,-0.31,0.21,-1.47,
2.462,-0.03,0.29,0.93,-0.31,0.21,-1.47,
2.463,-0.03,0.29,0.93,-0.74,0.80,-5.04,
2.465,-0.03,0.27,0.96,-0.74,0.80,-5.04,
2.468,-0.02,0.26,0.98,-0.74,0.80,-5.04,
2.468,-0.02,0.26,0.98,-0.44,0.70,-0.80,
2.469,-0.03,0.26,0.98,-0.44,0.70,-0.80,
2.473,-0.04,0.26,0.97,-0.44,0.70,-0.80,
2.474,-0.04,0.26,0.97,-0.44,0.44,0.01,
2.477,-0.02,0.25,0.97,-0.44,0.44,0.01,
2.477,0.01,0.24,0.97,-0.44,0.44,0.01,
2.477,0.01,0.24,0.97,-0.51,0.35,0.05,
2.48,0.03,0.24,0.99,-0.51,0.35,0.05,
2.483,0.05,0.23,1.01,-0.51,0.35,0.05,
2.483,0.05,0.23,1.01,-0.21,0.25,0.01,
2.485,0.06,0.23,1.03,-0.21,0.25,0.01,
2.487,0.04,0.22,1.06,-0.21,0.25,0.01,
2.487,0.04,0.22,1.06,0.24,0.15,0.31,
2.49,0.03,0.22,1.08,0.24,0.15,0.31,
2.492,0.02,0.22,1.10,0.24,0.15,0.31,
2.493,0.02,0.22,1.10,0.31,0.04,0.74,
2.499,0.01,0.23,1.11,0.31,0.04,0.74,
2.5,0.01,0.24,1.10,0.31,0.04,0.74,
2.5,0.01,0.24,1.10,0.05,0.00,1.12,
2.5,0.01,0.24,1.09,0.05,0.00,1.12,
2.503,0.01,0.24,1.07,0.05,0.00,1.12,
2.503,0.01,0.24,1.07,-0.10,0.11,1.31,
2.505,0.01,0.24,1.05,-0.10,0.11,1.31,
2.507,-0.00,0.25,1.02,-0.10,0.11,1.31,
2.507,-0.00,0.25,1.02,-0.10,0.23,1.04,
2.509,-0.01,0.24,1.01,-0.10,0.23,1.04,
2.517,-0.01,0.24,0.99,-0.10,0.23,1.04,
2.517,-0.01,0.24,0.99,-0.17,0.23,0.58,
2.518,-0.01,0.24,0.98,-0.17,0.23,0.58,
2.518,-0.01,0.24,0.97,-0.17,0.23,0.58,
2.518,-0.01,0.24,0.97,-0.25,0.17,0.26,
2.521,-0.02,0.24,0.97,-0.25,0.17,0.26,
2.522,-0.02,0.24,0.97,-0.31,0.18,0.03,
2.522,-0.02,0.25,0.96,-0.31,0.18,0.03,
2.524,-0.01,0.25,0.95,-0.31,0.18,0.03,
2.527,-0.01,0.25,0.93,-0.31,0.18,0.03,
2.527,-0.01,0.25,0.93,-0.35,0.21,-0.11,
2.537,-0.00,0.25,0.93,-0.35,0.21,-0.11,
2.537,0.00,0.25,0.92,-0.35,0.21,-0.11,
2.537,0.00,0.25,0.92,-0.27,0.25,-0.33,
2.537,0.01,0.25,0.92,-0.27,0.25,-0.33,
2.537,0.02,0.25,0.91,-0.27,0.25,-0.33,
2.538,0.02,0.25,0.91,-0.18,0.25,-0.47,
