
time,gFx,gFy,gFz,ax,ay,az,
0.005,-0.03,0.11,0.99,-0.29,0.04,-0.07,
0.006,-0.03,0.11,1.00,-0.29,0.04,-0.07,
0.006,-0.03,0.11,1.00,-0.29,0.04,-0.07,
0.006,-0.02,0.11,1.00,-0.29,0.04,-0.07,
0.007,-0.02,0.11,1.00,-0.21,0.05,-0.02,
0.007,-0.02,0.11,1.00,-0.21,0.05,-0.02,
0.007,-0.01,0.11,1.00,-0.21,0.05,-0.02,
0.007,-0.01,0.11,1.00,-0.15,0.04,0.02,
0.01,-0.01,0.11,1.01,-0.15,0.04,0.02,
0.011,-0.00,0.11,1.01,-0.15,0.04,0.02,
0.011,-0.00,0.11,1.01,-0.05,0.06,0.06,
0.014,0.01,0.11,1.01,-0.05,0.06,0.06,
0.016,0.01,0.11,1.01,-0.05,0.06,0.06,
0.017,0.01,0.11,1.01,0.05,0.02,0.12,
0.019,0.02,0.10,1.01,0.05,0.02,0.12,
0.022,0.02,0.11,1.01,0.05,0.02,0.12,
0.022,0.02,0.11,1.01,0.18,0.04,0.16,
0.027,0.03,0.11,1.01,0.18,0.04,0.16,
0.027,0.03,0.11,1.02,0.18,0.04,0.16,
0.028,0.03,0.11,1.02,0.29,-0.00,0.16,
0.028,0.03,0.11,1.01,0.29,-0.00,0.16,
0.031,0.04,0.11,1.01,0.29,-0.00,0.16,
0.031,0.04,0.11,1.01,0.37,0.01,0.20,
0.033,0.03,0.10,1.02,0.37,0.01,0.20,
0.036,0.03,0.10,1.01,0.37,0.01,0.20,
0.036,0.03,0.10,1.01,0.44,0.00,0.16,
0.038,0.04,0.11,1.01,0.44,0.00,0.16,
0.041,0.03,0.11,1.01,0.44,0.00,0.16,
0.041,0.03,0.11,1.01,0.42,-0.01,0.19,
0.043,0.03,0.11,1.01,0.42,-0.01,0.19,
0.046,0.03,0.11,1.01,0.42,-0.01,0.19,
0.046,0.03,0.11,1.01,0.44,0.03,0.11,
0.048,0.02,0.11,1.01,0.44,0.03,0.11,
0.05,0.02,0.11,1.00,0.44,0.03,0.11,
0.05,0.02,0.11,1.00,0.37,0.03,0.13,
0.054,0.02,0.12,0.99,0.37,0.03,0.13,
0.057,0.01,0.11,0.99,0.37,0.03,0.13,
0.057,0.01,0.11,0.99,0.30,0.05,0.09,
0.058,0.01,0.11,1.00,0.30,0.05,0.09,
0.06,0.01,0.12,0.99,0.30,0.05,0.09,
0.061,0.01,0.12,0.99,0.23,0.11,-0.07,
0.063,0.00,0.12,0.99,0.23,0.11,-0.07,
0.066,0.00,0.11,0.99,0.23,0.11,-0.07,
0.066,0.00,0.11,0.99,0.18,0.09,-0.02,
0.068,-0.01,0.11,0.99,0.18,0.09,-0.02,
0.071,-0.01,0.11,0.99,0.18,0.09,-0.02,
0.071,-0.01,0.11,0.99,0.08,0.09,-0.05,
0.074,-0.01,0.11,0.99,0.08,0.09,-0.05,
0.075,-0.01,0.11,1.00,0.08,0.09,-0.05,
0.076,-0.01,0.11,1.00,0.00,0.08,-0.03,
0.078,-0.00,0.11,1.00,0.00,0.08,-0.03,
0.08,-0.00,0.11,1.00,0.00,0.08,-0.03,
0.081,-0.00,0.11,1.00,-0.02,0.08,0.00,
0.083,-0.01,0.11,1.00,-0.02,0.08,0.00,
0.086,-0.01,0.11,1.00,-0.02,0.08,0.00,
0.086,-0.01,0.11,1.00,0.02,0.05,0.02,
0.088,-0.01,0.11,1.00,0.02,0.05,0.02,
0.09,-0.00,0.11,1.00,0.02,0.05,0.02,
0.09,-0.00,0.11,1.00,0.01,0.06,0.03,
0.093,-0.00,0.11,1.00,0.01,0.06,0.03,
0.096,-0.00,0.11,1.00,-0.01,0.07,0.01,
0.096,-0.01,0.11,1.00,-0.01,0.07,0.01,
0.098,-0.01,0.11,1.01,-0.01,0.07,0.01,
0.1,-0.01,0.11,1.01,-0.01,0.07,0.01,
0.101,-0.01,0.11,1.01,0.01,0.06,0.03,
0.103,0.00,0.11,1.00,0.01,0.06,0.03,
0.111,0.00,0.11,1.00,0.01,0.06,0.03,
0.111,0.00,0.11,1.00,-0.00,0.02,0.10,
0.112,0.00,0.11,1.00,-0.00,0.02,0.10,
0.112,0.01,0.11,1.00,-0.00,0.02,0.10,
0.112,0.01,0.11,1.00,0.09,0.03,0.03,
0.112,0.01,0.11,1.01,0.09,0.03,0.03,
0.115,0.01,0.11,1.01,0.09,0.03,0.03,
0.115,0.01,0.11,1.01,0.09,0.01,0.06,
0.117,0.01,0.11,1.01,0.09,0.01,0.06,
0.12,0.02,0.11,1.01,0.09,0.01,0.06,
0.12,0.02,0.11,1.01,0.15,0.00,0.10,
0.122,0.02,0.10,1.01,0.15,0.00,0.10,
0.125,0.02,0.10,1.00,0.15,0.00,0.10,
0.126,0.02,0.10,1.00,0.21,-0.01,0.11,
0.127,0.03,0.10,1.00,0.21,-0.01,0.11,
0.13,0.03,0.10,1.01,0.21,-0.01,0.11,
0.13,0.03,0.10,1.01,0.28,-0.04,0.07,
0.133,0.03,0.10,1.01,0.28,-0.04,0.07,
0.135,0.04,0.10,1.00,0.28,-0.04,0.07,
0.135,0.04,0.10,1.00,0.36,-0.07,0.10,
0.138,0.04,0.10,1.00,0.36,-0.07,0.10,
0.141,0.04,0.10,1.00,0.36,-0.07,0.10,
0.142,0.04,0.10,1.00,0.41,-0.03,0.05,
0.142,0.04,0.10,1.00,0.41,-0.03,0.05,
0.145,0.05,0.11,1.00,0.41,-0.03,0.05,
0.145,0.05,0.11,1.00,0.46,-0.02,0.03,
0.148,0.04,0.11,0.99,0.46,-0.02,0.03,
0.15,0.04,0.10,0.99,0.46,-0.02,0.03,
0.15,0.04,0.10,0.99,0.48,-0.03,0.02,
0.153,0.04,0.10,0.99,0.48,-0.03,0.02,
0.155,0.04,0.10,0.99,0.48,-0.03,0.02,
0.155,0.04,0.10,0.99,0.47,-0.02,-0.03,
0.158,0.05,0.10,0.99,0.47,-0.02,-0.03,
0.159,0.05,0.10,0.98,0.47,-0.02,-0.03,
0.162,0.05,0.10,0.98,0.47,-0.04,-0.06,
0.162,0.05,0.10,0.98,0.47,-0.04,-0.06,
0.164,0.05,0.10,0.99,0.47,-0.04,-0.06,
0.165,0.05,0.10,0.99,0.51,-0.04,-0.12,
0.167,0.05,0.10,0.98,0.51,-0.04,-0.12,
0.169,0.05,0.10,0.98,0.51,-0.05,-0.12,
0.169,0.05,0.10,0.98,0.51,-0.05,-0.12,
0.172,0.04,0.10,0.97,0.51,-0.05,-0.12,
0.175,0.05,0.10,0.97,0.51,-0.05,-0.12,
0.175,0.05,0.10,0.97,0.49,-0.06,-0.15,
0.177,0.04,0.10,0.98,0.49,-0.06,-0.15,
0.179,0.05,0.10,0.97,0.49,-0.06,-0.15,
0.179,0.05,0.10,0.97,0.46,-0.09,-0.22,
0.182,0.05,0.09,0.98,0.46,-0.09,-0.22,
0.184,0.04,0.09,0.99,0.46,-0.09,-0.22,
0.184,0.04,0.09,0.99,0.48,-0.11,-0.21,
0.186,0.04,0.09,0.99,0.48,-0.11,-0.21,
0.191,0.05,0.09,0.98,0.48,-0.11,-0.21,
0.191,0.05,0.09,0.98,0.46,-0.15,-0.10,
0.192,0.05,0.09,0.98,0.46,-0.15,-0.10,
0.194,0.06,0.08,0.99,0.46,-0.15,-0.10,
0.194,0.06,0.08,0.99,0.47,-0.15,-0.12,
0.197,0.07,0.08,0.98,0.47,-0.15,-0.12,
0.199,0.07,0.08,0.98,0.47,-0.15,-0.12,
0.199,0.07,0.08,0.98,0.53,-0.22,-0.14,
0.201,0.07,0.08,0.97,0.53,-0.22,-0.14,
0.204,0.08,0.08,0.98,0.53,-0.22,-0.14,
0.204,0.08,0.08,0.98,0.65,-0.24,-0.16,
0.207,0.08,0.07,0.97,0.65,-0.24,-0.16,
0.209,0.08,0.08,0.97,0.65,-0.24,-0.16,
0.209,0.08,0.08,0.97,0.72,-0.27,-0.20,
0.211,0.09,0.08,0.97,0.72,-0.27,-0.20,
0.214,0.09,0.08,0.97,0.82,-0.30,-0.26,
0.214,0.09,0.08,0.97,0.82,-0.30,-0.26,
0.216,0.10,0.08,0.97,0.82,-0.30,-0.26,
0.219,0.10,0.08,0.97,0.82,-0.30,-0.26,
0.22,0.10,0.08,0.97,0.87,-0.27,-0.23,
0.221,0.10,0.08,0.96,0.87,-0.27,-0.23,
0.225,0.10,0.08,0.96,0.87,-0.27,-0.23,
0.225,0.10,0.08,0.96,0.98,-0.28,-0.28,
0.226,0.11,0.08,0.96,0.98,-0.28,-0.28,
0.228,0.11,0.09,0.96,0.98,-0.28,-0.28,
0.229,0.11,0.09,0.96,1.02,-0.28,-0.34,
0.231,0.11,0.09,0.96,1.02,-0.28,-0.34,
0.234,0.11,0.09,0.96,1.08,-0.23,-0.34,
0.234,0.10,0.08,0.97,1.08,-0.23,-0.34,
0.236,0.10,0.09,0.96,1.08,-0.23,-0.34,
0.238,0.11,0.09,0.95,1.08,-0.23,-0.34,
0.239,0.11,0.09,0.95,1.01,-0.21,-0.27,
0.245,0.12,0.09,0.94,1.01,-0.21,-0.27,
0.245,0.12,0.09,0.94,1.01,-0.21,-0.27,
0.246,0.12,0.09,0.94,1.01,-0.22,-0.39,
0.246,0.12,0.09,0.93,1.01,-0.22,-0.39,
0.248,0.12,0.10,0.93,1.01,-0.22,-0.39,
0.249,0.12,0.10,0.93,1.14,-0.16,-0.54,
0.251,0.11,0.10,0.93,1.14,-0.16,-0.54,
0.254,0.11,0.10,0.92,1.14,-0.16,-0.54,
0.254,0.11,0.10,0.92,1.12,-0.13,-0.59,
0.258,0.10,0.09,0.92,1.12,-0.13,-0.59,
0.259,0.10,0.09,0.92,1.12,-0.13,-0.59,
0.259,0.10,0.09,0.92,1.03,-0.13,-0.67,
0.261,0.10,0.08,0.92,1.03,-0.13,-0.67,
0.263,0.10,0.08,0.91,1.03,-0.13,-0.67,
0.263,0.10,0.08,0.91,0.91,-0.21,-0.74,
0.266,0.09,0.07,0.91,0.91,-0.21,-0.74,
0.269,0.09,0.07,0.91,0.91,-0.21,-0.74,
0.27,0.09,0.07,0.91,0.92,-0.29,-0.76,
0.271,0.09,0.07,0.92,0.92,-0.29,-0.76,
0.274,0.08,0.07,0.92,0.92,-0.29,-0.76,
0.274,0.08,0.07,0.92,0.84,-0.36,-0.75,
0.276,0.09,0.07,0.92,0.84,-0.36,-0.75,
0.278,0.10,0.07,0.92,0.84,-0.36,-0.75,
0.278,0.10,0.07,0.92,0.79,-0.39,-0.70,
0.28,0.09,0.07,0.92,0.79,-0.39,-0.70,
0.283,0.09,0.07,0.92,0.86,-0.35,-0.72,
0.283,0.09,0.06,0.92,0.86,-0.35,-0.72,
0.286,0.09,0.06,0.93,0.86,-0.35,-0.72,
0.288,0.10,0.06,0.93,0.86,-0.35,-0.72,
0.288,0.10,0.06,0.93,0.87,-0.39,-0.65,
0.29,0.09,0.05,0.93,0.87,-0.39,-0.65,
0.293,0.09,0.05,0.93,0.87,-0.39,-0.65,
0.294,0.09,0.05,0.93,0.87,-0.43,-0.60,
0.295,0.09,0.04,0.92,0.87,-0.43,-0.60,
0.298,0.09,0.04,0.93,0.87,-0.43,-0.60,
0.298,0.09,0.04,0.93,0.79,-0.52,-0.53,
0.3,0.10,0.03,0.93,0.79,-0.52,-0.53,
0.303,0.11,0.02,0.93,0.79,-0.52,-0.53,
0.303,0.11,0.02,0.93,0.81,-0.64,-0.58,
0.305,0.10,0.02,0.94,0.81,-0.64,-0.58,
0.309,0.10,0.01,0.95,0.81,-0.64,-0.58,
0.309,0.10,0.01,0.95,0.93,-0.72,-0.56,
0.31,0.10,0.00,0.96,0.93,-0.72,-0.56,
0.313,0.10,0.00,0.96,0.91,-0.82,-0.43,
0.313,0.10,-0.00,0.96,0.91,-0.82,-0.43,
0.315,0.09,-0.01,0.97,0.91,-0.82,-0.43,
0.318,0.09,-0.01,0.98,0.91,-0.82,-0.43,
0.319,0.09,-0.01,0.98,0.88,-0.97,-0.29,
0.32,0.10,-0.01,0.97,0.88,-0.97,-0.29,
0.328,0.09,-0.02,0.99,0.88,-0.97,-0.29,
0.328,0.09,-0.02,0.99,0.79,-1.04,-0.13,
0.331,0.10,-0.02,0.99,0.79,-1.04,-0.13,
0.331,0.10,-0.02,0.99,0.79,-1.04,-0.13,
0.331,0.10,-0.02,0.99,0.80,-1.07,-0.06,
0.331,0.10,-0.03,0.99,0.80,-1.07,-0.06,
0.333,0.10,-0.03,0.99,0.80,-1.07,-0.06,
0.334,0.10,-0.03,0.99,0.83,-1.13,0.05,
0.336,0.10,-0.03,1.00,0.83,-1.13,0.05,
0.337,0.10,-0.04,1.00,0.83,-1.13,0.05,
0.339,0.10,-0.04,1.00,0.85,-1.19,0.06,
0.341,0.10,-0.04,0.99,0.85,-1.19,0.06,
0.343,0.09,-0.03,0.99,0.85,-1.19,0.06,
0.343,0.09,-0.03,0.99,0.81,-1.25,0.12,
0.345,0.09,-0.03,0.99,0.81,-1.25,0.12,
0.348,0.09,-0.03,0.98,0.81,-1.25,0.12,
0.348,0.09,-0.03,0.98,0.78,-1.26,0.06,
0.351,0.09,-0.03,0.98,0.78,-1.26,0.06,
0.353,0.08,-0.01,0.97,0.78,-1.26,0.06,
0.354,0.08,-0.01,0.97,0.70,-1.20,-0.03,
0.356,0.08,-0.01,0.95,0.70,-1.20,-0.03,
0.359,0.08,0.00,0.94,0.70,-1.20,-0.03,
0.36,0.08,0.00,0.94,0.63,-1.11,-0.10,
0.361,0.08,0.01,0.92,0.63,-1.11,-0.10,
0.363,0.08,0.01,0.92,0.61,-0.95,-0.40,
0.363,0.08,0.02,0.91,0.61,-0.95,-0.40,
0.365,0.08,0.02,0.91,0.61,-0.95,-0.40,
0.367,0.08,0.02,0.91,0.62,-0.77,-0.68,
0.368,0.09,0.04,0.89,0.62,-0.77,-0.68,
0.37,0.08,0.04,0.87,0.62,-0.77,-0.68,
0.372,0.08,0.05,0.86,0.62,-0.77,-0.68,
0.372,0.08,0.05,0.86,0.66,-0.63,-0.83,
0.375,0.08,0.06,0.85,0.66,-0.63,-0.83,
0.377,0.08,0.07,0.85,0.66,-0.63,-0.83,
0.377,0.08,0.07,0.85,0.64,-0.54,-1.15,
0.381,0.07,0.07,0.84,0.64,-0.54,-1.15,
0.382,0.08,0.07,0.84,0.64,-0.54,-1.15,
0.382,0.08,0.07,0.84,0.64,-0.38,-1.28,
0.384,0.07,0.08,0.82,0.64,-0.38,-1.28,
0.387,0.07,0.08,0.82,0.64,-0.38,-1.28,
0.387,0.07,0.08,0.82,0.58,-0.30,-1.41,
0.39,0.06,0.08,0.82,0.58,-0.30,-1.41,
0.392,0.06,0.09,0.81,0.58,-0.30,-1.41,
0.392,0.06,0.09,0.81,0.57,-0.23,-1.53,
0.395,0.06,0.09,0.81,0.57,-0.23,-1.53,
0.397,0.06,0.10,0.80,0.57,-0.23,-1.53,
0.397,0.06,0.10,0.80,0.48,-0.19,-1.60,
0.4,0.06,0.11,0.81,0.48,-0.19,-1.60,
0.403,0.05,0.11,0.83,0.48,-0.19,-1.60,
0.403,0.05,0.11,0.83,0.48,-0.05,-1.67,
0.405,0.04,0.12,0.82,0.48,-0.05,-1.67,
0.409,0.04,0.13,0.83,0.48,-0.05,-1.67,
0.409,0.04,0.13,0.83,0.40,0.09,-1.51,
0.41,0.03,0.13,0.83,0.40,0.09,-1.51,
0.412,0.02,0.13,0.83,0.40,0.09,-1.51,
0.413,0.02,0.13,0.83,0.27,0.21,-1.44,
0.415,0.02,0.13,0.85,0.27,0.21,-1.44,
0.417,0.02,0.13,0.85,0.12,0.24,-1.37,
0.418,0.02,0.14,0.85,0.12,0.24,-1.37,
0.42,0.01,0.14,0.86,0.12,0.24,-1.37,
0.422,0.01,0.14,0.87,0.12,0.24,-1.37,
0.422,0.01,0.14,0.87,0.08,0.34,-1.23,
0.425,0.00,0.13,0.87,0.08,0.34,-1.23,
0.427,0.00,0.13,0.87,0.08,0.34,-1.23,
0.427,0.00,0.13,0.87,-0.02,0.35,-1.07,
0.429,-0.00,0.13,0.88,-0.02,0.35,-1.07,
0.433,-0.01,0.13,0.88,-0.02,0.35,-1.07,
0.433,-0.01,0.13,0.88,-0.11,0.30,-0.99,
0.435,-0.00,0.13,0.89,-0.11,0.30,-0.99,
0.438,-0.01,0.12,0.89,-0.11,0.30,-0.99,
0.438,-0.01,0.12,0.89,-0.17,0.28,-0.91,
0.44,-0.00,0.12,0.89,-0.17,0.28,-0.91,
0.442,-0.00,0.12,0.89,-0.17,0.28,-0.91,
0.442,-0.00,0.12,0.89,-0.18,0.27,-0.78,
0.444,-0.00,0.12,0.89,-0.18,0.27,-0.78,
0.447,0.00,0.11,0.89,-0.18,0.27,-0.78,
0.448,0.00,0.11,0.89,-0.16,0.24,-0.76,
0.45,0.00,0.11,0.90,-0.16,0.24,-0.76,
0.452,0.00,0.11,0.89,-0.16,0.24,-0.76,
0.452,0.00,0.11,0.89,-0.14,0.20,-0.77,
0.455,-0.01,0.11,0.89,-0.14,0.20,-0.77,
0.462,-0.01,0.11,0.89,-0.14,0.20,-0.77,
0.463,-0.01,0.11,0.89,-0.12,0.17,-0.73,
0.463,-0.01,0.11,0.89,-0.12,0.17,-0.73,
0.463,-0.01,0.10,0.88,-0.12,0.17,-0.73,
0.463,-0.01,0.10,0.88,-0.21,0.13,-0.79,
0.464,-0.01,0.10,0.88,-0.21,0.13,-0.79,
0.466,-0.02,0.10,0.89,-0.21,0.13,-0.79,
0.467,-0.02,0.10,0.89,-0.25,0.11,-0.82,
0.469,-0.02,0.10,0.88,-0.25,0.11,-0.82,
0.472,-0.02,0.10,0.88,-0.25,0.11,-0.82,
0.472,-0.02,0.10,0.88,-0.33,0.08,-0.80,
0.474,-0.03,0.10,0.88,-0.33,0.08,-0.80,
0.476,-0.03,0.10,0.88,-0.33,0.08,-0.80,
0.477,-0.03,0.10,0.88,-0.36,0.07,-0.84,
0.479,-0.03,0.10,0.88,-0.36,0.07,-0.84,
0.482,-0.02,0.09,0.89,-0.36,0.07,-0.84,
0.483,-0.02,0.09,0.89,-0.42,0.02,-0.85,
0.485,-0.02,0.10,0.89,-0.42,0.02,-0.85,
0.487,-0.02,0.10,0.89,-0.42,0.02,-0.85,
0.487,-0.02,0.10,0.89,-0.36,0.04,-0.83,
0.489,-0.01,0.10,0.90,-0.36,0.04,-0.83,
0.492,-0.02,0.10,0.91,-0.36,0.04,-0.83,
0.492,-0.02,0.10,0.91,-0.31,0.07,-0.76,
0.494,-0.02,0.10,0.91,-0.31,0.07,-0.76,
0.496,-0.02,0.10,0.90,-0.31,0.07,-0.76,
0.496,-0.02,0.10,0.90,-0.28,0.08,-0.59,
0.499,-0.02,0.10,0.91,-0.28,0.08,-0.59,
0.501,-0.02,0.10,0.91,-0.28,0.08,-0.59,
0.501,-0.02,0.10,0.91,-0.27,0.09,-0.60,
0.503,-0.03,0.11,0.92,-0.27,0.09,-0.60,
0.507,-0.04,0.10,0.92,-0.27,0.09,-0.60,
0.507,-0.04,0.10,0.92,-0.32,0.14,-0.54,
0.51,-0.05,0.10,0.92,-0.32,0.14,-0.54,
0.511,-0.05,0.11,0.92,-0.32,0.14,-0.54,
0.511,-0.05,0.11,0.92,-0.44,0.15,-0.48,
0.513,-0.05,0.10,0.92,-0.44,0.15,-0.48,
0.516,-0.05,0.10,0.92,-0.44,0.15,-0.48,
0.516,-0.05,0.10,0.92,-0.52,0.14,-0.47,
0.518,-0.06,0.10,0.93,-0.52,0.14,-0.47,
0.52,-0.06,0.10,0.94,-0.52,0.14,-0.47,
0.521,-0.06,0.10,0.94,-0.58,0.11,-0.45,
0.523,-0.07,0.10,0.94,-0.58,0.11,-0.45,
0.528,-0.07,0.09,0.93,-0.58,0.11,-0.45,
0.528,-0.07,0.09,0.93,-0.65,0.10,-0.34,
0.528,-0.07,0.08,0.93,-0.65,0.10,-0.34,
0.53,-0.08,0.08,0.94,-0.65,0.10,-0.34,
0.531,-0.08,0.08,0.94,-0.71,0.06,-0.31,
0.533,-0.08,0.08,0.94,-0.71,0.06,-0.31,
0.535,-0.08,0.08,0.94,-0.76,-0.03,-0.31,
0.536,-0.08,0.07,0.95,-0.76,-0.03,-0.31,
0.538,-0.08,0.07,0.94,-0.76,-0.03,-0.31,
0.546,-0.07,0.07,0.94,-0.76,-0.03,-0.31,
0.546,-0.07,0.07,0.94,-0.85,-0.11,-0.24,
0.546,-0.07,0.07,0.93,-0.85,-0.11,-0.24,
0.547,-0.07,0.07,0.92,-0.85,-0.11,-0.24,
0.547,-0.07,0.07,0.92,-0.82,-0.17,-0.27,
0.548,-0.06,0.07,0.91,-0.82,-0.17,-0.27,
0.55,-0.06,0.07,0.90,-0.82,-0.17,-0.27,
0.551,-0.06,0.07,0.90,-0.75,-0.14,-0.39,
0.553,-0.06,0.06,0.91,-0.75,-0.14,-0.39,
0.555,-0.06,0.06,0.90,-0.75,-0.14,-0.39,
0.556,-0.06,0.06,0.90,-0.68,-0.13,-0.55,
0.56,-0.06,0.07,0.89,-0.68,-0.13,-0.55,
0.56,-0.05,0.07,0.89,-0.68,-0.13,-0.55,
0.561,-0.05,0.07,0.89,-0.63,-0.21,-0.63,
0.563,-0.05,0.07,0.88,-0.63,-0.21,-0.63,
0.565,-0.05,0.07,0.88,-0.60,-0.18,-0.76,
0.566,-0.05,0.07,0.88,-0.60,-0.18,-0.76,
0.568,-0.05,0.07,0.88,-0.60,-0.18,-0.76,
0.57,-0.05,0.08,0.87,-0.60,-0.18,-0.76,
0.57,-0.05,0.08,0.87,-0.57,-0.16,-0.81,
0.573,-0.05,0.08,0.87,-0.57,-0.16,-0.81,
0.576,-0.04,0.09,0.87,-0.57,-0.16,-0.81,
0.577,-0.04,0.09,0.87,-0.52,-0.09,-0.86,
0.578,-0.05,0.09,0.86,-0.52,-0.09,-0.86,
0.58,-0.05,0.10,0.86,-0.52,-0.09,-0.86,
0.581,-0.05,0.10,0.86,-0.49,-0.01,-0.89,
0.583,-0.06,0.10,0.85,-0.49,-0.01,-0.89,
0.585,-0.06,0.10,0.85,-0.53,0.09,-0.99,
0.585,-0.07,0.11,0.85,-0.53,0.09,-0.99,
0.587,-0.08,0.11,0.85,-0.53,0.09,-0.99,
0.59,-0.09,0.11,0.85,-0.53,0.09,-0.99,
0.59,-0.09,0.11,0.85,-0.64,0.17,-1.09,
0.593,-0.10,0.12,0.85,-0.64,0.17,-1.09,
0.595,-0.12,0.12,0.86,-0.64,0.17,-1.09,
0.595,-0.12,0.12,0.86,-0.82,0.23,-1.07,
0.597,-0.12,0.12,0.86,-0.82,0.23,-1.07,
0.6,-0.12,0.12,0.86,-1.04,0.30,-1.03,
0.6,-0.13,0.12,0.86,-1.04,0.30,-1.03,
0.602,-0.14,0.13,0.86,-1.04,0.30,-1.03,
0.605,-0.15,0.14,0.86,-1.04,0.30,-1.03,
0.605,-0.15,0.14,0.86,-1.19,0.36,-0.99,
0.61,-0.16,0.14,0.87,-1.19,0.36,-0.99,
0.611,-0.17,0.14,0.88,-1.19,0.36,-0.99,
0.611,-0.17,0.14,0.88,-1.36,0.46,-0.98,
0.612,-0.18,0.13,0.89,-1.36,0.46,-0.98,
0.615,-0.19,0.12,0.89,-1.36,0.46,-0.98,
0.615,-0.19,0.12,0.89,-1.52,0.52,-0.86,
0.617,-0.20,0.11,0.89,-1.52,0.52,-0.86,
0.619,-0.21,0.10,0.88,-1.52,0.52,-0.86,
0.62,-0.21,0.10,0.88,-1.71,0.39,-0.70,
0.622,-0.22,0.10,0.88,-1.71,0.39,-0.70,
0.625,-0.22,0.09,0.88,-1.71,0.39,-0.70,
0.626,-0.22,0.09,0.88,-1.90,0.23,-0.74,
0.627,-0.23,0.08,0.88,-1.90,0.23,-0.74,
0.629,-0.23,0.08,0.88,-1.90,0.23,-0.74,
0.63,-0.23,0.08,0.88,-2.06,0.10,-0.76,
0.632,-0.22,0.08,0.88,-2.06,0.10,-0.76,
0.634,-0.23,0.08,0.88,-2.06,0.10,-0.76,
0.635,-0.23,0.08,0.88,-2.10,-0.00,-0.81,
0.637,-0.24,0.07,0.87,-2.10,-0.00,-0.81,
0.64,-0.23,0.08,0.87,-2.10,-0.00,-0.81,
0.64,-0.23,0.08,0.87,-2.10,-0.03,-0.80,
0.642,-0.23,0.07,0.86,-2.10,-0.03,-0.80,
0.644,-0.24,0.07,0.87,-2.10,-0.03,-0.80,
0.644,-0.24,0.07,0.87,-2.18,-0.03,-0.88,
0.647,-0.23,0.06,0.88,-2.18,-0.03,-0.88,
0.649,-0.23,0.06,0.88,-2.18,-0.03,-0.88,
0.649,-0.23,0.06,0.88,-2.18,-0.08,-0.89,
0.652,-0.23,0.06,0.88,-2.18,-0.08,-0.89,
0.654,-0.22,0.06,0.88,-2.18,-0.08,-0.89,
0.656,-0.22,0.06,0.88,-2.15,-0.17,-0.79,
0.657,-0.22,0.06,0.87,-2.15,-0.17,-0.79,
0.662,-0.22,0.06,0.87,-2.06,-0.17,-0.77,
0.662,-0.22,0.05,0.88,-2.06,-0.17,-0.77,
0.663,-0.21,0.05,0.88,-2.06,-0.17,-0.77,
0.664,-0.20,0.05,0.88,-2.06,-0.17,-0.77,
0.665,-0.20,0.05,0.88,-2.00,-0.20,-0.81,
0.667,-0.20,0.05,0.88,-2.00,-0.20,-0.81,
0.67,-0.20,0.05,0.89,-2.00,-0.20,-0.81,
0.671,-0.20,0.05,0.89,-1.83,-0.23,-0.80,
0.672,-0.20,0.05,0.88,-1.83,-0.23,-0.80,
0.675,-0.19,0.05,0.89,-1.83,-0.23,-0.80,
0.675,-0.19,0.05,0.89,-1.76,-0.20,-0.73,
0.681,-0.18,0.06,0.89,-1.76,-0.20,-0.73,
0.682,-0.19,0.07,0.90,-1.76,-0.20,-0.73,
0.682,-0.19,0.07,0.90,-1.68,-0.17,-0.71,
0.682,-0.18,0.08,0.90,-1.68,-0.17,-0.71,
0.684,-0.18,0.08,0.91,-1.68,-0.17,-0.71,
0.684,-0.18,0.08,0.91,-1.60,-0.01,-0.65,
0.687,-0.18,0.08,0.92,-1.60,-0.01,-0.65,
0.69,-0.18,0.08,0.92,-1.49,0.10,-0.52,
0.69,-0.19,0.08,0.92,-1.49,0.10,-0.52,
0.692,-0.20,0.08,0.92,-1.49,0.10,-0.52,
0.694,-0.20,0.08,0.93,-1.49,0.10,-0.52,
0.695,-0.20,0.08,0.93,-1.58,0.13,-0.41,
0.697,-0.20,0.08,0.93,-1.58,0.13,-0.41,
0.7,-0.20,0.08,0.93,-1.58,0.13,-0.41,
0.7,-0.20,0.08,0.93,-1.67,0.12,-0.31,
0.702,-0.19,0.08,0.93,-1.67,0.12,-0.31,
0.705,-0.20,0.09,0.93,-1.67,0.12,-0.31,
0.705,-0.20,0.09,0.93,-1.68,0.19,-0.30,
0.707,-0.20,0.08,0.93,-1.68,0.19,-0.30,
0.71,-0.21,0.08,0.94,-1.68,0.19,-0.30,
0.71,-0.21,0.08,0.94,-1.65,0.24,-0.28,
0.712,-0.21,0.08,0.95,-1.65,0.24,-0.28,
0.715,-0.22,0.08,0.94,-1.65,0.24,-0.28,
0.715,-0.22,0.08,0.94,-1.72,0.26,-0.22,
0.717,-0.22,0.08,0.94,-1.72,0.26,-0.22,
0.719,-0.22,0.08,0.94,-1.72,0.26,-0.22,
0.72,-0.22,0.08,0.94,-1.83,0.24,-0.12,
0.722,-0.23,0.08,0.94,-1.83,0.24,-0.12,
0.724,-0.23,0.07,0.94,-1.83,0.24,-0.12,
0.725,-0.23,0.07,0.94,-1.89,0.27,-0.16,
0.727,-0.23,0.06,0.94,-1.89,0.27,-0.16,
0.729,-0.22,0.06,0.94,-1.89,0.27,-0.16,
0.729,-0.22,0.06,0.94,-1.93,0.23,-0.18,
0.732,-0.23,0.05,0.94,-1.93,0.23,-0.18,
0.734,-0.23,0.05,0.94,-1.92,0.15,-0.14,
0.735,-0.22,0.05,0.93,-1.92,0.15,-0.14,
0.737,-0.22,0.04,0.93,-1.92,0.15,-0.14,
0.739,-0.23,0.03,0.93,-1.92,0.15,-0.14,
0.739,-0.23,0.03,0.93,-1.92,0.08,-0.22,
0.742,-0.22,0.03,0.93,-1.92,0.08,-0.22,
0.744,-0.22,0.02,0.93,-1.92,0.08,-0.22,
0.744,-0.22,0.02,0.93,-1.91,-0.03,-0.28,
0.746,-0.22,0.02,0.93,-1.91,-0.03,-0.28,
0.749,-0.22,0.02,0.93,-1.89,-0.14,-0.29,
0.749,-0.23,0.00,0.94,-1.89,-0.14,-0.29,
0.752,-0.22,-0.00,0.94,-1.89,-0.14,-0.29,
0.754,-0.22,-0.00,0.95,-1.89,-0.14,-0.29,
0.754,-0.22,-0.00,0.95,-1.89,-0.25,-0.24,
0.757,-0.22,-0.01,0.95,-1.89,-0.25,-0.24,
0.759,-0.21,-0.01,0.95,-1.89,-0.25,-0.24,
0.759,-0.21,-0.01,0.95,-1.81,-0.33,-0.15,
0.761,-0.21,-0.02,0.95,-1.81,-0.33,-0.15,
0.764,-0.21,-0.02,0.95,-1.75,-0.38,-0.10,
0.764,-0.22,-0.02,0.97,-1.75,-0.38,-0.10,
0.767,-0.22,-0.02,0.97,-1.75,-0.38,-0.10,
0.769,-0.22,-0.03,0.97,-1.75,-0.38,-0.10,
0.769,-0.22,-0.03,0.97,-1.74,-0.45,0.01,
0.771,-0.22,-0.03,0.98,-1.74,-0.45,0.01,
0.774,-0.22,-0.02,0.99,-1.74,-0.45,0.01,
0.774,-0.22,-0.02,0.99,-1.78,-0.44,0.13,
0.776,-0.22,-0.03,1.00,-1.78,-0.44,0.13,
0.781,-0.22,-0.03,1.01,-1.78,-0.44,0.13,
0.781,-0.22,-0.03,1.01,-1.74,-0.43,0.24,
0.782,-0.22,-0.03,1.02,-1.74,-0.43,0.24,
0.783,-0.22,-0.03,1.02,-1.74,-0.43,0.24,
0.783,-0.22,-0.03,1.02,-1.67,-0.40,0.41,
0.786,-0.22,-0.03,1.02,-1.67,-0.40,0.41,
0.789,-0.22,-0.03,1.02,-1.70,-0.41,0.60,
0.789,-0.22,-0.03,1.03,-1.70,-0.41,0.60,
0.791,-0.21,-0.01,1.04,-1.70,-0.41,0.60,
0.794,-0.20,-0.01,1.04,-1.70,-0.41,0.60,
0.794,-0.20,-0.01,1.04,-1.66,-0.35,0.64,
0.796,-0.20,0.01,1.04,-1.66,-0.35,0.64,
0.798,-0.19,0.01,1.04,-1.66,-0.35,0.64,
0.799,-0.19,0.01,1.04,-1.55,-0.15,0.76,
0.801,-0.19,0.03,1.04,-1.55,-0.15,0.76,
0.803,-0.19,0.04,1.04,-1.55,-0.15,0.76,
0.803,-0.19,0.04,1.04,-1.39,0.08,0.80,
0.805,-0.19,0.04,1.05,-1.39,0.08,0.80,
0.808,-0.20,0.05,1.05,-1.39,0.08,0.80,
0.808,-0.20,0.05,1.05,-1.32,0.33,0.81,
0.81,-0.21,0.05,1.05,-1.32,0.33,0.81,
0.813,-0.21,0.05,1.05,-1.36,0.52,0.85,
0.813,-0.22,0.05,1.04,-1.36,0.52,0.85,
0.815,-0.22,0.05,1.04,-1.36,0.52,0.85,
0.817,-0.22,0.05,1.02,-1.36,0.52,0.85,
0.818,-0.22,0.05,1.02,-1.53,0.60,0.83,
0.821,-0.23,0.03,1.02,-1.53,0.60,0.83,
0.823,-0.23,0.03,1.02,-1.53,0.60,0.83,
0.823,-0.23,0.03,1.02,-1.59,0.58,0.68,
0.827,-0.24,0.02,1.02,-1.59,0.58,0.68,
0.828,-0.24,0.02,1.01,-1.59,0.58,0.68,
0.828,-0.24,0.02,1.01,-1.69,0.44,0.57,
0.83,-0.25,0.01,1.00,-1.69,0.44,0.57,
0.833,-0.25,0.01,1.00,-1.75,0.34,0.53,
0.833,-0.26,0.00,1.00,-1.75,0.34,0.53,
0.835,-0.27,-0.01,1.00,-1.75,0.34,0.53,
0.837,-0.27,-0.01,1.00,-1.88,0.25,0.37,
0.838,-0.28,-0.01,1.00,-1.88,0.25,0.37,
0.84,-0.28,-0.02,1.00,-1.88,0.25,0.37,
0.843,-0.29,-0.02,1.01,-1.88,0.25,0.37,
0.844,-0.29,-0.02,1.01,-2.05,0.17,0.38,
0.845,-0.30,-0.02,1.01,-2.05,0.17,0.38,
0.847,-0.30,-0.02,1.03,-2.05,0.17,0.38,
0.848,-0.30,-0.02,1.03,-2.16,0.11,0.44,
0.85,-0.30,-0.04,1.04,-2.16,0.11,0.44,
0.852,-0.30,-0.04,1.05,-2.16,0.11,0.44,
0.853,-0.30,-0.04,1.05,-2.25,0.10,0.58,
0.855,-0.31,-0.04,1.06,-2.25,0.10,0.58,
0.857,-0.30,-0.05,1.07,-2.25,0.10,0.58,
0.858,-0.30,-0.05,1.07,-2.27,-0.02,0.85,
0.86,-0.30,-0.06,1.09,-2.27,-0.02,0.85,
0.862,-0.30,-0.06,1.09,-2.27,-0.02,0.85,
0.862,-0.30,-0.06,1.09,-2.28,-0.08,1.02,
0.865,-0.29,-0.07,1.11,-2.28,-0.08,1.02,
0.867,-0.28,-0.07,1.11,-2.28,-0.08,1.02,
0.868,-0.28,-0.07,1.11,-2.19,-0.16,1.28,
0.87,-0.27,-0.07,1.13,-2.19,-0.16,1.28,
0.872,-0.27,-0.06,1.14,-2.19,-0.16,1.28,
0.872,-0.27,-0.06,1.14,-2.05,-0.17,1.46,
0.874,-0.26,-0.06,1.15,-2.05,-0.17,1.46,
0.881,-0.25,-0.05,1.15,-2.05,-0.17,1.46,
0.881,-0.25,-0.05,1.15,-1.87,-0.09,1.66,
0.881,-0.25,-0.05,1.16,-1.87,-0.09,1.66,
0.883,-0.24,-0.04,1.16,-1.87,-0.09,1.66,
0.883,-0.24,-0.04,1.16,-1.68,0.05,1.84,
0.884,-0.24,-0.05,1.16,-1.68,0.05,1.84,
0.887,-0.24,-0.05,1.16,-1.60,0.16,1.97,
0.887,-0.24,-0.05,1.16,-1.60,0.16,1.97,
0.889,-0.24,-0.04,1.16,-1.60,0.16,1.97,
0.893,-0.24,-0.05,1.15,-1.60,0.16,1.97,
0.893,-0.24,-0.05,1.15,-1.52,0.19,1.94,
0.895,-0.25,-0.05,1.15,-1.52,0.19,1.94,
0.897,-0.25,-0.05,1.14,-1.52,0.19,1.94,
0.897,-0.25,-0.05,1.14,-1.56,0.23,1.92,
0.899,-0.25,-0.06,1.13,-1.56,0.23,1.92,
0.902,-0.26,-0.06,1.12,-1.56,0.23,1.92,
0.902,-0.26,-0.06,1.12,-1.61,0.19,1.78,
0.904,-0.26,-0.06,1.10,-1.61,0.19,1.78,
0.908,-0.26,-0.06,1.09,-1.61,0.19,1.78,
0.908,-0.26,-0.06,1.09,-1.66,0.14,1.55,
0.91,-0.26,-0.06,1.08,-1.66,0.14,1.55,
0.913,-0.26,-0.06,1.08,-1.72,0.12,1.30,
0.913,-0.27,-0.06,1.07,-1.72,0.12,1.30,
0.914,-0.27,-0.07,1.06,-1.72,0.12,1.30,
0.917,-0.28,-0.06,1.05,-1.72,0.12,1.30,
0.918,-0.28,-0.06,1.05,-1.75,0.14,1.08,
0.919,-0.29,-0.07,1.04,-1.75,0.14,1.08,
0.922,-0.29,-0.07,1.04,-1.75,0.14,1.08,
0.922,-0.29,-0.07,1.04,-1.85,0.15,0.91,
0.924,-0.30,-0.07,1.03,-1.85,0.15,0.91,
0.928,-0.31,-0.08,1.03,-1.85,0.15,0.91,
0.928,-0.31,-0.08,1.03,-1.95,0.11,0.74,
0.929,-0.32,-0.09,1.03,-1.95,0.11,0.74,
0.932,-0.33,-0.09,1.02,-1.95,0.11,0.74,
0.933,-0.33,-0.09,1.02,-2.09,0.07,0.63,
0.934,-0.34,-0.09,1.03,-2.09,0.07,0.63,
0.937,-0.34,-0.10,1.03,-2.09,0.07,0.63,
0.937,-0.34,-0.10,1.03,-2.29,-0.04,0.61,
0.939,-0.35,-0.10,1.04,-2.29,-0.04,0.61,
0.941,-0.35,-0.09,1.05,-2.29,-0.04,0.61,
0.942,-0.35,-0.09,1.05,-2.38,-0.08,0.64,
0.945,-0.35,-0.10,1.07,-2.38,-0.08,0.64,
0.947,-0.35,-0.10,1.09,-2.38,-0.08,0.64,
0.947,-0.35,-0.10,1.09,-2.46,-0.03,0.81,
0.949,-0.34,-0.09,1.09,-2.46,-0.03,0.81,
0.951,-0.34,-0.09,1.11,-2.46,-0.03,0.81,
0.952,-0.34,-0.09,1.11,-2.43,-0.01,1.11,
0.954,-0.34,-0.10,1.12,-2.43,-0.01,1.11,
0.956,-0.33,-0.10,1.14,-2.43,-0.01,1.11,
0.956,-0.33,-0.10,1.14,-2.38,0.05,1.36,
0.959,-0.33,-0.11,1.16,-2.38,0.05,1.36,
0.966,-0.32,-0.11,1.17,-2.38,0.05,1.36,
0.968,-0.32,-0.11,1.17,-2.27,0.02,1.65,
0.968,-0.31,-0.12,1.17,-2.27,0.02,1.65,
0.968,-0.30,-0.12,1.18,-2.27,0.02,1.65,
0.968,-0.30,-0.12,1.18,-2.16,-0.05,1.95,
0.969,-0.30,-0.13,1.19,-2.16,-0.05,1.95,
0.974,-0.29,-0.13,1.20,-2.16,-0.05,1.95,
0.974,-0.29,-0.13,1.20,-2.00,-0.13,2.09,
0.974,-0.28,-0.14,1.20,-2.00,-0.13,2.09,
0.977,-0.28,-0.14,1.21,-2.00,-0.13,2.09,
0.977,-0.28,-0.14,1.21,-1.81,-0.20,2.31,
0.982,-0.27,-0.14,1.21,-1.81,-0.20,2.31,
0.983,-0.26,-0.14,1.21,-1.81,-0.20,2.31,
0.983,-0.26,-0.14,1.21,-1.66,-0.22,2.37,
0.984,-0.25,-0.14,1.20,-1.66,-0.22,2.37,
0.988,-0.25,-0.14,1.20,-1.66,-0.22,2.37,
0.989,-0.25,-0.14,1.20,-1.52,-0.22,2.39,
0.99,-0.25,-0.14,1.19,-1.52,-0.22,2.39,
0.992,-0.24,-0.14,1.18,-1.52,-0.22,2.39,
0.994,-0.24,-0.14,1.18,-1.39,-0.21,2.31,
0.998,-0.24,-0.14,1.17,-1.39,-0.21,2.31,
0.998,-0.24,-0.14,1.17,-1.39,-0.21,2.31,
0.998,-0.24,-0.14,1.17,-1.30,-0.21,2.19,
1.0,-0.23,-0.14,1.16,-1.30,-0.21,2.19,
1.001,-0.23,-0.14,1.16,-1.18,-0.18,2.02,
1.002,-0.23,-0.14,1.15,-1.18,-0.18,2.02,
1.005,-0.24,-0.14,1.15,-1.18,-0.18,2.02,
1.006,-0.24,-0.14,1.14,-1.18,-0.18,2.02,
1.006,-0.24,-0.14,1.14,-1.13,-0.16,1.86,
1.008,-0.24,-0.14,1.13,-1.13,-0.16,1.86,
1.013,-0.24,-0.14,1.13,-1.13,-0.15,1.75,
1.013,-0.24,-0.14,1.14,-1.13,-0.15,1.75,
1.014,-0.24,-0.14,1.13,-1.13,-0.15,1.75,
1.016,-0.25,-0.14,1.12,-1.13,-0.15,1.75,
1.016,-0.25,-0.14,1.12,-1.15,-0.17,1.65,
1.018,-0.25,-0.15,1.12,-1.15,-0.17,1.65,
1.021,-0.25,-0.15,1.12,-1.15,-0.17,1.65,
1.021,-0.25,-0.15,1.12,-1.16,-0.18,1.58,
1.024,-0.25,-0.15,1.11,-1.16,-0.18,1.58,
1.026,-0.25,-0.15,1.11,-1.16,-0.18,1.58,
1.026,-0.25,-0.15,1.11,-1.19,-0.22,1.50,
1.028,-0.26,-0.15,1.11,-1.19,-0.22,1.50,
1.031,-0.26,-0.14,1.11,-1.19,-0.22,1.50,
1.032,-0.26,-0.14,1.11,-1.19,-0.21,1.41,
1.034,-0.26,-0.14,1.10,-1.19,-0.21,1.41,
1.036,-0.27,-0.14,1.10,-1.19,-0.21,1.41,
1.036,-0.27,-0.14,1.10,-1.22,-0.18,1.38,
1.039,-0.27,-0.13,1.10,-1.22,-0.18,1.38,
1.041,-0.27,-0.13,1.09,-1.22,-0.18,1.38,
1.041,-0.27,-0.13,1.09,-1.28,-0.12,1.33,
1.045,-0.27,-0.13,1.09,-1.28,-0.12,1.33,
1.046,-0.27,-0.12,1.09,-1.28,-0.12,1.33,
1.047,-0.27,-0.12,1.09,-1.29,-0.03,1.25,
1.049,-0.27,-0.12,1.09,-1.29,-0.03,1.25,
1.051,-0.27,-0.12,1.08,-1.29,-0.03,1.25,
1.051,-0.27,-0.12,1.08,-1.30,0.04,1.22,
1.053,-0.27,-0.13,1.08,-1.30,0.04,1.22,
1.056,-0.27,-0.13,1.07,-1.30,0.04,1.22,
1.057,-0.27,-0.13,1.07,-1.30,0.08,1.13,
1.059,-0.27,-0.13,1.07,-1.30,0.08,1.13,
1.064,-0.27,-0.13,1.07,-1.28,0.03,1.03,
1.064,-0.27,-0.14,1.07,-1.28,0.03,1.03,
1.064,-0.27,-0.14,1.07,-1.28,0.03,1.03,
1.065,-0.26,-0.14,1.07,-1.28,0.03,1.03,
1.066,-0.26,-0.14,1.07,-1.25,-0.01,0.98,
1.069,-0.26,-0.15,1.07,-1.25,-0.01,0.98,
1.071,-0.26,-0.15,1.07,-1.25,-0.01,0.98,
1.071,-0.26,-0.15,1.07,-1.19,-0.08,0.99,
1.074,-0.26,-0.16,1.07,-1.19,-0.08,0.99,
1.076,-0.25,-0.16,1.07,-1.19,-0.08,0.99,
1.076,-0.25,-0.16,1.07,-1.12,-0.14,1.00,
1.078,-0.25,-0.16,1.08,-1.12,-0.14,1.00,
1.08,-0.24,-0.17,1.08,-1.12,-0.14,1.00,
1.081,-0.24,-0.17,1.08,-1.06,-0.22,0.99,
1.083,-0.24,-0.18,1.09,-1.06,-0.22,0.99,
1.086,-0.24,-0.18,1.09,-0.97,-0.31,1.11,
1.086,-0.24,-0.18,1.09,-0.97,-0.31,1.11,
1.088,-0.23,-0.19,1.09,-0.97,-0.31,1.11,
1.09,-0.23,-0.19,1.10,-0.97,-0.31,1.11,
1.09,-0.23,-0.19,1.10,-0.88,-0.41,1.19,
1.093,-0.22,-0.19,1.10,-0.88,-0.41,1.19,
1.099,-0.22,-0.20,1.11,-0.88,-0.41,1.19,
1.099,-0.22,-0.20,1.11,-0.80,-0.45,1.25,
1.1,-0.21,-0.20,1.11,-0.80,-0.45,1.25,
1.1,-0.21,-0.20,1.11,-0.80,-0.45,1.25,
1.1,-0.21,-0.20,1.11,-0.71,-0.51,1.33,
1.104,-0.20,-0.21,1.11,-0.71,-0.51,1.33,
1.105,-0.20,-0.20,1.11,-0.71,-0.51,1.33,
1.105,-0.20,-0.20,1.11,-0.63,-0.57,1.40,
1.108,-0.20,-0.20,1.12,-0.63,-0.57,1.40,
1.112,-0.20,-0.20,1.12,-0.55,-0.59,1.43,
1.112,-0.20,-0.20,1.13,-0.55,-0.59,1.43,
1.113,-0.20,-0.20,1.13,-0.55,-0.59,1.43,
1.115,-0.20,-0.19,1.13,-0.55,-0.59,1.43,
1.115,-0.20,-0.19,1.13,-0.53,-0.55,1.55,
1.117,-0.20,-0.19,1.13,-0.53,-0.55,1.55,
1.12,-0.19,-0.19,1.13,-0.53,-0.55,1.55,
1.12,-0.19,-0.19,1.13,-0.48,-0.49,1.58,
1.123,-0.19,-0.19,1.13,-0.48,-0.49,1.58,
1.125,-0.19,-0.19,1.12,-0.48,-0.49,1.58,
1.126,-0.19,-0.19,1.12,-0.42,-0.42,1.58,
1.127,-0.19,-0.18,1.13,-0.42,-0.42,1.58,
1.13,-0.19,-0.18,1.12,-0.42,-0.42,1.58,
1.131,-0.19,-0.18,1.12,-0.42,-0.37,1.54,
1.132,-0.19,-0.18,1.11,-0.42,-0.37,1.54,
1.135,-0.19,-0.18,1.11,-0.42,-0.37,1.54,
1.135,-0.19,-0.18,1.11,-0.41,-0.32,1.52,
1.138,-0.19,-0.17,1.11,-0.41,-0.32,1.52,
1.14,-0.19,-0.17,1.09,-0.41,-0.32,1.52,
1.14,-0.19,-0.17,1.09,-0.38,-0.26,1.41,
1.142,-0.20,-0.16,1.09,-0.38,-0.26,1.41,
1.146,-0.20,-0.15,1.08,-0.38,-0.26,1.41,
1.146,-0.20,-0.15,1.08,-0.38,-0.18,1.28,
1.147,-0.20,-0.14,1.07,-0.38,-0.18,1.28,
1.15,-0.20,-0.14,1.07,-0.38,-0.18,1.28,
1.153,-0.20,-0.14,1.07,-0.45,-0.08,1.10,
1.153,-0.20,-0.13,1.06,-0.45,-0.08,1.10,
1.154,-0.21,-0.13,1.05,-0.45,-0.08,1.10,
1.155,-0.21,-0.13,1.05,-0.45,0.08,0.99,
1.157,-0.21,-0.13,1.04,-0.45,0.08,0.99,
1.163,-0.21,-0.13,1.04,-0.48,0.16,0.84,
1.163,-0.21,-0.12,1.03,-0.48,0.16,0.84,
1.163,-0.21,-0.12,1.02,-0.48,0.16,0.84,
1.166,-0.20,-0.12,1.02,-0.48,0.16,0.84,
1.166,-0.20,-0.12,1.02,-0.51,0.22,0.66,
1.167,-0.20,-0.11,1.01,-0.51,0.22,0.66,
1.17,-0.19,-0.11,1.00,-0.51,0.22,0.66,
1.17,-0.19,-0.11,1.00,-0.47,0.26,0.48,
1.172,-0.18,-0.12,1.00,-0.47,0.26,0.48,
1.174,-0.18,-0.12,1.00,-0.47,0.26,0.48,
1.174,-0.18,-0.12,1.00,-0.34,0.31,0.36,
1.176,-0.18,-0.13,1.00,-0.34,0.31,0.36,
1.18,-0.17,-0.13,1.00,-0.34,0.31,0.36,
1.18,-0.17,-0.13,1.00,-0.20,0.26,0.29,
1.182,-0.16,-0.14,1.00,-0.20,0.26,0.29,
1.184,-0.16,-0.15,1.00,-0.20,0.26,0.29,
1.184,-0.16,-0.15,1.00,-0.12,0.16,0.29,
1.186,-0.16,-0.16,1.00,-0.12,0.16,0.29,
1.189,-0.16,-0.16,1.01,-0.12,0.16,0.29,
1.189,-0.16,-0.16,1.01,-0.02,0.01,0.31,
1.191,-0.15,-0.17,1.02,-0.02,0.01,0.31,
1.198,-0.14,-0.17,1.03,-0.02,0.01,0.31,
1.199,-0.14,-0.17,1.03,0.05,-0.15,0.37,
1.199,-0.14,-0.18,1.04,0.05,-0.15,0.37,
1.2,-0.14,-0.18,1.05,0.05,-0.15,0.37,
1.201,-0.14,-0.18,1.05,0.17,-0.24,0.53,
1.201,-0.13,-0.19,1.05,0.17,-0.24,0.53,
1.204,-0.13,-0.19,1.05,0.17,-0.24,0.53,
1.204,-0.13,-0.19,1.05,0.28,-0.33,0.71,
1.207,-0.13,-0.20,1.06,0.28,-0.33,0.71,
1.209,-0.12,-0.20,1.06,0.28,-0.33,0.71,
1.209,-0.12,-0.20,1.06,0.35,-0.41,0.79,
1.211,-0.11,-0.21,1.06,0.35,-0.41,0.79,
1.215,-0.11,-0.21,1.07,0.35,-0.41,0.79,
1.215,-0.11,-0.21,1.07,0.45,-0.49,0.85,
1.216,-0.10,-0.22,1.08,0.45,-0.49,0.85,
1.219,-0.10,-0.22,1.08,0.45,-0.49,0.85,
1.219,-0.10,-0.22,1.08,0.56,-0.59,0.93,
1.221,-0.09,-0.21,1.07,0.56,-0.59,0.93,
1.223,-0.08,-0.21,1.08,0.56,-0.59,0.93,
1.224,-0.08,-0.21,1.08,0.69,-0.68,1.05,
1.226,-0.08,-0.21,1.08,0.69,-0.68,1.05,
1.23,-0.07,-0.20,1.08,0.69,-0.68,1.05,
1.231,-0.07,-0.20,1.08,0.81,-0.62,1.00,
1.231,-0.07,-0.19,1.08,0.81,-0.62,1.00,
1.234,-0.07,-0.19,1.08,0.95,-0.51,1.08,
1.234,-0.06,-0.17,1.09,0.95,-0.51,1.08,
1.236,-0.06,-0.16,1.09,0.95,-0.51,1.08,
1.238,-0.06,-0.15,1.08,0.95,-0.51,1.08,
1.239,-0.06,-0.15,1.08,1.08,-0.29,1.12,
1.241,-0.06,-0.13,1.08,1.08,-0.29,1.12,
1.243,-0.07,-0.11,1.08,1.08,-0.29,1.12,
1.245,-0.07,-0.11,1.08,1.13,-0.05,1.12,
1.246,-0.07,-0.10,1.07,1.13,-0.05,1.12,
1.248,-0.08,-0.10,1.06,1.13,-0.05,1.12,
1.249,-0.08,-0.10,1.06,1.10,0.28,1.05,
1.251,-0.09,-0.09,1.06,1.10,0.28,1.05,
1.253,-0.10,-0.09,1.06,1.10,0.28,1.05,
1.253,-0.10,-0.09,1.06,1.02,0.48,0.92,
1.256,-0.10,-0.09,1.05,1.02,0.48,0.92,
1.258,-0.11,-0.09,1.05,1.02,0.48,0.92,
1.258,-0.11,-0.09,1.05,0.87,0.57,0.86,
1.262,-0.12,-0.09,1.05,0.87,0.57,0.86,
1.263,-0.13,-0.09,1.04,0.87,0.57,0.86,
1.263,-0.13,-0.09,1.04,0.76,0.55,0.76,
1.266,-0.14,-0.10,1.03,0.76,0.55,0.76,
1.268,-0.15,-0.10,1.03,0.76,0.55,0.76,
1.269,-0.15,-0.10,1.03,0.61,0.52,0.71,
1.271,-0.16,-0.10,1.03,0.61,0.52,0.71,
1.273,-0.16,-0.10,1.03,0.61,0.52,0.71,
1.273,-0.16,-0.10,1.03,0.45,0.47,0.61,
1.275,-0.17,-0.11,1.03,0.45,0.47,0.61,
1.279,-0.18,-0.11,1.04,0.45,0.47,0.61,
1.28,-0.18,-0.11,1.04,0.31,0.42,0.61,
1.281,-0.18,-0.11,1.05,0.31,0.42,0.61,
1.283,-0.18,-0.12,1.05,0.31,0.42,0.61,
1.283,-0.18,-0.12,1.05,0.20,0.36,0.68,
1.285,-0.18,-0.13,1.06,0.20,0.36,0.68,
1.288,-0.18,-0.12,1.07,0.20,0.36,0.68,
1.288,-0.18,-0.12,1.07,0.22,0.26,0.82,
1.29,-0.17,-0.12,1.07,0.22,0.26,0.82,
1.293,-0.17,-0.13,1.08,0.22,0.26,0.82,
1.293,-0.17,-0.13,1.08,0.21,0.19,0.94,
1.296,-0.16,-0.14,1.08,0.21,0.19,0.94,
1.299,-0.15,-0.14,1.10,0.21,0.19,0.94,
1.299,-0.15,-0.14,1.10,0.29,0.19,1.07,
1.3,-0.14,-0.15,1.12,0.29,0.19,1.07,
1.303,-0.14,-0.15,1.14,0.29,0.19,1.07,
1.303,-0.14,-0.15,1.14,0.46,0.06,1.21,
1.305,-0.13,-0.16,1.14,0.46,0.06,1.21,
1.309,-0.13,-0.16,1.15,0.46,0.06,1.21,
1.309,-0.13,-0.16,1.15,0.62,0.00,1.54,
1.31,-0.12,-0.17,1.17,0.62,0.00,1.54,
1.316,-0.11,-0.17,1.18,0.62,0.00,1.54,
1.316,-0.11,-0.17,1.18,0.70,-0.11,1.78,
1.319,-0.10,-0.17,1.19,0.70,-0.11,1.78,
1.319,-0.10,-0.18,1.20,0.70,-0.11,1.78,
1.319,-0.10,-0.18,1.20,0.85,-0.18,2.06,
1.32,-0.09,-0.19,1.19,0.85,-0.18,2.06,
1.323,-0.09,-0.19,1.20,0.85,-0.18,2.06,
1.323,-0.09,-0.19,1.20,0.98,-0.26,2.19,
1.325,-0.08,-0.20,1.22,0.98,-0.26,2.19,
1.33,-0.08,-0.20,1.22,0.98,-0.26,2.19,
1.331,-0.08,-0.20,1.22,1.11,-0.34,2.25,
1.331,-0.08,-0.20,1.23,1.11,-0.34,2.25,
1.333,-0.08,-0.20,1.23,1.16,-0.43,2.43,
1.333,-0.08,-0.21,1.23,1.16,-0.43,2.43,
1.335,-0.07,-0.21,1.23,1.16,-0.43,2.43,
1.34,-0.08,-0.22,1.23,1.16,-0.43,2.43,
1.34,-0.08,-0.22,1.23,1.17,-0.48,2.53,
1.34,-0.07,-0.22,1.23,1.17,-0.48,2.53,
1.343,-0.07,-0.23,1.22,1.17,-0.48,2.53,
1.343,-0.07,-0.23,1.22,1.23,-0.58,2.54,
1.346,-0.07,-0.24,1.23,1.23,-0.58,2.54,
1.348,-0.07,-0.24,1.22,1.23,-0.58,2.54,
1.348,-0.07,-0.24,1.22,1.24,-0.70,2.51,
1.35,-0.07,-0.25,1.21,1.24,-0.70,2.51,
1.353,-0.07,-0.25,1.21,1.24,-0.70,2.51,
1.353,-0.07,-0.25,1.21,1.27,-0.84,2.46,
1.356,-0.07,-0.25,1.21,1.27,-0.84,2.46,
1.359,-0.07,-0.25,1.21,1.26,-0.89,2.32,
1.359,-0.07,-0.25,1.21,1.26,-0.89,2.32,
1.361,-0.07,-0.25,1.20,1.26,-0.89,2.32,
1.363,-0.07,-0.24,1.20,1.26,-0.89,2.32,
1.363,-0.07,-0.24,1.20,1.29,-0.91,2.30,
1.365,-0.07,-0.24,1.20,1.29,-0.91,2.30,
1.368,-0.08,-0.24,1.20,1.29,-0.91,2.30,
1.368,-0.08,-0.24,1.20,1.30,-0.89,2.25,
1.37,-0.08,-0.23,1.20,1.30,-0.89,2.25,
1.372,-0.08,-0.22,1.20,1.30,-0.89,2.25,
1.373,-0.08,-0.22,1.20,1.29,-0.82,2.24,
1.376,-0.09,-0.22,1.21,1.29,-0.82,2.24,
1.378,-0.08,-0.22,1.21,1.29,-0.82,2.24,
1.378,-0.08,-0.22,1.21,1.26,-0.75,2.26,
1.38,-0.08,-0.22,1.22,1.26,-0.75,2.26,
1.382,-0.07,-0.21,1.21,1.26,-0.75,2.26,
1.383,-0.07,-0.21,1.21,1.23,-0.66,2.30,
1.385,-0.07,-0.22,1.22,1.23,-0.66,2.30,
1.388,-0.07,-0.22,1.22,1.31,-0.64,2.35,
1.388,-0.06,-0.22,1.22,1.31,-0.64,2.35,
1.39,-0.06,-0.22,1.21,1.31,-0.64,2.35,
1.393,-0.05,-0.23,1.22,1.31,-0.64,2.35,
1.393,-0.05,-0.23,1.22,1.38,-0.68,2.37,
1.395,-0.04,-0.23,1.22,1.38,-0.68,2.37,
1.397,-0.03,-0.23,1.21,1.38,-0.68,2.37,
1.397,-0.03,-0.23,1.21,1.51,-0.77,2.34,
1.4,-0.03,-0.23,1.21,1.51,-0.77,2.34,
1.403,-0.03,-0.23,1.21,1.69,-0.80,2.31,
1.403,-0.02,-0.23,1.20,1.69,-0.80,2.31,
1.405,-0.01,-0.23,1.19,1.69,-0.80,2.31,
1.407,0.00,-0.22,1.19,1.69,-0.80,2.31,
1.408,0.00,-0.22,1.19,1.78,-0.83,2.21,
1.41,0.01,-0.22,1.18,1.78,-0.83,2.21,
1.412,0.02,-0.22,1.18,1.78,-0.83,2.21,
1.417,0.02,-0.22,1.18,1.97,-0.81,2.04,
1.418,0.02,-0.22,1.18,1.97,-0.81,2.04,
1.418,0.03,-0.21,1.17,1.97,-0.81,2.04,
1.418,0.03,-0.21,1.17,2.12,-0.77,1.94,
1.42,0.03,-0.21,1.17,2.12,-0.77,1.94,
1.422,0.03,-0.21,1.17,2.12,-0.77,1.94,
1.422,0.03,-0.21,1.17,2.21,-0.75,1.88,
1.424,0.02,-0.21,1.16,2.21,-0.75,1.88,
1.428,0.02,-0.21,1.16,2.21,-0.75,1.88,
1.428,0.02,-0.21,1.16,2.19,-0.69,1.82,
1.43,0.01,-0.21,1.15,2.19,-0.69,1.82,
1.432,0.01,-0.21,1.15,2.09,-0.73,1.74,
1.432,0.01,-0.21,1.16,2.09,-0.73,1.74,
1.435,0.00,-0.21,1.15,2.09,-0.73,1.74,
1.437,-0.01,-0.20,1.15,2.09,-0.73,1.74,
1.437,-0.01,-0.20,1.15,1.96,-0.74,1.70,
1.44,-0.02,-0.21,1.15,1.96,-0.74,1.70,
1.442,-0.02,-0.21,1.15,1.96,-0.74,1.70,
1.442,-0.02,-0.21,1.15,1.82,-0.69,1.64,
1.444,-0.03,-0.20,1.15,1.82,-0.69,1.64,
1.447,-0.03,-0.20,1.15,1.82,-0.69,1.64,
1.448,-0.03,-0.20,1.15,1.66,-0.73,1.58,
1.449,-0.04,-0.20,1.15,1.66,-0.73,1.58,
1.451,-0.05,-0.19,1.15,1.66,-0.73,1.58,
1.452,-0.05,-0.19,1.15,1.54,-0.66,1.57,
1.454,-0.05,-0.19,1.15,1.54,-0.66,1.57,
1.456,-0.05,-0.19,1.15,1.35,-0.65,1.57,
1.456,-0.04,-0.19,1.15,1.35,-0.65,1.57,
1.459,-0.05,-0.19,1.16,1.35,-0.65,1.57,
1.461,-0.05,-0.18,1.16,1.35,-0.65,1.57,
1.461,-0.05,-0.18,1.16,1.33,-0.61,1.61,
1.464,-0.04,-0.19,1.16,1.33,-0.61,1.61,
1.466,-0.05,-0.18,1.16,1.33,-0.61,1.61,
1.466,-0.05,-0.18,1.16,1.28,-0.59,1.65,
1.469,-0.05,-0.19,1.17,1.28,-0.59,1.65,
1.471,-0.05,-0.20,1.16,1.28,-0.59,1.65,
1.471,-0.05,-0.20,1.16,1.31,-0.59,1.62,
1.473,-0.05,-0.19,1.15,1.31,-0.59,1.62,
1.477,-0.05,-0.19,1.14,1.31,-0.59,1.62,
1.477,-0.05,-0.19,1.14,1.28,-0.68,1.69,
1.48,-0.05,-0.19,1.14,1.28,-0.68,1.69,
1.483,-0.05,-0.18,1.14,1.28,-0.68,1.69,
1.483,-0.05,-0.18,1.14,1.23,-0.70,1.53,
1.483,-0.05,-0.18,1.15,1.23,-0.70,1.53,
1.487,-0.06,-0.18,1.15,1.23,-0.70,1.53,
1.487,-0.06,-0.18,1.15,1.25,-0.68,1.49,
1.488,-0.06,-0.18,1.15,1.25,-0.68,1.49,
1.491,-0.06,-0.17,1.15,1.25,-0.68,1.49,
1.491,-0.06,-0.17,1.15,1.22,-0.60,1.55,
1.493,-0.07,-0.16,1.15,1.22,-0.60,1.55,
1.497,-0.07,-0.15,1.15,1.22,-0.60,1.55,
1.497,-0.07,-0.15,1.15,1.14,-0.57,1.53,
1.498,-0.06,-0.15,1.14,1.14,-0.57,1.53,
1.501,-0.06,-0.14,1.13,1.14,-0.57,1.53,
1.501,-0.06,-0.14,1.13,1.08,-0.44,1.50,
1.503,-0.06,-0.14,1.11,1.08,-0.44,1.50,
1.506,-0.06,-0.14,1.11,1.14,-0.38,1.37,
1.506,-0.05,-0.14,1.11,1.14,-0.38,1.37,
1.509,-0.05,-0.14,1.11,1.14,-0.38,1.37,
1.512,-0.06,-0.14,1.11,1.14,-0.38,1.37,
1.512,-0.06,-0.14,1.11,1.19,-0.35,1.11,
1.514,-0.05,-0.14,1.10,1.19,-0.35,1.11,
1.516,-0.06,-0.14,1.10,1.19,-0.35,1.11,
1.516,-0.06,-0.14,1.10,1.20,-0.37,1.10,
1.519,-0.05,-0.14,1.10,1.20,-0.37,1.10,
1.521,-0.04,-0.15,1.10,1.20,-0.37,1.10,
1.521,-0.04,-0.15,1.10,1.19,-0.40,1.03,
1.524,-0.03,-0.15,1.10,1.19,-0.40,1.03,
1.526,-0.03,-0.15,1.10,1.19,-0.40,1.03,
1.526,-0.03,-0.15,1.10,1.26,-0.51,0.97,
1.529,-0.02,-0.16,1.10,1.26,-0.51,0.97,
1.535,-0.02,-0.16,1.10,1.26,-0.51,0.97,
1.535,-0.02,-0.16,1.10,1.39,-0.59,1.00,
1.535,-0.01,-0.17,1.10,1.39,-0.59,1.00,
1.536,-0.01,-0.17,1.10,1.39,-0.59,1.00,
1.536,-0.01,-0.17,1.10,1.46,-0.69,1.00,
1.539,-0.01,-0.17,1.10,1.46,-0.69,1.00,
1.541,0.00,-0.17,1.09,1.46,-0.69,1.00,
1.541,0.00,-0.17,1.09,1.52,-0.80,1.00,
1.543,-0.00,-0.17,1.09,1.52,-0.80,1.00,
1.547,0.00,-0.18,1.10,1.52,-0.80,1.00,
1.548,0.00,-0.18,1.10,1.57,-0.87,0.90,
1.548,-0.00,-0.18,1.11,1.57,-0.87,0.90,
1.551,-0.00,-0.18,1.11,1.57,-0.87,0.90,
1.551,-0.00,-0.18,1.11,1.59,-0.89,0.90,
1.553,-0.00,-0.18,1.11,1.59,-0.89,0.90,
1.556,-0.01,-0.17,1.11,1.59,-0.89,0.90,
1.556,-0.01,-0.17,1.11,1.55,-0.94,1.06,
1.558,-0.01,-0.17,1.10,1.55,-0.94,1.06,
1.56,-0.01,-0.17,1.10,1.55,-0.94,1.06,
1.561,-0.01,-0.17,1.10,1.48,-0.93,1.02,
1.564,-0.01,-0.17,1.10,1.48,-0.93,1.02,
1.565,-0.02,-0.17,1.10,1.48,-0.93,1.02,
1.566,-0.02,-0.17,1.10,1.42,-0.92,0.94,
1.568,-0.03,-0.17,1.10,1.42,-0.92,0.94,
1.571,-0.03,-0.17,1.09,1.42,-0.92,0.94,
1.571,-0.03,-0.17,1.09,1.33,-0.95,0.93,
1.573,-0.03,-0.17,1.09,1.33,-0.95,0.93,
1.576,-0.03,-0.17,1.08,1.33,-0.95,0.93,
1.576,-0.03,-0.17,1.08,1.20,-0.95,0.89,
1.578,-0.03,-0.16,1.09,1.20,-0.95,0.89,
1.581,-0.03,-0.15,1.08,1.20,-0.95,0.89,
1.581,-0.03,-0.15,1.08,1.17,-0.94,0.80,
1.583,-0.03,-0.15,1.07,1.17,-0.94,0.80,
1.586,-0.03,-0.15,1.07,1.13,-0.89,0.77,
1.586,-0.03,-0.14,1.06,1.13,-0.89,0.77,
1.588,-0.02,-0.14,1.07,1.13,-0.89,0.77,
1.591,-0.03,-0.14,1.07,1.13,-0.89,0.77,
1.591,-0.03,-0.14,1.07,1.14,-0.78,0.56,
1.593,-0.02,-0.13,1.07,1.14,-0.78,0.56,
1.596,-0.01,-0.13,1.06,1.14,-0.78,0.56,
1.596,-0.01,-0.13,1.06,1.16,-0.73,0.63,
1.598,-0.01,-0.13,1.06,1.16,-0.73,0.63,
1.6,-0.01,-0.13,1.06,1.16,-0.73,0.63,
1.6,-0.01,-0.13,1.06,1.22,-0.71,0.56,
1.603,-0.00,-0.13,1.05,1.22,-0.71,0.56,
1.605,-0.00,-0.13,1.04,1.22,-0.71,0.56,
1.606,-0.00,-0.13,1.04,1.29,-0.70,0.48,
1.608,0.01,-0.13,1.04,1.29,-0.70,0.48,
1.61,0.01,-0.13,1.03,1.29,-0.70,0.48,
1.61,0.01,-0.13,1.03,1.32,-0.75,0.37,
1.615,0.01,-0.13,1.02,1.32,-0.75,0.37,
1.615,0.02,-0.13,1.02,1.32,-0.75,0.37,
1.615,0.02,-0.13,1.02,1.40,-0.82,0.20,
1.618,0.02,-0.14,1.01,1.40,-0.82,0.20,
1.62,0.02,-0.14,1.00,1.40,-0.82,0.20,
1.62,0.02,-0.14,1.00,1.46,-0.84,0.10,
1.623,0.03,-0.13,0.99,1.46,-0.84,0.10,
1.625,0.03,-0.13,1.00,1.46,-0.84,0.10,
1.626,0.03,-0.13,1.00,1.50,-0.91,-0.06,
1.628,0.03,-0.13,1.02,1.50,-0.91,-0.06,
1.63,0.04,-0.14,1.01,1.50,-0.91,-0.06,
1.63,0.04,-0.14,1.01,1.58,-0.90,-0.11,
1.635,0.04,-0.14,1.01,1.58,-0.90,-0.11,
1.636,0.04,-0.14,1.00,1.58,-0.90,-0.11,
1.636,0.04,-0.14,1.00,1.58,-0.95,0.03,
1.637,0.04,-0.14,1.00,1.58,-0.95,0.03,
1.639,0.03,-0.14,1.00,1.58,-0.95,0.03,
1.64,0.03,-0.14,1.00,1.61,-1.01,-0.05,
1.643,0.04,-0.13,1.00,1.61,-1.01,-0.05,
1.644,0.03,-0.13,1.00,1.61,-1.01,-0.05,
1.648,0.03,-0.13,1.00,1.56,-1.02,-0.11,
1.648,0.03,-0.13,1.00,1.56,-1.02,-0.11,
1.656,0.02,-0.13,1.01,1.56,-1.02,-0.11,
1.658,0.02,-0.13,1.01,1.55,-1.00,-0.11,
1.659,0.02,-0.12,1.00,1.55,-1.00,-0.11,
1.659,0.02,-0.12,1.00,1.42,-1.01,-0.07,
1.659,0.01,-0.12,1.01,1.42,-1.01,-0.07,
1.659,0.01,-0.12,1.01,1.42,-1.01,-0.07,
1.66,0.01,-0.12,1.01,1.42,-1.01,-0.07,
1.66,0.01,-0.12,1.01,1.30,-0.93,-0.05,
1.662,0.00,-0.11,1.01,1.30,-0.93,-0.05,
1.664,0.00,-0.11,1.00,1.30,-0.93,-0.05,
1.665,0.00,-0.11,1.00,1.23,-0.93,-0.01,
1.667,0.01,-0.11,1.00,1.23,-0.93,-0.01,
1.669,-0.00,-0.11,1.00,1.23,-0.93,-0.01,
1.669,-0.00,-0.11,1.00,1.17,-0.90,-0.07,
1.672,-0.01,-0.11,1.00,1.17,-0.90,-0.07,
1.675,-0.01,-0.11,1.00,1.17,-0.90,-0.07,
1.675,-0.01,-0.11,1.00,1.17,-0.88,-0.13,
1.677,-0.02,-0.10,1.00,1.17,-0.88,-0.13,
1.68,-0.02,-0.09,1.00,1.17,-0.88,-0.13,
1.68,-0.02,-0.09,1.00,1.06,-0.88,-0.11,
1.682,-0.02,-0.09,0.99,1.06,-0.88,-0.11,
1.684,-0.02,-0.09,0.99,0.97,-0.82,-0.14,
1.685,-0.02,-0.09,0.99,0.97,-0.82,-0.14,
1.687,-0.02,-0.09,0.99,0.97,-0.82,-0.14,
1.689,-0.03,-0.08,1.00,0.97,-0.82,-0.14,
1.689,-0.03,-0.08,1.00,0.90,-0.76,-0.20,
1.692,-0.03,-0.08,1.00,0.90,-0.76,-0.20,
1.695,-0.03,-0.08,1.00,0.90,-0.76,-0.20,
1.695,-0.03,-0.08,1.00,0.86,-0.72,-0.16,
1.697,-0.03,-0.07,0.99,0.86,-0.72,-0.16,
1.699,-0.03,-0.07,0.99,0.86,-0.72,-0.16,
1.699,-0.03,-0.07,0.99,0.80,-0.72,-0.16,
1.702,-0.03,-0.07,0.99,0.80,-0.72,-0.16,
1.704,-0.03,-0.07,0.99,0.78,-0.65,-0.22,
1.704,-0.04,-0.07,0.98,0.78,-0.65,-0.22,
1.707,-0.03,-0.07,0.98,0.78,-0.65,-0.22,
1.709,-0.03,-0.07,0.98,0.72,-0.68,-0.27,
1.709,-0.03,-0.07,0.97,0.72,-0.68,-0.27,
1.712,-0.03,-0.06,0.97,0.72,-0.68,-0.27,
1.715,-0.02,-0.06,0.97,0.72,-0.68,-0.27,
1.715,-0.02,-0.06,0.97,0.76,-0.67,-0.36,
1.717,-0.02,-0.06,0.97,0.76,-0.67,-0.36,
1.719,-0.02,-0.06,0.97,0.76,-0.67,-0.36,
1.72,-0.02,-0.06,0.97,0.82,-0.62,-0.46,
1.722,-0.02,-0.06,0.97,0.82,-0.62,-0.46,
1.724,-0.02,-0.05,0.96,0.82,-0.62,-0.46,
1.724,-0.02,-0.05,0.96,0.82,-0.62,-0.45,
1.727,-0.01,-0.06,0.97,0.82,-0.62,-0.45,
1.729,-0.02,-0.06,0.97,0.82,-0.62,-0.45,
1.729,-0.02,-0.06,0.97,0.85,-0.62,-0.46,
1.732,-0.02,-0.06,0.97,0.85,-0.62,-0.46,
1.734,-0.02,-0.07,0.97,0.85,-0.62,-0.46,
1.734,-0.02,-0.07,0.97,0.87,-0.67,-0.42,
1.737,-0.02,-0.08,0.97,0.87,-0.67,-0.42,
1.739,-0.02,-0.08,0.98,0.87,-0.67,-0.42,
1.739,-0.02,-0.08,0.98,0.81,-0.78,-0.43,
1.742,-0.02,-0.09,0.98,0.81,-0.78,-0.43,
1.744,-0.03,-0.10,0.97,0.81,-0.78,-0.43,
1.744,-0.03,-0.10,0.97,0.78,-0.90,-0.38,
1.746,-0.03,-0.10,0.96,0.78,-0.90,-0.38,
1.751,-0.03,-0.09,0.95,0.78,-0.90,-0.38,
1.752,-0.03,-0.09,0.95,0.74,-1.07,-0.37,
1.752,-0.03,-0.09,0.96,0.74,-1.07,-0.37,
1.753,-0.02,-0.09,0.97,0.74,-1.07,-0.37,
1.754,-0.02,-0.09,0.97,0.69,-1.09,-0.54,
1.756,-0.01,-0.08,0.97,0.69,-1.09,-0.54,
1.758,-0.02,-0.08,0.97,0.69,-1.09,-0.54,
1.759,-0.02,-0.08,0.97,0.71,-1.07,-0.46,
1.761,-0.01,-0.08,0.98,0.71,-1.07,-0.46,
1.765,-0.01,-0.07,0.98,0.71,-1.07,-0.46,
1.766,-0.01,-0.07,0.98,0.76,-1.01,-0.42,
1.766,-0.02,-0.07,0.98,0.76,-1.01,-0.42,
1.768,-0.01,-0.07,0.99,0.76,-1.01,-0.42,
1.768,-0.01,-0.07,0.99,0.78,-0.95,-0.36,
1.771,-0.01,-0.07,0.98,0.78,-0.95,-0.36,
1.774,-0.01,-0.07,0.98,0.78,-0.95,-0.36,
1.775,-0.01,-0.07,0.98,0.75,-0.93,-0.29,
1.776,-0.01,-0.06,0.98,0.75,-0.93,-0.29,
1.779,-0.01,-0.06,0.98,0.76,-0.94,-0.32,
1.779,-0.01,-0.06,0.97,0.76,-0.94,-0.32,
1.781,-0.01,-0.06,0.97,0.76,-0.94,-0.32,
1.784,-0.01,-0.06,0.97,0.76,-0.94,-0.32,
1.784,-0.01,-0.06,0.97,0.80,-0.90,-0.34,
1.786,-0.01,-0.07,0.96,0.80,-0.90,-0.34,
1.789,-0.01,-0.07,0.96,0.77,-0.94,-0.44,
1.789,-0.01,-0.07,0.95,0.77,-0.94,-0.44,
1.791,-0.01,-0.06,0.95,0.77,-0.94,-0.44,
1.794,-0.02,-0.06,0.94,0.77,-0.94,-0.44,
1.794,-0.02,-0.06,0.94,0.72,-1.00,-0.56,
1.796,-0.01,-0.06,0.93,0.72,-1.00,-0.56,
1.798,-0.01,-0.06,0.92,0.72,-1.00,-0.56,
1.799,-0.01,-0.06,0.92,0.70,-0.98,-0.66,
1.801,-0.01,-0.06,0.92,0.70,-0.98,-0.66,
1.803,-0.01,-0.06,0.92,0.70,-0.99,-0.83,
1.803,-0.00,-0.06,0.92,0.70,-0.99,-0.83,
1.806,-0.00,-0.06,0.91,0.70,-0.99,-0.83,
1.808,0.00,-0.06,0.90,0.70,-0.99,-0.83,
1.808,0.00,-0.06,0.90,0.74,-0.99,-0.92,
1.81,0.00,-0.05,0.90,0.74,-0.99,-0.92,
1.813,0.00,-0.05,0.89,0.74,-0.99,-0.92,
1.813,0.00,-0.05,0.89,0.81,-0.99,-1.02,
1.816,0.00,-0.05,0.88,0.81,-0.99,-1.02,
1.817,0.01,-0.04,0.87,0.81,-0.99,-1.02,
1.818,0.01,-0.04,0.87,0.84,-0.96,-1.16,
1.82,0.01,-0.04,0.86,0.84,-0.96,-1.16,
1.823,0.01,-0.04,0.86,0.85,-0.91,-1.33,
1.823,0.01,-0.03,0.86,0.85,-0.91,-1.33,
1.825,0.02,-0.02,0.86,0.85,-0.91,-1.33,
1.827,0.02,-0.02,0.86,0.85,-0.91,-1.33,
1.828,0.02,-0.02,0.86,0.90,-0.87,-1.46,
1.835,0.02,-0.02,0.86,0.90,-0.87,-1.46,
1.836,0.01,-0.02,0.86,0.90,-0.87,-1.46,
1.836,0.01,-0.02,0.86,0.95,-0.78,-1.52,
1.836,0.02,-0.02,0.86,0.95,-0.78,-1.52,
1.837,0.02,-0.02,0.86,0.95,-0.78,-1.52,
1.838,0.02,-0.02,0.86,0.91,-0.80,-1.47,
1.84,0.02,-0.01,0.86,0.91,-0.80,-1.47,
1.842,0.01,-0.01,0.86,0.91,-0.80,-1.47,
1.843,0.01,-0.01,0.86,0.92,-0.76,-1.51,
1.845,0.01,-0.01,0.86,0.92,-0.76,-1.51,
1.848,0.01,-0.01,0.86,0.92,-0.76,-1.51,
1.849,0.01,-0.01,0.86,0.89,-0.74,-1.50,
1.85,0.01,-0.00,0.86,0.89,-0.74,-1.50,
1.852,0.01,-0.00,0.86,0.85,-0.71,-1.49,
1.853,0.01,0.00,0.86,0.85,-0.71,-1.49,
1.855,0.01,0.00,0.86,0.85,-0.71,-1.49,
1.857,-0.00,0.01,0.85,0.85,-0.71,-1.49,
1.857,-0.00,0.01,0.85,0.80,-0.65,-1.49,
1.86,-0.00,0.01,0.86,0.80,-0.65,-1.49,
1.863,-0.00,0.01,0.86,0.80,-0.65,-1.49,
1.863,-0.00,0.01,0.86,0.73,-0.63,-1.50,
1.865,-0.00,0.01,0.85,0.73,-0.63,-1.50,
1.868,0.00,0.02,0.84,0.73,-0.63,-1.50,
1.868,0.00,0.02,0.84,0.66,-0.60,-1.43,
1.87,-0.00,0.02,0.84,0.66,-0.60,-1.43,
1.873,-0.00,0.03,0.85,0.66,-0.60,-1.43,
1.873,-0.00,0.03,0.85,0.70,-0.54,-1.56,
1.875,-0.01,0.03,0.86,0.70,-0.54,-1.56,
1.877,-0.01,0.02,0.87,0.70,-0.54,-1.56,
1.877,-0.01,0.02,0.87,0.67,-0.45,-1.57,
1.879,-0.01,0.02,0.87,0.67,-0.45,-1.57,
1.882,-0.02,0.02,0.87,0.67,-0.45,-1.57,
1.883,-0.02,0.02,0.87,0.58,-0.47,-1.40,
1.884,-0.02,0.02,0.88,0.58,-0.47,-1.40,
1.888,-0.01,0.02,0.89,0.58,-0.47,-1.40,
1.888,-0.01,0.02,0.89,0.53,-0.53,-1.33,
1.89,-0.01,0.02,0.90,0.53,-0.53,-1.33,
1.892,-0.00,0.02,0.89,0.53,-0.53,-1.33,
1.892,-0.00,0.02,0.89,0.52,-0.52,-1.19,
1.894,-0.00,0.03,0.89,0.52,-0.52,-1.19,
1.898,-0.00,0.03,0.90,0.52,-0.52,-1.19,
1.899,-0.00,0.03,0.90,0.58,-0.50,-1.11,
1.9,-0.00,0.03,0.91,0.58,-0.50,-1.11,
1.902,-0.00,0.03,0.91,0.64,-0.46,-1.09,
1.902,-0.00,0.03,0.91,0.64,-0.46,-1.09,
1.904,-0.00,0.03,0.91,0.64,-0.46,-1.09,
1.907,-0.01,0.02,0.91,0.64,-0.46,-1.09,
1.907,-0.01,0.02,0.91,0.63,-0.44,-0.96,
1.909,-0.00,0.02,0.91,0.63,-0.44,-0.96,
1.912,-0.01,0.02,0.92,0.63,-0.44,-0.96,
1.913,-0.01,0.02,0.92,0.58,-0.53,-0.94,
1.915,-0.01,0.02,0.92,0.58,-0.53,-0.94,
1.917,-0.01,0.02,0.92,0.58,-0.53,-0.94,
1.917,-0.01,0.02,0.92,0.57,-0.55,-0.92,
1.92,-0.02,0.02,0.92,0.57,-0.55,-0.92,
1.922,-0.02,0.02,0.91,0.57,-0.55,-0.92,
1.922,-0.02,0.02,0.91,0.50,-0.59,-0.86,
1.924,-0.03,0.02,0.91,0.50,-0.59,-0.86,
1.927,-0.03,0.02,0.90,0.50,-0.59,-0.86,
1.927,-0.03,0.02,0.90,0.41,-0.61,-0.89,
1.929,-0.04,0.02,0.91,0.41,-0.61,-0.89,
1.932,-0.04,0.02,0.90,0.41,-0.61,-0.89,
1.933,-0.04,0.02,0.90,0.31,-0.63,-0.97,
1.934,-0.03,0.03,0.89,0.31,-0.63,-0.97,
1.937,-0.04,0.03,0.90,0.31,-0.63,-0.97,
1.937,-0.04,0.03,0.90,0.21,-0.62,-0.99,
1.939,-0.05,0.03,0.91,0.21,-0.62,-0.99,
1.941,-0.05,0.03,0.91,0.21,-0.62,-0.99,
1.942,-0.05,0.03,0.91,0.16,-0.53,-1.05,
1.944,-0.05,0.04,0.92,0.16,-0.53,-1.05,
1.953,-0.05,0.03,0.92,0.16,-0.53,-1.05,
1.953,-0.05,0.03,0.92,0.05,-0.50,-0.93,
1.953,-0.04,0.03,0.92,0.05,-0.50,-0.93,
1.954,-0.04,0.03,0.92,0.05,-0.48,-0.83,
1.954,-0.04,0.03,0.92,0.05,-0.48,-0.83,
1.954,-0.04,0.04,0.92,0.05,-0.48,-0.83,
1.957,-0.04,0.03,0.93,0.05,-0.48,-0.83,
1.957,-0.04,0.03,0.93,0.07,-0.50,-0.80,
1.959,-0.04,0.03,0.92,0.07,-0.50,-0.80,
1.961,-0.03,0.03,0.92,0.07,-0.50,-0.80,
1.961,-0.03,0.03,0.92,0.10,-0.51,-0.78,
1.965,-0.03,0.02,0.91,0.10,-0.51,-0.78,
1.966,-0.03,0.02,0.91,0.10,-0.51,-0.78,
1.967,-0.03,0.02,0.91,0.11,-0.58,-0.83,
1.969,-0.02,0.02,0.91,0.11,-0.58,-0.83,
1.972,-0.02,0.02,0.90,0.11,-0.58,-0.83,
1.972,-0.02,0.02,0.90,0.16,-0.65,-0.90,
1.974,-0.01,0.02,0.90,0.16,-0.65,-0.90,
1.976,-0.01,0.02,0.90,0.16,-0.65,-0.90,
1.976,-0.01,0.02,0.90,0.22,-0.68,-0.95,
1.979,-0.00,0.03,0.89,0.22,-0.68,-0.95,
1.982,-0.01,0.03,0.89,0.22,-0.68,-0.95,
1.983,-0.01,0.03,0.89,0.30,-0.65,-1.03,
1.984,-0.00,0.04,0.88,0.30,-0.65,-1.03,
1.986,-0.00,0.04,0.88,0.30,-0.65,-1.03,
1.987,-0.00,0.04,0.88,0.36,-0.61,-1.11,
1.989,-0.01,0.04,0.88,0.36,-0.61,-1.11,
1.991,-0.01,0.05,0.88,0.36,-0.61,-1.11,
1.991,-0.01,0.05,0.88,0.38,-0.57,-1.18,
1.996,-0.02,0.05,0.88,0.38,-0.57,-1.18,
1.996,-0.02,0.05,0.88,0.32,-0.49,-1.17,
1.996,-0.01,0.05,0.87,0.32,-0.49,-1.17,
1.999,-0.02,0.06,0.87,0.32,-0.49,-1.17,
2.002,-0.02,0.06,0.86,0.32,-0.49,-1.17,
2.002,-0.02,0.06,0.86,0.25,-0.45,-1.24,
2.004,-0.03,0.06,0.86,0.25,-0.45,-1.24,
2.006,-0.03,0.06,0.86,0.19,-0.43,-1.35,
2.007,-0.03,0.06,0.85,0.19,-0.43,-1.35,
2.009,-0.03,0.06,0.85,0.19,-0.43,-1.35,
2.011,-0.03,0.06,0.85,0.19,-0.43,-1.35,
2.011,-0.03,0.06,0.85,0.14,-0.40,-1.46,
2.014,-0.03,0.06,0.84,0.14,-0.40,-1.46,
2.016,-0.03,0.06,0.84,0.14,-0.40,-1.46,
2.016,-0.03,0.06,0.84,0.12,-0.40,-1.50,
2.018,-0.03,0.06,0.84,0.12,-0.40,-1.50,
2.021,-0.03,0.06,0.84,0.12,-0.40,-1.50,
2.021,-0.03,0.06,0.84,0.10,-0.42,-1.54,
2.024,-0.03,0.06,0.84,0.10,-0.42,-1.54,
2.026,-0.03,0.06,0.85,0.10,-0.42,-1.54,
2.026,-0.03,0.06,0.85,0.11,-0.43,-1.59,
2.029,-0.02,0.06,0.84,0.11,-0.43,-1.59,
2.031,-0.02,0.06,0.84,0.11,-0.43,-1.59,
2.031,-0.02,0.06,0.84,0.14,-0.44,-1.55,
2.034,-0.02,0.06,0.85,0.14,-0.44,-1.55,
2.036,-0.02,0.06,0.86,0.14,-0.44,-1.55,
2.036,-0.02,0.06,0.86,0.17,-0.45,-1.53,
2.039,-0.02,0.06,0.86,0.17,-0.45,-1.53,
2.041,-0.01,0.06,0.86,0.17,-0.45,-1.53,
2.041,-0.01,0.06,0.86,0.17,-0.48,-1.45,
2.044,-0.01,0.06,0.87,0.17,-0.48,-1.45,
2.046,-0.01,0.06,0.88,0.17,-0.48,-1.45,
2.046,-0.01,0.06,0.88,0.24,-0.46,-1.34,
2.05,-0.00,0.05,0.88,0.24,-0.46,-1.34,
2.05,-0.00,0.05,0.90,0.24,-0.46,-1.34,
2.051,-0.00,0.05,0.90,0.26,-0.50,-1.18,
2.054,-0.00,0.05,0.91,0.26,-0.50,-1.18,
2.056,-0.00,0.05,0.92,0.26,-0.50,-1.18,
2.056,-0.00,0.05,0.92,0.32,-0.55,-1.05,
2.058,-0.01,0.05,0.93,0.32,-0.55,-1.05,
2.061,-0.01,0.05,0.94,0.32,-0.55,-1.05,
2.061,-0.01,0.05,0.94,0.32,-0.58,-0.81,
2.064,-0.01,0.05,0.95,0.32,-0.58,-0.81,
2.069,-0.01,0.05,0.95,0.32,-0.58,-0.81,
2.07,-0.01,0.05,0.95,0.27,-0.61,-0.63,
2.07,-0.01,0.05,0.97,0.27,-0.61,-0.63,
2.07,-0.01,0.05,0.97,0.27,-0.61,-0.63,
2.07,-0.01,0.05,0.97,0.23,-0.57,-0.46,
2.073,-0.01,0.06,0.97,0.23,-0.57,-0.46,
2.075,-0.01,0.06,0.97,0.22,-0.55,-0.28,
2.076,-0.01,0.06,0.98,0.22,-0.55,-0.28,
2.077,-0.02,0.06,0.98,0.22,-0.55,-0.28,
2.081,-0.02,0.07,0.97,0.22,-0.55,-0.28,
2.081,-0.02,0.07,0.97,0.20,-0.47,-0.21,
2.083,-0.02,0.07,0.98,0.20,-0.47,-0.21,
2.085,-0.03,0.08,0.98,0.20,-0.47,-0.21,
2.085,-0.03,0.08,0.98,0.14,-0.43,-0.22,
2.088,-0.03,0.08,0.97,0.14,-0.43,-0.22,
2.09,-0.04,0.08,0.97,0.14,-0.43,-0.22,
2.091,-0.04,0.08,0.97,0.05,-0.36,-0.21,
2.093,-0.05,0.08,0.96,0.05,-0.36,-0.21,
2.096,-0.06,0.08,0.96,0.05,-0.36,-0.21,
2.096,-0.06,0.08,0.96,-0.07,-0.33,-0.26,
2.098,-0.06,0.08,0.96,-0.07,-0.33,-0.26,
2.1,-0.07,0.09,0.94,-0.07,-0.33,-0.26,
2.1,-0.07,0.09,0.94,-0.23,-0.32,-0.35,
2.102,-0.08,0.09,0.94,-0.23,-0.32,-0.35,
2.105,-0.08,0.09,0.94,-0.38,-0.26,-0.48,
2.105,-0.08,0.09,0.93,-0.38,-0.26,-0.48,
2.107,-0.09,0.09,0.92,-0.38,-0.26,-0.48,
2.11,-0.09,0.09,0.91,-0.38,-0.26,-0.48,
2.11,-0.09,0.09,0.91,-0.51,-0.23,-0.60,
2.112,-0.10,0.10,0.91,-0.51,-0.23,-0.60,
2.116,-0.10,0.10,0.91,-0.51,-0.23,-0.60,
2.116,-0.10,0.10,0.91,-0.62,-0.21,-0.79,
2.117,-0.10,0.10,0.90,-0.62,-0.21,-0.79,
2.12,-0.11,0.10,0.89,-0.62,-0.21,-0.79,
2.12,-0.11,0.10,0.89,-0.74,-0.16,-0.85,
2.122,-0.12,0.10,0.89,-0.74,-0.16,-0.85,
2.125,-0.12,0.10,0.89,-0.82,-0.16,-0.97,
2.125,-0.12,0.10,0.89,-0.82,-0.16,-0.97,
2.127,-0.13,0.09,0.88,-0.82,-0.16,-0.97,
2.129,-0.13,0.09,0.88,-0.97,-0.13,-1.04,
2.13,-0.13,0.09,0.88,-0.97,-0.13,-1.04,
2.133,-0.14,0.10,0.88,-0.97,-0.13,-1.04,
2.134,-0.14,0.10,0.88,-0.97,-0.13,-1.04,
2.135,-0.14,0.10,0.88,-1.06,-0.21,-1.11,
2.137,-0.14,0.10,0.89,-1.06,-0.21,-1.11,
2.139,-0.14,0.10,0.89,-1.13,-0.17,-1.13,
2.142,-0.14,0.10,0.89,-1.13,-0.17,-1.13,
2.142,-0.14,0.11,0.90,-1.13,-0.17,-1.13,
2.145,-0.13,0.11,0.90,-1.13,-0.17,-1.13,
2.145,-0.13,0.11,0.90,-1.13,-0.14,-1.04,
2.147,-0.14,0.11,0.91,-1.13,-0.14,-1.04,
2.15,-0.14,0.11,0.91,-1.12,-0.09,-0.94,
2.15,-0.13,0.11,0.91,-1.12,-0.09,-0.94,
2.153,-0.13,0.12,0.92,-1.12,-0.09,-0.94,
2.154,-0.12,0.11,0.94,-1.12,-0.09,-0.94,
2.154,-0.12,0.11,0.94,-1.12,-0.05,-0.82,
2.157,-0.12,0.12,0.94,-1.12,-0.05,-0.82,
2.159,-0.12,0.13,0.96,-1.12,-0.05,-0.82,
2.16,-0.12,0.13,0.96,-1.00,-0.00,-0.64,
2.162,-0.12,0.13,0.96,-1.00,-0.00,-0.64,
2.171,-0.12,0.13,0.97,-1.00,-0.00,-0.64,
2.172,-0.12,0.13,0.97,-0.99,0.07,-0.43,
2.172,-0.12,0.13,0.97,-0.99,0.07,-0.43,
2.172,-0.12,0.13,0.97,-0.99,0.07,-0.43,
2.173,-0.12,0.13,0.97,-1.00,0.10,-0.27,
2.173,-0.12,0.13,0.97,-1.00,0.10,-0.27,
2.176,-0.12,0.13,0.97,-1.02,0.11,-0.25,
2.176,-0.12,0.13,0.97,-1.02,0.11,-0.25,
2.177,-0.12,0.13,0.97,-1.02,0.11,-0.25,
2.18,-0.12,0.13,0.97,-1.02,0.11,-0.25,
2.18,-0.12,0.13,0.97,-1.01,0.14,-0.20,
2.183,-0.12,0.13,0.97,-1.01,0.14,-0.20,
2.185,-0.12,0.13,0.96,-1.01,0.14,-0.20,
2.185,-0.12,0.13,0.96,-1.01,0.16,-0.25,
2.186,-0.12,0.13,0.95,-1.01,0.16,-0.25,
2.189,-0.12,0.13,0.94,-1.01,0.16,-0.25,
2.189,-0.12,0.13,0.94,-1.01,0.15,-0.32,
2.192,-0.12,0.13,0.93,-1.01,0.15,-0.32,
2.194,-0.12,0.13,0.93,-1.01,0.15,-0.32,
2.194,-0.12,0.13,0.93,-1.00,0.15,-0.47,
2.196,-0.12,0.13,0.92,-1.00,0.15,-0.47,
2.201,-0.12,0.13,0.92,-0.99,0.12,-0.63,
2.201,-0.13,0.13,0.92,-0.99,0.12,-0.63,
2.201,-0.13,0.13,0.92,-0.99,0.12,-0.63,
2.204,-0.13,0.13,0.91,-0.99,0.12,-0.63,
2.204,-0.13,0.13,0.91,-1.05,0.10,-0.71,
2.206,-0.14,0.14,0.92,-1.05,0.10,-0.71,
2.209,-0.14,0.14,0.92,-1.05,0.10,-0.71,
2.21,-0.14,0.14,0.92,-1.12,0.12,-0.75,
2.212,-0.14,0.14,0.92,-1.12,0.12,-0.75,
2.214,-0.14,0.14,0.92,-1.21,0.17,-0.73,
2.215,-0.15,0.14,0.91,-1.21,0.17,-0.73,
2.217,-0.16,0.14,0.92,-1.21,0.17,-0.73,
2.219,-0.16,0.14,0.92,-1.21,0.17,-0.73,
2.22,-0.16,0.14,0.92,-1.26,0.19,-0.77,
2.221,-0.17,0.14,0.91,-1.26,0.19,-0.77,
2.223,-0.17,0.15,0.91,-1.26,0.19,-0.77,
2.224,-0.17,0.15,0.91,-1.40,0.21,-0.75,
2.226,-0.18,0.15,0.91,-1.40,0.21,-0.75,
2.228,-0.19,0.15,0.91,-1.40,0.21,-0.75,
2.229,-0.19,0.15,0.91,-1.50,0.24,-0.84,
2.233,-0.19,0.15,0.92,-1.50,0.24,-0.84,
2.234,-0.20,0.15,0.92,-1.50,0.24,-0.84,
2.235,-0.20,0.15,0.92,-1.65,0.26,-0.80,
2.236,-0.20,0.16,0.92,-1.65,0.26,-0.80,
2.238,-0.20,0.16,0.92,-1.65,0.26,-0.80,
2.238,-0.20,0.16,0.92,-1.73,0.31,-0.73,
2.241,-0.20,0.16,0.92,-1.73,0.31,-0.73,
2.243,-0.19,0.16,0.92,-1.73,0.31,-0.73,
2.243,-0.19,0.16,0.92,-1.76,0.35,-0.71,
2.246,-0.19,0.16,0.92,-1.76,0.35,-0.71,
2.251,-0.19,0.16,0.92,-1.76,0.35,-0.71,
2.252,-0.19,0.16,0.92,-1.73,0.38,-0.70,
2.252,-0.18,0.16,0.93,-1.73,0.38,-0.70,
2.255,-0.18,0.16,0.92,-1.73,0.38,-0.70,
2.256,-0.18,0.16,0.92,-1.68,0.37,-0.67,
2.256,-0.17,0.15,0.93,-1.68,0.37,-0.67,
2.258,-0.16,0.16,0.93,-1.68,0.37,-0.67,
2.258,-0.16,0.16,0.93,-1.59,0.37,-0.70,
2.262,-0.15,0.15,0.93,-1.59,0.37,-0.70,
2.263,-0.14,0.16,0.92,-1.59,0.37,-0.70,
2.264,-0.14,0.16,0.92,-1.44,0.32,-0.64,
2.267,-0.13,0.16,0.92,-1.44,0.32,-0.64,
2.269,-0.13,0.16,0.92,-1.44,0.32,-0.64,
2.27,-0.13,0.16,0.92,-1.26,0.34,-0.66,
2.271,-0.13,0.16,0.92,-1.26,0.34,-0.66,
2.273,-0.12,0.17,0.92,-1.26,0.34,-0.66,
2.273,-0.12,0.17,0.92,-1.10,0.40,-0.72,
2.276,-0.11,0.17,0.92,-1.10,0.40,-0.72,
2.279,-0.11,0.17,0.93,-1.10,0.40,-0.72,
2.279,-0.11,0.17,0.93,-1.03,0.43,-0.70,
2.281,-0.11,0.17,0.92,-1.03,0.43,-0.70,
2.289,-0.11,0.17,0.92,-1.03,0.43,-0.70,
2.29,-0.11,0.17,0.92,-0.92,0.44,-0.65,
2.29,-0.10,0.17,0.92,-0.92,0.44,-0.65,
2.29,-0.10,0.17,0.93,-0.92,0.44,-0.65,
2.29,-0.10,0.17,0.93,-0.90,0.48,-0.67,
2.291,-0.10,0.17,0.93,-0.90,0.48,-0.67,
2.294,-0.10,0.17,0.93,-0.90,0.48,-0.67,
2.294,-0.10,0.17,0.93,-0.83,0.46,-0.64,
2.296,-0.10,0.17,0.94,-0.83,0.46,-0.64,
2.298,-0.10,0.17,0.94,-0.81,0.49,-0.59,
2.298,-0.10,0.17,0.95,-0.81,0.49,-0.59,
2.307,-0.10,0.16,0.95,-0.81,0.49,-0.59,
2.308,-0.10,0.16,0.95,-0.81,0.49,-0.59,
2.308,-0.10,0.16,0.95,-0.84,0.48,-0.44,
2.311,-0.10,0.16,0.96,-0.84,0.48,-0.44,
2.311,-0.11,0.16,0.95,-0.84,0.48,-0.44,
2.311,-0.11,0.16,0.95,-0.82,0.44,-0.40,
2.311,-0.11,0.16,0.96,-0.82,0.44,-0.40,
2.313,-0.11,0.16,0.96,-0.86,0.42,-0.36,
2.314,-0.11,0.15,0.96,-0.86,0.42,-0.36,
2.316,-0.11,0.15,0.97,-0.86,0.42,-0.36,
2.318,-0.12,0.14,0.97,-0.86,0.42,-0.36,
2.319,-0.12,0.14,0.97,-0.90,0.37,-0.31,
2.32,-0.12,0.15,0.97,-0.90,0.37,-0.31,
2.324,-0.12,0.15,0.97,-0.97,0.30,-0.19,
2.324,-0.12,0.15,0.97,-0.97,0.30,-0.19,
2.327,-0.12,0.14,0.98,-0.97,0.30,-0.19,
2.328,-0.12,0.14,0.98,-0.97,0.30,-0.19,
2.328,-0.12,0.14,0.98,-0.98,0.30,-0.21,
2.331,-0.12,0.14,0.98,-0.98,0.30,-0.21,
2.334,-0.12,0.14,0.98,-0.98,0.30,-0.21,
2.335,-0.12,0.14,0.98,-0.99,0.24,-0.13,
2.336,-0.13,0.14,0.98,-0.99,0.24,-0.13,
2.338,-0.13,0.14,0.98,-0.99,0.24,-0.13,
2.338,-0.13,0.14,0.98,-1.02,0.23,-0.12,
2.34,-0.13,0.14,0.99,-1.02,0.23,-0.12,
2.343,-0.14,0.14,0.98,-1.02,0.23,-0.12,
2.343,-0.14,0.14,0.98,-1.07,0.26,-0.09,
2.345,-0.13,0.14,0.98,-1.07,0.26,-0.09,
2.351,-0.13,0.14,0.98,-1.15,0.28,-0.07,
2.351,-0.14,0.14,0.99,-1.15,0.28,-0.07,
2.351,-0.14,0.14,0.98,-1.15,0.28,-0.07,
2.353,-0.14,0.14,0.98,-1.14,0.24,-0.07,
2.353,-0.14,0.14,0.99,-1.14,0.24,-0.07,
2.355,-0.13,0.13,0.99,-1.14,0.24,-0.07,
2.357,-0.13,0.13,0.99,-1.14,0.24,-0.07,
2.358,-0.13,0.13,0.99,-1.18,0.25,-0.06,
2.361,-0.13,0.13,0.99,-1.18,0.25,-0.06,
2.363,-0.13,0.13,1.00,-1.18,0.25,-0.06,
2.364,-0.13,0.13,1.00,-1.13,0.18,-0.01,
2.365,-0.13,0.12,1.00,-1.13,0.18,-0.01,
2.368,-0.13,0.12,0.99,-1.13,0.18,-0.01,
2.368,-0.13,0.12,0.99,-1.10,0.15,0.04,
2.37,-0.13,0.12,1.00,-1.10,0.15,0.04,
2.373,-0.13,0.12,1.00,-1.10,0.15,0.04,
2.373,-0.13,0.12,1.00,-1.11,0.09,0.05,
2.375,-0.12,0.12,1.01,-1.11,0.09,0.05,
2.379,-0.12,0.12,1.01,-1.11,0.09,0.05,
2.379,-0.12,0.12,1.01,-1.08,0.10,0.06,
2.38,-0.12,0.12,1.01,-1.08,0.10,0.06,
2.383,-0.12,0.12,1.01,-1.08,0.10,0.06,
2.383,-0.12,0.12,1.01,-1.02,0.09,0.15,
2.388,-0.12,0.12,1.02,-1.02,0.09,0.15,
2.389,-0.12,0.12,1.02,-1.02,0.09,0.15,
2.389,-0.12,0.12,1.02,-0.97,0.08,0.14,
2.39,-0.12,0.12,1.02,-0.97,0.08,0.14,
2.393,-0.11,0.12,1.02,-0.97,0.08,0.14,
2.393,-0.11,0.12,1.02,-0.97,0.06,0.25,
2.395,-0.11,0.12,1.02,-0.97,0.06,0.25,
2.397,-0.12,0.12,1.03,-0.97,0.06,0.25,
2.397,-0.12,0.12,1.03,-0.94,0.06,0.26,
2.402,-0.11,0.12,1.03,-0.94,0.06,0.26,
2.403,-0.11,0.12,1.03,-0.94,0.06,0.26,
2.403,-0.11,0.12,1.03,-0.92,0.06,0.31,
2.405,-0.11,0.12,1.03,-0.92,0.06,0.31,
2.408,-0.11,0.12,1.02,-0.92,0.06,0.31,
2.408,-0.11,0.12,1.02,-0.88,0.04,0.35,
2.41,-0.10,0.12,1.02,-0.88,0.04,0.35,
2.412,-0.10,0.12,1.03,-0.88,0.04,0.35,
2.413,-0.10,0.12,1.03,-0.85,0.05,0.31,
2.415,-0.10,0.12,1.02,-0.85,0.05,0.31,
2.419,-0.09,0.12,1.01,-0.85,0.05,0.31,
2.419,-0.09,0.12,1.01,-0.79,0.07,0.32,
2.42,-0.09,0.13,1.01,-0.79,0.07,0.32,
2.422,-0.09,0.13,1.01,-0.72,0.12,0.26,
2.422,-0.09,0.12,1.01,-0.72,0.12,0.26,
2.425,-0.09,0.13,1.00,-0.72,0.12,0.26,
2.427,-0.09,0.13,1.00,-0.72,0.12,0.26,
2.428,-0.09,0.13,1.00,-0.67,0.12,0.17,
2.43,-0.09,0.13,0.99,-0.67,0.12,0.17,
2.432,-0.09,0.13,0.99,-0.67,0.12,0.17,
2.432,-0.09,0.13,0.99,-0.66,0.14,0.06,
2.435,-0.09,0.13,1.00,-0.66,0.14,0.06,
2.437,-0.09,0.13,0.98,-0.66,0.14,0.06,
2.437,-0.09,0.13,0.98,-0.64,0.18,-0.02,
2.439,-0.09,0.13,0.97,-0.64,0.18,-0.02,
2.442,-0.09,0.13,0.97,-0.64,0.18,-0.02,
2.442,-0.09,0.13,0.97,-0.65,0.19,-0.02,
2.444,-0.09,0.14,0.97,-0.65,0.19,-0.02,
2.447,-0.09,0.14,0.96,-0.65,0.19,-0.02,
2.447,-0.09,0.14,0.96,-0.64,0.18,-0.21,
2.45,-0.09,0.14,0.96,-0.64,0.18,-0.21,
2.452,-0.09,0.15,0.96,-0.64,0.18,-0.21,
2.453,-0.09,0.15,0.96,-0.65,0.26,-0.27,
2.455,-0.10,0.15,0.97,-0.65,0.26,-0.27,
2.457,-0.10,0.15,0.96,-0.65,0.26,-0.27,
2.457,-0.10,0.15,0.96,-0.64,0.29,-0.31,
2.46,-0.11,0.15,0.96,-0.64,0.29,-0.31,
2.462,-0.11,0.15,0.96,-0.64,0.29,-0.31,
2.462,-0.11,0.15,0.96,-0.75,0.32,-0.24,
2.464,-0.12,0.15,0.95,-0.75,0.32,-0.24,
2.466,-0.12,0.15,0.95,-0.75,0.32,-0.24,
2.468,-0.12,0.15,0.95,-0.85,0.34,-0.32,
2.469,-0.13,0.15,0.96,-0.85,0.34,-0.32,
2.472,-0.12,0.15,0.95,-0.85,0.34,-0.32,
2.472,-0.12,0.15,0.95,-0.95,0.35,-0.41,
2.474,-0.12,0.15,0.95,-0.95,0.35,-0.41,
2.476,-0.12,0.16,0.96,-0.95,0.35,-0.41,
2.476,-0.12,0.16,0.96,-0.97,0.34,-0.35,
2.478,-0.13,0.15,0.97,-0.97,0.34,-0.35,
2.482,-0.13,0.15,0.98,-0.97,0.34,-0.35,
2.482,-0.13,0.15,0.98,-0.95,0.37,-0.32,
2.485,-0.12,0.15,0.98,-0.95,0.37,-0.32,
2.487,-0.11,0.14,0.98,-0.95,0.37,-0.32,
2.489,-0.11,0.14,0.98,-0.97,0.37,-0.17,
2.489,-0.11,0.15,0.99,-0.97,0.37,-0.17,
2.491,-0.11,0.14,1.00,-0.97,0.37,-0.17,
2.491,-0.11,0.14,1.00,-0.85,0.29,-0.10,
2.493,-0.10,0.14,1.01,-0.85,0.29,-0.10,
2.497,-0.10,0.14,1.02,-0.85,0.29,-0.10,
2.497,-0.10,0.14,1.02,-0.78,0.28,0.08,
2.498,-0.09,0.13,1.03,-0.78,0.28,0.08,
2.506,-0.09,0.13,1.03,-0.78,0.28,0.08,
2.506,-0.09,0.13,1.03,-0.68,0.21,0.24,
2.506,-0.08,0.13,1.04,-0.68,0.21,0.24,
2.507,-0.08,0.14,1.04,-0.68,0.21,0.24,
2.508,-0.08,0.14,1.04,-0.55,0.17,0.38,
2.508,-0.08,0.13,1.05,-0.55,0.17,0.38,
2.512,-0.08,0.13,1.06,-0.55,0.17,0.38,
2.513,-0.08,0.13,1.06,-0.52,0.18,0.49,
2.513,-0.08,0.13,1.06,-0.52,0.18,0.49,
2.516,-0.07,0.14,1.06,-0.52,0.18,0.49,
2.518,-0.07,0.14,1.06,-0.46,0.15,0.58,
2.519,-0.07,0.13,1.06,-0.46,0.15,0.58,
2.52,-0.07,0.13,1.06,-0.46,0.15,0.58,
2.521,-0.07,0.13,1.06,-0.45,0.19,0.66,
2.523,-0.07,0.13,1.06,-0.45,0.19,0.66,
2.526,-0.07,0.13,1.06,-0.45,0.19,0.66,
2.526,-0.07,0.13,1.06,-0.38,0.18,0.63,
2.528,-0.07,0.13,1.05,-0.38,0.18,0.63,
2.53,-0.06,0.13,1.05,-0.38,0.18,0.63,
2.531,-0.06,0.13,1.05,-0.33,0.17,0.64,
2.533,-0.06,0.13,1.06,-0.33,0.17,0.64,
2.536,-0.06,0.13,1.05,-0.33,0.17,0.64,
2.537,-0.06,0.13,1.05,-0.29,0.15,0.58,
2.538,-0.06,0.13,1.05,-0.29,0.15,0.58,
2.54,-0.05,0.13,1.04,-0.29,0.15,0.58,
2.541,-0.05,0.13,1.04,-0.25,0.11,0.59,
2.543,-0.05,0.13,1.04,-0.25,0.11,0.59,
2.546,-0.05,0.12,1.03,-0.25,0.11,0.59,
2.547,-0.05,0.12,1.03,-0.19,0.10,0.45,
2.548,-0.05,0.13,1.02,-0.19,0.10,0.45,
2.553,-0.04,0.13,1.02,-0.19,0.10,0.45,
2.553,-0.04,0.13,1.02,-0.19,0.08,0.38,
2.554,-0.04,0.13,1.01,-0.19,0.08,0.38,
2.555,-0.03,0.13,1.00,-0.19,0.08,0.38,
2.556,-0.03,0.13,1.00,-0.12,0.08,0.24,
2.558,-0.03,0.13,0.99,-0.12,0.08,0.24,
2.561,-0.03,0.13,0.99,-0.03,0.09,0.07,
2.561,-0.02,0.13,0.99,-0.03,0.09,0.07,
2.563,-0.02,0.13,0.98,-0.03,0.09,0.07,
2.566,-0.03,0.14,0.98,-0.03,0.09,0.07,
2.566,-0.03,0.14,0.98,0.06,0.09,-0.09,
2.569,-0.03,0.14,0.98,0.06,0.09,-0.09,
2.571,-0.03,0.14,0.98,0.07,0.11,-0.13,
2.571,-0.02,0.14,0.98,0.07,0.11,-0.13,
2.572,-0.02,0.13,0.97,0.07,0.11,-0.13,
2.576,-0.03,0.13,0.96,0.07,0.11,-0.13,
2.576,-0.03,0.13,0.96,0.07,0.11,-0.14,
2.577,-0.02,0.14,0.95,0.07,0.11,-0.14,
2.58,-0.02,0.14,0.94,0.07,0.11,-0.14,
2.58,-0.02,0.14,0.94,0.09,0.06,-0.27,
2.582,-0.02,0.14,0.93,0.09,0.06,-0.27,
2.586,-0.02,0.14,0.93,0.09,0.06,-0.27,
2.586,-0.02,0.14,0.93,0.11,0.11,-0.51,
2.587,-0.03,0.14,0.92,0.11,0.11,-0.51,
2.59,-0.03,0.14,0.91,0.11,0.11,-0.51,
2.59,-0.03,0.14,0.91,0.12,0.11,-0.62,
2.592,-0.03,0.14,0.91,0.12,0.11,-0.62,
2.595,-0.04,0.14,0.91,0.12,0.11,-0.62,
2.595,-0.04,0.14,0.91,0.06,0.12,-0.74,
2.597,-0.04,0.14,0.91,0.06,0.12,-0.74,
2.6,-0.04,0.14,0.91,0.06,0.12,-0.74,
2.6,-0.04,0.14,0.91,-0.00,0.10,-0.80,
2.606,-0.05,0.14,0.91,-0.00,0.10,-0.80,
2.606,-0.05,0.14,0.91,-0.00,0.10,-0.80,
2.606,-0.05,0.14,0.91,-0.09,0.08,-0.82,
2.607,-0.05,0.13,0.92,-0.09,0.08,-0.82,
2.61,-0.05,0.13,0.92,-0.09,0.08,-0.82,
2.61,-0.05,0.13,0.92,-0.14,0.05,-0.77,
2.612,-0.05,0.13,0.92,-0.14,0.05,-0.77,
2.615,-0.05,0.13,0.93,-0.14,0.05,-0.77,
2.615,-0.05,0.13,0.93,-0.15,0.02,-0.69,
2.619,-0.05,0.14,0.94,-0.15,0.02,-0.69,
2.62,-0.05,0.14,0.95,-0.15,0.02,-0.69,
2.62,-0.05,0.14,0.95,-0.13,0.03,-0.61,
2.622,-0.05,0.14,0.96,-0.13,0.03,-0.61,
2.625,-0.04,0.14,0.96,-0.13,0.03,-0.61,
2.625,-0.04,0.14,0.96,-0.13,0.09,-0.40,
2.627,-0.04,0.14,0.97,-0.13,0.09,-0.40,
2.63,-0.04,0.13,0.98,-0.13,0.09,-0.40,
2.63,-0.04,0.13,0.98,-0.08,0.09,-0.29,
2.632,-0.03,0.13,0.98,-0.08,0.09,-0.29,
2.636,-0.03,0.13,1.00,-0.08,0.09,-0.29,
2.64,-0.03,0.13,1.00,-0.06,0.08,-0.12,
2.64,-0.03,0.13,1.01,-0.06,0.08,-0.12,
2.641,-0.02,0.13,1.02,-0.06,0.08,-0.12,
2.641,-0.02,0.13,1.02,0.04,0.04,0.03,
2.642,-0.02,0.12,1.02,0.04,0.04,0.03,
2.644,-0.02,0.12,1.03,0.04,0.04,0.03,
2.645,-0.02,0.12,1.03,0.11,0.01,0.23,
2.647,-0.02,0.12,1.04,0.11,0.01,0.23,
2.65,-0.01,0.12,1.05,0.11,0.01,0.23,
2.65,-0.01,0.12,1.05,0.17,-0.04,0.37,
2.655,-0.01,0.12,1.05,0.17,-0.04,0.37,
2.655,-0.01,0.11,1.06,0.17,-0.04,0.37,
2.656,-0.01,0.11,1.06,0.19,-0.08,0.55,
2.658,-0.01,0.12,1.06,0.19,-0.08,0.55,
2.66,-0.01,0.12,1.06,0.25,-0.10,0.66,
2.66,-0.01,0.12,1.07,0.25,-0.10,0.66,
2.663,-0.01,0.11,1.07,0.25,-0.10,0.66,
2.664,-0.01,0.11,1.06,0.25,-0.10,0.66,
2.665,-0.01,0.11,1.06,0.25,-0.09,0.73,
2.667,-0.01,0.11,1.06,0.25,-0.09,0.73,
2.669,-0.02,0.11,1.06,0.25,-0.09,0.73,
2.67,-0.02,0.11,1.06,0.24,-0.13,0.71,
2.672,-0.02,0.10,1.06,0.24,-0.13,0.71,
2.675,-0.02,0.10,1.06,0.24,-0.13,0.71,
2.675,-0.02,0.10,1.06,0.19,-0.17,0.71,
2.677,-0.02,0.10,1.06,0.19,-0.17,0.71,
2.68,-0.02,0.11,1.05,0.19,-0.17,0.71,
2.68,-0.02,0.11,1.05,0.15,-0.22,0.64,
2.682,-0.02,0.11,1.05,0.15,-0.22,0.64,
2.684,-0.03,0.11,1.05,0.15,-0.22,0.64,
2.685,-0.03,0.11,1.05,0.16,-0.20,0.60,
2.687,-0.03,0.11,1.03,0.16,-0.20,0.60,
2.69,-0.03,0.11,1.03,0.10,-0.15,0.51,
2.69,-0.03,0.11,1.03,0.10,-0.15,0.51,
2.692,-0.03,0.12,1.03,0.10,-0.15,0.51,
2.695,-0.04,0.12,1.02,0.10,-0.15,0.51,
2.695,-0.04,0.12,1.02,0.06,-0.14,0.36,
2.697,-0.04,0.12,1.02,0.06,-0.14,0.36,
2.7,-0.03,0.13,1.01,0.06,-0.14,0.36,
2.7,-0.03,0.13,1.01,0.01,-0.07,0.28,
2.706,-0.04,0.12,1.02,0.01,-0.07,0.28,
2.707,-0.04,0.12,1.01,0.01,-0.07,0.28,
2.707,-0.04,0.12,1.01,0.01,-0.04,0.22,
2.707,-0.05,0.13,0.99,0.01,-0.04,0.22,
2.71,-0.05,0.13,0.98,0.01,-0.04,0.22,
2.71,-0.05,0.13,0.98,-0.06,-0.07,0.18,
2.711,-0.05,0.13,0.97,-0.06,-0.07,0.18,
2.715,-0.06,0.13,0.96,-0.06,-0.07,0.18,
2.715,-0.06,0.13,0.96,-0.14,-0.06,-0.07,
2.717,-0.07,0.13,0.96,-0.14,-0.06,-0.07,
2.72,-0.07,0.14,0.96,-0.14,-0.06,-0.07,
2.72,-0.07,0.14,0.96,-0.20,-0.02,-0.23,
2.722,-0.08,0.13,0.96,-0.20,-0.02,-0.23,
2.724,-0.08,0.13,0.95,-0.20,-0.02,-0.23,
2.724,-0.08,0.13,0.95,-0.30,0.02,-0.33,
2.727,-0.08,0.14,0.94,-0.30,0.02,-0.33,
2.729,-0.08,0.14,0.94,-0.30,0.02,-0.33,
2.729,-0.08,0.14,0.94,-0.37,-0.02,-0.37,
2.732,-0.08,0.14,0.94,-0.37,-0.02,-0.37,
2.734,-0.08,0.14,0.95,-0.37,-0.02,-0.37,
2.734,-0.08,0.14,0.95,-0.39,0.02,-0.47,
2.736,-0.08,0.14,0.95,-0.39,0.02,-0.47,
2.739,-0.07,0.13,0.96,-0.39,0.02,-0.47,
2.739,-0.07,0.13,0.96,-0.38,0.02,-0.44,
2.741,-0.07,0.13,0.97,-0.38,0.02,-0.44,
2.744,-0.07,0.13,0.98,-0.38,0.02,-0.44,
2.744,-0.07,0.13,0.98,-0.34,-0.01,-0.33,
2.747,-0.06,0.13,0.98,-0.34,-0.01,-0.33,
2.749,-0.06,0.13,0.99,-0.34,-0.01,-0.33,
2.749,-0.06,0.13,0.99,-0.30,-0.03,-0.20,
2.752,-0.05,0.13,1.01,-0.30,-0.03,-0.20,
2.754,-0.05,0.13,1.01,-0.30,-0.03,-0.20,
2.754,-0.05,0.13,1.01,-0.19,-0.05,-0.02,
2.756,-0.04,0.13,1.02,-0.19,-0.05,-0.02,
2.759,-0.04,0.13,1.02,-0.12,-0.07,0.15,
2.76,-0.04,0.12,1.02,-0.12,-0.07,0.15,
2.761,-0.04,0.12,1.03,-0.12,-0.07,0.15,
2.764,-0.04,0.12,1.03,-0.12,-0.07,0.15,
2.764,-0.04,0.12,1.03,-0.02,-0.08,0.29,
2.766,-0.03,0.12,1.04,-0.02,-0.08,0.29,
2.768,-0.03,0.12,1.04,-0.02,-0.08,0.29,
2.769,-0.03,0.12,1.04,0.02,-0.15,0.39,
2.771,-0.02,0.12,1.04,0.02,-0.15,0.39,
2.774,-0.02,0.12,1.05,0.02,-0.15,0.39,
2.774,-0.02,0.12,1.05,0.12,-0.13,0.47,
2.776,-0.02,0.12,1.05,0.12,-0.13,0.47,
2.779,-0.02,0.13,1.05,0.12,-0.13,0.47,
2.779,-0.02,0.13,1.05,0.18,-0.15,0.52,
2.781,-0.01,0.13,1.05,0.18,-0.15,0.52,
2.784,-0.01,0.14,1.05,0.18,-0.15,0.52,
2.784,-0.01,0.14,1.05,0.22,-0.12,0.53,
2.787,-0.01,0.14,1.06,0.22,-0.12,0.53,
2.788,-0.01,0.14,1.05,0.22,-0.12,0.53,
2.788,-0.01,0.14,1.05,0.28,-0.03,0.55,
2.79,-0.01,0.14,1.04,0.28,-0.03,0.55,
2.794,-0.01,0.15,1.02,0.28,-0.03,0.55,
2.794,-0.01,0.15,1.02,0.27,0.03,0.58,
2.796,-0.01,0.16,0.95,0.27,0.03,0.58,
2.799,-0.02,0.17,0.87,0.27,0.03,0.58,
2.799,-0.02,0.17,0.87,0.30,0.07,0.36,
2.802,-0.03,0.18,0.85,0.30,0.07,0.36,
2.804,-0.02,0.18,0.89,0.30,0.07,0.36,
2.805,-0.02,0.18,0.89,0.25,0.29,-0.82,
2.805,-0.01,0.18,0.94,0.25,0.29,-0.82,
2.808,-0.01,0.18,0.94,0.17,0.39,-1.23,
2.808,-0.02,0.18,0.96,0.17,0.39,-1.23,
2.81,-0.02,0.18,0.95,0.17,0.39,-1.23,
2.816,-0.03,0.18,0.94,0.17,0.39,-1.23,
2.817,-0.03,0.18,0.94,0.23,0.40,-0.45,
2.817,-0.05,0.18,0.94,0.23,0.40,-0.45,
2.818,-0.05,0.17,0.94,0.23,0.40,-0.45,
2.818,-0.05,0.17,0.94,0.13,0.37,-0.43,
2.825,-0.05,0.17,0.94,0.13,0.37,-0.43,
2.825,-0.05,0.16,0.95,0.13,0.37,-0.43,
2.826,-0.05,0.16,0.95,-0.05,0.34,-0.51,
2.826,-0.04,0.15,0.96,-0.05,0.34,-0.51,
2.838,-0.04,0.15,0.97,-0.05,0.34,-0.51,
2.839,-0.04,0.15,0.97,-0.07,0.22,-0.46,
2.839,-0.03,0.15,0.98,-0.07,0.22,-0.46,
2.84,-0.03,0.15,0.98,0.02,0.10,-0.25,
2.84,-0.03,0.15,1.00,0.02,0.10,-0.25,
2.84,-0.04,0.15,1.01,0.02,0.10,-0.25,
2.84,-0.05,0.16,1.02,0.02,0.10,-0.25,
2.841,-0.05,0.16,1.02,0.07,0.09,0.01,
2.841,-0.05,0.16,1.03,0.07,0.09,0.01,
2.845,-0.06,0.15,1.03,0.07,0.09,0.01,
2.845,-0.06,0.15,1.03,-0.06,0.14,0.21,
2.846,-0.07,0.16,1.04,-0.06,0.14,0.21,
2.848,-0.07,0.16,1.03,-0.06,0.14,0.21,
2.848,-0.07,0.16,1.03,-0.18,0.17,0.37,
2.85,-0.07,0.15,1.04,-0.18,0.17,0.37,
2.852,-0.08,0.15,1.05,-0.18,0.17,0.37,
2.852,-0.08,0.15,1.05,-0.30,0.18,0.45,
2.86,-0.08,0.15,1.04,-0.30,0.18,0.45,
2.86,-0.08,0.14,1.03,-0.30,0.18,0.45,
2.86,-0.08,0.14,1.03,-0.36,0.13,0.52,
2.861,-0.08,0.13,1.03,-0.36,0.13,0.52,
2.864,-0.08,0.13,1.02,-0.36,0.13,0.52,
2.864,-0.08,0.13,1.02,-0.42,0.04,0.41,
2.865,-0.08,0.14,1.01,-0.42,0.04,0.41,
2.868,-0.08,0.14,1.00,-0.42,0.04,0.41,
2.868,-0.08,0.14,1.00,-0.40,-0.07,0.32,
2.877,-0.08,0.14,1.01,-0.40,-0.07,0.32,
2.877,-0.08,0.14,1.01,-0.40,-0.07,0.32,
2.878,-0.08,0.14,1.01,-0.43,-0.05,0.14,
2.878,-0.07,0.13,1.00,-0.43,-0.05,0.14,
2.878,-0.07,0.13,1.00,-0.39,-0.05,0.14,
2.878,-0.07,0.14,1.00,-0.39,-0.05,0.14,
