
time,gFx,gFy,gFz,ax,ay,az,
0.004,0.01,0.07,0.97,0.11,-0.35,-0.29,
0.005,0.01,0.07,0.97,0.23,-0.40,-0.20,
0.005,0.02,0.07,0.98,0.23,-0.40,-0.20,
0.005,0.02,0.07,0.98,0.23,-0.40,-0.20,
0.005,0.02,0.07,1.00,0.23,-0.40,-0.20,
0.006,0.02,0.07,1.00,0.25,-0.35,-0.06,
0.006,0.02,0.08,1.00,0.25,-0.35,-0.06,
0.006,0.01,0.08,1.01,0.25,-0.35,-0.06,
0.006,0.01,0.08,1.01,0.30,-0.26,0.07,
0.009,0.01,0.08,1.01,0.30,-0.26,0.07,
0.011,0.01,0.08,1.01,0.30,-0.26,0.07,
0.011,0.01,0.08,1.01,0.25,-0.21,0.18,
0.013,0.01,0.09,1.02,0.25,-0.21,0.18,
0.016,0.01,0.09,1.02,0.22,-0.15,0.27,
0.016,0.01,0.08,1.02,0.22,-0.15,0.27,
0.025,0.01,0.08,1.02,0.22,-0.15,0.27,
0.026,-0.00,0.08,1.02,0.22,-0.15,0.27,
0.026,-0.00,0.08,1.02,0.19,-0.12,0.34,
0.026,-0.00,0.08,1.02,0.19,-0.12,0.34,
0.026,-0.01,0.08,1.02,0.19,-0.12,0.34,
0.027,-0.01,0.08,1.02,0.12,-0.16,0.34,
0.028,-0.01,0.07,1.02,0.12,-0.16,0.34,
0.031,-0.00,0.08,1.03,0.12,-0.16,0.34,
0.031,-0.00,0.08,1.03,0.05,-0.16,0.35,
0.033,0.00,0.08,1.04,0.05,-0.16,0.35,
0.044,0.01,0.09,1.04,0.05,-0.16,0.35,
0.044,0.01,0.09,1.04,0.07,-0.18,0.41,
0.045,0.01,0.09,1.05,0.07,-0.18,0.41,
0.045,0.01,0.09,1.05,0.15,-0.08,0.53,
0.045,0.00,0.10,1.04,0.15,-0.08,0.53,
0.045,-0.01,0.11,1.04,0.15,-0.08,0.53,
0.046,-0.01,0.11,1.03,0.15,-0.08,0.53,
0.046,-0.01,0.11,1.03,0.18,0.02,0.57,
0.049,-0.00,0.12,1.02,0.18,0.02,0.57,
0.051,-0.00,0.11,1.02,0.18,0.02,0.57,
0.051,-0.00,0.11,1.02,0.05,0.14,0.50,
0.061,0.00,0.11,1.02,0.05,0.14,0.50,
0.061,0.01,0.11,1.00,0.05,0.14,0.50,
0.062,0.01,0.11,1.00,0.07,0.21,0.35,
0.062,0.02,0.11,1.00,0.07,0.21,0.35,
0.062,0.02,0.10,0.99,0.07,0.21,0.35,
0.062,0.02,0.10,0.99,0.18,0.18,0.22,
0.063,0.03,0.10,0.98,0.18,0.18,0.22,
0.066,0.03,0.10,0.98,0.29,0.10,0.08,
0.066,0.03,0.09,0.97,0.29,0.10,0.08,
0.074,0.03,0.09,0.96,0.29,0.10,0.08,
0.075,0.03,0.09,0.95,0.29,0.10,0.08,
0.075,0.03,0.09,0.95,0.35,0.02,-0.12,
0.075,0.03,0.08,0.95,0.35,0.02,-0.12,
0.075,0.03,0.08,0.94,0.35,0.02,-0.12,
0.075,0.03,0.08,0.94,0.40,-0.06,-0.31,
0.078,0.03,0.08,0.95,0.40,-0.06,-0.31,
0.081,0.03,0.07,0.94,0.40,-0.06,-0.31,
0.081,0.03,0.07,0.94,0.38,-0.15,-0.40,
0.083,0.03,0.08,0.94,0.38,-0.15,-0.40,
0.092,0.03,0.07,0.94,0.38,-0.15,-0.40,
0.092,0.03,0.07,0.94,0.36,-0.20,-0.43,
0.092,0.03,0.08,0.94,0.36,-0.20,-0.43,
0.093,0.03,0.08,0.94,0.34,-0.21,-0.42,
0.093,0.02,0.08,0.94,0.34,-0.21,-0.42,
0.093,0.02,0.08,0.95,0.34,-0.21,-0.42,
0.096,0.03,0.09,0.96,0.34,-0.21,-0.42,
0.096,0.03,0.09,0.96,0.33,-0.17,-0.41,
0.098,0.02,0.09,0.96,0.33,-0.17,-0.41,
0.101,0.01,0.09,0.96,0.33,-0.17,-0.41,
0.101,0.01,0.09,0.96,0.34,-0.12,-0.30,
0.108,0.01,0.10,0.96,0.34,-0.12,-0.30,
0.108,0.00,0.10,0.96,0.34,-0.12,-0.30,
0.108,0.00,0.10,0.96,0.27,-0.05,-0.26,
0.109,-0.00,0.10,0.96,0.27,-0.05,-0.26,
0.111,-0.01,0.11,0.97,0.27,-0.05,-0.26,
0.111,-0.01,0.11,0.97,0.17,0.02,-0.24,
0.113,-0.01,0.11,0.97,0.17,0.02,-0.24,
0.116,-0.01,0.11,0.97,0.07,0.08,-0.17,
0.116,-0.01,0.11,0.97,0.07,0.08,-0.17,
0.118,-0.02,0.12,0.98,0.07,0.08,-0.17,
0.125,-0.02,0.12,0.97,0.07,0.08,-0.17,
0.126,-0.02,0.12,0.97,-0.01,0.14,-0.12,
0.126,-0.02,0.12,0.98,-0.01,0.14,-0.12,
0.126,-0.02,0.13,0.98,-0.01,0.14,-0.12,
0.126,-0.02,0.13,0.98,-0.03,0.24,-0.09,
0.127,-0.02,0.13,0.99,-0.03,0.24,-0.09,
0.13,-0.02,0.13,0.98,-0.03,0.24,-0.09,
0.13,-0.02,0.13,0.98,-0.05,0.31,-0.06,
0.132,-0.02,0.13,0.98,-0.05,0.31,-0.06,
0.14,-0.02,0.12,0.98,-0.05,0.31,-0.06,
0.14,-0.02,0.12,0.98,-0.08,0.34,-0.00,
0.141,-0.03,0.12,0.98,-0.08,0.34,-0.00,
0.141,-0.03,0.12,0.98,-0.09,0.29,-0.03,
0.141,-0.03,0.12,0.99,-0.09,0.29,-0.03,
0.142,-0.03,0.11,0.98,-0.09,0.29,-0.03,
0.146,-0.03,0.11,0.97,-0.09,0.29,-0.03,
0.146,-0.03,0.11,0.97,-0.17,0.24,-0.00,
0.148,-0.03,0.11,0.97,-0.17,0.24,-0.00,
0.15,-0.03,0.11,0.97,-0.17,0.24,-0.00,
0.152,-0.03,0.11,0.97,-0.16,0.19,-0.07,
0.152,-0.02,0.11,0.97,-0.16,0.19,-0.07,
0.159,-0.02,0.11,0.96,-0.16,0.19,-0.07,
0.16,-0.02,0.11,0.96,-0.11,0.16,-0.11,
0.16,-0.02,0.11,0.96,-0.11,0.16,-0.11,
0.162,-0.01,0.11,0.95,-0.11,0.16,-0.11,
0.162,-0.01,0.11,0.95,-0.03,0.16,-0.18,
0.162,-0.00,0.11,0.95,-0.03,0.16,-0.18,
0.165,-0.00,0.11,0.95,0.05,0.14,-0.29,
0.165,-0.00,0.10,0.95,0.05,0.14,-0.29,
0.167,-0.00,0.10,0.95,0.05,0.14,-0.29,
0.173,0.01,0.09,0.95,0.05,0.14,-0.29,
0.174,0.01,0.09,0.95,0.15,0.09,-0.33,
0.174,0.01,0.09,0.95,0.15,0.09,-0.33,
0.175,0.01,0.09,0.95,0.15,0.09,-0.33,
0.175,0.01,0.09,0.95,0.23,-0.02,-0.37,
0.177,0.01,0.08,0.94,0.23,-0.02,-0.37,
0.18,0.01,0.08,0.94,0.23,-0.02,-0.37,
0.18,0.01,0.08,0.94,0.29,-0.08,-0.35,
0.182,0.01,0.08,0.94,0.29,-0.08,-0.35,
0.192,0.01,0.08,0.95,0.29,-0.08,-0.35,
0.192,0.01,0.08,0.95,0.32,-0.15,-0.39,
0.192,0.01,0.08,0.95,0.32,-0.15,-0.39,
0.192,0.01,0.08,0.94,0.32,-0.15,-0.39,
0.192,0.01,0.08,0.94,0.35,-0.17,-0.38,
0.192,0.01,0.09,0.94,0.35,-0.17,-0.38,
0.195,0.01,0.09,0.94,0.35,-0.17,-0.38,
0.195,0.01,0.09,0.94,0.36,-0.15,-0.38,
0.197,0.00,0.09,0.94,0.36,-0.15,-0.38,
0.2,0.00,0.09,0.94,0.34,-0.13,-0.38,
0.2,0.00,0.09,0.93,0.34,-0.13,-0.38,
0.207,-0.00,0.09,0.93,0.34,-0.13,-0.38,
0.207,-0.01,0.08,0.93,0.34,-0.13,-0.38,
0.208,-0.01,0.08,0.93,0.26,-0.14,-0.47,
0.208,-0.01,0.08,0.92,0.26,-0.14,-0.47,
0.21,-0.02,0.09,0.91,0.26,-0.14,-0.47,
0.21,-0.02,0.09,0.91,0.20,-0.18,-0.51,
0.212,-0.01,0.08,0.91,0.20,-0.18,-0.51,
0.216,-0.01,0.08,0.91,0.13,-0.16,-0.62,
0.216,-0.01,0.09,0.91,0.13,-0.16,-0.62,
0.217,-0.02,0.09,0.91,0.13,-0.16,-0.62,
0.223,-0.01,0.09,0.91,0.13,-0.16,-0.62,
0.224,-0.01,0.09,0.91,0.15,-0.16,-0.68,
0.224,-0.01,0.09,0.90,0.15,-0.16,-0.68,
0.224,-0.00,0.09,0.89,0.15,-0.16,-0.68,
0.224,-0.00,0.09,0.89,0.14,-0.12,-0.71,
0.227,-0.00,0.10,0.89,0.14,-0.12,-0.71,
0.23,0.00,0.10,0.89,0.14,-0.12,-0.71,
0.23,0.00,0.10,0.89,0.23,-0.07,-0.79,
0.232,0.01,0.10,0.89,0.23,-0.07,-0.79,
0.234,0.02,0.10,0.89,0.23,-0.07,-0.79,
0.235,0.02,0.10,0.89,0.28,-0.04,-0.82,
0.24,0.03,0.09,0.88,0.28,-0.04,-0.82,
0.24,0.03,0.09,0.88,0.44,-0.05,-0.88,
0.241,0.04,0.09,0.88,0.44,-0.05,-0.88,
0.241,0.04,0.08,0.88,0.44,-0.05,-0.88,
0.244,0.05,0.07,0.88,0.44,-0.05,-0.88,
0.245,0.05,0.07,0.88,0.62,-0.12,-0.90,
0.247,0.06,0.07,0.88,0.62,-0.12,-0.90,
0.249,0.07,0.06,0.88,0.62,-0.12,-0.90,
0.249,0.07,0.06,0.88,0.72,-0.24,-0.90,
0.252,0.08,0.06,0.88,0.72,-0.24,-0.90,
0.257,0.09,0.06,0.87,0.72,-0.24,-0.90,
0.257,0.09,0.06,0.87,0.91,-0.36,-0.92,
0.257,0.10,0.05,0.87,0.91,-0.36,-0.92,
0.259,0.11,0.05,0.88,0.91,-0.36,-0.92,
0.259,0.11,0.05,0.88,1.14,-0.42,-0.98,
0.261,0.12,0.05,0.88,1.14,-0.42,-0.98,
0.264,0.12,0.05,0.88,1.35,-0.51,-0.94,
0.264,0.12,0.04,0.88,1.35,-0.51,-0.94,
0.267,0.13,0.04,0.87,1.35,-0.51,-0.94,
0.277,0.12,0.03,0.87,1.35,-0.51,-0.94,
0.278,0.12,0.03,0.87,1.51,-0.55,-0.93,
0.278,0.11,0.01,0.87,1.51,-0.55,-0.93,
0.278,0.10,-0.00,0.88,1.51,-0.55,-0.93,
0.278,0.10,-0.00,0.88,1.50,-0.68,-0.95,
0.278,0.09,-0.01,0.87,1.50,-0.68,-0.95,
0.279,0.09,-0.00,0.86,1.50,-0.68,-0.95,
0.279,0.09,-0.00,0.86,1.29,-0.92,-0.92,
0.281,0.09,-0.01,0.86,1.29,-0.92,-0.92,
0.284,0.09,-0.01,0.86,1.29,-0.92,-0.92,
0.284,0.09,-0.01,0.86,1.16,-1.03,-1.01,
0.292,0.10,-0.01,0.86,1.16,-1.03,-1.01,
0.293,0.10,-0.01,0.86,1.19,-1.09,-1.09,
0.293,0.11,-0.01,0.85,1.19,-1.09,-1.09,
0.293,0.12,0.00,0.84,1.19,-1.09,-1.09,
0.293,0.12,0.01,0.85,1.19,-1.09,-1.09,
0.293,0.12,0.01,0.85,1.31,-1.06,-1.09,
0.296,0.13,0.01,0.84,1.31,-1.06,-1.09,
0.298,0.13,0.02,0.83,1.31,-1.06,-1.09,
0.298,0.13,0.02,0.83,1.47,-0.90,-1.18,
0.301,0.13,0.02,0.83,1.47,-0.90,-1.18,
0.31,0.12,0.02,0.82,1.47,-0.90,-1.18,
0.31,0.12,0.02,0.82,1.52,-0.79,-1.29,
0.311,0.12,0.03,0.82,1.52,-0.79,-1.29,
0.311,0.11,0.03,0.82,1.52,-0.79,-1.29,
0.311,0.11,0.03,0.82,1.51,-0.70,-1.36,
0.311,0.11,0.04,0.81,1.51,-0.70,-1.36,
0.313,0.11,0.04,0.81,1.40,-0.60,-1.44,
0.313,0.10,0.05,0.82,1.40,-0.60,-1.44,
0.315,0.10,0.06,0.82,1.40,-0.60,-1.44,
0.324,0.10,0.06,0.82,1.40,-0.60,-1.44,
0.324,0.10,0.06,0.82,1.24,-0.47,-1.44,
0.324,0.10,0.07,0.82,1.24,-0.47,-1.44,
0.325,0.10,0.08,0.83,1.24,-0.47,-1.44,
0.326,0.10,0.08,0.83,1.18,-0.27,-1.39,
0.327,0.10,0.09,0.83,1.18,-0.27,-1.39,
0.328,0.11,0.10,0.84,1.18,-0.27,-1.39,
0.328,0.11,0.10,0.84,1.13,-0.08,-1.30,
0.33,0.11,0.11,0.84,1.13,-0.08,-1.30,
0.333,0.11,0.11,0.85,1.13,-0.08,-1.30,
0.334,0.11,0.11,0.85,1.19,0.11,-1.22,
0.34,0.11,0.11,0.86,1.19,0.11,-1.22,
0.34,0.11,0.11,0.86,1.19,0.25,-1.09,
0.341,0.10,0.11,0.86,1.19,0.25,-1.09,
0.341,0.10,0.11,0.87,1.19,0.25,-1.09,
0.343,0.10,0.10,0.88,1.19,0.25,-1.09,
0.343,0.10,0.10,0.88,1.15,0.30,-0.95,
0.345,0.09,0.09,0.88,1.15,0.30,-0.95,
0.348,0.08,0.08,0.89,1.15,0.30,-0.95,
0.348,0.08,0.08,0.89,1.08,0.26,-0.82,
0.35,0.06,0.05,0.89,1.08,0.26,-0.82,
0.363,0.03,0.03,0.87,1.08,0.26,-0.82,
0.364,0.03,0.03,0.87,0.87,0.06,-0.68,
0.364,0.01,0.00,0.86,0.87,0.06,-0.68,
0.365,-0.00,-0.01,0.84,0.87,0.06,-0.68,
0.365,-0.00,-0.01,0.84,0.46,-0.34,-0.76,
0.366,-0.00,-0.03,0.83,0.46,-0.34,-0.76,
0.366,-0.00,-0.03,0.83,0.03,-0.78,-1.05,
0.366,0.00,-0.04,0.82,0.03,-0.78,-1.05,
0.367,0.01,-0.04,0.81,0.03,-0.78,-1.05,
0.368,0.03,-0.04,0.81,0.03,-0.78,-1.05,
0.368,0.03,-0.04,0.81,-0.03,-1.03,-1.28,
0.377,0.05,-0.03,0.81,-0.03,-1.03,-1.28,
0.378,0.07,-0.01,0.80,-0.03,-1.03,-1.28,
0.378,0.07,-0.01,0.80,0.17,-1.07,-1.41,
0.378,0.10,-0.00,0.80,0.17,-1.07,-1.41,
0.379,0.12,0.01,0.80,0.17,-1.07,-1.41,
0.379,0.12,0.01,0.80,0.57,-0.87,-1.46,
0.38,0.13,0.02,0.80,0.57,-0.87,-1.46,
0.383,0.15,0.03,0.81,0.57,-0.87,-1.46,
0.383,0.15,0.03,0.81,1.01,-0.62,-1.50,
0.397,0.15,0.03,0.82,1.01,-0.62,-1.50,
0.398,0.15,0.03,0.82,1.31,-0.36,-1.45,
0.398,0.15,0.03,0.84,1.31,-0.36,-1.45,
0.399,0.14,0.03,0.86,1.31,-0.36,-1.45,
0.399,0.13,0.03,0.87,1.31,-0.36,-1.45,
0.4,0.13,0.03,0.87,1.43,-0.30,-1.20,
0.4,0.11,0.03,0.88,1.43,-0.30,-1.20,
0.401,0.10,0.04,0.89,1.43,-0.30,-1.20,
0.401,0.10,0.04,0.89,1.26,-0.25,-0.86,
0.401,0.08,0.04,0.91,1.26,-0.25,-0.86,
0.403,0.07,0.05,0.92,1.26,-0.25,-0.86,
0.403,0.07,0.05,0.92,1.01,-0.20,-0.64,
0.411,0.06,0.05,0.92,1.01,-0.20,-0.64,
0.413,0.05,0.06,0.93,1.01,-0.20,-0.64,
0.414,0.05,0.06,0.93,0.77,-0.09,-0.40,
0.415,0.04,0.07,0.94,0.77,-0.09,-0.40,
0.415,0.04,0.07,0.94,0.60,0.02,-0.26,
0.416,0.04,0.08,0.95,0.60,0.02,-0.26,
0.417,0.04,0.09,0.95,0.60,0.02,-0.26,
0.418,0.04,0.10,0.96,0.60,0.02,-0.26,
0.418,0.04,0.10,0.96,0.48,0.21,-0.12,
0.426,0.03,0.10,0.97,0.48,0.21,-0.12,
0.427,0.03,0.10,0.97,0.48,0.21,-0.12,
0.428,0.03,0.10,0.97,0.48,0.40,0.01,
0.429,0.03,0.10,0.97,0.48,0.40,0.01,
0.429,0.02,0.10,0.98,0.48,0.40,0.01,
0.43,0.02,0.10,0.98,0.46,0.49,0.18,
0.43,0.01,0.10,0.98,0.46,0.49,0.18,
0.432,0.01,0.09,0.99,0.46,0.49,0.18,
0.433,0.01,0.09,0.99,0.39,0.52,0.25,
0.434,-0.01,0.09,0.99,0.39,0.52,0.25,
0.445,-0.01,0.09,0.99,0.26,0.46,0.34,
0.445,-0.04,0.07,0.99,0.26,0.46,0.34,
0.446,-0.06,0.06,0.98,0.26,0.46,0.34,
0.446,-0.08,0.04,0.97,0.26,0.46,0.34,
0.446,-0.08,0.04,0.97,-0.06,0.32,0.37,
0.447,-0.10,0.02,0.97,-0.06,0.32,0.37,
0.447,-0.11,0.01,0.95,-0.06,0.32,0.37,
0.447,-0.11,0.01,0.95,-0.48,-0.02,0.21,
0.449,-0.12,0.00,0.95,-0.48,-0.02,0.21,
0.465,-0.12,-0.00,0.95,-0.48,-0.02,0.21,
0.466,-0.12,-0.00,0.95,-0.82,-0.33,0.07,
0.466,-0.13,0.00,0.95,-0.82,-0.33,0.07,
0.467,-0.12,0.01,0.95,-0.82,-0.33,0.07,
0.467,-0.12,0.01,0.95,-1.00,-0.45,-0.02,
0.468,-0.12,0.02,0.95,-1.00,-0.45,-0.02,
0.468,-0.12,0.02,0.95,-1.00,-0.35,-0.06,
0.468,-0.11,0.04,0.95,-1.00,-0.35,-0.06,
0.469,-0.11,0.04,0.95,-1.00,-0.35,-0.06,
0.469,-0.11,0.04,0.95,-0.90,-0.14,-0.07,
0.47,-0.11,0.06,0.95,-0.90,-0.14,-0.07,
0.47,-0.11,0.06,0.95,-0.90,-0.14,-0.07,
0.478,-0.11,0.07,0.96,-0.90,-0.14,-0.07,
0.479,-0.11,0.07,0.96,-0.88,0.09,-0.07,
0.479,-0.12,0.07,0.98,-0.88,0.09,-0.07,
0.479,-0.12,0.07,0.98,-0.87,0.28,0.04,
0.48,-0.12,0.07,0.98,-0.87,0.28,0.04,
0.48,-0.12,0.08,0.99,-0.87,0.28,0.04,
0.483,-0.12,0.08,1.00,-0.87,0.28,0.04,
0.483,-0.12,0.08,1.00,-0.90,0.39,0.23,
0.484,-0.13,0.08,1.00,-0.90,0.39,0.23,
0.495,-0.13,0.08,1.00,-0.94,0.46,0.41,
0.495,-0.13,0.09,1.02,-0.94,0.46,0.41,
0.498,-0.13,0.09,1.02,-0.94,0.46,0.41,
0.499,-0.13,0.09,1.03,-0.94,0.46,0.41,
0.499,-0.13,0.09,1.03,-0.98,0.56,0.54,
0.499,-0.13,0.09,1.04,-0.98,0.56,0.54,
0.499,-0.13,0.09,1.03,-0.98,0.56,0.54,
0.499,-0.13,0.09,1.03,-1.00,0.60,0.67,
0.499,-0.13,0.09,1.04,-1.00,0.60,0.67,
0.501,-0.13,0.09,1.04,-1.00,0.60,0.67,
0.501,-0.13,0.09,1.04,-1.02,0.62,0.78,
0.509,-0.12,0.08,1.04,-1.02,0.62,0.78,
0.51,-0.12,0.09,1.03,-1.02,0.62,0.78,
0.51,-0.12,0.09,1.03,-0.99,0.65,0.81,
0.51,-0.11,0.08,1.03,-0.99,0.65,0.81,
0.512,-0.11,0.08,1.03,-0.93,0.64,0.75,
0.513,-0.10,0.08,1.03,-0.93,0.64,0.75,
0.515,-0.09,0.08,1.03,-0.93,0.64,0.75,
0.516,-0.08,0.08,1.03,-0.93,0.64,0.75,
0.517,-0.08,0.08,1.03,-0.77,0.66,0.73,
0.519,-0.07,0.07,1.03,-0.77,0.66,0.73,
0.525,-0.05,0.07,1.03,-0.77,0.66,0.73,
0.526,-0.05,0.07,1.03,-0.56,0.62,0.68,
0.526,-0.04,0.06,1.03,-0.56,0.62,0.68,
0.526,-0.03,0.05,1.04,-0.56,0.62,0.68,
0.526,-0.03,0.05,1.04,-0.30,0.55,0.72,
0.529,-0.01,0.05,1.04,-0.30,0.55,0.72,
0.532,-0.00,0.04,1.04,-0.30,0.55,0.72,
0.532,-0.00,0.04,1.04,-0.07,0.45,0.76,
0.534,0.01,0.03,1.05,-0.07,0.45,0.76,
0.542,0.01,0.03,1.05,0.18,0.36,0.81,
0.543,0.01,0.03,1.05,0.18,0.36,0.81,
0.543,0.02,0.02,1.05,0.18,0.36,0.81,
0.543,0.02,0.02,1.05,0.18,0.36,0.81,
0.543,0.02,0.02,1.05,0.33,0.25,0.86,
0.544,0.02,0.01,1.05,0.33,0.25,0.86,
0.547,0.03,0.01,1.06,0.33,0.25,0.86,
0.547,0.03,0.01,1.06,0.42,0.16,0.86,
0.549,0.02,0.00,1.07,0.42,0.16,0.86,
0.551,0.02,-0.01,1.07,0.42,0.16,0.86,
0.552,0.02,-0.01,1.07,0.42,0.06,0.93,
0.558,0.01,-0.01,1.07,0.42,0.06,0.93,
0.558,0.01,-0.01,1.06,0.42,0.06,0.93,
0.558,0.01,-0.01,1.06,0.36,-0.05,1.05,
0.559,0.00,-0.01,1.05,0.36,-0.05,1.05,
0.561,0.00,-0.01,1.05,0.28,-0.11,1.01,
0.562,-0.00,-0.02,1.06,0.28,-0.11,1.01,
0.563,-0.00,-0.02,1.05,0.28,-0.11,1.01,
0.566,-0.00,-0.02,1.05,0.14,-0.13,0.93,
0.567,-0.00,-0.02,1.04,0.14,-0.13,0.93,
0.568,-0.01,-0.02,1.04,0.14,-0.13,0.93,
0.578,-0.01,-0.02,1.03,0.14,-0.13,0.93,
0.579,-0.01,-0.02,1.03,0.07,-0.18,0.83,
0.579,-0.00,-0.02,1.03,0.07,-0.18,0.83,
0.579,-0.00,-0.02,1.02,0.07,-0.18,0.83,
0.579,-0.00,-0.02,1.02,-0.00,-0.18,0.73,
0.579,0.00,-0.03,1.02,-0.00,-0.18,0.73,
0.581,0.01,-0.03,1.01,-0.00,-0.18,0.73,
0.581,0.01,-0.03,1.01,0.04,-0.16,0.60,
0.583,0.01,-0.03,1.00,0.04,-0.16,0.60,
0.594,0.01,-0.03,1.00,0.06,-0.19,0.50,
0.595,0.00,-0.03,1.00,0.06,-0.19,0.50,
0.595,0.00,-0.04,1.00,0.06,-0.19,0.50,
0.595,-0.00,-0.04,0.99,0.06,-0.19,0.50,
0.595,-0.00,-0.04,0.99,0.04,-0.19,0.36,
0.596,-0.00,-0.04,1.00,0.04,-0.19,0.36,
0.596,-0.00,-0.05,1.01,0.04,-0.19,0.36,
0.596,-0.00,-0.05,1.01,-0.04,-0.26,0.32,
0.598,0.00,-0.05,1.00,-0.04,-0.26,0.32,
0.601,-0.00,-0.05,1.01,-0.04,-0.26,0.32,
0.601,-0.00,-0.05,1.01,-0.11,-0.30,0.41,
0.603,0.00,-0.04,1.01,-0.11,-0.30,0.41,
0.61,0.01,-0.04,1.02,-0.11,-0.30,0.41,
0.611,0.01,-0.04,1.02,-0.12,-0.31,0.41,
0.611,0.01,-0.04,1.02,-0.12,-0.31,0.41,
0.611,0.01,-0.04,1.02,-0.10,-0.24,0.52,
0.611,0.01,-0.04,1.03,-0.10,-0.24,0.52,
0.613,0.02,-0.03,1.04,-0.10,-0.24,0.52,
0.616,0.02,-0.03,1.05,-0.10,-0.24,0.52,
0.616,0.02,-0.03,1.05,-0.07,-0.19,0.63,
0.618,0.02,-0.03,1.06,-0.07,-0.19,0.63,
0.625,0.02,-0.03,1.07,-0.07,-0.19,0.63,
0.626,0.02,-0.03,1.07,-0.08,-0.09,0.79,
0.626,0.02,-0.02,1.08,-0.08,-0.09,0.79,
0.626,0.04,-0.02,1.09,-0.08,-0.09,0.79,
0.626,0.04,-0.02,1.09,-0.07,-0.02,1.01,
0.628,0.05,-0.01,1.10,-0.07,-0.02,1.01,
0.63,0.06,-0.01,1.10,-0.07,-0.02,1.01,
0.631,0.06,-0.01,1.10,0.03,0.10,1.17,
0.633,0.07,-0.00,1.11,0.03,0.10,1.17,
0.635,0.07,-0.00,1.11,0.23,0.22,1.35,
0.635,0.08,-0.00,1.11,0.23,0.22,1.35,
0.64,0.09,-0.00,1.11,0.23,0.22,1.35,
0.641,0.08,0.01,1.12,0.23,0.22,1.35,
0.641,0.08,0.01,1.12,0.42,0.32,1.41,
0.642,0.09,-0.00,1.12,0.42,0.32,1.41,
0.644,0.08,-0.00,1.12,0.42,0.32,1.41,
0.645,0.08,-0.00,1.12,0.50,0.38,1.48,
0.647,0.08,0.00,1.12,0.50,0.38,1.48,
0.65,0.08,0.01,1.12,0.50,0.38,1.48,
0.65,0.08,0.01,1.12,0.49,0.34,1.49,
0.652,0.08,0.01,1.11,0.49,0.34,1.49,
0.658,0.08,0.02,1.10,0.49,0.34,1.49,
0.659,0.08,0.02,1.10,0.46,0.42,1.47,
0.659,0.08,0.02,1.10,0.46,0.42,1.47,
0.66,0.08,0.02,1.10,0.43,0.50,1.37,
0.66,0.08,0.03,1.10,0.43,0.50,1.37,
0.662,0.07,0.03,1.08,0.43,0.50,1.37,
0.664,0.07,0.03,1.08,0.43,0.50,1.37,
0.665,0.07,0.03,1.08,0.43,0.60,1.28,
0.666,0.06,0.04,1.07,0.43,0.60,1.28,
0.679,0.05,0.05,1.05,0.43,0.60,1.28,
0.68,0.05,0.05,1.05,0.31,0.66,1.10,
0.68,0.05,0.06,1.04,0.31,0.66,1.10,
0.68,0.05,0.06,1.04,0.31,0.66,1.10,
0.681,0.05,0.06,1.04,0.22,0.79,0.89,
0.681,0.04,0.06,1.03,0.22,0.79,0.89,
0.681,0.04,0.06,1.02,0.22,0.79,0.89,
0.681,0.04,0.06,1.02,0.11,0.87,0.71,
0.681,0.02,0.06,1.01,0.11,0.87,0.71,
0.684,0.02,0.06,1.01,0.03,0.89,0.58,
0.685,0.00,0.05,1.00,0.03,0.89,0.58,
0.694,-0.00,0.05,1.00,0.03,0.89,0.58,
0.695,-0.02,0.04,0.99,0.03,0.89,0.58,
0.695,-0.02,0.04,0.99,-0.21,0.79,0.39,
0.695,-0.05,0.03,0.99,-0.21,0.79,0.39,
0.696,-0.05,0.03,0.98,-0.21,0.79,0.39,
0.696,-0.05,0.03,0.98,-0.48,0.70,0.27,
0.696,-0.06,0.03,0.98,-0.48,0.70,0.27,
0.7,-0.06,0.02,0.97,-0.48,0.70,0.27,
0.7,-0.06,0.02,0.97,-0.83,0.52,0.19,
0.701,-0.06,0.02,0.97,-0.83,0.52,0.19,
0.711,-0.05,0.02,0.97,-0.83,0.52,0.19,
0.711,-0.05,0.02,0.97,-0.94,0.43,0.07,
0.711,-0.04,0.02,0.96,-0.94,0.43,0.07,
0.712,-0.04,0.02,0.96,-0.84,0.39,-0.02,
0.712,-0.03,0.03,0.96,-0.84,0.39,-0.02,
0.712,-0.02,0.03,0.96,-0.84,0.39,-0.02,
0.714,-0.02,0.03,0.95,-0.84,0.39,-0.02,
0.714,-0.02,0.03,0.95,-0.65,0.41,-0.11,
0.716,-0.01,0.03,0.95,-0.65,0.41,-0.11,
0.719,-0.01,0.03,0.95,-0.65,0.41,-0.11,
0.719,-0.01,0.03,0.95,-0.48,0.44,-0.16,
0.725,-0.00,0.03,0.95,-0.48,0.44,-0.16,
0.726,0.00,0.02,0.95,-0.48,0.44,-0.16,
0.726,0.00,0.02,0.95,-0.40,0.41,-0.18,
0.726,0.01,0.02,0.95,-0.40,0.41,-0.18,
0.729,0.03,0.01,0.95,-0.40,0.41,-0.18,
0.729,0.03,0.01,0.95,-0.28,0.40,-0.17,
0.731,0.03,0.00,0.95,-0.28,0.40,-0.17,
0.734,0.03,0.00,0.95,-0.08,0.29,-0.17,
0.734,0.04,-0.00,0.95,-0.08,0.29,-0.17,
0.741,0.05,-0.00,0.94,-0.08,0.29,-0.17,
0.742,0.06,-0.01,0.94,-0.08,0.29,-0.17,
0.742,0.06,-0.01,0.94,0.06,0.14,-0.23,
0.742,0.06,-0.02,0.94,0.06,0.14,-0.23,
0.744,0.07,-0.03,0.94,0.06,0.14,-0.23,
0.744,0.07,-0.03,0.94,0.23,0.07,-0.25,
0.746,0.07,-0.03,0.94,0.23,0.07,-0.25,
0.748,0.08,-0.03,0.94,0.23,0.07,-0.25,
0.749,0.08,-0.03,0.94,0.34,-0.07,-0.26,
0.751,0.09,-0.03,0.94,0.34,-0.07,-0.26,
0.758,0.09,-0.03,0.94,0.34,-0.07,-0.26,
0.758,0.09,-0.03,0.94,0.50,-0.14,-0.29,
0.758,0.10,-0.03,0.95,0.50,-0.14,-0.29,
0.758,0.10,-0.03,0.95,0.63,-0.17,-0.27,
0.759,0.10,-0.03,0.95,0.63,-0.17,-0.27,
0.761,0.10,-0.03,0.96,0.63,-0.17,-0.27,
0.764,0.09,-0.03,0.97,0.63,-0.17,-0.27,
0.764,0.09,-0.03,0.97,0.68,-0.11,-0.18,
0.766,0.09,-0.01,1.00,0.68,-0.11,-0.18,
0.768,0.08,-0.01,1.02,0.68,-0.11,-0.18,
0.769,0.08,-0.01,1.02,0.65,-0.09,-0.05,
0.779,0.08,-0.01,1.03,0.65,-0.09,-0.05,
0.78,0.08,-0.01,1.03,0.65,-0.09,-0.05,
0.78,0.08,-0.01,1.03,0.57,0.08,0.40,
0.781,0.07,-0.02,1.03,0.57,0.08,0.40,
0.781,0.06,-0.03,1.03,0.57,0.08,0.40,
0.781,0.06,-0.03,1.03,0.51,0.08,0.58,
0.782,0.04,-0.04,1.04,0.51,0.08,0.58,
0.783,0.04,-0.04,1.04,0.38,-0.04,0.63,
0.784,0.03,-0.04,1.04,0.38,-0.04,0.63,
0.786,0.02,-0.04,1.04,0.38,-0.04,0.63,
0.796,0.00,-0.04,1.05,0.38,-0.04,0.63,
0.797,0.00,-0.04,1.05,0.14,-0.17,0.66,
0.797,0.00,-0.04,1.05,0.14,-0.17,0.66,
0.798,0.01,-0.04,1.06,0.14,-0.17,0.66,
0.798,0.01,-0.04,1.06,-0.08,-0.23,0.74,
0.799,0.01,-0.04,1.05,-0.08,-0.23,0.74,
0.799,0.02,-0.04,1.05,-0.08,-0.23,0.74,
0.799,0.02,-0.04,1.05,-0.11,-0.23,0.84,
0.8,0.04,-0.04,1.05,-0.11,-0.23,0.84,
0.813,0.04,-0.04,1.05,-0.11,-0.23,0.84,
0.814,0.04,-0.04,1.05,0.01,-0.22,0.80,
0.814,0.05,-0.04,1.04,0.01,-0.22,0.80,
0.815,0.06,-0.04,1.04,0.01,-0.22,0.80,
0.815,0.06,-0.04,1.04,0.25,-0.28,0.79,
0.815,0.06,-0.05,1.03,0.25,-0.28,0.79,
0.816,0.06,-0.04,1.03,0.25,-0.28,0.79,
0.817,0.06,-0.04,1.03,0.42,-0.24,0.65,
0.817,0.06,-0.04,1.02,0.42,-0.24,0.65,
0.819,0.05,-0.04,1.02,0.42,-0.24,0.65,
0.824,0.05,-0.04,1.02,0.42,-0.27,0.56,
0.825,0.05,-0.03,1.03,0.42,-0.27,0.56,
0.825,0.05,-0.03,1.02,0.42,-0.27,0.56,
0.825,0.05,-0.03,1.02,0.40,-0.21,0.49,
0.826,0.04,-0.04,1.02,0.40,-0.21,0.49,
0.828,0.05,-0.04,1.02,0.40,-0.21,0.49,
0.828,0.05,-0.04,1.02,0.33,-0.17,0.52,
0.831,0.04,-0.04,1.03,0.33,-0.17,0.52,
0.834,0.04,-0.04,1.03,0.32,-0.22,0.50,
0.834,0.04,-0.04,1.02,0.32,-0.22,0.50,
0.836,0.03,-0.04,1.03,0.32,-0.22,0.50,
0.843,0.02,-0.05,1.04,0.32,-0.22,0.50,
0.844,0.02,-0.05,1.04,0.25,-0.23,0.52,
0.845,0.01,-0.06,1.04,0.25,-0.23,0.52,
0.845,0.01,-0.07,1.05,0.25,-0.23,0.52,
0.845,0.01,-0.07,1.05,0.16,-0.28,0.63,
0.845,0.00,-0.08,1.06,0.16,-0.28,0.63,
0.849,-0.00,-0.09,1.06,0.16,-0.28,0.63,
0.849,-0.00,-0.09,1.06,0.01,-0.44,0.73,
0.851,-0.01,-0.11,1.06,0.01,-0.44,0.73,
0.853,-0.00,-0.12,1.07,0.01,-0.44,0.73,
0.853,-0.00,-0.12,1.07,-0.12,-0.69,0.81,
0.858,-0.00,-0.13,1.06,-0.12,-0.69,0.81,
0.858,-0.00,-0.13,1.06,-0.16,-0.93,0.91,
0.858,-0.01,-0.14,1.06,-0.16,-0.93,0.91,
0.86,-0.00,-0.14,1.07,-0.16,-0.93,0.91,
0.863,0.01,-0.14,1.06,-0.16,-0.93,0.91,
0.863,0.01,-0.14,1.06,-0.13,-1.12,0.88,
0.865,0.02,-0.15,1.05,-0.13,-1.12,0.88,
0.868,0.03,-0.15,1.04,-0.13,-1.12,0.88,
0.868,0.03,-0.15,1.04,-0.04,-1.18,0.86,
0.878,0.05,-0.15,1.03,-0.04,-1.18,0.86,
0.878,0.07,-0.14,1.03,-0.04,-1.18,0.86,
0.879,0.07,-0.14,1.03,0.20,-1.22,0.73,
0.879,0.08,-0.14,1.02,0.20,-1.22,0.73,
0.879,0.09,-0.14,1.01,0.20,-1.22,0.73,
0.879,0.09,-0.14,1.01,0.48,-1.20,0.56,
0.88,0.11,-0.13,1.00,0.48,-1.20,0.56,
0.883,0.11,-0.13,1.00,0.78,-1.17,0.42,
0.883,0.12,-0.13,0.99,0.78,-1.17,0.42,
0.885,0.13,-0.13,0.99,0.78,-1.17,0.42,
0.887,0.14,-0.13,0.99,0.78,-1.17,0.42,
0.887,0.14,-0.13,0.99,1.03,-1.08,0.24,
0.894,0.14,-0.12,0.98,1.03,-1.08,0.24,
0.895,0.14,-0.11,0.98,1.03,-1.08,0.24,
0.895,0.14,-0.11,0.98,1.18,-1.00,0.15,
0.895,0.15,-0.10,0.98,1.18,-1.00,0.15,
0.898,0.15,-0.09,0.97,1.18,-1.00,0.15,
0.898,0.15,-0.09,0.97,1.29,-0.87,0.07,
0.9,0.14,-0.08,0.97,1.29,-0.87,0.07,
0.903,0.13,-0.07,0.96,1.29,-0.87,0.07,
0.903,0.13,-0.07,0.96,1.31,-0.65,-0.01,
0.911,0.13,-0.06,0.96,1.31,-0.65,-0.01,
0.911,0.13,-0.06,0.96,1.21,-0.46,-0.09,
0.912,0.11,-0.06,0.96,1.21,-0.46,-0.09,
0.912,0.10,-0.05,0.96,1.21,-0.46,-0.09,
0.912,0.08,-0.03,0.96,1.21,-0.46,-0.09,
0.912,0.08,-0.03,0.96,1.02,-0.26,-0.15,
0.915,0.07,-0.03,0.96,1.02,-0.26,-0.15,
0.918,0.05,-0.02,0.97,1.02,-0.26,-0.15,
0.918,0.05,-0.02,0.97,0.72,-0.04,-0.13,
0.92,0.04,-0.01,0.98,0.72,-0.04,-0.13,
0.926,0.02,-0.01,0.99,0.72,-0.04,-0.13,
0.926,0.02,-0.01,0.99,0.41,0.14,-0.05,
0.926,0.00,-0.00,1.00,0.41,0.14,-0.05,
0.927,-0.02,0.00,1.00,0.41,0.14,-0.05,
0.927,-0.02,0.00,1.00,0.11,0.28,0.14,
0.93,-0.05,0.01,1.01,0.11,0.28,0.14,
0.932,-0.05,0.01,1.01,-0.30,0.41,0.26,
0.933,-0.08,0.02,1.02,-0.30,0.41,0.26,
0.935,-0.11,0.01,1.03,-0.30,0.41,0.26,
0.943,-0.13,0.02,1.03,-0.30,0.41,0.26,
0.943,-0.13,0.02,1.03,-0.85,0.56,0.38,
0.943,-0.15,0.02,1.04,-0.85,0.56,0.38,
0.944,-0.17,0.02,1.06,-0.85,0.56,0.38,
0.944,-0.17,0.02,1.06,-1.40,0.61,0.55,
0.944,-0.19,0.02,1.07,-1.40,0.61,0.55,
0.947,-0.21,0.02,1.08,-1.40,0.61,0.55,
0.948,-0.21,0.02,1.08,-1.83,0.64,0.75,
0.95,-0.22,0.02,1.08,-1.83,0.64,0.75,
0.952,-0.23,0.02,1.09,-1.83,0.64,0.75,
0.952,-0.23,0.02,1.09,-2.18,0.66,0.95,
0.954,-0.23,0.02,1.10,-2.18,0.66,0.95,
0.96,-0.23,0.02,1.10,-2.39,0.68,1.13,
0.961,-0.23,0.02,1.11,-2.39,0.68,1.13,
0.961,-0.23,0.02,1.12,-2.39,0.68,1.13,
0.961,-0.22,0.02,1.12,-2.39,0.68,1.13,
0.962,-0.22,0.02,1.12,-2.48,0.72,1.30,
0.963,-0.21,0.02,1.13,-2.48,0.72,1.30,
0.966,-0.20,0.02,1.14,-2.48,0.72,1.30,
0.967,-0.20,0.02,1.14,-2.43,0.73,1.44,
0.969,-0.18,0.02,1.15,-2.43,0.73,1.44,
0.98,-0.15,0.02,1.16,-2.43,0.73,1.44,
0.981,-0.15,0.02,1.16,-2.21,0.78,1.57,
0.982,-0.12,0.02,1.16,-2.21,0.78,1.57,
0.982,-0.10,0.02,1.17,-2.21,0.78,1.57,
0.982,-0.10,0.02,1.17,-1.78,0.78,1.74,
0.982,-0.07,0.02,1.17,-1.78,0.78,1.74,
0.983,-0.07,0.02,1.17,-1.28,0.78,1.85,
0.983,-0.05,0.02,1.18,-1.28,0.78,1.85,
0.985,-0.04,0.01,1.18,-1.28,0.78,1.85,
0.986,-0.02,0.00,1.19,-1.28,0.78,1.85,
0.986,-0.02,0.00,1.19,-0.80,0.80,1.95,
0.994,-0.00,-0.00,1.19,-0.80,0.80,1.95,
0.995,0.01,-0.01,1.20,-0.80,0.80,1.95,
0.995,0.01,-0.01,1.20,-0.42,0.71,2.01,
0.996,0.02,-0.02,1.20,-0.42,0.71,2.01,
0.996,0.03,-0.02,1.20,-0.42,0.71,2.01,
0.996,0.03,-0.02,1.20,-0.13,0.58,2.10,
0.998,0.04,-0.03,1.21,-0.13,0.58,2.10,
1.002,0.04,-0.03,1.22,-0.13,0.58,2.10,
1.002,0.04,-0.03,1.22,0.11,0.46,2.19,
1.012,0.04,-0.03,1.22,0.11,0.46,2.19,
1.013,0.04,-0.03,1.22,0.23,0.36,2.32,
1.013,0.03,-0.04,1.23,0.23,0.36,2.32,
1.014,0.02,-0.05,1.23,0.23,0.36,2.32,
1.014,0.02,-0.05,1.24,0.23,0.36,2.32,
1.014,0.02,-0.05,1.24,0.21,0.31,2.42,
1.015,-0.00,-0.05,1.25,0.21,0.31,2.42,
1.017,-0.01,-0.06,1.25,0.21,0.31,2.42,
1.017,-0.01,-0.06,1.25,0.08,0.24,2.51,
1.019,-0.03,-0.06,1.25,0.08,0.24,2.51,
1.026,-0.05,-0.06,1.25,0.08,0.24,2.51,
1.026,-0.05,-0.06,1.25,-0.19,0.18,2.62,
1.026,-0.06,-0.06,1.26,-0.19,0.18,2.62,
1.027,-0.07,-0.06,1.26,-0.19,0.18,2.62,
1.027,-0.07,-0.06,1.26,-0.50,0.11,2.65,
1.028,-0.08,-0.06,1.26,-0.50,0.11,2.65,
1.031,-0.08,-0.06,1.26,-0.74,0.12,2.71,
1.032,-0.09,-0.06,1.27,-0.74,0.12,2.71,
1.034,-0.10,-0.05,1.27,-0.74,0.12,2.71,
1.036,-0.12,-0.04,1.27,-0.74,0.12,2.71,
1.036,-0.12,-0.04,1.27,-0.95,0.17,2.75,
1.042,-0.13,-0.04,1.27,-0.95,0.17,2.75,
1.042,-0.14,-0.03,1.27,-0.95,0.17,2.75,
1.042,-0.14,-0.03,1.27,-1.17,0.29,2.76,
1.044,-0.14,-0.03,1.27,-1.17,0.29,2.76,
1.046,-0.15,-0.03,1.28,-1.17,0.29,2.76,
1.047,-0.15,-0.03,1.28,-1.38,0.40,2.77,
1.048,-0.17,-0.03,1.28,-1.38,0.40,2.77,
1.051,-0.18,-0.03,1.28,-1.38,0.40,2.77,
1.052,-0.18,-0.03,1.28,-1.55,0.46,2.83,
1.053,-0.18,-0.03,1.28,-1.55,0.46,2.83,
1.06,-0.18,-0.04,1.28,-1.55,0.46,2.83,
1.061,-0.18,-0.04,1.28,-1.75,0.46,2.87,
1.061,-0.18,-0.04,1.29,-1.75,0.46,2.87,
1.061,-0.18,-0.05,1.29,-1.75,0.46,2.87,
1.061,-0.18,-0.05,1.29,-1.82,0.39,2.89,
1.063,-0.18,-0.05,1.29,-1.82,0.39,2.89,
1.066,-0.17,-0.06,1.30,-1.82,0.39,2.89,
1.066,-0.17,-0.06,1.30,-1.81,0.31,2.95,
1.069,-0.16,-0.06,1.29,-1.81,0.31,2.95,
1.071,-0.15,-0.06,1.29,-1.81,0.31,2.95,
1.071,-0.15,-0.06,1.29,-1.73,0.21,3.00,
1.083,-0.14,-0.06,1.29,-1.73,0.21,3.00,
1.084,-0.13,-0.07,1.29,-1.73,0.21,3.00,
1.084,-0.13,-0.07,1.29,-1.57,0.15,2.96,
1.085,-0.13,-0.07,1.28,-1.57,0.15,2.96,
1.085,-0.13,-0.07,1.28,-1.36,0.09,2.92,
1.085,-0.12,-0.07,1.27,-1.36,0.09,2.92,
1.085,-0.11,-0.07,1.28,-1.36,0.09,2.92,
1.085,-0.09,-0.07,1.27,-1.36,0.09,2.92,
1.086,-0.09,-0.07,1.27,-1.19,0.04,2.80,
1.088,-0.08,-0.08,1.27,-1.19,0.04,2.80,
1.096,-0.08,-0.07,1.27,-1.19,0.04,2.80,
1.097,-0.08,-0.07,1.27,-0.96,0.03,2.77,
1.097,-0.07,-0.06,1.27,-0.96,0.03,2.77,
1.097,-0.06,-0.05,1.27,-0.96,0.03,2.77,
1.097,-0.06,-0.05,1.27,-0.76,0.07,2.69,
1.099,-0.04,-0.05,1.28,-0.76,0.07,2.69,
1.101,-0.03,-0.04,1.28,-0.76,0.07,2.69,
1.103,-0.03,-0.04,1.28,-0.62,0.20,2.68,
1.103,-0.02,-0.03,1.29,-0.62,0.20,2.68,
1.115,-0.02,-0.03,1.29,-0.32,0.33,2.76,
1.116,-0.02,-0.03,1.29,-0.32,0.33,2.76,
1.116,-0.03,-0.03,1.29,-0.32,0.33,2.76,
1.116,-0.04,-0.03,1.29,-0.32,0.33,2.76,
1.117,-0.04,-0.03,1.29,-0.15,0.42,2.88,
1.117,-0.05,-0.04,1.29,-0.15,0.42,2.88,
1.117,-0.07,-0.04,1.29,-0.15,0.42,2.88,
1.118,-0.07,-0.04,1.29,-0.26,0.42,2.88,
1.118,-0.08,-0.04,1.28,-0.26,0.42,2.88,
1.121,-0.09,-0.04,1.27,-0.26,0.42,2.88,
1.121,-0.09,-0.04,1.27,-0.55,0.38,2.84,
1.129,-0.10,-0.04,1.26,-0.55,0.38,2.84,
1.13,-0.11,-0.04,1.25,-0.55,0.38,2.84,
1.13,-0.11,-0.04,1.25,-0.82,0.32,2.69,
1.13,-0.11,-0.04,1.24,-0.82,0.32,2.69,
1.131,-0.11,-0.04,1.24,-1.01,0.30,2.53,
1.131,-0.11,-0.04,1.24,-1.01,0.30,2.53,
1.132,-0.11,-0.05,1.23,-1.01,0.30,2.53,
1.135,-0.11,-0.05,1.22,-1.01,0.30,2.53,
1.136,-0.11,-0.05,1.22,-1.09,0.29,2.36,
1.137,-0.12,-0.05,1.21,-1.09,0.29,2.36,
1.146,-0.12,-0.06,1.20,-1.09,0.29,2.36,
1.148,-0.12,-0.06,1.20,-1.11,0.19,2.19,
1.148,-0.12,-0.07,1.19,-1.11,0.19,2.19,
1.149,-0.12,-0.07,1.19,-1.11,0.19,2.19,
1.15,-0.12,-0.07,1.19,-1.17,0.09,2.00,
1.15,-0.12,-0.08,1.18,-1.17,0.09,2.00,
1.156,-0.12,-0.08,1.17,-1.17,0.09,2.00,
1.157,-0.12,-0.08,1.17,-1.18,-0.03,1.85,
1.157,-0.12,-0.09,1.17,-1.18,-0.03,1.85,
1.158,-0.12,-0.09,1.17,-1.21,-0.13,1.71,
1.159,-0.12,-0.09,1.16,-1.21,-0.13,1.71,
1.159,-0.11,-0.09,1.16,-1.21,-0.13,1.71,
1.16,-0.11,-0.09,1.16,-1.21,-0.13,1.71,
1.161,-0.11,-0.09,1.16,-1.24,-0.24,1.58,
1.168,-0.11,-0.09,1.15,-1.24,-0.24,1.58,
1.169,-0.11,-0.09,1.15,-1.24,-0.24,1.58,
1.17,-0.11,-0.09,1.15,-1.17,-0.30,1.50,
1.17,-0.11,-0.09,1.14,-1.17,-0.30,1.50,
1.17,-0.11,-0.09,1.14,-1.12,-0.32,1.45,
1.171,-0.10,-0.09,1.15,-1.12,-0.32,1.45,
1.184,-0.11,-0.09,1.14,-1.12,-0.32,1.45,
1.185,-0.11,-0.08,1.13,-1.12,-0.32,1.45,
1.185,-0.11,-0.08,1.13,-1.12,-0.33,1.38,
1.185,-0.11,-0.07,1.13,-1.12,-0.33,1.38,
1.186,-0.11,-0.07,1.13,-1.17,-0.28,1.28,
1.186,-0.12,-0.08,1.12,-1.17,-0.28,1.28,
1.186,-0.11,-0.07,1.12,-1.17,-0.28,1.28,
1.186,-0.11,-0.07,1.12,-1.17,-0.28,1.28,
1.187,-0.11,-0.07,1.12,-1.21,-0.19,1.18,
1.187,-0.10,-0.07,1.11,-1.21,-0.19,1.18,
1.194,-0.09,-0.07,1.11,-1.21,-0.19,1.18,
1.195,-0.09,-0.07,1.11,-1.17,-0.15,1.12,
1.195,-0.08,-0.07,1.11,-1.17,-0.15,1.12,
1.195,-0.08,-0.06,1.11,-1.17,-0.15,1.12,
1.195,-0.08,-0.06,1.11,-1.03,-0.17,1.05,
1.196,-0.06,-0.06,1.11,-1.03,-0.17,1.05,
1.199,-0.05,-0.05,1.11,-1.03,-0.17,1.05,
1.199,-0.05,-0.05,1.11,-0.88,-0.10,1.01,
1.201,-0.03,-0.04,1.12,-0.88,-0.10,1.01,
1.204,-0.03,-0.04,1.12,-0.61,-0.02,1.02,
1.205,-0.03,-0.04,1.12,-0.61,-0.02,1.02,
1.214,-0.02,-0.03,1.12,-0.61,-0.02,1.02,
1.215,-0.02,-0.03,1.13,-0.61,-0.02,1.02,
1.216,-0.02,-0.03,1.13,-0.40,0.10,1.09,
1.216,-0.02,-0.03,1.13,-0.40,0.10,1.09,
1.216,-0.03,-0.03,1.12,-0.40,0.10,1.09,
1.217,-0.03,-0.03,1.12,-0.30,0.16,1.16,
1.217,-0.03,-0.03,1.12,-0.30,0.16,1.16,
1.219,-0.04,-0.03,1.11,-0.30,0.16,1.16,
1.219,-0.04,-0.03,1.11,-0.36,0.16,1.15,
1.23,-0.05,-0.03,1.11,-0.36,0.16,1.15,
1.231,-0.05,-0.03,1.10,-0.36,0.16,1.15,
1.231,-0.05,-0.03,1.10,-0.51,0.13,1.03,
1.231,-0.05,-0.03,1.10,-0.51,0.13,1.03,
1.232,-0.05,-0.03,1.10,-0.63,0.13,0.97,
1.233,-0.06,-0.03,1.09,-0.63,0.13,0.97,
1.233,-0.06,-0.02,1.09,-0.63,0.13,0.97,
1.234,-0.06,-0.02,1.08,-0.63,0.13,0.97,
1.234,-0.06,-0.02,1.08,-0.70,0.16,0.86,
1.236,-0.06,-0.03,1.07,-0.70,0.16,0.86,
1.245,-0.06,-0.03,1.06,-0.70,0.16,0.86,
1.247,-0.06,-0.03,1.06,-0.74,0.19,0.74,
1.247,-0.06,-0.03,1.06,-0.74,0.19,0.74,
1.248,-0.06,-0.04,1.05,-0.74,0.19,0.74,
1.249,-0.06,-0.04,1.05,-0.75,0.12,0.59,
1.249,-0.05,-0.04,1.05,-0.75,0.12,0.59,
1.25,-0.04,-0.04,1.04,-0.75,0.12,0.59,
1.251,-0.04,-0.04,1.04,-0.73,0.05,0.44,
1.252,-0.03,-0.05,1.03,-0.73,0.05,0.44,
1.254,-0.03,-0.05,1.03,-0.65,-0.02,0.33,
1.254,-0.02,-0.05,1.03,-0.65,-0.02,0.33,
1.262,-0.01,-0.05,1.03,-0.65,-0.02,0.33,
1.263,0.01,-0.06,1.03,-0.65,-0.02,0.33,
1.264,0.01,-0.06,1.03,-0.47,-0.11,0.21,
1.264,0.03,-0.06,1.02,-0.47,-0.11,0.21,
1.264,0.04,-0.06,1.02,-0.47,-0.11,0.21,
1.265,0.04,-0.06,1.02,-0.19,-0.18,0.16,
1.266,0.06,-0.06,1.02,-0.19,-0.18,0.16,
1.268,0.06,-0.05,1.02,-0.19,-0.18,0.16,
1.269,0.06,-0.05,1.02,0.14,-0.23,0.13,
1.27,0.07,-0.05,1.01,0.14,-0.23,0.13,
1.285,0.08,-0.05,1.02,0.14,-0.23,0.13,
1.286,0.08,-0.05,1.02,0.40,-0.20,0.11,
1.287,0.08,-0.05,1.02,0.40,-0.20,0.11,
1.287,0.08,-0.05,1.02,0.58,-0.16,0.06,
1.288,0.08,-0.05,1.01,0.58,-0.16,0.06,
1.288,0.07,-0.05,1.02,0.58,-0.16,0.06,
1.289,0.08,-0.05,1.01,0.58,-0.16,0.06,
1.289,0.08,-0.05,1.01,0.64,-0.16,0.07,
1.29,0.07,-0.05,1.02,0.64,-0.16,0.07,
1.29,0.07,-0.04,1.03,0.64,-0.16,0.07,
1.291,0.07,-0.04,1.03,0.61,-0.20,0.06,
1.291,0.06,-0.04,1.03,0.61,-0.20,0.06,
1.296,0.04,-0.04,1.04,0.61,-0.20,0.06,
1.297,0.04,-0.04,1.04,0.58,-0.16,0.12,
1.297,0.03,-0.03,1.05,0.58,-0.16,0.12,
1.298,0.01,-0.03,1.06,0.58,-0.16,0.12,
1.298,0.01,-0.03,1.06,0.39,-0.12,0.27,
1.3,-0.02,-0.03,1.07,0.39,-0.12,0.27,
1.303,-0.02,-0.03,1.07,0.10,-0.10,0.43,
1.304,-0.05,-0.04,1.07,0.10,-0.10,0.43,
1.316,-0.07,-0.04,1.07,0.10,-0.10,0.43,
1.318,-0.09,-0.05,1.07,0.10,-0.10,0.43,
1.318,-0.09,-0.05,1.07,-0.36,-0.16,0.55,
1.319,-0.10,-0.05,1.07,-0.36,-0.16,0.55,
1.319,-0.12,-0.06,1.08,-0.36,-0.16,0.55,
1.325,-0.12,-0.06,1.08,-0.77,-0.25,0.58,
1.326,-0.12,-0.05,1.07,-0.77,-0.25,0.58,
1.328,-0.12,-0.05,1.06,-0.77,-0.25,0.58,
1.329,-0.12,-0.05,1.06,-1.05,-0.36,0.62,
1.329,-0.12,-0.04,1.07,-1.05,-0.36,0.62,
1.33,-0.11,-0.05,1.06,-1.05,-0.36,0.62,
1.331,-0.11,-0.05,1.06,-1.14,-0.37,0.56,
1.332,-0.09,-0.04,1.05,-1.14,-0.37,0.56,
1.333,-0.09,-0.04,1.05,-1.04,-0.31,0.49,
1.334,-0.08,-0.03,1.04,-1.04,-0.31,0.49,
1.335,-0.06,-0.03,1.03,-1.04,-0.31,0.49,
1.336,-0.05,-0.03,1.03,-1.04,-0.31,0.49,
1.337,-0.05,-0.03,1.03,-0.76,-0.22,0.32,
1.338,-0.03,-0.02,1.02,-0.76,-0.22,0.32,
1.339,-0.02,-0.02,1.01,-0.76,-0.22,0.32,
1.339,-0.02,-0.02,1.01,-0.47,-0.21,0.17,
1.343,-0.01,-0.03,1.00,-0.47,-0.21,0.17,
1.344,0.01,-0.02,0.99,-0.47,-0.21,0.17,
1.344,0.01,-0.02,0.99,-0.17,-0.16,0.02,
1.345,0.03,-0.02,0.98,-0.17,-0.16,0.02,
1.348,0.05,-0.01,0.97,-0.17,-0.16,0.02,
1.348,0.05,-0.01,0.97,0.13,-0.15,-0.16,
1.351,0.07,-0.00,0.97,0.13,-0.15,-0.16,
1.353,0.07,-0.00,0.97,0.51,-0.11,-0.34,
1.354,0.09,0.00,0.96,0.51,-0.11,-0.34,
1.355,0.11,0.01,0.93,0.51,-0.11,-0.34,
1.358,0.12,0.01,0.93,0.51,-0.11,-0.34,
1.358,0.12,0.01,0.93,0.88,0.02,-0.49,
1.36,0.13,0.02,0.91,0.88,0.02,-0.49,
1.363,0.13,0.03,0.89,0.88,0.02,-0.49,
1.363,0.13,0.03,0.89,1.18,0.10,-0.80,
1.366,0.14,0.03,0.89,1.18,0.10,-0.80,
1.368,0.14,0.04,0.89,1.18,0.10,-0.80,
1.368,0.14,0.04,0.89,1.36,0.24,-1.06,
1.37,0.15,0.04,0.90,1.36,0.24,-1.06,
1.378,0.15,0.05,0.91,1.36,0.24,-1.06,
1.378,0.15,0.05,0.91,1.43,0.35,-1.18,
1.378,0.14,0.05,0.91,1.43,0.35,-1.18,
1.379,0.14,0.05,0.91,1.49,0.45,-1.06,
1.379,0.13,0.04,0.92,1.49,0.45,-1.06,
1.38,0.12,0.03,0.92,1.49,0.45,-1.06,
1.383,0.10,0.03,0.93,1.49,0.45,-1.06,
1.384,0.10,0.03,0.93,1.37,0.41,-0.92,
1.385,0.07,0.02,0.94,1.37,0.41,-0.92,
1.388,0.04,0.01,0.95,1.37,0.41,-0.92,
1.388,0.04,0.01,0.95,1.07,0.29,-0.82,
1.397,0.01,0.00,0.97,1.07,0.29,-0.82,
1.398,-0.02,0.00,0.98,1.07,0.29,-0.82,
1.398,-0.02,0.00,0.98,0.57,0.12,-0.61,
1.398,-0.05,-0.00,0.99,0.57,0.12,-0.61,
1.399,-0.07,-0.01,0.99,0.57,0.12,-0.61,
1.399,-0.07,-0.01,0.99,-0.02,0.02,-0.34,
1.4,-0.09,-0.01,0.99,-0.02,0.02,-0.34,
1.403,-0.09,-0.01,0.99,-0.55,-0.07,-0.22,
1.403,-0.10,-0.02,0.99,-0.55,-0.07,-0.22,
1.405,-0.11,-0.03,1.00,-0.55,-0.07,-0.22,
1.408,-0.12,-0.03,1.01,-0.55,-0.07,-0.22,
1.408,-0.12,-0.03,1.01,-0.90,-0.18,-0.22,
1.41,-0.13,-0.02,1.00,-0.90,-0.18,-0.22,
1.412,-0.14,-0.03,1.00,-0.90,-0.18,-0.22,
1.412,-0.14,-0.03,1.00,-1.12,-0.27,-0.06,
1.415,-0.15,-0.03,1.00,-1.12,-0.27,-0.06,
1.418,-0.15,-0.02,1.00,-1.12,-0.27,-0.06,
1.418,-0.15,-0.02,1.00,-1.28,-0.27,-0.06,
1.42,-0.15,-0.02,1.01,-1.28,-0.27,-0.06,
1.423,-0.15,-0.02,1.00,-1.28,-0.27,-0.06,
1.423,-0.15,-0.02,1.00,-1.39,-0.27,-0.06,
1.425,-0.14,-0.02,0.99,-1.39,-0.27,-0.06,
1.428,-0.13,-0.02,0.98,-1.39,-0.27,-0.06,
1.428,-0.13,-0.02,0.98,-1.36,-0.23,-0.09,
1.429,-0.12,-0.02,0.97,-1.36,-0.23,-0.09,
1.433,-0.11,-0.01,0.95,-1.36,-0.23,-0.09,
1.433,-0.11,-0.01,0.95,-1.25,-0.24,-0.24,
1.435,-0.09,-0.00,0.94,-1.25,-0.24,-0.24,
1.437,-0.07,0.00,0.93,-1.25,-0.24,-0.24,
1.438,-0.07,0.00,0.93,-1.04,-0.15,-0.50,
1.439,-0.05,0.01,0.92,-1.04,-0.15,-0.50,
1.443,-0.03,0.01,0.91,-1.04,-0.15,-0.50,
1.443,-0.03,0.01,0.91,-0.70,-0.05,-0.75,
1.444,-0.00,0.01,0.90,-0.70,-0.05,-0.75,
1.448,0.02,0.01,0.89,-0.70,-0.05,-0.75,
1.448,0.02,0.01,0.89,-0.29,0.02,-0.95,
1.45,0.03,0.01,0.88,-0.29,0.02,-0.95,
1.452,0.03,0.01,0.88,0.17,0.06,-1.15,
1.453,0.05,0.01,0.86,0.17,0.06,-1.15,
1.454,0.07,0.01,0.86,0.17,0.06,-1.15,
1.463,0.09,0.01,0.85,0.17,0.06,-1.15,
1.464,0.09,0.01,0.85,0.47,0.07,-1.34,
1.464,0.11,0.02,0.84,0.47,0.07,-1.34,
1.465,0.13,0.03,0.85,0.47,0.07,-1.34,
1.465,0.13,0.03,0.85,0.89,0.08,-1.50,
1.465,0.14,0.02,0.84,0.89,0.08,-1.50,
1.466,0.15,0.03,0.85,0.89,0.08,-1.50,
1.467,0.15,0.03,0.85,1.29,0.17,-1.59,
1.468,0.14,0.02,0.85,1.29,0.17,-1.59,
1.471,0.13,0.02,0.86,1.29,0.17,-1.59,
1.472,0.13,0.02,0.86,1.49,0.17,-1.58,
1.474,0.12,0.01,0.86,1.49,0.17,-1.58,
1.476,0.12,0.01,0.86,1.46,0.15,-1.50,
1.477,0.10,0.02,0.86,1.46,0.15,-1.50,
1.48,0.08,0.02,0.86,1.46,0.15,-1.50,
1.481,0.06,0.01,0.86,1.46,0.15,-1.50,
1.482,0.06,0.01,0.86,1.22,0.08,-1.47,
1.483,0.04,0.02,0.87,1.22,0.08,-1.47,
1.486,0.03,0.02,0.87,1.22,0.08,-1.47,
1.486,0.03,0.02,0.87,0.84,0.06,-1.43,
1.488,0.02,0.03,0.89,0.84,0.06,-1.43,
1.491,0.00,0.03,0.91,0.84,0.06,-1.43,
1.492,0.00,0.03,0.91,0.48,0.14,-1.32,
1.493,-0.01,0.04,0.93,0.48,0.14,-1.32,
1.497,-0.02,0.05,0.94,0.48,0.14,-1.32,
1.497,-0.02,0.05,0.94,0.25,0.24,-1.04,
1.498,-0.04,0.05,0.95,0.25,0.24,-1.04,
1.501,-0.04,0.05,0.95,0.01,0.38,-0.71,
1.501,-0.05,0.06,0.97,0.01,0.38,-0.71,
1.503,-0.06,0.07,0.98,0.01,0.38,-0.71,
1.507,-0.08,0.07,0.99,0.01,0.38,-0.71,
1.508,-0.08,0.07,0.99,-0.24,0.49,-0.41,
1.509,-0.09,0.07,1.01,-0.24,0.49,-0.41,
1.511,-0.10,0.07,1.02,-0.24,0.49,-0.41,
1.511,-0.10,0.07,1.02,-0.45,0.62,-0.15,
1.513,-0.11,0.08,1.03,-0.45,0.62,-0.15,
1.516,-0.12,0.08,1.04,-0.45,0.62,-0.15,
1.517,-0.12,0.08,1.04,-0.65,0.69,0.10,
1.518,-0.13,0.08,1.05,-0.65,0.69,0.10,
1.521,-0.13,0.08,1.05,-0.65,0.69,0.10,
1.521,-0.13,0.08,1.05,-0.86,0.70,0.32,
1.525,-0.13,0.08,1.05,-0.86,0.70,0.32,
1.526,-0.13,0.08,1.05,-0.94,0.75,0.46,
1.527,-0.13,0.08,1.05,-0.94,0.75,0.46,
1.528,-0.12,0.08,1.05,-0.94,0.75,0.46,
1.531,-0.12,0.08,1.04,-0.94,0.75,0.46,
1.531,-0.12,0.08,1.04,-0.93,0.76,0.47,
1.533,-0.11,0.08,1.04,-0.93,0.76,0.47,
1.536,-0.10,0.07,1.02,-0.93,0.76,0.47,
1.536,-0.10,0.07,1.02,-0.85,0.71,0.42,
1.538,-0.08,0.07,1.01,-0.85,0.71,0.42,
1.542,-0.06,0.08,0.99,-0.85,0.71,0.42,
1.542,-0.06,0.08,0.99,-0.66,0.65,0.24,
1.543,-0.05,0.08,0.98,-0.66,0.65,0.24,
1.546,-0.04,0.08,0.97,-0.66,0.65,0.24,
1.546,-0.04,0.08,0.97,-0.34,0.63,-0.08,
1.548,-0.02,0.07,0.95,-0.34,0.63,-0.08,
1.551,-0.02,0.07,0.95,-0.04,0.60,-0.30,
1.552,-0.01,0.07,0.94,-0.04,0.60,-0.30,
1.553,-0.00,0.07,0.93,-0.04,0.60,-0.30,
1.556,0.00,0.05,0.91,-0.04,0.60,-0.30,
1.556,0.00,0.05,0.91,0.25,0.55,-0.62,
1.567,0.01,0.05,0.90,0.25,0.55,-0.62,
1.568,0.01,0.04,0.89,0.25,0.55,-0.62,
1.568,0.01,0.04,0.89,0.39,0.40,-0.83,
1.569,0.02,0.03,0.89,0.39,0.40,-0.83,
1.569,0.02,0.03,0.88,0.39,0.40,-0.83,
1.57,0.02,0.03,0.88,0.48,0.22,-1.04,
1.57,0.02,0.03,0.87,0.48,0.22,-1.04,
1.571,0.02,0.02,0.86,0.48,0.22,-1.04,
1.572,0.02,0.02,0.86,0.56,0.07,-1.18,
1.585,0.02,0.02,0.87,0.56,0.07,-1.18,
1.586,0.02,0.02,0.87,0.59,0.03,-1.34,
1.587,0.02,0.03,0.88,0.59,0.03,-1.34,
1.587,0.02,0.03,0.87,0.59,0.03,-1.34,
1.588,0.02,0.04,0.87,0.59,0.03,-1.34,
1.588,0.02,0.04,0.87,0.56,0.01,-1.28,
1.588,0.02,0.04,0.88,0.56,0.01,-1.28,
1.589,0.02,0.05,0.89,0.56,0.01,-1.28,
1.59,0.02,0.05,0.89,0.61,0.09,-1.26,
1.591,0.02,0.04,0.90,0.61,0.09,-1.26,
1.591,0.01,0.05,0.91,0.61,0.09,-1.26,
1.591,0.01,0.05,0.91,0.58,0.17,-1.14,
1.595,-0.00,0.05,0.91,0.58,0.17,-1.14,
1.597,-0.01,0.05,0.92,0.58,0.17,-1.14,
1.597,-0.01,0.05,0.92,0.56,0.20,-0.96,
1.598,-0.02,0.05,0.93,0.56,0.20,-0.96,
1.6,-0.02,0.05,0.93,0.36,0.26,-0.83,
1.601,-0.03,0.05,0.93,0.36,0.26,-0.83,
1.603,-0.05,0.05,0.95,0.36,0.26,-0.83,
1.606,-0.05,0.04,0.96,0.36,0.26,-0.83,
1.606,-0.05,0.04,0.96,0.16,0.23,-0.71,
1.608,-0.06,0.04,0.96,0.16,0.23,-0.71,
1.61,-0.07,0.04,0.97,0.16,0.23,-0.71,
1.61,-0.07,0.04,0.97,-0.05,0.21,-0.50,
1.613,-0.07,0.04,0.98,-0.05,0.21,-0.50,
1.615,-0.08,0.04,0.98,-0.05,0.21,-0.50,
1.616,-0.08,0.04,0.98,-0.19,0.15,-0.36,
1.618,-0.08,0.04,0.98,-0.19,0.15,-0.36,
1.62,-0.08,0.04,0.99,-0.19,0.15,-0.36,
1.62,-0.08,0.04,0.99,-0.33,0.13,-0.25,
1.622,-0.08,0.04,0.99,-0.33,0.13,-0.25,
1.625,-0.08,0.04,0.99,-0.40,0.13,-0.18,
1.625,-0.08,0.04,1.00,-0.40,0.13,-0.18,
1.627,-0.08,0.04,1.00,-0.40,0.13,-0.18,
1.63,-0.08,0.05,0.99,-0.40,0.13,-0.18,
1.63,-0.08,0.05,0.99,-0.42,0.18,-0.09,
1.632,-0.08,0.04,0.99,-0.42,0.18,-0.09,
1.635,-0.07,0.04,0.99,-0.42,0.18,-0.09,
1.635,-0.07,0.04,0.99,-0.43,0.21,-0.09,
1.638,-0.07,0.04,0.99,-0.43,0.21,-0.09,
1.64,-0.06,0.04,0.99,-0.43,0.21,-0.09,
1.64,-0.06,0.04,0.99,-0.37,0.18,-0.12,
1.644,-0.05,0.03,0.99,-0.37,0.18,-0.12,
1.647,-0.04,0.04,0.98,-0.37,0.18,-0.12,
1.647,-0.04,0.04,0.98,-0.25,0.15,-0.13,
1.647,-0.03,0.03,0.98,-0.25,0.15,-0.13,
1.65,-0.03,0.03,0.98,-0.07,0.10,-0.16,
1.651,-0.03,0.03,0.98,-0.07,0.10,-0.16,
1.652,-0.01,0.03,0.98,-0.07,0.10,-0.16,
1.655,-0.01,0.02,0.97,-0.07,0.10,-0.16,
1.656,-0.01,0.02,0.97,0.05,0.06,-0.17,
1.658,-0.01,0.02,0.96,0.05,0.06,-0.17,
1.66,-0.00,0.02,0.96,0.05,0.06,-0.17,
1.66,-0.00,0.02,0.96,0.21,0.00,-0.29,
1.662,-0.00,0.01,0.96,0.21,0.00,-0.29,
1.665,-0.01,0.01,0.95,0.21,0.00,-0.29,
1.665,-0.01,0.01,0.95,0.23,-0.05,-0.37,
1.668,-0.01,0.01,0.95,0.23,-0.05,-0.37,
1.67,-0.02,-0.00,0.95,0.23,-0.05,-0.37,
1.67,-0.02,-0.00,0.95,0.23,-0.12,-0.42,
1.672,-0.03,-0.01,0.94,0.23,-0.12,-0.42,
1.676,-0.03,-0.01,0.94,0.14,-0.24,-0.51,
1.676,-0.05,-0.01,0.94,0.14,-0.24,-0.51,
1.677,-0.05,-0.01,0.94,0.14,-0.24,-0.51,
1.68,-0.06,-0.01,0.94,0.14,-0.24,-0.51,
1.68,-0.06,-0.01,0.94,-0.14,-0.32,-0.60,
1.682,-0.07,-0.00,0.94,-0.14,-0.32,-0.60,
1.685,-0.08,0.00,0.93,-0.14,-0.32,-0.60,
1.685,-0.08,0.00,0.93,-0.30,-0.35,-0.61,
1.687,-0.08,0.01,0.94,-0.30,-0.35,-0.61,
1.69,-0.08,0.02,0.93,-0.30,-0.35,-0.61,
1.69,-0.08,0.02,0.93,-0.48,-0.29,-0.65,
1.692,-0.09,0.02,0.93,-0.48,-0.29,-0.65,
1.695,-0.09,0.02,0.93,-0.48,-0.29,-0.65,
1.695,-0.09,0.02,0.93,-0.57,-0.14,-0.61,
1.697,-0.10,0.03,0.93,-0.57,-0.14,-0.61,
1.7,-0.10,0.03,0.93,-0.66,-0.08,-0.67,
1.7,-0.11,0.03,0.94,-0.66,-0.08,-0.67,
1.702,-0.11,0.03,0.94,-0.66,-0.08,-0.67,
1.705,-0.12,0.03,0.94,-0.66,-0.08,-0.67,
1.705,-0.12,0.03,0.94,-0.76,-0.04,-0.63,
1.707,-0.12,0.03,0.93,-0.76,-0.04,-0.63,
1.709,-0.12,0.03,0.93,-0.76,-0.04,-0.63,
1.71,-0.12,0.03,0.93,-0.89,-0.02,-0.62,
1.712,-0.13,0.02,0.93,-0.89,-0.02,-0.62,
1.715,-0.13,0.02,0.92,-0.89,-0.02,-0.62,
1.715,-0.13,0.02,0.92,-0.96,-0.06,-0.66,
1.717,-0.13,0.02,0.91,-0.96,-0.06,-0.66,
1.72,-0.12,0.02,0.91,-0.96,-0.06,-0.66,
1.72,-0.12,0.02,0.91,-1.01,-0.13,-0.74,
1.722,-0.12,0.01,0.90,-1.01,-0.13,-0.74,
1.726,-0.12,0.01,0.89,-1.01,-0.13,-0.74,
1.726,-0.12,0.01,0.89,-0.99,-0.19,-0.89,
1.726,-0.11,0.01,0.88,-0.99,-0.19,-0.89,
1.73,-0.10,0.01,0.87,-0.99,-0.19,-0.89,
1.73,-0.10,0.01,0.87,-0.93,-0.25,-1.02,
1.732,-0.09,0.01,0.86,-0.93,-0.25,-1.02,
1.734,-0.09,0.01,0.85,-0.93,-0.25,-1.02,
1.734,-0.09,0.01,0.85,-0.82,-0.28,-1.20,
1.737,-0.08,0.01,0.85,-0.82,-0.28,-1.20,
1.739,-0.08,0.00,0.85,-0.82,-0.28,-1.20,
1.739,-0.08,0.00,0.85,-0.67,-0.31,-1.40,
1.742,-0.08,0.00,0.85,-0.67,-0.31,-1.40,
1.744,-0.08,0.00,0.84,-0.67,-0.31,-1.40,
1.744,-0.08,0.00,0.84,-0.61,-0.36,-1.47,
1.746,-0.08,-0.00,0.85,-0.61,-0.36,-1.47,
1.749,-0.08,-0.00,0.85,-0.57,-0.40,-1.49,
1.749,-0.08,-0.00,0.85,-0.57,-0.40,-1.49,
1.751,-0.08,-0.01,0.86,-0.57,-0.40,-1.49,
1.754,-0.08,-0.01,0.85,-0.57,-0.40,-1.49,
1.754,-0.08,-0.01,0.85,-0.54,-0.44,-1.45,
1.756,-0.08,-0.01,0.86,-0.54,-0.44,-1.45,
1.764,-0.08,-0.01,0.86,-0.54,-0.44,-1.45,
1.764,-0.08,-0.01,0.86,-0.57,-0.53,-1.41,
1.765,-0.08,-0.01,0.87,-0.57,-0.53,-1.41,
1.765,-0.07,-0.01,0.88,-0.57,-0.53,-1.41,
1.765,-0.07,-0.01,0.88,-0.58,-0.54,-1.35,
1.766,-0.07,-0.02,0.88,-0.58,-0.54,-1.35,
1.768,-0.07,-0.01,0.88,-0.58,-0.54,-1.35,
1.769,-0.07,-0.01,0.88,-0.53,-0.58,-1.23,
1.771,-0.07,-0.02,0.88,-0.53,-0.58,-1.23,
1.778,-0.07,-0.02,0.88,-0.49,-0.61,-1.14,
1.779,-0.07,-0.01,0.88,-0.49,-0.61,-1.14,
1.779,-0.06,-0.01,0.89,-0.49,-0.61,-1.14,
1.779,-0.05,-0.01,0.89,-0.49,-0.61,-1.14,
1.78,-0.05,-0.01,0.89,-0.44,-0.60,-1.10,
1.78,-0.05,-0.01,0.89,-0.44,-0.60,-1.10,
1.783,-0.04,-0.01,0.89,-0.44,-0.60,-1.10,
1.783,-0.04,-0.01,0.89,-0.34,-0.62,-1.04,
1.785,-0.03,-0.01,0.88,-0.34,-0.62,-1.04,
1.788,-0.03,-0.01,0.88,-0.34,-0.62,-1.04,
1.788,-0.03,-0.01,0.88,-0.20,-0.60,-1.04,
1.791,-0.03,-0.01,0.89,-0.20,-0.60,-1.04,
1.793,-0.03,-0.01,0.88,-0.20,-0.60,-1.04,
1.793,-0.03,-0.01,0.88,-0.09,-0.61,-1.09,
1.795,-0.04,-0.01,0.87,-0.09,-0.61,-1.09,
1.798,-0.04,-0.01,0.87,-0.06,-0.61,-1.11,
1.798,-0.04,-0.01,0.87,-0.06,-0.61,-1.11,
1.8,-0.05,-0.01,0.87,-0.06,-0.61,-1.11,
1.803,-0.06,-0.00,0.87,-0.06,-0.61,-1.11,
1.804,-0.06,-0.00,0.87,-0.17,-0.57,-1.24,
1.805,-0.06,0.00,0.87,-0.17,-0.57,-1.24,
1.808,-0.07,0.00,0.87,-0.17,-0.57,-1.24,
1.813,-0.07,0.00,0.87,-0.29,-0.57,-1.21,
1.814,-0.09,0.01,0.87,-0.29,-0.57,-1.21,
1.814,-0.09,0.01,0.88,-0.29,-0.57,-1.21,
1.814,-0.09,0.01,0.88,-0.47,-0.50,-1.19,
1.815,-0.10,0.01,0.87,-0.47,-0.50,-1.19,
1.819,-0.11,0.01,0.87,-0.47,-0.50,-1.19,
1.819,-0.11,0.01,0.87,-0.67,-0.45,-1.15,
1.821,-0.10,0.02,0.88,-0.67,-0.45,-1.15,
1.824,-0.10,0.02,0.88,-0.81,-0.40,-1.20,
1.824,-0.11,0.03,0.88,-0.81,-0.40,-1.20,
1.826,-0.11,0.03,0.88,-0.81,-0.40,-1.20,
1.828,-0.10,0.04,0.89,-0.81,-0.40,-1.20,
1.828,-0.10,0.04,0.89,-0.87,-0.27,-1.13,
1.831,-0.10,0.04,0.89,-0.87,-0.27,-1.13,
1.833,-0.10,0.04,0.89,-0.87,-0.27,-1.13,
1.834,-0.10,0.04,0.89,-0.84,-0.17,-1.09,
1.836,-0.09,0.04,0.89,-0.84,-0.17,-1.09,
1.838,-0.09,0.04,0.89,-0.84,-0.17,-1.09,
1.839,-0.09,0.04,0.89,-0.77,-0.10,-1.03,
1.841,-0.09,0.04,0.90,-0.77,-0.10,-1.03,
1.843,-0.08,0.03,0.91,-0.77,-0.10,-1.03,
1.843,-0.08,0.03,0.91,-0.72,-0.09,-0.99,
1.845,-0.07,0.04,0.91,-0.72,-0.09,-0.99,
1.848,-0.07,0.04,0.91,-0.69,-0.16,-0.87,
1.848,-0.07,0.03,0.91,-0.69,-0.16,-0.87,
1.851,-0.07,0.03,0.92,-0.69,-0.16,-0.87,
1.855,-0.06,0.03,0.92,-0.69,-0.16,-0.87,
1.856,-0.06,0.03,0.92,-0.55,-0.19,-0.81,
1.856,-0.06,0.03,0.93,-0.55,-0.19,-0.81,
1.864,-0.05,0.03,0.93,-0.55,-0.19,-0.81,
1.869,-0.05,0.03,0.93,-0.51,-0.24,-0.69,
1.87,-0.05,0.03,0.93,-0.51,-0.24,-0.69,
1.87,-0.05,0.03,0.93,-0.40,-0.24,-0.64,
1.87,-0.05,0.03,0.93,-0.40,-0.24,-0.64,
1.871,-0.05,0.03,0.94,-0.40,-0.24,-0.64,
1.871,-0.05,0.03,0.95,-0.40,-0.24,-0.64,
1.871,-0.05,0.03,0.95,-0.37,-0.24,-0.61,
1.872,-0.06,0.04,0.96,-0.37,-0.24,-0.61,
1.873,-0.06,0.04,0.96,-0.37,-0.21,-0.50,
1.873,-0.07,0.05,0.96,-0.37,-0.21,-0.50,
1.875,-0.07,0.05,0.97,-0.37,-0.21,-0.50,
1.881,-0.08,0.06,0.98,-0.37,-0.21,-0.50,
1.881,-0.08,0.06,0.98,-0.51,-0.08,-0.32,
1.881,-0.09,0.06,0.99,-0.51,-0.08,-0.32,
1.883,-0.10,0.07,0.99,-0.51,-0.08,-0.32,
1.883,-0.10,0.07,0.99,-0.65,0.03,-0.17,
1.885,-0.10,0.08,0.99,-0.65,0.03,-0.17,
1.888,-0.10,0.08,0.99,-0.65,0.03,-0.17,
1.888,-0.10,0.08,0.99,-0.79,0.13,-0.04,
1.89,-0.11,0.09,1.00,-0.79,0.13,-0.04,
1.893,-0.11,0.09,1.00,-0.79,0.13,-0.04,
1.893,-0.11,0.09,1.00,-0.88,0.23,-0.00,
1.895,-0.11,0.10,0.99,-0.88,0.23,-0.00,
1.898,-0.11,0.10,0.99,-0.97,0.27,0.06,
1.898,-0.12,0.10,0.99,-0.97,0.27,0.06,
1.9,-0.12,0.10,0.99,-0.97,0.27,0.06,
1.903,-0.12,0.10,0.98,-0.97,0.27,0.06,
1.903,-0.12,0.10,0.98,-1.02,0.34,0.02,
1.905,-0.12,0.09,0.96,-1.02,0.34,0.02,
1.907,-0.11,0.10,0.95,-1.02,0.34,0.02,
1.908,-0.11,0.10,0.95,-1.07,0.33,-0.11,
1.909,-0.11,0.10,0.94,-1.07,0.33,-0.11,
1.912,-0.10,0.10,0.94,-1.07,0.33,-0.11,
1.912,-0.10,0.10,0.94,-1.03,0.28,-0.33,
1.915,-0.09,0.09,0.92,-1.03,0.28,-0.33,
1.918,-0.09,0.09,0.91,-1.03,0.28,-0.33,
1.918,-0.09,0.09,0.91,-0.92,0.27,-0.52,
1.92,-0.08,0.09,0.91,-0.92,0.27,-0.52,
1.923,-0.08,0.09,0.91,-0.81,0.19,-0.71,
1.923,-0.07,0.08,0.90,-0.81,0.19,-0.71,
1.925,-0.07,0.08,0.90,-0.81,0.19,-0.71,
1.927,-0.06,0.08,0.90,-0.81,0.19,-0.71,
1.927,-0.06,0.08,0.90,-0.68,0.14,-0.85,
1.929,-0.06,0.07,0.89,-0.68,0.14,-0.85,
1.933,-0.05,0.07,0.87,-0.68,0.14,-0.85,
1.933,-0.05,0.07,0.87,-0.59,0.02,-0.93,
1.935,-0.04,0.06,0.85,-0.59,0.02,-0.93,
1.937,-0.03,0.06,0.84,-0.59,0.02,-0.93,
1.938,-0.03,0.06,0.84,-0.47,-0.09,-1.07,
1.94,-0.02,0.06,0.82,-0.47,-0.09,-1.07,
1.947,-0.02,0.06,0.80,-0.47,-0.09,-1.07,
1.947,-0.02,0.06,0.80,-0.29,-0.24,-1.41,
1.947,-0.02,0.07,0.79,-0.29,-0.24,-1.41,
1.948,-0.02,0.07,0.79,-0.15,-0.20,-1.79,
1.948,-0.00,0.07,0.80,-0.15,-0.20,-1.79,
1.949,-0.00,0.07,0.81,-0.15,-0.20,-1.79,
1.954,0.00,0.06,0.83,-0.15,-0.20,-1.79,
1.954,0.00,0.06,0.83,-0.06,-0.16,-1.92,
1.954,0.01,0.05,0.86,-0.06,-0.16,-1.92,
1.956,0.01,0.05,0.89,-0.06,-0.16,-1.92,
1.957,0.01,0.05,0.89,0.06,-0.21,-1.63,
1.959,-0.00,0.04,0.92,0.06,-0.21,-1.63,
1.962,-0.01,0.04,0.95,0.06,-0.21,-1.63,
1.962,-0.01,0.04,0.95,0.17,-0.32,-1.13,
1.964,-0.02,0.04,0.97,0.17,-0.32,-1.13,
1.967,-0.02,0.04,1.00,0.17,-0.32,-1.13,
1.967,-0.02,0.04,1.00,0.06,-0.41,-0.55,
1.969,-0.03,0.05,1.02,0.06,-0.41,-0.55,
1.972,-0.03,0.05,1.04,0.06,-0.41,-0.55,
1.972,-0.03,0.05,1.04,-0.04,-0.40,0.01,
1.974,-0.02,0.05,1.05,-0.04,-0.40,0.01,
1.977,-0.02,0.05,1.05,-0.04,-0.40,0.01,
1.977,-0.02,0.05,1.05,-0.09,-0.36,0.45,
1.978,-0.01,0.06,1.05,-0.09,-0.36,0.45,
1.981,-0.02,0.05,1.04,-0.09,-0.36,0.45,
1.981,-0.02,0.05,1.04,-0.02,-0.31,0.61,
1.984,-0.02,0.05,1.03,-0.02,-0.31,0.61,
1.987,-0.03,0.05,1.03,-0.02,-0.31,0.61,
1.987,-0.03,0.05,1.03,0.05,-0.27,0.54,
1.989,-0.04,0.05,1.02,0.05,-0.27,0.54,
1.991,-0.05,0.04,1.02,0.05,-0.27,0.54,
1.992,-0.05,0.04,1.02,-0.08,-0.30,0.42,
1.994,-0.05,0.04,1.01,-0.08,-0.30,0.42,
1.996,-0.05,0.04,1.01,-0.22,-0.38,0.28,
1.997,-0.05,0.04,1.01,-0.22,-0.38,0.28,
1.998,-0.05,0.03,1.00,-0.22,-0.38,0.28,
2.002,-0.04,0.03,1.00,-0.22,-0.38,0.28,
2.002,-0.04,0.03,1.00,-0.28,-0.43,0.17,
2.004,-0.04,0.02,0.99,-0.28,-0.43,0.17,
2.006,-0.04,0.02,1.00,-0.28,-0.43,0.17,
2.007,-0.04,0.02,1.00,-0.25,-0.50,0.12,
2.009,-0.04,0.02,1.00,-0.25,-0.50,0.12,
2.011,-0.03,0.03,0.99,-0.25,-0.50,0.12,
2.011,-0.03,0.03,0.99,-0.17,-0.58,0.06,
2.013,-0.02,0.03,1.00,-0.17,-0.58,0.06,
2.016,-0.02,0.03,1.00,-0.17,-0.58,0.06,
2.016,-0.02,0.03,1.00,-0.15,-0.53,0.05,
2.019,-0.01,0.03,1.00,-0.15,-0.53,0.05,
2.021,-0.01,0.03,1.00,-0.02,-0.47,0.05,
2.022,0.00,0.02,0.99,-0.02,-0.47,0.05,
2.024,0.01,0.01,1.00,-0.02,-0.47,0.05,
2.031,0.01,0.02,1.00,-0.02,-0.47,0.05,
2.031,0.01,0.02,1.00,0.12,-0.53,0.04,
2.031,0.01,0.02,0.99,0.12,-0.53,0.04,
2.032,0.01,0.02,1.00,0.12,-0.53,0.04,
2.032,0.01,0.02,1.00,0.23,-0.57,0.08,
2.035,0.01,0.03,1.00,0.23,-0.57,0.08,
2.036,0.01,0.03,1.00,0.23,-0.57,0.08,
2.037,0.01,0.03,1.00,0.26,-0.54,0.05,
2.038,0.01,0.03,1.00,0.26,-0.54,0.05,
2.041,0.00,0.04,1.01,0.26,-0.54,0.05,
2.041,0.00,0.04,1.01,0.22,-0.42,0.09,
2.047,-0.00,0.04,1.02,0.22,-0.42,0.09,
2.047,-0.00,0.04,1.02,0.16,-0.35,0.14,
2.047,-0.01,0.04,1.03,0.16,-0.35,0.14,
2.048,-0.02,0.05,1.04,0.16,-0.35,0.14,
