
time,gFx,gFy,gFz,ax,ay,az,
0.008,-0.01,-0.00,1.00,-0.14,0.30,-0.96,
0.008,-0.01,-0.00,1.00,-0.36,0.30,-0.46,
0.008,-0.02,0.00,1.04,-0.36,0.30,-0.46,
0.009,-0.02,0.00,1.06,-0.36,0.30,-0.46,
0.009,-0.02,0.00,1.07,-0.36,0.30,-0.46,
0.009,-0.02,0.00,1.07,-0.44,0.34,0.17,
0.009,-0.03,0.00,1.10,-0.44,0.34,0.17,
0.01,-0.03,-0.00,1.10,-0.44,0.34,0.17,
0.01,-0.03,-0.00,1.10,-0.49,0.36,0.61,
0.01,-0.02,-0.00,1.10,-0.49,0.36,0.61,
0.013,-0.02,-0.00,1.10,-0.53,0.36,0.94,
0.013,-0.02,-0.01,1.11,-0.53,0.36,0.94,
0.015,-0.01,-0.01,1.11,-0.53,0.36,0.94,
0.023,-0.01,-0.02,1.11,-0.53,0.36,0.94,
0.023,-0.01,-0.02,1.11,-0.43,0.30,0.94,
0.023,-0.00,-0.02,1.11,-0.43,0.30,0.94,
0.023,-0.00,-0.02,1.11,-0.43,0.30,0.94,
0.023,-0.00,-0.02,1.11,-0.38,0.21,1.01,
0.024,0.01,-0.02,1.11,-0.38,0.21,1.01,
0.027,0.00,-0.02,1.11,-0.38,0.21,1.01,
0.028,0.00,-0.02,1.11,-0.28,0.16,0.98,
0.03,0.01,-0.01,1.11,-0.28,0.16,0.98,
0.032,0.02,-0.01,1.11,-0.28,0.16,0.98,
0.033,0.02,-0.01,1.11,-0.21,0.19,1.01,
0.041,0.02,-0.01,1.11,-0.21,0.19,1.01,
0.041,0.02,-0.01,1.11,-0.13,0.23,0.96,
0.041,0.02,-0.01,1.11,-0.13,0.23,0.96,
0.042,0.03,-0.01,1.11,-0.13,0.23,0.96,
0.042,0.04,-0.00,1.11,-0.13,0.23,0.96,
0.042,0.04,-0.00,1.11,-0.05,0.27,0.95,
0.045,0.04,-0.00,1.12,-0.05,0.27,0.95,
0.047,0.05,-0.01,1.12,-0.05,0.27,0.95,
0.047,0.05,-0.01,1.12,0.06,0.30,0.96,
0.049,0.05,-0.01,1.13,0.06,0.30,0.96,
0.059,0.05,-0.02,1.13,0.06,0.30,0.96,
0.059,0.05,-0.02,1.13,0.15,0.27,1.07,
0.06,0.05,-0.03,1.12,0.15,0.27,1.07,
0.06,0.05,-0.04,1.12,0.15,0.27,1.07,
0.06,0.05,-0.04,1.12,0.19,0.15,1.15,
0.06,0.05,-0.04,1.12,0.19,0.15,1.15,
0.062,0.05,-0.04,1.12,0.19,-0.01,1.07,
0.063,0.04,-0.05,1.12,0.19,-0.01,1.07,
0.065,0.05,-0.05,1.11,0.19,-0.01,1.07,
0.074,0.05,-0.06,1.11,0.19,-0.01,1.07,
0.074,0.05,-0.06,1.11,0.17,-0.14,1.04,
0.075,0.05,-0.06,1.11,0.17,-0.14,1.04,
0.075,0.06,-0.06,1.10,0.17,-0.14,1.04,
0.075,0.06,-0.06,1.10,0.22,-0.26,0.94,
0.075,0.06,-0.06,1.09,0.22,-0.26,0.94,
0.077,0.06,-0.06,1.10,0.22,-0.26,0.94,
0.078,0.06,-0.06,1.10,0.29,-0.34,0.85,
0.079,0.07,-0.05,1.09,0.29,-0.34,0.85,
0.082,0.08,-0.05,1.08,0.29,-0.34,0.85,
0.082,0.08,-0.05,1.08,0.35,-0.33,0.81,
0.09,0.08,-0.05,1.07,0.35,-0.33,0.81,
0.091,0.08,-0.05,1.07,0.46,-0.31,0.70,
0.091,0.08,-0.05,1.07,0.46,-0.31,0.70,
0.091,0.08,-0.04,1.06,0.46,-0.31,0.70,
0.092,0.09,-0.03,1.05,0.46,-0.31,0.70,
0.092,0.09,-0.03,1.05,0.50,-0.28,0.54,
0.093,0.09,-0.03,1.04,0.50,-0.28,0.54,
0.096,0.09,-0.03,1.03,0.50,-0.28,0.54,
0.096,0.09,-0.03,1.03,0.58,-0.17,0.38,
0.099,0.09,-0.03,1.02,0.58,-0.17,0.38,
0.108,0.09,-0.02,1.01,0.58,-0.17,0.38,
0.109,0.09,-0.02,1.01,0.62,-0.15,0.18,
0.109,0.08,-0.02,1.00,0.62,-0.15,0.18,
0.11,0.09,-0.02,0.99,0.62,-0.15,0.18,
0.11,0.09,-0.02,0.99,0.61,-0.10,-0.02,
0.11,0.09,-0.02,0.98,0.61,-0.10,-0.02,
0.111,0.09,-0.02,0.98,0.56,-0.13,-0.24,
0.111,0.09,-0.02,0.97,0.56,-0.13,-0.24,
0.113,0.08,-0.02,0.97,0.56,-0.13,-0.24,
0.124,0.08,-0.02,0.96,0.56,-0.13,-0.24,
0.125,0.08,-0.02,0.96,0.59,-0.12,-0.41,
0.125,0.08,-0.02,0.96,0.59,-0.12,-0.41,
0.125,0.07,-0.03,0.96,0.59,-0.12,-0.41,
0.125,0.07,-0.03,0.96,0.56,-0.13,-0.52,
0.126,0.06,-0.02,0.97,0.56,-0.13,-0.52,
0.126,0.05,-0.02,0.97,0.56,-0.13,-0.52,
0.126,0.05,-0.02,0.97,0.49,-0.18,-0.53,
0.128,0.05,-0.02,0.97,0.49,-0.18,-0.53,
0.131,0.04,-0.03,0.98,0.49,-0.18,-0.53,
0.131,0.04,-0.03,0.98,0.33,-0.17,-0.47,
0.138,0.03,-0.03,0.99,0.33,-0.17,-0.47,
0.139,0.03,-0.03,0.99,0.19,-0.19,-0.39,
0.139,0.02,-0.03,0.99,0.19,-0.19,-0.39,
0.139,0.03,-0.03,1.00,0.19,-0.19,-0.39,
0.141,0.03,-0.03,1.00,0.02,-0.22,-0.25,
0.141,0.03,-0.02,1.00,0.02,-0.22,-0.25,
0.143,0.03,-0.02,1.01,0.02,-0.22,-0.25,
0.146,0.04,-0.02,1.01,0.02,-0.22,-0.25,
0.147,0.04,-0.02,1.01,0.04,-0.17,-0.16,
0.148,0.04,-0.01,1.01,0.04,-0.17,-0.16,
0.154,0.05,-0.01,1.02,0.04,-0.17,-0.16,
0.155,0.05,-0.01,1.02,0.12,-0.14,-0.09,
0.155,0.06,-0.01,1.01,0.12,-0.14,-0.09,
0.155,0.07,0.00,1.02,0.12,-0.14,-0.09,
0.156,0.07,0.00,1.02,0.20,-0.04,-0.00,
0.158,0.08,0.00,1.02,0.20,-0.04,-0.00,
0.161,0.08,0.00,1.02,0.38,0.01,0.00,
0.161,0.08,0.00,1.02,0.38,0.01,0.00,
0.163,0.09,0.01,1.02,0.38,0.01,0.00,
0.166,0.10,0.01,1.01,0.38,0.01,0.00,
0.166,0.10,0.01,1.01,0.53,0.06,0.05,
0.178,0.09,0.01,1.01,0.53,0.06,0.05,
0.179,0.09,0.01,1.01,0.53,0.06,0.05,
0.179,0.09,0.01,1.01,0.66,0.10,-0.02,
0.179,0.09,0.01,1.00,0.66,0.10,-0.02,
0.179,0.09,0.01,1.00,0.66,0.10,-0.02,
0.179,0.09,0.01,1.00,0.68,0.08,-0.08,
0.18,0.10,0.02,0.99,0.68,0.08,-0.08,
0.181,0.10,0.01,0.97,0.68,0.08,-0.08,
0.181,0.10,0.01,0.97,0.68,0.13,-0.17,
0.183,0.09,0.02,0.97,0.68,0.13,-0.17,
0.19,0.09,0.02,0.97,0.72,0.16,-0.35,
0.19,0.09,0.02,0.96,0.72,0.16,-0.35,
0.19,0.09,0.03,0.96,0.72,0.16,-0.35,
0.191,0.09,0.03,0.96,0.72,0.16,-0.35,
0.191,0.09,0.03,0.96,0.68,0.20,-0.47,
0.193,0.09,0.03,0.94,0.68,0.20,-0.47,
0.196,0.09,0.03,0.94,0.68,0.20,-0.47,
0.196,0.09,0.03,0.94,0.67,0.26,-0.56,
0.198,0.10,0.04,0.92,0.67,0.26,-0.56,
0.208,0.10,0.04,0.93,0.67,0.26,-0.56,
0.208,0.10,0.04,0.93,0.72,0.28,-0.72,
0.208,0.10,0.05,0.93,0.72,0.28,-0.72,
0.209,0.11,0.04,0.92,0.72,0.28,-0.72,
0.209,0.11,0.04,0.92,0.79,0.32,-0.84,
0.209,0.10,0.04,0.92,0.79,0.32,-0.84,
0.211,0.10,0.04,0.92,0.85,0.39,-0.83,
0.211,0.10,0.04,0.92,0.85,0.39,-0.83,
0.213,0.10,0.04,0.92,0.85,0.39,-0.83,
0.216,0.10,0.04,0.92,0.85,0.39,-0.83,
0.216,0.10,0.04,0.92,0.86,0.37,-0.91,
0.223,0.10,0.04,0.92,0.86,0.37,-0.91,
0.223,0.10,0.03,0.92,0.86,0.37,-0.91,
0.223,0.10,0.03,0.92,0.86,0.31,-0.88,
0.224,0.10,0.03,0.91,0.86,0.31,-0.88,
0.226,0.10,0.02,0.91,0.86,0.31,-0.88,
0.226,0.10,0.02,0.91,0.82,0.27,-0.90,
0.228,0.10,0.02,0.92,0.82,0.27,-0.90,
0.23,0.10,0.02,0.92,0.82,0.27,-0.90,
0.231,0.10,0.02,0.92,0.82,0.18,-0.94,
0.233,0.11,0.02,0.93,0.82,0.18,-0.94,
0.238,0.11,0.02,0.93,0.85,0.09,-0.85,
0.239,0.10,0.02,0.93,0.85,0.09,-0.85,
0.239,0.10,0.01,0.94,0.85,0.09,-0.85,
0.24,0.10,0.01,0.94,0.88,0.07,-0.78,
0.241,0.10,0.01,0.94,0.88,0.07,-0.78,
0.243,0.11,0.00,0.94,0.88,0.07,-0.78,
0.245,0.12,-0.00,0.95,0.88,0.07,-0.78,
0.246,0.12,-0.00,0.95,0.86,-0.00,-0.66,
0.248,0.12,-0.01,0.96,0.86,-0.00,-0.66,
0.254,0.13,-0.01,0.96,0.86,-0.00,-0.66,
0.255,0.13,-0.01,0.96,0.95,-0.07,-0.62,
0.255,0.13,-0.02,0.97,0.95,-0.07,-0.62,
0.255,0.13,-0.02,0.97,1.03,-0.14,-0.47,
0.256,0.14,-0.02,0.98,1.03,-0.14,-0.47,
0.258,0.16,-0.02,0.98,1.03,-0.14,-0.47,
0.26,0.16,-0.03,0.99,1.03,-0.14,-0.47,
0.261,0.16,-0.03,0.99,1.17,-0.23,-0.28,
0.262,0.17,-0.03,0.99,1.17,-0.23,-0.28,
0.265,0.18,-0.03,1.00,1.17,-0.23,-0.28,
0.265,0.18,-0.03,1.00,1.36,-0.30,-0.18,
0.267,0.19,-0.04,1.00,1.36,-0.30,-0.18,
0.277,0.20,-0.04,1.00,1.36,-0.30,-0.18,
0.277,0.20,-0.04,1.00,1.48,-0.37,-0.11,
0.277,0.20,-0.04,1.00,1.48,-0.37,-0.11,
0.278,0.21,-0.04,1.00,1.48,-0.37,-0.11,
0.278,0.21,-0.04,1.00,1.63,-0.41,-0.04,
0.278,0.21,-0.04,0.99,1.63,-0.41,-0.04,
0.281,0.21,-0.04,0.99,1.63,-0.41,-0.04,
0.281,0.21,-0.04,0.99,1.73,-0.41,-0.08,
0.282,0.22,-0.04,0.98,1.73,-0.41,-0.08,
0.291,0.22,-0.04,0.98,1.79,-0.43,-0.15,
0.291,0.22,-0.04,0.98,1.79,-0.43,-0.15,
0.292,0.22,-0.05,0.97,1.79,-0.43,-0.15,
0.292,0.22,-0.04,0.96,1.79,-0.43,-0.15,
0.292,0.22,-0.04,0.96,1.81,-0.44,-0.25,
0.292,0.22,-0.04,0.95,1.81,-0.44,-0.25,
0.294,0.22,-0.04,0.94,1.81,-0.44,-0.25,
0.294,0.22,-0.04,0.94,1.79,-0.48,-0.40,
0.296,0.22,-0.05,0.93,1.79,-0.48,-0.40,
0.299,0.22,-0.04,0.92,1.79,-0.48,-0.40,
0.299,0.22,-0.04,0.92,1.76,-0.47,-0.60,
0.309,0.21,-0.04,0.92,1.76,-0.47,-0.60,
0.31,0.20,-0.04,0.92,1.76,-0.47,-0.60,
0.31,0.20,-0.04,0.92,1.76,-0.49,-0.76,
0.31,0.20,-0.03,0.92,1.76,-0.49,-0.76,
0.31,0.20,-0.03,0.92,1.62,-0.45,-0.81,
0.31,0.19,-0.03,0.91,1.62,-0.45,-0.81,
0.311,0.17,-0.03,0.92,1.62,-0.45,-0.81,
0.314,0.16,-0.03,0.92,1.62,-0.45,-0.81,
0.314,0.16,-0.03,0.92,1.48,-0.38,-0.89,
0.324,0.15,-0.03,0.92,1.48,-0.38,-0.89,
0.325,0.14,-0.03,0.92,1.48,-0.38,-0.89,
0.325,0.14,-0.03,0.92,1.21,-0.38,-0.84,
0.325,0.13,-0.03,0.92,1.21,-0.38,-0.84,
0.326,0.13,-0.03,0.92,1.21,-0.38,-0.84,
0.328,0.13,-0.03,0.92,1.01,-0.38,-0.81,
0.328,0.13,-0.03,0.92,1.01,-0.38,-0.81,
0.329,0.13,-0.03,0.92,1.01,-0.38,-0.81,
0.329,0.13,-0.03,0.92,0.88,-0.40,-0.78,
0.331,0.13,-0.03,0.92,0.88,-0.40,-0.78,
0.339,0.13,-0.03,0.92,0.85,-0.40,-0.77,
0.34,0.14,-0.03,0.92,0.85,-0.40,-0.77,
0.34,0.14,-0.03,0.93,0.85,-0.40,-0.77,
0.34,0.14,-0.02,0.93,0.85,-0.40,-0.77,
0.341,0.14,-0.02,0.93,0.87,-0.41,-0.77,
0.341,0.15,-0.02,0.93,0.87,-0.41,-0.77,
0.344,0.15,-0.02,0.93,0.87,-0.41,-0.77,
0.344,0.15,-0.02,0.93,0.94,-0.37,-0.74,
0.346,0.15,-0.03,0.93,0.94,-0.37,-0.74,
0.349,0.16,-0.03,0.92,0.94,-0.37,-0.74,
0.349,0.16,-0.03,0.92,1.02,-0.37,-0.72,
0.355,0.17,-0.03,0.93,1.02,-0.37,-0.72,
0.356,0.17,-0.03,0.92,1.02,-0.37,-0.72,
0.356,0.17,-0.03,0.92,1.13,-0.41,-0.71,
0.356,0.17,-0.04,0.92,1.13,-0.41,-0.71,
0.359,0.17,-0.04,0.92,1.23,-0.46,-0.77,
0.359,0.17,-0.04,0.92,1.23,-0.46,-0.77,
0.361,0.18,-0.04,0.91,1.23,-0.46,-0.77,
0.363,0.18,-0.04,0.91,1.23,-0.46,-0.77,
0.364,0.18,-0.04,0.91,1.24,-0.56,-0.78,
0.366,0.18,-0.04,0.91,1.24,-0.56,-0.78,
0.374,0.18,-0.03,0.90,1.24,-0.56,-0.78,
0.374,0.18,-0.03,0.90,1.29,-0.56,-0.87,
0.375,0.18,-0.04,0.89,1.29,-0.56,-0.87,
0.375,0.19,-0.03,0.89,1.29,-0.56,-0.87,
0.375,0.19,-0.03,0.89,1.30,-0.53,-0.96,
0.376,0.19,-0.02,0.88,1.30,-0.53,-0.96,
0.379,0.18,-0.02,0.89,1.30,-0.53,-0.96,
0.379,0.18,-0.02,0.89,1.36,-0.50,-1.08,
0.38,0.18,-0.01,0.89,1.36,-0.50,-1.08,
0.383,0.18,-0.01,0.89,1.31,-0.39,-1.07,
0.383,0.17,-0.00,0.88,1.31,-0.39,-1.07,
0.395,0.16,-0.00,0.88,1.31,-0.39,-1.07,
0.396,0.15,-0.00,0.88,1.31,-0.39,-1.07,
0.396,0.15,-0.00,0.88,1.20,-0.25,-1.12,
0.396,0.13,0.00,0.88,1.20,-0.25,-1.12,
0.396,0.13,-0.00,0.88,1.20,-0.25,-1.12,
0.396,0.13,-0.00,0.88,0.96,-0.19,-1.14,
0.397,0.12,0.01,0.88,0.96,-0.19,-1.14,
0.398,0.12,0.01,0.87,0.96,-0.19,-1.14,
0.398,0.12,0.01,0.87,0.76,-0.17,-1.18,
0.401,0.10,0.01,0.86,0.76,-0.17,-1.18,
0.409,0.09,0.01,0.86,0.76,-0.17,-1.18,
0.41,0.09,0.01,0.86,0.62,-0.12,-1.23,
0.41,0.08,0.01,0.86,0.62,-0.12,-1.23,
0.41,0.08,0.01,0.86,0.38,-0.14,-1.31,
0.411,0.07,0.01,0.85,0.38,-0.14,-1.31,
0.411,0.06,0.01,0.84,0.38,-0.14,-1.31,
0.414,0.05,0.01,0.84,0.38,-0.14,-1.31,
0.414,0.05,0.01,0.84,0.18,-0.15,-1.37,
0.415,0.03,-0.00,0.84,0.18,-0.15,-1.37,
0.425,0.03,0.00,0.84,0.18,-0.15,-1.37,
0.426,0.03,0.00,0.84,-0.07,-0.16,-1.53,
0.426,0.03,0.01,0.83,-0.07,-0.16,-1.53,
0.426,0.02,0.00,0.83,-0.07,-0.16,-1.53,
0.427,0.02,0.00,0.83,-0.28,-0.23,-1.51,
0.427,0.01,0.00,0.84,-0.28,-0.23,-1.51,
0.428,0.01,0.00,0.83,-0.28,-0.23,-1.51,
0.428,0.01,0.00,0.83,-0.35,-0.22,-1.59,
0.43,0.01,0.01,0.83,-0.35,-0.22,-1.59,
0.433,0.01,0.01,0.83,-0.43,-0.24,-1.52,
0.433,0.01,0.02,0.83,-0.43,-0.24,-1.52,
0.44,0.01,0.02,0.84,-0.43,-0.24,-1.52,
0.441,0.01,0.02,0.85,-0.43,-0.24,-1.52,
0.441,0.01,0.02,0.85,-0.44,-0.17,-1.58,
0.441,0.01,0.03,0.86,-0.44,-0.17,-1.58,
0.443,0.02,0.03,0.86,-0.44,-0.17,-1.58,
0.443,0.02,0.03,0.86,-0.42,-0.10,-1.45,
0.445,0.02,0.03,0.87,-0.42,-0.10,-1.45,
0.447,0.02,0.03,0.87,-0.42,-0.10,-1.45,
0.448,0.02,0.03,0.87,-0.38,-0.05,-1.30,
0.45,0.02,0.03,0.87,-0.38,-0.05,-1.30,
0.456,0.01,0.03,0.88,-0.38,-0.05,-1.30,
0.456,0.01,0.03,0.88,-0.37,-0.01,-1.21,
0.457,0.00,0.04,0.88,-0.37,-0.01,-1.21,
0.458,0.00,0.04,0.88,-0.37,-0.00,-1.12,
0.458,0.00,0.04,0.88,-0.37,-0.00,-1.12,
0.46,-0.00,0.04,0.88,-0.37,-0.00,-1.12,
0.464,-0.01,0.04,0.87,-0.37,-0.00,-1.12,
0.464,-0.01,0.04,0.87,-0.49,0.03,-1.10,
0.465,-0.02,0.03,0.88,-0.49,0.03,-1.10,
0.474,-0.04,0.03,0.87,-0.49,0.03,-1.10,
0.474,-0.04,0.03,0.87,-0.59,0.01,-1.08,
0.474,-0.05,0.04,0.87,-0.59,0.01,-1.08,
0.475,-0.06,0.03,0.86,-0.59,0.01,-1.08,
0.475,-0.06,0.03,0.86,-0.84,-0.04,-1.13,
0.475,-0.07,0.04,0.86,-0.84,-0.04,-1.13,
0.478,-0.07,0.05,0.86,-0.84,-0.04,-1.13,
0.478,-0.07,0.05,0.86,-1.06,-0.02,-1.19,
0.48,-0.08,0.05,0.85,-1.06,-0.02,-1.19,
0.482,-0.08,0.05,0.85,-1.27,0.07,-1.23,
0.482,-0.08,0.05,0.84,-1.27,0.07,-1.23,
0.497,-0.08,0.06,0.83,-1.27,0.07,-1.23,
0.498,-0.09,0.07,0.83,-1.27,0.07,-1.23,
0.498,-0.09,0.07,0.83,-1.38,0.12,-1.37,
0.5,-0.10,0.07,0.81,-1.38,0.12,-1.37,
0.501,-0.10,0.08,0.81,-1.38,0.12,-1.37,
0.501,-0.10,0.08,0.81,-1.46,0.23,-1.53,
0.501,-0.10,0.07,0.80,-1.46,0.23,-1.53,
0.502,-0.11,0.08,0.79,-1.46,0.23,-1.53,
0.503,-0.11,0.08,0.79,-1.60,0.30,-1.71,
0.503,-0.11,0.08,0.79,-1.60,0.30,-1.71,
0.503,-0.11,0.07,0.78,-1.60,0.30,-1.71,
0.504,-0.11,0.07,0.78,-1.67,0.34,-1.83,
0.509,-0.11,0.07,0.78,-1.67,0.34,-1.83,
0.51,-0.12,0.07,0.78,-1.67,0.34,-1.83,
0.511,-0.12,0.07,0.78,-1.74,0.32,-1.93,
0.512,-0.12,0.07,0.77,-1.74,0.32,-1.93,
0.512,-0.12,0.07,0.78,-1.74,0.32,-1.93,
0.512,-0.12,0.07,0.78,-1.79,0.29,-1.98,
0.514,-0.13,0.07,0.78,-1.79,0.29,-1.98,
0.518,-0.13,0.06,0.78,-1.79,0.29,-1.98,
0.518,-0.13,0.06,0.78,-1.85,0.23,-2.02,
0.527,-0.15,0.06,0.79,-1.85,0.23,-2.02,
0.527,-0.15,0.05,0.80,-1.85,0.23,-2.02,
0.528,-0.15,0.05,0.80,-1.95,0.19,-1.92,
0.528,-0.16,0.05,0.81,-1.95,0.19,-1.92,
0.528,-0.17,0.04,0.81,-1.95,0.19,-1.92,
0.528,-0.17,0.04,0.81,-2.12,0.08,-1.81,
0.53,-0.18,0.03,0.82,-2.12,0.08,-1.81,
0.532,-0.18,0.03,0.82,-2.27,-0.05,-1.65,
0.533,-0.18,0.03,0.82,-2.27,-0.05,-1.65,
0.534,-0.18,0.03,0.83,-2.27,-0.05,-1.65,
0.541,-0.18,0.03,0.84,-2.27,-0.05,-1.65,
0.542,-0.18,0.03,0.84,-2.34,-0.14,-1.53,
0.542,-0.17,0.03,0.85,-2.34,-0.14,-1.53,
0.542,-0.18,0.04,0.86,-2.34,-0.14,-1.53,
0.542,-0.18,0.04,0.86,-2.32,-0.15,-1.40,
0.545,-0.18,0.04,0.87,-2.32,-0.15,-1.40,
0.547,-0.18,0.04,0.89,-2.32,-0.15,-1.40,
0.548,-0.18,0.04,0.89,-2.28,-0.14,-1.19,
0.55,-0.17,0.05,0.90,-2.28,-0.14,-1.19,
0.557,-0.17,0.05,0.90,-2.28,-0.03,-0.93,
0.557,-0.17,0.05,0.91,-2.28,-0.03,-0.93,
0.557,-0.17,0.05,0.92,-2.28,-0.03,-0.93,
0.558,-0.17,0.05,0.92,-2.24,0.03,-0.72,
0.558,-0.17,0.04,0.93,-2.24,0.03,-0.72,
0.56,-0.17,0.03,0.93,-2.24,0.03,-0.72,
0.563,-0.16,0.02,0.94,-2.24,0.03,-0.72,
0.563,-0.16,0.02,0.94,-2.22,-0.03,-0.51,
0.564,-0.16,0.01,0.94,-2.22,-0.03,-0.51,
0.567,-0.16,0.01,0.94,-2.17,-0.17,-0.37,
0.567,-0.15,0.00,0.95,-2.17,-0.17,-0.37,
0.573,-0.15,-0.01,0.96,-2.17,-0.17,-0.37,
0.574,-0.15,-0.01,0.95,-2.17,-0.17,-0.37,
0.574,-0.15,-0.01,0.95,-2.07,-0.36,-0.30,
0.574,-0.15,-0.02,0.94,-2.07,-0.36,-0.30,
0.577,-0.15,-0.02,0.94,-2.07,-0.36,-0.30,
0.578,-0.15,-0.02,0.94,-2.04,-0.47,-0.21,
0.579,-0.16,-0.03,0.93,-2.04,-0.47,-0.21,
0.582,-0.16,-0.03,0.93,-2.04,-0.47,-0.21,
0.582,-0.16,-0.03,0.93,-2.08,-0.58,-0.35,
0.584,-0.16,-0.04,0.92,-2.08,-0.58,-0.35,
0.595,-0.16,-0.03,0.91,-2.08,-0.58,-0.35,
0.596,-0.16,-0.03,0.91,-2.16,-0.67,-0.45,
0.596,-0.16,-0.04,0.91,-2.16,-0.67,-0.45,
0.596,-0.16,-0.04,0.91,-2.16,-0.67,-0.45,
0.596,-0.16,-0.04,0.91,-2.19,-0.68,-0.60,
0.596,-0.17,-0.04,0.91,-2.19,-0.68,-0.60,
0.597,-0.17,-0.03,0.91,-2.19,-0.68,-0.60,
0.597,-0.17,-0.03,0.91,-2.27,-0.68,-0.64,
0.599,-0.18,-0.04,0.91,-2.27,-0.68,-0.64,
0.609,-0.19,-0.04,0.92,-2.27,-0.68,-0.64,
0.609,-0.19,-0.04,0.92,-2.39,-0.65,-0.65,
0.609,-0.19,-0.04,0.92,-2.39,-0.65,-0.65,
0.61,-0.19,-0.04,0.92,-2.54,-0.65,-0.57,
0.61,-0.19,-0.04,0.92,-2.54,-0.65,-0.57,
0.61,-0.18,-0.04,0.93,-2.54,-0.65,-0.57,
0.612,-0.17,-0.05,0.93,-2.54,-0.65,-0.57,
0.612,-0.17,-0.05,0.93,-2.58,-0.66,-0.49,
0.614,-0.17,-0.04,0.94,-2.58,-0.66,-0.49,
0.617,-0.16,-0.05,0.95,-2.58,-0.66,-0.49,
0.617,-0.16,-0.05,0.95,-2.51,-0.69,-0.42,
0.627,-0.15,-0.04,0.95,-2.51,-0.69,-0.42,
0.627,-0.14,-0.04,0.94,-2.51,-0.69,-0.42,
0.628,-0.14,-0.04,0.94,-2.39,-0.69,-0.30,
0.628,-0.14,-0.04,0.93,-2.39,-0.69,-0.30,
0.628,-0.13,-0.04,0.93,-2.39,-0.69,-0.30,
0.628,-0.13,-0.04,0.93,-2.22,-0.64,-0.30,
0.628,-0.12,-0.04,0.92,-2.22,-0.64,-0.30,
0.632,-0.12,-0.04,0.92,-2.09,-0.63,-0.40,
0.632,-0.12,-0.05,0.91,-2.09,-0.63,-0.40,
0.633,-0.10,-0.05,0.91,-2.09,-0.63,-0.40,
0.643,-0.09,-0.05,0.91,-2.09,-0.63,-0.40,
0.644,-0.09,-0.05,0.91,-1.89,-0.68,-0.54,
0.644,-0.08,-0.05,0.91,-1.89,-0.68,-0.54,
0.644,-0.08,-0.04,0.91,-1.89,-0.68,-0.54,
0.644,-0.08,-0.04,0.91,-1.60,-0.72,-0.62,
0.645,-0.08,-0.04,0.92,-1.60,-0.72,-0.62,
0.645,-0.09,-0.04,0.92,-1.60,-0.72,-0.62,
0.646,-0.09,-0.04,0.92,-1.47,-0.66,-0.62,
0.648,-0.09,-0.04,0.92,-1.47,-0.66,-0.62,
0.65,-0.09,-0.04,0.92,-1.49,-0.63,-0.55,
0.651,-0.10,-0.04,0.93,-1.49,-0.63,-0.55,
0.656,-0.11,-0.04,0.93,-1.49,-0.63,-0.55,
0.659,-0.11,-0.04,0.93,-1.57,-0.55,-0.45,
0.659,-0.12,-0.04,0.94,-1.57,-0.55,-0.45,
0.659,-0.12,-0.04,0.94,-1.57,-0.55,-0.45,
0.661,-0.12,-0.04,0.96,-1.57,-0.55,-0.45,
0.661,-0.12,-0.04,0.96,-1.70,-0.57,-0.34,
0.663,-0.13,-0.04,0.97,-1.70,-0.57,-0.34,
0.665,-0.13,-0.04,0.98,-1.70,-0.57,-0.34,
0.666,-0.13,-0.04,0.98,-1.77,-0.55,-0.21,
0.674,-0.14,-0.04,0.99,-1.77,-0.55,-0.21,
0.675,-0.14,-0.04,1.00,-1.77,-0.55,-0.21,
0.675,-0.14,-0.04,1.00,-1.87,-0.49,0.02,
0.675,-0.15,-0.04,1.02,-1.87,-0.49,0.02,
0.676,-0.15,-0.04,1.03,-1.87,-0.49,0.02,
0.676,-0.15,-0.04,1.03,-2.00,-0.46,0.24,
0.678,-0.15,-0.04,1.05,-2.00,-0.46,0.24,
0.68,-0.15,-0.04,1.05,-2.05,-0.43,0.51,
0.681,-0.14,-0.04,1.06,-2.05,-0.43,0.51,
0.682,-0.13,-0.05,1.08,-2.05,-0.43,0.51,
0.69,-0.12,-0.05,1.09,-2.05,-0.43,0.51,
0.691,-0.12,-0.05,1.09,-2.03,-0.40,0.78,
0.691,-0.11,-0.05,1.10,-2.03,-0.40,0.78,
0.691,-0.10,-0.05,1.12,-2.03,-0.40,0.78,
0.691,-0.10,-0.05,1.12,-1.87,-0.41,1.06,
0.693,-0.09,-0.06,1.14,-1.87,-0.41,1.06,
0.695,-0.07,-0.06,1.15,-1.87,-0.41,1.06,
0.695,-0.07,-0.06,1.15,-1.68,-0.38,1.36,
0.698,-0.06,-0.07,1.17,-1.68,-0.38,1.36,
0.7,-0.05,-0.07,1.17,-1.68,-0.38,1.36,
0.7,-0.05,-0.07,1.17,-1.45,-0.44,1.68,
0.713,-0.04,-0.08,1.18,-1.45,-0.44,1.68,
0.714,-0.04,-0.08,1.18,-1.25,-0.46,1.92,
0.714,-0.03,-0.08,1.19,-1.25,-0.46,1.92,
0.715,-0.02,-0.09,1.20,-1.25,-0.46,1.92,
0.715,-0.02,-0.09,1.21,-1.25,-0.46,1.92,
0.715,-0.02,-0.09,1.21,-1.05,-0.52,2.10,
0.716,-0.02,-0.10,1.21,-1.05,-0.52,2.10,
0.716,-0.01,-0.10,1.21,-1.05,-0.52,2.10,
0.716,-0.01,-0.10,1.21,-0.91,-0.61,2.22,
0.717,-0.01,-0.11,1.21,-0.91,-0.61,2.22,
0.726,-0.02,-0.10,1.21,-0.91,-0.61,2.22,
0.727,-0.02,-0.10,1.21,-0.84,-0.67,2.28,
0.727,-0.02,-0.11,1.21,-0.84,-0.67,2.28,
0.727,-0.03,-0.10,1.21,-0.84,-0.67,2.28,
0.727,-0.03,-0.10,1.21,-0.85,-0.68,2.27,
0.728,-0.04,-0.10,1.20,-0.85,-0.68,2.27,
0.73,-0.04,-0.10,1.20,-0.95,-0.65,2.27,
0.73,-0.05,-0.09,1.19,-0.95,-0.65,2.27,
0.732,-0.07,-0.09,1.18,-0.95,-0.65,2.27,
0.745,-0.08,-0.09,1.17,-0.95,-0.65,2.27,
0.746,-0.08,-0.09,1.17,-1.12,-0.55,2.13,
0.746,-0.10,-0.09,1.15,-1.12,-0.55,2.13,
0.746,-0.11,-0.09,1.13,-1.12,-0.55,2.13,
0.746,-0.11,-0.09,1.13,-1.35,-0.52,1.90,
0.746,-0.11,-0.09,1.12,-1.35,-0.52,1.90,
0.747,-0.12,-0.09,1.10,-1.35,-0.52,1.90,
0.747,-0.12,-0.09,1.10,-1.60,-0.50,1.61,
0.748,-0.13,-0.09,1.08,-1.60,-0.50,1.61,
0.75,-0.13,-0.09,1.06,-1.60,-0.50,1.61,
0.751,-0.13,-0.09,1.06,-1.74,-0.48,1.27,
0.757,-0.14,-0.09,1.05,-1.74,-0.48,1.27,
0.758,-0.14,-0.09,1.05,-1.80,-0.50,0.89,
0.758,-0.13,-0.09,1.03,-1.80,-0.50,0.89,
0.759,-0.14,-0.09,1.02,-1.80,-0.50,0.89,
0.759,-0.13,-0.08,1.00,-1.80,-0.50,0.89,
0.76,-0.13,-0.08,1.00,-1.85,-0.50,0.60,
0.762,-0.13,-0.09,0.99,-1.85,-0.50,0.60,
0.765,-0.13,-0.08,0.98,-1.85,-0.50,0.60,
0.765,-0.13,-0.08,0.98,-1.79,-0.49,0.28,
0.767,-0.13,-0.08,0.97,-1.79,-0.49,0.28,
0.775,-0.13,-0.08,0.96,-1.79,-0.49,0.28,
0.775,-0.13,-0.08,0.96,-1.78,-0.46,0.05,
0.775,-0.12,-0.08,0.95,-1.78,-0.46,0.05,
0.776,-0.12,-0.08,0.94,-1.78,-0.46,0.05,
0.776,-0.12,-0.08,0.94,-1.73,-0.40,-0.16,
0.777,-0.11,-0.08,0.95,-1.73,-0.40,-0.16,
0.779,-0.11,-0.08,0.95,-1.65,-0.40,-0.32,
0.779,-0.10,-0.09,0.95,-1.65,-0.40,-0.32,
0.781,-0.09,-0.09,0.95,-1.65,-0.40,-0.32,
0.784,-0.09,-0.09,0.95,-1.54,-0.43,-0.31,
0.784,-0.08,-0.09,0.96,-1.54,-0.43,-0.31,
0.791,-0.07,-0.09,0.96,-1.54,-0.43,-0.31,
0.791,-0.06,-0.09,0.97,-1.54,-0.43,-0.31,
0.792,-0.06,-0.09,0.97,-1.34,-0.45,-0.28,
0.792,-0.05,-0.09,0.98,-1.34,-0.45,-0.28,
0.794,-0.05,-0.09,0.99,-1.34,-0.45,-0.28,
0.794,-0.05,-0.09,0.99,-1.17,-0.40,-0.13,
0.796,-0.04,-0.09,1.00,-1.17,-0.40,-0.13,
0.799,-0.04,-0.09,1.00,-1.17,-0.40,-0.13,
0.799,-0.04,-0.09,1.00,-1.03,-0.40,0.08,
0.801,-0.04,-0.09,1.01,-1.03,-0.40,0.08,
0.808,-0.04,-0.09,1.01,-1.01,-0.38,0.19,
0.808,-0.04,-0.10,1.01,-1.01,-0.38,0.19,
0.809,-0.04,-0.10,1.02,-1.01,-0.38,0.19,
0.809,-0.05,-0.10,1.02,-1.01,-0.38,0.19,
0.809,-0.05,-0.10,1.02,-1.02,-0.38,0.29,
0.811,-0.05,-0.10,1.02,-1.02,-0.38,0.29,
0.814,-0.06,-0.09,1.02,-1.02,-0.38,0.29,
0.814,-0.06,-0.09,1.02,-1.08,-0.37,0.39,
0.816,-0.06,-0.09,1.03,-1.08,-0.37,0.39,
0.829,-0.07,-0.08,1.03,-1.08,-0.37,0.39,
0.833,-0.07,-0.08,1.03,-1.16,-0.31,0.42,
0.833,-0.08,-0.08,1.04,-1.16,-0.31,0.42,
0.834,-0.09,-0.08,1.03,-1.16,-0.31,0.42,
0.834,-0.09,-0.08,1.03,-1.28,-0.20,0.50,
0.834,-0.09,-0.08,1.03,-1.28,-0.20,0.50,
0.834,-0.09,-0.08,1.03,-1.45,-0.14,0.55,
0.834,-0.10,-0.06,1.03,-1.45,-0.14,0.55,
0.835,-0.11,-0.06,1.03,-1.45,-0.14,0.55,
0.835,-0.11,-0.06,1.04,-1.45,-0.14,0.55,
0.835,-0.11,-0.06,1.04,-1.54,-0.04,0.53,
0.842,-0.11,-0.06,1.04,-1.54,-0.04,0.53,
0.843,-0.12,-0.06,1.04,-1.54,-0.04,0.53,
0.843,-0.12,-0.06,1.04,-1.64,0.03,0.55,
0.844,-0.13,-0.05,1.05,-1.64,0.03,0.55,
0.844,-0.14,-0.06,1.05,-1.64,0.03,0.55,
0.844,-0.14,-0.06,1.05,-1.73,0.07,0.63,
0.846,-0.15,-0.06,1.05,-1.73,0.07,0.63,
0.849,-0.15,-0.06,1.05,-1.73,0.07,0.63,
0.849,-0.15,-0.06,1.05,-1.81,0.12,0.67,
0.852,-0.15,-0.06,1.05,-1.81,0.12,0.67,
0.861,-0.15,-0.06,1.05,-1.92,0.08,0.72,
0.861,-0.15,-0.06,1.05,-1.92,0.08,0.72,
0.862,-0.15,-0.06,1.04,-1.92,0.08,0.72,
0.862,-0.15,-0.06,1.03,-1.92,0.08,0.72,
0.862,-0.15,-0.06,1.03,-1.89,0.09,0.67,
0.862,-0.15,-0.05,1.03,-1.89,0.09,0.67,
0.864,-0.15,-0.05,1.03,-1.89,0.09,0.67,
0.865,-0.15,-0.05,1.03,-1.87,0.09,0.55,
0.866,-0.14,-0.05,1.02,-1.87,0.09,0.55,
0.869,-0.15,-0.05,1.02,-1.87,0.09,0.55,
0.869,-0.15,-0.05,1.02,-1.82,0.13,0.43,
0.876,-0.15,-0.05,1.01,-1.82,0.13,0.43,
0.876,-0.14,-0.05,1.01,-1.82,0.13,0.43,
0.876,-0.14,-0.05,1.01,-1.77,0.15,0.40,
0.877,-0.14,-0.05,1.01,-1.77,0.15,0.40,
0.879,-0.14,-0.05,1.01,-1.75,0.18,0.30,
0.879,-0.14,-0.05,1.02,-1.75,0.18,0.30,
0.881,-0.14,-0.05,1.02,-1.75,0.18,0.30,
0.884,-0.15,-0.05,1.04,-1.75,0.18,0.30,
0.884,-0.15,-0.05,1.04,-1.70,0.20,0.32,
0.886,-0.16,-0.05,1.05,-1.70,0.20,0.32,
0.891,-0.17,-0.05,1.06,-1.70,0.20,0.32,
0.891,-0.17,-0.05,1.06,-1.74,0.24,0.49,
0.892,-0.18,-0.04,1.07,-1.74,0.24,0.49,
0.894,-0.19,-0.04,1.08,-1.74,0.24,0.49,
0.894,-0.19,-0.04,1.08,-1.88,0.24,0.68,
0.896,-0.21,-0.04,1.09,-1.88,0.24,0.68,
0.898,-0.23,-0.04,1.09,-1.88,0.24,0.68,
0.898,-0.23,-0.04,1.09,-2.11,0.32,0.90,
0.901,-0.23,-0.03,1.10,-2.11,0.32,0.90,
0.908,-0.23,-0.03,1.10,-2.37,0.38,1.06,
0.908,-0.23,-0.03,1.10,-2.37,0.38,1.06,
0.908,-0.24,-0.03,1.11,-2.37,0.38,1.06,
0.909,-0.24,-0.03,1.11,-2.51,0.48,1.18,
0.909,-0.24,-0.02,1.12,-2.51,0.48,1.18,
0.911,-0.24,-0.02,1.12,-2.51,0.48,1.18,
0.914,-0.24,-0.02,1.13,-2.51,0.48,1.18,
0.914,-0.24,-0.02,1.13,-2.55,0.53,1.29,
0.916,-0.25,-0.02,1.12,-2.55,0.53,1.29,
0.918,-0.24,-0.03,1.12,-2.55,0.53,1.29,
0.918,-0.24,-0.03,1.12,-2.57,0.58,1.39,
0.929,-0.24,-0.03,1.12,-2.57,0.58,1.39,
0.93,-0.24,-0.03,1.11,-2.57,0.58,1.39,
0.93,-0.24,-0.03,1.11,-2.54,0.56,1.35,
0.93,-0.23,-0.04,1.10,-2.54,0.56,1.35,
0.93,-0.22,-0.04,1.09,-2.54,0.56,1.35,
0.93,-0.22,-0.04,1.09,-2.50,0.49,1.27,
0.931,-0.22,-0.05,1.09,-2.50,0.49,1.27,
0.933,-0.21,-0.05,1.09,-2.50,0.49,1.27,
0.934,-0.21,-0.05,1.09,-2.32,0.42,1.13,
0.936,-0.20,-0.06,1.08,-2.32,0.42,1.13,
0.943,-0.19,-0.06,1.08,-2.32,0.42,1.13,
0.944,-0.19,-0.06,1.08,-2.18,0.33,1.04,
0.944,-0.18,-0.06,1.08,-2.18,0.33,1.04,
0.944,-0.17,-0.06,1.08,-2.18,0.33,1.04,
0.944,-0.17,-0.06,1.08,-1.94,0.28,0.92,
0.946,-0.15,-0.07,1.08,-1.94,0.28,0.92,
0.948,-0.13,-0.07,1.09,-1.94,0.28,0.92,
0.948,-0.13,-0.07,1.09,-1.69,0.27,0.95,
0.95,-0.12,-0.07,1.09,-1.69,0.27,0.95,
0.963,-0.12,-0.07,1.09,-1.38,0.17,0.94,
0.963,-0.10,-0.08,1.08,-1.38,0.17,0.94,
0.963,-0.09,-0.08,1.09,-1.38,0.17,0.94,
0.964,-0.08,-0.09,1.09,-1.38,0.17,0.94,
0.964,-0.08,-0.09,1.09,-1.06,0.12,0.97,
0.964,-0.07,-0.09,1.09,-1.06,0.12,0.97,
0.964,-0.06,-0.10,1.09,-1.06,0.12,0.97,
0.965,-0.06,-0.10,1.09,-0.78,0.04,1.02,
0.965,-0.06,-0.10,1.09,-0.78,0.04,1.02,
0.968,-0.04,-0.11,1.10,-0.78,0.04,1.02,
0.969,-0.04,-0.11,1.10,-0.55,-0.06,1.03,
0.975,-0.05,-0.10,1.10,-0.55,-0.06,1.03,
0.976,-0.05,-0.10,1.10,-0.40,-0.14,1.07,
0.976,-0.05,-0.11,1.10,-0.40,-0.14,1.07,
0.976,-0.05,-0.12,1.10,-0.40,-0.14,1.07,
0.978,-0.05,-0.12,1.10,-0.34,-0.17,1.10,
0.978,-0.05,-0.11,1.11,-0.34,-0.17,1.10,
0.979,-0.06,-0.12,1.11,-0.34,-0.17,1.10,
0.983,-0.06,-0.11,1.11,-0.34,-0.17,1.10,
0.983,-0.06,-0.11,1.11,-0.35,-0.21,1.15,
0.986,-0.07,-0.11,1.12,-0.35,-0.21,1.15,
0.992,-0.08,-0.11,1.13,-0.35,-0.21,1.15,
0.993,-0.08,-0.11,1.13,-0.42,-0.20,1.24,
0.993,-0.08,-0.11,1.13,-0.42,-0.20,1.24,
0.993,-0.09,-0.11,1.12,-0.42,-0.20,1.24,
0.993,-0.09,-0.11,1.12,-0.53,-0.18,1.31,
0.995,-0.10,-0.11,1.13,-0.53,-0.18,1.31,
0.997,-0.11,-0.12,1.11,-0.53,-0.18,1.31,
0.997,-0.11,-0.12,1.11,-0.67,-0.18,1.36,
0.999,-0.11,-0.12,1.12,-0.67,-0.18,1.36,
1.002,-0.11,-0.12,1.12,-0.83,-0.19,1.30,
1.002,-0.11,-0.13,1.11,-0.83,-0.19,1.30,
1.008,-0.11,-0.13,1.11,-0.83,-0.19,1.30,
1.009,-0.10,-0.13,1.10,-0.83,-0.19,1.30,
1.009,-0.10,-0.13,1.10,-0.86,-0.27,1.26,
1.009,-0.10,-0.13,1.08,-0.86,-0.27,1.26,
1.012,-0.09,-0.13,1.08,-0.86,-0.27,1.26,
1.012,-0.09,-0.13,1.08,-0.78,-0.35,1.15,
1.014,-0.08,-0.13,1.07,-0.78,-0.35,1.15,
1.017,-0.07,-0.12,1.06,-0.78,-0.35,1.15,
1.017,-0.07,-0.12,1.06,-0.62,-0.30,0.92,
1.019,-0.07,-0.12,1.04,-0.62,-0.30,0.92,
1.025,-0.05,-0.12,1.04,-0.62,-0.30,0.92,
1.026,-0.05,-0.12,1.04,-0.42,-0.26,0.75,
1.026,-0.04,-0.12,1.03,-0.42,-0.26,0.75,
1.027,-0.04,-0.12,1.03,-0.19,-0.22,0.51,
1.027,-0.03,-0.11,1.02,-0.19,-0.22,0.51,
1.029,-0.01,-0.11,1.01,-0.19,-0.22,0.51,
1.032,-0.01,-0.11,1.01,-0.19,-0.22,0.51,
1.032,-0.01,-0.11,1.01,0.08,-0.19,0.34,
1.034,-0.00,-0.10,1.01,0.08,-0.19,0.34,
1.037,-0.00,-0.10,0.99,0.08,-0.19,0.34,
1.037,-0.00,-0.10,0.99,0.32,-0.12,0.21,
1.048,-0.01,-0.10,1.00,0.32,-0.12,0.21,
1.049,-0.01,-0.10,1.00,0.32,-0.12,0.21,
1.05,-0.01,-0.10,1.00,0.43,-0.07,0.11,
1.05,-0.02,-0.09,1.00,0.43,-0.07,0.11,
1.05,-0.03,-0.10,1.01,0.43,-0.07,0.11,
1.05,-0.03,-0.10,1.01,0.37,-0.02,0.09,
1.051,-0.05,-0.10,1.01,0.37,-0.02,0.09,
1.051,-0.05,-0.10,1.01,0.24,0.03,0.15,
1.052,-0.06,-0.10,1.02,0.24,0.03,0.15,
1.061,-0.08,-0.10,1.03,0.24,0.03,0.15,
1.061,-0.10,-0.10,1.04,0.24,0.03,0.15,
1.061,-0.10,-0.10,1.04,-0.00,-0.01,0.28,
1.062,-0.11,-0.10,1.05,-0.00,-0.01,0.28,
1.062,-0.12,-0.11,1.07,-0.00,-0.01,0.28,
1.062,-0.12,-0.11,1.07,-0.30,-0.05,0.50,
1.064,-0.13,-0.11,1.07,-0.30,-0.05,0.50,
1.066,-0.13,-0.11,1.07,-0.54,-0.08,0.71,
1.066,-0.14,-0.11,1.09,-0.54,-0.08,0.71,
1.068,-0.15,-0.11,1.09,-0.54,-0.08,0.71,
1.079,-0.15,-0.10,1.10,-0.54,-0.08,0.71,
1.08,-0.15,-0.10,1.10,-0.72,-0.09,0.92,
1.08,-0.15,-0.10,1.10,-0.72,-0.09,0.92,
1.08,-0.15,-0.10,1.10,-0.82,-0.06,1.08,
1.08,-0.16,-0.11,1.11,-0.82,-0.06,1.08,
1.081,-0.16,-0.10,1.11,-0.82,-0.06,1.08,
1.081,-0.16,-0.10,1.11,-0.82,-0.06,1.08,
1.081,-0.16,-0.10,1.11,-0.80,-0.04,1.16,
1.083,-0.17,-0.12,1.11,-0.80,-0.04,1.16,
1.095,-0.17,-0.12,1.11,-0.80,-0.04,1.16,
1.095,-0.17,-0.12,1.11,-0.80,-0.02,1.21,
1.096,-0.18,-0.13,1.12,-0.80,-0.02,1.21,
1.096,-0.18,-0.14,1.11,-0.80,-0.02,1.21,
1.096,-0.18,-0.14,1.11,-0.85,-0.17,1.24,
1.097,-0.17,-0.14,1.11,-0.85,-0.17,1.24,
1.097,-0.17,-0.14,1.11,-0.85,-0.17,1.24,
1.097,-0.17,-0.14,1.11,-0.91,-0.28,1.27,
1.098,-0.17,-0.14,1.10,-0.91,-0.28,1.27,
1.101,-0.17,-0.14,1.10,-0.81,-0.37,1.18,
1.101,-0.16,-0.13,1.09,-0.81,-0.37,1.18,
1.108,-0.15,-0.13,1.09,-0.81,-0.37,1.18,
1.108,-0.15,-0.13,1.09,-0.81,-0.37,1.18,
1.108,-0.15,-0.13,1.09,-0.72,-0.32,1.07,
1.109,-0.15,-0.13,1.09,-0.72,-0.32,1.07,
1.111,-0.14,-0.13,1.09,-0.72,-0.32,1.07,
1.111,-0.14,-0.13,1.09,-0.59,-0.25,1.03,
1.113,-0.14,-0.12,1.09,-0.59,-0.25,1.03,
1.117,-0.13,-0.12,1.09,-0.59,-0.25,1.03,
1.117,-0.13,-0.12,1.09,-0.52,-0.22,1.04,
1.118,-0.13,-0.11,1.09,-0.52,-0.22,1.04,
1.125,-0.12,-0.11,1.10,-0.52,-0.22,1.04,
1.126,-0.12,-0.11,1.10,-0.40,-0.13,1.00,
1.126,-0.12,-0.11,1.10,-0.40,-0.13,1.00,
1.126,-0.12,-0.11,1.10,-0.29,-0.04,1.06,
1.127,-0.11,-0.11,1.10,-0.29,-0.04,1.06,
1.128,-0.11,-0.11,1.09,-0.29,-0.04,1.06,
1.131,-0.10,-0.11,1.10,-0.29,-0.04,1.06,
1.131,-0.10,-0.11,1.10,-0.16,-0.00,1.09,
1.133,-0.09,-0.11,1.10,-0.16,-0.00,1.09,
1.136,-0.09,-0.11,1.10,-0.16,-0.00,1.09,
1.136,-0.09,-0.11,1.10,-0.03,-0.00,1.06,
1.151,-0.08,-0.12,1.10,-0.03,-0.00,1.06,
1.152,-0.08,-0.12,1.10,-0.03,-0.00,1.06,
1.152,-0.08,-0.12,1.10,0.08,-0.02,1.10,
1.152,-0.07,-0.13,1.10,0.08,-0.02,1.10,
1.152,-0.07,-0.13,1.10,0.08,-0.02,1.10,
1.153,-0.07,-0.13,1.10,0.21,-0.09,1.11,
1.153,-0.07,-0.14,1.10,0.21,-0.09,1.11,
1.158,-0.07,-0.14,1.10,0.32,-0.17,1.13,
1.159,-0.06,-0.15,1.10,0.32,-0.17,1.13,
1.159,-0.06,-0.16,1.11,0.32,-0.17,1.13,
1.159,-0.06,-0.17,1.11,0.32,-0.17,1.13,
1.16,-0.06,-0.17,1.11,0.38,-0.28,1.13,
1.16,-0.06,-0.17,1.12,0.38,-0.28,1.13,
1.162,-0.06,-0.18,1.12,0.38,-0.28,1.13,
1.163,-0.06,-0.18,1.12,0.43,-0.45,1.21,
1.163,-0.06,-0.19,1.12,0.43,-0.45,1.21,
1.166,-0.06,-0.19,1.13,0.43,-0.45,1.21,
1.167,-0.06,-0.19,1.13,0.43,-0.58,1.28,
1.168,-0.06,-0.20,1.13,0.43,-0.58,1.28,
1.178,-0.06,-0.20,1.13,0.43,-0.58,1.28,
1.178,-0.06,-0.20,1.13,0.46,-0.70,1.31,
1.178,-0.07,-0.20,1.13,0.46,-0.70,1.31,
1.178,-0.07,-0.20,1.13,0.46,-0.70,1.31,
1.178,-0.07,-0.20,1.13,0.48,-0.79,1.37,
1.179,-0.07,-0.20,1.14,0.48,-0.79,1.37,
1.181,-0.07,-0.20,1.14,0.39,-0.81,1.39,
1.181,-0.08,-0.21,1.14,0.39,-0.81,1.39,
1.183,-0.08,-0.20,1.15,0.39,-0.81,1.39,
1.186,-0.08,-0.20,1.15,0.39,-0.81,1.39,
1.186,-0.08,-0.20,1.15,0.35,-0.81,1.49,
1.193,-0.07,-0.19,1.15,0.35,-0.81,1.49,
1.194,-0.07,-0.19,1.15,0.35,-0.81,1.49,
1.194,-0.07,-0.19,1.15,0.36,-0.79,1.58,
1.194,-0.07,-0.19,1.16,0.36,-0.79,1.58,
1.196,-0.06,-0.19,1.16,0.36,-0.79,1.58,
1.196,-0.06,-0.19,1.16,0.45,-0.70,1.59,
1.198,-0.06,-0.19,1.16,0.45,-0.70,1.59,
1.201,-0.06,-0.19,1.16,0.53,-0.67,1.67,
1.201,-0.06,-0.20,1.16,0.53,-0.67,1.67,
1.203,-0.06,-0.20,1.17,0.53,-0.67,1.67,
1.21,-0.06,-0.20,1.17,0.53,-0.67,1.67,
1.211,-0.06,-0.20,1.17,0.61,-0.67,1.67,
1.211,-0.06,-0.20,1.17,0.61,-0.67,1.67,
1.211,-0.06,-0.20,1.18,0.61,-0.67,1.67,
1.211,-0.06,-0.20,1.18,0.62,-0.72,1.78,
1.213,-0.06,-0.21,1.18,0.62,-0.72,1.78,
1.216,-0.06,-0.22,1.20,0.62,-0.72,1.78,
1.216,-0.06,-0.22,1.20,0.64,-0.78,1.83,
1.218,-0.07,-0.22,1.20,0.64,-0.78,1.83,
1.221,-0.07,-0.22,1.20,0.64,-0.78,1.83,
1.221,-0.07,-0.22,1.20,0.66,-0.87,1.97,
1.226,-0.08,-0.21,1.21,0.66,-0.87,1.97,
1.226,-0.08,-0.21,1.21,0.59,-0.88,2.08,
1.227,-0.08,-0.21,1.21,0.59,-0.88,2.08,
1.228,-0.08,-0.22,1.22,0.59,-0.88,2.08,
1.231,-0.08,-0.22,1.22,0.53,-0.86,2.17,
1.231,-0.08,-0.21,1.22,0.53,-0.86,2.17,
1.233,-0.08,-0.20,1.23,0.53,-0.86,2.17,
1.235,-0.08,-0.19,1.23,0.53,-0.86,2.17,
1.236,-0.08,-0.19,1.23,0.53,-0.83,2.28,
1.249,-0.08,-0.19,1.22,0.53,-0.83,2.28,
1.249,-0.07,-0.18,1.21,0.53,-0.83,2.28,
1.249,-0.07,-0.18,1.21,0.54,-0.66,2.32,
1.25,-0.07,-0.17,1.20,0.54,-0.66,2.32,
1.25,-0.06,-0.16,1.20,0.54,-0.66,2.32,
1.25,-0.06,-0.16,1.20,0.61,-0.54,2.21,
1.25,-0.06,-0.16,1.19,0.61,-0.54,2.21,
1.251,-0.06,-0.16,1.19,0.73,-0.40,2.07,
1.251,-0.05,-0.16,1.18,0.73,-0.40,2.07,
1.253,-0.05,-0.16,1.17,0.73,-0.40,2.07,
1.261,-0.04,-0.16,1.17,0.73,-0.40,2.07,
1.262,-0.04,-0.16,1.17,0.81,-0.32,1.88,
1.262,-0.04,-0.16,1.15,0.81,-0.32,1.88,
1.262,-0.04,-0.17,1.14,0.81,-0.32,1.88,
1.263,-0.04,-0.17,1.14,0.94,-0.33,1.75,
1.263,-0.03,-0.16,1.13,0.94,-0.33,1.75,
1.266,-0.03,-0.16,1.13,0.99,-0.36,1.48,
1.266,-0.03,-0.17,1.12,0.99,-0.36,1.48,
1.267,-0.02,-0.17,1.12,0.99,-0.36,1.48,
1.27,-0.01,-0.17,1.11,0.99,-0.36,1.48,
1.27,-0.01,-0.17,1.11,1.11,-0.40,1.32,
1.279,-0.01,-0.17,1.10,1.11,-0.40,1.32,
1.28,-0.01,-0.17,1.10,1.22,-0.46,1.18,
1.28,-0.01,-0.17,1.10,1.22,-0.46,1.18,
1.28,-0.00,-0.18,1.10,1.22,-0.46,1.18,
1.28,-0.00,-0.18,1.10,1.33,-0.48,1.05,
1.281,0.00,-0.18,1.10,1.33,-0.48,1.05,
1.282,0.01,-0.18,1.11,1.33,-0.48,1.05,
1.285,0.02,-0.18,1.11,1.33,-0.48,1.05,
1.285,0.02,-0.18,1.11,1.42,-0.54,1.06,
1.287,0.02,-0.18,1.11,1.42,-0.54,1.06,
1.294,0.03,-0.18,1.12,1.42,-0.54,1.06,
1.295,0.03,-0.18,1.12,1.52,-0.56,1.15,
1.295,0.03,-0.18,1.13,1.52,-0.56,1.15,
1.295,0.04,-0.17,1.14,1.52,-0.56,1.15,
1.296,0.04,-0.17,1.14,1.66,-0.55,1.25,
1.296,0.04,-0.16,1.15,1.66,-0.55,1.25,
1.299,0.04,-0.16,1.15,1.75,-0.48,1.39,
1.299,0.04,-0.16,1.16,1.75,-0.48,1.39,
1.301,0.04,-0.15,1.17,1.75,-0.48,1.39,
1.309,0.03,-0.14,1.18,1.75,-0.48,1.39,
1.31,0.03,-0.14,1.18,1.84,-0.34,1.62,
1.31,0.02,-0.14,1.20,1.84,-0.34,1.62,
1.31,0.01,-0.14,1.21,1.84,-0.34,1.62,
1.31,0.01,-0.14,1.21,1.77,-0.21,1.82,
1.311,-0.01,-0.13,1.22,1.77,-0.21,1.82,
1.314,-0.01,-0.13,1.22,1.60,-0.11,2.07,
1.317,-0.02,-0.13,1.24,1.60,-0.11,2.07,
1.317,-0.04,-0.13,1.25,1.60,-0.11,2.07,
1.32,-0.05,-0.13,1.26,1.60,-0.11,2.07,
1.32,-0.05,-0.13,1.26,1.34,-0.05,2.31,
1.327,-0.07,-0.13,1.27,1.34,-0.05,2.31,
1.328,-0.07,-0.13,1.27,1.06,-0.03,2.55,
1.328,-0.08,-0.13,1.27,1.06,-0.03,2.55,
1.328,-0.09,-0.13,1.28,1.06,-0.03,2.55,
1.329,-0.11,-0.13,1.28,1.06,-0.03,2.55,
1.329,-0.11,-0.13,1.28,0.79,-0.01,2.68,
1.331,-0.12,-0.14,1.28,0.79,-0.01,2.68,
1.334,-0.12,-0.14,1.28,0.79,-0.01,2.68,
1.334,-0.12,-0.14,1.28,0.55,-0.03,2.78,
1.336,-0.13,-0.14,1.28,0.55,-0.03,2.78,
1.344,-0.13,-0.15,1.28,0.55,-0.03,2.78,
1.345,-0.13,-0.15,1.28,0.36,-0.14,2.82,
1.345,-0.14,-0.15,1.27,0.36,-0.14,2.82,
1.346,-0.14,-0.15,1.26,0.36,-0.14,2.82,
1.346,-0.14,-0.15,1.26,0.28,-0.23,2.82,
1.346,-0.14,-0.16,1.24,0.28,-0.23,2.82,
1.348,-0.14,-0.16,1.24,0.22,-0.31,2.61,
1.349,-0.13,-0.16,1.22,0.22,-0.31,2.61,
1.351,-0.12,-0.16,1.20,0.22,-0.31,2.61,
1.353,-0.11,-0.16,1.18,0.22,-0.31,2.61,
1.354,-0.11,-0.16,1.18,0.27,-0.36,2.31,
1.367,-0.10,-0.16,1.16,0.27,-0.36,2.31,
1.368,-0.09,-0.15,1.14,0.27,-0.36,2.31,
1.368,-0.09,-0.15,1.14,0.41,-0.39,1.89,
1.369,-0.08,-0.15,1.12,0.41,-0.39,1.89,
1.369,-0.07,-0.14,1.11,0.41,-0.39,1.89,
1.369,-0.07,-0.14,1.11,0.64,-0.35,1.49,
1.369,-0.05,-0.14,1.09,0.64,-0.35,1.49,
1.37,-0.04,-0.14,1.07,0.64,-0.35,1.49,
1.37,-0.04,-0.14,1.07,0.84,-0.32,1.13,
1.37,-0.03,-0.14,1.06,0.84,-0.32,1.13,
1.379,-0.03,-0.14,1.06,1.09,-0.28,0.80,
1.379,-0.01,-0.14,1.05,1.09,-0.28,0.80,
1.38,-0.00,-0.13,1.05,1.09,-0.28,0.80,
1.38,0.01,-0.13,1.04,1.09,-0.28,0.80,
1.38,0.01,-0.13,1.04,1.32,-0.26,0.56,
1.38,0.01,-0.12,1.04,1.32,-0.26,0.56,
1.383,0.02,-0.12,1.04,1.32,-0.26,0.56,
1.384,0.02,-0.12,1.04,1.52,-0.18,0.43,
1.385,0.03,-0.12,1.04,1.52,-0.18,0.43,
1.396,0.03,-0.12,1.05,1.52,-0.18,0.43,
1.397,0.03,-0.12,1.05,1.62,-0.11,0.40,
1.397,0.04,-0.11,1.06,1.62,-0.11,0.40,
1.398,0.04,-0.11,1.08,1.62,-0.11,0.40,
1.398,0.04,-0.11,1.08,1.78,-0.09,0.44,
1.398,0.03,-0.11,1.08,1.78,-0.09,0.44,
1.398,0.03,-0.11,1.08,1.82,-0.06,0.65,
1.399,0.03,-0.11,1.10,1.82,-0.06,0.65,
1.401,0.03,-0.10,1.12,1.82,-0.06,0.65,
1.403,0.02,-0.11,1.14,1.82,-0.06,0.65,
1.403,0.02,-0.11,1.14,1.74,-0.01,0.89,
1.412,0.01,-0.11,1.15,1.74,-0.01,0.89,
1.412,-0.00,-0.11,1.16,1.74,-0.01,0.89,
1.413,-0.00,-0.11,1.16,1.64,-0.02,1.22,
1.413,-0.00,-0.11,1.17,1.64,-0.02,1.22,
1.413,-0.01,-0.11,1.18,1.64,-0.02,1.22,
1.413,-0.01,-0.11,1.18,1.44,-0.05,1.48,
1.415,-0.02,-0.11,1.20,1.44,-0.05,1.48,
1.418,-0.04,-0.11,1.20,1.44,-0.05,1.48,
1.419,-0.04,-0.11,1.20,1.34,-0.05,1.72,
1.421,-0.05,-0.10,1.21,1.34,-0.05,1.72,
1.426,-0.05,-0.10,1.21,1.12,-0.04,1.89,
1.426,-0.06,-0.10,1.21,1.12,-0.04,1.89,
1.426,-0.07,-0.09,1.21,1.12,-0.04,1.89,
1.428,-0.07,-0.09,1.21,1.12,-0.04,1.89,
1.428,-0.07,-0.09,1.21,0.92,0.03,1.98,
1.431,-0.08,-0.09,1.20,0.92,0.03,1.98,
1.433,-0.08,-0.09,1.19,0.92,0.03,1.98,
1.433,-0.08,-0.09,1.19,0.74,0.09,1.98,
1.436,-0.08,-0.09,1.18,0.74,0.09,1.98,
1.444,-0.08,-0.09,1.17,0.74,0.09,1.98,
1.444,-0.08,-0.09,1.17,0.65,0.12,1.88,
1.444,-0.08,-0.09,1.16,0.65,0.12,1.88,
1.445,-0.08,-0.09,1.14,0.65,0.12,1.88,
1.445,-0.08,-0.09,1.14,0.62,0.08,1.67,
1.445,-0.07,-0.08,1.12,0.62,0.08,1.67,
1.448,-0.07,-0.08,1.12,0.65,0.07,1.40,
1.448,-0.06,-0.08,1.11,0.65,0.07,1.40,
1.451,-0.05,-0.08,1.09,0.65,0.07,1.40,
1.453,-0.03,-0.08,1.08,0.65,0.07,1.40,
1.453,-0.03,-0.08,1.08,0.75,0.09,1.03,
1.455,-0.02,-0.07,1.06,0.75,0.09,1.03,
1.466,-0.01,-0.07,1.04,0.75,0.09,1.03,
1.467,-0.01,-0.07,1.04,0.99,0.09,0.73,
1.467,0.00,-0.07,1.02,0.99,0.09,0.73,
1.468,0.02,-0.08,1.01,0.99,0.09,0.73,
1.468,0.02,-0.08,1.01,1.24,0.12,0.37,
1.468,0.03,-0.08,1.00,1.24,0.12,0.37,
1.468,0.04,-0.09,1.00,1.24,0.12,0.37,
1.469,0.04,-0.09,1.00,1.45,0.07,0.09,
1.47,0.05,-0.09,0.99,1.45,0.07,0.09,
1.479,0.05,-0.09,0.99,1.65,-0.05,-0.10,
1.48,0.06,-0.09,0.99,1.65,-0.05,-0.10,
1.48,0.08,-0.09,0.99,1.65,-0.05,-0.10,
1.48,0.09,-0.09,0.99,1.65,-0.05,-0.10,
1.48,0.09,-0.09,0.99,1.85,-0.14,-0.19,
1.485,0.10,-0.09,1.00,1.85,-0.14,-0.19,
1.485,0.11,-0.09,1.01,1.85,-0.14,-0.19,
1.486,0.11,-0.09,1.01,2.08,-0.20,-0.18,
1.486,0.11,-0.09,1.01,2.08,-0.20,-0.18,
1.487,0.12,-0.09,1.02,2.08,-0.20,-0.18,
1.488,0.12,-0.09,1.02,2.24,-0.20,-0.08,
1.496,0.12,-0.10,1.03,2.24,-0.20,-0.08,
1.497,0.11,-0.10,1.04,2.24,-0.20,-0.08,
1.498,0.11,-0.10,1.04,2.35,-0.21,0.04,
1.499,0.11,-0.10,1.05,2.35,-0.21,0.04,
1.499,0.11,-0.10,1.05,2.32,-0.28,0.25,
1.499,0.10,-0.11,1.07,2.32,-0.28,0.25,
1.499,0.09,-0.10,1.08,2.32,-0.28,0.25,
1.503,0.08,-0.10,1.09,2.32,-0.28,0.25,
1.503,0.08,-0.10,1.09,2.19,-0.39,0.49,
1.505,0.07,-0.10,1.10,2.19,-0.39,0.49,
1.512,0.06,-0.10,1.10,2.19,-0.39,0.49,
1.512,0.06,-0.10,1.10,2.03,-0.39,0.75,
1.512,0.05,-0.10,1.10,2.03,-0.39,0.75,
1.512,0.04,-0.10,1.11,2.03,-0.39,0.75,
1.512,0.04,-0.10,1.11,1.80,-0.39,0.85,
1.515,0.04,-0.10,1.10,1.80,-0.39,0.85,
1.517,0.03,-0.10,1.10,1.80,-0.39,0.85,
1.518,0.03,-0.10,1.10,1.62,-0.37,0.89,
1.52,0.03,-0.10,1.09,1.62,-0.37,0.89,
1.522,0.03,-0.10,1.09,1.48,-0.42,0.83,
1.522,0.03,-0.10,1.08,1.48,-0.42,0.83,
1.527,0.03,-0.10,1.07,1.48,-0.42,0.83,
1.528,0.04,-0.09,1.05,1.48,-0.42,0.83,
1.528,0.04,-0.09,1.05,1.43,-0.44,0.69,
1.53,0.05,-0.09,1.04,1.43,-0.44,0.69,
1.532,0.06,-0.09,1.02,1.43,-0.44,0.69,
1.533,0.06,-0.09,1.02,1.48,-0.42,0.46,
1.535,0.06,-0.08,1.00,1.48,-0.42,0.46,
1.537,0.07,-0.08,0.98,1.48,-0.42,0.46,
1.538,0.07,-0.08,0.98,1.63,-0.38,0.13,
1.544,0.08,-0.08,0.96,1.63,-0.38,0.13,
1.545,0.09,-0.08,0.95,1.63,-0.38,0.13,
1.545,0.09,-0.08,0.95,1.75,-0.36,-0.27,
1.545,0.11,-0.08,0.93,1.75,-0.36,-0.27,
1.547,0.11,-0.08,0.93,1.94,-0.32,-0.60,
1.547,0.12,-0.08,0.92,1.94,-0.32,-0.60,
1.549,0.13,-0.08,0.91,1.94,-0.32,-0.60,
1.552,0.14,-0.07,0.91,1.94,-0.32,-0.60,
1.552,0.14,-0.07,0.91,2.15,-0.37,-0.91,
1.555,0.16,-0.07,0.90,2.15,-0.37,-0.91,
1.565,0.17,-0.07,0.90,2.15,-0.37,-0.91,
1.566,0.17,-0.07,0.90,2.36,-0.33,-1.05,
1.566,0.19,-0.06,0.91,2.36,-0.33,-1.05,
1.566,0.20,-0.06,0.92,2.36,-0.33,-1.05,
1.566,0.20,-0.06,0.92,2.60,-0.30,-1.12,
1.567,0.21,-0.05,0.93,2.60,-0.30,-1.12,
1.567,0.22,-0.05,0.95,2.60,-0.30,-1.12,
1.567,0.22,-0.05,0.95,2.89,-0.19,-0.96,
1.569,0.23,-0.04,0.96,2.89,-0.19,-0.96,
1.572,0.23,-0.04,0.96,3.07,-0.13,-0.72,
1.572,0.23,-0.04,0.98,3.07,-0.13,-0.72,
1.579,0.23,-0.04,1.00,3.07,-0.13,-0.72,
1.58,0.24,-0.05,1.01,3.07,-0.13,-0.72,
1.58,0.24,-0.05,1.01,3.19,-0.02,-0.45,
1.58,0.23,-0.05,1.02,3.19,-0.02,-0.45,
1.582,0.22,-0.06,1.02,3.19,-0.02,-0.45,
1.582,0.22,-0.06,1.02,3.22,-0.10,-0.14,
1.584,0.21,-0.07,1.04,3.22,-0.10,-0.14,
1.587,0.21,-0.07,1.05,3.22,-0.10,-0.14,
1.587,0.21,-0.07,1.05,3.13,-0.17,0.04,
1.589,0.19,-0.08,1.06,3.13,-0.17,0.04,
1.598,0.18,-0.08,1.07,3.13,-0.17,0.04,
1.598,0.18,-0.08,1.07,2.98,-0.35,0.30,
1.599,0.16,-0.08,1.06,2.98,-0.35,0.30,
1.599,0.16,-0.08,1.06,2.72,-0.45,0.46,
1.599,0.15,-0.08,1.06,2.72,-0.45,0.46,
1.599,0.13,-0.08,1.05,2.72,-0.45,0.46,
1.602,0.12,-0.08,1.05,2.72,-0.45,0.46,
1.602,0.12,-0.08,1.05,2.44,-0.46,0.44,
1.604,0.11,-0.07,1.05,2.44,-0.46,0.44,
1.612,0.10,-0.06,1.05,2.44,-0.46,0.44,
1.612,0.10,-0.06,1.05,2.15,-0.46,0.36,
1.613,0.08,-0.06,1.04,2.15,-0.46,0.36,
1.613,0.07,-0.05,1.03,2.15,-0.46,0.36,
1.613,0.07,-0.05,1.03,1.99,-0.38,0.31,
1.613,0.06,-0.05,1.03,1.99,-0.38,0.31,
1.616,0.05,-0.05,1.03,1.99,-0.38,0.31,
1.616,0.05,-0.05,1.03,1.71,-0.25,0.20,
1.618,0.04,-0.05,1.02,1.71,-0.25,0.20,
1.621,0.04,-0.05,1.02,1.52,-0.29,0.17,
1.621,0.03,-0.06,1.02,1.52,-0.29,0.17,
1.626,0.03,-0.06,1.02,1.52,-0.29,0.17,
1.627,0.02,-0.05,1.01,1.52,-0.29,0.17,
1.627,0.02,-0.05,1.01,1.38,-0.34,0.04,
1.628,0.02,-0.05,1.00,1.38,-0.34,0.04,
1.631,0.02,-0.05,1.00,1.38,-0.34,0.04,
1.631,0.02,-0.05,1.00,1.24,-0.36,-0.03,
1.633,0.03,-0.05,0.99,1.24,-0.36,-0.03,
1.635,0.03,-0.05,0.98,1.24,-0.36,-0.03,
1.636,0.03,-0.05,0.98,1.24,-0.34,-0.14,
1.638,0.04,-0.05,0.98,1.24,-0.34,-0.14,
1.645,0.04,-0.05,0.97,1.24,-0.34,-0.14,
1.646,0.04,-0.05,0.97,1.30,-0.31,-0.28,
1.646,0.06,-0.04,0.97,1.30,-0.31,-0.28,
1.648,0.06,-0.04,0.97,1.39,-0.32,-0.36,
1.648,0.06,-0.04,0.97,1.39,-0.32,-0.36,
1.648,0.06,-0.04,0.96,1.39,-0.32,-0.36,
1.65,0.06,-0.05,0.96,1.39,-0.32,-0.36,
1.651,0.06,-0.05,0.96,1.50,-0.29,-0.45,
1.653,0.06,-0.05,0.96,1.50,-0.29,-0.45,
1.661,0.06,-0.05,0.95,1.50,-0.29,-0.45,
1.662,0.06,-0.05,0.95,1.50,-0.34,-0.53,
1.662,0.07,-0.05,0.94,1.50,-0.34,-0.53,
1.662,0.07,-0.05,0.94,1.50,-0.34,-0.53,
1.662,0.07,-0.05,0.94,1.48,-0.37,-0.61,
1.663,0.07,-0.05,0.93,1.48,-0.37,-0.61,
1.666,0.08,-0.05,0.93,1.48,-0.37,-0.61,
1.666,0.08,-0.05,0.93,1.50,-0.39,-0.75,
1.668,0.07,-0.05,0.92,1.50,-0.39,-0.75,
1.67,0.07,-0.05,0.92,1.50,-0.36,-0.85,
1.671,0.07,-0.04,0.91,1.50,-0.36,-0.85,
1.684,0.08,-0.04,0.90,1.50,-0.36,-0.85,
1.685,0.07,-0.04,0.90,1.50,-0.36,-0.85,
1.685,0.07,-0.04,0.90,1.46,-0.37,-0.98,
1.685,0.07,-0.03,0.89,1.46,-0.37,-0.98,
1.686,0.07,-0.02,0.89,1.46,-0.37,-0.98,
1.686,0.07,-0.02,0.89,1.41,-0.33,-1.12,
1.686,0.07,-0.02,0.88,1.41,-0.33,-1.12,
1.686,0.06,-0.01,0.88,1.41,-0.33,-1.12,
1.686,0.06,-0.01,0.88,1.38,-0.21,-1.22,
1.687,0.06,-0.01,0.87,1.38,-0.21,-1.22,
1.696,0.06,-0.01,0.87,1.38,-0.21,-1.22,
1.697,0.06,-0.01,0.87,1.28,-0.08,-1.33,
1.697,0.05,-0.01,0.86,1.28,-0.08,-1.33,
1.698,0.05,-0.01,0.86,1.19,-0.05,-1.45,
1.698,0.05,-0.01,0.85,1.19,-0.05,-1.45,
1.698,0.05,-0.01,0.86,1.19,-0.05,-1.45,
1.7,0.05,-0.02,0.86,1.19,-0.05,-1.45,
1.7,0.05,-0.02,0.86,1.13,-0.10,-1.57,
1.702,0.05,-0.02,0.86,1.13,-0.10,-1.57,
1.705,0.05,-0.02,0.86,1.13,-0.10,-1.57,
1.705,0.05,-0.02,0.86,1.11,-0.14,-1.53,
1.714,0.05,-0.02,0.86,1.11,-0.14,-1.53,
1.715,0.05,-0.02,0.87,1.11,-0.14,-1.53,
1.715,0.05,-0.02,0.87,1.04,-0.19,-1.53,
1.715,0.05,-0.03,0.87,1.04,-0.19,-1.53,
1.716,0.05,-0.03,0.87,1.04,-0.19,-1.53,
1.716,0.05,-0.03,0.87,1.03,-0.24,-1.47,
1.717,0.06,-0.02,0.87,1.03,-0.24,-1.47,
1.72,0.06,-0.02,0.87,1.06,-0.29,-1.45,
1.72,0.07,-0.02,0.87,1.06,-0.29,-1.45,
1.731,0.07,-0.02,0.88,1.06,-0.29,-1.45,
1.732,0.08,-0.02,0.88,1.06,-0.29,-1.45,
1.732,0.08,-0.02,0.88,1.17,-0.27,-1.42,
1.732,0.08,-0.03,0.88,1.17,-0.27,-1.42,
1.732,0.08,-0.03,0.89,1.17,-0.27,-1.42,
1.733,0.08,-0.03,0.89,1.25,-0.28,-1.33,
1.733,0.08,-0.04,0.89,1.25,-0.28,-1.33,
1.735,0.08,-0.04,0.89,1.25,-0.28,-1.33,
1.735,0.08,-0.04,0.89,1.28,-0.36,-1.26,
1.737,0.08,-0.05,0.90,1.28,-0.36,-1.26,
1.744,0.08,-0.06,0.90,1.28,-0.36,-1.26,
1.745,0.08,-0.06,0.90,1.28,-0.45,-1.19,
1.745,0.09,-0.06,0.91,1.28,-0.45,-1.19,
1.745,0.09,-0.06,0.91,1.25,-0.58,-1.13,
1.745,0.09,-0.06,0.91,1.25,-0.58,-1.13,
1.747,0.09,-0.06,0.90,1.25,-0.58,-1.13,
1.749,0.10,-0.07,0.91,1.25,-0.58,-1.13,
1.75,0.10,-0.07,0.91,1.29,-0.67,-1.04,
1.753,0.10,-0.07,0.91,1.29,-0.67,-1.04,
1.755,0.10,-0.07,0.91,1.29,-0.67,-1.04,
1.755,0.10,-0.07,0.91,1.33,-0.69,-1.06,
1.762,0.09,-0.07,0.91,1.33,-0.69,-1.06,
1.762,0.09,-0.06,0.91,1.33,-0.69,-1.06,
1.762,0.09,-0.06,0.91,1.31,-0.72,-1.01,
1.763,0.09,-0.06,0.91,1.31,-0.72,-1.01,
1.764,0.09,-0.06,0.90,1.31,-0.72,-1.01,
1.764,0.09,-0.06,0.90,1.25,-0.69,-1.02,
1.767,0.08,-0.06,0.90,1.25,-0.69,-1.02,
1.77,0.08,-0.06,0.90,1.15,-0.64,-1.08,
1.77,0.07,-0.05,0.89,1.15,-0.64,-1.08,
1.771,0.08,-0.05,0.89,1.15,-0.64,-1.08,
1.786,0.07,-0.04,0.88,1.15,-0.64,-1.08,
1.787,0.07,-0.04,0.88,0.98,-0.58,-1.17,
1.787,0.06,-0.03,0.87,0.98,-0.58,-1.17,
1.787,0.06,-0.03,0.87,0.98,-0.58,-1.17,
1.787,0.06,-0.03,0.87,0.91,-0.45,-1.29,
1.788,0.06,-0.02,0.86,0.91,-0.45,-1.29,
1.788,0.06,-0.02,0.86,0.81,-0.32,-1.41,
1.788,0.06,-0.01,0.86,0.81,-0.32,-1.41,
1.788,0.05,-0.01,0.86,0.81,-0.32,-1.41,
1.799,0.05,-0.00,0.86,0.81,-0.32,-1.41,
1.8,0.05,-0.00,0.86,0.75,-0.20,-1.53,
1.8,0.05,0.01,0.85,0.75,-0.20,-1.53,
1.8,0.05,0.01,0.85,0.67,-0.07,-1.52,
1.8,0.05,0.00,0.86,0.67,-0.07,-1.52,
1.801,0.04,0.01,0.86,0.67,-0.07,-1.52,
1.801,0.04,0.01,0.87,0.67,-0.07,-1.52,
1.801,0.04,0.01,0.87,0.60,0.04,-1.52,
1.801,0.03,0.00,0.87,0.60,0.04,-1.52,
1.804,0.03,-0.00,0.87,0.60,0.04,-1.52,
1.804,0.03,-0.00,0.87,0.52,0.05,-1.45,
1.816,0.03,-0.01,0.88,0.52,0.05,-1.45,
1.817,0.02,-0.01,0.89,0.52,0.05,-1.45,
1.823,0.02,-0.01,0.89,0.44,-0.03,-1.40,
1.824,0.02,-0.01,0.90,0.44,-0.03,-1.40,
1.825,0.02,-0.02,0.91,0.44,-0.03,-1.40,
1.825,0.02,-0.02,0.91,0.39,-0.13,-1.21,
1.826,0.02,-0.03,0.92,0.39,-0.13,-1.21,
1.826,0.02,-0.03,0.92,0.39,-0.13,-1.21,
1.827,0.02,-0.03,0.92,0.32,-0.18,-1.04,
1.828,0.03,-0.04,0.94,0.32,-0.18,-1.04,
1.828,0.04,-0.04,0.94,0.32,-0.18,-1.04,
1.828,0.04,-0.04,0.94,0.33,-0.33,-0.90,
1.829,0.04,-0.05,0.95,0.33,-0.33,-0.90,
1.829,0.05,-0.05,0.96,0.33,-0.33,-0.90,
1.829,0.05,-0.05,0.96,0.43,-0.40,-0.71,
1.832,0.06,-0.05,0.97,0.43,-0.40,-0.71,
1.835,0.06,-0.05,0.97,0.52,-0.52,-0.53,
1.835,0.05,-0.06,0.97,0.52,-0.52,-0.53,
1.836,0.06,-0.06,0.97,0.52,-0.52,-0.53,
1.85,0.06,-0.07,0.97,0.52,-0.52,-0.53,
1.851,0.06,-0.07,0.97,0.60,-0.53,-0.37,
1.851,0.06,-0.07,0.97,0.60,-0.53,-0.37,
1.851,0.06,-0.07,0.97,0.59,-0.62,-0.37,
1.851,0.06,-0.07,0.97,0.59,-0.62,-0.37,
1.851,0.07,-0.07,0.97,0.59,-0.62,-0.37,
1.852,0.06,-0.08,0.97,0.59,-0.62,-0.37,
1.852,0.06,-0.08,0.97,0.62,-0.63,-0.35,
1.852,0.06,-0.08,0.97,0.62,-0.63,-0.35,
1.854,0.06,-0.07,0.98,0.62,-0.63,-0.35,
1.854,0.06,-0.07,0.98,0.60,-0.70,-0.37,
1.857,0.05,-0.07,0.98,0.60,-0.70,-0.37,
1.863,0.05,-0.07,0.97,0.60,-0.70,-0.37,
1.863,0.05,-0.07,0.97,0.52,-0.68,-0.35,
1.863,0.04,-0.07,0.96,0.52,-0.68,-0.35,
1.864,0.03,-0.06,0.96,0.52,-0.68,-0.35,
1.864,0.03,-0.06,0.96,0.38,-0.61,-0.37,
1.866,0.02,-0.06,0.95,0.38,-0.61,-0.37,
1.869,0.02,-0.06,0.95,0.20,-0.58,-0.49,
1.869,0.02,-0.05,0.94,0.20,-0.58,-0.49,
1.871,0.01,-0.04,0.92,0.20,-0.58,-0.49,
1.873,0.00,-0.04,0.91,0.20,-0.58,-0.49,
1.874,0.00,-0.04,0.91,0.03,-0.49,-0.66,
1.879,-0.00,-0.03,0.90,0.03,-0.49,-0.66,
1.879,-0.00,-0.03,0.90,0.03,-0.49,-0.66,
1.88,-0.00,-0.03,0.90,-0.13,-0.35,-0.90,
1.881,-0.01,-0.01,0.89,-0.13,-0.35,-0.90,
1.884,-0.01,0.00,0.89,-0.13,-0.35,-0.90,
1.884,-0.01,0.00,0.89,-0.25,-0.24,-1.07,
1.886,-0.02,0.01,0.89,-0.25,-0.24,-1.07,
1.888,-0.02,0.02,0.88,-0.25,-0.24,-1.07,
1.888,-0.02,0.02,0.88,-0.35,-0.02,-1.19,
1.902,-0.02,0.03,0.88,-0.35,-0.02,-1.19,
1.903,-0.02,0.03,0.88,-0.40,0.20,-1.24,
1.903,-0.03,0.04,0.89,-0.40,0.20,-1.24,
1.903,-0.03,0.04,0.90,-0.40,0.20,-1.24,
1.904,-0.04,0.04,0.91,-0.40,0.20,-1.24,
1.904,-0.04,0.04,0.91,-0.45,0.36,-1.18,
1.904,-0.04,0.03,0.92,-0.45,0.36,-1.18,
1.904,-0.05,0.03,0.93,-0.45,0.36,-1.18,
1.904,-0.05,0.03,0.93,-0.57,0.39,-1.01,
1.906,-0.06,0.02,0.94,-0.57,0.39,-1.01,
1.914,-0.06,0.02,0.94,-0.69,0.30,-0.81,
1.915,-0.06,0.02,0.94,-0.69,0.30,-0.81,
1.915,-0.06,0.01,0.95,-0.69,0.30,-0.81,
1.915,-0.06,0.01,0.94,-0.69,0.30,-0.81,
1.916,-0.06,0.01,0.94,-0.78,0.21,-0.67,
1.916,-0.07,-0.00,0.94,-0.78,0.21,-0.67,
1.919,-0.07,-0.00,0.94,-0.83,0.10,-0.64,
1.919,-0.06,-0.00,0.93,-0.83,0.10,-0.64,
1.921,-0.06,-0.01,0.94,-0.83,0.10,-0.64,
1.923,-0.06,-0.01,0.93,-0.83,0.10,-0.64,
1.924,-0.06,-0.01,0.93,-0.88,-0.02,-0.71,
1.931,-0.06,-0.01,0.93,-0.88,-0.02,-0.71,
1.932,-0.06,-0.01,0.92,-0.88,-0.02,-0.71,
1.932,-0.06,-0.01,0.92,-0.83,-0.10,-0.73,
1.932,-0.05,-0.01,0.92,-0.83,-0.10,-0.73,
1.933,-0.04,-0.01,0.91,-0.83,-0.10,-0.73,
1.933,-0.04,-0.01,0.91,-0.83,-0.12,-0.81,
1.936,-0.04,-0.00,0.92,-0.83,-0.12,-0.81,
1.938,-0.03,-0.01,0.91,-0.83,-0.12,-0.81,
1.938,-0.03,-0.01,0.91,-0.75,-0.13,-0.88,
1.94,-0.03,-0.00,0.91,-0.75,-0.13,-0.88,
1.946,-0.03,-0.00,0.91,-0.66,-0.08,-0.90,
1.947,-0.03,0.00,0.90,-0.66,-0.08,-0.90,
1.947,-0.02,0.01,0.90,-0.66,-0.08,-0.90,
1.948,-0.01,0.01,0.89,-0.66,-0.08,-0.90,
1.948,-0.01,0.01,0.89,-0.64,-0.02,-0.97,
1.95,-0.01,0.02,0.89,-0.64,-0.02,-0.97,
1.954,-0.01,0.02,0.89,-0.54,0.10,-1.08,
1.954,-0.01,0.02,0.89,-0.54,0.10,-1.08,
1.956,-0.00,0.02,0.89,-0.54,0.10,-1.08,
1.963,-0.00,0.02,0.88,-0.54,0.10,-1.08,
1.963,-0.00,0.02,0.88,-0.51,0.15,-1.13,
1.964,0.00,0.02,0.88,-0.51,0.15,-1.13,
1.964,-0.00,0.02,0.88,-0.51,0.15,-1.13,
1.964,-0.00,0.02,0.88,-0.47,0.19,-1.18,
1.964,-0.01,0.03,0.88,-0.47,0.19,-1.18,
1.968,-0.01,0.03,0.88,-0.50,0.23,-1.24,
1.968,-0.02,0.02,0.87,-0.50,0.23,-1.24,
1.969,-0.02,0.02,0.87,-0.50,0.23,-1.24,
1.972,-0.02,0.02,0.87,-0.66,0.24,-1.28,
1.972,-0.03,0.02,0.88,-0.66,0.24,-1.28,
1.975,-0.05,0.03,0.89,-0.66,0.24,-1.28,
1.979,-0.06,0.04,0.90,-0.66,0.24,-1.28,
1.98,-0.06,0.04,0.90,-0.82,0.24,-1.26,
1.98,-0.07,0.04,0.91,-0.82,0.24,-1.26,
1.982,-0.08,0.04,0.92,-0.82,0.24,-1.26,
1.983,-0.08,0.04,0.92,-1.09,0.32,-1.07,
1.984,-0.09,0.04,0.93,-1.09,0.32,-1.07,
1.987,-0.09,0.05,0.95,-1.09,0.32,-1.07,
1.987,-0.09,0.05,0.95,-1.27,0.39,-0.88,
1.989,-0.10,0.04,0.96,-1.27,0.39,-0.88,
1.995,-0.10,0.04,0.96,-1.44,0.44,-0.65,
1.996,-0.11,0.04,0.97,-1.44,0.44,-0.65,
1.996,-0.11,0.04,0.98,-1.44,0.44,-0.65,
1.997,-0.11,0.03,0.99,-1.44,0.44,-0.65,
1.997,-0.11,0.03,0.99,-1.58,0.42,-0.39,
1.999,-0.11,0.02,0.99,-1.58,0.42,-0.39,
2.002,-0.11,0.02,0.99,-1.63,0.34,-0.21,
2.002,-0.12,0.02,0.99,-1.63,0.34,-0.21,
2.004,-0.12,0.01,0.99,-1.63,0.34,-0.21,
2.02,-0.12,0.00,0.98,-1.63,0.34,-0.21,
2.021,-0.12,0.00,0.98,-1.69,0.20,-0.10,
2.021,-0.12,-0.00,0.97,-1.69,0.20,-0.10,
2.021,-0.12,-0.00,0.97,-1.71,0.10,-0.21,
2.022,-0.11,-0.01,0.96,-1.71,0.10,-0.21,
2.022,-0.11,-0.01,0.96,-1.71,0.10,-0.21,
2.022,-0.11,-0.01,0.96,-1.70,-0.04,-0.35,
2.022,-0.10,-0.01,0.94,-1.70,-0.04,-0.35,
2.023,-0.09,-0.01,0.93,-1.70,-0.04,-0.35,
2.023,-0.08,-0.01,0.92,-1.70,-0.04,-0.35,
2.023,-0.08,-0.01,0.92,-1.57,-0.11,-0.54,
2.032,-0.07,0.00,0.91,-1.57,-0.11,-0.54,
2.032,-0.07,0.01,0.90,-1.57,-0.11,-0.54,
2.032,-0.07,0.01,0.90,-1.40,-0.09,-0.77,
2.033,-0.06,0.01,0.89,-1.40,-0.09,-0.77,
2.033,-0.06,0.02,0.88,-1.40,-0.09,-0.77,
2.033,-0.06,0.02,0.88,-1.27,-0.00,-0.99,
2.034,-0.05,0.03,0.87,-1.27,-0.00,-0.99,
2.036,-0.05,0.03,0.87,-1.27,-0.00,-0.99,
2.037,-0.05,0.03,0.87,-1.18,0.09,-1.15,
2.039,-0.06,0.03,0.86,-1.18,0.09,-1.15,
2.049,-0.06,0.03,0.86,-1.13,0.20,-1.31,
2.05,-0.06,0.03,0.85,-1.13,0.20,-1.31,
2.05,-0.06,0.03,0.85,-1.13,0.20,-1.31,
2.05,-0.07,0.03,0.85,-1.13,0.20,-1.31,
2.05,-0.07,0.03,0.85,-1.19,0.22,-1.43,
2.051,-0.08,0.03,0.85,-1.19,0.22,-1.43,
2.051,-0.09,0.03,0.85,-1.19,0.22,-1.43,
2.051,-0.09,0.03,0.85,-1.24,0.23,-1.49,
2.054,-0.10,0.03,0.85,-1.24,0.23,-1.49,
2.056,-0.11,0.04,0.86,-1.24,0.23,-1.49,
2.057,-0.11,0.04,0.86,-1.43,0.24,-1.46,
2.064,-0.12,0.04,0.86,-1.43,0.24,-1.46,
2.065,-0.14,0.05,0.88,-1.43,0.24,-1.46,
2.065,-0.14,0.05,0.88,-1.60,0.24,-1.43,
2.065,-0.15,0.05,0.88,-1.60,0.24,-1.43,
2.066,-0.15,0.05,0.88,-1.85,0.33,-1.30,
2.067,-0.16,0.05,0.91,-1.85,0.33,-1.30,
2.068,-0.17,0.06,0.92,-1.85,0.33,-1.30,
2.071,-0.18,0.05,0.93,-1.85,0.33,-1.30,
2.072,-0.18,0.05,0.93,-2.04,0.42,-1.04,
2.08,-0.18,0.06,0.94,-2.04,0.42,-1.04,
2.08,-0.20,0.05,0.96,-2.04,0.42,-1.04,
2.081,-0.20,0.05,0.96,-2.22,0.44,-0.73,
2.081,-0.21,0.05,0.98,-2.22,0.44,-0.73,
2.081,-0.21,0.04,0.98,-2.22,0.44,-0.73,
2.081,-0.21,0.04,0.98,-2.37,0.43,-0.53,
2.083,-0.21,0.03,0.98,-2.37,0.43,-0.53,
2.086,-0.22,0.03,0.99,-2.37,0.43,-0.53,
2.087,-0.22,0.03,0.99,-2.54,0.34,-0.22,
2.088,-0.22,0.02,1.00,-2.54,0.34,-0.22,
2.096,-0.22,0.02,1.00,-2.55,0.19,-0.13,
2.096,-0.22,0.01,1.00,-2.55,0.19,-0.13,
2.096,-0.22,0.00,1.00,-2.55,0.19,-0.13,
2.097,-0.21,0.00,1.00,-2.55,0.19,-0.13,
2.097,-0.21,0.00,1.00,-2.62,0.04,-0.02,
2.099,-0.20,-0.00,1.00,-2.62,0.04,-0.02,
2.101,-0.19,-0.01,0.99,-2.62,0.04,-0.02,
2.101,-0.19,-0.01,0.99,-2.55,-0.06,-0.01,
2.103,-0.18,-0.01,0.99,-2.55,-0.06,-0.01,
2.106,-0.17,-0.01,0.98,-2.55,-0.06,-0.01,
2.107,-0.17,-0.01,0.98,-2.39,-0.13,-0.07,
2.121,-0.15,-0.01,0.99,-2.39,-0.13,-0.07,
2.122,-0.14,-0.01,0.98,-2.39,-0.13,-0.07,
2.122,-0.14,-0.01,0.98,-2.19,-0.15,-0.13,
2.122,-0.12,0.00,0.98,-2.19,-0.15,-0.13,
2.122,-0.12,0.00,0.98,-1.90,-0.13,-0.18,
2.123,-0.11,0.00,0.97,-1.90,-0.13,-0.18,
2.123,-0.10,0.00,0.98,-1.90,-0.13,-0.18,
2.123,-0.10,0.00,0.97,-1.90,-0.13,-0.18,
2.123,-0.10,0.00,0.97,-1.65,-0.04,-0.24,
2.123,-0.09,-0.00,0.98,-1.65,-0.04,-0.24,
2.127,-0.08,0.00,0.98,-1.65,-0.04,-0.24,
2.127,-0.08,0.00,0.98,-1.50,-0.00,-0.24,
2.128,-0.07,-0.00,0.97,-1.50,-0.00,-0.24,
2.131,-0.06,-0.01,0.97,-1.50,-0.00,-0.24,
2.131,-0.06,-0.01,0.97,-1.34,-0.03,-0.24,
2.133,-0.05,-0.01,0.98,-1.34,-0.03,-0.24,
2.135,-0.05,-0.01,0.98,-1.34,-0.03,-0.24,
2.136,-0.05,-0.01,0.98,-1.18,-0.05,-0.30,
2.138,-0.04,-0.02,0.98,-1.18,-0.05,-0.30,
2.142,-0.04,-0.02,0.98,-1.06,-0.10,-0.23,
2.143,-0.04,-0.02,0.98,-1.06,-0.10,-0.23,
2.143,-0.04,-0.03,0.98,-1.06,-0.10,-0.23,
2.145,-0.04,-0.03,0.99,-1.06,-0.10,-0.23,
2.146,-0.04,-0.03,0.99,-0.94,-0.16,-0.20,
2.148,-0.04,-0.03,0.99,-0.94,-0.16,-0.20,
2.151,-0.03,-0.03,1.00,-0.94,-0.16,-0.20,
2.151,-0.03,-0.03,1.00,-0.94,-0.25,-0.15,
2.153,-0.02,-0.04,1.00,-0.94,-0.25,-0.15,
2.156,-0.02,-0.03,1.02,-0.94,-0.25,-0.15,
2.156,-0.02,-0.03,1.02,-0.87,-0.26,-0.04,
2.16,-0.02,-0.03,1.02,-0.87,-0.26,-0.04,
2.16,-0.01,-0.04,1.02,-0.87,-0.26,-0.04,
2.161,-0.01,-0.04,1.02,-0.75,-0.29,0.08,
2.163,-0.01,-0.03,1.03,-0.75,-0.29,0.08,
2.166,-0.01,-0.03,1.03,-0.65,-0.25,0.23,
2.167,-0.01,-0.03,1.04,-0.65,-0.25,0.23,
2.169,-0.00,-0.03,1.05,-0.65,-0.25,0.23,
2.171,-0.00,-0.04,1.05,-0.65,-0.25,0.23,
2.171,-0.00,-0.04,1.05,-0.55,-0.26,0.37,
2.173,-0.01,-0.04,1.06,-0.55,-0.26,0.37,
2.176,-0.01,-0.04,1.05,-0.55,-0.26,0.37,
2.177,-0.01,-0.04,1.05,-0.48,-0.27,0.50,
2.178,-0.01,-0.05,1.05,-0.48,-0.27,0.50,
2.18,-0.02,-0.06,1.06,-0.48,-0.27,0.50,
2.181,-0.02,-0.06,1.06,-0.51,-0.36,0.53,
2.183,-0.02,-0.06,1.05,-0.51,-0.36,0.53,
2.185,-0.02,-0.06,1.05,-0.51,-0.36,0.53,
2.185,-0.02,-0.06,1.05,-0.56,-0.49,0.52,
2.187,-0.03,-0.06,1.04,-0.56,-0.49,0.52,
2.191,-0.03,-0.06,1.04,-0.63,-0.55,0.48,
2.191,-0.03,-0.07,1.04,-0.63,-0.55,0.48,
2.192,-0.03,-0.07,1.03,-0.63,-0.55,0.48,
2.195,-0.02,-0.07,1.03,-0.63,-0.55,0.48,
2.195,-0.02,-0.07,1.03,-0.66,-0.59,0.37,
2.198,-0.02,-0.06,1.02,-0.66,-0.59,0.37,
2.2,-0.02,-0.06,1.01,-0.66,-0.59,0.37,
2.201,-0.02,-0.06,1.01,-0.63,-0.62,0.30,
2.203,-0.01,-0.06,1.01,-0.63,-0.62,0.30,
2.205,-0.02,-0.05,1.01,-0.63,-0.62,0.30,
2.206,-0.02,-0.05,1.01,-0.58,-0.56,0.15,
2.208,-0.01,-0.04,1.02,-0.58,-0.56,0.15,
2.212,-0.01,-0.03,1.00,-0.58,-0.56,0.15,
2.213,-0.01,-0.03,1.00,-0.56,-0.46,0.09,
2.213,-0.01,-0.04,1.00,-0.56,-0.46,0.09,
2.215,-0.01,-0.04,1.00,-0.54,-0.33,0.06,
2.215,-0.01,-0.02,1.01,-0.54,-0.33,0.06,
2.218,-0.01,-0.02,1.01,-0.54,-0.33,0.06,
2.22,-0.01,-0.01,1.01,-0.54,-0.33,0.06,
2.221,-0.01,-0.01,1.01,-0.55,-0.24,0.03,
2.223,-0.01,-0.01,1.01,-0.55,-0.24,0.03,
2.226,-0.01,-0.00,1.01,-0.55,-0.24,0.03,
2.227,-0.01,-0.00,1.01,-0.53,-0.11,0.04,
2.227,-0.01,-0.00,1.01,-0.53,-0.11,0.04,
2.231,-0.01,-0.00,1.01,-0.57,0.00,0.05,
2.231,-0.02,0.00,1.01,-0.57,0.00,0.05,
2.233,-0.02,0.00,1.00,-0.57,0.00,0.05,
2.235,-0.03,0.00,1.00,-0.57,0.00,0.05,
2.235,-0.03,0.00,1.00,-0.60,0.07,0.05,
2.237,-0.03,0.01,1.00,-0.60,0.07,0.05,
2.24,-0.03,0.01,1.00,-0.68,0.09,0.01,
2.24,-0.03,0.01,1.00,-0.68,0.09,0.01,
2.243,-0.04,0.01,1.00,-0.68,0.09,0.01,
2.245,-0.05,0.01,1.00,-0.68,0.09,0.01,
2.245,-0.05,0.01,1.00,-0.77,0.14,-0.01,
2.247,-0.05,0.01,1.00,-0.77,0.14,-0.01,
2.25,-0.05,0.01,1.00,-0.77,0.14,-0.01,
2.25,-0.05,0.01,1.00,-0.89,0.13,-0.03,
2.253,-0.05,0.01,0.99,-0.89,0.13,-0.03,
2.255,-0.06,0.02,1.00,-0.89,0.13,-0.03,
2.255,-0.06,0.02,1.00,-0.96,0.18,-0.04,
2.257,-0.06,0.02,0.99,-0.96,0.18,-0.04,
2.262,-0.06,0.02,0.99,-0.96,0.18,-0.04,
2.262,-0.06,0.02,0.99,-1.01,0.20,-0.07,
2.262,-0.06,0.03,0.99,-1.01,0.20,-0.07,
2.265,-0.06,0.03,0.99,-1.04,0.27,-0.10,
2.265,-0.06,0.03,0.99,-1.04,0.27,-0.10,
2.267,-0.06,0.03,0.99,-1.04,0.27,-0.10,
2.27,-0.05,0.03,0.99,-1.04,0.27,-0.10,
2.27,-0.05,0.03,0.99,-1.01,0.32,-0.11,
2.272,-0.04,0.03,0.98,-1.01,0.32,-0.11,
2.275,-0.04,0.02,0.98,-1.01,0.32,-0.11,
2.275,-0.04,0.02,0.98,-0.91,0.35,-0.14,
2.278,-0.03,0.02,0.97,-0.91,0.35,-0.14,
2.279,-0.01,0.01,0.97,-0.91,0.35,-0.14,
2.279,-0.01,0.01,0.97,-0.80,0.28,-0.20,
2.282,-0.01,0.01,0.97,-0.80,0.28,-0.20,
2.285,0.01,0.01,0.97,-0.80,0.28,-0.20,
2.285,0.01,0.01,0.97,-0.60,0.19,-0.29,
2.287,0.02,0.00,0.98,-0.60,0.19,-0.29,
2.29,0.02,0.00,0.98,-0.40,0.11,-0.29,
2.29,0.03,-0.00,0.98,-0.40,0.11,-0.29,
2.293,0.04,-0.00,0.98,-0.40,0.11,-0.29,
2.294,0.05,-0.00,0.99,-0.40,0.11,-0.29,
2.294,0.05,-0.00,0.99,-0.17,0.05,-0.23,
2.297,0.06,-0.01,0.99,-0.17,0.05,-0.23,
2.3,0.07,-0.01,0.99,-0.17,0.05,-0.23,
2.3,0.07,-0.01,0.99,0.03,0.00,-0.18,
2.302,0.08,-0.01,1.00,0.03,0.00,-0.18,
2.305,0.08,-0.02,1.00,0.03,0.00,-0.18,
2.307,0.08,-0.02,1.00,0.23,-0.04,-0.12,
2.308,0.09,-0.02,1.01,0.23,-0.04,-0.12,
2.313,0.09,-0.02,1.01,0.32,-0.10,-0.01,
2.314,0.09,-0.02,1.01,0.32,-0.10,-0.01,
2.314,0.09,-0.02,1.01,0.32,-0.10,-0.01,
2.314,0.09,-0.02,1.01,0.42,-0.15,0.08,
2.314,0.09,-0.02,1.01,0.42,-0.15,0.08,
2.318,0.08,-0.02,1.02,0.42,-0.15,0.08,
2.319,0.07,-0.02,1.02,0.42,-0.15,0.08,
2.319,0.07,-0.02,1.02,0.42,-0.17,0.09,
2.321,0.07,-0.02,1.03,0.42,-0.17,0.09,
2.324,0.05,-0.02,1.03,0.42,-0.17,0.09,
2.325,0.05,-0.02,1.03,0.32,-0.18,0.18,
2.327,0.04,-0.02,1.03,0.32,-0.18,0.18,
2.329,0.03,-0.01,1.03,0.32,-0.18,0.18,
2.329,0.03,-0.01,1.03,0.13,-0.17,0.25,
2.331,0.02,-0.01,1.03,0.13,-0.17,0.25,
2.333,0.01,-0.01,1.03,0.13,-0.17,0.25,
2.334,0.01,-0.01,1.03,-0.08,-0.11,0.29,
2.336,-0.00,-0.01,1.03,-0.08,-0.11,0.29,
2.339,-0.00,-0.01,1.03,-0.31,-0.08,0.30,
2.339,-0.01,-0.00,1.03,-0.31,-0.08,0.30,
2.341,-0.02,0.01,1.03,-0.31,-0.08,0.30,
2.345,-0.04,0.02,0.99,-0.31,-0.08,0.30,
2.345,-0.04,0.02,0.99,-0.51,-0.01,0.31,
2.346,-0.06,0.03,0.92,-0.51,-0.01,0.31,
2.348,-0.08,0.05,0.86,-0.51,-0.01,0.31,
2.349,-0.08,0.05,0.86,-0.68,0.19,0.05,
2.351,-0.09,0.07,0.83,-0.68,0.19,0.05,
2.353,-0.08,0.08,0.83,-0.68,0.19,0.05,
2.353,-0.08,0.08,0.83,-1.10,0.44,-1.06,
2.355,-0.08,0.08,0.83,-1.10,0.44,-1.06,
2.36,-0.08,0.08,0.84,-1.10,0.44,-1.06,
2.36,-0.08,0.08,0.84,-1.21,0.75,-1.68,
2.361,-0.07,0.08,0.84,-1.21,0.75,-1.68,
2.364,-0.07,0.08,0.84,-1.10,0.82,-1.64,
2.364,-0.05,0.07,0.85,-1.10,0.82,-1.64,
2.365,-0.03,0.05,0.85,-1.10,0.82,-1.64,
2.368,-0.03,0.05,0.85,-0.88,0.76,-1.53,
2.369,-0.01,0.04,0.86,-0.88,0.76,-1.53,
2.373,0.01,0.02,0.87,-0.88,0.76,-1.53,
2.374,0.02,0.00,0.88,-0.88,0.76,-1.53,
2.374,0.02,0.00,0.88,-0.48,0.44,-1.46,
2.378,0.04,-0.02,0.90,-0.48,0.44,-1.46,
2.378,0.04,-0.03,0.92,-0.48,0.44,-1.46,
2.378,0.04,-0.03,0.92,-0.12,0.09,-1.25,
2.382,0.04,-0.05,0.94,-0.12,0.09,-1.25,
2.383,0.05,-0.05,0.96,-0.12,0.09,-1.25,
2.383,0.05,-0.05,0.96,0.14,-0.23,-0.91,
2.385,0.04,-0.06,0.97,0.14,-0.23,-0.91,
2.388,0.04,-0.06,0.97,0.21,-0.46,-0.54,
2.388,0.04,-0.07,1.00,0.21,-0.46,-0.54,
2.391,0.04,-0.07,1.02,0.21,-0.46,-0.54,
2.397,0.04,-0.06,1.04,0.21,-0.46,-0.54,
2.398,0.04,-0.06,1.04,0.17,-0.60,-0.15,
2.398,0.04,-0.06,1.06,0.17,-0.60,-0.15,
2.398,0.04,-0.06,1.08,0.17,-0.60,-0.15,
2.398,0.04,-0.06,1.08,0.17,-0.59,0.26,
2.401,0.05,-0.06,1.10,0.17,-0.59,0.26,
2.403,0.05,-0.06,1.12,0.17,-0.59,0.26,
2.403,0.05,-0.06,1.12,0.19,-0.58,0.69,
2.406,0.05,-0.06,1.13,0.19,-0.58,0.69,
2.408,0.05,-0.06,1.14,0.19,-0.58,0.69,
2.408,0.05,-0.06,1.14,0.26,-0.55,1.03,
2.415,0.05,-0.06,1.14,0.26,-0.55,1.03,
2.415,0.06,-0.05,1.14,0.26,-0.55,1.03,
2.415,0.06,-0.05,1.14,0.26,-0.51,1.30,
2.416,0.06,-0.05,1.14,0.26,-0.51,1.30,
2.418,0.07,-0.04,1.13,0.26,-0.51,1.30,
2.418,0.07,-0.04,1.13,0.29,-0.45,1.38,
2.42,0.09,-0.03,1.11,0.29,-0.45,1.38,
2.423,0.09,-0.03,1.10,0.29,-0.45,1.38,
2.424,0.09,-0.03,1.10,0.36,-0.33,1.30,
2.442,0.09,-0.02,1.09,0.36,-0.33,1.30,
2.443,0.09,-0.01,1.08,0.36,-0.33,1.30,
2.443,0.09,-0.01,1.08,0.58,-0.22,1.01,
2.444,0.09,-0.01,1.07,0.58,-0.22,1.01,
2.444,0.08,-0.01,1.06,0.58,-0.22,1.01,
2.444,0.08,-0.01,1.06,0.59,-0.08,0.81,
2.448,0.08,-0.00,1.05,0.59,-0.08,0.81,
2.448,0.08,-0.00,1.05,0.51,-0.00,0.64,
2.449,0.07,-0.00,1.04,0.51,-0.00,0.64,
2.449,0.05,-0.00,1.05,0.51,-0.00,0.64,
2.449,0.05,-0.00,1.04,0.51,-0.00,0.64,
2.449,0.05,-0.00,1.04,0.38,0.04,0.43,
2.449,0.03,-0.00,1.04,0.38,0.04,0.43,
2.45,0.03,-0.00,1.04,0.17,0.04,0.42,
2.45,0.02,0.00,1.04,0.17,0.04,0.42,
2.45,0.01,-0.00,1.03,0.17,0.04,0.42,
2.455,0.00,-0.00,1.02,0.17,0.04,0.42,
2.456,0.00,-0.00,1.02,-0.06,0.04,0.35,
2.456,-0.00,-0.00,1.02,-0.06,0.04,0.35,
