
time,gFx,gFy,gFz,ax,ay,az,
0.004,0.09,0.14,0.99,0.16,-0.22,0.37,
0.004,0.09,0.15,0.98,0.16,-0.22,0.37,
0.004,0.09,0.15,0.98,0.21,-0.17,0.26,
0.004,0.08,0.16,0.96,0.21,-0.17,0.26,
0.004,0.07,0.16,0.95,0.21,-0.17,0.26,
0.005,0.07,0.16,0.95,0.19,-0.06,0.06,
0.01,0.07,0.16,0.94,0.19,-0.06,0.06,
0.011,0.07,0.16,0.93,0.19,-0.06,0.06,
0.011,0.07,0.16,0.93,0.09,0.05,-0.23,
0.011,0.06,0.16,0.92,0.09,0.05,-0.23,
0.013,0.06,0.16,0.90,0.09,0.05,-0.23,
0.013,0.06,0.16,0.90,0.03,0.06,-0.44,
0.016,0.06,0.16,0.89,0.03,0.06,-0.44,
0.018,0.06,0.17,0.88,0.03,0.06,-0.44,
0.018,0.06,0.17,0.88,-0.04,0.09,-0.66,
0.021,0.06,0.17,0.87,-0.04,0.09,-0.66,
0.029,0.05,0.18,0.86,-0.04,0.09,-0.66,
0.03,0.05,0.18,0.86,-0.07,0.08,-0.91,
0.03,0.05,0.18,0.86,-0.07,0.08,-0.91,
0.03,0.04,0.18,0.86,-0.07,0.08,-0.91,
0.03,0.04,0.18,0.86,-0.12,0.16,-1.08,
0.03,0.04,0.18,0.85,-0.12,0.16,-1.08,
0.033,0.04,0.18,0.85,-0.12,0.16,-1.08,
0.033,0.04,0.18,0.85,-0.18,0.20,-1.16,
0.036,0.04,0.17,0.85,-0.18,0.20,-1.16,
0.038,0.04,0.17,0.86,-0.18,0.20,-1.16,
0.038,0.04,0.17,0.86,-0.22,0.20,-1.21,
0.047,0.04,0.17,0.86,-0.22,0.20,-1.21,
0.047,0.04,0.17,0.87,-0.22,0.20,-1.21,
0.047,0.04,0.17,0.87,-0.26,0.17,-1.18,
0.048,0.04,0.17,0.87,-0.26,0.17,-1.18,
0.048,0.04,0.17,0.87,-0.23,0.19,-1.05,
0.048,0.05,0.17,0.88,-0.23,0.19,-1.05,
0.051,0.05,0.17,0.89,-0.23,0.19,-1.05,
0.053,0.05,0.17,0.90,-0.23,0.19,-1.05,
0.053,0.05,0.17,0.90,-0.20,0.16,-0.94,
0.065,0.06,0.17,0.92,-0.20,0.16,-0.94,
0.066,0.06,0.16,0.93,-0.20,0.16,-0.94,
0.066,0.06,0.16,0.93,-0.11,0.17,-0.73,
0.066,0.06,0.16,0.94,-0.11,0.17,-0.73,
0.066,0.07,0.16,0.95,-0.11,0.17,-0.73,
0.067,0.07,0.16,0.95,-0.04,0.12,-0.47,
0.067,0.07,0.16,0.96,-0.04,0.12,-0.47,
0.067,0.08,0.15,0.96,-0.04,0.12,-0.47,
0.067,0.08,0.15,0.96,0.03,0.09,-0.26,
0.071,0.08,0.15,0.97,0.03,0.09,-0.26,
0.08,0.08,0.15,0.97,0.03,0.09,-0.26,
0.081,0.08,0.15,0.97,0.10,0.03,-0.11,
0.081,0.08,0.15,0.98,0.10,0.03,-0.11,
0.081,0.08,0.15,0.99,0.10,0.03,-0.11,
0.081,0.08,0.15,0.99,0.18,-0.01,-0.03,
0.082,0.09,0.14,0.99,0.18,-0.01,-0.03,
0.082,0.09,0.14,0.98,0.18,-0.01,-0.03,
0.082,0.09,0.14,0.98,0.19,0.02,0.11,
0.085,0.10,0.14,0.98,0.19,0.02,0.11,
0.088,0.09,0.14,0.97,0.19,0.02,0.11,
0.088,0.09,0.14,0.97,0.27,-0.04,0.13,
0.099,0.10,0.14,0.97,0.27,-0.04,0.13,
0.099,0.10,0.14,0.96,0.27,-0.04,0.13,
0.1,0.10,0.14,0.96,0.29,-0.04,0.05,
0.1,0.10,0.14,0.94,0.29,-0.04,0.05,
0.1,0.10,0.14,0.93,0.29,-0.04,0.05,
0.1,0.10,0.14,0.93,0.31,-0.07,-0.09,
0.101,0.10,0.15,0.92,0.31,-0.07,-0.09,
0.103,0.10,0.15,0.91,0.31,-0.07,-0.09,
0.103,0.10,0.15,0.91,0.31,-0.03,-0.33,
0.105,0.10,0.15,0.90,0.31,-0.03,-0.33,
0.117,0.10,0.16,0.89,0.31,-0.03,-0.33,
0.117,0.10,0.16,0.89,0.35,0.06,-0.57,
0.117,0.09,0.16,0.87,0.35,0.06,-0.57,
0.118,0.09,0.16,0.86,0.35,0.06,-0.57,
0.118,0.09,0.16,0.86,0.33,0.07,-0.76,
0.118,0.08,0.16,0.85,0.33,0.07,-0.76,
0.118,0.08,0.16,0.84,0.33,0.07,-0.76,
0.119,0.08,0.16,0.84,0.27,0.14,-1.01,
0.119,0.07,0.16,0.82,0.27,0.14,-1.01,
0.122,0.07,0.15,0.82,0.27,0.14,-1.01,
0.123,0.07,0.15,0.82,0.14,0.15,-1.25,
0.132,0.06,0.15,0.81,0.14,0.15,-1.25,
0.133,0.07,0.14,0.80,0.14,0.15,-1.25,
0.133,0.07,0.14,0.80,0.05,0.06,-1.46,
0.133,0.07,0.14,0.81,0.05,0.06,-1.46,
0.133,0.07,0.14,0.81,0.05,0.06,-1.46,
0.133,0.07,0.14,0.81,-0.01,-0.01,-1.56,
0.134,0.07,0.14,0.81,-0.01,-0.01,-1.56,
0.137,0.07,0.14,0.81,-0.01,-0.01,-1.56,
0.137,0.07,0.14,0.81,-0.00,-0.07,-1.56,
0.139,0.08,0.14,0.82,-0.00,-0.07,-1.56,
0.147,0.08,0.14,0.82,0.05,-0.05,-1.50,
0.147,0.08,0.13,0.81,0.05,-0.05,-1.50,
0.147,0.08,0.13,0.82,0.05,-0.05,-1.50,
0.148,0.07,0.12,0.83,0.05,-0.05,-1.50,
0.148,0.07,0.12,0.83,0.10,-0.07,-1.47,
0.15,0.08,0.12,0.84,0.10,-0.07,-1.47,
0.153,0.07,0.11,0.84,0.10,-0.07,-1.47,
0.153,0.07,0.11,0.84,0.07,-0.14,-1.33,
0.155,0.07,0.11,0.84,0.07,-0.14,-1.33,
0.166,0.07,0.10,0.85,0.07,-0.14,-1.33,
0.167,0.07,0.10,0.85,0.06,-0.24,-1.20,
0.167,0.07,0.10,0.85,0.06,-0.24,-1.20,
0.169,0.08,0.10,0.85,0.06,-0.24,-1.20,
0.17,0.08,0.10,0.85,0.07,-0.34,-1.13,
0.17,0.08,0.10,0.86,0.07,-0.34,-1.13,
0.17,0.08,0.09,0.87,0.07,-0.34,-1.13,
0.17,0.08,0.09,0.87,0.09,-0.36,-1.08,
0.17,0.08,0.09,0.87,0.09,-0.36,-1.08,
0.181,0.08,0.09,0.87,0.09,-0.36,-1.08,
0.182,0.08,0.09,0.87,0.12,-0.39,-0.92,
0.182,0.08,0.09,0.88,0.12,-0.39,-0.92,
0.182,0.08,0.09,0.88,0.12,-0.39,-0.92,
0.182,0.08,0.09,0.88,0.11,-0.40,-0.84,
0.182,0.08,0.09,0.88,0.11,-0.40,-0.84,
0.183,0.08,0.09,0.88,0.11,-0.40,-0.84,
0.183,0.08,0.09,0.88,0.15,-0.38,-0.79,
0.183,0.08,0.09,0.87,0.15,-0.38,-0.79,
0.186,0.09,0.10,0.87,0.15,-0.38,-0.79,
0.186,0.09,0.10,0.87,0.09,-0.35,-0.79,
0.199,0.09,0.10,0.86,0.09,-0.35,-0.79,
0.199,0.10,0.11,0.86,0.09,-0.35,-0.79,
0.2,0.10,0.11,0.86,0.16,-0.29,-0.89,
0.2,0.10,0.13,0.85,0.16,-0.29,-0.89,
0.2,0.10,0.13,0.85,0.28,-0.19,-0.96,
0.2,0.11,0.14,0.84,0.28,-0.19,-0.96,
0.2,0.11,0.15,0.83,0.28,-0.19,-0.96,
0.201,0.12,0.16,0.82,0.28,-0.19,-0.96,
0.201,0.12,0.16,0.82,0.33,0.08,-1.10,
0.203,0.12,0.17,0.82,0.33,0.08,-1.10,
0.211,0.11,0.18,0.81,0.33,0.08,-1.10,
0.212,0.11,0.18,0.81,0.44,0.32,-1.31,
0.212,0.11,0.18,0.81,0.44,0.32,-1.31,
0.212,0.10,0.18,0.79,0.44,0.32,-1.31,
0.213,0.10,0.18,0.79,0.41,0.49,-1.38,
0.213,0.10,0.18,0.78,0.41,0.49,-1.38,
0.216,0.10,0.17,0.77,0.41,0.49,-1.38,
0.216,0.10,0.17,0.77,0.31,0.54,-1.50,
0.218,0.10,0.17,0.76,0.31,0.54,-1.50,
0.221,0.10,0.17,0.76,0.31,0.54,-1.50,
0.221,0.10,0.17,0.76,0.25,0.51,-1.73,
0.227,0.10,0.16,0.76,0.25,0.51,-1.73,
0.228,0.09,0.16,0.75,0.25,0.51,-1.73,
0.228,0.09,0.16,0.75,0.22,0.49,-1.90,
0.229,0.09,0.16,0.75,0.22,0.49,-1.90,
0.23,0.09,0.16,0.76,0.22,0.49,-1.90,
0.231,0.09,0.16,0.76,0.14,0.43,-1.96,
0.233,0.09,0.16,0.77,0.14,0.43,-1.96,
0.235,0.09,0.16,0.78,0.14,0.43,-1.96,
0.236,0.09,0.16,0.78,0.10,0.46,-1.92,
0.238,0.08,0.16,0.79,0.10,0.46,-1.92,
0.244,0.08,0.16,0.80,0.10,0.46,-1.92,
0.245,0.08,0.16,0.80,0.08,0.47,-1.73,
0.245,0.08,0.15,0.82,0.08,0.47,-1.73,
0.246,0.08,0.14,0.82,0.08,0.47,-1.73,
0.246,0.08,0.14,0.82,0.05,0.48,-1.53,
0.248,0.07,0.14,0.84,0.05,0.48,-1.53,
0.25,0.06,0.13,0.85,0.05,0.48,-1.53,
0.251,0.06,0.13,0.85,-0.02,0.38,-1.27,
0.253,0.06,0.12,0.86,-0.02,0.38,-1.27,
0.255,0.06,0.11,0.87,-0.02,0.38,-1.27,
0.255,0.06,0.11,0.87,-0.17,0.30,-1.06,
0.262,0.06,0.10,0.88,-0.17,0.30,-1.06,
0.262,0.05,0.09,0.89,-0.17,0.30,-1.06,
0.263,0.05,0.09,0.89,-0.21,0.14,-0.83,
0.263,0.05,0.08,0.90,-0.21,0.14,-0.83,
0.265,0.05,0.08,0.91,-0.21,0.14,-0.83,
0.265,0.05,0.08,0.91,-0.24,-0.03,-0.65,
0.268,0.05,0.06,0.92,-0.24,-0.03,-0.65,
0.27,0.05,0.06,0.94,-0.24,-0.03,-0.65,
0.27,0.05,0.06,0.94,-0.30,-0.18,-0.45,
0.283,0.05,0.05,0.95,-0.30,-0.18,-0.45,
0.283,0.06,0.05,0.95,-0.30,-0.18,-0.45,
0.284,0.06,0.05,0.95,-0.31,-0.33,-0.18,
0.284,0.06,0.05,0.96,-0.31,-0.33,-0.18,
0.284,0.07,0.04,0.97,-0.31,-0.33,-0.18,
0.285,0.07,0.04,0.97,-0.25,-0.39,0.01,
0.285,0.07,0.03,0.98,-0.25,-0.39,0.01,
0.285,0.08,0.03,0.99,-0.25,-0.39,0.01,
0.286,0.08,0.03,0.99,-0.14,-0.46,0.16,
0.287,0.09,0.02,1.00,-0.14,-0.46,0.16,
0.298,0.10,0.01,0.99,-0.14,-0.46,0.16,
0.298,0.10,0.01,0.99,-0.07,-0.55,0.35,
0.299,0.10,0.01,0.99,-0.07,-0.55,0.35,
0.299,0.12,-0.00,0.99,-0.07,-0.55,0.35,
0.299,0.12,-0.00,0.99,0.08,-0.68,0.43,
0.299,0.13,-0.00,0.99,0.08,-0.68,0.43,
0.301,0.14,-0.01,0.99,0.08,-0.68,0.43,
0.301,0.14,-0.01,0.99,0.27,-0.79,0.41,
0.302,0.15,-0.01,0.98,0.27,-0.79,0.41,
0.305,0.16,-0.01,0.98,0.27,-0.79,0.41,
0.305,0.16,-0.01,0.98,0.51,-0.85,0.40,
0.315,0.17,-0.02,0.98,0.51,-0.85,0.40,
0.316,0.18,-0.02,0.97,0.51,-0.85,0.40,
0.316,0.18,-0.02,0.97,0.67,-0.87,0.29,
0.317,0.19,-0.02,0.96,0.67,-0.87,0.29,
0.317,0.20,-0.02,0.94,0.67,-0.87,0.29,
0.317,0.20,-0.02,0.94,0.82,-0.96,0.22,
0.317,0.19,-0.02,0.93,0.82,-0.96,0.22,
0.32,0.20,-0.02,0.92,0.82,-0.96,0.22,
0.321,0.20,-0.02,0.92,0.94,-0.98,-0.02,
0.322,0.21,-0.01,0.90,0.94,-0.98,-0.02,
0.33,0.21,-0.02,0.88,0.94,-0.98,-0.02,
0.333,0.21,-0.02,0.88,0.96,-0.96,-0.27,
0.333,0.22,-0.02,0.86,0.96,-0.96,-0.27,
0.333,0.22,-0.02,0.84,0.96,-0.96,-0.27,
0.333,0.22,-0.02,0.84,1.05,-0.94,-0.58,
0.334,0.22,-0.02,0.83,1.05,-0.94,-0.58,
0.334,0.22,-0.02,0.81,1.05,-0.94,-0.58,
0.335,0.22,-0.02,0.81,1.08,-0.95,-0.94,
0.337,0.21,-0.02,0.80,1.08,-0.95,-0.94,
0.346,0.21,-0.02,0.79,1.08,-0.95,-0.94,
0.347,0.21,-0.02,0.79,1.05,-0.97,-1.21,
0.347,0.20,-0.02,0.78,1.05,-0.97,-1.21,
0.347,0.21,-0.02,0.76,1.05,-0.97,-1.21,
0.347,0.21,-0.02,0.76,0.92,-0.99,-1.46,
0.348,0.21,-0.02,0.75,0.92,-0.99,-1.46,
0.35,0.20,-0.02,0.75,0.92,-0.99,-1.46,
0.351,0.20,-0.02,0.75,0.88,-0.98,-1.72,
0.353,0.19,-0.01,0.74,0.88,-0.98,-1.72,
0.354,0.19,-0.02,0.74,0.88,-0.98,-1.72,
0.355,0.19,-0.02,0.74,0.85,-0.98,-1.88,
0.365,0.19,-0.01,0.74,0.85,-0.98,-1.88,
0.366,0.18,-0.01,0.74,0.85,-0.98,-1.88,
0.366,0.18,-0.01,0.74,0.74,-0.92,-1.96,
0.366,0.17,-0.00,0.74,0.74,-0.92,-1.96,
0.367,0.17,-0.00,0.76,0.74,-0.92,-1.96,
0.367,0.17,-0.00,0.76,0.68,-0.83,-1.95,
0.367,0.16,0.00,0.76,0.68,-0.83,-1.95,
0.37,0.16,0.00,0.76,0.51,-0.78,-1.88,
0.37,0.16,0.01,0.78,0.51,-0.78,-1.88,
0.372,0.16,0.02,0.77,0.51,-0.78,-1.88,
0.381,0.17,0.03,0.78,0.51,-0.78,-1.88,
0.381,0.17,0.03,0.78,0.49,-0.66,-1.68,
0.381,0.16,0.03,0.80,0.49,-0.66,-1.68,
0.381,0.17,0.04,0.81,0.49,-0.66,-1.68,
0.381,0.17,0.04,0.81,0.52,-0.50,-1.58,
0.382,0.17,0.05,0.82,0.52,-0.50,-1.58,
0.384,0.16,0.05,0.85,0.52,-0.50,-1.58,
0.384,0.16,0.05,0.85,0.55,-0.32,-1.29,
0.387,0.16,0.06,0.87,0.55,-0.32,-1.29,
0.389,0.16,0.07,0.88,0.55,-0.32,-1.29,
0.389,0.16,0.07,0.88,0.55,-0.16,-1.02,
0.396,0.16,0.07,0.90,0.55,-0.16,-1.02,
0.397,0.16,0.07,0.90,0.55,0.01,-0.64,
0.397,0.16,0.07,0.92,0.55,0.01,-0.64,
0.397,0.16,0.08,0.94,0.55,0.01,-0.64,
0.4,0.17,0.08,0.96,0.55,0.01,-0.64,
0.4,0.17,0.08,0.96,0.57,0.15,-0.28,
0.402,0.17,0.08,0.98,0.57,0.15,-0.28,
0.404,0.17,0.07,0.98,0.57,0.15,-0.28,
0.405,0.17,0.07,0.98,0.60,0.22,0.10,
0.417,0.18,0.08,1.00,0.60,0.22,0.10,
0.418,0.18,0.08,1.01,0.60,0.22,0.10,
0.418,0.18,0.08,1.01,0.65,0.24,0.39,
0.418,0.18,0.08,1.01,0.65,0.24,0.39,
0.418,0.19,0.08,1.02,0.65,0.24,0.39,
0.419,0.19,0.08,1.02,0.71,0.29,0.58,
0.419,0.19,0.07,1.02,0.71,0.29,0.58,
0.419,0.18,0.05,1.03,0.71,0.29,0.58,
0.419,0.18,0.05,1.03,0.76,0.33,0.69,
0.421,0.18,0.05,1.03,0.76,0.33,0.69,
0.424,0.18,0.04,1.03,0.76,0.33,0.69,
0.424,0.18,0.04,1.03,0.74,0.19,0.78,
0.433,0.18,0.03,1.02,0.74,0.19,0.78,
0.433,0.18,0.03,1.02,0.74,0.19,0.78,
0.434,0.18,0.03,1.02,0.69,0.07,0.81,
0.434,0.19,0.03,1.01,0.69,0.07,0.81,
0.434,0.19,0.03,1.01,0.69,0.07,0.81,
0.434,0.19,0.03,1.01,0.67,-0.03,0.76,
0.437,0.19,0.03,1.00,0.67,-0.03,0.76,
0.439,0.18,0.03,1.00,0.67,-0.03,0.76,
0.439,0.18,0.03,1.00,0.76,-0.05,0.67,
0.446,0.17,0.02,0.98,0.76,-0.05,0.67,
0.447,0.15,0.02,0.98,0.76,-0.05,0.67,
0.447,0.15,0.02,0.98,0.73,-0.02,0.58,
0.447,0.14,0.01,0.97,0.73,-0.02,0.58,
0.449,0.13,0.01,0.96,0.73,-0.02,0.58,
0.449,0.13,0.01,0.96,0.49,-0.07,0.38,
0.452,0.11,0.01,0.96,0.49,-0.07,0.38,
0.454,0.10,-0.00,0.95,0.49,-0.07,0.38,
0.454,0.10,-0.00,0.95,0.23,-0.14,0.20,
0.457,0.09,-0.00,0.94,0.23,-0.14,0.20,
0.465,0.07,0.00,0.94,0.23,-0.14,0.20,
0.465,0.07,0.00,0.94,-0.02,-0.21,0.11,
0.466,0.05,0.00,0.94,-0.02,-0.21,0.11,
0.466,0.04,0.00,0.94,-0.02,-0.21,0.11,
0.466,0.04,0.00,0.94,-0.32,-0.21,-0.02,
0.466,0.03,0.01,0.95,-0.32,-0.21,-0.02,
0.469,0.03,0.01,0.95,-0.61,-0.18,-0.03,
0.469,0.02,0.01,0.96,-0.61,-0.18,-0.03,
0.471,0.02,0.01,0.98,-0.61,-0.18,-0.03,
0.474,0.02,0.02,0.99,-0.61,-0.18,-0.03,
0.474,0.02,0.02,0.99,-0.77,-0.05,0.10,
0.481,0.01,0.01,1.00,-0.77,-0.05,0.10,
0.481,0.01,0.01,1.01,-0.77,-0.05,0.10,
0.482,0.01,0.01,1.01,-0.84,0.00,0.36,
0.482,0.01,0.01,1.02,-0.84,0.00,0.36,
0.484,0.02,0.00,1.04,-0.84,0.00,0.36,
0.484,0.02,0.00,1.04,-0.85,-0.01,0.58,
0.486,0.02,-0.01,1.06,-0.85,-0.01,0.58,
0.489,0.03,-0.02,1.07,-0.85,-0.01,0.58,
0.489,0.03,-0.02,1.07,-0.81,-0.02,0.84,
0.491,0.04,-0.03,1.08,-0.81,-0.02,0.84,
0.5,0.06,-0.04,1.10,-0.81,-0.02,0.84,
0.501,0.06,-0.04,1.10,-0.67,-0.15,1.14,
0.501,0.07,-0.04,1.12,-0.67,-0.15,1.14,
0.501,0.09,-0.05,1.13,-0.67,-0.15,1.14,
0.502,0.09,-0.05,1.13,-0.45,-0.30,1.41,
0.502,0.11,-0.07,1.15,-0.45,-0.30,1.41,
0.504,0.12,-0.08,1.16,-0.45,-0.30,1.41,
0.504,0.12,-0.08,1.16,-0.16,-0.39,1.73,
0.506,0.13,-0.09,1.17,-0.16,-0.39,1.73,
0.515,0.14,-0.10,1.18,-0.16,-0.39,1.73,
0.515,0.14,-0.10,1.18,0.15,-0.61,2.02,
0.516,0.15,-0.12,1.19,0.15,-0.61,2.02,
0.516,0.17,-0.14,1.20,0.15,-0.61,2.02,
0.516,0.17,-0.14,1.20,0.39,-0.78,2.20,
0.516,0.19,-0.14,1.21,0.39,-0.78,2.20,
0.519,0.19,-0.14,1.21,0.61,-1.02,2.43,
0.519,0.21,-0.15,1.22,0.61,-1.02,2.43,
0.521,0.23,-0.15,1.22,0.61,-1.02,2.43,
0.523,0.25,-0.15,1.23,0.61,-1.02,2.43,
0.524,0.25,-0.15,1.23,0.96,-1.17,2.55,
0.533,0.26,-0.15,1.23,0.96,-1.17,2.55,
0.533,0.28,-0.15,1.23,0.96,-1.17,2.55,
0.534,0.28,-0.15,1.23,1.34,-1.18,2.65,
0.534,0.29,-0.15,1.23,1.34,-1.18,2.65,
0.534,0.30,-0.14,1.22,1.34,-1.18,2.65,
0.534,0.30,-0.14,1.22,1.66,-1.14,2.68,
0.535,0.31,-0.14,1.22,1.66,-1.14,2.68,
0.538,0.31,-0.14,1.22,1.66,-1.14,2.68,
0.538,0.31,-0.14,1.22,1.87,-1.09,2.66,
0.541,0.31,-0.14,1.21,1.87,-1.09,2.66,
0.547,0.31,-0.14,1.20,1.87,-1.09,2.66,
0.547,0.31,-0.14,1.20,2.04,-1.03,2.56,
0.548,0.29,-0.13,1.19,2.04,-1.03,2.56,
0.548,0.27,-0.13,1.18,2.04,-1.03,2.56,
0.548,0.27,-0.13,1.18,2.03,-0.98,2.41,
0.55,0.25,-0.11,1.17,2.03,-0.98,2.41,
0.552,0.22,-0.10,1.16,2.03,-0.98,2.41,
0.552,0.22,-0.10,1.16,1.78,-0.88,2.21,
0.555,0.20,-0.09,1.15,1.78,-0.88,2.21,
0.563,0.16,-0.08,1.15,1.78,-0.88,2.21,
0.563,0.16,-0.08,1.15,1.34,-0.65,2.02,
0.564,0.14,-0.07,1.14,1.34,-0.65,2.02,
0.564,0.11,-0.06,1.14,1.34,-0.65,2.02,
0.564,0.11,-0.06,1.14,0.81,-0.47,1.87,
0.565,0.09,-0.04,1.13,0.81,-0.47,1.87,
0.567,0.07,-0.03,1.12,0.81,-0.47,1.87,
0.567,0.07,-0.03,1.12,0.27,-0.23,1.76,
0.57,0.05,-0.02,1.12,0.27,-0.23,1.76,
0.572,0.04,-0.01,1.12,0.27,-0.23,1.76,
0.572,0.04,-0.01,1.12,-0.17,0.04,1.62,
0.581,0.02,-0.00,1.11,-0.17,0.04,1.62,
0.581,-0.01,0.00,1.10,-0.17,0.04,1.62,
0.582,-0.01,0.00,1.10,-0.49,0.28,1.52,
0.582,-0.02,-0.00,1.10,-0.49,0.28,1.52,
0.582,-0.04,-0.00,1.10,-0.49,0.28,1.52,
0.582,-0.04,-0.00,1.10,-0.86,0.40,1.39,
0.585,-0.04,-0.00,1.10,-0.86,0.40,1.39,
0.587,-0.04,-0.00,1.11,-0.86,0.40,1.39,
0.587,-0.04,-0.00,1.11,-1.18,0.40,1.31,
0.589,-0.03,-0.01,1.11,-1.18,0.40,1.31,
0.602,-0.03,-0.01,1.11,-1.18,0.40,1.31,
0.603,-0.03,-0.01,1.11,-1.25,0.40,1.35,
0.603,-0.02,-0.01,1.10,-1.25,0.40,1.35,
0.603,-0.00,-0.00,1.11,-1.25,0.40,1.35,
0.604,-0.00,-0.00,1.11,-1.21,0.36,1.40,
0.604,0.00,-0.01,1.10,-1.21,0.36,1.40,
0.604,0.01,-0.02,1.10,-1.21,0.36,1.40,
0.604,0.01,-0.02,1.10,-1.01,0.40,1.35,
0.605,0.02,-0.03,1.09,-1.01,0.40,1.35,
0.607,0.02,-0.03,1.09,-1.01,0.40,1.35,
0.608,0.02,-0.03,1.09,-0.86,0.31,1.34,
0.615,0.04,-0.04,1.08,-0.86,0.31,1.34,
0.616,0.05,-0.05,1.08,-0.86,0.31,1.34,
0.616,0.05,-0.05,1.08,-0.72,0.17,1.20,
0.616,0.07,-0.05,1.07,-0.72,0.17,1.20,
0.617,0.09,-0.05,1.06,-0.72,0.17,1.20,
0.618,0.09,-0.05,1.06,-0.50,0.02,1.08,
0.619,0.11,-0.05,1.05,-0.50,0.02,1.08,
0.621,0.12,-0.03,1.04,-0.50,0.02,1.08,
0.623,0.12,-0.03,1.04,-0.16,-0.03,0.93,
0.636,0.13,-0.02,1.03,-0.16,-0.03,0.93,
0.637,0.14,-0.02,1.01,-0.16,-0.03,0.93,
0.637,0.14,-0.02,1.01,0.17,0.07,0.76,
0.637,0.14,-0.01,1.00,0.17,0.07,0.76,
0.638,0.14,0.00,0.99,0.17,0.07,0.76,
0.638,0.14,0.00,0.99,0.40,0.27,0.51,
0.638,0.13,0.01,0.98,0.40,0.27,0.51,
0.638,0.12,0.01,0.96,0.40,0.27,0.51,
0.639,0.12,0.01,0.96,0.43,0.43,0.24,
0.639,0.11,0.01,0.95,0.43,0.43,0.24,
0.647,0.10,0.01,0.94,0.43,0.43,0.24,
0.647,0.10,0.01,0.94,0.33,0.55,0.02,
0.648,0.09,0.00,0.94,0.33,0.55,0.02,
0.648,0.08,0.00,0.93,0.33,0.55,0.02,
0.648,0.08,0.00,0.93,0.15,0.53,-0.19,
0.649,0.06,0.00,0.93,0.15,0.53,-0.19,
0.651,0.06,0.00,0.93,-0.05,0.49,-0.34,
0.651,0.05,-0.00,0.92,-0.05,0.49,-0.34,
0.655,0.04,0.00,0.93,-0.05,0.49,-0.34,
0.657,0.03,0.01,0.93,-0.05,0.49,-0.34,
0.658,0.03,0.01,0.93,-0.26,0.46,-0.42,
0.662,0.03,0.01,0.94,-0.26,0.46,-0.42,
0.663,0.02,0.01,0.95,-0.26,0.46,-0.42,
0.663,0.02,0.01,0.95,-0.40,0.50,-0.38,
0.664,0.01,0.01,0.95,-0.40,0.50,-0.38,
0.667,0.01,0.01,0.95,-0.51,0.59,-0.26,
0.667,-0.00,0.01,0.96,-0.51,0.59,-0.26,
0.669,-0.02,0.00,0.96,-0.51,0.59,-0.26,
0.673,-0.02,-0.01,0.97,-0.51,0.59,-0.26,
0.673,-0.02,-0.01,0.97,-0.69,0.57,-0.17,
0.673,-0.03,-0.01,0.98,-0.69,0.57,-0.17,
0.68,-0.03,-0.02,0.99,-0.69,0.57,-0.17,
0.681,-0.03,-0.02,0.99,-0.89,0.46,-0.02,
0.681,-0.04,-0.04,0.99,-0.89,0.46,-0.02,
0.681,-0.04,-0.05,1.00,-0.89,0.46,-0.02,
0.681,-0.04,-0.05,1.00,-0.93,0.31,0.13,
0.684,-0.04,-0.06,1.01,-0.93,0.31,0.13,
0.686,-0.04,-0.06,1.03,-0.93,0.31,0.13,
0.687,-0.04,-0.06,1.03,-1.04,0.12,0.24,
0.689,-0.04,-0.07,1.05,-1.04,0.12,0.24,
0.691,-0.02,-0.08,1.07,-1.04,0.12,0.24,
0.692,-0.02,-0.08,1.07,-1.05,-0.03,0.46,
0.698,-0.02,-0.08,1.08,-1.05,-0.03,0.46,
0.699,-0.01,-0.09,1.10,-1.05,-0.03,0.46,
0.699,-0.01,-0.09,1.10,-0.91,-0.14,0.87,
0.699,0.00,-0.10,1.12,-0.91,-0.14,0.87,
0.701,0.01,-0.10,1.14,-0.91,-0.14,0.87,
0.702,0.01,-0.10,1.14,-0.76,-0.21,1.21,
0.704,0.02,-0.11,1.16,-0.76,-0.21,1.21,
0.706,0.03,-0.11,1.18,-0.76,-0.21,1.21,
0.707,0.03,-0.11,1.18,-0.57,-0.29,1.58,
0.708,0.04,-0.11,1.20,-0.57,-0.29,1.58,
0.719,0.05,-0.11,1.21,-0.57,-0.29,1.58,
0.72,0.05,-0.11,1.21,-0.40,-0.32,1.93,
0.72,0.05,-0.12,1.22,-0.40,-0.32,1.93,
0.721,0.05,-0.12,1.22,-0.22,-0.34,2.27,
0.721,0.06,-0.12,1.23,-0.22,-0.34,2.27,
0.721,0.06,-0.12,1.24,-0.22,-0.34,2.27,
0.721,0.06,-0.12,1.24,-0.22,-0.34,2.27,
0.721,0.06,-0.12,1.24,-0.10,-0.37,2.48,
0.723,0.07,-0.13,1.23,-0.10,-0.37,2.48,
0.733,0.07,-0.13,1.24,-0.10,-0.37,2.48,
0.734,0.07,-0.13,1.24,-0.00,-0.36,2.59,
0.734,0.08,-0.13,1.23,-0.00,-0.36,2.59,
0.735,0.09,-0.13,1.22,-0.00,-0.36,2.59,
0.735,0.09,-0.13,1.22,0.06,-0.36,2.56,
0.735,0.09,-0.12,1.22,0.06,-0.36,2.56,
0.735,0.09,-0.12,1.21,0.06,-0.36,2.56,
0.735,0.09,-0.12,1.21,0.20,-0.37,2.49,
0.739,0.09,-0.11,1.19,0.20,-0.37,2.49,
0.741,0.09,-0.11,1.19,0.27,-0.30,2.31,
0.742,0.10,-0.11,1.17,0.27,-0.30,2.31,
0.75,0.10,-0.10,1.16,0.27,-0.30,2.31,
0.751,0.10,-0.09,1.14,0.27,-0.30,2.31,
0.751,0.10,-0.09,1.14,0.33,-0.15,2.02,
0.751,0.10,-0.08,1.11,0.33,-0.15,2.02,
0.752,0.09,-0.07,1.10,0.33,-0.15,2.02,
0.752,0.09,-0.07,1.10,0.39,-0.03,1.67,
0.754,0.09,-0.06,1.08,0.39,-0.03,1.67,
0.756,0.08,-0.05,1.05,0.39,-0.03,1.67,
0.756,0.08,-0.05,1.05,0.36,0.13,1.25,
0.767,0.08,-0.04,1.04,0.36,0.13,1.25,
0.768,0.07,-0.03,1.00,0.36,0.13,1.25,
0.768,0.07,-0.03,1.00,0.30,0.35,0.87,
0.768,0.07,-0.03,0.98,0.30,0.35,0.87,
0.768,0.06,-0.03,0.95,0.30,0.35,0.87,
0.769,0.06,-0.03,0.95,0.23,0.49,0.41,
0.769,0.05,-0.03,0.92,0.23,0.49,0.41,
0.771,0.04,-0.03,0.90,0.23,0.49,0.41,
0.771,0.04,-0.03,0.90,0.10,0.54,-0.14,
0.773,0.03,-0.03,0.88,0.10,0.54,-0.14,
0.781,0.02,-0.04,0.86,0.10,0.54,-0.14,
0.781,0.02,-0.04,0.86,-0.04,0.50,-0.66,
0.781,0.02,-0.03,0.83,-0.04,0.50,-0.66,
0.782,0.02,-0.03,0.82,-0.04,0.50,-0.66,
0.782,0.02,-0.03,0.82,-0.20,0.42,-1.07,
0.783,0.02,-0.03,0.81,-0.20,0.42,-1.07,
0.786,0.02,-0.02,0.81,-0.20,0.42,-1.07,
0.786,0.02,-0.02,0.81,-0.23,0.43,-1.46,
0.788,0.01,-0.02,0.80,-0.23,0.43,-1.46,
0.791,0.01,-0.02,0.80,-0.22,0.49,-1.65,
0.791,0.01,-0.02,0.80,-0.22,0.49,-1.65,
0.797,0.01,-0.01,0.81,-0.22,0.49,-1.65,
0.797,0.01,-0.01,0.83,-0.22,0.49,-1.65,
0.798,0.01,-0.01,0.83,-0.30,0.55,-1.73,
0.798,-0.00,-0.01,0.84,-0.30,0.55,-1.73,
0.801,0.00,-0.01,0.85,-0.30,0.55,-1.73,
0.801,0.00,-0.01,0.85,-0.30,0.61,-1.55,
0.803,-0.00,-0.01,0.87,-0.30,0.61,-1.55,
0.805,-0.00,-0.02,0.89,-0.30,0.61,-1.55,
0.805,-0.00,-0.02,0.89,-0.35,0.62,-1.26,
0.808,-0.00,-0.02,0.91,-0.35,0.62,-1.26,
0.82,0.00,-0.03,0.93,-0.35,0.62,-1.26,
0.82,0.00,-0.03,0.93,-0.35,0.62,-0.93,
0.82,0.00,-0.03,0.95,-0.35,0.62,-0.93,
0.821,0.01,-0.04,0.98,-0.35,0.62,-0.93,
0.821,0.01,-0.04,0.98,-0.32,0.56,-0.52,
0.821,0.02,-0.05,1.00,-0.32,0.56,-0.52,
0.821,0.03,-0.06,1.02,-0.32,0.56,-0.52,
0.824,0.03,-0.06,1.02,-0.22,0.47,-0.11,
0.824,0.03,-0.06,1.04,-0.22,0.47,-0.11,
0.825,0.04,-0.08,1.06,-0.22,0.47,-0.11,
0.825,0.04,-0.08,1.06,-0.04,0.30,0.35,
0.835,0.04,-0.09,1.08,-0.04,0.30,0.35,
0.836,0.04,-0.10,1.08,-0.04,0.30,0.35,
0.836,0.04,-0.10,1.08,0.04,0.19,0.72,
0.836,0.03,-0.12,1.09,0.04,0.19,0.72,
0.836,0.03,-0.13,1.11,0.04,0.19,0.72,
0.837,0.03,-0.13,1.11,0.08,-0.04,1.02,
0.837,0.02,-0.15,1.13,0.08,-0.04,1.02,
0.84,0.02,-0.16,1.14,0.08,-0.04,1.02,
0.841,0.02,-0.16,1.14,0.03,-0.29,1.25,
0.852,0.02,-0.15,1.15,0.03,-0.29,1.25,
0.852,0.02,-0.15,1.17,0.03,-0.29,1.25,
0.853,0.02,-0.15,1.17,-0.03,-0.53,1.53,
0.853,0.02,-0.15,1.19,-0.03,-0.53,1.53,
0.853,0.01,-0.16,1.20,-0.03,-0.53,1.53,
0.853,0.01,-0.16,1.20,-0.02,-0.50,1.78,
0.854,-0.00,-0.16,1.21,-0.02,-0.50,1.78,
0.854,-0.01,-0.16,1.22,-0.02,-0.50,1.78,
0.855,-0.01,-0.16,1.22,-0.10,-0.51,2.10,
0.857,-0.01,-0.15,1.24,-0.10,-0.51,2.10,
0.865,-0.02,-0.15,1.26,-0.10,-0.51,2.10,
0.865,-0.02,-0.15,1.26,-0.23,-0.49,2.36,
0.866,-0.03,-0.14,1.27,-0.23,-0.49,2.36,
0.866,-0.03,-0.14,1.29,-0.23,-0.49,2.36,
0.866,-0.03,-0.14,1.29,-0.32,-0.39,2.65,
0.867,-0.04,-0.14,1.31,-0.32,-0.39,2.65,
0.869,-0.04,-0.14,1.33,-0.32,-0.39,2.65,
0.869,-0.04,-0.14,1.33,-0.44,-0.29,2.99,
0.872,-0.05,-0.14,1.35,-0.44,-0.29,2.99,
0.874,-0.04,-0.14,1.37,-0.44,-0.29,2.99,
0.874,-0.04,-0.14,1.37,-0.52,-0.29,3.37,
0.88,-0.04,-0.14,1.38,-0.52,-0.29,3.37,
0.881,-0.04,-0.14,1.39,-0.52,-0.29,3.37,
0.881,-0.04,-0.14,1.39,-0.55,-0.25,3.71,
0.881,-0.04,-0.14,1.40,-0.55,-0.25,3.71,
0.884,-0.04,-0.13,1.40,-0.55,-0.25,3.71,
0.884,-0.04,-0.13,1.40,-0.48,-0.21,3.93,
0.887,-0.03,-0.14,1.40,-0.48,-0.21,3.93,
0.889,-0.03,-0.14,1.41,-0.48,-0.21,3.93,
0.889,-0.03,-0.14,1.41,-0.43,-0.18,4.10,
0.892,-0.02,-0.14,1.40,-0.43,-0.18,4.10,
0.897,-0.02,-0.13,1.40,-0.43,-0.18,4.10,
0.897,-0.02,-0.13,1.40,-0.33,-0.19,4.13,
0.898,-0.01,-0.13,1.39,-0.33,-0.19,4.13,
0.899,-0.00,-0.13,1.39,-0.33,-0.19,4.13,
0.899,-0.00,-0.13,1.39,-0.23,-0.19,4.08,
0.901,0.01,-0.12,1.37,-0.23,-0.19,4.08,
0.904,0.02,-0.11,1.36,-0.23,-0.19,4.08,
0.904,0.02,-0.11,1.36,-0.03,-0.08,3.92,
0.906,0.02,-0.11,1.35,-0.03,-0.08,3.92,
0.916,0.03,-0.11,1.34,-0.03,-0.08,3.92,
0.916,0.03,-0.11,1.34,0.18,0.03,3.71,
0.916,0.03,-0.11,1.33,0.18,0.03,3.71,
0.917,0.03,-0.11,1.32,0.18,0.03,3.71,
0.917,0.03,-0.11,1.32,0.29,0.06,3.50,
0.917,0.04,-0.10,1.31,0.29,0.06,3.50,
0.918,0.04,-0.10,1.31,0.29,0.06,3.50,
0.919,0.04,-0.10,1.31,0.33,0.08,3.30,
0.921,0.04,-0.09,1.30,0.33,0.08,3.30,
0.924,0.04,-0.08,1.29,0.33,0.08,3.30,
0.925,0.04,-0.08,1.29,0.41,0.13,3.11,
0.936,0.04,-0.07,1.29,0.41,0.13,3.11,
0.937,0.04,-0.07,1.28,0.41,0.13,3.11,
0.938,0.04,-0.07,1.28,0.43,0.27,2.95,
0.938,0.03,-0.06,1.28,0.43,0.27,2.95,
0.938,0.03,-0.06,1.28,0.44,0.42,2.85,
0.938,0.02,-0.06,1.28,0.44,0.42,2.85,
0.939,0.02,-0.06,1.27,0.44,0.42,2.85,
0.939,0.02,-0.06,1.27,0.29,0.51,2.78,
0.94,0.01,-0.06,1.27,0.29,0.51,2.78,
0.941,0.00,-0.06,1.28,0.29,0.51,2.78,
0.951,-0.00,-0.06,1.29,0.29,0.51,2.78,
0.952,-0.00,-0.06,1.29,0.15,0.51,2.71,
0.952,-0.01,-0.06,1.29,0.15,0.51,2.71,
0.952,-0.01,-0.06,1.29,0.15,0.51,2.71,
0.953,-0.01,-0.06,1.29,0.02,0.48,2.79,
0.953,-0.01,-0.06,1.29,0.02,0.48,2.79,
0.953,-0.01,-0.06,1.29,0.02,0.48,2.79,
0.954,-0.01,-0.06,1.29,-0.05,0.43,2.85,
0.956,-0.00,-0.06,1.30,-0.05,0.43,2.85,
0.958,-0.00,-0.06,1.30,-0.05,0.43,2.85,
0.958,-0.00,-0.06,1.30,-0.05,0.45,2.86,
0.968,-0.01,-0.06,1.30,-0.05,0.45,2.86,
0.969,-0.01,-0.06,1.31,-0.05,0.45,2.86,
0.969,-0.01,-0.06,1.31,-0.02,0.43,2.90,
0.969,-0.01,-0.07,1.30,-0.02,0.43,2.90,
0.97,-0.01,-0.07,1.31,-0.02,0.43,2.90,
0.97,-0.01,-0.07,1.31,-0.05,0.41,2.98,
0.971,-0.01,-0.07,1.30,-0.05,0.41,2.98,
0.973,-0.01,-0.07,1.30,-0.05,0.41,2.98,
0.973,-0.01,-0.07,1.30,-0.08,0.34,2.97,
0.987,-0.01,-0.07,1.30,-0.08,0.34,2.97,
0.988,-0.01,-0.07,1.30,-0.08,0.34,2.97,
0.988,-0.01,-0.07,1.30,-0.08,0.31,2.94,
0.989,-0.01,-0.07,1.30,-0.08,0.31,2.94,
0.989,-0.00,-0.07,1.29,-0.08,0.31,2.94,
0.989,-0.00,-0.07,1.29,-0.09,0.27,2.92,
0.991,-0.00,-0.07,1.28,-0.09,0.27,2.92,
0.991,-0.00,-0.07,1.27,-0.09,0.27,2.92,
0.992,-0.00,-0.07,1.27,-0.05,0.23,2.81,
0.993,0.00,-0.06,1.26,-0.05,0.23,2.81,
0.994,0.00,-0.06,1.25,-0.05,0.23,2.81,
0.995,0.00,-0.06,1.25,-0.03,0.25,2.64,
0.996,0.01,-0.07,1.24,-0.03,0.25,2.64,
0.998,0.01,-0.08,1.23,-0.03,0.25,2.64,
0.999,0.01,-0.08,1.23,0.01,0.26,2.45,
1.001,0.01,-0.07,1.22,0.01,0.26,2.45,
1.004,0.02,-0.07,1.20,0.01,0.26,2.45,
1.004,0.02,-0.07,1.20,0.03,0.14,2.17,
1.006,0.02,-0.07,1.19,0.03,0.14,2.17,
1.008,0.02,-0.06,1.18,0.03,0.14,2.17,
1.009,0.02,-0.06,1.18,0.10,0.14,1.94,
1.016,0.03,-0.06,1.17,0.10,0.14,1.94,
1.016,0.03,-0.06,1.16,0.10,0.14,1.94,
1.017,0.03,-0.06,1.16,0.18,0.16,1.71,
1.017,0.03,-0.05,1.15,0.18,0.16,1.71,
1.018,0.03,-0.05,1.15,0.18,0.16,1.71,
1.018,0.03,-0.05,1.15,0.21,0.19,1.49,
1.021,0.03,-0.06,1.14,0.21,0.19,1.49,
1.023,0.03,-0.05,1.14,0.21,0.19,1.49,
1.023,0.03,-0.05,1.14,0.26,0.22,1.36,
1.026,0.04,-0.05,1.14,0.26,0.22,1.36,
1.036,0.03,-0.05,1.14,0.26,0.22,1.36,
1.036,0.03,-0.05,1.14,0.26,0.19,1.23,
1.036,0.03,-0.05,1.14,0.26,0.19,1.23,
1.036,0.03,-0.05,1.14,0.26,0.19,1.23,
1.037,0.03,-0.05,1.14,0.27,0.22,1.22,
1.037,0.03,-0.05,1.15,0.27,0.22,1.22,
1.038,0.02,-0.05,1.15,0.27,0.22,1.22,
1.038,0.02,-0.05,1.15,0.22,0.16,1.25,
1.041,0.02,-0.05,1.15,0.22,0.16,1.25,
1.043,0.01,-0.05,1.15,0.22,0.16,1.25,
1.043,0.01,-0.05,1.15,0.15,0.15,1.29,
1.051,0.01,-0.05,1.15,0.15,0.15,1.29,
1.052,0.01,-0.05,1.16,0.15,0.15,1.29,
1.052,0.01,-0.05,1.16,0.09,0.10,1.33,
1.053,0.00,-0.05,1.15,0.09,0.10,1.33,
1.053,0.00,-0.05,1.15,0.09,0.10,1.33,
1.053,0.00,-0.05,1.15,0.01,0.10,1.37,
1.056,-0.00,-0.04,1.15,0.01,0.10,1.37,
1.058,-0.00,-0.04,1.15,-0.07,0.08,1.32,
1.058,-0.00,-0.04,1.14,-0.07,0.08,1.32,
1.069,-0.00,-0.04,1.14,-0.07,0.08,1.32,
1.069,-0.00,-0.04,1.14,-0.11,0.12,1.25,
1.069,-0.00,-0.03,1.14,-0.11,0.12,1.25,
1.07,-0.01,-0.03,1.13,-0.11,0.12,1.25,
1.07,-0.01,-0.02,1.12,-0.11,0.12,1.25,
1.07,-0.01,-0.02,1.12,-0.15,0.18,1.18,
1.07,-0.01,-0.02,1.11,-0.15,0.18,1.18,
1.073,-0.01,-0.02,1.11,-0.15,0.18,1.18,
1.073,-0.01,-0.02,1.11,-0.21,0.24,1.06,
1.075,-0.02,-0.01,1.10,-0.21,0.24,1.06,
1.083,-0.03,-0.01,1.09,-0.21,0.24,1.06,
1.083,-0.03,-0.01,1.09,-0.24,0.27,0.92,
1.084,-0.03,-0.01,1.09,-0.24,0.27,0.92,
1.084,-0.02,-0.00,1.08,-0.24,0.27,0.92,
1.084,-0.02,-0.00,1.08,-0.36,0.33,0.77,
1.084,-0.02,0.00,1.08,-0.36,0.33,0.77,
1.088,-0.02,0.00,1.08,-0.37,0.35,0.68,
1.088,-0.01,-0.00,1.07,-0.37,0.35,0.68,
1.09,-0.01,-0.00,1.06,-0.37,0.35,0.68,
1.092,-0.02,-0.00,1.06,-0.37,0.35,0.68,
1.093,-0.02,-0.00,1.06,-0.28,0.35,0.55,
1.099,-0.01,0.00,1.07,-0.28,0.35,0.55,
1.099,-0.00,0.01,1.07,-0.28,0.35,0.55,
1.1,-0.00,0.01,1.07,-0.29,0.30,0.44,
1.1,0.01,0.01,1.07,-0.29,0.30,0.44,
1.103,0.01,0.00,1.07,-0.29,0.30,0.44,
1.103,0.01,0.00,1.07,-0.21,0.35,0.49,
1.104,0.01,0.00,1.07,-0.21,0.35,0.49,
1.107,0.01,-0.00,1.07,-0.21,0.35,0.49,
1.108,0.01,-0.00,1.07,-0.10,0.31,0.49,
1.11,0.01,-0.01,1.08,-0.10,0.31,0.49,
1.117,0.01,-0.01,1.08,-0.08,0.23,0.52,
1.118,0.00,-0.01,1.08,-0.08,0.23,0.52,
1.118,-0.01,-0.02,1.08,-0.08,0.23,0.52,
1.118,-0.01,-0.02,1.08,-0.08,0.23,0.52,
1.118,-0.01,-0.02,1.08,-0.13,0.12,0.55,
1.12,-0.01,-0.02,1.08,-0.13,0.12,0.55,
1.122,-0.02,-0.02,1.09,-0.13,0.12,0.55,
1.122,-0.02,-0.02,1.09,-0.24,0.02,0.60,
1.124,-0.02,-0.02,1.09,-0.24,0.02,0.60,
1.127,-0.03,-0.01,1.09,-0.24,0.02,0.60,
1.127,-0.03,-0.01,1.09,-0.34,-0.02,0.65,
1.133,-0.03,-0.01,1.09,-0.34,-0.02,0.65,
1.134,-0.03,0.00,1.08,-0.34,-0.02,0.65,
1.135,-0.03,0.00,1.08,-0.42,-0.05,0.69,
1.135,-0.03,0.01,1.08,-0.42,-0.05,0.69,
1.136,-0.03,0.01,1.08,-0.42,-0.05,0.69,
1.137,-0.03,0.01,1.08,-0.48,0.06,0.63,
1.139,-0.03,0.01,1.08,-0.48,0.06,0.63,
1.141,-0.03,0.03,1.08,-0.48,0.06,0.63,
1.141,-0.03,0.03,1.08,-0.50,0.12,0.59,
1.154,-0.03,0.03,1.08,-0.50,0.12,0.59,
1.154,-0.03,0.03,1.07,-0.50,0.12,0.59,
1.155,-0.03,0.03,1.07,-0.49,0.23,0.58,
1.155,-0.04,0.05,1.07,-0.49,0.23,0.58,
1.157,-0.04,0.06,1.06,-0.49,0.23,0.58,
1.158,-0.04,0.06,1.06,-0.54,0.31,0.55,
1.158,-0.05,0.06,1.06,-0.54,0.31,0.55,
1.158,-0.05,0.07,1.05,-0.54,0.31,0.55,
1.158,-0.05,0.07,1.05,-0.61,0.47,0.44,
1.159,-0.05,0.08,1.05,-0.61,0.47,0.44,
1.169,-0.05,0.08,1.03,-0.61,0.47,0.44,
1.169,-0.05,0.08,1.03,-0.69,0.59,0.35,
1.17,-0.05,0.09,1.03,-0.69,0.59,0.35,
1.17,-0.05,0.09,1.01,-0.69,0.59,0.35,
1.17,-0.05,0.09,1.01,-0.73,0.65,0.18,
1.17,-0.05,0.09,0.99,-0.73,0.65,0.18,
1.172,-0.05,0.09,0.99,-0.73,0.65,0.18,
1.172,-0.05,0.09,0.99,-0.78,0.71,-0.04,
1.174,-0.06,0.08,0.98,-0.78,0.71,-0.04,
1.176,-0.06,0.08,0.97,-0.78,0.71,-0.04,
1.176,-0.06,0.08,0.97,-0.77,0.65,-0.31,
1.185,-0.05,0.07,0.96,-0.77,0.65,-0.31,
1.186,-0.04,0.06,0.96,-0.77,0.65,-0.31,
1.186,-0.04,0.06,0.96,-0.89,0.52,-0.46,
1.187,-0.05,0.05,0.96,-0.89,0.52,-0.46,
1.187,-0.04,0.05,0.96,-0.89,0.52,-0.46,
1.187,-0.04,0.05,0.96,-0.75,0.37,-0.58,
1.189,-0.03,0.04,0.96,-0.75,0.37,-0.58,
1.191,-0.03,0.03,0.97,-0.75,0.37,-0.58,
1.191,-0.03,0.03,0.97,-0.69,0.17,-0.58,
1.2,-0.02,0.02,0.98,-0.69,0.17,-0.58,
1.201,-0.01,0.02,0.99,-0.69,0.17,-0.58,
1.201,-0.01,0.02,0.99,-0.59,-0.00,-0.52,
1.201,-0.01,0.01,1.00,-0.59,-0.00,-0.52,
1.201,-0.01,-0.00,1.01,-0.59,-0.00,-0.52,
1.202,-0.01,-0.00,1.01,-0.44,-0.14,-0.37,
1.203,-0.01,-0.00,1.02,-0.44,-0.14,-0.37,
1.206,-0.01,-0.01,1.03,-0.44,-0.14,-0.37,
1.206,-0.01,-0.01,1.03,-0.41,-0.33,-0.11,
1.208,-0.01,-0.01,1.04,-0.41,-0.33,-0.11,
1.215,-0.00,-0.01,1.05,-0.41,-0.33,-0.11,
1.216,-0.00,-0.01,1.05,-0.39,-0.49,0.05,
1.216,-0.01,-0.01,1.04,-0.39,-0.49,0.05,
1.216,-0.01,-0.00,1.04,-0.39,-0.49,0.05,
1.217,-0.01,-0.00,1.04,-0.33,-0.53,0.22,
1.218,-0.01,0.00,1.04,-0.33,-0.53,0.22,
1.22,-0.01,0.00,1.04,-0.33,-0.53,0.22,
1.221,-0.01,0.00,1.04,-0.34,-0.54,0.24,
1.223,-0.01,0.01,1.04,-0.34,-0.54,0.24,
1.225,-0.01,0.01,1.04,-0.34,-0.54,0.24,
1.226,-0.01,0.01,1.04,-0.38,-0.48,0.23,
1.234,-0.01,0.01,1.04,-0.38,-0.48,0.23,
1.234,-0.01,0.02,1.04,-0.38,-0.48,0.23,
1.235,-0.01,0.02,1.04,-0.38,-0.46,0.23,
1.235,-0.00,0.01,1.04,-0.38,-0.46,0.23,
1.236,0.00,0.02,1.03,-0.38,-0.46,0.23,
1.237,0.00,0.02,1.03,-0.35,-0.43,0.21,
1.238,0.00,0.02,1.02,-0.35,-0.43,0.21,
1.24,0.01,0.02,1.01,-0.35,-0.43,0.21,
1.24,0.01,0.02,1.01,-0.28,-0.44,0.14,
1.243,0.01,0.03,1.00,-0.28,-0.44,0.14,
1.255,0.01,0.04,1.00,-0.28,-0.44,0.14,
1.256,0.01,0.04,1.00,-0.22,-0.44,-0.00,
1.256,0.01,0.04,0.99,-0.22,-0.44,-0.00,
1.257,0.01,0.04,0.97,-0.22,-0.44,-0.00,
1.257,0.01,0.04,0.97,-0.19,-0.33,-0.17,
1.257,0.01,0.05,0.96,-0.19,-0.33,-0.17,
1.257,0.01,0.06,0.94,-0.19,-0.33,-0.17,
1.258,0.01,0.06,0.94,-0.18,-0.30,-0.38,
1.258,0.00,0.06,0.93,-0.18,-0.30,-0.38,
1.268,0.00,0.06,0.93,-0.19,-0.24,-0.66,
1.269,-0.00,0.07,0.91,-0.19,-0.24,-0.66,
1.269,-0.01,0.07,0.89,-0.19,-0.24,-0.66,
1.27,-0.01,0.08,0.88,-0.19,-0.24,-0.66,
1.27,-0.01,0.08,0.88,-0.32,-0.21,-0.96,
1.27,-0.01,0.09,0.87,-0.32,-0.21,-0.96,
1.27,-0.01,0.09,0.86,-0.32,-0.21,-0.96,
1.27,-0.01,0.09,0.86,-0.38,-0.13,-1.26,
1.273,-0.02,0.09,0.85,-0.38,-0.13,-1.26,
1.275,-0.03,0.09,0.85,-0.38,-0.13,-1.26,
1.276,-0.03,0.09,0.85,-0.42,-0.04,-1.48,
1.286,-0.03,0.09,0.84,-0.42,-0.04,-1.48,
1.287,-0.04,0.08,0.83,-0.42,-0.04,-1.48,
1.287,-0.04,0.08,0.83,-0.55,-0.05,-1.63,
1.287,-0.05,0.08,0.83,-0.55,-0.05,-1.63,
1.288,-0.04,0.07,0.83,-0.55,-0.05,-1.63,
1.288,-0.04,0.07,0.83,-0.70,-0.15,-1.76,
1.288,-0.04,0.07,0.83,-0.70,-0.15,-1.76,
1.29,-0.04,0.06,0.83,-0.70,-0.15,-1.76,
1.29,-0.04,0.06,0.83,-0.78,-0.23,-1.81,
1.292,-0.03,0.06,0.84,-0.78,-0.23,-1.81,
1.301,-0.03,0.05,0.86,-0.78,-0.23,-1.81,
1.301,-0.03,0.05,0.86,-0.75,-0.41,-1.77,
1.302,-0.03,0.05,0.88,-0.75,-0.41,-1.77,
1.302,-0.02,0.05,0.90,-0.75,-0.41,-1.77,
1.302,-0.02,0.05,0.90,-0.62,-0.53,-1.57,
1.302,-0.01,0.05,0.92,-0.62,-0.53,-1.57,
1.305,-0.01,0.05,0.94,-0.62,-0.53,-1.57,
1.305,-0.01,0.05,0.94,-0.53,-0.59,-1.18,
1.307,-0.01,0.05,0.96,-0.53,-0.59,-1.18,
1.31,-0.00,0.04,0.97,-0.53,-0.59,-1.18,
1.31,-0.00,0.04,0.97,-0.41,-0.58,-0.79,
1.315,0.01,0.05,0.97,-0.41,-0.58,-0.79,
1.316,0.02,0.05,0.97,-0.41,-0.58,-0.79,
1.318,0.02,0.05,0.97,-0.33,-0.64,-0.44,
1.318,0.02,0.05,0.99,-0.33,-0.64,-0.44,
1.32,0.02,0.05,0.99,-0.33,-0.64,-0.44,
1.32,0.02,0.05,0.99,-0.17,-0.64,-0.38,
1.322,0.03,0.05,0.99,-0.17,-0.64,-0.38,
1.324,0.03,0.06,1.00,-0.17,-0.64,-0.38,
1.325,0.03,0.06,1.00,-0.06,-0.63,-0.22,
1.335,0.03,0.06,1.00,-0.06,-0.63,-0.22,
1.335,0.04,0.07,1.01,-0.06,-0.63,-0.22,
1.335,0.04,0.07,1.01,0.00,-0.59,-0.13,
1.336,0.04,0.07,1.01,0.00,-0.59,-0.13,
1.336,0.04,0.07,1.01,0.00,-0.59,-0.13,
1.336,0.04,0.07,1.01,0.07,-0.52,-0.05,
1.338,0.04,0.08,1.01,0.07,-0.52,-0.05,
1.34,0.03,0.08,1.01,0.07,-0.52,-0.05,
1.34,0.03,0.08,1.01,0.10,-0.43,-0.01,
1.344,0.03,0.08,1.00,0.10,-0.43,-0.01,
1.344,0.02,0.09,0.99,0.10,-0.43,-0.01,
1.344,0.02,0.09,0.99,0.04,-0.40,-0.01,
1.356,0.01,0.09,0.98,0.04,-0.40,-0.01,
1.357,-0.00,0.10,0.97,0.04,-0.40,-0.01,
1.358,-0.00,0.10,0.97,-0.08,-0.37,-0.12,
1.358,-0.01,0.10,0.95,-0.08,-0.37,-0.12,
1.358,-0.02,0.10,0.94,-0.08,-0.37,-0.12,
1.359,-0.02,0.10,0.94,-0.27,-0.30,-0.31,
1.359,-0.03,0.10,0.92,-0.27,-0.30,-0.31,
1.36,-0.04,0.10,0.90,-0.27,-0.30,-0.31,
1.36,-0.04,0.10,0.90,-0.43,-0.30,-0.59,
1.366,-0.05,0.10,0.88,-0.43,-0.30,-0.59,
1.366,-0.06,0.10,0.86,-0.43,-0.30,-0.59,
1.367,-0.06,0.10,0.86,-0.63,-0.30,-0.93,
1.367,-0.07,0.10,0.85,-0.63,-0.30,-0.93,
1.37,-0.08,0.10,0.84,-0.63,-0.30,-0.93,
1.37,-0.08,0.10,0.84,-0.82,-0.34,-1.32,
1.372,-0.08,0.10,0.83,-0.82,-0.34,-1.32,
1.374,-0.08,0.11,0.82,-0.82,-0.34,-1.32,
1.374,-0.08,0.11,0.82,-1.02,-0.39,-1.56,
1.377,-0.09,0.11,0.82,-1.02,-0.39,-1.56,
1.385,-0.09,0.11,0.82,-1.02,-0.39,-1.56,
1.386,-0.09,0.11,0.82,-1.09,-0.34,-1.76,
1.386,-0.09,0.11,0.83,-1.09,-0.34,-1.76,
1.386,-0.09,0.11,0.83,-1.16,-0.32,-1.81,
1.387,-0.08,0.11,0.83,-1.16,-0.32,-1.81,
1.387,-0.08,0.12,0.84,-1.16,-0.32,-1.81,
1.39,-0.07,0.12,0.85,-1.16,-0.32,-1.81,
1.39,-0.07,0.12,0.85,-1.13,-0.29,-1.70,
1.392,-0.07,0.13,0.85,-1.13,-0.29,-1.70,
1.394,-0.06,0.13,0.86,-1.13,-0.29,-1.70,
1.395,-0.06,0.13,0.86,-1.03,-0.21,-1.53,
1.402,-0.06,0.13,0.87,-1.03,-0.21,-1.53,
1.403,-0.06,0.14,0.87,-1.03,-0.21,-1.53,
1.403,-0.06,0.14,0.87,-0.90,-0.16,-1.41,
1.404,-0.05,0.14,0.88,-0.90,-0.16,-1.41,
1.404,-0.05,0.14,0.88,-0.90,-0.16,-1.41,
1.404,-0.05,0.14,0.88,-0.82,-0.10,-1.29,
1.407,-0.05,0.13,0.89,-0.82,-0.10,-1.29,
1.409,-0.04,0.13,0.89,-0.82,-0.10,-1.29,
1.41,-0.04,0.13,0.89,-0.74,-0.10,-1.18,
1.417,-0.04,0.13,0.90,-0.74,-0.10,-1.18,
1.418,-0.02,0.12,0.90,-0.74,-0.10,-1.18,
1.418,-0.02,0.12,0.90,-0.65,-0.19,-1.07,
1.418,-0.02,0.12,0.90,-0.65,-0.19,-1.07,
1.418,-0.01,0.11,0.90,-0.65,-0.19,-1.07,
1.419,-0.01,0.11,0.90,-0.49,-0.27,-1.00,
1.422,-0.01,0.12,0.90,-0.49,-0.27,-1.00,
1.424,-0.01,0.11,0.90,-0.49,-0.27,-1.00,
1.425,-0.01,0.11,0.90,-0.34,-0.38,-1.01,
1.427,-0.00,0.11,0.90,-0.34,-0.38,-1.01,
1.433,-0.00,0.12,0.91,-0.34,-0.38,-1.01,
1.434,-0.00,0.12,0.91,-0.24,-0.39,-0.96,
1.434,0.00,0.12,0.91,-0.24,-0.39,-0.96,
1.434,0.01,0.12,0.91,-0.24,-0.39,-0.96,
1.435,0.01,0.12,0.91,-0.18,-0.40,-0.93,
1.437,0.01,0.13,0.90,-0.18,-0.40,-0.93,
1.439,0.02,0.13,0.91,-0.18,-0.40,-0.93,
1.44,0.02,0.13,0.91,-0.08,-0.37,-0.88,
1.442,0.02,0.14,0.90,-0.08,-0.37,-0.88,
1.444,0.02,0.13,0.89,-0.08,-0.37,-0.88,
1.444,0.02,0.13,0.89,-0.01,-0.32,-0.91,
1.45,0.02,0.14,0.89,-0.01,-0.32,-0.91,
1.45,0.02,0.14,0.89,-0.01,-0.32,-0.91,
1.451,0.02,0.14,0.89,0.07,-0.26,-0.98,
1.451,0.01,0.14,0.88,0.07,-0.26,-0.98,
1.454,0.00,0.14,0.88,0.07,-0.26,-0.98,
1.454,0.00,0.14,0.88,0.06,-0.25,-1.04,
1.456,-0.00,0.14,0.87,0.06,-0.25,-1.04,
1.459,-0.02,0.14,0.86,0.06,-0.25,-1.04,
1.459,-0.02,0.14,0.86,-0.08,-0.21,-1.14,
1.461,-0.02,0.14,0.86,-0.08,-0.21,-1.14,
1.472,-0.04,0.15,0.85,-0.08,-0.21,-1.14,
1.472,-0.04,0.15,0.85,-0.26,-0.25,-1.27,
1.473,-0.05,0.15,0.84,-0.26,-0.25,-1.27,
1.473,-0.05,0.15,0.84,-0.46,-0.24,-1.37,
1.473,-0.06,0.17,0.84,-0.46,-0.24,-1.37,
1.473,-0.06,0.18,0.83,-0.46,-0.24,-1.37,
1.474,-0.06,0.18,0.83,-0.46,-0.24,-1.37,
1.474,-0.06,0.18,0.83,-0.66,-0.07,-1.52,
1.476,-0.06,0.18,0.83,-0.66,-0.07,-1.52,
1.478,-0.06,0.18,0.82,-0.66,-0.07,-1.52,
1.479,-0.06,0.18,0.82,-0.74,0.09,-1.59,
1.481,-0.05,0.17,0.83,-0.74,0.09,-1.59,
1.487,-0.05,0.16,0.83,-0.74,0.09,-1.59,
1.487,-0.05,0.16,0.83,-0.71,0.05,-1.65,
1.487,-0.06,0.15,0.83,-0.71,0.05,-1.65,
1.489,-0.06,0.14,0.84,-0.71,0.05,-1.65,
1.489,-0.06,0.14,0.84,-0.68,-0.10,-1.61,
1.491,-0.05,0.13,0.85,-0.68,-0.10,-1.61,
1.494,-0.06,0.12,0.85,-0.68,-0.10,-1.61,
1.494,-0.06,0.12,0.85,-0.73,-0.30,-1.54,
1.506,-0.05,0.11,0.86,-0.73,-0.30,-1.54,
1.507,-0.04,0.12,0.88,-0.73,-0.30,-1.54,
1.507,-0.04,0.12,0.88,-0.68,-0.46,-1.37,
1.508,-0.04,0.12,0.90,-0.68,-0.46,-1.37,
1.508,-0.03,0.12,0.90,-0.68,-0.46,-1.37,
1.508,-0.03,0.12,0.90,-0.61,-0.53,-1.17,
1.508,-0.02,0.12,0.91,-0.61,-0.53,-1.17,
1.509,-0.02,0.12,0.93,-0.61,-0.53,-1.17,
1.509,-0.02,0.12,0.93,-0.48,-0.50,-0.88,
1.51,-0.01,0.12,0.95,-0.48,-0.50,-0.88,
1.517,-0.01,0.13,0.95,-0.48,-0.50,-0.88,
1.518,-0.01,0.13,0.95,-0.33,-0.51,-0.67,
1.518,-0.00,0.12,0.96,-0.33,-0.51,-0.67,
1.518,-0.00,0.12,0.97,-0.33,-0.51,-0.67,
1.519,-0.00,0.12,0.97,-0.19,-0.44,-0.40,
1.52,0.00,0.11,0.98,-0.19,-0.44,-0.40,
1.522,-0.00,0.11,0.99,-0.19,-0.44,-0.40,
1.523,-0.00,0.11,0.99,-0.15,-0.50,-0.25,
1.525,-0.00,0.11,0.99,-0.15,-0.50,-0.25,
1.527,0.00,0.11,0.99,-0.15,-0.50,-0.25,
1.528,0.00,0.11,0.99,-0.12,-0.54,-0.09,
1.533,0.00,0.11,0.98,-0.12,-0.54,-0.09,
1.534,0.01,0.12,0.98,-0.12,-0.54,-0.09,
1.534,0.01,0.12,0.98,-0.11,-0.58,-0.06,
1.535,0.00,0.12,0.97,-0.11,-0.58,-0.06,
1.537,-0.00,0.13,0.96,-0.11,-0.58,-0.06,
1.538,-0.00,0.13,0.96,-0.05,-0.53,-0.10,
1.54,-0.00,0.13,0.95,-0.05,-0.53,-0.10,
1.542,-0.01,0.14,0.93,-0.05,-0.53,-0.10,
1.542,-0.01,0.14,0.93,-0.12,-0.48,-0.27,
1.55,-0.01,0.14,0.93,-0.12,-0.48,-0.27,
1.551,-0.01,0.15,0.91,-0.12,-0.48,-0.27,
1.551,-0.01,0.15,0.91,-0.13,-0.38,-0.48,
1.551,-0.02,0.15,0.90,-0.13,-0.38,-0.48,
1.552,-0.02,0.16,0.89,-0.13,-0.38,-0.48,
1.553,-0.02,0.16,0.89,-0.20,-0.30,-0.68,
1.555,-0.03,0.16,0.88,-0.20,-0.30,-0.68,
1.557,-0.03,0.16,0.88,-0.28,-0.20,-0.91,
1.558,-0.03,0.17,0.87,-0.28,-0.20,-0.91,
1.56,-0.05,0.17,0.86,-0.28,-0.20,-0.91,
1.57,-0.05,0.17,0.86,-0.28,-0.20,-0.91,
1.571,-0.05,0.17,0.86,-0.40,-0.13,-1.11,
1.571,-0.05,0.16,0.85,-0.40,-0.13,-1.11,
1.571,-0.05,0.16,0.84,-0.40,-0.13,-1.11,
1.571,-0.05,0.16,0.84,-0.54,-0.11,-1.26,
1.572,-0.05,0.16,0.85,-0.54,-0.11,-1.26,
1.572,-0.05,0.15,0.85,-0.54,-0.11,-1.26,
1.572,-0.05,0.15,0.85,-0.61,-0.19,-1.39,
1.575,-0.04,0.14,0.85,-0.61,-0.19,-1.39,
1.577,-0.04,0.13,0.85,-0.61,-0.19,-1.39,
1.577,-0.04,0.13,0.85,-0.59,-0.26,-1.38,
1.59,-0.04,0.12,0.86,-0.59,-0.26,-1.38,
1.591,-0.04,0.11,0.87,-0.59,-0.26,-1.38,
1.592,-0.04,0.11,0.87,-0.48,-0.44,-1.32,
1.592,-0.04,0.11,0.88,-0.48,-0.44,-1.32,
1.592,-0.04,0.10,0.89,-0.48,-0.44,-1.32,
1.592,-0.04,0.10,0.89,-0.49,-0.60,-1.24,
1.593,-0.04,0.10,0.90,-0.49,-0.60,-1.24,
1.593,-0.04,0.10,0.91,-0.49,-0.60,-1.24,
1.593,-0.04,0.10,0.91,-0.45,-0.73,-1.00,
1.594,-0.03,0.09,0.93,-0.45,-0.73,-1.00,
1.603,-0.03,0.09,0.94,-0.45,-0.73,-1.00,
1.603,-0.03,0.09,0.94,-0.42,-0.78,-0.78,
1.604,-0.03,0.10,0.94,-0.42,-0.78,-0.78,
1.604,-0.03,0.10,0.95,-0.42,-0.78,-0.78,
1.604,-0.03,0.10,0.95,-0.40,-0.85,-0.53,
1.604,-0.04,0.10,0.95,-0.40,-0.85,-0.53,
1.607,-0.04,0.11,0.96,-0.40,-0.85,-0.53,
1.608,-0.04,0.11,0.96,-0.37,-0.81,-0.42,
1.609,-0.05,0.12,0.96,-0.37,-0.81,-0.42,
1.622,-0.05,0.12,0.96,-0.37,-0.81,-0.42,
1.622,-0.05,0.12,0.96,-0.43,-0.74,-0.30,
1.623,-0.06,0.12,0.97,-0.43,-0.74,-0.30,
1.623,-0.06,0.13,0.96,-0.43,-0.74,-0.30,
1.623,-0.06,0.13,0.96,-0.54,-0.63,-0.25,
1.623,-0.07,0.13,0.96,-0.54,-0.63,-0.25,
1.623,-0.07,0.13,0.96,-0.54,-0.63,-0.25,
1.624,-0.07,0.13,0.96,-0.65,-0.56,-0.21,
1.624,-0.08,0.14,0.96,-0.65,-0.56,-0.21,
1.626,-0.09,0.15,0.96,-0.65,-0.56,-0.21,
1.627,-0.09,0.15,0.96,-0.74,-0.49,-0.23,
1.635,-0.09,0.15,0.95,-0.74,-0.49,-0.23,
1.636,-0.09,0.15,0.94,-0.74,-0.49,-0.23,
1.636,-0.09,0.15,0.94,-0.86,-0.37,-0.28,
1.636,-0.09,0.16,0.94,-0.86,-0.37,-0.28,
1.636,-0.09,0.16,0.92,-0.86,-0.37,-0.28,
1.637,-0.09,0.16,0.92,-0.92,-0.32,-0.39,
1.639,-0.08,0.17,0.92,-0.92,-0.32,-0.39,
1.641,-0.08,0.17,0.91,-0.92,-0.32,-0.39,
1.642,-0.08,0.17,0.91,-0.93,-0.23,-0.54,
1.644,-0.08,0.17,0.92,-0.93,-0.23,-0.54,
1.647,-0.08,0.17,0.91,-0.93,-0.23,-0.54,
1.647,-0.08,0.17,0.91,-0.88,-0.16,-0.68,
1.652,-0.08,0.17,0.91,-0.88,-0.16,-0.68,
1.652,-0.08,0.17,0.90,-0.88,-0.16,-0.68,
1.653,-0.08,0.17,0.90,-0.90,-0.17,-0.68,
1.654,-0.08,0.17,0.90,-0.90,-0.17,-0.68,
1.657,-0.07,0.17,0.90,-0.90,-0.17,-0.68,
1.657,-0.07,0.17,0.90,-0.89,-0.17,-0.78,
1.659,-0.07,0.17,0.89,-0.89,-0.17,-0.78,
1.661,-0.07,0.17,0.88,-0.89,-0.17,-0.78,
1.661,-0.07,0.17,0.88,-0.84,-0.18,-0.84,
1.667,-0.07,0.17,0.88,-0.84,-0.18,-0.84,
1.667,-0.07,0.17,0.88,-0.84,-0.18,-0.84,
1.668,-0.07,0.17,0.88,-0.81,-0.18,-0.99,
1.669,-0.07,0.16,0.87,-0.81,-0.18,-0.99,
1.672,-0.08,0.17,0.87,-0.81,-0.18,-0.99,
1.672,-0.08,0.17,0.87,-0.81,-0.20,-1.01,
1.674,-0.08,0.17,0.86,-0.81,-0.20,-1.01,
1.677,-0.08,0.17,0.86,-0.81,-0.20,-1.01,
1.677,-0.08,0.17,0.86,-0.86,-0.24,-1.09,
1.679,-0.08,0.18,0.86,-0.86,-0.24,-1.09,
1.689,-0.08,0.18,0.86,-0.86,-0.24,-1.09,
1.689,-0.08,0.18,0.86,-0.89,-0.23,-1.15,
1.69,-0.08,0.19,0.85,-0.89,-0.23,-1.15,
1.69,-0.08,0.19,0.85,-0.89,-0.23,-1.15,
1.69,-0.08,0.19,0.85,-0.87,-0.14,-1.17,
1.69,-0.08,0.19,0.85,-0.87,-0.14,-1.17,
1.692,-0.07,0.19,0.85,-0.87,-0.14,-1.17,
1.692,-0.07,0.19,0.85,-0.86,-0.08,-1.26,
1.694,-0.07,0.19,0.84,-0.86,-0.08,-1.26,
1.696,-0.07,0.19,0.84,-0.86,-0.08,-1.26,
1.696,-0.07,0.19,0.84,-0.83,-0.08,-1.29,
1.704,-0.06,0.19,0.84,-0.83,-0.08,-1.29,
1.705,-0.06,0.19,0.84,-0.83,-0.08,-1.29,
1.705,-0.06,0.19,0.84,-0.78,-0.11,-1.37,
1.705,-0.06,0.18,0.84,-0.78,-0.11,-1.37,
1.706,-0.05,0.18,0.84,-0.78,-0.11,-1.37,
1.706,-0.05,0.18,0.84,-0.65,-0.11,-1.39,
1.709,-0.04,0.18,0.84,-0.65,-0.11,-1.39,
1.711,-0.04,0.18,0.84,-0.65,-0.11,-1.39,
1.712,-0.04,0.18,0.84,-0.62,-0.16,-1.36,
1.722,-0.03,0.18,0.84,-0.62,-0.16,-1.36,
1.723,-0.03,0.19,0.85,-0.62,-0.16,-1.36,
1.723,-0.03,0.19,0.85,-0.50,-0.18,-1.36,
1.723,-0.02,0.19,0.86,-0.50,-0.18,-1.36,
1.724,-0.02,0.19,0.86,-0.50,-0.18,-1.36,
1.724,-0.02,0.19,0.86,-0.38,-0.14,-1.26,
1.724,-0.01,0.20,0.87,-0.38,-0.14,-1.26,
1.726,-0.01,0.20,0.87,-0.38,-0.14,-1.26,
1.726,-0.01,0.20,0.87,-0.25,-0.07,-1.13,
1.736,-0.01,0.20,0.88,-0.25,-0.07,-1.13,
1.737,-0.01,0.21,0.89,-0.25,-0.07,-1.13,
1.737,-0.01,0.21,0.89,-0.21,-0.01,-1.02,
1.737,-0.01,0.20,0.90,-0.21,-0.01,-1.02,
1.738,-0.01,0.20,0.90,-0.21,-0.01,-1.02,
1.738,-0.01,0.20,0.90,-0.17,0.05,-0.87,
1.738,-0.01,0.20,0.91,-0.17,0.05,-0.87,
1.741,-0.01,0.20,0.93,-0.17,0.05,-0.87,
1.741,-0.01,0.20,0.93,-0.16,0.04,-0.72,
1.744,-0.00,0.20,0.93,-0.16,0.04,-0.72,
1.746,-0.00,0.20,0.95,-0.16,0.04,-0.72,
1.746,-0.00,0.20,0.95,-0.15,0.03,-0.52,
1.752,0.00,0.20,0.95,-0.15,0.03,-0.52,
1.753,0.01,0.19,0.96,-0.15,0.03,-0.52,
1.753,0.01,0.19,0.96,-0.10,-0.01,-0.33,
1.753,0.01,0.19,0.96,-0.10,-0.01,-0.33,
1.756,0.02,0.18,0.98,-0.10,-0.01,-0.33,
1.756,0.02,0.18,0.98,-0.02,-0.05,-0.17,
1.758,0.01,0.18,0.99,-0.02,-0.05,-0.17,
1.761,0.01,0.17,0.99,-0.02,-0.05,-0.17,
1.761,0.01,0.17,0.99,0.06,-0.12,-0.04,
1.763,0.01,0.17,1.00,0.06,-0.12,-0.04,
1.769,0.02,0.16,1.00,0.06,-0.12,-0.04,
1.77,0.02,0.16,1.00,0.03,-0.20,0.19,
1.77,0.01,0.15,1.00,0.03,-0.20,0.19,
1.77,0.01,0.15,1.00,0.03,-0.20,0.19,
1.771,0.01,0.15,1.00,0.06,-0.29,0.22,
1.772,0.02,0.16,1.00,0.06,-0.29,0.22,
1.775,0.02,0.16,0.99,0.06,-0.29,0.22,
1.775,0.02,0.16,0.99,0.01,-0.46,0.26,
1.778,0.02,0.16,0.99,0.01,-0.46,0.26,
1.794,0.01,0.16,0.98,0.01,-0.46,0.26,
1.795,0.01,0.16,0.98,0.08,-0.40,0.18,
1.795,0.00,0.16,0.97,0.08,-0.40,0.18,
1.796,-0.01,0.15,0.96,0.08,-0.40,0.18,
1.796,-0.01,0.15,0.96,0.05,-0.40,0.09,
1.796,-0.02,0.15,0.96,0.05,-0.40,0.09,
1.796,-0.02,0.15,0.95,0.05,-0.40,0.09,
1.796,-0.02,0.15,0.95,-0.11,-0.41,-0.10,
1.797,-0.03,0.15,0.94,-0.11,-0.41,-0.10,
1.797,-0.04,0.15,0.94,-0.11,-0.41,-0.10,
1.797,-0.04,0.15,0.94,-0.26,-0.49,-0.21,
1.805,-0.04,0.16,0.93,-0.26,-0.49,-0.21,
1.806,-0.04,0.16,0.92,-0.26,-0.49,-0.21,
1.806,-0.04,0.16,0.92,-0.39,-0.52,-0.35,
1.806,-0.05,0.17,0.92,-0.39,-0.52,-0.35,
1.807,-0.04,0.18,0.91,-0.39,-0.52,-0.35,
1.807,-0.04,0.18,0.91,-0.48,-0.39,-0.48,
1.808,-0.05,0.19,0.92,-0.48,-0.39,-0.48,
1.809,-0.04,0.19,0.91,-0.48,-0.39,-0.48,
1.813,-0.04,0.19,0.91,-0.48,-0.24,-0.53,
1.813,-0.05,0.20,0.91,-0.48,-0.24,-0.53,
1.824,-0.05,0.20,0.91,-0.48,-0.24,-0.53,
1.825,-0.05,0.20,0.91,-0.48,-0.10,-0.57,
1.825,-0.04,0.19,0.91,-0.48,-0.10,-0.57,
1.826,-0.04,0.19,0.92,-0.48,-0.10,-0.57,
1.826,-0.04,0.19,0.92,-0.50,-0.05,-0.56,
1.826,-0.03,0.19,0.92,-0.50,-0.05,-0.56,
1.826,-0.02,0.19,0.92,-0.50,-0.05,-0.56,
1.827,-0.02,0.19,0.92,-0.41,-0.08,-0.53,
1.827,-0.02,0.19,0.92,-0.41,-0.08,-0.53,
1.838,-0.02,0.19,0.92,-0.27,-0.13,-0.48,
1.839,-0.00,0.19,0.93,-0.27,-0.13,-0.48,
1.839,0.00,0.19,0.94,-0.27,-0.13,-0.48,
1.839,0.00,0.19,0.94,-0.09,-0.17,-0.41,
1.84,0.01,0.19,0.94,-0.09,-0.17,-0.41,
1.84,0.01,0.19,0.94,-0.09,-0.17,-0.41,
1.84,0.02,0.19,0.94,-0.09,-0.17,-0.41,
1.84,0.02,0.19,0.94,0.08,-0.14,-0.30,
1.842,0.02,0.19,0.95,0.08,-0.14,-0.30,
1.845,0.02,0.19,0.95,0.08,-0.14,-0.30,
1.845,0.02,0.19,0.95,0.18,-0.13,-0.28,
1.854,0.02,0.19,0.94,0.18,-0.13,-0.28,
1.855,0.02,0.19,0.93,0.18,-0.13,-0.28,
1.855,0.02,0.19,0.93,0.22,-0.15,-0.21,
1.855,0.02,0.20,0.93,0.22,-0.15,-0.21,
1.855,0.01,0.20,0.93,0.22,-0.15,-0.21,
1.856,0.01,0.20,0.93,0.24,-0.13,-0.29,
1.857,0.01,0.21,0.92,0.24,-0.13,-0.29,
1.859,-0.00,0.21,0.92,0.24,-0.13,-0.29,
1.86,-0.00,0.21,0.92,0.19,-0.07,-0.36,
1.861,-0.01,0.22,0.93,0.19,-0.07,-0.36,
1.871,-0.02,0.23,0.92,0.19,-0.07,-0.36,
1.872,-0.02,0.23,0.92,0.06,0.05,-0.44,
1.872,-0.02,0.23,0.93,0.06,0.05,-0.44,
1.873,-0.03,0.24,0.93,0.06,0.05,-0.44,
1.873,-0.03,0.24,0.93,-0.09,0.19,-0.42,
1.873,-0.04,0.25,0.93,-0.09,0.19,-0.42,
1.874,-0.05,0.25,0.93,-0.09,0.19,-0.42,
1.874,-0.05,0.25,0.93,-0.22,0.30,-0.38,
1.877,-0.06,0.26,0.94,-0.22,0.30,-0.38,
1.886,-0.06,0.26,0.95,-0.22,0.30,-0.38,
1.886,-0.06,0.26,0.95,-0.39,0.44,-0.36,
1.887,-0.07,0.26,0.95,-0.39,0.44,-0.36,
1.887,-0.07,0.26,0.96,-0.39,0.44,-0.36,
1.887,-0.07,0.26,0.96,-0.50,0.53,-0.20,
1.887,-0.07,0.26,0.92,-0.50,0.53,-0.20,
1.889,-0.08,0.26,0.80,-0.50,0.53,-0.20,
1.889,-0.08,0.26,0.80,-0.61,0.53,-0.09,
1.892,-0.10,0.28,0.71,-0.61,0.53,-0.09,
1.894,-0.09,0.28,0.77,-0.61,0.53,-0.09,
1.894,-0.09,0.28,0.77,-0.66,0.53,-1.04,
1.896,-0.08,0.27,0.90,-0.66,0.53,-1.04,
1.908,-0.08,0.26,0.98,-0.66,0.53,-1.04,
1.909,-0.08,0.26,0.98,-0.84,0.72,-2.17,
1.909,-0.08,0.25,1.01,-0.84,0.72,-2.17,
1.909,-0.08,0.23,1.03,-0.84,0.72,-2.17,
1.91,-0.08,0.23,1.03,-0.65,0.58,-0.26,
1.91,-0.07,0.23,1.03,-0.65,0.58,-0.26,
1.91,-0.06,0.23,1.02,-0.65,0.58,-0.26,
1.91,-0.06,0.23,1.02,-0.63,0.38,0.58,
1.912,-0.05,0.22,1.01,-0.63,0.38,0.58,
1.922,-0.04,0.21,1.02,-0.63,0.38,0.58,
1.922,-0.04,0.21,1.02,-0.52,0.27,0.59,
1.922,-0.04,0.22,1.02,-0.52,0.27,0.59,
1.923,-0.04,0.21,1.03,-0.52,0.27,0.59,
1.923,-0.04,0.21,1.03,-0.31,0.13,0.47,
1.923,-0.04,0.20,1.04,-0.31,0.13,0.47,
1.924,-0.05,0.20,1.04,-0.31,0.13,0.47,
1.924,-0.05,0.20,1.04,-0.23,0.11,0.59,
1.939,-0.05,0.20,1.04,-0.23,0.11,0.59,
1.939,-0.05,0.20,1.05,-0.23,0.11,0.59,
1.94,-0.05,0.20,1.05,-0.29,-0.00,0.71,
1.94,-0.05,0.20,1.05,-0.29,-0.00,0.71,
1.94,-0.05,0.20,1.04,-0.29,-0.00,0.71,
1.94,-0.05,0.20,1.04,-0.36,-0.01,0.73,
1.941,-0.05,0.21,1.03,-0.36,-0.01,0.73,
1.941,-0.05,0.21,1.01,-0.36,-0.01,0.73,
1.941,-0.05,0.21,1.01,-0.35,0.01,0.76,
1.941,-0.05,0.21,1.00,-0.35,0.01,0.76,
1.944,-0.06,0.22,1.00,-0.35,0.01,0.76,
1.944,-0.06,0.22,1.00,-0.33,0.09,0.52,
1.947,-0.06,0.21,0.98,-0.33,0.09,0.52,
1.953,-0.07,0.22,0.98,-0.33,0.09,0.52,
1.953,-0.07,0.22,0.98,-0.40,0.11,0.27,
1.954,-0.07,0.21,0.98,-0.40,0.11,0.27,
1.954,-0.07,0.22,0.98,-0.40,0.11,0.27,
1.954,-0.07,0.22,0.98,-0.44,0.10,0.16,
