
time,gFx,gFy,gFz,ax,ay,az,
0.001,-0.03,0.12,0.97,-0.15,0.25,-0.19,
0.001,-0.03,0.13,0.98,-0.15,0.25,-0.19,
0.002,-0.03,0.13,0.98,-0.08,0.20,-0.31,
0.003,-0.02,0.12,0.98,-0.08,0.20,-0.31,
0.006,-0.01,0.12,0.98,-0.08,0.20,-0.31,
0.006,-0.01,0.12,0.98,-0.12,0.28,-0.22,
0.008,-0.02,0.13,0.99,-0.12,0.28,-0.22,
0.015,-0.02,0.12,1.00,-0.12,0.28,-0.22,
0.015,-0.02,0.12,1.00,-0.01,0.27,-0.15,
0.015,-0.01,0.12,1.00,-0.01,0.27,-0.15,
0.016,-0.01,0.12,1.01,-0.01,0.27,-0.15,
0.016,-0.01,0.12,1.01,-0.02,0.30,-0.00,
0.018,-0.01,0.11,1.01,-0.02,0.30,-0.00,
0.021,-0.02,0.11,1.01,-0.02,0.30,-0.00,
0.021,-0.02,0.11,1.01,0.03,0.23,0.07,
0.023,-0.02,0.11,1.02,0.03,0.23,0.07,
0.026,-0.02,0.11,1.02,0.01,0.17,0.19,
0.026,-0.01,0.10,1.02,0.01,0.17,0.19,
0.032,-0.01,0.10,1.02,0.01,0.17,0.19,
0.033,-0.01,0.10,1.03,0.01,0.17,0.19,
0.033,-0.01,0.10,1.03,0.01,0.10,0.25,
0.033,-0.00,0.09,1.02,0.01,0.10,0.25,
0.036,-0.00,0.10,1.03,0.01,0.10,0.25,
0.036,-0.00,0.10,1.03,0.07,0.03,0.30,
0.038,0.00,0.10,1.03,0.07,0.03,0.30,
0.041,0.00,0.10,1.01,0.07,0.03,0.30,
0.041,0.00,0.10,1.01,0.13,0.02,0.29,
0.043,0.01,0.10,1.01,0.13,0.02,0.29,
0.049,0.01,0.10,1.01,0.13,0.02,0.29,
0.049,0.01,0.10,1.01,0.18,0.06,0.23,
0.049,0.02,0.09,1.01,0.18,0.06,0.23,
0.051,0.02,0.09,1.00,0.18,0.06,0.23,
0.051,0.02,0.09,1.00,0.24,0.05,0.15,
0.053,0.01,0.11,1.00,0.24,0.05,0.15,
0.056,0.02,0.11,1.00,0.24,0.05,0.15,
0.056,0.02,0.11,1.00,0.31,0.02,0.08,
0.058,0.01,0.11,1.00,0.31,0.02,0.08,
0.061,0.01,0.11,0.99,0.31,0.02,0.08,
0.061,0.01,0.11,0.99,0.28,0.17,0.05,
0.065,0.01,0.11,0.99,0.28,0.17,0.05,
0.066,-0.00,0.11,0.99,0.28,0.17,0.05,
0.066,-0.00,0.11,0.99,0.22,0.20,-0.01,
0.068,-0.01,0.11,0.99,0.22,0.20,-0.01,
0.07,-0.01,0.10,0.99,0.22,0.20,-0.01,
0.071,-0.01,0.10,0.99,0.13,0.21,-0.06,
0.073,-0.02,0.10,1.00,0.13,0.21,-0.06,
0.075,-0.02,0.10,1.00,0.13,0.21,-0.06,
0.076,-0.02,0.10,1.00,0.02,0.16,-0.04,
0.078,-0.02,0.10,1.01,0.02,0.16,-0.04,
0.082,-0.02,0.10,1.02,0.02,0.16,-0.04,
0.082,-0.02,0.10,1.02,-0.05,0.12,0.02,
0.083,-0.02,0.10,1.02,-0.05,0.12,0.02,
0.085,-0.02,0.10,1.02,-0.05,0.12,0.02,
0.085,-0.02,0.10,1.02,-0.10,0.13,0.18,
0.088,-0.02,0.11,1.02,-0.10,0.13,0.18,
0.09,-0.02,0.11,1.02,-0.10,0.13,0.18,
0.09,-0.02,0.11,1.02,-0.06,0.13,0.19,
0.093,-0.01,0.11,1.02,-0.06,0.13,0.19,
0.099,-0.01,0.11,1.03,-0.06,0.13,0.19,
0.099,-0.01,0.11,1.03,-0.11,0.19,0.23,
0.099,-0.01,0.11,1.02,-0.11,0.19,0.23,
0.1,-0.01,0.11,1.02,-0.02,0.19,0.25,
0.1,-0.01,0.11,1.02,-0.02,0.19,0.25,
0.102,-0.00,0.11,1.02,-0.02,0.19,0.25,
0.105,-0.01,0.11,1.02,-0.02,0.19,0.25,
0.105,-0.01,0.11,1.02,-0.03,0.20,0.24,
0.107,-0.01,0.11,1.02,-0.03,0.20,0.24,
0.11,-0.01,0.11,1.02,-0.03,0.20,0.24,
0.11,-0.01,0.11,1.02,0.03,0.22,0.22,
0.115,-0.01,0.11,1.01,0.03,0.22,0.22,
0.115,-0.01,0.10,1.01,0.03,0.22,0.22,
0.115,-0.01,0.10,1.01,0.01,0.22,0.21,
0.117,-0.01,0.10,1.01,0.01,0.22,0.21,
0.12,-0.02,0.11,1.00,0.01,0.22,0.21,
0.12,-0.02,0.11,1.00,-0.01,0.19,0.13,
0.122,-0.02,0.11,1.00,-0.01,0.19,0.13,
0.125,-0.02,0.11,1.00,-0.07,0.16,0.06,
0.125,-0.02,0.11,1.00,-0.07,0.16,0.06,
0.127,-0.02,0.11,1.00,-0.07,0.16,0.06,
0.133,-0.02,0.12,0.99,-0.07,0.16,0.06,
0.133,-0.02,0.12,0.99,-0.17,0.20,0.03,
0.133,-0.03,0.12,0.99,-0.17,0.20,0.03,
0.135,-0.02,0.12,0.99,-0.17,0.20,0.03,
0.135,-0.02,0.12,0.99,-0.16,0.24,-0.05,
0.137,-0.03,0.11,0.99,-0.16,0.24,-0.05,
0.14,-0.03,0.12,0.99,-0.16,0.24,-0.05,
0.14,-0.03,0.12,0.99,-0.18,0.26,-0.06,
0.142,-0.03,0.12,0.98,-0.18,0.26,-0.06,
0.145,-0.04,0.13,0.98,-0.18,0.26,-0.06,
0.145,-0.04,0.13,0.98,-0.26,0.26,-0.09,
0.148,-0.03,0.13,0.98,-0.26,0.26,-0.09,
0.15,-0.03,0.13,0.98,-0.26,0.26,-0.09,
0.15,-0.03,0.13,0.98,-0.26,0.35,-0.15,
0.152,-0.04,0.14,0.98,-0.26,0.35,-0.15,
0.155,-0.04,0.14,0.99,-0.26,0.35,-0.15,
0.155,-0.04,0.14,0.99,-0.25,0.39,-0.17,
0.157,-0.04,0.15,0.98,-0.25,0.39,-0.17,
0.16,-0.04,0.15,0.98,-0.31,0.44,-0.15,
0.16,-0.05,0.15,0.98,-0.31,0.44,-0.15,
0.166,-0.05,0.15,0.98,-0.31,0.44,-0.15,
0.167,-0.05,0.16,0.98,-0.31,0.44,-0.15,
0.167,-0.05,0.16,0.98,-0.34,0.54,-0.17,
0.168,-0.05,0.16,0.99,-0.34,0.54,-0.17,
0.17,-0.06,0.16,0.98,-0.34,0.54,-0.17,
0.17,-0.06,0.16,0.98,-0.41,0.58,-0.14,
0.172,-0.07,0.16,0.98,-0.41,0.58,-0.14,
0.174,-0.07,0.16,0.98,-0.44,0.62,-0.12,
0.175,-0.07,0.16,0.98,-0.44,0.62,-0.12,
0.177,-0.07,0.16,0.98,-0.44,0.62,-0.12,
0.182,-0.08,0.16,0.98,-0.44,0.62,-0.12,
0.182,-0.08,0.16,0.98,-0.54,0.65,-0.15,
0.182,-0.08,0.16,0.98,-0.54,0.65,-0.15,
0.184,-0.09,0.15,0.97,-0.54,0.65,-0.15,
0.184,-0.09,0.15,0.97,-0.61,0.60,-0.16,
0.187,-0.09,0.15,0.97,-0.61,0.60,-0.16,
0.189,-0.10,0.15,0.97,-0.61,0.60,-0.16,
0.189,-0.10,0.15,0.97,-0.71,0.56,-0.20,
0.192,-0.10,0.14,0.97,-0.71,0.56,-0.20,
0.194,-0.10,0.14,0.96,-0.71,0.56,-0.20,
0.194,-0.10,0.14,0.96,-0.79,0.48,-0.26,
0.198,-0.11,0.14,0.96,-0.79,0.48,-0.26,
0.199,-0.11,0.13,0.95,-0.79,0.48,-0.26,
0.199,-0.11,0.13,0.95,-0.85,0.40,-0.31,
0.201,-0.12,0.13,0.96,-0.85,0.40,-0.31,
0.204,-0.12,0.13,0.95,-0.85,0.40,-0.31,
0.204,-0.12,0.13,0.95,-0.94,0.35,-0.39,
0.206,-0.13,0.12,0.95,-0.94,0.35,-0.39,
0.209,-0.13,0.12,0.96,-0.94,0.35,-0.39,
0.209,-0.13,0.12,0.96,-1.02,0.26,-0.39,
0.211,-0.13,0.11,0.96,-1.02,0.26,-0.39,
0.215,-0.13,0.11,0.98,-1.02,0.26,-0.39,
0.215,-0.13,0.11,0.98,-1.08,0.21,-0.40,
0.216,-0.13,0.11,0.98,-1.08,0.21,-0.40,
0.219,-0.13,0.11,0.98,-1.08,0.21,-0.40,
0.219,-0.13,0.11,0.98,-1.11,0.15,-0.24,
0.221,-0.13,0.10,0.99,-1.11,0.15,-0.24,
0.224,-0.13,0.10,0.99,-1.07,0.12,-0.15,
0.224,-0.13,0.10,1.01,-1.07,0.12,-0.15,
0.226,-0.12,0.10,1.01,-1.07,0.12,-0.15,
0.229,-0.12,0.10,1.01,-1.07,0.12,-0.15,
0.229,-0.12,0.10,1.01,-1.04,0.06,0.03,
0.233,-0.11,0.10,1.02,-1.04,0.06,0.03,
0.234,-0.11,0.09,1.03,-1.04,0.06,0.03,
0.234,-0.11,0.09,1.03,-0.98,0.01,0.17,
0.236,-0.11,0.09,1.03,-0.98,0.01,0.17,
0.239,-0.11,0.09,1.04,-0.98,0.01,0.17,
0.239,-0.11,0.09,1.04,-0.91,-0.02,0.26,
0.241,-0.11,0.09,1.05,-0.91,-0.02,0.26,
0.244,-0.11,0.09,1.05,-0.91,-0.02,0.26,
0.244,-0.11,0.09,1.05,-0.87,-0.05,0.36,
0.249,-0.11,0.09,1.05,-0.87,-0.05,0.36,
0.249,-0.11,0.09,1.05,-0.84,-0.07,0.50,
0.249,-0.11,0.09,1.06,-0.84,-0.07,0.50,
0.251,-0.11,0.08,1.06,-0.84,-0.07,0.50,
0.254,-0.11,0.09,1.07,-0.84,-0.07,0.50,
0.254,-0.11,0.09,1.07,-0.84,-0.07,0.59,
0.256,-0.11,0.09,1.07,-0.84,-0.07,0.59,
0.259,-0.11,0.09,1.07,-0.84,-0.07,0.59,
0.259,-0.11,0.09,1.07,-0.85,-0.09,0.66,
0.261,-0.11,0.09,1.07,-0.85,-0.09,0.66,
0.266,-0.12,0.08,1.06,-0.85,-0.09,0.66,
0.267,-0.12,0.08,1.06,-0.87,-0.05,0.70,
0.267,-0.12,0.08,1.06,-0.87,-0.05,0.70,
0.268,-0.12,0.08,1.05,-0.87,-0.05,0.70,
0.269,-0.12,0.08,1.05,-0.90,-0.09,0.67,
0.271,-0.12,0.08,1.05,-0.90,-0.09,0.67,
0.273,-0.13,0.08,1.05,-0.90,-0.09,0.67,
0.274,-0.13,0.08,1.05,-0.94,-0.14,0.57,
0.276,-0.13,0.07,1.05,-0.94,-0.14,0.57,
0.278,-0.13,0.08,1.04,-0.94,-0.14,0.57,
0.278,-0.13,0.08,1.04,-0.98,-0.17,0.50,
0.282,-0.14,0.08,1.04,-0.98,-0.17,0.50,
0.283,-0.14,0.08,1.03,-0.98,-0.17,0.50,
0.283,-0.14,0.08,1.03,-1.06,-0.20,0.44,
0.286,-0.13,0.09,1.03,-1.06,-0.20,0.44,
0.288,-0.14,0.08,1.03,-1.06,-0.20,0.44,
0.288,-0.14,0.08,1.03,-1.09,-0.16,0.34,
0.29,-0.14,0.08,1.02,-1.09,-0.16,0.34,
0.293,-0.14,0.08,1.01,-1.09,-0.16,0.34,
0.293,-0.14,0.08,1.01,-1.07,-0.16,0.28,
0.295,-0.14,0.08,1.01,-1.07,-0.16,0.28,
0.298,-0.14,0.08,1.01,-1.07,-0.16,0.28,
0.299,-0.14,0.08,1.01,-1.08,-0.23,0.17,
0.3,-0.14,0.07,1.00,-1.08,-0.23,0.17,
0.303,-0.14,0.07,1.01,-1.08,-0.23,0.17,
0.303,-0.14,0.07,1.01,-1.11,-0.22,0.08,
0.305,-0.14,0.07,1.00,-1.11,-0.22,0.08,
0.308,-0.15,0.07,1.00,-1.11,-0.22,0.08,
0.308,-0.15,0.07,1.00,-1.12,-0.30,0.04,
0.31,-0.15,0.07,0.99,-1.12,-0.30,0.04,
0.315,-0.15,0.07,1.00,-1.12,-0.30,0.04,
0.315,-0.15,0.07,1.00,-1.17,-0.34,-0.01,
0.316,-0.15,0.07,1.00,-1.17,-0.34,-0.01,
0.318,-0.15,0.07,1.01,-1.17,-0.34,-0.01,
0.318,-0.15,0.07,1.01,-1.19,-0.37,-0.05,
0.32,-0.14,0.06,1.00,-1.19,-0.37,-0.05,
0.323,-0.14,0.07,1.00,-1.19,-0.37,-0.05,
0.323,-0.14,0.07,1.00,-1.19,-0.38,0.03,
0.325,-0.13,0.07,1.01,-1.19,-0.38,0.03,
0.328,-0.13,0.08,1.01,-1.19,-0.38,0.03,
0.329,-0.13,0.08,1.01,-1.10,-0.37,0.05,
0.334,-0.12,0.09,1.02,-1.10,-0.37,0.05,
0.334,-0.12,0.10,1.03,-1.10,-0.37,0.05,
0.334,-0.12,0.10,1.03,-0.98,-0.27,0.10,
0.335,-0.11,0.11,1.03,-0.98,-0.27,0.10,
0.338,-0.11,0.11,1.03,-0.98,-0.27,0.10,
0.338,-0.11,0.11,1.03,-0.89,-0.09,0.24,
0.34,-0.11,0.11,1.04,-0.89,-0.09,0.24,
0.343,-0.10,0.11,1.04,-0.89,-0.09,0.24,
0.343,-0.10,0.11,1.04,-0.77,0.03,0.30,
0.345,-0.09,0.11,1.04,-0.77,0.03,0.30,
0.352,-0.09,0.11,1.04,-0.72,0.05,0.37,
0.352,-0.09,0.12,1.04,-0.72,0.05,0.37,
0.352,-0.09,0.11,1.05,-0.72,0.05,0.37,
0.353,-0.09,0.11,1.05,-0.72,0.05,0.37,
0.353,-0.09,0.11,1.05,-0.65,0.06,0.43,
0.355,-0.09,0.10,1.05,-0.65,0.06,0.43,
0.358,-0.09,0.11,1.05,-0.65,0.06,0.43,
0.358,-0.09,0.11,1.05,-0.61,0.03,0.48,
0.36,-0.08,0.11,1.06,-0.61,0.03,0.48,
0.363,-0.08,0.11,1.06,-0.59,-0.04,0.51,
0.363,-0.08,0.10,1.05,-0.59,-0.04,0.51,
0.368,-0.08,0.10,1.05,-0.59,-0.04,0.51,
0.368,-0.08,0.10,1.05,-0.59,-0.04,0.51,
0.369,-0.08,0.10,1.05,-0.54,-0.06,0.51,
0.37,-0.08,0.10,1.05,-0.54,-0.06,0.51,
0.372,-0.08,0.10,1.05,-0.53,-0.06,0.48,
0.373,-0.08,0.11,1.05,-0.53,-0.06,0.48,
0.375,-0.09,0.11,1.05,-0.53,-0.06,0.48,
0.377,-0.09,0.11,1.05,-0.53,-0.06,0.48,
0.377,-0.09,0.11,1.05,-0.55,-0.05,0.46,
0.383,-0.09,0.10,1.05,-0.55,-0.05,0.46,
0.383,-0.10,0.10,1.04,-0.55,-0.05,0.46,
0.383,-0.10,0.10,1.04,-0.63,-0.02,0.46,
0.385,-0.11,0.10,1.04,-0.63,-0.02,0.46,
0.387,-0.11,0.10,1.03,-0.63,-0.02,0.46,
0.387,-0.11,0.10,1.03,-0.68,-0.08,0.42,
0.389,-0.12,0.10,1.03,-0.68,-0.08,0.42,
0.392,-0.12,0.10,1.03,-0.68,-0.08,0.42,
0.392,-0.12,0.10,1.03,-0.81,-0.09,0.32,
0.394,-0.13,0.10,1.03,-0.81,-0.09,0.32,
0.399,-0.13,0.10,1.02,-0.81,-0.09,0.32,
0.399,-0.13,0.10,1.02,-0.93,-0.10,0.27,
0.399,-0.14,0.10,1.02,-0.93,-0.10,0.27,
0.402,-0.15,0.10,1.01,-0.93,-0.10,0.27,
0.402,-0.15,0.10,1.01,-1.04,-0.14,0.18,
0.404,-0.16,0.10,1.00,-1.04,-0.14,0.18,
0.407,-0.16,0.10,1.00,-1.04,-0.14,0.18,
0.407,-0.16,0.10,1.00,-1.19,-0.14,0.10,
0.409,-0.17,0.10,0.99,-1.19,-0.14,0.10,
0.412,-0.17,0.10,0.99,-1.19,-0.14,0.10,
0.412,-0.17,0.10,0.99,-1.32,-0.15,-0.03,
0.416,-0.18,0.10,0.99,-1.32,-0.15,-0.03,
0.417,-0.19,0.10,0.98,-1.32,-0.15,-0.03,
0.417,-0.19,0.10,0.98,-1.44,-0.16,-0.11,
0.419,-0.19,0.09,0.98,-1.44,-0.16,-0.11,
0.422,-0.19,0.09,0.98,-1.56,-0.19,-0.17,
0.422,-0.20,0.10,0.98,-1.56,-0.19,-0.17,
0.424,-0.20,0.09,0.97,-1.56,-0.19,-0.17,
0.427,-0.20,0.09,0.97,-1.66,-0.21,-0.25,
0.427,-0.20,0.10,0.96,-1.66,-0.21,-0.25,
0.429,-0.20,0.09,0.97,-1.66,-0.21,-0.25,
0.434,-0.20,0.09,0.97,-1.71,-0.23,-0.36,
0.434,-0.20,0.10,0.96,-1.71,-0.23,-0.36,
0.434,-0.20,0.10,0.95,-1.71,-0.23,-0.36,
0.437,-0.20,0.10,0.95,-1.72,-0.23,-0.37,
0.437,-0.19,0.11,0.96,-1.72,-0.23,-0.37,
0.439,-0.19,0.11,0.95,-1.72,-0.23,-0.37,
0.442,-0.18,0.12,0.95,-1.72,-0.23,-0.37,
0.442,-0.18,0.12,0.95,-1.68,-0.15,-0.44,
0.444,-0.18,0.13,0.95,-1.68,-0.15,-0.44,
0.45,-0.18,0.13,0.95,-1.56,-0.06,-0.47,
0.45,-0.17,0.13,0.95,-1.56,-0.06,-0.47,
0.45,-0.16,0.13,0.95,-1.56,-0.06,-0.47,
0.452,-0.16,0.13,0.94,-1.56,-0.06,-0.47,
0.452,-0.16,0.13,0.94,-1.46,0.04,-0.47,
0.454,-0.15,0.14,0.94,-1.46,0.04,-0.47,
0.457,-0.15,0.14,0.95,-1.46,0.04,-0.47,
0.457,-0.15,0.14,0.95,-1.33,0.09,-0.54,
0.459,-0.14,0.13,0.93,-1.33,0.09,-0.54,
0.462,-0.14,0.13,0.93,-1.33,0.09,-0.54,
0.462,-0.14,0.13,0.93,-1.23,0.10,-0.55,
0.467,-0.14,0.13,0.93,-1.23,0.10,-0.55,
0.468,-0.14,0.13,0.93,-1.23,0.10,-0.55,
0.468,-0.14,0.13,0.93,-1.14,0.03,-0.66,
0.469,-0.14,0.13,0.92,-1.14,0.03,-0.66,
0.471,-0.14,0.13,0.92,-1.12,0.00,-0.67,
0.472,-0.14,0.13,0.92,-1.12,0.00,-0.67,
0.474,-0.14,0.12,0.91,-1.12,0.00,-0.67,
0.476,-0.13,0.12,0.91,-1.12,0.00,-0.67,
0.477,-0.13,0.12,0.91,-1.07,-0.05,-0.75,
0.479,-0.13,0.12,0.90,-1.07,-0.05,-0.75,
0.484,-0.13,0.12,0.90,-1.04,-0.15,-0.87,
0.484,-0.13,0.12,0.89,-1.04,-0.15,-0.87,
0.484,-0.13,0.11,0.89,-1.04,-0.15,-0.87,
0.486,-0.13,0.12,0.88,-1.04,-0.15,-0.87,
0.486,-0.13,0.12,0.88,-1.02,-0.19,-0.98,
0.489,-0.13,0.12,0.87,-1.02,-0.19,-0.98,
0.491,-0.13,0.12,0.86,-1.02,-0.19,-0.98,
0.491,-0.13,0.12,0.86,-0.98,-0.22,-1.06,
0.494,-0.13,0.12,0.86,-0.98,-0.22,-1.06,
0.496,-0.13,0.12,0.86,-0.97,-0.19,-1.20,
0.497,-0.13,0.13,0.86,-0.97,-0.19,-1.20,
0.5,-0.14,0.13,0.85,-0.97,-0.19,-1.20,
0.501,-0.14,0.13,0.84,-0.97,-0.19,-1.20,
0.501,-0.14,0.13,0.84,-0.97,-0.14,-1.29,
0.503,-0.14,0.14,0.84,-0.97,-0.14,-1.29,
0.506,-0.14,0.14,0.84,-0.97,-0.14,-1.29,
0.506,-0.14,0.14,0.84,-1.05,-0.13,-1.41,
0.509,-0.15,0.14,0.84,-1.05,-0.13,-1.41,
0.511,-0.15,0.15,0.85,-1.05,-0.13,-1.41,
0.511,-0.15,0.15,0.85,-1.08,-0.07,-1.45,
0.513,-0.14,0.15,0.84,-1.08,-0.07,-1.45,
0.517,-0.15,0.16,0.85,-1.08,-0.07,-1.45,
0.517,-0.15,0.16,0.85,-1.10,-0.02,-1.39,
0.518,-0.14,0.17,0.85,-1.10,-0.02,-1.39,
0.521,-0.14,0.17,0.85,-1.06,0.12,-1.39,
0.521,-0.14,0.17,0.86,-1.06,0.12,-1.39,
0.523,-0.13,0.18,0.86,-1.06,0.12,-1.39,
0.526,-0.13,0.18,0.87,-1.06,0.12,-1.39,
0.526,-0.13,0.18,0.87,-1.01,0.23,-1.26,
0.528,-0.12,0.18,0.87,-1.01,0.23,-1.26,
0.535,-0.12,0.18,0.88,-1.01,0.23,-1.26,
0.535,-0.12,0.18,0.88,-0.92,0.28,-1.15,
0.535,-0.12,0.18,0.88,-0.92,0.28,-1.15,
0.536,-0.12,0.18,0.89,-0.92,0.28,-1.15,
0.536,-0.12,0.18,0.89,-0.82,0.33,-1.03,
0.538,-0.12,0.18,0.90,-0.82,0.33,-1.03,
0.541,-0.12,0.17,0.90,-0.82,0.33,-1.03,
0.541,-0.12,0.17,0.90,-0.78,0.28,-0.94,
0.543,-0.11,0.17,0.91,-0.78,0.28,-0.94,
0.546,-0.11,0.17,0.91,-0.76,0.22,-0.82,
0.546,-0.12,0.16,0.91,-0.76,0.22,-0.82,
0.551,-0.12,0.16,0.92,-0.76,0.22,-0.82,
0.551,-0.11,0.15,0.93,-0.76,0.22,-0.82,
0.551,-0.11,0.15,0.93,-0.74,0.14,-0.70,
0.553,-0.11,0.14,0.93,-0.74,0.14,-0.70,
0.556,-0.10,0.13,0.92,-0.74,0.14,-0.70,
0.556,-0.10,0.13,0.92,-0.72,0.02,-0.58,
0.558,-0.10,0.13,0.93,-0.72,0.02,-0.58,
0.561,-0.09,0.12,0.93,-0.72,0.02,-0.58,
0.561,-0.09,0.12,0.93,-0.63,-0.13,-0.55,
0.563,-0.09,0.11,0.94,-0.63,-0.13,-0.55,
0.568,-0.08,0.11,0.95,-0.63,-0.13,-0.55,
0.569,-0.08,0.11,0.95,-0.53,-0.24,-0.48,
0.569,-0.08,0.10,0.95,-0.53,-0.24,-0.48,
0.571,-0.08,0.10,0.95,-0.53,-0.24,-0.48,
0.571,-0.08,0.10,0.95,-0.43,-0.37,-0.38,
0.573,-0.07,0.09,0.95,-0.43,-0.37,-0.38,
0.576,-0.06,0.08,0.96,-0.43,-0.37,-0.38,
0.576,-0.06,0.08,0.96,-0.33,-0.49,-0.30,
0.578,-0.06,0.07,0.96,-0.33,-0.49,-0.30,
0.58,-0.05,0.07,0.96,-0.33,-0.49,-0.30,
0.581,-0.05,0.07,0.96,-0.23,-0.65,-0.24,
0.584,-0.05,0.07,0.96,-0.23,-0.65,-0.24,
0.585,-0.04,0.06,0.96,-0.23,-0.65,-0.24,
0.585,-0.04,0.06,0.96,-0.12,-0.75,-0.20,
0.588,-0.04,0.07,0.96,-0.12,-0.75,-0.20,
0.59,-0.03,0.06,0.96,-0.12,-0.75,-0.20,
0.59,-0.03,0.06,0.96,0.01,-0.80,-0.16,
0.593,-0.02,0.06,0.97,0.01,-0.80,-0.16,
0.596,-0.02,0.06,0.97,0.10,-0.80,-0.14,
0.596,-0.02,0.07,0.97,0.10,-0.80,-0.14,
0.598,-0.01,0.07,0.96,0.10,-0.80,-0.14,
0.603,-0.01,0.07,0.96,0.24,-0.77,-0.09,
0.604,-0.00,0.08,0.96,0.24,-0.77,-0.09,
0.604,0.01,0.09,0.96,0.24,-0.77,-0.09,
0.605,0.01,0.09,0.96,0.24,-0.77,-0.09,
0.606,0.01,0.09,0.96,0.37,-0.69,-0.18,
0.608,0.02,0.10,0.95,0.37,-0.69,-0.18,
0.61,0.02,0.10,0.95,0.37,-0.69,-0.18,
0.61,0.02,0.10,0.95,0.51,-0.56,-0.19,
0.613,0.02,0.11,0.95,0.51,-0.56,-0.19,
0.619,0.02,0.11,0.95,0.60,-0.47,-0.25,
0.619,0.02,0.11,0.94,0.60,-0.47,-0.25,
0.62,0.02,0.12,0.93,0.60,-0.47,-0.25,
0.62,0.02,0.12,0.93,0.62,-0.37,-0.32,
0.62,0.01,0.12,0.93,0.62,-0.37,-0.32,
0.623,0.00,0.11,0.92,0.62,-0.37,-0.32,
0.626,0.00,0.11,0.92,0.56,-0.34,-0.46,
0.626,-0.01,0.11,0.91,0.56,-0.34,-0.46,
0.628,-0.01,0.11,0.91,0.56,-0.34,-0.46,
0.63,-0.02,0.11,0.90,0.56,-0.34,-0.46,
0.63,-0.02,0.11,0.90,0.40,-0.43,-0.60,
0.642,-0.03,0.11,0.89,0.40,-0.43,-0.60,
0.642,-0.04,0.11,0.88,0.40,-0.43,-0.60,
0.643,-0.04,0.11,0.88,0.26,-0.45,-0.74,
0.643,-0.04,0.12,0.87,0.26,-0.45,-0.74,
0.643,-0.04,0.12,0.87,0.10,-0.47,-0.91,
0.643,-0.05,0.11,0.86,0.10,-0.47,-0.91,
0.644,-0.05,0.11,0.86,0.10,-0.47,-0.91,
0.645,-0.06,0.11,0.85,0.10,-0.47,-0.91,
0.645,-0.06,0.11,0.85,-0.00,-0.44,-1.06,
0.647,-0.06,0.12,0.85,-0.00,-0.44,-1.06,
0.656,-0.06,0.12,0.85,-0.00,-0.44,-1.06,
0.656,-0.06,0.12,0.85,-0.09,-0.46,-1.15,
0.656,-0.07,0.12,0.85,-0.09,-0.46,-1.15,
0.657,-0.07,0.12,0.85,-0.09,-0.46,-1.15,
0.657,-0.07,0.12,0.85,-0.17,-0.40,-1.20,
0.657,-0.07,0.12,0.85,-0.17,-0.40,-1.20,
0.66,-0.08,0.12,0.85,-0.17,-0.40,-1.20,
0.66,-0.08,0.12,0.85,-0.22,-0.39,-1.20,
0.662,-0.07,0.12,0.86,-0.22,-0.39,-1.20,
0.672,-0.08,0.12,0.87,-0.22,-0.39,-1.20,
0.673,-0.08,0.12,0.87,-0.25,-0.43,-1.19,
0.673,-0.08,0.12,0.87,-0.25,-0.43,-1.19,
0.673,-0.08,0.12,0.87,-0.25,-0.47,-1.06,
0.673,-0.08,0.12,0.88,-0.25,-0.47,-1.06,
0.674,-0.07,0.11,0.88,-0.25,-0.47,-1.06,
0.675,-0.07,0.11,0.89,-0.25,-0.47,-1.06,
0.675,-0.07,0.11,0.89,-0.26,-0.49,-0.92,
0.677,-0.06,0.11,0.90,-0.26,-0.49,-0.92,
0.68,-0.06,0.11,0.90,-0.21,-0.54,-0.81,
0.681,-0.06,0.10,0.91,-0.21,-0.54,-0.81,
0.688,-0.06,0.09,0.91,-0.21,-0.54,-0.81,
0.688,-0.05,0.09,0.91,-0.21,-0.54,-0.81,
0.688,-0.05,0.09,0.91,-0.12,-0.58,-0.66,
0.689,-0.05,0.09,0.92,-0.12,-0.58,-0.66,
0.689,-0.04,0.08,0.93,-0.12,-0.58,-0.66,
0.69,-0.04,0.08,0.93,-0.07,-0.70,-0.56,
0.692,-0.04,0.08,0.93,-0.07,-0.70,-0.56,
0.695,-0.04,0.08,0.93,0.07,-0.77,-0.43,
0.695,-0.03,0.08,0.93,0.07,-0.77,-0.43,
0.697,-0.02,0.08,0.94,0.07,-0.77,-0.43,
0.704,-0.01,0.08,0.94,0.07,-0.77,-0.43,
0.705,-0.01,0.08,0.94,0.18,-0.77,-0.33,
0.705,0.00,0.08,0.94,0.18,-0.77,-0.33,
0.705,0.01,0.09,0.94,0.18,-0.77,-0.33,
0.705,0.01,0.09,0.94,0.33,-0.79,-0.26,
0.707,0.02,0.09,0.95,0.33,-0.79,-0.26,
0.709,0.03,0.09,0.95,0.33,-0.79,-0.26,
0.709,0.03,0.09,0.95,0.54,-0.74,-0.23,
0.711,0.04,0.09,0.95,0.54,-0.74,-0.23,
0.714,0.05,0.10,0.94,0.54,-0.74,-0.23,
0.714,0.05,0.10,0.94,0.70,-0.68,-0.21,
0.722,0.06,0.10,0.94,0.70,-0.68,-0.21,
0.723,0.06,0.10,0.94,0.91,-0.60,-0.25,
0.723,0.06,0.11,0.94,0.91,-0.60,-0.25,
0.723,0.07,0.12,0.94,0.91,-0.60,-0.25,
0.724,0.08,0.12,0.94,0.91,-0.60,-0.25,
0.724,0.08,0.12,0.94,1.06,-0.51,-0.27,
0.726,0.08,0.12,0.93,1.06,-0.51,-0.27,
0.729,0.08,0.12,0.93,1.06,-0.51,-0.27,
0.729,0.08,0.12,0.93,1.19,-0.39,-0.29,
0.731,0.09,0.12,0.93,1.19,-0.39,-0.29,
0.742,0.08,0.12,0.92,1.19,-0.39,-0.29,
0.743,0.08,0.12,0.92,1.25,-0.40,-0.33,
0.743,0.08,0.12,0.92,1.25,-0.40,-0.33,
0.743,0.08,0.11,0.92,1.25,-0.40,-0.33,
0.744,0.08,0.11,0.92,1.30,-0.40,-0.40,
0.744,0.08,0.11,0.92,1.30,-0.40,-0.40,
0.745,0.08,0.11,0.92,1.24,-0.46,-0.43,
0.745,0.08,0.11,0.92,1.24,-0.46,-0.43,
0.746,0.07,0.11,0.91,1.24,-0.46,-0.43,
0.757,0.08,0.11,0.91,1.24,-0.46,-0.43,
0.758,0.08,0.11,0.91,1.24,-0.54,-0.48,
0.758,0.08,0.10,0.91,1.24,-0.54,-0.48,
0.759,0.08,0.10,0.91,1.24,-0.54,-0.48,
0.759,0.08,0.10,0.91,1.22,-0.54,-0.52,
0.759,0.08,0.11,0.91,1.22,-0.54,-0.52,
0.759,0.08,0.10,0.91,1.22,-0.54,-0.52,
0.759,0.08,0.10,0.91,1.30,-0.60,-0.54,
0.762,0.08,0.10,0.91,1.30,-0.60,-0.54,
0.764,0.08,0.10,0.91,1.30,-0.60,-0.54,
0.764,0.08,0.10,0.91,1.29,-0.58,-0.54,
0.774,0.09,0.09,0.91,1.29,-0.58,-0.54,
0.774,0.09,0.09,0.91,1.33,-0.65,-0.54,
0.775,0.09,0.09,0.92,1.33,-0.65,-0.54,
0.775,0.09,0.09,0.92,1.33,-0.65,-0.54,
0.775,0.09,0.08,0.93,1.33,-0.65,-0.54,
0.775,0.09,0.08,0.93,1.36,-0.72,-0.47,
0.776,0.10,0.07,0.94,1.36,-0.72,-0.47,
0.779,0.10,0.07,0.95,1.36,-0.72,-0.47,
0.779,0.10,0.07,0.95,1.42,-0.76,-0.38,
0.781,0.11,0.07,0.96,1.42,-0.76,-0.38,
0.787,0.11,0.06,0.96,1.42,-0.76,-0.38,
0.788,0.11,0.06,0.96,1.50,-0.90,-0.20,
0.788,0.12,0.05,0.97,1.50,-0.90,-0.20,
0.788,0.12,0.05,0.98,1.50,-0.90,-0.20,
0.789,0.12,0.05,0.98,1.63,-0.98,-0.04,
0.791,0.13,0.05,0.98,1.63,-0.98,-0.04,
0.794,0.13,0.05,0.98,1.72,-1.05,0.09,
0.794,0.14,0.05,0.99,1.72,-1.05,0.09,
0.796,0.14,0.04,0.99,1.72,-1.05,0.09,
0.798,0.15,0.04,0.98,1.72,-1.05,0.09,
0.799,0.15,0.04,0.98,1.83,-1.08,0.17,
0.805,0.15,0.04,0.98,1.83,-1.08,0.17,
0.805,0.16,0.05,0.98,1.83,-1.08,0.17,
0.805,0.16,0.05,0.98,1.97,-1.11,0.20,
0.806,0.16,0.05,0.97,1.97,-1.11,0.20,
0.808,0.16,0.06,0.97,1.97,-1.11,0.20,
0.809,0.16,0.06,0.97,2.02,-1.08,0.13,
0.811,0.17,0.06,0.96,2.02,-1.08,0.13,
0.813,0.17,0.06,0.96,2.02,-1.08,0.13,
0.813,0.17,0.06,0.96,2.08,-0.98,0.07,
0.815,0.17,0.07,0.96,2.08,-0.98,0.07,
0.824,0.17,0.07,0.96,2.12,-0.93,-0.05,
0.825,0.17,0.07,0.95,2.12,-0.93,-0.05,
0.825,0.17,0.07,0.93,2.12,-0.93,-0.05,
0.825,0.17,0.07,0.93,2.12,-0.93,-0.05,
0.829,0.17,0.07,0.93,2.13,-0.86,-0.14,
0.829,0.16,0.08,0.91,2.13,-0.86,-0.14,
0.829,0.16,0.08,0.91,2.10,-0.80,-0.35,
0.83,0.16,0.08,0.91,2.10,-0.80,-0.35,
0.83,0.15,0.08,0.90,2.10,-0.80,-0.35,
0.844,0.14,0.09,0.89,2.10,-0.80,-0.35,
0.845,0.14,0.09,0.89,2.00,-0.73,-0.54,
0.845,0.13,0.08,0.88,2.00,-0.73,-0.54,
0.845,0.13,0.09,0.87,2.00,-0.73,-0.54,
0.846,0.13,0.09,0.87,1.86,-0.68,-0.68,
0.846,0.12,0.09,0.87,1.86,-0.68,-0.68,
0.846,0.12,0.09,0.87,1.71,-0.69,-0.87,
0.846,0.12,0.09,0.86,1.71,-0.69,-0.87,
0.846,0.11,0.09,0.86,1.71,-0.69,-0.87,
0.848,0.11,0.09,0.86,1.61,-0.64,-0.97,
0.849,0.11,0.09,0.85,1.61,-0.64,-0.97,
0.855,0.10,0.10,0.86,1.61,-0.64,-0.97,
0.855,0.10,0.10,0.86,1.61,-0.64,-0.97,
0.855,0.10,0.10,0.86,1.49,-0.63,-1.05,
0.855,0.09,0.10,0.86,1.49,-0.63,-1.05,
0.858,0.09,0.11,0.86,1.49,-0.63,-1.05,
0.859,0.09,0.11,0.86,1.37,-0.55,-1.00,
0.861,0.09,0.11,0.86,1.37,-0.55,-1.00,
0.863,0.08,0.12,0.86,1.37,-0.55,-1.00,
0.863,0.08,0.12,0.86,1.33,-0.50,-1.00,
0.865,0.08,0.11,0.87,1.33,-0.50,-1.00,
0.873,0.08,0.11,0.87,1.30,-0.41,-0.96,
0.874,0.08,0.11,0.87,1.30,-0.41,-0.96,
0.874,0.08,0.12,0.88,1.30,-0.41,-0.96,
0.874,0.07,0.12,0.88,1.30,-0.41,-0.96,
0.875,0.07,0.12,0.88,1.25,-0.41,-0.89,
0.875,0.07,0.11,0.89,1.25,-0.41,-0.89,
0.878,0.06,0.11,0.89,1.25,-0.41,-0.89,
0.878,0.06,0.11,0.89,1.15,-0.38,-0.79,
0.88,0.06,0.10,0.90,1.15,-0.38,-0.79,
0.883,0.06,0.10,0.90,1.15,-0.38,-0.79,
0.883,0.06,0.10,0.90,1.10,-0.46,-0.72,
0.89,0.06,0.09,0.91,1.10,-0.46,-0.72,
0.89,0.06,0.09,0.91,1.10,-0.46,-0.72,
0.89,0.06,0.09,0.91,1.09,-0.54,-0.60,
0.891,0.07,0.08,0.92,1.09,-0.54,-0.60,
0.893,0.07,0.08,0.92,1.09,-0.63,-0.52,
0.893,0.07,0.08,0.91,1.09,-0.63,-0.52,
0.895,0.07,0.07,0.92,1.09,-0.63,-0.52,
0.898,0.08,0.07,0.92,1.09,-0.63,-0.52,
0.898,0.08,0.07,0.92,1.16,-0.69,-0.45,
0.9,0.08,0.07,0.92,1.16,-0.69,-0.45,
0.906,0.08,0.07,0.92,1.21,-0.74,-0.41,
0.906,0.09,0.07,0.93,1.21,-0.74,-0.41,
0.907,0.09,0.07,0.93,1.21,-0.74,-0.41,
0.908,0.10,0.07,0.93,1.21,-0.74,-0.41,
0.908,0.10,0.07,0.93,1.33,-0.75,-0.34,
0.91,0.11,0.07,0.94,1.33,-0.75,-0.34,
0.913,0.11,0.07,0.93,1.33,-0.75,-0.34,
0.913,0.11,0.07,0.93,1.45,-0.73,-0.32,
0.915,0.11,0.07,0.93,1.45,-0.73,-0.32,
0.921,0.11,0.07,0.93,1.55,-0.72,-0.25,
0.921,0.11,0.07,0.93,1.55,-0.72,-0.25,
0.922,0.11,0.07,0.92,1.55,-0.72,-0.25,
0.923,0.12,0.06,0.92,1.55,-0.72,-0.25,
0.923,0.12,0.06,0.92,1.62,-0.73,-0.34,
0.924,0.11,0.07,0.92,1.62,-0.73,-0.34,
0.928,0.11,0.06,0.91,1.62,-0.73,-0.34,
0.928,0.11,0.06,0.91,1.62,-0.74,-0.37,
0.93,0.11,0.06,0.91,1.62,-0.74,-0.37,
0.933,0.11,0.06,0.91,1.62,-0.74,-0.37,
0.933,0.11,0.06,0.91,1.58,-0.73,-0.44,
0.941,0.10,0.06,0.91,1.58,-0.73,-0.44,
0.942,0.10,0.07,0.91,1.58,-0.73,-0.44,
0.942,0.10,0.07,0.91,1.54,-0.72,-0.51,
0.942,0.11,0.07,0.91,1.54,-0.72,-0.51,
0.942,0.11,0.07,0.91,1.50,-0.70,-0.49,
0.943,0.10,0.07,0.91,1.50,-0.70,-0.49,
0.945,0.11,0.07,0.92,1.50,-0.70,-0.49,
0.948,0.11,0.08,0.92,1.50,-0.70,-0.49,
0.948,0.11,0.08,0.92,1.52,-0.63,-0.50,
0.95,0.11,0.07,0.93,1.52,-0.63,-0.50,
0.957,0.12,0.08,0.93,1.52,-0.63,-0.50,
0.957,0.12,0.08,0.93,1.55,-0.56,-0.40,
0.958,0.11,0.08,0.93,1.55,-0.56,-0.40,
0.958,0.12,0.08,0.94,1.55,-0.56,-0.40,
0.958,0.12,0.08,0.94,1.59,-0.51,-0.33,
0.959,0.12,0.08,0.94,1.59,-0.51,-0.33,
0.962,0.13,0.08,0.94,1.59,-0.51,-0.33,
0.962,0.13,0.08,0.94,1.62,-0.45,-0.26,
0.964,0.12,0.08,0.95,1.62,-0.45,-0.26,
0.975,0.12,0.08,0.95,1.69,-0.45,-0.20,
0.976,0.13,0.08,0.96,1.69,-0.45,-0.20,
0.976,0.13,0.08,0.96,1.69,-0.45,-0.20,
0.976,0.13,0.07,0.96,1.69,-0.45,-0.20,
0.977,0.13,0.07,0.96,1.67,-0.45,-0.09,
0.977,0.14,0.07,0.96,1.67,-0.45,-0.09,
0.977,0.14,0.07,0.96,1.67,-0.45,-0.09,
0.977,0.14,0.07,0.96,1.71,-0.44,-0.05,
0.979,0.14,0.07,0.96,1.71,-0.44,-0.05,
0.981,0.14,0.07,0.96,1.71,-0.44,-0.05,
0.982,0.14,0.07,0.96,1.78,-0.47,-0.02,
0.989,0.15,0.07,0.96,1.78,-0.47,-0.02,
0.989,0.15,0.07,0.96,1.78,-0.47,-0.02,
0.99,0.15,0.07,0.96,1.82,-0.45,0.01,
0.992,0.15,0.07,0.97,1.82,-0.45,0.01,
0.992,0.15,0.07,0.97,1.85,-0.44,0.00,
0.992,0.15,0.06,0.96,1.85,-0.44,0.00,
0.994,0.15,0.06,0.96,1.85,-0.44,0.00,
0.997,0.15,0.06,0.96,1.85,-0.44,0.00,
0.997,0.15,0.06,0.96,1.86,-0.44,0.01,
0.999,0.15,0.06,0.97,1.86,-0.44,0.01,
1.005,0.15,0.05,0.97,1.86,-0.44,0.01,
1.006,0.15,0.05,0.97,1.87,-0.48,-0.01,
1.006,0.16,0.05,0.97,1.87,-0.48,-0.01,
1.006,0.16,0.05,0.97,1.87,-0.48,-0.01,
1.006,0.16,0.05,0.97,1.89,-0.50,0.03,
1.008,0.16,0.04,0.97,1.89,-0.50,0.03,
1.011,0.15,0.03,0.97,1.89,-0.50,0.03,
1.011,0.15,0.03,0.97,1.90,-0.55,0.03,
1.013,0.16,0.03,0.97,1.90,-0.55,0.03,
1.016,0.16,0.03,0.97,1.86,-0.65,0.03,
1.017,0.16,0.02,0.96,1.86,-0.65,0.03,
1.022,0.16,0.02,0.96,1.86,-0.65,0.03,
1.023,0.16,0.01,0.96,1.86,-0.65,0.03,
1.023,0.16,0.01,0.96,1.90,-0.73,0.01,
1.023,0.15,0.01,0.96,1.90,-0.73,0.01,
1.026,0.15,0.02,0.96,1.90,-0.73,0.01,
1.026,0.15,0.02,0.96,1.94,-0.81,-0.03,
1.028,0.16,0.02,0.96,1.94,-0.81,-0.03,
1.032,0.17,0.02,0.95,1.94,-0.81,-0.03,
1.032,0.17,0.02,0.95,1.85,-0.84,-0.06,
1.044,0.18,0.02,0.95,1.85,-0.84,-0.06,
1.045,0.18,0.03,0.95,1.85,-0.84,-0.06,
1.045,0.18,0.03,0.95,2.01,-0.79,-0.08,
1.045,0.18,0.03,0.96,2.01,-0.79,-0.08,
1.045,0.18,0.03,0.96,2.11,-0.69,-0.11,
1.046,0.18,0.03,0.96,2.11,-0.69,-0.11,
1.046,0.18,0.03,0.96,2.11,-0.69,-0.11,
1.046,0.18,0.04,0.95,2.11,-0.69,-0.11,
1.047,0.18,0.04,0.95,2.11,-0.64,-0.08,
1.048,0.18,0.04,0.95,2.11,-0.64,-0.08,
1.057,0.19,0.04,0.95,2.11,-0.64,-0.08,
1.058,0.19,0.04,0.95,2.18,-0.60,-0.09,
1.058,0.19,0.04,0.95,2.18,-0.60,-0.09,
1.058,0.20,0.04,0.95,2.18,-0.60,-0.09,
1.059,0.20,0.04,0.95,2.22,-0.55,-0.16,
1.059,0.20,0.04,0.95,2.22,-0.55,-0.16,
1.061,0.20,0.05,0.94,2.22,-0.55,-0.16,
1.061,0.20,0.05,0.94,2.31,-0.48,-0.17,
1.063,0.20,0.05,0.94,2.31,-0.48,-0.17,
1.066,0.20,0.05,0.94,2.36,-0.47,-0.18,
1.066,0.21,0.06,0.95,2.36,-0.47,-0.18,
1.076,0.22,0.06,0.95,2.36,-0.47,-0.18,
1.076,0.21,0.07,0.95,2.36,-0.47,-0.18,
1.077,0.21,0.07,0.95,2.44,-0.32,-0.18,
1.077,0.22,0.07,0.95,2.44,-0.32,-0.18,
1.077,0.22,0.07,0.96,2.44,-0.32,-0.18,
1.077,0.22,0.07,0.96,2.53,-0.24,-0.14,
1.078,0.21,0.07,0.97,2.53,-0.24,-0.14,
1.08,0.21,0.08,0.97,2.53,-0.24,-0.14,
1.081,0.21,0.08,0.97,2.55,-0.17,-0.10,
1.083,0.21,0.08,0.98,2.55,-0.17,-0.10,
1.09,0.21,0.07,0.98,2.55,-0.17,-0.10,
1.091,0.21,0.07,0.98,2.52,-0.14,0.06,
1.091,0.21,0.07,1.00,2.52,-0.14,0.06,
1.091,0.21,0.07,1.00,2.51,-0.12,0.17,
1.091,0.20,0.07,1.01,2.51,-0.12,0.17,
1.093,0.19,0.07,1.02,2.51,-0.12,0.17,
1.095,0.19,0.07,1.02,2.51,-0.12,0.17,
1.096,0.19,0.07,1.02,2.42,-0.12,0.41,
1.098,0.18,0.07,1.04,2.42,-0.12,0.41,
1.106,0.17,0.07,1.05,2.42,-0.12,0.41,
1.107,0.17,0.07,1.05,2.34,-0.12,0.56,
1.107,0.16,0.06,1.05,2.34,-0.12,0.56,
1.108,0.15,0.06,1.06,2.34,-0.12,0.56,
1.108,0.15,0.06,1.06,2.20,-0.17,0.75,
1.108,0.14,0.05,1.06,2.20,-0.17,0.75,
1.11,0.13,0.05,1.07,2.20,-0.17,0.75,
1.11,0.13,0.05,1.07,2.00,-0.22,0.91,
1.112,0.13,0.05,1.07,2.00,-0.22,0.91,
1.115,0.13,0.05,1.07,1.87,-0.29,0.96,
1.116,0.12,0.04,1.07,1.87,-0.29,0.96,
1.123,0.11,0.04,1.07,1.87,-0.29,0.96,
1.124,0.11,0.04,1.07,1.87,-0.29,0.96,
1.124,0.11,0.04,1.07,1.75,-0.32,1.04,
1.124,0.11,0.04,1.07,1.75,-0.32,1.04,
1.125,0.11,0.04,1.07,1.75,-0.32,1.04,
1.125,0.11,0.04,1.07,1.67,-0.34,1.04,
1.127,0.11,0.04,1.07,1.67,-0.34,1.04,
1.131,0.11,0.04,1.06,1.67,-0.34,1.04,
1.131,0.11,0.04,1.06,1.65,-0.35,1.02,
1.132,0.11,0.05,1.06,1.65,-0.35,1.02,
1.145,0.12,0.04,1.05,1.65,-0.35,1.02,
1.146,0.12,0.04,1.05,1.64,-0.32,0.94,
1.146,0.12,0.05,1.04,1.64,-0.32,0.94,
1.146,0.12,0.05,1.04,1.69,-0.28,0.84,
1.146,0.13,0.05,1.04,1.69,-0.28,0.84,
1.147,0.13,0.05,1.04,1.69,-0.28,0.84,
1.147,0.14,0.05,1.04,1.69,-0.28,0.84,
1.147,0.14,0.05,1.04,1.78,-0.24,0.73,
1.148,0.14,0.05,1.04,1.78,-0.24,0.73,
1.15,0.15,0.05,1.04,1.78,-0.24,0.73,
1.15,0.15,0.05,1.04,1.86,-0.21,0.68,
1.16,0.15,0.05,1.04,1.86,-0.21,0.68,
1.163,0.15,0.05,1.04,1.86,-0.21,0.68,
1.164,0.15,0.05,1.04,1.94,-0.21,0.70,
1.164,0.15,0.04,1.04,1.94,-0.21,0.70,
1.165,0.15,0.04,1.04,1.94,-0.21,0.70,
1.165,0.15,0.04,1.04,1.96,-0.23,0.71,
1.166,0.15,0.04,1.05,1.96,-0.23,0.71,
1.166,0.15,0.04,1.05,1.97,-0.28,0.71,
1.166,0.15,0.04,1.05,1.97,-0.28,0.71,
1.168,0.15,0.03,1.05,1.97,-0.28,0.71,
1.176,0.15,0.03,1.05,1.97,-0.28,0.71,
1.176,0.15,0.03,1.05,1.98,-0.25,0.79,
1.177,0.15,0.03,1.05,1.98,-0.25,0.79,
1.177,0.15,0.03,1.05,1.98,-0.25,0.79,
1.177,0.15,0.03,1.05,1.95,-0.33,0.77,
1.177,0.15,0.02,1.06,1.95,-0.33,0.77,
1.18,0.15,0.02,1.05,1.95,-0.33,0.77,
1.18,0.15,0.02,1.05,1.92,-0.37,0.77,
1.182,0.15,0.02,1.06,1.92,-0.37,0.77,
1.186,0.15,0.02,1.06,1.92,-0.37,0.77,
1.187,0.15,0.02,1.06,1.91,-0.37,0.82,
1.191,0.15,0.01,1.07,1.91,-0.37,0.82,
1.191,0.15,0.01,1.07,1.88,-0.41,0.87,
1.192,0.15,0.01,1.07,1.88,-0.41,0.87,
1.192,0.15,0.02,1.07,1.88,-0.41,0.87,
1.195,0.15,0.02,1.07,1.84,-0.40,0.93,
1.195,0.15,0.01,1.07,1.84,-0.40,0.93,
1.197,0.15,0.01,1.07,1.84,-0.40,0.93,
1.2,0.15,0.01,1.07,1.83,-0.36,0.94,
1.2,0.15,0.02,1.07,1.83,-0.36,0.94,
1.206,0.15,0.01,1.07,1.83,-0.36,0.94,
1.206,0.15,0.01,1.07,1.83,-0.36,0.94,
1.207,0.15,0.01,1.07,1.80,-0.35,0.96,
1.207,0.15,0.01,1.07,1.80,-0.35,0.96,
1.21,0.15,0.01,1.07,1.80,-0.35,0.96,
1.21,0.15,0.01,1.07,1.78,-0.36,0.92,
1.212,0.15,0.01,1.07,1.78,-0.36,0.92,
1.215,0.16,0.01,1.07,1.78,-0.36,0.92,
1.215,0.16,0.01,1.07,1.74,-0.35,0.93,
1.217,0.16,0.01,1.07,1.74,-0.35,0.93,
1.223,0.17,0.01,1.07,1.74,-0.35,0.93,
1.224,0.17,0.01,1.07,1.78,-0.33,0.93,
1.224,0.17,0.01,1.05,1.78,-0.33,0.93,
1.224,0.18,0.01,1.05,1.78,-0.33,0.93,
1.224,0.18,0.01,1.05,1.86,-0.30,0.86,
1.227,0.18,0.01,1.05,1.86,-0.30,0.86,
1.23,0.18,0.01,1.04,1.86,-0.30,0.86,
1.23,0.18,0.01,1.04,1.91,-0.29,0.71,
1.232,0.19,0.00,1.03,1.91,-0.29,0.71,
1.235,0.19,0.00,1.03,1.91,-0.29,0.71,
1.235,0.19,0.00,1.03,1.95,-0.33,0.65,
1.244,0.20,-0.00,1.03,1.95,-0.33,0.65,
1.245,0.20,-0.00,1.03,2.02,-0.37,0.49,
1.245,0.21,0.00,1.02,2.02,-0.37,0.49,
1.246,0.21,-0.00,1.02,2.02,-0.37,0.49,
1.246,0.21,-0.00,1.01,2.02,-0.37,0.49,
1.246,0.21,-0.00,1.01,2.12,-0.40,0.41,
1.246,0.21,0.00,1.00,2.12,-0.40,0.41,
1.25,0.22,0.00,1.00,2.12,-0.40,0.41,
1.25,0.22,0.00,1.00,2.15,-0.42,0.34,
1.252,0.21,0.00,1.00,2.15,-0.42,0.34,
1.258,0.21,0.00,1.00,2.15,-0.42,0.34,
1.259,0.21,0.00,1.00,2.17,-0.38,0.22,
1.259,0.21,-0.00,0.99,2.17,-0.38,0.22,
1.259,0.21,-0.00,1.00,2.17,-0.38,0.22,
1.26,0.21,-0.00,1.00,2.15,-0.38,0.17,
1.262,0.21,-0.00,1.00,2.15,-0.38,0.17,
1.265,0.21,-0.00,1.00,2.15,-0.38,0.17,
1.265,0.21,-0.00,1.00,2.12,-0.41,0.14,
1.267,0.21,-0.00,1.00,2.12,-0.41,0.14,
1.276,0.20,-0.00,1.01,2.12,-0.41,0.14,
1.276,0.20,-0.00,1.01,2.07,-0.40,0.18,
1.276,0.20,-0.00,1.01,2.07,-0.40,0.18,
1.277,0.19,-0.00,1.01,2.07,-0.40,0.18,
1.277,0.19,-0.00,1.01,1.99,-0.42,0.25,
1.277,0.18,-0.00,1.02,1.99,-0.42,0.25,
1.279,0.18,-0.00,1.02,1.92,-0.41,0.28,
1.28,0.17,-0.01,1.02,1.92,-0.41,0.28,
1.281,0.15,-0.01,1.03,1.92,-0.41,0.28,
1.284,0.14,-0.01,1.04,1.92,-0.41,0.28,
1.284,0.14,-0.01,1.04,1.71,-0.42,0.35,
1.287,0.13,-0.00,1.05,1.71,-0.42,0.35,
1.292,0.13,-0.00,1.05,1.71,-0.42,0.35,
1.292,0.13,-0.00,1.05,1.48,-0.43,0.47,
1.293,0.11,-0.00,1.06,1.48,-0.43,0.47,
1.293,0.10,-0.00,1.07,1.48,-0.43,0.47,
1.294,0.10,-0.00,1.07,1.30,-0.40,0.63,
1.297,0.10,0.00,1.08,1.30,-0.40,0.63,
1.299,0.10,0.00,1.08,1.11,-0.39,0.81,
1.299,0.09,0.01,1.08,1.11,-0.39,0.81,
1.301,0.08,0.01,1.09,1.11,-0.39,0.81,
1.308,0.08,0.02,1.09,1.11,-0.39,0.81,
1.308,0.08,0.02,1.09,0.98,-0.33,0.94,
1.309,0.07,0.01,1.10,0.98,-0.33,0.94,
1.309,0.07,0.02,1.10,0.98,-0.33,0.94,
1.309,0.07,0.02,1.10,0.88,-0.25,1.01,
1.311,0.06,0.02,1.11,0.88,-0.25,1.01,
1.314,0.06,0.02,1.11,0.75,-0.24,1.13,
1.314,0.06,0.02,1.11,0.75,-0.24,1.13,
1.316,0.05,0.02,1.11,0.75,-0.24,1.13,
1.319,0.05,0.02,1.11,0.66,-0.17,1.19,
1.321,0.04,0.02,1.11,0.66,-0.17,1.19,
1.321,0.04,0.02,1.11,0.66,-0.17,1.19,
1.326,0.04,0.02,1.11,0.66,-0.17,1.19,
1.326,0.04,0.02,1.11,0.57,-0.21,1.24,
1.327,0.05,0.01,1.10,0.57,-0.21,1.24,
1.329,0.05,0.01,1.09,0.57,-0.21,1.24,
1.329,0.05,0.01,1.09,0.52,-0.20,1.22,
1.331,0.06,0.01,1.08,0.52,-0.20,1.22,
1.334,0.06,0.01,1.08,0.58,-0.25,1.07,
1.334,0.07,0.01,1.07,0.58,-0.25,1.07,
1.336,0.08,0.01,1.07,0.58,-0.25,1.07,
1.346,0.08,0.01,1.07,0.71,-0.24,0.90,
1.347,0.09,0.02,1.06,0.71,-0.24,0.90,
1.347,0.11,0.02,1.05,0.71,-0.24,0.90,
1.348,0.12,0.02,1.05,0.71,-0.24,0.90,
1.348,0.12,0.02,1.05,0.92,-0.22,0.80,
1.348,0.13,0.02,1.04,0.92,-0.22,0.80,
1.348,0.13,0.02,1.04,1.13,-0.21,0.61,
1.348,0.15,0.02,1.04,1.13,-0.21,0.61,
1.351,0.16,0.02,1.02,1.13,-0.21,0.61,
1.364,0.17,0.02,1.02,1.13,-0.21,0.61,
1.365,0.17,0.02,1.02,1.36,-0.15,0.50,
1.365,0.18,0.02,1.02,1.36,-0.15,0.50,
1.365,0.19,0.03,1.02,1.36,-0.15,0.50,
1.365,0.19,0.03,1.02,1.58,-0.16,0.34,
1.366,0.19,0.03,1.03,1.58,-0.16,0.34,
1.366,0.19,0.03,1.03,1.72,-0.08,0.29,
1.366,0.19,0.03,1.03,1.72,-0.08,0.29,
1.366,0.19,0.03,1.03,1.72,-0.08,0.29,
1.368,0.19,0.03,1.04,1.72,-0.08,0.29,
1.369,0.19,0.03,1.04,1.78,-0.07,0.38,
1.376,0.18,0.02,1.04,1.78,-0.07,0.38,
1.377,0.17,0.02,1.04,1.78,-0.07,0.38,
1.377,0.17,0.02,1.04,1.72,-0.05,0.43,
1.377,0.17,0.02,1.05,1.72,-0.05,0.43,
1.377,0.16,0.01,1.06,1.72,-0.05,0.43,
1.378,0.16,0.01,1.06,1.58,-0.10,0.53,
1.38,0.15,0.01,1.06,1.58,-0.10,0.53,
1.383,0.14,0.01,1.06,1.58,-0.10,0.53,
1.383,0.14,0.01,1.06,1.42,-0.12,0.62,
1.385,0.14,0.01,1.07,1.42,-0.12,0.62,
1.391,0.14,0.01,1.07,1.25,-0.19,0.73,
1.391,0.12,0.01,1.08,1.25,-0.19,0.73,
1.392,0.12,0.01,1.09,1.25,-0.19,0.73,
1.393,0.10,0.01,1.09,1.25,-0.19,0.73,
1.393,0.10,0.01,1.09,1.08,-0.18,0.84,
1.395,0.10,0.01,1.09,1.08,-0.18,0.84,
1.398,0.09,0.01,1.10,1.08,-0.18,0.84,
1.398,0.09,0.01,1.10,0.87,-0.16,0.96,
1.4,0.08,0.01,1.12,0.87,-0.16,0.96,
1.407,0.07,0.01,1.12,0.87,-0.16,0.96,
1.408,0.07,0.01,1.12,0.70,-0.13,1.05,
1.408,0.06,0.01,1.13,0.70,-0.13,1.05,
1.408,0.06,0.01,1.12,0.70,-0.13,1.05,
1.408,0.06,0.01,1.12,0.51,-0.13,1.23,
1.41,0.05,0.01,1.13,0.51,-0.13,1.23,
1.412,0.05,0.01,1.13,0.34,-0.14,1.27,
1.413,0.04,0.00,1.13,0.34,-0.14,1.27,
1.415,0.04,0.01,1.13,0.34,-0.14,1.27,
1.418,0.04,0.00,1.12,0.34,-0.14,1.27,
1.418,0.04,0.00,1.12,0.21,-0.20,1.30,
1.424,0.04,-0.00,1.12,0.21,-0.20,1.30,
1.424,0.03,-0.01,1.12,0.21,-0.20,1.30,
1.424,0.03,-0.01,1.12,0.13,-0.21,1.26,
1.425,0.04,-0.01,1.12,0.13,-0.21,1.26,
1.428,0.04,-0.02,1.11,0.13,-0.21,1.26,
1.428,0.04,-0.02,1.11,0.07,-0.29,1.22,
1.43,0.04,-0.02,1.11,0.07,-0.29,1.22,
1.432,0.05,-0.03,1.10,0.07,-0.29,1.22,
1.432,0.05,-0.03,1.10,0.08,-0.38,1.13,
1.434,0.06,-0.03,1.09,0.08,-0.38,1.13,
1.446,0.06,-0.03,1.09,0.12,-0.48,1.01,
1.447,0.07,-0.04,1.09,0.12,-0.48,1.01,
1.447,0.08,-0.04,1.08,0.12,-0.48,1.01,
1.448,0.09,-0.04,1.07,0.12,-0.48,1.01,
1.448,0.09,-0.04,1.07,0.31,-0.56,0.88,
1.448,0.11,-0.04,1.07,0.31,-0.56,0.88,
1.448,0.12,-0.04,1.07,0.31,-0.56,0.88,
1.449,0.12,-0.04,1.07,0.46,-0.59,0.74,
1.449,0.12,-0.04,1.06,0.46,-0.59,0.74,
1.452,0.13,-0.04,1.05,0.46,-0.59,0.74,
1.452,0.13,-0.04,1.05,0.71,-0.58,0.68,
1.459,0.14,-0.03,1.05,0.71,-0.58,0.68,
1.46,0.15,-0.04,1.05,0.71,-0.58,0.68,
1.46,0.15,-0.04,1.05,0.85,-0.55,0.55,
1.46,0.15,-0.04,1.04,0.85,-0.55,0.55,
1.462,0.15,-0.04,1.04,0.99,-0.55,0.46,
1.462,0.15,-0.04,1.03,0.99,-0.55,0.46,
1.464,0.16,-0.04,1.03,0.99,-0.55,0.46,
1.467,0.16,-0.04,1.02,0.99,-0.55,0.46,
1.467,0.16,-0.04,1.02,1.04,-0.57,0.34,
1.478,0.14,-0.04,1.02,1.04,-0.57,0.34,
1.479,0.14,-0.04,1.01,1.04,-0.57,0.34,
1.479,0.14,-0.04,1.01,1.05,-0.59,0.23,
1.48,0.13,-0.04,1.00,1.05,-0.59,0.23,
1.48,0.12,-0.04,1.00,1.05,-0.59,0.23,
1.48,0.12,-0.04,1.00,0.90,-0.60,0.13,
1.48,0.11,-0.04,0.99,0.90,-0.60,0.13,
1.481,0.09,-0.04,0.99,0.90,-0.60,0.13,
1.482,0.09,-0.04,0.99,0.70,-0.63,-0.03,
1.484,0.07,-0.04,0.98,0.70,-0.63,-0.03,
1.493,0.07,-0.04,0.98,0.70,-0.63,-0.03,
1.494,0.07,-0.04,0.98,0.43,-0.62,-0.10,
1.494,0.05,-0.04,0.99,0.43,-0.62,-0.10,
1.494,0.04,-0.04,0.99,0.43,-0.62,-0.10,
1.494,0.04,-0.04,0.99,0.17,-0.65,-0.18,
1.494,0.03,-0.04,0.99,0.17,-0.65,-0.18,
1.497,0.01,-0.03,0.99,0.17,-0.65,-0.18,
1.497,0.01,-0.03,0.99,-0.09,-0.63,-0.14,
1.499,0.01,-0.03,0.99,-0.09,-0.63,-0.14,
1.502,-0.01,-0.03,1.00,-0.09,-0.63,-0.14,
1.502,-0.01,-0.03,1.00,-0.31,-0.60,-0.12,
1.507,-0.02,-0.02,0.99,-0.31,-0.60,-0.12,
1.509,-0.02,-0.02,0.99,-0.52,-0.55,-0.10,
1.509,-0.03,-0.02,0.99,-0.52,-0.55,-0.10,
1.509,-0.04,-0.02,0.98,-0.52,-0.55,-0.10,
1.511,-0.04,-0.02,0.98,-0.73,-0.49,-0.08,
1.512,-0.04,-0.02,0.99,-0.73,-0.49,-0.08,
1.514,-0.05,-0.01,0.99,-0.73,-0.49,-0.08,
1.517,-0.05,-0.01,0.99,-0.73,-0.49,-0.08,
1.517,-0.05,-0.01,0.99,-0.88,-0.49,-0.14,
1.519,-0.06,-0.01,1.00,-0.88,-0.49,-0.14,
1.526,-0.06,-0.01,1.00,-0.88,-0.49,-0.14,
1.526,-0.06,-0.01,1.00,-0.99,-0.41,-0.11,
1.526,-0.06,-0.01,1.00,-0.99,-0.41,-0.11,
1.527,-0.06,-0.00,1.01,-0.99,-0.41,-0.11,
1.527,-0.06,-0.00,1.01,-1.09,-0.42,-0.02,
1.529,-0.07,0.00,1.01,-1.09,-0.42,-0.02,
1.532,-0.06,-0.00,1.01,-1.09,-0.42,-0.02,
1.532,-0.06,-0.00,1.01,-1.12,-0.37,0.05,
1.533,-0.06,0.00,1.01,-1.12,-0.37,0.05,
1.536,-0.06,0.00,1.01,-1.14,-0.32,0.10,
1.537,-0.06,0.00,1.02,-1.14,-0.32,0.10,
1.544,-0.06,0.00,1.01,-1.14,-0.32,0.10,
1.545,-0.06,0.00,1.01,-1.14,-0.32,0.10,
1.545,-0.06,0.00,1.01,-1.13,-0.29,0.15,
1.545,-0.06,0.00,1.01,-1.13,-0.29,0.15,
1.546,-0.05,0.00,1.01,-1.13,-0.29,0.15,
1.547,-0.05,0.00,1.01,-1.08,-0.29,0.10,
1.549,-0.05,-0.00,1.01,-1.08,-0.29,0.10,
1.552,-0.05,-0.00,1.01,-1.07,-0.29,0.06,
1.552,-0.05,-0.00,1.01,-1.07,-0.29,0.06,
1.553,-0.05,0.00,1.00,-1.07,-0.29,0.06,
1.561,-0.05,-0.01,0.99,-1.07,-0.29,0.06,
1.562,-0.05,-0.01,0.99,-1.04,-0.33,0.05,
1.562,-0.05,-0.01,0.98,-1.04,-0.33,0.05,
1.562,-0.05,-0.01,0.98,-1.06,-0.32,-0.06,
1.562,-0.05,-0.01,0.99,-1.06,-0.32,-0.06,
1.564,-0.05,-0.01,0.98,-1.06,-0.32,-0.06,
1.567,-0.06,-0.01,0.98,-1.06,-0.32,-0.06,
1.567,-0.06,-0.01,0.98,-1.07,-0.39,-0.15,
1.568,-0.06,-0.01,0.98,-1.07,-0.39,-0.15,
1.579,-0.06,-0.01,0.98,-1.07,-0.39,-0.15,
1.579,-0.06,-0.01,0.98,-1.14,-0.42,-0.17,
1.58,-0.06,-0.01,0.98,-1.14,-0.42,-0.17,
1.58,-0.06,-0.01,0.98,-1.14,-0.42,-0.17,
1.58,-0.06,-0.01,0.98,-1.18,-0.42,-0.19,
1.58,-0.05,-0.01,0.98,-1.18,-0.42,-0.19,
1.581,-0.06,-0.01,0.97,-1.18,-0.42,-0.19,
1.581,-0.06,-0.01,0.97,-1.24,-0.40,-0.20,
1.583,-0.06,-0.01,0.97,-1.24,-0.40,-0.20,
1.586,-0.06,-0.01,0.97,-1.23,-0.38,-0.25,
1.587,-0.06,-0.01,0.96,-1.23,-0.38,-0.25,
1.595,-0.06,-0.01,0.96,-1.23,-0.38,-0.25,
1.596,-0.05,-0.01,0.96,-1.23,-0.38,-0.25,
1.596,-0.05,-0.01,0.96,-1.27,-0.38,-0.35,
1.597,-0.06,-0.01,0.96,-1.27,-0.38,-0.35,
1.597,-0.06,-0.01,0.96,-1.27,-0.38,-0.35,
1.597,-0.06,-0.01,0.96,-1.27,-0.40,-0.40,
1.599,-0.05,-0.01,0.96,-1.27,-0.40,-0.40,
1.601,-0.05,-0.02,0.97,-1.27,-0.40,-0.40,
1.601,-0.05,-0.02,0.97,-1.32,-0.38,-0.39,
1.603,-0.04,-0.01,0.96,-1.32,-0.38,-0.39,
1.609,-0.04,-0.01,0.96,-1.32,-0.38,-0.39,
1.61,-0.04,-0.01,0.96,-1.25,-0.40,-0.33,
1.61,-0.04,-0.01,0.97,-1.25,-0.40,-0.33,
1.61,-0.04,-0.01,0.97,-1.18,-0.35,-0.35,
1.611,-0.04,-0.01,0.96,-1.18,-0.35,-0.35,
1.614,-0.04,-0.00,0.96,-1.18,-0.35,-0.35,
1.616,-0.03,-0.00,0.96,-1.18,-0.35,-0.35,
1.616,-0.03,-0.00,0.96,-1.16,-0.35,-0.32,
1.618,-0.03,0.00,0.96,-1.16,-0.35,-0.32,
1.62,-0.03,0.01,0.97,-1.16,-0.35,-0.32,
1.621,-0.03,0.01,0.97,-1.14,-0.29,-0.37,
1.627,-0.03,0.00,0.96,-1.14,-0.29,-0.37,
1.628,-0.04,0.00,0.97,-1.14,-0.29,-0.37,
1.628,-0.04,0.00,0.97,-1.13,-0.24,-0.32,
1.628,-0.03,0.00,0.98,-1.13,-0.24,-0.32,
1.63,-0.03,0.00,0.98,-1.16,-0.24,-0.29,
1.631,-0.04,-0.00,0.98,-1.16,-0.24,-0.29,
1.633,-0.04,-0.00,0.98,-1.16,-0.24,-0.29,
1.635,-0.04,-0.00,0.98,-1.17,-0.29,-0.20,
1.636,-0.05,-0.01,0.99,-1.17,-0.29,-0.20,
1.649,-0.05,-0.02,0.99,-1.17,-0.29,-0.20,
1.65,-0.06,-0.02,0.99,-1.17,-0.29,-0.20,
1.65,-0.06,-0.02,0.99,-1.26,-0.35,-0.13,
1.65,-0.06,-0.02,0.99,-1.26,-0.35,-0.13,
1.65,-0.07,-0.02,0.99,-1.26,-0.35,-0.13,
1.651,-0.07,-0.02,0.99,-1.37,-0.45,-0.08,
1.651,-0.08,-0.02,0.99,-1.37,-0.45,-0.08,
1.653,-0.08,-0.03,0.99,-1.37,-0.45,-0.08,
1.654,-0.08,-0.03,0.99,-1.48,-0.50,-0.04,
1.654,-0.09,-0.04,0.99,-1.48,-0.50,-0.04,
1.656,-0.10,-0.04,0.98,-1.48,-0.50,-0.04,
1.657,-0.10,-0.04,0.98,-1.59,-0.56,-0.03,
1.657,-0.10,-0.04,0.99,-1.59,-0.56,-0.03,
1.662,-0.10,-0.04,0.99,-1.71,-0.68,-0.13,
1.663,-0.10,-0.04,0.99,-1.71,-0.68,-0.13,
1.663,-0.11,-0.05,0.99,-1.71,-0.68,-0.13,
1.666,-0.11,-0.05,0.99,-1.81,-0.73,-0.07,
1.667,-0.11,-0.04,0.98,-1.81,-0.73,-0.07,
1.668,-0.11,-0.05,0.98,-1.81,-0.73,-0.07,
1.67,-0.11,-0.05,0.97,-1.81,-0.73,-0.07,
1.671,-0.11,-0.05,0.97,-1.84,-0.76,-0.11,
1.678,-0.12,-0.05,0.97,-1.84,-0.76,-0.11,
1.678,-0.12,-0.05,0.96,-1.84,-0.76,-0.11,
1.678,-0.12,-0.05,0.96,-1.89,-0.81,-0.22,
1.679,-0.12,-0.04,0.95,-1.89,-0.81,-0.22,
1.681,-0.12,-0.04,0.96,-1.89,-0.81,-0.22,
1.681,-0.12,-0.04,0.96,-1.91,-0.81,-0.32,
1.682,-0.12,-0.04,0.95,-1.91,-0.81,-0.32,
1.685,-0.12,-0.04,0.95,-1.93,-0.73,-0.42,
1.685,-0.11,-0.03,0.95,-1.93,-0.73,-0.42,
1.691,-0.10,-0.02,0.94,-1.93,-0.73,-0.42,
1.692,-0.10,-0.03,0.93,-1.93,-0.73,-0.42,
1.692,-0.10,-0.03,0.93,-1.88,-0.68,-0.46,
1.692,-0.09,-0.02,0.94,-1.88,-0.68,-0.46,
1.695,-0.09,-0.01,0.94,-1.88,-0.68,-0.46,
1.695,-0.09,-0.01,0.94,-1.77,-0.60,-0.58,
1.697,-0.09,-0.01,0.93,-1.77,-0.60,-0.58,
1.7,-0.09,-0.01,0.93,-1.77,-0.60,-0.58,
1.7,-0.09,-0.01,0.93,-1.68,-0.49,-0.58,
1.702,-0.10,-0.01,0.93,-1.68,-0.49,-0.58,
1.709,-0.09,-0.01,0.94,-1.68,-0.49,-0.58,
1.709,-0.09,-0.01,0.94,-1.68,-0.44,-0.61,
1.709,-0.10,-0.01,0.93,-1.68,-0.44,-0.61,
1.709,-0.10,-0.01,0.93,-1.68,-0.44,-0.61,
1.709,-0.10,-0.01,0.93,-1.71,-0.45,-0.61,
1.712,-0.10,-0.01,0.93,-1.71,-0.45,-0.61,
1.715,-0.10,-0.01,0.93,-1.71,-0.45,-0.61,
1.715,-0.10,-0.01,0.93,-1.76,-0.50,-0.66,
1.717,-0.10,-0.02,0.93,-1.76,-0.50,-0.66,
1.72,-0.10,-0.02,0.93,-1.76,-0.50,-0.66,
1.72,-0.10,-0.02,0.93,-1.77,-0.53,-0.63,
1.725,-0.11,-0.02,0.93,-1.77,-0.53,-0.63,
1.726,-0.11,-0.02,0.93,-1.77,-0.53,-0.63,
1.726,-0.11,-0.02,0.93,-1.79,-0.55,-0.63,
1.727,-0.12,-0.02,0.93,-1.79,-0.55,-0.63,
1.73,-0.12,-0.02,0.93,-1.79,-0.55,-0.63,
1.73,-0.12,-0.02,0.93,-1.87,-0.58,-0.63,
1.732,-0.12,-0.02,0.94,-1.87,-0.58,-0.63,
1.735,-0.12,-0.02,0.94,-1.96,-0.59,-0.61,
1.735,-0.13,-0.02,0.93,-1.96,-0.59,-0.61,
1.737,-0.13,-0.02,0.94,-1.96,-0.59,-0.61,
1.747,-0.14,-0.03,0.95,-1.96,-0.59,-0.61,
1.747,-0.14,-0.03,0.95,-2.02,-0.62,-0.59,
1.748,-0.14,-0.04,0.95,-2.02,-0.62,-0.59,
1.748,-0.15,-0.03,0.95,-2.02,-0.62,-0.59,
1.748,-0.15,-0.03,0.95,-2.12,-0.64,-0.49,
1.748,-0.16,-0.03,0.96,-2.12,-0.64,-0.49,
1.75,-0.17,-0.03,0.96,-2.12,-0.64,-0.49,
1.75,-0.17,-0.03,0.96,-2.21,-0.72,-0.42,
1.752,-0.17,-0.03,0.95,-2.21,-0.72,-0.42,
1.762,-0.18,-0.03,0.95,-2.21,-0.72,-0.42,
1.763,-0.18,-0.03,0.95,-2.38,-0.71,-0.38,
1.763,-0.18,-0.03,0.94,-2.38,-0.71,-0.38,
1.763,-0.18,-0.03,0.94,-2.47,-0.70,-0.43,
1.764,-0.18,-0.03,0.94,-2.47,-0.70,-0.43,
1.764,-0.18,-0.03,0.94,-2.47,-0.70,-0.43,
1.764,-0.18,-0.04,0.92,-2.47,-0.70,-0.43,
1.764,-0.18,-0.04,0.92,-2.54,-0.70,-0.52,
1.767,-0.17,-0.04,0.92,-2.54,-0.70,-0.52,
1.769,-0.17,-0.03,0.92,-2.54,-0.70,-0.52,
1.77,-0.17,-0.03,0.92,-2.50,-0.75,-0.63,
1.771,-0.16,-0.03,0.91,-2.50,-0.75,-0.63,
1.779,-0.16,-0.03,0.90,-2.50,-0.75,-0.63,
1.779,-0.16,-0.03,0.90,-2.44,-0.74,-0.74,
1.78,-0.15,-0.03,0.90,-2.44,-0.74,-0.74,
1.78,-0.15,-0.02,0.90,-2.44,-0.74,-0.74,
1.78,-0.15,-0.02,0.90,-2.32,-0.67,-0.86,
1.781,-0.14,-0.02,0.90,-2.32,-0.67,-0.86,
1.784,-0.14,-0.02,0.90,-2.23,-0.65,-0.90,
1.784,-0.14,-0.01,0.89,-2.23,-0.65,-0.90,
1.786,-0.14,-0.01,0.89,-2.23,-0.65,-0.90,
1.794,-0.14,-0.01,0.89,-2.23,-0.65,-0.90,
1.794,-0.14,-0.01,0.89,-2.16,-0.55,-0.96,
1.795,-0.14,-0.01,0.90,-2.16,-0.55,-0.96,
1.795,-0.14,-0.01,0.90,-2.16,-0.55,-0.96,
1.795,-0.14,-0.01,0.90,-2.14,-0.49,-0.97,
1.796,-0.16,-0.02,0.91,-2.14,-0.49,-0.97,
1.799,-0.17,-0.02,0.92,-2.14,-0.49,-0.97,
1.799,-0.17,-0.02,0.92,-2.19,-0.52,-0.90,
1.801,-0.18,-0.02,0.93,-2.19,-0.52,-0.90,
1.803,-0.19,-0.02,0.92,-2.19,-0.52,-0.90,
1.803,-0.19,-0.02,0.92,-2.35,-0.56,-0.78,
1.81,-0.20,-0.02,0.94,-2.35,-0.56,-0.78,
1.81,-0.20,-0.02,0.94,-2.54,-0.59,-0.67,
1.81,-0.21,-0.03,0.94,-2.54,-0.59,-0.67,
1.811,-0.23,-0.04,0.94,-2.54,-0.59,-0.67,
1.813,-0.24,-0.03,0.94,-2.54,-0.59,-0.67,
1.816,-0.24,-0.03,0.94,-2.76,-0.65,-0.53,
1.816,-0.24,-0.03,0.95,-2.76,-0.65,-0.53,
1.818,-0.25,-0.03,0.95,-2.76,-0.65,-0.53,
1.818,-0.25,-0.03,0.95,-2.97,-0.72,-0.47,
1.821,-0.26,-0.02,0.96,-2.97,-0.72,-0.47,
1.828,-0.27,-0.02,0.96,-2.97,-0.72,-0.47,
1.829,-0.27,-0.02,0.96,-3.05,-0.65,-0.41,
1.829,-0.27,-0.03,0.97,-3.05,-0.65,-0.41,
1.829,-0.27,-0.03,0.97,-3.20,-0.63,-0.32,
1.829,-0.29,-0.03,0.96,-3.20,-0.63,-0.32,
1.83,-0.29,-0.03,0.96,-3.20,-0.63,-0.32,
1.833,-0.29,-0.03,0.96,-3.32,-0.71,-0.29,
1.834,-0.29,-0.02,0.95,-3.32,-0.71,-0.29,
1.835,-0.28,-0.02,0.95,-3.32,-0.71,-0.29,
1.839,-0.28,-0.02,0.94,-3.32,-0.71,-0.29,
1.839,-0.28,-0.02,0.94,-3.42,-0.66,-0.38,
1.84,-0.28,-0.02,0.94,-3.42,-0.66,-0.38,
1.845,-0.28,-0.02,0.93,-3.42,-0.66,-0.38,
1.845,-0.28,-0.02,0.93,-3.33,-0.59,-0.44,
1.845,-0.27,-0.02,0.92,-3.33,-0.59,-0.44,
1.848,-0.27,-0.02,0.93,-3.33,-0.59,-0.44,
1.849,-0.27,-0.02,0.93,-3.25,-0.59,-0.55,
1.85,-0.26,-0.01,0.92,-3.25,-0.59,-0.55,
1.853,-0.26,-0.01,0.91,-3.25,-0.59,-0.55,
1.853,-0.26,-0.01,0.91,-3.17,-0.59,-0.65,
1.855,-0.25,-0.02,0.91,-3.17,-0.59,-0.65,
1.858,-0.25,-0.01,0.91,-3.17,-0.59,-0.65,
1.859,-0.25,-0.01,0.91,-3.08,-0.54,-0.73,
1.86,-0.24,-0.01,0.91,-3.08,-0.54,-0.73,
1.863,-0.24,-0.01,0.91,-2.97,-0.56,-0.79,
1.863,-0.24,-0.01,0.91,-2.97,-0.56,-0.79,
1.866,-0.23,-0.01,0.91,-2.97,-0.56,-0.79,
1.868,-0.23,-0.01,0.91,-2.97,-0.56,-0.79,
1.869,-0.23,-0.01,0.91,-2.83,-0.52,-0.79,
1.87,-0.22,-0.01,0.92,-2.83,-0.52,-0.79,
1.873,-0.22,-0.01,0.92,-2.83,-0.52,-0.79,
1.873,-0.22,-0.01,0.92,-2.71,-0.52,-0.83,
1.875,-0.22,-0.02,0.92,-2.71,-0.52,-0.83,
1.878,-0.22,-0.02,0.92,-2.60,-0.50,-0.74,
1.878,-0.22,-0.02,0.93,-2.60,-0.50,-0.74,
1.881,-0.22,-0.03,0.94,-2.60,-0.50,-0.74,
1.883,-0.22,-0.03,0.94,-2.60,-0.50,-0.74,
1.883,-0.22,-0.03,0.94,-2.56,-0.55,-0.64,
1.885,-0.22,-0.03,0.95,-2.56,-0.55,-0.64,
1.888,-0.22,-0.03,0.95,-2.53,-0.62,-0.50,
1.888,-0.22,-0.04,0.97,-2.53,-0.62,-0.50,
1.89,-0.22,-0.04,0.98,-2.53,-0.62,-0.50,
1.892,-0.22,-0.04,0.99,-2.53,-0.62,-0.50,
1.893,-0.22,-0.04,0.99,-2.50,-0.67,-0.32,
1.895,-0.22,-0.05,1.00,-2.50,-0.67,-0.32,
1.898,-0.23,-0.05,1.01,-2.50,-0.67,-0.32,
1.898,-0.23,-0.05,1.01,-2.48,-0.72,-0.09,
1.899,-0.23,-0.05,1.02,-2.48,-0.72,-0.09,
1.903,-0.24,-0.05,1.03,-2.48,-0.72,-0.09,
1.903,-0.24,-0.05,1.03,-2.51,-0.76,0.12,
1.906,-0.25,-0.05,1.04,-2.51,-0.76,0.12,
1.908,-0.25,-0.05,1.04,-2.60,-0.75,0.36,
1.908,-0.26,-0.05,1.04,-2.60,-0.75,0.36,
1.91,-0.27,-0.06,1.06,-2.60,-0.75,0.36,
1.913,-0.28,-0.05,1.07,-2.60,-0.75,0.36,
1.913,-0.28,-0.05,1.07,-2.69,-0.73,0.49,
1.915,-0.29,-0.05,1.07,-2.69,-0.73,0.49,
1.918,-0.29,-0.05,1.07,-2.87,-0.77,0.67,
1.918,-0.30,-0.05,1.08,-2.87,-0.77,0.67,
1.92,-0.31,-0.04,1.08,-2.87,-0.77,0.67,
1.926,-0.31,-0.04,1.09,-2.87,-0.77,0.67,
1.927,-0.31,-0.04,1.09,-3.04,-0.70,0.82,
1.927,-0.32,-0.04,1.09,-3.04,-0.70,0.82,
1.927,-0.32,-0.04,1.09,-3.18,-0.59,0.92,
1.928,-0.33,-0.03,1.10,-3.18,-0.59,0.92,
1.93,-0.33,-0.03,1.09,-3.18,-0.59,0.92,
1.932,-0.33,-0.03,1.09,-3.29,-0.53,0.97,
1.932,-0.34,-0.02,1.10,-3.29,-0.53,0.97,
1.935,-0.34,-0.02,1.09,-3.29,-0.53,0.97,
1.938,-0.34,-0.01,1.09,-3.29,-0.53,0.97,
1.938,-0.34,-0.01,1.09,-3.36,-0.44,1.02,
1.94,-0.34,-0.01,1.09,-3.36,-0.44,1.02,
1.942,-0.33,-0.01,1.08,-3.36,-0.44,1.02,
1.942,-0.33,-0.01,1.08,-3.39,-0.34,0.95,
1.945,-0.33,-0.01,1.07,-3.39,-0.34,0.95,
1.948,-0.33,-0.01,1.07,-3.32,-0.25,0.87,
1.948,-0.33,-0.00,1.07,-3.32,-0.25,0.87,
1.949,-0.32,0.00,1.06,-3.32,-0.25,0.87,
1.952,-0.32,0.01,1.06,-3.32,-0.25,0.87,
1.952,-0.32,0.01,1.06,-3.23,-0.19,0.73,
1.955,-0.31,0.01,1.05,-3.23,-0.19,0.73,
1.957,-0.31,0.01,1.05,-3.12,-0.10,0.62,
1.957,-0.31,0.02,1.04,-3.12,-0.10,0.62,
1.959,-0.30,0.02,1.03,-3.12,-0.10,0.62,
1.962,-0.30,0.02,1.03,-3.03,-0.02,0.47,
1.962,-0.30,0.02,1.02,-3.03,-0.02,0.47,
1.964,-0.30,0.02,1.02,-3.03,-0.02,0.47,
1.967,-0.30,0.02,1.02,-2.92,0.03,0.33,
1.967,-0.29,0.02,1.02,-2.92,0.03,0.33,
1.969,-0.29,0.02,1.01,-2.92,0.03,0.33,
1.973,-0.29,0.02,1.01,-2.92,0.03,0.33,
1.973,-0.29,0.02,1.01,-2.85,0.03,0.24,
1.974,-0.30,0.01,1.01,-2.85,0.03,0.24,
1.977,-0.30,0.01,1.01,-2.85,0.03,0.24,
1.977,-0.30,0.01,1.01,-2.80,0.05,0.16,
1.979,-0.30,0.00,1.01,-2.80,0.05,0.16,
1.982,-0.30,0.00,1.01,-2.84,0.00,0.15,
1.982,-0.31,0.01,1.00,-2.84,0.00,0.15,
1.984,-0.30,0.01,1.01,-2.84,0.00,0.15,
1.986,-0.30,0.01,1.02,-2.84,0.00,0.15,
1.987,-0.30,0.01,1.02,-2.86,-0.06,0.11,
1.99,-0.29,0.01,1.03,-2.86,-0.06,0.11,
1.991,-0.29,0.01,1.04,-2.86,-0.06,0.11,
1.992,-0.29,0.01,1.04,-2.83,-0.01,0.18,
1.994,-0.30,0.01,1.05,-2.83,-0.01,0.18,
1.996,-0.30,0.01,1.05,-2.73,0.02,0.38,
1.996,-0.30,0.00,1.05,-2.73,0.02,0.38,
1.999,-0.30,0.01,1.05,-2.73,0.02,0.38,
2.002,-0.30,-0.00,1.06,-2.73,0.02,0.38,
2.002,-0.30,-0.00,1.06,-2.74,0.01,0.51,
2.003,-0.31,-0.00,1.06,-2.74,0.01,0.51,
2.007,-0.31,-0.00,1.06,-2.76,-0.02,0.59,
2.007,-0.31,-0.01,1.06,-2.76,-0.02,0.59,
2.008,-0.31,-0.01,1.07,-2.76,-0.02,0.59,
2.011,-0.32,-0.01,1.08,-2.76,-0.02,0.59,
2.011,-0.32,-0.01,1.08,-2.79,-0.08,0.65,
2.013,-0.32,-0.02,1.09,-2.79,-0.08,0.65,
2.016,-0.32,-0.02,1.09,-2.79,-0.08,0.65,
2.016,-0.32,-0.02,1.09,-2.80,-0.12,0.76,
2.018,-0.32,-0.03,1.10,-2.80,-0.12,0.76,
2.021,-0.33,-0.04,1.10,-2.80,-0.12,0.76,
2.021,-0.33,-0.04,1.10,-2.81,-0.19,0.91,
2.028,-0.33,-0.04,1.11,-2.81,-0.19,0.91,
2.029,-0.33,-0.04,1.12,-2.81,-0.19,0.91,
2.029,-0.33,-0.04,1.12,-2.84,-0.28,1.03,
2.029,-0.33,-0.05,1.13,-2.84,-0.28,1.03,
2.031,-0.33,-0.05,1.13,-2.85,-0.36,1.18,
2.032,-0.32,-0.05,1.14,-2.85,-0.36,1.18,
2.033,-0.32,-0.06,1.14,-2.85,-0.36,1.18,
2.036,-0.31,-0.05,1.14,-2.85,-0.36,1.18,
2.036,-0.31,-0.05,1.14,-2.78,-0.42,1.33,
2.039,-0.30,-0.06,1.15,-2.78,-0.42,1.33,
2.041,-0.29,-0.06,1.15,-2.78,-0.42,1.33,
2.042,-0.29,-0.06,1.15,-2.62,-0.44,1.44,
2.043,-0.28,-0.07,1.15,-2.62,-0.44,1.44,
2.046,-0.28,-0.07,1.15,-2.62,-0.44,1.44,
2.046,-0.28,-0.07,1.15,-2.46,-0.48,1.50,
2.048,-0.26,-0.08,1.16,-2.46,-0.48,1.50,
2.051,-0.25,-0.08,1.15,-2.46,-0.48,1.50,
2.051,-0.25,-0.08,1.15,-2.27,-0.54,1.53,
2.053,-0.24,-0.08,1.15,-2.27,-0.54,1.53,
2.058,-0.24,-0.08,1.15,-2.04,-0.58,1.52,
2.058,-0.23,-0.08,1.14,-2.04,-0.58,1.52,
2.058,-0.22,-0.09,1.14,-2.04,-0.58,1.52,
2.061,-0.21,-0.09,1.13,-2.04,-0.58,1.52,
2.061,-0.21,-0.09,1.13,-1.85,-0.60,1.42,
2.063,-0.21,-0.09,1.13,-1.85,-0.60,1.42,
2.066,-0.21,-0.09,1.13,-1.63,-0.67,1.36,
2.066,-0.20,-0.09,1.13,-1.63,-0.67,1.36,
2.068,-0.20,-0.10,1.12,-1.63,-0.67,1.36,
2.071,-0.20,-0.10,1.12,-1.51,-0.66,1.30,
2.071,-0.19,-0.10,1.12,-1.51,-0.66,1.30,
2.073,-0.19,-0.10,1.12,-1.51,-0.66,1.30,
2.075,-0.19,-0.11,1.12,-1.51,-0.66,1.30,
2.076,-0.19,-0.11,1.12,-1.40,-0.68,1.23,
2.078,-0.19,-0.11,1.12,-1.40,-0.68,1.23,
2.081,-0.19,-0.11,1.12,-1.34,-0.69,1.20,
2.081,-0.18,-0.11,1.11,-1.34,-0.69,1.20,
2.083,-0.18,-0.11,1.10,-1.34,-0.69,1.20,
2.085,-0.17,-0.11,1.11,-1.34,-0.69,1.20,
2.086,-0.17,-0.11,1.11,-1.30,-0.70,1.13,
2.088,-0.17,-0.10,1.10,-1.30,-0.70,1.13,
2.092,-0.17,-0.10,1.10,-1.30,-0.70,1.13,
2.092,-0.17,-0.10,1.10,-1.20,-0.69,1.05,
2.093,-0.16,-0.10,1.10,-1.20,-0.69,1.05,
2.095,-0.16,-0.10,1.10,-1.20,-0.69,1.05,
2.096,-0.16,-0.10,1.10,-1.12,-0.63,1.00,
2.098,-0.16,-0.10,1.09,-1.12,-0.63,1.00,
2.1,-0.16,-0.09,1.09,-1.12,-0.63,1.00,
2.1,-0.16,-0.09,1.09,-1.07,-0.60,0.99,
2.103,-0.16,-0.09,1.10,-1.07,-0.60,0.99,
2.11,-0.16,-0.09,1.10,-1.04,-0.52,0.94,
2.111,-0.17,-0.08,1.09,-1.04,-0.52,0.94,
2.111,-0.17,-0.08,1.09,-1.04,-0.52,0.94,
2.111,-0.18,-0.07,1.10,-1.04,-0.52,0.94,
2.112,-0.18,-0.07,1.10,-1.07,-0.40,0.96,
2.114,-0.18,-0.08,1.10,-1.07,-0.40,0.96,
2.115,-0.18,-0.07,1.09,-1.07,-0.40,0.96,
2.115,-0.18,-0.07,1.09,-1.17,-0.32,0.96,
2.118,-0.18,-0.06,1.09,-1.17,-0.32,0.96,
2.12,-0.18,-0.05,1.09,-1.17,-0.32,0.96,
2.12,-0.18,-0.05,1.09,-1.19,-0.24,0.93,
2.123,-0.19,-0.06,1.09,-1.19,-0.24,0.93,
2.125,-0.19,-0.06,1.09,-1.19,-0.24,0.93,
2.125,-0.19,-0.06,1.09,-1.19,-0.06,0.92,
2.127,-0.19,-0.06,1.08,-1.19,-0.06,0.92,
2.13,-0.19,-0.06,1.08,-1.26,-0.09,0.89,
2.13,-0.19,-0.06,1.08,-1.26,-0.09,0.89,
2.132,-0.19,-0.05,1.09,-1.26,-0.09,0.89,
2.135,-0.18,-0.05,1.08,-1.26,-0.09,0.89,
2.135,-0.18,-0.05,1.08,-1.24,-0.07,0.82,
2.137,-0.18,-0.05,1.08,-1.24,-0.07,0.82,
2.14,-0.18,-0.05,1.07,-1.24,-0.07,0.82,
2.141,-0.18,-0.05,1.07,-1.19,0.02,0.82,
2.142,-0.17,-0.05,1.07,-1.19,0.02,0.82,
2.146,-0.17,-0.05,1.07,-1.10,0.03,0.74,
2.147,-0.16,-0.05,1.07,-1.10,0.03,0.74,
2.147,-0.16,-0.05,1.07,-1.10,0.03,0.74,
2.15,-0.15,-0.05,1.07,-1.10,0.03,0.74,
2.15,-0.15,-0.05,1.07,-0.97,0.02,0.69,
2.153,-0.15,-0.05,1.07,-0.97,0.02,0.69,
2.155,-0.15,-0.05,1.07,-0.86,0.01,0.69,
2.156,-0.14,-0.05,1.07,-0.86,0.01,0.69,
2.158,-0.14,-0.05,1.08,-0.86,0.01,0.69,
2.16,-0.13,-0.05,1.09,-0.86,0.01,0.69,
2.16,-0.13,-0.05,1.09,-0.71,0.03,0.70,
2.163,-0.12,-0.06,1.09,-0.71,0.03,0.70,
2.166,-0.12,-0.06,1.09,-0.71,0.03,0.70,
2.166,-0.12,-0.06,1.09,-0.62,0.00,0.83,
2.17,-0.12,-0.06,1.10,-0.62,0.00,0.83,
2.17,-0.12,-0.06,1.10,-0.62,0.00,0.83,
2.17,-0.12,-0.06,1.10,-0.46,-0.01,0.91,
2.172,-0.11,-0.07,1.11,-0.46,-0.01,0.91,
2.175,-0.11,-0.07,1.11,-0.46,-0.01,0.91,
2.176,-0.11,-0.07,1.11,-0.42,-0.06,1.00,
2.177,-0.11,-0.07,1.11,-0.42,-0.06,1.00,
2.18,-0.11,-0.07,1.11,-0.34,-0.10,1.10,
2.18,-0.11,-0.07,1.12,-0.34,-0.10,1.10,
2.182,-0.11,-0.07,1.12,-0.34,-0.10,1.10,
2.185,-0.11,-0.07,1.12,-0.31,-0.13,1.14,
2.185,-0.11,-0.08,1.12,-0.31,-0.13,1.14,
2.187,-0.11,-0.08,1.13,-0.31,-0.13,1.14,
2.191,-0.11,-0.08,1.13,-0.31,-0.13,1.14,
2.192,-0.11,-0.08,1.13,-0.30,-0.15,1.21,
2.192,-0.11,-0.08,1.13,-0.30,-0.15,1.21,
2.195,-0.11,-0.08,1.13,-0.29,-0.17,1.27,
2.195,-0.11,-0.08,1.14,-0.29,-0.17,1.27,
2.197,-0.12,-0.08,1.14,-0.29,-0.17,1.27,
2.2,-0.12,-0.08,1.14,-0.29,-0.17,1.27,
2.2,-0.12,-0.08,1.14,-0.30,-0.13,1.32,
2.202,-0.12,-0.08,1.14,-0.30,-0.13,1.32,
2.205,-0.12,-0.08,1.14,-0.31,-0.14,1.38,
2.205,-0.12,-0.08,1.14,-0.31,-0.14,1.38,
2.208,-0.12,-0.08,1.15,-0.31,-0.14,1.38,
2.209,-0.12,-0.08,1.15,-0.31,-0.14,1.38,
2.21,-0.12,-0.08,1.15,-0.32,-0.12,1.38,
2.211,-0.12,-0.08,1.15,-0.32,-0.12,1.38,
2.215,-0.12,-0.08,1.15,-0.34,-0.09,1.45,
2.215,-0.12,-0.08,1.15,-0.34,-0.09,1.45,
2.216,-0.12,-0.08,1.14,-0.34,-0.09,1.45,
2.22,-0.13,-0.08,1.15,-0.34,-0.09,1.45,
2.22,-0.13,-0.08,1.15,-0.36,-0.09,1.48,
2.222,-0.12,-0.08,1.15,-0.36,-0.09,1.48,
2.228,-0.12,-0.08,1.14,-0.36,-0.09,1.48,
2.228,-0.12,-0.08,1.14,-0.35,-0.08,1.42,
2.228,-0.11,-0.07,1.13,-0.35,-0.08,1.42,
2.23,-0.11,-0.07,1.13,-0.33,-0.09,1.46,
2.23,-0.11,-0.08,1.13,-0.33,-0.09,1.46,
2.232,-0.10,-0.07,1.13,-0.33,-0.09,1.46,
2.235,-0.10,-0.06,1.12,-0.33,-0.09,1.46,
2.235,-0.10,-0.06,1.12,-0.25,-0.04,1.31,
2.237,-0.10,-0.06,1.12,-0.25,-0.04,1.31,
2.239,-0.09,-0.06,1.11,-0.25,-0.04,1.31,
2.24,-0.09,-0.06,1.11,-0.13,0.04,1.21,
2.242,-0.09,-0.06,1.12,-0.13,0.04,1.21,
2.244,-0.09,-0.06,1.12,-0.08,0.07,1.12,
2.244,-0.10,-0.06,1.11,-0.08,0.07,1.12,
2.247,-0.09,-0.06,1.11,-0.08,0.07,1.12,
2.249,-0.08,-0.05,1.11,-0.08,0.07,1.12,
2.25,-0.08,-0.05,1.11,-0.09,0.08,1.12,
2.252,-0.08,-0.05,1.10,-0.09,0.08,1.12,
2.254,-0.08,-0.05,1.10,0.01,0.14,1.07,
2.255,-0.08,-0.05,1.10,0.01,0.14,1.07,
2.257,-0.08,-0.05,1.10,0.01,0.14,1.07,
2.259,-0.07,-0.05,1.09,0.01,0.14,1.07,
2.26,-0.07,-0.05,1.09,0.08,0.16,1.00,
2.261,-0.06,-0.05,1.09,0.08,0.16,1.00,
2.264,-0.06,-0.04,1.10,0.08,0.16,1.00,
2.264,-0.06,-0.04,1.10,0.13,0.20,0.94,
2.267,-0.05,-0.05,1.10,0.13,0.20,0.94,
2.269,-0.05,-0.05,1.10,0.13,0.20,0.94,
2.269,-0.05,-0.05,1.10,0.29,0.24,0.94,
2.272,-0.06,-0.05,1.10,0.29,0.24,0.94,
2.275,-0.06,-0.05,1.10,0.32,0.22,0.98,
2.276,-0.06,-0.06,1.11,0.32,0.22,0.98,
2.276,-0.05,-0.05,1.11,0.32,0.22,0.98,
2.279,-0.05,-0.05,1.11,0.31,0.16,1.03,
2.279,-0.04,-0.05,1.11,0.31,0.16,1.03,
2.282,-0.04,-0.05,1.11,0.31,0.16,1.03,
2.284,-0.04,-0.06,1.11,0.31,0.16,1.03,
2.284,-0.04,-0.06,1.11,0.39,0.16,1.05,
2.286,-0.03,-0.05,1.12,0.39,0.16,1.05,
2.289,-0.03,-0.05,1.12,0.39,0.16,1.05,
2.289,-0.03,-0.05,1.12,0.46,0.15,1.08,
2.292,-0.03,-0.05,1.13,0.46,0.15,1.08,
2.294,-0.03,-0.06,1.13,0.46,0.15,1.08,
2.294,-0.03,-0.06,1.13,0.55,0.16,1.16,
2.296,-0.03,-0.06,1.13,0.55,0.16,1.16,
2.298,-0.03,-0.07,1.12,0.55,0.16,1.16,
2.298,-0.03,-0.07,1.12,0.59,0.12,1.24,
2.3,-0.03,-0.06,1.13,0.59,0.12,1.24,
2.304,-0.03,-0.06,1.13,0.59,0.05,1.21,
2.304,-0.04,-0.07,1.13,0.59,0.05,1.21,
2.305,-0.03,-0.07,1.13,0.59,0.05,1.21,
2.309,-0.04,-0.07,1.13,0.59,0.05,1.21,
2.311,-0.04,-0.07,1.13,0.55,0.03,1.25,
2.311,-0.05,-0.07,1.14,0.55,0.03,1.25,
2.313,-0.05,-0.06,1.13,0.55,0.03,1.25,
2.313,-0.05,-0.06,1.13,0.53,0.01,1.26,
2.316,-0.05,-0.06,1.13,0.53,0.01,1.26,
2.318,-0.05,-0.06,1.13,0.53,0.01,1.26,
2.318,-0.05,-0.06,1.13,0.47,0.02,1.28,
2.32,-0.05,-0.06,1.13,0.47,0.02,1.28,
2.324,-0.06,-0.06,1.13,0.47,0.02,1.28,
2.325,-0.06,-0.06,1.13,0.46,0.10,1.26,
2.34,-0.06,-0.05,1.13,0.46,0.10,1.26,
2.342,-0.06,-0.05,1.13,0.39,0.07,1.24,
2.342,-0.06,-0.05,1.11,0.39,0.07,1.24,
2.343,-0.06,-0.06,1.11,0.39,0.07,1.24,
2.343,-0.07,-0.06,1.11,0.39,0.07,1.24,
2.343,-0.07,-0.06,1.11,0.34,0.13,1.14,
2.343,-0.06,-0.05,1.10,0.34,0.13,1.14,
2.344,-0.06,-0.05,1.10,0.34,0.13,1.14,
2.344,-0.06,-0.05,1.10,0.34,0.09,1.05,
2.344,-0.06,-0.05,1.09,0.34,0.09,1.05,
2.344,-0.06,-0.05,1.09,0.34,0.09,1.05,
2.344,-0.06,-0.05,1.09,0.34,0.11,0.95,
2.345,-0.05,-0.05,1.08,0.34,0.11,0.95,
2.348,-0.05,-0.05,1.08,0.34,0.11,0.95,
2.348,-0.05,-0.05,1.08,0.37,0.12,0.86,
2.35,-0.04,-0.05,1.07,0.37,0.12,0.86,
2.353,-0.04,-0.05,1.07,0.47,0.13,0.78,
2.353,-0.03,-0.05,1.07,0.47,0.13,0.78,
2.355,-0.03,-0.05,1.08,0.47,0.13,0.78,
2.361,-0.02,-0.05,1.07,0.47,0.13,0.78,
2.362,-0.02,-0.05,1.07,0.62,0.16,0.68,
2.362,-0.02,-0.05,1.07,0.62,0.16,0.68,
2.363,-0.01,-0.05,1.07,0.62,0.16,0.68,
2.363,-0.01,-0.05,1.07,0.72,0.16,0.68,
2.365,-0.00,-0.05,1.06,0.72,0.16,0.68,
2.367,0.00,-0.05,1.06,0.72,0.16,0.68,
2.368,0.00,-0.05,1.06,0.84,0.14,0.62,
2.37,0.00,-0.06,1.06,0.84,0.14,0.62,
2.372,0.00,-0.06,1.06,0.84,0.14,0.62,
2.373,0.00,-0.06,1.06,0.95,0.12,0.58,
2.376,0.01,-0.07,1.07,0.95,0.12,0.58,
2.377,0.01,-0.07,1.07,0.98,0.05,0.54,
2.378,0.01,-0.06,1.07,0.98,0.05,0.54,
2.38,0.00,-0.07,1.07,0.98,0.05,0.54,
2.382,0.01,-0.07,1.07,0.98,0.05,0.54,
2.383,0.01,-0.07,1.07,1.01,0.01,0.60,
2.385,0.00,-0.07,1.08,1.01,0.01,0.60,
2.387,-0.00,-0.07,1.08,1.01,0.01,0.60,
2.388,-0.00,-0.07,1.08,0.99,-0.04,0.65,
2.39,-0.00,-0.07,1.08,0.99,-0.04,0.65,
2.393,-0.00,-0.07,1.09,0.99,-0.04,0.65,
2.394,-0.00,-0.07,1.09,0.95,-0.02,0.72,
2.395,-0.01,-0.07,1.10,0.95,-0.02,0.72,
2.397,-0.01,-0.07,1.10,0.93,-0.01,0.81,
2.398,-0.01,-0.06,1.10,0.93,-0.01,0.81,
2.4,-0.02,-0.06,1.10,0.93,-0.01,0.81,
2.402,-0.02,-0.06,1.10,0.85,0.00,0.93,
2.402,-0.02,-0.07,1.11,0.85,0.00,0.93,
2.404,-0.03,-0.06,1.11,0.85,0.00,0.93,
2.412,-0.04,-0.07,1.12,0.85,0.00,0.93,
2.413,-0.04,-0.07,1.12,0.77,0.02,1.00,
2.413,-0.04,-0.07,1.13,0.77,0.02,1.00,
2.413,-0.05,-0.07,1.13,0.77,0.02,1.00,
2.413,-0.05,-0.07,1.13,0.65,-0.00,1.10,
2.414,-0.05,-0.07,1.13,0.65,-0.00,1.10,
2.417,-0.06,-0.08,1.13,0.65,-0.00,1.10,
2.417,-0.06,-0.08,1.13,0.55,-0.05,1.21,
2.419,-0.06,-0.08,1.13,0.55,-0.05,1.21,
2.422,-0.06,-0.08,1.13,0.46,-0.10,1.24,
2.422,-0.05,-0.08,1.13,0.46,-0.10,1.24,
2.426,-0.05,-0.09,1.13,0.46,-0.10,1.24,
2.427,-0.05,-0.09,1.13,0.46,-0.16,1.22,
2.427,-0.05,-0.09,1.12,0.46,-0.16,1.22,
2.429,-0.04,-0.09,1.11,0.46,-0.16,1.22,
2.432,-0.03,-0.09,1.11,0.46,-0.16,1.22,
2.432,-0.03,-0.09,1.11,0.52,-0.21,1.16,
2.434,-0.02,-0.09,1.10,0.52,-0.21,1.16,
2.437,-0.01,-0.09,1.09,0.52,-0.21,1.16,
2.437,-0.01,-0.09,1.09,0.66,-0.26,1.04,
2.439,0.00,-0.09,1.08,0.66,-0.26,1.04,
2.443,0.01,-0.09,1.07,0.66,-0.26,1.04,
2.444,0.01,-0.09,1.07,0.85,-0.29,0.90,
2.444,0.02,-0.10,1.06,0.85,-0.29,0.90,
2.448,0.03,-0.10,1.05,0.85,-0.29,0.90,
2.448,0.03,-0.10,1.05,1.05,-0.30,0.68,
2.45,0.04,-0.10,1.04,1.05,-0.30,0.68,
2.452,0.04,-0.10,1.04,1.18,-0.38,0.45,
2.452,0.04,-0.10,1.03,1.18,-0.38,0.45,
2.455,0.05,-0.09,1.02,1.18,-0.38,0.45,
2.457,0.06,-0.09,1.01,1.18,-0.38,0.45,
2.458,0.06,-0.09,1.01,1.36,-0.37,0.28,
2.46,0.07,-0.09,1.00,1.36,-0.37,0.28,
2.462,0.07,-0.09,1.00,1.36,-0.37,0.28,
2.462,0.07,-0.09,1.00,1.49,-0.36,0.05,
2.465,0.08,-0.09,0.99,1.49,-0.36,0.05,
2.467,0.08,-0.09,0.99,1.49,-0.36,0.05,
2.468,0.08,-0.09,0.99,1.64,-0.33,-0.07,
2.47,0.08,-0.09,0.99,1.64,-0.33,-0.07,
2.472,0.09,-0.08,0.99,1.64,-0.33,-0.07,
2.472,0.09,-0.08,0.99,1.68,-0.33,-0.19,
2.475,0.08,-0.09,0.99,1.68,-0.33,-0.19,
2.477,0.08,-0.09,0.99,1.76,-0.33,-0.17,
2.477,0.08,-0.09,0.99,1.76,-0.33,-0.17,
2.479,0.08,-0.09,0.99,1.76,-0.33,-0.17,
2.482,0.08,-0.09,0.99,1.74,-0.36,-0.17,
2.482,0.07,-0.09,0.99,1.74,-0.36,-0.17,
2.484,0.07,-0.09,0.99,1.74,-0.36,-0.17,
2.487,0.07,-0.08,0.99,1.74,-0.36,-0.17,
2.487,0.07,-0.08,0.99,1.67,-0.39,-0.16,
2.489,0.06,-0.09,0.99,1.67,-0.39,-0.16,
2.493,0.05,-0.09,1.00,1.67,-0.39,-0.16,
2.493,0.05,-0.09,1.00,1.60,-0.35,-0.17,
2.494,0.05,-0.09,1.00,1.60,-0.35,-0.17,
2.497,0.04,-0.08,1.00,1.60,-0.35,-0.17,
2.497,0.04,-0.08,1.00,1.47,-0.38,-0.14,
2.499,0.03,-0.09,1.00,1.47,-0.38,-0.14,
2.501,0.03,-0.09,1.00,1.36,-0.37,-0.07,
2.502,0.02,-0.09,1.00,1.36,-0.37,-0.07,
2.504,0.01,-0.09,1.01,1.36,-0.37,-0.07,
2.506,0.01,-0.09,1.01,1.36,-0.37,-0.07,
2.507,0.01,-0.09,1.01,1.17,-0.42,-0.04,
2.51,-0.00,-0.09,1.02,1.17,-0.42,-0.04,
2.511,-0.01,-0.09,1.02,1.17,-0.42,-0.04,
2.512,-0.01,-0.09,1.02,1.07,-0.39,0.01,
2.514,-0.01,-0.08,1.02,1.07,-0.39,0.01,
2.517,-0.01,-0.08,1.02,0.92,-0.42,0.14,
2.517,-0.01,-0.08,1.02,0.92,-0.42,0.14,
2.519,-0.01,-0.08,1.02,0.92,-0.42,0.14,
2.521,-0.01,-0.08,1.02,0.92,-0.42,0.14,
2.521,-0.01,-0.08,1.02,0.87,-0.34,0.13,
2.524,-0.00,-0.08,1.02,0.87,-0.34,0.13,
2.528,-0.00,-0.08,1.02,0.88,-0.33,0.14,
2.529,-0.00,-0.08,1.01,0.88,-0.33,0.14,
2.529,0.00,-0.08,1.00,0.88,-0.33,0.14,
2.531,0.00,-0.08,1.00,0.92,-0.34,0.06,
2.531,0.01,-0.08,1.00,0.92,-0.34,0.06,
2.533,0.02,-0.07,1.00,0.92,-0.34,0.06,
2.536,0.03,-0.07,0.99,0.92,-0.34,0.06,
2.536,0.03,-0.07,0.99,0.99,-0.34,-0.04,
2.539,0.03,-0.07,0.99,0.99,-0.34,-0.04,
2.542,0.03,-0.07,0.99,1.15,-0.29,-0.10,
2.542,0.04,-0.07,0.98,1.15,-0.29,-0.10,
2.546,0.05,-0.07,0.98,1.15,-0.29,-0.10,
2.546,0.06,-0.07,0.96,1.15,-0.29,-0.10,
2.547,0.06,-0.07,0.96,1.27,-0.28,-0.23,
2.549,0.07,-0.06,0.96,1.27,-0.28,-0.23,
2.551,0.07,-0.06,0.96,1.40,-0.25,-0.38,
2.552,0.07,-0.06,0.95,1.40,-0.25,-0.38,
2.554,0.07,-0.06,0.94,1.40,-0.25,-0.38,
2.556,0.08,-0.06,0.93,1.40,-0.25,-0.38,
2.557,0.08,-0.06,0.93,1.55,-0.23,-0.51,
2.558,0.09,-0.06,0.93,1.55,-0.23,-0.51,
2.561,0.09,-0.06,0.93,1.55,-0.23,-0.51,
2.562,0.09,-0.06,0.93,1.60,-0.21,-0.69,
2.563,0.09,-0.06,0.93,1.60,-0.21,-0.69,
2.566,0.09,-0.06,0.92,1.60,-0.21,-0.69,
2.567,0.09,-0.06,0.92,1.71,-0.24,-0.78,
2.569,0.09,-0.06,0.93,1.71,-0.24,-0.78,
2.571,0.09,-0.06,0.92,1.71,-0.24,-0.78,
2.571,0.09,-0.06,0.92,1.76,-0.21,-0.81,
2.574,0.09,-0.06,0.92,1.76,-0.21,-0.81,
2.577,0.09,-0.06,0.92,1.74,-0.21,-0.81,
2.577,0.09,-0.06,0.93,1.74,-0.21,-0.81,
2.578,0.09,-0.06,0.92,1.74,-0.21,-0.81,
2.581,0.09,-0.07,0.92,1.74,-0.21,-0.81,
2.581,0.09,-0.07,0.92,1.73,-0.23,-0.83,
2.584,0.08,-0.06,0.93,1.73,-0.23,-0.83,
2.586,0.08,-0.06,0.93,1.71,-0.29,-0.84,
2.587,0.08,-0.06,0.93,1.71,-0.29,-0.84,
2.588,0.08,-0.06,0.93,1.71,-0.29,-0.84,
2.591,0.07,-0.07,0.94,1.71,-0.29,-0.84,
2.591,0.07,-0.07,0.94,1.61,-0.25,-0.78,
2.593,0.07,-0.06,0.94,1.61,-0.25,-0.78,
2.596,0.07,-0.06,0.95,1.61,-0.25,-0.78,
2.596,0.07,-0.06,0.95,1.53,-0.27,-0.73,
2.598,0.06,-0.06,0.95,1.53,-0.27,-0.73,
2.601,0.06,-0.06,0.95,1.45,-0.22,-0.61,
2.601,0.06,-0.06,0.96,1.45,-0.22,-0.61,
2.603,0.06,-0.05,0.96,1.45,-0.22,-0.61,
2.606,0.06,-0.05,0.97,1.45,-0.22,-0.61,
2.606,0.06,-0.05,0.97,1.42,-0.19,-0.51,
2.608,0.06,-0.05,0.97,1.42,-0.19,-0.51,
2.61,0.06,-0.04,0.98,1.42,-0.19,-0.51,
2.611,0.06,-0.04,0.98,1.38,-0.14,-0.40,
2.613,0.06,-0.04,0.99,1.38,-0.14,-0.40,
2.616,0.06,-0.04,0.99,1.39,-0.11,-0.31,
2.616,0.06,-0.05,0.99,1.39,-0.11,-0.31,
2.618,0.06,-0.05,1.00,1.39,-0.11,-0.31,
2.621,0.06,-0.05,1.00,1.39,-0.11,-0.31,
2.621,0.06,-0.05,1.00,1.37,-0.10,-0.16,
2.623,0.06,-0.05,1.00,1.37,-0.10,-0.16,
2.626,0.06,-0.05,1.00,1.38,-0.12,-0.10,
2.626,0.07,-0.05,1.00,1.38,-0.12,-0.10,
2.631,0.07,-0.05,1.00,1.38,-0.12,-0.10,
2.632,0.07,-0.05,1.00,1.38,-0.12,-0.10,
2.632,0.07,-0.05,1.00,1.41,-0.14,-0.04,
2.632,0.07,-0.05,1.00,1.41,-0.14,-0.04,
2.635,0.08,-0.05,1.00,1.41,-0.14,-0.04,
2.636,0.08,-0.05,1.00,1.46,-0.14,-0.08,
2.637,0.07,-0.05,1.00,1.46,-0.14,-0.08,
2.64,0.08,-0.06,1.00,1.46,-0.14,-0.08,
2.641,0.08,-0.06,1.00,1.52,-0.18,-0.06,
2.644,0.08,-0.06,0.99,1.52,-0.18,-0.06,
2.646,0.08,-0.06,0.99,1.52,-0.18,-0.06,
2.646,0.08,-0.06,0.99,1.53,-0.21,-0.11,
2.647,0.09,-0.06,0.99,1.53,-0.21,-0.11,
2.651,0.09,-0.06,0.99,1.58,-0.24,-0.13,
2.651,0.09,-0.06,0.99,1.58,-0.24,-0.13,
2.653,0.09,-0.05,0.98,1.58,-0.24,-0.13,
2.655,0.09,-0.05,0.98,1.58,-0.24,-0.13,
2.656,0.09,-0.05,0.98,1.63,-0.27,-0.16,
2.658,0.09,-0.06,0.97,1.63,-0.27,-0.16,
2.66,0.09,-0.05,0.97,1.63,-0.27,-0.16,
2.66,0.09,-0.05,0.97,1.61,-0.22,-0.28,
2.662,0.08,-0.05,0.96,1.61,-0.22,-0.28,
2.665,0.08,-0.05,0.96,1.61,-0.22,-0.28,
2.665,0.08,-0.05,0.96,1.61,-0.24,-0.37,
2.667,0.08,-0.05,0.96,1.61,-0.24,-0.37,
2.669,0.08,-0.05,0.95,1.61,-0.24,-0.37,
2.67,0.08,-0.05,0.95,1.50,-0.23,-0.46,
2.672,0.08,-0.05,0.96,1.50,-0.23,-0.46,
2.674,0.08,-0.05,0.96,1.54,-0.21,-0.53,
2.675,0.07,-0.04,0.95,1.54,-0.21,-0.53,
2.678,0.08,-0.04,0.95,1.54,-0.21,-0.53,
2.679,0.07,-0.03,0.95,1.54,-0.21,-0.53,
2.68,0.07,-0.03,0.95,1.46,-0.14,-0.52,
2.682,0.07,-0.03,0.95,1.46,-0.14,-0.52,
2.684,0.07,-0.02,0.95,1.46,-0.14,-0.52,
2.685,0.07,-0.02,0.95,1.44,-0.05,-0.56,
2.687,0.07,-0.02,0.96,1.44,-0.05,-0.56,
2.689,0.07,-0.02,0.96,1.44,-0.05,-0.56,
2.689,0.07,-0.02,0.96,1.37,0.04,-0.55,
2.694,0.06,-0.02,0.96,1.37,0.04,-0.55,
2.695,0.06,-0.02,0.96,1.37,0.04,-0.55,
2.695,0.06,-0.02,0.96,1.37,0.06,-0.48,
2.697,0.06,-0.02,0.96,1.37,0.06,-0.48,
2.699,0.06,-0.02,0.96,1.28,0.07,-0.46,
2.699,0.05,-0.02,0.96,1.28,0.07,-0.46,
2.701,0.05,-0.02,0.97,1.28,0.07,-0.46,
2.704,0.05,-0.02,0.97,1.28,0.07,-0.46,
2.704,0.05,-0.02,0.97,1.22,0.05,-0.46,
2.706,0.05,-0.02,0.97,1.22,0.05,-0.46,
2.71,0.05,-0.02,0.98,1.22,0.05,-0.46,
2.711,0.05,-0.02,0.98,1.18,0.02,-0.39,
2.711,0.04,-0.02,0.98,1.18,0.02,-0.39,
2.714,0.04,-0.02,0.98,1.18,0.02,-0.39,
2.714,0.04,-0.02,0.98,1.15,0.01,-0.33,
2.716,0.04,-0.02,0.98,1.15,0.01,-0.33,
2.719,0.03,-0.02,0.98,1.15,0.01,-0.33,
2.719,0.03,-0.02,0.98,1.09,0.02,-0.28,
2.721,0.03,-0.03,0.98,1.09,0.02,-0.28,
2.724,0.03,-0.02,0.98,1.09,0.02,-0.28,
2.724,0.03,-0.02,0.98,1.03,0.02,-0.29,
2.731,0.02,-0.02,0.98,1.03,0.02,-0.29,
2.731,0.02,-0.02,0.99,1.03,0.02,-0.29,
2.732,0.02,-0.02,0.99,0.94,-0.01,-0.26,
2.732,0.02,-0.02,0.98,0.94,-0.01,-0.26,
2.734,0.01,-0.01,0.98,0.94,-0.01,-0.26,
2.734,0.01,-0.01,0.98,0.88,0.01,-0.23,
2.736,0.02,-0.01,0.97,0.88,0.01,-0.23,
2.739,0.01,-0.01,0.97,0.88,0.01,-0.23,
2.739,0.01,-0.01,0.97,0.80,0.08,-0.25,
2.741,0.01,-0.01,0.98,0.80,0.08,-0.25,
2.744,0.01,-0.01,0.98,0.80,0.08,-0.25,
2.744,0.01,-0.01,0.98,0.76,0.11,-0.32,
2.746,0.01,-0.00,0.98,0.76,0.11,-0.32,
2.749,0.01,-0.00,0.98,0.70,0.15,-0.25,
2.749,0.01,-0.01,0.97,0.70,0.15,-0.25,
2.751,0.01,0.00,0.98,0.70,0.15,-0.25,
2.754,0.00,0.00,0.99,0.70,0.15,-0.25,
2.754,0.00,0.00,0.99,0.67,0.17,-0.32,
2.756,0.01,0.01,0.98,0.67,0.17,-0.32,
2.76,0.01,0.01,0.99,0.67,0.17,-0.32,
2.76,0.01,0.01,0.99,0.65,0.26,-0.22,
2.762,0.01,0.01,0.99,0.65,0.26,-0.22,
2.764,0.01,0.02,0.99,0.65,0.26,-0.22,
2.764,0.01,0.02,0.99,0.65,0.33,-0.24,
2.766,0.01,0.01,0.99,0.65,0.33,-0.24,
2.769,0.01,0.02,0.99,0.65,0.33,-0.24,
2.769,0.01,0.02,0.99,0.64,0.35,-0.17,
2.771,0.01,0.01,0.99,0.64,0.35,-0.17,
2.775,0.01,0.01,0.99,0.66,0.35,-0.18,
2.775,0.01,0.01,0.99,0.66,0.35,-0.18,
2.777,0.01,0.01,0.99,0.66,0.35,-0.18,
2.779,0.01,0.00,1.00,0.66,0.35,-0.18,
2.779,0.01,0.00,1.00,0.66,0.29,-0.18,
2.782,0.01,0.01,1.00,0.66,0.29,-0.18,
2.784,0.00,0.01,1.00,0.66,0.29,-0.18,
2.785,0.00,0.01,1.00,0.63,0.26,-0.10,
2.786,0.00,0.00,1.00,0.63,0.26,-0.10,
2.789,0.00,0.01,1.00,0.63,0.26,-0.10,
2.789,0.00,0.01,1.00,0.59,0.27,-0.10,
2.791,0.00,0.00,1.00,0.59,0.27,-0.10,
2.795,-0.00,0.01,1.00,0.59,0.27,-0.10,
2.796,-0.00,0.01,1.00,0.57,0.24,-0.06,
2.796,-0.01,0.01,1.00,0.57,0.24,-0.06,
2.799,-0.01,0.01,1.00,0.54,0.24,-0.07,
2.799,-0.01,0.01,0.99,0.54,0.24,-0.07,
2.801,-0.01,-0.00,0.99,0.54,0.24,-0.07,
2.804,-0.01,0.00,0.99,0.54,0.24,-0.07,
2.807,-0.01,0.00,0.99,0.49,0.25,-0.13,
2.808,-0.04,0.00,0.99,0.49,0.25,-0.13,
2.808,-0.06,0.01,1.00,0.49,0.25,-0.13,
2.809,-0.06,0.01,1.00,0.42,0.17,-0.20,
2.811,-0.06,0.01,1.01,0.42,0.17,-0.20,
2.814,-0.07,0.02,1.01,0.42,0.17,-0.20,
2.814,-0.07,0.02,1.01,0.04,0.24,-0.11,
2.816,-0.07,0.02,1.01,0.04,0.24,-0.11,
2.818,-0.08,0.03,1.01,0.04,0.24,-0.11,
2.819,-0.08,0.03,1.01,-0.12,0.29,0.02,
2.821,-0.10,0.04,1.02,-0.12,0.29,0.02,
2.825,-0.10,0.04,1.02,-0.23,0.40,0.01,
2.825,-0.13,0.04,1.03,-0.23,0.40,0.01,
2.826,-0.16,0.05,1.05,-0.23,0.40,0.01,
2.832,-0.21,0.05,1.08,-0.23,0.40,0.01,
2.833,-0.21,0.05,1.08,-0.61,0.51,0.18,
2.833,-0.25,0.06,1.11,-0.61,0.51,0.18,
2.833,-0.27,0.08,1.13,-0.61,0.51,0.18,
2.834,-0.27,0.08,1.13,-1.32,0.57,0.54,
2.836,-0.25,0.10,1.13,-1.32,0.57,0.54,
2.838,-0.22,0.13,1.10,-1.32,0.57,0.54,
2.838,-0.22,0.13,1.10,-2.06,0.76,1.09,
2.841,-0.18,0.14,1.08,-2.06,0.76,1.09,
2.843,-0.15,0.16,1.07,-2.06,0.76,1.09,
2.843,-0.15,0.16,1.07,-1.85,1.19,1.06,
2.845,-0.14,0.16,1.06,-1.85,1.19,1.06,
2.848,-0.14,0.16,1.06,-1.17,1.54,0.68,
2.848,-0.14,0.14,1.05,-1.17,1.54,0.68,
2.851,-0.14,0.13,1.04,-1.17,1.54,0.68,
2.853,-0.14,0.12,1.03,-1.17,1.54,0.68,
2.854,-0.14,0.12,1.03,-0.98,1.52,0.45,
2.856,-0.13,0.10,1.02,-0.98,1.52,0.45,
2.858,-0.11,0.08,1.00,-0.98,1.52,0.45,
2.858,-0.11,0.08,1.00,-1.00,1.25,0.25,
2.86,-0.09,0.08,0.99,-1.00,1.25,0.25,
2.863,-0.07,0.07,0.97,-1.00,1.25,0.25,
2.863,-0.07,0.07,0.97,-0.80,0.92,0.02,
2.865,-0.05,0.07,0.97,-0.80,0.92,0.02,
2.868,-0.03,0.06,0.97,-0.80,0.92,0.02,
2.869,-0.03,0.06,0.97,-0.40,0.73,-0.30,
2.87,-0.01,0.06,0.97,-0.40,0.73,-0.30,
2.873,0.01,0.05,0.97,-0.40,0.73,-0.30,
2.873,0.01,0.05,0.97,-0.03,0.60,-0.41,
2.875,0.02,0.05,0.97,-0.03,0.60,-0.41,
2.878,0.03,0.04,0.96,-0.03,0.60,-0.41,
2.878,0.03,0.04,0.96,0.35,0.53,-0.38,
2.88,0.05,0.04,0.96,0.35,0.53,-0.38,
2.883,0.06,0.04,0.96,0.35,0.53,-0.38,
2.883,0.06,0.04,0.96,0.59,0.40,-0.46,
2.886,0.06,0.03,0.96,0.59,0.40,-0.46,
2.888,0.06,0.02,0.95,0.59,0.40,-0.46,
2.888,0.06,0.02,0.95,0.85,0.31,-0.46,
2.89,0.08,0.02,0.88,0.85,0.31,-0.46,
2.893,0.09,0.03,0.80,0.85,0.31,-0.46,
2.893,0.09,0.03,0.80,0.90,0.15,-0.53,
2.895,0.05,0.03,0.73,0.90,0.15,-0.53,
2.897,0.02,0.04,0.71,0.90,0.15,-0.53,
2.897,0.02,0.04,0.71,1.11,0.18,-1.66,
2.9,-0.00,0.04,0.73,1.11,0.18,-1.66,
2.903,-0.00,0.05,0.76,1.11,0.18,-1.66,
2.903,-0.00,0.05,0.76,0.66,0.28,-2.79,
2.905,-0.00,0.05,0.79,0.66,0.28,-2.79,
2.907,0.01,0.05,0.80,0.66,0.28,-2.79,
2.907,0.01,0.05,0.80,0.29,0.36,-2.56,
2.911,0.01,0.05,0.83,0.29,0.36,-2.56,
2.913,0.00,0.04,0.88,0.29,0.36,-2.56,
2.913,0.00,0.04,0.88,0.37,0.45,-2.07,
2.915,-0.00,0.03,0.93,0.37,0.45,-2.07,
2.918,-0.02,0.00,0.98,0.37,0.45,-2.07,
2.918,-0.02,0.00,0.98,0.42,0.44,-1.49,
2.92,-0.03,-0.02,1.02,0.42,0.44,-1.49,
2.923,-0.04,-0.03,1.06,0.42,0.44,-1.49,
2.923,-0.04,-0.03,1.06,0.27,0.15,-0.54,
2.925,-0.05,-0.04,1.09,0.27,0.15,-0.54,
2.927,-0.05,-0.05,1.13,0.27,0.15,-0.54,
2.927,-0.05,-0.05,1.13,-0.04,-0.19,0.36,
2.932,-0.05,-0.06,1.16,-0.04,-0.19,0.36,
2.933,-0.05,-0.05,1.18,-0.04,-0.19,0.36,
2.933,-0.05,-0.05,1.18,-0.18,-0.40,1.01,
2.935,-0.06,-0.04,1.19,-0.18,-0.40,1.01,
2.937,-0.07,-0.03,1.20,-0.18,-0.40,1.01,
2.937,-0.07,-0.03,1.20,-0.17,-0.45,1.60,
2.939,-0.07,-0.01,1.19,-0.17,-0.45,1.60,
2.943,-0.07,-0.01,1.19,-0.32,-0.27,1.86,
2.943,-0.06,0.00,1.18,-0.32,-0.27,1.86,
2.946,-0.06,0.02,1.16,-0.32,-0.27,1.86,
2.947,-0.05,0.04,1.15,-0.32,-0.27,1.86,
2.947,-0.05,0.04,1.15,-0.37,0.04,1.71,
2.949,-0.05,0.04,1.13,-0.37,0.04,1.71,
2.953,-0.05,0.05,1.10,-0.37,0.04,1.71,
2.953,-0.05,0.05,1.10,-0.31,0.35,1.44,
2.955,-0.04,0.05,1.08,-0.31,0.35,1.44,
2.957,-0.04,0.05,1.08,-0.24,0.52,1.06,
2.958,-0.03,0.05,1.06,-0.24,0.52,1.06,
2.959,-0.03,0.05,1.04,-0.24,0.52,1.06,
2.963,-0.01,0.05,1.01,-0.24,0.52,1.06,
2.964,-0.01,0.05,1.01,-0.13,0.57,0.62,
2.964,-0.01,0.05,1.00,-0.13,0.57,0.62,
2.967,0.00,0.05,0.97,-0.13,0.57,0.62,
2.967,0.00,0.05,0.97,0.01,0.54,0.17,
2.969,0.01,0.05,0.96,0.01,0.54,0.17,
2.972,0.01,0.04,0.95,0.01,0.54,0.17,
2.972,0.01,0.04,0.95,0.17,0.47,-0.24,
2.974,0.02,0.04,0.93,0.17,0.47,-0.24,
2.977,0.03,0.03,0.93,0.17,0.47,-0.24,
2.977,0.03,0.03,0.93,0.33,0.43,-0.56,
2.98,0.03,0.03,0.93,0.33,0.43,-0.56,
