
time,gFx,gFy,gFz,ax,ay,az,
0.002,-0.04,0.09,0.99,-0.28,0.00,-0.08,
0.002,-0.04,0.09,1.00,-0.28,0.00,-0.08,
0.003,-0.03,0.09,1.00,-0.28,0.00,-0.08,
0.003,-0.03,0.09,1.00,-0.24,-0.05,-0.02,
0.003,-0.02,0.09,1.00,-0.24,-0.05,-0.02,
0.003,-0.02,0.09,1.01,-0.24,-0.05,-0.02,
0.006,-0.02,0.09,1.01,-0.13,-0.03,0.04,
0.006,-0.01,0.10,1.01,-0.13,-0.03,0.04,
0.011,-0.01,0.10,1.01,-0.13,-0.03,0.04,
0.011,-0.01,0.10,1.01,-0.04,-0.02,0.09,
0.011,-0.01,0.09,1.02,-0.04,-0.02,0.09,
0.013,-0.01,0.09,1.02,-0.04,-0.02,0.09,
0.016,-0.01,0.09,1.02,-0.01,-0.01,0.17,
0.016,-0.01,0.09,1.02,-0.01,-0.01,0.17,
0.018,-0.00,0.09,1.02,-0.01,-0.01,0.17,
0.021,-0.00,0.09,1.02,0.04,-0.06,0.23,
0.021,0.00,0.09,1.03,0.04,-0.06,0.23,
0.023,0.01,0.09,1.03,0.04,-0.06,0.23,
0.032,0.00,0.09,1.03,0.04,-0.06,0.23,
0.033,0.00,0.09,1.03,0.12,-0.07,0.27,
0.033,-0.00,0.09,1.03,0.12,-0.07,0.27,
0.033,0.00,0.09,1.03,0.12,-0.07,0.27,
0.034,0.00,0.09,1.03,0.17,-0.08,0.30,
0.034,0.00,0.09,1.03,0.17,-0.08,0.30,
0.036,0.01,0.09,1.02,0.17,-0.08,0.30,
0.036,0.01,0.09,1.02,0.13,-0.09,0.31,
0.038,0.00,0.09,1.02,0.13,-0.09,0.31,
0.041,0.00,0.09,1.02,0.13,-0.09,0.31,
0.041,0.00,0.09,1.02,0.16,-0.06,0.25,
0.047,0.00,0.09,1.01,0.16,-0.06,0.25,
0.047,0.00,0.09,1.01,0.15,-0.06,0.20,
0.048,-0.00,0.09,1.01,0.15,-0.06,0.20,
0.048,0.00,0.09,1.01,0.15,-0.06,0.20,
0.051,0.00,0.09,1.01,0.10,-0.08,0.12,
0.051,0.00,0.09,1.00,0.10,-0.08,0.12,
0.053,-0.01,0.09,1.00,0.10,-0.08,0.12,
0.056,-0.01,0.09,1.00,0.11,-0.05,0.06,
0.056,-0.01,0.09,1.00,0.11,-0.05,0.06,
0.064,-0.01,0.09,0.99,0.11,-0.05,0.06,
0.065,-0.01,0.09,0.99,0.11,-0.05,0.06,
0.065,-0.01,0.09,0.99,0.03,-0.07,-0.02,
0.065,-0.01,0.09,0.98,0.03,-0.07,-0.02,
0.066,-0.01,0.09,0.98,0.03,-0.07,-0.02,
0.066,-0.01,0.09,0.98,0.00,-0.08,-0.11,
0.068,-0.01,0.09,0.98,0.00,-0.08,-0.11,
0.07,-0.01,0.09,0.98,0.00,-0.04,-0.18,
0.071,-0.02,0.10,0.97,0.00,-0.04,-0.18,
0.072,-0.01,0.09,0.97,0.00,-0.04,-0.18,
0.08,-0.01,0.09,0.97,0.00,-0.04,-0.18,
0.081,-0.01,0.09,0.97,-0.04,-0.03,-0.25,
0.081,-0.02,0.09,0.97,-0.04,-0.03,-0.25,
0.082,-0.01,0.09,0.98,-0.04,-0.03,-0.25,
0.082,-0.01,0.09,0.98,-0.03,-0.02,-0.24,
0.083,-0.01,0.09,0.98,-0.03,-0.02,-0.24,
0.086,-0.01,0.09,0.98,-0.03,-0.02,-0.24,
0.086,-0.01,0.09,0.98,-0.04,-0.02,-0.25,
0.087,-0.01,0.09,0.98,-0.04,-0.02,-0.25,
0.09,-0.01,0.09,0.98,-0.04,-0.02,-0.25,
0.091,-0.01,0.09,0.98,-0.03,-0.05,-0.17,
0.099,-0.01,0.09,0.98,-0.03,-0.05,-0.17,
0.099,-0.01,0.09,0.98,-0.02,-0.05,-0.14,
0.099,-0.01,0.09,0.99,-0.02,-0.05,-0.14,
0.1,-0.01,0.09,0.99,-0.02,-0.05,-0.14,
0.1,-0.00,0.09,1.00,-0.02,-0.05,-0.14,
0.1,-0.00,0.09,1.00,0.03,-0.09,-0.15,
0.103,-0.00,0.09,1.00,0.03,-0.09,-0.15,
0.106,0.00,0.09,1.00,0.03,-0.09,-0.15,
0.106,0.00,0.09,1.00,0.04,-0.08,-0.02,
0.108,0.00,0.09,1.01,0.04,-0.08,-0.02,
0.115,0.00,0.09,1.01,0.04,-0.08,-0.02,
0.115,0.00,0.09,1.01,0.10,-0.06,0.04,
0.115,0.00,0.09,1.01,0.10,-0.06,0.04,
0.116,0.01,0.09,1.01,0.10,-0.06,0.04,
0.116,0.01,0.09,1.01,0.13,-0.07,0.12,
0.118,0.01,0.09,1.01,0.13,-0.07,0.12,
0.12,0.01,0.09,1.01,0.16,-0.06,0.10,
0.12,0.01,0.09,1.01,0.16,-0.06,0.10,
0.123,0.01,0.09,1.01,0.16,-0.06,0.10,
0.135,0.01,0.08,1.01,0.16,-0.06,0.10,
0.136,0.01,0.08,1.01,0.15,-0.06,0.14,
0.136,0.01,0.08,1.01,0.15,-0.06,0.14,
0.137,0.01,0.08,1.01,0.15,-0.06,0.14,
0.137,0.01,0.08,1.01,0.18,-0.09,0.12,
0.137,0.01,0.09,1.01,0.18,-0.09,0.12,
0.137,0.01,0.09,1.01,0.18,-0.09,0.12,
0.137,0.01,0.09,1.01,0.18,-0.13,0.14,
0.138,0.01,0.08,1.02,0.18,-0.13,0.14,
0.14,0.01,0.09,1.02,0.18,-0.13,0.14,
0.14,0.01,0.09,1.02,0.20,-0.08,0.14,
0.148,0.02,0.09,1.01,0.20,-0.08,0.14,
0.149,0.02,0.09,1.01,0.19,-0.08,0.17,
0.149,0.02,0.09,1.00,0.19,-0.08,0.17,
0.149,0.02,0.08,1.00,0.19,-0.08,0.17,
0.149,0.02,0.08,1.00,0.19,-0.08,0.17,
0.15,0.02,0.08,1.00,0.26,-0.09,0.08,
0.152,0.02,0.08,1.01,0.26,-0.09,0.08,
0.155,0.02,0.08,1.00,0.26,-0.09,0.08,
0.155,0.02,0.08,1.00,0.26,-0.13,0.02,
0.157,0.03,0.08,1.00,0.26,-0.13,0.02,
0.166,0.03,0.08,1.00,0.26,-0.13,0.02,
0.168,0.03,0.08,1.00,0.27,-0.14,0.05,
0.169,0.03,0.07,1.00,0.27,-0.14,0.05,
0.169,0.03,0.07,1.00,0.27,-0.14,0.05,
0.169,0.03,0.07,1.00,0.34,-0.18,0.01,
0.169,0.04,0.07,1.00,0.34,-0.18,0.01,
0.17,0.04,0.07,1.00,0.35,-0.20,-0.02,
0.17,0.04,0.07,0.99,0.35,-0.20,-0.02,
0.172,0.04,0.07,0.99,0.35,-0.20,-0.02,
0.175,0.04,0.08,0.99,0.35,-0.20,-0.02,
0.175,0.04,0.08,0.99,0.42,-0.22,-0.04,
0.181,0.04,0.07,0.99,0.42,-0.22,-0.04,
0.181,0.05,0.07,0.99,0.42,-0.22,-0.04,
0.182,0.05,0.07,0.99,0.46,-0.21,-0.07,
0.182,0.05,0.07,0.99,0.46,-0.21,-0.07,
0.185,0.05,0.07,0.99,0.49,-0.21,-0.05,
0.185,0.05,0.07,0.99,0.49,-0.21,-0.05,
0.187,0.05,0.07,0.99,0.49,-0.21,-0.05,
0.19,0.05,0.07,0.99,0.49,-0.21,-0.05,
0.19,0.05,0.07,0.99,0.52,-0.23,-0.04,
0.192,0.04,0.08,0.99,0.52,-0.23,-0.04,
0.197,0.04,0.08,0.99,0.50,-0.22,-0.07,
0.197,0.04,0.08,0.99,0.50,-0.22,-0.07,
0.197,0.04,0.08,1.00,0.50,-0.22,-0.07,
0.2,0.04,0.08,1.00,0.50,-0.22,-0.07,
0.2,0.04,0.08,1.00,0.47,-0.17,-0.06,
0.202,0.03,0.08,0.99,0.47,-0.17,-0.06,
0.205,0.03,0.08,0.99,0.47,-0.17,-0.06,
0.205,0.03,0.08,0.99,0.41,-0.17,-0.01,
0.207,0.02,0.08,0.99,0.41,-0.17,-0.01,
0.214,0.01,0.09,0.99,0.41,-0.17,-0.01,
0.215,0.01,0.09,0.99,0.31,-0.11,-0.06,
0.215,0.01,0.09,0.98,0.31,-0.11,-0.06,
0.216,0.00,0.09,0.98,0.31,-0.11,-0.06,
0.216,0.00,0.09,0.98,0.18,-0.08,-0.09,
0.216,-0.01,0.10,0.98,0.18,-0.08,-0.09,
0.219,-0.01,0.10,0.98,0.07,-0.02,-0.17,
0.219,-0.01,0.10,0.99,0.07,-0.02,-0.17,
0.221,-0.01,0.10,0.98,0.07,-0.02,-0.17,
0.224,-0.02,0.10,0.98,0.07,-0.02,-0.17,
0.224,-0.02,0.10,0.98,-0.04,-0.00,-0.13,
0.236,-0.02,0.10,0.98,-0.04,-0.00,-0.13,
0.238,-0.02,0.10,0.98,-0.04,-0.00,-0.13,
0.238,-0.02,0.10,0.98,-0.10,0.04,-0.15,
0.238,-0.02,0.10,0.98,-0.10,0.04,-0.15,
0.238,-0.02,0.11,0.97,-0.10,0.04,-0.15,
0.239,-0.02,0.11,0.97,-0.15,0.06,-0.19,
0.239,-0.03,0.11,0.97,-0.15,0.06,-0.19,
0.239,-0.03,0.11,0.97,-0.15,0.06,-0.19,
0.239,-0.03,0.11,0.97,-0.18,0.09,-0.23,
0.241,-0.03,0.11,0.97,-0.18,0.09,-0.23,
0.25,-0.03,0.11,0.97,-0.25,0.12,-0.27,
0.25,-0.03,0.11,0.97,-0.25,0.12,-0.27,
0.251,-0.03,0.11,0.97,-0.25,0.12,-0.27,
0.251,-0.03,0.11,0.96,-0.25,0.12,-0.27,
0.251,-0.03,0.11,0.96,-0.30,0.13,-0.27,
0.251,-0.04,0.11,0.97,-0.30,0.13,-0.27,
0.253,-0.04,0.11,0.97,-0.30,0.13,-0.27,
0.254,-0.04,0.11,0.97,-0.27,0.14,-0.28,
0.255,-0.04,0.11,0.98,-0.27,0.14,-0.28,
0.267,-0.03,0.12,0.97,-0.27,0.14,-0.28,
0.268,-0.03,0.12,0.97,-0.32,0.15,-0.24,
0.269,-0.04,0.12,0.98,-0.32,0.15,-0.24,
0.269,-0.04,0.12,0.99,-0.32,0.15,-0.24,
0.269,-0.04,0.12,0.99,-0.32,0.18,-0.20,
0.269,-0.04,0.12,0.99,-0.32,0.18,-0.20,
0.27,-0.04,0.12,0.99,-0.33,0.21,-0.11,
0.27,-0.04,0.12,0.99,-0.33,0.21,-0.11,
0.27,-0.04,0.12,1.00,-0.33,0.21,-0.11,
0.273,-0.03,0.13,1.00,-0.33,0.21,-0.11,
0.274,-0.03,0.13,1.00,-0.35,0.23,-0.05,
0.282,-0.03,0.13,1.01,-0.35,0.23,-0.05,
0.283,-0.03,0.13,1.01,-0.35,0.23,-0.05,
0.283,-0.03,0.13,1.01,-0.32,0.26,0.06,
0.283,-0.02,0.13,1.02,-0.32,0.26,0.06,
0.284,-0.02,0.13,1.02,-0.32,0.26,0.06,
0.284,-0.02,0.13,1.02,-0.24,0.31,0.15,
0.285,-0.02,0.13,1.03,-0.24,0.31,0.15,
0.289,-0.02,0.13,1.03,-0.24,0.31,0.15,
0.289,-0.02,0.13,1.03,-0.18,0.31,0.24,
0.29,-0.01,0.12,1.03,-0.18,0.31,0.24,
0.298,-0.01,0.12,1.03,-0.12,0.28,0.30,
0.299,-0.01,0.12,1.03,-0.12,0.28,0.30,
0.299,-0.00,0.12,1.02,-0.12,0.28,0.30,
0.299,0.01,0.11,1.02,-0.12,0.28,0.30,
0.3,0.01,0.11,1.02,-0.02,0.23,0.33,
0.3,0.01,0.11,1.01,-0.02,0.23,0.33,
0.303,0.01,0.10,1.01,-0.02,0.23,0.33,
0.303,0.01,0.10,1.01,0.07,0.17,0.22,
0.305,0.02,0.10,1.01,0.07,0.17,0.22,
0.308,0.02,0.10,1.01,0.16,0.07,0.15,
0.308,0.02,0.10,1.01,0.16,0.07,0.15,
0.314,0.03,0.09,1.01,0.16,0.07,0.15,
0.315,0.03,0.09,1.00,0.16,0.07,0.15,
0.315,0.03,0.09,1.00,0.24,-0.01,0.13,
0.315,0.03,0.09,1.00,0.24,-0.01,0.13,
0.318,0.03,0.09,1.00,0.32,-0.10,0.06,
0.318,0.04,0.08,0.99,0.32,-0.10,0.06,
0.32,0.04,0.08,0.99,0.32,-0.10,0.06,
0.323,0.05,0.08,0.99,0.32,-0.10,0.06,
0.323,0.05,0.08,0.99,0.36,-0.13,-0.00,
0.333,0.04,0.08,0.98,0.36,-0.13,-0.00,
0.333,0.05,0.08,0.98,0.36,-0.13,-0.00,
0.334,0.05,0.08,0.98,0.46,-0.17,-0.06,
0.334,0.05,0.08,0.97,0.46,-0.17,-0.06,
0.334,0.05,0.07,0.97,0.46,-0.17,-0.06,
0.334,0.05,0.07,0.97,0.46,-0.20,-0.17,
0.336,0.06,0.07,0.97,0.46,-0.20,-0.17,
0.338,0.06,0.07,0.96,0.46,-0.20,-0.17,
0.339,0.06,0.07,0.96,0.50,-0.23,-0.24,
0.341,0.06,0.07,0.95,0.50,-0.23,-0.24,
0.351,0.06,0.07,0.95,0.55,-0.28,-0.30,
0.352,0.06,0.07,0.95,0.55,-0.28,-0.30,
0.352,0.06,0.07,0.95,0.55,-0.28,-0.30,
0.352,0.06,0.06,0.94,0.55,-0.28,-0.30,
0.352,0.06,0.06,0.94,0.60,-0.28,-0.43,
0.353,0.06,0.06,0.95,0.60,-0.28,-0.43,
0.353,0.06,0.06,0.94,0.60,-0.28,-0.43,
0.353,0.06,0.06,0.94,0.57,-0.34,-0.50,
0.356,0.06,0.06,0.93,0.57,-0.34,-0.50,
0.358,0.06,0.06,0.93,0.57,-0.34,-0.50,
0.359,0.06,0.06,0.93,0.59,-0.38,-0.52,
0.365,0.06,0.05,0.93,0.59,-0.38,-0.52,
0.366,0.07,0.05,0.93,0.59,-0.38,-0.52,
0.366,0.07,0.05,0.93,0.58,-0.42,-0.62,
0.366,0.07,0.05,0.93,0.58,-0.42,-0.62,
0.368,0.07,0.05,0.93,0.59,-0.44,-0.62,
0.368,0.07,0.05,0.93,0.59,-0.44,-0.62,
0.37,0.08,0.05,0.94,0.59,-0.44,-0.62,
0.372,0.08,0.05,0.94,0.59,-0.44,-0.62,
0.373,0.08,0.05,0.94,0.64,-0.47,-0.64,
0.374,0.09,0.05,0.92,0.64,-0.47,-0.64,
0.385,0.09,0.04,0.93,0.64,-0.47,-0.64,
0.386,0.09,0.04,0.93,0.70,-0.49,-0.56,
0.386,0.10,0.05,0.92,0.70,-0.49,-0.56,
0.386,0.11,0.04,0.92,0.70,-0.49,-0.56,
0.386,0.11,0.04,0.92,0.81,-0.52,-0.66,
0.386,0.11,0.04,0.92,0.81,-0.52,-0.66,
0.388,0.12,0.04,0.92,0.81,-0.52,-0.66,
0.388,0.12,0.04,0.92,0.94,-0.52,-0.66,
0.39,0.13,0.04,0.92,0.94,-0.52,-0.66,
0.409,0.13,0.04,0.92,1.02,-0.56,-0.66,
0.41,0.13,0.04,0.92,1.02,-0.56,-0.66,
0.41,0.13,0.04,0.92,1.02,-0.56,-0.66,
0.41,0.14,0.04,0.92,1.02,-0.56,-0.66,
0.41,0.14,0.04,0.92,1.14,-0.58,-0.70,
0.411,0.14,0.04,0.92,1.14,-0.58,-0.70,
0.411,0.15,0.04,0.91,1.14,-0.58,-0.70,
0.411,0.15,0.04,0.91,1.18,-0.61,-0.66,
0.411,0.16,0.04,0.91,1.18,-0.61,-0.66,
0.412,0.16,0.04,0.91,1.28,-0.59,-0.74,
0.412,0.17,0.04,0.91,1.28,-0.59,-0.74,
0.412,0.17,0.04,0.91,1.28,-0.59,-0.74,
0.412,0.17,0.04,0.91,1.28,-0.59,-0.74,
0.413,0.17,0.04,0.91,1.45,-0.55,-0.76,
0.414,0.17,0.04,0.91,1.45,-0.55,-0.76,
0.418,0.17,0.04,0.91,1.45,-0.55,-0.76,
0.418,0.17,0.04,0.91,1.45,-0.57,-0.75,
0.42,0.17,0.04,0.90,1.45,-0.57,-0.75,
0.422,0.16,0.05,0.90,1.45,-0.57,-0.75,
0.423,0.16,0.05,0.90,1.45,-0.56,-0.74,
0.424,0.16,0.04,0.90,1.45,-0.56,-0.74,
0.427,0.15,0.05,0.89,1.45,-0.56,-0.74,
0.428,0.15,0.05,0.89,1.39,-0.53,-0.85,
0.429,0.14,0.05,0.89,1.39,-0.53,-0.85,
0.432,0.14,0.05,0.88,1.39,-0.53,-0.85,
0.433,0.14,0.05,0.88,1.29,-0.52,-0.91,
0.434,0.13,0.05,0.88,1.29,-0.52,-0.91,
0.437,0.12,0.06,0.87,1.29,-0.52,-0.91,
0.437,0.12,0.06,0.87,1.12,-0.49,-0.99,
0.439,0.12,0.06,0.86,1.12,-0.49,-0.99,
0.442,0.11,0.07,0.85,1.12,-0.49,-0.99,
0.442,0.11,0.07,0.85,0.98,-0.43,-1.06,
0.447,0.11,0.07,0.85,0.98,-0.43,-1.06,
0.447,0.11,0.07,0.85,0.86,-0.37,-1.22,
0.447,0.10,0.07,0.84,0.86,-0.37,-1.22,
0.449,0.10,0.07,0.83,0.86,-0.37,-1.22,
0.452,0.10,0.07,0.83,0.76,-0.29,-1.34,
0.452,0.09,0.08,0.84,0.76,-0.29,-1.34,
0.454,0.08,0.08,0.83,0.76,-0.29,-1.34,
0.457,0.08,0.08,0.83,0.64,-0.27,-1.42,
0.457,0.08,0.08,0.83,0.64,-0.27,-1.42,
0.459,0.07,0.08,0.83,0.64,-0.27,-1.42,
0.461,0.07,0.09,0.82,0.64,-0.27,-1.42,
0.462,0.07,0.09,0.82,0.51,-0.21,-1.45,
0.464,0.07,0.09,0.82,0.51,-0.21,-1.45,
0.467,0.07,0.09,0.82,0.39,-0.19,-1.46,
0.467,0.06,0.09,0.82,0.39,-0.19,-1.46,
0.469,0.06,0.09,0.83,0.39,-0.19,-1.46,
0.471,0.06,0.09,0.83,0.39,-0.19,-1.46,
0.472,0.06,0.09,0.83,0.31,-0.16,-1.51,
0.474,0.06,0.09,0.83,0.31,-0.16,-1.51,
0.478,0.07,0.09,0.83,0.31,-0.16,-1.51,
0.478,0.07,0.09,0.83,0.29,-0.13,-1.43,
0.478,0.07,0.09,0.85,0.29,-0.13,-1.43,
0.481,0.07,0.09,0.85,0.31,-0.13,-1.40,
0.482,0.07,0.09,0.85,0.31,-0.13,-1.40,
0.484,0.08,0.09,0.86,0.31,-0.13,-1.40,
0.487,0.08,0.09,0.87,0.31,-0.13,-1.40,
0.487,0.08,0.09,0.87,0.35,-0.15,-1.20,
0.489,0.09,0.08,0.88,0.35,-0.15,-1.20,
0.491,0.09,0.08,0.89,0.35,-0.15,-1.20,
0.491,0.09,0.08,0.89,0.42,-0.14,-1.04,
0.495,0.09,0.08,0.90,0.42,-0.14,-1.04,
0.496,0.10,0.08,0.91,0.42,-0.14,-1.04,
0.496,0.10,0.08,0.91,0.52,-0.20,-0.87,
0.499,0.10,0.08,0.92,0.52,-0.20,-0.87,
0.501,0.10,0.08,0.92,0.56,-0.18,-0.64,
0.501,0.10,0.08,0.93,0.56,-0.18,-0.64,
0.504,0.10,0.08,0.93,0.56,-0.18,-0.64,
0.507,0.10,0.08,0.93,0.63,-0.22,-0.46,
0.507,0.10,0.08,0.93,0.63,-0.22,-0.46,
0.509,0.10,0.08,0.93,0.63,-0.22,-0.46,
0.511,0.10,0.08,0.93,0.63,-0.22,-0.46,
0.511,0.10,0.08,0.93,0.63,-0.21,-0.41,
0.513,0.09,0.08,0.93,0.63,-0.21,-0.41,
0.516,0.08,0.08,0.93,0.63,-0.21,-0.41,
0.517,0.08,0.08,0.93,0.61,-0.22,-0.37,
0.519,0.08,0.08,0.92,0.61,-0.22,-0.37,
0.521,0.07,0.08,0.91,0.61,-0.22,-0.37,
0.522,0.07,0.08,0.91,0.49,-0.24,-0.40,
0.524,0.07,0.09,0.91,0.49,-0.24,-0.40,
0.526,0.07,0.09,0.91,0.38,-0.20,-0.51,
0.527,0.07,0.09,0.90,0.38,-0.20,-0.51,
0.531,0.06,0.09,0.89,0.38,-0.20,-0.51,
0.532,0.06,0.09,0.89,0.31,-0.17,-0.63,
0.532,0.05,0.09,0.88,0.31,-0.17,-0.63,
0.533,0.05,0.09,0.87,0.31,-0.17,-0.63,
0.536,0.04,0.09,0.86,0.31,-0.17,-0.63,
0.536,0.04,0.09,0.86,0.19,-0.15,-0.80,
0.538,0.03,0.09,0.86,0.19,-0.15,-0.80,
0.541,0.02,0.09,0.85,0.19,-0.15,-0.80,
0.541,0.02,0.09,0.85,0.09,-0.14,-0.96,
0.543,0.02,0.10,0.85,0.09,-0.14,-0.96,
0.546,0.02,0.10,0.84,0.09,-0.14,-0.96,
0.546,0.02,0.10,0.84,-0.06,-0.14,-1.08,
0.548,0.02,0.10,0.84,-0.06,-0.14,-1.08,
0.551,0.02,0.10,0.84,-0.06,-0.14,-1.08,
0.551,0.02,0.10,0.84,-0.13,-0.10,-1.20,
0.553,0.02,0.10,0.84,-0.13,-0.10,-1.20,
0.556,0.01,0.09,0.84,-0.13,-0.10,-1.20,
0.556,0.01,0.09,0.84,-0.18,-0.08,-1.23,
0.558,0.01,0.09,0.85,-0.18,-0.08,-1.23,
0.561,0.01,0.09,0.85,-0.18,-0.08,-1.23,
0.562,0.01,0.09,0.85,-0.18,-0.14,-1.17,
0.563,0.01,0.09,0.85,-0.18,-0.14,-1.17,
0.565,0.01,0.09,0.85,-0.18,-0.14,-1.17,
0.566,0.01,0.09,0.85,-0.20,-0.16,-1.09,
0.568,0.02,0.09,0.85,-0.20,-0.16,-1.09,
0.57,0.02,0.09,0.86,-0.20,-0.16,-1.09,
0.57,0.02,0.09,0.86,-0.19,-0.17,-1.07,
0.573,0.02,0.08,0.87,-0.19,-0.17,-1.07,
0.576,0.02,0.09,0.87,-0.19,-0.17,-1.07,
0.576,0.02,0.09,0.87,-0.12,-0.21,-1.01,
0.578,0.02,0.09,0.88,-0.12,-0.21,-1.01,
0.58,0.02,0.09,0.88,-0.14,-0.24,-0.88,
0.581,0.02,0.08,0.88,-0.14,-0.24,-0.88,
0.583,0.02,0.08,0.89,-0.14,-0.24,-0.88,
0.586,0.02,0.08,0.89,-0.13,-0.22,-0.76,
0.586,0.03,0.08,0.90,-0.13,-0.22,-0.76,
0.588,0.04,0.08,0.90,-0.13,-0.22,-0.76,
0.591,0.04,0.08,0.91,-0.13,-0.22,-0.76,
0.591,0.04,0.08,0.91,-0.06,-0.26,-0.64,
0.593,0.03,0.07,0.91,-0.06,-0.26,-0.64,
0.595,0.04,0.07,0.90,-0.06,-0.26,-0.64,
0.596,0.04,0.07,0.90,0.04,-0.31,-0.52,
0.598,0.04,0.07,0.90,0.04,-0.31,-0.52,
0.601,0.03,0.07,0.90,0.04,-0.31,-0.52,
0.601,0.03,0.07,0.90,0.05,-0.34,-0.51,
0.603,0.03,0.06,0.90,0.05,-0.34,-0.51,
0.605,0.03,0.06,0.90,0.08,-0.36,-0.58,
0.606,0.02,0.07,0.89,0.08,-0.36,-0.58,
0.608,0.02,0.07,0.89,0.08,-0.36,-0.58,
0.615,0.01,0.07,0.88,0.08,-0.36,-0.58,
0.616,0.01,0.07,0.88,-0.02,-0.41,-0.63,
0.616,0.01,0.07,0.88,-0.02,-0.41,-0.63,
0.616,-0.00,0.07,0.88,-0.02,-0.41,-0.63,
0.616,-0.00,0.07,0.88,-0.13,-0.37,-0.71,
0.617,-0.01,0.07,0.88,-0.13,-0.37,-0.71,
0.62,-0.02,0.08,0.87,-0.13,-0.37,-0.71,
0.62,-0.02,0.08,0.87,-0.25,-0.36,-0.74,
0.622,-0.02,0.08,0.87,-0.25,-0.36,-0.74,
0.625,-0.02,0.08,0.87,-0.40,-0.35,-0.82,
0.626,-0.03,0.08,0.87,-0.40,-0.35,-0.82,
0.628,-0.03,0.08,0.87,-0.40,-0.35,-0.82,
0.63,-0.03,0.08,0.87,-0.52,-0.28,-0.86,
0.63,-0.03,0.09,0.87,-0.52,-0.28,-0.86,
0.632,-0.04,0.09,0.87,-0.52,-0.28,-0.86,
0.634,-0.04,0.09,0.87,-0.56,-0.21,-0.84,
0.635,-0.04,0.09,0.87,-0.56,-0.21,-0.84,
0.637,-0.04,0.09,0.87,-0.56,-0.21,-0.84,
0.639,-0.04,0.09,0.88,-0.56,-0.21,-0.84,
0.64,-0.04,0.09,0.88,-0.58,-0.18,-0.87,
0.642,-0.04,0.09,0.88,-0.58,-0.18,-0.87,
0.648,-0.05,0.09,0.88,-0.58,-0.18,-0.87,
0.648,-0.05,0.09,0.88,-0.62,-0.16,-0.77,
0.648,-0.05,0.08,0.89,-0.62,-0.16,-0.77,
0.649,-0.05,0.08,0.89,-0.62,-0.16,-0.77,
0.65,-0.05,0.08,0.89,-0.67,-0.16,-0.72,
0.652,-0.05,0.08,0.89,-0.67,-0.16,-0.72,
0.654,-0.05,0.08,0.89,-0.67,-0.22,-0.63,
0.656,-0.05,0.07,0.90,-0.67,-0.22,-0.63,
0.657,-0.04,0.08,0.90,-0.67,-0.22,-0.63,
0.659,-0.04,0.07,0.90,-0.67,-0.22,-0.63,
0.66,-0.04,0.07,0.90,-0.67,-0.27,-0.58,
0.662,-0.03,0.07,0.90,-0.67,-0.27,-0.58,
0.664,-0.03,0.07,0.90,-0.67,-0.27,-0.58,
0.665,-0.03,0.07,0.90,-0.59,-0.26,-0.52,
0.667,-0.03,0.07,0.91,-0.59,-0.26,-0.52,
0.669,-0.02,0.07,0.91,-0.59,-0.26,-0.52,
0.67,-0.02,0.07,0.91,-0.50,-0.29,-0.54,
0.671,-0.02,0.08,0.91,-0.50,-0.29,-0.54,
0.675,-0.02,0.08,0.92,-0.50,-0.29,-0.54,
0.675,-0.02,0.08,0.92,-0.42,-0.24,-0.48,
0.678,-0.02,0.08,0.93,-0.42,-0.24,-0.48,
0.68,-0.02,0.08,0.92,-0.42,-0.24,-0.48,
0.68,-0.02,0.08,0.92,-0.39,-0.20,-0.39,
0.681,-0.02,0.08,0.92,-0.39,-0.20,-0.39,
0.685,-0.02,0.08,0.92,-0.39,-0.16,-0.33,
0.685,-0.03,0.08,0.92,-0.39,-0.16,-0.33,
0.687,-0.03,0.08,0.92,-0.39,-0.16,-0.33,
0.69,-0.03,0.09,0.92,-0.39,-0.16,-0.33,
0.69,-0.03,0.09,0.92,-0.39,-0.14,-0.36,
0.692,-0.04,0.09,0.92,-0.39,-0.14,-0.36,
0.695,-0.05,0.09,0.92,-0.39,-0.14,-0.36,
0.695,-0.05,0.09,0.92,-0.43,-0.08,-0.34,
0.696,-0.05,0.09,0.93,-0.43,-0.08,-0.34,
0.7,-0.05,0.09,0.93,-0.52,-0.05,-0.35,
0.7,-0.06,0.10,0.93,-0.52,-0.05,-0.35,
0.702,-0.07,0.10,0.93,-0.52,-0.05,-0.35,
0.705,-0.07,0.10,0.93,-0.62,0.05,-0.28,
0.705,-0.07,0.10,0.94,-0.62,0.05,-0.28,
0.707,-0.08,0.10,0.95,-0.62,0.05,-0.28,
0.709,-0.09,0.10,0.95,-0.62,0.05,-0.28,
0.71,-0.09,0.10,0.95,-0.78,0.11,-0.17,
0.711,-0.10,0.09,0.96,-0.78,0.11,-0.17,
0.714,-0.11,0.09,0.96,-0.78,0.11,-0.17,
0.714,-0.11,0.09,0.96,-0.90,0.11,-0.05,
0.717,-0.12,0.09,0.97,-0.90,0.11,-0.05,
0.719,-0.13,0.09,0.97,-0.90,0.11,-0.05,
0.72,-0.13,0.09,0.97,-1.08,0.06,0.03,
0.721,-0.15,0.08,0.97,-1.08,0.06,0.03,
0.724,-0.16,0.08,0.98,-1.08,0.06,0.03,
0.725,-0.16,0.08,0.98,-1.28,0.07,0.13,
0.726,-0.17,0.08,0.97,-1.28,0.07,0.13,
0.729,-0.17,0.07,0.98,-1.28,0.07,0.13,
0.73,-0.17,0.07,0.98,-1.49,-0.03,0.17,
0.731,-0.18,0.07,0.98,-1.49,-0.03,0.17,
0.734,-0.19,0.07,0.98,-1.49,-0.03,0.17,
0.735,-0.19,0.07,0.98,-1.63,-0.01,0.20,
0.736,-0.19,0.07,0.97,-1.63,-0.01,0.20,
0.739,-0.20,0.07,0.98,-1.63,-0.01,0.20,
0.739,-0.20,0.07,0.98,-1.80,-0.05,0.23,
0.741,-0.20,0.06,0.98,-1.80,-0.05,0.23,
0.744,-0.21,0.06,0.98,-1.80,-0.05,0.23,
0.744,-0.21,0.06,0.98,-1.88,-0.04,0.20,
0.746,-0.21,0.06,0.98,-1.88,-0.04,0.20,
0.749,-0.21,0.06,0.98,-1.88,-0.04,0.20,
0.749,-0.21,0.06,0.98,-1.94,-0.09,0.26,
0.751,-0.21,0.06,0.98,-1.94,-0.09,0.26,
0.754,-0.21,0.06,0.98,-2.00,-0.05,0.22,
0.754,-0.21,0.06,0.97,-2.00,-0.05,0.22,
0.756,-0.21,0.06,0.97,-2.00,-0.05,0.22,
0.759,-0.22,0.07,0.97,-2.00,-0.05,0.22,
0.759,-0.22,0.07,0.97,-1.97,-0.04,0.15,
0.761,-0.21,0.07,0.97,-1.97,-0.04,0.15,
0.766,-0.21,0.06,0.96,-1.97,-0.04,0.15,
0.766,-0.21,0.06,0.96,-2.03,0.01,0.11,
0.766,-0.21,0.06,0.96,-2.03,0.01,0.11,
0.768,-0.21,0.06,0.95,-2.03,0.01,0.11,
0.769,-0.21,0.06,0.95,-1.99,0.04,0.04,
0.771,-0.20,0.06,0.95,-1.99,0.04,0.04,
0.774,-0.19,0.06,0.95,-1.99,0.04,0.04,
0.774,-0.19,0.06,0.95,-1.94,-0.02,-0.04,
0.776,-0.19,0.06,0.95,-1.94,-0.02,-0.04,
0.78,-0.19,0.06,0.95,-1.80,0.05,-0.09,
0.78,-0.18,0.07,0.95,-1.80,0.05,-0.09,
0.78,-0.18,0.07,0.95,-1.80,0.05,-0.09,
0.783,-0.18,0.07,0.95,-1.80,0.05,-0.09,
0.783,-0.18,0.07,0.95,-1.66,0.09,-0.09,
0.785,-0.18,0.07,0.96,-1.66,0.09,-0.09,
0.788,-0.18,0.07,0.96,-1.66,0.09,-0.09,
0.788,-0.18,0.07,0.96,-1.59,0.17,-0.09,
0.79,-0.19,0.07,0.96,-1.59,0.17,-0.09,
0.793,-0.19,0.07,0.97,-1.59,0.17,-0.09,
0.793,-0.19,0.07,0.97,-1.58,0.15,-0.00,
0.795,-0.19,0.07,0.97,-1.58,0.15,-0.00,
0.798,-0.19,0.08,0.97,-1.58,0.15,-0.00,
0.798,-0.19,0.08,0.97,-1.62,0.18,0.06,
0.8,-0.19,0.09,0.99,-1.62,0.18,0.06,
0.803,-0.19,0.09,0.99,-1.62,0.28,0.14,
0.803,-0.19,0.09,0.98,-1.62,0.28,0.14,
0.805,-0.20,0.10,0.99,-1.62,0.28,0.14,
0.808,-0.20,0.10,0.99,-1.62,0.28,0.14,
0.808,-0.20,0.10,0.99,-1.60,0.44,0.26,
0.81,-0.20,0.10,1.00,-1.60,0.44,0.26,
0.814,-0.21,0.11,1.00,-1.60,0.44,0.26,
0.815,-0.21,0.11,1.00,-1.64,0.55,0.29,
0.815,-0.21,0.10,1.01,-1.64,0.55,0.29,
0.818,-0.22,0.10,1.01,-1.64,0.55,0.29,
0.818,-0.22,0.10,1.01,-1.70,0.62,0.39,
0.82,-0.22,0.10,1.02,-1.70,0.62,0.39,
0.823,-0.23,0.09,1.02,-1.70,0.62,0.39,
0.823,-0.23,0.09,1.02,-1.78,0.63,0.49,
0.825,-0.24,0.09,1.02,-1.78,0.63,0.49,
0.829,-0.24,0.09,1.02,-1.84,0.60,0.54,
0.829,-0.23,0.07,1.02,-1.84,0.60,0.54,
0.83,-0.24,0.06,1.03,-1.84,0.60,0.54,
0.832,-0.25,0.04,1.03,-1.84,0.60,0.54,
0.833,-0.25,0.04,1.03,-1.91,0.45,0.56,
0.835,-0.24,0.03,1.03,-1.91,0.45,0.56,
0.838,-0.24,0.03,1.03,-1.91,0.45,0.56,
0.838,-0.24,0.03,1.03,-1.97,0.22,0.66,
0.84,-0.24,0.01,1.03,-1.97,0.22,0.66,
0.843,-0.24,-0.01,1.04,-1.97,0.22,0.66,
0.843,-0.24,-0.01,1.04,-1.96,0.03,0.69,
0.846,-0.24,-0.02,1.04,-1.96,0.03,0.69,
0.847,-0.24,-0.03,1.05,-1.96,0.03,0.69,
0.848,-0.24,-0.03,1.05,-1.95,-0.23,0.71,
0.85,-0.24,-0.04,1.04,-1.95,-0.23,0.71,
0.853,-0.24,-0.04,1.04,-1.92,-0.44,0.81,
0.853,-0.23,-0.06,1.05,-1.92,-0.44,0.81,
0.854,-0.23,-0.08,1.05,-1.92,-0.44,0.81,
0.858,-0.23,-0.09,1.05,-1.92,-0.44,0.81,
0.858,-0.23,-0.09,1.05,-1.86,-0.65,0.81,
0.86,-0.23,-0.11,1.05,-1.86,-0.65,0.81,
0.863,-0.23,-0.12,1.05,-1.86,-0.65,0.81,
0.863,-0.23,-0.12,1.05,-1.80,-0.95,0.87,
0.864,-0.22,-0.13,1.05,-1.80,-0.95,0.87,
0.867,-0.22,-0.14,1.05,-1.80,-0.95,0.87,
0.868,-0.22,-0.14,1.05,-1.78,-1.18,0.86,
0.869,-0.22,-0.15,1.04,-1.78,-1.18,0.86,
0.872,-0.21,-0.15,1.03,-1.78,-1.18,0.86,
0.872,-0.21,-0.15,1.03,-1.69,-1.41,0.82,
0.874,-0.21,-0.15,1.03,-1.69,-1.41,0.82,
0.877,-0.21,-0.15,1.03,-1.64,-1.50,0.73,
0.877,-0.21,-0.15,1.02,-1.64,-1.50,0.73,
0.882,-0.20,-0.15,1.02,-1.64,-1.50,0.73,
0.883,-0.21,-0.15,1.01,-1.64,-1.50,0.73,
0.883,-0.21,-0.15,1.01,-1.56,-1.49,0.63,
0.884,-0.20,-0.14,1.00,-1.56,-1.49,0.63,
0.887,-0.20,-0.14,0.99,-1.56,-1.49,0.63,
0.887,-0.20,-0.14,0.99,-1.50,-1.46,0.47,
0.889,-0.20,-0.13,0.98,-1.50,-1.46,0.47,
0.892,-0.21,-0.12,0.97,-1.50,-1.46,0.47,
0.892,-0.21,-0.12,0.97,-1.48,-1.34,0.27,
0.894,-0.22,-0.12,0.96,-1.48,-1.34,0.27,
0.897,-0.22,-0.11,0.95,-1.48,-1.34,0.27,
0.897,-0.22,-0.11,0.95,-1.50,-1.23,0.12,
0.899,-0.23,-0.10,0.94,-1.50,-1.23,0.12,
0.902,-0.23,-0.10,0.94,-1.58,-1.06,-0.04,
0.902,-0.23,-0.09,0.94,-1.58,-1.06,-0.04,
0.904,-0.23,-0.08,0.94,-1.58,-1.06,-0.04,
0.907,-0.24,-0.06,0.93,-1.58,-1.06,-0.04,
0.907,-0.24,-0.06,0.93,-1.66,-0.85,-0.19,
0.909,-0.24,-0.05,0.92,-1.66,-0.85,-0.19,
0.913,-0.24,-0.04,0.92,-1.66,-0.85,-0.19,
0.914,-0.24,-0.04,0.92,-1.70,-0.64,-0.30,
0.914,-0.24,-0.02,0.92,-1.70,-0.64,-0.30,
0.917,-0.24,-0.02,0.92,-1.70,-0.37,-0.40,
0.917,-0.24,-0.01,0.93,-1.70,-0.37,-0.40,
0.92,-0.23,0.01,0.92,-1.70,-0.37,-0.40,
0.922,-0.24,0.02,0.91,-1.70,-0.37,-0.40,
0.922,-0.24,0.02,0.91,-1.68,-0.06,-0.38,
0.924,-0.24,0.04,0.91,-1.68,-0.06,-0.38,
0.927,-0.24,0.04,0.91,-1.66,0.24,-0.49,
0.927,-0.25,0.05,0.90,-1.66,0.24,-0.49,
0.93,-0.25,0.06,0.89,-1.66,0.24,-0.49,
0.932,-0.25,0.07,0.90,-1.66,0.24,-0.49,
0.932,-0.25,0.07,0.90,-1.71,0.51,-0.56,
0.934,-0.26,0.07,0.89,-1.71,0.51,-0.56,
0.936,-0.27,0.08,0.89,-1.71,0.51,-0.56,
0.937,-0.27,0.08,0.89,-1.75,0.72,-0.66,
0.939,-0.28,0.08,0.89,-1.75,0.72,-0.66,
0.941,-0.28,0.08,0.89,-1.75,0.72,-0.66,
0.942,-0.28,0.08,0.89,-1.87,0.85,-0.71,
0.944,-0.29,0.08,0.89,-1.87,0.85,-0.71,
0.948,-0.30,0.07,0.90,-1.87,0.85,-0.71,
0.949,-0.30,0.07,0.90,-2.00,0.91,-0.66,
0.949,-0.31,0.07,0.91,-2.00,0.91,-0.66,
0.951,-0.31,0.07,0.91,-2.11,0.88,-0.63,
0.952,-0.31,0.06,0.91,-2.11,0.88,-0.63,
0.954,-0.32,0.06,0.93,-2.11,0.88,-0.63,
0.956,-0.32,0.06,0.93,-2.23,0.84,-0.50,
0.957,-0.32,0.06,0.94,-2.23,0.84,-0.50,
0.958,-0.33,0.05,0.96,-2.23,0.84,-0.50,
0.961,-0.33,0.05,0.96,-2.33,0.79,-0.25,
0.962,-0.33,0.03,0.98,-2.33,0.79,-0.25,
0.968,-0.33,0.03,1.00,-2.33,0.79,-0.25,
0.968,-0.34,0.03,1.02,-2.33,0.79,-0.25,
0.969,-0.34,0.03,1.02,-2.40,0.67,0.09,
0.969,-0.34,0.01,1.03,-2.40,0.67,0.09,
0.971,-0.34,0.01,1.04,-2.40,0.67,0.09,
0.972,-0.34,0.01,1.04,-2.44,0.61,0.46,
0.973,-0.35,0.00,1.06,-2.44,0.61,0.46,
0.976,-0.35,0.00,1.06,-2.48,0.49,0.76,
0.977,-0.35,-0.01,1.08,-2.48,0.49,0.76,
0.982,-0.36,-0.02,1.10,-2.48,0.49,0.76,
0.982,-0.36,-0.02,1.12,-2.48,0.49,0.76,
0.982,-0.36,-0.02,1.12,-2.56,0.40,1.06,
0.983,-0.37,-0.02,1.14,-2.56,0.40,1.06,
0.986,-0.37,-0.03,1.15,-2.56,0.40,1.06,
0.987,-0.37,-0.03,1.15,-2.63,0.29,1.46,
0.989,-0.38,-0.03,1.17,-2.63,0.29,1.46,
0.992,-0.38,-0.04,1.19,-2.63,0.29,1.46,
0.992,-0.38,-0.04,1.19,-2.72,0.27,1.80,
0.994,-0.38,-0.04,1.21,-2.72,0.27,1.80,
0.996,-0.38,-0.05,1.23,-2.72,0.27,1.80,
0.996,-0.38,-0.05,1.23,-2.78,0.22,2.17,
0.998,-0.39,-0.05,1.24,-2.78,0.22,2.17,
1.001,-0.39,-0.05,1.24,-2.82,0.22,2.54,
1.002,-0.38,-0.05,1.26,-2.82,0.22,2.54,
1.003,-0.38,-0.05,1.28,-2.82,0.22,2.54,
1.007,-0.38,-0.06,1.29,-2.82,0.22,2.54,
1.007,-0.38,-0.06,1.29,-2.81,0.18,2.84,
1.009,-0.37,-0.06,1.29,-2.81,0.18,2.84,
1.012,-0.37,-0.07,1.31,-2.81,0.18,2.84,
1.012,-0.37,-0.07,1.31,-2.71,0.16,3.16,
1.014,-0.36,-0.08,1.32,-2.71,0.16,3.16,
1.016,-0.36,-0.09,1.33,-2.71,0.16,3.16,
1.016,-0.36,-0.09,1.33,-2.63,0.09,3.34,
1.018,-0.36,-0.09,1.33,-2.63,0.09,3.34,
1.021,-0.35,-0.10,1.34,-2.63,0.09,3.34,
1.021,-0.35,-0.10,1.34,-2.52,-0.01,3.55,
1.023,-0.34,-0.11,1.34,-2.52,-0.01,3.55,
1.026,-0.34,-0.11,1.34,-2.41,-0.12,3.63,
1.026,-0.33,-0.11,1.34,-2.41,-0.12,3.63,
1.028,-0.32,-0.12,1.34,-2.41,-0.12,3.63,
1.031,-0.32,-0.13,1.34,-2.41,-0.12,3.63,
1.033,-0.32,-0.13,1.34,-2.22,-0.23,3.70,
1.034,-0.31,-0.13,1.32,-2.22,-0.23,3.70,
1.036,-0.30,-0.13,1.32,-2.22,-0.23,3.70,
1.036,-0.30,-0.13,1.32,-2.08,-0.32,3.66,
1.038,-0.29,-0.13,1.31,-2.08,-0.32,3.66,
1.041,-0.28,-0.13,1.29,-2.08,-0.32,3.66,
1.041,-0.28,-0.13,1.29,-1.89,-0.33,3.48,
1.043,-0.27,-0.13,1.28,-1.89,-0.33,3.48,
1.047,-0.26,-0.13,1.26,-1.89,-0.33,3.48,
1.047,-0.26,-0.13,1.26,-1.70,-0.36,3.25,
1.048,-0.26,-0.12,1.25,-1.70,-0.36,3.25,
1.051,-0.26,-0.12,1.25,-1.49,-0.35,2.96,
1.051,-0.24,-0.12,1.23,-1.49,-0.35,2.96,
1.053,-0.24,-0.11,1.22,-1.49,-0.35,2.96,
1.056,-0.23,-0.10,1.21,-1.49,-0.35,2.96,
1.056,-0.23,-0.10,1.21,-1.31,-0.27,2.64,
1.058,-0.23,-0.09,1.19,-1.31,-0.27,2.64,
1.061,-0.23,-0.09,1.19,-1.13,-0.12,2.38,
1.061,-0.22,-0.08,1.18,-1.13,-0.12,2.38,
1.063,-0.21,-0.08,1.17,-1.13,-0.12,2.38,
1.065,-0.21,-0.07,1.17,-1.13,-0.12,2.38,
1.066,-0.21,-0.07,1.17,-0.99,0.05,2.13,
1.068,-0.21,-0.06,1.16,-0.99,0.05,2.13,
1.071,-0.21,-0.06,1.15,-0.99,0.05,2.13,
1.071,-0.21,-0.06,1.15,-0.89,0.19,1.97,
1.073,-0.21,-0.06,1.13,-0.89,0.19,1.97,
1.076,-0.21,-0.06,1.13,-0.85,0.29,1.77,
1.076,-0.21,-0.06,1.13,-0.85,0.29,1.77,
1.078,-0.22,-0.06,1.12,-0.85,0.29,1.77,
1.084,-0.22,-0.07,1.12,-0.85,0.29,1.77,
1.084,-0.22,-0.07,1.12,-0.81,0.30,1.56,
1.085,-0.22,-0.07,1.11,-0.81,0.30,1.56,
1.086,-0.22,-0.07,1.11,-0.88,0.27,1.47,
1.086,-0.22,-0.08,1.11,-0.88,0.27,1.47,
1.088,-0.22,-0.08,1.10,-0.88,0.27,1.47,
1.091,-0.22,-0.08,1.10,-0.88,0.27,1.47,
1.091,-0.22,-0.08,1.10,-0.87,0.15,1.36,
1.093,-0.21,-0.09,1.10,-0.87,0.15,1.36,
1.096,-0.21,-0.09,1.10,-0.87,0.15,1.36,
1.096,-0.21,-0.09,1.10,-0.85,0.08,1.29,
1.098,-0.21,-0.09,1.10,-0.85,0.08,1.29,
1.1,-0.21,-0.09,1.10,-0.80,0.00,1.26,
1.1,-0.21,-0.10,1.10,-0.80,0.00,1.26,
1.103,-0.21,-0.10,1.09,-0.80,0.00,1.26,
1.106,-0.21,-0.10,1.08,-0.80,0.00,1.26,
1.106,-0.21,-0.10,1.08,-0.76,-0.06,1.23,
1.108,-0.20,-0.11,1.08,-0.76,-0.06,1.23,
1.111,-0.20,-0.11,1.08,-0.76,-0.06,1.23,
1.111,-0.20,-0.11,1.08,-0.71,-0.10,1.11,
1.113,-0.20,-0.11,1.08,-0.71,-0.10,1.11,
1.115,-0.20,-0.11,1.08,-0.71,-0.10,1.11,
1.116,-0.20,-0.11,1.08,-0.65,-0.19,1.04,
1.117,-0.20,-0.11,1.07,-0.65,-0.19,1.04,
1.12,-0.19,-0.12,1.06,-0.65,-0.19,1.04,
1.12,-0.19,-0.12,1.06,-0.62,-0.22,1.01,
1.123,-0.19,-0.11,1.06,-0.62,-0.22,1.01,
1.125,-0.19,-0.11,1.06,-0.54,-0.24,0.87,
1.126,-0.18,-0.11,1.06,-0.54,-0.24,0.87,
1.128,-0.18,-0.11,1.06,-0.54,-0.24,0.87,
1.13,-0.18,-0.11,1.05,-0.54,-0.24,0.87,
1.13,-0.18,-0.11,1.05,-0.46,-0.24,0.84,
1.132,-0.18,-0.10,1.05,-0.46,-0.24,0.84,
1.135,-0.18,-0.10,1.05,-0.40,-0.22,0.79,
1.135,-0.18,-0.10,1.04,-0.40,-0.22,0.79,
1.138,-0.18,-0.10,1.04,-0.40,-0.22,0.79,
1.14,-0.17,-0.09,1.04,-0.40,-0.22,0.79,
1.14,-0.17,-0.09,1.04,-0.35,-0.14,0.70,
1.142,-0.17,-0.09,1.04,-0.35,-0.14,0.70,
1.145,-0.17,-0.08,1.03,-0.35,-0.14,0.70,
1.145,-0.17,-0.08,1.03,-0.32,-0.07,0.67,
1.149,-0.16,-0.07,1.03,-0.32,-0.07,0.67,
1.15,-0.16,-0.07,1.03,-0.25,0.06,0.64,
1.153,-0.16,-0.06,1.03,-0.25,0.06,0.64,
1.153,-0.15,-0.04,1.03,-0.25,0.06,0.64,
1.155,-0.15,-0.04,1.03,-0.16,0.27,0.55,
1.156,-0.16,-0.03,1.03,-0.16,0.27,0.55,
1.157,-0.16,-0.02,1.02,-0.16,0.27,0.55,
1.159,-0.17,-0.02,1.01,-0.16,0.27,0.55,
1.16,-0.17,-0.02,1.01,-0.12,0.50,0.53,
1.161,-0.17,-0.01,1.01,-0.12,0.50,0.53,
1.165,-0.17,-0.01,1.01,-0.12,0.50,0.53,
1.165,-0.17,-0.01,1.01,-0.17,0.66,0.41,
1.166,-0.18,-0.01,1.00,-0.17,0.66,0.41,
1.169,-0.19,-0.01,1.00,-0.17,0.66,0.41,
1.169,-0.19,-0.01,1.00,-0.26,0.77,0.34,
1.172,-0.20,-0.01,0.99,-0.26,0.77,0.34,
1.174,-0.20,-0.01,0.99,-0.41,0.78,0.24,
1.175,-0.21,-0.01,0.98,-0.41,0.78,0.24,
1.176,-0.22,-0.01,0.98,-0.41,0.78,0.24,
1.179,-0.22,-0.02,0.98,-0.41,0.78,0.24,
1.18,-0.22,-0.02,0.98,-0.55,0.79,0.13,
1.183,-0.22,-0.02,0.97,-0.55,0.79,0.13,
1.184,-0.23,-0.03,0.97,-0.55,0.79,0.13,
1.184,-0.23,-0.03,0.97,-0.68,0.73,0.07,
1.186,-0.24,-0.03,0.97,-0.68,0.73,0.07,
1.189,-0.24,-0.03,0.97,-0.68,0.73,0.07,
1.19,-0.24,-0.03,0.97,-0.75,0.64,-0.02,
1.191,-0.24,-0.04,0.97,-0.75,0.64,-0.02,
1.194,-0.25,-0.04,0.98,-0.75,0.64,-0.02,
1.194,-0.25,-0.04,0.98,-0.85,0.57,-0.06,
1.196,-0.24,-0.05,0.98,-0.85,0.57,-0.06,
1.202,-0.24,-0.05,0.98,-0.90,0.46,-0.01,
1.202,-0.24,-0.05,0.98,-0.90,0.46,-0.01,
1.202,-0.24,-0.05,0.99,-0.90,0.46,-0.01,
1.205,-0.23,-0.06,1.00,-0.90,0.46,-0.01,
1.205,-0.23,-0.06,1.00,-0.88,0.40,0.06,
1.206,-0.23,-0.06,1.01,-0.88,0.40,0.06,
1.209,-0.23,-0.06,1.01,-0.80,0.36,0.24,
1.209,-0.22,-0.06,1.01,-0.80,0.36,0.24,
1.211,-0.22,-0.06,1.02,-0.80,0.36,0.24,
1.215,-0.21,-0.07,1.03,-0.80,0.36,0.24,
1.215,-0.21,-0.07,1.03,-0.68,0.30,0.36,
1.216,-0.21,-0.08,1.04,-0.68,0.30,0.36,
1.219,-0.20,-0.08,1.05,-0.68,0.30,0.36,
1.219,-0.20,-0.08,1.05,-0.54,0.26,0.50,
1.221,-0.19,-0.08,1.05,-0.54,0.26,0.50,
1.224,-0.19,-0.08,1.05,-0.42,0.14,0.69,
1.224,-0.18,-0.09,1.06,-0.42,0.14,0.69,
1.227,-0.17,-0.10,1.06,-0.42,0.14,0.69,
1.229,-0.17,-0.11,1.06,-0.42,0.14,0.69,
1.229,-0.17,-0.11,1.06,-0.24,0.05,0.80,
1.232,-0.16,-0.12,1.06,-0.24,0.05,0.80,
1.234,-0.15,-0.12,1.06,-0.24,0.05,0.80,
1.234,-0.15,-0.12,1.06,-0.09,-0.07,0.87,
1.236,-0.14,-0.12,1.06,-0.09,-0.07,0.87,
1.239,-0.14,-0.12,1.06,-0.09,-0.07,0.87,
1.239,-0.14,-0.12,1.06,0.05,-0.21,0.87,
1.241,-0.14,-0.13,1.06,0.05,-0.21,0.87,
1.243,-0.13,-0.13,1.06,0.05,-0.21,0.87,
1.244,-0.13,-0.13,1.06,0.20,-0.26,0.85,
1.246,-0.13,-0.13,1.05,0.20,-0.26,0.85,
1.248,-0.13,-0.13,1.05,0.26,-0.28,0.82,
1.249,-0.13,-0.12,1.04,0.26,-0.28,0.82,
1.251,-0.13,-0.12,1.03,0.26,-0.28,0.82,
1.253,-0.13,-0.11,1.02,0.26,-0.28,0.82,
1.254,-0.13,-0.11,1.02,0.29,-0.27,0.72,
1.256,-0.13,-0.11,1.01,0.29,-0.27,0.72,
1.258,-0.14,-0.10,1.01,0.29,-0.27,0.72,
1.258,-0.14,-0.10,1.01,0.33,-0.18,0.52,
1.26,-0.14,-0.10,1.00,0.33,-0.18,0.52,
1.265,-0.14,-0.10,0.99,0.33,-0.18,0.52,
1.265,-0.14,-0.10,0.99,0.29,-0.09,0.39,
1.266,-0.15,-0.09,0.98,0.29,-0.09,0.39,
1.268,-0.16,-0.09,0.97,0.29,-0.09,0.39,
1.268,-0.16,-0.09,0.97,0.23,-0.06,0.20,
1.27,-0.16,-0.09,0.97,0.23,-0.06,0.20,
1.273,-0.16,-0.09,0.97,0.11,0.02,0.02,
1.273,-0.17,-0.08,0.96,0.11,0.02,0.02,
1.275,-0.19,-0.08,0.95,0.11,0.02,0.02,
1.278,-0.20,-0.08,0.95,0.11,0.02,0.02,
1.278,-0.20,-0.08,0.95,-0.01,0.09,-0.09,
1.281,-0.22,-0.08,0.94,-0.01,0.09,-0.09,
1.283,-0.23,-0.08,0.94,-0.01,0.09,-0.09,
1.283,-0.23,-0.08,0.94,-0.26,0.12,-0.21,
1.285,-0.25,-0.08,0.94,-0.26,0.12,-0.21,
1.288,-0.26,-0.08,0.94,-0.26,0.12,-0.21,
1.288,-0.26,-0.08,0.94,-0.54,0.12,-0.28,
1.29,-0.27,-0.08,0.94,-0.54,0.12,-0.28,
1.294,-0.28,-0.08,0.95,-0.54,0.12,-0.28,
1.294,-0.28,-0.08,0.95,-0.79,0.12,-0.32,
1.295,-0.29,-0.07,0.94,-0.79,0.12,-0.32,
1.298,-0.29,-0.07,0.94,-1.00,0.15,-0.28,
1.299,-0.29,-0.07,0.94,-1.00,0.15,-0.28,
1.3,-0.30,-0.06,0.95,-1.00,0.15,-0.28,
1.303,-0.30,-0.06,0.94,-1.00,0.15,-0.28,
1.303,-0.30,-0.06,0.94,-1.13,0.21,-0.29,
1.305,-0.29,-0.05,0.95,-1.13,0.21,-0.29,
1.308,-0.29,-0.05,0.95,-1.20,0.30,-0.25,
1.308,-0.29,-0.05,0.95,-1.20,0.30,-0.25,
1.31,-0.29,-0.04,0.96,-1.20,0.30,-0.25,
1.313,-0.29,-0.04,0.96,-1.20,0.30,-0.25,
1.313,-0.29,-0.04,0.96,-1.15,0.40,-0.22,
1.315,-0.28,-0.05,0.96,-1.15,0.40,-0.22,
1.324,-0.28,-0.05,0.97,-1.15,0.40,-0.22,
1.326,-0.28,-0.05,0.97,-1.10,0.48,-0.10,
1.328,-0.27,-0.05,0.98,-1.10,0.48,-0.10,
1.328,-0.27,-0.05,0.98,-1.01,0.42,-0.04,
1.328,-0.27,-0.06,0.98,-1.01,0.42,-0.04,
1.329,-0.27,-0.06,0.99,-1.01,0.42,-0.04,
1.329,-0.26,-0.07,1.00,-1.01,0.42,-0.04,
1.329,-0.26,-0.07,1.00,-0.95,0.38,0.10,
1.33,-0.26,-0.08,1.01,-0.95,0.38,0.10,
1.34,-0.26,-0.08,1.01,-0.85,0.31,0.24,
1.34,-0.26,-0.09,1.01,-0.85,0.31,0.24,
1.34,-0.25,-0.09,1.02,-0.85,0.31,0.24,
1.34,-0.25,-0.10,1.03,-0.85,0.31,0.24,
1.34,-0.25,-0.10,1.03,-0.78,0.13,0.38,
1.341,-0.25,-0.10,1.04,-0.78,0.13,0.38,
1.343,-0.24,-0.11,1.04,-0.78,0.13,0.38,
1.343,-0.24,-0.11,1.04,-0.66,0.01,0.51,
1.345,-0.24,-0.11,1.05,-0.66,0.01,0.51,
1.349,-0.24,-0.11,1.05,-0.60,-0.08,0.69,
1.349,-0.23,-0.11,1.06,-0.60,-0.08,0.69,
1.351,-0.23,-0.12,1.06,-0.60,-0.08,0.69,
1.353,-0.23,-0.12,1.06,-0.50,-0.15,0.81,
1.353,-0.23,-0.12,1.07,-0.50,-0.15,0.81,
1.355,-0.23,-0.12,1.08,-0.50,-0.15,0.81,
1.358,-0.22,-0.13,1.09,-0.50,-0.15,0.81,
1.358,-0.22,-0.13,1.09,-0.39,-0.21,0.95,
1.36,-0.21,-0.13,1.09,-0.39,-0.21,0.95,
1.363,-0.21,-0.13,1.09,-0.39,-0.21,0.95,
1.363,-0.21,-0.13,1.09,-0.35,-0.27,1.13,
1.366,-0.20,-0.13,1.10,-0.35,-0.27,1.13,
1.368,-0.20,-0.13,1.09,-0.35,-0.27,1.13,
1.368,-0.20,-0.13,1.09,-0.24,-0.34,1.19,
1.37,-0.19,-0.13,1.09,-0.24,-0.34,1.19,
1.373,-0.19,-0.13,1.09,-0.08,-0.35,1.24,
1.373,-0.18,-0.14,1.09,-0.08,-0.35,1.24,
1.375,-0.18,-0.13,1.10,-0.08,-0.35,1.24,
1.378,-0.18,-0.13,1.10,0.10,-0.35,1.19,
1.378,-0.17,-0.14,1.10,0.10,-0.35,1.19,
1.38,-0.16,-0.13,1.10,0.10,-0.35,1.19,
1.383,-0.16,-0.13,1.09,0.10,-0.35,1.19,
1.384,-0.16,-0.13,1.09,0.23,-0.36,1.30,
1.385,-0.15,-0.13,1.10,0.23,-0.36,1.30,
1.387,-0.15,-0.13,1.10,0.37,-0.35,1.27,
1.388,-0.15,-0.13,1.10,0.37,-0.35,1.27,
1.39,-0.15,-0.12,1.10,0.37,-0.35,1.27,
1.393,-0.15,-0.12,1.10,0.37,-0.35,1.27,
1.393,-0.15,-0.12,1.10,0.50,-0.28,1.27,
1.395,-0.15,-0.12,1.10,0.50,-0.28,1.27,
1.398,-0.15,-0.12,1.10,0.52,-0.22,1.25,
1.398,-0.16,-0.12,1.09,0.52,-0.22,1.25,
1.401,-0.17,-0.12,1.09,0.52,-0.22,1.25,
1.402,-0.18,-0.13,1.09,0.52,-0.22,1.25,
1.402,-0.18,-0.13,1.09,0.49,-0.23,1.23,
1.405,-0.19,-0.13,1.09,0.49,-0.23,1.23,
1.408,-0.19,-0.13,1.09,0.35,-0.27,1.17,
1.408,-0.20,-0.13,1.08,0.35,-0.27,1.17,
1.41,-0.21,-0.13,1.09,0.35,-0.27,1.17,
1.413,-0.21,-0.13,1.09,0.35,-0.27,1.17,
1.413,-0.21,-0.13,1.09,0.15,-0.35,1.16,
1.42,-0.21,-0.13,1.09,0.15,-0.35,1.16,
1.421,-0.22,-0.13,1.09,0.15,-0.35,1.16,
1.421,-0.22,-0.13,1.09,0.01,-0.36,1.16,
1.421,-0.22,-0.13,1.10,0.01,-0.36,1.16,
1.423,-0.22,-0.13,1.10,-0.03,-0.34,1.19,
1.424,-0.21,-0.13,1.10,-0.03,-0.34,1.19,
1.424,-0.21,-0.13,1.11,-0.03,-0.34,1.19,
1.428,-0.21,-0.13,1.12,-0.03,-0.34,1.19,
1.428,-0.21,-0.13,1.12,-0.05,-0.33,1.26,
1.43,-0.22,-0.14,1.12,-0.05,-0.33,1.26,
1.433,-0.22,-0.14,1.13,-0.05,-0.33,1.26,
1.434,-0.22,-0.14,1.13,-0.04,-0.34,1.43,
1.434,-0.22,-0.14,1.14,-0.04,-0.34,1.43,
1.437,-0.22,-0.15,1.15,-0.04,-0.34,1.43,
1.437,-0.22,-0.15,1.15,-0.08,-0.36,1.54,
1.439,-0.22,-0.15,1.17,-0.08,-0.36,1.54,
1.442,-0.22,-0.15,1.17,-0.10,-0.45,1.72,
1.443,-0.21,-0.16,1.18,-0.10,-0.45,1.72,
1.445,-0.21,-0.17,1.19,-0.10,-0.45,1.72,
1.446,-0.21,-0.17,1.19,-0.07,-0.55,2.00,
1.447,-0.20,-0.18,1.20,-0.07,-0.55,2.00,
1.45,-0.19,-0.18,1.20,-0.07,-0.55,2.00,
1.451,-0.17,-0.19,1.21,-0.07,-0.55,2.00,
1.452,-0.17,-0.19,1.21,0.06,-0.67,2.16,
1.454,-0.16,-0.19,1.22,0.06,-0.67,2.16,
1.456,-0.15,-0.20,1.24,0.06,-0.67,2.16,
1.457,-0.15,-0.20,1.24,0.27,-0.76,2.32,
1.459,-0.14,-0.20,1.24,0.27,-0.76,2.32,
1.461,-0.13,-0.20,1.25,0.27,-0.76,2.32,
1.462,-0.13,-0.20,1.25,0.53,-0.86,2.50,
1.463,-0.12,-0.21,1.25,0.53,-0.86,2.50,
1.467,-0.11,-0.21,1.26,0.53,-0.86,2.50,
1.468,-0.11,-0.21,1.26,0.73,-0.93,2.64,
1.468,-0.10,-0.21,1.26,0.73,-0.93,2.64,
1.471,-0.10,-0.21,1.26,0.89,-1.01,2.74,
1.471,-0.09,-0.21,1.26,0.89,-1.01,2.74,
1.474,-0.08,-0.21,1.25,0.89,-1.01,2.74,
1.476,-0.08,-0.22,1.25,0.89,-1.01,2.74,
1.476,-0.08,-0.22,1.25,1.06,-1.03,2.77,
1.478,-0.07,-0.21,1.26,1.06,-1.03,2.77,
1.483,-0.06,-0.21,1.24,1.06,-1.03,2.77,
1.484,-0.06,-0.21,1.24,1.23,-1.06,2.72,
1.484,-0.05,-0.21,1.24,1.23,-1.06,2.72,
1.486,-0.05,-0.21,1.23,1.23,-1.06,2.72,
1.486,-0.05,-0.21,1.23,1.39,-1.06,2.68,
1.488,-0.04,-0.21,1.22,1.39,-1.06,2.68,
1.491,-0.04,-0.20,1.21,1.39,-1.06,2.68,
1.491,-0.04,-0.20,1.21,1.51,-1.06,2.53,
1.493,-0.03,-0.20,1.20,1.51,-1.06,2.53,
1.496,-0.03,-0.20,1.20,1.64,-1.03,2.35,
1.496,-0.02,-0.20,1.20,1.64,-1.03,2.35,
1.5,-0.02,-0.20,1.19,1.64,-1.03,2.35,
1.501,-0.02,-0.20,1.18,1.64,-1.03,2.35,
1.501,-0.02,-0.20,1.18,1.77,-1.01,2.17,
1.503,-0.02,-0.19,1.17,1.77,-1.01,2.17,
1.507,-0.02,-0.19,1.16,1.77,-1.01,2.17,
1.507,-0.02,-0.19,1.16,1.81,-1.00,1.97,
1.508,-0.02,-0.19,1.16,1.81,-1.00,1.97,
1.512,-0.02,-0.19,1.15,1.81,-1.00,1.97,
1.512,-0.02,-0.19,1.15,1.82,-0.95,1.81,
1.513,-0.02,-0.18,1.14,1.82,-0.95,1.81,
1.516,-0.03,-0.17,1.14,1.82,-0.95,1.81,
1.517,-0.03,-0.17,1.14,1.81,-0.93,1.67,
1.518,-0.03,-0.17,1.14,1.81,-0.93,1.67,
1.521,-0.03,-0.17,1.14,1.73,-0.84,1.55,
1.521,-0.03,-0.17,1.13,1.73,-0.84,1.55,
1.523,-0.04,-0.16,1.13,1.73,-0.84,1.55,
1.526,-0.05,-0.16,1.12,1.73,-0.84,1.55,
1.526,-0.05,-0.16,1.12,1.68,-0.81,1.50,
1.528,-0.05,-0.16,1.13,1.68,-0.81,1.50,
1.531,-0.05,-0.16,1.13,1.68,-0.81,1.50,
1.531,-0.05,-0.16,1.13,1.57,-0.75,1.40,
1.538,-0.05,-0.16,1.13,1.57,-0.75,1.40,
1.538,-0.05,-0.15,1.12,1.57,-0.75,1.40,
1.539,-0.05,-0.15,1.12,1.51,-0.75,1.40,
1.54,-0.05,-0.15,1.12,1.51,-0.75,1.40,
1.541,-0.05,-0.15,1.13,1.51,-0.75,1.40,
1.542,-0.05,-0.15,1.13,1.45,-0.69,1.38,
1.543,-0.05,-0.15,1.13,1.45,-0.69,1.38,
1.546,-0.05,-0.15,1.13,1.47,-0.65,1.39,
1.546,-0.05,-0.15,1.13,1.47,-0.65,1.39,
1.548,-0.06,-0.16,1.13,1.47,-0.65,1.39,
1.551,-0.05,-0.16,1.13,1.47,-0.65,1.39,
1.552,-0.05,-0.16,1.13,1.49,-0.66,1.42,
1.553,-0.05,-0.16,1.13,1.49,-0.66,1.42,
1.557,-0.05,-0.16,1.13,1.40,-0.76,1.42,
1.557,-0.05,-0.16,1.14,1.40,-0.76,1.42,
1.558,-0.05,-0.16,1.13,1.40,-0.76,1.42,
1.56,-0.05,-0.16,1.13,1.40,-0.76,1.42,
1.561,-0.05,-0.16,1.13,1.42,-0.81,1.44,
1.562,-0.05,-0.16,1.13,1.42,-0.81,1.44,
1.567,-0.04,-0.16,1.12,1.42,-0.81,1.44,
1.57,-0.04,-0.16,1.12,1.43,-0.82,1.39,
1.57,-0.04,-0.16,1.12,1.43,-0.82,1.39,
1.57,-0.04,-0.16,1.12,1.48,-0.81,1.32,
1.571,-0.03,-0.16,1.13,1.48,-0.81,1.32,
1.572,-0.03,-0.15,1.13,1.48,-0.81,1.32,
1.575,-0.03,-0.14,1.14,1.48,-0.81,1.32,
1.575,-0.03,-0.14,1.14,1.54,-0.79,1.37,
1.577,-0.03,-0.14,1.14,1.54,-0.79,1.37,
1.58,-0.03,-0.14,1.15,1.54,-0.79,1.37,
1.58,-0.03,-0.14,1.15,1.57,-0.67,1.43,
1.583,-0.02,-0.13,1.16,1.57,-0.67,1.43,
1.586,-0.03,-0.12,1.16,1.57,-0.67,1.43,
1.586,-0.03,-0.12,1.16,1.62,-0.60,1.51,
1.587,-0.02,-0.12,1.15,1.62,-0.60,1.51,
1.59,-0.02,-0.11,1.16,1.62,-0.60,1.51,
1.59,-0.02,-0.11,1.16,1.65,-0.50,1.68,
1.592,-0.02,-0.12,1.16,1.65,-0.50,1.68,
1.595,-0.02,-0.12,1.16,1.66,-0.43,1.65,
1.595,-0.02,-0.11,1.17,1.66,-0.43,1.65,
1.597,-0.03,-0.12,1.17,1.66,-0.43,1.65,
1.6,-0.03,-0.12,1.17,1.66,-0.43,1.65,
1.601,-0.03,-0.12,1.17,1.67,-0.41,1.75,
1.602,-0.04,-0.12,1.16,1.67,-0.41,1.75,
1.605,-0.04,-0.12,1.16,1.67,-0.41,1.75,
1.605,-0.04,-0.12,1.16,1.59,-0.44,1.80,
1.607,-0.05,-0.13,1.16,1.59,-0.44,1.80,
1.61,-0.05,-0.13,1.16,1.59,-0.44,1.80,
1.61,-0.05,-0.13,1.16,1.53,-0.50,1.67,
1.612,-0.05,-0.13,1.16,1.53,-0.50,1.67,
1.615,-0.05,-0.13,1.15,1.53,-0.50,1.67,
1.616,-0.05,-0.13,1.15,1.43,-0.61,1.69,
1.618,-0.05,-0.13,1.15,1.43,-0.61,1.69,
1.62,-0.05,-0.13,1.15,1.42,-0.63,1.62,
1.62,-0.05,-0.13,1.15,1.42,-0.63,1.62,
1.622,-0.05,-0.13,1.14,1.42,-0.63,1.62,
1.625,-0.05,-0.13,1.14,1.42,-0.63,1.62,
1.625,-0.05,-0.13,1.14,1.40,-0.66,1.50,
1.627,-0.05,-0.13,1.13,1.40,-0.66,1.50,
1.63,-0.05,-0.13,1.13,1.40,-0.66,1.50,
1.63,-0.05,-0.13,1.13,1.37,-0.68,1.44,
1.637,-0.05,-0.13,1.12,1.37,-0.68,1.44,
1.637,-0.05,-0.13,1.11,1.37,-0.68,1.44,
1.637,-0.05,-0.13,1.11,1.37,-0.64,1.38,
1.638,-0.04,-0.13,1.11,1.37,-0.64,1.38,
1.64,-0.04,-0.14,1.11,1.37,-0.64,1.38,
1.64,-0.04,-0.14,1.11,1.38,-0.70,1.22,
1.642,-0.03,-0.13,1.10,1.38,-0.70,1.22,
1.646,-0.03,-0.14,1.10,1.38,-0.70,1.22,
1.648,-0.03,-0.14,1.10,1.44,-0.75,1.16,
1.649,-0.03,-0.14,1.09,1.44,-0.75,1.16,
1.652,-0.02,-0.14,1.08,1.44,-0.75,1.16,
1.652,-0.02,-0.14,1.08,1.53,-0.76,1.01,
1.653,-0.01,-0.13,1.07,1.53,-0.76,1.01,
1.654,-0.01,-0.13,1.07,1.53,-0.76,1.01,
1.655,-0.01,-0.13,1.07,1.55,-0.81,0.88,
1.657,-0.00,-0.13,1.07,1.55,-0.81,0.88,
1.66,0.00,-0.13,1.08,1.55,-0.81,0.88,
1.66,0.00,-0.13,1.08,1.67,-0.78,0.75,
1.663,0.01,-0.13,1.08,1.67,-0.78,0.75,
1.665,0.01,-0.13,1.08,1.67,-0.78,0.75,
1.665,0.01,-0.13,1.08,1.76,-0.77,0.76,
1.668,0.01,-0.13,1.08,1.76,-0.77,0.76,
1.67,0.01,-0.13,1.08,1.82,-0.75,0.81,
1.67,0.01,-0.12,1.09,1.82,-0.75,0.81,
1.672,0.02,-0.13,1.09,1.82,-0.75,0.81,
1.675,0.02,-0.12,1.08,1.82,-0.75,0.81,
1.675,0.02,-0.12,1.08,1.86,-0.75,0.87,
1.676,0.02,-0.12,1.09,1.86,-0.75,0.87,
1.68,0.02,-0.12,1.09,1.86,-0.75,0.87,
1.68,0.02,-0.12,1.09,1.90,-0.75,0.85,
1.682,0.02,-0.12,1.09,1.90,-0.75,0.85,
1.685,0.02,-0.12,1.10,1.90,-0.75,0.85,
1.685,0.02,-0.12,1.10,1.91,-0.75,0.89,
1.687,0.02,-0.12,1.09,1.91,-0.75,0.89,
1.689,0.02,-0.12,1.09,1.91,-0.75,0.89,
1.69,0.02,-0.12,1.09,1.90,-0.74,0.93,
1.691,0.01,-0.11,1.09,1.90,-0.74,0.93,
1.695,0.01,-0.11,1.09,1.88,-0.71,0.93,
1.695,0.01,-0.11,1.10,1.88,-0.71,0.93,
1.697,0.01,-0.10,1.09,1.88,-0.71,0.93,
1.701,0.01,-0.10,1.09,1.88,-0.71,0.93,
1.701,0.01,-0.10,1.09,1.86,-0.68,0.94,
1.701,0.01,-0.09,1.08,1.86,-0.68,0.94,
1.704,0.01,-0.09,1.08,1.82,-0.60,0.90,
1.704,0.02,-0.09,1.08,1.82,-0.60,0.90,
1.707,0.01,-0.09,1.08,1.82,-0.60,0.90,
1.709,0.00,-0.08,1.08,1.82,-0.60,0.90,
1.709,0.00,-0.08,1.08,1.84,-0.55,0.79,
1.712,0.01,-0.08,1.08,1.84,-0.55,0.79,
1.714,0.01,-0.07,1.06,1.84,-0.55,0.79,
1.715,0.01,-0.07,1.06,1.79,-0.47,0.78,
1.716,0.00,-0.07,1.05,1.79,-0.47,0.78,
1.719,0.00,-0.07,1.05,1.81,-0.43,0.65,
1.719,-0.00,-0.07,1.05,1.81,-0.43,0.65,
1.722,-0.01,-0.07,1.04,1.81,-0.43,0.65,
1.725,-0.01,-0.07,1.03,1.81,-0.43,0.65,
1.725,-0.01,-0.07,1.03,1.69,-0.38,0.46,
1.727,-0.02,-0.06,1.02,1.69,-0.38,0.46,
1.73,-0.01,-0.06,1.02,1.69,-0.38,0.46,
1.73,-0.01,-0.06,1.02,1.60,-0.36,0.38,
1.731,-0.02,-0.05,1.01,1.60,-0.36,0.38,
1.737,-0.01,-0.05,1.01,1.60,-0.36,0.38,
1.738,-0.01,-0.05,1.01,1.52,-0.29,0.19,
1.738,-0.02,-0.04,1.01,1.52,-0.29,0.19,
1.739,-0.02,-0.04,1.00,1.52,-0.29,0.19,
1.739,-0.02,-0.04,1.00,1.51,-0.24,0.10,
1.741,-0.02,-0.04,1.00,1.51,-0.24,0.10,
1.744,-0.02,-0.04,1.00,1.46,-0.16,0.00,
1.744,-0.02,-0.04,0.99,1.46,-0.16,0.00,
1.746,-0.02,-0.04,0.99,1.46,-0.16,0.00,
1.749,-0.02,-0.03,0.99,1.46,-0.16,0.00,
1.749,-0.02,-0.03,0.99,1.43,-0.13,-0.04,
1.752,-0.01,-0.03,0.98,1.43,-0.13,-0.04,
1.754,-0.01,-0.03,0.98,1.43,-0.13,-0.04,
1.754,-0.01,-0.03,0.98,1.39,-0.11,-0.14,
1.757,-0.01,-0.03,0.98,1.39,-0.11,-0.14,
1.759,-0.00,-0.03,0.99,1.39,-0.11,-0.14,
1.76,-0.00,-0.03,0.99,1.40,-0.08,-0.19,
1.761,0.00,-0.04,0.98,1.40,-0.08,-0.19,
1.764,0.00,-0.04,0.99,1.40,-0.08,-0.19,
1.764,0.00,-0.04,0.99,1.45,-0.08,-0.19,
1.766,0.01,-0.04,1.00,1.45,-0.08,-0.19,
1.769,0.01,-0.04,1.00,1.48,-0.13,-0.19,
1.77,0.01,-0.04,1.00,1.48,-0.13,-0.19,
1.771,0.01,-0.04,1.01,1.48,-0.13,-0.19,
1.774,0.01,-0.04,1.02,1.48,-0.13,-0.19,
1.774,0.01,-0.04,1.02,1.53,-0.19,-0.04,
1.775,0.02,-0.04,1.03,1.53,-0.19,-0.04,
1.779,0.02,-0.04,1.04,1.53,-0.19,-0.04,
1.779,0.02,-0.04,1.04,1.52,-0.17,0.13,
1.78,0.02,-0.04,1.05,1.52,-0.17,0.13,
1.783,0.02,-0.04,1.05,1.52,-0.17,0.13,
1.784,0.02,-0.04,1.05,1.54,-0.15,0.28,
1.786,0.01,-0.04,1.06,1.54,-0.15,0.28,
1.788,0.01,-0.04,1.07,1.54,-0.15,0.28,
1.789,0.01,-0.04,1.07,1.53,-0.16,0.40,
1.791,0.00,-0.04,1.08,1.53,-0.16,0.40,
1.794,0.00,-0.04,1.08,1.42,-0.17,0.57,
1.794,-0.00,-0.04,1.08,1.42,-0.17,0.57,
1.796,-0.01,-0.04,1.09,1.42,-0.17,0.57,
1.799,-0.01,-0.04,1.09,1.42,-0.17,0.57,
1.799,-0.01,-0.04,1.09,1.33,-0.19,0.73,
1.801,-0.01,-0.04,1.09,1.33,-0.19,0.73,
1.804,-0.02,-0.03,1.10,1.33,-0.19,0.73,
1.804,-0.02,-0.03,1.10,1.24,-0.21,0.79,
1.806,-0.02,-0.03,1.10,1.24,-0.21,0.79,
1.808,-0.02,-0.03,1.09,1.24,-0.21,0.79,
1.808,-0.02,-0.03,1.09,1.15,-0.17,0.86,
1.811,-0.02,-0.03,1.09,1.15,-0.17,0.86,
1.813,-0.03,-0.03,1.09,1.15,-0.17,0.86,
1.813,-0.03,-0.03,1.09,1.11,-0.14,0.86,
1.815,-0.03,-0.03,1.09,1.11,-0.14,0.86,
1.82,-0.03,-0.03,1.09,1.05,-0.12,0.83,
1.821,-0.03,-0.02,1.08,1.05,-0.12,0.83,
1.821,-0.04,-0.02,1.07,1.05,-0.12,0.83,
1.823,-0.04,-0.02,1.06,1.05,-0.12,0.83,
1.823,-0.04,-0.02,1.06,0.97,-0.11,0.75,
1.825,-0.04,-0.01,1.05,0.97,-0.11,0.75,
1.828,-0.04,-0.01,1.03,0.97,-0.11,0.75,
1.828,-0.04,-0.01,1.03,0.90,-0.08,0.55,
1.83,-0.04,-0.02,1.01,0.90,-0.08,0.55,
1.833,-0.04,-0.01,1.01,0.90,-0.08,0.55,
1.833,-0.04,-0.01,1.01,0.87,-0.05,0.29,
1.84,-0.04,-0.01,0.99,0.87,-0.05,0.29,
1.84,-0.03,-0.01,0.97,0.87,-0.05,0.29,
1.841,-0.03,-0.01,0.97,0.83,-0.11,0.01,
1.841,-0.03,-0.00,0.96,0.83,-0.11,0.01,
1.844,-0.03,-0.00,0.96,0.85,-0.07,-0.26,
1.844,-0.03,-0.00,0.95,0.85,-0.07,-0.26,
1.845,-0.02,-0.00,0.94,0.85,-0.07,-0.26,
1.847,-0.02,-0.00,0.93,0.85,-0.07,-0.26,
1.848,-0.02,-0.00,0.93,0.93,-0.03,-0.49,
1.853,-0.02,0.00,0.93,0.93,-0.03,-0.49,
1.854,-0.01,-0.00,0.92,0.93,-0.03,-0.49,
1.854,-0.01,-0.00,0.92,0.97,-0.06,-0.72,
1.855,-0.00,-0.00,0.92,0.97,-0.06,-0.72,
1.858,0.00,-0.01,0.91,0.97,-0.06,-0.72,
1.858,0.00,-0.01,0.91,1.02,-0.06,-0.82,
1.859,0.00,-0.01,0.91,1.02,-0.06,-0.82,
1.862,0.02,-0.02,0.91,1.02,-0.06,-0.82,
1.863,0.02,-0.02,0.91,1.12,-0.15,-0.94,
1.865,0.02,-0.02,0.91,1.12,-0.15,-0.94,
1.87,0.02,-0.02,0.91,1.18,-0.24,-1.00,
1.871,0.02,-0.02,0.91,1.18,-0.24,-1.00,
1.871,0.02,-0.02,0.91,1.18,-0.24,-1.00,
1.872,0.03,-0.02,0.92,1.18,-0.24,-1.00,
1.872,0.03,-0.02,0.92,1.25,-0.29,-0.95,
1.874,0.04,-0.02,0.91,1.25,-0.29,-0.95,
1.877,0.03,-0.02,0.91,1.25,-0.29,-0.95,
1.877,0.03,-0.02,0.91,1.29,-0.34,-0.93,
1.88,0.04,-0.02,0.92,1.29,-0.34,-0.93,
1.882,0.04,-0.02,0.92,1.29,-0.34,-0.93,
1.882,0.04,-0.02,0.92,1.36,-0.35,-0.95,
1.887,0.04,-0.02,0.93,1.36,-0.35,-0.95,
1.888,0.04,-0.03,0.93,1.36,-0.35,-0.95,
1.888,0.04,-0.03,0.93,1.34,-0.36,-0.89,
1.89,0.04,-0.03,0.93,1.34,-0.36,-0.89,
1.892,0.04,-0.03,0.93,1.32,-0.40,-0.81,
1.892,0.04,-0.03,0.94,1.32,-0.40,-0.81,
1.894,0.03,-0.03,0.95,1.32,-0.40,-0.81,
1.898,0.04,-0.04,0.94,1.32,-0.40,-0.81,
1.899,0.04,-0.04,0.94,1.29,-0.46,-0.73,
1.899,0.04,-0.04,0.95,1.29,-0.46,-0.73,
1.902,0.04,-0.04,0.97,1.29,-0.46,-0.73,
1.902,0.04,-0.04,0.97,1.23,-0.51,-0.61,
1.904,0.04,-0.04,0.97,1.23,-0.51,-0.61,
1.908,0.04,-0.04,0.97,1.23,-0.51,-0.61,
1.908,0.04,-0.04,0.97,1.24,-0.55,-0.49,
1.909,0.03,-0.04,0.98,1.24,-0.55,-0.49,
1.913,0.03,-0.04,0.98,1.24,-0.55,-0.49,
1.913,0.03,-0.04,0.98,1.20,-0.56,-0.42,
1.915,0.04,-0.04,0.98,1.20,-0.56,-0.42,
1.922,0.04,-0.04,0.98,1.13,-0.55,-0.29,
1.923,0.04,-0.04,0.99,1.13,-0.55,-0.29,
1.923,0.04,-0.03,0.99,1.13,-0.55,-0.29,
1.924,0.04,-0.03,0.99,1.13,-0.55,-0.29,
1.924,0.04,-0.03,0.99,1.15,-0.56,-0.26,
1.924,0.03,-0.03,1.00,1.15,-0.56,-0.26,
1.927,0.03,-0.03,1.00,1.15,-0.56,-0.26,
1.927,0.03,-0.03,1.00,1.13,-0.50,-0.23,
1.929,0.03,-0.03,1.00,1.13,-0.50,-0.23,
1.933,0.03,-0.02,1.00,1.13,-0.50,-0.23,
1.933,0.03,-0.02,1.00,1.06,-0.48,-0.11,
1.935,0.02,-0.02,1.00,1.06,-0.48,-0.11,
1.937,0.02,-0.03,0.99,1.06,-0.48,-0.11,
1.937,0.02,-0.03,0.99,1.00,-0.44,-0.11,
1.939,0.02,-0.03,0.99,1.00,-0.44,-0.11,
1.943,0.02,-0.03,0.99,0.91,-0.42,-0.11,
1.943,0.02,-0.03,1.00,0.91,-0.42,-0.11,
1.944,0.02,-0.02,1.00,0.91,-0.42,-0.11,
1.947,0.02,-0.02,1.00,0.91,-0.42,-0.11,
1.948,0.02,-0.02,1.00,0.86,-0.44,-0.13,
1.95,0.02,-0.03,0.99,0.86,-0.44,-0.13,
1.952,0.02,-0.03,1.00,0.86,-0.44,-0.13,
1.953,0.02,-0.03,1.00,0.82,-0.42,-0.11,
1.954,0.02,-0.02,1.00,0.82,-0.42,-0.11,
1.957,0.02,-0.02,1.00,0.82,-0.42,-0.11,
1.957,0.02,-0.02,1.00,0.76,-0.44,-0.15,
1.959,0.02,-0.02,1.00,0.76,-0.44,-0.15,
1.962,0.02,-0.02,1.00,0.76,-0.44,-0.15,
1.962,0.02,-0.02,1.00,0.75,-0.42,-0.14,
1.964,0.03,-0.03,1.01,0.75,-0.42,-0.14,
1.969,0.03,-0.03,1.01,0.73,-0.42,-0.11,
1.97,0.03,-0.02,1.01,0.73,-0.42,-0.11,
1.97,0.03,-0.02,1.01,0.73,-0.42,-0.11,
1.972,0.03,-0.02,1.00,0.73,-0.42,-0.11,
1.972,0.03,-0.02,1.00,0.74,-0.42,-0.04,
1.974,0.03,-0.02,1.01,0.74,-0.42,-0.04,
1.978,0.03,-0.02,1.01,0.76,-0.40,-0.06,
1.978,0.03,-0.03,1.01,0.76,-0.40,-0.06,
1.979,0.03,-0.03,1.01,0.76,-0.40,-0.06,
1.982,0.03,-0.03,1.01,0.76,-0.40,-0.06,
1.982,0.03,-0.03,1.01,0.73,-0.45,-0.04,
1.984,0.03,-0.03,1.00,0.73,-0.45,-0.04,
1.987,0.03,-0.03,1.00,0.67,-0.49,-0.04,
1.987,0.03,-0.03,1.01,0.67,-0.49,-0.04,
1.988,0.03,-0.03,1.00,0.67,-0.49,-0.04,
1.992,0.03,-0.03,1.00,0.61,-0.54,-0.07,
1.992,0.03,-0.03,0.99,0.61,-0.54,-0.07,
1.994,0.03,-0.03,0.99,0.61,-0.54,-0.07,
1.997,0.03,-0.03,0.99,0.61,-0.54,-0.07,
1.997,0.03,-0.03,0.99,0.58,-0.55,-0.15,
1.998,0.03,-0.03,0.99,0.58,-0.55,-0.15,
2.002,0.03,-0.03,0.99,0.56,-0.58,-0.21,
2.002,0.02,-0.02,0.99,0.56,-0.58,-0.21,
2.004,0.02,-0.02,0.99,0.56,-0.58,-0.21,
2.007,0.02,-0.02,0.99,0.49,-0.51,-0.21,
2.007,0.03,-0.02,0.98,0.49,-0.51,-0.21,
2.009,0.03,-0.01,0.97,0.49,-0.51,-0.21,
2.011,0.02,-0.01,0.97,0.49,-0.51,-0.21,
2.012,0.02,-0.01,0.97,0.48,-0.48,-0.28,
2.014,0.02,-0.01,0.97,0.48,-0.48,-0.28,
2.016,0.02,-0.01,0.97,0.45,-0.43,-0.43,
2.017,0.02,-0.01,0.97,0.45,-0.43,-0.43,
2.018,0.02,-0.01,0.97,0.45,-0.43,-0.43,
2.021,0.02,-0.01,0.97,0.45,-0.43,-0.43,
2.021,0.02,-0.01,0.97,0.39,-0.42,-0.42,
2.024,0.02,-0.01,0.96,0.39,-0.42,-0.42,
2.027,0.01,-0.01,0.96,0.39,-0.42,-0.42,
2.027,0.01,-0.01,0.96,0.36,-0.44,-0.45,
2.029,0.01,-0.01,0.96,0.36,-0.44,-0.45,
2.031,0.01,-0.01,0.96,0.29,-0.47,-0.50,
2.032,0.01,-0.01,0.96,0.29,-0.47,-0.50,
2.034,0.00,-0.01,0.95,0.29,-0.47,-0.50,
2.039,-0.00,-0.01,0.95,0.29,-0.47,-0.50,
2.04,-0.00,-0.01,0.95,0.20,-0.45,-0.53,
2.04,-0.01,-0.02,0.95,0.20,-0.45,-0.53,
2.041,-0.01,-0.02,0.95,0.12,-0.49,-0.60,
2.041,-0.01,-0.02,0.94,0.12,-0.49,-0.60,
2.044,-0.01,-0.02,0.93,0.12,-0.49,-0.60,
2.046,-0.01,-0.03,0.93,0.12,-0.49,-0.60,
2.046,-0.01,-0.03,0.93,0.02,-0.59,-0.65,
2.049,-0.01,-0.03,0.93,0.02,-0.59,-0.65,
2.051,-0.01,-0.02,0.93,0.02,-0.59,-0.65,
2.052,-0.01,-0.02,0.93,-0.00,-0.70,-0.76,
2.054,-0.00,-0.03,0.92,-0.00,-0.70,-0.76,
2.057,0.00,-0.02,0.92,-0.00,-0.70,-0.76,
2.057,0.00,-0.02,0.92,-0.02,-0.71,-0.81,
2.058,0.01,-0.02,0.92,-0.02,-0.71,-0.81,
2.061,0.01,-0.02,0.92,0.04,-0.71,-0.85,
2.062,0.01,-0.02,0.92,0.04,-0.71,-0.85,
2.063,0.02,-0.01,0.93,0.04,-0.71,-0.85,
2.066,0.02,-0.01,0.93,0.15,-0.68,-0.86,
2.066,0.02,-0.01,0.93,0.15,-0.68,-0.86,
2.07,0.03,-0.01,0.93,0.15,-0.68,-0.86,
2.071,0.03,-0.00,0.93,0.15,-0.68,-0.86,
2.071,0.03,-0.00,0.93,0.20,-0.63,-0.82,
2.073,0.04,-0.01,0.93,0.20,-0.63,-0.82,
2.076,0.04,-0.01,0.94,0.20,-0.63,-0.82,
2.076,0.04,-0.01,0.94,0.28,-0.57,-0.75,
2.078,0.04,-0.00,0.95,0.28,-0.57,-0.75,
2.081,0.05,0.00,0.95,0.28,-0.57,-0.75,
2.081,0.05,0.00,0.95,0.37,-0.59,-0.72,
2.083,0.05,-0.00,0.95,0.37,-0.59,-0.72,
2.087,0.05,-0.00,0.95,0.37,-0.59,-0.72,
2.087,0.05,-0.00,0.95,0.44,-0.53,-0.59,
2.087,0.06,0.00,0.95,0.44,-0.53,-0.59,
2.09,0.06,0.00,0.95,0.46,-0.56,-0.56,
2.091,0.07,-0.00,0.96,0.46,-0.56,-0.56,
2.093,0.07,-0.00,0.97,0.46,-0.56,-0.56,
2.096,0.07,-0.00,0.97,0.46,-0.56,-0.56,
2.096,0.07,-0.00,0.97,0.55,-0.56,-0.51,
2.098,0.07,-0.00,0.97,0.55,-0.56,-0.51,
2.1,0.08,-0.00,0.98,0.55,-0.56,-0.51,
2.1,0.08,-0.00,0.98,0.58,-0.59,-0.38,
2.103,0.07,-0.00,0.98,0.58,-0.59,-0.38,
2.105,0.08,-0.00,0.98,0.58,-0.59,-0.38,
2.105,0.08,-0.00,0.98,0.62,-0.58,-0.33,
2.108,0.08,-0.01,0.99,0.62,-0.58,-0.33,
2.111,0.08,-0.01,0.98,0.62,-0.58,-0.33,
2.111,0.08,-0.01,0.98,0.60,-0.62,-0.30,
2.113,0.08,-0.01,0.97,0.60,-0.62,-0.30,
2.115,0.08,-0.01,0.97,0.63,-0.68,-0.24,
2.116,0.08,-0.01,0.98,0.63,-0.68,-0.24,
2.118,0.08,-0.01,0.97,0.63,-0.68,-0.24,
2.12,0.08,-0.01,0.96,0.63,-0.68,-0.24,
2.12,0.08,-0.01,0.96,0.63,-0.70,-0.31,
2.122,0.08,-0.00,0.96,0.63,-0.70,-0.31,
2.125,0.08,-0.00,0.96,0.62,-0.70,-0.40,
2.126,0.08,0.01,0.95,0.62,-0.70,-0.40,
2.128,0.08,0.01,0.94,0.62,-0.70,-0.40,
2.13,0.08,0.01,0.94,0.59,-0.62,-0.51,
2.13,0.07,0.01,0.94,0.59,-0.62,-0.51,
2.132,0.07,0.02,0.93,0.59,-0.62,-0.51,
2.14,0.07,0.03,0.93,0.59,-0.62,-0.51,
2.141,0.07,0.03,0.93,0.50,-0.57,-0.63,
2.141,0.07,0.03,0.92,0.50,-0.57,-0.63,
2.141,0.07,0.03,0.92,0.46,-0.46,-0.72,
2.144,0.06,0.03,0.92,0.46,-0.46,-0.72,
2.145,0.06,0.04,0.91,0.46,-0.46,-0.72,
2.145,0.05,0.04,0.91,0.46,-0.46,-0.72,
2.145,0.05,0.04,0.91,0.38,-0.40,-0.83,
2.147,0.05,0.05,0.90,0.38,-0.40,-0.83,
2.15,0.05,0.05,0.90,0.38,-0.40,-0.83,
2.15,0.05,0.05,0.90,0.28,-0.32,-0.92,
2.153,0.04,0.06,0.90,0.28,-0.32,-0.92,
2.155,0.04,0.06,0.90,0.28,-0.32,-0.92,
2.155,0.04,0.06,0.90,0.19,-0.22,-1.00,
2.157,0.04,0.06,0.89,0.19,-0.22,-1.00,
2.16,0.04,0.05,0.89,0.19,-0.22,-1.00,
2.16,0.04,0.05,0.89,0.13,-0.16,-1.02,
2.162,0.04,0.05,0.89,0.13,-0.16,-1.02,
2.165,0.04,0.05,0.89,0.13,-0.21,-1.06,
2.165,0.05,0.06,0.89,0.13,-0.21,-1.06,
2.167,0.06,0.05,0.89,0.13,-0.21,-1.06,
2.17,0.06,0.05,0.89,0.13,-0.21,-1.06,
2.171,0.06,0.05,0.89,0.14,-0.23,-1.05,
2.172,0.07,0.05,0.89,0.14,-0.23,-1.05,
2.174,0.08,0.05,0.90,0.14,-0.23,-1.05,
2.175,0.08,0.05,0.90,0.25,-0.26,-1.06,
2.177,0.08,0.04,0.90,0.25,-0.26,-1.06,
2.18,0.08,0.04,0.89,0.25,-0.26,-1.06,
2.18,0.08,0.04,0.89,0.37,-0.32,-1.00,
2.182,0.09,0.04,0.89,0.37,-0.32,-1.00,
2.185,0.09,0.04,0.90,0.37,-0.32,-1.00,
2.185,0.09,0.04,0.90,0.44,-0.38,-0.98,
2.187,0.09,0.03,0.89,0.44,-0.38,-0.98,
2.189,0.09,0.02,0.88,0.44,-0.38,-0.98,
2.189,0.09,0.02,0.88,0.50,-0.44,-0.98,
2.192,0.08,0.02,0.88,0.50,-0.44,-0.98,
2.195,0.08,0.01,0.87,0.50,-0.44,-0.98,
2.195,0.08,0.01,0.87,0.47,-0.55,-1.04,
2.197,0.08,0.00,0.87,0.47,-0.55,-1.04,
2.2,0.08,-0.00,0.87,0.47,-0.55,-1.04,
2.2,0.08,-0.00,0.87,0.41,-0.72,-1.15,
2.202,0.08,-0.00,0.86,0.41,-0.72,-1.15,
2.204,0.09,0.00,0.86,0.41,-0.72,-1.15,
2.205,0.09,0.00,0.86,0.37,-0.84,-1.19,
2.206,0.09,-0.00,0.86,0.37,-0.84,-1.19,
2.209,0.09,0.01,0.86,0.37,-0.84,-1.19,
2.21,0.09,0.01,0.86,0.42,-0.85,-1.27,
2.212,0.09,0.01,0.87,0.42,-0.85,-1.27,
2.215,0.09,0.01,0.87,0.47,-0.83,-1.24,
2.215,0.09,0.01,0.87,0.47,-0.83,-1.24,
2.217,0.09,0.01,0.87,0.47,-0.83,-1.24,
2.221,0.09,0.02,0.88,0.47,-0.83,-1.24,
2.221,0.09,0.02,0.88,0.45,-0.74,-1.18,
2.222,0.08,0.02,0.88,0.45,-0.74,-1.18,
2.225,0.08,0.02,0.88,0.45,-0.74,-1.18,
2.225,0.08,0.02,0.88,0.44,-0.69,-1.10,
2.227,0.09,0.02,0.88,0.44,-0.69,-1.10,
2.229,0.08,0.02,0.89,0.44,-0.69,-1.10,
2.23,0.08,0.02,0.89,0.39,-0.67,-1.01,
2.232,0.08,0.02,0.89,0.39,-0.67,-1.01,
2.234,0.08,0.02,0.89,0.39,-0.67,-1.01,
2.234,0.08,0.02,0.89,0.39,-0.67,-0.98,
2.237,0.08,0.02,0.90,0.39,-0.67,-0.98,
2.239,0.08,0.02,0.90,0.33,-0.67,-0.90,
2.239,0.08,0.02,0.90,0.33,-0.67,-0.90,
2.242,0.08,0.02,0.91,0.33,-0.67,-0.90,
2.244,0.08,0.01,0.91,0.33,-0.67,-0.90,
2.245,0.08,0.01,0.91,0.34,-0.64,-0.84,
2.246,0.08,0.02,0.91,0.34,-0.64,-0.84,
2.249,0.07,0.02,0.92,0.34,-0.64,-0.84,
2.25,0.07,0.02,0.92,0.31,-0.69,-0.74,
2.251,0.07,0.02,0.92,0.31,-0.69,-0.74,
2.253,0.07,0.02,0.92,0.31,-0.69,-0.74,
2.254,0.07,0.02,0.92,0.23,-0.66,-0.66,
2.256,0.07,0.02,0.93,0.23,-0.66,-0.66,
2.258,0.07,0.03,0.93,0.23,-0.66,-0.66,
2.259,0.07,0.03,0.93,0.20,-0.63,-0.62,
2.26,0.07,0.03,0.93,0.20,-0.63,-0.62,
2.263,0.07,0.03,0.93,0.17,-0.61,-0.51,
2.263,0.06,0.03,0.94,0.17,-0.61,-0.51,
2.265,0.07,0.03,0.94,0.17,-0.61,-0.51,
2.268,0.07,0.03,0.94,0.17,-0.61,-0.51,
2.268,0.07,0.03,0.94,0.13,-0.58,-0.44,
2.275,0.07,0.04,0.95,0.13,-0.58,-0.44,
2.276,0.07,0.04,0.95,0.13,-0.58,-0.44,
2.276,0.07,0.04,0.95,0.14,-0.56,-0.38,
2.276,0.06,0.04,0.94,0.14,-0.56,-0.38,
2.279,0.06,0.05,0.94,0.14,-0.56,-0.38,
2.279,0.06,0.05,0.94,0.12,-0.45,-0.29,
2.28,0.06,0.04,0.94,0.12,-0.45,-0.29,
2.283,0.05,0.04,0.94,0.12,-0.45,-0.29,
2.283,0.05,0.04,0.94,0.08,-0.41,-0.35,
2.287,0.04,0.04,0.94,0.08,-0.41,-0.35,
2.289,0.04,0.04,0.94,-0.01,-0.42,-0.36,
2.29,0.04,0.03,0.94,-0.01,-0.42,-0.36,
2.293,0.03,0.02,0.94,-0.01,-0.42,-0.36,
2.293,0.03,0.02,0.93,-0.01,-0.42,-0.36,
2.293,0.03,0.02,0.93,-0.14,-0.49,-0.39,
2.295,0.03,0.02,0.93,-0.14,-0.49,-0.39,
2.298,0.03,0.01,0.94,-0.14,-0.49,-0.39,
2.298,0.03,0.01,0.94,-0.22,-0.61,-0.42,
2.3,0.03,0.01,0.93,-0.22,-0.61,-0.42,
2.304,0.03,0.01,0.93,-0.22,-0.61,-0.42,
2.304,0.03,0.01,0.93,-0.24,-0.70,-0.43,
2.307,0.03,0.02,0.94,-0.24,-0.70,-0.43,
2.308,0.03,0.02,0.94,-0.24,-0.70,-0.43,
2.309,0.03,0.02,0.94,-0.23,-0.71,-0.46,
2.31,0.03,0.02,0.95,-0.23,-0.71,-0.46,
2.313,0.03,0.02,0.95,-0.22,-0.63,-0.34,
2.313,0.03,0.03,0.95,-0.22,-0.63,-0.34,
2.315,0.03,0.03,0.96,-0.22,-0.63,-0.34,
2.318,0.03,0.03,0.97,-0.22,-0.63,-0.34,
2.318,0.03,0.03,0.97,-0.20,-0.58,-0.26,
2.321,0.03,0.02,0.97,-0.20,-0.58,-0.26,
2.323,0.02,0.02,0.98,-0.20,-0.58,-0.26,
2.323,0.02,0.02,0.98,-0.24,-0.58,-0.11,
2.325,0.02,0.02,0.97,-0.24,-0.58,-0.11,
2.328,0.03,0.02,0.97,-0.24,-0.58,-0.11,
2.328,0.03,0.02,0.97,-0.25,-0.61,-0.02,
2.33,0.02,0.02,0.98,-0.25,-0.61,-0.02,
2.333,0.02,0.03,0.98,-0.25,-0.61,-0.02,
2.333,0.02,0.03,0.98,-0.28,-0.61,-0.09,
2.335,0.02,0.03,0.98,-0.28,-0.61,-0.09,
2.339,0.02,0.03,0.98,-0.32,-0.58,0.02,
2.34,0.01,0.04,0.98,-0.32,-0.58,0.02,
2.34,0.01,0.04,0.98,-0.32,-0.58,0.02,
2.343,0.01,0.04,0.98,-0.32,-0.58,0.02,
2.343,0.01,0.04,0.98,-0.37,-0.51,-0.00,
2.345,0.01,0.04,0.98,-0.37,-0.51,-0.00,
2.349,0.01,0.04,0.99,-0.37,-0.51,-0.00,
2.349,0.01,0.04,0.99,-0.42,-0.41,0.01,
2.35,0.01,0.04,0.98,-0.42,-0.41,0.01,
2.353,0.01,0.04,0.98,-0.42,-0.41,0.01,
2.353,0.01,0.04,0.98,-0.40,-0.40,0.06,
2.355,0.01,0.04,0.98,-0.40,-0.40,0.06,
2.358,0.01,0.05,0.98,-0.40,-0.40,0.06,
2.358,0.01,0.05,0.98,-0.40,-0.44,0.06,
2.36,0.00,0.05,0.98,-0.40,-0.44,0.06,
2.363,0.00,0.05,0.98,-0.41,-0.36,0.06,
2.363,0.01,0.06,0.99,-0.41,-0.36,0.06,
2.365,0.01,0.06,0.98,-0.41,-0.36,0.06,
2.368,0.00,0.06,0.99,-0.41,-0.36,0.06,
2.368,0.00,0.06,0.99,-0.42,-0.29,0.07,
2.369,0.00,0.06,0.99,-0.42,-0.29,0.07,
2.374,0.00,0.07,0.99,-0.42,-0.29,0.07,
2.374,0.00,0.07,0.99,-0.42,-0.25,0.08,
2.375,0.00,0.08,0.99,-0.42,-0.25,0.08,
2.377,0.01,0.08,0.99,-0.42,-0.25,0.08,
2.377,0.01,0.08,0.99,-0.44,-0.18,0.11,
2.38,0.01,0.08,1.00,-0.44,-0.18,0.11,
2.383,0.01,0.09,1.00,-0.44,-0.18,0.11,
2.384,0.01,0.09,1.00,-0.41,-0.07,0.15,
2.385,0.01,0.09,0.99,-0.41,-0.07,0.15,
2.388,0.01,0.09,0.99,-0.33,-0.02,0.18,
2.388,0.01,0.09,0.99,-0.33,-0.02,0.18,
2.389,0.01,0.10,0.98,-0.33,-0.02,0.18,
2.393,0.01,0.10,0.98,-0.33,-0.02,0.18,
2.393,0.01,0.10,0.98,-0.35,0.04,0.13,
2.395,0.00,0.10,0.97,-0.35,0.04,0.13,
2.398,-0.00,0.10,0.97,-0.35,0.04,0.13,
2.398,-0.00,0.10,0.97,-0.40,0.11,0.03,
2.4,-0.01,0.10,0.97,-0.40,0.11,0.03,
2.403,-0.01,0.10,0.96,-0.40,0.11,0.03,
2.403,-0.01,0.10,0.96,-0.49,0.10,-0.04,
2.405,-0.02,0.11,0.95,-0.49,0.10,-0.04,
2.407,-0.02,0.11,0.95,-0.49,0.10,-0.04,
2.407,-0.02,0.11,0.95,-0.57,0.13,-0.11,
2.409,-0.03,0.11,0.94,-0.57,0.13,-0.11,
2.412,-0.03,0.11,0.94,-0.69,0.18,-0.25,
2.413,-0.03,0.12,0.94,-0.69,0.18,-0.25,
2.415,-0.03,0.12,0.93,-0.69,0.18,-0.25,
2.417,-0.04,0.12,0.92,-0.69,0.18,-0.25,
2.418,-0.04,0.12,0.92,-0.78,0.24,-0.35,
2.42,-0.04,0.13,0.92,-0.78,0.24,-0.35,
2.422,-0.05,0.13,0.91,-0.78,0.24,-0.35,
2.422,-0.05,0.13,0.91,-0.83,0.27,-0.46,
2.424,-0.05,0.13,0.90,-0.83,0.27,-0.46,
2.427,-0.05,0.13,0.90,-0.91,0.33,-0.58,
2.428,-0.05,0.13,0.90,-0.91,0.33,-0.58,
2.43,-0.05,0.12,0.90,-0.91,0.33,-0.58,
2.432,-0.05,0.13,0.89,-0.91,0.33,-0.58,
2.433,-0.05,0.13,0.89,-0.93,0.33,-0.70,
2.434,-0.06,0.12,0.89,-0.93,0.33,-0.70,
2.438,-0.06,0.12,0.89,-0.98,0.29,-0.78,
2.439,-0.06,0.12,0.88,-0.98,0.29,-0.78,
2.439,-0.06,0.11,0.87,-0.98,0.29,-0.78,
2.442,-0.06,0.11,0.87,-1.04,0.21,-0.89,
2.443,-0.06,0.11,0.87,-1.04,0.21,-0.89,
2.445,-0.06,0.10,0.88,-1.04,0.21,-0.89,
2.447,-0.06,0.10,0.88,-1.04,0.12,-0.96,
2.448,-0.06,0.10,0.88,-1.04,0.12,-0.96,
2.449,-0.05,0.09,0.88,-1.04,0.12,-0.96,
2.452,-0.05,0.09,0.88,-1.04,0.12,-0.96,
2.452,-0.05,0.09,0.88,-1.00,0.02,-0.89,
2.455,-0.05,0.09,0.89,-1.00,0.02,-0.89,
2.457,-0.05,0.09,0.90,-1.00,0.02,-0.89,
2.457,-0.05,0.09,0.90,-0.93,-0.04,-0.88,
2.459,-0.05,0.09,0.90,-0.93,-0.04,-0.88,
2.462,-0.05,0.09,0.90,-0.87,-0.09,-0.76,
2.462,-0.05,0.09,0.91,-0.87,-0.09,-0.76,
2.464,-0.04,0.08,0.92,-0.87,-0.09,-0.76,
2.467,-0.04,0.08,0.92,-0.87,-0.09,-0.76,
2.467,-0.04,0.08,0.92,-0.85,-0.11,-0.61,
2.469,-0.05,0.09,0.93,-0.85,-0.11,-0.61,
2.472,-0.04,0.08,0.94,-0.85,-0.11,-0.61,
2.472,-0.04,0.08,0.94,-0.81,-0.14,-0.51,
2.478,-0.04,0.08,0.95,-0.81,-0.14,-0.51,
2.479,-0.04,0.08,0.95,-0.81,-0.12,-0.35,
2.479,-0.04,0.08,0.96,-0.81,-0.12,-0.35,
2.479,-0.04,0.08,0.96,-0.81,-0.12,-0.35,
2.482,-0.04,0.08,0.96,-0.80,-0.14,-0.13,
2.483,-0.05,0.08,0.97,-0.80,-0.14,-0.13,
2.483,-0.04,0.08,0.98,-0.80,-0.14,-0.13,
2.487,-0.04,0.08,0.98,-0.80,-0.13,-0.01,
2.487,-0.04,0.08,0.99,-0.80,-0.13,-0.01,
2.489,-0.05,0.09,0.99,-0.80,-0.13,-0.01,
2.491,-0.05,0.08,1.00,-0.80,-0.13,-0.01,
2.491,-0.05,0.08,1.00,-0.77,-0.14,0.16,
2.493,-0.05,0.08,1.00,-0.77,-0.14,0.16,
2.496,-0.06,0.09,1.00,-0.77,-0.14,0.16,
2.496,-0.06,0.09,1.00,-0.82,-0.10,0.29,
2.498,-0.07,0.09,1.00,-0.82,-0.10,0.29,
2.501,-0.07,0.09,1.00,-0.89,-0.10,0.30,
2.501,-0.06,0.09,1.00,-0.89,-0.10,0.30,
2.505,-0.07,0.09,0.99,-0.89,-0.10,0.30,
2.506,-0.08,0.09,0.99,-0.89,-0.10,0.30,
2.506,-0.08,0.09,0.99,-0.96,-0.05,0.32,
2.508,-0.08,0.09,0.99,-0.96,-0.05,0.32,
2.511,-0.08,0.09,0.99,-1.05,-0.03,0.23,
2.511,-0.09,0.10,0.99,-1.05,-0.03,0.23,
2.513,-0.09,0.10,0.99,-1.05,-0.03,0.23,
2.516,-0.10,0.10,0.98,-1.05,-0.03,0.23,
2.516,-0.10,0.10,0.98,-1.15,-0.00,0.22,
2.519,-0.10,0.10,0.98,-1.15,-0.00,0.22,
2.521,-0.10,0.11,0.97,-1.15,-0.00,0.22,
2.522,-0.10,0.11,0.97,-1.22,0.03,0.15,
2.523,-0.11,0.12,0.96,-1.22,0.03,0.15,
2.527,-0.11,0.12,0.95,-1.22,0.03,0.15,
2.527,-0.11,0.12,0.95,-1.27,0.11,0.05,
2.528,-0.12,0.13,0.95,-1.27,0.11,0.05,
2.531,-0.13,0.13,0.94,-1.27,0.11,0.05,
2.531,-0.13,0.13,0.94,-1.33,0.20,-0.14,
2.534,-0.12,0.13,0.93,-1.33,0.20,-0.14,
2.536,-0.13,0.13,0.93,-1.33,0.20,-0.14,
2.536,-0.13,0.13,0.93,-1.44,0.28,-0.23,
2.538,-0.14,0.13,0.92,-1.44,0.28,-0.23,
2.541,-0.14,0.14,0.91,-1.44,0.28,-0.23,
2.541,-0.14,0.14,0.91,-1.46,0.31,-0.38,
2.543,-0.15,0.14,0.91,-1.46,0.31,-0.38,
2.547,-0.15,0.14,0.90,-1.46,0.31,-0.38,
2.547,-0.15,0.14,0.90,-1.57,0.34,-0.51,
2.548,-0.15,0.14,0.90,-1.57,0.34,-0.51,
2.55,-0.15,0.14,0.89,-1.57,0.34,-0.51,
2.551,-0.15,0.14,0.89,-1.67,0.35,-0.64,
2.552,-0.15,0.14,0.89,-1.67,0.35,-0.64,
2.555,-0.15,0.14,0.89,-1.67,0.35,-0.64,
2.556,-0.15,0.14,0.89,-1.67,0.37,-0.74,
2.558,-0.15,0.15,0.89,-1.67,0.37,-0.74,
2.56,-0.14,0.15,0.89,-1.67,0.37,-0.74,
2.561,-0.14,0.15,0.89,-1.64,0.37,-0.74,
2.563,-0.14,0.15,0.89,-1.64,0.37,-0.74,
2.565,-0.14,0.15,0.89,-1.60,0.45,-0.75,
2.566,-0.13,0.16,0.89,-1.60,0.45,-0.75,
2.567,-0.13,0.16,0.89,-1.60,0.45,-0.75,
2.577,-0.12,0.16,0.90,-1.60,0.45,-0.75,
2.578,-0.12,0.16,0.90,-1.51,0.49,-0.76,
2.578,-0.11,0.16,0.89,-1.51,0.49,-0.76,
2.578,-0.10,0.16,0.90,-1.51,0.49,-0.76,
2.578,-0.10,0.16,0.90,-1.35,0.50,-0.72,
2.579,-0.09,0.16,0.90,-1.35,0.50,-0.72,
2.58,-0.09,0.15,0.89,-1.35,0.50,-0.72,
2.58,-0.09,0.15,0.89,-1.20,0.50,-0.72,
2.583,-0.08,0.16,0.90,-1.20,0.50,-0.72,
2.585,-0.08,0.16,0.90,-1.01,0.48,-0.68,
2.585,-0.08,0.15,0.91,-1.01,0.48,-0.68,
2.588,-0.07,0.16,0.91,-1.01,0.48,-0.68,
2.59,-0.06,0.15,0.92,-1.01,0.48,-0.68,
2.59,-0.06,0.15,0.92,-0.90,0.47,-0.59,
2.592,-0.05,0.15,0.92,-0.90,0.47,-0.59,
2.595,-0.05,0.15,0.93,-0.90,0.47,-0.59,
2.595,-0.05,0.15,0.93,-0.75,0.47,-0.52,
2.597,-0.04,0.15,0.93,-0.75,0.47,-0.52,
2.6,-0.04,0.14,0.94,-0.75,0.47,-0.52,
2.6,-0.04,0.14,0.94,-0.62,0.42,-0.41,
2.602,-0.03,0.15,0.94,-0.62,0.42,-0.41,
2.606,-0.03,0.15,0.94,-0.62,0.42,-0.41,
2.607,-0.03,0.15,0.94,-0.50,0.39,-0.30,
2.607,-0.03,0.14,0.95,-0.50,0.39,-0.30,
2.61,-0.03,0.14,0.95,-0.40,0.39,-0.26,
2.61,-0.03,0.15,0.95,-0.40,0.39,-0.26,
2.612,-0.03,0.15,0.94,-0.40,0.39,-0.26,
2.615,-0.03,0.14,0.94,-0.40,0.39,-0.26,
2.615,-0.03,0.14,0.94,-0.36,0.38,-0.19,
2.617,-0.04,0.14,0.94,-0.36,0.38,-0.19,
2.62,-0.04,0.14,0.94,-0.36,0.38,-0.19,
2.62,-0.04,0.14,0.94,-0.35,0.35,-0.24,
2.622,-0.05,0.14,0.94,-0.35,0.35,-0.24,
2.625,-0.05,0.14,0.93,-0.35,0.35,-0.24,
2.625,-0.05,0.14,0.93,-0.43,0.35,-0.24,
2.627,-0.06,0.14,0.93,-0.43,0.35,-0.24,
2.63,-0.06,0.14,0.93,-0.43,0.35,-0.24,
2.63,-0.06,0.14,0.93,-0.52,0.34,-0.32,
2.632,-0.07,0.14,0.93,-0.52,0.34,-0.32,
2.634,-0.07,0.14,0.93,-0.63,0.32,-0.37,
2.637,-0.08,0.14,0.92,-0.63,0.32,-0.37,
2.637,-0.09,0.14,0.93,-0.63,0.32,-0.37,
2.64,-0.09,0.14,0.93,-0.63,0.32,-0.37,
2.641,-0.09,0.14,0.93,-0.78,0.32,-0.40,
2.642,-0.10,0.14,0.92,-0.78,0.32,-0.40,
2.645,-0.10,0.14,0.92,-0.88,0.31,-0.39,
2.645,-0.11,0.14,0.92,-0.88,0.31,-0.39,
2.647,-0.11,0.13,0.92,-0.88,0.31,-0.39,
2.65,-0.11,0.13,0.92,-0.88,0.31,-0.39,
2.65,-0.11,0.13,0.92,-1.00,0.27,-0.44,
2.652,-0.11,0.13,0.93,-1.00,0.27,-0.44,
2.654,-0.12,0.13,0.93,-1.00,0.27,-0.44,
2.655,-0.12,0.13,0.93,-1.08,0.26,-0.43,
2.66,-0.12,0.13,0.93,-1.08,0.26,-0.43,
2.661,-0.12,0.13,0.93,-1.11,0.22,-0.37,
2.661,-0.13,0.13,0.94,-1.11,0.22,-0.37,
2.663,-0.13,0.12,0.94,-1.11,0.22,-0.37,
2.665,-0.13,0.12,0.94,-1.19,0.21,-0.30,
2.665,-0.13,0.12,0.96,-1.19,0.21,-0.30,
2.667,-0.12,0.12,0.96,-1.19,0.21,-0.30,
2.67,-0.13,0.13,0.97,-1.19,0.21,-0.30,
2.67,-0.13,0.13,0.97,-1.19,0.16,-0.17,
2.673,-0.13,0.13,0.97,-1.19,0.16,-0.17,
2.677,-0.13,0.12,0.98,-1.19,0.16,-0.17,
2.677,-0.13,0.12,0.98,-1.17,0.18,-0.04,
2.678,-0.13,0.12,0.99,-1.17,0.18,-0.04,
2.68,-0.13,0.13,0.99,-1.17,0.18,-0.04,
2.68,-0.13,0.13,0.99,-1.19,0.21,0.12,
2.682,-0.13,0.13,1.00,-1.19,0.21,0.12,
2.685,-0.13,0.13,1.00,-1.18,0.20,0.24,
2.685,-0.13,0.13,1.01,-1.18,0.20,0.24,
2.687,-0.13,0.14,1.01,-1.18,0.20,0.24,
2.69,-0.13,0.14,1.01,-1.17,0.25,0.37,
2.69,-0.12,0.14,1.01,-1.17,0.25,0.37,
2.692,-0.12,0.14,1.02,-1.17,0.25,0.37,
2.694,-0.11,0.13,1.02,-1.17,0.25,0.37,
2.695,-0.11,0.13,1.02,-1.14,0.32,0.43,
2.697,-0.12,0.13,1.03,-1.14,0.32,0.43,
2.7,-0.12,0.13,1.03,-1.04,0.31,0.52,
2.7,-0.11,0.13,1.02,-1.04,0.31,0.52,
2.702,-0.10,0.13,1.02,-1.04,0.31,0.52,
2.705,-0.10,0.13,1.02,-1.04,0.31,0.52,
2.705,-0.10,0.13,1.02,-1.01,0.28,0.56,
2.707,-0.09,0.13,1.02,-1.01,0.28,0.56,
2.71,-0.09,0.13,1.02,-0.85,0.25,0.51,
2.71,-0.09,0.12,1.02,-0.85,0.25,0.51,
2.711,-0.08,0.13,1.01,-0.85,0.25,0.51,
2.715,-0.08,0.12,1.01,-0.85,0.25,0.51,
2.715,-0.08,0.12,1.01,-0.76,0.22,0.48,
2.717,-0.07,0.12,1.01,-0.76,0.22,0.48,
2.719,-0.07,0.12,1.01,-0.76,0.22,0.48,
2.72,-0.07,0.12,1.01,-0.67,0.20,0.46,
2.724,-0.07,0.12,1.01,-0.67,0.20,0.46,
2.724,-0.06,0.12,1.01,-0.67,0.20,0.46,
2.724,-0.06,0.12,1.01,-0.58,0.20,0.44,
2.726,-0.06,0.12,1.00,-0.58,0.20,0.44,
2.73,-0.06,0.12,1.00,-0.58,0.20,0.44,
2.73,-0.06,0.12,1.00,-0.49,0.18,0.41,
2.732,-0.06,0.12,0.99,-0.49,0.18,0.41,
2.735,-0.06,0.12,0.99,-0.43,0.17,0.31,
2.735,-0.06,0.12,1.00,-0.43,0.17,0.31,
2.737,-0.07,0.12,0.99,-0.43,0.17,0.31,
2.74,-0.07,0.13,0.99,-0.43,0.17,0.31,
2.741,-0.07,0.13,0.99,-0.44,0.17,0.28,
2.741,-0.07,0.12,0.98,-0.44,0.17,0.28,
2.744,-0.07,0.13,0.98,-0.44,0.17,0.28,
2.744,-0.07,0.13,0.98,-0.50,0.20,0.23,
2.747,-0.07,0.13,0.98,-0.50,0.20,0.23,
2.749,-0.08,0.13,0.98,-0.50,0.20,0.23,
2.75,-0.08,0.13,0.98,-0.54,0.22,0.15,
2.751,-0.08,0.13,0.97,-0.54,0.22,0.15,
2.754,-0.07,0.14,0.97,-0.54,0.22,0.15,
2.755,-0.07,0.14,0.97,-0.56,0.25,0.10,
2.757,-0.07,0.14,0.97,-0.56,0.25,0.10,
2.759,-0.08,0.14,0.97,-0.56,0.25,0.10,
2.759,-0.08,0.14,0.97,-0.55,0.31,0.03,
2.761,-0.08,0.14,0.96,-0.55,0.31,0.03,
2.764,-0.08,0.15,0.96,-0.55,0.31,0.03,
2.764,-0.08,0.15,0.96,-0.55,0.37,-0.00,
2.766,-0.08,0.15,0.95,-0.55,0.37,-0.00,
2.768,-0.09,0.15,0.95,-0.55,0.37,-0.00,
2.769,-0.09,0.15,0.95,-0.58,0.39,-0.07,
2.77,-0.09,0.15,0.95,-0.58,0.39,-0.07,
2.773,-0.09,0.15,0.95,-0.58,0.39,-0.07,
2.774,-0.09,0.15,0.95,-0.61,0.42,-0.15,
2.775,-0.10,0.15,0.95,-0.61,0.42,-0.15,
2.778,-0.10,0.15,0.96,-0.61,0.42,-0.15,
2.778,-0.10,0.15,0.96,-0.67,0.43,-0.16,
2.78,-0.10,0.15,0.96,-0.67,0.43,-0.16,
2.783,-0.10,0.15,0.96,-0.72,0.45,-0.13,
2.783,-0.10,0.16,0.97,-0.72,0.45,-0.13,
2.785,-0.10,0.15,0.97,-0.72,0.45,-0.13,
2.794,-0.10,0.16,0.97,-0.72,0.45,-0.13,
2.795,-0.10,0.16,0.97,-0.75,0.47,-0.05,
2.795,-0.10,0.16,0.98,-0.75,0.47,-0.05,
2.795,-0.10,0.15,0.98,-0.75,0.47,-0.05,
2.799,-0.10,0.15,0.98,-0.72,0.50,0.02,
2.799,-0.10,0.15,0.99,-0.72,0.50,0.02,
2.799,-0.10,0.15,0.99,-0.72,0.50,0.02,
2.8,-0.10,0.15,0.99,-0.69,0.50,0.14,
2.802,-0.10,0.14,1.00,-0.69,0.50,0.14,
2.803,-0.09,0.14,1.00,-0.69,0.50,0.14,
2.803,-0.09,0.14,1.00,-0.67,0.42,0.23,
2.808,-0.09,0.13,1.00,-0.67,0.42,0.23,
2.808,-0.09,0.13,1.00,-0.64,0.34,0.33,
2.808,-0.08,0.13,1.01,-0.64,0.34,0.33,
2.81,-0.09,0.13,1.02,-0.64,0.34,0.33,
2.813,-0.08,0.12,1.03,-0.64,0.34,0.33,
2.813,-0.08,0.12,1.03,-0.54,0.28,0.38,
2.815,-0.07,0.13,1.04,-0.54,0.28,0.38,
2.819,-0.07,0.12,1.05,-0.54,0.28,0.38,
2.819,-0.07,0.12,1.05,-0.50,0.22,0.58,
2.82,-0.07,0.12,1.05,-0.50,0.22,0.58,
2.826,-0.06,0.12,1.05,-0.50,0.22,0.58,
2.826,-0.06,0.12,1.05,-0.39,0.21,0.72,
2.827,-0.05,0.12,1.05,-0.39,0.21,0.72,
2.828,-0.05,0.12,1.06,-0.39,0.21,0.72,
2.828,-0.05,0.12,1.06,-0.30,0.14,0.76,
2.83,-0.05,0.12,1.06,-0.30,0.14,0.76,
2.832,-0.05,0.12,1.06,-0.17,0.16,0.83,
2.833,-0.04,0.11,1.07,-0.17,0.16,0.83,
2.835,-0.04,0.12,1.06,-0.17,0.16,0.83,
2.838,-0.04,0.11,1.07,-0.17,0.16,0.83,
2.839,-0.04,0.11,1.07,-0.10,0.14,0.91,
2.841,-0.04,0.11,1.07,-0.10,0.14,0.91,
2.844,-0.04,0.11,1.06,-0.10,0.14,0.91,
2.844,-0.04,0.11,1.06,-0.08,0.14,0.92,
2.845,-0.05,0.11,1.07,-0.08,0.14,0.92,
2.848,-0.05,0.12,1.06,-0.08,0.14,0.92,
2.848,-0.05,0.12,1.06,-0.08,0.12,0.91,
2.85,-0.05,0.12,1.05,-0.08,0.12,0.91,
2.853,-0.05,0.12,1.05,-0.08,0.12,0.91,
2.853,-0.05,0.12,1.05,-0.14,0.15,0.87,
2.855,-0.05,0.12,1.04,-0.14,0.15,0.87,
2.858,-0.05,0.12,1.04,-0.12,0.17,0.77,
2.858,-0.05,0.13,1.04,-0.12,0.17,0.77,
2.86,-0.05,0.13,1.04,-0.12,0.17,0.77,
2.863,-0.05,0.12,1.04,-0.12,0.17,0.77,
2.863,-0.05,0.12,1.04,-0.13,0.24,0.67,
2.865,-0.05,0.13,1.03,-0.13,0.24,0.67,
2.868,-0.05,0.13,1.03,-0.13,0.24,0.67,
2.868,-0.05,0.13,1.03,-0.12,0.25,0.64,
2.87,-0.06,0.13,1.03,-0.12,0.25,0.64,
2.874,-0.05,0.12,1.03,-0.12,0.25,0.64,
2.875,-0.05,0.12,1.03,-0.16,0.24,0.54,
2.875,-0.06,0.13,1.02,-0.16,0.24,0.54,
2.877,-0.06,0.13,1.02,-0.17,0.22,0.51,
2.878,-0.06,0.12,1.02,-0.17,0.22,0.51,
2.88,-0.06,0.12,1.02,-0.17,0.22,0.51,
2.883,-0.06,0.12,1.02,-0.19,0.20,0.44,
2.883,-0.06,0.12,1.02,-0.19,0.20,0.44,
2.885,-0.06,0.12,1.02,-0.19,0.20,0.44,
2.888,-0.06,0.11,1.02,-0.19,0.20,0.44,
2.888,-0.06,0.11,1.02,-0.20,0.19,0.43,
2.89,-0.06,0.11,1.02,-0.20,0.19,0.43,
2.892,-0.06,0.11,1.02,-0.20,0.19,0.43,
2.892,-0.06,0.11,1.02,-0.23,0.13,0.44,
2.895,-0.06,0.11,1.02,-0.23,0.13,0.44,
2.898,-0.06,0.11,1.02,-0.22,0.05,0.43,
2.898,-0.06,0.11,1.02,-0.22,0.05,0.43,
2.9,-0.07,0.10,1.02,-0.22,0.05,0.43,
2.902,-0.07,0.10,1.02,-0.25,0.03,0.40,
2.902,-0.07,0.10,1.01,-0.25,0.03,0.40,
2.904,-0.07,0.10,1.01,-0.25,0.03,0.40,
2.912,-0.07,0.10,1.01,-0.30,-0.02,0.34,
2.912,-0.07,0.09,1.01,-0.30,-0.02,0.34,
2.913,-0.07,0.09,1.01,-0.30,-0.02,0.34,
2.913,-0.07,0.10,1.01,-0.30,-0.02,0.34,
2.913,-0.07,0.10,1.01,-0.29,-0.06,0.29,
2.914,-0.07,0.10,1.01,-0.29,-0.06,0.29,
2.917,-0.07,0.10,1.01,-0.29,-0.06,0.29,
2.917,-0.07,0.10,1.01,-0.28,-0.07,0.28,
2.919,-0.07,0.10,1.01,-0.28,-0.07,0.28,
2.922,-0.07,0.10,1.01,-0.28,-0.04,0.31,
2.922,-0.07,0.11,1.00,-0.28,-0.04,0.31,
2.925,-0.06,0.11,1.00,-0.28,-0.04,0.31,
2.927,-0.06,0.11,1.00,-0.28,-0.04,0.31,
2.927,-0.06,0.11,1.00,-0.29,0.01,0.27,
2.929,-0.07,0.11,1.00,-0.29,0.01,0.27,
2.932,-0.07,0.11,1.00,-0.19,0.09,0.24,
2.932,-0.06,0.12,1.01,-0.19,0.09,0.24,
2.934,-0.06,0.12,1.00,-0.19,0.09,0.24,
2.937,-0.05,0.12,1.00,-0.19,0.09,0.24,
2.937,-0.05,0.12,1.00,-0.21,0.13,0.26,
2.94,-0.05,0.12,0.99,-0.21,0.13,0.26,
2.942,-0.05,0.12,1.00,-0.21,0.13,0.26,
2.943,-0.05,0.12,1.00,-0.15,0.15,0.19,
2.944,-0.04,0.12,0.99,-0.15,0.15,0.19,
2.947,-0.04,0.12,0.99,-0.15,0.15,0.19,
2.947,-0.04,0.12,0.99,-0.08,0.14,0.13,
2.949,-0.04,0.12,0.99,-0.08,0.14,0.13,
2.951,-0.04,0.12,0.99,0.01,0.15,0.11,
2.952,-0.03,0.12,0.98,0.01,0.15,0.11,
2.954,-0.02,0.12,0.98,0.01,0.15,0.11,
2.957,-0.02,0.12,0.98,0.08,0.14,0.03,
2.957,-0.02,0.12,0.98,0.08,0.14,0.03,
2.958,-0.02,0.12,0.98,0.08,0.14,0.03,
2.961,-0.01,0.12,0.97,0.08,0.14,0.03,
2.962,-0.01,0.12,0.97,0.17,0.14,0.02,
2.964,-0.01,0.13,0.98,0.17,0.14,0.02,
2.966,-0.00,0.13,0.97,0.17,0.14,0.02,
2.967,-0.00,0.13,0.97,0.24,0.16,-0.05,
2.969,-0.00,0.13,0.98,0.24,0.16,-0.05,
2.971,-0.00,0.13,0.97,0.24,0.16,-0.05,
2.972,-0.00,0.13,0.97,0.33,0.18,-0.02,
2.975,-0.01,0.13,0.97,0.33,0.18,-0.02,
2.976,-0.01,0.13,0.98,0.33,0.18,-0.02,
2.977,-0.01,0.13,0.98,0.38,0.20,-0.04,
2.978,-0.01,0.13,0.97,0.38,0.20,-0.04,
2.982,-0.01,0.13,0.97,0.32,0.20,-0.06,
2.982,-0.01,0.13,0.97,0.32,0.20,-0.06,
2.983,-0.01,0.13,0.97,0.32,0.20,-0.06,
2.987,-0.01,0.13,0.98,0.32,0.20,-0.06,
2.987,-0.01,0.13,0.98,0.33,0.22,-0.07,
2.989,-0.01,0.13,0.98,0.33,0.22,-0.07,
2.991,-0.01,0.13,0.98,0.33,0.22,-0.07,
2.992,-0.01,0.13,0.98,0.29,0.17,-0.05,
2.993,-0.01,0.12,0.98,0.29,0.17,-0.05,
2.997,-0.01,0.13,0.98,0.29,0.17,-0.05,
2.997,-0.01,0.13,0.98,0.27,0.16,-0.01,
2.999,-0.01,0.13,0.98,0.27,0.16,-0.01,
3.002,-0.00,0.13,0.99,0.27,0.16,-0.01,
3.002,-0.00,0.13,0.99,0.25,0.13,0.04,
3.004,-0.01,0.13,0.97,0.25,0.13,0.04,
3.012,-0.01,0.13,0.97,0.33,0.15,0.05,
3.013,-0.01,0.13,0.91,0.33,0.15,0.05,
3.013,-0.02,0.14,0.84,0.33,0.15,0.05,
3.013,-0.02,0.15,0.82,0.33,0.15,0.05,
3.013,-0.02,0.15,0.82,0.31,0.18,-0.41,
3.014,-0.01,0.15,0.85,0.31,0.18,-0.41,
3.016,-0.00,0.15,0.89,0.31,0.18,-0.41,
3.016,-0.00,0.15,0.89,0.17,0.32,-1.47,
3.018,-0.00,0.15,0.91,0.17,0.32,-1.47,
3.021,-0.00,0.14,0.91,0.17,0.32,-1.47,
3.021,-0.00,0.14,0.91,0.32,0.39,-1.06,
3.025,-0.01,0.14,0.91,0.32,0.39,-1.06,
3.026,-0.01,0.13,0.92,0.32,0.39,-1.06,
3.026,-0.01,0.13,0.92,0.38,0.34,-0.68,
3.028,-0.01,0.13,0.93,0.38,0.34,-0.68,
3.032,-0.01,0.13,0.93,0.30,0.28,-0.60,
3.032,-0.01,0.12,0.93,0.30,0.28,-0.60,
3.034,-0.00,0.12,0.95,0.30,0.28,-0.60,
3.036,0.00,0.11,0.95,0.30,0.28,-0.60,
3.036,0.00,0.11,0.95,0.32,0.13,-0.45,
3.038,0.01,0.10,0.96,0.32,0.13,-0.45,
3.042,0.01,0.10,0.96,0.42,0.02,-0.26,
3.043,0.01,0.10,0.97,0.42,0.02,-0.26,
3.048,0.01,0.10,0.98,0.42,0.02,-0.26,
3.049,0.01,0.10,0.98,0.48,-0.06,-0.08,
3.049,0.02,0.10,1.00,0.48,-0.06,-0.08,
3.049,0.01,0.10,1.01,0.48,-0.06,-0.08,
3.051,0.01,0.09,1.03,0.48,-0.06,-0.08,
3.052,0.01,0.09,1.03,0.55,-0.10,0.12,
3.053,0.01,0.09,1.04,0.55,-0.10,0.12,
3.056,0.01,0.09,1.04,0.49,-0.12,0.43,
3.057,0.01,0.09,1.05,0.49,-0.12,0.43,
3.063,-0.00,0.10,1.05,0.49,-0.12,0.43,
3.064,-0.01,0.10,1.06,0.49,-0.12,0.43,
3.064,-0.01,0.10,1.06,0.51,-0.13,0.63,
3.064,-0.02,0.09,1.07,0.51,-0.13,0.63,
3.066,-0.03,0.10,1.07,0.51,-0.13,0.63,
3.066,-0.03,0.10,1.07,0.37,-0.11,0.77,
3.068,-0.03,0.10,1.07,0.37,-0.11,0.77,
3.07,-0.04,0.09,1.06,0.37,-0.11,0.77,
3.071,-0.04,0.09,1.06,0.18,-0.10,0.88,
3.073,-0.06,0.09,1.06,0.18,-0.10,0.88,
3.08,-0.06,0.09,1.05,0.18,-0.10,0.88,
3.08,-0.06,0.09,1.05,0.02,-0.10,0.86,
3.081,-0.06,0.10,1.03,0.02,-0.10,0.86,
3.081,-0.06,0.10,1.03,-0.19,-0.14,0.75,
3.081,-0.07,0.09,1.03,-0.19,-0.14,0.75,
3.083,-0.08,0.10,1.02,-0.19,-0.14,0.75,
3.088,-0.08,0.10,1.01,-0.19,-0.14,0.75,
3.088,-0.08,0.10,1.01,-0.25,-0.13,0.53,
3.089,-0.08,0.10,1.01,-0.25,-0.13,0.53,
3.09,-0.09,0.10,1.00,-0.25,-0.13,0.53,
3.09,-0.09,0.10,1.00,-0.33,-0.11,0.37,
3.097,-0.08,0.10,1.00,-0.33,-0.11,0.37,
3.097,-0.09,0.10,0.99,-0.33,-0.11,0.37,
3.098,-0.09,0.10,0.99,-0.39,-0.08,0.24,
3.098,-0.09,0.10,0.99,-0.39,-0.08,0.24,
