
time,gFx,gFy,gFz,ax,ay,az,
0.005,-0.04,0.05,0.99,-0.27,0.05,0.01,
0.006,-0.03,0.05,0.99,-0.27,0.05,0.01,
0.006,-0.03,0.05,0.99,-0.22,0.06,-0.02,
0.006,-0.03,0.05,0.98,-0.22,0.06,-0.02,
0.006,-0.03,0.05,0.98,-0.22,0.06,-0.02,
0.007,-0.03,0.05,0.98,-0.19,0.08,-0.11,
0.007,-0.02,0.05,0.98,-0.19,0.08,-0.11,
0.01,-0.02,0.05,0.99,-0.19,0.08,-0.11,
0.011,-0.02,0.05,0.99,-0.16,0.06,-0.18,
0.011,-0.02,0.05,0.98,-0.16,0.06,-0.18,
0.013,-0.02,0.05,0.98,-0.16,0.06,-0.18,
0.013,-0.02,0.05,0.98,-0.08,0.07,-0.17,
0.016,-0.02,0.05,0.98,-0.08,0.07,-0.17,
0.018,-0.01,0.05,0.98,-0.08,0.07,-0.17,
0.018,-0.01,0.05,0.98,-0.04,0.07,-0.23,
0.021,-0.01,0.05,0.99,-0.04,0.07,-0.23,
0.023,-0.01,0.05,1.00,-0.04,0.07,-0.23,
0.023,-0.01,0.05,1.00,-0.02,0.08,-0.17,
0.027,-0.01,0.05,1.00,-0.02,0.08,-0.17,
0.028,-0.01,0.05,1.00,-0.02,0.08,-0.17,
0.028,-0.01,0.05,1.00,-0.01,0.08,-0.07,
0.03,-0.01,0.05,1.01,-0.01,0.08,-0.07,
0.033,-0.01,0.05,1.01,-0.01,0.08,-0.07,
0.034,-0.01,0.05,1.01,0.02,0.10,-0.02,
0.035,-0.01,0.04,1.02,0.02,0.10,-0.02,
0.038,-0.01,0.04,1.03,0.02,0.10,-0.02,
0.038,-0.01,0.04,1.03,-0.00,0.05,0.08,
0.04,-0.01,0.04,1.03,-0.00,0.05,0.08,
0.043,-0.01,0.04,1.04,-0.00,0.05,0.08,
0.043,-0.01,0.04,1.04,0.00,-0.00,0.21,
0.045,-0.01,0.04,1.04,0.00,-0.00,0.21,
0.048,-0.01,0.04,1.04,0.00,-0.00,0.21,
0.048,-0.01,0.04,1.04,0.00,-0.01,0.31,
0.05,-0.00,0.04,1.05,0.00,-0.01,0.31,
0.053,-0.00,0.04,1.05,0.02,-0.02,0.40,
0.053,-0.00,0.03,1.05,0.02,-0.02,0.40,
0.055,-0.00,0.03,1.05,0.02,-0.02,0.40,
0.062,0.00,0.03,1.05,0.02,-0.02,0.40,
0.062,0.00,0.03,1.05,0.09,-0.06,0.47,
0.062,0.00,0.03,1.05,0.09,-0.06,0.47,
0.063,0.01,0.03,1.05,0.09,-0.06,0.47,
0.064,0.01,0.03,1.05,0.13,-0.10,0.48,
0.065,0.01,0.02,1.05,0.13,-0.10,0.48,
0.067,0.01,0.03,1.05,0.13,-0.10,0.48,
0.067,0.01,0.03,1.05,0.16,-0.11,0.42,
0.07,0.01,0.02,1.05,0.16,-0.11,0.42,
0.072,0.01,0.02,1.05,0.16,-0.11,0.42,
0.073,0.01,0.02,1.05,0.20,-0.16,0.47,
0.075,0.02,0.02,1.04,0.20,-0.16,0.47,
0.078,0.02,0.01,1.04,0.20,-0.16,0.47,
0.078,0.02,0.01,1.04,0.22,-0.20,0.44,
0.08,0.02,0.01,1.03,0.22,-0.20,0.44,
0.082,0.02,0.02,1.02,0.22,-0.20,0.44,
0.082,0.02,0.02,1.02,0.29,-0.24,0.32,
0.085,0.03,0.01,1.03,0.29,-0.24,0.32,
0.087,0.03,0.01,1.02,0.29,-0.24,0.32,
0.088,0.03,0.01,1.02,0.30,-0.27,0.23,
0.09,0.04,0.01,1.01,0.30,-0.27,0.23,
0.092,0.04,0.02,1.01,0.30,-0.27,0.23,
0.092,0.04,0.02,1.01,0.38,-0.32,0.19,
0.094,0.04,0.02,1.01,0.38,-0.32,0.19,
0.097,0.05,0.01,1.01,0.38,-0.32,0.19,
0.097,0.05,0.01,1.01,0.47,-0.29,0.06,
0.1,0.05,0.02,1.01,0.47,-0.29,0.06,
0.102,0.06,0.02,1.01,0.47,-0.29,0.06,
0.102,0.06,0.02,1.01,0.53,-0.29,0.08,
0.105,0.05,0.02,1.01,0.53,-0.29,0.08,
0.107,0.06,0.02,1.00,0.53,-0.29,0.08,
0.107,0.06,0.02,1.00,0.58,-0.28,0.03,
0.11,0.06,0.02,1.00,0.58,-0.28,0.03,
0.111,0.06,0.03,0.99,0.58,-0.28,0.03,
0.112,0.06,0.03,0.99,0.63,-0.26,0.02,
0.114,0.06,0.03,0.99,0.63,-0.26,0.02,
0.117,0.06,0.02,0.99,0.63,-0.26,0.02,
0.117,0.06,0.02,0.99,0.67,-0.21,-0.10,
0.119,0.05,0.02,0.99,0.67,-0.21,-0.10,
0.122,0.06,0.02,0.98,0.67,-0.21,-0.10,
0.122,0.06,0.02,0.98,0.63,-0.20,-0.15,
0.124,0.05,0.03,0.98,0.63,-0.20,-0.15,
0.127,0.05,0.03,0.99,0.63,-0.20,-0.15,
0.127,0.05,0.03,0.99,0.57,-0.24,-0.21,
0.129,0.05,0.03,0.99,0.57,-0.24,-0.21,
0.131,0.05,0.03,0.98,0.57,-0.24,-0.21,
0.134,0.05,0.03,0.98,0.50,-0.20,-0.21,
0.134,0.05,0.03,0.98,0.50,-0.20,-0.21,
0.136,0.05,0.03,0.98,0.50,-0.20,-0.21,
0.137,0.05,0.03,0.98,0.50,-0.16,-0.22,
0.139,0.05,0.04,0.98,0.50,-0.16,-0.22,
0.142,0.05,0.04,0.97,0.50,-0.16,-0.22,
0.142,0.05,0.04,0.97,0.51,-0.15,-0.25,
0.144,0.05,0.03,0.98,0.51,-0.15,-0.25,
0.146,0.05,0.03,0.98,0.51,-0.15,-0.25,
0.147,0.05,0.03,0.98,0.49,-0.12,-0.25,
0.149,0.05,0.03,0.98,0.49,-0.12,-0.25,
0.153,0.05,0.03,0.98,0.47,-0.15,-0.26,
0.153,0.05,0.03,0.98,0.47,-0.15,-0.26,
0.153,0.05,0.03,0.99,0.47,-0.15,-0.26,
0.156,0.05,0.03,0.99,0.47,-0.15,-0.26,
0.157,0.05,0.03,0.99,0.46,-0.19,-0.23,
0.158,0.05,0.02,0.99,0.46,-0.19,-0.23,
0.161,0.06,0.02,0.99,0.46,-0.19,-0.23,
0.161,0.06,0.02,0.99,0.47,-0.21,-0.15,
0.164,0.06,0.02,0.99,0.47,-0.21,-0.15,
0.166,0.06,0.02,0.99,0.47,-0.21,-0.15,
0.166,0.06,0.02,0.99,0.53,-0.31,-0.17,
0.168,0.07,0.02,0.99,0.53,-0.31,-0.17,
0.171,0.07,0.02,0.99,0.53,-0.31,-0.17,
0.171,0.07,0.02,0.99,0.58,-0.30,-0.15,
0.174,0.08,0.02,0.99,0.58,-0.30,-0.15,
0.178,0.08,0.02,0.99,0.58,-0.30,-0.15,
0.179,0.08,0.02,0.99,0.64,-0.33,-0.10,
0.179,0.08,0.02,1.00,0.64,-0.33,-0.10,
0.181,0.09,0.02,0.99,0.64,-0.33,-0.10,
0.181,0.09,0.02,0.99,0.69,-0.31,-0.12,
0.184,0.09,0.01,1.00,0.69,-0.31,-0.12,
0.186,0.09,0.01,0.99,0.69,-0.31,-0.12,
0.186,0.09,0.01,0.99,0.75,-0.33,-0.08,
0.189,0.09,0.01,0.99,0.75,-0.33,-0.08,
0.192,0.10,0.01,0.99,0.75,-0.33,-0.08,
0.193,0.10,0.01,0.99,0.81,-0.38,-0.08,
0.193,0.10,0.01,0.99,0.81,-0.38,-0.08,
0.196,0.10,0.01,0.99,0.85,-0.37,-0.11,
0.196,0.10,0.01,0.98,0.85,-0.37,-0.11,
0.199,0.11,0.01,0.97,0.85,-0.37,-0.11,
0.201,0.11,0.01,0.96,0.85,-0.37,-0.11,
0.201,0.11,0.01,0.96,0.90,-0.39,-0.18,
0.204,0.10,0.02,0.95,0.90,-0.39,-0.18,
0.206,0.10,0.01,0.95,0.90,-0.39,-0.18,
0.206,0.10,0.01,0.95,0.93,-0.36,-0.34,
0.208,0.10,0.01,0.93,0.93,-0.36,-0.34,
0.211,0.10,0.01,0.93,0.93,-0.36,-0.34,
0.212,0.10,0.01,0.93,0.89,-0.37,-0.53,
0.213,0.10,0.02,0.92,0.89,-0.37,-0.53,
0.216,0.09,0.01,0.92,0.89,-0.37,-0.53,
0.217,0.09,0.01,0.92,0.87,-0.41,-0.68,
0.219,0.09,0.02,0.91,0.87,-0.41,-0.68,
0.221,0.09,0.02,0.91,0.87,-0.41,-0.68,
0.221,0.09,0.02,0.91,0.81,-0.37,-0.79,
0.223,0.09,0.02,0.91,0.81,-0.37,-0.79,
0.226,0.08,0.03,0.90,0.81,-0.37,-0.79,
0.227,0.08,0.03,0.90,0.74,-0.32,-0.87,
0.228,0.08,0.03,0.90,0.74,-0.32,-0.87,
0.231,0.09,0.03,0.89,0.74,-0.32,-0.87,
0.231,0.09,0.03,0.89,0.70,-0.30,-0.94,
0.234,0.08,0.03,0.89,0.70,-0.30,-0.94,
0.236,0.08,0.03,0.89,0.68,-0.24,-1.03,
0.236,0.08,0.03,0.89,0.68,-0.24,-1.03,
0.238,0.08,0.03,0.89,0.68,-0.24,-1.03,
0.241,0.08,0.03,0.89,0.68,-0.24,-1.03,
0.241,0.08,0.03,0.89,0.62,-0.28,-1.05,
0.243,0.09,0.03,0.89,0.62,-0.28,-1.05,
0.245,0.08,0.03,0.89,0.62,-0.28,-1.05,
0.246,0.08,0.03,0.89,0.62,-0.25,-1.02,
0.248,0.09,0.03,0.89,0.62,-0.25,-1.02,
0.251,0.09,0.03,0.90,0.62,-0.25,-1.02,
0.251,0.09,0.03,0.90,0.67,-0.27,-1.03,
0.253,0.10,0.03,0.90,0.67,-0.27,-1.03,
0.256,0.10,0.02,0.90,0.67,-0.27,-1.03,
0.256,0.10,0.02,0.90,0.73,-0.24,-0.98,
0.26,0.10,0.02,0.90,0.73,-0.24,-0.98,
0.261,0.10,0.02,0.90,0.73,-0.24,-0.98,
0.261,0.10,0.02,0.90,0.79,-0.28,-0.92,
0.263,0.11,0.02,0.90,0.79,-0.28,-0.92,
0.266,0.11,0.02,0.90,0.79,-0.28,-0.92,
0.266,0.11,0.02,0.90,0.82,-0.32,-0.91,
0.268,0.11,0.01,0.90,0.82,-0.32,-0.91,
0.27,0.11,0.02,0.90,0.82,-0.32,-0.91,
0.27,0.11,0.02,0.90,0.88,-0.35,-0.88,
0.272,0.12,0.01,0.90,0.88,-0.35,-0.88,
0.276,0.12,0.02,0.90,0.88,-0.35,-0.88,
0.276,0.12,0.02,0.90,0.91,-0.39,-0.88,
0.278,0.12,0.02,0.90,0.91,-0.39,-0.88,
0.28,0.12,0.02,0.91,0.91,-0.39,-0.88,
0.28,0.12,0.02,0.91,0.97,-0.38,-0.88,
0.283,0.12,0.02,0.90,0.97,-0.38,-0.88,
0.285,0.12,0.02,0.90,0.97,-0.38,-0.88,
0.286,0.12,0.02,0.90,1.00,-0.31,-0.83,
0.288,0.12,0.02,0.90,1.00,-0.31,-0.83,
0.29,0.12,0.03,0.91,1.00,-0.31,-0.83,
0.29,0.12,0.03,0.91,0.98,-0.30,-0.85,
0.298,0.12,0.03,0.91,0.98,-0.30,-0.85,
0.299,0.12,0.03,0.90,0.98,-0.30,-0.85,
0.299,0.12,0.03,0.90,0.99,-0.26,-0.82,
0.299,0.12,0.03,0.91,0.99,-0.26,-0.82,
0.3,0.12,0.03,0.92,0.99,-0.26,-0.82,
0.3,0.12,0.03,0.92,0.96,-0.20,-0.81,
0.302,0.11,0.03,0.92,0.96,-0.20,-0.81,
0.305,0.11,0.04,0.92,0.96,-0.20,-0.81,
0.305,0.11,0.04,0.92,0.91,-0.18,-0.69,
0.308,0.11,0.04,0.93,0.91,-0.18,-0.69,
0.31,0.10,0.04,0.94,0.91,-0.18,-0.69,
0.31,0.10,0.04,0.94,0.86,-0.14,-0.63,
0.313,0.09,0.03,0.94,0.86,-0.14,-0.63,
0.314,0.09,0.03,0.94,0.86,-0.14,-0.63,
0.315,0.09,0.03,0.94,0.78,-0.14,-0.47,
0.318,0.09,0.03,0.96,0.78,-0.14,-0.47,
0.32,0.08,0.03,0.95,0.78,-0.14,-0.47,
0.32,0.08,0.03,0.95,0.67,-0.16,-0.44,
0.322,0.08,0.03,0.95,0.67,-0.16,-0.44,
0.325,0.07,0.03,0.95,0.67,-0.16,-0.44,
0.328,0.07,0.03,0.95,0.57,-0.20,-0.31,
0.328,0.07,0.03,0.95,0.57,-0.20,-0.31,
0.332,0.06,0.03,0.94,0.57,-0.20,-0.31,
0.332,0.06,0.03,0.94,0.46,-0.19,-0.37,
0.333,0.06,0.03,0.94,0.46,-0.19,-0.37,
0.334,0.05,0.02,0.94,0.46,-0.19,-0.37,
0.334,0.05,0.02,0.94,0.34,-0.21,-0.39,
0.337,0.05,0.03,0.93,0.34,-0.21,-0.39,
0.339,0.04,0.02,0.92,0.34,-0.21,-0.39,
0.34,0.04,0.02,0.92,0.27,-0.21,-0.46,
0.342,0.04,0.03,0.91,0.27,-0.21,-0.46,
0.344,0.03,0.02,0.91,0.27,-0.21,-0.46,
0.345,0.03,0.02,0.91,0.16,-0.21,-0.57,
0.347,0.03,0.02,0.90,0.16,-0.21,-0.57,
0.349,0.03,0.03,0.90,0.16,-0.21,-0.57,
0.349,0.03,0.03,0.90,0.08,-0.21,-0.70,
0.352,0.03,0.02,0.89,0.08,-0.21,-0.70,
0.355,0.02,0.02,0.88,0.08,-0.21,-0.70,
0.355,0.02,0.02,0.88,0.03,-0.21,-0.82,
0.357,0.02,0.02,0.87,0.03,-0.21,-0.82,
0.359,0.02,0.03,0.86,0.03,-0.21,-0.82,
0.36,0.02,0.03,0.86,-0.07,-0.22,-0.97,
0.362,0.02,0.02,0.85,-0.07,-0.22,-0.97,
0.364,0.02,0.02,0.85,-0.07,-0.22,-0.97,
0.364,0.02,0.02,0.85,-0.13,-0.20,-1.16,
0.367,0.02,0.02,0.84,-0.13,-0.20,-1.16,
0.37,0.02,0.02,0.83,-0.13,-0.20,-1.16,
0.37,0.02,0.02,0.83,-0.12,-0.25,-1.27,
0.372,0.03,0.02,0.82,-0.12,-0.25,-1.27,
0.374,0.03,0.02,0.82,-0.09,-0.25,-1.41,
0.374,0.04,0.02,0.82,-0.09,-0.25,-1.41,
0.376,0.05,0.02,0.80,-0.09,-0.25,-1.41,
0.379,0.06,0.03,0.80,-0.09,-0.25,-1.41,
0.379,0.06,0.03,0.80,0.06,-0.26,-1.55,
0.382,0.07,0.03,0.80,0.06,-0.26,-1.55,
0.384,0.08,0.03,0.79,0.06,-0.26,-1.55,
0.384,0.08,0.03,0.79,0.22,-0.25,-1.69,
0.387,0.08,0.03,0.78,0.22,-0.25,-1.69,
0.389,0.09,0.03,0.78,0.22,-0.25,-1.69,
0.389,0.09,0.03,0.78,0.41,-0.22,-1.78,
0.392,0.09,0.02,0.78,0.41,-0.22,-1.78,
0.397,0.10,0.03,0.78,0.41,-0.22,-1.78,
0.397,0.10,0.03,0.78,0.54,-0.24,-1.88,
0.397,0.11,0.03,0.78,0.54,-0.24,-1.88,
0.398,0.11,0.02,0.78,0.54,-0.24,-1.88,
0.399,0.11,0.02,0.78,0.68,-0.25,-1.88,
0.401,0.11,0.02,0.78,0.68,-0.25,-1.88,
0.404,0.11,0.03,0.78,0.68,-0.25,-1.88,
0.404,0.11,0.03,0.78,0.75,-0.25,-1.90,
0.407,0.10,0.03,0.78,0.75,-0.25,-1.90,
0.411,0.10,0.03,0.78,0.75,-0.25,-1.90,
0.411,0.10,0.03,0.78,0.77,-0.25,-1.89,
0.412,0.10,0.04,0.79,0.77,-0.25,-1.89,
0.414,0.10,0.04,0.79,0.73,-0.24,-1.85,
0.414,0.10,0.04,0.79,0.73,-0.24,-1.85,
0.417,0.09,0.04,0.80,0.73,-0.24,-1.85,
0.419,0.09,0.04,0.80,0.73,-0.24,-1.85,
0.419,0.09,0.04,0.80,0.71,-0.12,-1.76,
0.422,0.09,0.04,0.80,0.71,-0.12,-1.76,
0.424,0.08,0.04,0.80,0.71,-0.12,-1.76,
0.424,0.08,0.04,0.80,0.60,-0.12,-1.64,
0.427,0.08,0.04,0.82,0.60,-0.12,-1.64,
0.429,0.07,0.04,0.82,0.60,-0.12,-1.64,
0.43,0.07,0.04,0.82,0.57,-0.07,-1.59,
0.431,0.07,0.04,0.83,0.57,-0.07,-1.59,
0.434,0.06,0.04,0.83,0.57,-0.07,-1.59,
0.434,0.06,0.04,0.83,0.47,-0.05,-1.47,
0.436,0.06,0.04,0.83,0.47,-0.05,-1.47,
0.439,0.05,0.04,0.85,0.47,-0.05,-1.47,
0.439,0.05,0.04,0.85,0.35,-0.07,-1.32,
0.441,0.04,0.03,0.84,0.35,-0.07,-1.32,
0.444,0.04,0.03,0.83,0.35,-0.07,-1.32,
0.444,0.04,0.03,0.83,0.26,-0.11,-1.22,
0.446,0.03,0.04,0.84,0.26,-0.11,-1.22,
0.449,0.02,0.03,0.84,0.26,-0.11,-1.22,
0.449,0.02,0.03,0.84,0.12,-0.12,-1.25,
0.451,0.01,0.03,0.83,0.12,-0.12,-1.25,
0.454,0.01,0.03,0.83,-0.06,-0.10,-1.23,
0.454,0.01,0.03,0.83,-0.06,-0.10,-1.23,
0.456,-0.00,0.03,0.83,-0.06,-0.10,-1.23,
0.459,-0.01,0.03,0.84,-0.06,-0.10,-1.23,
0.459,-0.01,0.03,0.84,-0.21,-0.12,-1.27,
0.461,-0.03,0.03,0.82,-0.21,-0.12,-1.27,
0.464,-0.04,0.03,0.83,-0.21,-0.12,-1.27,
0.464,-0.04,0.03,0.83,-0.38,-0.16,-1.24,
0.466,-0.05,0.03,0.83,-0.38,-0.16,-1.24,
0.469,-0.06,0.03,0.83,-0.38,-0.16,-1.24,
0.469,-0.06,0.03,0.83,-0.59,-0.15,-1.32,
0.471,-0.07,0.04,0.83,-0.59,-0.15,-1.32,
0.473,-0.08,0.03,0.83,-0.59,-0.15,-1.32,
0.474,-0.08,0.03,0.83,-0.81,-0.13,-1.31,
0.476,-0.09,0.03,0.84,-0.81,-0.13,-1.31,
0.479,-0.10,0.04,0.85,-0.81,-0.13,-1.31,
0.479,-0.10,0.04,0.85,-0.97,-0.10,-1.24,
0.48,-0.10,0.04,0.85,-0.97,-0.10,-1.24,
0.483,-0.10,0.04,0.85,-1.15,-0.09,-1.14,
0.484,-0.11,0.05,0.86,-1.15,-0.09,-1.14,
0.485,-0.11,0.04,0.86,-1.15,-0.09,-1.14,
0.487,-0.11,0.04,0.87,-1.15,-0.09,-1.14,
0.488,-0.11,0.04,0.87,-1.29,-0.03,-1.02,
0.49,-0.11,0.04,0.88,-1.29,-0.03,-1.02,
0.495,-0.11,0.04,0.89,-1.29,-0.03,-1.02,
0.495,-0.11,0.04,0.89,-1.28,-0.03,-0.90,
0.495,-0.11,0.04,0.91,-1.28,-0.03,-0.90,
0.498,-0.11,0.04,0.92,-1.28,-0.03,-0.90,
0.498,-0.11,0.04,0.92,-1.27,-0.04,-0.67,
0.5,-0.12,0.03,0.92,-1.27,-0.04,-0.67,
0.502,-0.11,0.03,0.92,-1.27,-0.04,-0.67,
0.503,-0.11,0.03,0.92,-1.28,-0.06,-0.44,
0.506,-0.11,0.03,0.92,-1.28,-0.06,-0.44,
0.507,-0.11,0.03,0.92,-1.28,-0.06,-0.44,
0.509,-0.11,0.03,0.92,-1.27,-0.13,-0.40,
0.515,-0.09,0.03,0.92,-1.27,-0.13,-0.40,
0.515,-0.09,0.03,0.92,-1.27,-0.13,-0.40,
0.516,-0.09,0.03,0.92,-1.22,-0.19,-0.37,
0.516,-0.08,0.03,0.92,-1.22,-0.19,-0.37,
0.517,-0.07,0.03,0.92,-1.22,-0.19,-0.37,
0.517,-0.07,0.03,0.92,-1.02,-0.15,-0.36,
0.52,-0.06,0.02,0.92,-1.02,-0.15,-0.36,
0.523,-0.05,0.02,0.91,-1.02,-0.15,-0.36,
0.523,-0.05,0.02,0.91,-0.85,-0.21,-0.38,
0.525,-0.04,0.02,0.90,-0.85,-0.21,-0.38,
0.528,-0.03,0.02,0.89,-0.85,-0.21,-0.38,
0.529,-0.03,0.02,0.89,-0.64,-0.27,-0.43,
0.53,-0.03,0.01,0.88,-0.64,-0.27,-0.43,
0.532,-0.02,0.02,0.87,-0.64,-0.27,-0.43,
0.532,-0.02,0.02,0.87,-0.45,-0.31,-0.59,
0.535,-0.01,0.02,0.87,-0.45,-0.31,-0.59,
0.537,-0.01,0.02,0.86,-0.45,-0.31,-0.59,
0.537,-0.01,0.02,0.86,-0.28,-0.35,-0.74,
0.54,-0.02,0.02,0.85,-0.28,-0.35,-0.74,
0.544,-0.02,0.02,0.85,-0.28,-0.35,-0.74,
0.544,-0.02,0.02,0.85,-0.20,-0.34,-0.86,
0.545,-0.03,0.02,0.84,-0.20,-0.34,-0.86,
0.547,-0.04,0.02,0.84,-0.20,-0.34,-0.86,
0.547,-0.04,0.02,0.84,-0.23,-0.34,-1.01,
0.549,-0.05,0.02,0.83,-0.23,-0.34,-1.01,
0.552,-0.06,0.02,0.84,-0.23,-0.34,-1.01,
0.552,-0.06,0.02,0.84,-0.36,-0.37,-1.10,
0.554,-0.08,0.03,0.84,-0.36,-0.37,-1.10,
0.557,-0.09,0.03,0.84,-0.36,-0.37,-1.10,
0.557,-0.09,0.03,0.84,-0.55,-0.29,-1.13,
0.561,-0.10,0.04,0.85,-0.55,-0.29,-1.13,
0.562,-0.11,0.04,0.86,-0.55,-0.29,-1.13,
0.562,-0.11,0.04,0.86,-0.76,-0.23,-1.10,
0.564,-0.13,0.04,0.86,-0.76,-0.23,-1.10,
0.567,-0.13,0.04,0.86,-0.97,-0.17,-0.97,
0.567,-0.14,0.05,0.87,-0.97,-0.17,-0.97,
0.569,-0.16,0.05,0.88,-0.97,-0.17,-0.97,
0.573,-0.17,0.04,0.89,-0.97,-0.17,-0.97,
0.573,-0.17,0.04,0.89,-1.22,-0.09,-0.85,
0.574,-0.18,0.05,0.90,-1.22,-0.09,-0.85,
0.578,-0.20,0.04,0.90,-1.22,-0.09,-0.85,
0.578,-0.20,0.04,0.90,-1.48,-0.03,-0.66,
0.579,-0.21,0.04,0.91,-1.48,-0.03,-0.66,
0.582,-0.22,0.04,0.92,-1.48,-0.03,-0.66,
0.582,-0.22,0.04,0.92,-1.73,-0.03,-0.51,
0.584,-0.23,0.04,0.93,-1.73,-0.03,-0.51,
0.587,-0.23,0.03,0.93,-1.73,-0.03,-0.51,
0.587,-0.23,0.03,0.93,-1.94,-0.06,-0.39,
0.589,-0.24,0.03,0.94,-1.94,-0.06,-0.39,
0.591,-0.24,0.02,0.95,-1.94,-0.06,-0.39,
0.592,-0.24,0.02,0.95,-2.06,-0.06,-0.22,
0.598,-0.25,0.02,0.96,-2.06,-0.06,-0.22,
0.598,-0.25,0.02,0.96,-2.06,-0.06,-0.22,
0.598,-0.25,0.02,0.96,-2.16,-0.15,-0.06,
0.599,-0.26,0.02,0.97,-2.16,-0.15,-0.06,
0.601,-0.26,0.02,0.98,-2.16,-0.15,-0.06,
0.602,-0.26,0.02,0.98,-2.24,-0.12,0.05,
0.604,-0.26,0.02,0.98,-2.24,-0.12,0.05,
0.606,-0.26,0.02,0.99,-2.24,-0.12,0.05,
0.607,-0.26,0.02,0.99,-2.34,-0.10,0.20,
0.609,-0.26,0.02,1.00,-2.34,-0.10,0.20,
0.612,-0.25,0.03,1.00,-2.34,-0.10,0.20,
0.613,-0.25,0.03,1.00,-2.31,-0.08,0.36,
0.614,-0.24,0.03,1.00,-2.31,-0.08,0.36,
0.616,-0.24,0.03,1.00,-2.31,-0.08,0.36,
0.617,-0.24,0.03,1.00,-2.24,-0.04,0.48,
0.619,-0.24,0.03,1.00,-2.24,-0.04,0.48,
0.622,-0.24,0.03,0.99,-2.24,-0.04,0.48,
0.622,-0.24,0.03,0.99,-2.15,0.04,0.44,
0.624,-0.24,0.04,1.00,-2.15,0.04,0.44,
0.628,-0.23,0.04,0.99,-2.15,0.04,0.44,
0.629,-0.23,0.04,0.99,-2.11,0.10,0.41,
0.629,-0.23,0.04,0.98,-2.11,0.10,0.41,
0.632,-0.23,0.04,0.97,-2.11,0.10,0.41,
0.632,-0.23,0.04,0.97,-2.03,0.18,0.37,
0.634,-0.22,0.05,0.97,-2.03,0.18,0.37,
0.636,-0.22,0.05,0.96,-2.03,0.18,0.37,
0.636,-0.22,0.05,0.96,-1.96,0.24,0.22,
0.638,-0.22,0.05,0.96,-1.96,0.24,0.22,
0.642,-0.22,0.06,0.95,-1.96,0.24,0.22,
0.642,-0.22,0.06,0.95,-1.86,0.30,0.08,
0.644,-0.22,0.06,0.94,-1.86,0.30,0.08,
0.646,-0.23,0.06,0.93,-1.86,0.30,0.08,
0.647,-0.23,0.06,0.93,-1.85,0.40,0.01,
0.648,-0.24,0.06,0.93,-1.85,0.40,0.01,
0.651,-0.25,0.06,0.92,-1.85,0.40,0.01,
0.651,-0.25,0.06,0.92,-1.92,0.47,-0.16,
0.654,-0.27,0.06,0.92,-1.92,0.47,-0.16,
0.657,-0.28,0.05,0.92,-1.92,0.47,-0.16,
0.657,-0.28,0.05,0.92,-2.08,0.49,-0.28,
0.659,-0.29,0.05,0.91,-2.08,0.49,-0.28,
0.662,-0.29,0.05,0.91,-2.08,0.49,-0.28,
0.663,-0.29,0.05,0.91,-2.29,0.50,-0.36,
0.663,-0.30,0.05,0.92,-2.29,0.50,-0.36,
0.666,-0.30,0.04,0.91,-2.29,0.50,-0.36,
0.666,-0.30,0.04,0.91,-2.42,0.43,-0.41,
0.668,-0.31,0.04,0.92,-2.42,0.43,-0.41,
0.671,-0.30,0.04,0.93,-2.42,0.43,-0.41,
0.671,-0.30,0.04,0.93,-2.54,0.40,-0.37,
0.673,-0.31,0.04,0.93,-2.54,0.40,-0.37,
0.677,-0.30,0.04,0.94,-2.54,0.40,-0.37,
0.677,-0.30,0.04,0.94,-2.53,0.43,-0.28,
0.682,-0.30,0.04,0.95,-2.53,0.43,-0.28,
0.683,-0.30,0.04,0.96,-2.53,0.43,-0.28,
0.683,-0.30,0.04,0.96,-2.50,0.45,-0.14,
0.684,-0.30,0.03,0.97,-2.50,0.45,-0.14,
0.686,-0.29,0.03,0.98,-2.50,0.45,-0.14,
0.686,-0.29,0.03,0.98,-2.41,0.49,0.07,
0.689,-0.29,0.02,1.00,-2.41,0.49,0.07,
0.691,-0.28,0.03,1.01,-2.41,0.49,0.07,
0.691,-0.28,0.03,1.01,-2.35,0.43,0.25,
0.695,-0.27,0.02,1.03,-2.35,0.43,0.25,
0.697,-0.27,0.01,1.04,-2.35,0.43,0.25,
0.697,-0.27,0.01,1.04,-2.23,0.41,0.50,
0.698,-0.27,-0.00,1.05,-2.23,0.41,0.50,
0.701,-0.27,-0.00,1.05,-2.11,0.32,0.79,
0.702,-0.27,-0.01,1.06,-2.11,0.32,0.79,
0.704,-0.26,-0.02,1.07,-2.11,0.32,0.79,
0.706,-0.25,-0.02,1.08,-2.11,0.32,0.79,
0.706,-0.25,-0.02,1.08,-2.05,0.19,1.02,
0.709,-0.25,-0.03,1.09,-2.05,0.19,1.02,
0.71,-0.24,-0.03,1.09,-2.05,0.19,1.02,
0.711,-0.24,-0.03,1.09,-1.90,0.12,1.20,
0.715,-0.24,-0.04,1.10,-1.90,0.12,1.20,
0.716,-0.23,-0.05,1.10,-1.90,0.12,1.20,
0.716,-0.23,-0.05,1.10,-1.78,0.03,1.37,
0.718,-0.23,-0.05,1.11,-1.78,0.03,1.37,
0.721,-0.22,-0.06,1.11,-1.78,0.03,1.37,
0.721,-0.22,-0.06,1.11,-1.66,-0.07,1.45,
0.723,-0.22,-0.06,1.11,-1.66,-0.07,1.45,
0.726,-0.22,-0.06,1.11,-1.54,-0.11,1.50,
0.726,-0.22,-0.06,1.11,-1.54,-0.11,1.50,
0.73,-0.22,-0.06,1.11,-1.54,-0.11,1.50,
0.73,-0.22,-0.06,1.10,-1.54,-0.11,1.50,
0.731,-0.22,-0.06,1.10,-1.51,-0.15,1.53,
0.733,-0.23,-0.06,1.10,-1.51,-0.15,1.53,
0.736,-0.24,-0.06,1.10,-1.51,-0.15,1.53,
0.736,-0.24,-0.06,1.10,-1.50,-0.15,1.46,
0.738,-0.24,-0.06,1.09,-1.50,-0.15,1.46,
0.741,-0.24,-0.06,1.09,-1.58,-0.07,1.41,
0.741,-0.25,-0.06,1.08,-1.58,-0.07,1.41,
0.743,-0.25,-0.06,1.08,-1.58,-0.07,1.41,
0.745,-0.26,-0.05,1.07,-1.58,-0.07,1.41,
0.746,-0.26,-0.05,1.07,-1.65,-0.05,1.30,
0.748,-0.27,-0.05,1.06,-1.65,-0.05,1.30,
0.75,-0.28,-0.05,1.05,-1.65,-0.05,1.30,
0.75,-0.28,-0.05,1.05,-1.72,0.01,1.16,
0.753,-0.29,-0.05,1.04,-1.72,0.01,1.16,
0.756,-0.31,-0.05,1.04,-1.72,0.01,1.16,
0.756,-0.31,-0.05,1.04,-1.89,0.07,0.99,
0.758,-0.31,-0.05,1.03,-1.89,0.07,0.99,
0.761,-0.32,-0.06,1.02,-1.89,0.07,0.99,
0.761,-0.32,-0.06,1.02,-2.09,0.07,0.82,
0.763,-0.33,-0.06,1.02,-2.09,0.07,0.82,
0.765,-0.33,-0.05,1.02,-2.09,0.07,0.82,
0.765,-0.33,-0.05,1.02,-2.27,0.09,0.68,
0.768,-0.33,-0.06,1.02,-2.27,0.09,0.68,
0.771,-0.33,-0.06,1.02,-2.27,0.09,0.68,
0.771,-0.33,-0.06,1.02,-2.38,0.10,0.63,
0.773,-0.33,-0.07,1.02,-2.38,0.10,0.63,
0.775,-0.33,-0.07,1.02,-2.38,0.10,0.63,
0.776,-0.33,-0.07,1.02,-2.37,0.07,0.61,
0.78,-0.33,-0.07,1.02,-2.37,0.07,0.61,
0.78,-0.34,-0.07,1.02,-2.37,0.07,0.61,
0.781,-0.34,-0.07,1.02,-2.35,0.06,0.63,
0.783,-0.33,-0.08,1.03,-2.35,0.06,0.63,
0.785,-0.33,-0.08,1.03,-2.35,0.06,0.63,
0.786,-0.33,-0.08,1.03,-2.35,0.04,0.66,
0.788,-0.33,-0.08,1.03,-2.35,0.04,0.66,
0.79,-0.32,-0.08,1.04,-2.35,0.04,0.66,
0.79,-0.32,-0.08,1.04,-2.33,0.00,0.71,
0.793,-0.32,-0.09,1.05,-2.33,0.00,0.71,
0.797,-0.31,-0.10,1.06,-2.33,0.00,0.71,
0.797,-0.31,-0.10,1.06,-2.24,0.01,0.79,
0.797,-0.31,-0.09,1.06,-2.24,0.01,0.79,
0.799,-0.30,-0.09,1.06,-2.24,0.01,0.79,
0.8,-0.30,-0.09,1.06,-2.12,-0.05,0.94,
0.802,-0.29,-0.09,1.07,-2.12,-0.05,0.94,
0.804,-0.28,-0.09,1.07,-2.12,-0.05,0.94,
0.805,-0.28,-0.09,1.07,-1.98,-0.03,1.02,
0.807,-0.29,-0.09,1.08,-1.98,-0.03,1.02,
0.809,-0.29,-0.10,1.08,-1.98,-0.03,1.02,
0.809,-0.29,-0.10,1.08,-1.83,0.03,1.15,
0.812,-0.28,-0.10,1.08,-1.83,0.03,1.15,
0.814,-0.28,-0.11,1.09,-1.83,0.03,1.15,
0.815,-0.28,-0.11,1.09,-1.78,0.03,1.20,
0.817,-0.28,-0.11,1.09,-1.78,0.03,1.20,
0.819,-0.28,-0.11,1.09,-1.78,0.03,1.20,
0.822,-0.28,-0.11,1.09,-1.70,-0.02,1.29,
0.822,-0.28,-0.11,1.08,-1.70,-0.02,1.29,
0.824,-0.28,-0.11,1.08,-1.70,-0.02,1.29,
0.824,-0.28,-0.11,1.08,-1.67,-0.05,1.33,
0.827,-0.28,-0.11,1.09,-1.67,-0.05,1.33,
0.832,-0.28,-0.11,1.08,-1.67,-0.05,1.33,
0.833,-0.28,-0.11,1.08,-1.60,-0.04,1.25,
0.833,-0.28,-0.11,1.08,-1.60,-0.04,1.25,
0.834,-0.29,-0.11,1.09,-1.60,-0.04,1.25,
0.834,-0.29,-0.11,1.09,-1.63,-0.02,1.27,
0.837,-0.29,-0.11,1.09,-1.63,-0.02,1.27,
0.839,-0.29,-0.10,1.09,-1.63,-0.02,1.27,
0.839,-0.29,-0.10,1.09,-1.63,0.03,1.27,
0.841,-0.29,-0.10,1.09,-1.63,0.03,1.27,
0.846,-0.29,-0.10,1.09,-1.63,0.03,1.27,
0.846,-0.29,-0.10,1.09,-1.67,0.12,1.32,
0.847,-0.30,-0.10,1.10,-1.67,0.12,1.32,
0.849,-0.30,-0.11,1.09,-1.67,0.12,1.32,
0.849,-0.30,-0.11,1.09,-1.63,0.16,1.31,
0.852,-0.31,-0.11,1.09,-1.63,0.16,1.31,
0.854,-0.32,-0.12,1.09,-1.63,0.16,1.31,
0.854,-0.32,-0.12,1.09,-1.71,0.16,1.36,
0.856,-0.33,-0.13,1.09,-1.71,0.16,1.36,
0.859,-0.34,-0.14,1.09,-1.71,0.16,1.36,
0.859,-0.34,-0.14,1.09,-1.83,0.11,1.35,
0.862,-0.34,-0.15,1.09,-1.83,0.11,1.35,
0.865,-0.34,-0.15,1.09,-1.83,0.11,1.35,
0.865,-0.34,-0.15,1.09,-1.99,-0.03,1.34,
0.866,-0.35,-0.16,1.09,-1.99,-0.03,1.34,
0.869,-0.35,-0.16,1.09,-1.99,-0.03,1.34,
0.869,-0.35,-0.16,1.09,-2.07,-0.17,1.35,
0.871,-0.35,-0.17,1.09,-2.07,-0.17,1.35,
0.874,-0.35,-0.17,1.09,-2.07,-0.17,1.35,
0.875,-0.35,-0.17,1.09,-2.13,-0.24,1.36,
0.876,-0.35,-0.17,1.09,-2.13,-0.24,1.36,
0.879,-0.35,-0.17,1.09,-2.13,-0.24,1.36,
0.879,-0.35,-0.17,1.09,-2.14,-0.29,1.31,
0.881,-0.35,-0.17,1.09,-2.14,-0.29,1.31,
0.883,-0.35,-0.16,1.10,-2.14,-0.29,1.31,
0.884,-0.35,-0.16,1.10,-2.13,-0.27,1.34,
0.886,-0.35,-0.16,1.09,-2.13,-0.27,1.34,
0.889,-0.35,-0.16,1.10,-2.13,-0.27,1.34,
0.889,-0.35,-0.16,1.10,-2.11,-0.20,1.35,
0.891,-0.35,-0.15,1.10,-2.11,-0.20,1.35,
0.893,-0.34,-0.14,1.11,-2.11,-0.20,1.35,
0.896,-0.34,-0.14,1.11,-2.09,-0.08,1.39,
0.896,-0.34,-0.14,1.11,-2.09,-0.08,1.39,
0.898,-0.34,-0.14,1.11,-2.09,-0.08,1.39,
0.899,-0.34,-0.14,1.11,-2.01,0.06,1.45,
0.901,-0.34,-0.14,1.12,-2.01,0.06,1.45,
0.903,-0.34,-0.14,1.12,-1.96,0.15,1.56,
0.904,-0.34,-0.14,1.13,-1.96,0.15,1.56,
0.906,-0.34,-0.14,1.13,-1.96,0.15,1.56,
0.908,-0.34,-0.14,1.14,-1.96,0.15,1.56,
0.908,-0.34,-0.14,1.14,-1.95,0.15,1.67,
0.912,-0.34,-0.15,1.14,-1.95,0.15,1.67,
0.914,-0.34,-0.15,1.14,-1.95,0.15,1.67,
0.914,-0.34,-0.15,1.14,-1.95,0.15,1.77,
0.916,-0.33,-0.16,1.14,-1.95,0.15,1.77,
0.919,-0.33,-0.16,1.16,-1.95,0.15,1.77,
0.919,-0.33,-0.16,1.16,-1.90,0.09,1.86,
0.921,-0.33,-0.17,1.15,-1.90,0.09,1.86,
0.923,-0.33,-0.17,1.15,-1.90,0.09,1.86,
0.923,-0.33,-0.17,1.15,-1.85,0.03,1.92,
0.926,-0.32,-0.18,1.15,-1.85,0.03,1.92,
0.929,-0.32,-0.18,1.16,-1.85,0.03,1.92,
0.93,-0.32,-0.18,1.16,-1.82,-0.03,1.92,
0.931,-0.32,-0.19,1.16,-1.82,-0.03,1.92,
0.933,-0.32,-0.19,1.16,-1.82,-0.03,1.92,
0.933,-0.32,-0.19,1.16,-1.72,-0.10,1.95,
0.936,-0.32,-0.20,1.16,-1.72,-0.10,1.95,
0.939,-0.32,-0.21,1.16,-1.72,-0.10,1.95,
0.939,-0.32,-0.21,1.16,-1.69,-0.16,1.99,
0.941,-0.33,-0.21,1.15,-1.69,-0.16,1.99,
0.943,-0.33,-0.22,1.15,-1.69,-0.16,1.99,
0.943,-0.33,-0.22,1.15,-1.72,-0.28,1.96,
0.95,-0.33,-0.23,1.15,-1.72,-0.28,1.96,
0.95,-0.33,-0.24,1.15,-1.72,-0.28,1.96,
0.95,-0.33,-0.24,1.15,-1.76,-0.40,1.92,
0.951,-0.33,-0.24,1.14,-1.76,-0.40,1.92,
0.953,-0.33,-0.25,1.15,-1.76,-0.40,1.92,
0.954,-0.33,-0.25,1.15,-1.81,-0.56,1.87,
0.955,-0.32,-0.25,1.14,-1.81,-0.56,1.87,
0.958,-0.31,-0.25,1.13,-1.81,-0.56,1.87,
0.958,-0.31,-0.25,1.13,-1.75,-0.65,1.84,
0.96,-0.31,-0.25,1.13,-1.75,-0.65,1.84,
0.963,-0.30,-0.25,1.13,-1.75,-0.65,1.84,
0.964,-0.30,-0.25,1.13,-1.63,-0.68,1.75,
0.965,-0.29,-0.25,1.12,-1.63,-0.68,1.75,
0.969,-0.28,-0.25,1.11,-1.63,-0.68,1.75,
0.969,-0.28,-0.25,1.11,-1.48,-0.73,1.66,
0.97,-0.27,-0.25,1.11,-1.48,-0.73,1.66,
0.973,-0.25,-0.25,1.10,-1.48,-0.73,1.66,
0.973,-0.25,-0.25,1.10,-1.30,-0.68,1.53,
0.975,-0.25,-0.24,1.10,-1.30,-0.68,1.53,
0.978,-0.24,-0.23,1.10,-1.30,-0.68,1.53,
0.978,-0.24,-0.23,1.10,-1.05,-0.65,1.45,
0.98,-0.24,-0.23,1.10,-1.05,-0.65,1.45,
0.983,-0.23,-0.23,1.09,-1.05,-0.65,1.45,
0.983,-0.23,-0.23,1.09,-0.89,-0.54,1.40,
0.986,-0.22,-0.23,1.09,-0.89,-0.54,1.40,
0.988,-0.22,-0.22,1.08,-0.89,-0.54,1.40,
0.988,-0.22,-0.22,1.08,-0.76,-0.48,1.33,
0.99,-0.21,-0.22,1.08,-0.76,-0.48,1.33,
0.993,-0.21,-0.22,1.08,-0.76,-0.48,1.33,
0.993,-0.21,-0.22,1.08,-0.64,-0.44,1.22,
0.997,-0.21,-0.22,1.07,-0.64,-0.44,1.22,
0.998,-0.20,-0.22,1.07,-0.64,-0.44,1.22,
0.998,-0.20,-0.22,1.07,-0.55,-0.41,1.21,
1.001,-0.20,-0.22,1.07,-0.55,-0.41,1.21,
1.003,-0.21,-0.22,1.08,-0.55,-0.41,1.21,
1.003,-0.21,-0.22,1.08,-0.47,-0.38,1.11,
1.005,-0.20,-0.22,1.08,-0.47,-0.38,1.11,
1.008,-0.20,-0.22,1.07,-0.47,-0.38,1.11,
1.008,-0.20,-0.22,1.07,-0.45,-0.34,1.13,
1.013,-0.20,-0.21,1.08,-0.45,-0.34,1.13,
1.013,-0.20,-0.22,1.08,-0.45,-0.34,1.13,
1.013,-0.20,-0.22,1.08,-0.41,-0.35,1.11,
1.016,-0.20,-0.22,1.08,-0.41,-0.35,1.11,
1.018,-0.20,-0.22,1.08,-0.41,-0.35,1.11,
1.018,-0.20,-0.22,1.08,-0.44,-0.31,1.17,
1.021,-0.20,-0.22,1.08,-0.44,-0.31,1.17,
1.023,-0.20,-0.22,1.08,-0.44,-0.31,1.17,
1.023,-0.20,-0.22,1.08,-0.41,-0.36,1.15,
1.025,-0.20,-0.22,1.08,-0.41,-0.36,1.15,
1.028,-0.19,-0.23,1.08,-0.41,-0.36,1.15,
1.028,-0.19,-0.23,1.08,-0.40,-0.36,1.16,
1.03,-0.20,-0.23,1.09,-0.40,-0.36,1.16,
1.032,-0.19,-0.23,1.08,-0.40,-0.36,1.16,
1.032,-0.19,-0.23,1.08,-0.36,-0.41,1.16,
1.035,-0.19,-0.24,1.08,-0.36,-0.41,1.16,
1.037,-0.19,-0.24,1.08,-0.31,-0.44,1.20,
1.037,-0.18,-0.24,1.08,-0.31,-0.44,1.20,
1.04,-0.17,-0.24,1.08,-0.31,-0.44,1.20,
1.043,-0.16,-0.25,1.08,-0.31,-0.44,1.20,
1.043,-0.16,-0.25,1.08,-0.20,-0.51,1.15,
1.045,-0.15,-0.25,1.08,-0.20,-0.51,1.15,
1.049,-0.15,-0.25,1.09,-0.20,-0.51,1.15,
1.049,-0.15,-0.25,1.09,-0.04,-0.54,1.15,
1.05,-0.14,-0.25,1.09,-0.04,-0.54,1.15,
1.052,-0.14,-0.25,1.09,-0.04,-0.54,1.15,
1.052,-0.14,-0.25,1.09,0.09,-0.58,1.19,
1.055,-0.14,-0.25,1.09,0.09,-0.58,1.19,
1.058,-0.13,-0.25,1.09,0.09,-0.58,1.19,
1.058,-0.13,-0.25,1.09,0.18,-0.61,1.24,
1.06,-0.13,-0.25,1.09,0.18,-0.61,1.24,
1.064,-0.13,-0.25,1.10,0.18,-0.61,1.24,
1.064,-0.13,-0.25,1.10,0.25,-0.61,1.24,
1.065,-0.13,-0.25,1.10,0.25,-0.61,1.24,
1.067,-0.12,-0.25,1.10,0.25,-0.61,1.24,
1.067,-0.12,-0.25,1.10,0.29,-0.61,1.27,
1.069,-0.12,-0.25,1.11,0.29,-0.61,1.27,
1.073,-0.12,-0.25,1.11,0.29,-0.61,1.27,
1.073,-0.12,-0.25,1.11,0.34,-0.61,1.36,
1.075,-0.12,-0.25,1.11,0.34,-0.61,1.36,
1.077,-0.12,-0.25,1.11,0.34,-0.61,1.36,
1.078,-0.12,-0.25,1.11,0.36,-0.60,1.42,
1.08,-0.12,-0.25,1.11,0.36,-0.60,1.42,
1.082,-0.12,-0.25,1.12,0.36,-0.60,1.42,
1.083,-0.12,-0.25,1.12,0.37,-0.59,1.42,
1.084,-0.12,-0.24,1.11,0.37,-0.59,1.42,
1.087,-0.13,-0.24,1.11,0.37,-0.59,1.42,
1.087,-0.13,-0.24,1.11,0.36,-0.55,1.44,
1.09,-0.13,-0.24,1.12,0.36,-0.55,1.44,
1.092,-0.14,-0.23,1.12,0.36,-0.55,1.44,
1.093,-0.14,-0.23,1.12,0.38,-0.47,1.43,
1.095,-0.14,-0.24,1.12,0.38,-0.47,1.43,
1.098,-0.15,-0.23,1.12,0.38,-0.47,1.43,
1.098,-0.15,-0.23,1.12,0.28,-0.44,1.48,
1.099,-0.16,-0.24,1.12,0.28,-0.44,1.48,
1.102,-0.16,-0.24,1.12,0.28,-0.44,1.48,
1.103,-0.16,-0.24,1.12,0.17,-0.44,1.51,
1.105,-0.16,-0.23,1.12,0.17,-0.44,1.51,
1.107,-0.16,-0.23,1.12,0.17,-0.44,1.51,
1.107,-0.16,-0.23,1.12,0.08,-0.46,1.51,
1.11,-0.16,-0.22,1.12,0.08,-0.46,1.51,
1.112,-0.16,-0.22,1.12,0.08,-0.46,1.51,
1.112,-0.16,-0.22,1.12,0.05,-0.40,1.46,
1.115,-0.16,-0.21,1.11,0.05,-0.40,1.46,
1.117,-0.16,-0.21,1.11,0.05,-0.40,1.46,
1.117,-0.16,-0.21,1.11,0.07,-0.33,1.48,
1.119,-0.16,-0.21,1.12,0.07,-0.33,1.48,
1.122,-0.15,-0.21,1.12,0.07,-0.33,1.48,
1.122,-0.15,-0.21,1.12,0.07,-0.25,1.40,
1.124,-0.15,-0.21,1.11,0.07,-0.25,1.40,
1.127,-0.14,-0.21,1.11,0.07,-0.25,1.40,
1.127,-0.14,-0.21,1.11,0.15,-0.28,1.45,
1.131,-0.14,-0.21,1.11,0.15,-0.28,1.45,
1.131,-0.13,-0.21,1.11,0.15,-0.28,1.45,
1.132,-0.13,-0.21,1.11,0.26,-0.29,1.38,
1.134,-0.13,-0.21,1.11,0.26,-0.29,1.38,
1.137,-0.12,-0.21,1.10,0.26,-0.29,1.38,
1.137,-0.12,-0.21,1.10,0.38,-0.27,1.37,
1.139,-0.12,-0.21,1.10,0.38,-0.27,1.37,
1.141,-0.11,-0.21,1.10,0.38,-0.27,1.37,
1.142,-0.11,-0.21,1.10,0.52,-0.33,1.33,
1.144,-0.11,-0.21,1.09,0.52,-0.33,1.33,
1.147,-0.11,-0.22,1.09,0.52,-0.33,1.33,
1.148,-0.11,-0.22,1.09,0.60,-0.34,1.24,
1.148,-0.10,-0.22,1.09,0.60,-0.34,1.24,
1.152,-0.10,-0.22,1.09,0.60,-0.34,1.24,
1.152,-0.10,-0.22,1.09,0.69,-0.38,1.17,
1.153,-0.09,-0.22,1.09,0.69,-0.38,1.17,
1.156,-0.08,-0.22,1.09,0.69,-0.38,1.17,
1.156,-0.08,-0.22,1.09,0.80,-0.44,1.15,
1.159,-0.08,-0.22,1.09,0.80,-0.44,1.15,
1.161,-0.08,-0.22,1.09,0.80,-0.44,1.15,
1.161,-0.08,-0.22,1.09,0.92,-0.42,1.14,
1.167,-0.08,-0.23,1.09,0.92,-0.42,1.14,
1.168,-0.07,-0.22,1.09,0.92,-0.42,1.14,
1.168,-0.07,-0.22,1.09,1.01,-0.48,1.15,
1.168,-0.07,-0.23,1.09,1.01,-0.48,1.15,
1.171,-0.07,-0.23,1.09,1.01,-0.48,1.15,
1.171,-0.07,-0.23,1.09,1.04,-0.52,1.16,
1.173,-0.07,-0.23,1.09,1.04,-0.52,1.16,
1.176,-0.06,-0.23,1.10,1.04,-0.52,1.16,
1.176,-0.06,-0.23,1.10,1.09,-0.55,1.11,
1.178,-0.06,-0.23,1.10,1.09,-0.55,1.11,
1.181,-0.06,-0.23,1.10,1.09,-0.55,1.11,
1.182,-0.06,-0.23,1.10,1.14,-0.60,1.20,
1.183,-0.06,-0.23,1.12,1.14,-0.60,1.20,
1.186,-0.05,-0.23,1.12,1.14,-0.60,1.20,
1.186,-0.05,-0.23,1.12,1.19,-0.60,1.24,
1.188,-0.05,-0.22,1.12,1.19,-0.60,1.24,
1.19,-0.05,-0.22,1.13,1.19,-0.60,1.24,
1.191,-0.05,-0.22,1.13,1.25,-0.58,1.39,
1.193,-0.05,-0.22,1.12,1.25,-0.58,1.39,
1.195,-0.04,-0.21,1.12,1.25,-0.58,1.39,
1.196,-0.04,-0.21,1.12,1.35,-0.54,1.44,
1.198,-0.04,-0.21,1.13,1.35,-0.54,1.44,
1.2,-0.03,-0.22,1.13,1.35,-0.54,1.44,
1.201,-0.03,-0.22,1.13,1.38,-0.48,1.39,
1.203,-0.03,-0.22,1.13,1.38,-0.48,1.39,
1.206,-0.03,-0.22,1.13,1.38,-0.48,1.39,
1.206,-0.03,-0.22,1.13,1.49,-0.52,1.49,
1.208,-0.03,-0.22,1.12,1.49,-0.52,1.49,
1.21,-0.03,-0.22,1.12,1.49,-0.52,1.49,
1.21,-0.03,-0.22,1.12,1.52,-0.60,1.45,
1.214,-0.03,-0.22,1.12,1.52,-0.60,1.45,
1.216,-0.03,-0.22,1.11,1.52,-0.60,1.45,
1.216,-0.03,-0.22,1.11,1.58,-0.63,1.39,
1.218,-0.03,-0.22,1.10,1.58,-0.63,1.39,
1.22,-0.03,-0.22,1.10,1.58,-0.63,1.39,
1.22,-0.03,-0.22,1.10,1.58,-0.66,1.31,
1.223,-0.03,-0.22,1.10,1.58,-0.66,1.31,
1.225,-0.02,-0.22,1.09,1.58,-0.66,1.31,
1.226,-0.02,-0.22,1.09,1.62,-0.66,1.19,
1.228,-0.02,-0.21,1.09,1.62,-0.66,1.19,
1.232,-0.02,-0.21,1.08,1.62,-0.66,1.19,
1.232,-0.02,-0.21,1.08,1.65,-0.69,1.11,
1.233,-0.03,-0.21,1.08,1.65,-0.69,1.11,
1.235,-0.03,-0.21,1.07,1.65,-0.69,1.11,
1.235,-0.03,-0.21,1.07,1.68,-0.61,1.04,
1.237,-0.03,-0.21,1.07,1.68,-0.61,1.04,
1.24,-0.03,-0.21,1.07,1.68,-0.61,1.04,
1.24,-0.03,-0.21,1.07,1.67,-0.61,0.94,
1.243,-0.03,-0.20,1.06,1.67,-0.61,0.94,
1.245,-0.03,-0.20,1.07,1.67,-0.61,0.94,
1.245,-0.03,-0.20,1.07,1.67,-0.60,0.88,
1.248,-0.03,-0.20,1.07,1.67,-0.60,0.88,
1.25,-0.02,-0.20,1.07,1.67,-0.60,0.88,
1.25,-0.02,-0.20,1.07,1.69,-0.56,0.85,
1.253,-0.02,-0.20,1.07,1.69,-0.56,0.85,
1.255,-0.02,-0.20,1.07,1.74,-0.55,0.90,
1.255,-0.01,-0.19,1.07,1.74,-0.55,0.90,
1.258,-0.01,-0.19,1.08,1.74,-0.55,0.90,
1.26,-0.00,-0.19,1.08,1.74,-0.55,0.90,
1.26,-0.00,-0.19,1.08,1.86,-0.54,0.91,
1.262,-0.00,-0.19,1.08,1.86,-0.54,0.91,
1.268,0.00,-0.19,1.08,1.86,-0.54,0.91,
1.269,0.00,-0.19,1.08,1.94,-0.52,0.96,
1.269,0.00,-0.19,1.09,1.94,-0.52,0.96,
1.27,0.01,-0.19,1.10,1.94,-0.52,0.96,
1.271,0.01,-0.19,1.10,2.00,-0.51,0.99,
1.272,0.01,-0.19,1.10,2.00,-0.51,0.99,
1.275,0.01,-0.19,1.10,2.00,-0.51,0.99,
1.275,0.01,-0.19,1.10,2.04,-0.50,1.08,
1.277,0.01,-0.19,1.11,2.04,-0.50,1.08,
1.28,0.01,-0.20,1.13,2.04,-0.50,1.08,
1.282,0.01,-0.20,1.13,2.11,-0.51,1.17,
1.283,0.02,-0.20,1.13,2.11,-0.51,1.17,
1.284,0.02,-0.20,1.14,2.11,-0.51,1.17,
1.285,0.02,-0.20,1.14,2.10,-0.57,1.35,
1.287,0.02,-0.20,1.16,2.10,-0.57,1.35,
1.29,0.03,-0.19,1.16,2.10,-0.57,1.35,
1.29,0.03,-0.19,1.16,2.16,-0.59,1.53,
1.292,0.03,-0.20,1.18,2.16,-0.59,1.53,
1.294,0.03,-0.20,1.19,2.16,-0.59,1.53,
1.295,0.03,-0.20,1.19,2.22,-0.56,1.74,
1.297,0.02,-0.20,1.19,2.22,-0.56,1.74,
1.299,0.03,-0.20,1.20,2.22,-0.56,1.74,
1.3,0.03,-0.20,1.20,2.26,-0.62,1.94,
1.302,0.03,-0.21,1.20,2.26,-0.62,1.94,
1.305,0.03,-0.21,1.20,2.18,-0.65,2.08,
1.305,0.03,-0.21,1.21,2.18,-0.65,2.08,
1.307,0.02,-0.21,1.21,2.18,-0.65,2.08,
1.309,0.02,-0.21,1.21,2.18,-0.65,2.08,
1.31,0.02,-0.21,1.21,2.17,-0.72,2.16,
1.312,0.02,-0.21,1.21,2.17,-0.72,2.16,
1.315,0.02,-0.21,1.20,2.17,-0.72,2.16,
1.318,0.02,-0.21,1.20,2.11,-0.72,2.17,
1.319,0.01,-0.20,1.20,2.11,-0.72,2.17,
1.319,0.01,-0.20,1.19,2.11,-0.72,2.17,
1.32,0.01,-0.20,1.19,2.09,-0.71,2.12,
1.322,0.00,-0.19,1.18,2.09,-0.71,2.12,
1.324,-0.01,-0.19,1.17,2.09,-0.71,2.12,
1.324,-0.01,-0.19,1.17,2.00,-0.67,2.00,
1.327,-0.02,-0.18,1.16,2.00,-0.67,2.00,
1.329,-0.03,-0.18,1.15,2.00,-0.67,2.00,
1.329,-0.03,-0.18,1.15,1.84,-0.59,1.81,
1.332,-0.04,-0.17,1.13,1.84,-0.59,1.81,
1.334,-0.05,-0.17,1.12,1.84,-0.59,1.81,
1.335,-0.05,-0.17,1.12,1.65,-0.51,1.59,
1.337,-0.05,-0.17,1.11,1.65,-0.51,1.59,
1.343,-0.06,-0.16,1.10,1.65,-0.51,1.59,
1.343,-0.06,-0.16,1.10,1.42,-0.44,1.35,
1.344,-0.07,-0.16,1.09,1.42,-0.44,1.35,
1.345,-0.08,-0.16,1.09,1.42,-0.44,1.35,
1.345,-0.08,-0.16,1.09,1.29,-0.42,1.14,
1.347,-0.08,-0.15,1.09,1.29,-0.42,1.14,
1.349,-0.08,-0.15,1.08,1.29,-0.42,1.14,
1.349,-0.08,-0.15,1.08,1.12,-0.41,0.98,
1.352,-0.08,-0.15,1.07,1.12,-0.41,0.98,
1.355,-0.08,-0.15,1.06,1.12,-0.41,0.98,
1.355,-0.08,-0.15,1.06,1.05,-0.33,0.88,
1.357,-0.08,-0.15,1.06,1.05,-0.33,0.88,
1.359,-0.09,-0.16,1.06,1.05,-0.33,0.88,
1.36,-0.09,-0.16,1.06,1.04,-0.35,0.71,
1.362,-0.08,-0.16,1.06,1.04,-0.35,0.71,
1.366,-0.08,-0.16,1.06,1.04,-0.35,0.71,
1.366,-0.08,-0.16,1.06,1.00,-0.42,0.61,
1.367,-0.08,-0.16,1.06,1.00,-0.42,0.61,
1.369,-0.08,-0.16,1.06,1.00,-0.42,0.61,
1.369,-0.08,-0.16,1.06,1.03,-0.47,0.63,
1.372,-0.07,-0.17,1.06,1.03,-0.47,0.63,
1.374,-0.07,-0.16,1.07,1.03,-0.47,0.63,
1.375,-0.07,-0.16,1.07,1.05,-0.51,0.64,
1.377,-0.06,-0.16,1.07,1.05,-0.51,0.64,
1.379,-0.06,-0.16,1.08,1.05,-0.51,0.64,
1.379,-0.06,-0.16,1.08,1.13,-0.59,0.69,
1.386,-0.05,-0.17,1.09,1.13,-0.59,0.69,
1.386,-0.04,-0.17,1.09,1.13,-0.59,0.69,
1.386,-0.04,-0.17,1.09,1.24,-0.57,0.79,
1.387,-0.03,-0.17,1.09,1.24,-0.57,0.79,
1.389,-0.02,-0.17,1.09,1.24,-0.57,0.79,
1.389,-0.02,-0.17,1.09,1.37,-0.62,0.94,
1.391,-0.01,-0.17,1.11,1.37,-0.62,0.94,
1.394,-0.00,-0.17,1.12,1.37,-0.62,0.94,
1.394,-0.00,-0.17,1.12,1.54,-0.65,0.94,
1.397,0.00,-0.17,1.12,1.54,-0.65,0.94,
1.399,0.01,-0.18,1.13,1.54,-0.65,0.94,
1.399,0.01,-0.18,1.13,1.72,-0.67,1.13,
1.401,0.01,-0.18,1.13,1.72,-0.67,1.13,
1.404,0.01,-0.18,1.13,1.72,-0.67,1.13,
1.404,0.01,-0.18,1.13,1.83,-0.75,1.26,
1.407,0.02,-0.18,1.13,1.83,-0.75,1.26,
1.409,0.03,-0.18,1.13,1.83,-0.75,1.26,
1.409,0.03,-0.18,1.13,1.88,-0.77,1.31,
1.412,0.03,-0.18,1.14,1.88,-0.77,1.31,
1.414,0.03,-0.18,1.14,1.88,-0.77,1.31,
1.414,0.03,-0.18,1.14,1.97,-0.81,1.32,
1.417,0.03,-0.18,1.14,1.97,-0.81,1.32,
1.418,0.04,-0.19,1.13,1.97,-0.81,1.32,
1.419,0.04,-0.19,1.13,2.03,-0.83,1.38,
1.422,0.04,-0.18,1.13,2.03,-0.83,1.38,
1.424,0.04,-0.18,1.13,2.10,-0.88,1.35,
1.424,0.04,-0.19,1.13,2.10,-0.88,1.35,
1.426,0.04,-0.18,1.12,2.10,-0.88,1.35,
1.429,0.04,-0.19,1.11,2.10,-0.88,1.35,
1.429,0.04,-0.19,1.11,2.12,-0.90,1.25,
1.433,0.04,-0.18,1.11,2.12,-0.90,1.25,
1.434,0.05,-0.18,1.10,2.12,-0.90,1.25,
1.434,0.05,-0.18,1.10,2.13,-0.92,1.12,
1.436,0.04,-0.18,1.10,2.13,-0.92,1.12,
1.439,0.04,-0.18,1.10,2.13,-0.92,1.12,
1.439,0.04,-0.18,1.10,2.13,-0.90,1.02,
1.442,0.03,-0.17,1.10,2.13,-0.90,1.02,
1.444,0.03,-0.18,1.09,2.13,-0.90,1.02,
1.444,0.03,-0.18,1.09,2.09,-0.90,0.97,
1.446,0.03,-0.18,1.09,2.09,-0.90,0.97,
1.448,0.02,-0.17,1.08,2.09,-0.90,0.97,
1.448,0.02,-0.17,1.08,1.96,-0.88,0.88,
1.451,0.02,-0.17,1.08,1.96,-0.88,0.88,
1.453,0.02,-0.17,1.07,1.96,-0.88,0.88,
1.453,0.02,-0.17,1.07,1.89,-0.88,0.80,
1.456,0.02,-0.16,1.07,1.89,-0.88,0.80,
1.458,0.01,-0.16,1.06,1.89,-0.88,0.80,
1.459,0.01,-0.16,1.06,1.82,-0.84,0.72,
1.461,0.01,-0.16,1.05,1.82,-0.84,0.72,
1.463,0.00,-0.15,1.05,1.82,-0.84,0.72,
1.463,0.00,-0.15,1.05,1.76,-0.75,0.61,
1.466,-0.00,-0.15,1.05,1.76,-0.75,0.61,
1.468,-0.01,-0.15,1.05,1.76,-0.75,0.61,
1.468,-0.01,-0.15,1.05,1.65,-0.73,0.46,
1.47,-0.01,-0.14,1.05,1.65,-0.73,0.46,
1.473,-0.01,-0.14,1.04,1.65,-0.73,0.46,
1.473,-0.01,-0.14,1.04,1.53,-0.70,0.47,
1.475,-0.01,-0.14,1.04,1.53,-0.70,0.47,
1.478,-0.01,-0.14,1.04,1.53,-0.70,0.47,
1.479,-0.01,-0.14,1.04,1.43,-0.64,0.40,
1.481,-0.01,-0.14,1.04,1.43,-0.64,0.40,
1.484,-0.01,-0.14,1.04,1.43,-0.64,0.40,
1.484,-0.01,-0.14,1.04,1.43,-0.60,0.36,
1.485,-0.01,-0.13,1.04,1.43,-0.60,0.36,
1.488,-0.01,-0.13,1.04,1.43,-0.60,0.36,
1.488,-0.01,-0.13,1.04,1.40,-0.63,0.32,
1.49,-0.01,-0.13,1.04,1.40,-0.63,0.32,
1.493,-0.00,-0.12,1.04,1.40,-0.63,0.32,
1.493,-0.00,-0.12,1.04,1.38,-0.56,0.32,
1.495,-0.00,-0.12,1.04,1.38,-0.56,0.32,
1.499,-0.01,-0.13,1.05,1.38,-0.56,0.32,
1.499,-0.01,-0.13,1.05,1.38,-0.54,0.29,
1.505,-0.01,-0.13,1.05,1.38,-0.54,0.29,
1.506,-0.00,-0.13,1.06,1.38,-0.54,0.29,
1.506,-0.00,-0.13,1.06,1.40,-0.50,0.35,
1.506,-0.00,-0.13,1.06,1.40,-0.50,0.35,
1.507,-0.01,-0.14,1.07,1.40,-0.50,0.35,
1.509,-0.01,-0.14,1.07,1.39,-0.55,0.45,
1.511,-0.01,-0.14,1.08,1.39,-0.55,0.45,
1.513,-0.01,-0.14,1.09,1.39,-0.55,0.45,
1.514,-0.01,-0.14,1.09,1.37,-0.60,0.59,
1.515,-0.01,-0.14,1.09,1.37,-0.60,0.59,
1.518,-0.01,-0.14,1.09,1.30,-0.66,0.71,
1.519,-0.01,-0.14,1.10,1.30,-0.66,0.71,
1.52,-0.02,-0.15,1.11,1.30,-0.66,0.71,
1.522,-0.02,-0.14,1.12,1.30,-0.66,0.71,
1.522,-0.02,-0.14,1.12,1.30,-0.70,0.83,
1.525,-0.02,-0.15,1.13,1.30,-0.70,0.83,
1.528,-0.02,-0.15,1.13,1.30,-0.70,0.83,
1.529,-0.02,-0.15,1.13,1.21,-0.72,1.05,
1.53,-0.03,-0.15,1.14,1.21,-0.72,1.05,
1.534,-0.03,-0.16,1.15,1.21,-0.72,1.05,
1.535,-0.03,-0.16,1.15,1.15,-0.76,1.15,
1.535,-0.02,-0.16,1.15,1.15,-0.76,1.15,
1.538,-0.03,-0.16,1.15,1.15,-0.76,1.15,
1.538,-0.03,-0.16,1.15,1.07,-0.83,1.30,
1.539,-0.02,-0.15,1.14,1.07,-0.83,1.30,
1.542,-0.02,-0.15,1.14,1.07,-0.83,1.30,
1.543,-0.02,-0.15,1.14,1.09,-0.87,1.33,
1.544,-0.02,-0.15,1.14,1.09,-0.87,1.33,
1.548,-0.01,-0.15,1.13,1.09,-0.87,1.33,
1.548,-0.01,-0.15,1.13,1.08,-0.86,1.25,
1.552,-0.01,-0.15,1.13,1.08,-0.86,1.25,
1.553,-0.01,-0.15,1.12,1.08,-0.86,1.25,
1.553,-0.01,-0.15,1.12,1.14,-0.86,1.15,
1.554,-0.01,-0.15,1.10,1.14,-0.86,1.15,
1.557,-0.01,-0.15,1.10,1.14,-0.86,1.15,
1.558,-0.01,-0.15,1.10,1.18,-0.88,1.02,
1.559,-0.01,-0.15,1.08,1.18,-0.88,1.02,
1.563,-0.01,-0.14,1.08,1.18,-0.88,1.02,
1.563,-0.01,-0.14,1.08,1.17,-0.89,0.79,
1.564,-0.01,-0.14,1.07,1.17,-0.89,0.79,
1.568,-0.01,-0.14,1.05,1.17,-0.89,0.79,
1.568,-0.01,-0.14,1.05,1.14,-0.89,0.58,
1.569,-0.02,-0.14,1.04,1.14,-0.89,0.58,
1.572,-0.02,-0.14,1.03,1.14,-0.89,0.58,
1.572,-0.02,-0.14,1.03,1.10,-0.88,0.38,
1.574,-0.02,-0.14,1.02,1.10,-0.88,0.38,
1.577,-0.02,-0.13,1.01,1.10,-0.88,0.38,
1.577,-0.02,-0.13,1.01,1.02,-0.90,0.15,
1.58,-0.03,-0.13,0.99,1.02,-0.90,0.15,
1.583,-0.03,-0.12,0.99,1.02,-0.90,0.15,
1.583,-0.03,-0.12,0.99,0.99,-0.86,-0.07,
1.585,-0.03,-0.13,0.98,0.99,-0.86,-0.07,
1.587,-0.03,-0.12,0.97,0.99,-0.86,-0.07,
1.588,-0.03,-0.12,0.97,0.88,-0.81,-0.30,
1.59,-0.02,-0.11,0.95,0.88,-0.81,-0.30,
1.591,-0.02,-0.10,0.94,0.88,-0.81,-0.30,
1.592,-0.02,-0.10,0.94,0.85,-0.80,-0.50,
1.594,-0.02,-0.10,0.94,0.85,-0.80,-0.50,
1.605,-0.01,-0.10,0.94,0.85,-0.80,-0.50,
1.605,-0.01,-0.10,0.94,0.93,-0.69,-0.73,
1.605,-0.01,-0.09,0.93,0.93,-0.69,-0.73,
1.606,-0.00,-0.09,0.92,0.93,-0.69,-0.73,
1.608,-0.00,-0.09,0.92,0.95,-0.62,-0.80,
1.608,-0.00,-0.09,0.92,0.95,-0.62,-0.80,
1.608,-0.00,-0.09,0.92,0.95,-0.62,-0.80,
1.609,-0.00,-0.09,0.92,1.00,-0.61,-0.96,
1.609,-0.00,-0.09,0.92,1.00,-0.61,-0.96,
1.613,-0.00,-0.09,0.92,0.99,-0.59,-0.97,
1.613,-0.00,-0.09,0.92,0.99,-0.59,-0.97,
1.614,0.00,-0.08,0.91,0.99,-0.59,-0.97,
1.618,0.00,-0.08,0.91,0.99,-0.59,-0.97,
1.619,0.00,-0.08,0.91,0.96,-0.60,-0.97,
1.619,0.01,-0.08,0.92,0.96,-0.60,-0.97,
1.621,0.01,-0.08,0.92,0.96,-0.60,-0.97,
1.622,0.01,-0.08,0.92,0.99,-0.60,-1.04,
1.624,0.01,-0.08,0.92,0.99,-0.60,-1.04,
1.626,0.01,-0.07,0.92,0.99,-0.60,-1.04,
1.626,0.01,-0.07,0.92,1.04,-0.59,-1.00,
1.629,0.01,-0.07,0.92,1.04,-0.59,-1.00,
1.631,0.02,-0.07,0.93,1.04,-0.59,-1.00,
1.634,0.02,-0.07,0.93,1.01,-0.58,-0.99,
1.634,0.01,-0.07,0.93,1.01,-0.58,-0.99,
1.636,0.01,-0.07,0.93,1.01,-0.58,-0.99,
1.636,0.01,-0.07,0.93,1.03,-0.52,-0.92,
1.639,0.01,-0.07,0.93,1.03,-0.52,-0.92,
1.642,0.01,-0.06,0.93,1.03,-0.52,-0.92,
1.642,0.01,-0.06,0.93,0.98,-0.54,-0.88,
1.643,0.01,-0.06,0.93,0.98,-0.54,-0.88,
1.646,0.01,-0.06,0.93,0.98,-0.54,-0.88,
1.646,0.01,-0.06,0.93,0.96,-0.53,-0.85,
1.651,0.01,-0.06,0.93,0.96,-0.53,-0.85,
1.652,0.00,-0.05,0.94,0.96,-0.53,-0.85,
1.652,0.00,-0.05,0.94,0.91,-0.47,-0.84,
1.654,0.00,-0.05,0.94,0.91,-0.47,-0.84,
1.657,0.00,-0.05,0.93,0.91,-0.47,-0.84,
1.657,0.00,-0.05,0.93,0.85,-0.43,-0.81,
1.658,0.00,-0.04,0.94,0.85,-0.43,-0.81,
1.661,0.00,-0.04,0.94,0.83,-0.40,-0.82,
1.662,0.00,-0.04,0.95,0.83,-0.40,-0.82,
1.664,0.00,-0.04,0.96,0.83,-0.40,-0.82,
1.667,-0.00,-0.04,0.96,0.83,-0.40,-0.82,
1.667,-0.00,-0.04,0.96,0.79,-0.38,-0.69,
1.669,-0.00,-0.04,0.95,0.79,-0.38,-0.69,
1.671,-0.01,-0.04,0.95,0.79,-0.38,-0.69,
1.672,-0.01,-0.04,0.95,0.73,-0.38,-0.58,
1.674,0.00,-0.03,0.95,0.73,-0.38,-0.58,
1.676,-0.00,-0.03,0.95,0.73,-0.38,-0.58,
1.676,-0.00,-0.03,0.95,0.67,-0.35,-0.68,
1.678,-0.00,-0.02,0.95,0.67,-0.35,-0.68,
1.681,-0.00,-0.03,0.94,0.67,-0.35,-0.68,
1.681,-0.00,-0.03,0.94,0.69,-0.31,-0.67,
1.685,-0.01,-0.02,0.94,0.69,-0.31,-0.67,
1.686,-0.00,-0.02,0.95,0.69,-0.31,-0.67,
1.686,-0.00,-0.02,0.95,0.64,-0.26,-0.72,
1.689,-0.01,-0.02,0.95,0.64,-0.26,-0.72,
1.691,-0.02,-0.02,0.95,0.64,-0.26,-0.72,
1.691,-0.02,-0.02,0.95,0.61,-0.25,-0.71,
1.694,-0.01,-0.02,0.95,0.61,-0.25,-0.71,
1.695,-0.01,-0.02,0.96,0.61,-0.25,-0.71,
1.696,-0.01,-0.02,0.96,0.52,-0.23,-0.68,
1.699,-0.01,-0.02,0.96,0.52,-0.23,-0.68,
1.701,-0.02,-0.03,0.96,0.52,-0.23,-0.68,
1.701,-0.02,-0.03,0.96,0.50,-0.25,-0.65,
1.703,-0.01,-0.03,0.95,0.50,-0.25,-0.65,
1.706,-0.01,-0.03,0.95,0.50,-0.25,-0.65,
1.706,-0.01,-0.03,0.95,0.46,-0.31,-0.58,
1.709,-0.01,-0.03,0.96,0.46,-0.31,-0.58,
1.711,-0.02,-0.04,0.97,0.46,-0.31,-0.58,
1.711,-0.02,-0.04,0.97,0.48,-0.40,-0.63,
1.714,-0.02,-0.05,0.97,0.48,-0.40,-0.63,
1.716,-0.01,-0.04,0.98,0.48,-0.40,-0.63,
1.716,-0.01,-0.04,0.98,0.42,-0.45,-0.53,
1.721,-0.01,-0.04,0.98,0.42,-0.45,-0.53,
1.722,-0.01,-0.05,0.99,0.42,-0.45,-0.53,
1.722,-0.01,-0.05,0.99,0.40,-0.55,-0.42,
1.723,-0.00,-0.04,0.98,0.40,-0.55,-0.42,
1.725,0.00,-0.05,0.98,0.40,-0.55,-0.42,
1.726,0.00,-0.05,0.98,0.42,-0.57,-0.33,
1.728,0.01,-0.05,0.98,0.42,-0.57,-0.33,
1.731,0.01,-0.04,0.98,0.42,-0.57,-0.33,
1.732,0.01,-0.04,0.98,0.53,-0.61,-0.35,
1.734,0.02,-0.04,0.98,0.53,-0.61,-0.35,
1.735,0.02,-0.04,0.98,0.53,-0.61,-0.35,
1.736,0.02,-0.04,0.98,0.62,-0.62,-0.35,
1.738,0.02,-0.04,0.97,0.62,-0.62,-0.35,
1.741,0.03,-0.05,0.97,0.62,-0.62,-0.35,
1.741,0.03,-0.05,0.97,0.72,-0.62,-0.37,
1.744,0.03,-0.05,0.97,0.72,-0.62,-0.37,
1.746,0.03,-0.05,0.97,0.72,-0.62,-0.37,
1.746,0.03,-0.05,0.97,0.72,-0.67,-0.44,
1.748,0.03,-0.04,0.97,0.72,-0.67,-0.44,
1.75,0.02,-0.05,0.96,0.72,-0.67,-0.44,
1.752,0.02,-0.05,0.96,0.72,-0.72,-0.48,
1.753,0.02,-0.04,0.95,0.72,-0.72,-0.48,
1.755,0.02,-0.04,0.95,0.72,-0.72,-0.48,
1.755,0.02,-0.04,0.95,0.69,-0.72,-0.54,
1.758,0.01,-0.04,0.94,0.69,-0.72,-0.54,
1.76,0.01,-0.04,0.94,0.69,-0.72,-0.54,
1.761,0.01,-0.04,0.94,0.63,-0.74,-0.67,
1.762,0.01,-0.04,0.94,0.63,-0.74,-0.67,
1.765,0.01,-0.03,0.93,0.63,-0.74,-0.67,
1.766,0.01,-0.03,0.93,0.55,-0.77,-0.72,
1.768,0.00,-0.03,0.93,0.55,-0.77,-0.72,
1.77,0.00,-0.02,0.93,0.55,-0.77,-0.72,
1.77,0.00,-0.02,0.93,0.55,-0.70,-0.81,
1.773,0.00,-0.02,0.92,0.55,-0.70,-0.81,
1.776,0.00,-0.02,0.92,0.44,-0.62,-0.88,
1.776,0.00,-0.02,0.92,0.44,-0.62,-0.88,
1.778,-0.00,-0.01,0.91,0.44,-0.62,-0.88,
1.78,-0.01,-0.00,0.91,0.44,-0.62,-0.88,
1.781,-0.01,-0.00,0.91,0.43,-0.60,-0.95,
1.783,-0.00,0.00,0.90,0.43,-0.60,-0.95,
1.785,-0.01,0.00,0.90,0.43,-0.60,-0.95,
1.785,-0.01,0.00,0.90,0.33,-0.53,-1.03,
1.787,-0.01,0.00,0.90,0.33,-0.53,-1.03,
1.79,-0.01,0.00,0.90,0.33,-0.53,-1.03,
1.791,-0.01,0.00,0.90,0.33,-0.47,-1.11,
1.793,-0.01,0.01,0.89,0.33,-0.47,-1.11,
1.795,-0.01,0.01,0.88,0.33,-0.47,-1.11,
1.795,-0.01,0.01,0.88,0.24,-0.48,-1.15,
1.798,-0.01,0.01,0.88,0.24,-0.48,-1.15,
1.802,-0.01,0.01,0.89,0.24,-0.48,-1.15,
1.803,-0.01,0.01,0.89,0.27,-0.46,-1.26,
1.803,-0.01,0.01,0.89,0.27,-0.46,-1.26,
1.805,-0.01,0.01,0.89,0.27,-0.46,-1.26,
1.805,-0.01,0.01,0.89,0.22,-0.44,-1.27,
1.808,-0.01,0.01,0.89,0.22,-0.44,-1.27,
1.81,-0.01,0.01,0.90,0.22,-0.44,-1.27,
1.813,-0.01,0.01,0.90,0.22,-0.48,-1.24,
1.813,-0.00,0.01,0.90,0.22,-0.48,-1.24,
1.815,-0.00,0.02,0.91,0.22,-0.48,-1.24,
1.816,-0.00,0.02,0.91,0.25,-0.49,-1.18,
1.817,0.00,0.03,0.91,0.25,-0.49,-1.18,
1.823,0.01,0.03,0.91,0.25,-0.49,-1.18,
1.823,0.01,0.03,0.91,0.28,-0.43,-1.09,
1.824,0.01,0.04,0.92,0.28,-0.43,-1.09,
1.824,0.01,0.04,0.92,0.28,-0.43,-1.09,
1.825,0.01,0.04,0.92,0.32,-0.36,-1.00,
1.827,0.01,0.04,0.93,0.32,-0.36,-1.00,
1.83,0.01,0.04,0.93,0.32,-0.36,-1.00,
1.831,0.01,0.04,0.93,0.35,-0.27,-0.93,
1.832,0.01,0.05,0.93,0.35,-0.27,-0.93,
1.835,0.02,0.05,0.93,0.35,-0.27,-0.93,
1.835,0.02,0.05,0.93,0.37,-0.28,-0.83,
1.837,0.02,0.05,0.93,0.37,-0.28,-0.83,
1.839,0.01,0.06,0.93,0.37,-0.28,-0.83,
1.839,0.01,0.06,0.93,0.39,-0.20,-0.79,
1.842,0.01,0.06,0.93,0.39,-0.20,-0.79,
1.845,0.02,0.06,0.92,0.39,-0.20,-0.79,
1.845,0.02,0.06,0.92,0.37,-0.16,-0.82,
1.847,0.01,0.07,0.92,0.37,-0.16,-0.82,
1.849,0.01,0.07,0.91,0.37,-0.16,-0.82,
1.849,0.01,0.07,0.91,0.37,-0.09,-0.87,
1.852,0.01,0.07,0.91,0.37,-0.09,-0.87,
1.854,0.01,0.07,0.90,0.37,-0.09,-0.87,
1.854,0.01,0.07,0.90,0.34,-0.09,-0.98,
1.857,0.01,0.07,0.90,0.34,-0.09,-0.98,
1.86,0.00,0.07,0.89,0.34,-0.09,-0.98,
1.86,0.00,0.07,0.89,0.32,-0.09,-1.05,
1.862,-0.00,0.07,0.89,0.32,-0.09,-1.05,
1.865,-0.00,0.07,0.88,0.32,-0.09,-1.05,
1.865,-0.00,0.07,0.88,0.24,-0.13,-1.13,
1.869,-0.00,0.07,0.88,0.24,-0.13,-1.13,
1.869,-0.00,0.07,0.88,0.24,-0.13,-1.13,
1.87,-0.00,0.07,0.88,0.16,-0.10,-1.22,
1.872,-0.01,0.08,0.87,0.16,-0.10,-1.22,
1.875,-0.02,0.08,0.87,0.16,-0.10,-1.22,
1.875,-0.02,0.08,0.87,0.13,-0.11,-1.29,
1.877,-0.02,0.08,0.87,0.13,-0.11,-1.29,
1.879,-0.03,0.07,0.87,0.13,-0.11,-1.29,
1.879,-0.03,0.07,0.87,0.01,-0.08,-1.36,
1.882,-0.04,0.07,0.87,0.01,-0.08,-1.36,
1.884,-0.04,0.07,0.87,0.01,-0.08,-1.36,
1.884,-0.04,0.07,0.87,-0.07,-0.12,-1.40,
1.886,-0.04,0.06,0.87,-0.07,-0.12,-1.40,
1.888,-0.04,0.06,0.87,-0.07,-0.12,-1.40,
1.889,-0.04,0.06,0.87,-0.21,-0.18,-1.37,
1.891,-0.04,0.07,0.87,-0.21,-0.18,-1.37,
1.893,-0.04,0.06,0.87,-0.21,-0.18,-1.37,
1.894,-0.04,0.06,0.87,-0.26,-0.26,-1.33,
1.896,-0.04,0.06,0.88,-0.26,-0.26,-1.33,
1.898,-0.03,0.06,0.88,-0.26,-0.26,-1.33,
1.899,-0.03,0.06,0.88,-0.25,-0.30,-1.32,
1.901,-0.03,0.06,0.89,-0.25,-0.30,-1.32,
1.903,-0.02,0.06,0.89,-0.25,-0.30,-1.32,
1.904,-0.02,0.06,0.89,-0.19,-0.31,-1.27,
1.906,-0.02,0.06,0.90,-0.19,-0.31,-1.27,
1.908,-0.02,0.06,0.90,-0.12,-0.33,-1.15,
1.909,-0.02,0.06,0.91,-0.12,-0.33,-1.15,
1.911,-0.01,0.06,0.91,-0.12,-0.33,-1.15,
1.913,-0.02,0.06,0.92,-0.12,-0.33,-1.15,
1.914,-0.02,0.06,0.92,-0.04,-0.33,-1.01,
1.916,-0.02,0.06,0.93,-0.04,-0.33,-1.01,
1.918,-0.01,0.06,0.93,-0.04,-0.33,-1.01,
1.919,-0.01,0.06,0.93,-0.05,-0.37,-0.88,
1.921,-0.02,0.06,0.93,-0.05,-0.37,-0.88,
1.923,-0.01,0.05,0.94,-0.05,-0.37,-0.88,
1.923,-0.01,0.05,0.94,-0.03,-0.39,-0.78,
1.926,-0.01,0.05,0.95,-0.03,-0.39,-0.78,
1.928,-0.01,0.06,0.95,-0.03,-0.39,-0.78,
1.928,-0.01,0.06,0.95,-0.05,-0.41,-0.68,
1.931,-0.02,0.05,0.95,-0.05,-0.41,-0.68,
1.933,-0.01,0.06,0.96,-0.05,-0.41,-0.68,
1.933,-0.01,0.06,0.96,-0.06,-0.42,-0.58,
1.94,-0.01,0.06,0.96,-0.06,-0.42,-0.58,
1.94,-0.01,0.06,0.96,-0.06,-0.42,-0.58,
1.941,-0.01,0.06,0.96,-0.07,-0.43,-0.52,
1.941,-0.01,0.06,0.96,-0.07,-0.43,-0.52,
1.943,-0.01,0.06,0.96,-0.07,-0.43,-0.52,
1.943,-0.01,0.06,0.96,-0.06,-0.41,-0.47,
1.946,-0.01,0.06,0.96,-0.06,-0.41,-0.47,
1.948,-0.01,0.06,0.96,-0.06,-0.41,-0.47,
1.948,-0.01,0.06,0.96,-0.07,-0.43,-0.45,
1.951,-0.02,0.06,0.96,-0.07,-0.43,-0.45,
1.954,-0.01,0.06,0.95,-0.07,-0.43,-0.45,
1.954,-0.01,0.06,0.95,-0.09,-0.45,-0.46,
1.955,-0.02,0.06,0.96,-0.09,-0.45,-0.46,
1.958,-0.03,0.06,0.95,-0.09,-0.45,-0.46,
1.958,-0.03,0.06,0.95,-0.11,-0.44,-0.49,
1.96,-0.03,0.06,0.95,-0.11,-0.44,-0.49,
1.963,-0.03,0.06,0.94,-0.11,-0.44,-0.49,
1.963,-0.03,0.06,0.94,-0.20,-0.41,-0.49,
1.965,-0.04,0.06,0.94,-0.20,-0.41,-0.49,
1.969,-0.04,0.06,0.94,-0.20,-0.41,-0.49,
1.969,-0.04,0.06,0.94,-0.31,-0.44,-0.57,
1.97,-0.04,0.06,0.93,-0.31,-0.44,-0.57,
1.973,-0.05,0.06,0.93,-0.31,-0.44,-0.57,
1.974,-0.05,0.06,0.93,-0.37,-0.46,-0.60,
1.976,-0.06,0.07,0.93,-0.37,-0.46,-0.60,
1.978,-0.05,0.07,0.92,-0.37,-0.46,-0.60,
1.978,-0.05,0.07,0.92,-0.43,-0.46,-0.70,
1.98,-0.05,0.07,0.91,-0.43,-0.46,-0.70,
1.983,-0.06,0.07,0.91,-0.43,-0.46,-0.70,
1.983,-0.06,0.07,0.91,-0.54,-0.39,-0.76,
1.986,-0.06,0.07,0.91,-0.54,-0.39,-0.76,
1.988,-0.07,0.08,0.91,-0.54,-0.39,-0.76,
1.988,-0.07,0.08,0.91,-0.57,-0.41,-0.88,
1.99,-0.07,0.08,0.91,-0.57,-0.41,-0.88,
1.993,-0.06,0.08,0.90,-0.57,-0.41,-0.88,
1.993,-0.06,0.08,0.90,-0.65,-0.38,-0.88,
1.996,-0.06,0.08,0.90,-0.65,-0.38,-0.88,
1.998,-0.06,0.09,0.90,-0.65,-0.38,-0.88,
1.998,-0.06,0.09,0.90,-0.68,-0.34,-0.94,
2.001,-0.05,0.08,0.90,-0.68,-0.34,-0.94,
2.002,-0.05,0.09,0.90,-0.68,-0.34,-0.94,
2.003,-0.05,0.09,0.90,-0.61,-0.32,-0.97,
2.005,-0.05,0.09,0.90,-0.61,-0.32,-0.97,
2.008,-0.05,0.09,0.90,-0.56,-0.31,-0.99,
2.009,-0.04,0.09,0.90,-0.56,-0.31,-0.99,
2.011,-0.04,0.09,0.89,-0.56,-0.31,-0.99,
2.013,-0.04,0.09,0.89,-0.56,-0.31,-0.99,
2.013,-0.04,0.09,0.89,-0.47,-0.27,-1.02,
2.015,-0.04,0.08,0.89,-0.47,-0.27,-1.02,
2.02,-0.04,0.08,0.89,-0.47,-0.27,-1.02,
2.021,-0.04,0.08,0.89,-0.45,-0.33,-1.08,
2.021,-0.04,0.08,0.88,-0.45,-0.33,-1.08,
2.023,-0.03,0.07,0.89,-0.45,-0.33,-1.08,
2.023,-0.03,0.07,0.89,-0.44,-0.40,-1.09,
2.026,-0.03,0.07,0.88,-0.44,-0.40,-1.09,
2.028,-0.03,0.07,0.88,-0.44,-0.40,-1.09,
2.028,-0.03,0.07,0.88,-0.43,-0.46,-1.14,
2.03,-0.02,0.08,0.89,-0.43,-0.46,-1.14,
2.033,-0.02,0.08,0.89,-0.39,-0.47,-1.15,
2.033,-0.02,0.08,0.89,-0.39,-0.47,-1.15,
2.035,-0.02,0.08,0.88,-0.39,-0.47,-1.15,
2.04,-0.02,0.08,0.88,-0.39,-0.47,-1.15,
2.041,-0.02,0.08,0.88,-0.31,-0.44,-1.11,
2.041,-0.02,0.08,0.89,-0.31,-0.44,-1.11,
2.042,-0.03,0.08,0.90,-0.31,-0.44,-1.11,
2.042,-0.03,0.08,0.90,-0.33,-0.43,-1.13,
2.045,-0.03,0.08,0.89,-0.33,-0.43,-1.13,
2.047,-0.04,0.07,0.89,-0.33,-0.43,-1.13,
2.048,-0.04,0.07,0.89,-0.38,-0.46,-1.05,
2.05,-0.05,0.07,0.90,-0.38,-0.46,-1.05,
2.052,-0.05,0.07,0.90,-0.38,-0.46,-1.05,
2.053,-0.05,0.07,0.90,-0.47,-0.51,-1.09,
2.055,-0.05,0.06,0.91,-0.47,-0.51,-1.09,
2.057,-0.05,0.06,0.91,-0.60,-0.55,-0.98,
2.058,-0.05,0.07,0.91,-0.60,-0.55,-0.98,
2.06,-0.05,0.07,0.92,-0.60,-0.55,-0.98,
2.062,-0.06,0.07,0.92,-0.60,-0.55,-0.98,
2.063,-0.06,0.07,0.92,-0.64,-0.58,-0.88,
2.065,-0.06,0.07,0.92,-0.64,-0.58,-0.88,
2.067,-0.06,0.08,0.92,-0.64,-0.58,-0.88,
2.068,-0.06,0.08,0.92,-0.69,-0.55,-0.75,
2.07,-0.06,0.08,0.92,-0.69,-0.55,-0.75,
2.072,-0.07,0.08,0.93,-0.69,-0.55,-0.75,
2.072,-0.07,0.08,0.93,-0.76,-0.50,-0.72,
2.075,-0.07,0.08,0.93,-0.76,-0.50,-0.72,
2.077,-0.07,0.08,0.94,-0.76,-0.50,-0.72,
2.078,-0.07,0.08,0.94,-0.77,-0.43,-0.66,
2.08,-0.08,0.09,0.94,-0.77,-0.43,-0.66,
2.082,-0.08,0.09,0.94,-0.77,-0.43,-0.66,
2.083,-0.08,0.09,0.94,-0.86,-0.40,-0.57,
2.085,-0.08,0.09,0.93,-0.86,-0.40,-0.57,
2.087,-0.09,0.09,0.93,-0.86,-0.40,-0.57,
2.087,-0.09,0.09,0.93,-0.92,-0.34,-0.57,
2.09,-0.09,0.10,0.92,-0.92,-0.34,-0.57,
2.092,-0.10,0.10,0.92,-0.92,-0.34,-0.57,
2.093,-0.10,0.10,0.92,-1.00,-0.33,-0.60,
2.095,-0.10,0.11,0.91,-1.00,-0.33,-0.60,
2.096,-0.11,0.11,0.91,-1.00,-0.33,-0.60,
2.097,-0.11,0.11,0.91,-1.09,-0.24,-0.71,
2.099,-0.12,0.12,0.91,-1.09,-0.24,-0.71,
2.103,-0.12,0.12,0.91,-1.09,-0.24,-0.71,
2.103,-0.12,0.12,0.91,-1.17,-0.19,-0.78,
2.104,-0.12,0.13,0.91,-1.17,-0.19,-0.78,
2.106,-0.12,0.13,0.91,-1.30,-0.06,-0.78,
2.107,-0.13,0.13,0.91,-1.30,-0.06,-0.78,
2.109,-0.13,0.13,0.92,-1.30,-0.06,-0.78,
2.111,-0.14,0.14,0.92,-1.30,-0.06,-0.78,
2.112,-0.14,0.14,0.92,-1.35,0.02,-0.78,
2.115,-0.13,0.15,0.92,-1.35,0.02,-0.78,
2.116,-0.13,0.15,0.92,-1.35,0.02,-0.78,
2.116,-0.13,0.15,0.92,-1.46,0.11,-0.69,
2.119,-0.13,0.16,0.92,-1.46,0.11,-0.69,
2.121,-0.14,0.16,0.93,-1.46,0.11,-0.69,
2.121,-0.14,0.16,0.93,-1.42,0.23,-0.67,
2.124,-0.13,0.16,0.94,-1.42,0.23,-0.67,
2.126,-0.13,0.16,0.94,-1.42,0.23,-0.67,
2.126,-0.13,0.16,0.94,-1.46,0.29,-0.62,
2.129,-0.14,0.16,0.95,-1.46,0.29,-0.62,
2.131,-0.13,0.15,0.95,-1.46,0.29,-0.62,
2.132,-0.13,0.15,0.95,-1.44,0.33,-0.47,
2.134,-0.13,0.15,0.95,-1.44,0.33,-0.47,
2.137,-0.13,0.15,0.95,-1.44,0.33,-0.47,
2.137,-0.13,0.15,0.95,-1.48,0.27,-0.37,
2.138,-0.13,0.15,0.96,-1.48,0.27,-0.37,
2.141,-0.12,0.14,0.97,-1.48,0.27,-0.37,
2.142,-0.12,0.14,0.97,-1.39,0.24,-0.38,
2.143,-0.12,0.14,0.96,-1.39,0.24,-0.38,
2.146,-0.10,0.14,0.96,-1.39,0.24,-0.38,
2.146,-0.10,0.14,0.96,-1.34,0.17,-0.24,
2.148,-0.10,0.14,0.96,-1.34,0.17,-0.24,
2.151,-0.10,0.13,0.96,-1.34,0.17,-0.24,
2.151,-0.10,0.13,0.96,-1.22,0.12,-0.25,
2.157,-0.09,0.13,0.96,-1.22,0.12,-0.25,
2.157,-0.09,0.13,0.96,-1.22,0.12,-0.25,
2.157,-0.09,0.13,0.96,-1.12,0.07,-0.24,
2.158,-0.08,0.13,0.96,-1.12,0.07,-0.24,
2.161,-0.08,0.13,0.96,-1.12,0.07,-0.24,
2.161,-0.08,0.13,0.96,-1.01,0.01,-0.27,
2.163,-0.07,0.13,0.96,-1.01,0.01,-0.27,
2.166,-0.07,0.13,0.96,-1.01,0.01,-0.27,
2.166,-0.07,0.13,0.96,-0.92,0.02,-0.28,
2.17,-0.07,0.13,0.96,-0.92,0.02,-0.28,
2.172,-0.06,0.13,0.95,-0.92,0.02,-0.28,
2.172,-0.06,0.13,0.95,-0.81,-0.01,-0.26,
2.173,-0.06,0.14,0.95,-0.81,-0.01,-0.26,
2.176,-0.06,0.14,0.95,-0.81,-0.01,-0.26,
2.176,-0.06,0.14,0.95,-0.77,-0.01,-0.31,
2.178,-0.06,0.14,0.94,-0.77,-0.01,-0.31,
2.181,-0.06,0.14,0.94,-0.72,0.06,-0.35,
2.181,-0.07,0.14,0.94,-0.72,0.06,-0.35,
2.183,-0.07,0.14,0.94,-0.72,0.06,-0.35,
2.186,-0.07,0.13,0.92,-0.72,0.06,-0.35,
2.186,-0.07,0.13,0.92,-0.75,0.05,-0.45,
2.189,-0.07,0.13,0.93,-0.75,0.05,-0.45,
2.191,-0.08,0.13,0.93,-0.75,0.05,-0.45,
2.191,-0.08,0.13,0.93,-0.79,0.01,-0.52,
2.193,-0.07,0.13,0.92,-0.79,0.01,-0.52,
2.195,-0.07,0.13,0.92,-0.79,0.01,-0.52,
2.196,-0.07,0.13,0.92,-0.81,-0.04,-0.54,
2.198,-0.07,0.13,0.92,-0.81,-0.04,-0.54,
2.2,-0.06,0.14,0.93,-0.81,-0.04,-0.54,
2.201,-0.06,0.14,0.93,-0.78,-0.02,-0.58,
2.204,-0.06,0.14,0.93,-0.78,-0.02,-0.58,
2.206,-0.06,0.14,0.93,-0.69,-0.03,-0.53,
2.206,-0.06,0.14,0.93,-0.69,-0.03,-0.53,
2.208,-0.06,0.14,0.92,-0.69,-0.03,-0.53,
2.211,-0.05,0.14,0.93,-0.69,-0.03,-0.53,
2.211,-0.05,0.14,0.93,-0.64,-0.01,-0.53,
2.213,-0.05,0.14,0.93,-0.64,-0.01,-0.53,
2.215,-0.05,0.15,0.93,-0.64,-0.01,-0.53,
2.215,-0.05,0.15,0.93,-0.59,0.05,-0.54,
2.218,-0.06,0.15,0.94,-0.59,0.05,-0.54,
2.221,-0.06,0.15,0.94,-0.59,0.05,-0.54,
2.221,-0.06,0.15,0.94,-0.56,0.06,-0.49,
2.223,-0.06,0.16,0.95,-0.56,0.06,-0.49,
2.225,-0.06,0.16,0.95,-0.65,0.13,-0.39,
2.226,-0.07,0.16,0.94,-0.65,0.13,-0.39,
2.228,-0.07,0.17,0.94,-0.65,0.13,-0.39,
2.231,-0.08,0.17,0.94,-0.65,0.13,-0.39,
2.231,-0.08,0.17,0.94,-0.68,0.20,-0.34,
2.233,-0.08,0.17,0.94,-0.68,0.20,-0.34,
2.24,-0.08,0.18,0.94,-0.68,0.20,-0.34,
2.241,-0.08,0.18,0.94,-0.75,0.29,-0.37,
2.241,-0.09,0.19,0.94,-0.75,0.29,-0.37,
2.241,-0.09,0.19,0.94,-0.75,0.29,-0.37,
2.241,-0.09,0.19,0.94,-0.82,0.39,-0.38,
2.243,-0.10,0.19,0.94,-0.82,0.39,-0.38,
2.245,-0.10,0.19,0.94,-0.82,0.39,-0.38,
2.245,-0.10,0.19,0.94,-0.89,0.47,-0.36,
2.248,-0.10,0.19,0.95,-0.89,0.47,-0.36,
2.25,-0.10,0.19,0.95,-0.89,0.47,-0.36,
2.251,-0.10,0.19,0.95,-0.98,0.49,-0.35,
2.253,-0.11,0.19,0.95,-0.98,0.49,-0.35,
2.255,-0.11,0.19,0.95,-0.98,0.49,-0.35,
2.255,-0.11,0.19,0.95,-0.99,0.50,-0.31,
2.258,-0.11,0.19,0.94,-0.99,0.50,-0.31,
2.26,-0.10,0.18,0.95,-0.99,0.50,-0.31,
2.26,-0.10,0.18,0.95,-1.04,0.47,-0.29,
2.263,-0.11,0.18,0.95,-1.04,0.47,-0.29,
2.266,-0.10,0.17,0.95,-1.04,0.47,-0.29,
2.266,-0.10,0.17,0.95,-1.00,0.42,-0.30,
2.267,-0.10,0.17,0.96,-1.00,0.42,-0.30,
2.271,-0.10,0.17,0.95,-1.00,0.42,-0.30,
2.271,-0.10,0.17,0.95,-0.97,0.35,-0.27,
2.272,-0.10,0.16,0.95,-0.97,0.35,-0.27,
2.275,-0.10,0.16,0.95,-0.97,0.35,-0.27,
2.275,-0.10,0.16,0.95,-0.96,0.25,-0.27,
2.277,-0.09,0.15,0.96,-0.96,0.25,-0.27,
2.28,-0.09,0.15,0.96,-0.90,0.19,-0.25,
2.28,-0.09,0.15,0.95,-0.90,0.19,-0.25,
2.282,-0.09,0.15,0.95,-0.90,0.19,-0.25,
2.285,-0.08,0.15,0.96,-0.90,0.19,-0.25,
2.285,-0.08,0.15,0.96,-0.78,0.10,-0.21,
2.287,-0.08,0.15,0.95,-0.78,0.10,-0.21,
2.29,-0.09,0.15,0.95,-0.78,0.10,-0.21,
2.29,-0.09,0.15,0.95,-0.73,0.07,-0.21,
2.292,-0.08,0.15,0.95,-0.73,0.07,-0.21,
2.295,-0.08,0.15,0.96,-0.73,0.07,-0.21,
2.295,-0.08,0.15,0.96,-0.71,0.09,-0.23,
2.297,-0.08,0.15,0.96,-0.71,0.09,-0.23,
2.299,-0.09,0.15,0.96,-0.71,0.09,-0.23,
2.3,-0.09,0.15,0.96,-0.69,0.10,-0.21,
2.304,-0.09,0.15,0.97,-0.69,0.10,-0.21,
2.304,-0.09,0.15,0.97,-0.69,0.10,-0.21,
2.307,-0.09,0.15,0.97,-0.67,0.10,-0.17,
2.307,-0.08,0.15,0.97,-0.67,0.10,-0.17,
2.31,-0.08,0.16,0.97,-0.67,0.10,-0.17,
2.31,-0.08,0.16,0.97,-0.66,0.10,-0.09,
2.312,-0.08,0.16,0.97,-0.66,0.10,-0.09,
2.314,-0.08,0.15,0.98,-0.66,0.10,-0.09,
2.315,-0.08,0.15,0.98,-0.61,0.13,-0.07,
2.317,-0.08,0.15,0.98,-0.61,0.13,-0.07,
2.32,-0.08,0.15,0.99,-0.61,0.13,-0.07,
2.321,-0.08,0.15,0.99,-0.59,0.14,0.02,
2.322,-0.07,0.16,0.99,-0.59,0.14,0.02,
2.326,-0.07,0.16,0.99,-0.59,0.14,0.02,
2.326,-0.07,0.16,0.99,-0.51,0.11,0.06,
2.327,-0.07,0.15,0.99,-0.51,0.11,0.06,
2.329,-0.07,0.14,0.99,-0.51,0.11,0.06,
2.329,-0.07,0.14,0.99,-0.48,0.14,0.11,
2.332,-0.07,0.14,0.99,-0.48,0.14,0.11,
2.334,-0.06,0.14,0.99,-0.48,0.14,0.11,
2.334,-0.06,0.14,0.99,-0.41,0.06,0.12,
2.339,-0.07,0.14,0.99,-0.41,0.06,0.12,
2.339,-0.06,0.14,0.99,-0.41,0.06,0.12,
2.339,-0.06,0.14,0.99,-0.39,0.02,0.11,
2.342,-0.06,0.15,0.99,-0.39,0.02,0.11,
2.345,-0.06,0.15,1.00,-0.39,0.02,0.11,
2.345,-0.06,0.15,1.00,-0.37,0.01,0.12,
2.347,-0.07,0.15,0.99,-0.37,0.01,0.12,
2.349,-0.07,0.15,1.00,-0.37,0.01,0.12,
2.35,-0.07,0.15,1.00,-0.32,0.05,0.13,
2.352,-0.07,0.15,1.00,-0.32,0.05,0.13,
2.358,-0.07,0.15,1.00,-0.32,0.05,0.13,
2.358,-0.07,0.15,1.00,-0.37,0.08,0.19,
2.359,-0.07,0.16,1.00,-0.37,0.08,0.19,
2.359,-0.08,0.16,1.01,-0.37,0.08,0.19,
2.359,-0.08,0.16,1.01,-0.39,0.13,0.23,
2.361,-0.08,0.16,1.01,-0.39,0.13,0.23,
2.364,-0.08,0.16,1.02,-0.39,0.13,0.23,
2.364,-0.08,0.16,1.02,-0.44,0.17,0.28,
2.366,-0.08,0.15,1.02,-0.44,0.17,0.28,
2.369,-0.08,0.15,1.02,-0.44,0.17,0.28,
2.369,-0.08,0.15,1.02,-0.48,0.16,0.36,
2.372,-0.08,0.16,1.03,-0.48,0.16,0.36,
2.374,-0.08,0.16,1.03,-0.48,0.16,0.36,
2.374,-0.08,0.16,1.03,-0.50,0.13,0.43,
2.377,-0.08,0.15,1.03,-0.50,0.13,0.43,
2.379,-0.08,0.15,1.03,-0.50,0.18,0.48,
2.379,-0.08,0.15,1.03,-0.50,0.18,0.48,
2.382,-0.09,0.16,1.03,-0.50,0.18,0.48,
2.384,-0.09,0.16,1.02,-0.50,0.18,0.48,
2.384,-0.09,0.16,1.02,-0.50,0.14,0.51,
2.387,-0.10,0.15,1.03,-0.50,0.14,0.51,
2.389,-0.10,0.15,1.02,-0.50,0.14,0.51,
2.39,-0.10,0.15,1.02,-0.53,0.18,0.45,
2.391,-0.11,0.15,1.02,-0.53,0.18,0.45,
2.394,-0.11,0.15,1.02,-0.53,0.18,0.45,
2.395,-0.11,0.15,1.02,-0.64,0.11,0.43,
2.397,-0.12,0.15,1.01,-0.64,0.11,0.43,
2.399,-0.12,0.14,1.00,-0.64,0.11,0.43,
2.399,-0.12,0.14,1.00,-0.71,0.07,0.35,
2.402,-0.12,0.13,1.01,-0.71,0.07,0.35,
2.403,-0.12,0.14,1.00,-0.71,0.07,0.35,
2.404,-0.12,0.14,1.00,-0.77,0.04,0.27,
2.406,-0.12,0.15,1.00,-0.77,0.04,0.27,
2.409,-0.12,0.15,1.00,-0.77,0.04,0.27,
2.409,-0.12,0.15,1.00,-0.75,-0.03,0.23,
2.412,-0.11,0.15,1.00,-0.75,-0.03,0.23,
2.414,-0.11,0.16,1.00,-0.75,-0.03,0.23,
2.414,-0.11,0.16,1.00,-0.76,0.07,0.19,
2.417,-0.10,0.16,1.01,-0.76,0.07,0.19,
2.419,-0.10,0.16,1.00,-0.76,0.07,0.19,
2.419,-0.10,0.16,1.00,-0.67,0.11,0.21,
2.421,-0.10,0.16,1.01,-0.67,0.11,0.21,
2.423,-0.09,0.17,1.01,-0.67,0.11,0.21,
2.424,-0.09,0.17,1.01,-0.59,0.17,0.24,
2.427,-0.09,0.17,1.01,-0.59,0.17,0.24,
2.429,-0.08,0.16,1.01,-0.59,0.17,0.24,
2.429,-0.08,0.16,1.01,-0.49,0.22,0.26,
2.432,-0.08,0.16,1.01,-0.49,0.22,0.26,
2.435,-0.07,0.16,1.01,-0.49,0.22,0.26,
2.435,-0.07,0.16,1.01,-0.37,0.25,0.25,
2.436,-0.06,0.16,1.01,-0.37,0.25,0.25,
2.438,-0.05,0.15,1.01,-0.37,0.25,0.25,
2.439,-0.05,0.15,1.01,-0.25,0.22,0.27,
2.442,-0.05,0.15,1.01,-0.25,0.22,0.27,
2.444,-0.04,0.15,1.00,-0.25,0.22,0.27,
2.444,-0.04,0.15,1.00,-0.11,0.11,0.27,
2.446,-0.04,0.15,1.00,-0.11,0.11,0.27,
2.448,-0.03,0.14,1.00,-0.11,0.11,0.27,
2.449,-0.03,0.14,1.00,0.04,0.04,0.24,
2.451,-0.03,0.14,1.00,0.04,0.04,0.24,
2.454,-0.03,0.14,1.00,0.15,0.01,0.20,
2.454,-0.03,0.14,1.00,0.15,0.01,0.20,
2.459,-0.03,0.14,1.00,0.15,0.01,0.20,
2.459,-0.02,0.14,1.00,0.15,0.01,0.20,
2.46,-0.02,0.14,1.00,0.18,-0.06,0.18,
2.46,-0.02,0.13,1.00,0.18,-0.06,0.18,
2.464,-0.02,0.13,1.00,0.18,-0.06,0.18,
2.465,-0.02,0.13,1.00,0.27,-0.07,0.16,
2.465,-0.03,0.13,1.00,0.27,-0.07,0.16,
2.468,-0.03,0.13,1.00,0.27,-0.07,0.16,
2.471,-0.03,0.13,1.00,0.25,-0.10,0.16,
2.473,-0.04,0.13,1.00,0.25,-0.10,0.16,
2.474,-0.04,0.13,0.99,0.25,-0.10,0.16,
2.475,-0.04,0.13,0.99,0.19,-0.13,0.18,
2.476,-0.05,0.13,1.00,0.19,-0.13,0.18,
2.478,-0.05,0.13,1.00,0.19,-0.13,0.18,
2.478,-0.05,0.13,1.00,0.10,-0.12,0.14,
2.481,-0.05,0.13,0.99,0.10,-0.12,0.14,
2.483,-0.06,0.13,1.00,0.10,-0.12,0.14,
2.483,-0.06,0.13,1.00,0.01,-0.10,0.19,
2.485,-0.05,0.13,1.00,0.01,-0.10,0.19,
2.488,-0.06,0.14,1.00,0.01,-0.10,0.19,
2.489,-0.06,0.14,1.00,-0.04,-0.10,0.14,
2.49,-0.06,0.14,1.00,-0.04,-0.10,0.14,
2.493,-0.06,0.14,1.00,-0.04,-0.10,0.14,
2.493,-0.06,0.14,1.00,-0.08,-0.09,0.16,
2.495,-0.06,0.14,1.00,-0.08,-0.09,0.16,
2.499,-0.06,0.13,1.00,-0.08,-0.09,0.16,
2.499,-0.06,0.13,1.00,-0.13,-0.08,0.17,
2.5,-0.07,0.13,1.01,-0.13,-0.08,0.17,
2.503,-0.06,0.14,1.01,-0.13,-0.08,0.17,
2.503,-0.06,0.14,1.01,-0.14,-0.08,0.20,
2.506,-0.06,0.14,1.01,-0.14,-0.08,0.20,
2.508,-0.05,0.13,1.01,-0.14,-0.08,0.20,
2.508,-0.05,0.13,1.01,-0.15,-0.09,0.22,
2.51,-0.05,0.13,1.01,-0.15,-0.09,0.22,
2.512,-0.04,0.13,1.01,-0.15,-0.09,0.22,
2.513,-0.04,0.13,1.01,-0.07,-0.09,0.24,
2.515,-0.03,0.13,1.00,-0.07,-0.09,0.24,
2.517,-0.03,0.12,1.00,-0.07,-0.09,0.24,
2.517,-0.03,0.12,1.00,0.01,-0.16,0.22,
2.52,-0.02,0.12,1.01,0.01,-0.16,0.22,
2.523,-0.02,0.12,1.00,0.01,-0.16,0.22,
2.523,-0.02,0.12,1.00,0.17,-0.20,0.16,
2.525,-0.02,0.12,1.00,0.17,-0.20,0.16,
2.527,-0.01,0.13,1.00,0.17,-0.20,0.16,
2.527,-0.01,0.13,1.00,0.26,-0.21,0.20,
2.53,-0.01,0.13,0.95,0.26,-0.21,0.20,
2.532,-0.01,0.14,0.87,0.26,-0.21,0.20,
2.533,-0.01,0.14,0.87,0.35,-0.22,0.17,
2.535,-0.01,0.14,0.83,0.35,-0.22,0.17,
2.539,-0.00,0.15,0.84,0.35,-0.22,0.17,
2.539,-0.00,0.15,0.84,0.38,-0.09,-0.72,
2.54,-0.00,0.15,0.89,0.38,-0.09,-0.72,
2.542,-0.00,0.15,0.91,0.38,-0.09,-0.72,
2.542,-0.00,0.15,0.91,0.41,-0.01,-1.40,
2.544,-0.01,0.15,0.92,0.41,-0.01,-1.40,
2.547,-0.02,0.15,0.92,0.41,-0.01,-1.40,
2.547,-0.02,0.15,0.92,0.48,0.02,-0.76,
2.551,-0.02,0.15,0.92,0.48,0.02,-0.76,
2.553,-0.03,0.15,0.92,0.48,0.02,-0.76,
2.553,-0.03,0.15,0.92,0.37,0.01,-0.62,
2.558,-0.03,0.15,0.92,0.37,0.01,-0.62,
2.559,-0.03,0.15,0.92,0.37,0.01,-0.62,
2.56,-0.03,0.15,0.92,0.24,0.03,-0.60,
2.56,-0.03,0.16,0.93,0.24,0.03,-0.60,
2.563,-0.03,0.16,0.93,0.24,0.03,-0.60,
2.563,-0.03,0.16,0.93,0.19,0.05,-0.56,
2.565,-0.03,0.16,0.94,0.19,0.05,-0.56,
2.567,-0.03,0.16,0.94,0.19,0.05,-0.56,
2.567,-0.03,0.16,0.94,0.25,0.14,-0.48,
2.57,-0.04,0.16,0.96,0.25,0.14,-0.48,
2.577,-0.05,0.16,0.98,0.25,0.14,-0.48,
2.578,-0.05,0.16,0.98,0.20,0.17,-0.38,
2.578,-0.04,0.16,0.99,0.20,0.17,-0.38,
2.578,-0.04,0.16,0.99,0.10,0.17,-0.12,
2.579,-0.05,0.16,1.00,0.10,0.17,-0.12,
2.58,-0.05,0.15,1.03,0.10,0.17,-0.12,
2.582,-0.04,0.15,1.04,0.10,0.17,-0.12,
2.582,-0.04,0.15,1.04,0.08,0.15,0.19,
2.584,-0.05,0.15,1.06,0.08,0.15,0.19,
2.588,-0.06,0.15,1.06,0.08,0.15,0.19,
2.588,-0.06,0.15,1.06,0.06,0.06,0.55,
2.591,-0.06,0.15,1.06,0.06,0.06,0.55,
2.592,-0.08,0.15,1.07,0.06,0.06,0.55,
2.592,-0.08,0.15,1.07,0.00,0.04,0.75,
2.594,-0.09,0.16,1.08,0.00,0.04,0.75,
2.597,-0.10,0.16,1.07,0.00,0.04,0.75,
2.597,-0.10,0.16,1.07,-0.18,0.07,0.83,
2.599,-0.11,0.16,1.06,-0.18,0.07,0.83,
2.602,-0.11,0.16,1.05,-0.18,0.07,0.83,
2.602,-0.11,0.16,1.05,-0.42,0.12,0.91,
2.604,-0.12,0.16,1.04,-0.42,0.12,0.91,
2.607,-0.12,0.16,1.03,-0.42,0.12,0.91,
2.607,-0.12,0.16,1.03,-0.55,0.13,0.69,
2.609,-0.13,0.16,1.02,-0.55,0.13,0.69,
2.612,-0.13,0.16,1.01,-0.55,0.13,0.69,
2.613,-0.13,0.16,1.01,-0.67,0.14,0.48,
2.615,-0.13,0.15,1.02,-0.67,0.14,0.48,
2.616,-0.13,0.16,1.01,-0.67,0.14,0.48,
2.617,-0.13,0.16,1.01,-0.73,0.14,0.35,
2.619,-0.13,0.16,0.99,-0.73,0.14,0.35,
2.623,-0.12,0.16,0.99,-0.73,0.14,0.35,
2.623,-0.12,0.16,0.99,-0.76,0.12,0.28,
2.624,-0.13,0.15,0.99,-0.76,0.12,0.28,
