
time,gFx,gFy,gFz,ax,ay,az,
0.002,-0.07,0.12,0.92,-0.38,0.66,-0.84,
0.003,-0.08,0.12,0.93,-0.38,0.66,-0.84,
0.003,-0.08,0.12,0.93,-0.49,0.59,-0.79,
0.003,-0.09,0.11,0.94,-0.49,0.59,-0.79,
0.005,-0.10,0.11,0.95,-0.49,0.59,-0.79,
0.005,-0.10,0.11,0.95,-0.67,0.48,-0.65,
0.007,-0.10,0.11,0.94,-0.67,0.48,-0.65,
0.01,-0.10,0.11,0.95,-0.67,0.48,-0.65,
0.01,-0.10,0.11,0.95,-0.82,0.37,-0.46,
0.012,-0.10,0.11,0.96,-0.82,0.37,-0.46,
0.015,-0.09,0.12,0.96,-0.82,0.37,-0.46,
0.015,-0.09,0.12,0.96,-0.88,0.37,-0.42,
0.017,-0.09,0.12,0.97,-0.88,0.37,-0.42,
0.02,-0.08,0.12,0.97,-0.88,0.37,-0.42,
0.02,-0.08,0.12,0.97,-0.86,0.42,-0.27,
0.022,-0.08,0.12,0.97,-0.86,0.42,-0.27,
0.025,-0.07,0.12,0.97,-0.86,0.42,-0.27,
0.025,-0.07,0.12,0.97,-0.75,0.45,-0.24,
0.027,-0.07,0.12,0.97,-0.75,0.45,-0.24,
0.032,-0.06,0.12,0.97,-0.75,0.45,-0.24,
0.032,-0.06,0.12,0.97,-0.63,0.50,-0.17,
0.032,-0.06,0.12,0.97,-0.63,0.50,-0.17,
0.035,-0.06,0.11,0.96,-0.63,0.50,-0.17,
0.035,-0.06,0.11,0.96,-0.54,0.49,-0.18,
0.037,-0.05,0.11,0.96,-0.54,0.49,-0.18,
0.04,-0.05,0.11,0.96,-0.54,0.49,-0.18,
0.04,-0.05,0.11,0.96,-0.48,0.44,-0.27,
0.042,-0.05,0.10,0.96,-0.48,0.44,-0.27,
0.045,-0.05,0.10,0.96,-0.42,0.40,-0.30,
0.045,-0.05,0.10,0.97,-0.42,0.40,-0.30,
0.047,-0.05,0.09,0.99,-0.42,0.40,-0.30,
0.05,-0.05,0.09,0.99,-0.42,0.40,-0.30,
0.05,-0.05,0.09,0.99,-0.40,0.31,-0.22,
0.052,-0.06,0.09,1.00,-0.40,0.31,-0.22,
0.054,-0.07,0.09,1.01,-0.40,0.31,-0.22,
0.055,-0.07,0.09,1.01,-0.39,0.23,0.01,
0.057,-0.14,0.10,0.99,-0.39,0.23,0.01,
0.059,-0.17,0.09,0.98,-0.39,0.23,0.01,
0.06,-0.17,0.09,0.98,-0.53,0.20,0.15,
0.062,-0.15,0.09,0.99,-0.53,0.20,0.15,
0.064,-0.14,0.09,0.99,-0.53,0.20,0.15,
0.064,-0.14,0.09,0.99,-1.43,0.30,-0.08,
0.067,-0.13,0.10,1.01,-1.43,0.30,-0.08,
0.069,-0.13,0.10,1.02,-1.43,0.30,-0.08,
0.069,-0.13,0.10,1.02,-1.30,0.23,0.00,
0.072,-0.13,0.10,1.02,-1.30,0.23,0.00,
0.074,-0.13,0.10,1.04,-1.30,0.23,0.00,
0.074,-0.13,0.10,1.04,-1.15,0.34,0.21,
0.077,-0.12,0.10,1.05,-1.15,0.34,0.21,
0.079,-0.11,0.09,1.06,-1.15,0.34,0.21,
0.079,-0.11,0.09,1.06,-1.10,0.36,0.38,
0.082,-0.11,0.09,1.06,-1.10,0.36,0.38,
0.084,-0.10,0.08,1.06,-1.10,0.36,0.38,
0.084,-0.10,0.08,1.06,-0.99,0.31,0.60,
0.086,-0.09,0.07,1.06,-0.99,0.31,0.60,
0.089,-0.08,0.07,1.06,-0.99,0.31,0.60,
0.089,-0.08,0.07,1.06,-0.85,0.18,0.68,
0.091,-0.08,0.06,1.05,-0.85,0.18,0.68,
0.094,-0.07,0.06,1.05,-0.85,0.18,0.68,
0.094,-0.07,0.06,1.05,-0.67,0.07,0.67,
0.096,-0.07,0.06,1.05,-0.67,0.07,0.67,
0.099,-0.06,0.05,1.04,-0.67,0.07,0.67,
0.099,-0.06,0.05,1.04,-0.59,-0.03,0.59,
0.101,-0.05,0.05,1.04,-0.59,-0.03,0.59,
0.104,-0.04,0.05,1.03,-0.59,-0.03,0.59,
0.104,-0.04,0.05,1.03,-0.48,-0.07,0.48,
0.106,-0.04,0.05,1.02,-0.48,-0.07,0.48,
0.109,-0.04,0.05,1.01,-0.48,-0.07,0.48,
0.109,-0.04,0.05,1.01,-0.37,-0.13,0.38,
0.111,-0.03,0.05,1.01,-0.37,-0.13,0.38,
0.115,-0.03,0.06,1.01,-0.37,-0.13,0.38,
0.115,-0.03,0.06,1.01,-0.29,-0.14,0.21,
0.116,-0.02,0.05,1.00,-0.29,-0.14,0.21,
0.119,-0.02,0.05,0.99,-0.29,-0.14,0.21,
0.119,-0.02,0.05,0.99,-0.22,-0.10,0.14,
0.121,-0.02,0.05,0.98,-0.22,-0.10,0.14,
0.123,-0.02,0.04,0.98,-0.22,-0.10,0.14,
0.124,-0.02,0.04,0.98,-0.17,-0.12,-0.02,
0.126,-0.02,0.04,0.97,-0.17,-0.12,-0.02,
0.128,-0.02,0.04,0.97,-0.17,-0.12,-0.02,
0.129,-0.02,0.04,0.97,-0.16,-0.16,-0.17,
0.131,-0.02,0.04,0.96,-0.16,-0.16,-0.17,
0.134,-0.03,0.04,0.96,-0.16,-0.16,-0.17,
0.134,-0.03,0.04,0.96,-0.21,-0.20,-0.25,
0.136,-0.04,0.03,0.97,-0.21,-0.20,-0.25,
0.138,-0.03,0.03,0.96,-0.21,-0.20,-0.25,
0.139,-0.03,0.03,0.96,-0.26,-0.26,-0.33,
0.141,-0.04,0.03,0.96,-0.26,-0.26,-0.33,
0.143,-0.04,0.03,0.97,-0.26,-0.26,-0.33,
0.144,-0.04,0.03,0.97,-0.35,-0.33,-0.28,
0.146,-0.04,0.03,0.97,-0.35,-0.33,-0.28,
0.149,-0.04,0.03,0.97,-0.35,-0.33,-0.28,
0.149,-0.04,0.03,0.97,-0.39,-0.30,-0.26,
0.151,-0.05,0.03,0.97,-0.39,-0.30,-0.26,
0.153,-0.05,0.03,0.98,-0.39,-0.30,-0.26,
0.154,-0.05,0.03,0.98,-0.45,-0.35,-0.24,
0.156,-0.05,0.03,0.98,-0.45,-0.35,-0.24,
0.158,-0.05,0.03,0.98,-0.45,-0.35,-0.24,
0.158,-0.05,0.03,0.98,-0.50,-0.33,-0.21,
0.161,-0.05,0.03,0.99,-0.50,-0.33,-0.21,
0.163,-0.05,0.02,0.99,-0.50,-0.33,-0.21,
0.164,-0.05,0.02,0.99,-0.52,-0.35,-0.12,
0.166,-0.05,0.03,0.99,-0.52,-0.35,-0.12,
0.168,-0.05,0.03,1.00,-0.52,-0.35,-0.12,
0.168,-0.05,0.03,1.00,-0.50,-0.37,-0.01,
0.171,-0.06,0.03,1.01,-0.50,-0.37,-0.01,
0.173,-0.06,0.03,1.02,-0.50,-0.37,-0.01,
0.173,-0.06,0.03,1.02,-0.51,-0.35,0.04,
0.176,-0.06,0.02,1.03,-0.51,-0.35,0.04,
0.179,-0.06,0.02,1.04,-0.51,-0.35,0.04,
0.179,-0.06,0.02,1.04,-0.57,-0.36,0.25,
0.181,-0.07,0.02,1.04,-0.57,-0.36,0.25,
0.183,-0.07,0.02,1.04,-0.57,-0.36,0.25,
0.183,-0.07,0.02,1.04,-0.56,-0.41,0.37,
0.186,-0.08,0.01,1.05,-0.56,-0.41,0.37,
0.188,-0.09,0.00,1.05,-0.56,-0.41,0.37,
0.188,-0.09,0.00,1.05,-0.67,-0.46,0.46,
0.191,-0.09,-0.01,1.05,-0.67,-0.46,0.46,
0.193,-0.09,-0.01,1.05,-0.76,-0.57,0.54,
0.193,-0.10,-0.01,1.04,-0.76,-0.57,0.54,
0.196,-0.11,-0.02,1.04,-0.76,-0.57,0.54,
0.198,-0.12,-0.03,1.03,-0.76,-0.57,0.54,
0.199,-0.12,-0.03,1.03,-0.89,-0.73,0.50,
0.2,-0.12,-0.04,1.02,-0.89,-0.73,0.50,
0.203,-0.12,-0.04,1.02,-0.89,-0.73,0.50,
0.203,-0.12,-0.04,1.02,-1.01,-0.93,0.43,
0.206,-0.12,-0.05,1.01,-1.01,-0.93,0.43,
0.209,-0.12,-0.05,1.00,-1.01,-0.93,0.43,
0.209,-0.12,-0.05,1.00,-1.10,-1.06,0.27,
0.21,-0.13,-0.05,0.99,-1.10,-1.06,0.27,
0.213,-0.12,-0.05,0.97,-1.10,-1.06,0.27,
0.213,-0.12,-0.05,0.97,-1.11,-1.15,0.10,
0.216,-0.12,-0.05,0.97,-1.11,-1.15,0.10,
0.218,-0.12,-0.05,0.96,-1.11,-1.15,0.10,
0.218,-0.12,-0.05,0.96,-1.13,-1.19,-0.14,
0.22,-0.11,-0.05,0.95,-1.13,-1.19,-0.14,
0.223,-0.11,-0.05,0.94,-1.13,-1.19,-0.14,
0.223,-0.11,-0.05,0.94,-1.07,-1.17,-0.31,
0.225,-0.10,-0.04,0.93,-1.07,-1.17,-0.31,
0.228,-0.10,-0.03,0.92,-1.07,-1.17,-0.31,
0.228,-0.10,-0.03,0.92,-0.99,-1.16,-0.46,
0.23,-0.09,-0.02,0.91,-0.99,-1.16,-0.46,
0.233,-0.09,-0.02,0.91,-0.99,-1.16,-0.46,
0.233,-0.09,-0.02,0.91,-0.90,-1.02,-0.62,
0.235,-0.09,-0.01,0.90,-0.90,-1.02,-0.62,
0.238,-0.08,0.00,0.90,-0.90,-1.02,-0.62,
0.238,-0.08,0.00,0.90,-0.81,-0.93,-0.78,
0.24,-0.08,0.01,0.90,-0.81,-0.93,-0.78,
0.243,-0.07,0.02,0.90,-0.81,-0.93,-0.78,
0.243,-0.07,0.02,0.90,-0.73,-0.76,-0.86,
0.245,-0.07,0.02,0.90,-0.73,-0.76,-0.86,
0.248,-0.07,0.03,0.90,-0.73,-0.76,-0.86,
0.248,-0.07,0.03,0.90,-0.65,-0.59,-0.88,
0.25,-0.07,0.04,0.91,-0.65,-0.59,-0.88,
0.253,-0.07,0.05,0.91,-0.65,-0.59,-0.88,
0.253,-0.07,0.05,0.91,-0.63,-0.45,-0.85,
0.255,-0.07,0.05,0.92,-0.63,-0.45,-0.85,
0.257,-0.07,0.06,0.92,-0.63,-0.45,-0.85,
0.258,-0.07,0.06,0.92,-0.60,-0.29,-0.76,
0.261,-0.06,0.07,0.92,-0.60,-0.29,-0.76,
0.263,-0.07,0.08,0.93,-0.60,-0.29,-0.76,
0.263,-0.07,0.08,0.93,-0.59,-0.18,-0.71,
0.266,-0.06,0.08,0.94,-0.59,-0.18,-0.71,
0.268,-0.06,0.09,0.95,-0.59,-0.18,-0.71,
0.268,-0.06,0.09,0.95,-0.52,-0.03,-0.60,
0.27,-0.06,0.09,0.96,-0.52,-0.03,-0.60,
0.272,-0.05,0.09,0.97,-0.52,-0.03,-0.60,
0.273,-0.05,0.09,0.97,-0.48,0.08,-0.43,
0.275,-0.05,0.10,0.97,-0.48,0.08,-0.43,
0.277,-0.05,0.11,0.97,-0.48,0.08,-0.43,
0.278,-0.05,0.11,0.97,-0.42,0.14,-0.24,
0.28,-0.05,0.11,0.98,-0.42,0.14,-0.24,
0.282,-0.04,0.11,0.99,-0.42,0.14,-0.24,
0.283,-0.04,0.11,0.99,-0.36,0.24,-0.19,
0.285,-0.04,0.11,1.00,-0.36,0.24,-0.19,
0.287,-0.04,0.12,1.01,-0.36,0.24,-0.19,
0.287,-0.04,0.12,1.01,-0.31,0.30,-0.01,
0.29,-0.04,0.12,1.02,-0.31,0.30,-0.01,
0.292,-0.04,0.12,1.03,-0.31,0.30,-0.01,
0.292,-0.04,0.12,1.03,-0.24,0.38,0.17,
0.294,-0.04,0.13,1.04,-0.24,0.38,0.17,
0.297,-0.04,0.13,1.04,-0.24,0.38,0.17,
0.297,-0.04,0.13,1.04,-0.23,0.42,0.37,
0.3,-0.04,0.13,1.05,-0.23,0.42,0.37,
0.302,-0.04,0.13,1.05,-0.23,0.42,0.37,
0.302,-0.04,0.13,1.05,-0.23,0.48,0.48,
0.305,-0.05,0.13,1.05,-0.23,0.48,0.48,
0.307,-0.05,0.13,1.05,-0.23,0.48,0.48,
0.307,-0.05,0.13,1.05,-0.23,0.47,0.62,
0.31,-0.05,0.13,1.05,-0.23,0.47,0.62,
0.312,-0.05,0.13,1.06,-0.23,0.47,0.62,
0.313,-0.05,0.13,1.06,-0.29,0.49,0.64,
0.315,-0.05,0.13,1.07,-0.29,0.49,0.64,
0.317,-0.06,0.13,1.07,-0.29,0.49,0.64,
0.317,-0.06,0.13,1.07,-0.32,0.47,0.69,
0.319,-0.06,0.14,1.07,-0.32,0.47,0.69,
0.323,-0.06,0.14,1.07,-0.32,0.47,0.69,
0.323,-0.06,0.14,1.07,-0.37,0.51,0.75,
0.324,-0.06,0.13,1.07,-0.37,0.51,0.75,
0.327,-0.06,0.13,1.07,-0.37,0.51,0.75,
0.329,-0.06,0.13,1.07,-0.37,0.55,0.77,
0.329,-0.06,0.14,1.06,-0.37,0.55,0.77,
0.335,-0.06,0.14,1.06,-0.37,0.55,0.77,
0.335,-0.06,0.14,1.06,-0.44,0.51,0.76,
0.336,-0.06,0.14,1.05,-0.44,0.51,0.76,
0.337,-0.06,0.14,1.06,-0.44,0.51,0.76,
0.337,-0.06,0.14,1.06,-0.44,0.54,0.69,
0.339,-0.06,0.14,1.05,-0.44,0.54,0.69,
0.342,-0.05,0.14,1.05,-0.44,0.54,0.69,
0.342,-0.05,0.14,1.05,-0.40,0.55,0.62,
0.344,-0.05,0.15,1.05,-0.40,0.55,0.62,
0.347,-0.04,0.15,1.04,-0.40,0.55,0.62,
0.347,-0.04,0.15,1.04,-0.36,0.57,0.58,
0.349,-0.04,0.15,1.04,-0.36,0.57,0.58,
0.351,-0.04,0.14,1.04,-0.36,0.57,0.58,
0.352,-0.04,0.14,1.04,-0.29,0.59,0.50,
0.354,-0.03,0.14,1.04,-0.29,0.59,0.50,
0.356,-0.03,0.14,1.03,-0.29,0.59,0.50,
0.357,-0.03,0.14,1.03,-0.22,0.58,0.46,
0.359,-0.03,0.14,1.02,-0.22,0.58,0.46,
0.361,-0.02,0.14,1.03,-0.22,0.58,0.46,
0.362,-0.02,0.14,1.03,-0.19,0.56,0.39,
0.364,-0.02,0.14,1.02,-0.19,0.56,0.39,
0.366,-0.02,0.14,1.02,-0.19,0.56,0.39,
0.367,-0.02,0.14,1.02,-0.12,0.54,0.31,
0.369,-0.01,0.14,1.02,-0.12,0.54,0.31,
0.371,-0.01,0.14,1.02,-0.12,0.54,0.31,
0.372,-0.01,0.14,1.02,-0.07,0.50,0.26,
0.374,-0.01,0.13,1.03,-0.07,0.50,0.26,
0.376,-0.00,0.12,1.02,-0.07,0.50,0.26,
0.377,-0.00,0.12,1.02,0.04,0.47,0.27,
0.379,-0.00,0.12,1.03,0.04,0.47,0.27,
0.384,-0.00,0.12,1.02,0.04,0.47,0.27,
0.384,-0.00,0.12,1.02,0.05,0.37,0.29,
0.385,0.00,0.11,1.02,0.05,0.37,0.29,
0.386,0.01,0.11,1.02,0.05,0.37,0.29,
0.387,0.01,0.11,1.02,0.04,0.29,0.30,
0.389,0.01,0.11,1.02,0.04,0.29,0.30,
0.391,0.01,0.11,1.02,0.13,0.20,0.25,
0.392,-0.00,0.10,1.02,0.13,0.20,0.25,
0.394,0.01,0.10,1.01,0.13,0.20,0.25,
0.396,0.01,0.10,1.01,0.13,0.20,0.25,
0.397,0.01,0.10,1.01,0.10,0.15,0.21,
0.4,0.01,0.09,1.02,0.10,0.15,0.21,
0.402,0.00,0.09,1.01,0.10,0.15,0.21,
0.402,0.00,0.09,1.01,0.13,0.06,0.15,
0.404,0.00,0.09,1.01,0.13,0.06,0.15,
0.406,-0.00,0.08,1.01,0.13,0.06,0.15,
0.407,-0.00,0.08,1.01,0.11,-0.03,0.17,
0.408,-0.00,0.08,1.01,0.11,-0.03,0.17,
0.411,-0.01,0.08,1.01,0.11,-0.03,0.17,
0.411,-0.01,0.08,1.01,0.04,-0.05,0.13,
0.413,-0.00,0.08,1.01,0.04,-0.05,0.13,
0.418,-0.01,0.09,1.01,0.04,-0.05,0.13,
0.418,-0.01,0.09,1.01,0.01,-0.09,0.14,
0.419,-0.01,0.09,1.01,0.01,-0.09,0.14,
0.421,-0.02,0.09,1.01,0.01,-0.09,0.14,
0.421,-0.02,0.09,1.01,0.00,-0.07,0.15,
0.424,-0.01,0.09,1.01,0.00,-0.07,0.15,
0.426,-0.02,0.10,1.01,0.00,-0.07,0.15,
0.426,-0.02,0.10,1.01,-0.10,-0.05,0.16,
0.429,-0.02,0.09,1.01,-0.10,-0.05,0.16,
0.431,-0.02,0.10,1.01,-0.10,-0.05,0.16,
0.431,-0.02,0.10,1.01,-0.10,-0.03,0.12,
0.433,-0.03,0.10,1.00,-0.10,-0.03,0.12,
0.436,-0.04,0.09,1.00,-0.10,-0.03,0.12,
0.436,-0.04,0.09,1.00,-0.19,-0.04,0.13,
0.438,-0.04,0.09,1.00,-0.19,-0.04,0.13,
0.441,-0.04,0.09,1.00,-0.27,-0.03,0.08,
0.441,-0.04,0.09,0.99,-0.27,-0.03,0.08,
0.443,-0.05,0.09,0.99,-0.27,-0.03,0.08,
0.445,-0.05,0.09,0.98,-0.27,-0.03,0.08,
0.446,-0.05,0.09,0.98,-0.35,-0.09,-0.02,
0.448,-0.05,0.09,0.98,-0.35,-0.09,-0.02,
0.453,-0.06,0.09,0.98,-0.35,-0.09,-0.02,
0.454,-0.06,0.09,0.98,-0.42,-0.11,-0.08,
0.455,-0.06,0.09,0.97,-0.42,-0.11,-0.08,
0.455,-0.07,0.09,0.97,-0.42,-0.11,-0.08,
0.456,-0.07,0.09,0.97,-0.50,-0.16,-0.15,
0.458,-0.07,0.08,0.97,-0.50,-0.16,-0.15,
0.461,-0.07,0.08,0.97,-0.50,-0.16,-0.15,
0.461,-0.07,0.08,0.97,-0.57,-0.17,-0.23,
0.463,-0.07,0.08,0.97,-0.57,-0.17,-0.23,
0.469,-0.07,0.08,0.97,-0.57,-0.17,-0.23,
0.469,-0.07,0.08,0.97,-0.64,-0.22,-0.24,
0.469,-0.07,0.08,0.97,-0.64,-0.22,-0.24,
0.471,-0.07,0.08,0.98,-0.64,-0.22,-0.24,
0.471,-0.07,0.08,0.98,-0.65,-0.23,-0.22,
0.473,-0.07,0.08,0.98,-0.65,-0.23,-0.22,
0.476,-0.07,0.08,0.98,-0.65,-0.23,-0.22,
0.476,-0.07,0.08,0.98,-0.61,-0.24,-0.18,
0.478,-0.07,0.08,0.98,-0.61,-0.24,-0.18,
0.481,-0.05,0.09,0.98,-0.61,-0.24,-0.18,
0.481,-0.05,0.09,0.98,-0.59,-0.22,-0.16,
0.484,-0.05,0.10,0.99,-0.59,-0.22,-0.16,
0.486,-0.04,0.10,0.99,-0.59,-0.22,-0.16,
0.486,-0.04,0.10,0.99,-0.52,-0.18,-0.10,
0.488,-0.04,0.10,1.00,-0.52,-0.18,-0.10,
0.491,-0.04,0.10,1.00,-0.37,-0.10,-0.04,
0.491,-0.03,0.10,1.00,-0.37,-0.10,-0.04,
0.492,-0.03,0.10,1.00,-0.37,-0.10,-0.04,
0.496,-0.02,0.11,1.01,-0.37,-0.10,-0.04,
0.496,-0.02,0.11,1.01,-0.30,-0.09,0.03,
0.498,-0.02,0.10,1.01,-0.30,-0.09,0.03,
0.5,-0.02,0.10,1.01,-0.19,-0.04,0.12,
0.501,-0.02,0.10,1.01,-0.19,-0.04,0.12,
0.503,-0.02,0.10,1.01,-0.19,-0.04,0.12,
0.506,-0.02,0.10,1.02,-0.19,-0.04,0.12,
0.506,-0.02,0.10,1.02,-0.14,-0.07,0.16,
0.508,-0.01,0.10,1.02,-0.14,-0.07,0.16,
0.511,-0.01,0.10,1.02,-0.14,-0.07,0.16,
0.511,-0.01,0.10,1.02,-0.07,-0.09,0.20,
0.513,-0.01,0.10,1.01,-0.07,-0.09,0.20,
0.516,-0.01,0.09,1.01,-0.07,-0.09,0.20,
0.516,-0.01,0.09,1.01,-0.03,-0.10,0.22,
0.518,-0.01,0.10,1.01,-0.03,-0.10,0.22,
0.52,-0.01,0.09,1.01,-0.03,-0.10,0.22,
0.521,-0.01,0.09,1.01,-0.02,-0.15,0.18,
0.523,-0.00,0.09,1.01,-0.02,-0.15,0.18,
0.526,-0.00,0.09,1.01,-0.02,-0.15,0.18,
0.526,-0.00,0.09,1.01,0.03,-0.17,0.19,
0.528,-0.00,0.09,1.01,0.03,-0.17,0.19,
0.531,0.00,0.09,1.01,0.03,-0.17,0.19,
0.531,0.00,0.09,1.01,0.09,-0.21,0.15,
0.533,0.00,0.09,1.01,0.09,-0.21,0.15,
0.535,-0.00,0.09,1.00,0.09,-0.21,0.15,
0.536,-0.00,0.09,1.00,0.12,-0.21,0.17,
0.538,0.00,0.09,1.01,0.12,-0.21,0.17,
0.541,0.00,0.09,1.01,0.13,-0.20,0.11,
0.541,0.01,0.09,1.00,0.13,-0.20,0.11,
0.543,0.01,0.09,1.00,0.13,-0.20,0.11,
0.546,0.00,0.09,1.00,0.13,-0.20,0.11,
0.546,0.00,0.09,1.00,0.18,-0.22,0.13,
0.547,0.00,0.09,1.01,0.18,-0.22,0.13,
0.554,0.01,0.09,1.01,0.18,-0.22,0.13,
0.555,0.01,0.09,1.01,0.20,-0.20,0.08,
0.555,0.01,0.10,1.00,0.20,-0.20,0.08,
0.556,0.01,0.09,1.00,0.20,-0.20,0.08,
0.556,0.01,0.09,1.00,0.20,-0.21,0.12,
0.557,0.00,0.09,1.01,0.20,-0.21,0.12,
0.56,0.00,0.10,1.00,0.20,-0.21,0.12,
0.56,0.00,0.10,1.00,0.23,-0.18,0.09,
0.563,0.01,0.09,1.00,0.23,-0.18,0.09,
0.565,0.01,0.09,1.00,0.20,-0.19,0.09,
0.565,0.01,0.10,1.00,0.20,-0.19,0.09,
0.567,0.00,0.10,0.99,0.20,-0.19,0.09,
0.57,0.00,0.10,0.99,0.20,-0.19,0.09,
0.57,0.00,0.10,0.99,0.23,-0.19,0.02,
0.572,0.00,0.10,0.99,0.23,-0.19,0.02,
0.575,0.00,0.10,0.98,0.23,-0.19,0.02,
0.576,0.00,0.10,0.98,0.19,-0.17,-0.03,
0.578,0.00,0.10,0.97,0.19,-0.17,-0.03,
0.58,0.00,0.10,0.98,0.19,-0.17,-0.03,
0.58,0.00,0.10,0.98,0.20,-0.17,-0.09,
0.582,0.01,0.10,0.97,0.20,-0.17,-0.09,
0.585,0.00,0.11,0.97,0.20,-0.17,-0.09,
0.585,0.00,0.11,0.97,0.19,-0.15,-0.17,
0.587,0.01,0.10,0.97,0.19,-0.15,-0.17,
0.59,0.01,0.10,0.97,0.21,-0.13,-0.23,
0.59,0.01,0.10,0.96,0.21,-0.13,-0.23,
0.592,0.01,0.11,0.96,0.21,-0.13,-0.23,
0.594,0.01,0.10,0.95,0.21,-0.13,-0.23,
0.594,0.01,0.10,0.95,0.22,-0.15,-0.27,
0.597,0.01,0.10,0.94,0.22,-0.15,-0.27,
0.602,0.01,0.10,0.94,0.22,-0.15,-0.27,
0.603,0.01,0.10,0.94,0.22,-0.13,-0.38,
0.603,0.01,0.10,0.94,0.22,-0.13,-0.38,
0.604,0.01,0.10,0.94,0.22,-0.13,-0.38,
0.605,0.01,0.10,0.94,0.22,-0.14,-0.52,
0.607,0.01,0.10,0.95,0.22,-0.14,-0.52,
0.609,0.01,0.11,0.95,0.22,-0.14,-0.52,
0.609,0.01,0.11,0.95,0.23,-0.16,-0.49,
0.611,0.00,0.10,0.95,0.23,-0.16,-0.49,
0.614,0.00,0.10,0.95,0.23,-0.16,-0.49,
0.614,0.00,0.10,0.95,0.21,-0.15,-0.43,
0.617,-0.00,0.10,0.95,0.21,-0.15,-0.43,
0.619,-0.00,0.09,0.95,0.21,-0.15,-0.43,
0.619,-0.00,0.09,0.95,0.14,-0.19,-0.42,
0.621,-0.00,0.09,0.94,0.14,-0.19,-0.42,
0.624,0.00,0.09,0.94,0.14,-0.19,-0.42,
0.624,0.00,0.09,0.94,0.10,-0.26,-0.43,
0.627,0.00,0.09,0.94,0.10,-0.26,-0.43,
0.629,0.00,0.09,0.94,0.10,-0.26,-0.43,
0.629,0.00,0.09,0.94,0.11,-0.31,-0.50,
0.631,0.01,0.09,0.93,0.11,-0.31,-0.50,
0.634,0.02,0.09,0.93,0.11,-0.31,-0.50,
0.635,0.02,0.09,0.93,0.15,-0.32,-0.50,
0.637,0.02,0.09,0.93,0.15,-0.32,-0.50,
0.639,0.03,0.09,0.93,0.15,-0.32,-0.50,
0.639,0.03,0.09,0.93,0.25,-0.33,-0.59,
0.641,0.04,0.09,0.93,0.25,-0.33,-0.59,
0.644,0.04,0.10,0.92,0.25,-0.33,-0.59,
0.644,0.04,0.10,0.92,0.36,-0.31,-0.58,
0.646,0.04,0.09,0.92,0.36,-0.31,-0.58,
0.649,0.05,0.10,0.92,0.36,-0.31,-0.58,
0.649,0.05,0.10,0.92,0.46,-0.24,-0.62,
0.661,0.05,0.10,0.92,0.46,-0.24,-0.62,
0.662,0.05,0.10,0.92,0.46,-0.24,-0.62,
0.663,0.05,0.10,0.92,0.53,-0.26,-0.64,
0.663,0.05,0.10,0.92,0.53,-0.26,-0.64,
0.667,0.05,0.10,0.92,0.53,-0.26,-0.64,
0.668,0.05,0.10,0.92,0.56,-0.21,-0.65,
0.668,0.05,0.10,0.92,0.56,-0.21,-0.65,
0.668,0.05,0.10,0.92,0.56,-0.21,-0.65,
0.669,0.05,0.10,0.92,0.61,-0.23,-0.66,
0.669,0.05,0.10,0.91,0.61,-0.23,-0.66,
0.669,0.05,0.10,0.92,0.61,-0.23,-0.66,
0.669,0.05,0.10,0.92,0.57,-0.24,-0.64,
0.681,0.05,0.10,0.92,0.57,-0.24,-0.64,
0.682,0.04,0.10,0.92,0.57,-0.24,-0.64,
0.682,0.04,0.10,0.92,0.55,-0.26,-0.67,
0.682,0.04,0.10,0.93,0.55,-0.26,-0.67,
0.682,0.04,0.10,0.92,0.55,-0.26,-0.67,
0.682,0.04,0.10,0.92,0.53,-0.23,-0.62,
0.683,0.04,0.10,0.93,0.53,-0.23,-0.62,
0.687,0.04,0.10,0.94,0.53,-0.23,-0.62,
0.687,0.04,0.10,0.94,0.51,-0.22,-0.57,
0.687,0.04,0.10,0.94,0.51,-0.22,-0.57,
0.689,0.04,0.10,0.94,0.51,-0.22,-0.57,
0.689,0.04,0.10,0.94,0.44,-0.24,-0.48,
0.692,0.04,0.11,0.95,0.44,-0.24,-0.48,
0.694,0.03,0.11,0.95,0.44,-0.24,-0.48,
0.694,0.03,0.11,0.95,0.43,-0.22,-0.40,
0.696,0.03,0.11,0.96,0.43,-0.22,-0.40,
0.698,0.03,0.11,0.96,0.43,-0.22,-0.40,
0.698,0.03,0.11,0.96,0.42,-0.18,-0.30,
0.701,0.02,0.11,0.97,0.42,-0.18,-0.30,
0.705,0.02,0.10,0.97,0.42,-0.18,-0.30,
0.705,0.02,0.10,0.97,0.39,-0.18,-0.24,
0.705,0.02,0.10,0.97,0.39,-0.18,-0.24,
0.708,0.02,0.10,0.98,0.39,-0.18,-0.24,
0.708,0.02,0.10,0.98,0.31,-0.22,-0.12,
0.71,0.01,0.10,0.98,0.31,-0.22,-0.12,
0.713,0.01,0.09,0.98,0.31,-0.22,-0.12,
0.713,0.01,0.09,0.98,0.28,-0.28,-0.04,
0.716,0.01,0.09,0.99,0.28,-0.28,-0.04,
0.72,0.01,0.09,0.99,0.28,-0.28,-0.04,
0.721,0.01,0.09,0.99,0.22,-0.31,0.02,
0.721,0.01,0.09,0.99,0.22,-0.31,0.02,
0.723,0.01,0.09,0.99,0.22,-0.31,0.02,
0.723,0.01,0.09,0.99,0.23,-0.33,0.09,
0.726,0.02,0.09,0.99,0.23,-0.33,0.09,
0.728,0.02,0.09,0.99,0.23,-0.33,0.09,
0.728,0.02,0.09,0.99,0.25,-0.37,0.08,
0.731,0.02,0.09,0.98,0.25,-0.37,0.08,
0.733,0.02,0.09,0.98,0.25,-0.37,0.08,
0.733,0.02,0.09,0.98,0.29,-0.37,0.09,
0.736,0.03,0.09,0.98,0.29,-0.37,0.09,
0.738,0.03,0.09,0.98,0.29,-0.37,0.09,
0.739,0.03,0.09,0.98,0.35,-0.39,0.01,
0.741,0.04,0.09,0.98,0.35,-0.39,0.01,
0.743,0.04,0.09,0.98,0.35,-0.39,0.01,
0.743,0.04,0.09,0.98,0.40,-0.37,0.01,
0.746,0.04,0.10,0.97,0.40,-0.37,0.01,
0.748,0.05,0.10,0.96,0.40,-0.37,0.01,
0.748,0.05,0.10,0.96,0.51,-0.34,-0.05,
0.75,0.06,0.10,0.96,0.51,-0.34,-0.05,
0.755,0.06,0.10,0.95,0.51,-0.34,-0.05,
0.756,0.06,0.10,0.95,0.56,-0.27,-0.13,
0.756,0.06,0.11,0.95,0.56,-0.27,-0.13,
0.758,0.07,0.11,0.95,0.56,-0.27,-0.13,
0.758,0.07,0.11,0.95,0.66,-0.24,-0.23,
0.76,0.07,0.11,0.95,0.66,-0.24,-0.23,
0.763,0.07,0.12,0.95,0.66,-0.24,-0.23,
0.763,0.07,0.12,0.95,0.71,-0.17,-0.31,
0.766,0.08,0.12,0.95,0.71,-0.17,-0.31,
0.768,0.08,0.12,0.96,0.71,-0.17,-0.31,
0.768,0.08,0.12,0.96,0.77,-0.12,-0.27,
0.771,0.08,0.11,0.96,0.77,-0.12,-0.27,
0.773,0.08,0.11,0.96,0.77,-0.12,-0.27,
0.773,0.08,0.11,0.96,0.80,-0.08,-0.25,
0.776,0.08,0.11,0.96,0.80,-0.08,-0.25,
0.778,0.07,0.10,0.96,0.80,-0.08,-0.25,
0.778,0.07,0.10,0.96,0.81,-0.16,-0.19,
0.781,0.08,0.10,0.96,0.81,-0.16,-0.19,
0.783,0.08,0.10,0.97,0.81,-0.16,-0.19,
0.783,0.08,0.10,0.97,0.78,-0.20,-0.19,
0.786,0.08,0.10,0.97,0.78,-0.20,-0.19,
0.788,0.08,0.10,0.97,0.78,-0.23,-0.15,
0.789,0.08,0.10,0.97,0.78,-0.23,-0.15,
0.79,0.09,0.10,0.97,0.78,-0.23,-0.15,
0.793,0.09,0.09,0.97,0.78,-0.23,-0.15,
0.793,0.09,0.09,0.97,0.80,-0.26,-0.09,
0.795,0.09,0.09,0.97,0.80,-0.26,-0.09,
0.799,0.09,0.09,0.97,0.82,-0.30,-0.11,
0.799,0.10,0.09,0.97,0.82,-0.30,-0.11,
0.801,0.10,0.09,0.96,0.82,-0.30,-0.11,
0.803,0.11,0.10,0.96,0.82,-0.30,-0.11,
0.803,0.11,0.10,0.96,0.90,-0.31,-0.12,
0.805,0.11,0.09,0.95,0.90,-0.31,-0.12,
0.807,0.11,0.09,0.95,0.97,-0.28,-0.16,
0.808,0.11,0.10,0.95,0.97,-0.28,-0.16,
0.811,0.12,0.10,0.95,0.97,-0.28,-0.16,
0.813,0.12,0.10,0.95,0.97,-0.28,-0.16,
0.813,0.12,0.10,0.95,1.03,-0.28,-0.27,
0.815,0.13,0.10,0.95,1.03,-0.28,-0.27,
0.82,0.12,0.10,0.95,1.03,-0.28,-0.27,
0.821,0.12,0.10,0.95,1.07,-0.22,-0.27,
0.821,0.13,0.11,0.95,1.07,-0.22,-0.27,
0.823,0.13,0.10,0.95,1.07,-0.22,-0.27,
0.827,0.13,0.10,0.95,1.12,-0.20,-0.29,
0.827,0.13,0.11,0.94,1.12,-0.20,-0.29,
0.828,0.13,0.11,0.95,1.12,-0.20,-0.29,
0.828,0.13,0.11,0.95,1.14,-0.18,-0.29,
0.83,0.12,0.11,0.94,1.14,-0.18,-0.29,
0.833,0.12,0.12,0.95,1.14,-0.18,-0.29,
0.833,0.12,0.12,0.95,1.12,-0.14,-0.33,
0.835,0.12,0.12,0.96,1.12,-0.14,-0.33,
0.838,0.12,0.12,0.96,1.09,-0.10,-0.32,
0.838,0.12,0.12,0.95,1.09,-0.10,-0.32,
0.839,0.12,0.12,0.96,1.09,-0.10,-0.32,
0.842,0.12,0.12,0.97,1.09,-0.10,-0.32,
0.842,0.12,0.12,0.97,1.05,-0.03,-0.21,
0.845,0.11,0.11,0.97,1.05,-0.03,-0.21,
0.847,0.10,0.11,0.97,1.05,-0.03,-0.21,
0.847,0.10,0.11,0.97,1.02,-0.07,-0.13,
0.849,0.10,0.11,0.97,1.02,-0.07,-0.13,
0.853,0.10,0.11,0.97,1.02,-0.07,-0.13,
0.853,0.10,0.11,0.97,0.90,-0.13,-0.06,
0.854,0.10,0.10,0.97,0.90,-0.13,-0.06,
0.857,0.10,0.10,0.97,0.85,-0.15,-0.04,
0.857,0.10,0.10,0.96,0.85,-0.15,-0.04,
0.861,0.10,0.11,0.96,0.85,-0.15,-0.04,
0.862,0.11,0.10,0.96,0.85,-0.15,-0.04,
0.862,0.11,0.10,0.96,0.84,-0.19,-0.11,
0.865,0.11,0.10,0.96,0.84,-0.19,-0.11,
0.868,0.11,0.10,0.95,0.84,-0.19,-0.11,
0.868,0.11,0.10,0.95,0.87,-0.20,-0.19,
0.874,0.10,0.10,0.95,0.87,-0.20,-0.19,
0.875,0.11,0.10,0.94,0.87,-0.20,-0.19,
0.875,0.11,0.10,0.94,0.89,-0.20,-0.25,
0.875,0.11,0.10,0.94,0.89,-0.20,-0.25,
0.876,0.10,0.09,0.94,0.89,-0.20,-0.25,
0.877,0.10,0.09,0.94,0.88,-0.23,-0.33,
0.879,0.10,0.09,0.93,0.88,-0.23,-0.33,
0.882,0.10,0.10,0.92,0.88,-0.23,-0.33,
0.882,0.10,0.10,0.92,0.87,-0.23,-0.40,
0.884,0.10,0.10,0.92,0.87,-0.23,-0.40,
0.889,0.10,0.10,0.92,0.87,-0.23,-0.40,
0.89,0.10,0.10,0.92,0.82,-0.23,-0.50,
0.89,0.10,0.09,0.92,0.82,-0.23,-0.50,
0.891,0.09,0.09,0.92,0.82,-0.23,-0.50,
0.892,0.09,0.09,0.92,0.79,-0.22,-0.52,
0.894,0.09,0.10,0.92,0.79,-0.22,-0.52,
0.897,0.09,0.10,0.92,0.79,-0.22,-0.52,
0.897,0.09,0.10,0.92,0.76,-0.26,-0.53,
0.899,0.09,0.09,0.92,0.76,-0.26,-0.53,
0.902,0.09,0.10,0.92,0.76,-0.26,-0.53,
0.902,0.09,0.10,0.92,0.73,-0.22,-0.53,
0.904,0.10,0.10,0.92,0.73,-0.22,-0.53,
0.906,0.10,0.10,0.92,0.73,-0.22,-0.53,
0.906,0.10,0.10,0.92,0.73,-0.21,-0.52,
0.909,0.11,0.11,0.91,0.73,-0.21,-0.52,
0.912,0.11,0.11,0.91,0.82,-0.17,-0.52,
0.912,0.11,0.11,0.91,0.82,-0.17,-0.52,
0.915,0.12,0.11,0.91,0.82,-0.17,-0.52,
0.916,0.11,0.11,0.91,0.82,-0.17,-0.52,
0.917,0.11,0.11,0.91,0.89,-0.10,-0.61,
0.919,0.12,0.12,0.91,0.89,-0.10,-0.61,
0.921,0.12,0.11,0.91,0.89,-0.10,-0.61,
0.921,0.12,0.11,0.91,0.96,-0.04,-0.60,
0.923,0.12,0.11,0.91,0.96,-0.04,-0.60,
0.926,0.12,0.11,0.91,0.96,-0.04,-0.60,
0.927,0.12,0.11,0.91,0.97,-0.01,-0.59,
0.928,0.13,0.11,0.91,0.97,-0.01,-0.59,
0.931,0.13,0.11,0.91,0.97,-0.01,-0.59,
0.931,0.13,0.11,0.91,1.01,-0.01,-0.60,
0.933,0.13,0.11,0.91,1.01,-0.01,-0.60,
0.936,0.12,0.11,0.91,1.01,-0.01,-0.60,
0.937,0.12,0.11,0.91,1.07,-0.01,-0.59,
0.94,0.12,0.11,0.91,1.07,-0.01,-0.59,
0.941,0.13,0.11,0.91,1.07,-0.01,-0.59,
0.941,0.13,0.11,0.91,1.06,-0.02,-0.63,
0.944,0.13,0.11,0.91,1.06,-0.02,-0.63,
0.947,0.13,0.11,0.91,1.06,-0.02,-0.63,
0.947,0.13,0.11,0.91,1.07,-0.06,-0.61,
0.948,0.13,0.11,0.91,1.07,-0.06,-0.61,
0.952,0.13,0.11,0.91,1.12,-0.03,-0.61,
0.952,0.13,0.10,0.91,1.12,-0.03,-0.61,
0.953,0.13,0.10,0.91,1.12,-0.03,-0.61,
0.956,0.13,0.10,0.91,1.12,-0.03,-0.61,
0.956,0.13,0.10,0.91,1.15,-0.07,-0.61,
0.958,0.14,0.09,0.90,1.15,-0.07,-0.61,
0.961,0.14,0.09,0.90,1.15,-0.07,-0.61,
0.962,0.14,0.09,0.90,1.17,-0.09,-0.62,
0.964,0.14,0.09,0.90,1.17,-0.09,-0.62,
0.966,0.14,0.09,0.89,1.17,-0.09,-0.62,
0.966,0.14,0.09,0.89,1.22,-0.15,-0.67,
0.97,0.14,0.09,0.89,1.22,-0.15,-0.67,
0.97,0.15,0.08,0.89,1.22,-0.15,-0.67,
0.97,0.15,0.08,0.89,1.24,-0.16,-0.73,
0.974,0.15,0.08,0.89,1.24,-0.16,-0.73,
0.976,0.16,0.08,0.88,1.24,-0.16,-0.73,
0.976,0.16,0.08,0.88,1.29,-0.21,-0.77,
0.978,0.16,0.08,0.88,1.29,-0.21,-0.77,
0.982,0.16,0.08,0.87,1.29,-0.21,-0.77,
0.982,0.16,0.08,0.87,1.39,-0.22,-0.82,
0.983,0.16,0.07,0.87,1.39,-0.22,-0.82,
0.99,0.16,0.07,0.87,1.44,-0.26,-0.90,
0.991,0.16,0.07,0.86,1.44,-0.26,-0.90,
0.995,0.17,0.07,0.86,1.44,-0.26,-0.90,
0.996,0.17,0.06,0.86,1.44,-0.26,-0.90,
0.996,0.17,0.06,0.86,1.47,-0.30,-0.97,
0.997,0.16,0.06,0.86,1.47,-0.30,-0.97,
0.997,0.16,0.05,0.86,1.47,-0.30,-0.97,
0.997,0.16,0.05,0.86,1.51,-0.35,-1.03,
0.998,0.16,0.05,0.86,1.51,-0.35,-1.03,
1.001,0.16,0.05,0.86,1.51,-0.35,-1.03,
1.001,0.16,0.05,0.86,1.48,-0.40,-1.02,
1.003,0.16,0.05,0.86,1.48,-0.40,-1.02,
1.005,0.15,0.05,0.86,1.48,-0.40,-1.02,
1.006,0.15,0.05,0.86,1.45,-0.44,-1.03,
1.008,0.15,0.05,0.87,1.45,-0.44,-1.03,
1.01,0.15,0.05,0.87,1.40,-0.44,-0.97,
1.011,0.15,0.04,0.87,1.40,-0.44,-0.97,
1.014,0.15,0.04,0.88,1.40,-0.44,-0.97,
1.015,0.15,0.04,0.88,1.40,-0.44,-0.97,
1.016,0.15,0.04,0.88,1.36,-0.46,-0.92,
1.019,0.14,0.05,0.89,1.36,-0.46,-0.92,
1.02,0.14,0.05,0.90,1.36,-0.46,-0.92,
1.02,0.14,0.05,0.90,1.32,-0.43,-0.83,
1.023,0.14,0.05,0.91,1.32,-0.43,-0.83,
1.025,0.14,0.05,0.92,1.32,-0.43,-0.83,
1.025,0.14,0.05,0.92,1.29,-0.35,-0.63,
1.027,0.14,0.06,0.94,1.29,-0.35,-0.63,
1.03,0.14,0.06,0.96,1.29,-0.35,-0.63,
1.03,0.14,0.06,0.96,1.28,-0.28,-0.44,
1.033,0.14,0.07,0.96,1.28,-0.28,-0.44,
1.036,0.14,0.07,0.96,1.30,-0.18,-0.12,
1.037,0.14,0.07,0.97,1.30,-0.18,-0.12,
1.037,0.14,0.07,0.99,1.30,-0.18,-0.12,
1.04,0.14,0.07,1.00,1.30,-0.18,-0.12,
1.04,0.14,0.07,1.00,1.30,-0.07,0.06,
1.043,0.15,0.07,1.00,1.30,-0.07,0.06,
1.045,0.15,0.07,1.00,1.30,-0.07,0.06,
1.045,0.15,0.07,1.00,1.33,-0.02,0.30,
1.047,0.15,0.07,1.01,1.33,-0.02,0.30,
1.05,0.15,0.07,1.01,1.33,-0.02,0.30,
1.05,0.15,0.07,1.01,1.40,0.01,0.38,
1.053,0.16,0.06,1.02,1.40,0.01,0.38,
1.055,0.16,0.05,1.02,1.40,0.01,0.38,
1.055,0.16,0.05,1.02,1.41,0.01,0.46,
1.057,0.16,0.05,1.02,1.41,0.01,0.46,
1.06,0.16,0.04,1.02,1.41,0.01,0.46,
1.06,0.16,0.04,1.02,1.47,-0.11,0.54,
1.062,0.16,0.04,1.01,1.47,-0.11,0.54,
1.065,0.16,0.03,1.02,1.47,-0.11,0.54,
1.065,0.16,0.03,1.02,1.49,-0.19,0.53,
1.067,0.16,0.03,1.01,1.49,-0.19,0.53,
1.07,0.17,0.02,1.01,1.49,-0.19,0.53,
1.07,0.17,0.02,1.01,1.54,-0.26,0.47,
1.072,0.17,0.02,1.00,1.54,-0.26,0.47,
1.075,0.17,0.01,1.01,1.54,-0.26,0.47,
1.075,0.17,0.01,1.01,1.55,-0.37,0.39,
1.077,0.17,0.01,1.01,1.55,-0.37,0.39,
1.08,0.17,0.01,1.00,1.55,-0.37,0.39,
1.08,0.17,0.01,1.00,1.61,-0.42,0.37,
1.082,0.17,0.00,1.00,1.61,-0.42,0.37,
1.085,0.17,0.00,1.01,1.61,-0.42,0.37,
1.085,0.17,0.00,1.01,1.63,-0.48,0.36,
1.09,0.17,0.00,1.00,1.63,-0.48,0.36,
1.091,0.17,0.00,1.00,1.63,-0.48,0.36,
1.091,0.17,0.00,1.00,1.63,-0.52,0.34,
1.091,0.17,0.00,1.00,1.63,-0.52,0.34,
1.094,0.17,0.01,1.01,1.63,-0.52,0.34,
1.094,0.17,0.01,1.01,1.63,-0.49,0.29,
1.098,0.17,0.01,1.01,1.63,-0.49,0.29,
1.099,0.16,0.01,1.02,1.63,-0.49,0.29,
1.1,0.16,0.01,1.02,1.60,-0.44,0.34,
1.103,0.16,0.01,1.02,1.60,-0.44,0.34,
1.104,0.15,0.02,1.03,1.60,-0.44,0.34,
1.104,0.15,0.02,1.03,1.55,-0.34,0.45,
1.107,0.15,0.02,1.03,1.55,-0.34,0.45,
1.11,0.15,0.02,1.03,1.45,-0.27,0.55,
1.11,0.14,0.03,1.03,1.45,-0.27,0.55,
1.112,0.14,0.03,1.04,1.45,-0.27,0.55,
1.114,0.13,0.03,1.05,1.45,-0.27,0.55,
1.115,0.13,0.03,1.05,1.38,-0.19,0.59,
1.117,0.14,0.04,1.05,1.38,-0.19,0.59,
1.12,0.14,0.05,1.06,1.38,-0.19,0.59,
1.121,0.14,0.05,1.06,1.29,-0.11,0.70,
1.122,0.14,0.05,1.07,1.29,-0.11,0.70,
1.124,0.14,0.05,1.07,1.28,0.04,0.81,
1.124,0.14,0.05,1.08,1.28,0.04,0.81,
1.127,0.13,0.06,1.08,1.28,0.04,0.81,
1.129,0.13,0.06,1.08,1.28,0.14,0.98,
1.129,0.14,0.05,1.09,1.28,0.14,0.98,
1.131,0.14,0.06,1.09,1.28,0.14,0.98,
1.133,0.14,0.07,1.10,1.28,0.14,0.98,
1.134,0.14,0.07,1.10,1.24,0.20,1.09,
1.136,0.15,0.06,1.10,1.24,0.20,1.09,
1.139,0.15,0.06,1.10,1.24,0.20,1.09,
1.139,0.15,0.06,1.10,1.29,0.29,1.19,
1.141,0.15,0.06,1.10,1.29,0.29,1.19,
1.143,0.16,0.06,1.11,1.29,0.29,1.19,
1.144,0.16,0.06,1.11,1.33,0.31,1.24,
1.146,0.16,0.06,1.10,1.33,0.31,1.24,
1.148,0.16,0.06,1.10,1.33,0.31,1.24,
1.148,0.16,0.06,1.10,1.39,0.32,1.22,
1.151,0.16,0.05,1.10,1.39,0.32,1.22,
1.156,0.17,0.05,1.10,1.39,0.32,1.22,
1.157,0.17,0.05,1.10,1.45,0.32,1.23,
1.157,0.17,0.05,1.10,1.45,0.32,1.23,
1.158,0.17,0.05,1.09,1.45,0.32,1.23,
1.159,0.17,0.05,1.09,1.47,0.26,1.18,
1.161,0.17,0.04,1.09,1.47,0.26,1.18,
1.163,0.18,0.04,1.09,1.47,0.26,1.18,
1.164,0.18,0.04,1.09,1.51,0.23,1.12,
1.166,0.18,0.04,1.09,1.51,0.23,1.12,
1.17,0.18,0.04,1.09,1.51,0.23,1.12,
1.17,0.18,0.04,1.09,1.55,0.16,1.03,
1.171,0.18,0.04,1.09,1.55,0.16,1.03,
1.173,0.18,0.04,1.09,1.55,0.16,1.03,
1.174,0.18,0.04,1.09,1.59,0.18,1.05,
1.176,0.18,0.04,1.10,1.59,0.18,1.05,
1.178,0.18,0.05,1.11,1.59,0.18,1.05,
1.178,0.18,0.05,1.11,1.60,0.18,1.09,
1.18,0.18,0.04,1.12,1.60,0.18,1.09,
1.183,0.17,0.04,1.12,1.60,0.18,1.09,
1.183,0.17,0.04,1.12,1.58,0.24,1.18,
1.186,0.17,0.04,1.13,1.58,0.24,1.18,
1.188,0.17,0.04,1.13,1.58,0.24,1.18,
1.188,0.17,0.04,1.13,1.55,0.24,1.35,
1.191,0.16,0.04,1.14,1.55,0.24,1.35,
1.193,0.16,0.03,1.15,1.55,0.24,1.35,
1.193,0.16,0.03,1.15,1.48,0.22,1.46,
1.195,0.16,0.03,1.15,1.48,0.22,1.46,
1.198,0.16,0.03,1.16,1.48,0.22,1.46,
1.198,0.16,0.03,1.16,1.37,0.18,1.59,
1.2,0.15,0.02,1.16,1.37,0.18,1.59,
1.206,0.15,0.02,1.16,1.37,0.18,1.59,
1.207,0.15,0.02,1.16,1.35,0.13,1.68,
1.207,0.14,0.01,1.16,1.35,0.13,1.68,
1.208,0.14,0.01,1.16,1.35,0.13,1.68,
1.208,0.14,0.01,1.16,1.26,0.07,1.71,
1.21,0.14,-0.00,1.15,1.26,0.07,1.71,
1.213,0.14,-0.01,1.15,1.26,0.07,1.71,
1.213,0.14,-0.01,1.15,1.20,-0.04,1.72,
1.215,0.13,-0.01,1.15,1.20,-0.04,1.72,
1.218,0.12,-0.01,1.14,1.20,-0.04,1.72,
1.218,0.12,-0.01,1.14,1.13,-0.17,1.65,
1.22,0.12,-0.02,1.14,1.13,-0.17,1.65,
1.223,0.11,-0.02,1.13,1.13,-0.17,1.65,
1.223,0.11,-0.02,1.13,1.01,-0.25,1.59,
1.225,0.11,-0.02,1.14,1.01,-0.25,1.59,
1.227,0.10,-0.02,1.13,1.01,-0.25,1.59,
1.228,0.10,-0.02,1.13,0.88,-0.30,1.48,
1.23,0.10,-0.02,1.12,0.88,-0.30,1.48,
1.233,0.10,-0.02,1.11,0.88,-0.30,1.48,
1.233,0.10,-0.02,1.11,0.78,-0.33,1.43,
1.236,0.10,-0.02,1.10,0.78,-0.33,1.43,
1.238,0.10,-0.02,1.09,0.78,-0.33,1.43,
1.238,0.10,-0.02,1.09,0.72,-0.30,1.23,
1.24,0.09,-0.02,1.09,0.72,-0.30,1.23,
1.243,0.09,-0.02,1.08,0.72,-0.30,1.23,
1.243,0.09,-0.02,1.08,0.67,-0.32,1.08,
1.245,0.09,-0.02,1.08,0.67,-0.32,1.08,
1.248,0.09,-0.02,1.08,0.67,-0.32,1.08,
1.248,0.09,-0.02,1.08,0.60,-0.36,0.92,
1.25,0.09,-0.01,1.08,0.60,-0.36,0.92,
1.254,0.09,-0.01,1.07,0.60,-0.36,0.92,
1.255,0.09,-0.01,1.07,0.57,-0.33,0.87,
1.255,0.09,-0.01,1.07,0.57,-0.33,0.87,
1.258,0.09,-0.01,1.07,0.57,-0.33,0.87,
1.258,0.09,-0.01,1.07,0.55,-0.29,0.85,
1.26,0.09,0.00,1.07,0.55,-0.29,0.85,
1.262,0.09,0.01,1.06,0.55,-0.29,0.85,
1.263,0.09,0.01,1.06,0.56,-0.24,0.83,
1.265,0.09,0.01,1.07,0.56,-0.24,0.83,
1.268,0.09,0.01,1.08,0.56,-0.24,0.83,
1.268,0.09,0.01,1.08,0.54,-0.15,0.76,
1.271,0.08,0.02,1.08,0.54,-0.15,0.76,
1.272,0.08,0.03,1.08,0.54,-0.15,0.76,
1.273,0.08,0.03,1.08,0.53,-0.09,0.83,
1.275,0.08,0.03,1.08,0.53,-0.09,0.83,
1.277,0.07,0.03,1.07,0.53,-0.09,0.83,
1.278,0.07,0.03,1.07,0.43,0.03,0.88,
1.28,0.06,0.03,1.08,0.43,0.03,0.88,
1.283,0.05,0.04,1.08,0.43,0.03,0.88,
1.283,0.05,0.04,1.08,0.37,0.07,0.85,
1.285,0.05,0.03,1.08,0.37,0.07,0.85,
1.289,0.04,0.03,1.08,0.37,0.07,0.85,
1.289,0.04,0.03,1.08,0.21,0.11,0.89,
1.29,0.03,0.03,1.07,0.21,0.11,0.89,
1.293,0.02,0.03,1.07,0.21,0.11,0.89,
1.293,0.02,0.03,1.07,0.08,0.08,0.89,
1.295,0.02,0.03,1.07,0.08,0.08,0.89,
1.297,0.02,0.03,1.07,0.08,0.08,0.89,
1.298,0.02,0.03,1.07,-0.09,0.06,0.83,
1.3,0.01,0.02,1.07,-0.09,0.06,0.83,
1.313,0.01,0.03,1.07,-0.09,0.06,0.83,
1.315,0.01,0.03,1.07,-0.20,0.00,0.78,
1.315,0.00,0.03,1.06,-0.20,0.00,0.78,
1.316,-0.00,0.03,1.06,-0.20,0.00,0.78,
1.317,-0.00,0.03,1.06,-0.29,-0.03,0.79,
1.317,0.00,0.03,1.05,-0.29,-0.03,0.79,
1.318,-0.00,0.02,1.05,-0.29,-0.03,0.79,
1.318,-0.00,0.02,1.05,-0.40,-0.03,0.71,
1.318,-0.00,0.03,1.04,-0.40,-0.03,0.71,
1.319,-0.00,0.03,1.03,-0.40,-0.03,0.71,
1.323,-0.00,0.03,1.03,-0.43,-0.06,0.57,
1.323,0.00,0.03,1.02,-0.43,-0.06,0.57,
1.324,0.00,0.02,1.01,-0.43,-0.06,0.57,
1.324,0.00,0.02,1.01,-0.45,-0.04,0.45,
1.325,0.00,0.02,1.00,-0.45,-0.04,0.45,
1.333,0.00,0.02,0.99,-0.45,-0.04,0.45,
1.334,0.00,0.02,0.99,-0.45,-0.07,0.29,
1.334,0.00,0.02,0.98,-0.45,-0.07,0.29,
1.335,0.01,0.02,0.97,-0.45,-0.07,0.29,
1.335,0.01,0.02,0.97,-0.48,-0.13,0.05,
1.335,0.01,0.02,0.96,-0.48,-0.13,0.05,
1.344,0.01,0.02,0.95,-0.48,-0.13,0.05,
1.345,0.01,0.02,0.95,-0.47,-0.13,-0.14,
1.345,0.01,0.02,0.94,-0.47,-0.13,-0.14,
1.346,0.02,0.02,0.93,-0.47,-0.13,-0.14,
1.346,0.02,0.02,0.93,-0.43,-0.15,-0.34,
1.346,0.02,0.02,0.93,-0.43,-0.15,-0.34,
1.347,0.02,0.02,0.92,-0.43,-0.15,-0.34,
1.347,0.02,0.02,0.92,-0.42,-0.15,-0.49,
1.349,0.03,0.02,0.91,-0.42,-0.15,-0.49,
1.352,0.03,0.03,0.91,-0.42,-0.15,-0.49,
1.352,0.03,0.03,0.91,-0.39,-0.16,-0.66,
1.355,0.04,0.03,0.91,-0.39,-0.16,-0.66,
1.357,0.04,0.04,0.91,-0.39,-0.16,-0.66,
1.357,0.04,0.04,0.91,-0.34,-0.11,-0.77,
1.359,0.05,0.04,0.91,-0.34,-0.11,-0.77,
1.362,0.06,0.05,0.92,-0.34,-0.11,-0.77,
1.362,0.06,0.05,0.92,-0.27,0.01,-0.80,
1.364,0.06,0.05,0.92,-0.27,0.01,-0.80,
1.367,0.07,0.05,0.93,-0.27,0.01,-0.80,
1.367,0.07,0.05,0.93,-0.14,0.09,-0.72,
1.369,0.07,0.05,0.93,-0.14,0.09,-0.72,
1.371,0.07,0.05,0.95,-0.14,0.09,-0.72,
1.372,0.07,0.05,0.95,-0.07,0.16,-0.62,
1.374,0.07,0.05,0.96,-0.07,0.16,-0.62,
1.376,0.07,0.05,0.97,-0.07,0.16,-0.62,
1.376,0.07,0.05,0.97,-0.04,0.20,-0.45,
1.38,0.07,0.05,1.00,-0.04,0.20,-0.45,
1.383,0.06,0.05,1.01,-0.04,0.20,-0.45,
1.383,0.06,0.05,1.01,-0.06,0.22,-0.18,
1.384,0.06,0.04,1.02,-0.06,0.22,-0.18,
1.386,0.06,0.04,1.04,-0.06,0.22,-0.18,
1.387,0.06,0.04,1.04,-0.10,0.20,0.16,
1.389,0.06,0.04,1.05,-0.10,0.20,0.16,
1.391,0.06,0.03,1.06,-0.10,0.20,0.16,
1.392,0.06,0.03,1.06,-0.16,0.14,0.44,
1.394,0.05,0.04,1.07,-0.16,0.14,0.44,
1.397,0.05,0.03,1.09,-0.16,0.14,0.44,
1.397,0.05,0.03,1.09,-0.16,0.09,0.67,
1.399,0.05,0.03,1.09,-0.16,0.09,0.67,
1.402,0.05,0.03,1.09,-0.16,0.09,0.67,
1.402,0.05,0.03,1.09,-0.20,0.10,0.90,
1.404,0.04,0.03,1.10,-0.20,0.10,0.90,
1.406,0.04,0.03,1.10,-0.20,0.10,0.90,
1.407,0.04,0.03,1.10,-0.22,0.04,1.01,
1.409,0.04,0.03,1.10,-0.22,0.04,1.01,
1.412,0.04,0.03,1.10,-0.29,0.07,1.07,
1.412,0.03,0.03,1.10,-0.29,0.07,1.07,
1.414,0.03,0.03,1.09,-0.29,0.07,1.07,
1.417,0.02,0.03,1.09,-0.29,0.07,1.07,
1.417,0.02,0.03,1.09,-0.38,0.05,1.09,
1.419,0.01,0.02,1.09,-0.38,0.05,1.09,
1.426,0.01,0.02,1.08,-0.38,0.05,1.09,
1.427,0.01,0.02,1.08,-0.49,0.05,0.99,
1.427,0.00,0.03,1.07,-0.49,0.05,0.99,
1.427,0.00,0.02,1.05,-0.49,0.05,0.99,
1.427,0.00,0.02,1.05,-0.61,0.00,0.92,
1.429,-0.00,0.02,1.04,-0.61,0.00,0.92,
1.431,-0.00,0.03,1.04,-0.61,0.00,0.92,
1.431,-0.00,0.03,1.04,-0.67,0.01,0.71,
1.433,-0.00,0.03,1.03,-0.67,0.01,0.71,
1.436,-0.00,0.03,1.02,-0.67,0.01,0.71,
1.436,-0.00,0.03,1.02,-0.74,0.02,0.50,
1.439,-0.00,0.04,1.02,-0.74,0.02,0.50,
1.441,-0.00,0.03,1.01,-0.74,0.02,0.50,
1.441,-0.00,0.03,1.01,-0.73,0.08,0.37,
1.444,0.01,0.04,1.01,-0.73,0.08,0.37,
1.446,0.01,0.04,1.01,-0.73,0.08,0.37,
1.447,0.01,0.04,1.01,-0.71,0.12,0.23,
1.449,0.01,0.04,1.01,-0.71,0.12,0.23,
1.451,0.01,0.04,1.01,-0.71,0.12,0.23,
1.452,0.01,0.04,1.01,-0.65,0.17,0.19,
1.453,0.02,0.04,1.02,-0.65,0.17,0.19,
1.457,0.02,0.04,1.03,-0.65,0.17,0.19,
1.458,0.02,0.04,1.03,-0.59,0.15,0.22,
1.458,0.03,0.03,1.03,-0.59,0.15,0.22,
1.461,0.04,0.03,1.03,-0.59,0.15,0.22,
1.461,0.04,0.03,1.03,-0.51,0.14,0.33,
1.463,0.04,0.03,1.03,-0.51,0.14,0.33,
1.466,0.06,0.02,1.03,-0.51,0.14,0.33,
1.467,0.06,0.02,1.03,-0.39,0.10,0.37,
1.469,0.06,0.02,1.04,-0.39,0.10,0.37,
1.472,0.07,0.02,1.03,-0.39,0.10,0.37,
1.473,0.07,0.02,1.03,-0.25,0.04,0.40,
1.473,0.08,0.02,1.03,-0.25,0.04,0.40,
1.475,0.09,0.02,1.04,-0.25,0.04,0.40,
1.475,0.09,0.02,1.04,-0.12,0.02,0.45,
1.478,0.10,0.02,1.03,-0.12,0.02,0.45,
1.482,0.10,0.02,1.03,-0.12,0.02,0.45,
1.482,0.10,0.02,1.03,0.07,0.01,0.44,
1.486,0.10,0.01,1.03,0.07,0.01,0.44,
1.486,0.11,0.01,1.03,0.07,0.01,0.44,
1.487,0.11,0.01,1.03,0.21,-0.01,0.43,
1.489,0.11,0.01,1.03,0.21,-0.01,0.43,
1.49,0.11,0.01,1.03,0.21,-0.01,0.43,
1.49,0.11,0.01,1.03,0.23,-0.06,0.42,
1.493,0.11,0.01,1.03,0.23,-0.06,0.42,
1.495,0.10,0.01,1.03,0.23,-0.06,0.42,
1.495,0.10,0.01,1.03,0.26,-0.09,0.41,
1.498,0.10,0.01,1.04,0.26,-0.09,0.41,
1.5,0.10,0.00,1.04,0.26,-0.09,0.41,
1.5,0.10,0.00,1.04,0.24,-0.12,0.42,
1.502,0.09,-0.00,1.03,0.24,-0.12,0.42,
1.505,0.08,-0.00,1.03,0.24,-0.12,0.42,
1.506,0.08,-0.00,1.03,0.15,-0.13,0.45,
1.507,0.08,-0.00,1.03,0.15,-0.13,0.45,
1.51,0.08,-0.00,1.03,0.03,-0.19,0.41,
1.51,0.07,-0.00,1.03,0.03,-0.19,0.41,
1.513,0.06,-0.00,1.03,0.03,-0.19,0.41,
1.515,0.05,0.00,1.02,0.03,-0.19,0.41,
1.515,0.05,0.00,1.02,-0.12,-0.21,0.42,
1.517,0.05,0.00,1.02,-0.12,-0.21,0.42,
1.529,0.04,-0.00,1.02,-0.12,-0.21,0.42,
1.531,0.04,-0.00,1.02,-0.28,-0.17,0.35,
1.531,0.03,0.00,1.02,-0.28,-0.17,0.35,
1.532,0.02,0.00,1.02,-0.28,-0.17,0.35,
1.532,0.02,0.00,1.02,-0.41,-0.16,0.30,
1.533,0.02,0.01,1.02,-0.41,-0.16,0.30,
1.533,0.01,0.01,1.02,-0.41,-0.16,0.30,
1.534,0.01,0.01,1.02,-0.58,-0.15,0.26,
1.534,0.00,0.01,1.02,-0.58,-0.15,0.26,
1.535,-0.01,0.01,1.02,-0.58,-0.15,0.26,
1.535,-0.01,0.01,1.02,-0.72,-0.12,0.29,
1.547,-0.01,0.01,1.01,-0.72,-0.12,0.29,
1.548,-0.01,0.01,1.01,-0.72,-0.12,0.29,
1.548,-0.01,0.01,1.01,-0.86,-0.12,0.28,
1.548,-0.02,0.01,1.01,-0.86,-0.12,0.28,
1.549,-0.01,0.02,1.01,-0.86,-0.12,0.28,
1.549,-0.01,0.02,1.01,-0.93,-0.08,0.22,
1.549,-0.02,0.02,1.00,-0.93,-0.08,0.22,
1.55,-0.02,0.02,1.00,-0.93,-0.08,0.22,
1.55,-0.02,0.02,1.00,-0.99,-0.05,0.20,
1.552,-0.02,0.02,0.99,-0.99,-0.05,0.20,
1.555,-0.02,0.03,0.98,-0.99,-0.05,0.20,
1.555,-0.02,0.03,0.98,-1.01,0.02,0.08,
1.557,-0.02,0.03,0.97,-1.01,0.02,0.08,
1.559,-0.01,0.03,0.96,-1.01,0.02,0.08,
1.56,-0.01,0.03,0.96,-1.03,0.02,-0.03,
1.562,-0.02,0.03,0.95,-1.03,0.02,-0.03,
1.564,-0.02,0.03,0.94,-1.03,0.02,-0.03,
1.564,-0.02,0.03,0.94,-1.03,0.04,-0.23,
1.567,-0.02,0.03,0.93,-1.03,0.04,-0.23,
1.569,-0.01,0.03,0.92,-1.03,0.04,-0.23,
1.569,-0.01,0.03,0.92,-1.03,0.03,-0.45,
1.572,-0.01,0.03,0.91,-1.03,0.03,-0.45,
1.574,-0.00,0.04,0.91,-1.03,0.03,-0.45,
1.574,-0.00,0.04,0.91,-1.00,0.07,-0.63,
1.576,0.00,0.04,0.90,-1.00,0.07,-0.63,
1.579,0.00,0.04,0.89,-1.00,0.07,-0.63,
1.579,0.00,0.04,0.89,-0.93,0.10,-0.78,
1.581,0.01,0.04,0.89,-0.93,0.10,-0.78,
1.584,0.02,0.05,0.89,-0.93,0.10,-0.78,
1.584,0.02,0.05,0.89,-0.86,0.14,-0.92,
1.588,0.02,0.05,0.88,-0.86,0.14,-0.92,
1.59,0.03,0.05,0.88,-0.86,0.14,-0.92,
1.59,0.03,0.05,0.88,-0.76,0.15,-0.99,
1.592,0.03,0.05,0.88,-0.76,0.15,-0.99,
1.594,0.04,0.05,0.88,-0.76,0.15,-0.99,
1.594,0.04,0.05,0.88,-0.64,0.19,-1.06,
1.597,0.04,0.04,0.88,-0.64,0.19,-1.06,
1.599,0.04,0.04,0.87,-0.64,0.19,-1.06,
1.599,0.04,0.04,0.87,-0.57,0.20,-1.06,
1.602,0.03,0.04,0.88,-0.57,0.20,-1.06,
1.605,0.03,0.04,0.88,-0.57,0.20,-1.06,
1.606,0.03,0.04,0.88,-0.57,0.16,-1.10,
1.607,0.03,0.04,0.89,-0.57,0.16,-1.10,
1.609,0.02,0.03,0.89,-0.57,0.16,-1.10,
1.609,0.02,0.03,0.89,-0.62,0.12,-1.01,
1.611,0.02,0.03,0.90,-0.62,0.12,-1.01,
1.614,0.02,0.02,0.90,-0.62,0.12,-1.01,
1.614,0.02,0.02,0.90,-0.68,0.08,-0.96,
1.617,0.02,0.02,0.92,-0.68,0.08,-0.96,
1.619,0.02,0.02,0.92,-0.71,-0.01,-0.82,
1.619,0.01,0.03,0.93,-0.71,-0.01,-0.82,
1.622,0.02,0.02,0.93,-0.71,-0.01,-0.82,
1.624,0.01,0.02,0.93,-0.71,-0.01,-0.82,
1.624,0.01,0.02,0.93,-0.78,0.01,-0.64,
1.626,0.01,0.02,0.94,-0.78,0.01,-0.64,
1.629,0.01,0.03,0.95,-0.78,0.01,-0.64,
1.629,0.01,0.03,0.95,-0.79,-0.06,-0.54,
1.632,0.01,0.03,0.96,-0.79,-0.06,-0.54,
1.634,0.01,0.03,0.96,-0.79,-0.06,-0.54,
1.635,0.01,0.03,0.96,-0.86,-0.01,-0.38,
1.636,0.01,0.02,0.97,-0.86,-0.01,-0.38,
1.639,0.00,0.03,0.98,-0.86,-0.01,-0.38,
1.64,0.00,0.03,0.98,-0.86,0.03,-0.22,
1.641,-0.00,0.03,0.98,-0.86,0.03,-0.22,
1.644,-0.00,0.02,0.98,-0.86,0.03,-0.22,
1.644,-0.00,0.02,0.98,-0.88,0.01,-0.11,
1.646,-0.00,0.02,0.98,-0.88,0.01,-0.11,
1.65,-0.00,0.02,0.97,-0.88,0.01,-0.11,
1.65,-0.00,0.02,0.97,-0.94,0.00,-0.08,
1.651,-0.00,0.01,0.97,-0.94,0.00,-0.08,
1.662,0.00,0.01,0.96,-0.94,0.00,-0.08,
1.662,0.00,0.01,0.96,-0.94,-0.07,-0.08,
1.663,0.00,0.01,0.95,-0.94,-0.07,-0.08,
1.663,0.00,0.00,0.95,-0.94,-0.07,-0.08,
1.668,0.00,0.00,0.95,-0.92,-0.13,-0.19,
1.669,0.01,0.00,0.95,-0.92,-0.13,-0.19,
1.669,0.02,0.01,0.94,-0.92,-0.13,-0.19,
1.669,0.02,0.01,0.94,-0.93,-0.19,-0.31,
1.669,0.02,0.00,0.93,-0.93,-0.19,-0.31,
1.669,0.03,0.00,0.92,-0.93,-0.19,-0.31,
1.67,0.03,0.00,0.92,-0.82,-0.19,-0.42,
1.675,0.04,0.01,0.91,-0.82,-0.19,-0.42,
1.676,0.04,0.00,0.91,-0.82,-0.19,-0.42,
1.676,0.04,0.00,0.91,-0.71,-0.18,-0.60,
1.676,0.04,0.01,0.90,-0.71,-0.18,-0.60,
1.679,0.04,0.01,0.90,-0.71,-0.18,-0.60,
1.679,0.04,0.01,0.90,-0.61,-0.16,-0.74,
1.682,0.05,0.00,0.90,-0.61,-0.16,-0.74,
1.684,0.05,0.01,0.89,-0.61,-0.16,-0.74,
1.684,0.05,0.01,0.89,-0.55,-0.16,-0.82,
1.686,0.05,0.01,0.90,-0.55,-0.16,-0.82,
1.689,0.04,0.01,0.90,-0.55,-0.16,-0.82,
1.69,0.04,0.01,0.90,-0.52,-0.17,-0.85,
1.691,0.04,0.00,0.89,-0.52,-0.17,-0.85,
1.693,0.04,0.00,0.90,-0.52,-0.17,-0.85,
1.694,0.04,0.00,0.90,-0.55,-0.14,-0.86,
1.696,0.03,0.00,0.90,-0.55,-0.14,-0.86,
1.699,0.03,-0.00,0.90,-0.55,-0.14,-0.86,
1.699,0.03,-0.00,0.90,-0.60,-0.17,-0.87,
1.701,0.03,-0.00,0.90,-0.60,-0.17,-0.87,
1.704,0.02,-0.01,0.90,-0.60,-0.17,-0.87,
1.704,0.02,-0.01,0.90,-0.67,-0.20,-0.82,
1.707,0.01,-0.01,0.92,-0.67,-0.20,-0.82,
1.709,0.01,-0.01,0.92,-0.67,-0.20,-0.82,
1.709,0.01,-0.01,0.92,-0.77,-0.25,-0.77,
1.711,0.00,-0.01,0.93,-0.77,-0.25,-0.77,
1.717,-0.00,-0.01,0.94,-0.77,-0.25,-0.77,
1.717,-0.00,-0.01,0.94,-0.88,-0.28,-0.65,
1.717,-0.01,-0.00,0.96,-0.88,-0.28,-0.65,
1.718,-0.02,-0.00,0.97,-0.88,-0.28,-0.65,
1.718,-0.02,-0.00,0.97,-0.97,-0.26,-0.46,
1.721,-0.03,-0.00,0.98,-0.97,-0.26,-0.46,
1.724,-0.03,0.00,1.00,-0.97,-0.26,-0.46,
1.725,-0.03,0.00,1.00,-1.08,-0.21,-0.20,
1.726,-0.04,0.00,1.01,-1.08,-0.21,-0.20,
1.729,-0.04,-0.00,1.02,-1.08,-0.21,-0.20,
1.729,-0.04,-0.00,1.02,-1.22,-0.17,0.05,
1.731,-0.05,0.00,1.03,-1.22,-0.17,0.05,
1.733,-0.06,0.00,1.04,-1.22,-0.17,0.05,
1.733,-0.06,0.00,1.04,-1.30,-0.16,0.29,
1.736,-0.06,-0.00,1.04,-1.30,-0.16,0.29,
1.74,-0.06,-0.00,1.05,-1.30,-0.16,0.29,
1.741,-0.06,-0.00,1.05,-1.41,-0.14,0.49,
1.741,-0.07,-0.00,1.05,-1.41,-0.14,0.49,
1.743,-0.07,-0.01,1.05,-1.41,-0.14,0.49,
1.743,-0.07,-0.01,1.05,-1.46,-0.19,0.58,
1.746,-0.07,-0.01,1.05,-1.46,-0.19,0.58,
1.749,-0.07,-0.01,1.05,-1.46,-0.19,0.58,
1.749,-0.07,-0.01,1.05,-1.53,-0.21,0.64,
1.751,-0.07,-0.02,1.04,-1.53,-0.21,0.64,
1.753,-0.06,-0.01,1.04,-1.53,-0.21,0.64,
1.754,-0.06,-0.01,1.04,-1.52,-0.22,0.61,
1.759,-0.05,-0.02,1.04,-1.52,-0.22,0.61,
1.76,-0.05,-0.02,1.03,-1.52,-0.22,0.61,
1.76,-0.05,-0.02,1.03,-1.45,-0.28,0.54,
1.761,-0.04,-0.02,1.01,-1.45,-0.28,0.54,
1.763,-0.03,-0.02,1.01,-1.45,-0.28,0.54,
1.763,-0.03,-0.02,1.01,-1.33,-0.32,0.44,
1.765,-0.03,-0.01,1.00,-1.33,-0.32,0.44,
1.768,-0.02,-0.02,0.99,-1.33,-0.32,0.44,
1.768,-0.02,-0.02,0.99,-1.21,-0.29,0.24,
1.77,-0.02,-0.01,0.98,-1.21,-0.29,0.24,
1.774,-0.01,-0.01,0.97,-1.21,-0.29,0.24,
1.774,-0.01,-0.01,0.97,-1.08,-0.28,0.06,
1.775,-0.00,-0.01,0.96,-1.08,-0.28,0.06,
1.778,0.00,-0.01,0.95,-1.08,-0.28,0.06,
1.778,0.00,-0.01,0.95,-0.95,-0.23,-0.13,
1.781,0.01,-0.01,0.94,-0.95,-0.23,-0.13,
1.784,0.02,-0.01,0.94,-0.95,-0.23,-0.13,
1.784,0.02,-0.01,0.94,-0.83,-0.22,-0.31,
1.786,0.02,-0.01,0.93,-0.83,-0.22,-0.31,
1.79,0.02,-0.01,0.93,-0.83,-0.22,-0.31,
1.79,0.02,-0.01,0.93,-0.73,-0.18,-0.43,
1.791,0.02,-0.01,0.93,-0.73,-0.18,-0.43,
1.793,0.02,-0.01,0.93,-0.73,-0.18,-0.43,
1.793,0.02,-0.01,0.93,-0.65,-0.18,-0.50,
1.797,0.03,-0.01,0.93,-0.65,-0.18,-0.50,
1.798,0.03,-0.01,0.93,-0.62,-0.18,-0.52,
1.798,0.03,-0.01,0.93,-0.62,-0.18,-0.52,
1.8,0.02,-0.02,0.93,-0.62,-0.18,-0.52,
1.803,0.02,-0.02,0.94,-0.62,-0.18,-0.52,
1.803,0.02,-0.02,0.94,-0.60,-0.21,-0.51,
1.805,0.02,-0.03,0.94,-0.60,-0.21,-0.51,
1.807,0.02,-0.03,0.95,-0.60,-0.21,-0.51,
1.808,0.02,-0.03,0.95,-0.63,-0.26,-0.46,
1.811,0.02,-0.03,0.96,-0.63,-0.26,-0.46,
1.813,0.01,-0.03,0.96,-0.63,-0.26,-0.46,
1.817,0.01,-0.03,0.96,-0.62,-0.33,-0.36,
1.817,0.01,-0.04,0.97,-0.62,-0.33,-0.36,
1.818,0.00,-0.04,0.98,-0.62,-0.33,-0.36,
1.818,0.00,-0.04,0.98,-0.66,-0.36,-0.24,
1.82,-0.00,-0.04,0.99,-0.66,-0.36,-0.24,
1.822,-0.01,-0.05,1.00,-0.66,-0.36,-0.24,
1.822,-0.01,-0.05,1.00,-0.75,-0.42,-0.05,
1.824,-0.01,-0.05,1.01,-0.75,-0.42,-0.05,
1.827,-0.01,-0.05,1.01,-0.84,-0.45,0.11,
1.828,-0.02,-0.06,1.01,-0.84,-0.45,0.11,
1.83,-0.03,-0.06,1.03,-0.84,-0.45,0.11,
1.832,-0.03,-0.06,1.03,-0.84,-0.45,0.11,
1.832,-0.03,-0.06,1.03,-0.92,-0.52,0.27,
1.836,-0.04,-0.07,1.03,-0.92,-0.52,0.27,
1.838,-0.05,-0.07,1.03,-0.92,-0.52,0.27,
1.838,-0.05,-0.07,1.03,-1.04,-0.57,0.41,
1.841,-0.05,-0.07,1.04,-1.04,-0.57,0.41,
1.842,-0.06,-0.07,1.03,-1.04,-0.57,0.41,
1.842,-0.06,-0.07,1.03,-1.13,-0.63,0.46,
1.845,-0.06,-0.07,1.03,-1.13,-0.63,0.46,
1.848,-0.07,-0.07,1.04,-1.13,-0.63,0.46,
1.848,-0.07,-0.07,1.04,-1.21,-0.62,0.50,
1.85,-0.07,-0.07,1.03,-1.21,-0.62,0.50,
1.853,-0.07,-0.07,1.03,-1.30,-0.64,0.50,
1.853,-0.07,-0.07,1.02,-1.30,-0.64,0.50,
1.855,-0.07,-0.07,1.02,-1.30,-0.64,0.50,
1.858,-0.07,-0.07,1.02,-1.30,-0.64,0.50,
1.859,-0.07,-0.07,1.02,-1.33,-0.66,0.40,
1.86,-0.08,-0.07,1.01,-1.33,-0.66,0.40,
1.862,-0.08,-0.07,1.00,-1.33,-0.66,0.40,
1.862,-0.08,-0.07,1.00,-1.35,-0.67,0.32,
1.865,-0.08,-0.07,0.99,-1.35,-0.67,0.32,
1.867,-0.08,-0.07,0.98,-1.35,-0.67,0.32,
1.868,-0.08,-0.07,0.98,-1.37,-0.65,0.17,
1.87,-0.08,-0.07,0.98,-1.37,-0.65,0.17,
1.88,-0.08,-0.06,0.98,-1.37,-0.65,0.17,
1.88,-0.08,-0.06,0.98,-1.37,-0.62,0.00,
1.881,-0.08,-0.05,0.98,-1.37,-0.62,0.00,
1.881,-0.08,-0.05,0.98,-1.37,-0.57,-0.09,
1.881,-0.08,-0.05,0.96,-1.37,-0.57,-0.09,
1.882,-0.07,-0.05,0.96,-1.37,-0.57,-0.09,
1.882,-0.07,-0.04,0.95,-1.37,-0.57,-0.09,
1.882,-0.07,-0.04,0.95,-1.36,-0.44,-0.17,
1.885,-0.06,-0.03,0.94,-1.36,-0.44,-0.17,
1.886,-0.06,-0.03,0.93,-1.36,-0.44,-0.17,
1.887,-0.06,-0.03,0.93,-1.28,-0.37,-0.30,
1.893,-0.05,-0.03,0.93,-1.28,-0.37,-0.30,
1.894,-0.05,-0.03,0.93,-1.28,-0.37,-0.30,
1.894,-0.05,-0.03,0.93,-1.18,-0.25,-0.47,
1.895,-0.04,-0.02,0.92,-1.18,-0.25,-0.47,
1.896,-0.04,-0.02,0.92,-1.18,-0.25,-0.47,
1.896,-0.04,-0.02,0.92,-1.09,-0.19,-0.53,
1.899,-0.04,-0.03,0.92,-1.09,-0.19,-0.53,
1.901,-0.04,-0.03,0.92,-1.00,-0.14,-0.60,
1.902,-0.04,-0.03,0.92,-1.00,-0.14,-0.60,
1.904,-0.03,-0.04,0.92,-1.00,-0.14,-0.60,
1.907,-0.03,-0.04,0.92,-1.00,-0.14,-0.60,
1.907,-0.03,-0.04,0.92,-0.98,-0.17,-0.60,
1.909,-0.03,-0.04,0.92,-0.98,-0.17,-0.60,
1.912,-0.03,-0.05,0.91,-0.98,-0.17,-0.60,
1.912,-0.03,-0.05,0.91,-0.91,-0.25,-0.61,
1.914,-0.03,-0.04,0.91,-0.91,-0.25,-0.61,
1.916,-0.03,-0.05,0.92,-0.91,-0.25,-0.61,
1.917,-0.03,-0.05,0.92,-0.86,-0.30,-0.66,
1.919,-0.03,-0.05,0.92,-0.86,-0.30,-0.66,
1.922,-0.04,-0.06,0.92,-0.86,-0.30,-0.66,
1.922,-0.04,-0.06,0.92,-0.83,-0.32,-0.67,
1.924,-0.04,-0.06,0.93,-0.83,-0.32,-0.67,
1.927,-0.04,-0.06,0.93,-0.88,-0.38,-0.62,
1.927,-0.05,-0.06,0.93,-0.88,-0.38,-0.62,
1.929,-0.05,-0.06,0.93,-0.88,-0.38,-0.62,
1.931,-0.05,-0.06,0.93,-0.88,-0.38,-0.62,
1.932,-0.05,-0.06,0.93,-0.96,-0.41,-0.55,
1.934,-0.05,-0.06,0.93,-0.96,-0.41,-0.55,
1.937,-0.06,-0.07,0.94,-0.96,-0.41,-0.55,
1.937,-0.06,-0.07,0.94,-1.01,-0.46,-0.50,
1.939,-0.06,-0.07,0.94,-1.01,-0.46,-0.50,
1.943,-0.06,-0.06,0.94,-1.01,-0.46,-0.50,
1.943,-0.06,-0.06,0.94,-1.01,-0.46,-0.44,
1.944,-0.07,-0.06,0.94,-1.01,-0.46,-0.44,
1.946,-0.07,-0.06,0.95,-1.01,-0.46,-0.44,
1.946,-0.07,-0.06,0.95,-1.02,-0.45,-0.39,
1.949,-0.07,-0.06,0.95,-1.02,-0.45,-0.39,
1.951,-0.07,-0.06,0.95,-1.07,-0.41,-0.34,
1.952,-0.08,-0.05,0.95,-1.07,-0.41,-0.34,
1.954,-0.08,-0.05,0.96,-1.07,-0.41,-0.34,
1.956,-0.08,-0.05,0.96,-1.07,-0.41,-0.34,
1.956,-0.08,-0.05,0.96,-1.11,-0.36,-0.27,
1.959,-0.08,-0.05,0.96,-1.11,-0.36,-0.27,
1.961,-0.08,-0.05,0.96,-1.11,-0.36,-0.27,
1.961,-0.08,-0.05,0.96,-1.12,-0.33,-0.18,
1.964,-0.09,-0.05,0.96,-1.12,-0.33,-0.18,
1.966,-0.10,-0.05,0.96,-1.12,-0.33,-0.18,
1.966,-0.10,-0.05,0.96,-1.11,-0.31,-0.16,
1.969,-0.11,-0.05,0.96,-1.11,-0.31,-0.16,
1.971,-0.11,-0.05,0.96,-1.11,-0.31,-0.16,
1.971,-0.11,-0.05,0.96,-1.17,-0.31,-0.17,
1.977,-0.12,-0.06,0.96,-1.17,-0.31,-0.17,
1.978,-0.13,-0.06,0.97,-1.17,-0.31,-0.17,
1.978,-0.13,-0.06,0.97,-1.32,-0.33,-0.16,
1.985,-0.13,-0.07,0.98,-1.32,-0.33,-0.16,
1.985,-0.14,-0.07,0.98,-1.32,-0.33,-0.16,
1.986,-0.14,-0.07,0.98,-1.42,-0.40,-0.12,
1.986,-0.16,-0.07,0.98,-1.42,-0.40,-0.12,
1.986,-0.16,-0.08,0.98,-1.42,-0.40,-0.12,
1.987,-0.16,-0.08,0.98,-1.54,-0.51,-0.04,
1.988,-0.17,-0.08,0.97,-1.54,-0.51,-0.04,
1.991,-0.17,-0.08,0.97,-1.54,-0.51,-0.04,
1.992,-0.17,-0.08,0.97,-1.71,-0.55,-0.02,
1.993,-0.17,-0.07,0.97,-1.71,-0.55,-0.02,
1.995,-0.17,-0.08,0.99,-1.71,-0.55,-0.02,
1.996,-0.17,-0.08,0.99,-1.78,-0.58,-0.06,
1.997,-0.17,-0.07,0.99,-1.78,-0.58,-0.06,
2.004,-0.18,-0.08,0.98,-1.78,-0.58,-0.06,
2.004,-0.18,-0.08,0.98,-1.75,-0.50,0.01,
2.005,-0.19,-0.08,0.99,-1.75,-0.50,0.01,
2.005,-0.19,-0.08,0.99,-1.75,-0.50,0.01,
2.007,-0.19,-0.08,0.99,-1.77,-0.50,0.07,
2.007,-0.19,-0.08,1.00,-1.77,-0.50,0.07,
2.009,-0.19,-0.08,0.99,-1.77,-0.50,0.07,
2.01,-0.19,-0.08,0.99,-1.89,-0.49,0.10,
2.012,-0.19,-0.08,1.00,-1.89,-0.49,0.10,
2.015,-0.19,-0.07,0.99,-1.89,-0.49,0.10,
2.015,-0.19,-0.07,0.99,-1.88,-0.48,0.15,
2.017,-0.20,-0.08,1.00,-1.88,-0.48,0.15,
2.02,-0.20,-0.08,1.00,-1.88,-0.48,0.15,
2.021,-0.20,-0.08,1.00,-1.87,-0.44,0.15,
2.024,-0.19,-0.07,0.99,-1.87,-0.44,0.15,
2.025,-0.20,-0.07,1.00,-1.87,-0.44,0.15,
2.025,-0.20,-0.07,1.00,-1.91,-0.43,0.21,
2.027,-0.20,-0.07,0.99,-1.91,-0.43,0.21,
2.03,-0.20,-0.07,0.99,-1.91,-0.43,0.21,
2.031,-0.20,-0.07,0.99,-1.90,-0.39,0.15,
2.034,-0.19,-0.08,0.99,-1.90,-0.39,0.15,
2.036,-0.19,-0.07,0.99,-1.90,-0.39,0.15,
2.037,-0.19,-0.07,0.99,-1.91,-0.37,0.13,
2.038,-0.19,-0.07,0.99,-1.91,-0.37,0.13,
2.041,-0.18,-0.07,0.99,-1.91,-0.37,0.13,
2.041,-0.18,-0.07,0.99,-1.85,-0.38,0.07,
2.042,-0.18,-0.07,0.98,-1.85,-0.38,0.07,
2.045,-0.17,-0.07,0.98,-1.85,-0.38,0.07,
2.045,-0.17,-0.07,0.98,-1.76,-0.34,0.08,
2.047,-0.17,-0.06,0.98,-1.76,-0.34,0.08,
2.05,-0.16,-0.07,0.98,-1.76,-0.34,0.08,
2.05,-0.16,-0.07,0.98,-1.64,-0.32,0.02,
2.052,-0.16,-0.06,0.97,-1.64,-0.32,0.02,
2.055,-0.15,-0.06,0.98,-1.64,-0.32,0.02,
2.055,-0.15,-0.06,0.98,-1.52,-0.25,-0.01,
2.058,-0.14,-0.06,0.98,-1.52,-0.25,-0.01,
2.059,-0.14,-0.06,0.97,-1.52,-0.25,-0.01,
2.06,-0.14,-0.06,0.97,-1.42,-0.20,-0.06,
2.063,-0.14,-0.06,0.97,-1.42,-0.20,-0.06,
2.065,-0.13,-0.06,0.97,-1.42,-0.20,-0.06,
2.065,-0.13,-0.06,0.97,-1.28,-0.17,-0.04,
2.067,-0.13,-0.06,0.97,-1.28,-0.17,-0.04,
2.07,-0.13,-0.06,0.97,-1.28,-0.17,-0.04,
2.07,-0.13,-0.06,0.97,-1.24,-0.19,-0.06,
2.072,-0.13,-0.06,0.97,-1.24,-0.19,-0.06,
2.075,-0.13,-0.07,0.97,-1.24,-0.19,-0.06,
2.076,-0.13,-0.07,0.97,-1.16,-0.18,-0.08,
2.077,-0.13,-0.06,0.97,-1.16,-0.18,-0.08,
2.08,-0.14,-0.06,0.97,-1.16,-0.18,-0.08,
2.08,-0.14,-0.06,0.97,-1.15,-0.20,-0.10,
2.082,-0.13,-0.07,0.96,-1.15,-0.20,-0.10,
2.085,-0.14,-0.07,0.95,-1.15,-0.20,-0.10,
2.085,-0.14,-0.07,0.95,-1.19,-0.19,-0.12,
2.087,-0.15,-0.07,0.96,-1.19,-0.19,-0.12,
2.095,-0.14,-0.07,0.95,-1.19,-0.19,-0.12,
2.096,-0.14,-0.07,0.95,-1.17,-0.23,-0.24,
2.097,-0.15,-0.07,0.95,-1.17,-0.23,-0.24,
2.097,-0.16,-0.07,0.96,-1.17,-0.23,-0.24,
2.098,-0.16,-0.07,0.96,-1.25,-0.23,-0.26,
2.098,-0.16,-0.07,0.96,-1.25,-0.23,-0.26,
2.099,-0.17,-0.07,0.96,-1.25,-0.23,-0.26,
2.099,-0.17,-0.07,0.96,-1.30,-0.22,-0.25,
2.102,-0.17,-0.06,0.96,-1.30,-0.22,-0.25,
2.105,-0.19,-0.06,0.97,-1.30,-0.22,-0.25,
2.105,-0.19,-0.06,0.97,-1.41,-0.22,-0.23,
2.107,-0.20,-0.06,0.97,-1.41,-0.22,-0.23,
2.109,-0.21,-0.05,0.98,-1.41,-0.22,-0.23,
2.11,-0.21,-0.05,0.98,-1.55,-0.13,-0.16,
2.112,-0.22,-0.05,0.99,-1.55,-0.13,-0.16,
2.115,-0.22,-0.05,0.99,-1.75,-0.04,-0.03,
2.115,-0.22,-0.04,1.00,-1.75,-0.04,-0.03,
2.116,-0.22,-0.04,1.00,-1.75,-0.04,-0.03,
2.119,-0.22,-0.03,1.01,-1.75,-0.04,-0.03,
2.119,-0.22,-0.03,1.01,-1.85,0.07,0.13,
2.122,-0.22,-0.02,1.02,-1.85,0.07,0.13,
2.125,-0.22,-0.02,1.04,-1.85,0.07,0.13,
2.125,-0.22,-0.02,1.04,-1.86,0.19,0.30,
2.128,-0.23,-0.02,1.05,-1.86,0.19,0.30,
2.129,-0.23,-0.01,1.05,-1.86,0.19,0.30,
2.129,-0.23,-0.01,1.05,-1.86,0.32,0.54,
2.132,-0.23,-0.01,1.06,-1.86,0.32,0.54,
2.135,-0.23,-0.02,1.06,-1.86,0.32,0.54,
2.135,-0.23,-0.02,1.06,-1.89,0.38,0.69,
2.137,-0.23,-0.02,1.05,-1.89,0.38,0.69,
2.139,-0.23,-0.02,1.06,-1.89,0.38,0.69,
2.139,-0.23,-0.02,1.06,-1.86,0.38,0.76,
2.142,-0.23,-0.03,1.06,-1.86,0.38,0.76,
2.145,-0.23,-0.03,1.06,-1.86,0.38,0.76,
2.145,-0.23,-0.03,1.06,-1.83,0.37,0.76,
2.146,-0.22,-0.04,1.05,-1.83,0.37,0.76,
2.149,-0.22,-0.04,1.06,-1.83,0.37,0.76,
2.149,-0.22,-0.04,1.06,-1.83,0.24,0.78,
2.151,-0.21,-0.04,1.05,-1.83,0.24,0.78,
2.153,-0.20,-0.05,1.05,-1.83,0.24,0.78,
2.153,-0.20,-0.05,1.05,-1.73,0.20,0.76,
2.157,-0.20,-0.05,1.05,-1.73,0.20,0.76,
2.158,-0.19,-0.05,1.05,-1.73,0.20,0.76,
2.159,-0.19,-0.05,1.05,-1.59,0.15,0.74,
2.161,-0.18,-0.06,1.05,-1.59,0.15,0.74,
2.163,-0.18,-0.06,1.06,-1.59,0.15,0.74,
2.163,-0.18,-0.06,1.06,-1.46,0.11,0.72,
2.165,-0.17,-0.07,1.06,-1.46,0.11,0.72,
2.168,-0.17,-0.07,1.06,-1.46,0.11,0.72,
2.168,-0.17,-0.07,1.06,-1.32,0.02,0.75,
2.17,-0.17,-0.08,1.06,-1.32,0.02,0.75,
2.174,-0.16,-0.08,1.06,-1.32,0.02,0.75,
2.174,-0.16,-0.08,1.06,-1.22,-0.04,0.77,
2.176,-0.16,-0.09,1.07,-1.22,-0.04,0.77,
2.179,-0.15,-0.09,1.07,-1.22,-0.04,0.77,
2.179,-0.15,-0.09,1.07,-1.13,-0.14,0.81,
2.182,-0.15,-0.09,1.08,-1.13,-0.14,0.81,
2.185,-0.15,-0.10,1.08,-1.13,-0.14,0.81,
2.185,-0.15,-0.10,1.08,-1.00,-0.19,0.88,
2.187,-0.14,-0.10,1.09,-1.00,-0.19,0.88,
2.189,-0.14,-0.09,1.09,-1.00,-0.19,0.88,
2.189,-0.14,-0.09,1.09,-0.94,-0.23,0.99,
2.192,-0.13,-0.10,1.10,-0.94,-0.23,0.99,
2.194,-0.13,-0.10,1.10,-0.94,-0.23,0.99,
2.194,-0.13,-0.10,1.10,-0.85,-0.23,1.10,
2.196,-0.13,-0.09,1.11,-0.85,-0.23,1.10,
2.199,-0.13,-0.09,1.11,-0.73,-0.22,1.16,
2.199,-0.12,-0.09,1.11,-0.73,-0.22,1.16,
2.201,-0.12,-0.09,1.11,-0.73,-0.22,1.16,
2.204,-0.12,-0.09,1.12,-0.73,-0.22,1.16,
2.204,-0.12,-0.09,1.12,-0.65,-0.15,1.26,
2.206,-0.12,-0.09,1.12,-0.65,-0.15,1.26,
2.213,-0.12,-0.09,1.12,-0.65,-0.15,1.26,
2.213,-0.12,-0.09,1.12,-0.62,-0.10,1.32,
2.214,-0.12,-0.09,1.13,-0.62,-0.10,1.32,
2.214,-0.12,-0.09,1.14,-0.62,-0.10,1.32,
2.214,-0.12,-0.09,1.14,-0.60,-0.12,1.39,
2.216,-0.12,-0.09,1.14,-0.60,-0.12,1.39,
2.218,-0.13,-0.08,1.14,-0.60,-0.12,1.39,
2.218,-0.13,-0.08,1.14,-0.60,-0.09,1.51,
2.22,-0.13,-0.09,1.14,-0.60,-0.09,1.51,
2.225,-0.13,-0.09,1.13,-0.60,-0.09,1.51,
2.225,-0.13,-0.09,1.13,-0.59,-0.04,1.56,
2.226,-0.13,-0.08,1.13,-0.59,-0.04,1.56,
2.228,-0.13,-0.08,1.13,-0.59,-0.04,1.56,
2.228,-0.13,-0.08,1.13,-0.63,-0.02,1.51,
2.23,-0.13,-0.08,1.13,-0.63,-0.02,1.51,
2.233,-0.12,-0.08,1.12,-0.63,-0.02,1.51,
2.233,-0.12,-0.08,1.12,-0.61,0.04,1.51,
2.236,-0.12,-0.08,1.12,-0.61,0.04,1.51,
2.238,-0.12,-0.08,1.11,-0.61,0.04,1.51,
2.239,-0.12,-0.08,1.11,-0.58,0.05,1.43,
2.241,-0.12,-0.08,1.10,-0.58,0.05,1.43,
2.242,-0.12,-0.07,1.11,-0.58,0.05,1.43,
2.243,-0.12,-0.07,1.11,-0.54,0.07,1.36,
2.245,-0.12,-0.07,1.10,-0.54,0.07,1.36,
2.248,-0.12,-0.07,1.10,-0.54,0.07,1.36,
2.248,-0.12,-0.07,1.10,-0.55,0.12,1.25,
2.251,-0.13,-0.07,1.10,-0.55,0.12,1.25,
2.253,-0.13,-0.07,1.10,-0.55,0.12,1.25,
2.253,-0.13,-0.07,1.10,-0.54,0.17,1.22,
2.257,-0.13,-0.06,1.09,-0.54,0.17,1.22,
2.258,-0.13,-0.06,1.10,-0.54,0.17,1.22,
2.258,-0.13,-0.06,1.10,-0.60,0.23,1.15,
2.261,-0.14,-0.06,1.09,-0.60,0.23,1.15,
2.262,-0.14,-0.06,1.08,-0.60,0.23,1.15,
2.263,-0.14,-0.06,1.08,-0.60,0.28,1.13,
2.265,-0.14,-0.06,1.09,-0.60,0.28,1.13,
2.267,-0.14,-0.06,1.09,-0.60,0.28,1.13,
2.268,-0.14,-0.06,1.09,-0.65,0.33,1.06,
2.27,-0.15,-0.05,1.09,-0.65,0.33,1.06,
2.273,-0.15,-0.05,1.09,-0.65,0.33,1.06,
2.273,-0.15,-0.05,1.09,-0.71,0.36,1.10,
2.276,-0.16,-0.05,1.09,-0.71,0.36,1.10,
2.277,-0.16,-0.05,1.08,-0.71,0.36,1.10,
2.278,-0.16,-0.05,1.08,-0.77,0.42,1.08,
2.282,-0.16,-0.05,1.08,-0.77,0.42,1.08,
2.282,-0.16,-0.05,1.08,-0.77,0.42,1.08,
2.283,-0.16,-0.05,1.08,-0.81,0.44,1.02,
2.285,-0.15,-0.05,1.08,-0.81,0.44,1.02,
2.288,-0.16,-0.05,1.08,-0.81,0.44,1.02,
2.288,-0.16,-0.05,1.08,-0.83,0.44,0.97,
2.29,-0.15,-0.05,1.08,-0.83,0.44,0.97,
2.293,-0.15,-0.05,1.08,-0.83,0.44,0.97,
2.293,-0.15,-0.05,1.08,-0.78,0.44,0.99,
2.294,-0.15,-0.05,1.07,-0.78,0.44,0.99,
2.297,-0.15,-0.05,1.07,-0.74,0.46,0.95,
2.297,-0.14,-0.05,1.07,-0.74,0.46,0.95,
2.3,-0.14,-0.05,1.06,-0.74,0.46,0.95,
2.303,-0.14,-0.05,1.06,-0.74,0.46,0.95,
2.303,-0.14,-0.05,1.06,-0.68,0.46,0.91,
2.305,-0.13,-0.06,1.06,-0.68,0.46,0.91,
2.315,-0.13,-0.06,1.06,-0.68,0.46,0.91,
2.319,-0.13,-0.06,1.06,-0.66,0.42,0.81,
2.319,-0.13,-0.05,1.05,-0.66,0.42,0.81,
2.32,-0.12,-0.06,1.06,-0.66,0.42,0.81,
2.32,-0.12,-0.06,1.06,-0.56,0.38,0.77,
2.32,-0.12,-0.06,1.06,-0.56,0.38,0.77,
2.32,-0.12,-0.06,1.05,-0.56,0.38,0.77,
2.321,-0.12,-0.06,1.05,-0.48,0.42,0.75,
2.321,-0.12,-0.06,1.04,-0.48,0.42,0.75,
2.322,-0.12,-0.06,1.04,-0.45,0.35,0.71,
2.322,-0.12,-0.07,1.04,-0.45,0.35,0.71,
2.325,-0.12,-0.07,1.04,-0.45,0.35,0.71,
2.328,-0.12,-0.08,1.03,-0.45,0.35,0.71,
2.328,-0.12,-0.08,1.03,-0.43,0.30,0.59,
2.33,-0.12,-0.08,1.03,-0.43,0.30,0.59,
2.333,-0.12,-0.08,1.02,-0.43,0.30,0.59,
2.333,-0.12,-0.08,1.02,-0.43,0.23,0.50,
2.335,-0.12,-0.09,1.02,-0.43,0.23,0.50,
2.337,-0.12,-0.08,1.02,-0.43,0.23,0.50,
2.338,-0.12,-0.08,1.02,-0.46,0.12,0.45,
2.34,-0.12,-0.09,1.02,-0.46,0.12,0.45,
2.343,-0.12,-0.09,1.01,-0.46,0.12,0.45,
2.343,-0.12,-0.09,1.01,-0.44,0.11,0.37,
2.345,-0.12,-0.09,1.01,-0.44,0.11,0.37,
2.347,-0.12,-0.09,1.01,-0.43,0.07,0.32,
2.347,-0.11,-0.09,1.01,-0.43,0.07,0.32,
2.349,-0.11,-0.09,1.01,-0.43,0.07,0.32,
2.352,-0.11,-0.09,1.01,-0.43,0.07,0.32,
2.353,-0.11,-0.09,1.01,-0.39,0.06,0.30,
2.355,-0.10,-0.10,1.01,-0.39,0.06,0.30,
2.357,-0.09,-0.10,1.01,-0.39,0.06,0.30,
2.358,-0.09,-0.10,1.01,-0.35,0.03,0.30,
2.36,-0.08,-0.11,1.01,-0.35,0.03,0.30,
2.362,-0.08,-0.10,1.01,-0.35,0.03,0.30,
2.363,-0.08,-0.10,1.01,-0.20,-0.02,0.30,
2.364,-0.06,-0.10,1.01,-0.20,-0.02,0.30,
2.367,-0.06,-0.10,1.01,-0.20,-0.02,0.30,
2.367,-0.06,-0.10,1.01,-0.06,-0.07,0.31,
2.369,-0.06,-0.11,1.01,-0.06,-0.07,0.31,
2.372,-0.05,-0.11,1.01,-0.06,-0.07,0.31,
2.372,-0.05,-0.11,1.01,0.14,-0.04,0.27,
2.375,-0.05,-0.11,1.01,0.14,-0.04,0.27,
2.377,-0.05,-0.12,1.01,0.14,-0.04,0.27,
2.377,-0.05,-0.12,1.01,0.23,-0.11,0.27,
2.379,-0.05,-0.12,1.02,0.23,-0.11,0.27,
2.382,-0.04,-0.12,1.02,0.23,-0.11,0.27,
2.382,-0.04,-0.12,1.02,0.30,-0.16,0.31,
2.384,-0.05,-0.12,1.01,0.30,-0.16,0.31,
2.387,-0.05,-0.12,1.01,0.30,-0.16,0.31,
2.387,-0.05,-0.12,1.01,0.33,-0.20,0.35,
2.389,-0.05,-0.12,1.01,0.33,-0.20,0.35,
2.392,-0.05,-0.12,1.01,0.33,-0.20,0.35,
2.393,-0.05,-0.12,1.01,0.33,-0.26,0.31,
2.394,-0.06,-0.13,1.01,0.33,-0.26,0.31,
2.396,-0.06,-0.12,1.01,0.33,-0.26,0.31,
2.396,-0.06,-0.12,1.01,0.29,-0.26,0.30,
2.399,-0.06,-0.13,1.02,0.29,-0.26,0.30,
2.402,-0.06,-0.13,1.02,0.29,-0.26,0.30,
2.402,-0.06,-0.13,1.02,0.25,-0.28,0.32,
2.404,-0.06,-0.13,1.02,0.25,-0.28,0.32,
2.406,-0.06,-0.13,1.03,0.25,-0.28,0.32,
2.407,-0.06,-0.13,1.03,0.23,-0.34,0.36,
2.41,-0.07,-0.13,1.03,0.23,-0.34,0.36,
2.411,-0.06,-0.13,1.03,0.23,-0.34,0.36,
2.411,-0.06,-0.13,1.03,0.21,-0.31,0.42,
2.414,-0.06,-0.13,1.02,0.21,-0.31,0.42,
2.417,-0.06,-0.12,1.03,0.21,-0.31,0.42,
2.417,-0.06,-0.12,1.03,0.19,-0.36,0.44,
2.419,-0.05,-0.12,1.03,0.19,-0.36,0.44,
2.422,-0.05,-0.12,1.03,0.19,-0.36,0.44,
2.422,-0.05,-0.12,1.03,0.27,-0.29,0.42,
2.424,-0.05,-0.12,1.02,0.27,-0.29,0.42,
2.431,-0.04,-0.11,1.01,0.27,-0.29,0.42,
2.431,-0.04,-0.11,1.01,0.34,-0.25,0.42,
2.433,-0.04,-0.11,1.01,0.34,-0.25,0.42,
2.433,-0.04,-0.11,1.01,0.39,-0.20,0.34,
2.433,-0.04,-0.11,1.01,0.39,-0.20,0.34,
2.433,-0.04,-0.10,1.01,0.39,-0.20,0.34,
2.436,-0.04,-0.10,1.01,0.42,-0.15,0.30,
2.437,-0.04,-0.10,1.01,0.42,-0.15,0.30,
2.439,-0.05,-0.10,1.01,0.42,-0.15,0.30,
2.441,-0.05,-0.09,1.01,0.42,-0.15,0.30,
2.441,-0.05,-0.09,1.01,0.41,-0.06,0.28,
2.449,-0.06,-0.09,1.01,0.41,-0.06,0.28,
2.45,-0.06,-0.09,1.01,0.35,-0.02,0.28,
2.45,-0.06,-0.09,1.00,0.35,-0.02,0.28,
2.45,-0.06,-0.09,1.01,0.35,-0.02,0.28,
2.45,-0.06,-0.09,1.01,0.29,0.03,0.22,
2.451,-0.07,-0.09,1.00,0.29,0.03,0.22,
2.454,-0.07,-0.09,1.00,0.29,0.03,0.22,
2.456,-0.07,-0.08,1.01,0.29,0.03,0.22,
2.457,-0.07,-0.08,1.01,0.21,0.06,0.19,
2.459,-0.08,-0.08,1.01,0.21,0.06,0.19,
2.461,-0.08,-0.08,1.00,0.21,0.06,0.19,
2.462,-0.08,-0.08,1.00,0.17,0.08,0.21,
2.463,-0.07,-0.08,1.00,0.17,0.08,0.21,
2.466,-0.08,-0.07,1.00,0.17,0.08,0.21,
2.466,-0.08,-0.07,1.00,0.11,0.10,0.18,
2.468,-0.08,-0.07,1.00,0.11,0.10,0.18,
2.471,-0.08,-0.07,1.00,0.10,0.16,0.15,
2.471,-0.09,-0.07,1.01,0.10,0.16,0.15,
2.474,-0.09,-0.07,1.00,0.10,0.16,0.15,
2.476,-0.10,-0.08,1.01,0.10,0.16,0.15,
2.476,-0.10,-0.08,1.01,0.01,0.19,0.20,
2.482,-0.10,-0.07,1.01,0.01,0.19,0.20,
2.483,-0.11,-0.08,1.02,0.01,0.19,0.20,
2.483,-0.11,-0.08,1.02,-0.07,0.16,0.21,
2.483,-0.11,-0.08,1.02,-0.07,0.16,0.21,
2.487,-0.11,-0.08,1.02,-0.07,0.16,0.21,
2.488,-0.11,-0.08,1.02,-0.17,0.15,0.29,
2.488,-0.11,-0.08,1.02,-0.17,0.15,0.29,
2.49,-0.11,-0.08,1.02,-0.17,0.15,0.29,
2.49,-0.11,-0.08,1.02,-0.20,0.11,0.33,
2.497,-0.11,-0.08,1.02,-0.20,0.11,0.33,
2.498,-0.11,-0.08,1.02,-0.21,0.11,0.33,
2.499,-0.11,-0.08,1.01,-0.21,0.11,0.33,
2.499,-0.11,-0.08,1.01,-0.21,0.11,0.33,
2.5,-0.10,-0.08,1.01,-0.21,0.11,0.33,
2.501,-0.10,-0.08,1.01,-0.21,0.14,0.30,
2.503,-0.10,-0.08,1.01,-0.21,0.14,0.30,
2.505,-0.10,-0.08,1.00,-0.21,0.14,0.30,
2.506,-0.10,-0.08,1.00,-0.15,0.12,0.25,
2.509,-0.09,-0.07,1.01,-0.15,0.12,0.25,
2.511,-0.08,-0.07,1.00,-0.15,0.12,0.25,
2.511,-0.08,-0.07,1.00,-0.06,0.11,0.20,
2.513,-0.08,-0.07,0.99,-0.06,0.11,0.20,
2.516,-0.08,-0.08,0.99,-0.06,0.11,0.20,
2.516,-0.08,-0.08,0.99,0.04,0.15,0.16,
2.518,-0.07,-0.08,0.99,0.04,0.15,0.16,
2.52,-0.07,-0.07,0.99,0.04,0.15,0.16,
2.521,-0.07,-0.07,0.99,0.13,0.12,0.05,
2.523,-0.06,-0.07,0.99,0.13,0.12,0.05,
2.53,-0.06,-0.07,0.99,0.13,0.12,0.05,
2.53,-0.06,-0.07,0.99,0.24,0.13,0.01,
2.53,-0.06,-0.07,1.00,0.24,0.13,0.01,
2.531,-0.05,-0.07,1.00,0.24,0.13,0.01,
2.531,-0.05,-0.07,1.00,0.31,0.15,0.07,
2.533,-0.05,-0.07,0.99,0.31,0.15,0.07,
2.535,-0.05,-0.08,1.00,0.31,0.15,0.07,
2.535,-0.05,-0.08,1.00,0.38,0.15,0.09,
2.537,-0.05,-0.08,1.00,0.38,0.15,0.09,
2.54,-0.05,-0.08,1.00,0.38,0.15,0.09,
2.541,-0.05,-0.08,1.00,0.46,0.12,0.08,
2.543,-0.04,-0.09,1.01,0.46,0.12,0.08,
2.545,-0.04,-0.10,1.01,0.46,0.12,0.08,
2.546,-0.04,-0.10,1.01,0.45,0.09,0.14,
2.547,-0.04,-0.10,1.02,0.45,0.09,0.14,
2.55,-0.04,-0.11,1.02,0.45,0.09,0.14,
2.55,-0.04,-0.11,1.02,0.50,-0.04,0.22,
2.553,-0.03,-0.11,1.02,0.50,-0.04,0.22,
2.555,-0.03,-0.11,1.03,0.50,-0.04,0.22,
2.556,-0.03,-0.11,1.03,0.51,-0.14,0.31,
2.558,-0.03,-0.11,1.03,0.51,-0.14,0.31,
2.562,-0.03,-0.11,1.04,0.51,-0.14,0.31,
2.562,-0.03,-0.11,1.04,0.59,-0.19,0.35,
2.563,-0.03,-0.11,1.04,0.59,-0.19,0.35,
2.565,-0.03,-0.11,1.05,0.59,-0.19,0.35,
2.566,-0.03,-0.11,1.05,0.64,-0.23,0.44,
2.568,-0.02,-0.11,1.05,0.64,-0.23,0.44,
2.57,-0.02,-0.11,1.05,0.64,-0.23,0.44,
2.57,-0.02,-0.11,1.05,0.66,-0.20,0.56,
2.573,-0.02,-0.11,1.06,0.66,-0.20,0.56,
2.575,-0.02,-0.11,1.06,0.66,-0.20,0.56,
2.575,-0.02,-0.11,1.06,0.72,-0.21,0.63,
2.579,-0.02,-0.12,1.06,0.72,-0.21,0.63,
2.579,-0.02,-0.11,1.06,0.72,-0.21,0.63,
2.58,-0.02,-0.11,1.06,0.71,-0.20,0.72,
2.582,-0.02,-0.11,1.05,0.71,-0.20,0.72,
2.585,-0.03,-0.11,1.05,0.71,-0.20,0.72,
2.585,-0.03,-0.11,1.05,0.71,-0.24,0.71,
2.59,-0.03,-0.11,1.06,0.71,-0.24,0.71,
2.59,-0.02,-0.11,1.05,0.71,-0.24,0.71,
2.59,-0.02,-0.11,1.05,0.69,-0.22,0.61,
2.592,-0.03,-0.11,1.05,0.69,-0.22,0.61,
2.594,-0.03,-0.11,1.05,0.67,-0.21,0.62,
2.595,-0.02,-0.10,1.04,0.67,-0.21,0.62,
2.597,-0.02,-0.09,1.03,0.67,-0.21,0.62,
2.6,-0.02,-0.09,1.04,0.67,-0.21,0.62,
2.6,-0.02,-0.09,1.04,0.67,-0.15,0.50,
2.603,-0.02,-0.09,1.03,0.67,-0.15,0.50,
2.606,-0.03,-0.08,1.03,0.67,-0.15,0.50,
2.606,-0.03,-0.08,1.03,0.68,-0.03,0.43,
2.607,-0.03,-0.08,1.02,0.68,-0.03,0.43,
2.61,-0.04,-0.08,1.03,0.68,-0.03,0.43,
2.611,-0.04,-0.08,1.03,0.67,0.01,0.37,
2.611,-0.04,-0.07,1.02,0.67,0.01,0.37,
2.614,-0.04,-0.07,1.02,0.67,0.01,0.37,
2.615,-0.04,-0.07,1.02,0.55,0.10,0.33,
2.617,-0.04,-0.06,1.02,0.55,0.10,0.33,
2.62,-0.04,-0.06,1.02,0.49,0.17,0.26,
2.62,-0.05,-0.06,1.02,0.49,0.17,0.26,
2.622,-0.04,-0.07,1.02,0.49,0.17,0.26,
2.624,-0.05,-0.07,1.03,0.49,0.17,0.26,
2.625,-0.05,-0.07,1.03,0.43,0.21,0.30,
2.628,-0.05,-0.06,1.02,0.43,0.21,0.30,
2.629,-0.05,-0.06,1.02,0.43,0.21,0.30,
2.63,-0.05,-0.06,1.02,0.44,0.18,0.31,
2.632,-0.05,-0.06,1.02,0.44,0.18,0.31,
2.634,-0.05,-0.06,1.02,0.44,0.18,0.31,
2.635,-0.05,-0.06,1.02,0.35,0.22,0.26,
2.638,-0.05,-0.06,1.02,0.35,0.22,0.26,
2.642,-0.05,-0.06,1.02,0.35,0.22,0.26,
2.643,-0.05,-0.06,1.02,0.36,0.18,0.25,
2.644,-0.05,-0.06,1.02,0.36,0.18,0.25,
2.644,-0.05,-0.06,1.02,0.36,0.21,0.22,
2.645,-0.05,-0.06,1.02,0.36,0.21,0.22,
2.656,-0.04,-0.06,1.02,0.36,0.21,0.22,
2.657,-0.03,-0.06,1.02,0.36,0.21,0.22,
2.657,-0.03,-0.06,1.02,0.40,0.18,0.25,
2.657,-0.02,-0.07,1.01,0.40,0.18,0.25,
2.658,-0.01,-0.07,1.02,0.40,0.18,0.25,
2.658,-0.01,-0.07,1.02,0.55,0.20,0.21,
2.659,0.00,-0.07,1.01,0.55,0.20,0.21,
2.659,0.01,-0.07,1.01,0.55,0.20,0.21,
2.659,0.01,-0.07,1.01,0.75,0.12,0.20,
2.671,0.03,-0.08,1.01,0.75,0.12,0.20,
2.672,0.04,-0.07,1.01,0.75,0.12,0.20,
2.673,0.04,-0.07,1.01,0.94,0.08,0.17,
2.673,0.04,-0.08,1.01,0.94,0.08,0.17,
2.673,0.06,-0.08,1.00,0.94,0.08,0.17,
2.674,0.06,-0.08,1.00,1.16,0.03,0.16,
2.674,0.06,-0.08,1.01,1.16,0.03,0.16,
2.674,0.06,-0.09,1.01,1.16,0.03,0.16,
2.675,0.06,-0.09,1.01,1.34,-0.03,0.11,
2.678,0.07,-0.09,1.01,1.34,-0.03,0.11,
2.679,0.08,-0.09,1.01,1.34,-0.03,0.11,
2.679,0.08,-0.09,1.01,1.46,-0.08,0.14,
2.681,0.08,-0.10,1.01,1.46,-0.08,0.14,
2.683,0.08,-0.10,1.02,1.46,-0.08,0.14,
2.683,0.08,-0.10,1.02,1.53,-0.18,0.16,
2.688,0.08,-0.10,1.02,1.53,-0.18,0.16,
2.689,0.08,-0.11,1.02,1.53,-0.18,0.16,
2.689,0.08,-0.11,1.02,1.59,-0.24,0.21,
2.69,0.08,-0.11,1.03,1.59,-0.24,0.21,
2.694,0.07,-0.11,1.03,1.59,-0.24,0.21,
2.694,0.07,-0.11,1.03,1.57,-0.30,0.25,
2.695,0.08,-0.11,1.04,1.57,-0.30,0.25,
2.698,0.07,-0.10,1.05,1.57,-0.30,0.25,
2.698,0.07,-0.10,1.05,1.52,-0.31,0.37,
2.7,0.08,-0.10,1.05,1.52,-0.31,0.37,
2.704,0.07,-0.11,1.05,1.52,-0.31,0.37,
2.704,0.07,-0.11,1.05,1.50,-0.28,0.46,
2.705,0.07,-0.11,1.05,1.50,-0.28,0.46,
2.708,0.07,-0.10,1.06,1.50,-0.28,0.46,
2.708,0.07,-0.10,1.06,1.48,-0.28,0.53,
2.71,0.07,-0.10,1.06,1.48,-0.28,0.53,
2.712,0.07,-0.10,1.06,1.48,-0.28,0.53,
2.713,0.07,-0.10,1.06,1.43,-0.27,0.57,
2.715,0.07,-0.10,1.05,1.43,-0.27,0.57,
2.718,0.07,-0.10,1.05,1.43,-0.27,0.57,
2.718,0.07,-0.10,1.05,1.43,-0.19,0.61,
2.72,0.07,-0.09,1.05,1.43,-0.19,0.61,
2.722,0.07,-0.10,1.05,1.43,-0.19,0.61,
2.723,0.07,-0.10,1.05,1.37,-0.18,0.55,
2.731,0.07,-0.10,1.04,1.37,-0.18,0.55,
2.732,0.06,-0.10,1.04,1.37,-0.18,0.55,
2.732,0.06,-0.10,1.04,1.35,-0.17,0.48,
2.732,0.06,-0.10,1.03,1.35,-0.17,0.48,
2.733,0.06,-0.09,1.03,1.35,-0.17,0.48,
2.733,0.06,-0.09,1.03,1.29,-0.20,0.39,
2.736,0.05,-0.09,1.03,1.29,-0.20,0.39,
2.739,0.04,-0.10,1.03,1.29,-0.20,0.39,
2.74,0.04,-0.10,1.03,1.24,-0.19,0.31,
2.74,0.04,-0.10,1.02,1.24,-0.19,0.31,
2.745,0.04,-0.09,1.01,1.24,-0.19,0.31,
2.746,0.04,-0.09,1.01,1.09,-0.17,0.26,
2.746,0.03,-0.10,1.02,1.09,-0.17,0.26,
2.747,0.03,-0.10,1.02,1.09,-0.17,0.26,
2.748,0.03,-0.10,1.02,1.01,-0.18,0.17,
2.75,0.02,-0.10,1.02,1.01,-0.18,0.17,
2.752,0.02,-0.10,1.01,1.01,-0.18,0.17,
2.752,0.02,-0.10,1.01,0.90,-0.21,0.19,
2.755,0.02,-0.10,1.01,0.90,-0.21,0.19,
2.757,0.02,-0.10,1.02,0.90,-0.21,0.19,
2.757,0.02,-0.10,1.02,0.83,-0.22,0.13,
2.761,0.02,-0.10,1.02,0.83,-0.22,0.13,
2.762,0.02,-0.10,1.02,0.83,-0.22,0.13,
2.762,0.02,-0.10,1.02,0.76,-0.25,0.14,
2.765,0.02,-0.11,1.02,0.76,-0.25,0.14,
2.768,0.02,-0.11,1.02,0.76,-0.25,0.14,
2.768,0.02,-0.11,1.02,0.76,-0.25,0.14,
2.77,0.02,-0.11,1.01,0.76,-0.25,0.14,
2.773,0.02,-0.11,1.02,0.76,-0.25,0.14,
2.773,0.02,-0.11,1.02,0.78,-0.32,0.17,
2.775,0.03,-0.11,1.01,0.78,-0.32,0.17,
2.778,0.03,-0.11,1.01,0.78,-0.32,0.17,
2.778,0.03,-0.11,1.01,0.79,-0.36,0.13,
2.779,0.03,-0.11,1.01,0.79,-0.36,0.13,
2.782,0.03,-0.11,1.01,0.79,-0.36,0.13,
2.782,0.03,-0.11,1.01,0.82,-0.38,0.08,
2.784,0.03,-0.11,1.01,0.82,-0.38,0.08,
2.787,0.03,-0.11,1.01,0.82,-0.38,0.08,
2.787,0.03,-0.11,1.01,0.79,-0.38,0.10,
2.789,0.02,-0.12,1.01,0.79,-0.38,0.10,
2.794,0.02,-0.12,1.01,0.79,-0.36,0.09,
2.794,0.02,-0.12,1.01,0.79,-0.36,0.09,
2.794,0.02,-0.12,1.01,0.79,-0.36,0.09,
2.798,0.01,-0.12,1.01,0.79,-0.36,0.09,
2.798,0.01,-0.12,1.01,0.72,-0.44,0.09,
2.799,0.01,-0.12,1.01,0.72,-0.44,0.09,
2.802,0.01,-0.12,1.01,0.72,-0.44,0.09,
2.806,0.01,-0.12,1.01,0.63,-0.46,0.10,
2.807,0.01,-0.13,1.01,0.63,-0.46,0.10,
2.807,0.01,-0.13,1.02,0.63,-0.46,0.10,
2.808,0.01,-0.13,1.02,0.59,-0.50,0.09,
2.812,0.01,-0.13,1.01,0.59,-0.50,0.09,
2.813,0.02,-0.13,1.00,0.59,-0.50,0.09,
2.815,0.02,-0.13,1.00,0.54,-0.56,0.12,
2.815,0.02,-0.12,1.01,0.54,-0.56,0.12,
2.817,0.02,-0.12,1.01,0.59,-0.50,0.05,
2.817,0.03,-0.12,1.01,0.59,-0.50,0.05,
2.819,0.04,-0.12,1.01,0.59,-0.50,0.05,
2.823,0.05,-0.12,1.00,0.59,-0.50,0.05,
2.823,0.05,-0.12,1.00,0.69,-0.44,0.03,
2.825,0.06,-0.13,1.00,0.69,-0.44,0.03,
2.829,0.06,-0.13,0.99,0.69,-0.44,0.03,
2.829,0.06,-0.13,0.99,0.83,-0.47,0.01,
2.829,0.07,-0.13,0.99,0.83,-0.47,0.01,
2.832,0.08,-0.13,0.99,0.83,-0.47,0.01,
2.832,0.08,-0.13,0.99,0.96,-0.51,-0.09,
2.835,0.09,-0.13,0.99,0.96,-0.51,-0.09,
2.837,0.10,-0.13,0.98,0.96,-0.51,-0.09,
2.837,0.10,-0.13,0.98,1.06,-0.51,-0.09,
2.84,0.10,-0.13,0.99,1.06,-0.51,-0.09,
2.842,0.10,-0.13,0.99,1.06,-0.51,-0.09,
2.842,0.10,-0.13,0.99,1.20,-0.51,-0.17,
2.844,0.11,-0.13,0.98,1.20,-0.51,-0.17,
2.847,0.12,-0.13,0.98,1.20,-0.51,-0.17,
2.848,0.12,-0.13,0.98,1.30,-0.53,-0.15,
2.849,0.11,-0.13,0.99,1.30,-0.53,-0.15,
2.852,0.12,-0.13,0.98,1.30,-0.53,-0.15,
2.852,0.12,-0.13,0.98,1.36,-0.51,-0.19,
2.854,0.12,-0.12,0.99,1.36,-0.51,-0.19,
2.857,0.11,-0.12,0.99,1.36,-0.51,-0.19,
2.857,0.11,-0.12,0.99,1.35,-0.46,-0.16,
2.859,0.11,-0.12,0.99,1.35,-0.46,-0.16,
2.865,0.10,-0.12,0.99,1.35,-0.46,-0.16,
2.866,0.10,-0.12,0.99,1.31,-0.41,-0.11,
2.866,0.10,-0.11,1.00,1.31,-0.41,-0.11,
2.868,0.10,-0.11,1.00,1.17,-0.35,-0.09,
2.869,0.09,-0.11,1.00,1.17,-0.35,-0.09,
2.869,0.08,-0.10,1.01,1.17,-0.35,-0.09,
2.871,0.07,-0.10,1.01,1.17,-0.35,-0.09,
2.871,0.07,-0.10,1.01,1.03,-0.31,-0.05,
2.875,0.06,-0.10,1.00,1.03,-0.31,-0.05,
2.876,0.05,-0.08,1.00,1.03,-0.31,-0.05,
2.877,0.05,-0.08,1.00,0.81,-0.18,0.04,
2.88,0.05,-0.08,1.01,0.81,-0.18,0.04,
2.881,0.04,-0.08,1.01,0.81,-0.18,0.04,
2.881,0.04,-0.08,1.01,0.63,-0.08,0.00,
2.884,0.03,-0.07,1.00,0.63,-0.08,0.00,
2.887,0.02,-0.06,1.00,0.63,-0.08,0.00,
2.887,0.02,-0.06,1.00,0.44,0.03,0.07,
2.889,0.02,-0.05,1.00,0.44,0.03,0.07,
2.892,0.01,-0.05,0.99,0.44,0.03,0.07,
2.892,0.01,-0.05,0.99,0.26,0.18,-0.01,
2.894,0.00,-0.04,0.98,0.26,0.18,-0.01,
2.897,0.00,-0.03,0.98,0.26,0.18,-0.01,
2.897,0.00,-0.03,0.98,0.14,0.31,-0.08,
2.899,0.00,-0.03,0.97,0.14,0.31,-0.08,
2.901,-0.00,-0.03,0.96,0.14,0.31,-0.08,
2.901,-0.00,-0.03,0.96,0.02,0.41,-0.19,
2.904,-0.00,-0.02,0.95,0.02,0.41,-0.19,
2.907,-0.01,-0.02,0.94,0.02,0.41,-0.19,
2.907,-0.01,-0.02,0.94,-0.03,0.46,-0.34,
2.909,-0.01,-0.02,0.95,-0.03,0.46,-0.34,
2.911,-0.01,-0.01,0.94,-0.03,0.46,-0.34,
2.912,-0.01,-0.01,0.94,-0.10,0.57,-0.52,
2.914,-0.01,-0.01,0.93,-0.10,0.57,-0.52,
2.917,-0.01,-0.01,0.93,-0.14,0.61,-0.57,
2.917,-0.01,-0.01,0.92,-0.14,0.61,-0.57,
2.919,-0.01,-0.00,0.92,-0.14,0.61,-0.57,
2.921,-0.01,0.00,0.91,-0.14,0.61,-0.57,
2.922,-0.01,0.00,0.91,-0.15,0.65,-0.75,
2.924,-0.01,0.00,0.92,-0.15,0.65,-0.75,
2.926,-0.01,0.01,0.91,-0.15,0.65,-0.75,
2.926,-0.01,0.01,0.91,-0.19,0.72,-0.83,
2.929,-0.01,0.01,0.91,-0.19,0.72,-0.83,
2.932,-0.01,0.01,0.91,-0.19,0.72,-0.83,
2.932,-0.01,0.01,0.91,-0.14,0.74,-0.82,
2.933,-0.00,0.01,0.91,-0.14,0.74,-0.82,
2.937,-0.00,0.01,0.91,-0.14,0.74,-0.82,
2.937,-0.00,0.01,0.91,-0.13,0.79,-0.87,
2.939,-0.00,0.01,0.91,-0.13,0.79,-0.87,
2.941,0.00,0.01,0.92,-0.13,0.79,-0.87,
2.942,0.00,0.01,0.92,-0.08,0.81,-0.86,
2.943,0.01,0.01,0.92,-0.08,0.81,-0.86,
2.946,0.00,0.00,0.93,-0.08,0.81,-0.86,
2.947,0.00,0.00,0.93,-0.08,0.78,-0.79,
2.948,0.01,-0.00,0.93,-0.08,0.78,-0.79,
2.951,0.01,-0.00,0.94,-0.08,0.78,-0.79,
2.951,0.01,-0.00,0.94,-0.02,0.72,-0.68,
2.954,0.02,-0.01,0.94,-0.02,0.72,-0.68,
2.956,0.02,-0.01,0.94,-0.02,0.72,-0.68,
2.957,0.02,-0.01,0.94,0.04,0.65,-0.59,
2.959,0.02,-0.01,0.95,0.04,0.65,-0.59,
2.964,0.02,-0.01,0.96,0.04,0.65,-0.59,
2.964,0.02,-0.01,0.96,0.09,0.57,-0.50,
2.964,0.02,-0.02,0.96,0.09,0.57,-0.50,
2.968,0.02,-0.03,0.97,0.09,0.57,-0.50,
2.968,0.02,-0.03,0.97,0.13,0.53,-0.38,
2.97,0.01,-0.03,0.98,0.13,0.53,-0.38,
2.97,0.01,-0.03,0.98,0.13,0.53,-0.38,
2.97,0.01,-0.03,0.98,0.15,0.42,-0.27,
2.973,0.01,-0.03,0.99,0.15,0.42,-0.27,
2.976,0.00,-0.03,1.00,0.15,0.42,-0.27,
2.976,0.00,-0.03,1.00,0.06,0.36,-0.12,
2.978,-0.00,-0.04,1.00,0.06,0.36,-0.12,
2.981,-0.01,-0.04,1.00,0.06,0.36,-0.12,
2.981,-0.01,-0.04,1.00,0.01,0.32,-0.01,
2.983,-0.01,-0.04,1.00,0.01,0.32,-0.01,
2.985,-0.01,-0.04,1.00,0.01,0.32,-0.01,
2.986,-0.01,-0.04,1.00,-0.12,0.28,0.04,
2.988,-0.02,-0.04,1.01,-0.12,0.28,0.04,
2.991,-0.02,-0.04,1.01,-0.15,0.29,0.05,
2.991,-0.02,-0.04,1.00,-0.15,0.29,0.05,
2.993,-0.02,-0.04,1.00,-0.15,0.29,0.05,
2.996,-0.04,-0.05,1.01,-0.15,0.29,0.05,
2.997,-0.04,-0.05,1.01,-0.25,0.27,0.08,
2.999,-0.12,-0.08,1.06,-0.25,0.27,0.08,
3.0,-0.20,-0.12,1.17,-0.25,0.27,0.08,
3.001,-0.20,-0.12,1.17,-0.34,0.20,0.07,
3.003,-0.23,-0.12,1.20,-0.34,0.20,0.07,
3.005,-0.15,-0.08,1.13,-0.34,0.20,0.07,
3.006,-0.15,-0.08,1.13,-1.59,-0.33,1.19,
3.009,-0.11,-0.04,1.07,-1.59,-0.33,1.19,
3.01,-0.07,-0.02,1.04,-1.59,-0.33,1.19,
3.011,-0.07,-0.02,1.04,-1.89,-0.29,1.63,
3.013,-0.10,-0.01,1.04,-1.89,-0.29,1.63,
3.016,-0.26,-0.04,1.08,-1.89,-0.29,1.63,
3.016,-0.26,-0.04,1.08,-0.92,0.36,0.58,
3.018,-0.49,-0.10,1.19,-0.92,0.36,0.58,
3.02,-0.49,-0.10,1.23,-0.92,0.36,0.58,
3.02,-0.49,-0.10,1.23,-1.78,0.39,0.62,
3.023,-0.29,-0.02,1.11,-1.78,0.39,0.62,
3.026,-0.08,0.07,1.00,-1.78,0.39,0.62,
3.026,-0.08,0.07,1.00,-4.87,-0.36,2.03,
3.029,0.06,0.13,0.94,-4.87,-0.36,2.03,
3.03,0.12,0.15,0.91,-4.87,-0.36,2.03,
3.03,0.12,0.15,0.91,-1.92,0.85,0.57,
3.033,0.15,0.14,0.88,-1.92,0.85,0.57,
3.036,0.15,0.11,0.88,-1.92,0.85,0.57,
3.037,0.15,0.11,0.88,0.78,1.95,-0.72,
3.04,0.14,0.06,0.88,0.78,1.95,-0.72,
3.04,0.14,0.06,0.88,1.33,1.82,-1.17,
3.04,0.12,0.00,0.89,1.33,1.82,-1.17,
3.043,0.11,-0.05,0.91,1.33,1.82,-1.17,
3.046,0.10,-0.09,0.92,1.33,1.82,-1.17,
3.047,0.10,-0.09,0.92,1.11,0.85,-1.15,
3.047,0.11,-0.12,0.93,1.11,0.85,-1.15,
3.05,0.11,-0.13,0.94,1.11,0.85,-1.15,
3.05,0.11,-0.13,0.94,0.82,-0.16,-0.84,
3.053,0.13,-0.13,0.96,0.82,-0.16,-0.84,
3.056,0.14,-0.12,0.98,0.82,-0.16,-0.84,
3.056,0.14,-0.12,0.98,0.87,-0.70,-0.63,
3.058,0.15,-0.11,1.00,0.87,-0.70,-0.63,
3.06,0.15,-0.09,1.02,0.87,-0.70,-0.63,
3.061,0.15,-0.09,1.02,1.10,-0.66,-0.28,
3.068,0.14,-0.07,1.04,1.10,-0.66,-0.28,
3.069,0.14,-0.06,1.05,1.10,-0.66,-0.28,
3.069,0.14,-0.06,1.05,1.19,-0.40,0.10,
3.069,0.13,-0.05,1.06,1.19,-0.40,0.10,
3.07,0.12,-0.04,1.05,1.19,-0.40,0.10,
3.07,0.12,-0.04,1.05,1.11,-0.08,0.45,
3.072,0.10,-0.04,1.05,1.11,-0.08,0.45,
3.074,0.10,-0.04,1.04,1.11,-0.08,0.45,
3.075,0.10,-0.04,1.04,0.94,0.09,0.55,
3.079,0.09,-0.03,1.04,0.94,0.09,0.55,
3.08,0.08,-0.03,1.03,0.94,0.09,0.55,
3.08,0.08,-0.03,1.03,0.73,0.18,0.48,
3.082,0.07,-0.03,1.02,0.73,0.18,0.48,
3.084,0.06,-0.04,1.02,0.73,0.18,0.48,
3.084,0.06,-0.04,1.02,0.56,0.19,0.33,
3.088,0.05,-0.04,1.03,0.56,0.19,0.33,
3.09,0.05,-0.04,1.03,0.56,0.19,0.33,
3.09,0.05,-0.04,1.03,0.39,0.16,0.23,
3.092,0.04,-0.05,1.03,0.39,0.16,0.23,
3.094,0.04,-0.04,1.03,0.39,0.16,0.23,
3.094,0.04,-0.04,1.03,0.23,0.12,0.28,
3.097,0.04,-0.04,1.04,0.23,0.12,0.28,
3.1,0.03,-0.04,1.04,0.23,0.12,0.28,
3.1,0.03,-0.04,1.04,0.16,0.04,0.32,
3.102,0.03,-0.05,1.04,0.16,0.04,0.32,
3.104,0.03,-0.05,1.04,0.16,0.04,0.32,
3.105,0.03,-0.05,1.04,0.07,0.04,0.37,
3.107,0.03,-0.05,1.04,0.07,0.04,0.37,
3.11,0.03,-0.05,1.04,0.07,0.04,0.37,
3.11,0.03,-0.05,1.04,0.02,-0.00,0.43,
3.112,0.03,-0.05,1.04,0.02,-0.00,0.43,
3.115,0.03,-0.05,1.04,0.04,-0.03,0.38,
3.115,0.04,-0.05,1.04,0.04,-0.03,0.38,
3.117,0.03,-0.05,1.03,0.04,-0.03,0.38,
3.12,0.04,-0.05,1.03,0.04,-0.03,0.38,
3.12,0.04,-0.05,1.03,0.05,-0.04,0.36,
3.122,0.04,-0.05,1.02,0.05,-0.04,0.36,
3.125,0.04,-0.04,1.01,0.05,-0.04,0.36,
3.125,0.04,-0.04,1.01,0.05,-0.05,0.28,
3.127,0.04,-0.04,1.00,0.05,-0.05,0.28,
3.13,0.05,-0.05,0.99,0.05,-0.05,0.28,
3.131,0.05,-0.05,0.99,0.09,-0.02,0.16,
3.132,0.05,-0.04,0.98,0.09,-0.02,0.16,
3.139,0.06,-0.04,0.97,0.09,-0.02,0.16,
3.14,0.06,-0.04,0.97,0.15,-0.02,-0.01,
3.14,0.06,-0.04,0.96,0.15,-0.02,-0.01,
3.14,0.06,-0.04,0.96,0.23,-0.01,-0.21,
3.141,0.06,-0.04,0.95,0.23,-0.01,-0.21,
3.141,0.06,-0.04,0.93,0.23,-0.01,-0.21,
3.144,0.06,-0.04,0.93,0.23,-0.01,-0.21,
3.144,0.06,-0.04,0.93,0.25,-0.01,-0.43,
3.146,0.06,-0.04,0.92,0.25,-0.01,-0.43,
3.148,0.07,-0.04,0.91,0.25,-0.01,-0.43,
3.149,0.07,-0.04,0.91,0.28,0.03,-0.67,
3.152,0.07,-0.04,0.91,0.28,0.03,-0.67,
3.154,0.07,-0.04,0.92,0.28,0.03,-0.67,
3.155,0.07,-0.04,0.92,0.31,0.02,-0.80,
3.157,0.06,-0.03,0.92,0.31,0.02,-0.80,
3.159,0.06,-0.03,0.94,0.31,0.02,-0.80,
3.16,0.06,-0.03,0.94,0.36,0.04,-0.86,
3.167,0.07,-0.03,0.95,0.36,0.04,-0.86,
3.168,0.07,-0.04,0.95,0.36,0.04,-0.86,
3.168,0.07,-0.04,0.95,0.28,0.07,-0.70,
3.169,0.07,-0.04,0.97,0.28,0.07,-0.70,
3.169,0.08,-0.04,0.97,0.28,0.07,-0.70,
3.169,0.08,-0.04,0.97,0.32,0.06,-0.48,
3.171,0.08,-0.05,0.99,0.32,0.06,-0.48,
3.174,0.08,-0.05,0.99,0.32,0.06,-0.48,
3.174,0.08,-0.05,0.99,0.39,0.02,-0.27,
3.176,0.08,-0.06,1.00,0.39,0.02,-0.27,
3.184,0.08,-0.06,1.01,0.39,0.02,-0.27,
3.185,0.08,-0.06,1.01,0.45,-0.09,-0.10,
3.185,0.08,-0.06,1.01,0.45,-0.09,-0.10,
3.185,0.09,-0.07,1.01,0.45,-0.09,-0.10,
3.185,0.09,-0.07,1.01,0.44,-0.14,0.06,
3.186,0.08,-0.07,1.01,0.44,-0.14,0.06,
3.188,0.08,-0.07,1.01,0.44,-0.14,0.06,
3.189,0.08,-0.07,1.01,0.47,-0.21,0.09,
3.19,0.08,-0.07,1.01,0.47,-0.21,0.09,
3.193,0.08,-0.07,1.01,0.47,-0.21,0.09,
3.194,0.08,-0.07,1.01,0.44,-0.26,0.14,
3.196,0.08,-0.07,1.01,0.44,-0.26,0.14,
3.198,0.07,-0.07,1.01,0.44,-0.26,0.14,
3.198,0.07,-0.07,1.01,0.45,-0.24,0.11,
3.201,0.07,-0.07,1.01,0.45,-0.24,0.11,
3.203,0.07,-0.06,1.01,0.45,-0.24,0.11,
3.204,0.07,-0.06,1.01,0.38,-0.23,0.14,
3.206,0.06,-0.07,1.01,0.38,-0.23,0.14,
3.208,0.05,-0.07,1.01,0.38,-0.23,0.14,
3.209,0.05,-0.07,1.01,0.31,-0.22,0.14,
3.211,0.05,-0.07,1.01,0.31,-0.22,0.14,
3.213,0.05,-0.07,1.01,0.20,-0.24,0.10,
3.214,0.04,-0.06,1.00,0.20,-0.24,0.10,
3.215,0.03,-0.06,1.00,0.20,-0.24,0.10,
3.218,0.02,-0.06,1.01,0.20,-0.24,0.10,
3.218,0.02,-0.06,1.01,0.06,-0.22,0.08,
3.22,0.02,-0.05,1.00,0.06,-0.22,0.08,
3.223,0.01,-0.05,1.00,0.06,-0.22,0.08,
3.223,0.01,-0.05,1.00,-0.05,-0.16,0.03,
3.227,0.00,-0.04,0.99,-0.05,-0.16,0.03,
3.227,-0.00,-0.04,0.99,-0.05,-0.16,0.03,
3.23,-0.00,-0.04,0.99,-0.19,-0.09,-0.01,
3.231,-0.01,-0.03,0.98,-0.19,-0.09,-0.01,
3.233,-0.01,-0.03,0.98,-0.19,-0.09,-0.01,
3.233,-0.01,-0.03,0.98,-0.34,0.00,-0.08,
3.237,-0.02,-0.02,0.97,-0.34,0.00,-0.08,
3.239,-0.02,-0.01,0.96,-0.34,0.00,-0.08,
3.239,-0.02,-0.01,0.96,-0.43,0.13,-0.18,
3.241,-0.03,-0.01,0.94,-0.43,0.13,-0.18,
3.243,-0.06,-0.04,0.85,-0.43,0.13,-0.18,
3.246,-0.06,-0.04,0.85,-0.51,0.24,-0.35,
3.247,-0.09,-0.05,0.76,-0.51,0.24,-0.35,
3.247,-0.09,-0.03,0.69,-0.51,0.24,-0.35,
3.248,-0.09,-0.03,0.69,-0.81,0.17,-1.01,
3.25,-0.09,0.01,0.69,-0.81,0.17,-1.01,
3.254,-0.08,0.03,0.74,-0.81,0.17,-1.01,
3.254,-0.08,0.03,0.74,-1.19,-0.03,-2.66,
3.256,-0.08,0.03,0.79,-1.19,-0.03,-2.66,
3.257,-0.08,0.03,0.84,-1.19,-0.03,-2.66,
3.257,-0.08,0.03,0.84,-1.15,0.61,-2.76,
3.26,-0.08,0.02,0.89,-1.15,0.61,-2.76,
3.263,-0.08,0.02,0.89,-1.11,0.72,-1.77,
3.264,-0.07,0.02,0.93,-1.11,0.72,-1.77,
3.265,-0.06,0.01,0.98,-1.11,0.72,-1.77,
3.268,-0.05,0.00,1.02,-1.11,0.72,-1.77,
3.268,-0.05,0.00,1.02,-1.00,0.67,-0.86,
3.271,-0.04,-0.01,1.06,-1.00,0.67,-0.86,
3.272,-0.02,-0.03,1.09,-1.00,0.67,-0.86,
3.273,-0.02,-0.03,1.09,-0.81,0.56,0.05,
3.274,-0.02,-0.04,1.12,-0.81,0.56,0.05,
3.277,-0.00,-0.06,1.14,-0.81,0.56,0.05,
3.277,-0.00,-0.06,1.14,-0.59,0.28,0.74,
3.28,0.00,-0.07,1.15,-0.59,0.28,0.74,
3.283,0.00,-0.08,1.16,-0.59,0.28,0.74,
3.283,0.00,-0.08,1.16,-0.41,0.01,1.27,
3.286,0.00,-0.08,1.15,-0.41,0.01,1.27,
3.287,0.00,-0.08,1.15,-0.41,0.01,1.27,
3.287,0.00,-0.08,1.15,-0.29,-0.19,1.54,
3.289,0.01,-0.08,1.13,-0.29,-0.19,1.54,
3.292,0.01,-0.07,1.12,-0.29,-0.19,1.54,
3.292,0.01,-0.07,1.12,-0.30,-0.25,1.48,
3.3,0.01,-0.07,1.12,-0.30,-0.25,1.48,
3.301,0.01,-0.06,1.11,-0.30,-0.25,1.48,
3.303,0.01,-0.06,1.11,-0.26,-0.19,1.25,
3.303,0.01,-0.06,1.13,-0.26,-0.19,1.25,
3.304,0.00,-0.06,1.15,-0.26,-0.19,1.25,
3.304,0.00,-0.06,1.15,-0.26,-0.10,1.14,
3.304,0.00,-0.05,1.16,-0.26,-0.10,1.14,
3.308,-0.00,-0.05,1.17,-0.26,-0.10,1.14,
3.308,-0.00,-0.05,1.17,-0.29,-0.04,1.38,
3.309,-0.01,-0.05,1.18,-0.29,-0.04,1.38,
3.331,-0.01,-0.05,1.18,-0.35,-0.01,1.64,
3.332,-0.01,-0.06,1.20,-0.35,-0.01,1.64,
3.332,-0.02,-0.06,1.20,-0.35,-0.01,1.64,
3.333,-0.02,-0.06,1.21,-0.35,-0.01,1.64,
3.333,-0.02,-0.06,1.21,-0.46,-0.04,1.88,
3.333,-0.02,-0.06,1.20,-0.46,-0.04,1.88,
3.333,-0.02,-0.05,1.18,-0.46,-0.04,1.88,
3.334,-0.02,-0.05,1.18,-0.54,-0.13,2.03,
3.334,-0.02,-0.05,1.17,-0.54,-0.13,2.03,
3.334,-0.01,-0.04,1.13,-0.54,-0.13,2.03,
3.334,-0.01,-0.04,1.13,-0.57,-0.07,1.90,
3.335,0.03,-0.02,1.08,-0.57,-0.07,1.90,
3.335,0.06,-0.00,1.05,-0.57,-0.07,1.90,
3.335,0.06,-0.00,1.05,-0.54,0.03,1.43,
3.335,0.07,-0.00,1.00,-0.54,0.03,1.43,
3.337,0.07,-0.01,0.95,-0.54,0.03,1.43,
3.337,0.07,-0.01,0.95,0.04,0.31,0.66,
3.339,0.08,-0.01,0.90,0.04,0.31,0.66,
3.341,0.08,-0.02,0.85,0.04,0.31,0.66,
3.342,0.08,-0.02,0.85,0.27,0.35,-0.21,
3.347,0.09,-0.02,0.81,0.27,0.35,-0.21,
3.348,0.09,-0.02,0.78,0.27,0.35,-0.21,
3.348,0.09,-0.02,0.78,0.36,0.24,-1.21,
