
time,gFx,gFy,gFz,ax,ay,az,
0.003,-0.05,0.10,0.94,-0.32,-0.09,-0.40,
0.004,-0.05,0.10,0.94,-0.35,-0.04,-0.49,
0.004,-0.04,0.10,0.94,-0.35,-0.04,-0.49,
0.004,-0.04,0.10,0.94,-0.37,-0.03,-0.60,
0.004,-0.04,0.10,0.94,-0.37,-0.03,-0.60,
0.005,-0.04,0.11,0.94,-0.37,-0.03,-0.60,
0.005,-0.03,0.11,0.94,-0.37,-0.03,-0.60,
0.005,-0.03,0.11,0.94,-0.31,0.02,-0.61,
0.008,-0.03,0.11,0.94,-0.31,0.02,-0.61,
0.009,-0.02,0.11,0.95,-0.31,0.02,-0.61,
0.009,-0.02,0.11,0.95,-0.24,0.10,-0.60,
0.011,-0.02,0.11,0.95,-0.24,0.10,-0.60,
0.015,-0.01,0.11,0.96,-0.24,0.10,-0.60,
0.015,-0.01,0.11,0.96,-0.16,0.09,-0.50,
0.017,-0.01,0.10,0.98,-0.16,0.09,-0.50,
0.019,-0.00,0.11,0.98,-0.16,0.09,-0.50,
0.02,-0.00,0.11,0.98,-0.07,0.10,-0.40,
0.023,-0.00,0.11,0.98,-0.07,0.10,-0.40,
0.024,-0.00,0.11,0.99,-0.07,0.10,-0.40,
0.024,-0.00,0.11,0.99,-0.01,0.07,-0.20,
0.026,0.00,0.11,1.00,-0.01,0.07,-0.20,
0.029,0.00,0.11,1.00,0.04,0.08,-0.09,
0.029,0.00,0.10,1.00,0.04,0.08,-0.09,
0.032,0.01,0.11,1.01,0.04,0.08,-0.09,
0.035,0.01,0.10,1.02,0.04,0.08,-0.09,
0.035,0.01,0.10,1.02,0.11,0.10,0.01,
0.039,0.01,0.11,1.02,0.11,0.10,0.01,
0.039,0.01,0.11,1.02,0.11,0.10,0.01,
0.039,0.01,0.11,1.02,0.14,0.07,0.12,
0.041,0.01,0.11,1.02,0.14,0.07,0.12,
0.044,0.01,0.11,1.03,0.14,0.07,0.12,
0.044,0.01,0.11,1.03,0.14,0.11,0.19,
0.047,0.01,0.11,1.03,0.14,0.11,0.19,
0.049,0.01,0.10,1.04,0.14,0.11,0.19,
0.049,0.01,0.10,1.04,0.17,0.10,0.24,
0.052,0.01,0.11,1.04,0.17,0.10,0.24,
0.055,0.01,0.10,1.04,0.17,0.10,0.24,
0.055,0.01,0.10,1.04,0.17,0.08,0.33,
0.056,0.01,0.10,1.04,0.17,0.08,0.33,
0.059,0.01,0.11,1.04,0.17,0.08,0.33,
0.059,0.01,0.11,1.04,0.16,0.08,0.38,
0.062,0.01,0.10,1.04,0.16,0.08,0.38,
0.064,0.01,0.10,1.04,0.16,0.08,0.38,
0.064,0.01,0.10,1.04,0.13,0.07,0.42,
0.067,0.01,0.10,1.04,0.13,0.07,0.42,
0.069,0.01,0.10,1.04,0.17,0.04,0.38,
0.069,0.01,0.10,1.04,0.17,0.04,0.38,
0.072,0.01,0.10,1.04,0.17,0.04,0.38,
0.074,0.01,0.10,1.03,0.17,0.04,0.38,
0.074,0.01,0.10,1.03,0.16,0.02,0.39,
0.076,0.01,0.10,1.03,0.16,0.02,0.39,
0.079,0.01,0.10,1.03,0.16,-0.00,0.34,
0.079,0.01,0.10,1.02,0.16,-0.00,0.34,
0.081,0.01,0.11,1.02,0.16,-0.00,0.34,
0.084,0.01,0.11,1.01,0.16,-0.00,0.34,
0.084,0.01,0.11,1.01,0.17,0.02,0.25,
0.086,0.01,0.11,1.01,0.17,0.02,0.25,
0.089,0.00,0.11,1.01,0.17,0.02,0.25,
0.089,0.00,0.11,1.01,0.16,0.08,0.13,
0.091,0.00,0.10,1.01,0.16,0.08,0.13,
0.093,0.01,0.10,1.00,0.16,0.08,0.13,
0.094,0.01,0.10,1.00,0.09,0.08,0.10,
0.096,0.01,0.10,1.00,0.09,0.08,0.10,
0.099,0.01,0.10,1.00,0.09,0.03,0.04,
0.099,0.01,0.10,1.00,0.09,0.03,0.04,
0.1,0.01,0.10,1.00,0.09,0.03,0.04,
0.109,0.01,0.09,1.00,0.09,0.03,0.04,
0.109,0.01,0.09,1.00,0.09,-0.01,0.02,
0.11,0.02,0.09,1.00,0.09,-0.01,0.02,
0.11,0.02,0.09,1.01,0.09,-0.01,0.02,
0.11,0.02,0.09,1.01,0.15,-0.05,0.00,
0.11,0.02,0.09,1.01,0.15,-0.05,0.00,
0.113,0.03,0.09,1.01,0.15,-0.05,0.00,
0.113,0.03,0.09,1.01,0.21,-0.06,0.02,
0.115,0.03,0.09,1.02,0.21,-0.06,0.02,
0.118,0.03,0.09,1.02,0.21,-0.06,0.02,
0.118,0.03,0.09,1.02,0.25,-0.10,0.10,
0.122,0.04,0.09,1.02,0.25,-0.10,0.10,
0.123,0.04,0.09,1.03,0.25,-0.10,0.10,
0.124,0.04,0.09,1.03,0.30,-0.13,0.16,
0.125,0.05,0.09,1.03,0.30,-0.13,0.16,
0.129,0.06,0.09,1.02,0.30,-0.13,0.16,
0.129,0.06,0.09,1.02,0.41,-0.14,0.20,
0.131,0.06,0.09,1.03,0.41,-0.14,0.20,
0.133,0.06,0.08,1.03,0.41,-0.14,0.20,
0.134,0.06,0.08,1.03,0.56,-0.13,0.21,
0.136,0.06,0.09,1.03,0.56,-0.13,0.21,
0.138,0.06,0.09,1.05,0.56,-0.13,0.21,
0.138,0.06,0.09,1.05,0.60,-0.14,0.28,
0.141,0.06,0.09,1.04,0.60,-0.14,0.28,
0.143,0.06,0.09,1.04,0.60,-0.13,0.37,
0.143,0.06,0.09,1.04,0.60,-0.13,0.37,
0.145,0.07,0.09,1.05,0.60,-0.13,0.37,
0.148,0.07,0.09,1.05,0.60,-0.13,0.37,
0.148,0.07,0.09,1.05,0.59,-0.11,0.37,
0.151,0.08,0.10,1.05,0.59,-0.11,0.37,
0.153,0.08,0.09,1.04,0.59,-0.11,0.37,
0.153,0.08,0.09,1.04,0.64,-0.08,0.43,
0.156,0.08,0.09,1.05,0.64,-0.08,0.43,
0.158,0.08,0.09,1.04,0.64,-0.08,0.43,
0.161,0.08,0.09,1.04,0.72,-0.03,0.41,
0.162,0.09,0.09,1.05,0.72,-0.03,0.41,
0.162,0.09,0.09,1.05,0.75,-0.06,0.40,
0.163,0.09,0.09,1.05,0.75,-0.06,0.40,
0.165,0.09,0.09,1.04,0.75,-0.06,0.40,
0.168,0.09,0.09,1.04,0.75,-0.06,0.40,
0.168,0.09,0.09,1.04,0.80,-0.08,0.41,
0.17,0.09,0.08,1.04,0.80,-0.08,0.41,
0.174,0.08,0.08,1.05,0.80,-0.08,0.41,
0.175,0.08,0.08,1.05,0.77,-0.12,0.33,
0.175,0.09,0.08,1.04,0.77,-0.12,0.33,
0.178,0.09,0.08,1.04,0.77,-0.12,0.33,
0.178,0.09,0.08,1.04,0.72,-0.18,0.37,
0.182,0.09,0.07,1.04,0.72,-0.18,0.37,
0.182,0.09,0.07,1.02,0.72,-0.18,0.37,
0.183,0.09,0.07,1.02,0.73,-0.22,0.32,
0.185,0.09,0.07,1.03,0.73,-0.22,0.32,
0.192,0.08,0.07,1.03,0.73,-0.22,0.32,
0.193,0.08,0.07,1.03,0.72,-0.24,0.23,
0.193,0.08,0.07,1.02,0.72,-0.24,0.23,
0.193,0.09,0.07,1.02,0.72,-0.24,0.23,
0.193,0.09,0.07,1.02,0.69,-0.28,0.21,
0.196,0.09,0.07,1.01,0.69,-0.28,0.21,
0.198,0.09,0.08,1.00,0.69,-0.28,0.21,
0.198,0.09,0.08,1.00,0.68,-0.28,0.12,
0.2,0.09,0.08,1.00,0.68,-0.28,0.12,
0.203,0.09,0.07,1.00,0.68,-0.28,0.12,
0.203,0.09,0.07,1.00,0.70,-0.24,0.03,
0.204,0.09,0.07,0.99,0.70,-0.24,0.03,
0.207,0.09,0.07,0.99,0.70,-0.22,-0.07,
0.207,0.09,0.07,0.98,0.70,-0.22,-0.07,
0.21,0.08,0.07,0.98,0.70,-0.22,-0.07,
0.213,0.08,0.07,0.98,0.67,-0.27,-0.20,
0.213,0.09,0.07,0.98,0.67,-0.27,-0.20,
0.215,0.09,0.06,0.97,0.67,-0.27,-0.20,
0.218,0.09,0.06,0.96,0.67,-0.27,-0.20,
0.218,0.09,0.06,0.96,0.63,-0.32,-0.26,
0.22,0.09,0.06,0.96,0.63,-0.32,-0.26,
0.223,0.10,0.06,0.96,0.63,-0.32,-0.26,
0.223,0.10,0.06,0.96,0.67,-0.35,-0.40,
0.224,0.09,0.06,0.95,0.67,-0.35,-0.40,
0.227,0.10,0.06,0.96,0.67,-0.35,-0.40,
0.227,0.10,0.06,0.96,0.69,-0.38,-0.41,
0.23,0.10,0.07,0.96,0.69,-0.38,-0.41,
0.233,0.10,0.07,0.96,0.71,-0.35,-0.47,
0.233,0.10,0.06,0.96,0.71,-0.35,-0.47,
0.235,0.10,0.06,0.96,0.71,-0.35,-0.47,
0.237,0.10,0.07,0.96,0.71,-0.35,-0.47,
0.239,0.10,0.07,0.96,0.72,-0.33,-0.43,
0.242,0.11,0.07,0.97,0.72,-0.33,-0.43,
0.242,0.11,0.07,0.96,0.72,-0.33,-0.43,
0.243,0.11,0.07,0.96,0.75,-0.34,-0.39,
0.244,0.11,0.07,0.97,0.75,-0.34,-0.39,
0.247,0.11,0.07,0.97,0.75,-0.34,-0.39,
0.248,0.11,0.07,0.97,0.78,-0.31,-0.35,
0.25,0.11,0.07,0.96,0.78,-0.31,-0.35,
0.252,0.11,0.07,0.96,0.81,-0.31,-0.33,
0.253,0.12,0.07,0.97,0.81,-0.31,-0.33,
0.254,0.12,0.08,0.97,0.81,-0.31,-0.33,
0.257,0.13,0.08,0.97,0.81,-0.31,-0.33,
0.257,0.13,0.08,0.97,0.86,-0.27,-0.35,
0.259,0.13,0.08,0.96,0.86,-0.27,-0.35,
0.262,0.14,0.07,0.95,0.86,-0.27,-0.35,
0.263,0.14,0.07,0.95,0.96,-0.24,-0.33,
0.265,0.14,0.08,0.94,0.96,-0.24,-0.33,
0.267,0.15,0.08,0.94,0.96,-0.24,-0.33,
0.267,0.15,0.08,0.94,1.03,-0.26,-0.46,
0.269,0.15,0.08,0.93,1.03,-0.26,-0.46,
0.273,0.15,0.08,0.93,1.03,-0.26,-0.46,
0.273,0.15,0.08,0.93,1.09,-0.23,-0.59,
0.274,0.15,0.08,0.92,1.09,-0.23,-0.59,
0.277,0.16,0.07,0.91,1.09,-0.23,-0.59,
0.277,0.16,0.07,0.91,1.18,-0.22,-0.70,
0.279,0.15,0.08,0.91,1.18,-0.22,-0.70,
0.282,0.16,0.08,0.91,1.18,-0.22,-0.70,
0.282,0.16,0.08,0.91,1.20,-0.25,-0.85,
0.284,0.16,0.08,0.91,1.20,-0.25,-0.85,
0.287,0.16,0.08,0.90,1.20,-0.25,-0.85,
0.287,0.16,0.08,0.90,1.21,-0.25,-0.89,
0.29,0.17,0.08,0.88,1.21,-0.25,-0.89,
0.291,0.17,0.08,0.88,1.23,-0.24,-0.94,
0.292,0.17,0.08,0.88,1.23,-0.24,-0.94,
0.294,0.17,0.08,0.88,1.23,-0.24,-0.94,
0.297,0.17,0.08,0.87,1.23,-0.24,-0.94,
0.297,0.17,0.08,0.87,1.29,-0.26,-1.12,
0.299,0.17,0.07,0.87,1.29,-0.26,-1.12,
0.302,0.17,0.07,0.86,1.29,-0.26,-1.12,
0.302,0.17,0.07,0.86,1.28,-0.27,-1.19,
0.304,0.18,0.07,0.86,1.28,-0.27,-1.19,
0.306,0.18,0.07,0.86,1.33,-0.35,-1.28,
0.306,0.18,0.07,0.86,1.33,-0.35,-1.28,
0.309,0.18,0.06,0.85,1.33,-0.35,-1.28,
0.312,0.18,0.06,0.85,1.37,-0.39,-1.33,
0.312,0.18,0.06,0.84,1.37,-0.39,-1.33,
0.313,0.18,0.06,0.85,1.37,-0.39,-1.33,
0.316,0.18,0.06,0.85,1.37,-0.39,-1.33,
0.316,0.18,0.06,0.85,1.41,-0.43,-1.43,
0.318,0.18,0.07,0.85,1.41,-0.43,-1.43,
0.326,0.18,0.07,0.85,1.41,-0.43,-1.43,
0.327,0.18,0.07,0.85,1.39,-0.41,-1.41,
0.329,0.17,0.07,0.86,1.39,-0.41,-1.41,
0.329,0.17,0.08,0.86,1.39,-0.41,-1.41,
0.329,0.17,0.08,0.86,1.42,-0.38,-1.39,
0.329,0.16,0.08,0.86,1.42,-0.38,-1.39,
0.331,0.16,0.08,0.87,1.42,-0.38,-1.39,
0.331,0.16,0.08,0.87,1.32,-0.32,-1.30,
0.333,0.15,0.08,0.87,1.32,-0.32,-1.30,
0.336,0.15,0.08,0.87,1.20,-0.29,-1.20,
0.336,0.14,0.08,0.88,1.20,-0.29,-1.20,
0.339,0.13,0.08,0.88,1.20,-0.29,-1.20,
0.341,0.13,0.09,0.89,1.20,-0.29,-1.20,
0.341,0.13,0.09,0.89,1.10,-0.23,-1.14,
0.343,0.13,0.09,0.89,1.10,-0.23,-1.14,
0.346,0.13,0.09,0.89,0.93,-0.20,-1.01,
0.346,0.12,0.09,0.89,0.93,-0.20,-1.01,
0.348,0.12,0.09,0.90,0.93,-0.20,-1.01,
0.35,0.11,0.09,0.91,0.93,-0.20,-1.01,
0.351,0.11,0.09,0.91,0.84,-0.15,-0.96,
0.353,0.10,0.09,0.91,0.84,-0.15,-0.96,
0.357,0.10,0.09,0.91,0.84,-0.15,-0.96,
0.357,0.10,0.09,0.91,0.77,-0.14,-0.81,
0.358,0.10,0.09,0.90,0.77,-0.14,-0.81,
0.36,0.09,0.08,0.91,0.77,-0.14,-0.81,
0.361,0.09,0.08,0.91,0.65,-0.13,-0.78,
0.363,0.09,0.08,0.90,0.65,-0.13,-0.78,
0.365,0.09,0.08,0.90,0.65,-0.13,-0.78,
0.366,0.09,0.08,0.90,0.57,-0.17,-0.79,
0.368,0.08,0.07,0.90,0.57,-0.17,-0.79,
0.37,0.08,0.07,0.89,0.57,-0.17,-0.79,
0.371,0.08,0.07,0.89,0.47,-0.20,-0.81,
0.374,0.08,0.06,0.88,0.47,-0.20,-0.81,
0.375,0.09,0.06,0.88,0.47,-0.20,-0.81,
0.376,0.09,0.06,0.88,0.43,-0.29,-0.89,
0.378,0.09,0.05,0.89,0.43,-0.29,-0.89,
0.38,0.08,0.05,0.89,0.43,-0.29,-0.89,
0.381,0.08,0.05,0.89,0.44,-0.40,-1.02,
0.383,0.09,0.05,0.88,0.44,-0.40,-1.02,
0.385,0.09,0.04,0.88,0.44,-0.40,-1.02,
0.385,0.09,0.04,0.88,0.42,-0.45,-0.97,
0.389,0.08,0.04,0.88,0.42,-0.45,-0.97,
0.391,0.08,0.04,0.87,0.42,-0.45,-0.97,
0.391,0.08,0.04,0.87,0.46,-0.50,-1.06,
0.392,0.08,0.04,0.88,0.46,-0.50,-1.06,
0.395,0.07,0.04,0.87,0.46,-0.50,-1.06,
0.395,0.07,0.04,0.87,0.40,-0.50,-1.08,
0.398,0.07,0.04,0.87,0.40,-0.50,-1.08,
0.4,0.07,0.04,0.88,0.40,-0.50,-1.08,
0.4,0.07,0.04,0.88,0.31,-0.55,-1.05,
0.402,0.07,0.03,0.89,0.31,-0.55,-1.05,
0.406,0.08,0.03,0.89,0.31,-0.55,-1.05,
0.406,0.08,0.03,0.89,0.30,-0.55,-1.09,
0.407,0.08,0.03,0.89,0.30,-0.55,-1.09,
0.41,0.07,0.03,0.89,0.30,-0.55,-1.09,
0.41,0.07,0.03,0.89,0.31,-0.62,-0.93,
0.412,0.07,0.03,0.89,0.31,-0.62,-0.93,
0.415,0.07,0.03,0.89,0.32,-0.62,-0.89,
0.415,0.07,0.03,0.90,0.32,-0.62,-0.89,
0.418,0.07,0.03,0.90,0.32,-0.62,-0.89,
0.42,0.07,0.03,0.90,0.32,-0.57,-0.84,
0.42,0.07,0.04,0.90,0.32,-0.57,-0.84,
0.426,0.07,0.05,0.92,0.32,-0.57,-0.84,
0.426,0.07,0.05,0.92,0.32,-0.57,-0.84,
0.427,0.07,0.05,0.92,0.30,-0.53,-0.78,
0.427,0.07,0.05,0.92,0.30,-0.53,-0.78,
0.43,0.06,0.06,0.93,0.30,-0.53,-0.78,
0.43,0.06,0.06,0.93,0.28,-0.41,-0.62,
0.433,0.07,0.06,0.93,0.28,-0.41,-0.62,
0.435,0.07,0.07,0.93,0.28,-0.41,-0.62,
0.435,0.07,0.07,0.93,0.27,-0.32,-0.57,
0.437,0.07,0.07,0.92,0.27,-0.32,-0.57,
0.44,0.07,0.07,0.92,0.27,-0.32,-0.57,
0.44,0.07,0.07,0.92,0.31,-0.21,-0.54,
0.442,0.06,0.07,0.92,0.31,-0.21,-0.54,
0.445,0.06,0.07,0.92,0.31,-0.21,-0.54,
0.445,0.06,0.07,0.92,0.32,-0.16,-0.58,
0.447,0.06,0.07,0.91,0.32,-0.16,-0.58,
0.45,0.05,0.07,0.91,0.32,-0.16,-0.58,
0.45,0.05,0.07,0.91,0.27,-0.13,-0.61,
0.452,0.06,0.07,0.90,0.27,-0.13,-0.61,
0.456,0.05,0.07,0.90,0.27,-0.13,-0.61,
0.457,0.05,0.07,0.90,0.23,-0.13,-0.70,
0.458,0.05,0.07,0.89,0.23,-0.13,-0.70,
0.46,0.04,0.06,0.89,0.23,-0.13,-0.70,
0.46,0.04,0.06,0.89,0.21,-0.15,-0.79,
0.462,0.04,0.07,0.88,0.21,-0.15,-0.79,
0.465,0.03,0.07,0.88,0.21,-0.15,-0.79,
0.465,0.03,0.07,0.88,0.10,-0.16,-0.88,
0.467,0.02,0.07,0.88,0.10,-0.16,-0.88,
0.47,0.02,0.07,0.88,0.10,-0.16,-0.88,
0.471,0.02,0.07,0.88,-0.03,-0.15,-0.98,
0.473,0.02,0.07,0.87,-0.03,-0.15,-0.98,
0.475,0.02,0.07,0.86,-0.03,-0.15,-0.98,
0.475,0.02,0.07,0.86,-0.16,-0.12,-0.99,
0.477,0.01,0.07,0.86,-0.16,-0.12,-0.99,
0.479,0.01,0.08,0.86,-0.16,-0.12,-0.99,
0.48,0.01,0.08,0.86,-0.19,-0.08,-1.10,
0.482,0.01,0.08,0.86,-0.19,-0.08,-1.10,
0.485,0.00,0.08,0.86,-0.19,-0.08,-1.10,
0.485,0.00,0.08,0.86,-0.21,-0.02,-1.15,
0.486,-0.00,0.08,0.86,-0.21,-0.02,-1.15,
0.492,-0.01,0.09,0.85,-0.21,-0.02,-1.15,
0.492,-0.01,0.09,0.85,-0.29,0.04,-1.20,
0.492,-0.02,0.09,0.86,-0.29,0.04,-1.20,
0.494,-0.02,0.09,0.87,-0.29,0.04,-1.20,
0.495,-0.02,0.09,0.87,-0.39,0.09,-1.20,
0.497,-0.01,0.09,0.87,-0.39,0.09,-1.20,
0.501,-0.02,0.08,0.89,-0.39,0.09,-1.20,
0.501,-0.02,0.08,0.89,-0.47,0.15,-1.09,
0.502,-0.02,0.08,0.89,-0.47,0.15,-1.09,
0.505,-0.02,0.07,0.90,-0.47,0.15,-1.09,
0.505,-0.02,0.07,0.90,-0.46,0.10,-0.94,
0.508,-0.02,0.07,0.91,-0.46,0.10,-0.94,
0.509,-0.02,0.07,0.92,-0.46,0.10,-0.94,
0.509,-0.02,0.07,0.92,-0.49,0.05,-0.78,
0.512,-0.03,0.07,0.93,-0.49,0.05,-0.78,
0.515,-0.03,0.07,0.93,-0.49,0.05,-0.78,
0.515,-0.03,0.07,0.93,-0.47,-0.03,-0.60,
0.516,-0.03,0.06,0.93,-0.47,-0.03,-0.60,
0.519,-0.03,0.06,0.94,-0.47,-0.03,-0.60,
0.519,-0.03,0.06,0.94,-0.51,-0.03,-0.49,
0.521,-0.04,0.06,0.94,-0.51,-0.03,-0.49,
0.524,-0.04,0.06,0.95,-0.51,-0.03,-0.49,
0.525,-0.04,0.06,0.95,-0.54,-0.06,-0.40,
0.526,-0.04,0.06,0.95,-0.54,-0.06,-0.40,
0.529,-0.04,0.06,0.95,-0.54,-0.06,-0.40,
0.53,-0.04,0.06,0.95,-0.60,-0.08,-0.28,
0.532,-0.05,0.05,0.96,-0.60,-0.08,-0.28,
0.534,-0.05,0.05,0.95,-0.60,-0.08,-0.28,
0.535,-0.05,0.05,0.95,-0.61,-0.07,-0.22,
0.537,-0.05,0.05,0.94,-0.61,-0.07,-0.22,
0.543,-0.05,0.05,0.94,-0.61,-0.07,-0.22,
0.543,-0.05,0.05,0.94,-0.65,-0.11,-0.22,
0.543,-0.05,0.05,0.94,-0.65,-0.11,-0.22,
0.544,-0.05,0.05,0.93,-0.65,-0.11,-0.22,
0.544,-0.05,0.05,0.93,-0.65,-0.14,-0.32,
0.546,-0.05,0.05,0.93,-0.65,-0.14,-0.32,
0.549,-0.05,0.05,0.93,-0.65,-0.14,-0.32,
0.549,-0.05,0.05,0.93,-0.63,-0.12,-0.40,
0.552,-0.05,0.05,0.92,-0.63,-0.12,-0.40,
0.554,-0.04,0.05,0.91,-0.63,-0.12,-0.40,
0.554,-0.04,0.05,0.91,-0.64,-0.10,-0.46,
0.556,-0.04,0.05,0.90,-0.64,-0.10,-0.46,
0.559,-0.04,0.06,0.89,-0.64,-0.10,-0.46,
0.559,-0.04,0.06,0.89,-0.58,-0.10,-0.59,
0.561,-0.04,0.06,0.88,-0.58,-0.10,-0.59,
0.564,-0.03,0.06,0.88,-0.58,-0.10,-0.59,
0.564,-0.03,0.06,0.88,-0.53,-0.09,-0.77,
0.566,-0.03,0.05,0.88,-0.53,-0.09,-0.77,
0.569,-0.03,0.05,0.88,-0.45,-0.06,-0.90,
0.57,-0.03,0.05,0.87,-0.45,-0.06,-0.90,
0.571,-0.02,0.05,0.87,-0.45,-0.06,-0.90,
0.574,-0.02,0.06,0.85,-0.45,-0.06,-0.90,
0.574,-0.02,0.06,0.85,-0.39,-0.08,-0.99,
0.576,-0.01,0.06,0.85,-0.39,-0.08,-0.99,
0.579,-0.01,0.06,0.86,-0.39,-0.08,-0.99,
0.579,-0.01,0.06,0.86,-0.28,-0.06,-1.12,
0.582,-0.01,0.06,0.86,-0.28,-0.06,-1.12,
0.584,-0.01,0.06,0.86,-0.28,-0.06,-1.12,
0.584,-0.01,0.06,0.86,-0.20,-0.04,-1.13,
0.586,-0.01,0.07,0.86,-0.20,-0.04,-1.13,
0.589,-0.00,0.07,0.87,-0.20,-0.04,-1.13,
0.589,-0.00,0.07,0.87,-0.16,0.00,-1.11,
0.591,-0.01,0.07,0.88,-0.16,0.00,-1.11,
0.593,-0.02,0.07,0.87,-0.16,0.00,-1.11,
0.594,-0.02,0.07,0.87,-0.11,0.11,-1.03,
0.597,-0.02,0.06,0.88,-0.11,0.11,-1.03,
0.599,-0.02,0.06,0.89,-0.11,0.11,-1.03,
0.599,-0.02,0.06,0.89,-0.18,0.09,-0.93,
0.601,-0.02,0.06,0.88,-0.18,0.09,-0.93,
0.604,-0.03,0.06,0.88,-0.18,0.09,-0.93,
0.604,-0.03,0.06,0.88,-0.28,0.00,-0.88,
0.608,-0.03,0.07,0.89,-0.28,0.00,-0.88,
0.608,-0.04,0.07,0.89,-0.28,0.00,-0.88,
0.609,-0.04,0.07,0.89,-0.30,0.05,-0.87,
0.611,-0.05,0.06,0.88,-0.30,0.05,-0.87,
0.614,-0.05,0.06,0.88,-0.41,0.07,-0.84,
0.614,-0.07,0.06,0.89,-0.41,0.07,-0.84,
0.616,-0.08,0.06,0.90,-0.41,0.07,-0.84,
0.618,-0.09,0.05,0.90,-0.41,0.07,-0.84,
0.618,-0.09,0.05,0.90,-0.65,0.03,-0.83,
0.621,-0.10,0.06,0.90,-0.65,0.03,-0.83,
0.624,-0.11,0.06,0.90,-0.65,0.03,-0.83,
0.625,-0.11,0.06,0.90,-0.91,0.00,-0.72,
0.625,-0.11,0.06,0.89,-0.91,0.00,-0.72,
0.629,-0.11,0.06,0.89,-0.91,0.00,-0.72,
0.629,-0.11,0.06,0.89,-1.06,0.01,-0.72,
0.631,-0.12,0.05,0.89,-1.06,0.01,-0.72,
0.633,-0.12,0.05,0.89,-1.06,0.01,-0.72,
0.634,-0.12,0.05,0.89,-1.15,0.03,-0.76,
0.636,-0.12,0.04,0.88,-1.15,0.03,-0.76,
0.638,-0.13,0.04,0.87,-1.15,0.03,-0.76,
0.638,-0.13,0.04,0.87,-1.21,-0.03,-0.83,
0.645,-0.13,0.04,0.87,-1.21,-0.03,-0.83,
0.645,-0.13,0.04,0.87,-1.21,-0.03,-0.83,
0.645,-0.13,0.04,0.87,-1.30,-0.11,-0.90,
0.646,-0.14,0.04,0.87,-1.30,-0.11,-0.90,
0.648,-0.14,0.04,0.86,-1.30,-0.11,-0.90,
0.648,-0.14,0.04,0.86,-1.37,-0.14,-0.98,
0.65,-0.13,0.04,0.86,-1.37,-0.14,-0.98,
0.653,-0.13,0.04,0.86,-1.37,-0.14,-0.98,
0.655,-0.13,0.04,0.86,-1.43,-0.15,-1.03,
0.656,-0.13,0.03,0.86,-1.43,-0.15,-1.03,
0.658,-0.13,0.03,0.86,-1.43,-0.15,-1.03,
0.659,-0.13,0.03,0.86,-1.40,-0.14,-1.06,
0.66,-0.12,0.03,0.86,-1.40,-0.14,-1.06,
0.662,-0.12,0.03,0.85,-1.40,-0.14,-1.06,
0.663,-0.12,0.03,0.85,-1.37,-0.22,-1.09,
0.665,-0.10,0.03,0.83,-1.37,-0.22,-1.09,
0.667,-0.10,0.03,0.83,-1.37,-0.22,-1.09,
0.668,-0.10,0.03,0.83,-1.27,-0.21,-1.15,
0.67,-0.09,0.02,0.83,-1.27,-0.21,-1.15,
0.676,-0.08,0.02,0.83,-1.27,-0.21,-1.15,
0.676,-0.08,0.02,0.83,-1.07,-0.26,-1.32,
0.677,-0.07,0.02,0.83,-1.07,-0.26,-1.32,
0.678,-0.07,0.02,0.82,-1.07,-0.26,-1.32,
0.678,-0.07,0.02,0.82,-0.93,-0.31,-1.35,
0.68,-0.06,0.03,0.82,-0.93,-0.31,-1.35,
0.682,-0.06,0.03,0.83,-0.93,-0.31,-1.35,
0.682,-0.06,0.03,0.83,-0.75,-0.31,-1.42,
0.685,-0.05,0.03,0.83,-0.75,-0.31,-1.42,
0.688,-0.05,0.03,0.83,-0.66,-0.27,-1.38,
0.688,-0.06,0.03,0.82,-0.66,-0.27,-1.38,
0.69,-0.05,0.03,0.82,-0.66,-0.27,-1.38,
0.694,-0.05,0.03,0.82,-0.66,-0.27,-1.38,
0.694,-0.05,0.03,0.82,-0.57,-0.22,-1.35,
0.694,-0.06,0.04,0.83,-0.57,-0.22,-1.35,
0.697,-0.06,0.04,0.84,-0.57,-0.22,-1.35,
0.697,-0.06,0.04,0.84,-0.55,-0.21,-1.39,
0.7,-0.06,0.03,0.84,-0.55,-0.21,-1.39,
0.703,-0.07,0.03,0.84,-0.55,-0.21,-1.39,
0.704,-0.07,0.03,0.84,-0.56,-0.15,-1.29,
0.704,-0.07,0.03,0.84,-0.56,-0.15,-1.29,
0.709,-0.08,0.03,0.84,-0.56,-0.15,-1.29,
0.71,-0.08,0.03,0.84,-0.62,-0.23,-1.23,
0.71,-0.07,0.02,0.85,-0.62,-0.23,-1.23,
0.712,-0.08,0.02,0.85,-0.62,-0.23,-1.23,
0.712,-0.08,0.02,0.85,-0.70,-0.25,-1.18,
0.714,-0.09,0.02,0.85,-0.70,-0.25,-1.18,
0.717,-0.09,0.02,0.86,-0.70,-0.25,-1.18,
0.717,-0.09,0.02,0.86,-0.69,-0.28,-1.15,
0.72,-0.10,0.02,0.86,-0.69,-0.28,-1.15,
0.722,-0.10,0.02,0.87,-0.69,-0.28,-1.15,
0.722,-0.10,0.02,0.87,-0.81,-0.29,-1.05,
0.726,-0.11,0.02,0.87,-0.81,-0.29,-1.05,
0.727,-0.11,0.02,0.88,-0.81,-0.29,-1.05,
0.727,-0.11,0.02,0.88,-0.91,-0.28,-0.95,
0.729,-0.12,0.01,0.88,-0.91,-0.28,-0.95,
0.732,-0.12,0.02,0.89,-0.91,-0.28,-0.95,
0.732,-0.12,0.02,0.89,-0.99,-0.29,-0.86,
0.734,-0.12,0.02,0.89,-0.99,-0.29,-0.86,
0.737,-0.12,0.01,0.89,-0.99,-0.29,-0.86,
0.737,-0.12,0.01,0.89,-1.08,-0.32,-0.75,
0.746,-0.13,0.01,0.88,-1.08,-0.32,-0.75,
0.747,-0.13,0.01,0.89,-1.08,-0.32,-0.75,
0.747,-0.13,0.01,0.89,-1.10,-0.29,-0.71,
0.747,-0.14,0.01,0.89,-1.10,-0.29,-0.71,
0.749,-0.14,0.01,0.89,-1.10,-0.29,-0.71,
0.749,-0.14,0.01,0.89,-1.18,-0.29,-0.73,
0.749,-0.15,0.01,0.90,-1.18,-0.29,-0.73,
0.752,-0.15,0.01,0.90,-1.18,-0.29,-0.73,
0.752,-0.15,0.01,0.90,-1.32,-0.30,-0.67,
0.754,-0.15,0.01,0.90,-1.32,-0.30,-0.67,
0.757,-0.15,0.01,0.91,-1.32,-0.30,-0.67,
0.757,-0.15,0.01,0.91,-1.35,-0.30,-0.63,
0.76,-0.16,0.01,0.91,-1.35,-0.30,-0.63,
0.761,-0.17,0.01,0.91,-1.35,-0.30,-0.63,
0.762,-0.17,0.01,0.91,-1.36,-0.26,-0.57,
0.764,-0.17,0.01,0.92,-1.36,-0.26,-0.57,
0.767,-0.18,0.01,0.91,-1.36,-0.26,-0.57,
0.767,-0.18,0.01,0.91,-1.51,-0.23,-0.49,
0.769,-0.19,0.01,0.91,-1.51,-0.23,-0.49,
0.771,-0.20,0.01,0.91,-1.51,-0.23,-0.49,
0.771,-0.20,0.01,0.91,-1.64,-0.20,-0.45,
0.774,-0.20,0.01,0.92,-1.64,-0.20,-0.45,
0.776,-0.20,-0.00,0.92,-1.64,-0.20,-0.45,
0.777,-0.20,-0.00,0.92,-1.78,-0.24,-0.50,
0.779,-0.21,-0.00,0.92,-1.78,-0.24,-0.50,
0.781,-0.21,-0.01,0.93,-1.78,-0.24,-0.50,
0.782,-0.21,-0.01,0.93,-1.86,-0.25,-0.44,
0.783,-0.21,-0.01,0.94,-1.86,-0.25,-0.44,
0.786,-0.21,-0.01,0.95,-1.86,-0.25,-0.44,
0.786,-0.21,-0.01,0.95,-1.91,-0.32,-0.34,
0.788,-0.22,-0.01,0.94,-1.91,-0.32,-0.34,
0.792,-0.22,-0.01,0.94,-1.91,-0.32,-0.34,
0.793,-0.22,-0.01,0.94,-1.94,-0.30,-0.16,
0.793,-0.23,-0.01,0.96,-1.94,-0.30,-0.16,
0.796,-0.23,-0.01,0.97,-1.94,-0.30,-0.16,
0.797,-0.23,-0.01,0.97,-1.98,-0.32,-0.19,
0.798,-0.24,-0.01,0.97,-1.98,-0.32,-0.19,
0.801,-0.24,-0.01,0.98,-1.98,-0.32,-0.19,
0.801,-0.24,-0.01,0.98,-2.05,-0.31,0.03,
0.803,-0.24,-0.01,0.99,-2.05,-0.31,0.03,
0.809,-0.24,-0.02,1.01,-2.05,-0.31,0.03,
0.81,-0.24,-0.02,1.01,-2.14,-0.25,0.15,
0.81,-0.25,-0.02,1.02,-2.14,-0.25,0.15,
0.811,-0.26,-0.03,1.03,-2.14,-0.25,0.15,
0.811,-0.26,-0.03,1.03,-2.12,-0.28,0.41,
0.813,-0.27,-0.04,1.02,-2.12,-0.28,0.41,
0.816,-0.28,-0.05,1.02,-2.12,-0.28,0.41,
0.816,-0.28,-0.05,1.02,-2.24,-0.38,0.60,
0.82,-0.28,-0.05,1.02,-2.24,-0.38,0.60,
0.821,-0.30,-0.05,1.02,-2.24,-0.38,0.60,
0.822,-0.30,-0.05,1.02,-2.39,-0.52,0.61,
0.825,-0.30,-0.06,1.03,-2.39,-0.52,0.61,
0.826,-0.30,-0.06,1.02,-2.39,-0.52,0.61,
0.827,-0.30,-0.06,1.02,-2.56,-0.55,0.60,
0.829,-0.31,-0.06,1.03,-2.56,-0.55,0.60,
0.831,-0.32,-0.06,1.02,-2.56,-0.55,0.60,
0.832,-0.32,-0.06,1.02,-2.67,-0.59,0.61,
0.833,-0.32,-0.07,1.02,-2.67,-0.59,0.61,
0.837,-0.33,-0.07,1.02,-2.67,-0.59,0.61,
0.837,-0.33,-0.07,1.02,-2.78,-0.59,0.61,
0.838,-0.33,-0.06,1.01,-2.78,-0.59,0.61,
0.841,-0.33,-0.06,1.01,-2.91,-0.59,0.55,
0.841,-0.34,-0.07,1.00,-2.91,-0.59,0.55,
0.843,-0.34,-0.07,1.00,-2.91,-0.59,0.55,
0.846,-0.34,-0.07,1.00,-2.91,-0.59,0.55,
0.846,-0.34,-0.07,1.00,-3.00,-0.54,0.44,
0.849,-0.34,-0.07,1.00,-3.00,-0.54,0.44,
0.851,-0.33,-0.08,1.01,-3.00,-0.54,0.44,
0.851,-0.33,-0.08,1.01,-3.04,-0.56,0.38,
0.854,-0.33,-0.07,1.01,-3.04,-0.56,0.38,
0.856,-0.33,-0.07,1.01,-3.04,-0.56,0.38,
0.856,-0.33,-0.07,1.01,-2.96,-0.58,0.40,
0.861,-0.32,-0.06,1.00,-2.96,-0.58,0.40,
0.861,-0.32,-0.06,1.01,-2.96,-0.58,0.40,
0.861,-0.32,-0.06,1.01,-2.89,-0.47,0.42,
0.863,-0.31,-0.06,1.02,-2.89,-0.47,0.42,
0.866,-0.31,-0.05,1.03,-2.89,-0.47,0.42,
0.866,-0.31,-0.05,1.03,-2.79,-0.36,0.43,
0.868,-0.30,-0.05,1.04,-2.79,-0.36,0.43,
0.871,-0.30,-0.04,1.05,-2.79,-0.36,0.43,
0.871,-0.30,-0.04,1.05,-2.67,-0.28,0.61,
0.873,-0.30,-0.04,1.07,-2.67,-0.28,0.61,
0.875,-0.29,-0.03,1.09,-2.67,-0.28,0.61,
0.876,-0.29,-0.03,1.09,-2.61,-0.13,0.80,
0.878,-0.29,-0.03,1.10,-2.61,-0.13,0.80,
0.881,-0.29,-0.03,1.12,-2.61,-0.13,0.80,
0.881,-0.29,-0.03,1.12,-2.51,-0.00,1.14,
0.883,-0.29,-0.02,1.13,-2.51,-0.00,1.14,
0.886,-0.29,-0.03,1.15,-2.51,-0.00,1.14,
0.886,-0.29,-0.03,1.15,-2.45,0.10,1.46,
0.888,-0.29,-0.03,1.18,-2.45,0.10,1.46,
0.892,-0.30,-0.04,1.18,-2.45,0.10,1.46,
0.893,-0.30,-0.04,1.18,-2.40,0.18,1.77,
0.893,-0.31,-0.05,1.20,-2.40,0.18,1.77,
0.896,-0.31,-0.06,1.20,-2.40,0.18,1.77,
0.896,-0.31,-0.06,1.20,-2.41,0.10,2.11,
0.898,-0.32,-0.07,1.21,-2.41,0.10,2.11,
0.901,-0.32,-0.08,1.21,-2.41,0.10,2.11,
0.901,-0.32,-0.08,1.21,-2.56,-0.04,2.30,
0.903,-0.32,-0.08,1.21,-2.56,-0.04,2.30,
0.906,-0.32,-0.08,1.21,-2.56,-0.04,2.30,
0.906,-0.32,-0.08,1.21,-2.62,-0.19,2.38,
0.91,-0.32,-0.09,1.20,-2.62,-0.19,2.38,
0.91,-0.32,-0.09,1.20,-2.62,-0.19,2.38,
0.911,-0.32,-0.09,1.20,-2.65,-0.23,2.37,
0.913,-0.32,-0.08,1.20,-2.65,-0.23,2.37,
0.916,-0.32,-0.08,1.19,-2.65,-0.23,2.37,
0.916,-0.32,-0.08,1.19,-2.63,-0.23,2.33,
0.918,-0.32,-0.08,1.19,-2.63,-0.23,2.33,
0.921,-0.33,-0.08,1.19,-2.63,-0.23,2.33,
0.921,-0.33,-0.08,1.19,-2.61,-0.17,2.25,
0.923,-0.33,-0.08,1.19,-2.61,-0.17,2.25,
0.926,-0.34,-0.08,1.19,-2.61,-0.17,2.25,
0.926,-0.34,-0.08,1.19,-2.64,-0.11,2.21,
0.928,-0.35,-0.09,1.18,-2.64,-0.11,2.21,
0.931,-0.35,-0.08,1.18,-2.64,-0.11,2.21,
0.931,-0.35,-0.08,1.18,-2.74,-0.08,2.21,
0.932,-0.36,-0.08,1.17,-2.74,-0.08,2.21,
0.935,-0.36,-0.10,1.17,-2.74,-0.08,2.21,
0.936,-0.36,-0.10,1.17,-2.82,-0.08,2.06,
0.938,-0.36,-0.09,1.17,-2.82,-0.08,2.06,
0.94,-0.37,-0.09,1.16,-2.82,-0.08,2.06,
0.941,-0.37,-0.09,1.16,-2.92,-0.11,2.00,
0.943,-0.37,-0.10,1.15,-2.92,-0.11,2.00,
0.945,-0.37,-0.10,1.15,-2.92,-0.11,2.00,
0.945,-0.37,-0.10,1.15,-2.96,-0.12,1.93,
0.947,-0.37,-0.10,1.15,-2.96,-0.12,1.93,
0.95,-0.38,-0.10,1.15,-2.96,-0.12,1.93,
0.95,-0.38,-0.10,1.15,-3.02,-0.14,1.79,
0.952,-0.37,-0.09,1.14,-3.02,-0.14,1.79,
0.954,-0.37,-0.09,1.15,-3.02,-0.14,1.79,
0.955,-0.37,-0.09,1.15,-3.05,-0.10,1.76,
0.958,-0.38,-0.08,1.14,-3.05,-0.10,1.76,
0.959,-0.37,-0.08,1.14,-3.05,-0.10,1.76,
0.96,-0.37,-0.08,1.14,-3.02,-0.01,1.70,
0.962,-0.37,-0.08,1.13,-3.02,-0.01,1.70,
0.965,-0.36,-0.07,1.14,-3.02,-0.01,1.70,
0.965,-0.36,-0.07,1.14,-2.98,0.12,1.68,
0.967,-0.36,-0.07,1.13,-2.98,0.12,1.68,
0.969,-0.36,-0.07,1.13,-2.89,0.20,1.64,
0.969,-0.35,-0.07,1.13,-2.89,0.20,1.64,
0.972,-0.34,-0.07,1.12,-2.89,0.20,1.64,
0.979,-0.34,-0.07,1.13,-2.89,0.20,1.64,
0.979,-0.34,-0.07,1.13,-2.78,0.29,1.56,
0.98,-0.32,-0.06,1.12,-2.78,0.29,1.56,
0.98,-0.31,-0.06,1.13,-2.78,0.29,1.56,
0.98,-0.31,-0.06,1.13,-2.63,0.31,1.51,
0.982,-0.31,-0.06,1.12,-2.63,0.31,1.51,
0.984,-0.29,-0.06,1.13,-2.63,0.31,1.51,
0.985,-0.29,-0.06,1.13,-2.41,0.37,1.50,
0.988,-0.28,-0.06,1.12,-2.41,0.37,1.50,
0.989,-0.28,-0.06,1.12,-2.41,0.37,1.50,
0.989,-0.28,-0.06,1.12,-2.21,0.45,1.50,
0.992,-0.27,-0.06,1.12,-2.21,0.45,1.50,
0.994,-0.27,-0.07,1.11,-2.21,0.45,1.50,
0.994,-0.27,-0.07,1.11,-1.99,0.46,1.47,
0.997,-0.26,-0.07,1.11,-1.99,0.46,1.47,
0.999,-0.26,-0.08,1.10,-1.99,0.46,1.47,
0.999,-0.26,-0.08,1.10,-1.83,0.42,1.40,
1.001,-0.25,-0.08,1.09,-1.83,0.42,1.40,
1.004,-0.25,-0.08,1.09,-1.83,0.42,1.40,
1.004,-0.25,-0.08,1.09,-1.73,0.35,1.27,
1.006,-0.25,-0.09,1.09,-1.73,0.35,1.27,
1.009,-0.24,-0.10,1.09,-1.73,0.35,1.27,
1.009,-0.24,-0.10,1.09,-1.64,0.29,1.18,
1.011,-0.24,-0.10,1.09,-1.64,0.29,1.18,
1.014,-0.24,-0.10,1.09,-1.64,0.29,1.18,
1.014,-0.24,-0.10,1.09,-1.55,0.19,1.14,
1.016,-0.23,-0.11,1.09,-1.55,0.19,1.14,
1.019,-0.23,-0.11,1.09,-1.45,0.10,1.18,
1.019,-0.23,-0.12,1.09,-1.45,0.10,1.18,
1.021,-0.23,-0.13,1.10,-1.45,0.10,1.18,
1.025,-0.24,-0.14,1.10,-1.45,0.10,1.18,
1.026,-0.24,-0.14,1.10,-1.34,0.02,1.21,
1.026,-0.24,-0.15,1.09,-1.34,0.02,1.21,
1.029,-0.24,-0.16,1.09,-1.34,0.02,1.21,
1.029,-0.24,-0.16,1.09,-1.37,-0.14,1.24,
1.031,-0.24,-0.17,1.09,-1.37,-0.14,1.24,
1.034,-0.24,-0.18,1.09,-1.37,-0.14,1.24,
1.034,-0.24,-0.18,1.09,-1.40,-0.32,1.19,
1.036,-0.24,-0.18,1.09,-1.40,-0.32,1.19,
1.039,-0.24,-0.18,1.09,-1.40,-0.32,1.19,
1.039,-0.24,-0.18,1.09,-1.41,-0.49,1.17,
1.042,-0.24,-0.18,1.09,-1.41,-0.49,1.17,
1.044,-0.24,-0.18,1.09,-1.41,-0.49,1.17,
1.044,-0.24,-0.18,1.09,-1.36,-0.52,1.18,
1.046,-0.24,-0.18,1.09,-1.36,-0.52,1.18,
1.049,-0.24,-0.18,1.09,-1.31,-0.52,1.20,
1.049,-0.25,-0.18,1.09,-1.31,-0.52,1.20,
1.051,-0.25,-0.18,1.09,-1.31,-0.52,1.20,
1.054,-0.25,-0.17,1.09,-1.31,-0.52,1.20,
1.054,-0.25,-0.17,1.09,-1.36,-0.48,1.18,
1.056,-0.25,-0.17,1.08,-1.36,-0.48,1.18,
1.059,-0.25,-0.17,1.08,-1.36,-0.48,1.18,
1.06,-0.25,-0.17,1.08,-1.37,-0.41,1.18,
1.062,-0.25,-0.17,1.08,-1.37,-0.41,1.18,
1.064,-0.25,-0.17,1.07,-1.37,-0.41,1.18,
1.065,-0.25,-0.17,1.07,-1.38,-0.40,1.08,
1.066,-0.25,-0.17,1.07,-1.38,-0.40,1.08,
1.068,-0.25,-0.17,1.07,-1.40,-0.35,1.01,
1.068,-0.25,-0.17,1.07,-1.40,-0.35,1.01,
1.071,-0.25,-0.15,1.06,-1.40,-0.35,1.01,
1.073,-0.25,-0.14,1.05,-1.40,-0.35,1.01,
1.074,-0.25,-0.14,1.05,-1.36,-0.32,0.94,
1.076,-0.25,-0.14,1.04,-1.36,-0.32,0.94,
1.078,-0.25,-0.13,1.04,-1.36,-0.32,0.94,
1.079,-0.25,-0.13,1.04,-1.36,-0.13,0.81,
1.081,-0.25,-0.13,1.03,-1.36,-0.13,0.81,
1.083,-0.25,-0.12,1.03,-1.36,-0.13,0.81,
1.083,-0.25,-0.12,1.03,-1.38,0.01,0.70,
1.085,-0.25,-0.12,1.02,-1.38,0.01,0.70,
1.088,-0.25,-0.12,1.01,-1.38,0.01,0.70,
1.089,-0.25,-0.12,1.01,-1.36,0.14,0.56,
1.09,-0.25,-0.12,1.01,-1.36,0.14,0.56,
1.097,-0.25,-0.12,1.01,-1.36,0.14,0.56,
1.098,-0.25,-0.12,1.01,-1.36,0.19,0.45,
1.098,-0.26,-0.12,1.01,-1.36,0.19,0.45,
1.098,-0.26,-0.13,1.00,-1.36,0.19,0.45,
1.098,-0.26,-0.13,1.00,-1.35,0.18,0.36,
1.101,-0.27,-0.13,1.01,-1.35,0.18,0.36,
1.103,-0.28,-0.14,1.01,-1.35,0.18,0.36,
1.103,-0.28,-0.14,1.01,-1.38,0.16,0.34,
1.105,-0.28,-0.14,1.01,-1.38,0.16,0.34,
1.108,-0.29,-0.15,1.02,-1.38,0.16,0.34,
1.108,-0.29,-0.15,1.02,-1.51,0.07,0.36,
1.111,-0.29,-0.15,1.03,-1.51,0.07,0.36,
1.113,-0.30,-0.16,1.04,-1.51,0.07,0.36,
1.113,-0.30,-0.16,1.04,-1.62,-0.00,0.47,
1.115,-0.30,-0.17,1.05,-1.62,-0.00,0.47,
1.118,-0.30,-0.17,1.05,-1.69,-0.12,0.61,
1.118,-0.30,-0.18,1.06,-1.69,-0.12,0.61,
1.12,-0.30,-0.19,1.06,-1.69,-0.12,0.61,
1.123,-0.30,-0.20,1.07,-1.69,-0.12,0.61,
1.123,-0.30,-0.20,1.07,-1.72,-0.29,0.80,
1.126,-0.29,-0.20,1.08,-1.72,-0.29,0.80,
1.128,-0.29,-0.20,1.09,-1.72,-0.29,0.80,
1.129,-0.29,-0.20,1.09,-1.67,-0.41,0.95,
1.13,-0.29,-0.21,1.10,-1.67,-0.41,0.95,
1.133,-0.28,-0.22,1.10,-1.67,-0.41,0.95,
1.133,-0.28,-0.22,1.10,-1.60,-0.51,1.13,
1.135,-0.27,-0.22,1.10,-1.60,-0.51,1.13,
1.138,-0.26,-0.21,1.11,-1.60,-0.51,1.13,
1.138,-0.26,-0.21,1.11,-1.50,-0.58,1.27,
1.14,-0.25,-0.21,1.11,-1.50,-0.58,1.27,
1.143,-0.24,-0.20,1.11,-1.50,-0.58,1.27,
1.143,-0.24,-0.20,1.11,-1.31,-0.58,1.33,
1.145,-0.22,-0.20,1.10,-1.31,-0.58,1.33,
1.148,-0.21,-0.19,1.11,-1.31,-0.58,1.33,
1.151,-0.21,-0.19,1.11,-1.06,-0.52,1.36,
1.152,-0.20,-0.19,1.11,-1.06,-0.52,1.36,
1.153,-0.19,-0.18,1.10,-1.06,-0.52,1.36,
1.153,-0.19,-0.18,1.10,-0.75,-0.37,1.34,
1.155,-0.18,-0.17,1.09,-0.75,-0.37,1.34,
1.157,-0.17,-0.17,1.09,-0.75,-0.37,1.34,
1.158,-0.17,-0.17,1.09,-0.58,-0.27,1.31,
1.162,-0.17,-0.16,1.09,-0.58,-0.27,1.31,
1.163,-0.17,-0.16,1.08,-0.58,-0.27,1.31,
1.163,-0.17,-0.16,1.08,-0.34,-0.15,1.20,
1.166,-0.17,-0.15,1.08,-0.34,-0.15,1.20,
1.168,-0.17,-0.16,1.07,-0.34,-0.15,1.20,
1.168,-0.17,-0.16,1.07,-0.28,-0.03,1.12,
1.17,-0.18,-0.15,1.07,-0.28,-0.03,1.12,
1.174,-0.18,-0.16,1.07,-0.28,-0.03,1.12,
1.175,-0.18,-0.16,1.07,-0.26,0.00,1.06,
1.175,-0.19,-0.16,1.06,-0.26,0.00,1.06,
1.178,-0.19,-0.16,1.07,-0.26,0.00,1.06,
1.178,-0.19,-0.16,1.07,-0.35,0.00,0.96,
1.18,-0.20,-0.16,1.07,-0.35,0.00,0.96,
1.183,-0.20,-0.16,1.07,-0.43,-0.01,0.93,
1.183,-0.21,-0.16,1.07,-0.43,-0.01,0.93,
1.185,-0.22,-0.17,1.07,-0.43,-0.01,0.93,
1.188,-0.22,-0.17,1.07,-0.43,-0.01,0.93,
1.188,-0.22,-0.17,1.07,-0.58,-0.04,0.97,
1.19,-0.23,-0.17,1.08,-0.58,-0.04,0.97,
1.196,-0.23,-0.17,1.08,-0.58,-0.04,0.97,
1.197,-0.23,-0.17,1.08,-0.72,-0.11,0.97,
1.197,-0.24,-0.18,1.09,-0.72,-0.11,0.97,
1.197,-0.24,-0.19,1.09,-0.72,-0.11,0.97,
1.197,-0.24,-0.19,1.09,-0.77,-0.15,1.07,
1.2,-0.24,-0.20,1.09,-0.77,-0.15,1.07,
1.202,-0.23,-0.21,1.09,-0.77,-0.15,1.07,
1.202,-0.23,-0.21,1.09,-0.82,-0.29,1.18,
1.205,-0.23,-0.21,1.10,-0.82,-0.29,1.18,
1.208,-0.23,-0.22,1.11,-0.82,-0.29,1.18,
1.208,-0.23,-0.22,1.11,-0.80,-0.42,1.20,
1.21,-0.23,-0.22,1.12,-0.80,-0.42,1.20,
1.212,-0.22,-0.22,1.13,-0.80,-0.42,1.20,
1.213,-0.22,-0.22,1.13,-0.74,-0.54,1.32,
1.214,-0.22,-0.22,1.13,-0.74,-0.54,1.32,
1.218,-0.21,-0.23,1.14,-0.74,-0.54,1.32,
1.218,-0.21,-0.23,1.14,-0.68,-0.61,1.50,
1.22,-0.21,-0.23,1.14,-0.68,-0.61,1.50,
1.223,-0.20,-0.23,1.15,-0.68,-0.61,1.50,
1.223,-0.20,-0.23,1.15,-0.57,-0.60,1.57,
1.225,-0.19,-0.23,1.15,-0.57,-0.60,1.57,
1.227,-0.18,-0.24,1.15,-0.57,-0.60,1.57,
1.227,-0.18,-0.24,1.15,-0.43,-0.70,1.68,
1.229,-0.18,-0.24,1.16,-0.43,-0.70,1.68,
1.232,-0.18,-0.24,1.16,-0.25,-0.69,1.79,
1.233,-0.18,-0.24,1.16,-0.25,-0.69,1.79,
1.235,-0.18,-0.24,1.16,-0.25,-0.69,1.79,
1.237,-0.16,-0.25,1.15,-0.25,-0.69,1.79,
1.238,-0.16,-0.25,1.15,-0.14,-0.78,1.83,
1.24,-0.16,-0.25,1.15,-0.14,-0.78,1.83,
1.242,-0.15,-0.25,1.15,-0.14,-0.78,1.83,
1.243,-0.15,-0.25,1.15,-0.07,-0.80,1.80,
1.245,-0.14,-0.25,1.15,-0.07,-0.80,1.80,
1.247,-0.13,-0.25,1.15,-0.07,-0.80,1.80,
1.247,-0.13,-0.25,1.15,0.12,-0.85,1.78,
1.249,-0.13,-0.26,1.15,0.12,-0.85,1.78,
1.252,-0.12,-0.25,1.14,0.12,-0.85,1.78,
1.253,-0.12,-0.25,1.14,0.28,-0.86,1.76,
1.255,-0.12,-0.26,1.14,0.28,-0.86,1.76,
1.257,-0.12,-0.26,1.14,0.41,-0.87,1.72,
1.258,-0.12,-0.26,1.14,0.41,-0.87,1.72,
1.259,-0.12,-0.26,1.14,0.41,-0.87,1.72,
1.262,-0.12,-0.26,1.13,0.41,-0.87,1.72,
1.262,-0.12,-0.26,1.13,0.47,-0.90,1.68,
1.264,-0.12,-0.26,1.12,0.47,-0.90,1.68,
1.267,-0.12,-0.26,1.12,0.48,-0.90,1.56,
1.267,-0.11,-0.26,1.12,0.48,-0.90,1.56,
1.269,-0.11,-0.25,1.11,0.48,-0.90,1.56,
1.272,-0.10,-0.25,1.11,0.48,-0.90,1.56,
1.272,-0.10,-0.25,1.11,0.52,-0.90,1.45,
1.274,-0.10,-0.25,1.11,0.52,-0.90,1.45,
1.277,-0.10,-0.24,1.11,0.52,-0.90,1.45,
1.278,-0.10,-0.24,1.11,0.58,-0.85,1.37,
1.279,-0.09,-0.24,1.11,0.58,-0.85,1.37,
1.282,-0.09,-0.23,1.11,0.58,-0.85,1.37,
1.282,-0.09,-0.23,1.11,0.63,-0.76,1.33,
1.284,-0.09,-0.23,1.11,0.63,-0.76,1.33,
1.287,-0.09,-0.23,1.11,0.63,-0.76,1.33,
1.287,-0.09,-0.23,1.11,0.72,-0.67,1.33,
1.288,-0.09,-0.23,1.11,0.72,-0.67,1.33,
1.291,-0.09,-0.23,1.11,0.73,-0.62,1.34,
1.291,-0.10,-0.23,1.11,0.73,-0.62,1.34,
1.294,-0.09,-0.23,1.11,0.73,-0.62,1.34,
1.297,-0.09,-0.23,1.12,0.73,-0.62,1.34,
1.297,-0.09,-0.23,1.12,0.72,-0.63,1.36,
1.298,-0.09,-0.23,1.11,0.72,-0.63,1.36,
1.301,-0.09,-0.23,1.11,0.72,-0.63,1.36,
1.301,-0.09,-0.23,1.11,0.73,-0.66,1.39,
1.303,-0.10,-0.23,1.12,0.73,-0.66,1.39,
1.306,-0.09,-0.23,1.12,0.73,-0.66,1.39,
1.306,-0.09,-0.23,1.12,0.76,-0.67,1.33,
1.308,-0.09,-0.23,1.11,0.76,-0.67,1.33,
1.316,-0.09,-0.23,1.11,0.76,-0.67,1.33,
1.317,-0.09,-0.23,1.11,0.72,-0.65,1.38,
1.319,-0.09,-0.23,1.11,0.72,-0.65,1.38,
1.319,-0.10,-0.22,1.10,0.72,-0.65,1.38,
1.319,-0.10,-0.22,1.10,0.77,-0.62,1.33,
1.319,-0.10,-0.22,1.10,0.77,-0.62,1.33,
1.321,-0.10,-0.22,1.09,0.77,-0.62,1.33,
1.321,-0.10,-0.22,1.09,0.75,-0.59,1.25,
1.323,-0.10,-0.22,1.08,0.75,-0.59,1.25,
1.327,-0.11,-0.22,1.07,0.75,-0.59,1.25,
1.327,-0.11,-0.22,1.07,0.67,-0.60,1.17,
1.328,-0.11,-0.22,1.06,0.67,-0.60,1.17,
1.331,-0.11,-0.21,1.05,0.67,-0.60,1.17,
1.331,-0.11,-0.21,1.05,0.63,-0.55,0.98,
1.333,-0.11,-0.21,1.05,0.63,-0.55,0.98,
1.336,-0.11,-0.21,1.05,0.58,-0.51,0.78,
1.336,-0.11,-0.20,1.04,0.58,-0.51,0.78,
1.338,-0.11,-0.20,1.02,0.58,-0.51,0.78,
1.341,-0.10,-0.20,1.01,0.58,-0.51,0.78,
1.341,-0.10,-0.20,1.01,0.58,-0.43,0.63,
1.344,-0.10,-0.20,1.01,0.58,-0.43,0.63,
1.346,-0.09,-0.19,1.00,0.58,-0.43,0.63,
1.346,-0.09,-0.19,1.00,0.65,-0.38,0.40,
1.348,-0.08,-0.19,1.00,0.65,-0.38,0.40,
1.351,-0.08,-0.19,0.99,0.65,-0.38,0.40,
1.351,-0.08,-0.19,0.99,0.75,-0.34,0.26,
1.353,-0.07,-0.19,0.99,0.75,-0.34,0.26,
1.355,-0.07,-0.19,0.99,0.75,-0.34,0.26,
1.356,-0.07,-0.19,0.99,0.86,-0.31,0.17,
1.358,-0.06,-0.19,0.99,0.86,-0.31,0.17,
1.36,-0.05,-0.18,0.99,0.86,-0.31,0.17,
1.361,-0.05,-0.18,0.99,0.95,-0.32,0.11,
1.363,-0.05,-0.18,0.99,0.95,-0.32,0.11,
1.366,-0.04,-0.18,0.99,0.95,-0.32,0.11,
1.366,-0.04,-0.18,0.99,1.06,-0.27,0.09,
1.368,-0.03,-0.17,1.00,1.06,-0.27,0.09,
1.37,-0.03,-0.17,1.00,1.22,-0.19,0.10,
1.371,-0.03,-0.17,1.00,1.22,-0.19,0.10,
1.373,-0.02,-0.17,1.00,1.22,-0.19,0.10,
1.375,-0.02,-0.16,1.00,1.22,-0.19,0.10,
1.376,-0.02,-0.16,1.00,1.35,-0.13,0.18,
1.379,-0.03,-0.16,1.00,1.35,-0.13,0.18,
1.38,-0.03,-0.16,0.99,1.35,-0.13,0.18,
1.38,-0.03,-0.16,0.99,1.41,-0.07,0.18,
1.383,-0.03,-0.16,0.99,1.41,-0.07,0.18,
1.385,-0.03,-0.17,0.99,1.41,-0.07,0.18,
1.386,-0.03,-0.17,0.99,1.36,-0.08,0.15,
1.387,-0.03,-0.17,0.99,1.36,-0.08,0.15,
1.39,-0.02,-0.16,0.98,1.36,-0.08,0.15,
1.39,-0.02,-0.16,0.98,1.36,-0.09,0.11,
1.394,-0.02,-0.16,0.99,1.36,-0.09,0.11,
1.395,-0.02,-0.16,0.99,1.36,-0.09,0.11,
1.395,-0.02,-0.16,0.99,1.40,-0.09,0.06,
1.397,-0.01,-0.15,0.98,1.40,-0.09,0.06,
1.4,-0.01,-0.15,0.98,1.40,-0.09,0.06,
1.4,-0.01,-0.15,0.98,1.48,-0.03,0.08,
1.402,-0.01,-0.15,0.97,1.48,-0.03,0.08,
1.405,-0.02,-0.14,0.96,1.48,-0.03,0.08,
1.405,-0.02,-0.14,0.96,1.55,0.05,0.01,
1.407,-0.03,-0.14,0.96,1.55,0.05,0.01,
1.414,-0.03,-0.14,0.96,1.55,0.05,0.01,
1.415,-0.03,-0.14,0.96,1.53,0.08,-0.09,
1.415,-0.05,-0.14,0.95,1.53,0.08,-0.09,
1.415,-0.06,-0.13,0.95,1.53,0.08,-0.09,
1.416,-0.06,-0.13,0.95,1.44,0.13,-0.19,
1.417,-0.08,-0.13,0.96,1.44,0.13,-0.19,
1.42,-0.09,-0.13,0.96,1.44,0.13,-0.19,
1.42,-0.09,-0.13,0.96,1.24,0.15,-0.23,
1.422,-0.10,-0.12,0.96,1.24,0.15,-0.23,
1.425,-0.10,-0.12,0.96,1.01,0.23,-0.17,
1.425,-0.12,-0.12,0.97,1.01,0.23,-0.17,
1.428,-0.12,-0.12,0.99,1.01,0.23,-0.17,
1.43,-0.13,-0.12,0.99,1.01,0.23,-0.17,
1.43,-0.13,-0.12,0.99,0.79,0.30,-0.06,
1.432,-0.14,-0.11,1.00,0.79,0.30,-0.06,
1.435,-0.14,-0.11,1.02,0.79,0.30,-0.06,
1.435,-0.14,-0.11,1.02,0.63,0.32,0.15,
1.437,-0.15,-0.11,1.04,0.63,0.32,0.15,
1.44,-0.16,-0.12,1.06,0.63,0.32,0.15,
1.44,-0.16,-0.12,1.06,0.53,0.41,0.38,
1.442,-0.16,-0.12,1.07,0.53,0.41,0.38,
1.445,-0.16,-0.13,1.08,0.53,0.41,0.38,
1.445,-0.16,-0.13,1.08,0.46,0.39,0.77,
1.447,-0.14,-0.14,1.10,0.46,0.39,0.77,
1.45,-0.13,-0.14,1.11,0.46,0.39,0.77,
1.45,-0.13,-0.14,1.11,0.38,0.29,1.00,
1.452,-0.13,-0.15,1.14,0.38,0.29,1.00,
1.454,-0.13,-0.17,1.17,0.38,0.29,1.00,
1.455,-0.13,-0.17,1.17,0.64,0.23,1.29,
1.457,-0.12,-0.17,1.18,0.64,0.23,1.29,
1.461,-0.11,-0.18,1.20,0.64,0.23,1.29,
1.461,-0.11,-0.18,1.20,0.70,0.04,1.81,
1.463,-0.09,-0.19,1.21,0.70,0.04,1.81,
1.464,-0.08,-0.21,1.22,0.70,0.04,1.81,
1.465,-0.08,-0.21,1.22,0.86,-0.12,2.14,
1.467,-0.07,-0.21,1.24,0.86,-0.12,2.14,
1.469,-0.07,-0.21,1.24,1.08,-0.30,2.39,
1.47,-0.05,-0.22,1.25,1.08,-0.30,2.39,
1.472,-0.04,-0.22,1.26,1.08,-0.30,2.39,
1.474,-0.03,-0.23,1.26,1.08,-0.30,2.39,
1.475,-0.03,-0.23,1.26,1.33,-0.41,2.65,
1.477,-0.03,-0.24,1.26,1.33,-0.41,2.65,
1.481,-0.02,-0.24,1.26,1.33,-0.41,2.65,
1.482,-0.02,-0.24,1.26,1.53,-0.54,2.81,
1.482,-0.01,-0.24,1.25,1.53,-0.54,2.81,
1.485,-0.01,-0.23,1.25,1.53,-0.54,2.81,
1.486,-0.01,-0.23,1.25,1.63,-0.64,2.81,
1.487,0.00,-0.22,1.26,1.63,-0.64,2.81,
1.49,-0.00,-0.22,1.26,1.63,-0.64,2.81,
1.491,-0.00,-0.22,1.26,1.78,-0.59,2.73,
1.492,0.00,-0.21,1.25,1.78,-0.59,2.73,
1.495,-0.00,-0.21,1.25,1.78,-0.59,2.73,
1.496,-0.00,-0.21,1.25,1.88,-0.43,2.75,
1.497,-0.01,-0.20,1.24,1.88,-0.43,2.75,
1.5,-0.02,-0.20,1.23,1.88,-0.43,2.75,
1.5,-0.02,-0.20,1.23,1.85,-0.33,2.70,
1.502,-0.03,-0.20,1.22,1.85,-0.33,2.70,
1.505,-0.04,-0.20,1.20,1.85,-0.33,2.70,
1.505,-0.04,-0.20,1.20,1.72,-0.26,2.56,
1.507,-0.04,-0.19,1.19,1.72,-0.26,2.56,
1.509,-0.05,-0.19,1.17,1.72,-0.26,2.56,
1.51,-0.05,-0.19,1.17,1.55,-0.22,2.29,
1.511,-0.06,-0.19,1.16,1.55,-0.22,2.29,
1.514,-0.06,-0.19,1.16,1.40,-0.19,2.00,
1.515,-0.08,-0.18,1.15,1.40,-0.19,2.00,
1.517,-0.09,-0.18,1.13,1.40,-0.19,2.00,
1.519,-0.10,-0.17,1.12,1.40,-0.19,2.00,
1.519,-0.10,-0.17,1.12,1.21,-0.13,1.71,
1.521,-0.11,-0.17,1.11,1.21,-0.13,1.71,
1.524,-0.12,-0.17,1.10,1.21,-0.13,1.71,
1.525,-0.12,-0.17,1.10,1.01,-0.07,1.42,
1.533,-0.14,-0.17,1.10,1.01,-0.07,1.42,
1.533,-0.15,-0.16,1.10,1.01,-0.07,1.42,
1.533,-0.15,-0.16,1.10,0.77,-0.06,1.24,
1.533,-0.16,-0.16,1.09,0.77,-0.06,1.24,
1.534,-0.16,-0.16,1.09,0.53,0.00,1.20,
1.534,-0.17,-0.16,1.09,0.53,0.00,1.20,
1.538,-0.18,-0.16,1.10,0.53,0.00,1.20,
1.539,-0.18,-0.16,1.10,0.37,0.05,1.13,
1.539,-0.18,-0.16,1.10,0.37,0.05,1.13,
1.541,-0.17,-0.15,1.11,0.37,0.05,1.13,
1.545,-0.17,-0.16,1.12,0.37,0.05,1.13,
1.545,-0.17,-0.16,1.12,0.26,0.04,1.20,
1.547,-0.17,-0.17,1.13,0.26,0.04,1.20,
1.549,-0.16,-0.17,1.14,0.26,0.04,1.20,
1.55,-0.16,-0.17,1.14,0.29,0.03,1.34,
1.552,-0.16,-0.18,1.15,0.29,0.03,1.34,
1.554,-0.15,-0.19,1.16,0.29,0.03,1.34,
1.554,-0.15,-0.19,1.16,0.35,-0.10,1.51,
1.556,-0.13,-0.19,1.17,0.35,-0.10,1.51,
1.559,-0.12,-0.20,1.17,0.35,-0.10,1.51,
1.559,-0.12,-0.20,1.17,0.49,-0.25,1.68,
1.561,-0.11,-0.21,1.18,0.49,-0.25,1.68,
1.563,-0.09,-0.21,1.18,0.49,-0.25,1.68,
1.564,-0.09,-0.21,1.18,0.73,-0.41,1.84,
1.566,-0.08,-0.21,1.17,0.73,-0.41,1.84,
1.568,-0.06,-0.21,1.17,0.73,-0.41,1.84,
1.569,-0.06,-0.21,1.17,0.97,-0.53,1.90,
1.572,-0.05,-0.21,1.17,0.97,-0.53,1.90,
1.574,-0.05,-0.21,1.17,1.20,-0.54,1.82,
1.574,-0.04,-0.21,1.17,1.20,-0.54,1.82,
1.576,-0.03,-0.20,1.18,1.20,-0.54,1.82,
1.579,-0.03,-0.20,1.17,1.20,-0.54,1.82,
1.579,-0.03,-0.20,1.17,1.45,-0.54,1.79,
1.581,-0.02,-0.20,1.16,1.45,-0.54,1.79,
1.584,-0.01,-0.20,1.15,1.45,-0.54,1.79,
1.584,-0.01,-0.20,1.15,1.59,-0.50,1.84,
1.586,-0.01,-0.20,1.15,1.59,-0.50,1.84,
1.589,-0.01,-0.19,1.14,1.59,-0.50,1.84,
1.589,-0.01,-0.19,1.14,1.70,-0.45,1.66,
1.591,-0.00,-0.19,1.13,1.70,-0.45,1.66,
1.594,-0.00,-0.19,1.12,1.70,-0.45,1.66,
1.594,-0.00,-0.19,1.12,1.77,-0.41,1.53,
1.597,0.00,-0.19,1.11,1.77,-0.41,1.53,
1.598,0.00,-0.19,1.10,1.77,-0.41,1.53,
1.599,0.00,-0.19,1.10,1.80,-0.42,1.37,
1.601,-0.00,-0.19,1.09,1.80,-0.42,1.37,
1.604,-0.00,-0.19,1.09,1.82,-0.43,1.15,
1.604,0.00,-0.19,1.09,1.82,-0.43,1.15,
1.606,-0.00,-0.18,1.09,1.82,-0.43,1.15,
1.609,-0.01,-0.18,1.08,1.82,-0.43,1.15,
1.609,-0.01,-0.18,1.08,1.79,-0.42,0.99,
1.611,-0.01,-0.18,1.07,1.79,-0.42,0.99,
1.613,-0.01,-0.18,1.07,1.79,-0.42,0.99,
1.613,-0.01,-0.18,1.07,1.71,-0.37,0.90,
1.616,-0.01,-0.18,1.07,1.71,-0.37,0.90,
1.619,-0.02,-0.17,1.06,1.71,-0.37,0.90,
1.619,-0.02,-0.17,1.06,1.67,-0.38,0.75,
1.621,-0.02,-0.18,1.06,1.67,-0.38,0.75,
1.624,-0.02,-0.18,1.06,1.64,-0.35,0.71,
1.624,-0.01,-0.17,1.06,1.64,-0.35,0.71,
1.626,-0.02,-0.18,1.07,1.64,-0.35,0.71,
1.632,-0.03,-0.17,1.07,1.64,-0.35,0.71,
1.633,-0.03,-0.17,1.07,1.62,-0.35,0.68,
1.633,-0.03,-0.17,1.08,1.62,-0.35,0.68,
1.633,-0.03,-0.17,1.09,1.62,-0.35,0.68,
1.634,-0.03,-0.17,1.09,1.56,-0.37,0.76,
1.635,-0.04,-0.17,1.09,1.56,-0.37,0.76,
1.638,-0.03,-0.17,1.10,1.56,-0.37,0.76,
1.638,-0.03,-0.17,1.10,1.50,-0.36,0.91,
1.64,-0.04,-0.17,1.11,1.50,-0.36,0.91,
1.643,-0.04,-0.18,1.11,1.50,-0.36,0.91,
1.646,-0.04,-0.18,1.11,1.47,-0.37,1.02,
1.646,-0.03,-0.18,1.12,1.47,-0.37,1.02,
1.648,-0.04,-0.18,1.11,1.47,-0.37,1.02,
1.648,-0.04,-0.18,1.11,1.47,-0.43,1.17,
1.65,-0.03,-0.18,1.12,1.47,-0.43,1.17,
1.653,-0.03,-0.18,1.12,1.51,-0.47,1.20,
1.653,-0.03,-0.18,1.13,1.51,-0.47,1.20,
1.656,-0.03,-0.19,1.12,1.51,-0.47,1.20,
1.658,-0.03,-0.19,1.12,1.51,-0.47,1.20,
1.658,-0.03,-0.19,1.12,1.51,-0.53,1.34,
1.66,-0.02,-0.18,1.11,1.51,-0.53,1.34,
1.663,-0.02,-0.19,1.11,1.51,-0.53,1.34,
1.663,-0.02,-0.19,1.11,1.56,-0.59,1.27,
1.665,-0.02,-0.19,1.12,1.56,-0.59,1.27,
1.668,-0.03,-0.19,1.12,1.56,-0.59,1.27,
1.668,-0.03,-0.19,1.12,1.67,-0.60,1.15,
1.67,-0.02,-0.18,1.12,1.67,-0.60,1.15,
1.672,-0.01,-0.18,1.12,1.67,-0.60,1.15,
1.673,-0.01,-0.18,1.12,1.62,-0.65,1.26,
1.674,-0.01,-0.18,1.11,1.62,-0.65,1.26,
1.68,0.00,-0.17,1.13,1.62,-0.65,1.26,
1.681,0.00,-0.17,1.13,1.68,-0.60,1.21,
1.681,0.01,-0.17,1.12,1.68,-0.60,1.21,
1.682,0.01,-0.17,1.13,1.68,-0.60,1.21,
1.682,0.01,-0.17,1.13,1.84,-0.53,1.23,
1.684,0.02,-0.18,1.12,1.84,-0.53,1.23,
1.687,0.03,-0.18,1.12,1.84,-0.53,1.23,
1.687,0.03,-0.18,1.12,1.96,-0.53,1.28,
1.689,0.03,-0.18,1.12,1.96,-0.53,1.28,
1.692,0.04,-0.19,1.12,1.96,-0.53,1.28,
1.692,0.04,-0.19,1.12,2.10,-0.60,1.27,
1.696,0.05,-0.19,1.12,2.10,-0.60,1.27,
1.697,0.04,-0.19,1.11,2.10,-0.60,1.27,
1.697,0.04,-0.19,1.11,2.18,-0.67,1.24,
1.699,0.05,-0.19,1.11,2.18,-0.67,1.24,
1.702,0.05,-0.19,1.11,2.25,-0.73,1.16,
1.702,0.04,-0.18,1.11,2.25,-0.73,1.16,
1.704,0.05,-0.18,1.11,2.25,-0.73,1.16,
1.708,0.05,-0.18,1.10,2.25,-0.73,1.16,
1.708,0.05,-0.18,1.10,2.23,-0.72,1.13,
1.709,0.05,-0.18,1.09,2.23,-0.72,1.13,
1.713,0.05,-0.17,1.09,2.23,-0.72,1.13,
1.713,0.05,-0.17,1.09,2.22,-0.68,1.02,
1.714,0.05,-0.17,1.08,2.22,-0.68,1.02,
1.717,0.04,-0.16,1.07,2.22,-0.68,1.02,
1.717,0.04,-0.16,1.07,2.18,-0.63,0.89,
1.719,0.04,-0.15,1.05,2.18,-0.63,0.89,
1.722,0.03,-0.15,1.04,2.18,-0.63,0.89,
1.722,0.03,-0.15,1.04,2.11,-0.57,0.72,
1.724,0.03,-0.15,1.03,2.11,-0.57,0.72,
1.727,0.02,-0.14,1.02,2.11,-0.57,0.72,
1.727,0.02,-0.14,1.02,2.00,-0.45,0.46,
1.729,0.01,-0.14,1.01,2.00,-0.45,0.46,
1.732,0.01,-0.13,0.99,2.00,-0.45,0.46,
1.732,0.01,-0.13,0.99,1.88,-0.43,0.26,
1.734,-0.00,-0.13,0.98,1.88,-0.43,0.26,
1.737,-0.01,-0.12,0.98,1.88,-0.43,0.26,
1.737,-0.01,-0.12,0.98,1.71,-0.39,-0.02,
1.739,-0.02,-0.12,0.96,1.71,-0.39,-0.02,
1.742,-0.02,-0.11,0.96,1.71,-0.39,-0.02,
1.742,-0.02,-0.11,0.96,1.52,-0.29,-0.22,
1.75,-0.03,-0.10,0.95,1.52,-0.29,-0.22,
1.751,-0.03,-0.10,0.95,1.52,-0.29,-0.22,
1.751,-0.03,-0.10,0.95,1.39,-0.23,-0.42,
1.751,-0.03,-0.09,0.94,1.39,-0.23,-0.42,
1.752,-0.04,-0.09,0.95,1.39,-0.23,-0.42,
1.752,-0.04,-0.09,0.95,1.28,-0.11,-0.52,
1.754,-0.04,-0.09,0.95,1.28,-0.11,-0.52,
1.757,-0.04,-0.08,0.94,1.28,-0.11,-0.52,
1.757,-0.04,-0.08,0.94,1.21,-0.03,-0.58,
1.759,-0.04,-0.08,0.94,1.21,-0.03,-0.58,
1.762,-0.04,-0.08,0.95,1.21,-0.03,-0.58,
1.763,-0.04,-0.08,0.95,1.16,0.03,-0.58,
1.764,-0.04,-0.07,0.95,1.16,0.03,-0.58,
1.767,-0.03,-0.07,0.95,1.16,0.03,-0.58,
1.767,-0.03,-0.07,0.95,1.16,0.06,-0.58,
1.769,-0.03,-0.07,0.96,1.16,0.06,-0.58,
1.771,-0.03,-0.06,0.97,1.16,0.06,-0.58,
1.772,-0.03,-0.06,0.97,1.17,0.14,-0.54,
1.775,-0.03,-0.06,0.98,1.17,0.14,-0.54,
1.776,-0.02,-0.07,0.99,1.17,0.14,-0.54,
1.776,-0.02,-0.07,0.99,1.18,0.18,-0.40,
1.779,-0.01,-0.07,1.00,1.18,0.18,-0.40,
1.781,-0.01,-0.07,1.01,1.18,0.18,-0.40,
1.781,-0.01,-0.07,1.01,1.21,0.16,-0.22,
1.784,-0.01,-0.07,1.01,1.21,0.16,-0.22,
1.786,-0.00,-0.07,1.02,1.21,0.16,-0.22,
1.786,-0.00,-0.07,1.02,1.33,0.12,-0.00,
1.788,0.00,-0.07,1.03,1.33,0.12,-0.00,
1.791,0.00,-0.07,1.03,1.39,0.06,0.13,
1.791,0.00,-0.07,1.05,1.39,0.06,0.13,
1.793,0.01,-0.07,1.05,1.39,0.06,0.13,
1.797,0.02,-0.07,1.06,1.39,0.06,0.13,
1.798,0.02,-0.07,1.06,1.44,0.08,0.32,
1.798,0.02,-0.07,1.07,1.44,0.08,0.32,
1.801,0.02,-0.07,1.06,1.44,0.08,0.32,
1.801,0.02,-0.07,1.06,1.52,0.10,0.51,
1.803,0.03,-0.07,1.06,1.52,0.10,0.51,
1.806,0.03,-0.07,1.07,1.52,0.10,0.51,
1.806,0.03,-0.07,1.07,1.58,0.09,0.58,
1.81,0.03,-0.07,1.07,1.58,0.09,0.58,
1.813,0.02,-0.08,1.07,1.58,0.09,0.58,
1.814,0.02,-0.08,1.07,1.68,0.06,0.58,
1.814,0.02,-0.08,1.06,1.68,0.06,0.58,
1.816,0.01,-0.08,1.06,1.68,0.06,0.58,
1.816,0.01,-0.08,1.06,1.58,0.01,0.63,
1.819,0.00,-0.08,1.06,1.58,0.01,0.63,
1.821,0.00,-0.08,1.06,1.45,-0.07,0.51,
1.821,-0.00,-0.09,1.06,1.45,-0.07,0.51,
1.823,-0.01,-0.09,1.04,1.45,-0.07,0.51,
1.826,-0.02,-0.09,1.02,1.45,-0.07,0.51,
1.826,-0.02,-0.09,1.02,1.30,-0.15,0.48,
1.834,-0.02,-0.08,1.02,1.30,-0.15,0.48,
1.834,-0.02,-0.08,1.02,1.10,-0.23,0.24,
1.834,-0.02,-0.08,1.02,1.10,-0.23,0.24,
1.835,-0.02,-0.07,1.02,1.10,-0.23,0.24,
1.836,-0.03,-0.06,1.02,1.10,-0.23,0.24,
1.837,-0.03,-0.06,1.02,1.03,-0.12,0.09,
1.839,-0.05,-0.05,1.01,1.03,-0.12,0.09,
1.841,-0.05,-0.06,1.00,1.03,-0.12,0.09,
1.842,-0.05,-0.06,1.00,0.98,-0.01,0.07,
1.844,-0.06,-0.05,0.98,0.98,-0.01,0.07,
1.849,-0.07,-0.05,0.99,0.98,-0.01,0.07,
1.849,-0.07,-0.05,0.99,0.76,0.04,-0.07,
1.849,-0.08,-0.05,0.97,0.76,0.04,-0.07,
1.851,-0.08,-0.06,0.96,0.76,0.04,-0.07,
1.852,-0.08,-0.06,0.96,0.56,0.05,-0.25,
1.853,-0.09,-0.06,0.95,0.56,0.05,-0.25,
1.857,-0.10,-0.06,0.95,0.56,0.05,-0.25,
1.857,-0.10,-0.06,0.95,0.41,-0.02,-0.43,
1.859,-0.10,-0.06,0.94,0.41,-0.02,-0.43,
1.861,-0.10,-0.06,0.93,0.41,-0.02,-0.43,
1.861,-0.10,-0.06,0.93,0.29,-0.10,-0.58,
1.863,-0.11,-0.07,0.93,0.29,-0.10,-0.58,
1.866,-0.11,-0.07,0.93,0.29,-0.10,-0.58,
1.866,-0.11,-0.07,0.93,0.23,-0.16,-0.71,
1.868,-0.11,-0.07,0.93,0.23,-0.16,-0.71,
1.871,-0.10,-0.07,0.93,0.23,-0.16,-0.71,
1.872,-0.10,-0.07,0.93,0.16,-0.27,-0.77,
1.873,-0.10,-0.07,0.92,0.16,-0.27,-0.77,
1.876,-0.09,-0.07,0.92,0.16,-0.27,-0.77,
1.876,-0.09,-0.07,0.92,0.18,-0.35,-0.80,
1.878,-0.08,-0.07,0.92,0.18,-0.35,-0.80,
1.88,-0.08,-0.08,0.92,0.18,-0.35,-0.80,
1.881,-0.08,-0.08,0.92,0.34,-0.38,-0.84,
1.883,-0.07,-0.07,0.92,0.34,-0.38,-0.84,
1.885,-0.07,-0.08,0.92,0.34,-0.38,-0.84,
1.885,-0.07,-0.08,0.92,0.44,-0.43,-0.88,
1.888,-0.06,-0.07,0.92,0.44,-0.43,-0.88,
1.891,-0.06,-0.07,0.92,0.44,-0.43,-0.88,
1.891,-0.06,-0.07,0.92,0.53,-0.47,-0.91,
1.893,-0.05,-0.07,0.92,0.53,-0.47,-0.91,
1.897,-0.05,-0.07,0.93,0.53,-0.47,-0.91,
1.898,-0.05,-0.07,0.93,0.62,-0.46,-0.88,
1.898,-0.04,-0.06,0.93,0.62,-0.46,-0.88,
1.9,-0.04,-0.06,0.93,0.73,-0.48,-0.84,
1.901,-0.03,-0.05,0.93,0.73,-0.48,-0.84,
1.903,-0.03,-0.04,0.93,0.73,-0.48,-0.84,
1.906,-0.02,-0.04,0.93,0.73,-0.48,-0.84,
1.906,-0.02,-0.04,0.93,0.84,-0.36,-0.78,
1.908,-0.02,-0.03,0.93,0.84,-0.36,-0.78,
1.911,-0.02,-0.03,0.93,0.84,-0.36,-0.78,
1.911,-0.02,-0.03,0.93,0.96,-0.26,-0.79,
1.914,-0.02,-0.02,0.94,0.96,-0.26,-0.79,
1.915,-0.02,-0.02,0.94,0.96,-0.26,-0.79,
1.916,-0.02,-0.02,0.94,1.01,-0.17,-0.79,
1.918,-0.02,-0.02,0.94,1.01,-0.17,-0.79,
1.921,-0.02,-0.01,0.94,1.01,-0.17,-0.79,
1.921,-0.02,-0.01,0.94,0.98,-0.10,-0.71,
1.923,-0.02,-0.01,0.95,0.98,-0.10,-0.71,
1.925,-0.02,-0.00,0.95,0.98,-0.10,-0.71,
1.926,-0.02,-0.00,0.95,1.01,-0.08,-0.69,
1.928,-0.00,0.00,0.94,1.01,-0.08,-0.69,
1.93,-0.00,0.00,0.94,1.01,-0.08,-0.69,
1.931,-0.00,0.00,0.94,0.99,-0.01,-0.58,
1.932,-0.00,0.01,0.95,0.99,-0.01,-0.58,
1.935,-0.00,0.01,0.95,1.10,0.04,-0.67,
1.935,-0.00,0.01,0.95,1.10,0.04,-0.67,
1.938,0.00,0.01,0.94,1.10,0.04,-0.67,
1.94,0.00,0.01,0.94,1.10,0.04,-0.67,
1.941,0.00,0.01,0.94,1.09,0.06,-0.60,
1.943,-0.00,0.01,0.94,1.09,0.06,-0.60,
1.945,-0.00,0.02,0.93,1.09,0.06,-0.60,
1.945,-0.00,0.02,0.93,1.12,0.08,-0.70,
1.951,-0.01,0.02,0.93,1.12,0.08,-0.70,
1.952,-0.01,0.01,0.93,1.12,0.08,-0.70,
1.952,-0.01,0.01,0.93,1.07,0.05,-0.73,
1.952,-0.01,0.01,0.92,1.07,0.05,-0.73,
1.955,-0.01,0.00,0.91,1.07,0.05,-0.73,
1.955,-0.01,0.00,0.91,1.00,0.03,-0.76,
1.957,-0.01,-0.00,0.90,1.00,0.03,-0.76,
1.959,-0.01,-0.01,0.90,1.00,0.03,-0.76,
1.96,-0.01,-0.01,0.90,0.97,-0.09,-0.92,
1.965,-0.02,-0.02,0.90,0.97,-0.09,-0.92,
1.965,-0.02,-0.02,0.90,0.97,-0.09,-0.92,
1.965,-0.02,-0.02,0.90,0.94,-0.23,-1.07,
1.967,-0.02,-0.02,0.90,0.94,-0.23,-1.07,
1.969,-0.02,-0.02,0.88,0.94,-0.23,-1.07,
1.97,-0.02,-0.02,0.88,0.87,-0.37,-1.08,
1.972,-0.02,-0.02,0.88,0.87,-0.37,-1.08,
1.975,-0.02,-0.02,0.88,0.86,-0.43,-1.16,
1.975,-0.02,-0.02,0.88,0.86,-0.43,-1.16,
1.976,-0.03,-0.02,0.88,0.86,-0.43,-1.16,
1.98,-0.03,-0.02,0.88,0.86,-0.43,-1.16,
1.98,-0.03,-0.02,0.88,0.84,-0.45,-1.24,
1.981,-0.03,-0.02,0.88,0.84,-0.45,-1.24,
1.984,-0.04,-0.02,0.87,0.84,-0.45,-1.24,
1.985,-0.04,-0.02,0.87,0.77,-0.46,-1.28,
1.986,-0.04,-0.03,0.87,0.77,-0.46,-1.28,
1.989,-0.04,-0.03,0.88,0.77,-0.46,-1.28,
1.989,-0.04,-0.03,0.88,0.68,-0.51,-1.34,
1.992,-0.04,-0.04,0.88,0.68,-0.51,-1.34,
1.994,-0.04,-0.04,0.88,0.68,-0.51,-1.34,
1.994,-0.04,-0.04,0.88,0.64,-0.64,-1.32,
1.998,-0.04,-0.05,0.88,0.64,-0.64,-1.32,
1.999,-0.04,-0.05,0.89,0.64,-0.64,-1.32,
2.0,-0.04,-0.05,0.89,0.61,-0.77,-1.30,
2.002,-0.03,-0.05,0.89,0.61,-0.77,-1.30,
2.004,-0.02,-0.05,0.90,0.61,-0.77,-1.30,
2.004,-0.02,-0.05,0.90,0.60,-0.84,-1.21,
2.006,-0.02,-0.05,0.91,0.60,-0.84,-1.21,
2.009,-0.02,-0.04,0.92,0.60,-0.84,-1.21,
2.009,-0.02,-0.04,0.92,0.71,-0.85,-1.09,
2.011,-0.01,-0.04,0.93,0.71,-0.85,-1.09,
2.014,-0.00,-0.04,0.93,0.71,-0.85,-1.09,
2.014,-0.00,-0.04,0.93,0.78,-0.83,-0.93,
2.016,0.00,-0.03,0.94,0.78,-0.83,-0.93,
2.019,0.01,-0.03,0.95,0.78,-0.83,-0.93,
2.019,0.01,-0.03,0.95,0.86,-0.77,-0.79,
2.021,0.00,-0.03,0.95,0.86,-0.77,-0.79,
2.024,0.01,-0.03,0.96,0.86,-0.77,-0.79,
2.024,0.01,-0.03,0.96,0.95,-0.74,-0.60,
2.026,0.01,-0.03,0.97,0.95,-0.74,-0.60,
2.03,0.01,-0.03,0.97,0.95,-0.74,-0.60,
2.031,0.01,-0.03,0.97,0.96,-0.73,-0.53,
2.031,0.01,-0.02,0.97,0.96,-0.73,-0.53,
2.034,0.01,-0.02,0.96,0.96,-0.73,-0.53,
2.034,0.01,-0.02,0.96,0.96,-0.74,-0.38,
2.036,0.01,-0.01,0.96,0.96,-0.74,-0.38,
2.039,0.02,-0.01,0.96,0.96,-0.74,-0.38,
2.039,0.02,-0.01,0.96,0.97,-0.66,-0.42,
2.041,0.01,-0.00,0.96,0.97,-0.66,-0.42,
2.044,0.01,-0.00,0.97,0.97,-0.66,-0.42,
2.045,0.01,-0.00,0.97,1.00,-0.55,-0.49,
2.047,-0.00,-0.00,0.97,1.00,-0.55,-0.49,
2.049,-0.01,-0.00,0.97,1.00,-0.55,-0.49,
2.049,-0.01,-0.00,0.97,0.92,-0.50,-0.40,
2.051,-0.01,-0.00,0.96,0.92,-0.50,-0.40,
2.053,-0.01,0.00,0.95,0.92,-0.50,-0.40,
2.054,-0.01,0.00,0.95,0.80,-0.52,-0.38,
2.056,-0.02,0.00,0.94,0.80,-0.52,-0.38,
2.059,-0.02,0.01,0.93,0.80,-0.52,-0.38,
2.06,-0.02,0.01,0.93,0.71,-0.50,-0.51,
2.061,-0.02,0.01,0.93,0.71,-0.50,-0.51,
2.068,-0.02,0.01,0.93,0.71,-0.50,-0.51,
2.069,-0.02,0.01,0.93,0.65,-0.47,-0.68,
2.069,-0.02,0.01,0.92,0.65,-0.47,-0.68,
2.069,-0.02,0.01,0.91,0.65,-0.47,-0.68,
2.069,-0.02,0.01,0.91,0.58,-0.45,-0.77,
2.071,-0.03,0.01,0.91,0.58,-0.45,-0.77,
2.073,-0.03,0.01,0.91,0.58,-0.45,-0.77,
2.073,-0.03,0.01,0.91,0.55,-0.46,-0.91,
2.075,-0.03,0.01,0.90,0.55,-0.46,-0.91,
2.078,-0.03,0.01,0.91,0.55,-0.46,-0.91,
2.079,-0.03,0.01,0.91,0.48,-0.43,-0.96,
2.081,-0.03,0.00,0.91,0.48,-0.43,-0.96,
2.083,-0.03,-0.00,0.91,0.48,-0.43,-0.96,
2.083,-0.03,-0.00,0.91,0.46,-0.45,-1.00,
2.085,-0.03,-0.00,0.91,0.46,-0.45,-1.00,
2.089,-0.04,-0.00,0.91,0.46,-0.45,-1.00,
2.089,-0.04,-0.00,0.91,0.41,-0.58,-0.98,
2.091,-0.04,-0.01,0.91,0.41,-0.58,-0.98,
2.095,-0.04,-0.01,0.91,0.41,-0.58,-0.98,
2.096,-0.04,-0.01,0.91,0.37,-0.63,-0.98,
2.1,-0.03,-0.01,0.91,0.37,-0.63,-0.98,
2.101,-0.03,-0.01,0.91,0.33,-0.71,-0.95,
2.101,-0.04,-0.01,0.91,0.33,-0.71,-0.95,
2.101,-0.04,-0.01,0.91,0.33,-0.71,-0.95,
2.104,-0.04,-0.01,0.91,0.33,-0.72,-0.94,
2.104,-0.04,-0.01,0.91,0.33,-0.72,-0.94,
2.106,-0.04,-0.01,0.91,0.33,-0.72,-0.94,
2.108,-0.04,-0.01,0.92,0.33,-0.72,-0.94,
2.108,-0.04,-0.01,0.92,0.29,-0.73,-0.92,
2.111,-0.03,-0.01,0.93,0.29,-0.73,-0.92,
2.114,-0.03,-0.01,0.93,0.31,-0.76,-0.91,
2.117,-0.03,-0.01,0.92,0.31,-0.76,-0.91,
2.117,-0.03,-0.02,0.91,0.31,-0.76,-0.91,
2.123,-0.02,-0.01,0.92,0.31,-0.76,-0.91,
2.124,-0.02,-0.01,0.92,0.35,-0.77,-0.83,
2.125,-0.02,-0.01,0.92,0.35,-0.77,-0.83,
2.125,-0.02,-0.01,0.92,0.35,-0.77,-0.83,
2.126,-0.02,-0.01,0.92,0.42,-0.81,-0.89,
2.126,-0.02,-0.01,0.92,0.42,-0.81,-0.89,
2.128,-0.02,-0.01,0.92,0.46,-0.79,-0.84,
2.128,-0.01,-0.01,0.92,0.46,-0.79,-0.84,
2.132,-0.00,-0.00,0.92,0.46,-0.79,-0.84,
2.133,-0.01,0.00,0.92,0.46,-0.79,-0.84,
2.133,-0.01,0.00,0.92,0.49,-0.75,-0.84,
2.136,-0.00,-0.00,0.92,0.49,-0.75,-0.84,
2.139,-0.00,-0.00,0.92,0.49,-0.75,-0.84,
2.142,-0.00,-0.00,0.92,0.55,-0.70,-0.86,
2.142,-0.00,-0.00,0.92,0.55,-0.70,-0.86,
2.143,-0.00,-0.00,0.92,0.55,-0.70,-0.86,
2.143,-0.00,-0.00,0.92,0.59,-0.74,-0.81,
2.145,-0.00,0.00,0.93,0.59,-0.74,-0.81,
2.148,-0.00,0.00,0.93,0.56,-0.71,-0.85,
2.148,-0.01,0.00,0.93,0.56,-0.71,-0.85,
2.15,-0.01,0.00,0.93,0.56,-0.71,-0.85,
2.153,-0.01,0.01,0.93,0.56,-0.71,-0.85,
2.153,-0.01,0.01,0.93,0.52,-0.68,-0.77,
2.155,-0.02,0.01,0.94,0.52,-0.68,-0.77,
2.158,-0.02,0.01,0.93,0.52,-0.68,-0.77,
2.158,-0.02,0.01,0.93,0.46,-0.66,-0.72,
2.16,-0.03,0.00,0.93,0.46,-0.66,-0.72,
2.163,-0.03,0.00,0.93,0.36,-0.63,-0.69,
2.163,-0.04,-0.00,0.93,0.36,-0.63,-0.69,
2.167,-0.05,-0.00,0.92,0.36,-0.63,-0.69,
2.168,-0.05,-0.00,0.93,0.36,-0.63,-0.69,
2.168,-0.05,-0.00,0.93,0.20,-0.71,-0.75,
2.17,-0.05,-0.01,0.93,0.20,-0.71,-0.75,
2.173,-0.05,-0.01,0.93,0.20,-0.71,-0.75,
2.173,-0.05,-0.01,0.93,0.06,-0.74,-0.78,
2.175,-0.04,-0.02,0.93,0.06,-0.74,-0.78,
2.178,-0.05,-0.02,0.93,0.06,-0.74,-0.78,
2.178,-0.05,-0.02,0.93,0.08,-0.83,-0.75,
2.18,-0.05,-0.02,0.93,0.08,-0.83,-0.75,
2.183,-0.06,-0.02,0.94,0.08,-0.83,-0.75,
2.183,-0.06,-0.02,0.94,0.06,-0.92,-0.70,
2.185,-0.06,-0.01,0.94,0.06,-0.92,-0.70,
2.188,-0.06,-0.01,0.95,0.06,-0.92,-0.70,
2.189,-0.06,-0.01,0.95,-0.05,-0.95,-0.68,
2.19,-0.06,-0.01,0.95,-0.05,-0.95,-0.68,
2.193,-0.06,-0.00,0.95,-0.05,-0.95,-0.68,
2.193,-0.06,-0.00,0.95,-0.06,-0.87,-0.57,
2.195,-0.06,-0.00,0.95,-0.06,-0.87,-0.57,
2.199,-0.06,-0.00,0.95,-0.06,-0.87,-0.57,
2.2,-0.06,-0.00,0.95,-0.08,-0.82,-0.48,
2.2,-0.06,-0.00,0.95,-0.08,-0.82,-0.48,
2.202,-0.06,-0.00,0.95,-0.11,-0.78,-0.49,
2.202,-0.06,-0.01,0.95,-0.11,-0.78,-0.49,
2.204,-0.06,-0.01,0.95,-0.11,-0.78,-0.49,
2.208,-0.06,-0.00,0.95,-0.11,-0.78,-0.49,
2.208,-0.06,-0.00,0.95,-0.13,-0.82,-0.53,
2.21,-0.05,-0.00,0.95,-0.13,-0.82,-0.53,
2.213,-0.05,0.01,0.96,-0.13,-0.82,-0.53,
2.213,-0.05,0.01,0.96,-0.09,-0.83,-0.50,
2.215,-0.05,0.01,0.95,-0.09,-0.83,-0.50,
2.217,-0.04,0.01,0.95,-0.09,-0.83,-0.50,
2.217,-0.04,0.01,0.95,-0.05,-0.75,-0.48,
2.22,-0.05,0.02,0.96,-0.05,-0.75,-0.48,
2.223,-0.04,0.02,0.96,-0.05,-0.75,-0.48,
2.223,-0.04,0.02,0.96,0.02,-0.65,-0.48,
2.225,-0.04,0.03,0.96,0.02,-0.65,-0.48,
2.228,-0.04,0.03,0.96,0.01,-0.55,-0.42,
2.228,-0.04,0.03,0.96,0.01,-0.55,-0.42,
2.229,-0.04,0.04,0.97,0.01,-0.55,-0.42,
2.232,-0.04,0.04,0.97,0.01,-0.55,-0.42,
2.233,-0.04,0.04,0.97,0.05,-0.47,-0.40,
2.234,-0.04,0.04,0.98,0.05,-0.47,-0.40,
2.238,-0.04,0.05,0.97,0.05,-0.47,-0.40,
2.238,-0.04,0.05,0.97,0.05,-0.38,-0.31,
2.239,-0.04,0.05,0.97,0.05,-0.38,-0.31,
2.242,-0.05,0.06,0.98,0.05,-0.38,-0.31,
2.242,-0.05,0.06,0.98,-0.02,-0.31,-0.26,
2.244,-0.05,0.07,0.98,-0.02,-0.31,-0.26,
2.247,-0.05,0.07,0.98,-0.02,-0.31,-0.26,
2.247,-0.05,0.07,0.98,-0.04,-0.23,-0.23,
2.253,-0.06,0.08,0.97,-0.04,-0.23,-0.23,
2.253,-0.06,0.08,0.97,-0.09,-0.10,-0.20,
2.253,-0.06,0.08,0.98,-0.09,-0.10,-0.20,
2.254,-0.06,0.08,0.98,-0.09,-0.10,-0.20,
2.257,-0.07,0.08,0.97,-0.09,-0.10,-0.20,
2.257,-0.07,0.08,0.97,-0.19,-0.04,-0.22,
2.259,-0.08,0.09,0.96,-0.19,-0.04,-0.22,
2.262,-0.08,0.09,0.96,-0.19,-0.04,-0.22,
2.262,-0.08,0.09,0.96,-0.26,0.01,-0.25,
2.264,-0.09,0.09,0.96,-0.26,0.01,-0.25,
2.267,-0.10,0.08,0.95,-0.26,0.01,-0.25,
2.267,-0.10,0.08,0.95,-0.44,0.05,-0.34,
2.269,-0.11,0.08,0.94,-0.44,0.05,-0.34,
2.272,-0.12,0.08,0.94,-0.44,0.05,-0.34,
2.272,-0.12,0.08,0.94,-0.61,0.03,-0.44,
2.274,-0.12,0.08,0.93,-0.61,0.03,-0.44,
2.277,-0.12,0.08,0.93,-0.73,-0.02,-0.58,
2.277,-0.13,0.08,0.93,-0.73,-0.02,-0.58,
2.279,-0.13,0.07,0.92,-0.73,-0.02,-0.58,
2.284,-0.14,0.06,0.92,-0.73,-0.02,-0.58,
2.284,-0.14,0.06,0.92,-0.91,-0.07,-0.63,
2.284,-0.14,0.06,0.93,-0.91,-0.07,-0.63,
2.286,-0.14,0.06,0.93,-1.00,-0.22,-0.74,
2.287,-0.14,0.06,0.93,-1.00,-0.22,-0.74,
2.289,-0.14,0.05,0.93,-1.00,-0.22,-0.74,
2.292,-0.14,0.05,0.93,-1.00,-0.22,-0.74,
2.292,-0.14,0.05,0.93,-1.06,-0.27,-0.66,
2.294,-0.14,0.05,0.94,-1.06,-0.27,-0.66,
2.296,-0.13,0.05,0.94,-1.06,-0.27,-0.66,
2.297,-0.13,0.05,0.94,-1.05,-0.37,-0.64,
2.299,-0.12,0.05,0.95,-1.05,-0.37,-0.64,
2.302,-0.11,0.04,0.96,-1.05,-0.37,-0.64,
2.302,-0.11,0.04,0.96,-0.98,-0.36,-0.52,
2.305,-0.11,0.04,0.96,-0.98,-0.36,-0.52,
2.307,-0.11,0.04,0.96,-0.85,-0.41,-0.39,
2.307,-0.10,0.04,0.97,-0.85,-0.41,-0.39,
2.309,-0.09,0.04,0.97,-0.85,-0.41,-0.39,
2.312,-0.09,0.03,0.99,-0.85,-0.41,-0.39,
2.312,-0.09,0.03,0.99,-0.71,-0.44,-0.26,
2.316,-0.09,0.03,1.00,-0.71,-0.44,-0.26,
2.317,-0.08,0.03,1.00,-0.71,-0.44,-0.26,
2.317,-0.08,0.03,1.00,-0.60,-0.51,-0.13,
2.318,-0.08,0.03,1.00,-0.60,-0.51,-0.13,
2.322,-0.08,0.03,1.00,-0.60,-0.51,-0.13,
2.322,-0.08,0.03,1.00,-0.56,-0.55,0.07,
2.324,-0.07,0.03,1.01,-0.56,-0.55,0.07,
2.326,-0.07,0.03,1.01,-0.49,-0.53,0.08,
2.327,-0.06,0.04,1.00,-0.49,-0.53,0.08,
2.329,-0.06,0.04,1.00,-0.49,-0.53,0.08,
2.332,-0.05,0.04,1.00,-0.49,-0.53,0.08,
2.333,-0.05,0.04,1.00,-0.40,-0.50,0.10,
2.333,-0.05,0.05,1.00,-0.40,-0.50,0.10,
2.336,-0.05,0.06,1.00,-0.40,-0.50,0.10,
2.337,-0.05,0.06,1.00,-0.32,-0.43,0.08,
2.339,-0.06,0.06,1.00,-0.32,-0.43,0.08,
2.341,-0.06,0.06,0.99,-0.32,-0.43,0.08,
2.341,-0.06,0.06,0.99,-0.30,-0.33,0.04,
2.343,-0.06,0.07,0.98,-0.30,-0.33,0.04,
2.346,-0.06,0.07,0.98,-0.34,-0.28,0.02,
2.346,-0.07,0.07,0.97,-0.34,-0.28,0.02,
2.348,-0.07,0.08,0.96,-0.34,-0.28,0.02,
2.351,-0.07,0.08,0.96,-0.46,-0.17,-0.15,
2.351,-0.08,0.08,0.96,-0.46,-0.17,-0.15,
2.353,-0.09,0.09,0.96,-0.46,-0.17,-0.15,
2.356,-0.09,0.09,0.95,-0.46,-0.17,-0.15,
2.356,-0.09,0.09,0.95,-0.54,-0.09,-0.32,
2.358,-0.10,0.10,0.94,-0.54,-0.09,-0.32,
2.36,-0.10,0.10,0.93,-0.54,-0.09,-0.32,
2.361,-0.10,0.10,0.93,-0.66,-0.02,-0.41,
2.363,-0.11,0.11,0.92,-0.66,-0.02,-0.41,
2.365,-0.11,0.11,0.91,-0.66,-0.02,-0.41,
2.366,-0.11,0.11,0.91,-0.77,0.09,-0.55,
2.368,-0.12,0.11,0.91,-0.77,0.09,-0.55,
2.37,-0.12,0.11,0.91,-0.77,0.09,-0.55,
2.371,-0.12,0.11,0.91,-0.90,0.17,-0.72,
2.372,-0.13,0.11,0.90,-0.90,0.17,-0.72,
2.375,-0.13,0.11,0.90,-1.00,0.10,-0.82,
2.375,-0.13,0.10,0.88,-1.00,0.10,-0.82,
2.377,-0.14,0.10,0.87,-1.00,0.10,-0.82,
2.381,-0.14,0.09,0.87,-1.00,0.10,-0.82,
2.381,-0.14,0.09,0.87,-1.10,0.06,-0.98,
2.387,-0.14,0.09,0.87,-1.10,0.06,-0.98,
2.388,-0.15,0.09,0.86,-1.10,0.06,-0.98,
2.388,-0.15,0.09,0.86,-1.20,-0.01,-1.15,
2.388,-0.14,0.09,0.87,-1.20,-0.01,-1.15,
2.39,-0.14,0.10,0.87,-1.20,-0.01,-1.15,
2.39,-0.14,0.10,0.87,-1.23,-0.07,-1.20,
2.392,-0.14,0.09,0.87,-1.23,-0.07,-1.20,
2.395,-0.14,0.09,0.87,-1.23,-0.07,-1.20,
2.395,-0.14,0.09,0.87,-1.20,-0.04,-1.19,
2.4,-0.14,0.09,0.88,-1.20,-0.04,-1.19,
2.401,-0.14,0.09,0.88,-1.21,-0.06,-1.12,
2.401,-0.14,0.09,0.88,-1.21,-0.06,-1.12,
2.402,-0.14,0.09,0.87,-1.21,-0.06,-1.12,
2.405,-0.15,0.08,0.87,-1.21,-0.06,-1.12,
2.405,-0.15,0.08,0.87,-1.21,-0.07,-1.07,
2.408,-0.14,0.08,0.88,-1.21,-0.07,-1.07,
2.41,-0.13,0.07,0.88,-1.21,-0.07,-1.07,
2.41,-0.13,0.07,0.88,-1.25,-0.13,-1.12,
2.412,-0.13,0.07,0.90,-1.25,-0.13,-1.12,
2.415,-0.12,0.07,0.91,-1.25,-0.13,-1.12,
2.416,-0.12,0.07,0.91,-1.16,-0.20,-1.03,
2.418,-0.11,0.06,0.91,-1.16,-0.20,-1.03,
2.42,-0.10,0.06,0.93,-1.16,-0.20,-1.03,
2.42,-0.10,0.06,0.93,-1.08,-0.28,-0.80,
2.422,-0.09,0.06,0.94,-1.08,-0.28,-0.80,
2.426,-0.09,0.06,0.94,-0.91,-0.34,-0.60,
2.426,-0.09,0.05,0.95,-0.91,-0.34,-0.60,
2.428,-0.08,0.05,0.97,-0.91,-0.34,-0.60,
2.43,-0.07,0.04,0.98,-0.91,-0.34,-0.60,
2.431,-0.07,0.04,0.98,-0.73,-0.39,-0.38,
2.433,-0.06,0.04,0.99,-0.73,-0.39,-0.38,
2.435,-0.05,0.04,1.00,-0.73,-0.39,-0.38,
2.435,-0.05,0.04,1.00,-0.61,-0.47,-0.09,
2.438,-0.05,0.04,1.01,-0.61,-0.47,-0.09,
2.44,-0.04,0.03,1.02,-0.61,-0.47,-0.09,
2.441,-0.04,0.03,1.02,-0.42,-0.52,0.14,
2.443,-0.03,0.04,1.02,-0.42,-0.52,0.14,
2.445,-0.04,0.05,1.02,-0.42,-0.52,0.14,
2.446,-0.04,0.05,1.02,-0.30,-0.53,0.28,
2.448,-0.04,0.05,1.02,-0.30,-0.53,0.28,
2.45,-0.04,0.05,1.02,-0.23,-0.47,0.36,
2.45,-0.04,0.06,1.03,-0.23,-0.47,0.36,
2.453,-0.03,0.06,1.02,-0.23,-0.47,0.36,
2.455,-0.03,0.06,1.02,-0.22,-0.37,0.38,
2.456,-0.04,0.08,1.02,-0.22,-0.37,0.38,
2.457,-0.04,0.08,1.02,-0.22,-0.37,0.38,
2.46,-0.05,0.09,1.01,-0.22,-0.37,0.38,
2.46,-0.05,0.09,1.01,-0.22,-0.20,0.38,
2.463,-0.05,0.10,1.01,-0.22,-0.20,0.38,
2.47,-0.06,0.10,1.00,-0.22,-0.20,0.38,
2.471,-0.06,0.10,1.00,-0.34,-0.05,0.30,
2.471,-0.07,0.10,0.99,-0.34,-0.05,0.30,
2.476,-0.07,0.10,0.99,-0.43,0.05,0.17,
2.477,-0.07,0.10,0.98,-0.43,0.05,0.17,
2.477,-0.08,0.11,0.97,-0.43,0.05,0.17,
2.477,-0.08,0.11,0.97,-0.59,0.13,0.01,
2.478,-0.09,0.11,0.96,-0.59,0.13,0.01,
2.478,-0.09,0.11,0.96,-0.59,0.13,0.01,
2.48,-0.09,0.11,0.96,-0.71,0.18,-0.14,
2.481,-0.09,0.11,0.95,-0.71,0.18,-0.14,
2.483,-0.10,0.11,0.95,-0.71,0.18,-0.14,
2.484,-0.10,0.11,0.95,-0.78,0.20,-0.32,
2.485,-0.11,0.12,0.94,-0.78,0.20,-0.32,
2.487,-0.12,0.12,0.93,-0.78,0.20,-0.32,
2.49,-0.12,0.11,0.93,-0.78,0.20,-0.32,
2.491,-0.12,0.11,0.93,-0.97,0.22,-0.40,
2.492,-0.12,0.10,0.92,-0.97,0.22,-0.40,
2.494,-0.13,0.10,0.93,-0.97,0.22,-0.40,
2.495,-0.13,0.10,0.93,-1.06,0.18,-0.50,
2.496,-0.13,0.09,0.93,-1.06,0.18,-0.50,
2.5,-0.13,0.09,0.93,-1.13,0.06,-0.58,
2.501,-0.14,0.10,0.93,-1.13,0.06,-0.58,
2.501,-0.13,0.09,0.93,-1.13,0.06,-0.58,
2.504,-0.13,0.08,0.94,-1.13,0.06,-0.58,
2.504,-0.13,0.08,0.94,-1.22,0.00,-0.52,
2.506,-0.13,0.08,0.95,-1.22,0.00,-0.52,
2.509,-0.13,0.08,0.96,-1.22,0.00,-0.52,
2.51,-0.13,0.08,0.96,-1.19,-0.06,-0.46,
2.512,-0.12,0.08,0.97,-1.19,-0.06,-0.46,
2.515,-0.11,0.08,0.97,-1.19,-0.06,-0.46,
2.515,-0.11,0.08,0.97,-1.15,-0.15,-0.29,
2.517,-0.11,0.07,0.97,-1.15,-0.15,-0.29,
2.519,-0.10,0.07,0.98,-1.15,-0.15,-0.29,
2.519,-0.10,0.07,0.98,-1.01,-0.17,-0.12,
2.522,-0.09,0.07,0.98,-1.01,-0.17,-0.12,
2.524,-0.09,0.07,0.98,-0.89,-0.20,-0.07,
2.525,-0.08,0.08,0.99,-0.89,-0.20,-0.07,
2.527,-0.07,0.08,1.00,-0.89,-0.20,-0.07,
2.529,-0.07,0.08,1.00,-0.89,-0.20,-0.07,
2.53,-0.07,0.08,1.00,-0.68,-0.18,0.06,
2.534,-0.06,0.09,1.00,-0.68,-0.18,0.06,
2.534,-0.05,0.09,1.00,-0.68,-0.18,0.06,
2.534,-0.05,0.09,1.00,-0.58,-0.13,0.16,
2.537,-0.05,0.09,1.01,-0.58,-0.13,0.16,
2.539,-0.04,0.09,1.01,-0.58,-0.13,0.16,
2.54,-0.04,0.09,1.01,-0.44,-0.05,0.19,
2.542,-0.04,0.10,1.01,-0.44,-0.05,0.19,
2.544,-0.05,0.10,1.01,-0.44,-0.05,0.19,
2.545,-0.05,0.10,1.01,-0.33,-0.02,0.24,
2.547,-0.05,0.10,1.00,-0.33,-0.02,0.24,
2.55,-0.05,0.10,1.00,-0.31,0.04,0.27,
2.551,-0.05,0.10,1.00,-0.31,0.04,0.27,
2.551,-0.05,0.11,1.00,-0.31,0.04,0.27,
2.554,-0.05,0.11,1.00,-0.31,0.04,0.27,
2.555,-0.05,0.11,1.00,-0.40,0.07,0.21,
2.557,-0.05,0.11,1.00,-0.40,0.07,0.21,
2.559,-0.04,0.11,0.99,-0.40,0.07,0.21,
2.559,-0.04,0.11,0.99,-0.39,0.12,0.17,
2.562,-0.04,0.12,0.98,-0.39,0.12,0.17,
2.564,-0.04,0.12,0.97,-0.39,0.12,0.17,
2.564,-0.04,0.12,0.97,-0.33,0.16,0.12,
2.567,-0.04,0.12,0.98,-0.33,0.16,0.12,
2.569,-0.05,0.13,0.98,-0.33,0.16,0.12,
2.569,-0.05,0.13,0.98,-0.29,0.22,-0.05,
2.572,-0.06,0.13,0.97,-0.29,0.22,-0.05,
2.574,-0.06,0.13,0.97,-0.35,0.28,-0.06,
2.574,-0.06,0.13,0.96,-0.35,0.28,-0.06,
2.576,-0.07,0.13,0.95,-0.35,0.28,-0.06,
2.579,-0.07,0.13,0.95,-0.48,0.28,-0.18,
2.579,-0.07,0.13,0.95,-0.48,0.28,-0.18,
2.581,-0.07,0.13,0.95,-0.48,0.28,-0.18,
2.583,-0.07,0.13,0.94,-0.48,0.28,-0.18,
2.584,-0.07,0.13,0.94,-0.53,0.30,-0.29,
2.586,-0.06,0.14,0.93,-0.53,0.30,-0.29,
2.589,-0.06,0.13,0.93,-0.53,0.30,-0.29,
2.589,-0.06,0.13,0.93,-0.55,0.32,-0.39,
2.591,-0.06,0.13,0.93,-0.55,0.32,-0.39,
2.594,-0.06,0.13,0.93,-0.48,0.32,-0.48,
2.594,-0.06,0.13,0.93,-0.48,0.32,-0.48,
2.596,-0.07,0.13,0.92,-0.48,0.32,-0.48,
2.604,-0.07,0.13,0.92,-0.50,0.29,-0.46,
2.604,-0.07,0.12,0.93,-0.50,0.29,-0.46,
2.604,-0.08,0.12,0.93,-0.50,0.29,-0.46,
2.605,-0.07,0.12,0.93,-0.50,0.29,-0.46,
2.605,-0.07,0.12,0.93,-0.57,0.24,-0.54,
2.607,-0.07,0.12,0.92,-0.57,0.24,-0.54,
2.608,-0.07,0.12,0.93,-0.57,0.24,-0.54,
2.609,-0.07,0.12,0.93,-0.61,0.19,-0.49,
2.611,-0.07,0.12,0.93,-0.61,0.19,-0.49,
2.613,-0.07,0.12,0.93,-0.57,0.18,-0.51,
2.613,-0.07,0.12,0.93,-0.57,0.18,-0.51,
2.615,-0.07,0.12,0.94,-0.57,0.18,-0.51,
2.618,-0.06,0.12,0.95,-0.57,0.18,-0.51,
2.619,-0.06,0.12,0.95,-0.50,0.17,-0.46,
2.62,-0.05,0.12,0.96,-0.50,0.17,-0.46,
2.623,-0.05,0.12,0.96,-0.46,0.18,-0.33,
2.623,-0.04,0.12,0.97,-0.46,0.18,-0.33,
2.625,-0.04,0.12,0.98,-0.46,0.18,-0.33,
2.628,-0.04,0.12,0.98,-0.46,0.18,-0.33,
2.628,-0.04,0.12,0.98,-0.29,0.19,-0.12,
2.63,-0.03,0.12,0.99,-0.29,0.19,-0.12,
2.633,-0.02,0.12,1.00,-0.29,0.19,-0.12,
2.636,-0.02,0.12,1.00,-0.20,0.18,0.03,
2.636,-0.02,0.12,1.00,-0.20,0.18,0.03,
2.638,-0.01,0.11,1.01,-0.20,0.18,0.03,
2.638,-0.01,0.11,1.01,-0.07,0.17,0.14,
2.64,-0.00,0.11,1.01,-0.07,0.17,0.14,
2.643,-0.00,0.11,1.01,0.05,0.11,0.24,
2.643,0.00,0.11,1.01,0.05,0.11,0.24,
2.645,0.00,0.12,1.01,0.05,0.11,0.24,
2.647,0.00,0.12,1.01,0.16,0.10,0.31,
2.648,0.01,0.11,1.00,0.16,0.10,0.31,
2.65,0.01,0.11,1.00,0.16,0.10,0.31,
2.652,0.01,0.11,1.00,0.16,0.10,0.31,
2.653,0.01,0.11,1.00,0.20,0.10,0.28,
2.655,0.01,0.12,1.00,0.20,0.10,0.28,
2.658,0.00,0.12,1.00,0.20,0.10,0.28,
2.658,0.00,0.12,1.00,0.23,0.09,0.24,
2.66,0.00,0.12,0.98,0.23,0.09,0.24,
2.662,-0.01,0.12,0.98,0.23,0.09,0.24,
2.663,-0.01,0.12,0.98,0.18,0.15,0.21,
2.665,-0.01,0.12,0.98,0.18,0.15,0.21,
2.668,-0.02,0.12,0.97,0.18,0.15,0.21,
2.669,-0.02,0.12,0.97,0.12,0.13,0.02,
2.67,-0.02,0.12,0.96,0.12,0.13,0.02,
2.672,-0.02,0.12,0.96,-0.01,0.15,-0.06,
2.672,-0.03,0.12,0.96,-0.01,0.15,-0.06,
2.674,-0.03,0.13,0.96,-0.01,0.15,-0.06,
2.677,-0.04,0.13,0.95,-0.01,0.15,-0.06,
2.677,-0.04,0.13,0.95,-0.14,0.16,-0.18,
2.679,-0.04,0.13,0.95,-0.14,0.16,-0.18,
2.682,-0.05,0.13,0.95,-0.14,0.16,-0.18,
2.682,-0.05,0.13,0.95,-0.21,0.20,-0.24,
2.685,-0.04,0.13,0.95,-0.21,0.20,-0.24,
2.687,-0.04,0.13,0.95,-0.21,0.20,-0.24,
2.687,-0.04,0.13,0.95,-0.30,0.22,-0.27,
2.689,-0.04,0.13,0.94,-0.30,0.22,-0.27,
2.692,-0.04,0.13,0.94,-0.30,0.22,-0.27,
2.692,-0.04,0.13,0.94,-0.28,0.22,-0.31,
2.694,-0.04,0.13,0.94,-0.28,0.22,-0.31,
2.697,-0.04,0.13,0.94,-0.25,0.20,-0.39,
2.697,-0.04,0.13,0.95,-0.25,0.20,-0.39,
2.706,-0.05,0.12,0.95,-0.25,0.20,-0.39,
2.706,-0.05,0.13,0.95,-0.25,0.20,-0.39,
2.706,-0.05,0.13,0.95,-0.26,0.22,-0.28,
2.707,-0.05,0.13,0.94,-0.26,0.22,-0.28,
2.707,-0.05,0.13,0.94,-0.26,0.22,-0.28,
2.707,-0.05,0.13,0.94,-0.32,0.15,-0.27,
2.709,-0.04,0.14,0.94,-0.32,0.15,-0.27,
2.712,-0.04,0.14,0.94,-0.32,0.15,-0.27,
2.712,-0.04,0.14,0.94,-0.33,0.21,-0.36,
2.714,-0.05,0.14,0.94,-0.33,0.21,-0.36,
2.718,-0.04,0.14,0.94,-0.33,0.21,-0.36,
2.719,-0.04,0.14,0.94,-0.26,0.24,-0.37,
2.719,-0.05,0.15,0.93,-0.26,0.24,-0.37,
2.722,-0.05,0.15,0.93,-0.27,0.26,-0.38,
2.722,-0.04,0.15,0.93,-0.27,0.26,-0.38,
2.724,-0.04,0.15,0.93,-0.27,0.26,-0.38,
2.727,-0.04,0.14,0.93,-0.27,0.26,-0.38,
2.727,-0.04,0.14,0.93,-0.24,0.33,-0.42,
2.729,-0.04,0.14,0.93,-0.24,0.33,-0.42,
2.732,-0.04,0.14,0.93,-0.21,0.33,-0.44,
2.732,-0.04,0.14,0.93,-0.21,0.33,-0.44,
2.734,-0.04,0.14,0.94,-0.21,0.33,-0.44,
2.737,-0.04,0.14,0.94,-0.21,0.33,-0.44,
2.737,-0.04,0.14,0.94,-0.18,0.30,-0.41,
2.739,-0.04,0.14,0.95,-0.18,0.30,-0.41,
2.742,-0.04,0.14,0.95,-0.18,0.30,-0.41,
2.742,-0.04,0.14,0.95,-0.16,0.27,-0.35,
2.744,-0.03,0.15,0.95,-0.16,0.27,-0.35,
2.747,-0.03,0.15,0.95,-0.16,0.29,-0.22,
2.747,-0.03,0.15,0.96,-0.16,0.29,-0.22,
2.75,-0.03,0.15,0.96,-0.16,0.29,-0.22,
2.752,-0.03,0.14,0.97,-0.16,0.29,-0.22,
2.753,-0.03,0.14,0.97,-0.09,0.31,-0.19,
2.754,-0.02,0.14,0.97,-0.09,0.31,-0.19,
2.757,-0.02,0.14,0.97,-0.04,0.32,-0.10,
2.757,-0.02,0.15,0.97,-0.04,0.32,-0.10,
2.759,-0.03,0.15,0.98,-0.04,0.32,-0.10,
2.761,-0.03,0.14,0.99,-0.04,0.32,-0.10,
2.762,-0.03,0.14,0.99,-0.01,0.31,-0.04,
2.764,-0.03,0.14,0.99,-0.01,0.31,-0.04,
2.767,-0.03,0.14,0.99,-0.01,0.31,-0.04,
2.768,-0.03,0.14,0.99,-0.03,0.28,0.09,
2.769,-0.03,0.14,1.00,-0.03,0.28,0.09,
2.772,-0.03,0.14,1.00,-0.05,0.29,0.14,
2.772,-0.03,0.14,1.01,-0.05,0.29,0.14,
2.774,-0.03,0.14,1.01,-0.05,0.29,0.14,
2.776,-0.03,0.14,1.01,-0.05,0.29,0.14,
2.776,-0.03,0.14,1.01,-0.04,0.29,0.28,
2.778,-0.03,0.14,1.01,-0.04,0.29,0.28,
2.781,-0.03,0.14,1.01,-0.04,0.29,0.28,
2.781,-0.03,0.14,1.01,-0.05,0.28,0.34,
2.784,-0.03,0.13,1.02,-0.05,0.28,0.34,
2.786,-0.03,0.13,1.02,-0.05,0.28,0.34,
2.786,-0.03,0.13,1.02,-0.03,0.28,0.36,
2.789,-0.03,0.13,1.02,-0.03,0.28,0.36,
2.791,-0.03,0.13,1.02,-0.03,0.28,0.36,
2.791,-0.03,0.13,1.02,-0.07,0.21,0.40,
2.793,-0.03,0.12,1.02,-0.07,0.21,0.40,
2.796,-0.03,0.12,1.02,-0.08,0.17,0.40,
2.796,-0.03,0.12,1.02,-0.08,0.17,0.40,
2.799,-0.04,0.12,1.02,-0.08,0.17,0.40,
2.802,-0.03,0.12,1.02,-0.08,0.17,0.40,
2.802,-0.03,0.12,1.02,-0.10,0.11,0.44,
2.803,-0.03,0.11,1.02,-0.10,0.11,0.44,
2.806,-0.03,0.11,1.02,-0.10,0.11,0.44,
2.806,-0.03,0.11,1.02,-0.10,0.07,0.41,
2.808,-0.04,0.11,1.01,-0.10,0.07,0.41,
2.812,-0.04,0.11,1.01,-0.10,0.07,0.41,
2.812,-0.04,0.11,1.01,-0.07,0.02,0.38,
2.814,-0.03,0.11,1.01,-0.07,0.02,0.38,
2.816,-0.03,0.11,1.01,-0.07,0.02,0.38,
2.817,-0.03,0.11,1.01,-0.11,0.00,0.35,
2.822,-0.03,0.11,1.00,-0.11,0.00,0.35,
2.823,-0.03,0.11,1.00,-0.05,-0.01,0.28,
2.823,-0.03,0.11,1.00,-0.05,-0.01,0.28,
2.823,-0.03,0.11,1.00,-0.05,-0.01,0.28,
2.826,-0.03,0.11,1.00,-0.02,0.04,0.24,
2.827,-0.02,0.12,1.00,-0.02,0.04,0.24,
2.83,-0.03,0.12,1.00,-0.02,0.04,0.24,
2.831,-0.03,0.12,1.00,-0.02,0.04,0.24,
2.832,-0.03,0.12,1.00,0.04,0.04,0.21,
2.838,-0.03,0.12,1.00,0.04,0.04,0.21,
2.839,-0.03,0.11,1.01,0.04,0.04,0.21,
2.839,-0.03,0.11,1.01,0.01,0.07,0.20,
2.839,-0.03,0.12,1.00,0.01,0.07,0.20,
2.842,-0.02,0.11,1.00,0.01,0.07,0.20,
2.842,-0.02,0.11,1.00,-0.03,0.04,0.26,
2.843,-0.03,0.11,1.01,-0.03,0.04,0.26,
2.845,-0.03,0.11,1.01,0.04,0.04,0.23,
2.846,-0.03,0.11,1.01,0.04,0.04,0.23,
2.848,-0.03,0.11,1.01,0.04,0.04,0.23,
2.851,-0.03,0.10,1.02,0.04,0.04,0.23,
2.851,-0.03,0.10,1.02,0.03,-0.02,0.29,
2.853,-0.03,0.10,1.01,0.03,-0.02,0.29,
2.855,-0.02,0.11,1.02,0.03,-0.02,0.29,
2.856,-0.02,0.11,1.02,0.02,-0.06,0.34,
2.859,-0.02,0.11,1.02,0.02,-0.06,0.34,
2.861,-0.01,0.11,1.02,0.02,-0.06,0.34,
2.861,-0.01,0.11,1.02,0.06,-0.04,0.35,
2.863,-0.00,0.11,1.02,0.06,-0.04,0.35,
2.866,-0.01,0.11,1.02,0.06,-0.04,0.35,
2.866,-0.01,0.11,1.02,0.15,-0.04,0.40,
2.868,-0.00,0.10,1.02,0.15,-0.04,0.40,
2.87,-0.00,0.10,1.02,0.25,-0.04,0.37,
2.871,-0.00,0.10,1.02,0.25,-0.04,0.37,
2.873,0.00,0.10,1.01,0.25,-0.04,0.37,
2.876,0.01,0.10,1.02,0.25,-0.04,0.37,
2.876,0.01,0.10,1.02,0.29,-0.08,0.38,
2.878,0.01,0.09,1.02,0.29,-0.08,0.38,
2.881,0.01,0.09,1.02,0.29,-0.08,0.38,
2.881,0.01,0.09,1.02,0.35,-0.14,0.34,
2.883,0.02,0.09,1.02,0.35,-0.14,0.34,
2.886,0.02,0.09,1.02,0.41,-0.18,0.39,
2.886,0.03,0.10,1.02,0.41,-0.18,0.39,
2.888,0.03,0.09,1.02,0.41,-0.18,0.39,
2.891,0.03,0.09,1.02,0.52,-0.17,0.34,
2.891,0.03,0.09,1.02,0.52,-0.17,0.34,
2.893,0.03,0.10,1.02,0.52,-0.17,0.34,
2.896,0.03,0.10,1.02,0.58,-0.16,0.38,
2.896,0.03,0.09,1.03,0.58,-0.16,0.38,
2.898,0.03,0.10,1.02,0.58,-0.16,0.38,
2.906,0.03,0.10,1.02,0.58,-0.12,0.40,
2.906,0.03,0.10,1.02,0.58,-0.12,0.40,
2.906,0.03,0.10,1.02,0.58,-0.12,0.40,
2.907,0.03,0.10,1.02,0.58,-0.12,0.40,
2.907,0.03,0.10,1.02,0.58,-0.10,0.38,
2.908,0.02,0.10,1.02,0.58,-0.10,0.38,
2.91,0.02,0.10,1.01,0.58,-0.10,0.38,
2.911,0.02,0.10,1.01,0.57,-0.07,0.36,
2.912,0.02,0.10,1.01,0.57,-0.07,0.36,
2.916,0.02,0.10,1.01,0.57,-0.07,0.36,
2.916,0.02,0.10,1.01,0.49,-0.10,0.33,
2.919,0.02,0.10,1.01,0.49,-0.10,0.33,
2.92,0.02,0.10,1.01,0.49,-0.10,0.29,
2.92,0.01,0.10,1.01,0.49,-0.10,0.29,
2.922,0.01,0.10,1.01,0.49,-0.10,0.29,
2.925,0.01,0.10,1.01,0.42,-0.08,0.26,
2.926,0.00,0.10,1.00,0.42,-0.08,0.26,
2.928,0.00,0.10,1.00,0.42,-0.08,0.26,
2.93,-0.00,0.11,1.00,0.42,-0.08,0.26,
2.931,-0.00,0.11,1.00,0.33,-0.09,0.23,
2.933,-0.01,0.10,1.00,0.33,-0.09,0.23,
2.935,-0.01,0.11,1.00,0.33,-0.09,0.23,
2.935,-0.01,0.11,1.00,0.27,-0.06,0.19,
2.937,-0.02,0.11,1.00,0.27,-0.06,0.19,
2.94,-0.02,0.11,1.00,0.27,-0.06,0.19,
2.94,-0.02,0.11,1.00,0.19,-0.04,0.16,
2.943,-0.03,0.11,1.00,0.19,-0.04,0.16,
2.945,-0.03,0.11,1.00,0.10,0.01,0.18,
2.946,-0.03,0.12,1.00,0.10,0.01,0.18,
2.948,-0.03,0.12,1.00,0.10,0.01,0.18,
2.95,-0.03,0.12,1.00,0.02,0.04,0.16,
2.95,-0.03,0.12,1.00,0.02,0.04,0.16,
2.953,-0.03,0.12,1.00,0.02,0.04,0.16,
2.954,-0.03,0.12,1.01,0.02,0.04,0.16,
2.955,-0.03,0.12,1.01,-0.03,0.05,0.14,
2.957,-0.03,0.12,1.01,-0.03,0.05,0.14,
2.959,-0.03,0.12,1.01,-0.03,0.06,0.19,
2.96,-0.03,0.12,1.01,-0.03,0.06,0.19,
2.962,-0.03,0.12,1.01,-0.03,0.06,0.19,
2.964,-0.03,0.12,1.02,-0.03,0.06,0.19,
2.965,-0.03,0.12,1.02,0.02,0.07,0.24,
2.968,-0.02,0.12,1.02,0.02,0.07,0.24,
2.969,-0.02,0.12,1.02,0.02,0.05,0.29,
2.97,-0.02,0.12,1.02,0.02,0.05,0.29,
2.972,-0.02,0.12,1.03,0.02,0.05,0.29,
2.974,-0.01,0.12,1.03,0.02,0.05,0.29,
2.974,-0.01,0.12,1.03,0.07,0.06,0.35,
2.976,-0.01,0.11,1.03,0.07,0.06,0.35,
2.98,-0.01,0.11,1.03,0.07,0.06,0.35,
2.98,-0.01,0.11,1.03,0.15,0.05,0.44,
2.982,-0.00,0.11,1.04,0.15,0.05,0.44,
2.985,-0.00,0.11,1.04,0.15,0.05,0.44,
2.986,-0.00,0.11,1.04,0.20,0.02,0.47,
2.986,-0.00,0.11,1.03,0.20,0.02,0.47,
2.989,0.00,0.11,1.03,0.20,0.02,0.47,
2.989,0.00,0.11,1.03,0.25,0.02,0.48,
2.991,0.01,0.11,1.03,0.25,0.02,0.48,
2.994,0.01,0.11,1.03,0.29,-0.00,0.42,
2.994,0.01,0.10,1.03,0.29,-0.00,0.42,
2.996,0.00,0.10,1.02,0.29,-0.00,0.42,
2.999,0.01,0.10,1.02,0.29,-0.00,0.42,
2.999,0.01,0.10,1.02,0.35,-0.06,0.41,
3.003,0.01,0.10,1.02,0.35,-0.06,0.41,
3.005,0.01,0.11,1.02,0.35,-0.06,0.41,
3.005,0.01,0.11,1.02,0.33,-0.07,0.36,
3.006,0.01,0.10,1.02,0.33,-0.07,0.36,
3.009,0.01,0.11,1.02,0.33,-0.07,0.36,
3.009,0.01,0.11,1.02,0.39,-0.07,0.33,
3.011,0.01,0.11,1.01,0.39,-0.07,0.33,
3.014,0.01,0.11,1.01,0.39,-0.07,0.33,
3.014,0.01,0.11,1.01,0.40,-0.06,0.29,
3.016,0.01,0.11,1.01,0.40,-0.06,0.29,
3.019,0.01,0.11,1.01,0.40,0.01,0.21,
3.02,0.01,0.11,1.01,0.40,0.01,0.21,
3.021,0.01,0.12,1.00,0.40,0.01,0.21,
3.024,0.00,0.12,1.01,0.40,0.01,0.21,
3.024,0.00,0.12,1.01,0.40,-0.02,0.19,
3.026,0.00,0.12,1.00,0.40,-0.02,0.19,
3.029,0.00,0.13,1.00,0.40,-0.02,0.19,
3.029,0.00,0.13,1.00,0.33,0.04,0.16,
3.031,-0.00,0.13,0.99,0.33,0.04,0.16,
3.039,0.00,0.13,0.98,0.33,0.04,0.16,
3.039,0.00,0.13,0.98,0.31,0.09,0.11,
3.039,0.00,0.14,0.98,0.31,0.09,0.11,
3.04,-0.00,0.14,0.97,0.31,0.09,0.11,
3.041,-0.00,0.14,0.97,0.28,0.14,-0.02,
3.041,-0.01,0.14,0.97,0.28,0.14,-0.02,
3.044,-0.01,0.14,0.97,0.27,0.19,-0.10,
3.044,-0.01,0.14,0.97,0.27,0.19,-0.10,
3.047,-0.01,0.14,0.97,0.27,0.19,-0.10,
3.048,-0.01,0.14,0.96,0.27,0.19,-0.10,
3.049,-0.01,0.14,0.96,0.20,0.19,-0.18,
3.051,-0.01,0.14,0.96,0.20,0.19,-0.18,
3.053,-0.01,0.14,0.96,0.20,0.19,-0.18,
3.054,-0.01,0.14,0.96,0.19,0.22,-0.23,
3.056,-0.01,0.15,0.96,0.19,0.22,-0.23,
3.058,-0.02,0.15,0.95,0.19,0.22,-0.23,
3.059,-0.02,0.15,0.95,0.18,0.22,-0.29,
3.061,-0.01,0.15,0.95,0.18,0.22,-0.29,
3.063,-0.01,0.16,0.96,0.18,0.22,-0.29,
3.063,-0.01,0.16,0.96,0.14,0.26,-0.31,
3.066,-0.01,0.15,0.97,0.14,0.26,-0.31,
3.068,-0.01,0.15,0.97,0.21,0.31,-0.30,
3.069,-0.02,0.15,0.98,0.21,0.31,-0.30,
3.071,-0.02,0.15,0.98,0.21,0.31,-0.30,
3.073,-0.02,0.15,0.98,0.21,0.31,-0.30,
3.074,-0.02,0.15,0.98,0.17,0.29,-0.12,
3.075,-0.01,0.15,0.97,0.17,0.29,-0.12,
3.078,-0.02,0.14,0.97,0.17,0.29,-0.12,
3.079,-0.02,0.14,0.97,0.12,0.27,-0.08,
3.08,-0.01,0.14,0.98,0.12,0.27,-0.08,
3.083,-0.02,0.14,0.99,0.12,0.27,-0.08,
3.083,-0.02,0.14,0.99,0.15,0.23,-0.15,
3.086,-0.02,0.14,0.99,0.15,0.23,-0.15,
3.088,-0.01,0.13,1.00,0.15,0.23,-0.15,
3.088,-0.01,0.13,1.00,0.15,0.18,0.02,
3.09,-0.01,0.13,1.00,0.15,0.18,0.02,
3.093,-0.01,0.13,1.00,0.15,0.09,0.08,
3.093,-0.01,0.12,1.01,0.15,0.09,0.08,
3.095,-0.00,0.12,1.01,0.15,0.09,0.08,
3.098,-0.00,0.12,1.01,0.16,0.05,0.18,
3.098,-0.00,0.12,1.02,0.16,0.05,0.18,
3.1,-0.01,0.13,1.03,0.16,0.05,0.18,
3.104,0.00,0.12,1.03,0.16,0.05,0.18,
3.104,0.00,0.12,1.03,0.25,0.03,0.27,
3.105,0.00,0.12,1.03,0.25,0.03,0.27,
3.108,0.00,0.11,1.04,0.25,0.03,0.27,
3.108,0.00,0.11,1.04,0.26,0.02,0.41,
3.11,0.01,0.12,1.04,0.26,0.02,0.41,
3.113,0.00,0.12,1.04,0.26,0.02,0.41,
3.113,0.00,0.12,1.04,0.31,-0.05,0.44,
3.115,0.00,0.12,1.04,0.31,-0.05,0.44,
3.123,0.00,0.12,1.04,0.32,-0.00,0.49,
3.123,0.01,0.12,1.04,0.32,-0.00,0.49,
3.124,0.01,0.12,1.04,0.32,-0.00,0.49,
3.124,0.01,0.12,1.03,0.32,-0.00,0.49,
3.127,0.01,0.12,1.03,0.33,-0.03,0.49,
3.128,0.01,0.12,1.02,0.33,-0.03,0.49,
3.128,0.01,0.11,1.01,0.33,-0.03,0.49,
3.131,0.01,0.11,1.01,0.36,-0.02,0.44,
3.131,0.01,0.12,1.01,0.36,-0.02,0.44,
3.133,0.01,0.12,1.00,0.36,-0.02,0.44,
3.133,0.01,0.12,1.00,0.39,-0.04,0.27,
3.135,0.01,0.12,1.00,0.39,-0.04,0.27,
3.138,0.02,0.12,0.99,0.39,-0.04,0.27,
3.138,0.02,0.12,0.99,0.40,-0.03,0.15,
3.142,0.02,0.12,0.98,0.40,-0.03,0.15,
3.143,0.02,0.12,0.98,0.41,-0.02,0.04,
3.143,0.01,0.12,0.98,0.41,-0.02,0.04,
3.145,0.01,0.12,0.96,0.41,-0.02,0.04,
3.148,0.01,0.13,0.96,0.41,-0.02,0.04,
3.148,0.01,0.13,0.96,0.40,-0.03,-0.07,
3.15,0.00,0.12,0.96,0.40,-0.03,-0.07,
3.153,0.00,0.13,0.95,0.40,-0.03,-0.07,
3.153,0.00,0.13,0.95,0.36,-0.03,-0.24,
3.155,0.00,0.13,0.95,0.36,-0.03,-0.24,
3.158,0.00,0.13,0.95,0.32,-0.00,-0.31,
3.158,-0.01,0.13,0.94,0.32,-0.00,-0.31,
3.16,-0.01,0.13,0.94,0.32,-0.00,-0.31,
3.163,-0.01,0.13,0.94,0.32,-0.00,-0.31,
3.163,-0.01,0.13,0.94,0.24,0.06,-0.40,
3.165,-0.02,0.13,0.94,0.24,0.06,-0.40,
3.17,-0.02,0.13,0.94,0.21,0.06,-0.45,
3.17,-0.02,0.13,0.94,0.21,0.06,-0.45,
3.17,-0.02,0.14,0.93,0.21,0.06,-0.45,
3.172,-0.02,0.13,0.94,0.21,0.06,-0.45,
3.173,-0.02,0.13,0.94,0.08,0.04,-0.45,
3.174,-0.03,0.13,0.95,0.08,0.04,-0.45,
3.178,-0.03,0.14,0.95,0.08,0.04,-0.45,
3.178,-0.03,0.14,0.95,0.09,0.08,-0.47,
3.18,-0.02,0.14,0.95,0.09,0.08,-0.47,
3.183,-0.02,0.14,0.95,0.09,0.08,-0.47,
3.183,-0.02,0.14,0.95,0.03,0.05,-0.37,
3.185,-0.02,0.14,0.96,0.03,0.05,-0.37,
3.187,-0.02,0.14,0.96,0.03,0.05,-0.37,
3.188,-0.02,0.14,0.96,0.07,0.13,-0.33,
3.19,-0.02,0.14,0.96,0.07,0.13,-0.33,
3.193,-0.02,0.14,0.96,0.10,0.13,-0.23,
3.193,-0.02,0.14,0.97,0.10,0.13,-0.23,
3.195,-0.01,0.14,0.98,0.10,0.13,-0.23,
3.198,-0.01,0.13,0.99,0.10,0.13,-0.23,
3.198,-0.01,0.13,0.99,0.11,0.10,-0.18,
3.2,-0.01,0.13,1.00,0.11,0.10,-0.18,
3.202,-0.01,0.13,1.00,0.11,0.10,-0.18,
3.203,-0.01,0.13,1.00,0.16,0.08,0.02,
3.205,-0.01,0.13,1.00,0.16,0.08,0.02,
3.208,-0.01,0.13,1.00,0.18,0.00,0.11,
3.208,-0.00,0.13,1.01,0.18,0.00,0.11,
3.21,-0.00,0.13,1.01,0.18,0.00,0.11,
3.213,0.00,0.12,1.01,0.18,0.00,0.11,
3.213,0.00,0.12,1.01,0.23,0.01,0.22,
3.215,0.01,0.12,1.01,0.23,0.01,0.22,
3.218,0.01,0.12,1.01,0.28,-0.02,0.26,
3.218,0.01,0.12,1.02,0.28,-0.02,0.26,
3.22,0.00,0.12,1.03,0.28,-0.02,0.26,
3.222,0.00,0.12,1.03,0.28,-0.02,0.26,
3.222,0.00,0.12,1.03,0.35,-0.04,0.33,
3.225,0.01,0.12,1.02,0.35,-0.04,0.33,
3.227,0.01,0.12,1.03,0.35,-0.04,0.33,
3.228,0.01,0.12,1.03,0.31,-0.05,0.43,
3.23,0.01,0.12,1.02,0.31,-0.05,0.43,
3.232,0.00,0.12,1.02,0.31,-0.05,0.43,
3.233,0.00,0.12,1.02,0.34,-0.04,0.39,
3.235,0.00,0.12,1.02,0.34,-0.04,0.39,
3.24,-0.00,0.13,1.01,0.34,-0.04,0.39,
3.241,-0.00,0.13,1.01,0.33,-0.04,0.36,
3.241,-0.00,0.13,1.01,0.33,-0.04,0.36,
3.242,-0.00,0.13,1.01,0.28,-0.02,0.28,
3.242,-0.00,0.13,1.01,0.28,-0.02,0.28,
3.244,-0.01,0.13,1.01,0.28,-0.02,0.28,
3.247,-0.01,0.13,1.01,0.28,-0.02,0.28,
3.247,-0.01,0.13,1.01,0.26,0.02,0.24,
3.249,-0.01,0.13,1.00,0.26,0.02,0.24,
3.254,-0.01,0.13,0.99,0.26,0.02,0.24,
3.254,-0.01,0.13,0.99,0.22,-0.01,0.19,
3.254,-0.01,0.13,0.99,0.22,-0.01,0.19,
3.257,-0.01,0.14,0.99,0.22,-0.01,0.19,
3.257,-0.01,0.14,0.99,0.20,0.04,0.09,
3.259,-0.00,0.14,0.98,0.20,0.04,0.09,
3.261,-0.00,0.14,0.97,0.20,0.04,0.09,
3.262,-0.00,0.14,0.97,0.22,0.05,0.02,
3.264,-0.01,0.14,0.97,0.22,0.05,0.02,
3.266,-0.01,0.14,0.97,0.22,0.05,0.02,
3.266,-0.01,0.14,0.97,0.27,0.14,-0.11,
3.269,-0.01,0.14,0.96,0.27,0.14,-0.11,
3.271,-0.01,0.14,0.97,0.27,0.14,-0.11,
3.271,-0.01,0.14,0.97,0.22,0.10,-0.18,
3.274,-0.02,0.14,0.96,0.22,0.10,-0.18,
3.276,-0.01,0.13,0.96,0.22,0.10,-0.18,
3.276,-0.01,0.13,0.96,0.22,0.07,-0.21,
3.279,-0.01,0.14,0.96,0.22,0.07,-0.21,
3.281,-0.01,0.14,0.96,0.14,0.04,-0.24,
3.281,-0.02,0.14,0.96,0.14,0.04,-0.24,
3.283,-0.02,0.14,0.96,0.14,0.04,-0.24,
3.288,-0.02,0.13,0.97,0.14,0.04,-0.24,
3.289,-0.02,0.13,0.97,0.15,0.08,-0.26,
3.289,-0.02,0.14,0.97,0.15,0.08,-0.26,
3.291,-0.02,0.14,0.97,0.09,0.04,-0.21,
3.291,-0.02,0.13,0.97,0.09,0.04,-0.21,
3.294,-0.03,0.13,0.97,0.09,0.04,-0.21,
3.296,-0.03,0.13,0.98,0.09,0.04,-0.21,
3.296,-0.03,0.13,0.98,0.10,0.05,-0.17,
3.298,-0.03,0.13,0.99,0.10,0.05,-0.17,
3.303,-0.03,0.13,0.99,0.10,0.05,-0.17,
3.306,-0.03,0.13,0.99,0.00,0.02,-0.09,
3.306,-0.04,0.13,1.00,0.00,0.02,-0.09,
3.307,-0.03,0.14,1.00,0.00,0.02,-0.09,
3.307,-0.03,0.14,1.00,-0.01,0.04,0.01,
3.308,-0.03,0.13,1.01,-0.01,0.04,0.01,
3.311,-0.03,0.13,1.01,-0.01,0.04,0.01,
3.311,-0.03,0.13,1.01,-0.04,0.04,0.14,
3.313,-0.03,0.14,1.02,-0.04,0.04,0.14,
3.316,-0.03,0.14,1.02,-0.01,0.04,0.24,
3.316,-0.03,0.13,1.02,-0.01,0.04,0.24,
3.32,-0.03,0.14,1.03,-0.01,0.04,0.24,
3.321,-0.02,0.14,1.03,-0.01,0.04,0.24,
3.321,-0.02,0.14,1.03,0.03,0.05,0.30,
3.323,-0.02,0.14,1.03,0.03,0.05,0.30,
3.326,-0.02,0.14,1.03,0.03,0.05,0.30,
3.326,-0.02,0.14,1.03,0.02,0.11,0.40,
3.328,-0.02,0.14,1.03,0.02,0.11,0.40,
3.331,-0.02,0.15,1.04,0.02,0.11,0.40,
3.331,-0.02,0.15,1.04,0.07,0.13,0.41,
3.333,-0.02,0.15,1.03,0.07,0.13,0.41,
3.336,-0.02,0.15,1.03,0.07,0.13,0.41,
3.337,-0.02,0.15,1.03,0.09,0.15,0.46,
3.338,-0.03,0.15,1.03,0.09,0.15,0.46,
3.341,-0.02,0.14,1.02,0.09,0.15,0.46,
3.341,-0.02,0.14,1.02,0.09,0.17,0.43,
3.343,-0.03,0.14,1.02,0.09,0.17,0.43,
3.345,-0.03,0.14,1.02,0.07,0.16,0.37,
3.346,-0.02,0.14,1.02,0.07,0.16,0.37,
3.348,-0.02,0.14,1.02,0.07,0.16,0.37,
3.35,-0.02,0.14,1.01,0.07,0.16,0.37,
3.351,-0.02,0.14,1.01,0.05,0.11,0.32,
3.357,-0.02,0.14,1.01,0.05,0.11,0.32,
3.357,-0.02,0.14,1.01,0.05,0.11,0.32,
3.358,-0.02,0.14,1.01,0.07,0.13,0.25,
3.36,-0.02,0.13,1.00,0.07,0.13,0.25,
3.365,-0.02,0.13,1.00,0.07,0.13,0.25,
3.366,-0.02,0.13,1.00,0.13,0.07,0.18,
3.366,-0.01,0.13,0.99,0.13,0.07,0.18,
3.366,-0.01,0.13,0.99,0.10,0.00,0.07,
3.366,-0.01,0.13,0.99,0.10,0.00,0.07,
3.367,-0.01,0.13,0.97,0.10,0.00,0.07,
3.371,-0.01,0.13,0.98,0.10,0.00,0.07,
3.372,-0.01,0.13,0.98,0.16,-0.02,-0.00,
3.372,-0.01,0.13,0.97,0.16,-0.02,-0.00,
3.375,-0.01,0.13,0.97,0.16,-0.02,-0.00,
3.376,-0.01,0.13,0.97,0.16,-0.02,-0.14,
3.378,-0.01,0.13,0.96,0.16,-0.02,-0.14,
3.38,-0.02,0.13,0.96,0.16,-0.02,-0.14,
3.38,-0.02,0.13,0.96,0.14,-0.03,-0.17,
3.382,-0.01,0.13,0.96,0.14,-0.03,-0.17,
3.386,-0.02,0.14,0.97,0.14,-0.03,-0.17,
3.387,-0.02,0.14,0.97,0.12,-0.00,-0.24,
3.387,-0.02,0.14,0.97,0.12,-0.00,-0.24,
3.39,-0.02,0.14,0.97,0.13,0.01,-0.24,
3.391,-0.02,0.13,0.96,0.13,0.01,-0.24,
3.392,-0.02,0.14,0.97,0.13,0.01,-0.24,
3.395,-0.02,0.14,0.97,0.13,0.01,-0.24,
3.395,-0.02,0.14,0.97,0.11,0.05,-0.23,
3.397,-0.03,0.14,0.97,0.11,0.05,-0.23,
3.401,-0.02,0.13,0.98,0.11,0.05,-0.23,
3.401,-0.02,0.13,0.98,0.07,0.04,-0.16,
3.404,-0.02,0.13,0.98,0.07,0.04,-0.16,
3.405,-0.03,0.13,0.99,0.07,0.04,-0.16,
3.405,-0.03,0.13,0.99,0.05,0.02,-0.16,
3.407,-0.02,0.13,0.99,0.05,0.02,-0.16,
3.41,-0.02,0.13,0.99,0.05,0.02,-0.16,
3.41,-0.02,0.13,0.99,0.05,0.01,-0.04,
3.412,-0.02,0.14,1.00,0.05,0.01,-0.04,
3.416,-0.02,0.14,1.00,0.10,0.01,0.02,
3.416,-0.01,0.14,1.00,0.10,0.01,0.02,
3.417,-0.02,0.13,1.01,0.10,0.01,0.02,
3.42,-0.02,0.13,1.01,0.10,0.01,0.02,
3.421,-0.02,0.13,1.01,0.13,0.06,0.10,
3.422,-0.02,0.13,1.01,0.13,0.06,0.10,
3.425,-0.02,0.13,1.02,0.13,0.06,0.10,
3.425,-0.02,0.13,1.02,0.08,0.01,0.20,
3.427,-0.02,0.13,1.02,0.08,0.01,0.20,
3.43,-0.02,0.13,1.02,0.08,0.01,0.20,
3.43,-0.02,0.13,1.02,0.07,0.01,0.23,
3.432,-0.02,0.13,1.01,0.07,0.01,0.23,
3.435,-0.02,0.13,1.01,0.07,0.01,0.23,
3.435,-0.02,0.13,1.01,0.08,0.00,0.28,
3.437,-0.02,0.13,1.02,0.08,0.00,0.28,
3.44,-0.02,0.13,1.02,0.12,0.00,0.23,
3.44,-0.02,0.13,1.02,0.12,0.00,0.23,
3.442,-0.02,0.13,1.02,0.12,0.00,0.23,
3.445,-0.02,0.13,1.01,0.12,0.00,0.23,
3.445,-0.02,0.13,1.01,0.12,-0.03,0.27,
3.447,-0.02,0.13,1.01,0.12,-0.03,0.27,
3.449,-0.03,0.13,1.01,0.12,-0.03,0.27,
3.45,-0.03,0.13,1.01,0.10,-0.03,0.27,
3.457,-0.02,0.13,1.01,0.10,-0.03,0.27,
3.458,-0.02,0.13,1.01,0.10,-0.03,0.27,
3.458,-0.02,0.13,1.01,0.06,-0.01,0.24,
3.458,-0.02,0.13,1.01,0.06,-0.01,0.24,
3.461,-0.02,0.13,1.01,0.06,-0.01,0.24,
3.461,-0.02,0.13,1.01,0.08,-0.01,0.20,
3.462,-0.02,0.14,1.00,0.08,-0.01,0.20,
3.465,-0.02,0.14,1.00,0.08,0.03,0.21,
3.465,-0.01,0.14,1.00,0.08,0.03,0.21,
3.467,-0.01,0.14,1.00,0.08,0.03,0.21,
3.47,-0.01,0.14,0.99,0.08,0.03,0.21,
3.471,-0.01,0.14,0.99,0.12,0.03,0.12,
3.472,-0.02,0.13,0.99,0.12,0.03,0.12,
3.475,-0.02,0.14,0.99,0.12,0.03,0.12,
3.476,-0.02,0.14,0.99,0.16,0.05,0.05,
3.477,-0.01,0.13,0.99,0.16,0.05,0.05,
3.48,-0.01,0.13,0.99,0.13,0.02,-0.01,
3.48,-0.01,0.13,0.98,0.13,0.02,-0.01,
3.482,-0.01,0.13,0.98,0.13,0.02,-0.01,
3.485,-0.01,0.13,0.98,0.13,0.02,-0.01,
3.485,-0.01,0.13,0.98,0.16,-0.00,-0.03,
3.487,-0.01,0.13,0.98,0.16,-0.00,-0.03,
3.489,-0.01,0.13,0.98,0.18,-0.04,-0.09,
3.489,-0.01,0.13,0.98,0.18,-0.04,-0.09,
3.492,-0.01,0.13,0.98,0.18,-0.04,-0.09,
3.494,-0.01,0.13,0.98,0.18,-0.04,-0.09,
3.494,-0.01,0.13,0.98,0.18,-0.04,-0.07,
3.497,-0.01,0.13,0.99,0.18,-0.04,-0.07,
3.5,-0.01,0.13,0.99,0.18,-0.04,-0.07,
3.5,-0.01,0.13,0.99,0.18,-0.04,-0.06,
3.502,-0.01,0.13,0.99,0.18,-0.04,-0.06,
3.505,-0.01,0.12,1.00,0.18,-0.04,-0.06,
3.505,-0.01,0.12,1.00,0.16,-0.05,-0.00,
3.506,-0.01,0.12,1.00,0.16,-0.05,-0.00,
3.509,-0.01,0.12,1.00,0.16,-0.05,-0.00,
3.509,-0.01,0.12,1.00,0.16,-0.07,0.09,
3.512,-0.01,0.12,1.02,0.16,-0.07,0.09,
3.515,-0.01,0.12,1.02,0.19,-0.09,0.14,
3.515,-0.01,0.12,1.02,0.19,-0.09,0.14,
3.517,-0.01,0.12,1.03,0.19,-0.09,0.14,
3.522,-0.00,0.12,1.03,0.19,-0.09,0.14,
3.522,-0.00,0.12,1.03,0.18,-0.12,0.29,
3.522,-0.01,0.12,1.04,0.18,-0.12,0.29,
3.524,-0.01,0.12,1.04,0.18,-0.12,0.29,
3.524,-0.01,0.12,1.04,0.23,-0.12,0.36,
3.527,-0.00,0.11,1.04,0.23,-0.12,0.36,
3.529,-0.01,0.12,1.04,0.23,-0.12,0.36,
3.53,-0.01,0.12,1.04,0.20,-0.13,0.47,
3.532,0.00,0.12,0.99,0.20,-0.13,0.47,
3.534,-0.02,0.12,0.82,0.20,-0.13,0.47,
3.535,-0.02,0.12,0.82,0.22,-0.16,0.47,
3.536,-0.07,0.15,0.71,0.22,-0.16,0.47,
3.539,-0.07,0.15,0.71,0.20,-0.12,-0.83,
3.539,-0.04,0.16,0.82,0.20,-0.12,-0.83,
3.542,-0.00,0.17,0.95,0.20,-0.12,-0.83,
3.544,0.00,0.18,0.98,0.20,-0.12,-0.83,
3.545,0.00,0.18,0.98,-0.28,0.22,-2.23,
3.546,-0.00,0.18,0.96,-0.28,0.22,-2.23,
3.548,-0.02,0.17,0.93,-0.28,0.22,-2.23,
3.549,-0.02,0.17,0.93,0.30,0.42,-0.27,
3.552,-0.05,0.17,0.94,0.30,0.42,-0.27,
3.558,-0.06,0.16,0.96,0.30,0.42,-0.27,
3.558,-0.06,0.16,0.96,0.16,0.43,-0.41,
3.558,-0.05,0.15,0.97,0.16,0.43,-0.41,
3.559,-0.04,0.14,0.97,0.16,0.43,-0.41,
3.559,-0.04,0.14,0.97,-0.24,0.33,-0.38,
3.568,-0.03,0.14,0.97,-0.24,0.33,-0.38,
3.569,-0.03,0.14,0.97,-0.13,0.16,-0.17,
3.569,-0.02,0.14,0.97,-0.13,0.16,-0.17,
3.57,-0.02,0.14,0.98,-0.13,0.16,-0.17,
3.57,-0.01,0.14,1.00,-0.13,0.16,-0.17,
3.57,-0.01,0.14,1.00,0.06,0.11,-0.17,
3.571,-0.01,0.14,1.02,0.06,0.11,-0.17,
3.573,0.00,0.13,1.04,0.06,0.11,-0.17,
3.573,0.00,0.13,1.04,0.15,0.08,0.02,
3.576,-0.00,0.13,1.06,0.15,0.08,0.02,
3.579,-0.00,0.13,1.06,0.28,0.08,0.39,
3.579,0.00,0.13,1.08,0.28,0.08,0.39,
3.581,0.01,0.13,1.08,0.28,0.08,0.39,
3.583,0.00,0.12,1.09,0.28,0.08,0.39,
3.583,0.00,0.12,1.09,0.31,0.03,0.81,
3.586,0.00,0.12,1.10,0.31,0.03,0.81,
3.589,0.00,0.12,1.09,0.31,0.03,0.81,
3.589,0.00,0.12,1.09,0.34,-0.02,0.96,
3.59,-0.01,0.12,1.09,0.34,-0.02,0.96,
3.593,-0.01,0.11,1.07,0.34,-0.02,0.96,
3.593,-0.01,0.11,1.07,0.33,-0.08,1.02,
3.596,-0.02,0.12,1.05,0.33,-0.08,1.02,
3.598,-0.02,0.12,1.05,0.19,-0.14,0.87,
3.598,-0.03,0.12,1.03,0.19,-0.14,0.87,
3.601,-0.04,0.12,1.02,0.19,-0.14,0.87,
3.603,-0.04,0.12,1.02,0.04,-0.13,0.51,
3.604,-0.05,0.12,1.00,0.04,-0.13,0.51,
3.606,-0.05,0.13,0.98,0.04,-0.13,0.51,
3.609,-0.05,0.13,0.97,0.04,-0.13,0.51,
3.609,-0.05,0.13,0.97,-0.12,-0.11,0.20,
3.611,-0.05,0.13,0.96,-0.12,-0.11,0.20,
3.614,-0.05,0.14,0.95,-0.12,-0.11,0.20,
3.614,-0.05,0.14,0.95,-0.18,-0.04,-0.12,
3.616,-0.06,0.14,0.94,-0.18,-0.04,-0.12,
3.618,-0.06,0.14,0.93,-0.18,-0.04,-0.12,
3.618,-0.06,0.14,0.93,-0.24,0.02,-0.35,
3.623,-0.06,0.14,0.93,-0.24,0.02,-0.35,
3.623,-0.07,0.14,0.93,-0.24,0.02,-0.35,
3.625,-0.07,0.14,0.93,-0.28,0.03,-0.54,
