
time,gFx,gFy,gFz,ax,ay,az,
0.006,-0.05,0.11,0.96,-0.45,0.12,-0.50,
0.007,-0.05,0.11,0.97,-0.45,0.12,-0.50,
0.007,-0.05,0.11,0.97,-0.41,0.13,-0.50,
0.007,-0.05,0.11,0.97,-0.41,0.13,-0.50,
0.007,-0.04,0.11,0.98,-0.41,0.13,-0.50,
0.007,-0.04,0.11,0.98,-0.39,0.16,-0.35,
0.008,-0.04,0.11,0.99,-0.39,0.16,-0.35,
0.014,-0.03,0.11,1.00,-0.39,0.16,-0.35,
0.014,-0.03,0.11,1.00,-0.30,0.16,-0.19,
0.015,-0.02,0.11,1.00,-0.30,0.16,-0.19,
0.015,-0.02,0.10,1.01,-0.30,0.16,-0.19,
0.015,-0.02,0.10,1.01,-0.22,0.11,-0.06,
0.016,-0.01,0.10,1.02,-0.22,0.11,-0.06,
0.019,-0.01,0.10,1.03,-0.22,0.11,-0.06,
0.019,-0.01,0.10,1.03,-0.08,0.08,0.08,
0.026,0.00,0.10,1.04,-0.08,0.08,0.08,
0.027,0.01,0.10,1.04,-0.08,0.08,0.08,
0.027,0.01,0.10,1.04,0.05,0.03,0.29,
0.027,0.01,0.10,1.05,0.05,0.03,0.29,
0.029,0.02,0.09,1.06,0.05,0.03,0.29,
0.029,0.02,0.09,1.06,0.18,0.01,0.39,
0.031,0.02,0.09,1.06,0.18,0.01,0.39,
0.033,0.02,0.09,1.06,0.18,0.01,0.39,
0.034,0.02,0.09,1.06,0.30,-0.01,0.55,
0.036,0.03,0.09,1.07,0.30,-0.01,0.55,
0.046,0.03,0.08,1.07,0.30,-0.01,0.55,
0.047,0.03,0.08,1.07,0.36,-0.03,0.61,
0.047,0.02,0.08,1.08,0.36,-0.03,0.61,
0.047,0.02,0.08,1.08,0.37,-0.09,0.70,
0.047,0.02,0.08,1.08,0.37,-0.09,0.70,
0.048,0.02,0.08,1.07,0.37,-0.09,0.70,
0.049,0.02,0.08,1.07,0.37,-0.09,0.70,
0.049,0.02,0.08,1.07,0.34,-0.13,0.75,
0.05,0.02,0.08,1.06,0.34,-0.13,0.75,
0.053,0.01,0.08,1.05,0.34,-0.13,0.75,
0.054,0.01,0.08,1.05,0.34,-0.15,0.69,
0.063,0.01,0.08,1.05,0.34,-0.15,0.69,
0.063,0.01,0.08,1.03,0.34,-0.15,0.69,
0.064,0.01,0.08,1.03,0.28,-0.19,0.54,
0.064,0.00,0.08,1.02,0.28,-0.19,0.54,
0.064,-0.00,0.08,1.02,0.28,-0.19,0.54,
0.064,-0.00,0.08,1.02,0.21,-0.17,0.39,
0.065,-0.01,0.08,1.01,0.21,-0.17,0.39,
0.068,-0.01,0.09,1.00,0.21,-0.17,0.39,
0.068,-0.01,0.09,1.00,0.09,-0.16,0.20,
0.078,-0.02,0.09,0.99,0.09,-0.16,0.20,
0.078,-0.02,0.09,0.98,0.09,-0.16,0.20,
0.079,-0.02,0.09,0.98,-0.01,-0.13,0.02,
0.079,-0.02,0.09,0.97,-0.01,-0.13,0.02,
0.079,-0.02,0.09,0.97,-0.09,-0.05,-0.13,
0.079,-0.03,0.10,0.97,-0.09,-0.05,-0.13,
0.08,-0.03,0.10,0.96,-0.09,-0.05,-0.13,
0.083,-0.03,0.10,0.96,-0.09,-0.05,-0.13,
0.083,-0.03,0.10,0.96,-0.14,-0.05,-0.30,
0.085,-0.03,0.11,0.95,-0.14,-0.05,-0.30,
0.097,-0.03,0.10,0.95,-0.14,-0.05,-0.30,
0.098,-0.03,0.10,0.95,-0.21,0.00,-0.42,
0.098,-0.02,0.11,0.95,-0.21,0.00,-0.42,
0.098,-0.02,0.11,0.95,-0.21,0.00,-0.42,
0.098,-0.02,0.11,0.95,-0.20,0.05,-0.50,
0.099,-0.02,0.11,0.95,-0.20,0.05,-0.50,
0.099,-0.01,0.11,0.94,-0.20,0.05,-0.50,
0.099,-0.01,0.11,0.94,-0.13,0.07,-0.49,
0.1,-0.00,0.11,0.95,-0.13,0.07,-0.49,
0.103,0.00,0.11,0.95,-0.13,0.07,-0.49,
0.103,0.00,0.11,0.95,-0.06,0.05,-0.52,
0.114,0.01,0.10,0.96,-0.06,0.05,-0.52,
0.115,0.02,0.11,0.97,-0.06,0.05,-0.52,
0.115,0.02,0.11,0.97,0.11,0.06,-0.45,
0.115,0.02,0.10,0.97,0.11,0.06,-0.45,
0.115,0.03,0.10,0.97,0.11,0.06,-0.45,
0.116,0.03,0.10,0.97,0.22,0.03,-0.35,
0.116,0.04,0.10,0.98,0.22,0.03,-0.35,
0.118,0.04,0.10,0.99,0.22,0.03,-0.35,
0.118,0.04,0.10,0.99,0.33,0.01,-0.29,
0.12,0.05,0.10,0.99,0.33,0.01,-0.29,
0.128,0.05,0.09,1.00,0.33,0.01,-0.29,
0.129,0.05,0.09,1.00,0.48,-0.03,-0.15,
0.129,0.06,0.09,1.00,0.48,-0.03,-0.15,
0.129,0.06,0.09,1.00,0.48,-0.03,-0.15,
0.13,0.06,0.09,1.00,0.56,-0.08,-0.04,
0.13,0.07,0.09,1.00,0.56,-0.08,-0.04,
0.132,0.07,0.09,1.01,0.56,-0.08,-0.04,
0.133,0.07,0.09,1.01,0.67,-0.09,0.01,
0.136,0.07,0.09,1.01,0.67,-0.09,0.01,
0.145,0.07,0.08,1.01,0.67,-0.09,0.01,
0.145,0.07,0.08,1.01,0.72,-0.11,0.06,
0.145,0.08,0.08,1.01,0.72,-0.11,0.06,
0.146,0.08,0.09,1.01,0.72,-0.11,0.06,
0.146,0.08,0.09,1.01,0.77,-0.15,0.13,
0.146,0.08,0.08,1.02,0.77,-0.15,0.13,
0.147,0.08,0.08,1.01,0.77,-0.15,0.13,
0.147,0.08,0.08,1.01,0.80,-0.16,0.15,
0.151,0.07,0.08,1.01,0.80,-0.16,0.15,
0.152,0.07,0.08,1.01,0.80,-0.16,0.15,
0.153,0.07,0.08,1.01,0.78,-0.17,0.16,
0.16,0.08,0.08,1.00,0.78,-0.17,0.16,
0.161,0.07,0.08,1.00,0.78,-0.17,0.16,
0.161,0.07,0.08,1.00,0.75,-0.19,0.11,
0.161,0.08,0.08,1.00,0.75,-0.19,0.11,
0.164,0.07,0.09,1.00,0.75,-0.19,0.11,
0.164,0.07,0.09,1.00,0.75,-0.19,0.04,
0.164,0.06,0.08,1.00,0.75,-0.19,0.04,
0.167,0.07,0.09,0.98,0.75,-0.19,0.04,
0.168,0.07,0.09,0.98,0.75,-0.16,-0.01,
0.17,0.06,0.08,0.98,0.75,-0.16,-0.01,
0.175,0.06,0.08,0.97,0.75,-0.16,-0.01,
0.175,0.06,0.08,0.97,0.63,-0.16,-0.09,
0.176,0.06,0.09,0.97,0.63,-0.16,-0.09,
0.176,0.06,0.08,0.97,0.63,-0.16,-0.09,
0.177,0.06,0.08,0.97,0.63,-0.18,-0.22,
0.18,0.07,0.08,0.96,0.63,-0.18,-0.22,
0.182,0.06,0.08,0.96,0.63,-0.18,-0.22,
0.182,0.06,0.08,0.96,0.61,-0.17,-0.28,
0.184,0.06,0.08,0.96,0.61,-0.17,-0.28,
0.193,0.07,0.08,0.95,0.61,-0.17,-0.28,
0.193,0.07,0.08,0.95,0.64,-0.18,-0.34,
0.194,0.07,0.08,0.94,0.64,-0.18,-0.34,
0.194,0.07,0.07,0.94,0.64,-0.18,-0.34,
0.194,0.07,0.07,0.94,0.60,-0.24,-0.42,
0.194,0.07,0.07,0.94,0.60,-0.24,-0.42,
0.197,0.07,0.07,0.94,0.63,-0.25,-0.56,
0.197,0.08,0.07,0.93,0.63,-0.25,-0.56,
0.199,0.08,0.07,0.93,0.63,-0.25,-0.56,
0.202,0.09,0.06,0.93,0.63,-0.25,-0.56,
0.202,0.09,0.06,0.93,0.73,-0.30,-0.60,
0.204,0.10,0.06,0.93,0.73,-0.30,-0.60,
0.21,0.10,0.06,0.92,0.73,-0.30,-0.60,
0.211,0.10,0.06,0.92,0.80,-0.36,-0.63,
0.211,0.11,0.06,0.93,0.80,-0.36,-0.63,
0.212,0.11,0.06,0.93,0.80,-0.36,-0.63,
0.212,0.11,0.06,0.93,0.93,-0.40,-0.67,
0.214,0.12,0.06,0.93,0.93,-0.40,-0.67,
0.216,0.13,0.06,0.94,0.93,-0.40,-0.67,
0.217,0.13,0.06,0.94,0.99,-0.44,-0.64,
0.218,0.13,0.06,0.94,0.99,-0.44,-0.64,
0.242,0.13,0.05,0.93,0.99,-0.44,-0.64,
0.243,0.13,0.05,0.93,1.16,-0.45,-0.57,
0.243,0.13,0.05,0.93,1.16,-0.45,-0.57,
0.243,0.14,0.05,0.93,1.16,-0.45,-0.57,
0.244,0.14,0.05,0.93,1.19,-0.45,-0.56,
0.244,0.14,0.04,0.93,1.19,-0.45,-0.56,
0.244,0.14,0.05,0.92,1.19,-0.45,-0.56,
0.245,0.14,0.05,0.92,1.24,-0.53,-0.60,
0.245,0.14,0.04,0.92,1.24,-0.53,-0.60,
0.246,0.14,0.05,0.91,1.24,-0.53,-0.60,
0.246,0.14,0.05,0.91,1.25,-0.56,-0.68,
0.246,0.14,0.05,0.91,1.25,-0.56,-0.68,
0.247,0.14,0.05,0.90,1.25,-0.56,-0.68,
0.247,0.14,0.05,0.90,1.27,-0.55,-0.76,
0.247,0.14,0.05,0.90,1.27,-0.55,-0.76,
0.247,0.14,0.04,0.89,1.27,-0.55,-0.76,
0.247,0.14,0.04,0.89,1.23,-0.54,-0.85,
0.248,0.13,0.04,0.88,1.23,-0.54,-0.85,
0.251,0.13,0.04,0.87,1.23,-0.54,-0.85,
0.251,0.13,0.04,0.87,1.22,-0.56,-0.91,
0.254,0.13,0.03,0.86,1.22,-0.56,-0.91,
0.257,0.14,0.04,0.86,1.22,-0.56,-0.91,
0.257,0.14,0.04,0.86,1.15,-0.61,-1.09,
0.259,0.14,0.04,0.86,1.15,-0.61,-1.09,
0.261,0.14,0.04,0.86,1.15,-0.61,-1.09,
0.261,0.14,0.04,0.86,1.21,-0.64,-1.21,
0.264,0.14,0.04,0.86,1.21,-0.64,-1.21,
0.266,0.14,0.04,0.85,1.21,-0.64,-1.21,
0.266,0.14,0.04,0.85,1.25,-0.62,-1.24,
0.268,0.14,0.04,0.85,1.25,-0.62,-1.24,
0.272,0.14,0.04,0.85,1.25,-0.62,-1.24,
0.272,0.14,0.04,0.85,1.26,-0.57,-1.29,
0.273,0.14,0.04,0.86,1.26,-0.57,-1.29,
0.276,0.14,0.03,0.86,1.26,-0.57,-1.29,
0.276,0.14,0.03,0.86,1.22,-0.57,-1.29,
0.279,0.13,0.03,0.86,1.22,-0.57,-1.29,
0.28,0.14,0.03,0.87,1.22,-0.57,-1.29,
0.281,0.14,0.03,0.87,1.21,-0.62,-1.23,
0.283,0.14,0.03,0.87,1.21,-0.62,-1.23,
0.285,0.13,0.03,0.87,1.21,-0.62,-1.23,
0.285,0.13,0.03,0.87,1.17,-0.66,-1.14,
0.288,0.14,0.03,0.87,1.17,-0.66,-1.14,
0.29,0.14,0.03,0.86,1.17,-0.66,-1.14,
0.29,0.14,0.03,0.86,1.16,-0.66,-1.09,
0.294,0.14,0.03,0.86,1.16,-0.66,-1.09,
0.296,0.14,0.03,0.86,1.16,-0.66,-1.09,
0.296,0.14,0.03,0.86,1.20,-0.66,-1.13,
0.298,0.14,0.04,0.87,1.20,-0.66,-1.13,
0.301,0.14,0.04,0.87,1.21,-0.66,-1.16,
0.301,0.14,0.04,0.86,1.21,-0.66,-1.16,
0.303,0.13,0.04,0.86,1.21,-0.66,-1.16,
0.306,0.14,0.04,0.86,1.21,-0.66,-1.16,
0.306,0.14,0.04,0.86,1.21,-0.58,-1.10,
0.308,0.14,0.05,0.86,1.21,-0.58,-1.10,
0.31,0.14,0.04,0.86,1.21,-0.58,-1.10,
0.311,0.14,0.04,0.86,1.19,-0.56,-1.15,
0.313,0.13,0.04,0.86,1.19,-0.56,-1.15,
0.316,0.13,0.04,0.86,1.20,-0.48,-1.17,
0.316,0.13,0.04,0.86,1.20,-0.48,-1.17,
0.318,0.13,0.04,0.85,1.20,-0.48,-1.17,
0.32,0.13,0.04,0.85,1.20,-0.48,-1.17,
0.32,0.13,0.04,0.85,1.17,-0.50,-1.20,
0.325,0.13,0.04,0.84,1.17,-0.50,-1.20,
0.326,0.13,0.03,0.84,1.17,-0.50,-1.20,
0.328,0.13,0.03,0.84,1.16,-0.55,-1.25,
0.328,0.13,0.04,0.84,1.16,-0.55,-1.25,
0.33,0.13,0.03,0.83,1.16,-0.55,-1.25,
0.331,0.13,0.03,0.83,1.12,-0.57,-1.33,
0.333,0.13,0.04,0.83,1.12,-0.57,-1.33,
0.335,0.13,0.04,0.82,1.12,-0.57,-1.33,
0.336,0.13,0.04,0.82,1.14,-0.57,-1.40,
0.34,0.12,0.04,0.82,1.14,-0.57,-1.40,
0.34,0.12,0.04,0.82,1.14,-0.55,-1.47,
0.34,0.12,0.04,0.81,1.14,-0.55,-1.47,
0.342,0.12,0.04,0.81,1.14,-0.55,-1.47,
0.345,0.12,0.04,0.82,1.14,-0.55,-1.47,
0.346,0.12,0.04,0.82,1.09,-0.55,-1.55,
0.348,0.11,0.03,0.82,1.09,-0.55,-1.55,
0.35,0.11,0.03,0.81,1.09,-0.55,-1.55,
0.35,0.11,0.03,0.81,1.05,-0.51,-1.56,
0.353,0.11,0.03,0.81,1.05,-0.51,-1.56,
0.356,0.11,0.03,0.81,1.05,-0.51,-1.56,
0.356,0.11,0.03,0.81,0.98,-0.57,-1.53,
0.358,0.10,0.03,0.81,0.98,-0.57,-1.53,
0.359,0.10,0.03,0.81,0.98,-0.57,-1.53,
0.36,0.10,0.03,0.81,0.96,-0.59,-1.61,
0.362,0.10,0.02,0.80,0.96,-0.59,-1.61,
0.365,0.09,0.02,0.81,0.96,-0.59,-1.61,
0.365,0.09,0.02,0.81,0.89,-0.60,-1.58,
0.368,0.09,0.01,0.82,0.89,-0.60,-1.58,
0.37,0.09,0.02,0.81,0.89,-0.60,-1.58,
0.37,0.09,0.02,0.81,0.84,-0.67,-1.60,
0.374,0.09,0.02,0.81,0.84,-0.67,-1.60,
0.374,0.09,0.02,0.81,0.84,-0.67,-1.60,
0.374,0.09,0.02,0.81,0.83,-0.69,-1.52,
0.377,0.09,0.03,0.81,0.83,-0.69,-1.52,
0.38,0.09,0.03,0.81,0.83,-0.69,-1.52,
0.38,0.09,0.03,0.81,0.81,-0.65,-1.53,
0.382,0.09,0.03,0.81,0.81,-0.65,-1.53,
0.385,0.08,0.03,0.82,0.81,-0.65,-1.53,
0.385,0.08,0.03,0.82,0.82,-0.55,-1.57,
0.387,0.08,0.04,0.82,0.82,-0.55,-1.57,
0.389,0.08,0.04,0.83,0.82,-0.55,-1.57,
0.39,0.08,0.04,0.83,0.78,-0.51,-1.50,
0.392,0.08,0.04,0.83,0.78,-0.51,-1.50,
0.394,0.07,0.05,0.84,0.78,-0.51,-1.50,
0.394,0.07,0.05,0.84,0.75,-0.45,-1.37,
0.396,0.07,0.05,0.82,0.75,-0.45,-1.37,
0.4,0.06,0.06,0.82,0.75,-0.45,-1.37,
0.4,0.06,0.06,0.82,0.72,-0.33,-1.29,
0.401,0.06,0.06,0.82,0.72,-0.33,-1.29,
0.408,0.05,0.07,0.82,0.72,-0.33,-1.29,
0.409,0.05,0.07,0.82,0.65,-0.26,-1.38,
0.409,0.05,0.08,0.82,0.65,-0.26,-1.38,
0.409,0.03,0.08,0.82,0.65,-0.26,-1.38,
0.41,0.03,0.08,0.82,0.58,-0.13,-1.39,
0.411,0.02,0.09,0.83,0.58,-0.13,-1.39,
0.414,0.02,0.09,0.83,0.42,0.01,-1.41,
0.414,0.00,0.09,0.83,0.42,0.01,-1.41,
0.416,-0.01,0.09,0.84,0.42,0.01,-1.41,
0.419,-0.03,0.09,0.83,0.42,0.01,-1.41,
0.42,-0.03,0.09,0.83,0.16,0.10,-1.35,
0.422,-0.04,0.09,0.84,0.16,0.10,-1.35,
0.424,-0.06,0.09,0.85,0.16,0.10,-1.35,
0.424,-0.06,0.09,0.85,-0.10,0.15,-1.25,
0.427,-0.06,0.09,0.85,-0.10,0.15,-1.25,
0.429,-0.07,0.09,0.86,-0.10,0.15,-1.25,
0.429,-0.07,0.09,0.86,-0.37,0.17,-1.15,
0.431,-0.08,0.09,0.87,-0.37,0.17,-1.15,
0.434,-0.08,0.09,0.87,-0.37,0.17,-1.15,
0.435,-0.08,0.09,0.87,-0.47,0.18,-1.07,
0.436,-0.09,0.08,0.88,-0.47,0.18,-1.07,
0.439,-0.09,0.08,0.88,-0.47,0.18,-1.07,
0.44,-0.09,0.08,0.88,-0.61,0.14,-0.91,
0.441,-0.10,0.07,0.89,-0.61,0.14,-0.91,
0.444,-0.10,0.07,0.89,-0.61,0.14,-0.91,
0.444,-0.10,0.07,0.89,-0.70,0.09,-0.83,
0.446,-0.10,0.06,0.89,-0.70,0.09,-0.83,
0.449,-0.11,0.06,0.90,-0.70,0.09,-0.83,
0.449,-0.11,0.06,0.90,-0.77,-0.01,-0.74,
0.451,-0.10,0.06,0.89,-0.77,-0.01,-0.74,
0.455,-0.10,0.05,0.90,-0.77,-0.01,-0.74,
0.456,-0.10,0.05,0.90,-0.77,-0.04,-0.65,
0.456,-0.10,0.05,0.91,-0.77,-0.04,-0.65,
0.458,-0.10,0.05,0.91,-0.77,-0.04,-0.65,
0.459,-0.10,0.05,0.91,-0.74,-0.09,-0.62,
0.461,-0.09,0.05,0.92,-0.74,-0.09,-0.62,
0.463,-0.09,0.04,0.91,-0.74,-0.09,-0.62,
0.464,-0.09,0.04,0.91,-0.71,-0.12,-0.49,
0.466,-0.08,0.04,0.91,-0.71,-0.12,-0.49,
0.469,-0.08,0.03,0.91,-0.71,-0.12,-0.49,
0.469,-0.08,0.03,0.91,-0.57,-0.19,-0.44,
0.472,-0.08,0.04,0.91,-0.57,-0.19,-0.44,
0.474,-0.09,0.04,0.90,-0.57,-0.19,-0.44,
0.474,-0.09,0.04,0.90,-0.48,-0.25,-0.51,
0.476,-0.10,0.04,0.90,-0.48,-0.25,-0.51,
0.478,-0.10,0.04,0.90,-0.49,-0.19,-0.53,
0.478,-0.11,0.04,0.90,-0.49,-0.19,-0.53,
0.481,-0.12,0.04,0.90,-0.49,-0.19,-0.53,
0.483,-0.13,0.05,0.89,-0.49,-0.19,-0.53,
0.483,-0.13,0.05,0.89,-0.61,-0.16,-0.57,
0.486,-0.14,0.05,0.89,-0.61,-0.16,-0.57,
0.489,-0.15,0.05,0.88,-0.61,-0.16,-0.57,
0.49,-0.15,0.05,0.88,-0.74,-0.13,-0.62,
0.492,-0.15,0.05,0.88,-0.74,-0.13,-0.62,
0.493,-0.16,0.06,0.89,-0.74,-0.13,-0.62,
0.493,-0.16,0.06,0.89,-0.90,-0.07,-0.70,
0.496,-0.18,0.06,0.89,-0.90,-0.07,-0.70,
0.498,-0.18,0.06,0.89,-0.97,0.01,-0.70,
0.498,-0.18,0.07,0.90,-0.97,0.01,-0.70,
0.501,-0.19,0.07,0.90,-0.97,0.01,-0.70,
0.503,-0.20,0.08,0.91,-0.97,0.01,-0.70,
0.504,-0.20,0.08,0.91,-1.16,0.09,-0.62,
0.506,-0.22,0.08,0.91,-1.16,0.09,-0.62,
0.508,-0.22,0.09,0.91,-1.16,0.09,-0.62,
0.509,-0.22,0.09,0.91,-1.28,0.20,-0.52,
0.511,-0.22,0.09,0.91,-1.28,0.20,-0.52,
0.514,-0.22,0.09,0.91,-1.44,0.30,-0.48,
0.514,-0.23,0.10,0.92,-1.44,0.30,-0.48,
0.516,-0.23,0.10,0.92,-1.44,0.30,-0.48,
0.519,-0.23,0.11,0.93,-1.44,0.30,-0.48,
0.519,-0.23,0.11,0.93,-1.47,0.39,-0.41,
0.521,-0.23,0.11,0.93,-1.47,0.39,-0.41,
0.525,-0.23,0.11,0.94,-1.47,0.39,-0.41,
0.526,-0.23,0.11,0.94,-1.47,0.50,-0.32,
0.526,-0.23,0.11,0.93,-1.47,0.50,-0.32,
0.53,-0.23,0.11,0.93,-1.45,0.57,-0.21,
0.531,-0.23,0.10,0.93,-1.45,0.57,-0.21,
0.531,-0.24,0.10,0.93,-1.45,0.57,-0.21,
0.534,-0.24,0.09,0.93,-1.45,0.57,-0.21,
0.534,-0.24,0.09,0.93,-1.42,0.55,-0.22,
0.536,-0.24,0.09,0.92,-1.42,0.55,-0.22,
0.54,-0.25,0.08,0.92,-1.42,0.55,-0.22,
0.54,-0.25,0.08,0.92,-1.48,0.48,-0.23,
0.541,-0.25,0.07,0.92,-1.48,0.48,-0.23,
0.543,-0.26,0.07,0.92,-1.48,0.48,-0.23,
0.543,-0.26,0.07,0.92,-1.50,0.36,-0.34,
0.545,-0.26,0.06,0.92,-1.50,0.36,-0.34,
0.548,-0.26,0.06,0.92,-1.50,0.36,-0.34,
0.549,-0.26,0.06,0.92,-1.63,0.24,-0.37,
0.551,-0.25,0.05,0.91,-1.63,0.24,-0.37,
0.554,-0.25,0.04,0.91,-1.63,0.24,-0.37,
0.554,-0.25,0.04,0.91,-1.62,0.13,-0.34,
0.557,-0.25,0.04,0.91,-1.62,0.13,-0.34,
0.558,-0.25,0.04,0.91,-1.62,0.13,-0.34,
0.558,-0.25,0.04,0.91,-1.55,0.05,-0.43,
0.56,-0.24,0.04,0.89,-1.55,0.05,-0.43,
0.563,-0.24,0.04,0.89,-1.48,0.02,-0.44,
0.564,-0.23,0.04,0.90,-1.48,0.02,-0.44,
0.565,-0.23,0.04,0.90,-1.48,0.02,-0.44,
0.568,-0.22,0.04,0.89,-1.48,0.02,-0.44,
0.568,-0.22,0.04,0.89,-1.35,-0.01,-0.57,
0.571,-0.22,0.05,0.89,-1.35,-0.01,-0.57,
0.574,-0.22,0.05,0.89,-1.35,-0.01,-0.57,
0.574,-0.22,0.05,0.89,-1.24,0.05,-0.60,
0.575,-0.22,0.05,0.88,-1.24,0.05,-0.60,
0.577,-0.23,0.05,0.89,-1.24,0.05,-0.60,
0.578,-0.23,0.05,0.89,-1.14,0.13,-0.64,
0.58,-0.25,0.05,0.88,-1.14,0.13,-0.64,
0.583,-0.26,0.05,0.88,-1.14,0.13,-0.64,
0.583,-0.26,0.05,0.88,-1.19,0.16,-0.66,
0.585,-0.27,0.05,0.89,-1.19,0.16,-0.66,
0.588,-0.28,0.04,0.88,-1.19,0.16,-0.66,
0.588,-0.28,0.04,0.88,-1.41,0.18,-0.67,
0.59,-0.30,0.05,0.89,-1.41,0.18,-0.67,
0.592,-0.31,0.05,0.88,-1.41,0.18,-0.67,
0.593,-0.31,0.05,0.88,-1.60,0.13,-0.66,
0.596,-0.33,0.05,0.89,-1.60,0.13,-0.66,
0.598,-0.34,0.06,0.90,-1.60,0.13,-0.66,
0.598,-0.34,0.06,0.90,-1.83,0.18,-0.64,
0.6,-0.34,0.06,0.90,-1.83,0.18,-0.64,
0.603,-0.36,0.07,0.91,-1.83,0.18,-0.64,
0.603,-0.36,0.07,0.91,-2.08,0.29,-0.57,
0.605,-0.38,0.07,0.92,-2.08,0.29,-0.57,
0.607,-0.39,0.07,0.92,-2.08,0.29,-0.57,
0.608,-0.39,0.07,0.92,-2.23,0.43,-0.44,
0.61,-0.39,0.07,0.93,-2.23,0.43,-0.44,
0.613,-0.39,0.06,0.94,-2.23,0.43,-0.44,
0.613,-0.39,0.06,0.94,-2.50,0.48,-0.26,
0.615,-0.40,0.06,0.94,-2.50,0.48,-0.26,
0.618,-0.40,0.05,0.94,-2.50,0.48,-0.26,
0.618,-0.40,0.05,0.94,-2.61,0.47,-0.16,
0.62,-0.40,0.04,0.94,-2.61,0.47,-0.16,
0.624,-0.40,0.04,0.96,-2.61,0.47,-0.16,
0.625,-0.40,0.04,0.96,-2.63,0.41,-0.08,
0.625,-0.40,0.03,0.97,-2.63,0.41,-0.08,
0.627,-0.40,0.02,0.97,-2.63,0.41,-0.08,
0.627,-0.40,0.02,0.97,-2.67,0.32,0.03,
0.629,-0.40,0.01,0.98,-2.67,0.32,0.03,
0.632,-0.39,0.01,1.00,-2.67,0.32,0.03,
0.633,-0.39,0.01,1.00,-2.61,0.22,0.22,
0.634,-0.39,0.00,1.01,-2.61,0.22,0.22,
0.637,-0.39,-0.00,1.02,-2.61,0.22,0.22,
0.637,-0.39,-0.00,1.02,-2.54,0.09,0.43,
0.644,-0.38,-0.01,1.03,-2.54,0.09,0.43,
0.645,-0.38,-0.01,1.04,-2.54,0.09,0.43,
0.645,-0.38,-0.01,1.04,-2.49,0.03,0.63,
0.645,-0.37,-0.02,1.04,-2.49,0.03,0.63,
0.649,-0.37,-0.03,1.04,-2.49,0.03,0.63,
0.649,-0.37,-0.03,1.04,-2.37,-0.07,0.81,
0.65,-0.36,-0.03,1.05,-2.37,-0.07,0.81,
0.651,-0.36,-0.03,1.06,-2.37,-0.07,0.81,
0.652,-0.36,-0.03,1.06,-2.24,-0.16,0.90,
0.654,-0.35,-0.04,1.06,-2.24,-0.16,0.90,
0.658,-0.35,-0.04,1.06,-2.24,-0.16,0.90,
0.659,-0.35,-0.04,1.06,-2.14,-0.19,1.02,
0.659,-0.35,-0.04,1.07,-2.14,-0.19,1.02,
0.662,-0.35,-0.04,1.07,-2.05,-0.24,1.08,
0.662,-0.36,-0.05,1.06,-2.05,-0.24,1.08,
0.664,-0.36,-0.05,1.06,-2.05,-0.24,1.08,
0.667,-0.37,-0.05,1.05,-2.05,-0.24,1.08,
0.667,-0.37,-0.05,1.05,-2.05,-0.24,1.11,
0.669,-0.38,-0.05,1.05,-2.05,-0.24,1.11,
0.673,-0.39,-0.05,1.05,-2.05,-0.24,1.11,
0.673,-0.39,-0.05,1.05,-2.13,-0.28,1.02,
0.675,-0.39,-0.05,1.04,-2.13,-0.28,1.02,
0.676,-0.40,-0.05,1.04,-2.13,-0.28,1.02,
0.677,-0.40,-0.05,1.04,-2.28,-0.25,0.99,
0.679,-0.40,-0.04,1.04,-2.28,-0.25,0.99,
0.681,-0.41,-0.04,1.03,-2.28,-0.25,0.99,
0.682,-0.41,-0.04,1.03,-2.38,-0.22,0.87,
0.684,-0.42,-0.04,1.02,-2.38,-0.22,0.87,
0.686,-0.42,-0.04,1.02,-2.47,-0.10,0.82,
0.686,-0.43,-0.04,1.01,-2.47,-0.10,0.82,
0.69,-0.43,-0.03,1.01,-2.47,-0.10,0.82,
0.692,-0.44,-0.02,0.99,-2.47,-0.10,0.82,
0.693,-0.44,-0.02,0.99,-2.64,-0.07,0.62,
0.694,-0.44,-0.02,0.99,-2.64,-0.07,0.62,
0.696,-0.44,-0.01,0.99,-2.64,-0.07,0.62,
0.696,-0.44,-0.01,0.99,-2.73,0.08,0.47,
0.699,-0.44,-0.00,0.99,-2.73,0.08,0.47,
0.701,-0.45,0.00,0.98,-2.73,0.08,0.47,
0.701,-0.45,0.00,0.98,-2.81,0.19,0.37,
0.703,-0.45,0.01,0.98,-2.81,0.19,0.37,
0.707,-0.45,0.01,0.98,-2.81,0.19,0.37,
0.708,-0.45,0.01,0.98,-2.84,0.37,0.33,
0.708,-0.45,0.02,0.98,-2.84,0.37,0.33,
0.711,-0.45,0.02,0.98,-2.84,0.37,0.33,
0.711,-0.45,0.02,0.98,-2.85,0.50,0.26,
0.714,-0.45,0.02,0.98,-2.85,0.50,0.26,
0.716,-0.45,0.01,0.97,-2.85,0.50,0.26,
0.716,-0.45,0.01,0.97,-2.86,0.60,0.27,
0.719,-0.45,0.01,0.97,-2.86,0.60,0.27,
0.721,-0.45,-0.00,0.97,-2.86,0.60,0.27,
0.721,-0.45,-0.00,0.97,-2.84,0.59,0.21,
0.723,-0.45,-0.02,0.96,-2.84,0.59,0.21,
0.726,-0.45,-0.03,0.97,-2.84,0.59,0.21,
0.726,-0.45,-0.03,0.97,-2.84,0.48,0.15,
0.728,-0.44,-0.04,0.97,-2.84,0.48,0.15,
0.731,-0.43,-0.06,0.96,-2.84,0.48,0.15,
0.731,-0.43,-0.06,0.96,-2.81,0.25,0.13,
0.733,-0.42,-0.08,0.96,-2.81,0.25,0.13,
0.736,-0.42,-0.10,0.96,-2.81,0.25,0.13,
0.736,-0.42,-0.10,0.96,-2.70,0.04,0.12,
0.738,-0.42,-0.11,0.96,-2.70,0.04,0.12,
0.744,-0.42,-0.13,0.97,-2.70,0.04,0.12,
0.745,-0.42,-0.13,0.97,-2.54,-0.30,0.05,
0.745,-0.42,-0.15,0.98,-2.54,-0.30,0.05,
0.745,-0.42,-0.17,0.98,-2.54,-0.30,0.05,
0.746,-0.42,-0.17,0.98,-2.50,-0.60,0.13,
0.748,-0.42,-0.18,0.99,-2.50,-0.60,0.13,
0.75,-0.42,-0.20,1.00,-2.50,-0.60,0.13,
0.751,-0.42,-0.20,1.00,-2.46,-0.93,0.26,
0.753,-0.42,-0.21,1.00,-2.46,-0.93,0.26,
0.757,-0.43,-0.22,1.01,-2.46,-0.93,0.26,
0.757,-0.43,-0.22,1.01,-2.46,-1.22,0.40,
0.758,-0.42,-0.22,1.02,-2.46,-1.22,0.40,
0.76,-0.43,-0.23,1.02,-2.46,-1.22,0.40,
0.761,-0.43,-0.23,1.02,-2.51,-1.42,0.57,
0.763,-0.43,-0.24,1.03,-2.51,-1.42,0.57,
0.765,-0.42,-0.24,1.04,-2.51,-1.42,0.57,
0.766,-0.42,-0.24,1.04,-2.46,-1.54,0.70,
0.768,-0.42,-0.23,1.04,-2.46,-1.54,0.70,
0.77,-0.41,-0.22,1.03,-2.46,-1.54,0.70,
0.771,-0.41,-0.22,1.03,-2.41,-1.61,0.80,
0.774,-0.41,-0.21,1.04,-2.41,-1.61,0.80,
0.776,-0.40,-0.20,1.04,-2.41,-1.61,0.80,
0.776,-0.40,-0.20,1.04,-2.32,-1.47,0.83,
0.778,-0.39,-0.18,1.04,-2.32,-1.47,0.83,
0.781,-0.39,-0.15,1.04,-2.32,-1.47,0.83,
0.781,-0.39,-0.15,1.04,-2.18,-1.22,0.85,
0.783,-0.38,-0.14,1.03,-2.18,-1.22,0.85,
0.786,-0.38,-0.12,1.02,-2.18,-1.22,0.85,
0.786,-0.38,-0.12,1.02,-2.03,-0.84,0.86,
0.788,-0.38,-0.10,1.02,-2.03,-0.84,0.86,
0.792,-0.38,-0.08,1.01,-2.03,-0.84,0.86,
0.792,-0.38,-0.08,1.01,-1.93,-0.47,0.75,
0.793,-0.38,-0.07,1.00,-1.93,-0.47,0.75,
0.796,-0.37,-0.06,1.00,-1.93,-0.47,0.75,
0.796,-0.37,-0.06,1.00,-1.90,-0.07,0.62,
0.798,-0.38,-0.04,0.99,-1.90,-0.07,0.62,
0.8,-0.39,-0.03,0.98,-1.90,-0.07,0.62,
0.8,-0.39,-0.03,0.98,-1.86,0.23,0.45,
0.803,-0.39,-0.02,0.97,-1.86,0.23,0.45,
0.805,-0.40,-0.02,0.96,-1.86,0.23,0.45,
0.805,-0.40,-0.02,0.96,-1.96,0.50,0.31,
0.807,-0.40,-0.01,0.96,-1.96,0.50,0.31,
0.81,-0.41,-0.01,0.95,-1.96,0.50,0.31,
0.81,-0.41,-0.01,0.95,-2.06,0.69,0.18,
0.813,-0.41,-0.00,0.95,-2.06,0.69,0.18,
0.815,-0.41,-0.01,0.94,-2.06,0.69,0.18,
0.815,-0.41,-0.01,0.94,-2.15,0.80,0.05,
0.817,-0.41,-0.02,0.94,-2.15,0.80,0.05,
0.82,-0.42,-0.03,0.93,-2.15,0.80,0.05,
0.823,-0.42,-0.03,0.93,-2.21,0.84,-0.07,
0.823,-0.42,-0.04,0.92,-2.21,0.84,-0.07,
0.826,-0.42,-0.05,0.92,-2.21,0.84,-0.07,
0.827,-0.42,-0.05,0.92,-2.25,0.72,-0.16,
0.827,-0.42,-0.07,0.92,-2.25,0.72,-0.16,
0.83,-0.42,-0.08,0.92,-2.25,0.72,-0.16,
0.83,-0.42,-0.08,0.92,-2.27,0.50,-0.29,
0.832,-0.42,-0.10,0.93,-2.27,0.50,-0.29,
0.835,-0.42,-0.11,0.93,-2.27,0.50,-0.29,
0.835,-0.42,-0.11,0.93,-2.29,0.23,-0.29,
0.838,-0.42,-0.12,0.95,-2.29,0.23,-0.29,
0.84,-0.41,-0.14,0.97,-2.29,0.23,-0.29,
0.84,-0.41,-0.14,0.97,-2.29,0.02,-0.15,
0.842,-0.41,-0.15,0.99,-2.29,0.02,-0.15,
0.848,-0.40,-0.17,1.01,-2.29,0.02,-0.15,
0.848,-0.40,-0.17,1.01,-2.21,-0.25,0.11,
0.848,-0.40,-0.19,1.03,-2.21,-0.25,0.11,
0.85,-0.40,-0.21,1.04,-2.21,-0.25,0.11,
0.85,-0.40,-0.21,1.04,-2.14,-0.50,0.49,
0.852,-0.39,-0.22,1.07,-2.14,-0.50,0.49,
0.855,-0.38,-0.24,1.08,-2.14,-0.50,0.49,
0.855,-0.38,-0.24,1.08,-2.04,-0.80,0.85,
0.86,-0.37,-0.25,1.09,-2.04,-0.80,0.85,
0.86,-0.37,-0.26,1.10,-2.04,-0.80,0.85,
0.861,-0.37,-0.26,1.10,-1.87,-1.06,1.25,
0.862,-0.36,-0.26,1.12,-1.87,-1.06,1.25,
0.865,-0.35,-0.27,1.13,-1.87,-1.06,1.25,
0.866,-0.35,-0.27,1.13,-1.70,-1.27,1.46,
0.868,-0.34,-0.26,1.14,-1.70,-1.27,1.46,
0.87,-0.33,-0.25,1.15,-1.70,-1.27,1.46,
0.871,-0.33,-0.25,1.15,-1.54,-1.33,1.72,
0.873,-0.32,-0.24,1.15,-1.54,-1.33,1.72,
0.874,-0.31,-0.23,1.16,-1.54,-1.33,1.72,
0.875,-0.31,-0.23,1.16,-1.35,-1.19,1.90,
0.877,-0.30,-0.21,1.16,-1.35,-1.19,1.90,
0.88,-0.30,-0.19,1.17,-1.35,-1.19,1.90,
0.881,-0.30,-0.19,1.17,-1.13,-0.95,2.04,
0.882,-0.29,-0.18,1.17,-1.13,-0.95,2.04,
0.885,-0.29,-0.16,1.17,-1.13,-0.95,2.04,
0.885,-0.29,-0.16,1.17,-1.00,-0.58,2.13,
0.887,-0.28,-0.14,1.17,-1.00,-0.58,2.13,
0.89,-0.27,-0.13,1.16,-1.00,-0.58,2.13,
0.89,-0.27,-0.13,1.16,-0.85,-0.26,2.20,
0.892,-0.26,-0.12,1.14,-0.85,-0.26,2.20,
0.894,-0.26,-0.10,1.13,-0.85,-0.26,2.20,
0.894,-0.26,-0.10,1.13,-0.70,0.08,2.10,
0.897,-0.26,-0.09,1.12,-0.70,0.08,2.10,
0.9,-0.27,-0.08,1.10,-0.70,0.08,2.10,
0.9,-0.27,-0.08,1.10,-0.62,0.37,1.85,
0.902,-0.27,-0.07,1.10,-0.62,0.37,1.85,
0.905,-0.26,-0.06,1.09,-0.62,0.37,1.85,
0.905,-0.26,-0.06,1.09,-0.62,0.63,1.59,
0.907,-0.26,-0.05,1.08,-0.62,0.63,1.59,
0.909,-0.26,-0.05,1.08,-0.65,0.81,1.40,
0.91,-0.27,-0.05,1.07,-0.65,0.81,1.40,
0.913,-0.27,-0.05,1.07,-0.65,0.81,1.40,
0.915,-0.27,-0.05,1.07,-0.65,0.81,1.40,
0.915,-0.27,-0.05,1.07,-0.64,0.95,1.23,
0.917,-0.27,-0.06,1.07,-0.64,0.95,1.23,
0.919,-0.28,-0.08,1.07,-0.64,0.95,1.23,
0.92,-0.28,-0.08,1.07,-0.69,0.99,1.18,
0.922,-0.29,-0.09,1.07,-0.69,0.99,1.18,
0.926,-0.29,-0.11,1.08,-0.69,0.99,1.18,
0.926,-0.29,-0.11,1.08,-0.75,0.80,1.16,
0.926,-0.29,-0.13,1.09,-0.75,0.80,1.16,
0.929,-0.30,-0.15,1.10,-0.75,0.80,1.16,
0.93,-0.30,-0.15,1.10,-0.88,0.54,1.21,
0.932,-0.30,-0.16,1.11,-0.88,0.54,1.21,
0.934,-0.31,-0.18,1.12,-0.88,0.54,1.21,
0.935,-0.31,-0.18,1.12,-0.97,0.20,1.39,
0.937,-0.31,-0.19,1.13,-0.97,0.20,1.39,
0.939,-0.31,-0.20,1.15,-0.97,0.20,1.39,
0.94,-0.31,-0.20,1.15,-1.03,-0.07,1.61,
0.942,-0.32,-0.21,1.16,-1.03,-0.07,1.61,
0.944,-0.33,-0.23,1.17,-1.03,-0.07,1.61,
0.944,-0.33,-0.23,1.17,-1.07,-0.31,1.84,
0.947,-0.33,-0.23,1.18,-1.07,-0.31,1.84,
0.949,-0.34,-0.23,1.19,-1.07,-0.31,1.84,
0.95,-0.34,-0.23,1.19,-1.18,-0.49,2.08,
0.952,-0.34,-0.24,1.21,-1.18,-0.49,2.08,
0.954,-0.34,-0.25,1.21,-1.18,-0.49,2.08,
0.954,-0.34,-0.25,1.21,-1.26,-0.59,2.30,
0.957,-0.33,-0.25,1.22,-1.26,-0.59,2.30,
0.962,-0.33,-0.26,1.22,-1.26,-0.59,2.30,
0.963,-0.33,-0.26,1.22,-1.29,-0.74,2.54,
0.963,-0.32,-0.26,1.23,-1.29,-0.74,2.54,
0.963,-0.32,-0.26,1.23,-1.20,-0.78,2.67,
0.964,-0.31,-0.26,1.23,-1.20,-0.78,2.67,
0.966,-0.30,-0.26,1.24,-1.20,-0.78,2.67,
0.969,-0.29,-0.25,1.25,-1.20,-0.78,2.67,
0.969,-0.29,-0.25,1.25,-1.08,-0.80,2.73,
0.971,-0.27,-0.25,1.24,-1.08,-0.80,2.73,
0.975,-0.26,-0.24,1.25,-1.08,-0.80,2.73,
0.975,-0.26,-0.24,1.25,-0.85,-0.73,2.85,
0.976,-0.25,-0.24,1.25,-0.85,-0.73,2.85,
0.978,-0.25,-0.24,1.25,-0.85,-0.73,2.85,
0.979,-0.25,-0.24,1.25,-0.56,-0.63,2.87,
0.981,-0.24,-0.24,1.24,-0.56,-0.63,2.87,
0.983,-0.23,-0.23,1.23,-0.56,-0.63,2.87,
0.983,-0.23,-0.23,1.23,-0.38,-0.57,2.89,
0.986,-0.23,-0.23,1.22,-0.38,-0.57,2.89,
0.988,-0.22,-0.23,1.21,-0.38,-0.57,2.89,
0.989,-0.22,-0.23,1.21,-0.26,-0.50,2.76,
0.993,-0.21,-0.22,1.20,-0.26,-0.50,2.76,
0.994,-0.22,-0.22,1.20,-0.26,-0.50,2.76,
0.994,-0.22,-0.22,1.20,-0.16,-0.43,2.57,
0.996,-0.22,-0.22,1.20,-0.16,-0.43,2.57,
0.998,-0.22,-0.22,1.18,-0.16,-0.43,2.57,
0.998,-0.22,-0.22,1.18,-0.06,-0.38,2.40,
1.0,-0.22,-0.21,1.16,-0.06,-0.38,2.40,
1.003,-0.22,-0.21,1.15,-0.06,-0.38,2.40,
1.004,-0.22,-0.21,1.15,-0.06,-0.35,2.29,
1.005,-0.23,-0.21,1.14,-0.06,-0.35,2.29,
1.01,-0.24,-0.20,1.13,-0.06,-0.35,2.29,
1.011,-0.24,-0.20,1.13,-0.08,-0.26,1.96,
1.011,-0.24,-0.20,1.12,-0.08,-0.26,1.96,
1.014,-0.25,-0.20,1.11,-0.08,-0.26,1.96,
1.014,-0.25,-0.20,1.11,-0.22,-0.22,1.75,
1.015,-0.25,-0.19,1.10,-0.22,-0.22,1.75,
1.018,-0.26,-0.19,1.08,-0.22,-0.22,1.75,
1.018,-0.26,-0.19,1.08,-0.36,-0.18,1.53,
1.02,-0.26,-0.19,1.08,-0.36,-0.18,1.53,
1.023,-0.27,-0.19,1.07,-0.36,-0.18,1.53,
1.023,-0.27,-0.19,1.07,-0.44,-0.10,1.29,
1.026,-0.28,-0.19,1.05,-0.44,-0.10,1.29,
1.028,-0.29,-0.20,1.04,-0.44,-0.10,1.29,
1.028,-0.29,-0.20,1.04,-0.59,-0.12,1.13,
1.03,-0.31,-0.20,1.03,-0.59,-0.12,1.13,
1.033,-0.31,-0.20,1.03,-0.77,-0.17,0.87,
1.033,-0.32,-0.21,1.03,-0.77,-0.17,0.87,
1.035,-0.33,-0.21,1.02,-0.77,-0.17,0.87,
1.038,-0.34,-0.21,1.01,-0.77,-0.17,0.87,
1.039,-0.34,-0.21,1.01,-1.00,-0.26,0.67,
1.042,-0.35,-0.22,1.01,-1.00,-0.26,0.67,
1.043,-0.35,-0.22,1.00,-1.00,-0.26,0.67,
1.043,-0.35,-0.22,1.00,-1.20,-0.33,0.51,
1.045,-0.36,-0.22,1.00,-1.20,-0.33,0.51,
1.048,-0.36,-0.22,0.99,-1.20,-0.33,0.51,
1.048,-0.36,-0.22,0.99,-1.33,-0.36,0.41,
1.05,-0.36,-0.22,0.99,-1.33,-0.36,0.41,
1.053,-0.36,-0.23,0.98,-1.33,-0.36,0.41,
1.054,-0.36,-0.23,0.98,-1.43,-0.40,0.33,
1.055,-0.36,-0.23,0.98,-1.43,-0.40,0.33,
1.06,-0.36,-0.23,0.98,-1.43,-0.40,0.33,
1.06,-0.36,-0.23,0.98,-1.45,-0.46,0.25,
1.06,-0.35,-0.24,0.98,-1.45,-0.46,0.25,
1.063,-0.34,-0.24,0.98,-1.45,-0.46,0.25,
1.063,-0.34,-0.24,0.98,-1.41,-0.49,0.16,
1.065,-0.33,-0.24,0.99,-1.41,-0.49,0.16,
1.067,-0.32,-0.24,1.01,-1.41,-0.49,0.16,
1.067,-0.32,-0.24,1.01,-1.30,-0.56,0.19,
1.07,-0.31,-0.25,1.02,-1.30,-0.56,0.19,
1.072,-0.30,-0.25,1.03,-1.30,-0.56,0.19,
1.072,-0.30,-0.25,1.03,-1.13,-0.59,0.38,
1.08,-0.29,-0.25,1.03,-1.13,-0.59,0.38,
1.081,-0.28,-0.25,1.05,-1.13,-0.59,0.38,
1.081,-0.28,-0.25,1.05,-0.89,-0.65,0.59,
1.081,-0.26,-0.24,1.06,-0.89,-0.65,0.59,
1.083,-0.25,-0.24,1.07,-0.89,-0.65,0.59,
1.083,-0.25,-0.24,1.07,-0.71,-0.60,0.77,
1.085,-0.24,-0.24,1.09,-0.71,-0.60,0.77,
1.088,-0.23,-0.24,1.10,-0.71,-0.60,0.77,
1.088,-0.23,-0.24,1.10,-0.47,-0.54,1.05,
1.09,-0.22,-0.23,1.11,-0.47,-0.54,1.05,
1.093,-0.22,-0.22,1.11,-0.47,-0.54,1.05,
1.093,-0.22,-0.22,1.11,-0.27,-0.47,1.28,
1.095,-0.21,-0.21,1.12,-0.27,-0.47,1.28,
1.097,-0.20,-0.20,1.13,-0.27,-0.47,1.28,
1.097,-0.20,-0.20,1.13,-0.11,-0.33,1.42,
1.1,-0.19,-0.19,1.13,-0.11,-0.33,1.42,
1.102,-0.19,-0.19,1.13,-0.11,-0.33,1.42,
1.102,-0.19,-0.19,1.13,0.04,-0.15,1.56,
1.104,-0.19,-0.18,1.13,0.04,-0.15,1.56,
1.109,-0.19,-0.17,1.12,0.04,-0.15,1.56,
1.109,-0.19,-0.17,1.12,0.16,0.02,1.62,
1.109,-0.19,-0.17,1.12,0.16,0.02,1.62,
1.112,-0.19,-0.17,1.12,0.16,0.02,1.62,
1.112,-0.19,-0.17,1.12,0.20,0.16,1.61,
1.114,-0.20,-0.17,1.11,0.20,0.16,1.61,
1.118,-0.20,-0.16,1.10,0.20,0.16,1.61,
1.118,-0.20,-0.16,1.10,0.18,0.22,1.52,
1.12,-0.20,-0.17,1.09,0.18,0.22,1.52,
1.122,-0.20,-0.17,1.09,0.18,0.22,1.52,
1.122,-0.20,-0.17,1.09,0.10,0.24,1.38,
1.126,-0.20,-0.17,1.09,0.10,0.24,1.38,
1.128,-0.20,-0.17,1.09,0.10,0.24,1.38,
1.128,-0.20,-0.17,1.09,0.09,0.23,1.27,
1.129,-0.21,-0.18,1.08,0.09,0.23,1.27,
1.132,-0.22,-0.18,1.08,0.09,0.23,1.27,
1.132,-0.22,-0.18,1.08,0.08,0.16,1.27,
1.134,-0.22,-0.18,1.07,0.08,0.16,1.27,
1.137,-0.22,-0.18,1.07,0.02,0.10,1.14,
1.137,-0.22,-0.18,1.06,0.02,0.10,1.14,
1.139,-0.23,-0.18,1.06,0.02,0.10,1.14,
1.142,-0.24,-0.19,1.05,0.02,0.10,1.14,
1.143,-0.24,-0.19,1.05,-0.06,0.06,1.01,
1.144,-0.24,-0.19,1.04,-0.06,0.06,1.01,
1.147,-0.24,-0.20,1.02,-0.06,0.06,1.01,
1.148,-0.24,-0.20,1.02,-0.15,-0.01,0.88,
1.149,-0.24,-0.20,1.01,-0.15,-0.01,0.88,
1.152,-0.24,-0.19,1.01,-0.15,-0.01,0.88,
1.152,-0.24,-0.19,1.01,-0.18,-0.11,0.63,
1.154,-0.24,-0.20,1.00,-0.18,-0.11,0.63,
1.157,-0.24,-0.20,0.99,-0.18,-0.11,0.63,
1.158,-0.24,-0.20,0.99,-0.15,-0.14,0.43,
1.164,-0.23,-0.19,1.00,-0.15,-0.14,0.43,
1.164,-0.23,-0.19,0.99,-0.15,-0.14,0.43,
1.164,-0.23,-0.19,0.99,-0.09,-0.15,0.34,
1.164,-0.22,-0.19,0.98,-0.09,-0.15,0.34,
1.167,-0.22,-0.18,0.98,-0.09,-0.15,0.34,
1.167,-0.22,-0.18,0.98,0.02,-0.09,0.28,
1.169,-0.22,-0.18,0.98,0.02,-0.09,0.28,
1.172,-0.22,-0.18,0.99,0.02,-0.09,0.28,
1.172,-0.22,-0.18,0.99,0.09,-0.06,0.19,
1.175,-0.21,-0.18,0.98,0.09,-0.06,0.19,
1.177,-0.21,-0.18,0.99,0.09,-0.06,0.19,
1.178,-0.21,-0.18,0.99,0.17,-0.03,0.20,
1.179,-0.21,-0.18,0.99,0.17,-0.03,0.20,
1.182,-0.21,-0.18,0.99,0.26,-0.01,0.26,
1.182,-0.20,-0.18,1.00,0.26,-0.01,0.26,
1.184,-0.19,-0.19,1.01,0.26,-0.01,0.26,
1.186,-0.18,-0.19,1.02,0.26,-0.01,0.26,
1.186,-0.18,-0.19,1.02,0.38,-0.01,0.35,
1.189,-0.18,-0.20,1.03,0.38,-0.01,0.35,
1.192,-0.17,-0.20,1.04,0.38,-0.01,0.35,
1.193,-0.17,-0.20,1.04,0.51,-0.10,0.53,
1.194,-0.16,-0.20,1.05,0.51,-0.10,0.53,
1.196,-0.16,-0.20,1.07,0.51,-0.10,0.53,
1.197,-0.16,-0.20,1.07,0.68,-0.19,0.73,
1.199,-0.15,-0.20,1.09,0.68,-0.19,0.73,
1.202,-0.15,-0.20,1.10,0.68,-0.19,0.73,
1.202,-0.15,-0.20,1.10,0.80,-0.18,0.96,
1.204,-0.15,-0.20,1.12,0.80,-0.18,0.96,
1.207,-0.14,-0.20,1.13,0.80,-0.18,0.96,
1.207,-0.14,-0.20,1.13,0.91,-0.18,1.29,
1.209,-0.14,-0.21,1.14,0.91,-0.18,1.29,
1.212,-0.14,-0.21,1.15,0.91,-0.18,1.29,
1.212,-0.14,-0.21,1.15,0.95,-0.19,1.57,
1.214,-0.14,-0.21,1.16,0.95,-0.19,1.57,
1.216,-0.14,-0.21,1.16,1.02,-0.24,1.77,
1.217,-0.14,-0.22,1.17,1.02,-0.24,1.77,
1.219,-0.13,-0.22,1.18,1.02,-0.24,1.77,
1.222,-0.13,-0.23,1.18,1.02,-0.24,1.77,
1.222,-0.13,-0.23,1.18,1.02,-0.33,1.99,
1.224,-0.12,-0.22,1.19,1.02,-0.33,1.99,
1.226,-0.12,-0.22,1.20,1.02,-0.33,1.99,
1.227,-0.12,-0.22,1.20,1.08,-0.38,2.14,
1.228,-0.12,-0.22,1.21,1.08,-0.38,2.14,
1.231,-0.12,-0.21,1.21,1.08,-0.38,2.14,
1.231,-0.12,-0.21,1.21,1.14,-0.37,2.29,
1.234,-0.12,-0.21,1.21,1.14,-0.37,2.29,
1.236,-0.13,-0.21,1.20,1.14,-0.37,2.29,
1.236,-0.13,-0.21,1.20,1.13,-0.28,2.40,
1.239,-0.13,-0.21,1.19,1.13,-0.28,2.40,
1.241,-0.14,-0.21,1.19,1.13,-0.28,2.40,
1.242,-0.14,-0.21,1.19,1.09,-0.25,2.35,
1.244,-0.15,-0.21,1.18,1.09,-0.25,2.35,
1.246,-0.15,-0.21,1.17,1.09,-0.25,2.35,
1.246,-0.15,-0.21,1.17,0.97,-0.30,2.20,
1.249,-0.15,-0.20,1.16,0.97,-0.30,2.20,
1.251,-0.15,-0.21,1.14,0.97,-0.30,2.20,
1.251,-0.15,-0.21,1.14,0.82,-0.28,2.04,
1.254,-0.15,-0.21,1.13,0.82,-0.28,2.04,
1.256,-0.15,-0.20,1.12,0.82,-0.28,2.04,
1.256,-0.15,-0.20,1.12,0.81,-0.26,1.79,
1.261,-0.15,-0.20,1.11,0.81,-0.26,1.79,
1.261,-0.14,-0.19,1.10,0.81,-0.26,1.79,
1.261,-0.14,-0.19,1.10,0.82,-0.27,1.53,
1.263,-0.14,-0.18,1.10,0.82,-0.27,1.53,
1.266,-0.14,-0.18,1.10,0.88,-0.21,1.34,
1.267,-0.14,-0.18,1.09,0.88,-0.21,1.34,
1.269,-0.13,-0.18,1.08,0.88,-0.21,1.34,
1.271,-0.12,-0.17,1.07,0.88,-0.21,1.34,
1.271,-0.12,-0.17,1.07,0.94,-0.10,1.19,
1.273,-0.12,-0.17,1.07,0.94,-0.10,1.19,
1.277,-0.11,-0.17,1.06,0.94,-0.10,1.19,
1.278,-0.11,-0.17,1.06,1.10,-0.05,1.03,
1.278,-0.10,-0.17,1.05,1.10,-0.05,1.03,
1.281,-0.10,-0.17,1.05,1.10,-0.05,1.03,
1.281,-0.10,-0.17,1.05,1.19,-0.01,0.90,
1.284,-0.10,-0.17,1.05,1.19,-0.01,0.90,
1.286,-0.09,-0.17,1.04,1.19,-0.01,0.90,
1.286,-0.09,-0.17,1.04,1.31,-0.07,0.75,
1.288,-0.08,-0.16,1.05,1.31,-0.07,0.75,
1.291,-0.08,-0.16,1.05,1.31,-0.07,0.75,
1.292,-0.08,-0.16,1.05,1.39,-0.08,0.71,
1.297,-0.07,-0.16,1.05,1.39,-0.08,0.71,
1.298,-0.07,-0.16,1.05,1.39,-0.08,0.71,
1.298,-0.07,-0.16,1.05,1.53,-0.04,0.75,
1.298,-0.06,-0.16,1.06,1.53,-0.04,0.75,
1.3,-0.06,-0.15,1.06,1.53,-0.04,0.75,
1.3,-0.06,-0.15,1.06,1.62,-0.06,0.74,
1.303,-0.06,-0.15,1.06,1.62,-0.06,0.74,
1.305,-0.06,-0.14,1.07,1.62,-0.06,0.74,
1.306,-0.06,-0.14,1.07,1.69,-0.00,0.79,
1.307,-0.07,-0.14,1.07,1.69,-0.00,0.79,
1.31,-0.07,-0.15,1.07,1.69,-0.00,0.79,
1.31,-0.07,-0.15,1.07,1.70,0.06,0.87,
1.312,-0.07,-0.14,1.07,1.70,0.06,0.87,
1.315,-0.07,-0.14,1.09,1.70,0.06,0.87,
1.317,-0.07,-0.14,1.09,1.65,0.06,0.92,
1.317,-0.07,-0.15,1.09,1.65,0.06,0.92,
1.32,-0.07,-0.15,1.09,1.63,0.04,1.01,
1.32,-0.07,-0.15,1.09,1.63,0.04,1.01,
1.322,-0.07,-0.16,1.10,1.63,0.04,1.01,
1.325,-0.07,-0.16,1.10,1.63,0.04,1.01,
1.325,-0.07,-0.16,1.10,1.63,-0.04,1.12,
1.328,-0.07,-0.16,1.10,1.63,-0.04,1.12,
1.33,-0.07,-0.17,1.11,1.63,-0.04,1.12,
1.33,-0.07,-0.17,1.11,1.61,-0.15,1.18,
1.332,-0.07,-0.17,1.10,1.61,-0.15,1.18,
1.335,-0.07,-0.17,1.11,1.61,-0.15,1.18,
1.335,-0.07,-0.17,1.11,1.62,-0.20,1.24,
1.337,-0.07,-0.17,1.12,1.62,-0.20,1.24,
1.339,-0.06,-0.17,1.13,1.62,-0.20,1.24,
1.34,-0.06,-0.17,1.13,1.59,-0.26,1.24,
1.342,-0.06,-0.18,1.14,1.59,-0.26,1.24,
1.346,-0.06,-0.18,1.14,1.59,-0.26,1.24,
1.346,-0.06,-0.18,1.14,1.63,-0.32,1.41,
1.347,-0.06,-0.18,1.16,1.63,-0.32,1.41,
1.35,-0.06,-0.18,1.16,1.63,-0.32,1.41,
1.35,-0.06,-0.18,1.16,1.61,-0.37,1.56,
1.352,-0.06,-0.18,1.16,1.61,-0.37,1.56,
1.354,-0.06,-0.19,1.16,1.61,-0.37,1.56,
1.355,-0.06,-0.19,1.16,1.63,-0.42,1.73,
1.357,-0.06,-0.19,1.16,1.63,-0.42,1.73,
1.362,-0.06,-0.19,1.16,1.63,-0.42,1.73,
1.362,-0.06,-0.19,1.16,1.62,-0.48,1.72,
1.363,-0.06,-0.19,1.16,1.62,-0.48,1.72,
1.365,-0.06,-0.19,1.16,1.62,-0.48,1.72,
1.366,-0.06,-0.19,1.16,1.58,-0.53,1.74,
1.367,-0.07,-0.19,1.16,1.58,-0.53,1.74,
1.369,-0.07,-0.19,1.16,1.58,-0.53,1.74,
1.37,-0.07,-0.19,1.16,1.56,-0.59,1.72,
1.372,-0.07,-0.19,1.15,1.56,-0.59,1.72,
1.374,-0.07,-0.19,1.15,1.56,-0.59,1.72,
1.374,-0.07,-0.19,1.15,1.48,-0.64,1.67,
1.377,-0.06,-0.19,1.14,1.48,-0.64,1.67,
1.38,-0.06,-0.19,1.14,1.48,-0.63,1.59,
1.381,-0.06,-0.19,1.13,1.48,-0.63,1.59,
1.382,-0.05,-0.18,1.12,1.48,-0.63,1.59,
1.387,-0.05,-0.19,1.11,1.48,-0.63,1.59,
1.388,-0.05,-0.19,1.11,1.55,-0.63,1.42,
1.388,-0.05,-0.18,1.11,1.55,-0.63,1.42,
1.391,-0.05,-0.18,1.11,1.59,-0.63,1.24,
1.391,-0.05,-0.18,1.10,1.59,-0.63,1.24,
1.4,-0.04,-0.18,1.09,1.59,-0.63,1.24,
1.401,-0.04,-0.18,1.09,1.61,-0.61,1.10,
1.401,-0.03,-0.18,1.08,1.61,-0.61,1.10,
1.401,-0.03,-0.18,1.07,1.61,-0.61,1.10,
1.401,-0.02,-0.18,1.07,1.61,-0.61,1.10,
1.401,-0.02,-0.18,1.07,1.68,-0.65,0.92,
1.402,-0.02,-0.19,1.06,1.68,-0.65,0.92,
1.404,-0.02,-0.19,1.06,1.79,-0.70,0.76,
1.404,-0.01,-0.18,1.06,1.79,-0.70,0.76,
1.407,-0.01,-0.18,1.06,1.79,-0.70,0.76,
1.409,-0.00,-0.18,1.06,1.79,-0.70,0.76,
1.41,-0.00,-0.18,1.06,1.86,-0.75,0.68,
1.412,-0.01,-0.18,1.06,1.86,-0.75,0.68,
1.415,-0.00,-0.19,1.06,1.86,-0.75,0.68,
1.415,-0.00,-0.19,1.06,1.93,-0.73,0.66,
1.418,-0.00,-0.20,1.06,1.93,-0.73,0.66,
1.419,0.00,-0.20,1.06,1.93,-0.73,0.66,
1.42,0.00,-0.20,1.06,1.94,-0.80,0.61,
1.422,0.00,-0.21,1.05,1.94,-0.80,0.61,
1.425,0.01,-0.21,1.05,1.94,-0.80,0.61,
1.425,0.01,-0.21,1.05,1.97,-0.95,0.60,
1.427,0.02,-0.22,1.06,1.97,-0.95,0.60,
1.43,0.01,-0.23,1.06,1.97,-0.95,0.60,
1.43,0.01,-0.23,1.06,2.02,-1.10,0.56,
1.432,0.01,-0.23,1.06,2.02,-1.10,0.56,
1.434,0.02,-0.23,1.07,2.02,-1.10,0.56,
1.435,0.02,-0.23,1.07,2.07,-1.29,0.62,
1.437,0.02,-0.23,1.07,2.07,-1.29,0.62,
1.439,0.02,-0.23,1.07,2.07,-1.29,0.62,
1.441,0.02,-0.23,1.07,2.06,-1.35,0.64,
1.442,0.02,-0.23,1.07,2.06,-1.35,0.64,
1.446,0.02,-0.23,1.06,2.06,-1.35,0.64,
1.447,0.02,-0.23,1.06,2.08,-1.39,0.69,
1.447,0.03,-0.23,1.07,2.08,-1.39,0.69,
1.45,0.02,-0.23,1.08,2.08,-1.39,0.69,
1.45,0.02,-0.23,1.08,2.08,-1.37,0.66,
1.451,0.03,-0.22,1.09,2.08,-1.37,0.66,
1.455,0.03,-0.22,1.09,2.09,-1.38,0.75,
1.455,0.03,-0.22,1.08,2.09,-1.38,0.75,
1.457,0.03,-0.22,1.08,2.09,-1.38,0.75,
1.461,0.03,-0.21,1.08,2.09,-1.38,0.75,
1.461,0.03,-0.21,1.08,2.09,-1.31,0.85,
1.462,0.03,-0.21,1.07,2.09,-1.31,0.85,
1.463,0.02,-0.21,1.07,2.09,-1.31,0.85,
1.464,0.02,-0.21,1.07,2.08,-1.27,0.78,
1.466,0.03,-0.21,1.07,2.08,-1.27,0.78,
1.47,0.03,-0.20,1.07,2.08,-1.27,0.78,
1.47,0.03,-0.20,1.07,2.00,-1.19,0.67,
1.472,0.02,-0.20,1.08,2.00,-1.19,0.67,
1.474,0.03,-0.20,1.07,2.00,-1.19,0.67,
1.474,0.03,-0.20,1.07,1.99,-1.20,0.66,
1.477,0.03,-0.19,1.07,1.99,-1.20,0.66,
1.479,0.02,-0.18,1.08,1.99,-1.20,0.66,
1.479,0.02,-0.18,1.08,1.96,-1.12,0.70,
1.483,0.02,-0.18,1.08,1.96,-1.12,0.70,
1.483,0.02,-0.18,1.07,1.96,-1.12,0.70,
1.484,0.02,-0.18,1.07,1.91,-1.03,0.70,
1.486,0.03,-0.18,1.07,1.91,-1.03,0.70,
1.488,0.02,-0.18,1.07,1.91,-1.03,0.70,
1.489,0.02,-0.18,1.07,1.84,-0.96,0.70,
1.491,0.02,-0.17,1.06,1.84,-0.96,0.70,
1.5,0.02,-0.17,1.06,1.81,-0.94,0.64,
1.5,0.02,-0.17,1.05,1.81,-0.94,0.64,
1.5,0.01,-0.17,1.06,1.81,-0.94,0.64,
1.501,0.00,-0.16,1.05,1.81,-0.94,0.64,
1.501,0.00,-0.16,1.05,1.71,-0.87,0.50,
1.501,-0.00,-0.16,1.04,1.71,-0.87,0.50,
1.505,-0.00,-0.16,1.04,1.57,-0.85,0.44,
1.505,-0.00,-0.16,1.04,1.57,-0.85,0.44,
1.506,-0.01,-0.16,1.03,1.57,-0.85,0.44,
1.508,-0.01,-0.16,1.02,1.57,-0.85,0.44,
1.509,-0.01,-0.16,1.02,1.47,-0.81,0.30,
1.51,-0.02,-0.15,1.02,1.47,-0.81,0.30,
1.513,-0.03,-0.15,1.01,1.47,-0.81,0.30,
1.514,-0.03,-0.15,1.01,1.35,-0.83,0.16,
1.516,-0.03,-0.15,1.00,1.35,-0.83,0.16,
1.519,-0.03,-0.14,1.01,1.35,-0.83,0.16,
1.519,-0.03,-0.14,1.01,1.19,-0.73,0.06,
1.521,-0.03,-0.14,1.01,1.19,-0.73,0.06,
1.523,-0.03,-0.13,1.01,1.19,-0.73,0.06,
1.523,-0.03,-0.13,1.01,1.12,-0.69,-0.04,
1.526,-0.03,-0.13,1.00,1.12,-0.69,-0.04,
1.528,-0.03,-0.13,1.00,1.12,-0.69,-0.04,
1.529,-0.03,-0.13,1.00,1.07,-0.63,-0.03,
1.53,-0.04,-0.13,1.01,1.07,-0.63,-0.03,
1.533,-0.03,-0.12,1.01,1.07,-0.63,-0.03,
1.533,-0.03,-0.12,1.01,1.03,-0.59,-0.10,
1.536,-0.03,-0.11,1.01,1.03,-0.59,-0.10,
1.538,-0.03,-0.11,1.01,1.03,-0.59,-0.10,
1.539,-0.03,-0.11,1.01,1.00,-0.56,-0.04,
1.54,-0.02,-0.11,1.02,1.00,-0.56,-0.04,
1.543,-0.02,-0.11,1.01,1.00,-0.56,-0.04,
1.543,-0.02,-0.11,1.01,1.03,-0.43,-0.02,
1.546,-0.02,-0.11,1.01,1.03,-0.43,-0.02,
1.548,-0.02,-0.11,1.01,1.03,-0.43,-0.02,
1.548,-0.02,-0.11,1.01,1.07,-0.43,0.04,
1.55,-0.02,-0.11,1.02,1.07,-0.43,0.04,
1.554,-0.02,-0.11,1.01,1.07,-0.43,0.04,
1.554,-0.02,-0.11,1.01,1.07,-0.44,0.03,
1.556,-0.02,-0.11,1.01,1.07,-0.44,0.03,
1.558,-0.03,-0.11,1.01,1.07,-0.44,0.03,
1.558,-0.03,-0.11,1.01,1.07,-0.46,0.03,
1.562,-0.03,-0.11,1.00,1.07,-0.46,0.03,
1.563,-0.02,-0.11,1.00,1.07,-0.46,0.03,
1.564,-0.02,-0.11,1.00,1.02,-0.48,-0.03,
1.565,-0.02,-0.11,1.00,1.02,-0.48,-0.03,
1.568,-0.02,-0.11,0.98,1.02,-0.48,-0.03,
1.569,-0.02,-0.11,0.98,1.00,-0.47,-0.13,
1.571,-0.02,-0.11,0.97,1.00,-0.47,-0.13,
1.573,-0.01,-0.11,0.98,1.00,-0.47,-0.13,
1.574,-0.01,-0.11,0.98,0.99,-0.49,-0.21,
1.576,-0.01,-0.11,0.97,0.99,-0.49,-0.21,
1.578,-0.01,-0.11,0.97,1.04,-0.49,-0.36,
1.579,-0.01,-0.11,0.97,1.04,-0.49,-0.36,
1.581,-0.01,-0.10,0.98,1.04,-0.49,-0.36,
1.582,-0.00,-0.11,0.98,1.04,-0.49,-0.36,
1.583,-0.00,-0.11,0.98,1.07,-0.53,-0.39,
1.585,0.00,-0.11,0.98,1.07,-0.53,-0.39,
1.588,0.01,-0.11,0.98,1.07,-0.53,-0.39,
1.588,0.01,-0.11,0.98,1.13,-0.51,-0.35,
1.59,0.02,-0.10,0.98,1.13,-0.51,-0.35,
1.593,0.03,-0.10,0.98,1.13,-0.51,-0.35,
1.593,0.03,-0.10,0.98,1.21,-0.53,-0.33,
1.595,0.03,-0.11,0.99,1.21,-0.53,-0.33,
1.597,0.03,-0.11,0.99,1.21,-0.53,-0.33,
1.597,0.03,-0.11,0.99,1.35,-0.53,-0.35,
1.6,0.04,-0.11,0.99,1.35,-0.53,-0.35,
1.603,0.04,-0.11,1.00,1.35,-0.53,-0.35,
1.603,0.04,-0.11,1.00,1.41,-0.56,-0.24,
1.605,0.04,-0.11,0.99,1.41,-0.56,-0.24,
1.608,0.05,-0.11,1.00,1.41,-0.56,-0.24,
1.608,0.05,-0.11,1.00,1.49,-0.62,-0.21,
1.61,0.05,-0.12,1.01,1.49,-0.62,-0.21,
1.616,0.06,-0.12,1.01,1.49,-0.62,-0.21,
1.617,0.06,-0.12,1.01,1.54,-0.65,-0.17,
1.617,0.06,-0.12,1.02,1.54,-0.65,-0.17,
1.617,0.06,-0.13,1.01,1.54,-0.65,-0.17,
1.617,0.06,-0.13,1.01,1.61,-0.75,-0.04,
1.62,0.06,-0.12,1.02,1.61,-0.75,-0.04,
1.622,0.06,-0.13,1.02,1.61,-0.75,-0.04,
1.622,0.06,-0.13,1.02,1.62,-0.79,0.00,
1.625,0.06,-0.13,1.03,1.62,-0.79,0.00,
1.627,0.06,-0.14,1.03,1.62,-0.79,0.00,
1.627,0.06,-0.14,1.03,1.59,-0.81,0.04,
1.63,0.05,-0.13,1.03,1.59,-0.81,0.04,
1.632,0.05,-0.13,1.03,1.59,-0.81,0.04,
1.632,0.05,-0.13,1.03,1.55,-0.89,0.13,
1.635,0.05,-0.14,1.03,1.55,-0.89,0.13,
1.637,0.05,-0.14,1.04,1.55,-0.89,0.13,
1.638,0.05,-0.14,1.04,1.47,-0.87,0.16,
1.641,0.04,-0.14,1.04,1.47,-0.87,0.16,
1.642,0.04,-0.14,1.05,1.47,-0.87,0.16,
1.643,0.04,-0.14,1.05,1.42,-0.94,0.24,
1.645,0.04,-0.13,1.05,1.42,-0.94,0.24,
1.648,0.04,-0.14,1.05,1.42,-0.94,0.24,
1.648,0.04,-0.14,1.05,1.34,-0.96,0.29,
1.649,0.04,-0.13,1.05,1.34,-0.96,0.29,
1.652,0.04,-0.13,1.05,1.29,-0.95,0.33,
1.652,0.03,-0.13,1.05,1.29,-0.95,0.33,
1.654,0.03,-0.13,1.05,1.29,-0.95,0.33,
1.656,0.03,-0.13,1.05,1.29,-0.95,0.33,
1.657,0.03,-0.13,1.05,1.23,-0.90,0.37,
1.659,0.02,-0.12,1.06,1.23,-0.90,0.37,
1.662,0.02,-0.12,1.07,1.23,-0.90,0.37,
1.663,0.02,-0.12,1.07,1.16,-0.90,0.35,
1.664,0.02,-0.11,1.07,1.16,-0.90,0.35,
1.666,0.02,-0.11,1.06,1.16,-0.90,0.35,
1.666,0.02,-0.11,1.06,1.07,-0.86,0.45,
1.669,0.02,-0.11,1.07,1.07,-0.86,0.45,
1.671,0.02,-0.11,1.07,1.07,-0.86,0.45,
1.672,0.02,-0.11,1.07,1.05,-0.80,0.45,
1.674,0.02,-0.10,1.07,1.05,-0.80,0.45,
1.676,0.02,-0.10,1.07,1.03,-0.78,0.50,
1.677,0.02,-0.10,1.05,1.03,-0.78,0.50,
1.679,0.02,-0.09,1.05,1.03,-0.78,0.50,
1.681,0.02,-0.09,1.04,1.03,-0.78,0.50,
1.682,0.02,-0.09,1.04,1.00,-0.69,0.43,
1.684,0.02,-0.08,1.04,1.00,-0.69,0.43,
1.687,0.01,-0.08,1.04,1.00,-0.69,0.43,
1.687,0.01,-0.08,1.04,0.98,-0.60,0.28,
1.689,0.01,-0.08,1.04,0.98,-0.60,0.28,
1.692,0.01,-0.07,1.03,0.98,-0.60,0.28,
1.692,0.01,-0.07,1.03,0.89,-0.57,0.21,
1.695,0.01,-0.07,1.02,0.89,-0.57,0.21,
1.697,0.00,-0.07,1.01,0.89,-0.57,0.21,
1.697,0.00,-0.07,1.01,0.82,-0.52,0.12,
1.698,0.01,-0.07,1.01,0.82,-0.52,0.12,
1.701,0.00,-0.07,1.01,0.82,-0.52,0.12,
1.701,0.00,-0.07,1.01,0.75,-0.50,-0.02,
1.703,-0.00,-0.07,1.00,0.75,-0.50,-0.02,
1.706,-0.00,-0.07,0.99,0.75,-0.50,-0.02,
1.706,-0.00,-0.07,0.99,0.73,-0.52,-0.09,
1.708,-0.00,-0.07,0.98,0.73,-0.52,-0.09,
1.716,0.00,-0.07,0.98,0.73,-0.52,-0.09,
1.717,0.00,-0.07,0.98,0.62,-0.55,-0.23,
1.717,-0.00,-0.08,0.97,0.62,-0.55,-0.23,
1.718,-0.00,-0.08,0.97,0.62,-0.55,-0.23,
1.719,-0.00,-0.08,0.97,0.61,-0.60,-0.40,
1.719,-0.01,-0.08,0.98,0.61,-0.60,-0.40,
1.721,-0.01,-0.08,0.98,0.61,-0.60,-0.40,
1.721,-0.01,-0.08,0.98,0.60,-0.68,-0.46,
1.723,-0.00,-0.08,0.97,0.60,-0.68,-0.46,
1.726,-0.00,-0.08,0.98,0.60,-0.68,-0.46,
1.726,-0.00,-0.08,0.98,0.55,-0.72,-0.41,
1.737,0.00,-0.08,0.97,0.55,-0.72,-0.41,
1.737,0.01,-0.08,0.97,0.55,-0.72,-0.41,
1.738,0.01,-0.08,0.97,0.58,-0.75,-0.43,
1.738,0.01,-0.08,0.97,0.58,-0.75,-0.43,
1.738,0.01,-0.09,0.98,0.58,-0.75,-0.43,
1.738,0.01,-0.09,0.98,0.62,-0.80,-0.46,
1.739,0.01,-0.09,0.97,0.62,-0.80,-0.46,
1.741,0.01,-0.09,0.97,0.62,-0.80,-0.46,
1.741,0.01,-0.09,0.97,0.66,-0.86,-0.40,
1.744,0.01,-0.09,0.97,0.66,-0.86,-0.40,
1.747,0.02,-0.08,0.97,0.66,-0.86,-0.40,
1.748,0.02,-0.08,0.97,0.63,-0.89,-0.47,
1.749,0.02,-0.08,0.96,0.63,-0.89,-0.47,
1.751,0.02,-0.08,0.96,0.68,-0.92,-0.49,
1.751,0.02,-0.08,0.96,0.68,-0.92,-0.49,
1.753,0.03,-0.08,0.96,0.68,-0.92,-0.49,
1.757,0.03,-0.07,0.95,0.68,-0.92,-0.49,
1.757,0.03,-0.07,0.95,0.74,-0.89,-0.55,
1.759,0.04,-0.07,0.95,0.74,-0.89,-0.55,
1.762,0.04,-0.06,0.96,0.74,-0.89,-0.55,
1.763,0.04,-0.06,0.96,0.80,-0.85,-0.62,
1.764,0.04,-0.06,0.95,0.80,-0.85,-0.62,
1.766,0.04,-0.06,0.95,0.80,-0.85,-0.62,
1.766,0.04,-0.06,0.95,0.85,-0.78,-0.63,
1.769,0.04,-0.06,0.95,0.85,-0.78,-0.63,
1.772,0.04,-0.06,0.95,0.85,-0.75,-0.66,
1.772,0.04,-0.05,0.95,0.85,-0.75,-0.66,
1.773,0.04,-0.05,0.95,0.85,-0.75,-0.66,
1.777,0.04,-0.05,0.95,0.82,-0.70,-0.68,
1.777,0.04,-0.05,0.94,0.82,-0.70,-0.68,
1.78,0.04,-0.04,0.94,0.82,-0.70,-0.68,
1.781,0.04,-0.04,0.94,0.84,-0.66,-0.69,
1.782,0.04,-0.04,0.94,0.84,-0.66,-0.69,
1.783,0.04,-0.04,0.94,0.84,-0.66,-0.69,
1.786,0.03,-0.03,0.94,0.84,-0.66,-0.69,
1.787,0.03,-0.03,0.94,0.78,-0.64,-0.71,
1.789,0.03,-0.03,0.94,0.78,-0.64,-0.71,
1.792,0.02,-0.02,0.94,0.78,-0.64,-0.71,
1.792,0.02,-0.02,0.94,0.71,-0.56,-0.72,
1.794,0.02,-0.02,0.96,0.71,-0.56,-0.72,
1.798,0.02,-0.01,0.97,0.71,-0.56,-0.72,
1.799,0.02,-0.01,0.97,0.63,-0.49,-0.71,
1.799,0.02,-0.01,0.96,0.63,-0.49,-0.71,
1.801,0.02,-0.01,0.96,0.56,-0.40,-0.50,
1.801,0.02,-0.01,0.95,0.56,-0.40,-0.50,
1.804,0.01,-0.00,0.95,0.56,-0.40,-0.50,
1.807,0.01,-0.00,0.95,0.56,-0.40,-0.50,
1.807,0.01,-0.00,0.95,0.48,-0.36,-0.59,
1.808,-0.00,-0.00,0.94,0.48,-0.36,-0.59,
1.811,-0.01,-0.00,0.94,0.48,-0.36,-0.59,
1.815,-0.01,-0.00,0.94,0.42,-0.36,-0.63,
1.816,-0.00,-0.00,0.94,0.42,-0.36,-0.63,
1.816,-0.00,-0.01,0.93,0.42,-0.36,-0.63,
1.816,-0.00,-0.01,0.93,0.27,-0.38,-0.72,
1.82,-0.00,-0.01,0.93,0.27,-0.38,-0.72,
1.821,-0.00,-0.01,0.93,0.27,-0.38,-0.72,
1.821,-0.00,-0.01,0.93,0.26,-0.42,-0.77,
1.823,0.00,-0.01,0.93,0.26,-0.42,-0.77,
1.825,0.00,-0.01,0.93,0.26,-0.49,-0.84,
1.825,-0.00,-0.01,0.92,0.26,-0.49,-0.84,
1.837,-0.00,-0.01,0.91,0.26,-0.49,-0.84,
1.837,-0.00,-0.02,0.91,0.26,-0.49,-0.84,
1.838,-0.00,-0.02,0.91,0.27,-0.52,-0.89,
1.838,0.00,-0.02,0.90,0.27,-0.52,-0.89,
1.838,0.00,-0.02,0.90,0.27,-0.52,-0.89,
1.838,0.00,-0.02,0.90,0.24,-0.61,-1.00,
1.838,0.01,-0.03,0.90,0.24,-0.61,-1.00,
1.84,0.01,-0.03,0.90,0.24,-0.61,-1.00,
1.84,0.01,-0.03,0.90,0.27,-0.71,-1.07,
1.843,0.01,-0.03,0.91,0.27,-0.71,-1.07,
1.845,0.02,-0.03,0.90,0.27,-0.71,-1.07,
1.846,0.02,-0.03,0.90,0.29,-0.79,-1.08,
1.847,0.02,-0.03,0.90,0.29,-0.79,-1.08,
1.85,0.02,-0.03,0.90,0.35,-0.85,-1.06,
1.85,0.02,-0.03,0.90,0.35,-0.85,-1.06,
1.853,0.02,-0.02,0.90,0.35,-0.85,-1.06,
1.855,0.03,-0.02,0.91,0.35,-0.85,-1.06,
1.855,0.03,-0.02,0.91,0.42,-0.83,-1.06,
1.858,0.03,-0.01,0.90,0.42,-0.83,-1.06,
1.861,0.03,-0.01,0.91,0.42,-0.83,-1.06,
1.862,0.03,-0.01,0.91,0.45,-0.78,-1.05,
1.864,0.03,-0.01,0.90,0.45,-0.78,-1.05,
1.865,0.04,0.00,0.90,0.45,-0.78,-1.05,
1.866,0.04,0.00,0.90,0.48,-0.69,-1.04,
1.867,0.03,0.01,0.90,0.48,-0.69,-1.04,
1.869,0.04,0.01,0.90,0.48,-0.69,-1.04,
1.87,0.04,0.01,0.90,0.53,-0.64,-1.08,
1.873,0.04,0.02,0.90,0.53,-0.64,-1.08,
1.875,0.04,0.02,0.90,0.53,-0.64,-1.08,
1.875,0.04,0.02,0.90,0.56,-0.56,-1.08,
1.878,0.05,0.02,0.89,0.56,-0.56,-1.08,
1.88,0.05,0.03,0.89,0.56,-0.56,-1.08,
1.881,0.05,0.03,0.89,0.59,-0.46,-1.11,
1.882,0.05,0.04,0.89,0.59,-0.46,-1.11,
1.885,0.05,0.04,0.88,0.59,-0.46,-1.11,
1.885,0.05,0.04,0.88,0.63,-0.43,-1.16,
1.888,0.05,0.04,0.89,0.63,-0.43,-1.16,
1.89,0.04,0.05,0.89,0.63,-0.43,-1.16,
1.89,0.04,0.05,0.89,0.63,-0.38,-1.22,
1.892,0.04,0.05,0.90,0.63,-0.38,-1.22,
1.895,0.04,0.05,0.89,0.63,-0.38,-1.22,
1.895,0.04,0.05,0.89,0.59,-0.32,-1.18,
1.897,0.04,0.05,0.89,0.59,-0.32,-1.18,
1.899,0.04,0.05,0.90,0.59,-0.32,-1.18,
1.9,0.04,0.05,0.90,0.57,-0.31,-1.10,
1.902,0.03,0.06,0.89,0.57,-0.31,-1.10,
1.905,0.03,0.05,0.89,0.57,-0.31,-1.10,
1.905,0.03,0.05,0.89,0.53,-0.29,-1.11,
1.907,0.03,0.06,0.89,0.53,-0.29,-1.11,
1.91,0.03,0.06,0.88,0.53,-0.29,-1.11,
1.91,0.03,0.06,0.88,0.46,-0.29,-1.14,
1.912,0.02,0.06,0.88,0.46,-0.29,-1.14,
1.914,0.01,0.06,0.86,0.46,-0.29,-1.14,
1.914,0.01,0.06,0.86,0.41,-0.28,-1.20,
1.917,0.01,0.05,0.85,0.41,-0.28,-1.20,
1.92,0.01,0.05,0.85,0.30,-0.31,-1.35,
1.92,0.02,0.06,0.83,0.30,-0.31,-1.35,
1.922,0.02,0.05,0.82,0.30,-0.31,-1.35,
1.924,0.02,0.05,0.82,0.29,-0.35,-1.61,
1.925,0.01,0.05,0.82,0.29,-0.35,-1.61,
1.927,0.01,0.05,0.82,0.29,-0.35,-1.61,
1.934,0.00,0.05,0.82,0.29,-0.35,-1.61,
1.935,0.00,0.05,0.82,0.25,-0.43,-1.83,
1.935,-0.00,0.05,0.81,0.25,-0.43,-1.83,
1.935,0.00,0.06,0.80,0.25,-0.43,-1.83,
1.935,0.00,0.06,0.80,0.17,-0.47,-1.83,
1.938,0.00,0.07,0.81,0.17,-0.47,-1.83,
1.939,0.00,0.07,0.82,0.17,-0.47,-1.83,
1.939,0.00,0.07,0.82,0.12,-0.41,-1.99,
1.941,0.01,0.07,0.81,0.12,-0.41,-1.99,
1.944,0.01,0.08,0.81,0.12,-0.41,-1.99,
1.944,0.01,0.08,0.81,0.13,-0.30,-1.88,
1.946,0.00,0.08,0.80,0.13,-0.30,-1.88,
1.949,0.00,0.08,0.80,0.19,-0.24,-1.91,
1.949,0.00,0.08,0.81,0.19,-0.24,-1.91,
1.951,0.01,0.09,0.82,0.19,-0.24,-1.91,
1.953,0.01,0.08,0.82,0.19,-0.24,-1.91,
1.954,0.01,0.08,0.82,0.15,-0.20,-1.94,
1.956,0.02,0.08,0.81,0.15,-0.20,-1.94,
1.959,0.03,0.08,0.83,0.15,-0.20,-1.94,
1.959,0.03,0.08,0.83,0.21,-0.19,-1.83,
1.961,0.03,0.08,0.84,0.21,-0.19,-1.83,
1.964,0.03,0.08,0.85,0.21,-0.19,-1.83,
1.965,0.03,0.08,0.85,0.35,-0.23,-1.79,
1.966,0.04,0.07,0.86,0.35,-0.23,-1.79,
1.969,0.04,0.07,0.87,0.35,-0.23,-1.79,
1.97,0.04,0.07,0.87,0.41,-0.25,-1.50,
1.971,0.05,0.07,0.89,0.41,-0.25,-1.50,
1.973,0.05,0.07,0.89,0.49,-0.30,-1.33,
1.974,0.06,0.07,0.90,0.49,-0.30,-1.33,
1.976,0.06,0.07,0.91,0.49,-0.30,-1.33,
1.98,0.07,0.06,0.92,0.49,-0.30,-1.33,
1.981,0.07,0.06,0.92,0.62,-0.33,-1.04,
1.981,0.07,0.07,0.92,0.62,-0.33,-1.04,
1.983,0.08,0.07,0.92,0.62,-0.33,-1.04,
1.984,0.08,0.07,0.92,0.75,-0.39,-0.89,
1.986,0.07,0.06,0.93,0.75,-0.39,-0.89,
1.988,0.07,0.06,0.93,0.83,-0.39,-0.80,
1.988,0.07,0.07,0.93,0.83,-0.39,-0.80,
1.99,0.08,0.08,0.93,0.83,-0.39,-0.80,
1.994,0.07,0.08,0.93,0.83,-0.39,-0.80,
1.994,0.07,0.08,0.93,0.80,-0.38,-0.68,
1.996,0.07,0.08,0.94,0.80,-0.38,-0.68,
1.998,0.07,0.08,0.95,0.80,-0.38,-0.68,
1.998,0.07,0.08,0.95,0.83,-0.28,-0.67,
2.0,0.07,0.09,0.96,0.83,-0.28,-0.67,
2.003,0.06,0.09,0.96,0.83,-0.28,-0.67,
2.003,0.06,0.09,0.96,0.79,-0.24,-0.56,
2.006,0.06,0.10,0.97,0.79,-0.24,-0.56,
2.009,0.06,0.10,0.96,0.79,-0.24,-0.56,
2.009,0.06,0.10,0.96,0.73,-0.15,-0.39,
2.01,0.06,0.10,0.96,0.73,-0.15,-0.39,
2.014,0.06,0.11,0.96,0.73,-0.15,-0.39,
2.014,0.06,0.11,0.96,0.67,-0.07,-0.35,
2.015,0.06,0.11,0.96,0.67,-0.07,-0.35,
2.018,0.05,0.11,0.96,0.67,-0.07,-0.35,
2.018,0.05,0.11,0.96,0.64,-0.01,-0.40,
2.02,0.05,0.11,0.95,0.64,-0.01,-0.40,
2.023,0.04,0.11,0.95,0.64,-0.01,-0.40,
2.023,0.04,0.11,0.95,0.61,0.04,-0.41,
2.025,0.04,0.11,0.94,0.61,0.04,-0.41,
2.028,0.03,0.11,0.93,0.61,0.04,-0.41,
2.028,0.03,0.11,0.93,0.52,0.01,-0.48,
2.034,0.02,0.11,0.92,0.52,0.01,-0.48,
2.034,0.02,0.10,0.90,0.52,0.01,-0.48,
2.035,0.02,0.10,0.90,0.37,-0.03,-0.67,
2.035,0.01,0.10,0.89,0.37,-0.03,-0.67,
2.038,0.01,0.10,0.89,0.28,-0.07,-0.85,
2.038,0.00,0.11,0.88,0.28,-0.07,-0.85,
2.04,0.00,0.11,0.87,0.28,-0.07,-0.85,
2.042,-0.00,0.11,0.87,0.28,-0.07,-0.85,
2.043,-0.00,0.11,0.87,0.12,-0.09,-1.10,
2.047,-0.01,0.11,0.86,0.12,-0.09,-1.10,
2.048,-0.02,0.11,0.85,0.12,-0.09,-1.10,
2.048,-0.02,0.11,0.85,0.02,-0.04,-1.28,
2.05,-0.02,0.12,0.85,0.02,-0.04,-1.28,
2.052,-0.03,0.12,0.84,0.02,-0.04,-1.28,
2.053,-0.03,0.12,0.84,-0.10,-0.01,-1.40,
2.055,-0.04,0.13,0.84,-0.10,-0.01,-1.40,
2.057,-0.04,0.13,0.84,-0.10,-0.01,-1.40,
2.058,-0.04,0.13,0.84,-0.18,0.03,-1.48,
2.06,-0.04,0.13,0.84,-0.18,0.03,-1.48,
2.063,-0.05,0.13,0.84,-0.18,0.03,-1.48,
2.064,-0.05,0.13,0.84,-0.34,0.12,-1.55,
2.065,-0.04,0.13,0.84,-0.34,0.12,-1.55,
2.068,-0.05,0.14,0.84,-0.34,0.12,-1.55,
2.068,-0.05,0.14,0.84,-0.41,0.11,-1.55,
2.07,-0.05,0.14,0.84,-0.41,0.11,-1.55,
2.072,-0.05,0.14,0.85,-0.41,0.11,-1.55,
2.072,-0.05,0.14,0.85,-0.43,0.17,-1.49,
2.076,-0.05,0.14,0.85,-0.43,0.17,-1.49,
2.077,-0.05,0.13,0.86,-0.43,0.17,-1.49,
2.077,-0.05,0.13,0.86,-0.45,0.20,-1.48,
2.081,-0.05,0.13,0.86,-0.45,0.20,-1.48,
2.087,-0.04,0.12,0.86,-0.45,0.20,-1.48,
2.087,-0.04,0.12,0.86,-0.44,0.17,-1.39,
2.088,-0.04,0.12,0.87,-0.44,0.17,-1.39,
2.088,-0.04,0.12,0.87,-0.44,0.17,-1.39,
2.088,-0.04,0.12,0.87,-0.42,0.07,-1.35,
2.09,-0.04,0.11,0.88,-0.42,0.07,-1.35,
2.093,-0.04,0.11,0.88,-0.42,0.07,-1.35,
2.093,-0.04,0.11,0.88,-0.40,-0.01,-1.25,
2.095,-0.03,0.11,0.89,-0.40,-0.01,-1.25,
2.098,-0.03,0.11,0.89,-0.34,-0.07,-1.13,
2.099,-0.03,0.10,0.89,-0.34,-0.07,-1.13,
2.102,-0.03,0.11,0.89,-0.34,-0.07,-1.13,
2.102,-0.03,0.11,0.90,-0.34,-0.07,-1.13,
2.102,-0.03,0.11,0.90,-0.29,-0.12,-1.03,
2.105,-0.03,0.11,0.90,-0.29,-0.12,-1.03,
2.107,-0.03,0.11,0.91,-0.29,-0.12,-1.03,
2.107,-0.03,0.11,0.91,-0.27,-0.09,-0.95,
2.109,-0.04,0.11,0.91,-0.27,-0.09,-0.95,
2.112,-0.03,0.12,0.92,-0.27,-0.09,-0.95,
2.112,-0.03,0.12,0.92,-0.30,-0.08,-0.85,
2.114,-0.04,0.11,0.93,-0.30,-0.08,-0.85,
2.117,-0.04,0.11,0.94,-0.30,-0.08,-0.85,
2.117,-0.04,0.11,0.94,-0.32,-0.03,-0.78,
2.119,-0.04,0.11,0.93,-0.32,-0.03,-0.78,
2.122,-0.04,0.11,0.93,-0.34,-0.06,-0.62,
2.122,-0.04,0.11,0.93,-0.34,-0.06,-0.62,
2.124,-0.04,0.11,0.95,-0.34,-0.06,-0.62,
2.127,-0.05,0.11,0.94,-0.34,-0.06,-0.62,
2.128,-0.05,0.11,0.94,-0.39,-0.06,-0.60,
2.131,-0.05,0.11,0.94,-0.39,-0.06,-0.60,
2.133,-0.06,0.11,0.94,-0.39,-0.06,-0.60,
2.133,-0.06,0.11,0.94,-0.43,-0.05,-0.49,
2.135,-0.07,0.10,0.94,-0.43,-0.05,-0.49,
2.137,-0.08,0.10,0.94,-0.43,-0.05,-0.49,
2.138,-0.08,0.10,0.94,-0.55,-0.07,-0.54,
2.14,-0.09,0.09,0.93,-0.55,-0.07,-0.54,
2.144,-0.10,0.09,0.92,-0.55,-0.07,-0.54,
2.144,-0.10,0.09,0.92,-0.73,-0.17,-0.56,
2.144,-0.10,0.08,0.93,-0.73,-0.17,-0.56,
2.152,-0.11,0.07,0.92,-0.73,-0.17,-0.56,
2.152,-0.11,0.07,0.92,-0.91,-0.25,-0.65,
2.153,-0.10,0.07,0.91,-0.91,-0.25,-0.65,
2.153,-0.11,0.07,0.91,-0.91,-0.25,-0.65,
2.153,-0.11,0.07,0.91,-1.06,-0.38,-0.72,
2.156,-0.11,0.07,0.91,-1.06,-0.38,-0.72,
2.156,-0.12,0.07,0.92,-1.06,-0.38,-0.72,
2.157,-0.12,0.07,0.92,-1.11,-0.44,-0.82,
2.161,-0.12,0.06,0.92,-1.11,-0.44,-0.82,
2.162,-0.12,0.06,0.92,-1.11,-0.44,-0.82,
2.162,-0.12,0.06,0.92,-1.17,-0.47,-0.78,
2.164,-0.12,0.06,0.93,-1.17,-0.47,-0.78,
2.168,-0.12,0.06,0.94,-1.17,-0.47,-0.78,
2.168,-0.12,0.06,0.94,-1.25,-0.55,-0.71,
2.169,-0.13,0.06,0.94,-1.25,-0.55,-0.71,
2.172,-0.13,0.06,0.94,-1.29,-0.50,-0.56,
2.172,-0.13,0.07,0.94,-1.29,-0.50,-0.56,
2.175,-0.13,0.07,0.95,-1.29,-0.50,-0.56,
2.177,-0.14,0.07,0.96,-1.29,-0.50,-0.56,
2.177,-0.14,0.07,0.96,-1.36,-0.46,-0.49,
2.179,-0.14,0.07,0.96,-1.36,-0.46,-0.49,
2.182,-0.14,0.08,0.97,-1.36,-0.46,-0.49,
2.182,-0.14,0.08,0.97,-1.42,-0.39,-0.36,
2.184,-0.13,0.08,0.97,-1.42,-0.39,-0.36,
2.186,-0.14,0.08,0.97,-1.42,-0.39,-0.36,
2.186,-0.14,0.08,0.97,-1.44,-0.35,-0.29,
2.189,-0.14,0.08,0.98,-1.44,-0.35,-0.29,
2.192,-0.14,0.08,0.99,-1.44,-0.35,-0.29,
2.192,-0.14,0.08,0.99,-1.43,-0.30,-0.20,
2.194,-0.14,0.08,0.98,-1.43,-0.30,-0.20,
2.198,-0.14,0.08,0.98,-1.46,-0.27,-0.10,
2.199,-0.14,0.09,0.98,-1.46,-0.27,-0.10,
2.199,-0.13,0.09,0.98,-1.46,-0.27,-0.10,
2.201,-0.14,0.09,0.98,-1.46,-0.27,-0.10,
2.201,-0.14,0.09,0.98,-1.45,-0.23,-0.15,
2.204,-0.14,0.09,0.98,-1.45,-0.23,-0.15,
2.206,-0.14,0.10,0.97,-1.45,-0.23,-0.15,
2.207,-0.14,0.10,0.97,-1.44,-0.17,-0.12,
2.209,-0.14,0.10,0.97,-1.44,-0.17,-0.12,
2.212,-0.14,0.11,0.98,-1.44,-0.17,-0.12,
2.212,-0.14,0.11,0.98,-1.46,-0.12,-0.17,
2.215,-0.13,0.11,0.98,-1.46,-0.12,-0.17,
2.216,-0.13,0.12,0.98,-1.46,-0.12,-0.17,
2.216,-0.13,0.12,0.98,-1.44,-0.05,-0.16,
2.219,-0.13,0.12,0.98,-1.44,-0.05,-0.16,
2.221,-0.13,0.12,0.98,-1.39,0.08,-0.15,
2.222,-0.13,0.12,0.97,-1.39,0.08,-0.15,
2.224,-0.13,0.13,0.97,-1.39,0.08,-0.15,
2.226,-0.13,0.13,0.97,-1.39,0.08,-0.15,
2.227,-0.13,0.13,0.97,-1.38,0.14,-0.16,
2.229,-0.13,0.13,0.97,-1.38,0.14,-0.16,
2.231,-0.13,0.13,0.96,-1.38,0.14,-0.16,
2.231,-0.13,0.13,0.96,-1.36,0.17,-0.23,
2.233,-0.13,0.13,0.96,-1.36,0.17,-0.23,
2.236,-0.12,0.12,0.96,-1.36,0.17,-0.23,
2.237,-0.12,0.12,0.96,-1.38,0.18,-0.28,
2.239,-0.13,0.12,0.95,-1.38,0.18,-0.28,
2.241,-0.12,0.12,0.94,-1.38,0.18,-0.28,
2.241,-0.12,0.12,0.94,-1.35,0.15,-0.32,
2.244,-0.12,0.12,0.93,-1.35,0.15,-0.32,
2.246,-0.12,0.12,0.93,-1.35,0.09,-0.51,
2.247,-0.12,0.12,0.93,-1.35,0.09,-0.51,
2.252,-0.13,0.11,0.92,-1.35,0.09,-0.51,
2.253,-0.13,0.11,0.91,-1.35,0.09,-0.51,
2.253,-0.13,0.11,0.91,-1.32,0.07,-0.63,
2.253,-0.12,0.11,0.91,-1.32,0.07,-0.63,
2.256,-0.12,0.11,0.91,-1.36,0.03,-0.75,
2.257,-0.13,0.11,0.91,-1.36,0.03,-0.75,
2.259,-0.14,0.11,0.91,-1.36,0.03,-0.75,
2.261,-0.14,0.12,0.91,-1.36,0.03,-0.75,
2.261,-0.14,0.12,0.91,-1.38,0.02,-0.79,
2.263,-0.14,0.11,0.91,-1.38,0.02,-0.79,
2.266,-0.14,0.12,0.90,-1.38,0.02,-0.79,
2.266,-0.14,0.12,0.90,-1.49,0.03,-0.78,
2.268,-0.14,0.11,0.90,-1.49,0.03,-0.78,
2.271,-0.14,0.11,0.91,-1.49,0.03,-0.78,
2.271,-0.14,0.11,0.91,-1.50,0.02,-0.84,
2.274,-0.14,0.12,0.91,-1.50,0.02,-0.84,
2.276,-0.14,0.11,0.91,-1.50,0.02,-0.84,
2.276,-0.14,0.11,0.91,-1.56,0.03,-0.84,
2.279,-0.13,0.11,0.92,-1.56,0.03,-0.84,
2.281,-0.13,0.12,0.94,-1.56,0.03,-0.84,
2.282,-0.13,0.12,0.94,-1.49,0.03,-0.77,
2.283,-0.13,0.12,0.95,-1.49,0.03,-0.77,
2.285,-0.13,0.12,0.96,-1.49,0.03,-0.77,
2.285,-0.13,0.12,0.96,-1.46,0.03,-0.61,
2.288,-0.12,0.11,0.97,-1.46,0.03,-0.61,
2.29,-0.12,0.11,0.98,-1.46,0.03,-0.61,
2.29,-0.12,0.11,0.98,-1.40,0.07,-0.38,
2.294,-0.11,0.11,0.99,-1.40,0.07,-0.38,
2.295,-0.11,0.11,0.99,-1.30,0.03,-0.18,
2.295,-0.11,0.11,1.00,-1.30,0.03,-0.18,
2.298,-0.11,0.10,1.02,-1.30,0.03,-0.18,
2.3,-0.10,0.09,1.03,-1.30,0.03,-0.18,
2.301,-0.10,0.09,1.03,-1.24,-0.01,0.03,
2.302,-0.10,0.09,1.03,-1.24,-0.01,0.03,
2.305,-0.09,0.09,1.04,-1.24,-0.01,0.03,
2.307,-0.09,0.09,1.04,-1.17,-0.09,0.30,
2.309,-0.09,0.08,1.05,-1.17,-0.09,0.30,
2.31,-0.08,0.08,1.06,-1.17,-0.09,0.30,
2.31,-0.08,0.08,1.06,-1.05,-0.17,0.46,
2.312,-0.08,0.08,1.06,-1.05,-0.17,0.46,
2.315,-0.08,0.08,1.06,-1.05,-0.17,0.46,
2.316,-0.08,0.08,1.06,-0.97,-0.23,0.61,
2.317,-0.08,0.08,1.06,-0.97,-0.23,0.61,
2.32,-0.08,0.08,1.06,-0.90,-0.25,0.68,
2.32,-0.08,0.08,1.06,-0.90,-0.25,0.68,
2.322,-0.08,0.09,1.05,-0.90,-0.25,0.68,
2.325,-0.09,0.09,1.04,-0.90,-0.25,0.68,
2.325,-0.09,0.09,1.04,-0.90,-0.27,0.68,
2.327,-0.09,0.09,1.04,-0.90,-0.27,0.68,
2.332,-0.10,0.10,1.03,-0.90,-0.27,0.68,
2.333,-0.10,0.10,1.03,-0.92,-0.17,0.53,
2.333,-0.10,0.10,1.02,-0.92,-0.17,0.53,
2.335,-0.11,0.11,1.01,-0.92,-0.17,0.53,
2.335,-0.11,0.11,1.01,-1.01,-0.10,0.38,
2.337,-0.12,0.11,1.00,-1.01,-0.10,0.38,
2.341,-0.12,0.11,0.99,-1.01,-0.10,0.38,
2.341,-0.12,0.11,0.99,-1.13,-0.04,0.19,
2.342,-0.13,0.11,0.99,-1.13,-0.04,0.19,
2.35,-0.13,0.11,0.99,-1.25,-0.01,0.02,
2.351,-0.13,0.11,0.98,-1.25,-0.01,0.02,
2.351,-0.13,0.12,0.97,-1.25,-0.01,0.02,
2.351,-0.13,0.12,0.97,-1.25,-0.01,0.02,
2.351,-0.13,0.12,0.97,-1.30,0.04,-0.09,
2.353,-0.14,0.13,0.96,-1.30,0.04,-0.09,
2.357,-0.13,0.13,0.95,-1.30,0.04,-0.09,
2.357,-0.13,0.13,0.95,-1.35,0.13,-0.25,
2.357,-0.14,0.13,0.96,-1.35,0.13,-0.25,
2.362,-0.14,0.13,0.96,-1.39,0.19,-0.33,
2.362,-0.14,0.13,0.96,-1.39,0.19,-0.33,
2.362,-0.14,0.12,0.96,-1.39,0.19,-0.33,
2.371,-0.15,0.12,0.96,-1.39,0.19,-0.33,
2.372,-0.15,0.12,0.96,-1.43,0.23,-0.34,
2.372,-0.15,0.12,0.97,-1.43,0.23,-0.34,
2.372,-0.15,0.12,0.97,-1.43,0.23,-0.34,
2.373,-0.15,0.12,0.97,-1.48,0.14,-0.35,
2.373,-0.14,0.11,0.98,-1.48,0.14,-0.35,
2.375,-0.14,0.11,0.98,-1.48,0.14,-0.35,
2.375,-0.14,0.11,0.98,-1.51,0.10,-0.23,
2.38,-0.13,0.10,0.98,-1.51,0.10,-0.23,
2.38,-0.12,0.11,0.98,-1.51,0.10,-0.23,
2.38,-0.12,0.11,0.98,-1.39,0.05,-0.15,
2.384,-0.12,0.10,0.99,-1.39,0.05,-0.15,
2.385,-0.12,0.10,0.99,-1.27,-0.00,-0.11,
2.385,-0.11,0.10,1.00,-1.27,-0.00,-0.11,
2.388,-0.11,0.10,1.01,-1.27,-0.00,-0.11,
2.39,-0.10,0.10,1.02,-1.27,-0.00,-0.11,
2.39,-0.10,0.10,1.02,-1.17,-0.02,0.04,
2.392,-0.10,0.10,1.02,-1.17,-0.02,0.04,
2.396,-0.09,0.10,1.03,-1.17,-0.02,0.04,
2.396,-0.09,0.10,1.03,-1.08,-0.04,0.20,
2.399,-0.08,0.10,1.04,-1.08,-0.04,0.20,
2.399,-0.08,0.10,1.04,-0.94,-0.08,0.32,
2.401,-0.08,0.10,1.05,-0.94,-0.08,0.32,
2.403,-0.07,0.09,1.04,-0.94,-0.08,0.32,
2.405,-0.07,0.09,1.05,-0.94,-0.08,0.32,
2.406,-0.07,0.09,1.05,-0.81,-0.07,0.49,
2.406,-0.07,0.10,1.06,-0.81,-0.07,0.49,
2.412,-0.07,0.10,1.06,-0.72,-0.09,0.53,
2.412,-0.06,0.10,1.06,-0.72,-0.09,0.53,
2.413,-0.06,0.10,1.06,-0.72,-0.09,0.53,
2.417,-0.06,0.10,1.05,-0.72,-0.09,0.53,
2.418,-0.06,0.10,1.05,-0.64,-0.06,0.62,
2.418,-0.06,0.10,1.06,-0.64,-0.06,0.62,
2.419,-0.06,0.11,1.05,-0.64,-0.06,0.62,
2.42,-0.06,0.11,1.05,-0.62,-0.06,0.62,
2.421,-0.06,0.10,1.05,-0.62,-0.06,0.62,
2.425,-0.06,0.11,1.04,-0.62,-0.06,0.62,
2.425,-0.06,0.11,1.04,-0.57,0.00,0.61,
2.428,-0.06,0.12,1.04,-0.57,0.00,0.61,
2.429,-0.06,0.12,1.03,-0.57,0.00,0.61,
2.429,-0.06,0.12,1.03,-0.58,0.04,0.51,
2.433,-0.06,0.12,1.02,-0.58,0.04,0.51,
2.434,-0.07,0.12,1.02,-0.58,0.04,0.51,
2.436,-0.07,0.12,1.02,-0.55,0.14,0.40,
2.437,-0.07,0.13,1.01,-0.55,0.14,0.40,
2.44,-0.07,0.13,1.00,-0.55,0.14,0.40,
2.44,-0.07,0.13,1.00,-0.61,0.18,0.26,
2.444,-0.07,0.14,1.00,-0.61,0.18,0.26,
2.444,-0.08,0.14,0.99,-0.61,0.18,0.26,
2.444,-0.08,0.14,0.99,-0.65,0.24,0.14,
2.447,-0.07,0.14,0.99,-0.65,0.24,0.14,
2.45,-0.07,0.13,0.98,-0.65,0.24,0.14,
2.45,-0.07,0.13,0.98,-0.70,0.30,0.02,
2.451,-0.08,0.13,0.98,-0.70,0.30,0.02,
2.454,-0.08,0.13,0.97,-0.70,0.30,0.02,
2.454,-0.08,0.13,0.97,-0.67,0.29,-0.07,
2.458,-0.08,0.13,0.97,-0.67,0.29,-0.07,
2.458,-0.08,0.13,0.97,-0.67,0.29,-0.07,
2.459,-0.08,0.13,0.97,-0.73,0.27,-0.14,
2.461,-0.08,0.12,0.97,-0.73,0.27,-0.14,
2.463,-0.08,0.12,0.96,-0.73,0.27,-0.14,
2.464,-0.08,0.12,0.96,-0.74,0.23,-0.18,
2.473,-0.08,0.12,0.98,-0.74,0.23,-0.18,
2.474,-0.08,0.12,0.98,-0.74,0.23,-0.18,
2.474,-0.08,0.12,0.98,-0.74,0.15,-0.23,
2.477,-0.07,0.12,0.98,-0.74,0.15,-0.23,
2.479,-0.07,0.12,0.99,-0.74,0.15,-0.23,
2.48,-0.07,0.12,0.99,-0.71,0.15,-0.14,
2.48,-0.07,0.12,0.99,-0.71,0.15,-0.14,
2.48,-0.06,0.11,0.98,-0.71,0.15,-0.14,
2.481,-0.06,0.11,0.98,-0.64,0.11,-0.10,
2.494,-0.05,0.11,0.98,-0.64,0.11,-0.10,
2.495,-0.05,0.11,0.98,-0.54,0.08,-0.08,
2.495,-0.05,0.11,0.99,-0.54,0.08,-0.08,
2.495,-0.05,0.11,0.99,-0.54,0.08,-0.08,
2.496,-0.04,0.10,1.00,-0.54,0.08,-0.08,
2.496,-0.04,0.10,1.00,-0.43,0.02,-0.06,
2.496,-0.04,0.10,1.00,-0.43,0.02,-0.06,
2.496,-0.04,0.10,1.01,-0.43,0.02,-0.06,
2.497,-0.04,0.10,1.01,-0.34,-0.00,0.03,
2.499,-0.03,0.10,1.02,-0.34,-0.00,0.03,
2.499,-0.03,0.10,1.03,-0.34,-0.00,0.03,
2.499,-0.03,0.10,1.03,-0.29,-0.06,0.13,
2.501,-0.03,0.09,1.04,-0.29,-0.06,0.13,
2.503,-0.03,0.09,1.04,-0.29,-0.06,0.13,
2.503,-0.03,0.09,1.04,-0.23,-0.07,0.29,
2.506,-0.02,0.09,1.04,-0.23,-0.07,0.29,
2.509,-0.01,0.09,1.04,-0.23,-0.07,0.29,
2.509,-0.01,0.09,1.04,-0.21,-0.11,0.42,
2.511,-0.02,0.09,1.05,-0.21,-0.11,0.42,
2.514,-0.02,0.09,1.05,-0.21,-0.11,0.42,
2.514,-0.02,0.09,1.05,-0.07,-0.12,0.46,
2.516,-0.02,0.09,1.05,-0.07,-0.12,0.46,
2.519,-0.01,0.09,1.05,-0.07,-0.12,0.46,
2.519,-0.01,0.09,1.05,-0.04,-0.11,0.55,
2.521,-0.02,0.09,1.06,-0.04,-0.11,0.55,
2.524,-0.02,0.09,1.05,-0.04,-0.11,0.55,
2.524,-0.02,0.09,1.05,-0.02,-0.11,0.55,
2.527,-0.02,0.10,1.05,-0.02,-0.11,0.55,
2.528,-0.02,0.10,1.04,-0.02,-0.11,0.55,
2.528,-0.02,0.10,1.04,-0.07,-0.10,0.57,
2.531,-0.02,0.10,1.04,-0.07,-0.10,0.57,
2.533,-0.02,0.10,1.04,-0.08,-0.03,0.49,
2.533,-0.03,0.11,1.03,-0.08,-0.03,0.49,
2.536,-0.03,0.11,1.02,-0.08,-0.03,0.49,
2.538,-0.04,0.11,1.02,-0.08,-0.03,0.49,
2.538,-0.04,0.11,1.02,-0.14,-0.00,0.40,
2.541,-0.05,0.12,1.02,-0.14,-0.00,0.40,
2.543,-0.05,0.12,1.01,-0.14,-0.00,0.40,
2.543,-0.05,0.12,1.01,-0.25,0.05,0.25,
2.546,-0.05,0.12,1.01,-0.25,0.05,0.25,
2.55,-0.06,0.12,1.00,-0.25,0.05,0.25,
2.55,-0.06,0.12,1.00,-0.32,0.13,0.17,
2.551,-0.06,0.12,1.00,-0.32,0.13,0.17,
2.553,-0.07,0.12,1.00,-0.32,0.13,0.17,
2.553,-0.07,0.12,1.00,-0.39,0.14,0.06,
2.556,-0.07,0.13,0.99,-0.39,0.14,0.06,
2.558,-0.07,0.13,0.99,-0.39,0.14,0.06,
2.558,-0.07,0.13,0.99,-0.48,0.16,0.00,
2.561,-0.08,0.13,1.00,-0.48,0.16,0.00,
2.563,-0.08,0.13,1.00,-0.48,0.16,0.00,
2.564,-0.08,0.13,1.00,-0.51,0.23,-0.04,
2.566,-0.08,0.13,0.99,-0.51,0.23,-0.04,
2.567,-0.08,0.13,0.99,-0.51,0.23,-0.04,
2.568,-0.08,0.13,0.99,-0.58,0.21,0.01,
2.571,-0.08,0.12,0.99,-0.58,0.21,0.01,
2.573,-0.08,0.12,0.99,-0.58,0.21,0.01,
2.573,-0.08,0.12,0.99,-0.60,0.18,-0.08,
2.575,-0.08,0.12,0.99,-0.60,0.18,-0.08,
2.578,-0.07,0.12,0.99,-0.60,0.18,-0.08,
2.578,-0.07,0.12,0.99,-0.64,0.13,-0.07,
2.58,-0.07,0.12,0.99,-0.64,0.13,-0.07,
2.587,-0.07,0.11,0.99,-0.64,0.13,-0.07,
2.587,-0.07,0.11,0.99,-0.55,0.09,-0.10,
2.589,-0.06,0.11,0.99,-0.55,0.09,-0.10,
2.589,-0.07,0.11,1.00,-0.55,0.09,-0.10,
2.59,-0.07,0.11,1.00,-0.49,0.07,-0.09,
2.59,-0.06,0.11,1.00,-0.49,0.07,-0.09,
2.592,-0.05,0.11,1.00,-0.49,0.07,-0.09,
2.593,-0.05,0.11,1.00,-0.43,0.03,-0.01,
2.595,-0.06,0.11,1.01,-0.43,0.03,-0.01,
2.598,-0.05,0.11,1.01,-0.43,0.03,-0.01,
2.598,-0.05,0.11,1.01,-0.34,0.01,0.03,
2.6,-0.04,0.11,1.01,-0.34,0.01,0.03,
2.602,-0.04,0.10,1.02,-0.34,0.01,0.03,
2.602,-0.04,0.10,1.02,-0.30,-0.03,0.14,
2.605,-0.03,0.10,1.03,-0.30,-0.03,0.14,
2.608,-0.03,0.10,1.03,-0.30,-0.03,0.14,
2.608,-0.03,0.10,1.03,-0.17,-0.05,0.20,
2.61,-0.02,0.10,1.04,-0.17,-0.05,0.20,
2.612,-0.02,0.11,1.04,-0.17,-0.05,0.20,
2.613,-0.02,0.11,1.04,-0.11,-0.09,0.31,
2.616,-0.02,0.11,1.04,-0.11,-0.09,0.31,
2.617,-0.01,0.11,1.05,-0.11,-0.09,0.31,
2.617,-0.01,0.11,1.05,-0.01,-0.04,0.42,
2.619,-0.00,0.11,1.05,-0.01,-0.04,0.42,
2.622,-0.00,0.11,1.05,-0.01,-0.04,0.42,
2.623,-0.00,0.11,1.05,0.08,0.02,0.51,
2.624,0.00,0.11,1.05,0.08,0.02,0.51,
2.627,0.00,0.11,1.05,0.08,0.02,0.51,
2.627,0.00,0.11,1.05,0.20,0.02,0.51,
2.629,0.00,0.11,1.04,0.20,0.02,0.51,
2.633,0.00,0.11,1.04,0.24,0.03,0.48,
2.633,0.01,0.11,1.04,0.24,0.03,0.48,
2.634,0.00,0.11,1.03,0.24,0.03,0.48,
2.637,0.00,0.11,1.02,0.24,0.03,0.48,
2.637,0.00,0.11,1.02,0.25,0.04,0.39,
2.639,-0.00,0.12,1.02,0.25,0.04,0.39,
2.642,-0.00,0.12,1.01,0.25,0.04,0.39,
2.642,-0.00,0.12,1.01,0.25,0.02,0.26,
2.645,-0.00,0.12,1.01,0.25,0.02,0.26,
2.647,-0.01,0.12,0.99,0.25,0.02,0.26,
2.647,-0.01,0.12,0.99,0.21,0.08,0.12,
2.65,-0.01,0.12,0.99,0.21,0.08,0.12,
2.651,-0.01,0.13,0.99,0.21,0.08,0.12,
2.652,-0.01,0.13,0.99,0.12,0.10,-0.00,
2.654,-0.02,0.13,0.98,0.12,0.10,-0.00,
2.656,-0.02,0.13,0.97,0.12,0.10,-0.00,
2.657,-0.02,0.13,0.97,0.08,0.12,-0.11,
2.659,-0.02,0.13,0.98,0.08,0.12,-0.11,
2.661,-0.03,0.13,0.97,0.08,0.12,-0.11,
2.662,-0.03,0.13,0.97,-0.01,0.15,-0.24,
2.664,-0.03,0.13,0.97,-0.01,0.15,-0.24,
2.666,-0.03,0.13,0.98,-0.01,0.15,-0.24,
2.666,-0.03,0.13,0.98,-0.03,0.14,-0.22,
2.669,-0.03,0.12,0.98,-0.03,0.14,-0.22,
2.672,-0.03,0.12,0.98,-0.03,0.14,-0.22,
2.672,-0.03,0.12,0.98,-0.11,0.13,-0.22,
2.674,-0.03,0.12,0.98,-0.11,0.13,-0.22,
2.676,-0.03,0.12,0.98,-0.11,0.13,-0.22,
2.676,-0.03,0.12,0.98,-0.08,0.05,-0.19,
2.679,-0.02,0.11,0.98,-0.08,0.05,-0.19,
2.687,-0.02,0.11,0.97,-0.08,0.05,-0.19,
2.687,-0.02,0.11,0.97,-0.06,0.01,-0.13,
2.687,-0.02,0.11,0.97,-0.06,0.01,-0.13,
2.688,-0.02,0.10,0.97,-0.06,0.01,-0.13,
2.688,-0.02,0.10,0.97,0.01,-0.03,-0.21,
2.688,-0.02,0.10,0.97,0.01,-0.03,-0.21,
2.691,-0.02,0.10,0.97,0.01,-0.03,-0.21,
2.691,-0.02,0.10,0.97,0.05,-0.11,-0.24,
2.694,-0.02,0.10,0.97,0.05,-0.11,-0.24,
2.696,-0.03,0.10,0.97,0.05,-0.11,-0.24,
2.696,-0.03,0.10,0.97,0.04,-0.12,-0.28,
2.7,-0.03,0.11,0.97,0.04,-0.12,-0.28,
2.701,-0.04,0.10,0.98,0.04,-0.12,-0.28,
2.702,-0.04,0.10,0.98,-0.02,-0.14,-0.28,
2.703,-0.04,0.10,0.98,-0.02,-0.14,-0.28,
2.706,-0.04,0.11,0.98,-0.02,-0.14,-0.28,
2.706,-0.04,0.11,0.98,-0.10,-0.12,-0.23,
2.708,-0.04,0.11,0.97,-0.10,-0.12,-0.23,
2.711,-0.04,0.11,0.97,-0.17,-0.11,-0.15,
2.711,-0.04,0.12,0.97,-0.17,-0.11,-0.15,
2.713,-0.05,0.12,0.98,-0.17,-0.11,-0.15,
2.717,-0.05,0.12,0.99,-0.17,-0.11,-0.15,
2.718,-0.05,0.12,0.99,-0.18,-0.04,-0.24,
2.718,-0.05,0.12,0.98,-0.18,-0.04,-0.24,
2.721,-0.05,0.13,0.99,-0.18,-0.04,-0.24,
2.721,-0.05,0.13,0.99,-0.23,-0.00,-0.13,
2.723,-0.04,0.13,0.96,-0.23,-0.00,-0.13,
2.726,-0.05,0.14,0.90,-0.23,-0.00,-0.13,
2.726,-0.05,0.14,0.90,-0.22,0.07,-0.08,
2.728,-0.07,0.15,0.85,-0.22,0.07,-0.08,
2.731,-0.06,0.16,0.87,-0.22,0.07,-0.08,
2.731,-0.06,0.16,0.87,-0.22,0.17,-0.64,
2.733,-0.05,0.16,0.92,-0.22,0.17,-0.64,
2.737,-0.03,0.16,0.97,-0.22,0.17,-0.64,
2.738,-0.03,0.16,0.97,-0.39,0.39,-1.31,
2.738,-0.02,0.16,1.00,-0.39,0.39,-1.31,
2.741,-0.03,0.15,1.02,-0.39,0.39,-1.31,
2.742,-0.03,0.15,1.02,-0.12,0.47,-0.45,
2.743,-0.02,0.14,1.04,-0.12,0.47,-0.45,
2.747,-0.02,0.13,1.04,-0.12,0.47,-0.45,
2.748,-0.02,0.13,1.04,-0.02,0.40,0.17,
2.748,-0.02,0.11,1.05,-0.02,0.40,0.17,
2.751,-0.02,0.11,1.05,0.00,0.21,0.45,
2.751,-0.01,0.10,1.06,0.00,0.21,0.45,
2.754,0.00,0.09,1.07,0.00,0.21,0.45,
2.755,0.00,0.09,1.06,0.00,0.21,0.45,
2.756,0.00,0.09,1.06,0.12,-0.07,0.60,
2.758,-0.00,0.09,1.06,0.12,-0.07,0.60,
2.76,-0.00,0.09,1.06,0.12,-0.07,0.60,
2.76,-0.00,0.09,1.06,0.24,-0.23,0.64,
2.763,-0.00,0.10,1.07,0.24,-0.23,0.64,
2.773,-0.01,0.10,1.08,0.24,-0.23,0.64,
2.774,-0.01,0.10,1.08,0.20,-0.25,0.65,
2.774,-0.01,0.11,1.08,0.20,-0.25,0.65,
2.774,-0.01,0.11,1.08,0.20,-0.25,0.65,
2.775,-0.01,0.11,1.08,0.15,-0.16,0.78,
2.775,-0.01,0.11,1.08,0.15,-0.16,0.78,
2.776,-0.02,0.11,1.07,0.15,-0.16,0.78,
2.776,-0.02,0.11,1.07,0.08,-0.09,0.82,
2.778,-0.01,0.10,1.06,0.08,-0.09,0.82,
2.78,-0.02,0.09,1.05,0.08,-0.09,0.82,
2.78,-0.02,0.09,1.05,0.06,-0.10,0.79,
2.789,-0.02,0.09,1.04,0.06,-0.10,0.79,
2.789,-0.02,0.09,1.03,0.06,-0.10,0.79,
2.79,-0.02,0.09,1.03,0.06,-0.19,0.58,
2.79,-0.02,0.09,1.01,0.06,-0.19,0.58,
2.79,-0.02,0.10,1.00,0.06,-0.19,0.58,
2.791,-0.02,0.10,1.00,0.01,-0.27,0.32,
2.793,-0.03,0.10,1.00,0.01,-0.27,0.32,
2.796,-0.03,0.10,0.98,0.01,-0.27,0.32,
2.796,-0.03,0.10,0.98,0.01,-0.25,0.06,
2.797,-0.03,0.11,0.98,0.01,-0.25,0.06,
2.805,-0.03,0.12,0.97,0.01,-0.25,0.06,
2.808,-0.03,0.12,0.97,-0.08,-0.17,-0.08,
2.808,-0.03,0.12,0.97,-0.08,-0.17,-0.08,
2.808,-0.03,0.12,0.97,-0.08,-0.17,-0.08,
2.809,-0.03,0.12,0.97,-0.10,-0.07,-0.21,
2.809,-0.03,0.12,0.96,-0.10,-0.07,-0.21,
