
time,gFx,gFy,gFz,ax,ay,az,
0.002,-0.07,0.08,0.92,-0.25,0.05,-0.64,
0.002,-0.07,0.08,0.91,-0.25,0.05,-0.64,
0.002,-0.07,0.08,0.91,-0.40,0.09,-0.81,
0.002,-0.08,0.07,0.91,-0.40,0.09,-0.81,
0.005,-0.08,0.07,0.92,-0.40,0.09,-0.81,
0.005,-0.08,0.07,0.92,-0.53,0.01,-0.84,
0.007,-0.09,0.07,0.93,-0.53,0.01,-0.84,
0.01,-0.09,0.06,0.94,-0.53,0.01,-0.84,
0.01,-0.09,0.06,0.94,-0.60,-0.05,-0.81,
0.013,-0.10,0.06,0.96,-0.60,-0.05,-0.81,
0.015,-0.10,0.06,0.97,-0.60,-0.05,-0.81,
0.015,-0.10,0.06,0.97,-0.65,-0.08,-0.62,
0.017,-0.10,0.06,0.98,-0.65,-0.08,-0.62,
0.02,-0.09,0.06,1.00,-0.65,-0.08,-0.62,
0.02,-0.09,0.06,1.00,-0.74,-0.10,-0.32,
0.022,-0.09,0.07,1.01,-0.74,-0.10,-0.32,
0.025,-0.09,0.07,1.02,-0.74,-0.10,-0.32,
0.025,-0.09,0.07,1.02,-0.72,-0.10,-0.08,
0.027,-0.08,0.07,1.04,-0.72,-0.10,-0.08,
0.03,-0.07,0.07,1.04,-0.72,-0.10,-0.08,
0.03,-0.07,0.07,1.04,-0.65,-0.01,0.14,
0.032,-0.06,0.07,1.04,-0.65,-0.01,0.14,
0.035,-0.04,0.08,1.04,-0.65,-0.01,0.14,
0.035,-0.04,0.08,1.04,-0.51,-0.00,0.38,
0.037,-0.04,0.08,1.04,-0.51,-0.00,0.38,
0.039,-0.02,0.08,1.03,-0.51,-0.00,0.38,
0.04,-0.02,0.08,1.03,-0.30,0.06,0.38,
0.042,-0.02,0.08,1.02,-0.30,0.06,0.38,
0.045,-0.01,0.08,1.01,-0.30,0.06,0.38,
0.045,-0.01,0.08,1.01,-0.12,0.11,0.32,
0.047,-0.01,0.08,1.00,-0.12,0.11,0.32,
0.049,0.00,0.08,0.99,-0.12,0.11,0.32,
0.05,0.00,0.08,0.99,0.02,0.12,0.12,
0.052,0.01,0.08,0.97,0.02,0.12,0.12,
0.054,0.01,0.07,0.96,0.02,0.12,0.12,
0.054,0.01,0.07,0.96,0.09,0.13,-0.05,
0.057,0.01,0.08,0.95,0.09,0.13,-0.05,
0.059,0.02,0.07,0.94,0.09,0.13,-0.05,
0.059,0.02,0.07,0.94,0.19,0.10,-0.33,
0.063,0.03,0.07,0.93,0.19,0.10,-0.33,
0.064,0.03,0.07,0.93,0.19,0.10,-0.33,
0.065,0.03,0.07,0.93,0.23,0.09,-0.53,
0.067,0.04,0.07,0.93,0.23,0.09,-0.53,
0.069,0.05,0.07,0.93,0.23,0.09,-0.53,
0.069,0.05,0.07,0.93,0.35,0.08,-0.68,
0.072,0.05,0.07,0.94,0.35,0.08,-0.68,
0.074,0.05,0.06,0.95,0.35,0.08,-0.68,
0.074,0.05,0.06,0.95,0.43,0.07,-0.68,
0.077,0.05,0.06,0.95,0.43,0.07,-0.68,
0.079,0.05,0.06,0.95,0.43,0.07,-0.68,
0.079,0.05,0.06,0.95,0.47,0.02,-0.53,
0.082,0.04,0.05,0.96,0.47,0.02,-0.53,
0.084,0.04,0.05,0.97,0.47,0.02,-0.53,
0.084,0.04,0.05,0.97,0.47,-0.03,-0.48,
0.087,0.03,0.05,0.97,0.47,-0.03,-0.48,
0.089,0.01,0.05,0.99,0.47,-0.03,-0.48,
0.089,0.01,0.05,0.99,0.35,-0.09,-0.34,
0.092,0.01,0.05,0.99,0.35,-0.09,-0.34,
0.094,-0.01,0.05,1.00,0.35,-0.09,-0.34,
0.094,-0.01,0.05,1.00,0.16,-0.11,-0.18,
0.097,-0.02,0.04,1.01,0.16,-0.11,-0.18,
0.099,-0.03,0.03,1.02,0.16,-0.11,-0.18,
0.099,-0.03,0.03,1.02,-0.06,-0.09,-0.07,
0.101,-0.04,0.03,1.02,-0.06,-0.09,-0.07,
0.104,-0.05,0.03,1.03,-0.06,-0.09,-0.07,
0.104,-0.05,0.03,1.03,-0.31,-0.22,0.14,
0.106,-0.05,0.02,1.04,-0.31,-0.22,0.14,
0.109,-0.05,0.02,1.04,-0.31,-0.22,0.14,
0.109,-0.05,0.02,1.04,-0.50,-0.26,0.29,
0.111,-0.05,0.03,1.05,-0.50,-0.26,0.29,
0.114,-0.06,0.04,1.06,-0.50,-0.26,0.29,
0.114,-0.06,0.04,1.06,-0.58,-0.31,0.41,
0.116,-0.09,0.05,1.05,-0.58,-0.31,0.41,
0.119,-0.12,0.06,1.04,-0.58,-0.31,0.41,
0.119,-0.12,0.06,1.04,-0.60,-0.20,0.52,
0.121,-0.12,0.07,1.05,-0.60,-0.20,0.52,
0.124,-0.12,0.07,1.06,-0.60,-0.20,0.52,
0.124,-0.12,0.07,1.06,-1.08,-0.00,0.44,
0.126,-0.13,0.07,1.06,-1.08,-0.00,0.44,
0.129,-0.13,0.08,1.08,-1.08,-0.00,0.44,
0.129,-0.13,0.08,1.08,-1.18,0.13,0.50,
0.131,-0.14,0.08,1.09,-1.18,0.13,0.50,
0.134,-0.15,0.08,1.09,-1.18,0.13,0.50,
0.134,-0.15,0.08,1.09,-1.28,0.22,0.68,
0.136,-0.15,0.08,1.09,-1.28,0.22,0.68,
0.138,-0.15,0.08,1.10,-1.28,0.22,0.68,
0.139,-0.15,0.08,1.10,-1.39,0.27,0.88,
0.141,-0.15,0.08,1.10,-1.39,0.27,0.88,
0.144,-0.15,0.07,1.09,-1.39,0.27,0.88,
0.144,-0.15,0.07,1.09,-1.43,0.25,0.90,
0.146,-0.14,0.07,1.09,-1.43,0.25,0.90,
0.149,-0.14,0.06,1.08,-1.43,0.25,0.90,
0.149,-0.14,0.06,1.08,-1.44,0.19,0.90,
0.151,-0.13,0.06,1.07,-1.44,0.19,0.90,
0.153,-0.13,0.05,1.07,-1.44,0.19,0.90,
0.153,-0.13,0.05,1.07,-1.36,0.09,0.79,
0.156,-0.13,0.05,1.05,-1.36,0.09,0.79,
0.158,-0.12,0.04,1.04,-1.36,0.09,0.79,
0.158,-0.12,0.04,1.04,-1.28,-0.02,0.65,
0.161,-0.12,0.04,1.04,-1.28,-0.02,0.65,
0.163,-0.12,0.04,1.02,-1.28,-0.02,0.65,
0.164,-0.12,0.04,1.02,-1.19,-0.11,0.44,
0.166,-0.11,0.04,1.02,-1.19,-0.11,0.44,
0.168,-0.10,0.03,1.01,-1.19,-0.11,0.44,
0.168,-0.10,0.03,1.01,-1.13,-0.18,0.25,
0.171,-0.11,0.03,1.00,-1.13,-0.18,0.25,
0.173,-0.10,0.02,1.00,-1.13,-0.18,0.25,
0.173,-0.10,0.02,1.00,-1.00,-0.24,0.11,
0.176,-0.10,0.02,0.99,-1.00,-0.24,0.11,
0.178,-0.10,0.01,0.99,-1.00,-0.24,0.11,
0.178,-0.10,0.01,0.99,-0.98,-0.32,-0.03,
0.181,-0.10,0.01,0.98,-0.98,-0.32,-0.03,
0.183,-0.11,0.00,0.97,-0.98,-0.32,-0.03,
0.184,-0.11,0.00,0.97,-0.95,-0.46,-0.16,
0.186,-0.11,-0.00,0.97,-0.95,-0.46,-0.16,
0.188,-0.12,-0.01,0.98,-0.95,-0.46,-0.16,
0.188,-0.12,-0.01,0.98,-0.95,-0.56,-0.28,
0.191,-0.12,-0.01,0.97,-0.95,-0.56,-0.28,
0.193,-0.12,-0.02,0.98,-0.95,-0.56,-0.28,
0.193,-0.12,-0.02,0.98,-1.00,-0.66,-0.30,
0.196,-0.13,-0.02,0.98,-1.00,-0.66,-0.30,
0.198,-0.14,-0.02,0.99,-1.00,-0.66,-0.30,
0.198,-0.14,-0.02,0.99,-1.11,-0.76,-0.29,
0.201,-0.14,-0.02,0.99,-1.11,-0.76,-0.29,
0.203,-0.15,-0.01,1.00,-1.11,-0.76,-0.29,
0.203,-0.15,-0.01,1.00,-1.20,-0.78,-0.18,
0.205,-0.16,-0.02,1.01,-1.20,-0.78,-0.18,
0.208,-0.16,-0.01,1.01,-1.20,-0.78,-0.18,
0.208,-0.16,-0.01,1.01,-1.30,-0.77,-0.10,
0.21,-0.16,-0.01,1.02,-1.30,-0.77,-0.10,
0.213,-0.16,-0.01,1.02,-1.30,-0.77,-0.10,
0.214,-0.16,-0.01,1.02,-1.43,-0.76,0.07,
0.215,-0.16,-0.01,1.02,-1.43,-0.76,0.07,
0.218,-0.17,-0.01,1.03,-1.43,-0.76,0.07,
0.218,-0.17,-0.01,1.03,-1.46,-0.72,0.16,
0.22,-0.17,-0.01,1.03,-1.46,-0.72,0.16,
0.223,-0.16,-0.01,1.03,-1.46,-0.72,0.16,
0.223,-0.16,-0.01,1.03,-1.49,-0.70,0.23,
0.225,-0.16,-0.00,1.03,-1.49,-0.70,0.23,
0.228,-0.16,-0.00,1.03,-1.49,-0.70,0.23,
0.228,-0.16,-0.00,1.03,-1.49,-0.65,0.28,
0.23,-0.15,0.00,1.03,-1.49,-0.65,0.28,
0.233,-0.15,0.01,1.03,-1.49,-0.65,0.28,
0.233,-0.15,0.01,1.03,-1.43,-0.63,0.27,
0.235,-0.15,0.01,1.03,-1.43,-0.63,0.27,
0.237,-0.15,0.02,1.03,-1.43,-0.63,0.27,
0.238,-0.15,0.02,1.03,-1.34,-0.55,0.24,
0.24,-0.14,0.02,1.02,-1.34,-0.55,0.24,
0.243,-0.13,0.03,1.02,-1.34,-0.55,0.24,
0.243,-0.13,0.03,1.02,-1.30,-0.45,0.27,
0.245,-0.13,0.03,1.01,-1.30,-0.45,0.27,
0.248,-0.12,0.03,1.01,-1.30,-0.45,0.27,
0.248,-0.12,0.03,1.01,-1.18,-0.35,0.15,
0.25,-0.12,0.04,1.01,-1.18,-0.35,0.15,
0.252,-0.12,0.04,1.00,-1.18,-0.35,0.15,
0.252,-0.12,0.04,1.00,-1.12,-0.28,0.05,
0.255,-0.11,0.04,0.99,-1.12,-0.28,0.05,
0.257,-0.10,0.05,0.98,-1.12,-0.28,0.05,
0.257,-0.10,0.05,0.98,-1.04,-0.22,0.01,
0.26,-0.10,0.05,0.97,-1.04,-0.22,0.01,
0.262,-0.09,0.05,0.96,-1.04,-0.22,0.01,
0.262,-0.09,0.05,0.96,-0.94,-0.14,-0.22,
0.265,-0.09,0.05,0.95,-0.94,-0.14,-0.22,
0.267,-0.09,0.06,0.95,-0.94,-0.14,-0.22,
0.267,-0.09,0.06,0.95,-0.83,-0.10,-0.36,
0.27,-0.08,0.06,0.94,-0.83,-0.10,-0.36,
0.272,-0.08,0.06,0.94,-0.83,-0.10,-0.36,
0.272,-0.08,0.06,0.94,-0.79,-0.05,-0.51,
0.275,-0.07,0.06,0.93,-0.79,-0.05,-0.51,
0.277,-0.07,0.06,0.92,-0.79,-0.05,-0.51,
0.277,-0.07,0.06,0.92,-0.69,-0.03,-0.62,
0.28,-0.07,0.06,0.92,-0.69,-0.03,-0.62,
0.282,-0.07,0.07,0.91,-0.69,-0.03,-0.62,
0.282,-0.07,0.07,0.91,-0.62,-0.02,-0.73,
0.285,-0.06,0.07,0.90,-0.62,-0.02,-0.73,
0.287,-0.06,0.08,0.91,-0.62,-0.02,-0.73,
0.287,-0.06,0.08,0.91,-0.57,0.02,-0.86,
0.291,-0.06,0.08,0.91,-0.57,0.02,-0.86,
0.293,-0.06,0.08,0.91,-0.50,0.10,-0.95,
0.294,-0.05,0.08,0.90,-0.50,0.10,-0.95,
0.295,-0.05,0.09,0.89,-0.50,0.10,-0.95,
0.297,-0.05,0.09,0.89,-0.50,0.10,-0.95,
0.298,-0.05,0.09,0.89,-0.45,0.17,-0.96,
0.3,-0.05,0.09,0.89,-0.45,0.17,-0.96,
0.302,-0.05,0.09,0.89,-0.45,0.17,-0.96,
0.303,-0.05,0.09,0.89,-0.41,0.18,-1.04,
0.305,-0.05,0.09,0.89,-0.41,0.18,-1.04,
0.307,-0.06,0.10,0.89,-0.41,0.18,-1.04,
0.307,-0.06,0.10,0.89,-0.41,0.22,-1.06,
0.31,-0.05,0.09,0.90,-0.41,0.22,-1.06,
0.312,-0.05,0.09,0.91,-0.41,0.22,-1.06,
0.313,-0.05,0.09,0.91,-0.42,0.23,-1.01,
0.319,-0.06,0.09,0.92,-0.42,0.23,-1.01,
0.319,-0.06,0.10,0.92,-0.42,0.23,-1.01,
0.32,-0.06,0.10,0.92,-0.39,0.23,-0.92,
0.32,-0.05,0.09,0.94,-0.39,0.23,-0.92,
0.322,-0.05,0.09,0.94,-0.39,0.23,-0.92,
0.323,-0.05,0.09,0.94,-0.43,0.23,-0.75,
0.324,-0.05,0.09,0.95,-0.43,0.23,-0.75,
0.328,-0.06,0.09,0.96,-0.43,0.23,-0.75,
0.332,-0.06,0.09,0.96,-0.39,0.21,-0.54,
0.332,-0.06,0.09,0.97,-0.39,0.21,-0.54,
0.333,-0.06,0.09,0.98,-0.39,0.21,-0.54,
0.333,-0.06,0.09,0.98,-0.40,0.17,-0.41,
0.335,-0.06,0.09,0.98,-0.40,0.17,-0.41,
0.337,-0.06,0.08,0.99,-0.40,0.17,-0.41,
0.337,-0.06,0.08,0.99,-0.45,0.16,-0.21,
0.34,-0.06,0.09,0.99,-0.45,0.16,-0.21,
0.342,-0.05,0.08,0.99,-0.45,0.16,-0.21,
0.342,-0.05,0.08,0.99,-0.40,0.11,-0.12,
0.344,-0.05,0.08,1.00,-0.40,0.11,-0.12,
0.348,-0.05,0.08,0.99,-0.40,0.11,-0.12,
0.348,-0.05,0.08,0.99,-0.37,0.10,-0.04,
0.349,-0.04,0.08,0.99,-0.37,0.10,-0.04,
0.352,-0.04,0.09,1.00,-0.37,0.10,-0.04,
0.352,-0.04,0.09,1.00,-0.26,0.06,0.01,
0.355,-0.04,0.08,1.00,-0.26,0.06,0.01,
0.357,-0.03,0.09,0.99,-0.26,0.06,0.01,
0.357,-0.03,0.09,0.99,-0.20,0.07,0.00,
0.36,-0.02,0.09,0.99,-0.20,0.07,0.00,
0.362,-0.03,0.09,0.98,-0.20,0.07,0.00,
0.362,-0.03,0.09,0.98,-0.12,0.07,0.00,
0.365,-0.02,0.09,0.98,-0.12,0.07,0.00,
0.367,-0.02,0.09,0.98,-0.12,0.07,0.00,
0.367,-0.02,0.09,0.98,-0.05,0.12,-0.09,
0.37,-0.01,0.09,0.97,-0.05,0.12,-0.09,
0.372,-0.01,0.09,0.97,-0.05,0.12,-0.09,
0.372,-0.01,0.09,0.97,0.03,0.09,-0.14,
0.375,-0.00,0.10,0.97,0.03,0.09,-0.14,
0.377,-0.00,0.10,0.96,0.03,0.09,-0.14,
0.377,-0.00,0.10,0.96,0.12,0.11,-0.23,
0.379,-0.01,0.11,0.96,0.12,0.11,-0.23,
0.382,-0.00,0.11,0.96,0.12,0.11,-0.23,
0.383,-0.00,0.11,0.96,0.18,0.17,-0.26,
0.384,0.00,0.11,0.96,0.18,0.17,-0.26,
0.387,-0.00,0.11,0.95,0.18,0.17,-0.26,
0.387,-0.00,0.11,0.95,0.19,0.22,-0.33,
0.39,-0.01,0.12,0.95,0.19,0.22,-0.33,
0.392,-0.01,0.12,0.95,0.19,0.22,-0.33,
0.392,-0.01,0.12,0.95,0.20,0.27,-0.39,
0.394,-0.01,0.13,0.95,0.20,0.27,-0.39,
0.397,-0.01,0.12,0.96,0.20,0.27,-0.39,
0.397,-0.01,0.12,0.96,0.16,0.31,-0.42,
0.399,-0.02,0.13,0.96,0.16,0.31,-0.42,
0.401,-0.02,0.13,0.97,0.16,0.31,-0.42,
0.402,-0.02,0.13,0.97,0.12,0.35,-0.36,
0.404,-0.02,0.13,0.98,0.12,0.35,-0.36,
0.407,-0.03,0.13,0.98,0.12,0.35,-0.36,
0.407,-0.03,0.13,0.98,0.09,0.37,-0.22,
0.409,-0.03,0.13,0.98,0.09,0.37,-0.22,
0.412,-0.03,0.13,0.99,0.09,0.37,-0.22,
0.412,-0.03,0.13,0.99,0.01,0.34,-0.11,
0.414,-0.04,0.13,0.99,0.01,0.34,-0.11,
0.42,-0.04,0.13,0.99,-0.03,0.34,-0.04,
0.42,-0.04,0.13,1.00,-0.03,0.34,-0.04,
0.42,-0.04,0.13,1.00,-0.03,0.34,-0.04,
0.421,-0.04,0.13,1.01,-0.03,0.34,-0.04,
0.421,-0.04,0.13,1.01,-0.11,0.35,0.08,
0.424,-0.04,0.12,1.01,-0.11,0.35,0.08,
0.426,-0.04,0.12,1.02,-0.11,0.35,0.08,
0.426,-0.04,0.12,1.02,-0.09,0.32,0.14,
0.429,-0.04,0.12,1.02,-0.09,0.32,0.14,
0.433,-0.04,0.12,1.03,-0.09,0.32,0.14,
0.433,-0.04,0.12,1.03,-0.10,0.28,0.24,
0.434,-0.03,0.12,1.03,-0.10,0.28,0.24,
0.436,-0.03,0.11,1.03,-0.10,0.28,0.24,
0.436,-0.03,0.11,1.03,-0.09,0.24,0.32,
0.439,-0.03,0.11,1.03,-0.09,0.24,0.32,
0.441,-0.03,0.11,1.04,-0.09,0.24,0.32,
0.442,-0.03,0.11,1.04,-0.02,0.21,0.40,
0.444,-0.02,0.11,1.04,-0.02,0.21,0.40,
0.446,-0.02,0.11,1.04,-0.02,0.21,0.40,
0.447,-0.02,0.11,1.04,0.01,0.15,0.43,
0.449,-0.02,0.11,1.04,0.01,0.15,0.43,
0.451,-0.01,0.11,1.04,0.01,0.15,0.43,
0.451,-0.01,0.11,1.04,0.09,0.16,0.48,
0.453,-0.01,0.11,1.04,0.09,0.16,0.48,
0.456,-0.00,0.11,1.03,0.09,0.16,0.48,
0.457,-0.00,0.11,1.03,0.16,0.11,0.48,
0.458,0.00,0.11,1.04,0.16,0.11,0.48,
0.46,0.00,0.11,1.03,0.16,0.11,0.48,
0.461,0.00,0.11,1.03,0.24,0.10,0.44,
0.463,0.00,0.10,1.03,0.24,0.10,0.44,
0.466,0.01,0.10,1.03,0.24,0.10,0.44,
0.466,0.01,0.10,1.03,0.32,0.07,0.43,
0.468,0.01,0.10,1.02,0.32,0.07,0.43,
0.47,0.01,0.09,1.02,0.32,0.07,0.43,
0.471,0.01,0.09,1.02,0.36,0.02,0.36,
0.473,0.01,0.09,1.02,0.36,0.02,0.36,
0.475,0.01,0.09,1.01,0.36,0.02,0.36,
0.476,0.01,0.09,1.01,0.42,-0.07,0.26,
0.478,0.01,0.08,1.01,0.42,-0.07,0.26,
0.48,0.01,0.08,1.00,0.42,-0.07,0.26,
0.48,0.01,0.08,1.00,0.39,-0.15,0.23,
0.483,0.00,0.08,0.99,0.39,-0.15,0.23,
0.485,0.00,0.07,0.99,0.39,-0.15,0.23,
0.486,0.00,0.07,0.99,0.38,-0.20,0.09,
0.488,-0.00,0.08,0.98,0.38,-0.20,0.09,
0.49,-0.00,0.08,0.98,0.36,-0.27,-0.01,
0.491,-0.00,0.07,0.97,0.36,-0.27,-0.01,
0.493,-0.01,0.07,0.96,0.36,-0.27,-0.01,
0.495,-0.01,0.07,0.96,0.36,-0.27,-0.01,
0.496,-0.01,0.07,0.96,0.33,-0.30,-0.16,
0.499,-0.01,0.07,0.96,0.33,-0.30,-0.16,
0.5,-0.01,0.07,0.95,0.33,-0.30,-0.16,
0.5,-0.01,0.07,0.95,0.28,-0.38,-0.30,
0.503,-0.02,0.07,0.95,0.28,-0.38,-0.30,
0.505,-0.02,0.07,0.95,0.28,-0.38,-0.30,
0.505,-0.02,0.07,0.95,0.24,-0.39,-0.35,
0.508,-0.01,0.07,0.95,0.24,-0.39,-0.35,
0.51,-0.01,0.07,0.96,0.24,-0.39,-0.35,
0.51,-0.01,0.07,0.96,0.22,-0.40,-0.37,
0.512,-0.01,0.07,0.96,0.22,-0.40,-0.37,
0.516,-0.01,0.07,0.96,0.27,-0.38,-0.32,
0.517,-0.01,0.07,0.97,0.27,-0.38,-0.32,
0.517,-0.00,0.07,0.97,0.27,-0.38,-0.32,
0.52,0.00,0.07,0.97,0.27,-0.38,-0.32,
0.521,0.00,0.07,0.97,0.31,-0.38,-0.23,
0.522,-0.01,0.06,0.97,0.31,-0.38,-0.23,
0.525,0.00,0.06,0.98,0.31,-0.38,-0.23,
0.525,0.00,0.06,0.98,0.41,-0.43,-0.18,
0.527,0.01,0.06,0.98,0.41,-0.43,-0.18,
0.53,0.01,0.06,0.98,0.41,-0.43,-0.18,
0.53,0.01,0.06,0.98,0.40,-0.46,-0.15,
0.536,0.02,0.06,0.98,0.40,-0.46,-0.15,
0.537,0.02,0.05,0.98,0.40,-0.46,-0.15,
0.537,0.02,0.05,0.98,0.52,-0.53,-0.07,
0.538,0.02,0.05,0.98,0.52,-0.53,-0.07,
0.54,0.03,0.05,0.98,0.52,-0.53,-0.07,
0.54,0.03,0.05,0.98,0.59,-0.55,-0.09,
0.542,0.03,0.05,0.98,0.59,-0.55,-0.09,
0.546,0.04,0.04,0.97,0.59,-0.55,-0.09,
0.546,0.04,0.04,0.97,0.70,-0.59,-0.10,
0.548,0.04,0.05,0.98,0.70,-0.59,-0.10,
0.55,0.04,0.05,0.97,0.70,-0.59,-0.10,
0.551,0.04,0.05,0.97,0.78,-0.63,-0.12,
0.552,0.05,0.05,0.97,0.78,-0.63,-0.12,
0.554,0.05,0.05,0.97,0.78,-0.63,-0.12,
0.555,0.05,0.05,0.97,0.86,-0.58,-0.13,
0.557,0.06,0.06,0.97,0.86,-0.58,-0.13,
0.559,0.06,0.06,0.96,0.86,-0.58,-0.13,
0.56,0.06,0.06,0.96,0.92,-0.56,-0.21,
0.562,0.06,0.06,0.95,0.92,-0.56,-0.21,
0.566,0.06,0.06,0.95,0.98,-0.53,-0.25,
0.566,0.06,0.06,0.95,0.98,-0.53,-0.25,
0.568,0.05,0.06,0.95,0.98,-0.53,-0.25,
0.57,0.05,0.06,0.95,0.98,-0.53,-0.25,
0.571,0.05,0.06,0.95,0.97,-0.48,-0.35,
0.572,0.04,0.06,0.96,0.97,-0.48,-0.35,
0.574,0.04,0.06,0.96,0.97,-0.48,-0.35,
0.575,0.04,0.06,0.96,0.94,-0.51,-0.34,
0.577,0.04,0.06,0.95,0.94,-0.51,-0.34,
0.579,0.03,0.06,0.96,0.94,-0.51,-0.34,
0.58,0.03,0.06,0.96,0.86,-0.51,-0.31,
0.584,0.03,0.06,0.96,0.86,-0.51,-0.31,
0.586,0.02,0.06,0.97,0.86,-0.51,-0.31,
0.586,0.02,0.06,0.97,0.79,-0.50,-0.32,
0.587,0.01,0.07,0.98,0.79,-0.50,-0.32,
0.589,0.01,0.07,0.98,0.79,-0.50,-0.32,
0.589,0.01,0.07,0.98,0.71,-0.47,-0.22,
0.592,0.01,0.07,0.99,0.71,-0.47,-0.22,
0.594,0.00,0.07,0.99,0.71,-0.47,-0.22,
0.594,0.00,0.07,0.99,0.62,-0.42,-0.07,
0.597,-0.00,0.07,1.00,0.62,-0.42,-0.07,
0.6,-0.01,0.07,1.00,0.62,-0.42,-0.07,
0.6,-0.01,0.07,1.00,0.55,-0.38,0.02,
0.602,-0.01,0.07,1.01,0.55,-0.38,0.02,
0.604,-0.02,0.07,1.01,0.55,-0.38,0.02,
0.604,-0.02,0.07,1.01,0.45,-0.36,0.10,
0.607,-0.03,0.07,1.02,0.45,-0.36,0.10,
0.609,-0.03,0.07,1.02,0.45,-0.36,0.10,
0.609,-0.03,0.07,1.02,0.34,-0.38,0.20,
0.611,-0.03,0.07,1.01,0.34,-0.38,0.20,
0.614,-0.04,0.07,1.01,0.34,-0.38,0.20,
0.614,-0.04,0.07,1.01,0.25,-0.38,0.28,
0.62,-0.04,0.07,1.01,0.25,-0.38,0.28,
0.62,-0.04,0.07,1.01,0.25,-0.38,0.28,
0.62,-0.04,0.07,1.01,0.17,-0.39,0.24,
0.622,-0.04,0.07,1.01,0.17,-0.39,0.24,
0.624,-0.04,0.07,1.01,0.17,-0.39,0.24,
0.624,-0.04,0.07,1.01,0.12,-0.44,0.24,
0.627,-0.04,0.07,1.00,0.12,-0.44,0.24,
0.63,-0.03,0.07,1.00,0.12,-0.44,0.24,
0.63,-0.03,0.07,1.00,0.14,-0.44,0.23,
0.633,-0.04,0.07,1.00,0.14,-0.44,0.23,
0.634,-0.03,0.07,1.00,0.14,-0.44,0.23,
0.634,-0.03,0.07,1.00,0.18,-0.45,0.15,
0.636,-0.03,0.07,0.99,0.18,-0.45,0.15,
0.639,-0.02,0.08,0.98,0.18,-0.45,0.15,
0.639,-0.02,0.08,0.98,0.20,-0.41,0.09,
0.641,-0.02,0.09,0.98,0.20,-0.41,0.09,
0.644,-0.01,0.09,0.98,0.20,-0.41,0.09,
0.644,-0.01,0.09,0.98,0.31,-0.37,-0.02,
0.646,-0.01,0.09,0.97,0.31,-0.37,-0.02,
0.651,-0.01,0.09,0.97,0.31,-0.37,-0.02,
0.651,-0.01,0.09,0.97,0.38,-0.30,-0.10,
0.652,-0.00,0.10,0.97,0.38,-0.30,-0.10,
0.654,0.00,0.10,0.97,0.38,-0.30,-0.10,
0.654,0.00,0.10,0.97,0.46,-0.23,-0.19,
0.656,0.00,0.10,0.96,0.46,-0.23,-0.19,
0.659,0.00,0.10,0.96,0.46,-0.23,-0.19,
0.659,0.00,0.10,0.96,0.53,-0.17,-0.20,
0.661,0.00,0.11,0.96,0.53,-0.17,-0.20,
0.664,0.00,0.11,0.96,0.56,-0.12,-0.23,
0.664,0.00,0.11,0.96,0.56,-0.12,-0.23,
0.667,0.01,0.11,0.96,0.56,-0.12,-0.23,
0.669,0.00,0.10,0.97,0.56,-0.12,-0.23,
0.669,0.00,0.10,0.97,0.54,-0.10,-0.21,
0.671,-0.00,0.10,0.96,0.54,-0.10,-0.21,
0.674,-0.00,0.10,0.96,0.54,-0.10,-0.21,
0.674,-0.00,0.10,0.96,0.56,-0.11,-0.20,
0.677,0.00,0.10,0.96,0.56,-0.11,-0.20,
0.679,0.01,0.10,0.96,0.56,-0.11,-0.20,
0.679,0.01,0.10,0.96,0.50,-0.18,-0.25,
0.681,0.01,0.10,0.97,0.50,-0.18,-0.25,
0.683,0.01,0.10,0.96,0.50,-0.18,-0.25,
0.684,0.01,0.10,0.96,0.55,-0.17,-0.24,
0.686,0.01,0.09,0.96,0.55,-0.17,-0.24,
0.689,0.01,0.09,0.96,0.57,-0.18,-0.22,
0.689,0.01,0.10,0.95,0.57,-0.18,-0.22,
0.691,0.01,0.10,0.96,0.57,-0.18,-0.22,
0.694,0.01,0.10,0.95,0.57,-0.18,-0.22,
0.694,0.01,0.10,0.95,0.57,-0.20,-0.29,
0.696,0.01,0.10,0.96,0.57,-0.20,-0.29,
0.699,0.01,0.10,0.97,0.57,-0.20,-0.29,
0.699,0.01,0.10,0.97,0.58,-0.16,-0.29,
0.701,0.01,0.10,0.97,0.58,-0.16,-0.29,
0.703,0.02,0.11,0.98,0.58,-0.16,-0.29,
0.704,0.02,0.11,0.98,0.60,-0.17,-0.20,
0.707,0.01,0.11,0.98,0.60,-0.17,-0.20,
0.709,0.01,0.11,0.99,0.60,-0.17,-0.20,
0.709,0.01,0.11,0.99,0.63,-0.08,-0.08,
0.711,0.01,0.12,0.99,0.63,-0.08,-0.08,
0.714,0.02,0.12,1.00,0.63,-0.08,-0.08,
0.714,0.02,0.12,1.00,0.61,-0.03,0.00,
0.716,0.02,0.12,1.00,0.61,-0.03,0.00,
0.718,0.02,0.12,1.01,0.61,-0.03,0.00,
0.718,0.02,0.12,1.01,0.61,0.04,0.10,
0.721,0.02,0.12,1.01,0.61,0.04,0.10,
0.724,0.02,0.12,1.01,0.61,0.04,0.10,
0.724,0.02,0.12,1.01,0.64,0.06,0.17,
0.726,0.03,0.12,1.01,0.64,0.06,0.17,
0.729,0.03,0.13,1.01,0.64,0.06,0.17,
0.729,0.03,0.13,1.01,0.68,0.09,0.20,
0.731,0.02,0.13,1.00,0.68,0.09,0.20,
0.738,0.03,0.13,1.00,0.68,0.09,0.20,
0.738,0.03,0.13,1.00,0.71,0.11,0.22,
0.738,0.03,0.13,1.00,0.71,0.11,0.22,
0.739,0.03,0.13,0.99,0.71,0.11,0.22,
0.739,0.03,0.13,0.99,0.71,0.11,0.17,
0.74,0.03,0.12,0.99,0.71,0.11,0.17,
0.743,0.04,0.13,0.99,0.71,0.11,0.17,
0.743,0.04,0.13,0.99,0.72,0.11,0.08,
0.745,0.03,0.13,0.98,0.72,0.11,0.08,
0.748,0.03,0.13,0.98,0.72,0.11,0.08,
0.749,0.03,0.13,0.98,0.76,0.09,0.01,
0.751,0.04,0.12,0.97,0.76,0.09,0.01,
0.753,0.04,0.13,0.97,0.76,0.09,0.01,
0.753,0.04,0.13,0.97,0.73,0.12,-0.06,
0.756,0.04,0.12,0.97,0.73,0.12,-0.06,
0.758,0.05,0.12,0.96,0.73,0.12,-0.06,
0.759,0.05,0.12,0.96,0.80,0.09,-0.12,
0.761,0.05,0.13,0.96,0.80,0.09,-0.12,
0.763,0.06,0.13,0.96,0.80,0.09,-0.12,
0.764,0.06,0.13,0.96,0.82,0.08,-0.18,
0.766,0.06,0.13,0.96,0.82,0.08,-0.18,
0.768,0.07,0.13,0.96,0.82,0.08,-0.18,
0.769,0.07,0.13,0.96,0.90,0.13,-0.25,
0.77,0.07,0.14,0.95,0.90,0.13,-0.25,
0.773,0.07,0.14,0.95,0.90,0.13,-0.25,
0.774,0.07,0.14,0.95,0.97,0.14,-0.26,
0.776,0.08,0.14,0.95,0.97,0.14,-0.26,
0.778,0.08,0.14,0.95,0.97,0.14,-0.26,
0.779,0.08,0.14,0.95,1.04,0.21,-0.34,
0.781,0.08,0.13,0.94,1.04,0.21,-0.34,
0.783,0.09,0.14,0.94,1.04,0.21,-0.34,
0.783,0.09,0.14,0.94,1.10,0.24,-0.34,
0.785,0.09,0.14,0.94,1.10,0.24,-0.34,
0.788,0.09,0.14,0.94,1.10,0.24,-0.34,
0.788,0.09,0.14,0.94,1.17,0.19,-0.43,
0.791,0.09,0.14,0.94,1.17,0.19,-0.43,
0.792,0.09,0.14,0.93,1.17,0.19,-0.43,
0.793,0.09,0.14,0.93,1.21,0.26,-0.45,
0.795,0.09,0.14,0.93,1.21,0.26,-0.45,
0.797,0.09,0.14,0.92,1.21,0.26,-0.45,
0.797,0.09,0.14,0.92,1.22,0.23,-0.47,
0.801,0.09,0.14,0.92,1.22,0.23,-0.47,
0.802,0.09,0.14,0.92,1.22,0.23,-0.47,
0.802,0.09,0.14,0.92,1.22,0.23,-0.57,
0.805,0.09,0.13,0.91,1.22,0.23,-0.57,
0.807,0.08,0.13,0.91,1.22,0.23,-0.57,
0.807,0.08,0.13,0.91,1.20,0.21,-0.64,
0.809,0.08,0.13,0.90,1.20,0.21,-0.64,
0.813,0.08,0.12,0.91,1.20,0.21,-0.64,
0.813,0.08,0.12,0.91,1.12,0.13,-0.68,
0.814,0.08,0.12,0.91,1.12,0.13,-0.68,
0.818,0.08,0.12,0.91,1.12,0.13,-0.68,
0.818,0.08,0.12,0.91,1.11,0.09,-0.73,
0.819,0.08,0.11,0.91,1.11,0.09,-0.73,
0.822,0.08,0.12,0.92,1.11,0.09,-0.73,
0.824,0.08,0.12,0.92,1.06,0.04,-0.67,
0.825,0.07,0.11,0.93,1.06,0.04,-0.67,
0.827,0.07,0.11,0.93,1.06,0.04,-0.67,
0.827,0.07,0.11,0.93,1.04,0.01,-0.65,
0.829,0.06,0.11,0.94,1.04,0.01,-0.65,
0.832,0.06,0.11,0.95,1.04,0.01,-0.65,
0.832,0.06,0.11,0.95,0.98,-0.02,-0.48,
0.838,0.06,0.10,0.96,0.98,-0.02,-0.48,
0.838,0.06,0.10,0.96,0.87,-0.06,-0.33,
0.839,0.06,0.10,0.97,0.87,-0.06,-0.33,
0.839,0.06,0.10,0.97,0.87,-0.06,-0.33,
0.843,0.05,0.10,0.98,0.87,-0.06,-0.33,
0.843,0.05,0.10,0.98,0.87,-0.11,-0.16,
0.844,0.06,0.09,0.99,0.87,-0.11,-0.16,
0.847,0.06,0.09,0.99,0.87,-0.11,-0.16,
0.847,0.06,0.09,0.99,0.81,-0.12,-0.01,
0.85,0.06,0.09,1.00,0.81,-0.12,-0.01,
0.853,0.06,0.08,1.00,0.81,-0.12,-0.01,
0.854,0.06,0.08,1.00,0.81,-0.19,0.11,
0.854,0.07,0.08,1.01,0.81,-0.19,0.11,
0.857,0.07,0.08,1.01,0.81,-0.19,0.11,
0.858,0.07,0.08,1.01,0.84,-0.22,0.18,
0.859,0.07,0.07,1.00,0.84,-0.22,0.18,
0.861,0.08,0.06,1.01,0.84,-0.22,0.18,
0.862,0.08,0.06,1.01,0.88,-0.26,0.25,
0.864,0.09,0.06,1.01,0.88,-0.26,0.25,
0.867,0.09,0.05,1.00,0.88,-0.26,0.25,
0.868,0.09,0.05,1.00,0.93,-0.36,0.22,
0.869,0.09,0.04,1.00,0.93,-0.36,0.22,
0.872,0.10,0.04,0.99,0.93,-0.36,0.22,
0.872,0.10,0.04,0.99,1.02,-0.48,0.20,
0.874,0.11,0.03,0.99,1.02,-0.48,0.20,
0.877,0.12,0.03,0.99,1.02,-0.48,0.20,
0.877,0.12,0.03,0.99,1.09,-0.58,0.14,
0.879,0.12,0.02,0.98,1.09,-0.58,0.14,
0.881,0.13,0.01,0.98,1.09,-0.58,0.14,
0.881,0.13,0.01,0.98,1.20,-0.67,0.08,
0.885,0.15,0.01,0.98,1.20,-0.67,0.08,
0.886,0.16,0.01,0.97,1.20,-0.67,0.08,
0.887,0.16,0.01,0.97,1.36,-0.78,0.00,
0.889,0.17,0.01,0.96,1.36,-0.78,0.00,
0.891,0.18,0.01,0.96,1.36,-0.78,0.00,
0.892,0.18,0.01,0.96,1.53,-0.78,-0.09,
0.894,0.19,0.00,0.95,1.53,-0.78,-0.09,
0.897,0.20,0.00,0.94,1.53,-0.78,-0.09,
0.897,0.20,0.00,0.94,1.73,-0.74,-0.22,
0.899,0.20,-0.00,0.95,1.73,-0.74,-0.22,
0.902,0.21,-0.00,0.94,1.73,-0.74,-0.22,
0.902,0.21,-0.00,0.94,1.85,-0.81,-0.37,
0.904,0.21,-0.01,0.94,1.85,-0.81,-0.37,
0.906,0.21,-0.01,0.94,1.98,-0.84,-0.38,
0.906,0.22,-0.01,0.95,1.98,-0.84,-0.38,
0.909,0.22,-0.01,0.94,1.98,-0.84,-0.38,
0.911,0.23,-0.01,0.94,1.98,-0.84,-0.38,
0.911,0.23,-0.01,0.94,2.02,-0.83,-0.37,
0.913,0.23,-0.01,0.95,2.02,-0.83,-0.37,
0.916,0.23,-0.01,0.95,2.02,-0.83,-0.37,
0.918,0.23,-0.01,0.95,2.08,-0.84,-0.37,
0.919,0.24,-0.02,0.96,2.08,-0.84,-0.37,
0.921,0.23,-0.01,0.96,2.08,-0.84,-0.37,
0.922,0.23,-0.01,0.96,2.12,-0.80,-0.28,
0.924,0.24,-0.02,0.97,2.12,-0.80,-0.28,
0.927,0.23,-0.02,0.97,2.12,-0.80,-0.28,
0.927,0.23,-0.02,0.97,2.12,-0.82,-0.25,
0.928,0.24,-0.03,0.97,2.12,-0.82,-0.25,
0.931,0.24,-0.03,0.98,2.12,-0.82,-0.25,
0.931,0.24,-0.03,0.98,2.11,-0.85,-0.14,
0.935,0.23,-0.04,0.99,2.11,-0.85,-0.14,
0.936,0.23,-0.04,1.00,2.11,-0.85,-0.14,
0.936,0.23,-0.04,1.00,2.11,-0.92,-0.05,
0.938,0.23,-0.05,1.00,2.11,-0.92,-0.05,
0.941,0.23,-0.04,1.01,2.11,-0.92,-0.05,
0.941,0.23,-0.04,1.01,2.04,-0.97,0.08,
0.944,0.22,-0.04,1.01,2.04,-0.97,0.08,
0.946,0.22,-0.05,1.01,2.04,-0.97,0.08,
0.946,0.22,-0.05,1.01,2.02,-0.98,0.19,
0.948,0.21,-0.04,1.02,2.02,-0.98,0.19,
0.957,0.21,-0.04,1.03,2.02,-0.98,0.19,
0.958,0.21,-0.04,1.03,1.98,-0.96,0.29,
0.958,0.19,-0.03,1.03,1.98,-0.96,0.29,
0.958,0.19,-0.03,1.03,1.98,-0.96,0.29,
0.959,0.19,-0.03,1.03,1.88,-0.87,0.39,
0.959,0.18,-0.03,1.03,1.88,-0.87,0.39,
0.962,0.17,-0.02,1.04,1.88,-0.87,0.39,
0.963,0.17,-0.02,1.04,1.73,-0.78,0.45,
0.964,0.16,-0.02,1.03,1.73,-0.78,0.45,
0.969,0.15,-0.02,1.03,1.73,-0.78,0.45,
0.969,0.15,-0.02,1.03,1.65,-0.72,0.51,
0.969,0.14,-0.01,1.03,1.65,-0.72,0.51,
0.971,0.13,-0.01,1.03,1.65,-0.72,0.51,
0.972,0.13,-0.01,1.03,1.48,-0.64,0.47,
0.973,0.13,-0.00,1.03,1.48,-0.64,0.47,
0.976,0.12,0.00,1.02,1.48,-0.64,0.47,
0.976,0.12,0.00,1.02,1.35,-0.54,0.45,
0.978,0.12,0.01,1.01,1.35,-0.54,0.45,
0.981,0.11,0.01,1.01,1.35,-0.54,0.45,
0.981,0.11,0.01,1.01,1.25,-0.44,0.38,
0.984,0.10,0.02,1.00,1.25,-0.44,0.38,
0.986,0.09,0.03,0.99,1.25,-0.44,0.38,
0.986,0.09,0.03,0.99,1.14,-0.34,0.24,
0.988,0.09,0.03,0.98,1.14,-0.34,0.24,
0.99,0.08,0.03,0.96,1.14,-0.34,0.24,
0.99,0.08,0.03,0.96,1.04,-0.26,0.09,
0.993,0.08,0.03,0.95,1.04,-0.26,0.09,
0.996,0.08,0.03,0.94,1.04,-0.26,0.09,
0.996,0.08,0.03,0.94,0.91,-0.20,-0.13,
0.998,0.08,0.02,0.93,0.91,-0.20,-0.13,
1.0,0.08,0.03,0.91,0.91,-0.20,-0.13,
1.001,0.08,0.03,0.91,0.86,-0.21,-0.37,
1.003,0.08,0.03,0.90,0.86,-0.21,-0.37,
1.006,0.08,0.04,0.89,0.86,-0.21,-0.37,
1.006,0.08,0.04,0.89,0.86,-0.21,-0.63,
1.008,0.09,0.04,0.88,0.86,-0.21,-0.63,
1.011,0.09,0.04,0.88,0.89,-0.12,-0.88,
1.011,0.10,0.04,0.87,0.89,-0.12,-0.88,
1.013,0.11,0.05,0.85,0.89,-0.12,-0.88,
1.016,0.12,0.06,0.85,0.89,-0.12,-0.88,
1.016,0.12,0.06,0.85,1.00,-0.05,-1.08,
1.018,0.13,0.06,0.84,1.00,-0.05,-1.08,
1.02,0.13,0.06,0.84,1.00,-0.05,-1.08,
1.02,0.13,0.06,0.84,1.18,0.08,-1.30,
1.023,0.14,0.07,0.84,1.18,0.08,-1.30,
1.025,0.15,0.07,0.84,1.18,0.08,-1.30,
1.026,0.15,0.07,0.84,1.32,0.13,-1.37,
1.028,0.15,0.07,0.84,1.32,0.13,-1.37,
1.03,0.15,0.06,0.85,1.32,0.13,-1.37,
1.031,0.15,0.06,0.85,1.41,0.24,-1.39,
1.033,0.15,0.06,0.86,1.41,0.24,-1.39,
1.035,0.15,0.06,0.86,1.41,0.24,-1.39,
1.036,0.15,0.06,0.86,1.49,0.27,-1.36,
1.038,0.15,0.06,0.88,1.49,0.27,-1.36,
1.041,0.15,0.05,0.90,1.49,0.27,-1.36,
1.041,0.15,0.05,0.90,1.48,0.22,-1.20,
1.043,0.15,0.05,0.92,1.48,0.22,-1.20,
1.045,0.15,0.04,0.93,1.48,0.22,-1.20,
1.046,0.15,0.04,0.93,1.46,0.19,-0.93,
1.048,0.15,0.03,0.95,1.46,0.19,-0.93,
1.05,0.15,0.03,0.97,1.46,0.19,-0.93,
1.05,0.15,0.03,0.97,1.42,0.14,-0.55,
1.056,0.14,0.03,0.98,1.42,0.14,-0.55,
1.056,0.14,0.02,0.99,1.42,0.14,-0.55,
1.056,0.14,0.02,0.99,1.43,0.05,-0.23,
1.057,0.14,0.02,1.01,1.43,0.05,-0.23,
1.06,0.14,0.01,1.02,1.43,0.05,-0.23,
1.06,0.14,0.01,1.02,1.37,0.03,0.06,
1.063,0.14,0.01,1.03,1.37,0.03,0.06,
1.065,0.13,0.00,1.04,1.37,0.03,0.06,
1.066,0.13,0.00,1.04,1.37,-0.03,0.34,
1.067,0.13,0.00,1.05,1.37,-0.03,0.34,
1.069,0.13,0.00,1.06,1.37,-0.03,0.34,
1.07,0.13,0.00,1.06,1.35,-0.10,0.56,
1.072,0.13,-0.00,1.07,1.35,-0.10,0.56,
1.075,0.12,-0.01,1.08,1.35,-0.10,0.56,
1.075,0.12,-0.01,1.08,1.30,-0.10,0.72,
1.078,0.12,-0.01,1.09,1.30,-0.10,0.72,
1.08,0.12,-0.02,1.09,1.30,-0.10,0.72,
1.08,0.12,-0.02,1.09,1.30,-0.15,0.89,
1.082,0.12,-0.02,1.10,1.30,-0.15,0.89,
1.086,0.11,-0.02,1.09,1.30,-0.15,0.89,
1.086,0.11,-0.02,1.09,1.27,-0.23,1.04,
1.087,0.11,-0.02,1.09,1.27,-0.23,1.04,
1.089,0.10,-0.03,1.09,1.27,-0.23,1.04,
1.09,0.10,-0.03,1.09,1.21,-0.25,1.08,
1.092,0.10,-0.03,1.08,1.21,-0.25,1.08,
1.094,0.10,-0.03,1.08,1.21,-0.25,1.08,
1.095,0.10,-0.03,1.08,1.12,-0.32,1.08,
1.097,0.09,-0.04,1.07,1.12,-0.32,1.08,
1.1,0.09,-0.04,1.06,1.12,-0.32,1.08,
1.1,0.09,-0.04,1.06,1.07,-0.36,0.94,
1.102,0.09,-0.04,1.05,1.07,-0.36,0.94,
1.104,0.09,-0.04,1.04,1.07,-0.36,0.94,
1.105,0.09,-0.04,1.04,1.03,-0.39,0.80,
1.107,0.08,-0.04,1.04,1.03,-0.39,0.80,
1.11,0.08,-0.04,1.03,1.03,-0.39,0.80,
1.11,0.08,-0.04,1.03,0.99,-0.40,0.63,
1.112,0.08,-0.04,1.02,0.99,-0.40,0.63,
1.114,0.07,-0.04,1.01,0.99,-0.40,0.63,
1.114,0.07,-0.04,1.01,0.97,-0.39,0.48,
1.117,0.06,-0.04,1.00,0.97,-0.39,0.48,
1.12,0.05,-0.04,1.00,0.97,-0.39,0.48,
1.121,0.05,-0.04,1.00,0.87,-0.38,0.29,
1.122,0.04,-0.04,0.99,0.87,-0.38,0.29,
1.125,0.03,-0.04,0.99,0.87,-0.38,0.29,
1.125,0.03,-0.04,0.99,0.69,-0.35,0.14,
1.126,0.02,-0.03,0.98,0.69,-0.35,0.14,
1.129,0.01,-0.03,0.98,0.69,-0.35,0.14,
1.129,0.01,-0.03,0.98,0.53,-0.33,0.04,
1.131,-0.00,-0.03,0.98,0.53,-0.33,0.04,
1.136,-0.00,-0.03,0.98,0.31,-0.28,-0.05,
1.137,-0.01,-0.03,0.98,0.31,-0.28,-0.05,
1.137,-0.02,-0.03,0.98,0.31,-0.28,-0.05,
1.139,-0.03,-0.03,0.98,0.31,-0.28,-0.05,
1.139,-0.03,-0.03,0.98,0.08,-0.29,-0.05,
1.141,-0.04,-0.03,0.99,0.08,-0.29,-0.05,
1.144,-0.05,-0.02,0.99,0.08,-0.29,-0.05,
1.144,-0.05,-0.02,0.99,-0.09,-0.22,-0.03,
1.146,-0.05,-0.02,0.99,-0.09,-0.22,-0.03,
1.149,-0.05,-0.02,1.00,-0.09,-0.22,-0.03,
1.15,-0.05,-0.02,1.00,-0.25,-0.16,0.03,
1.152,-0.05,-0.01,1.00,-0.25,-0.16,0.03,
1.155,-0.05,-0.01,1.01,-0.25,-0.16,0.03,
1.156,-0.05,-0.01,1.01,-0.29,-0.10,0.11,
1.156,-0.05,0.00,1.01,-0.29,-0.10,0.11,
1.158,-0.04,-0.00,1.01,-0.29,-0.10,0.11,
1.159,-0.04,-0.00,1.01,-0.31,-0.04,0.19,
1.161,-0.04,0.01,1.02,-0.31,-0.04,0.19,
1.165,-0.04,0.01,1.03,-0.31,-0.04,0.19,
1.165,-0.04,0.01,1.03,-0.27,0.10,0.25,
1.166,-0.04,0.02,1.03,-0.27,0.10,0.25,
1.174,-0.03,0.03,1.04,-0.27,0.10,0.25,
1.174,-0.03,0.03,1.04,-0.20,0.20,0.39,
1.175,-0.03,0.03,1.05,-0.20,0.20,0.39,
1.175,-0.03,0.03,1.05,-0.20,0.20,0.39,
1.175,-0.03,0.03,1.05,-0.15,0.34,0.48,
1.177,-0.02,0.03,1.05,-0.15,0.34,0.48,
1.179,-0.02,0.03,1.05,-0.15,0.34,0.48,
1.179,-0.02,0.03,1.05,-0.08,0.45,0.60,
1.181,-0.01,0.03,1.05,-0.08,0.45,0.60,
1.184,-0.01,0.02,1.05,-0.08,0.45,0.60,
1.184,-0.01,0.02,1.05,-0.00,0.46,0.67,
1.186,-0.01,0.01,1.05,-0.00,0.46,0.67,
1.189,-0.00,0.01,1.04,-0.00,0.46,0.67,
1.189,-0.00,0.01,1.04,0.05,0.39,0.66,
1.191,0.00,0.01,1.04,0.05,0.39,0.66,
1.193,0.01,0.00,1.03,0.05,0.39,0.66,
1.194,0.01,0.00,1.03,0.13,0.29,0.58,
1.196,0.02,-0.00,1.03,0.13,0.29,0.58,
1.199,0.03,-0.00,1.02,0.13,0.29,0.58,
1.2,0.03,-0.00,1.02,0.23,0.24,0.49,
1.202,0.04,-0.00,1.02,0.23,0.24,0.49,
1.203,0.05,-0.00,1.02,0.23,0.24,0.49,
1.204,0.05,-0.00,1.02,0.40,0.19,0.42,
1.206,0.05,0.00,1.02,0.40,0.19,0.42,
1.209,0.05,0.00,1.02,0.53,0.20,0.33,
1.209,0.06,0.00,1.02,0.53,0.20,0.33,
1.211,0.06,0.00,1.02,0.53,0.20,0.33,
1.213,0.06,0.00,1.02,0.53,0.20,0.33,
1.214,0.06,0.00,1.02,0.63,0.24,0.32,
1.216,0.06,0.00,1.03,0.63,0.24,0.32,
1.218,0.06,0.00,1.04,0.63,0.24,0.32,
1.219,0.06,0.00,1.04,0.68,0.28,0.34,
1.221,0.06,-0.00,1.04,0.68,0.28,0.34,
1.224,0.05,-0.00,1.04,0.68,0.28,0.34,
1.224,0.05,-0.00,1.04,0.66,0.29,0.44,
1.226,0.05,-0.01,1.05,0.66,0.29,0.44,
1.229,0.05,-0.01,1.05,0.56,0.25,0.54,
1.229,0.04,-0.01,1.06,0.56,0.25,0.54,
1.231,0.03,-0.01,1.07,0.56,0.25,0.54,
1.233,0.02,-0.01,1.08,0.56,0.25,0.54,
1.233,0.02,-0.01,1.08,0.46,0.24,0.72,
1.236,0.02,-0.01,1.08,0.46,0.24,0.72,
1.238,0.02,-0.01,1.09,0.46,0.24,0.72,
1.238,0.02,-0.01,1.09,0.29,0.22,0.84,
1.241,0.01,-0.01,1.10,0.29,0.22,0.84,
1.243,-0.00,-0.01,1.11,0.29,0.22,0.84,
1.243,-0.00,-0.01,1.11,0.22,0.25,0.97,
1.246,-0.01,-0.01,1.11,0.22,0.25,0.97,
1.248,-0.01,-0.00,1.13,0.22,0.25,0.97,
1.249,-0.01,-0.00,1.13,0.07,0.26,1.13,
1.251,-0.01,-0.00,1.13,0.07,0.26,1.13,
1.254,-0.01,-0.00,1.13,0.07,0.26,1.13,
1.254,-0.01,-0.00,1.13,-0.01,0.30,1.30,
1.255,-0.01,0.01,1.14,-0.01,0.30,1.30,
1.258,-0.02,0.00,1.14,-0.01,0.30,1.30,
1.259,-0.02,0.00,1.14,-0.08,0.34,1.40,
1.26,-0.01,0.01,1.14,-0.08,0.34,1.40,
1.263,-0.02,0.01,1.14,-0.08,0.34,1.40,
1.263,-0.02,0.01,1.14,-0.11,0.41,1.49,
1.266,-0.02,0.01,1.14,-0.11,0.41,1.49,
1.268,-0.02,0.00,1.14,-0.11,0.41,1.49,
1.268,-0.02,0.00,1.14,-0.12,0.45,1.49,
1.274,-0.02,-0.00,1.13,-0.12,0.45,1.49,
1.274,-0.01,-0.00,1.13,-0.12,0.45,1.49,
1.274,-0.01,-0.00,1.13,-0.14,0.43,1.46,
1.275,-0.01,-0.01,1.12,-0.14,0.43,1.46,
1.277,0.00,-0.02,1.11,-0.14,0.43,1.46,
1.278,0.00,-0.02,1.11,-0.13,0.33,1.39,
1.28,0.00,-0.02,1.10,-0.13,0.33,1.39,
1.283,0.00,-0.02,1.10,-0.05,0.24,1.22,
1.283,0.01,-0.02,1.09,-0.05,0.24,1.22,
1.285,0.02,-0.02,1.09,-0.05,0.24,1.22,
1.287,0.03,-0.02,1.08,-0.05,0.24,1.22,
1.288,0.03,-0.02,1.08,0.02,0.22,1.05,
1.29,0.03,-0.02,1.07,0.02,0.22,1.05,
1.293,0.04,-0.02,1.06,0.02,0.22,1.05,
1.293,0.04,-0.02,1.06,0.16,0.19,0.95,
1.295,0.04,-0.02,1.06,0.16,0.19,0.95,
1.298,0.05,-0.02,1.05,0.16,0.19,0.95,
1.298,0.05,-0.02,1.05,0.27,0.19,0.77,
1.3,0.05,-0.02,1.05,0.27,0.19,0.77,
1.304,0.05,-0.02,1.05,0.27,0.19,0.77,
1.304,0.05,-0.02,1.05,0.34,0.20,0.66,
1.305,0.05,-0.02,1.05,0.34,0.20,0.66,
1.307,0.05,-0.02,1.05,0.35,0.18,0.62,
1.308,0.04,-0.02,1.05,0.35,0.18,0.62,
1.31,0.04,-0.03,1.05,0.35,0.18,0.62,
1.313,0.04,-0.03,1.05,0.35,0.18,0.62,
1.313,0.04,-0.03,1.05,0.29,0.19,0.58,
1.315,0.03,-0.03,1.05,0.29,0.19,0.58,
1.318,0.02,-0.03,1.04,0.29,0.19,0.58,
1.32,0.02,-0.03,1.04,0.19,0.12,0.59,
1.32,0.02,-0.03,1.05,0.19,0.12,0.59,
1.322,0.02,-0.04,1.05,0.19,0.12,0.59,
1.323,0.02,-0.04,1.05,0.03,0.11,0.54,
1.324,0.01,-0.04,1.05,0.03,0.11,0.54,
1.327,0.00,-0.03,1.05,0.03,0.11,0.54,
1.328,0.00,-0.03,1.05,-0.05,0.10,0.59,
1.329,0.01,-0.03,1.05,-0.05,0.10,0.59,
1.332,0.01,-0.03,1.05,-0.16,0.11,0.58,
1.332,0.01,-0.03,1.05,-0.16,0.11,0.58,
1.334,0.00,-0.03,1.06,-0.16,0.11,0.58,
1.338,0.00,-0.03,1.06,-0.16,0.11,0.58,
1.338,0.00,-0.03,1.06,-0.20,0.12,0.60,
1.339,-0.00,-0.03,1.06,-0.20,0.12,0.60,
1.342,0.01,-0.02,1.07,-0.20,0.12,0.60,
1.342,0.01,-0.02,1.07,-0.26,0.17,0.66,
1.344,0.01,-0.02,1.07,-0.26,0.17,0.66,
1.347,0.02,-0.02,1.07,-0.26,0.17,0.66,
1.347,0.02,-0.02,1.07,-0.27,0.21,0.73,
1.349,0.02,-0.01,1.08,-0.27,0.21,0.73,
1.353,0.02,-0.01,1.08,-0.27,0.21,0.73,
1.354,0.02,-0.01,1.08,-0.18,0.28,0.78,
1.354,0.02,-0.01,1.08,-0.18,0.28,0.78,
1.357,0.03,-0.02,1.08,-0.18,0.28,0.78,
1.357,0.03,-0.02,1.08,-0.11,0.32,0.89,
1.359,0.03,-0.02,1.08,-0.11,0.32,0.89,
1.361,0.04,-0.02,1.08,-0.11,0.32,0.89,
1.362,0.04,-0.02,1.08,-0.07,0.32,0.90,
1.364,0.04,-0.02,1.07,-0.07,0.32,0.90,
1.367,0.05,-0.03,1.06,-0.07,0.32,0.90,
1.367,0.05,-0.03,1.06,-0.01,0.26,0.88,
1.369,0.06,-0.04,1.06,-0.01,0.26,0.88,
1.371,0.06,-0.04,1.05,-0.01,0.26,0.88,
1.371,0.06,-0.04,1.05,0.06,0.16,0.74,
1.374,0.07,-0.05,1.04,0.06,0.16,0.74,
1.376,0.07,-0.05,1.02,0.06,0.16,0.74,
1.376,0.07,-0.05,1.02,0.19,0.05,0.60,
1.379,0.08,-0.05,1.01,0.19,0.05,0.60,
1.381,0.09,-0.06,1.01,0.19,0.05,0.60,
1.382,0.09,-0.06,1.01,0.28,-0.04,0.38,
1.384,0.10,-0.06,1.00,0.28,-0.04,0.38,
1.39,0.11,-0.06,0.99,0.28,-0.04,0.38,
1.39,0.11,-0.06,0.99,0.44,-0.12,0.18,
1.391,0.11,-0.06,0.98,0.44,-0.12,0.18,
1.391,0.12,-0.06,0.98,0.44,-0.12,0.18,
1.393,0.12,-0.06,0.98,0.58,-0.16,0.03,
1.394,0.12,-0.06,0.97,0.58,-0.16,0.03,
1.396,0.12,-0.05,0.96,0.58,-0.16,0.03,
1.396,0.12,-0.05,0.96,0.64,-0.18,-0.12,
1.398,0.12,-0.05,0.97,0.64,-0.18,-0.12,
1.401,0.12,-0.05,0.96,0.64,-0.18,-0.12,
1.401,0.12,-0.05,0.96,0.71,-0.15,-0.26,
1.404,0.12,-0.05,0.96,0.71,-0.15,-0.26,
1.406,0.11,-0.05,0.96,0.71,-0.15,-0.26,
1.406,0.11,-0.05,0.96,0.68,-0.13,-0.26,
1.408,0.11,-0.05,0.96,0.68,-0.13,-0.26,
1.411,0.10,-0.05,0.97,0.68,-0.13,-0.26,
1.411,0.10,-0.05,0.97,0.62,-0.11,-0.31,
1.413,0.09,-0.04,0.98,0.62,-0.11,-0.31,
1.416,0.09,-0.04,0.98,0.62,-0.11,-0.31,
1.416,0.09,-0.04,0.98,0.53,-0.07,-0.26,
1.42,0.08,-0.04,0.99,0.53,-0.07,-0.26,
1.422,0.07,-0.04,0.99,0.53,-0.07,-0.26,
1.422,0.07,-0.04,0.99,0.36,-0.04,-0.12,
1.423,0.06,-0.04,1.00,0.36,-0.04,-0.12,
1.426,0.06,-0.04,1.01,0.36,-0.04,-0.12,
1.426,0.06,-0.04,1.01,0.24,-0.04,-0.03,
1.428,0.05,-0.04,1.01,0.24,-0.04,-0.03,
1.431,0.05,-0.04,1.02,0.24,-0.04,-0.03,
1.431,0.05,-0.04,1.02,0.06,-0.01,0.13,
1.433,0.04,-0.03,1.02,0.06,-0.01,0.13,
1.437,0.04,-0.03,1.02,0.06,-0.01,0.13,
1.437,0.04,-0.03,1.02,-0.03,0.01,0.23,
1.438,0.04,-0.03,1.02,-0.03,0.01,0.23,
1.441,0.04,-0.03,1.02,-0.03,0.01,0.23,
1.442,0.04,-0.03,1.02,-0.12,0.05,0.26,
1.443,0.04,-0.03,1.02,-0.12,0.05,0.26,
1.446,0.04,-0.03,1.02,-0.17,0.07,0.30,
1.446,0.04,-0.02,1.02,-0.17,0.07,0.30,
1.449,0.04,-0.02,1.01,-0.17,0.07,0.30,
1.45,0.05,-0.03,1.01,-0.17,0.07,0.30,
1.451,0.05,-0.03,1.01,-0.19,0.10,0.25,
1.453,0.05,-0.02,1.01,-0.19,0.10,0.25,
1.455,0.05,-0.02,1.01,-0.19,0.10,0.25,
1.456,0.05,-0.02,1.01,-0.15,0.13,0.22,
1.458,0.06,-0.02,1.00,-0.15,0.13,0.22,
1.46,0.06,-0.02,1.00,-0.12,0.15,0.17,
1.461,0.06,-0.02,1.00,-0.12,0.15,0.17,
1.463,0.06,-0.02,1.00,-0.12,0.15,0.17,
1.465,0.07,-0.02,0.98,-0.12,0.15,0.17,
1.466,0.07,-0.02,0.98,-0.02,0.20,0.08,
1.468,0.07,-0.02,0.98,-0.02,0.20,0.08,
1.471,0.08,-0.02,0.97,-0.02,0.20,0.08,
1.471,0.08,-0.02,0.97,0.01,0.19,-0.02,
1.473,0.08,-0.02,0.97,0.01,0.19,-0.02,
1.475,0.07,-0.03,0.96,0.01,0.19,-0.02,
1.476,0.07,-0.03,0.96,0.10,0.15,-0.15,
1.478,0.08,-0.03,0.96,0.10,0.15,-0.15,
1.48,0.09,-0.03,0.96,0.10,0.15,-0.15,
1.48,0.09,-0.03,0.96,0.10,0.12,-0.27,
1.484,0.09,-0.04,0.95,0.10,0.12,-0.27,
1.492,0.09,-0.04,0.95,0.10,0.12,-0.27,
1.492,0.09,-0.04,0.95,0.15,0.04,-0.31,
1.493,0.09,-0.04,0.95,0.15,0.04,-0.31,
1.493,0.09,-0.04,0.95,0.15,0.04,-0.31,
1.494,0.09,-0.04,0.95,0.18,-0.03,-0.39,
1.494,0.09,-0.04,0.96,0.18,-0.03,-0.39,
1.495,0.09,-0.04,0.96,0.18,-0.03,-0.39,
1.496,0.09,-0.04,0.96,0.21,-0.04,-0.37,
1.498,0.09,-0.04,0.97,0.21,-0.04,-0.37,
1.501,0.10,-0.04,0.98,0.21,-0.04,-0.37,
1.501,0.10,-0.04,0.98,0.21,-0.05,-0.29,
1.505,0.10,-0.04,0.99,0.21,-0.05,-0.29,
1.505,0.10,-0.04,0.99,0.22,-0.08,-0.13,
1.505,0.10,-0.05,1.00,0.22,-0.08,-0.13,
1.508,0.10,-0.05,1.00,0.22,-0.08,-0.13,
1.511,0.10,-0.05,1.01,0.22,-0.08,-0.13,
1.511,0.10,-0.05,1.01,0.21,-0.09,0.03,
1.513,0.10,-0.05,1.03,0.21,-0.09,0.03,
1.516,0.10,-0.05,1.03,0.21,-0.09,0.03,
1.516,0.10,-0.05,1.03,0.22,-0.12,0.15,
1.518,0.09,-0.05,1.04,0.22,-0.12,0.15,
1.52,0.09,-0.05,1.04,0.19,-0.11,0.38,
1.521,0.09,-0.05,1.04,0.19,-0.11,0.38,
1.523,0.09,-0.05,1.04,0.19,-0.11,0.38,
1.525,0.08,-0.05,1.05,0.19,-0.11,0.38,
1.525,0.08,-0.05,1.05,0.10,-0.16,0.48,
1.528,0.08,-0.05,1.05,0.10,-0.16,0.48,
1.531,0.08,-0.06,1.05,0.10,-0.16,0.48,
1.531,0.08,-0.06,1.05,0.05,-0.15,0.53,
1.533,0.07,-0.06,1.05,0.05,-0.15,0.53,
1.535,0.07,-0.06,1.05,0.05,-0.15,0.53,
1.536,0.07,-0.06,1.05,-0.04,-0.15,0.58,
1.538,0.07,-0.06,1.05,-0.04,-0.15,0.58,
1.54,0.06,-0.06,1.05,-0.04,-0.15,0.58,
1.54,0.06,-0.06,1.05,-0.15,-0.18,0.59,
1.543,0.05,-0.06,1.04,-0.15,-0.18,0.59,
1.545,0.05,-0.06,1.04,-0.15,-0.18,0.59,
1.546,0.05,-0.06,1.04,-0.21,-0.19,0.57,
1.548,0.05,-0.06,1.04,-0.21,-0.19,0.57,
1.55,0.04,-0.06,1.03,-0.21,-0.19,0.57,
1.55,0.04,-0.06,1.03,-0.31,-0.21,0.50,
1.553,0.04,-0.06,1.03,-0.31,-0.21,0.50,
1.555,0.03,-0.06,1.03,-0.31,-0.21,0.50,
1.556,0.03,-0.06,1.03,-0.43,-0.24,0.44,
1.557,0.03,-0.06,1.03,-0.43,-0.24,0.44,
1.56,0.03,-0.06,1.02,-0.43,-0.24,0.44,
1.56,0.03,-0.06,1.02,-0.51,-0.23,0.34,
1.563,0.03,-0.06,1.01,-0.51,-0.23,0.34,
1.565,0.03,-0.06,1.01,-0.56,-0.22,0.28,
1.566,0.02,-0.05,1.01,-0.56,-0.22,0.28,
1.568,0.03,-0.05,1.00,-0.56,-0.22,0.28,
1.572,0.02,-0.05,1.00,-0.56,-0.22,0.28,
1.572,0.02,-0.05,1.00,-0.62,-0.20,0.14,
1.572,0.03,-0.05,0.99,-0.62,-0.20,0.14,
1.575,0.03,-0.05,0.99,-0.62,-0.20,0.14,
1.575,0.03,-0.05,0.99,-0.62,-0.16,0.05,
1.578,0.03,-0.05,0.98,-0.62,-0.16,0.05,
1.58,0.04,-0.05,0.98,-0.62,-0.16,0.05,
1.58,0.04,-0.05,0.98,-0.60,-0.21,-0.03,
1.582,0.04,-0.04,0.97,-0.60,-0.21,-0.03,
1.585,0.05,-0.04,0.97,-0.60,-0.21,-0.03,
1.586,0.05,-0.04,0.97,-0.54,-0.20,-0.14,
1.588,0.05,-0.04,0.97,-0.54,-0.20,-0.14,
1.59,0.05,-0.04,0.96,-0.54,-0.20,-0.14,
1.591,0.05,-0.04,0.96,-0.47,-0.10,-0.19,
1.592,0.05,-0.04,0.96,-0.47,-0.10,-0.19,
1.595,0.05,-0.04,0.96,-0.47,-0.10,-0.19,
1.595,0.05,-0.04,0.96,-0.39,-0.10,-0.28,
1.597,0.05,-0.04,0.95,-0.39,-0.10,-0.28,
1.6,0.05,-0.05,0.95,-0.39,-0.10,-0.28,
1.6,0.05,-0.05,0.95,-0.39,-0.10,-0.32,
1.602,0.05,-0.05,0.94,-0.39,-0.10,-0.32,
1.612,0.05,-0.06,0.94,-0.39,-0.10,-0.32,
1.614,0.05,-0.06,0.94,-0.39,-0.16,-0.41,
1.614,0.05,-0.06,0.94,-0.39,-0.16,-0.41,
1.615,0.05,-0.06,0.94,-0.39,-0.16,-0.41,
1.615,0.05,-0.06,0.94,-0.42,-0.24,-0.48,
1.616,0.05,-0.06,0.94,-0.42,-0.24,-0.48,
1.617,0.05,-0.06,0.94,-0.42,-0.24,-0.48,
1.617,0.05,-0.06,0.94,-0.41,-0.30,-0.52,
1.618,0.05,-0.07,0.94,-0.41,-0.30,-0.52,
1.619,0.06,-0.07,0.94,-0.41,-0.30,-0.52,
1.62,0.06,-0.07,0.94,-0.42,-0.34,-0.51,
1.622,0.05,-0.07,0.93,-0.42,-0.34,-0.51,
1.624,0.06,-0.07,0.93,-0.42,-0.34,-0.51,
1.624,0.06,-0.07,0.93,-0.38,-0.40,-0.48,
1.627,0.06,-0.07,0.94,-0.38,-0.40,-0.48,
1.629,0.06,-0.08,0.94,-0.38,-0.40,-0.48,
1.629,0.06,-0.08,0.94,-0.38,-0.43,-0.53,
1.631,0.05,-0.07,0.94,-0.38,-0.43,-0.53,
1.634,0.06,-0.08,0.94,-0.38,-0.43,-0.53,
1.634,0.06,-0.08,0.94,-0.36,-0.43,-0.49,
1.639,0.06,-0.08,0.95,-0.36,-0.43,-0.49,
1.639,0.06,-0.08,0.95,-0.36,-0.43,-0.49,
1.639,0.06,-0.08,0.95,-0.42,-0.45,-0.45,
1.641,0.06,-0.08,0.95,-0.42,-0.45,-0.45,
1.644,0.06,-0.08,0.95,-0.42,-0.45,-0.45,
1.644,0.06,-0.08,0.95,-0.38,-0.48,-0.37,
1.646,0.06,-0.08,0.96,-0.38,-0.48,-0.37,
1.649,0.06,-0.08,0.95,-0.38,-0.48,-0.37,
1.649,0.06,-0.08,0.95,-0.39,-0.50,-0.37,
1.651,0.06,-0.08,0.95,-0.39,-0.50,-0.37,
1.655,0.06,-0.07,0.96,-0.39,-0.50,-0.37,
1.656,0.06,-0.07,0.96,-0.36,-0.49,-0.30,
1.657,0.07,-0.07,0.96,-0.36,-0.49,-0.30,
1.658,0.07,-0.07,0.95,-0.36,-0.49,-0.30,
1.659,0.07,-0.07,0.95,-0.37,-0.43,-0.30,
1.661,0.07,-0.06,0.96,-0.37,-0.43,-0.30,
1.663,0.07,-0.06,0.96,-0.37,-0.43,-0.30,
1.664,0.07,-0.06,0.96,-0.32,-0.36,-0.30,
1.666,0.08,-0.06,0.96,-0.32,-0.36,-0.30,
1.668,0.08,-0.06,0.97,-0.32,-0.36,-0.30,
1.669,0.08,-0.06,0.97,-0.32,-0.27,-0.26,
1.671,0.08,-0.05,0.96,-0.32,-0.27,-0.26,
1.673,0.08,-0.05,0.96,-0.32,-0.27,-0.26,
1.674,0.08,-0.05,0.96,-0.26,-0.24,-0.21,
1.676,0.08,-0.04,0.97,-0.26,-0.24,-0.21,
1.678,0.08,-0.05,0.97,-0.26,-0.24,-0.21,
1.678,0.08,-0.05,0.97,-0.24,-0.18,-0.20,
1.681,0.08,-0.05,0.96,-0.24,-0.18,-0.20,
1.683,0.08,-0.05,0.97,-0.24,-0.18,-0.20,
1.684,0.08,-0.05,0.97,-0.24,-0.14,-0.18,
1.686,0.09,-0.04,0.96,-0.24,-0.14,-0.18,
1.689,0.09,-0.04,0.96,-0.20,-0.14,-0.19,
1.69,0.09,-0.04,0.96,-0.20,-0.14,-0.19,
1.691,0.09,-0.05,0.96,-0.20,-0.14,-0.19,
1.693,0.09,-0.04,0.96,-0.20,-0.14,-0.19,
1.694,0.09,-0.04,0.96,-0.18,-0.09,-0.23,
1.696,0.08,-0.04,0.96,-0.18,-0.09,-0.23,
1.698,0.08,-0.04,0.96,-0.18,-0.09,-0.23,
1.698,0.08,-0.04,0.96,-0.19,-0.12,-0.22,
1.701,0.08,-0.04,0.95,-0.19,-0.12,-0.22,
1.703,0.08,-0.04,0.95,-0.19,-0.12,-0.22,
1.706,0.08,-0.04,0.95,-0.21,-0.06,-0.27,
1.707,0.07,-0.04,0.95,-0.21,-0.06,-0.27,
1.708,0.06,-0.04,0.95,-0.21,-0.06,-0.27,
1.709,0.06,-0.04,0.95,-0.25,-0.08,-0.30,
1.711,0.06,-0.04,0.94,-0.25,-0.08,-0.30,
1.714,0.06,-0.04,0.94,-0.25,-0.08,-0.30,
1.714,0.06,-0.04,0.94,-0.37,-0.09,-0.36,
1.716,0.05,-0.03,0.95,-0.37,-0.09,-0.36,
1.718,0.04,-0.03,0.95,-0.37,-0.09,-0.36,
1.719,0.04,-0.03,0.95,-0.47,-0.07,-0.39,
1.729,0.04,-0.03,0.95,-0.47,-0.07,-0.39,
1.73,0.04,-0.03,0.95,-0.59,-0.00,-0.34,
1.73,0.03,-0.03,0.95,-0.59,-0.00,-0.34,
1.731,0.01,-0.03,0.95,-0.59,-0.00,-0.34,
1.731,0.01,-0.02,0.96,-0.59,-0.00,-0.34,
1.731,0.01,-0.02,0.96,-0.70,0.03,-0.31,
1.732,-0.00,-0.02,0.96,-0.70,0.03,-0.31,
1.733,-0.00,-0.02,0.96,-0.70,0.03,-0.31,
1.734,-0.00,-0.02,0.96,-0.87,0.03,-0.24,
1.735,-0.01,-0.02,0.96,-0.87,0.03,-0.24,
1.742,-0.02,-0.02,0.97,-0.87,0.03,-0.24,
1.743,-0.02,-0.02,0.97,-1.02,0.07,-0.25,
1.744,-0.02,-0.01,0.97,-1.02,0.07,-0.25,
1.744,-0.02,-0.01,0.97,-1.02,0.07,-0.25,
1.744,-0.02,-0.01,0.97,-1.11,0.10,-0.18,
1.745,-0.03,-0.01,0.96,-1.11,0.10,-0.18,
1.747,-0.03,-0.01,0.96,-1.11,0.10,-0.18,
1.748,-0.03,-0.01,0.96,-1.16,0.16,-0.13,
1.75,-0.03,-0.01,0.96,-1.16,0.16,-0.13,
1.756,-0.02,-0.01,0.96,-1.16,0.16,-0.13,
1.756,-0.02,-0.01,0.96,-1.20,0.13,-0.20,
1.756,-0.02,-0.00,0.96,-1.20,0.13,-0.20,
1.758,-0.02,-0.01,0.96,-1.20,0.13,-0.20,
1.759,-0.02,-0.01,0.96,-1.15,0.17,-0.22,
1.76,-0.02,-0.00,0.95,-1.15,0.17,-0.22,
1.762,-0.01,0.00,0.95,-1.15,0.17,-0.22,
1.763,-0.01,0.00,0.95,-1.13,0.22,-0.22,
1.765,-0.01,-0.00,0.94,-1.13,0.22,-0.22,
1.767,-0.00,-0.01,0.94,-1.13,0.22,-0.22,
1.768,-0.00,-0.01,0.94,-1.04,0.25,-0.32,
1.771,-0.00,-0.00,0.94,-1.04,0.25,-0.32,
1.772,-0.01,-0.00,0.94,-1.04,0.25,-0.32,
1.773,-0.01,-0.00,0.94,-0.95,0.22,-0.37,
1.775,0.00,-0.01,0.93,-0.95,0.22,-0.37,
1.777,0.00,-0.01,0.93,-0.95,0.22,-0.37,
1.777,0.00,-0.01,0.93,-0.92,0.21,-0.42,
1.78,0.00,-0.02,0.93,-0.92,0.21,-0.42,
1.782,0.00,-0.02,0.92,-0.92,0.21,-0.42,
1.782,0.00,-0.02,0.92,-0.85,0.14,-0.48,
1.785,0.00,-0.02,0.92,-0.85,0.14,-0.48,
1.789,-0.00,-0.03,0.92,-0.85,0.14,-0.48,
1.789,-0.00,-0.03,0.92,-0.84,0.04,-0.53,
1.79,-0.00,-0.03,0.92,-0.84,0.04,-0.53,
1.792,-0.01,-0.03,0.92,-0.84,0.04,-0.53,
1.792,-0.01,-0.03,0.92,-0.84,0.02,-0.59,
1.795,-0.01,-0.04,0.92,-0.84,0.02,-0.59,
1.797,-0.01,-0.03,0.91,-0.84,0.02,-0.59,
1.797,-0.01,-0.03,0.91,-0.88,-0.06,-0.53,
1.8,-0.01,-0.04,0.92,-0.88,-0.06,-0.53,
1.802,-0.01,-0.03,0.93,-0.88,-0.06,-0.53,
1.803,-0.01,-0.03,0.93,-0.92,-0.10,-0.61,
1.805,-0.01,-0.04,0.93,-0.92,-0.10,-0.61,
1.807,-0.02,-0.04,0.94,-0.92,-0.10,-0.61,
1.808,-0.02,-0.04,0.94,-0.93,-0.09,-0.51,
1.81,-0.02,-0.04,0.94,-0.93,-0.09,-0.51,
1.812,-0.03,-0.04,0.95,-0.93,-0.09,-0.51,
1.819,-0.03,-0.04,0.95,-0.98,-0.09,-0.44,
1.819,-0.03,-0.04,0.95,-0.98,-0.09,-0.44,
1.82,-0.03,-0.03,0.96,-0.98,-0.09,-0.44,
1.821,-0.03,-0.03,0.96,-1.04,-0.10,-0.33,
1.822,-0.03,-0.03,0.96,-1.04,-0.10,-0.33,
1.823,-0.03,-0.03,0.97,-1.04,-0.10,-0.33,
1.824,-0.03,-0.03,0.97,-1.03,-0.07,-0.23,
1.824,-0.03,-0.03,0.98,-1.03,-0.07,-0.23,
1.833,-0.03,-0.03,0.98,-1.03,-0.07,-0.23,
1.834,-0.03,-0.03,0.98,-1.04,-0.03,-0.13,
1.835,-0.04,-0.03,0.99,-1.04,-0.03,-0.13,
1.835,-0.04,-0.03,1.00,-1.04,-0.03,-0.13,
1.835,-0.04,-0.03,1.00,-1.06,-0.02,0.03,
1.836,-0.05,-0.03,1.00,-1.06,-0.02,0.03,
1.837,-0.05,-0.03,1.00,-1.06,-0.02,0.03,
1.837,-0.05,-0.03,1.00,-1.11,-0.05,0.16,
1.848,-0.05,-0.03,1.01,-1.11,-0.05,0.16,
1.849,-0.06,-0.04,1.01,-1.11,-0.05,0.16,
1.849,-0.06,-0.04,1.01,-1.17,-0.03,0.25,
1.849,-0.06,-0.05,1.01,-1.17,-0.03,0.25,
1.851,-0.06,-0.04,1.00,-1.17,-0.03,0.25,
1.851,-0.06,-0.04,1.00,-1.22,-0.06,0.28,
1.851,-0.07,-0.05,1.00,-1.22,-0.06,0.28,
1.852,-0.07,-0.06,1.00,-1.22,-0.06,0.28,
1.852,-0.07,-0.06,1.00,-1.27,-0.13,0.29,
1.856,-0.07,-0.06,1.00,-1.27,-0.13,0.29,
1.856,-0.07,-0.06,0.99,-1.27,-0.13,0.29,
1.857,-0.07,-0.06,0.99,-1.32,-0.22,0.20,
1.859,-0.07,-0.07,0.99,-1.32,-0.22,0.20,
1.861,-0.07,-0.07,0.99,-1.32,-0.22,0.20,
1.862,-0.07,-0.07,0.99,-1.33,-0.27,0.20,
1.864,-0.06,-0.06,0.99,-1.33,-0.27,0.20,
1.867,-0.07,-0.07,0.99,-1.33,-0.27,0.20,
1.867,-0.07,-0.07,0.99,-1.28,-0.31,0.10,
1.87,-0.06,-0.06,0.99,-1.28,-0.31,0.10,
1.873,-0.05,-0.06,0.99,-1.28,-0.31,0.10,
1.874,-0.05,-0.06,0.99,-1.28,-0.28,0.12,
1.875,-0.05,-0.06,0.98,-1.28,-0.28,0.12,
1.876,-0.04,-0.06,0.98,-1.28,-0.28,0.12,
1.877,-0.04,-0.06,0.98,-1.18,-0.26,0.07,
1.879,-0.03,-0.06,0.99,-1.18,-0.26,0.07,
1.882,-0.02,-0.05,0.99,-1.18,-0.26,0.07,
1.882,-0.02,-0.05,0.99,-1.03,-0.21,0.03,
1.884,-0.00,-0.04,0.98,-1.03,-0.21,0.03,
1.887,0.01,-0.04,0.98,-1.03,-0.21,0.03,
1.887,0.01,-0.04,0.98,-0.82,-0.13,0.08,
1.889,0.02,-0.04,0.99,-0.82,-0.13,0.08,
1.892,0.02,-0.04,0.99,-0.59,-0.01,0.05,
1.892,0.02,-0.04,0.99,-0.59,-0.01,0.05,
1.894,0.04,-0.03,0.99,-0.59,-0.01,0.05,
1.897,0.05,-0.03,0.99,-0.59,-0.01,0.05,
1.897,0.05,-0.03,0.99,-0.38,0.02,0.13,
1.899,0.06,-0.03,1.00,-0.38,0.02,0.13,
1.902,0.06,-0.03,1.00,-0.13,0.09,0.11,
1.902,0.06,-0.03,1.00,-0.13,0.09,0.11,
1.904,0.07,-0.03,1.00,-0.13,0.09,0.11,
1.907,0.06,-0.03,1.00,-0.13,0.09,0.11,
1.907,0.06,-0.03,1.00,0.00,0.13,0.21,
1.909,0.06,-0.03,1.00,0.00,0.13,0.21,
1.912,0.06,-0.04,1.00,0.00,0.13,0.21,
1.912,0.06,-0.04,1.00,0.09,0.12,0.21,
1.914,0.05,-0.05,1.00,0.09,0.12,0.21,
1.917,0.05,-0.05,1.00,0.02,0.05,0.21,
1.917,0.05,-0.06,0.99,0.02,0.05,0.21,
1.919,0.04,-0.07,0.99,0.02,0.05,0.21,
1.923,0.03,-0.07,0.99,0.02,0.05,0.21,
1.924,0.03,-0.07,0.99,-0.05,-0.11,0.15,
1.924,0.03,-0.07,0.99,-0.05,-0.11,0.15,
1.926,0.03,-0.08,0.99,-0.05,-0.11,0.15,
1.927,0.03,-0.08,0.99,-0.18,-0.22,0.10,
1.93,0.03,-0.08,0.99,-0.18,-0.22,0.10,
1.932,0.02,-0.08,0.98,-0.18,-0.22,0.10,
1.932,0.02,-0.08,0.98,-0.23,-0.34,0.10,
1.934,0.02,-0.08,0.97,-0.23,-0.34,0.10,
1.937,0.01,-0.09,0.97,-0.23,-0.34,0.10,
1.937,0.01,-0.09,0.97,-0.27,-0.38,0.06,
1.944,0.02,-0.08,0.97,-0.27,-0.38,0.06,
1.945,0.02,-0.08,0.96,-0.27,-0.38,0.06,
1.945,0.02,-0.08,0.96,-0.34,-0.38,-0.06,
1.945,0.02,-0.07,0.95,-0.34,-0.38,-0.06,
1.947,0.02,-0.07,0.95,-0.34,-0.38,-0.06,
1.947,0.02,-0.07,0.95,-0.31,-0.33,-0.13,
1.948,0.02,-0.07,0.94,-0.31,-0.33,-0.13,
1.951,0.02,-0.07,0.93,-0.31,-0.33,-0.13,
1.951,0.02,-0.07,0.93,-0.31,-0.26,-0.27,
1.954,0.01,-0.07,0.92,-0.31,-0.26,-0.27,
1.957,0.01,-0.06,0.92,-0.31,-0.26,-0.27,
1.957,0.01,-0.06,0.92,-0.31,-0.21,-0.42,
1.958,0.01,-0.06,0.91,-0.31,-0.21,-0.42,
1.96,0.00,-0.05,0.91,-0.31,-0.21,-0.42,
1.961,0.00,-0.05,0.91,-0.35,-0.17,-0.57,
1.963,-0.00,-0.05,0.91,-0.35,-0.17,-0.57,
1.965,-0.01,-0.05,0.90,-0.35,-0.17,-0.57,
1.966,-0.01,-0.05,0.90,-0.39,-0.09,-0.66,
1.968,-0.02,-0.05,0.91,-0.39,-0.09,-0.66,
1.97,-0.02,-0.04,0.92,-0.39,-0.09,-0.66,
1.971,-0.02,-0.04,0.92,-0.49,-0.05,-0.69,
1.973,-0.02,-0.04,0.92,-0.49,-0.05,-0.69,
1.975,-0.03,-0.03,0.93,-0.49,-0.05,-0.69,
1.976,-0.03,-0.03,0.93,-0.59,0.04,-0.61,
1.979,-0.03,-0.03,0.95,-0.59,0.04,-0.61,
1.981,-0.03,-0.03,0.96,-0.59,0.04,-0.61,
1.981,-0.03,-0.03,0.96,-0.65,0.13,-0.50,
1.983,-0.03,-0.03,0.97,-0.65,0.13,-0.50,
1.985,-0.04,-0.02,0.97,-0.65,0.13,-0.50,
1.985,-0.04,-0.02,0.97,-0.70,0.18,-0.24,
1.989,-0.04,-0.03,0.98,-0.70,0.18,-0.24,
1.99,-0.05,-0.04,1.00,-0.70,0.18,-0.24,
1.99,-0.05,-0.04,1.00,-0.72,0.22,-0.09,
1.993,-0.05,-0.04,1.00,-0.72,0.22,-0.09,
1.995,-0.05,-0.04,1.02,-0.72,0.22,-0.09,
1.995,-0.05,-0.04,1.02,-0.77,0.14,0.13,
1.997,-0.06,-0.05,1.02,-0.77,0.14,0.13,
2.0,-0.06,-0.06,1.04,-0.77,0.14,0.13,
2.0,-0.06,-0.06,1.04,-0.82,0.10,0.32,
2.003,-0.07,-0.07,1.05,-0.82,0.10,0.32,
2.007,-0.07,-0.07,1.06,-0.82,0.10,0.32,
2.008,-0.07,-0.07,1.06,-0.90,-0.04,0.50,
2.009,-0.07,-0.08,1.06,-0.90,-0.04,0.50,
2.011,-0.07,-0.09,1.06,-0.90,-0.04,0.50,
2.011,-0.07,-0.09,1.06,-0.93,-0.15,0.72,
2.013,-0.07,-0.09,1.06,-0.93,-0.15,0.72,
2.015,-0.07,-0.09,1.07,-0.93,-0.15,0.72,
2.015,-0.07,-0.09,1.07,-0.94,-0.30,0.77,
2.018,-0.06,-0.09,1.07,-0.94,-0.30,0.77,
2.02,-0.05,-0.09,1.07,-0.94,-0.30,0.77,
2.02,-0.05,-0.09,1.07,-0.92,-0.35,0.84,
2.023,-0.05,-0.10,1.07,-0.92,-0.35,0.84,
2.025,-0.04,-0.09,1.07,-0.92,-0.35,0.84,
2.025,-0.04,-0.09,1.07,-0.79,-0.36,0.90,
2.027,-0.03,-0.09,1.07,-0.79,-0.36,0.90,
2.03,-0.02,-0.09,1.07,-0.79,-0.36,0.90,
2.03,-0.02,-0.09,1.07,-0.65,-0.36,0.91,
2.032,-0.01,-0.08,1.06,-0.65,-0.36,0.91,
2.035,-0.00,-0.08,1.05,-0.65,-0.36,0.91,
2.035,-0.00,-0.08,1.05,-0.49,-0.28,0.87,
2.037,0.01,-0.07,1.05,-0.49,-0.28,0.87,
2.048,0.01,-0.07,1.04,-0.49,-0.28,0.87,
2.049,0.01,-0.07,1.04,-0.29,-0.16,0.75,
2.049,0.02,-0.06,1.04,-0.29,-0.16,0.75,
2.05,0.02,-0.06,1.04,-0.14,-0.04,0.61,
2.05,0.02,-0.06,1.03,-0.14,-0.04,0.61,
2.051,0.02,-0.05,1.03,-0.14,-0.04,0.61,
2.051,0.02,-0.05,1.03,-0.14,-0.04,0.61,
2.052,0.02,-0.05,1.03,-0.05,0.05,0.50,
2.053,0.02,-0.04,1.02,-0.05,0.05,0.50,
2.065,0.02,-0.04,1.02,-0.05,0.05,0.50,
2.066,0.02,-0.04,1.02,-0.04,0.16,0.44,
2.066,0.01,-0.04,1.01,-0.04,0.16,0.44,
2.067,0.01,-0.04,1.00,-0.04,0.16,0.44,
2.067,0.01,-0.04,1.00,-0.07,0.23,0.34,
2.068,-0.00,-0.04,1.00,-0.07,0.23,0.34,
2.068,-0.01,-0.03,1.00,-0.07,0.23,0.34,
2.068,-0.01,-0.03,1.00,-0.13,0.26,0.23,
2.068,-0.01,-0.03,1.00,-0.13,0.26,0.23,
2.07,-0.01,-0.03,1.00,-0.26,0.34,0.18,
2.07,-0.02,-0.03,1.01,-0.26,0.34,0.18,
2.073,-0.03,-0.03,1.01,-0.26,0.34,0.18,
2.074,-0.03,-0.03,1.01,-0.26,0.34,0.18,
2.076,-0.03,-0.03,1.01,-0.38,0.37,0.19,
2.077,-0.05,-0.03,1.01,-0.38,0.37,0.19,
2.079,-0.05,-0.04,1.01,-0.38,0.37,0.19,
2.08,-0.05,-0.04,1.01,-0.50,0.35,0.23,
2.082,-0.05,-0.04,1.00,-0.50,0.35,0.23,
2.085,-0.06,-0.04,1.01,-0.50,0.35,0.23,
2.086,-0.06,-0.04,1.01,-0.66,0.34,0.25,
2.088,-0.07,-0.05,1.01,-0.66,0.34,0.25,
2.09,-0.07,-0.05,1.00,-0.66,0.34,0.25,
2.091,-0.07,-0.05,1.00,-0.75,0.29,0.21,
2.092,-0.08,-0.06,0.99,-0.75,0.29,0.21,
2.094,-0.08,-0.06,0.99,-0.75,0.29,0.21,
2.094,-0.08,-0.06,0.99,-0.86,0.17,0.18,
2.097,-0.08,-0.07,0.99,-0.86,0.17,0.18,
2.101,-0.08,-0.08,0.99,-0.86,0.17,0.18,
2.101,-0.08,-0.08,0.99,-0.93,0.08,0.08,
2.102,-0.08,-0.08,0.98,-0.93,0.08,0.08,
2.104,-0.08,-0.08,0.98,-0.93,0.08,0.08,
2.105,-0.08,-0.08,0.98,-0.95,-0.06,0.08,
2.107,-0.08,-0.09,0.98,-0.95,-0.06,0.08,
2.109,-0.08,-0.09,0.97,-0.95,-0.06,0.08,
2.11,-0.08,-0.09,0.97,-0.93,-0.13,-0.01,
2.112,-0.08,-0.09,0.97,-0.93,-0.13,-0.01,
2.115,-0.08,-0.10,0.97,-0.93,-0.13,-0.01,
2.115,-0.08,-0.10,0.97,-0.91,-0.21,-0.08,
2.117,-0.08,-0.11,0.97,-0.91,-0.21,-0.08,
2.12,-0.08,-0.11,0.96,-0.91,-0.21,-0.08,
2.12,-0.08,-0.11,0.96,-0.85,-0.26,-0.14,
2.122,-0.08,-0.12,0.96,-0.85,-0.26,-0.14,
2.127,-0.08,-0.12,0.96,-0.85,-0.26,-0.14,
2.128,-0.08,-0.12,0.96,-0.85,-0.38,-0.18,
2.128,-0.08,-0.12,0.95,-0.85,-0.38,-0.18,
2.129,-0.09,-0.12,0.95,-0.85,-0.38,-0.18,
2.129,-0.09,-0.12,0.95,-0.84,-0.44,-0.24,
2.132,-0.09,-0.12,0.95,-0.84,-0.44,-0.24,
2.134,-0.09,-0.13,0.94,-0.84,-0.44,-0.24,
2.135,-0.09,-0.13,0.94,-0.87,-0.48,-0.33,
2.137,-0.09,-0.12,0.94,-0.87,-0.48,-0.33,
2.14,-0.10,-0.13,0.94,-0.87,-0.48,-0.33,
2.141,-0.10,-0.13,0.94,-0.90,-0.49,-0.35,
2.142,-0.10,-0.13,0.94,-0.90,-0.49,-0.35,
2.144,-0.10,-0.13,0.93,-0.90,-0.49,-0.35,
2.144,-0.10,-0.13,0.93,-0.94,-0.52,-0.40,
2.147,-0.10,-0.13,0.93,-0.94,-0.52,-0.40,
2.15,-0.10,-0.13,0.93,-0.99,-0.53,-0.47,
2.15,-0.10,-0.13,0.93,-0.99,-0.53,-0.47,
2.152,-0.11,-0.13,0.92,-0.99,-0.53,-0.47,
2.155,-0.11,-0.12,0.92,-0.99,-0.53,-0.47,
2.155,-0.11,-0.12,0.92,-0.97,-0.54,-0.51,
2.161,-0.11,-0.13,0.91,-0.97,-0.54,-0.51,
2.161,-0.11,-0.13,0.91,-1.02,-0.50,-0.63,
2.161,-0.11,-0.12,0.90,-1.02,-0.50,-0.63,
2.162,-0.11,-0.12,0.90,-1.02,-0.50,-0.63,
2.164,-0.11,-0.12,0.89,-1.02,-0.50,-0.63,
2.165,-0.11,-0.12,0.89,-1.03,-0.49,-0.73,
2.167,-0.11,-0.11,0.89,-1.03,-0.49,-0.73,
2.169,-0.11,-0.11,0.89,-1.03,-0.49,-0.73,
2.169,-0.11,-0.11,0.89,-1.05,-0.42,-0.87,
2.172,-0.11,-0.11,0.89,-1.05,-0.42,-0.87,
2.174,-0.11,-0.11,0.90,-1.05,-0.42,-0.87,
2.174,-0.11,-0.11,0.90,-1.01,-0.36,-0.90,
2.176,-0.11,-0.11,0.91,-1.01,-0.36,-0.90,
2.179,-0.11,-0.11,0.91,-1.01,-0.36,-0.90,
2.179,-0.11,-0.11,0.91,-0.96,-0.32,-0.80,
2.182,-0.11,-0.11,0.91,-0.96,-0.32,-0.80,
2.184,-0.10,-0.10,0.91,-0.96,-0.32,-0.80,
2.184,-0.10,-0.10,0.91,-0.95,-0.31,-0.70,
2.187,-0.10,-0.11,0.91,-0.95,-0.31,-0.70,
2.189,-0.10,-0.11,0.92,-0.95,-0.31,-0.70,
2.189,-0.10,-0.11,0.92,-0.90,-0.25,-0.69,
2.191,-0.10,-0.11,0.93,-0.90,-0.25,-0.69,
2.194,-0.11,-0.10,0.94,-0.90,-0.25,-0.69,
2.194,-0.11,-0.10,0.94,-0.82,-0.28,-0.61,
2.196,-0.11,-0.11,0.96,-0.82,-0.28,-0.61,
2.199,-0.11,-0.11,0.96,-0.82,-0.28,-0.61,
2.199,-0.11,-0.11,0.96,-0.86,-0.23,-0.42,
2.202,-0.11,-0.10,0.96,-0.86,-0.23,-0.42,
2.204,-0.10,-0.10,0.98,-0.86,-0.23,-0.42,
2.204,-0.10,-0.10,0.98,-0.88,-0.27,-0.19,
2.206,-0.10,-0.09,0.99,-0.88,-0.27,-0.19,
2.209,-0.10,-0.09,1.00,-0.88,-0.27,-0.19,
2.209,-0.10,-0.09,1.00,-0.85,-0.19,-0.05,
2.212,-0.10,-0.08,1.00,-0.85,-0.19,-0.05,
2.213,-0.10,-0.08,1.01,-0.85,-0.19,-0.05,
2.214,-0.10,-0.08,1.01,-0.72,-0.07,0.18,
2.217,-0.09,-0.07,1.02,-0.72,-0.07,0.18,
2.219,-0.09,-0.08,1.02,-0.72,-0.07,0.18,
2.219,-0.09,-0.08,1.02,-0.69,0.04,0.32,
2.222,-0.09,-0.07,1.03,-0.69,0.04,0.32,
2.225,-0.10,-0.07,1.02,-0.69,0.04,0.32,
2.225,-0.10,-0.07,1.02,-0.63,0.09,0.43,
2.226,-0.10,-0.08,1.03,-0.63,0.09,0.43,
2.228,-0.11,-0.08,1.03,-0.63,0.09,0.43,
2.229,-0.11,-0.08,1.03,-0.64,0.10,0.47,
2.231,-0.11,-0.08,1.04,-0.64,0.10,0.47,
2.234,-0.11,-0.07,1.04,-0.64,0.10,0.47,
2.234,-0.11,-0.07,1.04,-0.68,0.04,0.53,
2.237,-0.11,-0.07,1.04,-0.68,0.04,0.53,
2.239,-0.11,-0.07,1.04,-0.68,0.04,0.53,
2.239,-0.11,-0.07,1.04,-0.72,0.07,0.59,
2.242,-0.12,-0.08,1.04,-0.72,0.07,0.59,
2.243,-0.11,-0.08,1.03,-0.72,0.07,0.59,
2.243,-0.11,-0.08,1.03,-0.68,0.10,0.58,
2.246,-0.11,-0.08,1.03,-0.68,0.10,0.58,
2.249,-0.11,-0.08,1.03,-0.68,0.04,0.57,
2.249,-0.11,-0.08,1.03,-0.68,0.04,0.57,
2.251,-0.11,-0.08,1.02,-0.68,0.04,0.57,
2.254,-0.10,-0.09,1.02,-0.68,0.04,0.57,
2.254,-0.10,-0.09,1.02,-0.63,0.04,0.49,
2.259,-0.10,-0.10,1.01,-0.63,0.04,0.49,
2.26,-0.10,-0.10,1.02,-0.63,0.04,0.49,
2.26,-0.10,-0.10,1.02,-0.56,-0.03,0.42,
2.26,-0.09,-0.11,1.02,-0.56,-0.03,0.42,
2.263,-0.09,-0.11,1.01,-0.56,-0.03,0.42,
2.264,-0.09,-0.11,1.01,-0.51,-0.17,0.35,
2.265,-0.08,-0.12,1.01,-0.51,-0.17,0.35,
2.269,-0.07,-0.12,1.01,-0.51,-0.17,0.35,
2.269,-0.07,-0.12,1.01,-0.42,-0.31,0.34,
2.27,-0.07,-0.12,1.01,-0.42,-0.31,0.34,
2.28,-0.06,-0.12,1.01,-0.42,-0.31,0.34,
2.281,-0.06,-0.12,1.01,-0.27,-0.36,0.31,
2.281,-0.05,-0.13,1.00,-0.27,-0.36,0.31,
2.282,-0.05,-0.12,1.01,-0.27,-0.36,0.31,
2.282,-0.05,-0.12,1.01,-0.13,-0.35,0.30,
2.282,-0.04,-0.12,1.02,-0.13,-0.35,0.30,
2.282,-0.03,-0.12,1.02,-0.13,-0.35,0.30,
2.283,-0.03,-0.12,1.02,0.04,-0.41,0.26,
2.285,-0.03,-0.12,1.03,0.04,-0.41,0.26,
2.287,-0.03,-0.11,1.05,0.04,-0.41,0.26,
2.287,-0.03,-0.11,1.05,0.19,-0.37,0.38,
2.294,-0.02,-0.11,1.06,0.19,-0.37,0.38,
2.295,-0.01,-0.10,1.06,0.19,-0.37,0.38,
2.295,-0.01,-0.10,1.06,0.28,-0.29,0.59,
2.295,-0.01,-0.09,1.07,0.28,-0.29,0.59,
2.297,-0.01,-0.09,1.06,0.28,-0.29,0.59,
2.297,-0.01,-0.09,1.06,0.38,-0.21,0.80,
2.299,-0.01,-0.09,1.07,0.38,-0.21,0.80,
2.303,-0.01,-0.09,1.08,0.38,-0.21,0.80,
2.303,-0.01,-0.09,1.08,0.48,-0.05,0.83,
2.305,-0.01,-0.08,1.08,0.48,-0.05,0.83,
2.309,-0.01,-0.08,1.08,0.48,-0.05,0.83,
2.316,-0.01,-0.08,1.08,0.49,0.02,0.91,
2.316,-0.01,-0.08,1.08,0.49,0.02,0.91,
2.317,-0.02,-0.07,1.08,0.49,0.02,0.91,
2.317,-0.02,-0.07,1.08,0.47,0.10,0.95,
2.317,-0.03,-0.08,1.08,0.47,0.10,0.95,
2.318,-0.03,-0.07,1.09,0.47,0.10,0.95,
2.318,-0.03,-0.07,1.09,0.43,0.16,0.98,
2.319,-0.04,-0.07,1.09,0.43,0.16,0.98,
2.322,-0.05,-0.07,1.08,0.43,0.16,0.98,
2.322,-0.05,-0.07,1.08,0.31,0.17,0.98,
2.325,-0.06,-0.07,1.08,0.31,0.17,0.98,
2.327,-0.07,-0.06,1.08,0.31,0.17,0.98,
2.327,-0.07,-0.06,1.08,0.15,0.24,0.97,
2.331,-0.08,-0.07,1.07,0.15,0.24,0.97,
2.332,-0.08,-0.07,1.08,0.15,0.24,0.97,
2.332,-0.08,-0.07,1.08,-0.00,0.26,0.93,
2.334,-0.10,-0.07,1.09,-0.00,0.26,0.93,
2.337,-0.10,-0.08,1.09,-0.00,0.26,0.93,
2.337,-0.10,-0.08,1.09,-0.14,0.21,0.89,
2.34,-0.11,-0.08,1.09,-0.14,0.21,0.89,
2.342,-0.11,-0.08,1.09,-0.14,0.21,0.89,
2.342,-0.11,-0.08,1.09,-0.32,0.16,0.98,
2.344,-0.11,-0.08,1.09,-0.32,0.16,0.98,
2.347,-0.12,-0.08,1.09,-0.32,0.16,0.98,
2.348,-0.12,-0.08,1.09,-0.40,0.08,1.00,
2.35,-0.12,-0.08,1.08,-0.40,0.08,1.00,
2.352,-0.12,-0.08,1.08,-0.40,0.08,1.00,
2.352,-0.12,-0.08,1.08,-0.43,0.09,0.98,
2.355,-0.11,-0.08,1.08,-0.43,0.09,0.98,
2.363,-0.11,-0.08,1.07,-0.43,0.09,0.98,
2.363,-0.11,-0.08,1.07,-0.44,0.05,0.88,
2.364,-0.11,-0.09,1.06,-0.44,0.05,0.88,
2.364,-0.11,-0.09,1.06,-0.44,0.05,0.88,
2.364,-0.11,-0.09,1.06,-0.40,0.04,0.83,
2.364,-0.11,-0.09,1.05,-0.40,0.04,0.83,
2.367,-0.11,-0.09,1.05,-0.40,0.04,0.83,
2.367,-0.11,-0.09,1.05,-0.38,-0.00,0.68,
2.369,-0.11,-0.10,1.04,-0.38,-0.00,0.68,
2.372,-0.11,-0.10,1.04,-0.34,-0.03,0.58,
2.372,-0.12,-0.10,1.04,-0.34,-0.03,0.58,
2.374,-0.11,-0.10,1.02,-0.34,-0.03,0.58,
2.376,-0.12,-0.10,1.02,-0.34,-0.03,0.58,
2.376,-0.12,-0.10,1.02,-0.35,-0.10,0.47,
2.379,-0.11,-0.11,1.01,-0.35,-0.10,0.47,
2.382,-0.12,-0.11,1.01,-0.35,-0.10,0.47,
2.382,-0.12,-0.11,1.01,-0.35,-0.15,0.27,
2.384,-0.12,-0.11,1.00,-0.35,-0.15,0.27,
2.387,-0.12,-0.11,1.00,-0.35,-0.15,0.27,
2.387,-0.12,-0.11,1.00,-0.34,-0.21,0.18,
2.389,-0.12,-0.11,0.99,-0.34,-0.21,0.18,
2.392,-0.12,-0.11,0.99,-0.34,-0.21,0.18,
2.393,-0.12,-0.11,0.99,-0.37,-0.22,0.06,
2.394,-0.11,-0.11,0.98,-0.37,-0.22,0.06,
2.396,-0.11,-0.11,0.98,-0.36,-0.26,-0.02,
2.397,-0.11,-0.12,0.98,-0.36,-0.26,-0.02,
2.399,-0.12,-0.12,0.98,-0.36,-0.26,-0.02,
2.402,-0.12,-0.12,0.98,-0.36,-0.26,-0.02,
2.402,-0.12,-0.12,0.98,-0.29,-0.28,-0.08,
2.404,-0.12,-0.12,0.98,-0.29,-0.28,-0.08,
2.409,-0.12,-0.12,0.98,-0.32,-0.34,-0.14,
2.409,-0.12,-0.12,0.97,-0.32,-0.34,-0.14,
2.409,-0.12,-0.13,0.97,-0.32,-0.34,-0.14,
2.411,-0.13,-0.12,0.97,-0.32,-0.34,-0.14,
2.411,-0.13,-0.12,0.97,-0.33,-0.34,-0.15,
2.414,-0.13,-0.12,0.98,-0.33,-0.34,-0.15,
2.417,-0.13,-0.12,0.98,-0.36,-0.41,-0.19,
2.417,-0.13,-0.12,0.98,-0.36,-0.41,-0.19,
2.419,-0.13,-0.12,0.99,-0.36,-0.41,-0.19,
2.421,-0.13,-0.12,0.98,-0.36,-0.41,-0.19,
2.422,-0.13,-0.12,0.98,-0.39,-0.36,-0.08,
2.424,-0.13,-0.12,0.99,-0.39,-0.36,-0.08,
2.426,-0.13,-0.12,0.99,-0.40,-0.33,-0.04,
2.427,-0.13,-0.12,1.00,-0.40,-0.33,-0.04,
2.428,-0.14,-0.11,0.99,-0.40,-0.33,-0.04,
2.432,-0.14,-0.11,1.00,-0.40,-0.33,-0.04,
2.432,-0.14,-0.11,1.00,-0.38,-0.30,0.04,
2.434,-0.14,-0.11,1.00,-0.38,-0.30,0.04,
2.436,-0.14,-0.11,1.00,-0.38,-0.30,0.04,
2.437,-0.14,-0.11,1.00,-0.44,-0.25,0.04,
2.439,-0.14,-0.11,1.00,-0.44,-0.25,0.04,
2.443,-0.14,-0.11,1.00,-0.44,-0.25,0.04,
2.444,-0.14,-0.11,1.00,-0.47,-0.22,0.09,
2.444,-0.14,-0.10,1.00,-0.47,-0.22,0.09,
2.446,-0.14,-0.10,1.00,-0.47,-0.22,0.09,
2.446,-0.14,-0.10,1.00,-0.49,-0.20,0.08,
2.449,-0.14,-0.10,1.00,-0.49,-0.20,0.08,
2.45,-0.14,-0.10,1.00,-0.49,-0.20,0.08,
2.451,-0.14,-0.10,1.00,-0.50,-0.10,0.08,
2.454,-0.15,-0.09,1.00,-0.50,-0.10,0.08,
2.455,-0.15,-0.09,0.99,-0.50,-0.10,0.08,
2.456,-0.15,-0.09,0.99,-0.51,-0.05,0.10,
2.459,-0.15,-0.09,0.99,-0.51,-0.05,0.10,
2.461,-0.15,-0.09,0.99,-0.51,-0.05,0.10,
2.461,-0.15,-0.09,0.99,-0.54,0.02,0.03,
2.463,-0.15,-0.09,0.99,-0.54,0.02,0.03,
2.465,-0.15,-0.09,1.00,-0.54,0.02,0.03,
2.466,-0.15,-0.09,1.00,-0.57,0.04,-0.03,
2.468,-0.15,-0.10,1.00,-0.57,0.04,-0.03,
2.47,-0.15,-0.10,0.99,-0.57,0.04,-0.03,
2.471,-0.15,-0.10,0.99,-0.58,0.03,0.04,
2.473,-0.16,-0.10,1.00,-0.58,0.03,0.04,
2.476,-0.16,-0.10,1.00,-0.58,0.03,0.04,
2.476,-0.16,-0.10,1.00,-0.59,-0.04,0.05,
2.478,-0.16,-0.10,0.99,-0.59,-0.04,0.05,
2.48,-0.16,-0.11,0.99,-0.59,-0.04,0.05,
2.48,-0.16,-0.11,0.99,-0.60,-0.08,0.06,
2.482,-0.15,-0.11,0.99,-0.60,-0.08,0.06,
2.485,-0.16,-0.11,0.98,-0.60,-0.08,0.06,
2.485,-0.16,-0.11,0.98,-0.61,-0.11,-0.00,
2.488,-0.16,-0.11,0.98,-0.61,-0.11,-0.00,
2.497,-0.17,-0.12,0.98,-0.61,-0.11,-0.00,
2.498,-0.17,-0.12,0.98,-0.57,-0.15,-0.06,
2.498,-0.16,-0.12,0.98,-0.57,-0.15,-0.06,
2.498,-0.17,-0.12,0.98,-0.57,-0.15,-0.06,
2.498,-0.17,-0.12,0.98,-0.65,-0.21,-0.09,
2.499,-0.17,-0.12,0.98,-0.65,-0.21,-0.09,
2.5,-0.18,-0.12,0.97,-0.65,-0.21,-0.09,
2.501,-0.18,-0.12,0.97,-0.64,-0.23,-0.09,
2.503,-0.18,-0.12,0.97,-0.64,-0.23,-0.09,
2.506,-0.18,-0.12,0.97,-0.64,-0.23,-0.09,
2.506,-0.18,-0.12,0.97,-0.69,-0.27,-0.12,
2.509,-0.18,-0.12,0.97,-0.69,-0.27,-0.12,
2.511,-0.18,-0.12,0.98,-0.69,-0.27,-0.12,
2.511,-0.18,-0.12,0.98,-0.71,-0.25,-0.17,
2.513,-0.18,-0.12,0.97,-0.71,-0.25,-0.17,
2.515,-0.18,-0.12,0.98,-0.71,-0.25,-0.17,
2.516,-0.18,-0.12,0.98,-0.73,-0.27,-0.15,
2.518,-0.18,-0.12,0.98,-0.73,-0.27,-0.15,
2.521,-0.18,-0.12,0.99,-0.73,-0.27,-0.15,
2.521,-0.18,-0.12,0.99,-0.76,-0.23,-0.13,
2.523,-0.18,-0.11,1.00,-0.76,-0.23,-0.13,
2.526,-0.18,-0.11,1.01,-0.76,-0.23,-0.13,
2.526,-0.18,-0.11,1.01,-0.72,-0.23,-0.01,
2.528,-0.18,-0.11,1.02,-0.72,-0.23,-0.01,
2.53,-0.17,-0.10,1.02,-0.72,-0.23,-0.01,
2.531,-0.17,-0.10,1.02,-0.72,-0.16,0.14,
2.533,-0.17,-0.10,1.02,-0.72,-0.16,0.14,
2.535,-0.17,-0.10,1.02,-0.65,-0.08,0.26,
2.536,-0.16,-0.09,1.03,-0.65,-0.08,0.26,
2.538,-0.15,-0.09,1.03,-0.65,-0.08,0.26,
2.54,-0.15,-0.09,1.03,-0.65,-0.08,0.26,
2.541,-0.15,-0.09,1.03,-0.53,0.03,0.35,
2.543,-0.14,-0.08,1.03,-0.53,0.03,0.35,
2.545,-0.14,-0.08,1.04,-0.53,0.03,0.35,
2.546,-0.14,-0.08,1.04,-0.42,0.11,0.41,
2.547,-0.13,-0.08,1.05,-0.42,0.11,0.41,
2.55,-0.13,-0.08,1.06,-0.42,0.11,0.41,
2.551,-0.13,-0.08,1.06,-0.33,0.17,0.46,
2.553,-0.12,-0.08,1.06,-0.33,0.17,0.46,
2.556,-0.12,-0.08,1.07,-0.33,0.17,0.46,
2.556,-0.12,-0.08,1.07,-0.25,0.23,0.60,
2.558,-0.13,-0.08,1.08,-0.25,0.23,0.60,
2.562,-0.13,-0.08,1.09,-0.25,0.23,0.60,
2.563,-0.13,-0.08,1.09,-0.17,0.24,0.77,
2.563,-0.13,-0.09,1.09,-0.17,0.24,0.77,
2.566,-0.13,-0.09,1.09,-0.20,0.22,0.91,
2.566,-0.13,-0.09,1.09,-0.20,0.22,0.91,
2.568,-0.14,-0.09,1.09,-0.20,0.22,0.91,
2.57,-0.13,-0.09,1.08,-0.20,0.22,0.91,
2.571,-0.13,-0.09,1.08,-0.21,0.17,0.94,
2.573,-0.13,-0.09,1.07,-0.21,0.17,0.94,
2.575,-0.14,-0.09,1.07,-0.21,0.17,0.94,
2.575,-0.14,-0.09,1.07,-0.24,0.13,0.89,
2.578,-0.13,-0.09,1.08,-0.24,0.13,0.89,
2.579,-0.13,-0.09,1.07,-0.24,0.13,0.89,
2.58,-0.13,-0.09,1.07,-0.26,0.14,0.79,
2.582,-0.13,-0.08,1.06,-0.26,0.14,0.79,
2.585,-0.12,-0.08,1.06,-0.26,0.14,0.79,
2.585,-0.12,-0.08,1.06,-0.19,0.14,0.77,
2.587,-0.12,-0.08,1.05,-0.19,0.14,0.77,
2.589,-0.13,-0.08,1.05,-0.19,0.14,0.77,
2.59,-0.13,-0.08,1.05,-0.12,0.20,0.64,
2.598,-0.13,-0.07,1.04,-0.12,0.20,0.64,
2.599,-0.13,-0.07,1.03,-0.12,0.20,0.64,
2.599,-0.13,-0.07,1.03,-0.14,0.20,0.55,
2.6,-0.14,-0.07,1.03,-0.14,0.20,0.55,
2.6,-0.14,-0.07,1.02,-0.14,0.20,0.55,
2.6,-0.14,-0.07,1.02,-0.17,0.29,0.37,
2.602,-0.15,-0.07,1.01,-0.17,0.29,0.37,
2.604,-0.15,-0.06,1.01,-0.17,0.29,0.37,
2.604,-0.15,-0.06,1.01,-0.25,0.27,0.24,
2.613,-0.15,-0.06,1.00,-0.25,0.27,0.24,
2.614,-0.15,-0.07,1.00,-0.25,0.27,0.24,
2.614,-0.15,-0.07,1.00,-0.34,0.32,0.14,
2.615,-0.15,-0.07,1.00,-0.34,0.32,0.14,
2.615,-0.15,-0.08,1.00,-0.34,0.32,0.14,
2.615,-0.15,-0.08,1.00,-0.35,0.32,0.05,
2.616,-0.15,-0.08,0.99,-0.35,0.32,0.05,
2.619,-0.15,-0.09,0.99,-0.35,0.32,0.05,
2.619,-0.15,-0.09,0.99,-0.32,0.24,-0.00,
2.621,-0.15,-0.09,0.98,-0.32,0.24,-0.00,
2.625,-0.14,-0.10,0.99,-0.32,0.24,-0.00,
2.626,-0.14,-0.10,0.99,-0.29,0.14,-0.06,
2.627,-0.14,-0.10,0.99,-0.29,0.14,-0.06,
2.629,-0.13,-0.10,0.98,-0.29,0.14,-0.06,
2.629,-0.13,-0.10,0.98,-0.23,-0.01,-0.10,
2.632,-0.13,-0.10,0.99,-0.23,-0.01,-0.10,
2.634,-0.13,-0.11,0.98,-0.23,-0.01,-0.10,
2.634,-0.13,-0.11,0.98,-0.15,-0.04,-0.10,
2.636,-0.12,-0.11,0.99,-0.15,-0.04,-0.10,
2.641,-0.12,-0.12,0.99,-0.15,-0.04,-0.10,
2.642,-0.12,-0.12,0.99,-0.09,-0.11,-0.11,
2.642,-0.11,-0.12,1.00,-0.09,-0.11,-0.11,
2.647,-0.11,-0.12,1.00,-0.09,-0.11,-0.11,
2.648,-0.11,-0.12,1.00,0.01,-0.18,-0.05,
2.649,-0.11,-0.11,1.00,0.01,-0.18,-0.05,
2.649,-0.10,-0.12,1.01,0.01,-0.18,-0.05,
2.65,-0.10,-0.12,1.01,0.08,-0.21,0.03,
2.652,-0.09,-0.11,1.00,0.08,-0.21,0.03,
2.654,-0.09,-0.12,1.01,0.08,-0.21,0.03,
2.654,-0.09,-0.12,1.01,0.18,-0.18,0.08,
2.658,-0.09,-0.11,1.01,0.18,-0.18,0.08,
2.659,-0.08,-0.11,1.02,0.18,-0.18,0.08,
2.659,-0.08,-0.11,1.02,0.27,-0.16,0.11,
2.662,-0.08,-0.11,1.02,0.27,-0.16,0.11,
2.664,-0.08,-0.11,1.02,0.27,-0.16,0.11,
2.664,-0.08,-0.11,1.02,0.35,-0.12,0.21,
2.667,-0.07,-0.11,1.02,0.35,-0.12,0.21,
2.669,-0.06,-0.10,1.03,0.35,-0.12,0.21,
2.669,-0.06,-0.10,1.03,0.43,-0.09,0.26,
2.672,-0.06,-0.10,1.03,0.43,-0.09,0.26,
2.674,-0.05,-0.10,1.03,0.43,-0.09,0.26,
2.674,-0.05,-0.10,1.03,0.51,-0.06,0.31,
2.676,-0.05,-0.10,1.03,0.51,-0.06,0.31,
2.679,-0.05,-0.10,1.02,0.51,-0.06,0.31,
2.679,-0.05,-0.10,1.02,0.63,0.00,0.29,
2.681,-0.05,-0.10,1.02,0.63,0.00,0.29,
2.684,-0.04,-0.09,1.02,0.63,0.00,0.29,
2.684,-0.04,-0.09,1.02,0.68,0.04,0.29,
2.687,-0.04,-0.09,1.01,0.68,0.04,0.29,
2.689,-0.04,-0.09,1.01,0.68,0.04,0.29,
2.689,-0.04,-0.09,1.01,0.72,0.05,0.21,
2.693,-0.03,-0.08,1.00,0.72,0.05,0.21,
2.694,-0.03,-0.08,1.00,0.72,0.05,0.21,
2.694,-0.03,-0.08,1.00,0.77,0.11,0.15,
2.696,-0.03,-0.08,1.00,0.77,0.11,0.15,
2.699,-0.02,-0.07,0.99,0.77,0.11,0.15,
2.699,-0.02,-0.07,0.99,0.83,0.23,0.03,
2.702,-0.02,-0.06,0.98,0.83,0.23,0.03,
2.704,-0.02,-0.06,0.98,0.83,0.23,0.03,
2.704,-0.02,-0.06,0.98,0.94,0.28,-0.01,
2.707,-0.01,-0.05,0.98,0.94,0.28,-0.01,
2.714,-0.01,-0.05,0.98,0.94,0.28,-0.01,
2.715,-0.01,-0.05,0.98,1.00,0.38,-0.16,
2.715,-0.02,-0.04,0.97,1.00,0.38,-0.16,
2.716,-0.01,-0.04,0.97,1.00,0.38,-0.16,
2.716,-0.01,-0.04,0.97,1.04,0.49,-0.15,
2.716,-0.01,-0.04,0.98,1.04,0.49,-0.15,
2.718,-0.01,-0.03,0.98,1.04,0.49,-0.15,
2.719,-0.01,-0.03,0.98,1.02,0.58,-0.23,
2.721,-0.01,-0.03,0.99,1.02,0.58,-0.23,
2.724,-0.01,-0.03,0.99,1.02,0.58,-0.23,
2.724,-0.01,-0.03,0.99,1.05,0.64,-0.13,
2.731,-0.01,-0.04,1.00,1.05,0.64,-0.13,
2.732,-0.01,-0.04,1.00,1.05,0.64,-0.13,
2.732,-0.01,-0.04,1.00,1.04,0.66,-0.04,
2.732,-0.01,-0.04,1.01,1.04,0.66,-0.04,
2.733,-0.01,-0.04,1.02,1.04,0.66,-0.04,
2.733,-0.01,-0.04,1.02,1.04,0.59,0.04,
2.736,-0.01,-0.05,1.03,1.04,0.59,0.04,
2.738,-0.02,-0.06,1.04,1.04,0.59,0.04,
2.739,-0.02,-0.06,1.04,1.04,0.55,0.21,
2.741,-0.02,-0.06,1.04,1.04,0.55,0.21,
2.744,-0.02,-0.06,1.06,1.04,0.55,0.21,
2.744,-0.02,-0.06,1.06,1.01,0.46,0.36,
2.746,-0.01,-0.07,1.06,1.01,0.46,0.36,
2.748,-0.02,-0.07,1.07,1.01,0.46,0.36,
2.749,-0.02,-0.07,1.07,1.00,0.37,0.54,
2.751,-0.02,-0.07,1.08,1.00,0.37,0.54,
2.753,-0.02,-0.07,1.08,1.00,0.37,0.54,
2.753,-0.02,-0.07,1.08,1.01,0.32,0.69,
2.756,-0.01,-0.08,1.09,1.01,0.32,0.69,
2.76,-0.02,-0.08,1.09,1.01,0.32,0.69,
2.761,-0.02,-0.08,1.09,0.97,0.28,0.84,
2.761,-0.02,-0.08,1.09,0.97,0.28,0.84,
2.763,-0.02,-0.08,1.10,0.97,0.28,0.84,
2.763,-0.02,-0.08,1.10,1.00,0.24,0.92,
2.766,-0.01,-0.08,1.10,1.00,0.24,0.92,
2.768,-0.02,-0.09,1.10,1.00,0.24,0.92,
2.768,-0.02,-0.09,1.10,0.98,0.22,0.97,
2.771,-0.01,-0.08,1.10,0.98,0.22,0.97,
2.774,-0.01,-0.09,1.10,0.98,0.22,0.97,
2.774,-0.01,-0.09,1.10,0.97,0.16,1.00,
2.775,-0.01,-0.08,1.09,0.97,0.16,1.00,
2.778,-0.01,-0.09,1.10,0.97,0.16,1.00,
2.778,-0.01,-0.09,1.10,0.98,0.16,1.01,
2.781,-0.01,-0.09,1.09,0.98,0.16,1.01,
2.783,0.00,-0.09,1.09,0.98,0.16,1.01,
2.784,0.00,-0.09,1.09,1.01,0.15,0.92,
2.786,0.00,-0.08,1.08,1.01,0.15,0.92,
2.789,0.01,-0.09,1.07,1.01,0.15,0.92,
2.789,0.01,-0.09,1.07,1.06,0.14,0.88,
2.791,0.01,-0.09,1.06,1.06,0.14,0.88,
2.794,0.01,-0.10,1.06,1.06,0.14,0.88,
2.794,0.01,-0.10,1.06,1.12,0.15,0.71,
2.797,0.02,-0.11,1.04,1.12,0.15,0.71,
2.798,0.02,-0.12,1.04,1.12,0.15,0.71,
2.798,0.02,-0.12,1.04,1.17,0.05,0.56,
2.801,0.02,-0.12,1.03,1.17,0.05,0.56,
2.803,0.02,-0.12,1.03,1.21,-0.09,0.38,
2.808,0.03,-0.12,1.02,1.21,-0.09,0.38,
2.808,0.03,-0.13,1.02,1.21,-0.09,0.38,
2.808,0.03,-0.13,1.02,1.21,-0.09,0.38,
2.809,0.03,-0.13,1.02,1.24,-0.15,0.23,
2.817,0.03,-0.13,1.02,1.24,-0.15,0.23,
2.817,0.04,-0.14,1.01,1.24,-0.15,0.23,
2.818,0.04,-0.14,1.01,1.26,-0.27,0.15,
2.818,0.05,-0.14,1.01,1.26,-0.27,0.15,
2.818,0.05,-0.14,1.01,1.26,-0.27,0.15,
2.818,0.05,-0.14,1.01,1.32,-0.33,0.12,
2.82,0.05,-0.15,1.02,1.32,-0.33,0.12,
2.822,0.06,-0.15,1.02,1.32,-0.33,0.12,
2.822,0.06,-0.15,1.02,1.41,-0.38,0.08,
2.825,0.06,-0.15,1.02,1.41,-0.38,0.08,
2.829,0.06,-0.15,1.02,1.41,-0.38,0.08,
2.829,0.06,-0.15,1.02,1.48,-0.45,0.14,
2.83,0.06,-0.15,1.01,1.48,-0.45,0.14,
2.833,0.07,-0.15,1.02,1.48,-0.45,0.14,
2.833,0.07,-0.15,1.02,1.54,-0.45,0.14,
2.835,0.07,-0.15,1.02,1.54,-0.45,0.14,
2.837,0.07,-0.14,1.02,1.54,-0.45,0.14,
2.837,0.07,-0.14,1.02,1.55,-0.45,0.12,
2.84,0.07,-0.14,1.02,1.55,-0.45,0.12,
2.847,0.06,-0.14,1.02,1.55,-0.45,0.12,
2.847,0.06,-0.14,1.02,1.56,-0.42,0.17,
2.847,0.06,-0.14,1.02,1.56,-0.42,0.17,
2.848,0.06,-0.14,1.02,1.56,-0.42,0.17,
2.848,0.06,-0.14,1.02,1.52,-0.39,0.13,
2.85,0.06,-0.13,1.01,1.52,-0.39,0.13,
2.852,0.06,-0.13,1.01,1.50,-0.36,0.12,
2.853,0.07,-0.13,1.01,1.50,-0.36,0.12,
2.855,0.07,-0.13,1.00,1.50,-0.36,0.12,
2.857,0.08,-0.13,1.00,1.50,-0.36,0.12,
2.857,0.08,-0.13,1.00,1.51,-0.30,0.02,
2.861,0.08,-0.13,1.00,1.51,-0.30,0.02,
2.861,0.09,-0.12,0.99,1.51,-0.30,0.02,
2.862,0.09,-0.12,0.99,1.59,-0.27,-0.06,
2.864,0.10,-0.13,0.99,1.59,-0.27,-0.06,
2.868,0.10,-0.13,0.99,1.59,-0.27,-0.06,
2.868,0.10,-0.13,0.99,1.74,-0.26,-0.10,
2.869,0.10,-0.12,0.98,1.74,-0.26,-0.10,
2.873,0.11,-0.13,0.97,1.74,-0.26,-0.10,
2.873,0.11,-0.13,0.97,1.84,-0.30,-0.18,
2.875,0.12,-0.13,0.97,1.84,-0.30,-0.18,
2.877,0.13,-0.13,0.97,1.84,-0.30,-0.18,
2.878,0.13,-0.13,0.97,1.92,-0.28,-0.30,
2.879,0.13,-0.13,0.97,1.92,-0.28,-0.30,
2.881,0.13,-0.13,0.97,1.92,-0.28,-0.30,
2.882,0.13,-0.13,0.97,2.06,-0.31,-0.36,
2.884,0.13,-0.13,0.97,2.06,-0.31,-0.36,
2.887,0.13,-0.13,0.97,2.06,-0.31,-0.36,
2.887,0.13,-0.13,0.97,2.15,-0.33,-0.36,
2.89,0.13,-0.14,0.97,2.15,-0.33,-0.36,
2.892,0.13,-0.14,0.98,2.15,-0.33,-0.36,
2.892,0.13,-0.14,0.98,2.13,-0.38,-0.36,
2.896,0.12,-0.14,0.98,2.13,-0.38,-0.36,
2.896,0.12,-0.13,0.99,2.13,-0.38,-0.36,
2.897,0.12,-0.13,0.99,2.11,-0.41,-0.30,
2.899,0.12,-0.13,0.99,2.11,-0.41,-0.30,
2.902,0.12,-0.13,1.00,2.11,-0.41,-0.30,
2.902,0.12,-0.13,1.00,2.03,-0.39,-0.19,
2.905,0.11,-0.13,1.00,2.03,-0.39,-0.19,
2.906,0.11,-0.12,1.01,2.03,-0.39,-0.19,
2.907,0.11,-0.12,1.01,1.98,-0.33,-0.11,
2.91,0.11,-0.12,1.01,1.98,-0.33,-0.11,
2.912,0.11,-0.12,1.01,1.98,-0.33,-0.11,
2.912,0.11,-0.12,1.01,1.90,-0.30,-0.01,
2.914,0.11,-0.12,1.02,1.90,-0.30,-0.01,
2.917,0.11,-0.12,1.02,1.90,-0.30,-0.01,
2.917,0.11,-0.12,1.02,1.86,-0.29,0.08,
2.919,0.11,-0.12,1.02,1.86,-0.29,0.08,
2.922,0.12,-0.13,1.03,1.86,-0.29,0.08,
2.922,0.12,-0.13,1.03,1.84,-0.26,0.17,
2.924,0.12,-0.13,1.03,1.84,-0.26,0.17,
2.926,0.12,-0.13,1.03,1.84,-0.26,0.17,
2.926,0.12,-0.13,1.03,1.88,-0.29,0.20,
2.935,0.12,-0.13,1.03,1.88,-0.29,0.20,
2.937,0.12,-0.13,1.03,1.89,-0.31,0.24,
2.937,0.12,-0.13,1.03,1.89,-0.31,0.24,
2.938,0.12,-0.13,1.04,1.89,-0.31,0.24,
2.939,0.12,-0.13,1.04,1.93,-0.34,0.27,
2.939,0.13,-0.13,1.04,1.93,-0.34,0.27,
2.94,0.13,-0.13,1.04,1.93,-0.34,0.27,
2.941,0.13,-0.14,1.04,1.93,-0.34,0.27,
2.941,0.13,-0.14,1.04,1.94,-0.37,0.31,
2.95,0.14,-0.14,1.05,1.94,-0.37,0.31,
2.951,0.14,-0.13,1.05,1.94,-0.37,0.31,
2.951,0.14,-0.13,1.05,2.01,-0.37,0.33,
2.951,0.15,-0.13,1.05,2.01,-0.37,0.33,
2.951,0.16,-0.13,1.05,2.01,-0.37,0.33,
2.952,0.16,-0.13,1.05,2.08,-0.40,0.39,
2.954,0.17,-0.13,1.06,2.08,-0.40,0.39,
2.955,0.17,-0.13,1.06,2.08,-0.40,0.39,
2.956,0.17,-0.13,1.06,2.21,-0.36,0.43,
2.959,0.17,-0.13,1.07,2.21,-0.36,0.43,
2.961,0.17,-0.13,1.08,2.21,-0.36,0.43,
2.961,0.17,-0.13,1.08,2.32,-0.34,0.52,
2.964,0.17,-0.12,1.08,2.32,-0.34,0.52,
2.966,0.16,-0.13,1.08,2.32,-0.34,0.52,
2.966,0.16,-0.13,1.08,2.31,-0.32,0.63,
2.969,0.16,-0.11,1.09,2.31,-0.32,0.63,
2.971,0.16,-0.11,1.09,2.31,-0.32,0.63,
2.971,0.16,-0.11,1.09,2.28,-0.29,0.70,
2.974,0.15,-0.11,1.10,2.28,-0.29,0.70,
2.976,0.14,-0.11,1.09,2.28,-0.29,0.70,
2.976,0.14,-0.11,1.09,2.24,-0.20,0.82,
2.978,0.13,-0.11,1.09,2.24,-0.20,0.82,
2.981,0.12,-0.11,1.09,2.24,-0.20,0.82,
2.982,0.12,-0.11,1.09,2.12,-0.18,0.87,
2.984,0.11,-0.12,1.09,2.12,-0.18,0.87,
2.985,0.10,-0.12,1.09,2.12,-0.18,0.87,
2.986,0.10,-0.12,1.09,1.90,-0.20,0.83,
2.989,0.09,-0.12,1.08,1.90,-0.20,0.83,
2.991,0.09,-0.12,1.08,1.90,-0.20,0.83,
2.991,0.09,-0.12,1.08,1.72,-0.27,0.80,
2.993,0.08,-0.12,1.07,1.72,-0.27,0.80,
2.996,0.08,-0.12,1.06,1.72,-0.27,0.80,
2.997,0.08,-0.12,1.06,1.54,-0.31,0.71,
2.998,0.08,-0.12,1.05,1.54,-0.31,0.71,
3.001,0.08,-0.12,1.04,1.54,-0.31,0.71,
3.001,0.08,-0.12,1.04,1.46,-0.34,0.55,
3.004,0.08,-0.12,1.03,1.46,-0.34,0.55,
3.006,0.09,-0.12,1.02,1.46,-0.34,0.55,
3.006,0.09,-0.12,1.02,1.45,-0.35,0.36,
3.017,0.09,-0.11,1.01,1.45,-0.35,0.36,
3.018,0.09,-0.11,1.00,1.45,-0.35,0.36,
3.018,0.09,-0.11,1.00,1.49,-0.34,0.15,
3.018,0.10,-0.11,0.98,1.49,-0.34,0.15,
3.019,0.11,-0.11,0.97,1.49,-0.34,0.15,
3.019,0.11,-0.11,0.97,1.56,-0.30,-0.08,
3.019,0.12,-0.11,0.96,1.56,-0.30,-0.08,
3.02,0.12,-0.11,0.95,1.56,-0.30,-0.08,
3.02,0.12,-0.11,0.95,1.68,-0.28,-0.30,
3.022,0.12,-0.11,0.95,1.68,-0.28,-0.30,
3.026,0.13,-0.11,0.95,1.68,-0.28,-0.30,
3.026,0.13,-0.11,0.95,1.78,-0.29,-0.50,
3.029,0.13,-0.11,0.95,1.78,-0.29,-0.50,
3.03,0.14,-0.11,0.94,1.78,-0.29,-0.50,
3.03,0.14,-0.11,0.94,1.82,-0.33,-0.57,
3.033,0.14,-0.12,0.94,1.82,-0.33,-0.57,
3.035,0.14,-0.12,0.94,1.82,-0.33,-0.57,
3.035,0.14,-0.12,0.94,1.88,-0.35,-0.62,
3.039,0.14,-0.12,0.95,1.88,-0.35,-0.62,
3.04,0.14,-0.11,0.96,1.88,-0.35,-0.62,
3.04,0.14,-0.11,0.96,1.92,-0.38,-0.65,
3.043,0.14,-0.11,0.96,1.92,-0.38,-0.65,
3.046,0.14,-0.11,0.97,1.92,-0.38,-0.65,
3.047,0.14,-0.11,0.97,1.94,-0.37,-0.54,
3.047,0.15,-0.11,0.98,1.94,-0.37,-0.54,
3.05,0.15,-0.11,0.99,1.94,-0.37,-0.54,
3.05,0.15,-0.11,0.99,1.92,-0.35,-0.42,
3.052,0.14,-0.11,1.00,1.92,-0.35,-0.42,
3.055,0.13,-0.11,1.00,1.92,-0.35,-0.42,
3.056,0.13,-0.11,1.00,1.96,-0.31,-0.28,
3.058,0.13,-0.12,1.00,1.96,-0.31,-0.28,
3.06,0.12,-0.12,1.00,1.96,-0.31,-0.28,
3.06,0.12,-0.12,1.00,1.84,-0.33,-0.12,
3.062,0.11,-0.12,1.01,1.84,-0.33,-0.12,
3.065,0.11,-0.12,1.00,1.84,-0.33,-0.12,
3.066,0.11,-0.12,1.00,1.73,-0.40,-0.07,
3.067,0.10,-0.12,1.00,1.73,-0.40,-0.07,
3.07,0.10,-0.12,1.00,1.73,-0.40,-0.07,
3.07,0.10,-0.12,1.00,1.60,-0.43,-0.08,
3.073,0.09,-0.12,1.00,1.60,-0.43,-0.08,
3.075,0.08,-0.12,0.99,1.60,-0.43,-0.08,
3.075,0.08,-0.12,0.99,1.47,-0.44,-0.07,
3.078,0.08,-0.12,0.99,1.47,-0.44,-0.07,
3.08,0.08,-0.12,0.98,1.47,-0.44,-0.07,
3.08,0.08,-0.12,0.98,1.36,-0.47,-0.14,
3.082,0.08,-0.12,0.98,1.36,-0.47,-0.14,
3.085,0.08,-0.12,0.98,1.32,-0.46,-0.22,
3.085,0.08,-0.12,0.98,1.32,-0.46,-0.22,
3.089,0.08,-0.11,0.97,1.32,-0.46,-0.22,
3.09,0.08,-0.11,0.97,1.32,-0.46,-0.22,
3.091,0.08,-0.11,0.97,1.31,-0.45,-0.31,
3.092,0.08,-0.10,0.96,1.31,-0.45,-0.31,
3.096,0.08,-0.10,0.95,1.31,-0.45,-0.31,
3.096,0.08,-0.10,0.95,1.32,-0.36,-0.40,
3.097,0.07,-0.10,0.95,1.32,-0.36,-0.40,
3.099,0.06,-0.10,0.96,1.32,-0.36,-0.40,
3.1,0.06,-0.10,0.96,1.32,-0.31,-0.50,
3.102,0.06,-0.09,0.96,1.32,-0.31,-0.50,
3.105,0.06,-0.09,0.96,1.32,-0.31,-0.50,
3.105,0.06,-0.09,0.96,1.21,-0.28,-0.52,
3.108,0.05,-0.09,0.95,1.21,-0.28,-0.52,
3.11,0.04,-0.09,0.95,1.21,-0.28,-0.52,
3.11,0.04,-0.09,0.95,1.10,-0.22,-0.52,
3.112,0.03,-0.09,0.96,1.10,-0.22,-0.52,
3.115,0.03,-0.09,0.96,1.10,-0.22,-0.52,
3.115,0.03,-0.09,0.96,0.99,-0.19,-0.54,
3.117,0.02,-0.09,0.96,0.99,-0.19,-0.54,
3.119,0.02,-0.09,0.96,0.99,-0.19,-0.54,
3.12,0.02,-0.09,0.96,0.86,-0.17,-0.52,
3.122,0.02,-0.09,0.96,0.86,-0.17,-0.52,
3.125,0.02,-0.09,0.97,0.86,-0.17,-0.52,
3.125,0.02,-0.09,0.97,0.74,-0.15,-0.47,
3.127,0.02,-0.09,0.97,0.74,-0.15,-0.47,
3.13,0.02,-0.09,0.98,0.74,-0.15,-0.47,
3.131,0.02,-0.09,0.98,0.71,-0.19,-0.43,
3.131,0.02,-0.09,0.99,0.71,-0.19,-0.43,
3.136,0.02,-0.09,0.99,0.71,-0.19,-0.43,
3.136,0.02,-0.09,0.99,0.71,-0.20,-0.33,
3.137,0.03,-0.09,0.99,0.71,-0.20,-0.33,
3.139,0.03,-0.10,1.00,0.71,-0.20,-0.33,
3.139,0.03,-0.10,1.00,0.72,-0.21,-0.20,
3.141,0.03,-0.10,1.00,0.72,-0.21,-0.20,
3.155,0.03,-0.10,1.00,0.72,-0.21,-0.20,
3.155,0.03,-0.10,1.00,0.79,-0.24,-0.14,
3.156,0.03,-0.10,1.00,0.79,-0.24,-0.14,
3.157,0.03,-0.10,1.01,0.79,-0.24,-0.14,
3.158,0.03,-0.10,1.01,0.79,-0.28,-0.06,
3.158,0.03,-0.10,1.01,0.79,-0.28,-0.06,
3.158,0.03,-0.10,1.01,0.79,-0.28,-0.06,
3.158,0.03,-0.10,1.01,0.79,-0.30,-0.04,
3.158,0.03,-0.10,1.01,0.79,-0.30,-0.04,
3.159,0.03,-0.10,1.01,0.79,-0.30,-0.04,
3.159,0.03,-0.10,1.01,0.75,-0.28,0.00,
3.163,0.03,-0.10,1.01,0.75,-0.28,0.00,
3.163,-0.05,-0.10,1.02,0.75,-0.28,0.00,
3.164,-0.05,-0.10,1.02,0.72,-0.26,0.03,
3.166,-0.23,-0.09,1.06,0.72,-0.26,0.03,
3.169,-0.43,-0.08,1.10,0.72,-0.26,0.03,
3.169,-0.43,-0.08,1.10,0.33,-0.25,0.06,
3.171,-0.50,-0.03,1.11,0.33,-0.25,0.06,
3.175,-0.40,0.04,1.07,0.33,-0.25,0.06,
3.175,-0.40,0.04,1.07,-2.83,-0.10,0.67,
3.176,-0.25,0.10,1.01,-2.83,-0.10,0.67,
3.179,-0.16,0.14,0.98,-2.83,-0.10,0.67,
3.179,-0.16,0.14,0.98,-4.03,0.75,0.75,
3.181,-0.14,0.15,0.97,-4.03,0.75,0.75,
3.183,-0.17,0.15,0.99,-4.03,0.75,0.75,
3.184,-0.17,0.15,0.99,-1.64,1.86,-0.17,
3.186,-0.19,0.13,1.02,-1.64,1.86,-0.17,
3.189,-0.20,0.09,1.03,-1.64,1.86,-0.17,
3.189,-0.20,0.09,1.03,-1.17,2.18,-0.27,
3.191,-0.18,0.05,1.03,-1.17,2.18,-0.27,
3.194,-0.15,0.02,1.03,-1.17,2.18,-0.27,
3.194,-0.15,0.02,1.03,-1.56,1.79,0.15,
3.196,-0.12,-0.02,1.03,-1.56,1.79,0.15,
3.198,-0.10,-0.05,1.03,-1.56,1.79,0.15,
3.198,-0.10,-0.05,1.03,-1.28,1.02,0.21,
3.201,-0.08,-0.06,1.04,-1.28,1.02,0.21,
3.204,-0.05,-0.08,1.05,-1.28,1.02,0.21,
3.204,-0.05,-0.08,1.05,-0.75,0.34,0.19,
3.206,-0.02,-0.09,1.05,-0.75,0.34,0.19,
3.209,0.01,-0.09,1.04,-0.75,0.34,0.19,
3.21,0.01,-0.09,1.04,-0.38,-0.03,0.32,
3.212,0.03,-0.10,1.04,-0.38,-0.03,0.32,
3.213,0.03,-0.10,1.04,0.19,-0.22,0.34,
3.214,0.05,-0.09,1.05,0.19,-0.22,0.34,
3.216,0.08,-0.09,1.05,0.19,-0.22,0.34,
3.218,0.09,-0.09,1.04,0.19,-0.22,0.34,
3.219,0.09,-0.09,1.04,0.65,-0.26,0.34,
3.221,0.09,-0.09,1.03,0.65,-0.26,0.34,
3.223,0.09,-0.08,1.02,0.65,-0.26,0.34,
3.224,0.09,-0.08,1.02,0.99,-0.25,0.34,
3.226,0.09,-0.08,1.01,0.99,-0.25,0.34,
3.228,0.09,-0.07,1.01,0.99,-0.25,0.34,
3.229,0.09,-0.07,1.01,1.07,-0.18,0.16,
3.231,0.09,-0.07,1.00,1.07,-0.18,0.16,
3.233,0.09,-0.07,1.00,1.07,-0.18,0.16,
3.233,0.09,-0.07,1.00,1.02,-0.08,0.01,
3.236,0.09,-0.06,0.99,1.02,-0.08,0.01,
3.238,0.09,-0.06,0.98,1.02,-0.08,0.01,
3.238,0.09,-0.06,0.98,0.98,-0.01,-0.12,
3.242,0.09,-0.06,0.98,0.98,-0.01,-0.12,
3.243,0.09,-0.06,0.98,0.98,-0.01,-0.12,
3.243,0.09,-0.06,0.98,0.95,0.02,-0.24,
3.246,0.09,-0.06,0.98,0.95,0.02,-0.24,
3.248,0.09,-0.06,0.98,0.95,0.02,-0.24,
3.248,0.09,-0.06,0.98,0.96,0.03,-0.27,
3.251,0.09,-0.06,0.98,0.96,0.03,-0.27,
3.253,0.09,-0.06,0.98,0.96,0.03,-0.27,
3.254,0.09,-0.06,0.98,0.96,0.05,-0.27,
3.257,0.09,-0.06,0.98,0.96,0.05,-0.27,
3.257,0.10,-0.07,0.98,0.96,0.05,-0.27,
3.258,0.10,-0.07,0.98,0.98,0.02,-0.30,
3.267,0.10,-0.07,0.97,0.98,0.02,-0.30,
3.269,0.10,-0.07,0.97,1.01,-0.01,-0.31,
3.269,0.10,-0.07,0.97,1.01,-0.01,-0.31,
3.269,0.09,-0.07,0.97,1.01,-0.01,-0.31,
3.27,0.10,-0.07,0.97,1.01,-0.01,-0.31,
3.27,0.10,-0.07,0.97,1.01,-0.04,-0.41,
3.27,0.09,-0.08,0.97,1.01,-0.04,-0.41,
3.273,0.09,-0.08,0.96,1.01,-0.04,-0.41,
3.274,0.09,-0.08,0.96,1.01,-0.10,-0.42,
3.275,0.09,-0.08,0.97,1.01,-0.10,-0.42,
3.277,0.09,-0.08,0.96,1.01,-0.10,-0.42,
3.278,0.09,-0.08,0.96,0.96,-0.16,-0.45,
3.28,0.09,-0.09,0.96,0.96,-0.16,-0.45,
3.282,0.09,-0.09,0.97,0.96,-0.16,-0.45,
3.283,0.09,-0.09,0.97,1.00,-0.20,-0.45,
3.285,0.09,-0.09,0.98,1.00,-0.20,-0.45,
3.288,0.09,-0.09,0.98,0.98,-0.27,-0.44,
3.288,0.09,-0.09,0.98,0.98,-0.27,-0.44,
3.29,0.09,-0.09,0.98,0.98,-0.27,-0.44,
3.292,0.09,-0.09,0.99,0.98,-0.27,-0.44,
3.293,0.09,-0.09,0.99,1.00,-0.31,-0.34,
3.296,0.08,-0.09,0.99,1.00,-0.31,-0.34,
3.298,0.08,-0.09,0.98,1.00,-0.31,-0.34,
3.301,0.08,-0.09,0.98,1.00,-0.31,-0.29,
3.301,0.08,-0.09,0.99,1.00,-0.31,-0.29,
3.303,0.08,-0.09,0.99,1.00,-0.31,-0.29,
3.303,0.08,-0.09,0.99,0.95,-0.32,-0.24,
3.305,0.08,-0.09,0.99,0.95,-0.32,-0.24,
3.308,0.08,-0.10,1.00,0.95,-0.32,-0.24,
3.308,0.08,-0.10,1.00,0.94,-0.32,-0.21,
3.31,0.07,-0.10,1.00,0.94,-0.32,-0.21,
3.312,0.07,-0.10,1.00,0.94,-0.32,-0.21,
3.313,0.07,-0.10,1.00,0.93,-0.37,-0.15,
3.315,0.07,-0.10,1.00,0.93,-0.37,-0.15,
3.317,0.06,-0.11,1.00,0.93,-0.37,-0.15,
3.317,0.06,-0.11,1.00,0.89,-0.39,-0.11,
3.32,0.05,-0.10,1.00,0.89,-0.39,-0.11,
3.322,0.04,-0.10,1.00,0.89,-0.39,-0.11,
3.323,0.04,-0.10,1.00,0.84,-0.46,-0.08,
3.324,0.03,-0.10,1.00,0.84,-0.46,-0.08,
3.327,0.02,-0.10,1.01,0.84,-0.46,-0.08,
3.328,0.02,-0.10,1.01,0.66,-0.43,-0.09,
3.33,0.01,-0.10,1.01,0.66,-0.43,-0.09,
3.332,0.00,-0.09,1.02,0.66,-0.43,-0.09,
3.332,0.00,-0.09,1.02,0.46,-0.43,-0.04,
3.334,-0.00,-0.08,1.03,0.46,-0.43,-0.04,
3.337,-0.00,-0.08,1.03,0.26,-0.37,0.04,
3.338,-0.01,-0.08,1.03,0.26,-0.37,0.04,
3.339,-0.02,-0.08,1.02,0.26,-0.37,0.04,
3.342,-0.03,-0.07,1.03,0.26,-0.37,0.04,
3.342,-0.03,-0.07,1.03,0.11,-0.24,0.15,
3.346,-0.04,-0.07,1.03,0.11,-0.24,0.15,
3.347,-0.01,-0.08,0.96,0.11,-0.24,0.15,
3.348,-0.01,-0.08,0.96,-0.02,-0.16,0.15,
3.349,0.02,-0.08,0.79,-0.02,-0.16,0.15,
3.352,-0.03,-0.06,0.68,-0.02,-0.16,0.15,
3.352,-0.03,-0.06,0.68,-0.02,-0.14,-0.16,
3.354,-0.07,-0.02,0.70,-0.02,-0.14,-0.16,
3.357,-0.08,-0.01,0.80,-0.02,-0.14,-0.16,
3.357,-0.08,-0.01,0.80,0.14,-0.13,-2.71,
3.36,-0.08,-0.00,0.85,0.14,-0.13,-2.71,
3.367,-0.09,-0.00,0.87,0.14,-0.13,-2.71,
3.368,-0.09,-0.00,0.87,-0.48,0.43,-2.55,
3.368,-0.11,-0.01,0.90,-0.48,0.43,-2.55,
3.368,-0.13,-0.01,0.95,-0.48,0.43,-2.55,
3.368,-0.13,-0.01,0.95,-0.60,0.56,-1.48,
3.369,-0.14,-0.01,0.99,-0.60,0.56,-1.48,
3.373,-0.14,-0.01,1.02,-0.60,0.56,-1.48,
3.373,-0.14,-0.01,1.02,-0.87,0.50,-0.82,
3.375,-0.14,-0.02,1.05,-0.87,0.50,-0.82,
3.377,-0.12,-0.04,1.07,-0.87,0.50,-0.82,
3.377,-0.12,-0.04,1.07,-1.07,0.48,-0.04,
3.379,-0.11,-0.06,1.08,-1.07,0.48,-0.04,
3.386,-0.08,-0.07,1.10,-1.07,0.48,-0.04,
3.387,-0.08,-0.07,1.10,-0.96,0.31,0.47,
3.387,-0.06,-0.10,1.11,-0.96,0.31,0.47,
3.387,-0.03,-0.11,1.13,-0.96,0.31,0.47,
3.387,-0.03,-0.11,1.13,-0.59,-0.02,0.81,
3.389,-0.01,-0.13,1.15,-0.59,-0.02,0.81,
3.392,-0.00,-0.15,1.16,-0.59,-0.02,0.81,
3.392,-0.00,-0.15,1.16,-0.11,-0.42,1.09,
3.394,0.01,-0.15,1.18,-0.11,-0.42,1.09,
3.403,0.01,-0.16,1.20,-0.11,-0.42,1.09,
3.403,0.01,-0.16,1.20,0.29,-0.74,1.43,
3.404,0.01,-0.16,1.20,0.29,-0.74,1.43,
3.404,0.01,-0.15,1.20,0.29,-0.74,1.43,
3.404,0.01,-0.15,1.20,0.45,-0.94,1.77,
3.404,0.01,-0.14,1.19,0.45,-0.94,1.77,
3.406,-0.00,-0.14,1.18,0.45,-0.94,1.77,
3.407,-0.00,-0.14,1.18,0.50,-0.90,1.84,
3.409,-0.01,-0.12,1.16,0.50,-0.90,1.84,
3.411,-0.01,-0.11,1.14,0.50,-0.90,1.84,
3.411,-0.01,-0.11,1.14,0.39,-0.79,1.72,
3.419,-0.00,-0.10,1.11,0.39,-0.79,1.72,
3.42,-0.00,-0.09,1.09,0.39,-0.79,1.72,
3.42,-0.00,-0.09,1.09,0.28,-0.58,1.39,
3.42,0.00,-0.08,1.07,0.28,-0.58,1.39,
3.421,0.01,-0.07,1.05,0.28,-0.58,1.39,
3.421,0.01,-0.07,1.05,0.35,-0.40,0.90,
3.435,0.02,-0.05,1.02,0.35,-0.40,0.90,
3.436,0.02,-0.04,0.99,0.35,-0.40,0.90,
3.436,0.02,-0.04,0.99,0.41,-0.20,0.47,
3.437,0.02,-0.03,0.96,0.41,-0.20,0.47,
3.437,0.00,-0.02,0.95,0.41,-0.20,0.47,
3.437,0.00,-0.02,0.95,0.52,0.06,-0.06,
3.437,0.00,-0.02,0.93,0.52,0.06,-0.06,
3.437,0.01,-0.01,0.90,0.52,0.06,-0.06,
3.438,0.01,-0.01,0.90,0.43,0.27,-0.55,
3.438,0.01,-0.02,0.90,0.43,0.27,-0.55,
3.453,0.02,-0.02,0.89,0.43,0.27,-0.55,
3.454,0.02,-0.02,0.89,0.38,0.36,-0.95,
3.454,0.02,-0.03,0.89,0.38,0.36,-0.95,
3.454,0.02,-0.03,0.89,0.38,0.36,-0.95,
3.455,0.02,-0.03,0.89,0.44,0.30,-1.17,
3.455,0.03,-0.03,0.88,0.44,0.30,-1.17,
3.455,0.03,-0.03,0.89,0.44,0.30,-1.17,
3.455,0.03,-0.03,0.89,0.46,0.18,-1.22,
3.456,0.03,-0.03,0.90,0.46,0.18,-1.22,
3.456,0.04,-0.04,0.92,0.46,0.18,-1.22,
3.456,0.04,-0.04,0.92,0.55,0.19,-1.22,
3.458,0.04,-0.04,0.93,0.55,0.19,-1.22,
3.467,0.04,-0.04,0.95,0.55,0.19,-1.22,
3.468,0.04,-0.04,0.95,0.60,0.17,-0.99,
3.471,0.03,-0.04,0.97,0.60,0.17,-0.99,
3.471,0.04,-0.04,0.98,0.60,0.17,-0.99,
3.471,0.04,-0.04,0.98,0.65,0.12,-0.66,
3.472,0.03,-0.05,0.99,0.65,0.12,-0.66,
3.472,0.03,-0.06,1.00,0.65,0.12,-0.66,
3.472,0.03,-0.06,1.00,0.62,0.10,-0.36,
