
time,gFx,gFy,gFz,ax,ay,az,
0.005,-0.03,0.07,0.96,-0.39,0.30,-0.35,
0.006,-0.03,0.07,0.96,-0.42,0.34,-0.36,
0.006,-0.02,0.06,0.96,-0.42,0.34,-0.36,
0.006,-0.02,0.06,0.97,-0.42,0.34,-0.36,
0.006,-0.02,0.06,0.97,-0.37,0.34,-0.36,
0.007,-0.02,0.05,0.97,-0.37,0.34,-0.36,
0.007,-0.01,0.05,0.97,-0.37,0.34,-0.36,
0.007,-0.01,0.05,0.97,-0.28,0.28,-0.32,
0.007,-0.01,0.05,0.98,-0.28,0.28,-0.32,
0.014,-0.01,0.06,0.98,-0.28,0.28,-0.32,
0.014,-0.01,0.06,0.98,-0.21,0.21,-0.25,
0.015,-0.02,0.05,0.97,-0.21,0.21,-0.25,
0.015,-0.02,0.05,0.97,-0.21,0.22,-0.20,
0.015,-0.02,0.05,0.97,-0.21,0.22,-0.20,
0.017,-0.03,0.05,0.98,-0.21,0.22,-0.20,
0.021,-0.02,0.05,0.97,-0.21,0.22,-0.20,
0.021,-0.02,0.05,0.97,-0.29,0.20,-0.23,
0.023,-0.03,0.05,0.97,-0.29,0.20,-0.23,
0.03,-0.03,0.06,0.97,-0.29,0.20,-0.23,
0.03,-0.03,0.06,0.97,-0.35,0.19,-0.21,
0.03,-0.03,0.06,0.97,-0.35,0.19,-0.21,
0.03,-0.03,0.05,0.98,-0.35,0.19,-0.21,
0.03,-0.03,0.05,0.98,-0.39,0.25,-0.28,
0.033,-0.03,0.06,0.97,-0.39,0.25,-0.28,
0.036,-0.03,0.06,0.97,-0.39,0.25,-0.28,
0.036,-0.03,0.06,0.97,-0.42,0.27,-0.24,
0.037,-0.03,0.05,0.98,-0.42,0.27,-0.24,
0.041,-0.03,0.05,0.99,-0.42,0.27,-0.24,
0.041,-0.03,0.05,0.99,-0.40,0.27,-0.24,
0.044,-0.02,0.06,0.99,-0.40,0.27,-0.24,
0.045,-0.02,0.05,0.99,-0.40,0.27,-0.24,
0.046,-0.02,0.05,0.99,-0.34,0.24,-0.11,
0.047,-0.01,0.05,1.00,-0.34,0.24,-0.11,
0.05,-0.01,0.05,1.00,-0.34,0.24,-0.11,
0.05,-0.01,0.05,1.00,-0.28,0.26,-0.06,
0.053,-0.01,0.05,1.01,-0.28,0.26,-0.06,
0.056,-0.00,0.05,1.01,-0.28,0.26,-0.06,
0.056,-0.00,0.05,1.01,-0.19,0.24,0.02,
0.058,0.00,0.05,1.01,-0.19,0.24,0.02,
0.06,0.00,0.05,1.01,-0.13,0.24,0.12,
0.061,0.00,0.05,1.00,-0.13,0.24,0.12,
0.062,0.01,0.05,1.01,-0.13,0.24,0.12,
0.065,0.00,0.05,1.01,-0.13,0.24,0.12,
0.065,0.00,0.05,1.01,-0.09,0.23,0.09,
0.068,0.00,0.05,1.00,-0.09,0.23,0.09,
0.07,0.00,0.05,1.01,-0.09,0.23,0.09,
0.071,0.00,0.05,1.01,-0.06,0.23,0.10,
0.072,0.00,0.05,1.02,-0.06,0.23,0.10,
0.075,0.00,0.05,1.03,-0.06,0.23,0.10,
0.075,0.00,0.05,1.03,-0.07,0.23,0.11,
0.078,-0.00,0.05,1.03,-0.07,0.23,0.11,
0.08,-0.01,0.05,1.03,-0.07,0.23,0.11,
0.08,-0.01,0.05,1.03,-0.07,0.23,0.25,
0.082,-0.00,0.06,1.03,-0.07,0.23,0.25,
0.085,0.00,0.07,1.02,-0.07,0.23,0.25,
0.085,0.00,0.07,1.02,-0.15,0.29,0.32,
0.087,0.00,0.07,1.02,-0.15,0.29,0.32,
0.09,0.01,0.06,1.01,-0.15,0.29,0.32,
0.09,0.01,0.06,1.01,-0.09,0.38,0.24,
0.092,0.03,0.06,1.01,-0.09,0.38,0.24,
0.094,0.04,0.05,1.01,-0.09,0.38,0.24,
0.095,0.04,0.05,1.01,-0.03,0.43,0.17,
0.097,0.04,0.04,1.01,-0.03,0.43,0.17,
0.099,0.02,0.04,1.01,-0.03,0.43,0.17,
0.1,0.02,0.04,1.01,0.26,0.30,0.08,
0.102,0.01,0.04,1.01,0.26,0.30,0.08,
0.105,0.01,0.04,1.01,0.18,0.16,0.13,
0.105,0.01,0.04,1.00,0.18,0.16,0.13,
0.107,0.00,0.04,1.00,0.18,0.16,0.13,
0.114,-0.00,0.04,1.01,0.18,0.16,0.13,
0.115,-0.00,0.04,1.01,0.02,0.16,0.06,
0.115,-0.01,0.04,1.00,0.02,0.16,0.06,
0.115,-0.02,0.04,1.00,0.02,0.16,0.06,
0.115,-0.02,0.04,1.00,-0.12,0.16,0.05,
0.117,-0.03,0.05,1.01,-0.12,0.16,0.05,
0.119,-0.04,0.05,1.01,-0.12,0.16,0.05,
0.12,-0.04,0.05,1.01,-0.28,0.19,0.06,
0.122,-0.04,0.06,1.01,-0.28,0.19,0.06,
0.125,-0.04,0.06,1.01,-0.28,0.19,0.06,
0.125,-0.04,0.06,1.01,-0.43,0.25,0.09,
0.127,-0.04,0.07,1.01,-0.43,0.25,0.09,
0.13,-0.05,0.07,1.02,-0.43,0.25,0.09,
0.13,-0.05,0.07,1.02,-0.49,0.36,0.10,
0.132,-0.05,0.07,1.02,-0.49,0.36,0.10,
0.134,-0.05,0.07,1.03,-0.49,0.36,0.10,
0.134,-0.05,0.07,1.03,-0.54,0.43,0.18,
0.136,-0.05,0.07,1.03,-0.54,0.43,0.18,
0.139,-0.05,0.08,1.04,-0.54,0.43,0.18,
0.139,-0.05,0.08,1.04,-0.60,0.47,0.26,
0.141,-0.05,0.07,1.04,-0.60,0.47,0.26,
0.144,-0.06,0.08,1.04,-0.60,0.47,0.26,
0.145,-0.06,0.08,1.04,-0.61,0.49,0.37,
0.15,-0.05,0.08,1.05,-0.61,0.49,0.37,
0.15,-0.05,0.08,1.05,-0.61,0.49,0.37,
0.151,-0.05,0.08,1.05,-0.61,0.48,0.42,
0.151,-0.05,0.08,1.06,-0.61,0.48,0.42,
0.155,-0.06,0.08,1.06,-0.61,0.48,0.42,
0.155,-0.06,0.08,1.06,-0.60,0.51,0.50,
0.156,-0.06,0.08,1.06,-0.60,0.51,0.50,
0.159,-0.06,0.07,1.06,-0.60,0.51,0.50,
0.163,-0.06,0.07,1.06,-0.65,0.50,0.55,
0.163,-0.06,0.07,1.06,-0.65,0.50,0.55,
0.164,-0.06,0.07,1.06,-0.65,0.50,0.55,
0.164,-0.06,0.07,1.06,-0.71,0.47,0.58,
0.166,-0.06,0.08,1.06,-0.71,0.47,0.58,
0.169,-0.06,0.07,1.06,-0.71,0.47,0.58,
0.169,-0.06,0.07,1.06,-0.71,0.44,0.58,
0.171,-0.07,0.07,1.05,-0.71,0.44,0.58,
0.174,-0.07,0.07,1.04,-0.71,0.44,0.58,
0.175,-0.07,0.07,1.04,-0.71,0.44,0.56,
0.179,-0.08,0.07,1.04,-0.71,0.44,0.56,
0.179,-0.09,0.07,1.04,-0.71,0.44,0.56,
0.179,-0.09,0.07,1.04,-0.80,0.41,0.44,
0.181,-0.09,0.06,1.03,-0.80,0.41,0.44,
0.183,-0.10,0.06,1.02,-0.80,0.41,0.44,
0.184,-0.10,0.06,1.02,-0.94,0.35,0.38,
0.186,-0.10,0.06,1.02,-0.94,0.35,0.38,
0.189,-0.11,0.06,1.02,-0.94,0.35,0.38,
0.189,-0.11,0.06,1.02,-1.02,0.29,0.22,
0.191,-0.11,0.06,1.01,-1.02,0.29,0.22,
0.194,-0.11,0.06,1.01,-1.02,0.29,0.22,
0.194,-0.11,0.06,1.01,-1.12,0.24,0.15,
0.197,-0.11,0.07,1.01,-1.12,0.24,0.15,
0.199,-0.11,0.07,1.01,-1.12,0.24,0.15,
0.199,-0.11,0.07,1.01,-1.16,0.25,0.07,
0.201,-0.11,0.08,1.01,-1.16,0.25,0.07,
0.204,-0.10,0.08,1.01,-1.16,0.25,0.07,
0.204,-0.10,0.08,1.01,-1.14,0.32,0.04,
0.205,-0.10,0.08,1.01,-1.14,0.32,0.04,
0.209,-0.09,0.08,1.02,-1.14,0.32,0.04,
0.209,-0.09,0.08,1.02,-1.09,0.39,0.04,
0.212,-0.09,0.08,1.01,-1.09,0.39,0.04,
0.213,-0.09,0.08,1.01,-1.09,0.39,0.04,
0.213,-0.09,0.08,1.01,-0.98,0.38,0.11,
0.216,-0.08,0.09,1.02,-0.98,0.38,0.11,
0.218,-0.07,0.08,1.02,-0.98,0.38,0.11,
0.219,-0.07,0.08,1.02,-0.91,0.42,0.09,
0.221,-0.07,0.09,1.02,-0.91,0.42,0.09,
0.224,-0.06,0.09,1.03,-0.91,0.42,0.09,
0.224,-0.06,0.09,1.03,-0.81,0.43,0.16,
0.226,-0.06,0.09,1.04,-0.81,0.43,0.16,
0.228,-0.05,0.09,1.03,-0.81,0.43,0.16,
0.229,-0.05,0.09,1.03,-0.68,0.44,0.23,
0.23,-0.05,0.09,1.04,-0.68,0.44,0.23,
0.233,-0.05,0.09,1.04,-0.68,0.44,0.23,
0.233,-0.05,0.09,1.04,-0.58,0.44,0.31,
0.236,-0.05,0.08,1.04,-0.58,0.44,0.31,
0.239,-0.05,0.09,1.03,-0.58,0.44,0.31,
0.239,-0.05,0.09,1.03,-0.55,0.43,0.34,
0.241,-0.05,0.09,1.03,-0.55,0.43,0.34,
0.245,-0.06,0.09,1.03,-0.55,0.43,0.34,
0.246,-0.06,0.09,1.03,-0.52,0.39,0.27,
0.246,-0.06,0.08,1.03,-0.52,0.39,0.27,
0.248,-0.06,0.08,1.02,-0.52,0.39,0.27,
0.248,-0.06,0.08,1.02,-0.55,0.40,0.23,
0.25,-0.07,0.08,1.02,-0.55,0.40,0.23,
0.254,-0.07,0.08,1.01,-0.55,0.40,0.23,
0.254,-0.07,0.08,1.01,-0.61,0.35,0.22,
0.256,-0.07,0.08,1.01,-0.61,0.35,0.22,
0.258,-0.07,0.08,1.01,-0.61,0.35,0.22,
0.259,-0.07,0.08,1.01,-0.68,0.33,0.09,
0.26,-0.08,0.08,1.00,-0.68,0.33,0.09,
0.263,-0.08,0.08,1.00,-0.68,0.33,0.09,
0.263,-0.08,0.08,1.00,-0.72,0.30,0.05,
0.266,-0.08,0.07,1.00,-0.72,0.30,0.05,
0.269,-0.08,0.08,1.00,-0.72,0.30,0.05,
0.269,-0.08,0.08,1.00,-0.79,0.27,-0.03,
0.271,-0.09,0.08,1.00,-0.79,0.27,-0.03,
0.273,-0.09,0.08,1.01,-0.79,0.27,-0.03,
0.273,-0.09,0.08,1.01,-0.84,0.26,-0.00,
0.275,-0.09,0.08,1.01,-0.84,0.26,-0.00,
0.279,-0.09,0.08,1.01,-0.84,0.26,-0.00,
0.279,-0.09,0.08,1.01,-0.87,0.32,0.01,
0.28,-0.08,0.09,1.01,-0.87,0.32,0.01,
0.283,-0.09,0.09,1.01,-0.87,0.32,0.01,
0.284,-0.09,0.09,1.01,-0.89,0.31,0.04,
0.286,-0.09,0.09,1.01,-0.89,0.31,0.04,
0.288,-0.09,0.09,1.02,-0.89,0.31,0.04,
0.288,-0.09,0.09,1.02,-0.87,0.38,0.06,
0.29,-0.09,0.09,1.02,-0.87,0.38,0.06,
0.293,-0.09,0.09,1.02,-0.87,0.38,0.06,
0.293,-0.09,0.09,1.02,-0.89,0.40,0.08,
0.295,-0.10,0.09,1.02,-0.89,0.40,0.08,
0.298,-0.10,0.09,1.02,-0.89,0.38,0.12,
0.298,-0.10,0.08,1.03,-0.89,0.38,0.12,
0.299,-0.09,0.08,1.03,-0.89,0.38,0.12,
0.302,-0.09,0.08,1.03,-0.96,0.33,0.19,
0.302,-0.09,0.08,1.03,-0.96,0.33,0.19,
0.304,-0.09,0.08,1.04,-0.96,0.33,0.19,
0.307,-0.09,0.08,1.04,-0.96,0.33,0.19,
0.307,-0.09,0.08,1.04,-0.94,0.33,0.24,
0.309,-0.09,0.08,1.05,-0.94,0.33,0.24,
0.315,-0.08,0.09,1.05,-0.94,0.33,0.24,
0.315,-0.08,0.09,1.05,-0.91,0.32,0.34,
0.316,-0.08,0.08,1.05,-0.91,0.32,0.34,
0.317,-0.08,0.09,1.05,-0.91,0.32,0.34,
0.317,-0.08,0.09,1.05,-0.86,0.34,0.42,
0.319,-0.08,0.08,1.06,-0.86,0.34,0.42,
0.322,-0.08,0.08,1.05,-0.86,0.34,0.42,
0.322,-0.08,0.08,1.05,-0.81,0.33,0.44,
0.325,-0.08,0.07,1.05,-0.81,0.33,0.44,
0.329,-0.07,0.07,1.05,-0.81,0.33,0.44,
0.33,-0.07,0.07,1.05,-0.80,0.31,0.46,
0.33,-0.07,0.07,1.05,-0.80,0.31,0.46,
0.332,-0.07,0.06,1.06,-0.80,0.31,0.46,
0.332,-0.07,0.06,1.06,-0.76,0.23,0.45,
0.334,-0.07,0.06,1.06,-0.76,0.23,0.45,
0.337,-0.07,0.05,1.05,-0.76,0.23,0.45,
0.337,-0.07,0.05,1.05,-0.71,0.14,0.47,
0.339,-0.07,0.05,1.06,-0.71,0.14,0.47,
0.342,-0.07,0.06,1.06,-0.71,0.14,0.47,
0.342,-0.07,0.06,1.06,-0.69,0.08,0.47,
0.347,-0.07,0.05,1.06,-0.69,0.08,0.47,
0.348,-0.07,0.05,1.06,-0.70,0.08,0.47,
0.348,-0.07,0.05,1.05,-0.70,0.08,0.47,
0.349,-0.07,0.05,1.05,-0.70,0.08,0.47,
0.352,-0.07,0.05,1.06,-0.70,0.08,0.47,
0.352,-0.07,0.05,1.06,-0.72,0.04,0.45,
0.354,-0.08,0.05,1.06,-0.72,0.04,0.45,
0.357,-0.08,0.06,1.06,-0.72,0.04,0.45,
0.357,-0.08,0.06,1.06,-0.74,0.04,0.46,
0.359,-0.08,0.05,1.05,-0.74,0.04,0.46,
0.363,-0.09,0.05,1.06,-0.74,0.04,0.46,
0.363,-0.09,0.05,1.06,-0.82,0.07,0.46,
0.364,-0.09,0.06,1.05,-0.82,0.07,0.46,
0.366,-0.09,0.05,1.05,-0.82,0.07,0.46,
0.367,-0.09,0.05,1.05,-0.85,0.05,0.45,
0.369,-0.10,0.06,1.06,-0.85,0.05,0.45,
0.372,-0.10,0.06,1.06,-0.85,0.05,0.45,
0.372,-0.10,0.06,1.06,-0.89,0.09,0.41,
0.374,-0.11,0.06,1.05,-0.89,0.09,0.41,
0.376,-0.11,0.06,1.05,-0.89,0.09,0.41,
0.377,-0.11,0.06,1.05,-1.03,0.10,0.45,
0.379,-0.11,0.06,1.05,-1.03,0.10,0.45,
0.382,-0.11,0.07,1.05,-1.03,0.10,0.45,
0.382,-0.11,0.07,1.05,-1.10,0.11,0.41,
0.384,-0.12,0.07,1.04,-1.10,0.11,0.41,
0.386,-0.12,0.07,1.04,-1.10,0.11,0.41,
0.386,-0.12,0.07,1.04,-1.13,0.14,0.34,
0.389,-0.12,0.07,1.04,-1.13,0.14,0.34,
0.391,-0.12,0.08,1.03,-1.13,0.14,0.34,
0.391,-0.12,0.08,1.03,-1.16,0.17,0.27,
0.395,-0.12,0.08,1.03,-1.16,0.17,0.27,
0.396,-0.12,0.08,1.02,-1.16,0.17,0.27,
0.396,-0.12,0.08,1.02,-1.17,0.24,0.24,
0.398,-0.13,0.08,1.02,-1.17,0.24,0.24,
0.401,-0.13,0.08,1.02,-1.18,0.23,0.16,
0.401,-0.13,0.08,1.02,-1.18,0.23,0.16,
0.403,-0.13,0.07,1.01,-1.18,0.23,0.16,
0.406,-0.13,0.07,1.01,-1.18,0.23,0.16,
0.406,-0.13,0.07,1.01,-1.22,0.23,0.08,
0.408,-0.13,0.07,1.00,-1.22,0.23,0.08,
0.415,-0.13,0.07,0.99,-1.22,0.23,0.08,
0.416,-0.13,0.07,0.99,-1.24,0.17,0.00,
0.416,-0.14,0.07,1.00,-1.24,0.17,0.00,
0.416,-0.13,0.07,0.98,-1.24,0.17,0.00,
0.419,-0.13,0.07,0.98,-1.27,0.12,-0.13,
0.419,-0.14,0.06,0.98,-1.27,0.12,-0.13,
0.421,-0.14,0.06,0.97,-1.27,0.12,-0.13,
0.421,-0.14,0.06,0.97,-1.29,0.07,-0.23,
0.424,-0.14,0.06,0.96,-1.29,0.07,-0.23,
0.426,-0.13,0.05,0.96,-1.29,0.07,-0.23,
0.426,-0.13,0.05,0.96,-1.31,-0.00,-0.35,
0.428,-0.13,0.05,0.96,-1.31,-0.00,-0.35,
0.431,-0.14,0.05,0.95,-1.31,-0.00,-0.35,
0.431,-0.14,0.05,0.95,-1.28,-0.08,-0.48,
0.433,-0.14,0.05,0.95,-1.28,-0.08,-0.48,
0.436,-0.14,0.05,0.95,-1.28,-0.08,-0.48,
0.436,-0.14,0.05,0.95,-1.27,-0.10,-0.53,
0.438,-0.14,0.05,0.94,-1.27,-0.10,-0.53,
0.441,-0.14,0.06,0.93,-1.27,-0.10,-0.53,
0.441,-0.14,0.06,0.93,-1.29,-0.12,-0.61,
0.443,-0.14,0.05,0.94,-1.29,-0.12,-0.61,
0.446,-0.14,0.05,0.94,-1.28,-0.13,-0.68,
0.446,-0.14,0.05,0.93,-1.28,-0.13,-0.68,
0.448,-0.13,0.05,0.93,-1.28,-0.13,-0.68,
0.451,-0.13,0.05,0.94,-1.28,-0.13,-0.68,
0.451,-0.13,0.05,0.94,-1.28,-0.17,-0.71,
0.453,-0.13,0.06,0.94,-1.28,-0.17,-0.71,
0.456,-0.13,0.06,0.93,-1.28,-0.17,-0.71,
0.456,-0.13,0.06,0.93,-1.22,-0.19,-0.68,
0.458,-0.12,0.06,0.93,-1.22,-0.19,-0.68,
0.462,-0.12,0.07,0.93,-1.22,-0.19,-0.68,
0.462,-0.12,0.07,0.93,-1.20,-0.12,-0.70,
0.463,-0.11,0.08,0.93,-1.20,-0.12,-0.70,
0.466,-0.11,0.08,0.92,-1.20,-0.12,-0.70,
0.466,-0.11,0.08,0.92,-1.09,-0.03,-0.76,
0.468,-0.10,0.09,0.92,-1.09,-0.03,-0.76,
0.471,-0.10,0.10,0.92,-1.09,-0.03,-0.76,
0.471,-0.10,0.10,0.92,-0.97,0.09,-0.79,
0.473,-0.10,0.10,0.91,-0.97,0.09,-0.79,
0.475,-0.09,0.11,0.91,-0.97,0.09,-0.79,
0.476,-0.09,0.11,0.91,-0.86,0.19,-0.80,
0.479,-0.09,0.11,0.91,-0.86,0.19,-0.80,
0.48,-0.09,0.11,0.90,-0.86,0.19,-0.80,
0.481,-0.09,0.11,0.90,-0.81,0.30,-0.88,
0.483,-0.09,0.11,0.90,-0.81,0.30,-0.88,
0.485,-0.09,0.12,0.89,-0.81,0.30,-0.88,
0.486,-0.09,0.12,0.89,-0.77,0.33,-0.95,
0.487,-0.09,0.12,0.89,-0.77,0.33,-0.95,
0.491,-0.09,0.11,0.88,-0.77,0.33,-0.95,
0.491,-0.09,0.11,0.88,-0.72,0.34,-1.04,
0.493,-0.09,0.11,0.87,-0.72,0.34,-1.04,
0.496,-0.09,0.11,0.87,-0.72,0.34,-1.04,
0.498,-0.09,0.11,0.87,-0.72,0.29,-1.12,
0.498,-0.09,0.10,0.87,-0.72,0.29,-1.12,
0.501,-0.09,0.10,0.86,-0.72,0.29,-1.12,
0.502,-0.09,0.10,0.86,-0.74,0.22,-1.27,
0.504,-0.09,0.10,0.85,-0.74,0.22,-1.27,
0.506,-0.09,0.09,0.85,-0.74,0.22,-1.27,
0.506,-0.09,0.09,0.85,-0.74,0.11,-1.32,
0.508,-0.09,0.09,0.85,-0.74,0.11,-1.32,
0.511,-0.09,0.08,0.84,-0.74,0.11,-1.32,
0.511,-0.09,0.08,0.84,-0.73,0.04,-1.42,
0.52,-0.10,0.08,0.85,-0.73,0.04,-1.42,
0.52,-0.10,0.08,0.85,-0.74,-0.08,-1.48,
0.52,-0.10,0.07,0.84,-0.74,-0.08,-1.48,
0.52,-0.10,0.06,0.84,-0.74,-0.08,-1.48,
0.52,-0.10,0.06,0.85,-0.74,-0.08,-1.48,
0.521,-0.10,0.06,0.85,-0.75,-0.17,-1.44,
0.522,-0.10,0.06,0.85,-0.75,-0.17,-1.44,
0.525,-0.10,0.06,0.85,-0.75,-0.17,-1.44,
0.525,-0.10,0.06,0.85,-0.78,-0.28,-1.44,
0.528,-0.11,0.05,0.86,-0.78,-0.28,-1.44,
0.53,-0.11,0.05,0.86,-0.78,-0.28,-1.44,
0.53,-0.11,0.05,0.86,-0.79,-0.33,-1.36,
0.533,-0.11,0.05,0.87,-0.79,-0.33,-1.36,
0.536,-0.12,0.04,0.88,-0.79,-0.33,-1.36,
0.536,-0.12,0.04,0.88,-0.82,-0.41,-1.26,
0.538,-0.12,0.04,0.88,-0.82,-0.41,-1.26,
0.541,-0.12,0.04,0.89,-0.82,-0.41,-1.26,
0.541,-0.12,0.04,0.89,-0.88,-0.45,-1.09,
0.543,-0.11,0.04,0.90,-0.88,-0.45,-1.09,
0.546,-0.11,0.05,0.90,-0.88,-0.45,-1.09,
0.547,-0.11,0.05,0.90,-0.88,-0.50,-1.00,
0.548,-0.10,0.06,0.91,-0.88,-0.50,-1.00,
0.55,-0.10,0.06,0.92,-0.88,-0.50,-1.00,
0.55,-0.10,0.06,0.92,-0.81,-0.45,-0.87,
0.552,-0.08,0.07,0.93,-0.81,-0.45,-0.87,
0.555,-0.07,0.09,0.93,-0.81,-0.45,-0.87,
0.556,-0.07,0.09,0.93,-0.68,-0.29,-0.73,
0.558,-0.06,0.10,0.94,-0.68,-0.29,-0.73,
0.56,-0.05,0.12,0.95,-0.68,-0.29,-0.73,
0.561,-0.05,0.12,0.95,-0.48,-0.08,-0.55,
0.563,-0.04,0.13,0.96,-0.48,-0.08,-0.55,
0.565,-0.04,0.14,0.95,-0.48,-0.08,-0.55,
0.565,-0.04,0.14,0.95,-0.23,0.19,-0.43,
0.567,-0.04,0.15,0.95,-0.23,0.19,-0.43,
0.57,-0.03,0.15,0.96,-0.23,0.19,-0.43,
0.571,-0.03,0.15,0.96,-0.10,0.47,-0.28,
0.572,-0.03,0.15,0.96,-0.10,0.47,-0.28,
0.575,-0.03,0.15,0.96,-0.10,0.47,-0.28,
0.575,-0.03,0.15,0.96,-0.06,0.60,-0.30,
0.577,-0.03,0.14,0.96,-0.06,0.60,-0.30,
0.58,-0.04,0.13,0.96,-0.06,0.60,-0.30,
0.58,-0.04,0.13,0.96,-0.05,0.58,-0.27,
0.582,-0.05,0.13,0.96,-0.05,0.58,-0.27,
0.585,-0.05,0.12,0.96,-0.05,0.58,-0.27,
0.586,-0.05,0.12,0.96,-0.11,0.44,-0.26,
0.587,-0.06,0.12,0.96,-0.11,0.44,-0.26,
0.59,-0.07,0.12,0.96,-0.11,0.44,-0.26,
0.59,-0.07,0.12,0.96,-0.21,0.33,-0.26,
0.592,-0.07,0.11,0.94,-0.21,0.33,-0.26,
0.595,-0.07,0.11,0.94,-0.21,0.33,-0.26,
0.595,-0.07,0.11,0.94,-0.36,0.25,-0.28,
0.597,-0.08,0.11,0.94,-0.36,0.25,-0.28,
0.6,-0.09,0.10,0.93,-0.36,0.25,-0.28,
0.6,-0.09,0.10,0.93,-0.44,0.16,-0.40,
0.602,-0.09,0.09,0.93,-0.44,0.16,-0.40,
0.605,-0.10,0.09,0.93,-0.44,0.16,-0.40,
0.605,-0.10,0.09,0.93,-0.55,0.07,-0.47,
0.607,-0.10,0.09,0.92,-0.55,0.07,-0.47,
0.61,-0.10,0.08,0.92,-0.55,0.07,-0.47,
0.61,-0.10,0.08,0.92,-0.66,-0.05,-0.52,
0.612,-0.10,0.07,0.92,-0.66,-0.05,-0.52,
0.618,-0.10,0.07,0.92,-0.66,-0.05,-0.52,
0.618,-0.10,0.07,0.92,-0.70,-0.13,-0.60,
0.619,-0.10,0.07,0.92,-0.70,-0.13,-0.60,
0.62,-0.10,0.06,0.92,-0.70,-0.13,-0.60,
0.62,-0.10,0.06,0.92,-0.71,-0.25,-0.61,
0.622,-0.10,0.06,0.93,-0.71,-0.25,-0.61,
0.624,-0.10,0.05,0.93,-0.71,-0.25,-0.61,
0.625,-0.10,0.05,0.93,-0.68,-0.35,-0.56,
0.627,-0.10,0.05,0.95,-0.68,-0.35,-0.56,
0.631,-0.09,0.05,0.94,-0.68,-0.35,-0.56,
0.631,-0.09,0.05,0.94,-0.66,-0.41,-0.49,
0.631,-0.09,0.04,0.95,-0.66,-0.41,-0.49,
0.634,-0.09,0.05,0.96,-0.66,-0.41,-0.49,
0.635,-0.09,0.05,0.96,-0.60,-0.50,-0.37,
0.637,-0.08,0.04,0.98,-0.60,-0.50,-0.37,
0.639,-0.07,0.04,0.99,-0.60,-0.50,-0.37,
0.64,-0.07,0.04,0.99,-0.51,-0.52,-0.25,
0.641,-0.07,0.05,1.00,-0.51,-0.52,-0.25,
0.644,-0.06,0.06,1.01,-0.51,-0.52,-0.25,
0.644,-0.06,0.06,1.01,-0.40,-0.54,0.01,
0.646,-0.05,0.06,1.01,-0.40,-0.54,0.01,
0.649,-0.04,0.07,1.02,-0.40,-0.54,0.01,
0.649,-0.04,0.07,1.02,-0.25,-0.41,0.21,
0.651,-0.03,0.07,1.02,-0.25,-0.41,0.21,
0.654,-0.03,0.08,1.02,-0.25,-0.41,0.21,
0.656,-0.03,0.08,1.02,-0.07,-0.34,0.36,
0.656,-0.01,0.09,1.02,-0.07,-0.34,0.36,
0.659,-0.01,0.09,1.03,-0.07,-0.34,0.36,
0.659,-0.01,0.09,1.03,0.11,-0.26,0.42,
0.661,-0.01,0.10,1.03,0.11,-0.26,0.42,
0.665,-0.00,0.10,1.03,0.11,-0.26,0.42,
0.665,-0.00,0.10,1.03,0.30,-0.13,0.45,
0.666,-0.00,0.11,1.02,0.30,-0.13,0.45,
0.669,-0.00,0.11,1.02,0.37,-0.03,0.45,
0.669,-0.00,0.11,1.01,0.37,-0.03,0.45,
0.671,-0.00,0.11,1.00,0.37,-0.03,0.45,
0.673,-0.01,0.11,0.99,0.37,-0.03,0.45,
0.674,-0.01,0.11,0.99,0.42,0.04,0.31,
0.676,-0.01,0.11,0.97,0.42,0.04,0.31,
0.68,-0.01,0.11,0.96,0.42,0.04,0.31,
0.68,-0.01,0.11,0.96,0.40,0.00,0.12,
0.682,-0.02,0.10,0.94,0.40,0.00,0.12,
0.683,-0.02,0.09,0.93,0.40,0.00,0.12,
0.684,-0.02,0.09,0.93,0.34,-0.05,-0.14,
0.686,-0.03,0.09,0.91,0.34,-0.05,-0.14,
0.689,-0.03,0.09,0.90,0.34,-0.05,-0.14,
0.689,-0.03,0.09,0.90,0.28,-0.17,-0.43,
0.69,-0.04,0.09,0.89,0.28,-0.17,-0.43,
0.693,-0.04,0.09,0.88,0.28,-0.17,-0.43,
0.693,-0.04,0.09,0.88,0.18,-0.27,-0.71,
0.696,-0.05,0.09,0.86,0.18,-0.27,-0.71,
0.698,-0.06,0.09,0.85,0.18,-0.27,-0.71,
0.698,-0.06,0.09,0.85,0.08,-0.31,-0.93,
0.7,-0.07,0.09,0.83,0.08,-0.31,-0.93,
0.703,-0.08,0.09,0.83,0.08,-0.31,-0.93,
0.704,-0.08,0.09,0.83,-0.06,-0.33,-1.20,
0.705,-0.08,0.09,0.83,-0.06,-0.33,-1.20,
0.709,-0.08,0.09,0.82,-0.06,-0.33,-1.20,
0.709,-0.08,0.09,0.82,-0.20,-0.39,-1.38,
0.71,-0.08,0.09,0.82,-0.20,-0.39,-1.38,
0.717,-0.08,0.09,0.82,-0.20,-0.39,-1.38,
0.717,-0.08,0.09,0.82,-0.28,-0.41,-1.45,
0.718,-0.08,0.09,0.83,-0.28,-0.41,-1.45,
0.718,-0.08,0.09,0.85,-0.28,-0.41,-1.45,
0.718,-0.08,0.09,0.85,-0.27,-0.41,-1.45,
0.72,-0.08,0.09,0.86,-0.27,-0.41,-1.45,
0.723,-0.07,0.10,0.87,-0.27,-0.41,-1.45,
0.723,-0.07,0.10,0.87,-0.23,-0.42,-1.25,
0.725,-0.07,0.10,0.89,-0.23,-0.42,-1.25,
0.728,-0.06,0.11,0.89,-0.23,-0.42,-1.25,
0.728,-0.06,0.11,0.89,-0.19,-0.34,-1.03,
0.73,-0.05,0.11,0.91,-0.19,-0.34,-1.03,
0.733,-0.04,0.11,0.92,-0.19,-0.34,-1.03,
0.733,-0.04,0.11,0.92,-0.03,-0.30,-0.77,
0.735,-0.03,0.12,0.93,-0.03,-0.30,-0.77,
0.738,-0.03,0.12,0.93,0.17,-0.20,-0.54,
0.738,-0.02,0.13,0.94,0.17,-0.20,-0.54,
0.74,-0.00,0.13,0.96,0.17,-0.20,-0.54,
0.743,0.01,0.13,0.97,0.17,-0.20,-0.54,
0.743,0.01,0.13,0.97,0.34,-0.09,-0.30,
0.745,0.02,0.14,0.98,0.34,-0.09,-0.30,
0.749,0.02,0.14,0.99,0.34,-0.09,-0.30,
0.749,0.02,0.14,0.99,0.59,0.00,0.01,
0.75,0.03,0.14,0.99,0.59,0.00,0.01,
0.753,0.04,0.14,0.98,0.59,0.00,0.01,
0.753,0.04,0.14,0.98,0.78,0.07,0.19,
0.755,0.05,0.14,0.98,0.78,0.07,0.19,
0.758,0.05,0.14,0.97,0.78,0.07,0.19,
0.758,0.05,0.14,0.97,0.90,0.06,0.18,
0.76,0.05,0.13,0.96,0.90,0.06,0.18,
0.764,0.05,0.13,0.95,0.90,0.06,0.18,
0.765,0.05,0.13,0.95,1.02,0.08,0.07,
0.766,0.06,0.12,0.95,1.02,0.08,0.07,
0.767,0.06,0.12,0.95,1.07,-0.07,-0.06,
0.768,0.06,0.12,0.93,1.07,-0.07,-0.06,
0.77,0.07,0.11,0.93,1.07,-0.07,-0.06,
0.772,0.08,0.11,0.93,1.07,-0.07,-0.06,
0.773,0.08,0.11,0.93,1.14,-0.16,-0.25,
0.775,0.08,0.11,0.91,1.14,-0.16,-0.25,
0.777,0.09,0.11,0.90,1.14,-0.16,-0.25,
0.778,0.09,0.11,0.90,1.22,-0.26,-0.39,
0.78,0.09,0.11,0.89,1.22,-0.26,-0.39,
0.782,0.09,0.11,0.88,1.22,-0.26,-0.39,
0.783,0.09,0.11,0.88,1.32,-0.30,-0.61,
0.785,0.10,0.10,0.87,1.32,-0.30,-0.61,
0.787,0.10,0.10,0.87,1.32,-0.30,-0.61,
0.788,0.10,0.10,0.87,1.38,-0.32,-0.76,
0.79,0.10,0.09,0.86,1.38,-0.32,-0.76,
0.793,0.10,0.09,0.86,1.41,-0.40,-0.92,
0.793,0.10,0.09,0.85,1.41,-0.40,-0.92,
0.794,0.10,0.09,0.85,1.41,-0.40,-0.92,
0.798,0.10,0.08,0.84,1.41,-0.40,-0.92,
0.798,0.10,0.08,0.84,1.40,-0.49,-1.07,
0.799,0.11,0.08,0.84,1.40,-0.49,-1.07,
0.802,0.11,0.08,0.84,1.40,-0.49,-1.07,
0.802,0.11,0.08,0.84,1.42,-0.58,-1.15,
0.805,0.11,0.07,0.84,1.42,-0.58,-1.15,
0.807,0.11,0.07,0.84,1.42,-0.58,-1.15,
0.807,0.11,0.07,0.84,1.45,-0.64,-1.20,
0.809,0.11,0.07,0.85,1.45,-0.64,-1.20,
0.812,0.11,0.06,0.85,1.45,-0.64,-1.20,
0.812,0.11,0.06,0.85,1.44,-0.67,-1.20,
0.818,0.11,0.06,0.86,1.44,-0.67,-1.20,
0.819,0.11,0.06,0.86,1.46,-0.74,-1.10,
0.819,0.12,0.07,0.87,1.46,-0.74,-1.10,
0.822,0.12,0.06,0.87,1.46,-0.74,-1.10,
0.823,0.13,0.06,0.88,1.46,-0.74,-1.10,
0.823,0.13,0.06,0.88,1.50,-0.76,-0.96,
0.824,0.13,0.06,0.88,1.50,-0.76,-0.96,
0.827,0.13,0.06,0.88,1.59,-0.81,-0.86,
0.827,0.14,0.06,0.89,1.59,-0.81,-0.86,
0.832,0.14,0.05,0.90,1.59,-0.81,-0.86,
0.833,0.15,0.05,0.90,1.59,-0.81,-0.86,
0.833,0.15,0.05,0.90,1.66,-0.83,-0.73,
0.834,0.15,0.05,0.91,1.66,-0.83,-0.73,
0.838,0.16,0.05,0.91,1.66,-0.83,-0.73,
0.838,0.16,0.05,0.91,1.78,-0.87,-0.58,
0.84,0.17,0.05,0.91,1.78,-0.87,-0.58,
0.842,0.17,0.05,0.91,1.89,-0.89,-0.52,
0.843,0.18,0.05,0.91,1.89,-0.89,-0.52,
0.845,0.18,0.05,0.91,1.89,-0.89,-0.52,
0.848,0.18,0.05,0.90,1.89,-0.89,-0.52,
0.848,0.18,0.05,0.90,2.07,-0.91,-0.53,
0.849,0.19,0.05,0.90,2.07,-0.91,-0.53,
0.852,0.20,0.05,0.89,2.07,-0.91,-0.53,
0.853,0.20,0.05,0.89,2.12,-0.93,-0.56,
0.854,0.20,0.05,0.89,2.12,-0.93,-0.56,
0.857,0.20,0.05,0.88,2.12,-0.93,-0.56,
0.857,0.20,0.05,0.88,2.24,-0.91,-0.63,
0.859,0.20,0.05,0.87,2.24,-0.91,-0.63,
0.862,0.20,0.06,0.86,2.24,-0.91,-0.63,
0.862,0.20,0.06,0.86,2.30,-0.91,-0.79,
0.864,0.20,0.07,0.85,2.30,-0.91,-0.79,
0.867,0.20,0.07,0.85,2.26,-0.88,-0.97,
0.867,0.20,0.07,0.84,2.26,-0.88,-0.97,
0.869,0.19,0.07,0.83,2.26,-0.88,-0.97,
0.872,0.18,0.08,0.81,2.26,-0.88,-0.97,
0.872,0.18,0.08,0.81,2.27,-0.75,-1.17,
0.874,0.18,0.09,0.81,2.27,-0.75,-1.17,
0.877,0.17,0.09,0.80,2.27,-0.75,-1.17,
0.877,0.17,0.09,0.80,2.13,-0.74,-1.39,
0.879,0.16,0.10,0.79,2.13,-0.74,-1.39,
0.881,0.16,0.10,0.78,2.13,-0.74,-1.39,
0.882,0.16,0.10,0.78,2.03,-0.59,-1.53,
0.884,0.15,0.11,0.78,2.03,-0.59,-1.53,
0.887,0.13,0.11,0.77,2.03,-0.59,-1.53,
0.887,0.13,0.11,0.77,1.88,-0.49,-1.71,
0.889,0.12,0.10,0.77,1.88,-0.49,-1.71,
0.892,0.12,0.10,0.77,1.69,-0.44,-1.79,
0.892,0.12,0.11,0.77,1.69,-0.44,-1.79,
0.894,0.10,0.10,0.77,1.69,-0.44,-1.79,
0.901,0.10,0.10,0.78,1.69,-0.44,-1.79,
0.901,0.10,0.10,0.78,1.49,-0.43,-1.84,
0.901,0.09,0.10,0.79,1.49,-0.43,-1.84,
0.902,0.08,0.10,0.79,1.49,-0.43,-1.84,
0.902,0.08,0.10,0.79,1.31,-0.48,-1.79,
0.904,0.08,0.10,0.80,1.31,-0.48,-1.79,
0.906,0.08,0.10,0.81,1.31,-0.48,-1.79,
0.907,0.08,0.10,0.81,1.15,-0.46,-1.67,
0.909,0.08,0.10,0.82,1.15,-0.46,-1.67,
0.912,0.07,0.10,0.83,1.15,-0.46,-1.67,
0.912,0.07,0.10,0.83,1.11,-0.48,-1.49,
0.913,0.07,0.10,0.84,1.11,-0.48,-1.49,
0.916,0.07,0.10,0.84,1.04,-0.44,-1.30,
0.917,0.08,0.10,0.85,1.04,-0.44,-1.30,
0.919,0.08,0.10,0.87,1.04,-0.44,-1.30,
0.922,0.09,0.10,0.88,1.04,-0.44,-1.30,
0.922,0.09,0.10,0.88,1.07,-0.43,-1.09,
0.924,0.09,0.10,0.89,1.07,-0.43,-1.09,
0.928,0.10,0.10,0.90,1.07,-0.43,-1.09,
0.928,0.10,0.10,0.90,1.16,-0.41,-0.81,
0.928,0.11,0.10,0.91,1.16,-0.41,-0.81,
0.932,0.12,0.09,0.92,1.16,-0.41,-0.81,
0.932,0.12,0.09,0.92,1.25,-0.43,-0.58,
0.934,0.12,0.09,0.93,1.25,-0.43,-0.58,
0.936,0.13,0.09,0.93,1.25,-0.43,-0.58,
0.936,0.13,0.09,0.93,1.42,-0.42,-0.42,
0.939,0.13,0.09,0.94,1.42,-0.42,-0.42,
0.942,0.13,0.09,0.94,1.53,-0.45,-0.24,
0.942,0.14,0.08,0.94,1.53,-0.45,-0.24,
0.944,0.15,0.08,0.94,1.53,-0.45,-0.24,
0.946,0.16,0.09,0.95,1.53,-0.45,-0.24,
0.947,0.16,0.09,0.95,1.67,-0.47,-0.17,
0.95,0.16,0.08,0.95,1.67,-0.47,-0.17,
0.951,0.16,0.08,0.94,1.67,-0.47,-0.17,
0.951,0.16,0.08,0.94,1.84,-0.46,-0.09,
0.953,0.17,0.08,0.95,1.84,-0.46,-0.09,
0.956,0.17,0.08,0.95,1.84,-0.46,-0.09,
0.957,0.17,0.08,0.95,1.92,-0.49,-0.11,
0.958,0.17,0.07,0.95,1.92,-0.49,-0.11,
0.961,0.17,0.07,0.95,1.92,-0.49,-0.11,
0.962,0.17,0.07,0.95,2.02,-0.48,-0.10,
0.964,0.17,0.07,0.94,2.02,-0.48,-0.10,
0.966,0.17,0.07,0.94,2.05,-0.54,-0.11,
0.966,0.16,0.07,0.94,2.05,-0.54,-0.11,
0.968,0.16,0.07,0.95,2.05,-0.54,-0.11,
0.971,0.15,0.06,0.94,2.05,-0.54,-0.11,
0.972,0.15,0.06,0.94,2.02,-0.57,-0.14,
0.974,0.15,0.06,0.94,2.02,-0.57,-0.14,
0.976,0.15,0.06,0.94,2.02,-0.57,-0.14,
0.976,0.15,0.06,0.94,1.96,-0.59,-0.14,
0.978,0.14,0.06,0.94,1.96,-0.59,-0.14,
0.981,0.14,0.05,0.94,1.96,-0.59,-0.14,
0.981,0.14,0.05,0.94,1.88,-0.64,-0.18,
0.983,0.14,0.05,0.95,1.88,-0.64,-0.18,
0.987,0.13,0.05,0.95,1.88,-0.64,-0.18,
0.987,0.13,0.05,0.95,1.81,-0.64,-0.18,
0.988,0.13,0.05,0.95,1.81,-0.64,-0.18,
0.991,0.13,0.05,0.95,1.75,-0.67,-0.10,
0.991,0.13,0.04,0.96,1.75,-0.67,-0.10,
0.993,0.13,0.05,0.97,1.75,-0.67,-0.10,
0.996,0.13,0.05,0.97,1.75,-0.67,-0.10,
0.996,0.13,0.05,0.97,1.72,-0.70,-0.04,
0.999,0.13,0.04,0.97,1.72,-0.70,-0.04,
1.0,0.13,0.05,0.98,1.72,-0.70,-0.04,
1.001,0.13,0.05,0.98,1.72,-0.67,0.11,
1.003,0.14,0.06,0.99,1.72,-0.67,0.11,
1.005,0.14,0.05,1.00,1.72,-0.67,0.11,
1.005,0.14,0.05,1.00,1.78,-0.63,0.18,
1.007,0.15,0.06,1.01,1.78,-0.63,0.18,
1.011,0.16,0.06,1.02,1.78,-0.63,0.18,
1.011,0.16,0.06,1.02,1.85,-0.54,0.34,
1.012,0.16,0.06,1.02,1.85,-0.54,0.34,
1.02,0.17,0.06,1.04,1.85,-0.54,0.34,
1.02,0.17,0.06,1.04,2.00,-0.49,0.52,
1.02,0.18,0.06,1.04,2.00,-0.49,0.52,
1.021,0.18,0.06,1.05,2.00,-0.49,0.52,
1.021,0.18,0.06,1.05,2.09,-0.43,0.68,
1.023,0.18,0.06,1.06,2.09,-0.43,0.68,
1.025,0.19,0.06,1.07,2.09,-0.43,0.68,
1.025,0.19,0.06,1.07,2.24,-0.39,0.86,
1.027,0.19,0.06,1.07,2.24,-0.39,0.86,
1.03,0.20,0.05,1.08,2.24,-0.39,0.86,
1.03,0.20,0.05,1.08,2.28,-0.38,0.99,
1.032,0.20,0.05,1.07,2.28,-0.38,0.99,
1.035,0.20,0.05,1.07,2.28,-0.38,0.99,
1.035,0.20,0.05,1.07,2.36,-0.41,1.12,
1.037,0.21,0.04,1.07,2.36,-0.41,1.12,
1.04,0.21,0.04,1.07,2.43,-0.47,1.08,
1.04,0.21,0.04,1.07,2.43,-0.47,1.08,
1.042,0.20,0.05,1.06,2.43,-0.47,1.08,
1.045,0.20,0.04,1.05,2.43,-0.47,1.08,
1.045,0.20,0.04,1.05,2.47,-0.48,1.06,
1.048,0.20,0.04,1.05,2.47,-0.48,1.06,
1.051,0.20,0.05,1.05,2.47,-0.48,1.06,
1.051,0.20,0.05,1.05,2.43,-0.44,0.92,
1.052,0.19,0.05,1.05,2.43,-0.44,0.92,
1.055,0.19,0.05,1.05,2.43,-0.44,0.92,
1.055,0.19,0.05,1.05,2.37,-0.43,0.87,
1.057,0.19,0.04,1.03,2.37,-0.43,0.87,
1.06,0.19,0.05,1.03,2.37,-0.43,0.87,
1.06,0.19,0.05,1.03,2.30,-0.42,0.82,
1.062,0.18,0.05,1.03,2.30,-0.42,0.82,
1.065,0.18,0.05,1.03,2.25,-0.42,0.65,
1.066,0.18,0.05,1.03,2.25,-0.42,0.65,
1.067,0.17,0.05,1.02,2.25,-0.42,0.65,
1.069,0.17,0.05,1.02,2.25,-0.42,0.65,
1.07,0.17,0.05,1.02,2.17,-0.40,0.65,
1.072,0.16,0.05,1.01,2.17,-0.40,0.65,
1.074,0.16,0.05,1.01,2.04,-0.40,0.53,
1.075,0.15,0.05,1.00,2.04,-0.40,0.53,
1.077,0.15,0.05,1.01,2.04,-0.40,0.53,
1.079,0.15,0.05,1.01,2.04,-0.40,0.53,
1.08,0.15,0.05,1.01,1.93,-0.40,0.42,
1.083,0.15,0.05,1.01,1.93,-0.40,0.42,
1.087,0.15,0.05,1.01,1.93,-0.40,0.42,
1.087,0.15,0.05,1.01,1.84,-0.39,0.44,
1.088,0.15,0.06,1.02,1.84,-0.39,0.44,
1.089,0.15,0.06,1.02,1.83,-0.37,0.45,
1.09,0.14,0.06,1.03,1.83,-0.37,0.45,
1.092,0.14,0.06,1.03,1.83,-0.37,0.45,
1.094,0.14,0.06,1.03,1.83,-0.37,0.45,
1.094,0.14,0.06,1.03,1.82,-0.31,0.59,
1.096,0.14,0.07,1.03,1.82,-0.31,0.59,
1.101,0.14,0.07,1.03,1.82,-0.31,0.59,
1.102,0.14,0.07,1.03,1.77,-0.28,0.61,
1.102,0.15,0.07,1.03,1.77,-0.28,0.61,
1.104,0.14,0.06,1.03,1.77,-0.28,0.61,
1.104,0.14,0.06,1.03,1.75,-0.24,0.62,
1.107,0.15,0.06,1.03,1.75,-0.24,0.62,
1.109,0.15,0.05,1.04,1.75,-0.24,0.62,
1.11,0.15,0.05,1.04,1.81,-0.30,0.64,
1.111,0.14,0.04,1.04,1.81,-0.30,0.64,
1.121,0.14,0.04,1.04,1.83,-0.39,0.70,
1.121,0.14,0.04,1.05,1.83,-0.39,0.70,
1.122,0.15,0.03,1.06,1.83,-0.39,0.70,
1.122,0.14,0.02,1.05,1.83,-0.39,0.70,
1.124,0.14,0.02,1.05,1.78,-0.52,0.83,
1.124,0.16,0.03,1.05,1.78,-0.52,0.83,
1.125,0.16,0.04,1.06,1.78,-0.52,0.83,
1.125,0.16,0.04,1.06,1.83,-0.67,0.90,
1.126,0.18,0.04,1.05,1.83,-0.67,0.90,
1.13,0.19,0.04,1.05,1.83,-0.67,0.90,
1.13,0.19,0.04,1.05,1.99,-0.60,0.87,
1.134,0.19,0.04,1.05,1.99,-0.60,0.87,
1.135,0.20,0.04,1.05,1.99,-0.60,0.87,
1.135,0.20,0.04,1.05,2.25,-0.55,0.82,
1.136,0.21,0.04,1.05,2.25,-0.55,0.82,
1.139,0.21,0.04,1.05,2.39,-0.55,0.81,
1.14,0.22,0.04,1.05,2.39,-0.55,0.81,
1.141,0.22,0.03,1.05,2.39,-0.55,0.81,
1.144,0.23,0.03,1.04,2.39,-0.55,0.81,
1.144,0.23,0.03,1.04,2.53,-0.56,0.82,
1.146,0.22,0.03,1.04,2.53,-0.56,0.82,
1.15,0.23,0.02,1.03,2.53,-0.56,0.82,
1.154,0.23,0.02,1.03,2.66,-0.64,0.78,
1.155,0.23,0.01,1.04,2.66,-0.64,0.78,
1.155,0.23,0.01,1.03,2.66,-0.64,0.78,
1.155,0.23,0.01,1.03,2.66,-0.70,0.73,
1.156,0.23,0.01,1.03,2.66,-0.70,0.73,
1.159,0.23,0.00,1.03,2.66,-0.70,0.73,
1.16,0.23,0.00,1.03,2.70,-0.82,0.67,
1.161,0.23,-0.00,1.03,2.70,-0.82,0.67,
1.166,0.23,-0.00,1.03,2.69,-0.89,0.60,
1.167,0.23,-0.00,1.02,2.69,-0.89,0.60,
1.167,0.23,-0.00,1.02,2.69,-0.89,0.60,
1.169,0.23,0.00,1.01,2.69,-0.89,0.60,
1.169,0.23,0.00,1.01,2.73,-0.97,0.57,
1.171,0.24,0.00,1.01,2.73,-0.97,0.57,
1.175,0.25,0.01,1.01,2.73,-0.97,0.57,
1.175,0.25,0.01,1.01,2.75,-0.93,0.48,
1.177,0.25,0.02,1.01,2.75,-0.93,0.48,
1.179,0.26,0.02,1.01,2.75,-0.93,0.48,
1.179,0.26,0.02,1.01,2.85,-0.89,0.46,
1.181,0.25,0.02,1.01,2.85,-0.89,0.46,
1.185,0.25,0.03,1.00,2.85,-0.89,0.46,
1.185,0.25,0.03,1.00,2.92,-0.75,0.41,
1.186,0.25,0.03,1.00,2.92,-0.75,0.41,
1.189,0.24,0.03,1.00,2.92,-0.75,0.41,
1.189,0.24,0.03,1.00,2.91,-0.67,0.38,
1.191,0.24,0.03,1.00,2.91,-0.67,0.38,
1.194,0.23,0.03,1.01,2.91,-0.67,0.38,
1.194,0.23,0.03,1.01,2.85,-0.61,0.35,
1.196,0.23,0.03,1.00,2.85,-0.61,0.35,
1.199,0.23,0.03,1.00,2.85,-0.61,0.35,
1.199,0.23,0.03,1.00,2.74,-0.63,0.36,
1.204,0.22,0.03,1.00,2.74,-0.63,0.36,
1.208,0.22,0.03,1.00,2.74,-0.63,0.36,
1.208,0.22,0.03,1.00,2.65,-0.65,0.36,
1.209,0.21,0.04,1.00,2.65,-0.65,0.36,
1.209,0.21,0.04,1.00,2.65,-0.65,0.36,
1.209,0.21,0.04,1.00,2.56,-0.65,0.36,
1.211,0.20,0.04,1.00,2.56,-0.65,0.36,
1.213,0.20,0.04,1.00,2.49,-0.56,0.36,
1.214,0.19,0.04,1.00,2.49,-0.56,0.36,
1.216,0.19,0.04,1.00,2.49,-0.56,0.36,
1.218,0.19,0.04,1.00,2.49,-0.56,0.36,
1.219,0.19,0.04,1.00,2.34,-0.53,0.34,
1.221,0.18,0.05,1.01,2.34,-0.53,0.34,
1.224,0.18,0.04,1.01,2.34,-0.53,0.34,
1.224,0.18,0.04,1.01,2.29,-0.51,0.33,
1.226,0.18,0.05,1.01,2.29,-0.51,0.33,
1.228,0.18,0.05,1.02,2.29,-0.51,0.33,
1.228,0.18,0.05,1.02,2.22,-0.47,0.39,
1.231,0.17,0.05,1.02,2.22,-0.47,0.39,
1.234,0.17,0.05,1.01,2.22,-0.47,0.39,
1.234,0.17,0.05,1.01,2.17,-0.42,0.45,
1.235,0.16,0.06,1.02,2.17,-0.42,0.45,
1.238,0.16,0.05,1.01,2.17,-0.42,0.45,
1.239,0.16,0.05,1.01,2.11,-0.40,0.45,
1.241,0.16,0.05,1.01,2.11,-0.40,0.45,
1.244,0.16,0.05,1.00,2.11,-0.40,0.45,
1.244,0.16,0.05,1.00,2.03,-0.35,0.44,
1.246,0.16,0.05,1.00,2.03,-0.35,0.44,
1.251,0.16,0.05,1.00,2.03,-0.35,0.44,
1.251,0.16,0.05,1.00,1.98,-0.40,0.37,
1.252,0.16,0.05,0.99,1.98,-0.40,0.37,
1.253,0.16,0.04,0.99,1.98,-0.40,0.37,
1.253,0.16,0.04,0.99,1.96,-0.40,0.32,
1.256,0.16,0.05,0.99,1.96,-0.40,0.32,
1.258,0.17,0.05,0.99,1.96,-0.40,0.32,
1.259,0.17,0.05,0.99,1.98,-0.38,0.23,
1.261,0.17,0.06,0.99,1.98,-0.38,0.23,
1.263,0.17,0.06,0.99,2.02,-0.32,0.21,
1.264,0.18,0.06,0.99,2.02,-0.32,0.21,
1.265,0.18,0.07,0.99,2.02,-0.32,0.21,
1.268,0.17,0.07,0.99,2.02,-0.32,0.21,
1.269,0.17,0.07,0.99,2.08,-0.22,0.20,
1.27,0.17,0.07,0.99,2.08,-0.22,0.20,
1.273,0.17,0.08,1.00,2.08,-0.22,0.20,
1.274,0.17,0.08,1.00,2.11,-0.12,0.22,
1.276,0.17,0.07,1.01,2.11,-0.12,0.22,
1.278,0.17,0.07,1.01,2.11,-0.12,0.22,
1.278,0.17,0.07,1.01,2.08,-0.04,0.29,
1.281,0.17,0.07,1.01,2.08,-0.04,0.29,
1.285,0.17,0.08,1.02,2.08,-0.04,0.29,
1.285,0.17,0.08,1.02,2.07,-0.03,0.44,
1.285,0.17,0.07,1.02,2.07,-0.03,0.44,
1.288,0.17,0.08,1.03,2.07,-0.03,0.44,
1.289,0.17,0.08,1.03,2.01,-0.01,0.47,
1.289,0.17,0.07,1.03,2.01,-0.01,0.47,
1.292,0.17,0.07,1.04,2.01,-0.01,0.47,
1.293,0.17,0.07,1.04,2.06,0.02,0.54,
1.295,0.16,0.07,1.04,2.06,0.02,0.54,
1.297,0.16,0.08,1.05,2.06,0.02,0.54,
1.297,0.16,0.08,1.05,2.01,0.00,0.64,
1.301,0.16,0.07,1.05,2.01,0.00,0.64,
1.302,0.16,0.06,1.05,2.01,0.00,0.64,
1.303,0.16,0.06,1.05,1.98,0.03,0.75,
1.304,0.15,0.06,1.05,1.98,0.03,0.75,
1.307,0.14,0.06,1.06,1.98,0.03,0.75,
1.308,0.14,0.06,1.06,1.91,-0.01,0.81,
1.309,0.14,0.05,1.06,1.91,-0.01,0.81,
1.312,0.14,0.05,1.06,1.82,-0.07,0.85,
1.312,0.14,0.04,1.06,1.82,-0.07,0.85,
1.314,0.13,0.03,1.07,1.82,-0.07,0.85,
1.321,0.14,0.02,1.07,1.82,-0.07,0.85,
1.321,0.14,0.02,1.07,1.74,-0.20,0.91,
1.322,0.13,0.02,1.07,1.74,-0.20,0.91,
1.322,0.13,0.02,1.07,1.74,-0.20,0.91,
1.322,0.13,0.02,1.07,1.70,-0.35,0.98,
1.325,0.13,0.01,1.09,1.70,-0.35,0.98,
1.327,0.13,0.01,1.09,1.70,-0.35,0.98,
1.327,0.13,0.01,1.09,1.65,-0.42,1.01,
1.329,0.13,-0.01,1.10,1.65,-0.42,1.01,
1.334,0.13,-0.01,1.11,1.65,-0.42,1.01,
1.335,0.13,-0.01,1.11,1.63,-0.48,1.14,
1.335,0.14,-0.01,1.12,1.63,-0.48,1.14,
1.337,0.14,-0.01,1.12,1.62,-0.58,1.29,
1.337,0.14,-0.02,1.13,1.62,-0.58,1.29,
1.339,0.14,-0.02,1.15,1.62,-0.58,1.29,
1.342,0.14,-0.03,1.17,1.62,-0.58,1.29,
1.342,0.14,-0.03,1.17,1.66,-0.64,1.49,
1.344,0.15,-0.03,1.17,1.66,-0.64,1.49,
1.347,0.15,-0.03,1.19,1.66,-0.64,1.49,
1.348,0.15,-0.03,1.19,1.67,-0.70,1.81,
1.35,0.16,-0.03,1.21,1.67,-0.70,1.81,
1.352,0.16,-0.03,1.22,1.67,-0.70,1.81,
1.352,0.16,-0.03,1.22,1.77,-0.69,2.07,
1.354,0.16,-0.03,1.24,1.77,-0.69,2.07,
1.357,0.16,-0.03,1.25,1.77,-0.69,2.07,
1.357,0.16,-0.03,1.25,1.84,-0.65,2.36,
1.359,0.16,-0.03,1.25,1.84,-0.65,2.36,
1.362,0.16,-0.03,1.25,1.88,-0.64,2.62,
1.362,0.16,-0.03,1.26,1.88,-0.64,2.62,
1.364,0.16,-0.03,1.26,1.88,-0.64,2.62,
1.367,0.16,-0.03,1.27,1.88,-0.64,2.62,
1.367,0.16,-0.03,1.27,1.85,-0.60,2.75,
1.369,0.16,-0.03,1.27,1.85,-0.60,2.75,
1.372,0.16,-0.03,1.27,1.85,-0.60,2.75,
1.372,0.16,-0.03,1.27,1.83,-0.57,2.83,
1.374,0.16,-0.03,1.27,1.83,-0.57,2.83,
1.376,0.15,-0.03,1.27,1.83,-0.57,2.83,
1.376,0.15,-0.03,1.27,1.83,-0.52,2.90,
1.379,0.15,-0.03,1.27,1.83,-0.52,2.90,
1.381,0.15,-0.03,1.26,1.83,-0.52,2.90,
1.382,0.15,-0.03,1.26,1.81,-0.50,2.88,
1.384,0.15,-0.03,1.25,1.81,-0.50,2.88,
1.386,0.15,-0.03,1.25,1.75,-0.44,2.79,
1.387,0.14,-0.03,1.24,1.75,-0.44,2.79,
1.388,0.14,-0.03,1.23,1.75,-0.44,2.79,
1.392,0.14,-0.03,1.22,1.75,-0.44,2.79,
1.392,0.14,-0.03,1.22,1.73,-0.45,2.60,
1.393,0.14,-0.03,1.20,1.73,-0.45,2.60,
1.396,0.14,-0.03,1.19,1.73,-0.45,2.60,
1.396,0.14,-0.03,1.19,1.65,-0.44,2.42,
1.398,0.14,-0.03,1.18,1.65,-0.44,2.42,
1.404,0.14,-0.03,1.16,1.65,-0.44,2.42,
1.404,0.14,-0.03,1.16,1.64,-0.42,2.12,
1.405,0.14,-0.03,1.15,1.64,-0.42,2.12,
1.407,0.13,-0.03,1.13,1.64,-0.42,2.12,
1.407,0.13,-0.03,1.13,1.58,-0.39,1.82,
1.408,0.13,-0.03,1.12,1.58,-0.39,1.82,
1.411,0.13,-0.03,1.12,1.54,-0.42,1.56,
1.412,0.13,-0.03,1.11,1.54,-0.42,1.56,
1.413,0.14,-0.04,1.10,1.54,-0.42,1.56,
1.417,0.13,-0.03,1.08,1.54,-0.42,1.56,
1.418,0.13,-0.03,1.08,1.47,-0.43,1.34,
1.418,0.13,-0.04,1.07,1.47,-0.43,1.34,
1.421,0.13,-0.03,1.07,1.47,-0.43,1.34,
1.421,0.13,-0.03,1.07,1.47,-0.45,1.08,
1.423,0.13,-0.04,1.06,1.47,-0.45,1.08,
1.426,0.13,-0.04,1.05,1.47,-0.45,1.08,
1.426,0.13,-0.04,1.05,1.43,-0.46,0.90,
1.428,0.14,-0.04,1.04,1.43,-0.46,0.90,
1.432,0.14,-0.04,1.04,1.41,-0.45,0.75,
1.432,0.14,-0.04,1.04,1.41,-0.45,0.75,
1.434,0.15,-0.04,1.04,1.41,-0.45,0.75,
1.436,0.15,-0.04,1.04,1.46,-0.43,0.61,
1.436,0.16,-0.04,1.04,1.46,-0.43,0.61,
1.438,0.16,-0.04,1.04,1.46,-0.43,0.61,
1.441,0.17,-0.04,1.05,1.46,-0.43,0.61,
1.441,0.17,-0.04,1.05,1.55,-0.42,0.57,
1.443,0.18,-0.04,1.05,1.55,-0.42,0.57,
1.446,0.18,-0.04,1.05,1.69,-0.42,0.64,
1.446,0.17,-0.04,1.06,1.69,-0.42,0.64,
1.448,0.17,-0.04,1.06,1.69,-0.42,0.64,
1.451,0.17,-0.04,1.07,1.69,-0.42,0.64,
1.451,0.17,-0.04,1.07,1.73,-0.41,0.71,
1.453,0.16,-0.05,1.07,1.73,-0.41,0.71,
1.456,0.16,-0.04,1.08,1.73,-0.41,0.71,
1.456,0.16,-0.04,1.08,1.69,-0.40,0.81,
1.458,0.15,-0.05,1.08,1.69,-0.40,0.81,
1.461,0.15,-0.05,1.08,1.61,-0.43,0.89,
1.461,0.15,-0.05,1.09,1.61,-0.43,0.89,
1.463,0.14,-0.05,1.09,1.61,-0.43,0.89,
1.465,0.13,-0.05,1.10,1.61,-0.43,0.89,
1.466,0.13,-0.05,1.10,1.50,-0.45,1.02,
1.468,0.13,-0.05,1.10,1.50,-0.45,1.02,
1.472,0.12,-0.05,1.11,1.50,-0.45,1.02,
1.472,0.12,-0.05,1.11,1.33,-0.45,1.11,
1.474,0.12,-0.05,1.11,1.33,-0.45,1.11,
1.476,0.11,-0.05,1.11,1.33,-0.45,1.11,
1.476,0.11,-0.05,1.11,1.23,-0.41,1.20,
1.478,0.11,-0.05,1.12,1.23,-0.41,1.20,
1.481,0.11,-0.04,1.12,1.23,-0.41,1.20,
1.482,0.11,-0.04,1.12,1.12,-0.35,1.25,
1.483,0.10,-0.04,1.13,1.12,-0.35,1.25,
1.486,0.10,-0.04,1.13,1.08,-0.27,1.35,
1.486,0.10,-0.04,1.13,1.08,-0.27,1.35,
1.488,0.09,-0.04,1.13,1.08,-0.27,1.35,
1.491,0.09,-0.04,1.14,1.08,-0.27,1.35,
1.491,0.09,-0.04,1.14,0.98,-0.21,1.40,
1.493,0.09,-0.04,1.13,0.98,-0.21,1.40,
1.495,0.09,-0.05,1.13,0.98,-0.21,1.40,
1.496,0.09,-0.05,1.13,0.88,-0.19,1.47,
1.499,0.09,-0.05,1.13,0.88,-0.19,1.47,
1.504,0.09,-0.06,1.14,0.88,-0.19,1.47,
1.505,0.09,-0.06,1.14,0.82,-0.19,1.45,
1.505,0.09,-0.06,1.13,0.82,-0.19,1.45,
1.505,0.09,-0.06,1.13,0.82,-0.19,1.45,
1.505,0.09,-0.06,1.13,0.76,-0.26,1.49,
1.508,0.09,-0.06,1.13,0.76,-0.26,1.49,
1.511,0.09,-0.06,1.13,0.78,-0.28,1.48,
1.511,0.10,-0.07,1.14,0.78,-0.28,1.48,
1.513,0.11,-0.07,1.14,0.78,-0.28,1.48,
1.516,0.11,-0.07,1.14,0.78,-0.28,1.48,
1.516,0.11,-0.07,1.14,0.79,-0.34,1.46,
1.518,0.11,-0.08,1.14,0.79,-0.34,1.46,
1.52,0.12,-0.08,1.14,0.79,-0.34,1.46,
1.52,0.12,-0.08,1.14,0.87,-0.35,1.53,
1.523,0.13,-0.08,1.14,0.87,-0.35,1.53,
1.526,0.13,-0.08,1.14,0.87,-0.35,1.53,
1.526,0.13,-0.08,1.14,0.93,-0.41,1.51,
1.528,0.13,-0.08,1.14,0.93,-0.41,1.51,
1.531,0.14,-0.08,1.14,0.93,-0.41,1.51,
1.531,0.14,-0.08,1.14,1.00,-0.39,1.51,
1.533,0.13,-0.08,1.13,1.00,-0.39,1.51,
1.535,0.13,-0.08,1.13,1.03,-0.38,1.48,
1.536,0.13,-0.08,1.14,1.03,-0.38,1.48,
1.537,0.13,-0.08,1.14,1.03,-0.38,1.48,
1.54,0.12,-0.09,1.14,1.03,-0.38,1.48,
1.54,0.12,-0.09,1.14,0.98,-0.40,1.47,
1.543,0.11,-0.09,1.13,0.98,-0.40,1.47,
1.545,0.11,-0.09,1.13,0.86,-0.43,1.50,
1.546,0.10,-0.08,1.13,0.86,-0.43,1.50,
1.548,0.09,-0.08,1.13,0.86,-0.43,1.50,
1.552,0.08,-0.08,1.14,0.86,-0.43,1.50,
1.553,0.08,-0.08,1.14,0.61,-0.43,1.43,
1.553,0.07,-0.08,1.14,0.61,-0.43,1.43,
1.555,0.06,-0.08,1.13,0.61,-0.43,1.43,
1.555,0.06,-0.08,1.13,0.41,-0.41,1.48,
1.558,0.05,-0.07,1.13,0.41,-0.41,1.48,
1.56,0.05,-0.07,1.13,0.19,-0.36,1.48,
1.561,0.04,-0.07,1.13,0.19,-0.36,1.48,
1.562,0.04,-0.07,1.13,0.19,-0.36,1.48,
1.565,0.03,-0.07,1.13,0.19,-0.36,1.48,
1.565,0.03,-0.07,1.13,-0.00,-0.31,1.43,
1.567,0.03,-0.06,1.13,-0.00,-0.31,1.43,
1.57,0.03,-0.06,1.12,-0.00,-0.31,1.43,
1.57,0.03,-0.06,1.12,-0.15,-0.25,1.42,
1.573,0.02,-0.06,1.11,-0.15,-0.25,1.42,
1.574,0.02,-0.06,1.11,-0.15,-0.25,1.42,
1.574,0.02,-0.06,1.11,-0.24,-0.17,1.37,
1.577,0.02,-0.06,1.10,-0.24,-0.17,1.37,
1.58,0.02,-0.05,1.10,-0.24,-0.17,1.37,
1.58,0.02,-0.05,1.10,-0.29,-0.17,1.25,
1.582,0.03,-0.06,1.10,-0.29,-0.17,1.25,
1.585,0.03,-0.06,1.10,-0.34,-0.15,1.13,
1.586,0.03,-0.05,1.09,-0.34,-0.15,1.13,
1.587,0.03,-0.06,1.08,-0.34,-0.15,1.13,
1.59,0.04,-0.06,1.08,-0.34,-0.15,1.13,
1.59,0.04,-0.06,1.08,-0.30,-0.16,1.08,
1.592,0.04,-0.06,1.08,-0.30,-0.16,1.08,
1.595,0.05,-0.06,1.07,-0.30,-0.16,1.08,
1.595,0.05,-0.06,1.07,-0.24,-0.19,0.95,
1.598,0.05,-0.06,1.06,-0.24,-0.19,0.95,
1.6,0.05,-0.07,1.05,-0.24,-0.19,0.95,
1.6,0.05,-0.07,1.05,-0.17,-0.23,0.84,
1.602,0.06,-0.07,1.04,-0.17,-0.23,0.84,
1.605,0.06,-0.07,1.04,-0.17,-0.23,0.84,
1.605,0.06,-0.07,1.04,-0.13,-0.29,0.67,
1.607,0.07,-0.07,1.04,-0.13,-0.29,0.67,
1.61,0.07,-0.07,1.04,-0.06,-0.36,0.56,
1.61,0.08,-0.08,1.02,-0.06,-0.36,0.56,
1.612,0.08,-0.08,1.02,-0.06,-0.36,0.56,
1.615,0.09,-0.08,1.02,-0.06,-0.36,0.56,
1.615,0.09,-0.08,1.02,0.03,-0.42,0.44,
1.617,0.09,-0.08,1.02,0.03,-0.42,0.44,
1.622,0.09,-0.08,1.01,0.03,-0.42,0.44,
1.623,0.09,-0.08,1.01,0.11,-0.50,0.36,
1.623,0.09,-0.09,1.01,0.11,-0.50,0.36,
1.624,0.08,-0.09,1.01,0.11,-0.50,0.36,
1.624,0.08,-0.09,1.01,0.12,-0.53,0.29,
1.627,0.08,-0.09,1.00,0.12,-0.53,0.29,
1.629,0.07,-0.10,0.99,0.12,-0.53,0.29,
1.629,0.07,-0.10,0.99,0.08,-0.61,0.24,
1.631,0.07,-0.10,1.00,0.08,-0.61,0.24,
1.636,0.07,-0.10,1.00,-0.01,-0.64,0.10,
1.636,0.06,-0.10,0.99,-0.01,-0.64,0.10,
1.636,0.05,-0.10,1.00,-0.01,-0.64,0.10,
1.639,0.04,-0.10,0.99,-0.01,-0.64,0.10,
1.639,0.04,-0.10,0.99,-0.16,-0.71,0.08,
1.641,0.04,-0.10,0.99,-0.16,-0.71,0.08,
1.644,0.03,-0.10,0.99,-0.16,-0.71,0.08,
1.646,0.03,-0.10,0.99,-0.37,-0.81,0.08,
1.646,0.02,-0.10,0.99,-0.37,-0.81,0.08,
1.649,0.02,-0.09,0.98,-0.37,-0.81,0.08,
1.649,0.02,-0.09,0.98,-0.48,-0.77,0.04,
1.651,0.01,-0.09,0.98,-0.48,-0.77,0.04,
1.654,-0.00,-0.09,0.98,-0.48,-0.77,0.04,
1.654,-0.00,-0.09,0.98,-0.62,-0.76,0.01,
1.656,-0.00,-0.09,0.99,-0.62,-0.76,0.01,
1.659,-0.00,-0.09,0.99,-0.78,-0.72,-0.01,
1.659,-0.01,-0.08,0.99,-0.78,-0.72,-0.01,
1.661,-0.01,-0.08,0.99,-0.78,-0.72,-0.01,
1.663,-0.01,-0.08,0.99,-0.89,-0.65,0.05,
1.664,-0.01,-0.08,0.99,-0.89,-0.65,0.05,
1.666,-0.01,-0.08,0.99,-0.89,-0.65,0.05,
1.67,-0.01,-0.07,0.99,-0.89,-0.65,0.05,
1.671,-0.01,-0.07,0.99,-0.95,-0.60,0.04,
1.671,-0.01,-0.07,0.99,-0.95,-0.60,0.04,
1.673,-0.01,-0.07,0.98,-0.95,-0.60,0.04,
1.674,-0.01,-0.07,0.98,-0.98,-0.57,0.04,
1.676,0.00,-0.06,0.98,-0.98,-0.57,0.04,
1.678,0.01,-0.06,0.98,-0.98,-0.57,0.04,
1.678,0.01,-0.06,0.98,-0.96,-0.51,0.05,
1.68,0.01,-0.06,0.97,-0.96,-0.51,0.05,
1.683,0.01,-0.06,0.97,-0.86,-0.46,-0.07,
1.683,0.02,-0.06,0.97,-0.86,-0.46,-0.07,
1.686,0.03,-0.06,0.97,-0.86,-0.46,-0.07,
1.688,0.04,-0.06,0.96,-0.86,-0.46,-0.07,
1.689,0.04,-0.06,0.96,-0.77,-0.44,-0.09,
1.69,0.05,-0.06,0.96,-0.77,-0.44,-0.09,
1.693,0.06,-0.06,0.95,-0.77,-0.44,-0.09,
1.693,0.06,-0.06,0.95,-0.62,-0.46,-0.19,
1.696,0.07,-0.06,0.95,-0.62,-0.46,-0.19,
1.698,0.08,-0.07,0.94,-0.62,-0.46,-0.19,
1.698,0.08,-0.07,0.94,-0.46,-0.49,-0.28,
1.702,0.09,-0.07,0.94,-0.46,-0.49,-0.28,
1.703,0.10,-0.07,0.95,-0.46,-0.49,-0.28,
1.703,0.10,-0.07,0.95,-0.29,-0.51,-0.36,
1.705,0.11,-0.07,0.94,-0.29,-0.51,-0.36,
1.708,0.11,-0.07,0.94,-0.15,-0.55,-0.38,
1.708,0.11,-0.06,0.94,-0.15,-0.55,-0.38,
1.711,0.11,-0.06,0.94,-0.15,-0.55,-0.38,
1.713,0.11,-0.06,0.94,-0.02,-0.53,-0.39,
1.714,0.11,-0.07,0.94,-0.02,-0.53,-0.39,
1.715,0.12,-0.06,0.93,-0.02,-0.53,-0.39,
1.723,0.12,-0.07,0.94,-0.02,-0.53,-0.39,
1.724,0.12,-0.07,0.94,0.04,-0.55,-0.46,
1.724,0.12,-0.07,0.94,0.04,-0.55,-0.46,
1.724,0.11,-0.07,0.93,0.04,-0.55,-0.46,
1.726,0.11,-0.07,0.93,0.09,-0.55,-0.45,
1.726,0.11,-0.07,0.94,0.09,-0.55,-0.45,
1.728,0.10,-0.08,0.94,0.09,-0.55,-0.45,
1.728,0.10,-0.08,0.94,0.02,-0.63,-0.43,
1.73,0.10,-0.08,0.94,0.02,-0.63,-0.43,
1.733,0.10,-0.08,0.94,-0.07,-0.67,-0.38,
1.733,0.09,-0.08,0.95,-0.07,-0.67,-0.38,
1.735,0.09,-0.07,0.95,-0.07,-0.67,-0.38,
1.738,0.09,-0.08,0.94,-0.07,-0.67,-0.38,
1.738,0.09,-0.08,0.94,-0.12,-0.70,-0.36,
1.74,0.08,-0.07,0.94,-0.12,-0.70,-0.36,
1.743,0.08,-0.08,0.94,-0.12,-0.70,-0.36,
1.743,0.08,-0.08,0.94,-0.21,-0.73,-0.38,
1.745,0.07,-0.07,0.94,-0.21,-0.73,-0.38,
1.748,0.07,-0.07,0.93,-0.21,-0.73,-0.38,
1.748,0.07,-0.07,0.93,-0.28,-0.73,-0.40,
1.75,0.07,-0.07,0.93,-0.28,-0.73,-0.40,
1.754,0.07,-0.07,0.92,-0.28,-0.73,-0.40,
1.755,0.07,-0.07,0.92,-0.33,-0.71,-0.46,
1.755,0.06,-0.07,0.91,-0.33,-0.71,-0.46,
1.758,0.06,-0.07,0.91,-0.39,-0.70,-0.57,
1.758,0.06,-0.07,0.91,-0.39,-0.70,-0.57,
1.76,0.06,-0.07,0.91,-0.39,-0.70,-0.57,
1.763,0.05,-0.06,0.90,-0.39,-0.70,-0.57,
1.763,0.05,-0.06,0.90,-0.45,-0.71,-0.67,
1.765,0.04,-0.06,0.89,-0.45,-0.71,-0.67,
1.77,0.04,-0.06,0.88,-0.45,-0.71,-0.67,
1.771,0.04,-0.06,0.88,-0.50,-0.74,-0.79,
1.771,0.04,-0.06,0.87,-0.50,-0.74,-0.79,
1.772,0.03,-0.06,0.86,-0.50,-0.74,-0.79,
1.773,0.03,-0.06,0.86,-0.63,-0.72,-0.90,
1.775,0.03,-0.06,0.85,-0.63,-0.72,-0.90,
1.777,0.03,-0.05,0.85,-0.63,-0.72,-0.90,
1.777,0.03,-0.05,0.85,-0.72,-0.72,-1.12,
1.78,0.02,-0.05,0.85,-0.72,-0.72,-1.12,
1.782,0.02,-0.05,0.85,-0.78,-0.70,-1.28,
1.783,0.02,-0.04,0.84,-0.78,-0.70,-1.28,
1.786,0.02,-0.04,0.84,-0.78,-0.70,-1.28,
1.787,0.02,-0.04,0.84,-0.78,-0.70,-1.28,
1.787,0.02,-0.04,0.84,-0.85,-0.64,-1.37,
1.789,0.02,-0.04,0.84,-0.85,-0.64,-1.37,
1.792,0.02,-0.04,0.84,-0.86,-0.61,-1.38,
1.792,0.02,-0.03,0.84,-0.86,-0.61,-1.38,
1.795,0.02,-0.02,0.85,-0.86,-0.61,-1.38,
1.797,0.02,-0.02,0.86,-0.86,-0.61,-1.38,
1.797,0.02,-0.02,0.86,-0.88,-0.55,-1.36,
1.799,0.03,-0.02,0.86,-0.88,-0.55,-1.36,
1.802,0.03,-0.02,0.86,-0.88,-0.55,-1.36,
1.803,0.03,-0.02,0.86,-0.89,-0.47,-1.26,
1.804,0.02,-0.02,0.88,-0.89,-0.47,-1.26,
1.807,0.02,-0.02,0.88,-0.83,-0.43,-1.16,
1.807,0.02,-0.02,0.88,-0.83,-0.43,-1.16,
1.81,0.02,-0.02,0.89,-0.83,-0.43,-1.16,
1.813,0.02,-0.02,0.90,-0.83,-0.43,-1.16,
1.813,0.02,-0.02,0.90,-0.85,-0.43,-1.00,
1.815,0.02,-0.02,0.91,-0.85,-0.43,-1.00,
1.818,0.02,-0.02,0.91,-0.85,-0.43,-1.00,
1.818,0.02,-0.02,0.91,-0.85,-0.46,-0.84,
1.824,0.02,-0.02,0.92,-0.85,-0.46,-0.84,
1.824,0.03,-0.02,0.92,-0.85,-0.46,-0.84,
1.825,0.03,-0.02,0.92,-0.84,-0.49,-0.69,
1.825,0.03,-0.02,0.92,-0.84,-0.49,-0.69,
1.827,0.03,-0.02,0.92,-0.84,-0.49,-0.69,
1.827,0.03,-0.02,0.92,-0.83,-0.49,-0.61,
1.829,0.02,-0.03,0.92,-0.83,-0.49,-0.61,
1.832,0.02,-0.03,0.92,-0.78,-0.52,-0.56,
1.832,0.02,-0.03,0.92,-0.78,-0.52,-0.56,
1.837,0.02,-0.03,0.92,-0.78,-0.52,-0.56,
1.837,0.02,-0.03,0.91,-0.78,-0.52,-0.56,
1.838,0.02,-0.03,0.91,-0.80,-0.55,-0.55,
1.839,0.02,-0.04,0.91,-0.80,-0.55,-0.55,
1.842,0.02,-0.03,0.90,-0.80,-0.55,-0.55,
1.842,0.02,-0.03,0.90,-0.80,-0.61,-0.62,
1.844,0.02,-0.04,0.90,-0.80,-0.61,-0.62,
1.847,0.01,-0.04,0.90,-0.80,-0.61,-0.62,
1.847,0.01,-0.04,0.90,-0.80,-0.66,-0.71,
1.849,0.01,-0.04,0.89,-0.80,-0.66,-0.71,
1.852,0.01,-0.04,0.88,-0.80,-0.66,-0.71,
1.853,0.01,-0.04,0.88,-0.85,-0.71,-0.75,
1.855,-0.00,-0.04,0.87,-0.85,-0.71,-0.75,
1.857,-0.00,-0.04,0.87,-0.92,-0.73,-0.91,
1.857,-0.01,-0.04,0.87,-0.92,-0.73,-0.91,
1.859,-0.01,-0.04,0.86,-0.92,-0.73,-0.91,
1.862,-0.02,-0.04,0.84,-0.92,-0.73,-0.91,
1.862,-0.02,-0.04,0.84,-1.05,-0.75,-1.07,
1.864,-0.03,-0.04,0.84,-1.05,-0.75,-1.07,
1.867,-0.03,-0.04,0.84,-1.05,-0.75,-1.07,
1.867,-0.03,-0.04,0.84,-1.16,-0.78,-1.26,
1.87,-0.04,-0.04,0.83,-1.16,-0.78,-1.26,
1.872,-0.03,-0.03,0.82,-1.16,-0.78,-1.26,
1.872,-0.03,-0.03,0.82,-1.29,-0.77,-1.39,
1.875,-0.04,-0.02,0.81,-1.29,-0.77,-1.39,
1.877,-0.05,-0.01,0.81,-1.29,-0.77,-1.39,
1.877,-0.05,-0.01,0.81,-1.33,-0.73,-1.50,
1.879,-0.04,-0.01,0.80,-1.33,-0.73,-1.50,
1.882,-0.04,-0.01,0.80,-1.39,-0.62,-1.64,
1.882,-0.05,-0.01,0.80,-1.39,-0.62,-1.64,
1.884,-0.05,0.00,0.80,-1.39,-0.62,-1.64,
1.887,-0.06,0.00,0.80,-1.39,-0.62,-1.64,
1.887,-0.06,0.00,0.80,-1.40,-0.54,-1.72,
1.889,-0.06,0.01,0.80,-1.40,-0.54,-1.72,
1.892,-0.07,0.01,0.80,-1.40,-0.54,-1.72,
1.893,-0.07,0.01,0.80,-1.50,-0.45,-1.73,
1.895,-0.08,0.01,0.80,-1.50,-0.45,-1.73,
1.897,-0.08,0.01,0.81,-1.50,-0.45,-1.73,
1.897,-0.08,0.01,0.81,-1.61,-0.42,-1.76,
1.899,-0.08,0.01,0.81,-1.61,-0.42,-1.76,
1.902,-0.08,0.02,0.81,-1.61,-0.42,-1.76,
1.902,-0.08,0.02,0.81,-1.70,-0.38,-1.67,
1.904,-0.08,0.02,0.81,-1.70,-0.38,-1.67,
1.907,-0.08,0.02,0.81,-1.72,-0.36,-1.64,
1.907,-0.08,0.02,0.81,-1.72,-0.36,-1.64,
1.909,-0.08,0.02,0.81,-1.72,-0.36,-1.64,
1.912,-0.09,0.02,0.82,-1.72,-0.36,-1.64,
1.912,-0.09,0.02,0.82,-1.74,-0.32,-1.61,
1.914,-0.09,0.02,0.82,-1.74,-0.32,-1.61,
1.917,-0.09,0.01,0.83,-1.74,-0.32,-1.61,
1.917,-0.09,0.01,0.83,-1.73,-0.33,-1.58,
1.924,-0.09,0.01,0.83,-1.73,-0.33,-1.58,
1.925,-0.09,0.01,0.83,-1.73,-0.33,-1.58,
1.925,-0.09,0.01,0.83,-1.76,-0.32,-1.46,
1.925,-0.08,0.01,0.84,-1.76,-0.32,-1.46,
1.926,-0.08,0.01,0.85,-1.76,-0.32,-1.46,
1.926,-0.08,0.01,0.85,-1.76,-0.35,-1.40,
1.928,-0.08,0.01,0.86,-1.76,-0.35,-1.40,
1.931,-0.08,0.01,0.86,-1.68,-0.38,-1.28,
1.932,-0.08,0.01,0.86,-1.68,-0.38,-1.28,
1.933,-0.08,0.01,0.86,-1.68,-0.38,-1.28,
1.937,-0.07,0.01,0.86,-1.68,-0.38,-1.28,
1.937,-0.07,0.01,0.86,-1.61,-0.35,-1.15,
1.938,-0.07,0.01,0.87,-1.61,-0.35,-1.15,
1.941,-0.07,0.01,0.87,-1.61,-0.35,-1.15,
1.942,-0.07,0.01,0.87,-1.58,-0.31,-1.09,
1.944,-0.07,0.02,0.87,-1.58,-0.31,-1.09,
1.946,-0.07,0.01,0.88,-1.58,-0.31,-1.09,
1.947,-0.07,0.01,0.88,-1.55,-0.33,-1.02,
1.949,-0.06,0.02,0.89,-1.55,-0.33,-1.02,
1.951,-0.06,0.02,0.89,-1.50,-0.29,-0.97,
1.952,-0.06,0.02,0.89,-1.50,-0.29,-0.97,
1.954,-0.06,0.01,0.90,-1.50,-0.29,-0.97,
1.956,-0.06,0.01,0.90,-1.45,-0.25,-0.85,
1.956,-0.06,0.02,0.90,-1.45,-0.25,-0.85,
1.958,-0.06,0.02,0.91,-1.45,-0.25,-0.85,
1.961,-0.06,0.02,0.91,-1.45,-0.25,-0.85,
1.962,-0.06,0.02,0.91,-1.42,-0.25,-0.74,
1.963,-0.06,0.02,0.92,-1.42,-0.25,-0.74,
1.966,-0.06,0.02,0.92,-1.42,-0.25,-0.74,
1.967,-0.06,0.02,0.92,-1.41,-0.18,-0.64,
1.968,-0.06,0.03,0.92,-1.41,-0.18,-0.64,
1.971,-0.06,0.03,0.92,-1.41,-0.18,-0.64,
1.971,-0.06,0.03,0.92,-1.38,-0.14,-0.54,
1.973,-0.06,0.03,0.92,-1.38,-0.14,-0.54,
1.976,-0.06,0.03,0.92,-1.38,-0.08,-0.54,
1.976,-0.07,0.03,0.92,-1.38,-0.08,-0.54,
1.979,-0.07,0.03,0.93,-1.38,-0.08,-0.54,
1.98,-0.07,0.03,0.93,-1.39,-0.06,-0.53,
1.981,-0.07,0.03,0.93,-1.39,-0.06,-0.53,
1.982,-0.08,0.03,0.94,-1.39,-0.06,-0.53,
1.987,-0.09,0.02,0.94,-1.39,-0.06,-0.53,
1.987,-0.09,0.02,0.94,-1.44,-0.04,-0.42,
1.988,-0.10,0.02,0.94,-1.44,-0.04,-0.42,
1.99,-0.10,0.02,0.95,-1.44,-0.04,-0.42,
1.991,-0.10,0.02,0.95,-1.53,-0.06,-0.36,
1.992,-0.11,0.02,0.95,-1.53,-0.06,-0.36,
1.995,-0.12,0.02,0.95,-1.53,-0.06,-0.36,
1.995,-0.12,0.02,0.95,-1.68,-0.10,-0.29,
1.997,-0.12,0.03,0.95,-1.68,-0.10,-0.29,
2.0,-0.12,0.02,0.94,-1.68,-0.10,-0.29,
2.0,-0.12,0.02,0.94,-1.82,-0.10,-0.23,
2.003,-0.12,0.02,0.94,-1.82,-0.10,-0.23,
2.005,-0.12,0.02,0.94,-1.83,-0.05,-0.30,
2.005,-0.13,0.03,0.94,-1.83,-0.05,-0.30,
2.007,-0.14,0.03,0.95,-1.83,-0.05,-0.30,
2.01,-0.14,0.03,0.95,-1.83,-0.05,-0.30,
2.01,-0.14,0.03,0.95,-1.89,-0.01,-0.31,
2.012,-0.14,0.03,0.94,-1.89,-0.01,-0.31,
2.015,-0.14,0.04,0.95,-1.89,-0.01,-0.31,
2.015,-0.14,0.04,0.95,-1.95,0.03,-0.29,
2.017,-0.14,0.04,0.94,-1.95,0.03,-0.29,
2.024,-0.14,0.04,0.95,-1.95,0.03,-0.29,
2.025,-0.14,0.04,0.95,-1.97,0.09,-0.33,
2.025,-0.14,0.05,0.95,-1.97,0.09,-0.33,
2.025,-0.14,0.05,0.95,-1.97,0.09,-0.33,
2.026,-0.14,0.05,0.95,-1.94,0.16,-0.29,
2.027,-0.14,0.05,0.95,-1.94,0.16,-0.29,
2.03,-0.14,0.05,0.95,-1.91,0.21,-0.25,
2.03,-0.14,0.05,0.95,-1.91,0.21,-0.25,
2.032,-0.14,0.05,0.94,-1.91,0.21,-0.25,
2.035,-0.14,0.05,0.95,-1.91,0.21,-0.25,
2.035,-0.14,0.05,0.95,-1.88,0.23,-0.24,
2.037,-0.14,0.05,0.95,-1.88,0.23,-0.24,
2.04,-0.14,0.05,0.95,-1.88,0.23,-0.24,
2.04,-0.14,0.05,0.95,-1.83,0.26,-0.30,
2.043,-0.13,0.05,0.94,-1.83,0.26,-0.30,
2.046,-0.14,0.05,0.94,-1.83,0.26,-0.30,
2.047,-0.14,0.05,0.94,-1.84,0.24,-0.29,
2.047,-0.13,0.04,0.94,-1.84,0.24,-0.29,
2.05,-0.13,0.04,0.93,-1.84,0.24,-0.29,
2.05,-0.13,0.04,0.93,-1.76,0.21,-0.35,
2.052,-0.13,0.04,0.93,-1.76,0.21,-0.35,
2.055,-0.13,0.04,0.93,-1.71,0.15,-0.41,
2.055,-0.13,0.03,0.93,-1.71,0.15,-0.41,
2.057,-0.13,0.03,0.93,-1.71,0.15,-0.41,
2.059,-0.12,0.03,0.92,-1.71,0.15,-0.41,
2.06,-0.12,0.03,0.92,-1.65,0.10,-0.46,
2.062,-0.12,0.02,0.93,-1.65,0.10,-0.46,
2.064,-0.12,0.02,0.93,-1.59,0.07,-0.50,
2.065,-0.12,0.02,0.93,-1.59,0.07,-0.50,
2.067,-0.12,0.02,0.94,-1.59,0.07,-0.50,
2.07,-0.11,0.02,0.94,-1.59,0.07,-0.50,
2.071,-0.11,0.02,0.94,-1.54,-0.01,-0.47,
2.072,-0.11,0.01,0.95,-1.54,-0.01,-0.47,
2.074,-0.11,0.02,0.94,-1.54,-0.01,-0.47,
2.075,-0.11,0.02,0.94,-1.47,-0.03,-0.38,
2.077,-0.10,0.01,0.95,-1.47,-0.03,-0.38,
2.079,-0.10,0.01,0.95,-1.38,-0.04,-0.31,
2.079,-0.10,0.01,0.95,-1.38,-0.04,-0.31,
2.081,-0.09,0.02,0.95,-1.38,-0.04,-0.31,
2.084,-0.09,0.02,0.95,-1.29,-0.04,-0.28,
2.084,-0.10,0.01,0.96,-1.29,-0.04,-0.28,
2.087,-0.09,0.01,0.95,-1.29,-0.04,-0.28,
2.089,-0.09,0.01,0.96,-1.29,-0.04,-0.28,
2.089,-0.09,0.01,0.96,-1.23,-0.02,-0.20,
2.092,-0.09,0.02,0.96,-1.23,-0.02,-0.20,
2.094,-0.09,0.02,0.96,-1.23,-0.02,-0.20,
2.094,-0.09,0.02,0.96,-1.19,0.01,-0.20,
2.096,-0.09,0.02,0.97,-1.19,0.01,-0.20,
2.099,-0.09,0.02,0.96,-1.19,0.01,-0.20,
2.099,-0.09,0.02,0.96,-1.19,0.10,-0.15,
2.101,-0.09,0.02,0.97,-1.19,0.10,-0.15,
2.105,-0.09,0.02,0.97,-1.15,0.13,-0.12,
2.105,-0.09,0.02,0.98,-1.15,0.13,-0.12,
2.106,-0.09,0.02,0.97,-1.15,0.13,-0.12,
2.109,-0.09,0.02,0.98,-1.15,0.13,-0.12,
2.109,-0.09,0.02,0.98,-1.13,0.13,-0.05,
2.111,-0.09,0.02,0.98,-1.13,0.13,-0.05,
2.114,-0.09,0.02,0.98,-1.12,0.15,-0.03,
2.114,-0.10,0.01,0.98,-1.12,0.15,-0.03,
2.116,-0.10,0.01,0.98,-1.12,0.15,-0.03,
2.124,-0.10,0.01,0.98,-1.12,0.15,-0.03,
2.125,-0.10,0.01,0.98,-1.18,0.11,0.03,
2.125,-0.11,0.01,0.99,-1.18,0.11,0.03,
2.125,-0.12,0.01,0.99,-1.18,0.11,0.03,
2.125,-0.12,0.01,0.99,-1.23,0.08,0.04,
2.126,-0.12,0.01,0.99,-1.23,0.08,0.04,
2.129,-0.12,0.01,0.99,-1.34,0.08,0.11,
2.129,-0.13,0.01,0.99,-1.34,0.08,0.11,
2.131,-0.14,0.00,0.99,-1.34,0.08,0.11,
2.134,-0.15,0.01,0.99,-1.34,0.08,0.11,
2.134,-0.15,0.01,0.99,-1.41,0.07,0.14,
2.137,-0.16,0.01,0.99,-1.41,0.07,0.14,
2.139,-0.18,0.01,0.99,-1.41,0.07,0.14,
2.141,-0.18,0.01,0.99,-1.57,0.07,0.15,
2.143,-0.20,0.02,0.99,-1.57,0.07,0.15,
2.144,-0.21,0.02,1.00,-1.57,0.07,0.15,
2.144,-0.21,0.02,1.00,-1.80,0.10,0.14,
2.147,-0.23,0.02,1.00,-1.80,0.10,0.14,
2.149,-0.24,0.03,1.00,-1.80,0.10,0.14,
2.149,-0.24,0.03,1.00,-2.09,0.18,0.18,
2.151,-0.25,0.03,1.01,-2.09,0.18,0.18,
2.155,-0.25,0.03,1.01,-2.32,0.22,0.23,
2.155,-0.26,0.03,1.01,-2.32,0.22,0.23,
2.157,-0.27,0.03,1.01,-2.32,0.22,0.23,
2.159,-0.28,0.04,1.01,-2.32,0.22,0.23,
2.159,-0.28,0.04,1.01,-2.49,0.26,0.30,
2.161,-0.29,0.04,1.02,-2.49,0.26,0.30,
2.164,-0.29,0.04,1.02,-2.65,0.32,0.33,
2.164,-0.30,0.04,1.02,-2.65,0.32,0.33,
2.166,-0.31,0.04,1.02,-2.65,0.32,0.33,
2.169,-0.32,0.04,1.03,-2.65,0.32,0.33,
2.169,-0.32,0.04,1.03,-2.79,0.32,0.42,
2.171,-0.31,0.03,1.03,-2.79,0.32,0.42,
2.174,-0.32,0.03,1.03,-2.79,0.32,0.42,
2.174,-0.32,0.03,1.03,-2.90,0.29,0.48,
2.176,-0.32,0.03,1.04,-2.90,0.29,0.48,
2.179,-0.32,0.03,1.04,-2.90,0.23,0.49,
2.179,-0.32,0.03,1.04,-2.90,0.23,0.49,
2.181,-0.33,0.02,1.05,-2.90,0.23,0.49,
2.184,-0.32,0.02,1.05,-2.90,0.23,0.49,
2.184,-0.32,0.02,1.05,-2.93,0.21,0.61,
2.186,-0.32,0.02,1.05,-2.93,0.21,0.61,
2.189,-0.32,0.02,1.05,-2.93,0.21,0.61,
2.189,-0.32,0.02,1.05,-2.91,0.12,0.69,
2.191,-0.32,0.02,1.05,-2.91,0.12,0.69,
2.194,-0.32,0.02,1.05,-2.91,0.12,0.69,
2.195,-0.32,0.02,1.05,-2.86,0.10,0.73,
2.197,-0.31,0.02,1.05,-2.86,0.10,0.73,
2.199,-0.31,0.02,1.05,-2.86,0.10,0.73,
2.199,-0.31,0.02,1.05,-2.79,0.06,0.71,
2.201,-0.30,0.01,1.05,-2.79,0.06,0.71,
2.206,-0.30,0.01,1.05,-2.66,0.06,0.72,
2.206,-0.29,0.01,1.05,-2.66,0.06,0.72,
2.206,-0.29,0.02,1.04,-2.66,0.06,0.72,
2.208,-0.28,0.02,1.05,-2.66,0.06,0.72,
2.208,-0.28,0.02,1.05,-2.51,0.04,0.68,
2.211,-0.27,0.01,1.04,-2.51,0.04,0.68,
2.214,-0.27,0.02,1.05,-2.51,0.04,0.68,
2.214,-0.27,0.02,1.05,-2.41,0.09,0.68,
2.216,-0.26,0.01,1.05,-2.41,0.09,0.68,
2.219,-0.26,0.01,1.05,-2.23,0.08,0.67,
2.219,-0.25,0.01,1.05,-2.23,0.08,0.67,
2.22,-0.25,0.01,1.05,-2.23,0.08,0.67,
2.226,-0.25,0.01,1.05,-2.23,0.08,0.67,
2.227,-0.25,0.01,1.05,-2.11,0.06,0.70,
2.227,-0.26,0.01,1.05,-2.11,0.06,0.70,
2.228,-0.26,0.01,1.05,-2.06,0.08,0.71,
2.228,-0.26,0.01,1.05,-2.06,0.08,0.71,
2.23,-0.25,0.01,1.05,-2.06,0.08,0.71,
2.233,-0.26,0.01,1.06,-2.06,0.08,0.71,
2.233,-0.26,0.01,1.06,-2.06,0.07,0.72,
2.235,-0.26,0.01,1.05,-2.06,0.07,0.72,
2.239,-0.26,0.00,1.05,-2.06,0.07,0.72,
2.239,-0.26,0.00,1.05,-2.03,0.04,0.76,
2.24,-0.27,0.00,1.05,-2.03,0.04,0.76,
2.243,-0.27,0.00,1.06,-2.03,0.04,0.76,
2.243,-0.27,0.00,1.06,-2.07,0.02,0.72,
2.246,-0.28,-0.01,1.06,-2.07,0.02,0.72,
2.248,-0.28,-0.01,1.06,-2.18,-0.01,0.75,
2.249,-0.28,-0.00,1.06,-2.18,-0.01,0.75,
2.251,-0.28,-0.00,1.06,-2.18,-0.01,0.75,
2.253,-0.28,-0.00,1.06,-2.26,-0.06,0.77,
2.254,-0.28,-0.00,1.07,-2.26,-0.06,0.77,
2.256,-0.29,-0.01,1.07,-2.26,-0.06,0.77,
2.258,-0.28,-0.01,1.07,-2.26,-0.06,0.77,
2.258,-0.28,-0.01,1.07,-2.27,-0.03,0.89,
2.26,-0.29,-0.01,1.07,-2.27,-0.03,0.89,
2.263,-0.29,-0.01,1.08,-2.27,-0.03,0.89,
2.264,-0.29,-0.01,1.08,-2.27,-0.07,0.91,
2.266,-0.29,-0.01,1.08,-2.27,-0.07,0.91,
2.268,-0.29,-0.01,1.08,-2.27,-0.07,0.91,
2.269,-0.29,-0.01,1.08,-2.28,-0.08,0.96,
2.27,-0.28,-0.01,1.09,-2.28,-0.08,0.96,
2.273,-0.28,-0.01,1.09,-2.28,-0.08,0.96,
2.273,-0.28,-0.01,1.09,-2.28,-0.07,0.98,
2.275,-0.28,-0.01,1.09,-2.28,-0.07,0.98,
2.278,-0.28,-0.01,1.09,-2.18,-0.08,1.07,
2.279,-0.27,-0.02,1.09,-2.18,-0.08,1.07,
2.281,-0.28,-0.02,1.09,-2.18,-0.08,1.07,
2.283,-0.27,-0.02,1.10,-2.18,-0.08,1.07,
2.283,-0.27,-0.02,1.10,-2.11,-0.14,1.11,
2.285,-0.27,-0.02,1.10,-2.11,-0.14,1.11,
2.287,-0.27,-0.03,1.11,-2.11,-0.14,1.11,
2.288,-0.27,-0.03,1.11,-2.10,-0.17,1.14,
2.29,-0.26,-0.03,1.11,-2.10,-0.17,1.14,
2.293,-0.25,-0.03,1.12,-2.10,-0.17,1.14,
2.293,-0.25,-0.03,1.12,-2.02,-0.19,1.23,
2.295,-0.26,-0.03,1.13,-2.02,-0.19,1.23,
2.298,-0.25,-0.04,1.12,-2.02,-0.19,1.23,
2.298,-0.25,-0.04,1.12,-1.89,-0.23,1.35,
2.301,-0.25,-0.04,1.12,-1.89,-0.23,1.35,
2.303,-0.25,-0.04,1.12,-1.85,-0.30,1.43,
2.303,-0.25,-0.04,1.12,-1.85,-0.30,1.43,
2.306,-0.24,-0.05,1.12,-1.85,-0.30,1.43,
2.308,-0.24,-0.05,1.12,-1.77,-0.35,1.38,
2.308,-0.24,-0.05,1.11,-1.77,-0.35,1.38,
2.31,-0.24,-0.06,1.10,-1.77,-0.35,1.38,
2.313,-0.23,-0.06,1.09,-1.77,-0.35,1.38,
2.313,-0.23,-0.06,1.09,-1.71,-0.44,1.34,
2.315,-0.23,-0.06,1.09,-1.71,-0.44,1.34,
2.317,-0.22,-0.06,1.09,-1.71,-0.44,1.34,
2.317,-0.22,-0.06,1.09,-1.59,-0.52,1.18,
2.32,-0.23,-0.07,1.08,-1.59,-0.52,1.18,
2.326,-0.23,-0.07,1.07,-1.59,-0.52,1.18,
2.326,-0.23,-0.07,1.07,-1.48,-0.55,1.06,
2.327,-0.22,-0.07,1.06,-1.48,-0.55,1.06,
2.327,-0.22,-0.07,1.06,-1.45,-0.61,0.95,
2.327,-0.22,-0.07,1.05,-1.45,-0.61,0.95,
2.331,-0.23,-0.07,1.04,-1.45,-0.61,0.95,
2.333,-0.23,-0.07,1.02,-1.45,-0.61,0.95,
2.333,-0.23,-0.07,1.02,-1.40,-0.63,0.72,
2.334,-0.23,-0.08,1.01,-1.40,-0.63,0.72,
2.338,-0.23,-0.08,1.00,-1.40,-0.63,0.72,
2.338,-0.23,-0.08,1.00,-1.43,-0.67,0.49,
2.341,-0.23,-0.08,0.99,-1.43,-0.67,0.49,
2.342,-0.22,-0.07,0.98,-1.43,-0.67,0.49,
2.342,-0.22,-0.07,0.98,-1.39,-0.73,0.27,
2.344,-0.22,-0.07,0.98,-1.39,-0.73,0.27,
2.347,-0.21,-0.07,0.97,-1.39,-0.73,0.27,
2.348,-0.21,-0.07,0.97,-1.33,-0.73,0.09,
2.35,-0.22,-0.06,0.97,-1.33,-0.73,0.09,
2.352,-0.22,-0.06,0.97,-1.23,-0.64,-0.05,
2.353,-0.21,-0.06,0.97,-1.23,-0.64,-0.05,
2.357,-0.21,-0.05,0.97,-1.23,-0.64,-0.05,
2.357,-0.21,-0.05,0.98,-1.23,-0.64,-0.05,
2.357,-0.21,-0.05,0.98,-1.21,-0.59,-0.07,
2.359,-0.21,-0.04,0.98,-1.21,-0.59,-0.07,
2.362,-0.21,-0.04,0.99,-1.21,-0.59,-0.07,
2.362,-0.21,-0.04,0.99,-1.14,-0.50,-0.02,
2.365,-0.21,-0.04,1.00,-1.14,-0.50,-0.02,
2.367,-0.21,-0.04,1.00,-1.09,-0.42,0.07,
2.367,-0.20,-0.04,1.00,-1.09,-0.42,0.07,
2.37,-0.20,-0.04,1.01,-1.09,-0.42,0.07,
2.373,-0.21,-0.04,1.02,-1.09,-0.42,0.07,
2.374,-0.21,-0.04,1.02,-1.06,-0.36,0.24,
2.374,-0.21,-0.04,1.03,-1.06,-0.36,0.24,
2.377,-0.21,-0.04,1.03,-1.03,-0.31,0.36,
2.378,-0.21,-0.04,1.04,-1.03,-0.31,0.36,
2.38,-0.21,-0.04,1.05,-1.03,-0.31,0.36,
2.382,-0.21,-0.04,1.05,-1.03,-0.31,0.36,
2.382,-0.21,-0.04,1.05,-1.05,-0.32,0.56,
2.384,-0.22,-0.05,1.07,-1.05,-0.32,0.56,
2.387,-0.22,-0.05,1.08,-1.05,-0.32,0.56,
2.387,-0.22,-0.05,1.08,-1.06,-0.32,0.72,
2.389,-0.22,-0.05,1.09,-1.06,-0.32,0.72,
2.391,-0.21,-0.05,1.09,-1.06,-0.32,0.72,
2.392,-0.21,-0.05,1.09,-1.08,-0.34,0.92,
2.394,-0.22,-0.06,1.10,-1.08,-0.34,0.92,
2.397,-0.22,-0.05,1.11,-1.08,-0.34,0.92,
2.397,-0.22,-0.05,1.11,-1.06,-0.36,1.10,
2.399,-0.22,-0.05,1.12,-1.06,-0.36,1.10,
2.402,-0.22,-0.05,1.12,-1.07,-0.35,1.22,
2.402,-0.22,-0.05,1.12,-1.07,-0.35,1.22,
2.404,-0.22,-0.05,1.13,-1.07,-0.35,1.22,
2.407,-0.22,-0.05,1.13,-1.09,-0.31,1.39,
2.407,-0.22,-0.05,1.13,-1.09,-0.31,1.39,
2.409,-0.22,-0.05,1.14,-1.09,-0.31,1.39,
2.412,-0.23,-0.05,1.13,-1.09,-0.31,1.39,
2.412,-0.23,-0.05,1.13,-1.08,-0.25,1.51,
2.414,-0.23,-0.05,1.13,-1.08,-0.25,1.51,
2.417,-0.24,-0.05,1.13,-1.08,-0.25,1.51,
2.417,-0.24,-0.05,1.13,-1.11,-0.23,1.55,
2.419,-0.24,-0.05,1.13,-1.11,-0.23,1.55,
2.427,-0.24,-0.04,1.13,-1.11,-0.23,1.55,
2.427,-0.24,-0.04,1.13,-1.17,-0.18,1.54,
2.428,-0.25,-0.04,1.13,-1.17,-0.18,1.54,
2.428,-0.25,-0.04,1.12,-1.17,-0.18,1.54,
2.428,-0.25,-0.04,1.12,-1.22,-0.15,1.52,
2.428,-0.25,-0.04,1.11,-1.22,-0.15,1.52,
2.431,-0.25,-0.04,1.11,-1.22,-0.15,1.52,
2.432,-0.25,-0.04,1.11,-1.29,-0.11,1.44,
2.433,-0.25,-0.03,1.10,-1.29,-0.11,1.44,
2.436,-0.25,-0.03,1.10,-1.29,-0.11,1.44,
2.436,-0.25,-0.03,1.10,-1.29,-0.06,1.30,
2.441,-0.25,-0.03,1.09,-1.29,-0.06,1.30,
2.442,-0.25,-0.03,1.09,-1.29,-0.06,1.30,
2.442,-0.25,-0.03,1.09,-1.26,0.02,1.19,
2.443,-0.25,-0.02,1.08,-1.26,0.02,1.19,
2.447,-0.25,-0.02,1.08,-1.27,0.05,1.10,
2.447,-0.24,-0.02,1.07,-1.27,0.05,1.10,
2.449,-0.24,-0.03,1.07,-1.27,0.05,1.10,
2.452,-0.24,-0.03,1.07,-1.18,0.08,1.00,
2.453,-0.23,-0.03,1.07,-1.18,0.08,1.00,
2.453,-0.22,-0.03,1.07,-1.18,0.08,1.00,
2.457,-0.22,-0.03,1.07,-1.09,0.05,0.90,
2.457,-0.22,-0.03,1.06,-1.09,0.05,0.90,
2.459,-0.21,-0.03,1.06,-1.09,0.05,0.90,
2.461,-0.21,-0.03,1.06,-0.93,0.03,0.86,
2.461,-0.19,-0.03,1.06,-0.93,0.03,0.86,
2.464,-0.18,-0.04,1.06,-0.93,0.03,0.86,
2.466,-0.16,-0.04,1.06,-0.93,0.03,0.86,
2.466,-0.16,-0.04,1.06,-0.72,0.01,0.80,
2.469,-0.15,-0.04,1.07,-0.72,0.01,0.80,
2.473,-0.14,-0.05,1.07,-0.72,0.01,0.80,
2.474,-0.14,-0.05,1.07,-0.41,-0.02,0.85,
2.474,-0.12,-0.05,1.08,-0.41,-0.02,0.85,
2.477,-0.12,-0.05,1.08,-0.11,-0.08,0.91,
2.478,-0.12,-0.06,1.09,-0.11,-0.08,0.91,
2.479,-0.10,-0.06,1.09,-0.11,-0.08,0.91,
2.48,-0.10,-0.07,1.10,-0.11,-0.08,0.91,
2.481,-0.10,-0.07,1.10,0.10,-0.19,1.05,
2.483,-0.09,-0.07,1.11,0.10,-0.19,1.05,
2.485,-0.08,-0.07,1.11,0.10,-0.19,1.05,
2.486,-0.08,-0.07,1.11,0.34,-0.28,1.17,
2.488,-0.08,-0.08,1.13,0.34,-0.28,1.17,
2.491,-0.07,-0.08,1.13,0.34,-0.28,1.17,
2.492,-0.07,-0.08,1.13,0.49,-0.31,1.31,
2.494,-0.07,-0.08,1.14,0.49,-0.31,1.31,
2.496,-0.06,-0.08,1.15,0.49,-0.31,1.31,
2.496,-0.06,-0.08,1.15,0.66,-0.37,1.50,
2.498,-0.06,-0.08,1.15,0.66,-0.37,1.50,
2.501,-0.06,-0.08,1.15,0.76,-0.36,1.65,
2.502,-0.06,-0.08,1.16,0.76,-0.36,1.65,
2.503,-0.06,-0.08,1.17,0.76,-0.36,1.65,
2.506,-0.06,-0.08,1.18,0.76,-0.36,1.65,
2.507,-0.06,-0.08,1.18,0.85,-0.35,1.78,
2.508,-0.07,-0.08,1.19,0.85,-0.35,1.78,
2.511,-0.07,-0.08,1.18,0.85,-0.35,1.78,
2.511,-0.07,-0.08,1.18,0.89,-0.35,1.95,
2.513,-0.08,-0.08,1.20,0.89,-0.35,1.95,
2.516,-0.08,-0.08,1.20,0.89,-0.35,1.95,
2.516,-0.08,-0.08,1.20,0.85,-0.34,2.07,
2.518,-0.09,-0.08,1.20,0.85,-0.34,2.07,
2.521,-0.10,-0.08,1.21,0.85,-0.34,2.07,
2.521,-0.10,-0.08,1.21,0.77,-0.38,2.17,
2.522,-0.10,-0.09,1.21,0.77,-0.38,2.17,
2.528,-0.10,-0.09,1.21,0.68,-0.38,2.24,
2.528,-0.11,-0.08,1.21,0.68,-0.38,2.24,
2.529,-0.11,-0.08,1.21,0.68,-0.38,2.24,
2.53,-0.11,-0.08,1.21,0.68,-0.38,2.24,
2.53,-0.11,-0.08,1.21,0.58,-0.40,2.32,
2.532,-0.12,-0.09,1.21,0.58,-0.40,2.32,
2.535,-0.12,-0.08,1.20,0.58,-0.40,2.32,
2.535,-0.12,-0.08,1.20,0.55,-0.37,2.29,
2.538,-0.12,-0.08,1.20,0.55,-0.37,2.29,
2.54,-0.12,-0.08,1.20,0.55,-0.37,2.29,
2.541,-0.12,-0.08,1.20,0.51,-0.37,2.30,
2.542,-0.12,-0.07,1.19,0.51,-0.37,2.30,
2.545,-0.11,-0.07,1.19,0.51,-0.37,2.30,
2.545,-0.11,-0.07,1.19,0.54,-0.30,2.22,
2.548,-0.11,-0.07,1.18,0.54,-0.30,2.22,
2.55,-0.11,-0.07,1.18,0.56,-0.20,2.13,
2.551,-0.11,-0.06,1.17,0.56,-0.20,2.13,
2.553,-0.10,-0.06,1.16,0.56,-0.20,2.13,
2.555,-0.10,-0.06,1.14,0.56,-0.20,2.13,
2.556,-0.10,-0.06,1.14,0.62,-0.18,1.96,
2.558,-0.10,-0.06,1.14,0.62,-0.18,1.96,
2.56,-0.10,-0.06,1.14,0.62,-0.18,1.96,
2.56,-0.10,-0.06,1.14,0.69,-0.14,1.74,
2.562,-0.10,-0.06,1.13,0.69,-0.14,1.74,
2.565,-0.10,-0.06,1.13,0.71,-0.14,1.60,
2.565,-0.09,-0.06,1.12,0.71,-0.14,1.60,
2.567,-0.09,-0.06,1.12,0.71,-0.14,1.60,
2.57,-0.09,-0.06,1.12,0.74,-0.15,1.44,
2.57,-0.09,-0.07,1.11,0.74,-0.15,1.44,
2.572,-0.09,-0.07,1.11,0.74,-0.15,1.44,
2.575,-0.09,-0.07,1.11,0.76,-0.16,1.37,
2.575,-0.08,-0.06,1.10,0.76,-0.16,1.37,
2.577,-0.08,-0.07,1.10,0.76,-0.16,1.37,
2.58,-0.08,-0.07,1.10,0.76,-0.16,1.37,
2.58,-0.08,-0.07,1.10,0.82,-0.16,1.26,
2.582,-0.08,-0.07,1.10,0.82,-0.16,1.26,
2.585,-0.07,-0.07,1.10,0.82,-0.16,1.26,
2.585,-0.07,-0.07,1.10,0.88,-0.15,1.25,
2.587,-0.07,-0.07,1.10,0.88,-0.15,1.25,
2.59,-0.07,-0.07,1.10,0.90,-0.18,1.23,
2.591,-0.07,-0.06,1.11,0.90,-0.18,1.23,
2.592,-0.06,-0.07,1.11,0.90,-0.18,1.23,
2.595,-0.05,-0.08,1.11,0.90,-0.18,1.23,
2.595,-0.05,-0.08,1.11,0.96,-0.17,1.28,
2.597,-0.04,-0.07,1.11,0.96,-0.17,1.28,
2.599,-0.04,-0.07,1.11,1.08,-0.20,1.30,
2.599,-0.04,-0.08,1.11,1.08,-0.20,1.30,
2.602,-0.03,-0.08,1.11,1.08,-0.20,1.30,
2.605,-0.02,-0.09,1.11,1.08,-0.20,1.30,
2.605,-0.02,-0.09,1.11,1.23,-0.25,1.31,
2.607,-0.01,-0.09,1.11,1.23,-0.25,1.31,
2.609,0.00,-0.09,1.11,1.23,-0.25,1.31,
2.61,0.00,-0.09,1.11,1.37,-0.30,1.30,
2.612,0.01,-0.10,1.11,1.37,-0.30,1.30,
2.615,0.02,-0.10,1.11,1.37,-0.30,1.30,
2.615,0.02,-0.10,1.11,1.56,-0.37,1.27,
2.617,0.04,-0.10,1.10,1.56,-0.37,1.27,
2.62,0.05,-0.11,1.10,1.56,-0.37,1.27,
2.62,0.05,-0.11,1.10,1.78,-0.46,1.28,
2.622,0.06,-0.11,1.10,1.78,-0.46,1.28,
2.628,0.06,-0.11,1.10,2.01,-0.51,1.22,
2.628,0.07,-0.11,1.10,2.01,-0.51,1.22,
2.629,0.08,-0.11,1.09,2.01,-0.51,1.22,
2.629,0.09,-0.11,1.09,2.01,-0.51,1.22,
2.629,0.09,-0.11,1.09,2.21,-0.55,1.21,
2.632,0.10,-0.10,1.09,2.21,-0.55,1.21,
2.634,0.10,-0.11,1.09,2.21,-0.55,1.21,
2.637,0.10,-0.11,1.09,2.42,-0.58,1.11,
2.637,0.10,-0.11,1.09,2.42,-0.58,1.11,
2.64,0.11,-0.11,1.09,2.42,-0.58,1.11,
2.64,0.11,-0.11,1.09,2.54,-0.54,1.08,
2.643,0.11,-0.11,1.09,2.54,-0.54,1.08,
2.644,0.11,-0.11,1.08,2.54,-0.54,1.08,
2.645,0.11,-0.11,1.08,2.60,-0.61,1.09,
2.647,0.11,-0.11,1.08,2.60,-0.61,1.09,
2.649,0.11,-0.11,1.08,2.66,-0.61,1.02,
2.649,0.12,-0.11,1.07,2.66,-0.61,1.02,
2.652,0.12,-0.11,1.07,2.66,-0.61,1.02,
2.654,0.11,-0.10,1.06,2.66,-0.61,1.02,
2.654,0.11,-0.10,1.06,2.67,-0.59,0.97,
2.656,0.10,-0.10,1.06,2.67,-0.59,0.97,
2.659,0.10,-0.10,1.06,2.65,-0.55,0.88,
2.659,0.09,-0.10,1.06,2.65,-0.55,0.88,
2.661,0.09,-0.09,1.06,2.65,-0.55,0.88,
2.665,0.08,-0.09,1.06,2.65,-0.55,0.88,
2.665,0.08,-0.09,1.06,2.50,-0.51,0.83,
2.667,0.07,-0.08,1.06,2.50,-0.51,0.83,
2.669,0.06,-0.07,1.06,2.50,-0.51,0.83,
2.67,0.06,-0.07,1.06,2.34,-0.40,0.80,
2.671,0.05,-0.07,1.05,2.34,-0.40,0.80,
2.676,0.05,-0.07,1.05,2.14,-0.27,0.77,
2.677,0.04,-0.06,1.05,2.14,-0.27,0.77,
2.677,0.03,-0.05,1.05,2.14,-0.27,0.77,
2.679,0.02,-0.05,1.05,2.14,-0.27,0.77,
2.679,0.02,-0.05,1.05,1.96,-0.15,0.70,
2.682,0.01,-0.04,1.04,1.96,-0.15,0.70,
2.684,0.00,-0.03,1.04,1.96,-0.15,0.70,
2.684,0.00,-0.03,1.04,1.78,-0.04,0.68,
2.686,0.00,-0.04,1.04,1.78,-0.04,0.68,
2.689,-0.00,-0.03,1.04,1.78,-0.04,0.68,
2.689,-0.00,-0.03,1.04,1.60,0.09,0.60,
2.691,-0.01,-0.03,1.05,1.60,0.09,0.60,
2.693,-0.01,-0.03,1.05,1.60,0.09,0.60,
2.694,-0.01,-0.03,1.05,1.50,0.09,0.63,
2.697,-0.02,-0.02,1.05,1.50,0.09,0.63,
2.698,-0.02,-0.02,1.05,1.37,0.16,0.69,
2.699,-0.02,-0.02,1.04,1.37,0.16,0.69,
2.701,-0.01,-0.02,1.05,1.37,0.16,0.69,
2.704,-0.01,-0.02,1.05,1.37,0.16,0.69,
2.704,-0.01,-0.02,1.05,1.31,0.21,0.64,
2.707,-0.01,-0.02,1.04,1.31,0.21,0.64,
2.709,-0.01,-0.01,1.05,1.31,0.21,0.64,
2.71,-0.01,-0.01,1.05,1.33,0.21,0.65,
2.711,-0.00,-0.01,1.04,1.33,0.21,0.65,
2.714,0.00,-0.02,1.04,1.33,0.21,0.65,
2.714,0.00,-0.02,1.04,1.41,0.25,0.62,
2.717,0.01,-0.02,1.03,1.41,0.25,0.62,
2.719,0.02,-0.02,1.03,1.41,0.25,0.62,
2.719,0.02,-0.02,1.03,1.45,0.24,0.58,
2.721,0.02,-0.02,1.03,1.45,0.24,0.58,
2.728,0.02,-0.02,1.03,1.58,0.18,0.50,
2.729,0.03,-0.03,1.03,1.58,0.18,0.50,
2.729,0.04,-0.03,1.03,1.58,0.18,0.50,
2.729,0.05,-0.04,1.03,1.58,0.18,0.50,
2.73,0.05,-0.04,1.03,1.69,0.11,0.49,
2.73,0.05,-0.04,1.03,1.69,0.11,0.49,
2.734,0.06,-0.05,1.03,1.69,0.11,0.49,
2.734,0.06,-0.05,1.03,1.86,-0.00,0.43,
2.735,0.06,-0.05,1.02,1.86,-0.00,0.43,
2.742,0.07,-0.05,1.03,1.86,-0.00,0.43,
2.743,0.07,-0.05,1.03,1.95,-0.14,0.45,
2.743,0.08,-0.06,1.02,1.95,-0.14,0.45,
2.743,0.09,-0.06,1.03,1.95,-0.14,0.45,
2.743,0.09,-0.06,1.03,2.10,-0.18,0.43,
2.745,0.09,-0.06,1.03,2.10,-0.18,0.43,
2.749,0.09,-0.06,1.03,2.21,-0.25,0.42,
2.749,0.09,-0.07,1.03,2.21,-0.25,0.42,
2.751,0.10,-0.06,1.04,2.21,-0.25,0.42,
2.753,0.11,-0.07,1.04,2.21,-0.25,0.42,
2.754,0.11,-0.07,1.04,2.29,-0.31,0.48,
2.757,0.10,-0.08,1.03,2.29,-0.31,0.48,
2.759,0.11,-0.06,1.03,2.29,-0.31,0.48,
2.759,0.11,-0.06,1.03,2.42,-0.36,0.52,
2.76,0.12,-0.05,1.03,2.42,-0.36,0.52,
2.763,0.12,-0.05,1.03,2.37,-0.39,0.44,
2.763,0.13,-0.04,1.03,2.37,-0.39,0.44,
2.766,0.13,-0.04,1.03,2.37,-0.39,0.44,
2.767,0.13,-0.04,1.03,2.37,-0.39,0.44,
2.768,0.13,-0.04,1.03,2.58,-0.21,0.48,
2.77,0.13,-0.04,1.02,2.58,-0.21,0.48,
2.775,0.13,-0.04,1.02,2.63,-0.13,0.46,
2.776,0.13,-0.04,1.02,2.63,-0.13,0.46,
2.776,0.12,-0.04,1.02,2.63,-0.13,0.46,
2.777,0.11,-0.04,1.01,2.63,-0.13,0.46,
2.778,0.11,-0.04,1.01,2.58,-0.13,0.37,
2.78,0.11,-0.04,1.01,2.58,-0.13,0.37,
2.782,0.09,-0.04,1.01,2.58,-0.13,0.37,
2.782,0.09,-0.04,1.01,2.44,-0.14,0.30,
2.786,0.08,-0.04,1.01,2.44,-0.14,0.30,
2.787,0.07,-0.04,1.01,2.44,-0.14,0.30,
2.787,0.07,-0.04,1.01,2.26,-0.19,0.26,
2.792,0.07,-0.03,1.00,2.26,-0.19,0.26,
2.793,0.06,-0.02,1.00,2.26,-0.19,0.26,
2.793,0.06,-0.02,1.00,2.01,-0.16,0.25,
2.794,0.05,-0.02,0.99,2.01,-0.16,0.25,
2.797,0.05,-0.02,0.99,1.87,-0.02,0.16,
2.797,0.05,-0.01,0.99,1.87,-0.02,0.16,
2.8,0.04,-0.01,0.99,1.87,-0.02,0.16,
2.803,0.04,-0.01,0.99,1.71,0.09,0.03,
2.804,0.03,-0.00,0.99,1.71,0.09,0.03,
2.805,0.02,-0.00,0.99,1.71,0.09,0.03,
2.809,0.02,0.01,0.99,1.71,0.09,0.03,
2.811,0.02,0.01,0.99,1.55,0.15,0.05,
2.811,0.01,0.01,0.98,1.55,0.15,0.05,
2.812,0.01,0.01,0.98,1.55,0.15,0.05,
2.813,0.01,0.01,0.98,1.40,0.22,0.01,
2.816,0.01,0.02,0.99,1.40,0.22,0.01,
2.817,0.01,0.02,0.98,1.40,0.22,0.01,
2.817,0.01,0.02,0.98,1.30,0.31,-0.04,
2.82,0.01,0.02,0.98,1.30,0.31,-0.04,
2.822,0.01,0.02,0.98,1.24,0.36,-0.02,
2.822,0.01,0.03,0.98,1.24,0.36,-0.02,
2.829,0.01,0.03,0.97,1.24,0.36,-0.02,
2.831,0.01,0.03,0.97,1.24,0.36,-0.02,
2.832,0.01,0.03,0.97,1.25,0.40,-0.08,
2.832,0.01,0.03,0.97,1.25,0.40,-0.08,
2.832,0.01,0.03,0.97,1.23,0.43,-0.15,
2.833,0.01,0.03,0.97,1.23,0.43,-0.15,
2.835,0.02,0.03,0.97,1.23,0.43,-0.15,
2.838,0.02,0.03,0.97,1.25,0.41,-0.15,
2.838,0.02,0.03,0.96,1.25,0.41,-0.15,
2.839,0.02,0.03,0.96,1.25,0.41,-0.15,
2.842,0.03,0.03,0.95,1.25,0.41,-0.15,
2.843,0.03,0.03,0.95,1.29,0.40,-0.25,
2.844,0.02,0.02,0.95,1.29,0.40,-0.25,
2.848,0.03,0.02,0.94,1.29,0.40,-0.25,
2.848,0.03,0.02,0.94,1.32,0.36,-0.33,
2.85,0.04,0.02,0.94,1.32,0.36,-0.33,
2.852,0.04,0.01,0.93,1.32,0.36,-0.33,
2.852,0.04,0.01,0.93,1.36,0.30,-0.40,
2.855,0.04,0.01,0.93,1.36,0.30,-0.40,
2.857,0.04,0.01,0.93,1.36,0.30,-0.40,
2.857,0.04,0.01,0.93,1.46,0.22,-0.52,
2.859,0.04,0.01,0.92,1.46,0.22,-0.52,
2.863,0.04,0.01,0.92,1.46,0.15,-0.57,
2.863,0.04,0.01,0.92,1.46,0.15,-0.57,
2.864,0.04,0.01,0.92,1.46,0.15,-0.57,
2.867,0.04,0.01,0.92,1.46,0.15,-0.57,
2.867,0.04,0.01,0.92,1.44,0.12,-0.64,
2.871,0.03,0.01,0.92,1.44,0.12,-0.64,
2.872,0.03,0.01,0.92,1.40,0.12,-0.64,
2.872,0.03,0.01,0.91,1.40,0.12,-0.64,
2.874,0.03,0.02,0.91,1.40,0.12,-0.64,
2.877,0.02,0.02,0.92,1.40,0.12,-0.64,
2.877,0.02,0.02,0.92,1.32,0.16,-0.71,
2.879,0.02,0.02,0.92,1.32,0.16,-0.71,
2.881,0.02,0.03,0.91,1.32,0.16,-0.71,
2.881,0.02,0.03,0.91,1.27,0.21,-0.68,
2.884,0.02,0.03,0.91,1.27,0.21,-0.68,
2.887,0.01,0.03,0.92,1.27,0.21,-0.68,
2.888,0.01,0.03,0.92,1.22,0.26,-0.69,
2.89,0.01,0.03,0.92,1.22,0.26,-0.69,
2.892,0.01,0.03,0.93,1.22,0.26,-0.69,
2.892,0.01,0.03,0.93,1.13,0.28,-0.67,
2.894,0.00,0.04,0.94,1.13,0.28,-0.67,
2.898,0.00,0.04,0.94,1.09,0.32,-0.60,
2.898,-0.00,0.03,0.93,1.09,0.32,-0.60,
2.898,-0.00,0.04,0.93,1.09,0.32,-0.60,
2.902,-0.01,0.04,0.94,1.09,0.32,-0.60,
2.902,-0.01,0.04,0.94,0.95,0.35,-0.53,
2.904,-0.01,0.04,0.95,0.95,0.35,-0.53,
2.907,-0.01,0.04,0.95,0.95,0.35,-0.53,
2.907,-0.01,0.04,0.95,0.90,0.36,-0.48,
2.909,-0.02,0.04,0.95,0.90,0.36,-0.48,
2.911,-0.02,0.03,0.96,0.90,0.36,-0.48,
2.912,-0.02,0.03,0.96,0.83,0.39,-0.37,
2.914,-0.03,0.04,0.96,0.83,0.39,-0.37,
2.917,-0.04,0.03,0.96,0.83,0.39,-0.37,
2.917,-0.04,0.03,0.96,0.73,0.37,-0.29,
2.919,-0.04,0.04,0.97,0.73,0.37,-0.29,
2.922,-0.04,0.04,0.97,0.61,0.35,-0.24,
2.922,-0.04,0.04,0.96,0.61,0.35,-0.24,
2.924,-0.04,0.04,0.97,0.61,0.35,-0.24,
2.929,-0.05,0.04,0.97,0.61,0.35,-0.24,
2.93,-0.05,0.04,0.97,0.51,0.37,-0.22,
2.93,-0.05,0.03,0.97,0.51,0.37,-0.22,
2.931,-0.05,0.03,0.97,0.47,0.37,-0.16,
2.931,-0.07,0.04,0.99,0.47,0.37,-0.16,
2.934,-0.08,0.03,1.02,0.47,0.37,-0.16,
2.936,-0.07,0.03,1.03,0.47,0.37,-0.16,
2.936,-0.07,0.03,1.03,0.35,0.37,-0.06,
2.939,-0.07,0.03,1.04,0.35,0.37,-0.06,
2.941,-0.07,0.03,1.04,0.35,0.37,-0.06,
2.941,-0.07,0.03,1.04,0.20,0.33,0.37,
2.944,-0.06,0.02,1.04,0.20,0.33,0.37,
2.947,-0.06,0.02,1.04,0.20,0.33,0.37,
2.947,-0.06,0.02,1.04,0.21,0.28,0.51,
2.948,-0.06,0.02,1.03,0.21,0.28,0.51,
2.951,-0.05,0.03,1.03,0.21,0.28,0.51,
2.952,-0.05,0.03,1.03,0.27,0.21,0.50,
2.954,-0.04,0.03,1.02,0.27,0.21,0.50,
2.956,-0.03,0.04,1.02,0.27,0.21,0.50,
2.956,-0.03,0.04,1.02,0.31,0.24,0.41,
2.96,-0.03,0.04,1.01,0.31,0.24,0.41,
2.961,-0.03,0.04,1.00,0.31,0.24,0.41,
2.961,-0.03,0.04,1.00,0.47,0.34,0.31,
2.963,-0.03,0.04,0.99,0.47,0.34,0.31,
2.966,-0.03,0.03,0.99,0.47,0.34,0.31,
2.966,-0.03,0.03,0.99,0.53,0.43,0.18,
2.969,-0.04,0.03,1.00,0.53,0.43,0.18,
2.971,-0.04,0.03,1.00,0.48,0.36,0.03,
2.971,-0.04,0.02,0.99,0.48,0.36,0.03,
2.973,-0.04,0.01,1.00,0.48,0.36,0.03,
2.976,-0.04,0.00,1.01,0.48,0.36,0.03,
2.976,-0.04,0.00,1.01,0.34,0.25,0.07,
2.978,-0.03,-0.01,1.02,0.34,0.25,0.07,
2.981,-0.04,-0.01,1.01,0.34,0.25,0.07,
2.981,-0.04,-0.01,1.01,0.35,0.07,0.16,
2.983,-0.04,-0.01,1.01,0.35,0.07,0.16,
2.986,-0.03,-0.00,1.00,0.35,0.07,0.16,
2.986,-0.03,-0.00,1.00,0.36,-0.11,0.23,
2.988,-0.03,0.01,0.99,0.36,-0.11,0.23,
2.991,-0.02,0.02,0.98,0.36,-0.11,0.23,
2.991,-0.02,0.02,0.98,0.37,-0.03,0.15,
2.993,-0.01,0.02,0.98,0.37,-0.03,0.15,
2.996,-0.01,0.02,0.98,0.47,0.13,-0.02,
2.996,-0.01,0.02,0.97,0.47,0.13,-0.02,
2.998,-0.01,0.02,0.97,0.47,0.13,-0.02,
3.001,-0.02,0.02,0.98,0.47,0.13,-0.02,
3.001,-0.02,0.02,0.98,0.55,0.21,-0.16,
3.003,-0.03,0.01,0.99,0.55,0.21,-0.16,
3.006,-0.05,-0.00,1.01,0.55,0.21,-0.16,
3.006,-0.05,-0.00,1.01,0.51,0.20,-0.17,
3.008,-0.07,-0.01,1.05,0.51,0.20,-0.17,
3.01,-0.08,-0.01,1.07,0.51,0.20,-0.17,
3.011,-0.08,-0.01,1.07,0.24,0.07,0.13,
3.013,-0.07,-0.01,1.08,0.24,0.07,0.13,
3.016,-0.05,-0.01,1.07,0.24,0.07,0.13,
3.016,-0.05,-0.01,1.07,-0.10,-0.09,0.66,
3.018,-0.02,0.00,1.05,-0.10,-0.09,0.66,
3.021,-0.02,0.00,1.05,0.03,-0.08,0.83,
3.021,0.00,0.01,1.04,0.03,-0.08,0.83,
3.023,0.02,0.01,1.02,0.03,-0.08,0.83,
3.03,0.02,0.01,1.02,0.48,0.04,0.56,
3.03,0.03,0.01,1.01,0.48,0.04,0.56,
3.031,0.04,0.01,1.00,0.48,0.04,0.56,
3.031,0.05,0.00,0.99,0.48,0.04,0.56,
3.031,0.05,0.00,0.99,0.85,0.09,0.21,
3.032,0.04,-0.01,0.99,0.85,0.09,0.21,
3.035,0.03,-0.02,0.98,0.85,0.09,0.21,
3.035,0.03,-0.02,0.98,1.00,0.01,0.04,
3.038,0.02,-0.03,0.98,1.00,0.01,0.04,
3.04,0.02,-0.03,0.97,1.00,0.01,0.04,
3.04,0.02,-0.03,0.97,0.90,-0.19,-0.04,
3.042,0.01,-0.03,0.97,0.90,-0.19,-0.04,
3.045,0.01,-0.03,0.97,0.74,-0.37,-0.16,
3.045,0.01,-0.03,0.97,0.74,-0.37,-0.16,
3.047,0.01,-0.03,0.97,0.74,-0.37,-0.16,
3.049,-0.00,-0.02,0.98,0.74,-0.37,-0.16,
3.05,-0.00,-0.02,0.98,0.65,-0.39,-0.23,
3.052,-0.00,-0.01,0.98,0.65,-0.39,-0.23,
3.055,-0.00,-0.00,0.99,0.65,-0.39,-0.23,
3.055,-0.00,-0.00,0.99,0.59,-0.35,-0.15,
3.057,-0.01,0.01,1.00,0.59,-0.35,-0.15,
3.061,-0.01,0.01,1.00,0.59,-0.35,-0.15,
3.061,-0.01,0.01,1.00,0.55,-0.16,-0.04,
3.062,-0.02,0.02,1.01,0.55,-0.16,-0.04,
3.064,-0.02,0.02,1.00,0.55,-0.16,-0.04,
3.065,-0.02,0.02,1.00,0.45,-0.02,0.09,
3.067,-0.02,0.02,1.00,0.45,-0.02,0.09,
3.069,-0.02,0.02,1.00,0.40,0.06,0.13,
3.07,-0.02,0.02,0.99,0.40,0.06,0.13,
3.072,-0.03,0.02,0.99,0.40,0.06,0.13,
3.076,-0.03,0.02,0.98,0.40,0.06,0.13,
3.076,-0.03,0.02,0.98,0.36,0.05,0.06,
3.077,-0.04,0.02,0.99,0.36,0.05,0.06,
3.079,-0.04,0.02,0.98,0.36,0.05,0.06,
3.079,-0.04,0.02,0.98,0.31,0.05,-0.03,
3.082,-0.04,0.02,0.97,0.31,0.05,-0.03,
3.084,-0.03,0.03,0.97,0.31,0.05,-0.03,
3.084,-0.03,0.03,0.97,0.23,-0.01,-0.05,
3.086,-0.01,0.03,0.88,0.23,-0.01,-0.05,
3.089,-0.02,0.03,0.74,0.23,-0.01,-0.05,
3.089,-0.02,0.03,0.74,0.27,0.10,-0.22,
3.092,-0.08,0.05,0.66,0.27,0.10,-0.22,
3.094,-0.08,0.05,0.66,0.46,0.12,-1.77,
3.094,-0.10,0.07,0.72,0.46,0.12,-1.77,
3.096,-0.08,0.09,0.81,0.46,0.12,-1.77,
3.099,-0.08,0.09,0.87,0.46,0.12,-1.77,
3.099,-0.08,0.09,0.87,-0.28,0.44,-2.94,
3.101,-0.08,0.09,0.88,-0.28,0.44,-2.94,
3.106,-0.09,0.08,0.90,-0.28,0.44,-2.94,
3.107,-0.09,0.08,0.90,-0.18,0.73,-1.43,
3.107,-0.09,0.07,0.93,-0.18,0.73,-1.43,
3.11,-0.10,0.06,0.99,-0.18,0.73,-1.43,
3.11,-0.10,0.06,0.99,-0.17,0.70,-0.97,
3.113,-0.10,0.03,1.04,-0.17,0.70,-0.97,
3.114,-0.10,0.01,1.09,-0.17,0.70,-0.97,
3.114,-0.10,0.01,1.09,-0.28,0.53,-0.28,
3.116,-0.10,-0.02,1.12,-0.28,0.53,-0.28,
3.119,-0.09,-0.03,1.16,-0.28,0.53,-0.28,
3.119,-0.09,-0.03,1.16,-0.32,0.08,0.75,
3.121,-0.07,-0.04,1.17,-0.32,0.08,0.75,
3.124,-0.06,-0.05,1.18,-0.32,0.08,0.75,
3.124,-0.06,-0.05,1.18,-0.27,-0.36,1.48,
3.13,-0.05,-0.05,1.17,-0.27,-0.36,1.48,
3.131,-0.04,-0.04,1.17,-0.27,-0.36,1.48,
3.133,-0.04,-0.04,1.17,-0.00,-0.55,1.78,
3.133,-0.04,-0.03,1.15,-0.00,-0.55,1.78,
3.134,-0.04,-0.03,1.13,-0.00,-0.55,1.78,
3.135,-0.04,-0.03,1.13,0.19,-0.54,1.81,
3.136,-0.03,-0.02,1.10,0.19,-0.54,1.81,
3.139,-0.03,-0.01,1.07,0.19,-0.54,1.81,
3.139,-0.03,-0.01,1.07,0.21,-0.43,1.49,
3.141,-0.03,0.00,1.04,0.21,-0.43,1.49,
3.151,-0.03,0.02,1.01,0.21,-0.43,1.49,
3.151,-0.03,0.02,1.01,0.31,-0.25,0.95,
3.151,-0.02,0.03,0.99,0.31,-0.25,0.95,
3.153,-0.02,0.03,0.96,0.31,-0.25,0.95,
3.155,-0.02,0.03,0.96,0.34,-0.04,0.36,
3.155,-0.01,0.03,0.94,0.34,-0.04,0.36,
3.155,-0.01,0.04,0.92,0.34,-0.04,0.36,
3.155,-0.01,0.04,0.92,0.43,0.13,-0.19,
3.157,-0.01,0.04,0.90,0.43,0.13,-0.19,
3.168,-0.01,0.04,0.90,0.48,0.17,-0.58,
3.168,-0.02,0.04,0.89,0.48,0.17,-0.58,
3.168,-0.02,0.04,0.88,0.48,0.17,-0.58,
3.169,-0.03,0.04,0.88,0.48,0.17,-0.58,
3.169,-0.03,0.04,0.88,0.45,0.18,-0.90,
3.169,-0.03,0.04,0.88,0.45,0.18,-0.90,
3.169,-0.03,0.04,0.88,0.39,0.17,-1.05,
3.169,-0.03,0.04,0.87,0.39,0.17,-1.05,
