
time,gFx,gFy,gFz,ax,ay,az,
0.002,-0.17,0.20,0.91,0.06,0.13,-1.12,
0.003,-0.17,0.20,0.91,-0.00,0.14,-0.99,
0.003,-0.15,0.21,0.92,-0.00,0.14,-0.99,
0.004,-0.13,0.22,0.93,-0.00,0.14,-0.99,
0.004,-0.13,0.22,0.93,-0.32,0.25,-0.86,
0.006,-0.12,0.22,0.95,-0.32,0.25,-0.86,
0.009,-0.11,0.21,0.97,-0.32,0.25,-0.86,
0.009,-0.11,0.21,0.97,-0.03,0.48,-0.64,
0.012,-0.10,0.21,0.99,-0.03,0.48,-0.64,
0.014,-0.10,0.21,0.99,0.20,0.49,-0.27,
0.014,-0.11,0.20,1.01,0.20,0.49,-0.27,
0.016,-0.11,0.19,1.02,0.20,0.49,-0.27,
0.019,-0.11,0.19,1.02,0.26,0.43,0.04,
0.019,-0.11,0.19,1.03,0.26,0.43,0.04,
0.021,-0.11,0.19,1.04,0.26,0.43,0.04,
0.024,-0.11,0.19,1.04,0.26,0.43,0.04,
0.024,-0.11,0.19,1.04,0.18,0.32,0.28,
0.026,-0.12,0.19,1.05,0.18,0.32,0.28,
0.03,-0.12,0.19,1.06,0.18,0.32,0.28,
0.031,-0.12,0.19,1.06,0.15,0.35,0.45,
0.031,-0.11,0.19,1.07,0.15,0.35,0.45,
0.034,-0.11,0.19,1.06,0.15,0.35,0.45,
0.034,-0.11,0.19,1.06,0.08,0.41,0.57,
0.037,-0.12,0.19,1.07,0.08,0.41,0.57,
0.039,-0.12,0.19,1.07,0.13,0.37,0.67,
0.039,-0.16,0.19,1.09,0.13,0.37,0.67,
0.041,-0.18,0.18,1.09,0.13,0.37,0.67,
0.046,-0.19,0.17,1.10,0.13,0.37,0.67,
0.046,-0.19,0.17,1.10,-0.18,0.39,0.81,
0.046,-0.20,0.17,1.10,-0.18,0.39,0.81,
0.048,-0.19,0.16,1.10,-0.18,0.39,0.81,
0.049,-0.19,0.16,1.10,-0.58,0.34,0.94,
0.051,-0.19,0.15,1.11,-0.58,0.34,0.94,
0.054,-0.18,0.15,1.11,-0.58,0.34,0.94,
0.054,-0.18,0.15,1.11,-0.71,0.20,1.02,
0.056,-0.18,0.14,1.11,-0.71,0.20,1.02,
0.059,-0.17,0.14,1.11,-0.71,0.20,1.02,
0.059,-0.17,0.14,1.11,-0.60,0.10,1.03,
0.061,-0.16,0.14,1.11,-0.60,0.10,1.03,
0.063,-0.16,0.14,1.11,-0.48,0.01,1.06,
0.064,-0.15,0.13,1.11,-0.48,0.01,1.06,
0.066,-0.14,0.13,1.12,-0.48,0.01,1.06,
0.068,-0.13,0.13,1.13,-0.48,0.01,1.06,
0.068,-0.13,0.13,1.13,-0.35,-0.02,1.08,
0.071,-0.12,0.12,1.14,-0.35,-0.02,1.08,
0.074,-0.11,0.13,1.16,-0.35,-0.02,1.08,
0.074,-0.11,0.13,1.16,-0.12,-0.11,1.20,
0.076,-0.11,0.13,1.16,-0.12,-0.11,1.20,
0.082,-0.10,0.14,1.16,-0.12,-0.11,1.20,
0.082,-0.10,0.14,1.16,0.05,-0.13,1.42,
0.083,-0.10,0.14,1.16,0.05,-0.13,1.42,
0.083,-0.10,0.14,1.16,0.05,-0.13,1.42,
0.083,-0.10,0.14,1.16,0.18,-0.06,1.49,
0.085,-0.10,0.14,1.15,0.18,-0.06,1.49,
0.088,-0.10,0.14,1.15,0.23,0.01,1.53,
0.088,-0.10,0.15,1.15,0.23,0.01,1.53,
0.091,-0.11,0.15,1.13,0.23,0.01,1.53,
0.094,-0.11,0.14,1.12,0.23,0.01,1.53,
0.094,-0.11,0.14,1.12,0.24,0.03,1.41,
0.096,-0.12,0.15,1.11,0.24,0.03,1.41,
0.098,-0.12,0.16,1.09,0.24,0.03,1.41,
0.098,-0.12,0.16,1.09,0.11,0.03,1.17,
0.101,-0.12,0.16,1.07,0.11,0.03,1.17,
0.103,-0.13,0.16,1.05,0.11,0.03,1.17,
0.104,-0.13,0.16,1.05,0.01,0.11,0.88,
0.106,-0.12,0.17,1.04,0.01,0.11,0.88,
0.108,-0.13,0.17,1.02,0.01,0.11,0.88,
0.109,-0.13,0.17,1.02,-0.07,0.15,0.50,
0.112,-0.13,0.17,1.00,-0.07,0.15,0.50,
0.113,-0.13,0.17,1.00,-0.11,0.21,0.19,
0.113,-0.13,0.17,0.99,-0.11,0.21,0.19,
0.115,-0.13,0.17,0.98,-0.11,0.21,0.19,
0.118,-0.13,0.17,0.96,-0.11,0.21,0.19,
0.118,-0.13,0.17,0.96,-0.16,0.18,-0.12,
0.12,-0.13,0.17,0.94,-0.16,0.18,-0.12,
0.122,-0.13,0.17,0.93,-0.16,0.18,-0.12,
0.123,-0.13,0.17,0.93,-0.21,0.17,-0.40,
0.127,-0.14,0.16,0.91,-0.21,0.17,-0.40,
0.129,-0.14,0.17,0.90,-0.21,0.17,-0.40,
0.129,-0.14,0.17,0.90,-0.25,0.16,-0.75,
0.131,-0.13,0.16,0.90,-0.25,0.16,-0.75,
0.133,-0.13,0.15,0.89,-0.25,0.16,-0.75,
0.133,-0.13,0.15,0.89,-0.32,0.12,-0.97,
0.136,-0.12,0.14,0.88,-0.32,0.12,-0.97,
0.138,-0.12,0.14,0.88,-0.29,-0.01,-1.12,
0.138,-0.12,0.14,0.87,-0.29,-0.01,-1.12,
0.14,-0.11,0.13,0.86,-0.29,-0.01,-1.12,
0.142,-0.11,0.13,0.86,-0.29,-0.01,-1.12,
0.143,-0.11,0.13,0.86,-0.23,-0.13,-1.30,
0.146,-0.11,0.12,0.85,-0.23,-0.13,-1.30,
0.147,-0.10,0.11,0.85,-0.23,-0.13,-1.30,
0.147,-0.10,0.11,0.85,-0.16,-0.26,-1.44,
0.15,-0.09,0.10,0.85,-0.16,-0.26,-1.44,
0.152,-0.08,0.09,0.85,-0.16,-0.26,-1.44,
0.152,-0.08,0.09,0.85,-0.13,-0.41,-1.52,
0.154,-0.08,0.08,0.85,-0.13,-0.41,-1.52,
0.157,-0.06,0.08,0.86,-0.13,-0.41,-1.52,
0.158,-0.06,0.08,0.86,0.01,-0.62,-1.55,
0.16,-0.05,0.07,0.86,0.01,-0.62,-1.55,
0.163,-0.05,0.07,0.86,0.16,-0.77,-1.44,
0.166,-0.04,0.07,0.86,0.16,-0.77,-1.44,
0.166,-0.02,0.08,0.87,0.16,-0.77,-1.44,
0.167,-0.02,0.09,0.87,0.16,-0.77,-1.44,
0.167,-0.02,0.09,0.87,0.38,-0.84,-1.40,
0.17,-0.01,0.08,0.87,0.38,-0.84,-1.40,
0.172,-0.00,0.08,0.88,0.38,-0.84,-1.40,
0.172,-0.00,0.08,0.88,0.61,-0.75,-1.32,
0.174,0.01,0.08,0.87,0.61,-0.75,-1.32,
0.183,0.01,0.08,0.88,0.61,-0.75,-1.32,
0.183,0.01,0.08,0.88,0.74,-0.75,-1.22,
0.183,0.02,0.07,0.88,0.74,-0.75,-1.22,
0.184,0.04,0.06,0.89,0.74,-0.75,-1.22,
0.184,0.04,0.06,0.89,0.89,-0.75,-1.24,
0.184,0.06,0.05,0.90,0.89,-0.75,-1.24,
0.187,0.06,0.05,0.90,1.09,-0.91,-1.10,
0.187,0.07,0.05,0.91,1.09,-0.91,-1.10,
0.189,0.09,0.04,0.91,1.09,-0.91,-1.10,
0.193,0.10,0.04,0.92,1.09,-0.91,-1.10,
0.193,0.10,0.04,0.92,1.38,-1.04,-0.94,
0.196,0.12,0.04,0.93,1.38,-1.04,-0.94,
0.197,0.13,0.04,0.93,1.38,-1.04,-0.94,
0.197,0.13,0.04,0.93,1.69,-1.13,-0.81,
0.199,0.14,0.04,0.93,1.69,-1.13,-0.81,
0.202,0.15,0.03,0.93,1.69,-1.13,-0.81,
0.202,0.15,0.03,0.93,1.92,-1.15,-0.69,
0.204,0.15,0.02,0.93,1.92,-1.15,-0.69,
0.207,0.16,0.02,0.92,1.92,-1.15,-0.69,
0.207,0.16,0.02,0.92,2.08,-1.20,-0.68,
0.209,0.17,0.02,0.92,2.08,-1.20,-0.68,
0.214,0.17,0.02,0.92,2.19,-1.31,-0.71,
0.214,0.17,0.02,0.92,2.19,-1.31,-0.71,
0.215,0.17,0.02,0.91,2.19,-1.31,-0.71,
0.217,0.16,0.02,0.89,2.19,-1.31,-0.71,
0.217,0.16,0.02,0.89,2.26,-1.35,-0.71,
0.219,0.16,0.02,0.87,2.26,-1.35,-0.71,
0.221,0.15,0.02,0.85,2.26,-1.35,-0.71,
0.222,0.15,0.02,0.85,2.24,-1.37,-0.95,
0.224,0.15,0.02,0.82,2.24,-1.37,-0.95,
0.226,0.14,0.03,0.80,2.24,-1.37,-0.95,
0.227,0.14,0.03,0.80,2.13,-1.38,-1.31,
0.229,0.14,0.03,0.78,2.13,-1.38,-1.31,
0.232,0.14,0.04,0.75,2.13,-1.38,-1.31,
0.232,0.14,0.04,0.75,2.01,-1.37,-1.77,
0.234,0.14,0.05,0.72,2.01,-1.37,-1.77,
0.236,0.14,0.05,0.72,1.95,-1.27,-2.25,
0.236,0.14,0.05,0.70,1.95,-1.27,-2.25,
0.239,0.15,0.05,0.68,1.95,-1.27,-2.25,
0.241,0.15,0.05,0.66,1.95,-1.27,-2.25,
0.241,0.15,0.05,0.66,1.96,-1.22,-2.72,
0.243,0.16,0.05,0.64,1.96,-1.22,-2.72,
0.247,0.17,0.05,0.62,1.96,-1.22,-2.72,
0.247,0.17,0.05,0.62,2.07,-1.20,-3.09,
0.248,0.17,0.05,0.61,2.07,-1.20,-3.09,
0.251,0.17,0.05,0.59,2.07,-1.20,-3.09,
0.251,0.17,0.05,0.59,2.19,-1.28,-3.46,
0.253,0.18,0.04,0.58,2.19,-1.28,-3.46,
0.256,0.18,0.04,0.57,2.19,-1.28,-3.46,
0.256,0.18,0.04,0.57,2.23,-1.30,-3.74,
0.258,0.18,0.04,0.56,2.23,-1.30,-3.74,
0.267,0.18,0.04,0.56,2.33,-1.37,-3.96,
0.267,0.19,0.03,0.55,2.33,-1.37,-3.96,
0.268,0.19,0.02,0.54,2.33,-1.37,-3.96,
0.268,0.20,0.02,0.54,2.33,-1.37,-3.96,
0.269,0.20,0.02,0.54,2.37,-1.49,-4.08,
0.269,0.21,0.01,0.55,2.37,-1.49,-4.08,
0.271,0.23,0.00,0.55,2.37,-1.49,-4.08,
0.272,0.23,0.00,0.55,2.48,-1.65,-4.20,
0.273,0.22,0.00,0.55,2.48,-1.65,-4.20,
0.276,0.23,0.01,0.55,2.48,-1.65,-4.20,
0.276,0.23,0.01,0.55,2.69,-1.81,-4.09,
0.279,0.24,0.01,0.56,2.69,-1.81,-4.09,
0.281,0.24,0.01,0.57,2.69,-1.81,-4.09,
0.281,0.24,0.01,0.57,2.78,-1.83,-4.05,
0.283,0.24,0.01,0.57,2.78,-1.83,-4.05,
0.286,0.24,0.01,0.57,2.89,-1.76,-3.94,
0.286,0.23,0.02,0.57,2.89,-1.76,-3.94,
0.288,0.23,0.02,0.58,2.89,-1.76,-3.94,
0.292,0.23,0.02,0.59,2.89,-1.76,-3.94,
0.292,0.23,0.02,0.59,2.85,-1.73,-3.85,
0.293,0.23,0.02,0.59,2.85,-1.73,-3.85,
0.297,0.22,0.02,0.59,2.85,-1.73,-3.85,
0.297,0.22,0.02,0.59,2.81,-1.66,-3.67,
0.298,0.22,0.01,0.60,2.81,-1.66,-3.67,
0.301,0.21,0.01,0.60,2.81,-1.66,-3.67,
0.301,0.21,0.01,0.60,2.74,-1.66,-3.63,
0.303,0.19,-0.00,0.61,2.74,-1.66,-3.63,
0.306,0.19,-0.01,0.61,2.74,-1.66,-3.63,
0.306,0.19,-0.01,0.61,2.61,-1.74,-3.47,
0.308,0.18,-0.01,0.62,2.61,-1.74,-3.47,
0.313,0.18,-0.01,0.62,2.35,-1.89,-3.36,
0.314,0.18,-0.02,0.63,2.35,-1.89,-3.36,
0.314,0.17,-0.02,0.65,2.35,-1.89,-3.36,
0.315,0.17,-0.03,0.66,2.35,-1.89,-3.36,
0.316,0.17,-0.03,0.66,2.24,-1.96,-3.19,
0.318,0.17,-0.03,0.67,2.24,-1.96,-3.19,
0.321,0.17,-0.03,0.68,2.24,-1.96,-3.19,
0.321,0.17,-0.03,0.68,2.12,-2.05,-2.91,
0.323,0.18,-0.03,0.69,2.12,-2.05,-2.91,
0.325,0.18,-0.03,0.70,2.12,-2.05,-2.91,
0.326,0.18,-0.03,0.70,2.10,-2.07,-2.70,
0.329,0.17,-0.04,0.70,2.10,-2.07,-2.70,
0.332,0.17,-0.04,0.71,2.10,-2.07,-2.70,
0.332,0.17,-0.04,0.71,2.10,-2.04,-2.50,
0.333,0.17,-0.04,0.72,2.10,-2.04,-2.50,
0.335,0.17,-0.04,0.72,2.01,-2.11,-2.36,
0.336,0.16,-0.04,0.72,2.01,-2.11,-2.36,
0.339,0.16,-0.04,0.72,2.01,-2.11,-2.36,
0.341,0.15,-0.04,0.72,2.01,-2.11,-2.36,
0.341,0.15,-0.04,0.72,1.89,-2.11,-2.22,
0.344,0.15,-0.04,0.71,1.89,-2.11,-2.22,
0.346,0.14,-0.04,0.70,1.89,-2.11,-2.22,
0.347,0.14,-0.04,0.70,1.75,-2.10,-2.25,
0.348,0.13,-0.04,0.70,1.75,-2.10,-2.25,
0.352,0.13,-0.02,0.69,1.75,-2.10,-2.25,
0.352,0.13,-0.02,0.69,1.61,-2.05,-2.33,
0.353,0.13,-0.02,0.67,1.61,-2.05,-2.33,
0.355,0.12,-0.02,0.67,1.61,-2.05,-2.33,
0.356,0.12,-0.02,0.67,1.47,-1.95,-2.45,
0.359,0.13,-0.02,0.66,1.47,-1.95,-2.45,
0.361,0.13,-0.02,0.66,1.39,-1.88,-2.66,
0.361,0.13,-0.02,0.65,1.39,-1.88,-2.66,
0.363,0.13,-0.01,0.64,1.39,-1.88,-2.66,
0.366,0.14,-0.01,0.64,1.39,-1.88,-2.66,
0.366,0.14,-0.01,0.64,1.44,-1.82,-2.79,
0.368,0.14,-0.01,0.63,1.44,-1.82,-2.79,
0.371,0.14,-0.01,0.63,1.49,-1.78,-2.94,
0.371,0.15,-0.01,0.63,1.49,-1.78,-2.94,
0.372,0.15,-0.00,0.63,1.49,-1.78,-2.94,
0.376,0.16,-0.00,0.63,1.49,-1.78,-2.94,
0.376,0.16,-0.00,0.63,1.63,-1.75,-3.04,
0.378,0.17,-0.01,0.64,1.63,-1.75,-3.04,
0.384,0.16,-0.01,0.64,1.63,-1.75,-3.04,
0.385,0.16,-0.01,0.64,1.72,-1.67,-2.98,
0.385,0.17,-0.02,0.65,1.72,-1.67,-2.98,
0.385,0.17,-0.02,0.65,1.82,-1.73,-2.87,
0.385,0.17,-0.03,0.67,1.82,-1.73,-2.87,
0.387,0.18,-0.03,0.68,1.82,-1.73,-2.87,
0.39,0.18,-0.03,0.69,1.82,-1.73,-2.87,
0.39,0.18,-0.03,0.69,1.90,-1.85,-2.66,
0.392,0.19,-0.03,0.70,1.90,-1.85,-2.66,
0.397,0.21,-0.03,0.72,1.90,-1.85,-2.66,
0.397,0.21,-0.03,0.72,1.98,-1.94,-2.41,
0.398,0.22,-0.02,0.74,1.98,-1.94,-2.41,
0.4,0.22,-0.02,0.74,2.20,-1.91,-2.14,
0.4,0.23,-0.02,0.75,2.20,-1.91,-2.14,
0.402,0.24,-0.02,0.75,2.20,-1.91,-2.14,
0.405,0.25,-0.02,0.76,2.20,-1.91,-2.14,
0.406,0.25,-0.02,0.76,2.40,-1.83,-1.85,
0.408,0.26,-0.01,0.77,2.40,-1.83,-1.85,
0.411,0.26,-0.01,0.77,2.64,-1.75,-1.67,
0.411,0.27,-0.01,0.78,2.64,-1.75,-1.67,
0.413,0.27,-0.01,0.78,2.64,-1.75,-1.67,
0.415,0.27,-0.01,0.79,2.64,-1.75,-1.67,
0.416,0.27,-0.01,0.79,2.77,-1.68,-1.45,
0.417,0.28,-0.01,0.79,2.77,-1.68,-1.45,
0.42,0.28,-0.01,0.79,2.85,-1.65,-1.37,
0.42,0.28,-0.01,0.78,2.85,-1.65,-1.37,
0.422,0.29,-0.01,0.79,2.85,-1.65,-1.37,
0.425,0.29,-0.01,0.79,2.85,-1.65,-1.37,
0.425,0.29,-0.01,0.79,2.85,-1.67,-1.36,
0.427,0.29,-0.01,0.78,2.85,-1.67,-1.36,
0.43,0.29,-0.00,0.78,2.85,-1.67,-1.36,
0.43,0.29,-0.00,0.78,2.90,-1.62,-1.35,
0.432,0.29,-0.00,0.76,2.90,-1.62,-1.35,
0.435,0.29,-0.00,0.76,2.88,-1.58,-1.44,
0.435,0.29,-0.00,0.76,2.88,-1.58,-1.44,
0.437,0.30,0.00,0.75,2.88,-1.58,-1.44,
0.44,0.29,0.01,0.74,2.88,-1.58,-1.44,
0.44,0.29,0.01,0.74,2.88,-1.52,-1.59,
0.442,0.30,0.01,0.73,2.88,-1.52,-1.59,
0.445,0.30,0.01,0.71,2.88,-1.52,-1.59,
0.445,0.30,0.01,0.71,2.84,-1.45,-1.74,
0.447,0.30,0.02,0.70,2.84,-1.45,-1.74,
0.45,0.30,0.04,0.69,2.84,-1.45,-1.74,
0.45,0.30,0.04,0.69,2.81,-1.37,-1.99,
0.452,0.30,0.05,0.68,2.81,-1.37,-1.99,
0.455,0.30,0.06,0.66,2.81,-1.37,-1.99,
0.455,0.30,0.06,0.66,2.78,-1.20,-2.22,
0.457,0.30,0.07,0.65,2.78,-1.20,-2.22,
0.46,0.30,0.07,0.65,2.78,-0.95,-2.46,
0.46,0.30,0.08,0.64,2.78,-0.95,-2.46,
0.462,0.30,0.09,0.63,2.78,-0.95,-2.46,
0.464,0.29,0.10,0.63,2.78,-0.95,-2.46,
0.464,0.29,0.10,0.63,2.72,-0.74,-2.71,
0.466,0.27,0.10,0.61,2.72,-0.74,-2.71,
0.469,0.27,0.10,0.61,2.64,-0.57,-2.84,
0.469,0.25,0.09,0.60,2.64,-0.57,-2.84,
0.471,0.23,0.09,0.59,2.64,-0.57,-2.84,
0.476,0.20,0.08,0.57,2.64,-0.57,-2.84,
0.477,0.20,0.08,0.57,2.29,-0.56,-3.03,
0.477,0.18,0.07,0.56,2.29,-0.56,-3.03,
0.486,0.17,0.07,0.55,2.29,-0.56,-3.03,
0.487,0.17,0.07,0.55,1.85,-0.64,-3.27,
0.487,0.15,0.06,0.55,1.85,-0.64,-3.27,
0.487,0.15,0.06,0.55,1.44,-0.79,-3.51,
0.488,0.14,0.06,0.54,1.44,-0.79,-3.51,
0.488,0.13,0.05,0.52,1.44,-0.79,-3.51,
0.489,0.13,0.04,0.51,1.44,-0.79,-3.51,
0.489,0.13,0.04,0.51,1.20,-0.91,-3.63,
0.491,0.12,0.04,0.50,1.20,-0.91,-3.63,
0.494,0.11,0.03,0.51,1.20,-0.91,-3.63,
0.494,0.11,0.03,0.51,1.06,-1.02,-3.85,
0.503,0.10,0.02,0.51,1.06,-1.02,-3.85,
0.505,0.10,0.02,0.52,1.06,-1.02,-3.85,
0.505,0.10,0.02,0.52,0.89,-1.15,-3.94,
0.505,0.09,0.00,0.52,0.89,-1.15,-3.94,
0.506,0.09,0.00,0.54,0.89,-1.15,-3.94,
0.506,0.09,0.00,0.54,0.79,-1.27,-3.82,
0.507,0.09,-0.00,0.55,0.79,-1.27,-3.82,
0.509,0.09,-0.00,0.55,0.68,-1.40,-3.66,
0.509,0.09,-0.01,0.57,0.68,-1.40,-3.66,
0.511,0.10,-0.01,0.60,0.68,-1.40,-3.66,
0.513,0.11,-0.01,0.63,0.68,-1.40,-3.66,
0.514,0.11,-0.01,0.63,0.73,-1.45,-3.37,
0.516,0.12,-0.01,0.65,0.73,-1.45,-3.37,
0.519,0.13,-0.01,0.68,0.73,-1.45,-3.37,
0.519,0.13,-0.01,0.68,0.87,-1.43,-2.87,
0.521,0.13,-0.01,0.73,0.87,-1.43,-2.87,
0.523,0.14,-0.01,0.76,0.87,-1.43,-2.87,
0.524,0.14,-0.01,0.76,1.01,-1.41,-2.31,
0.526,0.16,-0.01,0.80,1.01,-1.41,-2.31,
0.532,0.17,-0.01,0.84,1.01,-1.41,-2.31,
0.532,0.17,-0.01,0.84,1.17,-1.38,-1.56,
0.533,0.19,-0.01,0.88,1.17,-1.38,-1.56,
0.534,0.19,-0.01,0.88,1.39,-1.30,-0.81,
0.534,0.20,-0.01,0.92,1.39,-1.30,-0.81,
0.537,0.22,-0.01,0.96,1.39,-1.30,-0.81,
0.539,0.24,-0.01,0.99,1.39,-1.30,-0.81,
0.539,0.24,-0.01,0.99,1.70,-1.26,-0.01,
0.54,0.26,-0.01,1.01,1.70,-1.26,-0.01,
0.544,0.27,-0.01,1.04,1.70,-1.26,-0.01,
0.544,0.27,-0.01,1.04,1.99,-1.21,0.68,
0.546,0.30,-0.00,1.05,1.99,-1.21,0.68,
0.548,0.31,0.00,1.07,1.99,-1.21,0.68,
0.549,0.31,0.00,1.07,2.32,-1.11,1.18,
0.551,0.33,0.01,1.08,2.32,-1.11,1.18,
0.554,0.35,0.01,1.07,2.32,-1.11,1.18,
0.554,0.35,0.01,1.07,2.66,-1.01,1.48,
0.556,0.35,0.01,1.07,2.66,-1.01,1.48,
0.559,0.35,0.01,1.07,2.97,-0.89,1.64,
0.56,0.36,0.01,1.05,2.97,-0.89,1.64,
0.561,0.35,0.02,1.03,2.97,-0.89,1.64,
0.568,0.34,0.02,1.00,2.97,-0.89,1.64,
0.569,0.34,0.02,1.00,3.10,-0.80,1.46,
0.569,0.32,0.02,0.97,3.10,-0.80,1.46,
0.569,0.30,0.02,0.93,3.10,-0.80,1.46,
0.57,0.30,0.02,0.93,2.95,-0.74,1.06,
0.571,0.27,0.02,0.89,2.95,-0.74,1.06,
0.573,0.25,0.02,0.85,2.95,-0.74,1.06,
0.573,0.25,0.02,0.85,2.54,-0.73,0.43,
0.575,0.23,0.02,0.82,2.54,-0.73,0.43,
0.579,0.21,0.02,0.78,2.54,-0.73,0.43,
0.579,0.21,0.02,0.78,2.02,-0.72,-0.40,
0.581,0.19,0.03,0.76,2.02,-0.72,-0.40,
0.583,0.19,0.03,0.76,1.59,-0.72,-1.07,
0.583,0.17,0.03,0.73,1.59,-0.72,-1.07,
0.586,0.15,0.05,0.70,1.59,-0.72,-1.07,
0.588,0.15,0.05,0.70,1.12,-0.64,-1.62,
0.589,0.13,0.06,0.68,1.12,-0.64,-1.62,
0.591,0.12,0.07,0.66,1.12,-0.64,-1.62,
0.594,0.11,0.07,0.64,1.12,-0.64,-1.62,
0.594,0.11,0.07,0.64,0.73,-0.42,-2.13,
0.596,0.08,0.08,0.64,0.73,-0.42,-2.13,
0.599,0.08,0.08,0.64,0.73,-0.42,-2.13,
0.599,0.08,0.08,0.64,0.44,-0.22,-2.49,
0.601,0.07,0.08,0.65,0.44,-0.22,-2.49,
0.603,0.06,0.08,0.66,0.44,-0.22,-2.49,
0.603,0.06,0.08,0.66,0.14,-0.12,-2.57,
0.605,0.06,0.08,0.67,0.14,-0.12,-2.57,
0.608,0.06,0.08,0.67,-0.03,-0.11,-2.42,
0.609,0.05,0.09,0.70,-0.03,-0.11,-2.42,
0.611,0.05,0.10,0.72,-0.03,-0.11,-2.42,
0.615,0.05,0.10,0.75,-0.03,-0.11,-2.42,
0.616,0.05,0.10,0.75,-0.17,-0.04,-2.09,
0.616,0.05,0.12,0.78,-0.17,-0.04,-2.09,
0.617,0.06,0.13,0.80,-0.17,-0.04,-2.09,
0.618,0.06,0.13,0.80,-0.24,0.13,-1.63,
0.62,0.06,0.14,0.83,-0.24,0.13,-1.63,
0.623,0.06,0.14,0.85,-0.24,0.13,-1.63,
0.623,0.06,0.14,0.85,-0.20,0.35,-1.11,
0.625,0.07,0.14,0.87,-0.20,0.35,-1.11,
0.627,0.06,0.16,0.90,-0.20,0.35,-1.11,
0.628,0.06,0.16,0.90,-0.12,0.54,-0.60,
0.631,0.06,0.16,0.92,-0.12,0.54,-0.60,
0.632,0.06,0.16,0.92,-0.12,0.71,-0.13,
0.633,0.06,0.16,0.93,-0.12,0.71,-0.13,
0.635,0.06,0.15,0.94,-0.12,0.71,-0.13,
0.638,0.08,0.14,0.95,-0.12,0.71,-0.13,
0.638,0.08,0.14,0.95,-0.13,0.80,0.20,
0.64,0.09,0.13,0.96,-0.13,0.80,0.20,
0.643,0.09,0.13,0.97,-0.13,0.80,0.20,
0.643,0.09,0.13,0.97,-0.06,0.72,0.43,
0.646,0.10,0.11,0.98,-0.06,0.72,0.43,
0.648,0.11,0.10,0.97,-0.06,0.72,0.43,
0.649,0.11,0.10,0.97,0.10,0.58,0.64,
0.651,0.11,0.09,0.98,0.10,0.58,0.64,
0.652,0.11,0.07,0.97,0.10,0.58,0.64,
0.653,0.11,0.07,0.97,0.26,0.41,0.72,
0.655,0.11,0.05,0.96,0.26,0.41,0.72,
0.657,0.11,0.05,0.96,0.27,0.13,0.68,
0.659,0.11,0.03,0.95,0.27,0.13,0.68,
0.66,0.11,0.00,0.95,0.27,0.13,0.68,
0.663,0.11,-0.02,0.95,0.27,0.13,0.68,
0.663,0.11,-0.02,0.95,0.19,-0.23,0.52,
0.666,0.11,-0.03,0.96,0.19,-0.23,0.52,
0.667,0.11,-0.04,0.96,0.19,-0.23,0.52,
0.668,0.11,-0.04,0.96,0.17,-0.63,0.46,
0.669,0.10,-0.04,0.98,0.17,-0.63,0.46,
0.672,0.09,-0.04,1.01,0.17,-0.63,0.46,
0.672,0.09,-0.04,1.01,0.10,-0.85,0.58,
0.675,0.08,-0.04,1.03,0.10,-0.85,0.58,
0.677,0.07,-0.04,1.06,0.10,-0.85,0.58,
0.678,0.07,-0.04,1.06,-0.10,-0.91,0.93,
0.685,0.05,-0.03,1.08,-0.10,-0.91,0.93,
0.685,0.04,-0.03,1.10,-0.10,-0.91,0.93,
0.686,0.04,-0.03,1.10,-0.36,-0.81,1.37,
0.686,0.02,-0.04,1.12,-0.36,-0.81,1.37,
0.687,0.01,-0.05,1.14,-0.36,-0.81,1.37,
0.687,0.01,-0.05,1.14,-0.63,-0.71,1.81,
0.689,0.00,-0.06,1.16,-0.63,-0.71,1.81,
0.692,-0.01,-0.08,1.18,-0.63,-0.71,1.81,
0.692,-0.01,-0.08,1.18,-0.94,-0.82,2.25,
0.695,-0.02,-0.08,1.19,-0.94,-0.82,2.25,
0.698,-0.02,-0.09,1.19,-0.94,-0.82,2.25,
0.698,-0.02,-0.09,1.19,-1.21,-1.01,2.58,
0.699,-0.01,-0.09,1.20,-1.21,-1.01,2.58,
0.702,-0.00,-0.09,1.20,-1.21,-1.01,2.58,
0.702,-0.00,-0.09,1.20,-1.33,-1.09,2.76,
0.704,0.01,-0.08,1.20,-1.33,-1.09,2.76,
0.707,0.01,-0.08,1.20,-1.24,-1.11,2.84,
0.708,0.02,-0.08,1.19,-1.24,-1.11,2.84,
0.709,0.03,-0.07,1.19,-1.24,-1.11,2.84,
0.713,0.04,-0.05,1.18,-1.24,-1.11,2.84,
0.713,0.04,-0.05,1.18,-1.01,-1.00,2.82,
0.714,0.05,-0.04,1.17,-1.01,-1.00,2.82,
0.717,0.07,-0.04,1.15,-1.01,-1.00,2.82,
0.717,0.07,-0.04,1.15,-0.81,-0.77,2.70,
0.719,0.09,-0.03,1.13,-0.81,-0.77,2.70,
0.722,0.11,-0.02,1.12,-0.81,-0.77,2.70,
0.723,0.11,-0.02,1.12,-0.55,-0.54,2.42,
0.724,0.13,-0.01,1.11,-0.55,-0.54,2.42,
0.726,0.15,-0.01,1.10,-0.55,-0.54,2.42,
0.727,0.15,-0.01,1.10,-0.19,-0.35,2.13,
0.729,0.16,-0.02,1.10,-0.19,-0.35,2.13,
0.732,0.16,-0.02,1.10,0.24,-0.22,1.94,
0.732,0.16,-0.02,1.11,0.24,-0.22,1.94,
0.734,0.15,-0.03,1.10,0.24,-0.22,1.94,
0.737,0.14,-0.03,1.10,0.24,-0.22,1.94,
0.737,0.14,-0.03,1.10,0.46,-0.24,1.87,
0.739,0.13,-0.03,1.09,0.46,-0.24,1.87,
0.742,0.12,-0.04,1.10,0.46,-0.24,1.87,
0.742,0.12,-0.04,1.10,0.36,-0.33,1.84,
0.744,0.12,-0.04,1.11,0.36,-0.33,1.84,
0.749,0.13,-0.04,1.13,0.36,-0.33,1.84,
0.75,0.13,-0.04,1.13,0.21,-0.34,1.77,
0.75,0.13,-0.05,1.14,0.21,-0.34,1.77,
0.751,0.14,-0.05,1.16,0.21,-0.34,1.77,
0.752,0.14,-0.05,1.16,0.22,-0.35,2.01,
0.754,0.14,-0.05,1.18,0.22,-0.35,2.01,
0.757,0.14,-0.05,1.18,0.35,-0.36,2.31,
0.757,0.15,-0.06,1.20,0.35,-0.36,2.31,
0.759,0.15,-0.06,1.22,0.35,-0.36,2.31,
0.762,0.15,-0.06,1.25,0.35,-0.36,2.31,
0.762,0.15,-0.06,1.25,0.47,-0.38,2.68,
0.765,0.14,-0.07,1.27,0.47,-0.38,2.68,
0.766,0.14,-0.07,1.29,0.47,-0.38,2.68,
0.766,0.14,-0.07,1.29,0.54,-0.40,3.12,
0.769,0.14,-0.08,1.30,0.54,-0.40,3.12,
0.772,0.15,-0.08,1.32,0.54,-0.40,3.12,
0.772,0.15,-0.08,1.32,0.48,-0.42,3.49,
0.774,0.16,-0.09,1.32,0.48,-0.42,3.49,
0.777,0.16,-0.09,1.33,0.48,-0.42,3.49,
0.777,0.16,-0.09,1.33,0.53,-0.49,3.77,
0.779,0.17,-0.09,1.33,0.53,-0.49,3.77,
0.784,0.17,-0.09,1.33,0.69,-0.55,3.94,
0.785,0.16,-0.09,1.32,0.69,-0.55,3.94,
0.785,0.15,-0.09,1.32,0.69,-0.55,3.94,
0.787,0.14,-0.09,1.30,0.69,-0.55,3.94,
0.787,0.14,-0.09,1.30,0.79,-0.57,3.91,
0.788,0.13,-0.08,1.27,0.79,-0.57,3.91,
0.791,0.12,-0.08,1.24,0.79,-0.57,3.91,
0.791,0.12,-0.08,1.24,0.63,-0.51,3.74,
0.793,0.10,-0.07,1.20,0.63,-0.51,3.74,
0.796,0.09,-0.07,1.17,0.63,-0.51,3.74,
0.796,0.09,-0.07,1.17,0.40,-0.39,3.18,
0.799,0.09,-0.06,1.14,0.40,-0.39,3.18,
0.801,0.07,-0.06,1.10,0.40,-0.39,3.18,
0.801,0.07,-0.06,1.10,0.19,-0.27,2.51,
0.803,0.05,-0.06,1.08,0.19,-0.27,2.51,
0.806,0.05,-0.06,1.08,0.02,-0.15,1.85,
0.806,0.02,-0.06,1.05,0.02,-0.15,1.85,
0.808,-0.00,-0.06,1.02,0.02,-0.15,1.85,
0.81,-0.03,-0.06,1.00,0.02,-0.15,1.85,
0.811,-0.03,-0.06,1.00,-0.35,-0.12,1.28,
0.813,-0.05,-0.07,0.98,-0.35,-0.12,1.28,
0.816,-0.07,-0.07,0.96,-0.35,-0.12,1.28,
0.817,-0.07,-0.07,0.96,-0.85,-0.12,0.75,
0.818,-0.07,-0.07,0.95,-0.85,-0.12,0.75,
0.82,-0.07,-0.08,0.95,-0.85,-0.12,0.75,
0.821,-0.07,-0.08,0.95,-1.26,-0.23,0.35,
0.823,-0.07,-0.08,0.95,-1.26,-0.23,0.35,
0.826,-0.06,-0.09,0.97,-1.26,-0.23,0.35,
0.826,-0.06,-0.09,0.97,-1.36,-0.25,0.16,
0.828,-0.05,-0.09,0.99,-1.36,-0.25,0.16,
0.831,-0.05,-0.09,0.99,-1.22,-0.30,0.27,
0.832,-0.04,-0.09,1.02,-1.22,-0.30,0.27,
0.833,-0.02,-0.09,1.05,-1.22,-0.30,0.27,
0.835,-0.01,-0.10,1.09,-1.22,-0.30,0.27,
0.836,-0.01,-0.10,1.09,-0.98,-0.30,0.71,
0.837,0.01,-0.11,1.14,-0.98,-0.30,0.71,
0.84,0.03,-0.12,1.18,-0.98,-0.30,0.71,
0.84,0.03,-0.12,1.18,-0.67,-0.27,1.35,
0.843,0.05,-0.13,1.22,-0.67,-0.27,1.35,
0.845,0.06,-0.14,1.27,-0.67,-0.27,1.35,
0.845,0.06,-0.14,1.27,-0.26,-0.39,2.19,
0.848,0.06,-0.16,1.32,-0.26,-0.39,2.19,
0.85,0.07,-0.17,1.37,-0.26,-0.39,2.19,
0.85,0.07,-0.17,1.37,0.10,-0.54,3.09,
0.852,0.06,-0.19,1.41,0.10,-0.54,3.09,
0.855,0.06,-0.19,1.41,0.27,-0.73,3.99,
0.856,0.04,-0.20,1.46,0.27,-0.73,3.99,
0.857,0.03,-0.21,1.49,0.27,-0.73,3.99,
0.86,0.02,-0.22,1.53,0.27,-0.73,3.99,
0.86,0.02,-0.22,1.53,0.16,-0.91,4.90,
0.862,0.01,-0.22,1.56,0.16,-0.91,4.90,
0.866,0.01,-0.23,1.59,0.16,-0.91,4.90,
0.866,0.01,-0.23,1.59,-0.01,-1.00,5.61,
0.867,0.01,-0.23,1.61,-0.01,-1.00,5.61,
0.87,0.01,-0.23,1.63,-0.01,-1.00,5.61,
0.87,0.01,-0.23,1.63,-0.08,-1.04,6.26,
0.872,0.01,-0.23,1.64,-0.08,-1.04,6.26,
0.875,0.00,-0.23,1.65,-0.08,-1.04,6.26,
0.875,0.00,-0.23,1.65,-0.01,-1.01,6.71,
0.877,-0.01,-0.23,1.64,-0.01,-1.01,6.71,
0.885,-0.03,-0.23,1.64,-0.01,-1.01,6.71,
0.886,-0.03,-0.23,1.64,-0.03,-0.92,6.90,
0.886,-0.03,-0.23,1.64,-0.03,-0.92,6.90,
0.888,-0.03,-0.23,1.63,-0.03,-0.92,6.90,
0.888,-0.03,-0.23,1.63,-0.24,-0.87,6.87,
0.889,-0.03,-0.23,1.63,-0.24,-0.87,6.87,
0.89,-0.02,-0.23,1.62,-0.24,-0.87,6.87,
0.89,-0.02,-0.23,1.62,-0.34,-0.83,6.77,
0.892,-0.01,-0.22,1.62,-0.34,-0.83,6.77,
0.895,-0.00,-0.22,1.62,-0.34,-0.83,6.77,
0.895,-0.00,-0.22,1.62,-0.28,-0.74,6.67,
0.898,0.01,-0.22,1.61,-0.28,-0.74,6.67,
0.9,0.01,-0.21,1.60,-0.28,-0.74,6.67,
0.9,0.01,-0.21,1.60,-0.09,-0.64,6.60,
0.902,0.02,-0.21,1.59,-0.09,-0.64,6.60,
0.905,0.02,-0.21,1.59,0.05,-0.57,6.45,
0.905,0.02,-0.21,1.58,0.05,-0.57,6.45,
0.907,0.02,-0.20,1.57,0.05,-0.57,6.45,
0.91,0.02,-0.20,1.57,0.05,-0.57,6.45,
0.91,0.02,-0.20,1.57,0.14,-0.42,6.22,
0.912,0.03,-0.19,1.56,0.14,-0.42,6.22,
0.915,0.04,-0.19,1.56,0.14,-0.42,6.22,
0.916,0.04,-0.19,1.56,0.13,-0.28,6.08,
0.917,0.04,-0.19,1.56,0.13,-0.28,6.08,
0.92,0.05,-0.17,1.55,0.13,-0.28,6.08,
0.92,0.05,-0.17,1.55,0.23,-0.18,6.01,
0.922,0.05,-0.17,1.55,0.23,-0.18,6.01,
0.924,0.05,-0.16,1.53,0.23,-0.18,6.01,
0.925,0.05,-0.16,1.53,0.30,-0.05,5.91,
0.927,0.06,-0.15,1.52,0.30,-0.05,5.91,
0.929,0.06,-0.15,1.52,0.38,0.15,5.76,
0.93,0.05,-0.14,1.52,0.38,0.15,5.76,
0.932,0.05,-0.14,1.50,0.38,0.15,5.76,
0.934,0.04,-0.12,1.48,0.38,0.15,5.76,
0.934,0.04,-0.12,1.48,0.36,0.34,5.53,
0.937,0.03,-0.11,1.46,0.36,0.34,5.53,
0.939,0.03,-0.11,1.46,0.24,0.51,5.23,
0.94,0.02,-0.10,1.45,0.24,0.51,5.23,
0.942,0.01,-0.09,1.42,0.24,0.51,5.23,
0.944,0.00,-0.07,1.41,0.24,0.51,5.23,
0.944,0.00,-0.07,1.41,0.00,0.73,4.87,
0.947,-0.01,-0.06,1.39,0.00,0.73,4.87,
0.95,-0.01,-0.05,1.37,0.00,0.73,4.87,
0.95,-0.01,-0.05,1.37,-0.17,1.01,4.47,
0.951,-0.02,-0.05,1.36,-0.17,1.01,4.47,
0.954,-0.02,-0.05,1.36,-0.30,1.20,4.13,
0.954,-0.03,-0.05,1.34,-0.30,1.20,4.13,
0.957,-0.04,-0.04,1.32,-0.30,1.20,4.13,
0.959,-0.05,-0.04,1.31,-0.30,1.20,4.13,
0.959,-0.05,-0.04,1.31,-0.49,1.29,3.78,
0.961,-0.06,-0.03,1.29,-0.49,1.29,3.78,
0.969,-0.07,-0.03,1.28,-0.49,1.29,3.78,
0.97,-0.07,-0.03,1.28,-0.69,1.34,3.44,
0.97,-0.06,-0.03,1.27,-0.69,1.34,3.44,
0.97,-0.06,-0.02,1.26,-0.69,1.34,3.44,
0.971,-0.06,-0.02,1.26,-0.86,1.42,3.15,
0.972,-0.06,-0.02,1.25,-0.86,1.42,3.15,
0.974,-0.06,-0.02,1.25,-0.86,1.42,3.15,
0.974,-0.06,-0.02,1.25,-0.89,1.49,2.93,
0.976,-0.05,-0.01,1.25,-0.89,1.49,2.93,
0.979,-0.05,-0.01,1.25,-0.85,1.56,2.79,
0.979,-0.04,-0.01,1.26,-0.85,1.56,2.79,
0.982,-0.04,-0.01,1.26,-0.85,1.56,2.79,
0.984,-0.03,0.00,1.27,-0.85,1.56,2.79,
0.984,-0.03,0.00,1.27,-0.77,1.63,2.82,
0.986,-0.03,-0.00,1.28,-0.77,1.63,2.82,
0.989,-0.02,0.01,1.29,-0.77,1.63,2.82,
0.989,-0.02,0.01,1.29,-0.66,1.72,2.90,
0.991,-0.02,0.01,1.30,-0.66,1.72,2.90,
0.995,-0.02,0.01,1.32,-0.66,1.72,2.90,
0.995,-0.02,0.01,1.32,-0.55,1.77,3.09,
0.996,-0.03,0.01,1.34,-0.55,1.77,3.09,
1.0,-0.03,0.01,1.35,-0.55,1.77,3.09,
1.001,-0.03,0.01,1.35,-0.55,1.86,3.35,
1.001,-0.04,0.01,1.37,-0.55,1.86,3.35,
1.004,-0.04,0.01,1.37,-0.61,1.90,3.67,
1.005,-0.05,0.01,1.39,-0.61,1.90,3.67,
1.007,-0.06,0.01,1.40,-0.61,1.90,3.67,
1.009,-0.08,0.01,1.42,-0.61,1.90,3.67,
1.01,-0.08,0.01,1.42,-0.79,1.86,3.98,
1.013,-0.09,0.00,1.43,-0.79,1.86,3.98,
1.014,-0.10,0.00,1.44,-0.79,1.86,3.98,
1.014,-0.10,0.00,1.44,-1.00,1.83,4.29,
1.016,-0.11,-0.00,1.45,-1.00,1.83,4.29,
1.018,-0.11,-0.01,1.46,-1.00,1.83,4.29,
1.019,-0.11,-0.01,1.46,-1.22,1.81,4.51,
1.021,-0.12,-0.01,1.47,-1.22,1.81,4.51,
1.024,-0.12,-0.01,1.47,-1.22,1.81,4.51,
1.024,-0.12,-0.01,1.47,-1.39,1.75,4.70,
1.026,-0.12,-0.01,1.48,-1.39,1.75,4.70,
1.029,-0.12,-0.01,1.48,-1.46,1.70,4.86,
1.029,-0.12,-0.02,1.49,-1.46,1.70,4.86,
1.032,-0.12,-0.02,1.49,-1.46,1.70,4.86,
1.035,-0.12,-0.03,1.49,-1.46,1.70,4.86,
1.035,-0.12,-0.03,1.49,-1.50,1.65,4.97,
1.036,-0.11,-0.03,1.49,-1.50,1.65,4.97,
1.039,-0.11,-0.03,1.49,-1.50,1.65,4.97,
1.039,-0.11,-0.03,1.49,-1.49,1.56,5.01,
1.041,-0.09,-0.04,1.49,-1.49,1.56,5.01,
1.044,-0.09,-0.05,1.48,-1.49,1.56,5.01,
1.044,-0.09,-0.05,1.48,-1.39,1.45,5.02,
1.046,-0.08,-0.05,1.48,-1.39,1.45,5.02,
1.05,-0.06,-0.05,1.47,-1.39,1.45,5.02,
1.051,-0.06,-0.05,1.47,-1.20,1.32,4.96,
1.051,-0.05,-0.06,1.46,-1.20,1.32,4.96,
1.053,-0.05,-0.06,1.46,-1.01,1.23,4.79,
1.053,-0.04,-0.05,1.44,-1.01,1.23,4.79,
1.056,-0.03,-0.05,1.42,-1.01,1.23,4.79,
1.059,-0.01,-0.05,1.41,-1.01,1.23,4.79,
1.059,-0.01,-0.05,1.41,-0.75,1.20,4.56,
1.062,-0.00,-0.04,1.39,-0.75,1.20,4.56,
1.063,0.01,-0.05,1.37,-0.75,1.20,4.56,
1.063,0.01,-0.05,1.37,-0.57,1.25,4.18,
1.067,0.02,-0.05,1.35,-0.57,1.25,4.18,
1.068,0.02,-0.05,1.33,-0.57,1.25,4.18,
1.068,0.02,-0.05,1.33,-0.36,1.24,3.83,
1.071,0.03,-0.05,1.31,-0.36,1.24,3.83,
1.074,0.05,-0.05,1.29,-0.36,1.24,3.83,
1.074,0.05,-0.05,1.29,-0.21,1.15,3.41,
1.076,0.07,-0.05,1.27,-0.21,1.15,3.41,
1.079,0.07,-0.05,1.27,-0.00,1.12,3.01,
1.079,0.08,-0.06,1.25,-0.00,1.12,3.01,
1.081,0.09,-0.06,1.24,-0.00,1.12,3.01,
1.087,0.10,-0.06,1.23,-0.00,1.12,3.01,
1.088,0.10,-0.06,1.23,0.27,1.07,2.64,
1.088,0.11,-0.05,1.22,0.27,1.07,2.64,
1.088,0.11,-0.06,1.22,0.27,1.07,2.64,
1.088,0.11,-0.06,1.22,0.51,1.00,2.34,
1.09,0.11,-0.06,1.22,0.51,1.00,2.34,
1.093,0.10,-0.06,1.22,0.51,1.00,2.34,
1.093,0.10,-0.06,1.22,0.62,1.01,2.21,
1.095,0.10,-0.07,1.22,0.62,1.01,2.21,
1.099,0.09,-0.07,1.22,0.62,1.01,2.21,
1.099,0.09,-0.07,1.22,0.58,0.95,2.20,
1.102,0.08,-0.07,1.23,0.58,0.95,2.20,
1.103,0.08,-0.07,1.23,0.44,0.87,2.22,
1.103,0.08,-0.08,1.23,0.44,0.87,2.22,
1.105,0.08,-0.09,1.24,0.44,0.87,2.22,
1.108,0.07,-0.09,1.26,0.44,0.87,2.22,
1.109,0.07,-0.09,1.26,0.29,0.77,2.32,
1.111,0.07,-0.10,1.29,0.29,0.77,2.32,
1.113,0.07,-0.11,1.30,0.29,0.77,2.32,
1.114,0.07,-0.11,1.30,0.20,0.65,2.51,
1.115,0.08,-0.11,1.31,0.20,0.65,2.51,
1.118,0.07,-0.12,1.34,0.20,0.65,2.51,
1.118,0.07,-0.12,1.34,0.18,0.52,2.91,
1.12,0.07,-0.12,1.35,0.18,0.52,2.91,
1.123,0.07,-0.12,1.35,0.17,0.39,3.21,
1.123,0.07,-0.13,1.36,0.17,0.39,3.21,
1.126,0.07,-0.14,1.37,0.17,0.39,3.21,
1.128,0.07,-0.14,1.38,0.17,0.39,3.21,
1.128,0.07,-0.14,1.38,0.14,0.31,3.48,
1.13,0.07,-0.15,1.39,0.14,0.31,3.48,
1.134,0.07,-0.15,1.38,0.14,0.31,3.48,
1.134,0.07,-0.15,1.38,0.12,0.18,3.68,
1.135,0.07,-0.16,1.39,0.12,0.18,3.68,
1.138,0.06,-0.16,1.38,0.12,0.18,3.68,
1.138,0.06,-0.16,1.38,0.03,0.07,3.76,
1.141,0.06,-0.17,1.38,0.03,0.07,3.76,
1.143,0.05,-0.17,1.38,0.03,0.07,3.76,
1.143,0.05,-0.17,1.38,-0.02,-0.05,3.76,
1.145,0.04,-0.17,1.37,-0.02,-0.05,3.76,
1.147,0.04,-0.17,1.37,-0.16,-0.12,3.69,
1.148,0.04,-0.17,1.36,-0.16,-0.12,3.69,
1.15,0.03,-0.17,1.36,-0.16,-0.12,3.69,
1.152,0.03,-0.17,1.36,-0.34,-0.16,3.56,
1.155,0.02,-0.16,1.34,-0.34,-0.16,3.56,
1.155,0.02,-0.16,1.34,-0.34,-0.16,3.56,
1.157,0.02,-0.15,1.33,-0.34,-0.16,3.56,
1.157,0.02,-0.15,1.33,-0.50,-0.13,3.37,
1.159,0.01,-0.14,1.31,-0.50,-0.13,3.37,
1.162,0.01,-0.15,1.29,-0.50,-0.13,3.37,
1.162,0.01,-0.15,1.29,-0.56,-0.04,3.18,
1.166,0.01,-0.14,1.28,-0.56,-0.04,3.18,
1.167,0.02,-0.14,1.27,-0.56,-0.04,3.18,
1.167,0.02,-0.14,1.27,-0.64,0.03,2.88,
1.169,0.02,-0.14,1.26,-0.64,0.03,2.88,
1.172,0.02,-0.14,1.24,-0.64,0.03,2.88,
1.172,0.02,-0.14,1.24,-0.62,0.05,2.63,
1.174,0.02,-0.14,1.23,-0.62,0.05,2.63,
1.177,0.02,-0.14,1.23,-0.59,0.02,2.34,
1.177,0.03,-0.14,1.22,-0.59,0.02,2.34,
1.179,0.03,-0.14,1.23,-0.59,0.02,2.34,
1.187,0.03,-0.12,1.22,-0.59,0.02,2.34,
1.187,0.03,-0.12,1.22,-0.50,0.01,2.14,
1.188,0.03,-0.13,1.23,-0.50,0.01,2.14,
1.188,0.01,-0.13,1.23,-0.50,0.01,2.14,
1.188,0.01,-0.13,1.23,-0.44,0.07,2.11,
1.189,-0.01,-0.13,1.24,-0.44,0.07,2.11,
1.192,-0.02,-0.12,1.24,-0.44,0.07,2.11,
1.192,-0.02,-0.12,1.24,-0.54,0.08,2.16,
1.194,-0.03,-0.12,1.25,-0.54,0.08,2.16,
1.197,-0.03,-0.12,1.25,-0.83,0.10,2.24,
1.197,-0.04,-0.12,1.26,-0.83,0.10,2.24,
1.199,-0.05,-0.12,1.26,-0.83,0.10,2.24,
1.202,-0.05,-0.12,1.26,-1.03,0.11,2.37,
1.202,-0.06,-0.12,1.26,-1.03,0.11,2.37,
1.204,-0.06,-0.13,1.27,-1.03,0.11,2.37,
1.207,-0.08,-0.14,1.27,-1.03,0.11,2.37,
1.207,-0.08,-0.14,1.27,-1.24,0.06,2.40,
1.209,-0.08,-0.15,1.29,-1.24,0.06,2.40,
1.211,-0.08,-0.15,1.30,-1.24,0.06,2.40,
1.212,-0.08,-0.15,1.30,-1.35,-0.06,2.49,
1.214,-0.08,-0.16,1.31,-1.35,-0.06,2.49,
1.216,-0.09,-0.16,1.31,-1.35,-0.06,2.49,
1.217,-0.09,-0.16,1.31,-1.42,-0.24,2.70,
1.219,-0.09,-0.18,1.32,-1.42,-0.24,2.70,
1.222,-0.10,-0.18,1.32,-1.42,-0.24,2.70,
1.222,-0.10,-0.18,1.32,-1.51,-0.36,2.86,
1.224,-0.10,-0.18,1.31,-1.51,-0.36,2.86,
1.226,-0.10,-0.18,1.31,-1.64,-0.55,2.91,
1.227,-0.11,-0.19,1.31,-1.64,-0.55,2.91,
1.228,-0.11,-0.19,1.30,-1.64,-0.55,2.91,
1.233,-0.11,-0.19,1.30,-1.64,-0.55,2.91,
1.234,-0.11,-0.19,1.30,-1.71,-0.63,2.83,
1.234,-0.11,-0.19,1.29,-1.71,-0.63,2.83,
1.238,-0.11,-0.19,1.29,-1.78,-0.70,2.73,
1.238,-0.11,-0.18,1.29,-1.78,-0.70,2.73,
1.239,-0.10,-0.18,1.28,-1.78,-0.70,2.73,
1.241,-0.10,-0.17,1.27,-1.78,-0.70,2.73,
1.241,-0.10,-0.17,1.27,-1.81,-0.71,2.61,
1.243,-0.09,-0.17,1.27,-1.81,-0.71,2.61,
1.246,-0.09,-0.17,1.26,-1.81,-0.71,2.61,
1.246,-0.09,-0.17,1.26,-1.75,-0.64,2.49,
1.25,-0.08,-0.16,1.25,-1.75,-0.64,2.49,
1.251,-0.08,-0.16,1.25,-1.66,-0.61,2.36,
1.251,-0.07,-0.16,1.23,-1.66,-0.61,2.36,
1.253,-0.06,-0.15,1.21,-1.66,-0.61,2.36,
1.256,-0.05,-0.15,1.18,-1.66,-0.61,2.36,
1.256,-0.05,-0.15,1.18,-1.52,-0.55,2.11,
1.258,-0.04,-0.15,1.17,-1.52,-0.55,2.11,
1.261,-0.04,-0.14,1.15,-1.52,-0.55,2.11,
1.261,-0.04,-0.14,1.15,-1.36,-0.54,1.69,
1.264,-0.03,-0.14,1.13,-1.36,-0.54,1.69,
1.267,-0.01,-0.14,1.12,-1.36,-0.54,1.69,
1.267,-0.01,-0.14,1.12,-1.22,-0.51,1.28,
1.268,-0.01,-0.14,1.10,-1.22,-0.51,1.28,
1.271,-0.00,-0.13,1.08,-1.22,-0.51,1.28,
1.271,-0.00,-0.13,1.08,-1.00,-0.50,0.94,
1.273,0.01,-0.13,1.06,-1.00,-0.50,0.94,
1.276,0.01,-0.13,1.06,-0.83,-0.52,0.64,
1.276,0.02,-0.12,1.04,-0.83,-0.52,0.64,
1.278,0.02,-0.12,1.02,-0.83,-0.52,0.64,
1.281,0.02,-0.12,1.00,-0.83,-0.52,0.64,
1.281,0.02,-0.12,1.00,-0.67,-0.51,0.25,
1.288,0.02,-0.12,0.99,-0.67,-0.51,0.25,
1.288,0.01,-0.11,0.98,-0.67,-0.51,0.25,
1.289,0.01,-0.11,0.98,-0.58,-0.53,-0.18,
1.289,0.01,-0.11,0.97,-0.58,-0.53,-0.18,
1.291,0.01,-0.11,0.97,-0.60,-0.54,-0.41,
1.291,0.00,-0.12,0.96,-0.60,-0.54,-0.41,
1.293,-0.01,-0.12,0.95,-0.60,-0.54,-0.41,
1.296,-0.02,-0.12,0.93,-0.60,-0.54,-0.41,
1.296,-0.02,-0.12,0.93,-0.71,-0.61,-0.64,
1.298,-0.02,-0.11,0.92,-0.71,-0.61,-0.64,
1.302,-0.02,-0.11,0.92,-0.86,-0.71,-0.87,
1.302,-0.03,-0.11,0.91,-0.86,-0.71,-0.87,
1.303,-0.03,-0.11,0.90,-0.86,-0.71,-0.87,
1.306,-0.03,-0.10,0.89,-0.86,-0.71,-0.87,
1.306,-0.03,-0.10,0.89,-0.96,-0.71,-1.12,
1.308,-0.04,-0.09,0.88,-0.96,-0.71,-1.12,
1.31,-0.04,-0.09,0.88,-1.04,-0.69,-1.33,
1.311,-0.03,-0.09,0.87,-1.04,-0.69,-1.33,
1.313,-0.03,-0.09,0.87,-1.04,-0.69,-1.33,
1.317,-0.03,-0.08,0.86,-1.04,-0.69,-1.33,
1.317,-0.03,-0.08,0.86,-1.03,-0.61,-1.49,
1.319,-0.03,-0.08,0.86,-1.03,-0.61,-1.49,
1.32,-0.02,-0.09,0.85,-1.03,-0.61,-1.49,
1.321,-0.02,-0.09,0.85,-1.01,-0.56,-1.62,
1.323,-0.02,-0.08,0.84,-1.01,-0.56,-1.62,
1.326,-0.02,-0.08,0.84,-0.97,-0.60,-1.73,
1.326,-0.02,-0.07,0.83,-0.97,-0.60,-1.73,
1.328,-0.02,-0.07,0.83,-0.97,-0.60,-1.73,
1.33,-0.02,-0.07,0.83,-0.97,-0.60,-1.73,
1.331,-0.02,-0.07,0.83,-0.92,-0.53,-1.86,
1.333,-0.02,-0.08,0.82,-0.92,-0.53,-1.86,
1.336,-0.02,-0.09,0.82,-0.92,-0.53,-1.86,
1.336,-0.02,-0.09,0.82,-0.88,-0.54,-1.96,
1.338,-0.03,-0.09,0.82,-0.88,-0.54,-1.96,
1.34,-0.03,-0.09,0.83,-0.88,-0.54,-1.96,
1.34,-0.03,-0.09,0.83,-0.90,-0.64,-2.02,
1.343,-0.04,-0.10,0.83,-0.90,-0.64,-2.02,
1.345,-0.04,-0.10,0.83,-0.90,-0.64,-2.02,
1.345,-0.04,-0.10,0.83,-1.01,-0.73,-1.97,
1.347,-0.04,-0.10,0.84,-1.01,-0.73,-1.97,
1.351,-0.04,-0.10,0.84,-1.10,-0.85,-1.93,
1.351,-0.03,-0.10,0.86,-1.10,-0.85,-1.93,
1.352,-0.02,-0.10,0.89,-1.10,-0.85,-1.93,
1.355,-0.01,-0.09,0.91,-1.10,-0.85,-1.93,
1.356,-0.01,-0.09,0.91,-1.00,-0.87,-1.70,
1.357,-0.01,-0.10,0.92,-1.00,-0.87,-1.70,
1.36,-0.00,-0.10,0.92,-1.00,-0.87,-1.70,
1.36,-0.00,-0.10,0.92,-0.83,-0.83,-1.26,
1.362,-0.00,-0.10,0.94,-0.83,-0.83,-1.26,
1.365,0.00,-0.11,0.96,-0.83,-0.83,-1.26,
1.365,0.00,-0.11,0.96,-0.71,-0.83,-1.04,
1.371,0.01,-0.11,0.97,-0.71,-0.83,-1.04,
1.371,0.01,-0.12,0.99,-0.71,-0.83,-1.04,
1.371,0.01,-0.12,0.99,-0.64,-0.90,-0.74,
1.372,0.01,-0.12,1.00,-0.64,-0.90,-0.74,
1.375,0.01,-0.12,1.00,-0.53,-1.02,-0.42,
1.375,0.01,-0.13,1.01,-0.53,-1.02,-0.42,
1.377,0.01,-0.13,1.01,-0.53,-1.02,-0.42,
1.38,0.00,-0.13,1.01,-0.53,-1.02,-0.42,
1.38,0.00,-0.13,1.01,-0.48,-1.10,-0.19,
1.384,-0.00,-0.12,1.01,-0.48,-1.10,-0.19,
1.385,-0.01,-0.12,1.02,-0.48,-1.10,-0.19,
1.385,-0.01,-0.12,1.02,-0.56,-1.13,-0.13,
1.387,-0.01,-0.11,1.02,-0.56,-1.13,-0.13,
1.39,-0.02,-0.11,1.01,-0.56,-1.13,-0.13,
1.39,-0.02,-0.11,1.01,-0.62,-1.11,-0.11,
1.392,-0.23,-0.12,1.06,-0.62,-1.11,-0.11,
1.395,-0.69,-0.14,1.23,-0.62,-1.11,-0.11,
1.395,-0.69,-0.14,1.23,-0.72,-1.04,-0.12,
1.397,-0.69,-0.07,1.32,-0.72,-1.04,-0.12,
1.402,-0.69,-0.07,1.32,-5.05,-1.26,1.14,
1.403,-0.26,0.01,1.22,-5.05,-1.26,1.14,
1.403,-0.07,0.04,1.13,-5.05,-1.26,1.14,
1.405,-0.04,0.04,1.07,-5.05,-1.26,1.14,
1.405,-0.04,0.04,1.07,-5.21,-0.30,2.41,
1.407,-0.06,0.02,1.02,-5.21,-0.30,2.41,
1.409,-0.10,-0.02,1.00,-5.21,-0.30,2.41,
1.41,-0.10,-0.02,1.00,-1.11,0.32,0.69,
1.412,-0.14,-0.06,0.99,-1.11,0.32,0.69,
1.414,-0.14,-0.06,0.99,-1.28,-0.13,-0.16,
1.415,-0.19,-0.08,1.00,-1.28,-0.13,-0.16,
1.418,-0.21,-0.10,1.01,-1.28,-0.13,-0.16,
1.419,-0.22,-0.11,1.00,-1.28,-0.13,-0.16,
1.42,-0.22,-0.11,1.00,-2.10,-0.86,-0.31,
1.422,-0.22,-0.10,1.00,-2.10,-0.86,-0.31,
1.425,-0.22,-0.10,1.00,-2.56,-1.30,-0.22,
1.425,-0.22,-0.08,0.99,-2.56,-1.30,-0.22,
1.427,-0.23,-0.06,0.99,-2.56,-1.30,-0.22,
1.429,-0.21,-0.04,0.98,-2.56,-1.30,-0.22,
1.429,-0.21,-0.04,0.98,-2.63,-1.23,-0.30,
1.432,-0.20,-0.01,0.97,-2.63,-1.23,-0.30,
1.435,-0.18,0.01,0.96,-2.63,-1.23,-0.30,
1.436,-0.18,0.01,0.96,-2.56,-0.90,-0.39,
1.437,-0.15,0.02,0.94,-2.56,-0.90,-0.39,
1.439,-0.12,0.02,0.92,-2.56,-0.90,-0.39,
1.439,-0.12,0.02,0.92,-2.23,-0.51,-0.61,
1.442,-0.10,0.01,0.90,-2.23,-0.51,-0.61,
1.444,-0.08,-0.00,0.87,-2.23,-0.51,-0.61,
1.444,-0.08,-0.00,0.87,-1.71,-0.38,-0.91,
1.446,-0.07,-0.01,0.86,-1.71,-0.38,-0.91,
1.451,-0.07,-0.01,0.86,-1.24,-0.59,-1.34,
1.451,-0.07,-0.02,0.85,-1.24,-0.59,-1.34,
1.451,-0.07,-0.03,0.84,-1.24,-0.59,-1.34,
1.454,-0.06,-0.03,0.82,-1.24,-0.59,-1.34,
1.454,-0.06,-0.03,0.82,-1.05,-0.86,-1.63,
1.456,-0.07,-0.04,0.80,-1.05,-0.86,-1.63,
1.459,-0.09,-0.03,0.79,-1.05,-0.86,-1.63,
1.459,-0.09,-0.03,0.79,-1.01,-1.11,-1.89,
1.461,-0.11,-0.03,0.78,-1.01,-1.11,-1.89,
1.464,-0.12,-0.02,0.76,-1.01,-1.11,-1.89,
1.464,-0.12,-0.02,0.76,-1.16,-1.18,-2.18,
1.467,-0.12,-0.01,0.74,-1.16,-1.18,-2.18,
1.469,-0.13,-0.00,0.72,-1.16,-1.18,-2.18,
1.469,-0.13,-0.00,0.72,-1.52,-1.13,-2.46,
1.471,-0.13,0.01,0.71,-1.52,-1.13,-2.46,
1.474,-0.13,0.01,0.71,-1.59,-1.03,-2.85,
1.474,-0.13,0.01,0.70,-1.59,-1.03,-2.85,
1.476,-0.14,0.02,0.70,-1.59,-1.03,-2.85,
1.48,-0.14,0.03,0.70,-1.59,-1.03,-2.85,
1.48,-0.14,0.03,0.70,-1.69,-0.93,-3.05,
1.481,-0.14,0.03,0.70,-1.69,-0.93,-3.05,
1.487,-0.14,0.03,0.70,-1.77,-0.85,-3.06,
1.487,-0.15,0.04,0.70,-1.77,-0.85,-3.06,
1.487,-0.15,0.04,0.70,-1.77,-0.85,-3.06,
1.498,-0.15,0.04,0.70,-1.77,-0.85,-3.06,
1.498,-0.15,0.04,0.70,-1.82,-0.77,-3.12,
1.499,-0.15,0.04,0.70,-1.82,-0.77,-3.12,
1.499,-0.14,0.04,0.71,-1.82,-0.77,-3.12,
1.499,-0.14,0.04,0.71,-1.85,-0.76,-3.09,
1.5,-0.14,0.04,0.71,-1.85,-0.76,-3.09,
1.5,-0.14,0.04,0.71,-1.82,-0.75,-3.03,
1.5,-0.13,0.03,0.72,-1.82,-0.75,-3.03,
1.501,-0.12,0.03,0.73,-1.82,-0.75,-3.03,
1.504,-0.12,0.03,0.73,-1.68,-0.84,-2.89,
1.504,-0.11,0.04,0.74,-1.68,-0.84,-2.89,
1.506,-0.11,0.03,0.75,-1.68,-0.84,-2.89,
1.509,-0.10,0.03,0.75,-1.68,-0.84,-2.89,
1.509,-0.10,0.03,0.75,-1.50,-0.83,-2.73,
1.512,-0.09,0.04,0.76,-1.50,-0.83,-2.73,
1.514,-0.10,0.04,0.77,-1.50,-0.83,-2.73,
1.514,-0.10,0.04,0.77,-1.43,-0.86,-2.56,
1.517,-0.10,0.04,0.79,-1.43,-0.86,-2.56,
1.518,-0.10,0.04,0.82,-1.43,-0.86,-2.56,
1.519,-0.10,0.04,0.82,-1.34,-0.82,-2.37,
1.521,-0.11,0.05,0.83,-1.34,-0.82,-2.37,
1.524,-0.11,0.05,0.83,-1.40,-0.80,-1.99,
1.524,-0.11,0.05,0.83,-1.40,-0.80,-1.99,
1.526,-0.11,0.06,0.83,-1.40,-0.80,-1.99,
1.529,-0.11,0.07,0.82,-1.40,-0.80,-1.99,
1.529,-0.11,0.07,0.82,-1.43,-0.74,-1.73,
1.531,-0.10,0.08,0.81,-1.43,-0.74,-1.73,
1.535,-0.10,0.08,0.79,-1.43,-0.74,-1.73,
1.536,-0.10,0.08,0.79,-1.44,-0.62,-1.79,
1.536,-0.09,0.09,0.78,-1.44,-0.62,-1.79,
1.538,-0.09,0.09,0.77,-1.44,-0.62,-1.79,
1.539,-0.09,0.09,0.77,-1.35,-0.49,-1.99,
1.541,-0.08,0.09,0.75,-1.35,-0.49,-1.99,
1.544,-0.08,0.09,0.75,-1.35,-0.49,-1.99,
1.544,-0.08,0.09,0.75,-1.23,-0.41,-2.27,
1.546,-0.08,0.09,0.75,-1.23,-0.41,-2.27,
1.549,-0.08,0.09,0.75,-1.16,-0.42,-2.48,
1.549,-0.08,0.09,0.74,-1.16,-0.42,-2.48,
1.551,-0.08,0.08,0.74,-1.16,-0.42,-2.48,
1.553,-0.08,0.08,0.73,-1.16,-0.42,-2.48,
1.554,-0.08,0.08,0.73,-1.11,-0.49,-2.54,
1.556,-0.07,0.08,0.74,-1.11,-0.49,-2.54,
1.559,-0.07,0.08,0.74,-1.11,-0.49,-2.54,
1.559,-0.07,0.08,0.74,-1.06,-0.59,-2.62,
1.561,-0.06,0.08,0.74,-1.06,-0.59,-2.62,
1.564,-0.06,0.08,0.75,-1.06,-0.59,-2.62,
1.565,-0.06,0.08,0.75,-0.96,-0.64,-2.60,
1.566,-0.05,0.08,0.75,-0.96,-0.64,-2.60,
1.568,-0.04,0.08,0.76,-0.96,-0.64,-2.60,
1.569,-0.04,0.08,0.76,-0.86,-0.65,-2.53,
1.57,-0.04,0.08,0.77,-0.86,-0.65,-2.53,
1.574,-0.04,0.08,0.77,-0.70,-0.67,-2.38,
1.574,-0.04,0.08,0.78,-0.70,-0.67,-2.38,
1.576,-0.03,0.07,0.79,-0.70,-0.67,-2.38,
1.579,-0.02,0.07,0.80,-0.70,-0.67,-2.38,
1.579,-0.02,0.07,0.80,-0.64,-0.70,-2.17,
1.581,-0.02,0.07,0.81,-0.64,-0.70,-2.17,
1.583,-0.01,0.07,0.80,-0.64,-0.70,-2.17,
1.583,-0.01,0.07,0.80,-0.50,-0.74,-1.99,
1.589,-0.01,0.08,0.81,-0.50,-0.74,-1.99,
1.59,-0.01,0.08,0.81,-0.39,-0.75,-1.88,
1.59,-0.02,0.08,0.81,-0.39,-0.75,-1.88,
1.59,-0.01,0.08,0.82,-0.39,-0.75,-1.88,
1.593,-0.01,0.08,0.81,-0.39,-0.75,-1.88,
1.593,-0.01,0.08,0.81,-0.40,-0.71,-1.83,
1.595,-0.02,0.09,0.82,-0.40,-0.71,-1.83,
1.599,-0.02,0.09,0.82,-0.39,-0.69,-1.78,
1.599,-0.01,0.09,0.81,-0.39,-0.69,-1.78,
1.6,-0.01,0.09,0.81,-0.39,-0.69,-1.78,
1.603,-0.01,0.09,0.81,-0.39,-0.69,-1.78,
1.603,-0.01,0.09,0.81,-0.38,-0.66,-1.78,
1.605,-0.01,0.09,0.80,-0.38,-0.66,-1.78,
1.609,-0.01,0.09,0.80,-0.38,-0.66,-1.78,
1.609,-0.01,0.09,0.80,-0.34,-0.66,-1.85,
1.611,-0.01,0.10,0.79,-0.34,-0.66,-1.85,
1.613,-0.01,0.10,0.79,-0.32,-0.64,-1.89,
1.613,-0.02,0.10,0.79,-0.32,-0.64,-1.89,
1.615,-0.02,0.11,0.79,-0.32,-0.64,-1.89,
1.618,-0.03,0.11,0.79,-0.32,-0.64,-1.89,
1.619,-0.03,0.11,0.79,-0.36,-0.56,-1.98,
1.621,-0.05,0.10,0.79,-0.36,-0.56,-1.98,
1.622,-0.09,0.09,0.78,-0.36,-0.56,-1.98,
1.623,-0.09,0.09,0.78,-0.45,-0.52,-2.00,
1.625,-0.17,0.05,0.77,-0.45,-0.52,-2.00,
1.627,-0.22,0.04,0.74,-0.45,-0.52,-2.00,
1.628,-0.22,0.04,0.74,-0.90,-0.68,-2.03,
1.63,-0.22,0.06,0.72,-0.90,-0.68,-2.03,
1.632,-0.15,0.14,0.72,-0.90,-0.68,-2.03,
1.632,-0.15,0.14,0.72,-2.12,-1.18,-2.30,
1.635,-0.08,0.19,0.73,-2.12,-1.18,-2.30,
1.638,-0.06,0.22,0.73,-2.12,-1.18,-2.30,
1.638,-0.06,0.22,0.73,-1.98,-0.66,-2.61,
1.639,-0.07,0.22,0.73,-1.98,-0.66,-2.61,
1.642,-0.09,0.19,0.72,-1.98,-0.66,-2.61,
1.642,-0.09,0.19,0.72,-0.90,0.37,-2.53,
1.645,-0.13,0.15,0.71,-0.90,0.37,-2.53,
1.647,-0.13,0.15,0.71,-0.96,0.30,-2.61,
1.649,-0.16,0.11,0.71,-0.96,0.30,-2.61,
1.649,-0.19,0.09,0.71,-0.96,0.30,-2.61,
1.652,-0.18,0.08,0.72,-0.96,0.30,-2.61,
1.652,-0.18,0.08,0.72,-1.62,-0.43,-2.71,
1.654,-0.16,0.10,0.72,-1.62,-0.43,-2.71,
1.657,-0.16,0.10,0.72,-1.98,-0.85,-2.66,
1.657,-0.13,0.12,0.73,-1.98,-0.85,-2.66,
1.659,-0.10,0.14,0.73,-1.98,-0.85,-2.66,
1.662,-0.08,0.15,0.75,-1.98,-0.85,-2.66,
1.662,-0.08,0.15,0.75,-1.56,-0.63,-2.55,
1.664,-0.07,0.15,0.76,-1.56,-0.63,-2.55,
1.672,-0.05,0.15,0.78,-1.56,-0.63,-2.55,
1.673,-0.05,0.15,0.78,-1.05,-0.31,-2.39,
1.673,-0.05,0.14,0.80,-1.05,-0.31,-2.39,
1.673,-0.05,0.14,0.80,-0.73,-0.26,-2.08,
1.673,-0.04,0.13,0.83,-0.73,-0.26,-2.08,
1.676,-0.03,0.13,0.84,-0.73,-0.26,-2.08,
1.677,-0.02,0.12,0.85,-0.73,-0.26,-2.08,
1.677,-0.02,0.12,0.85,-0.56,-0.39,-1.66,
1.679,-0.01,0.11,0.86,-0.56,-0.39,-1.66,
1.682,-0.02,0.11,0.86,-0.56,-0.39,-1.66,
1.682,-0.02,0.11,0.86,-0.38,-0.51,-1.37,
1.686,-0.02,0.10,0.85,-0.38,-0.51,-1.37,
1.688,-0.01,0.11,0.84,-0.38,-0.51,-1.37,
1.688,-0.01,0.11,0.84,-0.30,-0.63,-1.25,
1.689,-0.01,0.11,0.84,-0.30,-0.63,-1.25,
1.692,-0.01,0.12,0.83,-0.30,-0.63,-1.25,
1.692,-0.01,0.12,0.83,-0.28,-0.66,-1.39,
1.694,-0.00,0.12,0.83,-0.28,-0.66,-1.39,
1.697,-0.00,0.12,0.83,-0.23,-0.57,-1.47,
1.697,-0.00,0.13,0.83,-0.23,-0.57,-1.47,
1.699,-0.00,0.14,0.83,-0.23,-0.57,-1.47,
1.702,-0.01,0.14,0.82,-0.23,-0.57,-1.47,
1.702,-0.01,0.14,0.82,-0.19,-0.44,-1.54,
1.704,-0.02,0.14,0.81,-0.19,-0.44,-1.54,
1.707,-0.03,0.14,0.81,-0.19,-0.44,-1.54,
1.707,-0.03,0.14,0.81,-0.21,-0.35,-1.59,
1.709,-0.04,0.14,0.80,-0.21,-0.35,-1.59,
1.712,-0.04,0.14,0.80,-0.39,-0.33,-1.69,
1.712,-0.05,0.14,0.80,-0.39,-0.33,-1.69,
1.714,-0.07,0.14,0.79,-0.39,-0.33,-1.69,
1.716,-0.07,0.14,0.78,-0.39,-0.33,-1.69,
1.718,-0.07,0.14,0.78,-0.60,-0.31,-1.81,
1.72,-0.08,0.15,0.78,-0.60,-0.31,-1.81,
1.721,-0.08,0.16,0.77,-0.60,-0.31,-1.81,
1.722,-0.08,0.16,0.77,-0.86,-0.30,-1.95,
1.724,-0.08,0.16,0.78,-0.86,-0.30,-1.95,
1.726,-0.08,0.16,0.77,-0.86,-0.30,-1.95,
1.727,-0.08,0.16,0.77,-0.95,-0.22,-2.00,
1.729,-0.08,0.17,0.77,-0.95,-0.22,-2.00,
1.731,-0.08,0.17,0.76,-0.95,-0.22,-2.00,
1.731,-0.08,0.17,0.76,-0.95,-0.14,-2.04,
1.734,-0.07,0.18,0.76,-0.95,-0.14,-2.04,
1.737,-0.07,0.17,0.76,-0.95,-0.14,-2.04,
1.737,-0.07,0.17,0.76,-0.94,-0.05,-2.09,
1.738,-0.07,0.17,0.77,-0.94,-0.05,-2.09,
1.741,-0.06,0.17,0.77,-0.94,-0.05,-2.09,
1.742,-0.06,0.17,0.77,-0.86,-0.00,-2.16,
1.744,-0.05,0.17,0.78,-0.86,-0.00,-2.16,
1.746,-0.04,0.17,0.78,-0.86,-0.00,-2.16,
1.746,-0.04,0.17,0.78,-0.81,-0.05,-2.05,
1.748,-0.04,0.16,0.78,-0.81,-0.05,-2.05,
1.753,-0.04,0.15,0.78,-0.81,-0.05,-2.05,
1.754,-0.04,0.15,0.78,-0.60,-0.07,-1.92,
1.754,-0.04,0.15,0.80,-0.60,-0.07,-1.92,
1.756,-0.04,0.15,0.80,-0.60,-0.07,-1.92,
1.757,-0.04,0.15,0.80,-0.57,-0.20,-1.94,
1.758,-0.03,0.15,0.81,-0.57,-0.20,-1.94,
1.761,-0.03,0.15,0.81,-0.57,-0.20,-1.94,
1.761,-0.03,0.15,0.81,-0.56,-0.25,-1.77,
1.763,-0.05,0.15,0.82,-0.56,-0.25,-1.77,
1.767,-0.05,0.15,0.82,-0.56,-0.25,-1.77,
1.77,-0.05,0.15,0.82,-0.53,-0.27,-1.64,
1.771,-0.06,0.14,0.81,-0.53,-0.27,-1.64,
1.772,-0.06,0.14,0.81,-0.68,-0.27,-1.58,
1.772,-0.05,0.15,0.82,-0.68,-0.27,-1.58,
1.773,-0.05,0.15,0.83,-0.68,-0.27,-1.58,
1.776,-0.03,0.14,0.85,-0.68,-0.27,-1.58,
1.776,-0.03,0.14,0.85,-0.73,-0.31,-1.57,
1.778,-0.03,0.14,0.85,-0.73,-0.31,-1.57,
1.781,-0.04,0.14,0.85,-0.73,-0.31,-1.57,
1.781,-0.04,0.14,0.85,-0.59,-0.31,-1.34,
1.783,-0.03,0.14,0.85,-0.59,-0.31,-1.34,
1.789,-0.03,0.14,0.86,-0.59,-0.31,-1.34,
1.789,-0.03,0.14,0.86,-0.55,-0.32,-1.26,
1.79,-0.02,0.15,0.87,-0.55,-0.32,-1.26,
1.791,-0.01,0.15,0.87,-0.55,-0.32,-1.26,
1.791,-0.01,0.15,0.87,-0.56,-0.32,-1.19,
1.793,-0.02,0.15,0.86,-0.56,-0.32,-1.19,
1.795,-0.02,0.15,0.86,-0.56,-0.32,-1.19,
1.796,-0.02,0.15,0.86,-0.37,-0.24,-1.04,
1.798,-0.02,0.15,0.85,-0.37,-0.24,-1.04,
1.801,-0.03,0.16,0.85,-0.37,-0.24,-1.04,
1.801,-0.03,0.16,0.85,-0.46,-0.23,-1.14,
1.804,-0.04,0.16,0.85,-0.46,-0.23,-1.14,
1.805,-0.05,0.18,0.85,-0.46,-0.23,-1.14,
1.806,-0.05,0.18,0.85,-0.52,-0.20,-1.22,
1.808,-0.06,0.18,0.84,-0.52,-0.20,-1.22,
1.81,-0.06,0.19,0.85,-0.52,-0.20,-1.22,
1.811,-0.06,0.19,0.85,-0.68,-0.06,-1.24,
1.813,-0.07,0.20,0.84,-0.68,-0.06,-1.24,
1.816,-0.08,0.20,0.83,-0.68,-0.06,-1.24,
1.817,-0.08,0.20,0.83,-0.85,0.07,-1.27,
1.82,-0.08,0.21,0.84,-0.85,0.07,-1.27,
1.821,-0.08,0.21,0.84,-0.98,0.23,-1.34,
1.821,-0.09,0.21,0.84,-0.98,0.23,-1.34,
1.823,-0.09,0.21,0.84,-0.98,0.23,-1.34,
1.826,-0.10,0.22,0.83,-0.98,0.23,-1.34,
1.827,-0.10,0.22,0.83,-1.11,0.34,-1.30,
1.827,-0.10,0.22,0.82,-1.11,0.34,-1.30,
1.83,-0.09,0.23,0.83,-1.11,0.34,-1.30,
1.831,-0.09,0.23,0.83,-1.22,0.39,-1.35,
1.833,-0.08,0.24,0.83,-1.22,0.39,-1.35,
1.836,-0.07,0.25,0.83,-1.22,0.39,-1.35,
1.836,-0.07,0.25,0.83,-1.27,0.48,-1.44,
1.837,-0.05,0.25,0.84,-1.27,0.48,-1.44,
1.84,-0.04,0.25,0.84,-1.27,0.48,-1.44,
1.841,-0.04,0.25,0.84,-1.02,0.66,-1.38,
1.842,-0.03,0.25,0.84,-1.02,0.66,-1.38,
1.845,-0.03,0.25,0.84,-0.76,0.72,-1.32,
1.845,-0.03,0.25,0.85,-0.76,0.72,-1.32,
1.847,-0.02,0.24,0.86,-0.76,0.72,-1.32,
1.85,-0.02,0.24,0.86,-0.76,0.72,-1.32,
1.85,-0.02,0.24,0.86,-0.62,0.68,-1.23,
1.852,-0.02,0.23,0.88,-0.62,0.68,-1.23,
1.855,-0.01,0.23,0.88,-0.62,0.68,-1.23,
1.855,-0.01,0.23,0.88,-0.53,0.60,-1.10,
1.857,-0.01,0.23,0.89,-0.53,0.60,-1.10,
1.86,-0.02,0.24,0.90,-0.53,0.60,-1.10,
1.86,-0.02,0.24,0.90,-0.48,0.51,-0.90,
1.863,-0.01,0.23,0.89,-0.48,0.51,-0.90,
1.865,-0.01,0.24,0.89,-0.48,0.51,-0.90,
1.865,-0.01,0.24,0.89,-0.46,0.52,-0.77,
1.867,-0.00,0.23,0.90,-0.46,0.52,-0.77,
1.87,-0.01,0.23,0.89,-0.46,0.52,-0.77,
1.871,-0.01,0.23,0.89,-0.44,0.54,-0.77,
1.873,-0.01,0.23,0.89,-0.44,0.54,-0.77,
1.875,-0.01,0.23,0.89,-0.37,0.52,-0.75,
1.875,-0.00,0.22,0.90,-0.37,0.52,-0.75,
1.877,-0.00,0.22,0.90,-0.37,0.52,-0.75,
1.88,-0.00,0.21,0.90,-0.37,0.52,-0.75,
1.88,-0.00,0.21,0.90,-0.38,0.42,-0.72,
1.882,-0.01,0.21,0.90,-0.38,0.42,-0.72,
1.89,-0.00,0.21,0.90,-0.38,0.42,-0.72,
1.89,-0.00,0.21,0.90,-0.35,0.33,-0.67,
1.89,-0.00,0.21,0.91,-0.35,0.33,-0.67,
1.891,-0.01,0.21,0.91,-0.35,0.33,-0.67,
1.891,-0.01,0.21,0.91,-0.36,0.30,-0.68,
1.892,-0.01,0.21,0.91,-0.36,0.30,-0.68,
1.895,-0.01,0.21,0.91,-0.36,0.28,-0.61,
1.895,-0.01,0.22,0.92,-0.36,0.28,-0.61,
1.897,-0.01,0.22,0.92,-0.36,0.28,-0.61,
1.9,-0.01,0.22,0.92,-0.36,0.28,-0.61,
1.9,-0.01,0.22,0.92,-0.44,0.36,-0.54,
1.902,-0.01,0.23,0.92,-0.44,0.36,-0.54,
1.905,-0.01,0.23,0.93,-0.44,0.36,-0.54,
1.905,-0.01,0.23,0.93,-0.43,0.40,-0.49,
1.907,-0.01,0.23,0.93,-0.43,0.40,-0.49,
1.909,-0.01,0.23,0.95,-0.43,0.40,-0.49,
1.91,-0.01,0.23,0.95,-0.43,0.47,-0.44,
1.912,0.00,0.23,0.94,-0.43,0.47,-0.44,
1.914,0.00,0.23,0.95,-0.43,0.47,-0.44,
1.914,0.00,0.23,0.95,-0.42,0.52,-0.32,
1.917,0.01,0.24,0.95,-0.42,0.52,-0.32,
1.92,0.01,0.24,0.95,-0.35,0.50,-0.27,
1.921,0.01,0.24,0.94,-0.35,0.50,-0.27,
1.922,0.01,0.24,0.94,-0.35,0.50,-0.27,
1.925,0.02,0.25,0.93,-0.35,0.50,-0.27,
1.925,0.02,0.25,0.93,-0.30,0.58,-0.24,
1.927,0.02,0.25,0.92,-0.30,0.58,-0.24,
1.929,0.02,0.25,0.92,-0.30,0.58,-0.24,
1.929,0.02,0.25,0.92,-0.25,0.64,-0.33,
1.932,0.02,0.25,0.93,-0.25,0.64,-0.33,
1.935,0.01,0.25,0.93,-0.25,0.64,-0.33,
1.935,0.01,0.25,0.93,-0.22,0.68,-0.46,
1.938,0.01,0.24,0.93,-0.22,0.68,-0.46,
1.939,0.01,0.24,0.94,-0.22,0.68,-0.46,
1.939,0.01,0.24,0.94,-0.29,0.71,-0.44,
1.941,0.01,0.24,0.94,-0.29,0.71,-0.44,
1.944,0.01,0.24,0.94,-0.29,0.65,-0.32,
1.944,0.01,0.24,0.95,-0.29,0.65,-0.32,
1.946,0.01,0.24,0.97,-0.29,0.65,-0.32,
1.949,0.01,0.24,0.97,-0.29,0.65,-0.32,
1.949,0.01,0.24,0.97,-0.35,0.61,-0.23,
1.952,0.01,0.24,0.97,-0.35,0.61,-0.23,
1.954,0.00,0.24,0.97,-0.35,0.61,-0.23,
1.954,0.00,0.24,0.97,-0.32,0.61,-0.02,
1.957,0.00,0.24,0.98,-0.32,0.61,-0.02,
1.959,0.00,0.24,0.98,-0.35,0.60,0.03,
1.959,-0.00,0.24,0.98,-0.35,0.60,0.03,
1.961,-0.00,0.24,0.99,-0.35,0.60,0.03,
1.964,0.00,0.25,0.98,-0.35,0.60,0.03,
1.964,0.00,0.25,0.98,-0.43,0.66,0.11,
1.966,0.00,0.25,0.98,-0.43,0.66,0.11,
1.973,0.00,0.25,0.98,-0.42,0.68,0.13,
1.974,0.01,0.25,0.99,-0.42,0.68,0.13,
1.974,0.01,0.25,0.99,-0.42,0.68,0.13,
1.974,0.00,0.25,0.99,-0.42,0.68,0.13,
1.976,0.00,0.25,0.99,-0.39,0.72,0.16,
1.976,0.00,0.25,0.97,-0.39,0.72,0.16,
1.981,-0.00,0.25,0.97,-0.39,0.72,0.16,
1.982,-0.00,0.25,0.97,-0.37,0.70,0.17,
1.982,-0.00,0.26,0.96,-0.37,0.70,0.17,
1.984,-0.01,0.27,0.95,-0.37,0.70,0.17,
1.984,-0.01,0.27,0.95,-0.43,0.74,-0.01,
1.987,-0.02,0.27,0.95,-0.43,0.74,-0.01,
1.989,-0.02,0.28,0.94,-0.43,0.74,-0.01,
1.989,-0.02,0.28,0.94,-0.47,0.83,-0.12,
1.991,-0.03,0.28,0.94,-0.47,0.83,-0.12,
1.995,-0.03,0.28,0.94,-0.63,0.95,-0.26,
1.995,-0.04,0.29,0.94,-0.63,0.95,-0.26,
1.997,-0.05,0.30,0.94,-0.63,0.95,-0.26,
1.999,-0.04,0.30,0.93,-0.63,0.95,-0.26,
2.0,-0.04,0.30,0.93,-0.76,1.03,-0.31,
2.003,-0.04,0.30,0.93,-0.76,1.03,-0.31,
2.004,-0.04,0.30,0.91,-0.76,1.03,-0.31,
2.004,-0.04,0.30,0.91,-0.85,1.15,-0.35,
2.006,-0.03,0.30,0.87,-0.85,1.15,-0.35,
2.009,-0.03,0.30,0.87,-0.76,1.17,-0.48,
2.009,-0.02,0.30,0.82,-0.76,1.17,-0.48,
2.011,-0.02,0.30,0.80,-0.76,1.17,-0.48,
2.014,-0.02,0.30,0.81,-0.76,1.17,-0.48,
2.014,-0.02,0.30,0.81,-0.62,1.16,-1.23,
2.016,-0.03,0.30,0.85,-0.62,1.16,-1.23,
2.02,-0.03,0.30,0.85,-0.60,1.18,-1.60,
2.02,-0.04,0.30,0.88,-0.60,1.18,-1.60,
2.021,-0.05,0.29,0.90,-0.60,1.18,-1.60,
2.024,-0.07,0.29,0.93,-0.60,1.18,-1.60,
2.024,-0.07,0.29,0.93,-0.73,1.18,-1.04,
2.026,-0.08,0.28,0.94,-0.73,1.18,-1.04,
2.029,-0.07,0.29,0.97,-0.73,1.18,-1.04,
2.029,-0.07,0.29,0.97,-0.96,1.11,-0.57,
2.031,-0.07,0.29,0.99,-0.96,1.11,-0.57,
2.034,-0.05,0.29,1.01,-0.96,1.11,-0.57,
2.034,-0.05,0.29,1.01,-1.08,1.08,-0.15,
2.036,-0.04,0.29,1.03,-1.08,1.08,-0.15,
2.038,-0.03,0.28,1.05,-1.08,1.08,-0.15,
2.039,-0.03,0.28,1.05,-0.90,1.15,0.31,
2.041,-0.02,0.28,1.06,-0.90,1.15,0.31,
2.044,-0.02,0.28,1.06,-0.65,1.09,0.67,
2.044,-0.02,0.28,1.08,-0.65,1.09,0.67,
2.045,-0.01,0.28,1.09,-0.65,1.09,0.67,
2.049,-0.01,0.28,1.09,-0.65,1.09,0.67,
2.049,-0.01,0.28,1.09,-0.50,1.07,0.95,
2.051,-0.01,0.28,1.10,-0.50,1.07,0.95,
2.057,-0.01,0.28,1.10,-0.50,1.07,0.95,
2.057,-0.01,0.28,1.10,-0.45,1.05,1.15,
2.058,-0.00,0.28,1.10,-0.45,1.05,1.15,
2.058,0.00,0.29,1.11,-0.45,1.05,1.15,
2.059,0.00,0.29,1.11,-0.45,1.06,1.26,
2.061,0.01,0.29,1.10,-0.45,1.06,1.26,
2.063,0.01,0.29,1.10,-0.45,1.06,1.26,
2.063,0.01,0.29,1.10,-0.33,1.11,1.29,
2.066,0.01,0.29,1.10,-0.33,1.11,1.29,
2.069,0.01,0.29,1.10,-0.22,1.18,1.26,
2.069,0.01,0.29,1.09,-0.22,1.18,1.26,
2.074,0.01,0.29,1.08,-0.22,1.18,1.26,
2.074,0.00,0.29,1.07,-0.22,1.18,1.26,
2.075,0.00,0.29,1.07,-0.26,1.19,1.20,
2.076,0.00,0.29,1.07,-0.26,1.19,1.20,
2.079,-0.00,0.29,1.06,-0.26,1.19,1.20,
2.079,-0.00,0.29,1.06,-0.27,1.16,1.04,
2.08,-0.01,0.28,1.06,-0.27,1.16,1.04,
2.083,-0.01,0.28,1.06,-0.27,1.16,1.04,
2.084,-0.01,0.28,1.06,-0.34,1.12,0.91,
2.086,-0.02,0.28,1.05,-0.34,1.12,0.91,
2.093,-0.02,0.27,1.05,-0.34,1.12,0.91,
2.093,-0.02,0.27,1.05,-0.44,1.02,0.82,
2.093,-0.03,0.26,1.04,-0.44,1.02,0.82,
2.094,-0.03,0.26,1.04,-0.54,0.95,0.76,
2.094,-0.02,0.26,1.03,-0.54,0.95,0.76,
2.096,-0.02,0.26,1.03,-0.54,0.95,0.76,
2.098,-0.01,0.26,1.02,-0.54,0.95,0.76,
2.099,-0.01,0.26,1.02,-0.58,0.84,0.63,
2.101,-0.01,0.26,1.01,-0.58,0.84,0.63,
2.116,-0.01,0.27,1.01,-0.58,0.84,0.63,
2.117,-0.01,0.27,1.01,-0.52,0.82,0.50,
2.117,0.00,0.26,1.00,-0.52,0.82,0.50,
2.118,0.00,0.27,1.00,-0.52,0.82,0.50,
2.118,0.00,0.27,1.00,-0.44,0.85,0.37,
2.118,0.00,0.27,1.00,-0.44,0.85,0.37,
2.118,0.00,0.26,1.00,-0.44,0.85,0.37,
2.118,0.00,0.26,1.00,-0.37,0.84,0.27,
2.119,0.00,0.26,1.00,-0.37,0.84,0.27,
2.119,0.00,0.26,1.00,-0.37,0.84,0.25,
2.119,-0.00,0.26,1.01,-0.37,0.84,0.25,
2.121,0.00,0.25,1.00,-0.37,0.84,0.25,
2.127,0.01,0.25,1.00,-0.37,0.84,0.25,
2.127,0.01,0.25,1.00,-0.38,0.76,0.27,
2.127,0.01,0.26,1.01,-0.38,0.76,0.27,
2.128,0.01,0.26,1.01,-0.38,0.76,0.27,
2.128,0.01,0.26,1.01,-0.37,0.71,0.29,
