
time,gFx,gFy,gFz,ax,ay,az,
0.005,-0.03,0.14,1.01,0.13,0.22,-0.11,
0.005,-0.03,0.14,1.01,0.02,0.24,-0.03,
0.005,-0.04,0.14,1.02,0.02,0.24,-0.03,
0.006,-0.04,0.13,1.02,0.02,0.24,-0.03,
0.006,-0.04,0.13,1.02,-0.03,0.26,0.10,
0.006,-0.05,0.13,1.03,-0.03,0.26,0.10,
0.006,-0.06,0.13,1.03,-0.03,0.26,0.10,
0.006,-0.06,0.13,1.03,-0.15,0.27,0.22,
0.012,-0.05,0.12,1.02,-0.15,0.27,0.22,
0.012,-0.06,0.12,1.03,-0.15,0.27,0.22,
0.013,-0.06,0.12,1.03,-0.25,0.21,0.34,
0.014,-0.06,0.12,1.03,-0.25,0.21,0.34,
0.016,-0.06,0.11,1.03,-0.25,0.21,0.34,
0.017,-0.06,0.11,1.03,-0.30,0.13,0.25,
0.019,-0.06,0.11,1.03,-0.30,0.13,0.25,
0.022,-0.06,0.11,1.03,-0.30,0.06,0.29,
0.022,-0.07,0.11,1.03,-0.30,0.06,0.29,
0.027,-0.07,0.10,1.03,-0.30,0.06,0.29,
0.028,-0.07,0.11,1.02,-0.30,0.06,0.29,
0.028,-0.07,0.11,1.02,-0.36,0.03,0.28,
0.029,-0.07,0.11,1.02,-0.36,0.03,0.28,
0.031,-0.06,0.11,1.01,-0.36,0.03,0.28,
0.031,-0.06,0.11,1.01,-0.40,-0.00,0.26,
0.035,-0.07,0.09,1.02,-0.40,-0.00,0.26,
0.037,-0.08,0.08,1.03,-0.40,-0.00,0.26,
0.037,-0.08,0.08,1.03,-0.34,0.02,0.13,
0.039,-0.09,0.06,1.03,-0.34,0.02,0.13,
0.041,-0.08,0.05,1.04,-0.34,0.02,0.13,
0.041,-0.08,0.05,1.04,-0.39,-0.22,0.26,
0.045,-0.08,0.06,1.04,-0.39,-0.22,0.26,
0.046,-0.09,0.05,1.04,-0.39,-0.22,0.26,
0.046,-0.09,0.05,1.04,-0.49,-0.48,0.34,
0.049,-0.09,0.05,1.04,-0.49,-0.48,0.34,
0.051,-0.09,0.06,1.05,-0.49,-0.48,0.34,
0.051,-0.09,0.06,1.05,-0.50,-0.50,0.38,
0.055,-0.10,0.06,1.04,-0.50,-0.50,0.38,
0.056,-0.10,0.06,1.04,-0.50,-0.50,0.38,
0.057,-0.10,0.06,1.04,-0.53,-0.50,0.44,
0.059,-0.10,0.07,1.04,-0.53,-0.50,0.44,
0.061,-0.09,0.07,1.03,-0.53,-0.50,0.44,
0.061,-0.09,0.07,1.03,-0.54,-0.39,0.39,
0.063,-0.09,0.07,1.02,-0.54,-0.39,0.39,
0.067,-0.09,0.07,1.02,-0.51,-0.35,0.32,
0.067,-0.08,0.07,1.02,-0.51,-0.35,0.32,
0.069,-0.08,0.07,1.02,-0.51,-0.35,0.32,
0.071,-0.08,0.07,1.01,-0.51,-0.35,0.32,
0.072,-0.08,0.07,1.01,-0.39,-0.37,0.21,
0.074,-0.08,0.08,1.02,-0.39,-0.37,0.21,
0.076,-0.08,0.08,1.02,-0.39,-0.37,0.21,
0.076,-0.08,0.08,1.02,-0.35,-0.32,0.12,
0.078,-0.08,0.08,1.02,-0.35,-0.32,0.12,
0.082,-0.08,0.08,1.01,-0.35,-0.32,0.12,
0.082,-0.08,0.08,1.01,-0.38,-0.24,0.14,
0.084,-0.08,0.08,1.01,-0.38,-0.24,0.14,
0.087,-0.09,0.08,1.02,-0.38,-0.24,0.14,
0.087,-0.09,0.08,1.02,-0.35,-0.25,0.14,
0.089,-0.08,0.08,1.01,-0.35,-0.25,0.14,
0.091,-0.08,0.08,1.01,-0.35,-0.25,0.14,
0.091,-0.08,0.08,1.01,-0.38,-0.22,0.13,
0.094,-0.08,0.07,1.02,-0.38,-0.22,0.13,
0.096,-0.08,0.07,1.01,-0.38,-0.22,0.13,
0.096,-0.08,0.07,1.01,-0.35,-0.25,0.10,
0.099,-0.08,0.08,1.01,-0.35,-0.25,0.10,
0.101,-0.09,0.08,1.01,-0.35,-0.25,0.10,
0.101,-0.09,0.08,1.01,-0.36,-0.32,0.11,
0.104,-0.09,0.08,1.01,-0.36,-0.32,0.11,
0.106,-0.09,0.08,1.01,-0.36,-0.32,0.11,
0.106,-0.09,0.08,1.01,-0.37,-0.27,0.07,
0.108,-0.09,0.07,1.01,-0.37,-0.27,0.07,
0.114,-0.10,0.08,1.01,-0.37,-0.27,0.07,
0.114,-0.10,0.08,1.01,-0.43,-0.27,0.09,
0.115,-0.10,0.08,1.01,-0.43,-0.27,0.09,
0.116,-0.10,0.08,1.01,-0.45,-0.29,0.09,
0.116,-0.10,0.08,1.01,-0.45,-0.29,0.09,
0.118,-0.10,0.08,1.01,-0.45,-0.29,0.09,
0.12,-0.10,0.08,1.01,-0.45,-0.29,0.09,
0.121,-0.10,0.08,1.01,-0.47,-0.25,0.10,
0.123,-0.10,0.07,1.01,-0.47,-0.25,0.10,
0.127,-0.10,0.08,1.01,-0.47,-0.25,0.10,
0.127,-0.10,0.08,1.01,-0.48,-0.28,0.09,
0.128,-0.10,0.08,1.01,-0.48,-0.28,0.09,
0.131,-0.09,0.08,1.01,-0.48,-0.28,0.09,
0.131,-0.09,0.08,1.01,-0.48,-0.29,0.09,
0.133,-0.09,0.08,1.00,-0.48,-0.29,0.09,
0.136,-0.09,0.08,1.00,-0.48,-0.29,0.09,
0.136,-0.09,0.08,1.00,-0.44,-0.27,0.05,
0.138,-0.09,0.08,1.00,-0.44,-0.27,0.05,
0.141,-0.09,0.08,1.00,-0.35,-0.23,-0.01,
0.141,-0.09,0.07,1.01,-0.35,-0.23,-0.01,
0.143,-0.09,0.07,1.01,-0.35,-0.23,-0.01,
0.145,-0.09,0.07,1.01,-0.35,-0.23,-0.01,
0.145,-0.09,0.07,1.01,-0.37,-0.29,0.03,
0.148,-0.09,0.08,1.01,-0.37,-0.29,0.03,
0.15,-0.08,0.08,1.00,-0.37,-0.29,0.03,
0.15,-0.08,0.08,1.00,-0.41,-0.33,0.08,
0.153,-0.08,0.08,1.00,-0.41,-0.33,0.08,
0.155,-0.08,0.09,1.01,-0.41,-0.33,0.08,
0.156,-0.08,0.09,1.01,-0.31,-0.28,0.03,
0.158,-0.08,0.09,1.00,-0.31,-0.28,0.03,
0.16,-0.08,0.09,1.00,-0.31,-0.28,0.03,
0.163,-0.08,0.09,1.00,-0.26,-0.19,0.03,
0.163,-0.07,0.10,1.00,-0.26,-0.19,0.03,
0.165,-0.07,0.10,1.00,-0.25,-0.13,0.01,
0.165,-0.07,0.11,1.00,-0.25,-0.13,0.01,
0.167,-0.07,0.11,1.01,-0.25,-0.13,0.01,
0.17,-0.07,0.11,1.00,-0.25,-0.13,0.01,
0.17,-0.07,0.11,1.00,-0.19,-0.02,-0.01,
0.172,-0.08,0.11,1.00,-0.19,-0.02,-0.01,
0.177,-0.08,0.11,1.00,-0.19,-0.02,-0.01,
0.177,-0.08,0.11,1.00,-0.19,0.04,0.02,
0.178,-0.08,0.12,1.00,-0.19,0.04,0.02,
0.18,-0.08,0.12,1.00,-0.19,0.04,0.02,
0.18,-0.08,0.12,1.00,-0.22,0.05,-0.03,
0.183,-0.08,0.12,0.99,-0.22,0.05,-0.03,
0.185,-0.07,0.13,0.99,-0.22,0.05,-0.03,
0.185,-0.07,0.13,0.99,-0.23,0.09,-0.03,
0.188,-0.08,0.13,1.00,-0.23,0.09,-0.03,
0.19,-0.08,0.13,1.00,-0.20,0.14,-0.09,
0.19,-0.08,0.13,0.99,-0.20,0.14,-0.09,
0.192,-0.08,0.13,0.99,-0.20,0.14,-0.09,
0.197,-0.08,0.14,0.99,-0.20,0.14,-0.09,
0.197,-0.08,0.14,0.99,-0.23,0.22,-0.06,
0.197,-0.08,0.14,0.99,-0.23,0.22,-0.06,
0.2,-0.07,0.15,0.99,-0.23,0.22,-0.06,
0.2,-0.07,0.15,0.99,-0.23,0.27,-0.07,
0.202,-0.08,0.16,0.99,-0.23,0.27,-0.07,
0.206,-0.08,0.15,0.99,-0.23,0.27,-0.07,
0.206,-0.08,0.15,0.99,-0.20,0.35,-0.11,
0.207,-0.08,0.16,0.98,-0.20,0.35,-0.11,
0.211,-0.08,0.16,0.98,-0.20,0.35,-0.11,
0.211,-0.08,0.16,0.98,-0.24,0.41,-0.13,
0.212,-0.09,0.16,0.99,-0.24,0.41,-0.13,
0.215,-0.09,0.16,0.99,-0.26,0.45,-0.18,
0.215,-0.10,0.17,0.99,-0.26,0.45,-0.18,
0.218,-0.11,0.17,0.99,-0.26,0.45,-0.18,
0.22,-0.11,0.16,0.99,-0.26,0.45,-0.18,
0.22,-0.11,0.16,0.99,-0.39,0.48,-0.11,
0.222,-0.11,0.17,0.98,-0.39,0.48,-0.11,
0.225,-0.12,0.17,0.98,-0.39,0.48,-0.11,
0.225,-0.12,0.17,0.98,-0.49,0.49,-0.11,
0.227,-0.12,0.16,0.98,-0.49,0.49,-0.11,
0.229,-0.13,0.16,0.98,-0.49,0.49,-0.11,
0.23,-0.13,0.16,0.98,-0.58,0.52,-0.17,
0.233,-0.13,0.16,0.98,-0.58,0.52,-0.17,
0.235,-0.14,0.16,0.98,-0.58,0.52,-0.17,
0.235,-0.14,0.16,0.98,-0.67,0.48,-0.16,
0.237,-0.14,0.16,0.98,-0.67,0.48,-0.16,
0.24,-0.15,0.16,0.98,-0.67,0.48,-0.16,
0.24,-0.15,0.16,0.98,-0.74,0.44,-0.18,
0.242,-0.15,0.15,0.98,-0.74,0.44,-0.18,
0.244,-0.15,0.15,0.97,-0.74,0.44,-0.18,
0.245,-0.15,0.15,0.97,-0.82,0.41,-0.19,
0.247,-0.15,0.15,0.98,-0.82,0.41,-0.19,
0.249,-0.16,0.15,0.98,-0.82,0.41,-0.19,
0.25,-0.16,0.15,0.98,-0.86,0.33,-0.23,
0.252,-0.17,0.15,0.97,-0.86,0.33,-0.23,
0.255,-0.17,0.15,0.98,-0.86,0.33,-0.23,
0.255,-0.17,0.15,0.98,-0.92,0.31,-0.21,
0.257,-0.18,0.14,0.98,-0.92,0.31,-0.21,
0.261,-0.19,0.14,0.98,-0.92,0.31,-0.21,
0.261,-0.19,0.14,0.98,-1.04,0.30,-0.24,
0.262,-0.18,0.14,0.98,-1.04,0.30,-0.24,
0.265,-0.18,0.14,0.98,-1.17,0.24,-0.17,
0.265,-0.19,0.13,0.98,-1.17,0.24,-0.17,
0.267,-0.19,0.13,0.98,-1.17,0.24,-0.17,
0.269,-0.19,0.12,0.98,-1.17,0.24,-0.17,
0.27,-0.19,0.12,0.98,-1.18,0.17,-0.20,
0.272,-0.19,0.12,0.98,-1.18,0.17,-0.20,
0.274,-0.19,0.12,0.99,-1.18,0.17,-0.20,
0.275,-0.19,0.12,0.99,-1.20,0.07,-0.20,
0.277,-0.20,0.11,1.00,-1.20,0.07,-0.20,
0.279,-0.19,0.11,1.00,-1.20,0.07,-0.20,
0.279,-0.19,0.11,1.00,-1.21,0.00,-0.14,
0.282,-0.19,0.11,1.00,-1.21,0.00,-0.14,
0.284,-0.19,0.11,1.00,-1.22,-0.10,-0.01,
0.285,-0.19,0.10,1.01,-1.22,-0.10,-0.01,
0.287,-0.19,0.10,1.02,-1.22,-0.10,-0.01,
0.289,-0.18,0.09,1.02,-1.22,-0.10,-0.01,
0.289,-0.18,0.09,1.02,-1.15,-0.16,0.09,
0.291,-0.18,0.09,1.03,-1.15,-0.16,0.09,
0.297,-0.18,0.08,1.03,-1.15,-0.16,0.09,
0.297,-0.18,0.08,1.03,-1.11,-0.22,0.20,
0.298,-0.17,0.08,1.04,-1.11,-0.22,0.20,
0.298,-0.16,0.08,1.04,-1.11,-0.22,0.20,
0.299,-0.16,0.08,1.04,-1.05,-0.34,0.33,
0.301,-0.16,0.07,1.04,-1.05,-0.34,0.33,
0.304,-0.16,0.08,1.04,-1.05,-0.34,0.33,
0.304,-0.16,0.08,1.04,-0.96,-0.40,0.40,
0.307,-0.15,0.09,1.04,-0.96,-0.40,0.40,
0.308,-0.15,0.09,1.04,-0.96,-0.40,0.40,
0.309,-0.15,0.09,1.04,-0.85,-0.41,0.42,
0.311,-0.15,0.08,1.04,-0.85,-0.41,0.42,
0.314,-0.16,0.08,1.04,-0.85,-0.41,0.42,
0.314,-0.16,0.08,1.04,-0.79,-0.29,0.37,
0.317,-0.17,0.08,1.04,-0.79,-0.29,0.37,
0.319,-0.17,0.08,1.03,-0.79,-0.29,0.37,
0.319,-0.17,0.08,1.03,-0.80,-0.38,0.37,
0.321,-0.17,0.08,1.03,-0.80,-0.38,0.37,
0.324,-0.17,0.08,1.03,-0.91,-0.41,0.37,
0.324,-0.18,0.08,1.02,-0.91,-0.41,0.37,
0.326,-0.17,0.09,1.02,-0.91,-0.41,0.37,
0.332,-0.17,0.09,1.01,-0.91,-0.41,0.37,
0.332,-0.17,0.09,1.01,-0.95,-0.38,0.26,
0.333,-0.17,0.09,1.00,-0.95,-0.38,0.26,
0.333,-0.17,0.09,1.00,-0.95,-0.38,0.26,
0.333,-0.17,0.09,1.00,-0.92,-0.30,0.17,
0.335,-0.17,0.10,0.99,-0.92,-0.30,0.17,
0.338,-0.17,0.10,0.99,-0.91,-0.27,0.03,
0.338,-0.17,0.10,0.98,-0.91,-0.27,0.03,
0.341,-0.17,0.10,0.98,-0.91,-0.27,0.03,
0.344,-0.17,0.11,0.97,-0.91,-0.27,0.03,
0.344,-0.17,0.11,0.97,-0.86,-0.25,-0.14,
0.346,-0.17,0.10,0.97,-0.86,-0.25,-0.14,
0.348,-0.18,0.11,0.96,-0.86,-0.25,-0.14,
0.348,-0.18,0.11,0.96,-0.89,-0.18,-0.24,
0.35,-0.18,0.11,0.96,-0.89,-0.18,-0.24,
0.354,-0.18,0.11,0.95,-0.89,-0.18,-0.24,
0.354,-0.18,0.11,0.95,-0.91,-0.15,-0.34,
0.356,-0.18,0.11,0.95,-0.91,-0.15,-0.34,
0.358,-0.18,0.12,0.94,-0.91,-0.15,-0.34,
0.359,-0.18,0.12,0.94,-0.91,-0.12,-0.42,
0.361,-0.18,0.12,0.94,-0.91,-0.12,-0.42,
0.363,-0.18,0.12,0.94,-0.88,-0.09,-0.55,
0.364,-0.18,0.12,0.94,-0.88,-0.09,-0.55,
0.366,-0.17,0.12,0.94,-0.88,-0.09,-0.55,
0.368,-0.17,0.12,0.94,-0.88,-0.06,-0.59,
0.369,-0.17,0.12,0.94,-0.88,-0.06,-0.59,
0.37,-0.16,0.12,0.93,-0.88,-0.06,-0.59,
0.373,-0.16,0.12,0.94,-0.88,-0.06,-0.59,
0.374,-0.16,0.12,0.94,-0.77,-0.05,-0.57,
0.376,-0.16,0.12,0.94,-0.77,-0.05,-0.57,
0.378,-0.15,0.12,0.94,-0.77,-0.05,-0.57,
0.378,-0.15,0.12,0.94,-0.69,-0.05,-0.59,
0.381,-0.15,0.12,0.94,-0.69,-0.05,-0.59,
0.383,-0.14,0.12,0.95,-0.69,-0.05,-0.59,
0.384,-0.14,0.12,0.95,-0.60,-0.04,-0.51,
0.386,-0.13,0.12,0.95,-0.60,-0.04,-0.51,
0.388,-0.12,0.13,0.96,-0.60,-0.04,-0.51,
0.388,-0.12,0.13,0.96,-0.47,-0.03,-0.49,
0.391,-0.12,0.13,0.97,-0.47,-0.03,-0.49,
0.395,-0.11,0.13,0.97,-0.47,-0.03,-0.49,
0.396,-0.11,0.13,0.97,-0.31,-0.01,-0.38,
0.396,-0.11,0.13,0.98,-0.31,-0.01,-0.38,
0.398,-0.10,0.14,0.99,-0.31,-0.01,-0.38,
0.398,-0.10,0.14,0.99,-0.20,0.02,-0.23,
0.401,-0.10,0.13,0.99,-0.20,0.02,-0.23,
0.403,-0.09,0.13,0.99,-0.20,0.02,-0.23,
0.403,-0.09,0.13,0.99,-0.08,0.08,-0.07,
0.405,-0.09,0.13,1.00,-0.08,0.08,-0.07,
0.408,-0.09,0.12,0.99,-0.08,0.08,-0.07,
0.408,-0.09,0.12,0.99,0.01,0.04,-0.00,
0.41,-0.09,0.12,0.99,0.01,0.04,-0.00,
0.415,-0.09,0.13,0.99,0.01,0.04,-0.00,
0.416,-0.09,0.13,0.99,0.07,-0.01,0.02,
0.416,-0.10,0.12,1.00,0.07,-0.01,0.02,
0.417,-0.10,0.12,1.00,0.07,-0.01,0.02,
0.418,-0.10,0.12,1.00,0.08,-0.02,-0.02,
0.42,-0.11,0.13,1.00,0.08,-0.02,-0.02,
0.423,-0.11,0.13,0.99,0.08,-0.02,-0.02,
0.423,-0.11,0.13,0.99,0.02,-0.06,0.06,
0.425,-0.12,0.13,0.99,0.02,-0.06,0.06,
0.427,-0.12,0.13,0.98,0.02,-0.06,0.06,
0.428,-0.12,0.13,0.98,-0.08,0.01,0.04,
0.43,-0.13,0.13,0.98,-0.08,0.01,0.04,
0.433,-0.13,0.13,0.97,-0.08,0.01,0.04,
0.433,-0.13,0.13,0.97,-0.18,0.00,-0.10,
0.435,-0.14,0.13,0.97,-0.18,0.00,-0.10,
0.438,-0.14,0.13,0.97,-0.18,0.00,-0.10,
0.438,-0.14,0.13,0.97,-0.23,-0.01,-0.16,
0.44,-0.15,0.12,0.96,-0.23,-0.01,-0.16,
0.443,-0.16,0.13,0.96,-0.23,-0.01,-0.16,
0.443,-0.16,0.13,0.96,-0.30,-0.02,-0.22,
0.445,-0.17,0.12,0.95,-0.30,-0.02,-0.22,
0.447,-0.17,0.12,0.95,-0.30,-0.02,-0.22,
0.447,-0.17,0.12,0.95,-0.46,-0.07,-0.32,
0.45,-0.17,0.12,0.94,-0.46,-0.07,-0.32,
0.453,-0.17,0.12,0.93,-0.46,-0.07,-0.32,
0.453,-0.17,0.12,0.93,-0.62,-0.11,-0.40,
0.454,-0.17,0.11,0.93,-0.62,-0.11,-0.40,
0.457,-0.18,0.10,0.92,-0.62,-0.11,-0.40,
0.457,-0.18,0.10,0.92,-0.59,-0.14,-0.53,
0.46,-0.17,0.11,0.93,-0.59,-0.14,-0.53,
0.462,-0.17,0.11,0.93,-0.59,-0.14,-0.53,
0.463,-0.17,0.11,0.93,-0.60,-0.28,-0.64,
0.464,-0.18,0.11,0.93,-0.60,-0.28,-0.64,
0.467,-0.18,0.11,0.93,-0.60,-0.28,-0.64,
0.468,-0.18,0.11,0.93,-0.60,-0.28,-0.59,
0.469,-0.18,0.11,0.93,-0.60,-0.28,-0.59,
0.472,-0.19,0.11,0.93,-0.60,-0.28,-0.59,
0.472,-0.19,0.11,0.93,-0.63,-0.25,-0.60,
0.474,-0.19,0.10,0.93,-0.63,-0.25,-0.60,
0.477,-0.18,0.10,0.93,-0.63,-0.25,-0.60,
0.478,-0.18,0.10,0.93,-0.68,-0.26,-0.59,
0.479,-0.18,0.09,0.92,-0.68,-0.26,-0.59,
0.481,-0.18,0.09,0.92,-0.68,-0.26,-0.59,
0.482,-0.18,0.09,0.92,-0.71,-0.35,-0.55,
0.484,-0.17,0.08,0.92,-0.71,-0.35,-0.55,
0.486,-0.17,0.09,0.92,-0.71,-0.35,-0.55,
0.487,-0.17,0.09,0.92,-0.61,-0.46,-0.64,
0.489,-0.17,0.09,0.93,-0.61,-0.46,-0.64,
0.492,-0.17,0.09,0.92,-0.61,-0.46,-0.64,
0.493,-0.17,0.09,0.92,-0.55,-0.48,-0.62,
0.496,-0.17,0.09,0.93,-0.55,-0.48,-0.62,
0.497,-0.16,0.09,0.93,-0.55,-0.48,-0.62,
0.497,-0.16,0.09,0.93,-0.48,-0.42,-0.59,
0.5,-0.16,0.09,0.92,-0.48,-0.42,-0.59,
0.502,-0.16,0.10,0.92,-0.48,-0.42,-0.59,
0.503,-0.16,0.10,0.92,-0.46,-0.41,-0.56,
0.505,-0.15,0.09,0.93,-0.46,-0.41,-0.56,
0.507,-0.15,0.08,0.93,-0.46,-0.41,-0.56,
0.507,-0.15,0.08,0.93,-0.40,-0.37,-0.60,
0.509,-0.14,0.08,0.93,-0.40,-0.37,-0.60,
0.513,-0.14,0.08,0.93,-0.30,-0.46,-0.51,
0.517,-0.14,0.07,0.93,-0.30,-0.46,-0.51,
0.517,-0.13,0.07,0.93,-0.30,-0.46,-0.51,
0.517,-0.13,0.06,0.93,-0.30,-0.46,-0.51,
0.517,-0.13,0.06,0.93,-0.22,-0.54,-0.55,
0.519,-0.13,0.07,0.94,-0.22,-0.54,-0.55,
0.522,-0.13,0.06,0.94,-0.22,-0.54,-0.55,
0.522,-0.13,0.06,0.94,-0.10,-0.60,-0.52,
0.524,-0.12,0.07,0.95,-0.10,-0.60,-0.52,
0.526,-0.12,0.06,0.95,-0.10,-0.60,-0.52,
0.527,-0.12,0.06,0.95,-0.07,-0.65,-0.42,
0.531,-0.12,0.06,0.96,-0.07,-0.65,-0.42,
0.531,-0.12,0.06,0.95,-0.07,-0.65,-0.42,
0.532,-0.12,0.06,0.95,-0.04,-0.63,-0.33,
0.534,-0.12,0.05,0.96,-0.04,-0.63,-0.33,
0.536,-0.11,0.06,0.96,-0.04,-0.63,-0.33,
0.536,-0.11,0.06,0.96,-0.03,-0.67,-0.27,
0.539,-0.11,0.05,0.96,-0.03,-0.67,-0.27,
0.542,-0.11,0.06,0.96,-0.03,-0.67,-0.27,
0.542,-0.11,0.06,0.96,0.01,-0.70,-0.22,
0.544,-0.11,0.05,0.95,0.01,-0.70,-0.22,
0.546,-0.11,0.05,0.95,0.01,-0.70,-0.22,
0.546,-0.11,0.05,0.95,0.06,-0.69,-0.25,
0.549,-0.11,0.06,0.96,0.06,-0.69,-0.25,
0.552,-0.11,0.06,0.95,0.06,-0.69,-0.25,
0.552,-0.11,0.06,0.95,0.04,-0.71,-0.28,
0.554,-0.11,0.07,0.95,0.04,-0.71,-0.28,
0.557,-0.11,0.07,0.94,0.04,-0.71,-0.28,
0.557,-0.11,0.07,0.94,0.03,-0.65,-0.29,
0.559,-0.11,0.07,0.94,0.03,-0.65,-0.29,
0.562,-0.11,0.08,0.94,0.03,-0.65,-0.29,
0.563,-0.11,0.08,0.94,0.04,-0.55,-0.36,
0.564,-0.11,0.08,0.94,0.04,-0.55,-0.36,
0.566,-0.11,0.09,0.94,0.04,-0.55,-0.36,
0.566,-0.11,0.09,0.94,0.03,-0.51,-0.41,
0.569,-0.11,0.09,0.95,0.03,-0.51,-0.41,
0.571,-0.11,0.10,0.96,0.03,-0.51,-0.41,
0.572,-0.11,0.10,0.96,0.01,-0.41,-0.36,
0.574,-0.10,0.09,0.97,0.01,-0.41,-0.36,
0.576,-0.09,0.09,0.97,0.01,-0.41,-0.36,
0.576,-0.09,0.09,0.97,0.03,-0.32,-0.24,
0.579,-0.07,0.08,0.96,0.03,-0.32,-0.24,
0.581,-0.07,0.08,0.94,0.03,-0.32,-0.24,
0.581,-0.07,0.08,0.94,0.16,-0.35,-0.12,
0.584,-0.06,0.07,0.93,0.16,-0.35,-0.12,
0.586,-0.06,0.07,0.93,0.16,-0.35,-0.12,
0.587,-0.06,0.07,0.93,0.37,-0.47,-0.29,
0.589,-0.07,0.08,0.92,0.37,-0.47,-0.29,
0.591,-0.06,0.08,0.92,0.37,-0.47,-0.29,
0.591,-0.06,0.08,0.92,0.43,-0.55,-0.48,
0.594,-0.07,0.08,0.92,0.43,-0.55,-0.48,
0.596,-0.07,0.08,0.92,0.43,-0.55,-0.48,
0.597,-0.07,0.08,0.92,0.41,-0.49,-0.59,
0.598,-0.07,0.08,0.93,0.41,-0.49,-0.59,
0.601,-0.06,0.09,0.94,0.41,-0.49,-0.59,
0.601,-0.06,0.09,0.94,0.41,-0.45,-0.54,
0.604,-0.07,0.09,0.95,0.41,-0.45,-0.54,
0.606,-0.07,0.08,0.95,0.41,-0.45,-0.54,
0.606,-0.07,0.08,0.95,0.40,-0.39,-0.40,
0.608,-0.06,0.08,0.95,0.40,-0.39,-0.40,
0.616,-0.06,0.08,0.95,0.39,-0.38,-0.29,
0.616,-0.05,0.08,0.95,0.39,-0.38,-0.29,
0.616,-0.04,0.08,0.95,0.39,-0.38,-0.29,
0.617,-0.04,0.08,0.95,0.47,-0.43,-0.28,
0.617,-0.04,0.08,0.96,0.47,-0.43,-0.28,
0.618,-0.03,0.07,0.96,0.47,-0.43,-0.28,
0.62,-0.04,0.07,0.97,0.47,-0.43,-0.28,
0.621,-0.04,0.07,0.97,0.63,-0.47,-0.25,
0.623,-0.04,0.08,0.97,0.63,-0.47,-0.25,
0.626,-0.04,0.07,0.98,0.63,-0.47,-0.25,
0.626,-0.04,0.07,0.98,0.65,-0.52,-0.16,
0.63,-0.05,0.08,0.98,0.65,-0.52,-0.16,
0.632,-0.05,0.08,0.99,0.65,-0.52,-0.16,
0.633,-0.05,0.08,0.99,0.59,-0.47,-0.01,
0.633,-0.05,0.08,0.99,0.59,-0.47,-0.01,
0.635,-0.05,0.08,0.99,0.51,-0.41,0.06,
0.635,-0.05,0.08,1.00,0.51,-0.41,0.06,
0.638,-0.05,0.08,0.99,0.51,-0.41,0.06,
0.64,-0.05,0.08,1.00,0.51,-0.41,0.06,
0.64,-0.05,0.08,1.00,0.48,-0.38,0.17,
0.642,-0.05,0.08,1.01,0.48,-0.38,0.17,
0.647,-0.05,0.08,1.02,0.48,-0.38,0.17,
0.647,-0.05,0.08,1.02,0.50,-0.36,0.20,
0.648,-0.05,0.08,1.02,0.50,-0.36,0.20,
0.65,-0.06,0.08,1.03,0.50,-0.36,0.20,
0.65,-0.06,0.08,1.03,0.49,-0.37,0.34,
0.653,-0.06,0.08,1.03,0.49,-0.37,0.34,
0.655,-0.05,0.08,1.04,0.49,-0.37,0.34,
0.657,-0.05,0.08,1.04,0.45,-0.35,0.44,
0.657,-0.05,0.07,1.04,0.45,-0.35,0.44,
0.66,-0.04,0.07,1.04,0.45,-0.35,0.44,
0.66,-0.04,0.07,1.04,0.43,-0.40,0.53,
0.663,-0.05,0.07,1.04,0.43,-0.40,0.53,
0.665,-0.05,0.06,1.04,0.43,-0.40,0.53,
0.666,-0.05,0.06,1.04,0.51,-0.45,0.57,
0.667,-0.04,0.06,1.05,0.51,-0.45,0.57,
0.67,-0.05,0.06,1.05,0.51,-0.45,0.57,
0.67,-0.05,0.06,1.05,0.50,-0.50,0.60,
0.672,-0.05,0.06,1.04,0.50,-0.50,0.60,
0.674,-0.05,0.05,1.03,0.50,-0.50,0.60,
0.675,-0.05,0.05,1.03,0.50,-0.57,0.63,
0.679,-0.05,0.05,1.03,0.50,-0.57,0.63,
0.68,-0.04,0.05,1.02,0.50,-0.57,0.63,
0.681,-0.04,0.05,1.02,0.48,-0.60,0.56,
0.682,-0.05,0.06,1.02,0.48,-0.60,0.56,
0.684,-0.05,0.06,1.02,0.49,-0.62,0.44,
0.685,-0.05,0.06,1.01,0.49,-0.62,0.44,
0.687,-0.04,0.06,1.01,0.49,-0.62,0.44,
0.689,-0.04,0.07,1.00,0.49,-0.62,0.44,
0.69,-0.04,0.07,1.00,0.48,-0.56,0.34,
0.692,-0.04,0.07,1.00,0.48,-0.56,0.34,
0.695,-0.04,0.07,0.99,0.48,-0.56,0.34,
0.696,-0.04,0.07,0.99,0.51,-0.48,0.19,
0.697,-0.04,0.08,0.98,0.51,-0.48,0.19,
0.699,-0.04,0.08,0.97,0.51,-0.48,0.19,
0.7,-0.04,0.08,0.97,0.56,-0.47,0.14,
0.702,-0.04,0.09,0.97,0.56,-0.47,0.14,
0.704,-0.04,0.09,0.96,0.56,-0.47,0.14,
0.705,-0.04,0.09,0.96,0.53,-0.37,-0.10,
0.707,-0.04,0.10,0.95,0.53,-0.37,-0.10,
0.709,-0.04,0.10,0.95,0.51,-0.26,-0.16,
0.71,-0.04,0.10,0.95,0.51,-0.26,-0.16,
0.716,-0.03,0.10,0.95,0.51,-0.26,-0.16,
0.716,-0.03,0.10,0.94,0.51,-0.26,-0.16,
0.716,-0.03,0.10,0.94,0.58,-0.18,-0.29,
0.717,-0.03,0.10,0.94,0.58,-0.18,-0.29,
0.72,-0.03,0.10,0.94,0.58,-0.18,-0.29,
0.72,-0.03,0.10,0.94,0.62,-0.18,-0.37,
0.722,-0.04,0.10,0.93,0.62,-0.18,-0.37,
0.724,-0.04,0.10,0.93,0.62,-0.18,-0.37,
0.724,-0.04,0.10,0.93,0.62,-0.17,-0.42,
0.726,-0.03,0.10,0.93,0.62,-0.17,-0.42,
0.729,-0.03,0.09,0.92,0.62,-0.17,-0.42,
0.73,-0.03,0.09,0.92,0.57,-0.21,-0.49,
0.731,-0.03,0.09,0.91,0.57,-0.21,-0.49,
0.734,-0.03,0.09,0.91,0.61,-0.26,-0.53,
0.734,-0.04,0.09,0.91,0.61,-0.26,-0.53,
0.736,-0.04,0.08,0.92,0.61,-0.26,-0.53,
0.739,-0.04,0.07,0.91,0.61,-0.26,-0.53,
0.739,-0.04,0.07,0.91,0.57,-0.34,-0.64,
0.741,-0.04,0.06,0.92,0.57,-0.34,-0.64,
0.744,-0.04,0.05,0.92,0.57,-0.34,-0.64,
0.744,-0.04,0.05,0.92,0.51,-0.46,-0.63,
0.747,-0.04,0.05,0.92,0.51,-0.46,-0.63,
0.749,-0.05,0.05,0.92,0.51,-0.46,-0.63,
0.749,-0.05,0.05,0.92,0.52,-0.63,-0.60,
0.751,-0.05,0.04,0.92,0.52,-0.63,-0.60,
0.754,-0.05,0.03,0.92,0.52,-0.63,-0.60,
0.754,-0.05,0.03,0.92,0.44,-0.71,-0.58,
0.756,-0.05,0.03,0.93,0.44,-0.71,-0.58,
0.76,-0.06,0.04,0.94,0.44,-0.71,-0.58,
0.76,-0.06,0.04,0.94,0.39,-0.84,-0.53,
0.763,-0.06,0.03,0.94,0.39,-0.84,-0.53,
0.764,-0.06,0.03,0.95,0.39,-0.84,-0.53,
0.765,-0.06,0.03,0.95,0.31,-0.84,-0.41,
0.766,-0.06,0.03,0.96,0.31,-0.84,-0.41,
0.769,-0.06,0.03,0.96,0.25,-0.89,-0.31,
0.769,-0.06,0.03,0.97,0.25,-0.89,-0.31,
0.771,-0.06,0.03,0.97,0.25,-0.89,-0.31,
0.774,-0.06,0.03,0.97,0.25,-0.89,-0.31,
0.774,-0.06,0.03,0.97,0.22,-0.90,-0.13,
0.776,-0.06,0.03,0.97,0.22,-0.90,-0.13,
0.779,-0.05,0.04,0.97,0.22,-0.90,-0.13,
0.78,-0.05,0.04,0.97,0.22,-0.89,-0.09,
0.781,-0.04,0.05,0.96,0.22,-0.89,-0.09,
0.783,-0.03,0.05,0.96,0.22,-0.89,-0.09,
0.784,-0.03,0.05,0.96,0.27,-0.86,-0.04,
0.786,-0.03,0.06,0.96,0.27,-0.86,-0.04,
0.788,-0.03,0.06,0.96,0.27,-0.86,-0.04,
0.789,-0.03,0.06,0.96,0.41,-0.74,-0.14,
0.791,-0.03,0.06,0.95,0.41,-0.74,-0.14,
0.793,-0.03,0.07,0.96,0.41,-0.74,-0.14,
0.796,-0.03,0.07,0.96,0.42,-0.64,-0.17,
0.797,-0.02,0.07,0.96,0.42,-0.64,-0.17,
0.798,-0.01,0.07,0.95,0.42,-0.64,-0.17,
0.798,-0.01,0.07,0.95,0.47,-0.58,-0.21,
0.801,-0.01,0.06,0.95,0.47,-0.58,-0.21,
0.803,0.00,0.06,0.94,0.47,-0.58,-0.21,
0.804,0.00,0.06,0.94,0.57,-0.55,-0.20,
0.806,0.01,0.07,0.93,0.57,-0.55,-0.20,
0.808,0.01,0.06,0.92,0.57,-0.55,-0.20,
0.808,0.01,0.06,0.92,0.66,-0.59,-0.32,
0.811,0.01,0.06,0.91,0.66,-0.59,-0.32,
0.817,0.02,0.06,0.91,0.66,-0.59,-0.32,
0.818,0.02,0.06,0.91,0.75,-0.57,-0.50,
0.818,0.03,0.06,0.91,0.75,-0.57,-0.50,
0.819,0.03,0.06,0.91,0.75,-0.57,-0.50,
0.819,0.03,0.06,0.91,0.85,-0.63,-0.62,
0.822,0.05,0.07,0.92,0.85,-0.63,-0.62,
0.823,0.06,0.07,0.92,0.85,-0.63,-0.62,
0.823,0.06,0.07,0.92,0.97,-0.61,-0.63,
0.826,0.06,0.06,0.93,0.97,-0.61,-0.63,
0.831,0.06,0.06,0.93,1.15,-0.52,-0.54,
0.831,0.07,0.06,0.92,1.15,-0.52,-0.54,
0.831,0.08,0.06,0.91,1.15,-0.52,-0.54,
0.833,0.08,0.05,0.91,1.15,-0.52,-0.54,
0.833,0.08,0.05,0.91,1.25,-0.60,-0.47,
0.836,0.08,0.05,0.90,1.25,-0.60,-0.47,
0.839,0.07,0.06,0.90,1.25,-0.60,-0.47,
0.839,0.07,0.06,0.90,1.39,-0.67,-0.62,
0.841,0.08,0.07,0.90,1.39,-0.67,-0.62,
0.844,0.08,0.08,0.91,1.39,-0.67,-0.62,
0.844,0.08,0.08,0.91,1.34,-0.65,-0.72,
0.845,0.08,0.08,0.92,1.34,-0.65,-0.72,
0.848,0.08,0.08,0.93,1.34,-0.65,-0.72,
0.848,0.08,0.08,0.93,1.35,-0.50,-0.64,
0.851,0.08,0.08,0.94,1.35,-0.50,-0.64,
0.853,0.08,0.09,0.94,1.35,-0.50,-0.64,
0.854,0.08,0.09,0.94,1.34,-0.38,-0.43,
0.856,0.08,0.09,0.94,1.34,-0.38,-0.43,
0.858,0.08,0.09,0.94,1.32,-0.34,-0.31,
0.858,0.09,0.09,0.94,1.32,-0.34,-0.31,
0.86,0.09,0.08,0.95,1.32,-0.34,-0.31,
0.863,0.09,0.08,0.96,1.32,-0.34,-0.31,
0.864,0.09,0.08,0.96,1.34,-0.29,-0.28,
0.865,0.10,0.08,0.96,1.34,-0.29,-0.28,
0.868,0.10,0.08,0.96,1.34,-0.29,-0.28,
0.868,0.10,0.08,0.96,1.36,-0.36,-0.16,
0.87,0.10,0.08,0.95,1.36,-0.36,-0.16,
0.873,0.10,0.08,0.96,1.36,-0.36,-0.16,
0.873,0.10,0.08,0.96,1.42,-0.36,-0.12,
0.875,0.10,0.08,0.96,1.42,-0.36,-0.12,
0.878,0.10,0.08,0.96,1.42,-0.36,-0.12,
0.878,0.10,0.08,0.96,1.40,-0.35,-0.16,
0.88,0.09,0.08,0.95,1.40,-0.35,-0.16,
0.883,0.09,0.08,0.95,1.35,-0.39,-0.13,
0.883,0.09,0.08,0.95,1.35,-0.39,-0.13,
0.886,0.09,0.07,0.93,1.35,-0.39,-0.13,
0.888,0.09,0.07,0.93,1.27,-0.39,-0.22,
0.888,0.09,0.07,0.93,1.27,-0.39,-0.22,
0.89,0.09,0.06,0.92,1.27,-0.39,-0.22,
0.893,0.09,0.07,0.91,1.27,-0.39,-0.22,
0.893,0.09,0.07,0.91,1.26,-0.45,-0.42,
0.896,0.09,0.06,0.90,1.26,-0.45,-0.42,
0.899,0.08,0.06,0.90,1.26,-0.45,-0.42,
0.899,0.08,0.06,0.90,1.20,-0.49,-0.55,
0.9,0.09,0.05,0.90,1.20,-0.49,-0.55,
0.902,0.09,0.05,0.89,1.20,-0.49,-0.55,
0.902,0.09,0.05,0.89,1.16,-0.55,-0.68,
0.905,0.08,0.05,0.89,1.16,-0.55,-0.68,
0.908,0.08,0.06,0.89,1.16,-0.55,-0.68,
0.908,0.08,0.06,0.89,1.19,-0.60,-0.74,
0.91,0.09,0.06,0.89,1.19,-0.60,-0.74,
0.912,0.09,0.06,0.89,1.19,-0.60,-0.74,
0.913,0.09,0.06,0.89,1.11,-0.57,-0.80,
0.915,0.09,0.06,0.90,1.11,-0.57,-0.80,
0.917,0.11,0.06,0.89,1.11,-0.57,-0.80,
0.918,0.11,0.06,0.89,1.14,-0.53,-0.79,
0.92,0.11,0.06,0.89,1.14,-0.53,-0.79,
0.923,0.11,0.06,0.89,1.14,-0.53,-0.79,
0.923,0.11,0.06,0.89,1.23,-0.50,-0.77,
0.925,0.11,0.06,0.90,1.23,-0.50,-0.77,
0.928,0.11,0.06,0.90,1.23,-0.50,-0.77,
0.928,0.11,0.06,0.90,1.29,-0.51,-0.80,
0.931,0.12,0.06,0.90,1.29,-0.51,-0.80,
0.932,0.12,0.06,0.91,1.29,-0.51,-0.80,
0.932,0.12,0.06,0.91,1.30,-0.50,-0.68,
0.935,0.13,0.06,0.91,1.30,-0.50,-0.68,
0.938,0.13,0.06,0.91,1.30,-0.50,-0.68,
0.938,0.13,0.06,0.91,1.37,-0.48,-0.64,
0.94,0.13,0.06,0.91,1.37,-0.48,-0.64,
0.943,0.13,0.06,0.91,1.41,-0.46,-0.56,
0.943,0.14,0.07,0.91,1.41,-0.46,-0.56,
0.945,0.14,0.08,0.92,1.41,-0.46,-0.56,
0.947,0.15,0.08,0.92,1.41,-0.46,-0.56,
0.948,0.15,0.08,0.92,1.41,-0.40,-0.57,
0.95,0.15,0.08,0.91,1.41,-0.40,-0.57,
0.953,0.15,0.08,0.91,1.41,-0.40,-0.57,
0.953,0.15,0.08,0.91,1.49,-0.30,-0.52,
0.955,0.15,0.09,0.92,1.49,-0.30,-0.52,
0.957,0.15,0.09,0.92,1.50,-0.24,-0.57,
0.958,0.15,0.10,0.92,1.50,-0.24,-0.57,
0.96,0.16,0.10,0.92,1.50,-0.24,-0.57,
0.962,0.16,0.11,0.91,1.50,-0.24,-0.57,
0.962,0.16,0.11,0.91,1.49,-0.10,-0.51,
0.964,0.16,0.12,0.91,1.49,-0.10,-0.51,
0.967,0.16,0.12,0.91,1.49,-0.10,-0.51,
0.967,0.16,0.12,0.91,1.53,-0.01,-0.53,
0.97,0.16,0.12,0.91,1.53,-0.01,-0.53,
0.972,0.16,0.12,0.91,1.55,0.10,-0.59,
0.973,0.17,0.12,0.91,1.55,0.10,-0.59,
0.975,0.17,0.13,0.91,1.55,0.10,-0.59,
0.977,0.18,0.13,0.91,1.55,0.10,-0.59,
0.977,0.18,0.13,0.91,1.55,0.17,-0.60,
0.979,0.18,0.13,0.91,1.55,0.17,-0.60,
0.982,0.18,0.13,0.92,1.55,0.17,-0.60,
0.982,0.18,0.13,0.92,1.59,0.23,-0.56,
0.984,0.18,0.13,0.92,1.59,0.23,-0.56,
0.986,0.19,0.13,0.92,1.59,0.23,-0.56,
0.987,0.19,0.13,0.92,1.63,0.22,-0.55,
0.989,0.19,0.12,0.92,1.63,0.22,-0.55,
0.992,0.20,0.13,0.92,1.63,0.22,-0.55,
0.992,0.20,0.13,0.92,1.63,0.27,-0.52,
0.994,0.20,0.12,0.93,1.63,0.27,-0.52,
1.001,0.20,0.12,0.93,1.63,0.27,-0.52,
1.001,0.20,0.12,0.93,1.73,0.23,-0.46,
1.002,0.21,0.12,0.93,1.73,0.23,-0.46,
1.002,0.22,0.12,0.94,1.73,0.23,-0.46,
1.002,0.22,0.12,0.94,1.72,0.18,-0.40,
1.006,0.22,0.12,0.94,1.72,0.18,-0.40,
1.007,0.22,0.12,0.94,1.82,0.16,-0.32,
1.007,0.23,0.12,0.95,1.82,0.16,-0.32,
1.009,0.23,0.12,0.96,1.82,0.16,-0.32,
1.012,0.24,0.12,0.96,1.82,0.16,-0.32,
1.012,0.24,0.12,0.96,1.92,0.23,-0.22,
1.015,0.23,0.11,0.96,1.92,0.23,-0.22,
1.016,0.24,0.11,0.96,1.92,0.23,-0.22,
1.016,0.24,0.11,0.96,1.96,0.23,-0.10,
1.019,0.24,0.11,0.96,1.96,0.23,-0.10,
1.021,0.24,0.11,0.96,1.96,0.23,-0.10,
1.021,0.24,0.11,0.96,1.95,0.18,-0.09,
1.024,0.24,0.11,0.97,1.95,0.18,-0.09,
1.026,0.24,0.10,0.96,1.95,0.18,-0.09,
1.026,0.24,0.10,0.96,1.97,0.18,-0.07,
1.028,0.25,0.10,0.97,1.97,0.18,-0.07,
1.032,0.25,0.10,0.97,1.97,0.18,-0.07,
1.032,0.25,0.10,0.97,1.94,0.16,-0.02,
1.033,0.25,0.10,0.97,1.94,0.16,-0.02,
1.036,0.25,0.10,0.97,1.94,0.16,-0.02,
1.036,0.25,0.10,0.97,1.96,0.06,-0.02,
1.038,0.25,0.10,0.97,1.96,0.06,-0.02,
1.041,0.25,0.10,0.98,1.96,0.06,-0.02,
1.041,0.25,0.10,0.98,1.93,0.06,0.01,
1.043,0.25,0.10,0.98,1.93,0.06,0.01,
1.047,0.24,0.10,0.98,1.93,0.06,0.01,
1.048,0.24,0.10,0.98,1.90,0.08,0.06,
1.049,0.24,0.10,0.99,1.90,0.08,0.06,
1.051,0.23,0.10,1.00,1.90,0.08,0.06,
1.051,0.23,0.10,1.00,1.85,0.12,0.14,
1.053,0.23,0.10,0.99,1.85,0.12,0.14,
1.056,0.23,0.10,0.99,1.74,0.14,0.23,
1.056,0.22,0.10,1.00,1.74,0.14,0.23,
1.058,0.21,0.10,1.01,1.74,0.14,0.23,
1.061,0.21,0.10,1.01,1.74,0.14,0.23,
1.061,0.21,0.10,1.01,1.58,0.12,0.27,
1.064,0.22,0.10,1.01,1.58,0.12,0.27,
1.066,0.21,0.10,1.01,1.58,0.12,0.27,
1.066,0.21,0.10,1.01,1.45,0.15,0.37,
1.068,0.21,0.11,1.01,1.45,0.15,0.37,
1.071,0.21,0.11,1.01,1.45,0.15,0.37,
1.072,0.21,0.11,1.01,1.43,0.22,0.40,
1.073,0.20,0.12,1.01,1.43,0.22,0.40,
1.076,0.20,0.12,1.01,1.43,0.22,0.40,
1.076,0.20,0.12,1.01,1.38,0.32,0.42,
1.078,0.20,0.12,1.02,1.38,0.32,0.42,
1.081,0.20,0.13,1.02,1.38,0.32,0.42,
1.082,0.20,0.13,1.02,1.28,0.39,0.44,
1.083,0.20,0.14,1.02,1.28,0.39,0.44,
1.085,0.20,0.14,1.02,1.28,0.39,0.44,
1.086,0.20,0.14,1.02,1.26,0.51,0.47,
1.088,0.21,0.14,1.02,1.26,0.51,0.47,
1.09,0.21,0.15,1.02,1.26,0.51,0.47,
1.09,0.21,0.15,1.02,1.20,0.64,0.48,
1.093,0.21,0.15,1.01,1.20,0.64,0.48,
1.095,0.21,0.15,1.01,1.20,0.64,0.48,
1.095,0.21,0.15,1.01,1.27,0.70,0.48,
1.099,0.21,0.15,1.01,1.27,0.70,0.48,
1.1,0.22,0.15,1.02,1.27,0.70,0.48,
1.101,0.22,0.15,1.02,1.30,0.80,0.38,
1.103,0.22,0.16,1.02,1.30,0.80,0.38,
1.105,0.22,0.16,1.02,1.31,0.83,0.43,
1.106,0.23,0.15,1.02,1.31,0.83,0.43,
1.108,0.23,0.15,1.02,1.31,0.83,0.43,
1.11,0.23,0.14,1.02,1.31,0.83,0.43,
1.11,0.23,0.14,1.02,1.42,0.84,0.45,
1.113,0.24,0.14,1.02,1.42,0.84,0.45,
1.118,0.24,0.14,1.03,1.42,0.84,0.45,
1.119,0.24,0.14,1.03,1.47,0.76,0.47,
1.119,0.25,0.14,1.03,1.47,0.76,0.47,
1.12,0.25,0.13,1.03,1.47,0.76,0.47,
1.12,0.25,0.13,1.03,1.54,0.75,0.54,
1.123,0.26,0.13,1.03,1.54,0.75,0.54,
1.126,0.26,0.12,1.04,1.54,0.75,0.54,
1.126,0.26,0.12,1.04,1.61,0.71,0.59,
1.127,0.26,0.12,1.03,1.61,0.71,0.59,
1.131,0.26,0.11,1.04,1.61,0.71,0.59,
1.132,0.26,0.11,1.04,1.65,0.62,0.61,
1.133,0.27,0.10,1.04,1.65,0.62,0.61,
1.135,0.27,0.09,1.04,1.65,0.62,0.61,
1.135,0.27,0.09,1.04,1.67,0.52,0.64,
1.137,0.27,0.09,1.04,1.67,0.52,0.64,
1.14,0.27,0.09,1.04,1.67,0.52,0.64,
1.14,0.27,0.09,1.04,1.69,0.38,0.66,
1.142,0.27,0.08,1.04,1.69,0.38,0.66,
1.145,0.27,0.08,1.05,1.69,0.38,0.66,
1.145,0.27,0.08,1.05,1.70,0.31,0.71,
1.149,0.27,0.07,1.05,1.70,0.31,0.71,
1.15,0.26,0.06,1.06,1.70,0.31,0.71,
1.153,0.26,0.06,1.06,1.71,0.24,0.73,
1.154,0.26,0.07,1.06,1.71,0.24,0.73,
1.155,0.25,0.06,1.06,1.71,0.24,0.73,
1.155,0.25,0.06,1.06,1.63,0.13,0.80,
1.157,0.25,0.06,1.06,1.63,0.13,0.80,
1.16,0.24,0.07,1.07,1.63,0.13,0.80,
1.16,0.24,0.07,1.07,1.50,0.10,0.87,
1.163,0.24,0.07,1.06,1.50,0.10,0.87,
1.165,0.23,0.07,1.07,1.50,0.10,0.87,
1.166,0.23,0.07,1.07,1.37,0.14,0.90,
1.168,0.23,0.07,1.07,1.37,0.14,0.90,
1.17,0.23,0.07,1.07,1.37,0.14,0.90,
1.17,0.23,0.07,1.07,1.21,0.15,0.93,
1.175,0.23,0.07,1.06,1.21,0.15,0.93,
1.175,0.23,0.08,1.06,1.21,0.15,0.93,
1.175,0.23,0.08,1.06,1.16,0.17,0.93,
1.177,0.23,0.08,1.06,1.16,0.17,0.93,
1.18,0.23,0.08,1.06,1.17,0.26,0.88,
1.18,0.23,0.08,1.06,1.17,0.26,0.88,
1.182,0.23,0.08,1.06,1.17,0.26,0.88,
1.185,0.23,0.08,1.07,1.17,0.26,0.88,
1.185,0.23,0.08,1.07,1.12,0.32,0.83,
1.188,0.23,0.09,1.07,1.12,0.32,0.83,
1.19,0.23,0.09,1.06,1.12,0.32,0.83,
1.19,0.23,0.09,1.06,1.12,0.34,0.91,
1.193,0.24,0.09,1.07,1.12,0.34,0.91,
1.195,0.25,0.09,1.07,1.12,0.34,0.91,
1.195,0.25,0.09,1.07,1.14,0.41,0.90,
1.197,0.25,0.09,1.06,1.14,0.41,0.90,
1.202,0.26,0.10,1.06,1.14,0.41,0.90,
1.202,0.26,0.10,1.06,1.26,0.46,0.93,
1.203,0.26,0.09,1.06,1.26,0.46,0.93,
1.204,0.26,0.09,1.06,1.33,0.48,0.87,
1.205,0.27,0.09,1.07,1.33,0.48,0.87,
1.207,0.28,0.09,1.07,1.33,0.48,0.87,
1.21,0.28,0.09,1.07,1.33,0.48,0.87,
1.21,0.28,0.09,1.07,1.43,0.49,0.88,
1.212,0.29,0.09,1.07,1.43,0.49,0.88,
1.215,0.30,0.08,1.06,1.43,0.49,0.88,
1.216,0.30,0.08,1.06,1.55,0.47,0.90,
1.217,0.30,0.08,1.06,1.55,0.47,0.90,
1.22,0.30,0.08,1.06,1.55,0.47,0.90,
1.22,0.30,0.08,1.06,1.66,0.45,0.88,
1.222,0.30,0.08,1.07,1.66,0.45,0.88,
1.225,0.30,0.08,1.07,1.66,0.45,0.88,
1.225,0.30,0.08,1.07,1.72,0.40,0.85,
1.227,0.30,0.08,1.07,1.72,0.40,0.85,
1.23,0.30,0.07,1.07,1.72,0.40,0.85,
1.23,0.30,0.07,1.07,1.73,0.38,0.93,
1.232,0.31,0.07,1.07,1.73,0.38,0.93,
1.234,0.31,0.07,1.07,1.73,0.38,0.93,
1.234,0.31,0.07,1.07,1.73,0.36,0.96,
1.237,0.30,0.07,1.08,1.73,0.36,0.96,
1.24,0.30,0.06,1.07,1.73,0.36,0.96,
1.24,0.30,0.06,1.07,1.76,0.32,0.96,
1.242,0.29,0.06,1.08,1.76,0.32,0.96,
1.245,0.29,0.06,1.07,1.76,0.32,0.96,
1.245,0.29,0.06,1.07,1.71,0.29,0.99,
1.247,0.28,0.05,1.07,1.71,0.29,0.99,
1.249,0.27,0.05,1.07,1.71,0.29,0.99,
1.249,0.27,0.05,1.07,1.61,0.22,0.98,
1.252,0.27,0.05,1.07,1.61,0.22,0.98,
1.254,0.26,0.05,1.07,1.61,0.22,0.98,
1.255,0.26,0.05,1.07,1.47,0.17,0.95,
1.257,0.25,0.06,1.07,1.47,0.17,0.95,
1.259,0.25,0.06,1.06,1.47,0.17,0.95,
1.26,0.25,0.06,1.06,1.36,0.21,0.91,
1.262,0.25,0.06,1.06,1.36,0.21,0.91,
1.264,0.24,0.07,1.06,1.36,0.21,0.91,
1.265,0.24,0.07,1.06,1.22,0.27,0.88,
1.266,0.23,0.07,1.06,1.22,0.27,0.88,
1.269,0.23,0.08,1.05,1.22,0.27,0.88,
1.27,0.23,0.08,1.05,1.12,0.32,0.81,
1.272,0.22,0.09,1.05,1.12,0.32,0.81,
1.274,0.22,0.09,1.04,1.12,0.32,0.81,
1.274,0.22,0.09,1.04,1.00,0.46,0.75,
1.277,0.22,0.10,1.04,1.00,0.46,0.75,
1.279,0.22,0.10,1.03,1.00,0.46,0.75,
1.279,0.22,0.10,1.03,0.89,0.56,0.66,
1.282,0.22,0.10,1.02,0.89,0.56,0.66,
1.284,0.22,0.10,1.02,0.89,0.56,0.66,
1.284,0.22,0.10,1.02,0.92,0.66,0.58,
1.286,0.23,0.10,1.01,0.92,0.66,0.58,
1.288,0.23,0.10,1.00,0.92,0.66,0.58,
1.288,0.23,0.10,1.00,0.89,0.65,0.43,
1.291,0.23,0.10,1.00,0.89,0.65,0.43,
1.293,0.23,0.10,1.00,0.89,0.65,0.43,
1.294,0.23,0.10,1.00,0.97,0.69,0.29,
1.296,0.23,0.09,1.00,0.97,0.69,0.29,
1.299,0.23,0.09,0.99,0.97,0.69,0.29,
1.3,0.23,0.09,0.99,1.01,0.69,0.20,
1.301,0.23,0.08,0.99,1.01,0.69,0.20,
1.303,0.24,0.08,0.98,1.01,0.69,0.20,
1.303,0.24,0.08,0.98,1.01,0.59,0.17,
1.306,0.24,0.07,0.97,1.01,0.59,0.17,
1.308,0.24,0.07,0.97,1.03,0.52,0.09,
1.308,0.23,0.07,0.97,1.03,0.52,0.09,
1.311,0.24,0.07,0.97,1.03,0.52,0.09,
1.313,0.23,0.06,0.97,1.03,0.52,0.09,
1.313,0.23,0.06,0.97,1.05,0.42,-0.06,
1.321,0.23,0.05,0.97,1.05,0.42,-0.06,
1.321,0.24,0.05,0.96,1.05,0.42,-0.06,
1.321,0.24,0.05,0.96,1.05,0.37,-0.09,
1.321,0.23,0.04,0.97,1.05,0.37,-0.09,
1.324,0.23,0.04,0.96,1.05,0.37,-0.09,
1.324,0.23,0.04,0.96,1.05,0.27,-0.12,
1.326,0.23,0.03,0.96,1.05,0.27,-0.12,
1.329,0.22,0.03,0.97,1.05,0.27,-0.12,
1.329,0.22,0.03,0.97,1.01,0.15,-0.10,
1.331,0.22,0.02,0.97,1.01,0.15,-0.10,
1.334,0.22,0.02,0.97,1.01,0.15,-0.10,
1.335,0.22,0.02,0.97,0.95,0.07,-0.15,
1.335,0.22,0.01,0.97,0.95,0.07,-0.15,
1.338,0.21,0.00,0.98,0.95,0.07,-0.15,
1.338,0.21,0.00,0.98,0.93,-0.02,-0.11,
1.34,0.21,-0.00,0.98,0.93,-0.02,-0.11,
1.343,0.21,-0.01,0.99,0.93,-0.02,-0.11,
1.343,0.21,-0.01,0.99,0.89,-0.14,-0.01,
1.345,0.21,-0.01,0.99,0.89,-0.14,-0.01,
1.349,0.21,-0.02,1.01,0.89,-0.14,-0.01,
1.35,0.21,-0.02,1.01,0.82,-0.24,0.07,
1.351,0.21,-0.02,1.01,0.82,-0.24,0.07,
1.353,0.21,-0.02,1.01,0.78,-0.34,0.21,
1.353,0.21,-0.02,1.02,0.78,-0.34,0.21,
1.355,0.21,-0.02,1.02,0.78,-0.34,0.21,
1.358,0.21,-0.02,1.02,0.78,-0.34,0.21,
1.358,0.21,-0.02,1.02,0.78,-0.33,0.36,
1.36,0.21,-0.02,1.03,0.78,-0.33,0.36,
1.363,0.21,-0.01,1.03,0.78,-0.33,0.36,
1.363,0.21,-0.01,1.03,0.81,-0.34,0.42,
1.366,0.21,-0.01,1.03,0.81,-0.34,0.42,
1.368,0.21,-0.00,1.03,0.81,-0.34,0.42,
1.368,0.21,-0.00,1.03,0.79,-0.31,0.51,
1.37,0.21,0.00,1.03,0.79,-0.31,0.51,
1.373,0.21,0.01,1.03,0.79,-0.31,0.51,
1.373,0.21,0.01,1.03,0.81,-0.20,0.49,
1.375,0.21,0.02,1.03,0.81,-0.20,0.49,
1.377,0.21,0.03,1.03,0.81,-0.20,0.49,
1.378,0.21,0.03,1.03,0.80,-0.05,0.51,
1.38,0.21,0.04,1.03,0.80,-0.05,0.51,
1.383,0.21,0.04,1.02,0.80,-0.05,0.51,
1.384,0.21,0.04,1.02,0.78,0.09,0.50,
1.385,0.20,0.04,1.02,0.78,0.09,0.50,
1.388,0.20,0.05,1.01,0.78,0.09,0.50,
1.388,0.20,0.05,1.01,0.78,0.26,0.42,
1.39,0.20,0.06,1.00,0.78,0.26,0.42,
1.393,0.19,0.06,1.00,0.78,0.26,0.42,
1.393,0.19,0.06,1.00,0.68,0.33,0.32,
1.395,0.19,0.07,0.99,0.68,0.33,0.32,
1.403,0.19,0.07,0.98,0.68,0.33,0.32,
1.404,0.19,0.07,0.98,0.62,0.46,0.19,
1.404,0.20,0.07,0.98,0.62,0.46,0.19,
1.404,0.20,0.07,0.98,0.58,0.52,0.05,
1.405,0.20,0.07,0.98,0.58,0.52,0.05,
1.405,0.19,0.07,0.98,0.58,0.52,0.05,
1.407,0.18,0.07,0.99,0.58,0.52,0.05,
1.407,0.18,0.07,0.99,0.62,0.51,-0.03,
1.41,0.18,0.07,0.99,0.62,0.51,-0.03,
1.412,0.19,0.06,1.00,0.62,0.51,-0.03,
1.412,0.19,0.06,1.00,0.51,0.55,0.04,
1.416,0.21,0.05,1.00,0.51,0.55,0.04,
1.418,0.23,0.03,0.98,0.51,0.55,0.04,
1.418,0.23,0.03,0.98,0.55,0.50,0.16,
1.42,0.23,0.02,0.97,0.55,0.50,0.16,
1.423,0.24,0.02,0.96,0.55,0.50,0.16,
1.423,0.24,0.02,0.96,0.80,0.25,0.10,
1.425,0.23,0.02,0.97,0.80,0.25,0.10,
1.427,0.23,0.02,0.97,1.00,0.10,-0.13,
1.427,0.22,0.02,0.97,1.00,0.10,-0.13,
1.429,0.21,0.03,0.98,1.00,0.10,-0.13,
1.433,0.20,0.03,0.99,1.00,0.10,-0.13,
1.433,0.20,0.03,0.99,0.91,0.10,-0.10,
1.434,0.19,0.04,1.00,0.91,0.10,-0.10,
1.437,0.18,0.04,1.01,0.91,0.10,-0.10,
1.437,0.18,0.04,1.01,0.65,0.21,0.09,
1.439,0.17,0.04,1.02,0.65,0.21,0.09,
1.442,0.17,0.03,1.02,0.65,0.21,0.09,
1.442,0.17,0.03,1.02,0.45,0.28,0.30,
1.444,0.18,0.02,1.02,0.45,0.28,0.30,
1.447,0.18,0.01,1.03,0.45,0.28,0.30,
1.448,0.18,0.01,1.03,0.35,0.24,0.40,
1.451,0.18,0.00,1.02,0.35,0.24,0.40,
1.452,0.18,-0.00,1.02,0.35,0.24,0.40,
1.452,0.18,-0.00,1.02,0.40,0.06,0.42,
1.454,0.18,-0.01,1.03,0.40,0.06,0.42,
1.457,0.17,-0.00,1.04,0.40,0.06,0.42,
1.457,0.17,-0.00,1.04,0.42,-0.07,0.42,
1.459,0.16,0.00,1.04,0.42,-0.07,0.42,
1.462,0.14,0.00,1.05,0.42,-0.07,0.42,
1.462,0.14,0.00,1.05,0.33,-0.12,0.54,
1.464,0.13,0.01,1.05,0.33,-0.12,0.54,
1.468,0.12,0.02,1.06,0.33,-0.12,0.54,
1.468,0.12,0.02,1.06,0.13,-0.04,0.59,
1.469,0.12,0.03,1.06,0.13,-0.04,0.59,
1.472,0.12,0.03,1.06,-0.10,0.07,0.74,
1.472,0.12,0.03,1.07,-0.10,0.07,0.74,
1.474,0.11,0.03,1.07,-0.10,0.07,0.74,
1.476,0.11,0.04,1.07,-0.10,0.07,0.74,
1.477,0.11,0.04,1.07,-0.20,0.22,0.82,
1.479,0.12,0.04,1.07,-0.20,0.22,0.82,
1.482,0.12,0.04,1.07,-0.20,0.22,0.82,
1.482,0.12,0.04,1.07,-0.25,0.30,0.88,
1.484,0.13,0.04,1.07,-0.25,0.30,0.88,
1.486,0.13,0.04,1.07,-0.25,0.30,0.88,
1.487,0.13,0.04,1.07,-0.18,0.34,0.84,
1.489,0.14,0.04,1.06,-0.18,0.34,0.84,
1.491,0.14,0.04,1.06,-0.18,0.34,0.84,
1.492,0.14,0.04,1.06,-0.09,0.32,0.81,
1.494,0.15,0.04,1.07,-0.09,0.32,0.81,
1.496,0.15,0.04,1.07,-0.09,0.32,0.81,
1.496,0.15,0.04,1.07,0.04,0.33,0.75,
1.505,0.16,0.04,1.07,0.04,0.33,0.75,
1.506,0.15,0.04,1.07,0.04,0.33,0.75,
1.506,0.15,0.04,1.07,0.13,0.35,0.78,
1.506,0.15,0.03,1.07,0.13,0.35,0.78,
1.509,0.16,0.03,1.07,0.13,0.35,0.78,
1.509,0.16,0.03,1.07,0.16,0.35,0.82,
1.51,0.16,0.03,1.07,0.16,0.35,0.82,
1.512,0.15,0.02,1.08,0.16,0.35,0.82,
1.512,0.15,0.02,1.08,0.17,0.26,0.83,
1.514,0.15,0.01,1.07,0.17,0.26,0.83,
1.518,0.15,0.00,1.07,0.17,0.26,0.83,
1.519,0.15,0.00,1.07,0.15,0.16,0.86,
1.519,0.14,-0.01,1.07,0.15,0.16,0.86,
1.521,0.14,-0.01,1.07,0.10,0.03,0.79,
1.522,0.14,-0.02,1.07,0.10,0.03,0.79,
1.524,0.14,-0.03,1.06,0.10,0.03,0.79,
1.526,0.14,-0.03,1.06,0.10,0.03,0.79,
1.527,0.14,-0.03,1.06,0.01,-0.18,0.76,
1.529,0.13,-0.04,1.05,0.01,-0.18,0.76,
1.531,0.13,-0.04,1.04,0.01,-0.18,0.76,
1.531,0.13,-0.04,1.04,0.01,-0.33,0.69,
1.533,0.12,-0.05,1.03,0.01,-0.33,0.69,
1.536,0.11,-0.06,1.02,0.01,-0.33,0.69,
1.537,0.11,-0.06,1.02,-0.07,-0.45,0.49,
1.539,0.11,-0.06,1.02,-0.07,-0.45,0.49,
1.542,0.10,-0.07,1.01,-0.07,-0.45,0.49,
1.542,0.10,-0.07,1.01,-0.21,-0.58,0.34,
1.544,0.10,-0.08,1.00,-0.21,-0.58,0.34,
1.546,0.09,-0.08,1.00,-0.21,-0.58,0.34,
1.546,0.09,-0.08,1.00,-0.28,-0.71,0.21,
1.549,0.09,-0.09,0.99,-0.28,-0.71,0.21,
1.551,0.09,-0.09,0.99,-0.37,-0.82,0.07,
1.551,0.08,-0.09,0.98,-0.37,-0.82,0.07,
1.554,0.07,-0.09,0.98,-0.37,-0.82,0.07,
1.557,0.06,-0.09,0.97,-0.37,-0.82,0.07,
1.557,0.06,-0.09,0.97,-0.49,-0.90,-0.04,
1.559,0.06,-0.08,0.96,-0.49,-0.90,-0.04,
1.561,0.06,-0.08,0.96,-0.49,-0.90,-0.04,
1.562,0.06,-0.08,0.96,-0.64,-0.92,-0.19,
1.564,0.06,-0.08,0.96,-0.64,-0.92,-0.19,
1.568,0.05,-0.08,0.97,-0.64,-0.92,-0.19,
1.568,0.05,-0.08,0.97,-0.70,-0.89,-0.28,
1.569,0.05,-0.07,0.97,-0.70,-0.89,-0.28,
1.572,0.05,-0.06,0.97,-0.70,-0.89,-0.28,
1.572,0.05,-0.06,0.97,-0.73,-0.83,-0.27,
1.574,0.05,-0.05,0.98,-0.73,-0.83,-0.27,
1.576,0.05,-0.04,0.99,-0.73,-0.83,-0.27,
1.577,0.05,-0.04,0.99,-0.78,-0.71,-0.23,
1.579,0.05,-0.02,0.99,-0.78,-0.71,-0.23,
1.581,0.06,-0.01,1.00,-0.78,-0.71,-0.23,
1.581,0.06,-0.01,1.00,-0.79,-0.50,-0.11,
1.584,0.06,-0.00,1.00,-0.79,-0.50,-0.11,
1.586,0.07,0.01,1.01,-0.79,-0.50,-0.11,
1.586,0.07,0.01,1.01,-0.75,-0.27,0.04,
1.589,0.08,0.02,1.01,-0.75,-0.27,0.04,
1.591,0.09,0.03,1.02,-0.75,-0.27,0.04,
1.592,0.09,0.03,1.02,-0.64,-0.05,0.12,
1.594,0.09,0.04,1.02,-0.64,-0.05,0.12,
1.596,0.10,0.04,1.01,-0.64,-0.05,0.12,
1.596,0.10,0.04,1.01,-0.47,0.15,0.23,
1.599,0.11,0.04,1.02,-0.47,0.15,0.23,
1.601,0.11,0.05,1.02,-0.47,0.15,0.23,
1.602,0.11,0.05,1.02,-0.33,0.28,0.23,
1.603,0.12,0.05,1.02,-0.33,0.28,0.23,
1.606,0.12,0.05,1.02,-0.33,0.28,0.23,
1.606,0.12,0.05,1.02,-0.20,0.33,0.27,
1.608,0.13,0.05,1.02,-0.20,0.33,0.27,
1.611,0.13,0.05,1.03,-0.20,0.33,0.27,
1.611,0.13,0.05,1.03,-0.14,0.38,0.26,
1.614,0.13,0.06,1.03,-0.14,0.38,0.26,
1.616,0.13,0.06,1.05,-0.14,0.38,0.26,
1.616,0.13,0.06,1.05,-0.02,0.35,0.31,
1.622,0.13,0.05,1.05,-0.02,0.35,0.31,
1.623,0.13,0.04,1.06,-0.02,0.35,0.31,
1.623,0.13,0.04,1.06,-0.09,0.43,0.48,
1.623,0.14,0.04,1.06,-0.09,0.43,0.48,
1.625,0.14,0.04,1.06,-0.03,0.32,0.63,
1.625,0.15,0.02,1.05,-0.03,0.32,0.63,
1.628,0.16,0.01,1.04,-0.03,0.32,0.63,
1.631,0.16,-0.00,1.03,-0.03,0.32,0.63,
1.631,0.16,-0.00,1.03,0.14,0.14,0.61,
1.636,0.15,-0.00,1.03,0.14,0.14,0.61,
1.636,0.14,-0.00,1.03,0.14,0.14,0.61,
1.637,0.14,-0.00,1.03,0.24,-0.13,0.41,
1.637,0.13,-0.00,1.03,0.24,-0.13,0.41,
1.64,0.11,-0.00,1.04,0.24,-0.13,0.41,
1.641,0.11,-0.00,1.04,0.12,-0.19,0.38,
1.643,0.11,-0.00,1.04,0.12,-0.19,0.38,
1.645,0.10,-0.01,1.03,0.12,-0.19,0.38,
1.647,0.10,-0.01,1.03,-0.13,-0.20,0.42,
1.647,0.10,-0.01,1.02,-0.13,-0.20,0.42,
1.653,0.10,-0.02,1.03,-0.13,-0.20,0.42,
1.653,0.10,-0.02,1.03,-0.30,-0.22,0.42,
1.654,0.09,-0.02,1.03,-0.30,-0.22,0.42,
1.655,0.10,-0.03,1.02,-0.30,-0.22,0.42,
1.656,0.10,-0.03,1.02,-0.33,-0.33,0.35,
1.658,0.09,-0.03,1.02,-0.33,-0.33,0.35,
1.66,0.09,-0.03,1.01,-0.33,-0.33,0.35,
1.66,0.09,-0.03,1.01,-0.38,-0.46,0.32,
1.662,0.08,-0.03,1.01,-0.38,-0.46,0.32,
1.666,0.08,-0.02,1.01,-0.38,-0.46,0.32,
1.667,0.08,-0.02,1.01,-0.44,-0.50,0.22,
1.669,0.07,-0.02,1.00,-0.44,-0.50,0.22,
1.67,0.06,-0.01,1.00,-0.44,-0.50,0.22,
1.67,0.06,-0.01,1.00,-0.52,-0.50,0.19,
1.672,0.05,-0.01,1.00,-0.52,-0.50,0.19,
1.675,0.05,-0.01,1.00,-0.69,-0.43,0.10,
1.675,0.04,-0.01,0.99,-0.69,-0.43,0.10,
1.677,0.05,-0.00,0.98,-0.69,-0.43,0.10,
1.68,0.04,0.01,0.97,-0.69,-0.43,0.10,
1.68,0.04,0.01,0.97,-0.86,-0.40,0.00,
1.682,0.04,0.00,0.97,-0.86,-0.40,0.00,
1.686,0.04,0.00,0.95,-0.86,-0.40,0.00,
1.686,0.04,0.00,0.95,-0.88,-0.32,-0.15,
1.687,0.04,0.00,0.95,-0.88,-0.32,-0.15,
1.689,0.04,0.01,0.95,-0.88,-0.32,-0.15,
1.69,0.04,0.01,0.95,-0.94,-0.33,-0.31,
1.692,0.04,0.01,0.94,-0.94,-0.33,-0.31,
1.694,0.04,0.01,0.93,-0.94,-0.33,-0.31,
1.695,0.04,0.01,0.93,-0.97,-0.37,-0.43,
1.697,0.03,0.01,0.93,-0.97,-0.37,-0.43,
1.7,0.02,0.01,0.95,-0.97,-0.37,-0.43,
1.7,0.02,0.01,0.95,-0.96,-0.36,-0.57,
1.703,0.02,0.02,0.96,-0.96,-0.36,-0.57,
1.704,0.03,0.02,0.96,-0.96,-0.36,-0.57,
1.704,0.03,0.02,0.96,-1.09,-0.35,-0.52,
1.707,0.04,0.01,0.97,-1.09,-0.35,-0.52,
1.709,0.06,0.00,0.97,-1.09,-0.35,-0.52,
1.71,0.06,0.00,0.97,-1.14,-0.30,-0.28,
1.712,0.07,-0.01,0.95,-1.14,-0.30,-0.28,
1.714,0.08,-0.02,0.94,-1.14,-0.30,-0.28,
1.715,0.08,-0.02,0.94,-0.91,-0.46,-0.21,
1.722,0.09,-0.02,0.94,-0.91,-0.46,-0.21,
1.723,0.08,-0.01,0.94,-0.91,-0.46,-0.21,
1.723,0.08,-0.01,0.94,-0.63,-0.67,-0.42,
1.724,0.08,-0.01,0.94,-0.63,-0.67,-0.42,
1.727,0.08,0.00,0.94,-0.63,-0.67,-0.42,
1.727,0.08,0.00,0.94,-0.55,-0.71,-0.50,
1.727,0.08,0.01,0.94,-0.55,-0.71,-0.50,
1.73,0.08,0.01,0.94,-0.55,-0.71,-0.50,
1.73,0.08,0.01,0.94,-0.59,-0.60,-0.51,
1.732,0.08,0.02,0.93,-0.59,-0.60,-0.51,
1.735,0.07,0.02,0.92,-0.59,-0.60,-0.51,
1.735,0.07,0.02,0.92,-0.58,-0.46,-0.50,
1.738,0.07,0.02,0.93,-0.58,-0.46,-0.50,
1.739,0.07,0.02,0.93,-0.58,-0.46,-0.50,
1.74,0.07,0.02,0.93,-0.60,-0.41,-0.63,
1.742,0.06,0.02,0.93,-0.60,-0.41,-0.63,
1.744,0.06,0.01,0.93,-0.60,-0.41,-0.63,
1.744,0.06,0.01,0.93,-0.66,-0.43,-0.56,
1.746,0.06,0.00,0.93,-0.66,-0.43,-0.56,
1.749,0.07,-0.00,0.94,-0.66,-0.43,-0.56,
1.753,0.07,-0.00,0.94,-0.73,-0.45,-0.56,
1.754,0.08,-0.00,0.94,-0.73,-0.45,-0.56,
1.754,0.09,-0.01,0.95,-0.73,-0.45,-0.56,
1.755,0.09,-0.01,0.95,-0.64,-0.55,-0.53,
1.756,0.09,-0.01,0.95,-0.64,-0.55,-0.53,
1.759,0.09,-0.00,0.96,-0.64,-0.55,-0.53,
1.76,0.09,-0.00,0.96,-0.50,-0.61,-0.43,
1.761,0.09,-0.00,0.96,-0.50,-0.61,-0.43,
1.764,0.09,0.00,0.96,-0.50,-0.61,-0.43,
1.765,0.09,0.00,0.96,-0.39,-0.58,-0.32,
1.766,0.08,0.01,0.97,-0.39,-0.58,-0.32,
1.77,0.08,0.01,0.97,-0.39,-0.58,-0.32,
1.771,0.08,0.01,0.97,-0.38,-0.54,-0.28,
1.771,0.08,0.02,0.97,-0.38,-0.54,-0.28,
1.774,0.08,0.02,0.97,-0.38,-0.54,-0.28,
1.775,0.08,0.02,0.97,-0.45,-0.44,-0.22,
1.776,0.08,0.02,0.96,-0.45,-0.44,-0.22,
1.779,0.08,0.03,0.96,-0.45,-0.44,-0.22,
1.78,0.08,0.03,0.96,-0.47,-0.33,-0.21,
1.781,0.07,0.03,0.96,-0.47,-0.33,-0.21,
1.787,0.07,0.03,0.95,-0.47,-0.33,-0.21,
1.787,0.07,0.03,0.95,-0.45,-0.29,-0.26,
1.788,0.06,0.03,0.94,-0.45,-0.29,-0.26,
1.79,0.06,0.03,0.95,-0.45,-0.29,-0.26,
1.79,0.06,0.03,0.95,-0.51,-0.22,-0.33,
1.791,0.06,0.03,0.94,-0.51,-0.22,-0.33,
1.794,0.06,0.03,0.93,-0.51,-0.22,-0.33,
1.794,0.06,0.03,0.93,-0.54,-0.19,-0.46,
1.797,0.06,0.03,0.93,-0.54,-0.19,-0.46,
1.8,0.06,0.03,0.93,-0.57,-0.19,-0.54,
1.8,0.06,0.03,0.93,-0.57,-0.19,-0.54,
1.806,0.06,0.02,0.92,-0.57,-0.19,-0.54,
1.807,0.06,0.02,0.92,-0.57,-0.19,-0.54,
1.807,0.06,0.02,0.92,-0.58,-0.24,-0.60,
1.807,0.06,0.01,0.93,-0.58,-0.24,-0.60,
1.811,0.06,0.01,0.93,-0.58,-0.24,-0.60,
1.811,0.06,0.01,0.93,-0.57,-0.32,-0.65,
1.815,0.07,0.01,0.92,-0.57,-0.32,-0.65,
1.816,0.07,0.01,0.93,-0.57,-0.32,-0.65,
1.817,0.07,0.01,0.93,-0.52,-0.38,-0.60,
1.817,0.06,0.01,0.92,-0.52,-0.38,-0.60,
1.826,0.06,0.01,0.92,-0.47,-0.39,-0.64,
1.826,0.07,-0.00,0.93,-0.47,-0.39,-0.64,
1.827,0.07,-0.00,0.94,-0.47,-0.39,-0.64,
1.827,0.07,-0.01,0.94,-0.47,-0.39,-0.64,
1.827,0.07,-0.01,0.94,-0.49,-0.46,-0.61,
1.828,0.08,-0.01,0.94,-0.49,-0.46,-0.61,
1.829,0.08,-0.01,0.94,-0.49,-0.46,-0.61,
1.829,0.08,-0.01,0.94,-0.45,-0.51,-0.52,
1.831,0.08,-0.01,0.95,-0.45,-0.51,-0.52,
1.833,0.08,-0.02,0.95,-0.45,-0.51,-0.52,
1.834,0.08,-0.02,0.95,-0.36,-0.60,-0.48,
1.836,0.08,-0.02,0.95,-0.36,-0.60,-0.48,
1.839,0.08,-0.02,0.95,-0.36,-0.60,-0.48,
1.839,0.08,-0.02,0.95,-0.35,-0.62,-0.39,
1.841,0.08,-0.03,0.96,-0.35,-0.62,-0.39,
1.844,0.08,-0.03,0.96,-0.35,-0.62,-0.39,
1.844,0.08,-0.03,0.96,-0.34,-0.65,-0.38,
1.846,0.08,-0.03,0.96,-0.34,-0.65,-0.38,
1.85,0.08,-0.03,0.96,-0.34,-0.65,-0.38,
1.85,0.08,-0.03,0.96,-0.32,-0.74,-0.29,
1.852,0.08,-0.03,0.97,-0.32,-0.74,-0.29,
1.853,0.08,-0.03,0.97,-0.32,-0.74,-0.29,
1.853,0.08,-0.03,0.97,-0.33,-0.68,-0.24,
1.856,0.08,-0.02,0.98,-0.33,-0.68,-0.24,
1.858,0.07,-0.02,0.98,-0.33,-0.68,-0.24,
1.858,0.07,-0.02,0.98,-0.31,-0.66,-0.18,
1.861,0.07,-0.02,0.98,-0.31,-0.66,-0.18,
1.863,0.07,-0.02,0.99,-0.31,-0.66,-0.18,
1.864,0.07,-0.02,0.99,-0.35,-0.62,-0.08,
1.866,0.07,-0.02,0.99,-0.35,-0.62,-0.08,
1.869,0.07,-0.02,0.98,-0.35,-0.62,-0.08,
1.869,0.07,-0.02,0.98,-0.41,-0.57,-0.02,
1.871,0.06,-0.02,0.99,-0.41,-0.57,-0.02,
1.873,0.06,-0.02,0.99,-0.40,-0.57,-0.04,
1.873,0.05,-0.02,0.98,-0.40,-0.57,-0.04,
1.876,0.05,-0.02,0.98,-0.40,-0.57,-0.04,
1.878,0.04,-0.02,0.97,-0.40,-0.57,-0.04,
1.878,0.04,-0.02,0.97,-0.54,-0.58,-0.03,
1.881,0.04,-0.03,0.97,-0.54,-0.58,-0.03,
1.883,0.03,-0.02,0.97,-0.54,-0.58,-0.03,
1.883,0.03,-0.02,0.97,-0.61,-0.60,-0.15,
1.886,0.03,-0.02,0.96,-0.61,-0.60,-0.15,
1.888,0.02,-0.02,0.95,-0.61,-0.60,-0.15,
1.888,0.02,-0.02,0.95,-0.69,-0.63,-0.18,
1.891,0.01,-0.02,0.96,-0.69,-0.63,-0.18,
1.894,0.01,-0.02,0.95,-0.69,-0.63,-0.18,
1.894,0.01,-0.02,0.95,-0.81,-0.57,-0.33,
1.896,-0.00,-0.01,0.94,-0.81,-0.57,-0.33,
1.898,-0.00,-0.01,0.94,-0.90,-0.52,-0.34,
1.898,-0.01,-0.01,0.94,-0.90,-0.52,-0.34,
1.9,-0.01,-0.01,0.95,-0.90,-0.52,-0.34,
1.906,-0.02,-0.01,0.95,-0.90,-0.52,-0.34,
1.907,-0.02,-0.01,0.95,-1.04,-0.48,-0.43,
1.907,-0.01,-0.02,0.94,-1.04,-0.48,-0.43,
1.908,-0.02,-0.01,0.93,-1.04,-0.48,-0.43,
1.908,-0.02,-0.01,0.93,-1.14,-0.49,-0.38,
1.91,-0.02,-0.02,0.93,-1.14,-0.49,-0.38,
1.913,-0.03,-0.02,0.93,-1.14,-0.49,-0.38,
1.913,-0.03,-0.02,0.93,-1.13,-0.51,-0.53,
1.915,-0.04,-0.01,0.93,-1.13,-0.51,-0.53,
1.92,-0.04,-0.00,0.94,-1.13,-0.51,-0.53,
1.921,-0.04,-0.00,0.94,-1.23,-0.53,-0.58,
1.921,-0.04,0.00,0.95,-1.23,-0.53,-0.58,
1.922,-0.04,0.00,0.95,-1.31,-0.44,-0.48,
1.923,-0.04,-0.00,0.96,-1.31,-0.44,-0.48,
1.926,-0.02,-0.02,0.96,-1.31,-0.44,-0.48,
1.928,-0.01,-0.03,0.95,-1.31,-0.44,-0.48,
1.928,-0.01,-0.03,0.95,-1.33,-0.36,-0.27,
1.93,-0.00,-0.04,0.94,-1.33,-0.36,-0.27,
1.933,0.00,-0.04,0.93,-1.33,-0.36,-0.27,
1.933,0.00,-0.04,0.93,-1.09,-0.59,-0.31,
1.935,-0.00,-0.05,0.93,-1.09,-0.59,-0.31,
1.938,-0.00,-0.05,0.93,-1.09,-0.59,-0.31,
1.939,-0.00,-0.05,0.93,-0.89,-0.77,-0.49,
1.94,-0.02,-0.04,0.93,-0.89,-0.77,-0.49,
1.942,-0.02,-0.03,0.93,-0.89,-0.77,-0.49,
1.943,-0.02,-0.03,0.93,-0.93,-0.83,-0.57,
1.945,-0.03,-0.02,0.94,-0.93,-0.83,-0.57,
1.948,-0.03,-0.02,0.94,-0.93,-0.83,-0.57,
1.948,-0.03,-0.02,0.94,-1.09,-0.72,-0.51,
1.95,-0.03,-0.01,0.94,-1.09,-0.72,-0.51,
1.954,-0.04,-0.01,0.95,-1.09,-0.72,-0.51,
1.955,-0.04,-0.01,0.95,-1.17,-0.59,-0.40,
1.955,-0.05,-0.00,0.96,-1.17,-0.59,-0.40,
1.957,-0.05,-0.00,0.97,-1.17,-0.59,-0.40,
1.957,-0.05,-0.00,0.97,-1.21,-0.49,-0.35,
1.959,-0.04,0.00,0.97,-1.21,-0.49,-0.35,
1.962,-0.04,-0.01,0.98,-1.21,-0.49,-0.35,
1.962,-0.04,-0.01,0.98,-1.35,-0.40,-0.15,
1.964,-0.04,-0.01,0.97,-1.35,-0.40,-0.15,
1.967,-0.03,-0.01,0.97,-1.35,-0.40,-0.15,
1.967,-0.03,-0.01,0.97,-1.28,-0.41,-0.07,
1.97,-0.04,-0.02,0.98,-1.28,-0.41,-0.07,
1.972,-0.04,-0.02,0.98,-1.28,-0.41,-0.07,
1.972,-0.04,-0.02,0.98,-1.25,-0.50,-0.12,
1.974,-0.04,-0.02,0.98,-1.25,-0.50,-0.12,
1.977,-0.04,-0.02,0.99,-1.25,-0.50,-0.12,
1.977,-0.04,-0.02,0.99,-1.28,-0.58,-0.04,
1.979,-0.05,-0.02,0.99,-1.28,-0.58,-0.04,
1.981,-0.06,-0.02,0.99,-1.28,-0.58,-0.04,
1.982,-0.06,-0.02,0.99,-1.26,-0.61,0.04,
1.984,-0.06,-0.01,0.99,-1.26,-0.61,0.04,
1.987,-0.07,-0.01,0.99,-1.26,-0.61,0.04,
1.987,-0.07,-0.01,0.99,-1.41,-0.60,0.07,
1.989,-0.08,-0.01,0.99,-1.41,-0.60,0.07,
1.992,-0.09,-0.01,1.00,-1.41,-0.60,0.07,
1.992,-0.09,-0.01,1.00,-1.53,-0.47,0.07,
1.994,-0.09,-0.01,1.00,-1.53,-0.47,0.07,
1.996,-0.09,-0.01,0.99,-1.53,-0.47,0.07,
1.997,-0.09,-0.01,0.99,-1.68,-0.42,0.13,
1.999,-0.09,-0.00,0.99,-1.68,-0.42,0.13,
2.007,-0.09,0.00,1.00,-1.68,-0.42,0.13,
2.007,-0.09,0.00,1.00,-1.70,-0.41,0.15,
2.007,-0.09,-0.00,1.00,-1.70,-0.41,0.15,
2.007,-0.09,-0.00,1.01,-1.70,-0.41,0.15,
2.008,-0.09,-0.00,1.01,-1.72,-0.35,0.14,
2.009,-0.09,-0.00,1.01,-1.72,-0.35,0.14,
2.011,-0.09,0.00,1.01,-1.72,-0.35,0.14,
2.011,-0.09,0.00,1.01,-1.68,-0.36,0.22,
2.014,-0.10,0.01,1.01,-1.68,-0.36,0.22,
2.016,-0.11,0.01,1.02,-1.68,-0.36,0.22,
2.016,-0.11,0.01,1.02,-1.70,-0.32,0.24,
2.02,-0.12,0.01,1.03,-1.70,-0.32,0.24,
2.021,-0.12,0.02,1.05,-1.70,-0.32,0.24,
2.021,-0.12,0.02,1.05,-1.78,-0.25,0.28,
2.024,-0.12,0.02,1.06,-1.78,-0.25,0.28,
2.026,-0.12,0.02,1.06,-1.78,-0.25,0.28,
2.026,-0.12,0.02,1.06,-1.90,-0.17,0.54,
2.029,-0.11,0.01,1.05,-1.90,-0.17,0.54,
2.032,-0.10,-0.00,1.05,-1.90,-0.17,0.54,
2.032,-0.10,-0.00,1.05,-1.90,-0.12,0.73,
2.033,-0.10,-0.01,1.04,-1.90,-0.12,0.73,
2.037,-0.10,-0.02,1.03,-1.90,-0.12,0.73,
2.037,-0.10,-0.02,1.03,-1.73,-0.25,0.65,
2.038,-0.10,-0.02,1.03,-1.73,-0.25,0.65,
2.041,-0.10,-0.02,1.02,-1.73,-0.25,0.65,
2.041,-0.10,-0.02,1.02,-1.61,-0.45,0.46,
2.043,-0.11,-0.02,1.02,-1.61,-0.45,0.46,
2.046,-0.11,-0.01,1.02,-1.61,-0.45,0.46,
2.046,-0.11,-0.01,1.02,-1.61,-0.50,0.37,
2.048,-0.13,-0.01,1.03,-1.61,-0.50,0.37,
2.051,-0.13,0.00,1.03,-1.61,-0.50,0.37,
2.051,-0.13,0.00,1.03,-1.72,-0.45,0.36,
2.053,-0.14,0.01,1.04,-1.72,-0.45,0.36,
2.056,-0.14,0.01,1.04,-1.72,-0.45,0.36,
2.056,-0.14,0.01,1.04,-1.89,-0.33,0.41,
2.058,-0.14,0.02,1.04,-1.89,-0.33,0.41,
2.061,-0.14,0.02,1.04,-1.89,-0.33,0.41,
2.061,-0.14,0.02,1.04,-1.98,-0.21,0.50,
2.063,-0.13,0.02,1.04,-1.98,-0.21,0.50,
2.066,-0.12,0.02,1.04,-1.98,-0.21,0.50,
2.066,-0.12,0.02,1.04,-1.96,-0.13,0.55,
2.071,-0.12,0.01,1.05,-1.96,-0.13,0.55,
2.071,-0.11,0.01,1.05,-1.96,-0.13,0.55,
2.072,-0.11,0.01,1.05,-1.84,-0.16,0.55,
2.073,-0.11,0.01,1.04,-1.84,-0.16,0.55,
2.075,-0.11,0.02,1.04,-1.84,-0.16,0.55,
2.076,-0.11,0.02,1.04,-1.77,-0.21,0.59,
2.078,-0.10,0.02,1.03,-1.77,-0.21,0.59,
2.08,-0.10,0.01,1.02,-1.77,-0.21,0.59,
2.081,-0.10,0.01,1.02,-1.72,-0.21,0.55,
2.083,-0.09,0.01,1.03,-1.72,-0.21,0.55,
2.087,-0.09,0.02,1.03,-1.72,-0.21,0.55,
2.088,-0.09,0.02,1.03,-1.60,-0.22,0.41,
2.088,-0.09,0.02,1.02,-1.60,-0.22,0.41,
2.09,-0.10,0.02,1.02,-1.60,-0.22,0.41,
2.091,-0.10,0.02,1.02,-1.52,-0.22,0.40,
2.093,-0.10,0.03,1.02,-1.52,-0.22,0.40,
2.095,-0.10,0.04,1.00,-1.52,-0.22,0.40,
2.096,-0.10,0.04,1.00,-1.60,-0.19,0.31,
2.099,-0.11,0.04,1.00,-1.60,-0.19,0.31,
2.1,-0.11,0.04,1.00,-1.60,-0.19,0.31,
2.101,-0.11,0.04,1.00,-1.67,-0.07,0.24,
2.104,-0.10,0.04,1.00,-1.67,-0.07,0.24,
2.106,-0.10,0.04,0.99,-1.67,-0.07,0.24,
2.106,-0.10,0.04,0.99,-1.70,-0.04,0.13,
2.108,-0.10,0.04,0.98,-1.70,-0.04,0.13,
2.11,-0.10,0.03,0.98,-1.70,-0.04,0.13,
2.11,-0.10,0.03,0.98,-1.66,-0.03,0.05,
2.113,-0.10,0.03,0.97,-1.66,-0.03,0.05,
2.115,-0.10,0.03,0.96,-1.66,-0.03,0.05,
2.116,-0.10,0.03,0.96,-1.65,-0.07,-0.04,
2.118,-0.10,0.02,0.95,-1.65,-0.07,-0.04,
2.124,-0.10,0.02,0.95,-1.60,-0.18,-0.22,
2.125,-0.10,0.02,0.94,-1.60,-0.18,-0.22,
2.125,-0.11,0.02,0.94,-1.60,-0.18,-0.22,
2.125,-0.12,0.03,0.95,-1.60,-0.18,-0.22,
2.128,-0.12,0.03,0.95,-1.63,-0.27,-0.38,
2.128,-0.12,0.04,0.96,-1.63,-0.27,-0.38,
2.13,-0.13,0.04,0.96,-1.63,-0.27,-0.38,
2.13,-0.13,0.04,0.96,-1.75,-0.23,-0.41,
2.133,-0.13,0.03,0.96,-1.75,-0.23,-0.41,
2.135,-0.12,0.02,0.95,-1.75,-0.23,-0.41,
2.138,-0.12,0.02,0.95,-1.85,-0.11,-0.24,
2.138,-0.11,0.00,0.94,-1.85,-0.11,-0.24,
2.14,-0.10,-0.01,0.91,-1.85,-0.11,-0.24,
2.143,-0.10,-0.01,0.91,-1.79,-0.23,-0.28,
2.143,-0.11,-0.02,0.90,-1.79,-0.23,-0.28,
2.145,-0.12,-0.02,0.90,-1.79,-0.23,-0.28,
2.145,-0.12,-0.02,0.90,-1.60,-0.53,-0.60,
2.147,-0.12,-0.02,0.89,-1.60,-0.53,-0.60,
2.15,-0.14,-0.02,0.90,-1.60,-0.53,-0.60,
2.15,-0.14,-0.02,0.90,-1.61,-0.68,-0.84,
2.153,-0.15,-0.01,0.90,-1.61,-0.68,-0.84,
2.157,-0.16,-0.02,0.90,-1.61,-0.68,-0.84,
2.157,-0.16,-0.02,0.90,-1.77,-0.68,-0.91,
2.158,-0.16,-0.01,0.89,-1.77,-0.68,-0.91,
2.16,-0.16,-0.01,0.88,-1.77,-0.68,-0.91,
2.16,-0.16,-0.01,0.88,-1.98,-0.61,-0.89,
2.163,-0.17,-0.02,0.88,-1.98,-0.61,-0.89,
2.165,-0.18,-0.01,0.87,-1.98,-0.61,-0.89,
2.166,-0.18,-0.01,0.87,-2.01,-0.60,-1.01,
2.168,-0.19,-0.01,0.88,-2.01,-0.60,-1.01,
2.17,-0.19,-0.01,0.89,-2.01,-0.60,-1.01,
2.171,-0.19,-0.01,0.89,-2.12,-0.61,-1.08,
2.172,-0.20,0.00,0.89,-2.12,-0.61,-1.08,
2.175,-0.20,0.00,0.89,-2.26,-0.57,-1.00,
2.175,-0.21,-0.00,0.91,-2.26,-0.57,-1.00,
2.177,-0.20,-0.00,0.91,-2.26,-0.57,-1.00,
2.18,-0.19,-0.00,0.92,-2.26,-0.57,-1.00,
2.18,-0.19,-0.00,0.92,-2.40,-0.46,-0.84,
2.182,-0.18,-0.01,0.93,-2.40,-0.46,-0.84,
2.185,-0.18,-0.01,0.93,-2.40,-0.46,-0.84,
2.185,-0.18,-0.01,0.93,-2.34,-0.46,-0.72,
2.189,-0.17,-0.01,0.95,-2.34,-0.46,-0.72,
2.19,-0.16,-0.01,0.95,-2.34,-0.46,-0.72,
2.19,-0.16,-0.01,0.95,-2.20,-0.50,-0.55,
2.192,-0.15,-0.01,0.97,-2.20,-0.50,-0.55,
2.195,-0.15,-0.01,0.97,-2.04,-0.50,-0.34,
2.195,-0.14,-0.01,0.98,-2.04,-0.50,-0.34,
2.197,-0.14,-0.01,0.99,-2.04,-0.50,-0.34,
2.2,-0.13,-0.01,1.00,-2.04,-0.50,-0.34,
2.2,-0.13,-0.01,1.00,-1.90,-0.49,-0.14,
2.202,-0.12,-0.01,1.01,-1.90,-0.49,-0.14,
2.205,-0.11,-0.01,1.01,-1.90,-0.49,-0.14,
2.205,-0.11,-0.01,1.01,-1.76,-0.49,0.07,
2.207,-0.10,-0.00,1.02,-1.76,-0.49,0.07,
2.21,-0.09,0.01,1.02,-1.76,-0.49,0.07,
2.21,-0.09,0.01,1.02,-1.59,-0.47,0.25,
2.212,-0.08,0.01,1.03,-1.59,-0.47,0.25,
2.215,-0.06,0.01,1.03,-1.59,-0.47,0.25,
2.215,-0.06,0.01,1.03,-1.41,-0.34,0.35,
2.217,-0.06,0.02,1.03,-1.41,-0.34,0.35,
2.22,-0.04,0.02,1.04,-1.41,-0.34,0.35,
2.22,-0.04,0.02,1.04,-1.22,-0.25,0.42,
2.225,-0.03,0.03,1.04,-1.22,-0.25,0.42,
2.226,-0.03,0.04,1.04,-1.22,-0.25,0.42,
2.226,-0.03,0.04,1.04,-1.00,-0.12,0.48,
2.227,-0.02,0.05,1.04,-1.00,-0.12,0.48,
2.229,-0.02,0.05,1.04,-1.00,-0.12,0.48,
2.23,-0.02,0.05,1.04,-0.82,0.00,0.51,
2.232,-0.02,0.05,1.04,-0.82,0.00,0.51,
2.235,-0.02,0.06,1.04,-0.82,0.00,0.51,
2.235,-0.02,0.06,1.04,-0.71,0.15,0.55,
2.238,-0.01,0.06,1.04,-0.71,0.15,0.55,
2.239,-0.01,0.06,1.04,-0.71,0.15,0.55,
2.239,-0.01,0.06,1.04,-0.70,0.26,0.55,
2.242,-0.01,0.06,1.04,-0.70,0.26,0.55,
2.245,-0.01,0.06,1.04,-0.61,0.30,0.54,
2.245,-0.01,0.06,1.04,-0.61,0.30,0.54,
2.247,-0.01,0.05,1.04,-0.61,0.30,0.54,
2.249,-0.00,0.05,1.04,-0.61,0.30,0.54,
2.25,-0.00,0.05,1.04,-0.61,0.35,0.49,
2.252,-0.00,0.05,1.04,-0.61,0.35,0.49,
2.255,-0.00,0.05,1.04,-0.61,0.35,0.49,
2.255,-0.00,0.05,1.04,-0.55,0.29,0.53,
2.257,-0.00,0.04,1.03,-0.55,0.29,0.53,
2.259,-0.01,0.04,1.03,-0.55,0.29,0.53,
2.259,-0.01,0.04,1.03,-0.51,0.29,0.52,
2.262,-0.01,0.03,1.03,-0.51,0.29,0.52,
2.264,-0.01,0.03,1.03,-0.51,0.29,0.52,
2.265,-0.01,0.03,1.03,-0.52,0.20,0.46,
2.267,-0.02,0.02,1.03,-0.52,0.20,0.46,
2.269,-0.02,0.02,1.03,-0.52,0.20,0.46,
2.27,-0.02,0.02,1.03,-0.58,0.13,0.44,
2.272,-0.03,0.01,1.03,-0.58,0.13,0.44,
2.274,-0.03,0.00,1.03,-0.58,0.13,0.44,
2.274,-0.03,0.00,1.03,-0.65,0.03,0.41,
2.277,-0.03,-0.00,1.02,-0.65,0.03,0.41,
2.279,-0.03,-0.01,1.01,-0.65,0.03,0.41,
2.28,-0.03,-0.01,1.01,-0.75,-0.07,0.40,
2.282,-0.04,-0.01,1.01,-0.75,-0.07,0.40,
2.284,-0.04,-0.01,1.01,-0.75,-0.07,0.40,
2.284,-0.04,-0.01,1.01,-0.75,-0.17,0.30,
2.286,-0.05,-0.02,1.01,-0.75,-0.17,0.30,
2.288,-0.05,-0.02,1.01,-0.75,-0.17,0.30,
2.289,-0.05,-0.02,1.01,-0.85,-0.20,0.19,
2.292,-0.05,-0.02,1.01,-0.85,-0.20,0.19,
2.294,-0.05,-0.02,1.01,-0.90,-0.27,0.21,
2.295,-0.04,-0.03,1.00,-0.90,-0.27,0.21,
2.297,-0.04,-0.03,1.00,-0.90,-0.27,0.21,
2.299,-0.04,-0.03,1.00,-0.90,-0.27,0.21,
2.299,-0.04,-0.03,1.00,-0.88,-0.32,0.18,
2.302,-0.05,-0.03,1.01,-0.88,-0.32,0.18,
2.303,-0.04,-0.03,1.00,-0.88,-0.32,0.18,
2.304,-0.04,-0.03,1.00,-0.87,-0.36,0.15,
2.306,-0.04,-0.03,1.00,-0.87,-0.36,0.15,
2.308,-0.04,-0.04,0.99,-0.87,-0.36,0.15,
2.309,-0.04,-0.04,0.99,-0.87,-0.38,0.15,
2.311,-0.04,-0.04,0.99,-0.87,-0.38,0.15,
2.313,-0.05,-0.04,0.99,-0.87,-0.38,0.15,
2.314,-0.05,-0.04,0.99,-0.85,-0.40,0.06,
2.316,-0.04,-0.04,0.99,-0.85,-0.40,0.06,
2.318,-0.04,-0.04,0.99,-0.85,-0.40,0.06,
2.318,-0.04,-0.04,0.99,-0.89,-0.44,0.02,
2.326,-0.04,-0.05,0.99,-0.89,-0.44,0.02,
2.326,-0.04,-0.05,0.99,-0.89,-0.44,0.02,
2.327,-0.04,-0.05,0.99,-0.83,-0.44,0.03,
2.327,-0.03,-0.05,0.99,-0.83,-0.44,0.03,
2.328,-0.03,-0.04,0.99,-0.83,-0.44,0.03,
2.329,-0.03,-0.04,0.99,-0.82,-0.47,0.06,
2.331,-0.03,-0.04,0.99,-0.82,-0.47,0.06,
2.334,-0.03,-0.04,0.99,-0.82,-0.47,0.06,
2.334,-0.03,-0.04,0.99,-0.79,-0.42,0.02,
2.335,-0.02,-0.03,0.99,-0.79,-0.42,0.02,
2.339,-0.01,-0.03,1.00,-0.79,-0.42,0.02,
2.339,-0.01,-0.03,1.00,-0.76,-0.40,0.04,
2.34,-0.01,-0.02,1.00,-0.76,-0.40,0.04,
2.343,0.00,-0.02,1.01,-0.76,-0.40,0.04,
2.343,0.00,-0.02,1.01,-0.63,-0.28,0.06,
2.345,0.01,-0.02,1.02,-0.63,-0.28,0.06,
2.349,0.01,-0.01,1.03,-0.63,-0.28,0.06,
2.349,0.01,-0.01,1.03,-0.52,-0.19,0.18,
2.35,0.03,-0.01,1.03,-0.52,-0.19,0.18,
2.353,0.03,-0.01,1.03,-0.52,-0.19,0.18,
2.353,0.03,-0.01,1.03,-0.37,-0.10,0.32,
2.357,0.04,-0.01,1.03,-0.37,-0.10,0.32,
2.358,0.06,-0.00,1.04,-0.37,-0.10,0.32,
2.358,0.06,-0.00,1.04,-0.20,-0.03,0.44,
2.36,0.07,0.01,1.05,-0.20,-0.03,0.44,
2.363,0.09,0.01,1.05,-0.20,-0.03,0.44,
2.363,0.09,0.01,1.05,-0.01,0.03,0.49,
2.365,0.10,0.01,1.06,-0.01,0.03,0.49,
2.368,0.12,0.02,1.07,-0.01,0.03,0.49,
2.368,0.12,0.02,1.07,0.27,0.18,0.59,
2.371,0.13,0.03,1.08,0.27,0.18,0.59,
2.373,0.14,0.03,1.08,0.27,0.18,0.59,
2.374,0.14,0.03,1.08,0.51,0.24,0.76,
2.375,0.15,0.04,1.10,0.51,0.24,0.76,
2.378,0.16,0.05,1.10,0.51,0.24,0.76,
2.378,0.16,0.05,1.10,0.71,0.40,0.91,
2.38,0.17,0.05,1.11,0.71,0.40,0.91,
2.382,0.18,0.05,1.12,0.71,0.40,0.91,
2.383,0.18,0.05,1.12,0.90,0.53,1.07,
2.385,0.19,0.06,1.13,0.90,0.53,1.07,
2.388,0.19,0.06,1.13,0.90,0.53,1.07,
2.389,0.19,0.06,1.13,1.11,0.64,1.25,
2.39,0.20,0.07,1.15,1.11,0.64,1.25,
2.392,0.20,0.07,1.16,1.11,0.64,1.25,
2.393,0.20,0.07,1.16,1.26,0.74,1.38,
2.395,0.21,0.08,1.16,1.26,0.74,1.38,
2.397,0.21,0.08,1.17,1.26,0.74,1.38,
2.398,0.21,0.08,1.17,1.36,0.81,1.59,
2.4,0.21,0.09,1.17,1.36,0.81,1.59,
2.402,0.20,0.09,1.17,1.36,0.81,1.59,
2.402,0.20,0.09,1.17,1.39,0.93,1.72,
2.406,0.19,0.09,1.18,1.39,0.93,1.72,
2.407,0.18,0.10,1.18,1.39,0.93,1.72,
2.407,0.18,0.10,1.18,1.37,1.00,1.74,
2.41,0.18,0.11,1.17,1.37,1.00,1.74,
2.412,0.17,0.11,1.17,1.37,1.00,1.74,
2.413,0.17,0.11,1.17,1.18,1.08,1.82,
2.415,0.16,0.11,1.16,1.18,1.08,1.82,
2.417,0.14,0.11,1.17,1.18,1.08,1.82,
2.417,0.14,0.11,1.17,1.04,1.23,1.76,
2.42,0.13,0.11,1.17,1.04,1.23,1.76,
2.426,0.12,0.11,1.18,1.04,1.23,1.76,
2.426,0.12,0.11,1.18,0.86,1.24,1.71,
2.426,0.12,0.11,1.18,0.86,1.24,1.71,
2.43,0.12,0.10,1.17,0.86,1.24,1.71,
2.431,0.12,0.10,1.17,0.59,1.26,1.79,
2.431,0.13,0.09,1.16,0.59,1.26,1.79,
2.432,0.14,0.08,1.13,0.59,1.26,1.79,
2.432,0.14,0.08,1.13,0.60,1.18,1.82,
2.435,0.15,0.07,1.11,0.60,1.18,1.82,
2.437,0.16,0.06,1.09,0.60,1.18,1.82,
2.437,0.16,0.06,1.09,0.76,0.92,1.51,
2.44,0.15,0.06,1.08,0.76,0.92,1.51,
2.442,0.15,0.06,1.08,0.97,0.70,1.05,
2.442,0.14,0.06,1.07,0.97,0.70,1.05,
2.445,0.13,0.06,1.06,0.97,0.70,1.05,
2.447,0.13,0.07,1.06,0.97,0.70,1.05,
2.447,0.13,0.07,1.06,0.91,0.65,0.83,
2.449,0.12,0.07,1.05,0.91,0.65,0.83,
2.453,0.11,0.07,1.05,0.91,0.65,0.83,
2.453,0.11,0.07,1.05,0.78,0.69,0.67,
2.456,0.11,0.08,1.04,0.78,0.69,0.67,
2.458,0.11,0.08,1.03,0.78,0.69,0.67,
2.458,0.11,0.08,1.03,0.67,0.73,0.57,
2.459,0.10,0.08,1.03,0.67,0.73,0.57,
2.463,0.10,0.07,1.01,0.67,0.73,0.57,
2.463,0.10,0.07,1.01,0.61,0.78,0.41,
2.464,0.10,0.08,1.00,0.61,0.78,0.41,
2.467,0.10,0.08,1.00,0.53,0.69,0.27,
2.468,0.10,0.08,1.00,0.53,0.69,0.27,
2.469,0.09,0.07,1.00,0.53,0.69,0.27,
2.472,0.09,0.07,1.01,0.53,0.69,0.27,
2.473,0.09,0.07,1.01,0.48,0.67,0.08,
2.476,0.10,0.07,1.01,0.48,0.67,0.08,
2.477,0.09,0.06,1.01,0.48,0.67,0.08,
2.477,0.09,0.06,1.01,0.41,0.61,0.13,
2.48,0.10,0.05,1.02,0.41,0.61,0.13,
2.482,0.11,0.05,1.03,0.41,0.61,0.13,
2.482,0.11,0.05,1.03,0.41,0.53,0.17,
2.484,0.11,0.05,1.04,0.41,0.53,0.17,
2.487,0.11,0.05,1.05,0.41,0.53,0.17,
2.487,0.11,0.05,1.05,0.46,0.40,0.31,
2.489,0.12,0.04,1.06,0.46,0.40,0.31,
2.493,0.12,0.04,1.06,0.51,0.32,0.50,
2.494,0.12,0.04,1.06,0.51,0.32,0.50,
2.495,0.13,0.04,1.07,0.51,0.32,0.50,
2.497,0.13,0.03,1.08,0.51,0.32,0.50,
2.497,0.13,0.03,1.08,0.58,0.27,0.65,
2.499,0.14,0.03,1.08,0.58,0.27,0.65,
2.502,0.14,0.03,1.08,0.67,0.19,0.77,
2.502,0.14,0.03,1.09,0.67,0.19,0.77,
2.504,0.15,0.04,1.10,0.67,0.19,0.77,
2.509,0.15,0.04,1.10,0.67,0.19,0.77,
2.509,0.15,0.04,1.10,0.76,0.17,0.92,
2.51,0.16,0.04,1.11,0.76,0.17,0.92,
2.513,0.16,0.04,1.11,0.85,0.21,1.04,
2.513,0.17,0.04,1.10,0.85,0.21,1.04,
2.514,0.18,0.04,1.11,0.85,0.21,1.04,
2.516,0.19,0.04,1.10,0.85,0.21,1.04,
2.517,0.19,0.04,1.10,0.96,0.21,1.08,
2.519,0.20,0.05,1.10,0.96,0.21,1.08,
2.523,0.20,0.05,1.10,0.96,0.21,1.08,
2.523,0.20,0.05,1.10,1.13,0.24,1.09,
2.524,0.20,0.05,1.10,1.13,0.24,1.09,
2.527,0.20,0.06,1.09,1.13,0.24,1.09,
2.527,0.20,0.06,1.09,1.27,0.26,1.08,
2.529,0.21,0.05,1.09,1.27,0.26,1.08,
2.532,0.21,0.06,1.08,1.27,0.26,1.08,
2.532,0.21,0.06,1.08,1.34,0.35,1.02,
2.535,0.21,0.06,1.07,1.34,0.35,1.02,
2.537,0.21,0.06,1.07,1.34,0.35,1.02,
2.537,0.21,0.06,1.07,1.44,0.36,0.91,
2.539,0.21,0.06,1.06,1.44,0.36,0.91,
2.542,0.21,0.06,1.06,1.43,0.35,0.74,
2.542,0.21,0.06,1.06,1.43,0.35,0.74,
2.544,0.21,0.06,1.05,1.43,0.35,0.74,
2.546,0.21,0.06,1.05,1.43,0.35,0.74,
2.547,0.21,0.06,1.05,1.45,0.38,0.65,
2.549,0.21,0.06,1.04,1.45,0.38,0.65,
2.552,0.20,0.06,1.04,1.45,0.38,0.65,
2.552,0.20,0.06,1.04,1.44,0.40,0.56,
2.554,0.20,0.05,1.04,1.44,0.40,0.56,
2.556,0.20,0.05,1.04,1.44,0.40,0.56,
2.557,0.20,0.05,1.04,1.40,0.34,0.45,
2.558,0.20,0.04,1.03,1.40,0.34,0.45,
2.561,0.20,0.04,1.03,1.40,0.34,0.45,
2.561,0.20,0.04,1.03,1.35,0.26,0.41,
2.564,0.19,0.03,1.04,1.35,0.26,0.41,
2.567,0.19,0.03,1.04,1.35,0.14,0.37,
2.567,0.18,0.03,1.03,1.35,0.14,0.37,
2.569,0.18,0.02,1.03,1.35,0.14,0.37,
2.571,0.18,0.02,1.04,1.35,0.14,0.37,
2.572,0.18,0.02,1.04,1.22,0.05,0.39,
2.574,0.18,0.02,1.04,1.22,0.05,0.39,
2.576,0.18,0.02,1.05,1.22,0.05,0.39,
2.576,0.18,0.02,1.05,1.15,-0.04,0.41,
2.579,0.18,0.01,1.05,1.15,-0.04,0.41,
2.581,0.17,0.01,1.05,1.15,-0.04,0.41,
2.582,0.17,0.01,1.05,1.16,-0.08,0.49,
2.584,0.17,0.01,1.06,1.16,-0.08,0.49,
2.586,0.17,0.01,1.06,1.16,-0.08,0.49,
2.586,0.17,0.01,1.06,1.14,-0.16,0.55,
2.588,0.17,0.01,1.07,1.14,-0.16,0.55,
2.59,0.17,0.01,1.08,1.14,-0.16,0.55,
2.591,0.17,0.01,1.08,1.10,-0.17,0.65,
2.593,0.19,0.01,1.09,1.10,-0.17,0.65,
2.596,0.19,0.02,1.09,1.10,-0.17,0.65,
2.596,0.19,0.02,1.09,1.11,-0.16,0.80,
2.599,0.19,0.02,1.09,1.11,-0.16,0.80,
2.601,0.19,0.02,1.09,1.27,-0.13,0.90,
2.601,0.18,0.03,1.10,1.27,-0.13,0.90,
2.603,0.19,0.02,1.10,1.27,-0.13,0.90,
2.612,0.19,0.02,1.11,1.27,-0.13,0.90,
2.613,0.19,0.02,1.11,1.26,-0.06,0.98,
2.613,0.19,0.03,1.11,1.26,-0.06,0.98,
2.613,0.19,0.03,1.11,1.26,-0.06,0.98,
2.614,0.19,0.03,1.11,1.26,-0.09,1.07,
2.614,0.19,0.03,1.10,1.26,-0.09,1.07,
2.618,0.21,0.03,1.10,1.26,-0.09,1.07,
2.618,0.21,0.03,1.10,1.30,-0.05,1.08,
2.618,0.21,0.03,1.10,1.30,-0.05,1.08,
2.62,0.22,0.04,1.10,1.30,-0.05,1.08,
2.62,0.22,0.04,1.10,1.39,-0.04,1.04,
2.627,0.22,0.04,1.09,1.39,-0.04,1.04,
2.627,0.21,0.04,1.08,1.39,-0.04,1.04,
2.628,0.21,0.04,1.08,1.54,-0.00,0.99,
2.628,0.22,0.04,1.07,1.54,-0.00,0.99,
2.63,0.21,0.04,1.07,1.54,-0.00,0.99,
2.63,0.21,0.04,1.07,1.55,0.02,0.84,
2.632,0.19,0.04,1.08,1.55,0.02,0.84,
2.636,0.19,0.05,1.11,1.55,0.02,0.84,
2.638,0.19,0.05,1.11,1.56,0.01,0.73,
2.639,0.18,0.06,1.12,1.56,0.01,0.73,
2.642,0.18,0.06,1.12,1.32,0.06,0.95,
2.642,0.19,0.07,1.11,1.32,0.06,0.95,
2.643,0.21,0.06,1.09,1.32,0.06,0.95,
2.645,0.23,0.04,1.06,1.32,0.06,0.95,
2.646,0.23,0.04,1.06,1.29,0.21,1.18,
2.647,0.24,0.02,1.02,1.29,0.21,1.18,
2.65,0.25,0.01,1.00,1.29,0.21,1.18,
2.65,0.25,0.01,1.00,1.62,0.00,0.77,
2.653,0.25,-0.01,0.98,1.62,0.00,0.77,
2.658,0.24,-0.00,0.97,1.62,0.00,0.77,
2.659,0.24,-0.00,0.97,1.94,-0.37,0.14,
2.659,0.22,0.00,0.97,1.94,-0.37,0.14,
2.661,0.21,0.01,0.97,1.94,-0.37,0.14,
2.661,0.21,0.01,0.97,1.98,-0.57,-0.21,
2.663,0.19,0.03,0.96,1.98,-0.57,-0.21,
2.666,0.19,0.03,0.96,1.74,-0.48,-0.27,
2.666,0.18,0.03,0.95,1.74,-0.48,-0.27,
2.667,0.17,0.03,0.94,1.74,-0.48,-0.27,
2.67,0.16,0.04,0.93,1.74,-0.48,-0.27,
2.67,0.16,0.04,0.93,1.47,-0.30,-0.43,
2.674,0.15,0.05,0.92,1.47,-0.30,-0.43,
2.675,0.13,0.05,0.92,1.47,-0.30,-0.43,
2.675,0.13,0.05,0.92,1.27,-0.21,-0.62,
2.677,0.12,0.05,0.92,1.27,-0.21,-0.62,
2.68,0.12,0.06,0.92,1.27,-0.21,-0.62,
2.68,0.12,0.06,0.92,1.07,-0.16,-0.75,
2.682,0.12,0.06,0.92,1.07,-0.16,-0.75,
2.685,0.12,0.06,0.93,1.07,-0.16,-0.75,
2.686,0.12,0.06,0.93,0.87,-0.12,-0.72,
2.687,0.12,0.05,0.93,0.87,-0.12,-0.72,
2.691,0.12,0.05,0.93,0.85,-0.11,-0.68,
2.692,0.12,0.05,0.94,0.85,-0.11,-0.68,
2.692,0.13,0.05,0.95,0.85,-0.11,-0.68,
2.694,0.14,0.04,0.95,0.85,-0.11,-0.68,
2.695,0.14,0.04,0.95,0.91,-0.17,-0.60,
2.697,0.15,0.04,0.96,0.91,-0.17,-0.60,
2.699,0.15,0.03,0.96,0.91,-0.17,-0.60,
2.7,0.15,0.03,0.96,1.01,-0.25,-0.45,
2.702,0.16,0.03,0.97,1.01,-0.25,-0.45,
2.704,0.16,0.03,0.98,1.01,-0.25,-0.45,
2.705,0.16,0.03,0.98,1.16,-0.35,-0.36,
2.708,0.17,0.03,0.98,1.16,-0.35,-0.36,
2.711,0.18,0.03,0.99,1.16,-0.35,-0.36,
2.711,0.18,0.03,0.99,1.27,-0.38,-0.19,
2.712,0.18,0.03,1.00,1.27,-0.38,-0.19,
2.715,0.18,0.03,1.00,1.27,-0.38,-0.19,
2.715,0.18,0.03,1.00,1.38,-0.37,-0.08,
2.717,0.18,0.03,1.00,1.38,-0.37,-0.08,
2.72,0.19,0.03,1.00,1.38,-0.37,-0.08,
2.721,0.19,0.03,1.00,1.46,-0.41,0.03,
2.729,0.19,0.03,0.99,1.46,-0.41,0.03,
2.73,0.19,0.03,0.99,1.46,-0.41,0.03,
2.73,0.19,0.03,0.99,1.49,-0.41,0.02,
2.73,0.19,0.03,0.99,1.49,-0.41,0.02,
2.731,0.19,0.03,0.98,1.49,-0.41,0.02,
2.731,0.19,0.03,0.98,1.53,-0.40,-0.03,
2.731,0.19,0.02,0.97,1.53,-0.40,-0.03,
2.734,0.19,0.02,0.98,1.53,-0.40,-0.03,
2.734,0.19,0.02,0.98,1.54,-0.45,-0.10,
2.736,0.19,0.02,0.97,1.54,-0.45,-0.10,
2.745,0.19,0.02,0.97,1.54,-0.45,-0.10,
2.746,0.19,0.02,0.97,1.57,-0.48,-0.20,
2.746,0.19,0.02,0.97,1.57,-0.48,-0.20,
2.746,0.19,0.03,0.97,1.57,-0.48,-0.20,
2.747,0.19,0.03,0.97,1.55,-0.47,-0.24,
2.747,0.18,0.03,0.98,1.55,-0.47,-0.24,
2.749,0.18,0.03,0.97,1.55,-0.47,-0.24,
2.749,0.18,0.03,0.97,1.58,-0.45,-0.24,
2.752,0.18,0.03,0.98,1.58,-0.45,-0.24,
2.754,0.18,0.03,0.98,1.58,-0.45,-0.24,
2.754,0.18,0.03,0.98,1.53,-0.42,-0.21,
2.757,0.18,0.03,0.98,1.53,-0.42,-0.21,
2.76,0.18,0.03,0.98,1.53,-0.42,-0.21,
2.76,0.18,0.03,0.98,1.50,-0.43,-0.18,
2.761,0.17,0.03,0.99,1.50,-0.43,-0.18,
2.764,0.17,0.03,0.99,1.50,-0.43,-0.18,
2.764,0.17,0.03,0.99,1.51,-0.38,-0.18,
2.766,0.17,0.03,0.99,1.51,-0.38,-0.18,
2.769,0.18,0.03,1.00,1.51,-0.38,-0.18,
2.769,0.18,0.03,1.00,1.46,-0.38,-0.08,
2.771,0.18,0.03,0.99,1.46,-0.38,-0.08,
2.774,0.18,0.03,1.00,1.46,-0.38,-0.08,
2.775,0.18,0.03,1.00,1.50,-0.39,-0.04,
2.777,0.18,0.03,1.01,1.50,-0.39,-0.04,
2.779,0.19,0.03,1.01,1.50,-0.39,-0.04,
2.779,0.19,0.03,1.01,1.54,-0.39,-0.00,
2.781,0.18,0.03,1.00,1.54,-0.39,-0.00,
2.785,0.18,0.03,1.01,1.54,-0.39,-0.00,
2.785,0.18,0.03,1.01,1.58,-0.37,0.10,
2.786,0.19,0.04,1.00,1.58,-0.37,0.10,
2.79,0.19,0.04,1.00,1.58,-0.37,0.10,
2.791,0.19,0.04,1.00,1.52,-0.37,0.09,
2.792,0.19,0.04,1.00,1.52,-0.37,0.09,
2.793,0.19,0.05,0.99,1.52,-0.37,0.09,
2.794,0.19,0.05,0.99,1.62,-0.31,0.02,
2.796,0.20,0.05,0.99,1.62,-0.31,0.02,
2.798,0.20,0.06,0.98,1.62,-0.31,0.02,
2.799,0.20,0.06,0.98,1.62,-0.25,-0.05,
2.802,0.20,0.06,0.97,1.62,-0.25,-0.05,
2.804,0.19,0.07,0.97,1.62,-0.25,-0.05,
2.805,0.19,0.07,0.97,1.66,-0.17,-0.14,
2.807,0.18,0.07,0.96,1.66,-0.17,-0.14,
2.808,0.19,0.07,0.95,1.66,-0.17,-0.14,
2.809,0.19,0.07,0.95,1.62,-0.10,-0.26,
2.812,0.18,0.07,0.95,1.62,-0.10,-0.26,
2.815,0.18,0.08,0.94,1.62,-0.10,-0.26,
2.815,0.18,0.08,0.94,1.54,-0.05,-0.38,
2.817,0.18,0.08,0.94,1.54,-0.05,-0.38,
2.819,0.18,0.08,0.93,1.54,-0.05,-0.38,
2.82,0.18,0.08,0.93,1.51,-0.02,-0.51,
2.821,0.18,0.08,0.92,1.51,-0.02,-0.51,
2.826,0.17,0.08,0.92,1.51,-0.02,-0.51,
2.827,0.17,0.08,0.92,1.46,-0.00,-0.63,
2.827,0.17,0.08,0.92,1.46,-0.00,-0.63,
2.83,0.17,0.08,0.92,1.41,0.03,-0.72,
2.83,0.17,0.09,0.91,1.41,0.03,-0.72,
2.831,0.16,0.09,0.91,1.41,0.03,-0.72,
2.833,0.16,0.09,0.91,1.41,0.03,-0.72,
2.834,0.16,0.09,0.91,1.35,0.07,-0.77,
2.837,0.16,0.09,0.91,1.35,0.07,-0.77,
2.838,0.15,0.09,0.91,1.35,0.07,-0.77,
2.838,0.15,0.09,0.91,1.32,0.12,-0.81,
2.841,0.15,0.09,0.91,1.32,0.12,-0.81,
2.844,0.15,0.09,0.91,1.32,0.12,-0.81,
2.844,0.15,0.09,0.91,1.24,0.12,-0.83,
2.847,0.15,0.09,0.91,1.24,0.12,-0.83,
2.848,0.15,0.10,0.91,1.24,0.12,-0.83,
2.848,0.15,0.10,0.91,1.21,0.12,-0.81,
2.851,0.15,0.10,0.92,1.21,0.12,-0.81,
2.854,0.15,0.10,0.92,1.18,0.13,-0.78,
2.854,0.15,0.10,0.92,1.18,0.13,-0.78,
2.856,0.14,0.11,0.93,1.18,0.13,-0.78,
2.858,0.14,0.10,0.93,1.18,0.13,-0.78,
2.858,0.14,0.10,0.93,1.17,0.21,-0.74,
2.861,0.14,0.11,0.94,1.17,0.21,-0.74,
2.863,0.14,0.11,0.94,1.17,0.21,-0.74,
2.864,0.14,0.11,0.94,1.08,0.22,-0.63,
2.867,0.14,0.11,0.95,1.08,0.22,-0.63,
2.868,0.14,0.11,0.96,1.08,0.22,-0.63,
2.868,0.14,0.11,0.96,1.08,0.29,-0.53,
2.871,0.14,0.11,0.96,1.08,0.29,-0.53,
2.874,0.14,0.11,0.97,1.08,0.29,-0.53,
2.875,0.14,0.11,0.97,1.10,0.29,-0.39,
2.876,0.13,0.11,0.98,1.10,0.29,-0.39,
2.878,0.13,0.11,0.98,1.08,0.28,-0.31,
2.878,0.13,0.10,0.98,1.08,0.28,-0.31,
2.881,0.13,0.10,0.98,1.08,0.28,-0.31,
2.883,0.13,0.10,0.99,1.08,0.28,-0.31,
2.883,0.13,0.10,0.99,0.99,0.24,-0.11,
2.886,0.13,0.10,1.00,0.99,0.24,-0.11,
2.89,0.13,0.09,1.00,0.99,0.24,-0.11,
2.89,0.13,0.09,1.00,0.96,0.20,-0.10,
2.89,0.13,0.10,1.00,0.96,0.20,-0.10,
2.894,0.12,0.10,1.01,0.96,0.20,-0.10,
2.894,0.12,0.10,1.01,0.93,0.16,0.08,
2.897,0.12,0.09,1.01,0.93,0.16,0.08,
2.897,0.12,0.09,1.01,0.93,0.16,0.08,
2.898,0.12,0.09,1.01,0.93,0.20,0.10,
2.901,0.11,0.09,1.01,0.93,0.20,0.10,
2.903,0.12,0.09,1.01,0.93,0.20,0.10,
2.904,0.12,0.09,1.01,0.86,0.13,0.14,
2.905,0.11,0.09,1.01,0.86,0.13,0.14,
2.912,0.11,0.08,1.01,0.86,0.13,0.14,
2.913,0.11,0.08,1.01,0.82,0.09,0.16,
2.913,0.11,0.08,1.01,0.82,0.09,0.16,
2.913,0.11,0.08,1.00,0.82,0.09,0.16,
2.913,0.11,0.08,1.00,0.75,0.05,0.18,
2.915,0.10,0.08,1.00,0.75,0.05,0.18,
2.917,0.10,0.08,0.99,0.75,0.05,0.18,
2.918,0.10,0.08,0.99,0.72,0.01,0.11,
2.92,0.09,0.07,0.99,0.72,0.01,0.11,
2.925,0.09,0.08,0.99,0.72,0.01,0.11,
2.925,0.09,0.08,0.99,0.63,-0.03,0.02,
2.926,0.09,0.08,0.99,0.63,-0.03,0.02,
2.927,0.09,0.08,0.98,0.63,-0.03,0.02,
2.928,0.09,0.08,0.98,0.54,-0.05,-0.06,
2.93,0.09,0.08,0.98,0.54,-0.05,-0.06,
2.932,0.09,0.08,0.98,0.54,-0.05,-0.06,
2.933,0.09,0.08,0.98,0.52,-0.05,-0.08,
2.935,0.08,0.08,0.98,0.52,-0.05,-0.08,
2.938,0.08,0.09,0.98,0.52,-0.05,-0.08,
2.938,0.08,0.09,0.98,0.49,-0.02,-0.15,
2.941,0.08,0.09,0.98,0.49,-0.02,-0.15,
2.943,0.08,0.09,0.97,0.49,-0.02,-0.15,
2.944,0.08,0.09,0.97,0.43,0.03,-0.10,
2.945,0.08,0.09,0.98,0.43,0.03,-0.10,
2.947,0.08,0.09,0.97,0.43,0.03,-0.10,
2.947,0.08,0.09,0.97,0.42,0.05,-0.14,
2.95,0.08,0.08,0.97,0.42,0.05,-0.14,
2.952,0.09,0.08,0.97,0.42,0.05,-0.14,
2.952,0.09,0.08,0.97,0.40,0.02,-0.21,
2.956,0.08,0.08,0.97,0.40,0.02,-0.21,
2.957,0.09,0.09,0.97,0.40,0.02,-0.21,
2.958,0.09,0.09,0.97,0.45,-0.03,-0.23,
2.961,0.09,0.09,0.97,0.45,-0.03,-0.23,
2.962,0.08,0.09,0.97,0.45,-0.03,-0.23,
2.963,0.08,0.09,0.97,0.44,-0.03,-0.21,
2.965,0.08,0.09,0.97,0.44,-0.03,-0.21,
2.967,0.09,0.09,0.97,0.44,-0.03,-0.21,
2.968,0.09,0.09,0.97,0.46,-0.01,-0.23,
2.97,0.08,0.09,0.97,0.46,-0.01,-0.23,
2.972,0.08,0.08,0.98,0.46,-0.01,-0.23,
2.972,0.08,0.08,0.98,0.42,-0.02,-0.21,
2.975,0.08,0.09,0.98,0.42,-0.02,-0.21,
2.977,0.08,0.09,0.98,0.37,-0.03,-0.14,
2.978,0.08,0.09,0.98,0.37,-0.03,-0.14,
2.979,0.08,0.09,0.98,0.37,-0.03,-0.14,
2.983,0.08,0.09,0.99,0.37,-0.03,-0.14,
2.984,0.08,0.09,0.99,0.38,0.00,-0.14,
2.984,0.08,0.09,0.99,0.38,0.00,-0.14,
2.986,0.08,0.10,0.99,0.38,0.00,-0.14,
2.987,0.08,0.10,0.99,0.34,0.01,-0.05,
2.989,0.07,0.10,0.99,0.34,0.01,-0.05,
2.994,0.07,0.10,0.99,0.34,0.06,-0.00,
2.995,0.07,0.10,0.93,0.34,0.06,-0.00,
2.995,0.09,0.12,0.82,0.34,0.06,-0.00,
2.996,0.12,0.13,0.78,0.34,0.06,-0.00,
2.997,0.12,0.13,0.78,0.25,0.11,-0.33,
3.0,0.11,0.12,0.86,0.25,0.11,-0.33,
3.001,0.10,0.12,0.93,0.25,0.11,-0.33,
3.002,0.10,0.12,0.93,0.60,0.39,-1.88,
3.004,0.07,0.11,0.97,0.60,0.39,-1.88,
3.008,0.06,0.10,0.98,0.60,0.39,-1.88,
3.008,0.06,0.10,0.98,0.63,0.32,-0.93,
3.009,0.06,0.10,1.00,0.63,0.32,-0.93,
3.012,0.06,0.10,1.01,0.63,0.32,-0.93,
3.012,0.06,0.10,1.01,0.26,0.19,-0.12,
3.014,0.06,0.11,1.01,0.26,0.19,-0.12,
3.016,0.06,0.11,1.02,0.26,0.19,-0.12,
3.017,0.06,0.11,1.02,0.22,0.14,0.13,
3.019,0.06,0.11,1.04,0.22,0.14,0.13,
3.021,0.07,0.11,1.05,0.22,0.14,0.13,
3.022,0.07,0.11,1.05,0.19,0.25,0.25,
3.029,0.07,0.11,1.06,0.19,0.25,0.25,
3.03,0.07,0.11,1.06,0.26,0.27,0.49,
3.03,0.08,0.11,1.08,0.26,0.27,0.49,
3.03,0.10,0.12,1.08,0.26,0.27,0.49,
3.04,0.11,0.12,1.08,0.26,0.27,0.49,
3.041,0.11,0.12,1.08,0.36,0.29,0.76,
3.041,0.11,0.11,1.08,0.36,0.29,0.76,
3.041,0.12,0.10,1.07,0.36,0.29,0.76,
3.042,0.12,0.10,1.07,0.59,0.32,0.89,
3.042,0.13,0.10,1.07,0.59,0.32,0.89,
3.042,0.14,0.10,1.06,0.59,0.32,0.89,
3.043,0.14,0.10,1.06,0.73,0.23,0.85,
3.048,0.14,0.10,1.06,0.73,0.23,0.85,
3.048,0.14,0.10,1.06,0.73,0.23,0.85,
3.048,0.14,0.10,1.06,0.90,0.18,0.68,
3.049,0.15,0.10,1.05,0.90,0.18,0.68,
3.051,0.15,0.11,1.05,0.90,0.18,0.68,
3.051,0.15,0.11,1.05,0.96,0.16,0.63,
3.053,0.14,0.11,1.04,0.96,0.16,0.63,
3.056,0.13,0.12,1.04,0.96,0.16,0.63,
3.056,0.13,0.12,1.04,0.98,0.19,0.55,
3.066,0.12,0.13,1.03,0.98,0.19,0.55,
3.067,0.12,0.13,1.02,0.98,0.19,0.55,
3.067,0.12,0.13,1.02,0.84,0.28,0.45,
3.067,0.11,0.13,1.02,0.84,0.28,0.45,
3.067,0.10,0.13,1.03,0.84,0.28,0.45,
3.067,0.10,0.13,1.03,0.72,0.39,0.31,
3.068,0.10,0.13,1.02,0.72,0.39,0.31,
3.071,0.10,0.14,1.01,0.72,0.39,0.31,
3.071,0.10,0.14,1.01,0.56,0.39,0.30,
3.074,0.10,0.14,1.00,0.56,0.39,0.30,
3.079,0.09,0.13,1.01,0.56,0.39,0.30,
3.08,0.09,0.13,1.01,0.52,0.41,0.17,
3.08,0.09,0.13,1.00,0.52,0.41,0.17,
3.096,0.09,0.13,1.00,0.52,0.41,0.17,
3.096,0.09,0.13,1.00,0.45,0.39,0.10,
3.096,0.09,0.13,0.99,0.45,0.39,0.10,
3.097,0.08,0.12,1.00,0.45,0.39,0.10,
3.097,0.08,0.12,1.00,0.37,0.36,0.06,
3.097,0.08,0.11,1.00,0.37,0.36,0.06,
3.097,0.08,0.11,1.00,0.33,0.27,0.00,
3.098,0.09,0.11,1.00,0.33,0.27,0.00,
3.098,0.08,0.11,1.01,0.33,0.27,0.00,
3.098,0.08,0.11,1.01,0.33,0.17,0.03,
3.098,0.08,0.11,1.01,0.33,0.17,0.03,
3.098,0.08,0.10,1.01,0.33,0.17,0.03,
3.101,0.08,0.10,1.01,0.33,0.17,0.03,
3.101,0.08,0.10,1.01,0.30,0.14,0.11,
3.104,0.08,0.10,1.02,0.30,0.14,0.11,
3.106,0.08,0.10,1.02,0.30,0.14,0.11,
3.106,0.08,0.10,1.02,0.30,0.05,0.18,
3.108,0.08,0.10,1.02,0.30,0.05,0.18,
3.113,0.08,0.09,1.04,0.30,0.05,0.18,
3.114,0.08,0.09,1.04,0.29,0.05,0.24,
3.114,0.08,0.09,1.04,0.29,0.05,0.24,
