
time,gFx,gFy,gFz,ax,ay,az,
0.003,0.10,0.24,0.97,0.09,0.05,0.18,
0.003,0.10,0.23,0.97,0.09,0.05,0.18,
0.004,0.09,0.24,0.98,0.09,0.05,0.18,
0.004,0.09,0.24,0.99,0.09,0.05,0.18,
0.004,0.09,0.24,0.99,0.07,0.06,0.18,
0.004,0.09,0.24,1.00,0.07,0.06,0.18,
0.005,0.09,0.24,1.00,0.07,0.06,0.18,
0.005,0.09,0.24,1.00,0.03,0.09,0.33,
0.015,0.09,0.25,1.00,0.03,0.09,0.33,
0.016,0.09,0.25,1.01,0.03,0.09,0.33,
0.016,0.09,0.25,1.01,-0.01,0.13,0.44,
0.016,0.09,0.25,1.01,-0.01,0.13,0.44,
0.017,0.10,0.25,1.02,-0.01,0.13,0.44,
0.017,0.10,0.25,1.02,0.04,0.21,0.50,
0.017,0.10,0.26,1.01,0.04,0.21,0.50,
0.019,0.10,0.26,1.01,0.10,0.22,0.59,
0.019,0.10,0.26,1.01,0.10,0.22,0.59,
0.029,0.10,0.27,1.01,0.10,0.22,0.59,
0.03,0.11,0.27,1.01,0.10,0.22,0.59,
0.03,0.11,0.27,1.01,0.17,0.34,0.53,
0.03,0.11,0.27,1.01,0.17,0.34,0.53,
0.03,0.12,0.28,1.02,0.17,0.34,0.53,
0.031,0.12,0.28,1.02,0.23,0.40,0.55,
0.031,0.13,0.28,1.02,0.23,0.40,0.55,
0.035,0.14,0.28,1.01,0.23,0.40,0.55,
0.035,0.14,0.28,1.01,0.33,0.46,0.56,
0.036,0.15,0.28,1.02,0.33,0.46,0.56,
0.046,0.16,0.28,1.02,0.33,0.46,0.56,
0.047,0.16,0.28,1.02,0.55,0.50,0.53,
0.047,0.17,0.28,1.03,0.55,0.50,0.53,
0.048,0.17,0.28,1.03,0.79,0.54,0.59,
0.048,0.17,0.28,1.04,0.79,0.54,0.59,
0.048,0.17,0.28,1.04,0.79,0.54,0.59,
0.049,0.16,0.27,1.04,0.79,0.54,0.59,
0.049,0.16,0.27,1.04,0.93,0.52,0.71,
0.051,0.14,0.26,1.05,0.93,0.52,0.71,
0.063,0.13,0.26,1.04,0.93,0.52,0.71,
0.063,0.13,0.26,1.04,0.89,0.45,0.81,
0.064,0.11,0.25,1.03,0.89,0.45,0.81,
0.064,0.09,0.24,1.02,0.89,0.45,0.81,
0.064,0.09,0.24,1.02,0.66,0.33,0.81,
0.064,0.09,0.26,0.99,0.66,0.33,0.81,
0.064,0.07,0.26,0.98,0.66,0.33,0.81,
0.065,0.07,0.26,0.98,0.36,0.18,0.62,
0.066,0.05,0.23,0.96,0.36,0.18,0.62,
0.068,0.05,0.23,0.96,0.17,0.32,0.24,
0.069,0.04,0.21,0.94,0.17,0.32,0.24,
0.079,0.03,0.20,0.93,0.17,0.32,0.24,
0.08,0.05,0.18,0.91,0.17,0.32,0.24,
0.08,0.05,0.18,0.91,-0.15,-0.10,-0.13,
0.08,0.08,0.17,0.90,-0.15,-0.10,-0.13,
0.081,0.05,0.18,0.90,-0.15,-0.10,-0.13,
0.081,0.05,0.18,0.90,-0.20,-0.39,-0.41,
0.081,0.04,0.18,0.91,-0.20,-0.39,-0.41,
0.084,0.04,0.18,0.91,0.03,-0.55,-0.60,
0.084,0.03,0.19,0.92,0.03,-0.55,-0.60,
0.086,0.06,0.20,0.96,0.03,-0.55,-0.60,
0.095,0.07,0.21,0.99,0.03,-0.55,-0.60,
0.095,0.07,0.21,0.99,-0.22,-0.40,-0.44,
0.096,0.04,0.21,0.99,-0.22,-0.40,-0.44,
0.096,0.04,0.21,0.99,0.09,-0.21,0.13,
0.096,0.02,0.22,0.99,0.09,-0.21,0.13,
0.096,0.01,0.22,0.99,0.09,-0.21,0.13,
0.099,0.01,0.23,1.00,0.09,-0.21,0.13,
0.099,0.01,0.23,1.00,-0.28,-0.11,0.27,
0.101,0.02,0.24,1.00,-0.28,-0.11,0.27,
0.104,0.06,0.26,0.97,-0.28,-0.11,0.27,
0.104,0.06,0.26,0.97,-0.43,-0.00,0.29,
0.114,0.09,0.26,0.94,-0.43,-0.00,0.29,
0.114,0.09,0.26,0.95,-0.43,-0.00,0.29,
0.114,0.09,0.26,0.95,-0.14,0.20,0.20,
0.115,0.09,0.26,0.95,-0.14,0.20,0.20,
0.115,0.10,0.26,0.95,-0.14,0.20,0.20,
0.115,0.10,0.26,0.95,0.37,0.33,-0.16,
0.115,0.11,0.27,0.96,0.37,0.33,-0.16,
0.119,0.11,0.27,0.96,0.43,0.34,-0.13,
0.119,0.13,0.28,0.97,0.43,0.34,-0.13,
0.129,0.19,0.30,1.05,0.43,0.34,-0.13,
0.13,0.20,0.31,1.06,0.43,0.34,-0.13,
0.13,0.20,0.31,1.06,0.70,0.46,0.00,
0.131,0.18,0.32,1.05,0.70,0.46,0.00,
0.131,0.18,0.33,1.03,0.70,0.46,0.00,
0.131,0.18,0.33,1.03,1.42,0.81,0.87,
0.131,0.17,0.33,1.02,1.42,0.81,0.87,
0.133,0.16,0.33,1.01,1.42,0.81,0.87,
0.133,0.16,0.33,1.01,1.27,0.95,0.71,
0.135,0.15,0.33,1.00,1.27,0.95,0.71,
0.146,0.15,0.32,0.99,1.27,0.95,0.71,
0.147,0.15,0.32,0.99,1.15,1.00,0.49,
0.147,0.15,0.32,0.98,1.15,1.00,0.49,
0.147,0.15,0.32,0.98,1.05,0.97,0.31,
0.147,0.14,0.32,0.98,1.05,0.97,0.31,
0.148,0.14,0.32,0.98,1.05,0.97,0.31,
0.148,0.13,0.31,0.98,1.05,0.97,0.31,
0.148,0.13,0.31,0.98,1.02,0.97,0.14,
0.151,0.13,0.31,0.98,1.02,0.97,0.14,
0.153,0.12,0.31,0.98,1.02,0.97,0.14,
0.153,0.12,0.31,0.98,0.95,0.85,0.15,
0.16,0.11,0.30,0.99,0.95,0.85,0.15,
0.161,0.11,0.30,0.99,0.95,0.85,0.15,
0.163,0.11,0.30,0.99,0.88,0.81,0.14,
0.163,0.09,0.31,0.99,0.88,0.81,0.14,
0.164,0.08,0.31,0.99,0.88,0.81,0.14,
0.164,0.08,0.31,0.99,0.77,0.77,0.16,
0.165,0.06,0.30,0.99,0.77,0.77,0.16,
0.168,0.06,0.30,0.99,0.56,0.80,0.18,
0.168,0.05,0.31,1.00,0.56,0.80,0.18,
0.17,0.04,0.30,1.00,0.56,0.80,0.18,
0.177,0.03,0.31,1.00,0.56,0.80,0.18,
0.177,0.03,0.31,1.00,0.28,0.77,0.22,
0.177,0.02,0.30,1.00,0.28,0.77,0.22,
0.178,0.00,0.30,1.01,0.28,0.77,0.22,
0.178,0.00,0.30,1.01,0.09,0.78,0.28,
0.18,-0.00,0.30,1.01,0.09,0.78,0.28,
0.182,-0.01,0.30,1.02,0.09,0.78,0.28,
0.183,-0.01,0.30,1.02,-0.11,0.75,0.33,
0.185,-0.02,0.30,1.02,-0.11,0.75,0.33,
0.189,-0.03,0.29,1.02,-0.11,0.75,0.33,
0.189,-0.03,0.29,1.02,-0.25,0.73,0.40,
0.19,-0.03,0.29,1.03,-0.25,0.73,0.40,
0.195,-0.04,0.29,1.03,-0.25,0.73,0.40,
0.196,-0.04,0.29,1.03,-0.38,0.70,0.47,
0.196,-0.05,0.29,1.03,-0.38,0.70,0.47,
0.197,-0.06,0.28,1.03,-0.38,0.70,0.47,
0.198,-0.06,0.28,1.03,-0.52,0.63,0.53,
0.2,-0.06,0.28,1.02,-0.52,0.63,0.53,
0.202,-0.07,0.28,1.02,-0.52,0.63,0.53,
0.202,-0.07,0.28,1.02,-0.66,0.63,0.53,
0.211,-0.07,0.28,1.02,-0.66,0.63,0.53,
0.211,-0.08,0.28,1.01,-0.66,0.63,0.53,
0.211,-0.08,0.28,1.01,-0.74,0.57,0.45,
0.211,-0.09,0.28,1.01,-0.74,0.57,0.45,
0.212,-0.09,0.27,1.01,-0.74,0.57,0.45,
0.212,-0.09,0.27,1.01,-0.83,0.53,0.41,
0.215,-0.10,0.27,1.01,-0.83,0.53,0.41,
0.218,-0.10,0.27,1.01,-0.93,0.50,0.36,
0.218,-0.11,0.27,1.00,-0.93,0.50,0.36,
0.22,-0.11,0.27,1.00,-0.93,0.50,0.36,
0.229,-0.12,0.26,1.00,-0.93,0.50,0.36,
0.23,-0.12,0.26,1.00,-1.04,0.42,0.27,
0.23,-0.12,0.27,0.99,-1.04,0.42,0.27,
0.23,-0.13,0.27,1.00,-1.04,0.42,0.27,
0.23,-0.13,0.27,1.00,-1.13,0.41,0.25,
0.23,-0.14,0.26,0.99,-1.13,0.41,0.25,
0.233,-0.15,0.26,0.99,-1.13,0.41,0.25,
0.233,-0.15,0.26,0.99,-1.22,0.40,0.20,
0.235,-0.15,0.26,0.98,-1.22,0.40,0.20,
0.237,-0.16,0.27,0.98,-1.22,0.40,0.20,
0.238,-0.16,0.27,0.98,-1.36,0.38,0.12,
0.245,-0.17,0.27,0.98,-1.36,0.38,0.12,
0.245,-0.17,0.27,0.98,-1.46,0.40,0.05,
0.246,-0.18,0.27,0.97,-1.46,0.40,0.05,
0.246,-0.19,0.27,0.97,-1.46,0.40,0.05,
0.247,-0.19,0.27,0.97,-1.46,0.40,0.05,
0.248,-0.19,0.27,0.97,-1.63,0.41,0.01,
0.25,-0.20,0.27,0.96,-1.63,0.41,0.01,
0.252,-0.20,0.27,0.96,-1.63,0.41,0.01,
0.253,-0.20,0.27,0.96,-1.76,0.45,-0.08,
0.255,-0.20,0.28,0.95,-1.76,0.45,-0.08,
0.263,-0.20,0.29,0.95,-1.76,0.45,-0.08,
0.264,-0.20,0.29,0.95,-1.83,0.46,-0.15,
0.264,-0.20,0.29,0.94,-1.83,0.46,-0.15,
0.264,-0.20,0.29,0.94,-1.84,0.59,-0.24,
0.264,-0.21,0.29,0.94,-1.84,0.59,-0.24,
0.265,-0.20,0.30,0.93,-1.84,0.59,-0.24,
0.267,-0.20,0.30,0.93,-1.83,0.65,-0.36,
0.268,-0.20,0.30,0.93,-1.83,0.65,-0.36,
0.269,-0.20,0.30,0.92,-1.83,0.65,-0.36,
0.28,-0.20,0.30,0.92,-1.83,0.65,-0.36,
0.281,-0.20,0.30,0.92,-1.78,0.68,-0.46,
0.281,-0.20,0.30,0.92,-1.78,0.68,-0.46,
0.281,-0.20,0.30,0.91,-1.78,0.68,-0.46,
0.281,-0.20,0.30,0.91,-1.73,0.69,-0.52,
0.281,-0.20,0.30,0.92,-1.73,0.69,-0.52,
0.282,-0.19,0.29,0.91,-1.73,0.69,-0.52,
0.282,-0.19,0.29,0.91,-1.71,0.69,-0.58,
0.284,-0.19,0.30,0.90,-1.71,0.69,-0.58,
0.287,-0.20,0.30,0.91,-1.71,0.69,-0.58,
0.287,-0.20,0.30,0.91,-1.67,0.68,-0.60,
0.295,-0.20,0.30,0.90,-1.67,0.68,-0.60,
0.295,-0.20,0.30,0.90,-1.63,0.75,-0.67,
0.296,-0.20,0.30,0.91,-1.63,0.75,-0.67,
0.296,-0.21,0.30,0.91,-1.63,0.75,-0.67,
0.296,-0.21,0.30,0.91,-1.69,0.75,-0.66,
0.296,-0.21,0.30,0.91,-1.69,0.75,-0.66,
0.299,-0.21,0.31,0.92,-1.69,0.75,-0.66,
0.302,-0.22,0.30,0.93,-1.69,0.75,-0.66,
0.302,-0.22,0.30,0.93,-1.73,0.76,-0.60,
0.304,-0.22,0.30,0.93,-1.73,0.76,-0.60,
0.31,-0.23,0.30,0.94,-1.73,0.76,-0.60,
0.311,-0.23,0.30,0.94,-1.78,0.78,-0.45,
0.311,-0.23,0.30,0.95,-1.78,0.78,-0.45,
0.311,-0.23,0.30,0.95,-1.78,0.78,-0.45,
0.312,-0.23,0.30,0.95,-1.85,0.78,-0.36,
0.313,-0.24,0.29,0.96,-1.85,0.78,-0.36,
0.316,-0.24,0.29,0.96,-1.91,0.76,-0.23,
0.316,-0.24,0.29,0.97,-1.91,0.76,-0.23,
0.318,-0.25,0.28,0.97,-1.91,0.76,-0.23,
0.334,-0.25,0.28,0.98,-1.91,0.76,-0.23,
0.335,-0.25,0.28,0.98,-1.98,0.68,-0.08,
0.337,-0.25,0.27,0.97,-1.98,0.68,-0.08,
0.337,-0.25,0.27,0.97,-1.98,0.68,-0.08,
0.338,-0.25,0.27,0.97,-2.07,0.59,-0.02,
0.338,-0.25,0.27,0.98,-2.07,0.59,-0.02,
0.338,-0.26,0.26,0.99,-2.07,0.59,-0.02,
0.338,-0.26,0.26,0.99,-2.09,0.53,-0.02,
0.339,-0.26,0.25,0.99,-2.09,0.53,-0.02,
0.339,-0.26,0.25,0.99,-2.09,0.53,-0.02,
0.339,-0.26,0.25,0.99,-2.11,0.45,0.06,
0.339,-0.26,0.24,0.99,-2.11,0.45,0.06,
0.346,-0.26,0.24,0.99,-2.18,0.33,0.11,
0.347,-0.26,0.24,0.99,-2.18,0.33,0.11,
0.347,-0.26,0.24,1.00,-2.18,0.33,0.11,
0.347,-0.26,0.23,0.99,-2.18,0.33,0.11,
0.347,-0.26,0.23,0.99,-2.17,0.26,0.16,
0.348,-0.26,0.23,1.00,-2.17,0.26,0.16,
0.352,-0.26,0.22,1.00,-2.17,0.26,0.16,
0.352,-0.26,0.22,1.00,-2.16,0.18,0.17,
0.353,-0.26,0.22,1.01,-2.16,0.18,0.17,
0.364,-0.25,0.21,1.02,-2.16,0.18,0.17,
0.365,-0.25,0.21,1.02,-2.13,0.08,0.26,
0.365,-0.25,0.21,1.02,-2.13,0.08,0.26,
0.365,-0.24,0.20,1.02,-2.13,0.08,0.26,
0.366,-0.24,0.20,1.02,-2.10,-0.02,0.35,
0.366,-0.24,0.19,1.03,-2.10,-0.02,0.35,
0.366,-0.24,0.19,1.03,-2.00,-0.13,0.42,
0.366,-0.23,0.18,1.04,-2.00,-0.13,0.42,
0.369,-0.23,0.18,1.05,-2.00,-0.13,0.42,
0.37,-0.23,0.18,1.06,-2.00,-0.13,0.42,
0.371,-0.23,0.18,1.06,-1.90,-0.27,0.59,
0.378,-0.23,0.18,1.07,-1.90,-0.27,0.59,
0.379,-0.23,0.18,1.08,-1.90,-0.27,0.59,
0.379,-0.23,0.18,1.08,-1.87,-0.32,0.77,
0.379,-0.23,0.17,1.08,-1.87,-0.32,0.77,
0.38,-0.23,0.17,1.08,-1.88,-0.36,0.91,
0.381,-0.24,0.18,1.09,-1.88,-0.36,0.91,
0.382,-0.24,0.18,1.09,-1.88,-0.36,0.91,
0.385,-0.24,0.17,1.09,-1.88,-0.36,0.91,
0.385,-0.24,0.17,1.09,-1.92,-0.38,1.05,
0.387,-0.25,0.18,1.09,-1.92,-0.38,1.05,
0.394,-0.25,0.18,1.09,-1.96,-0.38,1.10,
0.394,-0.25,0.18,1.09,-1.96,-0.38,1.10,
0.394,-0.25,0.18,1.10,-1.96,-0.38,1.10,
0.395,-0.26,0.18,1.09,-1.96,-0.38,1.10,
0.395,-0.26,0.18,1.09,-2.03,-0.37,1.09,
0.397,-0.26,0.18,1.10,-2.03,-0.37,1.09,
0.4,-0.26,0.18,1.09,-2.03,-0.37,1.09,
0.4,-0.26,0.18,1.09,-2.07,-0.34,1.14,
0.402,-0.27,0.18,1.09,-2.07,-0.34,1.14,
0.411,-0.27,0.18,1.08,-2.07,-0.34,1.14,
0.411,-0.27,0.18,1.08,-2.14,-0.35,1.11,
0.412,-0.27,0.18,1.07,-2.14,-0.35,1.11,
0.412,-0.27,0.17,1.07,-2.14,-0.35,1.11,
0.412,-0.27,0.17,1.07,-2.19,-0.36,1.02,
0.412,-0.26,0.17,1.05,-2.19,-0.36,1.02,
0.415,-0.26,0.17,1.05,-2.16,-0.42,0.88,
0.415,-0.26,0.16,1.05,-2.16,-0.42,0.88,
0.417,-0.26,0.16,1.04,-2.16,-0.42,0.88,
0.42,-0.26,0.16,1.04,-2.13,-0.53,0.70,
0.42,-0.26,0.15,1.03,-2.13,-0.53,0.70,
0.433,-0.26,0.15,1.02,-2.13,-0.53,0.70,
0.434,-0.25,0.15,1.01,-2.13,-0.53,0.70,
0.434,-0.25,0.15,1.01,-2.08,-0.64,0.53,
0.434,-0.26,0.14,1.00,-2.08,-0.64,0.53,
0.434,-0.26,0.14,0.99,-2.08,-0.64,0.53,
0.435,-0.26,0.14,0.99,-2.03,-0.69,0.32,
0.435,-0.26,0.13,0.98,-2.03,-0.69,0.32,
0.436,-0.26,0.14,0.97,-2.03,-0.69,0.32,
0.436,-0.26,0.14,0.97,-2.02,-0.81,0.14,
0.437,-0.26,0.13,0.96,-2.02,-0.81,0.14,
0.446,-0.26,0.13,0.96,-2.01,-0.86,-0.05,
0.447,-0.26,0.13,0.96,-2.01,-0.86,-0.05,
0.447,-0.26,0.13,0.95,-2.01,-0.86,-0.05,
0.447,-0.26,0.13,0.95,-2.01,-0.86,-0.05,
0.447,-0.26,0.13,0.95,-2.05,-0.93,-0.20,
0.448,-0.26,0.13,0.93,-2.05,-0.93,-0.20,
0.449,-0.26,0.13,0.93,-2.05,-0.93,-0.20,
0.45,-0.26,0.13,0.93,-1.99,-0.94,-0.26,
0.452,-0.26,0.13,0.93,-1.99,-0.94,-0.26,
0.454,-0.26,0.13,0.93,-1.99,-0.94,-0.26,
0.455,-0.26,0.13,0.93,-2.00,-0.98,-0.43,
0.464,-0.26,0.13,0.92,-2.00,-0.98,-0.43,
0.465,-0.26,0.13,0.92,-2.00,-0.98,-0.43,
0.465,-0.26,0.13,0.92,-1.96,-0.94,-0.48,
0.465,-0.26,0.14,0.92,-1.96,-0.94,-0.48,
0.465,-0.26,0.14,0.92,-1.94,-0.92,-0.54,
0.466,-0.26,0.14,0.92,-1.94,-0.92,-0.54,
0.467,-0.25,0.14,0.91,-1.94,-0.92,-0.54,
0.469,-0.26,0.15,0.91,-1.94,-0.92,-0.54,
0.469,-0.26,0.15,0.91,-1.90,-0.86,-0.53,
0.473,-0.26,0.15,0.91,-1.90,-0.86,-0.53,
0.478,-0.25,0.15,0.92,-1.90,-0.86,-0.53,
0.479,-0.25,0.15,0.92,-1.87,-0.83,-0.62,
0.479,-0.25,0.16,0.91,-1.87,-0.83,-0.62,
0.479,-0.25,0.15,0.91,-1.87,-0.83,-0.62,
0.48,-0.25,0.15,0.91,-1.85,-0.78,-0.61,
0.482,-0.25,0.15,0.91,-1.85,-0.78,-0.61,
0.484,-0.25,0.15,0.91,-1.85,-0.78,-0.61,
0.485,-0.25,0.15,0.91,-1.81,-0.73,-0.62,
0.487,-0.24,0.16,0.91,-1.81,-0.73,-0.62,
0.49,-0.24,0.16,0.91,-1.76,-0.76,-0.60,
0.491,-0.24,0.15,0.91,-1.76,-0.76,-0.60,
0.495,-0.24,0.15,0.91,-1.76,-0.76,-0.60,
0.496,-0.24,0.16,0.91,-1.76,-0.76,-0.60,
0.497,-0.24,0.16,0.91,-1.70,-0.74,-0.67,
0.497,-0.24,0.16,0.91,-1.70,-0.74,-0.67,
0.5,-0.23,0.15,0.91,-1.70,-0.74,-0.67,
0.501,-0.23,0.15,0.91,-1.64,-0.76,-0.63,
0.502,-0.23,0.15,0.91,-1.64,-0.76,-0.63,
0.505,-0.23,0.15,0.91,-1.64,-0.76,-0.63,
0.505,-0.23,0.15,0.91,-1.58,-0.77,-0.60,
0.515,-0.23,0.15,0.91,-1.58,-0.77,-0.60,
0.516,-0.23,0.15,0.90,-1.58,-0.77,-0.60,
0.517,-0.23,0.15,0.90,-1.56,-0.78,-0.63,
0.517,-0.22,0.15,0.90,-1.56,-0.78,-0.63,
0.517,-0.22,0.15,0.90,-1.50,-0.85,-0.63,
0.518,-0.22,0.14,0.90,-1.50,-0.85,-0.63,
0.518,-0.22,0.14,0.89,-1.50,-0.85,-0.63,
0.52,-0.22,0.14,0.89,-1.50,-0.85,-0.63,
0.52,-0.22,0.14,0.89,-1.45,-0.89,-0.70,
0.522,-0.22,0.13,0.88,-1.45,-0.89,-0.70,
0.529,-0.22,0.13,0.88,-1.45,-0.89,-0.70,
0.53,-0.22,0.13,0.88,-1.45,-0.96,-0.76,
0.53,-0.22,0.13,0.88,-1.45,-0.96,-0.76,
0.53,-0.22,0.12,0.87,-1.45,-0.96,-0.76,
0.531,-0.22,0.12,0.87,-1.47,-1.00,-0.85,
0.531,-0.22,0.12,0.87,-1.47,-1.00,-0.85,
0.535,-0.22,0.11,0.87,-1.47,-1.00,-0.85,
0.535,-0.22,0.11,0.87,-1.46,-1.08,-0.93,
0.537,-0.22,0.11,0.86,-1.46,-1.08,-0.93,
0.539,-0.22,0.11,0.86,-1.45,-1.20,-1.00,
0.54,-0.22,0.11,0.85,-1.45,-1.20,-1.00,
0.551,-0.21,0.10,0.85,-1.45,-1.20,-1.00,
0.551,-0.21,0.10,0.85,-1.41,-1.26,-1.09,
0.552,-0.21,0.10,0.84,-1.41,-1.26,-1.09,
0.552,-0.21,0.10,0.84,-1.41,-1.26,-1.09,
0.552,-0.21,0.09,0.83,-1.41,-1.26,-1.09,
0.552,-0.21,0.09,0.83,-1.34,-1.36,-1.21,
0.553,-0.20,0.08,0.82,-1.34,-1.36,-1.21,
0.555,-0.20,0.08,0.82,-1.34,-1.36,-1.21,
0.555,-0.20,0.08,0.82,-1.32,-1.45,-1.30,
0.556,-0.20,0.07,0.81,-1.32,-1.45,-1.30,
0.566,-0.20,0.06,0.80,-1.32,-1.45,-1.30,
0.567,-0.20,0.06,0.80,-1.22,-1.59,-1.41,
0.567,-0.20,0.06,0.80,-1.22,-1.59,-1.41,
0.568,-0.20,0.06,0.80,-1.25,-1.71,-1.54,
0.568,-0.21,0.06,0.80,-1.25,-1.71,-1.54,
0.568,-0.21,0.05,0.79,-1.25,-1.71,-1.54,
0.569,-0.20,0.05,0.78,-1.25,-1.71,-1.54,
0.569,-0.20,0.05,0.78,-1.28,-1.79,-1.60,
0.573,-0.20,0.05,0.79,-1.28,-1.79,-1.60,
0.584,-0.21,0.05,0.78,-1.28,-1.79,-1.60,
0.584,-0.21,0.05,0.78,-1.26,-1.87,-1.70,
0.585,-0.20,0.04,0.77,-1.26,-1.87,-1.70,
0.585,-0.19,0.04,0.77,-1.26,-1.87,-1.70,
0.585,-0.19,0.04,0.77,-1.26,-1.88,-1.77,
0.585,-0.19,0.04,0.76,-1.26,-1.88,-1.77,
0.585,-0.19,0.04,0.76,-1.19,-1.94,-1.91,
0.586,-0.19,0.03,0.76,-1.19,-1.94,-1.91,
0.586,-0.18,0.03,0.75,-1.19,-1.94,-1.91,
0.589,-0.18,0.03,0.75,-1.11,-2.03,-1.96,
0.589,-0.17,0.03,0.75,-1.11,-2.03,-1.96,
0.596,-0.17,0.02,0.75,-1.11,-2.03,-1.96,
0.597,-0.16,0.02,0.75,-1.11,-2.03,-1.96,
0.597,-0.16,0.02,0.75,-0.99,-2.07,-2.02,
0.597,-0.15,0.01,0.76,-0.99,-2.07,-2.02,
0.599,-0.14,0.01,0.76,-0.99,-2.07,-2.02,
0.599,-0.14,0.01,0.76,-0.86,-2.19,-2.02,
0.601,-0.13,0.01,0.76,-0.86,-2.19,-2.02,
0.604,-0.13,0.01,0.77,-0.86,-2.19,-2.02,
0.604,-0.13,0.01,0.77,-0.70,-2.27,-1.98,
0.606,-0.12,0.00,0.79,-0.70,-2.27,-1.98,
0.614,-0.10,0.00,0.80,-0.70,-2.27,-1.98,
0.615,-0.10,0.00,0.80,-0.52,-2.27,-1.87,
0.615,-0.10,0.01,0.81,-0.52,-2.27,-1.87,
0.615,-0.10,0.01,0.81,-0.35,-2.30,-1.62,
0.615,-0.09,0.01,0.83,-0.35,-2.30,-1.62,
0.616,-0.07,0.01,0.84,-0.35,-2.30,-1.62,
0.619,-0.07,0.01,0.86,-0.35,-2.30,-1.62,
0.619,-0.07,0.01,0.86,-0.18,-2.24,-1.37,
0.621,-0.06,0.01,0.87,-0.18,-2.24,-1.37,
0.629,-0.05,0.02,0.89,-0.18,-2.24,-1.37,
0.629,-0.05,0.02,0.89,0.02,-2.25,-1.06,
0.63,-0.04,0.02,0.90,0.02,-2.25,-1.06,
0.63,-0.03,0.03,0.91,0.02,-2.25,-1.06,
0.63,-0.03,0.03,0.91,0.18,-2.14,-0.75,
0.63,-0.02,0.04,0.92,0.18,-2.14,-0.75,
0.633,-0.01,0.05,0.92,0.18,-2.14,-0.75,
0.633,-0.01,0.05,0.92,0.35,-2.01,-0.50,
0.635,-0.00,0.06,0.93,0.35,-2.01,-0.50,
0.638,-0.00,0.06,0.93,0.50,-1.83,-0.32,
0.638,0.01,0.07,0.93,0.50,-1.83,-0.32,
0.652,0.01,0.08,0.93,0.50,-1.83,-0.32,
0.653,0.02,0.09,0.94,0.50,-1.83,-0.32,
0.653,0.02,0.09,0.94,0.69,-1.63,-0.22,
0.654,0.02,0.09,0.93,0.69,-1.63,-0.22,
0.654,0.03,0.10,0.93,0.69,-1.63,-0.22,
0.654,0.03,0.10,0.93,0.82,-1.46,-0.20,
0.654,0.03,0.10,0.92,0.82,-1.46,-0.20,
0.655,0.03,0.10,0.92,0.91,-1.32,-0.24,
0.657,0.03,0.11,0.91,0.91,-1.32,-0.24,
0.657,0.03,0.11,0.90,0.91,-1.32,-0.24,
0.664,0.03,0.11,0.90,0.91,-1.32,-0.24,
0.665,0.03,0.11,0.90,1.00,-1.22,-0.41,
0.665,0.04,0.11,0.88,1.00,-1.22,-0.41,
0.665,0.04,0.11,0.88,1.00,-1.19,-0.55,
0.665,0.03,0.11,0.86,1.00,-1.19,-0.55,
0.666,0.03,0.11,0.85,1.00,-1.19,-0.55,
0.668,0.03,0.11,0.82,1.00,-1.19,-0.55,
0.668,0.03,0.11,0.82,1.04,-1.15,-0.85,
0.67,0.03,0.11,0.81,1.04,-1.15,-0.85,
0.672,0.04,0.10,0.80,1.04,-1.15,-0.85,
0.673,0.04,0.10,0.80,1.01,-1.18,-1.15,
0.682,0.03,0.10,0.78,1.01,-1.18,-1.15,
0.683,0.04,0.09,0.77,1.01,-1.18,-1.15,
0.683,0.04,0.09,0.77,1.05,-1.24,-1.49,
0.683,0.04,0.08,0.76,1.05,-1.24,-1.49,
0.683,0.03,0.08,0.75,1.05,-1.24,-1.49,
0.684,0.03,0.08,0.75,1.08,-1.33,-1.74,
0.685,0.04,0.07,0.74,1.08,-1.33,-1.74,
0.687,0.04,0.07,0.74,1.07,-1.46,-1.94,
0.687,0.04,0.06,0.74,1.07,-1.46,-1.94,
0.689,0.05,0.05,0.75,1.07,-1.46,-1.94,
0.696,0.05,0.04,0.75,1.07,-1.46,-1.94,
0.697,0.05,0.04,0.75,1.15,-1.61,-2.04,
0.697,0.05,0.04,0.75,1.15,-1.61,-2.04,
0.697,0.06,0.03,0.77,1.15,-1.61,-2.04,
0.697,0.06,0.03,0.77,1.21,-1.79,-1.97,
0.699,0.06,0.02,0.78,1.21,-1.79,-1.97,
0.702,0.06,0.02,0.80,1.21,-1.79,-1.97,
0.702,0.06,0.02,0.80,1.28,-1.90,-1.85,
0.704,0.06,0.01,0.81,1.28,-1.90,-1.85,
0.712,0.06,0.02,0.83,1.28,-1.90,-1.85,
0.713,0.06,0.02,0.83,1.33,-2.03,-1.59,
0.713,0.06,0.02,0.85,1.33,-2.03,-1.59,
0.713,0.06,0.02,0.85,1.29,-2.06,-1.25,
0.714,0.06,0.01,0.86,1.29,-2.06,-1.25,
0.714,0.06,0.02,0.87,1.29,-2.06,-1.25,
0.717,0.05,0.02,0.89,1.29,-2.06,-1.25,
0.717,0.05,0.02,0.89,1.34,-2.06,-0.93,
0.719,0.05,0.02,0.89,1.34,-2.06,-0.93,
0.723,0.04,0.03,0.90,1.34,-2.06,-0.93,
0.723,0.04,0.03,0.90,1.22,-2.00,-0.68,
0.728,0.04,0.03,0.91,1.22,-2.00,-0.68,
0.729,0.03,0.03,0.91,1.22,-2.00,-0.68,
0.729,0.03,0.03,0.91,1.14,-1.90,-0.54,
0.729,0.03,0.04,0.91,1.14,-1.90,-0.54,
0.732,0.03,0.04,0.91,1.02,-1.83,-0.43,
0.732,0.03,0.04,0.90,1.02,-1.83,-0.43,
0.734,0.02,0.04,0.89,1.02,-1.83,-0.43,
0.737,0.02,0.04,0.89,0.94,-1.77,-0.46,
0.737,0.02,0.05,0.89,0.94,-1.77,-0.46,
0.739,0.02,0.05,0.88,0.94,-1.77,-0.46,
0.746,0.03,0.04,0.87,0.94,-1.77,-0.46,
0.747,0.03,0.04,0.87,0.88,-1.72,-0.55,
0.747,0.02,0.04,0.87,0.88,-1.72,-0.55,
0.748,0.02,0.04,0.87,0.90,-1.70,-0.70,
0.748,0.03,0.04,0.86,0.90,-1.70,-0.70,
0.749,0.03,0.04,0.85,0.90,-1.70,-0.70,
0.752,0.03,0.04,0.85,0.89,-1.73,-0.83,
0.752,0.04,0.05,0.85,0.89,-1.73,-0.83,
0.754,0.05,0.05,0.84,0.89,-1.73,-0.83,
0.758,0.06,0.05,0.84,0.89,-1.73,-0.83,
0.758,0.06,0.05,0.84,0.99,-1.67,-0.95,
0.771,0.06,0.05,0.83,0.99,-1.67,-0.95,
0.772,0.06,0.05,0.83,1.14,-1.59,-1.06,
0.773,0.07,0.05,0.83,1.14,-1.59,-1.06,
0.773,0.08,0.05,0.82,1.14,-1.59,-1.06,
0.774,0.09,0.05,0.82,1.14,-1.59,-1.06,
0.774,0.09,0.05,0.82,1.25,-1.62,-1.14,
0.774,0.09,0.05,0.82,1.25,-1.62,-1.14,
0.775,0.10,0.05,0.82,1.25,-1.62,-1.14,
0.775,0.10,0.05,0.82,1.40,-1.59,-1.22,
0.775,0.10,0.05,0.82,1.40,-1.59,-1.22,
0.783,0.11,0.05,0.82,1.40,-1.59,-1.22,
0.784,0.11,0.05,0.82,1.56,-1.60,-1.24,
0.784,0.12,0.05,0.82,1.56,-1.60,-1.24,
0.785,0.12,0.05,0.82,1.65,-1.59,-1.25,
0.785,0.13,0.05,0.82,1.65,-1.59,-1.25,
0.786,0.14,0.04,0.82,1.65,-1.59,-1.25,
0.788,0.14,0.04,0.82,1.80,-1.55,-1.26,
0.788,0.14,0.04,0.83,1.80,-1.55,-1.26,
0.789,0.15,0.04,0.83,1.80,-1.55,-1.26,
0.803,0.15,0.04,0.84,1.80,-1.55,-1.26,
0.804,0.15,0.04,0.84,1.91,-1.60,-1.21,
0.804,0.15,0.04,0.85,1.91,-1.60,-1.21,
0.805,0.16,0.04,0.85,1.91,-1.60,-1.21,
0.805,0.16,0.04,0.85,2.04,-1.59,-1.07,
0.806,0.17,0.04,0.86,2.04,-1.59,-1.07,
0.806,0.17,0.04,0.87,2.04,-1.59,-1.07,
0.806,0.17,0.04,0.87,2.09,-1.58,-0.93,
0.807,0.17,0.04,0.87,2.09,-1.58,-0.93,
0.807,0.17,0.05,0.88,2.09,-1.58,-0.93,
0.807,0.17,0.05,0.88,2.15,-1.52,-0.82,
0.815,0.17,0.05,0.89,2.15,-1.52,-0.82,
0.816,0.17,0.05,0.89,2.18,-1.48,-0.69,
0.816,0.16,0.06,0.90,2.18,-1.48,-0.69,
0.817,0.16,0.06,0.90,2.18,-1.48,-0.69,
0.817,0.16,0.07,0.91,2.18,-1.48,-0.69,
0.817,0.16,0.07,0.91,2.10,-1.37,-0.48,
0.822,0.16,0.07,0.92,2.10,-1.37,-0.48,
0.822,0.15,0.07,0.92,2.10,-1.37,-0.48,
0.823,0.15,0.07,0.92,2.03,-1.26,-0.40,
0.824,0.15,0.08,0.91,2.03,-1.26,-0.40,
0.832,0.15,0.07,0.92,2.03,-1.26,-0.40,
0.833,0.15,0.07,0.92,1.96,-1.16,-0.30,
0.833,0.15,0.07,0.91,1.96,-1.16,-0.30,
0.834,0.14,0.07,0.91,1.96,-1.16,-0.30,
0.835,0.14,0.07,0.91,1.90,-1.11,-0.32,
0.835,0.14,0.07,0.91,1.90,-1.11,-0.32,
0.837,0.14,0.07,0.91,1.82,-1.12,-0.35,
0.837,0.14,0.06,0.91,1.82,-1.12,-0.35,
0.839,0.14,0.06,0.90,1.82,-1.12,-0.35,
0.841,0.14,0.05,0.90,1.82,-1.12,-0.35,
0.841,0.14,0.05,0.90,1.73,-1.17,-0.41,
0.847,0.14,0.05,0.90,1.73,-1.17,-0.41,
0.847,0.15,0.04,0.90,1.73,-1.17,-0.41,
0.847,0.15,0.04,0.90,1.72,-1.25,-0.47,
0.849,0.14,0.04,0.90,1.72,-1.25,-0.47,
0.851,0.16,0.03,0.90,1.72,-1.25,-0.47,
0.851,0.16,0.03,0.90,1.74,-1.32,-0.51,
0.853,0.17,0.02,0.91,1.74,-1.32,-0.51,
0.856,0.17,0.01,0.92,1.74,-1.32,-0.51,
0.856,0.17,0.01,0.92,1.79,-1.43,-0.49,
0.868,0.19,0.01,0.93,1.79,-1.43,-0.49,
0.871,0.19,0.01,0.93,1.97,-1.55,-0.36,
0.871,0.20,0.00,0.95,1.97,-1.55,-0.36,
0.872,0.22,0.00,0.97,1.97,-1.55,-0.36,
0.872,0.23,-0.00,0.99,1.97,-1.55,-0.36,
0.872,0.23,-0.00,0.99,2.17,-1.62,-0.08,
0.872,0.25,-0.00,1.01,2.17,-1.62,-0.08,
0.872,0.25,-0.00,1.02,2.17,-1.62,-0.08,
0.872,0.25,-0.00,1.02,2.42,-1.65,0.26,
0.874,0.27,0.00,1.04,2.42,-1.65,0.26,
0.882,0.28,0.00,1.06,2.42,-1.65,0.26,
0.882,0.28,0.00,1.06,2.67,-1.63,0.64,
0.882,0.30,0.01,1.07,2.67,-1.63,0.64,
0.883,0.31,0.01,1.08,2.67,-1.63,0.64,
0.883,0.31,0.01,1.08,2.88,-1.55,0.94,
0.883,0.32,0.02,1.08,2.88,-1.55,0.94,
0.886,0.32,0.02,1.08,3.15,-1.46,1.14,
0.886,0.33,0.03,1.09,3.15,-1.46,1.14,
0.888,0.34,0.04,1.09,3.15,-1.46,1.14,
0.89,0.35,0.05,1.08,3.15,-1.46,1.14,
0.89,0.35,0.05,1.08,3.34,-1.24,1.29,
0.905,0.36,0.06,1.08,3.34,-1.24,1.29,
0.906,0.37,0.07,1.08,3.34,-1.24,1.29,
0.906,0.37,0.07,1.08,3.50,-1.04,1.29,
0.907,0.37,0.09,1.07,3.50,-1.04,1.29,
0.907,0.37,0.10,1.05,3.50,-1.04,1.29,
0.907,0.37,0.10,1.05,3.64,-0.79,1.25,
0.907,0.38,0.11,1.04,3.64,-0.79,1.25,
0.907,0.38,0.12,1.03,3.64,-0.79,1.25,
0.908,0.38,0.12,1.03,3.70,-0.56,1.03,
0.908,0.38,0.13,1.02,3.70,-0.56,1.03,
0.916,0.38,0.13,1.02,3.77,-0.31,0.80,
0.917,0.39,0.14,1.00,3.77,-0.31,0.80,
0.917,0.38,0.14,0.99,3.77,-0.31,0.80,
0.917,0.38,0.15,0.97,3.77,-0.31,0.80,
0.918,0.38,0.15,0.97,3.81,-0.09,0.50,
0.918,0.38,0.15,0.95,3.81,-0.09,0.50,
0.921,0.38,0.15,0.94,3.81,-0.09,0.50,
0.921,0.38,0.15,0.94,3.78,0.03,0.22,
0.924,0.37,0.15,0.93,3.78,0.03,0.22,
0.933,0.37,0.15,0.93,3.74,0.11,-0.10,
0.934,0.36,0.15,0.91,3.74,0.11,-0.10,
0.934,0.36,0.15,0.91,3.74,0.11,-0.10,
0.934,0.36,0.15,0.90,3.74,0.11,-0.10,
0.935,0.36,0.15,0.90,3.62,0.15,-0.37,
0.935,0.35,0.14,0.90,3.62,0.15,-0.37,
0.935,0.35,0.14,0.90,3.55,0.15,-0.49,
0.935,0.35,0.14,0.89,3.55,0.15,-0.49,
0.938,0.34,0.13,0.90,3.55,0.15,-0.49,
0.941,0.33,0.12,0.90,3.55,0.15,-0.49,
0.941,0.33,0.12,0.90,3.46,0.06,-0.59,
0.951,0.33,0.11,0.91,3.46,0.06,-0.59,
0.952,0.33,0.10,0.92,3.46,0.06,-0.59,
0.952,0.33,0.10,0.92,3.31,-0.06,-0.55,
0.952,0.32,0.09,0.93,3.31,-0.06,-0.55,
0.953,0.32,0.08,0.94,3.31,-0.06,-0.55,
0.953,0.32,0.08,0.94,3.21,-0.24,-0.41,
0.953,0.32,0.07,0.96,3.21,-0.24,-0.41,
0.956,0.32,0.06,0.97,3.21,-0.24,-0.41,
0.956,0.32,0.06,0.97,3.15,-0.35,-0.24,
0.958,0.32,0.06,0.98,3.15,-0.35,-0.24,
0.974,0.32,0.06,0.98,3.10,-0.51,0.02,
0.974,0.32,0.05,1.00,3.10,-0.51,0.02,
0.975,0.32,0.04,1.01,3.10,-0.51,0.02,
0.975,0.32,0.04,1.02,3.10,-0.51,0.02,
0.975,0.32,0.04,1.02,3.12,-0.60,0.28,
0.975,0.32,0.04,1.02,3.12,-0.60,0.28,
0.976,0.31,0.04,1.04,3.12,-0.60,0.28,
0.976,0.31,0.04,1.04,3.08,-0.69,0.49,
0.976,0.31,0.04,1.04,3.08,-0.69,0.49,
0.976,0.31,0.04,1.04,3.08,-0.69,0.49,
0.977,0.31,0.04,1.04,3.00,-0.67,0.68,
0.977,0.30,0.04,1.04,3.00,-0.67,0.68,
0.98,0.30,0.05,1.06,3.00,-0.67,0.68,
0.981,0.30,0.05,1.06,2.93,-0.62,0.77,
0.983,0.30,0.04,1.06,2.93,-0.62,0.77,
0.988,0.30,0.04,1.06,2.85,-0.57,0.84,
0.988,0.31,0.05,1.06,2.85,-0.57,0.84,
0.989,0.30,0.05,1.05,2.85,-0.57,0.84,
0.989,0.30,0.06,1.05,2.85,-0.57,0.84,
0.99,0.30,0.06,1.05,2.87,-0.49,0.92,
0.995,0.30,0.06,1.04,2.87,-0.49,0.92,
0.996,0.30,0.07,1.03,2.87,-0.49,0.92,
0.996,0.30,0.07,1.03,2.85,-0.40,0.85,
0.997,0.29,0.07,1.02,2.85,-0.40,0.85,
0.999,0.29,0.07,1.01,2.85,-0.40,0.85,
1.0,0.29,0.07,1.01,2.85,-0.28,0.66,
1.001,0.28,0.08,1.00,2.85,-0.28,0.66,
1.004,0.27,0.08,0.98,2.85,-0.28,0.66,
1.005,0.27,0.08,0.98,2.77,-0.18,0.48,
1.007,0.27,0.08,0.97,2.77,-0.18,0.48,
1.01,0.27,0.08,0.97,2.64,-0.08,0.23,
1.01,0.26,0.07,0.95,2.64,-0.08,0.23,
1.011,0.26,0.07,0.95,2.64,-0.08,0.23,
1.014,0.25,0.07,0.93,2.64,-0.08,0.23,
1.014,0.25,0.07,0.93,2.51,-0.05,-0.05,
1.016,0.25,0.06,0.93,2.51,-0.05,-0.05,
1.019,0.24,0.05,0.93,2.51,-0.05,-0.05,
1.019,0.24,0.05,0.93,2.43,-0.07,-0.26,
1.021,0.24,0.05,0.92,2.43,-0.07,-0.26,
1.024,0.24,0.03,0.93,2.43,-0.07,-0.26,
1.025,0.24,0.03,0.93,2.38,-0.16,-0.37,
1.028,0.24,0.02,0.93,2.38,-0.16,-0.37,
1.029,0.25,0.01,0.94,2.38,-0.16,-0.37,
1.03,0.25,0.01,0.94,2.36,-0.28,-0.39,
1.032,0.25,0.01,0.95,2.36,-0.28,-0.39,
1.034,0.25,0.01,0.95,2.40,-0.45,-0.30,
1.035,0.25,0.00,0.97,2.40,-0.45,-0.30,
1.037,0.25,-0.01,0.98,2.40,-0.45,-0.30,
1.039,0.25,-0.02,0.99,2.40,-0.45,-0.30,
1.04,0.25,-0.02,0.99,2.40,-0.54,-0.07,
1.041,0.25,-0.01,1.00,2.40,-0.54,-0.07,
1.044,0.26,-0.02,1.01,2.40,-0.54,-0.07,
1.045,0.26,-0.02,1.01,2.46,-0.66,0.16,
1.046,0.26,-0.02,1.01,2.46,-0.66,0.16,
1.049,0.26,-0.02,1.01,2.49,-0.68,0.35,
1.049,0.26,-0.01,1.01,2.49,-0.68,0.35,
1.051,0.26,-0.01,1.02,2.49,-0.68,0.35,
1.054,0.25,0.00,1.01,2.49,-0.68,0.35,
1.054,0.25,0.00,1.01,2.51,-0.61,0.43,
1.056,0.25,0.01,1.01,2.51,-0.61,0.43,
1.069,0.25,0.01,1.01,2.48,-0.46,0.45,
1.07,0.25,0.02,1.00,2.48,-0.46,0.45,
1.07,0.25,0.04,1.00,2.48,-0.46,0.45,
1.071,0.25,0.04,0.98,2.48,-0.46,0.45,
1.072,0.25,0.04,0.98,2.47,-0.26,0.35,
1.072,0.25,0.05,0.97,2.47,-0.26,0.35,
1.073,0.25,0.06,0.96,2.47,-0.26,0.35,
1.073,0.25,0.06,0.96,2.44,-0.01,0.20,
1.074,0.25,0.07,0.95,2.44,-0.01,0.20,
1.074,0.25,0.08,0.94,2.44,-0.01,0.20,
1.075,0.25,0.08,0.94,2.45,0.19,-0.02,
1.087,0.25,0.09,0.94,2.45,0.19,-0.02,
1.089,0.25,0.09,0.93,2.45,0.19,-0.02,
1.089,0.25,0.09,0.93,2.42,0.39,-0.20,
1.089,0.25,0.10,0.93,2.42,0.39,-0.20,
1.09,0.25,0.10,0.93,2.42,0.56,-0.36,
1.09,0.25,0.10,0.93,2.42,0.56,-0.36,
1.091,0.25,0.10,0.93,2.42,0.56,-0.36,
1.091,0.25,0.10,0.93,2.42,0.56,-0.36,
1.092,0.25,0.10,0.93,2.43,0.69,-0.39,
1.092,0.25,0.10,0.94,2.43,0.69,-0.39,
1.095,0.25,0.09,0.95,2.43,0.69,-0.39,
1.096,0.25,0.09,0.95,2.41,0.75,-0.37,
1.096,0.25,0.09,0.96,2.41,0.75,-0.37,
1.098,0.25,0.09,0.98,2.41,0.75,-0.37,
1.099,0.25,0.09,0.98,2.41,0.73,-0.27,
1.1,0.25,0.08,1.00,2.41,0.73,-0.27,
1.103,0.26,0.07,1.03,2.41,0.73,-0.27,
1.103,0.26,0.07,1.03,2.44,0.69,0.04,
1.105,0.26,0.06,1.05,2.44,0.69,0.04,
1.108,0.26,0.06,1.05,2.46,0.58,0.47,
1.108,0.27,0.06,1.08,2.46,0.58,0.47,
1.111,0.27,0.05,1.10,2.46,0.58,0.47,
1.113,0.27,0.04,1.13,2.46,0.58,0.47,
1.113,0.27,0.04,1.13,2.53,0.48,0.94,
1.115,0.27,0.04,1.16,2.53,0.48,0.94,
1.118,0.27,0.03,1.17,2.53,0.48,0.94,
1.118,0.27,0.03,1.17,2.57,0.38,1.44,
1.12,0.27,0.03,1.19,2.57,0.38,1.44,
1.123,0.27,0.02,1.20,2.57,0.38,1.44,
1.123,0.27,0.02,1.20,2.54,0.30,1.90,
1.127,0.26,0.02,1.21,2.54,0.30,1.90,
1.128,0.26,0.02,1.22,2.54,0.30,1.90,
1.128,0.26,0.02,1.22,2.47,0.19,2.18,
1.13,0.26,0.02,1.22,2.47,0.19,2.18,
1.133,0.26,0.02,1.22,2.37,0.17,2.37,
1.133,0.25,0.02,1.22,2.37,0.17,2.37,
1.135,0.25,0.02,1.22,2.37,0.17,2.37,
1.138,0.25,0.02,1.22,2.28,0.14,2.42,
1.138,0.25,0.02,1.21,2.28,0.14,2.42,
1.14,0.25,0.03,1.20,2.28,0.14,2.42,
1.144,0.25,0.03,1.19,2.28,0.14,2.42,
1.145,0.25,0.03,1.19,2.17,0.20,2.36,
1.145,0.25,0.03,1.17,2.17,0.20,2.36,
1.148,0.25,0.04,1.17,2.17,0.20,2.36,
1.151,0.25,0.04,1.17,2.14,0.25,2.14,
1.152,0.25,0.04,1.15,2.14,0.25,2.14,
1.152,0.25,0.05,1.13,2.14,0.25,2.14,
1.153,0.25,0.05,1.13,2.15,0.32,1.91,
1.155,0.25,0.05,1.12,2.15,0.32,1.91,
1.159,0.25,0.05,1.12,2.12,0.39,1.64,
1.159,0.25,0.06,1.11,2.12,0.39,1.64,
1.167,0.25,0.06,1.10,2.12,0.39,1.64,
1.167,0.25,0.07,1.09,2.12,0.39,1.64,
1.168,0.25,0.07,1.09,2.10,0.51,1.39,
1.168,0.25,0.07,1.08,2.10,0.51,1.39,
1.169,0.25,0.08,1.06,2.10,0.51,1.39,
1.17,0.25,0.08,1.06,2.11,0.60,1.14,
1.17,0.25,0.08,1.05,2.11,0.60,1.14,
1.174,0.25,0.08,1.05,2.11,0.60,1.14,
1.175,0.25,0.08,1.05,2.09,0.73,0.92,
1.175,0.26,0.09,1.05,2.09,0.73,0.92,
1.178,0.25,0.08,1.04,2.09,0.73,0.92,
1.179,0.25,0.08,1.04,2.09,0.80,0.75,
1.18,0.25,0.08,1.05,2.09,0.80,0.75,
1.183,0.25,0.08,1.05,2.12,0.85,0.69,
1.183,0.25,0.09,1.05,2.12,0.85,0.69,
1.184,0.25,0.08,1.05,2.12,0.85,0.69,
1.188,0.25,0.08,1.07,2.12,0.85,0.69,
1.188,0.25,0.08,1.07,2.08,0.85,0.72,
1.19,0.25,0.08,1.07,2.08,0.85,0.72,
1.195,0.25,0.07,1.08,2.08,0.85,0.72,
1.195,0.25,0.07,1.08,2.05,0.81,0.82,
1.195,0.25,0.07,1.09,2.05,0.81,0.82,
1.198,0.24,0.06,1.10,2.05,0.81,0.82,
1.198,0.24,0.06,1.10,2.06,0.78,0.97,
1.2,0.24,0.05,1.11,2.06,0.78,0.97,
1.203,0.25,0.05,1.11,2.06,0.78,0.97,
1.203,0.25,0.05,1.11,1.98,0.69,1.15,
1.205,0.25,0.04,1.12,1.98,0.69,1.15,
1.208,0.25,0.04,1.12,1.99,0.57,1.31,
1.208,0.24,0.03,1.13,1.99,0.57,1.31,
1.212,0.24,0.02,1.13,1.99,0.57,1.31,
1.212,0.24,0.01,1.14,1.99,0.57,1.31,
1.213,0.24,0.01,1.14,1.98,0.42,1.42,
1.216,0.24,-0.00,1.13,1.98,0.42,1.42,
1.217,0.24,-0.01,1.14,1.98,0.42,1.42,
1.218,0.24,-0.01,1.14,1.94,0.28,1.53,
1.22,0.23,-0.01,1.14,1.94,0.28,1.53,
1.223,0.22,-0.02,1.14,1.94,0.28,1.53,
1.224,0.22,-0.02,1.14,1.85,0.10,1.54,
1.225,0.22,-0.02,1.13,1.85,0.10,1.54,
1.228,0.21,-0.02,1.13,1.85,0.10,1.54,
1.229,0.21,-0.02,1.13,1.74,0.00,1.58,
1.229,0.21,-0.02,1.12,1.74,0.00,1.58,
1.234,0.21,-0.02,1.12,1.62,-0.05,1.50,
1.234,0.20,-0.02,1.12,1.62,-0.05,1.50,
1.234,0.20,-0.02,1.12,1.62,-0.05,1.50,
1.238,0.19,-0.02,1.11,1.62,-0.05,1.50,
1.238,0.19,-0.02,1.11,1.47,-0.05,1.39,
1.24,0.19,-0.02,1.11,1.47,-0.05,1.39,
1.243,0.19,-0.01,1.11,1.47,-0.05,1.39,
1.243,0.19,-0.01,1.11,1.37,-0.01,1.34,
1.246,0.19,-0.01,1.10,1.37,-0.01,1.34,
1.248,0.19,-0.01,1.10,1.37,-0.01,1.34,
1.248,0.19,-0.01,1.10,1.29,0.03,1.27,
1.249,0.18,-0.01,1.10,1.29,0.03,1.27,
1.253,0.18,-0.01,1.10,1.24,0.08,1.17,
1.253,0.18,-0.01,1.10,1.24,0.08,1.17,
1.255,0.19,-0.01,1.09,1.24,0.08,1.17,
1.258,0.19,-0.01,1.09,1.17,0.10,1.16,
1.258,0.18,-0.00,1.09,1.17,0.10,1.16,
1.26,0.18,-0.00,1.09,1.17,0.10,1.16,
1.266,0.19,-0.00,1.10,1.17,0.10,1.16,
1.267,0.19,-0.00,1.10,1.18,0.12,1.11,
1.267,0.19,-0.01,1.09,1.18,0.12,1.11,
1.267,0.18,-0.01,1.10,1.18,0.12,1.11,
1.267,0.18,-0.01,1.10,1.19,0.15,1.12,
1.27,0.19,-0.02,1.10,1.19,0.15,1.12,
1.272,0.18,-0.02,1.10,1.19,0.15,1.12,
1.272,0.18,-0.02,1.10,1.16,0.10,1.12,
1.274,0.18,-0.03,1.10,1.16,0.10,1.12,
1.278,0.18,-0.03,1.10,1.15,0.01,1.14,
1.279,0.18,-0.03,1.10,1.15,0.01,1.14,
1.279,0.18,-0.03,1.10,1.15,0.01,1.14,
1.282,0.18,-0.03,1.10,1.13,-0.10,1.15,
1.282,0.18,-0.04,1.10,1.13,-0.10,1.15,
1.284,0.17,-0.05,1.09,1.13,-0.10,1.15,
1.288,0.17,-0.05,1.09,1.13,-0.10,1.15,
1.288,0.17,-0.05,1.09,1.10,-0.18,1.14,
1.29,0.16,-0.06,1.10,1.10,-0.18,1.14,
1.292,0.16,-0.07,1.10,1.10,-0.18,1.14,
1.293,0.16,-0.07,1.10,1.01,-0.30,1.06,
1.295,0.15,-0.07,1.09,1.01,-0.30,1.06,
1.297,0.15,-0.08,1.09,1.01,-0.30,1.06,
1.298,0.15,-0.08,1.09,0.91,-0.42,1.12,
1.3,0.15,-0.08,1.09,0.91,-0.42,1.12,
1.302,0.15,-0.09,1.09,0.91,-0.42,1.12,
1.302,0.15,-0.09,1.09,0.84,-0.51,1.07,
1.304,0.15,-0.09,1.09,0.84,-0.51,1.07,
1.307,0.15,-0.09,1.09,0.81,-0.65,1.09,
1.308,0.16,-0.10,1.09,0.81,-0.65,1.09,
1.31,0.16,-0.10,1.09,0.81,-0.65,1.09,
1.313,0.15,-0.10,1.09,0.81,-0.65,1.09,
1.314,0.15,-0.10,1.09,0.84,-0.74,1.09,
1.317,0.15,-0.11,1.09,0.84,-0.74,1.09,
1.317,0.14,-0.11,1.09,0.84,-0.74,1.09,
1.318,0.14,-0.11,1.09,0.82,-0.79,1.09,
1.319,0.14,-0.11,1.09,0.82,-0.79,1.09,
1.321,0.13,-0.11,1.09,0.82,-0.79,1.09,
1.322,0.13,-0.11,1.09,0.71,-0.85,1.05,
1.323,0.12,-0.11,1.09,0.71,-0.85,1.05,
1.326,0.12,-0.11,1.09,0.71,-0.85,1.05,
1.326,0.12,-0.11,1.09,0.58,-0.84,1.06,
1.329,0.11,-0.11,1.08,0.58,-0.84,1.06,
1.331,0.11,-0.11,1.08,0.45,-0.84,1.02,
1.331,0.10,-0.10,1.08,0.45,-0.84,1.02,
1.333,0.10,-0.10,1.07,0.45,-0.84,1.02,
1.336,0.10,-0.10,1.07,0.30,-0.83,0.93,
1.336,0.09,-0.10,1.07,0.30,-0.83,0.93,
1.338,0.08,-0.10,1.06,0.30,-0.83,0.93,
1.341,0.07,-0.10,1.05,0.30,-0.83,0.93,
1.341,0.07,-0.10,1.05,0.19,-0.80,0.85,
1.346,0.06,-0.10,1.05,0.19,-0.80,0.85,
1.347,0.06,-0.10,1.04,0.19,-0.80,0.85,
1.347,0.06,-0.10,1.04,0.01,-0.81,0.73,
1.348,0.06,-0.10,1.04,0.01,-0.81,0.73,
1.351,0.06,-0.10,1.03,0.01,-0.81,0.73,
1.351,0.06,-0.10,1.03,-0.12,-0.81,0.60,
1.353,0.05,-0.10,1.03,-0.12,-0.81,0.60,
1.356,0.05,-0.10,1.03,-0.18,-0.80,0.48,
1.357,0.05,-0.10,1.02,-0.18,-0.80,0.48,
1.358,0.05,-0.11,1.02,-0.18,-0.80,0.48,
1.362,0.04,-0.11,1.01,-0.18,-0.80,0.48,
1.363,0.04,-0.11,1.01,-0.27,-0.81,0.38,
1.363,0.05,-0.11,1.01,-0.27,-0.81,0.38,
1.366,0.05,-0.11,1.01,-0.27,-0.81,0.38,
1.366,0.05,-0.11,1.01,-0.28,-0.88,0.30,
1.369,0.05,-0.11,1.02,-0.28,-0.88,0.30,
1.371,0.05,-0.11,1.02,-0.28,-0.88,0.30,
1.371,0.05,-0.11,1.02,-0.28,-0.90,0.28,
1.373,0.05,-0.11,1.02,-0.28,-0.90,0.28,
1.376,0.05,-0.11,1.02,-0.25,-0.91,0.36,
1.376,0.06,-0.12,1.02,-0.25,-0.91,0.36,
1.385,0.07,-0.12,1.02,-0.25,-0.91,0.36,
1.386,0.07,-0.12,1.02,-0.22,-0.99,0.33,
1.387,0.07,-0.11,1.02,-0.22,-0.99,0.33,
1.387,0.07,-0.11,1.01,-0.22,-0.99,0.33,
1.388,0.08,-0.11,1.01,-0.22,-0.99,0.33,
1.388,0.08,-0.11,1.01,-0.15,-0.99,0.35,
1.388,0.08,-0.11,1.01,-0.15,-0.99,0.35,
1.39,0.09,-0.11,1.00,-0.15,-0.99,0.35,
1.391,0.09,-0.11,1.00,-0.11,-0.98,0.23,
1.393,0.09,-0.11,1.00,-0.11,-0.98,0.23,
1.403,0.09,-0.12,1.00,-0.11,-0.98,0.23,
1.404,0.09,-0.12,1.00,-0.02,-0.98,0.21,
1.405,0.09,-0.12,0.99,-0.02,-0.98,0.21,
1.405,0.10,-0.12,0.99,-0.02,-0.98,0.21,
1.405,0.10,-0.12,0.99,0.01,-1.04,0.15,
1.406,0.10,-0.12,1.00,0.01,-1.04,0.15,
1.406,0.10,-0.12,1.00,0.02,-1.10,0.09,
1.406,0.09,-0.12,0.99,0.02,-1.10,0.09,
1.407,0.09,-0.12,0.99,0.02,-1.10,0.09,
1.412,0.09,-0.11,0.99,0.02,-1.10,0.09,
1.413,0.09,-0.11,0.99,0.02,-1.10,0.11,
1.413,0.08,-0.12,0.99,0.02,-1.10,0.11,
1.415,0.08,-0.11,0.99,0.02,-1.10,0.11,
1.415,0.08,-0.11,0.99,-0.07,-1.06,0.07,
1.418,0.07,-0.11,0.99,-0.07,-1.06,0.07,
1.42,0.07,-0.12,0.99,-0.07,-1.06,0.07,
1.42,0.07,-0.12,0.99,-0.14,-1.06,0.07,
1.422,0.06,-0.11,0.98,-0.14,-1.06,0.07,
1.425,0.06,-0.11,0.99,-0.14,-1.06,0.07,
1.425,0.06,-0.11,0.99,-0.23,-1.04,0.09,
1.428,0.05,-0.11,0.99,-0.23,-1.04,0.09,
1.431,0.05,-0.11,0.99,-0.32,-0.97,0.02,
1.431,0.04,-0.11,0.98,-0.32,-0.97,0.02,
1.432,0.04,-0.11,0.98,-0.32,-0.97,0.02,
1.435,0.03,-0.12,0.98,-0.32,-0.97,0.02,
1.435,0.03,-0.12,0.98,-0.44,-1.00,0.01,
1.437,0.02,-0.12,0.97,-0.44,-1.00,0.01,
1.441,0.02,-0.12,0.97,-0.44,-1.00,0.01,
1.442,0.02,-0.12,0.97,-0.55,-1.05,-0.05,
1.442,0.01,-0.13,0.97,-0.55,-1.05,-0.05,
1.446,0.01,-0.13,0.97,-0.55,-1.05,-0.05,
1.447,0.01,-0.13,0.97,-0.63,-1.08,-0.10,
1.448,0.00,-0.13,0.98,-0.63,-1.08,-0.10,
1.45,-0.00,-0.14,0.97,-0.63,-1.08,-0.10,
1.45,-0.00,-0.14,0.97,-0.74,-1.14,-0.13,
1.452,-0.00,-0.14,0.97,-0.74,-1.14,-0.13,
1.455,-0.00,-0.14,0.97,-0.83,-1.21,-0.10,
1.456,-0.01,-0.14,0.97,-0.83,-1.21,-0.10,
1.457,-0.01,-0.15,0.97,-0.83,-1.21,-0.10,
1.46,-0.01,-0.15,0.97,-0.83,-1.21,-0.10,
1.46,-0.01,-0.15,0.97,-0.86,-1.30,-0.15,
1.463,-0.01,-0.15,0.97,-0.86,-1.30,-0.15,
1.465,-0.01,-0.15,0.97,-0.86,-1.30,-0.15,
1.465,-0.01,-0.15,0.97,-0.90,-1.34,-0.14,
1.467,-0.01,-0.15,0.97,-0.90,-1.34,-0.14,
1.47,-0.01,-0.16,0.96,-0.90,-1.34,-0.14,
1.47,-0.01,-0.16,0.96,-0.93,-1.36,-0.16,
1.472,-0.01,-0.15,0.96,-0.93,-1.36,-0.16,
1.474,-0.01,-0.15,0.96,-0.93,-1.36,-0.16,
1.475,-0.01,-0.15,0.96,-0.92,-1.39,-0.19,
1.477,-0.01,-0.15,0.95,-0.92,-1.39,-0.19,
1.481,-0.01,-0.15,0.95,-0.92,-1.35,-0.20,
1.481,-0.01,-0.14,0.95,-0.92,-1.35,-0.20,
1.489,-0.01,-0.14,0.95,-0.92,-1.35,-0.20,
1.49,-0.01,-0.13,0.94,-0.92,-1.35,-0.20,
1.49,-0.01,-0.13,0.94,-0.95,-1.29,-0.30,
1.49,-0.01,-0.13,0.94,-0.95,-1.29,-0.30,
1.49,-0.01,-0.12,0.94,-0.95,-1.29,-0.30,
1.491,-0.01,-0.12,0.94,-0.98,-1.22,-0.37,
1.492,-0.02,-0.12,0.94,-0.98,-1.22,-0.37,
1.499,-0.03,-0.11,0.94,-0.98,-1.22,-0.37,
1.499,-0.03,-0.11,0.94,-1.03,-1.13,-0.40,
1.5,-0.03,-0.11,0.94,-1.03,-1.13,-0.40,
1.5,-0.03,-0.10,0.93,-1.03,-1.13,-0.40,
1.5,-0.03,-0.10,0.93,-1.14,-1.04,-0.42,
1.502,-0.04,-0.10,0.94,-1.14,-1.04,-0.42,
1.505,-0.04,-0.10,0.94,-1.22,-0.95,-0.47,
1.505,-0.04,-0.10,0.93,-1.22,-0.95,-0.47,
1.507,-0.03,-0.09,0.93,-1.22,-0.95,-0.47,
1.511,-0.03,-0.09,0.93,-1.22,-0.95,-0.47,
1.511,-0.03,-0.09,0.93,-1.26,-0.87,-0.47,
1.511,-0.04,-0.09,0.93,-1.26,-0.87,-0.47,
1.517,-0.04,-0.09,0.93,-1.26,-0.87,-0.47,
1.518,-0.04,-0.09,0.93,-1.24,-0.80,-0.48,
1.518,-0.03,-0.09,0.93,-1.24,-0.80,-0.48,
1.519,-0.04,-0.09,0.92,-1.24,-0.80,-0.48,
1.519,-0.04,-0.09,0.92,-1.27,-0.79,-0.52,
1.521,-0.04,-0.09,0.92,-1.27,-0.79,-0.52,
1.524,-0.04,-0.09,0.92,-1.27,-0.79,-0.52,
1.524,-0.04,-0.09,0.92,-1.28,-0.76,-0.55,
1.526,-0.05,-0.09,0.92,-1.28,-0.76,-0.55,
1.531,-0.05,-0.09,0.92,-1.33,-0.77,-0.57,
1.531,-0.05,-0.09,0.92,-1.33,-0.77,-0.57,
1.531,-0.05,-0.09,0.93,-1.33,-0.77,-0.57,
1.535,-0.05,-0.08,0.92,-1.33,-0.77,-0.57,
1.535,-0.05,-0.08,0.92,-1.35,-0.74,-0.59,
1.536,-0.04,-0.08,0.92,-1.35,-0.74,-0.59,
1.54,-0.04,-0.08,0.92,-1.35,-0.74,-0.59,
1.54,-0.04,-0.08,0.92,-1.38,-0.72,-0.56,
1.542,-0.04,-0.08,0.93,-1.38,-0.72,-0.56,
1.545,-0.04,-0.08,0.93,-1.38,-0.72,-0.56,
1.545,-0.04,-0.08,0.93,-1.31,-0.68,-0.56,
1.547,-0.04,-0.08,0.94,-1.31,-0.68,-0.56,
1.549,-0.04,-0.08,0.94,-1.31,-0.68,-0.56,
1.55,-0.04,-0.08,0.94,-1.31,-0.66,-0.54,
1.551,-0.03,-0.08,0.94,-1.31,-0.66,-0.54,
1.555,-0.03,-0.08,0.94,-1.28,-0.65,-0.43,
1.555,-0.03,-0.08,0.94,-1.28,-0.65,-0.43,
1.557,-0.03,-0.08,0.95,-1.28,-0.65,-0.43,
1.559,-0.03,-0.08,0.95,-1.28,-0.65,-0.43,
1.56,-0.03,-0.08,0.95,-1.24,-0.65,-0.39,
1.562,-0.03,-0.08,0.96,-1.24,-0.65,-0.39,
1.564,-0.03,-0.08,0.96,-1.24,-0.65,-0.39,
1.565,-0.03,-0.08,0.96,-1.26,-0.63,-0.28,
1.567,-0.03,-0.08,0.96,-1.26,-0.63,-0.28,
1.569,-0.04,-0.08,0.97,-1.26,-0.63,-0.28,
1.569,-0.04,-0.08,0.97,-1.28,-0.63,-0.21,
1.572,-0.04,-0.08,0.98,-1.28,-0.63,-0.21,
1.574,-0.04,-0.08,0.98,-1.28,-0.63,-0.21,
1.575,-0.04,-0.08,0.98,-1.32,-0.65,-0.14,
1.577,-0.05,-0.09,0.99,-1.32,-0.65,-0.14,
1.58,-0.05,-0.08,0.99,-1.32,-0.65,-0.14,
1.581,-0.05,-0.08,0.99,-1.39,-0.65,-0.01,
1.581,-0.06,-0.09,0.99,-1.39,-0.65,-0.01,
1.584,-0.06,-0.09,1.00,-1.39,-0.65,-0.01,
1.584,-0.06,-0.09,1.00,-1.47,-0.67,0.09,
1.587,-0.07,-0.09,1.00,-1.47,-0.67,0.09,
1.589,-0.08,-0.09,1.01,-1.47,-0.67,0.09,
1.59,-0.08,-0.09,1.01,-1.58,-0.69,0.16,
1.592,-0.09,-0.09,1.01,-1.58,-0.69,0.16,
1.594,-0.10,-0.10,1.01,-1.58,-0.69,0.16,
1.595,-0.10,-0.10,1.01,-1.70,-0.69,0.26,
1.602,-0.10,-0.10,1.02,-1.70,-0.69,0.26,
1.603,-0.10,-0.10,1.02,-1.85,-0.73,0.31,
1.603,-0.11,-0.11,1.02,-1.85,-0.73,0.31,
1.603,-0.12,-0.11,1.01,-1.85,-0.73,0.31,
1.604,-0.12,-0.11,1.01,-1.99,-0.81,0.37,
1.604,-0.13,-0.12,1.02,-1.99,-0.81,0.37,
1.606,-0.14,-0.12,1.02,-1.99,-0.81,0.37,
1.608,-0.15,-0.13,1.02,-1.99,-0.81,0.37,
1.609,-0.15,-0.13,1.02,-2.14,-0.90,0.35,
1.611,-0.16,-0.13,1.01,-2.14,-0.90,0.35,
1.613,-0.16,-0.13,1.01,-2.14,-0.90,0.35,
1.614,-0.16,-0.13,1.01,-2.33,-0.98,0.39,
1.616,-0.17,-0.14,1.01,-2.33,-0.98,0.39,
1.619,-0.18,-0.15,1.00,-2.33,-0.98,0.39,
1.619,-0.18,-0.15,1.00,-2.47,-1.06,0.32,
1.621,-0.18,-0.15,1.00,-2.47,-1.06,0.32,
1.624,-0.18,-0.15,1.00,-2.47,-1.06,0.32,
1.624,-0.18,-0.15,1.00,-2.63,-1.16,0.26,
1.626,-0.19,-0.16,1.00,-2.63,-1.16,0.26,
1.629,-0.19,-0.16,1.00,-2.71,-1.25,0.19,
1.629,-0.19,-0.16,0.99,-2.71,-1.25,0.19,
1.63,-0.19,-0.15,0.99,-2.71,-1.25,0.19,
1.634,-0.20,-0.15,0.98,-2.71,-1.25,0.19,
1.634,-0.20,-0.15,0.98,-2.78,-1.28,0.15,
1.635,-0.19,-0.14,0.98,-2.78,-1.28,0.15,
1.638,-0.20,-0.14,0.97,-2.78,-1.28,0.15,
1.639,-0.20,-0.14,0.97,-2.83,-1.24,0.04,
1.641,-0.20,-0.14,0.98,-2.83,-1.24,0.04,
1.644,-0.20,-0.13,0.97,-2.83,-1.24,0.04,
1.648,-0.20,-0.13,0.97,-2.84,-1.15,-0.05,
1.648,-0.20,-0.12,0.97,-2.84,-1.15,-0.05,
1.648,-0.20,-0.11,0.97,-2.84,-1.15,-0.05,
1.649,-0.20,-0.11,0.97,-2.87,-1.04,-0.05,
1.651,-0.20,-0.10,0.97,-2.87,-1.04,-0.05,
1.653,-0.20,-0.10,0.97,-2.85,-0.92,-0.10,
1.653,-0.20,-0.10,0.96,-2.85,-0.92,-0.10,
1.655,-0.20,-0.10,0.97,-2.85,-0.92,-0.10,
1.658,-0.19,-0.09,0.96,-2.85,-0.92,-0.10,
1.658,-0.19,-0.09,0.96,-2.86,-0.76,-0.14,
1.66,-0.19,-0.09,0.97,-2.86,-0.76,-0.14,
1.663,-0.20,-0.08,0.96,-2.86,-0.76,-0.14,
1.664,-0.20,-0.08,0.96,-2.86,-0.69,-0.14,
1.665,-0.20,-0.08,0.97,-2.86,-0.69,-0.14,
1.668,-0.19,-0.08,0.97,-2.86,-0.69,-0.14,
1.668,-0.19,-0.08,0.97,-2.86,-0.59,-0.14,
1.67,-0.20,-0.08,0.97,-2.86,-0.59,-0.14,
1.672,-0.19,-0.08,0.98,-2.86,-0.59,-0.14,
1.673,-0.19,-0.08,0.98,-2.89,-0.53,-0.10,
1.675,-0.19,-0.08,0.99,-2.89,-0.53,-0.10,
1.677,-0.19,-0.08,0.99,-2.88,-0.53,-0.01,
1.678,-0.19,-0.08,0.99,-2.88,-0.53,-0.01,
1.68,-0.18,-0.08,1.00,-2.88,-0.53,-0.01,
1.683,-0.19,-0.08,1.01,-2.88,-0.53,-0.01,
1.683,-0.19,-0.08,1.01,-2.81,-0.56,0.08,
1.685,-0.19,-0.08,1.01,-2.81,-0.56,0.08,
1.688,-0.19,-0.08,1.02,-2.81,-0.56,0.08,
1.688,-0.19,-0.08,1.02,-2.78,-0.56,0.23,
1.69,-0.19,-0.09,1.03,-2.78,-0.56,0.23,
1.692,-0.19,-0.09,1.03,-2.80,-0.55,0.34,
1.693,-0.19,-0.09,1.03,-2.80,-0.55,0.34,
1.695,-0.18,-0.09,1.03,-2.80,-0.55,0.34,
1.705,-0.18,-0.09,1.03,-2.80,-0.55,0.34,
1.706,-0.18,-0.09,1.03,-2.79,-0.61,0.49,
1.706,-0.18,-0.09,1.04,-2.79,-0.61,0.49,
1.707,-0.18,-0.09,1.04,-2.79,-0.61,0.52,
1.707,-0.19,-0.09,1.04,-2.79,-0.61,0.52,
1.708,-0.20,-0.09,1.04,-2.79,-0.61,0.52,
1.708,-0.21,-0.09,1.04,-2.79,-0.61,0.52,
1.709,-0.21,-0.09,1.04,-2.82,-0.61,0.58,
1.71,-0.21,-0.09,1.04,-2.82,-0.61,0.58,
1.723,-0.21,-0.09,1.04,-2.97,-0.65,0.62,
1.723,-0.22,-0.09,1.04,-2.97,-0.65,0.62,
1.724,-0.23,-0.09,1.04,-2.97,-0.65,0.62,
1.724,-0.23,-0.09,1.04,-2.97,-0.65,0.62,
1.725,-0.23,-0.09,1.04,-3.10,-0.62,0.63,
1.725,-0.23,-0.09,1.05,-3.10,-0.62,0.63,
1.725,-0.23,-0.09,1.05,-3.10,-0.62,0.63,
1.725,-0.23,-0.09,1.05,-3.22,-0.59,0.62,
1.726,-0.23,-0.09,1.05,-3.22,-0.59,0.62,
1.727,-0.23,-0.09,1.05,-3.22,-0.59,0.62,
1.727,-0.23,-0.09,1.05,-3.26,-0.61,0.66,
1.73,-0.23,-0.08,1.04,-3.26,-0.61,0.66,
1.732,-0.23,-0.08,1.05,-3.26,-0.61,0.66,
1.732,-0.23,-0.08,1.05,-3.27,-0.60,0.67,
1.734,-0.23,-0.08,1.05,-3.27,-0.60,0.67,
1.737,-0.23,-0.08,1.05,-3.27,-0.60,0.67,
1.737,-0.23,-0.08,1.05,-3.31,-0.55,0.68,
1.739,-0.23,-0.08,1.05,-3.31,-0.55,0.68,
1.742,-0.22,-0.08,1.05,-3.31,-0.55,0.68,
1.742,-0.22,-0.08,1.05,-3.28,-0.53,0.71,
1.744,-0.22,-0.07,1.05,-3.28,-0.53,0.71,
1.746,-0.23,-0.07,1.05,-3.28,-0.53,0.71,
1.747,-0.23,-0.07,1.05,-3.24,-0.51,0.72,
1.749,-0.23,-0.07,1.05,-3.24,-0.51,0.72,
1.751,-0.23,-0.07,1.05,-3.23,-0.47,0.70,
1.752,-0.23,-0.07,1.05,-3.23,-0.47,0.70,
1.754,-0.23,-0.07,1.04,-3.23,-0.47,0.70,
1.756,-0.23,-0.07,1.04,-3.27,-0.43,0.69,
1.757,-0.23,-0.06,1.05,-3.27,-0.43,0.69,
1.759,-0.23,-0.06,1.04,-3.27,-0.43,0.69,
1.761,-0.24,-0.06,1.05,-3.27,-0.43,0.69,
1.761,-0.24,-0.06,1.05,-3.29,-0.39,0.65,
1.765,-0.24,-0.06,1.04,-3.29,-0.39,0.65,
1.767,-0.24,-0.06,1.03,-3.29,-0.39,0.65,
1.767,-0.24,-0.06,1.03,-3.32,-0.34,0.64,
1.768,-0.25,-0.06,1.02,-3.32,-0.34,0.64,
1.771,-0.25,-0.06,1.02,-3.32,-0.34,0.64,
1.771,-0.25,-0.06,1.02,-3.38,-0.33,0.52,
1.774,-0.25,-0.06,1.02,-3.38,-0.33,0.52,
1.776,-0.25,-0.06,1.02,-3.39,-0.28,0.40,
1.776,-0.25,-0.06,1.01,-3.39,-0.28,0.40,
1.778,-0.25,-0.06,1.01,-3.39,-0.28,0.40,
1.785,-0.25,-0.06,1.01,-3.39,-0.28,0.40,
1.785,-0.25,-0.06,1.01,-3.41,-0.32,0.34,
1.786,-0.25,-0.06,1.00,-3.41,-0.32,0.34,
1.786,-0.24,-0.06,1.01,-3.41,-0.32,0.34,
1.786,-0.24,-0.06,1.01,-3.38,-0.34,0.28,
1.788,-0.24,-0.06,1.01,-3.38,-0.34,0.28,
1.791,-0.23,-0.06,1.01,-3.38,-0.34,0.28,
1.791,-0.23,-0.06,1.01,-3.32,-0.35,0.28,
1.793,-0.23,-0.07,1.01,-3.32,-0.35,0.28,
1.797,-0.22,-0.06,1.02,-3.32,-0.35,0.28,
1.797,-0.22,-0.06,1.02,-3.22,-0.33,0.31,
1.798,-0.22,-0.06,1.02,-3.22,-0.33,0.31,
1.801,-0.22,-0.06,1.02,-3.13,-0.35,0.36,
1.801,-0.22,-0.05,1.02,-3.13,-0.35,0.36,
1.803,-0.21,-0.05,1.03,-3.13,-0.35,0.36,
1.806,-0.21,-0.05,1.03,-3.06,-0.28,0.41,
1.806,-0.21,-0.05,1.03,-3.06,-0.28,0.41,
1.81,-0.21,-0.04,1.04,-3.06,-0.28,0.41,
1.811,-0.20,-0.04,1.04,-3.06,-0.28,0.41,
1.811,-0.20,-0.04,1.04,-3.02,-0.21,0.53,
1.816,-0.21,-0.04,1.05,-3.02,-0.21,0.53,
1.817,-0.20,-0.04,1.05,-3.02,-0.21,0.53,
1.817,-0.20,-0.04,1.05,-2.99,-0.13,0.57,
1.818,-0.20,-0.04,1.06,-2.99,-0.13,0.57,
1.821,-0.19,-0.04,1.06,-2.99,-0.13,0.57,
1.821,-0.19,-0.04,1.06,-2.98,-0.14,0.67,
1.823,-0.19,-0.04,1.07,-2.98,-0.14,0.67,
1.826,-0.19,-0.04,1.07,-2.90,-0.09,0.77,
1.826,-0.18,-0.03,1.07,-2.90,-0.09,0.77,
1.832,-0.18,-0.04,1.08,-2.90,-0.09,0.77,
1.832,-0.18,-0.04,1.08,-2.90,-0.09,0.77,
1.833,-0.18,-0.04,1.08,-2.82,-0.08,0.87,
1.836,-0.17,-0.04,1.09,-2.82,-0.08,0.87,
1.836,-0.17,-0.04,1.10,-2.82,-0.08,0.87,
1.837,-0.17,-0.04,1.10,-2.76,-0.11,1.01,
1.839,-0.17,-0.04,1.11,-2.76,-0.11,1.01,
1.842,-0.17,-0.05,1.11,-2.76,-0.11,1.01,
1.842,-0.17,-0.05,1.11,-2.67,-0.14,1.10,
1.844,-0.16,-0.05,1.11,-2.67,-0.14,1.10,
1.848,-0.16,-0.04,1.12,-2.67,-0.14,1.10,
1.848,-0.16,-0.04,1.12,-2.65,-0.16,1.24,
1.848,-0.17,-0.05,1.13,-2.65,-0.16,1.24,
1.851,-0.17,-0.05,1.13,-2.58,-0.16,1.34,
1.852,-0.17,-0.04,1.13,-2.58,-0.16,1.34,
1.854,-0.17,-0.05,1.13,-2.58,-0.16,1.34,
1.857,-0.18,-0.05,1.13,-2.58,-0.16,1.34,
1.857,-0.18,-0.05,1.13,-2.62,-0.15,1.44,
1.859,-0.18,-0.05,1.13,-2.62,-0.15,1.44,
1.861,-0.18,-0.05,1.13,-2.62,-0.15,1.44,
1.861,-0.18,-0.05,1.13,-2.70,-0.14,1.47,
1.865,-0.18,-0.05,1.13,-2.70,-0.14,1.47,
1.866,-0.19,-0.05,1.12,-2.70,-0.14,1.47,
1.867,-0.19,-0.05,1.12,-2.74,-0.18,1.45,
1.869,-0.19,-0.05,1.11,-2.74,-0.18,1.45,
1.871,-0.18,-0.05,1.11,-2.74,-0.18,1.45,
1.871,-0.18,-0.05,1.11,-2.75,-0.20,1.39,
1.874,-0.18,-0.05,1.10,-2.75,-0.20,1.39,
1.877,-0.18,-0.05,1.10,-2.73,-0.18,1.25,
1.878,-0.18,-0.05,1.10,-2.73,-0.18,1.25,
1.878,-0.17,-0.05,1.10,-2.73,-0.18,1.25,
1.882,-0.16,-0.05,1.10,-2.73,-0.18,1.25,
1.882,-0.16,-0.05,1.10,-2.63,-0.17,1.18,
1.886,-0.15,-0.04,1.09,-2.63,-0.17,1.18,
1.886,-0.14,-0.04,1.09,-2.63,-0.17,1.18,
1.887,-0.14,-0.04,1.09,-2.51,-0.13,1.13,
1.888,-0.14,-0.03,1.09,-2.51,-0.13,1.13,
1.892,-0.13,-0.03,1.09,-2.51,-0.13,1.13,
1.892,-0.13,-0.03,1.09,-2.34,-0.07,1.06,
1.894,-0.12,-0.03,1.09,-2.34,-0.07,1.06,
1.896,-0.12,-0.02,1.09,-2.34,-0.07,1.06,
1.896,-0.12,-0.02,1.09,-2.19,0.02,1.03,
1.898,-0.11,-0.02,1.10,-2.19,0.02,1.03,
1.901,-0.11,-0.02,1.10,-2.06,0.11,1.07,
1.901,-0.10,-0.01,1.10,-2.06,0.11,1.07,
1.903,-0.10,-0.01,1.11,-2.06,0.11,1.07,
1.906,-0.09,-0.00,1.11,-2.06,0.11,1.07,
1.907,-0.09,-0.00,1.11,-1.91,0.18,1.14,
1.908,-0.09,-0.00,1.12,-1.91,0.18,1.14,
1.911,-0.08,0.00,1.14,-1.91,0.18,1.14,
1.911,-0.08,0.00,1.14,-1.79,0.29,1.25,
1.914,-0.08,0.01,1.14,-1.79,0.29,1.25,
1.921,-0.08,0.01,1.15,-1.79,0.29,1.25,
1.922,-0.08,0.01,1.15,-1.68,0.38,1.44,
1.922,-0.08,0.01,1.16,-1.68,0.38,1.44,
1.923,-0.08,0.01,1.16,-1.68,0.38,1.44,
1.923,-0.08,0.01,1.16,-1.62,0.44,1.60,
1.923,-0.07,0.01,1.16,-1.62,0.44,1.60,
1.926,-0.07,0.01,1.16,-1.59,0.48,1.72,
1.926,-0.07,0.01,1.16,-1.59,0.48,1.72,
1.927,-0.07,0.01,1.17,-1.59,0.48,1.72,
1.932,-0.07,0.01,1.17,-1.59,0.48,1.72,
1.933,-0.07,0.01,1.17,-1.52,0.49,1.72,
1.933,-0.08,0.00,1.17,-1.52,0.49,1.72,
1.935,-0.08,0.00,1.16,-1.52,0.49,1.72,
1.935,-0.08,0.00,1.16,-1.51,0.49,1.78,
1.938,-0.09,-0.00,1.16,-1.51,0.49,1.78,
1.94,-0.10,-0.01,1.17,-1.51,0.49,1.78,
1.94,-0.10,-0.01,1.17,-1.58,0.42,1.77,
1.942,-0.10,-0.02,1.16,-1.58,0.42,1.77,
1.945,-0.11,-0.02,1.16,-1.58,0.42,1.77,
1.945,-0.11,-0.02,1.16,-1.65,0.35,1.76,
1.948,-0.12,-0.03,1.15,-1.65,0.35,1.76,
1.95,-0.12,-0.03,1.15,-1.79,0.24,1.68,
1.95,-0.12,-0.03,1.16,-1.79,0.24,1.68,
1.952,-0.12,-0.04,1.16,-1.79,0.24,1.68,
1.954,-0.13,-0.05,1.15,-1.79,0.24,1.68,
1.955,-0.13,-0.05,1.15,-1.86,0.16,1.66,
1.957,-0.13,-0.05,1.16,-1.86,0.16,1.66,
1.959,-0.13,-0.06,1.16,-1.86,0.16,1.66,
1.96,-0.13,-0.06,1.16,-1.90,0.00,1.64,
1.962,-0.12,-0.07,1.16,-1.90,0.00,1.64,
1.965,-0.13,-0.07,1.15,-1.90,0.00,1.64,
1.965,-0.13,-0.07,1.15,-1.90,-0.13,1.68,
1.967,-0.13,-0.07,1.15,-1.90,-0.13,1.68,
1.97,-0.12,-0.08,1.16,-1.90,-0.13,1.68,
1.97,-0.12,-0.08,1.16,-1.85,-0.21,1.63,
1.972,-0.13,-0.07,1.15,-1.85,-0.21,1.63,
1.975,-0.13,-0.07,1.15,-1.84,-0.29,1.64,
1.976,-0.13,-0.08,1.16,-1.84,-0.29,1.64,
1.977,-0.13,-0.08,1.16,-1.84,-0.29,1.64,
1.98,-0.13,-0.08,1.16,-1.84,-0.29,1.64,
1.98,-0.13,-0.08,1.16,-1.82,-0.26,1.62,
1.983,-0.13,-0.08,1.16,-1.82,-0.26,1.62,
1.984,-0.13,-0.08,1.16,-1.82,-0.26,1.62,
1.985,-0.13,-0.08,1.16,-1.81,-0.27,1.65,
1.987,-0.13,-0.08,1.17,-1.81,-0.27,1.65,
1.99,-0.13,-0.08,1.17,-1.81,-0.27,1.65,
1.99,-0.13,-0.08,1.17,-1.82,-0.26,1.69,
1.992,-0.13,-0.09,1.17,-1.82,-0.26,1.69,
1.994,-0.13,-0.09,1.18,-1.82,-0.26,1.69,
1.995,-0.13,-0.09,1.18,-1.81,-0.26,1.73,
1.998,-0.14,-0.09,1.17,-1.81,-0.26,1.73,
2.0,-0.14,-0.09,1.17,-1.80,-0.34,1.77,
2.001,-0.14,-0.09,1.18,-1.80,-0.34,1.77,
2.001,-0.15,-0.09,1.18,-1.80,-0.34,1.77,
2.005,-0.14,-0.09,1.18,-1.80,-0.34,1.77,
2.005,-0.14,-0.09,1.18,-1.82,-0.35,1.81,
2.006,-0.14,-0.10,1.18,-1.82,-0.35,1.81,
2.009,-0.14,-0.10,1.19,-1.82,-0.35,1.81,
2.01,-0.14,-0.10,1.19,-1.86,-0.38,1.85,
2.011,-0.14,-0.10,1.20,-1.86,-0.38,1.85,
2.016,-0.14,-0.11,1.20,-1.86,-0.38,1.85,
2.016,-0.14,-0.11,1.20,-1.82,-0.47,1.90,
2.017,-0.15,-0.11,1.20,-1.82,-0.47,1.90,
2.02,-0.14,-0.11,1.21,-1.82,-0.47,1.90,
2.02,-0.14,-0.11,1.21,-1.80,-0.48,2.03,
2.021,-0.14,-0.11,1.21,-1.80,-0.48,2.03,
2.024,-0.14,-0.11,1.21,-1.78,-0.52,2.06,
2.025,-0.13,-0.11,1.22,-1.78,-0.52,2.06,
2.028,-0.13,-0.11,1.22,-1.78,-0.52,2.06,
2.029,-0.12,-0.11,1.23,-1.78,-0.52,2.06,
2.039,-0.12,-0.11,1.23,-1.69,-0.53,2.16,
2.04,-0.11,-0.11,1.23,-1.69,-0.53,2.16,
2.04,-0.10,-0.11,1.23,-1.69,-0.53,2.16,
2.04,-0.10,-0.11,1.23,-1.55,-0.53,2.28,
2.041,-0.09,-0.11,1.23,-1.55,-0.53,2.28,
2.042,-0.08,-0.11,1.23,-1.55,-0.53,2.28,
2.043,-0.08,-0.11,1.23,-1.34,-0.54,2.32,
2.043,-0.07,-0.10,1.23,-1.34,-0.54,2.32,
2.044,-0.06,-0.10,1.24,-1.34,-0.54,2.32,
2.044,-0.06,-0.10,1.24,-1.14,-0.54,2.33,
2.046,-0.05,-0.10,1.24,-1.14,-0.54,2.33,
2.056,-0.05,-0.10,1.24,-0.90,-0.44,2.36,
2.057,-0.04,-0.09,1.24,-0.90,-0.44,2.36,
2.057,-0.02,-0.08,1.23,-0.90,-0.44,2.36,
2.058,-0.02,-0.07,1.22,-0.90,-0.44,2.36,
2.058,-0.02,-0.07,1.22,-0.69,-0.36,2.36,
2.058,-0.00,-0.06,1.20,-0.69,-0.36,2.36,
2.059,0.01,-0.05,1.20,-0.69,-0.36,2.36,
2.059,0.01,-0.05,1.20,-0.46,-0.17,2.21,
2.061,0.01,-0.05,1.19,-0.46,-0.17,2.21,
2.065,0.02,-0.04,1.18,-0.46,-0.17,2.21,
2.065,0.02,-0.04,1.18,-0.25,-0.02,1.99,
2.066,0.03,-0.03,1.16,-0.25,-0.02,1.99,
2.068,0.03,-0.03,1.15,-0.25,-0.02,1.99,
2.068,0.03,-0.03,1.15,-0.10,0.09,1.85,
2.071,0.04,-0.02,1.14,-0.10,0.09,1.85,
2.073,0.05,-0.02,1.12,-0.10,0.09,1.85,
2.073,0.05,-0.02,1.12,0.07,0.20,1.55,
2.076,0.05,-0.01,1.11,0.07,0.20,1.55,
2.078,0.06,-0.01,1.10,0.07,0.20,1.55,
2.078,0.06,-0.01,1.10,0.25,0.29,1.29,
2.081,0.06,-0.01,1.09,0.25,0.29,1.29,
2.083,0.06,-0.01,1.07,0.25,0.29,1.29,
2.084,0.06,-0.01,1.07,0.37,0.33,1.03,
2.086,0.06,-0.00,1.05,0.37,0.33,1.03,
2.088,0.05,-0.00,1.05,0.37,0.33,1.03,
2.088,0.05,-0.00,1.05,0.43,0.35,0.75,
2.091,0.05,-0.00,1.03,0.43,0.35,0.75,
2.093,0.05,-0.00,1.03,0.42,0.38,0.50,
2.094,0.05,-0.00,1.02,0.42,0.38,0.50,
2.095,0.04,0.00,1.02,0.42,0.38,0.50,
2.099,0.04,0.00,1.02,0.41,0.38,0.23,
2.1,0.03,-0.00,1.01,0.41,0.38,0.23,
2.1,0.03,0.00,1.00,0.41,0.38,0.23,
2.103,0.02,-0.00,1.00,0.41,0.38,0.23,
2.104,0.02,-0.00,1.00,0.31,0.39,0.11,
2.106,0.01,-0.00,1.00,0.31,0.39,0.11,
2.108,-0.01,-0.01,1.01,0.31,0.39,0.11,
2.108,-0.01,-0.01,1.01,0.18,0.39,-0.02,
2.111,-0.02,-0.01,1.01,0.18,0.39,-0.02,
2.113,-0.02,-0.01,1.03,0.18,0.39,-0.02,
2.114,-0.02,-0.01,1.03,-0.02,0.35,0.07,
2.117,-0.02,-0.01,1.04,-0.02,0.35,0.07,
2.118,-0.02,-0.01,1.05,-0.02,0.35,0.07,
2.119,-0.02,-0.01,1.05,-0.19,0.27,0.21,
2.121,-0.01,-0.02,1.07,-0.19,0.27,0.21,
2.123,-0.01,-0.02,1.07,-0.13,0.23,0.44,
2.124,-0.01,-0.02,1.09,-0.13,0.23,0.44,
2.125,-0.01,-0.03,1.10,-0.13,0.23,0.44,
2.128,0.01,-0.03,1.11,-0.13,0.23,0.44,
2.129,0.01,-0.03,1.11,-0.09,0.20,0.76,
2.143,0.01,-0.03,1.13,-0.09,0.20,0.76,
2.144,0.02,-0.03,1.14,-0.09,0.20,0.76,
2.144,0.02,-0.03,1.14,0.05,0.11,1.03,
2.145,0.03,-0.03,1.16,0.05,0.11,1.03,
2.145,0.04,-0.03,1.16,0.05,0.11,1.03,
2.149,0.04,-0.03,1.16,0.23,0.11,1.35,
2.15,0.05,-0.02,1.17,0.23,0.11,1.35,
2.15,0.07,-0.02,1.18,0.23,0.11,1.35,
2.151,0.07,-0.02,1.18,0.44,0.11,1.56,
2.151,0.08,-0.02,1.18,0.44,0.11,1.56,
2.151,0.08,-0.02,1.18,0.67,0.15,1.73,
2.152,0.09,-0.01,1.18,0.67,0.15,1.73,
2.152,0.10,-0.00,1.18,0.67,0.15,1.73,
2.153,0.11,0.00,1.18,0.67,0.15,1.73,
2.154,0.11,0.00,1.18,0.90,0.25,1.76,
2.158,0.12,0.01,1.17,0.90,0.25,1.76,
2.159,0.13,0.02,1.16,0.90,0.25,1.76,
2.159,0.13,0.02,1.16,1.11,0.36,1.73,
2.16,0.14,0.03,1.15,1.11,0.36,1.73,
2.163,0.15,0.03,1.14,1.11,0.36,1.73,
2.164,0.15,0.03,1.14,1.34,0.48,1.60,
2.166,0.16,0.04,1.13,1.34,0.48,1.60,
2.168,0.17,0.05,1.12,1.34,0.48,1.60,
2.169,0.17,0.05,1.12,1.52,0.59,1.43,
2.17,0.17,0.05,1.10,1.52,0.59,1.43,
2.173,0.17,0.05,1.10,1.71,0.72,1.21,
2.173,0.18,0.06,1.10,1.71,0.72,1.21,
2.176,0.18,0.07,1.09,1.71,0.72,1.21,
2.178,0.18,0.07,1.08,1.71,0.72,1.21,
2.178,0.18,0.07,1.08,1.87,0.83,0.96,
2.18,0.18,0.07,1.07,1.87,0.83,0.96,
2.182,0.19,0.07,1.05,1.87,0.83,0.96,
2.183,0.19,0.07,1.05,1.94,0.93,0.82,
2.187,0.18,0.08,1.05,1.94,0.93,0.82,
2.187,0.18,0.07,1.04,1.94,0.93,0.82,
2.188,0.18,0.07,1.04,1.97,0.93,0.57,
2.19,0.18,0.07,1.02,1.97,0.93,0.57,
2.193,0.17,0.07,1.02,1.97,0.93,0.57,
2.193,0.17,0.07,1.02,1.97,0.93,0.39,
2.194,0.16,0.07,1.01,1.97,0.93,0.39,
2.198,0.16,0.07,1.01,1.91,0.87,0.16,
2.198,0.16,0.07,1.00,1.91,0.87,0.16,
2.199,0.15,0.06,0.99,1.91,0.87,0.16,
2.203,0.15,0.05,1.00,1.91,0.87,0.16,
2.203,0.15,0.05,1.00,1.79,0.83,0.04,
2.205,0.14,0.05,0.99,1.79,0.83,0.04,
2.208,0.13,0.04,0.99,1.79,0.83,0.04,
2.208,0.13,0.04,0.99,1.70,0.74,-0.08,
2.21,0.12,0.03,0.99,1.70,0.74,-0.08,
2.212,0.11,0.01,1.00,1.70,0.74,-0.08,
2.213,0.11,0.01,1.00,1.57,0.62,-0.10,
2.215,0.11,0.00,1.01,1.57,0.62,-0.10,
2.217,0.11,0.00,1.01,1.40,0.37,-0.05,
2.217,0.10,-0.00,1.01,1.40,0.37,-0.05,
2.22,0.09,-0.02,1.02,1.40,0.37,-0.05,
2.223,0.09,-0.02,1.02,1.31,0.16,0.09,
2.223,0.08,-0.03,1.03,1.31,0.16,0.09,
2.225,0.07,-0.03,1.04,1.31,0.16,0.09,
2.228,0.06,-0.05,1.05,1.31,0.16,0.09,
2.228,0.06,-0.05,1.05,1.13,-0.06,0.23,
2.23,0.06,-0.05,1.05,1.13,-0.06,0.23,
2.232,0.05,-0.06,1.06,1.13,-0.06,0.23,
2.232,0.05,-0.06,1.06,0.98,-0.24,0.40,
2.237,0.04,-0.06,1.06,0.98,-0.24,0.40,
2.238,0.03,-0.07,1.07,0.98,-0.24,0.40,
2.238,0.03,-0.07,1.07,0.85,-0.39,0.53,
2.24,0.03,-0.07,1.07,0.85,-0.39,0.53,
2.242,0.02,-0.07,1.07,0.85,-0.39,0.53,
2.242,0.02,-0.07,1.07,0.68,-0.49,0.62,
2.244,0.01,-0.08,1.07,0.68,-0.49,0.62,
2.248,0.01,-0.08,1.07,0.60,-0.57,0.64,
2.248,0.01,-0.08,1.07,0.60,-0.57,0.64,
2.25,0.00,-0.08,1.07,0.60,-0.57,0.64,
2.252,0.01,-0.09,1.07,0.60,-0.57,0.64,
2.253,0.01,-0.09,1.07,0.50,-0.64,0.64,
2.254,0.01,-0.09,1.06,0.50,-0.64,0.64,
2.258,0.02,-0.09,1.06,0.50,-0.64,0.64,
2.258,0.02,-0.09,1.06,0.48,-0.68,0.63,
2.26,0.02,-0.09,1.06,0.48,-0.68,0.63,
2.262,0.03,-0.09,1.06,0.48,-0.68,0.63,
2.263,0.03,-0.09,1.06,0.59,-0.69,0.59,
2.265,0.04,-0.09,1.07,0.59,-0.69,0.59,
2.267,0.05,-0.09,1.06,0.59,-0.69,0.59,
2.267,0.05,-0.09,1.06,0.72,-0.72,0.57,
2.27,0.06,-0.09,1.06,0.72,-0.72,0.57,
2.272,0.06,-0.09,1.06,0.93,-0.75,0.59,
2.272,0.08,-0.08,1.06,0.93,-0.75,0.59,
2.274,0.09,-0.08,1.07,0.93,-0.75,0.59,
2.277,0.10,-0.08,1.06,0.93,-0.75,0.59,
2.277,0.10,-0.08,1.06,1.15,-0.71,0.58,
2.28,0.11,-0.07,1.06,1.15,-0.71,0.58,
2.282,0.12,-0.07,1.07,1.15,-0.71,0.58,
2.282,0.12,-0.07,1.07,1.37,-0.69,0.60,
2.285,0.13,-0.06,1.05,1.37,-0.69,0.60,
2.288,0.14,-0.05,1.05,1.37,-0.69,0.60,
2.288,0.14,-0.05,1.05,1.62,-0.61,0.60,
2.29,0.15,-0.04,1.05,1.62,-0.61,0.60,
2.292,0.16,-0.03,1.04,1.62,-0.61,0.60,
2.292,0.16,-0.03,1.04,1.81,-0.53,0.50,
2.294,0.18,-0.03,1.04,1.81,-0.53,0.50,
2.298,0.18,-0.03,1.04,1.99,-0.37,0.40,
2.298,0.18,-0.01,1.03,1.99,-0.37,0.40,
2.299,0.19,0.01,1.02,1.99,-0.37,0.40,
2.302,0.21,0.01,1.01,1.99,-0.37,0.40,
2.303,0.21,0.01,1.01,2.19,-0.22,0.27,
2.306,0.22,0.02,1.00,2.19,-0.22,0.27,
2.308,0.23,0.03,0.99,2.19,-0.22,0.27,
2.309,0.23,0.03,0.99,2.36,0.01,0.14,
2.309,0.23,0.04,0.98,2.36,0.01,0.14,
2.312,0.23,0.05,0.97,2.36,0.01,0.14,
2.313,0.23,0.05,0.97,2.58,0.15,-0.10,
2.314,0.24,0.05,0.96,2.58,0.15,-0.10,
2.316,0.24,0.06,0.96,2.58,0.15,-0.10,
2.316,0.24,0.06,0.96,2.69,0.30,-0.29,
2.319,0.24,0.07,0.95,2.69,0.30,-0.29,
2.321,0.24,0.07,0.95,2.72,0.38,-0.44,
2.322,0.24,0.08,0.94,2.72,0.38,-0.44,
2.324,0.23,0.08,0.94,2.72,0.38,-0.44,
2.327,0.23,0.09,0.93,2.72,0.38,-0.44,
2.327,0.23,0.09,0.93,2.76,0.51,-0.56,
2.329,0.23,0.09,0.92,2.76,0.51,-0.56,
2.332,0.23,0.09,0.92,2.76,0.51,-0.56,
2.332,0.23,0.09,0.92,2.68,0.58,-0.68,
2.34,0.23,0.10,0.91,2.68,0.58,-0.68,
2.341,0.23,0.09,0.91,2.68,0.58,-0.68,
2.341,0.23,0.09,0.91,2.68,0.60,-0.80,
2.343,0.23,0.10,0.90,2.68,0.60,-0.80,
2.343,0.24,0.10,0.90,2.68,0.60,-0.80,
2.344,0.24,0.10,0.90,2.63,0.63,-0.92,
2.344,0.28,0.11,0.91,2.63,0.63,-0.92,
2.346,0.28,0.11,0.91,2.72,0.63,-0.97,
2.346,0.32,0.13,0.93,2.72,0.63,-0.97,
2.349,0.37,0.15,0.94,2.72,0.63,-0.97,
2.362,0.41,0.18,0.95,2.72,0.63,-0.97,
2.363,0.41,0.18,0.95,3.33,0.82,-0.81,
2.363,0.42,0.20,0.96,3.33,0.82,-0.81,
2.364,0.42,0.22,0.95,3.33,0.82,-0.81,
2.364,0.42,0.22,0.95,4.22,1.23,-0.54,
2.364,0.39,0.23,0.93,4.22,1.23,-0.54,
2.364,0.35,0.22,0.91,4.22,1.23,-0.54,
2.365,0.35,0.22,0.91,4.52,1.66,-0.47,
2.365,0.32,0.21,0.88,4.52,1.66,-0.47,
2.367,0.29,0.19,0.87,4.52,1.66,-0.47,
2.368,0.29,0.19,0.87,4.06,1.76,-0.82,
2.368,0.27,0.17,0.86,4.06,1.76,-0.82,
2.372,0.27,0.17,0.86,3.40,1.50,-1.22,
2.372,0.25,0.15,0.86,3.40,1.50,-1.22,
2.374,0.24,0.12,0.85,3.40,1.50,-1.22,
2.376,0.24,0.12,0.85,2.99,1.09,-1.37,
2.377,0.23,0.11,0.85,2.99,1.09,-1.37,
2.379,0.21,0.09,0.85,2.99,1.09,-1.37,
2.381,0.21,0.09,0.85,2.71,0.65,-1.45,
2.382,0.20,0.08,0.84,2.71,0.65,-1.45,
2.385,0.18,0.07,0.83,2.71,0.65,-1.45,
2.386,0.16,0.06,0.82,2.71,0.65,-1.45,
2.387,0.16,0.06,0.82,2.44,0.33,-1.51,
2.388,0.14,0.05,0.81,2.44,0.33,-1.51,
2.391,0.14,0.05,0.81,2.11,0.11,-1.72,
2.391,0.13,0.04,0.80,2.11,0.11,-1.72,
2.394,0.11,0.04,0.80,2.11,0.11,-1.72,
2.396,0.09,0.02,0.79,2.11,0.11,-1.72,
2.396,0.09,0.02,0.79,1.75,-0.08,-1.89,
2.398,0.08,0.02,0.79,1.75,-0.08,-1.89,
2.4,0.06,0.01,0.79,1.75,-0.08,-1.89,
2.401,0.06,0.01,0.79,1.40,-0.24,-2.01,
2.403,0.06,0.01,0.79,1.40,-0.24,-2.01,
2.406,0.05,0.01,0.79,1.40,-0.24,-2.01,
2.406,0.05,0.01,0.79,1.09,-0.37,-2.04,
2.408,0.05,0.00,0.79,1.09,-0.37,-2.04,
2.411,0.05,0.01,0.80,1.09,-0.37,-2.04,
2.411,0.05,0.01,0.80,0.93,-0.47,-2.04,
2.413,0.05,0.01,0.81,0.93,-0.47,-2.04,
2.415,0.05,0.01,0.82,0.93,-0.47,-2.04,
2.416,0.05,0.01,0.82,0.85,-0.51,-1.95,
2.418,0.06,0.00,0.84,0.85,-0.51,-1.95,
2.42,0.06,0.00,0.84,0.89,-0.51,-1.76,
2.42,0.07,0.01,0.87,0.89,-0.51,-1.76,
2.423,0.07,0.01,0.89,0.89,-0.51,-1.76,
2.425,0.07,0.01,0.89,0.97,-0.52,-1.39,
2.425,0.06,0.00,0.91,0.97,-0.52,-1.39,
2.427,0.06,0.00,0.93,0.97,-0.52,-1.39,
2.43,0.07,0.00,0.96,0.97,-0.52,-1.39,
2.43,0.07,0.00,0.96,0.96,-0.53,-0.98,
2.434,0.06,0.00,0.98,0.96,-0.53,-0.98,
2.435,0.06,-0.01,1.00,0.96,-0.53,-0.98,
2.436,0.06,-0.01,1.00,0.95,-0.54,-0.50,
2.437,0.06,-0.01,1.01,0.95,-0.54,-0.50,
2.44,0.04,-0.01,1.02,0.95,-0.54,-0.50,
2.44,0.04,-0.01,1.02,0.86,-0.61,-0.04,
2.442,0.04,-0.01,1.03,0.86,-0.61,-0.04,
2.444,0.04,-0.01,1.03,0.79,-0.65,0.17,
2.445,0.04,-0.01,1.03,0.79,-0.65,0.17,
2.447,0.04,-0.02,1.02,0.79,-0.65,0.17,
2.454,0.04,-0.02,1.01,0.79,-0.65,0.17,
2.454,0.04,-0.02,1.01,0.72,-0.72,0.28,
2.455,0.03,-0.03,1.00,0.72,-0.72,0.28,
2.455,0.03,-0.03,1.00,0.72,-0.72,0.28,
2.455,0.03,-0.03,1.00,0.65,-0.81,0.21,
2.457,0.03,-0.03,0.99,0.65,-0.81,0.21,
2.459,0.03,-0.03,0.98,0.65,-0.81,0.21,
2.459,0.03,-0.03,0.98,0.60,-0.91,0.04,
2.462,0.03,-0.03,0.96,0.60,-0.91,0.04,
2.464,0.04,-0.02,0.95,0.60,-0.91,0.04,
2.464,0.04,-0.02,0.95,0.61,-0.92,-0.14,
2.467,0.05,-0.01,0.94,0.61,-0.92,-0.14,
2.471,0.05,-0.01,0.94,0.63,-0.86,-0.39,
2.471,0.07,-0.00,0.92,0.63,-0.86,-0.39,
2.471,0.09,0.01,0.90,0.63,-0.86,-0.39,
2.475,0.11,0.02,0.88,0.63,-0.86,-0.39,
2.475,0.11,0.02,0.88,0.88,-0.71,-0.66,
2.476,0.13,0.02,0.86,0.88,-0.71,-0.66,
2.479,0.12,0.02,0.86,0.88,-0.71,-0.66,
2.479,0.12,0.02,0.86,1.28,-0.52,-1.05,
2.483,0.11,0.02,0.86,1.28,-0.52,-1.05,
2.486,0.08,0.03,0.87,1.28,-0.52,-1.05,
2.487,0.08,0.03,0.87,1.51,-0.50,-1.34,
2.487,0.04,0.05,0.89,1.51,-0.50,-1.34,
2.49,0.04,0.05,0.89,1.20,-0.40,-1.32,
2.49,0.00,0.07,0.90,1.20,-0.40,-1.32,
2.492,-0.01,0.08,0.90,1.20,-0.40,-1.32,
2.495,-0.01,0.08,0.90,0.51,-0.10,-1.02,
2.495,-0.02,0.08,0.91,0.51,-0.10,-1.02,
2.497,-0.02,0.08,0.91,0.51,-0.10,-1.02,
2.5,-0.01,0.07,0.91,0.51,-0.10,-1.02,
2.5,-0.01,0.07,0.91,0.11,0.12,-0.86,
2.502,-0.00,0.05,0.91,0.11,0.12,-0.86,
2.505,0.00,0.04,0.92,0.11,0.12,-0.86,
2.505,0.00,0.04,0.92,0.13,0.00,-0.82,
2.507,0.01,0.02,0.93,0.13,0.00,-0.82,
2.509,0.01,0.02,0.94,0.13,0.00,-0.82,
2.509,0.01,0.02,0.94,0.28,-0.28,-0.76,
2.512,0.00,0.02,0.94,0.28,-0.28,-0.76,
2.515,-0.00,0.02,0.95,0.28,-0.28,-0.76,
2.515,-0.00,0.02,0.95,0.37,-0.55,-0.57,
2.516,-0.01,0.03,0.95,0.37,-0.55,-0.57,
2.519,-0.01,0.03,0.95,0.28,-0.57,-0.49,
2.52,-0.01,0.03,0.96,0.28,-0.57,-0.49,
2.521,-0.01,0.04,0.97,0.28,-0.57,-0.49,
2.525,-0.01,0.04,0.97,0.15,-0.47,-0.38,
2.525,-0.01,0.04,0.97,0.15,-0.47,-0.38,
2.527,-0.01,0.04,0.97,0.15,-0.47,-0.38,
2.53,-0.01,0.04,0.97,0.15,-0.47,-0.38,
2.53,-0.01,0.04,0.97,0.14,-0.40,-0.23,
2.534,-0.00,0.04,0.95,0.14,-0.40,-0.23,
2.534,0.01,0.04,0.94,0.14,-0.40,-0.23,
2.534,0.01,0.04,0.94,0.13,-0.39,-0.25,
2.54,0.01,0.04,0.92,0.13,-0.39,-0.25,
2.541,0.01,0.04,0.91,0.13,-0.39,-0.25,
2.541,0.01,0.04,0.91,0.26,-0.41,-0.50,
2.541,0.01,0.05,0.90,0.26,-0.41,-0.50,
2.544,0.01,0.05,0.90,0.35,-0.39,-0.74,
2.545,0.02,0.05,0.89,0.35,-0.39,-0.74,
2.546,0.02,0.06,0.89,0.35,-0.39,-0.74,
2.549,0.02,0.06,0.88,0.35,-0.39,-0.74,
2.549,0.02,0.06,0.88,0.39,-0.33,-0.95,
2.552,0.02,0.07,0.87,0.39,-0.33,-0.95,
2.554,0.02,0.08,0.87,0.39,-0.33,-0.95,
2.554,0.02,0.08,0.87,0.44,-0.23,-1.09,
2.556,0.02,0.08,0.87,0.44,-0.23,-1.09,
2.559,0.01,0.09,0.87,0.44,-0.23,-1.09,
2.559,0.01,0.09,0.87,0.41,-0.10,-1.19,
2.561,0.00,0.09,0.87,0.41,-0.10,-1.19,
2.564,-0.00,0.10,0.87,0.41,-0.10,-1.19,
2.564,-0.00,0.10,0.87,0.33,-0.01,-1.21,
2.566,-0.00,0.10,0.88,0.33,-0.01,-1.21,
2.568,-0.00,0.10,0.88,0.23,0.10,-1.18,
2.569,-0.01,0.10,0.89,0.23,0.10,-1.18,
2.571,-0.01,0.09,0.89,0.23,0.10,-1.18,
2.574,-0.00,0.10,0.89,0.23,0.10,-1.18,
2.574,-0.00,0.10,0.89,0.16,0.15,-1.04,
2.576,0.00,0.09,0.89,0.16,0.15,-1.04,
2.579,0.00,0.08,0.89,0.16,0.15,-1.04,
2.579,0.00,0.08,0.89,0.15,0.08,-1.02,
2.581,0.01,0.08,0.89,0.15,0.08,-1.02,
2.585,0.01,0.08,0.89,0.15,0.08,-1.02,
2.585,0.01,0.08,0.89,0.21,0.00,-0.98,
2.586,0.02,0.08,0.90,0.21,0.00,-0.98,
2.588,0.02,0.08,0.90,0.21,0.00,-0.98,
2.589,0.02,0.08,0.90,0.32,-0.05,-0.98,
2.591,0.02,0.08,0.90,0.32,-0.05,-0.98,
2.594,0.02,0.08,0.90,0.37,-0.09,-0.91,
2.594,0.01,0.08,0.90,0.37,-0.09,-0.91,
2.596,0.01,0.07,0.91,0.37,-0.09,-0.91,
2.599,0.01,0.07,0.90,0.37,-0.09,-0.91,
2.599,0.01,0.07,0.90,0.35,-0.09,-0.89,
2.6,-0.00,0.07,0.90,0.35,-0.09,-0.89,
2.603,-0.00,0.06,0.91,0.35,-0.09,-0.89,
2.603,-0.00,0.06,0.91,0.27,-0.14,-0.85,
2.606,-0.01,0.06,0.91,0.27,-0.14,-0.85,
2.609,-0.01,0.05,0.92,0.27,-0.14,-0.85,
2.609,-0.01,0.05,0.92,0.13,-0.22,-0.83,
2.611,-0.01,0.05,0.93,0.13,-0.22,-0.83,
2.613,-0.01,0.05,0.94,0.13,-0.22,-0.83,
2.613,-0.01,0.05,0.94,0.09,-0.29,-0.75,
2.616,-0.01,0.04,0.95,0.09,-0.29,-0.75,
2.619,-0.01,0.04,0.95,0.03,-0.36,-0.59,
2.619,-0.01,0.05,0.95,0.03,-0.36,-0.59,
2.62,-0.01,0.05,0.96,0.03,-0.36,-0.59,
2.623,-0.01,0.05,0.96,0.03,-0.36,-0.59,
2.623,-0.01,0.05,0.96,0.01,-0.40,-0.44,
2.625,-0.01,0.06,0.97,0.01,-0.40,-0.44,
2.628,-0.00,0.07,0.98,0.01,-0.40,-0.44,
2.628,-0.00,0.07,0.98,0.04,-0.37,-0.31,
2.63,0.00,0.07,0.99,0.04,-0.37,-0.31,
2.632,0.00,0.08,1.00,0.04,-0.37,-0.31,
2.635,0.00,0.08,1.00,0.05,-0.22,-0.17,
2.635,0.01,0.08,1.01,0.05,-0.22,-0.17,
2.638,0.01,0.08,1.02,0.05,-0.22,-0.17,
2.638,0.01,0.08,1.02,0.10,-0.12,0.04,
2.64,0.01,0.09,1.02,0.10,-0.12,0.04,
2.643,0.01,0.09,1.02,0.09,-0.08,0.23,
2.643,0.02,0.09,1.03,0.09,-0.08,0.23,
2.645,0.02,0.09,1.03,0.09,-0.08,0.23,
2.647,0.02,0.09,1.03,0.09,-0.08,0.23,
2.648,0.02,0.09,1.03,0.15,-0.03,0.34,
2.65,0.02,0.09,1.03,0.15,-0.03,0.34,
2.655,0.03,0.09,1.03,0.15,-0.03,0.34,
2.656,0.03,0.09,1.03,0.19,-0.02,0.40,
2.656,0.04,0.09,1.02,0.19,-0.02,0.40,
2.657,0.04,0.10,1.02,0.19,-0.02,0.40,
2.658,0.04,0.10,1.02,0.19,0.01,0.40,
2.66,0.05,0.10,1.01,0.19,0.01,0.40,
2.663,0.04,0.09,1.00,0.19,0.01,0.40,
2.663,0.04,0.09,1.00,0.27,0.01,0.27,
2.665,0.05,0.10,1.00,0.27,0.01,0.27,
2.668,0.05,0.10,1.00,0.27,0.01,0.27,
2.669,0.05,0.10,1.00,0.31,0.02,0.17,
2.669,0.05,0.10,0.99,0.31,0.02,0.17,
2.672,0.05,0.10,0.99,0.31,0.02,0.17,
2.673,0.05,0.10,0.99,0.34,0.05,0.09,
2.675,0.05,0.10,0.99,0.34,0.05,0.09,
2.677,0.06,0.10,0.99,0.34,0.05,0.09,
2.678,0.06,0.10,0.99,0.31,0.06,-0.01,
2.679,0.05,0.10,0.98,0.31,0.06,-0.01,
2.683,0.05,0.10,0.98,0.31,0.06,-0.01,
2.683,0.05,0.10,0.98,0.33,0.06,-0.00,
2.685,0.05,0.10,0.98,0.33,0.06,-0.00,
2.688,0.04,0.10,0.98,0.33,0.06,-0.00,
2.689,0.04,0.10,0.98,0.29,0.01,-0.08,
2.69,0.04,0.10,0.98,0.29,0.01,-0.08,
2.692,0.04,0.10,0.98,0.20,-0.02,-0.09,
2.693,0.03,0.10,0.97,0.20,-0.02,-0.09,
2.694,0.03,0.09,0.97,0.20,-0.02,-0.09,
2.697,0.02,0.09,0.98,0.20,-0.02,-0.09,
2.697,0.02,0.09,0.98,0.09,-0.04,-0.13,
2.699,0.02,0.09,0.98,0.09,-0.04,-0.13,
2.702,0.02,0.09,0.99,0.09,-0.04,-0.13,
2.703,0.02,0.09,0.99,-0.01,-0.10,-0.14,
2.704,0.02,0.09,0.99,-0.01,-0.10,-0.14,
2.707,0.02,0.08,0.99,-0.01,-0.10,-0.14,
2.707,0.02,0.08,0.99,-0.07,-0.14,-0.04,
2.709,0.02,0.08,1.00,-0.07,-0.14,-0.04,
2.712,0.01,0.09,1.00,-0.07,-0.14,-0.04,
2.712,0.01,0.09,1.00,-0.10,-0.16,-0.00,
2.714,0.01,0.09,1.01,-0.10,-0.16,-0.00,
2.719,0.01,0.09,1.01,-0.16,-0.17,0.11,
2.719,0.01,0.09,1.02,-0.16,-0.17,0.11,
2.72,0.00,0.10,1.02,-0.16,-0.17,0.11,
2.722,0.00,0.10,1.03,-0.16,-0.17,0.11,
2.723,0.00,0.10,1.03,-0.23,-0.11,0.23,
2.724,0.01,0.10,1.03,-0.23,-0.11,0.23,
2.727,0.01,0.11,1.03,-0.23,-0.11,0.23,
2.727,0.01,0.11,1.03,-0.30,-0.03,0.37,
2.729,0.01,0.11,1.03,-0.30,-0.03,0.37,
2.732,0.02,0.11,1.03,-0.30,-0.03,0.37,
2.732,0.02,0.11,1.03,-0.27,0.01,0.43,
2.736,0.03,0.11,1.04,-0.27,0.01,0.43,
2.737,0.03,0.10,1.04,-0.27,0.01,0.43,
2.737,0.03,0.10,1.04,-0.21,0.01,0.42,
2.739,0.04,0.11,1.04,-0.21,0.01,0.42,
2.743,0.04,0.11,1.04,-0.10,-0.00,0.47,
2.743,0.04,0.11,1.03,-0.10,-0.00,0.47,
2.744,0.05,0.10,1.03,-0.10,-0.00,0.47,
2.748,0.05,0.11,1.03,-0.10,-0.00,0.47,
2.749,0.05,0.11,1.03,0.00,-0.00,0.44,
2.749,0.05,0.11,1.03,0.00,-0.00,0.44,
2.753,0.06,0.10,1.03,0.00,-0.00,0.44,
2.754,0.06,0.10,1.03,0.06,-0.02,0.39,
2.755,0.06,0.10,1.03,0.06,-0.02,0.39,
2.757,0.06,0.10,1.03,0.06,-0.02,0.39,
2.757,0.06,0.10,1.03,0.05,-0.05,0.39,
2.759,0.07,0.10,1.03,0.05,-0.05,0.39,
2.762,0.07,0.10,1.03,0.08,-0.08,0.42,
2.763,0.07,0.10,1.03,0.08,-0.08,0.42,
2.764,0.06,0.11,1.03,0.08,-0.08,0.42,
2.767,0.06,0.11,1.03,0.10,-0.09,0.42,
2.767,0.07,0.11,1.03,0.10,-0.09,0.42,
2.778,0.08,0.12,1.02,0.10,-0.09,0.42,
2.779,0.08,0.12,1.02,0.10,-0.09,0.42,
2.78,0.08,0.12,1.02,0.05,-0.04,0.40,
2.78,0.08,0.13,1.02,0.05,-0.04,0.40,
2.78,0.08,0.14,1.02,0.05,-0.04,0.40,
2.781,0.08,0.14,1.02,0.15,0.07,0.34,
2.782,0.08,0.13,1.02,0.15,0.07,0.34,
2.782,0.08,0.14,1.01,0.15,0.07,0.34,
2.783,0.08,0.14,1.01,0.15,0.13,0.31,
2.784,0.07,0.14,1.00,0.15,0.13,0.31,
2.8,0.06,0.15,1.00,0.15,0.13,0.31,
2.801,0.06,0.15,1.00,0.07,0.15,0.27,
2.801,0.06,0.14,1.00,0.07,0.15,0.27,
2.801,0.06,0.14,1.00,-0.07,0.21,0.12,
2.802,0.06,0.14,0.99,-0.07,0.21,0.12,
2.802,0.04,0.13,0.93,-0.07,0.21,0.12,
2.802,0.02,0.14,0.82,-0.07,0.21,0.12,
2.803,0.02,0.14,0.82,-0.17,0.20,0.05,
2.807,0.05,0.17,0.71,-0.17,0.20,0.05,
2.807,0.10,0.18,0.70,-0.17,0.20,0.05,
2.808,0.10,0.18,0.70,-0.47,0.09,-1.07,
2.808,0.12,0.18,0.74,-0.47,0.09,-1.07,
2.809,0.11,0.16,0.79,-0.47,0.09,-1.07,
2.809,0.11,0.16,0.79,-0.02,0.49,-2.71,
2.809,0.11,0.15,0.82,-0.02,0.49,-2.71,
2.811,0.12,0.14,0.87,-0.02,0.49,-2.71,
2.811,0.12,0.14,0.87,0.37,0.44,-2.14,
2.814,0.13,0.13,0.91,0.37,0.44,-2.14,
2.816,0.13,0.13,0.91,0.37,0.22,-1.36,
2.816,0.13,0.12,0.95,0.37,0.22,-1.36,
2.822,0.12,0.13,0.99,0.37,0.22,-1.36,
2.824,0.11,0.13,1.00,0.37,0.22,-1.36,
2.825,0.11,0.13,1.00,0.51,0.04,-0.50,
2.825,0.10,0.13,1.01,0.51,0.04,-0.50,
2.829,0.09,0.14,1.02,0.51,0.04,-0.50,
2.829,0.09,0.14,1.02,0.39,0.10,0.07,
2.829,0.10,0.14,1.03,0.39,0.10,0.07,
2.831,0.10,0.13,1.06,0.39,0.10,0.07,
2.832,0.10,0.13,1.06,0.23,0.18,0.28,
2.834,0.09,0.12,1.09,0.23,0.18,0.28,
2.836,0.10,0.12,1.11,0.23,0.18,0.28,
2.836,0.10,0.12,1.11,0.22,0.14,0.62,
2.838,0.11,0.12,1.13,0.22,0.14,0.62,
2.84,0.11,0.12,1.13,0.24,0.05,1.09,
2.841,0.12,0.12,1.14,0.24,0.05,1.09,
2.843,0.13,0.13,1.14,0.24,0.05,1.09,
2.846,0.13,0.13,1.13,0.24,0.05,1.09,
2.847,0.13,0.13,1.13,0.45,0.07,1.45,
2.848,0.13,0.13,1.13,0.45,0.07,1.45,
2.851,0.14,0.13,1.14,0.45,0.07,1.45,
2.851,0.14,0.13,1.14,0.58,0.15,1.50,
2.853,0.14,0.14,1.14,0.58,0.15,1.50,
2.856,0.14,0.14,1.14,0.60,0.18,1.49,
2.856,0.14,0.14,1.14,0.60,0.18,1.49,
2.857,0.14,0.14,1.14,0.60,0.18,1.49,
2.861,0.14,0.15,1.13,0.60,0.18,1.49,
2.861,0.14,0.15,1.13,0.64,0.22,1.49,
2.863,0.14,0.15,1.12,0.64,0.22,1.49,
2.865,0.16,0.13,1.11,0.64,0.22,1.49,
2.866,0.16,0.13,1.11,0.65,0.28,1.48,
2.868,0.18,0.11,1.09,0.65,0.28,1.48,
2.874,0.14,0.13,1.06,0.65,0.28,1.48,
2.874,0.14,0.13,1.06,0.72,0.20,1.27,
2.874,0.10,0.14,1.05,0.72,0.20,1.27,
2.875,0.08,0.14,1.04,0.72,0.20,1.27,
2.875,0.08,0.14,1.04,0.76,0.00,0.86,
2.877,0.05,0.14,1.03,0.76,0.00,0.86,
2.88,0.03,0.15,1.02,0.76,0.00,0.86,
2.88,0.03,0.15,1.02,0.10,0.16,0.56,
2.882,0.02,0.14,1.00,0.10,0.16,0.56,
2.886,0.02,0.14,0.98,0.10,0.16,0.56,
2.886,0.02,0.14,0.98,-0.37,0.20,0.40,
