
time,gFx,gFy,gFz,ax,ay,az,
0.006,-0.00,0.03,1.02,-0.20,-0.18,0.36,
0.006,-0.00,0.03,1.02,-0.31,-0.12,0.45,
0.007,-0.01,0.03,1.02,-0.31,-0.12,0.45,
0.007,-0.01,0.02,1.01,-0.31,-0.12,0.45,
0.007,-0.01,0.02,1.01,-0.42,-0.02,0.45,
0.008,-0.01,0.03,1.02,-0.42,-0.02,0.45,
0.008,0.00,0.03,1.03,-0.42,-0.02,0.45,
0.008,0.00,0.03,1.03,-0.49,-0.01,0.39,
0.013,0.01,0.03,1.04,-0.49,-0.01,0.39,
0.013,0.02,0.05,1.04,-0.49,-0.01,0.39,
0.013,0.02,0.05,1.04,-0.43,0.01,0.47,
0.014,0.03,0.05,1.05,-0.43,0.01,0.47,
0.017,0.04,0.05,1.06,-0.43,0.01,0.47,
0.017,0.04,0.05,1.06,-0.23,0.11,0.62,
0.019,0.05,0.06,1.07,-0.23,0.11,0.62,
0.022,0.06,0.07,1.07,-0.23,0.11,0.62,
0.022,0.06,0.07,1.07,-0.03,0.22,0.75,
0.029,0.07,0.07,1.08,-0.03,0.22,0.75,
0.029,0.08,0.08,1.09,-0.03,0.22,0.75,
0.029,0.08,0.08,1.09,0.18,0.32,0.92,
0.029,0.08,0.09,1.09,0.18,0.32,0.92,
0.032,0.08,0.09,1.09,0.18,0.32,0.92,
0.032,0.08,0.09,1.09,0.36,0.43,1.06,
0.033,0.08,0.09,1.08,0.36,0.43,1.06,
0.037,0.06,0.09,1.07,0.36,0.43,1.06,
0.038,0.06,0.09,1.07,0.43,0.53,1.10,
0.052,0.05,0.08,1.07,0.43,0.53,1.10,
0.052,0.04,0.08,1.06,0.43,0.53,1.10,
0.053,0.04,0.08,1.06,0.30,0.52,0.96,
0.053,0.02,0.07,1.06,0.30,0.52,0.96,
0.053,0.01,0.06,1.04,0.30,0.52,0.96,
0.053,0.01,0.06,1.04,0.06,0.44,0.85,
0.054,-0.00,0.05,1.03,0.06,0.44,0.85,
0.054,-0.02,0.04,1.02,0.06,0.44,0.85,
0.054,-0.02,0.04,1.02,-0.22,0.25,0.67,
0.054,-0.03,0.03,1.02,-0.22,0.25,0.67,
0.064,-0.04,0.01,1.01,-0.22,0.25,0.67,
0.065,-0.04,0.01,1.01,-0.47,0.04,0.45,
0.065,-0.05,0.01,1.01,-0.47,0.04,0.45,
0.065,-0.06,0.01,1.00,-0.47,0.04,0.45,
0.066,-0.06,0.01,1.00,-0.70,-0.18,0.33,
0.066,-0.05,0.00,1.00,-0.70,-0.18,0.33,
0.066,-0.06,-0.00,0.99,-0.70,-0.18,0.33,
0.067,-0.06,-0.00,0.99,-0.85,-0.26,0.23,
0.068,-0.08,-0.00,0.99,-0.85,-0.26,0.23,
0.071,-0.08,-0.01,0.99,-0.85,-0.26,0.23,
0.071,-0.08,-0.01,0.99,-0.88,-0.39,0.10,
0.08,-0.10,-0.00,1.00,-0.88,-0.39,0.10,
0.081,-0.11,-0.00,1.00,-0.88,-0.39,0.10,
0.081,-0.11,-0.00,1.00,-1.05,-0.44,0.10,
0.081,-0.11,-0.00,1.00,-1.05,-0.44,0.10,
0.081,-0.09,-0.01,1.00,-1.05,-0.44,0.10,
0.082,-0.09,-0.01,1.00,-1.25,-0.42,0.17,
0.083,-0.05,-0.01,1.02,-1.25,-0.42,0.17,
0.086,-0.05,-0.01,1.02,-1.25,-0.42,0.17,
0.086,-0.05,-0.01,1.02,-1.22,-0.42,0.18,
0.088,-0.08,0.00,1.01,-1.22,-0.42,0.18,
0.099,-0.08,0.01,1.01,-1.22,-0.42,0.18,
0.1,-0.08,0.01,1.01,-0.68,-0.44,0.39,
0.1,-0.01,0.04,1.03,-0.68,-0.44,0.39,
0.1,0.00,0.06,1.03,-0.68,-0.44,0.39,
0.101,0.00,0.06,1.03,-0.94,-0.32,0.27,
0.101,-0.01,0.06,1.01,-0.94,-0.32,0.27,
0.101,-0.01,0.08,1.00,-0.94,-0.32,0.27,
0.101,-0.01,0.08,1.00,-0.19,0.11,0.45,
0.103,0.01,0.09,0.99,-0.19,0.11,0.45,
0.114,0.00,0.10,0.99,-0.19,0.11,0.45,
0.115,0.00,0.10,0.99,-0.27,0.28,0.21,
0.115,-0.01,0.10,0.99,-0.27,0.28,0.21,
0.115,-0.01,0.10,0.99,-0.27,0.28,0.21,
0.115,-0.01,0.10,0.99,-0.04,0.56,0.09,
0.116,-0.02,0.10,0.98,-0.04,0.56,0.09,
0.116,-0.02,0.09,0.99,-0.04,0.56,0.09,
0.116,-0.02,0.09,0.99,-0.22,0.59,0.04,
0.118,-0.03,0.09,0.99,-0.22,0.59,0.04,
0.12,-0.02,0.08,0.99,-0.22,0.59,0.04,
0.121,-0.02,0.08,0.99,-0.27,0.52,0.00,
0.131,-0.02,0.08,0.99,-0.27,0.52,0.00,
0.132,-0.02,0.08,1.00,-0.27,0.52,0.00,
0.132,-0.02,0.08,1.00,-0.35,0.42,0.07,
0.132,-0.02,0.08,1.00,-0.35,0.42,0.07,
0.133,-0.02,0.07,1.00,-0.35,0.42,0.07,
0.133,-0.02,0.07,1.00,-0.31,0.34,0.10,
0.133,-0.02,0.06,1.00,-0.31,0.34,0.10,
0.136,-0.01,0.07,1.00,-0.31,0.34,0.10,
0.136,-0.01,0.07,1.00,-0.27,0.30,0.14,
0.137,-0.01,0.06,1.01,-0.27,0.30,0.14,
0.15,-0.01,0.06,1.01,-0.27,0.30,0.14,
0.151,-0.01,0.06,1.01,-0.26,0.20,0.18,
0.151,-0.01,0.06,1.01,-0.26,0.20,0.18,
0.152,-0.02,0.06,1.01,-0.26,0.20,0.18,
0.152,-0.02,0.06,1.01,-0.22,0.18,0.22,
0.152,-0.01,0.06,1.02,-0.22,0.18,0.22,
0.152,-0.02,0.06,1.02,-0.22,0.18,0.22,
0.152,-0.02,0.06,1.02,-0.26,0.15,0.26,
0.153,-0.02,0.07,1.02,-0.26,0.15,0.26,
0.156,-0.02,0.07,1.02,-0.26,0.15,0.26,
0.156,-0.02,0.07,1.02,-0.25,0.15,0.30,
0.163,-0.03,0.08,1.03,-0.25,0.15,0.30,
0.164,-0.03,0.08,1.03,-0.25,0.15,0.30,
0.166,-0.03,0.08,1.03,-0.31,0.23,0.38,
0.166,-0.03,0.08,1.03,-0.31,0.23,0.38,
0.167,-0.04,0.08,1.04,-0.31,0.23,0.38,
0.167,-0.04,0.08,1.04,-0.39,0.26,0.44,
0.167,-0.04,0.09,1.03,-0.39,0.26,0.44,
0.171,-0.04,0.09,1.03,-0.46,0.29,0.47,
0.171,-0.05,0.09,1.04,-0.46,0.29,0.47,
0.172,-0.05,0.09,1.04,-0.46,0.29,0.47,
0.181,-0.05,0.09,1.04,-0.57,0.37,0.48,
0.182,-0.06,0.09,1.04,-0.57,0.37,0.48,
0.182,-0.06,0.09,1.04,-0.57,0.37,0.48,
0.182,-0.06,0.09,1.05,-0.57,0.37,0.48,
0.182,-0.06,0.09,1.05,-0.66,0.38,0.55,
0.183,-0.07,0.09,1.05,-0.66,0.38,0.55,
0.187,-0.07,0.08,1.04,-0.66,0.38,0.55,
0.187,-0.07,0.08,1.04,-0.70,0.35,0.56,
0.187,-0.07,0.08,1.04,-0.70,0.35,0.56,
0.197,-0.08,0.07,1.04,-0.70,0.35,0.56,
0.197,-0.08,0.07,1.04,-0.78,0.31,0.56,
0.198,-0.08,0.07,1.04,-0.78,0.31,0.56,
0.198,-0.08,0.07,1.03,-0.78,0.31,0.56,
0.198,-0.08,0.07,1.03,-0.82,0.20,0.54,
0.198,-0.08,0.06,1.03,-0.82,0.20,0.54,
0.2,-0.08,0.06,1.03,-0.85,0.15,0.48,
0.2,-0.08,0.06,1.03,-0.85,0.15,0.48,
0.202,-0.09,0.05,1.03,-0.85,0.15,0.48,
0.205,-0.09,0.05,1.03,-0.85,0.15,0.48,
0.205,-0.09,0.05,1.03,-0.84,0.06,0.42,
0.211,-0.09,0.04,1.02,-0.84,0.06,0.42,
0.214,-0.09,0.05,1.02,-0.84,0.06,0.42,
0.214,-0.09,0.05,1.02,-0.88,-0.03,0.40,
0.214,-0.09,0.04,1.03,-0.88,-0.03,0.40,
0.214,-0.09,0.04,1.02,-0.88,-0.03,0.40,
0.215,-0.09,0.04,1.02,-0.86,-0.09,0.30,
0.217,-0.09,0.04,1.02,-0.86,-0.09,0.30,
0.22,-0.09,0.04,1.02,-0.85,-0.11,0.30,
0.22,-0.09,0.04,1.02,-0.85,-0.11,0.30,
0.222,-0.09,0.04,1.02,-0.85,-0.11,0.30,
0.229,-0.09,0.04,1.02,-0.85,-0.11,0.30,
0.229,-0.09,0.04,1.02,-0.85,-0.14,0.26,
0.23,-0.08,0.04,1.01,-0.85,-0.14,0.26,
0.23,-0.08,0.04,1.02,-0.85,-0.14,0.26,
0.23,-0.08,0.04,1.02,-0.81,-0.11,0.31,
0.232,-0.08,0.04,1.03,-0.81,-0.11,0.31,
0.235,-0.08,0.05,1.03,-0.81,-0.11,0.31,
0.235,-0.08,0.05,1.03,-0.73,-0.15,0.27,
0.237,-0.08,0.05,1.03,-0.73,-0.15,0.27,
0.246,-0.08,0.05,1.03,-0.73,-0.15,0.27,
0.246,-0.08,0.05,1.03,-0.71,-0.08,0.36,
0.246,-0.08,0.05,1.03,-0.71,-0.08,0.36,
0.247,-0.07,0.06,1.03,-0.71,-0.08,0.36,
0.247,-0.07,0.06,1.03,-0.66,-0.06,0.39,
0.247,-0.07,0.06,1.04,-0.66,-0.06,0.39,
0.25,-0.07,0.05,1.03,-0.66,-0.06,0.39,
0.25,-0.07,0.05,1.03,-0.63,0.02,0.39,
0.252,-0.07,0.06,1.03,-0.63,0.02,0.39,
0.255,-0.07,0.06,1.03,-0.63,0.02,0.39,
0.255,-0.07,0.06,1.03,-0.60,0.01,0.43,
0.256,-0.07,0.07,1.03,-0.60,0.01,0.43,
0.267,-0.07,0.07,1.03,-0.60,0.01,0.43,
0.268,-0.07,0.07,1.03,-0.56,0.07,0.35,
0.268,-0.07,0.07,1.02,-0.56,0.07,0.35,
0.268,-0.07,0.08,1.01,-0.56,0.07,0.35,
0.268,-0.07,0.08,1.01,-0.57,0.11,0.33,
0.269,-0.08,0.08,1.02,-0.57,0.11,0.33,
0.27,-0.08,0.08,1.01,-0.57,0.11,0.33,
0.27,-0.08,0.08,1.01,-0.59,0.19,0.25,
0.272,-0.08,0.08,1.01,-0.59,0.19,0.25,
0.281,-0.08,0.08,1.00,-0.59,0.19,0.25,
0.282,-0.08,0.08,1.00,-0.61,0.21,0.21,
0.282,-0.09,0.09,1.00,-0.61,0.21,0.21,
0.282,-0.10,0.09,1.00,-0.61,0.21,0.21,
0.283,-0.10,0.09,1.00,-0.64,0.24,0.14,
0.283,-0.10,0.08,1.00,-0.64,0.24,0.14,
0.284,-0.10,0.09,1.00,-0.64,0.24,0.14,
0.285,-0.10,0.09,1.00,-0.73,0.28,0.11,
0.287,-0.10,0.09,0.99,-0.73,0.28,0.11,
0.289,-0.10,0.09,0.99,-0.81,0.26,0.05,
0.29,-0.11,0.09,0.99,-0.81,0.26,0.05,
0.299,-0.11,0.09,0.99,-0.81,0.26,0.05,
0.3,-0.12,0.09,0.99,-0.81,0.26,0.05,
0.3,-0.12,0.09,0.99,-0.82,0.28,-0.02,
0.3,-0.12,0.08,0.99,-0.82,0.28,-0.02,
0.301,-0.12,0.08,0.99,-0.82,0.28,-0.02,
0.301,-0.12,0.08,0.99,-0.92,0.22,-0.04,
0.301,-0.12,0.07,0.98,-0.92,0.22,-0.04,
0.304,-0.12,0.07,0.99,-0.92,0.22,-0.04,
0.305,-0.12,0.07,0.99,-0.96,0.16,-0.04,
0.306,-0.12,0.07,0.99,-0.96,0.16,-0.04,
0.313,-0.12,0.07,0.99,-0.96,0.16,-0.04,
0.314,-0.12,0.07,0.99,-0.94,0.06,-0.06,
0.314,-0.12,0.06,1.00,-0.94,0.06,-0.06,
0.314,-0.12,0.06,1.00,-0.94,0.06,-0.06,
0.314,-0.12,0.06,1.00,-0.96,0.02,-0.01,
0.316,-0.11,0.06,1.00,-0.96,0.02,-0.01,
0.319,-0.11,0.06,1.00,-0.96,0.02,-0.01,
0.319,-0.11,0.06,1.00,-0.93,-0.05,0.05,
0.321,-0.11,0.06,1.01,-0.93,-0.05,0.05,
0.33,-0.11,0.06,1.00,-0.93,-0.05,0.05,
0.331,-0.11,0.06,1.00,-0.87,-0.06,0.06,
0.334,-0.11,0.06,1.01,-0.87,-0.06,0.06,
0.334,-0.10,0.06,1.00,-0.87,-0.06,0.06,
0.334,-0.10,0.06,1.00,-0.85,-0.10,0.11,
0.334,-0.10,0.06,1.01,-0.85,-0.10,0.11,
0.335,-0.10,0.06,1.01,-0.85,-0.10,0.11,
0.335,-0.10,0.06,1.01,-0.79,-0.11,0.13,
0.337,-0.10,0.06,1.00,-0.79,-0.11,0.13,
0.339,-0.10,0.06,1.00,-0.79,-0.11,0.13,
0.339,-0.10,0.06,1.00,-0.73,-0.09,0.19,
0.346,-0.11,0.06,1.00,-0.73,-0.09,0.19,
0.346,-0.11,0.06,1.00,-0.73,-0.09,0.19,
0.346,-0.11,0.06,1.00,-0.73,-0.10,0.10,
0.347,-0.12,0.06,0.99,-0.73,-0.10,0.10,
0.348,-0.12,0.07,0.98,-0.73,-0.10,0.10,
0.348,-0.12,0.07,0.98,-0.79,-0.10,0.05,
0.35,-0.12,0.07,0.98,-0.79,-0.10,0.05,
0.354,-0.13,0.08,0.97,-0.79,-0.10,0.05,
0.354,-0.13,0.08,0.97,-0.89,-0.06,-0.03,
0.355,-0.14,0.08,0.97,-0.89,-0.06,-0.03,
0.362,-0.14,0.08,0.96,-0.89,-0.06,-0.03,
0.363,-0.14,0.08,0.96,-0.95,0.02,-0.16,
0.363,-0.15,0.08,0.95,-0.95,0.02,-0.16,
0.364,-0.16,0.08,0.95,-0.95,0.02,-0.16,
0.364,-0.16,0.08,0.95,-1.07,0.05,-0.27,
0.365,-0.16,0.08,0.94,-1.07,0.05,-0.27,
0.368,-0.17,0.09,0.94,-1.07,0.05,-0.27,
0.368,-0.17,0.09,0.94,-1.18,0.06,-0.39,
0.37,-0.17,0.09,0.92,-1.18,0.06,-0.39,
0.386,-0.18,0.08,0.92,-1.18,0.06,-0.39,
0.386,-0.18,0.08,0.92,-1.27,0.09,-0.49,
0.387,-0.18,0.09,0.91,-1.27,0.09,-0.49,
0.387,-0.18,0.08,0.90,-1.27,0.09,-0.49,
0.387,-0.18,0.08,0.90,-1.33,0.07,-0.69,
0.388,-0.18,0.08,0.89,-1.33,0.07,-0.69,
0.388,-0.19,0.09,0.88,-1.33,0.07,-0.69,
0.388,-0.19,0.09,0.88,-1.38,0.07,-0.87,
0.388,-0.19,0.08,0.88,-1.38,0.07,-0.87,
0.389,-0.18,0.08,0.87,-1.38,0.07,-0.87,
0.389,-0.18,0.08,0.87,-1.42,0.05,-1.03,
0.398,-0.18,0.07,0.86,-1.42,0.05,-1.03,
0.399,-0.18,0.08,0.85,-1.42,0.05,-1.03,
0.399,-0.18,0.08,0.85,-1.44,-0.03,-1.12,
0.4,-0.18,0.07,0.85,-1.44,-0.03,-1.12,
0.4,-0.18,0.07,0.86,-1.44,-0.03,-1.12,
0.4,-0.18,0.07,0.86,-1.37,-0.07,-1.30,
0.4,-0.17,0.07,0.85,-1.37,-0.07,-1.30,
0.403,-0.17,0.07,0.85,-1.39,-0.13,-1.27,
0.403,-0.18,0.06,0.86,-1.39,-0.13,-1.27,
0.405,-0.17,0.06,0.86,-1.39,-0.13,-1.27,
0.417,-0.16,0.06,0.86,-1.39,-0.13,-1.27,
0.418,-0.16,0.06,0.86,-1.32,-0.18,-1.27,
0.418,-0.16,0.05,0.86,-1.32,-0.18,-1.27,
0.419,-0.15,0.05,0.87,-1.32,-0.18,-1.27,
0.419,-0.15,0.05,0.87,-1.22,-0.27,-1.20,
0.419,-0.15,0.05,0.88,-1.22,-0.27,-1.20,
0.42,-0.14,0.05,0.88,-1.22,-0.27,-1.20,
0.42,-0.14,0.05,0.88,-1.13,-0.33,-1.16,
0.421,-0.14,0.04,0.89,-1.13,-0.33,-1.16,
0.422,-0.14,0.04,0.90,-1.13,-0.33,-1.16,
0.422,-0.14,0.04,0.90,-1.06,-0.37,-1.05,
0.43,-0.14,0.04,0.90,-1.06,-0.37,-1.05,
0.431,-0.14,0.04,0.90,-1.05,-0.40,-0.89,
0.431,-0.14,0.04,0.90,-1.05,-0.40,-0.89,
0.431,-0.14,0.04,0.92,-1.05,-0.40,-0.89,
0.432,-0.14,0.05,0.92,-1.05,-0.40,-0.89,
0.432,-0.14,0.05,0.92,-1.00,-0.42,-0.81,
0.434,-0.14,0.05,0.92,-1.00,-0.42,-0.81,
0.437,-0.14,0.05,0.93,-1.00,-0.42,-0.81,
0.437,-0.14,0.05,0.93,-1.04,-0.39,-0.64,
0.439,-0.14,0.05,0.92,-1.04,-0.39,-0.64,
0.447,-0.15,0.06,0.92,-1.04,-0.39,-0.64,
0.448,-0.15,0.06,0.92,-1.07,-0.34,-0.60,
0.448,-0.14,0.06,0.92,-1.07,-0.34,-0.60,
0.448,-0.15,0.06,0.91,-1.07,-0.34,-0.60,
0.449,-0.15,0.06,0.91,-1.09,-0.31,-0.60,
0.449,-0.15,0.06,0.91,-1.09,-0.31,-0.60,
0.452,-0.15,0.06,0.91,-1.12,-0.26,-0.70,
0.452,-0.15,0.07,0.91,-1.12,-0.26,-0.70,
0.454,-0.16,0.07,0.90,-1.12,-0.26,-0.70,
0.463,-0.16,0.07,0.90,-1.12,-0.26,-0.70,
0.464,-0.16,0.07,0.90,-1.19,-0.22,-0.73,
0.464,-0.17,0.07,0.89,-1.19,-0.22,-0.73,
0.464,-0.17,0.07,0.88,-1.19,-0.22,-0.73,
0.464,-0.17,0.07,0.88,-1.27,-0.18,-0.84,
0.464,-0.17,0.07,0.88,-1.27,-0.18,-0.84,
0.467,-0.17,0.06,0.87,-1.27,-0.18,-0.84,
0.467,-0.17,0.06,0.87,-1.39,-0.19,-0.96,
0.469,-0.18,0.06,0.86,-1.39,-0.19,-0.96,
0.472,-0.18,0.07,0.86,-1.39,-0.19,-0.96,
0.472,-0.18,0.07,0.86,-1.43,-0.23,-1.03,
0.488,-0.19,0.07,0.86,-1.43,-0.23,-1.03,
0.488,-0.19,0.07,0.86,-1.48,-0.25,-1.17,
0.489,-0.19,0.07,0.86,-1.48,-0.25,-1.17,
0.489,-0.19,0.06,0.85,-1.48,-0.25,-1.17,
0.489,-0.19,0.06,0.84,-1.48,-0.25,-1.17,
0.489,-0.19,0.06,0.84,-1.58,-0.23,-1.21,
0.49,-0.20,0.06,0.84,-1.58,-0.23,-1.21,
0.49,-0.20,0.06,0.84,-1.64,-0.28,-1.28,
0.49,-0.19,0.06,0.84,-1.64,-0.28,-1.28,
0.49,-0.19,0.06,0.84,-1.64,-0.28,-1.28,
0.493,-0.19,0.05,0.85,-1.64,-0.28,-1.28,
0.493,-0.19,0.05,0.85,-1.65,-0.30,-1.36,
0.5,-0.18,0.06,0.85,-1.65,-0.30,-1.36,
0.501,-0.18,0.05,0.84,-1.65,-0.30,-1.36,
0.501,-0.18,0.05,0.84,-1.65,-0.36,-1.33,
0.501,-0.17,0.04,0.85,-1.65,-0.36,-1.33,
0.502,-0.17,0.04,0.85,-1.58,-0.40,-1.30,
0.502,-0.17,0.04,0.86,-1.58,-0.40,-1.30,
0.504,-0.16,0.04,0.87,-1.58,-0.40,-1.30,
0.508,-0.15,0.03,0.87,-1.58,-0.40,-1.30,
0.508,-0.15,0.03,0.87,-1.51,-0.50,-1.24,
0.509,-0.13,0.03,0.88,-1.51,-0.50,-1.24,
0.516,-0.12,0.02,0.88,-1.51,-0.50,-1.24,
0.517,-0.12,0.02,0.88,-1.34,-0.60,-1.08,
0.517,-0.11,0.02,0.89,-1.34,-0.60,-1.08,
0.517,-0.10,0.01,0.90,-1.34,-0.60,-1.08,
0.517,-0.10,0.01,0.90,-1.14,-0.69,-0.95,
0.519,-0.09,0.01,0.91,-1.14,-0.69,-0.95,
0.522,-0.08,0.01,0.92,-1.14,-0.69,-0.95,
0.522,-0.08,0.01,0.92,-0.96,-0.79,-0.82,
0.524,-0.07,0.01,0.92,-0.96,-0.79,-0.82,
0.53,-0.07,0.01,0.92,-0.77,-0.87,-0.62,
0.53,-0.07,0.00,0.92,-0.77,-0.87,-0.62,
0.53,-0.06,0.00,0.92,-0.77,-0.87,-0.62,
0.532,-0.05,0.00,0.92,-0.77,-0.87,-0.62,
0.532,-0.05,0.00,0.92,-0.64,-0.90,-0.56,
0.534,-0.04,0.00,0.93,-0.64,-0.90,-0.56,
0.537,-0.04,0.00,0.93,-0.64,-0.90,-0.56,
0.537,-0.04,0.00,0.93,-0.48,-0.93,-0.53,
0.539,-0.03,0.01,0.92,-0.48,-0.93,-0.53,
0.547,-0.03,0.00,0.92,-0.48,-0.93,-0.53,
0.548,-0.03,0.00,0.92,-0.38,-0.95,-0.47,
0.548,-0.02,0.01,0.92,-0.38,-0.95,-0.47,
0.548,-0.02,0.00,0.91,-0.38,-0.95,-0.47,
0.549,-0.02,0.00,0.91,-0.27,-0.90,-0.54,
0.549,-0.01,0.01,0.90,-0.27,-0.90,-0.54,
0.552,-0.01,0.01,0.90,-0.16,-0.91,-0.63,
0.552,-0.01,0.01,0.89,-0.16,-0.91,-0.63,
0.554,-0.01,0.01,0.89,-0.16,-0.91,-0.63,
0.563,-0.01,0.01,0.88,-0.16,-0.91,-0.63,
0.564,-0.01,0.01,0.88,-0.11,-0.89,-0.75,
0.564,-0.00,0.01,0.87,-0.11,-0.89,-0.75,
0.564,-0.00,0.01,0.87,-0.11,-0.89,-0.75,
0.564,-0.00,0.01,0.87,-0.06,-0.89,-0.89,
0.565,-0.01,0.01,0.86,-0.06,-0.89,-0.89,
0.567,-0.01,0.01,0.85,-0.06,-0.89,-0.89,
0.567,-0.01,0.01,0.85,-0.01,-0.88,-1.03,
0.569,-0.01,0.01,0.84,-0.01,-0.88,-1.03,
0.572,-0.01,0.01,0.83,-0.01,-0.88,-1.03,
0.572,-0.01,0.01,0.83,-0.03,-0.86,-1.19,
0.574,-0.01,0.01,0.82,-0.03,-0.86,-1.19,
0.581,-0.01,0.01,0.82,-0.05,-0.86,-1.38,
0.581,-0.02,0.02,0.82,-0.05,-0.86,-1.38,
0.582,-0.02,0.01,0.82,-0.05,-0.86,-1.38,
0.582,-0.03,0.01,0.81,-0.05,-0.86,-1.38,
0.582,-0.03,0.01,0.81,-0.10,-0.84,-1.50,
0.584,-0.03,0.01,0.80,-0.10,-0.84,-1.50,
0.586,-0.03,0.01,0.80,-0.10,-0.84,-1.50,
0.587,-0.03,0.01,0.80,-0.21,-0.86,-1.58,
0.589,-0.04,0.01,0.81,-0.21,-0.86,-1.58,
0.601,-0.03,0.01,0.81,-0.21,-0.86,-1.58,
0.601,-0.03,0.01,0.81,-0.22,-0.88,-1.67,
0.602,-0.03,0.00,0.81,-0.22,-0.88,-1.67,
0.602,-0.03,0.01,0.81,-0.22,-0.88,-1.67,
0.602,-0.03,0.01,0.81,-0.25,-0.90,-1.61,
0.602,-0.03,0.01,0.82,-0.25,-0.90,-1.61,
0.603,-0.03,0.01,0.82,-0.23,-0.93,-1.56,
0.603,-0.03,0.00,0.84,-0.23,-0.93,-1.56,
0.603,-0.03,0.00,0.84,-0.23,-0.93,-1.56,
0.606,-0.03,-0.00,0.84,-0.23,-0.93,-1.56,
0.607,-0.03,-0.00,0.84,-0.26,-0.94,-1.38,
0.617,-0.02,-0.01,0.85,-0.26,-0.94,-1.38,
0.618,-0.02,-0.01,0.87,-0.26,-0.94,-1.38,
0.618,-0.02,-0.01,0.87,-0.24,-1.01,-1.24,
0.618,-0.01,-0.02,0.88,-0.24,-1.01,-1.24,
0.618,-0.01,-0.03,0.89,-0.24,-1.01,-1.24,
0.619,-0.01,-0.03,0.89,-0.13,-1.10,-1.06,
0.619,0.00,-0.04,0.89,-0.13,-1.10,-1.06,
0.621,0.01,-0.05,0.90,-0.13,-1.10,-1.06,
0.621,0.01,-0.05,0.90,-0.05,-1.23,-0.87,
0.623,0.01,-0.06,0.90,-0.05,-1.23,-0.87,
0.636,0.01,-0.06,0.90,0.11,-1.41,-0.72,
0.636,0.02,-0.07,0.90,0.11,-1.41,-0.72,
0.637,0.03,-0.07,0.91,0.11,-1.41,-0.72,
0.638,0.03,-0.09,0.91,0.11,-1.41,-0.72,
0.638,0.03,-0.09,0.91,0.26,-1.58,-0.69,
0.638,0.04,-0.09,0.92,0.26,-1.58,-0.69,
0.638,0.05,-0.10,0.93,0.26,-1.58,-0.69,
0.639,0.05,-0.10,0.93,0.38,-1.76,-0.55,
0.639,0.05,-0.11,0.93,0.38,-1.76,-0.55,
0.64,0.06,-0.12,0.94,0.38,-1.76,-0.55,
0.64,0.06,-0.12,0.94,0.49,-1.91,-0.41,
0.651,0.08,-0.12,0.95,0.49,-1.91,-0.41,
0.651,0.09,-0.13,0.94,0.49,-1.91,-0.41,
0.652,0.09,-0.13,0.94,0.66,-2.07,-0.29,
0.652,0.09,-0.14,0.94,0.66,-2.07,-0.29,
0.652,0.09,-0.14,0.94,0.89,-2.23,-0.23,
0.653,0.11,-0.14,0.93,0.89,-2.23,-0.23,
0.653,0.12,-0.15,0.92,0.89,-2.23,-0.23,
0.655,0.13,-0.15,0.92,0.89,-2.23,-0.23,
0.657,0.13,-0.15,0.92,1.09,-2.36,-0.35,
0.657,0.14,-0.15,0.91,1.09,-2.36,-0.35,
0.666,0.15,-0.15,0.90,1.09,-2.36,-0.35,
0.667,0.15,-0.15,0.90,1.31,-2.41,-0.47,
0.668,0.15,-0.15,0.90,1.31,-2.41,-0.47,
0.668,0.16,-0.15,0.89,1.31,-2.41,-0.47,
0.668,0.16,-0.15,0.89,1.50,-2.47,-0.59,
0.668,0.17,-0.15,0.88,1.50,-2.47,-0.59,
0.67,0.17,-0.14,0.87,1.50,-2.47,-0.59,
0.67,0.17,-0.14,0.87,1.63,-2.46,-0.71,
0.672,0.18,-0.14,0.87,1.63,-2.46,-0.71,
0.682,0.18,-0.14,0.87,1.77,-2.39,-0.89,
0.683,0.19,-0.14,0.87,1.77,-2.39,-0.89,
0.683,0.20,-0.13,0.87,1.77,-2.39,-0.89,
0.684,0.20,-0.12,0.87,1.77,-2.39,-0.89,
0.684,0.20,-0.12,0.87,1.91,-2.35,-0.96,
0.684,0.20,-0.11,0.87,1.91,-2.35,-0.96,
0.685,0.20,-0.11,0.87,1.91,-2.35,-0.96,
0.685,0.20,-0.11,0.87,2.03,-2.22,-0.96,
0.687,0.21,-0.10,0.88,2.03,-2.22,-0.96,
0.691,0.21,-0.09,0.88,2.03,-2.22,-0.96,
0.691,0.21,-0.09,0.88,2.04,-2.07,-0.93,
0.692,0.21,-0.09,0.89,2.04,-2.07,-0.93,
0.706,0.21,-0.08,0.90,2.04,-2.07,-0.93,
0.707,0.21,-0.08,0.90,2.10,-1.94,-0.81,
0.708,0.22,-0.07,0.91,2.10,-1.94,-0.81,
0.708,0.22,-0.07,0.91,2.12,-1.81,-0.64,
0.708,0.24,-0.06,0.91,2.12,-1.81,-0.64,
0.708,0.24,-0.06,0.91,2.12,-1.81,-0.64,
0.709,0.25,-0.05,0.91,2.12,-1.81,-0.64,
0.709,0.25,-0.05,0.91,2.28,-1.65,-0.57,
0.71,0.26,-0.05,0.92,2.28,-1.65,-0.57,
0.711,0.27,-0.04,0.91,2.28,-1.65,-0.57,
0.711,0.27,-0.04,0.91,2.42,-1.56,-0.53,
0.718,0.28,-0.03,0.92,2.42,-1.56,-0.53,
0.719,0.29,-0.03,0.92,2.42,-1.56,-0.53,
0.719,0.29,-0.03,0.92,2.58,-1.47,-0.47,
0.72,0.30,-0.02,0.93,2.58,-1.47,-0.47,
0.72,0.31,-0.02,0.93,2.58,-1.47,-0.47,
0.72,0.31,-0.02,0.93,2.76,-1.35,-0.42,
0.721,0.32,-0.02,0.94,2.76,-1.35,-0.42,
0.724,0.32,-0.02,0.94,2.97,-1.27,-0.36,
0.725,0.33,-0.01,0.94,2.97,-1.27,-0.36,
0.737,0.34,0.00,0.95,2.97,-1.27,-0.36,
0.738,0.35,0.00,0.95,2.97,-1.27,-0.36,
0.738,0.35,0.00,0.95,3.11,-1.19,-0.26,
0.738,0.35,0.00,0.96,3.11,-1.19,-0.26,
0.739,0.36,0.00,0.96,3.11,-1.19,-0.26,
0.739,0.36,0.00,0.96,3.29,-1.05,-0.10,
0.739,0.36,0.01,0.97,3.29,-1.05,-0.10,
0.74,0.37,0.01,0.97,3.29,-1.05,-0.10,
0.74,0.37,0.01,0.97,3.40,-1.06,-0.02,
0.741,0.37,0.00,0.98,3.40,-1.06,-0.02,
0.75,0.38,-0.00,0.98,3.40,-1.06,-0.02,
0.751,0.38,-0.00,0.98,3.48,-0.99,0.09,
0.751,0.38,-0.01,0.98,3.48,-0.99,0.09,
0.751,0.38,-0.01,0.98,3.58,-1.04,0.15,
0.752,0.38,-0.01,0.98,3.58,-1.04,0.15,
0.752,0.38,-0.01,0.98,3.58,-1.04,0.15,
0.754,0.38,-0.01,0.97,3.58,-1.04,0.15,
0.754,0.38,-0.01,0.97,3.63,-1.10,0.15,
0.756,0.38,-0.02,0.97,3.63,-1.10,0.15,
0.766,0.37,-0.03,0.96,3.63,-1.10,0.15,
0.767,0.37,-0.03,0.96,3.61,-1.15,0.09,
0.767,0.37,-0.03,0.95,3.61,-1.15,0.09,
0.768,0.37,-0.03,0.94,3.61,-1.15,0.09,
0.768,0.37,-0.03,0.94,3.59,-1.22,-0.02,
0.768,0.36,-0.04,0.93,3.59,-1.22,-0.02,
0.769,0.35,-0.04,0.92,3.59,-1.22,-0.02,
0.769,0.35,-0.04,0.92,3.53,-1.26,-0.22,
0.771,0.35,-0.05,0.92,3.53,-1.26,-0.22,
0.774,0.35,-0.05,0.92,3.49,-1.32,-0.38,
0.774,0.34,-0.05,0.92,3.49,-1.32,-0.38,
0.784,0.34,-0.05,0.92,3.49,-1.32,-0.38,
0.785,0.33,-0.05,0.92,3.49,-1.32,-0.38,
0.785,0.33,-0.05,0.92,3.38,-1.35,-0.45,
0.785,0.33,-0.06,0.92,3.38,-1.35,-0.45,
0.785,0.33,-0.06,0.92,3.38,-1.35,-0.45,
0.786,0.33,-0.06,0.92,3.29,-1.38,-0.43,
0.786,0.33,-0.06,0.92,3.29,-1.38,-0.43,
0.788,0.33,-0.06,0.92,3.29,-1.38,-0.43,
0.789,0.33,-0.06,0.92,3.27,-1.41,-0.45,
0.791,0.33,-0.06,0.93,3.27,-1.41,-0.45,
0.798,0.33,-0.06,0.94,3.27,-1.41,-0.45,
0.799,0.33,-0.06,0.94,3.24,-1.40,-0.43,
0.799,0.34,-0.06,0.94,3.24,-1.40,-0.43,
0.799,0.34,-0.06,0.94,3.29,-1.36,-0.29,
0.799,0.34,-0.06,0.95,3.29,-1.36,-0.29,
0.801,0.35,-0.06,0.96,3.29,-1.36,-0.29,
0.803,0.35,-0.06,0.97,3.29,-1.36,-0.29,
0.803,0.35,-0.06,0.97,3.37,-1.35,-0.21,
0.805,0.36,-0.05,0.97,3.37,-1.35,-0.21,
0.809,0.37,-0.04,0.99,3.37,-1.35,-0.21,
0.81,0.37,-0.04,0.99,3.49,-1.29,-0.03,
0.82,0.37,-0.04,1.00,3.49,-1.29,-0.03,
0.821,0.38,-0.03,1.01,3.49,-1.29,-0.03,
0.821,0.38,-0.03,1.01,3.62,-1.16,0.14,
0.822,0.39,-0.03,1.03,3.62,-1.16,0.14,
0.822,0.39,-0.02,1.04,3.62,-1.16,0.14,
0.822,0.39,-0.02,1.04,3.72,-1.05,0.37,
0.826,0.41,-0.02,1.05,3.72,-1.05,0.37,
0.826,0.41,-0.02,1.05,3.87,-0.89,0.66,
0.826,0.41,-0.01,1.07,3.87,-0.89,0.66,
0.827,0.42,-0.00,1.08,3.87,-0.89,0.66,
0.832,0.43,0.00,1.09,3.87,-0.89,0.66,
0.833,0.43,0.00,1.09,4.04,-0.76,0.92,
0.833,0.43,0.01,1.10,4.04,-0.76,0.92,
0.834,0.44,0.01,1.10,4.04,-0.76,0.92,
0.834,0.44,0.01,1.10,4.14,-0.58,1.19,
0.836,0.45,0.01,1.11,4.14,-0.58,1.19,
0.838,0.45,0.01,1.11,4.14,-0.58,1.19,
0.839,0.45,0.01,1.11,4.29,-0.51,1.32,
0.841,0.45,0.02,1.12,4.29,-0.51,1.32,
0.852,0.46,0.02,1.11,4.29,-0.51,1.32,
0.852,0.46,0.02,1.11,4.38,-0.48,1.41,
0.852,0.46,0.02,1.10,4.38,-0.48,1.41,
0.852,0.46,0.02,1.10,4.44,-0.38,1.42,
0.853,0.45,0.02,1.10,4.44,-0.38,1.42,
0.853,0.45,0.02,1.09,4.44,-0.38,1.42,
0.853,0.45,0.02,1.07,4.44,-0.38,1.42,
0.853,0.45,0.02,1.07,4.42,-0.36,1.28,
0.856,0.44,0.02,1.06,4.42,-0.36,1.28,
0.858,0.44,0.02,1.05,4.42,-0.36,1.28,
0.858,0.44,0.02,1.05,4.39,-0.31,1.09,
0.865,0.43,0.02,1.03,4.39,-0.31,1.09,
0.866,0.42,0.02,1.02,4.39,-0.31,1.09,
0.866,0.42,0.02,1.02,4.28,-0.28,0.86,
0.866,0.41,0.02,1.01,4.28,-0.28,0.86,
0.869,0.40,0.03,1.00,4.28,-0.28,0.86,
0.869,0.40,0.03,1.00,4.12,-0.29,0.57,
0.871,0.39,0.04,0.99,4.12,-0.29,0.57,
0.873,0.39,0.04,0.99,3.95,-0.20,0.38,
0.874,0.38,0.04,0.99,3.95,-0.20,0.38,
0.876,0.37,0.05,0.98,3.95,-0.20,0.38,
0.883,0.37,0.06,0.97,3.95,-0.20,0.38,
0.883,0.37,0.06,0.97,3.77,-0.07,0.21,
0.884,0.36,0.06,0.97,3.77,-0.07,0.21,
0.884,0.36,0.06,0.96,3.77,-0.07,0.21,
0.884,0.36,0.06,0.96,3.62,0.04,0.08,
0.886,0.36,0.06,0.97,3.62,0.04,0.08,
0.888,0.36,0.07,0.97,3.62,0.04,0.08,
0.888,0.36,0.07,0.97,3.53,0.11,-0.00,
0.891,0.37,0.07,0.96,3.53,0.11,-0.00,
0.893,0.36,0.07,0.97,3.53,0.11,-0.00,
0.893,0.36,0.07,0.97,3.48,0.21,-0.03,
0.899,0.36,0.07,0.98,3.48,0.21,-0.03,
0.899,0.36,0.07,0.98,3.51,0.23,-0.01,
0.899,0.37,0.07,0.98,3.51,0.23,-0.01,
0.9,0.37,0.08,0.99,3.51,0.23,-0.01,
0.903,0.36,0.08,0.98,3.51,0.23,-0.01,
0.904,0.36,0.08,0.98,3.50,0.30,0.08,
0.905,0.37,0.08,1.00,3.50,0.30,0.08,
0.908,0.37,0.09,1.01,3.50,0.30,0.08,
0.908,0.37,0.09,1.01,3.52,0.35,0.14,
0.91,0.37,0.09,1.01,3.52,0.35,0.14,
0.915,0.37,0.09,1.02,3.52,0.35,0.14,
0.916,0.37,0.09,1.02,3.52,0.41,0.33,
0.916,0.37,0.09,1.02,3.52,0.41,0.33,
0.918,0.37,0.09,1.03,3.52,0.41,0.33,
0.918,0.37,0.09,1.03,3.51,0.45,0.42,
0.92,0.37,0.09,1.03,3.51,0.45,0.42,
0.923,0.37,0.09,1.03,3.51,0.48,0.55,
0.923,0.37,0.09,1.04,3.51,0.48,0.55,
0.925,0.36,0.08,1.04,3.51,0.48,0.55,
0.938,0.37,0.08,1.04,3.51,0.48,0.55,
0.939,0.37,0.08,1.04,3.47,0.48,0.64,
0.939,0.36,0.08,1.04,3.47,0.48,0.64,
0.939,0.36,0.07,1.04,3.47,0.48,0.64,
0.94,0.36,0.07,1.04,3.43,0.42,0.69,
0.94,0.35,0.07,1.05,3.43,0.42,0.69,
0.94,0.35,0.06,1.04,3.43,0.42,0.69,
0.94,0.35,0.06,1.04,3.38,0.36,0.71,
0.941,0.34,0.06,1.04,3.38,0.36,0.71,
0.943,0.34,0.06,1.05,3.38,0.36,0.71,
0.943,0.34,0.06,1.05,3.27,0.27,0.72,
0.951,0.34,0.06,1.05,3.27,0.27,0.72,
0.951,0.34,0.06,1.05,3.19,0.23,0.69,
0.952,0.33,0.06,1.04,3.19,0.23,0.69,
0.952,0.33,0.06,1.04,3.19,0.23,0.69,
0.952,0.33,0.05,1.04,3.19,0.23,0.69,
0.952,0.33,0.05,1.04,3.12,0.24,0.71,
0.954,0.33,0.06,1.04,3.12,0.24,0.71,
0.957,0.33,0.05,1.04,3.12,0.24,0.71,
0.957,0.33,0.05,1.04,3.05,0.22,0.66,
0.96,0.32,0.05,1.03,3.05,0.22,0.66,
0.97,0.32,0.05,1.03,3.05,0.22,0.66,
0.97,0.32,0.05,1.03,3.01,0.24,0.65,
0.97,0.32,0.05,1.03,3.01,0.24,0.65,
0.971,0.31,0.06,1.02,3.01,0.24,0.65,
0.971,0.31,0.06,1.02,2.97,0.23,0.54,
0.971,0.31,0.05,1.02,2.97,0.23,0.54,
0.972,0.31,0.05,1.02,2.91,0.27,0.54,
0.972,0.30,0.05,1.03,2.91,0.27,0.54,
0.974,0.30,0.05,1.03,2.91,0.27,0.54,
0.984,0.30,0.05,1.03,2.91,0.27,0.54,
0.984,0.30,0.05,1.03,2.81,0.27,0.52,
0.985,0.30,0.05,1.03,2.81,0.27,0.52,
0.985,0.30,0.04,1.03,2.81,0.27,0.52,
0.985,0.30,0.04,1.03,2.74,0.23,0.52,
0.985,0.29,0.04,1.03,2.74,0.23,0.52,
0.988,0.29,0.04,1.03,2.74,0.23,0.52,
0.988,0.29,0.04,1.03,2.73,0.21,0.56,
0.989,0.29,0.03,1.04,2.73,0.21,0.56,
0.992,0.29,0.02,1.04,2.73,0.21,0.56,
0.992,0.29,0.02,1.04,2.66,0.19,0.58,
0.994,0.29,0.01,1.04,2.66,0.19,0.58,
1.0,0.29,0.01,1.04,2.65,0.08,0.65,
1.0,0.29,0.01,1.05,2.65,0.08,0.65,
1.0,0.29,0.00,1.06,2.65,0.08,0.65,
1.001,0.29,-0.00,1.07,2.65,0.08,0.65,
1.002,0.29,-0.00,1.07,2.68,-0.07,0.73,
1.003,0.29,-0.00,1.08,2.68,-0.07,0.73,
1.006,0.29,-0.00,1.09,2.68,-0.07,0.73,
1.007,0.29,-0.00,1.09,2.65,-0.13,0.90,
1.009,0.29,0.00,1.09,2.65,-0.13,0.90,
1.016,0.29,-0.00,1.10,2.65,-0.13,0.90,
1.017,0.29,-0.00,1.10,2.63,-0.13,1.06,
1.017,0.29,0.00,1.10,2.63,-0.13,1.06,
1.018,0.29,0.00,1.10,2.63,-0.13,1.06,
1.018,0.29,0.00,1.10,2.63,-0.11,1.17,
1.018,0.29,0.01,1.10,2.63,-0.11,1.17,
1.021,0.29,0.01,1.10,2.62,-0.08,1.23,
1.022,0.29,0.01,1.10,2.62,-0.08,1.23,
1.023,0.29,0.01,1.10,2.62,-0.08,1.23,
1.027,0.29,0.02,1.10,2.62,-0.08,1.23,
1.027,0.29,0.02,1.10,2.59,-0.02,1.25,
1.039,0.29,0.02,1.10,2.59,-0.02,1.25,
1.04,0.29,0.03,1.10,2.59,-0.02,1.25,
1.04,0.29,0.03,1.10,2.60,0.05,1.22,
1.04,0.29,0.03,1.09,2.60,0.05,1.22,
1.04,0.29,0.03,1.09,2.60,0.05,1.22,
1.041,0.29,0.03,1.09,2.59,0.16,1.21,
1.041,0.28,0.04,1.08,2.59,0.16,1.21,
1.041,0.28,0.04,1.08,2.59,0.16,1.21,
1.042,0.28,0.04,1.08,2.59,0.22,1.13,
1.053,0.28,0.04,1.07,2.59,0.22,1.13,
1.053,0.28,0.04,1.07,2.52,0.31,1.04,
1.053,0.28,0.04,1.07,2.52,0.31,1.04,
1.054,0.27,0.04,1.06,2.52,0.31,1.04,
1.054,0.26,0.04,1.05,2.52,0.31,1.04,
1.054,0.26,0.04,1.05,2.50,0.35,0.89,
1.054,0.26,0.04,1.05,2.50,0.35,0.89,
1.056,0.26,0.03,1.04,2.50,0.35,0.89,
1.056,0.26,0.03,1.04,2.41,0.34,0.76,
1.059,0.25,0.03,1.04,2.41,0.34,0.76,
1.07,0.25,0.03,1.03,2.41,0.34,0.76,
1.071,0.25,0.03,1.03,2.34,0.29,0.68,
1.071,0.24,0.03,1.03,2.34,0.29,0.68,
1.071,0.23,0.03,1.02,2.34,0.29,0.68,
1.072,0.23,0.03,1.02,2.22,0.26,0.52,
1.072,0.22,0.03,1.02,2.22,0.26,0.52,
1.072,0.22,0.03,1.02,2.05,0.28,0.46,
1.072,0.21,0.03,1.02,2.05,0.28,0.46,
1.074,0.21,0.03,1.02,2.05,0.28,0.46,
1.076,0.21,0.03,1.03,2.05,0.28,0.46,
1.076,0.21,0.03,1.03,1.91,0.28,0.43,
1.084,0.21,0.03,1.03,1.91,0.28,0.43,
1.084,0.21,0.03,1.03,1.91,0.28,0.43,
1.085,0.21,0.03,1.03,1.82,0.26,0.46,
1.085,0.22,0.02,1.04,1.82,0.26,0.46,
1.085,0.23,0.02,1.05,1.82,0.26,0.46,
1.086,0.23,0.02,1.05,1.83,0.25,0.53,
1.088,0.24,0.01,1.06,1.83,0.25,0.53,
1.09,0.24,0.01,1.08,1.83,0.25,0.53,
1.091,0.24,0.01,1.08,1.97,0.14,0.67,
1.093,0.25,0.01,1.09,1.97,0.14,0.67,
1.101,0.25,0.01,1.09,2.09,0.06,0.92,
1.101,0.26,0.00,1.10,2.09,0.06,0.92,
1.102,0.26,0.00,1.11,2.09,0.06,0.92,
1.102,0.26,0.01,1.11,2.09,0.06,0.92,
1.102,0.26,0.01,1.11,2.21,0.02,1.15,
1.103,0.27,0.01,1.11,2.21,0.02,1.15,
1.105,0.26,0.01,1.12,2.21,0.02,1.15,
1.105,0.26,0.01,1.12,2.24,-0.02,1.28,
1.108,0.26,0.01,1.12,2.24,-0.02,1.28,
1.118,0.26,0.01,1.11,2.24,-0.02,1.28,
1.118,0.26,0.01,1.11,2.25,0.00,1.30,
1.119,0.25,0.01,1.11,2.25,0.00,1.30,
1.119,0.25,0.01,1.11,2.25,0.00,1.30,
1.119,0.25,0.01,1.11,2.16,0.04,1.34,
1.119,0.24,0.02,1.11,2.16,0.04,1.34,
1.12,0.24,0.02,1.11,2.09,0.04,1.26,
1.121,0.24,0.02,1.10,2.09,0.04,1.26,
1.122,0.23,0.03,1.09,2.09,0.04,1.26,
1.126,0.22,0.03,1.08,2.09,0.04,1.26,
1.126,0.22,0.03,1.08,1.94,0.10,1.20,
1.128,0.22,0.03,1.07,1.94,0.10,1.20,
1.139,0.22,0.04,1.06,1.94,0.10,1.20,
1.14,0.22,0.04,1.06,1.81,0.16,1.03,
1.14,0.22,0.04,1.05,1.81,0.16,1.03,
1.14,0.23,0.04,1.04,1.81,0.16,1.03,
1.141,0.23,0.04,1.04,1.76,0.18,0.80,
1.141,0.22,0.04,1.03,1.76,0.18,0.80,
1.141,0.23,0.04,1.02,1.76,0.18,0.80,
1.141,0.23,0.04,1.02,1.80,0.23,0.67,
1.142,0.23,0.04,1.00,1.80,0.23,0.67,
1.152,0.23,0.04,1.00,1.78,0.22,0.40,
1.152,0.22,0.04,1.00,1.78,0.22,0.40,
1.153,0.22,0.04,0.99,1.78,0.22,0.40,
1.153,0.22,0.04,0.97,1.78,0.22,0.40,
1.155,0.22,0.04,0.97,1.79,0.22,0.21,
1.156,0.22,0.04,0.97,1.79,0.22,0.21,
1.157,0.22,0.03,0.96,1.79,0.22,0.21,
1.157,0.22,0.03,0.96,1.77,0.21,0.02,
1.158,0.21,0.03,0.96,1.77,0.21,0.02,
1.16,0.21,0.03,0.95,1.77,0.21,0.02,
1.16,0.21,0.03,0.95,1.73,0.13,-0.13,
1.17,0.20,0.02,0.96,1.73,0.13,-0.13,
1.171,0.19,0.02,0.95,1.73,0.13,-0.13,
1.171,0.19,0.02,0.95,1.66,0.07,-0.26,
1.172,0.19,0.02,0.95,1.66,0.07,-0.26,
1.172,0.19,0.02,0.95,1.51,0.02,-0.27,
1.172,0.18,0.02,0.95,1.51,0.02,-0.27,
1.173,0.16,0.01,0.95,1.51,0.02,-0.27,
1.176,0.16,0.01,0.96,1.51,0.02,-0.27,
1.176,0.16,0.01,0.96,1.39,-0.00,-0.31,
1.179,0.15,0.01,0.96,1.39,-0.00,-0.31,
1.18,0.14,0.00,0.97,1.39,-0.00,-0.31,
1.18,0.14,0.00,0.97,1.19,-0.07,-0.26,
1.183,0.14,-0.00,0.98,1.19,-0.07,-0.26,
1.186,0.13,-0.00,0.99,1.19,-0.07,-0.26,
1.186,0.13,-0.00,0.99,1.07,-0.14,-0.15,
1.188,0.12,-0.01,1.00,1.07,-0.14,-0.15,
1.19,0.11,-0.01,1.01,1.07,-0.14,-0.15,
1.19,0.11,-0.01,1.01,0.93,-0.21,0.06,
1.192,0.11,-0.02,1.02,0.93,-0.21,0.06,
1.195,0.11,-0.02,1.02,0.76,-0.26,0.23,
1.195,0.10,-0.03,1.02,0.76,-0.26,0.23,
1.201,0.09,-0.03,1.03,0.76,-0.26,0.23,
1.202,0.08,-0.03,1.03,0.76,-0.26,0.23,
1.202,0.08,-0.03,1.03,0.61,-0.37,0.41,
1.202,0.07,-0.03,1.03,0.61,-0.37,0.41,
1.205,0.06,-0.03,1.03,0.61,-0.37,0.41,
1.206,0.06,-0.03,1.03,0.45,-0.40,0.47,
1.207,0.05,-0.04,1.03,0.45,-0.40,0.47,
1.21,0.05,-0.04,1.03,0.45,-0.40,0.47,
1.21,0.05,-0.04,1.03,0.24,-0.46,0.48,
1.212,0.04,-0.04,1.03,0.24,-0.46,0.48,
1.218,0.04,-0.05,1.02,0.24,-0.46,0.48,
1.218,0.04,-0.05,1.02,0.09,-0.52,0.47,
1.219,0.03,-0.04,1.02,0.09,-0.52,0.47,
1.219,0.03,-0.04,1.02,-0.04,-0.53,0.42,
1.22,0.02,-0.04,1.01,-0.04,-0.53,0.42,
1.222,0.02,-0.04,1.00,-0.04,-0.53,0.42,
1.225,0.02,-0.04,0.99,-0.04,-0.53,0.42,
1.225,0.02,-0.04,0.99,-0.17,-0.51,0.29,
1.227,0.01,-0.04,0.98,-0.17,-0.51,0.29,
1.233,0.02,-0.04,0.98,-0.17,-0.51,0.29,
1.234,0.02,-0.04,0.98,-0.22,-0.47,0.15,
1.234,0.02,-0.03,0.97,-0.22,-0.47,0.15,
1.234,0.02,-0.03,0.97,-0.26,-0.42,0.01,
1.234,0.02,-0.03,0.97,-0.26,-0.42,0.01,
1.237,0.02,-0.03,0.97,-0.26,-0.42,0.01,
1.24,0.02,-0.03,0.97,-0.26,-0.42,0.01,
1.24,0.02,-0.03,0.97,-0.21,-0.38,-0.11,
1.242,0.03,-0.03,0.98,-0.21,-0.38,-0.11,
1.245,0.03,-0.03,0.98,-0.18,-0.34,-0.11,
1.245,0.03,-0.02,0.98,-0.18,-0.34,-0.11,
1.256,0.03,-0.02,0.99,-0.18,-0.34,-0.11,
1.257,0.03,-0.02,0.99,-0.18,-0.34,-0.11,
1.257,0.03,-0.02,0.99,-0.13,-0.29,-0.04,
1.257,0.03,-0.02,1.00,-0.13,-0.29,-0.04,
1.258,0.04,-0.02,1.02,-0.13,-0.29,-0.04,
1.258,0.04,-0.02,1.02,-0.10,-0.27,0.10,
1.258,0.03,-0.02,1.02,-0.10,-0.27,0.10,
1.261,0.03,-0.02,1.04,-0.10,-0.27,0.10,
1.262,0.03,-0.02,1.04,-0.07,-0.26,0.28,
1.262,0.03,-0.02,1.05,-0.07,-0.26,0.28,
1.269,0.02,-0.02,1.05,-0.07,-0.26,0.28,
1.27,0.02,-0.02,1.05,-0.09,-0.23,0.48,
1.27,0.02,-0.02,1.05,-0.09,-0.23,0.48,
1.27,0.02,-0.02,1.05,-0.15,-0.22,0.65,
1.27,0.01,-0.03,1.06,-0.15,-0.22,0.65,
1.271,0.01,-0.03,1.06,-0.15,-0.22,0.65,
1.275,0.00,-0.03,1.06,-0.15,-0.22,0.65,
1.275,0.00,-0.03,1.06,-0.24,-0.24,0.71,
1.277,-0.01,-0.03,1.05,-0.24,-0.24,0.71,
1.287,-0.01,-0.04,1.05,-0.24,-0.24,0.71,
1.288,-0.01,-0.04,1.05,-0.33,-0.29,0.74,
1.288,-0.02,-0.04,1.05,-0.33,-0.29,0.74,
1.288,-0.02,-0.05,1.05,-0.33,-0.29,0.74,
1.288,-0.02,-0.05,1.05,-0.50,-0.34,0.69,
1.289,-0.03,-0.05,1.04,-0.50,-0.34,0.69,
1.289,-0.04,-0.06,1.04,-0.50,-0.34,0.69,
1.289,-0.04,-0.06,1.04,-0.62,-0.41,0.65,
1.292,-0.05,-0.06,1.03,-0.62,-0.41,0.65,
1.294,-0.05,-0.07,1.02,-0.62,-0.41,0.65,
1.295,-0.05,-0.07,1.02,-0.74,-0.53,0.53,
1.302,-0.06,-0.08,1.02,-0.74,-0.53,0.53,
1.303,-0.06,-0.08,1.01,-0.74,-0.53,0.53,
1.303,-0.06,-0.08,1.01,-0.90,-0.65,0.40,
1.303,-0.07,-0.09,1.00,-0.90,-0.65,0.40,
1.304,-0.07,-0.09,0.99,-0.90,-0.65,0.40,
1.304,-0.07,-0.09,0.99,-0.99,-0.79,0.30,
1.306,-0.07,-0.09,0.98,-0.99,-0.79,0.30,
1.308,-0.08,-0.09,0.98,-0.99,-0.79,0.30,
1.308,-0.08,-0.09,0.98,-1.08,-0.87,0.14,
1.31,-0.08,-0.10,0.97,-1.08,-0.87,0.14,
1.317,-0.08,-0.10,0.97,-1.08,-0.87,0.14,
1.318,-0.08,-0.10,0.97,-1.18,-0.92,0.02,
1.32,-0.09,-0.10,0.97,-1.18,-0.92,0.02,
1.32,-0.10,-0.10,0.96,-1.18,-0.92,0.02,
1.32,-0.10,-0.10,0.96,-1.23,-0.97,-0.10,
1.321,-0.10,-0.10,0.96,-1.23,-0.97,-0.10,
1.323,-0.10,-0.10,0.96,-1.23,-0.97,-0.10,
1.323,-0.10,-0.10,0.96,-1.33,-0.96,-0.17,
1.325,-0.10,-0.10,0.96,-1.33,-0.96,-0.17,
1.328,-0.11,-0.09,0.95,-1.33,-0.96,-0.17,
1.328,-0.11,-0.09,0.95,-1.39,-0.97,-0.24,
1.336,-0.11,-0.09,0.95,-1.39,-0.97,-0.24,
1.336,-0.11,-0.09,0.94,-1.39,-0.97,-0.24,
1.337,-0.11,-0.09,0.94,-1.46,-0.93,-0.28,
1.337,-0.11,-0.09,0.94,-1.46,-0.93,-0.28,
1.338,-0.10,-0.09,0.93,-1.46,-0.93,-0.28,
1.338,-0.10,-0.09,0.93,-1.48,-0.88,-0.38,
1.34,-0.10,-0.09,0.93,-1.48,-0.88,-0.38,
1.343,-0.09,-0.09,0.93,-1.48,-0.88,-0.38,
1.343,-0.09,-0.09,0.93,-1.44,-0.87,-0.44,
1.355,-0.09,-0.09,0.93,-1.44,-0.87,-0.44,
1.356,-0.09,-0.08,0.93,-1.44,-0.87,-0.44,
1.356,-0.09,-0.08,0.93,-1.37,-0.86,-0.49,
1.356,-0.08,-0.08,0.93,-1.37,-0.86,-0.49,
1.356,-0.08,-0.08,0.93,-1.29,-0.83,-0.50,
1.357,-0.08,-0.08,0.93,-1.29,-0.83,-0.50,
1.357,-0.08,-0.08,0.93,-1.29,-0.83,-0.50,
1.358,-0.07,-0.08,0.94,-1.29,-0.83,-0.50,
1.358,-0.07,-0.08,0.94,-1.25,-0.79,-0.50,
1.36,-0.07,-0.08,0.94,-1.25,-0.79,-0.50,
1.37,-0.07,-0.08,0.94,-1.25,-0.79,-0.50,
1.371,-0.07,-0.08,0.94,-1.20,-0.77,-0.47,
1.371,-0.07,-0.07,0.94,-1.20,-0.77,-0.47,
1.371,-0.07,-0.07,0.94,-1.16,-0.75,-0.40,
1.371,-0.07,-0.07,0.95,-1.16,-0.75,-0.40,
1.371,-0.07,-0.06,0.96,-1.16,-0.75,-0.40,
1.373,-0.07,-0.07,0.96,-1.16,-0.75,-0.40,
1.373,-0.07,-0.07,0.96,-1.13,-0.68,-0.38,
1.375,-0.06,-0.06,0.96,-1.13,-0.68,-0.38,
1.378,-0.07,-0.06,0.97,-1.13,-0.68,-0.38,
1.378,-0.07,-0.06,0.97,-1.14,-0.62,-0.23,
1.388,-0.06,-0.06,0.98,-1.14,-0.62,-0.23,
1.388,-0.07,-0.06,0.99,-1.14,-0.62,-0.23,
1.389,-0.07,-0.06,0.99,-1.13,-0.61,-0.15,
1.393,-0.06,-0.06,1.00,-1.13,-0.61,-0.15,
1.393,-0.07,-0.06,1.00,-1.13,-0.61,-0.15,
1.393,-0.07,-0.06,1.00,-1.14,-0.55,0.04,
1.393,-0.07,-0.06,1.01,-1.14,-0.55,0.04,
1.393,-0.07,-0.06,1.01,-1.17,-0.58,0.18,
1.394,-0.08,-0.07,1.01,-1.17,-0.58,0.18,
1.395,-0.08,-0.07,1.02,-1.17,-0.58,0.18,
1.402,-0.08,-0.07,1.02,-1.17,-0.58,0.18,
1.403,-0.08,-0.07,1.02,-1.24,-0.60,0.29,
1.403,-0.09,-0.07,1.01,-1.24,-0.60,0.29,
1.403,-0.09,-0.08,1.01,-1.24,-0.60,0.29,
1.403,-0.09,-0.08,1.01,-1.33,-0.67,0.38,
1.405,-0.10,-0.08,1.01,-1.33,-0.67,0.38,
1.408,-0.10,-0.09,0.99,-1.33,-0.67,0.38,
1.408,-0.10,-0.09,0.99,-1.43,-0.71,0.28,
1.41,-0.11,-0.09,0.98,-1.43,-0.71,0.28,
1.413,-0.11,-0.09,0.98,-1.43,-0.71,0.28,
1.413,-0.11,-0.09,0.98,-1.55,-0.81,0.16,
1.418,-0.12,-0.10,0.97,-1.55,-0.81,0.16,
1.419,-0.12,-0.10,0.96,-1.55,-0.81,0.16,
1.419,-0.12,-0.10,0.96,-1.62,-0.84,-0.02,
1.42,-0.13,-0.11,0.95,-1.62,-0.84,-0.02,
1.423,-0.14,-0.11,0.94,-1.62,-0.84,-0.02,
1.424,-0.14,-0.11,0.94,-1.72,-0.94,-0.18,
1.425,-0.14,-0.11,0.93,-1.72,-0.94,-0.18,
1.428,-0.15,-0.11,0.92,-1.72,-0.94,-0.18,
1.428,-0.15,-0.11,0.92,-1.85,-1.04,-0.38,
1.429,-0.16,-0.12,0.92,-1.85,-1.04,-0.38,
1.435,-0.16,-0.13,0.92,-1.85,-1.04,-0.38,
1.435,-0.16,-0.13,0.92,-1.97,-1.06,-0.54,
1.436,-0.16,-0.13,0.91,-1.97,-1.06,-0.54,
1.438,-0.16,-0.13,0.91,-1.97,-1.06,-0.54,
1.438,-0.16,-0.13,0.91,-2.08,-1.15,-0.60,
1.44,-0.16,-0.13,0.91,-2.08,-1.15,-0.60,
1.443,-0.16,-0.13,0.91,-2.10,-1.22,-0.67,
1.443,-0.16,-0.14,0.92,-2.10,-1.22,-0.67,
1.445,-0.15,-0.14,0.93,-2.10,-1.22,-0.67,
1.453,-0.15,-0.13,0.93,-2.10,-1.22,-0.67,
1.454,-0.15,-0.13,0.93,-2.12,-1.22,-0.63,
1.454,-0.15,-0.14,0.94,-2.12,-1.22,-0.63,
1.454,-0.15,-0.14,0.95,-2.12,-1.22,-0.63,
1.454,-0.15,-0.14,0.95,-2.06,-1.22,-0.48,
1.455,-0.14,-0.14,0.97,-2.06,-1.22,-0.48,
1.458,-0.14,-0.13,0.98,-2.06,-1.22,-0.48,
1.458,-0.14,-0.13,0.98,-2.02,-1.22,-0.34,
1.46,-0.13,-0.14,1.00,-2.02,-1.22,-0.34,
1.463,-0.12,-0.13,1.01,-2.02,-1.22,-0.34,
1.463,-0.12,-0.13,1.01,-1.93,-1.18,-0.04,
1.472,-0.12,-0.13,1.02,-1.93,-1.18,-0.04,
1.473,-0.12,-0.13,1.02,-1.85,-1.16,0.26,
1.473,-0.12,-0.13,1.03,-1.85,-1.16,0.26,
1.474,-0.11,-0.12,1.05,-1.85,-1.16,0.26,
1.474,-0.10,-0.12,1.06,-1.85,-1.16,0.26,
1.474,-0.10,-0.12,1.06,-1.76,-1.08,0.47,
1.474,-0.10,-0.12,1.07,-1.76,-1.08,0.47,
1.477,-0.10,-0.11,1.07,-1.76,-1.08,0.47,
1.478,-0.10,-0.11,1.07,-1.64,-1.01,0.72,
1.48,-0.09,-0.11,1.07,-1.64,-1.01,0.72,
1.483,-0.09,-0.11,1.07,-1.64,-1.01,0.72,
1.484,-0.09,-0.11,1.07,-1.58,-0.95,0.88,
1.484,-0.09,-0.11,1.07,-1.58,-0.95,0.88,
1.487,-0.09,-0.10,1.06,-1.58,-0.95,0.88,
1.488,-0.09,-0.10,1.06,-1.51,-0.89,0.86,
1.489,-0.09,-0.10,1.05,-1.51,-0.89,0.86,
1.492,-0.09,-0.10,1.05,-1.53,-0.85,0.85,
1.492,-0.09,-0.10,1.05,-1.53,-0.85,0.85,
1.494,-0.10,-0.10,1.04,-1.53,-0.85,0.85,
1.505,-0.10,-0.10,1.02,-1.53,-0.85,0.85,
1.505,-0.10,-0.10,1.02,-1.53,-0.82,0.69,
1.506,-0.11,-0.10,1.01,-1.53,-0.82,0.69,
1.506,-0.11,-0.10,0.99,-1.53,-0.82,0.69,
1.506,-0.11,-0.10,0.99,-1.58,-0.78,0.49,
1.506,-0.11,-0.11,0.99,-1.58,-0.78,0.49,
1.507,-0.12,-0.11,0.97,-1.58,-0.78,0.49,
1.507,-0.12,-0.11,0.97,-1.69,-0.80,0.19,
1.509,-0.13,-0.11,0.96,-1.69,-0.80,0.19,
1.512,-0.14,-0.10,0.94,-1.69,-0.80,0.19,
1.512,-0.14,-0.10,0.94,-1.75,-0.89,0.01,
1.519,-0.15,-0.10,0.94,-1.75,-0.89,0.01,
1.52,-0.15,-0.10,0.94,-1.90,-0.87,-0.27,
1.522,-0.16,-0.10,0.93,-1.90,-0.87,-0.27,
1.522,-0.17,-0.10,0.93,-1.90,-0.87,-0.27,
1.522,-0.17,-0.10,0.92,-1.90,-0.87,-0.27,
1.523,-0.17,-0.10,0.92,-2.09,-0.84,-0.41,
1.524,-0.18,-0.10,0.92,-2.09,-0.84,-0.41,
1.526,-0.18,-0.10,0.92,-2.27,-0.86,-0.52,
1.527,-0.18,-0.11,0.92,-2.27,-0.86,-0.52,
1.528,-0.19,-0.10,0.92,-2.27,-0.86,-0.52,
1.534,-0.19,-0.10,0.92,-2.27,-0.86,-0.52,
1.534,-0.19,-0.10,0.92,-2.39,-0.87,-0.59,
1.534,-0.18,-0.10,0.93,-2.39,-0.87,-0.59,
1.537,-0.19,-0.10,0.92,-2.39,-0.87,-0.59,
1.537,-0.19,-0.10,0.92,-2.44,-0.86,-0.57,
1.539,-0.19,-0.10,0.93,-2.44,-0.86,-0.57,
1.542,-0.19,-0.10,0.93,-2.45,-0.87,-0.53,
1.542,-0.18,-0.10,0.93,-2.45,-0.87,-0.53,
1.544,-0.18,-0.10,0.94,-2.45,-0.87,-0.53,
1.547,-0.18,-0.10,0.94,-2.45,-0.87,-0.53,
1.547,-0.18,-0.10,0.94,-2.45,-0.87,-0.50,
1.553,-0.17,-0.10,0.94,-2.45,-0.87,-0.50,
1.554,-0.16,-0.10,0.94,-2.45,-0.87,-0.50,
1.554,-0.16,-0.10,0.94,-2.39,-0.90,-0.41,
1.554,-0.16,-0.10,0.96,-2.39,-0.90,-0.41,
1.556,-0.15,-0.09,0.96,-2.39,-0.90,-0.41,
1.557,-0.15,-0.09,0.96,-2.32,-0.91,-0.33,
1.559,-0.14,-0.09,0.97,-2.32,-0.91,-0.33,
1.562,-0.13,-0.09,0.98,-2.32,-0.91,-0.33,
1.562,-0.13,-0.09,0.98,-2.20,-0.88,-0.16,
1.563,-0.13,-0.09,0.99,-2.20,-0.88,-0.16,
1.575,-0.13,-0.09,0.99,-2.08,-0.86,-0.01,
1.575,-0.13,-0.08,0.98,-2.08,-0.86,-0.01,
1.575,-0.12,-0.08,0.98,-2.08,-0.86,-0.01,
1.576,-0.11,-0.08,0.98,-2.08,-0.86,-0.01,
1.576,-0.11,-0.08,0.98,-1.99,-0.81,0.06,
1.576,-0.10,-0.08,0.98,-1.99,-0.81,0.06,
1.576,-0.10,-0.07,0.97,-1.99,-0.81,0.06,
1.576,-0.10,-0.07,0.97,-1.87,-0.78,0.03,
1.579,-0.10,-0.07,0.97,-1.87,-0.78,0.03,
1.587,-0.10,-0.07,0.96,-1.87,-0.78,0.03,
1.588,-0.10,-0.07,0.96,-1.75,-0.74,-0.02,
1.588,-0.11,-0.06,0.96,-1.75,-0.74,-0.02,
1.588,-0.11,-0.06,0.95,-1.75,-0.74,-0.02,
1.589,-0.11,-0.06,0.95,-1.76,-0.69,-0.08,
1.589,-0.12,-0.06,0.94,-1.76,-0.69,-0.08,
1.591,-0.12,-0.06,0.94,-1.89,-0.62,-0.21,
1.592,-0.12,-0.06,0.94,-1.89,-0.62,-0.21,
1.593,-0.12,-0.06,0.94,-1.89,-0.62,-0.21,
1.596,-0.13,-0.06,0.93,-1.89,-0.62,-0.21,
1.596,-0.13,-0.06,0.93,-1.96,-0.66,-0.35,
1.607,-0.14,-0.06,0.94,-1.96,-0.66,-0.35,
1.608,-0.14,-0.05,0.94,-1.96,-0.66,-0.35,
1.608,-0.14,-0.05,0.94,-2.05,-0.62,-0.41,
1.608,-0.14,-0.05,0.94,-2.05,-0.62,-0.41,
1.608,-0.14,-0.05,0.94,-2.05,-0.62,-0.41,
1.609,-0.14,-0.05,0.94,-2.18,-0.58,-0.38,
1.609,-0.15,-0.05,0.94,-2.18,-0.58,-0.38,
1.611,-0.15,-0.05,0.95,-2.18,-0.58,-0.38,
1.611,-0.15,-0.05,0.95,-2.21,-0.57,-0.34,
1.613,-0.15,-0.05,0.95,-2.21,-0.57,-0.34,
1.62,-0.15,-0.05,0.95,-2.30,-0.57,-0.30,
1.62,-0.15,-0.05,0.95,-2.30,-0.57,-0.30,
1.62,-0.16,-0.05,0.95,-2.30,-0.57,-0.30,
1.621,-0.16,-0.05,0.95,-2.30,-0.57,-0.30,
1.621,-0.16,-0.05,0.95,-2.31,-0.59,-0.25,
1.623,-0.16,-0.05,0.96,-2.31,-0.59,-0.25,
1.626,-0.16,-0.06,0.96,-2.31,-0.59,-0.25,
1.626,-0.16,-0.06,0.96,-2.38,-0.57,-0.24,
1.628,-0.16,-0.06,0.96,-2.38,-0.57,-0.24,
1.636,-0.16,-0.06,0.96,-2.38,-0.57,-0.24,
1.637,-0.16,-0.06,0.96,-2.39,-0.62,-0.17,
1.637,-0.16,-0.05,0.96,-2.39,-0.62,-0.17,
1.637,-0.16,-0.05,0.96,-2.42,-0.67,-0.16,
1.637,-0.16,-0.06,0.96,-2.42,-0.67,-0.16,
1.638,-0.16,-0.06,0.97,-2.42,-0.67,-0.16,
1.641,-0.16,-0.06,0.97,-2.44,-0.61,-0.12,
1.641,-0.16,-0.06,0.97,-2.44,-0.61,-0.12,
1.643,-0.16,-0.06,0.97,-2.44,-0.61,-0.12,
1.645,-0.16,-0.06,0.98,-2.44,-0.61,-0.12,
1.653,-0.16,-0.06,0.98,-2.47,-0.62,-0.10,
1.653,-0.16,-0.06,0.97,-2.47,-0.62,-0.10,
1.653,-0.16,-0.06,0.98,-2.47,-0.62,-0.10,
1.654,-0.16,-0.06,0.98,-2.44,-0.65,-0.02,
1.654,-0.16,-0.06,0.98,-2.44,-0.65,-0.02,
1.659,-0.16,-0.06,0.98,-2.44,-0.65,-0.02,
1.66,-0.16,-0.06,0.98,-2.43,-0.64,-0.01,
1.66,-0.16,-0.05,0.97,-2.43,-0.64,-0.01,
1.66,-0.17,-0.05,0.97,-2.43,-0.64,-0.01,
1.66,-0.17,-0.05,0.97,-2.47,-0.66,0.02,
1.662,-0.17,-0.05,0.97,-2.47,-0.66,0.02,
1.676,-0.17,-0.05,0.97,-2.50,-0.56,-0.01,
1.677,-0.17,-0.05,0.98,-2.50,-0.56,-0.01,
1.678,-0.16,-0.05,0.98,-2.50,-0.56,-0.01,
1.678,-0.17,-0.04,0.99,-2.50,-0.56,-0.01,
1.678,-0.17,-0.04,0.99,-2.50,-0.53,0.01,
1.678,-0.18,-0.04,0.99,-2.50,-0.53,0.01,
1.678,-0.18,-0.04,0.99,-2.50,-0.53,0.01,
1.679,-0.18,-0.04,0.99,-2.51,-0.50,0.08,
1.679,-0.18,-0.05,0.99,-2.51,-0.50,0.08,
1.681,-0.18,-0.04,0.99,-2.51,-0.50,0.08,
1.681,-0.18,-0.04,0.99,-2.62,-0.46,0.13,
1.688,-0.18,-0.04,1.00,-2.62,-0.46,0.13,
1.689,-0.19,-0.05,1.00,-2.62,-0.46,0.13,
1.69,-0.19,-0.05,1.00,-2.64,-0.45,0.16,
1.69,-0.19,-0.04,1.00,-2.64,-0.45,0.16,
1.69,-0.19,-0.04,1.00,-2.68,-0.43,0.28,
1.69,-0.19,-0.04,1.01,-2.68,-0.43,0.28,
1.692,-0.19,-0.05,1.01,-2.68,-0.43,0.28,
1.694,-0.21,-0.05,1.01,-2.68,-0.43,0.28,
1.695,-0.21,-0.05,1.01,-2.77,-0.42,0.28,
1.708,-0.20,-0.05,1.01,-2.77,-0.42,0.28,
1.709,-0.20,-0.05,1.01,-2.77,-0.42,0.28,
1.71,-0.20,-0.05,1.01,-2.82,-0.47,0.31,
1.71,-0.21,-0.06,1.01,-2.82,-0.47,0.31,
1.71,-0.21,-0.06,1.01,-2.82,-0.47,0.31,
1.71,-0.21,-0.06,1.01,-2.85,-0.47,0.35,
1.71,-0.21,-0.06,1.01,-2.85,-0.47,0.35,
1.711,-0.21,-0.06,1.01,-2.85,-0.47,0.35,
1.711,-0.21,-0.06,1.01,-2.95,-0.49,0.34,
1.711,-0.21,-0.06,1.02,-2.95,-0.49,0.34,
1.72,-0.21,-0.06,1.02,-2.95,-0.49,0.34,
1.721,-0.21,-0.06,1.02,-2.91,-0.50,0.35,
1.721,-0.21,-0.06,1.03,-2.91,-0.50,0.35,
1.721,-0.21,-0.06,1.04,-2.91,-0.50,0.35,
1.721,-0.21,-0.06,1.04,-2.88,-0.50,0.44,
1.722,-0.21,-0.06,1.05,-2.88,-0.50,0.44,
1.724,-0.21,-0.05,1.06,-2.88,-0.50,0.44,
1.725,-0.21,-0.05,1.06,-2.88,-0.42,0.60,
1.727,-0.21,-0.05,1.08,-2.88,-0.42,0.60,
1.729,-0.21,-0.05,1.09,-2.88,-0.42,0.60,
1.729,-0.21,-0.05,1.09,-2.86,-0.37,0.75,
1.736,-0.21,-0.05,1.10,-2.86,-0.37,0.75,
1.737,-0.21,-0.05,1.11,-2.86,-0.37,0.75,
1.737,-0.21,-0.05,1.11,-2.82,-0.33,1.03,
1.737,-0.20,-0.06,1.12,-2.82,-0.33,1.03,
1.739,-0.20,-0.06,1.12,-2.79,-0.30,1.21,
1.74,-0.20,-0.05,1.13,-2.79,-0.30,1.21,
1.741,-0.20,-0.05,1.14,-2.79,-0.30,1.21,
1.744,-0.19,-0.06,1.14,-2.79,-0.30,1.21,
1.744,-0.19,-0.06,1.14,-2.67,-0.30,1.42,
1.746,-0.19,-0.06,1.16,-2.67,-0.30,1.42,
1.754,-0.18,-0.06,1.16,-2.67,-0.30,1.42,
1.754,-0.18,-0.06,1.16,-2.62,-0.30,1.55,
1.755,-0.18,-0.06,1.17,-2.62,-0.30,1.55,
1.755,-0.18,-0.06,1.17,-2.62,-0.30,1.55,
1.755,-0.18,-0.06,1.17,-2.49,-0.29,1.73,
1.756,-0.17,-0.06,1.17,-2.49,-0.29,1.73,
1.759,-0.16,-0.06,1.18,-2.49,-0.29,1.73,
1.759,-0.16,-0.06,1.18,-2.41,-0.28,1.81,
1.761,-0.15,-0.07,1.18,-2.41,-0.28,1.81,
1.764,-0.15,-0.07,1.18,-2.41,-0.28,1.81,
1.765,-0.15,-0.07,1.18,-2.30,-0.29,1.87,
1.771,-0.15,-0.07,1.19,-2.30,-0.29,1.87,
1.771,-0.14,-0.07,1.19,-2.30,-0.29,1.87,
1.772,-0.14,-0.07,1.19,-2.20,-0.33,1.93,
1.772,-0.14,-0.08,1.19,-2.20,-0.33,1.93,
1.774,-0.13,-0.07,1.19,-2.20,-0.33,1.93,
1.774,-0.13,-0.07,1.19,-2.11,-0.30,1.98,
1.776,-0.13,-0.07,1.18,-2.11,-0.30,1.98,
1.779,-0.13,-0.07,1.18,-2.11,-0.30,1.98,
1.779,-0.13,-0.07,1.18,-2.02,-0.34,1.99,
1.792,-0.13,-0.07,1.18,-2.02,-0.34,1.99,
1.793,-0.13,-0.07,1.19,-2.02,-0.34,1.99,
1.794,-0.13,-0.07,1.19,-1.96,-0.27,1.94,
1.794,-0.12,-0.07,1.19,-1.96,-0.27,1.94,
1.794,-0.12,-0.07,1.19,-1.93,-0.26,1.97,
1.794,-0.12,-0.07,1.19,-1.93,-0.26,1.97,
1.794,-0.12,-0.07,1.18,-1.93,-0.26,1.97,
1.795,-0.12,-0.07,1.18,-1.93,-0.26,1.97,
1.795,-0.12,-0.07,1.18,-1.85,-0.23,1.95,
1.796,-0.12,-0.06,1.18,-1.85,-0.23,1.95,
1.805,-0.11,-0.06,1.17,-1.85,-0.23,1.95,
1.806,-0.11,-0.06,1.17,-1.79,-0.20,1.91,
1.806,-0.11,-0.06,1.17,-1.79,-0.20,1.91,
1.807,-0.11,-0.06,1.16,-1.79,-0.20,1.91,
1.807,-0.11,-0.06,1.16,-1.74,-0.13,1.83,
1.807,-0.11,-0.05,1.16,-1.74,-0.13,1.83,
1.808,-0.12,-0.05,1.15,-1.74,-0.13,1.83,
1.808,-0.12,-0.05,1.15,-1.68,-0.07,1.72,
1.812,-0.11,-0.05,1.14,-1.68,-0.07,1.72,
1.813,-0.11,-0.05,1.14,-1.69,-0.02,1.62,
1.815,-0.12,-0.05,1.13,-1.69,-0.02,1.62,
1.816,-0.11,-0.05,1.13,-1.69,-0.02,1.62,
1.825,-0.11,-0.05,1.12,-1.69,-0.02,1.62,
1.826,-0.11,-0.05,1.12,-1.67,0.01,1.47,
1.826,-0.11,-0.05,1.12,-1.67,0.01,1.47,
1.826,-0.11,-0.04,1.12,-1.67,0.01,1.47,
1.827,-0.11,-0.04,1.12,-1.62,0.06,1.36,
1.827,-0.11,-0.04,1.12,-1.62,0.06,1.36,
1.829,-0.10,-0.05,1.12,-1.62,0.06,1.36,
1.829,-0.10,-0.05,1.12,-1.58,0.09,1.29,
1.835,-0.10,-0.04,1.12,-1.58,0.09,1.29,
1.836,-0.10,-0.04,1.12,-1.58,0.09,1.29,
1.836,-0.10,-0.04,1.12,-1.52,0.09,1.27,
1.836,-0.09,-0.04,1.12,-1.52,0.09,1.27,
1.839,-0.09,-0.04,1.12,-1.44,0.16,1.28,
1.84,-0.08,-0.04,1.13,-1.44,0.16,1.28,
1.841,-0.08,-0.04,1.13,-1.44,0.16,1.28,
1.844,-0.07,-0.05,1.13,-1.44,0.16,1.28,
1.844,-0.07,-0.05,1.13,-1.33,0.14,1.34,
1.845,-0.06,-0.04,1.14,-1.33,0.14,1.34,
1.854,-0.06,-0.04,1.14,-1.33,0.14,1.34,
1.855,-0.06,-0.04,1.14,-1.17,0.12,1.35,
1.855,-0.05,-0.04,1.14,-1.17,0.12,1.35,
1.855,-0.05,-0.05,1.14,-1.17,0.12,1.35,
1.855,-0.05,-0.05,1.14,-1.05,0.16,1.45,
1.856,-0.05,-0.04,1.14,-1.05,0.16,1.45,
1.859,-0.04,-0.04,1.14,-1.05,0.16,1.45,
1.859,-0.04,-0.04,1.14,-0.91,0.15,1.46,
1.861,-0.04,-0.04,1.15,-0.91,0.15,1.46,
1.863,-0.04,-0.04,1.15,-0.84,0.17,1.49,
1.864,-0.04,-0.04,1.15,-0.84,0.17,1.49,
1.865,-0.04,-0.04,1.15,-0.84,0.17,1.49,
1.871,-0.04,-0.04,1.16,-0.84,0.17,1.49,
1.871,-0.04,-0.04,1.16,-0.76,0.21,1.58,
1.871,-0.04,-0.04,1.16,-0.76,0.21,1.58,
1.874,-0.03,-0.04,1.17,-0.76,0.21,1.58,
1.874,-0.03,-0.04,1.17,-0.72,0.23,1.63,
1.876,-0.04,-0.04,1.17,-0.72,0.23,1.63,
1.879,-0.04,-0.04,1.17,-0.72,0.23,1.63,
1.879,-0.04,-0.04,1.17,-0.70,0.22,1.68,
1.881,-0.04,-0.04,1.16,-0.70,0.22,1.68,
1.893,-0.04,-0.05,1.16,-0.70,0.22,1.68,
1.894,-0.04,-0.05,1.16,-0.69,0.24,1.71,
1.894,-0.04,-0.05,1.16,-0.69,0.24,1.71,
1.895,-0.04,-0.05,1.16,-0.69,0.18,1.67,
1.895,-0.04,-0.05,1.15,-0.69,0.18,1.67,
1.895,-0.05,-0.05,1.15,-0.69,0.18,1.67,
1.895,-0.05,-0.05,1.15,-0.69,0.18,1.67,
1.896,-0.05,-0.05,1.15,-0.69,0.17,1.60,
1.896,-0.05,-0.05,1.14,-0.69,0.17,1.60,
1.898,-0.05,-0.05,1.14,-0.69,0.17,1.60,
1.898,-0.05,-0.05,1.14,-0.73,0.13,1.54,
1.906,-0.05,-0.06,1.14,-0.73,0.13,1.54,
1.907,-0.05,-0.05,1.13,-0.73,0.13,1.54,
1.907,-0.05,-0.05,1.13,-0.72,0.11,1.46,
1.907,-0.05,-0.06,1.13,-0.72,0.11,1.46,
1.908,-0.05,-0.05,1.14,-0.72,0.11,1.46,
1.908,-0.05,-0.05,1.14,-0.72,0.11,1.39,
1.91,-0.05,-0.05,1.14,-0.72,0.11,1.39,
1.913,-0.05,-0.05,1.14,-0.67,0.11,1.38,
1.913,-0.05,-0.05,1.14,-0.67,0.11,1.38,
1.915,-0.04,-0.06,1.14,-0.67,0.11,1.38,
1.924,-0.04,-0.06,1.14,-0.67,0.11,1.38,
1.925,-0.04,-0.06,1.14,-0.61,0.13,1.39,
1.925,-0.03,-0.06,1.15,-0.61,0.13,1.39,
1.925,-0.03,-0.06,1.14,-0.61,0.13,1.39,
1.926,-0.03,-0.06,1.14,-0.50,0.09,1.47,
1.926,-0.02,-0.06,1.15,-0.50,0.09,1.47,
1.928,-0.02,-0.06,1.15,-0.50,0.09,1.47,
1.928,-0.02,-0.06,1.15,-0.40,0.08,1.48,
1.93,-0.01,-0.06,1.14,-0.40,0.08,1.48,
1.938,-0.01,-0.07,1.14,-0.40,0.08,1.48,
1.939,-0.01,-0.07,1.14,-0.27,0.06,1.49,
1.939,-0.00,-0.07,1.14,-0.27,0.06,1.49,
1.94,-0.00,-0.07,1.14,-0.13,0.03,1.44,
1.94,-0.00,-0.07,1.13,-0.13,0.03,1.44,
1.94,0.01,-0.07,1.12,-0.13,0.03,1.44,
1.943,0.00,-0.07,1.12,-0.13,0.03,1.44,
1.943,0.00,-0.07,1.12,-0.06,0.01,1.34,
1.945,0.01,-0.06,1.11,-0.06,0.01,1.34,
1.948,0.02,-0.06,1.11,-0.06,0.01,1.34,
1.948,0.02,-0.06,1.11,0.04,0.00,1.24,
1.949,0.02,-0.06,1.12,0.04,0.00,1.24,
1.957,0.03,-0.05,1.12,0.04,0.00,1.24,
1.957,0.03,-0.05,1.12,0.15,0.05,1.15,
1.958,0.04,-0.05,1.13,0.15,0.05,1.15,
1.958,0.04,-0.05,1.13,0.15,0.05,1.15,
1.958,0.04,-0.05,1.13,0.30,0.08,1.20,
1.959,0.05,-0.04,1.13,0.30,0.08,1.20,
1.964,0.05,-0.04,1.13,0.43,0.15,1.30,
1.964,0.05,-0.04,1.13,0.43,0.15,1.30,
1.965,0.06,-0.04,1.13,0.43,0.15,1.30,
1.971,0.06,-0.04,1.13,0.43,0.15,1.30,
1.972,0.06,-0.04,1.13,0.57,0.21,1.33,
1.972,0.07,-0.04,1.13,0.57,0.21,1.33,
1.973,0.07,-0.05,1.13,0.57,0.21,1.33,
1.973,0.07,-0.05,1.13,0.68,0.21,1.31,
1.974,0.08,-0.04,1.13,0.68,0.21,1.31,
1.977,0.08,-0.04,1.13,0.79,0.18,1.33,
1.977,0.08,-0.04,1.13,0.79,0.18,1.33,
1.98,0.08,-0.04,1.13,0.79,0.18,1.33,
1.982,0.09,-0.04,1.13,0.79,0.18,1.33,
1.982,0.09,-0.04,1.13,0.89,0.19,1.33,
1.989,0.09,-0.04,1.13,0.89,0.19,1.33,
1.989,0.09,-0.04,1.12,0.89,0.19,1.33,
1.99,0.09,-0.04,1.12,0.94,0.14,1.33,
1.99,0.09,-0.04,1.12,0.94,0.14,1.33,
1.993,0.10,-0.04,1.12,0.94,0.14,1.33,
1.993,0.10,-0.04,1.12,1.00,0.15,1.27,
1.994,0.10,-0.04,1.12,1.00,0.15,1.27,
1.996,0.10,-0.04,1.12,1.00,0.15,1.27,
1.997,0.10,-0.04,1.12,1.02,0.11,1.23,
2.011,0.10,-0.04,1.12,1.02,0.11,1.23,
2.012,0.10,-0.04,1.12,1.09,0.10,1.17,
2.012,0.11,-0.04,1.12,1.09,0.10,1.17,
2.012,0.11,-0.04,1.11,1.09,0.10,1.17,
2.013,0.12,-0.04,1.11,1.09,0.10,1.17,
2.013,0.12,-0.04,1.11,1.15,0.12,1.16,
2.013,0.12,-0.04,1.10,1.15,0.12,1.16,
2.014,0.12,-0.04,1.10,1.24,0.08,1.10,
2.014,0.12,-0.04,1.10,1.24,0.08,1.10,
2.015,0.12,-0.04,1.10,1.24,0.08,1.10,
2.025,0.12,-0.05,1.10,1.24,0.08,1.10,
2.025,0.12,-0.05,1.10,1.31,0.02,0.98,
2.026,0.12,-0.04,1.10,1.31,0.02,0.98,
2.026,0.12,-0.05,1.09,1.31,0.02,0.98,
2.026,0.12,-0.05,1.09,1.29,-0.03,0.97,
2.026,0.12,-0.05,1.09,1.29,-0.03,0.97,
2.027,0.12,-0.05,1.09,1.33,-0.03,0.96,
2.027,0.12,-0.06,1.09,1.33,-0.03,0.96,
2.03,0.12,-0.06,1.09,1.33,-0.03,0.96,
2.031,0.12,-0.06,1.09,1.33,-0.03,0.96,
2.031,0.12,-0.06,1.09,1.34,-0.14,0.91,
2.042,0.12,-0.06,1.09,1.34,-0.14,0.91,
2.043,0.12,-0.06,1.09,1.38,-0.21,0.92,
2.043,0.12,-0.07,1.09,1.38,-0.21,0.92,
2.043,0.12,-0.07,1.10,1.38,-0.21,0.92,
2.044,0.13,-0.06,1.10,1.38,-0.21,0.92,
2.044,0.13,-0.06,1.10,1.42,-0.28,0.91,
2.044,0.13,-0.07,1.10,1.42,-0.28,0.91,
2.048,0.13,-0.06,1.10,1.42,-0.28,0.91,
2.048,0.13,-0.06,1.10,1.45,-0.27,0.96,
2.048,0.13,-0.07,1.10,1.45,-0.27,0.96,
2.057,0.13,-0.07,1.10,1.53,-0.29,1.00,
2.058,0.14,-0.07,1.10,1.53,-0.29,1.00,
2.059,0.14,-0.07,1.10,1.53,-0.29,1.00,
2.06,0.14,-0.07,1.10,1.53,-0.29,1.00,
2.06,0.14,-0.07,1.10,1.59,-0.33,1.00,
2.06,0.14,-0.06,1.11,1.59,-0.33,1.00,
2.061,0.14,-0.07,1.11,1.59,-0.33,1.00,
2.061,0.14,-0.07,1.11,1.66,-0.31,0.98,
2.063,0.13,-0.07,1.11,1.66,-0.31,0.98,
2.073,0.13,-0.07,1.11,1.66,-0.31,0.98,
2.073,0.13,-0.07,1.11,1.66,-0.30,1.03,
2.074,0.13,-0.07,1.11,1.66,-0.30,1.03,
2.074,0.13,-0.07,1.12,1.66,-0.30,1.03,
2.074,0.13,-0.07,1.12,1.61,-0.31,1.07,
2.074,0.12,-0.06,1.12,1.61,-0.31,1.07,
2.076,0.13,-0.06,1.12,1.61,-0.31,1.07,
2.076,0.13,-0.06,1.12,1.60,-0.32,1.11,
2.078,0.12,-0.06,1.11,1.60,-0.32,1.11,
2.08,0.12,-0.06,1.12,1.60,-0.32,1.11,
2.081,0.12,-0.06,1.12,1.58,-0.26,1.15,
2.089,0.13,-0.06,1.11,1.58,-0.26,1.15,
2.09,0.12,-0.06,1.11,1.58,-0.26,1.15,
2.091,0.12,-0.06,1.11,1.58,-0.27,1.10,
2.091,0.12,-0.06,1.10,1.58,-0.27,1.10,
2.091,0.12,-0.06,1.10,1.58,-0.27,1.10,
2.092,0.12,-0.06,1.10,1.60,-0.25,1.07,
2.093,0.12,-0.06,1.09,1.60,-0.25,1.07,
2.096,0.11,-0.07,1.10,1.60,-0.25,1.07,
2.097,0.11,-0.07,1.10,1.54,-0.28,0.97,
2.098,0.11,-0.07,1.09,1.54,-0.28,0.97,
2.113,0.11,-0.07,1.08,1.54,-0.28,0.97,
2.114,0.11,-0.07,1.08,1.54,-0.35,0.91,
2.114,0.11,-0.07,1.07,1.54,-0.35,0.91,
2.115,0.11,-0.07,1.07,1.54,-0.35,0.91,
2.115,0.11,-0.07,1.07,1.47,-0.43,0.82,
2.115,0.10,-0.08,1.07,1.47,-0.43,0.82,
2.115,0.11,-0.08,1.06,1.47,-0.43,0.82,
2.115,0.11,-0.08,1.06,1.49,-0.47,0.70,
2.116,0.11,-0.08,1.06,1.49,-0.47,0.70,
2.116,0.11,-0.08,1.05,1.49,-0.47,0.70,
2.116,0.11,-0.08,1.05,1.46,-0.56,0.60,
2.122,0.11,-0.09,1.05,1.46,-0.56,0.60,
2.123,0.12,-0.09,1.04,1.46,-0.56,0.60,
2.123,0.12,-0.09,1.04,1.49,-0.65,0.53,
2.123,0.12,-0.08,1.05,1.49,-0.65,0.53,
2.125,0.12,-0.08,1.05,1.56,-0.71,0.42,
2.125,0.12,-0.08,1.04,1.56,-0.71,0.42,
2.128,0.13,-0.08,1.03,1.56,-0.71,0.42,
2.13,0.13,-0.08,1.03,1.62,-0.71,0.40,
2.131,0.13,-0.08,1.04,1.62,-0.71,0.40,
2.134,0.14,-0.08,1.03,1.62,-0.71,0.40,
2.139,0.15,-0.07,1.03,1.62,-0.71,0.40,
2.14,0.15,-0.07,1.03,1.71,-0.73,0.31,
2.14,0.16,-0.06,1.03,1.71,-0.73,0.31,
2.14,0.16,-0.06,1.02,1.71,-0.73,0.31,
2.142,0.16,-0.06,1.02,1.86,-0.68,0.28,
2.143,0.17,-0.06,1.01,1.86,-0.68,0.28,
2.146,0.18,-0.05,1.00,1.86,-0.68,0.28,
2.146,0.18,-0.05,1.00,2.01,-0.59,0.22,
2.148,0.18,-0.05,1.00,2.01,-0.59,0.22,
2.15,0.18,-0.05,1.00,2.13,-0.58,0.06,
2.15,0.19,-0.04,1.00,2.13,-0.58,0.06,
2.157,0.19,-0.03,1.00,2.13,-0.58,0.06,
2.158,0.19,-0.03,0.99,2.13,-0.58,0.06,
2.158,0.19,-0.03,0.99,2.26,-0.47,-0.03,
2.158,0.19,-0.03,0.99,2.26,-0.47,-0.03,
2.161,0.20,-0.03,0.99,2.26,-0.47,-0.03,
2.161,0.20,-0.03,0.99,2.31,-0.39,-0.08,
2.164,0.20,-0.02,0.99,2.31,-0.39,-0.08,
2.165,0.20,-0.01,0.98,2.31,-0.39,-0.08,
2.165,0.20,-0.01,0.98,2.37,-0.36,-0.14,
2.172,0.21,-0.01,0.98,2.37,-0.36,-0.14,
2.173,0.21,-0.01,0.98,2.37,-0.36,-0.14,
2.173,0.21,-0.01,0.98,2.41,-0.28,-0.20,
2.173,0.21,-0.01,0.98,2.41,-0.28,-0.20,
2.175,0.21,-0.01,0.98,2.49,-0.25,-0.23,
2.176,0.21,-0.00,0.98,2.49,-0.25,-0.23,
2.178,0.22,-0.00,0.97,2.49,-0.25,-0.23,
2.18,0.22,0.00,0.98,2.49,-0.25,-0.23,
2.18,0.22,0.00,0.98,2.53,-0.22,-0.20,
2.183,0.23,0.00,0.98,2.53,-0.22,-0.20,
2.19,0.23,0.00,0.98,2.53,-0.22,-0.20,
2.191,0.23,0.00,0.98,2.63,-0.20,-0.25,
2.191,0.24,0.01,0.98,2.63,-0.20,-0.25,
2.191,0.23,0.01,0.98,2.63,-0.20,-0.25,
2.191,0.23,0.01,0.98,2.75,-0.18,-0.22,
2.192,0.23,0.01,0.97,2.75,-0.18,-0.22,
2.195,0.23,0.01,0.97,2.75,-0.18,-0.22,
2.195,0.23,0.01,0.97,2.78,-0.15,-0.23,
2.197,0.24,0.01,0.97,2.78,-0.15,-0.23,
2.2,0.24,0.01,0.97,2.76,-0.16,-0.30,
2.2,0.24,0.01,0.96,2.76,-0.16,-0.30,
2.206,0.23,0.01,0.96,2.76,-0.16,-0.30,
2.207,0.22,0.01,0.95,2.76,-0.16,-0.30,
2.207,0.22,0.01,0.95,2.81,-0.18,-0.35,
2.207,0.22,0.01,0.95,2.81,-0.18,-0.35,
2.21,0.21,0.01,0.94,2.81,-0.18,-0.35,
2.21,0.21,0.01,0.94,2.71,-0.20,-0.47,
2.213,0.21,0.01,0.94,2.71,-0.20,-0.47,
2.216,0.21,0.01,0.93,2.71,-0.20,-0.47,
2.216,0.21,0.01,0.93,2.64,-0.17,-0.54,
2.229,0.20,0.01,0.92,2.64,-0.17,-0.54,
2.229,0.20,0.01,0.92,2.64,-0.17,-0.54,
2.23,0.20,0.01,0.92,2.58,-0.19,-0.64,
2.23,0.19,0.01,0.92,2.58,-0.19,-0.64,
2.23,0.19,0.01,0.92,2.51,-0.20,-0.77,
2.23,0.19,0.01,0.91,2.51,-0.20,-0.77,
2.23,0.19,0.02,0.91,2.51,-0.20,-0.77,
2.231,0.18,0.02,0.92,2.51,-0.20,-0.77,
2.231,0.18,0.02,0.92,2.46,-0.20,-0.82,
2.232,0.18,0.02,0.91,2.46,-0.20,-0.82,
2.244,0.17,0.02,0.92,2.46,-0.20,-0.82,
2.245,0.17,0.02,0.92,2.38,-0.19,-0.83,
2.245,0.17,0.02,0.92,2.38,-0.19,-0.83,
2.246,0.16,0.02,0.92,2.38,-0.19,-0.83,
2.246,0.16,0.02,0.92,2.29,-0.17,-0.84,
2.246,0.16,0.02,0.92,2.29,-0.17,-0.84,
2.246,0.17,0.02,0.93,2.29,-0.17,-0.84,
2.246,0.17,0.02,0.93,2.18,-0.18,-0.80,
2.247,0.17,0.02,0.93,2.18,-0.18,-0.80,
2.25,0.17,0.02,0.93,2.19,-0.20,-0.76,
2.25,0.17,0.02,0.93,2.19,-0.20,-0.76,
2.262,0.17,0.03,0.94,2.19,-0.20,-0.76,
2.262,0.18,0.03,0.94,2.19,-0.20,-0.76,
2.263,0.18,0.03,0.94,2.21,-0.22,-0.66,
2.263,0.18,0.03,0.95,2.21,-0.22,-0.66,
2.263,0.19,0.03,0.96,2.21,-0.22,-0.66,
2.263,0.19,0.03,0.96,2.28,-0.17,-0.55,
2.264,0.19,0.04,0.96,2.28,-0.17,-0.55,
2.264,0.19,0.04,0.95,2.28,-0.17,-0.55,
2.264,0.19,0.04,0.95,2.38,-0.14,-0.45,
2.267,0.20,0.05,0.96,2.38,-0.14,-0.45,
2.274,0.20,0.05,0.96,2.38,-0.14,-0.45,
2.275,0.20,0.05,0.96,2.41,-0.05,-0.41,
2.275,0.20,0.05,0.95,2.41,-0.05,-0.41,
2.276,0.20,0.05,0.95,2.49,-0.03,-0.39,
2.276,0.20,0.05,0.95,2.49,-0.03,-0.39,
2.276,0.20,0.05,0.95,2.49,-0.03,-0.39,
2.278,0.20,0.05,0.95,2.49,-0.03,-0.39,
2.279,0.20,0.05,0.95,2.53,0.01,-0.43,
2.281,0.20,0.05,0.94,2.53,0.01,-0.43,
2.291,0.19,0.05,0.93,2.53,0.01,-0.43,
2.292,0.19,0.05,0.93,2.51,-0.01,-0.51,
2.292,0.19,0.06,0.92,2.51,-0.01,-0.51,
2.292,0.18,0.06,0.91,2.51,-0.01,-0.51,
2.293,0.18,0.06,0.91,2.43,-0.02,-0.62,
2.293,0.18,0.06,0.91,2.43,-0.02,-0.62,
2.295,0.17,0.06,0.91,2.43,-0.02,-0.62,
2.296,0.17,0.06,0.91,2.36,-0.00,-0.77,
2.296,0.17,0.06,0.90,2.36,-0.00,-0.77,
2.298,0.17,0.06,0.90,2.28,0.00,-0.88,
2.299,0.17,0.06,0.90,2.28,0.00,-0.88,
2.307,0.16,0.06,0.90,2.28,0.00,-0.88,
2.308,0.16,0.06,0.90,2.28,0.00,-0.88,
2.308,0.16,0.06,0.90,2.21,0.03,-0.97,
2.31,0.16,0.07,0.89,2.21,0.03,-0.97,
2.311,0.16,0.07,0.89,2.21,0.03,-0.97,
2.311,0.16,0.07,0.89,2.15,0.02,-0.98,
2.311,0.16,0.07,0.89,2.15,0.02,-0.98,
2.314,0.16,0.07,0.90,2.15,0.02,-0.98,
2.314,0.16,0.07,0.90,2.13,0.07,-1.02,
2.316,0.16,0.07,0.89,2.13,0.07,-1.02,
2.327,0.16,0.07,0.90,2.13,0.07,-1.02,
2.328,0.16,0.07,0.90,2.13,0.08,-1.01,
2.329,0.16,0.08,0.90,2.13,0.08,-1.01,
2.329,0.16,0.08,0.91,2.13,0.08,-1.01,
2.329,0.16,0.08,0.91,2.15,0.09,-0.99,
2.33,0.16,0.08,0.91,2.15,0.09,-0.99,
2.33,0.15,0.08,0.91,2.15,0.09,-0.99,
2.33,0.15,0.08,0.91,2.14,0.14,-0.90,
2.33,0.15,0.09,0.92,2.14,0.14,-0.90,
2.333,0.14,0.08,0.93,2.14,0.14,-0.90,
2.333,0.14,0.08,0.93,2.04,0.16,-0.84,
2.347,0.14,0.08,0.93,2.04,0.16,-0.84,
2.348,0.14,0.08,0.94,2.04,0.16,-0.84,
2.348,0.14,0.08,0.94,1.97,0.17,-0.67,
2.348,0.13,0.08,0.95,1.97,0.17,-0.67,
2.348,0.13,0.08,0.95,1.97,0.17,-0.67,
2.349,0.13,0.08,0.95,1.91,0.14,-0.60,
2.349,0.13,0.07,0.96,1.91,0.14,-0.60,
2.349,0.12,0.07,0.96,1.91,0.14,-0.60,
2.349,0.12,0.07,0.96,1.79,0.14,-0.46,
2.351,0.12,0.07,0.96,1.79,0.14,-0.46,
2.357,0.12,0.06,0.96,1.79,0.14,-0.46,
2.357,0.12,0.06,0.96,1.72,0.03,-0.35,
2.358,0.11,0.06,0.96,1.72,0.03,-0.35,
2.358,0.11,0.07,0.96,1.72,0.03,-0.35,
2.358,0.11,0.07,0.96,1.64,-0.03,-0.33,
2.361,0.11,0.07,0.97,1.64,-0.03,-0.33,
2.364,0.11,0.06,0.97,1.64,-0.03,-0.33,
2.364,0.11,0.06,0.97,1.56,-0.05,-0.32,
2.366,0.10,0.06,0.96,1.56,-0.05,-0.32,
2.368,0.10,0.06,0.96,1.56,-0.05,-0.32,
2.368,0.10,0.06,0.96,1.51,-0.08,-0.28,
2.376,0.09,0.05,0.96,1.51,-0.08,-0.28,
2.376,0.09,0.05,0.96,1.42,-0.14,-0.34,
2.376,0.10,0.06,0.95,1.42,-0.14,-0.34,
2.376,0.09,0.05,0.95,1.42,-0.14,-0.34,
2.378,0.09,0.05,0.95,1.42,-0.14,-0.34,
2.378,0.09,0.05,0.95,1.37,-0.16,-0.40,
2.381,0.09,0.05,0.94,1.37,-0.16,-0.40,
2.383,0.09,0.06,0.93,1.37,-0.16,-0.40,
2.384,0.09,0.06,0.93,1.34,-0.21,-0.47,
2.392,0.10,0.06,0.93,1.34,-0.21,-0.47,
2.393,0.09,0.06,0.93,1.34,-0.21,-0.47,
2.393,0.09,0.06,0.93,1.31,-0.19,-0.55,
2.393,0.10,0.06,0.93,1.31,-0.19,-0.55,
2.394,0.10,0.06,0.94,1.31,-0.19,-0.55,
2.394,0.10,0.06,0.94,1.35,-0.14,-0.62,
2.395,0.10,0.07,0.93,1.35,-0.14,-0.62,
2.398,0.10,0.07,0.93,1.37,-0.15,-0.60,
2.398,0.10,0.07,0.94,1.37,-0.15,-0.60,
2.4,0.10,0.08,0.94,1.37,-0.15,-0.60,
2.406,0.10,0.08,0.94,1.37,-0.15,-0.60,
2.406,0.10,0.08,0.94,1.37,-0.06,-0.58,
2.407,0.10,0.08,0.95,1.37,-0.06,-0.58,
2.408,0.10,0.09,0.95,1.37,-0.06,-0.58,
2.409,0.10,0.09,0.95,1.35,0.03,-0.53,
2.411,0.09,0.09,0.95,1.35,0.03,-0.53,
2.413,0.09,0.09,0.95,1.35,0.03,-0.53,
2.413,0.09,0.09,0.95,1.32,0.08,-0.42,
2.415,0.09,0.09,0.96,1.32,0.08,-0.42,
2.418,0.08,0.10,0.96,1.32,0.08,-0.42,
2.418,0.08,0.10,0.96,1.26,0.12,-0.41,
2.424,0.07,0.10,0.96,1.26,0.12,-0.41,
2.424,0.07,0.10,0.96,1.20,0.17,-0.36,
2.424,0.07,0.10,0.96,1.20,0.17,-0.36,
2.425,0.06,0.09,0.96,1.20,0.17,-0.36,
2.428,0.06,0.09,0.97,1.20,0.17,-0.36,
2.428,0.06,0.09,0.97,1.05,0.18,-0.33,
2.43,0.05,0.09,0.96,1.05,0.18,-0.33,
2.433,0.05,0.09,0.96,0.93,0.15,-0.28,
2.433,0.04,0.09,0.96,0.93,0.15,-0.28,
2.435,0.03,0.08,0.96,0.93,0.15,-0.28,
2.446,0.03,0.08,0.97,0.93,0.15,-0.28,
2.446,0.03,0.08,0.97,0.78,0.08,-0.32,
2.447,0.02,0.08,0.97,0.78,0.08,-0.32,
2.447,0.02,0.08,0.96,0.78,0.08,-0.32,
2.448,0.02,0.08,0.96,0.63,0.01,-0.29,
2.448,0.02,0.07,0.97,0.63,0.01,-0.29,
2.448,0.02,0.07,0.97,0.54,-0.01,-0.28,
2.448,0.02,0.07,0.97,0.54,-0.01,-0.28,
2.449,0.02,0.07,0.96,0.54,-0.01,-0.28,
2.462,0.02,0.07,0.96,0.54,-0.01,-0.28,
2.463,0.02,0.07,0.96,0.49,-0.10,-0.27,
2.463,0.02,0.07,0.96,0.49,-0.10,-0.27,
2.463,0.02,0.07,0.96,0.49,-0.10,-0.27,
2.463,0.02,0.07,0.96,0.52,-0.12,-0.30,
2.464,0.03,0.08,0.96,0.52,-0.12,-0.30,
2.464,0.03,0.08,0.95,0.52,-0.12,-0.30,
2.464,0.03,0.08,0.95,0.53,-0.11,-0.36,
2.464,0.03,0.08,0.95,0.53,-0.11,-0.36,
2.467,0.04,0.08,0.95,0.53,-0.11,-0.36,
2.467,0.04,0.08,0.95,0.59,-0.04,-0.38,
2.478,0.04,0.09,0.95,0.59,-0.04,-0.38,
2.482,0.04,0.09,0.96,0.59,-0.04,-0.38,
2.482,0.04,0.09,0.96,0.64,0.01,-0.42,
2.482,0.04,0.10,0.96,0.64,0.01,-0.42,
2.482,0.04,0.10,0.96,0.64,0.09,-0.37,
2.483,0.04,0.10,0.97,0.64,0.09,-0.37,
2.483,0.04,0.10,0.97,0.64,0.09,-0.37,
2.483,0.04,0.10,0.98,0.64,0.09,-0.37,
2.483,0.04,0.10,0.98,0.69,0.16,-0.27,
2.484,0.04,0.10,0.98,0.69,0.16,-0.27,
2.491,0.05,0.10,0.98,0.69,0.16,-0.27,
2.492,0.05,0.10,0.98,0.69,0.18,-0.20,
2.492,0.05,0.10,0.98,0.69,0.18,-0.20,
2.492,0.05,0.09,0.98,0.69,0.18,-0.20,
2.493,0.05,0.09,0.98,0.68,0.19,-0.11,
2.494,0.04,0.09,0.99,0.68,0.19,-0.11,
2.496,0.04,0.09,0.99,0.70,0.13,-0.11,
2.497,0.05,0.09,0.99,0.70,0.13,-0.11,
2.498,0.04,0.09,0.99,0.70,0.13,-0.11,
2.501,0.04,0.08,0.99,0.70,0.13,-0.11,
2.501,0.04,0.08,0.99,0.67,0.06,-0.06,
2.508,0.04,0.08,0.99,0.67,0.06,-0.06,
2.508,0.03,0.08,0.99,0.67,0.06,-0.06,
2.509,0.03,0.08,0.99,0.64,0.01,-0.06,
2.509,0.03,0.08,1.00,0.64,0.01,-0.06,
2.511,0.03,0.08,1.00,0.56,-0.06,0.00,
2.512,0.03,0.07,0.99,0.56,-0.06,0.00,
2.513,0.03,0.07,0.99,0.56,-0.06,0.00,
2.517,0.03,0.07,0.99,0.56,-0.06,0.00,
2.518,0.03,0.07,0.99,0.46,-0.09,0.02,
2.524,0.02,0.06,0.99,0.46,-0.09,0.02,
2.524,0.02,0.06,0.99,0.46,-0.15,-0.04,
2.525,0.02,0.07,0.99,0.46,-0.15,-0.04,
2.525,0.02,0.07,0.98,0.46,-0.15,-0.04,
2.526,0.02,0.07,0.98,0.46,-0.15,-0.04,
2.526,0.02,0.07,0.98,0.40,-0.20,-0.06,
2.528,0.02,0.07,0.98,0.40,-0.20,-0.06,
2.532,0.01,0.07,0.98,0.40,-0.20,-0.06,
2.532,0.01,0.07,0.98,0.39,-0.17,-0.09,
2.533,0.01,0.07,0.98,0.39,-0.17,-0.09,
2.549,0.01,0.08,0.99,0.39,-0.17,-0.09,
2.55,0.01,0.08,0.99,0.33,-0.14,-0.12,
2.55,0.01,0.08,0.98,0.33,-0.14,-0.12,
2.55,0.01,0.08,0.98,0.28,-0.08,-0.09,
2.55,0.00,0.08,0.98,0.28,-0.08,-0.09,
2.551,-0.00,0.08,0.98,0.28,-0.08,-0.09,
2.551,-0.00,0.08,0.98,0.20,-0.03,-0.11,
2.551,-0.00,0.09,0.99,0.20,-0.03,-0.11,
2.552,-0.00,0.09,0.99,0.20,-0.03,-0.11,
2.552,-0.00,0.09,0.99,0.20,-0.03,-0.11,
2.552,-0.00,0.09,0.99,0.15,0.02,-0.09,
2.56,-0.00,0.09,0.99,0.15,0.02,-0.09,
2.56,-0.00,0.09,0.99,0.15,0.02,-0.09,
2.56,-0.00,0.09,0.99,0.12,0.02,-0.05,
2.561,0.00,0.09,0.99,0.12,0.02,-0.05,
2.561,0.01,0.09,0.99,0.12,0.02,-0.05,
2.561,0.01,0.09,0.99,0.11,0.04,-0.02,
2.563,0.01,0.09,1.00,0.11,0.04,-0.02,
2.566,0.01,0.10,0.99,0.11,0.04,-0.02,
2.566,0.01,0.10,0.99,0.17,0.06,-0.04,
2.568,0.03,0.11,1.01,0.17,0.06,-0.04,
2.578,0.03,0.11,1.01,0.20,0.08,0.02,
2.579,0.06,0.12,1.02,0.20,0.08,0.02,
2.579,0.11,0.15,1.03,0.20,0.08,0.02,
2.579,0.16,0.17,1.03,0.20,0.08,0.02,
2.58,0.16,0.17,1.03,0.53,0.28,0.17,
2.58,0.19,0.19,1.04,0.53,0.28,0.17,
2.581,0.20,0.21,1.03,0.53,0.28,0.17,
2.581,0.20,0.21,1.03,1.35,0.66,0.35,
2.583,0.20,0.22,1.03,1.35,0.66,0.35,
2.592,0.16,0.22,1.01,1.35,0.66,0.35,
2.592,0.16,0.22,1.01,1.98,1.07,0.40,
2.593,0.13,0.22,1.00,1.98,1.07,0.40,
2.593,0.10,0.21,0.99,1.98,1.07,0.40,
2.593,0.10,0.21,0.99,1.82,1.25,0.27,
2.593,0.07,0.19,0.99,1.82,1.25,0.27,
2.595,0.07,0.19,0.99,1.16,1.20,0.05,
2.596,0.06,0.18,0.98,1.16,1.20,0.05,
2.598,0.05,0.16,0.98,1.16,1.20,0.05,
2.6,0.04,0.14,0.97,1.16,1.20,0.05,
2.6,0.04,0.14,0.97,0.67,0.91,-0.07,
2.603,0.03,0.12,0.96,0.67,0.91,-0.07,
2.608,0.03,0.10,0.96,0.67,0.91,-0.07,
2.608,0.03,0.10,0.96,0.46,0.52,-0.15,
2.609,0.02,0.09,0.95,0.46,0.52,-0.15,
2.61,0.02,0.09,0.95,0.32,0.14,-0.33,
2.611,0.01,0.08,0.95,0.32,0.14,-0.33,
2.612,0.00,0.07,0.95,0.32,0.14,-0.33,
2.615,-0.01,0.07,0.95,0.32,0.14,-0.33,
2.615,-0.01,0.07,0.95,0.15,-0.13,-0.43,
2.617,-0.02,0.06,0.95,0.15,-0.13,-0.43,
2.624,-0.02,0.06,0.95,-0.03,-0.26,-0.45,
2.625,-0.03,0.06,0.97,-0.03,-0.26,-0.45,
2.625,-0.04,0.06,0.98,-0.03,-0.26,-0.45,
2.625,-0.04,0.06,0.99,-0.03,-0.26,-0.45,
2.626,-0.04,0.06,0.99,-0.23,-0.34,-0.28,
2.628,-0.04,0.05,1.00,-0.23,-0.34,-0.28,
2.63,-0.03,0.05,1.02,-0.23,-0.34,-0.28,
2.63,-0.03,0.05,1.02,-0.38,-0.38,-0.06,
2.632,-0.03,0.05,1.02,-0.38,-0.38,-0.06,
2.635,-0.02,0.05,1.02,-0.38,-0.38,-0.06,
2.639,-0.02,0.05,1.02,-0.36,-0.47,0.17,
2.639,-0.03,0.04,1.03,-0.36,-0.47,0.17,
2.651,-0.02,0.04,1.04,-0.36,-0.47,0.17,
2.652,-0.02,0.04,1.04,-0.28,-0.49,0.29,
2.653,-0.02,0.04,1.05,-0.28,-0.49,0.29,
2.653,-0.02,0.04,1.05,-0.26,-0.54,0.41,
2.653,-0.02,0.04,1.05,-0.26,-0.54,0.41,
2.654,-0.02,0.04,1.06,-0.26,-0.54,0.41,
2.654,-0.02,0.04,1.06,-0.26,-0.54,0.41,
2.654,-0.02,0.04,1.06,-0.20,-0.54,0.56,
2.655,-0.03,0.04,1.07,-0.20,-0.54,0.56,
2.655,-0.03,0.04,1.07,-0.23,-0.55,0.68,
2.655,-0.03,0.04,1.06,-0.23,-0.55,0.68,
2.657,-0.04,0.04,1.06,-0.23,-0.55,0.68,
2.66,-0.04,0.04,1.06,-0.33,-0.51,0.70,
2.661,-0.04,0.04,1.05,-0.33,-0.51,0.70,
2.662,-0.04,0.03,1.04,-0.33,-0.51,0.70,
2.665,-0.04,0.03,1.04,-0.33,-0.51,0.70,
2.666,-0.04,0.03,1.04,-0.39,-0.55,0.57,
2.667,-0.04,0.03,1.03,-0.39,-0.55,0.57,
2.67,-0.04,0.03,1.03,-0.38,-0.61,0.46,
2.67,-0.03,0.02,1.02,-0.38,-0.61,0.46,
2.673,-0.02,0.02,1.01,-0.38,-0.61,0.46,
2.676,-0.02,0.02,1.00,-0.38,-0.61,0.46,
2.676,-0.02,0.02,1.00,-0.34,-0.70,0.27,
2.678,-0.03,0.02,1.01,-0.34,-0.70,0.27,
2.681,-0.03,0.03,1.01,-0.34,-0.70,0.27,
2.681,-0.03,0.03,1.01,-0.24,-0.78,0.12,
2.683,-0.03,0.05,1.02,-0.24,-0.78,0.12,
2.686,-0.03,0.05,1.01,-0.24,-0.78,0.12,
2.686,-0.03,0.05,1.01,-0.33,-0.68,0.16,
2.688,-0.03,0.06,1.01,-0.33,-0.68,0.16,
2.69,-0.03,0.07,1.01,-0.33,-0.68,0.16,
2.69,-0.03,0.07,1.01,-0.33,-0.49,0.21,
2.692,-0.03,0.07,1.01,-0.33,-0.49,0.21,
2.695,-0.03,0.07,1.01,-0.33,-0.49,0.21,
2.695,-0.03,0.07,1.01,-0.40,-0.35,0.19,
2.697,-0.02,0.07,1.00,-0.40,-0.35,0.19,
2.7,-0.02,0.07,1.00,-0.36,-0.32,0.12,
2.7,-0.02,0.06,0.99,-0.36,-0.32,0.12,
2.702,-0.02,0.06,0.99,-0.36,-0.32,0.12,
2.704,-0.02,0.07,0.99,-0.36,-0.32,0.12,
2.705,-0.02,0.07,0.99,-0.31,-0.34,0.02,
2.707,-0.02,0.06,0.99,-0.31,-0.34,0.02,
2.71,-0.02,0.06,0.99,-0.30,-0.35,-0.03,
2.71,-0.01,0.06,0.99,-0.30,-0.35,-0.03,
2.712,-0.01,0.07,0.99,-0.30,-0.35,-0.03,
2.715,-0.01,0.07,0.99,-0.30,-0.35,-0.03,
2.716,-0.01,0.07,0.99,-0.24,-0.38,-0.01,
2.717,0.00,0.07,0.98,-0.24,-0.38,-0.01,
2.725,0.00,0.07,0.98,-0.20,-0.33,-0.01,
2.726,0.00,0.07,0.99,-0.20,-0.33,-0.01,
2.726,0.00,0.07,0.98,-0.20,-0.33,-0.01,
2.726,0.00,0.08,0.97,-0.20,-0.33,-0.01,
2.726,0.00,0.08,0.97,-0.12,-0.30,-0.07,
2.727,0.00,0.08,0.97,-0.12,-0.30,-0.07,
2.729,0.00,0.08,0.97,-0.12,-0.26,-0.17,
2.729,0.01,0.08,0.97,-0.12,-0.26,-0.17,
2.732,0.01,0.08,0.96,-0.12,-0.26,-0.17,
2.735,0.01,0.08,0.96,-0.12,-0.23,-0.24,
2.735,0.01,0.08,0.96,-0.12,-0.23,-0.24,
2.737,0.01,0.08,0.95,-0.12,-0.23,-0.24,
2.739,0.00,0.08,0.95,-0.12,-0.23,-0.24,
2.74,0.00,0.08,0.95,-0.06,-0.25,-0.33,
2.741,0.01,0.08,0.95,-0.06,-0.25,-0.33,
2.745,0.01,0.08,0.95,-0.09,-0.26,-0.37,
2.745,0.01,0.08,0.96,-0.09,-0.26,-0.37,
2.747,0.00,0.08,0.96,-0.09,-0.26,-0.37,
2.75,0.01,0.08,0.96,-0.09,-0.26,-0.37,
2.75,0.01,0.08,0.96,-0.10,-0.25,-0.38,
2.752,0.01,0.08,0.96,-0.10,-0.25,-0.38,
2.755,0.01,0.07,0.97,-0.10,-0.25,-0.38,
2.755,0.01,0.07,0.97,-0.11,-0.26,-0.35,
2.757,0.02,0.07,0.97,-0.11,-0.26,-0.35,
2.759,0.02,0.08,0.98,-0.11,-0.26,-0.35,
2.76,0.02,0.08,0.98,-0.04,-0.28,-0.28,
2.761,0.02,0.08,0.99,-0.04,-0.28,-0.28,
2.764,0.03,0.09,0.99,-0.04,-0.28,-0.28,
2.765,0.03,0.09,0.99,0.03,-0.27,-0.13,
2.767,0.03,0.09,1.00,0.03,-0.27,-0.13,
2.77,0.03,0.09,1.00,0.06,-0.16,-0.01,
2.77,0.03,0.10,1.01,0.06,-0.16,-0.01,
2.772,0.04,0.10,1.01,0.06,-0.16,-0.01,
2.774,0.04,0.11,1.02,0.06,-0.16,-0.01,
2.774,0.04,0.11,1.02,0.13,-0.09,0.11,
2.777,0.06,0.11,1.02,0.13,-0.09,0.11,
2.779,0.06,0.12,1.02,0.13,-0.09,0.11,
2.78,0.06,0.12,1.02,0.22,0.06,0.25,
2.782,0.06,0.13,1.02,0.22,0.06,0.25,
2.784,0.07,0.13,1.02,0.22,0.06,0.25,
2.784,0.07,0.13,1.02,0.38,0.15,0.25,
2.786,0.08,0.13,1.02,0.38,0.15,0.25,
2.789,0.08,0.14,1.01,0.38,0.15,0.25,
2.79,0.08,0.14,1.01,0.46,0.26,0.23,
2.791,0.08,0.13,1.01,0.46,0.26,0.23,
2.794,0.08,0.13,1.01,0.55,0.30,0.22,
2.795,0.08,0.13,1.01,0.55,0.30,0.22,
2.796,0.08,0.14,1.00,0.55,0.30,0.22,
2.799,0.07,0.13,1.00,0.55,0.30,0.22,
2.799,0.07,0.13,1.00,0.53,0.29,0.17,
2.802,0.06,0.13,1.00,0.53,0.29,0.17,
2.806,0.06,0.13,1.00,0.49,0.30,0.07,
2.807,0.07,0.13,0.99,0.49,0.30,0.07,
2.807,0.06,0.13,0.99,0.49,0.30,0.07,
2.808,0.05,0.12,0.98,0.49,0.30,0.07,
2.809,0.05,0.12,0.98,0.40,0.26,-0.00,
2.811,0.05,0.12,0.98,0.40,0.26,-0.00,
2.814,0.05,0.12,0.98,0.40,0.26,-0.00,
2.814,0.05,0.12,0.98,0.31,0.19,-0.07,
2.816,0.04,0.12,0.99,0.31,0.19,-0.07,
2.819,0.04,0.12,0.99,0.23,0.12,-0.11,
2.819,0.04,0.11,0.99,0.23,0.12,-0.11,
2.821,0.04,0.11,1.00,0.23,0.12,-0.11,
2.824,0.03,0.12,1.00,0.23,0.12,-0.11,
2.824,0.03,0.12,1.00,0.17,0.07,-0.07,
2.826,0.03,0.11,1.00,0.17,0.07,-0.07,
2.829,0.03,0.11,0.99,0.17,0.07,-0.07,
2.829,0.03,0.11,0.99,0.07,0.05,0.06,
2.831,0.03,0.10,1.00,0.07,0.05,0.06,
2.834,0.02,0.10,1.00,0.07,0.05,0.06,
2.834,0.02,0.10,1.00,0.04,-0.03,0.04,
2.836,0.02,0.10,1.00,0.04,-0.03,0.04,
2.838,0.02,0.09,1.01,0.04,-0.03,0.04,
2.839,0.02,0.09,1.01,-0.04,-0.13,0.06,
2.84,0.02,0.09,1.01,-0.04,-0.13,0.06,
2.843,0.02,0.09,1.01,-0.09,-0.16,0.13,
2.844,0.02,0.09,1.02,-0.09,-0.16,0.13,
2.845,0.01,0.09,1.02,-0.09,-0.16,0.13,
2.849,0.02,0.09,1.03,-0.09,-0.16,0.13,
2.849,0.02,0.09,1.03,-0.15,-0.22,0.25,
2.85,0.02,0.09,1.03,-0.15,-0.22,0.25,
2.853,0.02,0.09,1.03,-0.15,-0.22,0.25,
2.853,0.02,0.09,1.03,-0.16,-0.24,0.31,
2.859,0.02,0.09,1.02,-0.16,-0.24,0.31,
2.86,0.03,0.09,1.02,-0.16,-0.24,0.31,
2.86,0.03,0.09,1.02,-0.14,-0.25,0.35,
2.86,0.03,0.10,1.02,-0.14,-0.25,0.35,
2.863,0.04,0.10,1.02,-0.14,-0.25,0.35,
2.863,0.04,0.10,1.02,-0.08,-0.21,0.27,
2.865,0.04,0.11,1.01,-0.08,-0.21,0.27,
2.868,0.04,0.11,1.01,0.02,-0.13,0.26,
2.868,0.05,0.12,1.01,0.02,-0.13,0.26,
2.87,0.05,0.12,1.00,0.02,-0.13,0.26,
2.874,0.05,0.12,1.00,0.02,-0.13,0.26,
2.874,0.05,0.12,1.00,0.10,-0.02,0.17,
2.875,0.06,0.13,0.99,0.10,-0.02,0.17,
2.878,0.07,0.13,0.99,0.10,-0.02,0.17,
2.878,0.07,0.13,0.99,0.14,0.06,0.07,
2.88,0.07,0.13,0.99,0.14,0.06,0.07,
2.882,0.07,0.14,0.99,0.14,0.06,0.07,
2.883,0.07,0.14,0.99,0.26,0.15,-0.02,
2.885,0.07,0.14,0.98,0.26,0.15,-0.02,
2.888,0.08,0.14,0.98,0.26,0.15,-0.02,
2.889,0.08,0.14,0.98,0.31,0.17,-0.06,
2.89,0.07,0.14,0.98,0.31,0.17,-0.06,
2.893,0.07,0.14,0.98,0.37,0.19,-0.09,
2.893,0.07,0.14,0.99,0.37,0.19,-0.09,
2.895,0.07,0.15,0.99,0.37,0.19,-0.09,
2.898,0.07,0.15,0.98,0.37,0.19,-0.09,
2.898,0.07,0.15,0.98,0.37,0.27,-0.08,
2.9,0.07,0.14,0.98,0.37,0.27,-0.08,
2.903,0.07,0.14,0.98,0.37,0.27,-0.08,
2.903,0.07,0.14,0.98,0.35,0.28,-0.10,
2.906,0.06,0.14,0.97,0.35,0.28,-0.10,
2.908,0.06,0.13,0.98,0.35,0.28,-0.10,
2.908,0.06,0.13,0.98,0.30,0.24,-0.13,
2.91,0.06,0.13,0.97,0.30,0.24,-0.13,
2.913,0.05,0.13,0.98,0.30,0.24,-0.13,
2.913,0.05,0.13,0.98,0.24,0.18,-0.15,
2.915,0.05,0.12,0.98,0.24,0.18,-0.15,
2.918,0.05,0.12,0.98,0.18,0.11,-0.15,
2.918,0.05,0.12,0.98,0.18,0.11,-0.15,
2.92,0.04,0.12,0.98,0.18,0.11,-0.15,
2.924,0.05,0.12,0.99,0.18,0.11,-0.15,
2.924,0.05,0.12,0.99,0.11,0.03,-0.11,
2.925,0.05,0.11,0.99,0.11,0.03,-0.11,
2.928,0.05,0.11,1.00,0.11,0.03,-0.11,
2.928,0.05,0.11,1.00,0.04,-0.00,-0.06,
2.931,0.05,0.10,1.01,0.04,-0.00,-0.06,
2.933,0.05,0.10,1.01,0.04,-0.00,-0.06,
2.933,0.05,0.10,1.01,0.04,-0.08,0.06,
2.935,0.05,0.10,1.01,0.04,-0.08,0.06,
2.943,0.05,0.10,1.02,0.04,-0.08,0.06,
2.944,0.05,0.10,1.02,0.09,-0.16,0.17,
2.944,0.06,0.10,1.03,0.09,-0.16,0.17,
2.944,0.06,0.09,1.04,0.09,-0.16,0.17,
2.945,0.06,0.09,1.04,0.05,-0.21,0.26,
2.945,0.06,0.09,1.04,0.05,-0.21,0.26,
2.947,0.06,0.09,1.04,0.05,-0.21,0.26,
2.947,0.06,0.09,1.04,0.08,-0.24,0.41,
2.949,0.05,0.09,1.05,0.08,-0.24,0.41,
2.952,0.06,0.09,1.06,0.08,-0.24,0.41,
2.953,0.06,0.09,1.06,0.09,-0.28,0.48,
2.956,0.05,0.09,1.05,0.09,-0.28,0.48,
2.957,0.05,0.09,1.06,0.09,-0.28,0.48,
2.957,0.05,0.09,1.06,0.04,-0.32,0.61,
2.959,0.05,0.09,1.05,0.04,-0.32,0.61,
2.963,0.05,0.09,1.05,-0.01,-0.32,0.60,
2.963,0.05,0.09,1.05,-0.01,-0.32,0.60,
2.964,0.04,0.10,1.04,-0.01,-0.32,0.60,
2.967,0.05,0.10,1.04,-0.01,-0.32,0.60,
2.968,0.05,0.10,1.04,-0.02,-0.31,0.58,
2.97,0.05,0.10,1.03,-0.02,-0.31,0.58,
2.973,0.05,0.11,1.02,-0.02,-0.31,0.58,
2.974,0.05,0.11,1.02,-0.07,-0.23,0.45,
2.974,0.05,0.10,1.01,-0.07,-0.23,0.45,
2.977,0.06,0.11,1.01,-0.07,-0.23,0.45,
2.978,0.06,0.11,1.01,-0.08,-0.18,0.34,
2.979,0.05,0.11,1.01,-0.08,-0.18,0.34,
2.982,0.05,0.10,1.02,-0.08,-0.18,0.34,
2.982,0.05,0.10,1.02,-0.03,-0.19,0.19,
2.984,0.06,0.10,1.03,-0.03,-0.19,0.19,
2.986,0.06,0.10,1.03,-0.07,-0.22,0.22,
2.986,0.07,0.10,1.01,-0.07,-0.22,0.22,
2.989,0.08,0.11,0.99,-0.07,-0.22,0.22,
2.993,0.08,0.11,0.99,0.03,-0.28,0.24,
2.993,0.09,0.11,0.98,0.03,-0.28,0.24,
2.994,0.09,0.12,0.98,0.03,-0.28,0.24,
2.997,0.10,0.13,0.97,0.03,-0.28,0.24,
2.997,0.10,0.13,0.97,0.17,-0.20,-0.03,
2.999,0.11,0.14,0.96,0.17,-0.20,-0.03,
3.002,0.12,0.15,0.96,0.17,-0.20,-0.03,
3.002,0.12,0.15,0.96,0.26,-0.08,-0.19,
3.004,0.13,0.17,0.96,0.26,-0.08,-0.19,
3.006,0.14,0.17,0.95,0.26,-0.08,-0.19,
3.007,0.14,0.17,0.95,0.42,0.12,-0.34,
3.009,0.15,0.18,0.94,0.42,0.12,-0.34,
3.012,0.16,0.19,0.94,0.42,0.12,-0.34,
3.012,0.16,0.19,0.94,0.63,0.33,-0.36,
3.014,0.16,0.18,0.93,0.63,0.33,-0.36,
3.018,0.14,0.17,0.85,0.63,0.33,-0.36,
3.019,0.14,0.17,0.85,0.79,0.46,-0.50,
3.019,0.13,0.19,0.73,0.79,0.46,-0.50,
3.022,0.16,0.21,0.66,0.79,0.46,-0.50,
3.022,0.16,0.21,0.66,0.67,0.35,-0.98,
3.024,0.20,0.22,0.63,0.67,0.35,-0.98,
3.026,0.20,0.20,0.67,0.67,0.35,-0.98,
3.026,0.20,0.20,0.67,0.63,0.57,-2.88,
3.029,0.19,0.18,0.72,0.63,0.57,-2.88,
3.032,0.18,0.16,0.78,0.63,0.57,-2.88,
3.032,0.18,0.16,0.78,1.17,0.65,-3.26,
3.034,0.18,0.15,0.84,1.17,0.65,-3.26,
3.036,0.18,0.15,0.84,1.05,0.31,-2.29,
3.036,0.18,0.14,0.90,1.05,0.31,-2.29,
3.042,0.18,0.13,0.95,1.05,0.31,-2.29,
3.042,0.18,0.13,0.95,1.04,0.10,-1.15,
3.044,0.16,0.12,0.98,1.04,0.10,-1.15,
3.045,0.15,0.12,1.01,1.04,0.10,-1.15,
3.047,0.13,0.11,1.03,1.04,0.10,-1.15,
3.047,0.13,0.11,1.03,0.95,-0.07,-0.19,
3.049,0.10,0.11,1.05,0.95,-0.07,-0.19,
3.052,0.10,0.11,1.05,0.66,-0.14,0.33,
3.052,0.07,0.11,1.08,0.66,-0.14,0.33,
3.054,0.04,0.11,1.11,0.66,-0.14,0.33,
3.062,0.03,0.11,1.14,0.66,-0.14,0.33,
3.062,0.03,0.11,1.14,0.14,-0.15,0.79,
3.063,0.02,0.11,1.17,0.14,-0.15,0.79,
3.063,0.03,0.11,1.18,0.14,-0.15,0.79,
3.063,0.03,0.11,1.18,-0.29,-0.12,1.31,
3.063,0.03,0.11,1.18,-0.29,-0.12,1.31,
3.067,0.03,0.11,1.18,-0.37,-0.09,1.81,
3.067,0.04,0.10,1.18,-0.37,-0.09,1.81,
3.069,0.05,0.11,1.17,-0.37,-0.09,1.81,
3.071,0.04,0.11,1.15,-0.37,-0.09,1.81,
3.072,0.04,0.11,1.15,-0.24,-0.11,1.88,
3.077,0.04,0.11,1.13,-0.24,-0.11,1.88,
3.078,0.05,0.11,1.11,-0.24,-0.11,1.88,
3.078,0.05,0.11,1.11,-0.16,-0.08,1.65,
3.078,0.06,0.11,1.11,-0.16,-0.08,1.65,
3.081,0.08,0.09,1.10,-0.16,-0.08,1.65,
3.082,0.08,0.09,1.10,-0.16,-0.07,1.29,
3.084,0.11,0.07,1.09,-0.16,-0.07,1.29,
3.086,0.10,0.08,1.07,-0.16,-0.07,1.29,
3.086,0.10,0.08,1.07,0.02,-0.14,1.12,
3.088,0.07,0.10,1.05,0.02,-0.14,1.12,
3.101,0.07,0.10,1.05,0.39,-0.44,0.90,
3.101,0.06,0.11,1.05,0.39,-0.44,0.90,
3.102,0.04,0.12,1.04,0.39,-0.44,0.90,
3.102,0.04,0.13,1.03,0.39,-0.44,0.90,
3.102,0.04,0.13,1.03,-0.03,-0.15,0.60,
3.102,0.04,0.13,1.01,-0.03,-0.15,0.60,
3.102,0.04,0.13,1.01,-0.30,0.02,0.47,
3.103,0.04,0.13,1.01,-0.30,0.02,0.47,
3.103,0.06,0.12,0.99,-0.30,0.02,0.47,
3.112,0.08,0.12,0.99,-0.30,0.02,0.47,
3.113,0.08,0.12,0.99,-0.32,0.06,0.20,
3.113,0.10,0.12,0.98,-0.32,0.06,0.20,
3.114,0.12,0.12,0.98,-0.32,0.06,0.20,
3.114,0.12,0.12,0.98,-0.04,-0.04,0.01,
3.114,0.14,0.12,0.98,-0.04,-0.04,0.01,
