
time,gFx,gFy,gFz,ax,ay,az,
0.006,-0.03,0.11,0.99,0.19,0.25,-0.07,
0.007,-0.04,0.11,1.00,0.19,0.25,-0.07,
0.007,-0.04,0.11,1.00,0.12,0.21,0.01,
0.007,-0.04,0.11,1.01,0.12,0.21,0.01,
0.008,-0.04,0.11,1.02,0.12,0.21,0.01,
0.008,-0.04,0.11,1.02,0.03,0.13,0.11,
0.008,-0.04,0.11,1.02,0.03,0.13,0.11,
0.008,-0.05,0.11,1.02,0.03,0.13,0.11,
0.009,-0.05,0.11,1.02,0.02,0.09,0.28,
0.015,-0.05,0.11,1.02,0.02,0.09,0.28,
0.016,-0.05,0.11,1.02,-0.06,0.08,0.36,
0.016,-0.06,0.11,1.03,-0.06,0.08,0.36,
0.016,-0.07,0.11,1.04,-0.06,0.08,0.36,
0.018,-0.07,0.10,1.04,-0.06,0.08,0.36,
0.018,-0.07,0.10,1.04,-0.15,0.06,0.41,
0.02,-0.07,0.10,1.04,-0.15,0.06,0.41,
0.026,-0.08,0.10,1.04,-0.15,0.06,0.41,
0.027,-0.08,0.10,1.04,-0.26,0.05,0.51,
0.027,-0.08,0.10,1.03,-0.26,0.05,0.51,
0.027,-0.08,0.10,1.04,-0.26,0.05,0.51,
0.027,-0.08,0.10,1.04,-0.33,0.01,0.51,
0.03,-0.08,0.10,1.03,-0.33,0.01,0.51,
0.032,-0.08,0.10,1.03,-0.33,0.01,0.51,
0.032,-0.08,0.10,1.03,-0.37,0.02,0.48,
0.035,-0.08,0.09,1.04,-0.37,0.02,0.48,
0.037,-0.08,0.09,1.03,-0.37,0.02,0.48,
0.037,-0.08,0.09,1.03,-0.40,-0.04,0.42,
0.043,-0.08,0.09,1.03,-0.40,-0.04,0.42,
0.043,-0.09,0.09,1.02,-0.40,-0.04,0.42,
0.044,-0.09,0.09,1.02,-0.36,-0.08,0.42,
0.044,-0.09,0.09,1.01,-0.36,-0.08,0.42,
0.047,-0.10,0.09,1.01,-0.36,-0.08,0.42,
0.047,-0.10,0.09,1.01,-0.39,-0.11,0.33,
0.05,-0.09,0.09,1.01,-0.39,-0.11,0.33,
0.052,-0.09,0.09,1.01,-0.39,-0.11,0.33,
0.053,-0.09,0.09,1.01,-0.44,-0.12,0.25,
0.055,-0.09,0.08,1.02,-0.44,-0.12,0.25,
0.062,-0.09,0.08,1.03,-0.44,-0.12,0.25,
0.062,-0.09,0.08,1.03,-0.42,-0.13,0.21,
0.062,-0.09,0.08,1.02,-0.42,-0.13,0.21,
0.063,-0.09,0.08,1.02,-0.42,-0.13,0.21,
0.063,-0.09,0.08,1.02,-0.43,-0.17,0.36,
0.065,-0.09,0.09,1.02,-0.43,-0.17,0.36,
0.067,-0.09,0.09,1.00,-0.43,-0.17,0.36,
0.067,-0.09,0.09,1.00,-0.39,-0.18,0.32,
0.07,-0.10,0.09,1.00,-0.39,-0.18,0.32,
0.077,-0.10,0.09,0.99,-0.39,-0.18,0.32,
0.077,-0.10,0.09,0.99,-0.34,-0.15,0.21,
0.078,-0.10,0.09,0.99,-0.34,-0.15,0.21,
0.078,-0.10,0.09,0.98,-0.34,-0.15,0.21,
0.078,-0.10,0.09,0.98,-0.43,-0.13,0.06,
0.079,-0.10,0.10,0.98,-0.43,-0.13,0.06,
0.081,-0.10,0.10,0.98,-0.43,-0.13,0.06,
0.082,-0.10,0.10,0.98,-0.44,-0.09,-0.03,
0.084,-0.11,0.10,0.98,-0.44,-0.09,-0.03,
0.086,-0.11,0.10,0.98,-0.43,-0.03,-0.09,
0.087,-0.10,0.10,0.98,-0.43,-0.03,-0.09,
0.093,-0.10,0.11,0.97,-0.43,-0.03,-0.09,
0.093,-0.10,0.11,0.97,-0.43,-0.03,-0.09,
0.093,-0.10,0.11,0.97,-0.45,0.01,-0.10,
0.094,-0.09,0.11,0.97,-0.45,0.01,-0.10,
0.096,-0.09,0.11,0.98,-0.45,0.01,-0.10,
0.096,-0.09,0.11,0.98,-0.40,0.05,-0.14,
0.099,-0.09,0.11,0.98,-0.40,0.05,-0.14,
0.101,-0.09,0.11,0.98,-0.40,0.05,-0.14,
0.101,-0.09,0.11,0.98,-0.37,0.06,-0.13,
0.104,-0.09,0.11,0.98,-0.37,0.06,-0.13,
0.109,-0.09,0.11,0.99,-0.37,0.06,-0.13,
0.109,-0.09,0.11,0.99,-0.35,0.07,-0.05,
0.109,-0.09,0.11,0.99,-0.35,0.07,-0.05,
0.111,-0.09,0.11,0.99,-0.35,0.07,-0.05,
0.111,-0.09,0.11,0.99,-0.34,0.06,-0.03,
0.115,-0.10,0.11,0.99,-0.34,0.06,-0.03,
0.116,-0.10,0.11,1.00,-0.34,0.06,-0.03,
0.117,-0.10,0.11,1.00,-0.33,0.07,0.03,
0.119,-0.10,0.10,1.00,-0.33,0.07,0.03,
0.128,-0.09,0.10,0.99,-0.33,0.07,0.03,
0.129,-0.09,0.10,0.99,-0.41,0.04,0.06,
0.129,-0.10,0.11,0.99,-0.41,0.04,0.06,
0.129,-0.10,0.11,1.00,-0.41,0.04,0.06,
0.129,-0.10,0.11,1.00,-0.40,-0.02,0.08,
0.13,-0.11,0.11,1.01,-0.40,-0.02,0.08,
0.131,-0.11,0.10,1.00,-0.40,-0.02,0.08,
0.131,-0.11,0.10,1.00,-0.44,0.01,0.07,
0.133,-0.11,0.10,1.00,-0.44,0.01,0.07,
0.136,-0.11,0.10,1.00,-0.44,0.01,0.07,
0.136,-0.11,0.10,1.00,-0.51,-0.01,0.15,
0.149,-0.11,0.10,1.01,-0.51,-0.01,0.15,
0.15,-0.11,0.10,1.01,-0.51,-0.01,0.15,
0.15,-0.11,0.10,1.01,-0.54,-0.06,0.13,
0.151,-0.12,0.10,1.01,-0.54,-0.06,0.13,
0.151,-0.11,0.10,1.01,-0.54,-0.06,0.13,
0.151,-0.11,0.10,1.01,-0.55,-0.06,0.17,
0.151,-0.11,0.10,1.01,-0.55,-0.06,0.17,
0.152,-0.11,0.10,1.01,-0.55,-0.06,0.17,
0.152,-0.11,0.10,1.01,-0.57,-0.04,0.20,
0.154,-0.12,0.10,1.01,-0.57,-0.04,0.20,
0.163,-0.11,0.10,1.01,-0.57,-0.04,0.20,
0.163,-0.11,0.10,1.01,-0.56,-0.05,0.19,
0.164,-0.12,0.10,1.02,-0.56,-0.05,0.19,
0.166,-0.12,0.10,1.01,-0.56,-0.05,0.19,
0.166,-0.12,0.10,1.01,-0.57,-0.06,0.23,
0.166,-0.12,0.10,1.02,-0.57,-0.06,0.23,
0.166,-0.12,0.10,1.02,-0.57,-0.06,0.23,
0.167,-0.12,0.10,1.02,-0.57,-0.05,0.24,
0.169,-0.12,0.10,1.01,-0.57,-0.05,0.24,
0.17,-0.12,0.10,1.02,-0.57,-0.05,0.24,
0.171,-0.12,0.10,1.02,-0.57,-0.06,0.29,
0.181,-0.12,0.10,1.02,-0.57,-0.06,0.29,
0.182,-0.12,0.10,1.01,-0.57,-0.06,0.29,
0.182,-0.12,0.10,1.01,-0.59,-0.06,0.24,
0.182,-0.12,0.10,1.01,-0.59,-0.06,0.24,
0.183,-0.12,0.10,1.01,-0.59,-0.06,0.24,
0.183,-0.12,0.10,1.01,-0.59,-0.05,0.24,
0.183,-0.13,0.10,1.01,-0.59,-0.05,0.24,
0.185,-0.13,0.11,1.01,-0.59,-0.05,0.24,
0.186,-0.13,0.11,1.01,-0.60,-0.02,0.23,
0.188,-0.14,0.11,1.01,-0.60,-0.02,0.23,
0.196,-0.14,0.12,1.01,-0.60,-0.02,0.23,
0.196,-0.14,0.12,1.01,-0.67,0.01,0.22,
0.197,-0.14,0.12,1.00,-0.67,0.01,0.22,
0.197,-0.15,0.12,1.00,-0.67,0.01,0.22,
0.197,-0.15,0.12,1.00,-0.73,0.07,0.20,
0.198,-0.15,0.13,1.01,-0.73,0.07,0.20,
0.2,-0.15,0.13,1.00,-0.73,0.07,0.20,
0.2,-0.15,0.13,1.00,-0.79,0.14,0.14,
0.202,-0.15,0.13,1.01,-0.79,0.14,0.14,
0.211,-0.16,0.14,1.00,-0.79,0.14,0.14,
0.212,-0.16,0.14,1.00,-0.84,0.22,0.14,
0.212,-0.16,0.14,1.00,-0.84,0.22,0.14,
0.213,-0.16,0.14,1.00,-0.89,0.30,0.11,
0.213,-0.16,0.15,1.00,-0.89,0.30,0.11,
0.213,-0.16,0.15,0.99,-0.89,0.30,0.11,
0.216,-0.16,0.15,0.99,-0.93,0.36,0.11,
0.217,-0.16,0.15,0.99,-0.93,0.36,0.11,
0.217,-0.16,0.15,0.99,-0.93,0.36,0.11,
0.22,-0.16,0.16,0.99,-0.93,0.36,0.11,
0.22,-0.16,0.16,0.99,-0.89,0.42,0.03,
0.223,-0.16,0.16,0.99,-0.89,0.42,0.03,
0.23,-0.16,0.16,0.98,-0.89,0.42,0.03,
0.231,-0.16,0.16,0.98,-0.89,0.45,0.02,
0.231,-0.16,0.15,0.99,-0.89,0.45,0.02,
0.231,-0.16,0.15,0.98,-0.89,0.45,0.02,
0.231,-0.16,0.15,0.98,-0.89,0.47,-0.06,
0.232,-0.16,0.15,0.98,-0.89,0.47,-0.06,
0.235,-0.16,0.15,0.98,-0.88,0.42,-0.06,
0.236,-0.16,0.15,0.97,-0.88,0.42,-0.06,
0.237,-0.16,0.15,0.97,-0.88,0.42,-0.06,
0.25,-0.16,0.14,0.97,-0.88,0.42,-0.06,
0.25,-0.16,0.14,0.97,-0.87,0.39,-0.15,
0.251,-0.16,0.13,0.97,-0.87,0.39,-0.15,
0.251,-0.16,0.13,0.95,-0.87,0.39,-0.15,
0.251,-0.16,0.13,0.95,-0.86,0.30,-0.19,
0.251,-0.15,0.12,0.95,-0.86,0.30,-0.19,
0.252,-0.15,0.11,0.96,-0.86,0.30,-0.19,
0.252,-0.15,0.11,0.96,-0.85,0.17,-0.28,
0.252,-0.15,0.10,0.96,-0.85,0.17,-0.28,
0.254,-0.15,0.09,0.96,-0.85,0.17,-0.28,
0.255,-0.15,0.09,0.96,-0.79,0.01,-0.34,
0.263,-0.15,0.09,0.96,-0.79,0.01,-0.34,
0.263,-0.16,0.08,0.97,-0.79,0.01,-0.34,
0.264,-0.16,0.08,0.97,-0.78,-0.16,-0.28,
0.264,-0.16,0.08,0.98,-0.78,-0.16,-0.28,
0.264,-0.16,0.07,0.98,-0.78,-0.16,-0.28,
0.265,-0.16,0.07,0.98,-0.80,-0.26,-0.20,
0.267,-0.16,0.07,0.99,-0.80,-0.26,-0.20,
0.269,-0.17,0.06,1.00,-0.80,-0.26,-0.20,
0.27,-0.17,0.06,1.00,-0.87,-0.38,-0.09,
0.272,-0.17,0.06,1.01,-0.87,-0.38,-0.09,
0.281,-0.17,0.05,1.03,-0.87,-0.38,-0.09,
0.282,-0.17,0.05,1.03,-0.90,-0.45,0.09,
0.282,-0.17,0.05,1.03,-0.90,-0.45,0.09,
0.283,-0.17,0.05,1.04,-0.90,-0.45,0.09,
0.283,-0.17,0.05,1.04,-0.94,-0.52,0.30,
0.283,-0.17,0.05,1.04,-0.94,-0.52,0.30,
0.284,-0.17,0.04,1.05,-0.94,-0.52,0.30,
0.284,-0.17,0.04,1.05,-0.97,-0.60,0.45,
0.287,-0.17,0.04,1.05,-0.97,-0.60,0.45,
0.296,-0.17,0.05,1.06,-0.97,-0.60,0.45,
0.296,-0.17,0.05,1.06,-0.96,-0.64,0.55,
0.297,-0.17,0.04,1.07,-0.96,-0.64,0.55,
0.297,-0.17,0.05,1.07,-0.96,-0.64,0.55,
0.297,-0.17,0.05,1.07,-0.95,-0.64,0.64,
0.297,-0.17,0.05,1.07,-0.95,-0.64,0.64,
0.299,-0.16,0.05,1.08,-0.95,-0.64,0.64,
0.299,-0.16,0.05,1.08,-0.95,-0.61,0.76,
0.302,-0.17,0.06,1.07,-0.95,-0.61,0.76,
0.304,-0.16,0.06,1.07,-0.95,-0.61,0.76,
0.304,-0.16,0.06,1.07,-0.96,-0.59,0.80,
0.311,-0.16,0.06,1.07,-0.96,-0.59,0.80,
0.312,-0.16,0.06,1.06,-0.96,-0.59,0.80,
0.312,-0.16,0.06,1.06,-0.94,-0.52,0.73,
0.312,-0.16,0.07,1.07,-0.94,-0.52,0.73,
0.314,-0.16,0.07,1.06,-0.94,-0.52,0.73,
0.314,-0.16,0.07,1.06,-0.92,-0.51,0.71,
0.316,-0.17,0.07,1.05,-0.92,-0.51,0.71,
0.319,-0.17,0.07,1.05,-0.92,-0.51,0.71,
0.32,-0.17,0.07,1.05,-0.93,-0.44,0.68,
0.321,-0.16,0.08,1.05,-0.93,-0.44,0.68,
0.328,-0.16,0.08,1.04,-0.93,-0.44,0.68,
0.331,-0.16,0.08,1.04,-0.96,-0.39,0.56,
0.331,-0.15,0.08,1.04,-0.96,-0.39,0.56,
0.332,-0.15,0.08,1.03,-0.96,-0.39,0.56,
0.332,-0.15,0.08,1.03,-0.89,-0.38,0.48,
0.332,-0.14,0.09,1.02,-0.89,-0.38,0.48,
0.334,-0.14,0.08,1.01,-0.89,-0.38,0.48,
0.334,-0.14,0.08,1.01,-0.80,-0.35,0.36,
0.336,-0.14,0.08,1.00,-0.80,-0.35,0.36,
0.34,-0.14,0.08,1.00,-0.80,-0.35,0.36,
0.34,-0.14,0.08,1.00,-0.73,-0.34,0.17,
0.35,-0.14,0.08,1.00,-0.73,-0.34,0.17,
0.351,-0.14,0.08,0.98,-0.73,-0.34,0.17,
0.351,-0.14,0.08,0.98,-0.71,-0.35,0.07,
0.352,-0.14,0.08,0.98,-0.71,-0.35,0.07,
0.352,-0.14,0.09,0.97,-0.71,-0.35,0.07,
0.352,-0.14,0.09,0.97,-0.69,-0.36,-0.04,
0.352,-0.14,0.09,0.97,-0.69,-0.36,-0.04,
0.354,-0.15,0.09,0.96,-0.69,-0.36,-0.04,
0.355,-0.15,0.09,0.96,-0.68,-0.33,-0.17,
0.365,-0.15,0.09,0.97,-0.68,-0.33,-0.17,
0.366,-0.16,0.09,0.96,-0.68,-0.33,-0.17,
0.366,-0.16,0.09,0.96,-0.73,-0.32,-0.27,
0.367,-0.16,0.09,0.96,-0.73,-0.32,-0.27,
0.367,-0.17,0.09,0.96,-0.73,-0.32,-0.27,
0.367,-0.17,0.09,0.96,-0.79,-0.30,-0.27,
0.368,-0.17,0.09,0.97,-0.79,-0.30,-0.27,
0.369,-0.17,0.10,0.97,-0.79,-0.30,-0.27,
0.37,-0.17,0.10,0.97,-0.89,-0.29,-0.30,
0.372,-0.18,0.10,0.98,-0.89,-0.29,-0.30,
0.383,-0.18,0.10,0.99,-0.89,-0.29,-0.30,
0.384,-0.18,0.10,0.99,-0.96,-0.23,-0.23,
0.384,-0.18,0.11,0.99,-0.96,-0.23,-0.23,
0.384,-0.19,0.11,0.98,-0.96,-0.23,-0.23,
0.384,-0.19,0.11,0.98,-1.03,-0.19,-0.11,
0.384,-0.19,0.11,0.99,-1.03,-0.19,-0.11,
0.385,-0.19,0.11,0.99,-1.05,-0.16,-0.08,
0.385,-0.19,0.11,0.99,-1.05,-0.16,-0.08,
0.386,-0.19,0.11,0.99,-1.05,-0.16,-0.08,
0.389,-0.19,0.12,1.00,-1.05,-0.16,-0.08,
0.389,-0.19,0.12,1.00,-1.07,-0.12,-0.02,
0.396,-0.19,0.12,1.00,-1.07,-0.12,-0.02,
0.397,-0.18,0.12,1.00,-1.07,-0.12,-0.02,
0.397,-0.18,0.12,1.00,-1.08,-0.11,0.01,
0.397,-0.18,0.12,1.00,-1.08,-0.11,0.01,
0.4,-0.18,0.12,0.99,-1.08,-0.11,0.01,
0.4,-0.18,0.12,0.99,-1.05,-0.05,0.04,
0.403,-0.17,0.12,0.99,-1.05,-0.05,0.04,
0.403,-0.17,0.12,0.98,-1.05,-0.05,0.04,
0.404,-0.17,0.12,0.98,-1.00,-0.06,0.02,
0.407,-0.17,0.12,0.98,-1.00,-0.06,0.02,
0.415,-0.16,0.12,0.98,-1.00,-0.06,0.02,
0.415,-0.16,0.12,0.98,-0.89,-0.07,-0.09,
0.415,-0.16,0.12,0.97,-0.89,-0.07,-0.09,
0.416,-0.16,0.12,0.97,-0.89,-0.07,-0.09,
0.416,-0.16,0.12,0.97,-0.83,-0.11,-0.14,
0.416,-0.16,0.12,0.97,-0.83,-0.11,-0.14,
0.419,-0.15,0.12,0.97,-0.83,-0.11,-0.14,
0.419,-0.15,0.12,0.97,-0.77,-0.10,-0.23,
0.421,-0.14,0.12,0.96,-0.77,-0.10,-0.23,
0.424,-0.13,0.12,0.96,-0.77,-0.10,-0.23,
0.424,-0.13,0.12,0.96,-0.72,-0.12,-0.19,
0.431,-0.13,0.12,0.95,-0.72,-0.12,-0.19,
0.432,-0.12,0.12,0.95,-0.72,-0.12,-0.19,
0.432,-0.12,0.12,0.95,-0.57,-0.12,-0.28,
0.433,-0.12,0.12,0.95,-0.57,-0.12,-0.28,
0.433,-0.11,0.12,0.95,-0.57,-0.12,-0.28,
0.433,-0.11,0.12,0.95,-0.42,-0.14,-0.40,
0.436,-0.11,0.13,0.94,-0.42,-0.14,-0.40,
0.439,-0.11,0.13,0.95,-0.42,-0.14,-0.40,
0.439,-0.11,0.13,0.95,-0.33,-0.13,-0.38,
0.44,-0.11,0.13,0.94,-0.33,-0.13,-0.38,
0.446,-0.11,0.13,0.94,-0.33,-0.13,-0.38,
0.447,-0.11,0.13,0.94,-0.28,-0.04,-0.42,
0.447,-0.11,0.14,0.94,-0.28,-0.04,-0.42,
0.448,-0.11,0.14,0.94,-0.28,-0.04,-0.42,
0.449,-0.11,0.14,0.94,-0.26,-0.05,-0.48,
0.451,-0.10,0.14,0.94,-0.26,-0.05,-0.48,
0.453,-0.10,0.14,0.93,-0.26,-0.05,-0.48,
0.454,-0.10,0.14,0.93,-0.24,-0.04,-0.47,
0.456,-0.09,0.14,0.93,-0.24,-0.04,-0.47,
0.466,-0.09,0.14,0.93,-0.24,-0.04,-0.47,
0.467,-0.09,0.14,0.93,-0.14,-0.01,-0.52,
0.467,-0.09,0.13,0.93,-0.14,-0.01,-0.52,
0.468,-0.09,0.13,0.93,-0.14,-0.01,-0.52,
0.468,-0.09,0.13,0.93,-0.09,-0.05,-0.53,
0.468,-0.09,0.13,0.93,-0.09,-0.05,-0.53,
0.468,-0.09,0.13,0.93,-0.09,-0.05,-0.53,
0.468,-0.09,0.13,0.93,-0.07,-0.11,-0.56,
0.471,-0.09,0.13,0.92,-0.07,-0.11,-0.56,
0.473,-0.09,0.12,0.93,-0.07,-0.11,-0.56,
0.473,-0.09,0.12,0.93,-0.07,-0.15,-0.57,
0.481,-0.09,0.13,0.93,-0.07,-0.15,-0.57,
0.482,-0.09,0.13,0.93,-0.07,-0.15,-0.57,
0.482,-0.09,0.13,0.93,-0.05,-0.20,-0.58,
0.482,-0.09,0.12,0.92,-0.05,-0.20,-0.58,
0.482,-0.09,0.12,0.92,-0.05,-0.20,-0.58,
0.483,-0.09,0.12,0.92,-0.05,-0.20,-0.55,
0.486,-0.09,0.12,0.92,-0.05,-0.20,-0.55,
0.488,-0.08,0.11,0.92,-0.05,-0.20,-0.55,
0.488,-0.08,0.11,0.92,-0.00,-0.25,-0.60,
0.491,-0.08,0.11,0.93,-0.00,-0.25,-0.60,
0.499,-0.08,0.11,0.93,-0.00,-0.25,-0.60,
0.5,-0.08,0.11,0.93,0.03,-0.32,-0.59,
0.5,-0.07,0.11,0.93,0.03,-0.32,-0.59,
0.5,-0.07,0.10,0.93,0.03,-0.32,-0.59,
0.501,-0.07,0.10,0.93,0.09,-0.36,-0.51,
0.501,-0.07,0.10,0.95,0.09,-0.36,-0.51,
0.503,-0.07,0.10,0.95,0.09,-0.36,-0.51,
0.503,-0.07,0.10,0.95,0.15,-0.45,-0.48,
0.505,-0.07,0.09,0.95,0.15,-0.45,-0.48,
0.508,-0.06,0.10,0.95,0.15,-0.45,-0.48,
0.508,-0.06,0.10,0.95,0.18,-0.50,-0.33,
0.513,-0.06,0.10,0.96,0.18,-0.50,-0.33,
0.514,-0.06,0.10,0.96,0.18,-0.50,-0.33,
0.514,-0.06,0.10,0.96,0.23,-0.52,-0.32,
0.515,-0.05,0.10,0.96,0.23,-0.52,-0.32,
0.518,-0.06,0.10,0.95,0.23,-0.52,-0.32,
0.518,-0.06,0.10,0.95,0.26,-0.53,-0.22,
0.52,-0.05,0.10,0.96,0.26,-0.53,-0.22,
0.523,-0.04,0.11,0.97,0.26,-0.53,-0.22,
0.523,-0.04,0.11,0.97,0.33,-0.52,-0.23,
0.53,-0.04,0.11,0.97,0.33,-0.52,-0.23,
0.531,-0.03,0.11,0.96,0.33,-0.52,-0.23,
0.531,-0.03,0.11,0.96,0.41,-0.48,-0.17,
0.531,-0.03,0.11,0.97,0.41,-0.48,-0.17,
0.532,-0.03,0.11,0.98,0.41,-0.48,-0.17,
0.532,-0.03,0.11,0.98,0.52,-0.46,-0.13,
0.535,-0.02,0.12,0.98,0.52,-0.46,-0.13,
0.538,-0.02,0.12,0.98,0.52,-0.46,-0.13,
0.538,-0.02,0.12,0.98,0.58,-0.44,-0.07,
0.54,-0.02,0.12,0.98,0.58,-0.44,-0.07,
0.546,-0.02,0.12,0.99,0.58,-0.44,-0.07,
0.546,-0.02,0.12,0.99,0.59,-0.38,0.02,
0.547,-0.01,0.12,0.99,0.59,-0.38,0.02,
0.547,-0.02,0.12,0.98,0.59,-0.38,0.02,
0.547,-0.02,0.12,0.98,0.62,-0.37,0.08,
0.55,-0.02,0.12,0.98,0.62,-0.37,0.08,
0.552,-0.01,0.12,0.98,0.62,-0.37,0.08,
0.553,-0.01,0.12,0.98,0.65,-0.38,0.06,
0.554,-0.01,0.12,0.97,0.65,-0.38,0.06,
0.556,-0.01,0.12,0.97,0.65,-0.38,0.06,
0.558,-0.01,0.12,0.97,0.65,-0.38,0.03,
0.568,-0.01,0.12,0.97,0.65,-0.38,0.03,
0.569,-0.01,0.12,0.96,0.65,-0.38,0.03,
0.569,-0.01,0.12,0.96,0.71,-0.39,-0.09,
0.57,-0.01,0.11,0.96,0.71,-0.39,-0.09,
0.57,-0.01,0.11,0.95,0.71,-0.39,-0.09,
0.571,-0.01,0.11,0.95,0.70,-0.40,-0.10,
0.571,-0.01,0.11,0.94,0.70,-0.40,-0.10,
0.571,-0.01,0.10,0.94,0.70,-0.40,-0.10,
0.572,-0.01,0.10,0.94,0.73,-0.49,-0.20,
0.582,-0.01,0.10,0.94,0.73,-0.49,-0.20,
0.583,-0.01,0.10,0.93,0.73,-0.49,-0.20,
0.583,-0.01,0.10,0.93,0.72,-0.56,-0.35,
0.583,-0.01,0.10,0.92,0.72,-0.56,-0.35,
0.584,-0.02,0.09,0.91,0.72,-0.56,-0.35,
0.584,-0.02,0.09,0.91,0.69,-0.59,-0.40,
0.584,-0.02,0.09,0.91,0.69,-0.59,-0.40,
0.586,-0.02,0.09,0.91,0.69,-0.66,-0.60,
0.587,-0.02,0.10,0.90,0.69,-0.66,-0.60,
0.589,-0.02,0.10,0.89,0.69,-0.66,-0.60,
0.599,-0.03,0.09,0.89,0.69,-0.66,-0.60,
0.6,-0.03,0.09,0.89,0.63,-0.66,-0.69,
0.601,-0.03,0.10,0.89,0.63,-0.66,-0.69,
0.601,-0.04,0.10,0.89,0.63,-0.66,-0.69,
0.601,-0.04,0.10,0.89,0.58,-0.67,-0.79,
0.601,-0.04,0.10,0.88,0.58,-0.67,-0.79,
0.602,-0.04,0.10,0.89,0.58,-0.67,-0.79,
0.602,-0.04,0.10,0.89,0.50,-0.65,-0.80,
0.604,-0.04,0.10,0.88,0.50,-0.65,-0.80,
0.606,-0.04,0.11,0.88,0.50,-0.65,-0.80,
0.606,-0.04,0.11,0.88,0.46,-0.61,-0.86,
0.613,-0.04,0.11,0.87,0.46,-0.61,-0.86,
0.614,-0.04,0.11,0.87,0.46,-0.61,-0.86,
0.614,-0.04,0.11,0.87,0.46,-0.57,-0.86,
0.614,-0.03,0.11,0.87,0.46,-0.57,-0.86,
0.616,-0.03,0.10,0.86,0.46,-0.57,-0.86,
0.616,-0.03,0.10,0.86,0.51,-0.54,-0.96,
0.618,-0.02,0.10,0.86,0.51,-0.54,-0.96,
0.621,-0.02,0.10,0.86,0.51,-0.54,-0.96,
0.621,-0.02,0.10,0.86,0.60,-0.55,-1.02,
0.623,-0.01,0.09,0.86,0.60,-0.55,-1.02,
0.63,-0.00,0.09,0.86,0.60,-0.55,-1.02,
0.63,-0.00,0.09,0.86,0.70,-0.60,-1.09,
0.631,0.00,0.09,0.86,0.70,-0.60,-1.09,
0.631,0.01,0.09,0.87,0.70,-0.60,-1.09,
0.631,0.01,0.09,0.87,0.87,-0.67,-1.07,
0.633,0.02,0.08,0.87,0.87,-0.67,-1.07,
0.636,0.02,0.08,0.89,0.87,-0.67,-1.07,
0.636,0.02,0.08,0.89,0.96,-0.72,-0.99,
0.638,0.02,0.08,0.90,0.96,-0.72,-0.99,
0.641,0.02,0.07,0.92,0.96,-0.72,-0.99,
0.641,0.02,0.07,0.92,1.07,-0.76,-0.82,
0.646,0.02,0.08,0.93,1.07,-0.76,-0.82,
0.647,0.02,0.08,0.96,1.07,-0.76,-0.82,
0.647,0.02,0.08,0.96,1.13,-0.81,-0.55,
0.648,0.02,0.07,0.98,1.13,-0.81,-0.55,
0.65,0.02,0.08,1.00,1.13,-0.81,-0.55,
0.651,0.02,0.08,1.00,1.13,-0.78,-0.18,
0.653,0.02,0.08,1.03,1.13,-0.78,-0.18,
0.656,0.02,0.08,1.04,1.13,-0.78,-0.18,
0.656,0.02,0.08,1.04,1.11,-0.79,0.27,
0.665,0.02,0.08,1.06,1.11,-0.79,0.27,
0.665,0.02,0.07,1.08,1.11,-0.79,0.27,
0.665,0.02,0.07,1.08,1.08,-0.78,0.70,
0.665,0.02,0.07,1.09,1.08,-0.78,0.70,
0.666,0.02,0.07,1.10,1.08,-0.78,0.70,
0.666,0.02,0.07,1.10,1.06,-0.83,0.99,
0.669,0.03,0.07,1.11,1.06,-0.83,0.99,
0.671,0.03,0.07,1.11,1.02,-0.85,1.22,
0.671,0.03,0.07,1.11,1.02,-0.85,1.22,
0.673,0.03,0.06,1.11,1.02,-0.85,1.22,
0.683,0.04,0.07,1.12,1.02,-0.85,1.22,
0.683,0.04,0.07,1.12,1.09,-0.86,1.40,
0.683,0.04,0.07,1.12,1.09,-0.86,1.40,
0.684,0.04,0.08,1.11,1.09,-0.86,1.40,
0.684,0.04,0.08,1.11,1.13,-0.89,1.45,
0.684,0.04,0.08,1.10,1.13,-0.89,1.45,
0.686,0.04,0.09,1.09,1.13,-0.89,1.45,
0.687,0.04,0.09,1.09,1.17,-0.83,1.45,
0.688,0.05,0.09,1.08,1.17,-0.83,1.45,
0.691,0.05,0.09,1.07,1.17,-0.83,1.45,
0.691,0.05,0.09,1.07,1.16,-0.75,1.27,
0.699,0.04,0.10,1.05,1.16,-0.75,1.27,
0.699,0.04,0.10,1.04,1.16,-0.75,1.27,
0.699,0.04,0.10,1.04,1.20,-0.71,1.07,
0.699,0.04,0.10,1.04,1.20,-0.71,1.07,
0.701,0.03,0.11,1.03,1.20,-0.71,1.07,
0.701,0.03,0.11,1.03,1.14,-0.64,0.80,
0.703,0.03,0.11,1.01,1.14,-0.64,0.80,
0.706,0.03,0.11,1.00,1.14,-0.64,0.80,
0.706,0.03,0.11,1.00,1.09,-0.60,0.63,
0.708,0.03,0.11,0.98,1.09,-0.60,0.63,
0.717,0.03,0.11,0.97,1.09,-0.60,0.63,
0.717,0.03,0.11,0.97,1.05,-0.58,0.33,
0.717,0.03,0.11,0.95,1.05,-0.58,0.33,
0.718,0.03,0.10,0.94,1.05,-0.58,0.33,
0.718,0.03,0.10,0.94,1.01,-0.59,0.07,
0.718,0.03,0.10,0.93,1.01,-0.59,0.07,
0.721,0.03,0.10,0.93,1.03,-0.65,-0.17,
0.721,0.02,0.10,0.92,1.03,-0.65,-0.17,
0.723,0.02,0.10,0.91,1.03,-0.65,-0.17,
0.733,0.03,0.10,0.91,1.03,-0.65,-0.17,
0.733,0.03,0.10,0.91,1.02,-0.68,-0.38,
0.734,0.03,0.10,0.90,1.02,-0.68,-0.38,
0.734,0.03,0.10,0.90,1.02,-0.68,-0.38,
0.734,0.03,0.10,0.90,1.03,-0.70,-0.56,
0.734,0.03,0.10,0.89,1.03,-0.70,-0.56,
0.736,0.02,0.10,0.89,1.03,-0.70,-0.56,
0.736,0.02,0.10,0.89,1.05,-0.73,-0.64,
0.738,0.03,0.11,0.89,1.05,-0.73,-0.64,
0.74,0.03,0.11,0.89,1.05,-0.73,-0.64,
0.741,0.03,0.11,0.89,1.03,-0.69,-0.73,
0.75,0.03,0.11,0.89,1.03,-0.69,-0.73,
0.75,0.03,0.11,0.89,1.03,-0.69,-0.73,
0.751,0.03,0.11,0.89,1.07,-0.65,-0.76,
0.751,0.03,0.11,0.90,1.07,-0.65,-0.76,
0.751,0.03,0.11,0.90,1.08,-0.63,-0.71,
0.751,0.03,0.11,0.90,1.08,-0.63,-0.71,
0.753,0.03,0.11,0.90,1.08,-0.63,-0.71,
0.756,0.03,0.12,0.91,1.08,-0.63,-0.71,
0.756,0.03,0.12,0.91,1.11,-0.60,-0.63,
0.758,0.04,0.11,0.91,1.11,-0.60,-0.63,
0.764,0.04,0.11,0.91,1.11,-0.60,-0.63,
0.764,0.04,0.11,0.91,1.09,-0.60,-0.57,
0.765,0.04,0.11,0.92,1.09,-0.60,-0.57,
0.765,0.05,0.11,0.91,1.09,-0.60,-0.57,
0.765,0.05,0.11,0.91,1.15,-0.60,-0.54,
0.768,0.05,0.11,0.91,1.15,-0.60,-0.54,
0.77,0.06,0.11,0.91,1.15,-0.60,-0.54,
0.771,0.06,0.11,0.91,1.21,-0.60,-0.48,
0.773,0.06,0.12,0.92,1.21,-0.60,-0.48,
0.775,0.06,0.12,0.92,1.31,-0.61,-0.49,
0.775,0.06,0.12,0.93,1.31,-0.61,-0.49,
0.787,0.06,0.12,0.95,1.31,-0.61,-0.49,
0.787,0.06,0.12,0.95,1.31,-0.61,-0.49,
0.787,0.06,0.12,0.95,1.36,-0.55,-0.34,
0.788,0.06,0.12,0.96,1.36,-0.55,-0.34,
0.788,0.06,0.12,0.97,1.36,-0.55,-0.34,
0.788,0.06,0.12,0.97,1.33,-0.49,-0.12,
0.788,0.06,0.13,0.98,1.33,-0.49,-0.12,
0.789,0.07,0.12,0.98,1.33,-0.49,-0.12,
0.79,0.07,0.12,0.98,1.29,-0.49,-0.02,
0.801,0.07,0.12,0.98,1.29,-0.49,-0.02,
0.802,0.08,0.12,0.99,1.29,-0.49,-0.02,
0.802,0.08,0.12,0.99,1.32,-0.46,0.14,
0.802,0.08,0.12,0.99,1.32,-0.46,0.14,
0.803,0.08,0.12,0.99,1.32,-0.46,0.14,
0.803,0.08,0.12,0.99,1.36,-0.50,0.18,
0.803,0.09,0.12,0.98,1.36,-0.50,0.18,
0.804,0.09,0.11,0.99,1.36,-0.50,0.18,
0.805,0.09,0.11,0.99,1.42,-0.51,0.22,
0.807,0.09,0.11,0.99,1.42,-0.51,0.22,
0.817,0.10,0.11,0.98,1.42,-0.51,0.22,
0.818,0.10,0.11,0.98,1.48,-0.52,0.23,
0.818,0.10,0.12,0.99,1.48,-0.52,0.23,
0.818,0.10,0.13,0.98,1.48,-0.52,0.23,
0.818,0.10,0.13,0.98,1.53,-0.53,0.21,
0.819,0.11,0.13,0.98,1.53,-0.53,0.21,
0.819,0.10,0.13,0.97,1.53,-0.53,0.21,
0.822,0.10,0.13,0.97,1.56,-0.44,0.17,
0.822,0.10,0.14,0.97,1.56,-0.44,0.17,
0.824,0.11,0.14,0.96,1.56,-0.44,0.17,
0.824,0.11,0.14,0.96,1.60,-0.34,0.11,
0.832,0.12,0.15,0.96,1.60,-0.34,0.11,
0.833,0.12,0.15,0.96,1.60,-0.34,0.11,
0.833,0.12,0.15,0.96,1.63,-0.26,0.01,
0.833,0.12,0.15,0.95,1.63,-0.26,0.01,
0.834,0.12,0.15,0.94,1.63,-0.26,0.01,
0.835,0.12,0.15,0.94,1.70,-0.19,-0.09,
0.836,0.13,0.15,0.93,1.70,-0.19,-0.09,
0.839,0.13,0.15,0.93,1.70,-0.19,-0.09,
0.84,0.13,0.15,0.93,1.74,-0.17,-0.23,
0.841,0.13,0.15,0.93,1.74,-0.17,-0.23,
0.847,0.14,0.15,0.92,1.74,-0.17,-0.23,
0.848,0.14,0.15,0.92,1.79,-0.12,-0.34,
0.848,0.14,0.15,0.91,1.79,-0.12,-0.34,
0.848,0.14,0.15,0.91,1.79,-0.12,-0.34,
0.849,0.14,0.15,0.91,1.87,-0.16,-0.42,
0.851,0.14,0.15,0.90,1.87,-0.16,-0.42,
0.854,0.14,0.15,0.89,1.87,-0.16,-0.42,
0.854,0.14,0.15,0.89,1.89,-0.17,-0.59,
0.856,0.14,0.14,0.88,1.89,-0.17,-0.59,
0.858,0.14,0.15,0.88,1.89,-0.17,-0.59,
0.859,0.14,0.15,0.88,1.88,-0.16,-0.70,
0.865,0.14,0.15,0.88,1.88,-0.16,-0.70,
0.866,0.14,0.15,0.87,1.88,-0.16,-0.70,
0.866,0.14,0.15,0.87,1.87,-0.19,-0.83,
0.867,0.13,0.14,0.87,1.87,-0.19,-0.83,
0.868,0.13,0.14,0.88,1.87,-0.19,-0.83,
0.869,0.13,0.14,0.88,1.83,-0.18,-0.88,
0.871,0.13,0.14,0.88,1.83,-0.18,-0.88,
0.873,0.13,0.15,0.88,1.83,-0.18,-0.88,
0.873,0.13,0.15,0.88,1.76,-0.22,-0.86,
0.881,0.13,0.15,0.89,1.76,-0.22,-0.86,
0.882,0.13,0.15,0.89,1.76,-0.22,-0.86,
0.882,0.13,0.15,0.89,1.72,-0.17,-0.84,
0.882,0.12,0.15,0.89,1.72,-0.17,-0.84,
0.883,0.12,0.16,0.90,1.72,-0.17,-0.84,
0.884,0.12,0.16,0.90,1.69,-0.11,-0.77,
0.886,0.12,0.16,0.91,1.69,-0.11,-0.77,
0.888,0.12,0.17,0.91,1.69,-0.11,-0.77,
0.889,0.12,0.17,0.91,1.64,-0.06,-0.71,
0.891,0.12,0.17,0.91,1.64,-0.06,-0.71,
0.905,0.12,0.18,0.92,1.64,-0.06,-0.71,
0.906,0.12,0.18,0.92,1.56,0.03,-0.55,
0.906,0.12,0.18,0.93,1.56,0.03,-0.55,
0.906,0.12,0.19,0.93,1.56,0.03,-0.55,
0.907,0.12,0.19,0.93,1.55,0.13,-0.49,
0.907,0.13,0.19,0.93,1.55,0.13,-0.49,
0.907,0.13,0.19,0.94,1.55,0.13,-0.49,
0.907,0.13,0.19,0.94,1.55,0.24,-0.36,
0.908,0.13,0.20,0.94,1.55,0.24,-0.36,
0.919,0.13,0.20,0.95,1.55,0.24,-0.36,
0.92,0.13,0.20,0.95,1.59,0.33,-0.31,
0.92,0.14,0.20,0.94,1.59,0.33,-0.31,
0.921,0.14,0.20,0.94,1.59,0.33,-0.31,
0.921,0.14,0.20,0.94,1.61,0.39,-0.19,
0.921,0.14,0.19,0.95,1.61,0.39,-0.19,
0.921,0.14,0.19,0.94,1.61,0.39,-0.19,
0.921,0.14,0.19,0.94,1.65,0.42,-0.24,
0.922,0.14,0.20,0.93,1.65,0.42,-0.24,
0.923,0.15,0.20,0.93,1.65,0.42,-0.24,
0.923,0.15,0.20,0.93,1.65,0.39,-0.19,
0.925,0.14,0.19,0.93,1.65,0.39,-0.19,
0.936,0.15,0.19,0.93,1.65,0.39,-0.19,
0.936,0.15,0.19,0.93,1.69,0.44,-0.33,
0.937,0.15,0.19,0.93,1.69,0.44,-0.33,
0.937,0.15,0.18,0.92,1.69,0.44,-0.33,
0.937,0.15,0.18,0.92,1.68,0.36,-0.35,
0.938,0.15,0.18,0.92,1.68,0.36,-0.35,
0.938,0.14,0.18,0.91,1.68,0.36,-0.35,
0.938,0.14,0.18,0.91,1.68,0.34,-0.42,
0.94,0.14,0.18,0.91,1.68,0.34,-0.42,
0.943,0.14,0.18,0.91,1.68,0.34,-0.42,
0.949,0.14,0.18,0.91,1.65,0.32,-0.50,
0.95,0.14,0.17,0.91,1.65,0.32,-0.50,
0.95,0.13,0.17,0.90,1.65,0.32,-0.50,
0.951,0.13,0.17,0.90,1.61,0.31,-0.55,
0.951,0.13,0.16,0.90,1.61,0.31,-0.55,
0.953,0.13,0.15,0.90,1.61,0.31,-0.55,
0.953,0.13,0.15,0.90,1.56,0.25,-0.62,
0.955,0.13,0.15,0.90,1.56,0.25,-0.62,
0.958,0.13,0.15,0.89,1.56,0.25,-0.62,
0.959,0.13,0.15,0.89,1.54,0.17,-0.69,
0.966,0.13,0.14,0.88,1.54,0.17,-0.69,
0.967,0.12,0.14,0.90,1.54,0.17,-0.69,
0.967,0.12,0.14,0.90,1.48,0.09,-0.73,
0.967,0.12,0.13,0.89,1.48,0.09,-0.73,
0.968,0.11,0.13,0.89,1.48,0.09,-0.73,
0.968,0.11,0.13,0.89,1.45,0.04,-0.77,
0.97,0.11,0.13,0.89,1.45,0.04,-0.77,
0.973,0.10,0.12,0.90,1.45,0.04,-0.77,
0.973,0.10,0.12,0.90,1.35,-0.00,-0.76,
0.975,0.10,0.12,0.90,1.35,-0.00,-0.76,
0.981,0.10,0.12,0.90,1.35,-0.00,-0.76,
0.982,0.10,0.12,0.90,1.26,-0.04,-0.70,
0.982,0.09,0.12,0.92,1.26,-0.04,-0.70,
0.982,0.09,0.12,0.93,1.26,-0.04,-0.70,
0.983,0.09,0.12,0.93,1.18,-0.09,-0.65,
0.985,0.08,0.12,0.94,1.18,-0.09,-0.65,
0.987,0.08,0.12,0.95,1.18,-0.09,-0.65,
0.988,0.08,0.12,0.95,1.07,-0.05,-0.47,
0.99,0.08,0.12,0.95,1.07,-0.05,-0.47,
0.992,0.08,0.12,0.96,1.07,-0.05,-0.47,
0.992,0.08,0.12,0.96,1.02,-0.01,-0.24,
1.008,0.08,0.12,0.96,1.02,-0.01,-0.24,
1.009,0.08,0.12,0.97,1.02,-0.01,-0.24,
1.009,0.08,0.12,0.97,0.95,-0.02,-0.15,
1.01,0.09,0.11,0.98,0.95,-0.02,-0.15,
1.01,0.09,0.11,0.97,0.95,-0.02,-0.15,
1.01,0.09,0.11,0.97,0.93,0.03,-0.04,
1.01,0.09,0.11,0.99,0.93,0.03,-0.04,
1.01,0.10,0.12,0.99,0.93,0.03,-0.04,
1.01,0.10,0.12,0.99,1.01,-0.00,0.05,
1.011,0.11,0.12,0.99,1.01,-0.00,0.05,
1.017,0.12,0.12,0.99,1.01,-0.00,0.05,
1.017,0.12,0.12,0.99,1.10,0.03,0.16,
1.018,0.12,0.13,0.99,1.10,0.03,0.16,
1.018,0.12,0.13,0.99,1.10,0.03,0.16,
1.018,0.12,0.13,0.99,1.23,0.11,0.17,
1.02,0.13,0.13,1.00,1.23,0.11,0.17,
1.023,0.14,0.13,0.99,1.23,0.11,0.17,
1.023,0.14,0.13,0.99,1.30,0.19,0.20,
1.025,0.14,0.14,0.99,1.30,0.19,0.20,
1.027,0.14,0.14,0.99,1.30,0.19,0.20,
1.027,0.14,0.14,0.99,1.37,0.26,0.24,
1.035,0.15,0.14,0.99,1.37,0.26,0.24,
1.035,0.15,0.14,0.98,1.37,0.26,0.24,
1.036,0.15,0.14,0.98,1.42,0.32,0.19,
1.036,0.16,0.15,0.98,1.42,0.32,0.19,
1.037,0.16,0.15,0.98,1.42,0.32,0.19,
1.038,0.16,0.15,0.98,1.52,0.40,0.12,
1.04,0.16,0.15,0.98,1.52,0.40,0.12,
1.043,0.17,0.16,0.98,1.52,0.40,0.12,
1.043,0.17,0.16,0.98,1.56,0.48,0.09,
1.05,0.17,0.16,0.98,1.56,0.48,0.09,
1.051,0.17,0.16,0.99,1.56,0.48,0.09,
1.051,0.17,0.16,0.99,1.64,0.56,0.07,
1.051,0.17,0.17,0.98,1.64,0.56,0.07,
1.052,0.17,0.17,0.98,1.64,0.56,0.07,
1.052,0.17,0.17,0.98,1.68,0.62,0.11,
1.055,0.17,0.18,0.99,1.68,0.62,0.11,
1.057,0.18,0.17,0.98,1.68,0.62,0.11,
1.058,0.18,0.17,0.98,1.65,0.75,0.08,
1.06,0.19,0.17,0.98,1.65,0.75,0.08,
1.066,0.19,0.18,0.99,1.65,0.75,0.08,
1.066,0.19,0.18,0.99,1.69,0.78,0.11,
1.066,0.20,0.17,0.99,1.69,0.78,0.11,
1.066,0.20,0.17,0.99,1.69,0.78,0.11,
1.067,0.20,0.17,0.99,1.83,0.81,0.12,
1.07,0.21,0.18,0.99,1.83,0.81,0.12,
1.072,0.21,0.18,0.99,1.83,0.81,0.12,
1.072,0.21,0.18,0.99,1.89,0.82,0.15,
1.075,0.21,0.17,1.00,1.89,0.82,0.15,
1.077,0.21,0.17,1.00,1.89,0.82,0.15,
1.077,0.21,0.17,1.00,1.94,0.87,0.18,
1.082,0.22,0.17,1.01,1.94,0.87,0.18,
1.083,0.22,0.18,1.01,1.94,0.87,0.18,
1.083,0.22,0.18,1.01,1.97,0.85,0.26,
1.085,0.22,0.17,1.02,1.97,0.85,0.26,
1.087,0.23,0.17,1.02,1.97,0.85,0.26,
1.087,0.23,0.17,1.02,2.01,0.86,0.37,
1.089,0.23,0.16,1.02,2.01,0.86,0.37,
1.092,0.23,0.16,1.03,2.01,0.86,0.37,
1.092,0.23,0.16,1.03,2.04,0.84,0.47,
1.094,0.23,0.16,1.04,2.04,0.84,0.47,
1.099,0.24,0.16,1.04,2.04,0.84,0.47,
1.1,0.24,0.16,1.04,2.08,0.79,0.52,
1.1,0.24,0.16,1.04,2.08,0.79,0.52,
1.102,0.23,0.15,1.05,2.08,0.79,0.52,
1.102,0.23,0.15,1.05,2.08,0.78,0.62,
1.105,0.22,0.15,1.05,2.08,0.78,0.62,
1.107,0.22,0.15,1.05,2.08,0.78,0.62,
1.107,0.22,0.15,1.05,2.03,0.74,0.69,
1.109,0.22,0.15,1.05,2.03,0.74,0.69,
1.123,0.21,0.15,1.06,2.03,0.74,0.69,
1.124,0.21,0.15,1.06,1.88,0.71,0.76,
1.125,0.21,0.15,1.06,1.88,0.71,0.76,
1.125,0.20,0.15,1.06,1.88,0.71,0.76,
1.125,0.20,0.15,1.06,1.82,0.74,0.79,
1.125,0.20,0.16,1.06,1.82,0.74,0.79,
1.125,0.20,0.16,1.07,1.82,0.74,0.79,
1.126,0.20,0.16,1.07,1.72,0.76,0.82,
1.126,0.20,0.16,1.07,1.72,0.76,0.82,
1.126,0.20,0.15,1.07,1.72,0.76,0.82,
1.126,0.20,0.15,1.07,1.67,0.83,0.86,
1.134,0.20,0.15,1.08,1.67,0.83,0.86,
1.135,0.20,0.16,1.07,1.67,0.83,0.86,
1.135,0.20,0.16,1.07,1.65,0.81,0.94,
1.135,0.21,0.16,1.08,1.65,0.81,0.94,
1.136,0.21,0.15,1.08,1.65,0.81,0.94,
1.136,0.21,0.15,1.08,1.68,0.84,0.96,
1.138,0.21,0.15,1.09,1.68,0.84,0.96,
1.141,0.21,0.15,1.09,1.68,0.84,0.96,
1.141,0.21,0.15,1.09,1.73,0.84,1.01,
1.143,0.22,0.15,1.09,1.73,0.84,1.01,
1.153,0.22,0.15,1.10,1.73,0.84,1.01,
1.153,0.22,0.15,1.10,1.73,0.83,1.11,
1.154,0.22,0.15,1.10,1.73,0.83,1.11,
1.156,0.22,0.14,1.10,1.73,0.83,1.11,
1.157,0.22,0.14,1.10,1.78,0.81,1.15,
1.157,0.22,0.13,1.10,1.78,0.81,1.15,
1.157,0.22,0.13,1.11,1.78,0.81,1.15,
1.157,0.22,0.13,1.11,1.80,0.75,1.21,
1.158,0.23,0.12,1.10,1.80,0.75,1.21,
1.167,0.23,0.11,1.10,1.80,0.75,1.21,
1.168,0.23,0.11,1.10,1.83,0.65,1.22,
1.168,0.24,0.11,1.10,1.83,0.65,1.22,
1.168,0.24,0.10,1.10,1.83,0.65,1.22,
1.169,0.24,0.10,1.10,1.88,0.47,1.22,
1.169,0.24,0.09,1.09,1.88,0.47,1.22,
1.17,0.25,0.08,1.09,1.88,0.47,1.22,
1.171,0.25,0.08,1.09,1.94,0.37,1.19,
1.173,0.25,0.08,1.09,1.94,0.37,1.19,
1.175,0.25,0.08,1.08,1.94,0.37,1.19,
1.176,0.25,0.08,1.08,1.97,0.25,1.13,
1.182,0.25,0.07,1.08,1.97,0.25,1.13,
1.183,0.24,0.07,1.07,1.97,0.25,1.13,
1.183,0.24,0.07,1.07,2.00,0.16,1.04,
1.183,0.24,0.07,1.07,2.00,0.16,1.04,
1.185,0.24,0.06,1.07,2.00,0.16,1.04,
1.185,0.24,0.06,1.07,1.99,0.10,0.95,
1.188,0.23,0.06,1.06,1.99,0.10,0.95,
1.191,0.23,0.07,1.06,1.99,0.10,0.95,
1.191,0.23,0.07,1.06,1.91,0.03,0.88,
1.193,0.22,0.07,1.05,1.91,0.03,0.88,
1.2,0.21,0.07,1.05,1.91,0.03,0.88,
1.201,0.21,0.07,1.05,1.80,0.03,0.78,
1.201,0.20,0.07,1.04,1.80,0.03,0.78,
1.201,0.20,0.07,1.04,1.80,0.03,0.78,
1.201,0.20,0.07,1.04,1.66,0.06,0.70,
1.203,0.19,0.08,1.04,1.66,0.06,0.70,
1.205,0.19,0.09,1.04,1.66,0.06,0.70,
1.205,0.19,0.09,1.04,1.50,0.09,0.57,
1.207,0.19,0.09,1.04,1.50,0.09,0.57,
1.21,0.18,0.10,1.04,1.50,0.09,0.57,
1.21,0.18,0.10,1.04,1.40,0.19,0.56,
1.222,0.18,0.10,1.04,1.40,0.19,0.56,
1.223,0.18,0.10,1.04,1.40,0.19,0.56,
1.223,0.18,0.10,1.04,1.36,0.29,0.55,
1.223,0.18,0.11,1.04,1.36,0.29,0.55,
1.223,0.18,0.10,1.04,1.36,0.29,0.55,
1.224,0.18,0.10,1.04,1.35,0.35,0.56,
1.224,0.18,0.11,1.04,1.35,0.35,0.56,
1.225,0.19,0.11,1.05,1.35,0.35,0.56,
1.225,0.19,0.11,1.05,1.34,0.41,0.58,
1.235,0.19,0.11,1.05,1.34,0.41,0.58,
1.236,0.19,0.11,1.05,1.34,0.41,0.58,
1.236,0.19,0.11,1.05,1.38,0.45,0.61,
1.237,0.20,0.11,1.06,1.38,0.45,0.61,
1.237,0.20,0.10,1.06,1.38,0.45,0.61,
1.237,0.20,0.10,1.06,1.44,0.45,0.65,
1.237,0.20,0.10,1.06,1.44,0.45,0.65,
1.24,0.20,0.10,1.06,1.44,0.45,0.65,
1.24,0.20,0.10,1.06,1.48,0.44,0.74,
1.242,0.20,0.09,1.06,1.48,0.44,0.74,
1.253,0.21,0.09,1.07,1.48,0.44,0.74,
1.254,0.21,0.09,1.07,1.51,0.39,0.75,
1.254,0.21,0.08,1.07,1.51,0.39,0.75,
1.255,0.21,0.08,1.07,1.51,0.39,0.75,
1.255,0.21,0.08,1.07,1.52,0.31,0.82,
1.255,0.21,0.07,1.07,1.52,0.31,0.82,
1.255,0.21,0.06,1.08,1.52,0.31,0.82,
1.256,0.21,0.06,1.08,1.57,0.20,0.88,
1.258,0.21,0.05,1.07,1.57,0.20,0.88,
1.259,0.21,0.04,1.07,1.57,0.20,0.88,
1.26,0.21,0.04,1.07,1.59,0.04,0.92,
1.267,0.22,0.03,1.07,1.59,0.04,0.92,
1.267,0.22,0.02,1.07,1.59,0.04,0.92,
1.268,0.22,0.02,1.07,1.61,-0.13,0.86,
1.268,0.21,0.01,1.07,1.61,-0.13,0.86,
1.269,0.20,0.01,1.07,1.61,-0.13,0.86,
1.27,0.20,0.01,1.07,1.64,-0.31,0.86,
1.272,0.20,-0.00,1.07,1.64,-0.31,0.86,
1.274,0.19,-0.01,1.07,1.64,-0.31,0.86,
1.275,0.19,-0.01,1.07,1.51,-0.45,0.88,
1.277,0.18,-0.02,1.07,1.51,-0.45,0.88,
1.284,0.17,-0.02,1.06,1.51,-0.45,0.88,
1.285,0.17,-0.02,1.06,1.43,-0.60,0.84,
1.285,0.16,-0.02,1.07,1.43,-0.60,0.84,
1.286,0.15,-0.03,1.07,1.43,-0.60,0.84,
1.286,0.15,-0.03,1.07,1.24,-0.68,0.79,
1.287,0.15,-0.03,1.06,1.24,-0.68,0.79,
1.289,0.14,-0.03,1.06,1.24,-0.68,0.79,
1.289,0.14,-0.03,1.06,1.07,-0.74,0.83,
1.292,0.12,-0.02,1.06,1.07,-0.74,0.83,
1.301,0.11,-0.02,1.06,1.07,-0.74,0.83,
1.302,0.11,-0.02,1.06,0.93,-0.76,0.74,
1.302,0.10,-0.02,1.05,0.93,-0.76,0.74,
1.302,0.09,-0.01,1.06,0.93,-0.76,0.74,
1.302,0.09,-0.01,1.06,0.69,-0.73,0.75,
1.303,0.09,-0.01,1.05,0.69,-0.73,0.75,
1.304,0.08,-0.00,1.05,0.69,-0.73,0.75,
1.305,0.08,-0.00,1.05,0.52,-0.64,0.71,
1.307,0.08,0.01,1.05,0.52,-0.64,0.71,
1.309,0.08,0.02,1.05,0.52,-0.64,0.71,
1.309,0.08,0.02,1.05,0.41,-0.53,0.67,
1.317,0.07,0.02,1.05,0.41,-0.53,0.67,
1.318,0.07,0.03,1.05,0.41,-0.53,0.67,
1.32,0.07,0.03,1.05,0.35,-0.36,0.61,
1.32,0.08,0.04,1.05,0.35,-0.36,0.61,
1.321,0.09,0.04,1.05,0.35,-0.36,0.61,
1.321,0.09,0.04,1.05,0.32,-0.27,0.67,
1.322,0.09,0.05,1.05,0.32,-0.27,0.67,
1.324,0.10,0.05,1.06,0.32,-0.27,0.67,
1.325,0.10,0.05,1.06,0.44,-0.12,0.64,
1.327,0.11,0.05,1.05,0.44,-0.12,0.64,
1.339,0.11,0.05,1.05,0.44,-0.12,0.64,
1.34,0.11,0.05,1.05,0.55,-0.03,0.66,
1.34,0.11,0.06,1.05,0.55,-0.03,0.66,
1.34,0.11,0.06,1.05,0.55,-0.03,0.66,
1.34,0.11,0.06,1.05,0.69,-0.01,0.62,
1.341,0.12,0.06,1.05,0.69,-0.01,0.62,
1.341,0.12,0.06,1.05,0.69,-0.01,0.62,
1.341,0.12,0.06,1.05,0.71,0.09,0.63,
1.341,0.13,0.06,1.03,0.71,0.09,0.63,
1.345,0.13,0.06,1.03,0.71,0.09,0.63,
1.345,0.13,0.06,1.03,0.81,0.10,0.61,
1.352,0.13,0.06,1.03,0.81,0.10,0.61,
1.353,0.13,0.06,1.02,0.81,0.10,0.61,
1.353,0.13,0.06,1.02,0.85,0.07,0.45,
1.353,0.13,0.06,1.01,0.85,0.07,0.45,
1.354,0.13,0.06,1.01,0.85,0.07,0.45,
1.354,0.13,0.06,1.01,0.87,0.08,0.38,
1.356,0.12,0.07,1.01,0.87,0.08,0.38,
1.359,0.12,0.06,1.01,0.87,0.08,0.38,
1.359,0.12,0.06,1.01,0.88,0.10,0.23,
1.361,0.12,0.06,1.00,0.88,0.10,0.23,
1.368,0.11,0.07,1.00,0.88,0.10,0.23,
1.369,0.11,0.07,1.00,0.80,0.09,0.23,
1.369,0.11,0.06,0.99,0.80,0.09,0.23,
1.369,0.10,0.06,0.99,0.80,0.09,0.23,
1.369,0.10,0.06,0.99,0.75,0.12,0.14,
1.371,0.10,0.05,0.99,0.75,0.12,0.14,
1.374,0.09,0.05,0.99,0.75,0.12,0.14,
1.374,0.09,0.05,0.99,0.66,0.10,0.07,
1.376,0.09,0.05,0.99,0.66,0.10,0.07,
1.384,0.09,0.05,0.99,0.66,0.10,0.07,
1.385,0.09,0.05,0.99,0.59,0.01,0.06,
1.385,0.10,0.04,0.99,0.59,0.01,0.06,
1.385,0.09,0.04,0.99,0.59,0.01,0.06,
1.385,0.09,0.04,0.99,0.59,0.00,0.05,
1.386,0.09,0.03,1.00,0.59,0.00,0.05,
1.389,0.10,0.03,1.00,0.59,0.00,0.05,
1.389,0.10,0.03,1.00,0.61,-0.09,0.04,
1.391,0.09,0.02,1.00,0.61,-0.09,0.04,
1.394,0.09,0.02,1.00,0.61,-0.09,0.04,
1.394,0.09,0.02,1.00,0.61,-0.15,0.13,
1.396,0.09,0.02,1.01,0.61,-0.15,0.13,
1.401,0.09,0.01,1.02,0.61,-0.15,0.13,
1.402,0.09,0.01,1.02,0.60,-0.22,0.15,
1.402,0.09,0.01,1.02,0.60,-0.22,0.15,
1.404,0.08,0.00,1.02,0.60,-0.22,0.15,
1.404,0.08,0.00,1.02,0.56,-0.28,0.27,
1.406,0.08,-0.00,1.03,0.56,-0.28,0.27,
1.409,0.08,-0.00,1.03,0.56,-0.28,0.27,
1.409,0.08,-0.00,1.03,0.51,-0.38,0.34,
1.411,0.08,-0.01,1.04,0.51,-0.38,0.34,
1.418,0.08,-0.01,1.04,0.51,-0.38,0.34,
1.419,0.08,-0.01,1.04,0.48,-0.44,0.45,
1.419,0.07,-0.02,1.04,0.48,-0.44,0.45,
1.419,0.07,-0.02,1.04,0.48,-0.44,0.45,
1.419,0.07,-0.02,1.04,0.44,-0.53,0.50,
1.421,0.07,-0.02,1.04,0.44,-0.53,0.50,
1.424,0.07,-0.03,1.04,0.44,-0.53,0.50,
1.424,0.07,-0.03,1.04,0.34,-0.61,0.53,
1.426,0.06,-0.03,1.04,0.34,-0.61,0.53,
1.429,0.06,-0.03,1.04,0.34,-0.61,0.53,
1.429,0.06,-0.03,1.04,0.34,-0.67,0.54,
1.439,0.06,-0.03,1.04,0.34,-0.67,0.54,
1.44,0.06,-0.04,1.04,0.34,-0.67,0.54,
1.44,0.06,-0.04,1.04,0.26,-0.77,0.52,
1.44,0.06,-0.04,1.03,0.26,-0.77,0.52,
1.441,0.06,-0.03,1.03,0.26,-0.77,0.52,
1.441,0.06,-0.03,1.03,0.23,-0.80,0.52,
1.441,0.06,-0.04,1.02,0.23,-0.80,0.52,
1.443,0.06,-0.04,1.02,0.23,-0.80,0.52,
1.444,0.06,-0.04,1.02,0.21,-0.82,0.42,
1.454,0.06,-0.03,1.02,0.21,-0.82,0.42,
1.454,0.06,-0.03,1.01,0.21,-0.82,0.42,
1.455,0.06,-0.03,1.01,0.20,-0.84,0.33,
1.455,0.06,-0.03,1.00,0.20,-0.84,0.33,
1.455,0.06,-0.03,1.00,0.19,-0.82,0.24,
1.455,0.06,-0.03,0.99,0.19,-0.82,0.24,
1.455,0.06,-0.03,0.98,0.19,-0.82,0.24,
1.458,0.06,-0.02,0.97,0.19,-0.82,0.24,
1.458,0.06,-0.02,0.97,0.20,-0.82,0.08,
1.461,0.06,-0.02,0.96,0.20,-0.82,0.08,
1.47,0.06,-0.02,0.95,0.20,-0.82,0.08,
1.471,0.06,-0.02,0.95,0.21,-0.78,-0.09,
1.471,0.06,-0.01,0.95,0.21,-0.78,-0.09,
1.471,0.06,-0.01,0.94,0.21,-0.78,-0.09,
1.471,0.06,-0.01,0.94,0.23,-0.72,-0.29,
1.472,0.06,-0.01,0.93,0.23,-0.72,-0.29,
1.473,0.06,0.01,0.92,0.23,-0.72,-0.29,
1.474,0.06,0.01,0.92,0.19,-0.64,-0.43,
1.475,0.06,0.02,0.92,0.19,-0.64,-0.43,
1.477,0.06,0.02,0.91,0.19,-0.64,-0.43,
1.478,0.06,0.02,0.91,0.21,-0.55,-0.60,
1.481,0.06,0.03,0.90,0.21,-0.55,-0.60,
1.487,0.06,0.03,0.90,0.21,-0.55,-0.60,
1.488,0.06,0.03,0.90,0.27,-0.37,-0.73,
1.488,0.06,0.04,0.89,0.27,-0.37,-0.73,
1.488,0.06,0.05,0.90,0.27,-0.37,-0.73,
1.489,0.06,0.05,0.90,0.26,-0.24,-0.86,
1.49,0.06,0.05,0.89,0.26,-0.24,-0.86,
1.492,0.05,0.06,0.90,0.26,-0.24,-0.86,
1.492,0.05,0.06,0.90,0.25,-0.12,-0.91,
1.495,0.05,0.06,0.90,0.25,-0.12,-0.91,
1.501,0.05,0.07,0.90,0.25,-0.12,-0.91,
1.502,0.05,0.07,0.90,0.21,0.01,-0.89,
1.502,0.05,0.07,0.91,0.21,0.01,-0.89,
1.502,0.05,0.07,0.91,0.21,0.01,-0.89,
1.503,0.05,0.07,0.91,0.16,0.08,-0.82,
1.504,0.05,0.07,0.92,0.16,0.08,-0.82,
1.507,0.05,0.07,0.93,0.16,0.08,-0.82,
1.507,0.05,0.07,0.93,0.16,0.12,-0.74,
1.509,0.06,0.06,0.94,0.16,0.12,-0.74,
1.512,0.05,0.06,0.95,0.16,0.12,-0.74,
1.512,0.05,0.06,0.95,0.14,0.14,-0.61,
1.518,0.06,0.05,0.96,0.14,0.14,-0.61,
1.519,0.07,0.05,0.97,0.14,0.14,-0.61,
1.519,0.07,0.05,0.97,0.19,0.06,-0.40,
1.52,0.07,0.04,0.99,0.19,0.06,-0.40,
1.522,0.07,0.04,1.00,0.19,0.06,-0.40,
1.522,0.07,0.04,1.00,0.23,-0.01,-0.18,
1.524,0.07,0.04,1.01,0.23,-0.01,-0.18,
1.527,0.08,0.04,1.03,0.23,-0.01,-0.18,
1.527,0.08,0.04,1.03,0.28,-0.09,0.08,
1.542,0.08,0.04,1.04,0.28,-0.09,0.08,
1.542,0.08,0.03,1.06,0.28,-0.09,0.08,
1.543,0.08,0.03,1.06,0.31,-0.12,0.34,
1.543,0.08,0.03,1.06,0.31,-0.12,0.34,
1.543,0.08,0.03,1.07,0.31,-0.12,0.34,
1.543,0.08,0.03,1.07,0.31,-0.19,0.63,
1.543,0.08,0.02,1.08,0.31,-0.19,0.63,
1.544,0.08,0.01,1.08,0.31,-0.19,0.63,
1.544,0.08,0.01,1.08,0.30,-0.21,0.78,
1.544,0.07,0.01,1.08,0.30,-0.21,0.78,
1.554,0.07,-0.00,1.09,0.30,-0.21,0.78,
1.555,0.07,-0.00,1.09,0.28,-0.35,0.91,
1.555,0.07,-0.01,1.09,0.28,-0.35,0.91,
1.556,0.07,-0.02,1.08,0.28,-0.35,0.91,
1.556,0.07,-0.02,1.08,0.19,-0.45,0.97,
1.556,0.07,-0.02,1.09,0.19,-0.45,0.97,
1.556,0.06,-0.03,1.08,0.19,-0.45,0.97,
1.557,0.06,-0.03,1.08,0.17,-0.59,0.98,
1.559,0.05,-0.03,1.07,0.17,-0.59,0.98,
1.561,0.04,-0.03,1.06,0.17,-0.59,0.98,
1.562,0.04,-0.03,1.06,0.10,-0.68,0.95,
1.573,0.03,-0.04,1.06,0.10,-0.68,0.95,
1.573,0.02,-0.04,1.05,0.10,-0.68,0.95,
1.574,0.02,-0.04,1.05,-0.04,-0.78,0.77,
1.574,0.02,-0.04,1.04,-0.04,-0.78,0.77,
1.574,0.01,-0.04,1.03,-0.04,-0.78,0.77,
1.574,0.01,-0.04,1.03,-0.21,-0.84,0.64,
1.575,0.00,-0.04,1.02,-0.21,-0.84,0.64,
1.576,-0.01,-0.04,1.00,-0.21,-0.84,0.64,
1.576,-0.01,-0.04,1.00,-0.34,-0.85,0.48,
1.579,-0.01,-0.04,1.00,-0.34,-0.85,0.48,
1.587,-0.02,-0.03,0.99,-0.34,-0.85,0.48,
1.587,-0.02,-0.03,0.99,-0.49,-0.87,0.25,
1.588,-0.03,-0.03,0.98,-0.49,-0.87,0.25,
1.588,-0.03,-0.03,0.97,-0.49,-0.87,0.25,
1.588,-0.03,-0.03,0.97,-0.62,-0.85,0.08,
1.589,-0.03,-0.02,0.97,-0.62,-0.85,0.08,
1.592,-0.04,-0.02,0.96,-0.62,-0.85,0.08,
1.592,-0.04,-0.02,0.96,-0.71,-0.79,-0.08,
1.594,-0.05,-0.02,0.96,-0.71,-0.79,-0.08,
1.605,-0.05,-0.02,0.95,-0.71,-0.79,-0.08,
1.605,-0.05,-0.02,0.95,-0.77,-0.71,-0.23,
1.605,-0.04,-0.01,0.95,-0.77,-0.71,-0.23,
1.606,-0.05,-0.02,0.95,-0.77,-0.71,-0.23,
1.606,-0.05,-0.02,0.95,-0.91,-0.67,-0.28,
1.606,-0.05,-0.02,0.95,-0.91,-0.67,-0.28,
1.607,-0.05,-0.02,0.95,-0.91,-0.67,-0.28,
1.607,-0.05,-0.02,0.95,-0.85,-0.67,-0.36,
1.608,-0.05,-0.01,0.95,-0.85,-0.67,-0.36,
1.611,-0.05,-0.01,0.95,-0.85,-0.67,-0.36,
1.612,-0.05,-0.01,0.95,-0.87,-0.72,-0.39,
1.621,-0.05,-0.01,0.95,-0.87,-0.72,-0.39,
1.622,-0.05,-0.01,0.95,-0.87,-0.72,-0.39,
1.622,-0.05,-0.01,0.95,-0.85,-0.67,-0.39,
1.622,-0.04,-0.01,0.95,-0.85,-0.67,-0.39,
1.623,-0.04,-0.01,0.95,-0.85,-0.67,-0.39,
1.623,-0.04,-0.01,0.95,-0.86,-0.64,-0.35,
1.623,-0.04,-0.01,0.95,-0.86,-0.64,-0.35,
1.626,-0.03,-0.01,0.96,-0.86,-0.64,-0.35,
1.627,-0.03,-0.01,0.96,-0.78,-0.64,-0.34,
1.628,-0.03,-0.01,0.95,-0.78,-0.64,-0.34,
1.637,-0.02,-0.01,0.96,-0.78,-0.64,-0.34,
1.638,-0.02,-0.01,0.96,-0.76,-0.66,-0.31,
1.638,-0.02,-0.01,0.96,-0.76,-0.66,-0.31,
1.638,-0.02,-0.02,0.95,-0.76,-0.66,-0.31,
1.639,-0.02,-0.02,0.95,-0.65,-0.69,-0.30,
1.639,-0.01,-0.02,0.96,-0.65,-0.69,-0.30,
1.641,-0.01,-0.02,0.96,-0.65,-0.69,-0.30,
1.641,-0.01,-0.02,0.96,-0.58,-0.75,-0.29,
1.643,-0.01,-0.02,0.95,-0.58,-0.75,-0.29,
1.646,-0.01,-0.02,0.96,-0.58,-0.75,-0.29,
1.646,-0.01,-0.02,0.96,-0.53,-0.79,-0.27,
1.659,-0.01,-0.03,0.96,-0.53,-0.79,-0.27,
1.66,-0.01,-0.03,0.96,-0.53,-0.79,-0.27,
1.66,-0.01,-0.03,0.96,-0.54,-0.80,-0.31,
1.662,-0.02,-0.02,0.95,-0.54,-0.80,-0.31,
1.663,-0.02,-0.02,0.95,-0.57,-0.85,-0.26,
1.663,-0.03,-0.02,0.95,-0.57,-0.85,-0.26,
1.663,-0.03,-0.02,0.95,-0.57,-0.85,-0.26,
1.663,-0.03,-0.02,0.95,-0.68,-0.83,-0.32,
1.664,-0.04,-0.02,0.94,-0.68,-0.83,-0.32,
1.664,-0.04,-0.02,0.94,-0.68,-0.83,-0.32,
1.67,-0.04,-0.02,0.94,-0.77,-0.85,-0.37,
1.671,-0.04,-0.02,0.94,-0.77,-0.85,-0.37,
1.671,-0.04,-0.02,0.93,-0.77,-0.85,-0.37,
1.671,-0.05,-0.02,0.93,-0.77,-0.85,-0.37,
1.671,-0.05,-0.02,0.93,-0.84,-0.85,-0.45,
1.674,-0.05,-0.02,0.92,-0.84,-0.85,-0.45,
1.676,-0.05,-0.01,0.92,-0.84,-0.85,-0.45,
1.676,-0.05,-0.01,0.92,-0.90,-0.82,-0.51,
1.679,-0.06,-0.01,0.92,-0.90,-0.82,-0.51,
1.68,-0.06,-0.01,0.92,-0.90,-0.82,-0.51,
1.681,-0.06,-0.01,0.92,-0.94,-0.80,-0.63,
1.689,-0.06,-0.00,0.93,-0.94,-0.80,-0.63,
1.689,-0.07,-0.00,0.92,-0.94,-0.80,-0.63,
1.689,-0.07,-0.00,0.92,-1.05,-0.79,-0.62,
1.69,-0.08,0.00,0.92,-1.05,-0.79,-0.62,
1.69,-0.08,0.01,0.92,-1.05,-0.79,-0.62,
1.691,-0.08,0.01,0.92,-1.12,-0.71,-0.56,
1.694,-0.08,0.01,0.92,-1.12,-0.71,-0.56,
1.696,-0.08,0.01,0.93,-1.12,-0.71,-0.56,
1.696,-0.08,0.01,0.93,-1.22,-0.67,-0.59,
1.704,-0.09,0.02,0.93,-1.22,-0.67,-0.59,
1.705,-0.09,0.02,0.93,-1.22,-0.67,-0.59,
1.705,-0.09,0.02,0.93,-1.27,-0.63,-0.56,
1.705,-0.09,0.01,0.93,-1.27,-0.63,-0.56,
1.705,-0.09,0.02,0.93,-1.27,-0.63,-0.56,
1.705,-0.09,0.02,0.93,-1.35,-0.56,-0.52,
1.708,-0.09,0.02,0.94,-1.35,-0.56,-0.52,
1.71,-0.10,0.01,0.94,-1.35,-0.56,-0.52,
1.711,-0.10,0.01,0.94,-1.34,-0.58,-0.51,
1.713,-0.10,0.02,0.94,-1.34,-0.58,-0.51,
1.72,-0.10,0.02,0.94,-1.34,-0.58,-0.51,
1.721,-0.10,0.02,0.94,-1.40,-0.61,-0.39,
1.721,-0.11,0.02,0.94,-1.40,-0.61,-0.39,
1.721,-0.11,0.02,0.95,-1.40,-0.61,-0.39,
1.721,-0.11,0.02,0.95,-1.49,-0.57,-0.40,
1.723,-0.11,0.01,0.95,-1.49,-0.57,-0.40,
1.726,-0.11,0.01,0.95,-1.49,-0.57,-0.40,
1.726,-0.11,0.01,0.95,-1.55,-0.62,-0.34,
1.728,-0.12,0.01,0.95,-1.55,-0.62,-0.34,
1.739,-0.12,0.00,0.95,-1.55,-0.62,-0.34,
1.739,-0.12,0.00,0.95,-1.56,-0.67,-0.31,
1.74,-0.12,0.00,0.95,-1.56,-0.67,-0.31,
1.74,-0.12,-0.00,0.95,-1.56,-0.67,-0.31,
1.74,-0.12,-0.00,0.95,-1.62,-0.73,-0.31,
1.74,-0.12,0.00,0.94,-1.62,-0.73,-0.31,
1.74,-0.12,-0.00,0.94,-1.62,-0.73,-0.31,
1.741,-0.12,-0.00,0.94,-1.61,-0.78,-0.31,
1.743,-0.12,-0.01,0.93,-1.61,-0.78,-0.31,
1.745,-0.12,-0.01,0.93,-1.61,-0.78,-0.31,
1.746,-0.12,-0.01,0.93,-1.63,-0.80,-0.39,
1.748,-0.13,-0.01,0.94,-1.63,-0.80,-0.39,
1.761,-0.13,-0.01,0.93,-1.63,-0.80,-0.39,
1.762,-0.13,-0.01,0.93,-1.66,-0.86,-0.48,
1.762,-0.13,-0.02,0.93,-1.66,-0.86,-0.48,
1.763,-0.14,-0.02,0.93,-1.66,-0.86,-0.48,
1.763,-0.14,-0.02,0.93,-1.70,-0.91,-0.45,
1.763,-0.14,-0.03,0.93,-1.70,-0.91,-0.45,
1.763,-0.14,-0.03,0.93,-1.70,-0.91,-0.45,
1.764,-0.14,-0.03,0.93,-1.76,-0.99,-0.51,
1.764,-0.15,-0.03,0.94,-1.76,-0.99,-0.51,
1.772,-0.16,-0.04,0.94,-1.76,-0.99,-0.51,
1.773,-0.16,-0.04,0.94,-1.82,-1.05,-0.49,
1.773,-0.16,-0.04,0.94,-1.82,-1.05,-0.49,
1.773,-0.17,-0.04,0.95,-1.82,-1.05,-0.49,
1.773,-0.17,-0.04,0.95,-1.92,-1.10,-0.40,
1.773,-0.17,-0.04,0.96,-1.92,-1.10,-0.40,
1.775,-0.17,-0.04,0.96,-1.92,-1.10,-0.40,
1.775,-0.17,-0.04,0.96,-2.04,-1.13,-0.36,
1.778,-0.18,-0.05,0.96,-2.04,-1.13,-0.36,
1.78,-0.19,-0.05,0.97,-2.04,-1.13,-0.36,
1.791,-0.19,-0.05,0.97,-2.14,-1.15,-0.22,
1.791,-0.19,-0.05,0.97,-2.14,-1.15,-0.22,
1.792,-0.19,-0.05,0.97,-2.14,-1.15,-0.22,
1.792,-0.19,-0.05,0.97,-2.24,-1.23,-0.16,
1.792,-0.19,-0.06,0.97,-2.24,-1.23,-0.16,
1.792,-0.20,-0.06,0.97,-2.24,-1.23,-0.16,
1.792,-0.20,-0.06,0.97,-2.33,-1.24,-0.15,
1.793,-0.20,-0.06,0.98,-2.33,-1.24,-0.15,
1.794,-0.20,-0.06,0.98,-2.33,-1.24,-0.15,
1.794,-0.20,-0.06,0.98,-2.38,-1.26,-0.09,
1.797,-0.20,-0.06,0.98,-2.38,-1.26,-0.09,
1.804,-0.20,-0.06,0.98,-2.38,-1.26,-0.09,
1.804,-0.20,-0.06,0.98,-2.39,-1.29,-0.01,
1.805,-0.20,-0.06,0.98,-2.39,-1.29,-0.01,
1.805,-0.19,-0.06,0.98,-2.39,-1.29,-0.01,
1.805,-0.19,-0.06,0.98,-2.44,-1.29,-0.02,
1.807,-0.19,-0.06,0.98,-2.44,-1.29,-0.02,
1.809,-0.19,-0.06,0.98,-2.44,-1.29,-0.02,
1.812,-0.19,-0.06,0.98,-2.39,-1.30,0.00,
1.812,-0.19,-0.06,0.98,-2.39,-1.30,0.00,
1.815,-0.18,-0.06,0.98,-2.39,-1.30,0.00,
1.815,-0.18,-0.06,0.98,-2.33,-1.30,-0.03,
1.821,-0.18,-0.05,0.98,-2.33,-1.30,-0.03,
1.822,-0.18,-0.05,0.98,-2.30,-1.26,0.00,
1.822,-0.18,-0.05,0.98,-2.30,-1.26,0.00,
1.822,-0.17,-0.05,0.98,-2.30,-1.26,0.00,
1.825,-0.17,-0.04,0.99,-2.30,-1.26,0.00,
1.825,-0.17,-0.04,0.99,-2.25,-1.17,-0.05,
1.826,-0.17,-0.04,0.99,-2.25,-1.17,-0.05,
1.83,-0.16,-0.04,0.99,-2.25,-1.17,-0.05,
1.83,-0.16,-0.04,0.99,-2.18,-1.11,0.03,
1.837,-0.15,-0.03,0.99,-2.18,-1.11,0.03,
1.837,-0.15,-0.03,1.00,-2.18,-1.11,0.03,
1.838,-0.15,-0.03,1.00,-2.14,-1.06,0.09,
1.838,-0.14,-0.03,1.00,-2.14,-1.06,0.09,
1.84,-0.14,-0.03,1.01,-2.14,-1.06,0.09,
1.84,-0.14,-0.03,1.01,-2.01,-0.96,0.15,
1.841,-0.14,-0.02,1.02,-2.01,-0.96,0.15,
1.844,-0.13,-0.02,1.03,-2.01,-0.96,0.15,
1.844,-0.13,-0.02,1.03,-1.90,-0.92,0.26,
1.846,-0.13,-0.01,1.03,-1.90,-0.92,0.26,
1.855,-0.12,-0.01,1.04,-1.90,-0.92,0.26,
1.855,-0.12,-0.01,1.04,-1.85,-0.84,0.41,
1.856,-0.12,-0.00,1.04,-1.85,-0.84,0.41,
1.856,-0.12,-0.01,1.05,-1.85,-0.84,0.41,
1.856,-0.12,-0.01,1.05,-1.79,-0.73,0.53,
1.856,-0.12,-0.00,1.06,-1.79,-0.73,0.53,
1.859,-0.12,0.00,1.06,-1.79,-0.73,0.53,
1.859,-0.12,0.00,1.06,-1.81,-0.67,0.62,
1.861,-0.12,0.00,1.06,-1.81,-0.67,0.62,
1.863,-0.11,-0.00,1.07,-1.81,-0.67,0.62,
1.864,-0.11,-0.00,1.07,-1.76,-0.61,0.79,
1.878,-0.11,-0.00,1.07,-1.76,-0.61,0.79,
1.879,-0.10,-0.00,1.06,-1.76,-0.61,0.79,
1.879,-0.10,-0.00,1.06,-1.73,-0.60,0.84,
1.879,-0.10,0.00,1.07,-1.73,-0.60,0.84,
1.88,-0.11,0.00,1.07,-1.73,-0.60,0.84,
1.88,-0.11,0.00,1.07,-1.68,-0.60,0.84,
1.88,-0.11,0.00,1.07,-1.68,-0.60,0.84,
1.881,-0.10,0.00,1.07,-1.68,-0.60,0.84,
1.881,-0.10,0.00,1.07,-1.66,-0.55,0.89,
1.881,-0.10,0.00,1.07,-1.66,-0.55,0.89,
1.888,-0.10,-0.00,1.07,-1.66,-0.55,0.89,
1.889,-0.10,-0.00,1.07,-1.67,-0.55,0.90,
1.889,-0.11,-0.00,1.07,-1.67,-0.55,0.90,
1.889,-0.10,-0.00,1.06,-1.67,-0.55,0.90,
1.889,-0.10,-0.00,1.06,-1.65,-0.56,0.88,
1.891,-0.11,0.00,1.07,-1.65,-0.56,0.88,
1.893,-0.11,0.00,1.06,-1.65,-0.56,0.88,
1.893,-0.11,0.00,1.06,-1.65,-0.57,0.82,
1.896,-0.11,-0.00,1.06,-1.65,-0.57,0.82,
1.908,-0.11,-0.00,1.06,-1.65,-0.57,0.82,
1.908,-0.11,-0.00,1.06,-1.70,-0.53,0.82,
1.909,-0.11,0.00,1.05,-1.70,-0.53,0.82,
1.909,-0.11,-0.00,1.05,-1.70,-0.53,0.82,
1.909,-0.11,-0.00,1.05,-1.73,-0.53,0.74,
1.909,-0.10,0.00,1.06,-1.73,-0.53,0.74,
1.91,-0.11,-0.00,1.06,-1.73,-0.53,0.74,
1.91,-0.11,-0.00,1.06,-1.71,-0.51,0.69,
1.911,-0.11,-0.00,1.06,-1.71,-0.51,0.69,
1.914,-0.11,0.00,1.05,-1.71,-0.51,0.69,
1.914,-0.11,0.00,1.05,-1.68,-0.51,0.76,
1.916,-0.12,-0.00,1.05,-1.68,-0.51,0.76,
1.921,-0.12,0.00,1.04,-1.68,-0.51,0.76,
1.921,-0.12,0.00,1.04,-1.70,-0.51,0.70,
1.922,-0.12,0.00,1.04,-1.70,-0.51,0.70,
1.923,-0.12,0.01,1.04,-1.70,-0.51,0.70,
1.923,-0.12,0.01,1.04,-1.77,-0.49,0.59,
1.926,-0.12,0.01,1.03,-1.77,-0.49,0.59,
1.929,-0.12,0.01,1.04,-1.77,-0.49,0.59,
1.929,-0.12,0.01,1.04,-1.79,-0.45,0.57,
1.931,-0.12,0.00,1.04,-1.79,-0.45,0.57,
1.939,-0.13,0.00,1.03,-1.79,-0.45,0.57,
1.939,-0.13,0.00,1.03,-1.83,-0.43,0.51,
1.939,-0.13,0.00,1.04,-1.83,-0.43,0.51,
1.94,-0.13,0.01,1.03,-1.83,-0.43,0.51,
1.94,-0.13,0.01,1.03,-1.84,-0.47,0.51,
1.94,-0.13,0.00,1.03,-1.84,-0.47,0.51,
1.944,-0.13,0.00,1.03,-1.84,-0.47,0.51,
1.944,-0.13,0.00,1.03,-1.87,-0.43,0.51,
1.946,-0.13,0.00,1.03,-1.87,-0.43,0.51,
1.948,-0.13,-0.00,1.03,-1.87,-0.43,0.51,
1.949,-0.13,-0.00,1.03,-1.85,-0.46,0.46,
1.954,-0.13,-0.01,1.03,-1.85,-0.46,0.46,
1.955,-0.13,-0.01,1.03,-1.87,-0.47,0.43,
1.955,-0.13,-0.01,1.03,-1.87,-0.47,0.43,
1.955,-0.13,-0.01,1.03,-1.87,-0.47,0.43,
1.958,-0.13,-0.01,1.02,-1.87,-0.47,0.43,
1.959,-0.13,-0.01,1.02,-1.86,-0.56,0.46,
1.961,-0.13,-0.02,1.02,-1.86,-0.56,0.46,
1.963,-0.13,-0.02,1.02,-1.84,-0.59,0.40,
1.963,-0.13,-0.02,1.01,-1.84,-0.59,0.40,
1.966,-0.13,-0.03,1.01,-1.84,-0.59,0.40,
1.978,-0.14,-0.03,1.01,-1.84,-0.59,0.40,
1.979,-0.14,-0.03,1.01,-1.81,-0.68,0.31,
1.979,-0.14,-0.03,1.01,-1.81,-0.68,0.31,
1.979,-0.14,-0.03,1.00,-1.81,-0.68,0.31,
1.979,-0.14,-0.03,1.00,-1.86,-0.73,0.27,
1.982,-0.15,-0.03,1.00,-1.86,-0.73,0.27,
1.983,-0.15,-0.04,1.00,-1.86,-0.73,0.27,
1.983,-0.15,-0.04,1.00,-1.93,-0.79,0.20,
1.984,-0.15,-0.04,0.99,-1.93,-0.79,0.20,
1.984,-0.15,-0.04,0.99,-1.93,-0.79,0.20,
1.984,-0.15,-0.04,0.99,-1.96,-0.81,0.15,
1.989,-0.16,-0.04,0.99,-1.96,-0.81,0.15,
1.989,-0.16,-0.03,0.99,-1.96,-0.81,0.15,
1.99,-0.16,-0.03,0.99,-1.97,-0.84,0.05,
1.99,-0.16,-0.03,0.99,-1.97,-0.84,0.05,
1.992,-0.17,-0.02,0.99,-1.97,-0.84,0.05,
1.993,-0.17,-0.02,0.99,-2.01,-0.78,0.05,
1.997,-0.16,-0.02,0.99,-2.01,-0.78,0.05,
1.997,-0.17,-0.02,0.99,-2.01,-0.78,0.05,
1.998,-0.17,-0.02,0.99,-2.06,-0.67,0.04,
2.006,-0.16,-0.01,0.99,-2.06,-0.67,0.04,
2.006,-0.15,-0.01,0.99,-2.06,-0.67,0.04,
2.006,-0.15,-0.01,0.99,-2.08,-0.64,0.04,
2.007,-0.15,-0.01,0.99,-2.08,-0.64,0.04,
2.008,-0.14,-0.01,0.99,-2.08,-0.64,0.04,
2.008,-0.14,-0.01,0.99,-1.98,-0.52,0.07,
2.009,-0.14,0.00,1.00,-1.98,-0.52,0.07,
2.013,-0.13,0.00,1.00,-1.98,-0.52,0.07,
2.013,-0.13,0.00,1.00,-1.86,-0.49,0.07,
2.015,-0.12,0.00,1.00,-1.86,-0.49,0.07,
2.021,-0.12,0.01,1.00,-1.86,-0.49,0.07,
2.021,-0.12,0.01,1.00,-1.75,-0.40,0.12,
2.021,-0.11,0.01,1.01,-1.75,-0.40,0.12,
2.023,-0.10,0.02,1.01,-1.75,-0.40,0.12,
2.023,-0.10,0.02,1.01,-1.61,-0.36,0.16,
2.025,-0.10,0.02,1.02,-1.61,-0.36,0.16,
2.027,-0.10,0.02,1.02,-1.49,-0.26,0.25,
2.027,-0.09,0.03,1.03,-1.49,-0.26,0.25,
2.03,-0.08,0.03,1.04,-1.49,-0.26,0.25,
2.033,-0.07,0.04,1.04,-1.49,-0.26,0.25,
2.033,-0.07,0.04,1.04,-1.34,-0.15,0.41,
2.038,-0.06,0.04,1.05,-1.34,-0.15,0.41,
2.039,-0.05,0.05,1.06,-1.34,-0.15,0.41,
2.039,-0.05,0.05,1.06,-1.17,-0.05,0.53,
2.039,-0.04,0.05,1.06,-1.17,-0.05,0.53,
2.042,-0.03,0.05,1.07,-1.17,-0.05,0.53,
2.043,-0.03,0.05,1.07,-0.98,0.07,0.67,
2.045,-0.02,0.06,1.08,-0.98,0.07,0.67,
2.047,-0.01,0.06,1.09,-0.98,0.07,0.67,
2.048,-0.01,0.06,1.09,-0.82,0.13,0.78,
2.049,-0.00,0.06,1.08,-0.82,0.13,0.78,
2.055,0.00,0.06,1.09,-0.82,0.13,0.78,
2.055,0.00,0.06,1.09,-0.65,0.23,0.93,
2.056,0.01,0.06,1.09,-0.65,0.23,0.93,
2.057,0.01,0.06,1.09,-0.51,0.28,0.95,
2.058,0.01,0.07,1.10,-0.51,0.28,0.95,
2.06,0.01,0.07,1.10,-0.51,0.28,0.95,
2.062,0.01,0.07,1.10,-0.51,0.28,0.95,
2.062,0.01,0.07,1.10,-0.43,0.30,1.06,
2.065,0.02,0.07,1.10,-0.43,0.30,1.06,
2.078,0.03,0.07,1.10,-0.43,0.30,1.06,
2.079,0.03,0.07,1.10,-0.37,0.33,1.06,
2.079,0.03,0.06,1.09,-0.37,0.33,1.06,
2.079,0.03,0.06,1.09,-0.37,0.33,1.06,
2.079,0.03,0.06,1.09,-0.26,0.34,1.06,
2.079,0.03,0.06,1.09,-0.26,0.34,1.06,
2.08,0.03,0.05,1.08,-0.26,0.34,1.06,
2.08,0.03,0.05,1.08,-0.24,0.29,0.96,
2.08,0.03,0.05,1.08,-0.24,0.29,0.96,
2.09,0.02,0.04,1.07,-0.24,0.29,0.96,
2.091,0.02,0.04,1.07,-0.22,0.24,0.92,
2.091,0.02,0.04,1.07,-0.22,0.24,0.92,
2.091,0.02,0.03,1.06,-0.22,0.24,0.92,
2.091,0.02,0.03,1.06,-0.27,0.14,0.80,
2.092,0.02,0.03,1.07,-0.27,0.14,0.80,
2.092,0.01,0.02,1.07,-0.27,0.14,0.80,
2.092,0.01,0.02,1.07,-0.30,0.04,0.72,
2.094,0.01,0.02,1.07,-0.30,0.04,0.72,
2.097,0.02,0.02,1.06,-0.30,0.04,0.72,
2.097,0.02,0.02,1.06,-0.35,-0.03,0.75,
2.099,0.02,0.02,1.06,-0.35,-0.03,0.75,
2.107,0.02,0.02,1.07,-0.35,-0.03,0.75,
2.108,0.02,0.02,1.07,-0.35,-0.07,0.71,
2.108,0.02,0.03,1.07,-0.35,-0.07,0.71,
2.108,0.02,0.03,1.08,-0.35,-0.07,0.71,
2.109,0.02,0.03,1.08,-0.30,-0.06,0.72,
2.109,0.03,0.03,1.08,-0.30,-0.06,0.72,
2.111,0.03,0.03,1.08,-0.30,-0.06,0.72,
2.111,0.03,0.03,1.08,-0.30,-0.01,0.79,
2.113,0.03,0.03,1.09,-0.30,-0.01,0.79,
2.123,0.04,0.04,1.10,-0.30,-0.01,0.79,
2.124,0.04,0.04,1.10,-0.23,0.02,0.89,
2.124,0.04,0.04,1.11,-0.23,0.02,0.89,
2.124,0.05,0.05,1.10,-0.23,0.02,0.89,
2.125,0.05,0.05,1.10,-0.22,0.07,1.01,
2.125,0.05,0.04,1.10,-0.22,0.07,1.01,
2.126,0.05,0.05,1.10,-0.22,0.07,1.01,
2.126,0.05,0.05,1.10,-0.15,0.14,1.09,
2.128,0.06,0.05,1.10,-0.15,0.14,1.09,
2.131,0.06,0.05,1.10,-0.15,0.14,1.09,
2.131,0.06,0.05,1.10,-0.11,0.14,1.06,
2.138,0.06,0.05,1.11,-0.11,0.14,1.06,
2.139,0.06,0.05,1.11,-0.11,0.14,1.06,
2.139,0.06,0.05,1.11,-0.04,0.17,1.02,
2.139,0.06,0.06,1.11,-0.04,0.17,1.02,
2.142,0.06,0.06,1.10,-0.04,0.17,1.02,
2.142,0.06,0.06,1.10,0.01,0.21,1.14,
2.143,0.06,0.07,1.09,0.01,0.21,1.14,
2.146,0.07,0.07,1.09,0.01,0.21,1.14,
2.147,0.07,0.07,1.09,0.02,0.25,1.11,
2.148,0.07,0.07,1.09,0.02,0.25,1.11,
2.155,0.07,0.06,1.09,0.02,0.25,1.11,
2.156,0.07,0.06,1.09,0.04,0.32,0.98,
2.156,0.07,0.06,1.08,0.04,0.32,0.98,
2.156,0.07,0.06,1.07,0.04,0.32,0.98,
2.157,0.07,0.06,1.07,0.07,0.29,0.95,
2.158,0.06,0.06,1.06,0.07,0.29,0.95,
2.161,0.06,0.06,1.05,0.07,0.29,0.95,
2.161,0.06,0.06,1.05,0.08,0.25,0.82,
2.163,0.06,0.05,1.05,0.08,0.25,0.82,
2.165,0.06,0.05,1.05,0.08,0.25,0.82,
2.166,0.06,0.05,1.05,0.02,0.21,0.65,
2.172,0.06,0.05,1.04,0.02,0.21,0.65,
2.172,0.06,0.05,1.03,0.02,0.21,0.65,
2.173,0.06,0.05,1.03,0.04,0.16,0.53,
2.173,0.05,0.05,1.03,0.04,0.16,0.53,
2.176,0.05,0.05,1.03,0.04,0.16,0.53,
2.176,0.05,0.05,1.03,0.04,0.08,0.43,
2.178,0.05,0.05,1.02,0.04,0.08,0.43,
2.18,0.05,0.05,1.02,0.04,0.08,0.43,
2.18,0.05,0.05,1.02,-0.04,0.07,0.35,
2.197,0.05,0.05,1.02,-0.04,0.07,0.35,
2.198,0.05,0.05,1.02,-0.04,0.07,0.35,
2.198,0.05,0.05,1.02,-0.07,0.05,0.26,
2.199,0.05,0.05,1.02,-0.07,0.05,0.26,
2.199,0.05,0.06,1.02,-0.07,0.05,0.26,
2.199,0.05,0.06,1.02,-0.10,0.10,0.25,
2.199,0.05,0.05,1.02,-0.10,0.10,0.25,
2.199,0.05,0.05,1.02,-0.10,0.10,0.25,
2.2,0.05,0.05,1.02,-0.08,0.12,0.24,
2.2,0.06,0.06,1.02,-0.08,0.12,0.24,
2.207,0.05,0.05,1.03,-0.08,0.12,0.24,
2.208,0.05,0.05,1.03,-0.07,0.10,0.28,
2.208,0.05,0.05,1.03,-0.07,0.10,0.28,
2.208,0.05,0.05,1.03,-0.02,0.10,0.30,
2.208,0.06,0.05,1.02,-0.02,0.10,0.30,
2.209,0.06,0.05,1.03,-0.02,0.10,0.30,
2.21,0.06,0.05,1.03,-0.02,0.06,0.32,
2.21,0.06,0.05,1.03,-0.02,0.06,0.32,
2.212,0.06,0.05,1.03,-0.02,0.06,0.32,
2.216,0.07,0.05,1.03,-0.02,0.06,0.32,
2.216,0.07,0.05,1.03,0.02,0.02,0.34,
2.226,0.07,0.05,1.03,0.02,0.02,0.34,
2.226,0.08,0.04,1.03,0.02,0.02,0.34,
2.227,0.08,0.04,1.03,0.07,0.02,0.33,
2.227,0.08,0.04,1.03,0.07,0.02,0.33,
2.227,0.09,0.04,1.03,0.07,0.02,0.33,
2.227,0.09,0.04,1.03,0.18,-0.01,0.32,
2.228,0.09,0.04,1.03,0.18,-0.01,0.32,
2.23,0.09,0.04,1.03,0.18,-0.01,0.32,
2.23,0.09,0.04,1.03,0.27,-0.03,0.34,
2.232,0.10,0.04,1.03,0.27,-0.03,0.34,
2.239,0.09,0.04,1.04,0.27,-0.03,0.34,
2.24,0.09,0.04,1.04,0.34,-0.01,0.33,
2.24,0.10,0.04,1.03,0.34,-0.01,0.33,
2.241,0.10,0.04,1.03,0.34,-0.01,0.33,
2.241,0.10,0.04,1.03,0.38,-0.03,0.39,
2.242,0.10,0.04,1.03,0.38,-0.03,0.39,
2.245,0.10,0.04,1.03,0.38,-0.03,0.39,
2.245,0.10,0.04,1.03,0.44,-0.03,0.36,
2.247,0.10,0.04,1.03,0.44,-0.03,0.36,
2.25,0.10,0.04,1.03,0.44,-0.03,0.36,
2.257,0.10,0.04,1.03,0.43,-0.06,0.38,
2.258,0.09,0.05,1.03,0.43,-0.06,0.38,
2.258,0.10,0.05,1.03,0.43,-0.06,0.38,
2.258,0.10,0.05,1.03,0.43,-0.06,0.33,
2.258,0.10,0.05,1.02,0.43,-0.06,0.33,
2.26,0.10,0.05,1.02,0.43,-0.06,0.33,
2.261,0.10,0.05,1.02,0.41,-0.00,0.33,
2.262,0.10,0.05,1.02,0.41,-0.00,0.33,
2.265,0.10,0.05,1.02,0.41,-0.00,0.33,
2.265,0.10,0.05,1.02,0.43,0.01,0.28,
2.272,0.10,0.05,1.03,0.43,0.01,0.28,
2.273,0.11,0.06,1.03,0.43,0.01,0.28,
2.273,0.11,0.06,1.03,0.45,0.06,0.29,
2.273,0.11,0.07,1.03,0.45,0.06,0.29,
2.274,0.12,0.06,1.03,0.45,0.06,0.29,
2.274,0.12,0.06,1.03,0.48,0.07,0.32,
2.277,0.12,0.06,1.03,0.48,0.07,0.32,
2.28,0.12,0.06,1.04,0.48,0.07,0.32,
2.28,0.12,0.06,1.04,0.59,0.14,0.33,
2.282,0.13,0.06,1.03,0.59,0.14,0.33,
2.289,0.13,0.07,1.03,0.59,0.14,0.33,
2.29,0.13,0.07,1.03,0.66,0.09,0.38,
2.29,0.14,0.08,1.04,0.66,0.09,0.38,
2.29,0.14,0.08,1.04,0.66,0.09,0.38,
2.29,0.14,0.08,1.04,0.71,0.17,0.36,
2.292,0.14,0.08,1.04,0.71,0.17,0.36,
2.294,0.15,0.08,1.04,0.71,0.17,0.36,
2.294,0.15,0.08,1.04,0.79,0.25,0.44,
2.297,0.15,0.08,1.05,0.79,0.25,0.44,
2.299,0.16,0.09,1.04,0.79,0.25,0.44,
2.299,0.16,0.09,1.04,0.84,0.25,0.47,
2.315,0.16,0.09,1.04,0.84,0.25,0.47,
2.316,0.16,0.09,1.04,0.84,0.25,0.47,
2.319,0.16,0.09,1.04,0.90,0.31,0.48,
2.321,0.17,0.09,1.04,0.90,0.31,0.48,
2.321,0.17,0.09,1.03,0.90,0.31,0.48,
2.322,0.17,0.09,1.03,0.98,0.31,0.44,
2.322,0.17,0.09,1.04,0.98,0.31,0.44,
2.322,0.17,0.09,1.03,0.98,0.31,0.44,
2.322,0.17,0.09,1.03,1.04,0.34,0.39,
2.323,0.18,0.09,1.02,1.04,0.34,0.39,
2.323,0.18,0.09,1.01,1.04,0.34,0.39,
2.324,0.18,0.09,1.01,1.09,0.35,0.39,
2.324,0.18,0.08,1.02,1.09,0.35,0.39,
2.324,0.18,0.08,1.02,1.09,0.35,0.39,
2.325,0.18,0.08,1.02,1.14,0.30,0.21,
2.327,0.18,0.08,1.02,1.14,0.30,0.21,
2.33,0.18,0.08,1.02,1.16,0.25,0.27,
2.33,0.18,0.07,1.01,1.16,0.25,0.27,
2.332,0.18,0.07,1.00,1.16,0.25,0.27,
2.335,0.17,0.07,1.00,1.16,0.25,0.27,
2.335,0.17,0.07,1.00,1.17,0.18,0.20,
2.337,0.16,0.07,1.00,1.17,0.18,0.20,
2.339,0.16,0.07,1.01,1.17,0.18,0.20,
2.339,0.16,0.07,1.01,1.13,0.09,0.08,
2.345,0.15,0.06,1.01,1.13,0.09,0.08,
2.345,0.15,0.06,1.00,1.13,0.09,0.08,
2.345,0.15,0.06,1.00,1.00,0.06,0.12,
2.347,0.14,0.06,1.00,1.00,0.06,0.12,
2.349,0.14,0.05,0.99,1.00,0.06,0.12,
2.349,0.14,0.05,0.99,0.87,0.01,0.10,
2.352,0.13,0.05,0.99,0.87,0.01,0.10,
2.354,0.13,0.05,0.99,0.79,-0.06,0.03,
2.354,0.13,0.04,0.99,0.79,-0.06,0.03,
2.357,0.13,0.03,0.98,0.79,-0.06,0.03,
2.359,0.13,0.03,0.98,0.79,-0.06,0.03,
2.359,0.13,0.03,0.98,0.68,-0.18,-0.04,
2.362,0.13,0.03,0.98,0.68,-0.18,-0.04,
2.364,0.13,0.02,0.98,0.68,-0.18,-0.04,
2.364,0.13,0.02,0.98,0.67,-0.31,-0.12,
2.367,0.12,0.02,0.98,0.67,-0.31,-0.12,
2.369,0.12,0.02,0.98,0.67,-0.31,-0.12,
2.369,0.12,0.02,0.98,0.67,-0.40,-0.15,
2.371,0.13,0.02,0.98,0.67,-0.40,-0.15,
2.373,0.12,0.03,1.00,0.67,-0.40,-0.15,
2.374,0.12,0.03,1.00,0.61,-0.46,-0.11,
2.377,0.13,0.03,0.99,0.61,-0.46,-0.11,
2.379,0.13,0.03,0.99,0.61,-0.46,-0.11,
2.379,0.13,0.03,0.99,0.60,-0.39,-0.04,
2.382,0.13,0.04,0.99,0.60,-0.39,-0.04,
2.384,0.13,0.05,1.00,0.60,-0.39,-0.04,
2.384,0.13,0.05,1.00,0.66,-0.38,-0.02,
2.39,0.14,0.05,1.01,0.66,-0.38,-0.02,
2.391,0.14,0.06,1.01,0.66,-0.38,-0.02,
2.391,0.14,0.06,1.01,0.67,-0.23,0.03,
2.391,0.15,0.06,1.01,0.67,-0.23,0.03,
2.393,0.15,0.07,1.01,0.67,-0.23,0.03,
2.393,0.15,0.07,1.01,0.73,-0.15,0.14,
2.396,0.15,0.07,1.01,0.73,-0.15,0.14,
2.398,0.16,0.08,1.01,0.73,-0.15,0.14,
2.399,0.16,0.08,1.01,0.79,-0.05,0.19,
2.403,0.16,0.08,1.01,0.79,-0.05,0.19,
2.403,0.16,0.08,1.01,0.86,0.02,0.17,
2.403,0.16,0.08,1.01,0.86,0.02,0.17,
2.406,0.17,0.08,1.01,0.86,0.02,0.17,
2.409,0.17,0.08,1.01,0.86,0.02,0.17,
2.409,0.17,0.08,1.01,0.93,0.05,0.15,
2.412,0.17,0.08,1.00,0.93,0.05,0.15,
2.414,0.17,0.08,1.00,0.93,0.05,0.15,
2.414,0.17,0.08,1.00,1.03,0.08,0.13,
2.416,0.18,0.08,1.00,1.03,0.08,0.13,
2.418,0.18,0.08,0.99,1.03,0.08,0.13,
2.418,0.18,0.08,0.99,1.06,0.06,0.08,
2.421,0.18,0.07,0.98,1.06,0.06,0.08,
2.423,0.19,0.07,0.99,1.06,0.06,0.08,
2.423,0.19,0.07,0.99,1.14,0.02,0.01,
2.426,0.18,0.07,0.98,1.14,0.02,0.01,
2.429,0.18,0.07,0.98,1.17,-0.03,-0.08,
2.429,0.18,0.07,0.98,1.17,-0.03,-0.08,
2.431,0.18,0.07,0.98,1.17,-0.03,-0.08,
2.434,0.19,0.07,0.97,1.17,-0.03,-0.08,
2.434,0.19,0.07,0.97,1.18,-0.03,-0.14,
2.436,0.18,0.07,0.98,1.18,-0.03,-0.14,
2.438,0.19,0.07,0.97,1.18,-0.03,-0.14,
2.438,0.19,0.07,0.97,1.20,-0.06,-0.18,
2.441,0.19,0.07,0.96,1.20,-0.06,-0.18,
2.444,0.19,0.07,0.96,1.20,-0.06,-0.18,
2.444,0.19,0.07,0.96,1.25,-0.09,-0.21,
2.446,0.18,0.07,0.97,1.25,-0.09,-0.21,
2.448,0.18,0.06,0.96,1.25,-0.09,-0.21,
2.449,0.18,0.06,0.96,1.28,-0.10,-0.28,
2.451,0.17,0.07,0.97,1.28,-0.10,-0.28,
2.454,0.17,0.07,0.97,1.19,-0.10,-0.28,
2.454,0.17,0.07,0.97,1.19,-0.10,-0.28,
2.455,0.16,0.07,0.97,1.19,-0.10,-0.28,
2.458,0.16,0.07,0.97,1.19,-0.10,-0.28,
2.458,0.16,0.07,0.97,1.12,-0.05,-0.27,
2.46,0.16,0.07,0.97,1.12,-0.05,-0.27,
2.463,0.16,0.08,0.97,1.12,-0.05,-0.27,
2.463,0.16,0.08,0.97,1.04,-0.08,-0.21,
2.465,0.15,0.08,0.98,1.04,-0.08,-0.21,
2.468,0.15,0.08,0.97,1.04,-0.08,-0.21,
2.468,0.15,0.08,0.97,1.05,-0.03,-0.19,
2.471,0.15,0.08,0.98,1.05,-0.03,-0.19,
2.473,0.15,0.08,0.98,1.05,-0.03,-0.19,
2.473,0.15,0.08,0.98,0.98,0.01,-0.19,
2.475,0.15,0.08,0.98,0.98,0.01,-0.19,
2.477,0.15,0.08,0.98,0.99,0.03,-0.11,
2.478,0.15,0.09,0.98,0.99,0.03,-0.11,
2.48,0.15,0.09,0.98,0.99,0.03,-0.11,
2.482,0.16,0.09,0.99,0.99,0.03,-0.11,
2.482,0.16,0.09,0.99,0.99,0.08,-0.13,
2.485,0.15,0.10,0.99,0.99,0.08,-0.13,
2.487,0.15,0.10,0.99,0.99,0.08,-0.13,
2.487,0.15,0.10,0.99,1.01,0.14,-0.08,
2.49,0.15,0.10,0.99,1.01,0.14,-0.08,
2.492,0.15,0.10,1.00,1.01,0.14,-0.08,
2.492,0.15,0.10,1.00,1.00,0.24,-0.08,
2.495,0.15,0.10,1.00,1.00,0.24,-0.08,
2.498,0.16,0.11,0.99,1.00,0.24,-0.08,
2.498,0.16,0.11,0.99,1.00,0.29,-0.00,
2.5,0.15,0.11,0.99,1.00,0.29,-0.00,
2.508,0.15,0.11,1.00,1.00,0.29,-0.00,
2.509,0.15,0.11,1.00,1.02,0.32,-0.01,
2.509,0.15,0.11,1.00,1.02,0.32,-0.01,
2.509,0.15,0.11,0.99,1.02,0.32,-0.01,
2.509,0.15,0.11,0.99,1.02,0.34,0.02,
2.51,0.16,0.10,1.00,1.02,0.34,0.02,
2.512,0.16,0.10,0.99,1.02,0.34,0.02,
2.512,0.16,0.10,0.99,1.04,0.32,0.01,
2.514,0.16,0.09,0.99,1.04,0.32,0.01,
2.517,0.17,0.09,0.99,1.04,0.32,0.01,
2.517,0.17,0.09,0.99,1.09,0.23,-0.01,
2.523,0.17,0.08,0.98,1.09,0.23,-0.01,
2.523,0.17,0.08,0.98,1.09,0.23,-0.01,
2.523,0.17,0.08,0.98,1.17,0.14,-0.06,
2.524,0.17,0.07,0.98,1.17,0.14,-0.06,
2.527,0.17,0.07,0.98,1.17,0.14,-0.06,
2.527,0.17,0.07,0.98,1.19,0.02,-0.11,
2.529,0.17,0.06,0.98,1.19,0.02,-0.11,
2.532,0.16,0.06,0.99,1.19,0.02,-0.11,
2.532,0.16,0.06,0.99,1.18,-0.04,-0.15,
2.534,0.16,0.06,0.99,1.18,-0.04,-0.15,
2.538,0.16,0.07,0.99,1.18,-0.04,-0.15,
2.538,0.16,0.07,0.99,1.14,-0.12,-0.10,
2.539,0.15,0.07,0.99,1.14,-0.12,-0.10,
2.542,0.15,0.07,0.99,1.14,-0.12,-0.10,
2.543,0.15,0.07,0.99,1.08,-0.11,-0.04,
2.544,0.14,0.07,0.99,1.08,-0.11,-0.04,
2.547,0.14,0.07,0.99,1.08,-0.11,-0.04,
2.548,0.14,0.07,0.99,1.00,-0.07,-0.08,
2.549,0.14,0.07,0.99,1.00,-0.07,-0.08,
2.554,0.14,0.07,1.00,1.00,-0.07,-0.08,
2.555,0.14,0.07,1.00,0.93,-0.08,-0.02,
2.555,0.14,0.07,1.00,0.93,-0.08,-0.02,
2.557,0.14,0.07,1.00,0.88,-0.11,0.02,
2.557,0.14,0.06,1.00,0.88,-0.11,0.02,
2.56,0.14,0.06,1.01,0.88,-0.11,0.02,
2.562,0.14,0.06,1.00,0.88,-0.11,0.02,
2.562,0.14,0.06,1.00,0.88,-0.13,0.09,
2.565,0.15,0.05,1.01,0.88,-0.13,0.09,
2.567,0.15,0.05,1.01,0.88,-0.13,0.09,
2.567,0.15,0.05,1.01,0.90,-0.18,0.11,
2.571,0.15,0.05,1.01,0.90,-0.18,0.11,
2.572,0.15,0.05,1.00,0.90,-0.18,0.11,
2.572,0.15,0.05,1.00,0.93,-0.25,0.13,
2.575,0.15,0.05,1.00,0.93,-0.25,0.13,
2.577,0.15,0.05,1.00,0.93,-0.28,0.11,
2.578,0.15,0.05,1.00,0.93,-0.28,0.11,
2.58,0.15,0.05,0.99,0.93,-0.28,0.11,
2.582,0.15,0.05,0.99,0.93,-0.28,0.11,
2.582,0.15,0.05,0.99,0.91,-0.29,0.06,
2.585,0.15,0.05,0.99,0.91,-0.29,0.06,
2.587,0.15,0.05,0.98,0.91,-0.29,0.06,
2.587,0.15,0.05,0.98,0.89,-0.31,-0.03,
2.589,0.16,0.05,0.99,0.89,-0.31,-0.03,
2.592,0.16,0.05,0.98,0.89,-0.31,-0.03,
2.592,0.16,0.05,0.98,0.92,-0.31,-0.08,
2.594,0.16,0.06,0.98,0.92,-0.31,-0.08,
2.597,0.16,0.05,0.97,0.92,-0.31,-0.08,
2.597,0.16,0.05,0.97,0.96,-0.27,-0.09,
2.599,0.16,0.05,0.97,0.96,-0.27,-0.09,
2.602,0.16,0.06,0.97,0.96,-0.27,-0.09,
2.602,0.16,0.06,0.97,0.99,-0.25,-0.17,
2.608,0.16,0.06,0.97,0.99,-0.25,-0.17,
2.608,0.16,0.06,0.97,0.99,-0.25,-0.17,
2.608,0.16,0.06,0.97,1.01,-0.26,-0.22,
2.609,0.16,0.06,0.96,1.01,-0.26,-0.22,
2.611,0.16,0.06,0.96,1.01,-0.26,-0.22,
2.611,0.16,0.06,0.96,0.98,-0.17,-0.25,
2.614,0.16,0.06,0.96,0.98,-0.17,-0.25,
2.616,0.17,0.07,0.96,0.98,-0.17,-0.25,
2.617,0.17,0.07,0.96,1.01,-0.18,-0.34,
2.62,0.17,0.07,0.96,1.01,-0.18,-0.34,
2.622,0.17,0.08,0.97,1.01,-0.18,-0.34,
2.622,0.17,0.08,0.97,1.03,-0.14,-0.31,
2.624,0.17,0.08,0.97,1.03,-0.14,-0.31,
2.627,0.17,0.08,0.97,1.06,-0.07,-0.26,
2.627,0.17,0.08,0.98,1.06,-0.07,-0.26,
2.629,0.17,0.09,0.98,1.06,-0.07,-0.26,
2.632,0.18,0.10,0.99,1.06,-0.07,-0.26,
2.632,0.18,0.10,0.99,1.06,0.03,-0.16,
2.635,0.18,0.10,0.99,1.06,0.03,-0.16,
2.637,0.18,0.11,1.00,1.06,0.03,-0.16,
2.637,0.18,0.11,1.00,1.07,0.17,-0.04,
2.639,0.18,0.11,1.00,1.07,0.17,-0.04,
2.641,0.18,0.11,1.01,1.07,0.17,-0.04,
2.641,0.18,0.11,1.01,1.10,0.23,0.06,
2.644,0.19,0.12,1.02,1.10,0.23,0.06,
2.646,0.19,0.12,1.02,1.10,0.23,0.06,
2.646,0.19,0.12,1.02,1.13,0.34,0.13,
2.648,0.19,0.12,1.01,1.13,0.34,0.13,
2.651,0.19,0.12,1.01,1.16,0.39,0.23,
2.651,0.20,0.13,1.01,1.16,0.39,0.23,
2.653,0.20,0.13,1.01,1.16,0.39,0.23,
2.657,0.20,0.13,1.02,1.16,0.39,0.23,
2.657,0.20,0.13,1.02,1.22,0.46,0.19,
2.658,0.20,0.13,1.01,1.22,0.46,0.19,
2.661,0.20,0.13,1.01,1.24,0.47,0.23,
2.661,0.20,0.14,1.01,1.24,0.47,0.23,
2.663,0.20,0.13,1.00,1.24,0.47,0.23,
2.665,0.20,0.14,1.00,1.24,0.47,0.23,
2.666,0.20,0.14,1.00,1.23,0.51,0.18,
2.668,0.20,0.14,1.00,1.23,0.51,0.18,
2.672,0.20,0.14,1.00,1.18,0.52,0.11,
2.673,0.19,0.14,1.00,1.18,0.52,0.11,
2.673,0.19,0.14,0.99,1.18,0.52,0.11,
2.676,0.18,0.14,0.99,1.18,0.52,0.11,
2.676,0.18,0.14,0.99,1.15,0.55,0.05,
2.678,0.18,0.14,0.99,1.15,0.55,0.05,
2.681,0.18,0.13,0.99,1.15,0.55,0.05,
2.681,0.18,0.13,0.99,1.04,0.56,-0.04,
2.683,0.17,0.13,0.98,1.04,0.56,-0.04,
2.686,0.17,0.13,0.98,1.04,0.56,-0.04,
2.686,0.17,0.13,0.98,0.97,0.49,-0.04,
2.688,0.16,0.14,0.97,0.97,0.49,-0.04,
2.691,0.16,0.13,0.97,0.97,0.49,-0.04,
2.691,0.16,0.13,0.97,0.87,0.46,-0.12,
2.693,0.15,0.13,0.96,0.87,0.46,-0.12,
2.696,0.16,0.13,0.96,0.87,0.46,-0.12,
2.696,0.16,0.13,0.96,0.80,0.46,-0.21,
2.698,0.15,0.13,0.96,0.80,0.46,-0.21,
2.701,0.15,0.13,0.96,0.80,0.46,-0.21,
2.701,0.15,0.13,0.96,0.74,0.43,-0.32,
2.703,0.15,0.12,0.95,0.74,0.43,-0.32,
2.708,0.14,0.13,0.95,0.74,0.43,-0.32,
2.709,0.14,0.13,0.95,0.67,0.39,-0.31,
2.709,0.14,0.13,0.96,0.67,0.39,-0.31,
2.71,0.14,0.13,0.95,0.67,0.39,-0.31,
2.711,0.14,0.13,0.95,0.62,0.35,-0.37,
2.713,0.13,0.13,0.96,0.62,0.35,-0.37,
2.715,0.13,0.13,0.96,0.62,0.35,-0.37,
2.716,0.13,0.13,0.96,0.55,0.36,-0.34,
2.718,0.12,0.13,0.96,0.55,0.36,-0.34,
2.721,0.12,0.12,0.97,0.55,0.36,-0.34,
2.721,0.12,0.12,0.97,0.45,0.35,-0.32,
2.723,0.12,0.12,0.96,0.45,0.35,-0.32,
2.725,0.12,0.12,0.96,0.38,0.34,-0.25,
2.726,0.11,0.12,0.97,0.38,0.34,-0.25,
2.728,0.11,0.12,0.98,0.38,0.34,-0.25,
2.731,0.11,0.12,0.98,0.38,0.34,-0.25,
2.731,0.11,0.12,0.98,0.31,0.33,-0.22,
2.733,0.11,0.12,0.98,0.31,0.33,-0.22,
2.736,0.11,0.12,0.99,0.31,0.33,-0.22,
2.736,0.11,0.12,0.99,0.28,0.33,-0.09,
2.738,0.11,0.12,0.99,0.28,0.33,-0.09,
2.74,0.11,0.12,0.99,0.28,0.33,-0.09,
2.74,0.11,0.12,0.99,0.28,0.27,-0.03,
2.742,0.11,0.11,1.00,0.28,0.27,-0.03,
2.745,0.11,0.11,1.00,0.28,0.27,-0.03,
2.745,0.11,0.11,1.00,0.24,0.27,0.03,
2.748,0.11,0.12,1.00,0.24,0.27,0.03,
2.75,0.10,0.11,1.01,0.24,0.27,0.03,
2.751,0.10,0.11,1.01,0.22,0.22,0.07,
2.753,0.10,0.11,1.00,0.22,0.22,0.07,
2.755,0.10,0.11,1.01,0.22,0.22,0.07,
2.756,0.10,0.11,1.01,0.19,0.25,0.10,
2.758,0.10,0.11,1.01,0.19,0.25,0.10,
2.76,0.09,0.11,1.00,0.19,0.25,0.10,
2.76,0.09,0.11,1.00,0.10,0.21,0.15,
2.763,0.09,0.10,1.00,0.10,0.21,0.15,
2.765,0.09,0.10,1.00,0.10,0.21,0.15,
2.765,0.09,0.10,1.00,0.09,0.17,0.15,
2.769,0.09,0.09,1.01,0.09,0.17,0.15,
2.771,0.08,0.09,1.00,0.09,0.17,0.15,
2.771,0.08,0.09,1.00,0.07,0.08,0.10,
2.772,0.08,0.09,1.00,0.07,0.08,0.10,
2.776,0.08,0.09,1.00,-0.01,-0.01,0.12,
2.776,0.08,0.08,1.00,-0.01,-0.01,0.12,
2.777,0.08,0.08,1.00,-0.01,-0.01,0.12,
2.78,0.07,0.08,1.00,-0.01,-0.01,0.12,
2.78,0.07,0.08,1.00,-0.06,-0.04,0.09,
2.783,0.07,0.08,1.00,-0.06,-0.04,0.09,
2.786,0.07,0.08,1.00,-0.06,-0.04,0.09,
2.787,0.07,0.08,1.00,-0.11,-0.09,0.08,
2.789,0.07,0.07,1.01,-0.11,-0.09,0.08,
2.789,0.07,0.07,1.00,-0.11,-0.09,0.08,
2.789,0.07,0.07,1.00,-0.12,-0.12,0.09,
2.792,0.07,0.07,1.00,-0.12,-0.12,0.09,
2.795,0.06,0.07,1.00,-0.12,-0.12,0.09,
2.796,0.06,0.07,1.00,-0.16,-0.17,0.13,
2.798,0.07,0.08,1.00,-0.16,-0.17,0.13,
2.802,0.07,0.08,1.00,-0.20,-0.17,0.07,
2.805,0.07,0.08,1.01,-0.20,-0.17,0.07,
2.805,0.07,0.07,1.01,-0.20,-0.17,0.07,
2.806,0.07,0.08,1.01,-0.20,-0.17,0.07,
2.806,0.07,0.08,1.01,-0.20,-0.14,0.13,
2.808,0.06,0.07,1.01,-0.20,-0.14,0.13,
2.81,0.07,0.07,1.01,-0.20,-0.14,0.13,
2.81,0.07,0.07,1.01,-0.19,-0.16,0.17,
2.812,0.07,0.07,1.02,-0.19,-0.16,0.17,
2.814,0.07,0.08,1.02,-0.19,-0.16,0.17,
2.814,0.07,0.08,1.02,-0.20,-0.20,0.18,
2.816,0.07,0.07,1.01,-0.20,-0.20,0.18,
2.828,0.07,0.07,1.02,-0.20,-0.20,0.18,
2.829,0.07,0.07,1.02,-0.19,-0.17,0.24,
2.829,0.07,0.07,1.02,-0.19,-0.17,0.24,
2.829,0.07,0.07,1.02,-0.19,-0.17,0.24,
2.83,0.07,0.07,1.02,-0.17,-0.20,0.24,
2.83,0.07,0.08,1.02,-0.17,-0.20,0.24,
2.831,0.07,0.08,1.02,-0.17,-0.20,0.24,
2.831,0.07,0.08,1.02,-0.18,-0.19,0.28,
2.831,0.06,0.08,1.02,-0.18,-0.19,0.28,
2.835,0.07,0.08,1.02,-0.18,-0.19,0.28,
2.835,0.07,0.08,1.02,-0.18,-0.15,0.29,
2.843,0.07,0.07,1.02,-0.18,-0.15,0.29,
2.844,0.07,0.08,1.02,-0.18,-0.15,0.29,
2.844,0.07,0.08,1.02,-0.22,-0.16,0.29,
2.844,0.07,0.08,1.02,-0.22,-0.16,0.29,
2.845,0.07,0.08,1.02,-0.22,-0.16,0.29,
2.845,0.07,0.08,1.02,-0.20,-0.16,0.30,
2.846,0.07,0.08,1.02,-0.20,-0.16,0.30,
2.849,0.07,0.08,1.02,-0.20,-0.16,0.30,
2.849,0.07,0.08,1.02,-0.17,-0.14,0.25,
2.851,0.07,0.08,1.02,-0.17,-0.14,0.25,
2.855,0.06,0.08,1.02,-0.17,-0.14,0.25,
2.855,0.06,0.08,1.02,-0.17,-0.14,0.26,
2.857,0.06,0.08,1.02,-0.17,-0.14,0.26,
2.859,0.06,0.08,1.02,-0.17,-0.14,0.26,
2.859,0.06,0.08,1.02,-0.22,-0.15,0.26,
2.861,0.06,0.08,1.01,-0.22,-0.15,0.26,
2.864,0.06,0.08,1.02,-0.22,-0.15,0.26,
2.864,0.06,0.08,1.02,-0.25,-0.13,0.24,
2.867,0.06,0.08,1.01,-0.25,-0.13,0.24,
2.869,0.06,0.08,1.01,-0.25,-0.13,0.24,
2.869,0.06,0.08,1.01,-0.23,-0.12,0.20,
2.872,0.06,0.07,1.00,-0.23,-0.12,0.20,
2.874,0.06,0.07,1.01,-0.23,-0.12,0.20,
2.874,0.06,0.07,1.01,-0.24,-0.15,0.16,
2.876,0.06,0.08,1.00,-0.24,-0.15,0.16,
2.879,0.07,0.08,1.01,-0.24,-0.15,0.16,
2.879,0.07,0.08,1.01,-0.23,-0.20,0.11,
2.881,0.07,0.08,1.01,-0.23,-0.20,0.11,
2.885,0.07,0.07,1.01,-0.23,-0.20,0.11,
2.885,0.07,0.07,1.01,-0.21,-0.15,0.11,
2.887,0.06,0.07,1.01,-0.21,-0.15,0.11,
2.889,0.07,0.07,1.01,-0.21,-0.15,0.11,
2.889,0.07,0.07,1.01,-0.20,-0.19,0.13,
2.891,0.07,0.07,1.01,-0.20,-0.19,0.13,
2.894,0.07,0.07,1.01,-0.20,-0.19,0.13,
2.894,0.07,0.07,1.01,-0.21,-0.20,0.17,
2.897,0.07,0.07,1.01,-0.21,-0.20,0.17,
2.899,0.07,0.07,1.02,-0.21,-0.20,0.17,
2.899,0.07,0.07,1.02,-0.19,-0.21,0.19,
2.901,0.07,0.07,1.01,-0.19,-0.21,0.19,
2.904,0.07,0.06,1.02,-0.19,-0.21,0.19,
2.904,0.07,0.06,1.02,-0.19,-0.24,0.19,
2.906,0.07,0.06,1.02,-0.19,-0.24,0.19,
2.908,0.07,0.06,1.02,-0.19,-0.24,0.19,
2.908,0.07,0.06,1.02,-0.19,-0.27,0.23,
2.911,0.08,0.07,1.02,-0.19,-0.27,0.23,
2.914,0.07,0.07,1.02,-0.19,-0.27,0.23,
2.914,0.07,0.07,1.02,-0.13,-0.29,0.26,
2.916,0.07,0.07,1.02,-0.13,-0.29,0.26,
2.919,0.07,0.07,1.02,-0.13,-0.29,0.26,
2.919,0.07,0.07,1.02,-0.14,-0.25,0.26,
2.921,0.07,0.07,1.03,-0.14,-0.25,0.26,
2.924,0.07,0.07,1.03,-0.14,-0.24,0.29,
2.924,0.08,0.07,1.02,-0.14,-0.24,0.29,
2.926,0.08,0.08,1.02,-0.14,-0.24,0.29,
2.929,0.08,0.08,1.02,-0.14,-0.24,0.29,
2.929,0.08,0.08,1.02,-0.10,-0.21,0.29,
2.931,0.08,0.08,1.02,-0.10,-0.21,0.29,
2.933,0.08,0.08,1.02,-0.10,-0.21,0.29,
2.934,0.08,0.08,1.02,-0.08,-0.16,0.24,
2.936,0.09,0.09,0.97,-0.08,-0.16,0.24,
2.943,0.10,0.10,0.93,-0.08,-0.16,0.24,
2.943,0.10,0.10,0.93,-0.05,-0.15,0.22,
2.943,0.12,0.11,0.91,-0.05,-0.15,0.22,
2.943,0.12,0.11,0.93,-0.05,-0.15,0.22,
2.946,0.12,0.11,0.93,0.08,0.01,-0.45,
2.946,0.11,0.11,0.96,0.08,0.01,-0.45,
2.948,0.11,0.11,0.96,0.32,0.12,-0.71,
2.948,0.10,0.11,0.98,0.32,0.12,-0.71,
2.95,0.10,0.11,0.99,0.32,0.12,-0.71,
2.953,0.09,0.11,0.99,0.32,0.12,-0.71,
2.953,0.09,0.11,0.99,0.24,0.11,-0.25,
2.955,0.08,0.11,0.99,0.24,0.11,-0.25,
2.957,0.08,0.12,1.00,0.24,0.11,-0.25,
2.958,0.08,0.12,1.00,0.15,0.16,-0.01,
2.96,0.08,0.12,1.00,0.15,0.16,-0.01,
2.963,0.09,0.13,1.00,0.15,0.16,-0.01,
2.964,0.09,0.13,1.00,0.03,0.21,-0.00,
2.967,0.09,0.13,1.01,0.03,0.21,-0.00,
2.968,0.09,0.13,1.01,0.03,0.21,-0.00,
2.968,0.09,0.13,1.01,0.03,0.31,0.03,
2.97,0.10,0.13,1.01,0.03,0.31,0.03,
2.976,0.10,0.13,1.01,0.03,0.31,0.03,
2.976,0.10,0.13,1.01,0.10,0.33,0.10,
2.977,0.11,0.12,1.02,0.10,0.33,0.10,
2.977,0.11,0.13,1.02,0.10,0.33,0.10,
2.978,0.11,0.13,1.02,0.18,0.37,0.15,
2.981,0.12,0.12,1.02,0.18,0.37,0.15,
2.982,0.12,0.12,1.02,0.18,0.37,0.15,
2.983,0.12,0.12,1.02,0.29,0.31,0.20,
2.985,0.12,0.12,1.02,0.29,0.31,0.20,
2.991,0.12,0.12,1.01,0.29,0.31,0.20,
2.993,0.12,0.12,1.01,0.34,0.25,0.25,
2.993,0.12,0.11,1.01,0.34,0.25,0.25,
2.993,0.11,0.11,1.02,0.34,0.25,0.25,
2.994,0.11,0.11,1.02,0.35,0.23,0.22,
2.995,0.11,0.11,1.01,0.35,0.23,0.22,
2.998,0.11,0.11,1.02,0.35,0.23,0.22,
2.998,0.11,0.11,1.02,0.31,0.16,0.21,
3.0,0.10,0.11,1.01,0.31,0.16,0.21,
3.003,0.10,0.11,1.01,0.31,0.16,0.21,
3.003,0.10,0.11,1.01,0.28,0.12,0.20,
3.005,0.10,0.11,1.01,0.28,0.12,0.20,
3.009,0.10,0.11,1.01,0.28,0.12,0.20,
3.009,0.10,0.11,1.01,0.18,0.10,0.18,
3.009,0.10,0.11,1.01,0.18,0.10,0.18,
3.013,0.09,0.11,1.01,0.18,0.10,0.18,
3.013,0.09,0.11,1.01,0.15,0.11,0.15,
3.015,0.09,0.10,1.00,0.15,0.11,0.15,
3.018,0.09,0.10,1.00,0.15,0.11,0.15,
3.018,0.09,0.10,1.00,0.10,0.09,0.10,
3.02,0.09,0.10,1.01,0.10,0.09,0.10,
3.029,0.09,0.10,1.00,0.10,0.09,0.10,
3.029,0.09,0.10,1.00,0.04,0.02,0.06,
3.03,0.08,0.09,1.00,0.04,0.02,0.06,
3.03,0.08,0.09,1.00,0.04,0.02,0.06,
3.03,0.08,0.09,1.00,0.02,-0.03,0.08,
3.03,0.09,0.09,0.99,0.02,-0.03,0.08,
3.032,0.08,0.09,0.99,0.02,-0.03,0.08,
3.032,0.08,0.09,0.99,-0.01,-0.09,0.05,
3.035,0.08,0.09,0.99,-0.01,-0.09,0.05,
3.038,0.07,0.09,1.00,-0.01,-0.09,0.05,
3.038,0.07,0.09,1.00,-0.01,-0.13,-0.03,
3.049,0.08,0.09,1.00,-0.01,-0.13,-0.03,
3.05,0.07,0.09,0.99,-0.01,-0.13,-0.03,
3.051,0.07,0.09,0.99,-0.10,-0.17,-0.01,
3.051,0.07,0.09,0.99,-0.10,-0.17,-0.01,
3.051,0.07,0.09,0.99,-0.10,-0.14,-0.01,
3.051,0.07,0.09,0.99,-0.10,-0.14,-0.01,
3.051,0.07,0.09,1.00,-0.10,-0.14,-0.01,
3.052,0.07,0.09,1.00,-0.10,-0.14,-0.01,
3.052,0.07,0.09,1.00,-0.12,-0.17,-0.06,
