
time,gFx,gFy,gFz,ax,ay,az,
0.005,0.06,0.20,1.03,0.18,-0.02,0.62,
0.005,0.06,0.20,1.03,0.18,-0.02,0.62,
0.006,0.07,0.20,1.02,0.18,-0.02,0.62,
0.006,0.07,0.20,1.02,0.14,-0.08,0.55,
0.006,0.08,0.20,1.00,0.14,-0.08,0.55,
0.006,0.07,0.20,0.99,0.14,-0.08,0.55,
0.006,0.07,0.20,0.99,0.23,-0.16,0.36,
0.007,0.08,0.20,0.99,0.23,-0.16,0.36,
0.008,0.07,0.20,0.98,0.23,-0.16,0.36,
0.015,0.07,0.20,0.97,0.23,-0.16,0.36,
0.015,0.07,0.20,0.97,0.24,-0.15,0.16,
0.015,0.06,0.20,0.96,0.24,-0.15,0.16,
0.016,0.06,0.20,0.96,0.22,-0.15,0.02,
0.016,0.05,0.21,0.96,0.22,-0.15,0.02,
0.017,0.05,0.22,0.96,0.22,-0.15,0.02,
0.021,0.04,0.22,0.96,0.22,-0.15,0.02,
0.021,0.04,0.22,0.96,0.12,-0.06,-0.11,
0.023,0.03,0.21,0.95,0.12,-0.06,-0.11,
0.025,0.02,0.22,0.95,0.12,-0.06,-0.11,
0.026,0.02,0.22,0.95,0.01,0.01,-0.17,
0.029,0.02,0.22,0.96,0.01,0.01,-0.17,
0.03,0.02,0.22,0.96,-0.13,0.02,-0.20,
0.031,0.02,0.22,0.96,-0.13,0.02,-0.20,
0.033,0.03,0.22,0.96,-0.13,0.02,-0.20,
0.036,0.03,0.23,0.94,-0.13,0.02,-0.20,
0.036,0.03,0.23,0.94,-0.17,0.03,-0.11,
0.038,0.05,0.25,0.90,-0.17,0.03,-0.11,
0.041,0.14,0.27,0.90,-0.17,0.03,-0.11,
0.041,0.14,0.27,0.90,-0.07,0.10,-0.26,
0.044,0.17,0.26,0.89,-0.07,0.10,-0.26,
0.046,0.14,0.26,0.92,-0.07,0.10,-0.26,
0.046,0.14,0.26,0.92,0.59,0.46,-0.73,
0.047,0.10,0.26,0.94,0.59,0.46,-0.73,
0.05,0.10,0.26,0.94,1.24,0.51,-0.64,
0.05,0.07,0.26,0.95,1.24,0.51,-0.64,
0.053,0.03,0.26,0.96,1.24,0.51,-0.64,
0.056,-0.01,0.25,0.97,1.24,0.51,-0.64,
0.056,-0.01,0.25,0.97,0.59,0.51,-0.31,
0.058,-0.03,0.24,0.98,0.59,0.51,-0.31,
0.061,-0.06,0.23,1.00,0.59,0.51,-0.31,
0.061,-0.06,0.23,1.00,-0.10,0.44,-0.10,
0.062,-0.08,0.22,1.01,-0.10,0.44,-0.10,
0.065,-0.10,0.21,1.02,-0.10,0.44,-0.10,
0.065,-0.10,0.21,1.02,-0.66,0.27,0.16,
0.068,-0.11,0.19,1.03,-0.66,0.27,0.16,
0.07,-0.12,0.18,1.03,-0.66,0.27,0.16,
0.071,-0.12,0.18,1.03,-1.04,0.08,0.39,
0.073,-0.12,0.18,1.03,-1.04,0.08,0.39,
0.075,-0.10,0.17,1.02,-1.04,0.08,0.39,
0.076,-0.10,0.17,1.02,-1.29,-0.19,0.55,
0.078,-0.08,0.16,1.01,-1.29,-0.19,0.55,
0.08,-0.08,0.16,1.01,-1.21,-0.31,0.47,
0.08,-0.06,0.17,1.00,-1.21,-0.31,0.47,
0.082,-0.03,0.18,1.00,-1.21,-0.31,0.47,
0.085,0.00,0.18,0.99,-1.21,-0.31,0.47,
0.086,0.00,0.18,0.99,-0.81,-0.36,0.30,
0.088,0.06,0.21,0.97,-0.81,-0.36,0.30,
0.09,0.22,0.27,0.83,-0.81,-0.36,0.30,
0.09,0.22,0.27,0.83,-0.25,-0.21,0.16,
0.094,0.22,0.28,0.83,-0.25,-0.21,0.16,
0.094,0.19,0.29,0.88,-0.25,-0.21,0.16,
0.095,0.19,0.29,0.88,1.26,0.35,-0.76,
0.097,0.19,0.31,0.89,1.26,0.35,-0.76,
0.1,0.18,0.34,0.91,1.26,0.35,-0.76,
0.1,0.18,0.34,0.91,1.86,0.85,-1.18,
0.103,0.17,0.35,0.93,1.86,0.85,-1.18,
0.105,0.17,0.35,0.93,1.66,1.23,-0.72,
0.105,0.16,0.36,0.95,1.66,1.23,-0.72,
0.107,0.14,0.37,0.97,1.66,1.23,-0.72,
0.111,0.14,0.37,0.98,1.66,1.23,-0.72,
0.112,0.14,0.37,0.98,1.43,1.52,-0.33,
0.112,0.13,0.37,0.99,1.43,1.52,-0.33,
0.114,0.13,0.36,1.00,1.43,1.52,-0.33,
0.115,0.13,0.36,1.00,1.20,1.67,0.01,
0.117,0.12,0.35,1.00,1.20,1.67,0.01,
0.12,0.12,0.35,1.00,1.08,1.59,0.19,
0.12,0.12,0.34,1.01,1.08,1.59,0.19,
0.121,0.12,0.32,1.01,1.08,1.59,0.19,
0.131,0.11,0.31,1.02,1.08,1.59,0.19,
0.132,0.11,0.31,1.02,1.00,1.42,0.30,
0.132,0.10,0.29,1.03,1.00,1.42,0.30,
0.132,0.10,0.29,1.03,0.93,1.14,0.39,
0.132,0.10,0.27,1.02,0.93,1.14,0.39,
0.133,0.09,0.26,1.02,0.93,1.14,0.39,
0.134,0.08,0.25,1.02,0.93,1.14,0.39,
0.134,0.08,0.25,1.02,0.82,0.82,0.46,
0.136,0.07,0.24,1.03,0.82,0.82,0.46,
0.139,0.06,0.23,1.03,0.82,0.82,0.46,
0.139,0.06,0.23,1.03,0.69,0.58,0.40,
0.141,0.05,0.22,1.02,0.69,0.58,0.40,
0.144,0.04,0.22,1.02,0.69,0.58,0.40,
0.144,0.04,0.22,1.02,0.53,0.43,0.48,
0.146,0.03,0.22,1.01,0.53,0.43,0.48,
0.149,0.02,0.22,1.01,0.53,0.43,0.48,
0.149,0.02,0.22,1.01,0.35,0.31,0.41,
0.151,0.02,0.22,1.01,0.35,0.31,0.41,
0.154,0.02,0.22,1.01,0.18,0.32,0.29,
0.154,0.01,0.22,1.00,0.18,0.32,0.29,
0.156,-0.00,0.22,1.00,0.18,0.32,0.29,
0.16,-0.01,0.22,0.99,0.18,0.32,0.29,
0.163,-0.01,0.22,0.99,0.05,0.29,0.24,
0.163,-0.02,0.22,0.99,0.05,0.29,0.24,
0.164,-0.02,0.22,1.00,0.05,0.29,0.24,
0.164,-0.02,0.22,1.00,-0.09,0.32,0.13,
0.166,-0.03,0.22,0.99,-0.09,0.32,0.13,
0.169,-0.03,0.22,0.99,-0.18,0.32,0.11,
0.169,-0.03,0.22,1.00,-0.18,0.32,0.11,
0.171,-0.04,0.22,0.99,-0.18,0.32,0.11,
0.174,-0.05,0.21,1.00,-0.18,0.32,0.11,
0.174,-0.05,0.21,1.00,-0.28,0.31,0.13,
0.177,-0.05,0.21,1.00,-0.28,0.31,0.13,
0.179,-0.05,0.21,1.00,-0.37,0.29,0.12,
0.18,-0.05,0.20,0.99,-0.37,0.29,0.12,
0.181,-0.06,0.20,0.99,-0.37,0.29,0.12,
0.184,-0.07,0.20,0.99,-0.37,0.29,0.12,
0.184,-0.07,0.20,0.99,-0.44,0.21,0.11,
0.186,-0.08,0.20,0.99,-0.44,0.21,0.11,
0.189,-0.08,0.19,0.99,-0.44,0.21,0.11,
0.19,-0.08,0.19,0.99,-0.52,0.18,0.07,
0.191,-0.09,0.19,0.99,-0.52,0.18,0.07,
0.194,-0.09,0.18,0.99,-0.52,0.18,0.07,
0.194,-0.09,0.18,0.99,-0.65,0.12,0.07,
0.195,-0.10,0.18,0.99,-0.65,0.12,0.07,
0.198,-0.11,0.18,0.99,-0.65,0.12,0.07,
0.199,-0.11,0.18,0.99,-0.73,0.04,0.08,
0.201,-0.12,0.17,0.99,-0.73,0.04,0.08,
0.203,-0.12,0.17,0.99,-0.88,-0.00,0.05,
0.204,-0.13,0.17,0.99,-0.88,-0.00,0.05,
0.205,-0.13,0.17,0.99,-0.88,-0.00,0.05,
0.208,-0.15,0.17,1.00,-0.88,-0.00,0.05,
0.209,-0.15,0.17,1.00,-1.02,-0.07,0.06,
0.211,-0.15,0.16,1.00,-1.02,-0.07,0.06,
0.213,-0.16,0.17,1.00,-1.02,-0.07,0.06,
0.213,-0.16,0.17,1.00,-1.18,-0.09,0.12,
0.215,-0.17,0.16,1.01,-1.18,-0.09,0.12,
0.218,-0.18,0.16,1.00,-1.18,-0.09,0.12,
0.219,-0.18,0.16,1.00,-1.33,-0.11,0.19,
0.22,-0.18,0.16,0.99,-1.33,-0.11,0.19,
0.223,-0.19,0.15,1.00,-1.33,-0.11,0.19,
0.223,-0.19,0.15,1.00,-1.47,-0.14,0.19,
0.225,-0.19,0.16,0.99,-1.47,-0.14,0.19,
0.23,-0.19,0.16,0.99,-1.59,-0.20,0.11,
0.23,-0.20,0.16,0.99,-1.59,-0.20,0.11,
0.23,-0.20,0.15,1.00,-1.59,-0.20,0.11,
0.234,-0.20,0.15,1.00,-1.65,-0.18,0.08,
0.234,-0.21,0.15,0.99,-1.65,-0.18,0.08,
0.236,-0.22,0.15,0.98,-1.65,-0.18,0.08,
0.238,-0.22,0.15,0.97,-1.65,-0.18,0.08,
0.239,-0.22,0.15,0.97,-1.73,-0.22,0.07,
0.241,-0.22,0.15,0.97,-1.73,-0.22,0.07,
0.246,-0.23,0.15,0.96,-1.73,-0.22,0.07,
0.246,-0.23,0.15,0.96,-1.82,-0.23,-0.05,
0.246,-0.23,0.15,0.95,-1.82,-0.23,-0.05,
0.249,-0.23,0.15,0.95,-1.86,-0.21,-0.19,
0.249,-0.23,0.15,0.95,-1.86,-0.21,-0.19,
0.251,-0.23,0.15,0.95,-1.86,-0.21,-0.19,
0.254,-0.23,0.15,0.95,-1.89,-0.23,-0.31,
0.254,-0.24,0.15,0.94,-1.89,-0.23,-0.31,
0.256,-0.24,0.15,0.93,-1.89,-0.23,-0.31,
0.258,-0.24,0.15,0.93,-1.89,-0.23,-0.31,
0.259,-0.24,0.15,0.93,-1.92,-0.21,-0.41,
0.261,-0.25,0.15,0.92,-1.92,-0.21,-0.41,
0.263,-0.25,0.15,0.92,-1.92,-0.21,-0.41,
0.263,-0.25,0.15,0.92,-1.93,-0.21,-0.50,
0.265,-0.25,0.15,0.92,-1.93,-0.21,-0.50,
0.268,-0.25,0.15,0.92,-1.93,-0.21,-0.50,
0.269,-0.25,0.15,0.92,-1.97,-0.22,-0.61,
0.271,-0.25,0.15,0.91,-1.97,-0.22,-0.61,
0.273,-0.25,0.15,0.91,-1.99,-0.22,-0.63,
0.273,-0.26,0.15,0.91,-1.99,-0.22,-0.63,
0.275,-0.26,0.14,0.91,-1.99,-0.22,-0.63,
0.278,-0.26,0.14,0.91,-2.02,-0.22,-0.70,
0.279,-0.27,0.14,0.91,-2.02,-0.22,-0.70,
0.28,-0.27,0.14,0.91,-2.02,-0.22,-0.70,
0.283,-0.27,0.14,0.91,-2.10,-0.28,-0.71,
0.283,-0.28,0.14,0.90,-2.10,-0.28,-0.71,
0.286,-0.29,0.13,0.91,-2.10,-0.28,-0.71,
0.288,-0.30,0.13,0.91,-2.10,-0.28,-0.71,
0.288,-0.30,0.13,0.91,-2.16,-0.27,-0.77,
0.29,-0.30,0.13,0.91,-2.16,-0.27,-0.77,
0.293,-0.31,0.12,0.90,-2.16,-0.27,-0.77,
0.293,-0.31,0.12,0.90,-2.30,-0.34,-0.73,
0.295,-0.31,0.12,0.90,-2.30,-0.34,-0.73,
0.298,-0.32,0.12,0.91,-2.30,-0.34,-0.73,
0.299,-0.32,0.12,0.91,-2.43,-0.38,-0.74,
0.3,-0.33,0.11,0.91,-2.43,-0.38,-0.74,
0.303,-0.33,0.11,0.91,-2.52,-0.43,-0.76,
0.303,-0.33,0.11,0.91,-2.52,-0.43,-0.76,
0.305,-0.33,0.10,0.92,-2.52,-0.43,-0.76,
0.308,-0.33,0.10,0.92,-2.52,-0.43,-0.76,
0.308,-0.33,0.10,0.92,-2.61,-0.51,-0.72,
0.31,-0.33,0.10,0.92,-2.61,-0.51,-0.72,
0.312,-0.32,0.10,0.92,-2.61,-0.51,-0.72,
0.313,-0.32,0.10,0.92,-2.60,-0.58,-0.61,
0.315,-0.32,0.09,0.92,-2.60,-0.58,-0.61,
0.318,-0.32,0.09,0.92,-2.55,-0.63,-0.62,
0.318,-0.32,0.09,0.91,-2.55,-0.63,-0.62,
0.32,-0.32,0.09,0.92,-2.55,-0.63,-0.62,
0.323,-0.32,0.09,0.92,-2.52,-0.68,-0.64,
0.323,-0.31,0.09,0.93,-2.52,-0.68,-0.64,
0.326,-0.31,0.09,0.93,-2.52,-0.68,-0.64,
0.328,-0.30,0.09,0.94,-2.52,-0.68,-0.64,
0.329,-0.30,0.09,0.94,-2.43,-0.68,-0.51,
0.33,-0.30,0.09,0.94,-2.43,-0.68,-0.51,
0.333,-0.29,0.09,0.95,-2.43,-0.68,-0.51,
0.333,-0.29,0.09,0.95,-2.35,-0.69,-0.44,
0.335,-0.29,0.09,0.94,-2.35,-0.69,-0.44,
0.338,-0.28,0.09,0.95,-2.35,-0.69,-0.44,
0.338,-0.28,0.09,0.95,-2.28,-0.69,-0.37,
0.34,-0.27,0.09,0.95,-2.28,-0.69,-0.37,
0.343,-0.27,0.08,0.95,-2.28,-0.69,-0.37,
0.343,-0.27,0.08,0.95,-2.17,-0.69,-0.33,
0.348,-0.26,0.08,0.96,-2.17,-0.69,-0.33,
0.349,-0.26,0.09,0.97,-2.17,-0.69,-0.33,
0.349,-0.26,0.09,0.97,-2.04,-0.72,-0.29,
0.349,-0.26,0.09,0.97,-2.04,-0.72,-0.29,
0.352,-0.26,0.09,0.97,-1.97,-0.72,-0.14,
0.352,-0.25,0.09,0.97,-1.97,-0.72,-0.14,
0.354,-0.25,0.09,0.97,-1.97,-0.72,-0.14,
0.357,-0.24,0.09,0.97,-1.97,-0.72,-0.14,
0.357,-0.24,0.09,0.97,-1.90,-0.71,-0.13,
0.359,-0.24,0.09,0.98,-1.90,-0.71,-0.13,
0.363,-0.24,0.08,0.98,-1.90,-0.71,-0.13,
0.363,-0.24,0.08,0.98,-1.84,-0.66,-0.11,
0.364,-0.24,0.09,0.98,-1.84,-0.66,-0.11,
0.367,-0.23,0.09,0.98,-1.84,-0.66,-0.11,
0.367,-0.23,0.09,0.98,-1.76,-0.71,0.03,
0.369,-0.23,0.09,0.99,-1.76,-0.71,0.03,
0.372,-0.23,0.09,0.99,-1.76,-0.71,0.03,
0.372,-0.23,0.09,0.99,-1.74,-0.67,0.03,
0.374,-0.22,0.09,0.99,-1.74,-0.67,0.03,
0.378,-0.22,0.09,0.99,-1.68,-0.66,0.05,
0.378,-0.22,0.09,0.98,-1.68,-0.66,0.05,
0.38,-0.22,0.10,0.98,-1.68,-0.66,0.05,
0.382,-0.22,0.10,0.98,-1.68,-0.66,0.05,
0.383,-0.22,0.10,0.98,-1.64,-0.65,0.06,
0.384,-0.22,0.10,0.98,-1.64,-0.65,0.06,
0.386,-0.22,0.10,0.98,-1.61,-0.60,0.03,
0.387,-0.22,0.10,0.98,-1.61,-0.60,0.03,
0.389,-0.22,0.10,0.98,-1.61,-0.60,0.03,
0.391,-0.22,0.10,0.98,-1.61,-0.60,0.03,
0.392,-0.22,0.10,0.98,-1.57,-0.59,0.00,
0.395,-0.22,0.10,0.98,-1.57,-0.59,0.00,
0.396,-0.22,0.10,0.97,-1.57,-0.59,0.00,
0.397,-0.22,0.10,0.97,-1.55,-0.57,-0.01,
0.399,-0.22,0.11,0.97,-1.55,-0.57,-0.01,
0.401,-0.22,0.11,0.97,-1.58,-0.54,-0.05,
0.402,-0.22,0.10,0.97,-1.58,-0.54,-0.05,
0.404,-0.22,0.10,0.96,-1.58,-0.54,-0.05,
0.406,-0.22,0.10,0.96,-1.58,-0.54,-0.05,
0.406,-0.22,0.10,0.96,-1.58,-0.51,-0.09,
0.408,-0.23,0.10,0.96,-1.58,-0.51,-0.09,
0.411,-0.23,0.09,0.96,-1.58,-0.51,-0.09,
0.412,-0.23,0.09,0.96,-1.58,-0.59,-0.19,
0.413,-0.23,0.09,0.96,-1.58,-0.59,-0.19,
0.416,-0.23,0.09,0.96,-1.58,-0.59,-0.19,
0.416,-0.23,0.09,0.96,-1.64,-0.61,-0.20,
0.419,-0.23,0.08,0.96,-1.64,-0.61,-0.20,
0.421,-0.23,0.08,0.96,-1.64,-0.61,-0.20,
0.421,-0.23,0.08,0.96,-1.61,-0.68,-0.18,
0.423,-0.22,0.07,0.97,-1.61,-0.68,-0.18,
0.426,-0.22,0.07,0.97,-1.59,-0.73,-0.19,
0.426,-0.22,0.07,0.97,-1.59,-0.73,-0.19,
0.429,-0.22,0.06,0.97,-1.59,-0.73,-0.19,
0.431,-0.22,0.06,0.97,-1.59,-0.73,-0.19,
0.431,-0.22,0.06,0.97,-1.54,-0.84,-0.12,
0.433,-0.21,0.06,0.97,-1.54,-0.84,-0.12,
0.436,-0.21,0.05,0.97,-1.54,-0.84,-0.12,
0.436,-0.21,0.05,0.97,-1.52,-0.89,-0.11,
0.438,-0.20,0.05,0.97,-1.52,-0.89,-0.11,
0.441,-0.19,0.05,0.97,-1.52,-0.89,-0.11,
0.441,-0.19,0.05,0.97,-1.40,-0.92,-0.09,
0.443,-0.19,0.06,0.97,-1.40,-0.92,-0.09,
0.446,-0.18,0.06,0.96,-1.40,-0.92,-0.09,
0.446,-0.18,0.06,0.96,-1.30,-0.98,-0.11,
0.448,-0.17,0.06,0.96,-1.30,-0.98,-0.11,
0.451,-0.17,0.06,0.96,-1.17,-0.94,-0.16,
0.451,-0.17,0.06,0.95,-1.17,-0.94,-0.16,
0.453,-0.16,0.06,0.95,-1.17,-0.94,-0.16,
0.456,-0.16,0.06,0.95,-1.17,-0.94,-0.16,
0.456,-0.16,0.06,0.95,-1.04,-0.94,-0.24,
0.458,-0.14,0.05,0.94,-1.04,-0.94,-0.24,
0.466,-0.14,0.06,0.94,-1.04,-0.94,-0.24,
0.466,-0.14,0.06,0.94,-0.94,-0.94,-0.26,
0.466,-0.13,0.06,0.94,-0.94,-0.94,-0.26,
0.466,-0.13,0.06,0.94,-0.94,-0.94,-0.26,
0.468,-0.13,0.06,0.94,-0.77,-0.95,-0.37,
0.468,-0.12,0.06,0.94,-0.77,-0.95,-0.37,
0.471,-0.12,0.06,0.94,-0.77,-0.95,-0.37,
0.471,-0.12,0.06,0.94,-0.68,-0.92,-0.40,
0.473,-0.11,0.07,0.94,-0.68,-0.92,-0.40,
0.476,-0.11,0.07,0.94,-0.59,-0.89,-0.39,
0.476,-0.12,0.07,0.94,-0.59,-0.89,-0.39,
0.478,-0.11,0.08,0.93,-0.59,-0.89,-0.39,
0.481,-0.11,0.08,0.93,-0.59,-0.89,-0.39,
0.481,-0.11,0.08,0.93,-0.54,-0.82,-0.40,
0.484,-0.10,0.08,0.93,-0.54,-0.82,-0.40,
0.485,-0.10,0.08,0.93,-0.54,-0.82,-0.40,
0.486,-0.10,0.08,0.93,-0.50,-0.78,-0.43,
0.488,-0.10,0.08,0.93,-0.50,-0.78,-0.43,
0.491,-0.10,0.08,0.93,-0.42,-0.74,-0.46,
0.492,-0.09,0.08,0.93,-0.42,-0.74,-0.46,
0.493,-0.09,0.08,0.92,-0.42,-0.74,-0.46,
0.496,-0.09,0.08,0.92,-0.36,-0.73,-0.50,
0.496,-0.09,0.08,0.92,-0.36,-0.73,-0.50,
0.498,-0.08,0.08,0.92,-0.36,-0.73,-0.50,
0.501,-0.09,0.07,0.92,-0.36,-0.73,-0.50,
0.501,-0.09,0.07,0.92,-0.28,-0.76,-0.57,
0.503,-0.08,0.07,0.91,-0.28,-0.76,-0.57,
0.507,-0.08,0.07,0.91,-0.28,-0.76,-0.57,
0.508,-0.08,0.07,0.91,-0.28,-0.79,-0.59,
0.508,-0.08,0.06,0.91,-0.28,-0.79,-0.59,
0.511,-0.08,0.06,0.90,-0.28,-0.79,-0.59,
0.511,-0.08,0.06,0.90,-0.22,-0.87,-0.64,
0.513,-0.07,0.05,0.90,-0.22,-0.87,-0.64,
0.516,-0.08,0.05,0.90,-0.22,-0.87,-0.64,
0.516,-0.08,0.05,0.90,-0.20,-0.95,-0.69,
0.517,-0.08,0.04,0.90,-0.20,-0.95,-0.69,
0.52,-0.08,0.03,0.90,-0.20,-0.95,-0.69,
0.52,-0.08,0.03,0.90,-0.16,-1.04,-0.73,
0.523,-0.08,0.03,0.90,-0.16,-1.04,-0.73,
0.526,-0.08,0.03,0.90,-0.18,-1.17,-0.76,
0.526,-0.08,0.02,0.90,-0.18,-1.17,-0.76,
0.528,-0.08,0.02,0.90,-0.18,-1.17,-0.76,
0.53,-0.08,0.02,0.91,-0.18,-1.17,-0.76,
0.53,-0.08,0.02,0.91,-0.21,-1.25,-0.73,
0.533,-0.08,0.02,0.90,-0.21,-1.25,-0.73,
0.536,-0.07,0.02,0.91,-0.21,-1.25,-0.73,
0.536,-0.07,0.02,0.91,-0.21,-1.33,-0.69,
0.538,-0.07,0.02,0.92,-0.21,-1.33,-0.69,
0.541,-0.07,0.02,0.92,-0.21,-1.33,-0.69,
0.541,-0.07,0.02,0.92,-0.19,-1.35,-0.66,
0.543,-0.06,0.02,0.93,-0.19,-1.35,-0.66,
0.55,-0.06,0.02,0.93,-0.19,-1.35,-0.66,
0.55,-0.06,0.02,0.93,-0.13,-1.33,-0.56,
0.55,-0.05,0.02,0.94,-0.13,-1.33,-0.56,
0.55,-0.05,0.02,0.94,-0.04,-1.33,-0.47,
0.551,-0.04,0.02,0.94,-0.04,-1.33,-0.47,
0.552,-0.03,0.02,0.94,-0.04,-1.33,-0.47,
0.555,-0.03,0.02,0.95,-0.04,-1.33,-0.47,
0.555,-0.03,0.02,0.95,0.10,-1.32,-0.37,
0.558,-0.02,0.02,0.94,0.10,-1.32,-0.37,
0.56,-0.01,0.02,0.94,0.10,-1.32,-0.37,
0.561,-0.01,0.02,0.94,0.22,-1.30,-0.32,
0.563,-0.01,0.02,0.94,0.22,-1.30,-0.32,
0.565,0.00,0.02,0.94,0.22,-1.30,-0.32,
0.565,0.00,0.02,0.94,0.35,-1.29,-0.30,
0.567,0.01,0.02,0.93,0.35,-1.29,-0.30,
0.57,0.02,0.02,0.93,0.35,-1.29,-0.30,
0.57,0.02,0.02,0.93,0.46,-1.31,-0.35,
0.573,0.02,0.02,0.93,0.46,-1.31,-0.35,
0.576,0.02,0.02,0.93,0.59,-1.27,-0.40,
0.576,0.03,0.02,0.92,0.59,-1.27,-0.40,
0.578,0.04,0.02,0.93,0.59,-1.27,-0.40,
0.58,0.05,0.02,0.92,0.59,-1.27,-0.40,
0.58,0.05,0.02,0.92,0.72,-1.29,-0.47,
0.583,0.05,0.02,0.92,0.72,-1.29,-0.47,
0.585,0.06,0.03,0.92,0.72,-1.29,-0.47,
0.585,0.06,0.03,0.92,0.86,-1.27,-0.48,
0.588,0.07,0.03,0.92,0.86,-1.27,-0.48,
0.59,0.07,0.03,0.92,0.86,-1.27,-0.48,
0.591,0.07,0.03,0.92,0.98,-1.25,-0.57,
0.592,0.06,0.03,0.92,0.98,-1.25,-0.57,
0.595,0.06,0.03,0.92,0.98,-1.25,-0.57,
0.595,0.06,0.03,0.92,1.07,-1.20,-0.51,
0.597,0.07,0.04,0.92,1.07,-1.20,-0.51,
0.6,0.07,0.04,0.92,1.02,-1.16,-0.53,
0.6,0.07,0.04,0.92,1.02,-1.16,-0.53,
0.602,0.08,0.04,0.92,1.02,-1.16,-0.53,
0.605,0.08,0.03,0.91,1.02,-1.16,-0.53,
0.605,0.08,0.03,0.91,1.08,-1.14,-0.52,
0.608,0.07,0.04,0.91,1.08,-1.14,-0.52,
0.61,0.07,0.04,0.91,1.08,-1.14,-0.52,
0.61,0.07,0.04,0.91,1.14,-1.16,-0.58,
0.612,0.08,0.03,0.91,1.14,-1.16,-0.58,
0.615,0.08,0.03,0.91,1.14,-1.16,-0.58,
0.615,0.08,0.03,0.91,1.08,-1.13,-0.61,
0.617,0.07,0.03,0.91,1.08,-1.13,-0.61,
0.62,0.07,0.03,0.91,1.08,-1.13,-0.61,
0.62,0.07,0.03,0.91,1.11,-1.19,-0.60,
0.622,0.07,0.03,0.91,1.11,-1.19,-0.60,
0.625,0.07,0.03,0.91,1.03,-1.15,-0.64,
0.625,0.07,0.03,0.91,1.03,-1.15,-0.64,
0.627,0.07,0.03,0.90,1.03,-1.15,-0.64,
0.629,0.07,0.03,0.90,1.03,-1.15,-0.64,
0.63,0.07,0.03,0.90,1.04,-1.20,-0.63,
0.631,0.07,0.03,0.90,1.04,-1.20,-0.63,
0.635,0.07,0.03,0.90,1.04,-1.20,-0.63,
0.635,0.07,0.03,0.90,1.04,-1.20,-0.69,
0.637,0.08,0.03,0.90,1.04,-1.20,-0.69,
0.64,0.08,0.02,0.90,1.04,-1.20,-0.69,
0.64,0.08,0.02,0.90,1.04,-1.21,-0.67,
0.642,0.08,0.02,0.91,1.04,-1.21,-0.67,
0.645,0.09,0.03,0.91,1.04,-1.21,-0.67,
0.645,0.09,0.03,0.91,1.10,-1.24,-0.65,
0.647,0.09,0.02,0.91,1.10,-1.24,-0.65,
0.65,0.10,0.02,0.91,1.10,-1.24,-0.65,
0.65,0.10,0.02,0.91,1.14,-1.24,-0.63,
0.652,0.10,0.02,0.91,1.14,-1.24,-0.63,
0.655,0.11,0.02,0.91,1.14,-1.24,-0.63,
0.657,0.11,0.02,0.91,1.20,-1.27,-0.60,
0.657,0.11,0.02,0.91,1.20,-1.27,-0.60,
0.66,0.12,0.01,0.92,1.20,-1.27,-0.60,
0.66,0.12,0.01,0.92,1.31,-1.29,-0.57,
0.663,0.13,0.01,0.92,1.31,-1.29,-0.57,
0.664,0.13,0.01,0.92,1.39,-1.33,-0.53,
0.665,0.13,0.02,0.92,1.39,-1.33,-0.53,
0.666,0.14,0.02,0.92,1.39,-1.33,-0.53,
0.669,0.14,0.02,0.92,1.50,-1.31,-0.53,
0.67,0.15,0.02,0.92,1.50,-1.31,-0.53,
0.672,0.16,0.02,0.93,1.50,-1.31,-0.53,
0.674,0.16,0.02,0.93,1.63,-1.29,-0.48,
0.675,0.17,0.02,0.92,1.63,-1.29,-0.48,
0.677,0.17,0.02,0.92,1.63,-1.29,-0.48,
0.683,0.17,0.03,0.93,1.63,-1.29,-0.48,
0.684,0.17,0.03,0.93,1.76,-1.25,-0.42,
0.684,0.17,0.03,0.93,1.76,-1.25,-0.42,
0.684,0.18,0.03,0.93,1.76,-1.25,-0.42,
0.684,0.18,0.03,0.93,1.86,-1.22,-0.43,
0.689,0.18,0.03,0.93,1.86,-1.22,-0.43,
0.689,0.18,0.03,0.93,1.86,-1.22,-0.43,
0.69,0.18,0.03,0.93,1.86,-1.18,-0.39,
0.691,0.19,0.03,0.92,1.86,-1.18,-0.39,
0.694,0.19,0.04,0.93,1.86,-1.18,-0.39,
0.694,0.19,0.04,0.93,1.89,-1.14,-0.40,
0.697,0.20,0.04,0.92,1.89,-1.14,-0.40,
0.699,0.20,0.04,0.92,1.95,-1.08,-0.46,
0.699,0.20,0.04,0.92,1.95,-1.08,-0.46,
0.701,0.21,0.04,0.91,1.95,-1.08,-0.46,
0.704,0.21,0.04,0.92,1.95,-1.08,-0.46,
0.704,0.21,0.04,0.92,2.06,-1.08,-0.46,
0.706,0.22,0.04,0.92,2.06,-1.08,-0.46,
0.709,0.22,0.04,0.92,2.06,-1.08,-0.46,
0.709,0.22,0.04,0.92,2.12,-1.05,-0.49,
0.711,0.22,0.04,0.92,2.12,-1.05,-0.49,
0.713,0.23,0.04,0.92,2.12,-1.05,-0.49,
0.714,0.23,0.04,0.92,2.19,-1.05,-0.47,
0.716,0.23,0.04,0.92,2.19,-1.05,-0.47,
0.718,0.23,0.04,0.92,2.19,-1.05,-0.47,
0.719,0.23,0.04,0.92,2.22,-1.04,-0.45,
0.721,0.23,0.03,0.92,2.22,-1.04,-0.45,
0.724,0.23,0.03,0.92,2.29,-1.06,-0.46,
0.724,0.24,0.04,0.92,2.29,-1.06,-0.46,
0.726,0.24,0.04,0.92,2.29,-1.06,-0.46,
0.731,0.24,0.04,0.92,2.29,-1.06,-0.46,
0.731,0.24,0.04,0.92,2.32,-1.07,-0.50,
0.731,0.24,0.04,0.92,2.32,-1.07,-0.50,
0.733,0.24,0.04,0.91,2.32,-1.07,-0.50,
0.734,0.24,0.04,0.91,2.31,-1.01,-0.47,
0.736,0.24,0.05,0.91,2.31,-1.01,-0.47,
0.738,0.25,0.05,0.91,2.31,-1.01,-0.47,
0.738,0.25,0.05,0.91,2.30,-0.99,-0.53,
0.74,0.25,0.05,0.91,2.30,-0.99,-0.53,
0.743,0.25,0.06,0.90,2.30,-0.99,-0.53,
0.743,0.25,0.06,0.90,2.35,-0.93,-0.58,
0.747,0.25,0.06,0.90,2.35,-0.93,-0.58,
0.748,0.25,0.06,0.90,2.36,-0.87,-0.61,
0.748,0.25,0.06,0.90,2.36,-0.87,-0.61,
0.75,0.26,0.06,0.90,2.36,-0.87,-0.61,
0.753,0.26,0.07,0.89,2.36,-0.87,-0.61,
0.753,0.26,0.07,0.89,2.37,-0.81,-0.63,
0.755,0.25,0.07,0.89,2.37,-0.81,-0.63,
0.759,0.26,0.07,0.89,2.37,-0.81,-0.63,
0.759,0.26,0.07,0.89,2.39,-0.79,-0.66,
0.76,0.26,0.07,0.89,2.39,-0.79,-0.66,
0.764,0.26,0.07,0.89,2.39,-0.79,-0.66,
0.764,0.26,0.07,0.89,2.38,-0.72,-0.71,
0.765,0.26,0.07,0.89,2.38,-0.72,-0.71,
0.768,0.26,0.08,0.90,2.38,-0.72,-0.71,
0.768,0.26,0.08,0.90,2.41,-0.72,-0.70,
0.77,0.26,0.08,0.89,2.41,-0.72,-0.70,
0.773,0.26,0.08,0.89,2.41,-0.67,-0.71,
0.773,0.26,0.08,0.89,2.41,-0.67,-0.71,
0.775,0.26,0.08,0.89,2.41,-0.67,-0.71,
0.784,0.26,0.08,0.89,2.41,-0.67,-0.71,
0.785,0.27,0.08,0.90,2.41,-0.67,-0.71,
0.785,0.27,0.08,0.90,2.39,-0.65,-0.72,
0.786,0.27,0.08,0.90,2.39,-0.65,-0.72,
0.786,0.27,0.08,0.90,2.37,-0.63,-0.70,
0.786,0.27,0.08,0.89,2.37,-0.63,-0.70,
0.788,0.27,0.08,0.89,2.37,-0.63,-0.70,
0.788,0.27,0.08,0.89,2.38,-0.57,-0.65,
0.79,0.27,0.07,0.90,2.38,-0.57,-0.65,
0.792,0.27,0.07,0.90,2.38,-0.57,-0.65,
0.793,0.27,0.07,0.90,2.38,-0.56,-0.69,
0.795,0.27,0.08,0.89,2.38,-0.56,-0.69,
0.798,0.27,0.08,0.89,2.40,-0.61,-0.63,
0.798,0.28,0.07,0.90,2.40,-0.61,-0.63,
0.8,0.28,0.08,0.90,2.40,-0.61,-0.63,
0.803,0.29,0.08,0.91,2.40,-0.61,-0.63,
0.803,0.29,0.08,0.91,2.42,-0.58,-0.69,
0.805,0.29,0.08,0.90,2.42,-0.58,-0.69,
0.808,0.29,0.08,0.90,2.47,-0.52,-0.59,
0.809,0.30,0.08,0.90,2.47,-0.52,-0.59,
0.81,0.31,0.09,0.91,2.47,-0.52,-0.59,
0.815,0.31,0.09,0.91,2.47,-0.52,-0.59,
0.817,0.31,0.09,0.91,2.56,-0.48,-0.61,
0.818,0.32,0.09,0.91,2.56,-0.48,-0.61,
0.818,0.32,0.09,0.91,2.70,-0.41,-0.55,
0.818,0.34,0.09,0.92,2.70,-0.41,-0.55,
0.82,0.34,0.09,0.92,2.70,-0.41,-0.55,
0.823,0.34,0.09,0.92,2.87,-0.38,-0.48,
0.823,0.35,0.09,0.93,2.87,-0.38,-0.48,
0.825,0.35,0.10,0.93,2.87,-0.38,-0.48,
0.828,0.36,0.10,0.94,2.87,-0.38,-0.48,
0.828,0.36,0.10,0.94,3.00,-0.34,-0.36,
0.83,0.36,0.11,0.95,3.00,-0.34,-0.36,
0.834,0.36,0.11,0.95,3.00,-0.34,-0.36,
0.834,0.36,0.11,0.95,3.06,-0.22,-0.26,
0.834,0.36,0.11,0.96,3.06,-0.22,-0.26,
0.838,0.36,0.11,0.96,3.06,-0.22,-0.26,
0.838,0.36,0.11,0.96,3.11,-0.15,-0.14,
0.84,0.36,0.12,0.97,3.11,-0.15,-0.14,
0.842,0.36,0.12,0.97,3.11,-0.15,-0.14,
0.843,0.36,0.12,0.97,3.09,-0.10,-0.07,
0.845,0.36,0.12,0.97,3.09,-0.10,-0.07,
0.847,0.36,0.12,0.97,3.02,-0.00,0.02,
0.847,0.36,0.12,0.97,3.02,-0.00,0.02,
0.849,0.35,0.12,0.97,3.02,-0.00,0.02,
0.853,0.35,0.12,0.97,2.99,0.05,0.01,
0.853,0.34,0.12,0.96,2.99,0.05,0.01,
0.855,0.34,0.12,0.95,2.99,0.05,0.01,
0.857,0.34,0.12,0.95,2.99,0.05,0.01,
0.857,0.34,0.12,0.95,2.87,0.08,-0.02,
0.86,0.33,0.12,0.95,2.87,0.08,-0.02,
0.863,0.33,0.12,0.95,2.79,0.10,-0.11,
0.863,0.33,0.12,0.94,2.79,0.10,-0.11,
0.865,0.32,0.12,0.94,2.79,0.10,-0.11,
0.867,0.31,0.13,0.93,2.79,0.10,-0.11,
0.867,0.31,0.13,0.93,2.68,0.11,-0.21,
0.87,0.31,0.13,0.93,2.68,0.11,-0.21,
0.873,0.31,0.13,0.93,2.52,0.15,-0.28,
0.873,0.31,0.12,0.93,2.52,0.15,-0.28,
0.874,0.30,0.12,0.93,2.52,0.15,-0.28,
0.877,0.29,0.12,0.93,2.52,0.15,-0.28,
0.878,0.29,0.12,0.93,2.45,0.18,-0.35,
0.879,0.29,0.13,0.92,2.45,0.18,-0.35,
0.884,0.28,0.12,0.92,2.45,0.18,-0.35,
0.885,0.28,0.12,0.92,2.31,0.17,-0.36,
0.885,0.28,0.12,0.92,2.31,0.17,-0.36,
0.886,0.28,0.12,0.92,2.31,0.17,-0.36,
0.887,0.28,0.12,0.92,2.21,0.19,-0.44,
0.889,0.28,0.12,0.93,2.21,0.19,-0.44,
0.892,0.28,0.12,0.92,2.21,0.19,-0.44,
0.893,0.28,0.12,0.92,2.14,0.16,-0.41,
0.895,0.28,0.11,0.92,2.14,0.16,-0.41,
0.898,0.28,0.11,0.92,2.16,0.15,-0.39,
0.898,0.29,0.11,0.92,2.16,0.15,-0.39,
0.899,0.28,0.11,0.93,2.16,0.15,-0.39,
0.902,0.29,0.11,0.93,2.16,0.15,-0.39,
0.902,0.29,0.11,0.93,2.17,0.09,-0.43,
0.905,0.29,0.11,0.93,2.17,0.09,-0.43,
0.907,0.30,0.10,0.93,2.17,0.09,-0.43,
0.907,0.30,0.10,0.93,2.16,0.10,-0.35,
0.91,0.30,0.10,0.93,2.16,0.10,-0.35,
0.912,0.30,0.10,0.94,2.16,0.10,-0.35,
0.912,0.30,0.10,0.94,2.23,0.08,-0.30,
0.915,0.30,0.09,0.94,2.23,0.08,-0.30,
0.917,0.30,0.09,0.94,2.25,0.04,-0.29,
0.917,0.30,0.09,0.95,2.25,0.04,-0.29,
0.919,0.31,0.09,0.94,2.25,0.04,-0.29,
0.922,0.31,0.09,0.94,2.28,0.01,-0.22,
0.922,0.32,0.08,0.95,2.28,0.01,-0.22,
0.924,0.32,0.08,0.95,2.28,0.01,-0.22,
0.926,0.32,0.08,0.95,2.28,0.01,-0.22,
0.926,0.32,0.08,0.95,2.35,-0.03,-0.20,
0.929,0.32,0.07,0.95,2.35,-0.03,-0.20,
0.932,0.33,0.07,0.95,2.35,-0.03,-0.20,
0.933,0.33,0.07,0.95,2.43,-0.06,-0.18,
0.933,0.34,0.07,0.95,2.43,-0.06,-0.18,
0.937,0.34,0.07,0.95,2.45,-0.13,-0.14,
0.937,0.33,0.07,0.96,2.45,-0.13,-0.14,
0.939,0.33,0.07,0.96,2.45,-0.13,-0.14,
0.942,0.32,0.06,0.96,2.45,-0.13,-0.14,
0.942,0.32,0.06,0.96,2.53,-0.11,-0.09,
0.944,0.32,0.07,0.96,2.53,-0.11,-0.09,
0.947,0.32,0.07,0.96,2.53,-0.11,-0.09,
0.948,0.32,0.07,0.96,2.47,-0.12,-0.10,
0.948,0.32,0.08,0.96,2.47,-0.12,-0.10,
0.952,0.31,0.08,0.97,2.47,-0.12,-0.10,
0.952,0.31,0.08,0.97,2.37,-0.07,-0.06,
0.953,0.30,0.08,0.96,2.37,-0.07,-0.06,
0.956,0.31,0.09,0.96,2.37,-0.07,-0.06,
0.956,0.31,0.09,0.96,2.32,0.02,-0.01,
0.958,0.30,0.10,0.96,2.32,0.02,-0.01,
0.961,0.30,0.10,0.96,2.21,0.18,-0.10,
0.962,0.30,0.10,0.95,2.21,0.18,-0.10,
0.963,0.30,0.10,0.95,2.21,0.18,-0.10,
0.966,0.30,0.11,0.95,2.21,0.18,-0.10,
0.966,0.30,0.11,0.95,2.16,0.31,-0.12,
0.968,0.30,0.11,0.95,2.16,0.31,-0.12,
0.971,0.30,0.11,0.95,2.16,0.39,-0.17,
0.971,0.30,0.11,0.95,2.16,0.39,-0.17,
0.973,0.30,0.11,0.95,2.16,0.39,-0.17,
0.976,0.31,0.11,0.95,2.16,0.39,-0.17,
0.976,0.31,0.11,0.95,2.15,0.45,-0.15,
0.978,0.31,0.11,0.95,2.15,0.45,-0.15,
0.984,0.31,0.11,0.94,2.15,0.45,-0.15,
0.985,0.31,0.11,0.94,2.22,0.47,-0.20,
0.985,0.31,0.11,0.94,2.22,0.47,-0.20,
0.987,0.31,0.10,0.93,2.22,0.47,-0.20,
0.987,0.31,0.10,0.93,2.20,0.52,-0.22,
0.988,0.32,0.10,0.94,2.20,0.52,-0.22,
0.99,0.31,0.09,0.95,2.20,0.52,-0.22,
0.991,0.31,0.09,0.95,2.22,0.45,-0.31,
0.993,0.31,0.09,0.94,2.22,0.45,-0.31,
0.995,0.31,0.09,0.94,2.26,0.39,-0.25,
0.996,0.32,0.09,0.94,2.26,0.39,-0.25,
1.0,0.31,0.08,0.94,2.26,0.39,-0.25,
1.001,0.31,0.08,0.94,2.26,0.39,-0.25,
1.001,0.31,0.08,0.94,2.25,0.31,-0.29,
1.003,0.30,0.07,0.95,2.25,0.31,-0.29,
1.005,0.30,0.08,0.95,2.25,0.31,-0.29,
1.006,0.30,0.08,0.95,2.21,0.29,-0.27,
1.008,0.30,0.07,0.96,2.21,0.29,-0.27,
1.011,0.30,0.07,0.96,2.21,0.29,-0.27,
1.011,0.30,0.07,0.96,2.12,0.25,-0.19,
1.013,0.30,0.07,0.97,2.12,0.25,-0.19,
1.016,0.29,0.07,0.97,2.12,0.25,-0.19,
1.017,0.29,0.07,0.97,2.07,0.26,-0.07,
1.018,0.30,0.07,0.98,2.07,0.26,-0.07,
1.021,0.30,0.07,0.98,2.03,0.27,0.02,
1.021,0.30,0.07,0.99,2.03,0.27,0.02,
1.023,0.30,0.07,0.99,2.03,0.27,0.02,
1.025,0.30,0.06,0.99,2.03,0.27,0.02,
1.025,0.30,0.06,0.99,2.04,0.29,0.14,
1.027,0.30,0.07,1.00,2.04,0.29,0.14,
1.031,0.31,0.07,1.01,2.04,0.29,0.14,
1.031,0.31,0.07,1.01,2.05,0.28,0.23,
1.034,0.32,0.07,1.02,2.05,0.28,0.23,
1.035,0.32,0.07,1.02,2.11,0.31,0.37,
1.035,0.32,0.07,1.02,2.11,0.31,0.37,
1.037,0.33,0.07,1.02,2.11,0.31,0.37,
1.04,0.34,0.07,1.03,2.11,0.31,0.37,
1.041,0.34,0.07,1.03,2.20,0.36,0.47,
1.043,0.34,0.07,1.03,2.20,0.36,0.47,
1.045,0.34,0.07,1.03,2.35,0.40,0.55,
1.046,0.34,0.07,1.03,2.35,0.40,0.55,
1.048,0.35,0.07,1.03,2.35,0.40,0.55,
1.05,0.35,0.08,1.03,2.35,0.40,0.55,
1.05,0.35,0.08,1.03,2.40,0.42,0.59,
1.053,0.35,0.08,1.03,2.40,0.42,0.59,
1.056,0.36,0.08,1.03,2.40,0.42,0.59,
1.056,0.36,0.08,1.03,2.45,0.51,0.62,
1.058,0.36,0.08,1.03,2.45,0.51,0.62,
1.061,0.36,0.08,1.03,2.50,0.56,0.61,
1.061,0.36,0.08,1.03,2.50,0.56,0.61,
1.063,0.36,0.09,1.02,2.50,0.56,0.61,
1.065,0.36,0.09,1.02,2.50,0.56,0.61,
1.065,0.36,0.09,1.02,2.52,0.62,0.59,
1.067,0.36,0.09,1.02,2.52,0.62,0.59,
1.071,0.36,0.09,1.02,2.55,0.70,0.50,
1.071,0.36,0.09,1.01,2.55,0.70,0.50,
1.072,0.35,0.09,1.00,2.55,0.70,0.50,
1.075,0.35,0.10,1.00,2.55,0.70,0.50,
1.076,0.35,0.10,1.00,2.50,0.76,0.44,
1.077,0.35,0.09,0.99,2.50,0.76,0.44,
1.08,0.35,0.09,0.97,2.50,0.76,0.44,
1.08,0.35,0.09,0.97,2.40,0.80,0.30,
1.083,0.34,0.08,0.97,2.40,0.80,0.30,
1.084,0.33,0.09,0.96,2.40,0.80,0.30,
1.085,0.33,0.09,0.96,2.38,0.76,0.11,
1.087,0.32,0.08,0.96,2.38,0.76,0.11,
1.09,0.32,0.08,0.96,2.27,0.74,-0.03,
1.091,0.33,0.08,0.95,2.27,0.74,-0.03,
1.092,0.32,0.08,0.94,2.27,0.74,-0.03,
1.095,0.32,0.08,0.94,2.18,0.69,-0.15,
1.096,0.31,0.07,0.93,2.18,0.69,-0.15,
1.099,0.31,0.07,0.92,2.18,0.69,-0.15,
1.1,0.30,0.07,0.92,2.18,0.69,-0.15,
1.1,0.30,0.07,0.92,2.10,0.69,-0.34,
1.102,0.29,0.06,0.92,2.10,0.69,-0.34,
1.105,0.28,0.06,0.91,2.10,0.69,-0.34,
1.105,0.28,0.06,0.91,1.97,0.62,-0.47,
1.107,0.28,0.05,0.91,1.97,0.62,-0.47,
1.11,0.27,0.05,0.91,1.97,0.62,-0.47,
1.11,0.27,0.05,0.91,1.82,0.57,-0.55,
1.112,0.26,0.05,0.92,1.82,0.57,-0.55,
1.119,0.26,0.05,0.92,1.82,0.57,-0.55,
1.12,0.26,0.05,0.92,1.69,0.50,-0.56,
1.12,0.25,0.05,0.92,1.69,0.50,-0.56,
1.12,0.25,0.05,0.92,1.56,0.48,-0.52,
1.12,0.25,0.04,0.92,1.56,0.48,-0.52,
1.121,0.24,0.04,0.93,1.56,0.48,-0.52,
1.124,0.24,0.03,0.94,1.56,0.48,-0.52,
1.125,0.24,0.03,0.94,1.46,0.43,-0.47,
1.127,0.24,0.02,0.94,1.46,0.43,-0.47,
1.13,0.24,0.02,0.95,1.46,0.43,-0.47,
1.13,0.24,0.02,0.95,1.41,0.41,-0.32,
1.132,0.24,0.02,0.95,1.41,0.41,-0.32,
1.134,0.24,0.01,0.96,1.41,0.41,-0.32,
1.134,0.24,0.01,0.96,1.37,0.28,-0.24,
1.136,0.25,0.00,0.96,1.37,0.28,-0.24,
1.14,0.25,-0.00,0.96,1.37,0.28,-0.24,
1.14,0.25,-0.00,0.96,1.40,0.24,-0.15,
1.142,0.25,-0.00,0.97,1.40,0.24,-0.15,
1.145,0.26,-0.01,0.97,1.40,0.24,-0.15,
1.145,0.26,-0.01,0.97,1.45,0.13,-0.05,
1.146,0.26,-0.01,0.97,1.45,0.13,-0.05,
1.15,0.26,-0.02,0.97,1.45,0.13,-0.05,
1.153,0.26,-0.02,0.97,1.49,0.09,-0.02,
1.153,0.25,-0.02,0.98,1.49,0.09,-0.02,
1.154,0.26,-0.02,0.98,1.49,0.09,-0.02,
1.154,0.26,-0.02,0.98,1.50,0.00,0.02,
1.156,0.26,-0.02,0.98,1.50,0.00,0.02,
1.159,0.25,-0.02,0.98,1.50,0.00,0.02,
1.159,0.25,-0.02,0.98,1.44,0.00,0.08,
1.161,0.25,-0.02,0.98,1.44,0.00,0.08,
1.165,0.24,-0.02,0.98,1.44,0.00,0.08,
1.166,0.24,-0.02,0.98,1.42,0.02,0.11,
1.167,0.23,-0.02,0.98,1.42,0.02,0.11,
1.169,0.23,-0.02,0.99,1.42,0.02,0.11,
1.169,0.23,-0.02,0.99,1.30,0.07,0.13,
1.171,0.23,-0.01,0.99,1.30,0.07,0.13,
1.173,0.23,-0.01,0.99,1.30,0.07,0.13,
1.174,0.23,-0.01,0.99,1.20,0.08,0.16,
1.176,0.23,-0.01,0.99,1.20,0.08,0.16,
1.179,0.23,-0.01,0.99,1.20,0.08,0.16,
1.179,0.23,-0.01,0.99,1.18,0.17,0.17,
1.182,0.23,-0.01,0.99,1.18,0.17,0.17,
1.183,0.23,-0.01,0.99,1.18,0.17,0.17,
1.184,0.23,-0.01,0.99,1.14,0.20,0.18,
1.186,0.23,-0.01,0.99,1.14,0.20,0.18,
1.188,0.23,-0.01,0.99,1.16,0.25,0.21,
1.189,0.24,-0.00,0.99,1.16,0.25,0.21,
1.191,0.24,0.00,1.00,1.16,0.25,0.21,
1.193,0.24,-0.00,1.00,1.16,0.25,0.21,
1.194,0.24,-0.00,1.00,1.20,0.31,0.21,
1.195,0.24,-0.00,1.01,1.20,0.31,0.21,
1.198,0.24,-0.00,1.01,1.20,0.31,0.21,
1.199,0.24,-0.00,1.01,1.24,0.36,0.29,
1.2,0.25,-0.00,1.01,1.24,0.36,0.29,
1.203,0.25,-0.00,1.02,1.24,0.36,0.29,
1.204,0.25,-0.00,1.02,1.27,0.34,0.39,
1.206,0.26,-0.01,1.02,1.27,0.34,0.39,
1.208,0.26,-0.01,1.02,1.34,0.36,0.45,
1.208,0.26,-0.01,1.03,1.34,0.36,0.45,
1.21,0.26,-0.02,1.03,1.34,0.36,0.45,
1.213,0.26,-0.01,1.04,1.34,0.36,0.45,
1.213,0.26,-0.01,1.04,1.40,0.30,0.53,
1.219,0.26,-0.02,1.03,1.40,0.30,0.53,
1.219,0.26,-0.02,1.04,1.40,0.30,0.53,
1.219,0.26,-0.02,1.04,1.43,0.26,0.59,
1.22,0.26,-0.02,1.05,1.43,0.26,0.59,
1.223,0.26,-0.02,1.04,1.43,0.26,0.59,
1.223,0.26,-0.02,1.04,1.40,0.24,0.63,
1.225,0.26,-0.02,1.05,1.40,0.24,0.63,
1.23,0.26,-0.02,1.05,1.40,0.24,0.63,
1.232,0.26,-0.02,1.05,1.36,0.26,0.72,
1.233,0.25,-0.02,1.06,1.36,0.26,0.72,
1.233,0.25,-0.02,1.06,1.36,0.26,0.72,
1.233,0.25,-0.02,1.06,1.36,0.28,0.75,
1.235,0.25,-0.02,1.07,1.36,0.28,0.75,
1.238,0.25,-0.03,1.08,1.36,0.28,0.75,
1.238,0.25,-0.03,1.08,1.25,0.24,0.87,
1.24,0.25,-0.03,1.08,1.25,0.24,0.87,
1.243,0.24,-0.04,1.08,1.25,0.24,0.87,
1.243,0.24,-0.04,1.08,1.20,0.24,0.97,
1.245,0.24,-0.04,1.09,1.20,0.24,0.97,
1.249,0.24,-0.04,1.10,1.20,0.24,0.97,
1.249,0.24,-0.04,1.10,1.16,0.16,1.06,
1.251,0.24,-0.06,1.10,1.16,0.16,1.06,
1.253,0.23,-0.06,1.12,1.16,0.16,1.06,
1.253,0.23,-0.06,1.12,1.09,0.10,1.16,
1.255,0.23,-0.06,1.13,1.09,0.10,1.16,
1.258,0.23,-0.07,1.13,1.09,0.10,1.16,
1.258,0.23,-0.07,1.13,1.03,-0.05,1.31,
1.26,0.22,-0.07,1.14,1.03,-0.05,1.31,
1.263,0.22,-0.08,1.15,1.03,-0.05,1.31,
1.263,0.22,-0.08,1.15,0.94,-0.11,1.48,
1.265,0.21,-0.08,1.16,0.94,-0.11,1.48,
1.268,0.21,-0.09,1.16,0.94,-0.11,1.48,
1.269,0.21,-0.09,1.16,0.87,-0.17,1.61,
1.27,0.21,-0.09,1.16,0.87,-0.17,1.61,
1.273,0.21,-0.09,1.16,0.87,-0.17,1.61,
1.273,0.21,-0.09,1.16,0.80,-0.28,1.74,
1.275,0.20,-0.09,1.16,0.80,-0.28,1.74,
1.277,0.20,-0.10,1.16,0.80,-0.28,1.74,
1.278,0.20,-0.10,1.16,0.76,-0.31,1.77,
1.28,0.19,-0.10,1.16,0.76,-0.31,1.77,
1.283,0.18,-0.10,1.15,0.76,-0.31,1.77,
1.284,0.18,-0.10,1.15,0.67,-0.37,1.78,
1.285,0.18,-0.11,1.15,0.67,-0.37,1.78,
1.288,0.18,-0.11,1.14,0.67,-0.37,1.78,
1.288,0.18,-0.11,1.14,0.55,-0.41,1.70,
1.29,0.18,-0.12,1.13,0.55,-0.41,1.70,
1.292,0.17,-0.12,1.13,0.55,-0.41,1.70,
1.292,0.17,-0.12,1.13,0.48,-0.51,1.58,
1.294,0.17,-0.12,1.12,0.48,-0.51,1.58,
1.297,0.17,-0.12,1.11,0.48,-0.51,1.58,
1.298,0.17,-0.12,1.11,0.43,-0.55,1.48,
1.3,0.17,-0.12,1.10,0.43,-0.55,1.48,
1.302,0.16,-0.12,1.10,0.43,-0.55,1.48,
1.303,0.16,-0.12,1.10,0.37,-0.59,1.32,
1.304,0.16,-0.13,1.09,0.37,-0.59,1.32,
1.307,0.16,-0.13,1.08,0.37,-0.59,1.32,
1.307,0.16,-0.13,1.08,0.36,-0.62,1.13,
1.309,0.16,-0.13,1.08,0.36,-0.62,1.13,
1.312,0.16,-0.13,1.07,0.36,-0.62,1.13,
1.312,0.16,-0.13,1.07,0.33,-0.67,0.96,
1.315,0.16,-0.13,1.06,0.33,-0.67,0.96,
1.318,0.16,-0.13,1.05,0.33,-0.67,0.96,
1.319,0.16,-0.13,1.05,0.33,-0.70,0.86,
1.319,0.15,-0.13,1.05,0.33,-0.70,0.86,
1.322,0.15,-0.13,1.05,0.33,-0.70,0.86,
1.322,0.15,-0.13,1.05,0.33,-0.72,0.71,
1.324,0.15,-0.13,1.04,0.33,-0.72,0.71,
1.328,0.15,-0.12,1.03,0.33,-0.72,0.71,
1.328,0.15,-0.12,1.03,0.27,-0.68,0.61,
1.33,0.14,-0.12,1.03,0.27,-0.68,0.61,
1.339,0.14,-0.12,1.03,0.27,-0.68,0.61,
1.34,0.14,-0.12,1.03,0.24,-0.68,0.51,
1.34,0.14,-0.12,1.03,0.24,-0.68,0.51,
1.34,0.14,-0.11,1.03,0.24,-0.68,0.51,
1.34,0.14,-0.11,1.03,0.22,-0.68,0.45,
1.34,0.13,-0.12,1.03,0.22,-0.68,0.45,
1.343,0.13,-0.12,1.03,0.21,-0.61,0.42,
1.343,0.13,-0.11,1.02,0.21,-0.61,0.42,
1.345,0.13,-0.11,1.02,0.21,-0.61,0.42,
1.347,0.13,-0.11,1.02,0.21,-0.61,0.42,
1.348,0.13,-0.11,1.02,0.12,-0.61,0.41,
1.349,0.13,-0.11,1.03,0.12,-0.61,0.41,
1.352,0.13,-0.11,1.03,0.08,-0.57,0.35,
1.352,0.13,-0.11,1.03,0.08,-0.57,0.35,
1.355,0.12,-0.10,1.03,0.08,-0.57,0.35,
1.358,0.12,-0.10,1.03,0.08,-0.57,0.35,
1.358,0.12,-0.10,1.03,0.05,-0.56,0.40,
1.359,0.12,-0.10,1.03,0.05,-0.56,0.40,
1.362,0.12,-0.10,1.03,0.05,-0.56,0.40,
1.362,0.12,-0.10,1.03,0.00,-0.55,0.40,
1.364,0.11,-0.09,1.03,0.00,-0.55,0.40,
1.368,0.11,-0.09,1.03,0.00,-0.55,0.40,
1.368,0.11,-0.09,1.03,-0.03,-0.53,0.43,
1.369,0.11,-0.09,1.02,-0.03,-0.53,0.43,
1.372,0.11,-0.09,1.02,-0.03,-0.53,0.43,
1.373,0.11,-0.09,1.02,-0.10,-0.46,0.45,
1.375,0.11,-0.09,1.02,-0.10,-0.46,0.45,
1.377,0.11,-0.09,1.02,-0.10,-0.46,0.45,
1.377,0.11,-0.09,1.02,-0.16,-0.48,0.37,
1.379,0.11,-0.09,1.02,-0.16,-0.48,0.37,
1.384,0.11,-0.09,1.01,-0.16,-0.48,0.37,
1.384,0.11,-0.09,1.01,-0.18,-0.49,0.32,
1.384,0.10,-0.10,1.01,-0.18,-0.49,0.32,
1.387,0.10,-0.10,1.00,-0.18,-0.49,0.32,
1.387,0.10,-0.10,1.00,-0.19,-0.55,0.26,
1.389,0.10,-0.10,1.00,-0.19,-0.55,0.26,
1.392,0.10,-0.10,0.99,-0.19,-0.55,0.26,
1.392,0.10,-0.10,0.99,-0.23,-0.63,0.19,
1.393,0.10,-0.11,0.99,-0.23,-0.63,0.19,
1.396,0.10,-0.11,0.99,-0.23,-0.63,0.19,
1.396,0.10,-0.11,0.99,-0.24,-0.68,0.09,
1.401,0.10,-0.11,0.98,-0.24,-0.68,0.09,
1.402,0.10,-0.11,0.97,-0.24,-0.68,0.09,
1.402,0.10,-0.11,0.97,-0.26,-0.74,0.02,
1.404,0.10,-0.11,0.96,-0.26,-0.74,0.02,
1.407,0.10,-0.11,0.96,-0.26,-0.74,0.02,
1.407,0.10,-0.11,0.96,-0.27,-0.79,-0.11,
1.409,0.10,-0.12,0.96,-0.27,-0.79,-0.11,
1.412,0.10,-0.12,0.96,-0.27,-0.79,-0.11,
1.413,0.10,-0.12,0.96,-0.23,-0.83,-0.26,
1.414,0.10,-0.12,0.95,-0.23,-0.83,-0.26,
1.417,0.10,-0.12,0.95,-0.23,-0.83,-0.26,
1.417,0.10,-0.12,0.95,-0.25,-0.92,-0.27,
1.419,0.09,-0.12,0.94,-0.25,-0.92,-0.27,
1.422,0.09,-0.12,0.94,-0.25,-0.92,-0.27,
1.422,0.09,-0.12,0.94,-0.26,-0.95,-0.35,
1.424,0.08,-0.12,0.94,-0.26,-0.95,-0.35,
1.427,0.08,-0.12,0.94,-0.26,-0.95,-0.35,
1.427,0.08,-0.12,0.94,-0.38,-0.94,-0.42,
1.429,0.07,-0.12,0.94,-0.38,-0.94,-0.42,
1.432,0.06,-0.12,0.94,-0.38,-0.94,-0.42,
1.432,0.06,-0.12,0.94,-0.46,-0.96,-0.41,
1.437,0.05,-0.12,0.94,-0.46,-0.96,-0.41,
1.438,0.05,-0.12,0.95,-0.46,-0.96,-0.41,
1.438,0.05,-0.12,0.95,-0.58,-0.98,-0.42,
1.438,0.04,-0.12,0.96,-0.58,-0.98,-0.42,
1.441,0.03,-0.12,0.96,-0.58,-0.98,-0.42,
1.442,0.03,-0.12,0.96,-0.72,-0.97,-0.38,
1.443,0.03,-0.12,0.96,-0.72,-0.97,-0.38,
1.447,0.02,-0.12,0.96,-0.72,-0.97,-0.38,
1.447,0.02,-0.12,0.96,-0.85,-0.95,-0.29,
1.449,0.01,-0.13,0.96,-0.85,-0.95,-0.29,
1.451,0.01,-0.12,0.97,-0.85,-0.95,-0.29,
1.451,0.01,-0.12,0.97,-1.01,-0.99,-0.28,
1.454,0.00,-0.13,0.96,-1.01,-0.99,-0.28,
1.456,0.00,-0.13,0.96,-1.13,-1.00,-0.20,
1.457,-0.00,-0.13,0.96,-1.13,-1.00,-0.20,
1.459,-0.01,-0.13,0.96,-1.13,-1.00,-0.20,
1.461,-0.01,-0.13,0.96,-1.13,-1.00,-0.20,
1.462,-0.01,-0.13,0.96,-1.21,-1.05,-0.22,
1.463,-0.01,-0.14,0.95,-1.21,-1.05,-0.22,
1.467,-0.02,-0.13,0.95,-1.21,-1.05,-0.22,
1.468,-0.02,-0.13,0.95,-1.32,-1.08,-0.27,
1.468,-0.02,-0.13,0.95,-1.32,-1.08,-0.27,
1.471,-0.03,-0.13,0.94,-1.32,-1.08,-0.27,
1.471,-0.03,-0.13,0.94,-1.39,-1.11,-0.33,
1.473,-0.03,-0.14,0.94,-1.39,-1.11,-0.33,
1.476,-0.04,-0.14,0.94,-1.39,-1.11,-0.33,
1.476,-0.04,-0.14,0.94,-1.48,-1.11,-0.40,
1.479,-0.04,-0.14,0.94,-1.48,-1.11,-0.40,
1.482,-0.05,-0.14,0.94,-1.48,-1.11,-0.40,
1.482,-0.05,-0.14,0.94,-1.57,-1.15,-0.44,
1.484,-0.05,-0.14,0.94,-1.57,-1.15,-0.44,
1.485,-0.05,-0.14,0.94,-1.57,-1.15,-0.44,
1.486,-0.05,-0.14,0.94,-1.67,-1.19,-0.45,
1.488,-0.05,-0.14,0.93,-1.67,-1.19,-0.45,
1.491,-0.06,-0.14,0.93,-1.67,-1.19,-0.45,
1.491,-0.06,-0.14,0.93,-1.71,-1.21,-0.45,
1.493,-0.06,-0.14,0.93,-1.71,-1.21,-0.45,
1.495,-0.06,-0.14,0.93,-1.78,-1.23,-0.52,
1.496,-0.06,-0.14,0.93,-1.78,-1.23,-0.52,
1.497,-0.05,-0.14,0.93,-1.78,-1.23,-0.52,
1.501,-0.06,-0.14,0.93,-1.78,-1.23,-0.52,
1.501,-0.06,-0.14,0.93,-1.82,-1.25,-0.51,
1.502,-0.06,-0.14,0.92,-1.82,-1.25,-0.51,
1.505,-0.06,-0.14,0.92,-1.82,-1.25,-0.51,
1.505,-0.06,-0.14,0.92,-1.82,-1.25,-0.56,
1.508,-0.06,-0.14,0.93,-1.82,-1.25,-0.56,
1.51,-0.06,-0.14,0.94,-1.82,-1.25,-0.56,
1.51,-0.06,-0.14,0.94,-1.87,-1.27,-0.58,
1.512,-0.07,-0.14,0.95,-1.87,-1.27,-0.58,
1.52,-0.07,-0.15,0.95,-1.87,-1.27,-0.58,
1.521,-0.07,-0.15,0.95,-1.93,-1.27,-0.46,
1.521,-0.08,-0.15,0.95,-1.93,-1.27,-0.46,
1.521,-0.08,-0.15,0.96,-1.93,-1.27,-0.46,
1.522,-0.08,-0.15,0.96,-2.01,-1.31,-0.36,
1.522,-0.09,-0.15,0.96,-2.01,-1.31,-0.36,
1.525,-0.10,-0.16,0.97,-2.01,-1.31,-0.36,
1.525,-0.10,-0.16,0.97,-2.13,-1.36,-0.29,
1.527,-0.10,-0.16,0.98,-2.13,-1.36,-0.29,
1.532,-0.10,-0.17,0.97,-2.13,-1.36,-0.29,
1.532,-0.10,-0.17,0.97,-2.29,-1.45,-0.19,
1.534,-0.10,-0.17,0.98,-2.29,-1.45,-0.19,
1.535,-0.11,-0.18,0.98,-2.29,-1.45,-0.19,
1.535,-0.11,-0.18,0.98,-2.35,-1.55,-0.08,
1.537,-0.10,-0.17,0.99,-2.35,-1.55,-0.08,
1.54,-0.10,-0.18,1.00,-2.35,-1.55,-0.08,
1.54,-0.10,-0.18,1.00,-2.42,-1.63,-0.01,
1.542,-0.09,-0.18,1.00,-2.42,-1.63,-0.01,
1.545,-0.09,-0.18,1.00,-2.42,-1.63,-0.01,
1.545,-0.09,-0.18,1.00,-2.42,-1.68,0.14,
1.547,-0.09,-0.18,1.00,-2.42,-1.68,0.14,
1.55,-0.09,-0.18,1.00,-2.42,-1.68,0.14,
1.55,-0.09,-0.18,1.00,-2.31,-1.72,0.20,
1.553,-0.08,-0.17,1.00,-2.31,-1.72,0.20,
1.555,-0.07,-0.17,1.00,-2.31,-1.72,0.20,
1.555,-0.07,-0.17,1.00,-2.32,-1.71,0.22,
1.557,-0.07,-0.17,0.99,-2.32,-1.71,0.22,
1.56,-0.07,-0.17,0.99,-2.25,-1.65,0.19,
1.56,-0.06,-0.16,0.98,-2.25,-1.65,0.19,
1.563,-0.06,-0.16,0.98,-2.25,-1.65,0.19,
1.565,-0.05,-0.16,0.97,-2.25,-1.65,0.19,
1.565,-0.05,-0.16,0.97,-2.15,-1.62,0.07,
1.567,-0.05,-0.15,0.97,-2.15,-1.62,0.07,
1.57,-0.05,-0.14,0.95,-2.15,-1.62,0.07,
1.57,-0.05,-0.14,0.95,-2.08,-1.60,-0.03,
1.572,-0.06,-0.14,0.94,-2.08,-1.60,-0.03,
1.575,-0.06,-0.14,0.94,-2.08,-1.60,-0.03,
1.575,-0.06,-0.14,0.94,-2.07,-1.52,-0.19,
1.577,-0.06,-0.13,0.92,-2.07,-1.52,-0.19,
1.579,-0.07,-0.12,0.92,-2.07,-1.52,-0.19,
1.58,-0.07,-0.12,0.92,-2.13,-1.43,-0.36,
1.582,-0.07,-0.11,0.91,-2.13,-1.43,-0.36,
1.584,-0.07,-0.11,0.91,-2.13,-1.43,-0.36,
1.585,-0.07,-0.11,0.91,-2.23,-1.31,-0.53,
1.586,-0.07,-0.10,0.90,-2.23,-1.31,-0.53,
1.589,-0.08,-0.10,0.90,-2.23,-1.31,-0.53,
1.59,-0.08,-0.10,0.90,-2.29,-1.22,-0.67,
1.592,-0.08,-0.10,0.89,-2.29,-1.22,-0.67,
1.594,-0.08,-0.09,0.89,-2.29,-1.22,-0.67,
1.595,-0.08,-0.09,0.89,-2.33,-1.15,-0.77,
1.596,-0.08,-0.08,0.88,-2.33,-1.15,-0.77,
1.6,-0.08,-0.08,0.88,-2.33,-1.15,-0.77,
1.601,-0.08,-0.08,0.88,-2.36,-1.08,-0.85,
1.602,-0.09,-0.08,0.88,-2.36,-1.08,-0.85,
1.604,-0.09,-0.07,0.88,-2.36,-1.08,-0.85,
1.604,-0.09,-0.07,0.88,-2.40,-1.01,-0.94,
1.606,-0.10,-0.07,0.88,-2.40,-1.01,-0.94,
1.609,-0.10,-0.07,0.88,-2.40,-1.01,-0.94,
1.61,-0.10,-0.07,0.88,-2.48,-0.94,-0.94,
1.611,-0.10,-0.07,0.87,-2.48,-0.94,-0.94,
1.615,-0.11,-0.07,0.88,-2.48,-0.94,-0.94,
1.616,-0.11,-0.07,0.88,-2.54,-0.90,-0.94,
1.618,-0.11,-0.07,0.89,-2.54,-0.90,-0.94,
1.619,-0.12,-0.07,0.88,-2.54,-0.90,-0.94,
1.619,-0.12,-0.07,0.88,-2.61,-0.90,-0.98,
1.621,-0.12,-0.07,0.88,-2.61,-0.90,-0.98,
1.624,-0.12,-0.07,0.89,-2.61,-0.90,-0.98,
1.624,-0.12,-0.07,0.89,-2.65,-0.90,-0.89,
1.626,-0.12,-0.08,0.89,-2.65,-0.90,-0.89,
1.629,-0.13,-0.08,0.89,-2.65,-0.90,-0.89,
1.629,-0.13,-0.08,0.89,-2.74,-0.95,-0.88,
1.631,-0.13,-0.08,0.89,-2.74,-0.95,-0.88,
1.635,-0.13,-0.08,0.89,-2.74,-0.95,-0.88,
1.635,-0.13,-0.08,0.89,-2.78,-0.99,-0.84,
1.636,-0.13,-0.08,0.90,-2.78,-0.99,-0.84,
1.639,-0.13,-0.08,0.90,-2.78,-0.99,-0.84,
1.639,-0.13,-0.08,0.90,-2.80,-1.02,-0.83,
1.641,-0.14,-0.08,0.92,-2.80,-1.02,-0.83,
1.644,-0.14,-0.07,0.92,-2.80,-1.02,-0.83,
1.647,-0.14,-0.07,0.92,-2.85,-0.99,-0.72,
1.647,-0.14,-0.07,0.93,-2.85,-0.99,-0.72,
1.649,-0.15,-0.06,0.94,-2.85,-0.99,-0.72,
1.649,-0.15,-0.06,0.94,-2.94,-0.96,-0.51,
1.656,-0.14,-0.07,0.95,-2.94,-0.96,-0.51,
1.657,-0.14,-0.06,0.97,-2.94,-0.96,-0.51,
1.657,-0.14,-0.06,0.97,-3.01,-0.87,-0.39,
1.657,-0.14,-0.06,0.98,-3.01,-0.87,-0.39,
1.659,-0.14,-0.06,0.98,-3.01,-0.87,-0.39,
1.659,-0.14,-0.06,0.98,-3.00,-0.85,-0.11,
1.662,-0.13,-0.06,0.98,-3.00,-0.85,-0.11,
1.665,-0.13,-0.06,0.99,-3.00,-0.85,-0.11,
1.665,-0.13,-0.06,0.99,-2.99,-0.80,0.04,
1.666,-0.13,-0.06,0.99,-2.99,-0.80,0.04,
1.669,-0.13,-0.06,0.99,-2.99,-0.80,0.04,
1.67,-0.13,-0.06,0.99,-2.95,-0.83,0.13,
1.672,-0.13,-0.07,0.99,-2.95,-0.83,0.13,
1.674,-0.13,-0.07,0.98,-2.95,-0.83,0.13,
1.674,-0.13,-0.07,0.98,-2.96,-0.86,0.17,
1.676,-0.13,-0.07,0.98,-2.96,-0.86,0.17,
1.679,-0.13,-0.07,0.97,-2.96,-0.86,0.17,
1.679,-0.13,-0.07,0.97,-2.92,-0.90,0.11,
1.681,-0.13,-0.07,0.96,-2.92,-0.90,0.11,
1.684,-0.13,-0.07,0.95,-2.92,-0.90,0.11,
1.685,-0.13,-0.07,0.95,-2.96,-0.92,0.01,
1.686,-0.13,-0.07,0.94,-2.96,-0.92,0.01,
1.689,-0.13,-0.07,0.94,-2.94,-0.92,-0.18,
1.689,-0.13,-0.07,0.93,-2.94,-0.92,-0.18,
1.691,-0.13,-0.07,0.92,-2.94,-0.92,-0.18,
1.694,-0.14,-0.07,0.91,-2.94,-0.92,-0.18,
1.694,-0.14,-0.07,0.91,-2.98,-0.94,-0.34,
1.696,-0.14,-0.06,0.90,-2.98,-0.94,-0.34,
1.699,-0.14,-0.06,0.88,-2.98,-0.94,-0.34,
1.699,-0.14,-0.06,0.88,-3.03,-0.93,-0.54,
1.7,-0.14,-0.06,0.88,-3.03,-0.93,-0.54,
1.703,-0.15,-0.06,0.87,-3.03,-0.93,-0.54,
1.704,-0.15,-0.06,0.87,-3.07,-0.89,-0.78,
1.706,-0.16,-0.05,0.86,-3.07,-0.89,-0.78,
1.709,-0.16,-0.05,0.86,-3.07,-0.89,-0.78,
1.709,-0.16,-0.05,0.86,-3.09,-0.86,-0.91,
1.711,-0.16,-0.05,0.86,-3.09,-0.86,-0.91,
1.714,-0.17,-0.05,0.86,-3.09,-0.86,-0.91,
1.714,-0.17,-0.05,0.86,-3.18,-0.78,-1.05,
1.716,-0.17,-0.05,0.86,-3.18,-0.78,-1.05,
1.718,-0.19,-0.05,0.87,-3.18,-0.78,-1.05,
1.719,-0.19,-0.05,0.87,-3.28,-0.76,-1.05,
1.72,-0.19,-0.05,0.87,-3.28,-0.76,-1.05,
1.724,-0.19,-0.05,0.87,-3.39,-0.72,-1.04,
1.724,-0.20,-0.04,0.88,-3.39,-0.72,-1.04,
1.726,-0.20,-0.04,0.89,-3.39,-0.72,-1.04,
1.729,-0.21,-0.04,0.90,-3.39,-0.72,-1.04,
1.729,-0.21,-0.04,0.90,-3.52,-0.70,-0.96,
1.73,-0.21,-0.05,0.92,-3.52,-0.70,-0.96,
1.736,-0.21,-0.04,0.93,-3.52,-0.70,-0.96,
1.736,-0.21,-0.04,0.93,-3.63,-0.63,-0.72,
1.737,-0.21,-0.05,0.95,-3.63,-0.63,-0.72,
1.738,-0.22,-0.05,0.97,-3.63,-0.63,-0.72,
1.738,-0.22,-0.05,0.97,-3.70,-0.64,-0.44,
1.741,-0.21,-0.05,0.98,-3.70,-0.64,-0.44,
1.744,-0.20,-0.06,1.00,-3.70,-0.64,-0.44,
1.744,-0.20,-0.06,1.00,-3.71,-0.64,-0.12,
1.746,-0.20,-0.06,1.02,-3.71,-0.64,-0.12,
1.749,-0.20,-0.06,1.02,-3.71,-0.64,-0.12,
1.749,-0.20,-0.06,1.02,-3.65,-0.71,0.24,
1.75,-0.19,-0.07,1.03,-3.65,-0.71,0.24,
1.756,-0.19,-0.07,1.03,-3.58,-0.75,0.51,
1.756,-0.18,-0.08,1.04,-3.58,-0.75,0.51,
1.757,-0.18,-0.08,1.05,-3.58,-0.75,0.51,
1.758,-0.17,-0.08,1.05,-3.58,-0.75,0.51,
1.758,-0.17,-0.08,1.05,-3.47,-0.82,0.68,
1.76,-0.17,-0.08,1.05,-3.47,-0.82,0.68,
1.763,-0.16,-0.08,1.05,-3.47,-0.82,0.68,
1.764,-0.16,-0.08,1.05,-3.37,-0.88,0.78,
1.766,-0.15,-0.08,1.05,-3.37,-0.88,0.78,
1.768,-0.15,-0.08,1.04,-3.37,-0.88,0.78,
1.769,-0.15,-0.08,1.04,-3.27,-0.87,0.82,
1.771,-0.15,-0.08,1.04,-3.27,-0.87,0.82,
1.773,-0.15,-0.08,1.04,-3.17,-0.88,0.75,
1.773,-0.14,-0.08,1.03,-3.17,-0.88,0.75,
1.776,-0.14,-0.09,1.01,-3.17,-0.88,0.75,
1.778,-0.13,-0.09,1.01,-3.17,-0.88,0.75,
1.778,-0.13,-0.09,1.01,-3.08,-0.87,0.62,
1.78,-0.13,-0.09,1.00,-3.08,-0.87,0.62,
1.783,-0.13,-0.08,0.99,-3.08,-0.87,0.62,
1.783,-0.13,-0.08,0.99,-2.98,-0.88,0.42,
1.785,-0.13,-0.08,0.99,-2.98,-0.88,0.42,
1.788,-0.13,-0.08,0.98,-2.98,-0.88,0.42,
1.788,-0.13,-0.08,0.98,-2.91,-0.87,0.28,
1.79,-0.13,-0.08,0.98,-2.91,-0.87,0.28,
1.793,-0.13,-0.08,0.97,-2.91,-0.87,0.28,
1.793,-0.13,-0.08,0.97,-2.87,-0.79,0.16,
1.795,-0.13,-0.07,0.96,-2.87,-0.79,0.16,
1.798,-0.13,-0.07,0.96,-2.87,-0.79,0.16,
1.798,-0.13,-0.07,0.96,-2.86,-0.72,0.06,
1.8,-0.13,-0.07,0.96,-2.86,-0.72,0.06,
1.802,-0.13,-0.07,0.96,-2.86,-0.72,0.06,
1.803,-0.13,-0.07,0.96,-2.86,-0.65,-0.07,
1.805,-0.14,-0.06,0.96,-2.86,-0.65,-0.07,
1.808,-0.15,-0.06,0.96,-2.86,-0.65,-0.07,
1.808,-0.15,-0.06,0.96,-2.88,-0.59,-0.11,
1.811,-0.15,-0.06,0.97,-2.88,-0.59,-0.11,
1.813,-0.16,-0.05,0.98,-2.88,-0.59,-0.11,
1.814,-0.16,-0.05,0.98,-3.00,-0.50,-0.05,
1.815,-0.16,-0.05,0.98,-3.00,-0.50,-0.05,
1.82,-0.16,-0.05,1.00,-3.00,-0.50,-0.05,
1.82,-0.16,-0.05,1.00,-3.06,-0.41,0.08,
1.82,-0.17,-0.05,1.01,-3.06,-0.41,0.08,
1.823,-0.18,-0.05,1.03,-3.06,-0.41,0.08,
1.823,-0.18,-0.05,1.03,-3.15,-0.35,0.24,
1.825,-0.19,-0.05,1.04,-3.15,-0.35,0.24,
1.828,-0.19,-0.05,1.06,-3.15,-0.35,0.24,
1.828,-0.19,-0.05,1.06,-3.24,-0.30,0.49,
1.83,-0.20,-0.05,1.08,-3.24,-0.30,0.49,
1.833,-0.20,-0.05,1.10,-3.24,-0.30,0.49,
1.833,-0.20,-0.05,1.10,-3.35,-0.25,0.79,
1.836,-0.20,-0.05,1.12,-3.35,-0.25,0.79,
1.837,-0.21,-0.06,1.15,-3.35,-0.25,0.79,
1.837,-0.21,-0.06,1.15,-3.49,-0.23,1.17,
1.839,-0.20,-0.06,1.17,-3.49,-0.23,1.17,
1.842,-0.20,-0.07,1.19,-3.49,-0.23,1.17,
1.842,-0.20,-0.07,1.19,-3.52,-0.25,1.61,
1.844,-0.20,-0.07,1.21,-3.52,-0.25,1.61,
1.847,-0.19,-0.08,1.23,-3.52,-0.25,1.61,
1.847,-0.19,-0.08,1.23,-3.50,-0.29,2.05,
1.849,-0.19,-0.09,1.24,-3.50,-0.29,2.05,
1.853,-0.18,-0.10,1.25,-3.50,-0.29,2.05,
1.853,-0.18,-0.10,1.25,-3.46,-0.35,2.44,
1.854,-0.17,-0.10,1.25,-3.46,-0.35,2.44,
1.857,-0.17,-0.11,1.26,-3.46,-0.35,2.44,
1.857,-0.17,-0.11,1.26,-3.31,-0.48,2.71,
1.859,-0.16,-0.11,1.26,-3.31,-0.48,2.71,
1.862,-0.16,-0.11,1.27,-3.31,-0.48,2.71,
1.862,-0.16,-0.11,1.27,-3.18,-0.53,2.77,
1.864,-0.15,-0.12,1.27,-3.18,-0.53,2.77,
1.866,-0.15,-0.11,1.26,-3.18,-0.53,2.77,
1.867,-0.15,-0.11,1.26,-3.07,-0.56,2.88,
1.872,-0.15,-0.12,1.25,-3.07,-0.56,2.88,
1.873,-0.14,-0.12,1.24,-3.07,-0.56,2.88,
1.873,-0.14,-0.12,1.24,-2.98,-0.57,2.86,
1.875,-0.14,-0.12,1.23,-2.98,-0.57,2.86,
1.876,-0.13,-0.13,1.23,-2.98,-0.57,2.86,
1.877,-0.13,-0.13,1.23,-2.91,-0.62,2.71,
1.879,-0.13,-0.13,1.22,-2.91,-0.62,2.71,
1.882,-0.13,-0.13,1.21,-2.91,-0.62,2.71,
1.882,-0.13,-0.13,1.21,-2.81,-0.62,2.53,
1.885,-0.12,-0.13,1.20,-2.81,-0.62,2.53,
1.887,-0.12,-0.14,1.20,-2.81,-0.62,2.53,
1.888,-0.12,-0.14,1.20,-2.76,-0.63,2.36,
1.889,-0.12,-0.13,1.20,-2.76,-0.63,2.36,
1.891,-0.11,-0.13,1.20,-2.76,-0.63,2.36,
1.891,-0.11,-0.13,1.20,-2.66,-0.65,2.23,
1.893,-0.10,-0.13,1.20,-2.66,-0.65,2.23,
1.896,-0.10,-0.13,1.20,-2.66,-0.65,2.23,
1.897,-0.10,-0.13,1.20,-2.56,-0.59,2.20,
1.898,-0.09,-0.13,1.20,-2.56,-0.59,2.20,
1.902,-0.09,-0.13,1.20,-2.42,-0.54,2.22,
1.902,-0.08,-0.12,1.21,-2.42,-0.54,2.22,
1.903,-0.07,-0.12,1.22,-2.42,-0.54,2.22,
1.906,-0.06,-0.12,1.22,-2.42,-0.54,2.22,
1.906,-0.06,-0.12,1.22,-2.23,-0.49,2.29,
1.908,-0.06,-0.11,1.24,-2.23,-0.49,2.29,
1.911,-0.05,-0.11,1.25,-2.23,-0.49,2.29,
1.912,-0.05,-0.11,1.25,-2.07,-0.39,2.41,
1.914,-0.04,-0.10,1.26,-2.07,-0.39,2.41,
1.916,-0.03,-0.09,1.27,-2.07,-0.39,2.41,
1.916,-0.03,-0.09,1.27,-1.89,-0.26,2.62,
1.919,-0.02,-0.09,1.27,-1.89,-0.26,2.62,
1.921,-0.01,-0.08,1.28,-1.89,-0.26,2.62,
1.921,-0.01,-0.08,1.28,-1.72,-0.10,2.80,
1.924,-0.01,-0.08,1.30,-1.72,-0.10,2.80,
1.926,0.00,-0.07,1.30,-1.72,-0.10,2.80,
1.926,0.00,-0.07,1.30,-1.52,0.01,2.97,
1.928,0.01,-0.07,1.30,-1.52,0.01,2.97,
1.931,0.02,-0.06,1.30,-1.52,0.01,2.97,
1.931,0.02,-0.06,1.30,-1.35,0.18,3.14,
1.933,0.02,-0.06,1.30,-1.35,0.18,3.14,
1.937,0.02,-0.06,1.30,-1.35,0.18,3.14,
1.937,0.02,-0.06,1.30,-1.20,0.28,3.19,
1.938,0.03,-0.05,1.30,-1.20,0.28,3.19,
1.941,0.03,-0.05,1.30,-1.08,0.37,3.19,
1.941,0.04,-0.05,1.31,-1.08,0.37,3.19,
1.943,0.04,-0.05,1.30,-1.08,0.37,3.19,
1.946,0.04,-0.06,1.30,-1.08,0.37,3.19,
1.946,0.04,-0.06,1.30,-0.95,0.47,3.18,
1.948,0.05,-0.05,1.29,-0.95,0.47,3.18,
1.956,0.05,-0.05,1.29,-0.95,0.47,3.18,
1.956,0.05,-0.05,1.29,-0.83,0.45,3.17,
1.957,0.06,-0.06,1.29,-0.83,0.45,3.17,
1.957,0.06,-0.06,1.29,-0.83,0.45,3.17,
1.957,0.06,-0.06,1.29,-0.73,0.49,3.04,
1.958,0.06,-0.07,1.29,-0.73,0.49,3.04,
1.961,0.07,-0.07,1.29,-0.73,0.49,3.04,
1.961,0.07,-0.07,1.29,-0.64,0.43,3.04,
1.963,0.08,-0.06,1.29,-0.64,0.43,3.04,
1.966,0.09,-0.07,1.29,-0.64,0.43,3.04,
1.966,0.09,-0.07,1.29,-0.52,0.37,3.05,
1.969,0.09,-0.07,1.29,-0.52,0.37,3.05,
1.97,0.09,-0.07,1.29,-0.52,0.37,3.05,
1.971,0.09,-0.07,1.29,-0.35,0.41,3.06,
1.973,0.10,-0.07,1.30,-0.35,0.41,3.06,
1.976,0.10,-0.07,1.29,-0.35,0.41,3.06,
1.976,0.10,-0.07,1.29,-0.22,0.34,3.02,
1.978,0.11,-0.08,1.29,-0.22,0.34,3.02,
1.981,0.12,-0.08,1.28,-0.22,0.34,3.02,
1.982,0.12,-0.08,1.28,-0.10,0.38,3.04,
1.983,0.13,-0.08,1.27,-0.10,0.38,3.04,
1.985,0.13,-0.08,1.27,-0.10,0.38,3.04,
1.986,0.13,-0.08,1.27,0.05,0.33,2.94,
1.988,0.13,-0.08,1.26,0.05,0.33,2.94,
1.991,0.13,-0.08,1.25,0.05,0.33,2.94,
1.991,0.13,-0.08,1.25,0.23,0.32,2.78,
1.993,0.14,-0.08,1.25,0.23,0.32,2.78,
1.997,0.14,-0.08,1.24,0.23,0.32,2.78,
1.997,0.14,-0.08,1.24,0.29,0.31,2.67,
1.998,0.14,-0.08,1.23,0.29,0.31,2.67,
2.0,0.15,-0.08,1.23,0.29,0.31,2.67,
2.001,0.15,-0.08,1.23,0.42,0.30,2.50,
2.003,0.15,-0.08,1.22,0.42,0.30,2.50,
2.005,0.15,-0.07,1.20,0.42,0.30,2.50,
2.006,0.15,-0.07,1.20,0.54,0.33,2.37,
2.008,0.15,-0.07,1.20,0.54,0.33,2.37,
2.011,0.15,-0.08,1.20,0.54,0.33,2.37,
2.011,0.15,-0.08,1.20,0.59,0.35,2.17,
2.013,0.15,-0.08,1.19,0.59,0.35,2.17,
2.016,0.14,-0.08,1.18,0.59,0.35,2.17,
2.016,0.14,-0.08,1.18,0.66,0.37,2.03,
2.018,0.14,-0.08,1.19,0.66,0.37,2.03,
2.02,0.14,-0.08,1.19,0.66,0.37,2.03,
2.021,0.14,-0.08,1.19,0.64,0.33,1.95,
2.023,0.13,-0.09,1.19,0.64,0.33,1.95,
2.026,0.13,-0.08,1.19,0.64,0.33,1.95,
2.026,0.13,-0.08,1.19,0.64,0.30,1.95,
2.028,0.13,-0.08,1.18,0.64,0.30,1.95,
2.031,0.12,-0.09,1.18,0.64,0.30,1.95,
2.031,0.12,-0.09,1.18,0.61,0.27,1.90,
2.033,0.12,-0.09,1.18,0.61,0.27,1.90,
2.035,0.12,-0.09,1.18,0.61,0.27,1.90,
2.035,0.12,-0.09,1.18,0.57,0.27,1.86,
2.037,0.12,-0.09,1.17,0.57,0.27,1.86,
2.041,0.12,-0.09,1.18,0.57,0.27,1.86,
2.041,0.12,-0.09,1.18,0.56,0.23,1.81,
2.043,0.12,-0.09,1.17,0.56,0.23,1.81,
2.046,0.13,-0.09,1.17,0.56,0.23,1.81,
2.046,0.13,-0.09,1.17,0.61,0.19,1.78,
2.048,0.14,-0.10,1.17,0.61,0.19,1.78,
2.051,0.14,-0.09,1.17,0.61,0.19,1.78,
2.051,0.14,-0.09,1.17,0.69,0.18,1.72,
2.053,0.15,-0.09,1.16,0.69,0.18,1.72,
2.055,0.16,-0.09,1.15,0.69,0.18,1.72,
2.055,0.16,-0.09,1.15,0.84,0.16,1.70,
2.058,0.16,-0.09,1.15,0.84,0.16,1.70,
2.061,0.18,-0.09,1.14,0.84,0.16,1.70,
2.061,0.18,-0.09,1.14,1.03,0.18,1.59,
2.062,0.18,-0.09,1.14,1.03,0.18,1.59,
2.065,0.18,-0.09,1.14,1.20,0.16,1.49,
2.066,0.19,-0.09,1.13,1.20,0.16,1.49,
2.068,0.19,-0.09,1.13,1.20,0.16,1.49,
2.07,0.20,-0.09,1.12,1.20,0.16,1.49,
2.07,0.20,-0.09,1.12,1.35,0.16,1.35,
2.072,0.21,-0.09,1.11,1.35,0.16,1.35,
2.074,0.21,-0.09,1.10,1.35,0.16,1.35,
2.075,0.21,-0.09,1.10,1.47,0.15,1.24,
2.078,0.22,-0.09,1.10,1.47,0.15,1.24,
2.08,0.23,-0.09,1.09,1.47,0.15,1.24,
2.08,0.23,-0.09,1.09,1.63,0.11,1.07,
2.082,0.23,-0.09,1.09,1.63,0.11,1.07,
2.085,0.24,-0.09,1.08,1.63,0.11,1.07,
2.087,0.24,-0.09,1.08,1.78,0.09,0.97,
2.087,0.24,-0.09,1.09,1.78,0.09,0.97,
2.092,0.25,-0.08,1.09,1.78,0.09,0.97,
2.093,0.25,-0.08,1.09,1.90,0.11,0.87,
2.093,0.26,-0.09,1.08,1.90,0.11,0.87,
2.097,0.26,-0.09,1.07,1.90,0.11,0.87,
2.097,0.26,-0.09,1.07,2.01,0.12,0.86,
2.097,0.27,-0.08,1.07,2.01,0.12,0.86,
2.099,0.27,-0.08,1.06,2.01,0.12,0.86,
2.1,0.27,-0.08,1.06,2.14,0.09,0.77,
2.104,0.27,-0.08,1.06,2.14,0.09,0.77,
2.104,0.27,-0.08,1.06,2.14,0.09,0.77,
2.104,0.27,-0.08,1.06,2.25,0.11,0.66,
2.107,0.28,-0.08,1.05,2.25,0.11,0.66,
2.11,0.28,-0.08,1.05,2.30,0.11,0.59,
2.11,0.28,-0.08,1.04,2.30,0.11,0.59,
2.112,0.28,-0.08,1.04,2.30,0.11,0.59,
2.115,0.28,-0.08,1.02,2.30,0.11,0.59,
2.115,0.28,-0.08,1.02,2.35,0.10,0.46,
2.118,0.28,-0.08,1.02,2.35,0.10,0.46,
2.121,0.28,-0.08,1.01,2.35,0.10,0.46,
2.122,0.28,-0.08,1.01,2.39,0.05,0.30,
2.122,0.27,-0.09,1.00,2.39,0.05,0.30,
2.124,0.27,-0.09,1.00,2.39,0.05,0.30,
2.125,0.27,-0.09,1.00,2.39,0.02,0.14,
2.127,0.27,-0.09,1.00,2.39,0.02,0.14,
2.13,0.27,-0.09,0.99,2.39,0.02,0.14,
2.13,0.27,-0.09,0.99,2.31,-0.07,0.03,
2.133,0.27,-0.09,0.99,2.31,-0.07,0.03,
2.135,0.27,-0.09,0.98,2.31,-0.07,0.03,
2.135,0.27,-0.09,0.98,2.32,-0.12,-0.07,
2.137,0.27,-0.10,0.97,2.32,-0.12,-0.07,
2.139,0.27,-0.10,0.97,2.32,-0.12,-0.07,
2.142,0.27,-0.10,0.97,2.34,-0.19,-0.16,
2.142,0.27,-0.10,0.97,2.34,-0.19,-0.16,
2.145,0.27,-0.10,0.97,2.38,-0.26,-0.27,
2.145,0.27,-0.10,0.97,2.38,-0.26,-0.27,
2.147,0.26,-0.10,0.97,2.38,-0.26,-0.27,
2.15,0.26,-0.10,0.97,2.38,-0.26,-0.27,
2.15,0.26,-0.10,0.97,2.37,-0.29,-0.27,
2.152,0.26,-0.10,0.97,2.37,-0.29,-0.27,
2.154,0.25,-0.11,0.97,2.37,-0.29,-0.27,
2.155,0.25,-0.11,0.97,2.34,-0.28,-0.34,
2.156,0.24,-0.11,0.97,2.34,-0.28,-0.34,
2.16,0.24,-0.10,0.97,2.34,-0.28,-0.34,
2.16,0.24,-0.10,0.97,2.26,-0.33,-0.32,
2.162,0.23,-0.11,0.97,2.26,-0.33,-0.32,
2.165,0.23,-0.10,0.97,2.26,-0.33,-0.32,
2.165,0.23,-0.10,0.97,2.17,-0.33,-0.32,
2.167,0.23,-0.10,0.98,2.17,-0.33,-0.32,
2.169,0.23,-0.10,0.98,2.10,-0.33,-0.29,
2.169,0.23,-0.11,0.98,2.10,-0.33,-0.29,
2.171,0.23,-0.11,0.99,2.10,-0.33,-0.29,
2.174,0.23,-0.11,0.99,2.10,-0.33,-0.29,
2.175,0.23,-0.11,0.99,2.09,-0.33,-0.21,
2.177,0.24,-0.11,1.00,2.09,-0.33,-0.21,
2.179,0.24,-0.11,1.01,2.09,-0.33,-0.21,
2.18,0.24,-0.11,1.01,2.09,-0.35,-0.13,
2.182,0.25,-0.11,1.01,2.09,-0.35,-0.13,
2.185,0.25,-0.11,1.01,2.09,-0.35,-0.13,
2.185,0.25,-0.11,1.01,2.14,-0.37,0.01,
2.187,0.26,-0.11,1.02,2.14,-0.37,0.01,
2.189,0.26,-0.11,1.02,2.14,-0.37,0.01,
2.189,0.26,-0.11,1.02,2.26,-0.39,0.08,
2.19,0.27,-0.11,1.02,2.26,-0.39,0.08,
2.194,0.27,-0.11,1.02,2.35,-0.37,0.16,
2.194,0.28,-0.11,1.02,2.35,-0.37,0.16,
2.196,0.28,-0.11,1.02,2.35,-0.37,0.16,
2.199,0.29,-0.11,1.02,2.35,-0.37,0.16,
2.199,0.29,-0.11,1.02,2.47,-0.40,0.18,
2.201,0.29,-0.11,1.02,2.47,-0.40,0.18,
2.208,0.29,-0.11,1.02,2.47,-0.40,0.18,
2.208,0.29,-0.11,1.02,2.58,-0.37,0.17,
2.209,0.30,-0.10,1.02,2.58,-0.37,0.17,
2.209,0.30,-0.10,1.02,2.58,-0.37,0.17,
2.209,0.30,-0.10,1.02,2.63,-0.39,0.19,
2.21,0.30,-0.10,1.02,2.63,-0.39,0.19,
2.213,0.30,-0.09,1.02,2.63,-0.39,0.19,
2.214,0.30,-0.09,1.02,2.65,-0.33,0.17,
2.215,0.29,-0.09,1.01,2.65,-0.33,0.17,
2.218,0.29,-0.09,1.01,2.65,-0.33,0.17,
2.218,0.29,-0.09,1.01,2.65,-0.31,0.15,
2.221,0.29,-0.08,1.01,2.65,-0.31,0.15,
2.223,0.28,-0.08,1.01,2.65,-0.31,0.15,
2.223,0.28,-0.08,1.01,2.59,-0.25,0.10,
2.225,0.28,-0.07,1.00,2.59,-0.25,0.10,
2.228,0.28,-0.07,0.99,2.59,-0.25,0.10,
2.228,0.28,-0.07,0.99,2.52,-0.16,0.05,
2.23,0.27,-0.07,0.99,2.52,-0.16,0.05,
2.233,0.27,-0.06,0.98,2.52,-0.16,0.05,
2.233,0.27,-0.06,0.98,2.46,-0.14,-0.06,
2.235,0.26,-0.06,0.98,2.46,-0.14,-0.06,
2.239,0.25,-0.06,0.97,2.46,-0.14,-0.06,
2.239,0.25,-0.06,0.97,2.38,-0.08,-0.15,
2.24,0.25,-0.05,0.97,2.38,-0.08,-0.15,
2.243,0.25,-0.05,0.96,2.38,-0.08,-0.15,
2.243,0.25,-0.05,0.96,2.27,-0.06,-0.28,
2.245,0.24,-0.05,0.95,2.27,-0.06,-0.28,
2.248,0.24,-0.04,0.95,2.27,-0.06,-0.28,
2.248,0.24,-0.04,0.95,2.19,-0.00,-0.40,
2.25,0.24,-0.04,0.94,2.19,-0.00,-0.40,
2.255,0.23,-0.03,0.94,2.19,-0.00,-0.40,
2.256,0.23,-0.03,0.94,2.11,0.06,-0.51,
2.256,0.23,-0.03,0.93,2.11,0.06,-0.51,
2.258,0.23,-0.04,0.93,2.11,0.06,-0.51,
2.258,0.23,-0.04,0.93,2.08,0.11,-0.62,
2.26,0.23,-0.03,0.93,2.08,0.11,-0.62,
2.263,0.23,-0.03,0.94,2.08,0.11,-0.62,
2.263,0.23,-0.03,0.94,2.01,0.10,-0.74,
2.265,0.23,-0.02,0.94,2.01,0.10,-0.74,
2.267,0.24,-0.03,0.94,2.01,0.10,-0.74,
2.268,0.24,-0.03,0.94,2.00,0.16,-0.67,
2.271,0.24,-0.02,0.94,2.00,0.16,-0.67,
2.272,0.25,-0.02,0.94,2.00,0.16,-0.67,
2.273,0.25,-0.02,0.94,2.06,0.16,-0.64,
2.275,0.25,-0.02,0.94,2.06,0.16,-0.64,
2.278,0.26,-0.02,0.94,2.06,0.16,-0.64,
2.278,0.26,-0.02,0.94,2.15,0.17,-0.60,
2.279,0.27,-0.01,0.94,2.15,0.17,-0.60,
2.282,0.27,-0.00,0.95,2.15,0.17,-0.60,
2.283,0.27,-0.00,0.95,2.24,0.20,-0.62,
2.284,0.27,0.00,0.95,2.24,0.20,-0.62,
2.291,0.27,0.01,0.96,2.24,0.20,-0.62,
2.292,0.27,0.01,0.96,2.34,0.31,-0.53,
2.292,0.27,0.01,0.96,2.34,0.31,-0.53,
2.292,0.28,0.01,0.97,2.34,0.31,-0.53,
2.293,0.28,0.01,0.97,2.38,0.38,-0.48,
2.294,0.27,0.01,0.96,2.38,0.38,-0.48,
2.297,0.27,0.02,0.96,2.38,0.38,-0.48,
2.298,0.27,0.02,0.96,2.38,0.43,-0.38,
2.3,0.28,0.02,0.97,2.38,0.43,-0.38,
2.302,0.27,0.02,0.97,2.38,0.43,-0.38,
2.302,0.27,0.02,0.97,2.35,0.45,-0.37,
2.305,0.27,0.02,0.97,2.35,0.45,-0.37,
2.308,0.27,0.02,0.98,2.35,0.45,-0.37,
2.308,0.27,0.02,0.98,2.39,0.45,-0.32,
2.309,0.27,0.02,0.97,2.39,0.45,-0.32,
2.312,0.27,0.02,0.97,2.39,0.45,-0.32,
2.313,0.27,0.02,0.97,2.33,0.44,-0.28,
2.314,0.26,0.02,0.97,2.33,0.44,-0.28,
2.317,0.26,0.02,0.96,2.33,0.44,-0.28,
2.317,0.26,0.02,0.96,2.30,0.46,-0.28,
2.322,0.24,0.02,0.97,2.30,0.46,-0.28,
2.322,0.24,0.02,0.97,2.30,0.46,-0.28,
2.323,0.24,0.02,0.97,2.22,0.44,-0.36,
2.324,0.22,0.02,0.97,2.22,0.44,-0.36,
2.327,0.21,0.02,0.96,2.22,0.44,-0.36,
2.328,0.21,0.02,0.96,2.04,0.41,-0.34,
2.33,0.20,0.02,0.96,2.04,0.41,-0.34,
2.333,0.20,0.02,0.96,1.84,0.35,-0.38,
2.333,0.19,0.02,0.96,1.84,0.35,-0.38,
2.335,0.18,0.01,0.95,1.84,0.35,-0.38,
2.337,0.17,0.01,0.95,1.84,0.35,-0.38,
2.338,0.17,0.01,0.95,1.58,0.33,-0.41,
2.341,0.17,0.01,0.94,1.58,0.33,-0.41,
2.342,0.16,0.01,0.94,1.58,0.33,-0.41,
2.342,0.16,0.01,0.94,1.43,0.27,-0.53,
2.344,0.15,0.00,0.94,1.43,0.27,-0.53,
2.347,0.14,-0.00,0.93,1.43,0.27,-0.53,
2.347,0.14,-0.00,0.93,1.29,0.21,-0.60,
2.349,0.14,-0.01,0.93,1.29,0.21,-0.60,
2.352,0.14,-0.00,0.93,1.29,0.21,-0.60,
2.352,0.14,-0.00,0.93,1.17,0.12,-0.70,
2.354,0.13,-0.01,0.93,1.17,0.12,-0.70,
2.357,0.13,-0.01,0.92,1.17,0.12,-0.70,
2.357,0.13,-0.01,0.92,1.08,0.05,-0.73,
2.36,0.13,-0.01,0.92,1.08,0.05,-0.73,
2.362,0.13,-0.01,0.92,1.08,0.05,-0.73,
2.362,0.13,-0.01,0.92,1.01,0.00,-0.75,
2.364,0.12,-0.01,0.92,1.01,0.00,-0.75,
2.367,0.12,-0.01,0.92,1.01,0.00,-0.75,
2.367,0.12,-0.01,0.92,0.96,-0.02,-0.81,
2.37,0.12,-0.01,0.92,0.96,-0.02,-0.81,
2.372,0.11,-0.02,0.92,0.96,-0.02,-0.81,
2.373,0.11,-0.02,0.92,0.90,-0.04,-0.80,
2.374,0.12,-0.01,0.93,0.90,-0.04,-0.80,
2.377,0.12,-0.01,0.93,0.90,-0.04,-0.80,
2.377,0.12,-0.01,0.93,0.85,-0.08,-0.79,
2.38,0.11,-0.01,0.93,0.85,-0.08,-0.79,
2.382,0.12,-0.01,0.93,0.85,-0.08,-0.79,
2.382,0.12,-0.01,0.93,0.85,-0.07,-0.71,
2.384,0.12,-0.01,0.93,0.85,-0.07,-0.71,
2.389,0.12,-0.01,0.94,0.85,-0.07,-0.71,
2.389,0.12,-0.01,0.94,0.87,-0.08,-0.68,
2.389,0.12,-0.00,0.94,0.87,-0.08,-0.68,
2.392,0.12,-0.01,0.93,0.87,-0.08,-0.68,
2.392,0.12,-0.01,0.93,0.94,-0.06,-0.65,
2.394,0.12,-0.00,0.93,0.94,-0.06,-0.65,
2.397,0.12,-0.00,0.94,0.94,-0.06,-0.65,
2.397,0.12,-0.00,0.94,0.93,-0.03,-0.65,
2.399,0.12,-0.00,0.94,0.93,-0.03,-0.65,
2.402,0.11,-0.00,0.94,0.93,-0.03,-0.65,
2.402,0.11,-0.00,0.94,0.87,-0.01,-0.63,
2.403,0.11,-0.00,0.94,0.87,-0.01,-0.63,
2.407,0.11,0.00,0.94,0.87,-0.01,-0.63,
2.407,0.11,0.00,0.94,0.85,-0.00,-0.60,
2.409,0.09,-0.00,0.94,0.85,-0.00,-0.60,
2.412,0.09,0.00,0.94,0.85,-0.00,-0.60,
2.412,0.09,0.00,0.94,0.75,0.01,-0.62,
2.414,0.08,0.00,0.94,0.75,0.01,-0.62,
2.417,0.08,-0.00,0.94,0.75,0.01,-0.62,
2.417,0.08,-0.00,0.94,0.62,-0.00,-0.59,
2.419,0.07,0.00,0.94,0.62,-0.00,-0.59,
2.425,0.06,-0.01,0.94,0.62,-0.00,-0.59,
2.425,0.06,-0.01,0.94,0.50,-0.03,-0.57,
2.425,0.06,-0.00,0.94,0.50,-0.03,-0.57,
2.427,0.06,-0.01,0.94,0.50,-0.03,-0.57,
2.428,0.06,-0.01,0.94,0.38,-0.05,-0.57,
2.429,0.06,-0.01,0.95,0.38,-0.05,-0.57,
2.432,0.06,-0.01,0.95,0.38,-0.05,-0.57,
2.433,0.06,-0.01,0.95,0.31,-0.09,-0.59,
2.434,0.07,-0.01,0.96,0.31,-0.09,-0.59,
2.436,0.09,0.00,0.97,0.31,-0.09,-0.59,
2.436,0.09,0.00,0.97,0.31,-0.16,-0.51,
2.438,0.10,0.01,0.98,0.31,-0.16,-0.51,
2.441,0.11,0.02,0.99,0.31,-0.16,-0.51,
2.441,0.11,0.02,0.99,0.49,-0.06,-0.38,
2.443,0.13,0.03,1.00,0.49,-0.06,-0.38,
2.446,0.14,0.05,1.01,0.49,-0.06,-0.38,
2.446,0.14,0.05,1.01,0.78,0.12,-0.14,
2.449,0.14,0.05,1.01,0.78,0.12,-0.14,
2.451,0.15,0.06,1.02,0.78,0.12,-0.14,
2.452,0.15,0.06,1.02,1.02,0.32,0.03,
2.454,0.15,0.07,1.03,1.02,0.32,0.03,
2.456,0.15,0.07,1.04,1.02,0.32,0.03,
2.457,0.15,0.07,1.04,1.13,0.50,0.17,
2.458,0.14,0.07,1.04,1.13,0.50,0.17,
2.46,0.13,0.07,1.03,1.13,0.50,0.17,
2.461,0.13,0.07,1.03,1.21,0.63,0.32,
2.463,0.12,0.07,1.03,1.21,0.63,0.32,
2.465,0.11,0.06,1.03,1.21,0.63,0.32,
2.466,0.11,0.06,1.03,1.07,0.62,0.32,
2.468,0.10,0.06,1.03,1.07,0.62,0.32,
2.472,0.09,0.05,1.03,1.07,0.62,0.32,
2.473,0.09,0.05,1.03,0.83,0.54,0.31,
2.473,0.09,0.04,1.03,0.83,0.54,0.31,
2.475,0.09,0.04,1.02,0.83,0.54,0.31,
2.476,0.09,0.04,1.02,0.65,0.43,0.29,
2.478,0.08,0.03,1.01,0.65,0.43,0.29,
2.48,0.08,0.03,1.01,0.65,0.43,0.29,
2.481,0.08,0.03,1.01,0.57,0.28,0.26,
2.483,0.07,0.02,1.01,0.57,0.28,0.26,
2.485,0.06,0.01,1.00,0.57,0.28,0.26,
2.485,0.06,0.01,1.00,0.48,0.16,0.12,
2.488,0.05,0.01,0.99,0.48,0.16,0.12,
2.49,0.05,-0.00,0.98,0.48,0.16,0.12,
2.49,0.05,-0.00,0.98,0.36,-0.02,0.05,
2.492,0.04,-0.01,0.98,0.36,-0.02,0.05,
2.495,0.03,-0.01,0.98,0.36,-0.02,0.05,
2.495,0.03,-0.01,0.98,0.19,-0.14,-0.12,
2.497,0.03,-0.01,0.98,0.19,-0.14,-0.12,
2.501,0.01,-0.02,0.97,0.19,-0.14,-0.12,
2.501,0.01,-0.02,0.97,0.03,-0.29,-0.21,
2.502,0.01,-0.02,0.97,0.03,-0.29,-0.21,
2.506,0.01,-0.03,0.97,0.03,-0.29,-0.21,
2.506,0.01,-0.03,0.97,-0.12,-0.37,-0.25,
2.507,0.00,-0.03,0.97,-0.12,-0.37,-0.25,
2.51,0.00,-0.03,0.97,-0.21,-0.45,-0.31,
2.511,-0.00,-0.03,0.97,-0.21,-0.45,-0.31,
2.512,-0.00,-0.04,0.97,-0.21,-0.45,-0.31,
2.515,-0.00,-0.04,0.97,-0.21,-0.45,-0.31,
2.515,-0.00,-0.04,0.97,-0.31,-0.54,-0.28,
2.519,-0.00,-0.03,0.97,-0.31,-0.54,-0.28,
2.527,-0.00,-0.03,0.97,-0.31,-0.54,-0.28,
2.528,-0.00,-0.03,0.97,-0.35,-0.59,-0.31,
2.528,-0.00,-0.03,0.97,-0.35,-0.59,-0.31,
2.529,-0.00,-0.03,0.97,-0.35,-0.56,-0.28,
2.531,-0.01,-0.02,0.97,-0.35,-0.56,-0.28,
2.531,-0.01,-0.02,0.97,-0.35,-0.56,-0.28,
2.532,-0.01,-0.02,0.97,-0.35,-0.56,-0.28,
2.532,-0.01,-0.02,0.97,-0.36,-0.52,-0.30,
2.532,-0.01,-0.01,0.97,-0.36,-0.52,-0.30,
2.535,-0.01,-0.01,0.98,-0.36,-0.52,-0.30,
2.536,-0.01,-0.01,0.98,-0.39,-0.46,-0.27,
2.539,-0.01,-0.01,0.98,-0.39,-0.46,-0.27,
2.54,-0.01,-0.01,0.97,-0.39,-0.46,-0.27,
2.54,-0.01,-0.01,0.97,-0.41,-0.39,-0.25,
2.543,-0.00,-0.01,0.97,-0.41,-0.39,-0.25,
2.545,0.00,-0.01,0.98,-0.41,-0.39,-0.25,
2.545,0.00,-0.01,0.98,-0.38,-0.40,-0.25,
2.547,0.00,-0.01,0.98,-0.38,-0.40,-0.25,
2.551,0.01,-0.00,0.97,-0.38,-0.40,-0.25,
2.551,0.01,-0.00,0.97,-0.31,-0.39,-0.25,
2.552,0.01,-0.00,0.98,-0.31,-0.39,-0.25,
2.556,0.01,-0.00,0.98,-0.31,-0.39,-0.25,
2.557,0.01,-0.00,0.98,-0.25,-0.33,-0.24,
2.558,0.02,0.00,0.97,-0.25,-0.33,-0.24,
2.56,0.02,0.01,0.97,-0.25,-0.33,-0.24,
2.56,0.02,0.01,0.97,-0.19,-0.31,-0.24,
2.562,0.02,0.01,0.98,-0.19,-0.31,-0.24,
2.566,0.03,0.01,0.97,-0.19,-0.31,-0.24,
2.566,0.03,0.01,0.97,-0.10,-0.25,-0.28,
2.568,0.03,0.02,0.97,-0.10,-0.25,-0.28,
2.569,0.03,0.02,0.98,-0.10,-0.25,-0.28,
2.57,0.03,0.02,0.98,-0.04,-0.21,-0.25,
2.572,0.03,0.02,0.97,-0.04,-0.21,-0.25,
2.575,0.03,0.02,0.97,-0.04,-0.21,-0.25,
2.575,0.03,0.02,0.97,-0.01,-0.13,-0.23,
2.577,0.03,0.02,0.98,-0.01,-0.13,-0.23,
2.579,0.03,0.02,0.98,-0.01,-0.13,-0.23,
2.58,0.03,0.02,0.98,-0.02,-0.13,-0.25,
2.581,0.03,0.02,0.98,-0.02,-0.13,-0.25,
2.585,0.03,0.02,0.98,-0.02,-0.13,-0.25,
2.586,0.03,0.02,0.98,-0.02,-0.16,-0.19,
2.586,0.03,0.02,0.99,-0.02,-0.16,-0.19,
2.59,0.02,0.02,0.99,-0.02,-0.16,-0.19,
2.591,0.02,0.02,0.99,-0.05,-0.15,-0.16,
2.593,0.02,0.02,0.99,-0.05,-0.15,-0.16,
2.594,0.02,0.02,0.99,-0.05,-0.15,-0.16,
2.595,0.02,0.02,0.99,-0.06,-0.13,-0.08,
2.596,0.01,0.01,0.99,-0.06,-0.13,-0.08,
2.601,0.01,0.01,0.99,-0.06,-0.13,-0.08,
2.601,0.01,0.01,0.99,-0.13,-0.18,-0.10,
2.601,0.01,0.01,0.99,-0.13,-0.18,-0.10,
2.611,0.01,0.01,0.99,-0.13,-0.18,-0.10,
2.611,0.01,0.01,0.99,-0.20,-0.24,-0.08,
2.614,0.00,0.00,0.99,-0.20,-0.24,-0.08,
2.614,0.00,0.00,0.99,-0.26,-0.30,-0.06,
2.614,-0.00,-0.00,0.99,-0.26,-0.30,-0.06,
2.615,0.00,-0.00,0.99,-0.26,-0.30,-0.06,
2.615,0.00,-0.00,0.99,-0.30,-0.36,-0.12,
2.616,0.00,-0.00,0.99,-0.30,-0.36,-0.12,
2.616,-0.00,-0.00,0.99,-0.30,-0.36,-0.12,
2.619,-0.00,0.00,0.99,-0.30,-0.36,-0.12,
2.619,-0.00,0.00,0.99,-0.29,-0.40,-0.10,
2.623,-0.00,0.00,1.00,-0.29,-0.40,-0.10,
2.624,-0.00,0.00,0.99,-0.29,-0.40,-0.10,
2.624,-0.00,0.00,0.99,-0.34,-0.39,-0.10,
2.626,0.00,0.00,0.99,-0.34,-0.39,-0.10,
2.629,0.00,0.01,0.99,-0.34,-0.39,-0.10,
2.63,0.00,0.01,0.99,-0.33,-0.35,-0.08,
2.632,0.00,0.02,0.99,-0.33,-0.35,-0.08,
2.635,0.00,0.01,0.99,-0.33,-0.35,-0.08,
2.638,0.00,0.01,0.99,-0.30,-0.32,-0.11,
2.638,0.01,0.02,0.99,-0.30,-0.32,-0.11,
2.643,0.01,0.02,0.99,-0.29,-0.25,-0.07,
2.644,0.01,0.02,1.00,-0.29,-0.25,-0.07,
2.645,0.01,0.02,0.99,-0.29,-0.25,-0.07,
2.645,0.01,0.02,0.99,-0.29,-0.25,-0.07,
2.645,0.01,0.02,0.99,-0.26,-0.20,-0.07,
2.646,0.01,0.03,0.99,-0.26,-0.20,-0.07,
2.65,0.01,0.03,0.99,-0.26,-0.20,-0.07,
2.65,0.01,0.03,0.99,-0.24,-0.20,-0.08,
2.651,0.00,0.03,0.99,-0.24,-0.20,-0.08,
2.654,0.00,0.03,0.99,-0.27,-0.14,-0.05,
2.655,0.01,0.03,0.99,-0.27,-0.14,-0.05,
2.656,0.01,0.03,0.99,-0.27,-0.14,-0.05,
2.659,0.00,0.03,0.99,-0.27,-0.14,-0.05,
2.659,0.00,0.03,0.99,-0.29,-0.13,-0.06,
2.662,0.00,0.03,0.99,-0.29,-0.13,-0.06,
2.664,0.01,0.03,0.99,-0.29,-0.13,-0.06,
2.664,0.01,0.03,0.99,-0.29,-0.16,-0.11,
2.666,0.00,0.03,0.98,-0.29,-0.16,-0.11,
2.669,0.00,0.03,0.98,-0.29,-0.16,-0.11,
2.669,0.00,0.03,0.98,-0.30,-0.10,-0.13,
2.672,0.01,0.04,0.98,-0.30,-0.10,-0.13,
2.674,0.01,0.04,0.98,-0.30,-0.10,-0.13,
2.674,0.01,0.04,0.98,-0.30,-0.11,-0.16,
2.677,0.01,0.04,0.98,-0.30,-0.11,-0.16,
2.679,0.01,0.05,0.98,-0.30,-0.11,-0.16,
2.68,0.01,0.05,0.98,-0.26,-0.06,-0.17,
2.681,0.01,0.05,0.98,-0.26,-0.06,-0.17,
2.684,0.01,0.05,0.97,-0.26,-0.06,-0.17,
2.684,0.01,0.05,0.97,-0.27,0.01,-0.22,
2.686,0.01,0.06,0.97,-0.27,0.01,-0.22,
2.69,0.01,0.06,0.97,-0.27,0.01,-0.22,
2.69,0.01,0.06,0.97,-0.24,0.03,-0.24,
2.691,0.00,0.06,0.97,-0.24,0.03,-0.24,
2.694,0.00,0.06,0.97,-0.26,0.10,-0.31,
2.694,0.01,0.06,0.96,-0.26,0.10,-0.31,
2.698,0.01,0.06,0.96,-0.26,0.10,-0.31,
2.698,0.00,0.06,0.96,-0.26,0.10,-0.31,
2.699,0.00,0.06,0.96,-0.26,0.11,-0.34,
2.701,0.00,0.06,0.95,-0.26,0.11,-0.34,
2.705,0.00,0.06,0.95,-0.26,0.11,-0.34,
2.705,0.00,0.06,0.95,-0.28,0.12,-0.39,
2.706,0.00,0.06,0.95,-0.28,0.12,-0.39,
2.708,-0.00,0.05,0.94,-0.28,0.12,-0.39,
2.708,-0.00,0.05,0.94,-0.32,0.09,-0.43,
2.711,-0.00,0.06,0.95,-0.32,0.09,-0.43,
2.714,-0.00,0.06,0.94,-0.32,0.09,-0.43,
2.714,-0.00,0.06,0.94,-0.33,0.07,-0.51,
2.716,-0.00,0.06,0.94,-0.33,0.07,-0.51,
2.718,-0.00,0.06,0.94,-0.33,0.07,-0.51,
2.718,-0.00,0.06,0.94,-0.35,0.09,-0.54,
2.721,-0.01,0.06,0.94,-0.35,0.09,-0.54,
2.727,-0.01,0.06,0.94,-0.34,0.08,-0.58,
2.728,-0.01,0.05,0.94,-0.34,0.08,-0.58,
2.728,-0.01,0.06,0.94,-0.34,0.08,-0.58,
2.728,-0.01,0.05,0.95,-0.34,0.08,-0.58,
2.728,-0.01,0.05,0.95,-0.41,0.07,-0.56,
2.73,-0.01,0.05,0.95,-0.41,0.07,-0.56,
2.733,-0.00,0.05,0.95,-0.41,0.07,-0.56,
2.734,-0.00,0.05,0.95,-0.42,0.04,-0.54,
2.735,-0.00,0.05,0.95,-0.42,0.04,-0.54,
2.74,-0.00,0.05,0.96,-0.42,0.04,-0.54,
2.741,-0.00,0.05,0.96,-0.40,0.01,-0.48,
2.741,0.00,0.05,0.96,-0.40,0.01,-0.48,
2.743,0.00,0.05,0.96,-0.36,-0.00,-0.43,
2.743,0.00,0.05,0.96,-0.36,-0.00,-0.43,
2.745,0.00,0.05,0.98,-0.36,-0.00,-0.43,
2.749,0.01,0.05,0.97,-0.36,-0.00,-0.43,
2.749,0.01,0.05,0.97,-0.33,0.01,-0.36,
2.75,0.01,0.05,0.98,-0.33,0.01,-0.36,
2.753,0.01,0.05,0.98,-0.30,-0.01,-0.23,
2.754,0.01,0.05,0.99,-0.30,-0.01,-0.23,
2.755,0.01,0.05,0.99,-0.30,-0.01,-0.23,
2.758,0.01,0.05,0.99,-0.30,-0.01,-0.23,
2.759,0.01,0.05,0.99,-0.25,0.00,-0.17,
2.76,0.01,0.05,0.99,-0.25,0.00,-0.17,
2.763,0.01,0.05,1.00,-0.25,0.00,-0.17,
2.763,0.01,0.05,1.00,-0.26,-0.02,-0.07,
2.765,0.01,0.05,0.99,-0.26,-0.02,-0.07,
2.768,0.02,0.04,1.00,-0.26,-0.02,-0.07,
2.768,0.02,0.04,1.00,-0.24,-0.00,-0.04,
2.77,0.03,0.04,0.99,-0.24,-0.00,-0.04,
2.773,0.03,0.04,1.00,-0.24,-0.00,-0.04,
2.773,0.03,0.04,1.00,-0.19,-0.03,-0.03,
2.775,0.05,0.04,1.00,-0.19,-0.03,-0.03,
2.777,0.08,0.04,0.99,-0.19,-0.03,-0.03,
2.778,0.08,0.04,0.99,-0.10,-0.03,-0.02,
2.78,0.09,0.04,0.99,-0.10,-0.03,-0.02,
2.782,0.09,0.05,0.99,-0.10,-0.03,-0.02,
2.783,0.09,0.05,0.99,0.25,-0.08,-0.02,
2.784,0.09,0.05,0.99,0.25,-0.08,-0.02,
2.787,0.07,0.05,1.01,0.25,-0.08,-0.02,
2.788,0.07,0.05,1.01,0.52,-0.04,-0.10,
2.79,0.05,0.05,1.02,0.52,-0.04,-0.10,
2.792,0.03,0.05,1.03,0.52,-0.04,-0.10,
2.793,0.03,0.05,1.03,0.38,0.01,-0.01,
2.794,0.01,0.05,1.04,0.38,0.01,-0.01,
2.797,-0.00,0.05,1.05,0.38,0.01,-0.01,
2.797,-0.00,0.05,1.05,0.00,0.06,0.27,
2.8,-0.01,0.05,1.05,0.00,0.06,0.27,
2.802,-0.01,0.03,1.05,0.00,0.06,0.27,
2.803,-0.01,0.03,1.05,-0.35,0.07,0.48,
2.804,0.00,0.02,1.04,-0.35,0.07,0.48,
2.808,0.01,0.02,1.04,-0.35,0.07,0.48,
2.808,0.01,0.02,1.04,-0.50,-0.07,0.51,
2.809,0.02,0.02,1.03,-0.50,-0.07,0.51,
2.812,0.02,0.02,1.03,-0.35,-0.23,0.43,
2.812,0.03,0.02,1.02,-0.35,-0.23,0.43,
2.814,0.03,0.01,1.02,-0.35,-0.23,0.43,
2.817,0.03,0.02,1.01,-0.35,-0.23,0.43,
2.817,0.03,0.02,1.01,-0.18,-0.30,0.28,
2.819,0.04,0.03,1.01,-0.18,-0.30,0.28,
2.825,0.04,0.03,1.01,-0.10,-0.33,0.14,
2.826,0.03,0.03,1.01,-0.10,-0.33,0.14,
2.826,0.03,0.04,1.01,-0.10,-0.33,0.14,
2.827,0.03,0.04,1.01,-0.10,-0.33,0.14,
2.828,0.03,0.04,1.01,-0.07,-0.23,0.10,
2.829,0.02,0.04,1.01,-0.07,-0.23,0.10,
2.832,0.02,0.05,1.02,-0.07,-0.23,0.10,
2.832,0.02,0.05,1.02,-0.15,-0.13,0.12,
2.834,0.02,0.04,1.02,-0.15,-0.13,0.12,
2.837,0.02,0.04,1.02,-0.15,-0.13,0.12,
2.838,0.02,0.04,1.02,-0.20,-0.09,0.17,
2.84,0.02,0.05,1.02,-0.20,-0.09,0.17,
2.842,0.01,0.04,1.02,-0.20,-0.09,0.17,
2.842,0.01,0.04,1.02,-0.26,-0.11,0.21,
2.844,0.01,0.04,1.02,-0.26,-0.11,0.21,
2.847,0.00,0.04,1.02,-0.26,-0.11,0.21,
2.847,0.00,0.04,1.02,-0.28,-0.11,0.19,
2.849,0.00,0.04,1.02,-0.28,-0.11,0.19,
2.852,0.00,0.04,1.02,-0.28,-0.11,0.19,
2.852,0.00,0.04,1.02,-0.36,-0.18,0.21,
2.856,0.00,0.04,1.02,-0.36,-0.18,0.21,
2.862,0.01,0.03,1.02,-0.36,-0.18,0.21,
2.863,0.01,0.03,1.02,-0.42,-0.15,0.20,
2.863,0.01,0.03,1.02,-0.42,-0.15,0.20,
2.866,0.01,0.03,1.02,-0.42,-0.15,0.20,
2.866,0.01,0.03,1.02,-0.38,-0.24,0.22,
2.866,0.01,0.03,1.02,-0.38,-0.24,0.22,
2.867,0.02,0.04,1.02,-0.38,-0.24,0.22,
2.867,0.02,0.04,1.02,-0.35,-0.26,0.22,
2.869,0.03,0.04,1.03,-0.35,-0.26,0.22,
2.872,0.03,0.04,1.03,-0.35,-0.26,0.22,
2.873,0.03,0.04,1.03,-0.27,-0.23,0.23,
2.878,0.03,0.05,1.03,-0.27,-0.23,0.23,
2.879,0.03,0.05,1.03,-0.15,-0.17,0.27,
2.879,0.04,0.06,1.02,-0.15,-0.17,0.27,
2.879,0.04,0.06,1.03,-0.15,-0.17,0.27,
2.881,0.04,0.07,1.02,-0.15,-0.17,0.27,
2.882,0.04,0.07,1.02,-0.11,-0.06,0.24,
2.883,0.04,0.07,1.02,-0.11,-0.06,0.24,
2.886,0.04,0.07,1.02,-0.11,-0.06,0.24,
2.887,0.04,0.07,1.02,-0.07,0.04,0.24,
2.89,0.03,0.07,1.01,-0.07,0.04,0.24,
2.892,0.04,0.08,1.01,-0.07,0.04,0.24,
2.893,0.04,0.08,1.01,-0.05,0.09,0.16,
2.893,0.04,0.08,1.00,-0.05,0.09,0.16,
2.896,0.03,0.08,1.00,-0.05,0.09,0.16,
2.897,0.03,0.08,1.00,-0.07,0.15,0.11,
2.898,0.04,0.08,0.99,-0.07,0.15,0.11,
2.902,0.03,0.07,1.00,-0.07,0.15,0.11,
2.902,0.03,0.07,1.00,-0.07,0.17,-0.00,
2.904,0.03,0.08,1.00,-0.07,0.17,-0.00,
2.907,0.03,0.07,1.00,-0.07,0.17,-0.00,
2.908,0.03,0.07,1.00,-0.08,0.16,-0.05,
2.909,0.03,0.07,1.00,-0.08,0.16,-0.05,
2.911,0.03,0.07,1.00,-0.16,0.14,0.00,
2.912,0.03,0.07,1.00,-0.16,0.14,0.00,
2.914,0.03,0.07,0.99,-0.16,0.14,0.00,
2.917,0.03,0.07,1.00,-0.16,0.14,0.00,
2.917,0.03,0.07,1.00,-0.13,0.10,-0.04,
2.919,0.03,0.07,0.99,-0.13,0.10,-0.04,
2.922,0.02,0.07,0.99,-0.13,0.10,-0.04,
2.922,0.02,0.07,0.99,-0.16,0.07,-0.05,
2.924,0.03,0.07,0.99,-0.16,0.07,-0.05,
2.926,0.02,0.06,0.99,-0.16,0.07,-0.05,
2.927,0.02,0.06,0.99,-0.17,0.07,-0.07,
2.929,0.03,0.06,0.99,-0.17,0.07,-0.07,
2.932,0.03,0.07,0.99,-0.17,0.07,-0.07,
2.932,0.03,0.07,0.99,-0.16,0.03,-0.08,
2.934,0.04,0.07,0.99,-0.16,0.03,-0.08,
2.937,0.04,0.07,0.99,-0.14,0.05,-0.09,
2.937,0.04,0.07,1.00,-0.14,0.05,-0.09,
2.939,0.04,0.07,0.99,-0.14,0.05,-0.09,
2.941,0.04,0.07,1.00,-0.14,0.05,-0.09,
2.942,0.04,0.07,1.00,-0.04,0.07,-0.05,
2.944,0.05,0.07,1.01,-0.04,0.07,-0.05,
2.946,0.06,0.08,1.01,-0.04,0.07,-0.05,
2.946,0.06,0.08,1.01,0.00,0.09,-0.02,
2.949,0.06,0.08,1.01,0.00,0.09,-0.02,
2.951,0.06,0.08,1.02,0.00,0.09,-0.02,
2.952,0.06,0.08,1.02,0.13,0.12,0.12,
2.954,0.07,0.08,1.01,0.13,0.12,0.12,
2.956,0.08,0.08,1.02,0.13,0.12,0.12,
2.956,0.08,0.08,1.02,0.19,0.13,0.14,
2.963,0.07,0.09,1.01,0.19,0.13,0.14,
2.964,0.08,0.09,1.01,0.19,0.13,0.14,
2.964,0.08,0.09,1.01,0.30,0.19,0.14,
2.965,0.08,0.09,1.01,0.30,0.19,0.14,
2.968,0.08,0.09,1.02,0.30,0.19,0.14,
2.969,0.08,0.09,1.02,0.32,0.24,0.13,
2.969,0.08,0.09,1.01,0.32,0.24,0.13,
2.971,0.08,0.09,1.01,0.32,0.24,0.13,
2.971,0.08,0.09,1.01,0.36,0.21,0.14,
2.975,0.08,0.09,1.01,0.36,0.21,0.14,
2.976,0.08,0.09,1.01,0.36,0.21,0.14,
2.976,0.08,0.09,1.01,0.38,0.26,0.09,
2.979,0.08,0.09,1.00,0.38,0.26,0.09,
2.981,0.08,0.09,1.00,0.36,0.24,0.06,
2.981,0.08,0.08,1.00,0.36,0.24,0.06,
2.983,0.07,0.08,1.00,0.36,0.24,0.06,
2.986,0.06,0.08,0.99,0.36,0.24,0.06,
2.986,0.06,0.08,0.99,0.32,0.19,0.02,
2.988,0.06,0.08,0.98,0.32,0.19,0.02,
2.991,0.05,0.07,0.98,0.32,0.19,0.02,
2.991,0.05,0.07,0.98,0.21,0.16,-0.05,
2.993,0.03,0.07,0.98,0.21,0.16,-0.05,
2.996,0.03,0.06,0.97,0.21,0.16,-0.05,
2.996,0.03,0.06,0.97,0.08,0.08,-0.19,
2.998,0.02,0.07,0.97,0.08,0.08,-0.19,
3.001,0.01,0.07,0.97,0.08,0.08,-0.19,
3.001,0.01,0.07,0.97,-0.13,-0.02,-0.28,
3.003,-0.00,0.06,0.97,-0.13,-0.02,-0.28,
3.006,-0.01,0.06,0.98,-0.13,-0.02,-0.28,
3.006,-0.01,0.06,0.98,-0.32,0.02,-0.29,
3.008,-0.01,0.05,0.97,-0.32,0.02,-0.29,
3.01,-0.01,0.05,0.98,-0.32,0.02,-0.29,
3.011,-0.01,0.05,0.98,-0.46,-0.07,-0.24,
3.012,-0.01,0.04,0.98,-0.46,-0.07,-0.24,
3.016,-0.01,0.04,0.98,-0.46,-0.07,-0.24,
3.016,-0.01,0.04,0.98,-0.51,-0.17,-0.24,
3.018,-0.01,0.04,0.98,-0.51,-0.17,-0.24,
3.021,-0.00,0.04,0.98,-0.51,-0.17,-0.24,
3.021,-0.00,0.04,0.98,-0.54,-0.26,-0.16,
3.023,-0.00,0.04,0.99,-0.54,-0.26,-0.16,
3.025,0.00,0.04,0.99,-0.54,-0.26,-0.16,
3.026,0.00,0.04,0.99,-0.48,-0.29,-0.19,
3.027,0.00,0.04,1.00,-0.48,-0.29,-0.19,
3.031,0.01,0.05,0.99,-0.48,-0.29,-0.19,
3.031,0.01,0.05,0.99,-0.41,-0.29,-0.12,
3.033,0.01,0.05,1.00,-0.41,-0.29,-0.12,
3.036,0.01,0.06,1.00,-0.41,-0.29,-0.12,
3.036,0.01,0.06,1.00,-0.38,-0.21,-0.03,
3.038,0.02,0.06,1.00,-0.38,-0.21,-0.03,
3.042,0.02,0.06,1.01,-0.38,-0.21,-0.03,
3.042,0.02,0.06,1.01,-0.29,-0.13,-0.00,
3.042,0.03,0.06,1.00,-0.29,-0.13,-0.00,
3.046,0.03,0.06,1.01,-0.29,-0.13,-0.00,
3.046,0.03,0.06,1.01,-0.23,-0.09,0.07,
3.048,0.04,0.06,1.01,-0.23,-0.09,0.07,
3.05,0.04,0.06,1.01,-0.13,-0.02,0.08,
3.051,0.04,0.07,1.01,-0.13,-0.02,0.08,
3.053,0.04,0.07,1.01,-0.13,-0.02,0.08,
3.055,0.04,0.07,1.01,-0.13,-0.02,0.08,
3.056,0.04,0.07,1.01,-0.02,0.00,0.11,
3.058,0.05,0.07,1.01,-0.02,0.00,0.11,
3.06,0.05,0.07,1.01,-0.02,0.00,0.11,
3.06,0.05,0.07,1.01,0.03,0.03,0.14,
3.063,0.05,0.07,1.01,0.03,0.03,0.14,
3.065,0.05,0.07,1.01,0.06,0.07,0.08,
3.066,0.05,0.07,1.01,0.06,0.07,0.08,
3.068,0.04,0.07,1.00,0.06,0.07,0.08,
3.07,0.05,0.07,1.00,0.06,0.07,0.08,
3.07,0.05,0.07,1.00,0.06,0.02,0.07,
3.072,0.04,0.07,1.00,0.06,0.02,0.07,
3.078,0.04,0.07,0.99,0.06,0.02,0.07,
3.079,0.04,0.07,0.99,0.02,0.01,0.02,
3.079,0.03,0.07,0.99,0.02,0.01,0.02,
3.082,0.03,0.07,0.98,0.02,0.01,0.02,
3.082,0.03,0.07,0.98,-0.02,0.01,-0.05,
3.082,0.02,0.07,0.99,-0.02,0.01,-0.05,
3.085,0.01,0.07,0.99,-0.02,0.01,-0.05,
3.085,0.01,0.07,0.99,-0.11,0.02,-0.11,
3.087,0.01,0.07,0.99,-0.11,0.02,-0.11,
3.092,0.01,0.06,0.99,-0.11,0.02,-0.11,
3.092,0.01,0.06,0.99,-0.24,-0.00,-0.11,
3.093,0.01,0.06,1.00,-0.24,-0.00,-0.11,
3.094,0.01,0.06,0.99,-0.24,-0.00,-0.11,
3.095,0.01,0.06,0.99,-0.29,-0.01,-0.09,
3.096,-0.00,0.05,0.99,-0.29,-0.01,-0.09,
3.099,0.00,0.05,1.00,-0.29,-0.01,-0.09,
3.1,0.00,0.05,1.00,-0.32,-0.08,-0.04,
3.101,0.00,0.04,1.00,-0.32,-0.08,-0.04,
3.104,0.00,0.04,1.00,-0.32,-0.08,-0.04,
3.104,0.00,0.04,1.00,-0.39,-0.14,-0.08,
3.108,0.00,0.04,1.00,-0.39,-0.14,-0.08,
3.11,0.01,0.04,1.01,-0.39,-0.14,-0.08,
3.11,0.01,0.04,1.01,-0.39,-0.21,-0.00,
3.112,0.02,0.04,1.00,-0.39,-0.21,-0.00,
3.114,0.02,0.04,1.00,-0.39,-0.21,-0.00,
3.114,0.02,0.04,1.00,-0.33,-0.25,0.04,
3.116,0.02,0.04,1.01,-0.33,-0.25,0.04,
3.12,0.03,0.04,1.02,-0.33,-0.25,0.04,
3.12,0.03,0.04,1.02,-0.21,-0.26,0.05,
3.121,0.03,0.04,1.02,-0.21,-0.26,0.05,
3.124,0.04,0.04,1.02,-0.21,-0.26,0.05,
3.125,0.04,0.04,1.02,-0.15,-0.22,0.18,
3.126,0.04,0.05,1.03,-0.15,-0.22,0.18,
3.129,0.05,0.05,1.03,-0.15,-0.22,0.18,
3.132,0.05,0.05,1.03,-0.03,-0.23,0.20,
3.132,0.05,0.06,1.03,-0.03,-0.23,0.20,
3.134,0.05,0.06,1.03,-0.03,-0.23,0.20,
3.134,0.05,0.06,1.03,0.06,-0.14,0.30,
3.136,0.05,0.06,1.03,0.06,-0.14,0.30,
3.139,0.05,0.07,1.03,0.06,-0.14,0.30,
3.139,0.05,0.07,1.03,0.12,-0.05,0.27,
3.142,0.06,0.08,1.03,0.12,-0.05,0.27,
3.144,0.06,0.08,1.03,0.13,0.00,0.27,
3.144,0.05,0.08,1.03,0.13,0.00,0.27,
3.146,0.05,0.08,1.02,0.13,0.00,0.27,
3.149,0.04,0.08,1.01,0.13,0.00,0.27,
3.149,0.04,0.08,1.01,0.15,0.08,0.27,
3.151,0.04,0.08,1.01,0.15,0.08,0.27,
3.154,0.04,0.09,1.01,0.15,0.08,0.27,
3.154,0.04,0.09,1.01,0.08,0.11,0.18,
3.156,0.04,0.08,1.01,0.08,0.11,0.18,
3.159,0.03,0.08,1.00,0.08,0.11,0.18,
3.159,0.03,0.08,1.00,0.05,0.14,0.11,
3.161,0.03,0.08,0.99,0.05,0.14,0.11,
3.164,0.03,0.08,0.99,0.05,0.14,0.11,
3.164,0.03,0.08,0.99,-0.02,0.13,0.04,
3.167,0.03,0.08,0.99,-0.02,0.13,0.04,
3.169,0.03,0.07,0.98,-0.02,0.13,0.04,
3.169,0.03,0.07,0.98,-0.08,0.09,-0.09,
3.171,0.02,0.07,0.98,-0.08,0.09,-0.09,
3.174,0.02,0.06,0.98,-0.08,0.09,-0.09,
3.174,0.02,0.06,0.98,-0.11,0.01,-0.17,
3.177,0.02,0.06,0.98,-0.11,0.01,-0.17,
3.179,0.02,0.06,0.98,-0.11,0.01,-0.17,
3.179,0.02,0.06,0.98,-0.16,-0.08,-0.20,
3.182,0.02,0.06,0.98,-0.16,-0.08,-0.20,
3.184,0.03,0.06,0.98,-0.16,-0.08,-0.20,
3.184,0.03,0.06,0.98,-0.17,-0.12,-0.19,
3.186,0.04,0.06,0.98,-0.17,-0.12,-0.19,
3.189,0.04,0.06,0.98,-0.17,-0.12,-0.19,
3.189,0.04,0.06,0.98,-0.10,-0.16,-0.17,
3.19,0.04,0.07,0.98,-0.10,-0.16,-0.17,
3.195,0.05,0.06,0.98,-0.10,-0.16,-0.17,
3.196,0.05,0.06,0.98,0.01,-0.17,-0.19,
3.196,0.04,0.07,0.97,0.01,-0.17,-0.19,
3.199,0.04,0.07,0.97,0.01,-0.17,-0.19,
3.199,0.04,0.07,0.97,0.08,-0.11,-0.19,
3.201,0.05,0.07,0.97,0.08,-0.11,-0.19,
3.204,0.05,0.07,0.97,0.08,-0.11,-0.19,
3.204,0.05,0.07,0.97,0.06,-0.06,-0.24,
3.206,0.05,0.08,0.98,0.06,-0.06,-0.24,
3.209,0.04,0.08,0.97,0.06,-0.06,-0.24,
3.209,0.04,0.08,0.97,0.08,-0.07,-0.23,
3.21,0.04,0.08,0.97,0.08,-0.07,-0.23,
3.213,0.04,0.08,0.98,0.08,-0.07,-0.23,
3.213,0.04,0.08,0.98,0.08,0.00,-0.22,
3.216,0.03,0.08,0.98,0.08,0.00,-0.22,
3.219,0.04,0.08,0.99,0.08,0.00,-0.22,
3.219,0.04,0.08,0.99,0.03,-0.01,-0.20,
3.22,0.03,0.08,0.99,0.03,-0.01,-0.20,
3.224,0.03,0.08,0.99,0.03,-0.01,-0.20,
3.224,0.03,0.08,0.99,-0.02,0.03,-0.12,
3.228,0.03,0.08,0.99,-0.02,0.03,-0.12,
3.228,0.03,0.08,0.99,-0.02,0.03,-0.12,
3.228,0.03,0.08,0.99,-0.03,0.00,-0.09,
3.231,0.03,0.07,0.99,-0.03,0.00,-0.09,
3.234,0.03,0.07,1.00,-0.03,0.00,-0.09,
3.234,0.03,0.07,1.00,-0.05,-0.00,-0.08,
3.236,0.02,0.07,1.00,-0.05,-0.00,-0.08,
3.239,0.03,0.07,1.00,-0.05,-0.00,-0.08,
3.239,0.03,0.07,1.00,-0.08,-0.08,-0.04,
3.241,0.02,0.06,0.99,-0.08,-0.08,-0.04,
3.243,0.02,0.06,0.99,-0.09,-0.10,-0.01,
3.244,0.02,0.07,1.00,-0.09,-0.10,-0.01,
3.245,0.02,0.06,1.00,-0.09,-0.10,-0.01,
3.249,0.01,0.06,1.00,-0.09,-0.10,-0.01,
3.249,0.01,0.06,1.00,-0.13,-0.13,-0.04,
3.251,0.01,0.07,0.99,-0.13,-0.13,-0.04,
3.253,0.00,0.07,0.99,-0.13,-0.13,-0.04,
3.254,0.00,0.07,0.99,-0.20,-0.16,-0.01,
3.256,-0.00,0.07,1.00,-0.20,-0.16,-0.01,
3.26,-0.01,0.07,0.99,-0.20,-0.16,-0.01,
3.26,-0.01,0.07,0.99,-0.28,-0.06,-0.08,
3.26,-0.01,0.06,0.99,-0.28,-0.06,-0.08,
3.263,-0.01,0.06,0.99,-0.36,-0.07,-0.06,
3.264,-0.01,0.07,0.99,-0.36,-0.07,-0.06,
3.266,-0.01,0.07,0.99,-0.36,-0.07,-0.06,
3.268,-0.00,0.07,0.99,-0.36,-0.07,-0.06,
3.269,-0.00,0.07,0.99,-0.42,-0.13,-0.04,
3.27,0.01,0.06,0.99,-0.42,-0.13,-0.04,
3.273,0.01,0.06,0.99,-0.42,-0.13,-0.04,
3.273,0.01,0.06,0.99,-0.39,-0.15,-0.09,
3.279,0.02,0.07,0.99,-0.39,-0.15,-0.09,
3.28,0.02,0.07,0.99,-0.39,-0.15,-0.09,
3.28,0.02,0.07,0.99,-0.24,-0.17,-0.06,
3.28,0.03,0.07,0.99,-0.24,-0.17,-0.06,
3.282,0.04,0.08,0.99,-0.24,-0.17,-0.06,
3.283,0.04,0.08,0.99,-0.14,-0.12,-0.05,
3.285,0.04,0.08,0.99,-0.14,-0.12,-0.05,
3.288,0.04,0.09,0.99,-0.14,-0.12,-0.05,
3.288,0.04,0.09,0.99,-0.04,-0.07,-0.06,
3.29,0.04,0.09,0.99,-0.04,-0.07,-0.06,
3.292,0.04,0.09,0.98,-0.04,-0.07,-0.06,
3.293,0.04,0.09,0.98,0.02,-0.00,-0.06,
3.295,0.04,0.10,0.99,0.02,-0.00,-0.06,
3.298,0.04,0.10,0.99,0.00,0.05,-0.11,
3.298,0.04,0.10,0.99,0.00,0.05,-0.11,
3.3,0.04,0.10,0.99,0.00,0.05,-0.11,
3.303,0.05,0.10,0.98,0.00,0.05,-0.11,
3.303,0.05,0.10,0.98,0.02,0.11,-0.08,
3.305,0.04,0.10,0.98,0.02,0.11,-0.08,
3.309,0.05,0.11,0.98,0.02,0.11,-0.08,
3.31,0.05,0.11,0.98,0.05,0.10,-0.12,
3.31,0.05,0.10,0.99,0.05,0.10,-0.12,
3.312,0.05,0.10,0.99,0.05,0.10,-0.12,
3.313,0.05,0.10,0.99,0.05,0.15,-0.15,
3.315,0.05,0.10,0.98,0.05,0.15,-0.15,
3.318,0.05,0.10,0.99,0.05,0.15,-0.15,
3.318,0.05,0.10,0.99,0.10,0.09,-0.08,
3.32,0.05,0.10,0.98,0.10,0.09,-0.08,
3.323,0.05,0.10,0.99,0.10,0.09,-0.08,
3.323,0.05,0.10,0.99,0.09,0.09,-0.12,
3.327,0.06,0.10,0.99,0.09,0.09,-0.12,
3.327,0.06,0.10,0.99,0.09,0.09,-0.12,
3.327,0.06,0.10,0.99,0.09,0.10,-0.11,
3.329,0.06,0.10,0.99,0.09,0.10,-0.11,
3.332,0.06,0.10,0.99,0.13,0.08,-0.05,
3.332,0.06,0.10,0.99,0.13,0.08,-0.05,
3.334,0.05,0.11,1.00,0.13,0.08,-0.05,
3.338,0.05,0.11,1.00,0.13,0.08,-0.05,
3.338,0.05,0.11,1.00,0.13,0.09,-0.04,
3.339,0.05,0.10,1.00,0.13,0.09,-0.04,
3.343,0.05,0.10,1.00,0.13,0.09,-0.04,
3.343,0.05,0.10,1.00,0.07,0.12,0.05,
3.345,0.05,0.10,1.01,0.07,0.12,0.05,
3.347,0.05,0.10,1.01,0.07,0.12,0.05,
3.347,0.05,0.10,1.01,0.03,0.09,0.09,
3.349,0.05,0.10,1.01,0.03,0.09,0.09,
3.352,0.05,0.09,1.02,0.03,0.09,0.09,
3.352,0.05,0.09,1.02,0.04,0.07,0.13,
3.354,0.05,0.10,1.01,0.04,0.07,0.13,
3.356,0.05,0.10,1.02,0.04,0.07,0.13,
3.357,0.05,0.10,1.02,0.06,-0.00,0.20,
3.363,0.05,0.10,1.01,0.06,-0.00,0.20,
3.363,0.05,0.10,1.01,0.06,-0.00,0.20,
3.363,0.05,0.10,1.01,0.03,-0.00,0.20,
3.364,0.05,0.09,1.02,0.03,-0.00,0.20,
3.367,0.05,0.09,1.01,0.03,-0.00,0.20,
3.367,0.05,0.09,1.01,0.02,-0.01,0.19,
3.369,0.05,0.09,1.02,0.02,-0.01,0.19,
3.372,0.05,0.09,1.02,0.02,-0.01,0.19,
3.372,0.05,0.09,1.02,-0.01,-0.05,0.22,
3.374,0.04,0.09,1.02,-0.01,-0.05,0.22,
3.378,0.04,0.09,1.02,-0.01,-0.05,0.22,
3.378,0.04,0.09,1.02,-0.01,-0.05,0.20,
3.379,0.04,0.10,1.02,-0.01,-0.05,0.20,
3.381,0.04,0.09,1.01,-0.01,-0.05,0.20,
3.381,0.04,0.09,1.01,-0.08,-0.07,0.23,
3.383,0.04,0.09,1.01,-0.08,-0.07,0.23,
3.386,0.04,0.09,1.01,-0.08,-0.07,0.23,
3.387,0.04,0.09,1.01,-0.11,-0.05,0.20,
3.388,0.04,0.09,1.00,-0.11,-0.05,0.20,
3.393,0.04,0.09,1.00,-0.11,-0.05,0.20,
3.394,0.04,0.09,1.00,-0.10,-0.10,0.15,
3.394,0.04,0.09,1.00,-0.10,-0.10,0.15,
3.397,0.05,0.09,1.00,-0.10,-0.10,0.15,
3.397,0.05,0.09,1.00,-0.10,-0.08,0.08,
3.399,0.04,0.09,1.00,-0.10,-0.08,0.08,
3.402,0.04,0.09,0.99,-0.10,-0.08,0.08,
3.402,0.04,0.09,0.99,-0.10,-0.10,0.02,
3.404,0.05,0.09,1.00,-0.10,-0.10,0.02,
3.407,0.05,0.09,0.99,-0.10,-0.10,0.02,
3.407,0.05,0.09,0.99,-0.09,-0.11,-0.01,
3.409,0.05,0.09,0.99,-0.09,-0.11,-0.01,
3.411,0.05,0.09,0.99,-0.09,-0.11,-0.01,
3.412,0.05,0.09,0.99,-0.08,-0.11,-0.02,
3.414,0.04,0.09,0.97,-0.08,-0.11,-0.02,
3.417,0.03,0.09,0.93,-0.08,-0.11,-0.02,
3.417,0.03,0.09,0.93,-0.08,-0.10,-0.03,
3.419,0.04,0.10,0.88,-0.08,-0.10,-0.03,
3.422,0.04,0.10,0.88,-0.18,-0.14,-0.47,
3.422,0.07,0.11,0.86,-0.18,-0.14,-0.47,
3.424,0.09,0.11,0.85,-0.18,-0.14,-0.47,
3.426,0.10,0.11,0.87,-0.18,-0.14,-0.47,
3.427,0.10,0.11,0.87,0.01,0.03,-1.22,
3.428,0.10,0.12,0.88,0.01,0.03,-1.22,
3.431,0.11,0.12,0.90,0.01,0.03,-1.22,
3.431,0.11,0.12,0.90,0.37,0.09,-1.32,
3.435,0.11,0.12,0.94,0.37,0.09,-1.32,
3.436,0.11,0.11,0.97,0.37,0.09,-1.32,
3.436,0.11,0.11,0.97,0.52,0.15,-0.97,
3.439,0.11,0.11,1.00,0.52,0.15,-0.97,
3.441,0.11,0.11,1.01,0.52,0.15,-0.97,
3.442,0.11,0.11,1.01,0.59,0.13,-0.38,
3.444,0.10,0.11,1.02,0.59,0.13,-0.38,
3.446,0.10,0.11,1.02,0.55,0.13,0.14,
3.446,0.10,0.11,1.03,0.55,0.13,0.14,
3.448,0.08,0.10,1.03,0.55,0.13,0.14,
3.451,0.07,0.10,1.03,0.55,0.13,0.14,
3.452,0.07,0.10,1.03,0.49,0.09,0.34,
3.453,0.06,0.10,1.04,0.49,0.09,0.34,
3.456,0.05,0.09,1.04,0.49,0.09,0.34,
3.456,0.05,0.09,1.04,0.30,0.06,0.39,
3.46,0.04,0.10,1.04,0.30,0.06,0.39,
3.464,0.04,0.09,1.04,0.30,0.06,0.39,
3.464,0.04,0.09,1.04,0.08,-0.01,0.46,
3.465,0.04,0.09,1.04,0.08,-0.01,0.46,
3.466,0.04,0.09,1.04,-0.02,0.00,0.42,
3.466,0.03,0.09,1.03,-0.02,0.00,0.42,
3.468,0.03,0.09,1.02,-0.02,0.00,0.42,
3.471,0.03,0.09,1.02,-0.02,0.00,0.42,
3.471,0.03,0.09,1.02,-0.10,-0.06,0.39,
3.473,0.04,0.09,1.02,-0.10,-0.06,0.39,
3.478,0.03,0.09,1.02,-0.10,-0.06,0.39,
3.479,0.03,0.09,1.02,-0.14,-0.07,0.28,
3.479,0.04,0.09,1.01,-0.14,-0.07,0.28,
3.481,0.04,0.09,1.01,-0.10,-0.08,0.25,
3.481,0.04,0.09,1.01,-0.10,-0.08,0.25,
3.482,0.05,0.09,1.00,-0.10,-0.08,0.25,
3.485,0.06,0.09,1.00,-0.10,-0.08,0.25,
3.486,0.06,0.09,1.00,-0.06,-0.07,0.13,
3.488,0.07,0.08,0.99,-0.06,-0.07,0.13,
3.49,0.07,0.09,0.98,-0.06,-0.07,0.13,
3.49,0.07,0.09,0.98,0.04,-0.07,0.07,
3.496,0.06,0.09,0.98,0.04,-0.07,0.07,
3.496,0.06,0.09,0.98,0.04,-0.07,0.07,
3.496,0.06,0.09,0.98,0.21,-0.14,-0.09,
3.499,0.07,0.10,0.97,0.21,-0.14,-0.09,
3.5,0.07,0.10,0.97,0.12,-0.08,-0.16,
3.5,0.06,0.10,0.98,0.12,-0.08,-0.16,
3.503,0.07,0.10,0.97,0.12,-0.08,-0.16,
3.506,0.06,0.11,0.97,0.12,-0.08,-0.16,
3.506,0.06,0.11,0.97,0.12,-0.03,-0.21,
3.508,0.06,0.11,0.97,0.12,-0.03,-0.21,
