
time,gFx,gFy,gFz,ax,ay,az,
0.004,-0.04,0.05,1.01,0.07,0.08,-0.04,
0.004,-0.05,0.04,1.01,0.07,0.08,-0.04,
0.004,-0.05,0.04,1.01,-0.09,-0.06,0.05,
0.004,-0.05,0.03,1.01,-0.09,-0.06,0.05,
0.005,-0.05,0.03,1.02,-0.09,-0.06,0.05,
0.005,-0.05,0.03,1.02,-0.22,-0.17,0.10,
0.01,-0.06,0.02,1.02,-0.22,-0.17,0.10,
0.01,-0.06,0.02,1.02,-0.22,-0.17,0.10,
0.01,-0.06,0.02,1.02,-0.30,-0.26,0.16,
0.01,-0.06,0.02,1.02,-0.30,-0.26,0.16,
0.013,-0.05,0.02,1.03,-0.30,-0.26,0.16,
0.013,-0.05,0.02,1.03,-0.34,-0.34,0.19,
0.014,-0.05,0.02,1.02,-0.34,-0.34,0.19,
0.016,-0.05,0.02,1.03,-0.34,-0.34,0.19,
0.017,-0.05,0.02,1.03,-0.32,-0.34,0.27,
0.019,-0.04,0.03,1.03,-0.32,-0.34,0.27,
0.029,-0.04,0.03,1.02,-0.32,-0.34,0.27,
0.03,-0.04,0.03,1.02,-0.26,-0.33,0.29,
0.03,-0.04,0.03,1.02,-0.26,-0.33,0.29,
0.03,-0.04,0.03,1.02,-0.26,-0.33,0.29,
0.031,-0.04,0.03,1.02,-0.16,-0.27,0.27,
0.031,-0.03,0.04,1.02,-0.16,-0.27,0.27,
0.031,-0.03,0.04,1.03,-0.16,-0.27,0.27,
0.031,-0.03,0.04,1.03,-0.13,-0.21,0.20,
0.034,-0.02,0.05,1.03,-0.13,-0.21,0.20,
0.05,-0.02,0.05,1.03,-0.13,-0.21,0.20,
0.051,-0.02,0.05,1.03,-0.06,-0.14,0.25,
0.051,-0.01,0.05,1.02,-0.06,-0.14,0.25,
0.051,-0.02,0.05,1.02,-0.06,-0.14,0.25,
0.052,-0.02,0.05,1.02,0.07,-0.06,0.29,
0.052,-0.01,0.05,1.01,0.07,-0.06,0.29,
0.052,-0.02,0.06,1.01,0.07,-0.06,0.29,
0.052,-0.02,0.06,1.01,0.12,-0.03,0.21,
0.052,-0.01,0.06,1.01,0.12,-0.03,0.21,
0.053,-0.02,0.06,1.02,0.12,-0.03,0.21,
0.053,-0.02,0.06,1.02,0.16,0.03,0.12,
0.053,-0.02,0.06,1.02,0.16,0.03,0.12,
0.063,-0.01,0.06,1.02,0.16,0.03,0.12,
0.063,-0.01,0.06,1.02,0.18,0.04,0.16,
0.064,-0.01,0.06,1.03,0.18,0.04,0.16,
0.064,-0.01,0.06,1.03,0.18,0.04,0.20,
0.064,-0.01,0.06,1.03,0.18,0.04,0.20,
0.064,-0.01,0.06,1.04,0.18,0.04,0.20,
0.068,-0.01,0.07,1.03,0.18,0.04,0.20,
0.068,-0.01,0.07,1.03,0.25,0.05,0.30,
0.068,-0.01,0.06,1.02,0.25,0.05,0.30,
0.079,-0.01,0.07,1.02,0.25,0.05,0.30,
0.079,-0.01,0.07,1.02,0.23,0.07,0.34,
0.079,-0.01,0.07,1.01,0.23,0.07,0.34,
0.08,-0.01,0.07,1.01,0.23,0.07,0.34,
0.08,-0.01,0.07,1.01,0.28,0.10,0.18,
0.08,-0.01,0.08,1.00,0.28,0.10,0.18,
0.081,-0.02,0.08,1.00,0.28,0.10,0.18,
0.081,-0.02,0.08,1.00,0.24,0.17,0.09,
0.084,-0.01,0.08,1.00,0.24,0.17,0.09,
0.086,-0.01,0.09,1.00,0.24,0.17,0.09,
0.087,-0.01,0.09,1.00,0.22,0.20,-0.00,
0.095,-0.01,0.09,0.99,0.22,0.20,-0.00,
0.096,-0.01,0.09,1.00,0.22,0.20,-0.00,
0.096,-0.01,0.09,1.00,0.24,0.25,-0.00,
0.096,-0.02,0.09,0.99,0.24,0.25,-0.00,
0.096,-0.01,0.09,0.99,0.24,0.25,-0.00,
0.097,-0.01,0.09,0.99,0.25,0.30,-0.06,
0.099,-0.02,0.09,1.00,0.25,0.30,-0.06,
0.101,-0.02,0.09,0.99,0.25,0.30,-0.06,
0.101,-0.02,0.09,0.99,0.23,0.32,-0.06,
0.104,-0.03,0.10,1.00,0.23,0.32,-0.06,
0.111,-0.03,0.09,0.99,0.23,0.32,-0.06,
0.112,-0.03,0.09,0.99,0.19,0.32,-0.04,
0.112,-0.03,0.09,1.00,0.19,0.32,-0.04,
0.112,-0.04,0.09,1.00,0.19,0.32,-0.04,
0.113,-0.04,0.09,1.00,0.08,0.33,-0.05,
0.113,-0.04,0.08,0.99,0.08,0.33,-0.05,
0.116,-0.04,0.09,0.98,0.08,0.33,-0.05,
0.117,-0.04,0.09,0.98,0.05,0.27,-0.02,
0.118,-0.03,0.08,0.99,0.05,0.27,-0.02,
0.121,-0.03,0.07,0.99,0.05,0.27,-0.02,
0.121,-0.03,0.07,0.99,0.04,0.23,-0.10,
0.127,-0.04,0.07,0.99,0.04,0.23,-0.10,
0.128,-0.04,0.07,0.99,0.07,0.16,-0.07,
0.128,-0.03,0.07,1.00,0.07,0.16,-0.07,
0.128,-0.03,0.07,0.99,0.07,0.16,-0.07,
0.131,-0.04,0.07,0.99,0.07,0.16,-0.07,
0.131,-0.04,0.07,0.99,0.06,0.12,-0.06,
0.133,-0.04,0.07,1.00,0.06,0.12,-0.06,
0.136,-0.04,0.07,1.01,0.06,0.12,-0.06,
0.136,-0.04,0.07,1.01,0.05,0.09,-0.05,
0.148,-0.05,0.07,1.00,0.05,0.09,-0.05,
0.149,-0.04,0.07,1.01,0.05,0.09,-0.05,
0.149,-0.04,0.07,1.01,0.00,0.07,0.03,
0.149,-0.04,0.07,1.01,0.00,0.07,0.03,
0.149,-0.05,0.07,1.01,0.00,0.07,0.03,
0.15,-0.05,0.07,1.01,-0.03,0.06,0.08,
0.15,-0.06,0.07,1.02,-0.03,0.06,0.08,
0.151,-0.06,0.07,1.01,-0.03,0.06,0.08,
0.151,-0.06,0.07,1.01,-0.05,0.07,0.13,
0.152,-0.06,0.07,1.02,-0.05,0.07,0.13,
0.162,-0.06,0.07,1.02,-0.05,0.07,0.13,
0.163,-0.06,0.07,1.02,-0.15,0.10,0.15,
0.163,-0.07,0.07,1.02,-0.15,0.10,0.15,
0.165,-0.07,0.07,1.01,-0.15,0.10,0.15,
0.166,-0.07,0.07,1.01,-0.18,0.09,0.20,
0.166,-0.07,0.07,1.01,-0.18,0.09,0.20,
0.166,-0.07,0.07,1.01,-0.18,0.09,0.20,
0.166,-0.07,0.07,1.01,-0.22,0.11,0.19,
0.167,-0.07,0.07,1.01,-0.22,0.11,0.19,
0.17,-0.07,0.07,1.01,-0.22,0.11,0.19,
0.17,-0.07,0.07,1.01,-0.22,0.12,0.14,
0.181,-0.07,0.06,1.01,-0.22,0.12,0.14,
0.181,-0.07,0.07,1.00,-0.22,0.12,0.14,
0.181,-0.07,0.07,1.00,-0.24,0.08,0.13,
0.182,-0.07,0.06,1.00,-0.24,0.08,0.13,
0.182,-0.07,0.06,1.00,-0.24,0.08,0.13,
0.182,-0.07,0.06,1.00,-0.26,0.05,0.04,
0.182,-0.08,0.06,1.00,-0.26,0.05,0.04,
0.185,-0.08,0.06,1.00,-0.26,0.05,0.04,
0.185,-0.08,0.06,1.00,-0.25,0.00,0.00,
0.194,-0.08,0.06,1.00,-0.25,0.00,0.00,
0.195,-0.08,0.06,0.99,-0.25,0.00,0.00,
0.195,-0.08,0.06,0.99,-0.30,0.00,-0.02,
0.196,-0.08,0.06,1.00,-0.30,0.00,-0.02,
0.196,-0.08,0.06,0.99,-0.30,0.00,-0.02,
0.196,-0.08,0.06,0.99,-0.27,0.01,-0.05,
0.197,-0.08,0.06,1.00,-0.27,0.01,-0.05,
0.2,-0.08,0.06,1.00,-0.27,0.01,-0.05,
0.2,-0.08,0.06,1.00,-0.29,0.01,-0.05,
0.202,-0.08,0.06,1.00,-0.29,0.01,-0.05,
0.21,-0.07,0.05,0.99,-0.29,0.01,-0.05,
0.211,-0.07,0.05,0.99,-0.25,-0.01,-0.02,
0.211,-0.08,0.06,0.99,-0.25,-0.01,-0.02,
0.211,-0.08,0.06,0.99,-0.25,-0.01,-0.02,
0.212,-0.08,0.06,0.99,-0.23,-0.03,-0.02,
0.212,-0.07,0.05,1.00,-0.23,-0.03,-0.02,
0.216,-0.07,0.05,0.99,-0.23,-0.03,-0.02,
0.216,-0.07,0.05,0.99,-0.23,-0.01,-0.11,
0.218,-0.08,0.06,1.00,-0.23,-0.01,-0.11,
0.22,-0.08,0.06,1.00,-0.23,-0.01,-0.11,
0.22,-0.08,0.06,1.00,-0.20,-0.06,-0.04,
0.227,-0.08,0.05,1.00,-0.20,-0.06,-0.04,
0.228,-0.08,0.05,1.01,-0.20,-0.06,-0.04,
0.229,-0.08,0.05,1.01,-0.23,0.00,0.02,
0.229,-0.08,0.05,1.00,-0.23,0.00,0.02,
0.229,-0.09,0.05,1.00,-0.23,0.00,0.02,
0.23,-0.09,0.05,1.00,-0.25,-0.03,0.02,
0.232,-0.09,0.05,1.01,-0.25,-0.03,0.02,
0.235,-0.10,0.05,1.02,-0.25,-0.03,0.02,
0.235,-0.10,0.05,1.02,-0.27,-0.03,0.02,
0.237,-0.10,0.05,1.02,-0.27,-0.03,0.02,
0.243,-0.10,0.05,1.02,-0.33,-0.08,0.13,
0.244,-0.10,0.05,1.02,-0.33,-0.08,0.13,
0.244,-0.11,0.05,1.02,-0.33,-0.08,0.13,
0.244,-0.11,0.05,1.03,-0.33,-0.08,0.13,
0.244,-0.11,0.05,1.03,-0.41,-0.06,0.18,
0.247,-0.12,0.04,1.03,-0.41,-0.06,0.18,
0.249,-0.12,0.04,1.03,-0.41,-0.06,0.18,
0.25,-0.12,0.04,1.03,-0.46,-0.07,0.23,
0.252,-0.12,0.04,1.02,-0.46,-0.07,0.23,
0.261,-0.12,0.04,1.03,-0.46,-0.07,0.23,
0.262,-0.12,0.04,1.03,-0.54,-0.11,0.26,
0.262,-0.12,0.04,1.03,-0.54,-0.11,0.26,
0.262,-0.12,0.04,1.03,-0.58,-0.11,0.25,
0.262,-0.12,0.04,1.02,-0.58,-0.11,0.25,
0.262,-0.12,0.04,1.01,-0.58,-0.11,0.25,
0.265,-0.12,0.04,1.01,-0.58,-0.11,0.25,
0.265,-0.12,0.04,1.01,-0.59,-0.12,0.22,
0.267,-0.13,0.04,1.01,-0.59,-0.12,0.22,
0.27,-0.13,0.03,1.01,-0.59,-0.12,0.22,
0.27,-0.13,0.03,1.01,-0.60,-0.11,0.13,
0.278,-0.13,0.04,1.01,-0.60,-0.11,0.13,
0.279,-0.13,0.04,1.00,-0.60,-0.11,0.13,
0.279,-0.13,0.04,1.00,-0.64,-0.17,0.12,
0.279,-0.13,0.04,1.00,-0.64,-0.17,0.12,
0.279,-0.14,0.03,1.00,-0.64,-0.17,0.12,
0.28,-0.14,0.03,1.00,-0.68,-0.17,0.06,
0.282,-0.14,0.03,1.00,-0.68,-0.17,0.06,
0.285,-0.14,0.03,1.00,-0.69,-0.19,-0.01,
0.285,-0.14,0.03,1.00,-0.69,-0.19,-0.01,
0.287,-0.15,0.04,0.99,-0.69,-0.19,-0.01,
0.297,-0.15,0.03,0.99,-0.69,-0.19,-0.01,
0.298,-0.15,0.03,0.99,-0.72,-0.22,-0.05,
0.298,-0.15,0.03,1.00,-0.72,-0.22,-0.05,
0.298,-0.14,0.03,0.99,-0.72,-0.22,-0.05,
0.298,-0.14,0.03,0.99,-0.77,-0.19,-0.10,
0.299,-0.14,0.03,0.99,-0.77,-0.19,-0.10,
0.299,-0.15,0.03,0.99,-0.77,-0.19,-0.10,
0.299,-0.15,0.03,0.99,-0.75,-0.23,-0.06,
0.301,-0.15,0.03,0.99,-0.75,-0.23,-0.06,
0.304,-0.15,0.03,1.00,-0.75,-0.23,-0.06,
0.305,-0.15,0.03,1.00,-0.77,-0.23,-0.09,
0.312,-0.15,0.03,1.00,-0.77,-0.23,-0.09,
0.313,-0.16,0.03,0.99,-0.77,-0.23,-0.09,
0.313,-0.16,0.03,0.99,-0.76,-0.22,-0.05,
0.313,-0.16,0.03,0.99,-0.76,-0.22,-0.05,
0.314,-0.16,0.03,0.99,-0.76,-0.22,-0.05,
0.314,-0.16,0.03,0.99,-0.80,-0.25,-0.06,
0.317,-0.16,0.03,0.99,-0.80,-0.25,-0.06,
0.319,-0.16,0.03,0.99,-0.80,-0.25,-0.06,
0.319,-0.16,0.03,0.99,-0.83,-0.24,-0.09,
0.321,-0.17,0.03,0.99,-0.83,-0.24,-0.09,
0.327,-0.16,0.03,0.99,-0.83,-0.24,-0.09,
0.33,-0.16,0.03,0.99,-0.85,-0.23,-0.10,
0.33,-0.17,0.03,0.99,-0.85,-0.23,-0.10,
0.33,-0.17,0.03,1.00,-0.85,-0.23,-0.10,
0.331,-0.17,0.03,1.00,-0.89,-0.22,-0.10,
0.331,-0.17,0.02,0.99,-0.89,-0.22,-0.10,
0.334,-0.17,0.03,0.98,-0.89,-0.22,-0.10,
0.334,-0.17,0.03,0.98,-0.90,-0.22,-0.07,
0.336,-0.17,0.03,0.99,-0.90,-0.22,-0.07,
0.339,-0.18,0.03,0.99,-0.90,-0.22,-0.07,
0.339,-0.18,0.03,0.99,-0.93,-0.26,-0.11,
0.344,-0.18,0.03,0.99,-0.93,-0.26,-0.11,
0.345,-0.18,0.03,0.99,-0.93,-0.26,-0.11,
0.345,-0.18,0.03,0.99,-0.99,-0.19,-0.11,
0.346,-0.18,0.03,0.99,-0.99,-0.19,-0.11,
0.349,-0.18,0.03,0.99,-1.01,-0.20,-0.11,
0.349,-0.18,0.03,0.99,-1.01,-0.20,-0.11,
0.351,-0.18,0.03,0.99,-1.01,-0.20,-0.11,
0.354,-0.18,0.03,0.98,-1.01,-0.20,-0.11,
0.354,-0.18,0.03,0.98,-1.00,-0.19,-0.13,
0.364,-0.18,0.04,0.99,-1.00,-0.19,-0.13,
0.365,-0.19,0.03,1.00,-1.00,-0.19,-0.13,
0.365,-0.19,0.03,1.00,-1.01,-0.18,-0.14,
0.366,-0.18,0.03,0.99,-1.01,-0.18,-0.14,
0.366,-0.18,0.03,0.99,-1.01,-0.18,-0.14,
0.366,-0.18,0.03,0.99,-1.03,-0.16,-0.07,
0.366,-0.19,0.03,0.99,-1.03,-0.16,-0.07,
0.368,-0.18,0.03,1.00,-1.03,-0.16,-0.07,
0.369,-0.18,0.03,1.00,-0.98,-0.18,-0.11,
0.37,-0.18,0.03,0.99,-0.98,-0.18,-0.11,
0.38,-0.18,0.03,1.00,-0.98,-0.18,-0.11,
0.381,-0.18,0.03,1.00,-1.01,-0.19,-0.04,
0.381,-0.18,0.03,0.99,-1.01,-0.19,-0.04,
0.381,-0.18,0.03,0.99,-1.01,-0.19,-0.04,
0.382,-0.18,0.03,0.99,-0.96,-0.22,-0.03,
0.382,-0.18,0.03,0.99,-0.96,-0.22,-0.03,
0.383,-0.18,0.03,0.98,-0.96,-0.22,-0.03,
0.383,-0.18,0.03,0.98,-0.94,-0.23,-0.09,
0.385,-0.18,0.03,0.98,-0.94,-0.23,-0.09,
0.388,-0.18,0.03,0.98,-0.94,-0.23,-0.09,
0.388,-0.18,0.03,0.98,-0.92,-0.23,-0.16,
0.397,-0.18,0.03,0.97,-0.92,-0.23,-0.16,
0.398,-0.18,0.03,0.97,-0.92,-0.23,-0.16,
0.398,-0.18,0.03,0.97,-0.94,-0.22,-0.19,
0.399,-0.18,0.03,0.97,-0.94,-0.22,-0.19,
0.399,-0.18,0.03,0.97,-0.94,-0.22,-0.19,
0.399,-0.18,0.03,0.97,-0.92,-0.18,-0.25,
0.4,-0.18,0.03,0.97,-0.92,-0.18,-0.25,
0.402,-0.18,0.04,0.96,-0.92,-0.18,-0.25,
0.403,-0.18,0.04,0.96,-0.91,-0.19,-0.26,
0.412,-0.17,0.04,0.96,-0.91,-0.19,-0.26,
0.413,-0.17,0.04,0.96,-0.91,-0.19,-0.26,
0.413,-0.17,0.04,0.96,-0.92,-0.15,-0.31,
0.413,-0.18,0.04,0.96,-0.92,-0.15,-0.31,
0.413,-0.17,0.04,0.96,-0.92,-0.15,-0.31,
0.414,-0.17,0.04,0.96,-0.86,-0.13,-0.36,
0.415,-0.17,0.04,0.96,-0.86,-0.13,-0.36,
0.417,-0.17,0.04,0.96,-0.86,-0.13,-0.36,
0.418,-0.17,0.04,0.96,-0.88,-0.13,-0.37,
0.42,-0.17,0.03,0.96,-0.88,-0.13,-0.37,
0.427,-0.18,0.03,0.96,-0.88,-0.13,-0.37,
0.427,-0.18,0.03,0.96,-0.84,-0.14,-0.38,
0.428,-0.18,0.04,0.96,-0.84,-0.14,-0.38,
0.428,-0.18,0.03,0.96,-0.84,-0.14,-0.38,
0.428,-0.18,0.03,0.96,-0.86,-0.17,-0.34,
0.43,-0.18,0.03,0.97,-0.86,-0.17,-0.34,
0.432,-0.18,0.03,0.97,-0.87,-0.15,-0.33,
0.433,-0.18,0.03,0.98,-0.87,-0.15,-0.33,
0.435,-0.17,0.03,0.98,-0.87,-0.15,-0.33,
0.437,-0.17,0.03,0.98,-0.87,-0.15,-0.33,
0.437,-0.17,0.03,0.98,-0.87,-0.16,-0.23,
0.444,-0.17,0.03,0.99,-0.87,-0.16,-0.23,
0.445,-0.17,0.03,0.99,-0.87,-0.16,-0.23,
0.445,-0.17,0.03,0.99,-0.80,-0.20,-0.18,
0.445,-0.17,0.02,0.99,-0.80,-0.20,-0.18,
0.447,-0.17,0.02,0.99,-0.80,-0.20,-0.18,
0.447,-0.17,0.02,0.99,-0.81,-0.22,-0.10,
0.449,-0.17,0.02,1.00,-0.81,-0.22,-0.10,
0.452,-0.17,0.02,0.99,-0.81,-0.22,-0.10,
0.452,-0.17,0.02,0.99,-0.79,-0.25,-0.07,
0.454,-0.17,0.02,1.00,-0.79,-0.25,-0.07,
0.461,-0.17,0.01,1.00,-0.79,-0.25,-0.07,
0.461,-0.17,0.01,1.00,-0.82,-0.26,-0.03,
0.461,-0.17,0.01,0.99,-0.82,-0.26,-0.03,
0.462,-0.17,0.01,1.00,-0.82,-0.26,-0.03,
0.462,-0.17,0.01,1.00,-0.79,-0.31,0.02,
0.464,-0.17,0.01,1.00,-0.79,-0.31,0.02,
0.467,-0.17,0.01,1.00,-0.79,-0.31,0.02,
0.467,-0.17,0.01,1.00,-0.78,-0.37,-0.02,
0.469,-0.17,0.01,1.00,-0.78,-0.37,-0.02,
0.485,-0.17,0.01,0.99,-0.78,-0.37,-0.02,
0.486,-0.17,0.01,0.99,-0.81,-0.37,0.02,
0.487,-0.18,0.01,1.00,-0.81,-0.37,0.02,
0.487,-0.18,0.01,0.99,-0.81,-0.37,0.02,
0.487,-0.18,0.01,0.99,-0.83,-0.35,-0.01,
0.487,-0.18,0.02,1.00,-0.83,-0.35,-0.01,
0.488,-0.18,0.01,0.99,-0.83,-0.35,-0.01,
0.488,-0.18,0.01,0.99,-0.86,-0.33,-0.04,
0.488,-0.18,0.01,0.99,-0.86,-0.33,-0.04,
0.488,-0.17,0.01,0.99,-0.86,-0.33,-0.04,
0.489,-0.17,0.01,0.99,-0.85,-0.32,-0.03,
0.492,-0.17,0.01,0.98,-0.85,-0.32,-0.03,
0.493,-0.16,0.02,0.98,-0.85,-0.32,-0.03,
0.494,-0.16,0.02,0.98,-0.81,-0.34,-0.08,
0.494,-0.16,0.02,0.98,-0.81,-0.34,-0.08,
0.499,-0.16,0.02,0.97,-0.81,-0.34,-0.08,
0.5,-0.16,0.02,0.97,-0.74,-0.31,-0.16,
0.5,-0.16,0.02,0.97,-0.74,-0.31,-0.16,
0.503,-0.16,0.02,0.97,-0.74,-0.31,-0.16,
0.503,-0.16,0.02,0.97,-0.70,-0.24,-0.18,
0.505,-0.15,0.02,0.97,-0.70,-0.24,-0.18,
0.517,-0.15,0.02,0.96,-0.70,-0.24,-0.18,
0.517,-0.15,0.02,0.96,-0.64,-0.23,-0.23,
0.518,-0.15,0.02,0.96,-0.64,-0.23,-0.23,
0.518,-0.15,0.03,0.96,-0.64,-0.23,-0.23,
0.518,-0.15,0.03,0.96,-0.59,-0.24,-0.29,
0.518,-0.15,0.03,0.96,-0.59,-0.24,-0.29,
0.518,-0.15,0.03,0.96,-0.58,-0.20,-0.35,
0.519,-0.15,0.03,0.96,-0.58,-0.20,-0.35,
0.519,-0.15,0.03,0.96,-0.58,-0.20,-0.35,
0.522,-0.15,0.03,0.96,-0.58,-0.20,-0.35,
0.522,-0.15,0.03,0.96,-0.58,-0.18,-0.35,
0.529,-0.15,0.03,0.96,-0.58,-0.18,-0.35,
0.529,-0.15,0.03,0.96,-0.58,-0.18,-0.35,
0.529,-0.15,0.03,0.96,-0.58,-0.18,-0.38,
0.529,-0.15,0.03,0.96,-0.58,-0.18,-0.38,
0.532,-0.15,0.03,0.96,-0.59,-0.18,-0.38,
0.532,-0.15,0.03,0.96,-0.59,-0.18,-0.38,
0.534,-0.15,0.03,0.95,-0.59,-0.18,-0.38,
0.537,-0.16,0.03,0.96,-0.59,-0.18,-0.38,
0.537,-0.16,0.03,0.96,-0.59,-0.19,-0.36,
0.539,-0.16,0.03,0.96,-0.59,-0.19,-0.36,
0.544,-0.16,0.02,0.96,-0.59,-0.19,-0.36,
0.544,-0.16,0.02,0.96,-0.64,-0.20,-0.37,
0.545,-0.16,0.03,0.97,-0.64,-0.20,-0.37,
0.547,-0.16,0.02,0.97,-0.64,-0.20,-0.37,
0.547,-0.16,0.02,0.97,-0.69,-0.20,-0.30,
0.549,-0.16,0.02,0.98,-0.69,-0.20,-0.30,
0.551,-0.16,0.02,0.99,-0.69,-0.20,-0.30,
0.552,-0.16,0.02,0.99,-0.71,-0.22,-0.24,
0.554,-0.16,0.02,0.98,-0.71,-0.22,-0.24,
0.556,-0.16,0.03,0.99,-0.71,-0.22,-0.24,
0.557,-0.16,0.03,0.99,-0.71,-0.23,-0.11,
0.568,-0.16,0.02,1.00,-0.71,-0.23,-0.11,
0.569,-0.16,0.03,1.01,-0.71,-0.23,-0.11,
0.569,-0.16,0.03,1.01,-0.74,-0.22,-0.05,
0.569,-0.15,0.02,1.01,-0.74,-0.22,-0.05,
0.569,-0.15,0.02,1.01,-0.74,-0.22,-0.05,
0.569,-0.15,0.02,1.01,-0.70,-0.22,0.09,
0.57,-0.15,0.02,1.01,-0.70,-0.22,0.09,
0.572,-0.14,0.02,1.01,-0.70,-0.22,0.09,
0.572,-0.14,0.02,1.01,-0.63,-0.24,0.16,
0.581,-0.14,0.02,1.02,-0.63,-0.24,0.16,
0.582,-0.13,0.02,1.01,-0.63,-0.24,0.16,
0.582,-0.13,0.02,1.01,-0.57,-0.28,0.19,
0.582,-0.13,0.02,1.01,-0.57,-0.28,0.19,
0.583,-0.12,0.02,1.01,-0.57,-0.28,0.19,
0.583,-0.12,0.02,1.01,-0.45,-0.28,0.20,
0.583,-0.12,0.02,1.01,-0.45,-0.28,0.20,
0.587,-0.11,0.02,1.01,-0.45,-0.28,0.20,
0.587,-0.11,0.02,1.01,-0.36,-0.27,0.17,
0.589,-0.11,0.02,1.01,-0.36,-0.27,0.17,
0.599,-0.11,0.02,1.01,-0.36,-0.27,0.17,
0.6,-0.11,0.02,1.01,-0.28,-0.28,0.13,
0.6,-0.11,0.02,1.00,-0.28,-0.28,0.13,
0.6,-0.11,0.02,1.00,-0.24,-0.23,0.12,
0.6,-0.11,0.02,1.00,-0.24,-0.23,0.12,
0.601,-0.11,0.03,1.00,-0.24,-0.23,0.12,
0.601,-0.11,0.03,1.00,-0.23,-0.22,0.05,
0.601,-0.10,0.03,1.00,-0.23,-0.22,0.05,
0.604,-0.11,0.03,1.00,-0.23,-0.22,0.05,
0.606,-0.11,0.03,1.00,-0.23,-0.22,0.05,
0.607,-0.11,0.03,1.00,-0.14,-0.17,0.04,
0.613,-0.11,0.03,0.99,-0.14,-0.17,0.04,
0.614,-0.10,0.03,0.99,-0.14,-0.17,0.04,
0.614,-0.10,0.03,0.99,-0.17,-0.17,0.02,
0.614,-0.10,0.03,0.98,-0.17,-0.17,0.02,
0.616,-0.10,0.03,0.97,-0.17,-0.17,0.02,
0.617,-0.10,0.03,0.97,-0.15,-0.15,-0.05,
0.619,-0.10,0.02,0.97,-0.15,-0.15,-0.05,
0.621,-0.10,0.02,0.96,-0.15,-0.15,-0.05,
0.621,-0.10,0.02,0.96,-0.08,-0.16,-0.18,
0.623,-0.09,0.02,0.95,-0.08,-0.16,-0.18,
0.629,-0.09,0.02,0.94,-0.08,-0.16,-0.18,
0.63,-0.09,0.02,0.94,-0.07,-0.24,-0.28,
0.63,-0.09,0.01,0.93,-0.07,-0.24,-0.28,
0.631,-0.09,0.01,0.93,-0.07,-0.24,-0.28,
0.631,-0.09,0.01,0.93,-0.03,-0.29,-0.49,
0.632,-0.09,0.01,0.93,-0.03,-0.29,-0.49,
0.635,-0.09,0.01,0.93,-0.03,-0.29,-0.49,
0.635,-0.09,0.01,0.93,-0.03,-0.35,-0.63,
0.637,-0.08,0.01,0.92,-0.03,-0.35,-0.63,
0.645,-0.09,0.01,0.92,-0.03,-0.35,-0.63,
0.646,-0.09,0.01,0.92,0.03,-0.37,-0.66,
0.646,-0.08,0.01,0.93,0.03,-0.37,-0.66,
0.646,-0.08,0.01,0.93,0.03,-0.37,-0.66,
0.646,-0.08,0.01,0.93,0.03,-0.36,-0.69,
0.648,-0.08,0.02,0.93,0.03,-0.36,-0.69,
0.65,-0.08,0.02,0.94,0.03,-0.36,-0.69,
0.65,-0.08,0.02,0.94,0.08,-0.32,-0.63,
0.652,-0.07,0.03,0.94,0.08,-0.32,-0.63,
0.655,-0.06,0.02,0.95,0.08,-0.32,-0.63,
0.655,-0.06,0.02,0.95,0.11,-0.24,-0.53,
0.662,-0.06,0.03,0.96,0.11,-0.24,-0.53,
0.663,-0.06,0.03,0.96,0.11,-0.24,-0.53,
0.663,-0.06,0.03,0.96,0.18,-0.21,-0.45,
0.663,-0.06,0.03,0.97,0.18,-0.21,-0.45,
0.665,-0.06,0.03,0.97,0.18,-0.21,-0.45,
0.665,-0.06,0.03,0.97,0.21,-0.20,-0.32,
0.667,-0.06,0.03,0.97,0.21,-0.20,-0.32,
0.67,-0.05,0.03,0.98,0.21,-0.20,-0.32,
0.67,-0.05,0.03,0.98,0.22,-0.20,-0.22,
0.672,-0.05,0.03,0.98,0.22,-0.20,-0.22,
0.685,-0.05,0.03,0.98,0.22,-0.20,-0.22,
0.686,-0.05,0.03,0.98,0.24,-0.18,-0.16,
0.686,-0.05,0.03,0.98,0.24,-0.18,-0.16,
0.686,-0.05,0.03,0.99,0.24,-0.18,-0.16,
0.686,-0.05,0.03,0.99,0.24,-0.21,-0.10,
0.687,-0.04,0.03,0.99,0.24,-0.21,-0.10,
0.687,-0.04,0.03,1.00,0.24,-0.21,-0.10,
0.687,-0.04,0.03,1.00,0.27,-0.21,-0.05,
0.687,-0.05,0.03,1.01,0.27,-0.21,-0.05,
0.69,-0.04,0.02,1.01,0.27,-0.21,-0.05,
0.69,-0.04,0.02,1.01,0.31,-0.21,0.07,
0.698,-0.04,0.03,1.01,0.31,-0.21,0.07,
0.699,-0.04,0.02,1.02,0.31,-0.21,0.07,
0.699,-0.04,0.02,1.02,0.27,-0.22,0.19,
0.699,-0.04,0.02,1.02,0.27,-0.22,0.19,
0.7,-0.04,0.02,1.02,0.27,-0.22,0.19,
0.7,-0.04,0.02,1.02,0.29,-0.24,0.22,
0.702,-0.04,0.01,1.03,0.29,-0.24,0.22,
0.705,-0.04,0.01,1.02,0.29,-0.24,0.22,
0.705,-0.04,0.01,1.02,0.29,-0.29,0.27,
0.716,-0.04,0.00,1.02,0.29,-0.29,0.27,
0.717,-0.04,0.00,1.02,0.29,-0.29,0.27,
0.717,-0.04,0.00,1.02,0.28,-0.36,0.31,
0.717,-0.05,-0.00,1.02,0.28,-0.36,0.31,
0.717,-0.05,-0.01,1.02,0.28,-0.36,0.31,
0.718,-0.05,-0.01,1.02,0.27,-0.44,0.26,
0.718,-0.05,-0.01,1.01,0.27,-0.44,0.26,
0.719,-0.05,-0.01,1.00,0.27,-0.44,0.26,
0.72,-0.05,-0.01,1.00,0.21,-0.52,0.24,
0.722,-0.05,-0.02,1.00,0.21,-0.52,0.24,
0.73,-0.05,-0.02,0.99,0.21,-0.52,0.24,
0.731,-0.05,-0.02,0.99,0.18,-0.56,0.12,
0.731,-0.05,-0.03,0.98,0.18,-0.56,0.12,
0.731,-0.05,-0.03,0.98,0.18,-0.56,0.12,
0.731,-0.05,-0.03,0.98,0.17,-0.67,0.03,
0.731,-0.05,-0.03,0.97,0.17,-0.67,0.03,
0.734,-0.05,-0.03,0.96,0.17,-0.67,0.03,
0.735,-0.05,-0.03,0.96,0.15,-0.73,-0.09,
0.737,-0.05,-0.03,0.96,0.15,-0.73,-0.09,
0.739,-0.04,-0.03,0.96,0.15,-0.73,-0.09,
0.739,-0.04,-0.03,0.96,0.16,-0.77,-0.26,
0.746,-0.04,-0.03,0.95,0.16,-0.77,-0.26,
0.746,-0.04,-0.03,0.94,0.16,-0.77,-0.26,
0.746,-0.04,-0.03,0.94,0.16,-0.79,-0.32,
0.747,-0.03,-0.03,0.93,0.16,-0.79,-0.32,
0.749,-0.02,-0.04,0.92,0.16,-0.79,-0.32,
0.749,-0.02,-0.04,0.92,0.25,-0.79,-0.48,
0.751,-0.02,-0.03,0.91,0.25,-0.79,-0.48,
0.754,-0.01,-0.03,0.91,0.25,-0.79,-0.48,
0.754,-0.01,-0.03,0.91,0.35,-0.82,-0.68,
0.756,-0.01,-0.03,0.91,0.35,-0.82,-0.68,
0.764,-0.00,-0.03,0.90,0.35,-0.82,-0.68,
0.765,-0.00,-0.03,0.90,0.44,-0.79,-0.79,
0.765,0.00,-0.02,0.89,0.44,-0.79,-0.79,
0.765,0.00,-0.02,0.89,0.52,-0.76,-0.85,
0.765,0.02,-0.02,0.89,0.52,-0.76,-0.85,
0.767,0.03,-0.01,0.89,0.52,-0.76,-0.85,
0.77,0.03,-0.01,0.88,0.52,-0.76,-0.85,
0.77,0.03,-0.01,0.88,0.66,-0.69,-0.97,
0.772,0.04,-0.01,0.87,0.66,-0.69,-0.97,
0.774,0.05,-0.01,0.88,0.66,-0.69,-0.97,
0.774,0.05,-0.01,0.88,0.81,-0.64,-1.03,
0.78,0.06,0.00,0.88,0.81,-0.64,-1.03,
0.78,0.06,0.00,0.88,0.95,-0.58,-1.09,
0.781,0.07,0.00,0.89,0.95,-0.58,-1.09,
0.782,0.07,0.01,0.89,0.95,-0.58,-1.09,
0.785,0.08,0.01,0.90,0.95,-0.58,-1.09,
0.785,0.08,0.01,0.90,1.11,-0.51,-0.99,
0.787,0.08,0.02,0.90,1.11,-0.51,-0.99,
0.79,0.08,0.02,0.90,1.11,-0.51,-0.99,
0.79,0.08,0.02,0.90,1.14,-0.44,-0.92,
0.803,0.08,0.03,0.92,1.14,-0.44,-0.92,
0.803,0.08,0.03,0.93,1.14,-0.44,-0.92,
0.804,0.08,0.03,0.93,1.19,-0.33,-0.82,
0.804,0.09,0.03,0.93,1.19,-0.33,-0.82,
0.804,0.09,0.03,0.93,1.18,-0.28,-0.59,
0.804,0.09,0.03,0.94,1.18,-0.28,-0.59,
0.805,0.09,0.03,0.94,1.18,-0.28,-0.59,
0.805,0.08,0.02,0.95,1.18,-0.28,-0.59,
0.805,0.08,0.02,0.95,1.23,-0.27,-0.46,
0.807,0.09,0.02,0.96,1.23,-0.27,-0.46,
0.815,0.09,0.02,0.97,1.23,-0.27,-0.46,
0.816,0.09,0.02,0.97,1.18,-0.28,-0.35,
0.816,0.09,0.01,0.97,1.18,-0.28,-0.35,
0.816,0.08,0.00,0.97,1.18,-0.28,-0.35,
0.816,0.08,0.00,0.97,1.17,-0.34,-0.19,
0.817,0.08,-0.00,0.97,1.17,-0.34,-0.19,
0.819,0.08,-0.00,0.97,1.17,-0.34,-0.19,
0.822,0.08,-0.00,0.97,1.13,-0.46,-0.18,
0.823,0.08,-0.01,0.96,1.13,-0.46,-0.18,
0.824,0.08,-0.02,0.96,1.13,-0.46,-0.18,
0.824,0.08,-0.02,0.96,1.09,-0.53,-0.15,
0.833,0.08,-0.02,0.96,1.09,-0.53,-0.15,
0.834,0.08,-0.02,0.95,1.09,-0.53,-0.15,
0.834,0.08,-0.02,0.95,1.07,-0.62,-0.27,
0.834,0.08,-0.03,0.95,1.07,-0.62,-0.27,
0.834,0.08,-0.03,0.95,1.07,-0.62,-0.27,
0.834,0.08,-0.03,0.95,1.05,-0.68,-0.29,
0.836,0.08,-0.03,0.95,1.05,-0.68,-0.29,
0.838,0.07,-0.03,0.95,1.05,-0.68,-0.29,
0.839,0.07,-0.03,0.95,1.01,-0.74,-0.35,
0.841,0.08,-0.03,0.94,1.01,-0.74,-0.35,
0.848,0.08,-0.03,0.94,1.01,-0.74,-0.35,
0.849,0.08,-0.03,0.94,0.94,-0.73,-0.37,
0.849,0.08,-0.03,0.94,0.94,-0.73,-0.37,
0.85,0.08,-0.03,0.93,0.94,-0.73,-0.37,
0.85,0.08,-0.03,0.93,0.97,-0.73,-0.43,
0.85,0.09,-0.03,0.93,0.97,-0.73,-0.43,
0.859,0.09,-0.03,0.94,0.97,-0.73,-0.43,
0.859,0.09,-0.03,0.94,0.99,-0.70,-0.49,
0.859,0.10,-0.02,0.94,0.99,-0.70,-0.49,
0.859,0.10,-0.02,0.94,0.99,-0.70,-0.49,
0.86,0.10,-0.02,0.94,1.03,-0.69,-0.48,
0.862,0.11,-0.02,0.93,1.03,-0.69,-0.48,
0.864,0.12,-0.02,0.93,1.03,-0.69,-0.48,
0.864,0.12,-0.02,0.93,1.10,-0.65,-0.48,
0.866,0.12,-0.02,0.93,1.10,-0.65,-0.48,
0.868,0.12,-0.02,0.93,1.21,-0.64,-0.52,
0.868,0.12,-0.02,0.93,1.21,-0.64,-0.52,
0.871,0.13,-0.02,0.92,1.21,-0.64,-0.52,
0.874,0.14,-0.02,0.93,1.21,-0.64,-0.52,
0.874,0.14,-0.02,0.93,1.27,-0.63,-0.52,
0.881,0.14,-0.03,0.91,1.27,-0.63,-0.52,
0.882,0.15,-0.03,0.92,1.27,-0.63,-0.52,
0.882,0.15,-0.03,0.92,1.36,-0.62,-0.58,
0.882,0.15,-0.03,0.92,1.36,-0.62,-0.58,
0.884,0.16,-0.03,0.92,1.36,-0.62,-0.58,
0.884,0.16,-0.03,0.92,1.44,-0.65,-0.65,
0.886,0.16,-0.03,0.92,1.44,-0.65,-0.65,
0.888,0.17,-0.03,0.92,1.44,-0.65,-0.65,
0.889,0.17,-0.03,0.92,1.54,-0.68,-0.64,
0.891,0.17,-0.03,0.92,1.54,-0.68,-0.64,
0.902,0.17,-0.03,0.93,1.54,-0.68,-0.64,
0.903,0.17,-0.03,0.93,1.60,-0.69,-0.58,
0.903,0.17,-0.03,0.94,1.60,-0.69,-0.58,
0.903,0.17,-0.03,0.94,1.61,-0.67,-0.57,
0.903,0.17,-0.02,0.93,1.61,-0.67,-0.57,
0.903,0.17,-0.02,0.94,1.61,-0.67,-0.57,
0.903,0.17,-0.02,0.95,1.61,-0.67,-0.57,
0.904,0.17,-0.02,0.95,1.58,-0.62,-0.49,
0.906,0.17,-0.02,0.95,1.58,-0.62,-0.49,
0.908,0.17,-0.02,0.95,1.58,-0.62,-0.49,
0.908,0.17,-0.02,0.95,1.55,-0.57,-0.39,
0.916,0.17,-0.01,0.95,1.55,-0.57,-0.39,
0.916,0.17,-0.01,0.95,1.55,-0.57,-0.39,
0.916,0.17,-0.01,0.95,1.56,-0.53,-0.33,
0.917,0.18,-0.01,0.95,1.56,-0.53,-0.33,
0.918,0.18,-0.01,0.96,1.56,-0.53,-0.33,
0.918,0.18,-0.01,0.96,1.57,-0.45,-0.31,
0.92,0.18,-0.01,0.95,1.57,-0.45,-0.31,
0.923,0.18,-0.01,0.95,1.57,-0.45,-0.31,
0.923,0.18,-0.01,0.95,1.59,-0.39,-0.27,
0.925,0.19,-0.01,0.94,1.59,-0.39,-0.27,
0.934,0.19,-0.01,0.94,1.59,-0.39,-0.27,
0.934,0.19,-0.01,0.94,1.59,-0.39,-0.31,
0.935,0.18,-0.01,0.93,1.59,-0.39,-0.31,
0.935,0.19,-0.00,0.92,1.59,-0.39,-0.31,
0.935,0.19,-0.00,0.92,1.64,-0.37,-0.43,
0.935,0.19,-0.01,0.92,1.64,-0.37,-0.43,
0.938,0.19,-0.01,0.91,1.64,-0.37,-0.43,
0.938,0.19,-0.01,0.91,1.62,-0.35,-0.55,
0.94,0.19,-0.01,0.91,1.62,-0.35,-0.55,
0.949,0.19,-0.01,0.91,1.64,-0.37,-0.65,
0.95,0.20,-0.01,0.90,1.64,-0.37,-0.65,
0.95,0.21,-0.01,0.89,1.64,-0.37,-0.65,
0.95,0.21,-0.01,0.89,1.64,-0.37,-0.65,
0.951,0.21,-0.01,0.89,1.71,-0.39,-0.78,
0.951,0.22,-0.01,0.88,1.71,-0.39,-0.78,
0.953,0.23,-0.01,0.88,1.71,-0.39,-0.78,
0.953,0.23,-0.01,0.88,1.82,-0.38,-0.89,
0.955,0.23,-0.01,0.88,1.82,-0.38,-0.89,
0.958,0.23,-0.01,0.88,1.82,-0.38,-0.89,
0.958,0.23,-0.01,0.88,1.90,-0.39,-0.97,
0.964,0.24,-0.00,0.88,1.90,-0.39,-0.97,
0.964,0.24,-0.00,0.88,1.90,-0.39,-0.97,
0.964,0.24,-0.00,0.88,1.95,-0.36,-1.00,
0.965,0.25,-0.00,0.89,1.95,-0.36,-1.00,
0.968,0.25,-0.00,0.89,1.95,-0.36,-1.00,
0.968,0.25,-0.00,0.89,2.03,-0.31,-0.96,
0.97,0.26,0.00,0.89,2.03,-0.31,-0.96,
0.973,0.27,0.00,0.90,2.03,-0.31,-0.96,
0.973,0.27,0.00,0.90,2.08,-0.30,-0.88,
0.974,0.27,0.00,0.90,2.08,-0.30,-0.88,
0.98,0.27,0.01,0.91,2.08,-0.30,-0.88,
0.981,0.27,0.01,0.91,2.15,-0.27,-0.80,
0.981,0.27,0.01,0.91,2.15,-0.27,-0.80,
0.982,0.28,0.01,0.93,2.15,-0.27,-0.80,
0.982,0.28,0.01,0.93,2.25,-0.22,-0.72,
0.984,0.29,0.01,0.94,2.25,-0.22,-0.72,
0.987,0.30,0.01,0.95,2.25,-0.22,-0.72,
0.987,0.30,0.01,0.95,2.27,-0.21,-0.56,
0.989,0.30,0.01,0.96,2.27,-0.21,-0.56,
0.998,0.30,0.02,0.95,2.27,-0.21,-0.56,
0.998,0.30,0.02,0.95,2.39,-0.15,-0.33,
0.998,0.30,0.02,0.95,2.39,-0.15,-0.33,
0.999,0.30,0.03,0.95,2.39,-0.15,-0.33,
0.999,0.30,0.03,0.95,2.43,-0.09,-0.24,
0.999,0.29,0.03,0.96,2.43,-0.09,-0.24,
1.002,0.29,0.03,0.96,2.43,-0.09,-0.24,
1.002,0.29,0.03,0.96,2.40,-0.01,-0.27,
1.004,0.28,0.03,0.96,2.40,-0.01,-0.27,
1.006,0.28,0.03,0.97,2.40,-0.01,-0.27,
1.007,0.28,0.03,0.97,2.29,0.01,-0.21,
1.02,0.29,0.03,0.97,2.29,0.01,-0.21,
1.021,0.29,0.03,0.97,2.23,0.03,-0.13,
1.022,0.29,0.04,0.97,2.23,0.03,-0.13,
1.022,0.29,0.03,0.97,2.23,0.03,-0.13,
1.022,0.29,0.04,0.98,2.23,0.03,-0.13,
1.022,0.29,0.04,0.98,2.26,0.11,-0.07,
1.022,0.29,0.04,0.98,2.26,0.11,-0.07,
1.023,0.30,0.04,0.99,2.26,0.11,-0.07,
1.023,0.30,0.04,0.99,2.26,0.12,-0.03,
1.024,0.29,0.04,0.99,2.26,0.12,-0.03,
1.033,0.30,0.03,1.00,2.26,0.12,-0.03,
1.034,0.30,0.03,1.00,2.26,0.15,0.09,
1.034,0.29,0.03,1.00,2.26,0.15,0.09,
1.035,0.30,0.04,1.00,2.26,0.15,0.09,
1.035,0.30,0.04,1.00,2.25,0.17,0.15,
1.035,0.30,0.03,1.00,2.25,0.17,0.15,
1.036,0.31,0.03,1.00,2.25,0.17,0.15,
1.036,0.31,0.03,1.00,2.28,0.16,0.24,
1.039,0.31,0.03,1.01,2.28,0.16,0.24,
1.041,0.31,0.03,1.01,2.28,0.16,0.24,
1.042,0.31,0.03,1.01,2.33,0.15,0.23,
1.051,0.31,0.02,1.01,2.33,0.15,0.23,
1.052,0.31,0.02,1.01,2.33,0.15,0.23,
1.052,0.31,0.02,1.01,2.37,0.14,0.29,
1.052,0.31,0.02,1.02,2.37,0.14,0.29,
1.052,0.31,0.01,1.02,2.37,0.14,0.29,
1.053,0.31,0.01,1.02,2.34,0.10,0.31,
1.054,0.31,0.01,1.02,2.34,0.10,0.31,
1.056,0.31,0.01,1.02,2.34,0.10,0.31,
1.056,0.31,0.01,1.02,2.31,0.06,0.41,
1.066,0.31,0.00,1.03,2.31,0.06,0.41,
1.067,0.31,-0.01,1.04,2.31,0.06,0.41,
1.067,0.31,-0.01,1.04,2.31,-0.02,0.43,
1.067,0.31,-0.01,1.04,2.31,-0.02,0.43,
1.067,0.31,-0.02,1.05,2.31,-0.02,0.43,
1.068,0.31,-0.02,1.05,2.33,-0.09,0.53,
1.068,0.31,-0.02,1.05,2.33,-0.09,0.53,
1.071,0.31,-0.02,1.05,2.33,-0.09,0.53,
1.072,0.31,-0.02,1.05,2.33,-0.20,0.62,
1.073,0.31,-0.02,1.06,2.33,-0.20,0.62,
1.081,0.32,-0.02,1.06,2.33,-0.20,0.62,
1.082,0.32,-0.02,1.06,2.33,-0.25,0.68,
1.082,0.32,-0.02,1.06,2.33,-0.25,0.68,
1.082,0.32,-0.02,1.07,2.33,-0.25,0.68,
1.082,0.32,-0.02,1.07,2.31,-0.21,0.78,
1.083,0.32,-0.02,1.07,2.31,-0.21,0.78,
1.086,0.32,-0.01,1.07,2.31,-0.21,0.78,
1.086,0.32,-0.01,1.07,2.33,-0.17,0.85,
1.089,0.32,-0.01,1.07,2.33,-0.17,0.85,
1.091,0.32,-0.01,1.07,2.33,-0.17,0.85,
1.091,0.32,-0.01,1.07,2.34,-0.13,0.85,
1.098,0.32,-0.01,1.07,2.34,-0.13,0.85,
1.098,0.31,-0.01,1.06,2.34,-0.13,0.85,
1.098,0.31,-0.01,1.06,2.31,-0.06,0.89,
1.099,0.31,-0.01,1.06,2.31,-0.06,0.89,
1.101,0.32,-0.01,1.05,2.31,-0.06,0.89,
1.101,0.32,-0.01,1.05,2.28,-0.02,0.82,
1.103,0.32,-0.01,1.04,2.28,-0.02,0.82,
1.106,0.32,-0.01,1.03,2.28,-0.02,0.82,
1.106,0.32,-0.01,1.03,2.29,-0.00,0.69,
1.108,0.32,-0.01,1.02,2.29,-0.00,0.69,
1.121,0.32,-0.01,1.02,2.29,-0.00,0.69,
1.122,0.32,-0.01,1.02,2.30,0.01,0.55,
1.122,0.31,-0.01,1.00,2.30,0.01,0.55,
1.122,0.31,-0.00,1.00,2.30,0.01,0.55,
1.122,0.31,-0.00,1.00,2.28,0.02,0.40,
1.123,0.30,-0.00,1.00,2.28,0.02,0.40,
1.123,0.30,-0.00,0.99,2.28,0.02,0.40,
1.123,0.30,-0.00,0.99,2.23,0.05,0.22,
1.123,0.30,-0.01,0.98,2.23,0.05,0.22,
1.135,0.30,-0.01,0.97,2.23,0.05,0.22,
1.135,0.30,-0.01,0.97,2.14,0.06,0.12,
1.136,0.30,-0.00,0.96,2.14,0.06,0.12,
1.136,0.30,-0.01,0.96,2.14,0.06,0.12,
1.136,0.30,-0.01,0.96,2.12,0.02,-0.04,
1.136,0.30,-0.01,0.97,2.12,0.02,-0.04,
1.136,0.30,-0.01,0.96,2.12,0.02,-0.04,
1.137,0.30,-0.01,0.96,2.14,0.06,-0.17,
1.138,0.31,-0.01,0.96,2.14,0.06,-0.17,
1.14,0.30,-0.02,0.96,2.14,0.06,-0.17,
1.14,0.30,-0.02,0.96,2.15,0.04,-0.19,
1.153,0.30,-0.01,0.96,2.15,0.04,-0.19,
1.154,0.30,-0.01,0.96,2.15,0.04,-0.19,
1.154,0.30,-0.01,0.96,2.16,-0.00,-0.18,
1.155,0.29,-0.01,0.96,2.16,-0.00,-0.18,
1.158,0.29,-0.00,0.97,2.16,-0.00,-0.18,
1.158,0.29,-0.00,0.97,2.11,0.01,-0.16,
1.159,0.28,-0.00,0.97,2.11,0.01,-0.16,
1.159,0.28,0.00,0.98,2.11,0.01,-0.16,
1.16,0.28,0.00,0.98,2.03,0.10,-0.14,
1.16,0.27,0.01,0.98,2.03,0.10,-0.14,
1.161,0.27,0.02,0.99,2.03,0.10,-0.14,
1.161,0.27,0.02,0.99,1.95,0.18,-0.04,
1.167,0.27,0.02,0.99,1.95,0.18,-0.04,
1.167,0.27,0.02,0.99,1.95,0.18,-0.04,
1.168,0.27,0.02,0.99,1.84,0.33,0.03,
1.168,0.27,0.03,1.00,1.84,0.33,0.03,
1.17,0.27,0.03,1.01,1.84,0.33,0.03,
1.171,0.27,0.03,1.01,1.82,0.39,0.09,
1.172,0.27,0.03,1.02,1.82,0.39,0.09,
1.176,0.27,0.03,1.02,1.80,0.47,0.24,
1.176,0.27,0.03,1.02,1.80,0.47,0.24,
1.181,0.27,0.04,1.02,1.80,0.47,0.24,
1.181,0.27,0.04,1.02,1.82,0.49,0.39,
1.181,0.27,0.04,1.03,1.82,0.49,0.39,
1.183,0.27,0.04,1.03,1.82,0.49,0.39,
1.186,0.27,0.04,1.03,1.82,0.59,0.44,
1.186,0.27,0.04,1.03,1.82,0.59,0.44,
1.188,0.27,0.03,1.03,1.82,0.59,0.44,
1.19,0.27,0.03,1.03,1.82,0.59,0.44,
1.191,0.27,0.03,1.03,1.80,0.60,0.50,
1.193,0.27,0.03,1.04,1.80,0.60,0.50,
1.199,0.27,0.02,1.04,1.80,0.60,0.50,
1.199,0.27,0.02,1.04,1.85,0.58,0.49,
1.2,0.28,0.02,1.03,1.85,0.58,0.49,
1.2,0.28,0.01,1.03,1.85,0.58,0.49,
1.2,0.28,0.01,1.03,1.84,0.54,0.55,
1.203,0.27,0.00,1.04,1.84,0.54,0.55,
1.205,0.28,-0.00,1.03,1.84,0.54,0.55,
1.205,0.28,-0.00,1.03,1.93,0.45,0.44,
1.208,0.28,-0.01,1.03,1.93,0.45,0.44,
1.217,0.28,-0.02,1.02,1.93,0.45,0.44,
1.217,0.28,-0.02,1.02,1.89,0.32,0.52,
1.217,0.28,-0.02,1.02,1.89,0.32,0.52,
1.218,0.27,-0.04,1.02,1.89,0.32,0.52,
1.218,0.27,-0.04,1.02,1.93,0.18,0.41,
1.218,0.27,-0.05,1.02,1.93,0.18,0.41,
1.22,0.27,-0.05,1.02,1.93,0.18,0.41,
1.221,0.27,-0.05,1.02,1.90,0.04,0.35,
1.222,0.26,-0.06,1.02,1.90,0.04,0.35,
1.225,0.25,-0.06,1.01,1.90,0.04,0.35,
1.225,0.25,-0.06,1.01,1.85,-0.11,0.34,
1.227,0.24,-0.06,1.01,1.85,-0.11,0.34,
1.237,0.24,-0.07,1.01,1.85,-0.11,0.34,
1.238,0.24,-0.07,1.01,1.72,-0.20,0.31,
1.238,0.23,-0.07,1.01,1.72,-0.20,0.31,
1.238,0.23,-0.07,1.01,1.57,-0.25,0.30,
1.238,0.22,-0.07,1.01,1.57,-0.25,0.30,
1.239,0.21,-0.06,1.01,1.57,-0.25,0.30,
1.241,0.19,-0.07,1.01,1.57,-0.25,0.30,
1.241,0.19,-0.07,1.01,1.40,-0.28,0.26,
1.242,0.19,-0.05,1.01,1.40,-0.28,0.26,
1.25,0.18,-0.05,1.02,1.40,-0.28,0.26,
1.251,0.18,-0.05,1.02,1.19,-0.20,0.30,
1.251,0.17,-0.05,1.02,1.19,-0.20,0.30,
1.251,0.17,-0.05,1.02,1.06,-0.06,0.31,
1.252,0.18,-0.04,1.02,1.06,-0.06,0.31,
1.252,0.17,-0.03,1.02,1.06,-0.06,0.31,
1.255,0.17,-0.02,1.02,1.06,-0.06,0.31,
1.255,0.17,-0.02,1.02,0.95,0.04,0.34,
1.257,0.17,-0.02,1.02,0.95,0.04,0.34,
1.26,0.17,-0.02,1.02,0.95,0.04,0.34,
1.26,0.17,-0.02,1.02,0.89,0.21,0.35,
1.268,0.17,-0.01,1.02,0.89,0.21,0.35,
1.269,0.18,-0.01,1.03,0.89,0.21,0.35,
1.269,0.18,-0.01,1.03,0.90,0.27,0.37,
1.269,0.18,-0.00,1.03,0.90,0.27,0.37,
1.27,0.18,0.01,1.02,0.90,0.27,0.37,
1.27,0.18,0.01,1.02,0.95,0.40,0.38,
1.272,0.18,0.01,1.02,0.95,0.40,0.38,
1.275,0.18,0.02,1.02,0.95,0.40,0.38,
1.275,0.18,0.02,1.02,1.01,0.51,0.39,
1.277,0.19,0.02,1.02,1.01,0.51,0.39,
1.284,0.19,0.02,1.02,1.00,0.63,0.38,
1.285,0.20,0.02,1.02,1.00,0.63,0.38,
1.285,0.20,0.02,1.02,1.00,0.63,0.38,
1.285,0.20,0.02,1.02,1.00,0.63,0.38,
1.285,0.20,0.02,1.02,1.14,0.67,0.36,
1.286,0.21,0.01,1.01,1.14,0.67,0.36,
1.289,0.21,0.01,1.01,1.14,0.67,0.36,
1.289,0.21,0.01,1.01,1.22,0.63,0.33,
1.291,0.21,0.00,1.01,1.22,0.63,0.33,
1.298,0.22,-0.01,1.01,1.22,0.63,0.33,
1.299,0.22,-0.01,1.01,1.28,0.57,0.30,
1.299,0.22,-0.02,1.01,1.28,0.57,0.30,
1.299,0.22,-0.03,1.01,1.28,0.57,0.30,
1.299,0.22,-0.03,1.01,1.35,0.45,0.27,
1.301,0.22,-0.03,1.01,1.35,0.45,0.27,
1.304,0.22,-0.03,1.01,1.39,0.29,0.22,
1.304,0.22,-0.04,1.00,1.39,0.29,0.22,
1.306,0.21,-0.05,0.99,1.39,0.29,0.22,
1.308,0.20,-0.06,1.00,1.39,0.29,0.22,
1.309,0.20,-0.06,1.00,1.40,0.12,0.18,
1.315,0.20,-0.07,0.99,1.40,0.12,0.18,
1.316,0.19,-0.07,0.99,1.40,0.12,0.18,
1.318,0.19,-0.07,0.99,1.29,-0.05,0.10,
1.318,0.18,-0.08,0.99,1.29,-0.05,0.10,
1.319,0.17,-0.08,0.99,1.29,-0.05,0.10,
1.319,0.17,-0.08,0.99,1.15,-0.15,0.07,
1.321,0.16,-0.09,0.99,1.15,-0.15,0.07,
1.323,0.15,-0.09,0.99,1.15,-0.15,0.07,
1.324,0.15,-0.09,0.99,1.01,-0.25,0.05,
1.326,0.14,-0.09,0.99,1.01,-0.25,0.05,
1.339,0.14,-0.09,0.99,1.01,-0.25,0.05,
1.34,0.14,-0.09,0.99,0.80,-0.30,0.09,
1.34,0.13,-0.09,1.00,0.80,-0.30,0.09,
1.341,0.12,-0.09,1.00,0.80,-0.30,0.09,
1.341,0.12,-0.09,1.00,0.65,-0.31,0.07,
1.341,0.12,-0.09,1.01,0.65,-0.31,0.07,
1.341,0.11,-0.09,1.01,0.65,-0.31,0.07,
1.342,0.11,-0.09,1.01,0.51,-0.26,0.13,
1.342,0.10,-0.08,1.01,0.51,-0.26,0.13,
1.343,0.09,-0.08,1.02,0.51,-0.26,0.13,
1.343,0.09,-0.08,1.02,0.38,-0.26,0.23,
1.353,0.09,-0.07,1.02,0.38,-0.26,0.23,
1.354,0.08,-0.07,1.03,0.38,-0.26,0.23,
1.354,0.08,-0.07,1.03,0.24,-0.19,0.29,
1.354,0.07,-0.06,1.04,0.24,-0.19,0.29,
1.354,0.07,-0.05,1.04,0.24,-0.19,0.29,
1.355,0.07,-0.05,1.04,0.11,-0.08,0.42,
1.355,0.07,-0.05,1.04,0.11,-0.08,0.42,
1.358,0.06,-0.04,1.04,0.11,-0.08,0.42,
1.358,0.06,-0.04,1.04,-0.02,0.06,0.50,
1.361,0.06,-0.05,1.04,-0.02,0.06,0.50,
1.37,0.06,-0.04,1.04,-0.02,0.06,0.50,
1.371,0.06,-0.04,1.04,-0.10,0.17,0.56,
1.371,0.07,-0.04,1.04,-0.10,0.17,0.56,
1.373,0.07,-0.04,1.04,-0.10,0.17,0.56,
1.373,0.07,-0.04,1.04,-0.11,0.19,0.56,
1.374,0.08,-0.04,1.03,-0.11,0.19,0.56,
1.374,0.08,-0.04,1.03,-0.11,0.19,0.56,
1.374,0.08,-0.04,1.03,-0.06,0.23,0.55,
1.375,0.08,-0.05,1.03,-0.06,0.23,0.55,
1.384,0.08,-0.05,1.03,-0.06,0.23,0.55,
1.384,0.08,-0.05,1.03,0.05,0.19,0.45,
1.385,0.08,-0.05,1.02,0.05,0.19,0.45,
1.385,0.08,-0.06,1.02,0.05,0.19,0.45,
1.385,0.08,-0.06,1.02,0.05,0.13,0.44,
1.385,0.08,-0.06,1.01,0.05,0.13,0.44,
1.388,0.08,-0.06,1.01,0.04,0.08,0.35,
1.388,0.08,-0.07,1.00,0.04,0.08,0.35,
1.391,0.08,-0.08,1.00,0.04,0.08,0.35,
1.393,0.08,-0.08,0.99,0.04,0.08,0.35,
1.393,0.08,-0.08,0.99,0.06,-0.04,0.18,
1.399,0.09,-0.09,0.98,0.06,-0.04,0.18,
1.399,0.09,-0.09,0.98,0.06,-0.04,0.18,
1.4,0.09,-0.09,0.98,0.08,-0.18,0.11,
1.4,0.09,-0.10,0.97,0.08,-0.18,0.11,
1.403,0.09,-0.10,0.97,0.14,-0.30,-0.04,
1.403,0.09,-0.11,0.97,0.14,-0.30,-0.04,
1.405,0.09,-0.12,0.96,0.14,-0.30,-0.04,
1.407,0.09,-0.13,0.96,0.14,-0.30,-0.04,
1.408,0.09,-0.13,0.96,0.18,-0.45,-0.15,
1.41,0.09,-0.13,0.96,0.18,-0.45,-0.15,
1.416,0.09,-0.13,0.95,0.18,-0.45,-0.15,
1.416,0.09,-0.13,0.95,0.22,-0.57,-0.26,
1.416,0.09,-0.14,0.95,0.22,-0.57,-0.26,
1.417,0.07,-0.14,0.95,0.22,-0.57,-0.26,
1.418,0.07,-0.14,0.95,0.20,-0.66,-0.30,
1.42,0.07,-0.14,0.95,0.20,-0.66,-0.30,
1.422,0.07,-0.14,0.95,0.12,-0.72,-0.33,
1.423,0.07,-0.14,0.95,0.12,-0.72,-0.33,
1.425,0.06,-0.15,0.95,0.12,-0.72,-0.33,
1.433,0.06,-0.15,0.95,0.12,-0.72,-0.33,
1.434,0.06,-0.15,0.95,0.03,-0.76,-0.32,
1.434,0.06,-0.15,0.95,0.03,-0.76,-0.32,
1.434,0.05,-0.15,0.96,0.03,-0.76,-0.32,
1.435,0.05,-0.15,0.96,-0.03,-0.78,-0.31,
1.435,0.04,-0.15,0.96,-0.03,-0.78,-0.31,
1.437,0.03,-0.15,0.95,-0.03,-0.78,-0.31,
1.437,0.03,-0.15,0.95,-0.13,-0.78,-0.30,
1.439,0.03,-0.14,0.96,-0.13,-0.78,-0.30,
1.442,0.03,-0.14,0.96,-0.13,-0.78,-0.30,
1.442,0.03,-0.14,0.96,-0.25,-0.75,-0.28,
1.456,0.02,-0.13,0.97,-0.25,-0.75,-0.28,
1.457,0.02,-0.13,0.98,-0.25,-0.75,-0.28,
1.457,0.02,-0.13,0.98,-0.32,-0.68,-0.22,
1.458,0.02,-0.13,0.98,-0.32,-0.68,-0.22,
1.458,0.02,-0.12,0.99,-0.32,-0.68,-0.22,
1.458,0.02,-0.12,0.99,-0.43,-0.59,-0.11,
1.458,0.01,-0.12,0.99,-0.43,-0.59,-0.11,
1.459,0.01,-0.11,1.00,-0.43,-0.59,-0.11,
1.459,0.01,-0.11,1.00,-0.46,-0.50,-0.01,
1.459,0.02,-0.10,1.01,-0.46,-0.50,-0.01,
1.469,0.02,-0.09,1.01,-0.46,-0.50,-0.01,
1.47,0.02,-0.09,1.01,-0.51,-0.40,0.09,
1.47,0.02,-0.09,1.01,-0.51,-0.40,0.09,
1.471,0.02,-0.08,1.02,-0.51,-0.40,0.09,
1.471,0.02,-0.08,1.02,-0.47,-0.25,0.22,
1.471,0.03,-0.08,1.02,-0.47,-0.25,0.22,
1.472,0.03,-0.07,1.02,-0.47,-0.25,0.22,
1.472,0.03,-0.07,1.02,-0.47,-0.15,0.30,
1.474,0.03,-0.07,1.03,-0.47,-0.15,0.30,
1.477,0.03,-0.07,1.03,-0.47,-0.15,0.30,
1.477,0.03,-0.07,1.03,-0.39,-0.07,0.37,
1.48,0.04,-0.07,1.03,-0.39,-0.07,0.37,
1.488,0.04,-0.07,1.03,-0.39,-0.07,0.37,
1.488,0.04,-0.07,1.03,-0.35,-0.03,0.45,
1.489,0.05,-0.07,1.03,-0.35,-0.03,0.45,
1.489,0.05,-0.08,1.03,-0.35,-0.03,0.45,
1.489,0.05,-0.08,1.03,-0.31,-0.02,0.43,
1.49,0.06,-0.08,1.02,-0.31,-0.02,0.43,
1.492,0.06,-0.08,1.02,-0.31,-0.02,0.43,
1.492,0.06,-0.08,1.02,-0.21,-0.08,0.41,
1.494,0.06,-0.09,1.02,-0.21,-0.08,0.41,
1.505,0.05,-0.09,1.02,-0.21,-0.08,0.41,
1.506,0.05,-0.09,1.02,-0.13,-0.13,0.36,
1.506,0.05,-0.10,1.01,-0.13,-0.13,0.36,
1.506,0.05,-0.11,1.00,-0.13,-0.13,0.36,
1.507,0.05,-0.11,1.00,-0.15,-0.25,0.32,
1.507,0.05,-0.11,0.99,-0.15,-0.25,0.32,
1.507,0.05,-0.11,0.99,-0.18,-0.34,0.17,
1.507,0.05,-0.12,0.98,-0.18,-0.34,0.17,
1.509,0.05,-0.12,0.98,-0.18,-0.34,0.17,
1.517,0.05,-0.12,0.98,-0.18,-0.45,0.03,
1.517,0.05,-0.12,0.97,-0.18,-0.45,0.03,
1.518,0.06,-0.12,0.96,-0.18,-0.45,0.03,
1.518,0.06,-0.12,0.96,-0.19,-0.55,-0.10,
1.518,0.05,-0.12,0.96,-0.19,-0.55,-0.10,
1.52,0.04,-0.12,0.95,-0.19,-0.55,-0.10,
1.522,0.04,-0.13,0.96,-0.19,-0.55,-0.10,
1.522,0.04,-0.13,0.96,-0.18,-0.57,-0.25,
1.524,0.03,-0.13,0.96,-0.18,-0.57,-0.25,
1.527,0.03,-0.13,0.96,-0.31,-0.58,-0.30,
1.527,0.03,-0.12,0.95,-0.31,-0.58,-0.30,
1.533,0.02,-0.12,0.95,-0.31,-0.58,-0.30,
1.534,0.02,-0.12,0.96,-0.31,-0.58,-0.30,
1.534,0.02,-0.12,0.96,-0.40,-0.56,-0.30,
1.534,0.01,-0.12,0.95,-0.40,-0.56,-0.30,
1.537,0.01,-0.11,0.95,-0.40,-0.56,-0.30,
1.537,0.01,-0.11,0.95,-0.44,-0.53,-0.29,
1.539,0.00,-0.11,0.96,-0.44,-0.53,-0.29,
1.543,-0.00,-0.11,0.96,-0.44,-0.53,-0.29,
1.543,-0.00,-0.11,0.96,-0.54,-0.44,-0.30,
1.543,-0.00,-0.10,0.97,-0.54,-0.44,-0.30,
1.556,-0.01,-0.10,0.97,-0.54,-0.44,-0.30,
1.557,-0.01,-0.10,0.97,-0.66,-0.39,-0.25,
1.557,-0.02,-0.10,0.97,-0.66,-0.39,-0.25,
1.557,-0.02,-0.09,0.97,-0.66,-0.39,-0.25,
1.558,-0.02,-0.09,0.97,-0.72,-0.30,-0.17,
1.558,-0.03,-0.08,0.98,-0.72,-0.30,-0.17,
1.558,-0.03,-0.08,0.98,-0.72,-0.30,-0.17,
1.558,-0.03,-0.08,0.98,-0.86,-0.21,-0.11,
1.559,-0.04,-0.08,0.98,-0.86,-0.21,-0.11,
1.562,-0.04,-0.08,0.99,-0.86,-0.21,-0.11,
1.562,-0.04,-0.08,0.99,-0.90,-0.11,-0.03,
1.569,-0.04,-0.07,0.99,-0.90,-0.11,-0.03,
1.57,-0.04,-0.07,0.99,-1.03,-0.07,-0.00,
1.57,-0.04,-0.08,0.99,-1.03,-0.07,-0.00,
1.57,-0.04,-0.08,0.99,-1.03,-0.07,-0.00,
1.572,-0.04,-0.08,0.99,-1.03,-0.07,-0.00,
1.572,-0.04,-0.08,0.99,-1.05,-0.06,0.05,
1.574,-0.04,-0.08,0.99,-1.05,-0.06,0.05,
1.577,-0.04,-0.09,0.98,-1.05,-0.06,0.05,
1.577,-0.04,-0.09,0.98,-1.04,-0.09,0.05,
1.588,-0.04,-0.09,0.98,-1.04,-0.09,0.05,
1.589,-0.03,-0.10,0.97,-1.04,-0.09,0.05,
1.589,-0.03,-0.10,0.97,-1.01,-0.18,-0.01,
1.589,-0.03,-0.10,0.97,-1.01,-0.18,-0.01,
1.59,-0.03,-0.11,0.97,-1.01,-0.18,-0.01,
1.59,-0.03,-0.11,0.97,-0.98,-0.27,-0.11,
1.59,-0.03,-0.11,0.97,-0.98,-0.27,-0.11,
1.591,-0.03,-0.12,0.96,-0.98,-0.27,-0.11,
1.591,-0.03,-0.12,0.96,-0.95,-0.35,-0.17,
1.594,-0.03,-0.13,0.96,-0.95,-0.35,-0.17,
1.602,-0.02,-0.13,0.96,-0.95,-0.35,-0.17,
1.602,-0.02,-0.13,0.96,-0.93,-0.47,-0.20,
1.603,-0.03,-0.14,0.96,-0.93,-0.47,-0.20,
1.603,-0.02,-0.14,0.96,-0.93,-0.47,-0.20,
1.603,-0.02,-0.14,0.96,-0.91,-0.59,-0.24,
1.603,-0.03,-0.15,0.96,-0.91,-0.59,-0.24,
1.606,-0.02,-0.16,0.96,-0.91,-0.59,-0.24,
1.607,-0.02,-0.16,0.96,-0.90,-0.68,-0.27,
1.608,-0.02,-0.16,0.96,-0.90,-0.68,-0.27,
1.611,-0.02,-0.17,0.96,-0.90,-0.68,-0.27,
1.611,-0.02,-0.17,0.96,-0.90,-0.83,-0.24,
1.618,-0.02,-0.18,0.96,-0.90,-0.83,-0.24,
1.619,-0.02,-0.18,0.96,-0.90,-0.83,-0.24,
1.619,-0.02,-0.18,0.96,-0.89,-0.95,-0.25,
1.619,-0.02,-0.19,0.96,-0.89,-0.95,-0.25,
1.621,-0.02,-0.19,0.96,-0.87,-1.05,-0.20,
1.621,-0.01,-0.19,0.97,-0.87,-1.05,-0.20,
1.623,-0.02,-0.19,0.96,-0.87,-1.05,-0.20,
1.626,-0.02,-0.19,0.96,-0.87,-1.05,-0.20,
1.626,-0.02,-0.19,0.96,-0.82,-1.12,-0.21,
1.628,-0.02,-0.20,0.97,-0.82,-1.12,-0.21,
1.635,-0.03,-0.20,0.97,-0.82,-1.12,-0.21,
1.635,-0.03,-0.20,0.97,-0.84,-1.15,-0.19,
1.636,-0.03,-0.20,0.97,-0.84,-1.15,-0.19,
1.636,-0.03,-0.19,0.97,-0.84,-1.15,-0.19,
1.636,-0.03,-0.19,0.97,-0.89,-1.20,-0.13,
1.638,-0.04,-0.19,0.97,-0.89,-1.20,-0.13,
1.64,-0.05,-0.19,0.97,-0.89,-1.20,-0.13,
1.64,-0.05,-0.19,0.97,-0.98,-1.18,-0.13,
1.642,-0.05,-0.18,0.97,-0.98,-1.18,-0.13,
1.654,-0.06,-0.18,0.97,-0.98,-1.18,-0.13,
1.655,-0.06,-0.18,0.97,-1.07,-1.11,-0.17,
1.655,-0.06,-0.17,0.96,-1.07,-1.11,-0.17,
1.655,-0.06,-0.17,0.96,-1.07,-1.11,-0.17,
1.656,-0.06,-0.17,0.96,-1.16,-1.00,-0.13,
1.656,-0.07,-0.17,0.96,-1.16,-1.00,-0.13,
1.656,-0.07,-0.16,0.96,-1.16,-1.00,-0.13,
1.656,-0.07,-0.16,0.96,-1.22,-0.91,-0.21,
1.657,-0.07,-0.15,0.96,-1.22,-0.91,-0.21,
1.66,-0.07,-0.15,0.96,-1.22,-0.91,-0.21,
1.66,-0.07,-0.15,0.96,-1.28,-0.82,-0.21,
1.673,-0.07,-0.15,0.96,-1.28,-0.82,-0.21,
1.674,-0.07,-0.14,0.96,-1.28,-0.82,-0.21,
1.674,-0.07,-0.14,0.96,-1.33,-0.69,-0.21,
1.674,-0.07,-0.14,0.95,-1.33,-0.69,-0.21,
1.674,-0.07,-0.13,0.96,-1.33,-0.69,-0.21,
1.675,-0.07,-0.13,0.96,-1.29,-0.60,-0.24,
1.675,-0.07,-0.12,0.96,-1.29,-0.60,-0.24,
1.675,-0.07,-0.12,0.97,-1.29,-0.60,-0.24,
1.676,-0.07,-0.12,0.97,-1.32,-0.51,-0.26,
1.677,-0.07,-0.12,0.97,-1.32,-0.51,-0.26,
1.687,-0.08,-0.11,0.97,-1.32,-0.51,-0.26,
1.687,-0.08,-0.11,0.97,-1.31,-0.37,-0.19,
1.688,-0.08,-0.10,0.97,-1.31,-0.37,-0.19,
1.688,-0.08,-0.10,0.98,-1.31,-0.37,-0.19,
1.688,-0.08,-0.10,0.98,-1.35,-0.33,-0.13,
1.688,-0.08,-0.10,0.98,-1.35,-0.33,-0.13,
1.69,-0.08,-0.09,0.98,-1.35,-0.33,-0.13,
1.69,-0.08,-0.09,0.98,-1.41,-0.20,-0.09,
1.692,-0.08,-0.10,1.00,-1.41,-0.20,-0.09,
1.695,-0.08,-0.10,1.00,-1.41,-0.20,-0.09,
1.695,-0.08,-0.10,1.00,-1.44,-0.15,-0.03,
1.705,-0.08,-0.10,1.00,-1.44,-0.15,-0.03,
1.705,-0.08,-0.10,1.00,-1.44,-0.15,-0.03,
1.706,-0.08,-0.10,1.00,-1.43,-0.16,0.13,
1.706,-0.08,-0.11,1.00,-1.43,-0.16,0.13,
1.706,-0.08,-0.11,1.01,-1.43,-0.16,0.13,
1.706,-0.08,-0.11,1.01,-1.45,-0.19,0.16,
1.707,-0.08,-0.12,1.00,-1.45,-0.19,0.16,
1.709,-0.08,-0.12,1.00,-1.45,-0.19,0.16,
1.71,-0.08,-0.12,1.00,-1.44,-0.28,0.21,
1.712,-0.08,-0.13,1.00,-1.44,-0.28,0.21,
1.718,-0.08,-0.13,1.00,-1.44,-0.28,0.21,
1.719,-0.08,-0.13,1.00,-1.43,-0.38,0.18,
1.719,-0.07,-0.13,0.99,-1.43,-0.38,0.18,
1.72,-0.08,-0.14,0.99,-1.43,-0.38,0.18,
1.72,-0.08,-0.14,0.99,-1.39,-0.49,0.17,
1.722,-0.08,-0.15,0.99,-1.39,-0.49,0.17,
1.725,-0.07,-0.15,0.99,-1.39,-0.49,0.17,
1.725,-0.07,-0.15,0.99,-1.39,-0.58,0.09,
1.727,-0.08,-0.15,0.98,-1.39,-0.58,0.09,
1.734,-0.08,-0.15,0.98,-1.39,-0.58,0.09,
1.735,-0.08,-0.15,0.98,-1.40,-0.70,0.06,
1.735,-0.08,-0.15,0.98,-1.40,-0.70,0.06,
1.735,-0.08,-0.16,0.98,-1.40,-0.70,0.06,
1.736,-0.08,-0.16,0.98,-1.39,-0.71,0.01,
1.736,-0.08,-0.16,0.98,-1.39,-0.71,0.01,
1.739,-0.09,-0.16,0.98,-1.39,-0.71,0.01,
1.74,-0.09,-0.16,0.98,-1.41,-0.73,0.01,
1.741,-0.10,-0.16,0.98,-1.41,-0.73,0.01,
1.744,-0.10,-0.15,0.98,-1.41,-0.73,0.01,
1.745,-0.10,-0.15,0.98,-1.49,-0.77,-0.02,
1.746,-0.10,-0.15,0.98,-1.49,-0.77,-0.02,
1.754,-0.11,-0.15,0.99,-1.49,-0.77,-0.02,
1.754,-0.11,-0.15,0.99,-1.59,-0.72,-0.01,
1.754,-0.11,-0.15,0.98,-1.59,-0.72,-0.01,
1.755,-0.12,-0.15,0.99,-1.59,-0.72,-0.01,
1.755,-0.12,-0.15,0.99,-1.67,-0.65,0.04,
1.756,-0.11,-0.15,0.99,-1.67,-0.65,0.04,
1.76,-0.12,-0.14,1.00,-1.67,-0.65,0.04,
1.76,-0.12,-0.14,1.00,-1.76,-0.64,0.03,
1.761,-0.13,-0.14,1.00,-1.76,-0.64,0.03,
1.768,-0.13,-0.14,1.00,-1.76,-0.64,0.03,
1.769,-0.13,-0.14,1.00,-1.81,-0.60,0.13,
1.769,-0.13,-0.14,1.01,-1.81,-0.60,0.13,
1.769,-0.13,-0.14,1.02,-1.81,-0.60,0.13,
1.769,-0.13,-0.14,1.02,-1.88,-0.56,0.20,
1.771,-0.13,-0.13,1.02,-1.88,-0.56,0.20,
1.774,-0.13,-0.14,1.01,-1.88,-0.56,0.20,
1.774,-0.13,-0.14,1.01,-1.92,-0.52,0.31,
1.776,-0.13,-0.13,1.02,-1.92,-0.52,0.31,
1.779,-0.14,-0.14,1.01,-1.92,-0.52,0.31,
1.779,-0.14,-0.14,1.01,-1.94,-0.50,0.31,
1.791,-0.13,-0.14,1.01,-1.94,-0.50,0.31,
1.792,-0.13,-0.14,1.01,-1.94,-0.50,0.31,
1.792,-0.13,-0.14,1.01,-1.98,-0.50,0.32,
1.792,-0.13,-0.14,1.00,-1.98,-0.50,0.32,
1.793,-0.12,-0.15,1.00,-1.98,-0.50,0.32,
1.793,-0.12,-0.15,1.00,-1.96,-0.56,0.31,
1.793,-0.12,-0.15,0.99,-1.96,-0.56,0.31,
1.794,-0.11,-0.15,0.99,-1.96,-0.56,0.31,
1.794,-0.11,-0.15,0.99,-1.90,-0.61,0.16,
1.805,-0.11,-0.14,0.98,-1.90,-0.61,0.16,
1.806,-0.10,-0.14,0.97,-1.90,-0.61,0.16,
1.806,-0.10,-0.14,0.97,-1.82,-0.65,0.05,
1.806,-0.10,-0.15,0.97,-1.82,-0.65,0.05,
1.807,-0.10,-0.15,0.97,-1.82,-0.65,0.05,
1.807,-0.10,-0.15,0.97,-1.71,-0.60,-0.07,
1.807,-0.10,-0.14,0.95,-1.71,-0.60,-0.07,
1.809,-0.09,-0.14,0.96,-1.71,-0.60,-0.07,
1.811,-0.09,-0.14,0.96,-1.68,-0.63,-0.14,
1.812,-0.08,-0.14,0.95,-1.68,-0.63,-0.14,
1.823,-0.08,-0.14,0.95,-1.68,-0.63,-0.14,
1.823,-0.08,-0.14,0.95,-1.65,-0.61,-0.27,
1.824,-0.08,-0.14,0.96,-1.65,-0.61,-0.27,
1.824,-0.08,-0.14,0.95,-1.65,-0.61,-0.27,
1.824,-0.08,-0.14,0.95,-1.55,-0.61,-0.30,
1.824,-0.08,-0.13,0.96,-1.55,-0.61,-0.30,
1.825,-0.08,-0.13,0.96,-1.55,-0.61,-0.30,
1.825,-0.08,-0.13,0.96,-1.56,-0.60,-0.28,
1.826,-0.08,-0.13,0.96,-1.56,-0.60,-0.28,
1.829,-0.08,-0.12,0.97,-1.56,-0.60,-0.28,
1.829,-0.08,-0.12,0.97,-1.57,-0.50,-0.25,
1.836,-0.09,-0.12,0.97,-1.57,-0.50,-0.25,
1.837,-0.09,-0.12,0.97,-1.57,-0.50,-0.25,
1.837,-0.09,-0.12,0.97,-1.58,-0.46,-0.18,
1.837,-0.09,-0.12,0.97,-1.58,-0.46,-0.18,
1.838,-0.09,-0.12,0.98,-1.58,-0.46,-0.18,
1.839,-0.09,-0.12,0.98,-1.63,-0.46,-0.16,
1.841,-0.09,-0.12,0.98,-1.63,-0.46,-0.16,
1.843,-0.09,-0.12,0.98,-1.64,-0.41,-0.07,
1.844,-0.09,-0.12,0.98,-1.64,-0.41,-0.07,
1.845,-0.09,-0.11,0.98,-1.64,-0.41,-0.07,
1.853,-0.09,-0.11,0.99,-1.64,-0.41,-0.07,
1.853,-0.09,-0.11,0.99,-1.64,-0.38,0.00,
1.853,-0.09,-0.11,1.00,-1.64,-0.38,0.00,
1.854,-0.10,-0.11,0.99,-1.64,-0.38,0.00,
1.854,-0.10,-0.11,0.99,-1.66,-0.35,0.04,
1.856,-0.09,-0.11,1.00,-1.66,-0.35,0.04,
1.859,-0.09,-0.11,1.00,-1.66,-0.35,0.04,
1.859,-0.09,-0.11,1.00,-1.68,-0.34,0.10,
1.86,-0.10,-0.11,1.00,-1.68,-0.34,0.10,
1.864,-0.11,-0.11,1.00,-1.68,-0.34,0.10,
1.864,-0.11,-0.11,1.00,-1.65,-0.30,0.15,
1.875,-0.10,-0.11,1.01,-1.65,-0.30,0.15,
1.876,-0.10,-0.11,1.01,-1.73,-0.31,0.20,
1.876,-0.10,-0.11,1.00,-1.73,-0.31,0.20,
1.876,-0.10,-0.11,1.00,-1.73,-0.31,0.20,
1.876,-0.10,-0.11,1.00,-1.73,-0.31,0.20,
1.877,-0.10,-0.11,1.00,-1.73,-0.30,0.22,
1.877,-0.11,-0.12,1.00,-1.73,-0.30,0.22,
1.879,-0.11,-0.12,1.00,-1.71,-0.29,0.21,
1.879,-0.11,-0.11,0.99,-1.71,-0.29,0.21,
1.881,-0.12,-0.11,0.99,-1.71,-0.29,0.21,
1.888,-0.12,-0.12,0.99,-1.71,-0.29,0.21,
1.888,-0.12,-0.12,0.99,-1.77,-0.33,0.13,
1.888,-0.13,-0.12,0.99,-1.77,-0.33,0.13,
1.888,-0.13,-0.13,0.98,-1.77,-0.33,0.13,
1.889,-0.13,-0.13,0.98,-1.86,-0.32,0.09,
1.891,-0.13,-0.13,0.98,-1.86,-0.32,0.09,
1.894,-0.13,-0.13,0.98,-1.90,-0.42,0.02,
1.894,-0.14,-0.13,0.98,-1.90,-0.42,0.02,
1.896,-0.14,-0.13,0.97,-1.90,-0.42,0.02,
1.906,-0.14,-0.13,0.97,-1.90,-0.42,0.02,
1.906,-0.14,-0.13,0.97,-1.94,-0.47,-0.05,
1.907,-0.15,-0.13,0.97,-1.94,-0.47,-0.05,
1.907,-0.15,-0.13,0.96,-1.94,-0.47,-0.05,
1.907,-0.15,-0.13,0.96,-1.98,-0.45,-0.15,
1.907,-0.15,-0.13,0.96,-1.98,-0.45,-0.15,
1.907,-0.15,-0.13,0.96,-1.98,-0.45,-0.15,
1.908,-0.15,-0.13,0.96,-2.02,-0.44,-0.17,
1.911,-0.15,-0.13,0.96,-2.02,-0.44,-0.17,
1.913,-0.15,-0.12,0.96,-2.02,-0.44,-0.17,
1.914,-0.15,-0.12,0.96,-2.05,-0.43,-0.21,
1.922,-0.14,-0.12,0.96,-2.05,-0.43,-0.21,
1.922,-0.14,-0.12,0.96,-1.98,-0.40,-0.21,
1.922,-0.14,-0.12,0.98,-1.98,-0.40,-0.21,
1.923,-0.14,-0.11,0.98,-1.98,-0.40,-0.21,
1.923,-0.13,-0.11,0.99,-1.98,-0.40,-0.21,
1.923,-0.13,-0.11,0.99,-1.93,-0.31,-0.12,
1.925,-0.13,-0.12,1.00,-1.93,-0.31,-0.12,
1.928,-0.13,-0.11,1.01,-1.93,-0.31,-0.12,
1.928,-0.13,-0.11,1.01,-1.87,-0.28,0.06,
1.931,-0.12,-0.11,1.01,-1.87,-0.28,0.06,
1.936,-0.12,-0.11,1.02,-1.87,-0.28,0.06,
1.937,-0.12,-0.11,1.02,-1.78,-0.28,0.21,
1.937,-0.12,-0.11,1.02,-1.78,-0.28,0.21,
1.937,-0.12,-0.11,1.02,-1.69,-0.25,0.29,
1.937,-0.11,-0.11,1.03,-1.69,-0.25,0.29,
1.94,-0.11,-0.10,1.04,-1.69,-0.25,0.29,
1.943,-0.11,-0.10,1.04,-1.62,-0.21,0.44,
1.943,-0.10,-0.10,1.05,-1.62,-0.21,0.44,
1.945,-0.10,-0.10,1.05,-1.62,-0.21,0.44,
1.948,-0.09,-0.10,1.05,-1.62,-0.21,0.44,
1.948,-0.09,-0.10,1.05,-1.52,-0.15,0.59,
1.953,-0.09,-0.10,1.06,-1.52,-0.15,0.59,
1.954,-0.08,-0.09,1.06,-1.52,-0.15,0.59,
1.954,-0.08,-0.09,1.06,-1.42,-0.11,0.65,
1.954,-0.08,-0.09,1.07,-1.42,-0.11,0.65,
1.957,-0.08,-0.09,1.07,-1.34,-0.07,0.74,
1.957,-0.08,-0.09,1.07,-1.34,-0.07,0.74,
1.959,-0.08,-0.09,1.07,-1.34,-0.07,0.74,
1.962,-0.07,-0.09,1.08,-1.34,-0.07,0.74,
1.962,-0.07,-0.09,1.08,-1.29,-0.00,0.87,
1.97,-0.07,-0.08,1.07,-1.29,-0.00,0.87,
1.971,-0.07,-0.08,1.07,-1.19,0.03,0.87,
1.971,-0.07,-0.08,1.07,-1.19,0.03,0.87,
1.971,-0.07,-0.08,1.07,-1.19,0.03,0.87,
1.972,-0.07,-0.07,1.08,-1.19,0.03,0.87,
1.972,-0.07,-0.07,1.08,-1.14,0.09,0.83,
1.974,-0.06,-0.07,1.08,-1.14,0.09,0.83,
1.978,-0.06,-0.07,1.08,-1.14,0.09,0.83,
1.978,-0.06,-0.07,1.08,-1.08,0.15,0.86,
1.979,-0.05,-0.07,1.09,-1.08,0.15,0.86,
1.993,-0.05,-0.07,1.09,-1.08,0.15,0.86,
1.993,-0.05,-0.07,1.09,-0.97,0.21,0.93,
1.994,-0.05,-0.07,1.09,-0.97,0.21,0.93,
1.994,-0.05,-0.08,1.08,-0.97,0.21,0.93,
1.994,-0.05,-0.08,1.08,-0.88,0.22,0.96,
1.994,-0.05,-0.08,1.08,-0.88,0.22,0.96,
1.995,-0.05,-0.08,1.08,-0.88,0.22,0.94,
1.995,-0.06,-0.08,1.08,-0.88,0.22,0.94,
1.995,-0.06,-0.08,1.08,-0.88,0.22,0.94,
1.997,-0.07,-0.08,1.08,-0.88,0.22,0.94,
1.997,-0.07,-0.08,1.08,-0.88,0.20,0.90,
2.005,-0.07,-0.07,1.08,-0.88,0.20,0.90,
2.006,-0.07,-0.08,1.07,-0.88,0.20,0.90,
2.006,-0.07,-0.08,1.07,-0.98,0.22,0.88,
2.006,-0.07,-0.08,1.07,-0.98,0.22,0.88,
2.007,-0.07,-0.08,1.06,-0.98,0.22,0.88,
2.007,-0.07,-0.08,1.06,-1.03,0.23,0.82,
2.009,-0.08,-0.08,1.06,-1.03,0.23,0.82,
2.012,-0.08,-0.07,1.06,-1.03,0.23,0.82,
2.012,-0.08,-0.07,1.06,-1.00,0.20,0.76,
2.014,-0.08,-0.07,1.06,-1.00,0.20,0.76,
2.025,-0.08,-0.07,1.06,-1.04,0.24,0.70,
2.026,-0.08,-0.07,1.06,-1.04,0.24,0.70,
2.026,-0.09,-0.07,1.06,-1.04,0.24,0.70,
2.026,-0.08,-0.07,1.06,-1.04,0.24,0.70,
2.027,-0.08,-0.07,1.06,-1.10,0.25,0.68,
2.027,-0.08,-0.07,1.07,-1.10,0.25,0.68,
2.027,-0.08,-0.08,1.07,-1.10,0.25,0.68,
2.028,-0.08,-0.08,1.07,-1.09,0.26,0.68,
2.029,-0.08,-0.08,1.06,-1.09,0.26,0.68,
2.037,-0.08,-0.08,1.07,-1.09,0.26,0.68,
2.038,-0.08,-0.08,1.07,-1.08,0.22,0.71,
2.039,-0.08,-0.08,1.08,-1.08,0.22,0.71,
2.039,-0.08,-0.09,1.08,-1.08,0.22,0.71,
2.039,-0.08,-0.09,1.08,-1.06,0.20,0.73,
2.039,-0.07,-0.09,1.08,-1.06,0.20,0.73,
2.041,-0.07,-0.09,1.08,-1.02,0.15,0.82,
2.042,-0.07,-0.09,1.08,-1.02,0.15,0.82,
2.044,-0.07,-0.09,1.09,-1.02,0.15,0.82,
2.046,-0.07,-0.09,1.09,-1.02,0.15,0.82,
2.046,-0.07,-0.09,1.09,-0.94,0.09,0.83,
2.053,-0.06,-0.09,1.09,-0.94,0.09,0.83,
2.054,-0.05,-0.09,1.08,-0.94,0.09,0.83,
2.054,-0.05,-0.09,1.08,-0.92,0.07,0.92,
2.054,-0.05,-0.09,1.09,-0.92,0.07,0.92,
2.056,-0.05,-0.09,1.08,-0.92,0.07,0.92,
2.056,-0.05,-0.09,1.08,-0.81,0.04,0.89,
2.058,-0.05,-0.09,1.08,-0.81,0.04,0.89,
2.061,-0.05,-0.10,1.08,-0.81,0.04,0.89,
2.062,-0.05,-0.10,1.08,-0.78,0.02,0.85,
2.063,-0.05,-0.09,1.08,-0.78,0.02,0.85,
2.07,-0.05,-0.09,1.08,-0.77,0.01,0.80,
2.07,-0.05,-0.09,1.08,-0.77,0.01,0.80,
2.071,-0.05,-0.09,1.07,-0.77,0.01,0.80,
2.071,-0.05,-0.09,1.07,-0.77,0.01,0.80,
2.071,-0.05,-0.09,1.07,-0.75,0.02,0.77,
2.073,-0.04,-0.09,1.06,-0.75,0.02,0.77,
2.076,-0.04,-0.09,1.06,-0.74,0.02,0.66,
2.076,-0.05,-0.10,1.05,-0.74,0.02,0.66,
2.078,-0.04,-0.10,1.04,-0.74,0.02,0.66,
2.081,-0.05,-0.10,1.04,-0.74,0.02,0.66,
2.081,-0.05,-0.10,1.04,-0.71,-0.01,0.52,
2.087,-0.04,-0.09,1.04,-0.71,-0.01,0.52,
2.088,-0.03,-0.10,1.02,-0.71,-0.01,0.52,
2.088,-0.03,-0.10,1.02,-0.68,-0.05,0.38,
2.088,-0.03,-0.10,1.03,-0.68,-0.05,0.38,
2.091,-0.03,-0.10,1.03,-0.61,-0.06,0.29,
2.091,-0.03,-0.09,1.02,-0.61,-0.06,0.29,
2.093,-0.03,-0.09,1.03,-0.61,-0.06,0.29,
2.095,-0.02,-0.10,1.01,-0.61,-0.06,0.29,
2.096,-0.02,-0.10,1.01,-0.54,-0.07,0.22,
2.11,-0.01,-0.09,1.01,-0.54,-0.07,0.22,
2.111,-0.01,-0.09,1.02,-0.54,-0.07,0.22,
2.112,-0.01,-0.09,1.02,-0.45,-0.06,0.19,
2.112,-0.01,-0.09,1.03,-0.45,-0.06,0.19,
2.112,0.00,-0.09,1.03,-0.45,-0.06,0.19,
2.112,0.00,-0.09,1.03,-0.35,-0.03,0.16,
2.113,0.00,-0.08,1.03,-0.35,-0.03,0.16,
2.113,0.01,-0.08,1.03,-0.35,-0.03,0.16,
2.113,0.01,-0.08,1.03,-0.25,-0.00,0.26,
2.113,0.02,-0.08,1.04,-0.25,-0.00,0.26,
2.123,0.02,-0.08,1.04,-0.13,0.06,0.30,
2.123,0.03,-0.08,1.05,-0.13,0.06,0.30,
2.124,0.04,-0.07,1.06,-0.13,0.06,0.30,
2.124,0.05,-0.07,1.07,-0.13,0.06,0.30,
2.124,0.05,-0.07,1.07,0.05,0.11,0.42,
2.124,0.05,-0.07,1.07,0.05,0.11,0.42,
2.125,0.05,-0.07,1.07,0.18,0.17,0.58,
2.126,0.05,-0.06,1.08,0.18,0.17,0.58,
2.129,0.06,-0.06,1.09,0.18,0.17,0.58,
2.13,0.06,-0.06,1.10,0.18,0.17,0.58,
2.131,0.06,-0.06,1.10,0.25,0.20,0.72,
2.14,0.06,-0.06,1.10,0.25,0.20,0.72,
2.141,0.06,-0.06,1.12,0.25,0.20,0.72,
2.141,0.06,-0.06,1.12,0.33,0.23,0.88,
2.142,0.07,-0.06,1.12,0.33,0.23,0.88,
2.144,0.07,-0.06,1.13,0.33,0.23,0.88,
2.145,0.07,-0.06,1.13,0.37,0.23,1.02,
2.145,0.07,-0.06,1.13,0.37,0.23,1.02,
2.145,0.08,-0.06,1.14,0.37,0.23,1.02,
2.147,0.08,-0.06,1.14,0.49,0.25,1.15,
2.148,0.08,-0.06,1.14,0.49,0.25,1.15,
2.155,0.09,-0.07,1.14,0.49,0.25,1.15,
2.156,0.09,-0.07,1.14,0.53,0.26,1.22,
2.156,0.08,-0.06,1.14,0.53,0.26,1.22,
2.157,0.08,-0.06,1.13,0.53,0.26,1.22,
2.157,0.08,-0.06,1.13,0.60,0.22,1.26,
2.157,0.09,-0.07,1.13,0.60,0.22,1.26,
2.16,0.09,-0.07,1.13,0.62,0.23,1.21,
2.161,0.08,-0.07,1.13,0.62,0.23,1.21,
2.162,0.08,-0.07,1.13,0.62,0.23,1.21,
2.171,0.08,-0.07,1.13,0.63,0.16,1.16,
2.172,0.08,-0.07,1.12,0.63,0.16,1.16,
2.172,0.08,-0.08,1.12,0.63,0.16,1.16,
2.172,0.08,-0.08,1.11,0.63,0.16,1.16,
2.172,0.08,-0.08,1.11,0.63,0.16,1.10,
2.173,0.07,-0.08,1.10,0.63,0.16,1.10,
2.176,0.07,-0.08,1.10,0.63,0.16,1.10,
2.176,0.07,-0.08,1.10,0.60,0.09,1.00,
2.178,0.07,-0.09,1.10,0.60,0.09,1.00,
2.181,0.06,-0.09,1.09,0.60,0.09,1.00,
2.181,0.06,-0.09,1.09,0.58,0.04,0.86,
2.182,0.05,-0.09,1.09,0.58,0.04,0.86,
2.188,0.05,-0.09,1.08,0.58,0.04,0.86,
2.189,0.05,-0.09,1.08,0.48,0.01,0.81,
2.189,0.04,-0.09,1.08,0.48,0.01,0.81,
2.19,0.04,-0.09,1.08,0.39,0.01,0.72,
2.191,0.04,-0.09,1.07,0.39,0.01,0.72,
2.193,0.04,-0.09,1.07,0.39,0.01,0.72,
2.196,0.04,-0.09,1.07,0.39,0.01,0.72,
2.196,0.04,-0.09,1.07,0.32,-0.04,0.61,
2.197,0.04,-0.09,1.06,0.32,-0.04,0.61,
2.211,0.04,-0.09,1.06,0.32,-0.04,0.61,
2.212,0.04,-0.09,1.06,0.32,-0.06,0.53,
2.212,0.04,-0.09,1.06,0.32,-0.06,0.53,
2.212,0.04,-0.09,1.06,0.30,-0.07,0.45,
2.213,0.04,-0.09,1.06,0.30,-0.07,0.45,
2.213,0.05,-0.09,1.06,0.30,-0.07,0.45,
2.213,0.05,-0.08,1.06,0.30,-0.07,0.45,
2.213,0.05,-0.08,1.06,0.36,-0.08,0.42,
2.213,0.05,-0.08,1.06,0.36,-0.08,0.42,
2.215,0.05,-0.08,1.06,0.44,-0.03,0.43,
2.216,0.05,-0.08,1.05,0.44,-0.03,0.43,
2.223,0.06,-0.08,1.05,0.44,-0.03,0.43,
2.223,0.06,-0.07,1.06,0.44,-0.03,0.43,
2.224,0.06,-0.07,1.06,0.48,0.01,0.40,
2.224,0.06,-0.07,1.05,0.48,0.01,0.40,
2.224,0.07,-0.07,1.06,0.48,0.01,0.40,
2.224,0.07,-0.07,1.06,0.54,0.02,0.39,
2.228,0.07,-0.06,1.04,0.54,0.02,0.39,
2.23,0.08,-0.07,1.05,0.54,0.02,0.39,
2.23,0.08,-0.07,1.05,0.62,0.04,0.39,
2.232,0.08,-0.07,1.05,0.62,0.04,0.39,
2.24,0.08,-0.07,1.04,0.62,0.04,0.39,
2.241,0.08,-0.07,1.04,0.73,0.06,0.32,
2.241,0.08,-0.07,1.03,0.73,0.06,0.32,
2.241,0.08,-0.07,1.03,0.78,0.02,0.26,
2.241,0.09,-0.07,1.04,0.78,0.02,0.26,
2.242,0.10,-0.07,1.02,0.78,0.02,0.26,
2.245,0.09,-0.07,1.02,0.78,0.02,0.26,
2.245,0.09,-0.07,1.02,0.86,-0.04,0.21,
2.247,0.10,-0.07,1.02,0.86,-0.04,0.21,
2.257,0.09,-0.07,1.02,0.86,-0.04,0.21,
2.257,0.09,-0.07,1.02,0.93,-0.05,0.09,
2.257,0.10,-0.08,1.01,0.93,-0.05,0.09,
2.258,0.09,-0.07,0.99,0.93,-0.05,0.09,
2.258,0.09,-0.07,0.99,0.95,-0.10,0.03,
2.258,0.09,-0.08,0.99,0.95,-0.10,0.03,
2.26,0.09,-0.08,0.98,0.95,-0.10,0.03,
2.26,0.09,-0.08,0.98,0.97,-0.13,-0.15,
2.262,0.09,-0.07,0.98,0.97,-0.13,-0.15,
2.265,0.09,-0.07,0.98,0.93,-0.17,-0.29,
2.265,0.08,-0.08,0.98,0.93,-0.17,-0.29,
2.271,0.08,-0.07,0.98,0.93,-0.17,-0.29,
2.272,0.08,-0.07,0.98,0.93,-0.17,-0.29,
2.272,0.08,-0.07,0.98,0.90,-0.17,-0.36,
2.272,0.07,-0.06,0.97,0.90,-0.17,-0.36,
2.275,0.07,-0.06,0.97,0.87,-0.13,-0.37,
2.275,0.07,-0.06,0.98,0.87,-0.13,-0.37,
2.277,0.07,-0.07,0.97,0.87,-0.13,-0.37,
2.28,0.06,-0.06,0.97,0.87,-0.13,-0.37,
2.28,0.06,-0.06,0.97,0.82,-0.09,-0.40,
2.282,0.07,-0.06,0.98,0.82,-0.09,-0.40,
2.289,0.06,-0.06,0.98,0.82,-0.09,-0.40,
2.29,0.06,-0.06,0.98,0.75,-0.09,-0.42,
2.29,0.06,-0.06,0.98,0.75,-0.09,-0.42,
2.29,0.07,-0.06,0.99,0.75,-0.09,-0.42,
2.291,0.07,-0.06,0.99,0.76,-0.11,-0.38,
2.291,0.07,-0.06,0.99,0.76,-0.11,-0.38,
2.294,0.07,-0.06,0.99,0.76,-0.11,-0.38,
2.294,0.07,-0.06,0.99,0.79,-0.08,-0.30,
2.296,0.06,-0.06,0.99,0.79,-0.08,-0.30,
2.298,0.07,-0.05,0.99,0.79,-0.08,-0.30,
2.299,0.07,-0.05,0.99,0.80,-0.06,-0.27,
2.305,0.07,-0.05,1.00,0.80,-0.06,-0.27,
2.306,0.08,-0.05,1.00,0.80,-0.06,-0.27,
2.308,0.08,-0.05,1.00,0.79,-0.05,-0.21,
2.308,0.08,-0.05,1.00,0.79,-0.05,-0.21,
2.308,0.09,-0.05,1.00,0.79,-0.05,-0.21,
2.309,0.09,-0.05,1.00,0.91,-0.00,-0.16,
2.311,0.09,-0.04,1.01,0.91,-0.00,-0.16,
2.313,0.09,-0.04,1.01,1.01,-0.04,-0.16,
2.314,0.10,-0.04,1.01,1.01,-0.04,-0.16,
2.327,0.11,-0.05,1.01,1.01,-0.04,-0.16,
2.328,0.11,-0.04,1.02,1.01,-0.04,-0.16,
2.328,0.11,-0.04,1.02,1.13,0.02,-0.10,
2.328,0.11,-0.04,1.02,1.13,0.02,-0.10,
2.329,0.11,-0.04,1.03,1.13,0.02,-0.10,
2.329,0.11,-0.04,1.03,1.29,0.01,-0.04,
2.329,0.12,-0.03,1.03,1.29,0.01,-0.04,
2.329,0.12,-0.03,1.03,1.29,0.01,-0.04,
2.329,0.12,-0.03,1.03,1.34,0.09,0.11,
2.331,0.12,-0.02,1.04,1.34,0.09,0.11,
2.341,0.12,-0.02,1.04,1.34,0.09,0.11,
2.342,0.12,-0.02,1.04,1.42,0.16,0.17,
2.342,0.12,-0.02,1.05,1.42,0.16,0.17,
2.342,0.12,-0.02,1.05,1.41,0.21,0.28,
2.342,0.12,-0.02,1.05,1.41,0.21,0.28,
2.342,0.12,-0.02,1.05,1.41,0.21,0.28,
2.343,0.12,-0.02,1.05,1.41,0.21,0.28,
2.343,0.12,-0.02,1.05,1.42,0.22,0.35,
2.346,0.12,-0.02,1.06,1.42,0.22,0.35,
2.348,0.12,-0.03,1.06,1.42,0.22,0.35,
2.348,0.12,-0.03,1.06,1.43,0.23,0.38,
2.359,0.11,-0.03,1.06,1.43,0.23,0.38,
2.359,0.11,-0.03,1.06,1.43,0.23,0.38,
2.359,0.11,-0.03,1.06,1.45,0.17,0.42,
2.36,0.10,-0.04,1.05,1.45,0.17,0.42,
2.36,0.10,-0.04,1.06,1.45,0.17,0.42,
2.361,0.10,-0.04,1.06,1.38,0.10,0.45,
2.361,0.10,-0.05,1.05,1.38,0.10,0.45,
2.363,0.10,-0.05,1.05,1.34,0.02,0.39,
2.363,0.10,-0.06,1.05,1.34,0.02,0.39,
2.365,0.10,-0.06,1.05,1.34,0.02,0.39,
2.373,0.09,-0.06,1.05,1.34,0.02,0.39,
2.374,0.09,-0.06,1.05,1.32,-0.11,0.34,
2.374,0.09,-0.06,1.05,1.32,-0.11,0.34,
2.374,0.09,-0.06,1.05,1.32,-0.11,0.34,
2.375,0.09,-0.06,1.05,1.30,-0.18,0.35,
2.375,0.09,-0.06,1.04,1.30,-0.18,0.35,
2.378,0.10,-0.07,1.05,1.30,-0.18,0.35,
2.378,0.10,-0.07,1.05,1.29,-0.20,0.32,
2.38,0.09,-0.06,1.05,1.29,-0.20,0.32,
2.389,0.09,-0.06,1.05,1.29,-0.20,0.32,
2.39,0.09,-0.06,1.05,1.33,-0.23,0.28,
2.39,0.09,-0.06,1.05,1.33,-0.23,0.28,
2.39,0.09,-0.06,1.05,1.32,-0.21,0.32,
2.39,0.09,-0.06,1.05,1.32,-0.21,0.32,
2.391,0.10,-0.06,1.05,1.32,-0.21,0.32,
2.393,0.10,-0.06,1.05,1.32,-0.21,0.32,
2.393,0.10,-0.06,1.05,1.36,-0.22,0.33,
2.395,0.10,-0.06,1.05,1.36,-0.22,0.33,
2.398,0.11,-0.06,1.05,1.36,-0.22,0.33,
2.399,0.11,-0.06,1.05,1.41,-0.25,0.33,
2.406,0.12,-0.05,1.05,1.41,-0.25,0.33,
2.406,0.12,-0.05,1.04,1.41,-0.25,0.33,
2.406,0.12,-0.05,1.04,1.51,-0.26,0.31,
2.407,0.12,-0.05,1.04,1.51,-0.26,0.31,
2.408,0.12,-0.05,1.04,1.63,-0.17,0.27,
2.408,0.13,-0.05,1.05,1.63,-0.17,0.27,
2.41,0.12,-0.05,1.05,1.63,-0.17,0.27,
2.413,0.12,-0.05,1.05,1.68,-0.17,0.29,
2.414,0.12,-0.04,1.04,1.68,-0.17,0.29,
2.415,0.13,-0.04,1.03,1.68,-0.17,0.29,
2.429,0.14,-0.04,1.04,1.68,-0.17,0.29,
2.43,0.14,-0.04,1.04,1.68,-0.15,0.27,
2.43,0.14,-0.04,1.04,1.68,-0.15,0.27,
2.43,0.14,-0.04,1.04,1.77,-0.13,0.19,
2.43,0.14,-0.03,1.03,1.77,-0.13,0.19,
2.431,0.14,-0.03,1.03,1.77,-0.13,0.19,
2.431,0.15,-0.03,1.02,1.77,-0.13,0.19,
2.431,0.15,-0.03,1.02,1.86,-0.11,0.20,
2.431,0.15,-0.02,1.02,1.86,-0.11,0.20,
2.432,0.16,-0.02,1.01,1.86,-0.11,0.20,
2.432,0.16,-0.02,1.01,1.92,-0.06,0.10,
2.441,0.16,-0.02,1.01,1.92,-0.06,0.10,
2.442,0.16,-0.02,1.01,2.02,-0.01,0.00,
2.442,0.16,-0.02,1.01,2.02,-0.01,0.00,
2.443,0.17,-0.02,1.01,2.02,-0.01,0.00,
2.443,0.16,-0.02,1.01,2.02,-0.01,0.00,
2.443,0.16,-0.02,1.01,2.05,-0.01,-0.02,
2.444,0.16,-0.02,1.00,2.05,-0.01,-0.02,
2.447,0.16,-0.02,1.00,2.05,-0.01,-0.02,
2.447,0.16,-0.02,1.00,2.11,-0.02,-0.09,
2.449,0.16,-0.02,0.99,2.11,-0.02,-0.09,
2.461,0.16,-0.02,0.98,2.11,-0.02,-0.09,
2.461,0.16,-0.02,0.98,2.10,-0.04,-0.17,
2.462,0.16,-0.01,0.97,2.10,-0.04,-0.17,
2.462,0.16,-0.01,0.97,2.10,-0.05,-0.29,
2.462,0.15,-0.01,0.97,2.10,-0.05,-0.29,
2.463,0.15,-0.01,0.97,2.10,-0.05,-0.29,
2.463,0.15,-0.01,0.97,2.03,-0.03,-0.44,
2.463,0.15,-0.02,0.97,2.03,-0.03,-0.44,
2.464,0.14,-0.01,0.96,2.03,-0.03,-0.44,
2.473,0.14,-0.01,0.95,2.03,-0.03,-0.44,
2.473,0.14,-0.01,0.95,1.95,-0.06,-0.48,
2.476,0.14,-0.02,0.95,1.95,-0.06,-0.48,
2.476,0.14,-0.02,0.94,1.95,-0.06,-0.48,
2.476,0.14,-0.02,0.94,1.89,-0.04,-0.59,
2.477,0.13,-0.02,0.94,1.89,-0.04,-0.59,
2.477,0.13,-0.02,0.94,1.89,-0.04,-0.59,
2.477,0.13,-0.02,0.94,1.87,-0.14,-0.67,
2.479,0.12,-0.02,0.93,1.87,-0.14,-0.67,
2.483,0.12,-0.02,0.94,1.87,-0.14,-0.67,
2.483,0.12,-0.02,0.94,1.82,-0.18,-0.72,
2.491,0.11,-0.03,0.94,1.82,-0.18,-0.72,
2.492,0.11,-0.03,0.94,1.73,-0.21,-0.79,
2.492,0.11,-0.02,0.94,1.73,-0.21,-0.79,
2.492,0.11,-0.02,0.94,1.73,-0.21,-0.79,
2.493,0.10,-0.02,0.94,1.73,-0.21,-0.79,
2.493,0.10,-0.02,0.94,1.66,-0.25,-0.77,
2.495,0.10,-0.02,0.95,1.66,-0.25,-0.77,
2.497,0.10,-0.02,0.95,1.66,-0.25,-0.77,
2.498,0.10,-0.02,0.95,1.57,-0.23,-0.76,
2.5,0.11,-0.02,0.95,1.57,-0.23,-0.76,
2.507,0.11,-0.02,0.96,1.57,-0.23,-0.76,
2.508,0.11,-0.02,0.96,1.56,-0.25,-0.65,
2.508,0.11,-0.02,0.97,1.56,-0.25,-0.65,
2.509,0.11,-0.02,0.98,1.56,-0.25,-0.65,
2.509,0.11,-0.02,0.98,1.58,-0.23,-0.57,
2.509,0.11,-0.01,0.98,1.58,-0.23,-0.57,
2.512,0.11,-0.01,0.98,1.60,-0.24,-0.40,
2.512,0.11,-0.02,0.99,1.60,-0.24,-0.40,
2.514,0.12,-0.02,0.99,1.60,-0.24,-0.40,
2.517,0.12,-0.02,1.00,1.60,-0.24,-0.40,
2.517,0.12,-0.02,1.00,1.62,-0.21,-0.27,
2.525,0.11,-0.02,1.00,1.62,-0.21,-0.27,
2.526,0.12,-0.01,1.00,1.62,-0.21,-0.27,
2.526,0.12,-0.01,1.00,1.68,-0.23,-0.19,
2.526,0.12,-0.01,1.01,1.68,-0.23,-0.19,
2.526,0.11,-0.01,1.01,1.68,-0.23,-0.19,
2.527,0.11,-0.01,1.01,1.63,-0.18,-0.13,
2.529,0.11,-0.01,1.01,1.63,-0.18,-0.13,
2.532,0.11,-0.01,1.01,1.63,-0.18,-0.13,
2.532,0.11,-0.01,1.01,1.63,-0.17,-0.06,
2.534,0.11,-0.01,1.02,1.63,-0.17,-0.06,
2.544,0.11,-0.01,1.02,1.61,-0.12,-0.03,
2.545,0.11,-0.00,1.01,1.61,-0.12,-0.03,
2.545,0.11,-0.00,1.01,1.61,-0.12,-0.03,
2.545,0.11,-0.00,1.01,1.61,-0.12,-0.03,
2.545,0.11,-0.00,1.01,1.60,-0.11,-0.00,
2.545,0.11,-0.00,1.01,1.60,-0.11,-0.00,
2.547,0.11,0.00,1.01,1.60,-0.11,-0.00,
2.547,0.11,0.00,1.01,1.55,-0.11,-0.08,
2.549,0.10,-0.00,1.00,1.55,-0.11,-0.08,
2.558,0.10,-0.00,1.01,1.55,-0.11,-0.08,
2.558,0.10,-0.00,1.01,1.53,-0.06,-0.05,
2.558,0.10,0.00,1.01,1.53,-0.06,-0.05,
2.559,0.10,0.00,1.01,1.53,-0.06,-0.05,
2.559,0.10,0.00,1.01,1.42,-0.08,-0.07,
2.559,0.09,0.00,1.01,1.42,-0.08,-0.07,
2.562,0.09,0.00,1.01,1.39,-0.04,-0.05,
2.562,0.09,0.00,1.01,1.39,-0.04,-0.05,
2.564,0.09,0.01,1.02,1.39,-0.04,-0.05,
2.567,0.08,0.01,1.02,1.39,-0.04,-0.05,
2.567,0.08,0.01,1.02,1.31,-0.03,-0.02,
2.576,0.08,0.01,1.02,1.31,-0.03,-0.02,
2.577,0.08,0.01,1.02,1.31,-0.03,-0.02,
2.577,0.08,0.01,1.02,1.24,0.01,0.04,
2.577,0.07,0.01,1.02,1.24,0.01,0.04,
2.578,0.07,0.01,1.02,1.16,-0.00,0.09,
2.578,0.07,0.01,1.02,1.16,-0.00,0.09,
2.578,0.07,0.00,1.02,1.16,-0.00,0.09,
2.581,0.07,0.00,1.02,1.08,-0.01,0.07,
2.581,0.07,-0.00,1.02,1.08,-0.01,0.07,
2.584,0.07,0.00,1.02,1.08,-0.01,0.07,
2.591,0.07,0.00,1.02,1.05,-0.09,0.09,
2.591,0.06,0.00,1.01,1.05,-0.09,0.09,
2.592,0.06,0.00,1.01,1.05,-0.09,0.09,
2.592,0.06,-0.00,1.00,1.05,-0.09,0.09,
2.592,0.06,-0.00,1.00,0.98,-0.09,0.00,
2.594,0.06,-0.00,1.00,0.98,-0.09,0.00,
2.596,0.07,0.00,0.99,0.98,-0.09,0.00,
2.597,0.07,0.00,0.99,0.95,-0.12,-0.07,
2.599,0.06,-0.00,1.00,0.95,-0.12,-0.07,
2.601,0.07,0.00,0.99,0.95,-0.12,-0.07,
2.601,0.07,0.00,0.99,0.96,-0.11,-0.16,
2.608,0.07,0.00,0.99,0.96,-0.11,-0.16,
2.608,0.07,0.01,0.99,0.96,-0.11,-0.16,
2.608,0.07,0.01,0.99,0.94,-0.12,-0.20,
2.609,0.07,0.01,0.98,0.94,-0.12,-0.20,
2.611,0.07,0.01,0.98,0.95,-0.07,-0.25,
2.611,0.06,0.01,0.98,0.95,-0.07,-0.25,
2.613,0.07,0.01,0.98,0.95,-0.07,-0.25,
2.616,0.07,0.02,0.97,0.95,-0.07,-0.25,
2.616,0.07,0.02,0.97,0.94,-0.04,-0.33,
2.618,0.07,0.02,0.97,0.94,-0.04,-0.33,
2.624,0.08,0.02,0.97,0.94,-0.04,-0.33,
2.624,0.08,0.02,0.97,0.94,-0.00,-0.39,
2.624,0.08,0.02,0.97,0.94,-0.00,-0.39,
2.626,0.07,0.02,0.97,0.94,-0.00,-0.39,
2.626,0.07,0.02,0.97,1.00,0.02,-0.39,
2.628,0.08,0.02,0.97,1.00,0.02,-0.39,
2.631,0.08,0.02,0.97,0.98,0.03,-0.40,
2.631,0.08,0.03,0.98,0.98,0.03,-0.40,
2.633,0.08,0.03,0.97,0.98,0.03,-0.40,
2.636,0.08,0.03,0.97,0.99,0.09,-0.35,
2.636,0.07,0.03,0.97,0.99,0.09,-0.35,
2.642,0.07,0.03,0.98,0.99,0.09,-0.35,
2.642,0.07,0.03,0.98,0.99,0.09,-0.35,
2.642,0.07,0.03,0.98,0.96,0.10,-0.37,
2.643,0.07,0.02,0.97,0.96,0.10,-0.37,
2.646,0.06,0.02,0.98,0.96,0.10,-0.37,
2.646,0.06,0.02,0.98,0.92,0.10,-0.33,
2.648,0.06,0.02,0.97,0.92,0.10,-0.33,
2.651,0.06,0.02,0.97,0.92,0.10,-0.33,
2.651,0.06,0.02,0.97,0.85,0.04,-0.39,
2.664,0.06,0.01,0.97,0.85,0.04,-0.39,
2.671,0.06,0.01,0.96,0.85,0.04,-0.39,
2.671,0.06,0.01,0.96,0.77,0.00,-0.41,
2.671,0.05,0.01,0.97,0.77,0.00,-0.41,
2.672,0.05,0.01,0.97,0.75,-0.09,-0.45,
2.672,0.05,0.01,0.96,0.75,-0.09,-0.45,
2.672,0.04,-0.00,0.97,0.75,-0.09,-0.45,
2.672,0.03,-0.00,0.96,0.75,-0.09,-0.45,
2.673,0.03,-0.00,0.96,0.65,-0.14,-0.44,
2.673,0.03,-0.00,0.96,0.65,-0.14,-0.44,
2.673,0.03,-0.01,0.95,0.65,-0.14,-0.44,
2.673,0.03,-0.01,0.95,0.54,-0.21,-0.48,
2.673,0.03,-0.01,0.95,0.54,-0.21,-0.48,
2.675,0.03,-0.01,0.96,0.54,-0.21,-0.48,
2.676,0.03,-0.01,0.96,0.49,-0.25,-0.54,
2.678,0.02,-0.01,0.95,0.49,-0.25,-0.54,
2.68,0.02,-0.01,0.95,0.49,-0.25,-0.54,
2.681,0.02,-0.01,0.95,0.47,-0.27,-0.55,
2.683,0.02,-0.01,0.95,0.47,-0.27,-0.55,
2.685,0.02,-0.01,0.95,0.36,-0.31,-0.54,
2.685,0.02,-0.01,0.95,0.36,-0.31,-0.54,
2.687,0.02,-0.01,0.95,0.36,-0.31,-0.54,
2.69,0.01,-0.01,0.95,0.36,-0.31,-0.54,
2.69,0.01,-0.01,0.95,0.35,-0.30,-0.56,
2.693,0.01,-0.00,0.95,0.35,-0.30,-0.56,
2.696,0.01,-0.00,0.95,0.31,-0.25,-0.53,
2.696,0.01,-0.01,0.96,0.31,-0.25,-0.53,
2.697,0.01,-0.00,0.96,0.31,-0.25,-0.53,
2.7,0.01,0.00,0.96,0.31,-0.25,-0.53,
2.701,0.01,0.00,0.96,0.29,-0.23,-0.51,
2.703,0.01,0.00,0.96,0.29,-0.23,-0.51,
2.705,0.01,0.00,0.96,0.27,-0.18,-0.45,
2.705,0.01,0.01,0.97,0.27,-0.18,-0.45,
2.707,0.01,0.01,0.97,0.27,-0.18,-0.45,
2.71,0.01,0.01,0.97,0.27,-0.13,-0.40,
2.71,0.01,0.01,0.97,0.27,-0.13,-0.40,
2.712,0.01,0.01,0.98,0.27,-0.13,-0.40,
2.715,0.02,0.02,0.98,0.27,-0.13,-0.40,
2.715,0.02,0.02,0.98,0.23,-0.09,-0.32,
2.718,0.02,0.02,0.98,0.23,-0.09,-0.32,
2.721,0.02,0.02,0.98,0.23,-0.09,-0.32,
2.722,0.02,0.02,0.98,0.27,-0.04,-0.29,
2.722,0.02,0.01,0.99,0.27,-0.04,-0.29,
2.724,0.02,0.02,0.99,0.27,-0.04,-0.29,
2.725,0.02,0.02,0.99,0.29,-0.04,-0.26,
2.727,0.02,0.02,0.99,0.29,-0.04,-0.26,
2.73,0.02,0.02,1.00,0.29,-0.04,-0.26,
2.731,0.02,0.02,1.00,0.31,-0.05,-0.17,
2.732,0.03,0.02,1.00,0.31,-0.05,-0.17,
2.734,0.03,0.02,1.00,0.33,-0.00,-0.11,
2.735,0.03,0.01,1.00,0.33,-0.00,-0.11,
2.741,0.03,0.02,1.00,0.33,-0.00,-0.11,
2.742,0.03,0.02,1.01,0.33,-0.00,-0.11,
2.742,0.03,0.02,1.01,0.37,-0.05,-0.07,
2.742,0.03,0.02,1.01,0.37,-0.05,-0.07,
2.746,0.04,0.02,1.01,0.37,-0.05,-0.07,
2.746,0.04,0.02,1.01,0.37,-0.03,-0.01,
2.747,0.04,0.02,1.01,0.37,-0.03,-0.01,
2.749,0.04,0.02,1.01,0.37,-0.03,-0.01,
2.749,0.04,0.02,1.01,0.41,0.01,0.03,
2.754,0.04,0.02,1.02,0.41,0.01,0.03,
2.755,0.04,0.02,1.02,0.43,0.01,0.02,
2.755,0.03,0.02,1.02,0.43,0.01,0.02,
2.756,0.03,0.02,1.02,0.43,0.01,0.02,
2.759,0.03,0.02,1.02,0.40,0.01,0.13,
2.759,0.03,0.02,1.02,0.40,0.01,0.13,
2.762,0.04,0.02,1.02,0.40,0.01,0.13,
2.765,0.03,0.02,1.02,0.40,0.01,0.13,
2.765,0.03,0.02,1.02,0.38,0.02,0.12,
2.767,0.03,0.03,1.02,0.38,0.02,0.12,
2.769,0.03,0.03,1.02,0.38,0.02,0.12,
2.769,0.03,0.03,1.02,0.41,0.01,0.13,
2.772,0.03,0.02,1.03,0.41,0.01,0.13,
2.775,0.03,0.02,1.03,0.33,0.05,0.17,
2.775,0.03,0.03,1.02,0.33,0.05,0.17,
2.778,0.02,0.03,1.03,0.33,0.05,0.17,
2.779,0.02,0.03,1.02,0.33,0.05,0.17,
2.78,0.02,0.03,1.02,0.30,0.03,0.19,
2.782,0.02,0.03,1.03,0.30,0.03,0.19,
2.786,0.02,0.03,1.03,0.26,0.05,0.19,
2.786,0.02,0.02,1.04,0.26,0.05,0.19,
2.788,0.01,0.02,1.03,0.26,0.05,0.19,
2.789,0.01,0.02,1.03,0.19,0.03,0.26,
2.79,0.02,0.02,1.03,0.19,0.03,0.26,
2.791,0.02,0.02,1.04,0.19,0.03,0.26,
2.795,0.01,0.02,1.03,0.19,0.03,0.26,
2.795,0.01,0.02,1.03,0.19,0.01,0.24,
2.797,0.01,0.02,1.03,0.19,0.01,0.24,
2.799,0.01,0.02,1.03,0.17,-0.01,0.25,
2.803,0.01,0.02,1.03,0.17,-0.01,0.25,
2.803,0.01,0.01,1.04,0.17,-0.01,0.25,
2.807,0.01,0.02,1.04,0.17,-0.01,0.25,
2.807,0.01,0.02,1.04,0.10,-0.01,0.24,
2.807,0.00,0.02,1.03,0.10,-0.01,0.24,
2.809,0.00,0.02,1.03,0.08,-0.06,0.28,
2.809,0.00,0.01,1.04,0.08,-0.06,0.28,
2.811,0.00,0.01,1.03,0.08,-0.06,0.28,
2.814,0.01,0.02,1.03,0.08,-0.06,0.28,
2.814,0.01,0.02,1.03,0.03,-0.07,0.26,
2.816,0.01,0.01,1.03,0.03,-0.07,0.26,
2.819,0.01,0.01,1.04,0.03,-0.07,0.26,
2.819,0.01,0.01,1.04,0.04,-0.06,0.22,
2.821,0.01,0.01,1.04,0.04,-0.06,0.22,
2.824,0.01,0.01,1.04,0.08,-0.10,0.24,
2.824,0.01,0.02,1.04,0.08,-0.10,0.24,
2.826,0.01,0.01,1.04,0.08,-0.10,0.24,
2.829,0.01,0.01,1.04,0.08,-0.10,0.24,
2.829,0.01,0.01,1.04,0.12,-0.09,0.28,
2.831,0.02,0.01,1.04,0.12,-0.09,0.28,
2.834,0.02,0.01,1.04,0.11,-0.09,0.28,
2.834,0.02,0.02,1.04,0.11,-0.09,0.28,
2.836,0.02,0.02,1.04,0.11,-0.09,0.28,
2.841,0.02,0.02,1.03,0.11,-0.09,0.28,
2.842,0.02,0.02,1.03,0.16,-0.08,0.29,
2.842,0.02,0.02,1.04,0.16,-0.08,0.29,
2.845,0.02,0.02,1.04,0.16,-0.05,0.27,
2.846,0.03,0.02,1.03,0.16,-0.05,0.27,
2.846,0.03,0.02,1.04,0.16,-0.05,0.27,
2.849,0.03,0.03,1.03,0.16,-0.05,0.27,
2.85,0.03,0.03,1.03,0.21,-0.02,0.26,
2.85,0.03,0.03,1.03,0.21,-0.02,0.26,
2.855,0.03,0.03,1.03,0.21,-0.02,0.26,
2.855,0.03,0.03,1.03,0.25,-0.00,0.25,
2.856,0.03,0.03,1.03,0.25,-0.00,0.25,
2.858,0.03,0.03,1.03,0.27,0.02,0.21,
2.859,0.03,0.03,1.03,0.27,0.02,0.21,
2.861,0.03,0.03,1.03,0.27,0.02,0.21,
2.864,0.03,0.03,1.02,0.27,0.02,0.21,
2.864,0.03,0.03,1.02,0.26,0.01,0.17,
2.866,0.03,0.03,1.02,0.26,0.01,0.17,
2.869,0.03,0.04,1.02,0.26,0.01,0.17,
2.869,0.03,0.04,1.02,0.28,0.02,0.16,
2.871,0.03,0.03,1.02,0.28,0.02,0.16,
2.873,0.03,0.03,1.02,0.28,0.02,0.16,
2.874,0.03,0.03,1.02,0.26,0.09,0.11,
2.875,0.02,0.03,1.02,0.26,0.09,0.11,
2.878,0.02,0.03,1.02,0.25,0.06,0.11,
2.878,0.02,0.04,1.02,0.25,0.06,0.11,
2.881,0.03,0.04,1.02,0.25,0.06,0.11,
2.883,0.03,0.04,1.02,0.23,0.08,0.10,
2.884,0.03,0.03,1.02,0.23,0.08,0.10,
2.886,0.03,0.04,1.00,0.23,0.08,0.10,
2.889,0.01,0.03,0.97,0.23,0.08,0.10,
2.889,0.01,0.03,0.97,0.26,0.07,0.10,
2.89,0.01,0.04,0.94,0.26,0.07,0.10,
2.894,0.02,0.04,0.94,0.26,0.07,0.10,
2.894,0.02,0.04,0.94,0.19,0.05,-0.22,
2.896,0.03,0.04,0.94,0.19,0.05,-0.22,
2.898,0.02,0.04,0.95,0.19,0.05,-0.22,
2.899,0.02,0.04,0.95,0.17,0.14,-0.67,
2.901,0.01,0.04,0.98,0.17,0.14,-0.67,
2.903,0.00,0.03,0.99,0.17,0.14,-0.67,
2.903,0.00,0.03,0.99,0.25,0.10,-0.61,
2.905,0.01,0.03,1.00,0.25,0.10,-0.61,
2.909,0.01,0.03,1.00,0.08,0.05,-0.24,
2.909,0.00,0.03,1.02,0.08,0.05,-0.24,
2.91,0.01,0.03,1.02,0.08,0.05,-0.24,
2.913,0.01,0.02,1.03,0.08,0.05,-0.24,
2.913,0.01,0.02,1.03,0.08,0.00,0.02,
2.916,0.01,0.02,1.03,0.08,0.00,0.02,
2.918,0.01,0.02,1.04,0.08,0.00,0.02,
2.918,0.01,0.02,1.04,0.07,-0.03,0.12,
2.922,0.01,0.03,1.04,0.07,-0.03,0.12,
2.922,0.01,0.02,1.04,0.07,-0.03,0.12,
2.923,0.01,0.02,1.04,0.11,-0.07,0.24,
2.925,0.01,0.02,1.04,0.11,-0.07,0.24,
2.928,0.01,0.02,1.04,0.12,-0.05,0.32,
2.929,0.01,0.02,1.04,0.12,-0.05,0.32,
2.93,0.00,0.02,1.04,0.12,-0.05,0.32,
2.933,0.00,0.02,1.04,0.11,-0.07,0.30,
2.933,-0.00,0.02,1.03,0.11,-0.07,0.30,
2.935,-0.00,0.02,1.03,0.11,-0.07,0.30,
2.939,0.00,0.02,1.02,0.11,-0.07,0.30,
2.939,0.00,0.02,1.02,0.02,-0.07,0.24,
2.94,0.00,0.02,1.01,0.02,-0.07,0.24,
2.943,0.00,0.02,1.01,0.02,-0.07,0.24,
2.943,0.00,0.02,1.01,0.00,-0.13,0.13,
2.945,-0.01,0.02,1.01,0.00,-0.13,0.13,
2.947,-0.00,0.01,1.00,0.00,-0.13,0.13,
2.947,-0.00,0.01,1.00,0.01,-0.14,-0.00,
2.949,0.01,0.01,0.99,0.01,-0.14,-0.00,
2.952,-0.00,0.01,0.99,0.01,-0.14,-0.00,
2.952,-0.00,0.01,0.99,-0.05,-0.17,-0.08,
2.96,-0.00,0.01,0.99,-0.05,-0.17,-0.08,
2.961,-0.00,0.01,0.99,0.01,-0.19,-0.17,
2.961,-0.01,0.02,1.00,0.01,-0.19,-0.17,
2.961,-0.01,0.01,0.99,0.01,-0.19,-0.17,
2.963,-0.01,0.01,0.98,0.01,-0.19,-0.17,
2.964,-0.01,0.01,0.98,-0.05,-0.19,-0.14,
2.966,-0.00,0.01,0.99,-0.05,-0.19,-0.14,
2.967,-0.01,0.01,0.99,-0.05,-0.19,-0.14,
2.967,-0.01,0.01,0.99,-0.07,-0.22,-0.19,
2.977,-0.01,0.01,0.98,-0.07,-0.22,-0.19,
2.978,-0.01,0.01,0.98,-0.07,-0.22,-0.19,
2.978,-0.01,0.01,0.98,-0.07,-0.20,-0.21,
2.978,-0.01,0.01,0.99,-0.07,-0.20,-0.21,
2.978,-0.01,0.01,0.98,-0.07,-0.20,-0.21,
2.979,-0.01,0.01,0.98,-0.11,-0.22,-0.24,
2.981,-0.01,0.02,0.98,-0.11,-0.22,-0.24,
2.982,-0.01,0.02,0.98,-0.11,-0.24,-0.23,
2.982,-0.01,0.02,0.99,-0.11,-0.24,-0.23,
2.985,-0.02,0.01,0.98,-0.11,-0.24,-0.23,
2.996,-0.02,0.02,0.98,-0.11,-0.24,-0.23,
2.997,-0.02,0.02,0.98,-0.13,-0.19,-0.22,
2.997,-0.01,0.02,0.98,-0.13,-0.19,-0.22,
2.998,-0.01,0.01,0.98,-0.13,-0.19,-0.22,
2.998,-0.01,0.01,0.98,-0.17,-0.20,-0.24,
2.998,-0.01,0.02,0.98,-0.17,-0.20,-0.24,
2.998,-0.01,0.02,0.98,-0.17,-0.20,-0.24,
2.998,-0.01,0.02,0.98,-0.10,-0.19,-0.24,
