
time,gFx,gFy,gFz,ax,ay,az,
0.007,0.00,0.12,1.01,-0.46,0.03,-0.28,
0.008,0.00,0.12,1.01,-0.37,-0.02,-0.10,
0.008,0.01,0.11,1.02,-0.37,-0.02,-0.10,
0.008,0.01,0.11,1.03,-0.37,-0.02,-0.10,
0.008,0.01,0.11,1.03,-0.30,-0.12,0.11,
0.009,0.01,0.10,1.03,-0.30,-0.12,0.11,
0.009,0.01,0.10,1.05,-0.30,-0.12,0.11,
0.009,0.01,0.10,1.05,-0.27,-0.18,0.30,
0.009,0.02,0.10,1.04,-0.27,-0.18,0.30,
0.01,0.02,0.09,1.05,-0.27,-0.18,0.30,
0.01,0.02,0.09,1.05,-0.20,-0.27,0.46,
0.015,0.03,0.08,1.04,-0.20,-0.27,0.46,
0.015,0.03,0.08,1.04,-0.20,-0.27,0.46,
0.015,0.03,0.08,1.04,-0.13,-0.33,0.50,
0.017,0.04,0.08,1.04,-0.13,-0.33,0.50,
0.019,0.04,0.07,1.04,-0.13,-0.33,0.50,
0.019,0.04,0.07,1.04,-0.07,-0.43,0.47,
0.021,0.05,0.07,1.03,-0.07,-0.43,0.47,
0.024,0.05,0.07,1.03,-0.07,-0.43,0.47,
0.024,0.05,0.07,1.03,0.04,-0.49,0.44,
0.03,0.07,0.06,1.03,0.04,-0.49,0.44,
0.03,0.07,0.06,1.03,0.16,-0.54,0.38,
0.03,0.15,0.08,1.04,0.16,-0.54,0.38,
0.031,0.18,0.09,1.05,0.16,-0.54,0.38,
0.034,0.15,0.09,1.03,0.16,-0.54,0.38,
0.034,0.15,0.09,1.03,0.74,-0.48,0.38,
0.036,0.14,0.09,1.02,0.74,-0.48,0.38,
0.038,0.12,0.10,1.02,0.74,-0.48,0.38,
0.038,0.12,0.10,1.02,1.29,-0.32,0.45,
0.041,0.11,0.10,1.01,1.29,-0.32,0.45,
0.045,0.10,0.10,1.00,1.29,-0.32,0.45,
0.046,0.10,0.10,1.00,0.95,-0.25,0.23,
0.046,0.08,0.10,1.00,0.95,-0.25,0.23,
0.049,0.06,0.11,0.99,0.95,-0.25,0.23,
0.049,0.06,0.11,0.99,0.66,-0.18,0.08,
0.051,0.05,0.10,0.99,0.66,-0.18,0.08,
0.054,0.05,0.10,0.98,0.66,-0.18,0.08,
0.054,0.05,0.10,0.98,0.38,-0.15,-0.04,
0.056,0.04,0.09,0.98,0.38,-0.15,-0.04,
0.059,0.04,0.09,0.98,0.38,-0.15,-0.04,
0.059,0.04,0.09,0.98,0.17,-0.17,-0.17,
0.061,0.05,0.09,0.99,0.17,-0.17,-0.17,
0.063,0.05,0.09,0.98,0.17,-0.17,-0.17,
0.063,0.05,0.09,0.98,0.10,-0.26,-0.15,
0.066,0.06,0.09,0.98,0.10,-0.26,-0.15,
0.068,0.08,0.08,0.95,0.10,-0.26,-0.15,
0.069,0.08,0.08,0.95,0.17,-0.27,-0.13,
0.071,0.08,0.08,0.92,0.17,-0.27,-0.13,
0.074,0.06,0.09,0.93,0.17,-0.27,-0.13,
0.074,0.06,0.09,0.93,0.35,-0.31,-0.29,
0.076,0.04,0.10,0.94,0.35,-0.31,-0.29,
0.079,0.03,0.11,0.95,0.35,-0.31,-0.29,
0.079,0.03,0.11,0.95,0.36,-0.36,-0.69,
0.08,0.02,0.12,0.94,0.36,-0.36,-0.69,
0.083,0.02,0.13,0.95,0.36,-0.36,-0.69,
0.084,0.02,0.13,0.95,0.04,-0.14,-0.49,
0.086,0.01,0.14,0.95,0.04,-0.14,-0.49,
0.088,0.00,0.14,0.95,0.04,-0.14,-0.49,
0.089,0.00,0.14,0.95,-0.10,0.05,-0.52,
0.091,-0.00,0.14,0.95,-0.10,0.05,-0.52,
0.093,0.00,0.14,0.95,-0.10,0.05,-0.52,
0.093,0.00,0.14,0.95,-0.22,0.18,-0.41,
0.095,0.00,0.13,0.96,-0.22,0.18,-0.41,
0.098,0.00,0.13,0.95,-0.22,0.18,-0.41,
0.098,0.00,0.13,0.95,-0.29,0.14,-0.42,
0.1,0.01,0.13,0.95,-0.29,0.14,-0.42,
0.103,0.01,0.12,0.95,-0.29,0.14,-0.42,
0.103,0.01,0.12,0.95,-0.26,0.05,-0.40,
0.105,0.01,0.12,0.95,-0.26,0.05,-0.40,
0.108,0.01,0.11,0.94,-0.26,0.05,-0.40,
0.108,0.01,0.11,0.94,-0.22,-0.02,-0.41,
0.111,0.01,0.11,0.94,-0.22,-0.02,-0.41,
0.113,0.01,0.11,0.94,-0.22,-0.02,-0.41,
0.115,0.01,0.11,0.94,-0.20,-0.11,-0.47,
0.115,0.01,0.12,0.94,-0.20,-0.11,-0.47,
0.118,0.01,0.12,0.94,-0.22,-0.14,-0.51,
0.118,0.01,0.11,0.94,-0.22,-0.14,-0.51,
0.121,0.00,0.12,0.95,-0.22,-0.14,-0.51,
0.123,0.00,0.12,0.94,-0.22,-0.14,-0.51,
0.123,0.00,0.12,0.94,-0.20,-0.14,-0.47,
0.125,0.00,0.12,0.95,-0.20,-0.14,-0.47,
0.13,0.00,0.12,0.95,-0.20,-0.14,-0.47,
0.13,0.00,0.12,0.95,-0.26,-0.13,-0.45,
0.131,0.00,0.12,0.96,-0.26,-0.13,-0.45,
0.132,-0.00,0.12,0.96,-0.26,-0.13,-0.45,
0.132,-0.00,0.12,0.96,-0.25,-0.10,-0.38,
0.135,-0.00,0.12,0.96,-0.25,-0.10,-0.38,
0.138,-0.01,0.12,0.97,-0.25,-0.10,-0.38,
0.138,-0.01,0.12,0.97,-0.28,-0.10,-0.32,
0.14,-0.01,0.12,0.97,-0.28,-0.10,-0.32,
0.143,-0.01,0.12,0.97,-0.28,-0.10,-0.32,
0.143,-0.01,0.12,0.97,-0.32,-0.10,-0.25,
0.145,-0.01,0.12,0.98,-0.32,-0.10,-0.25,
0.147,-0.01,0.12,0.97,-0.32,-0.10,-0.25,
0.147,-0.01,0.12,0.97,-0.37,-0.14,-0.18,
0.15,-0.01,0.11,0.97,-0.37,-0.14,-0.18,
0.153,-0.01,0.11,0.98,-0.37,-0.14,-0.18,
0.153,-0.01,0.11,0.98,-0.38,-0.15,-0.14,
0.155,-0.01,0.11,0.97,-0.38,-0.15,-0.14,
0.158,-0.01,0.12,0.98,-0.38,-0.15,-0.14,
0.16,-0.01,0.12,0.98,-0.36,-0.17,-0.15,
0.16,-0.01,0.12,0.98,-0.36,-0.17,-0.15,
0.162,-0.01,0.12,0.98,-0.36,-0.17,-0.15,
0.163,-0.01,0.12,0.98,-0.35,-0.15,-0.12,
0.166,-0.01,0.12,0.98,-0.35,-0.15,-0.12,
0.168,-0.01,0.12,0.98,-0.35,-0.15,-0.12,
0.168,-0.01,0.12,0.98,-0.34,-0.12,-0.08,
0.17,-0.01,0.12,0.97,-0.34,-0.12,-0.08,
0.172,-0.01,0.13,0.98,-0.34,-0.12,-0.08,
0.173,-0.01,0.13,0.98,-0.33,-0.08,-0.10,
0.175,-0.01,0.14,0.97,-0.33,-0.08,-0.10,
0.179,-0.01,0.14,0.97,-0.30,-0.03,-0.14,
0.179,-0.01,0.14,0.97,-0.30,-0.03,-0.14,
0.18,-0.01,0.13,0.97,-0.30,-0.03,-0.14,
0.182,-0.00,0.14,0.97,-0.30,-0.03,-0.14,
0.182,-0.00,0.14,0.97,-0.28,0.05,-0.16,
0.185,0.00,0.14,0.97,-0.28,0.05,-0.16,
0.187,-0.00,0.15,0.97,-0.28,0.05,-0.16,
0.188,-0.00,0.15,0.97,-0.25,0.08,-0.17,
0.19,0.00,0.15,0.97,-0.25,0.08,-0.17,
0.192,0.01,0.15,0.97,-0.25,0.08,-0.17,
0.193,0.01,0.15,0.97,-0.19,0.15,-0.21,
0.195,0.01,0.15,0.97,-0.19,0.15,-0.21,
0.197,0.01,0.16,0.96,-0.19,0.15,-0.21,
0.197,0.01,0.16,0.96,-0.16,0.19,-0.18,
0.2,0.01,0.16,0.96,-0.16,0.19,-0.18,
0.202,0.01,0.16,0.96,-0.11,0.23,-0.24,
0.202,0.02,0.16,0.96,-0.11,0.23,-0.24,
0.205,0.02,0.16,0.96,-0.11,0.23,-0.24,
0.207,0.02,0.16,0.95,-0.11,0.23,-0.24,
0.208,0.02,0.16,0.95,-0.02,0.28,-0.30,
0.21,0.03,0.16,0.95,-0.02,0.28,-0.30,
0.213,0.03,0.16,0.95,-0.02,0.28,-0.30,
0.213,0.03,0.16,0.95,0.03,0.29,-0.33,
0.214,0.03,0.16,0.95,0.03,0.29,-0.33,
0.217,0.03,0.16,0.95,0.08,0.28,-0.37,
0.217,0.03,0.16,0.95,0.08,0.28,-0.37,
0.22,0.03,0.16,0.95,0.08,0.28,-0.37,
0.222,0.03,0.17,0.95,0.08,0.28,-0.37,
0.222,0.03,0.17,0.95,0.08,0.30,-0.36,
0.224,0.03,0.17,0.95,0.08,0.30,-0.36,
0.227,0.03,0.17,0.96,0.08,0.30,-0.36,
0.227,0.03,0.17,0.96,0.11,0.34,-0.37,
0.229,0.03,0.17,0.96,0.11,0.34,-0.37,
0.232,0.04,0.17,0.96,0.11,0.34,-0.37,
0.232,0.04,0.17,0.96,0.12,0.39,-0.32,
0.235,0.04,0.17,0.97,0.12,0.39,-0.32,
0.236,0.03,0.16,0.97,0.12,0.39,-0.32,
0.237,0.03,0.16,0.97,0.16,0.40,-0.24,
0.239,0.03,0.16,0.97,0.16,0.40,-0.24,
0.241,0.03,0.15,0.97,0.16,0.40,-0.24,
0.241,0.03,0.15,0.97,0.14,0.33,-0.18,
0.244,0.03,0.15,0.97,0.14,0.33,-0.18,
0.249,0.03,0.14,0.97,0.14,0.33,-0.18,
0.25,0.03,0.14,0.97,0.10,0.23,-0.16,
0.25,0.03,0.14,0.97,0.10,0.23,-0.16,
0.254,0.03,0.14,0.97,0.10,0.23,-0.16,
0.254,0.03,0.14,0.97,0.09,0.12,-0.13,
0.254,0.03,0.13,0.97,0.09,0.12,-0.13,
0.256,0.02,0.13,0.97,0.09,0.12,-0.13,
0.256,0.02,0.13,0.97,0.05,0.06,-0.15,
0.258,0.02,0.12,0.96,0.05,0.06,-0.15,
0.263,0.02,0.12,0.96,0.05,0.06,-0.15,
0.263,0.02,0.12,0.96,0.04,-0.06,-0.16,
0.264,0.02,0.12,0.96,0.04,-0.06,-0.16,
0.266,0.02,0.12,0.96,-0.01,-0.12,-0.25,
0.266,0.02,0.12,0.95,-0.01,-0.12,-0.25,
0.269,0.02,0.12,0.95,-0.01,-0.12,-0.25,
0.271,0.01,0.12,0.95,-0.01,-0.12,-0.25,
0.272,0.01,0.12,0.95,-0.03,-0.15,-0.29,
0.274,0.01,0.12,0.94,-0.03,-0.15,-0.29,
0.276,0.01,0.12,0.94,-0.03,-0.15,-0.29,
0.277,0.01,0.12,0.94,-0.05,-0.16,-0.30,
0.28,0.01,0.13,0.94,-0.05,-0.16,-0.30,
0.281,0.02,0.13,0.93,-0.05,-0.16,-0.30,
0.281,0.02,0.13,0.93,-0.05,-0.15,-0.44,
0.284,0.02,0.12,0.93,-0.05,-0.15,-0.44,
0.285,0.03,0.13,0.93,-0.05,-0.15,-0.44,
0.286,0.03,0.13,0.93,-0.02,-0.09,-0.48,
0.289,0.03,0.13,0.92,-0.02,-0.09,-0.48,
0.292,0.03,0.13,0.92,-0.02,-0.09,-0.48,
0.292,0.03,0.13,0.92,0.05,-0.11,-0.52,
0.293,0.04,0.13,0.91,0.05,-0.11,-0.52,
0.296,0.05,0.13,0.91,0.05,-0.11,-0.52,
0.297,0.05,0.13,0.91,0.13,-0.10,-0.59,
0.299,0.05,0.13,0.90,0.13,-0.10,-0.59,
0.301,0.05,0.13,0.90,0.24,-0.11,-0.69,
0.301,0.05,0.13,0.90,0.24,-0.11,-0.69,
0.304,0.06,0.13,0.89,0.24,-0.11,-0.69,
0.306,0.06,0.13,0.89,0.24,-0.11,-0.69,
0.307,0.06,0.13,0.89,0.33,-0.09,-0.78,
0.309,0.07,0.13,0.89,0.33,-0.09,-0.78,
0.311,0.07,0.13,0.89,0.33,-0.09,-0.78,
0.311,0.07,0.13,0.89,0.41,-0.09,-0.85,
0.313,0.07,0.14,0.88,0.41,-0.09,-0.85,
0.315,0.07,0.14,0.88,0.41,-0.09,-0.85,
0.317,0.07,0.14,0.88,0.48,-0.08,-0.90,
0.319,0.07,0.14,0.87,0.48,-0.08,-0.90,
0.321,0.07,0.14,0.87,0.48,-0.08,-0.90,
0.321,0.07,0.14,0.87,0.51,-0.06,-1.00,
0.324,0.07,0.15,0.86,0.51,-0.06,-1.00,
0.326,0.07,0.15,0.85,0.51,-0.06,-1.00,
0.326,0.07,0.15,0.85,0.53,-0.03,-1.05,
0.329,0.07,0.15,0.85,0.53,-0.03,-1.05,
0.331,0.06,0.15,0.85,0.53,-0.03,-1.05,
0.331,0.06,0.15,0.85,0.51,0.03,-1.17,
0.333,0.06,0.15,0.85,0.51,0.03,-1.17,
0.335,0.05,0.15,0.86,0.51,0.03,-1.17,
0.336,0.05,0.15,0.86,0.44,0.05,-1.22,
0.338,0.05,0.15,0.85,0.44,0.05,-1.22,
0.34,0.05,0.16,0.85,0.44,0.05,-1.22,
0.341,0.05,0.16,0.85,0.37,0.06,-1.17,
0.343,0.05,0.15,0.85,0.37,0.06,-1.17,
0.355,0.04,0.15,0.85,0.37,0.06,-1.17,
0.356,0.04,0.15,0.85,0.31,0.10,-1.18,
0.356,0.04,0.15,0.85,0.31,0.10,-1.18,
0.356,0.03,0.14,0.85,0.31,0.10,-1.18,
0.356,0.03,0.14,0.85,0.21,0.05,-1.16,
0.357,0.03,0.14,0.85,0.21,0.05,-1.16,
0.357,0.03,0.14,0.86,0.21,0.05,-1.16,
0.357,0.03,0.14,0.86,0.16,0.02,-1.17,
0.358,0.02,0.14,0.86,0.16,0.02,-1.17,
0.36,0.02,0.14,0.87,0.16,0.02,-1.17,
0.36,0.02,0.14,0.87,0.10,-0.03,-1.12,
0.362,0.01,0.13,0.86,0.10,-0.03,-1.12,
0.365,0.01,0.13,0.87,0.10,-0.03,-1.12,
0.365,0.01,0.13,0.87,0.03,-0.08,-1.05,
0.367,0.01,0.13,0.88,0.03,-0.08,-1.05,
0.37,0.01,0.12,0.88,0.03,-0.08,-1.05,
0.371,0.01,0.12,0.88,-0.09,-0.15,-1.01,
0.372,0.00,0.12,0.88,-0.09,-0.15,-1.01,
0.375,0.00,0.11,0.90,-0.09,-0.15,-1.01,
0.375,0.00,0.11,0.90,-0.10,-0.21,-0.90,
0.378,0.00,0.11,0.90,-0.10,-0.21,-0.90,
0.38,0.01,0.10,0.90,-0.10,-0.21,-0.90,
0.381,0.01,0.10,0.90,-0.15,-0.29,-0.75,
0.382,0.01,0.10,0.91,-0.15,-0.29,-0.75,
0.385,0.01,0.10,0.91,-0.15,-0.29,-0.75,
0.385,0.01,0.10,0.91,-0.12,-0.38,-0.63,
0.388,0.02,0.09,0.92,-0.12,-0.38,-0.63,
0.39,0.02,0.09,0.91,-0.12,-0.38,-0.63,
0.39,0.02,0.09,0.91,-0.07,-0.45,-0.56,
0.393,0.02,0.09,0.91,-0.07,-0.45,-0.56,
0.395,0.02,0.08,0.91,-0.07,-0.45,-0.56,
0.395,0.02,0.08,0.91,-0.02,-0.51,-0.51,
0.397,0.02,0.09,0.91,-0.02,-0.51,-0.51,
0.4,0.03,0.09,0.91,-0.02,-0.51,-0.51,
0.4,0.03,0.09,0.91,0.02,-0.55,-0.51,
0.403,0.03,0.09,0.91,0.02,-0.55,-0.51,
0.405,0.03,0.09,0.90,0.02,-0.55,-0.51,
0.405,0.03,0.09,0.90,0.07,-0.55,-0.57,
0.408,0.03,0.09,0.90,0.07,-0.55,-0.57,
0.41,0.02,0.09,0.89,0.07,-0.55,-0.57,
0.41,0.02,0.09,0.89,0.08,-0.49,-0.58,
0.412,0.03,0.09,0.88,0.08,-0.49,-0.58,
0.415,0.01,0.09,0.88,0.08,-0.49,-0.58,
0.415,0.01,0.09,0.88,0.06,-0.50,-0.65,
0.418,0.01,0.10,0.88,0.06,-0.50,-0.65,
0.42,0.01,0.10,0.88,0.06,-0.50,-0.65,
0.42,0.01,0.10,0.88,0.02,-0.48,-0.80,
0.422,0.00,0.09,0.87,0.02,-0.48,-0.80,
0.425,0.00,0.09,0.87,-0.07,-0.44,-0.80,
0.425,-0.00,0.09,0.87,-0.07,-0.44,-0.80,
0.428,-0.01,0.09,0.87,-0.07,-0.44,-0.80,
0.434,-0.01,0.08,0.87,-0.07,-0.44,-0.80,
0.434,-0.01,0.08,0.87,-0.16,-0.48,-0.90,
0.435,-0.01,0.08,0.87,-0.16,-0.48,-0.90,
0.435,-0.02,0.07,0.87,-0.16,-0.48,-0.90,
0.435,-0.02,0.07,0.87,-0.23,-0.53,-0.89,
0.437,-0.02,0.07,0.87,-0.23,-0.53,-0.89,
0.439,-0.02,0.06,0.86,-0.23,-0.53,-0.89,
0.44,-0.02,0.06,0.86,-0.26,-0.63,-0.87,
0.442,-0.02,0.05,0.86,-0.26,-0.63,-0.87,
0.445,-0.02,0.05,0.85,-0.26,-0.63,-0.87,
0.445,-0.02,0.05,0.85,-0.30,-0.75,-0.92,
0.447,-0.02,0.05,0.85,-0.30,-0.75,-0.92,
0.449,-0.01,0.05,0.85,-0.30,-0.75,-0.92,
0.45,-0.01,0.05,0.85,-0.27,-0.87,-1.02,
0.452,-0.01,0.05,0.84,-0.27,-0.87,-1.02,
0.455,-0.01,0.05,0.83,-0.27,-0.87,-1.02,
0.455,-0.01,0.05,0.83,-0.23,-0.88,-1.09,
0.457,0.00,0.05,0.83,-0.23,-0.88,-1.09,
0.46,-0.00,0.05,0.83,-0.23,-0.88,-1.09,
0.46,-0.00,0.05,0.83,-0.17,-0.91,-1.21,
0.462,0.00,0.05,0.82,-0.17,-0.91,-1.21,
0.464,0.00,0.06,0.82,-0.17,-0.91,-1.21,
0.465,0.00,0.06,0.82,-0.07,-0.89,-1.26,
0.467,0.00,0.06,0.82,-0.07,-0.89,-1.26,
0.469,0.01,0.07,0.82,-0.07,-0.89,-1.26,
0.469,0.01,0.07,0.82,-0.05,-0.83,-1.28,
0.472,0.01,0.08,0.83,-0.05,-0.83,-1.28,
0.474,0.02,0.09,0.84,-0.05,-0.83,-1.28,
0.475,0.02,0.09,0.84,-0.01,-0.72,-1.28,
0.477,0.02,0.09,0.84,-0.01,-0.72,-1.28,
0.48,0.03,0.10,0.84,-0.01,-0.72,-1.28,
0.481,0.03,0.10,0.84,0.08,-0.55,-1.16,
0.482,0.03,0.11,0.85,0.08,-0.55,-1.16,
0.484,0.04,0.11,0.85,0.08,-0.55,-1.16,
0.484,0.04,0.11,0.85,0.17,-0.44,-1.12,
0.486,0.05,0.12,0.85,0.17,-0.44,-1.12,
0.489,0.05,0.12,0.85,0.17,-0.44,-1.12,
0.489,0.05,0.12,0.85,0.26,-0.29,-1.01,
0.492,0.06,0.12,0.85,0.26,-0.29,-1.01,
0.493,0.06,0.12,0.85,0.26,-0.29,-1.01,
0.494,0.06,0.12,0.85,0.37,-0.24,-0.97,
0.497,0.07,0.13,0.85,0.37,-0.24,-0.97,
0.499,0.08,0.13,0.85,0.37,-0.24,-0.97,
0.499,0.08,0.13,0.85,0.47,-0.20,-0.92,
0.501,0.08,0.13,0.85,0.47,-0.20,-0.92,
0.504,0.09,0.14,0.84,0.47,-0.20,-0.92,
0.505,0.09,0.14,0.84,0.58,-0.12,-0.96,
0.506,0.09,0.14,0.85,0.58,-0.12,-0.96,
0.509,0.10,0.15,0.84,0.58,-0.12,-0.96,
0.509,0.10,0.15,0.84,0.70,-0.08,-0.99,
0.511,0.10,0.16,0.84,0.70,-0.08,-0.99,
0.513,0.11,0.16,0.84,0.70,-0.08,-0.99,
0.514,0.11,0.16,0.84,0.78,0.01,-0.98,
0.516,0.11,0.16,0.83,0.78,0.01,-0.98,
0.518,0.12,0.17,0.83,0.78,0.01,-0.98,
0.519,0.12,0.17,0.83,0.85,0.14,-1.03,
0.521,0.12,0.17,0.82,0.85,0.14,-1.03,
0.523,0.12,0.17,0.82,0.93,0.20,-1.10,
0.524,0.12,0.17,0.82,0.93,0.20,-1.10,
0.526,0.13,0.18,0.81,0.93,0.20,-1.10,
0.528,0.14,0.18,0.81,0.93,0.20,-1.10,
0.528,0.14,0.18,0.81,1.00,0.23,-1.19,
0.532,0.14,0.17,0.81,1.00,0.23,-1.19,
0.533,0.15,0.17,0.81,1.00,0.23,-1.19,
0.533,0.15,0.17,0.81,1.09,0.31,-1.25,
0.536,0.15,0.16,0.80,1.09,0.31,-1.25,
0.538,0.16,0.16,0.80,1.09,0.31,-1.25,
0.538,0.16,0.16,0.80,1.18,0.28,-1.30,
0.542,0.16,0.16,0.80,1.18,0.28,-1.30,
0.543,0.16,0.16,0.80,1.18,0.28,-1.30,
0.544,0.16,0.16,0.80,1.28,0.19,-1.34,
0.551,0.16,0.16,0.80,1.28,0.19,-1.34,
0.551,0.15,0.15,0.81,1.28,0.19,-1.34,
0.552,0.15,0.15,0.81,1.33,0.18,-1.33,
0.552,0.14,0.15,0.81,1.33,0.18,-1.33,
0.553,0.15,0.15,0.82,1.33,0.18,-1.33,
0.554,0.15,0.15,0.82,1.27,0.13,-1.30,
0.555,0.14,0.15,0.83,1.27,0.13,-1.30,
0.559,0.13,0.14,0.84,1.27,0.13,-1.30,
0.559,0.13,0.14,0.84,1.16,0.09,-1.16,
0.561,0.12,0.14,0.85,1.16,0.09,-1.16,
0.566,0.12,0.14,0.86,1.16,0.09,-1.16,
0.567,0.12,0.14,0.86,1.01,0.09,-0.97,
0.568,0.11,0.14,0.87,1.01,0.09,-0.97,
0.568,0.11,0.14,0.88,1.01,0.09,-0.97,
0.568,0.11,0.14,0.88,0.87,0.07,-0.76,
0.57,0.11,0.13,0.90,0.87,0.07,-0.76,
0.573,0.11,0.13,0.91,0.87,0.07,-0.76,
0.573,0.11,0.13,0.91,0.76,0.04,-0.56,
0.576,0.10,0.13,0.92,0.76,0.04,-0.56,
0.578,0.11,0.13,0.93,0.76,0.04,-0.56,
0.578,0.11,0.13,0.93,0.69,0.02,-0.30,
0.581,0.11,0.13,0.94,0.69,0.02,-0.30,
0.587,0.11,0.13,0.94,0.66,-0.00,-0.11,
0.587,0.12,0.13,0.96,0.66,-0.00,-0.11,
0.587,0.13,0.13,0.97,0.66,-0.00,-0.11,
0.588,0.13,0.13,0.98,0.66,-0.00,-0.11,
0.588,0.13,0.13,0.98,0.74,0.00,0.17,
0.59,0.14,0.13,0.99,0.74,0.00,0.17,
0.593,0.15,0.12,0.99,0.74,0.00,0.17,
0.593,0.15,0.12,0.99,0.86,0.03,0.41,
0.596,0.16,0.12,1.00,0.86,0.03,0.41,
0.598,0.16,0.12,1.00,0.86,0.03,0.41,
0.598,0.16,0.12,1.00,0.99,0.01,0.53,
0.6,0.16,0.11,1.00,0.99,0.01,0.53,
0.603,0.16,0.11,1.00,1.08,-0.00,0.60,
0.603,0.16,0.10,1.00,1.08,-0.00,0.60,
0.606,0.17,0.10,0.99,1.08,-0.00,0.60,
0.608,0.17,0.10,0.98,1.08,-0.00,0.60,
0.609,0.17,0.10,0.98,1.10,-0.14,0.57,
0.611,0.17,0.09,0.98,1.10,-0.14,0.57,
0.615,0.17,0.08,0.97,1.10,-0.14,0.57,
0.615,0.17,0.08,0.97,1.15,-0.19,0.44,
0.615,0.16,0.07,0.96,1.15,-0.19,0.44,
0.618,0.16,0.08,0.94,1.15,-0.19,0.44,
0.619,0.16,0.08,0.94,1.14,-0.29,0.33,
0.62,0.15,0.07,0.93,1.14,-0.29,0.33,
0.623,0.15,0.07,0.93,1.07,-0.39,0.11,
0.623,0.14,0.07,0.92,1.07,-0.39,0.11,
0.626,0.13,0.07,0.92,1.07,-0.39,0.11,
0.628,0.13,0.07,0.92,1.07,-0.39,0.11,
0.628,0.13,0.07,0.92,0.90,-0.42,-0.12,
0.63,0.12,0.07,0.92,0.90,-0.42,-0.12,
0.632,0.11,0.06,0.92,0.90,-0.42,-0.12,
0.633,0.11,0.06,0.92,0.79,-0.42,-0.19,
0.635,0.11,0.06,0.93,0.79,-0.42,-0.19,
0.638,0.10,0.06,0.93,0.79,-0.42,-0.19,
0.638,0.10,0.06,0.93,0.67,-0.42,-0.19,
0.641,0.10,0.06,0.94,0.67,-0.42,-0.19,
0.643,0.09,0.06,0.94,0.67,-0.42,-0.19,
0.643,0.09,0.06,0.94,0.59,-0.43,-0.07,
0.645,0.08,0.06,0.95,0.59,-0.43,-0.07,
0.652,0.07,0.05,0.96,0.59,-0.43,-0.07,
0.653,0.07,0.05,0.96,0.45,-0.43,0.02,
0.653,0.07,0.06,0.96,0.45,-0.43,0.02,
0.653,0.06,0.05,0.97,0.45,-0.43,0.02,
0.656,0.06,0.05,0.97,0.27,-0.42,0.17,
0.657,0.06,0.05,0.97,0.27,-0.42,0.17,
0.658,0.06,0.05,0.98,0.27,-0.42,0.17,
0.658,0.06,0.05,0.98,0.13,-0.39,0.24,
0.66,0.05,0.05,0.98,0.13,-0.39,0.24,
0.663,0.05,0.05,0.98,0.13,-0.39,0.24,
0.663,0.05,0.05,0.98,0.08,-0.39,0.32,
0.665,0.05,0.06,0.99,0.08,-0.39,0.32,
0.667,0.05,0.05,0.99,0.08,-0.39,0.32,
0.668,0.05,0.05,0.99,0.03,-0.36,0.38,
0.671,0.05,0.05,0.99,0.03,-0.36,0.38,
0.672,0.05,0.05,0.99,0.03,-0.34,0.44,
0.672,0.05,0.06,0.99,0.03,-0.34,0.44,
0.675,0.05,0.06,1.00,0.03,-0.34,0.44,
0.677,0.05,0.06,1.00,0.03,-0.34,0.44,
0.677,0.05,0.06,1.00,0.02,-0.28,0.46,
0.68,0.06,0.06,1.00,0.02,-0.28,0.46,
0.682,0.06,0.06,1.01,0.02,-0.28,0.46,
0.683,0.06,0.06,1.01,0.02,-0.21,0.57,
0.685,0.06,0.06,1.00,0.02,-0.21,0.57,
0.687,0.06,0.06,1.00,0.05,-0.15,0.60,
0.687,0.06,0.06,1.01,0.05,-0.15,0.60,
0.69,0.06,0.06,1.01,0.05,-0.15,0.60,
0.692,0.06,0.06,1.00,0.05,-0.15,0.60,
0.692,0.06,0.06,1.00,0.06,-0.13,0.61,
0.695,0.06,0.06,1.00,0.06,-0.13,0.61,
0.699,0.06,0.06,1.00,0.07,-0.10,0.58,
0.699,0.06,0.06,1.00,0.07,-0.10,0.58,
0.7,0.05,0.05,0.99,0.07,-0.10,0.58,
0.702,0.05,0.05,0.99,0.07,-0.10,0.58,
0.702,0.05,0.05,0.99,0.03,-0.10,0.53,
0.705,0.05,0.05,0.99,0.03,-0.10,0.53,
0.707,0.05,0.04,0.98,0.03,-0.10,0.53,
0.708,0.05,0.04,0.98,-0.02,-0.14,0.48,
0.71,0.04,0.04,0.98,-0.02,-0.14,0.48,
0.712,0.04,0.04,0.97,-0.02,-0.14,0.48,
0.712,0.04,0.04,0.97,-0.08,-0.18,0.43,
0.714,0.04,0.04,0.97,-0.08,-0.18,0.43,
0.716,0.03,0.04,0.98,-0.08,-0.18,0.43,
0.717,0.03,0.04,0.98,-0.14,-0.20,0.31,
0.72,0.03,0.04,0.97,-0.14,-0.20,0.31,
0.722,0.03,0.04,0.97,-0.25,-0.15,0.29,
0.723,0.04,0.04,0.98,-0.25,-0.15,0.29,
0.724,0.03,0.04,0.99,-0.25,-0.15,0.29,
0.728,0.04,0.04,1.00,-0.25,-0.15,0.29,
0.728,0.04,0.04,1.00,-0.25,-0.17,0.30,
0.73,0.05,0.03,1.00,-0.25,-0.17,0.30,
0.732,0.05,0.03,1.01,-0.25,-0.17,0.30,
0.733,0.05,0.03,1.01,-0.28,-0.14,0.46,
0.734,0.05,0.03,1.02,-0.28,-0.14,0.46,
0.737,0.05,0.03,1.02,-0.15,-0.17,0.60,
0.737,0.06,0.03,1.02,-0.15,-0.17,0.60,
0.74,0.06,0.03,1.02,-0.15,-0.17,0.60,
0.741,0.06,0.02,1.03,-0.15,-0.17,0.60,
0.741,0.06,0.02,1.03,-0.09,-0.18,0.74,
0.744,0.07,0.01,1.03,-0.09,-0.18,0.74,
0.747,0.07,0.01,1.03,-0.09,-0.18,0.74,
0.747,0.07,0.01,1.03,-0.08,-0.24,0.79,
0.749,0.06,0.01,1.04,-0.08,-0.24,0.79,
0.751,0.06,0.01,1.04,-0.08,-0.24,0.79,
0.751,0.06,0.01,1.04,-0.03,-0.28,0.85,
0.754,0.06,0.01,1.04,-0.03,-0.28,0.85,
0.757,0.06,0.01,1.04,-0.03,-0.28,0.85,
0.757,0.06,0.01,1.04,-0.09,-0.26,0.88,
0.759,0.06,0.01,1.04,-0.09,-0.26,0.88,
0.762,0.07,0.01,1.03,-0.09,-0.26,0.88,
0.762,0.07,0.01,1.03,-0.11,-0.27,0.89,
0.766,0.07,0.00,1.03,-0.11,-0.27,0.89,
0.767,0.06,0.01,1.03,-0.11,-0.27,0.89,
0.767,0.06,0.01,1.03,-0.10,-0.25,0.85,
0.769,0.06,0.01,1.03,-0.10,-0.25,0.85,
0.772,0.06,0.01,1.03,-0.11,-0.24,0.78,
0.772,0.07,0.00,1.03,-0.11,-0.24,0.78,
0.774,0.07,-0.00,1.03,-0.11,-0.24,0.78,
0.776,0.06,-0.00,1.03,-0.11,-0.24,0.78,
0.776,0.06,-0.00,1.03,-0.11,-0.23,0.80,
0.778,0.07,-0.00,1.03,-0.11,-0.23,0.80,
0.786,0.07,-0.01,1.03,-0.11,-0.23,0.80,
0.787,0.07,-0.01,1.03,-0.13,-0.24,0.77,
0.787,0.07,-0.01,1.03,-0.13,-0.24,0.77,
0.787,0.07,-0.00,1.04,-0.13,-0.24,0.77,
0.787,0.07,-0.00,1.04,-0.13,-0.25,0.80,
0.788,0.07,-0.01,1.04,-0.13,-0.25,0.80,
0.791,0.07,-0.01,1.04,-0.13,-0.25,0.80,
0.791,0.07,-0.01,1.04,-0.13,-0.22,0.85,
0.794,0.06,-0.01,1.04,-0.13,-0.22,0.85,
0.795,0.06,-0.01,1.04,-0.16,-0.22,0.90,
0.796,0.06,-0.00,1.04,-0.16,-0.22,0.90,
0.798,0.06,-0.01,1.05,-0.16,-0.22,0.90,
0.801,0.06,-0.01,1.05,-0.16,-0.22,0.90,
0.802,0.06,-0.01,1.05,-0.21,-0.17,0.88,
0.803,0.07,-0.01,1.05,-0.21,-0.17,0.88,
0.805,0.07,-0.01,1.06,-0.21,-0.17,0.88,
0.806,0.07,-0.01,1.06,-0.23,-0.16,1.01,
0.808,0.07,-0.00,1.06,-0.23,-0.16,1.01,
0.81,0.08,-0.00,1.06,-0.23,-0.16,1.01,
0.811,0.08,-0.00,1.06,-0.18,-0.14,1.02,
0.813,0.09,-0.00,1.07,-0.18,-0.14,1.02,
0.816,0.10,0.00,1.07,-0.18,-0.14,1.02,
0.817,0.10,0.00,1.07,-0.13,-0.07,1.07,
0.819,0.11,0.01,1.07,-0.13,-0.07,1.07,
0.821,0.11,0.01,1.07,0.01,-0.01,1.15,
0.821,0.12,0.01,1.08,0.01,-0.01,1.15,
0.823,0.13,0.02,1.08,0.01,-0.01,1.15,
0.825,0.14,0.02,1.08,0.01,-0.01,1.15,
0.825,0.14,0.02,1.08,0.17,0.10,1.19,
0.828,0.14,0.02,1.09,0.17,0.10,1.19,
0.83,0.15,0.03,1.09,0.17,0.10,1.19,
0.83,0.15,0.03,1.09,0.36,0.25,1.26,
0.833,0.17,0.04,1.09,0.36,0.25,1.26,
0.835,0.17,0.04,1.10,0.36,0.25,1.26,
0.835,0.17,0.04,1.10,0.51,0.35,1.40,
0.838,0.19,0.04,1.10,0.51,0.35,1.40,
0.84,0.19,0.03,1.10,0.51,0.35,1.40,
0.841,0.19,0.03,1.10,0.71,0.49,1.42,
0.843,0.19,0.03,1.10,0.71,0.49,1.42,
0.845,0.19,0.03,1.10,0.71,0.49,1.42,
0.845,0.19,0.03,1.10,0.86,0.50,1.46,
0.849,0.19,0.02,1.11,0.86,0.50,1.46,
0.85,0.19,0.02,1.11,0.86,0.50,1.46,
0.851,0.19,0.02,1.11,0.87,0.51,1.48,
0.852,0.18,0.01,1.10,0.87,0.51,1.48,
0.855,0.18,0.01,1.09,0.87,0.51,1.48,
0.855,0.18,0.01,1.09,0.87,0.41,1.51,
0.858,0.17,-0.00,1.09,0.87,0.41,1.51,
0.86,0.17,-0.01,1.08,0.87,0.41,1.51,
0.86,0.17,-0.01,1.08,0.82,0.37,1.40,
0.862,0.16,-0.02,1.08,0.82,0.37,1.40,
0.867,0.15,-0.02,1.07,0.82,0.37,1.40,
0.868,0.15,-0.02,1.07,0.73,0.25,1.25,
0.868,0.14,-0.03,1.06,0.73,0.25,1.25,
0.871,0.13,-0.04,1.05,0.73,0.25,1.25,
0.871,0.13,-0.04,1.05,0.59,0.13,1.13,
0.872,0.12,-0.05,1.04,0.59,0.13,1.13,
0.875,0.10,-0.06,1.04,0.59,0.13,1.13,
0.875,0.10,-0.06,1.04,0.39,0.04,0.94,
0.877,0.10,-0.06,1.03,0.39,0.04,0.94,
0.88,0.09,-0.07,1.03,0.39,0.04,0.94,
0.88,0.09,-0.07,1.03,0.21,-0.07,0.82,
0.886,0.08,-0.07,1.03,0.21,-0.07,0.82,
0.886,0.08,-0.07,1.03,0.21,-0.07,0.82,
0.887,0.08,-0.07,1.03,0.06,-0.12,0.72,
0.887,0.08,-0.07,1.04,0.06,-0.12,0.72,
0.89,0.08,-0.07,1.04,0.06,-0.12,0.72,
0.891,0.08,-0.07,1.04,-0.06,-0.14,0.71,
0.892,0.08,-0.07,1.05,-0.06,-0.14,0.71,
0.895,0.08,-0.07,1.05,-0.09,-0.12,0.82,
0.895,0.08,-0.07,1.07,-0.09,-0.12,0.82,
0.897,0.08,-0.07,1.08,-0.09,-0.12,0.82,
0.9,0.09,-0.07,1.10,-0.09,-0.12,0.82,
0.901,0.09,-0.07,1.10,-0.10,-0.05,1.03,
0.902,0.10,-0.07,1.12,-0.10,-0.05,1.03,
0.905,0.11,-0.07,1.14,-0.10,-0.05,1.03,
0.905,0.11,-0.07,1.14,-0.05,0.04,1.30,
0.907,0.12,-0.07,1.15,-0.05,0.04,1.30,
0.91,0.12,-0.08,1.17,-0.05,0.04,1.30,
0.911,0.12,-0.08,1.17,0.12,0.05,1.68,
0.912,0.13,-0.09,1.19,0.12,0.05,1.68,
0.916,0.13,-0.10,1.20,0.12,0.05,1.68,
0.916,0.13,-0.10,1.20,0.24,-0.00,2.00,
0.917,0.14,-0.10,1.22,0.24,-0.00,2.00,
0.919,0.14,-0.10,1.24,0.24,-0.00,2.00,
0.92,0.14,-0.10,1.24,0.34,-0.09,2.31,
0.922,0.14,-0.11,1.25,0.34,-0.09,2.31,
0.924,0.14,-0.11,1.25,0.34,-0.09,2.31,
0.924,0.14,-0.11,1.25,0.39,-0.16,2.64,
0.927,0.15,-0.11,1.25,0.39,-0.16,2.64,
0.929,0.14,-0.11,1.26,0.39,-0.16,2.64,
0.93,0.14,-0.11,1.26,0.40,-0.20,2.83,
0.933,0.14,-0.11,1.27,0.40,-0.20,2.83,
0.934,0.14,-0.11,1.27,0.40,-0.20,2.83,
0.935,0.14,-0.11,1.27,0.40,-0.18,2.93,
0.937,0.14,-0.11,1.26,0.40,-0.18,2.93,
0.939,0.14,-0.11,1.27,0.40,-0.18,2.93,
0.939,0.14,-0.11,1.27,0.37,-0.13,3.03,
0.941,0.14,-0.10,1.27,0.37,-0.13,3.03,
0.945,0.14,-0.10,1.27,0.32,-0.08,3.00,
0.946,0.14,-0.10,1.27,0.32,-0.08,3.00,
0.947,0.14,-0.09,1.27,0.32,-0.08,3.00,
0.95,0.14,-0.09,1.26,0.32,-0.08,3.00,
0.95,0.14,-0.09,1.26,0.29,-0.00,3.03,
0.951,0.14,-0.09,1.27,0.29,-0.00,3.03,
0.954,0.15,-0.09,1.27,0.29,-0.00,3.03,
0.955,0.15,-0.09,1.27,0.28,0.12,3.00,
0.957,0.15,-0.08,1.27,0.28,0.12,3.00,
0.959,0.15,-0.08,1.27,0.28,0.12,3.00,
0.959,0.15,-0.08,1.27,0.33,0.21,2.99,
0.961,0.16,-0.08,1.26,0.33,0.21,2.99,
0.964,0.16,-0.08,1.26,0.33,0.21,2.99,
0.964,0.16,-0.08,1.26,0.37,0.30,3.03,
0.97,0.16,-0.07,1.26,0.37,0.30,3.03,
0.971,0.16,-0.07,1.27,0.37,0.30,3.03,
0.971,0.16,-0.07,1.27,0.41,0.35,2.95,
0.971,0.16,-0.07,1.27,0.41,0.35,2.95,
0.976,0.15,-0.06,1.26,0.41,0.35,2.95,
0.977,0.15,-0.06,1.26,0.39,0.43,2.97,
0.977,0.16,-0.06,1.26,0.39,0.43,2.97,
0.979,0.16,-0.06,1.26,0.39,0.43,2.97,
0.98,0.16,-0.06,1.26,0.35,0.50,2.97,
0.981,0.16,-0.05,1.26,0.35,0.50,2.97,
0.986,0.16,-0.04,1.26,0.35,0.50,2.97,
0.987,0.16,-0.04,1.26,0.37,0.60,2.95,
0.987,0.17,-0.05,1.26,0.37,0.60,2.95,
0.989,0.17,-0.04,1.27,0.37,0.60,2.95,
0.989,0.17,-0.04,1.27,0.37,0.74,2.93,
0.992,0.17,-0.05,1.26,0.37,0.74,2.93,
0.995,0.17,-0.05,1.26,0.45,0.78,2.94,
0.996,0.18,-0.05,1.26,0.45,0.78,2.94,
0.996,0.18,-0.05,1.27,0.45,0.78,2.94,
0.999,0.19,-0.05,1.27,0.45,0.78,2.94,
1.0,0.19,-0.05,1.27,0.50,0.76,2.93,
1.002,0.19,-0.05,1.27,0.50,0.76,2.93,
1.004,0.20,-0.05,1.27,0.50,0.76,2.93,
1.004,0.20,-0.05,1.27,0.56,0.78,3.00,
1.007,0.20,-0.05,1.28,0.56,0.78,3.00,
1.009,0.20,-0.05,1.28,0.64,0.76,2.97,
1.009,0.20,-0.05,1.28,0.64,0.76,2.97,
1.011,0.20,-0.05,1.29,0.64,0.76,2.97,
1.014,0.20,-0.06,1.30,0.64,0.76,2.97,
1.014,0.20,-0.06,1.30,0.69,0.79,3.09,
1.017,0.20,-0.05,1.30,0.69,0.79,3.09,
1.019,0.20,-0.05,1.31,0.69,0.79,3.09,
1.019,0.20,-0.05,1.31,0.70,0.79,3.19,
1.022,0.20,-0.06,1.32,0.70,0.79,3.19,
1.024,0.20,-0.06,1.31,0.70,0.79,3.19,
1.024,0.20,-0.06,1.31,0.71,0.84,3.28,
1.027,0.20,-0.06,1.32,0.71,0.84,3.28,
1.029,0.20,-0.06,1.32,0.71,0.84,3.28,
1.029,0.20,-0.06,1.32,0.67,0.80,3.40,
1.031,0.19,-0.07,1.34,0.67,0.80,3.40,
1.034,0.19,-0.07,1.34,0.67,0.80,3.40,
1.034,0.19,-0.07,1.34,0.62,0.76,3.48,
1.036,0.18,-0.07,1.34,0.62,0.76,3.48,
1.039,0.18,-0.07,1.34,0.52,0.69,3.60,
1.039,0.18,-0.08,1.34,0.52,0.69,3.60,
1.041,0.17,-0.09,1.34,0.52,0.69,3.60,
1.044,0.17,-0.09,1.33,0.52,0.69,3.60,
1.044,0.17,-0.09,1.33,0.42,0.60,3.60,
1.046,0.16,-0.10,1.33,0.42,0.60,3.60,
1.049,0.16,-0.11,1.32,0.42,0.60,3.60,
1.049,0.16,-0.11,1.32,0.31,0.47,3.57,
1.052,0.14,-0.11,1.30,0.31,0.47,3.57,
1.053,0.13,-0.12,1.29,0.31,0.47,3.57,
1.053,0.13,-0.12,1.29,0.21,0.37,3.42,
1.056,0.14,-0.13,1.28,0.21,0.37,3.42,
1.059,0.13,-0.13,1.28,0.21,0.37,3.42,
1.059,0.13,-0.13,1.28,0.03,0.23,3.18,
1.061,0.12,-0.14,1.26,0.03,0.23,3.18,
1.064,0.11,-0.15,1.25,0.03,0.23,3.18,
1.064,0.11,-0.15,1.25,-0.04,0.09,2.98,
1.066,0.11,-0.15,1.24,-0.04,0.09,2.98,
1.068,0.10,-0.16,1.23,-0.04,0.09,2.98,
1.068,0.10,-0.16,1.23,-0.16,-0.06,2.73,
1.071,0.10,-0.17,1.22,-0.16,-0.06,2.73,
1.074,0.09,-0.17,1.21,-0.16,-0.06,2.73,
1.074,0.09,-0.17,1.21,-0.30,-0.22,2.50,
1.076,0.08,-0.17,1.21,-0.30,-0.22,2.50,
1.078,0.07,-0.17,1.20,-0.30,-0.22,2.50,
1.079,0.07,-0.17,1.20,-0.39,-0.32,2.33,
1.081,0.07,-0.17,1.19,-0.39,-0.32,2.33,
1.084,0.06,-0.18,1.18,-0.39,-0.32,2.33,
1.085,0.06,-0.18,1.18,-0.54,-0.37,2.17,
1.085,0.06,-0.17,1.17,-0.54,-0.37,2.17,
1.088,0.05,-0.17,1.17,-0.54,-0.37,2.17,
1.089,0.05,-0.17,1.17,-0.67,-0.41,2.02,
1.092,0.05,-0.18,1.16,-0.67,-0.41,2.02,
1.093,0.04,-0.17,1.16,-0.67,-0.41,2.02,
1.094,0.04,-0.17,1.16,-0.75,-0.40,1.86,
1.096,0.04,-0.17,1.15,-0.75,-0.40,1.86,
1.098,0.04,-0.18,1.14,-0.75,-0.40,1.86,
1.098,0.04,-0.18,1.14,-0.85,-0.44,1.74,
1.103,0.04,-0.17,1.14,-0.85,-0.44,1.74,
1.104,0.04,-0.17,1.14,-0.85,-0.44,1.74,
1.104,0.04,-0.17,1.14,-0.87,-0.43,1.57,
1.105,0.05,-0.17,1.13,-0.87,-0.43,1.57,
1.107,0.05,-0.17,1.14,-0.87,-0.43,1.57,
1.108,0.05,-0.17,1.14,-0.89,-0.44,1.51,
1.11,0.05,-0.17,1.14,-0.89,-0.44,1.51,
1.112,0.06,-0.17,1.14,-0.89,-0.44,1.51,
1.112,0.06,-0.17,1.14,-0.81,-0.40,1.46,
1.115,0.06,-0.16,1.13,-0.81,-0.40,1.46,
1.118,0.06,-0.16,1.13,-0.73,-0.39,1.48,
1.119,0.06,-0.16,1.14,-0.73,-0.39,1.48,
1.12,0.06,-0.17,1.14,-0.73,-0.39,1.48,
1.122,0.06,-0.17,1.14,-0.73,-0.39,1.48,
1.123,0.06,-0.17,1.14,-0.69,-0.37,1.48,
1.125,0.06,-0.16,1.15,-0.69,-0.37,1.48,
1.127,0.06,-0.16,1.15,-0.69,-0.37,1.48,
1.127,0.06,-0.16,1.15,-0.65,-0.43,1.54,
1.13,0.06,-0.16,1.15,-0.65,-0.43,1.54,
1.134,0.06,-0.16,1.15,-0.65,-0.43,1.54,
1.134,0.06,-0.16,1.15,-0.66,-0.38,1.57,
1.135,0.06,-0.16,1.15,-0.66,-0.38,1.57,
1.137,0.06,-0.15,1.15,-0.66,-0.38,1.57,
1.137,0.06,-0.15,1.15,-0.66,-0.40,1.59,
1.14,0.06,-0.15,1.16,-0.66,-0.40,1.59,
1.142,0.06,-0.15,1.16,-0.66,-0.40,1.59,
1.142,0.06,-0.15,1.16,-0.66,-0.35,1.62,
1.145,0.06,-0.15,1.16,-0.66,-0.35,1.62,
1.147,0.06,-0.15,1.16,-0.66,-0.35,1.62,
1.15,0.06,-0.15,1.16,-0.67,-0.32,1.65,
1.15,0.06,-0.14,1.16,-0.67,-0.32,1.65,
1.153,0.06,-0.14,1.16,-0.67,-0.32,1.65,
1.153,0.06,-0.14,1.16,-0.68,-0.28,1.69,
1.155,0.07,-0.14,1.16,-0.68,-0.28,1.69,
1.157,0.07,-0.14,1.16,-0.68,-0.28,1.69,
1.157,0.07,-0.14,1.16,-0.71,-0.24,1.70,
1.159,0.07,-0.14,1.15,-0.71,-0.24,1.70,
1.162,0.07,-0.14,1.15,-0.71,-0.24,1.70,
1.163,0.07,-0.14,1.15,-0.65,-0.26,1.69,
1.164,0.08,-0.15,1.16,-0.65,-0.26,1.69,
1.168,0.08,-0.15,1.15,-0.65,-0.26,1.69,
1.168,0.08,-0.15,1.15,-0.59,-0.27,1.59,
1.169,0.08,-0.15,1.15,-0.59,-0.27,1.59,
1.172,0.08,-0.16,1.14,-0.59,-0.27,1.59,
1.172,0.08,-0.16,1.14,-0.49,-0.41,1.57,
1.174,0.08,-0.15,1.12,-0.49,-0.41,1.57,
1.177,0.08,-0.15,1.12,-0.47,-0.46,1.48,
1.177,0.08,-0.15,1.12,-0.47,-0.46,1.48,
1.179,0.08,-0.16,1.12,-0.47,-0.46,1.48,
1.181,0.08,-0.16,1.11,-0.47,-0.46,1.48,
1.182,0.08,-0.16,1.11,-0.48,-0.47,1.25,
1.187,0.08,-0.15,1.09,-0.48,-0.47,1.25,
1.188,0.08,-0.15,1.08,-0.48,-0.47,1.25,
1.188,0.08,-0.15,1.08,-0.51,-0.52,1.15,
1.189,0.08,-0.15,1.08,-0.51,-0.52,1.15,
1.192,0.08,-0.15,1.08,-0.50,-0.47,0.89,
1.192,0.08,-0.14,1.07,-0.50,-0.47,0.89,
1.194,0.09,-0.14,1.06,-0.50,-0.47,0.89,
1.197,0.09,-0.13,1.06,-0.50,-0.47,0.89,
1.198,0.09,-0.13,1.06,-0.49,-0.44,0.77,
1.199,0.09,-0.13,1.05,-0.49,-0.44,0.77,
1.202,0.10,-0.12,1.05,-0.49,-0.44,0.77,
1.203,0.10,-0.12,1.05,-0.43,-0.38,0.64,
1.204,0.11,-0.12,1.05,-0.43,-0.38,0.64,
1.206,0.11,-0.11,1.05,-0.43,-0.38,0.64,
1.207,0.11,-0.11,1.05,-0.34,-0.28,0.56,
1.209,0.12,-0.11,1.06,-0.34,-0.28,0.56,
1.211,0.13,-0.11,1.06,-0.34,-0.28,0.56,
1.212,0.13,-0.11,1.06,-0.20,-0.20,0.56,
1.214,0.13,-0.10,1.06,-0.20,-0.20,0.56,
1.216,0.13,-0.10,1.06,-0.03,-0.14,0.60,
1.217,0.13,-0.09,1.06,-0.03,-0.14,0.60,
1.219,0.14,-0.09,1.07,-0.03,-0.14,0.60,
1.222,0.14,-0.08,1.07,-0.03,-0.14,0.60,
1.222,0.14,-0.08,1.07,0.03,-0.04,0.62,
1.224,0.14,-0.07,1.07,0.03,-0.04,0.62,
1.226,0.14,-0.07,1.07,0.03,-0.04,0.62,
1.226,0.14,-0.07,1.07,0.08,0.05,0.72,
1.23,0.14,-0.06,1.06,0.08,0.05,0.72,
1.231,0.14,-0.06,1.06,0.08,0.05,0.72,
1.231,0.14,-0.06,1.06,0.12,0.18,0.69,
1.234,0.14,-0.06,1.06,0.12,0.18,0.69,
1.236,0.14,-0.05,1.06,0.12,0.18,0.69,
1.236,0.14,-0.05,1.06,0.16,0.29,0.61,
1.239,0.14,-0.05,1.06,0.16,0.29,0.61,
1.241,0.14,-0.05,1.06,0.17,0.34,0.59,
1.241,0.14,-0.04,1.05,0.17,0.34,0.59,
1.243,0.14,-0.04,1.05,0.17,0.34,0.59,
1.246,0.13,-0.04,1.05,0.17,0.34,0.59,
1.247,0.13,-0.04,1.05,0.15,0.39,0.54,
1.248,0.13,-0.05,1.05,0.15,0.39,0.54,
1.252,0.12,-0.04,1.05,0.15,0.39,0.54,
1.252,0.12,-0.04,1.05,0.11,0.39,0.49,
1.253,0.12,-0.05,1.04,0.11,0.39,0.49,
1.256,0.11,-0.05,1.05,0.11,0.39,0.49,
1.256,0.11,-0.05,1.05,0.05,0.34,0.45,
1.259,0.11,-0.06,1.04,0.05,0.34,0.45,
1.261,0.10,-0.06,1.03,0.05,0.34,0.45,
1.261,0.10,-0.06,1.03,-0.05,0.27,0.45,
1.263,0.10,-0.07,1.03,-0.05,0.27,0.45,
1.266,0.09,-0.07,1.03,-0.05,0.27,0.45,
1.266,0.09,-0.07,1.03,-0.13,0.18,0.35,
1.268,0.09,-0.08,1.04,-0.13,0.18,0.35,
1.271,0.08,-0.08,1.03,-0.13,0.18,0.35,
1.271,0.08,-0.08,1.03,-0.21,0.03,0.29,
1.274,0.08,-0.08,1.03,-0.21,0.03,0.29,
1.276,0.08,-0.08,1.03,-0.21,0.03,0.29,
1.276,0.08,-0.08,1.03,-0.36,-0.05,0.33,
1.278,0.07,-0.08,1.03,-0.36,-0.05,0.33,
1.282,0.07,-0.07,1.03,-0.36,-0.05,0.33,
1.282,0.07,-0.07,1.03,-0.41,-0.07,0.31,
1.285,0.07,-0.07,1.03,-0.41,-0.07,0.31,
1.286,0.07,-0.07,1.02,-0.41,-0.07,0.31,
1.286,0.07,-0.07,1.02,-0.45,-0.05,0.32,
1.289,0.07,-0.06,1.02,-0.45,-0.05,0.32,
1.291,0.08,-0.06,1.02,-0.45,-0.05,0.32,
1.291,0.08,-0.06,1.02,-0.43,-0.04,0.23,
1.293,0.07,-0.06,1.01,-0.43,-0.04,0.23,
1.297,0.08,-0.05,1.01,-0.43,-0.04,0.23,
1.298,0.08,-0.05,1.01,-0.42,0.03,0.19,
1.299,0.08,-0.05,1.01,-0.42,0.03,0.19,
1.3,0.08,-0.04,1.00,-0.42,0.03,0.19,
1.303,0.08,-0.04,1.00,-0.39,0.06,0.08,
1.304,0.08,-0.04,0.99,-0.39,0.06,0.08,
1.305,0.09,-0.04,0.99,-0.39,0.06,0.08,
1.306,0.09,-0.04,0.99,-0.35,0.11,-0.01,
1.309,0.08,-0.03,0.99,-0.35,0.11,-0.01,
1.311,0.08,-0.03,0.99,-0.35,0.11,-0.01,
1.311,0.08,-0.03,0.99,-0.30,0.17,-0.09,
1.314,0.08,-0.02,1.00,-0.30,0.17,-0.09,
1.316,0.08,-0.01,1.01,-0.30,0.17,-0.09,
1.316,0.08,-0.01,1.01,-0.30,0.26,-0.11,
1.323,0.08,-0.01,1.01,-0.30,0.26,-0.11,
1.325,0.08,-0.01,1.02,-0.30,0.26,-0.11,
1.326,0.08,-0.01,1.02,-0.31,0.34,-0.00,
1.326,0.07,-0.00,1.02,-0.31,0.34,-0.00,
1.326,0.07,-0.00,1.04,-0.31,0.34,-0.00,
1.327,0.07,-0.00,1.04,-0.36,0.42,0.10,
1.328,0.07,0.00,1.05,-0.36,0.42,0.10,
1.331,0.07,0.00,1.06,-0.36,0.42,0.10,
1.331,0.07,0.00,1.06,-0.41,0.45,0.25,
1.333,0.06,-0.00,1.07,-0.41,0.45,0.25,
1.338,0.06,0.00,1.08,-0.41,0.45,0.25,
1.339,0.06,0.00,1.08,-0.47,0.50,0.47,
1.339,0.06,-0.00,1.09,-0.47,0.50,0.47,
1.341,0.06,-0.01,1.10,-0.47,0.50,0.47,
1.341,0.06,-0.01,1.10,-0.52,0.46,0.71,
1.343,0.06,-0.02,1.12,-0.52,0.46,0.71,
1.346,0.06,-0.02,1.13,-0.52,0.46,0.71,
1.346,0.06,-0.02,1.13,-0.55,0.38,0.92,
1.348,0.06,-0.03,1.15,-0.55,0.38,0.92,
1.351,0.06,-0.04,1.16,-0.55,0.38,0.92,
1.351,0.06,-0.04,1.16,-0.54,0.24,1.20,
1.353,0.05,-0.04,1.17,-0.54,0.24,1.20,
1.355,0.05,-0.04,1.16,-0.54,0.24,1.20,
1.355,0.05,-0.04,1.16,-0.54,0.09,1.44,
1.358,0.05,-0.06,1.17,-0.54,0.09,1.44,
1.36,0.04,-0.06,1.16,-0.54,0.09,1.44,
1.361,0.04,-0.06,1.16,-0.61,-0.02,1.57,
1.363,0.03,-0.07,1.16,-0.61,-0.02,1.57,
1.365,0.02,-0.07,1.15,-0.61,-0.02,1.57,
1.366,0.02,-0.07,1.15,-0.71,-0.21,1.57,
1.368,0.01,-0.07,1.13,-0.71,-0.21,1.57,
1.371,0.01,-0.08,1.13,-0.71,-0.21,1.57,
1.371,0.01,-0.08,1.13,-0.85,-0.34,1.43,
1.373,0.01,-0.08,1.12,-0.85,-0.34,1.43,
1.376,0.00,-0.09,1.09,-0.85,-0.34,1.43,
1.376,0.00,-0.09,1.09,-0.95,-0.44,1.21,
1.378,-0.01,-0.09,1.08,-0.95,-0.44,1.21,
1.38,-0.01,-0.09,1.06,-0.95,-0.44,1.21,
1.382,-0.01,-0.09,1.06,-1.02,-0.55,0.95,
1.382,-0.01,-0.09,1.04,-1.02,-0.55,0.95,
1.386,-0.01,-0.09,1.03,-1.02,-0.55,0.95,
1.386,-0.01,-0.09,1.03,-1.11,-0.66,0.60,
1.387,-0.02,-0.09,1.02,-1.11,-0.66,0.60,
1.39,-0.02,-0.09,1.00,-1.11,-0.66,0.60,
1.39,-0.02,-0.09,1.00,-1.12,-0.64,0.29,
1.393,-0.02,-0.08,0.98,-1.12,-0.64,0.29,
1.395,-0.02,-0.07,0.96,-1.12,-0.64,0.29,
1.395,-0.02,-0.07,0.96,-1.16,-0.69,-0.01,
1.397,-0.03,-0.07,0.95,-1.16,-0.69,-0.01,
1.4,-0.03,-0.06,0.94,-1.16,-0.69,-0.01,
1.4,-0.03,-0.06,0.94,-1.18,-0.61,-0.37,
1.403,-0.03,-0.06,0.92,-1.18,-0.61,-0.37,
1.405,-0.03,-0.05,0.91,-1.18,-0.61,-0.37,
1.405,-0.03,-0.05,0.91,-1.24,-0.52,-0.64,
1.408,-0.04,-0.04,0.89,-1.24,-0.52,-0.64,
1.41,-0.03,-0.03,0.89,-1.24,-0.52,-0.64,
1.41,-0.03,-0.03,0.89,-1.24,-0.44,-0.94,
1.413,-0.03,-0.03,0.88,-1.24,-0.44,-0.94,
1.415,-0.03,-0.03,0.88,-1.23,-0.29,-1.15,
1.415,-0.02,-0.02,0.87,-1.23,-0.29,-1.15,
1.418,-0.02,-0.01,0.87,-1.23,-0.29,-1.15,
1.423,-0.02,-0.01,0.86,-1.23,-0.29,-1.15,
1.424,-0.02,-0.01,0.86,-1.13,-0.21,-1.29,
1.424,-0.02,0.00,0.86,-1.13,-0.21,-1.29,
1.424,-0.01,0.01,0.86,-1.13,-0.21,-1.29,
1.425,-0.01,0.01,0.86,-1.07,-0.11,-1.41,
1.427,-0.00,0.02,0.87,-1.07,-0.11,-1.41,
1.429,-0.00,0.02,0.87,-1.07,-0.11,-1.41,
1.43,-0.00,0.02,0.87,-1.01,0.02,-1.44,
1.432,0.01,0.02,0.88,-1.01,0.02,-1.44,
1.437,0.01,0.03,0.89,-1.01,0.02,-1.44,
1.437,0.01,0.03,0.89,-0.91,0.15,-1.35,
1.437,0.01,0.03,0.89,-0.91,0.15,-1.35,
1.439,0.02,0.02,0.90,-0.91,0.15,-1.35,
1.44,0.02,0.02,0.90,-0.81,0.18,-1.24,
1.442,0.02,0.02,0.90,-0.81,0.18,-1.24,
1.444,0.02,0.02,0.91,-0.81,0.18,-1.24,
1.445,0.02,0.02,0.91,-0.72,0.17,-1.06,
1.447,0.02,0.01,0.91,-0.72,0.17,-1.06,
1.45,0.02,0.01,0.91,-0.72,0.17,-1.06,
1.45,0.02,0.01,0.91,-0.68,0.09,-1.00,
1.454,0.02,0.00,0.91,-0.68,0.09,-1.00,
1.455,0.02,-0.00,0.91,-0.68,0.09,-1.00,
1.456,0.02,-0.00,0.91,-0.64,-0.03,-0.92,
1.456,0.02,-0.01,0.90,-0.64,-0.03,-0.92,
1.46,0.01,-0.01,0.90,-0.64,-0.03,-0.92,
1.46,0.01,-0.01,0.90,-0.62,-0.13,-0.97,
1.461,0.02,-0.01,0.89,-0.62,-0.13,-0.97,
1.464,0.01,-0.02,0.88,-0.62,-0.13,-0.97,
1.465,0.01,-0.02,0.88,-0.65,-0.25,-1.04,
1.466,0.01,-0.03,0.87,-0.65,-0.25,-1.04,
1.47,0.00,-0.02,0.86,-0.65,-0.25,-1.04,
1.47,0.00,-0.02,0.86,-0.66,-0.35,-1.21,
1.473,-0.01,-0.03,0.85,-0.66,-0.35,-1.21,
1.475,-0.01,-0.03,0.84,-0.66,-0.35,-1.21,
1.475,-0.01,-0.03,0.84,-0.74,-0.43,-1.38,
1.476,-0.02,-0.02,0.84,-0.74,-0.43,-1.38,
1.48,-0.03,-0.03,0.84,-0.74,-0.43,-1.38,
1.48,-0.03,-0.03,0.84,-0.85,-0.45,-1.54,
1.481,-0.03,-0.03,0.83,-0.85,-0.45,-1.54,
1.487,-0.04,-0.02,0.82,-0.85,-0.45,-1.54,
1.488,-0.04,-0.02,0.82,-0.99,-0.46,-1.64,
1.488,-0.05,-0.03,0.82,-0.99,-0.46,-1.64,
1.489,-0.05,-0.03,0.82,-1.12,-0.49,-1.76,
1.489,-0.05,-0.03,0.81,-1.12,-0.49,-1.76,
1.491,-0.05,-0.03,0.80,-1.12,-0.49,-1.76,
1.495,-0.06,-0.03,0.80,-1.12,-0.49,-1.76,
1.495,-0.06,-0.03,0.80,-1.21,-0.54,-1.89,
1.496,-0.06,-0.03,0.79,-1.21,-0.54,-1.89,
1.498,-0.06,-0.03,0.79,-1.21,-0.54,-1.89,
1.499,-0.06,-0.03,0.79,-1.30,-0.59,-2.01,
1.503,-0.05,-0.03,0.78,-1.30,-0.59,-2.01,
1.503,-0.05,-0.02,0.78,-1.30,-0.59,-2.01,
1.504,-0.05,-0.02,0.78,-1.32,-0.61,-2.11,
1.506,-0.05,-0.02,0.78,-1.32,-0.61,-2.11,
1.508,-0.04,-0.01,0.78,-1.32,-0.61,-2.11,
1.509,-0.04,-0.01,0.78,-1.24,-0.57,-2.17,
1.511,-0.04,-0.01,0.78,-1.24,-0.57,-2.17,
1.513,-0.03,-0.00,0.78,-1.24,-0.57,-2.17,
1.514,-0.03,-0.00,0.78,-1.19,-0.48,-2.20,
1.516,-0.04,0.00,0.79,-1.19,-0.48,-2.20,
1.519,-0.04,0.01,0.79,-1.19,-0.48,-2.20,
1.52,-0.04,0.01,0.79,-1.12,-0.42,-2.14,
1.521,-0.04,0.01,0.79,-1.12,-0.42,-2.14,
1.524,-0.04,0.01,0.80,-1.12,-0.42,-2.14,
1.524,-0.04,0.01,0.80,-1.18,-0.33,-2.08,
1.526,-0.04,0.01,0.81,-1.18,-0.33,-2.08,
1.528,-0.04,0.01,0.81,-1.17,-0.34,-1.96,
1.529,-0.04,0.00,0.81,-1.17,-0.34,-1.96,
1.532,-0.04,-0.00,0.81,-1.17,-0.34,-1.96,
1.533,-0.04,-0.01,0.82,-1.17,-0.34,-1.96,
1.534,-0.04,-0.01,0.82,-1.22,-0.39,-1.85,
1.54,-0.04,-0.01,0.83,-1.22,-0.39,-1.85,
1.541,-0.04,-0.02,0.83,-1.22,-0.39,-1.85,
1.541,-0.04,-0.02,0.83,-1.26,-0.54,-1.75,
1.541,-0.04,-0.02,0.83,-1.26,-0.54,-1.75,
1.543,-0.03,-0.02,0.83,-1.26,-0.54,-1.75,
1.543,-0.03,-0.02,0.83,-1.26,-0.64,-1.66,
1.545,-0.03,-0.02,0.83,-1.26,-0.64,-1.66,
1.548,-0.03,-0.02,0.84,-1.26,-0.64,-1.66,
1.548,-0.03,-0.02,0.84,-1.20,-0.70,-1.62,
1.551,-0.02,-0.02,0.84,-1.20,-0.70,-1.62,
1.554,-0.02,-0.02,0.84,-1.20,-0.70,-1.62,
1.555,-0.02,-0.02,0.84,-1.15,-0.77,-1.56,
1.555,-0.02,-0.02,0.84,-1.15,-0.77,-1.56,
1.558,-0.02,-0.01,0.84,-1.15,-0.77,-1.56,
1.558,-0.02,-0.01,0.84,-1.11,-0.78,-1.52,
1.56,-0.01,-0.01,0.83,-1.11,-0.78,-1.52,
1.563,-0.01,-0.01,0.83,-1.09,-0.77,-1.54,
1.563,-0.01,-0.01,0.84,-1.09,-0.77,-1.54,
1.565,-0.01,-0.01,0.83,-1.09,-0.77,-1.54,
1.57,-0.01,-0.01,0.83,-1.05,-0.71,-1.54,
1.57,-0.02,-0.01,0.83,-1.05,-0.71,-1.54,
1.57,-0.01,-0.00,0.83,-1.05,-0.71,-1.54,
1.574,-0.01,-0.01,0.82,-1.05,-0.71,-1.54,
1.574,-0.01,-0.01,0.82,-1.07,-0.74,-1.61,
1.575,-0.01,-0.01,0.82,-1.07,-0.74,-1.61,
1.578,-0.01,-0.01,0.81,-1.07,-0.74,-1.61,
1.578,-0.01,-0.01,0.81,-1.04,-0.73,-1.68,
1.58,-0.01,-0.01,0.80,-1.04,-0.73,-1.68,
1.583,-0.01,-0.02,0.80,-1.04,-0.73,-1.68,
1.584,-0.01,-0.02,0.80,-1.07,-0.79,-1.77,
1.586,-0.01,-0.02,0.79,-1.07,-0.79,-1.77,
1.589,-0.01,-0.02,0.78,-1.07,-0.79,-1.77,
1.589,-0.01,-0.02,0.78,-1.05,-0.85,-1.90,
1.59,-0.02,-0.02,0.78,-1.05,-0.85,-1.90,
1.592,-0.01,-0.02,0.77,-1.05,-0.85,-1.90,
1.593,-0.01,-0.02,0.77,-1.05,-0.91,-1.99,
1.595,-0.01,-0.02,0.77,-1.05,-0.91,-1.99,
1.597,-0.01,-0.02,0.77,-1.05,-0.91,-1.99,
1.598,-0.01,-0.02,0.77,-1.08,-0.93,-2.10,
1.6,-0.01,-0.02,0.76,-1.08,-0.93,-2.10,
1.603,-0.01,-0.02,0.77,-1.08,-0.93,-2.10,
1.604,-0.01,-0.02,0.77,-1.06,-0.97,-2.14,
1.605,-0.01,-0.02,0.77,-1.06,-0.97,-2.14,
1.607,-0.02,-0.01,0.76,-1.06,-0.97,-2.14,
1.608,-0.02,-0.01,0.76,-1.06,-0.96,-2.21,
1.61,-0.02,-0.01,0.77,-1.06,-0.96,-2.21,
1.612,-0.02,-0.00,0.78,-1.06,-0.96,-2.21,
1.613,-0.02,-0.00,0.78,-1.08,-0.89,-2.18,
1.615,-0.02,-0.00,0.79,-1.08,-0.89,-2.18,
1.617,-0.02,0.00,0.79,-1.08,-0.89,-2.18,
1.617,-0.02,0.00,0.79,-1.09,-0.81,-2.09,
1.62,-0.01,0.01,0.80,-1.09,-0.81,-2.09,
1.622,-0.01,0.01,0.82,-1.09,-0.81,-2.09,
1.622,-0.01,0.01,0.82,-1.13,-0.74,-1.95,
1.625,-0.00,0.02,0.82,-1.13,-0.74,-1.95,
1.627,-0.00,0.02,0.83,-1.13,-0.74,-1.95,
1.628,-0.00,0.02,0.83,-1.05,-0.62,-1.75,
1.63,0.00,0.03,0.84,-1.05,-0.62,-1.75,
1.633,0.01,0.02,0.85,-1.05,-0.62,-1.75,
1.633,0.01,0.02,0.85,-0.99,-0.55,-1.56,
1.635,0.01,0.03,0.86,-0.99,-0.55,-1.56,
1.641,0.01,0.03,0.86,-0.92,-0.50,-1.38,
1.641,0.01,0.03,0.87,-0.92,-0.50,-1.38,
1.642,0.01,0.03,0.87,-0.92,-0.50,-1.38,
1.642,0.01,0.04,0.88,-0.92,-0.50,-1.38,
1.645,0.01,0.04,0.88,-0.90,-0.46,-1.20,
1.645,0.01,0.04,0.89,-0.90,-0.46,-1.20,
1.647,0.02,0.04,0.90,-0.90,-0.46,-1.20,
1.647,0.02,0.04,0.90,-0.91,-0.41,-1.03,
1.65,0.02,0.04,0.91,-0.91,-0.41,-1.03,
1.654,0.02,0.05,0.92,-0.91,-0.41,-1.03,
1.655,0.02,0.05,0.92,-0.90,-0.35,-0.90,
1.655,0.02,0.05,0.92,-0.90,-0.35,-0.90,
1.657,0.02,0.05,0.93,-0.90,-0.35,-0.90,
1.658,0.02,0.05,0.93,-0.87,-0.28,-0.70,
1.66,0.02,0.06,0.94,-0.87,-0.28,-0.70,
1.663,0.03,0.06,0.95,-0.87,-0.28,-0.70,
1.663,0.03,0.06,0.95,-0.84,-0.21,-0.55,
1.665,0.04,0.06,0.96,-0.84,-0.21,-0.55,
1.668,0.03,0.06,0.96,-0.84,-0.21,-0.55,
1.668,0.03,0.06,0.96,-0.79,-0.18,-0.38,
1.672,0.04,0.06,0.97,-0.79,-0.18,-0.38,
1.673,0.04,0.05,0.98,-0.79,-0.18,-0.38,
1.673,0.04,0.05,0.98,-0.73,-0.14,-0.22,
1.674,0.05,0.05,0.98,-0.73,-0.14,-0.22,
1.677,0.05,0.05,0.98,-0.73,-0.14,-0.22,
1.677,0.05,0.05,0.98,-0.69,-0.21,-0.09,
1.679,0.05,0.04,0.99,-0.69,-0.21,-0.09,
1.682,0.06,0.04,0.99,-0.69,-0.21,-0.09,
1.683,0.06,0.04,0.99,-0.60,-0.24,-0.02,
1.684,0.06,0.04,0.99,-0.60,-0.24,-0.02,
1.687,0.06,0.03,1.00,-0.60,-0.24,-0.02,
1.689,0.06,0.03,1.00,-0.57,-0.34,0.09,
1.689,0.06,0.03,1.00,-0.57,-0.34,0.09,
1.692,0.06,0.03,1.00,-0.57,-0.34,0.09,
1.692,0.06,0.03,1.00,-0.54,-0.39,0.16,
1.695,0.06,0.03,1.01,-0.54,-0.39,0.16,
1.697,0.06,0.02,1.01,-0.54,-0.39,0.16,
1.697,0.06,0.02,1.01,-0.52,-0.46,0.22,
1.7,0.06,0.03,1.01,-0.52,-0.46,0.22,
1.702,0.06,0.03,1.02,-0.52,-0.46,0.22,
1.702,0.06,0.03,1.02,-0.55,-0.48,0.28,
1.704,0.05,0.03,1.02,-0.55,-0.48,0.28,
1.707,0.05,0.03,1.02,-0.55,-0.48,0.28,
1.707,0.05,0.03,1.02,-0.57,-0.45,0.31,
1.71,0.05,0.04,1.02,-0.57,-0.45,0.31,
1.712,0.05,0.04,1.02,-0.57,-0.45,0.31,
1.712,0.05,0.04,1.02,-0.62,-0.43,0.35,
1.715,0.05,0.04,1.02,-0.62,-0.43,0.35,
1.717,0.05,0.05,1.02,-0.62,-0.43,0.35,
1.717,0.05,0.05,1.02,-0.65,-0.35,0.37,
1.721,0.05,0.05,1.02,-0.65,-0.35,0.37,
1.722,0.06,0.05,1.02,-0.65,-0.35,0.37,
1.722,0.06,0.05,1.02,-0.60,-0.28,0.37,
1.724,0.06,0.05,1.02,-0.60,-0.28,0.37,
1.727,0.06,0.05,1.02,-0.57,-0.24,0.37,
1.727,0.06,0.05,1.02,-0.57,-0.24,0.37,
1.729,0.07,0.06,1.01,-0.57,-0.24,0.37,
1.732,0.07,0.06,1.02,-0.57,-0.24,0.37,
1.732,0.07,0.06,1.02,-0.53,-0.26,0.37,
1.735,0.08,0.06,1.01,-0.53,-0.26,0.37,
1.736,0.08,0.07,1.02,-0.53,-0.26,0.37,
1.737,0.08,0.07,1.02,-0.44,-0.18,0.31,
1.739,0.09,0.07,1.02,-0.44,-0.18,0.31,
1.741,0.10,0.07,1.02,-0.44,-0.18,0.31,
1.741,0.10,0.07,1.02,-0.36,-0.13,0.32,
1.744,0.10,0.07,1.02,-0.36,-0.13,0.32,
1.747,0.11,0.07,1.02,-0.36,-0.13,0.32,
1.747,0.11,0.07,1.02,-0.22,-0.09,0.38,
1.75,0.11,0.08,1.02,-0.22,-0.09,0.38,
1.752,0.12,0.08,1.01,-0.22,-0.09,0.38,
1.752,0.12,0.08,1.01,-0.08,-0.04,0.34,
1.757,0.12,0.08,1.01,-0.08,-0.04,0.34,
1.758,0.13,0.08,1.00,-0.08,-0.04,0.34,
1.758,0.13,0.08,1.00,0.03,-0.02,0.31,
1.758,0.13,0.08,1.00,0.03,-0.02,0.31,
1.761,0.13,0.08,1.00,0.11,0.01,0.23,
1.762,0.13,0.08,1.00,0.11,0.01,0.23,
1.763,0.13,0.08,0.99,0.11,0.01,0.23,
1.767,0.13,0.08,0.98,0.11,0.01,0.23,
1.767,0.13,0.08,0.98,0.13,-0.01,0.15,
1.769,0.13,0.08,0.97,0.13,-0.01,0.15,
1.771,0.13,0.08,0.96,0.13,-0.01,0.15,
1.772,0.13,0.08,0.96,0.19,-0.00,-0.01,
1.774,0.13,0.09,0.95,0.19,-0.00,-0.01,
1.776,0.13,0.08,0.95,0.19,-0.00,-0.01,
1.776,0.13,0.08,0.95,0.19,-0.01,-0.16,
1.779,0.13,0.08,0.93,0.19,-0.01,-0.16,
1.781,0.12,0.08,0.92,0.19,-0.01,-0.16,
1.782,0.12,0.08,0.92,0.19,0.02,-0.33,
1.784,0.12,0.09,0.92,0.19,0.02,-0.33,
1.786,0.12,0.09,0.91,0.19,0.02,-0.33,
1.787,0.12,0.09,0.91,0.15,0.00,-0.55,
1.789,0.12,0.09,0.91,0.15,0.00,-0.55,
1.791,0.12,0.09,0.91,0.15,0.00,-0.55,
1.791,0.12,0.09,0.91,0.13,0.08,-0.66,
1.794,0.12,0.10,0.91,0.13,0.08,-0.66,
1.796,0.12,0.11,0.92,0.13,0.08,-0.66,
1.796,0.12,0.11,0.92,0.09,0.09,-0.74,
1.799,0.12,0.10,0.92,0.09,0.09,-0.74,
1.801,0.12,0.11,0.93,0.09,0.09,-0.74,
1.802,0.12,0.11,0.93,0.08,0.20,-0.65,
1.805,0.12,0.12,0.94,0.08,0.20,-0.65,
1.806,0.12,0.12,0.95,0.08,0.20,-0.65,
1.806,0.12,0.12,0.95,0.05,0.24,-0.55,
1.809,0.12,0.12,0.95,0.05,0.24,-0.55,
1.811,0.12,0.11,0.97,0.05,0.24,-0.55,
1.812,0.12,0.11,0.97,0.11,0.31,-0.39,
1.814,0.12,0.11,0.97,0.11,0.31,-0.39,
1.816,0.12,0.11,0.98,0.11,0.31,-0.39,
1.816,0.12,0.11,0.98,0.11,0.31,-0.19,
1.819,0.12,0.10,0.99,0.11,0.31,-0.19,
1.822,0.13,0.10,0.99,0.11,0.31,-0.19,
1.822,0.13,0.10,0.99,0.10,0.26,-0.06,
1.823,0.14,0.10,0.99,0.10,0.26,-0.06,
1.826,0.17,0.10,1.01,0.10,0.26,-0.06,
1.826,0.17,0.10,1.01,0.13,0.15,0.05,
1.828,0.19,0.11,1.02,0.13,0.15,0.05,
1.83,0.20,0.11,1.04,0.13,0.15,0.05,
1.83,0.20,0.11,1.04,0.41,0.20,0.20,
1.833,0.19,0.11,1.04,0.41,0.20,0.20,
1.835,0.17,0.12,1.03,0.41,0.20,0.20,
1.835,0.17,0.12,1.03,0.79,0.22,0.45,
1.839,0.15,0.12,1.03,0.79,0.22,0.45,
1.84,0.14,0.12,1.03,0.79,0.22,0.45,
1.84,0.14,0.12,1.03,0.67,0.28,0.49,
1.843,0.13,0.12,1.02,0.67,0.28,0.49,
1.845,0.14,0.13,1.02,0.67,0.28,0.49,
1.845,0.14,0.13,1.02,0.32,0.31,0.43,
1.848,0.15,0.12,1.03,0.32,0.31,0.43,
1.85,0.17,0.13,1.02,0.32,0.31,0.43,
1.85,0.17,0.13,1.02,0.29,0.34,0.39,
1.852,0.18,0.14,1.02,0.29,0.34,0.39,
1.86,0.18,0.14,1.02,0.29,0.34,0.39,
1.86,0.18,0.14,1.02,0.50,0.38,0.44,
1.86,0.18,0.13,1.01,0.50,0.38,0.44,
1.861,0.17,0.13,1.00,0.50,0.38,0.44,
1.861,0.17,0.13,1.00,0.71,0.43,0.37,
1.862,0.15,0.13,0.99,0.71,0.43,0.37,
1.865,0.14,0.13,0.97,0.71,0.43,0.37,
1.865,0.14,0.13,0.97,0.65,0.37,0.24,
1.867,0.13,0.13,0.97,0.65,0.37,0.24,
1.871,0.12,0.12,0.96,0.65,0.37,0.24,
1.872,0.12,0.12,0.96,0.34,0.32,-0.04,
1.872,0.12,0.12,0.96,0.34,0.32,-0.04,
1.875,0.11,0.11,0.95,0.34,0.32,-0.04,
1.875,0.11,0.11,0.95,0.17,0.25,-0.17,
1.877,0.11,0.10,0.94,0.17,0.25,-0.17,
1.88,0.10,0.10,0.93,0.17,0.25,-0.17,
1.88,0.10,0.10,0.93,0.04,0.12,-0.27,
1.882,0.09,0.10,0.92,0.04,0.12,-0.27,
1.885,0.08,0.10,0.92,0.04,0.12,-0.27,
1.886,0.08,0.10,0.92,-0.04,-0.01,-0.44,
1.888,0.08,0.10,0.92,-0.04,-0.01,-0.44,
1.89,0.08,0.10,0.90,-0.04,-0.01,-0.44,
1.891,0.08,0.10,0.90,-0.18,-0.07,-0.57,
1.892,0.07,0.11,0.90,-0.18,-0.07,-0.57,
1.895,0.06,0.11,0.90,-0.18,-0.07,-0.57,
1.895,0.06,0.11,0.90,-0.25,-0.07,-0.69,
1.897,0.06,0.11,0.90,-0.25,-0.07,-0.69,
1.9,0.06,0.11,0.89,-0.25,-0.07,-0.69,
1.9,0.06,0.11,0.89,-0.43,0.01,-0.80,
1.902,0.05,0.11,0.89,-0.43,0.01,-0.80,
1.906,0.05,0.10,0.90,-0.43,0.01,-0.80,
1.907,0.05,0.10,0.90,-0.49,-0.03,-0.86,
1.907,0.05,0.10,0.91,-0.49,-0.03,-0.86,
1.91,0.05,0.10,0.91,-0.58,-0.06,-0.84,
1.91,0.05,0.09,0.91,-0.58,-0.06,-0.84,
1.912,0.06,0.09,0.92,-0.58,-0.06,-0.84,
1.914,0.06,0.08,0.93,-0.58,-0.06,-0.84,
1.914,0.06,0.08,0.93,-0.56,-0.13,-0.71,
1.917,0.07,0.07,0.94,-0.56,-0.13,-0.71,
1.919,0.07,0.07,0.95,-0.56,-0.13,-0.71,
1.92,0.07,0.07,0.95,-0.49,-0.21,-0.55,
1.923,0.08,0.07,0.96,-0.49,-0.21,-0.55,
1.924,0.09,0.06,0.97,-0.49,-0.21,-0.55,
1.924,0.09,0.06,0.97,-0.44,-0.34,-0.33,
1.927,0.10,0.06,0.98,-0.44,-0.34,-0.33,
1.929,0.11,0.06,0.98,-0.44,-0.34,-0.33,
1.929,0.11,0.06,0.98,-0.32,-0.40,-0.13,
1.931,0.11,0.06,1.00,-0.32,-0.40,-0.13,
1.934,0.11,0.06,1.00,-0.12,-0.46,0.05,
1.934,0.11,0.07,1.01,-0.12,-0.46,0.05,
1.938,0.12,0.07,1.01,-0.12,-0.46,0.05,
1.94,0.12,0.07,1.01,-0.12,-0.46,0.05,
1.94,0.12,0.07,1.01,-0.04,-0.42,0.21,
1.942,0.12,0.07,1.02,-0.04,-0.42,0.21,
1.944,0.11,0.08,1.02,-0.04,-0.42,0.21,
1.944,0.11,0.08,1.02,-0.01,-0.34,0.32,
1.947,0.11,0.08,1.03,-0.01,-0.34,0.32,
1.949,0.11,0.09,1.03,-0.01,-0.34,0.32,
1.949,0.11,0.09,1.03,-0.06,-0.29,0.42,
1.951,0.10,0.09,1.03,-0.06,-0.29,0.42,
1.957,0.11,0.09,1.03,-0.06,-0.29,0.42,
1.957,0.11,0.09,1.03,-0.14,-0.22,0.49,
1.957,0.10,0.09,1.03,-0.14,-0.22,0.49,
1.96,0.10,0.09,1.03,-0.16,-0.12,0.53,
1.96,0.10,0.09,1.03,-0.16,-0.12,0.53,
1.962,0.10,0.10,1.03,-0.16,-0.12,0.53,
1.964,0.10,0.10,1.03,-0.18,-0.13,0.52,
1.964,0.11,0.10,1.02,-0.18,-0.13,0.52,
1.967,0.11,0.10,1.01,-0.18,-0.13,0.52,
1.969,0.11,0.10,1.01,-0.18,-0.13,0.52,
1.97,0.11,0.10,1.01,-0.17,-0.10,0.42,
1.977,0.11,0.10,0.99,-0.17,-0.10,0.42,
1.979,0.11,0.10,0.99,-0.17,-0.10,0.42,
1.98,0.11,0.10,0.99,-0.15,-0.10,0.29,
1.98,0.11,0.10,0.98,-0.15,-0.10,0.29,
1.98,0.11,0.10,0.96,-0.15,-0.10,0.29,
1.982,0.11,0.10,0.96,-0.12,-0.11,0.15,
1.982,0.11,0.09,0.96,-0.12,-0.11,0.15,
1.984,0.11,0.09,0.96,-0.12,-0.13,-0.05,
1.984,0.11,0.10,0.95,-0.12,-0.13,-0.05,
1.987,0.11,0.10,0.94,-0.12,-0.13,-0.05,
1.989,0.11,0.10,0.95,-0.12,-0.13,-0.05,
1.99,0.11,0.10,0.95,-0.19,-0.17,-0.21,
1.993,0.11,0.10,0.95,-0.19,-0.17,-0.21,
1.994,0.11,0.09,0.95,-0.19,-0.17,-0.21,
1.994,0.11,0.09,0.95,-0.17,-0.18,-0.29,
1.996,0.12,0.10,0.95,-0.17,-0.18,-0.29,
1.999,0.12,0.10,0.95,-0.17,-0.18,-0.29,
1.999,0.12,0.10,0.95,-0.17,-0.22,-0.29,
2.001,0.13,0.10,0.96,-0.17,-0.22,-0.29,
2.004,0.14,0.10,0.96,-0.17,-0.22,-0.29,
2.004,0.14,0.10,0.96,-0.06,-0.17,-0.28,
2.007,0.14,0.11,0.97,-0.06,-0.17,-0.28,
2.008,0.14,0.12,0.98,-0.06,-0.17,-0.28,
2.009,0.14,0.12,0.98,0.08,-0.15,-0.16,
2.012,0.15,0.12,0.99,0.08,-0.15,-0.16,
2.014,0.15,0.13,1.00,0.08,-0.15,-0.16,
2.014,0.15,0.13,1.00,0.14,-0.06,0.01,
2.016,0.15,0.14,1.00,0.14,-0.06,0.01,
2.019,0.14,0.14,1.00,0.14,-0.06,0.01,
2.02,0.14,0.14,1.00,0.21,0.06,0.15,
2.023,0.14,0.15,1.00,0.21,0.06,0.15,
2.023,0.14,0.16,1.00,0.21,0.06,0.15,
2.024,0.14,0.16,1.00,0.15,0.20,0.23,
2.027,0.14,0.15,0.99,0.15,0.20,0.23,
2.028,0.14,0.16,0.98,0.15,0.20,0.23,
2.029,0.14,0.16,0.98,0.08,0.32,0.21,
2.031,0.14,0.16,0.98,0.08,0.32,0.21,
2.034,0.14,0.16,0.98,0.07,0.33,0.13,
2.034,0.14,0.16,0.98,0.07,0.33,0.13,
2.035,0.14,0.16,0.97,0.07,0.33,0.13,
2.04,0.14,0.15,0.97,0.07,0.33,0.13,
2.04,0.14,0.15,0.97,0.05,0.33,0.04,
2.041,0.14,0.16,0.96,0.05,0.33,0.04,
2.044,0.15,0.15,0.96,0.05,0.33,0.04,
2.044,0.15,0.15,0.96,0.05,0.29,-0.05,
2.046,0.15,0.15,0.96,0.05,0.29,-0.05,
2.049,0.14,0.14,0.95,0.05,0.29,-0.05,
2.049,0.14,0.14,0.95,0.11,0.26,-0.15,
2.052,0.15,0.14,0.95,0.11,0.26,-0.15,
2.054,0.14,0.14,0.94,0.11,0.26,-0.15,
2.054,0.14,0.14,0.94,0.12,0.16,-0.18,
2.056,0.14,0.13,0.94,0.12,0.16,-0.18,
2.058,0.13,0.13,0.94,0.12,0.16,-0.18,
2.058,0.13,0.13,0.94,0.11,0.09,-0.27,
2.061,0.13,0.13,0.93,0.11,0.09,-0.27,
2.064,0.13,0.13,0.93,-0.02,-0.03,-0.31,
2.064,0.12,0.12,0.93,-0.02,-0.03,-0.31,
2.066,0.11,0.12,0.94,-0.02,-0.03,-0.31,
2.068,0.11,0.12,0.94,-0.02,-0.03,-0.31,
2.069,0.11,0.12,0.94,-0.13,-0.07,-0.38,
2.07,0.10,0.12,0.95,-0.13,-0.07,-0.38,
2.077,0.10,0.12,0.95,-0.13,-0.07,-0.38,
2.078,0.10,0.12,0.95,-0.26,-0.12,-0.29,
2.078,0.10,0.12,0.94,-0.26,-0.12,-0.29,
2.078,0.10,0.12,0.95,-0.26,-0.12,-0.29,
2.079,0.10,0.12,0.95,-0.36,-0.14,-0.25,
2.08,0.09,0.12,0.96,-0.36,-0.14,-0.25,
2.083,0.10,0.12,0.96,-0.36,-0.14,-0.25,
2.083,0.10,0.12,0.96,-0.39,-0.14,-0.24,
2.086,0.10,0.12,0.96,-0.39,-0.14,-0.24,
2.088,0.10,0.12,0.96,-0.39,-0.14,-0.24,
2.088,0.10,0.12,0.96,-0.42,-0.15,-0.13,
2.09,0.10,0.12,0.97,-0.42,-0.15,-0.13,
2.093,0.11,0.13,0.97,-0.42,-0.15,-0.13,
2.093,0.11,0.13,0.97,-0.39,-0.13,-0.10,
2.096,0.12,0.13,0.98,-0.39,-0.13,-0.10,
2.098,0.12,0.14,0.98,-0.39,-0.13,-0.10,
2.099,0.12,0.14,0.98,-0.32,-0.08,-0.01,
2.101,0.12,0.14,0.98,-0.32,-0.08,-0.01,
2.103,0.12,0.15,0.98,-0.32,-0.08,-0.01,
2.103,0.12,0.15,0.98,-0.23,0.03,0.06,
2.105,0.13,0.15,0.98,-0.23,0.03,0.06,
2.108,0.13,0.16,0.98,-0.23,0.03,0.06,
2.109,0.13,0.16,0.98,-0.20,0.11,0.08,
2.11,0.13,0.16,0.97,-0.20,0.11,0.08,
2.113,0.14,0.16,0.97,-0.20,0.11,0.08,
2.113,0.14,0.16,0.97,-0.16,0.17,0.07,
2.116,0.14,0.16,0.97,-0.16,0.17,0.07,
2.118,0.14,0.17,0.97,-0.16,0.17,0.07,
2.118,0.14,0.17,0.97,-0.11,0.22,0.01,
2.121,0.15,0.16,0.97,-0.11,0.22,0.01,
2.123,0.15,0.16,0.96,-0.11,0.22,0.01,
2.123,0.15,0.16,0.96,-0.07,0.23,0.01,
2.125,0.16,0.17,0.98,-0.07,0.23,0.01,
2.128,0.16,0.16,0.98,-0.07,0.23,0.01,
2.128,0.16,0.16,0.98,-0.02,0.21,-0.04,
2.131,0.16,0.17,0.99,-0.02,0.21,-0.04,
2.132,0.17,0.17,1.00,-0.02,0.21,-0.04,
2.133,0.17,0.17,1.00,0.05,0.20,0.09,
2.136,0.17,0.17,1.01,0.05,0.20,0.09,
2.138,0.17,0.16,1.02,0.05,0.20,0.09,
2.14,0.17,0.16,1.02,0.10,0.24,0.23,
2.141,0.17,0.17,1.03,0.10,0.24,0.23,
2.143,0.17,0.16,1.05,0.10,0.24,0.23,
2.143,0.17,0.16,1.05,0.11,0.17,0.45,
2.145,0.17,0.16,1.05,0.11,0.17,0.45,
2.148,0.16,0.16,1.06,0.11,0.17,0.45,
2.148,0.16,0.16,1.06,0.06,0.15,0.70,
2.15,0.16,0.15,1.07,0.06,0.15,0.70,
2.153,0.15,0.15,1.07,0.06,0.15,0.70,
2.153,0.15,0.15,1.07,0.03,0.06,0.89,
2.155,0.15,0.15,1.08,0.03,0.06,0.89,
2.157,0.14,0.15,1.09,0.03,0.06,0.89,
2.157,0.14,0.15,1.09,-0.07,-0.03,1.03,
2.16,0.13,0.14,1.09,-0.07,-0.03,1.03,
2.163,0.12,0.14,1.08,-0.07,-0.03,1.03,
2.163,0.12,0.14,1.08,-0.20,-0.10,1.15,
2.165,0.11,0.14,1.08,-0.20,-0.10,1.15,
2.167,0.11,0.14,1.06,-0.20,-0.10,1.15,
2.168,0.11,0.14,1.06,-0.40,-0.18,1.15,
2.17,0.08,0.13,1.02,-0.40,-0.18,1.15,
2.172,0.05,0.13,0.91,-0.40,-0.18,1.15,
2.172,0.05,0.13,0.91,-0.56,-0.24,0.96,
2.175,0.04,0.15,0.80,-0.56,-0.24,0.96,
2.177,0.08,0.17,0.73,-0.56,-0.24,0.96,
2.177,0.08,0.17,0.73,-0.99,-0.35,-0.01,
2.18,0.11,0.17,0.70,-0.99,-0.35,-0.01,
2.182,0.14,0.17,0.69,-0.99,-0.35,-0.01,
2.183,0.14,0.17,0.69,-1.04,-0.03,-1.98,
2.185,0.15,0.17,0.68,-1.04,-0.03,-1.98,
2.187,0.18,0.16,0.70,-1.04,-0.03,-1.98,
2.187,0.18,0.16,0.70,-0.37,0.06,-2.66,
2.196,0.22,0.15,0.72,-0.37,0.06,-2.66,
2.196,0.25,0.14,0.77,-0.37,0.06,-2.66,
2.196,0.25,0.14,0.77,0.08,0.02,-2.67,
2.197,0.27,0.15,0.82,0.08,0.02,-2.67,
2.197,0.28,0.15,0.89,0.08,0.02,-2.67,
2.197,0.28,0.15,0.89,0.75,-0.13,-2.12,
2.206,0.28,0.16,0.93,0.75,-0.13,-2.12,
2.206,0.27,0.16,0.98,0.75,-0.13,-2.12,
2.207,0.27,0.16,0.98,1.15,-0.09,-1.09,
2.207,0.25,0.17,1.03,1.15,-0.09,-1.09,
2.208,0.24,0.18,1.07,1.15,-0.09,-1.09,
2.208,0.24,0.18,1.07,1.15,0.08,-0.10,
2.209,0.22,0.18,1.10,1.15,0.08,-0.10,
2.211,0.21,0.19,1.13,1.15,0.08,-0.10,
2.212,0.21,0.19,1.13,0.91,0.23,0.81,
2.215,0.20,0.19,1.15,0.91,0.23,0.81,
2.217,0.19,0.20,1.15,0.91,0.23,0.81,
2.217,0.19,0.20,1.15,0.68,0.38,1.42,
2.219,0.17,0.20,1.14,0.68,0.38,1.42,
2.222,0.17,0.20,1.13,0.68,0.38,1.42,
2.222,0.17,0.20,1.13,0.44,0.50,1.75,
2.224,0.15,0.19,1.11,0.44,0.50,1.75,
2.226,0.14,0.18,1.10,0.44,0.50,1.75,
2.226,0.14,0.18,1.10,0.21,0.58,1.60,
2.229,0.14,0.17,1.08,0.21,0.58,1.60,
2.231,0.15,0.16,1.08,0.21,0.58,1.60,
2.231,0.15,0.16,1.08,-0.02,0.43,1.32,
2.233,0.15,0.15,1.07,-0.02,0.43,1.32,
2.236,0.15,0.15,1.07,-0.02,0.43,1.32,
2.236,0.15,0.15,1.07,-0.05,0.21,1.10,
2.241,0.16,0.14,1.05,-0.05,0.21,1.10,
2.242,0.16,0.14,1.04,-0.05,0.21,1.10,
2.242,0.16,0.14,1.04,-0.02,0.00,0.99,
2.244,0.17,0.14,1.02,-0.02,0.00,0.99,
2.246,0.17,0.12,1.01,-0.02,0.00,0.99,
2.247,0.17,0.12,1.01,0.07,-0.11,0.76,
2.248,0.17,0.09,0.99,0.07,-0.11,0.76,
2.251,0.15,0.11,0.96,0.07,-0.11,0.76,
2.251,0.15,0.11,0.96,0.14,-0.28,0.44,
2.253,0.14,0.13,0.92,0.14,-0.28,0.44,
2.258,0.11,0.15,0.92,0.14,-0.28,0.44,
2.258,0.11,0.15,0.92,0.05,-0.53,0.07,
2.258,0.10,0.17,0.90,0.05,-0.53,0.07,
2.261,0.08,0.17,0.89,0.05,-0.53,0.07,
2.261,0.08,0.17,0.89,-0.28,-0.18,-0.44,
2.264,0.07,0.17,0.88,-0.28,-0.18,-0.44,
2.266,0.07,0.18,0.87,-0.28,-0.18,-0.44,
2.266,0.07,0.18,0.87,-0.64,0.06,-0.66,
2.268,0.08,0.17,0.88,-0.64,0.06,-0.66,
2.271,0.08,0.16,0.88,-0.64,0.06,-0.66,
2.271,0.08,0.16,0.88,-0.80,0.09,-0.83,
2.274,0.09,0.16,0.87,-0.80,0.09,-0.83,
