
time,gFx,gFy,gFz,ax,ay,az,
0.004,-0.06,-0.03,0.94,-0.53,-0.38,0.29,
0.004,-0.06,-0.03,0.94,-0.78,-0.36,0.10,
0.005,-0.05,-0.02,0.95,-0.78,-0.36,0.10,
0.005,-0.03,-0.01,0.96,-0.78,-0.36,0.10,
0.005,-0.03,-0.01,0.96,-0.91,-0.44,-0.36,
0.005,-0.02,-0.00,0.97,-0.91,-0.44,-0.36,
0.007,-0.01,0.01,0.97,-0.91,-0.44,-0.36,
0.007,-0.01,0.01,0.97,-0.72,-0.34,-0.31,
0.011,-0.00,0.01,0.98,-0.72,-0.34,-0.31,
0.012,0.01,0.02,0.99,-0.72,-0.34,-0.31,
0.012,0.01,0.02,0.99,-0.46,-0.20,-0.16,
0.015,0.01,0.03,0.99,-0.46,-0.20,-0.16,
0.017,0.02,0.02,1.00,-0.46,-0.20,-0.16,
0.017,0.02,0.02,1.00,-0.26,-0.10,-0.01,
0.019,0.02,0.03,1.01,-0.26,-0.10,-0.01,
0.022,0.02,0.04,1.01,-0.26,-0.10,-0.01,
0.023,0.02,0.04,1.01,-0.14,-0.01,0.11,
0.025,0.02,0.04,1.01,-0.14,-0.01,0.11,
0.028,0.02,0.05,1.01,-0.14,-0.01,0.11,
0.028,0.02,0.05,1.01,-0.07,0.06,0.23,
0.029,0.03,0.05,1.01,-0.07,0.06,0.23,
0.032,0.13,0.07,1.01,-0.07,0.06,0.23,
0.032,0.13,0.07,1.01,-0.07,0.15,0.19,
0.035,0.19,0.09,1.01,-0.07,0.15,0.19,
0.037,0.15,0.10,1.00,-0.07,0.15,0.19,
0.037,0.15,0.10,1.00,0.53,0.32,0.20,
0.039,0.12,0.11,0.98,0.53,0.32,0.20,
0.042,0.10,0.12,0.97,0.53,0.32,0.20,
0.042,0.10,0.12,0.97,1.34,0.62,0.15,
0.044,0.08,0.13,0.97,1.34,0.62,0.15,
0.047,0.07,0.13,0.96,1.34,0.62,0.15,
0.047,0.07,0.13,0.96,0.78,0.80,-0.07,
0.049,0.06,0.13,0.96,0.78,0.80,-0.07,
0.052,0.06,0.14,0.92,0.78,0.80,-0.07,
0.052,0.06,0.14,0.92,0.42,0.96,-0.20,
0.054,0.05,0.14,0.93,0.42,0.96,-0.20,
0.057,0.04,0.13,0.94,0.42,0.96,-0.20,
0.057,0.04,0.13,0.94,0.29,0.98,-0.46,
0.062,0.05,0.13,0.95,0.29,0.98,-0.46,
0.062,0.04,0.12,0.97,0.29,0.98,-0.46,
0.062,0.04,0.12,0.97,0.18,0.99,-0.47,
0.064,0.05,0.11,0.98,0.18,0.99,-0.47,
0.067,0.04,0.10,1.00,0.18,0.99,-0.47,
0.067,0.04,0.10,1.00,0.15,0.89,-0.26,
0.069,0.04,0.09,1.00,0.15,0.89,-0.26,
0.072,0.04,0.08,1.01,0.15,0.89,-0.26,
0.072,0.04,0.08,1.01,0.13,0.71,0.03,
0.074,0.04,0.08,1.03,0.13,0.71,0.03,
0.076,0.03,0.07,1.03,0.13,0.71,0.03,
0.077,0.03,0.07,1.03,0.11,0.52,0.22,
0.079,0.02,0.06,1.05,0.11,0.52,0.22,
0.081,0.02,0.05,1.05,0.11,0.52,0.22,
0.081,0.02,0.05,1.05,0.02,0.42,0.43,
0.084,0.01,0.05,1.05,0.02,0.42,0.43,
0.086,0.01,0.05,1.05,-0.10,0.28,0.60,
0.087,0.00,0.05,1.06,-0.10,0.28,0.60,
0.089,-0.00,0.05,1.06,-0.10,0.28,0.60,
0.091,-0.00,0.05,1.07,-0.10,0.28,0.60,
0.091,-0.00,0.05,1.07,-0.21,0.24,0.69,
0.094,-0.01,0.04,1.07,-0.21,0.24,0.69,
0.096,-0.02,0.05,1.07,-0.21,0.24,0.69,
0.096,-0.02,0.05,1.07,-0.31,0.22,0.75,
0.099,-0.02,0.04,1.07,-0.31,0.22,0.75,
0.101,-0.03,0.04,1.08,-0.31,0.22,0.75,
0.101,-0.03,0.04,1.08,-0.43,0.19,0.80,
0.104,-0.03,0.04,1.08,-0.43,0.19,0.80,
0.106,-0.03,0.04,1.07,-0.43,0.19,0.80,
0.106,-0.03,0.04,1.07,-0.51,0.16,0.83,
0.108,-0.03,0.04,1.07,-0.51,0.16,0.83,
0.111,-0.03,0.04,1.08,-0.51,0.16,0.83,
0.111,-0.03,0.04,1.08,-0.56,0.12,0.82,
0.113,-0.03,0.04,1.07,-0.56,0.12,0.82,
0.117,-0.03,0.04,1.07,-0.56,0.12,0.82,
0.117,-0.03,0.04,1.07,-0.55,0.13,0.82,
0.119,-0.02,0.04,1.06,-0.55,0.13,0.82,
0.121,-0.02,0.04,1.06,-0.55,0.13,0.82,
0.122,-0.02,0.04,1.06,-0.53,0.13,0.78,
0.124,-0.02,0.04,1.05,-0.53,0.13,0.78,
0.127,-0.03,0.04,1.05,-0.53,0.13,0.78,
0.127,-0.03,0.04,1.05,-0.48,0.11,0.67,
0.129,-0.03,0.05,1.05,-0.48,0.11,0.67,
0.131,-0.03,0.05,1.05,-0.48,0.11,0.67,
0.131,-0.03,0.05,1.05,-0.48,0.13,0.55,
0.134,-0.02,0.05,1.04,-0.48,0.13,0.55,
0.136,-0.03,0.05,1.03,-0.48,0.13,0.55,
0.136,-0.03,0.05,1.03,-0.52,0.18,0.52,
0.139,-0.03,0.06,1.03,-0.52,0.18,0.52,
0.141,-0.03,0.06,1.03,-0.52,0.18,0.52,
0.141,-0.03,0.06,1.03,-0.49,0.21,0.43,
0.144,-0.03,0.06,1.03,-0.49,0.21,0.43,
0.146,-0.03,0.06,1.03,-0.53,0.29,0.32,
0.146,-0.03,0.07,1.03,-0.53,0.29,0.32,
0.148,-0.04,0.07,1.03,-0.53,0.29,0.32,
0.151,-0.04,0.07,1.03,-0.55,0.32,0.31,
0.151,-0.03,0.07,1.02,-0.55,0.32,0.31,
0.153,-0.03,0.07,1.02,-0.55,0.32,0.31,
0.156,-0.03,0.07,1.02,-0.57,0.34,0.30,
0.156,-0.03,0.06,1.02,-0.57,0.34,0.30,
0.159,-0.03,0.06,1.02,-0.57,0.34,0.30,
0.161,-0.03,0.06,1.02,-0.49,0.29,0.24,
0.163,-0.02,0.06,1.02,-0.49,0.29,0.24,
0.163,-0.02,0.05,1.02,-0.49,0.29,0.24,
0.166,-0.02,0.05,1.02,-0.49,0.29,0.24,
0.166,-0.02,0.05,1.02,-0.43,0.25,0.25,
0.168,-0.01,0.05,1.02,-0.43,0.25,0.25,
0.171,-0.01,0.05,1.02,-0.43,0.25,0.25,
0.171,-0.01,0.05,1.02,-0.35,0.17,0.23,
0.174,-0.02,0.04,1.03,-0.35,0.17,0.23,
0.176,-0.02,0.04,1.03,-0.35,0.17,0.23,
0.176,-0.02,0.04,1.03,-0.32,0.11,0.26,
0.182,-0.02,0.04,1.02,-0.32,0.11,0.26,
0.182,-0.02,0.03,1.02,-0.32,0.11,0.26,
0.182,-0.02,0.03,1.02,-0.34,0.04,0.31,
0.184,-0.02,0.03,1.03,-0.34,0.04,0.31,
0.185,-0.02,0.03,1.03,-0.34,0.04,0.31,
0.186,-0.02,0.03,1.03,-0.34,-0.00,0.28,
0.188,-0.03,0.03,1.03,-0.34,-0.00,0.28,
0.191,-0.03,0.03,1.03,-0.34,-0.00,0.28,
0.191,-0.03,0.03,1.03,-0.38,-0.03,0.33,
0.193,-0.04,0.03,1.04,-0.38,-0.03,0.33,
0.195,-0.04,0.03,1.04,-0.38,-0.03,0.33,
0.196,-0.04,0.03,1.04,-0.45,-0.04,0.32,
0.198,-0.05,0.03,1.05,-0.45,-0.04,0.32,
0.201,-0.05,0.04,1.05,-0.45,-0.04,0.32,
0.201,-0.05,0.04,1.05,-0.52,-0.03,0.42,
0.203,-0.05,0.04,1.04,-0.52,-0.03,0.42,
0.206,-0.06,0.04,1.05,-0.52,-0.03,0.42,
0.206,-0.06,0.04,1.05,-0.60,-0.01,0.51,
0.208,-0.05,0.04,1.05,-0.60,-0.01,0.51,
0.21,-0.05,0.04,1.05,-0.60,-0.01,0.51,
0.21,-0.05,0.04,1.05,-0.66,0.04,0.49,
0.213,-0.06,0.04,1.05,-0.66,0.04,0.49,
0.215,-0.06,0.04,1.05,-0.66,0.04,0.49,
0.215,-0.06,0.04,1.05,-0.65,0.06,0.48,
0.217,-0.07,0.04,1.04,-0.65,0.06,0.48,
0.221,-0.06,0.04,1.03,-0.65,0.06,0.48,
0.221,-0.06,0.04,1.03,-0.71,0.02,0.47,
0.223,-0.07,0.04,1.03,-0.71,0.02,0.47,
0.225,-0.07,0.04,1.03,-0.71,0.02,0.47,
0.225,-0.07,0.04,1.03,-0.74,0.03,0.36,
0.228,-0.08,0.04,1.02,-0.74,0.03,0.36,
0.23,-0.08,0.04,1.01,-0.74,0.03,0.36,
0.23,-0.08,0.04,1.01,-0.80,0.00,0.29,
0.233,-0.08,0.04,1.02,-0.80,0.00,0.29,
0.236,-0.08,0.04,1.02,-0.80,0.00,0.29,
0.236,-0.08,0.04,1.02,-0.83,0.00,0.19,
0.238,-0.09,0.04,1.02,-0.83,0.00,0.19,
0.24,-0.09,0.04,1.01,-0.83,0.00,0.19,
0.241,-0.09,0.04,1.01,-0.86,-0.01,0.19,
0.243,-0.09,0.04,1.01,-0.86,-0.01,0.19,
0.245,-0.09,0.04,1.02,-0.86,-0.01,0.19,
0.246,-0.09,0.04,1.02,-0.91,-0.01,0.15,
0.247,-0.09,0.04,1.01,-0.91,-0.01,0.15,
0.25,-0.09,0.04,1.01,-0.91,-0.01,0.15,
0.25,-0.09,0.04,1.01,-0.89,-0.01,0.13,
0.252,-0.09,0.04,1.02,-0.89,-0.01,0.13,
0.255,-0.09,0.04,1.02,-0.89,-0.01,0.13,
0.255,-0.09,0.04,1.02,-0.91,0.00,0.12,
0.257,-0.09,0.04,1.03,-0.91,0.00,0.12,
0.265,-0.09,0.04,1.04,-0.91,0.00,0.12,
0.265,-0.09,0.04,1.04,-0.88,-0.01,0.18,
0.265,-0.08,0.04,1.03,-0.88,-0.01,0.18,
0.265,-0.08,0.04,1.03,-0.88,-0.01,0.18,
0.266,-0.08,0.04,1.03,-0.89,-0.04,0.31,
0.268,-0.08,0.04,1.04,-0.89,-0.04,0.31,
0.269,-0.08,0.04,1.05,-0.89,-0.04,0.31,
0.27,-0.08,0.04,1.05,-0.79,-0.03,0.28,
0.272,-0.09,0.04,1.05,-0.79,-0.03,0.28,
0.275,-0.08,0.04,1.06,-0.79,-0.03,0.28,
0.275,-0.08,0.04,1.06,-0.79,-0.06,0.40,
0.278,-0.08,0.04,1.06,-0.79,-0.06,0.40,
0.279,-0.09,0.04,1.07,-0.79,-0.06,0.40,
0.279,-0.09,0.04,1.07,-0.79,-0.03,0.56,
0.282,-0.09,0.04,1.07,-0.79,-0.03,0.56,
0.284,-0.08,0.05,1.06,-0.79,-0.03,0.56,
0.284,-0.08,0.05,1.06,-0.80,-0.00,0.62,
0.287,-0.08,0.04,1.06,-0.80,-0.00,0.62,
0.289,-0.08,0.04,1.06,-0.77,0.02,0.59,
0.289,-0.08,0.04,1.05,-0.77,0.02,0.59,
0.292,-0.08,0.04,1.05,-0.77,0.02,0.59,
0.295,-0.08,0.04,1.04,-0.77,0.02,0.59,
0.295,-0.08,0.04,1.04,-0.74,-0.04,0.54,
0.297,-0.08,0.04,1.04,-0.74,-0.04,0.54,
0.299,-0.08,0.04,1.03,-0.74,-0.04,0.54,
0.299,-0.08,0.04,1.03,-0.68,-0.06,0.45,
0.302,-0.08,0.04,1.03,-0.68,-0.06,0.45,
0.305,-0.08,0.04,1.03,-0.66,-0.06,0.34,
0.305,-0.08,0.04,1.02,-0.66,-0.06,0.34,
0.307,-0.08,0.04,1.02,-0.66,-0.06,0.34,
0.31,-0.09,0.04,1.02,-0.66,-0.06,0.34,
0.31,-0.09,0.04,1.02,-0.69,-0.09,0.23,
0.312,-0.10,0.05,1.00,-0.69,-0.09,0.23,
0.315,-0.10,0.05,1.00,-0.69,-0.09,0.23,
0.315,-0.10,0.05,1.00,-0.71,-0.05,0.13,
0.317,-0.11,0.05,1.00,-0.71,-0.05,0.13,
0.32,-0.11,0.05,1.00,-0.71,-0.05,0.13,
0.32,-0.11,0.05,1.00,-0.81,-0.00,0.01,
0.322,-0.11,0.06,0.99,-0.81,-0.00,0.01,
0.324,-0.12,0.06,1.00,-0.81,-0.00,0.01,
0.325,-0.12,0.06,1.00,-0.91,0.00,-0.04,
0.327,-0.12,0.06,0.99,-0.91,0.00,-0.04,
0.329,-0.13,0.06,1.00,-0.91,0.00,-0.04,
0.33,-0.13,0.06,1.00,-0.97,0.08,-0.07,
0.331,-0.13,0.06,0.99,-0.97,0.08,-0.07,
0.334,-0.13,0.07,0.98,-0.97,0.08,-0.07,
0.335,-0.13,0.07,0.98,-1.03,0.08,-0.07,
0.336,-0.14,0.07,1.00,-1.03,0.08,-0.07,
0.339,-0.14,0.06,0.99,-1.03,0.08,-0.07,
0.339,-0.14,0.06,0.99,-1.10,0.09,-0.15,
0.341,-0.15,0.06,0.99,-1.10,0.09,-0.15,
0.345,-0.15,0.06,0.99,-1.10,0.09,-0.15,
0.345,-0.15,0.06,0.99,-1.15,0.09,-0.10,
0.346,-0.16,0.06,0.99,-1.15,0.09,-0.10,
0.349,-0.16,0.06,0.99,-1.26,0.04,-0.12,
0.35,-0.16,0.06,0.99,-1.26,0.04,-0.12,
0.351,-0.16,0.07,0.98,-1.26,0.04,-0.12,
0.353,-0.15,0.07,0.98,-1.26,0.04,-0.12,
0.353,-0.15,0.07,0.98,-1.33,0.05,-0.13,
0.357,-0.15,0.06,0.98,-1.33,0.05,-0.13,
0.359,-0.16,0.06,0.98,-1.33,0.05,-0.13,
0.359,-0.16,0.06,0.98,-1.30,0.06,-0.20,
0.361,-0.16,0.06,0.98,-1.30,0.06,-0.20,
0.363,-0.15,0.06,0.97,-1.30,0.06,-0.20,
0.364,-0.15,0.06,0.97,-1.31,0.02,-0.20,
0.367,-0.15,0.06,0.97,-1.31,0.02,-0.20,
0.369,-0.15,0.06,0.97,-1.31,0.02,-0.20,
0.369,-0.15,0.06,0.97,-1.29,-0.02,-0.28,
0.372,-0.15,0.06,0.96,-1.29,-0.02,-0.28,
0.374,-0.15,0.06,0.96,-1.29,-0.02,-0.28,
0.375,-0.15,0.06,0.96,-1.26,-0.00,-0.31,
0.376,-0.15,0.06,0.95,-1.26,-0.00,-0.31,
0.381,-0.15,0.07,0.95,-1.26,-0.00,-0.31,
0.382,-0.15,0.07,0.95,-1.24,-0.04,-0.39,
0.382,-0.15,0.07,0.94,-1.24,-0.04,-0.39,
0.384,-0.15,0.07,0.95,-1.24,-0.04,-0.39,
0.384,-0.15,0.07,0.95,-1.23,-0.01,-0.47,
0.386,-0.15,0.07,0.93,-1.23,-0.01,-0.47,
0.389,-0.15,0.07,0.93,-1.23,-0.01,-0.47,
0.389,-0.15,0.07,0.93,-1.19,-0.01,-0.54,
0.391,-0.15,0.07,0.93,-1.19,-0.01,-0.54,
0.394,-0.15,0.08,0.92,-1.19,-0.01,-0.54,
0.394,-0.15,0.08,0.92,-1.15,-0.01,-0.70,
0.396,-0.14,0.08,0.91,-1.15,-0.01,-0.70,
0.398,-0.14,0.08,0.91,-1.15,-0.01,-0.70,
0.398,-0.14,0.08,0.91,-1.14,0.07,-0.73,
0.401,-0.14,0.08,0.91,-1.14,0.07,-0.73,
0.404,-0.14,0.08,0.90,-1.14,0.07,-0.73,
0.404,-0.14,0.08,0.90,-1.12,0.10,-0.87,
0.406,-0.14,0.09,0.90,-1.12,0.10,-0.87,
0.409,-0.14,0.09,0.89,-1.12,0.10,-0.87,
0.409,-0.14,0.09,0.89,-1.09,0.08,-0.91,
0.413,-0.15,0.09,0.89,-1.09,0.08,-0.91,
0.413,-0.15,0.09,0.89,-1.09,0.08,-0.91,
0.413,-0.15,0.09,0.89,-1.08,0.14,-1.00,
0.416,-0.15,0.09,0.89,-1.08,0.14,-1.00,
0.418,-0.15,0.09,0.89,-1.15,0.18,-1.06,
0.418,-0.15,0.09,0.88,-1.15,0.18,-1.06,
0.421,-0.15,0.09,0.88,-1.15,0.18,-1.06,
0.423,-0.16,0.09,0.88,-1.15,0.18,-1.06,
0.424,-0.16,0.09,0.88,-1.14,0.14,-1.11,
0.426,-0.16,0.09,0.88,-1.14,0.14,-1.11,
0.429,-0.16,0.09,0.88,-1.14,0.14,-1.11,
0.43,-0.16,0.09,0.88,-1.18,0.18,-1.12,
0.431,-0.16,0.09,0.88,-1.18,0.18,-1.12,
0.434,-0.16,0.08,0.89,-1.18,0.18,-1.12,
0.434,-0.16,0.08,0.89,-1.25,0.17,-1.10,
0.435,-0.16,0.08,0.89,-1.25,0.17,-1.10,
0.438,-0.15,0.08,0.89,-1.25,0.17,-1.10,
0.439,-0.15,0.08,0.89,-1.22,0.10,-1.06,
0.441,-0.15,0.08,0.89,-1.22,0.10,-1.06,
0.443,-0.15,0.07,0.89,-1.22,0.10,-1.06,
0.443,-0.15,0.07,0.89,-1.20,0.04,-1.02,
0.445,-0.15,0.07,0.90,-1.20,0.04,-1.02,
0.447,-0.14,0.07,0.90,-1.20,0.04,-1.02,
0.448,-0.14,0.07,0.90,-1.15,-0.03,-1.01,
0.451,-0.14,0.06,0.91,-1.15,-0.03,-1.01,
0.453,-0.14,0.06,0.91,-1.15,-0.03,-1.01,
0.453,-0.14,0.06,0.91,-1.13,-0.10,-0.93,
0.456,-0.13,0.06,0.91,-1.13,-0.10,-0.93,
0.458,-0.12,0.05,0.91,-1.13,-0.10,-0.93,
0.458,-0.12,0.05,0.91,-1.06,-0.18,-0.82,
0.461,-0.12,0.05,0.92,-1.06,-0.18,-0.82,
0.463,-0.12,0.04,0.93,-1.06,-0.18,-0.82,
0.463,-0.12,0.04,0.93,-0.97,-0.25,-0.79,
0.465,-0.11,0.04,0.93,-0.97,-0.25,-0.79,
0.468,-0.11,0.04,0.93,-0.91,-0.35,-0.67,
0.468,-0.11,0.04,0.94,-0.91,-0.35,-0.67,
0.47,-0.11,0.04,0.94,-0.91,-0.35,-0.67,
0.472,-0.10,0.04,0.95,-0.91,-0.35,-0.67,
0.472,-0.10,0.04,0.95,-0.84,-0.38,-0.58,
0.475,-0.09,0.04,0.95,-0.84,-0.38,-0.58,
0.479,-0.09,0.03,0.96,-0.84,-0.38,-0.58,
0.48,-0.09,0.03,0.96,-0.77,-0.40,-0.47,
0.485,-0.09,0.04,0.97,-0.77,-0.40,-0.47,
0.485,-0.09,0.03,0.98,-0.77,-0.40,-0.47,
0.486,-0.09,0.03,0.98,-0.66,-0.45,-0.38,
0.486,-0.08,0.03,0.98,-0.66,-0.45,-0.38,
0.488,-0.09,0.03,0.98,-0.66,-0.45,-0.38,
0.488,-0.09,0.03,0.98,-0.66,-0.45,-0.21,
0.49,-0.09,0.03,0.99,-0.66,-0.45,-0.21,
0.492,-0.09,0.03,0.98,-0.66,-0.45,-0.21,
0.492,-0.09,0.03,0.98,-0.63,-0.49,-0.14,
0.496,-0.09,0.03,0.99,-0.63,-0.49,-0.14,
0.497,-0.09,0.03,0.98,-0.63,-0.49,-0.14,
0.497,-0.09,0.03,0.98,-0.64,-0.50,-0.10,
0.5,-0.09,0.03,0.98,-0.64,-0.50,-0.10,
0.502,-0.09,0.03,0.99,-0.64,-0.50,-0.10,
0.502,-0.09,0.03,0.99,-0.65,-0.52,-0.08,
0.505,-0.10,0.02,0.98,-0.65,-0.52,-0.08,
0.507,-0.10,0.03,0.98,-0.65,-0.52,-0.08,
0.507,-0.10,0.03,0.98,-0.69,-0.58,-0.08,
0.509,-0.10,0.02,0.98,-0.69,-0.58,-0.08,
0.512,-0.11,0.02,0.98,-0.69,-0.58,-0.08,
0.513,-0.11,0.02,0.98,-0.79,-0.59,-0.13,
0.514,-0.11,0.02,0.96,-0.79,-0.59,-0.13,
0.517,-0.11,0.02,0.96,-0.81,-0.64,-0.15,
0.517,-0.12,0.02,0.97,-0.81,-0.64,-0.15,
0.519,-0.12,0.01,0.96,-0.81,-0.64,-0.15,
0.522,-0.12,0.01,0.96,-0.81,-0.64,-0.15,
0.523,-0.12,0.01,0.96,-0.90,-0.66,-0.25,
0.524,-0.13,0.01,0.95,-0.90,-0.66,-0.25,
0.527,-0.13,0.01,0.95,-0.90,-0.66,-0.25,
0.527,-0.13,0.01,0.95,-0.96,-0.72,-0.33,
0.529,-0.14,0.01,0.95,-0.96,-0.72,-0.33,
0.532,-0.14,0.01,0.95,-1.01,-0.77,-0.40,
0.533,-0.14,0.00,0.94,-1.01,-0.77,-0.40,
0.534,-0.14,0.00,0.94,-1.01,-0.77,-0.40,
0.537,-0.14,0.00,0.93,-1.01,-0.77,-0.40,
0.537,-0.14,0.00,0.93,-1.12,-0.81,-0.46,
0.54,-0.15,-0.00,0.94,-1.12,-0.81,-0.46,
0.542,-0.14,-0.00,0.94,-1.12,-0.81,-0.46,
0.542,-0.14,-0.00,0.94,-1.12,-0.82,-0.54,
0.545,-0.13,-0.00,0.94,-1.12,-0.82,-0.54,
0.547,-0.13,-0.01,0.94,-1.12,-0.82,-0.54,
0.547,-0.13,-0.01,0.94,-1.14,-0.88,-0.48,
0.549,-0.13,-0.01,0.94,-1.14,-0.88,-0.48,
0.552,-0.12,-0.01,0.93,-1.14,-0.88,-0.48,
0.552,-0.12,-0.01,0.93,-1.02,-0.92,-0.51,
0.555,-0.11,-0.01,0.93,-1.02,-0.92,-0.51,
0.557,-0.11,-0.01,0.93,-1.02,-0.92,-0.51,
0.558,-0.11,-0.01,0.93,-0.92,-0.93,-0.55,
0.56,-0.10,-0.01,0.93,-0.92,-0.93,-0.55,
0.566,-0.09,-0.00,0.93,-0.92,-0.93,-0.55,
0.567,-0.09,-0.00,0.93,-0.77,-0.93,-0.56,
0.567,-0.08,-0.01,0.93,-0.77,-0.93,-0.56,
0.567,-0.08,-0.01,0.93,-0.77,-0.93,-0.56,
0.568,-0.08,-0.01,0.93,-0.59,-0.92,-0.57,
0.569,-0.08,-0.00,0.93,-0.59,-0.92,-0.57,
0.572,-0.08,-0.00,0.93,-0.46,-0.91,-0.55,
0.572,-0.07,-0.00,0.93,-0.46,-0.91,-0.55,
0.575,-0.06,-0.00,0.93,-0.46,-0.91,-0.55,
0.577,-0.05,-0.00,0.93,-0.46,-0.91,-0.55,
0.577,-0.05,-0.00,0.93,-0.36,-0.88,-0.56,
0.58,-0.04,-0.00,0.93,-0.36,-0.88,-0.56,
0.581,-0.04,0.00,0.93,-0.36,-0.88,-0.56,
0.582,-0.04,0.00,0.93,-0.20,-0.87,-0.57,
0.584,-0.03,0.00,0.93,-0.20,-0.87,-0.57,
0.587,-0.02,0.00,0.93,-0.20,-0.87,-0.57,
0.587,-0.02,0.00,0.93,-0.05,-0.86,-0.54,
0.589,-0.01,-0.00,0.93,-0.05,-0.86,-0.54,
0.592,-0.01,-0.00,0.93,0.11,-0.85,-0.54,
0.592,-0.01,0.00,0.93,0.11,-0.85,-0.54,
0.594,-0.00,0.00,0.93,0.11,-0.85,-0.54,
0.597,-0.01,0.01,0.93,0.11,-0.85,-0.54,
0.597,-0.01,0.01,0.93,0.28,-0.86,-0.58,
0.599,-0.01,0.01,0.94,0.28,-0.86,-0.58,
0.601,-0.01,0.01,0.94,0.28,-0.86,-0.58,
0.601,-0.01,0.01,0.94,0.33,-0.82,-0.56,
0.604,-0.01,0.01,0.94,0.33,-0.82,-0.56,
0.606,-0.01,0.01,0.94,0.33,-0.82,-0.56,
0.607,-0.01,0.01,0.94,0.30,-0.80,-0.48,
0.609,-0.02,0.01,0.95,0.30,-0.80,-0.48,
0.613,-0.02,0.01,0.95,0.30,-0.80,-0.48,
0.614,-0.02,0.01,0.95,0.27,-0.77,-0.41,
0.614,-0.02,-0.00,0.95,0.27,-0.77,-0.41,
0.616,-0.02,-0.00,0.95,0.22,-0.80,-0.34,
0.616,-0.03,-0.00,0.95,0.22,-0.80,-0.34,
0.619,-0.03,0.00,0.95,0.22,-0.80,-0.34,
0.622,-0.04,-0.00,0.95,0.22,-0.80,-0.34,
0.622,-0.04,-0.00,0.95,0.16,-0.88,-0.33,
0.624,-0.04,-0.01,0.95,0.16,-0.88,-0.33,
0.626,-0.05,-0.01,0.95,0.16,-0.88,-0.33,
0.627,-0.05,-0.01,0.95,0.06,-0.87,-0.30,
0.63,-0.05,-0.02,0.95,0.06,-0.87,-0.30,
0.631,-0.06,-0.02,0.95,0.06,-0.87,-0.30,
0.631,-0.06,-0.02,0.95,-0.02,-0.95,-0.32,
0.634,-0.06,-0.03,0.94,-0.02,-0.95,-0.32,
0.636,-0.07,-0.03,0.95,-0.02,-0.95,-0.32,
0.637,-0.07,-0.03,0.95,-0.09,-1.06,-0.31,
0.639,-0.06,-0.05,0.95,-0.09,-1.06,-0.31,
0.641,-0.06,-0.05,0.94,-0.09,-1.06,-0.31,
0.642,-0.06,-0.05,0.94,-0.18,-1.17,-0.35,
0.644,-0.06,-0.06,0.94,-0.18,-1.17,-0.35,
0.647,-0.05,-0.08,0.93,-0.18,-1.17,-0.35,
0.648,-0.05,-0.08,0.93,-0.16,-1.32,-0.33,
0.648,-0.06,-0.08,0.93,-0.16,-1.32,-0.33,
0.651,-0.05,-0.09,0.93,-0.16,-1.32,-0.33,
0.651,-0.05,-0.09,0.93,-0.09,-1.52,-0.47,
0.654,-0.05,-0.09,0.92,-0.09,-1.52,-0.47,
0.656,-0.05,-0.10,0.92,-0.09,-1.52,-0.47,
0.659,-0.05,-0.10,0.92,-0.05,-1.65,-0.52,
0.659,-0.05,-0.10,0.91,-0.05,-1.65,-0.52,
0.661,-0.05,-0.10,0.90,-0.05,-1.65,-0.52,
0.661,-0.05,-0.10,0.90,-0.01,-1.77,-0.62,
0.663,-0.04,-0.11,0.90,-0.01,-1.77,-0.62,
0.666,-0.04,-0.11,0.90,0.02,-1.82,-0.72,
0.666,-0.04,-0.11,0.88,0.02,-1.82,-0.72,
0.668,-0.04,-0.11,0.88,0.02,-1.82,-0.72,
0.67,-0.03,-0.11,0.88,0.02,-1.82,-0.72,
0.671,-0.03,-0.11,0.88,0.09,-1.88,-0.86,
0.673,-0.03,-0.12,0.87,0.09,-1.88,-0.86,
0.676,-0.02,-0.12,0.86,0.09,-1.88,-0.86,
0.676,-0.02,-0.12,0.86,0.16,-1.92,-0.98,
0.678,-0.01,-0.12,0.86,0.16,-1.92,-0.98,
0.684,-0.01,-0.12,0.86,0.16,-1.92,-0.98,
0.684,-0.01,-0.12,0.86,0.28,-1.96,-1.11,
0.684,-0.01,-0.12,0.86,0.28,-1.96,-1.11,
0.685,-0.00,-0.11,0.85,0.28,-1.96,-1.11,
0.685,-0.00,-0.11,0.85,0.44,-1.98,-1.16,
0.688,0.00,-0.11,0.85,0.44,-1.98,-1.16,
0.691,0.01,-0.11,0.85,0.44,-1.98,-1.16,
0.691,0.01,-0.11,0.85,0.49,-1.96,-1.18,
0.693,0.01,-0.10,0.85,0.49,-1.96,-1.18,
0.696,0.01,-0.10,0.85,0.49,-1.96,-1.18,
0.696,0.01,-0.10,0.85,0.57,-1.93,-1.23,
0.698,0.02,-0.09,0.85,0.57,-1.93,-1.23,
0.7,0.03,-0.09,0.86,0.57,-1.93,-1.23,
0.7,0.03,-0.09,0.86,0.63,-1.86,-1.22,
0.703,0.03,-0.09,0.87,0.63,-1.86,-1.22,
0.706,0.04,-0.08,0.87,0.63,-1.86,-1.22,
0.706,0.04,-0.08,0.87,0.77,-1.76,-1.16,
0.708,0.05,-0.08,0.87,0.77,-1.76,-1.16,
0.71,0.06,-0.08,0.87,0.77,-1.76,-1.16,
0.711,0.06,-0.08,0.87,0.86,-1.69,-1.04,
0.712,0.06,-0.07,0.88,0.86,-1.69,-1.04,
0.715,0.07,-0.07,0.88,0.86,-1.69,-1.04,
0.716,0.07,-0.07,0.88,1.02,-1.62,-1.02,
0.718,0.07,-0.06,0.88,1.02,-1.62,-1.02,
0.721,0.08,-0.06,0.89,1.02,-1.62,-1.02,
0.721,0.08,-0.06,0.89,1.12,-1.53,-0.86,
0.723,0.08,-0.06,0.90,1.12,-1.53,-0.86,
0.725,0.09,-0.06,0.90,1.12,-1.53,-0.86,
0.725,0.09,-0.06,0.90,1.24,-1.48,-0.81,
0.728,0.09,-0.05,0.90,1.24,-1.48,-0.81,
0.731,0.09,-0.05,0.91,1.24,-1.48,-0.81,
0.731,0.09,-0.05,0.91,1.32,-1.43,-0.73,
0.732,0.10,-0.05,0.91,1.32,-1.43,-0.73,
0.735,0.10,-0.06,0.90,1.32,-1.43,-0.73,
0.735,0.10,-0.06,0.90,1.40,-1.37,-0.67,
0.738,0.10,-0.06,0.90,1.40,-1.37,-0.67,
0.741,0.10,-0.06,0.90,1.45,-1.39,-0.67,
0.741,0.10,-0.06,0.90,1.45,-1.39,-0.67,
0.743,0.11,-0.06,0.90,1.45,-1.39,-0.67,
0.745,0.11,-0.06,0.90,1.45,-1.39,-0.67,
0.745,0.11,-0.06,0.90,1.47,-1.42,-0.67,
0.747,0.11,-0.06,0.90,1.47,-1.42,-0.67,
0.75,0.11,-0.06,0.90,1.50,-1.41,-0.67,
0.75,0.11,-0.06,0.90,1.50,-1.41,-0.67,
0.753,0.12,-0.05,0.90,1.50,-1.41,-0.67,
0.755,0.12,-0.05,0.90,1.50,-1.41,-0.67,
0.755,0.12,-0.05,0.90,1.54,-1.39,-0.69,
0.758,0.12,-0.06,0.89,1.54,-1.39,-0.69,
0.76,0.12,-0.06,0.89,1.54,-1.39,-0.69,
0.76,0.12,-0.06,0.89,1.58,-1.35,-0.72,
0.764,0.12,-0.06,0.89,1.58,-1.35,-0.72,
0.765,0.12,-0.05,0.89,1.58,-1.35,-0.72,
0.765,0.12,-0.05,0.89,1.64,-1.39,-0.75,
0.767,0.13,-0.05,0.88,1.64,-1.39,-0.75,
0.77,0.13,-0.05,0.88,1.64,-1.39,-0.75,
0.77,0.13,-0.05,0.88,1.64,-1.34,-0.81,
0.772,0.13,-0.05,0.87,1.64,-1.34,-0.81,
0.775,0.14,-0.05,0.86,1.64,-1.34,-0.81,
0.775,0.14,-0.05,0.86,1.69,-1.29,-0.87,
0.778,0.14,-0.04,0.86,1.69,-1.29,-0.87,
0.78,0.14,-0.04,0.86,1.69,-1.29,-0.87,
0.78,0.14,-0.04,0.86,1.75,-1.30,-1.02,
0.785,0.15,-0.04,0.85,1.75,-1.30,-1.02,
0.785,0.15,-0.04,0.85,1.75,-1.30,-1.02,
0.786,0.15,-0.04,0.85,1.85,-1.23,-1.07,
0.787,0.15,-0.03,0.84,1.85,-1.23,-1.07,
0.789,0.15,-0.03,0.84,1.89,-1.19,-1.19,
0.789,0.15,-0.03,0.84,1.89,-1.19,-1.19,
0.792,0.16,-0.02,0.83,1.89,-1.19,-1.19,
0.794,0.16,-0.02,0.84,1.89,-1.19,-1.19,
0.794,0.16,-0.02,0.84,1.91,-1.08,-1.28,
0.797,0.16,-0.01,0.84,1.91,-1.08,-1.28,
0.799,0.17,-0.01,0.84,1.91,-1.08,-1.28,
0.8,0.17,-0.01,0.84,2.00,-0.98,-1.32,
0.801,0.16,-0.00,0.84,2.00,-0.98,-1.32,
0.804,0.17,0.00,0.85,2.00,-0.98,-1.32,
0.805,0.17,0.00,0.85,2.02,-0.85,-1.26,
0.806,0.17,0.01,0.86,2.02,-0.85,-1.26,
0.809,0.16,0.01,0.88,2.02,-0.85,-1.26,
0.809,0.16,0.01,0.88,2.03,-0.79,-1.18,
0.811,0.17,0.02,0.89,2.03,-0.79,-1.18,
0.814,0.17,0.02,0.90,2.03,-0.79,-1.18,
0.815,0.17,0.02,0.90,2.02,-0.68,-0.96,
0.816,0.17,0.02,0.91,2.02,-0.68,-0.96,
0.819,0.18,0.02,0.92,2.02,-0.68,-0.96,
0.819,0.18,0.02,0.92,2.03,-0.59,-0.73,
0.822,0.18,0.02,0.94,2.03,-0.59,-0.73,
0.824,0.18,0.02,0.94,2.03,-0.59,-0.73,
0.824,0.18,0.02,0.94,2.04,-0.57,-0.50,
0.826,0.18,0.02,0.96,2.04,-0.57,-0.50,
0.829,0.19,0.02,0.96,2.04,-0.57,-0.50,
0.829,0.19,0.02,0.96,2.05,-0.57,-0.28,
0.831,0.19,0.01,0.97,2.05,-0.57,-0.28,
0.834,0.19,0.01,0.98,2.05,-0.57,-0.28,
0.834,0.19,0.01,0.98,2.10,-0.57,-0.09,
0.836,0.19,0.00,0.97,2.10,-0.57,-0.09,
0.839,0.19,0.00,0.97,2.12,-0.61,0.04,
0.839,0.19,0.00,0.97,2.12,-0.61,0.04,
0.841,0.19,0.01,0.97,2.12,-0.61,0.04,
0.843,0.20,0.00,0.96,2.12,-0.61,0.04,
0.844,0.20,0.00,0.96,2.13,-0.69,0.05,
0.848,0.20,0.00,0.96,2.13,-0.69,0.05,
0.849,0.20,-0.00,0.95,2.13,-0.69,0.05,
0.85,0.20,-0.00,0.95,2.13,-0.66,-0.00,
0.851,0.21,-0.00,0.95,2.13,-0.66,-0.00,
0.854,0.21,-0.01,0.94,2.13,-0.66,-0.00,
0.854,0.21,-0.01,0.94,2.18,-0.69,-0.09,
0.856,0.22,-0.01,0.93,2.18,-0.69,-0.09,
0.858,0.22,-0.00,0.92,2.18,-0.69,-0.09,
0.858,0.22,-0.00,0.92,2.26,-0.75,-0.25,
0.861,0.23,-0.00,0.91,2.26,-0.75,-0.25,
0.864,0.23,0.00,0.90,2.26,-0.75,-0.25,
0.865,0.23,0.00,0.90,2.33,-0.75,-0.42,
0.866,0.23,0.00,0.90,2.33,-0.75,-0.42,
0.868,0.23,0.00,0.89,2.33,-0.75,-0.42,
0.869,0.23,0.00,0.89,2.43,-0.71,-0.59,
0.871,0.23,0.01,0.89,2.43,-0.71,-0.59,
0.873,0.23,0.01,0.89,2.43,-0.71,-0.59,
0.873,0.23,0.01,0.89,2.41,-0.67,-0.68,
0.876,0.23,0.02,0.88,2.41,-0.67,-0.68,
0.878,0.23,0.02,0.88,2.41,-0.67,-0.68,
0.879,0.23,0.02,0.88,2.40,-0.56,-0.73,
0.885,0.24,0.02,0.87,2.40,-0.56,-0.73,
0.886,0.24,0.02,0.88,2.40,-0.56,-0.73,
0.886,0.24,0.02,0.88,2.44,-0.50,-0.86,
0.886,0.24,0.03,0.87,2.44,-0.50,-0.86,
0.888,0.25,0.03,0.87,2.44,-0.50,-0.86,
0.888,0.25,0.03,0.87,2.47,-0.44,-0.89,
0.891,0.25,0.03,0.88,2.47,-0.44,-0.89,
0.893,0.25,0.03,0.88,2.52,-0.37,-0.91,
0.894,0.26,0.04,0.88,2.52,-0.37,-0.91,
0.896,0.26,0.03,0.89,2.52,-0.37,-0.91,
0.898,0.27,0.04,0.89,2.52,-0.37,-0.91,
0.899,0.27,0.04,0.89,2.61,-0.32,-0.85,
0.901,0.27,0.04,0.89,2.61,-0.32,-0.85,
0.903,0.27,0.04,0.90,2.61,-0.32,-0.85,
0.904,0.27,0.04,0.90,2.71,-0.30,-0.79,
0.905,0.28,0.04,0.91,2.71,-0.30,-0.79,
0.908,0.28,0.05,0.92,2.71,-0.30,-0.79,
0.908,0.28,0.05,0.92,2.77,-0.24,-0.71,
0.91,0.29,0.05,0.93,2.77,-0.24,-0.71,
0.915,0.29,0.05,0.93,2.83,-0.18,-0.53,
0.915,0.29,0.05,0.94,2.83,-0.18,-0.53,
0.916,0.29,0.05,0.94,2.83,-0.18,-0.53,
0.918,0.29,0.05,0.95,2.83,-0.18,-0.53,
0.918,0.29,0.05,0.95,2.86,-0.12,-0.31,
0.92,0.29,0.06,0.97,2.86,-0.12,-0.31,
0.924,0.28,0.06,0.97,2.86,-0.12,-0.31,
0.924,0.28,0.06,0.97,2.85,-0.06,-0.18,
0.925,0.28,0.06,0.98,2.85,-0.06,-0.18,
0.928,0.28,0.06,0.98,2.81,-0.00,0.03,
0.928,0.28,0.06,0.99,2.81,-0.00,0.03,
0.932,0.28,0.06,0.99,2.81,-0.00,0.03,
0.933,0.27,0.06,0.99,2.81,-0.00,0.03,
0.934,0.27,0.06,0.99,2.76,0.01,0.17,
0.935,0.27,0.05,1.00,2.76,0.01,0.17,
0.938,0.27,0.05,1.00,2.70,0.04,0.21,
0.938,0.27,0.05,1.00,2.70,0.04,0.21,
0.94,0.27,0.05,0.99,2.70,0.04,0.21,
0.943,0.26,0.05,0.99,2.70,0.04,0.21,
0.943,0.26,0.05,0.99,2.64,-0.00,0.28,
0.945,0.26,0.05,0.99,2.64,-0.00,0.28,
0.948,0.26,0.04,0.99,2.64,-0.00,0.28,
0.949,0.26,0.04,0.99,2.57,-0.05,0.25,
0.95,0.25,0.04,0.99,2.57,-0.05,0.25,
0.953,0.25,0.04,0.99,2.51,-0.08,0.23,
0.953,0.25,0.03,0.98,2.51,-0.08,0.23,
0.955,0.25,0.03,0.98,2.51,-0.08,0.23,
0.957,0.25,0.03,0.98,2.51,-0.08,0.23,
0.957,0.25,0.03,0.98,2.45,-0.15,0.18,
0.96,0.26,0.02,0.98,2.45,-0.15,0.18,
0.962,0.27,0.02,0.99,2.45,-0.15,0.18,
0.965,0.27,0.02,0.99,2.43,-0.21,0.16,
0.965,0.27,0.02,0.99,2.43,-0.21,0.16,
0.967,0.28,0.02,0.99,2.43,-0.21,0.16,
0.968,0.28,0.02,0.99,2.53,-0.26,0.18,
0.97,0.28,0.02,1.00,2.53,-0.26,0.18,
0.974,0.29,0.02,1.00,2.53,-0.26,0.18,
0.974,0.29,0.02,1.00,2.62,-0.28,0.23,
0.975,0.30,0.02,1.00,2.62,-0.28,0.23,
0.977,0.30,0.03,1.00,2.62,-0.28,0.23,
0.978,0.30,0.03,1.00,2.74,-0.28,0.28,
0.98,0.30,0.03,1.00,2.74,-0.28,0.28,
0.985,0.30,0.03,1.00,2.74,-0.28,0.28,
0.986,0.30,0.03,1.00,2.86,-0.23,0.32,
0.986,0.31,0.03,1.00,2.86,-0.23,0.32,
0.991,0.31,0.03,1.00,2.86,-0.23,0.32,
0.992,0.31,0.03,1.00,2.88,-0.15,0.31,
0.992,0.32,0.04,1.00,2.88,-0.15,0.31,
0.993,0.32,0.05,1.00,2.88,-0.15,0.31,
0.993,0.32,0.05,1.00,2.91,-0.13,0.29,
0.995,0.32,0.05,1.00,2.91,-0.13,0.29,
0.998,0.32,0.05,0.99,2.91,-0.13,0.29,
0.999,0.32,0.05,0.99,2.98,-0.04,0.28,
1.0,0.33,0.05,0.99,2.98,-0.04,0.28,
1.002,0.33,0.05,0.98,2.98,-0.04,0.28,
1.006,0.33,0.05,0.98,2.99,-0.01,0.26,
1.006,0.33,0.06,0.98,2.99,-0.01,0.26,
1.007,0.33,0.06,0.98,2.99,-0.01,0.26,
1.007,0.33,0.06,0.98,3.07,-0.02,0.14,
1.01,0.33,0.06,0.98,3.07,-0.02,0.14,
1.012,0.33,0.07,0.97,3.07,-0.02,0.14,
1.013,0.33,0.07,0.97,3.06,0.07,0.10,
1.016,0.33,0.07,0.97,3.06,0.07,0.10,
1.018,0.32,0.08,0.97,3.06,0.07,0.10,
1.018,0.32,0.08,0.97,3.02,0.12,0.05,
1.021,0.32,0.08,0.97,3.02,0.12,0.05,
1.023,0.32,0.08,0.97,2.99,0.21,0.01,
1.023,0.32,0.08,0.98,2.99,0.21,0.01,
1.025,0.32,0.09,0.97,2.99,0.21,0.01,
1.028,0.32,0.09,0.98,2.99,0.21,0.01,
1.028,0.32,0.09,0.98,2.91,0.25,0.07,
1.03,0.32,0.09,0.99,2.91,0.25,0.07,
1.032,0.32,0.09,0.99,2.91,0.25,0.07,
1.032,0.32,0.09,0.99,2.91,0.32,0.08,
1.034,0.32,0.09,1.00,2.91,0.32,0.08,
1.038,0.32,0.09,1.00,2.91,0.34,0.22,
1.038,0.32,0.09,1.01,2.91,0.34,0.22,
1.04,0.33,0.09,1.01,2.91,0.34,0.22,
1.043,0.33,0.10,1.02,2.91,0.34,0.22,
1.043,0.33,0.10,1.02,2.96,0.41,0.34,
1.044,0.34,0.09,1.03,2.96,0.41,0.34,
1.047,0.34,0.09,1.05,2.96,0.41,0.34,
1.048,0.34,0.09,1.05,3.02,0.43,0.47,
1.05,0.34,0.09,1.05,3.02,0.43,0.47,
1.052,0.34,0.08,1.06,3.02,0.43,0.47,
1.052,0.34,0.08,1.06,3.09,0.39,0.67,
1.055,0.35,0.08,1.06,3.09,0.39,0.67,
1.057,0.35,0.08,1.08,3.09,0.39,0.67,
1.057,0.35,0.08,1.08,3.11,0.34,0.85,
1.06,0.35,0.07,1.08,3.11,0.34,0.85,
1.062,0.35,0.07,1.09,3.11,0.34,0.85,
1.062,0.35,0.07,1.09,3.18,0.30,0.99,
1.066,0.34,0.07,1.09,3.18,0.30,0.99,
1.067,0.34,0.06,1.09,3.18,0.30,0.99,
1.067,0.34,0.06,1.09,3.16,0.24,1.13,
1.069,0.34,0.06,1.09,3.16,0.24,1.13,
1.072,0.34,0.06,1.09,3.16,0.24,1.13,
1.072,0.34,0.06,1.09,3.11,0.22,1.19,
1.075,0.33,0.05,1.09,3.11,0.22,1.19,
1.077,0.32,0.05,1.10,3.11,0.22,1.19,
1.077,0.32,0.05,1.10,3.05,0.17,1.20,
1.079,0.32,0.06,1.10,3.05,0.17,1.20,
1.081,0.31,0.06,1.09,3.05,0.17,1.20,
1.081,0.31,0.06,1.09,2.98,0.16,1.21,
1.087,0.31,0.05,1.09,2.98,0.16,1.21,
1.088,0.31,0.06,1.10,2.98,0.16,1.21,
1.088,0.31,0.06,1.10,2.88,0.21,1.21,
1.089,0.31,0.06,1.10,2.88,0.21,1.21,
1.091,0.30,0.06,1.10,2.88,0.21,1.21,
1.092,0.30,0.06,1.10,2.82,0.23,1.20,
1.094,0.30,0.06,1.09,2.82,0.23,1.20,
1.097,0.31,0.06,1.09,2.82,0.23,1.20,
1.098,0.31,0.06,1.09,2.78,0.31,1.21,
1.1,0.31,0.06,1.10,2.78,0.31,1.21,
1.101,0.31,0.07,1.11,2.78,0.31,1.21,
1.101,0.31,0.07,1.11,2.78,0.31,1.20,
1.104,0.31,0.06,1.12,2.78,0.31,1.20,
1.107,0.31,0.06,1.12,2.78,0.31,1.20,
1.107,0.31,0.06,1.12,2.84,0.39,1.29,
1.109,0.31,0.06,1.13,2.84,0.39,1.29,
1.112,0.31,0.06,1.13,2.84,0.39,1.29,
1.112,0.31,0.06,1.13,2.81,0.37,1.44,
1.114,0.32,0.06,1.14,2.81,0.37,1.44,
1.116,0.32,0.06,1.14,2.81,0.37,1.44,
1.117,0.32,0.06,1.14,2.85,0.39,1.50,
1.119,0.32,0.06,1.15,2.85,0.39,1.50,
1.121,0.32,0.07,1.15,2.85,0.39,1.50,
1.121,0.32,0.07,1.15,2.91,0.42,1.62,
1.123,0.33,0.07,1.15,2.91,0.42,1.62,
1.126,0.33,0.07,1.15,2.91,0.42,1.62,
1.126,0.33,0.07,1.15,2.94,0.45,1.73,
1.128,0.32,0.08,1.15,2.94,0.45,1.73,
1.132,0.31,0.08,1.15,2.94,0.45,1.73,
1.132,0.31,0.08,1.15,3.00,0.48,1.73,
1.135,0.31,0.08,1.16,3.00,0.48,1.73,
1.136,0.31,0.08,1.16,3.00,0.48,1.73,
1.136,0.31,0.08,1.16,2.88,0.59,1.75,
1.138,0.30,0.09,1.15,2.88,0.59,1.75,
1.141,0.30,0.09,1.15,2.88,0.59,1.75,
1.141,0.30,0.09,1.15,2.81,0.64,1.77,
1.143,0.30,0.09,1.14,2.81,0.64,1.77,
1.146,0.29,0.09,1.14,2.81,0.64,1.77,
1.146,0.29,0.09,1.14,2.74,0.72,1.68,
1.149,0.29,0.09,1.14,2.74,0.72,1.68,
1.151,0.29,0.09,1.12,2.74,0.72,1.68,
1.154,0.29,0.09,1.12,2.69,0.71,1.59,
1.155,0.28,0.08,1.12,2.69,0.71,1.59,
1.155,0.28,0.09,1.12,2.69,0.71,1.59,
1.156,0.28,0.09,1.12,2.62,0.75,1.50,
1.158,0.28,0.08,1.11,2.62,0.75,1.50,
1.16,0.28,0.08,1.11,2.56,0.68,1.37,
1.161,0.28,0.08,1.10,2.56,0.68,1.37,
1.163,0.27,0.09,1.09,2.56,0.68,1.37,
1.166,0.27,0.08,1.09,2.56,0.68,1.37,
1.167,0.27,0.08,1.09,2.53,0.67,1.25,
1.168,0.27,0.08,1.08,2.53,0.67,1.25,
1.17,0.27,0.07,1.07,2.53,0.67,1.25,
1.171,0.27,0.07,1.07,2.44,0.66,1.11,
1.173,0.27,0.07,1.07,2.44,0.66,1.11,
1.175,0.26,0.07,1.05,2.44,0.66,1.11,
1.175,0.26,0.07,1.05,2.47,0.58,0.97,
1.178,0.26,0.06,1.05,2.47,0.58,0.97,
1.18,0.26,0.07,1.05,2.47,0.58,0.97,
1.18,0.26,0.07,1.05,2.41,0.52,0.81,
1.187,0.25,0.06,1.04,2.41,0.52,0.81,
1.187,0.25,0.06,1.04,2.36,0.46,0.68,
1.188,0.25,0.06,1.03,2.36,0.46,0.68,
1.19,0.24,0.07,1.03,2.36,0.46,0.68,
1.191,0.25,0.06,1.02,2.36,0.46,0.68,
1.191,0.25,0.06,1.02,2.31,0.44,0.57,
1.192,0.24,0.06,1.03,2.31,0.44,0.57,
1.195,0.24,0.06,1.02,2.31,0.44,0.57,
1.195,0.24,0.06,1.02,2.24,0.44,0.46,
1.197,0.24,0.06,1.02,2.24,0.44,0.46,
1.2,0.24,0.05,1.03,2.24,0.44,0.46,
1.201,0.24,0.05,1.03,2.18,0.42,0.45,
1.203,0.24,0.06,1.03,2.18,0.42,0.45,
1.205,0.24,0.06,1.03,2.18,0.42,0.45,
1.206,0.24,0.06,1.03,2.16,0.40,0.44,
1.208,0.24,0.05,1.03,2.16,0.40,0.44,
1.21,0.24,0.05,1.03,2.16,0.43,0.47,
1.21,0.24,0.05,1.03,2.16,0.43,0.47,
1.213,0.24,0.05,1.04,2.16,0.43,0.47,
1.216,0.24,0.05,1.03,2.16,0.43,0.47,
1.218,0.24,0.05,1.03,2.16,0.39,0.48,
1.218,0.24,0.05,1.03,2.16,0.39,0.48,
1.22,0.24,0.04,1.02,2.16,0.39,0.48,
1.22,0.24,0.04,1.02,2.18,0.37,0.53,
1.222,0.24,0.05,1.03,2.18,0.37,0.53,
1.225,0.24,0.04,1.02,2.18,0.37,0.53,
1.225,0.24,0.04,1.02,2.17,0.32,0.45,
1.227,0.24,0.04,1.02,2.17,0.32,0.45,
1.23,0.23,0.04,1.02,2.17,0.32,0.45,
1.23,0.23,0.04,1.02,2.15,0.33,0.44,
1.234,0.23,0.04,1.02,2.15,0.33,0.44,
1.235,0.23,0.04,1.02,2.11,0.30,0.39,
1.236,0.22,0.04,1.01,2.11,0.30,0.39,
1.238,0.22,0.04,1.00,2.11,0.30,0.39,
1.241,0.21,0.04,1.00,2.11,0.30,0.39,
1.241,0.21,0.04,1.00,1.98,0.33,0.34,
1.243,0.21,0.05,1.00,1.98,0.33,0.34,
1.246,0.20,0.05,1.01,1.98,0.33,0.34,
1.246,0.20,0.05,1.01,1.91,0.32,0.23,
1.247,0.20,0.05,1.01,1.91,0.32,0.23,
1.251,0.20,0.05,1.01,1.91,0.32,0.23,
1.251,0.20,0.05,1.01,1.83,0.38,0.24,
1.252,0.21,0.05,1.02,1.83,0.38,0.24,
1.255,0.20,0.05,1.02,1.83,0.38,0.24,
1.255,0.20,0.05,1.02,1.79,0.40,0.30,
1.258,0.20,0.05,1.02,1.79,0.40,0.30,
1.26,0.19,0.05,1.03,1.79,0.40,0.30,
1.26,0.19,0.05,1.03,1.79,0.44,0.36,
1.262,0.20,0.05,1.03,1.79,0.44,0.36,
1.265,0.19,0.05,1.04,1.79,0.44,0.36,
1.265,0.19,0.05,1.04,1.72,0.46,0.48,
1.267,0.20,0.05,1.04,1.72,0.46,0.48,
1.269,0.20,0.04,1.04,1.72,0.46,0.48,
1.27,0.20,0.04,1.04,1.71,0.45,0.55,
1.273,0.19,0.03,1.04,1.71,0.45,0.55,
1.275,0.19,0.03,1.04,1.71,0.45,0.55,
1.275,0.19,0.03,1.04,1.72,0.39,0.56,
1.277,0.19,0.02,1.05,1.72,0.39,0.56,
1.28,0.19,0.02,1.05,1.72,0.39,0.56,
1.28,0.19,0.02,1.05,1.69,0.29,0.61,
1.288,0.19,0.01,1.05,1.69,0.29,0.61,
1.288,0.19,0.01,1.05,1.64,0.19,0.65,
1.288,0.18,0.01,1.05,1.64,0.19,0.65,
1.289,0.18,0.00,1.05,1.64,0.19,0.65,
1.289,0.18,0.00,1.05,1.64,0.19,0.65,
1.29,0.18,0.00,1.05,1.61,0.09,0.68,
1.292,0.18,-0.01,1.05,1.61,0.09,0.68,
1.295,0.17,-0.01,1.05,1.61,0.09,0.68,
1.295,0.17,-0.01,1.05,1.57,0.02,0.68,
1.297,0.17,-0.02,1.06,1.57,0.02,0.68,
1.299,0.17,-0.02,1.06,1.57,0.02,0.68,
1.299,0.17,-0.02,1.06,1.46,-0.07,0.71,
1.301,0.16,-0.02,1.07,1.46,-0.07,0.71,
1.304,0.15,-0.03,1.07,1.46,-0.07,0.71,
1.304,0.15,-0.03,1.07,1.40,-0.15,0.79,
1.307,0.15,-0.02,1.07,1.40,-0.15,0.79,
1.31,0.15,-0.03,1.08,1.40,-0.15,0.79,
1.31,0.15,-0.03,1.08,1.32,-0.20,0.83,
1.313,0.14,-0.03,1.08,1.32,-0.20,0.83,
1.315,0.14,-0.03,1.08,1.32,-0.20,0.83,
1.315,0.14,-0.03,1.08,1.24,-0.18,0.92,
1.317,0.14,-0.03,1.08,1.24,-0.18,0.92,
1.319,0.13,-0.03,1.08,1.24,-0.18,0.92,
1.32,0.13,-0.03,1.08,1.15,-0.23,0.93,
1.322,0.14,-0.03,1.08,1.15,-0.23,0.93,
1.324,0.14,-0.02,1.08,1.15,-0.23,0.93,
1.325,0.14,-0.02,1.08,1.06,-0.24,0.96,
1.327,0.14,-0.03,1.09,1.06,-0.24,0.96,
1.329,0.14,-0.02,1.09,1.06,-0.24,0.96,
1.33,0.14,-0.02,1.09,1.09,-0.19,0.97,
1.332,0.14,-0.02,1.08,1.09,-0.19,0.97,
1.334,0.13,-0.02,1.08,1.09,-0.19,0.97,
1.335,0.13,-0.02,1.08,1.11,-0.19,1.01,
1.337,0.13,-0.02,1.07,1.11,-0.19,1.01,
1.339,0.13,-0.02,1.07,1.11,-0.19,1.01,
1.34,0.13,-0.02,1.07,1.07,-0.18,0.96,
1.342,0.13,-0.02,1.06,1.07,-0.18,0.96,
1.345,0.13,-0.02,1.05,1.07,-0.18,0.96,
1.345,0.13,-0.02,1.05,1.05,-0.14,0.85,
1.347,0.13,-0.02,1.05,1.05,-0.14,0.85,
1.349,0.13,-0.02,1.04,1.05,-0.14,0.85,
1.349,0.13,-0.02,1.04,1.01,-0.16,0.72,
1.352,0.12,-0.03,1.04,1.01,-0.16,0.72,
1.354,0.12,-0.03,1.03,1.01,-0.16,0.72,
1.354,0.12,-0.03,1.03,1.01,-0.18,0.58,
1.357,0.11,-0.04,1.03,1.01,-0.18,0.58,
1.359,0.11,-0.04,1.03,0.92,-0.21,0.50,
1.36,0.11,-0.04,1.02,0.92,-0.21,0.50,
1.362,0.11,-0.04,1.02,0.92,-0.21,0.50,
1.364,0.11,-0.04,1.02,0.92,-0.21,0.50,
1.364,0.11,-0.04,1.02,0.83,-0.30,0.41,
1.366,0.10,-0.04,1.02,0.83,-0.30,0.41,
1.368,0.10,-0.05,1.02,0.83,-0.30,0.41,
1.369,0.10,-0.05,1.02,0.80,-0.33,0.33,
1.372,0.10,-0.05,1.02,0.80,-0.33,0.33,
1.374,0.10,-0.05,1.01,0.80,-0.33,0.33,
1.374,0.10,-0.05,1.01,0.75,-0.38,0.36,
1.377,0.09,-0.05,1.02,0.75,-0.38,0.36,
1.379,0.09,-0.05,1.02,0.71,-0.43,0.31,
1.379,0.09,-0.05,1.02,0.71,-0.43,0.31,
1.381,0.08,-0.05,1.02,0.71,-0.43,0.31,
1.387,0.07,-0.05,1.03,0.71,-0.43,0.31,
1.388,0.07,-0.05,1.03,0.64,-0.43,0.32,
1.388,0.08,-0.05,1.02,0.64,-0.43,0.32,
1.388,0.08,-0.05,1.03,0.64,-0.43,0.32,
1.388,0.08,-0.05,1.03,0.52,-0.40,0.40,
1.393,0.07,-0.05,1.03,0.52,-0.40,0.40,
1.394,0.07,-0.05,1.03,0.52,-0.40,0.40,
1.395,0.07,-0.05,1.03,0.51,-0.40,0.40,
1.396,0.06,-0.05,1.02,0.51,-0.40,0.40,
1.399,0.06,-0.05,1.03,0.51,-0.40,0.40,
1.399,0.06,-0.05,1.03,0.46,-0.41,0.46,
1.401,0.06,-0.05,1.02,0.46,-0.41,0.46,
1.403,0.06,-0.05,1.02,0.46,-0.41,0.46,
1.404,0.06,-0.05,1.02,0.38,-0.39,0.42,
1.405,0.06,-0.06,1.01,0.38,-0.39,0.42,
1.408,0.06,-0.06,1.02,0.38,-0.39,0.42,
1.408,0.06,-0.06,1.02,0.37,-0.44,0.34,
1.41,0.06,-0.06,1.01,0.37,-0.44,0.34,
1.413,0.06,-0.06,1.01,0.37,-0.44,0.34,
1.413,0.06,-0.06,1.01,0.35,-0.47,0.29,
1.415,0.05,-0.06,1.01,0.35,-0.47,0.29,
1.419,0.04,-0.06,1.01,0.35,-0.47,0.29,
1.419,0.04,-0.06,1.01,0.36,-0.50,0.24,
1.42,0.04,-0.06,1.00,0.36,-0.50,0.24,
1.423,0.04,-0.06,1.00,0.36,-0.50,0.24,
1.423,0.04,-0.06,1.00,0.25,-0.50,0.21,
1.425,0.04,-0.06,1.00,0.25,-0.50,0.21,
1.428,0.03,-0.06,0.99,0.25,-0.50,0.21,
1.428,0.03,-0.06,0.99,0.20,-0.54,0.16,
1.43,0.03,-0.06,0.99,0.20,-0.54,0.16,
1.435,0.03,-0.06,0.99,0.11,-0.52,0.10,
1.436,0.03,-0.06,0.99,0.11,-0.52,0.10,
1.436,0.02,-0.06,0.99,0.11,-0.52,0.10,
1.438,0.03,-0.06,0.98,0.11,-0.52,0.10,
1.438,0.03,-0.06,0.98,0.05,-0.51,0.03,
1.44,0.02,-0.06,0.98,0.05,-0.51,0.03,
1.443,0.02,-0.06,0.97,0.05,-0.51,0.03,
1.443,0.02,-0.06,0.97,0.03,-0.53,-0.00,
1.445,0.02,-0.06,0.97,0.03,-0.53,-0.00,
1.448,0.01,-0.06,0.95,0.03,-0.53,-0.00,
1.448,0.01,-0.06,0.95,-0.03,-0.52,-0.10,
1.451,0.01,-0.07,0.95,-0.03,-0.52,-0.10,
1.452,0.00,-0.07,0.95,-0.03,-0.52,-0.10,
1.453,0.00,-0.07,0.95,-0.07,-0.56,-0.24,
1.455,0.00,-0.07,0.94,-0.07,-0.56,-0.24,
1.458,0.00,-0.07,0.94,-0.15,-0.63,-0.37,
1.458,0.00,-0.08,0.93,-0.15,-0.63,-0.37,
1.46,-0.00,-0.08,0.93,-0.15,-0.63,-0.37,
1.462,-0.01,-0.08,0.92,-0.15,-0.63,-0.37,
1.463,-0.01,-0.08,0.92,-0.16,-0.68,-0.48,
1.465,-0.01,-0.08,0.91,-0.16,-0.68,-0.48,
1.468,-0.01,-0.08,0.92,-0.16,-0.68,-0.48,
1.469,-0.01,-0.08,0.92,-0.27,-0.74,-0.62,
1.47,-0.02,-0.09,0.91,-0.27,-0.74,-0.62,
1.472,-0.02,-0.09,0.92,-0.27,-0.74,-0.62,
1.472,-0.02,-0.09,0.92,-0.32,-0.78,-0.70,
1.475,-0.03,-0.09,0.92,-0.32,-0.78,-0.70,
1.477,-0.04,-0.08,0.92,-0.32,-0.78,-0.70,
1.477,-0.04,-0.08,0.92,-0.42,-0.83,-0.68,
1.48,-0.05,-0.09,0.91,-0.42,-0.83,-0.68,
1.483,-0.05,-0.09,0.91,-0.42,-0.83,-0.68,
1.483,-0.05,-0.09,0.91,-0.58,-0.82,-0.67,
1.492,-0.06,-0.09,0.91,-0.58,-0.82,-0.67,
1.492,-0.06,-0.09,0.91,-0.58,-0.82,-0.67,
1.495,-0.06,-0.09,0.91,-0.71,-0.85,-0.70,
1.495,-0.06,-0.10,0.91,-0.71,-0.85,-0.70,
1.495,-0.07,-0.10,0.91,-0.71,-0.85,-0.70,
1.496,-0.07,-0.10,0.91,-0.84,-0.90,-0.71,
1.496,-0.07,-0.11,0.91,-0.84,-0.90,-0.71,
1.498,-0.07,-0.11,0.91,-0.84,-0.90,-0.71,
1.499,-0.07,-0.11,0.91,-0.86,-0.96,-0.72,
1.501,-0.08,-0.11,0.91,-0.86,-0.96,-0.72,
1.502,-0.08,-0.12,0.92,-0.86,-0.96,-0.72,
1.502,-0.08,-0.12,0.92,-0.93,-1.04,-0.70,
1.505,-0.08,-0.12,0.92,-0.93,-1.04,-0.70,
1.507,-0.08,-0.12,0.92,-0.97,-1.11,-0.67,
1.508,-0.09,-0.12,0.91,-0.97,-1.11,-0.67,
1.51,-0.10,-0.12,0.92,-0.97,-1.11,-0.67,
1.512,-0.10,-0.12,0.92,-0.97,-1.11,-0.67,
1.512,-0.10,-0.12,0.92,-1.07,-1.15,-0.66,
1.515,-0.11,-0.12,0.91,-1.07,-1.15,-0.66,
1.518,-0.12,-0.12,0.91,-1.07,-1.15,-0.66,
1.519,-0.12,-0.12,0.91,-1.21,-1.16,-0.63,
1.52,-0.13,-0.12,0.91,-1.21,-1.16,-0.63,
1.522,-0.13,-0.12,0.90,-1.21,-1.16,-0.63,
1.523,-0.13,-0.12,0.90,-1.36,-1.19,-0.68,
1.525,-0.14,-0.12,0.90,-1.36,-1.19,-0.68,
1.527,-0.15,-0.13,0.90,-1.36,-1.19,-0.68,
1.527,-0.15,-0.13,0.90,-1.50,-1.19,-0.75,
1.53,-0.15,-0.13,0.90,-1.50,-1.19,-0.75,
1.532,-0.15,-0.13,0.90,-1.66,-1.21,-0.78,
1.532,-0.16,-0.13,0.90,-1.66,-1.21,-0.78,
1.534,-0.16,-0.13,0.90,-1.66,-1.21,-0.78,
1.537,-0.17,-0.13,0.89,-1.66,-1.21,-0.78,
1.537,-0.17,-0.13,0.89,-1.78,-1.25,-0.81,
1.54,-0.18,-0.13,0.90,-1.78,-1.25,-0.81,
1.542,-0.18,-0.13,0.90,-1.91,-1.29,-0.85,
1.543,-0.19,-0.14,0.90,-1.91,-1.29,-0.85,
1.545,-0.20,-0.14,0.90,-1.91,-1.29,-0.85,
1.547,-0.20,-0.14,0.90,-1.91,-1.29,-0.85,
1.547,-0.20,-0.14,0.90,-2.09,-1.31,-0.80,
1.549,-0.21,-0.14,0.90,-2.09,-1.31,-0.80,
1.552,-0.22,-0.13,0.91,-2.09,-1.31,-0.80,
1.553,-0.22,-0.13,0.91,-2.25,-1.34,-0.83,
1.555,-0.22,-0.14,0.91,-2.25,-1.34,-0.83,
1.557,-0.22,-0.14,0.91,-2.37,-1.31,-0.77,
1.558,-0.23,-0.14,0.91,-2.37,-1.31,-0.77,
1.559,-0.23,-0.14,0.92,-2.37,-1.31,-0.77,
1.562,-0.24,-0.14,0.92,-2.37,-1.31,-0.77,
1.562,-0.24,-0.14,0.92,-2.54,-1.35,-0.71,
1.565,-0.23,-0.14,0.93,-2.54,-1.35,-0.71,
1.572,-0.23,-0.14,0.93,-2.54,-1.35,-0.71,
1.573,-0.23,-0.14,0.93,-2.63,-1.35,-0.60,
1.573,-0.24,-0.14,0.94,-2.63,-1.35,-0.60,
1.573,-0.24,-0.14,0.94,-2.63,-1.37,-0.50,
1.574,-0.24,-0.14,0.94,-2.63,-1.37,-0.50,
1.574,-0.25,-0.14,0.95,-2.63,-1.37,-0.50,
1.576,-0.24,-0.14,0.95,-2.63,-1.37,-0.50,
1.577,-0.24,-0.14,0.95,-2.66,-1.37,-0.38,
1.579,-0.24,-0.14,0.96,-2.66,-1.37,-0.38,
1.581,-0.24,-0.14,0.96,-2.77,-1.39,-0.29,
1.582,-0.25,-0.14,0.96,-2.77,-1.39,-0.29,
1.584,-0.25,-0.14,0.96,-2.77,-1.39,-0.29,
1.586,-0.25,-0.14,0.95,-2.77,-1.39,-0.29,
1.587,-0.25,-0.14,0.95,-2.81,-1.38,-0.23,
1.589,-0.25,-0.14,0.95,-2.81,-1.38,-0.23,
1.592,-0.26,-0.14,0.95,-2.81,-1.38,-0.23,
1.592,-0.26,-0.14,0.95,-2.87,-1.41,-0.26,
1.594,-0.27,-0.13,0.94,-2.87,-1.41,-0.26,
1.597,-0.27,-0.14,0.93,-2.87,-1.41,-0.26,
1.597,-0.27,-0.14,0.93,-2.93,-1.44,-0.27,
1.599,-0.27,-0.14,0.92,-2.93,-1.44,-0.27,
1.602,-0.27,-0.14,0.92,-2.93,-1.44,-0.27,
1.603,-0.27,-0.14,0.92,-3.07,-1.42,-0.44,
1.603,-0.27,-0.13,0.91,-3.07,-1.42,-0.44,
1.606,-0.27,-0.13,0.91,-3.13,-1.48,-0.59,
1.607,-0.27,-0.13,0.91,-3.13,-1.48,-0.59,
1.609,-0.27,-0.13,0.90,-3.13,-1.48,-0.59,
1.611,-0.27,-0.13,0.89,-3.13,-1.48,-0.59,
1.612,-0.27,-0.13,0.89,-3.16,-1.43,-0.70,
1.614,-0.27,-0.13,0.88,-3.16,-1.43,-0.70,
1.616,-0.28,-0.12,0.87,-3.16,-1.43,-0.70,
1.617,-0.28,-0.12,0.87,-3.18,-1.45,-0.84,
1.619,-0.27,-0.12,0.87,-3.18,-1.45,-0.84,
1.621,-0.26,-0.12,0.86,-3.18,-1.45,-0.84,
1.621,-0.26,-0.12,0.86,-3.23,-1.41,-0.99,
1.624,-0.26,-0.11,0.86,-3.23,-1.41,-0.99,
1.627,-0.25,-0.11,0.85,-3.23,-1.41,-0.99,
1.627,-0.25,-0.11,0.85,-3.15,-1.36,-1.11,
1.629,-0.24,-0.10,0.86,-3.15,-1.36,-1.11,
1.631,-0.24,-0.10,0.86,-3.15,-1.36,-1.11,
1.632,-0.24,-0.10,0.86,-3.07,-1.32,-1.19,
1.634,-0.24,-0.09,0.86,-3.07,-1.32,-1.19,
1.636,-0.22,-0.09,0.85,-3.07,-1.32,-1.19,
1.637,-0.22,-0.09,0.85,-2.92,-1.26,-1.18,
1.638,-0.22,-0.09,0.85,-2.92,-1.26,-1.18,
1.641,-0.22,-0.09,0.85,-2.92,-1.26,-1.18,
1.641,-0.22,-0.09,0.85,-2.84,-1.17,-1.20,
1.643,-0.21,-0.08,0.84,-2.84,-1.17,-1.20,
1.646,-0.20,-0.08,0.84,-2.84,-1.17,-1.20,
1.648,-0.20,-0.08,0.84,-2.72,-1.15,-1.24,
1.648,-0.20,-0.08,0.83,-2.72,-1.15,-1.24,
1.653,-0.20,-0.08,0.82,-2.72,-1.15,-1.24,
1.654,-0.20,-0.08,0.82,-2.64,-1.11,-1.31,
1.654,-0.21,-0.08,0.82,-2.64,-1.11,-1.31,
1.656,-0.21,-0.08,0.81,-2.64,-1.11,-1.31,
1.656,-0.21,-0.08,0.81,-2.57,-1.09,-1.47,
1.658,-0.22,-0.08,0.80,-2.57,-1.09,-1.47,
1.66,-0.23,-0.08,0.80,-2.57,-1.09,-1.47,
1.661,-0.23,-0.08,0.80,-2.65,-1.06,-1.56,
1.663,-0.23,-0.08,0.79,-2.65,-1.06,-1.56,
1.665,-0.24,-0.08,0.79,-2.65,-1.06,-1.56,
1.665,-0.24,-0.08,0.79,-2.78,-1.09,-1.73,
1.669,-0.25,-0.08,0.79,-2.78,-1.09,-1.73,
1.67,-0.26,-0.08,0.80,-2.78,-1.09,-1.73,
1.67,-0.26,-0.08,0.80,-2.92,-1.08,-1.82,
1.673,-0.26,-0.09,0.82,-2.92,-1.08,-1.82,
1.675,-0.27,-0.08,0.82,-2.92,-1.08,-1.82,
1.676,-0.27,-0.08,0.82,-3.10,-1.05,-1.73,
1.678,-0.29,-0.08,0.84,-3.10,-1.05,-1.73,
1.68,-0.29,-0.08,0.84,-3.22,-1.09,-1.51,
1.681,-0.30,-0.09,0.86,-3.22,-1.09,-1.51,
1.683,-0.30,-0.09,0.88,-3.22,-1.09,-1.51,
1.69,-0.31,-0.09,0.90,-3.22,-1.09,-1.51,
1.69,-0.31,-0.09,0.90,-3.50,-1.04,-1.21,
1.691,-0.31,-0.09,0.93,-3.50,-1.04,-1.21,
1.691,-0.32,-0.09,0.95,-3.50,-1.04,-1.21,
1.691,-0.32,-0.09,0.95,-3.62,-1.05,-0.81,
1.695,-0.32,-0.09,0.96,-3.62,-1.05,-0.81,
1.695,-0.32,-0.09,0.99,-3.62,-1.05,-0.81,
1.695,-0.32,-0.09,0.99,-3.75,-1.07,-0.34,
1.697,-0.32,-0.10,1.01,-3.75,-1.07,-0.34,
1.7,-0.32,-0.10,1.01,-3.84,-1.07,0.03,
1.7,-0.32,-0.10,1.02,-3.84,-1.07,0.03,
1.703,-0.31,-0.10,1.02,-3.84,-1.07,0.03,
1.705,-0.31,-0.10,1.02,-3.83,-1.13,0.38,
1.705,-0.30,-0.11,1.03,-3.83,-1.13,0.38,
1.707,-0.29,-0.10,1.03,-3.83,-1.13,0.38,
1.71,-0.28,-0.10,1.04,-3.83,-1.13,0.38,
1.71,-0.28,-0.10,1.04,-3.77,-1.17,0.50,
1.712,-0.28,-0.11,1.04,-3.77,-1.17,0.50,
1.715,-0.28,-0.11,1.04,-3.77,-1.17,0.50,
1.716,-0.28,-0.11,1.04,-3.60,-1.14,0.64,
1.719,-0.27,-0.11,1.04,-3.60,-1.14,0.64,
1.721,-0.27,-0.11,1.04,-3.60,-1.14,0.64,
1.722,-0.27,-0.11,1.04,-3.53,-1.16,0.68,
1.722,-0.27,-0.11,1.03,-3.53,-1.16,0.68,
1.725,-0.26,-0.11,1.02,-3.53,-1.16,0.68,
1.725,-0.26,-0.11,1.02,-3.46,-1.17,0.63,
1.727,-0.26,-0.11,1.01,-3.46,-1.17,0.63,
1.73,-0.26,-0.11,1.01,-3.46,-1.17,0.63,
1.731,-0.26,-0.11,1.01,-3.42,-1.17,0.48,
1.733,-0.26,-0.11,1.00,-3.42,-1.17,0.48,
1.738,-0.26,-0.10,0.99,-3.42,-1.17,0.48,
1.739,-0.26,-0.10,0.99,-3.37,-1.17,0.38,
1.739,-0.25,-0.10,0.99,-3.37,-1.17,0.38,
1.741,-0.26,-0.10,0.99,-3.37,-1.17,0.38,
1.741,-0.26,-0.10,0.99,-3.36,-1.11,0.26,
1.742,-0.26,-0.10,0.98,-3.36,-1.11,0.26,
1.745,-0.27,-0.10,0.98,-3.36,-1.11,0.26,
1.745,-0.27,-0.10,0.98,-3.37,-1.08,0.17,
1.748,-0.27,-0.09,0.98,-3.37,-1.08,0.17,
1.749,-0.27,-0.09,0.97,-3.37,-1.08,0.17,
1.75,-0.27,-0.09,0.97,-3.47,-1.02,0.07,
1.754,-0.27,-0.09,0.97,-3.47,-1.02,0.07,
1.755,-0.27,-0.08,0.96,-3.47,-1.02,0.07,
1.755,-0.27,-0.08,0.96,-3.50,-0.91,0.01,
1.757,-0.27,-0.08,0.96,-3.50,-0.91,0.01,
1.76,-0.27,-0.09,0.96,-3.50,-0.91,0.01,
1.761,-0.27,-0.09,0.96,-3.52,-0.88,-0.08,
1.762,-0.27,-0.08,0.97,-3.52,-0.88,-0.08,
1.764,-0.27,-0.08,0.97,-3.52,-0.88,-0.08,
1.765,-0.27,-0.08,0.97,-3.54,-0.85,-0.09,
1.767,-0.27,-0.08,0.97,-3.54,-0.85,-0.09,
1.776,-0.27,-0.08,0.97,-3.54,-0.85,-0.09,
1.777,-0.27,-0.08,0.97,-3.52,-0.82,-0.02,
1.777,-0.26,-0.08,0.98,-3.52,-0.82,-0.02,
1.777,-0.26,-0.08,0.99,-3.52,-0.82,-0.02,
1.778,-0.26,-0.08,0.99,-3.54,-0.78,0.01,
1.778,-0.26,-0.07,1.00,-3.54,-0.78,0.01,
1.78,-0.25,-0.07,1.00,-3.54,-0.78,0.01,
1.78,-0.25,-0.07,1.00,-3.50,-0.72,0.11,
1.782,-0.24,-0.07,1.01,-3.50,-0.72,0.11,
1.788,-0.23,-0.07,1.02,-3.50,-0.72,0.11,
1.789,-0.23,-0.07,1.02,-3.42,-0.67,0.28,
1.789,-0.23,-0.07,1.03,-3.42,-0.67,0.28,
1.789,-0.22,-0.06,1.04,-3.42,-0.67,0.28,
1.79,-0.22,-0.06,1.04,-3.31,-0.64,0.44,
1.791,-0.21,-0.06,1.05,-3.31,-0.64,0.44,
1.794,-0.21,-0.06,1.06,-3.31,-0.64,0.44,
1.795,-0.21,-0.06,1.06,-3.18,-0.53,0.66,
1.797,-0.19,-0.06,1.06,-3.18,-0.53,0.66,
1.799,-0.18,-0.06,1.07,-3.18,-0.53,0.66,
1.8,-0.18,-0.06,1.07,-3.06,-0.51,0.84,
1.803,-0.17,-0.06,1.07,-3.06,-0.51,0.84,
1.805,-0.17,-0.06,1.07,-2.81,-0.48,0.91,
1.805,-0.16,-0.06,1.08,-2.81,-0.48,0.91,
1.806,-0.15,-0.06,1.09,-2.81,-0.48,0.91,
1.809,-0.14,-0.06,1.09,-2.81,-0.48,0.91,
1.809,-0.14,-0.06,1.09,-2.68,-0.48,1.03,
1.812,-0.14,-0.06,1.09,-2.68,-0.48,1.03,
1.814,-0.14,-0.06,1.10,-2.68,-0.48,1.03,
1.815,-0.14,-0.06,1.10,-2.49,-0.43,1.14,
1.817,-0.14,-0.06,1.10,-2.49,-0.43,1.14,
1.82,-0.14,-0.05,1.10,-2.49,-0.43,1.14,
1.82,-0.14,-0.05,1.10,-2.42,-0.41,1.21,
1.822,-0.14,-0.05,1.10,-2.42,-0.41,1.21,
1.824,-0.14,-0.05,1.10,-2.42,-0.41,1.21,
1.825,-0.14,-0.05,1.10,-2.40,-0.37,1.23,
1.828,-0.14,-0.05,1.11,-2.40,-0.37,1.23,
1.829,-0.14,-0.05,1.11,-2.44,-0.33,1.28,
1.83,-0.15,-0.05,1.11,-2.44,-0.33,1.28,
1.831,-0.15,-0.05,1.11,-2.44,-0.33,1.28,
1.834,-0.16,-0.05,1.11,-2.44,-0.33,1.28,
1.835,-0.16,-0.05,1.11,-2.51,-0.29,1.33,
1.837,-0.16,-0.05,1.10,-2.51,-0.29,1.33,
1.839,-0.16,-0.06,1.10,-2.51,-0.29,1.33,
1.839,-0.16,-0.06,1.10,-2.59,-0.28,1.35,
1.842,-0.17,-0.06,1.11,-2.59,-0.28,1.35,
1.845,-0.17,-0.07,1.11,-2.59,-0.28,1.35,
1.845,-0.17,-0.07,1.11,-2.65,-0.31,1.28,
1.847,-0.18,-0.07,1.11,-2.65,-0.31,1.28,
1.849,-0.18,-0.08,1.12,-2.65,-0.31,1.28,
1.849,-0.18,-0.08,1.12,-2.73,-0.35,1.35,
1.852,-0.18,-0.08,1.13,-2.73,-0.35,1.35,
1.854,-0.18,-0.08,1.13,-2.80,-0.43,1.41,
1.854,-0.18,-0.08,1.14,-2.80,-0.43,1.41,
1.857,-0.18,-0.08,1.15,-2.80,-0.43,1.41,
1.859,-0.17,-0.08,1.15,-2.80,-0.43,1.41,
1.859,-0.17,-0.08,1.15,-2.83,-0.41,1.58,
1.862,-0.18,-0.08,1.16,-2.83,-0.41,1.58,
1.864,-0.17,-0.08,1.16,-2.83,-0.41,1.58,
1.864,-0.17,-0.08,1.16,-2.79,-0.40,1.71,
1.867,-0.16,-0.08,1.17,-2.79,-0.40,1.71,
1.874,-0.16,-0.08,1.17,-2.79,-0.40,1.71,
1.875,-0.16,-0.08,1.17,-2.75,-0.39,1.81,
1.875,-0.16,-0.08,1.17,-2.75,-0.39,1.81,
1.875,-0.16,-0.09,1.17,-2.75,-0.39,1.81,
1.875,-0.16,-0.09,1.17,-2.68,-0.37,1.90,
1.877,-0.16,-0.08,1.18,-2.68,-0.37,1.90,
1.879,-0.16,-0.08,1.18,-2.64,-0.39,1.93,
1.879,-0.16,-0.08,1.18,-2.64,-0.39,1.93,
1.882,-0.15,-0.09,1.18,-2.64,-0.39,1.93,
1.885,-0.15,-0.09,1.18,-2.64,-0.39,1.93,
1.885,-0.15,-0.09,1.18,-2.60,-0.36,2.01,
1.887,-0.15,-0.09,1.18,-2.60,-0.36,2.01,
1.889,-0.14,-0.08,1.18,-2.60,-0.36,2.01,
1.889,-0.14,-0.08,1.18,-2.50,-0.36,2.01,
1.891,-0.14,-0.09,1.17,-2.50,-0.36,2.01,
1.894,-0.13,-0.09,1.17,-2.50,-0.36,2.01,
1.894,-0.13,-0.09,1.17,-2.42,-0.33,2.02,
1.896,-0.13,-0.08,1.17,-2.42,-0.33,2.02,
1.899,-0.13,-0.08,1.17,-2.42,-0.33,2.02,
1.899,-0.13,-0.08,1.17,-2.34,-0.32,1.95,
1.901,-0.12,-0.08,1.17,-2.34,-0.32,1.95,
1.903,-0.12,-0.08,1.17,-2.25,-0.25,1.89,
1.904,-0.12,-0.08,1.18,-2.25,-0.25,1.89,
1.907,-0.11,-0.08,1.17,-2.25,-0.25,1.89,
1.908,-0.11,-0.08,1.17,-2.25,-0.25,1.89,
1.908,-0.11,-0.08,1.17,-2.16,-0.24,1.96,
1.911,-0.11,-0.08,1.18,-2.16,-0.24,1.96,
1.914,-0.10,-0.08,1.18,-2.16,-0.24,1.96,
1.914,-0.10,-0.08,1.18,-2.05,-0.21,1.94,
1.916,-0.09,-0.08,1.18,-2.05,-0.21,1.94,
1.918,-0.09,-0.07,1.19,-2.05,-0.21,1.94,
1.919,-0.09,-0.07,1.19,-1.96,-0.17,1.97,
1.921,-0.08,-0.07,1.19,-1.96,-0.17,1.97,
1.923,-0.08,-0.07,1.19,-1.96,-0.17,1.97,
1.923,-0.08,-0.07,1.19,-1.82,-0.12,2.06,
1.925,-0.08,-0.07,1.18,-1.82,-0.12,2.06,
1.929,-0.08,-0.07,1.18,-1.74,-0.06,2.07,
1.929,-0.07,-0.07,1.18,-1.74,-0.06,2.07,
1.931,-0.07,-0.08,1.18,-1.74,-0.06,2.07,
1.933,-0.07,-0.07,1.18,-1.74,-0.06,2.07,
1.934,-0.07,-0.07,1.18,-1.65,-0.04,2.03,
1.936,-0.06,-0.07,1.18,-1.65,-0.04,2.03,
1.937,-0.06,-0.07,1.18,-1.65,-0.04,2.03,
1.938,-0.06,-0.07,1.18,-1.59,-0.05,2.02,
1.94,-0.07,-0.07,1.18,-1.59,-0.05,2.02,
1.943,-0.06,-0.07,1.18,-1.59,-0.05,2.02,
1.943,-0.06,-0.07,1.18,-1.49,-0.01,2.03,
1.945,-0.06,-0.06,1.18,-1.49,-0.01,2.03,
1.947,-0.05,-0.07,1.17,-1.49,-0.01,2.03,
1.948,-0.05,-0.07,1.17,-1.46,0.05,1.99,
1.95,-0.05,-0.06,1.17,-1.46,0.05,1.99,
1.953,-0.04,-0.06,1.17,-1.46,0.05,1.99,
1.954,-0.04,-0.06,1.17,-1.37,0.09,1.95,
1.955,-0.04,-0.05,1.17,-1.37,0.09,1.95,
1.957,-0.03,-0.05,1.18,-1.37,0.09,1.95,
1.958,-0.03,-0.05,1.18,-1.29,0.15,1.88,
1.96,-0.03,-0.05,1.18,-1.29,0.15,1.88,
1.962,-0.02,-0.05,1.18,-1.29,0.15,1.88,
1.963,-0.02,-0.05,1.18,-1.17,0.23,1.92,
1.965,-0.01,-0.05,1.19,-1.17,0.23,1.92,
1.967,0.00,-0.05,1.19,-1.17,0.23,1.92,
1.968,0.00,-0.05,1.19,-1.00,0.29,1.98,
1.97,0.01,-0.05,1.20,-1.00,0.29,1.98,
1.972,0.02,-0.04,1.20,-1.00,0.29,1.98,
1.972,0.02,-0.04,1.20,-0.76,0.29,2.06,
1.975,0.03,-0.04,1.20,-0.76,0.29,2.06,
1.977,0.03,-0.04,1.20,-0.56,0.33,2.17,
1.978,0.04,-0.04,1.21,-0.56,0.33,2.17,
1.98,0.04,-0.04,1.20,-0.56,0.33,2.17,
1.983,0.05,-0.04,1.20,-0.56,0.33,2.17,
1.983,0.05,-0.04,1.20,-0.39,0.42,2.21,
1.985,0.05,-0.04,1.19,-0.39,0.42,2.21,
1.991,0.05,-0.04,1.18,-0.39,0.42,2.21,
1.991,0.05,-0.04,1.18,-0.22,0.40,2.16,
1.991,0.06,-0.04,1.18,-0.22,0.40,2.16,
1.992,0.07,-0.04,1.16,-0.22,0.40,2.16,
1.992,0.07,-0.04,1.16,-0.10,0.42,2.02,
1.994,0.07,-0.04,1.16,-0.10,0.42,2.02,
1.997,0.07,-0.04,1.15,-0.10,0.42,2.02,
1.997,0.07,-0.04,1.15,0.04,0.42,1.85,
1.999,0.06,-0.04,1.14,0.04,0.42,1.85,
2.003,0.06,-0.04,1.14,0.04,0.42,1.85,
2.003,0.06,-0.04,1.14,0.09,0.40,1.66,
2.006,0.06,-0.04,1.13,0.09,0.40,1.66,
2.007,0.06,-0.04,1.12,0.09,0.40,1.66,
2.008,0.06,-0.04,1.12,0.07,0.39,1.57,
2.009,0.06,-0.04,1.12,0.07,0.39,1.57,
2.012,0.06,-0.03,1.11,0.07,0.39,1.57,
2.012,0.06,-0.03,1.11,0.11,0.43,1.40,
2.015,0.06,-0.03,1.11,0.11,0.43,1.40,
2.017,0.07,-0.03,1.11,0.11,0.43,1.40,
2.017,0.07,-0.03,1.11,0.11,0.48,1.29,
2.022,0.07,-0.02,1.11,0.11,0.48,1.29,
2.023,0.08,-0.02,1.11,0.11,0.48,1.29,
2.023,0.08,-0.02,1.11,0.19,0.53,1.25,
2.027,0.08,-0.02,1.12,0.19,0.53,1.25,
2.027,0.09,-0.02,1.12,0.19,0.53,1.25,
2.027,0.09,-0.02,1.12,0.32,0.64,1.26,
2.029,0.09,-0.02,1.13,0.32,0.64,1.26,
2.032,0.11,-0.01,1.14,0.32,0.64,1.26,
2.032,0.11,-0.01,1.14,0.46,0.66,1.33,
2.034,0.12,-0.01,1.15,0.46,0.66,1.33,
2.038,0.12,-0.01,1.17,0.46,0.66,1.33,
2.038,0.12,-0.01,1.17,0.61,0.69,1.46,
2.039,0.15,-0.00,1.17,0.61,0.69,1.46,
2.043,0.17,-0.00,1.18,0.61,0.69,1.46,
2.043,0.17,-0.00,1.18,0.83,0.71,1.70,
2.045,0.18,0.00,1.19,0.83,0.71,1.70,
2.047,0.19,0.00,1.20,0.83,0.71,1.70,
2.048,0.19,0.00,1.20,1.19,0.76,1.87,
2.05,0.20,0.00,1.22,1.19,0.76,1.87,
2.052,0.20,0.00,1.22,1.47,0.81,2.05,
2.052,0.21,0.01,1.22,1.47,0.81,2.05,
2.055,0.22,0.00,1.22,1.47,0.81,2.05,
2.057,0.22,0.00,1.23,1.47,0.81,2.05,
2.057,0.22,0.00,1.23,1.72,0.83,2.25,
2.06,0.23,-0.00,1.24,1.72,0.83,2.25,
2.062,0.23,-0.01,1.25,1.72,0.83,2.25,
2.062,0.23,-0.01,1.25,1.86,0.80,2.36,
2.065,0.23,-0.01,1.25,1.86,0.80,2.36,
2.067,0.24,-0.01,1.25,1.86,0.80,2.36,
2.067,0.24,-0.01,1.25,1.98,0.72,2.50,
2.07,0.23,-0.02,1.25,1.98,0.72,2.50,
2.072,0.23,-0.03,1.25,1.98,0.72,2.50,
2.072,0.23,-0.03,1.25,2.04,0.66,2.58,
2.074,0.23,-0.04,1.24,2.04,0.66,2.58,
2.077,0.23,-0.04,1.24,2.04,0.52,2.57,
2.077,0.22,-0.04,1.24,2.04,0.52,2.57,
2.079,0.21,-0.05,1.23,2.04,0.52,2.57,
2.082,0.20,-0.06,1.23,2.04,0.52,2.57,
2.082,0.20,-0.06,1.23,1.98,0.38,2.46,
2.084,0.20,-0.07,1.22,1.98,0.38,2.46,
2.087,0.19,-0.08,1.22,1.98,0.38,2.46,
2.087,0.19,-0.08,1.22,1.87,0.19,2.36,
2.092,0.19,-0.08,1.21,1.87,0.19,2.36,
2.093,0.17,-0.08,1.20,1.87,0.19,2.36,
2.093,0.17,-0.08,1.20,1.81,0.04,2.26,
2.094,0.17,-0.09,1.20,1.81,0.04,2.26,
2.099,0.17,-0.09,1.20,1.81,0.04,2.26,
2.099,0.17,-0.09,1.20,1.66,-0.06,2.13,
2.1,0.16,-0.09,1.19,1.66,-0.06,2.13,
2.101,0.16,-0.10,1.20,1.66,-0.06,2.13,
2.102,0.16,-0.10,1.20,1.58,-0.14,2.01,
2.105,0.16,-0.10,1.19,1.58,-0.14,2.01,
2.106,0.17,-0.11,1.19,1.58,-0.14,2.01,
2.107,0.17,-0.11,1.19,1.49,-0.19,1.99,
2.112,0.18,-0.10,1.20,1.49,-0.19,1.99,
2.113,0.18,-0.11,1.20,1.49,-0.19,1.99,
2.113,0.18,-0.11,1.20,1.56,-0.26,1.98,
2.114,0.19,-0.11,1.20,1.56,-0.26,1.98,
2.116,0.20,-0.11,1.20,1.56,-0.26,1.98,
2.116,0.20,-0.11,1.20,1.73,-0.32,2.05,
2.119,0.21,-0.11,1.20,1.73,-0.32,2.05,
2.121,0.22,-0.11,1.19,1.73,-0.32,2.05,
2.121,0.22,-0.11,1.19,1.89,-0.34,2.03,
2.123,0.23,-0.11,1.19,1.89,-0.34,2.03,
2.126,0.23,-0.11,1.19,2.13,-0.37,1.98,
2.126,0.24,-0.11,1.18,2.13,-0.37,1.98,
2.129,0.24,-0.11,1.19,2.13,-0.37,1.98,
2.131,0.24,-0.11,1.18,2.13,-0.37,1.98,
2.131,0.24,-0.11,1.18,2.33,-0.35,1.90,
2.134,0.24,-0.11,1.18,2.33,-0.35,1.90,
2.138,0.24,-0.10,1.18,2.33,-0.35,1.90,
2.139,0.24,-0.10,1.18,2.43,-0.39,1.86,
2.139,0.24,-0.10,1.16,2.43,-0.39,1.86,
2.141,0.24,-0.09,1.17,2.43,-0.39,1.86,
2.143,0.24,-0.09,1.17,2.44,-0.34,1.80,
2.144,0.24,-0.08,1.17,2.44,-0.34,1.80,
2.146,0.24,-0.08,1.17,2.44,-0.34,1.80,
2.147,0.24,-0.08,1.17,2.45,-0.30,1.68,
2.149,0.24,-0.08,1.17,2.45,-0.30,1.68,
2.151,0.24,-0.07,1.17,2.45,-0.30,1.68,
2.151,0.24,-0.07,1.17,2.43,-0.17,1.69,
2.156,0.24,-0.07,1.16,2.43,-0.17,1.69,
2.156,0.24,-0.06,1.17,2.43,-0.17,1.69,
2.156,0.24,-0.06,1.17,2.43,-0.10,1.70,
2.158,0.23,-0.05,1.17,2.43,-0.10,1.70,
2.161,0.23,-0.05,1.17,2.43,-0.10,1.70,
2.162,0.23,-0.05,1.17,2.43,-0.07,1.65,
2.164,0.24,-0.05,1.17,2.43,-0.07,1.65,
2.166,0.23,-0.05,1.17,2.43,-0.07,1.65,
2.166,0.23,-0.05,1.17,2.39,0.03,1.68,
2.168,0.24,-0.05,1.18,2.39,0.03,1.68,
2.17,0.24,-0.05,1.19,2.39,0.03,1.68,
2.171,0.24,-0.05,1.19,2.40,0.04,1.73,
2.173,0.24,-0.05,1.18,2.40,0.04,1.73,
2.176,0.24,-0.05,1.19,2.40,0.04,1.73,
2.176,0.24,-0.05,1.19,2.41,-0.00,1.82,
2.179,0.25,-0.05,1.18,2.41,-0.00,1.82,
2.181,0.25,-0.04,1.18,2.41,-0.00,1.82,
2.181,0.25,-0.04,1.18,2.47,0.03,1.84,
2.183,0.25,-0.04,1.18,2.47,0.03,1.84,
2.186,0.26,-0.04,1.17,2.47,0.03,1.84,
2.186,0.26,-0.04,1.17,2.54,0.03,1.82,
2.192,0.26,-0.03,1.17,2.54,0.03,1.82,
2.192,0.26,-0.03,1.16,2.54,0.03,1.82,
2.192,0.26,-0.03,1.16,2.60,0.05,1.73,
2.193,0.27,-0.03,1.16,2.60,0.05,1.73,
2.195,0.28,-0.03,1.14,2.60,0.05,1.73,
2.196,0.28,-0.03,1.14,2.66,0.06,1.64,
2.198,0.28,-0.02,1.13,2.66,0.06,1.64,
2.201,0.28,-0.02,1.13,2.66,0.06,1.64,
2.201,0.28,-0.02,1.13,2.79,0.08,1.46,
2.203,0.28,-0.02,1.11,2.79,0.08,1.46,
2.205,0.29,-0.01,1.10,2.79,0.08,1.46,
2.205,0.29,-0.01,1.10,2.84,0.10,1.27,
2.208,0.29,-0.01,1.09,2.84,0.10,1.27,
2.21,0.29,-0.01,1.08,2.84,0.10,1.27,
2.21,0.29,-0.01,1.08,2.87,0.13,1.06,
2.213,0.29,-0.01,1.06,2.87,0.13,1.06,
2.215,0.28,-0.01,1.05,2.87,0.13,1.06,
2.215,0.28,-0.01,1.05,2.93,0.13,0.86,
2.218,0.28,-0.00,1.04,2.93,0.13,0.86,
2.22,0.27,-0.01,1.03,2.93,0.13,0.86,
2.221,0.27,-0.01,1.03,2.86,0.13,0.58,
2.223,0.26,-0.01,1.02,2.86,0.13,0.58,
2.225,0.26,-0.01,1.00,2.86,0.13,0.58,
2.225,0.26,-0.01,1.00,2.78,0.12,0.34,
2.227,0.25,-0.01,0.99,2.78,0.12,0.34,
2.23,0.24,-0.01,0.98,2.78,0.12,0.34,
2.23,0.24,-0.01,0.98,2.60,0.07,0.09,
2.232,0.24,-0.01,0.97,2.60,0.07,0.09,
2.234,0.23,-0.01,0.96,2.60,0.07,0.09,
2.235,0.23,-0.01,0.96,2.43,0.04,-0.15,
2.238,0.22,-0.01,0.96,2.43,0.04,-0.15,
2.241,0.21,-0.01,0.95,2.43,0.04,-0.15,
2.241,0.21,-0.01,0.95,2.32,0.02,-0.35,
2.242,0.21,-0.01,0.95,2.32,0.02,-0.35,
2.245,0.20,-0.01,0.95,2.32,0.02,-0.35,
2.245,0.20,-0.01,0.95,2.17,-0.05,-0.44,
2.248,0.20,-0.02,0.94,2.17,-0.05,-0.44,
2.249,0.20,-0.02,0.94,2.04,-0.12,-0.50,
2.25,0.19,-0.01,0.95,2.04,-0.12,-0.50,
2.252,0.19,-0.01,0.95,2.04,-0.12,-0.50,
2.255,0.19,-0.01,0.95,2.04,-0.12,-0.50,
2.256,0.19,-0.01,0.95,1.94,-0.15,-0.52,
2.257,0.18,-0.01,0.95,1.94,-0.15,-0.52,
2.259,0.19,-0.01,0.95,1.94,-0.15,-0.52,
2.259,0.19,-0.01,0.95,1.87,-0.19,-0.52,
2.262,0.19,-0.02,0.95,1.87,-0.19,-0.52,
2.264,0.18,-0.02,0.95,1.87,-0.19,-0.52,
2.265,0.18,-0.02,0.95,1.83,-0.22,-0.52,
2.267,0.18,-0.02,0.95,1.83,-0.22,-0.52,
2.269,0.18,-0.02,0.95,1.83,-0.22,-0.52,
2.269,0.18,-0.02,0.95,1.81,-0.28,-0.52,
2.273,0.18,-0.02,0.95,1.81,-0.28,-0.52,
2.274,0.18,-0.02,0.95,1.82,-0.33,-0.50,
2.275,0.18,-0.02,0.95,1.82,-0.33,-0.50,
2.277,0.18,-0.02,0.95,1.82,-0.33,-0.50,
2.28,0.19,-0.01,0.95,1.82,-0.33,-0.50,
2.28,0.19,-0.01,0.95,1.80,-0.33,-0.48,
2.282,0.18,-0.01,0.95,1.80,-0.33,-0.48,
2.284,0.18,-0.01,0.94,1.80,-0.33,-0.48,
2.284,0.18,-0.01,0.94,1.80,-0.33,-0.47,
2.287,0.18,-0.01,0.94,1.80,-0.33,-0.47,
2.292,0.17,-0.01,0.94,1.80,-0.33,-0.47,
2.293,0.17,-0.01,0.94,1.78,-0.34,-0.52,
2.293,0.18,-0.01,0.93,1.78,-0.34,-0.52,
2.294,0.17,-0.01,0.93,1.78,-0.34,-0.52,
2.295,0.17,-0.01,0.93,1.72,-0.37,-0.57,
2.297,0.18,-0.01,0.93,1.72,-0.37,-0.57,
2.299,0.18,-0.01,0.92,1.72,-0.37,-0.57,
2.299,0.18,-0.01,0.92,1.72,-0.37,-0.65,
2.301,0.18,-0.01,0.92,1.72,-0.37,-0.65,
2.305,0.18,0.00,0.91,1.72,-0.37,-0.65,
2.306,0.18,0.00,0.91,1.73,-0.35,-0.73,
2.308,0.18,0.01,0.91,1.73,-0.35,-0.73,
2.309,0.18,0.01,0.91,1.73,-0.35,-0.73,
2.309,0.18,0.01,0.91,1.76,-0.35,-0.82,
2.312,0.18,0.02,0.90,1.76,-0.35,-0.82,
2.314,0.17,0.03,0.91,1.76,-0.35,-0.82,
2.314,0.17,0.03,0.91,1.72,-0.27,-0.87,
2.317,0.17,0.03,0.90,1.72,-0.27,-0.87,
2.319,0.17,0.04,0.90,1.72,-0.27,-0.87,
2.321,0.17,0.04,0.90,1.71,-0.17,-0.91,
2.323,0.17,0.04,0.90,1.71,-0.17,-0.91,
2.324,0.17,0.04,0.90,1.71,-0.17,-0.91,
2.324,0.17,0.04,0.90,1.65,-0.05,-0.96,
2.326,0.17,0.05,0.90,1.65,-0.05,-0.96,
2.329,0.17,0.06,0.90,1.65,-0.05,-0.96,
2.329,0.17,0.06,0.90,1.62,-0.01,-0.95,
2.332,0.17,0.06,0.90,1.62,-0.01,-0.95,
2.334,0.17,0.07,0.91,1.62,-0.01,-0.95,
2.334,0.17,0.07,0.91,1.65,0.05,-0.93,
2.336,0.17,0.07,0.91,1.65,0.05,-0.93,
2.339,0.17,0.07,0.91,1.65,0.05,-0.93,
2.34,0.17,0.07,0.91,1.65,0.11,-0.90,
2.341,0.17,0.07,0.91,1.65,0.11,-0.90,
2.343,0.16,0.07,0.91,1.65,0.11,-0.90,
2.344,0.16,0.07,0.91,1.61,0.14,-0.86,
2.346,0.16,0.07,0.91,1.61,0.14,-0.86,
2.349,0.16,0.08,0.91,1.61,0.14,-0.86,
2.349,0.16,0.08,0.91,1.54,0.11,-0.85,
2.351,0.17,0.08,0.91,1.54,0.11,-0.85,
2.353,0.19,0.09,0.91,1.54,0.11,-0.85,
2.354,0.19,0.09,0.91,1.49,0.12,-0.82,
2.356,0.20,0.11,0.92,1.49,0.12,-0.82,
2.359,0.22,0.12,0.91,1.49,0.12,-0.82,
2.359,0.22,0.12,0.91,1.63,0.22,-0.82,
2.361,0.22,0.14,0.92,1.63,0.22,-0.82,
2.364,0.21,0.13,0.92,1.63,0.22,-0.82,
2.364,0.21,0.13,0.92,1.95,0.48,-0.81,
2.366,0.20,0.13,0.91,1.95,0.48,-0.81,
2.369,0.17,0.13,0.91,1.95,0.48,-0.81,
2.369,0.17,0.13,0.91,2.03,0.66,-0.76,
2.371,0.15,0.11,0.91,2.03,0.66,-0.76,
2.376,0.13,0.10,0.91,2.03,0.66,-0.76,
2.376,0.13,0.10,0.91,1.67,0.60,-0.81,
2.376,0.12,0.09,0.90,1.67,0.60,-0.81,
2.378,0.11,0.09,0.90,1.67,0.60,-0.81,
2.379,0.11,0.09,0.90,1.26,0.34,-0.84,
2.381,0.11,0.09,0.90,1.26,0.34,-0.84,
2.383,0.10,0.08,0.90,1.26,0.34,-0.84,
2.383,0.10,0.08,0.90,1.01,0.17,-0.92,
2.386,0.11,0.08,0.90,1.01,0.17,-0.92,
2.389,0.10,0.08,0.90,1.01,0.17,-0.92,
2.389,0.10,0.08,0.90,0.92,0.10,-0.92,
2.391,0.10,0.08,0.89,0.92,0.10,-0.92,
2.393,0.10,0.08,0.89,0.92,0.10,-0.92,
2.393,0.10,0.08,0.89,0.91,0.00,-0.96,
2.396,0.09,0.08,0.89,0.91,0.00,-0.96,
2.399,0.09,0.08,0.89,0.83,0.03,-1.01,
2.399,0.09,0.08,0.89,0.83,0.03,-1.01,
2.401,0.08,0.09,0.89,0.83,0.03,-1.01,
2.403,0.08,0.09,0.90,0.83,0.03,-1.01,
2.404,0.08,0.09,0.90,0.74,-0.02,-0.99,
2.406,0.08,0.10,0.90,0.74,-0.02,-0.99,
2.408,0.09,0.11,0.91,0.74,-0.02,-0.99,
2.408,0.09,0.11,0.91,0.64,0.05,-0.94,
2.411,0.08,0.11,0.92,0.64,0.05,-0.94,
2.414,0.08,0.11,0.92,0.64,0.05,-0.94,
2.414,0.08,0.11,0.92,0.64,0.15,-0.85,
2.416,0.09,0.12,0.92,0.64,0.15,-0.85,
2.419,0.09,0.12,0.92,0.64,0.23,-0.75,
2.419,0.09,0.12,0.93,0.64,0.23,-0.75,
2.421,0.09,0.12,0.92,0.64,0.23,-0.75,
2.423,0.08,0.12,0.92,0.64,0.23,-0.75,
2.423,0.08,0.12,0.92,0.68,0.27,-0.69,
2.425,0.08,0.12,0.92,0.68,0.27,-0.69,
2.428,0.08,0.12,0.92,0.63,0.28,-0.69,
2.429,0.09,0.12,0.93,0.63,0.28,-0.69,
2.431,0.09,0.12,0.92,0.63,0.28,-0.69,
2.433,0.09,0.12,0.92,0.63,0.28,-0.69,
2.433,0.09,0.12,0.92,0.60,0.26,-0.64,
2.436,0.09,0.12,0.92,0.60,0.26,-0.64,
2.438,0.09,0.13,0.92,0.60,0.26,-0.64,
2.438,0.09,0.13,0.92,0.61,0.26,-0.70,
2.441,0.09,0.13,0.92,0.61,0.26,-0.70,
2.443,0.09,0.13,0.92,0.61,0.26,-0.70,
2.443,0.09,0.13,0.92,0.64,0.24,-0.72,
2.446,0.09,0.13,0.91,0.64,0.24,-0.72,
2.449,0.09,0.13,0.91,0.60,0.27,-0.72,
2.449,0.09,0.13,0.90,0.60,0.27,-0.72,
2.451,0.08,0.13,0.91,0.60,0.27,-0.72,
2.453,0.08,0.13,0.90,0.60,0.27,-0.72,
2.453,0.08,0.13,0.90,0.56,0.22,-0.79,
2.456,0.07,0.12,0.90,0.56,0.22,-0.79,
2.458,0.07,0.12,0.90,0.56,0.22,-0.79,
2.458,0.07,0.12,0.90,0.47,0.21,-0.83,
2.46,0.07,0.12,0.89,0.47,0.21,-0.83,
2.463,0.07,0.12,0.89,0.35,0.13,-0.87,
2.463,0.07,0.11,0.89,0.35,0.13,-0.87,
2.466,0.07,0.11,0.89,0.35,0.13,-0.87,
2.468,0.07,0.11,0.88,0.35,0.13,-0.87,
2.468,0.07,0.11,0.88,0.31,0.07,-0.99,
2.47,0.07,0.11,0.88,0.31,0.07,-0.99,
2.473,0.07,0.11,0.88,0.36,-0.03,-1.02,
2.474,0.07,0.11,0.88,0.36,-0.03,-1.02,
2.476,0.08,0.11,0.87,0.36,-0.03,-1.02,
2.478,0.08,0.11,0.87,0.36,-0.03,-1.02,
2.478,0.08,0.11,0.87,0.36,-0.06,-1.08,
2.48,0.07,0.11,0.87,0.36,-0.06,-1.08,
2.482,0.07,0.11,0.87,0.36,-0.06,-1.08,
2.482,0.07,0.11,0.87,0.38,-0.07,-1.14,
2.485,0.07,0.11,0.86,0.38,-0.07,-1.14,
2.487,0.06,0.11,0.87,0.38,-0.07,-1.14,
2.487,0.06,0.11,0.87,0.29,-0.08,-1.18,
2.493,0.06,0.12,0.87,0.29,-0.08,-1.18,
2.494,0.06,0.12,0.87,0.29,-0.08,-1.18,
2.495,0.06,0.12,0.87,0.23,-0.06,-1.19,
2.495,0.07,0.12,0.88,0.23,-0.06,-1.19,
2.497,0.07,0.12,0.88,0.18,-0.01,-1.15,
2.497,0.06,0.12,0.87,0.18,-0.01,-1.15,
2.5,0.07,0.12,0.88,0.18,-0.01,-1.15,
2.502,0.07,0.12,0.89,0.18,-0.01,-1.15,
2.502,0.07,0.12,0.89,0.19,0.05,-1.10,
2.504,0.08,0.12,0.88,0.19,0.05,-1.10,
2.508,0.08,0.12,0.89,0.19,0.05,-1.10,
2.508,0.08,0.12,0.89,0.24,0.02,-1.02,
2.509,0.08,0.12,0.89,0.24,0.02,-1.02,
2.513,0.09,0.13,0.89,0.24,0.02,-1.02,
2.513,0.09,0.13,0.89,0.27,0.04,-0.95,
2.514,0.09,0.13,0.90,0.27,0.04,-0.95,
2.517,0.09,0.13,0.90,0.27,0.04,-0.95,
2.517,0.09,0.13,0.90,0.31,0.05,-0.90,
2.519,0.10,0.13,0.91,0.31,0.05,-0.90,
2.522,0.10,0.14,0.91,0.31,0.05,-0.90,
2.523,0.10,0.14,0.91,0.35,0.07,-0.83,
2.525,0.11,0.14,0.91,0.35,0.07,-0.83,
2.527,0.11,0.14,0.92,0.35,0.07,-0.83,
2.528,0.11,0.14,0.92,0.47,0.13,-0.74,
2.529,0.12,0.14,0.92,0.47,0.13,-0.74,
2.531,0.13,0.14,0.93,0.47,0.13,-0.74,
2.533,0.13,0.14,0.93,0.55,0.18,-0.68,
2.534,0.13,0.15,0.93,0.55,0.18,-0.68,
2.537,0.13,0.15,0.93,0.55,0.18,-0.68,
2.537,0.13,0.15,0.93,0.69,0.21,-0.61,
2.54,0.13,0.15,0.93,0.69,0.21,-0.61,
2.542,0.12,0.15,0.93,0.69,0.21,-0.61,
2.543,0.12,0.15,0.93,0.70,0.27,-0.55,
2.544,0.12,0.15,0.93,0.70,0.27,-0.55,
2.547,0.12,0.15,0.93,0.65,0.27,-0.51,
2.547,0.12,0.16,0.93,0.65,0.27,-0.51,
2.549,0.11,0.15,0.94,0.65,0.27,-0.51,
2.552,0.10,0.14,0.94,0.65,0.27,-0.51,
2.552,0.10,0.14,0.94,0.59,0.30,-0.53,
2.554,0.10,0.14,0.94,0.59,0.30,-0.53,
2.557,0.10,0.14,0.94,0.59,0.30,-0.53,
2.558,0.10,0.14,0.94,0.44,0.23,-0.46,
2.559,0.10,0.14,0.94,0.44,0.23,-0.46,
2.561,0.10,0.14,0.95,0.44,0.23,-0.46,
2.562,0.10,0.14,0.95,0.36,0.19,-0.42,
2.564,0.10,0.14,0.96,0.36,0.19,-0.42,
2.566,0.11,0.14,0.96,0.36,0.19,-0.42,
2.566,0.11,0.14,0.96,0.35,0.13,-0.35,
2.569,0.11,0.13,0.96,0.35,0.13,-0.35,
2.571,0.12,0.13,0.97,0.35,0.13,-0.35,
2.571,0.12,0.13,0.97,0.40,0.11,-0.21,
2.575,0.13,0.13,0.97,0.40,0.11,-0.21,
2.576,0.13,0.14,0.98,0.40,0.11,-0.21,
2.576,0.13,0.14,0.98,0.50,0.06,-0.16,
2.579,0.14,0.14,0.99,0.50,0.06,-0.16,
2.581,0.14,0.15,0.99,0.50,0.06,-0.16,
2.581,0.14,0.15,0.99,0.62,0.11,-0.06,
2.583,0.14,0.15,0.99,0.62,0.11,-0.06,
2.586,0.14,0.15,0.99,0.62,0.11,-0.06,
2.586,0.14,0.15,0.99,0.70,0.17,0.03,
2.594,0.14,0.16,1.00,0.70,0.17,0.03,
2.595,0.14,0.16,1.01,0.70,0.17,0.03,
2.595,0.14,0.16,1.01,0.69,0.26,0.09,
2.595,0.14,0.16,1.02,0.69,0.26,0.09,
2.596,0.13,0.16,1.02,0.69,0.26,0.09,
2.596,0.13,0.16,1.02,0.69,0.36,0.20,
2.598,0.13,0.16,1.03,0.69,0.36,0.20,
2.601,0.12,0.15,1.03,0.69,0.36,0.20,
2.601,0.12,0.15,1.03,0.64,0.36,0.38,
2.604,0.11,0.15,1.03,0.64,0.36,0.38,
2.608,0.10,0.14,1.03,0.64,0.36,0.38,
2.608,0.10,0.14,1.03,0.52,0.28,0.44,
2.608,0.09,0.13,1.03,0.52,0.28,0.44,
2.611,0.08,0.13,1.02,0.52,0.28,0.44,
2.612,0.08,0.13,1.02,0.32,0.16,0.49,
2.613,0.07,0.12,1.02,0.32,0.16,0.49,
2.616,0.07,0.12,1.02,0.10,0.04,0.40,
2.616,0.06,0.12,1.01,0.10,0.04,0.40,
2.618,0.06,0.11,1.00,0.10,0.04,0.40,
2.621,0.06,0.11,1.00,-0.08,-0.08,0.33,
2.621,0.05,0.11,1.00,-0.08,-0.08,0.33,
2.624,0.04,0.10,1.00,-0.08,-0.08,0.33,
2.626,0.04,0.10,0.99,-0.08,-0.08,0.33,
2.626,0.04,0.10,0.99,-0.21,-0.19,0.21,
2.628,0.04,0.10,0.99,-0.21,-0.19,0.21,
2.631,0.03,0.10,0.98,-0.21,-0.19,0.21,
2.631,0.03,0.10,0.98,-0.33,-0.28,0.13,
2.633,0.03,0.10,0.98,-0.33,-0.28,0.13,
2.636,0.03,0.09,0.97,-0.33,-0.28,0.13,
2.638,0.03,0.09,0.97,-0.40,-0.31,0.05,
2.638,0.04,0.09,0.97,-0.40,-0.31,0.05,
2.641,0.05,0.09,0.97,-0.40,-0.31,0.05,
2.641,0.05,0.09,0.97,-0.44,-0.36,-0.05,
2.643,0.05,0.09,0.97,-0.44,-0.36,-0.05,
2.646,0.06,0.09,0.98,-0.44,-0.36,-0.05,
2.646,0.06,0.09,0.98,-0.31,-0.41,-0.07,
2.65,0.06,0.10,0.98,-0.31,-0.41,-0.07,
2.651,0.06,0.10,0.98,-0.31,-0.41,-0.07,
2.651,0.06,0.10,0.98,-0.21,-0.38,-0.07,
2.653,0.07,0.11,0.99,-0.21,-0.38,-0.07,
2.656,0.07,0.12,1.00,-0.21,-0.38,-0.07,
2.656,0.07,0.12,1.00,-0.16,-0.34,-0.02,
2.658,0.08,0.12,0.99,-0.16,-0.34,-0.02,
2.66,0.08,0.12,1.00,-0.16,-0.34,-0.02,
2.66,0.08,0.12,1.00,-0.11,-0.21,0.12,
2.663,0.08,0.13,1.00,-0.11,-0.21,0.12,
2.665,0.08,0.13,1.01,-0.11,-0.21,0.12,
2.665,0.08,0.13,1.01,-0.04,-0.14,0.16,
2.668,0.08,0.13,1.00,-0.04,-0.14,0.16,
2.671,0.08,0.13,1.00,-0.04,-0.14,0.16,
2.671,0.08,0.13,1.00,-0.03,-0.05,0.23,
2.673,0.08,0.12,1.00,-0.03,-0.05,0.23,
2.678,0.07,0.11,1.01,-0.03,-0.05,0.23,
2.678,0.07,0.11,1.01,0.01,-0.05,0.21,
2.678,0.07,0.11,1.02,0.01,-0.05,0.21,
2.681,0.07,0.11,1.01,0.01,-0.05,0.21,
2.681,0.07,0.11,1.01,-0.11,-0.20,0.28,
2.683,0.08,0.12,1.01,-0.11,-0.20,0.28,
2.685,0.08,0.12,1.00,-0.11,-0.20,0.28,
2.686,0.08,0.12,1.00,-0.16,-0.30,0.35,
2.688,0.08,0.12,1.00,-0.16,-0.30,0.35,
2.691,0.08,0.12,1.00,-0.16,-0.30,0.35,
2.691,0.08,0.12,1.00,-0.11,-0.21,0.25,
2.692,0.08,0.12,1.00,-0.11,-0.21,0.25,
2.695,0.09,0.13,1.00,-0.11,-0.21,0.25,
2.695,0.09,0.13,1.00,-0.07,-0.17,0.19,
2.698,0.09,0.13,0.99,-0.07,-0.17,0.19,
2.701,0.09,0.13,0.98,-0.07,-0.17,0.19,
2.701,0.09,0.13,0.98,0.00,-0.15,0.20,
2.703,0.09,0.13,0.98,0.00,-0.15,0.20,
2.706,0.09,0.13,0.98,0.00,-0.15,0.20,
2.706,0.09,0.13,0.98,0.03,-0.12,0.07,
2.708,0.09,0.13,0.97,0.03,-0.12,0.07,
2.71,0.09,0.13,0.98,0.03,-0.12,0.07,
2.71,0.09,0.13,0.98,0.03,-0.10,0.02,
2.713,0.08,0.13,0.98,0.03,-0.10,0.02,
2.715,0.08,0.13,0.99,0.03,-0.10,0.02,
2.715,0.08,0.13,0.99,0.01,-0.09,-0.05,
2.718,0.09,0.14,0.99,0.01,-0.09,-0.05,
2.721,0.09,0.14,0.99,-0.11,-0.07,0.06,
2.721,0.09,0.14,0.99,-0.11,-0.07,0.06,
2.723,0.09,0.14,0.99,-0.11,-0.07,0.06,
2.725,0.10,0.14,0.99,-0.11,-0.07,0.06,
2.725,0.10,0.14,0.99,-0.03,-0.03,0.09,
2.727,0.11,0.14,0.99,-0.03,-0.03,0.09,
2.73,0.12,0.15,0.99,-0.03,-0.03,0.09,
2.73,0.12,0.15,0.99,0.04,-0.01,0.14,
2.733,0.12,0.15,0.99,0.04,-0.01,0.14,
2.735,0.12,0.15,0.99,0.04,-0.01,0.14,
2.735,0.12,0.15,0.99,0.18,0.03,0.13,
2.738,0.12,0.15,0.98,0.18,0.03,0.13,
2.74,0.12,0.15,0.97,0.18,0.03,0.13,
2.74,0.12,0.15,0.97,0.24,0.09,0.10,
2.742,0.11,0.16,0.96,0.24,0.09,0.10,
2.744,0.11,0.16,0.96,0.24,0.09,0.10,
2.745,0.11,0.16,0.96,0.24,0.09,-0.03,
2.748,0.11,0.16,0.95,0.24,0.09,-0.03,
2.75,0.11,0.15,0.94,0.24,0.09,-0.03,
2.75,0.11,0.15,0.94,0.17,0.14,-0.18,
2.753,0.10,0.15,0.94,0.17,0.14,-0.18,
2.755,0.10,0.15,0.93,0.17,0.14,-0.18,
2.755,0.10,0.15,0.93,0.12,0.12,-0.29,
2.757,0.10,0.14,0.93,0.12,0.12,-0.29,
2.76,0.09,0.14,0.94,0.12,0.12,-0.29,
2.76,0.09,0.14,0.94,0.02,0.05,-0.41,
2.762,0.09,0.14,0.94,0.02,0.05,-0.41,
2.765,0.09,0.14,0.95,0.02,0.05,-0.41,
2.765,0.09,0.14,0.95,-0.05,0.02,-0.41,
2.768,0.09,0.14,0.95,-0.05,0.02,-0.41,
2.77,0.09,0.14,0.95,-0.10,0.01,-0.35,
2.771,0.09,0.14,0.96,-0.10,0.01,-0.35,
2.773,0.10,0.14,0.97,-0.10,0.01,-0.35,
2.778,0.10,0.13,0.97,-0.10,0.01,-0.35,
2.779,0.10,0.13,0.97,-0.10,-0.04,-0.23,
2.779,0.10,0.13,0.97,-0.10,-0.04,-0.23,
2.779,0.10,0.11,0.88,-0.10,-0.04,-0.23,
2.78,0.10,0.11,0.88,-0.04,-0.05,-0.06,
2.782,0.09,0.14,0.77,-0.04,-0.05,-0.06,
2.785,0.13,0.17,0.70,-0.04,-0.05,-0.06,
2.786,0.13,0.17,0.70,-0.04,-0.20,-0.50,
2.787,0.16,0.17,0.71,-0.04,-0.20,-0.50,
2.791,0.16,0.16,0.77,-0.04,-0.20,-0.50,
2.791,0.16,0.16,0.77,0.09,0.13,-2.37,
2.792,0.14,0.14,0.83,0.09,0.13,-2.37,
2.794,0.13,0.14,0.89,0.09,0.13,-2.37,
2.794,0.13,0.14,0.89,0.55,0.31,-2.29,
2.796,0.13,0.12,0.95,0.55,0.31,-2.29,
2.802,0.14,0.12,1.00,0.55,0.31,-2.29,
2.802,0.14,0.12,1.00,0.31,0.06,-1.11,
2.805,0.14,0.11,1.02,0.31,0.06,-1.11,
2.806,0.15,0.11,1.05,0.31,0.06,-1.11,
2.806,0.15,0.11,1.05,0.37,-0.09,0.03,
2.806,0.15,0.11,1.06,0.37,-0.09,0.03,
2.809,0.15,0.11,1.06,0.44,-0.16,0.59,
2.81,0.15,0.11,1.07,0.44,-0.16,0.59,
2.811,0.15,0.11,1.09,0.44,-0.16,0.59,
2.814,0.14,0.12,1.11,0.44,-0.16,0.59,
2.815,0.14,0.12,1.11,0.49,-0.15,0.85,
2.816,0.14,0.13,1.12,0.49,-0.15,0.85,
2.819,0.14,0.14,1.13,0.49,-0.15,0.85,
2.819,0.14,0.14,1.13,0.46,-0.07,1.20,
2.821,0.13,0.15,1.15,0.46,-0.07,1.20,
2.824,0.14,0.15,1.15,0.46,-0.07,1.20,
2.824,0.14,0.15,1.15,0.38,0.12,1.46,
2.828,0.14,0.16,1.14,0.38,0.12,1.46,
2.829,0.14,0.16,1.14,0.38,0.12,1.46,
2.829,0.14,0.16,1.14,0.34,0.29,1.66,
2.831,0.15,0.16,1.12,0.34,0.29,1.66,
2.834,0.15,0.15,1.10,0.34,0.29,1.66,
2.835,0.15,0.15,1.10,0.42,0.38,1.57,
2.837,0.15,0.15,1.08,0.42,0.38,1.57,
2.838,0.17,0.14,1.07,0.42,0.38,1.57,
2.839,0.17,0.14,1.07,0.52,0.34,1.22,
2.844,0.19,0.12,1.05,0.52,0.34,1.22,
2.844,0.19,0.12,1.05,0.57,0.24,0.94,
2.844,0.18,0.12,1.04,0.57,0.24,0.94,
2.846,0.15,0.14,1.02,0.57,0.24,0.94,
2.851,0.13,0.14,1.01,0.57,0.24,0.94,
2.851,0.13,0.14,1.01,0.81,-0.00,0.61,
2.852,0.11,0.15,1.01,0.81,-0.00,0.61,
2.854,0.10,0.16,0.99,0.81,-0.00,0.61,
2.854,0.10,0.16,0.99,0.39,0.12,0.36,
2.857,0.09,0.16,0.98,0.39,0.12,0.36,
2.86,0.08,0.16,0.97,0.39,0.12,0.36,
2.86,0.08,0.16,0.97,0.05,0.23,0.16,
