
time,gFx,gFy,gFz,ax,ay,az,
0.006,-0.01,0.23,0.99,-0.04,-0.01,-0.12,
0.007,-0.01,0.23,1.00,-0.04,-0.01,-0.12,
0.007,-0.01,0.23,1.00,-0.05,-0.02,0.02,
0.007,-0.01,0.23,1.00,-0.05,-0.02,0.02,
0.008,-0.01,0.23,0.99,-0.05,-0.02,0.02,
0.008,-0.01,0.23,0.99,-0.10,-0.03,0.19,
0.009,-0.01,0.23,1.00,-0.10,-0.03,0.19,
0.009,-0.00,0.24,1.00,-0.10,-0.03,0.19,
0.009,-0.00,0.24,1.00,-0.12,0.03,0.22,
0.01,0.00,0.23,1.00,-0.12,0.03,0.22,
0.014,0.01,0.23,0.99,-0.12,0.03,0.22,
0.015,0.01,0.23,0.99,-0.08,0.07,0.29,
0.015,0.00,0.23,0.99,-0.08,0.07,0.29,
0.017,0.00,0.23,0.99,0.03,0.05,0.21,
0.017,0.01,0.24,0.98,0.03,0.05,0.21,
0.02,0.00,0.24,0.98,0.03,0.05,0.21,
0.022,0.00,0.24,0.98,0.04,0.07,0.09,
0.023,-0.00,0.25,0.99,0.04,0.07,0.09,
0.026,-0.00,0.25,0.98,0.04,0.07,0.09,
0.026,-0.00,0.25,0.98,-0.02,0.17,0.11,
0.027,-0.01,0.25,0.97,-0.02,0.17,0.11,
0.029,-0.01,0.25,0.97,-0.02,0.17,0.11,
0.032,-0.01,0.25,0.98,-0.02,0.17,0.11,
0.033,-0.01,0.25,0.98,-0.05,0.18,0.02,
0.034,-0.02,0.25,0.98,-0.05,0.18,0.02,
0.037,-0.02,0.25,0.98,-0.05,0.18,0.02,
0.037,-0.02,0.25,0.98,-0.11,0.20,0.01,
0.039,-0.02,0.25,0.98,-0.11,0.20,0.01,
0.042,-0.02,0.25,0.98,-0.18,0.25,0.05,
0.042,-0.01,0.25,0.98,-0.18,0.25,0.05,
0.044,-0.01,0.25,0.98,-0.18,0.25,0.05,
0.047,-0.01,0.25,0.97,-0.18,0.25,0.05,
0.047,-0.01,0.25,0.97,-0.14,0.26,0.05,
0.05,-0.01,0.25,0.96,-0.14,0.26,0.05,
0.052,-0.01,0.24,0.96,-0.14,0.26,0.05,
0.052,-0.01,0.24,0.96,-0.07,0.24,-0.01,
0.054,-0.02,0.24,0.95,-0.07,0.24,-0.01,
0.057,-0.02,0.24,0.96,-0.07,0.24,-0.01,
0.057,-0.02,0.24,0.96,-0.08,0.20,-0.16,
0.059,-0.01,0.23,0.96,-0.08,0.20,-0.16,
0.061,0.00,0.22,0.96,-0.08,0.20,-0.16,
0.062,0.00,0.22,0.96,-0.17,0.14,-0.17,
0.064,0.00,0.22,0.96,-0.17,0.14,-0.17,
0.067,0.01,0.22,0.96,-0.17,0.14,-0.17,
0.067,0.01,0.22,0.96,-0.05,0.06,-0.15,
0.069,0.01,0.21,0.97,-0.05,0.06,-0.15,
0.072,-0.00,0.21,0.98,-0.05,0.06,-0.15,
0.072,-0.00,0.21,0.98,0.04,-0.02,-0.14,
0.074,0.01,0.21,0.98,0.04,-0.02,-0.14,
0.076,0.02,0.21,0.98,0.04,-0.02,-0.14,
0.077,0.02,0.21,0.98,0.02,-0.13,-0.00,
0.079,0.01,0.21,0.98,0.02,-0.13,-0.00,
0.082,0.01,0.21,0.98,0.12,-0.12,0.03,
0.082,0.01,0.21,0.98,0.12,-0.12,0.03,
0.084,0.01,0.21,0.98,0.12,-0.12,0.03,
0.087,-0.00,0.21,0.98,0.12,-0.12,0.03,
0.087,-0.00,0.21,0.98,0.05,-0.10,0.05,
0.089,0.00,0.21,0.98,0.05,-0.10,0.05,
0.092,-0.00,0.21,0.98,0.05,-0.10,0.05,
0.093,-0.00,0.21,0.98,0.00,-0.07,0.03,
0.093,-0.00,0.22,0.98,0.00,-0.07,0.03,
0.096,-0.00,0.22,0.98,0.00,-0.07,0.03,
0.097,-0.00,0.22,0.98,-0.02,-0.08,0.03,
0.099,-0.01,0.21,0.98,-0.02,-0.08,0.03,
0.102,-0.01,0.21,0.97,-0.02,-0.08,0.03,
0.102,-0.01,0.21,0.97,-0.04,-0.05,0.03,
0.104,-0.01,0.22,0.97,-0.04,-0.05,0.03,
0.107,-0.01,0.22,0.97,-0.07,-0.07,0.01,
0.107,-0.01,0.22,0.96,-0.07,-0.07,0.01,
0.109,-0.01,0.21,0.97,-0.07,-0.07,0.01,
0.111,-0.01,0.22,0.97,-0.07,-0.07,0.01,
0.111,-0.01,0.22,0.97,-0.09,-0.04,-0.06,
0.113,-0.01,0.22,0.97,-0.09,-0.04,-0.06,
0.117,-0.02,0.22,0.96,-0.09,-0.04,-0.06,
0.117,-0.02,0.22,0.96,-0.10,-0.05,-0.08,
0.119,-0.02,0.22,0.96,-0.10,-0.05,-0.08,
0.121,-0.01,0.22,0.96,-0.10,-0.05,-0.08,
0.122,-0.01,0.22,0.96,-0.16,-0.02,-0.08,
0.124,-0.01,0.22,0.96,-0.16,-0.02,-0.08,
0.129,-0.01,0.22,0.96,-0.16,-0.02,-0.08,
0.13,-0.01,0.22,0.96,-0.13,-0.02,-0.11,
0.13,-0.01,0.22,0.96,-0.13,-0.02,-0.11,
0.131,-0.00,0.22,0.96,-0.13,-0.02,-0.11,
0.131,-0.00,0.22,0.96,-0.09,-0.03,-0.16,
0.133,-0.00,0.22,0.96,-0.09,-0.03,-0.16,
0.136,0.00,0.22,0.96,-0.09,-0.03,-0.16,
0.136,0.00,0.22,0.96,-0.04,-0.01,-0.14,
0.138,0.00,0.21,0.95,-0.04,-0.01,-0.14,
0.141,0.00,0.21,0.95,-0.04,-0.01,-0.14,
0.141,0.00,0.21,0.95,0.01,-0.03,-0.17,
0.143,0.01,0.21,0.95,0.01,-0.03,-0.17,
0.146,0.01,0.21,0.96,0.01,-0.03,-0.17,
0.146,0.01,0.21,0.96,0.04,-0.10,-0.20,
0.148,0.01,0.21,0.95,0.04,-0.10,-0.20,
0.151,0.01,0.21,0.95,0.04,-0.10,-0.20,
0.152,0.01,0.21,0.95,0.12,-0.12,-0.17,
0.153,0.02,0.21,0.94,0.12,-0.12,-0.17,
0.155,0.01,0.20,0.95,0.12,-0.12,-0.17,
0.156,0.01,0.20,0.95,0.10,-0.11,-0.23,
0.158,0.02,0.20,0.94,0.10,-0.11,-0.23,
0.162,0.01,0.20,0.94,0.10,-0.11,-0.23,
0.163,0.01,0.20,0.94,0.16,-0.14,-0.29,
0.163,0.01,0.20,0.94,0.16,-0.14,-0.29,
0.166,0.01,0.20,0.94,0.16,-0.14,-0.29,
0.166,0.01,0.20,0.94,0.15,-0.15,-0.33,
0.168,0.01,0.20,0.93,0.15,-0.15,-0.33,
0.171,0.01,0.20,0.93,0.15,-0.15,-0.33,
0.172,0.01,0.20,0.93,0.11,-0.14,-0.31,
0.173,0.01,0.21,0.93,0.11,-0.14,-0.31,
0.176,0.00,0.20,0.93,0.11,-0.14,-0.31,
0.176,0.00,0.20,0.93,0.10,-0.15,-0.39,
0.179,0.01,0.20,0.93,0.10,-0.15,-0.39,
0.182,-0.00,0.20,0.93,0.10,-0.15,-0.39,
0.183,-0.00,0.20,0.93,0.07,-0.13,-0.38,
0.183,0.00,0.21,0.93,0.07,-0.13,-0.38,
0.185,0.00,0.21,0.93,0.05,-0.14,-0.45,
0.186,0.00,0.20,0.93,0.05,-0.14,-0.45,
0.188,0.00,0.21,0.92,0.05,-0.14,-0.45,
0.193,0.00,0.20,0.92,0.05,-0.14,-0.45,
0.194,0.00,0.20,0.92,0.05,-0.13,-0.44,
0.194,0.00,0.20,0.92,0.05,-0.13,-0.44,
0.195,0.00,0.20,0.92,0.05,-0.13,-0.44,
0.195,0.00,0.20,0.92,0.07,-0.12,-0.50,
0.198,0.01,0.20,0.91,0.07,-0.12,-0.50,
0.201,0.01,0.20,0.91,0.07,-0.12,-0.50,
0.201,0.01,0.20,0.91,0.07,-0.14,-0.50,
0.203,0.01,0.20,0.91,0.07,-0.14,-0.50,
0.205,0.01,0.20,0.91,0.07,-0.14,-0.50,
0.206,0.01,0.20,0.91,0.11,-0.14,-0.61,
0.208,0.01,0.20,0.90,0.11,-0.14,-0.61,
0.21,0.01,0.20,0.89,0.11,-0.14,-0.61,
0.21,0.01,0.20,0.89,0.13,-0.17,-0.62,
0.212,0.02,0.21,0.89,0.13,-0.17,-0.62,
0.215,0.01,0.20,0.89,0.13,-0.17,-0.62,
0.216,0.01,0.20,0.89,0.15,-0.12,-0.73,
0.218,0.01,0.20,0.89,0.15,-0.12,-0.73,
0.22,0.02,0.21,0.88,0.15,-0.12,-0.73,
0.221,0.02,0.21,0.88,0.19,-0.11,-0.78,
0.222,0.02,0.21,0.87,0.19,-0.11,-0.78,
0.229,0.01,0.21,0.87,0.19,-0.11,-0.78,
0.23,0.01,0.21,0.87,0.17,-0.11,-0.82,
0.23,0.02,0.21,0.87,0.17,-0.11,-0.82,
0.231,0.02,0.21,0.87,0.19,-0.09,-0.92,
0.231,0.02,0.21,0.87,0.19,-0.09,-0.92,
0.235,0.02,0.21,0.86,0.19,-0.09,-0.92,
0.235,0.02,0.22,0.86,0.19,-0.09,-0.92,
0.235,0.02,0.22,0.86,0.21,-0.07,-0.96,
0.238,0.02,0.22,0.85,0.21,-0.07,-0.96,
0.239,0.03,0.21,0.85,0.21,-0.07,-0.96,
0.24,0.03,0.21,0.85,0.21,-0.01,-1.04,
0.243,0.03,0.21,0.85,0.21,-0.01,-1.04,
0.244,0.03,0.22,0.84,0.21,-0.01,-1.04,
0.245,0.03,0.22,0.84,0.27,0.00,-1.11,
0.247,0.03,0.21,0.84,0.27,0.00,-1.11,
0.249,0.03,0.22,0.83,0.27,0.00,-1.11,
0.25,0.03,0.22,0.83,0.29,0.00,-1.17,
0.251,0.03,0.22,0.83,0.29,0.00,-1.17,
0.254,0.03,0.22,0.82,0.29,0.00,-1.17,
0.255,0.03,0.22,0.82,0.32,0.01,-1.26,
0.256,0.04,0.22,0.82,0.32,0.01,-1.26,
0.26,0.04,0.22,0.82,0.32,0.01,-1.26,
0.261,0.04,0.22,0.82,0.32,0.07,-1.34,
0.261,0.05,0.22,0.81,0.32,0.07,-1.34,
0.264,0.05,0.21,0.81,0.32,0.07,-1.34,
0.265,0.05,0.21,0.81,0.41,0.05,-1.40,
0.266,0.05,0.21,0.80,0.41,0.05,-1.40,
0.269,0.05,0.21,0.80,0.47,0.01,-1.50,
0.269,0.05,0.21,0.80,0.47,0.01,-1.50,
0.271,0.05,0.21,0.80,0.47,0.01,-1.50,
0.276,0.05,0.21,0.79,0.47,0.01,-1.50,
0.276,0.05,0.21,0.79,0.49,0.00,-1.57,
0.277,0.06,0.21,0.78,0.49,0.00,-1.57,
0.279,0.06,0.21,0.79,0.49,0.00,-1.57,
0.28,0.06,0.21,0.79,0.50,-0.02,-1.58,
0.281,0.06,0.21,0.79,0.50,-0.02,-1.58,
0.284,0.06,0.21,0.79,0.50,-0.02,-1.58,
0.284,0.06,0.21,0.79,0.54,0.00,-1.67,
0.286,0.06,0.22,0.79,0.54,0.00,-1.67,
0.289,0.07,0.21,0.78,0.54,0.00,-1.67,
0.289,0.07,0.21,0.78,0.57,-0.02,-1.64,
0.292,0.06,0.21,0.79,0.57,-0.02,-1.64,
0.294,0.07,0.21,0.79,0.57,-0.02,-1.64,
0.294,0.07,0.21,0.79,0.63,0.03,-1.66,
0.296,0.07,0.22,0.79,0.63,0.03,-1.66,
0.299,0.07,0.21,0.79,0.63,0.03,-1.66,
0.299,0.07,0.21,0.79,0.62,0.03,-1.56,
0.301,0.08,0.21,0.79,0.62,0.03,-1.56,
0.305,0.08,0.21,0.79,0.62,0.03,-1.56,
0.306,0.08,0.21,0.79,0.69,0.04,-1.56,
0.306,0.08,0.21,0.79,0.69,0.04,-1.56,
0.309,0.09,0.21,0.80,0.69,0.04,-1.56,
0.309,0.09,0.21,0.80,0.75,0.02,-1.55,
0.311,0.09,0.21,0.80,0.75,0.02,-1.55,
0.314,0.09,0.20,0.80,0.75,0.02,-1.55,
0.314,0.09,0.20,0.80,0.77,0.02,-1.52,
0.316,0.08,0.21,0.81,0.77,0.02,-1.52,
0.319,0.07,0.21,0.81,0.77,0.02,-1.52,
0.319,0.07,0.21,0.81,0.81,-0.01,-1.46,
0.322,0.08,0.20,0.81,0.81,-0.01,-1.46,
0.324,0.08,0.20,0.80,0.81,-0.01,-1.46,
0.327,0.08,0.20,0.80,0.69,-0.00,-1.35,
0.327,0.08,0.20,0.81,0.69,-0.00,-1.35,
0.329,0.08,0.20,0.81,0.70,-0.07,-1.35,
0.33,0.08,0.20,0.81,0.70,-0.07,-1.35,
0.331,0.08,0.20,0.81,0.70,-0.07,-1.35,
0.334,0.09,0.19,0.79,0.70,-0.07,-1.35,
0.335,0.09,0.19,0.79,0.72,-0.08,-1.36,
0.336,0.10,0.19,0.79,0.72,-0.08,-1.36,
0.339,0.10,0.19,0.79,0.78,-0.08,-1.40,
0.34,0.11,0.19,0.78,0.78,-0.08,-1.40,
0.341,0.11,0.19,0.78,0.78,-0.08,-1.40,
0.346,0.11,0.18,0.77,0.78,-0.08,-1.40,
0.347,0.11,0.18,0.77,0.91,-0.14,-1.54,
0.347,0.12,0.18,0.75,0.91,-0.14,-1.54,
0.352,0.12,0.18,0.75,1.02,-0.20,-1.64,
0.352,0.12,0.17,0.75,1.02,-0.20,-1.64,
0.352,0.13,0.17,0.74,1.02,-0.20,-1.64,
0.353,0.13,0.17,0.74,1.02,-0.20,-1.64,
0.354,0.13,0.17,0.74,1.12,-0.25,-1.84,
0.357,0.13,0.16,0.73,1.12,-0.25,-1.84,
0.359,0.13,0.16,0.73,1.12,-0.25,-1.84,
0.359,0.13,0.16,0.73,1.19,-0.34,-1.93,
0.361,0.13,0.16,0.73,1.19,-0.34,-1.93,
0.364,0.13,0.16,0.73,1.24,-0.38,-2.06,
0.364,0.13,0.15,0.73,1.24,-0.38,-2.06,
0.366,0.13,0.15,0.72,1.24,-0.38,-2.06,
0.369,0.13,0.15,0.72,1.24,-0.44,-2.04,
0.369,0.12,0.15,0.73,1.24,-0.44,-2.04,
0.371,0.11,0.14,0.73,1.24,-0.44,-2.04,
0.374,0.11,0.14,0.73,1.16,-0.48,-2.08,
0.374,0.11,0.14,0.74,1.16,-0.48,-2.08,
0.376,0.10,0.13,0.74,1.16,-0.48,-2.08,
0.379,0.10,0.13,0.74,1.16,-0.48,-2.08,
0.379,0.10,0.13,0.74,1.01,-0.56,-1.96,
0.381,0.10,0.12,0.75,1.01,-0.56,-1.96,
0.383,0.09,0.11,0.76,1.01,-0.56,-1.96,
0.383,0.09,0.11,0.76,0.95,-0.65,-1.94,
0.387,0.09,0.10,0.76,0.95,-0.65,-1.94,
0.389,0.09,0.09,0.77,0.95,-0.65,-1.94,
0.389,0.09,0.09,0.77,0.86,-0.79,-1.79,
0.391,0.08,0.08,0.77,0.86,-0.79,-1.79,
0.393,0.08,0.08,0.77,0.86,-0.79,-1.79,
0.394,0.08,0.08,0.77,0.78,-0.96,-1.66,
0.396,0.08,0.07,0.77,0.78,-0.96,-1.66,
0.399,0.09,0.05,0.77,0.78,-0.96,-1.66,
0.399,0.09,0.05,0.77,0.73,-1.13,-1.61,
0.401,0.09,0.05,0.78,0.73,-1.13,-1.61,
0.404,0.10,0.04,0.78,0.73,-1.13,-1.61,
0.404,0.10,0.04,0.78,0.73,-1.30,-1.56,
0.405,0.10,0.03,0.78,0.73,-1.30,-1.56,
0.408,0.10,0.03,0.78,0.73,-1.30,-1.56,
0.409,0.10,0.03,0.78,0.78,-1.45,-1.49,
0.411,0.10,0.03,0.78,0.78,-1.45,-1.49,
0.413,0.11,0.03,0.77,0.78,-1.45,-1.49,
0.413,0.11,0.03,0.77,0.80,-1.58,-1.49,
0.415,0.11,0.03,0.77,0.80,-1.58,-1.49,
0.418,0.11,0.03,0.77,0.80,-1.58,-1.49,
0.419,0.11,0.03,0.77,0.88,-1.61,-1.51,
0.421,0.12,0.03,0.76,0.88,-1.61,-1.51,
0.423,0.12,0.02,0.75,0.88,-1.61,-1.51,
0.424,0.12,0.02,0.75,0.94,-1.60,-1.58,
0.426,0.12,0.02,0.75,0.94,-1.60,-1.58,
0.428,0.13,0.03,0.74,0.94,-1.60,-1.58,
0.428,0.13,0.03,0.74,1.00,-1.62,-1.67,
0.43,0.13,0.03,0.74,1.00,-1.62,-1.67,
0.433,0.13,0.03,0.72,1.00,-1.62,-1.67,
0.434,0.13,0.03,0.72,1.02,-1.62,-1.80,
0.435,0.13,0.04,0.72,1.02,-1.62,-1.80,
0.438,0.13,0.05,0.72,1.02,-1.62,-1.80,
0.438,0.13,0.05,0.72,1.08,-1.56,-1.94,
0.44,0.13,0.05,0.72,1.08,-1.56,-1.94,
0.442,0.13,0.05,0.71,1.08,-1.56,-1.94,
0.443,0.13,0.05,0.71,1.07,-1.43,-2.04,
0.448,0.13,0.06,0.72,1.07,-1.43,-2.04,
0.449,0.12,0.07,0.72,1.07,-1.43,-2.04,
0.449,0.12,0.07,0.72,1.08,-1.34,-2.05,
0.45,0.12,0.08,0.72,1.08,-1.34,-2.05,
0.453,0.12,0.08,0.72,1.08,-1.34,-2.05,
0.453,0.12,0.08,0.72,1.06,-1.18,-2.03,
0.455,0.12,0.09,0.73,1.06,-1.18,-2.03,
0.458,0.13,0.10,0.73,1.06,-1.18,-2.03,
0.458,0.13,0.10,0.73,1.02,-1.05,-1.98,
0.46,0.12,0.11,0.74,1.02,-1.05,-1.98,
0.462,0.12,0.11,0.75,1.02,-1.05,-1.98,
0.463,0.12,0.11,0.75,1.02,-0.88,-1.89,
0.465,0.12,0.12,0.76,1.02,-0.88,-1.89,
0.468,0.12,0.12,0.76,0.96,-0.73,-1.75,
0.468,0.12,0.13,0.77,0.96,-0.73,-1.75,
0.47,0.11,0.13,0.78,0.96,-0.73,-1.75,
0.472,0.11,0.14,0.79,0.96,-0.73,-1.75,
0.472,0.11,0.14,0.79,0.96,-0.58,-1.56,
0.474,0.11,0.14,0.80,0.96,-0.58,-1.56,
0.479,0.11,0.15,0.82,0.96,-0.58,-1.56,
0.479,0.11,0.15,0.82,0.89,-0.43,-1.35,
0.48,0.11,0.15,0.83,0.89,-0.43,-1.35,
0.482,0.11,0.15,0.84,0.89,-0.43,-1.35,
0.482,0.11,0.15,0.84,0.85,-0.34,-1.09,
0.484,0.12,0.15,0.86,0.85,-0.34,-1.09,
0.487,0.12,0.15,0.87,0.85,-0.34,-1.09,
0.487,0.12,0.15,0.87,0.86,-0.24,-0.81,
0.489,0.13,0.16,0.88,0.86,-0.24,-0.81,
0.493,0.13,0.16,0.90,0.86,-0.24,-0.81,
0.494,0.13,0.16,0.90,0.91,-0.19,-0.56,
0.494,0.14,0.15,0.92,0.91,-0.19,-0.56,
0.497,0.14,0.15,0.93,0.91,-0.19,-0.56,
0.497,0.14,0.15,0.93,0.97,-0.13,-0.30,
0.499,0.15,0.15,0.94,0.97,-0.13,-0.30,
0.502,0.15,0.14,0.95,0.97,-0.13,-0.30,
0.502,0.15,0.14,0.95,1.04,-0.15,0.01,
0.504,0.16,0.14,0.96,1.04,-0.15,0.01,
0.507,0.16,0.14,0.97,1.04,-0.15,0.01,
0.507,0.16,0.14,0.97,1.10,-0.18,0.22,
0.51,0.16,0.14,0.97,1.10,-0.18,0.22,
0.512,0.16,0.13,0.97,1.10,-0.18,0.22,
0.512,0.16,0.13,0.97,1.15,-0.23,0.42,
0.514,0.17,0.13,0.98,1.15,-0.23,0.42,
0.517,0.17,0.12,0.98,1.15,-0.23,0.42,
0.517,0.17,0.12,0.98,1.13,-0.29,0.50,
0.519,0.17,0.11,0.98,1.13,-0.29,0.50,
0.522,0.17,0.10,0.99,1.13,-0.29,0.50,
0.523,0.17,0.10,0.99,1.15,-0.36,0.57,
0.524,0.17,0.09,0.98,1.15,-0.36,0.57,
0.527,0.17,0.09,0.99,1.15,-0.36,0.57,
0.527,0.17,0.09,0.99,1.15,-0.50,0.60,
0.529,0.17,0.08,0.98,1.15,-0.50,0.60,
0.531,0.16,0.07,0.98,1.15,-0.50,0.60,
0.532,0.16,0.07,0.98,1.11,-0.65,0.63,
0.534,0.16,0.08,0.98,1.11,-0.65,0.63,
0.536,0.15,0.07,0.98,1.11,-0.65,0.63,
0.537,0.15,0.07,0.98,1.01,-0.78,0.58,
0.539,0.15,0.08,0.98,1.01,-0.78,0.58,
0.541,0.14,0.08,0.97,1.01,-0.78,0.58,
0.542,0.14,0.08,0.97,0.90,-0.81,0.59,
0.545,0.13,0.08,0.97,0.90,-0.81,0.59,
0.546,0.12,0.09,0.96,0.90,-0.81,0.59,
0.547,0.12,0.09,0.96,0.74,-0.78,0.48,
0.548,0.11,0.10,0.96,0.74,-0.78,0.48,
0.552,0.10,0.10,0.95,0.74,-0.78,0.48,
0.552,0.10,0.10,0.95,0.57,-0.70,0.41,
0.553,0.09,0.11,0.94,0.57,-0.70,0.41,
0.556,0.08,0.12,0.93,0.57,-0.70,0.41,
0.557,0.08,0.12,0.93,0.34,-0.56,0.29,
0.564,0.06,0.13,0.93,0.34,-0.56,0.29,
0.565,0.05,0.14,0.92,0.34,-0.56,0.29,
0.565,0.05,0.14,0.92,0.11,-0.42,0.12,
0.565,0.05,0.16,0.92,0.11,-0.42,0.12,
0.566,0.03,0.17,0.91,0.11,-0.42,0.12,
0.566,0.03,0.17,0.91,-0.13,-0.22,-0.00,
0.568,0.03,0.19,0.91,-0.13,-0.22,-0.00,
0.571,0.02,0.20,0.91,-0.13,-0.22,-0.00,
0.572,0.02,0.20,0.91,-0.31,0.08,-0.08,
0.574,0.01,0.22,0.92,-0.31,0.08,-0.08,
0.578,0.00,0.24,0.92,-0.31,0.08,-0.08,
0.579,0.00,0.24,0.92,-0.50,0.39,-0.09,
0.579,0.00,0.25,0.92,-0.50,0.39,-0.09,
0.581,-0.00,0.26,0.93,-0.50,0.39,-0.09,
0.581,-0.00,0.26,0.93,-0.71,0.71,-0.04,
0.584,0.00,0.27,0.94,-0.71,0.71,-0.04,
0.588,0.00,0.29,0.94,-0.71,0.71,-0.04,
0.588,0.00,0.29,0.94,-0.78,0.98,0.02,
0.59,0.01,0.29,0.96,-0.78,0.98,0.02,
0.592,0.03,0.29,0.96,-0.78,0.98,0.02,
0.592,0.03,0.29,0.96,-0.79,1.22,0.18,
0.595,0.04,0.29,0.97,-0.79,1.22,0.18,
0.596,0.06,0.29,0.99,-0.79,1.22,0.18,
0.597,0.06,0.29,0.99,-0.66,1.35,0.36,
0.598,0.08,0.29,0.99,-0.66,1.35,0.36,
0.601,0.09,0.28,1.00,-0.66,1.35,0.36,
0.601,0.09,0.28,1.00,-0.41,1.35,0.57,
0.603,0.11,0.27,1.01,-0.41,1.35,0.57,
0.606,0.14,0.26,1.01,-0.41,1.35,0.57,
0.607,0.14,0.26,1.01,-0.09,1.30,0.71,
0.609,0.16,0.25,1.02,-0.09,1.30,0.71,
0.611,0.18,0.24,1.02,-0.09,1.30,0.71,
0.612,0.18,0.24,1.02,0.28,1.14,0.83,
0.613,0.21,0.22,1.03,0.28,1.14,0.83,
0.616,0.21,0.22,1.03,0.67,0.93,0.94,
0.617,0.22,0.21,1.03,0.67,0.93,0.94,
0.618,0.23,0.20,1.03,0.67,0.93,0.94,
0.622,0.24,0.18,1.04,0.67,0.93,0.94,
0.622,0.24,0.18,1.04,1.05,0.68,1.00,
0.624,0.25,0.17,1.04,1.05,0.68,1.00,
0.627,0.25,0.16,1.04,1.05,0.68,1.00,
0.628,0.25,0.16,1.04,1.26,0.43,1.11,
0.628,0.25,0.15,1.05,1.26,0.43,1.11,
0.631,0.24,0.15,1.05,1.26,0.43,1.11,
0.631,0.24,0.15,1.05,1.32,0.21,1.15,
0.633,0.22,0.14,1.05,1.32,0.21,1.15,
0.635,0.21,0.14,1.05,1.32,0.21,1.15,
0.636,0.21,0.14,1.05,1.26,0.07,1.20,
0.638,0.19,0.14,1.05,1.26,0.07,1.20,
0.641,0.17,0.15,1.05,1.26,0.07,1.20,
0.641,0.17,0.15,1.05,0.99,0.05,1.19,
0.643,0.14,0.15,1.04,0.99,0.05,1.19,
0.645,0.12,0.15,1.04,0.99,0.05,1.19,
0.646,0.12,0.15,1.04,0.65,0.08,1.19,
0.649,0.10,0.16,1.03,0.65,0.08,1.19,
0.651,0.08,0.16,1.04,0.65,0.08,1.19,
0.651,0.08,0.16,1.04,0.22,0.17,1.09,
0.653,0.06,0.17,1.02,0.22,0.17,1.09,
0.656,0.04,0.17,1.02,0.22,0.17,1.09,
0.657,0.04,0.17,1.02,-0.16,0.26,1.03,
0.658,0.02,0.17,1.00,-0.16,0.26,1.03,
0.665,-0.01,0.17,1.00,-0.16,0.26,1.03,
0.666,-0.01,0.17,1.00,-0.55,0.41,0.86,
0.667,-0.03,0.18,0.99,-0.55,0.41,0.86,
0.667,-0.04,0.18,0.98,-0.55,0.41,0.86,
0.667,-0.04,0.18,0.98,-0.95,0.49,0.66,
0.668,-0.05,0.18,0.97,-0.95,0.49,0.66,
0.671,-0.07,0.19,0.97,-0.95,0.49,0.66,
0.671,-0.07,0.19,0.97,-1.28,0.64,0.47,
0.672,-0.08,0.20,0.96,-1.28,0.64,0.47,
0.676,-0.08,0.20,0.95,-1.28,0.64,0.47,
0.676,-0.08,0.20,0.95,-1.48,0.74,0.36,
0.677,-0.08,0.21,0.94,-1.48,0.74,0.36,
0.683,-0.07,0.21,0.94,-1.48,0.74,0.36,
0.683,-0.07,0.21,0.94,-1.62,0.88,0.20,
0.684,-0.06,0.22,0.94,-1.62,0.88,0.20,
0.685,-0.04,0.22,0.93,-1.62,0.88,0.20,
0.686,-0.04,0.22,0.93,-1.58,1.03,0.07,
0.688,-0.02,0.22,0.93,-1.58,1.03,0.07,
0.691,0.01,0.22,0.93,-1.58,1.03,0.07,
0.691,0.01,0.22,0.93,-1.34,1.16,0.01,
0.693,0.04,0.22,0.93,-1.34,1.16,0.01,
0.695,0.07,0.22,0.93,-1.34,1.16,0.01,
0.696,0.07,0.22,0.93,-0.90,1.21,-0.06,
0.697,0.10,0.22,0.93,-0.90,1.21,-0.06,
0.7,0.13,0.21,0.93,-0.90,1.21,-0.06,
0.701,0.13,0.21,0.93,-0.31,1.23,-0.08,
0.703,0.15,0.21,0.94,-0.31,1.23,-0.08,
0.706,0.18,0.20,0.94,-0.31,1.23,-0.08,
0.706,0.18,0.20,0.94,0.26,1.22,-0.07,
0.708,0.20,0.20,0.94,0.26,1.22,-0.07,
0.71,0.21,0.20,0.95,0.26,1.22,-0.07,
0.71,0.21,0.20,0.95,0.77,1.18,0.01,
0.713,0.22,0.20,0.95,0.77,1.18,0.01,
0.715,0.22,0.20,0.95,1.08,1.14,0.09,
0.716,0.22,0.19,0.96,1.08,1.14,0.09,
0.718,0.22,0.19,0.97,1.08,1.14,0.09,
0.72,0.22,0.19,0.98,1.08,1.14,0.09,
0.721,0.22,0.19,0.98,1.24,1.13,0.17,
0.722,0.21,0.18,1.00,1.24,1.13,0.17,
0.725,0.19,0.18,1.03,1.24,1.13,0.17,
0.726,0.19,0.18,1.03,1.15,1.12,0.39,
0.728,0.18,0.18,1.05,1.15,1.12,0.39,
0.73,0.16,0.16,1.07,1.15,1.12,0.39,
0.73,0.16,0.16,1.07,0.93,1.08,0.74,
0.733,0.14,0.15,1.09,0.93,1.08,0.74,
0.735,0.12,0.14,1.12,0.93,1.08,0.74,
0.736,0.12,0.14,1.12,0.55,1.00,1.18,
0.738,0.10,0.12,1.15,0.55,1.00,1.18,
0.74,0.10,0.12,1.15,0.12,0.80,1.65,
0.74,0.09,0.11,1.17,0.12,0.80,1.65,
0.742,0.07,0.09,1.20,0.12,0.80,1.65,
0.745,0.06,0.07,1.21,0.12,0.80,1.65,
0.745,0.06,0.07,1.21,-0.28,0.55,2.19,
0.747,0.05,0.05,1.23,-0.28,0.55,2.19,
0.75,0.04,0.04,1.25,-0.28,0.55,2.19,
0.751,0.04,0.04,1.25,-0.61,0.27,2.61,
0.752,0.04,0.02,1.26,-0.61,0.27,2.61,
0.755,0.03,0.00,1.27,-0.61,0.27,2.61,
0.755,0.03,0.00,1.27,-0.84,-0.03,2.95,
0.757,0.02,-0.01,1.29,-0.84,-0.03,2.95,
0.76,0.02,-0.02,1.29,-0.84,-0.03,2.95,
0.76,0.02,-0.02,1.29,-1.02,-0.31,3.17,
0.766,0.01,-0.03,1.29,-1.02,-0.31,3.17,
0.766,0.01,-0.04,1.29,-1.02,-0.31,3.17,
0.766,0.01,-0.04,1.29,-1.17,-0.51,3.38,
0.766,0.01,-0.04,1.28,-1.17,-0.51,3.38,
0.769,0.01,-0.04,1.28,-1.17,-0.51,3.38,
0.77,0.01,-0.04,1.28,-1.30,-0.66,3.38,
0.771,0.01,-0.04,1.28,-1.30,-0.66,3.38,
0.775,0.01,-0.04,1.28,-1.36,-0.68,3.30,
0.775,0.02,-0.05,1.27,-1.36,-0.68,3.30,
0.778,0.02,-0.05,1.28,-1.36,-0.68,3.30,
0.78,0.03,-0.05,1.27,-1.36,-0.68,3.30,
0.78,0.03,-0.05,1.27,-1.34,-0.67,3.27,
0.782,0.03,-0.05,1.27,-1.34,-0.67,3.27,
0.784,0.05,-0.04,1.27,-1.34,-0.67,3.27,
0.784,0.05,-0.04,1.27,-1.28,-0.66,3.23,
0.786,0.05,-0.04,1.27,-1.28,-0.66,3.23,
0.789,0.06,-0.04,1.27,-1.28,-0.66,3.23,
0.789,0.06,-0.04,1.27,-1.12,-0.58,3.16,
0.791,0.07,-0.04,1.27,-1.12,-0.58,3.16,
0.797,0.07,-0.04,1.27,-1.12,-0.58,3.16,
0.798,0.07,-0.04,1.27,-0.95,-0.50,3.16,
0.798,0.08,-0.03,1.28,-0.95,-0.50,3.16,
0.799,0.08,-0.04,1.28,-0.95,-0.50,3.16,
0.799,0.08,-0.04,1.28,-0.83,-0.41,3.17,
0.801,0.08,-0.04,1.29,-0.83,-0.41,3.17,
0.804,0.09,-0.04,1.30,-0.83,-0.41,3.17,
0.804,0.09,-0.04,1.30,-0.75,-0.30,3.23,
0.806,0.09,-0.04,1.31,-0.75,-0.30,3.23,
0.809,0.08,-0.05,1.32,-0.75,-0.30,3.23,
0.809,0.08,-0.05,1.32,-0.73,-0.31,3.40,
0.811,0.08,-0.05,1.33,-0.73,-0.31,3.40,
0.814,0.07,-0.05,1.34,-0.73,-0.31,3.40,
0.814,0.07,-0.05,1.34,-0.75,-0.30,3.57,
0.816,0.07,-0.05,1.34,-0.75,-0.30,3.57,
0.819,0.07,-0.06,1.35,-0.75,-0.30,3.57,
0.821,0.07,-0.06,1.35,-0.84,-0.27,3.75,
0.821,0.07,-0.06,1.35,-0.84,-0.27,3.75,
0.824,0.06,-0.06,1.36,-0.84,-0.27,3.75,
0.824,0.06,-0.06,1.36,-0.88,-0.27,3.84,
0.826,0.06,-0.07,1.36,-0.88,-0.27,3.84,
0.83,0.05,-0.07,1.37,-0.88,-0.27,3.84,
0.831,0.05,-0.07,1.37,-0.96,-0.31,3.96,
0.831,0.05,-0.08,1.37,-0.96,-0.31,3.96,
0.833,0.05,-0.08,1.37,-0.96,-0.31,3.96,
0.834,0.05,-0.08,1.37,-1.06,-0.34,4.04,
0.836,0.05,-0.08,1.36,-1.06,-0.34,4.04,
0.839,0.05,-0.09,1.35,-1.06,-0.34,4.04,
0.839,0.05,-0.09,1.35,-1.16,-0.40,4.03,
0.84,0.05,-0.09,1.35,-1.16,-0.40,4.03,
0.845,0.05,-0.10,1.35,-1.16,-0.40,4.03,
0.845,0.05,-0.10,1.35,-1.14,-0.41,3.94,
0.846,0.05,-0.10,1.35,-1.14,-0.41,3.94,
0.848,0.05,-0.10,1.33,-1.14,-0.41,3.94,
0.849,0.05,-0.10,1.33,-1.14,-0.45,3.86,
0.851,0.05,-0.10,1.32,-1.14,-0.45,3.86,
0.853,0.05,-0.11,1.32,-1.14,-0.45,3.86,
0.853,0.05,-0.11,1.32,-1.13,-0.45,3.73,
0.855,0.05,-0.11,1.31,-1.13,-0.45,3.73,
0.858,0.05,-0.12,1.30,-1.13,-0.45,3.73,
0.859,0.05,-0.12,1.30,-1.13,-0.51,3.54,
0.861,0.05,-0.13,1.30,-1.13,-0.51,3.54,
0.863,0.06,-0.13,1.28,-1.13,-0.51,3.54,
0.863,0.06,-0.13,1.28,-1.14,-0.54,3.37,
0.865,0.06,-0.13,1.28,-1.14,-0.54,3.37,
0.868,0.06,-0.13,1.27,-1.14,-0.54,3.37,
0.869,0.06,-0.13,1.27,-1.11,-0.60,3.21,
0.87,0.05,-0.13,1.25,-1.11,-0.60,3.21,
0.874,0.05,-0.13,1.24,-1.11,-0.60,3.21,
0.874,0.05,-0.13,1.24,-1.05,-0.60,3.03,
0.875,0.06,-0.13,1.23,-1.05,-0.60,3.03,
0.882,0.07,-0.14,1.22,-1.05,-0.60,3.03,
0.882,0.07,-0.14,1.22,-1.09,-0.58,2.78,
0.882,0.08,-0.14,1.22,-1.09,-0.58,2.78,
0.883,0.08,-0.14,1.21,-1.09,-0.58,2.78,
0.883,0.08,-0.14,1.21,-0.96,-0.55,2.58,
0.885,0.09,-0.14,1.20,-0.96,-0.55,2.58,
0.888,0.10,-0.15,1.20,-0.96,-0.55,2.58,
0.888,0.10,-0.15,1.20,-0.76,-0.57,2.47,
0.89,0.10,-0.15,1.19,-0.76,-0.57,2.47,
0.893,0.11,-0.16,1.19,-0.76,-0.57,2.47,
0.893,0.11,-0.16,1.19,-0.61,-0.59,2.29,
0.895,0.11,-0.16,1.19,-0.61,-0.59,2.29,
0.898,0.11,-0.17,1.18,-0.61,-0.59,2.29,
0.898,0.11,-0.17,1.18,-0.50,-0.61,2.17,
0.9,0.11,-0.16,1.18,-0.50,-0.61,2.17,
0.903,0.11,-0.16,1.19,-0.50,-0.61,2.17,
0.903,0.11,-0.16,1.19,-0.42,-0.67,2.17,
0.905,0.11,-0.16,1.19,-0.42,-0.67,2.17,
0.908,0.10,-0.16,1.20,-0.42,-0.67,2.17,
0.908,0.10,-0.16,1.20,-0.38,-0.62,2.11,
0.91,0.10,-0.16,1.21,-0.38,-0.62,2.11,
0.913,0.10,-0.16,1.23,-0.38,-0.62,2.11,
0.913,0.10,-0.16,1.23,-0.40,-0.58,2.23,
0.915,0.09,-0.16,1.23,-0.40,-0.58,2.23,
0.918,0.09,-0.16,1.24,-0.40,-0.58,2.23,
0.918,0.09,-0.16,1.24,-0.47,-0.49,2.45,
0.92,0.09,-0.16,1.25,-0.47,-0.49,2.45,
0.923,0.09,-0.16,1.25,-0.52,-0.45,2.60,
0.923,0.08,-0.16,1.27,-0.52,-0.45,2.60,
0.925,0.08,-0.16,1.27,-0.52,-0.45,2.60,
0.928,0.08,-0.16,1.28,-0.52,-0.45,2.60,
0.929,0.08,-0.16,1.28,-0.59,-0.43,2.84,
0.931,0.08,-0.17,1.28,-0.59,-0.43,2.84,
0.933,0.08,-0.17,1.28,-0.59,-0.43,2.84,
0.933,0.08,-0.17,1.28,-0.60,-0.39,2.97,
0.935,0.08,-0.16,1.28,-0.60,-0.39,2.97,
0.937,0.08,-0.17,1.27,-0.60,-0.39,2.97,
0.938,0.08,-0.17,1.27,-0.58,-0.45,3.00,
0.94,0.09,-0.17,1.27,-0.58,-0.45,3.00,
0.942,0.08,-0.17,1.27,-0.58,-0.45,3.00,
0.942,0.08,-0.17,1.27,-0.54,-0.42,2.97,
0.945,0.09,-0.18,1.27,-0.54,-0.42,2.97,
0.947,0.09,-0.18,1.26,-0.54,-0.42,2.97,
0.948,0.09,-0.18,1.26,-0.53,-0.45,2.94,
0.949,0.09,-0.18,1.26,-0.53,-0.45,2.94,
0.952,0.09,-0.18,1.26,-0.46,-0.49,2.86,
0.953,0.10,-0.18,1.25,-0.46,-0.49,2.86,
0.954,0.10,-0.17,1.24,-0.46,-0.49,2.86,
0.958,0.11,-0.17,1.23,-0.46,-0.49,2.86,
0.958,0.11,-0.17,1.23,-0.40,-0.48,2.75,
0.959,0.12,-0.17,1.23,-0.40,-0.48,2.75,
0.963,0.11,-0.17,1.21,-0.40,-0.48,2.75,
0.963,0.11,-0.17,1.21,-0.29,-0.43,2.56,
0.964,0.11,-0.17,1.21,-0.29,-0.43,2.56,
0.967,0.11,-0.17,1.21,-0.20,-0.44,2.38,
0.967,0.12,-0.16,1.19,-0.20,-0.44,2.38,
0.969,0.12,-0.16,1.18,-0.20,-0.44,2.38,
0.972,0.12,-0.15,1.17,-0.20,-0.44,2.38,
0.972,0.12,-0.15,1.17,-0.17,-0.36,2.16,
0.974,0.12,-0.15,1.15,-0.17,-0.36,2.16,
0.978,0.12,-0.14,1.14,-0.17,-0.36,2.16,
0.978,0.12,-0.14,1.14,-0.11,-0.26,1.92,
0.983,0.13,-0.14,1.13,-0.11,-0.26,1.92,
0.984,0.13,-0.13,1.11,-0.11,-0.26,1.92,
0.984,0.13,-0.13,1.11,-0.04,-0.20,1.63,
0.986,0.13,-0.13,1.10,-0.04,-0.20,1.63,
0.987,0.14,-0.13,1.09,-0.04,-0.20,1.63,
0.987,0.14,-0.13,1.09,0.00,-0.12,1.39,
0.989,0.14,-0.13,1.08,0.00,-0.12,1.39,
0.992,0.15,-0.13,1.07,0.00,-0.12,1.39,
0.992,0.15,-0.13,1.07,0.09,-0.06,1.13,
0.994,0.15,-0.12,1.07,0.09,-0.06,1.13,
0.997,0.16,-0.12,1.06,0.09,-0.06,1.13,
0.998,0.16,-0.12,1.06,0.16,-0.07,0.94,
0.999,0.16,-0.11,1.05,0.16,-0.07,0.94,
1.002,0.16,-0.11,1.05,0.16,-0.07,0.94,
1.003,0.16,-0.11,1.05,0.27,-0.01,0.79,
1.004,0.16,-0.11,1.05,0.27,-0.01,0.79,
1.007,0.17,-0.11,1.04,0.27,-0.01,0.79,
1.008,0.17,-0.11,1.04,0.34,0.04,0.65,
1.01,0.17,-0.10,1.05,0.34,0.04,0.65,
1.013,0.17,-0.10,1.05,0.34,0.04,0.65,
1.014,0.17,-0.10,1.05,0.40,0.04,0.62,
1.014,0.18,-0.10,1.06,0.40,0.04,0.62,
1.017,0.18,-0.10,1.07,0.40,0.04,0.62,
1.017,0.18,-0.10,1.07,0.45,0.10,0.65,
1.019,0.19,-0.09,1.08,0.45,0.10,0.65,
1.022,0.18,-0.09,1.09,0.45,0.10,0.65,
1.022,0.18,-0.09,1.09,0.52,0.12,0.76,
1.024,0.19,-0.09,1.10,0.52,0.12,0.76,
1.027,0.19,-0.08,1.12,0.52,0.12,0.76,
1.027,0.19,-0.08,1.12,0.54,0.19,1.00,
1.03,0.19,-0.08,1.14,0.54,0.19,1.00,
1.032,0.19,-0.08,1.15,0.54,0.19,1.00,
1.032,0.19,-0.08,1.15,0.54,0.23,1.25,
1.034,0.19,-0.08,1.17,0.54,0.23,1.25,
1.037,0.20,-0.09,1.18,0.54,0.23,1.25,
1.037,0.20,-0.09,1.18,0.53,0.24,1.56,
1.039,0.20,-0.09,1.20,0.53,0.24,1.56,
1.042,0.20,-0.09,1.21,0.53,0.24,1.56,
1.042,0.20,-0.09,1.21,0.55,0.21,1.88,
1.044,0.20,-0.10,1.22,0.55,0.21,1.88,
1.049,0.20,-0.10,1.22,0.60,0.13,2.17,
1.049,0.21,-0.11,1.23,0.60,0.13,2.17,
1.049,0.20,-0.11,1.24,0.60,0.13,2.17,
1.052,0.20,-0.11,1.24,0.64,-0.02,2.34,
1.052,0.21,-0.12,1.24,0.64,-0.02,2.34,
1.054,0.21,-0.12,1.24,0.64,-0.02,2.34,
1.057,0.21,-0.12,1.24,0.65,-0.11,2.47,
1.057,0.21,-0.12,1.24,0.65,-0.11,2.47,
1.059,0.21,-0.13,1.24,0.65,-0.11,2.47,
1.065,0.21,-0.12,1.24,0.65,-0.11,2.47,
1.066,0.21,-0.12,1.24,0.65,-0.20,2.49,
1.066,0.20,-0.12,1.24,0.65,-0.20,2.49,
1.066,0.20,-0.12,1.23,0.65,-0.20,2.49,
1.066,0.20,-0.12,1.23,0.66,-0.21,2.47,
1.068,0.19,-0.12,1.23,0.66,-0.21,2.47,
1.072,0.19,-0.12,1.23,0.59,-0.20,2.41,
1.072,0.18,-0.11,1.23,0.59,-0.20,2.41,
1.074,0.17,-0.10,1.23,0.59,-0.20,2.41,
1.078,0.16,-0.10,1.22,0.59,-0.20,2.41,
1.078,0.16,-0.10,1.22,0.42,-0.14,2.37,
1.078,0.15,-0.10,1.22,0.42,-0.14,2.37,
1.081,0.15,-0.10,1.22,0.42,-0.14,2.37,
1.082,0.15,-0.10,1.22,0.28,-0.00,2.30,
1.083,0.14,-0.10,1.23,0.28,-0.00,2.30,
1.087,0.13,-0.10,1.23,0.28,-0.00,2.30,
1.087,0.13,-0.10,1.23,0.13,-0.00,2.27,
1.089,0.13,-0.10,1.22,0.13,-0.00,2.27,
1.092,0.13,-0.10,1.22,0.13,-0.00,2.27,
1.092,0.13,-0.10,1.22,0.00,-0.01,2.30,
1.094,0.12,-0.10,1.23,0.00,-0.01,2.30,
1.097,0.12,-0.10,1.23,0.00,-0.01,2.30,
1.097,0.12,-0.10,1.23,-0.07,-0.01,2.25,
1.099,0.12,-0.10,1.22,-0.07,-0.01,2.25,
1.101,0.13,-0.10,1.22,-0.07,-0.01,2.25,
1.101,0.13,-0.10,1.22,-0.12,-0.02,2.27,
1.103,0.13,-0.10,1.21,-0.12,-0.02,2.27,
1.107,0.14,-0.09,1.20,-0.12,-0.02,2.27,
1.107,0.14,-0.09,1.20,-0.06,0.01,2.19,
1.109,0.14,-0.09,1.20,-0.06,0.01,2.19,
1.111,0.14,-0.09,1.20,-0.06,0.01,2.19,
1.112,0.14,-0.09,1.20,0.04,0.01,2.05,
1.114,0.15,-0.09,1.19,0.04,0.01,2.05,
1.116,0.15,-0.08,1.19,0.04,0.01,2.05,
1.116,0.15,-0.08,1.19,0.13,0.03,1.98,
1.119,0.16,-0.07,1.18,0.13,0.03,1.98,
1.121,0.16,-0.07,1.18,0.13,0.03,1.98,
1.122,0.16,-0.07,1.18,0.24,0.10,1.87,
1.124,0.15,-0.06,1.18,0.24,0.10,1.87,
1.126,0.15,-0.05,1.18,0.24,0.10,1.87,
1.127,0.15,-0.05,1.18,0.29,0.21,1.78,
1.128,0.15,-0.04,1.18,0.29,0.21,1.78,
1.132,0.16,-0.03,1.17,0.29,0.21,1.78,
1.132,0.16,-0.03,1.17,0.25,0.34,1.78,
1.133,0.15,-0.03,1.17,0.25,0.34,1.78,
1.135,0.16,-0.02,1.17,0.25,0.34,1.78,
1.136,0.16,-0.02,1.17,0.29,0.51,1.72,
1.139,0.16,-0.02,1.17,0.29,0.51,1.72,
1.141,0.17,-0.01,1.17,0.29,0.51,1.72,
1.141,0.17,-0.01,1.17,0.30,0.64,1.67,
1.143,0.17,-0.01,1.18,0.30,0.64,1.67,
1.145,0.16,-0.00,1.18,0.30,0.64,1.67,
1.146,0.16,-0.00,1.18,0.40,0.70,1.64,
1.148,0.16,0.00,1.19,0.40,0.70,1.64,
1.151,0.17,0.01,1.19,0.40,0.70,1.64,
1.151,0.17,0.01,1.19,0.41,0.81,1.73,
1.153,0.16,0.01,1.19,0.41,0.81,1.73,
1.156,0.17,0.01,1.20,0.41,0.81,1.73,
1.156,0.17,0.01,1.20,0.40,0.90,1.84,
1.159,0.17,0.01,1.20,0.40,0.90,1.84,
1.161,0.17,0.01,1.20,0.40,0.90,1.84,
1.161,0.17,0.01,1.20,0.41,0.94,1.91,
1.163,0.18,0.01,1.20,0.41,0.94,1.91,
1.165,0.18,0.01,1.20,0.41,0.94,1.91,
1.165,0.18,0.01,1.20,0.47,0.94,1.93,
1.167,0.19,0.00,1.20,0.47,0.94,1.93,
1.17,0.19,0.00,1.20,0.58,0.91,1.90,
1.17,0.19,-0.00,1.20,0.58,0.91,1.90,
1.172,0.18,0.00,1.20,0.58,0.91,1.90,
1.175,0.18,0.00,1.20,0.58,0.91,1.90,
1.175,0.18,0.00,1.20,0.60,0.77,1.92,
1.177,0.17,0.01,1.20,0.60,0.77,1.92,
1.181,0.17,0.00,1.21,0.60,0.77,1.92,
1.181,0.17,0.00,1.21,0.53,0.79,1.92,
1.183,0.16,0.00,1.21,0.53,0.79,1.92,
1.185,0.16,0.00,1.20,0.53,0.79,1.92,
1.185,0.16,0.00,1.20,0.45,0.78,1.95,
1.187,0.15,-0.00,1.20,0.45,0.78,1.95,
1.19,0.15,-0.00,1.20,0.34,0.73,1.94,
1.19,0.14,-0.00,1.20,0.34,0.73,1.94,
1.192,0.13,-0.00,1.20,0.34,0.73,1.94,
1.201,0.13,-0.00,1.20,0.19,0.67,1.91,
1.201,0.12,-0.00,1.20,0.19,0.67,1.91,
1.202,0.11,-0.00,1.20,0.19,0.67,1.91,
1.202,0.11,-0.00,1.20,0.19,0.67,1.91,
1.202,0.11,-0.00,1.20,0.02,0.65,1.87,
1.202,0.10,-0.00,1.19,0.02,0.65,1.87,
1.205,0.10,-0.00,1.19,-0.14,0.61,1.87,
1.205,0.10,-0.00,1.19,-0.14,0.61,1.87,
1.208,0.09,-0.00,1.18,-0.14,0.61,1.87,
1.21,0.08,0.00,1.18,-0.14,0.61,1.87,
1.21,0.08,0.00,1.18,-0.23,0.58,1.78,
1.212,0.08,0.01,1.18,-0.23,0.58,1.78,
1.215,0.07,0.01,1.17,-0.23,0.58,1.78,
1.215,0.07,0.01,1.17,-0.34,0.58,1.68,
1.217,0.07,0.01,1.17,-0.34,0.58,1.68,
1.22,0.07,0.01,1.16,-0.34,0.58,1.68,
1.22,0.07,0.01,1.16,-0.43,0.60,1.61,
1.224,0.07,0.01,1.15,-0.43,0.60,1.61,
1.226,0.07,0.01,1.15,-0.47,0.60,1.49,
1.226,0.07,0.01,1.14,-0.47,0.60,1.49,
1.227,0.07,0.01,1.14,-0.47,0.60,1.49,
1.231,0.07,0.02,1.13,-0.47,0.60,1.49,
1.232,0.07,0.02,1.13,-0.47,0.55,1.27,
1.235,0.07,0.02,1.12,-0.47,0.55,1.27,
1.236,0.07,0.02,1.12,-0.45,0.56,1.14,
1.236,0.07,0.01,1.11,-0.45,0.56,1.14,
1.239,0.07,0.01,1.11,-0.45,0.56,1.14,
1.24,0.08,0.01,1.09,-0.45,0.56,1.14,
1.24,0.08,0.01,1.09,-0.41,0.53,1.00,
1.242,0.08,0.01,1.09,-0.41,0.53,1.00,
1.244,0.08,0.01,1.08,-0.41,0.53,1.00,
1.245,0.08,0.01,1.08,-0.33,0.46,0.83,
1.249,0.08,0.01,1.07,-0.33,0.46,0.83,
1.25,0.09,0.01,1.05,-0.33,0.46,0.83,
1.25,0.09,0.01,1.05,-0.30,0.41,0.67,
1.252,0.09,0.01,1.04,-0.30,0.41,0.67,
1.254,0.09,0.01,1.03,-0.30,0.41,0.67,
1.255,0.09,0.01,1.03,-0.25,0.39,0.42,
1.257,0.10,0.00,1.02,-0.25,0.39,0.42,
1.259,0.09,0.01,1.01,-0.25,0.39,0.42,
1.259,0.09,0.01,1.01,-0.19,0.31,0.22,
1.261,0.10,0.00,1.00,-0.19,0.31,0.22,
1.265,0.10,0.01,0.99,-0.19,0.31,0.22,
1.265,0.10,0.01,0.99,-0.12,0.20,-0.01,
1.266,0.10,0.01,0.98,-0.12,0.20,-0.01,
1.27,0.09,0.00,0.97,-0.12,0.20,-0.01,
1.27,0.09,0.00,0.97,-0.06,0.15,-0.21,
1.272,0.10,-0.00,0.95,-0.06,0.15,-0.21,
1.275,0.09,-0.00,0.95,-0.06,0.15,-0.21,
1.275,0.09,-0.00,0.95,-0.09,0.11,-0.43,
1.277,0.08,-0.00,0.95,-0.09,0.11,-0.43,
1.279,0.08,0.00,0.94,-0.09,0.11,-0.43,
1.279,0.08,0.00,0.94,-0.11,0.01,-0.63,
1.281,0.06,-0.00,0.95,-0.11,0.01,-0.63,
1.285,0.06,0.00,0.95,-0.11,0.01,-0.63,
1.285,0.06,0.00,0.95,-0.17,-0.00,-0.73,
1.287,0.05,0.01,0.95,-0.17,-0.00,-0.73,
1.29,0.05,0.01,0.95,-0.38,-0.03,-0.66,
1.29,0.04,0.01,0.96,-0.38,-0.03,-0.66,
1.292,0.04,0.01,0.96,-0.38,-0.03,-0.66,
1.295,0.03,0.01,0.97,-0.38,-0.03,-0.66,
1.295,0.03,0.01,0.97,-0.49,0.01,-0.62,
1.3,0.02,0.01,0.98,-0.49,0.01,-0.62,
1.301,0.01,0.01,0.98,-0.49,0.01,-0.62,
1.301,0.01,0.01,0.98,-0.63,-0.00,-0.49,
1.301,0.01,0.01,0.99,-0.63,-0.00,-0.49,
1.304,0.01,0.01,0.99,-0.80,-0.02,-0.37,
1.304,0.00,0.01,0.99,-0.80,-0.02,-0.37,
1.306,-0.00,0.01,1.00,-0.80,-0.02,-0.37,
1.309,0.00,0.00,1.00,-0.80,-0.02,-0.37,
1.31,0.00,0.00,1.00,-0.87,-0.07,-0.26,
1.312,0.00,0.00,1.00,-0.87,-0.07,-0.26,
1.314,0.01,-0.01,1.01,-0.87,-0.07,-0.26,
1.317,0.01,-0.01,1.01,-0.90,-0.12,-0.16,
1.317,0.01,-0.01,1.01,-0.90,-0.12,-0.16,
1.319,0.01,-0.01,1.01,-0.85,-0.20,-0.13,
1.319,0.01,-0.01,1.01,-0.85,-0.20,-0.13,
1.321,0.01,-0.01,1.02,-0.85,-0.20,-0.13,
1.324,0.01,-0.02,1.02,-0.85,-0.20,-0.13,
1.324,0.01,-0.02,1.02,-0.79,-0.26,-0.08,
1.327,0.01,-0.02,1.01,-0.79,-0.26,-0.08,
1.329,0.00,-0.02,1.01,-0.79,-0.26,-0.08,
1.329,0.00,-0.02,1.01,-0.82,-0.35,-0.00,
1.331,0.00,-0.02,1.01,-0.82,-0.35,-0.00,
1.334,0.00,-0.02,1.01,-0.82,-0.35,-0.00,
1.334,0.00,-0.02,1.01,-0.83,-0.40,-0.07,
1.335,0.00,-0.02,1.01,-0.83,-0.40,-0.07,
1.339,-0.01,-0.02,1.02,-0.83,-0.40,-0.07,
1.339,-0.01,-0.02,1.02,-0.85,-0.42,-0.02,
1.341,-0.01,-0.02,1.02,-0.85,-0.42,-0.02,
1.344,-0.01,-0.03,1.02,-0.85,-0.42,-0.02,
1.344,-0.01,-0.03,1.02,-0.92,-0.48,-0.02,
1.346,-0.01,-0.03,1.03,-0.92,-0.48,-0.02,
1.349,-0.02,-0.03,1.03,-0.92,-0.48,-0.02,
1.349,-0.02,-0.03,1.03,-0.98,-0.54,0.05,
1.351,-0.02,-0.03,1.04,-0.98,-0.54,0.05,
1.354,-0.02,-0.03,1.03,-0.98,-0.54,0.05,
1.354,-0.02,-0.03,1.03,-1.01,-0.60,0.13,
1.356,-0.02,-0.03,1.03,-1.01,-0.60,0.13,
1.359,-0.02,-0.03,1.03,-1.04,-0.66,0.19,
1.359,-0.02,-0.03,1.03,-1.04,-0.66,0.19,
1.361,-0.02,-0.03,1.04,-1.04,-0.66,0.19,
1.365,-0.01,-0.03,1.03,-1.04,-0.66,0.19,
1.365,-0.01,-0.03,1.03,-1.03,-0.67,0.17,
1.366,-0.01,-0.03,1.03,-1.03,-0.67,0.17,
1.368,-0.01,-0.03,1.02,-1.03,-0.67,0.17,
1.368,-0.01,-0.03,1.02,-1.01,-0.65,0.19,
1.371,-0.00,-0.02,1.02,-1.01,-0.65,0.19,
1.374,-0.00,-0.02,1.02,-0.93,-0.68,0.07,
1.374,0.00,-0.02,1.01,-0.93,-0.68,0.07,
1.376,0.00,-0.02,1.00,-0.93,-0.68,0.07,
1.379,0.00,-0.02,1.00,-0.83,-0.67,-0.01,
1.379,0.01,-0.02,0.99,-0.83,-0.67,-0.01,
1.381,0.01,-0.02,0.98,-0.83,-0.67,-0.01,
1.383,0.01,-0.02,0.98,-0.79,-0.69,-0.19,
1.384,0.01,-0.01,0.97,-0.79,-0.69,-0.19,
1.385,0.02,-0.01,0.96,-0.79,-0.69,-0.19,
1.389,0.02,-0.02,0.95,-0.79,-0.69,-0.19,
1.389,0.02,-0.02,0.95,-0.71,-0.67,-0.42,
1.391,0.02,-0.01,0.93,-0.71,-0.67,-0.42,
1.394,0.02,-0.01,0.93,-0.64,-0.67,-0.63,
1.394,0.01,-0.01,0.92,-0.64,-0.67,-0.63,
1.395,0.02,-0.01,0.91,-0.64,-0.67,-0.63,
1.398,0.01,-0.01,0.90,-0.64,-0.67,-0.63,
1.398,0.01,-0.01,0.90,-0.65,-0.70,-0.84,
1.4,0.01,-0.01,0.89,-0.65,-0.70,-0.84,
1.403,0.01,-0.02,0.88,-0.65,-0.70,-0.84,
1.403,0.01,-0.02,0.88,-0.65,-0.71,-1.09,
1.405,-0.00,-0.02,0.88,-0.65,-0.71,-1.09,
1.408,-0.01,-0.02,0.88,-0.65,-0.71,-1.09,
1.408,-0.01,-0.02,0.88,-0.72,-0.78,-1.23,
1.41,-0.01,-0.02,0.88,-0.72,-0.78,-1.23,
1.42,-0.02,-0.02,0.89,-0.72,-0.78,-1.23,
1.42,-0.02,-0.02,0.89,-0.82,-0.84,-1.31,
1.42,-0.02,-0.02,0.89,-0.82,-0.84,-1.31,
1.42,-0.02,-0.03,0.89,-0.82,-0.84,-1.31,
1.42,-0.02,-0.03,0.89,-0.89,-0.90,-1.27,
1.42,-0.03,-0.02,0.90,-0.89,-0.90,-1.27,
1.423,-0.04,-0.02,0.91,-0.89,-0.90,-1.27,
1.423,-0.04,-0.02,0.91,-0.95,-0.94,-1.19,
1.425,-0.04,-0.02,0.91,-0.95,-0.94,-1.19,
1.428,-0.05,-0.03,0.92,-0.95,-0.94,-1.19,
1.428,-0.05,-0.03,0.92,-1.09,-0.95,-1.06,
1.431,-0.06,-0.02,0.92,-1.09,-0.95,-1.06,
1.435,-0.06,-0.02,0.92,-1.09,-0.95,-1.06,
1.435,-0.06,-0.02,0.92,-1.21,-0.98,-0.97,
1.435,-0.06,-0.02,0.92,-1.21,-0.98,-0.97,
1.438,-0.06,-0.02,0.92,-1.29,-0.98,-0.86,
1.439,-0.06,-0.02,0.93,-1.29,-0.98,-0.86,
1.439,-0.05,-0.02,0.93,-1.29,-0.98,-0.86,
1.442,-0.05,-0.02,0.92,-1.29,-0.98,-0.86,
1.443,-0.05,-0.02,0.92,-1.31,-0.97,-0.82,
1.444,-0.05,-0.02,0.92,-1.31,-0.97,-0.82,
1.448,-0.04,-0.01,0.92,-1.31,-0.97,-0.82,
1.448,-0.04,-0.01,0.92,-1.23,-0.99,-0.83,
1.45,-0.04,-0.02,0.92,-1.23,-0.99,-0.83,
1.452,-0.04,-0.02,0.92,-1.17,-0.96,-0.89,
1.453,-0.03,-0.03,0.92,-1.17,-0.96,-0.89,
1.455,-0.03,-0.03,0.91,-1.17,-0.96,-0.89,
1.458,-0.02,-0.03,0.91,-1.17,-0.96,-0.89,
1.458,-0.02,-0.03,0.91,-1.05,-1.07,-0.86,
1.46,-0.01,-0.02,0.91,-1.05,-1.07,-0.86,
1.463,-0.01,-0.03,0.91,-1.05,-1.07,-0.86,
1.463,-0.01,-0.03,0.91,-0.93,-1.10,-0.99,
1.465,-0.01,-0.03,0.91,-0.93,-1.10,-0.99,
1.467,-0.01,-0.02,0.91,-0.93,-1.10,-0.99,
1.468,-0.01,-0.02,0.91,-0.83,-1.09,-1.01,
1.47,-0.01,-0.02,0.91,-0.83,-1.09,-1.01,
1.473,-0.01,-0.01,0.92,-0.83,-1.09,-1.01,
1.473,-0.01,-0.01,0.92,-0.77,-1.09,-0.97,
1.475,-0.01,-0.01,0.92,-0.77,-1.09,-0.97,
1.478,-0.01,-0.01,0.92,-0.77,-1.09,-0.97,
1.478,-0.01,-0.01,0.92,-0.78,-1.03,-0.92,
1.481,-0.01,-0.00,0.92,-0.78,-1.03,-0.92,
1.483,-0.01,-0.00,0.92,-0.74,-0.99,-0.90,
1.484,-0.01,0.00,0.91,-0.74,-0.99,-0.90,
1.485,-0.01,0.00,0.91,-0.74,-0.99,-0.90,
1.488,-0.01,0.00,0.91,-0.74,-0.99,-0.90,
1.488,-0.01,0.00,0.91,-0.73,-0.89,-0.91,
1.49,-0.01,0.00,0.91,-0.73,-0.89,-0.91,
1.493,-0.01,0.00,0.91,-0.73,-0.89,-0.91,
1.493,-0.01,0.00,0.91,-0.70,-0.90,-0.95,
1.495,-0.00,0.00,0.90,-0.70,-0.90,-0.95,
1.498,-0.00,-0.00,0.90,-0.70,-0.90,-0.95,
1.498,-0.00,-0.00,0.90,-0.68,-0.90,-0.98,
1.499,-0.00,-0.00,0.89,-0.68,-0.90,-0.98,
1.503,-0.00,0.01,0.88,-0.68,-0.90,-0.98,
1.503,-0.00,0.01,0.88,-0.62,-0.94,-1.09,
1.505,0.00,0.00,0.87,-0.62,-0.94,-1.09,
1.508,-0.00,0.00,0.87,-0.62,-0.94,-1.09,
1.508,-0.00,0.00,0.87,-0.59,-0.94,-1.20,
1.51,0.01,0.01,0.86,-0.59,-0.94,-1.20,
1.512,0.01,0.01,0.86,-0.59,-0.94,-1.20,
1.513,0.01,0.01,0.86,-0.53,-0.95,-1.31,
1.515,0.01,0.02,0.86,-0.53,-0.95,-1.31,
1.517,0.01,0.02,0.85,-0.53,-0.95,-1.31,
1.517,0.01,0.02,0.85,-0.45,-0.88,-1.43,
1.52,0.01,0.03,0.84,-0.45,-0.88,-1.43,
1.522,0.01,0.03,0.84,-0.45,-0.88,-1.43,
1.523,0.01,0.03,0.84,-0.39,-0.83,-1.50,
1.525,0.01,0.04,0.83,-0.39,-0.83,-1.50,
1.528,0.00,0.04,0.83,-0.39,-0.83,-1.50,
1.528,0.00,0.04,0.83,-0.40,-0.77,-1.59,
1.529,-0.00,0.04,0.83,-0.40,-0.77,-1.59,
1.536,-0.00,0.04,0.82,-0.40,-0.77,-1.59,
1.536,-0.00,0.04,0.82,-0.40,-0.72,-1.69,
1.537,-0.01,0.05,0.82,-0.40,-0.72,-1.69,
1.537,-0.01,0.05,0.82,-0.40,-0.72,-1.69,
1.537,-0.01,0.05,0.82,-0.42,-0.68,-1.75,
1.538,-0.01,0.05,0.81,-0.42,-0.68,-1.75,
1.542,-0.02,0.06,0.82,-0.42,-0.68,-1.75,
1.542,-0.02,0.06,0.82,-0.47,-0.65,-1.84,
1.543,-0.01,0.06,0.81,-0.47,-0.65,-1.84,
1.546,-0.01,0.06,0.80,-0.47,-0.65,-1.84,
1.547,-0.01,0.06,0.80,-0.51,-0.64,-1.84,
1.548,-0.01,0.06,0.81,-0.51,-0.64,-1.84,
1.551,-0.01,0.07,0.80,-0.51,-0.64,-1.84,
1.551,-0.01,0.07,0.80,-0.48,-0.60,-1.91,
1.554,-0.01,0.07,0.80,-0.48,-0.60,-1.91,
1.556,-0.01,0.07,0.80,-0.48,-0.60,-1.91,
1.556,-0.01,0.07,0.80,-0.46,-0.57,-1.92,
1.558,-0.01,0.07,0.80,-0.46,-0.57,-1.92,
1.561,-0.01,0.07,0.80,-0.46,-0.57,-1.92,
1.561,-0.01,0.07,0.80,-0.47,-0.53,-1.95,
1.565,-0.01,0.07,0.80,-0.47,-0.53,-1.95,
1.566,-0.01,0.08,0.80,-0.47,-0.53,-1.95,
1.567,-0.01,0.08,0.80,-0.47,-0.55,-1.94,
1.568,-0.02,0.08,0.80,-0.47,-0.55,-1.94,
1.571,-0.01,0.08,0.80,-0.47,-0.55,-1.94,
1.571,-0.01,0.08,0.80,-0.46,-0.55,-1.94,
1.573,-0.01,0.09,0.80,-0.46,-0.55,-1.94,
1.577,-0.02,0.09,0.79,-0.46,-0.55,-1.94,
1.577,-0.02,0.09,0.79,-0.47,-0.49,-1.94,
1.578,-0.02,0.09,0.80,-0.47,-0.49,-1.94,
1.581,-0.02,0.10,0.79,-0.47,-0.49,-1.94,
1.582,-0.02,0.10,0.79,-0.47,-0.44,-1.98,
1.584,-0.01,0.10,0.79,-0.47,-0.44,-1.98,
1.586,-0.01,0.10,0.79,-0.47,-0.44,-1.98,
1.586,-0.01,0.10,0.79,-0.50,-0.38,-2.00,
1.588,-0.02,0.11,0.79,-0.50,-0.38,-2.00,
1.591,-0.01,0.11,0.78,-0.50,-0.38,-2.00,
1.591,-0.01,0.11,0.78,-0.46,-0.33,-2.06,
1.593,-0.01,0.10,0.79,-0.46,-0.33,-2.06,
1.596,-0.02,0.10,0.79,-0.46,-0.33,-2.06,
1.596,-0.02,0.10,0.79,-0.46,-0.32,-2.05,
1.598,-0.01,0.10,0.78,-0.46,-0.32,-2.05,
1.601,-0.01,0.10,0.78,-0.46,-0.32,-2.05,
1.601,-0.01,0.10,0.78,-0.44,-0.37,-2.04,
1.603,-0.01,0.10,0.79,-0.44,-0.37,-2.04,
1.606,-0.01,0.09,0.79,-0.44,-0.37,-2.04,
1.606,-0.01,0.09,0.79,-0.41,-0.41,-2.07,
1.608,-0.01,0.10,0.78,-0.41,-0.41,-2.07,
1.61,-0.02,0.10,0.79,-0.41,-0.41,-2.07,
1.611,-0.02,0.10,0.79,-0.40,-0.45,-2.02,
1.613,-0.01,0.10,0.79,-0.40,-0.45,-2.02,
1.616,-0.01,0.10,0.79,-0.40,-0.45,-2.02,
1.616,-0.01,0.10,0.79,-0.41,-0.46,-2.04,
1.618,-0.01,0.10,0.79,-0.41,-0.46,-2.04,
1.62,-0.02,0.10,0.79,-0.41,-0.46,-2.04,
1.621,-0.02,0.10,0.79,-0.37,-0.44,-1.99,
1.623,-0.02,0.10,0.79,-0.37,-0.44,-1.99,
1.625,-0.02,0.11,0.79,-0.37,-0.44,-1.99,
1.626,-0.02,0.11,0.79,-0.42,-0.44,-2.01,
1.628,-0.02,0.11,0.79,-0.42,-0.44,-2.01,
1.636,-0.01,0.12,0.80,-0.42,-0.44,-2.01,
1.636,-0.01,0.12,0.80,-0.41,-0.37,-1.99,
1.637,-0.02,0.12,0.81,-0.41,-0.37,-1.99,
1.639,-0.02,0.13,0.81,-0.41,-0.37,-1.99,
1.639,-0.02,0.13,0.81,-0.40,-0.30,-1.92,
1.64,-0.02,0.13,0.81,-0.40,-0.30,-1.92,
1.641,-0.01,0.14,0.82,-0.40,-0.30,-1.92,
1.641,-0.01,0.14,0.82,-0.38,-0.18,-1.79,
1.643,-0.01,0.15,0.83,-0.38,-0.18,-1.79,
1.646,-0.01,0.15,0.83,-0.36,-0.08,-1.72,
1.646,-0.01,0.15,0.83,-0.36,-0.08,-1.72,
1.649,-0.01,0.15,0.83,-0.36,-0.08,-1.72,
1.65,-0.00,0.16,0.83,-0.36,-0.08,-1.72,
1.651,-0.00,0.16,0.83,-0.30,0.06,-1.57,
1.653,0.00,0.16,0.84,-0.30,0.06,-1.57,
1.656,0.00,0.16,0.84,-0.27,0.12,-1.56,
1.656,0.00,0.16,0.84,-0.27,0.12,-1.56,
1.658,0.00,0.16,0.85,-0.27,0.12,-1.56,
1.66,0.01,0.17,0.85,-0.27,0.12,-1.56,
1.66,0.01,0.17,0.85,-0.18,0.14,-1.49,
1.663,0.01,0.17,0.85,-0.18,0.14,-1.49,
1.666,0.01,0.17,0.85,-0.18,0.14,-1.49,
1.666,0.01,0.17,0.85,-0.18,0.18,-1.39,
1.668,0.01,0.17,0.85,-0.18,0.18,-1.39,
1.67,0.02,0.17,0.84,-0.18,0.18,-1.39,
1.67,0.02,0.17,0.84,-0.10,0.22,-1.40,
1.673,0.02,0.17,0.84,-0.10,0.22,-1.40,
1.675,0.02,0.17,0.84,-0.10,0.22,-1.40,
1.676,0.02,0.17,0.84,-0.06,0.21,-1.40,
1.678,0.03,0.17,0.84,-0.06,0.21,-1.40,
1.681,0.02,0.17,0.84,-0.06,0.21,-1.40,
1.681,0.02,0.17,0.84,-0.01,0.18,-1.44,
1.682,0.03,0.17,0.84,-0.01,0.18,-1.44,
1.685,0.03,0.17,0.83,-0.01,0.18,-1.44,
1.685,0.03,0.17,0.83,0.05,0.21,-1.43,
1.688,0.03,0.17,0.83,0.05,0.21,-1.43,
1.691,0.03,0.17,0.83,0.06,0.18,-1.49,
1.691,0.03,0.17,0.83,0.06,0.18,-1.49,
1.693,0.03,0.17,0.83,0.06,0.18,-1.49,
1.695,0.04,0.17,0.83,0.06,0.18,-1.49,
1.696,0.04,0.17,0.83,0.07,0.17,-1.50,
1.699,0.04,0.17,0.83,0.07,0.17,-1.50,
1.7,0.04,0.17,0.83,0.07,0.17,-1.50,
1.7,0.04,0.17,0.83,0.13,0.18,-1.52,
1.703,0.05,0.17,0.83,0.13,0.18,-1.52,
1.705,0.05,0.17,0.82,0.13,0.18,-1.52,
1.706,0.05,0.17,0.82,0.19,0.16,-1.55,
1.708,0.05,0.17,0.82,0.19,0.16,-1.55,
1.71,0.06,0.17,0.81,0.19,0.16,-1.55,
1.711,0.06,0.17,0.81,0.26,0.17,-1.58,
1.713,0.06,0.17,0.81,0.26,0.17,-1.58,
1.715,0.07,0.17,0.81,0.26,0.17,-1.58,
1.715,0.07,0.17,0.81,0.35,0.15,-1.66,
1.717,0.07,0.18,0.80,0.35,0.15,-1.66,
1.72,0.07,0.18,0.81,0.35,0.15,-1.66,
1.721,0.07,0.18,0.81,0.45,0.16,-1.71,
1.723,0.07,0.18,0.80,0.45,0.16,-1.71,
1.725,0.07,0.18,0.80,0.45,0.16,-1.71,
1.725,0.07,0.18,0.80,0.48,0.19,-1.75,
1.727,0.07,0.18,0.80,0.48,0.19,-1.75,
1.73,0.07,0.19,0.80,0.48,0.19,-1.75,
1.731,0.07,0.19,0.80,0.50,0.20,-1.79,
1.736,0.07,0.19,0.80,0.50,0.20,-1.79,
1.737,0.07,0.19,0.80,0.50,0.20,-1.79,
1.737,0.07,0.19,0.80,0.52,0.22,-1.79,
1.737,0.07,0.19,0.80,0.52,0.22,-1.79,
1.74,0.07,0.19,0.80,0.51,0.28,-1.82,
1.74,0.07,0.19,0.80,0.51,0.28,-1.82,
1.742,0.06,0.20,0.80,0.51,0.28,-1.82,
1.745,0.06,0.20,0.81,0.51,0.28,-1.82,
1.745,0.06,0.20,0.81,0.47,0.28,-1.76,
1.747,0.06,0.19,0.81,0.47,0.28,-1.76,
1.75,0.05,0.19,0.82,0.47,0.28,-1.76,
1.75,0.05,0.19,0.82,0.42,0.31,-1.71,
1.752,0.05,0.19,0.83,0.42,0.31,-1.71,
1.754,0.05,0.19,0.83,0.35,0.26,-1.62,
1.755,0.04,0.19,0.83,0.35,0.26,-1.62,
1.757,0.04,0.19,0.84,0.35,0.26,-1.62,
1.76,0.04,0.19,0.85,0.35,0.26,-1.62,
1.76,0.04,0.19,0.85,0.27,0.24,-1.46,
1.762,0.03,0.18,0.86,0.27,0.24,-1.46,
1.766,0.03,0.18,0.87,0.27,0.24,-1.46,
1.767,0.03,0.18,0.87,0.17,0.18,-1.36,
1.767,0.03,0.17,0.87,0.17,0.18,-1.36,
1.769,0.03,0.17,0.88,0.17,0.18,-1.36,
1.77,0.03,0.17,0.88,0.12,0.11,-1.14,
1.772,0.04,0.17,0.89,0.12,0.11,-1.14,
1.775,0.04,0.17,0.90,0.12,0.11,-1.14,
1.775,0.04,0.17,0.90,0.11,0.05,-1.01,
1.777,0.03,0.17,0.90,0.11,0.05,-1.01,
1.779,0.03,0.16,0.91,0.11,0.05,-1.01,
1.78,0.03,0.16,0.91,0.14,0.04,-0.85,
1.784,0.03,0.16,0.92,0.14,0.04,-0.85,
1.786,0.02,0.16,0.93,0.14,0.04,-0.85,
1.786,0.02,0.16,0.93,0.10,-0.03,-0.75,
1.786,0.02,0.15,0.93,0.10,-0.03,-0.75,
1.789,0.02,0.15,0.93,0.06,-0.07,-0.53,
1.789,0.02,0.15,0.94,0.06,-0.07,-0.53,
1.791,0.02,0.15,0.94,0.06,-0.07,-0.53,
1.795,0.01,0.15,0.95,0.06,-0.07,-0.53,
1.795,0.01,0.15,0.95,-0.03,-0.18,-0.41,
1.796,0.01,0.14,0.96,-0.03,-0.18,-0.41,
1.799,0.01,0.15,0.96,-0.03,-0.18,-0.41,
1.8,0.01,0.15,0.96,-0.09,-0.20,-0.31,
1.801,0.01,0.14,0.96,-0.09,-0.20,-0.31,
1.804,0.00,0.14,0.96,-0.09,-0.20,-0.31,
1.804,0.00,0.14,0.96,-0.16,-0.20,-0.20,
1.806,0.00,0.14,0.96,-0.16,-0.20,-0.20,
1.809,0.00,0.14,0.96,-0.20,-0.23,-0.16,
1.811,0.00,0.14,0.97,-0.20,-0.23,-0.16,
1.812,0.00,0.14,0.97,-0.20,-0.23,-0.16,
1.814,-0.01,0.15,0.97,-0.20,-0.23,-0.16,
1.814,-0.01,0.15,0.97,-0.20,-0.24,-0.13,
1.816,-0.01,0.15,0.97,-0.20,-0.24,-0.13,
1.818,-0.01,0.14,0.97,-0.20,-0.24,-0.13,
1.819,-0.01,0.14,0.97,-0.27,-0.21,-0.10,
1.821,-0.01,0.15,0.97,-0.27,-0.21,-0.10,
1.824,-0.01,0.15,0.96,-0.27,-0.21,-0.10,
1.825,-0.01,0.15,0.96,-0.33,-0.20,-0.12,
1.826,-0.02,0.16,0.96,-0.33,-0.20,-0.12,
1.829,-0.02,0.16,0.96,-0.33,-0.20,-0.12,
1.829,-0.02,0.16,0.96,-0.39,-0.16,-0.11,
1.832,-0.01,0.17,0.96,-0.39,-0.16,-0.11,
1.834,-0.02,0.17,0.96,-0.39,-0.16,-0.11,
1.834,-0.02,0.17,0.96,-0.41,-0.07,-0.15,
1.836,-0.01,0.17,0.96,-0.41,-0.07,-0.15,
1.839,-0.01,0.18,0.95,-0.41,-0.07,-0.15,
1.84,-0.01,0.18,0.95,-0.39,0.03,-0.15,
1.841,-0.01,0.19,0.95,-0.39,0.03,-0.15,
1.844,-0.00,0.19,0.95,-0.39,0.03,-0.15,
1.845,-0.00,0.19,0.95,-0.34,0.09,-0.23,
1.846,0.00,0.19,0.95,-0.34,0.09,-0.23,
1.852,0.00,0.19,0.95,-0.34,0.09,-0.23,
1.853,0.00,0.19,0.95,-0.29,0.19,-0.26,
1.853,0.00,0.19,0.94,-0.29,0.19,-0.26,
1.857,0.01,0.20,0.94,-0.29,0.19,-0.26,
1.857,0.01,0.20,0.94,-0.22,0.21,-0.29,
1.857,0.01,0.19,0.94,-0.22,0.21,-0.29,
1.858,0.02,0.20,0.94,-0.22,0.21,-0.29,
1.859,0.02,0.20,0.94,-0.20,0.26,-0.35,
1.86,0.02,0.20,0.94,-0.20,0.26,-0.35,
1.864,0.02,0.20,0.94,-0.10,0.26,-0.34,
1.864,0.03,0.20,0.95,-0.10,0.26,-0.34,
1.866,0.03,0.19,0.95,-0.10,0.26,-0.34,
1.868,0.03,0.19,0.94,-0.10,0.26,-0.34,
1.868,0.03,0.19,0.94,-0.01,0.27,-0.31,
1.871,0.04,0.19,0.94,-0.01,0.27,-0.31,
1.874,0.04,0.19,0.95,-0.01,0.27,-0.31,
1.874,0.04,0.19,0.95,0.05,0.24,-0.32,
1.876,0.04,0.19,0.95,0.05,0.24,-0.32,
1.879,0.03,0.19,0.96,0.05,0.24,-0.32,
1.879,0.03,0.19,0.96,0.14,0.18,-0.34,
1.881,0.03,0.19,0.96,0.14,0.18,-0.34,
1.886,0.03,0.19,0.96,0.11,0.19,-0.25,
1.887,0.03,0.18,0.97,0.11,0.19,-0.25,
1.887,0.03,0.19,0.97,0.11,0.19,-0.25,
1.888,0.03,0.18,0.98,0.11,0.19,-0.25,
1.889,0.03,0.18,0.98,0.08,0.16,-0.11,
1.891,0.03,0.18,0.98,0.08,0.16,-0.11,
1.893,0.02,0.18,0.99,0.08,0.16,-0.11,
1.893,0.02,0.18,0.99,0.05,0.17,-0.01,
1.896,0.02,0.18,1.00,0.05,0.17,-0.01,
1.899,0.02,0.18,1.00,0.05,0.17,-0.01,
1.899,0.02,0.18,1.00,0.00,0.14,0.08,
1.901,0.01,0.18,1.01,0.00,0.14,0.08,
1.903,0.01,0.18,1.01,0.00,0.14,0.08,
1.904,0.01,0.18,1.01,-0.06,0.14,0.21,
1.905,0.01,0.18,1.01,-0.06,0.14,0.21,
1.909,0.00,0.17,1.02,-0.06,0.14,0.21,
1.909,0.00,0.17,1.02,-0.13,0.12,0.30,
1.912,0.00,0.17,1.02,-0.13,0.12,0.30,
1.914,0.00,0.16,1.02,-0.13,0.12,0.30,
1.914,0.00,0.16,1.02,-0.20,0.10,0.34,
1.916,-0.00,0.17,1.02,-0.20,0.10,0.34,
1.918,-0.00,0.16,1.02,-0.20,0.10,0.34,
1.919,-0.00,0.16,1.02,-0.24,0.01,0.40,
1.92,-0.00,0.16,1.02,-0.24,0.01,0.40,
1.924,-0.00,0.15,1.02,-0.24,0.01,0.40,
1.924,-0.00,0.15,1.02,-0.28,0.01,0.40,
1.926,-0.01,0.15,1.01,-0.28,0.01,0.40,
1.928,-0.00,0.15,1.01,-0.28,0.01,0.40,
1.929,-0.00,0.15,1.01,-0.29,-0.08,0.38,
1.931,-0.00,0.15,1.01,-0.29,-0.08,0.38,
1.933,-0.00,0.15,1.00,-0.29,-0.08,0.38,
1.933,-0.00,0.15,1.00,-0.29,-0.11,0.34,
1.935,-0.00,0.15,1.00,-0.29,-0.11,0.34,
1.938,-0.00,0.15,1.00,-0.27,-0.15,0.26,
1.939,-0.00,0.15,1.00,-0.27,-0.15,0.26,
1.94,0.00,0.15,1.00,-0.27,-0.15,0.26,
1.943,0.00,0.15,1.00,-0.27,-0.15,0.26,
1.943,0.00,0.15,1.00,-0.27,-0.15,0.26,
1.946,0.00,0.15,0.99,-0.27,-0.15,0.26,
1.948,0.00,0.16,0.99,-0.27,-0.15,0.26,
1.948,0.00,0.16,0.99,-0.23,-0.13,0.23,
1.954,0.00,0.16,0.99,-0.23,-0.13,0.23,
1.955,0.00,0.16,0.99,-0.23,-0.13,0.23,
1.955,0.00,0.16,0.99,-0.23,-0.12,0.12,
1.955,0.00,0.16,0.99,-0.23,-0.12,0.12,
1.958,0.00,0.16,0.99,-0.22,-0.09,0.10,
1.958,0.01,0.17,0.98,-0.22,-0.09,0.10,
1.959,0.01,0.17,0.98,-0.22,-0.09,0.10,
1.963,0.01,0.17,0.99,-0.22,-0.09,0.10,
1.963,0.01,0.17,0.99,-0.22,-0.01,0.08,
1.965,0.01,0.17,0.98,-0.22,-0.01,0.08,
1.968,0.01,0.17,0.98,-0.20,0.00,0.07,
1.968,0.02,0.17,0.98,-0.20,0.00,0.07,
1.969,0.01,0.17,0.98,-0.20,0.00,0.07,
1.973,0.02,0.17,0.98,-0.20,0.00,0.07,
1.973,0.02,0.17,0.98,-0.12,0.01,0.06,
1.975,0.02,0.17,0.98,-0.12,0.01,0.06,
1.977,0.02,0.17,0.98,-0.11,0.03,-0.00,
1.978,0.02,0.18,0.98,-0.11,0.03,-0.00,
1.979,0.02,0.18,0.97,-0.11,0.03,-0.00,
1.984,0.02,0.18,0.97,-0.11,0.03,-0.00,
1.984,0.02,0.18,0.97,-0.05,0.05,-0.01,
1.986,0.03,0.17,0.97,-0.05,0.05,-0.01,
1.987,0.03,0.17,0.97,-0.05,0.05,-0.01,
1.987,0.03,0.17,0.97,-0.04,0.06,-0.10,
1.989,0.03,0.17,0.97,-0.04,0.06,-0.10,
1.992,0.02,0.17,0.97,-0.04,0.06,-0.10,
1.992,0.02,0.17,0.97,-0.03,0.03,-0.08,
1.994,0.03,0.17,0.97,-0.03,0.03,-0.08,
1.997,0.03,0.17,0.98,-0.03,0.03,-0.08,
1.997,0.03,0.17,0.98,-0.02,0.04,-0.10,
2.0,0.03,0.16,0.97,-0.02,0.04,-0.10,
2.002,0.03,0.16,0.97,-0.02,0.04,-0.10,
2.003,0.03,0.16,0.97,-0.01,0.01,-0.06,
2.004,0.03,0.16,0.97,-0.01,0.01,-0.06,
2.007,0.02,0.16,0.97,-0.01,0.01,-0.06,
2.007,0.02,0.16,0.97,-0.02,-0.05,-0.07,
2.009,0.03,0.16,0.98,-0.02,-0.05,-0.07,
2.012,0.02,0.16,0.98,-0.02,-0.05,-0.07,
2.012,0.02,0.16,0.98,-0.03,-0.06,-0.04,
2.015,0.02,0.16,0.99,-0.03,-0.06,-0.04,
2.018,0.02,0.16,1.00,-0.03,-0.06,-0.04,
2.018,0.02,0.16,1.00,-0.05,-0.06,0.02,
2.019,0.02,0.16,1.00,-0.05,-0.06,0.02,
2.021,0.01,0.15,1.01,-0.05,-0.06,0.02,
2.022,0.01,0.15,1.01,-0.09,-0.10,0.17,
2.024,0.01,0.15,1.01,-0.09,-0.10,0.17,
2.027,0.00,0.15,1.01,-0.09,-0.10,0.17,
2.027,0.00,0.15,1.01,-0.12,-0.12,0.24,
2.028,0.00,0.15,1.01,-0.12,-0.12,0.24,
2.031,-0.00,0.15,1.01,-0.12,-0.12,0.24,
2.032,-0.00,0.15,1.01,-0.23,-0.17,0.28,
2.035,-0.00,0.15,1.02,-0.23,-0.17,0.28,
2.037,-0.01,0.15,1.02,-0.23,-0.17,0.28,
2.038,-0.01,0.15,1.02,-0.29,-0.15,0.32,
2.039,-0.00,0.15,1.02,-0.29,-0.15,0.32,
2.041,-0.00,0.15,1.01,-0.29,-0.15,0.32,
2.041,-0.00,0.15,1.01,-0.32,-0.18,0.41,
2.044,0.00,0.15,1.01,-0.32,-0.18,0.41,
2.046,0.00,0.16,1.01,-0.32,-0.18,0.41,
2.046,0.00,0.16,1.01,-0.31,-0.19,0.36,
2.055,0.01,0.16,1.01,-0.31,-0.19,0.36,
2.055,0.01,0.15,1.01,-0.31,-0.19,0.36,
2.055,0.01,0.15,1.01,-0.26,-0.15,0.33,
2.056,0.02,0.16,1.01,-0.26,-0.15,0.33,
2.056,0.02,0.16,1.00,-0.26,-0.15,0.33,
2.056,0.02,0.16,1.00,-0.19,-0.12,0.34,
2.059,0.02,0.16,1.00,-0.19,-0.12,0.34,
2.061,0.03,0.17,1.00,-0.19,-0.12,0.34,
2.062,0.03,0.17,1.00,-0.12,-0.12,0.26,
2.063,0.03,0.17,0.99,-0.12,-0.12,0.26,
2.068,0.02,0.17,0.96,-0.12,-0.12,0.26,
2.069,0.02,0.17,0.96,-0.07,-0.03,0.21,
2.069,0.04,0.18,0.91,-0.07,-0.03,0.21,
2.071,0.06,0.19,0.86,-0.07,-0.03,0.21,
2.071,0.06,0.19,0.86,-0.04,0.01,-0.00,
2.073,0.07,0.19,0.85,-0.04,0.01,-0.00,
2.076,0.07,0.19,0.87,-0.04,0.01,-0.00,
2.076,0.07,0.19,0.87,0.17,0.11,-0.89,
2.078,0.06,0.19,0.89,0.17,0.11,-0.89,
2.081,0.05,0.19,0.92,0.17,0.11,-0.89,
2.081,0.05,0.19,0.92,0.39,0.18,-1.16,
2.084,0.05,0.19,0.93,0.39,0.18,-1.16,
2.087,0.05,0.19,0.93,0.28,0.18,-0.68,
2.087,0.04,0.19,0.93,0.28,0.18,-0.68,
2.088,0.03,0.20,0.92,0.28,0.18,-0.68,
2.091,0.03,0.21,0.91,0.28,0.18,-0.68,
2.091,0.03,0.21,0.91,0.17,0.23,-0.46,
2.094,0.03,0.21,0.91,0.17,0.23,-0.46,
2.096,0.03,0.21,0.91,0.17,0.23,-0.46,
2.096,0.03,0.21,0.91,0.04,0.33,-0.63,
2.099,0.02,0.22,0.92,0.04,0.33,-0.63,
2.102,0.02,0.22,0.94,0.04,0.33,-0.63,
2.102,0.02,0.22,0.94,0.02,0.43,-0.64,
2.108,0.02,0.22,0.96,0.02,0.43,-0.64,
2.108,0.01,0.22,0.97,0.02,0.43,-0.64,
2.108,0.01,0.22,0.97,-0.02,0.50,-0.49,
2.109,0.02,0.22,0.99,-0.02,0.50,-0.49,
2.112,0.02,0.22,1.01,-0.02,0.50,-0.49,
2.112,0.02,0.22,1.01,-0.08,0.52,-0.12,
2.113,0.02,0.22,1.02,-0.08,0.52,-0.12,
2.122,0.02,0.21,1.03,-0.08,0.52,-0.12,
2.122,0.02,0.21,1.03,-0.07,0.51,0.20,
2.122,0.02,0.20,1.04,-0.07,0.51,0.20,
2.123,0.04,0.20,1.05,-0.07,0.51,0.20,
2.123,0.04,0.20,1.05,-0.08,0.46,0.46,
2.123,0.04,0.19,1.05,-0.08,0.46,0.46,
2.125,0.04,0.19,1.05,0.03,0.32,0.65,
2.126,0.05,0.18,1.06,0.03,0.32,0.65,
2.128,0.06,0.17,1.05,0.03,0.32,0.65,
2.131,0.07,0.18,1.05,0.03,0.32,0.65,
2.131,0.07,0.18,1.05,0.19,0.19,0.74,
2.133,0.07,0.17,1.05,0.19,0.19,0.74,
2.138,0.07,0.17,1.05,0.30,0.09,0.68,
2.138,0.08,0.17,1.05,0.30,0.09,0.68,
2.139,0.07,0.17,1.04,0.30,0.09,0.68,
2.143,0.07,0.17,1.04,0.30,0.09,0.68,
2.143,0.07,0.17,1.04,0.38,0.03,0.65,
2.143,0.07,0.16,1.04,0.38,0.03,0.65,
2.145,0.07,0.16,1.03,0.38,0.03,0.65,
2.146,0.07,0.16,1.03,0.36,-0.01,0.59,
2.148,0.06,0.16,1.03,0.36,-0.01,0.59,
2.156,0.06,0.16,1.03,0.31,-0.08,0.55,
2.157,0.06,0.16,1.02,0.31,-0.08,0.55,
2.157,0.05,0.16,1.02,0.31,-0.08,0.55,
2.157,0.04,0.16,1.01,0.31,-0.08,0.55,
2.158,0.04,0.16,1.01,0.21,-0.11,0.43,
2.158,0.04,0.16,1.01,0.21,-0.11,0.43,
