
time,gFx,gFy,gFz,ax,ay,az,
0.003,0.06,0.06,1.00,-0.02,-0.04,0.01,
0.004,0.06,0.06,1.00,-0.02,-0.04,0.01,
0.004,0.06,0.06,1.00,-0.02,-0.04,0.01,
0.004,0.06,0.06,1.00,-0.02,-0.04,0.01,
0.004,0.06,0.06,1.00,-0.02,-0.01,-0.01,
0.004,0.05,0.05,1.00,-0.02,-0.01,-0.01,
0.011,0.05,0.05,1.00,-0.04,-0.03,0.00,
0.012,0.05,0.04,1.01,-0.04,-0.03,0.00,
0.012,0.05,0.05,1.01,-0.04,-0.03,0.00,
0.012,0.05,0.05,1.01,-0.04,-0.03,0.00,
0.012,0.05,0.05,1.01,-0.06,-0.11,0.03,
0.014,0.05,0.05,1.00,-0.06,-0.11,0.03,
0.016,0.05,0.05,1.01,-0.06,-0.11,0.03,
0.016,0.05,0.05,1.01,-0.08,-0.12,0.07,
0.019,0.05,0.05,1.01,-0.08,-0.12,0.07,
0.031,0.05,0.05,1.01,-0.08,-0.12,0.07,
0.032,0.05,0.05,1.01,-0.06,-0.12,0.09,
0.032,0.06,0.05,1.01,-0.06,-0.12,0.09,
0.032,0.06,0.05,1.00,-0.06,-0.12,0.09,
0.032,0.06,0.05,1.00,-0.05,-0.12,0.12,
0.032,0.06,0.05,1.00,-0.05,-0.12,0.12,
0.032,0.06,0.05,1.00,0.02,-0.10,0.06,
0.032,0.06,0.05,1.00,0.02,-0.10,0.06,
0.033,0.06,0.06,1.00,0.02,-0.10,0.06,
0.036,0.05,0.05,1.00,0.02,-0.10,0.06,
0.036,0.05,0.05,1.00,0.01,-0.09,0.00,
0.045,0.05,0.05,0.99,0.01,-0.09,0.00,
0.046,0.05,0.06,0.99,0.01,-0.09,0.00,
0.046,0.05,0.06,0.99,0.00,-0.07,-0.01,
0.046,0.05,0.05,0.99,0.00,-0.07,-0.01,
0.046,0.05,0.06,0.99,0.00,-0.07,-0.01,
0.046,0.05,0.06,0.99,-0.04,-0.07,-0.12,
0.048,0.05,0.05,0.98,-0.04,-0.07,-0.12,
0.051,0.05,0.06,0.98,-0.04,-0.07,-0.12,
0.051,0.05,0.06,0.98,-0.05,-0.06,-0.09,
0.053,0.05,0.06,0.98,-0.05,-0.06,-0.09,
0.065,0.05,0.06,0.98,-0.08,-0.07,-0.14,
0.066,0.05,0.05,0.98,-0.08,-0.07,-0.14,
0.066,0.04,0.05,0.98,-0.08,-0.07,-0.14,
0.066,0.04,0.06,0.98,-0.08,-0.07,-0.14,
0.066,0.04,0.06,0.98,-0.09,-0.07,-0.17,
0.066,0.04,0.06,0.98,-0.09,-0.07,-0.17,
0.067,0.05,0.06,0.98,-0.09,-0.07,-0.17,
0.067,0.05,0.06,0.98,-0.13,-0.07,-0.17,
0.068,0.05,0.05,0.98,-0.13,-0.07,-0.17,
0.083,0.05,0.05,0.98,-0.13,-0.07,-0.17,
0.084,0.05,0.05,0.98,-0.09,-0.06,-0.20,
0.084,0.05,0.05,0.98,-0.09,-0.06,-0.20,
0.084,0.05,0.06,0.98,-0.09,-0.06,-0.20,
0.084,0.05,0.06,0.98,-0.05,-0.09,-0.19,
0.085,0.05,0.05,0.98,-0.05,-0.09,-0.19,
0.085,0.05,0.05,0.98,-0.02,-0.08,-0.17,
0.085,0.05,0.06,0.98,-0.02,-0.08,-0.17,
0.085,0.05,0.06,0.98,-0.02,-0.08,-0.17,
0.086,0.05,0.06,0.98,-0.02,-0.08,-0.17,
0.086,0.05,0.06,0.98,-0.02,-0.07,-0.17,
0.087,0.05,0.06,0.99,-0.02,-0.07,-0.17,
0.096,0.05,0.06,0.98,-0.02,-0.07,-0.17,
0.096,0.05,0.06,0.98,-0.03,-0.04,-0.15,
0.097,0.05,0.07,0.98,-0.03,-0.04,-0.15,
0.098,0.05,0.06,0.98,-0.03,-0.04,-0.15,
0.098,0.05,0.06,0.98,-0.04,-0.01,-0.11,
0.098,0.05,0.07,0.97,-0.04,-0.01,-0.11,
0.1,0.05,0.07,0.97,-0.04,-0.01,-0.11,
0.101,0.05,0.07,0.97,0.01,0.02,-0.21,
0.103,0.05,0.08,0.97,0.01,0.02,-0.21,
0.114,0.05,0.08,0.97,0.01,0.05,-0.23,
0.114,0.05,0.07,0.97,0.01,0.05,-0.23,
0.115,0.06,0.07,0.97,0.01,0.05,-0.23,
0.115,0.06,0.07,0.97,0.01,0.05,-0.23,
0.115,0.06,0.07,0.97,0.06,0.09,-0.26,
0.115,0.05,0.07,0.97,0.06,0.09,-0.26,
0.116,0.05,0.07,0.97,0.06,0.09,-0.26,
0.116,0.05,0.07,0.97,0.13,0.07,-0.29,
0.118,0.05,0.08,0.97,0.13,0.07,-0.29,
0.12,0.05,0.08,0.97,0.06,0.10,-0.23,
0.121,0.05,0.08,0.98,0.06,0.10,-0.23,
0.13,0.05,0.08,0.98,0.06,0.10,-0.23,
0.13,0.05,0.08,0.98,0.06,0.10,-0.23,
0.131,0.05,0.08,0.98,0.02,0.13,-0.25,
0.131,0.05,0.08,0.98,0.02,0.13,-0.25,
0.131,0.05,0.08,0.98,0.00,0.11,-0.16,
0.131,0.05,0.08,0.99,0.00,0.11,-0.16,
0.132,0.05,0.08,0.98,0.00,0.11,-0.16,
0.135,0.05,0.08,0.99,0.00,0.11,-0.16,
0.135,0.05,0.08,0.99,0.02,0.12,-0.10,
0.137,0.05,0.08,0.99,0.02,0.12,-0.10,
0.143,0.06,0.08,0.99,0.02,0.12,-0.10,
0.144,0.06,0.08,0.99,0.02,0.10,-0.08,
0.144,0.06,0.08,0.98,0.02,0.10,-0.08,
0.145,0.06,0.08,0.98,0.02,0.10,-0.08,
0.145,0.06,0.08,0.98,0.07,0.10,-0.04,
0.147,0.06,0.08,0.98,0.07,0.10,-0.04,
0.15,0.06,0.08,0.99,0.07,0.10,-0.04,
0.15,0.06,0.08,0.99,0.13,0.12,-0.15,
0.152,0.06,0.08,0.98,0.13,0.12,-0.15,
0.161,0.06,0.08,0.98,0.14,0.13,-0.11,
0.161,0.06,0.08,0.98,0.14,0.13,-0.11,
0.162,0.07,0.09,0.98,0.14,0.13,-0.11,
0.162,0.07,0.09,0.98,0.14,0.13,-0.11,
0.164,0.07,0.09,0.98,0.17,0.15,-0.15,
0.165,0.07,0.09,0.98,0.17,0.15,-0.15,
0.165,0.07,0.09,0.98,0.21,0.18,-0.16,
0.165,0.07,0.09,0.99,0.21,0.18,-0.16,
0.167,0.07,0.09,1.00,0.21,0.18,-0.16,
0.169,0.08,0.08,0.99,0.21,0.18,-0.16,
0.169,0.08,0.08,0.99,0.23,0.17,-0.10,
0.182,0.07,0.08,0.99,0.23,0.17,-0.10,
0.183,0.08,0.08,0.99,0.23,0.17,-0.10,
0.183,0.08,0.08,0.99,0.27,0.15,-0.02,
0.184,0.08,0.08,1.00,0.27,0.15,-0.02,
0.184,0.08,0.08,1.00,0.32,0.12,-0.05,
0.184,0.08,0.08,1.01,0.32,0.12,-0.05,
0.184,0.08,0.08,1.01,0.32,0.12,-0.05,
0.185,0.08,0.08,1.02,0.32,0.12,-0.05,
0.185,0.08,0.08,1.02,0.33,0.08,0.08,
0.186,0.08,0.08,1.02,0.33,0.08,0.08,
0.195,0.09,0.08,1.02,0.33,0.08,0.08,
0.196,0.09,0.08,1.02,0.36,0.08,0.17,
0.196,0.09,0.07,1.03,0.36,0.08,0.17,
0.197,0.09,0.07,1.03,0.36,0.08,0.17,
0.198,0.09,0.07,1.03,0.39,0.06,0.25,
0.198,0.09,0.07,1.03,0.39,0.06,0.25,
0.199,0.08,0.07,1.04,0.39,0.06,0.25,
0.199,0.08,0.07,1.04,0.41,0.02,0.32,
0.201,0.09,0.07,1.04,0.41,0.02,0.32,
0.215,0.09,0.07,1.04,0.44,0.01,0.39,
0.216,0.09,0.07,1.04,0.44,0.01,0.39,
0.216,0.09,0.07,1.04,0.44,0.01,0.39,
0.217,0.09,0.07,1.05,0.44,0.01,0.39,
0.217,0.09,0.07,1.05,0.46,0.01,0.40,
0.217,0.09,0.07,1.04,0.46,0.01,0.40,
0.217,0.08,0.07,1.04,0.46,0.01,0.40,
0.218,0.08,0.07,1.04,0.47,-0.03,0.45,
0.218,0.08,0.06,1.04,0.47,-0.03,0.45,
0.219,0.08,0.07,1.04,0.47,-0.03,0.45,
0.219,0.08,0.07,1.04,0.45,-0.06,0.45,
0.227,0.08,0.07,1.03,0.45,-0.06,0.45,
0.228,0.08,0.07,1.03,0.45,-0.06,0.45,
0.228,0.08,0.07,1.03,0.43,-0.09,0.40,
0.228,0.08,0.07,1.03,0.43,-0.09,0.40,
0.229,0.08,0.07,1.03,0.44,-0.06,0.32,
0.229,0.08,0.07,1.03,0.44,-0.06,0.32,
0.231,0.08,0.07,1.03,0.44,-0.06,0.32,
0.233,0.08,0.07,1.02,0.44,-0.06,0.32,
0.234,0.08,0.07,1.02,0.44,-0.07,0.33,
0.236,0.08,0.07,1.02,0.44,-0.07,0.33,
0.243,0.08,0.08,1.02,0.44,-0.07,0.33,
0.244,0.08,0.08,1.02,0.45,-0.04,0.23,
0.244,0.08,0.08,1.02,0.45,-0.04,0.23,
0.244,0.08,0.08,1.02,0.45,-0.04,0.23,
0.245,0.08,0.08,1.02,0.49,-0.03,0.20,
0.246,0.09,0.08,1.01,0.49,-0.03,0.20,
0.248,0.09,0.08,1.01,0.49,-0.03,0.20,
0.249,0.09,0.08,1.01,0.50,-0.01,0.17,
0.251,0.08,0.09,1.01,0.50,-0.01,0.17,
0.253,0.08,0.09,1.01,0.58,0.00,0.14,
0.253,0.09,0.09,1.01,0.58,0.00,0.14,
0.26,0.09,0.09,1.01,0.58,0.00,0.14,
0.26,0.09,0.09,1.00,0.58,0.00,0.14,
0.261,0.09,0.09,1.00,0.58,0.04,0.07,
0.261,0.10,0.10,1.00,0.58,0.04,0.07,
0.263,0.10,0.10,0.99,0.58,0.04,0.07,
0.263,0.10,0.10,0.99,0.62,0.05,0.03,
0.266,0.09,0.10,0.99,0.62,0.05,0.03,
0.268,0.09,0.11,1.00,0.62,0.05,0.03,
0.268,0.09,0.11,1.00,0.70,0.13,-0.07,
0.27,0.10,0.10,0.99,0.70,0.13,-0.07,
0.277,0.10,0.10,0.99,0.70,0.13,-0.07,
0.277,0.10,0.10,0.99,0.67,0.16,-0.05,
0.278,0.09,0.11,0.98,0.67,0.16,-0.05,
0.278,0.09,0.11,0.98,0.73,0.13,-0.12,
0.278,0.10,0.10,0.99,0.73,0.13,-0.12,
0.28,0.10,0.10,0.98,0.73,0.13,-0.12,
0.283,0.11,0.10,0.98,0.73,0.13,-0.12,
0.283,0.11,0.10,0.98,0.71,0.14,-0.15,
0.285,0.10,0.10,0.98,0.71,0.14,-0.15,
0.299,0.11,0.10,0.97,0.71,0.14,-0.15,
0.3,0.11,0.10,0.97,0.78,0.11,-0.20,
0.3,0.11,0.10,0.97,0.78,0.11,-0.20,
0.301,0.11,0.10,0.97,0.78,0.11,-0.20,
0.301,0.11,0.10,0.97,0.80,0.09,-0.22,
0.301,0.11,0.10,0.96,0.80,0.09,-0.22,
0.301,0.11,0.10,0.96,0.80,0.09,-0.22,
0.302,0.11,0.10,0.96,0.84,0.08,-0.29,
0.302,0.11,0.10,0.96,0.84,0.08,-0.29,
0.303,0.11,0.10,0.96,0.86,0.05,-0.36,
0.303,0.11,0.10,0.96,0.86,0.05,-0.36,
0.313,0.11,0.10,0.96,0.86,0.05,-0.36,
0.314,0.11,0.10,0.96,0.86,0.05,-0.36,
0.314,0.11,0.10,0.96,0.91,0.03,-0.39,
0.314,0.11,0.10,0.96,0.91,0.03,-0.39,
0.314,0.11,0.10,0.96,0.91,0.03,-0.39,
0.314,0.11,0.10,0.96,0.90,0.03,-0.39,
0.315,0.11,0.10,0.96,0.90,0.03,-0.39,
0.318,0.11,0.10,0.96,0.90,0.03,-0.39,
0.319,0.11,0.10,0.96,0.89,0.02,-0.37,
0.32,0.11,0.10,0.96,0.89,0.02,-0.37,
0.33,0.11,0.10,0.96,0.89,0.02,-0.37,
0.331,0.11,0.10,0.96,0.90,0.02,-0.33,
0.333,0.11,0.09,0.96,0.90,0.02,-0.33,
0.333,0.11,0.09,0.96,0.92,0.01,-0.34,
0.334,0.11,0.10,0.96,0.92,0.01,-0.34,
0.334,0.11,0.10,0.96,0.92,0.01,-0.34,
0.334,0.11,0.10,0.95,0.92,0.01,-0.34,
0.334,0.11,0.10,0.95,0.90,-0.01,-0.37,
0.335,0.11,0.10,0.95,0.90,-0.01,-0.37,
0.338,0.11,0.10,0.94,0.90,-0.01,-0.37,
0.338,0.11,0.10,0.94,0.91,0.03,-0.42,
0.345,0.11,0.10,0.94,0.91,0.03,-0.42,
0.345,0.11,0.10,0.94,0.91,0.03,-0.42,
0.346,0.11,0.10,0.94,0.92,-0.00,-0.51,
0.346,0.11,0.10,0.94,0.92,-0.00,-0.51,
0.348,0.11,0.10,0.93,0.92,-0.00,-0.51,
0.348,0.11,0.10,0.93,0.94,0.01,-0.53,
0.35,0.11,0.10,0.92,0.94,0.01,-0.53,
0.355,0.11,0.10,0.92,0.92,0.00,-0.57,
0.355,0.11,0.10,0.92,0.92,0.00,-0.57,
0.355,0.11,0.09,0.92,0.92,0.00,-0.57,
0.361,0.11,0.10,0.92,0.92,0.00,-0.57,
0.362,0.11,0.10,0.92,0.97,-0.01,-0.70,
0.363,0.11,0.10,0.91,0.97,-0.01,-0.70,
0.363,0.11,0.10,0.91,0.97,-0.01,-0.70,
0.363,0.11,0.10,0.91,0.98,-0.04,-0.71,
0.365,0.11,0.10,0.90,0.98,-0.04,-0.71,
0.367,0.10,0.10,0.90,0.98,-0.04,-0.71,
0.368,0.10,0.10,0.90,0.95,-0.02,-0.81,
0.37,0.11,0.10,0.90,0.95,-0.02,-0.81,
0.376,0.10,0.11,0.89,0.95,-0.02,-0.81,
0.378,0.10,0.11,0.89,0.94,-0.01,-0.87,
0.378,0.10,0.11,0.88,0.94,-0.01,-0.87,
0.378,0.10,0.11,0.88,0.94,-0.01,-0.87,
0.378,0.10,0.11,0.88,0.93,0.04,-0.96,
0.379,0.10,0.12,0.87,0.93,0.04,-0.96,
0.383,0.10,0.12,0.86,0.93,0.04,-0.96,
0.383,0.10,0.12,0.86,0.91,0.10,-1.07,
0.385,0.09,0.12,0.86,0.91,0.10,-1.07,
0.387,0.09,0.13,0.86,0.91,0.10,-1.07,
0.388,0.09,0.13,0.86,0.90,0.16,-1.21,
0.398,0.09,0.13,0.85,0.90,0.16,-1.21,
0.398,0.09,0.14,0.85,0.90,0.16,-1.21,
0.399,0.09,0.14,0.85,0.82,0.20,-1.26,
0.399,0.09,0.14,0.85,0.82,0.20,-1.26,
0.399,0.09,0.15,0.85,0.82,0.20,-1.26,
0.399,0.09,0.15,0.85,0.81,0.29,-1.34,
0.399,0.08,0.16,0.84,0.81,0.29,-1.34,
0.403,0.08,0.16,0.84,0.78,0.41,-1.33,
0.403,0.08,0.16,0.84,0.78,0.41,-1.33,
0.405,0.09,0.16,0.84,0.78,0.41,-1.33,
0.414,0.09,0.17,0.83,0.78,0.41,-1.33,
0.415,0.09,0.17,0.83,0.73,0.51,-1.39,
0.415,0.09,0.17,0.83,0.73,0.51,-1.39,
0.415,0.09,0.17,0.83,0.73,0.51,-1.39,
0.415,0.09,0.17,0.83,0.78,0.55,-1.44,
0.416,0.10,0.17,0.83,0.78,0.55,-1.44,
0.417,0.10,0.17,0.82,0.78,0.55,-1.44,
0.418,0.10,0.17,0.82,0.82,0.56,-1.48,
0.42,0.10,0.16,0.82,0.82,0.56,-1.48,
0.422,0.10,0.16,0.83,0.82,0.56,-1.48,
0.422,0.10,0.16,0.83,0.93,0.56,-1.52,
0.431,0.10,0.17,0.82,0.93,0.56,-1.52,
0.432,0.10,0.17,0.82,0.92,0.51,-1.47,
0.432,0.10,0.17,0.83,0.92,0.51,-1.47,
0.432,0.10,0.17,0.83,0.92,0.51,-1.47,
0.432,0.10,0.17,0.82,0.92,0.51,-1.47,
0.432,0.10,0.17,0.82,0.98,0.56,-1.50,
0.434,0.10,0.17,0.83,0.98,0.56,-1.50,
0.437,0.10,0.17,0.83,0.98,0.56,-1.50,
0.437,0.10,0.17,0.83,0.97,0.59,-1.46,
0.445,0.10,0.17,0.83,0.97,0.59,-1.46,
0.445,0.09,0.16,0.84,0.97,0.59,-1.46,
0.446,0.09,0.16,0.84,0.97,0.54,-1.39,
0.446,0.09,0.17,0.84,0.97,0.54,-1.39,
0.447,0.09,0.17,0.84,0.94,0.51,-1.33,
0.447,0.09,0.16,0.84,0.94,0.51,-1.33,
0.449,0.09,0.16,0.85,0.94,0.51,-1.33,
0.452,0.09,0.16,0.85,0.89,0.55,-1.28,
0.452,0.09,0.16,0.85,0.89,0.55,-1.28,
0.454,0.09,0.16,0.85,0.89,0.55,-1.28,
0.461,0.09,0.16,0.84,0.89,0.55,-1.28,
0.462,0.09,0.16,0.84,0.86,0.51,-1.22,
0.462,0.09,0.15,0.84,0.86,0.51,-1.22,
0.462,0.09,0.15,0.84,0.86,0.51,-1.22,
0.462,0.09,0.15,0.84,0.89,0.48,-1.23,
0.464,0.09,0.14,0.84,0.89,0.48,-1.23,
0.467,0.09,0.14,0.84,0.89,0.48,-1.23,
0.467,0.09,0.14,0.84,0.90,0.41,-1.27,
0.469,0.08,0.14,0.84,0.90,0.41,-1.27,
0.472,0.09,0.14,0.84,0.90,0.41,-1.27,
0.472,0.09,0.14,0.84,0.89,0.35,-1.27,
0.478,0.08,0.14,0.84,0.89,0.35,-1.27,
0.478,0.08,0.14,0.84,0.87,0.34,-1.27,
0.478,0.08,0.14,0.84,0.87,0.34,-1.27,
0.479,0.08,0.14,0.83,0.87,0.34,-1.27,
0.482,0.07,0.14,0.84,0.87,0.34,-1.27,
0.482,0.07,0.14,0.84,0.82,0.33,-1.25,
0.484,0.07,0.14,0.84,0.82,0.33,-1.25,
0.487,0.07,0.14,0.83,0.82,0.33,-1.25,
0.487,0.07,0.14,0.83,0.78,0.34,-1.28,
0.489,0.07,0.14,0.83,0.78,0.34,-1.28,
0.499,0.07,0.14,0.83,0.72,0.34,-1.29,
0.5,0.07,0.14,0.83,0.72,0.34,-1.29,
0.5,0.06,0.14,0.82,0.72,0.34,-1.29,
0.5,0.06,0.14,0.82,0.73,0.35,-1.31,
0.501,0.06,0.14,0.82,0.73,0.35,-1.31,
0.501,0.06,0.14,0.82,0.73,0.35,-1.31,
0.501,0.06,0.14,0.82,0.66,0.37,-1.41,
0.501,0.06,0.14,0.81,0.66,0.37,-1.41,
0.504,0.05,0.13,0.81,0.66,0.37,-1.41,
0.514,0.06,0.14,0.81,0.66,0.37,-1.41,
0.515,0.06,0.14,0.81,0.63,0.38,-1.46,
0.516,0.06,0.14,0.80,0.63,0.38,-1.46,
0.516,0.05,0.13,0.81,0.63,0.38,-1.46,
0.516,0.05,0.13,0.81,0.59,0.33,-1.48,
0.516,0.05,0.13,0.80,0.59,0.33,-1.48,
0.516,0.05,0.14,0.80,0.59,0.33,-1.48,
0.517,0.05,0.14,0.80,0.57,0.35,-1.53,
0.518,0.05,0.13,0.79,0.57,0.35,-1.53,
0.521,0.05,0.14,0.79,0.57,0.35,-1.53,
0.521,0.05,0.14,0.79,0.56,0.33,-1.58,
0.533,0.04,0.14,0.78,0.56,0.33,-1.58,
0.534,0.04,0.14,0.78,0.52,0.34,-1.66,
0.534,0.04,0.14,0.79,0.52,0.34,-1.66,
0.534,0.03,0.14,0.79,0.52,0.34,-1.66,
0.534,0.04,0.14,0.79,0.52,0.34,-1.66,
0.535,0.04,0.14,0.79,0.47,0.36,-1.69,
0.535,0.03,0.14,0.80,0.47,0.36,-1.69,
0.535,0.03,0.14,0.80,0.47,0.36,-1.69,
0.536,0.03,0.14,0.80,0.39,0.39,-1.62,
0.538,0.04,0.13,0.79,0.39,0.39,-1.62,
0.546,0.03,0.12,0.79,0.39,0.39,-1.62,
0.547,0.03,0.12,0.79,0.37,0.38,-1.57,
0.547,0.04,0.13,0.79,0.37,0.38,-1.57,
0.547,0.04,0.12,0.79,0.37,0.38,-1.57,
0.547,0.04,0.12,0.79,0.40,0.28,-1.61,
0.548,0.04,0.12,0.78,0.40,0.28,-1.61,
0.55,0.04,0.12,0.78,0.44,0.24,-1.63,
0.551,0.04,0.12,0.79,0.44,0.24,-1.63,
0.552,0.03,0.12,0.79,0.44,0.24,-1.63,
0.556,0.03,0.12,0.79,0.44,0.24,-1.63,
0.557,0.03,0.12,0.79,0.39,0.21,-1.67,
0.562,0.03,0.12,0.80,0.39,0.21,-1.67,
0.563,0.02,0.12,0.80,0.39,0.21,-1.67,
0.563,0.02,0.12,0.80,0.33,0.24,-1.59,
0.563,0.02,0.12,0.80,0.33,0.24,-1.59,
0.565,0.01,0.13,0.81,0.33,0.24,-1.59,
0.566,0.01,0.13,0.81,0.24,0.25,-1.51,
0.567,0.01,0.13,0.81,0.24,0.25,-1.51,
0.57,0.01,0.13,0.82,0.24,0.25,-1.51,
0.57,0.01,0.13,0.82,0.13,0.26,-1.47,
0.573,0.01,0.13,0.82,0.13,0.26,-1.47,
0.578,0.01,0.13,0.82,0.10,0.32,-1.36,
0.578,0.00,0.13,0.83,0.10,0.32,-1.36,
0.579,0.00,0.13,0.84,0.10,0.32,-1.36,
0.58,0.00,0.13,0.84,0.10,0.32,-1.36,
0.58,0.00,0.13,0.84,-0.00,0.31,-1.22,
0.582,-0.00,0.13,0.85,-0.00,0.31,-1.22,
0.586,-0.00,0.13,0.85,-0.00,0.31,-1.22,
0.586,-0.00,0.13,0.85,-0.05,0.33,-1.13,
0.587,-0.00,0.12,0.86,-0.05,0.33,-1.13,
0.596,-0.01,0.12,0.86,-0.05,0.33,-1.13,
0.597,-0.01,0.12,0.86,-0.10,0.32,-1.02,
0.597,-0.00,0.11,0.86,-0.10,0.32,-1.02,
0.597,0.00,0.10,0.86,-0.10,0.32,-1.02,
0.597,0.00,0.10,0.86,-0.14,0.26,-0.94,
0.598,0.00,0.10,0.87,-0.14,0.26,-0.94,
0.6,0.00,0.10,0.87,-0.13,0.17,-0.89,
0.6,0.00,0.09,0.88,-0.13,0.17,-0.89,
0.602,0.01,0.08,0.87,-0.13,0.17,-0.89,
0.605,0.01,0.08,0.87,-0.13,0.03,-0.77,
0.605,0.01,0.08,0.87,-0.13,0.03,-0.77,
0.617,0.02,0.07,0.87,-0.13,0.03,-0.77,
0.617,0.02,0.06,0.88,-0.13,0.03,-0.77,
0.618,0.02,0.06,0.88,-0.08,-0.06,-0.78,
0.618,0.02,0.06,0.88,-0.08,-0.06,-0.78,
0.618,0.02,0.05,0.87,-0.08,-0.06,-0.78,
0.619,0.02,0.05,0.87,-0.02,-0.19,-0.73,
0.619,0.02,0.05,0.88,-0.02,-0.19,-0.73,
0.62,0.02,0.05,0.89,-0.02,-0.19,-0.73,
0.62,0.02,0.05,0.89,-0.04,-0.27,-0.73,
0.622,0.02,0.04,0.90,-0.04,-0.27,-0.73,
0.632,0.02,0.04,0.90,-0.03,-0.32,-0.64,
0.633,0.01,0.04,0.90,-0.03,-0.32,-0.64,
0.633,0.00,0.04,0.90,-0.03,-0.32,-0.64,
0.633,-0.00,0.04,0.91,-0.03,-0.32,-0.64,
0.633,-0.00,0.04,0.91,-0.16,-0.36,-0.51,
0.634,-0.01,0.03,0.91,-0.16,-0.36,-0.51,
0.634,-0.01,0.03,0.91,-0.16,-0.36,-0.51,
0.635,-0.01,0.03,0.91,-0.31,-0.38,-0.46,
0.637,-0.02,0.03,0.91,-0.31,-0.38,-0.46,
0.648,-0.02,0.02,0.91,-0.31,-0.38,-0.46,
0.649,-0.02,0.02,0.91,-0.43,-0.44,-0.41,
0.65,-0.03,0.01,0.91,-0.43,-0.44,-0.41,
0.65,-0.03,0.01,0.91,-0.43,-0.44,-0.41,
0.65,-0.03,0.01,0.91,-0.55,-0.50,-0.43,
0.65,-0.03,0.00,0.91,-0.55,-0.50,-0.43,
0.65,-0.03,0.00,0.91,-0.69,-0.63,-0.40,
0.651,-0.04,-0.01,0.91,-0.69,-0.63,-0.40,
0.652,-0.05,-0.01,0.91,-0.69,-0.63,-0.40,
0.654,-0.06,-0.01,0.91,-0.69,-0.63,-0.40,
0.657,-0.06,-0.01,0.91,-0.80,-0.73,-0.40,
0.665,-0.07,-0.01,0.90,-0.80,-0.73,-0.40,
0.666,-0.07,-0.02,0.91,-0.80,-0.73,-0.40,
0.666,-0.07,-0.02,0.91,-1.00,-0.80,-0.43,
0.667,-0.09,-0.02,0.92,-1.00,-0.80,-0.43,
0.667,-0.09,-0.02,0.92,-1.00,-0.80,-0.43,
0.667,-0.09,-0.02,0.92,-1.15,-0.80,-0.42,
0.668,-0.10,-0.02,0.93,-1.15,-0.80,-0.42,
0.67,-0.10,-0.02,0.93,-1.15,-0.80,-0.42,
0.67,-0.10,-0.02,0.93,-1.38,-0.85,-0.29,
0.672,-0.10,-0.03,0.93,-1.38,-0.85,-0.29,
0.679,-0.10,-0.03,0.93,-1.51,-0.82,-0.20,
0.68,-0.10,-0.03,0.93,-1.51,-0.82,-0.20,
0.68,-0.10,-0.04,0.92,-1.51,-0.82,-0.20,
0.68,-0.10,-0.05,0.92,-1.51,-0.82,-0.20,
0.683,-0.10,-0.05,0.92,-1.56,-0.90,-0.20,
0.683,-0.11,-0.05,0.92,-1.56,-0.90,-0.20,
0.684,-0.11,-0.05,0.92,-1.60,-1.00,-0.24,
0.685,-0.11,-0.06,0.91,-1.60,-1.00,-0.24,
0.687,-0.10,-0.06,0.92,-1.60,-1.00,-0.24,
0.69,-0.10,-0.06,0.92,-1.65,-1.12,-0.32,
0.691,-0.10,-0.06,0.91,-1.65,-1.12,-0.32,
0.695,-0.10,-0.07,0.90,-1.65,-1.12,-0.32,
0.696,-0.10,-0.07,0.91,-1.65,-1.12,-0.32,
0.696,-0.10,-0.07,0.91,-1.61,-1.20,-0.30,
0.696,-0.09,-0.08,0.91,-1.61,-1.20,-0.30,
0.7,-0.09,-0.08,0.91,-1.62,-1.25,-0.41,
0.7,-0.10,-0.08,0.91,-1.62,-1.25,-0.41,
0.702,-0.10,-0.08,0.90,-1.62,-1.25,-0.41,
0.704,-0.09,-0.08,0.90,-1.62,-1.25,-0.41,
0.705,-0.09,-0.08,0.90,-1.62,-1.32,-0.39,
0.718,-0.09,-0.09,0.90,-1.62,-1.32,-0.39,
0.718,-0.09,-0.09,0.90,-1.62,-1.32,-0.39,
0.719,-0.09,-0.09,0.90,-1.63,-1.33,-0.44,
0.719,-0.08,-0.10,0.89,-1.63,-1.33,-0.44,
0.719,-0.08,-0.10,0.89,-1.63,-1.33,-0.44,
0.719,-0.08,-0.10,0.89,-1.61,-1.40,-0.50,
0.72,-0.09,-0.10,0.89,-1.61,-1.40,-0.50,
0.72,-0.09,-0.10,0.89,-1.61,-1.40,-0.50,
0.72,-0.09,-0.10,0.89,-1.57,-1.48,-0.58,
0.722,-0.09,-0.10,0.89,-1.57,-1.48,-0.58,
0.731,-0.09,-0.10,0.89,-1.63,-1.51,-0.58,
0.732,-0.10,-0.11,0.90,-1.63,-1.51,-0.58,
0.732,-0.10,-0.11,0.90,-1.63,-1.51,-0.58,
0.733,-0.11,-0.11,0.90,-1.63,-1.51,-0.58,
0.733,-0.11,-0.11,0.90,-1.75,-1.52,-0.51,
0.733,-0.12,-0.11,0.90,-1.75,-1.52,-0.51,
0.734,-0.13,-0.11,0.91,-1.75,-1.52,-0.51,
0.734,-0.13,-0.11,0.91,-1.89,-1.53,-0.44,
0.736,-0.13,-0.10,0.92,-1.89,-1.53,-0.44,
0.739,-0.14,-0.11,0.92,-1.89,-1.53,-0.44,
0.739,-0.14,-0.11,0.92,-2.08,-1.51,-0.37,
0.75,-0.15,-0.11,0.93,-2.08,-1.51,-0.37,
0.75,-0.15,-0.11,0.93,-2.08,-1.51,-0.37,
0.75,-0.15,-0.11,0.93,-2.25,-1.49,-0.25,
0.751,-0.16,-0.12,0.93,-2.25,-1.49,-0.25,
0.751,-0.16,-0.12,0.93,-2.39,-1.49,-0.15,
0.751,-0.16,-0.11,0.93,-2.39,-1.49,-0.15,
0.751,-0.17,-0.12,0.93,-2.39,-1.49,-0.15,
0.754,-0.17,-0.12,0.93,-2.39,-1.49,-0.15,
0.754,-0.17,-0.12,0.93,-2.46,-1.53,-0.13,
0.756,-0.18,-0.13,0.93,-2.46,-1.53,-0.13,
0.762,-0.18,-0.13,0.93,-2.46,-1.53,-0.13,
0.763,-0.18,-0.13,0.93,-2.59,-1.54,-0.13,
0.763,-0.18,-0.14,0.92,-2.59,-1.54,-0.13,
0.763,-0.18,-0.14,0.92,-2.59,-1.54,-0.13,
0.764,-0.18,-0.14,0.92,-2.70,-1.61,-0.14,
0.766,-0.19,-0.15,0.92,-2.70,-1.61,-0.14,
0.769,-0.20,-0.16,0.92,-2.70,-1.61,-0.14,
0.769,-0.20,-0.16,0.92,-2.75,-1.68,-0.21,
0.771,-0.20,-0.17,0.92,-2.75,-1.68,-0.21,
0.779,-0.20,-0.17,0.92,-2.86,-1.79,-0.20,
0.78,-0.20,-0.18,0.92,-2.86,-1.79,-0.20,
0.78,-0.21,-0.18,0.91,-2.86,-1.79,-0.20,
0.78,-0.21,-0.19,0.91,-2.86,-1.79,-0.20,
0.78,-0.21,-0.19,0.91,-2.95,-1.92,-0.23,
0.781,-0.21,-0.20,0.92,-2.95,-1.92,-0.23,
0.784,-0.20,-0.21,0.92,-2.95,-1.92,-0.23,
0.784,-0.20,-0.21,0.92,-2.98,-2.04,-0.31,
0.786,-0.20,-0.21,0.93,-2.98,-2.04,-0.31,
0.789,-0.20,-0.21,0.93,-2.96,-2.12,-0.24,
0.789,-0.20,-0.22,0.94,-2.96,-2.12,-0.24,
0.799,-0.20,-0.23,0.94,-2.96,-2.12,-0.24,
0.8,-0.20,-0.24,0.96,-2.96,-2.12,-0.24,
0.8,-0.20,-0.24,0.96,-2.96,-2.21,-0.08,
0.8,-0.20,-0.24,0.97,-2.96,-2.21,-0.08,
0.8,-0.20,-0.24,0.97,-2.93,-2.30,0.09,
0.8,-0.19,-0.24,0.98,-2.93,-2.30,0.09,
0.801,-0.19,-0.24,1.01,-2.93,-2.30,0.09,
0.803,-0.19,-0.24,1.03,-2.93,-2.30,0.09,
0.803,-0.19,-0.24,1.03,-2.93,-2.31,0.36,
0.805,-0.19,-0.24,1.05,-2.93,-2.31,0.36,
0.814,-0.19,-0.24,1.07,-2.93,-2.31,0.36,
0.815,-0.19,-0.24,1.07,-2.95,-2.24,0.76,
0.815,-0.19,-0.24,1.09,-2.95,-2.24,0.76,
0.815,-0.18,-0.24,1.11,-2.95,-2.24,0.76,
0.816,-0.18,-0.24,1.11,-2.94,-2.22,1.16,
0.816,-0.17,-0.24,1.12,-2.94,-2.22,1.16,
0.817,-0.17,-0.25,1.14,-2.94,-2.22,1.16,
0.818,-0.17,-0.25,1.14,-2.91,-2.19,1.56,
0.821,-0.16,-0.25,1.15,-2.91,-2.19,1.56,
0.823,-0.16,-0.25,1.15,-2.81,-2.14,1.81,
0.823,-0.15,-0.25,1.16,-2.81,-2.14,1.81,
0.835,-0.15,-0.25,1.17,-2.81,-2.14,1.81,
0.835,-0.14,-0.25,1.18,-2.81,-2.14,1.81,
0.836,-0.14,-0.25,1.18,-2.71,-2.16,2.09,
0.836,-0.14,-0.25,1.19,-2.71,-2.16,2.09,
0.836,-0.14,-0.25,1.19,-2.71,-2.16,2.09,
0.836,-0.14,-0.25,1.19,-2.65,-2.09,2.28,
0.837,-0.14,-0.24,1.19,-2.65,-2.09,2.28,
0.837,-0.14,-0.24,1.19,-2.65,-2.09,2.28,
0.838,-0.14,-0.24,1.19,-2.61,-2.04,2.42,
0.84,-0.14,-0.24,1.19,-2.61,-2.04,2.42,
0.849,-0.13,-0.23,1.19,-2.61,-2.04,2.42,
0.85,-0.13,-0.23,1.19,-2.64,-1.89,2.45,
0.85,-0.14,-0.23,1.19,-2.64,-1.89,2.45,
0.85,-0.14,-0.23,1.19,-2.61,-1.78,2.45,
0.85,-0.14,-0.23,1.18,-2.61,-1.78,2.45,
0.85,-0.14,-0.22,1.18,-2.61,-1.78,2.45,
0.852,-0.14,-0.22,1.17,-2.61,-1.78,2.45,
0.853,-0.14,-0.22,1.17,-2.64,-1.67,2.39,
0.854,-0.14,-0.22,1.16,-2.64,-1.67,2.39,
0.866,-0.14,-0.23,1.15,-2.64,-1.67,2.39,
0.866,-0.14,-0.23,1.15,-2.66,-1.60,2.24,
0.867,-0.15,-0.23,1.14,-2.66,-1.60,2.24,
0.867,-0.15,-0.23,1.13,-2.66,-1.60,2.24,
0.867,-0.15,-0.23,1.13,-2.69,-1.56,2.05,
0.867,-0.16,-0.24,1.12,-2.69,-1.56,2.05,
0.868,-0.16,-0.25,1.11,-2.69,-1.56,2.05,
0.868,-0.16,-0.25,1.11,-2.76,-1.57,1.84,
0.869,-0.16,-0.25,1.10,-2.76,-1.57,1.84,
0.872,-0.16,-0.25,1.10,-2.82,-1.68,1.70,
0.872,-0.16,-0.26,1.09,-2.82,-1.68,1.70,
0.88,-0.16,-0.27,1.08,-2.82,-1.68,1.70,
0.881,-0.17,-0.28,1.08,-2.82,-1.68,1.70,
0.881,-0.17,-0.28,1.08,-2.87,-1.75,1.48,
0.881,-0.17,-0.28,1.07,-2.87,-1.75,1.48,
0.882,-0.17,-0.29,1.06,-2.87,-1.75,1.48,
0.882,-0.17,-0.29,1.06,-2.91,-1.88,1.34,
0.884,-0.17,-0.29,1.05,-2.91,-1.88,1.34,
0.887,-0.17,-0.30,1.06,-2.91,-1.88,1.34,
0.887,-0.17,-0.30,1.06,-2.96,-1.97,1.16,
0.889,-0.17,-0.31,1.06,-2.96,-1.97,1.16,
0.896,-0.18,-0.31,1.06,-2.96,-1.97,1.16,
0.897,-0.18,-0.31,1.06,-2.96,-2.01,1.11,
0.897,-0.17,-0.31,1.07,-2.96,-2.01,1.11,
0.898,-0.17,-0.31,1.07,-2.99,-2.10,1.14,
0.898,-0.17,-0.31,1.09,-2.99,-2.10,1.14,
0.9,-0.17,-0.30,1.10,-2.99,-2.10,1.14,
0.902,-0.17,-0.30,1.10,-2.99,-2.05,1.33,
0.902,-0.16,-0.30,1.11,-2.99,-2.05,1.33,
0.905,-0.16,-0.30,1.12,-2.99,-2.05,1.33,
0.913,-0.15,-0.29,1.14,-2.99,-2.05,1.33,
0.914,-0.15,-0.29,1.14,-2.95,-1.94,1.59,
0.914,-0.14,-0.29,1.15,-2.95,-1.94,1.59,
0.915,-0.13,-0.28,1.17,-2.95,-1.94,1.59,
0.915,-0.13,-0.28,1.17,-2.84,-1.84,1.85,
0.915,-0.11,-0.28,1.18,-2.84,-1.84,1.85,
0.917,-0.10,-0.28,1.19,-2.84,-1.84,1.85,
0.918,-0.10,-0.28,1.19,-2.66,-1.75,2.13,
0.92,-0.08,-0.27,1.20,-2.66,-1.75,2.13,
0.922,-0.07,-0.26,1.21,-2.66,-1.75,2.13,
0.922,-0.07,-0.26,1.21,-2.45,-1.65,2.38,
0.929,-0.07,-0.26,1.23,-2.45,-1.65,2.38,
0.93,-0.05,-0.25,1.24,-2.45,-1.65,2.38,
0.93,-0.05,-0.25,1.24,-2.21,-1.47,2.60,
0.93,-0.04,-0.25,1.25,-2.21,-1.47,2.60,
0.931,-0.03,-0.25,1.26,-2.21,-1.47,2.60,
0.932,-0.03,-0.25,1.26,-2.03,-1.30,2.87,
0.934,-0.03,-0.25,1.26,-2.03,-1.30,2.87,
0.937,-0.02,-0.24,1.26,-2.03,-1.30,2.87,
0.937,-0.02,-0.24,1.26,-1.85,-1.20,3.07,
0.939,-0.01,-0.25,1.26,-1.85,-1.20,3.07,
0.953,-0.01,-0.25,1.25,-1.85,-1.20,3.07,
0.954,-0.01,-0.25,1.25,-1.74,-1.15,3.14,
0.954,0.00,-0.25,1.24,-1.74,-1.15,3.14,
0.954,0.00,-0.25,1.24,-1.62,-1.14,3.07,
0.955,-0.00,-0.25,1.23,-1.62,-1.14,3.07,
0.955,-0.00,-0.26,1.22,-1.62,-1.14,3.07,
0.955,0.01,-0.26,1.20,-1.62,-1.14,3.07,
0.955,0.01,-0.26,1.20,-1.54,-1.15,2.90,
0.955,0.01,-0.26,1.19,-1.54,-1.15,2.90,
0.956,0.00,-0.26,1.17,-1.54,-1.15,2.90,
0.956,0.00,-0.26,1.17,-1.50,-1.17,2.65,
0.965,0.00,-0.26,1.16,-1.50,-1.17,2.65,
0.966,0.00,-0.27,1.15,-1.50,-1.17,2.65,
0.967,0.00,-0.27,1.15,-1.48,-1.15,2.35,
0.967,-0.00,-0.28,1.14,-1.48,-1.15,2.35,
0.967,-0.01,-0.29,1.13,-1.48,-1.15,2.35,
0.967,-0.01,-0.29,1.13,-1.47,-1.20,2.07,
0.968,-0.01,-0.29,1.13,-1.47,-1.20,2.07,
0.971,-0.01,-0.29,1.13,-1.54,-1.33,1.86,
0.971,-0.01,-0.30,1.13,-1.54,-1.33,1.86,
0.973,-0.01,-0.30,1.12,-1.54,-1.33,1.86,
0.984,-0.02,-0.31,1.12,-1.54,-1.33,1.86,
0.985,-0.02,-0.31,1.12,-1.56,-1.37,1.78,
0.985,-0.02,-0.31,1.11,-1.56,-1.37,1.78,
0.986,-0.03,-0.32,1.11,-1.56,-1.37,1.78,
0.986,-0.03,-0.32,1.11,-1.63,-1.48,1.70,
0.986,-0.03,-0.32,1.11,-1.63,-1.48,1.70,
0.989,-0.04,-0.31,1.11,-1.63,-1.48,1.70,
0.989,-0.04,-0.31,1.11,-1.69,-1.52,1.63,
0.989,-0.04,-0.31,1.11,-1.69,-1.52,1.63,
0.997,-0.04,-0.31,1.10,-1.69,-1.52,1.63,
0.997,-0.04,-0.31,1.10,-1.77,-1.51,1.64,
0.997,-0.04,-0.31,1.11,-1.77,-1.51,1.64,
0.998,-0.04,-0.31,1.11,-1.77,-1.51,1.64,
0.998,-0.04,-0.31,1.11,-1.83,-1.47,1.60,
0.999,-0.04,-0.30,1.11,-1.83,-1.47,1.60,
1.001,-0.03,-0.30,1.10,-1.83,-1.47,1.60,
1.001,-0.03,-0.30,1.10,-1.81,-1.39,1.60,
1.003,-0.03,-0.30,1.09,-1.81,-1.39,1.60,
1.007,-0.03,-0.29,1.10,-1.81,-1.39,1.60,
1.007,-0.03,-0.29,1.10,-1.77,-1.32,1.57,
1.013,-0.02,-0.30,1.09,-1.77,-1.32,1.57,
1.014,-0.02,-0.30,1.09,-1.77,-1.32,1.57,
1.014,-0.02,-0.30,1.09,-1.71,-1.23,1.46,
1.014,-0.02,-0.29,1.09,-1.71,-1.23,1.46,
1.017,-0.02,-0.29,1.09,-1.62,-1.23,1.40,
1.017,-0.01,-0.29,1.08,-1.62,-1.23,1.40,
1.02,-0.01,-0.29,1.09,-1.62,-1.23,1.40,
1.021,-0.00,-0.29,1.08,-1.62,-1.23,1.40,
1.021,-0.00,-0.29,1.08,-1.54,-1.19,1.38,
1.023,0.00,-0.28,1.07,-1.54,-1.19,1.38,
1.033,0.01,-0.28,1.07,-1.54,-1.19,1.38,
1.034,0.01,-0.28,1.07,-1.47,-1.13,1.36,
1.034,0.02,-0.28,1.08,-1.47,-1.13,1.36,
1.034,0.02,-0.27,1.07,-1.47,-1.13,1.36,
1.034,0.02,-0.27,1.07,-1.37,-1.05,1.24,
1.034,0.03,-0.27,1.08,-1.37,-1.05,1.24,
1.036,0.03,-0.27,1.08,-1.26,-0.97,1.27,
1.037,0.03,-0.27,1.08,-1.26,-0.97,1.27,
1.038,0.04,-0.26,1.08,-1.26,-0.97,1.27,
1.041,0.04,-0.26,1.08,-1.26,-0.97,1.27,
1.041,0.04,-0.26,1.08,-1.16,-0.91,1.30,
1.046,0.05,-0.25,1.09,-1.16,-0.91,1.30,
1.047,0.06,-0.25,1.08,-1.16,-0.91,1.30,
1.047,0.06,-0.25,1.08,-1.05,-0.83,1.32,
1.048,0.07,-0.25,1.08,-1.05,-0.83,1.32,
1.051,0.07,-0.25,1.08,-1.05,-0.83,1.32,
1.051,0.07,-0.25,1.08,-0.93,-0.73,1.37,
1.053,0.08,-0.25,1.07,-0.93,-0.73,1.37,
1.056,0.09,-0.26,1.06,-0.93,-0.73,1.37,
1.056,0.09,-0.26,1.06,-0.80,-0.71,1.29,
1.058,0.09,-0.26,1.06,-0.80,-0.71,1.29,
1.065,0.10,-0.27,1.05,-0.80,-0.71,1.29,
1.065,0.10,-0.27,1.05,-0.68,-0.71,1.18,
1.066,0.10,-0.28,1.05,-0.68,-0.71,1.18,
1.066,0.11,-0.28,1.04,-0.68,-0.71,1.18,
1.066,0.11,-0.28,1.04,-0.56,-0.76,1.06,
1.068,0.11,-0.29,1.04,-0.56,-0.76,1.06,
1.071,0.12,-0.29,1.03,-0.56,-0.76,1.06,
1.071,0.12,-0.29,1.03,-0.43,-0.88,0.95,
1.073,0.12,-0.30,1.02,-0.43,-0.88,0.95,
1.081,0.12,-0.30,1.03,-0.43,-0.88,0.95,
1.082,0.12,-0.30,1.03,-0.33,-0.97,0.85,
1.082,0.13,-0.30,1.02,-0.33,-0.97,0.85,
1.082,0.12,-0.31,1.03,-0.33,-0.97,0.85,
1.083,0.12,-0.31,1.03,-0.26,-1.07,0.76,
1.083,0.12,-0.31,1.03,-0.26,-1.07,0.76,
1.086,0.13,-0.31,1.04,-0.26,-1.07,0.76,
1.086,0.13,-0.31,1.04,-0.20,-1.10,0.78,
1.088,0.13,-0.32,1.04,-0.20,-1.10,0.78,
1.091,0.13,-0.31,1.06,-0.20,-1.10,0.78,
1.091,0.13,-0.31,1.06,-0.20,-1.12,0.87,
1.097,0.13,-0.31,1.07,-0.20,-1.12,0.87,
1.098,0.13,-0.30,1.08,-0.20,-1.12,0.87,
1.098,0.13,-0.30,1.08,-0.13,-1.09,1.03,
1.098,0.13,-0.30,1.09,-0.13,-1.09,1.03,
1.1,0.14,-0.30,1.11,-0.13,-1.09,1.03,
1.101,0.14,-0.30,1.11,-0.13,-0.93,1.28,
1.103,0.14,-0.29,1.12,-0.13,-0.93,1.28,
1.105,0.14,-0.29,1.14,-0.13,-0.93,1.28,
1.106,0.14,-0.29,1.14,-0.07,-0.89,1.54,
1.108,0.14,-0.28,1.15,-0.07,-0.89,1.54,
1.114,0.16,-0.28,1.16,-0.07,-0.89,1.54,
1.114,0.16,-0.28,1.16,-0.01,-0.76,1.82,
1.114,0.16,-0.28,1.16,-0.01,-0.76,1.82,
1.115,0.16,-0.28,1.17,-0.01,-0.76,1.82,
1.115,0.16,-0.28,1.17,0.09,-0.67,2.04,
1.118,0.17,-0.28,1.17,0.09,-0.67,2.04,
1.12,0.17,-0.28,1.18,0.09,-0.67,2.04,
1.121,0.17,-0.28,1.18,0.18,-0.64,2.15,
1.123,0.18,-0.27,1.18,0.18,-0.64,2.15,
1.125,0.18,-0.27,1.18,0.18,-0.64,2.15,
1.125,0.18,-0.27,1.18,0.25,-0.62,2.24,
1.13,0.18,-0.27,1.17,0.25,-0.62,2.24,
1.131,0.19,-0.27,1.17,0.25,-0.62,2.24,
1.131,0.19,-0.27,1.17,0.32,-0.53,2.27,
1.133,0.19,-0.27,1.16,0.32,-0.53,2.27,
1.135,0.19,-0.27,1.16,0.32,-0.53,2.27,
1.135,0.19,-0.27,1.16,0.36,-0.51,2.19,
1.137,0.19,-0.27,1.15,0.36,-0.51,2.19,
1.14,0.19,-0.26,1.14,0.36,-0.51,2.19,
1.14,0.19,-0.26,1.14,0.40,-0.52,2.12,
1.142,0.19,-0.27,1.13,0.40,-0.52,2.12,
1.153,0.20,-0.27,1.12,0.40,-0.52,2.12,
1.153,0.20,-0.27,1.12,0.41,-0.46,1.93,
1.154,0.20,-0.27,1.10,0.41,-0.46,1.93,
1.154,0.20,-0.27,1.09,0.41,-0.46,1.93,
1.157,0.20,-0.27,1.09,0.47,-0.51,1.71,
1.157,0.21,-0.27,1.08,0.47,-0.51,1.71,
1.157,0.22,-0.27,1.08,0.47,-0.51,1.71,
1.158,0.22,-0.27,1.08,0.53,-0.50,1.47,
1.158,0.22,-0.27,1.06,0.53,-0.50,1.47,
1.168,0.22,-0.27,1.06,0.66,-0.55,1.28,
1.169,0.23,-0.27,1.05,0.66,-0.55,1.28,
1.169,0.23,-0.27,1.05,0.66,-0.55,1.28,
1.169,0.23,-0.27,1.05,0.66,-0.55,1.28,
1.169,0.23,-0.27,1.05,0.76,-0.54,1.08,
1.17,0.23,-0.27,1.05,0.76,-0.54,1.08,
1.17,0.23,-0.27,1.05,0.76,-0.54,1.08,
1.17,0.23,-0.27,1.05,0.83,-0.52,0.99,
1.171,0.23,-0.26,1.05,0.83,-0.52,0.99,
1.174,0.23,-0.26,1.06,0.83,-0.52,0.99,
1.174,0.23,-0.26,1.06,0.84,-0.52,0.97,
1.184,0.23,-0.25,1.07,0.84,-0.52,0.97,
1.185,0.23,-0.25,1.08,0.84,-0.52,0.97,
1.185,0.23,-0.25,1.08,0.80,-0.44,1.05,
1.185,0.23,-0.25,1.09,0.80,-0.44,1.05,
1.185,0.24,-0.24,1.10,0.80,-0.44,1.05,
1.185,0.24,-0.24,1.10,0.79,-0.33,1.20,
1.186,0.24,-0.24,1.10,0.79,-0.33,1.20,
1.189,0.24,-0.24,1.10,0.79,-0.33,1.20,
1.189,0.24,-0.24,1.10,0.82,-0.30,1.40,
1.191,0.25,-0.24,1.10,0.82,-0.30,1.40,
1.198,0.25,-0.25,1.11,0.82,-0.30,1.40,
1.199,0.25,-0.25,1.11,0.86,-0.29,1.46,
1.199,0.26,-0.25,1.10,0.86,-0.29,1.46,
1.199,0.26,-0.25,1.10,0.86,-0.29,1.46,
1.2,0.26,-0.25,1.10,0.97,-0.30,1.49,
1.201,0.25,-0.24,1.10,0.97,-0.30,1.49,
1.204,0.25,-0.24,1.10,1.01,-0.31,1.49,
1.204,0.25,-0.24,1.11,1.01,-0.31,1.49,
1.206,0.24,-0.23,1.12,1.01,-0.31,1.49,
1.215,0.23,-0.22,1.12,1.01,-0.31,1.49,
1.216,0.23,-0.22,1.12,0.93,-0.26,1.51,
1.216,0.23,-0.22,1.12,0.93,-0.26,1.51,
1.216,0.22,-0.22,1.13,0.93,-0.26,1.51,
1.217,0.22,-0.22,1.13,0.79,-0.14,1.65,
1.217,0.21,-0.22,1.13,0.79,-0.14,1.65,
1.218,0.21,-0.22,1.13,0.79,-0.14,1.65,
1.219,0.21,-0.22,1.13,0.68,-0.07,1.70,
1.221,0.21,-0.22,1.13,0.68,-0.07,1.70,
1.224,0.21,-0.22,1.13,0.68,-0.07,1.70,
1.224,0.21,-0.22,1.13,0.57,-0.04,1.74,
1.232,0.21,-0.23,1.12,0.57,-0.04,1.74,
1.232,0.22,-0.23,1.11,0.57,-0.04,1.74,
1.232,0.22,-0.23,1.11,0.55,-0.07,1.72,
1.233,0.22,-0.24,1.10,0.55,-0.07,1.72,
1.233,0.22,-0.25,1.09,0.55,-0.07,1.72,
1.234,0.22,-0.25,1.09,0.57,-0.14,1.60,
1.235,0.22,-0.25,1.08,0.57,-0.14,1.60,
1.238,0.22,-0.25,1.08,0.57,-0.14,1.60,
1.238,0.22,-0.25,1.08,0.67,-0.30,1.36,
1.24,0.23,-0.26,1.07,0.67,-0.30,1.36,
1.248,0.23,-0.27,1.06,0.67,-0.30,1.36,
1.249,0.23,-0.27,1.06,0.66,-0.36,1.22,
1.249,0.23,-0.27,1.05,0.66,-0.36,1.22,
1.249,0.23,-0.28,1.04,0.66,-0.36,1.22,
1.249,0.23,-0.28,1.04,0.72,-0.50,1.03,
1.251,0.23,-0.29,1.04,0.72,-0.50,1.03,
1.253,0.23,-0.29,1.04,0.77,-0.62,0.84,
1.254,0.23,-0.29,1.04,0.77,-0.62,0.84,
1.255,0.24,-0.30,1.03,0.77,-0.62,0.84,
1.272,0.24,-0.30,1.04,0.77,-0.62,0.84,
1.273,0.24,-0.30,1.04,0.81,-0.77,0.78,
1.273,0.25,-0.30,1.03,0.81,-0.77,0.78,
1.273,0.26,-0.30,1.04,0.81,-0.77,0.78,
1.274,0.26,-0.30,1.04,0.87,-0.85,0.74,
1.274,0.27,-0.30,1.04,0.87,-0.85,0.74,
1.274,0.27,-0.30,1.05,0.87,-0.85,0.74,
1.275,0.27,-0.30,1.05,0.98,-0.91,0.76,
1.275,0.26,-0.29,1.07,0.98,-0.91,0.76,
1.275,0.27,-0.29,1.07,0.98,-0.91,0.76,
1.275,0.27,-0.29,1.07,1.07,-0.89,0.83,
1.276,0.28,-0.28,1.09,1.07,-0.89,0.83,
1.283,0.28,-0.28,1.10,1.07,-0.89,0.83,
1.284,0.28,-0.28,1.10,1.08,-0.81,1.08,
1.284,0.28,-0.28,1.11,1.08,-0.81,1.08,
1.284,0.29,-0.27,1.12,1.08,-0.81,1.08,
1.285,0.29,-0.27,1.12,1.17,-0.73,1.35,
1.285,0.29,-0.26,1.13,1.17,-0.73,1.35,
1.288,0.30,-0.26,1.13,1.17,-0.73,1.35,
1.288,0.30,-0.26,1.13,1.21,-0.67,1.54,
1.29,0.30,-0.25,1.14,1.21,-0.67,1.54,
1.301,0.31,-0.25,1.14,1.21,-0.67,1.54,
1.302,0.31,-0.25,1.14,1.28,-0.54,1.67,
1.302,0.31,-0.24,1.14,1.28,-0.54,1.67,
1.303,0.31,-0.24,1.14,1.28,-0.54,1.67,
1.303,0.31,-0.24,1.14,1.36,-0.47,1.77,
1.303,0.31,-0.24,1.15,1.36,-0.47,1.77,
1.303,0.31,-0.24,1.14,1.36,-0.47,1.77,
1.303,0.31,-0.24,1.14,1.40,-0.41,1.77,
1.305,0.31,-0.24,1.14,1.40,-0.41,1.77,
1.308,0.31,-0.24,1.14,1.39,-0.39,1.77,
1.308,0.32,-0.24,1.14,1.39,-0.39,1.77,
1.315,0.32,-0.23,1.13,1.39,-0.39,1.77,
1.316,0.32,-0.23,1.13,1.39,-0.39,1.77,
1.316,0.32,-0.23,1.13,1.44,-0.34,1.71,
1.318,0.32,-0.23,1.13,1.44,-0.34,1.71,
1.318,0.32,-0.23,1.13,1.44,-0.34,1.71,
1.319,0.32,-0.23,1.13,1.47,-0.31,1.64,
1.32,0.32,-0.24,1.12,1.47,-0.31,1.64,
1.322,0.32,-0.23,1.12,1.47,-0.31,1.64,
1.323,0.32,-0.23,1.12,1.49,-0.33,1.61,
1.325,0.32,-0.24,1.12,1.49,-0.33,1.61,
1.332,0.33,-0.24,1.11,1.49,-0.33,1.61,
1.333,0.33,-0.24,1.11,1.55,-0.35,1.53,
1.333,0.33,-0.24,1.11,1.55,-0.35,1.53,
1.334,0.33,-0.25,1.11,1.55,-0.35,1.53,
1.334,0.33,-0.25,1.11,1.59,-0.40,1.49,
1.336,0.33,-0.25,1.12,1.59,-0.40,1.49,
1.338,0.33,-0.26,1.11,1.59,-0.40,1.49,
1.338,0.33,-0.26,1.11,1.63,-0.45,1.44,
1.342,0.33,-0.26,1.11,1.63,-0.45,1.44,
1.342,0.33,-0.26,1.12,1.63,-0.45,1.44,
1.342,0.33,-0.26,1.12,1.69,-0.54,1.45,
1.349,0.32,-0.27,1.13,1.69,-0.54,1.45,
1.35,0.32,-0.27,1.13,1.69,-0.54,1.45,
1.35,0.32,-0.27,1.13,1.71,-0.62,1.44,
1.35,0.32,-0.27,1.13,1.71,-0.62,1.44,
1.353,0.32,-0.27,1.13,1.71,-0.62,1.44,
1.353,0.32,-0.27,1.13,1.62,-0.69,1.54,
1.355,0.32,-0.28,1.13,1.62,-0.69,1.54,
1.358,0.32,-0.28,1.12,1.62,-0.69,1.54,
1.358,0.32,-0.28,1.12,1.60,-0.74,1.57,
1.371,0.32,-0.28,1.12,1.60,-0.74,1.57,
1.372,0.32,-0.28,1.12,1.60,-0.74,1.57,
1.372,0.32,-0.28,1.12,1.63,-0.84,1.52,
1.372,0.31,-0.28,1.12,1.63,-0.84,1.52,
1.373,0.32,-0.28,1.12,1.63,-0.84,1.52,
1.373,0.32,-0.28,1.12,1.61,-0.87,1.47,
1.373,0.32,-0.28,1.12,1.61,-0.87,1.47,
1.373,0.32,-0.28,1.12,1.61,-0.87,1.47,
1.373,0.32,-0.27,1.12,1.61,-0.87,1.47,
1.375,0.32,-0.27,1.12,1.61,-0.87,1.47,
1.383,0.32,-0.27,1.12,1.61,-0.87,1.47,
1.384,0.32,-0.27,1.12,1.62,-0.85,1.40,
1.384,0.32,-0.26,1.11,1.62,-0.85,1.40,
1.384,0.32,-0.26,1.11,1.62,-0.85,1.40,
1.384,0.32,-0.26,1.11,1.66,-0.83,1.41,
1.385,0.31,-0.26,1.11,1.66,-0.83,1.41,
1.388,0.32,-0.25,1.10,1.66,-0.83,1.41,
1.388,0.32,-0.25,1.10,1.66,-0.76,1.33,
1.389,0.31,-0.25,1.11,1.66,-0.76,1.33,
1.392,0.31,-0.24,1.10,1.66,-0.76,1.33,
1.392,0.31,-0.24,1.10,1.63,-0.71,1.28,
1.401,0.31,-0.24,1.10,1.63,-0.71,1.28,
1.402,0.31,-0.24,1.10,1.63,-0.71,1.28,
1.402,0.31,-0.24,1.10,1.62,-0.66,1.23,
1.403,0.31,-0.24,1.10,1.62,-0.66,1.23,
1.403,0.31,-0.24,1.09,1.62,-0.66,1.23,
1.403,0.31,-0.24,1.09,1.62,-0.65,1.17,
1.405,0.32,-0.24,1.07,1.62,-0.65,1.17,
1.408,0.32,-0.24,1.07,1.64,-0.68,1.09,
1.408,0.32,-0.25,1.07,1.64,-0.68,1.09,
1.409,0.31,-0.25,1.06,1.64,-0.68,1.09,
1.416,0.31,-0.25,1.06,1.64,-0.68,1.09,
1.417,0.31,-0.25,1.06,1.69,-0.72,0.90,
1.417,0.31,-0.25,1.05,1.69,-0.72,0.90,
1.417,0.32,-0.26,1.04,1.69,-0.72,0.90,
1.418,0.32,-0.26,1.04,1.67,-0.82,0.77,
1.42,0.31,-0.26,1.04,1.67,-0.82,0.77,
1.423,0.31,-0.26,1.03,1.67,-0.82,0.77,
1.423,0.31,-0.26,1.03,1.68,-0.91,0.62,
1.425,0.31,-0.26,1.03,1.68,-0.91,0.62,
1.433,0.31,-0.26,1.02,1.68,-0.91,0.62,
1.434,0.31,-0.26,1.02,1.65,-1.00,0.47,
1.434,0.31,-0.26,1.03,1.65,-1.00,0.47,
1.434,0.31,-0.26,1.02,1.65,-1.00,0.47,
1.435,0.31,-0.26,1.02,1.61,-1.03,0.43,
1.435,0.31,-0.25,1.02,1.61,-1.03,0.43,
1.437,0.31,-0.25,1.04,1.61,-1.03,0.43,
1.438,0.31,-0.25,1.04,1.61,-1.06,0.40,
1.439,0.31,-0.24,1.03,1.61,-1.06,0.40,
1.442,0.31,-0.24,1.04,1.61,-1.06,0.40,
1.442,0.31,-0.24,1.04,1.64,-0.98,0.41,
1.449,0.31,-0.23,1.05,1.64,-0.98,0.41,
1.45,0.32,-0.22,1.06,1.64,-0.98,0.41,
1.45,0.32,-0.22,1.06,1.67,-0.89,0.49,
1.45,0.32,-0.21,1.05,1.67,-0.89,0.49,
1.452,0.33,-0.22,1.06,1.67,-0.89,0.49,
1.452,0.33,-0.22,1.06,1.68,-0.76,0.65,
1.454,0.33,-0.21,1.07,1.68,-0.76,0.65,
1.456,0.33,-0.20,1.08,1.68,-0.76,0.65,
1.456,0.33,-0.20,1.08,1.77,-0.69,0.70,
1.459,0.34,-0.19,1.08,1.77,-0.69,0.70,
1.466,0.35,-0.19,1.08,1.77,-0.69,0.70,
1.467,0.35,-0.19,1.08,1.84,-0.59,0.86,
1.467,0.35,-0.19,1.08,1.84,-0.59,0.86,
1.467,0.36,-0.18,1.08,1.84,-0.59,0.86,
1.468,0.36,-0.18,1.08,1.96,-0.51,0.89,
1.468,0.36,-0.18,1.08,1.96,-0.51,0.89,
1.471,0.36,-0.18,1.08,1.96,-0.51,0.89,
1.471,0.36,-0.18,1.08,2.03,-0.45,0.89,
1.473,0.37,-0.17,1.07,2.03,-0.45,0.89,
1.492,0.37,-0.17,1.08,2.03,-0.45,0.89,
1.493,0.37,-0.17,1.08,2.11,-0.42,0.88,
1.494,0.37,-0.17,1.06,2.11,-0.42,0.88,
1.497,0.38,-0.17,1.06,2.11,-0.42,0.88,
1.497,0.38,-0.17,1.06,2.21,-0.37,0.84,
1.497,0.39,-0.17,1.05,2.21,-0.37,0.84,
1.498,0.39,-0.17,1.05,2.21,-0.37,0.84,
1.498,0.39,-0.17,1.05,2.26,-0.38,0.72,
1.498,0.39,-0.18,1.05,2.26,-0.38,0.72,
1.498,0.40,-0.17,1.05,2.26,-0.38,0.72,
1.499,0.40,-0.17,1.05,2.39,-0.41,0.61,
1.499,0.39,-0.17,1.05,2.39,-0.41,0.61,
1.499,0.40,-0.16,1.05,2.39,-0.41,0.61,
1.499,0.40,-0.16,1.05,2.46,-0.44,0.57,
1.499,0.40,-0.16,1.05,2.46,-0.44,0.57,
1.502,0.40,-0.15,1.05,2.46,-0.44,0.57,
1.503,0.40,-0.15,1.05,2.51,-0.39,0.56,
1.503,0.40,-0.15,1.06,2.51,-0.39,0.56,
1.507,0.40,-0.14,1.07,2.51,-0.39,0.56,
1.507,0.40,-0.14,1.07,2.57,-0.30,0.61,
1.509,0.40,-0.13,1.08,2.57,-0.30,0.61,
1.512,0.39,-0.13,1.08,2.57,-0.30,0.61,
1.513,0.39,-0.13,1.08,2.57,-0.19,0.73,
1.514,0.40,-0.12,1.09,2.57,-0.19,0.73,
1.516,0.40,-0.12,1.10,2.57,-0.19,0.73,
1.516,0.40,-0.12,1.10,2.51,-0.08,0.87,
1.518,0.40,-0.11,1.09,2.51,-0.08,0.87,
1.52,0.40,-0.11,1.09,2.51,-0.08,0.87,
1.521,0.40,-0.11,1.09,2.56,0.01,0.96,
1.524,0.40,-0.11,1.10,2.56,0.01,0.96,
1.528,0.40,-0.10,1.10,2.56,0.01,0.96,
1.528,0.40,-0.10,1.10,2.58,0.08,0.98,
1.529,0.40,-0.10,1.10,2.58,0.08,0.98,
1.531,0.40,-0.10,1.10,2.61,0.11,1.03,
1.531,0.40,-0.09,1.09,2.61,0.11,1.03,
1.534,0.40,-0.09,1.10,2.61,0.11,1.03,
1.536,0.40,-0.09,1.09,2.61,0.11,1.03,
1.537,0.40,-0.09,1.09,2.64,0.17,0.97,
1.538,0.40,-0.09,1.09,2.64,0.17,0.97,
1.541,0.39,-0.08,1.09,2.64,0.17,0.97,
1.541,0.39,-0.08,1.09,2.61,0.18,0.95,
1.545,0.39,-0.09,1.08,2.61,0.18,0.95,
1.546,0.38,-0.08,1.08,2.61,0.18,0.95,
1.547,0.38,-0.08,1.08,2.57,0.22,0.89,
1.548,0.38,-0.08,1.07,2.57,0.22,0.89,
1.55,0.37,-0.08,1.07,2.57,0.22,0.89,
1.551,0.37,-0.08,1.07,2.50,0.22,0.81,
1.553,0.37,-0.08,1.07,2.50,0.22,0.81,
1.556,0.37,-0.08,1.07,2.41,0.22,0.72,
1.556,0.37,-0.07,1.06,2.41,0.22,0.72,
1.558,0.36,-0.07,1.05,2.41,0.22,0.72,
1.562,0.35,-0.07,1.05,2.41,0.22,0.72,
1.562,0.35,-0.07,1.05,2.34,0.21,0.59,
1.563,0.35,-0.07,1.04,2.34,0.21,0.59,
1.566,0.35,-0.07,1.04,2.34,0.21,0.59,
1.566,0.35,-0.07,1.04,2.26,0.24,0.49,
1.568,0.34,-0.07,1.03,2.26,0.24,0.49,
1.571,0.34,-0.07,1.03,2.26,0.24,0.49,
1.571,0.34,-0.07,1.03,2.20,0.19,0.39,
1.573,0.34,-0.07,1.03,2.20,0.19,0.39,
1.576,0.34,-0.07,1.02,2.20,0.19,0.39,
1.576,0.34,-0.07,1.02,2.13,0.20,0.30,
1.581,0.34,-0.07,1.02,2.13,0.20,0.30,
1.582,0.33,-0.07,1.01,2.13,0.20,0.30,
1.582,0.33,-0.07,1.01,2.11,0.18,0.23,
1.583,0.33,-0.07,1.01,2.11,0.18,0.23,
1.585,0.33,-0.07,1.01,2.08,0.13,0.11,
1.586,0.33,-0.07,1.01,2.08,0.13,0.11,
1.587,0.33,-0.06,1.01,2.08,0.13,0.11,
1.591,0.33,-0.07,1.01,2.08,0.13,0.11,
1.591,0.33,-0.07,1.01,2.06,0.09,0.06,
1.593,0.33,-0.07,1.01,2.06,0.09,0.06,
1.596,0.32,-0.06,1.01,2.06,0.09,0.06,
1.597,0.32,-0.06,1.01,2.04,0.07,0.08,
1.597,0.32,-0.07,1.01,2.04,0.07,0.08,
1.601,0.31,-0.06,1.01,2.04,0.07,0.08,
1.601,0.31,-0.06,1.01,2.01,0.02,0.04,
1.603,0.31,-0.06,1.00,2.01,0.02,0.04,
1.606,0.30,-0.07,1.00,2.01,0.02,0.04,
1.606,0.30,-0.07,1.00,1.90,-0.01,0.04,
1.608,0.30,-0.07,1.00,1.90,-0.01,0.04,
1.612,0.30,-0.07,1.00,1.90,-0.01,0.04,
1.613,0.30,-0.07,1.00,1.84,-0.06,-0.06,
1.613,0.30,-0.07,0.99,1.84,-0.06,-0.06,
1.615,0.30,-0.07,0.98,1.84,-0.06,-0.06,
1.615,0.30,-0.07,0.98,1.78,-0.13,-0.07,
1.617,0.29,-0.07,0.99,1.78,-0.13,-0.07,
1.62,0.30,-0.07,0.98,1.78,-0.13,-0.07,
1.621,0.30,-0.07,0.98,1.79,-0.18,-0.18,
1.623,0.30,-0.07,0.97,1.79,-0.18,-0.18,
1.626,0.29,-0.07,0.96,1.79,-0.18,-0.18,
1.626,0.29,-0.07,0.96,1.76,-0.21,-0.21,
1.628,0.29,-0.06,0.96,1.76,-0.21,-0.21,
1.63,0.29,-0.06,0.96,1.75,-0.23,-0.38,
1.631,0.29,-0.06,0.95,1.75,-0.23,-0.38,
1.632,0.28,-0.06,0.94,1.75,-0.23,-0.38,
1.635,0.28,-0.06,0.94,1.71,-0.19,-0.51,
1.636,0.28,-0.05,0.94,1.71,-0.19,-0.51,
1.637,0.28,-0.05,0.93,1.71,-0.19,-0.51,
1.64,0.27,-0.05,0.93,1.71,-0.19,-0.51,
1.64,0.27,-0.05,0.93,1.67,-0.21,-0.64,
1.642,0.27,-0.04,0.93,1.67,-0.21,-0.64,
1.645,0.26,-0.04,0.93,1.67,-0.21,-0.64,
1.648,0.26,-0.04,0.93,1.60,-0.20,-0.73,
1.648,0.26,-0.04,0.92,1.60,-0.20,-0.73,
1.65,0.26,-0.04,0.92,1.60,-0.20,-0.73,
1.65,0.26,-0.04,0.92,1.50,-0.15,-0.78,
1.652,0.26,-0.03,0.92,1.50,-0.15,-0.78,
1.655,0.25,-0.04,0.92,1.50,-0.15,-0.78,
1.655,0.25,-0.04,0.92,1.47,-0.17,-0.84,
1.658,0.25,-0.04,0.92,1.47,-0.17,-0.84,
1.66,0.25,-0.03,0.93,1.47,-0.17,-0.84,
1.66,0.25,-0.03,0.93,1.42,-0.16,-0.86,
1.662,0.25,-0.03,0.93,1.42,-0.16,-0.86,
1.664,0.25,-0.03,0.94,1.42,-0.16,-0.86,
1.665,0.25,-0.03,0.94,1.38,-0.18,-0.80,
1.667,0.24,-0.03,0.94,1.38,-0.18,-0.80,
1.67,0.24,-0.03,0.94,1.38,-0.18,-0.80,
1.67,0.24,-0.03,0.94,1.35,-0.16,-0.70,
1.672,0.24,-0.03,0.94,1.35,-0.16,-0.70,
1.674,0.24,-0.03,0.95,1.35,-0.16,-0.70,
1.674,0.24,-0.03,0.95,1.34,-0.19,-0.68,
1.676,0.24,-0.03,0.95,1.34,-0.19,-0.68,
1.681,0.24,-0.03,0.95,1.31,-0.23,-0.63,
1.684,0.23,-0.03,0.96,1.31,-0.23,-0.63,
1.685,0.23,-0.02,0.96,1.31,-0.23,-0.63,
1.685,0.23,-0.02,0.96,1.31,-0.23,-0.63,
1.685,0.23,-0.02,0.96,1.29,-0.23,-0.55,
1.686,0.23,-0.03,0.95,1.29,-0.23,-0.55,
1.689,0.23,-0.03,0.95,1.29,-0.23,-0.55,
1.689,0.23,-0.03,0.95,1.24,-0.20,-0.48,
1.691,0.23,-0.02,0.95,1.24,-0.20,-0.48,
1.694,0.23,-0.02,0.95,1.27,-0.28,-0.54,
1.694,0.24,-0.03,0.95,1.27,-0.28,-0.54,
1.696,0.23,-0.04,0.95,1.27,-0.28,-0.54,
1.699,0.23,-0.03,0.95,1.27,-0.28,-0.54,
1.7,0.23,-0.03,0.95,1.32,-0.30,-0.54,
1.702,0.23,-0.04,0.96,1.32,-0.30,-0.54,
1.705,0.23,-0.04,0.96,1.32,-0.30,-0.54,
1.705,0.23,-0.04,0.96,1.31,-0.37,-0.53,
1.707,0.23,-0.04,0.96,1.31,-0.37,-0.53,
1.709,0.22,-0.04,0.96,1.31,-0.37,-0.53,
1.709,0.22,-0.04,0.96,1.29,-0.44,-0.50,
1.712,0.22,-0.03,0.96,1.29,-0.44,-0.50,
1.714,0.22,-0.04,0.96,1.29,-0.44,-0.50,
1.714,0.22,-0.04,0.96,1.27,-0.46,-0.49,
1.716,0.21,-0.03,0.96,1.27,-0.46,-0.49,
1.719,0.21,-0.04,0.95,1.27,-0.46,-0.49,
1.72,0.21,-0.04,0.95,1.23,-0.46,-0.45,
1.721,0.21,-0.03,0.96,1.23,-0.46,-0.45,
1.724,0.20,-0.04,0.95,1.23,-0.46,-0.45,
1.724,0.20,-0.04,0.95,1.17,-0.50,-0.52,
1.726,0.20,-0.04,0.95,1.17,-0.50,-0.52,
1.729,0.20,-0.03,0.95,1.17,-0.50,-0.52,
1.73,0.20,-0.03,0.95,1.14,-0.51,-0.53,
1.731,0.20,-0.03,0.94,1.14,-0.51,-0.53,
1.735,0.20,-0.03,0.93,1.14,-0.51,-0.53,
1.735,0.20,-0.03,0.93,1.12,-0.52,-0.55,
1.736,0.20,-0.03,0.93,1.12,-0.52,-0.55,
1.739,0.20,-0.03,0.92,1.12,-0.52,-0.55,
1.739,0.20,-0.03,0.92,1.10,-0.53,-0.70,
1.741,0.21,-0.03,0.91,1.10,-0.53,-0.70,
1.746,0.20,-0.02,0.92,1.10,-0.53,-0.70,
1.747,0.20,-0.02,0.92,1.15,-0.53,-0.79,
1.747,0.20,-0.02,0.91,1.15,-0.53,-0.79,
1.748,0.20,-0.01,0.92,1.15,-0.53,-0.79,
1.749,0.20,-0.01,0.92,1.18,-0.53,-0.91,
1.751,0.21,-0.01,0.91,1.18,-0.53,-0.91,
1.754,0.21,-0.01,0.91,1.18,-0.53,-0.91,
1.754,0.21,-0.01,0.91,1.18,-0.49,-0.90,
1.756,0.21,0.00,0.91,1.18,-0.49,-0.90,
1.759,0.21,0.01,0.91,1.18,-0.49,-0.90,
1.759,0.21,0.01,0.91,1.28,-0.45,-0.99,
1.763,0.21,0.01,0.90,1.28,-0.45,-0.99,
1.764,0.21,0.02,0.90,1.28,-0.45,-0.99,
1.764,0.21,0.02,0.90,1.29,-0.36,-0.98,
1.766,0.21,0.02,0.90,1.29,-0.36,-0.98,
1.769,0.21,0.02,0.90,1.29,-0.28,-1.03,
1.769,0.21,0.02,0.91,1.29,-0.28,-1.03,
1.771,0.21,0.02,0.91,1.29,-0.28,-1.03,
1.774,0.21,0.02,0.91,1.29,-0.28,-1.03,
1.774,0.21,0.02,0.91,1.30,-0.24,-0.99,
1.776,0.21,0.03,0.90,1.30,-0.24,-0.99,
1.779,0.20,0.03,0.90,1.30,-0.24,-0.99,
1.779,0.20,0.03,0.90,1.27,-0.29,-0.96,
1.78,0.21,0.03,0.90,1.27,-0.29,-0.96,
1.784,0.21,0.02,0.90,1.27,-0.29,-0.96,
1.784,0.21,0.02,0.90,1.26,-0.29,-1.03,
1.786,0.21,0.02,0.90,1.26,-0.29,-1.03,
1.788,0.20,0.03,0.90,1.26,-0.29,-1.03,
1.789,0.20,0.03,0.90,1.29,-0.35,-1.04,
1.791,0.20,0.02,0.89,1.29,-0.35,-1.04,
1.793,0.19,0.02,0.89,1.29,-0.35,-1.04,
1.794,0.19,0.02,0.89,1.24,-0.38,-1.07,
1.799,0.19,0.03,0.89,1.24,-0.38,-1.07,
1.799,0.18,0.03,0.89,1.24,-0.38,-1.07,
1.799,0.18,0.03,0.89,1.15,-0.42,-1.10,
1.8,0.17,0.03,0.89,1.15,-0.42,-1.10,
1.803,0.17,0.03,0.89,1.15,-0.42,-1.10,
1.803,0.17,0.03,0.89,1.08,-0.41,-1.11,
1.805,0.17,0.04,0.89,1.08,-0.41,-1.11,
1.811,0.16,0.04,0.89,1.08,-0.41,-1.11,
1.812,0.16,0.04,0.89,0.98,-0.40,-1.10,
1.815,0.16,0.04,0.90,0.98,-0.40,-1.10,
1.816,0.16,0.04,0.89,0.98,-0.40,-1.10,
1.816,0.16,0.04,0.89,0.91,-0.37,-1.09,
1.816,0.15,0.04,0.89,0.91,-0.37,-1.09,
1.818,0.15,0.05,0.88,0.91,-0.37,-1.09,
1.819,0.15,0.05,0.88,0.86,-0.37,-1.07,
1.82,0.14,0.05,0.88,0.86,-0.37,-1.07,
1.823,0.14,0.05,0.88,0.86,-0.37,-1.07,
1.823,0.14,0.05,0.88,0.77,-0.34,-1.16,
1.825,0.15,0.06,0.87,0.77,-0.34,-1.16,
1.829,0.15,0.05,0.88,0.77,-0.34,-1.16,
1.829,0.15,0.05,0.88,0.74,-0.29,-1.20,
1.83,0.15,0.05,0.88,0.74,-0.29,-1.20,
1.832,0.16,0.05,0.87,0.74,-0.29,-1.20,
1.833,0.16,0.05,0.87,0.78,-0.30,-1.23,
1.835,0.17,0.06,0.87,0.78,-0.30,-1.23,
1.837,0.16,0.05,0.88,0.78,-0.30,-1.23,
1.837,0.16,0.05,0.88,0.89,-0.33,-1.23,
1.841,0.17,0.06,0.88,0.89,-0.33,-1.23,
1.842,0.16,0.06,0.90,0.89,-0.33,-1.23,
1.843,0.16,0.06,0.90,0.96,-0.33,-1.21,
1.848,0.16,0.06,0.90,0.96,-0.33,-1.21,
1.849,0.16,0.06,0.90,0.96,-0.33,-1.21,
1.849,0.16,0.06,0.90,0.98,-0.30,-1.09,
1.849,0.16,0.07,0.91,0.98,-0.30,-1.09,
1.852,0.16,0.07,0.91,0.97,-0.29,-1.00,
1.852,0.16,0.07,0.92,0.97,-0.29,-1.00,
1.856,0.16,0.07,0.92,0.97,-0.29,-1.00,
1.857,0.16,0.07,0.92,0.97,-0.29,-1.00,
1.857,0.16,0.07,0.92,0.95,-0.29,-0.83,
1.859,0.16,0.08,0.93,0.95,-0.29,-0.83,
1.863,0.15,0.08,0.93,0.95,-0.29,-0.83,
1.863,0.15,0.08,0.93,0.94,-0.23,-0.78,
1.864,0.16,0.08,0.94,0.94,-0.23,-0.78,
1.867,0.15,0.08,0.94,0.94,-0.23,-0.78,
1.867,0.15,0.08,0.94,0.93,-0.22,-0.66,
1.869,0.15,0.07,0.94,0.93,-0.22,-0.66,
1.872,0.15,0.08,0.95,0.93,-0.22,-0.66,
1.872,0.15,0.08,0.95,0.92,-0.23,-0.60,
1.874,0.15,0.07,0.94,0.92,-0.23,-0.60,
1.879,0.15,0.07,0.95,0.92,-0.23,-0.60,
1.879,0.15,0.07,0.95,0.89,-0.29,-0.55,
1.88,0.15,0.07,0.94,0.89,-0.29,-0.55,
1.882,0.15,0.06,0.93,0.89,-0.29,-0.55,
1.882,0.15,0.06,0.93,0.90,-0.35,-0.55,
1.884,0.15,0.06,0.94,0.90,-0.35,-0.55,
1.888,0.15,0.06,0.94,0.90,-0.35,-0.55,
1.888,0.15,0.06,0.94,0.90,-0.41,-0.60,
1.889,0.15,0.06,0.93,0.90,-0.41,-0.60,
1.892,0.14,0.06,0.93,0.90,-0.41,-0.60,
1.892,0.14,0.06,0.93,0.90,-0.47,-0.61,
1.896,0.14,0.05,0.93,0.90,-0.47,-0.61,
1.897,0.14,0.06,0.92,0.90,-0.47,-0.61,
1.897,0.14,0.06,0.92,0.90,-0.51,-0.70,
1.899,0.13,0.06,0.92,0.90,-0.51,-0.70,
1.902,0.13,0.06,0.92,0.90,-0.51,-0.70,
1.902,0.13,0.06,0.92,0.86,-0.56,-0.75,
1.904,0.13,0.07,0.92,0.86,-0.56,-0.75,
1.908,0.13,0.07,0.90,0.86,-0.56,-0.75,
1.908,0.13,0.07,0.90,0.80,-0.55,-0.78,
1.909,0.12,0.07,0.90,0.80,-0.55,-0.78,
1.917,0.12,0.08,0.90,0.80,-0.55,-0.78,
1.918,0.12,0.08,0.90,0.79,-0.51,-0.87,
1.918,0.12,0.08,0.89,0.79,-0.51,-0.87,
1.918,0.12,0.08,0.88,0.79,-0.51,-0.87,
1.921,0.12,0.08,0.88,0.73,-0.46,-0.96,
1.921,0.12,0.08,0.87,0.73,-0.46,-0.96,
1.922,0.12,0.09,0.87,0.73,-0.46,-0.96,
1.922,0.12,0.09,0.87,0.77,-0.45,-1.12,
1.924,0.12,0.09,0.86,0.77,-0.45,-1.12,
1.929,0.11,0.09,0.85,0.77,-0.45,-1.12,
1.93,0.11,0.09,0.85,0.78,-0.39,-1.21,
1.93,0.11,0.10,0.85,0.78,-0.39,-1.21,
1.931,0.11,0.10,0.84,0.78,-0.39,-1.21,
1.932,0.11,0.10,0.84,0.70,-0.39,-1.33,
1.933,0.10,0.10,0.83,0.70,-0.39,-1.33,
1.937,0.10,0.11,0.82,0.70,-0.39,-1.33,
1.938,0.10,0.11,0.82,0.66,-0.35,-1.49,
1.938,0.10,0.12,0.81,0.66,-0.35,-1.49,
1.941,0.10,0.12,0.81,0.66,-0.35,-1.49,
1.942,0.10,0.12,0.81,0.63,-0.30,-1.65,
1.943,0.10,0.12,0.81,0.63,-0.30,-1.65,
1.946,0.10,0.12,0.80,0.63,-0.30,-1.65,
1.947,0.10,0.12,0.80,0.64,-0.22,-1.78,
1.949,0.10,0.13,0.80,0.64,-0.22,-1.78,
1.952,0.10,0.13,0.79,0.64,-0.22,-1.78,
1.952,0.10,0.13,0.79,0.65,-0.19,-1.86,
1.955,0.10,0.14,0.80,0.65,-0.19,-1.86,
1.956,0.11,0.14,0.79,0.65,-0.19,-1.86,
1.956,0.11,0.14,0.79,0.62,-0.14,-1.95,
1.958,0.11,0.15,0.79,0.62,-0.14,-1.95,
1.962,0.11,0.15,0.80,0.62,-0.14,-1.95,
1.962,0.11,0.15,0.80,0.67,-0.05,-1.94,
1.964,0.11,0.15,0.81,0.67,-0.05,-1.94,
1.966,0.11,0.15,0.82,0.67,-0.05,-1.94,
1.966,0.11,0.15,0.82,0.73,-0.00,-1.93,
1.968,0.11,0.16,0.83,0.73,-0.00,-1.93,
1.972,0.11,0.16,0.84,0.73,-0.00,-1.93,
1.972,0.11,0.16,0.84,0.72,0.04,-1.75,
1.973,0.11,0.16,0.85,0.72,0.04,-1.75,
1.978,0.10,0.16,0.86,0.72,0.04,-1.75,
1.978,0.10,0.16,0.86,0.73,0.10,-1.52,
1.978,0.10,0.16,0.87,0.73,0.10,-1.52,
1.981,0.10,0.16,0.88,0.73,0.10,-1.52,
1.982,0.10,0.16,0.88,0.70,0.12,-1.30,
1.983,0.10,0.16,0.88,0.70,0.12,-1.30,
1.987,0.10,0.15,0.89,0.70,0.12,-1.30,
1.988,0.10,0.15,0.89,0.68,0.10,-1.12,
1.988,0.10,0.15,0.89,0.68,0.10,-1.12,
1.992,0.10,0.14,0.90,0.68,0.10,-1.12,
1.992,0.10,0.14,0.90,0.69,0.05,-1.03,
1.994,0.10,0.13,0.90,0.69,0.05,-1.03,
1.997,0.11,0.13,0.90,0.69,0.05,-1.03,
1.997,0.11,0.13,0.90,0.70,-0.09,-0.92,
1.998,0.10,0.12,0.91,0.70,-0.09,-0.92,
2.002,0.10,0.12,0.91,0.74,-0.18,-0.84,
2.002,0.10,0.11,0.91,0.74,-0.18,-0.84,
2.004,0.10,0.11,0.91,0.74,-0.18,-0.84,
2.006,0.10,0.11,0.91,0.72,-0.34,-0.80,
2.007,0.10,0.10,0.91,0.72,-0.34,-0.80,
2.009,0.09,0.10,0.91,0.72,-0.34,-0.80,
2.011,0.09,0.10,0.92,0.72,-0.34,-0.80,
2.012,0.09,0.10,0.92,0.70,-0.42,-0.77,
2.017,0.08,0.10,0.91,0.70,-0.42,-0.77,
2.018,0.08,0.10,0.91,0.70,-0.42,-0.77,
2.018,0.08,0.10,0.91,0.65,-0.47,-0.72,
2.018,0.08,0.10,0.91,0.65,-0.47,-0.72,
2.021,0.08,0.10,0.91,0.58,-0.50,-0.77,
2.021,0.07,0.10,0.90,0.58,-0.50,-0.77,
2.024,0.06,0.10,0.91,0.58,-0.50,-0.77,
2.026,0.06,0.10,0.91,0.53,-0.51,-0.79,
2.027,0.06,0.10,0.91,0.53,-0.51,-0.79,
2.027,0.06,0.10,0.90,0.53,-0.51,-0.79,
2.03,0.05,0.10,0.90,0.53,-0.51,-0.79,
2.031,0.05,0.10,0.90,0.44,-0.51,-0.80,
2.033,0.05,0.10,0.89,0.44,-0.51,-0.80,
2.036,0.05,0.11,0.89,0.44,-0.51,-0.80,
2.036,0.05,0.11,0.89,0.39,-0.49,-0.88,
2.038,0.04,0.11,0.89,0.39,-0.49,-0.88,
2.041,0.04,0.11,0.89,0.33,-0.45,-0.98,
2.042,0.04,0.11,0.88,0.33,-0.45,-0.98,
2.043,0.04,0.12,0.87,0.33,-0.45,-0.98,
2.045,0.04,0.11,0.87,0.33,-0.45,-0.98,
2.046,0.04,0.11,0.87,0.27,-0.43,-1.04,
2.049,0.04,0.11,0.86,0.27,-0.43,-1.04,
2.051,0.04,0.12,0.85,0.27,-0.43,-1.04,
2.051,0.04,0.12,0.85,0.24,-0.41,-1.15,
2.053,0.04,0.12,0.84,0.24,-0.41,-1.15,
2.056,0.04,0.13,0.84,0.24,-0.41,-1.15,
2.057,0.04,0.13,0.84,0.25,-0.41,-1.30,
2.058,0.03,0.13,0.82,0.25,-0.41,-1.30,
2.061,0.04,0.14,0.81,0.25,-0.41,-1.30,
2.061,0.04,0.14,0.81,0.24,-0.31,-1.46,
2.063,0.04,0.14,0.81,0.24,-0.31,-1.46,
2.065,0.03,0.14,0.81,0.24,-0.31,-1.46,
2.066,0.03,0.14,0.81,0.21,-0.25,-1.63,
2.068,0.03,0.14,0.81,0.21,-0.25,-1.63,
2.071,0.04,0.14,0.80,0.21,-0.25,-1.63,
2.071,0.04,0.14,0.80,0.22,-0.19,-1.69,
2.073,0.03,0.14,0.80,0.22,-0.19,-1.69,
2.076,0.02,0.15,0.80,0.22,-0.19,-1.69,
2.076,0.02,0.15,0.80,0.20,-0.18,-1.74,
2.078,0.02,0.15,0.80,0.20,-0.18,-1.74,
2.081,0.01,0.15,0.81,0.20,-0.18,-1.74,
2.081,0.01,0.15,0.81,0.12,-0.18,-1.78,
2.082,0.00,0.15,0.82,0.12,-0.18,-1.78,
2.086,-0.00,0.15,0.83,0.12,-0.18,-1.78,
2.086,-0.00,0.15,0.83,0.03,-0.14,-1.71,
2.088,-0.01,0.15,0.84,0.03,-0.14,-1.71,
2.09,-0.02,0.15,0.85,0.03,-0.14,-1.71,
2.091,-0.02,0.15,0.85,-0.11,-0.15,-1.56,
2.093,-0.02,0.15,0.86,-0.11,-0.15,-1.56,
2.096,-0.03,0.14,0.86,-0.11,-0.15,-1.56,
2.096,-0.03,0.14,0.86,-0.25,-0.16,-1.37,
2.098,-0.03,0.14,0.87,-0.25,-0.16,-1.37,
2.1,-0.04,0.14,0.88,-0.25,-0.16,-1.37,
2.1,-0.04,0.14,0.88,-0.36,-0.19,-1.24,
2.102,-0.05,0.13,0.88,-0.36,-0.19,-1.24,
2.105,-0.05,0.13,0.88,-0.46,-0.22,-1.07,
2.105,-0.05,0.13,0.89,-0.46,-0.22,-1.07,
2.107,-0.06,0.13,0.90,-0.46,-0.22,-1.07,
2.109,-0.07,0.13,0.90,-0.46,-0.22,-1.07,
2.11,-0.07,0.13,0.90,-0.58,-0.30,-0.94,
2.113,-0.07,0.12,0.90,-0.58,-0.30,-0.94,
2.114,-0.08,0.12,0.91,-0.58,-0.30,-0.94,
2.115,-0.08,0.12,0.91,-0.69,-0.34,-0.80,
2.117,-0.08,0.12,0.92,-0.69,-0.34,-0.80,
2.119,-0.08,0.12,0.93,-0.69,-0.34,-0.80,
2.12,-0.08,0.12,0.93,-0.80,-0.36,-0.72,
2.122,-0.09,0.13,0.93,-0.80,-0.36,-0.72,
2.125,-0.09,0.13,0.93,-0.80,-0.36,-0.72,
2.125,-0.09,0.13,0.93,-0.88,-0.36,-0.60,
2.127,-0.10,0.13,0.93,-0.88,-0.36,-0.60,
2.134,-0.10,0.13,0.94,-0.88,-0.36,-0.60,
2.134,-0.10,0.13,0.94,-0.95,-0.30,-0.50,
2.134,-0.10,0.13,0.94,-0.95,-0.30,-0.50,
2.135,-0.10,0.12,0.95,-0.95,-0.30,-0.50,
2.135,-0.10,0.12,0.95,-1.03,-0.29,-0.44,
2.137,-0.10,0.12,0.94,-1.03,-0.29,-0.44,
2.139,-0.10,0.12,0.94,-1.03,-0.29,-0.44,
2.142,-0.10,0.12,0.94,-1.04,-0.33,-0.37,
2.142,-0.10,0.12,0.94,-1.04,-0.33,-0.37,
2.147,-0.09,0.12,0.93,-1.04,-0.33,-0.37,
2.147,-0.09,0.12,0.93,-1.01,-0.34,-0.43,
2.147,-0.09,0.12,0.93,-1.01,-0.34,-0.43,
2.149,-0.09,0.12,0.93,-1.01,-0.34,-0.43,
2.149,-0.09,0.12,0.93,-0.97,-0.34,-0.45,
2.151,-0.09,0.12,0.93,-0.97,-0.34,-0.45,
2.154,-0.09,0.12,0.93,-0.92,-0.39,-0.48,
2.155,-0.09,0.12,0.93,-0.92,-0.39,-0.48,
2.156,-0.09,0.12,0.92,-0.92,-0.39,-0.48,
2.159,-0.09,0.12,0.92,-0.92,-0.39,-0.48,
2.159,-0.09,0.12,0.92,-0.95,-0.38,-0.52,
2.161,-0.09,0.12,0.92,-0.95,-0.38,-0.52,
2.164,-0.09,0.12,0.92,-0.95,-0.38,-0.52,
2.165,-0.09,0.12,0.92,-0.96,-0.37,-0.57,
2.166,-0.09,0.12,0.91,-0.96,-0.37,-0.57,
2.169,-0.09,0.13,0.90,-0.96,-0.37,-0.57,
2.169,-0.09,0.13,0.90,-0.95,-0.36,-0.61,
2.171,-0.08,0.13,0.90,-0.95,-0.36,-0.61,
2.174,-0.08,0.13,0.90,-0.93,-0.32,-0.74,
2.174,-0.08,0.14,0.89,-0.93,-0.32,-0.74,
2.176,-0.08,0.14,0.89,-0.93,-0.32,-0.74,
2.18,-0.08,0.15,0.89,-0.93,-0.32,-0.74,
2.181,-0.08,0.15,0.89,-0.87,-0.22,-0.87,
2.182,-0.08,0.15,0.89,-0.87,-0.22,-0.87,
2.184,-0.08,0.15,0.88,-0.87,-0.22,-0.87,
2.184,-0.08,0.15,0.88,-0.85,-0.17,-0.88,
2.186,-0.07,0.15,0.88,-0.85,-0.17,-0.88,
2.189,-0.07,0.16,0.87,-0.85,-0.17,-0.88,
2.189,-0.07,0.16,0.87,-0.86,-0.09,-0.97,
2.191,-0.07,0.16,0.86,-0.86,-0.09,-0.97,
2.194,-0.07,0.17,0.87,-0.86,-0.09,-0.97,
2.194,-0.07,0.17,0.87,-0.79,-0.06,-1.04,
2.197,-0.07,0.17,0.87,-0.79,-0.06,-1.04,
2.199,-0.07,0.17,0.87,-0.79,-0.06,-1.04,
2.199,-0.07,0.17,0.87,-0.82,0.03,-1.12,
2.201,-0.07,0.17,0.88,-0.82,0.03,-1.12,
2.204,-0.07,0.17,0.88,-0.82,0.03,-1.12,
2.204,-0.07,0.17,0.88,-0.79,0.07,-1.07,
2.206,-0.06,0.17,0.88,-0.79,0.07,-1.07,
2.21,-0.06,0.17,0.88,-0.79,0.07,-1.07,
2.211,-0.06,0.17,0.88,-0.80,0.09,-0.99,
2.211,-0.06,0.17,0.89,-0.80,0.09,-0.99,
2.214,-0.06,0.17,0.88,-0.80,0.09,-0.99,
2.215,-0.06,0.17,0.88,-0.74,0.09,-1.00,
2.218,-0.06,0.16,0.90,-0.74,0.09,-1.00,
2.218,-0.06,0.16,0.90,-0.74,0.09,-1.00,
2.219,-0.06,0.16,0.90,-0.74,0.05,-0.92,
2.221,-0.07,0.15,0.91,-0.74,0.05,-0.92,
2.224,-0.07,0.15,0.92,-0.74,0.05,-0.92,
2.224,-0.07,0.15,0.92,-0.77,0.01,-0.79,
2.226,-0.07,0.15,0.93,-0.77,0.01,-0.79,
2.228,-0.07,0.14,0.93,-0.77,0.01,-0.79,
2.229,-0.07,0.14,0.93,-0.84,-0.10,-0.63,
2.235,-0.07,0.14,0.94,-0.84,-0.10,-0.63,
2.236,-0.07,0.14,0.94,-0.84,-0.10,-0.63,
2.236,-0.07,0.14,0.94,-0.85,-0.13,-0.50,
2.236,-0.07,0.13,0.95,-0.85,-0.13,-0.50,
2.238,-0.07,0.13,0.94,-0.85,-0.13,-0.50,
2.238,-0.07,0.13,0.94,-0.86,-0.19,-0.40,
2.24,-0.07,0.12,0.94,-0.86,-0.19,-0.40,
2.243,-0.07,0.12,0.93,-0.86,-0.19,-0.40,
2.244,-0.07,0.12,0.93,-0.85,-0.26,-0.34,
2.25,-0.07,0.12,0.94,-0.85,-0.26,-0.34,
2.25,-0.08,0.12,0.94,-0.85,-0.26,-0.34,
2.251,-0.08,0.12,0.94,-0.82,-0.35,-0.42,
2.251,-0.09,0.14,0.96,-0.82,-0.35,-0.42,
2.253,-0.10,0.14,0.97,-0.82,-0.35,-0.42,
2.254,-0.10,0.14,0.97,-0.88,-0.36,-0.40,
2.256,-0.11,0.15,0.97,-0.88,-0.36,-0.40,
2.259,-0.11,0.15,0.97,-1.06,-0.13,-0.17,
2.259,-0.12,0.15,0.98,-1.06,-0.13,-0.17,
2.261,-0.12,0.15,0.97,-1.06,-0.13,-0.17,
2.264,-0.12,0.15,0.98,-1.06,-0.13,-0.17,
2.265,-0.12,0.15,0.98,-1.25,-0.02,-0.05,
2.265,-0.12,0.15,0.98,-1.25,-0.02,-0.05,
2.268,-0.12,0.15,0.98,-1.25,-0.02,-0.05,
2.269,-0.12,0.15,0.98,-1.34,0.03,-0.03,
2.271,-0.12,0.14,0.98,-1.34,0.03,-0.03,
2.274,-0.12,0.14,0.98,-1.35,-0.00,-0.05,
2.274,-0.12,0.14,0.98,-1.35,-0.00,-0.05,
2.275,-0.11,0.14,0.98,-1.35,-0.00,-0.05,
2.279,-0.11,0.12,0.98,-1.35,-0.00,-0.05,
2.279,-0.11,0.12,0.98,-1.32,-0.06,-0.02,
2.281,-0.10,0.12,0.97,-1.32,-0.06,-0.02,
2.284,-0.09,0.12,0.96,-1.32,-0.06,-0.02,
2.284,-0.09,0.12,0.96,-1.23,-0.18,0.02,
2.285,-0.09,0.11,0.96,-1.23,-0.18,0.02,
2.289,-0.08,0.11,0.95,-1.23,-0.18,0.02,
2.289,-0.08,0.11,0.95,-1.11,-0.29,-0.15,
2.291,-0.08,0.11,0.95,-1.11,-0.29,-0.15,
2.293,-0.08,0.11,0.95,-0.99,-0.38,-0.23,
2.293,-0.08,0.11,0.94,-0.99,-0.38,-0.23,
2.296,-0.08,0.12,0.95,-0.99,-0.38,-0.23,
2.299,-0.09,0.12,0.96,-0.99,-0.38,-0.23,
2.3,-0.09,0.12,0.96,-0.94,-0.38,-0.32,
2.3,-0.08,0.12,0.96,-0.94,-0.38,-0.32,
2.304,-0.09,0.13,0.96,-0.94,-0.38,-0.32,
2.304,-0.09,0.13,0.96,-0.97,-0.30,-0.27,
2.307,-0.09,0.13,0.96,-0.97,-0.30,-0.27,
2.308,-0.09,0.13,0.97,-0.97,-0.30,-0.27,
2.308,-0.09,0.13,0.97,-0.99,-0.23,-0.19,
2.31,-0.09,0.13,0.97,-0.99,-0.23,-0.19,
2.314,-0.09,0.14,0.98,-0.99,-0.23,-0.19,
2.315,-0.09,0.14,0.98,-1.02,-0.20,-0.13,
2.316,-0.08,0.13,0.98,-1.02,-0.20,-0.13,
2.318,-0.08,0.13,0.98,-1.04,-0.16,-0.04,
2.318,-0.09,0.13,0.98,-1.04,-0.16,-0.04,
2.32,-0.08,0.14,0.99,-1.04,-0.16,-0.04,
2.323,-0.08,0.14,0.99,-1.01,-0.16,-0.00,
2.323,-0.08,0.13,0.99,-1.01,-0.16,-0.00,
2.325,-0.08,0.14,0.99,-1.01,-0.16,-0.00,
2.328,-0.08,0.14,0.99,-0.99,-0.14,0.10,
2.328,-0.08,0.14,1.00,-0.99,-0.14,0.10,
2.331,-0.08,0.14,1.00,-0.99,-0.14,0.10,
2.333,-0.08,0.14,1.01,-0.99,-0.14,0.10,
2.334,-0.08,0.14,1.01,-0.98,-0.10,0.15,
2.336,-0.08,0.15,1.02,-0.98,-0.10,0.15,
2.338,-0.08,0.15,1.01,-0.98,-0.10,0.15,
2.339,-0.08,0.15,1.01,-0.98,-0.09,0.25,
2.34,-0.08,0.15,1.02,-0.98,-0.09,0.25,
2.343,-0.08,0.16,1.02,-0.98,-0.09,0.25,
2.344,-0.08,0.16,1.02,-0.96,-0.02,0.35,
2.345,-0.08,0.16,1.02,-0.96,-0.02,0.35,
2.351,-0.08,0.16,1.02,-0.92,0.05,0.39,
2.352,-0.08,0.16,1.02,-0.92,0.05,0.39,
2.352,-0.08,0.16,1.03,-0.92,0.05,0.39,
2.352,-0.08,0.16,1.02,-0.92,0.05,0.39,
2.353,-0.08,0.16,1.02,-0.93,0.11,0.39,
2.354,-0.08,0.16,1.02,-0.93,0.11,0.39,
2.357,-0.08,0.16,1.02,-0.93,0.11,0.39,
2.357,-0.08,0.16,1.02,-0.93,0.16,0.46,
2.359,-0.09,0.17,1.02,-0.93,0.16,0.46,
2.362,-0.09,0.17,1.02,-0.93,0.16,0.46,
2.362,-0.09,0.17,1.02,-0.92,0.16,0.35,
2.364,-0.09,0.17,1.01,-0.92,0.16,0.35,
2.367,-0.10,0.17,1.01,-0.92,0.16,0.35,
2.367,-0.10,0.17,1.01,-0.96,0.25,0.40,
2.369,-0.10,0.17,1.01,-0.96,0.25,0.40,
2.373,-0.10,0.17,1.00,-0.96,0.25,0.40,
2.373,-0.10,0.17,1.00,-1.02,0.21,0.29,
2.375,-0.11,0.17,1.00,-1.02,0.21,0.29,
2.377,-0.11,0.17,0.99,-1.02,0.21,0.29,
2.377,-0.11,0.17,0.99,-1.09,0.23,0.26,
2.379,-0.11,0.16,0.98,-1.09,0.23,0.26,
2.382,-0.12,0.16,0.98,-1.09,0.23,0.26,
2.382,-0.12,0.16,0.98,-1.12,0.21,0.15,
2.384,-0.12,0.16,0.98,-1.12,0.21,0.15,
2.387,-0.12,0.15,0.97,-1.12,0.21,0.15,
2.387,-0.12,0.15,0.97,-1.16,0.14,-0.00,
2.389,-0.12,0.15,0.96,-1.16,0.14,-0.00,
2.392,-0.12,0.14,0.96,-1.16,0.14,-0.00,
2.392,-0.12,0.14,0.96,-1.23,0.09,-0.08,
2.395,-0.13,0.14,0.96,-1.23,0.09,-0.08,
2.398,-0.13,0.14,0.96,-1.23,-0.01,-0.18,
2.399,-0.14,0.14,0.95,-1.23,-0.01,-0.18,
2.399,-0.14,0.14,0.95,-1.23,-0.01,-0.18,
2.403,-0.14,0.14,0.95,-1.30,-0.05,-0.29,
2.403,-0.15,0.14,0.94,-1.30,-0.05,-0.29,
2.404,-0.15,0.14,0.95,-1.30,-0.05,-0.29,
2.408,-0.15,0.14,0.95,-1.30,-0.05,-0.29,
2.408,-0.15,0.14,0.95,-1.37,-0.11,-0.34,
2.41,-0.16,0.14,0.95,-1.37,-0.11,-0.34,
2.412,-0.16,0.14,0.95,-1.37,-0.11,-0.34,
2.412,-0.16,0.14,0.95,-1.46,-0.12,-0.32,
2.414,-0.16,0.13,0.94,-1.46,-0.12,-0.32,
2.417,-0.16,0.14,0.93,-1.46,-0.12,-0.32,
2.417,-0.16,0.14,0.93,-1.54,-0.12,-0.32,
2.419,-0.17,0.13,0.94,-1.54,-0.12,-0.32,
2.422,-0.17,0.13,0.94,-1.54,-0.12,-0.32,
2.423,-0.17,0.13,0.94,-1.54,-0.14,-0.41,
2.424,-0.16,0.13,0.94,-1.54,-0.14,-0.41,
2.426,-0.16,0.13,0.93,-1.54,-0.14,-0.41,
2.427,-0.16,0.13,0.93,-1.59,-0.19,-0.43,
2.429,-0.17,0.13,0.93,-1.59,-0.19,-0.43,
2.431,-0.16,0.13,0.93,-1.59,-0.19,-0.43,
2.432,-0.16,0.13,0.93,-1.55,-0.20,-0.46,
2.434,-0.17,0.13,0.93,-1.55,-0.20,-0.46,
2.437,-0.17,0.13,0.93,-1.59,-0.22,-0.49,
2.437,-0.17,0.13,0.93,-1.59,-0.22,-0.49,
2.439,-0.16,0.13,0.93,-1.59,-0.22,-0.49,
2.442,-0.16,0.13,0.93,-1.59,-0.22,-0.49,
2.442,-0.16,0.13,0.93,-1.60,-0.24,-0.47,
2.444,-0.16,0.13,0.93,-1.60,-0.24,-0.47,
2.451,-0.15,0.12,0.93,-1.60,-0.24,-0.47,
2.452,-0.15,0.12,0.93,-1.55,-0.27,-0.48,
2.452,-0.15,0.12,0.92,-1.55,-0.27,-0.48,
2.452,-0.15,0.13,0.92,-1.55,-0.27,-0.48,
2.453,-0.15,0.13,0.92,-1.49,-0.27,-0.50,
2.454,-0.14,0.12,0.93,-1.49,-0.27,-0.50,
2.456,-0.14,0.13,0.92,-1.49,-0.27,-0.50,
2.457,-0.14,0.13,0.92,-1.41,-0.30,-0.56,
2.458,-0.14,0.12,0.92,-1.41,-0.30,-0.56,
2.462,-0.14,0.12,0.92,-1.34,-0.29,-0.52,
2.462,-0.13,0.13,0.93,-1.34,-0.29,-0.52,
2.464,-0.13,0.13,0.93,-1.34,-0.29,-0.52,
2.466,-0.13,0.13,0.93,-1.34,-0.29,-0.52,
2.466,-0.13,0.13,0.93,-1.30,-0.26,-0.50,
2.468,-0.13,0.13,0.93,-1.30,-0.26,-0.50,
2.472,-0.13,0.14,0.94,-1.30,-0.26,-0.50,
2.472,-0.13,0.14,0.94,-1.25,-0.22,-0.50,
2.473,-0.12,0.13,0.94,-1.25,-0.22,-0.50,
2.477,-0.12,0.13,0.95,-1.25,-0.22,-0.50,
2.477,-0.12,0.13,0.95,-1.22,-0.20,-0.43,
2.479,-0.12,0.13,0.95,-1.22,-0.20,-0.43,
2.481,-0.12,0.13,0.96,-1.22,-0.20,-0.43,
2.482,-0.12,0.13,0.96,-1.18,-0.19,-0.33,
2.483,-0.11,0.13,0.97,-1.18,-0.19,-0.33,
2.486,-0.11,0.13,0.98,-1.18,-0.19,-0.33,
2.486,-0.11,0.13,0.98,-1.13,-0.21,-0.22,
2.488,-0.11,0.13,0.98,-1.13,-0.21,-0.22,
2.491,-0.10,0.13,0.98,-1.13,-0.21,-0.22,
2.491,-0.10,0.13,0.98,-1.07,-0.20,-0.07,
2.493,-0.10,0.13,0.99,-1.07,-0.20,-0.07,
2.496,-0.10,0.13,0.99,-1.07,-0.20,-0.07,
2.496,-0.10,0.13,0.99,-1.01,-0.19,0.02,
2.498,-0.09,0.13,0.99,-1.01,-0.19,0.02,
2.501,-0.09,0.13,1.00,-1.01,-0.19,0.02,
2.501,-0.09,0.13,1.00,-0.94,-0.19,0.08,
2.503,-0.08,0.13,1.00,-0.94,-0.19,0.08,
2.507,-0.08,0.13,1.00,-0.94,-0.19,0.08,
2.508,-0.08,0.13,1.00,-0.87,-0.18,0.15,
2.508,-0.08,0.13,1.00,-0.87,-0.18,0.15,
2.511,-0.08,0.13,1.00,-0.87,-0.18,0.15,
2.511,-0.08,0.13,1.00,-0.79,-0.18,0.21,
2.513,-0.07,0.13,1.00,-0.79,-0.18,0.21,
2.515,-0.07,0.13,1.01,-0.79,-0.18,0.21,
2.516,-0.07,0.13,1.01,-0.75,-0.17,0.23,
2.518,-0.06,0.13,1.01,-0.75,-0.17,0.23,
2.521,-0.06,0.13,1.01,-0.66,-0.16,0.25,
2.521,-0.06,0.14,1.02,-0.66,-0.16,0.25,
2.523,-0.05,0.14,1.01,-0.66,-0.16,0.25,
2.525,-0.05,0.14,1.02,-0.66,-0.16,0.25,
2.525,-0.05,0.14,1.02,-0.60,-0.13,0.35,
2.528,-0.05,0.14,1.02,-0.60,-0.13,0.35,
2.531,-0.04,0.14,1.02,-0.60,-0.13,0.35,
2.531,-0.04,0.14,1.02,-0.52,-0.09,0.36,
2.533,-0.04,0.14,1.02,-0.52,-0.09,0.36,
2.535,-0.04,0.14,1.02,-0.52,-0.09,0.36,
2.536,-0.04,0.14,1.02,-0.43,-0.07,0.37,
2.538,-0.04,0.14,1.03,-0.43,-0.07,0.37,
2.541,-0.03,0.14,1.02,-0.43,-0.07,0.37,
2.541,-0.03,0.14,1.02,-0.43,-0.11,0.37,
2.543,-0.03,0.14,1.02,-0.43,-0.11,0.37,
2.546,-0.03,0.14,1.02,-0.35,-0.10,0.41,
2.546,-0.02,0.14,1.02,-0.35,-0.10,0.41,
2.548,-0.02,0.14,1.02,-0.35,-0.10,0.41,
2.55,-0.02,0.14,1.02,-0.35,-0.10,0.41,
2.55,-0.02,0.14,1.02,-0.25,-0.06,0.39,
2.552,-0.01,0.13,1.02,-0.25,-0.06,0.39,
2.555,-0.01,0.14,1.02,-0.25,-0.06,0.39,
2.555,-0.01,0.14,1.02,-0.20,-0.09,0.37,
2.557,-0.01,0.14,1.02,-0.20,-0.09,0.37,
2.56,-0.01,0.14,1.01,-0.20,-0.09,0.37,
2.56,-0.01,0.14,1.01,-0.13,-0.08,0.34,
2.562,-0.00,0.14,1.02,-0.13,-0.08,0.34,
2.566,-0.01,0.14,1.02,-0.13,-0.08,0.34,
2.566,-0.01,0.14,1.02,-0.08,-0.08,0.31,
2.568,-0.00,0.15,1.02,-0.08,-0.08,0.31,
2.57,-0.00,0.15,1.02,-0.07,-0.06,0.33,
2.57,-0.01,0.15,1.03,-0.07,-0.06,0.33,
2.573,-0.01,0.14,1.03,-0.07,-0.06,0.33,
2.575,-0.01,0.15,1.02,-0.07,-0.06,0.33,
2.575,-0.01,0.15,1.02,-0.10,0.00,0.39,
2.577,-0.02,0.15,1.02,-0.10,0.00,0.39,
2.58,-0.02,0.15,1.02,-0.10,0.00,0.39,
2.58,-0.02,0.15,1.02,-0.12,-0.01,0.38,
2.582,-0.02,0.15,1.02,-0.12,-0.01,0.38,
2.585,-0.02,0.15,1.02,-0.12,-0.01,0.38,
2.585,-0.02,0.15,1.02,-0.21,0.00,0.34,
2.587,-0.02,0.15,1.01,-0.21,0.00,0.34,
2.59,-0.03,0.15,1.01,-0.21,0.00,0.34,
2.59,-0.03,0.15,1.01,-0.24,0.04,0.34,
2.592,-0.02,0.14,1.00,-0.24,0.04,0.34,
2.595,-0.02,0.14,1.01,-0.24,0.04,0.34,
2.596,-0.02,0.14,1.01,-0.25,0.00,0.27,
2.597,-0.02,0.14,1.00,-0.25,0.00,0.27,
2.6,-0.02,0.14,0.99,-0.25,0.00,0.27,
2.6,-0.02,0.14,0.99,-0.24,-0.06,0.19,
2.603,-0.02,0.14,0.99,-0.24,-0.06,0.19,
2.605,-0.02,0.14,0.99,-0.24,-0.06,0.19,
2.606,-0.02,0.14,0.99,-0.21,-0.04,0.10,
2.607,-0.02,0.14,0.98,-0.21,-0.04,0.10,
2.61,0.00,0.15,0.97,-0.21,-0.04,0.10,
2.61,0.00,0.15,0.97,-0.26,-0.06,0.07,
2.612,0.03,0.17,0.97,-0.26,-0.06,0.07,
2.615,0.06,0.18,0.96,-0.26,-0.06,0.07,
2.615,0.06,0.18,0.96,-0.11,-0.02,-0.07,
2.617,0.09,0.19,0.97,-0.11,-0.02,-0.07,
2.62,0.12,0.21,0.97,-0.11,-0.02,-0.07,
2.62,0.12,0.21,0.97,0.40,0.24,-0.20,
2.622,0.13,0.22,0.99,0.40,0.24,-0.20,
2.624,0.14,0.24,1.00,0.40,0.24,-0.20,
2.624,0.14,0.24,1.00,0.95,0.47,-0.15,
2.627,0.13,0.25,1.01,0.95,0.47,-0.15,
2.63,0.12,0.25,1.02,0.95,0.47,-0.15,
2.63,0.12,0.25,1.02,1.29,0.77,0.08,
2.632,0.11,0.25,1.02,1.29,0.77,0.08,
2.635,0.09,0.25,1.01,1.29,0.77,0.08,
2.636,0.09,0.25,1.01,1.16,0.94,0.32,
2.637,0.08,0.24,0.99,1.16,0.94,0.32,
2.639,0.07,0.23,0.98,1.16,0.94,0.32,
2.64,0.07,0.23,0.98,0.89,0.95,0.30,
2.642,0.05,0.22,0.98,0.89,0.95,0.30,
2.646,0.04,0.20,0.98,0.89,0.95,0.30,
2.646,0.04,0.20,0.98,0.68,0.79,0.03,
2.647,0.02,0.19,0.99,0.68,0.79,0.03,
2.649,0.01,0.17,1.00,0.68,0.79,0.03,
2.65,0.01,0.17,1.00,0.41,0.53,-0.05,
2.652,-0.00,0.16,1.01,0.41,0.53,-0.05,
2.655,-0.00,0.16,1.00,0.41,0.53,-0.05,
2.655,-0.00,0.16,1.00,0.10,0.25,0.06,
2.657,-0.00,0.15,1.00,0.10,0.25,0.06,
2.659,0.00,0.14,1.00,0.10,0.25,0.06,
2.66,0.00,0.14,1.00,-0.07,0.05,0.19,
2.662,0.01,0.14,1.01,-0.07,0.05,0.19,
2.664,0.01,0.14,1.01,-0.07,0.05,0.19,
2.665,0.01,0.14,1.01,-0.06,-0.08,0.17,
2.667,0.02,0.14,1.00,-0.06,-0.08,0.17,
2.669,0.02,0.14,1.00,0.04,-0.12,0.20,
2.669,0.02,0.15,1.00,0.04,-0.12,0.20,
2.671,0.01,0.14,1.00,0.04,-0.12,0.20,
2.674,0.01,0.14,1.00,0.04,-0.12,0.20,
2.674,0.01,0.14,1.00,0.10,-0.08,0.14,
2.676,0.01,0.14,1.00,0.10,-0.08,0.14,
2.679,0.00,0.14,1.00,0.10,-0.08,0.14,
2.679,0.00,0.14,1.00,0.03,-0.12,0.11,
2.681,0.00,0.14,1.00,0.03,-0.12,0.11,
2.685,-0.00,0.15,1.00,0.03,-0.12,0.11,
2.685,-0.00,0.15,1.00,-0.02,-0.10,0.13,
2.686,-0.01,0.15,1.00,-0.02,-0.10,0.13,
2.689,-0.02,0.15,1.00,-0.02,-0.10,0.13,
2.689,-0.02,0.15,1.00,-0.08,-0.08,0.16,
2.691,-0.02,0.15,1.00,-0.08,-0.08,0.16,
2.694,-0.02,0.15,0.99,-0.08,-0.08,0.16,
2.694,-0.02,0.15,0.99,-0.18,-0.03,0.15,
2.696,-0.03,0.15,0.99,-0.18,-0.03,0.15,
2.699,-0.03,0.14,0.99,-0.18,-0.03,0.15,
2.699,-0.03,0.14,0.99,-0.26,-0.03,0.06,
2.701,-0.04,0.14,0.98,-0.26,-0.03,0.06,
2.704,-0.04,0.14,0.98,-0.37,-0.09,0.03,
2.704,-0.04,0.14,0.98,-0.37,-0.09,0.03,
2.706,-0.04,0.14,0.98,-0.37,-0.09,0.03,
2.709,-0.04,0.14,0.98,-0.37,-0.09,0.03,
2.709,-0.04,0.14,0.98,-0.43,-0.11,-0.08,
2.711,-0.04,0.13,0.97,-0.43,-0.11,-0.08,
2.714,-0.04,0.13,0.97,-0.43,-0.11,-0.08,
2.714,-0.04,0.13,0.97,-0.45,-0.16,-0.09,
2.716,-0.03,0.13,0.97,-0.45,-0.16,-0.09,
2.719,-0.03,0.14,0.97,-0.45,-0.16,-0.09,
2.719,-0.03,0.14,0.97,-0.41,-0.20,-0.12,
2.721,-0.02,0.13,0.97,-0.41,-0.20,-0.12,
2.724,-0.01,0.14,0.97,-0.41,-0.20,-0.12,
2.724,-0.01,0.14,0.97,-0.36,-0.19,-0.17,
2.727,-0.00,0.14,0.97,-0.36,-0.19,-0.17,
2.728,0.00,0.14,0.98,-0.36,-0.19,-0.17,
2.728,0.00,0.14,0.98,-0.20,-0.16,-0.14,
2.731,0.01,0.15,0.98,-0.20,-0.16,-0.14,
2.733,0.02,0.15,0.97,-0.20,-0.16,-0.14,
2.734,0.02,0.15,0.97,-0.04,-0.11,-0.09,
2.736,0.02,0.15,0.96,-0.04,-0.11,-0.09,
2.738,0.02,0.15,0.96,-0.04,-0.11,-0.09,
2.739,0.02,0.15,0.96,0.11,-0.05,-0.14,
2.74,0.03,0.15,0.96,0.11,-0.05,-0.14,
2.743,0.03,0.16,0.96,0.11,-0.05,-0.14,
2.744,0.03,0.16,0.96,0.16,-0.00,-0.23,
2.745,0.03,0.16,0.97,0.16,-0.00,-0.23,
2.749,0.03,0.17,0.97,0.16,-0.00,-0.23,
2.75,0.03,0.17,0.97,0.23,0.03,-0.23,
2.75,0.04,0.17,0.97,0.23,0.03,-0.23,
2.754,0.04,0.17,0.98,0.23,0.03,-0.23,
2.754,0.04,0.17,0.98,0.29,0.11,-0.14,
2.755,0.04,0.17,0.97,0.29,0.11,-0.14,
2.758,0.04,0.17,0.98,0.29,0.11,-0.14,
2.759,0.04,0.17,0.98,0.32,0.14,-0.12,
2.76,0.04,0.16,0.99,0.32,0.14,-0.12,
2.763,0.03,0.16,0.98,0.32,0.14,-0.12,
2.764,0.03,0.16,0.98,0.36,0.17,-0.09,
2.765,0.04,0.16,0.98,0.36,0.17,-0.09,
2.768,0.03,0.15,0.99,0.36,0.17,-0.09,
2.768,0.03,0.15,0.99,0.31,0.10,-0.00,
2.77,0.03,0.15,0.99,0.31,0.10,-0.00,
2.773,0.03,0.15,1.00,0.31,0.10,-0.00,
2.773,0.03,0.15,1.00,0.29,0.05,0.01,
2.775,0.02,0.15,1.00,0.29,0.05,0.01,
2.778,0.02,0.14,1.00,0.29,0.05,0.01,
2.778,0.02,0.14,1.00,0.25,0.01,0.07,
2.78,0.02,0.15,1.01,0.25,0.01,0.07,
2.784,0.02,0.15,1.01,0.25,0.01,0.07,
2.784,0.02,0.15,1.01,0.18,-0.05,0.17,
2.785,0.01,0.14,1.01,0.18,-0.05,0.17,
2.789,0.01,0.14,1.02,0.18,-0.05,0.17,
2.789,0.01,0.14,1.02,0.11,-0.05,0.23,
2.79,0.01,0.14,1.02,0.11,-0.05,0.23,
2.793,0.00,0.14,1.01,0.11,-0.05,0.23,
2.793,0.00,0.14,1.01,0.04,-0.08,0.30,
2.795,0.01,0.14,1.01,0.04,-0.08,0.30,
2.798,0.00,0.13,1.01,0.04,-0.08,0.30,
2.798,0.00,0.13,1.01,-0.03,-0.12,0.28,
2.801,0.00,0.14,1.01,-0.03,-0.12,0.28,
2.803,0.01,0.13,1.00,-0.03,-0.12,0.28,
2.803,0.01,0.13,1.00,-0.03,-0.14,0.25,
2.805,0.01,0.14,0.99,-0.03,-0.14,0.25,
2.808,0.02,0.14,0.99,-0.03,-0.14,0.25,
2.808,0.02,0.14,0.99,-0.04,-0.15,0.20,
2.81,0.02,0.14,0.98,-0.04,-0.15,0.20,
2.813,0.02,0.15,0.98,-0.04,-0.15,0.20,
2.813,0.02,0.15,0.98,0.02,-0.09,0.04,
2.816,0.03,0.16,0.98,0.02,-0.09,0.04,
2.818,0.03,0.16,0.98,0.10,-0.04,-0.06,
2.818,0.03,0.16,0.97,0.10,-0.04,-0.06,
2.82,0.03,0.16,0.97,0.10,-0.04,-0.06,
2.822,0.03,0.16,0.97,0.17,0.09,-0.10,
2.823,0.04,0.16,0.97,0.17,0.09,-0.10,
2.825,0.05,0.17,0.94,0.17,0.09,-0.10,
2.827,0.05,0.17,0.92,0.17,0.09,-0.10,
2.828,0.05,0.17,0.92,0.24,0.12,-0.14,
2.83,0.06,0.17,0.90,0.24,0.12,-0.14,
2.832,0.06,0.18,0.89,0.24,0.12,-0.14,
2.833,0.06,0.18,0.89,0.33,0.18,-0.53,
2.834,0.05,0.18,0.91,0.33,0.18,-0.53,
2.837,0.03,0.18,0.93,0.33,0.18,-0.53,
2.838,0.03,0.18,0.93,0.42,0.27,-0.88,
2.839,0.02,0.17,0.93,0.42,0.27,-0.88,
2.843,0.02,0.17,0.93,0.22,0.29,-0.68,
2.843,0.01,0.17,0.94,0.22,0.29,-0.68,
2.844,0.01,0.17,0.96,0.22,0.29,-0.68,
2.847,0.01,0.16,0.96,0.22,0.29,-0.68,
2.847,0.01,0.16,0.96,-0.00,0.24,-0.45,
2.849,0.01,0.16,0.97,-0.00,0.24,-0.45,
2.853,0.01,0.14,0.97,-0.00,0.24,-0.45,
2.854,0.01,0.14,0.97,-0.07,0.18,-0.26,
2.855,0.01,0.15,0.98,-0.07,0.18,-0.26,
2.857,0.01,0.14,0.98,-0.07,0.18,-0.26,
2.857,0.01,0.14,0.98,-0.06,0.03,-0.14,
2.859,-0.00,0.13,0.98,-0.06,0.03,-0.14,
2.862,-0.00,0.13,0.97,-0.06,0.03,-0.14,
2.863,-0.00,0.13,0.97,-0.08,-0.03,-0.09,
2.865,-0.01,0.13,0.98,-0.08,-0.03,-0.09,
2.868,-0.01,0.12,0.99,-0.08,-0.03,-0.09,
2.868,-0.01,0.12,0.99,-0.20,-0.15,-0.10,
2.869,-0.02,0.12,0.99,-0.20,-0.15,-0.10,
2.872,-0.02,0.12,0.99,-0.20,-0.15,-0.10,
2.872,-0.02,0.12,0.99,-0.29,-0.21,-0.02,
2.874,-0.02,0.11,1.00,-0.29,-0.21,-0.02,
2.877,-0.02,0.11,1.00,-0.29,-0.21,-0.02,
2.877,-0.02,0.11,1.00,-0.37,-0.24,0.06,
2.879,-0.02,0.11,1.01,-0.37,-0.24,0.06,
2.882,-0.02,0.11,1.01,-0.38,-0.32,0.13,
2.882,-0.02,0.10,1.01,-0.38,-0.32,0.13,
2.888,-0.02,0.10,1.02,-0.38,-0.32,0.13,
2.889,-0.02,0.10,1.02,-0.38,-0.32,0.13,
2.889,-0.02,0.10,1.02,-0.36,-0.38,0.22,
2.889,-0.02,0.10,1.02,-0.36,-0.38,0.22,
2.892,-0.02,0.10,1.02,-0.39,-0.41,0.29,
2.892,-0.02,0.10,1.03,-0.39,-0.41,0.29,
2.894,-0.01,0.10,1.03,-0.39,-0.41,0.29,
2.897,-0.01,0.10,1.03,-0.39,-0.40,0.37,
2.897,-0.01,0.11,1.04,-0.39,-0.40,0.37,
2.903,-0.01,0.11,1.04,-0.39,-0.40,0.37,
2.904,-0.01,0.11,1.04,-0.31,-0.35,0.45,
2.904,-0.01,0.11,1.05,-0.31,-0.35,0.45,
2.904,-0.00,0.12,1.06,-0.31,-0.35,0.45,
2.907,-0.00,0.12,1.06,-0.29,-0.29,0.58,
2.907,0.00,0.12,1.06,-0.29,-0.29,0.58,
2.909,0.01,0.12,1.07,-0.29,-0.29,0.58,
2.912,0.01,0.12,1.07,-0.29,-0.29,0.58,
2.912,0.01,0.12,1.07,-0.17,-0.20,0.70,
2.914,0.01,0.13,1.06,-0.17,-0.20,0.70,
2.921,0.01,0.13,1.06,-0.08,-0.18,0.78,
2.921,0.02,0.13,1.05,-0.08,-0.18,0.78,
2.921,0.03,0.13,1.05,-0.08,-0.18,0.78,
2.921,0.03,0.13,1.05,-0.03,-0.11,0.67,
2.921,0.03,0.13,1.04,-0.03,-0.11,0.67,
2.924,0.03,0.14,1.04,-0.03,-0.11,0.67,
2.926,0.03,0.14,1.03,-0.03,-0.11,0.67,
2.927,0.03,0.14,1.03,0.07,-0.07,0.54,
2.929,0.04,0.14,1.02,0.07,-0.07,0.54,
2.936,0.04,0.14,1.02,0.11,-0.04,0.45,
2.937,0.04,0.14,1.02,0.11,-0.04,0.45,
2.937,0.04,0.14,1.01,0.11,-0.04,0.45,
2.937,0.04,0.14,1.01,0.11,-0.04,0.45,
2.937,0.04,0.14,1.01,0.19,-0.02,0.28,
