
time,gFx,gFy,gFz,ax,ay,az,
0.005,0.04,0.09,0.99,-0.02,-0.14,0.06,
0.006,0.04,0.10,0.98,-0.02,-0.14,0.06,
0.006,0.04,0.10,0.98,-0.02,-0.15,0.02,
0.006,0.04,0.09,0.98,-0.02,-0.15,0.02,
0.007,0.03,0.10,0.98,-0.02,-0.15,0.02,
0.007,0.03,0.10,0.98,0.00,-0.18,-0.07,
0.007,0.03,0.10,0.97,0.00,-0.18,-0.07,
0.007,0.03,0.10,0.97,0.00,-0.18,-0.07,
0.007,0.03,0.10,0.97,-0.06,-0.20,-0.16,
0.008,0.03,0.10,0.97,-0.06,-0.20,-0.16,
0.012,0.03,0.10,0.96,-0.06,-0.20,-0.16,
0.012,0.03,0.10,0.96,-0.07,-0.19,-0.22,
0.013,0.02,0.10,0.96,-0.07,-0.19,-0.22,
0.015,0.02,0.10,0.96,-0.07,-0.19,-0.22,
0.016,0.02,0.10,0.96,-0.10,-0.18,-0.28,
0.019,0.03,0.10,0.96,-0.10,-0.18,-0.28,
0.021,0.02,0.10,0.96,-0.10,-0.18,-0.28,
0.022,0.02,0.10,0.96,-0.14,-0.19,-0.28,
0.023,0.02,0.10,0.96,-0.14,-0.19,-0.28,
0.026,0.02,0.11,0.96,-0.14,-0.19,-0.28,
0.026,0.02,0.11,0.96,-0.12,-0.17,-0.34,
0.034,0.02,0.11,0.96,-0.12,-0.17,-0.34,
0.034,0.02,0.11,0.96,-0.12,-0.17,-0.34,
0.035,0.02,0.11,0.96,-0.16,-0.12,-0.32,
0.035,0.02,0.11,0.95,-0.16,-0.12,-0.32,
0.035,0.02,0.11,0.95,-0.15,-0.09,-0.35,
0.036,0.02,0.11,0.96,-0.15,-0.09,-0.35,
0.038,0.02,0.11,0.96,-0.15,-0.09,-0.35,
0.041,0.02,0.12,0.96,-0.15,-0.09,-0.35,
0.041,0.02,0.12,0.96,-0.11,-0.07,-0.38,
0.044,0.02,0.12,0.96,-0.11,-0.07,-0.38,
0.046,0.03,0.12,0.96,-0.11,-0.07,-0.38,
0.046,0.03,0.12,0.96,-0.05,-0.03,-0.32,
0.048,0.03,0.12,0.97,-0.05,-0.03,-0.32,
0.051,0.03,0.13,0.97,-0.05,-0.03,-0.32,
0.051,0.03,0.13,0.97,-0.03,0.03,-0.29,
0.053,0.03,0.13,0.97,-0.03,0.03,-0.29,
0.057,0.03,0.13,0.98,-0.03,0.03,-0.29,
0.057,0.03,0.13,0.98,0.02,0.07,-0.19,
0.058,0.03,0.14,0.98,0.02,0.07,-0.19,
0.061,0.03,0.14,0.98,0.06,0.15,-0.14,
0.062,0.04,0.13,0.99,0.06,0.15,-0.14,
0.063,0.04,0.14,0.99,0.06,0.15,-0.14,
0.065,0.04,0.14,0.99,0.06,0.15,-0.14,
0.066,0.04,0.14,0.99,0.13,0.19,-0.06,
0.069,0.05,0.14,0.99,0.13,0.19,-0.06,
0.072,0.05,0.14,0.99,0.13,0.19,-0.06,
0.072,0.05,0.14,0.99,0.17,0.26,-0.02,
0.074,0.06,0.14,1.00,0.17,0.26,-0.02,
0.076,0.06,0.14,1.01,0.17,0.26,-0.02,
0.076,0.06,0.14,1.01,0.27,0.27,0.03,
0.084,0.06,0.15,1.00,0.27,0.27,0.03,
0.085,0.07,0.14,1.00,0.27,0.27,0.03,
0.086,0.07,0.14,1.00,0.35,0.29,0.12,
0.086,0.07,0.14,1.00,0.35,0.29,0.12,
0.086,0.07,0.14,1.00,0.35,0.29,0.12,
0.086,0.07,0.14,1.00,0.37,0.30,0.09,
0.088,0.07,0.14,1.00,0.37,0.30,0.09,
0.09,0.07,0.14,1.00,0.37,0.30,0.09,
0.091,0.07,0.14,1.00,0.41,0.27,0.09,
0.093,0.07,0.14,0.99,0.41,0.27,0.09,
0.103,0.06,0.14,0.99,0.41,0.27,0.09,
0.104,0.06,0.14,0.99,0.40,0.28,0.05,
0.104,0.06,0.15,0.99,0.40,0.28,0.05,
0.104,0.05,0.15,1.00,0.40,0.28,0.05,
0.104,0.05,0.15,1.00,0.38,0.28,-0.00,
0.105,0.05,0.14,1.00,0.38,0.28,-0.00,
0.105,0.05,0.15,0.99,0.38,0.28,-0.00,
0.105,0.05,0.15,0.99,0.30,0.30,0.01,
0.109,0.04,0.14,0.99,0.30,0.30,0.01,
0.11,0.04,0.14,0.99,0.22,0.26,-0.00,
0.11,0.04,0.14,0.99,0.22,0.26,-0.00,
0.112,0.03,0.14,0.99,0.22,0.26,-0.00,
0.115,0.03,0.13,0.98,0.22,0.26,-0.00,
0.116,0.03,0.13,0.98,0.12,0.19,-0.03,
0.119,0.03,0.13,0.98,0.12,0.19,-0.03,
0.122,0.03,0.13,0.98,0.04,0.19,-0.06,
0.122,0.02,0.13,0.98,0.04,0.19,-0.06,
0.122,0.02,0.13,0.97,0.04,0.19,-0.06,
0.125,0.01,0.13,0.98,0.04,0.19,-0.06,
0.125,0.01,0.13,0.98,0.00,0.14,-0.12,
0.132,0.01,0.13,0.97,0.00,0.14,-0.12,
0.133,0.01,0.13,0.97,0.00,0.14,-0.12,
0.134,0.01,0.13,0.97,-0.12,0.11,-0.15,
0.134,0.00,0.13,0.97,-0.12,0.11,-0.15,
0.134,0.00,0.12,0.96,-0.12,0.11,-0.15,
0.135,0.00,0.12,0.96,-0.17,0.08,-0.19,
0.137,0.00,0.12,0.96,-0.17,0.08,-0.19,
0.139,-0.00,0.12,0.96,-0.17,0.08,-0.19,
0.139,-0.00,0.12,0.96,-0.22,0.07,-0.28,
0.142,-0.00,0.11,0.95,-0.22,0.07,-0.28,
0.144,-0.00,0.11,0.95,-0.22,0.07,-0.28,
0.145,-0.00,0.11,0.95,-0.24,-0.00,-0.29,
0.147,0.01,0.11,0.95,-0.24,-0.00,-0.29,
0.149,0.01,0.11,0.96,-0.24,-0.00,-0.29,
0.15,0.01,0.11,0.96,-0.25,-0.09,-0.40,
0.151,0.01,0.10,0.97,-0.25,-0.09,-0.40,
0.154,0.01,0.10,0.97,-0.25,-0.09,-0.40,
0.154,0.01,0.10,0.97,-0.14,-0.11,-0.35,
0.157,0.01,0.10,0.97,-0.14,-0.11,-0.35,
0.16,0.02,0.10,0.97,-0.14,-0.11,-0.35,
0.16,0.02,0.10,0.97,-0.10,-0.20,-0.21,
0.162,0.02,0.10,0.99,-0.10,-0.20,-0.21,
0.164,0.02,0.10,0.99,-0.06,-0.19,-0.17,
0.165,0.02,0.10,0.99,-0.06,-0.19,-0.17,
0.167,0.03,0.10,1.00,-0.06,-0.19,-0.17,
0.171,0.03,0.10,1.01,-0.06,-0.19,-0.17,
0.171,0.03,0.10,1.01,0.00,-0.18,-0.02,
0.171,0.04,0.10,1.01,0.00,-0.18,-0.02,
0.174,0.04,0.10,1.02,0.00,-0.18,-0.02,
0.174,0.04,0.10,1.02,0.05,-0.20,0.13,
0.177,0.04,0.10,1.02,0.05,-0.20,0.13,
0.179,0.05,0.11,1.03,0.05,-0.20,0.13,
0.179,0.05,0.11,1.03,0.16,-0.15,0.23,
0.181,0.05,0.10,1.03,0.16,-0.15,0.23,
0.184,0.05,0.10,1.03,0.16,-0.15,0.23,
0.184,0.05,0.10,1.03,0.23,-0.13,0.34,
0.186,0.06,0.10,1.04,0.23,-0.13,0.34,
0.188,0.06,0.10,1.04,0.23,-0.13,0.34,
0.189,0.06,0.10,1.04,0.29,-0.16,0.41,
0.191,0.06,0.10,1.04,0.29,-0.16,0.41,
0.197,0.06,0.10,1.04,0.29,-0.16,0.41,
0.198,0.06,0.10,1.04,0.37,-0.16,0.47,
0.198,0.06,0.10,1.04,0.37,-0.16,0.47,
0.198,0.06,0.10,1.04,0.37,-0.16,0.47,
0.199,0.06,0.10,1.04,0.35,-0.13,0.49,
0.201,0.05,0.10,1.04,0.35,-0.13,0.49,
0.203,0.05,0.10,1.05,0.35,-0.13,0.49,
0.204,0.05,0.10,1.05,0.34,-0.18,0.45,
0.206,0.04,0.10,1.04,0.34,-0.18,0.45,
0.209,0.04,0.10,1.04,0.34,-0.18,0.45,
0.209,0.04,0.10,1.04,0.29,-0.15,0.49,
0.215,0.03,0.10,1.04,0.29,-0.15,0.49,
0.216,0.02,0.10,1.03,0.29,-0.15,0.49,
0.216,0.02,0.10,1.03,0.19,-0.16,0.47,
0.216,0.02,0.10,1.02,0.19,-0.16,0.47,
0.22,0.01,0.10,1.02,0.19,-0.16,0.47,
0.22,0.01,0.10,1.02,0.09,-0.18,0.39,
0.222,0.01,0.10,1.01,0.09,-0.18,0.39,
0.224,0.00,0.10,1.01,0.09,-0.18,0.39,
0.224,0.00,0.10,1.01,-0.04,-0.17,0.25,
0.226,-0.00,0.10,1.00,-0.04,-0.17,0.25,
0.228,-0.00,0.10,0.99,-0.04,-0.17,0.25,
0.229,-0.00,0.10,0.99,-0.10,-0.21,0.16,
0.232,-0.00,0.10,0.98,-0.10,-0.21,0.16,
0.234,-0.01,0.10,0.97,-0.10,-0.21,0.16,
0.235,-0.01,0.10,0.97,-0.16,-0.22,-0.00,
0.236,-0.01,0.10,0.96,-0.16,-0.22,-0.00,
0.238,-0.02,0.10,0.95,-0.16,-0.22,-0.00,
0.238,-0.02,0.10,0.95,-0.19,-0.22,-0.19,
0.241,-0.03,0.11,0.94,-0.19,-0.22,-0.19,
0.244,-0.03,0.11,0.93,-0.19,-0.22,-0.19,
0.244,-0.03,0.11,0.93,-0.29,-0.19,-0.37,
0.246,-0.03,0.11,0.93,-0.29,-0.19,-0.37,
0.248,-0.03,0.11,0.92,-0.29,-0.19,-0.37,
0.248,-0.03,0.11,0.92,-0.37,-0.18,-0.53,
0.251,-0.04,0.11,0.91,-0.37,-0.18,-0.53,
0.254,-0.03,0.11,0.91,-0.37,-0.18,-0.53,
0.254,-0.03,0.11,0.91,-0.40,-0.18,-0.68,
0.256,-0.04,0.11,0.91,-0.40,-0.18,-0.68,
0.259,-0.05,0.11,0.92,-0.40,-0.18,-0.68,
0.259,-0.05,0.11,0.92,-0.43,-0.15,-0.78,
0.261,-0.05,0.11,0.92,-0.43,-0.15,-0.78,
0.263,-0.05,0.12,0.92,-0.43,-0.15,-0.78,
0.264,-0.05,0.12,0.92,-0.49,-0.15,-0.74,
0.266,-0.06,0.12,0.92,-0.49,-0.15,-0.74,
0.269,-0.06,0.13,0.93,-0.49,-0.15,-0.74,
0.269,-0.06,0.13,0.93,-0.61,-0.10,-0.70,
0.272,-0.06,0.13,0.92,-0.61,-0.10,-0.70,
0.274,-0.06,0.13,0.92,-0.61,-0.10,-0.70,
0.274,-0.06,0.13,0.92,-0.66,-0.03,-0.64,
0.277,-0.06,0.13,0.93,-0.66,-0.03,-0.64,
0.28,-0.07,0.13,0.93,-0.66,-0.03,-0.64,
0.28,-0.07,0.13,0.93,-0.65,-0.00,-0.64,
0.281,-0.06,0.12,0.93,-0.65,-0.00,-0.64,
0.284,-0.06,0.12,0.93,-0.69,0.02,-0.54,
0.284,-0.06,0.12,0.94,-0.69,0.02,-0.54,
0.287,-0.06,0.12,0.95,-0.69,0.02,-0.54,
0.289,-0.06,0.12,0.96,-0.69,0.02,-0.54,
0.289,-0.06,0.12,0.96,-0.65,-0.09,-0.48,
0.291,-0.05,0.11,0.96,-0.65,-0.09,-0.48,
0.294,-0.05,0.11,0.95,-0.65,-0.09,-0.48,
0.294,-0.05,0.11,0.95,-0.63,-0.09,-0.35,
0.301,-0.05,0.11,0.96,-0.63,-0.09,-0.35,
0.302,-0.05,0.11,0.97,-0.63,-0.09,-0.35,
0.302,-0.05,0.11,0.97,-0.58,-0.14,-0.29,
0.302,-0.05,0.11,0.96,-0.58,-0.14,-0.29,
0.303,-0.05,0.11,0.96,-0.56,-0.16,-0.25,
0.304,-0.05,0.11,0.96,-0.56,-0.16,-0.25,
0.306,-0.04,0.10,0.96,-0.56,-0.16,-0.25,
0.308,-0.04,0.10,0.96,-0.52,-0.18,-0.23,
0.308,-0.04,0.10,0.97,-0.52,-0.18,-0.23,
0.312,-0.04,0.11,0.97,-0.52,-0.18,-0.23,
0.312,-0.03,0.10,0.97,-0.52,-0.18,-0.23,
0.313,-0.03,0.10,0.97,-0.48,-0.23,-0.20,
0.315,-0.02,0.10,0.98,-0.48,-0.23,-0.20,
0.319,-0.02,0.10,0.97,-0.48,-0.23,-0.20,
0.319,-0.02,0.10,0.97,-0.39,-0.20,-0.16,
0.321,-0.02,0.10,0.97,-0.39,-0.20,-0.16,
0.323,-0.01,0.11,0.98,-0.39,-0.20,-0.16,
0.326,-0.01,0.11,0.98,-0.27,-0.20,-0.11,
0.326,-0.01,0.11,0.98,-0.27,-0.20,-0.11,
0.33,-0.01,0.11,0.98,-0.27,-0.20,-0.11,
0.33,-0.01,0.11,0.98,-0.21,-0.19,-0.10,
0.331,-0.00,0.11,0.99,-0.21,-0.19,-0.10,
0.333,-0.00,0.11,0.99,-0.13,-0.12,-0.05,
0.334,0.01,0.12,0.99,-0.13,-0.12,-0.05,
0.335,0.02,0.12,0.99,-0.13,-0.12,-0.05,
0.338,0.02,0.12,1.01,-0.13,-0.12,-0.05,
0.338,0.02,0.12,1.01,-0.03,-0.07,0.02,
0.341,0.02,0.12,1.01,-0.03,-0.07,0.02,
0.343,0.03,0.13,1.02,-0.03,-0.07,0.02,
0.343,0.03,0.13,1.02,0.10,-0.01,0.15,
0.346,0.03,0.13,1.02,0.10,-0.01,0.15,
0.348,0.03,0.13,1.03,0.10,-0.01,0.15,
0.348,0.03,0.13,1.03,0.16,0.03,0.28,
0.35,0.04,0.13,1.04,0.16,0.03,0.28,
0.353,0.04,0.13,1.04,0.16,0.03,0.28,
0.353,0.04,0.13,1.04,0.23,0.08,0.40,
0.356,0.05,0.13,1.04,0.23,0.08,0.40,
0.358,0.05,0.13,1.04,0.29,0.07,0.51,
0.358,0.05,0.13,1.04,0.29,0.07,0.51,
0.36,0.06,0.13,1.05,0.29,0.07,0.51,
0.362,0.06,0.14,1.05,0.29,0.07,0.51,
0.363,0.06,0.14,1.05,0.40,0.11,0.54,
0.365,0.06,0.13,1.04,0.40,0.11,0.54,
0.368,0.07,0.13,1.04,0.40,0.11,0.54,
0.368,0.07,0.13,1.04,0.47,0.14,0.61,
0.371,0.08,0.13,1.03,0.47,0.14,0.61,
0.372,0.09,0.13,1.03,0.47,0.14,0.61,
0.372,0.09,0.13,1.03,0.57,0.10,0.49,
0.375,0.09,0.13,1.02,0.57,0.10,0.49,
0.38,0.10,0.13,1.01,0.57,0.10,0.49,
0.38,0.10,0.13,1.01,0.73,0.07,0.42,
0.381,0.11,0.13,1.00,0.73,0.07,0.42,
0.383,0.11,0.13,1.00,0.82,0.10,0.23,
0.383,0.11,0.13,0.99,0.82,0.10,0.23,
0.385,0.12,0.13,0.98,0.82,0.10,0.23,
0.387,0.12,0.13,0.98,0.98,0.13,0.04,
0.388,0.12,0.13,0.97,0.98,0.13,0.04,
0.39,0.12,0.13,0.97,0.98,0.13,0.04,
0.392,0.12,0.13,0.96,0.98,0.13,0.04,
0.393,0.12,0.13,0.96,1.04,0.11,-0.15,
0.395,0.13,0.13,0.96,1.04,0.11,-0.15,
0.397,0.13,0.13,0.95,1.04,0.11,-0.15,
0.398,0.13,0.13,0.95,1.11,0.09,-0.24,
0.4,0.13,0.13,0.95,1.11,0.09,-0.24,
0.402,0.13,0.13,0.95,1.11,0.09,-0.24,
0.402,0.13,0.13,0.95,1.18,0.12,-0.35,
0.405,0.14,0.13,0.96,1.18,0.12,-0.35,
0.407,0.14,0.13,0.95,1.18,0.12,-0.35,
0.408,0.14,0.13,0.95,1.20,0.13,-0.38,
0.41,0.14,0.13,0.96,1.20,0.13,-0.38,
0.416,0.14,0.13,0.96,1.20,0.13,-0.38,
0.417,0.14,0.13,0.96,1.25,0.15,-0.33,
0.417,0.14,0.14,0.97,1.25,0.15,-0.33,
0.418,0.14,0.13,0.98,1.25,0.15,-0.33,
0.418,0.14,0.13,0.98,1.24,0.16,-0.28,
0.419,0.14,0.13,0.99,1.24,0.16,-0.28,
0.421,0.14,0.13,0.99,1.27,0.20,-0.11,
0.422,0.15,0.14,0.99,1.27,0.20,-0.11,
0.424,0.15,0.14,0.99,1.27,0.20,-0.11,
0.426,0.16,0.14,0.99,1.27,0.20,-0.11,
0.429,0.16,0.14,0.99,1.30,0.21,-0.02,
0.429,0.17,0.15,1.00,1.30,0.21,-0.02,
0.431,0.17,0.14,1.01,1.30,0.21,-0.02,
0.431,0.17,0.14,1.01,1.44,0.27,0.04,
0.434,0.18,0.15,1.00,1.44,0.27,0.04,
0.436,0.19,0.14,1.00,1.44,0.27,0.04,
0.436,0.19,0.14,1.00,1.54,0.30,0.13,
0.439,0.19,0.15,1.01,1.54,0.30,0.13,
0.441,0.20,0.15,1.01,1.54,0.30,0.13,
0.441,0.20,0.15,1.01,1.67,0.31,0.13,
0.444,0.20,0.14,1.01,1.67,0.31,0.13,
0.446,0.20,0.15,1.01,1.67,0.31,0.13,
0.446,0.20,0.15,1.01,1.74,0.32,0.20,
0.448,0.20,0.15,1.01,1.74,0.32,0.20,
0.451,0.20,0.14,1.01,1.74,0.32,0.20,
0.452,0.20,0.14,1.01,1.79,0.30,0.20,
0.453,0.20,0.15,1.01,1.79,0.30,0.20,
0.456,0.20,0.15,1.01,1.79,0.30,0.20,
0.457,0.20,0.15,1.01,1.78,0.32,0.19,
0.458,0.19,0.14,1.01,1.78,0.32,0.19,
0.461,0.19,0.14,1.01,1.78,0.32,0.19,
0.462,0.19,0.14,1.01,1.72,0.31,0.20,
0.463,0.18,0.14,1.02,1.72,0.31,0.20,
0.466,0.18,0.14,1.02,1.72,0.31,0.20,
0.466,0.18,0.14,1.02,1.66,0.28,0.24,
0.469,0.18,0.14,1.01,1.66,0.28,0.24,
0.471,0.18,0.14,1.01,1.66,0.28,0.24,
0.471,0.18,0.14,1.01,1.57,0.30,0.24,
0.473,0.17,0.14,1.01,1.57,0.30,0.24,
0.476,0.17,0.14,1.01,1.57,0.30,0.24,
0.476,0.17,0.14,1.01,1.53,0.28,0.17,
0.479,0.17,0.14,1.01,1.53,0.28,0.17,
0.481,0.17,0.14,1.00,1.53,0.28,0.17,
0.481,0.17,0.14,1.00,1.45,0.26,0.18,
0.483,0.17,0.14,1.00,1.45,0.26,0.18,
0.486,0.17,0.14,0.99,1.45,0.26,0.18,
0.486,0.17,0.14,0.99,1.44,0.27,0.10,
0.491,0.18,0.14,0.99,1.44,0.27,0.10,
0.492,0.18,0.14,0.98,1.44,0.27,0.10,
0.492,0.18,0.14,0.98,1.45,0.25,0.03,
0.493,0.18,0.14,0.98,1.45,0.25,0.03,
0.497,0.18,0.14,0.98,1.45,0.25,0.03,
0.498,0.18,0.14,0.98,1.51,0.23,-0.04,
0.498,0.18,0.14,0.97,1.51,0.23,-0.04,
0.501,0.17,0.14,0.97,1.51,0.23,-0.04,
0.502,0.17,0.14,0.97,1.52,0.25,-0.10,
0.504,0.17,0.14,0.97,1.52,0.25,-0.10,
0.507,0.17,0.14,0.97,1.49,0.24,-0.18,
0.507,0.17,0.14,0.97,1.49,0.24,-0.18,
0.509,0.17,0.14,0.97,1.49,0.24,-0.18,
0.511,0.17,0.14,0.97,1.49,0.24,-0.18,
0.512,0.17,0.14,0.97,1.49,0.23,-0.19,
0.519,0.17,0.14,0.97,1.49,0.23,-0.19,
0.52,0.17,0.14,0.96,1.49,0.23,-0.19,
0.522,0.17,0.14,0.96,1.46,0.24,-0.18,
0.525,0.17,0.14,0.96,1.46,0.24,-0.18,
0.525,0.17,0.13,0.95,1.46,0.24,-0.18,
0.525,0.17,0.13,0.95,1.47,0.19,-0.26,
0.525,0.17,0.13,0.95,1.47,0.19,-0.26,
0.526,0.17,0.12,0.94,1.47,0.19,-0.26,
0.526,0.17,0.12,0.94,1.44,0.14,-0.32,
0.532,0.16,0.12,0.94,1.44,0.14,-0.32,
0.533,0.16,0.12,0.94,1.44,0.06,-0.42,
0.533,0.16,0.12,0.94,1.44,0.06,-0.42,
0.533,0.16,0.11,0.94,1.44,0.06,-0.42,
0.536,0.15,0.11,0.94,1.44,0.06,-0.42,
0.536,0.15,0.11,0.94,1.39,-0.01,-0.49,
0.539,0.15,0.11,0.94,1.39,-0.01,-0.49,
0.541,0.15,0.11,0.94,1.33,-0.10,-0.51,
0.541,0.15,0.10,0.93,1.33,-0.10,-0.51,
0.543,0.14,0.10,0.93,1.33,-0.10,-0.51,
0.545,0.14,0.10,0.93,1.33,-0.10,-0.51,
0.547,0.14,0.10,0.93,1.30,-0.14,-0.56,
0.548,0.14,0.09,0.93,1.30,-0.14,-0.56,
0.554,0.14,0.09,0.92,1.30,-0.14,-0.56,
0.554,0.14,0.09,0.92,1.19,-0.20,-0.58,
0.554,0.14,0.09,0.92,1.19,-0.20,-0.58,
0.556,0.14,0.09,0.92,1.16,-0.26,-0.62,
0.556,0.14,0.08,0.92,1.16,-0.26,-0.62,
0.558,0.14,0.08,0.91,1.16,-0.26,-0.62,
0.56,0.14,0.07,0.91,1.16,-0.26,-0.62,
0.561,0.14,0.07,0.91,1.20,-0.34,-0.69,
0.563,0.14,0.07,0.90,1.20,-0.34,-0.69,
0.565,0.14,0.07,0.90,1.20,-0.34,-0.69,
0.566,0.14,0.07,0.90,1.19,-0.43,-0.77,
0.568,0.14,0.06,0.89,1.19,-0.43,-0.77,
0.57,0.14,0.06,0.88,1.19,-0.43,-0.77,
0.57,0.14,0.06,0.88,1.19,-0.49,-0.87,
0.573,0.14,0.06,0.87,1.19,-0.49,-0.87,
0.575,0.14,0.06,0.87,1.19,-0.49,-0.87,
0.576,0.14,0.06,0.87,1.17,-0.57,-1.00,
0.578,0.14,0.05,0.86,1.17,-0.57,-1.00,
0.58,0.14,0.05,0.85,1.17,-0.57,-1.00,
0.582,0.14,0.05,0.85,1.17,-0.65,-1.15,
0.583,0.14,0.05,0.83,1.17,-0.65,-1.15,
0.585,0.14,0.05,0.83,1.17,-0.65,-1.15,
0.586,0.14,0.05,0.83,1.15,-0.70,-1.29,
0.588,0.13,0.05,0.82,1.15,-0.70,-1.29,
0.592,0.13,0.05,0.81,1.15,-0.70,-1.29,
0.592,0.13,0.05,0.81,1.16,-0.75,-1.52,
0.592,0.13,0.05,0.80,1.16,-0.75,-1.52,
0.595,0.13,0.06,0.79,1.16,-0.75,-1.52,
0.595,0.13,0.06,0.79,1.10,-0.75,-1.65,
0.6,0.12,0.07,0.79,1.10,-0.75,-1.65,
0.6,0.12,0.07,0.78,1.10,-0.75,-1.65,
0.6,0.12,0.07,0.78,1.05,-0.68,-1.80,
0.603,0.11,0.08,0.77,1.05,-0.68,-1.80,
0.605,0.11,0.08,0.77,1.05,-0.68,-1.80,
0.606,0.11,0.08,0.77,0.99,-0.57,-1.97,
0.609,0.10,0.09,0.77,0.99,-0.57,-1.97,
0.61,0.10,0.10,0.76,0.99,-0.57,-1.97,
0.61,0.10,0.10,0.76,0.88,-0.46,-2.04,
0.616,0.09,0.11,0.76,0.88,-0.46,-2.04,
0.617,0.09,0.12,0.76,0.88,-0.46,-2.04,
0.617,0.09,0.12,0.76,0.78,-0.35,-2.08,
0.618,0.09,0.12,0.77,0.78,-0.35,-2.08,
0.62,0.08,0.13,0.76,0.78,-0.35,-2.08,
0.621,0.08,0.13,0.76,0.69,-0.16,-2.14,
0.622,0.08,0.13,0.76,0.69,-0.16,-2.14,
0.625,0.07,0.14,0.76,0.69,-0.16,-2.14,
0.625,0.07,0.14,0.76,0.60,-0.05,-2.10,
0.627,0.07,0.14,0.76,0.60,-0.05,-2.10,
0.63,0.06,0.14,0.77,0.60,-0.05,-2.10,
0.63,0.06,0.14,0.77,0.55,0.04,-2.10,
0.632,0.06,0.14,0.77,0.55,0.04,-2.10,
0.634,0.06,0.15,0.77,0.55,0.04,-2.10,
0.635,0.06,0.15,0.77,0.43,0.10,-2.07,
0.638,0.05,0.15,0.77,0.43,0.10,-2.07,
0.64,0.04,0.15,0.77,0.43,0.10,-2.07,
0.64,0.04,0.15,0.77,0.35,0.14,-2.03,
0.642,0.04,0.15,0.78,0.35,0.14,-2.03,
0.645,0.04,0.15,0.78,0.35,0.14,-2.03,
0.645,0.04,0.15,0.78,0.26,0.20,-1.98,
0.648,0.04,0.15,0.78,0.26,0.20,-1.98,
0.65,0.04,0.15,0.79,0.26,0.20,-1.98,
0.65,0.04,0.15,0.79,0.18,0.19,-1.90,
0.652,0.04,0.15,0.79,0.18,0.19,-1.90,
0.655,0.04,0.14,0.79,0.18,0.19,-1.90,
0.655,0.04,0.14,0.79,0.19,0.20,-1.87,
0.656,0.03,0.14,0.79,0.19,0.20,-1.87,
0.659,0.04,0.13,0.80,0.19,0.20,-1.87,
0.66,0.04,0.13,0.80,0.15,0.16,-1.77,
0.661,0.04,0.13,0.80,0.15,0.16,-1.77,
0.664,0.04,0.12,0.80,0.15,0.16,-1.77,
0.664,0.04,0.12,0.80,0.13,0.06,-1.73,
0.667,0.05,0.12,0.80,0.13,0.06,-1.73,
0.669,0.05,0.11,0.80,0.13,0.06,-1.73,
0.67,0.05,0.11,0.80,0.20,-0.03,-1.67,
0.671,0.05,0.11,0.81,0.20,-0.03,-1.67,
0.673,0.05,0.11,0.81,0.20,-0.03,-1.67,
0.674,0.05,0.11,0.81,0.22,-0.13,-1.66,
0.677,0.05,0.10,0.81,0.22,-0.13,-1.66,
0.679,0.05,0.10,0.81,0.26,-0.19,-1.58,
0.68,0.05,0.10,0.82,0.26,-0.19,-1.58,
0.681,0.05,0.10,0.82,0.26,-0.19,-1.58,
0.684,0.04,0.10,0.82,0.26,-0.19,-1.58,
0.684,0.04,0.10,0.82,0.25,-0.24,-1.53,
0.686,0.04,0.10,0.82,0.25,-0.24,-1.53,
0.688,0.03,0.10,0.82,0.25,-0.24,-1.53,
0.69,0.03,0.10,0.82,0.18,-0.27,-1.43,
0.691,0.03,0.10,0.82,0.18,-0.27,-1.43,
0.693,0.02,0.11,0.82,0.18,-0.27,-1.43,
0.693,0.02,0.11,0.82,0.08,-0.22,-1.45,
0.698,0.02,0.11,0.83,0.08,-0.22,-1.45,
0.699,0.01,0.11,0.82,0.08,-0.22,-1.45,
0.699,0.01,0.11,0.82,-0.05,-0.15,-1.46,
0.701,0.01,0.11,0.82,-0.05,-0.15,-1.46,
0.703,0.01,0.12,0.82,-0.05,-0.15,-1.46,
0.703,0.01,0.12,0.82,-0.14,-0.10,-1.41,
0.707,0.00,0.12,0.83,-0.14,-0.10,-1.41,
0.708,0.00,0.13,0.82,-0.14,-0.10,-1.41,
0.709,0.00,0.13,0.82,-0.21,-0.04,-1.43,
0.711,-0.00,0.13,0.82,-0.21,-0.04,-1.43,
0.713,-0.00,0.13,0.82,-0.21,-0.04,-1.43,
0.714,-0.00,0.13,0.82,-0.28,0.05,-1.39,
0.716,-0.01,0.13,0.82,-0.28,0.05,-1.39,
0.718,-0.01,0.14,0.82,-0.28,0.05,-1.39,
0.719,-0.01,0.14,0.82,-0.33,0.10,-1.40,
0.721,-0.01,0.14,0.82,-0.33,0.10,-1.40,
0.724,-0.02,0.14,0.82,-0.33,0.10,-1.40,
0.724,-0.02,0.14,0.82,-0.40,0.15,-1.42,
0.726,-0.02,0.14,0.82,-0.40,0.15,-1.42,
0.738,-0.02,0.14,0.82,-0.40,0.15,-1.42,
0.739,-0.02,0.14,0.82,-0.48,0.18,-1.39,
0.739,-0.02,0.14,0.82,-0.48,0.18,-1.39,
0.739,-0.02,0.14,0.82,-0.48,0.18,-1.39,
0.739,-0.02,0.14,0.82,-0.55,0.19,-1.39,
0.74,-0.03,0.14,0.81,-0.55,0.19,-1.39,
0.74,-0.01,0.14,0.81,-0.55,0.19,-1.39,
0.74,-0.01,0.14,0.81,-0.59,0.24,-1.41,
0.741,-0.02,0.13,0.81,-0.59,0.24,-1.41,
0.743,-0.02,0.12,0.80,-0.59,0.24,-1.41,
0.743,-0.02,0.12,0.80,-0.57,0.20,-1.51,
0.751,-0.02,0.12,0.80,-0.57,0.20,-1.51,
0.752,-0.01,0.11,0.80,-0.57,0.20,-1.51,
0.752,-0.01,0.11,0.80,-0.58,0.08,-1.53,
0.753,-0.01,0.11,0.79,-0.58,0.08,-1.53,
0.753,-0.01,0.10,0.79,-0.58,0.08,-1.53,
0.753,-0.01,0.10,0.79,-0.58,-0.01,-1.57,
0.756,-0.01,0.10,0.79,-0.58,-0.01,-1.57,
0.758,-0.01,0.09,0.79,-0.58,-0.01,-1.57,
0.759,-0.01,0.09,0.79,-0.51,-0.13,-1.67,
0.761,-0.01,0.08,0.79,-0.51,-0.13,-1.67,
0.763,-0.01,0.07,0.79,-0.51,-0.13,-1.67,
0.764,-0.01,0.07,0.79,-0.51,-0.24,-1.66,
0.765,-0.00,0.07,0.79,-0.51,-0.24,-1.66,
0.768,-0.01,0.06,0.79,-0.51,-0.24,-1.66,
0.768,-0.01,0.06,0.79,-0.54,-0.36,-1.66,
0.77,-0.01,0.06,0.80,-0.54,-0.36,-1.66,
0.774,-0.01,0.06,0.81,-0.54,-0.36,-1.66,
0.774,-0.01,0.06,0.81,-0.53,-0.46,-1.65,
0.775,-0.02,0.06,0.81,-0.53,-0.46,-1.65,
0.778,-0.03,0.06,0.82,-0.53,-0.46,-1.65,
0.778,-0.03,0.06,0.82,-0.61,-0.51,-1.50,
0.781,-0.04,0.06,0.83,-0.61,-0.51,-1.50,
0.782,-0.04,0.06,0.83,-0.61,-0.51,-1.50,
0.783,-0.04,0.06,0.83,-0.75,-0.50,-1.39,
0.785,-0.05,0.06,0.83,-0.75,-0.50,-1.39,
0.787,-0.05,0.06,0.85,-0.75,-0.50,-1.39,
0.787,-0.05,0.06,0.85,-0.92,-0.49,-1.25,
0.79,-0.06,0.06,0.85,-0.92,-0.49,-1.25,
0.792,-0.06,0.07,0.86,-0.92,-0.49,-1.25,
0.792,-0.06,0.07,0.86,-1.04,-0.45,-1.14,
0.797,-0.07,0.07,0.87,-1.04,-0.45,-1.14,
0.797,-0.07,0.07,0.87,-1.04,-0.45,-1.14,
0.798,-0.07,0.07,0.87,-1.17,-0.39,-0.97,
0.8,-0.07,0.07,0.88,-1.17,-0.39,-0.97,
0.802,-0.08,0.07,0.88,-1.17,-0.39,-0.97,
0.802,-0.08,0.07,0.88,-1.25,-0.35,-0.84,
0.805,-0.08,0.08,0.89,-1.25,-0.35,-0.84,
0.808,-0.08,0.08,0.90,-1.25,-0.35,-0.84,
0.808,-0.08,0.08,0.90,-1.32,-0.32,-0.73,
0.81,-0.09,0.08,0.90,-1.32,-0.32,-0.73,
0.814,-0.10,0.08,0.91,-1.32,-0.32,-0.73,
0.814,-0.10,0.08,0.91,-1.41,-0.21,-0.63,
0.815,-0.10,0.09,0.91,-1.41,-0.21,-0.63,
0.817,-0.11,0.10,0.91,-1.41,-0.21,-0.63,
0.819,-0.11,0.10,0.91,-1.53,-0.14,-0.49,
0.82,-0.11,0.09,0.92,-1.53,-0.14,-0.49,
0.823,-0.12,0.09,0.92,-1.53,-0.14,-0.49,
0.823,-0.12,0.09,0.92,-1.65,-0.05,-0.42,
0.825,-0.11,0.09,0.92,-1.65,-0.05,-0.42,
0.828,-0.12,0.09,0.91,-1.65,-0.05,-0.42,
0.828,-0.12,0.09,0.91,-1.75,-0.02,-0.38,
0.834,-0.12,0.08,0.92,-1.75,-0.02,-0.38,
0.835,-0.12,0.08,0.92,-1.75,-0.02,-0.38,
0.835,-0.12,0.08,0.92,-1.75,-0.06,-0.39,
0.836,-0.11,0.07,0.91,-1.75,-0.06,-0.39,
0.837,-0.11,0.07,0.91,-1.75,-0.06,-0.39,
0.837,-0.11,0.07,0.91,-1.76,-0.11,-0.40,
0.84,-0.11,0.05,0.90,-1.76,-0.11,-0.40,
0.842,-0.11,0.05,0.90,-1.76,-0.11,-0.40,
0.843,-0.11,0.05,0.90,-1.73,-0.21,-0.47,
0.845,-0.11,0.03,0.90,-1.73,-0.21,-0.47,
0.847,-0.11,0.03,0.90,-1.73,-0.21,-0.47,
0.848,-0.11,0.03,0.90,-1.69,-0.38,-0.54,
0.85,-0.11,0.02,0.89,-1.69,-0.38,-0.54,
0.853,-0.11,0.02,0.89,-1.68,-0.52,-0.58,
0.853,-0.11,0.00,0.89,-1.68,-0.52,-0.58,
0.855,-0.11,-0.01,0.89,-1.68,-0.52,-0.58,
0.857,-0.11,-0.01,0.89,-1.68,-0.52,-0.58,
0.857,-0.11,-0.01,0.89,-1.68,-0.68,-0.66,
0.859,-0.11,-0.02,0.89,-1.68,-0.68,-0.66,
0.863,-0.12,-0.03,0.89,-1.68,-0.68,-0.66,
0.863,-0.12,-0.03,0.89,-1.71,-0.86,-0.66,
0.865,-0.13,-0.04,0.89,-1.71,-0.86,-0.66,
0.867,-0.13,-0.05,0.89,-1.71,-0.86,-0.66,
0.868,-0.13,-0.05,0.89,-1.77,-0.99,-0.67,
0.87,-0.13,-0.05,0.89,-1.77,-0.99,-0.67,
0.872,-0.14,-0.05,0.90,-1.77,-0.99,-0.67,
0.872,-0.14,-0.05,0.90,-1.86,-1.10,-0.66,
0.875,-0.15,-0.06,0.91,-1.86,-1.10,-0.66,
0.877,-0.16,-0.06,0.91,-1.86,-1.10,-0.66,
0.878,-0.16,-0.06,0.91,-2.00,-1.14,-0.57,
0.88,-0.17,-0.07,0.91,-2.00,-1.14,-0.57,
0.882,-0.17,-0.07,0.91,-2.00,-1.14,-0.57,
0.882,-0.17,-0.07,0.91,-2.16,-1.19,-0.49,
0.885,-0.18,-0.08,0.92,-2.16,-1.19,-0.49,
0.887,-0.18,-0.08,0.91,-2.16,-1.19,-0.49,
0.887,-0.18,-0.08,0.91,-2.33,-1.23,-0.45,
0.89,-0.19,-0.09,0.91,-2.33,-1.23,-0.45,
0.892,-0.19,-0.10,0.92,-2.33,-1.23,-0.45,
0.892,-0.19,-0.10,0.92,-2.38,-1.28,-0.41,
0.894,-0.19,-0.10,0.92,-2.38,-1.28,-0.41,
0.897,-0.20,-0.10,0.92,-2.38,-1.28,-0.41,
0.898,-0.20,-0.10,0.92,-2.47,-1.35,-0.39,
0.899,-0.20,-0.10,0.93,-2.47,-1.35,-0.39,
0.901,-0.21,-0.10,0.93,-2.47,-1.35,-0.39,
0.902,-0.21,-0.10,0.93,-2.55,-1.38,-0.36,
0.905,-0.21,-0.10,0.93,-2.55,-1.38,-0.36,
0.907,-0.21,-0.10,0.93,-2.55,-1.38,-0.36,
0.907,-0.21,-0.10,0.93,-2.64,-1.35,-0.28,
0.909,-0.21,-0.10,0.93,-2.64,-1.35,-0.28,
0.912,-0.21,-0.10,0.94,-2.64,-1.35,-0.28,
0.912,-0.21,-0.10,0.94,-2.72,-1.28,-0.24,
0.915,-0.21,-0.09,0.94,-2.72,-1.28,-0.24,
0.917,-0.21,-0.09,0.94,-2.72,-1.28,-0.24,
0.917,-0.21,-0.09,0.94,-2.72,-1.22,-0.19,
0.92,-0.21,-0.09,0.95,-2.72,-1.22,-0.19,
0.922,-0.21,-0.10,0.95,-2.72,-1.22,-0.19,
0.923,-0.21,-0.10,0.95,-2.69,-1.16,-0.16,
0.925,-0.20,-0.10,0.96,-2.69,-1.16,-0.16,
0.927,-0.20,-0.10,0.96,-2.72,-1.12,-0.07,
0.927,-0.20,-0.10,0.96,-2.72,-1.12,-0.07,
0.931,-0.19,-0.11,0.97,-2.72,-1.12,-0.07,
0.932,-0.18,-0.11,0.98,-2.72,-1.12,-0.07,
0.932,-0.18,-0.11,0.98,-2.65,-1.13,0.06,
0.934,-0.17,-0.12,0.99,-2.65,-1.13,0.06,
0.937,-0.16,-0.12,1.00,-2.65,-1.13,0.06,
0.937,-0.16,-0.12,1.00,-2.51,-1.17,0.20,
0.94,-0.15,-0.13,1.00,-2.51,-1.17,0.20,
0.942,-0.14,-0.14,1.00,-2.51,-1.17,0.20,
0.942,-0.14,-0.14,1.00,-2.33,-1.21,0.34,
0.944,-0.13,-0.15,1.01,-2.33,-1.21,0.34,
0.952,-0.12,-0.15,1.02,-2.33,-1.21,0.34,
0.953,-0.12,-0.15,1.02,-2.14,-1.32,0.45,
0.953,-0.11,-0.16,1.02,-2.14,-1.32,0.45,
0.953,-0.11,-0.16,1.02,-2.14,-1.32,0.45,
0.953,-0.11,-0.16,1.02,-1.99,-1.40,0.56,
0.954,-0.10,-0.16,1.03,-1.99,-1.40,0.56,
0.956,-0.10,-0.17,1.03,-1.99,-1.40,0.56,
0.956,-0.10,-0.17,1.03,-1.86,-1.45,0.66,
0.959,-0.10,-0.17,1.04,-1.86,-1.45,0.66,
0.961,-0.10,-0.17,1.04,-1.86,-1.45,0.66,
0.962,-0.10,-0.17,1.04,-1.80,-1.48,0.73,
0.965,-0.10,-0.17,1.05,-1.80,-1.48,0.73,
0.966,-0.10,-0.17,1.05,-1.80,-1.48,0.73,
0.966,-0.10,-0.17,1.05,-1.82,-1.48,0.84,
0.969,-0.11,-0.17,1.05,-1.82,-1.48,0.84,
0.972,-0.11,-0.17,1.06,-1.82,-1.48,0.84,
0.972,-0.11,-0.17,1.06,-1.86,-1.42,0.94,
0.974,-0.11,-0.17,1.05,-1.86,-1.42,0.94,
0.977,-0.11,-0.17,1.05,-1.93,-1.35,0.97,
0.977,-0.12,-0.16,1.06,-1.93,-1.35,0.97,
0.979,-0.12,-0.16,1.06,-1.93,-1.35,0.97,
0.982,-0.12,-0.16,1.06,-1.93,-1.35,0.97,
0.982,-0.12,-0.16,1.06,-2.01,-1.25,0.95,
0.986,-0.12,-0.16,1.07,-2.01,-1.25,0.95,
0.986,-0.12,-0.16,1.07,-2.01,-1.25,0.95,
0.986,-0.12,-0.16,1.07,-2.05,-1.14,1.04,
0.989,-0.12,-0.15,1.08,-2.05,-1.14,1.04,
0.991,-0.12,-0.16,1.08,-2.05,-1.14,1.04,
0.992,-0.12,-0.16,1.08,-2.08,-1.10,1.10,
0.993,-0.13,-0.16,1.08,-2.08,-1.10,1.10,
0.998,-0.15,-0.16,1.07,-2.08,-1.10,1.10,
0.998,-0.15,-0.16,1.07,-2.10,-1.05,1.20,
0.999,-0.16,-0.16,1.07,-2.10,-1.05,1.20,
1.001,-0.17,-0.17,1.08,-2.10,-1.05,1.20,
1.002,-0.17,-0.17,1.08,-2.26,-1.03,1.15,
1.003,-0.18,-0.17,1.08,-2.26,-1.03,1.15,
1.005,-0.18,-0.18,1.08,-2.26,-1.03,1.15,
1.006,-0.18,-0.18,1.08,-2.50,-1.04,1.17,
1.008,-0.18,-0.18,1.07,-2.50,-1.04,1.17,
1.01,-0.19,-0.19,1.08,-2.50,-1.04,1.17,
1.011,-0.19,-0.19,1.08,-2.61,-1.09,1.19,
1.014,-0.19,-0.20,1.07,-2.61,-1.09,1.19,
1.015,-0.20,-0.20,1.07,-2.61,-1.09,1.19,
1.016,-0.20,-0.20,1.07,-2.67,-1.14,1.16,
1.018,-0.20,-0.21,1.07,-2.67,-1.14,1.16,
1.02,-0.21,-0.22,1.06,-2.67,-1.14,1.16,
1.02,-0.21,-0.22,1.06,-2.75,-1.26,1.14,
1.022,-0.20,-0.23,1.05,-2.75,-1.26,1.14,
1.025,-0.20,-0.23,1.05,-2.83,-1.38,1.04,
1.026,-0.21,-0.23,1.06,-2.83,-1.38,1.04,
1.028,-0.21,-0.24,1.06,-2.83,-1.38,1.04,
1.031,-0.21,-0.25,1.07,-2.83,-1.38,1.04,
1.032,-0.21,-0.25,1.07,-2.84,-1.50,0.99,
1.032,-0.21,-0.25,1.07,-2.84,-1.50,0.99,
1.036,-0.21,-0.25,1.06,-2.84,-1.50,0.99,
1.036,-0.21,-0.25,1.06,-2.91,-1.59,1.06,
1.038,-0.21,-0.25,1.07,-2.91,-1.59,1.06,
1.04,-0.21,-0.26,1.08,-2.91,-1.59,1.06,
1.041,-0.21,-0.26,1.08,-2.89,-1.61,1.07,
1.042,-0.21,-0.25,1.09,-2.89,-1.61,1.07,
1.045,-0.21,-0.25,1.09,-2.89,-1.61,1.07,
1.046,-0.21,-0.25,1.09,-2.89,-1.63,1.13,
1.05,-0.21,-0.25,1.11,-2.89,-1.63,1.13,
1.051,-0.21,-0.25,1.11,-2.93,-1.59,1.30,
1.052,-0.21,-0.25,1.12,-2.93,-1.59,1.30,
1.053,-0.21,-0.25,1.14,-2.93,-1.59,1.30,
1.055,-0.20,-0.25,1.15,-2.93,-1.59,1.30,
1.055,-0.20,-0.25,1.15,-2.96,-1.54,1.53,
1.057,-0.19,-0.25,1.15,-2.96,-1.54,1.53,
1.06,-0.18,-0.26,1.15,-2.96,-1.54,1.53,
1.06,-0.18,-0.26,1.15,-2.90,-1.49,1.82,
1.07,-0.16,-0.26,1.15,-2.90,-1.49,1.82,
1.071,-0.15,-0.26,1.15,-2.90,-1.49,1.82,
1.071,-0.15,-0.26,1.15,-2.69,-1.53,1.89,
1.072,-0.14,-0.26,1.15,-2.69,-1.53,1.89,
1.072,-0.13,-0.25,1.16,-2.69,-1.53,1.89,
1.073,-0.13,-0.25,1.16,-2.43,-1.53,1.91,
1.074,-0.13,-0.24,1.17,-2.43,-1.53,1.91,
1.074,-0.13,-0.23,1.18,-2.43,-1.53,1.91,
1.075,-0.13,-0.23,1.18,-2.27,-1.45,1.96,
1.077,-0.13,-0.23,1.19,-2.27,-1.45,1.96,
1.083,-0.13,-0.22,1.20,-2.27,-1.45,1.96,
1.084,-0.13,-0.22,1.20,-2.25,-1.27,2.14,
1.084,-0.13,-0.21,1.21,-2.25,-1.27,2.14,
1.085,-0.14,-0.21,1.22,-2.25,-1.27,2.14,
1.085,-0.14,-0.21,1.22,-2.28,-1.10,2.34,
1.087,-0.14,-0.21,1.22,-2.28,-1.10,2.34,
1.089,-0.14,-0.21,1.22,-2.28,-1.10,2.34,
1.089,-0.14,-0.21,1.22,-2.34,-0.91,2.50,
1.092,-0.14,-0.21,1.22,-2.34,-0.91,2.50,
1.094,-0.14,-0.22,1.22,-2.34,-0.91,2.50,
1.094,-0.14,-0.22,1.22,-2.36,-0.88,2.54,
1.1,-0.14,-0.23,1.22,-2.36,-0.88,2.54,
1.101,-0.13,-0.24,1.23,-2.36,-0.88,2.54,
1.101,-0.13,-0.24,1.23,-2.36,-0.90,2.54,
1.102,-0.13,-0.25,1.23,-2.36,-0.90,2.54,
1.105,-0.14,-0.26,1.23,-2.36,-0.90,2.54,
1.106,-0.14,-0.26,1.23,-2.32,-1.05,2.62,
1.107,-0.14,-0.26,1.22,-2.32,-1.05,2.62,
1.109,-0.14,-0.27,1.22,-2.32,-1.05,2.62,
1.11,-0.14,-0.27,1.22,-2.31,-1.22,2.63,
1.112,-0.15,-0.28,1.23,-2.31,-1.22,2.63,
1.114,-0.16,-0.28,1.22,-2.31,-1.22,2.63,
1.115,-0.16,-0.28,1.22,-2.35,-1.28,2.58,
1.116,-0.17,-0.29,1.22,-2.35,-1.28,2.58,
1.119,-0.17,-0.29,1.21,-2.35,-1.28,2.58,
1.119,-0.17,-0.29,1.21,-2.45,-1.39,2.60,
1.122,-0.18,-0.30,1.21,-2.45,-1.39,2.60,
1.124,-0.19,-0.30,1.21,-2.45,-1.39,2.60,
1.124,-0.19,-0.30,1.21,-2.61,-1.43,2.50,
1.126,-0.19,-0.30,1.20,-2.61,-1.43,2.50,
1.13,-0.19,-0.31,1.20,-2.61,-1.43,2.50,
1.13,-0.19,-0.31,1.20,-2.74,-1.49,2.43,
1.132,-0.19,-0.31,1.19,-2.74,-1.49,2.43,
1.134,-0.18,-0.32,1.19,-2.74,-1.49,2.43,
1.134,-0.18,-0.32,1.19,-2.79,-1.55,2.34,
1.136,-0.17,-0.32,1.19,-2.79,-1.55,2.34,
1.139,-0.18,-0.31,1.19,-2.79,-1.55,2.34,
1.139,-0.18,-0.31,1.19,-2.69,-1.60,2.25,
1.141,-0.17,-0.31,1.19,-2.69,-1.60,2.25,
1.144,-0.17,-0.31,1.19,-2.69,-1.60,2.25,
1.144,-0.17,-0.31,1.19,-2.62,-1.58,2.25,
1.149,-0.16,-0.30,1.20,-2.62,-1.58,2.25,
1.155,-0.16,-0.29,1.20,-2.62,-1.58,2.25,
1.156,-0.16,-0.29,1.20,-2.57,-1.47,2.29,
1.156,-0.15,-0.28,1.20,-2.57,-1.47,2.29,
1.156,-0.15,-0.28,1.19,-2.57,-1.47,2.29,
1.157,-0.15,-0.28,1.19,-2.50,-1.31,2.30,
1.157,-0.13,-0.27,1.20,-2.50,-1.31,2.30,
1.16,-0.12,-0.27,1.20,-2.50,-1.31,2.30,
1.16,-0.12,-0.27,1.20,-2.38,-1.18,2.29,
1.161,-0.11,-0.27,1.20,-2.38,-1.18,2.29,
1.17,-0.10,-0.26,1.20,-2.38,-1.18,2.29,
1.17,-0.10,-0.26,1.20,-2.20,-1.07,2.32,
1.172,-0.09,-0.26,1.20,-2.20,-1.07,2.32,
1.172,-0.09,-0.26,1.20,-2.02,-1.00,2.31,
1.172,-0.08,-0.26,1.21,-2.02,-1.00,2.31,
1.173,-0.07,-0.26,1.21,-2.02,-1.00,2.31,
1.174,-0.06,-0.25,1.21,-2.02,-1.00,2.31,
1.174,-0.06,-0.25,1.21,-1.83,-0.93,2.35,
1.176,-0.04,-0.26,1.21,-1.83,-0.93,2.35,
1.179,-0.04,-0.26,1.21,-1.83,-0.93,2.35,
1.179,-0.04,-0.26,1.21,-1.62,-0.86,2.41,
1.181,-0.03,-0.25,1.22,-1.62,-0.86,2.41,
1.184,-0.02,-0.25,1.22,-1.62,-0.86,2.41,
1.185,-0.02,-0.25,1.22,-1.40,-0.89,2.39,
1.186,-0.01,-0.25,1.22,-1.40,-0.89,2.39,
1.189,-0.01,-0.25,1.22,-1.40,-0.89,2.39,
1.189,-0.01,-0.25,1.22,-1.25,-0.80,2.48,
1.191,-0.00,-0.24,1.21,-1.25,-0.80,2.48,
1.194,0.00,-0.24,1.22,-1.25,-0.80,2.48,
1.194,0.00,-0.24,1.22,-1.10,-0.75,2.51,
1.198,0.01,-0.24,1.22,-1.10,-0.75,2.51,
1.199,0.02,-0.24,1.22,-1.10,-0.75,2.51,
1.199,0.02,-0.24,1.22,-1.01,-0.67,2.46,
1.201,0.02,-0.24,1.22,-1.01,-0.67,2.46,
1.204,0.02,-0.24,1.22,-0.89,-0.60,2.48,
1.204,0.02,-0.23,1.21,-0.89,-0.60,2.48,
1.206,0.02,-0.23,1.21,-0.89,-0.60,2.48,
1.209,0.02,-0.23,1.21,-0.89,-0.60,2.48,
1.209,0.02,-0.23,1.21,-0.84,-0.54,2.45,
1.211,0.02,-0.24,1.20,-0.84,-0.54,2.45,
1.215,0.01,-0.24,1.20,-0.84,-0.54,2.45,
1.215,0.01,-0.24,1.20,-0.82,-0.50,2.39,
1.216,0.01,-0.24,1.19,-0.82,-0.50,2.39,
1.218,-0.00,-0.25,1.19,-0.82,-0.50,2.39,
1.218,-0.00,-0.25,1.19,-0.85,-0.56,2.31,
1.221,-0.01,-0.26,1.18,-0.85,-0.56,2.31,
1.224,-0.01,-0.27,1.18,-0.85,-0.56,2.31,
1.224,-0.01,-0.27,1.18,-0.97,-0.64,2.22,
1.226,-0.02,-0.28,1.18,-0.97,-0.64,2.22,
1.229,-0.03,-0.28,1.18,-0.97,-0.64,2.22,
1.229,-0.03,-0.28,1.18,-1.06,-0.75,2.14,
1.232,-0.04,-0.29,1.17,-1.06,-0.75,2.14,
1.234,-0.04,-0.30,1.16,-1.06,-0.75,2.14,
1.234,-0.04,-0.30,1.16,-1.17,-0.91,2.10,
1.236,-0.05,-0.31,1.16,-1.17,-0.91,2.10,
1.239,-0.06,-0.32,1.15,-1.17,-0.91,2.10,
1.239,-0.06,-0.32,1.15,-1.33,-1.05,1.96,
1.241,-0.07,-0.33,1.15,-1.33,-1.05,1.96,
1.243,-0.08,-0.34,1.14,-1.33,-1.05,1.96,
1.244,-0.08,-0.34,1.14,-1.48,-1.23,1.86,
1.246,-0.08,-0.35,1.13,-1.48,-1.23,1.86,
1.249,-0.09,-0.36,1.12,-1.48,-1.23,1.86,
1.25,-0.09,-0.36,1.12,-1.61,-1.41,1.72,
1.25,-0.09,-0.36,1.11,-1.61,-1.41,1.72,
1.254,-0.10,-0.37,1.11,-1.61,-1.41,1.72,
1.254,-0.10,-0.37,1.11,-1.69,-1.58,1.54,
1.256,-0.10,-0.37,1.10,-1.69,-1.58,1.54,
1.258,-0.10,-0.37,1.09,-1.69,-1.58,1.54,
1.259,-0.10,-0.37,1.09,-1.78,-1.71,1.39,
1.261,-0.10,-0.38,1.08,-1.78,-1.71,1.39,
1.263,-0.11,-0.38,1.07,-1.78,-1.71,1.39,
1.263,-0.11,-0.38,1.07,-1.78,-1.75,1.21,
1.266,-0.11,-0.38,1.08,-1.78,-1.75,1.21,
1.268,-0.11,-0.38,1.07,-1.78,-1.75,1.21,
1.268,-0.11,-0.38,1.07,-1.79,-1.80,1.06,
1.271,-0.11,-0.37,1.06,-1.79,-1.80,1.06,
1.273,-0.10,-0.37,1.06,-1.79,-1.80,1.06,
1.273,-0.10,-0.37,1.06,-1.79,-1.79,1.01,
1.276,-0.10,-0.37,1.06,-1.79,-1.79,1.01,
1.278,-0.09,-0.36,1.05,-1.79,-1.79,1.01,
1.278,-0.09,-0.36,1.05,-1.74,-1.73,0.90,
1.28,-0.09,-0.36,1.05,-1.74,-1.73,0.90,
1.286,-0.08,-0.35,1.05,-1.74,-1.73,0.90,
1.287,-0.08,-0.35,1.05,-1.61,-1.61,0.84,
1.287,-0.08,-0.35,1.05,-1.61,-1.61,0.84,
1.287,-0.07,-0.33,1.05,-1.61,-1.61,0.84,
1.287,-0.07,-0.33,1.05,-1.49,-1.51,0.77,
1.29,-0.06,-0.33,1.05,-1.49,-1.51,0.77,
1.292,-0.05,-0.33,1.05,-1.49,-1.51,0.77,
1.293,-0.05,-0.33,1.05,-1.34,-1.36,0.76,
1.295,-0.04,-0.32,1.06,-1.34,-1.36,0.76,
1.298,-0.04,-0.32,1.06,-1.14,-1.23,0.79,
1.299,-0.02,-0.31,1.06,-1.14,-1.23,0.79,
1.3,-0.01,-0.31,1.07,-1.14,-1.23,0.79,
1.302,0.01,-0.30,1.07,-1.14,-1.23,0.79,
1.302,0.01,-0.30,1.07,-0.87,-1.08,0.85,
1.305,0.02,-0.29,1.08,-0.87,-1.08,0.85,
1.307,0.03,-0.29,1.09,-0.87,-1.08,0.85,
1.307,0.03,-0.29,1.09,-0.58,-0.94,0.96,
1.31,0.05,-0.28,1.09,-0.58,-0.94,0.96,
1.312,0.07,-0.28,1.10,-0.58,-0.94,0.96,
1.314,0.07,-0.28,1.10,-0.28,-0.79,1.11,
1.314,0.08,-0.27,1.11,-0.28,-0.79,1.11,
1.317,0.09,-0.26,1.11,-0.28,-0.79,1.11,
1.318,0.09,-0.26,1.11,0.05,-0.66,1.20,
1.319,0.11,-0.26,1.12,0.05,-0.66,1.20,
1.322,0.11,-0.26,1.12,0.33,-0.56,1.33,
1.322,0.11,-0.25,1.13,0.33,-0.56,1.33,
1.325,0.12,-0.24,1.13,0.33,-0.56,1.33,
1.327,0.13,-0.24,1.13,0.33,-0.56,1.33,
1.327,0.13,-0.24,1.13,0.56,-0.42,1.50,
1.329,0.14,-0.23,1.13,0.56,-0.42,1.50,
1.332,0.15,-0.22,1.13,0.56,-0.42,1.50,
1.332,0.15,-0.22,1.13,0.76,-0.25,1.57,
1.334,0.15,-0.21,1.14,0.76,-0.25,1.57,
1.337,0.16,-0.20,1.14,0.76,-0.25,1.57,
1.337,0.16,-0.20,1.14,0.88,-0.09,1.59,
1.339,0.16,-0.20,1.15,0.88,-0.09,1.59,
1.342,0.17,-0.19,1.15,0.88,-0.09,1.59,
1.342,0.17,-0.19,1.15,1.02,0.09,1.65,
1.344,0.17,-0.19,1.14,1.02,0.09,1.65,
1.35,0.17,-0.19,1.14,1.13,0.21,1.74,
1.35,0.17,-0.18,1.14,1.13,0.21,1.74,
1.351,0.17,-0.18,1.15,1.13,0.21,1.74,
1.352,0.17,-0.18,1.14,1.13,0.21,1.74,
1.352,0.17,-0.18,1.14,1.20,0.32,1.66,
1.355,0.17,-0.18,1.13,1.20,0.32,1.66,
1.357,0.17,-0.18,1.13,1.23,0.38,1.67,
1.357,0.17,-0.18,1.13,1.23,0.38,1.67,
1.36,0.17,-0.18,1.12,1.23,0.38,1.67,
1.362,0.18,-0.18,1.12,1.23,0.38,1.67,
1.362,0.18,-0.18,1.12,1.26,0.41,1.55,
1.365,0.18,-0.18,1.12,1.26,0.41,1.55,
1.368,0.18,-0.19,1.12,1.26,0.41,1.55,
1.368,0.18,-0.19,1.12,1.28,0.38,1.46,
1.37,0.17,-0.19,1.11,1.28,0.38,1.46,
1.372,0.17,-0.20,1.11,1.28,0.38,1.46,
1.372,0.17,-0.20,1.11,1.31,0.32,1.39,
1.374,0.16,-0.20,1.12,1.31,0.32,1.39,
1.377,0.16,-0.20,1.13,1.31,0.32,1.39,
1.377,0.16,-0.20,1.13,1.28,0.23,1.34,
1.379,0.16,-0.20,1.13,1.28,0.23,1.34,
1.391,0.15,-0.20,1.14,1.28,0.23,1.34,
1.392,0.15,-0.20,1.14,1.18,0.20,1.46,
1.393,0.14,-0.19,1.15,1.18,0.20,1.46,
1.394,0.14,-0.19,1.16,1.18,0.20,1.46,
1.394,0.14,-0.19,1.16,1.10,0.21,1.56,
1.395,0.13,-0.19,1.16,1.10,0.21,1.56,
1.396,0.13,-0.19,1.17,1.10,0.21,1.56,
1.396,0.13,-0.19,1.17,0.99,0.27,1.72,
1.397,0.12,-0.19,1.17,0.99,0.27,1.72,
1.397,0.12,-0.19,1.17,0.87,0.30,1.83,
1.398,0.12,-0.19,1.18,0.87,0.30,1.83,
1.412,0.12,-0.19,1.17,0.87,0.30,1.83,
1.414,0.13,-0.19,1.17,0.87,0.30,1.83,
1.414,0.13,-0.19,1.17,0.81,0.28,1.94,
1.415,0.13,-0.20,1.17,0.81,0.28,1.94,
1.415,0.14,-0.21,1.16,0.81,0.28,1.94,
1.416,0.14,-0.21,1.16,0.82,0.24,1.86,
1.416,0.14,-0.21,1.16,0.82,0.24,1.86,
1.417,0.15,-0.21,1.15,0.82,0.24,1.86,
1.417,0.15,-0.21,1.15,0.90,0.12,1.83,
1.418,0.15,-0.22,1.15,0.90,0.12,1.83,
1.419,0.15,-0.22,1.14,0.90,0.12,1.83,
1.419,0.15,-0.22,1.14,0.99,0.03,1.71,
1.419,0.15,-0.22,1.13,0.99,0.03,1.71,
1.421,0.15,-0.23,1.13,0.99,0.03,1.71,
1.422,0.15,-0.23,1.13,1.07,-0.07,1.61,
1.423,0.14,-0.23,1.12,1.07,-0.07,1.61,
1.426,0.14,-0.24,1.12,1.07,-0.07,1.61,
1.426,0.14,-0.24,1.12,1.06,-0.17,1.47,
1.428,0.14,-0.25,1.11,1.06,-0.17,1.47,
1.433,0.14,-0.25,1.11,1.06,-0.17,1.47,
1.434,0.14,-0.25,1.11,0.99,-0.30,1.38,
1.434,0.14,-0.25,1.10,0.99,-0.30,1.38,
1.436,0.14,-0.25,1.09,0.99,-0.30,1.38,
1.436,0.14,-0.25,1.09,0.95,-0.39,1.23,
1.438,0.14,-0.26,1.09,0.95,-0.39,1.23,
1.441,0.15,-0.26,1.08,0.95,-0.39,1.23,
1.441,0.15,-0.26,1.08,1.02,-0.46,1.08,
1.443,0.14,-0.26,1.08,1.02,-0.46,1.08,
1.446,0.14,-0.26,1.08,1.04,-0.54,0.98,
1.446,0.14,-0.26,1.07,1.04,-0.54,0.98,
1.449,0.15,-0.26,1.07,1.04,-0.54,0.98,
1.451,0.15,-0.26,1.06,1.04,-0.54,0.98,
1.451,0.15,-0.26,1.06,1.02,-0.61,0.87,
1.453,0.14,-0.26,1.06,1.02,-0.61,0.87,
1.456,0.14,-0.25,1.06,1.02,-0.61,0.87,
1.457,0.14,-0.25,1.06,1.05,-0.58,0.79,
1.458,0.14,-0.26,1.05,1.05,-0.58,0.79,
1.461,0.14,-0.26,1.05,1.05,-0.58,0.79,
1.461,0.14,-0.26,1.05,0.99,-0.56,0.71,
1.463,0.14,-0.25,1.04,0.99,-0.56,0.71,
1.466,0.15,-0.25,1.04,0.99,-0.56,0.71,
1.467,0.15,-0.25,1.04,1.00,-0.59,0.65,
1.468,0.15,-0.25,1.04,1.00,-0.59,0.65,
1.471,0.15,-0.25,1.03,1.00,-0.59,0.65,
1.471,0.15,-0.25,1.03,1.03,-0.58,0.53,
1.473,0.15,-0.25,1.03,1.03,-0.58,0.53,
1.476,0.15,-0.24,1.03,1.03,-0.58,0.53,
1.477,0.15,-0.24,1.03,1.08,-0.57,0.44,
1.484,0.15,-0.24,1.02,1.08,-0.57,0.44,
1.486,0.15,-0.24,1.03,1.08,-0.57,0.44,
1.487,0.15,-0.24,1.03,1.07,-0.55,0.43,
1.487,0.15,-0.24,1.02,1.07,-0.55,0.43,
1.488,0.15,-0.24,1.02,1.07,-0.52,0.39,
1.489,0.15,-0.24,1.02,1.07,-0.52,0.39,
1.489,0.15,-0.23,1.02,1.07,-0.52,0.39,
1.5,0.15,-0.23,1.02,1.07,-0.52,0.39,
1.501,0.15,-0.23,1.02,1.06,-0.50,0.32,
1.501,0.16,-0.23,1.03,1.06,-0.50,0.32,
1.502,0.16,-0.23,1.03,1.09,-0.46,0.34,
1.502,0.16,-0.23,1.03,1.09,-0.46,0.34,
1.503,0.16,-0.23,1.04,1.09,-0.46,0.34,
1.503,0.16,-0.23,1.04,1.09,-0.46,0.34,
1.503,0.16,-0.23,1.04,1.15,-0.40,0.38,
1.504,0.16,-0.23,1.05,1.15,-0.40,0.38,
1.506,0.17,-0.24,1.06,1.15,-0.40,0.38,
1.506,0.17,-0.24,1.06,1.15,-0.43,0.51,
1.508,0.17,-0.24,1.07,1.15,-0.43,0.51,
1.511,0.17,-0.24,1.07,1.15,-0.43,0.51,
1.512,0.17,-0.24,1.07,1.22,-0.47,0.62,
1.514,0.18,-0.24,1.07,1.22,-0.47,0.62,
1.516,0.18,-0.24,1.09,1.22,-0.47,0.62,
1.517,0.18,-0.24,1.09,1.27,-0.53,0.77,
1.518,0.18,-0.25,1.09,1.27,-0.53,0.77,
1.521,0.18,-0.25,1.09,1.34,-0.57,0.88,
1.521,0.19,-0.25,1.10,1.34,-0.57,0.88,
1.523,0.19,-0.25,1.11,1.34,-0.57,0.88,
1.526,0.20,-0.25,1.12,1.34,-0.57,0.88,
1.526,0.20,-0.25,1.12,1.41,-0.62,1.07,
1.528,0.21,-0.26,1.13,1.41,-0.62,1.07,
1.53,0.20,-0.26,1.13,1.41,-0.62,1.07,
1.53,0.20,-0.26,1.13,1.47,-0.62,1.20,
1.533,0.21,-0.26,1.13,1.47,-0.62,1.20,
1.535,0.22,-0.26,1.13,1.47,-0.62,1.20,
1.535,0.22,-0.26,1.13,1.58,-0.74,1.33,
1.538,0.22,-0.27,1.13,1.58,-0.74,1.33,
1.541,0.23,-0.27,1.14,1.58,-0.74,1.33,
1.541,0.23,-0.27,1.14,1.68,-0.77,1.36,
1.543,0.23,-0.27,1.14,1.68,-0.77,1.36,
1.545,0.23,-0.27,1.14,1.68,-0.77,1.36,
1.546,0.23,-0.27,1.14,1.75,-0.81,1.40,
1.548,0.23,-0.27,1.14,1.75,-0.81,1.40,
1.551,0.23,-0.27,1.14,1.75,-0.81,1.40,
1.551,0.23,-0.27,1.14,1.78,-0.86,1.44,
1.553,0.24,-0.26,1.14,1.78,-0.86,1.44,
1.556,0.24,-0.26,1.14,1.78,-0.86,1.44,
1.556,0.24,-0.26,1.14,1.80,-0.86,1.44,
1.558,0.24,-0.26,1.14,1.80,-0.86,1.44,
1.56,0.24,-0.25,1.14,1.80,-0.86,1.44,
1.56,0.24,-0.25,1.14,1.82,-0.76,1.42,
1.563,0.25,-0.24,1.14,1.82,-0.76,1.42,
1.567,0.25,-0.25,1.13,1.82,-0.76,1.42,
1.567,0.25,-0.25,1.13,1.86,-0.71,1.40,
1.568,0.26,-0.24,1.13,1.86,-0.71,1.40,
1.571,0.26,-0.24,1.13,1.93,-0.67,1.37,
1.571,0.27,-0.24,1.13,1.93,-0.67,1.37,
1.573,0.28,-0.25,1.12,1.93,-0.67,1.37,
1.576,0.29,-0.25,1.12,1.93,-0.67,1.37,
1.576,0.29,-0.25,1.12,2.10,-0.65,1.31,
1.578,0.30,-0.25,1.12,2.10,-0.65,1.31,
1.58,0.31,-0.25,1.12,2.10,-0.65,1.31,
1.581,0.31,-0.25,1.12,2.28,-0.71,1.24,
1.583,0.32,-0.24,1.13,2.28,-0.71,1.24,
1.585,0.33,-0.24,1.14,2.28,-0.71,1.24,
1.585,0.33,-0.24,1.14,2.43,-0.74,1.21,
1.588,0.33,-0.25,1.14,2.43,-0.74,1.21,
1.59,0.33,-0.25,1.14,2.56,-0.71,1.31,
1.591,0.33,-0.25,1.14,2.56,-0.71,1.31,
1.593,0.33,-0.25,1.15,2.56,-0.71,1.31,
1.595,0.34,-0.25,1.16,2.56,-0.71,1.31,
1.595,0.34,-0.25,1.16,2.60,-0.77,1.39,
1.597,0.34,-0.25,1.16,2.60,-0.77,1.39,
1.605,0.34,-0.25,1.16,2.60,-0.77,1.39,
1.605,0.34,-0.25,1.16,2.64,-0.79,1.52,
1.606,0.35,-0.26,1.16,2.64,-0.79,1.52,
1.606,0.36,-0.26,1.16,2.64,-0.79,1.52,
1.606,0.36,-0.26,1.16,2.69,-0.85,1.60,
1.607,0.36,-0.26,1.17,2.69,-0.85,1.60,
1.61,0.36,-0.26,1.16,2.69,-0.85,1.60,
1.61,0.36,-0.26,1.16,2.75,-0.92,1.60,
1.612,0.37,-0.26,1.16,2.75,-0.92,1.60,
1.615,0.37,-0.26,1.16,2.75,-0.92,1.60,
1.615,0.37,-0.26,1.16,2.77,-0.97,1.60,
1.619,0.37,-0.26,1.16,2.77,-0.97,1.60,
1.619,0.37,-0.25,1.17,2.77,-0.97,1.60,
1.62,0.37,-0.25,1.17,2.84,-0.99,1.57,
1.622,0.37,-0.25,1.17,2.84,-0.99,1.57,
1.625,0.37,-0.25,1.17,2.84,-0.99,1.57,
1.625,0.37,-0.25,1.17,2.83,-0.97,1.61,
1.627,0.36,-0.25,1.17,2.83,-0.97,1.61,
1.63,0.36,-0.24,1.18,2.83,-0.97,1.61,
1.63,0.36,-0.24,1.18,2.77,-0.95,1.63,
1.632,0.36,-0.24,1.17,2.77,-0.95,1.63,
1.634,0.36,-0.23,1.17,2.77,-0.95,1.63,
1.635,0.36,-0.23,1.17,2.70,-0.92,1.67,
1.637,0.36,-0.23,1.18,2.70,-0.92,1.67,
1.639,0.36,-0.23,1.18,2.69,-0.86,1.67,
1.639,0.36,-0.23,1.18,2.69,-0.86,1.67,
1.642,0.36,-0.23,1.17,2.69,-0.86,1.67,
1.645,0.36,-0.23,1.18,2.69,-0.86,1.67,
1.645,0.36,-0.23,1.18,2.66,-0.81,1.70,
1.648,0.36,-0.22,1.17,2.66,-0.81,1.70,
1.65,0.36,-0.22,1.17,2.66,-0.81,1.70,
1.65,0.36,-0.22,1.17,2.65,-0.81,1.67,
1.652,0.37,-0.22,1.17,2.65,-0.81,1.67,
1.654,0.37,-0.22,1.18,2.65,-0.81,1.67,
1.654,0.37,-0.22,1.18,2.69,-0.77,1.61,
1.657,0.37,-0.22,1.19,2.69,-0.77,1.61,
1.66,0.37,-0.21,1.19,2.69,-0.77,1.61,
1.66,0.37,-0.21,1.19,2.71,-0.81,1.68,
1.662,0.37,-0.21,1.20,2.71,-0.81,1.68,
1.665,0.38,-0.21,1.19,2.71,-0.81,1.68,
1.665,0.38,-0.21,1.19,2.75,-0.75,1.80,
1.668,0.38,-0.21,1.20,2.75,-0.75,1.80,
1.669,0.38,-0.21,1.20,2.78,-0.72,1.85,
1.669,0.38,-0.20,1.20,2.78,-0.72,1.85,
1.673,0.38,-0.20,1.19,2.78,-0.72,1.85,
1.675,0.39,-0.19,1.19,2.78,-0.72,1.85,
1.675,0.39,-0.19,1.19,2.80,-0.70,1.85,
1.677,0.39,-0.19,1.19,2.80,-0.70,1.85,
1.679,0.40,-0.18,1.19,2.80,-0.70,1.85,
1.68,0.40,-0.18,1.19,2.86,-0.66,1.80,
1.684,0.41,-0.18,1.18,2.86,-0.66,1.80,
1.685,0.41,-0.17,1.17,2.86,-0.66,1.80,
1.685,0.41,-0.17,1.17,2.96,-0.59,1.75,
1.686,0.42,-0.16,1.17,2.96,-0.59,1.75,
1.69,0.43,-0.16,1.16,2.96,-0.59,1.75,
1.69,0.43,-0.16,1.16,3.09,-0.53,1.63,
1.692,0.43,-0.15,1.16,3.09,-0.53,1.63,
1.695,0.43,-0.15,1.16,3.22,-0.42,1.52,
1.695,0.43,-0.15,1.16,3.22,-0.42,1.52,
1.697,0.43,-0.14,1.15,3.22,-0.42,1.52,
1.706,0.43,-0.13,1.14,3.22,-0.42,1.52,
1.707,0.43,-0.13,1.14,3.31,-0.34,1.45,
1.707,0.42,-0.12,1.14,3.31,-0.34,1.45,
1.707,0.42,-0.12,1.12,3.31,-0.34,1.45,
1.708,0.42,-0.12,1.12,3.28,-0.26,1.27,
1.708,0.42,-0.11,1.12,3.28,-0.26,1.27,
1.708,0.41,-0.11,1.11,3.28,-0.26,1.27,
1.708,0.41,-0.11,1.11,3.21,-0.15,1.13,
1.711,0.41,-0.11,1.10,3.21,-0.15,1.13,
1.713,0.40,-0.10,1.10,3.21,-0.15,1.13,
1.714,0.40,-0.10,1.10,3.16,-0.09,0.95,
1.716,0.40,-0.10,1.09,3.16,-0.09,0.95,
1.719,0.40,-0.10,1.09,3.09,-0.09,0.84,
1.719,0.39,-0.10,1.09,3.09,-0.09,0.84,
1.721,0.39,-0.10,1.08,3.09,-0.09,0.84,
1.723,0.38,-0.10,1.07,3.09,-0.09,0.84,
1.724,0.38,-0.10,1.07,3.02,-0.06,0.73,
1.727,0.38,-0.10,1.07,3.02,-0.06,0.73,
1.729,0.37,-0.10,1.06,3.02,-0.06,0.73,
1.73,0.37,-0.10,1.06,2.91,-0.11,0.58,
1.732,0.36,-0.10,1.05,2.91,-0.11,0.58,
1.734,0.36,-0.10,1.04,2.91,-0.11,0.58,
1.735,0.36,-0.10,1.04,2.85,-0.17,0.43,
1.737,0.35,-0.11,1.03,2.85,-0.17,0.43,
1.739,0.34,-0.11,1.02,2.85,-0.17,0.43,
1.739,0.34,-0.11,1.02,2.71,-0.21,0.24,
1.741,0.34,-0.11,1.02,2.71,-0.21,0.24,
1.743,0.33,-0.11,1.01,2.71,-0.21,0.24,
1.744,0.33,-0.11,1.01,2.62,-0.31,0.07,
1.746,0.33,-0.11,1.01,2.62,-0.31,0.07,
1.749,0.32,-0.11,1.00,2.62,-0.31,0.07,
1.749,0.32,-0.11,1.00,2.51,-0.38,-0.06,
1.752,0.32,-0.11,1.00,2.51,-0.38,-0.06,
1.754,0.31,-0.11,0.99,2.51,-0.38,-0.06,
1.754,0.31,-0.11,0.99,2.43,-0.45,-0.19,
1.756,0.31,-0.11,0.99,2.43,-0.45,-0.19,
1.758,0.30,-0.10,0.99,2.43,-0.45,-0.19,
1.759,0.30,-0.10,0.99,2.33,-0.49,-0.24,
1.761,0.30,-0.10,0.98,2.33,-0.49,-0.24,
1.764,0.30,-0.09,0.98,2.33,-0.49,-0.24,
1.764,0.30,-0.09,0.98,2.27,-0.48,-0.34,
1.766,0.30,-0.09,0.97,2.27,-0.48,-0.34,
1.769,0.30,-0.09,0.97,2.21,-0.41,-0.41,
1.769,0.29,-0.09,0.98,2.21,-0.41,-0.41,
1.77,0.29,-0.08,0.98,2.21,-0.41,-0.41,
1.773,0.29,-0.08,0.99,2.21,-0.41,-0.41,
1.773,0.29,-0.08,0.99,2.16,-0.38,-0.42,
1.775,0.28,-0.08,0.99,2.16,-0.38,-0.42,
1.777,0.28,-0.07,1.00,2.16,-0.38,-0.42,
1.778,0.28,-0.07,1.00,2.13,-0.34,-0.36,
1.78,0.28,-0.07,1.00,2.13,-0.34,-0.36,
1.783,0.28,-0.07,1.00,2.13,-0.34,-0.36,
1.784,0.28,-0.07,1.00,2.08,-0.33,-0.25,
1.785,0.27,-0.07,1.00,2.08,-0.33,-0.25,
1.787,0.27,-0.07,1.00,2.08,-0.33,-0.25,
1.788,0.27,-0.07,1.00,2.02,-0.32,-0.21,
1.79,0.27,-0.08,1.00,2.02,-0.32,-0.21,
1.793,0.27,-0.08,1.00,2.00,-0.36,-0.24,
1.793,0.27,-0.08,1.00,2.00,-0.36,-0.24,
1.795,0.26,-0.08,1.01,2.00,-0.36,-0.24,
1.797,0.26,-0.08,1.00,2.00,-0.36,-0.24,
1.798,0.26,-0.08,1.00,1.99,-0.45,-0.21,
1.8,0.27,-0.08,1.00,1.99,-0.45,-0.21,
1.802,0.26,-0.08,1.00,1.99,-0.45,-0.21,
1.803,0.26,-0.08,1.00,1.92,-0.52,-0.16,
1.805,0.26,-0.08,1.00,1.92,-0.52,-0.16,
1.807,0.26,-0.08,0.99,1.92,-0.52,-0.16,
1.813,0.26,-0.08,0.99,1.95,-0.58,-0.19,
1.814,0.26,-0.08,0.99,1.95,-0.58,-0.19,
1.814,0.25,-0.08,0.98,1.95,-0.58,-0.19,
1.816,0.25,-0.08,0.98,1.95,-0.60,-0.28,
1.816,0.26,-0.08,0.98,1.95,-0.60,-0.28,
1.826,0.25,-0.08,0.98,1.95,-0.60,-0.28,
1.827,0.25,-0.08,0.98,1.91,-0.65,-0.39,
1.827,0.25,-0.08,0.97,1.91,-0.65,-0.39,
1.827,0.25,-0.08,0.97,1.91,-0.65,-0.39,
1.827,0.25,-0.08,0.97,1.93,-0.64,-0.44,
1.828,0.25,-0.08,0.97,1.93,-0.64,-0.44,
1.828,0.24,-0.08,0.96,1.93,-0.64,-0.44,
1.829,0.24,-0.08,0.96,1.90,-0.66,-0.49,
1.83,0.24,-0.08,0.97,1.90,-0.66,-0.49,
1.837,0.23,-0.08,0.96,1.90,-0.66,-0.49,
1.837,0.23,-0.08,0.96,1.89,-0.69,-0.57,
1.838,0.23,-0.07,0.96,1.89,-0.69,-0.57,
1.838,0.23,-0.07,0.96,1.89,-0.69,-0.57,
1.838,0.23,-0.07,0.96,1.81,-0.71,-0.57,
1.84,0.23,-0.07,0.96,1.81,-0.71,-0.57,
1.843,0.23,-0.07,0.96,1.77,-0.69,-0.60,
1.843,0.22,-0.07,0.96,1.77,-0.69,-0.60,
1.845,0.21,-0.07,0.96,1.77,-0.69,-0.60,
1.848,0.21,-0.06,0.96,1.77,-0.69,-0.60,
1.848,0.21,-0.06,0.96,1.73,-0.71,-0.63,
1.851,0.21,-0.05,0.96,1.73,-0.71,-0.63,
1.854,0.20,-0.05,0.95,1.73,-0.71,-0.63,
1.854,0.20,-0.05,0.95,1.61,-0.72,-0.61,
1.854,0.20,-0.05,0.95,1.61,-0.72,-0.61,
1.857,0.19,-0.05,0.94,1.61,-0.72,-0.61,
1.857,0.19,-0.05,0.94,1.56,-0.63,-0.67,
1.86,0.19,-0.04,0.94,1.56,-0.63,-0.67,
1.862,0.19,-0.04,0.93,1.56,-0.63,-0.67,
1.863,0.19,-0.04,0.93,1.49,-0.62,-0.76,
1.865,0.18,-0.04,0.93,1.49,-0.62,-0.76,
1.867,0.17,-0.03,0.93,1.49,-0.62,-0.76,
1.868,0.17,-0.03,0.93,1.42,-0.59,-0.85,
1.869,0.17,-0.03,0.93,1.42,-0.59,-0.85,
1.872,0.17,-0.03,0.92,1.42,-0.59,-0.85,
1.872,0.17,-0.03,0.92,1.31,-0.58,-0.89,
1.875,0.16,-0.03,0.92,1.31,-0.58,-0.89,
1.877,0.16,-0.02,0.92,1.31,-0.58,-0.89,
1.877,0.16,-0.02,0.92,1.22,-0.59,-0.97,
1.881,0.16,-0.02,0.91,1.22,-0.59,-0.97,
1.882,0.15,-0.02,0.91,1.22,-0.59,-0.97,
1.882,0.15,-0.02,0.91,1.18,-0.57,-1.01,
1.885,0.15,-0.02,0.91,1.18,-0.57,-1.01,
1.887,0.15,-0.02,0.91,1.18,-0.57,-1.01,
1.888,0.15,-0.02,0.91,1.11,-0.58,-1.05,
1.89,0.14,-0.02,0.90,1.11,-0.58,-1.05,
1.891,0.14,-0.02,0.90,1.10,-0.61,-1.11,
1.891,0.14,-0.02,0.90,1.10,-0.61,-1.11,
1.894,0.14,-0.02,0.91,1.10,-0.61,-1.11,
1.897,0.14,-0.01,0.90,1.10,-0.61,-1.11,
1.897,0.14,-0.01,0.90,1.00,-0.62,-1.15,
1.901,0.13,-0.01,0.90,1.00,-0.62,-1.15,
1.902,0.13,-0.01,0.89,1.00,-0.62,-1.15,
1.902,0.13,-0.01,0.89,0.98,-0.64,-1.14,
1.904,0.13,0.00,0.88,0.98,-0.64,-1.14,
1.907,0.13,0.01,0.88,0.98,-0.64,-1.14,
1.907,0.13,0.01,0.88,0.90,-0.61,-1.23,
1.909,0.14,0.01,0.88,0.90,-0.61,-1.23,
1.912,0.14,0.02,0.87,0.90,-0.61,-1.23,
1.912,0.14,0.02,0.87,0.95,-0.52,-1.34,
1.914,0.15,0.02,0.86,0.95,-0.52,-1.34,
1.916,0.14,0.03,0.86,0.95,-0.52,-1.34,
1.922,0.14,0.03,0.86,1.04,-0.47,-1.44,
1.923,0.14,0.03,0.86,1.04,-0.47,-1.44,
1.923,0.15,0.04,0.84,1.04,-0.47,-1.44,
1.923,0.15,0.04,0.84,1.09,-0.38,-1.56,
1.923,0.14,0.05,0.84,1.09,-0.38,-1.56,
1.926,0.14,0.06,0.84,1.09,-0.38,-1.56,
1.927,0.14,0.06,0.84,1.11,-0.30,-1.65,
1.929,0.14,0.06,0.83,1.11,-0.30,-1.65,
1.931,0.14,0.07,0.83,1.11,-0.30,-1.65,
1.931,0.14,0.07,0.83,1.10,-0.19,-1.77,
1.935,0.14,0.07,0.83,1.10,-0.19,-1.77,
1.936,0.14,0.07,0.84,1.10,-0.19,-1.77,
1.936,0.14,0.07,0.84,1.08,-0.07,-1.83,
1.939,0.14,0.07,0.84,1.08,-0.07,-1.83,
1.941,0.15,0.07,0.84,1.08,-0.07,-1.83,
1.941,0.15,0.07,0.84,1.12,-0.03,-1.79,
1.944,0.15,0.07,0.85,1.12,-0.03,-1.79,
1.947,0.15,0.07,0.85,1.14,-0.04,-1.69,
1.947,0.16,0.07,0.86,1.14,-0.04,-1.69,
1.949,0.15,0.06,0.87,1.14,-0.04,-1.69,
1.951,0.15,0.06,0.87,1.14,-0.04,-1.69,
1.952,0.15,0.06,0.87,1.21,-0.09,-1.57,
1.954,0.15,0.06,0.88,1.21,-0.09,-1.57,
1.956,0.15,0.05,0.89,1.21,-0.09,-1.57,
1.957,0.15,0.05,0.89,1.21,-0.20,-1.43,
1.959,0.15,0.05,0.90,1.21,-0.20,-1.43,
1.961,0.15,0.05,0.91,1.21,-0.20,-1.43,
1.962,0.15,0.05,0.91,1.19,-0.25,-1.28,
1.964,0.15,0.05,0.91,1.19,-0.25,-1.28,
1.966,0.16,0.05,0.92,1.19,-0.25,-1.28,
1.967,0.16,0.05,0.92,1.16,-0.32,-1.07,
1.969,0.16,0.05,0.93,1.16,-0.32,-1.07,
1.971,0.16,0.06,0.94,1.16,-0.32,-1.07,
1.971,0.16,0.06,0.94,1.20,-0.34,-0.94,
1.974,0.17,0.05,0.94,1.20,-0.34,-0.94,
1.977,0.17,0.05,0.94,1.20,-0.34,-0.94,
1.977,0.17,0.05,0.94,1.25,-0.32,-0.80,
1.98,0.17,0.06,0.95,1.25,-0.32,-0.80,
1.982,0.17,0.06,0.96,1.25,-0.32,-0.80,
1.982,0.17,0.06,0.96,1.31,-0.33,-0.71,
1.985,0.17,0.07,0.96,1.31,-0.33,-0.71,
1.987,0.17,0.07,0.96,1.31,-0.33,-0.71,
1.987,0.17,0.07,0.96,1.29,-0.29,-0.59,
1.989,0.16,0.08,0.97,1.29,-0.29,-0.59,
1.991,0.16,0.08,0.97,1.26,-0.22,-0.50,
1.991,0.16,0.08,0.96,1.26,-0.22,-0.50,
1.994,0.16,0.08,0.96,1.26,-0.22,-0.50,
1.996,0.16,0.09,0.96,1.26,-0.22,-0.50,
1.998,0.16,0.09,0.96,1.20,-0.13,-0.47,
1.998,0.17,0.10,0.95,1.20,-0.13,-0.47,
2.002,0.17,0.10,0.95,1.19,-0.10,-0.50,
2.002,0.17,0.10,0.95,1.19,-0.10,-0.50,
2.004,0.17,0.11,0.95,1.19,-0.10,-0.50,
2.006,0.17,0.11,0.95,1.19,-0.10,-0.50,
2.006,0.17,0.11,0.95,1.22,-0.01,-0.58,
2.009,0.17,0.11,0.95,1.22,-0.01,-0.58,
2.011,0.17,0.11,0.94,1.22,-0.01,-0.58,
2.012,0.17,0.11,0.94,1.22,0.02,-0.58,
2.013,0.17,0.11,0.94,1.22,0.02,-0.58,
2.016,0.17,0.12,0.92,1.22,0.02,-0.58,
2.017,0.17,0.12,0.92,1.24,0.06,-0.63,
2.02,0.17,0.12,0.92,1.24,0.06,-0.63,
2.02,0.17,0.12,0.91,1.24,0.06,-0.63,
2.021,0.17,0.12,0.91,1.21,0.06,-0.79,
2.024,0.17,0.12,0.89,1.21,0.06,-0.79,
2.026,0.17,0.13,0.88,1.21,0.06,-0.79,
2.027,0.17,0.13,0.88,1.22,0.07,-0.97,
2.029,0.17,0.13,0.86,1.22,0.07,-0.97,
2.031,0.18,0.13,0.85,1.22,0.07,-0.97,
2.031,0.18,0.13,0.85,1.24,0.09,-1.23,
2.033,0.17,0.13,0.84,1.24,0.09,-1.23,
2.04,0.18,0.13,0.83,1.24,0.09,-1.23,
2.041,0.18,0.13,0.83,1.26,0.05,-1.46,
2.041,0.18,0.13,0.82,1.26,0.05,-1.46,
2.042,0.18,0.13,0.80,1.26,0.05,-1.46,
2.042,0.18,0.13,0.80,1.27,0.04,-1.69,
2.043,0.19,0.13,0.79,1.27,0.04,-1.69,
2.045,0.18,0.12,0.78,1.27,0.04,-1.69,
2.046,0.18,0.12,0.78,1.31,-0.02,-1.92,
2.047,0.17,0.12,0.78,1.31,-0.02,-1.92,
2.051,0.17,0.12,0.77,1.31,-0.02,-1.92,
2.052,0.17,0.12,0.77,1.37,-0.06,-2.17,
2.053,0.17,0.12,0.76,1.37,-0.06,-2.17,
2.054,0.17,0.12,0.76,1.37,-0.06,-2.17,
2.055,0.17,0.12,0.76,1.24,-0.10,-2.28,
2.057,0.16,0.12,0.76,1.24,-0.10,-2.28,
2.06,0.16,0.12,0.76,1.20,-0.15,-2.37,
2.06,0.16,0.11,0.77,1.20,-0.15,-2.37,
2.062,0.16,0.11,0.77,1.20,-0.15,-2.37,
2.064,0.16,0.11,0.77,1.20,-0.15,-2.37,
2.065,0.16,0.11,0.77,1.14,-0.21,-2.31,
2.068,0.16,0.11,0.78,1.14,-0.21,-2.31,
2.071,0.16,0.11,0.78,1.14,-0.21,-2.31,
2.071,0.16,0.11,0.78,1.13,-0.24,-2.29,
2.072,0.15,0.10,0.79,1.13,-0.24,-2.29,
2.075,0.14,0.10,0.80,1.13,-0.24,-2.29,
2.075,0.14,0.10,0.80,1.06,-0.30,-2.18,
2.077,0.14,0.10,0.81,1.06,-0.30,-2.18,
2.08,0.13,0.10,0.82,1.06,-0.30,-2.18,
2.08,0.13,0.10,0.82,0.98,-0.38,-1.99,
2.082,0.12,0.10,0.83,0.98,-0.38,-1.99,
2.085,0.12,0.10,0.84,0.98,-0.38,-1.99,
2.086,0.12,0.10,0.84,0.83,-0.40,-1.78,
2.087,0.12,0.10,0.85,0.83,-0.40,-1.78,
2.09,0.12,0.10,0.85,0.71,-0.40,-1.60,
2.09,0.12,0.10,0.85,0.71,-0.40,-1.60,
2.092,0.11,0.11,0.86,0.71,-0.40,-1.60,
2.094,0.12,0.11,0.86,0.71,-0.40,-1.60,
2.094,0.12,0.11,0.86,0.65,-0.42,-1.49,
2.097,0.12,0.11,0.87,0.65,-0.42,-1.49,
2.099,0.11,0.12,0.87,0.65,-0.42,-1.49,
2.103,0.11,0.12,0.87,0.58,-0.35,-1.37,
2.104,0.12,0.12,0.87,0.58,-0.35,-1.37,
2.104,0.13,0.12,0.88,0.58,-0.35,-1.37,
2.105,0.13,0.12,0.88,0.58,-0.31,-1.25,
2.107,0.13,0.12,0.87,0.58,-0.31,-1.25,
2.109,0.14,0.12,0.87,0.58,-0.31,-1.25,
2.11,0.14,0.12,0.87,0.65,-0.23,-1.22,
2.112,0.14,0.13,0.88,0.65,-0.23,-1.22,
2.114,0.14,0.13,0.87,0.65,-0.23,-1.22,
2.115,0.14,0.13,0.87,0.73,-0.23,-1.27,
2.119,0.15,0.12,0.87,0.73,-0.23,-1.27,
2.12,0.16,0.12,0.87,0.73,-0.23,-1.27,
2.12,0.16,0.12,0.87,0.80,-0.20,-1.22,
2.122,0.16,0.12,0.87,0.80,-0.20,-1.22,
2.124,0.16,0.12,0.87,0.80,-0.20,-1.22,
2.125,0.16,0.12,0.87,0.90,-0.25,-1.25,
2.126,0.16,0.12,0.87,0.90,-0.25,-1.25,
2.129,0.17,0.12,0.86,0.90,-0.25,-1.25,
2.13,0.17,0.12,0.86,0.97,-0.26,-1.26,
2.131,0.17,0.12,0.86,0.97,-0.26,-1.26,
2.135,0.17,0.13,0.85,0.97,-0.26,-1.26,
2.137,0.17,0.13,0.85,0.99,-0.26,-1.31,
2.137,0.18,0.12,0.84,0.99,-0.26,-1.31,
2.143,0.18,0.12,0.83,0.99,-0.26,-1.31,
2.143,0.18,0.12,0.83,1.05,-0.24,-1.41,
2.144,0.19,0.12,0.83,1.05,-0.24,-1.41,
2.145,0.19,0.12,0.82,1.05,-0.24,-1.41,
2.145,0.19,0.12,0.82,1.12,-0.29,-1.55,
2.146,0.19,0.11,0.82,1.12,-0.29,-1.55,
2.148,0.19,0.11,0.82,1.12,-0.29,-1.55,
2.149,0.19,0.11,0.82,1.23,-0.31,-1.66,
2.158,0.19,0.11,0.83,1.23,-0.31,-1.66,
2.159,0.18,0.11,0.82,1.23,-0.31,-1.66,
2.159,0.18,0.11,0.82,1.23,-0.37,-1.72,
2.159,0.18,0.10,0.82,1.23,-0.37,-1.72,
2.16,0.17,0.10,0.82,1.23,-0.37,-1.72,
2.16,0.17,0.10,0.82,1.19,-0.43,-1.68,
2.162,0.17,0.10,0.82,1.19,-0.43,-1.68,
2.163,0.16,0.10,0.83,1.19,-0.43,-1.68,
2.164,0.16,0.10,0.83,1.10,-0.48,-1.68,
2.168,0.16,0.10,0.83,1.10,-0.48,-1.68,
2.169,0.15,0.09,0.82,1.10,-0.48,-1.68,
2.169,0.15,0.09,0.82,0.99,-0.52,-1.67,
2.172,0.14,0.10,0.83,0.99,-0.52,-1.67,
2.174,0.14,0.09,0.83,0.99,-0.52,-1.67,
2.174,0.14,0.09,0.83,0.85,-0.57,-1.66,
2.177,0.13,0.09,0.83,0.85,-0.57,-1.66,
2.179,0.13,0.09,0.82,0.85,-0.57,-1.66,
2.179,0.13,0.09,0.82,0.73,-0.58,-1.59,
2.181,0.13,0.09,0.82,0.73,-0.58,-1.59,
2.183,0.12,0.09,0.83,0.73,-0.58,-1.59,
2.184,0.12,0.09,0.83,0.65,-0.64,-1.62,
2.187,0.12,0.09,0.83,0.65,-0.64,-1.62,
2.189,0.12,0.09,0.82,0.65,-0.64,-1.62,
2.189,0.12,0.09,0.82,0.60,-0.64,-1.66,
2.191,0.11,0.09,0.82,0.60,-0.64,-1.66,
2.194,0.11,0.09,0.82,0.60,-0.64,-1.66,
2.194,0.11,0.09,0.82,0.54,-0.64,-1.64,
2.196,0.10,0.09,0.82,0.54,-0.64,-1.64,
2.199,0.10,0.09,0.82,0.54,-0.64,-1.64,
2.199,0.10,0.09,0.82,0.49,-0.61,-1.72,
2.202,0.10,0.10,0.81,0.49,-0.61,-1.72,
2.204,0.10,0.10,0.80,0.49,-0.61,-1.72,
2.205,0.10,0.10,0.80,0.38,-0.61,-1.70,
2.206,0.10,0.09,0.80,0.38,-0.61,-1.70,
2.208,0.10,0.09,0.80,0.38,-0.61,-1.70,
2.208,0.10,0.09,0.80,0.40,-0.56,-1.80,
2.212,0.10,0.09,0.80,0.40,-0.56,-1.80,
2.214,0.09,0.09,0.80,0.40,-0.56,-1.80,
2.214,0.09,0.09,0.80,0.36,-0.61,-1.87,
2.217,0.09,0.10,0.80,0.36,-0.61,-1.87,
2.219,0.08,0.11,0.80,0.36,-0.61,-1.87,
2.22,0.08,0.11,0.80,0.29,-0.59,-1.90,
2.221,0.08,0.11,0.80,0.29,-0.59,-1.90,
2.224,0.08,0.11,0.79,0.29,-0.59,-1.90,
2.225,0.08,0.11,0.79,0.19,-0.47,-1.88,
2.227,0.07,0.11,0.80,0.19,-0.47,-1.88,
2.229,0.07,0.12,0.79,0.19,-0.47,-1.88,
2.229,0.07,0.12,0.79,0.16,-0.44,-1.90,
2.231,0.07,0.11,0.79,0.16,-0.44,-1.90,
2.236,0.07,0.12,0.80,0.16,-0.44,-1.90,
2.236,0.07,0.12,0.80,0.04,-0.39,-1.91,
2.236,0.07,0.13,0.80,0.04,-0.39,-1.91,
2.239,0.07,0.13,0.80,0.04,-0.37,-1.88,
2.239,0.07,0.13,0.80,0.04,-0.37,-1.88,
2.241,0.07,0.13,0.80,0.04,-0.37,-1.88,
2.244,0.07,0.13,0.81,0.04,-0.37,-1.88,
2.244,0.07,0.13,0.81,0.03,-0.26,-1.84,
2.246,0.06,0.13,0.81,0.03,-0.26,-1.84,
2.248,0.07,0.12,0.82,0.03,-0.26,-1.84,
2.249,0.07,0.12,0.82,0.03,-0.21,-1.79,
2.25,0.07,0.13,0.82,0.03,-0.21,-1.79,
2.256,0.07,0.13,0.82,0.02,-0.26,-1.71,
2.257,0.08,0.12,0.81,0.02,-0.26,-1.71,
2.257,0.08,0.12,0.81,0.02,-0.26,-1.71,
2.258,0.08,0.12,0.82,0.02,-0.26,-1.71,
2.258,0.08,0.12,0.82,0.10,-0.29,-1.69,
2.261,0.08,0.12,0.82,0.10,-0.29,-1.69,
2.263,0.07,0.12,0.82,0.10,-0.29,-1.69,
2.263,0.07,0.12,0.82,0.14,-0.35,-1.70,
2.266,0.07,0.12,0.83,0.14,-0.35,-1.70,
2.269,0.06,0.11,0.83,0.14,-0.35,-1.70,
2.269,0.06,0.11,0.83,0.12,-0.34,-1.63,
2.271,0.07,0.12,0.83,0.12,-0.34,-1.63,
2.273,0.06,0.12,0.84,0.12,-0.34,-1.63,
2.273,0.06,0.12,0.84,0.04,-0.35,-1.56,
2.276,0.06,0.11,0.84,0.04,-0.35,-1.56,
2.278,0.06,0.12,0.83,0.04,-0.35,-1.56,
2.279,0.06,0.12,0.83,-0.02,-0.34,-1.49,
2.281,0.05,0.11,0.83,-0.02,-0.34,-1.49,
2.283,0.06,0.10,0.81,-0.02,-0.34,-1.49,
2.283,0.06,0.10,0.81,-0.04,-0.32,-1.50,
2.285,0.05,0.09,0.80,-0.04,-0.32,-1.50,
2.288,0.04,0.09,0.81,-0.04,-0.32,-1.50,
2.288,0.04,0.09,0.81,-0.06,-0.44,-1.67,
2.29,0.03,0.10,0.81,-0.06,-0.44,-1.67,
2.293,0.01,0.10,0.83,-0.06,-0.44,-1.67,
2.293,0.01,0.10,0.83,-0.12,-0.55,-1.80,
2.296,-0.00,0.11,0.83,-0.12,-0.55,-1.80,
2.298,-0.02,0.12,0.84,-0.12,-0.55,-1.80,
2.298,-0.02,0.12,0.84,-0.37,-0.48,-1.64,
2.301,-0.04,0.11,0.85,-0.37,-0.48,-1.64,
2.303,-0.05,0.12,0.86,-0.37,-0.48,-1.64,
2.306,-0.05,0.12,0.86,-0.70,-0.34,-1.49,
2.306,-0.06,0.12,0.86,-0.70,-0.34,-1.49,
2.308,-0.06,0.12,0.86,-0.70,-0.34,-1.49,
2.308,-0.06,0.12,0.86,-1.03,-0.30,-1.30,
2.311,-0.07,0.11,0.87,-1.03,-0.30,-1.30,
2.313,-0.07,0.11,0.87,-1.17,-0.27,-1.24,
2.314,-0.07,0.11,0.87,-1.17,-0.27,-1.24,
2.315,-0.07,0.10,0.88,-1.17,-0.27,-1.24,
2.321,-0.07,0.10,0.88,-1.17,-0.27,-1.24,
2.322,-0.07,0.10,0.88,-1.24,-0.35,-1.14,
2.322,-0.07,0.10,0.89,-1.24,-0.35,-1.14,
2.322,-0.07,0.10,0.88,-1.24,-0.35,-1.14,
2.322,-0.07,0.10,0.88,-1.30,-0.42,-1.06,
2.326,-0.07,0.09,0.88,-1.30,-0.42,-1.06,
2.328,-0.06,0.09,0.87,-1.30,-0.42,-1.06,
2.328,-0.06,0.09,0.87,-1.26,-0.46,-1.00,
2.331,-0.05,0.08,0.86,-1.26,-0.46,-1.00,
2.333,-0.05,0.08,0.86,-1.23,-0.52,-1.11,
2.333,-0.04,0.08,0.85,-1.23,-0.52,-1.11,
2.336,-0.04,0.09,0.84,-1.23,-0.52,-1.11,
2.337,-0.04,0.09,0.84,-1.23,-0.52,-1.11,
2.338,-0.04,0.09,0.84,-1.06,-0.60,-1.31,
2.34,-0.03,0.10,0.83,-1.06,-0.60,-1.31,
2.343,-0.04,0.10,0.83,-1.06,-0.60,-1.31,
2.343,-0.04,0.10,0.83,-0.96,-0.53,-1.40,
2.346,-0.04,0.10,0.83,-0.96,-0.53,-1.40,
2.348,-0.04,0.10,0.83,-0.96,-0.53,-1.40,
2.348,-0.04,0.10,0.83,-0.97,-0.47,-1.52,
2.35,-0.04,0.10,0.83,-0.97,-0.47,-1.52,
2.353,-0.04,0.10,0.82,-0.97,-0.47,-1.52,
2.354,-0.04,0.10,0.82,-1.02,-0.42,-1.53,
2.355,-0.05,0.10,0.82,-1.02,-0.42,-1.53,
2.357,-0.05,0.10,0.82,-1.03,-0.43,-1.57,
2.357,-0.05,0.09,0.82,-1.03,-0.43,-1.57,
2.36,-0.05,0.09,0.82,-1.03,-0.43,-1.57,
2.363,-0.04,0.09,0.82,-1.03,-0.43,-1.57,
2.363,-0.04,0.09,0.82,-1.06,-0.49,-1.59,
2.365,-0.04,0.08,0.81,-1.06,-0.49,-1.59,
2.367,-0.04,0.08,0.81,-1.06,-0.49,-1.59,
2.367,-0.04,0.08,0.81,-1.03,-0.56,-1.61,
2.377,-0.04,0.07,0.82,-1.03,-0.56,-1.61,
2.378,-0.04,0.07,0.82,-0.99,-0.63,-1.66,
2.378,-0.04,0.06,0.83,-0.99,-0.63,-1.66,
2.378,-0.04,0.06,0.83,-0.99,-0.63,-1.66,
2.379,-0.05,0.06,0.83,-0.99,-0.63,-1.66,
2.379,-0.05,0.06,0.83,-0.98,-0.74,-1.56,
2.379,-0.05,0.06,0.84,-0.98,-0.74,-1.56,
2.381,-0.05,0.06,0.85,-0.98,-0.74,-1.56,
2.382,-0.05,0.06,0.85,-1.05,-0.77,-1.49,
2.39,-0.06,0.06,0.87,-1.05,-0.77,-1.49,
2.391,-0.07,0.07,0.88,-1.05,-0.77,-1.49,
2.391,-0.07,0.07,0.88,-1.10,-0.79,-1.34,
2.392,-0.08,0.07,0.89,-1.10,-0.79,-1.34,
2.392,-0.08,0.07,0.90,-1.10,-0.79,-1.34,
2.392,-0.08,0.07,0.90,-1.24,-0.71,-1.10,
2.394,-0.09,0.08,0.91,-1.24,-0.71,-1.10,
2.396,-0.10,0.08,0.92,-1.24,-0.71,-1.10,
2.396,-0.10,0.08,0.92,-1.39,-0.65,-0.90,
2.398,-0.10,0.09,0.92,-1.39,-0.65,-0.90,
2.402,-0.11,0.08,0.92,-1.39,-0.65,-0.90,
2.402,-0.11,0.08,0.92,-1.48,-0.52,-0.69,
2.403,-0.11,0.08,0.93,-1.48,-0.52,-0.69,
2.406,-0.10,0.09,0.93,-1.48,-0.52,-0.69,
2.406,-0.10,0.09,0.93,-1.61,-0.49,-0.59,
2.408,-0.10,0.08,0.93,-1.61,-0.49,-0.59,
2.411,-0.10,0.07,0.92,-1.61,-0.49,-0.59,
2.411,-0.10,0.07,0.92,-1.55,-0.47,-0.51,
2.413,-0.10,0.07,0.93,-1.55,-0.47,-0.51,
2.416,-0.11,0.07,0.93,-1.55,-0.47,-0.51,
2.416,-0.11,0.07,0.93,-1.49,-0.57,-0.59,
2.419,-0.12,0.07,0.95,-1.49,-0.57,-0.59,
2.422,-0.13,0.07,0.95,-1.49,-0.57,-0.59,
2.422,-0.13,0.07,0.95,-1.56,-0.62,-0.54,
2.424,-0.14,0.08,0.95,-1.56,-0.62,-0.54,
2.426,-0.14,0.08,0.95,-1.56,-0.62,-0.54,
2.426,-0.14,0.08,0.95,-1.73,-0.55,-0.36,
2.428,-0.14,0.08,0.95,-1.73,-0.55,-0.36,
2.431,-0.14,0.08,0.95,-1.73,-0.55,-0.36,
2.431,-0.14,0.08,0.95,-1.88,-0.45,-0.31,
2.433,-0.13,0.07,0.95,-1.88,-0.45,-0.31,
2.436,-0.12,0.07,0.94,-1.88,-0.45,-0.31,
2.437,-0.12,0.07,0.94,-1.87,-0.45,-0.33,
2.438,-0.10,0.06,0.94,-1.87,-0.45,-0.33,
2.44,-0.09,0.06,0.94,-1.87,-0.45,-0.33,
2.441,-0.09,0.06,0.94,-1.69,-0.53,-0.39,
2.443,-0.08,0.07,0.94,-1.69,-0.53,-0.39,
2.446,-0.06,0.06,0.94,-1.69,-0.53,-0.39,
2.446,-0.06,0.06,0.94,-1.41,-0.62,-0.44,
2.448,-0.05,0.06,0.93,-1.41,-0.62,-0.44,
2.451,-0.05,0.07,0.93,-1.41,-0.62,-0.44,
2.451,-0.05,0.07,0.93,-1.18,-0.60,-0.43,
2.453,-0.04,0.07,0.93,-1.18,-0.60,-0.43,
2.455,-0.04,0.08,0.93,-1.18,-0.60,-0.43,
2.456,-0.04,0.08,0.93,-0.96,-0.58,-0.52,
2.458,-0.03,0.09,0.93,-0.96,-0.58,-0.52,
2.46,-0.03,0.09,0.93,-0.85,-0.47,-0.54,
2.461,-0.03,0.10,0.93,-0.85,-0.47,-0.54,
2.463,-0.03,0.11,0.93,-0.85,-0.47,-0.54,
2.467,-0.03,0.12,0.93,-0.85,-0.47,-0.54,
2.467,-0.03,0.12,0.93,-0.77,-0.30,-0.53,
2.471,-0.03,0.13,0.94,-0.77,-0.30,-0.53,
2.479,-0.04,0.13,0.94,-0.77,-0.30,-0.53,
2.48,-0.04,0.13,0.94,-0.74,-0.08,-0.54,
2.48,-0.04,0.14,0.93,-0.74,-0.08,-0.54,
2.48,-0.04,0.14,0.93,-0.74,-0.08,-0.54,
2.481,-0.04,0.14,0.93,-0.77,0.08,-0.48,
2.481,-0.05,0.14,0.93,-0.77,0.08,-0.48,
2.481,-0.05,0.14,0.93,-0.77,0.08,-0.48,
2.481,-0.05,0.14,0.93,-0.81,0.18,-0.52,
2.484,-0.05,0.15,0.92,-0.81,0.18,-0.52,
2.489,-0.05,0.15,0.92,-0.81,0.18,-0.52,
2.49,-0.05,0.15,0.92,-0.86,0.23,-0.54,
2.49,-0.04,0.15,0.91,-0.86,0.23,-0.54,
2.49,-0.05,0.15,0.91,-0.86,0.23,-0.54,
2.49,-0.05,0.15,0.91,-0.81,0.28,-0.64,
2.493,-0.04,0.15,0.90,-0.81,0.28,-0.64,
2.496,-0.05,0.14,0.91,-0.81,0.28,-0.64,
2.496,-0.05,0.14,0.91,-0.77,0.29,-0.74,
2.497,-0.06,0.14,0.91,-0.77,0.29,-0.74,
2.5,-0.06,0.13,0.91,-0.77,0.29,-0.74,
2.5,-0.06,0.13,0.91,-0.77,0.26,-0.79,
2.503,-0.08,0.13,0.92,-0.77,0.26,-0.79,
2.505,-0.08,0.12,0.93,-0.77,0.26,-0.79,
2.506,-0.08,0.12,0.93,-0.87,0.18,-0.74,
2.507,-0.09,0.12,0.93,-0.87,0.18,-0.74,
2.51,-0.10,0.12,0.94,-0.87,0.18,-0.74,
2.51,-0.10,0.12,0.94,-1.05,0.10,-0.60,
2.513,-0.11,0.11,0.96,-1.05,0.10,-0.60,
2.515,-0.11,0.10,0.97,-1.05,0.10,-0.60,
2.515,-0.11,0.10,0.97,-1.20,0.03,-0.49,
2.518,-0.12,0.09,0.98,-1.20,0.03,-0.49,
2.521,-0.12,0.09,0.98,-1.31,-0.07,-0.24,
2.521,-0.13,0.08,0.99,-1.31,-0.07,-0.24,
2.522,-0.14,0.07,1.00,-1.31,-0.07,-0.24,
2.525,-0.15,0.07,1.01,-1.31,-0.07,-0.24,
2.525,-0.15,0.07,1.01,-1.45,-0.22,-0.01,
2.528,-0.15,0.05,1.03,-1.45,-0.22,-0.01,
2.53,-0.15,0.05,1.03,-1.58,-0.37,0.21,
2.531,-0.16,0.05,1.03,-1.58,-0.37,0.21,
2.533,-0.16,0.04,1.05,-1.58,-0.37,0.21,
2.536,-0.16,0.03,1.05,-1.58,-0.37,0.21,
2.536,-0.16,0.03,1.05,-1.67,-0.56,0.42,
2.538,-0.16,0.03,1.05,-1.67,-0.56,0.42,
2.541,-0.16,0.02,1.06,-1.67,-0.56,0.42,
2.541,-0.16,0.02,1.06,-1.75,-0.68,0.59,
2.543,-0.16,0.02,1.06,-1.75,-0.68,0.59,
2.546,-0.15,0.02,1.06,-1.75,-0.68,0.59,
2.546,-0.15,0.02,1.06,-1.72,-0.75,0.65,
2.548,-0.15,0.02,1.06,-1.72,-0.75,0.65,
2.55,-0.15,0.02,1.06,-1.72,-0.75,0.65,
2.551,-0.15,0.02,1.06,-1.67,-0.77,0.70,
2.552,-0.15,0.03,1.06,-1.67,-0.77,0.70,
2.555,-0.15,0.04,1.06,-1.67,-0.77,0.70,
2.556,-0.15,0.04,1.06,-1.63,-0.75,0.71,
2.558,-0.15,0.04,1.05,-1.63,-0.75,0.71,
2.56,-0.15,0.04,1.05,-1.58,-0.62,0.70,
2.561,-0.15,0.05,1.05,-1.58,-0.62,0.70,
2.563,-0.15,0.06,1.05,-1.58,-0.62,0.70,
2.566,-0.14,0.07,1.05,-1.58,-0.62,0.70,
2.566,-0.14,0.07,1.05,-1.55,-0.49,0.64,
2.568,-0.14,0.08,1.05,-1.55,-0.49,0.64,
2.571,-0.14,0.08,1.05,-1.51,-0.33,0.61,
2.572,-0.14,0.08,1.04,-1.51,-0.33,0.61,
2.572,-0.13,0.08,1.04,-1.51,-0.33,0.61,
2.576,-0.13,0.09,1.03,-1.51,-0.33,0.61,
2.576,-0.13,0.09,1.03,-1.46,-0.20,0.52,
2.578,-0.13,0.09,1.02,-1.46,-0.20,0.52,
2.58,-0.13,0.10,1.02,-1.46,-0.20,0.52,
2.581,-0.13,0.10,1.02,-1.37,-0.11,0.44,
2.583,-0.13,0.10,1.02,-1.37,-0.11,0.44,
2.585,-0.13,0.10,1.02,-1.37,-0.11,0.44,
2.585,-0.13,0.10,1.02,-1.33,-0.04,0.33,
2.592,-0.13,0.10,1.01,-1.33,-0.04,0.33,
2.592,-0.13,0.10,1.00,-1.33,-0.04,0.33,
2.593,-0.13,0.10,1.00,-1.31,0.01,0.31,
2.593,-0.13,0.09,1.00,-1.31,0.01,0.31,
2.597,-0.13,0.09,1.00,-1.28,0.04,0.17,
2.597,-0.12,0.10,0.99,-1.28,0.04,0.17,
2.597,-0.12,0.09,0.98,-1.28,0.04,0.17,
2.6,-0.11,0.09,0.97,-1.28,0.04,0.17,
2.6,-0.11,0.09,0.97,-1.19,-0.01,0.05,
2.603,-0.11,0.08,0.97,-1.19,-0.01,0.05,
2.605,-0.10,0.08,0.98,-1.19,-0.01,0.05,
2.605,-0.10,0.08,0.98,-1.09,-0.02,-0.08,
2.607,-0.10,0.08,0.97,-1.09,-0.02,-0.08,
2.609,-0.10,0.08,0.97,-0.96,-0.12,-0.12,
2.61,-0.09,0.08,0.97,-0.96,-0.12,-0.12,
2.612,-0.09,0.07,0.98,-0.96,-0.12,-0.12,
2.615,-0.09,0.07,0.99,-0.96,-0.12,-0.12,
2.616,-0.09,0.07,0.99,-0.87,-0.14,-0.16,
2.618,-0.09,0.06,0.99,-0.87,-0.14,-0.16,
2.621,-0.09,0.06,1.00,-0.87,-0.14,-0.16,
2.622,-0.09,0.06,1.00,-0.83,-0.22,-0.05,
2.622,-0.10,0.06,1.01,-0.83,-0.22,-0.05,
2.625,-0.10,0.07,1.01,-0.83,-0.22,-0.05,
2.625,-0.10,0.07,1.01,-0.84,-0.26,0.06,
2.627,-0.10,0.06,1.03,-0.84,-0.26,0.06,
2.629,-0.10,0.06,1.04,-0.84,-0.26,0.06,
2.63,-0.10,0.06,1.04,-0.90,-0.23,0.21,
2.632,-0.11,0.06,1.04,-0.90,-0.23,0.21,
2.635,-0.11,0.06,1.04,-0.90,-0.23,0.21,
2.636,-0.11,0.06,1.04,-0.92,-0.24,0.43,
2.638,-0.11,0.06,1.05,-0.92,-0.24,0.43,
2.64,-0.11,0.06,1.06,-0.92,-0.24,0.43,
2.64,-0.11,0.06,1.06,-0.94,-0.23,0.50,
2.643,-0.11,0.06,1.06,-0.94,-0.23,0.50,
2.644,-0.11,0.06,1.06,-0.94,-0.23,0.50,
2.644,-0.11,0.06,1.06,-0.93,-0.26,0.60,
2.647,-0.10,0.06,1.06,-0.93,-0.26,0.60,
2.649,-0.10,0.06,1.07,-0.93,-0.26,0.60,
2.649,-0.10,0.06,1.07,-0.92,-0.22,0.69,
2.652,-0.11,0.06,1.07,-0.92,-0.22,0.69,
2.655,-0.11,0.06,1.07,-0.89,-0.21,0.75,
2.655,-0.11,0.06,1.07,-0.89,-0.21,0.75,
2.657,-0.10,0.06,1.08,-0.89,-0.21,0.75,
2.66,-0.10,0.06,1.08,-0.90,-0.21,0.80,
2.66,-0.10,0.07,1.08,-0.90,-0.21,0.80,
2.662,-0.10,0.06,1.08,-0.90,-0.21,0.80,
2.665,-0.10,0.07,1.09,-0.90,-0.21,0.80,
2.665,-0.10,0.07,1.09,-0.86,-0.19,0.86,
2.667,-0.10,0.07,1.09,-0.86,-0.19,0.86,
2.669,-0.10,0.07,1.09,-0.86,-0.19,0.86,
2.669,-0.10,0.07,1.09,-0.85,-0.15,0.91,
2.673,-0.10,0.07,1.09,-0.85,-0.15,0.91,
2.674,-0.10,0.08,1.09,-0.85,-0.15,0.91,
2.675,-0.10,0.08,1.09,-0.84,-0.08,0.98,
2.676,-0.10,0.08,1.09,-0.84,-0.08,0.98,
2.68,-0.09,0.08,1.09,-0.84,-0.08,0.98,
2.68,-0.09,0.08,1.09,-0.83,-0.07,0.94,
2.682,-0.09,0.09,1.08,-0.83,-0.07,0.94,
2.684,-0.09,0.09,1.08,-0.83,-0.07,0.94,
2.684,-0.09,0.09,1.08,-0.77,-0.02,0.93,
2.686,-0.08,0.09,1.07,-0.77,-0.02,0.93,
2.693,-0.07,0.09,1.06,-0.77,-0.02,0.93,
2.694,-0.07,0.09,1.06,-0.67,0.07,0.86,
2.694,-0.07,0.10,1.05,-0.67,0.07,0.86,
2.694,-0.07,0.10,1.05,-0.67,0.07,0.86,
2.695,-0.07,0.10,1.05,-0.58,0.09,0.71,
2.696,-0.06,0.10,1.03,-0.58,0.09,0.71,
2.698,-0.06,0.10,1.02,-0.58,0.09,0.71,
2.699,-0.06,0.10,1.02,-0.51,0.15,0.57,
2.701,-0.05,0.11,1.01,-0.51,0.15,0.57,
2.704,-0.04,0.11,1.00,-0.51,0.15,0.57,
2.704,-0.04,0.11,1.00,-0.40,0.16,0.36,
2.706,-0.04,0.11,0.99,-0.40,0.16,0.36,
2.708,-0.03,0.12,0.98,-0.40,0.16,0.36,
2.708,-0.03,0.12,0.98,-0.25,0.24,0.17,
2.711,-0.03,0.12,0.97,-0.25,0.24,0.17,
2.713,-0.03,0.12,0.97,-0.25,0.24,0.17,
2.714,-0.03,0.12,0.97,-0.16,0.32,-0.04,
2.716,-0.03,0.13,0.97,-0.16,0.32,-0.04,
2.718,-0.02,0.13,0.97,-0.16,0.32,-0.04,
2.719,-0.02,0.13,0.97,-0.07,0.36,-0.19,
2.721,-0.02,0.14,0.97,-0.07,0.36,-0.19,
2.723,-0.02,0.14,0.97,-0.07,0.36,-0.19,
2.723,-0.02,0.14,0.97,-0.04,0.43,-0.21,
2.726,-0.02,0.14,0.97,-0.04,0.43,-0.21,
2.727,-0.03,0.14,0.98,-0.04,0.43,-0.21,
2.728,-0.03,0.14,0.98,-0.01,0.49,-0.21,
2.731,-0.03,0.13,0.98,-0.01,0.49,-0.21,
2.733,-0.04,0.13,0.99,-0.01,0.49,-0.21,
2.734,-0.04,0.13,0.99,-0.08,0.48,-0.13,
2.738,-0.04,0.13,1.00,-0.08,0.48,-0.13,
2.738,-0.05,0.13,1.00,-0.08,0.48,-0.13,
2.739,-0.05,0.13,1.00,-0.19,0.44,-0.03,
2.74,-0.05,0.12,1.00,-0.19,0.44,-0.03,
2.743,-0.05,0.12,1.01,-0.19,0.44,-0.03,
2.744,-0.05,0.12,1.01,-0.30,0.40,0.06,
2.746,-0.05,0.12,1.01,-0.30,0.40,0.06,
2.747,-0.06,0.11,1.01,-0.30,0.40,0.06,
2.748,-0.06,0.11,1.01,-0.38,0.32,0.16,
2.75,-0.06,0.10,1.01,-0.38,0.32,0.16,
2.753,-0.06,0.10,1.02,-0.38,0.32,0.16,
2.754,-0.06,0.10,1.02,-0.42,0.24,0.21,
2.755,-0.06,0.09,1.02,-0.42,0.24,0.21,
2.757,-0.06,0.08,1.03,-0.42,0.24,0.21,
2.758,-0.06,0.08,1.03,-0.48,0.13,0.27,
2.76,-0.06,0.08,1.03,-0.48,0.13,0.27,
2.762,-0.07,0.07,1.02,-0.48,0.13,0.27,
2.762,-0.07,0.07,1.02,-0.49,-0.01,0.32,
2.765,-0.07,0.07,1.03,-0.49,-0.01,0.32,
2.767,-0.07,0.07,1.03,-0.49,-0.01,0.32,
2.767,-0.07,0.07,1.03,-0.55,-0.10,0.34,
2.771,-0.07,0.06,1.03,-0.55,-0.10,0.34,
2.772,-0.07,0.06,1.03,-0.55,-0.10,0.34,
2.772,-0.07,0.06,1.03,-0.57,-0.19,0.36,
2.775,-0.07,0.06,1.03,-0.57,-0.19,0.36,
2.779,-0.07,0.06,1.03,-0.57,-0.19,0.36,
2.779,-0.07,0.06,1.03,-0.59,-0.22,0.37,
2.785,-0.07,0.06,1.04,-0.59,-0.22,0.37,
2.785,-0.08,0.06,1.04,-0.59,-0.22,0.37,
2.785,-0.08,0.06,1.04,-0.64,-0.26,0.41,
2.786,-0.08,0.06,1.04,-0.64,-0.26,0.41,
2.794,-0.08,0.06,1.04,-0.64,-0.26,0.41,
2.795,-0.08,0.06,1.04,-0.66,-0.23,0.46,
2.795,-0.08,0.06,1.04,-0.66,-0.23,0.46,
2.795,-0.08,0.06,1.04,-0.66,-0.23,0.46,
2.795,-0.08,0.06,1.04,-0.70,-0.23,0.49,
2.796,-0.08,0.06,1.04,-0.70,-0.23,0.49,
2.797,-0.07,0.07,1.04,-0.70,-0.23,0.49,
2.799,-0.07,0.07,1.04,-0.71,-0.23,0.48,
2.8,-0.07,0.07,1.04,-0.71,-0.23,0.48,
2.81,-0.07,0.07,1.03,-0.71,-0.23,0.48,
2.811,-0.07,0.07,1.03,-0.68,-0.20,0.49,
2.811,-0.07,0.08,1.03,-0.68,-0.20,0.49,
2.812,-0.06,0.08,1.03,-0.68,-0.20,0.49,
2.812,-0.06,0.08,1.03,-0.65,-0.14,0.41,
2.812,-0.05,0.08,1.02,-0.65,-0.14,0.41,
2.813,-0.04,0.09,1.01,-0.65,-0.14,0.41,
2.813,-0.04,0.09,1.01,-0.58,-0.05,0.36,
2.816,-0.04,0.09,1.01,-0.58,-0.05,0.36,
2.817,-0.04,0.09,1.01,-0.58,-0.05,0.36,
2.817,-0.04,0.09,1.01,-0.41,-0.01,0.23,
2.821,-0.03,0.09,1.00,-0.41,-0.01,0.23,
2.822,-0.02,0.10,0.99,-0.41,-0.01,0.23,
2.822,-0.02,0.10,0.99,-0.31,0.07,0.18,
2.824,-0.01,0.10,0.99,-0.31,0.07,0.18,
2.827,-0.01,0.10,0.99,-0.31,0.07,0.18,
2.827,-0.01,0.10,0.99,-0.23,0.11,0.05,
2.83,-0.01,0.11,0.99,-0.23,0.11,0.05,
2.832,-0.01,0.11,1.00,-0.23,0.11,0.05,
2.832,-0.01,0.11,1.00,-0.10,0.17,0.02,
2.835,-0.00,0.11,1.00,-0.10,0.17,0.02,
2.837,-0.00,0.11,1.00,-0.10,0.17,0.02,
2.837,-0.00,0.11,1.00,-0.05,0.26,0.03,
2.84,0.00,0.12,0.99,-0.05,0.26,0.03,
2.842,-0.00,0.12,1.00,-0.05,0.26,0.03,
2.842,-0.00,0.12,1.00,-0.01,0.27,0.06,
2.845,0.00,0.12,1.00,-0.01,0.27,0.06,
2.847,0.01,0.12,1.00,-0.01,0.27,0.06,
2.848,0.01,0.12,1.00,0.03,0.34,0.03,
2.85,0.01,0.12,1.00,0.03,0.34,0.03,
2.852,0.01,0.12,1.00,0.03,0.34,0.03,
2.852,0.01,0.12,1.00,0.07,0.36,0.11,
2.854,0.01,0.12,1.01,0.07,0.36,0.11,
2.857,0.02,0.12,1.01,0.07,0.36,0.11,
2.857,0.02,0.12,1.01,0.09,0.36,0.08,
2.859,0.02,0.11,1.02,0.09,0.36,0.08,
2.862,0.02,0.11,1.02,0.15,0.32,0.18,
2.862,0.02,0.11,1.02,0.15,0.32,0.18,
2.865,0.02,0.11,1.02,0.15,0.32,0.18,
2.867,0.02,0.11,1.02,0.15,0.32,0.18,
2.867,0.02,0.11,1.02,0.17,0.30,0.23,
2.871,0.02,0.11,1.02,0.17,0.30,0.23,
2.872,0.02,0.11,1.03,0.17,0.30,0.23,
2.872,0.02,0.11,1.03,0.21,0.28,0.24,
2.874,0.02,0.11,1.03,0.21,0.28,0.24,
2.878,0.03,0.11,1.03,0.21,0.28,0.24,
2.878,0.03,0.11,1.03,0.22,0.27,0.31,
2.881,0.03,0.11,1.03,0.22,0.27,0.31,
2.882,0.02,0.11,1.03,0.22,0.27,0.31,
2.883,0.02,0.11,1.03,0.21,0.30,0.37,
2.885,0.02,0.11,1.03,0.21,0.30,0.37,
2.886,0.01,0.11,1.04,0.21,0.30,0.37,
2.887,0.01,0.11,1.04,0.19,0.27,0.39,
2.889,0.01,0.11,1.04,0.19,0.27,0.39,
2.892,0.01,0.11,1.04,0.19,0.27,0.39,
2.892,0.01,0.11,1.04,0.13,0.27,0.40,
2.895,0.01,0.10,1.03,0.13,0.27,0.40,
2.897,0.00,0.10,1.03,0.13,0.27,0.40,
2.897,0.00,0.10,1.03,0.09,0.26,0.43,
2.9,0.00,0.09,1.03,0.09,0.26,0.43,
2.902,-0.01,0.09,1.03,0.09,0.26,0.43,
2.902,-0.01,0.09,1.03,0.01,0.18,0.36,
2.909,-0.01,0.09,1.03,0.01,0.18,0.36,
2.91,-0.01,0.09,1.03,-0.08,0.10,0.32,
2.91,-0.01,0.09,1.02,-0.08,0.10,0.32,
2.91,-0.02,0.09,1.01,-0.08,0.10,0.32,
2.911,-0.02,0.08,1.02,-0.08,0.10,0.32,
2.912,-0.02,0.08,1.02,-0.18,0.05,0.29,
2.914,-0.03,0.07,1.02,-0.18,0.05,0.29,
2.916,-0.03,0.08,1.01,-0.18,0.05,0.29,
2.916,-0.03,0.08,1.01,-0.23,0.01,0.20,
2.919,-0.04,0.08,1.02,-0.23,0.01,0.20,
2.921,-0.03,0.07,1.02,-0.23,0.01,0.20,
2.922,-0.03,0.07,1.02,-0.35,-0.05,0.20,
2.925,-0.02,0.06,1.02,-0.35,-0.05,0.20,
2.926,0.00,0.06,1.03,-0.35,-0.05,0.20,
2.927,0.00,0.06,1.03,-0.39,-0.10,0.20,
2.929,0.03,0.06,1.04,-0.39,-0.10,0.20,
2.932,0.03,0.06,1.04,-0.10,-0.19,0.29,
2.932,0.05,0.06,1.05,-0.10,-0.19,0.29,
2.934,0.07,0.06,1.05,-0.10,-0.19,0.29,
2.939,0.07,0.06,1.05,0.32,-0.24,0.44,
2.939,0.09,0.07,1.04,0.32,-0.24,0.44,
2.939,0.11,0.07,1.04,0.32,-0.24,0.44,
2.942,0.11,0.07,1.04,0.77,-0.16,0.47,
2.942,0.10,0.09,1.05,0.77,-0.16,0.47,
2.944,0.10,0.10,1.05,0.77,-0.16,0.47,
2.946,0.09,0.10,1.04,0.77,-0.16,0.47,
2.946,0.09,0.10,1.04,0.97,-0.01,0.46,
2.949,0.07,0.11,1.04,0.97,-0.01,0.46,
2.951,0.06,0.11,1.04,0.97,-0.01,0.46,
2.951,0.06,0.11,1.04,0.85,0.17,0.47,
2.953,0.04,0.11,1.04,0.85,0.17,0.47,
2.956,0.03,0.11,1.03,0.85,0.17,0.47,
2.957,0.03,0.11,1.03,0.63,0.26,0.43,
2.959,0.03,0.10,1.03,0.63,0.26,0.43,
2.961,0.02,0.09,1.04,0.63,0.26,0.43,
2.961,0.02,0.09,1.04,0.36,0.29,0.37,
2.964,0.02,0.08,1.03,0.36,0.29,0.37,
2.966,0.01,0.08,1.04,0.36,0.29,0.37,
2.967,0.01,0.08,1.04,0.25,0.18,0.35,
2.969,0.01,0.07,1.04,0.25,0.18,0.35,
2.972,-0.00,0.06,1.04,0.25,0.18,0.35,
2.973,-0.00,0.06,1.04,0.16,0.00,0.36,
2.973,-0.00,0.06,1.04,0.16,0.00,0.36,
2.976,-0.01,0.05,1.05,0.16,0.00,0.36,
2.976,-0.01,0.05,1.05,0.02,-0.12,0.38,
2.979,-0.00,0.05,1.05,0.02,-0.12,0.38,
2.981,-0.00,0.05,1.05,-0.05,-0.21,0.43,
2.982,-0.00,0.06,1.05,-0.05,-0.21,0.43,
2.984,-0.00,0.05,1.05,-0.05,-0.21,0.43,
2.986,-0.00,0.05,1.05,-0.05,-0.21,0.43,
2.987,-0.00,0.05,1.05,-0.03,-0.21,0.46,
2.99,-0.00,0.06,1.05,-0.03,-0.21,0.46,
2.991,0.00,0.07,1.04,-0.03,-0.21,0.46,
2.991,0.00,0.07,1.04,-0.03,-0.21,0.50,
2.994,-0.00,0.06,1.04,-0.03,-0.21,0.50,
2.996,-0.00,0.07,1.04,-0.03,-0.21,0.50,
2.997,-0.00,0.07,1.04,-0.02,-0.13,0.44,
2.999,-0.00,0.08,1.03,-0.02,-0.13,0.44,
3.001,-0.01,0.08,1.03,-0.02,-0.13,0.44,
3.001,-0.01,0.08,1.03,-0.03,-0.09,0.37,
3.006,-0.01,0.08,1.03,-0.03,-0.09,0.37,
3.006,-0.01,0.08,1.02,-0.03,-0.09,0.37,
3.007,-0.01,0.08,1.02,-0.08,0.00,0.30,
3.008,-0.01,0.08,1.02,-0.08,0.00,0.30,
3.012,-0.02,0.08,1.01,-0.08,0.00,0.30,
3.012,-0.02,0.08,1.01,-0.11,0.01,0.21,
3.014,-0.03,0.08,1.01,-0.11,0.01,0.21,
3.016,-0.03,0.08,1.01,-0.11,0.01,0.21,
3.016,-0.03,0.08,1.01,-0.18,0.03,0.11,
3.019,-0.04,0.08,1.00,-0.18,0.03,0.11,
3.027,-0.04,0.08,1.00,-0.18,0.03,0.11,
3.027,-0.04,0.08,1.00,-0.32,0.04,0.04,
3.028,-0.04,0.08,1.00,-0.32,0.04,0.04,
3.028,-0.04,0.07,0.99,-0.32,0.04,0.04,
3.028,-0.04,0.07,0.99,-0.39,0.04,-0.03,
3.03,-0.05,0.07,0.99,-0.39,0.04,-0.03,
3.031,-0.05,0.07,0.99,-0.42,-0.03,-0.08,
3.031,-0.05,0.07,0.99,-0.42,-0.03,-0.08,
3.032,-0.04,0.06,0.99,-0.42,-0.03,-0.08,
3.035,-0.04,0.06,0.99,-0.42,-0.03,-0.08,
3.035,-0.04,0.06,0.99,-0.50,-0.09,-0.14,
3.04,-0.04,0.06,0.98,-0.50,-0.09,-0.14,
3.041,-0.03,0.06,0.98,-0.50,-0.09,-0.14,
3.042,-0.03,0.06,0.98,-0.43,-0.15,-0.14,
3.042,-0.02,0.05,0.98,-0.43,-0.15,-0.14,
3.046,-0.02,0.05,0.98,-0.43,-0.15,-0.14,
3.046,-0.02,0.05,0.98,-0.38,-0.20,-0.17,
3.048,-0.01,0.06,0.97,-0.38,-0.20,-0.17,
3.05,-0.01,0.06,0.98,-0.38,-0.20,-0.17,
3.051,-0.01,0.06,0.98,-0.24,-0.24,-0.20,
3.053,-0.00,0.06,0.98,-0.24,-0.24,-0.20,
3.055,-0.00,0.06,0.98,-0.13,-0.21,-0.25,
3.056,0.00,0.06,0.97,-0.13,-0.21,-0.25,
3.058,0.01,0.06,0.97,-0.13,-0.21,-0.25,
3.06,0.01,0.07,0.98,-0.13,-0.21,-0.25,
3.061,0.01,0.07,0.98,-0.01,-0.18,-0.28,
3.063,0.01,0.07,0.98,-0.01,-0.18,-0.28,
3.065,0.01,0.07,0.98,0.09,-0.11,-0.25,
3.066,0.02,0.08,0.99,0.09,-0.11,-0.25,
3.068,0.01,0.08,0.99,0.09,-0.11,-0.25,
3.07,0.01,0.08,0.99,0.09,-0.11,-0.25,
3.07,0.01,0.08,0.99,0.11,-0.03,-0.17,
3.072,0.01,0.08,1.00,0.11,-0.03,-0.17,
3.075,0.01,0.08,1.00,0.11,-0.03,-0.17,
3.076,0.01,0.08,1.00,0.10,0.03,-0.12,
3.077,0.01,0.08,1.00,0.10,0.03,-0.12,
3.081,0.01,0.08,1.00,0.09,0.02,-0.01,
3.081,0.01,0.07,1.01,0.09,0.02,-0.01,
3.083,0.01,0.07,1.02,0.09,0.02,-0.01,
3.085,0.01,0.07,1.02,0.09,0.02,-0.01,
3.086,0.01,0.07,1.02,0.07,-0.02,0.06,
3.087,0.01,0.06,1.02,0.07,-0.02,0.06,
3.09,0.01,0.06,1.03,0.07,-0.02,0.06,
3.09,0.01,0.06,1.03,0.07,-0.07,0.19,
3.092,0.00,0.06,1.03,0.07,-0.07,0.19,
3.096,0.00,0.06,1.03,0.07,-0.13,0.26,
3.096,0.00,0.06,1.03,0.07,-0.13,0.26,
3.098,0.00,0.06,1.03,0.07,-0.13,0.26,
3.1,-0.00,0.06,1.04,0.07,-0.13,0.26,
3.1,-0.00,0.06,1.04,-0.01,-0.18,0.31,
3.103,-0.00,0.06,1.04,-0.01,-0.18,0.31,
3.11,-0.00,0.06,1.04,-0.04,-0.15,0.36,
3.11,-0.00,0.06,1.04,-0.04,-0.15,0.36,
3.111,-0.00,0.06,1.04,-0.04,-0.15,0.36,
3.111,-0.00,0.07,1.04,-0.04,-0.15,0.36,
3.111,-0.00,0.07,1.04,-0.08,-0.15,0.40,
3.114,-0.01,0.07,1.03,-0.08,-0.15,0.40,
3.115,-0.01,0.07,1.03,-0.08,-0.15,0.40,
3.115,-0.01,0.07,1.03,-0.08,-0.11,0.33,
3.117,-0.01,0.07,1.03,-0.08,-0.11,0.33,
3.119,-0.01,0.07,1.02,-0.08,-0.11,0.33,
3.119,-0.01,0.07,1.02,-0.10,-0.07,0.28,
3.122,-0.01,0.07,1.02,-0.10,-0.07,0.28,
3.125,-0.02,0.08,1.01,-0.10,-0.07,0.28,
3.125,-0.02,0.08,1.01,-0.12,-0.08,0.23,
3.127,-0.01,0.07,1.00,-0.12,-0.08,0.23,
3.131,-0.01,0.07,1.00,-0.17,-0.02,0.13,
3.132,-0.01,0.08,1.00,-0.17,-0.02,0.13,
3.132,-0.01,0.07,0.99,-0.17,-0.02,0.13,
3.134,-0.01,0.08,0.98,-0.17,-0.02,0.13,
3.134,-0.01,0.08,0.98,-0.17,-0.03,-0.01,
3.136,-0.01,0.08,0.98,-0.17,-0.03,-0.01,
3.139,-0.01,0.08,0.97,-0.17,-0.03,-0.01,
3.14,-0.01,0.08,0.97,-0.14,-0.01,-0.14,
3.142,-0.00,0.09,0.96,-0.14,-0.01,-0.14,
3.144,0.01,0.09,0.96,-0.14,-0.01,-0.14,
3.144,0.01,0.09,0.96,-0.11,0.05,-0.29,
3.147,0.00,0.09,0.95,-0.11,0.05,-0.29,
3.149,0.01,0.09,0.95,-0.11,0.05,-0.29,
3.149,0.01,0.09,0.95,-0.01,0.08,-0.38,
3.154,0.01,0.09,0.95,-0.01,0.08,-0.38,
3.154,0.01,0.09,0.94,-0.01,0.08,-0.38,
3.154,0.01,0.09,0.94,0.04,0.08,-0.49,
3.156,0.02,0.09,0.94,0.04,0.08,-0.49,
3.159,0.02,0.09,0.95,0.04,0.08,-0.49,
3.159,0.02,0.09,0.95,0.08,0.11,-0.54,
3.162,0.01,0.09,0.94,0.08,0.11,-0.54,
3.164,0.01,0.09,0.95,0.08,0.11,-0.54,
3.164,0.01,0.09,0.95,0.11,0.09,-0.58,
3.167,0.01,0.08,0.96,0.11,0.09,-0.58,
3.169,0.02,0.09,0.96,0.11,0.09,-0.58,
3.169,0.02,0.09,0.96,0.08,0.08,-0.53,
3.172,0.02,0.08,0.96,0.08,0.08,-0.53,
3.174,0.02,0.08,0.97,0.08,0.08,-0.53,
3.174,0.02,0.08,0.97,0.12,0.07,-0.41,
3.176,0.03,0.07,0.98,0.12,0.07,-0.41,
3.179,0.03,0.07,0.98,0.12,0.07,-0.41,
3.179,0.03,0.07,0.98,0.18,0.01,-0.34,
3.182,0.03,0.07,0.98,0.18,0.01,-0.34,
3.184,0.03,0.08,0.99,0.18,0.01,-0.34,
3.185,0.03,0.08,0.99,0.22,-0.04,-0.18,
3.187,0.03,0.08,1.00,0.22,-0.04,-0.18,
3.189,0.02,0.07,1.00,0.22,-0.04,-0.18,
3.19,0.02,0.07,1.00,0.21,-0.03,-0.12,
3.192,0.02,0.07,1.01,0.21,-0.03,-0.12,
3.193,0.02,0.07,1.02,0.21,-0.03,-0.12,
3.194,0.02,0.07,1.02,0.20,-0.03,-0.02,
3.196,0.02,0.07,1.02,0.20,-0.03,-0.02,
3.199,0.02,0.07,1.03,0.20,-0.03,-0.02,
3.199,0.02,0.07,1.03,0.17,-0.04,0.14,
3.201,0.01,0.07,1.03,0.17,-0.04,0.14,
3.204,0.02,0.06,1.03,0.17,-0.04,0.14,
3.204,0.02,0.06,1.03,0.14,-0.10,0.24,
3.207,0.02,0.06,1.03,0.14,-0.10,0.24,
3.209,0.01,0.06,1.03,0.14,-0.10,0.24,
3.209,0.01,0.06,1.03,0.09,-0.11,0.32,
3.211,0.01,0.06,1.03,0.09,-0.11,0.32,
3.214,0.01,0.06,1.03,0.07,-0.14,0.30,
3.214,0.01,0.06,1.03,0.07,-0.14,0.30,
3.216,0.01,0.07,1.02,0.07,-0.14,0.30,
3.219,0.01,0.07,1.02,0.07,-0.14,0.30,
3.219,0.01,0.07,1.02,0.05,-0.14,0.30,
3.223,0.01,0.07,1.02,0.05,-0.14,0.30,
3.223,0.01,0.07,1.01,0.05,-0.14,0.30,
3.223,0.01,0.07,1.01,0.04,-0.10,0.20,
3.226,0.01,0.07,1.01,0.04,-0.10,0.20,
3.23,0.01,0.07,1.01,-0.00,-0.04,0.12,
3.23,0.00,0.07,1.01,-0.00,-0.04,0.12,
3.232,0.00,0.08,1.00,-0.00,-0.04,0.12,
3.233,-0.00,0.07,1.00,-0.00,-0.04,0.12,
3.234,-0.00,0.07,1.00,-0.03,-0.02,0.06,
3.236,-0.00,0.07,1.00,-0.03,-0.02,0.06,
3.244,-0.00,0.07,0.99,-0.03,-0.02,0.06,
3.245,-0.00,0.07,0.99,-0.07,-0.02,-0.03,
3.246,-0.01,0.07,0.98,-0.07,-0.02,-0.03,
3.246,-0.01,0.07,0.98,-0.07,-0.02,-0.03,
3.246,-0.01,0.07,0.98,-0.13,-0.06,-0.07,
3.246,-0.01,0.07,0.98,-0.13,-0.06,-0.07,
3.248,-0.01,0.08,0.96,-0.13,-0.06,-0.07,
3.248,-0.01,0.08,0.96,-0.18,-0.08,-0.16,
3.251,-0.02,0.08,0.94,-0.18,-0.08,-0.16,
3.253,-0.02,0.08,0.94,-0.21,-0.04,-0.31,
3.253,-0.01,0.08,0.92,-0.21,-0.04,-0.31,
3.257,-0.00,0.08,0.92,-0.21,-0.04,-0.31,
3.258,-0.00,0.08,0.92,-0.25,0.01,-0.72,
3.258,-0.00,0.08,0.92,-0.25,0.01,-0.72,
3.26,-0.01,0.08,0.91,-0.25,0.01,-0.72,
3.263,-0.02,0.08,0.93,-0.25,0.01,-0.72,
3.264,-0.02,0.08,0.93,-0.12,-0.03,-0.81,
3.266,-0.02,0.08,0.92,-0.12,-0.03,-0.81,
3.268,-0.02,0.09,0.92,-0.12,-0.03,-0.81,
3.269,-0.02,0.09,0.92,-0.20,0.02,-0.76,
3.27,-0.03,0.09,0.92,-0.20,0.02,-0.76,
3.276,-0.02,0.10,0.92,-0.20,0.02,-0.76,
3.276,-0.02,0.10,0.92,-0.31,0.08,-0.73,
3.276,-0.02,0.10,0.92,-0.31,0.08,-0.73,
3.282,-0.01,0.10,0.92,-0.31,0.08,-0.73,
3.283,-0.01,0.10,0.92,-0.31,0.17,-0.74,
3.283,0.00,0.10,0.92,-0.31,0.17,-0.74,
3.283,0.01,0.10,0.94,-0.31,0.17,-0.74,
3.284,0.01,0.10,0.94,-0.20,0.24,-0.74,
3.285,0.02,0.10,0.95,-0.20,0.24,-0.74,
3.296,0.03,0.09,0.97,-0.20,0.24,-0.74,
3.296,0.03,0.09,0.97,0.01,0.24,-0.64,
3.296,0.03,0.08,0.99,0.01,0.24,-0.64,
3.297,0.03,0.08,1.00,0.01,0.24,-0.64,
3.299,0.03,0.08,1.00,0.17,0.20,-0.35,
3.3,0.03,0.08,1.01,0.17,0.20,-0.35,
3.3,0.03,0.08,1.01,0.17,0.20,-0.35,
3.3,0.03,0.08,1.01,0.21,0.08,-0.02,
3.3,0.03,0.07,1.01,0.21,0.08,-0.02,
3.302,0.02,0.07,1.02,0.21,0.08,-0.02,
3.303,0.02,0.07,1.02,0.23,0.02,0.15,
3.31,0.02,0.07,1.03,0.23,0.02,0.15,
3.311,0.02,0.07,1.03,0.23,0.02,0.15,
3.311,0.02,0.07,1.03,0.18,-0.01,0.20,
3.311,0.01,0.08,1.03,0.18,-0.01,0.20,
3.312,0.02,0.07,1.04,0.18,-0.01,0.20,
3.312,0.02,0.07,1.04,0.14,-0.01,0.35,
3.315,0.02,0.07,1.04,0.14,-0.01,0.35,
3.317,0.02,0.07,1.03,0.14,-0.01,0.35,
3.318,0.02,0.07,1.03,0.09,0.03,0.39,
3.319,0.01,0.07,1.04,0.09,0.03,0.39,
3.326,0.01,0.07,1.04,0.09,0.03,0.39,
3.327,0.01,0.07,1.04,0.10,0.01,0.38,
3.327,0.01,0.06,1.04,0.10,0.01,0.38,
3.327,0.01,0.06,1.04,0.00,-0.03,0.42,
3.327,0.00,0.06,1.04,0.00,-0.03,0.42,
3.331,-0.00,0.05,1.04,0.00,-0.03,0.42,
3.332,-0.01,0.05,1.05,0.00,-0.03,0.42,
3.332,-0.01,0.05,1.05,-0.04,-0.10,0.42,
3.335,-0.01,0.05,1.04,-0.04,-0.10,0.42,
3.336,-0.01,0.04,1.04,-0.04,-0.10,0.42,
3.337,-0.01,0.04,1.04,-0.14,-0.19,0.45,
3.344,-0.01,0.04,1.04,-0.14,-0.19,0.45,
3.344,-0.01,0.03,1.04,-0.14,-0.19,0.45,
3.345,-0.01,0.03,1.04,-0.19,-0.26,0.41,
3.345,-0.01,0.03,1.04,-0.19,-0.26,0.41,
3.37,-0.01,0.03,1.03,-0.19,-0.26,0.41,
3.371,-0.01,0.03,1.03,-0.24,-0.37,0.41,
3.371,-0.00,0.03,1.02,-0.24,-0.37,0.41,
3.371,-0.00,0.03,1.00,-0.24,-0.37,0.41,
3.371,-0.00,0.03,1.00,-0.20,-0.40,0.32,
3.372,-0.01,0.04,0.99,-0.20,-0.40,0.32,
3.372,-0.00,0.04,0.98,-0.20,-0.40,0.32,
3.372,-0.00,0.04,0.98,-0.15,-0.41,0.07,
3.372,-0.00,0.03,0.98,-0.15,-0.41,0.07,
3.372,-0.01,0.03,0.99,-0.15,-0.41,0.07,
3.373,-0.01,0.03,0.99,-0.18,-0.37,-0.16,
3.373,-0.00,0.03,0.98,-0.18,-0.37,-0.16,
3.373,-0.00,0.03,0.97,-0.18,-0.37,-0.16,
3.373,-0.00,0.03,0.97,-0.21,-0.40,-0.16,
3.374,-0.01,0.02,0.97,-0.21,-0.40,-0.16,
3.374,-0.01,0.02,0.97,-0.21,-0.40,-0.16,
3.374,-0.01,0.02,0.97,-0.18,-0.47,-0.22,
3.374,-0.01,0.02,0.96,-0.18,-0.47,-0.22,
3.379,-0.01,0.02,0.96,-0.23,-0.54,-0.25,
3.38,-0.01,0.03,0.97,-0.23,-0.54,-0.25,
3.38,-0.01,0.02,0.97,-0.23,-0.54,-0.25,
