
time,gFx,gFy,gFz,ax,ay,az,
0.001,0.03,0.18,0.97,0.15,0.10,0.19,
0.002,0.03,0.18,0.96,0.15,0.10,0.19,
0.002,0.03,0.18,0.96,0.08,0.08,-0.05,
0.003,0.02,0.18,0.95,0.08,0.08,-0.05,
0.003,0.02,0.18,0.95,0.08,0.08,-0.05,
0.004,0.02,0.18,0.95,0.04,0.08,-0.21,
0.004,0.02,0.17,0.95,0.04,0.08,-0.21,
0.004,0.02,0.18,0.94,0.04,0.08,-0.21,
0.005,0.02,0.18,0.94,-0.02,0.07,-0.32,
0.011,0.01,0.18,0.94,-0.02,0.07,-0.32,
0.011,0.01,0.18,0.95,-0.02,0.07,-0.32,
0.012,0.01,0.18,0.95,-0.06,0.03,-0.39,
0.012,0.01,0.18,0.94,-0.06,0.03,-0.39,
0.014,0.01,0.19,0.95,-0.06,0.03,-0.39,
0.014,0.01,0.19,0.95,-0.13,0.08,-0.38,
0.023,0.01,0.19,0.96,-0.13,0.08,-0.38,
0.024,0.01,0.19,0.95,-0.13,0.08,-0.38,
0.024,0.01,0.19,0.95,-0.15,0.12,-0.38,
0.024,0.01,0.20,0.95,-0.15,0.12,-0.38,
0.025,0.00,0.19,0.96,-0.15,0.12,-0.38,
0.025,0.00,0.19,0.96,-0.18,0.16,-0.27,
0.026,0.00,0.20,0.97,-0.18,0.16,-0.27,
0.029,0.01,0.20,0.97,-0.18,0.16,-0.27,
0.029,0.01,0.20,0.97,-0.19,0.19,-0.24,
0.032,0.00,0.20,0.97,-0.19,0.19,-0.24,
0.046,0.01,0.20,0.97,-0.19,0.19,-0.24,
0.047,0.01,0.20,0.97,-0.19,0.22,-0.12,
0.047,0.01,0.20,0.98,-0.19,0.22,-0.12,
0.048,0.01,0.20,0.99,-0.19,0.22,-0.12,
0.048,0.01,0.20,0.99,-0.17,0.24,-0.08,
0.048,0.01,0.20,0.99,-0.17,0.24,-0.08,
0.048,0.01,0.20,0.99,-0.14,0.24,0.04,
0.049,0.01,0.20,0.99,-0.14,0.24,0.04,
0.049,0.01,0.20,1.00,-0.14,0.24,0.04,
0.05,0.01,0.20,1.00,-0.14,0.24,0.04,
0.05,0.01,0.20,1.00,-0.12,0.25,0.10,
0.061,0.01,0.20,1.00,-0.12,0.25,0.10,
0.062,0.01,0.20,1.00,-0.12,0.24,0.16,
0.062,0.01,0.20,1.01,-0.12,0.24,0.16,
0.062,0.00,0.20,1.02,-0.12,0.24,0.16,
0.063,0.01,0.20,1.01,-0.12,0.24,0.16,
0.063,0.01,0.20,1.01,-0.13,0.26,0.21,
0.063,0.01,0.20,1.01,-0.13,0.26,0.21,
0.065,0.01,0.20,1.03,-0.13,0.26,0.21,
0.065,0.01,0.20,1.03,-0.11,0.27,0.27,
0.076,0.02,0.20,1.02,-0.11,0.27,0.27,
0.076,0.02,0.20,1.02,-0.11,0.27,0.27,
0.077,0.02,0.20,1.02,-0.11,0.32,0.38,
0.077,0.03,0.20,1.03,-0.11,0.32,0.38,
0.077,0.02,0.21,1.03,-0.11,0.32,0.38,
0.077,0.02,0.21,1.03,-0.02,0.31,0.39,
0.078,0.02,0.20,1.05,-0.02,0.31,0.39,
0.08,0.03,0.21,1.04,-0.02,0.31,0.39,
0.08,0.03,0.21,1.04,0.06,0.32,0.45,
0.098,0.03,0.21,1.04,0.06,0.32,0.45,
0.099,0.03,0.21,1.04,0.06,0.32,0.45,
0.099,0.03,0.21,1.04,0.02,0.33,0.58,
0.099,0.03,0.21,1.05,0.02,0.33,0.58,
0.1,0.04,0.20,1.05,0.02,0.33,0.58,
0.1,0.04,0.20,1.05,0.06,0.34,0.54,
0.1,0.04,0.20,1.04,0.06,0.34,0.54,
0.1,0.04,0.20,1.04,0.06,0.34,0.54,
0.1,0.04,0.20,1.04,0.13,0.32,0.61,
0.101,0.04,0.20,1.04,0.13,0.32,0.61,
0.101,0.04,0.20,1.04,0.13,0.32,0.61,
0.101,0.04,0.20,1.04,0.16,0.28,0.53,
0.101,0.04,0.20,1.04,0.16,0.28,0.53,
0.104,0.04,0.20,1.04,0.18,0.25,0.53,
0.104,0.04,0.20,1.03,0.18,0.25,0.53,
0.107,0.04,0.19,1.02,0.18,0.25,0.53,
0.109,0.04,0.19,1.02,0.18,0.25,0.53,
0.11,0.04,0.19,1.02,0.18,0.24,0.45,
0.112,0.03,0.19,1.02,0.18,0.24,0.45,
0.114,0.04,0.19,1.01,0.18,0.24,0.45,
0.114,0.04,0.19,1.01,0.18,0.17,0.31,
0.117,0.04,0.19,1.01,0.18,0.17,0.31,
0.118,0.04,0.19,1.00,0.18,0.17,0.31,
0.119,0.04,0.19,1.00,0.13,0.12,0.28,
0.121,0.04,0.19,1.00,0.13,0.12,0.28,
0.124,0.04,0.19,1.00,0.13,0.12,0.28,
0.124,0.04,0.19,1.00,0.15,0.10,0.19,
0.125,0.03,0.18,1.01,0.15,0.10,0.19,
0.128,0.04,0.18,1.01,0.15,0.10,0.19,
0.129,0.04,0.18,1.01,0.15,0.11,0.16,
0.13,0.03,0.18,1.02,0.15,0.11,0.16,
0.134,0.03,0.18,1.02,0.15,0.11,0.16,
0.134,0.03,0.18,1.02,0.08,0.06,0.22,
0.135,0.03,0.18,1.03,0.08,0.06,0.22,
0.138,0.03,0.18,1.03,0.08,0.06,0.22,
0.138,0.03,0.18,1.03,0.02,0.07,0.29,
0.14,0.04,0.18,1.03,0.02,0.07,0.29,
0.143,0.03,0.18,1.04,0.02,0.07,0.29,
0.143,0.03,0.18,1.04,-0.00,0.03,0.42,
0.145,0.03,0.18,1.05,-0.00,0.03,0.42,
0.148,0.04,0.18,1.05,-0.00,0.03,0.42,
0.148,0.04,0.18,1.05,0.07,0.02,0.47,
0.151,0.04,0.17,1.05,0.07,0.02,0.47,
0.153,0.04,0.17,1.05,0.06,0.00,0.57,
0.154,0.04,0.17,1.05,0.06,0.00,0.57,
0.155,0.05,0.18,1.06,0.06,0.00,0.57,
0.159,0.05,0.18,1.07,0.06,0.00,0.57,
0.16,0.05,0.18,1.07,0.10,-0.06,0.62,
0.16,0.06,0.18,1.07,0.10,-0.06,0.62,
0.163,0.05,0.17,1.07,0.10,-0.06,0.62,
0.163,0.05,0.17,1.07,0.20,0.00,0.71,
0.168,0.06,0.17,1.08,0.20,0.00,0.71,
0.169,0.07,0.16,1.07,0.20,0.00,0.71,
0.169,0.07,0.16,1.07,0.25,-0.05,0.77,
0.17,0.08,0.16,1.07,0.25,-0.05,0.77,
0.173,0.08,0.16,1.08,0.25,-0.05,0.77,
0.173,0.08,0.16,1.08,0.35,-0.12,0.83,
0.175,0.09,0.16,1.08,0.35,-0.12,0.83,
0.178,0.09,0.16,1.08,0.49,-0.15,0.79,
0.178,0.09,0.16,1.07,0.49,-0.15,0.79,
0.18,0.09,0.17,1.07,0.49,-0.15,0.79,
0.19,0.09,0.16,1.06,0.49,-0.15,0.79,
0.191,0.09,0.16,1.06,0.56,-0.15,0.78,
0.191,0.09,0.16,1.06,0.56,-0.15,0.78,
0.192,0.10,0.16,1.05,0.56,-0.15,0.78,
0.192,0.10,0.16,1.05,0.59,-0.11,0.67,
0.192,0.10,0.16,1.05,0.59,-0.11,0.67,
0.193,0.10,0.16,1.05,0.66,-0.14,0.58,
0.193,0.10,0.16,1.04,0.66,-0.14,0.58,
0.195,0.10,0.16,1.04,0.66,-0.14,0.58,
0.198,0.11,0.16,1.02,0.66,-0.14,0.58,
0.198,0.11,0.16,1.02,0.69,-0.16,0.50,
0.204,0.11,0.15,1.02,0.69,-0.16,0.50,
0.205,0.11,0.15,1.02,0.74,-0.19,0.34,
0.205,0.11,0.15,1.01,0.74,-0.19,0.34,
0.205,0.11,0.15,1.01,0.74,-0.19,0.34,
0.207,0.11,0.15,1.01,0.74,-0.19,0.34,
0.208,0.11,0.15,1.01,0.80,-0.26,0.22,
0.21,0.12,0.15,1.00,0.80,-0.26,0.22,
0.212,0.12,0.15,1.00,0.80,-0.26,0.22,
0.213,0.12,0.15,1.00,0.83,-0.28,0.16,
0.215,0.12,0.15,1.00,0.83,-0.28,0.16,
0.218,0.12,0.15,0.99,0.83,-0.28,0.16,
0.219,0.12,0.15,0.99,0.91,-0.25,0.05,
0.22,0.13,0.15,0.98,0.91,-0.25,0.05,
0.222,0.13,0.15,0.98,0.91,-0.25,0.05,
0.223,0.13,0.15,0.98,0.94,-0.23,0.00,
0.225,0.13,0.15,0.99,0.94,-0.23,0.00,
0.227,0.14,0.15,0.98,0.94,-0.23,0.00,
0.227,0.14,0.15,0.98,1.03,-0.20,-0.13,
0.229,0.14,0.15,0.98,1.03,-0.20,-0.13,
0.235,0.14,0.15,0.98,1.03,-0.20,-0.13,
0.235,0.14,0.15,0.98,1.05,-0.24,-0.14,
0.236,0.15,0.15,0.98,1.05,-0.24,-0.14,
0.237,0.15,0.15,0.97,1.05,-0.24,-0.14,
0.237,0.15,0.15,0.97,1.13,-0.20,-0.17,
0.24,0.15,0.15,0.97,1.13,-0.20,-0.17,
0.242,0.15,0.15,0.98,1.13,-0.20,-0.17,
0.242,0.15,0.15,0.98,1.19,-0.21,-0.20,
0.244,0.16,0.16,0.97,1.19,-0.21,-0.20,
0.247,0.16,0.16,0.97,1.19,-0.21,-0.20,
0.247,0.16,0.16,0.97,1.23,-0.21,-0.20,
0.251,0.16,0.15,0.97,1.23,-0.21,-0.20,
0.253,0.16,0.15,0.97,1.28,-0.16,-0.22,
0.253,0.16,0.16,0.97,1.28,-0.16,-0.22,
0.255,0.16,0.16,0.98,1.28,-0.16,-0.22,
0.257,0.17,0.15,0.97,1.28,-0.16,-0.22,
0.258,0.17,0.15,0.97,1.34,-0.17,-0.25,
0.26,0.17,0.15,0.97,1.34,-0.17,-0.25,
0.262,0.17,0.16,0.97,1.34,-0.17,-0.25,
0.262,0.17,0.16,0.97,1.36,-0.17,-0.20,
0.264,0.17,0.16,0.97,1.36,-0.17,-0.20,
0.268,0.17,0.16,0.97,1.36,-0.17,-0.20,
0.269,0.17,0.16,0.97,1.39,-0.18,-0.26,
0.269,0.18,0.16,0.96,1.39,-0.18,-0.26,
0.272,0.17,0.16,0.96,1.39,-0.18,-0.26,
0.273,0.17,0.16,0.96,1.40,-0.14,-0.25,
0.274,0.17,0.15,0.96,1.40,-0.14,-0.25,
0.277,0.17,0.15,0.96,1.40,-0.14,-0.25,
0.277,0.17,0.15,0.96,1.46,-0.13,-0.32,
0.279,0.17,0.15,0.95,1.46,-0.13,-0.32,
0.281,0.17,0.15,0.93,1.46,-0.13,-0.32,
0.282,0.17,0.15,0.93,1.43,-0.19,-0.35,
0.293,0.17,0.15,0.93,1.43,-0.19,-0.35,
0.294,0.17,0.15,0.92,1.43,-0.19,-0.35,
0.294,0.17,0.15,0.92,1.46,-0.20,-0.53,
0.294,0.17,0.15,0.92,1.46,-0.20,-0.53,
0.295,0.17,0.15,0.91,1.46,-0.20,-0.53,
0.295,0.17,0.15,0.91,1.46,-0.23,-0.65,
0.295,0.17,0.15,0.90,1.46,-0.23,-0.65,
0.297,0.17,0.15,0.89,1.46,-0.23,-0.65,
0.297,0.17,0.15,0.89,1.43,-0.22,-0.76,
0.3,0.17,0.15,0.88,1.43,-0.22,-0.76,
0.302,0.18,0.15,0.88,1.43,-0.22,-0.76,
0.303,0.18,0.15,0.88,1.42,-0.26,-0.95,
0.304,0.18,0.15,0.87,1.42,-0.26,-0.95,
0.307,0.18,0.15,0.87,1.42,-0.26,-0.95,
0.307,0.18,0.15,0.87,1.49,-0.25,-1.09,
0.311,0.18,0.15,0.87,1.49,-0.25,-1.09,
0.312,0.19,0.14,0.87,1.49,-0.25,-1.09,
0.312,0.19,0.14,0.87,1.53,-0.22,-1.16,
0.315,0.19,0.15,0.87,1.53,-0.22,-1.16,
0.317,0.20,0.15,0.86,1.53,-0.22,-1.16,
0.317,0.20,0.15,0.86,1.60,-0.27,-1.16,
0.32,0.20,0.15,0.85,1.60,-0.27,-1.16,
0.322,0.20,0.15,0.85,1.60,-0.27,-1.16,
0.325,0.20,0.15,0.85,1.69,-0.24,-1.23,
0.325,0.21,0.15,0.85,1.69,-0.24,-1.23,
0.327,0.21,0.15,0.85,1.77,-0.21,-1.32,
0.328,0.21,0.15,0.85,1.77,-0.21,-1.32,
0.329,0.21,0.15,0.85,1.77,-0.21,-1.32,
0.332,0.22,0.15,0.85,1.77,-0.21,-1.32,
0.332,0.22,0.15,0.85,1.85,-0.23,-1.36,
0.334,0.22,0.15,0.85,1.85,-0.23,-1.36,
0.337,0.22,0.14,0.84,1.85,-0.23,-1.36,
0.337,0.22,0.14,0.84,1.89,-0.24,-1.33,
0.342,0.22,0.15,0.84,1.89,-0.24,-1.33,
0.342,0.23,0.14,0.84,1.89,-0.24,-1.33,
0.343,0.23,0.14,0.84,1.94,-0.27,-1.37,
0.343,0.23,0.15,0.83,1.94,-0.27,-1.37,
0.346,0.22,0.15,0.83,1.94,-0.27,-1.37,
0.347,0.22,0.15,0.83,2.03,-0.27,-1.42,
0.349,0.22,0.15,0.83,2.03,-0.27,-1.42,
0.351,0.22,0.15,0.83,2.01,-0.23,-1.49,
0.352,0.22,0.15,0.83,2.01,-0.23,-1.49,
0.354,0.23,0.15,0.82,2.01,-0.23,-1.49,
0.356,0.23,0.15,0.82,2.01,-0.23,-1.49,
0.356,0.23,0.15,0.82,1.99,-0.25,-1.49,
0.359,0.23,0.15,0.82,1.99,-0.25,-1.49,
0.361,0.22,0.15,0.82,1.99,-0.25,-1.49,
0.362,0.22,0.15,0.82,2.05,-0.23,-1.56,
0.364,0.22,0.15,0.81,2.05,-0.23,-1.56,
0.366,0.22,0.15,0.81,2.05,-0.23,-1.56,
0.367,0.22,0.15,0.81,2.02,-0.24,-1.61,
0.368,0.22,0.15,0.80,2.02,-0.24,-1.61,
0.371,0.22,0.15,0.80,2.02,-0.24,-1.61,
0.371,0.22,0.15,0.80,2.00,-0.25,-1.67,
0.374,0.22,0.14,0.80,2.00,-0.25,-1.67,
0.377,0.22,0.14,0.80,1.99,-0.24,-1.71,
0.377,0.22,0.14,0.79,1.99,-0.24,-1.71,
0.379,0.22,0.15,0.79,1.99,-0.24,-1.71,
0.381,0.22,0.14,0.79,1.99,-0.24,-1.71,
0.382,0.22,0.14,0.79,2.00,-0.30,-1.76,
0.384,0.21,0.14,0.78,2.00,-0.30,-1.76,
0.39,0.21,0.14,0.77,2.00,-0.30,-1.76,
0.391,0.21,0.14,0.77,1.94,-0.29,-1.84,
0.391,0.21,0.14,0.77,1.94,-0.29,-1.84,
0.391,0.20,0.14,0.77,1.94,-0.29,-1.84,
0.392,0.20,0.14,0.77,1.92,-0.31,-1.95,
0.393,0.20,0.14,0.77,1.92,-0.31,-1.95,
0.396,0.20,0.14,0.77,1.92,-0.31,-1.95,
0.396,0.20,0.14,0.77,1.85,-0.33,-1.96,
0.399,0.20,0.14,0.75,1.85,-0.33,-1.96,
0.4,0.20,0.14,0.75,1.81,-0.35,-2.01,
0.401,0.19,0.14,0.75,1.81,-0.35,-2.01,
0.403,0.19,0.14,0.75,1.81,-0.35,-2.01,
0.406,0.18,0.14,0.75,1.81,-0.35,-2.01,
0.406,0.18,0.14,0.75,1.73,-0.36,-2.14,
0.408,0.18,0.14,0.74,1.73,-0.36,-2.14,
0.411,0.18,0.14,0.74,1.73,-0.36,-2.14,
0.411,0.18,0.14,0.74,1.66,-0.34,-2.15,
0.414,0.17,0.14,0.74,1.66,-0.34,-2.15,
0.416,0.17,0.14,0.73,1.66,-0.34,-2.15,
0.416,0.17,0.14,0.73,1.57,-0.39,-2.22,
0.419,0.17,0.14,0.73,1.57,-0.39,-2.22,
0.421,0.17,0.13,0.73,1.57,-0.39,-2.22,
0.421,0.17,0.13,0.73,1.50,-0.37,-2.27,
0.423,0.16,0.14,0.73,1.50,-0.37,-2.27,
0.426,0.16,0.14,0.73,1.44,-0.41,-2.33,
0.426,0.16,0.14,0.72,1.44,-0.41,-2.33,
0.429,0.15,0.14,0.72,1.44,-0.41,-2.33,
0.431,0.15,0.13,0.71,1.44,-0.41,-2.33,
0.432,0.15,0.13,0.71,1.36,-0.38,-2.33,
0.434,0.16,0.13,0.71,1.36,-0.38,-2.33,
0.436,0.15,0.13,0.71,1.36,-0.38,-2.33,
0.437,0.15,0.13,0.71,1.31,-0.41,-2.42,
0.439,0.14,0.13,0.71,1.31,-0.41,-2.42,
0.44,0.14,0.13,0.70,1.31,-0.41,-2.42,
0.441,0.14,0.13,0.70,1.28,-0.43,-2.44,
0.443,0.13,0.14,0.70,1.28,-0.43,-2.44,
0.446,0.13,0.14,0.71,1.28,-0.43,-2.44,
0.446,0.13,0.14,0.71,1.18,-0.46,-2.48,
0.448,0.13,0.14,0.70,1.18,-0.46,-2.48,
0.451,0.13,0.14,0.70,1.08,-0.39,-2.47,
0.451,0.12,0.14,0.71,1.08,-0.39,-2.47,
0.454,0.12,0.14,0.71,1.08,-0.39,-2.47,
0.456,0.12,0.14,0.71,1.00,-0.36,-2.47,
0.456,0.11,0.14,0.71,1.00,-0.36,-2.47,
0.457,0.12,0.14,0.71,1.00,-0.36,-2.47,
0.46,0.12,0.14,0.72,1.00,-0.36,-2.47,
0.46,0.12,0.14,0.72,0.91,-0.35,-2.40,
0.463,0.12,0.13,0.71,0.91,-0.35,-2.40,
0.465,0.12,0.14,0.72,0.91,-0.35,-2.40,
0.465,0.12,0.14,0.72,0.93,-0.34,-2.34,
0.47,0.12,0.15,0.72,0.93,-0.34,-2.34,
0.47,0.11,0.15,0.72,0.93,-0.34,-2.34,
0.471,0.11,0.15,0.72,0.95,-0.36,-2.30,
0.472,0.11,0.16,0.74,0.95,-0.36,-2.30,
0.475,0.11,0.16,0.74,0.85,-0.26,-2.22,
0.475,0.11,0.16,0.74,0.85,-0.26,-2.22,
0.477,0.11,0.16,0.74,0.85,-0.26,-2.22,
0.481,0.11,0.16,0.74,0.81,-0.16,-2.06,
0.482,0.11,0.16,0.74,0.81,-0.16,-2.06,
0.483,0.12,0.16,0.75,0.81,-0.16,-2.06,
0.492,0.13,0.16,0.75,0.81,-0.16,-2.06,
0.493,0.13,0.16,0.75,0.83,-0.14,-2.03,
0.496,0.13,0.16,0.76,0.83,-0.14,-2.03,
0.497,0.13,0.16,0.76,0.83,-0.14,-2.03,
0.497,0.13,0.16,0.76,0.90,-0.13,-1.90,
0.497,0.14,0.16,0.76,0.90,-0.13,-1.90,
0.498,0.14,0.16,0.76,0.90,-0.13,-1.90,
0.498,0.14,0.16,0.76,0.96,-0.15,-1.84,
0.498,0.15,0.15,0.76,0.96,-0.15,-1.84,
0.499,0.15,0.15,0.76,1.04,-0.15,-1.79,
0.5,0.14,0.15,0.77,1.04,-0.15,-1.79,
0.504,0.15,0.15,0.77,1.04,-0.15,-1.79,
0.505,0.15,0.14,0.77,1.04,-0.15,-1.79,
0.505,0.15,0.14,0.77,1.08,-0.22,-1.74,
0.507,0.15,0.14,0.77,1.08,-0.22,-1.74,
0.51,0.14,0.14,0.78,1.08,-0.22,-1.74,
0.51,0.14,0.14,0.78,1.11,-0.28,-1.65,
0.512,0.13,0.13,0.78,1.11,-0.28,-1.65,
0.514,0.13,0.13,0.78,1.11,-0.28,-1.65,
0.514,0.13,0.13,0.78,1.02,-0.35,-1.65,
0.516,0.12,0.13,0.78,1.02,-0.35,-1.65,
0.519,0.12,0.12,0.78,1.02,-0.35,-1.65,
0.519,0.12,0.12,0.78,0.90,-0.46,-1.58,
0.521,0.11,0.12,0.78,0.90,-0.46,-1.58,
0.524,0.10,0.11,0.78,0.90,-0.46,-1.58,
0.524,0.10,0.11,0.78,0.80,-0.49,-1.56,
0.526,0.09,0.10,0.78,0.80,-0.49,-1.56,
0.529,0.08,0.09,0.78,0.80,-0.49,-1.56,
0.529,0.08,0.09,0.78,0.67,-0.56,-1.56,
0.532,0.07,0.09,0.77,0.67,-0.56,-1.56,
0.536,0.06,0.08,0.78,0.67,-0.56,-1.56,
0.536,0.06,0.08,0.78,0.48,-0.71,-1.57,
0.537,0.05,0.07,0.78,0.48,-0.71,-1.57,
0.539,0.05,0.07,0.78,0.48,-0.71,-1.57,
0.539,0.05,0.07,0.78,0.32,-0.84,-1.58,
0.542,0.04,0.07,0.78,0.32,-0.84,-1.58,
0.544,0.02,0.06,0.78,0.32,-0.84,-1.58,
0.545,0.02,0.06,0.78,0.14,-0.98,-1.54,
0.546,0.01,0.06,0.78,0.14,-0.98,-1.54,
0.549,-0.00,0.06,0.78,0.14,-0.98,-1.54,
0.549,-0.00,0.06,0.78,-0.09,-1.05,-1.55,
0.553,-0.02,0.06,0.78,-0.09,-1.05,-1.55,
0.554,-0.03,0.05,0.78,-0.09,-1.05,-1.55,
0.555,-0.03,0.05,0.78,-0.33,-1.08,-1.54,
0.556,-0.05,0.05,0.78,-0.33,-1.08,-1.54,
0.559,-0.06,0.05,0.79,-0.33,-1.08,-1.54,
0.559,-0.06,0.05,0.79,-0.61,-1.11,-1.52,
0.561,-0.08,0.06,0.79,-0.61,-1.11,-1.52,
0.564,-0.09,0.06,0.79,-0.61,-1.11,-1.52,
0.564,-0.09,0.06,0.79,-0.95,-1.13,-1.45,
0.566,-0.10,0.06,0.79,-0.95,-1.13,-1.45,
0.569,-0.11,0.06,0.79,-0.95,-1.13,-1.45,
0.57,-0.11,0.06,0.79,-1.22,-1.09,-1.41,
0.571,-0.12,0.06,0.79,-1.22,-1.09,-1.41,
0.574,-0.12,0.06,0.79,-1.46,-1.10,-1.37,
0.574,-0.13,0.07,0.79,-1.46,-1.10,-1.37,
0.576,-0.14,0.07,0.79,-1.46,-1.10,-1.37,
0.579,-0.14,0.07,0.80,-1.46,-1.10,-1.37,
0.579,-0.14,0.07,0.80,-1.70,-1.05,-1.35,
0.581,-0.15,0.08,0.79,-1.70,-1.05,-1.35,
0.583,-0.15,0.08,0.79,-1.70,-1.05,-1.35,
0.584,-0.15,0.08,0.79,-1.89,-1.02,-1.29,
0.593,-0.15,0.08,0.79,-1.89,-1.02,-1.29,
0.594,-0.15,0.08,0.80,-1.89,-1.02,-1.29,
0.594,-0.15,0.08,0.80,-2.02,-0.97,-1.30,
0.595,-0.16,0.07,0.80,-2.02,-0.97,-1.30,
0.596,-0.15,0.07,0.79,-2.02,-0.97,-1.30,
0.596,-0.15,0.07,0.79,-2.12,-0.99,-1.28,
0.597,-0.15,0.07,0.79,-2.12,-0.99,-1.28,
0.598,-0.15,0.07,0.79,-2.12,-0.99,-1.28,
0.599,-0.15,0.07,0.79,-2.19,-1.05,-1.26,
0.606,-0.15,0.06,0.79,-2.19,-1.05,-1.26,
0.607,-0.14,0.06,0.79,-2.19,-1.05,-1.26,
0.607,-0.14,0.06,0.79,-2.19,-1.10,-1.27,
0.608,-0.15,0.07,0.79,-2.19,-1.10,-1.27,
0.608,-0.15,0.07,0.79,-2.19,-1.10,-1.27,
0.608,-0.15,0.07,0.79,-2.21,-1.19,-1.25,
0.611,-0.15,0.06,0.80,-2.21,-1.19,-1.25,
0.613,-0.16,0.07,0.80,-2.21,-1.19,-1.25,
0.613,-0.16,0.07,0.80,-2.33,-1.17,-1.25,
0.616,-0.16,0.07,0.80,-2.33,-1.17,-1.25,
0.619,-0.17,0.07,0.80,-2.33,-1.17,-1.25,
0.62,-0.17,0.07,0.80,-2.44,-1.19,-1.17,
0.62,-0.18,0.08,0.81,-2.44,-1.19,-1.17,
0.623,-0.19,0.08,0.82,-2.44,-1.19,-1.17,
0.623,-0.19,0.08,0.82,-2.61,-1.18,-1.14,
0.625,-0.20,0.08,0.82,-2.61,-1.18,-1.14,
0.628,-0.21,0.08,0.83,-2.61,-1.18,-1.14,
0.628,-0.21,0.08,0.83,-2.82,-1.13,-0.97,
0.63,-0.22,0.08,0.84,-2.82,-1.13,-0.97,
0.633,-0.22,0.07,0.84,-2.82,-1.13,-0.97,
0.633,-0.22,0.07,0.84,-3.03,-1.10,-0.88,
0.636,-0.24,0.07,0.85,-3.03,-1.10,-0.88,
0.638,-0.24,0.07,0.86,-3.03,-1.10,-0.88,
0.639,-0.24,0.07,0.86,-3.23,-1.14,-0.69,
0.64,-0.25,0.07,0.86,-3.23,-1.14,-0.69,
0.643,-0.26,0.07,0.86,-3.23,-1.14,-0.69,
0.643,-0.26,0.07,0.86,-3.47,-1.16,-0.52,
0.645,-0.27,0.07,0.88,-3.47,-1.16,-0.52,
0.648,-0.27,0.07,0.88,-3.68,-1.19,-0.45,
0.648,-0.28,0.07,0.88,-3.68,-1.19,-0.45,
0.65,-0.29,0.06,0.89,-3.68,-1.19,-0.45,
0.655,-0.30,0.06,0.89,-3.68,-1.19,-0.45,
0.656,-0.30,0.06,0.89,-3.88,-1.19,-0.29,
0.656,-0.31,0.05,0.89,-3.88,-1.19,-0.29,
0.66,-0.32,0.05,0.89,-3.88,-1.19,-0.29,
0.661,-0.32,0.05,0.89,-4.11,-1.25,-0.20,
0.661,-0.32,0.05,0.89,-4.11,-1.25,-0.20,
0.663,-0.33,0.04,0.88,-4.11,-1.25,-0.20,
0.663,-0.33,0.04,0.88,-4.32,-1.33,-0.19,
0.665,-0.33,0.03,0.87,-4.32,-1.33,-0.19,
0.668,-0.33,0.03,0.86,-4.32,-1.33,-0.19,
0.668,-0.33,0.03,0.86,-4.43,-1.44,-0.22,
0.671,-0.33,0.02,0.86,-4.43,-1.44,-0.22,
0.673,-0.33,0.02,0.86,-4.54,-1.55,-0.36,
0.673,-0.33,0.02,0.86,-4.54,-1.55,-0.36,
0.675,-0.33,0.02,0.86,-4.54,-1.55,-0.36,
0.677,-0.33,0.01,0.86,-4.54,-1.55,-0.36,
0.678,-0.33,0.01,0.86,-4.56,-1.62,-0.43,
0.68,-0.33,0.00,0.85,-4.56,-1.62,-0.43,
0.682,-0.32,0.00,0.85,-4.56,-1.62,-0.43,
0.683,-0.32,0.00,0.85,-4.56,-1.69,-0.46,
0.692,-0.32,0.01,0.86,-4.56,-1.69,-0.46,
0.692,-0.32,-0.00,0.86,-4.56,-1.69,-0.46,
0.693,-0.32,-0.00,0.86,-4.54,-1.75,-0.50,
0.693,-0.32,-0.00,0.86,-4.54,-1.75,-0.50,
0.693,-0.31,0.00,0.86,-4.54,-1.75,-0.50,
0.694,-0.31,0.00,0.86,-4.50,-1.73,-0.45,
0.695,-0.32,-0.00,0.87,-4.50,-1.73,-0.45,
0.698,-0.32,-0.00,0.87,-4.45,-1.71,-0.42,
0.698,-0.31,-0.00,0.88,-4.45,-1.71,-0.42,
0.7,-0.31,0.00,0.88,-4.45,-1.71,-0.42,
0.705,-0.31,0.00,0.89,-4.45,-1.71,-0.42,
0.706,-0.31,0.00,0.89,-4.44,-1.67,-0.26,
0.706,-0.31,0.01,0.90,-4.44,-1.67,-0.26,
0.707,-0.30,0.00,0.91,-4.44,-1.67,-0.26,
0.707,-0.30,0.00,0.91,-4.41,-1.59,-0.17,
0.71,-0.30,0.00,0.91,-4.41,-1.59,-0.17,
0.712,-0.30,-0.00,0.92,-4.41,-1.59,-0.17,
0.713,-0.30,-0.00,0.92,-4.37,-1.54,0.01,
0.714,-0.30,-0.01,0.93,-4.37,-1.54,0.01,
0.717,-0.29,-0.01,0.94,-4.37,-1.54,0.01,
0.717,-0.29,-0.01,0.94,-4.29,-1.54,0.13,
0.72,-0.30,-0.01,0.94,-4.29,-1.54,0.13,
0.722,-0.30,-0.01,0.94,-4.24,-1.57,0.26,
0.723,-0.30,-0.01,0.95,-4.24,-1.57,0.26,
0.725,-0.30,-0.01,0.96,-4.24,-1.57,0.26,
0.727,-0.31,-0.01,0.96,-4.24,-1.57,0.26,
0.728,-0.31,-0.01,0.96,-4.27,-1.55,0.41,
0.73,-0.31,-0.01,0.97,-4.27,-1.55,0.41,
0.733,-0.31,-0.00,0.98,-4.27,-1.55,0.41,
0.733,-0.31,-0.00,0.98,-4.34,-1.49,0.52,
0.735,-0.32,-0.01,0.98,-4.34,-1.49,0.52,
0.738,-0.33,-0.00,0.99,-4.34,-1.49,0.52,
0.738,-0.33,-0.00,0.99,-4.43,-1.38,0.71,
0.74,-0.33,0.01,0.99,-4.43,-1.38,0.71,
0.742,-0.33,0.01,1.00,-4.43,-1.38,0.71,
0.742,-0.33,0.01,1.00,-4.58,-1.32,0.77,
0.745,-0.33,0.01,1.00,-4.58,-1.32,0.77,
0.748,-0.33,0.01,1.00,-4.64,-1.16,0.83,
0.748,-0.33,0.01,0.99,-4.64,-1.16,0.83,
0.749,-0.33,0.01,1.00,-4.64,-1.16,0.83,
0.754,-0.33,0.01,1.00,-4.64,-1.16,0.83,
0.754,-0.33,0.01,1.00,-4.67,-1.13,0.89,
0.755,-0.33,0.01,1.00,-4.67,-1.13,0.89,
0.757,-0.33,0.01,0.99,-4.67,-1.13,0.89,
0.757,-0.33,0.01,0.99,-4.72,-1.08,0.89,
0.76,-0.33,0.01,0.99,-4.72,-1.08,0.89,
0.763,-0.32,0.01,0.98,-4.72,-1.08,0.89,
0.763,-0.32,0.01,0.98,-4.71,-1.07,0.85,
0.765,-0.32,0.01,0.98,-4.71,-1.07,0.85,
0.767,-0.32,0.01,0.97,-4.71,-1.07,0.85,
0.768,-0.32,0.01,0.97,-4.71,-0.99,0.77,
0.771,-0.32,0.01,0.96,-4.71,-0.99,0.77,
0.772,-0.32,0.01,0.96,-4.68,-0.98,0.67,
0.773,-0.32,0.00,0.96,-4.68,-0.98,0.67,
0.775,-0.31,0.01,0.95,-4.68,-0.98,0.67,
0.778,-0.31,0.00,0.94,-4.68,-0.98,0.67,
0.778,-0.31,0.00,0.94,-4.65,-0.99,0.55,
0.78,-0.31,-0.00,0.95,-4.65,-0.99,0.55,
0.782,-0.31,-0.01,0.95,-4.65,-0.99,0.55,
0.783,-0.31,-0.01,0.95,-4.64,-0.96,0.41,
0.785,-0.31,-0.01,0.94,-4.64,-0.96,0.41,
0.792,-0.30,-0.02,0.94,-4.64,-0.96,0.41,
0.793,-0.30,-0.02,0.94,-4.60,-1.02,0.42,
0.793,-0.30,-0.03,0.94,-4.60,-1.02,0.42,
0.793,-0.29,-0.04,0.94,-4.60,-1.02,0.42,
0.793,-0.29,-0.04,0.94,-4.56,-1.09,0.32,
0.794,-0.28,-0.05,0.94,-4.56,-1.09,0.32,
0.797,-0.28,-0.05,0.94,-4.50,-1.19,0.32,
0.797,-0.27,-0.06,0.94,-4.50,-1.19,0.32,
0.799,-0.26,-0.07,0.95,-4.50,-1.19,0.32,
0.802,-0.26,-0.08,0.96,-4.50,-1.19,0.32,
0.802,-0.26,-0.08,0.96,-4.35,-1.37,0.34,
0.804,-0.25,-0.09,0.97,-4.35,-1.37,0.34,
0.807,-0.24,-0.09,0.99,-4.35,-1.37,0.34,
0.807,-0.24,-0.09,0.99,-4.19,-1.49,0.46,
0.809,-0.23,-0.10,1.00,-4.19,-1.49,0.46,
0.812,-0.22,-0.10,1.01,-4.19,-1.49,0.46,
0.813,-0.22,-0.10,1.01,-4.04,-1.56,0.71,
0.815,-0.21,-0.10,1.04,-4.04,-1.56,0.71,
0.817,-0.20,-0.11,1.06,-4.04,-1.56,0.71,
0.82,-0.20,-0.11,1.06,-3.85,-1.61,0.97,
0.82,-0.19,-0.11,1.07,-3.85,-1.61,0.97,
0.823,-0.19,-0.11,1.07,-3.67,-1.57,1.36,
0.824,-0.17,-0.11,1.09,-3.67,-1.57,1.36,
0.824,-0.16,-0.11,1.11,-3.67,-1.57,1.36,
0.827,-0.15,-0.11,1.12,-3.67,-1.57,1.36,
0.827,-0.15,-0.11,1.12,-3.42,-1.53,1.67,
0.829,-0.13,-0.11,1.14,-3.42,-1.53,1.67,
0.832,-0.12,-0.10,1.16,-3.42,-1.53,1.67,
0.832,-0.12,-0.10,1.16,-3.17,-1.43,2.01,
0.835,-0.11,-0.10,1.17,-3.17,-1.43,2.01,
0.837,-0.11,-0.10,1.18,-3.17,-1.43,2.01,
0.838,-0.11,-0.10,1.18,-2.93,-1.34,2.33,
0.84,-0.10,-0.10,1.19,-2.93,-1.34,2.33,
0.842,-0.09,-0.09,1.20,-2.93,-1.34,2.33,
0.842,-0.09,-0.09,1.20,-2.73,-1.18,2.58,
0.844,-0.08,-0.09,1.20,-2.73,-1.18,2.58,
0.846,-0.08,-0.09,1.20,-2.55,-1.07,2.76,
0.847,-0.08,-0.09,1.20,-2.55,-1.07,2.76,
0.848,-0.07,-0.09,1.20,-2.55,-1.07,2.76,
0.851,-0.06,-0.08,1.20,-2.55,-1.07,2.76,
0.852,-0.06,-0.08,1.20,-2.41,-0.97,2.80,
0.855,-0.06,-0.09,1.20,-2.41,-0.97,2.80,
0.856,-0.06,-0.09,1.19,-2.41,-0.97,2.80,
0.857,-0.06,-0.09,1.19,-2.28,-0.84,2.74,
0.859,-0.06,-0.08,1.17,-2.28,-0.84,2.74,
0.861,-0.07,-0.08,1.17,-2.28,-0.84,2.74,
0.862,-0.07,-0.08,1.17,-2.23,-0.77,2.70,
0.863,-0.07,-0.08,1.15,-2.23,-0.77,2.70,
0.866,-0.08,-0.07,1.14,-2.23,-0.77,2.70,
0.866,-0.08,-0.07,1.14,-2.22,-0.67,2.48,
0.868,-0.09,-0.07,1.13,-2.22,-0.67,2.48,
0.871,-0.10,-0.07,1.11,-2.22,-0.67,2.48,
0.872,-0.10,-0.07,1.11,-2.31,-0.54,2.22,
0.873,-0.11,-0.07,1.10,-2.31,-0.54,2.22,
0.876,-0.11,-0.08,1.09,-2.31,-0.54,2.22,
0.876,-0.11,-0.08,1.09,-2.45,-0.44,1.94,
0.878,-0.12,-0.08,1.08,-2.45,-0.44,1.94,
0.88,-0.12,-0.09,1.07,-2.45,-0.44,1.94,
0.881,-0.12,-0.09,1.07,-2.60,-0.41,1.68,
0.883,-0.12,-0.09,1.07,-2.60,-0.41,1.68,
0.893,-0.12,-0.11,1.06,-2.60,-0.41,1.68,
0.894,-0.12,-0.11,1.06,-2.68,-0.44,1.51,
0.894,-0.12,-0.12,1.07,-2.68,-0.44,1.51,
0.895,-0.12,-0.13,1.07,-2.68,-0.44,1.51,
0.895,-0.12,-0.13,1.07,-2.66,-0.54,1.44,
0.896,-0.12,-0.14,1.07,-2.66,-0.54,1.44,
0.896,-0.12,-0.14,1.07,-2.64,-0.69,1.41,
0.896,-0.12,-0.15,1.08,-2.64,-0.69,1.41,
0.898,-0.12,-0.16,1.09,-2.64,-0.69,1.41,
0.9,-0.11,-0.17,1.10,-2.64,-0.69,1.41,
0.901,-0.11,-0.17,1.10,-2.60,-0.84,1.50,
0.91,-0.11,-0.18,1.11,-2.60,-0.84,1.50,
0.911,-0.10,-0.19,1.13,-2.60,-0.84,1.50,
0.911,-0.10,-0.19,1.13,-2.53,-1.03,1.67,
0.912,-0.10,-0.20,1.15,-2.53,-1.03,1.67,
0.912,-0.09,-0.21,1.18,-2.53,-1.03,1.67,
0.912,-0.09,-0.21,1.18,-2.43,-1.13,1.96,
0.913,-0.09,-0.22,1.20,-2.43,-1.13,1.96,
0.916,-0.08,-0.22,1.22,-2.43,-1.13,1.96,
0.917,-0.08,-0.22,1.22,-2.34,-1.25,2.39,
0.918,-0.08,-0.23,1.24,-2.34,-1.25,2.39,
0.921,-0.07,-0.23,1.25,-2.34,-1.25,2.39,
0.921,-0.07,-0.23,1.25,-2.25,-1.34,2.81,
0.922,-0.07,-0.24,1.27,-2.25,-1.34,2.81,
0.925,-0.06,-0.24,1.29,-2.25,-1.34,2.81,
0.925,-0.06,-0.24,1.29,-2.13,-1.39,3.16,
0.927,-0.06,-0.24,1.29,-2.13,-1.39,3.16,
0.93,-0.05,-0.24,1.30,-2.13,-1.39,3.16,
0.93,-0.05,-0.24,1.30,-2.04,-1.37,3.44,
0.933,-0.05,-0.24,1.30,-2.04,-1.37,3.44,
0.935,-0.05,-0.24,1.30,-2.04,-1.37,3.44,
0.935,-0.05,-0.24,1.30,-1.92,-1.33,3.60,
0.937,-0.04,-0.24,1.32,-1.92,-1.33,3.60,
0.94,-0.03,-0.24,1.32,-1.92,-1.33,3.60,
0.94,-0.03,-0.24,1.32,-1.86,-1.23,3.70,
0.942,-0.02,-0.23,1.31,-1.86,-1.23,3.70,
0.945,-0.02,-0.23,1.31,-1.75,-1.17,3.80,
0.945,-0.02,-0.23,1.31,-1.75,-1.17,3.80,
0.947,-0.01,-0.23,1.31,-1.75,-1.17,3.80,
0.95,-0.01,-0.23,1.31,-1.75,-1.17,3.80,
0.95,-0.01,-0.23,1.31,-1.54,-1.05,3.77,
0.952,0.00,-0.22,1.31,-1.54,-1.05,3.77,
0.955,0.01,-0.22,1.31,-1.54,-1.05,3.77,
0.956,0.01,-0.22,1.31,-1.43,-0.96,3.75,
0.957,0.01,-0.22,1.31,-1.43,-0.96,3.75,
0.96,0.02,-0.22,1.32,-1.43,-0.96,3.75,
0.96,0.02,-0.22,1.32,-1.27,-0.87,3.76,
0.962,0.03,-0.23,1.32,-1.27,-0.87,3.76,
0.965,0.03,-0.23,1.33,-1.27,-0.87,3.76,
0.965,0.03,-0.23,1.33,-1.15,-0.81,3.75,
0.967,0.04,-0.23,1.33,-1.15,-0.81,3.75,
0.971,0.05,-0.23,1.34,-1.15,-0.81,3.75,
0.972,0.05,-0.23,1.34,-0.99,-0.80,3.84,
0.973,0.06,-0.24,1.36,-0.99,-0.80,3.84,
0.975,0.07,-0.24,1.36,-0.99,-0.80,3.84,
0.975,0.07,-0.24,1.36,-0.84,-0.76,3.97,
0.977,0.08,-0.25,1.38,-0.84,-0.76,3.97,
0.979,0.09,-0.25,1.40,-0.84,-0.76,3.97,
0.98,0.09,-0.25,1.40,-0.62,-0.80,4.16,
0.984,0.11,-0.25,1.41,-0.62,-0.80,4.16,
0.985,0.12,-0.25,1.43,-0.62,-0.80,4.16,
0.985,0.12,-0.25,1.43,-0.36,-0.81,4.44,
0.994,0.13,-0.26,1.44,-0.36,-0.81,4.44,
0.995,0.14,-0.26,1.45,-0.36,-0.81,4.44,
0.995,0.14,-0.26,1.45,-0.10,-0.82,4.75,
0.996,0.15,-0.26,1.46,-0.10,-0.82,4.75,
0.996,0.15,-0.26,1.46,0.11,-0.82,4.98,
0.996,0.16,-0.26,1.48,0.11,-0.82,4.98,
0.998,0.17,-0.26,1.49,0.11,-0.82,4.98,
0.999,0.18,-0.26,1.50,0.11,-0.82,4.98,
1.0,0.18,-0.26,1.50,0.35,-0.76,5.21,
1.002,0.19,-0.25,1.51,0.35,-0.76,5.21,
1.006,0.21,-0.26,1.51,0.35,-0.76,5.21,
1.006,0.21,-0.26,1.51,0.54,-0.71,5.45,
1.007,0.21,-0.25,1.52,0.54,-0.71,5.45,
1.01,0.22,-0.25,1.52,0.54,-0.71,5.45,
1.01,0.22,-0.25,1.52,0.80,-0.63,5.60,
1.012,0.23,-0.25,1.53,0.80,-0.63,5.60,
1.014,0.23,-0.24,1.53,0.80,-0.63,5.60,
1.014,0.23,-0.24,1.53,0.99,-0.54,5.71,
1.017,0.24,-0.24,1.53,0.99,-0.54,5.71,
1.019,0.24,-0.23,1.52,0.99,-0.54,5.71,
1.019,0.24,-0.23,1.52,1.14,-0.44,5.73,
1.022,0.25,-0.23,1.51,1.14,-0.44,5.73,
1.024,0.25,-0.22,1.51,1.14,-0.44,5.73,
1.025,0.25,-0.22,1.51,1.25,-0.31,5.69,
1.027,0.25,-0.22,1.51,1.25,-0.31,5.69,
1.029,0.25,-0.22,1.50,1.25,-0.31,5.69,
1.029,0.25,-0.22,1.50,1.35,-0.18,5.55,
1.031,0.25,-0.21,1.49,1.35,-0.18,5.55,
1.034,0.25,-0.21,1.49,1.35,-0.18,5.55,
1.034,0.25,-0.21,1.49,1.38,-0.08,5.45,
1.038,0.25,-0.21,1.48,1.38,-0.08,5.45,
1.04,0.25,-0.22,1.47,1.38,-0.08,5.45,
1.04,0.25,-0.22,1.47,1.42,0.07,5.27,
1.041,0.25,-0.22,1.47,1.42,0.07,5.27,
1.044,0.26,-0.23,1.47,1.42,0.07,5.27,
1.044,0.26,-0.23,1.47,1.46,0.04,5.13,
1.046,0.26,-0.24,1.46,1.46,0.04,5.13,
1.049,0.27,-0.25,1.47,1.46,0.04,5.13,
1.049,0.27,-0.25,1.47,1.57,-0.06,5.05,
1.051,0.28,-0.26,1.47,1.57,-0.06,5.05,
1.056,0.28,-0.26,1.47,1.70,-0.23,5.02,
1.057,0.28,-0.27,1.48,1.70,-0.23,5.02,
1.057,0.29,-0.28,1.48,1.70,-0.23,5.02,
1.059,0.29,-0.28,1.50,1.70,-0.23,5.02,
1.06,0.29,-0.28,1.50,1.84,-0.38,5.08,
1.062,0.29,-0.29,1.51,1.84,-0.38,5.08,
1.064,0.29,-0.29,1.52,1.84,-0.38,5.08,
1.065,0.29,-0.29,1.52,1.98,-0.49,5.23,
1.067,0.30,-0.29,1.53,1.98,-0.49,5.23,
1.069,0.30,-0.29,1.53,2.08,-0.52,5.44,
1.07,0.30,-0.28,1.54,2.08,-0.52,5.44,
1.073,0.30,-0.28,1.54,2.08,-0.52,5.44,
1.074,0.29,-0.27,1.56,2.08,-0.52,5.44,
1.075,0.29,-0.27,1.56,2.16,-0.49,5.62,
1.076,0.29,-0.26,1.56,2.16,-0.49,5.62,
1.079,0.29,-0.26,1.55,2.16,-0.49,5.62,
1.079,0.29,-0.26,1.55,2.17,-0.35,5.78,
1.081,0.29,-0.25,1.55,2.17,-0.35,5.78,
1.084,0.29,-0.25,1.55,2.17,-0.35,5.78,
1.084,0.29,-0.25,1.55,2.19,-0.20,5.79,
1.086,0.30,-0.25,1.55,2.19,-0.20,5.79,
1.096,0.29,-0.25,1.53,2.19,-0.20,5.79,
1.097,0.29,-0.25,1.53,2.24,-0.09,5.74,
1.097,0.30,-0.24,1.52,2.24,-0.09,5.74,
1.098,0.30,-0.24,1.52,2.30,-0.04,5.60,
1.098,0.30,-0.24,1.50,2.30,-0.04,5.60,
1.099,0.29,-0.24,1.48,2.30,-0.04,5.60,
1.099,0.28,-0.23,1.47,2.30,-0.04,5.60,
1.1,0.28,-0.23,1.47,2.37,0.05,5.32,
1.101,0.28,-0.23,1.44,2.37,0.05,5.32,
1.112,0.27,-0.22,1.42,2.37,0.05,5.32,
1.113,0.27,-0.22,1.42,2.28,0.08,4.94,
1.114,0.26,-0.23,1.41,2.28,0.08,4.94,
1.114,0.25,-0.22,1.39,2.28,0.08,4.94,
1.114,0.25,-0.22,1.39,2.18,0.15,4.53,
1.114,0.24,-0.22,1.37,2.18,0.15,4.53,
1.115,0.23,-0.22,1.36,2.18,0.15,4.53,
1.115,0.23,-0.22,1.36,2.04,0.17,4.18,
1.116,0.23,-0.22,1.34,2.04,0.17,4.18,
1.118,0.22,-0.23,1.33,2.04,0.17,4.18,
1.119,0.22,-0.23,1.33,1.90,0.19,3.81,
1.122,0.21,-0.23,1.33,1.90,0.19,3.81,
1.123,0.21,-0.24,1.32,1.90,0.19,3.81,
1.123,0.21,-0.24,1.32,1.81,0.11,3.53,
1.125,0.21,-0.24,1.32,1.81,0.11,3.53,
1.128,0.20,-0.25,1.32,1.81,0.11,3.53,
1.128,0.20,-0.25,1.32,1.73,0.01,3.37,
1.131,0.21,-0.26,1.32,1.73,0.01,3.37,
1.133,0.21,-0.27,1.33,1.73,0.01,3.37,
1.134,0.21,-0.27,1.33,1.67,-0.11,3.34,
1.135,0.21,-0.28,1.33,1.67,-0.11,3.34,
1.138,0.21,-0.28,1.34,1.67,-0.11,3.34,
1.138,0.21,-0.28,1.34,1.70,-0.30,3.39,
1.14,0.22,-0.29,1.35,1.70,-0.30,3.39,
1.144,0.22,-0.29,1.35,1.76,-0.46,3.47,
1.144,0.22,-0.30,1.36,1.76,-0.46,3.47,
1.146,0.23,-0.30,1.36,1.76,-0.46,3.47,
1.149,0.23,-0.31,1.36,1.76,-0.46,3.47,
1.149,0.23,-0.31,1.36,1.86,-0.62,3.62,
1.15,0.23,-0.31,1.36,1.86,-0.62,3.62,
1.153,0.23,-0.31,1.37,1.86,-0.62,3.62,
1.153,0.23,-0.31,1.37,1.95,-0.73,3.67,
1.155,0.23,-0.31,1.36,1.95,-0.73,3.67,
1.158,0.23,-0.31,1.36,1.95,-0.73,3.67,
1.158,0.23,-0.31,1.36,2.00,-0.80,3.69,
1.16,0.23,-0.30,1.36,2.00,-0.80,3.69,
1.162,0.24,-0.31,1.36,2.00,-0.80,3.69,
1.163,0.24,-0.31,1.36,1.98,-0.83,3.66,
1.165,0.24,-0.31,1.36,1.98,-0.83,3.66,
1.168,0.24,-0.31,1.36,2.00,-0.80,3.63,
1.168,0.24,-0.31,1.35,2.00,-0.80,3.63,
1.17,0.24,-0.30,1.33,2.00,-0.80,3.63,
1.182,0.25,-0.30,1.33,2.00,-0.80,3.63,
1.183,0.25,-0.30,1.33,2.06,-0.87,3.49,
1.184,0.25,-0.30,1.32,2.06,-0.87,3.49,
1.184,0.25,-0.30,1.31,2.06,-0.87,3.49,
1.185,0.25,-0.30,1.31,2.11,-0.85,3.31,
1.186,0.25,-0.29,1.29,2.11,-0.85,3.31,
1.186,0.25,-0.29,1.29,2.11,-0.85,3.31,
1.187,0.25,-0.29,1.29,2.18,-0.84,3.11,
1.188,0.25,-0.29,1.27,2.18,-0.84,3.11,
1.188,0.26,-0.29,1.26,2.18,-0.84,3.11,
1.189,0.26,-0.29,1.26,2.22,-0.80,2.85,
1.2,0.27,-0.29,1.26,2.22,-0.80,2.85,
1.202,0.27,-0.29,1.26,2.29,-0.79,2.62,
1.202,0.28,-0.28,1.25,2.29,-0.79,2.62,
1.202,0.29,-0.29,1.24,2.29,-0.79,2.62,
1.203,0.30,-0.28,1.24,2.29,-0.79,2.62,
1.203,0.30,-0.28,1.24,2.47,-0.79,2.45,
1.203,0.31,-0.28,1.24,2.47,-0.79,2.45,
1.205,0.31,-0.27,1.23,2.47,-0.79,2.45,
1.205,0.31,-0.27,1.23,2.69,-0.76,2.29,
1.206,0.32,-0.26,1.24,2.69,-0.76,2.29,
1.208,0.32,-0.25,1.24,2.69,-0.76,2.29,
1.208,0.32,-0.25,1.24,2.85,-0.69,2.25,
1.21,0.33,-0.24,1.24,2.85,-0.69,2.25,
1.213,0.33,-0.23,1.24,2.85,-0.69,2.25,
1.213,0.33,-0.23,1.24,3.01,-0.58,2.24,
1.215,0.33,-0.22,1.24,3.01,-0.58,2.24,
1.217,0.33,-0.22,1.24,3.01,-0.58,2.24,
1.218,0.33,-0.22,1.24,3.11,-0.38,2.29,
1.22,0.33,-0.21,1.24,3.11,-0.38,2.29,
1.222,0.33,-0.19,1.24,3.11,-0.38,2.29,
1.223,0.33,-0.19,1.24,3.14,-0.24,2.28,
1.225,0.33,-0.19,1.24,3.14,-0.24,2.28,
1.227,0.32,-0.18,1.24,3.14,-0.24,2.28,
1.228,0.32,-0.18,1.24,3.17,-0.08,2.25,
1.23,0.32,-0.17,1.23,3.17,-0.08,2.25,
1.232,0.32,-0.16,1.23,3.17,-0.08,2.25,
1.233,0.32,-0.16,1.23,3.15,0.03,2.24,
1.235,0.31,-0.16,1.22,3.15,0.03,2.24,
1.238,0.31,-0.16,1.22,3.09,0.17,2.12,
1.238,0.31,-0.15,1.22,3.09,0.17,2.12,
1.24,0.30,-0.15,1.21,3.09,0.17,2.12,
1.243,0.30,-0.15,1.21,2.99,0.26,2.02,
1.243,0.30,-0.15,1.20,2.99,0.26,2.02,
1.245,0.30,-0.15,1.19,2.99,0.26,2.02,
1.248,0.30,-0.15,1.18,2.99,0.26,2.02,
1.248,0.30,-0.15,1.18,2.95,0.26,1.85,
1.25,0.30,-0.15,1.17,2.95,0.26,1.85,
1.253,0.30,-0.15,1.17,2.91,0.24,1.62,
1.253,0.30,-0.15,1.15,2.91,0.24,1.62,
1.255,0.29,-0.15,1.14,2.91,0.24,1.62,
1.257,0.29,-0.16,1.14,2.91,0.24,1.62,
1.258,0.29,-0.16,1.14,2.93,0.18,1.38,
1.26,0.29,-0.16,1.14,2.93,0.18,1.38,
1.263,0.29,-0.16,1.13,2.93,0.18,1.38,
1.263,0.29,-0.16,1.13,2.87,0.07,1.20,
1.265,0.29,-0.16,1.13,2.87,0.07,1.20,
1.267,0.29,-0.17,1.12,2.87,0.07,1.20,
1.268,0.29,-0.17,1.12,2.91,-0.03,1.13,
1.27,0.30,-0.17,1.11,2.91,-0.03,1.13,
1.274,0.30,-0.17,1.11,2.90,-0.17,0.98,
1.274,0.30,-0.17,1.11,2.90,-0.17,0.98,
1.275,0.30,-0.17,1.10,2.90,-0.17,0.98,
1.277,0.30,-0.18,1.09,2.90,-0.17,0.98,
1.277,0.30,-0.18,1.09,2.94,-0.25,0.84,
1.28,0.30,-0.18,1.10,2.94,-0.25,0.84,
1.282,0.30,-0.17,1.10,2.94,-0.25,0.84,
1.283,0.30,-0.17,1.10,2.98,-0.34,0.73,
1.285,0.30,-0.17,1.10,2.98,-0.34,0.73,
1.287,0.30,-0.18,1.10,2.98,-0.34,0.73,
1.288,0.30,-0.18,1.10,2.95,-0.37,0.72,
1.294,0.31,-0.18,1.10,2.95,-0.37,0.72,
1.295,0.31,-0.18,1.10,3.00,-0.44,0.72,
1.295,0.31,-0.17,1.11,3.00,-0.44,0.72,
1.295,0.32,-0.18,1.11,3.00,-0.44,0.72,
1.297,0.32,-0.18,1.12,3.00,-0.44,0.72,
1.297,0.32,-0.18,1.12,3.07,-0.48,0.78,
1.299,0.32,-0.18,1.12,3.07,-0.48,0.78,
1.302,0.32,-0.18,1.13,3.07,-0.48,0.78,
1.302,0.32,-0.18,1.13,3.15,-0.53,0.85,
1.305,0.32,-0.17,1.13,3.15,-0.53,0.85,
1.307,0.32,-0.18,1.14,3.15,-0.53,0.85,
1.308,0.32,-0.18,1.14,3.20,-0.58,0.92,
1.31,0.32,-0.18,1.14,3.20,-0.58,0.92,
1.312,0.31,-0.18,1.14,3.20,-0.58,0.92,
1.315,0.31,-0.18,1.14,3.19,-0.61,1.04,
1.315,0.30,-0.18,1.15,3.19,-0.61,1.04,
1.317,0.30,-0.18,1.14,3.19,-0.61,1.04,
1.317,0.30,-0.18,1.14,3.16,-0.65,1.12,
1.319,0.30,-0.18,1.15,3.16,-0.65,1.12,
1.324,0.30,-0.18,1.15,3.16,-0.65,1.12,
1.324,0.30,-0.18,1.15,3.05,-0.69,1.13,
1.325,0.28,-0.18,1.15,3.05,-0.69,1.13,
1.327,0.27,-0.18,1.15,3.05,-0.69,1.13,
1.328,0.27,-0.18,1.15,3.00,-0.72,1.16,
1.329,0.27,-0.18,1.14,3.00,-0.72,1.16,
1.331,0.26,-0.19,1.14,3.00,-0.72,1.16,
1.332,0.26,-0.19,1.14,2.83,-0.77,1.13,
1.333,0.26,-0.19,1.14,2.83,-0.77,1.13,
1.336,0.25,-0.19,1.13,2.83,-0.77,1.13,
1.336,0.25,-0.19,1.13,2.73,-0.86,1.04,
1.339,0.24,-0.20,1.12,2.73,-0.86,1.04,
1.341,0.24,-0.20,1.12,2.62,-0.96,0.99,
1.341,0.24,-0.19,1.11,2.62,-0.96,0.99,
1.344,0.23,-0.19,1.10,2.62,-0.96,0.99,
1.346,0.22,-0.20,1.10,2.62,-0.96,0.99,
1.346,0.22,-0.20,1.10,2.51,-1.04,0.80,
1.348,0.22,-0.20,1.09,2.51,-1.04,0.80,
1.351,0.22,-0.19,1.08,2.51,-1.04,0.80,
1.352,0.22,-0.19,1.08,2.42,-1.08,0.65,
1.354,0.22,-0.19,1.07,2.42,-1.08,0.65,
1.357,0.22,-0.19,1.07,2.42,-1.08,0.65,
1.358,0.22,-0.19,1.07,2.35,-1.12,0.51,
1.359,0.22,-0.19,1.06,2.35,-1.12,0.51,
1.362,0.22,-0.19,1.06,2.35,-1.13,0.36,
1.362,0.22,-0.19,1.05,2.35,-1.13,0.36,
1.364,0.22,-0.18,1.05,2.35,-1.13,0.36,
1.367,0.22,-0.18,1.05,2.34,-1.13,0.21,
1.367,0.22,-0.18,1.04,2.34,-1.13,0.21,
1.369,0.22,-0.17,1.03,2.34,-1.13,0.21,
1.372,0.22,-0.16,1.03,2.34,-1.13,0.21,
1.372,0.22,-0.16,1.03,2.37,-1.07,0.11,
1.375,0.23,-0.15,1.03,2.37,-1.07,0.11,
1.376,0.22,-0.15,1.02,2.37,-1.07,0.11,
1.377,0.22,-0.15,1.02,2.40,-0.99,-0.01,
1.379,0.22,-0.14,1.03,2.40,-0.99,-0.01,
1.382,0.23,-0.14,1.02,2.40,-0.99,-0.01,
1.382,0.23,-0.14,1.02,2.45,-0.90,-0.11,
1.384,0.23,-0.14,1.02,2.45,-0.90,-0.11,
1.386,0.23,-0.13,1.02,2.45,-0.90,-0.11,
1.387,0.23,-0.13,1.02,2.46,-0.82,-0.09,
1.389,0.24,-0.13,1.03,2.46,-0.82,-0.09,
1.396,0.24,-0.13,1.03,2.54,-0.83,-0.17,
1.397,0.24,-0.13,1.03,2.54,-0.83,-0.17,
1.397,0.24,-0.13,1.03,2.54,-0.83,-0.17,
1.397,0.23,-0.12,1.04,2.54,-0.83,-0.17,
1.397,0.23,-0.12,1.04,2.57,-0.81,-0.09,
1.398,0.23,-0.12,1.04,2.57,-0.81,-0.09,
1.401,0.23,-0.12,1.05,2.57,-0.81,-0.09,
1.401,0.23,-0.12,1.05,2.55,-0.81,-0.04,
1.403,0.23,-0.11,1.05,2.55,-0.81,-0.04,
1.407,0.23,-0.11,1.06,2.55,-0.81,-0.04,
1.407,0.23,-0.11,1.06,2.53,-0.78,0.07,
1.409,0.22,-0.11,1.06,2.53,-0.78,0.07,
1.41,0.22,-0.10,1.07,2.53,-0.78,0.07,
1.411,0.22,-0.10,1.07,2.46,-0.75,0.16,
1.413,0.21,-0.09,1.07,2.46,-0.75,0.16,
1.416,0.20,-0.09,1.08,2.46,-0.75,0.16,
1.416,0.20,-0.09,1.08,2.37,-0.70,0.27,
1.418,0.20,-0.10,1.08,2.37,-0.70,0.27,
1.421,0.20,-0.10,1.09,2.37,-0.70,0.27,
1.421,0.20,-0.10,1.09,2.23,-0.65,0.37,
1.425,0.19,-0.09,1.09,2.23,-0.65,0.37,
1.427,0.19,-0.10,1.09,2.23,-0.65,0.37,
1.427,0.19,-0.10,1.09,2.18,-0.71,0.44,
1.429,0.19,-0.10,1.09,2.18,-0.71,0.44,
1.431,0.19,-0.10,1.10,2.18,-0.71,0.44,
1.431,0.19,-0.10,1.10,2.09,-0.74,0.51,
1.433,0.19,-0.10,1.09,2.09,-0.74,0.51,
1.437,0.19,-0.11,1.09,2.09,-0.74,0.51,
1.437,0.19,-0.11,1.09,2.05,-0.81,0.57,
1.437,0.18,-0.10,1.10,2.05,-0.81,0.57,
1.441,0.18,-0.10,1.10,2.01,-0.93,0.54,
1.442,0.18,-0.10,1.09,2.01,-0.93,0.54,
1.443,0.18,-0.10,1.09,2.01,-0.93,0.54,
1.445,0.18,-0.11,1.09,2.01,-0.93,0.54,
1.445,0.18,-0.11,1.09,1.95,-0.95,0.56,
1.448,0.18,-0.11,1.08,1.95,-0.95,0.56,
1.45,0.18,-0.11,1.07,1.95,-0.95,0.56,
1.45,0.18,-0.11,1.07,1.96,-1.02,0.49,
1.452,0.18,-0.11,1.07,1.96,-1.02,0.49,
1.455,0.18,-0.11,1.06,1.96,-1.02,0.49,
1.455,0.18,-0.11,1.06,1.92,-1.09,0.38,
1.458,0.18,-0.11,1.06,1.92,-1.09,0.38,
1.46,0.18,-0.11,1.05,1.92,-1.09,0.38,
1.46,0.18,-0.11,1.05,1.96,-1.14,0.24,
1.462,0.18,-0.11,1.05,1.96,-1.14,0.24,
1.465,0.18,-0.11,1.05,1.93,-1.19,0.16,
1.466,0.17,-0.11,1.05,1.93,-1.19,0.16,
1.467,0.17,-0.11,1.05,1.93,-1.19,0.16,
1.47,0.17,-0.10,1.05,1.93,-1.19,0.16,
1.47,0.17,-0.10,1.05,1.89,-1.23,0.13,
1.475,0.16,-0.10,1.05,1.89,-1.23,0.13,
1.475,0.16,-0.10,1.05,1.89,-1.22,0.09,
1.476,0.17,-0.10,1.05,1.89,-1.22,0.09,
1.483,0.16,-0.10,1.05,1.89,-1.22,0.09,
1.483,0.16,-0.09,1.05,1.89,-1.22,0.09,
1.484,0.16,-0.09,1.05,1.82,-1.23,0.11,
1.484,0.16,-0.09,1.05,1.82,-1.23,0.11,
1.485,0.16,-0.09,1.05,1.82,-1.23,0.11,
1.486,0.16,-0.09,1.05,1.80,-1.23,0.09,
1.487,0.17,-0.08,1.06,1.80,-1.23,0.09,
1.497,0.17,-0.08,1.06,1.77,-1.20,0.12,
1.498,0.16,-0.08,1.06,1.77,-1.20,0.12,
1.498,0.16,-0.08,1.06,1.77,-1.20,0.12,
1.499,0.17,-0.07,1.06,1.77,-1.20,0.12,
1.499,0.17,-0.07,1.06,1.81,-1.20,0.18,
1.499,0.17,-0.07,1.06,1.81,-1.20,0.18,
1.5,0.17,-0.06,1.05,1.81,-1.20,0.18,
1.5,0.17,-0.06,1.05,1.81,-1.17,0.21,
1.502,0.18,-0.06,1.05,1.81,-1.17,0.21,
1.504,0.17,-0.06,1.05,1.81,-1.17,0.21,
1.504,0.17,-0.06,1.05,1.84,-1.14,0.17,
1.512,0.18,-0.06,1.04,1.84,-1.14,0.17,
1.513,0.18,-0.06,1.03,1.84,-1.14,0.17,
1.513,0.18,-0.06,1.03,1.89,-1.14,0.09,
1.513,0.19,-0.06,1.03,1.89,-1.14,0.09,
1.514,0.19,-0.05,1.02,1.89,-1.14,0.09,
1.514,0.19,-0.05,1.02,1.94,-1.20,0.00,
1.516,0.20,-0.05,1.01,1.94,-1.20,0.00,
1.519,0.21,-0.04,1.00,1.94,-1.20,0.00,
1.519,0.21,-0.04,1.00,2.00,-1.17,-0.11,
1.521,0.21,-0.04,0.99,2.00,-1.17,-0.11,
1.524,0.21,-0.04,0.97,2.00,-1.17,-0.11,
1.525,0.21,-0.04,0.97,2.12,-1.17,-0.33,
1.526,0.21,-0.04,0.97,2.12,-1.17,-0.33,
1.529,0.22,-0.04,0.96,2.12,-1.17,-0.33,
1.529,0.22,-0.04,0.96,2.18,-1.17,-0.55,
1.531,0.21,-0.03,0.95,2.18,-1.17,-0.55,
1.534,0.22,-0.03,0.94,2.18,-1.17,-0.55,
1.534,0.22,-0.03,0.94,2.21,-1.23,-0.72,
1.536,0.22,-0.03,0.94,2.21,-1.23,-0.72,
1.54,0.22,-0.03,0.94,2.20,-1.19,-0.88,
1.54,0.21,-0.03,0.93,2.20,-1.19,-0.88,
1.541,0.22,-0.03,0.93,2.20,-1.19,-0.88,
1.544,0.21,-0.02,0.93,2.20,-1.19,-0.88,
1.544,0.21,-0.02,0.93,2.20,-1.24,-0.95,
1.546,0.21,-0.02,0.93,2.20,-1.24,-0.95,
1.549,0.21,-0.02,0.94,2.20,-1.24,-0.95,
1.549,0.21,-0.02,0.94,2.17,-1.24,-0.98,
1.553,0.21,-0.01,0.94,2.17,-1.24,-0.98,
1.554,0.20,-0.01,0.95,2.17,-1.24,-0.98,
1.554,0.20,-0.01,0.95,2.09,-1.20,-0.93,
1.557,0.20,-0.01,0.95,2.09,-1.20,-0.93,
1.559,0.20,-0.01,0.95,2.09,-1.20,-0.93,
1.559,0.20,-0.01,0.95,2.05,-1.19,-0.84,
1.561,0.20,-0.01,0.96,2.05,-1.19,-0.84,
1.564,0.20,-0.01,0.96,2.00,-1.20,-0.75,
1.564,0.20,-0.01,0.96,2.00,-1.20,-0.75,
1.566,0.19,-0.01,0.97,2.00,-1.20,-0.75,
1.569,0.18,-0.00,0.97,2.00,-1.20,-0.75,
1.57,0.18,-0.00,0.97,1.95,-1.23,-0.68,
1.572,0.19,-0.01,0.98,1.95,-1.23,-0.68,
1.575,0.18,-0.01,0.98,1.95,-1.23,-0.68,
1.577,0.18,-0.01,0.98,1.85,-1.24,-0.57,
1.577,0.18,-0.01,0.98,1.85,-1.24,-0.57,
1.579,0.18,-0.01,0.98,1.85,-1.24,-0.57,
1.579,0.18,-0.01,0.98,1.82,-1.32,-0.46,
1.581,0.18,-0.01,0.98,1.82,-1.32,-0.46,
1.584,0.19,-0.01,0.97,1.82,-1.32,-0.46,
1.584,0.19,-0.01,0.97,1.80,-1.37,-0.47,
1.586,0.19,-0.01,0.96,1.80,-1.37,-0.47,
1.588,0.19,-0.02,0.96,1.80,-1.37,-0.47,
1.589,0.19,-0.02,0.96,1.78,-1.44,-0.53,
1.6,0.19,-0.02,0.96,1.78,-1.44,-0.53,
1.6,0.19,-0.02,0.95,1.78,-1.44,-0.53,
1.601,0.19,-0.02,0.95,1.83,-1.52,-0.63,
1.602,0.19,-0.03,0.95,1.83,-1.52,-0.63,
1.602,0.18,-0.02,0.95,1.83,-1.52,-0.63,
1.603,0.18,-0.02,0.95,1.81,-1.60,-0.67,
1.603,0.18,-0.02,0.94,1.81,-1.60,-0.67,
1.604,0.18,-0.02,0.94,1.81,-1.60,-0.67,
1.604,0.18,-0.02,0.94,1.78,-1.69,-0.75,
1.619,0.17,-0.02,0.94,1.78,-1.69,-0.75,
1.62,0.17,-0.01,0.93,1.78,-1.69,-0.75,
1.621,0.17,-0.01,0.93,1.71,-1.71,-0.82,
1.621,0.17,-0.02,0.94,1.71,-1.71,-0.82,
1.622,0.17,-0.02,0.94,1.65,-1.70,-0.83,
1.624,0.17,-0.01,0.93,1.65,-1.70,-0.83,
1.624,0.17,-0.01,0.93,1.65,-1.70,-0.83,
1.624,0.16,-0.00,0.94,1.65,-1.70,-0.83,
1.625,0.16,-0.00,0.94,1.58,-1.73,-0.85,
1.625,0.16,0.00,0.93,1.58,-1.73,-0.85,
1.625,0.15,0.01,0.93,1.58,-1.73,-0.85,
1.626,0.15,0.01,0.93,1.52,-1.67,-0.84,
1.626,0.15,0.01,0.93,1.52,-1.67,-0.84,
1.629,0.14,0.03,0.93,1.52,-1.67,-0.84,
1.629,0.14,0.03,0.93,1.45,-1.63,-0.87,
1.63,0.14,0.04,0.92,1.45,-1.63,-0.87,
1.633,0.13,0.04,0.92,1.45,-1.63,-0.87,
1.633,0.13,0.04,0.92,1.32,-1.53,-0.90,
1.635,0.13,0.05,0.91,1.32,-1.53,-0.90,
1.638,0.12,0.06,0.91,1.32,-1.53,-0.90,
1.638,0.12,0.06,0.91,1.21,-1.38,-0.94,
1.64,0.13,0.07,0.91,1.21,-1.38,-0.94,
1.644,0.13,0.08,0.90,1.21,-1.38,-0.94,
1.644,0.13,0.08,0.90,1.13,-1.26,-1.00,
1.645,0.13,0.08,0.89,1.13,-1.26,-1.00,
1.648,0.14,0.08,0.89,1.13,-1.26,-1.00,
1.648,0.14,0.08,0.89,1.12,-1.16,-1.06,
1.651,0.14,0.09,0.89,1.12,-1.16,-1.06,
1.653,0.14,0.09,0.89,1.12,-1.16,-1.06,
1.653,0.14,0.09,0.89,1.18,-1.12,-1.19,
1.655,0.15,0.09,0.88,1.18,-1.12,-1.19,
1.658,0.16,0.09,0.86,1.18,-1.12,-1.19,
1.659,0.16,0.09,0.86,1.26,-1.11,-1.22,
1.661,0.17,0.10,0.86,1.26,-1.11,-1.22,
1.663,0.18,0.10,0.85,1.26,-1.11,-1.22,
1.663,0.18,0.10,0.85,1.40,-1.15,-1.37,
1.666,0.18,0.09,0.83,1.40,-1.15,-1.37,
1.668,0.19,0.09,0.81,1.40,-1.15,-1.37,
1.669,0.19,0.09,0.81,1.56,-1.14,-1.53,
1.671,0.19,0.09,0.80,1.56,-1.14,-1.53,
1.677,0.19,0.09,0.80,1.67,-1.25,-1.80,
1.678,0.19,0.09,0.79,1.67,-1.25,-1.80,
1.678,0.19,0.09,0.77,1.67,-1.25,-1.80,
1.678,0.18,0.09,0.76,1.67,-1.25,-1.80,
1.678,0.18,0.09,0.76,1.70,-1.31,-2.09,
1.682,0.18,0.10,0.74,1.70,-1.31,-2.09,
1.683,0.17,0.10,0.73,1.70,-1.31,-2.09,
1.683,0.17,0.10,0.73,1.72,-1.36,-2.31,
1.686,0.16,0.09,0.72,1.72,-1.36,-2.31,
1.688,0.15,0.10,0.71,1.72,-1.36,-2.31,
1.688,0.15,0.10,0.71,1.62,-1.36,-2.58,
1.69,0.15,0.11,0.70,1.62,-1.36,-2.58,
1.696,0.14,0.11,0.70,1.62,-1.36,-2.58,
1.697,0.14,0.11,0.70,1.45,-1.38,-2.78,
1.697,0.13,0.11,0.69,1.45,-1.38,-2.78,
1.697,0.12,0.12,0.68,1.45,-1.38,-2.78,
1.697,0.12,0.12,0.68,1.32,-1.33,-2.92,
1.7,0.11,0.12,0.68,1.32,-1.33,-2.92,
1.703,0.11,0.12,0.68,1.32,-1.33,-2.92,
1.703,0.11,0.12,0.68,1.13,-1.30,-3.01,
1.705,0.10,0.12,0.68,1.13,-1.30,-3.01,
1.709,0.09,0.12,0.68,1.13,-1.30,-3.01,
1.709,0.09,0.12,0.68,1.03,-1.27,-3.07,
1.71,0.09,0.12,0.68,1.03,-1.27,-3.07,
1.713,0.09,0.12,0.68,1.03,-1.27,-3.07,
1.713,0.09,0.12,0.68,0.88,-1.29,-3.08,
1.716,0.08,0.12,0.68,0.88,-1.29,-3.08,
1.718,0.08,0.12,0.68,0.88,-1.29,-3.08,
1.718,0.08,0.12,0.68,0.80,-1.33,-3.06,
1.721,0.07,0.12,0.67,0.80,-1.33,-3.06,
1.723,0.07,0.13,0.68,0.80,-1.33,-3.06,
1.724,0.07,0.13,0.68,0.72,-1.34,-3.06,
1.727,0.06,0.13,0.68,0.72,-1.34,-3.06,
1.728,0.06,0.13,0.68,0.72,-1.34,-3.06,
1.728,0.06,0.13,0.68,0.66,-1.35,-3.05,
1.731,0.06,0.13,0.68,0.66,-1.35,-3.05,
1.732,0.06,0.13,0.67,0.66,-1.35,-3.05,
1.733,0.06,0.13,0.67,0.57,-1.35,-3.04,
1.735,0.06,0.13,0.68,0.57,-1.35,-3.04,
1.738,0.06,0.13,0.68,0.55,-1.34,-3.03,
1.738,0.06,0.13,0.69,0.55,-1.34,-3.03,
1.74,0.06,0.13,0.69,0.55,-1.34,-3.03,
1.743,0.07,0.13,0.70,0.55,-1.34,-3.03,
1.744,0.07,0.13,0.70,0.58,-1.36,-2.93,
1.745,0.07,0.13,0.70,0.58,-1.36,-2.93,
1.747,0.07,0.13,0.70,0.58,-1.36,-2.93,
1.748,0.07,0.13,0.70,0.63,-1.40,-2.84,
1.751,0.08,0.13,0.72,0.63,-1.40,-2.84,
1.754,0.07,0.13,0.72,0.63,-1.40,-2.84,
1.754,0.07,0.13,0.72,0.69,-1.44,-2.73,
1.754,0.07,0.13,0.72,0.69,-1.44,-2.73,
1.757,0.06,0.13,0.73,0.69,-1.44,-2.73,
1.757,0.06,0.13,0.73,0.72,-1.45,-2.56,
1.761,0.06,0.13,0.73,0.72,-1.45,-2.56,
1.763,0.06,0.13,0.73,0.66,-1.47,-2.48,
1.763,0.06,0.13,0.74,0.66,-1.47,-2.48,
1.765,0.06,0.13,0.74,0.66,-1.47,-2.48,
1.768,0.05,0.14,0.74,0.66,-1.47,-2.48,
1.768,0.05,0.14,0.74,0.61,-1.43,-2.36,
1.77,0.05,0.14,0.75,0.61,-1.43,-2.36,
1.773,0.04,0.14,0.75,0.61,-1.43,-2.36,
1.773,0.04,0.14,0.75,0.54,-1.43,-2.28,
1.776,0.04,0.15,0.75,0.54,-1.43,-2.28,
1.777,0.03,0.15,0.76,0.54,-1.43,-2.28,
1.777,0.03,0.15,0.76,0.47,-1.41,-2.24,
1.78,0.03,0.15,0.75,0.47,-1.41,-2.24,
1.782,0.03,0.16,0.75,0.47,-1.41,-2.24,
1.783,0.03,0.16,0.75,0.39,-1.34,-2.17,
1.785,0.02,0.16,0.75,0.39,-1.34,-2.17,
1.789,0.02,0.16,0.75,0.30,-1.27,-2.17,
1.789,0.02,0.16,0.75,0.30,-1.27,-2.17,
1.789,0.02,0.16,0.74,0.30,-1.27,-2.17,
1.797,0.03,0.17,0.74,0.30,-1.27,-2.17,
1.798,0.03,0.17,0.74,0.25,-1.26,-2.18,
1.798,0.04,0.17,0.75,0.25,-1.26,-2.18,
1.799,0.04,0.17,0.74,0.25,-1.26,-2.18,
1.799,0.04,0.17,0.74,0.29,-1.21,-2.26,
1.8,0.04,0.17,0.75,0.29,-1.21,-2.26,
1.801,0.05,0.17,0.74,0.29,-1.21,-2.26,
1.802,0.05,0.17,0.74,0.38,-1.17,-2.20,
1.804,0.05,0.18,0.74,0.38,-1.17,-2.20,
1.807,0.05,0.18,0.73,0.38,-1.17,-2.20,
1.81,0.05,0.18,0.73,0.44,-1.18,-2.20,
1.811,0.06,0.18,0.73,0.44,-1.18,-2.20,
1.813,0.06,0.18,0.73,0.51,-1.14,-2.26,
1.813,0.06,0.19,0.72,0.51,-1.14,-2.26,
1.814,0.06,0.19,0.72,0.51,-1.14,-2.26,
1.817,0.06,0.20,0.71,0.51,-1.14,-2.26,
1.817,0.06,0.20,0.71,0.57,-1.13,-2.34,
1.819,0.06,0.20,0.70,0.57,-1.13,-2.34,
1.822,0.06,0.21,0.70,0.57,-1.13,-2.34,
1.822,0.06,0.21,0.70,0.56,-1.06,-2.46,
1.824,0.06,0.22,0.69,0.56,-1.06,-2.46,
1.826,0.06,0.22,0.69,0.56,-1.06,-2.46,
1.827,0.06,0.22,0.69,0.55,-0.97,-2.58,
1.829,0.06,0.23,0.68,0.55,-0.97,-2.58,
1.831,0.06,0.23,0.68,0.55,-0.97,-2.58,
1.832,0.06,0.23,0.68,0.56,-0.87,-2.69,
1.834,0.06,0.24,0.67,0.56,-0.87,-2.69,
1.837,0.06,0.24,0.67,0.54,-0.80,-2.73,
1.837,0.05,0.24,0.67,0.54,-0.80,-2.73,
1.839,0.05,0.23,0.67,0.54,-0.80,-2.73,
1.841,0.05,0.23,0.67,0.54,-0.80,-2.73,
1.842,0.05,0.23,0.67,0.49,-0.73,-2.79,
1.845,0.05,0.23,0.66,0.49,-0.73,-2.79,
1.847,0.05,0.23,0.66,0.49,-0.73,-2.79,
1.847,0.05,0.23,0.66,0.46,-0.79,-2.81,
1.85,0.04,0.23,0.66,0.46,-0.79,-2.81,
1.852,0.04,0.23,0.65,0.46,-0.79,-2.81,
1.852,0.04,0.23,0.65,0.43,-0.82,-2.91,
1.855,0.02,0.23,0.65,0.43,-0.82,-2.91,
1.857,0.02,0.22,0.65,0.43,-0.82,-2.91,
1.857,0.02,0.22,0.65,0.31,-0.85,-2.95,
1.86,0.02,0.22,0.64,0.31,-0.85,-2.95,
1.862,0.02,0.22,0.64,0.18,-0.92,-2.99,
1.862,0.01,0.22,0.64,0.18,-0.92,-2.99,
1.864,0.01,0.21,0.65,0.18,-0.92,-2.99,
1.867,0.00,0.21,0.65,0.18,-0.92,-2.99,
1.867,0.00,0.21,0.65,0.09,-0.99,-3.02,
1.869,-0.00,0.21,0.65,0.09,-0.99,-3.02,
1.872,-0.00,0.21,0.65,0.09,-0.99,-3.02,
1.872,-0.00,0.21,0.65,-0.02,-1.06,-2.98,
1.874,-0.01,0.21,0.65,-0.02,-1.06,-2.98,
1.878,-0.02,0.21,0.66,-0.02,-1.06,-2.98,
1.878,-0.02,0.21,0.66,-0.09,-1.05,-2.97,
1.879,-0.02,0.21,0.66,-0.09,-1.05,-2.97,
1.881,-0.03,0.22,0.67,-0.09,-1.05,-2.97,
1.881,-0.03,0.22,0.67,-0.18,-1.05,-2.91,
1.884,-0.03,0.22,0.67,-0.18,-1.05,-2.91,
1.886,-0.04,0.22,0.68,-0.18,-1.05,-2.91,
1.887,-0.04,0.22,0.68,-0.27,-0.98,-2.81,
1.889,-0.04,0.23,0.68,-0.27,-0.98,-2.81,
1.891,-0.04,0.23,0.68,-0.27,-0.98,-2.81,
1.892,-0.04,0.23,0.68,-0.36,-0.94,-2.69,
1.9,-0.05,0.23,0.69,-0.36,-0.94,-2.69,
1.901,-0.05,0.23,0.70,-0.36,-0.94,-2.69,
1.901,-0.05,0.23,0.70,-0.44,-0.85,-2.62,
1.901,-0.05,0.23,0.70,-0.44,-0.85,-2.62,
1.902,-0.05,0.23,0.71,-0.44,-0.85,-2.62,
1.902,-0.05,0.23,0.71,-0.49,-0.85,-2.49,
1.903,-0.05,0.23,0.72,-0.49,-0.85,-2.49,
1.905,-0.05,0.23,0.72,-0.49,-0.85,-2.49,
1.906,-0.05,0.23,0.72,-0.50,-0.81,-2.39,
1.912,-0.05,0.23,0.72,-0.50,-0.81,-2.39,
1.912,-0.05,0.23,0.72,-0.49,-0.79,-2.28,
1.913,-0.06,0.23,0.73,-0.49,-0.79,-2.28,
1.913,-0.06,0.23,0.74,-0.49,-0.79,-2.28,
1.916,-0.06,0.23,0.74,-0.49,-0.79,-2.28,
1.916,-0.06,0.23,0.74,-0.53,-0.78,-2.17,
1.919,-0.06,0.22,0.74,-0.53,-0.78,-2.17,
1.921,-0.06,0.22,0.75,-0.53,-0.78,-2.17,
1.921,-0.06,0.22,0.75,-0.55,-0.78,-2.07,
1.924,-0.07,0.22,0.75,-0.55,-0.78,-2.07,
1.926,-0.07,0.22,0.75,-0.55,-0.78,-2.07,
1.926,-0.07,0.22,0.75,-0.57,-0.78,-1.99,
1.929,-0.08,0.22,0.76,-0.57,-0.78,-1.99,
1.931,-0.08,0.22,0.77,-0.57,-0.78,-1.99,
1.931,-0.08,0.22,0.77,-0.65,-0.80,-1.93,
1.933,-0.08,0.22,0.77,-0.65,-0.80,-1.93,
1.936,-0.08,0.22,0.77,-0.71,-0.76,-1.81,
1.936,-0.08,0.22,0.78,-0.71,-0.76,-1.81,
1.938,-0.09,0.23,0.78,-0.71,-0.76,-1.81,
1.941,-0.10,0.23,0.79,-0.71,-0.76,-1.81,
1.941,-0.10,0.23,0.79,-0.73,-0.71,-1.72,
1.944,-0.10,0.23,0.79,-0.73,-0.71,-1.72,
1.945,-0.11,0.24,0.80,-0.73,-0.71,-1.72,
1.945,-0.11,0.24,0.80,-0.83,-0.63,-1.62,
1.947,-0.12,0.24,0.81,-0.83,-0.63,-1.62,
1.95,-0.12,0.24,0.81,-0.83,-0.63,-1.62,
1.95,-0.12,0.24,0.81,-0.97,-0.58,-1.51,
1.952,-0.13,0.25,0.82,-0.97,-0.58,-1.51,
1.955,-0.14,0.25,0.83,-0.97,-0.58,-1.51,
1.955,-0.14,0.25,0.83,-1.10,-0.47,-1.37,
1.957,-0.15,0.25,0.83,-1.10,-0.47,-1.37,
1.961,-0.15,0.25,0.83,-1.10,-0.47,-1.37,
1.962,-0.15,0.25,0.83,-1.23,-0.40,-1.24,
1.962,-0.16,0.25,0.84,-1.23,-0.40,-1.24,
1.965,-0.16,0.26,0.84,-1.23,-0.40,-1.24,
1.965,-0.16,0.26,0.84,-1.41,-0.35,-1.20,
1.967,-0.17,0.25,0.85,-1.41,-0.35,-1.20,
1.97,-0.17,0.25,0.85,-1.41,-0.35,-1.20,
1.97,-0.17,0.25,0.85,-1.50,-0.30,-1.06,
1.973,-0.18,0.25,0.85,-1.50,-0.30,-1.06,
1.976,-0.17,0.25,0.85,-1.50,-0.30,-1.06,
1.977,-0.17,0.25,0.85,-1.61,-0.31,-1.01,
1.977,-0.17,0.24,0.85,-1.61,-0.31,-1.01,
1.979,-0.17,0.23,0.85,-1.61,-0.31,-1.01,
1.979,-0.17,0.23,0.85,-1.62,-0.34,-1.01,
1.982,-0.17,0.23,0.86,-1.62,-0.34,-1.01,
1.984,-0.17,0.23,0.86,-1.62,-0.34,-1.01,
1.984,-0.17,0.23,0.86,-1.59,-0.42,-1.00,
1.987,-0.16,0.22,0.85,-1.59,-0.42,-1.00,
1.989,-0.16,0.22,0.85,-1.59,-0.42,-1.00,
1.989,-0.16,0.22,0.85,-1.56,-0.49,-0.93,
1.997,-0.16,0.21,0.85,-1.56,-0.49,-0.93,
1.998,-0.16,0.21,0.85,-1.56,-0.49,-0.93,
1.998,-0.16,0.21,0.85,-1.50,-0.55,-1.01,
1.998,-0.16,0.20,0.84,-1.50,-0.55,-1.01,
2.0,-0.15,0.20,0.85,-1.50,-0.55,-1.01,
2.0,-0.15,0.20,0.85,-1.45,-0.64,-1.02,
2.001,-0.15,0.19,0.85,-1.45,-0.64,-1.02,
2.004,-0.15,0.19,0.85,-1.45,-0.64,-1.02,
2.004,-0.15,0.19,0.85,-1.43,-0.74,-1.07,
2.006,-0.15,0.19,0.85,-1.43,-0.74,-1.07,
2.01,-0.15,0.18,0.86,-1.43,-0.74,-1.07,
2.01,-0.15,0.18,0.86,-1.42,-0.79,-1.05,
2.012,-0.16,0.18,0.85,-1.42,-0.79,-1.05,
2.014,-0.15,0.19,0.86,-1.42,-0.79,-1.05,
2.014,-0.15,0.19,0.86,-1.41,-0.82,-0.98,
2.016,-0.16,0.19,0.86,-1.41,-0.82,-0.98,
2.019,-0.16,0.19,0.86,-1.41,-0.82,-0.98,
2.019,-0.16,0.19,0.86,-1.44,-0.81,-0.96,
2.021,-0.16,0.19,0.87,-1.44,-0.81,-0.96,
2.024,-0.17,0.19,0.88,-1.44,-0.81,-0.96,
2.024,-0.17,0.19,0.88,-1.50,-0.77,-0.91,
2.026,-0.17,0.20,0.89,-1.50,-0.77,-0.91,
2.029,-0.17,0.21,0.90,-1.50,-0.77,-0.91,
2.029,-0.17,0.21,0.90,-1.57,-0.71,-0.76,
2.032,-0.17,0.21,0.90,-1.57,-0.71,-0.76,
2.034,-0.17,0.23,0.91,-1.57,-0.71,-0.76,
2.034,-0.17,0.23,0.91,-1.62,-0.58,-0.61,
2.036,-0.17,0.23,0.92,-1.62,-0.58,-0.61,
2.039,-0.17,0.24,0.93,-1.62,-0.58,-0.61,
2.039,-0.17,0.24,0.93,-1.64,-0.39,-0.47,
2.044,-0.16,0.24,0.94,-1.64,-0.39,-0.47,
2.046,-0.16,0.24,0.94,-1.64,-0.39,-0.47,
2.046,-0.16,0.24,0.94,-1.63,-0.25,-0.32,
2.047,-0.15,0.25,0.96,-1.63,-0.25,-0.32,
2.049,-0.15,0.25,0.96,-1.63,-0.25,-0.32,
2.049,-0.15,0.25,0.96,-1.55,-0.14,-0.16,
2.052,-0.15,0.26,0.97,-1.55,-0.14,-0.16,
2.054,-0.14,0.25,0.96,-1.55,-0.14,-0.16,
2.054,-0.14,0.25,0.96,-1.49,-0.02,0.01,
2.056,-0.13,0.25,0.97,-1.49,-0.02,0.01,
2.06,-0.13,0.25,0.97,-1.49,-0.02,0.01,
2.061,-0.13,0.25,0.97,-1.40,0.02,0.07,
2.061,-0.12,0.25,0.97,-1.40,0.02,0.07,
2.064,-0.12,0.25,0.97,-1.40,0.02,0.07,
2.065,-0.12,0.25,0.97,-1.28,0.02,0.09,
2.066,-0.12,0.25,0.96,-1.28,0.02,0.09,
2.068,-0.11,0.25,0.97,-1.28,0.02,0.09,
2.069,-0.11,0.25,0.97,-1.20,0.01,0.08,
2.072,-0.11,0.25,0.97,-1.20,0.01,0.08,
2.074,-0.12,0.25,0.97,-1.20,0.01,0.08,
2.074,-0.12,0.25,0.97,-1.13,-0.01,0.07,
2.077,-0.11,0.25,0.97,-1.13,-0.01,0.07,
2.079,-0.11,0.25,0.97,-1.13,-0.01,0.07,
2.079,-0.11,0.25,0.97,-1.13,0.06,0.07,
2.081,-0.11,0.25,0.97,-1.13,0.06,0.07,
2.084,-0.11,0.25,0.97,-1.11,0.07,0.12,
2.084,-0.11,0.25,0.98,-1.11,0.07,0.12,
2.087,-0.11,0.24,0.97,-1.11,0.07,0.12,
2.089,-0.11,0.24,0.97,-1.11,0.07,0.12,
2.089,-0.11,0.24,0.97,-1.14,0.04,0.12,
2.091,-0.12,0.24,0.97,-1.14,0.04,0.12,
2.102,-0.12,0.23,0.97,-1.14,0.04,0.12,
2.103,-0.12,0.23,0.97,-1.13,-0.02,0.12,
2.103,-0.12,0.22,0.97,-1.13,-0.02,0.12,
2.104,-0.13,0.22,0.96,-1.13,-0.02,0.12,
2.104,-0.13,0.22,0.96,-1.16,-0.09,0.10,
2.105,-0.13,0.21,0.97,-1.16,-0.09,0.10,
2.105,-0.14,0.21,0.96,-1.16,-0.09,0.10,
2.106,-0.14,0.21,0.96,-1.23,-0.19,0.05,
2.107,-0.14,0.21,0.97,-1.23,-0.19,0.05,
2.108,-0.14,0.21,0.97,-1.31,-0.24,0.03,
2.109,-0.15,0.22,0.97,-1.31,-0.24,0.03,
2.117,-0.16,0.21,0.97,-1.31,-0.24,0.03,
2.118,-0.17,0.22,0.97,-1.31,-0.24,0.03,
2.118,-0.17,0.22,0.97,-1.43,-0.20,0.06,
2.119,-0.18,0.22,0.98,-1.43,-0.20,0.06,
2.119,-0.19,0.22,0.98,-1.43,-0.20,0.06,
2.119,-0.19,0.22,0.98,-1.61,-0.18,0.07,
2.12,-0.19,0.22,0.98,-1.61,-0.18,0.07,
2.123,-0.20,0.22,0.98,-1.61,-0.18,0.07,
2.123,-0.20,0.22,0.98,-1.82,-0.15,0.12,
2.126,-0.21,0.21,0.98,-1.82,-0.15,0.12,
2.129,-0.21,0.22,0.99,-1.82,-0.15,0.12,
2.129,-0.21,0.22,0.99,-1.93,-0.12,0.20,
2.13,-0.21,0.22,0.99,-1.93,-0.12,0.20,
2.133,-0.21,0.22,0.99,-1.93,-0.12,0.20,
2.133,-0.21,0.22,0.99,-2.02,-0.14,0.21,
2.135,-0.21,0.22,0.99,-2.02,-0.14,0.21,
2.139,-0.21,0.22,0.99,-2.02,-0.14,0.21,
2.139,-0.21,0.22,0.99,-2.10,-0.10,0.23,
2.14,-0.21,0.22,0.99,-2.10,-0.10,0.23,
2.144,-0.21,0.22,0.99,-2.10,-0.10,0.23,
2.145,-0.21,0.22,0.99,-2.10,-0.09,0.26,
2.145,-0.20,0.22,1.00,-2.10,-0.09,0.26,
2.148,-0.19,0.22,1.00,-2.10,-0.09,0.26,
2.148,-0.19,0.22,1.00,-2.02,-0.07,0.27,
2.15,-0.19,0.21,1.00,-2.02,-0.07,0.27,
2.152,-0.18,0.21,1.00,-2.02,-0.07,0.27,
2.153,-0.18,0.21,1.00,-1.91,-0.05,0.34,
2.155,-0.17,0.21,1.00,-1.91,-0.05,0.34,
2.158,-0.17,0.21,0.99,-1.91,-0.05,0.34,
2.159,-0.17,0.21,0.99,-1.79,-0.07,0.30,
2.161,-0.15,0.21,0.99,-1.79,-0.07,0.30,
2.163,-0.15,0.21,0.99,-1.79,-0.07,0.30,
2.163,-0.15,0.21,0.99,-1.67,-0.08,0.30,
2.166,-0.14,0.21,0.99,-1.67,-0.08,0.30,
2.167,-0.14,0.21,0.99,-1.67,-0.08,0.30,
2.168,-0.14,0.21,0.99,-1.49,-0.08,0.20,
2.171,-0.13,0.22,0.99,-1.49,-0.08,0.20,
2.173,-0.13,0.22,0.98,-1.49,-0.08,0.20,
2.173,-0.13,0.22,0.98,-1.39,-0.07,0.20,
2.175,-0.13,0.22,0.98,-1.39,-0.07,0.20,
2.178,-0.13,0.22,0.99,-1.39,-0.07,0.20,
2.179,-0.13,0.22,0.99,-1.34,0.03,0.18,
2.18,-0.13,0.23,0.98,-1.34,0.03,0.18,
2.183,-0.13,0.23,0.98,-1.27,0.07,0.16,
2.183,-0.12,0.23,0.98,-1.27,0.07,0.16,
2.185,-0.12,0.23,0.98,-1.27,0.07,0.16,
2.187,-0.12,0.23,0.98,-1.27,0.07,0.16,
2.187,-0.12,0.23,0.98,-1.24,0.14,0.16,
2.19,-0.12,0.23,0.99,-1.24,0.14,0.16,
2.193,-0.12,0.23,0.99,-1.24,0.14,0.16,
2.193,-0.12,0.23,0.99,-1.21,0.19,0.14,
2.197,-0.12,0.23,1.00,-1.21,0.19,0.14,
2.198,-0.11,0.23,0.99,-1.21,0.19,0.14,
2.198,-0.11,0.23,0.99,-1.18,0.19,0.18,
2.2,-0.11,0.23,0.99,-1.18,0.19,0.18,
2.203,-0.10,0.23,1.00,-1.18,0.19,0.18,
2.203,-0.10,0.23,1.00,-1.17,0.18,0.21,
2.206,-0.10,0.23,1.00,-1.17,0.18,0.21,
2.208,-0.10,0.23,1.00,-1.08,0.23,0.25,
2.208,-0.10,0.23,1.00,-1.08,0.23,0.25,
2.21,-0.10,0.23,1.01,-1.08,0.23,0.25,
2.213,-0.09,0.23,1.01,-1.08,0.23,0.25,
2.213,-0.09,0.23,1.01,-1.03,0.24,0.31,
2.215,-0.09,0.23,1.02,-1.03,0.24,0.31,
2.218,-0.08,0.23,1.02,-1.03,0.24,0.31,
2.218,-0.08,0.23,1.02,-0.97,0.23,0.41,
2.22,-0.08,0.23,1.03,-0.97,0.23,0.41,
2.223,-0.07,0.22,1.03,-0.97,0.23,0.41,
2.223,-0.07,0.22,1.03,-0.88,0.25,0.50,
2.225,-0.07,0.22,1.03,-0.88,0.25,0.50,
2.227,-0.07,0.22,1.03,-0.88,0.25,0.50,
2.228,-0.07,0.22,1.03,-0.82,0.23,0.55,
2.23,-0.06,0.22,1.04,-0.82,0.23,0.55,
2.233,-0.06,0.21,1.04,-0.82,0.23,0.55,
2.233,-0.06,0.21,1.04,-0.72,0.21,0.59,
2.235,-0.06,0.21,1.03,-0.72,0.21,0.59,
2.238,-0.05,0.21,1.04,-0.72,0.21,0.59,
2.238,-0.05,0.21,1.04,-0.70,0.17,0.62,
2.241,-0.05,0.21,1.03,-0.70,0.17,0.62,
2.243,-0.05,0.21,1.04,-0.70,0.17,0.62,
2.243,-0.05,0.21,1.04,-0.63,0.13,0.60,
2.246,-0.05,0.20,1.04,-0.63,0.13,0.60,
2.248,-0.05,0.20,1.04,-0.63,0.13,0.60,
2.248,-0.05,0.20,1.04,-0.57,0.11,0.60,
2.25,-0.05,0.20,1.03,-0.57,0.11,0.60,
2.253,-0.05,0.20,1.03,-0.57,0.11,0.60,
2.253,-0.05,0.20,1.03,-0.57,0.09,0.63,
2.256,-0.05,0.20,1.04,-0.57,0.09,0.63,
2.258,-0.05,0.20,1.04,-0.57,0.06,0.57,
2.258,-0.05,0.20,1.04,-0.57,0.06,0.57,
2.26,-0.05,0.20,1.04,-0.57,0.06,0.57,
2.263,-0.05,0.20,1.04,-0.57,0.06,0.57,
2.264,-0.05,0.20,1.04,-0.59,0.08,0.64,
2.264,-0.06,0.20,1.05,-0.59,0.08,0.64,
2.268,-0.05,0.20,1.04,-0.59,0.08,0.64,
2.268,-0.05,0.20,1.04,-0.60,0.10,0.67,
2.271,-0.06,0.20,1.05,-0.60,0.10,0.67,
2.273,-0.06,0.20,1.04,-0.60,0.10,0.67,
2.273,-0.06,0.20,1.04,-0.64,0.10,0.70,
2.275,-0.07,0.21,1.04,-0.64,0.10,0.70,
2.277,-0.06,0.21,1.04,-0.64,0.10,0.70,
2.277,-0.06,0.21,1.04,-0.66,0.09,0.67,
2.279,-0.06,0.20,1.04,-0.66,0.09,0.67,
2.282,-0.06,0.20,1.04,-0.72,0.14,0.65,
2.282,-0.07,0.20,1.03,-0.72,0.14,0.65,
2.285,-0.07,0.20,1.03,-0.72,0.14,0.65,
2.287,-0.07,0.20,1.03,-0.72,0.14,0.65,
2.287,-0.07,0.20,1.03,-0.73,0.12,0.58,
2.29,-0.07,0.20,1.02,-0.73,0.12,0.58,
2.293,-0.07,0.20,1.02,-0.73,0.12,0.58,
2.293,-0.07,0.20,1.02,-0.76,0.10,0.55,
2.301,-0.07,0.20,1.02,-0.76,0.10,0.55,
2.302,-0.07,0.20,1.02,-0.76,0.10,0.55,
2.302,-0.07,0.20,1.02,-0.79,0.10,0.43,
2.302,-0.07,0.20,1.02,-0.79,0.10,0.43,
2.303,-0.07,0.19,1.01,-0.79,0.10,0.43,
2.305,-0.07,0.19,1.01,-0.81,0.07,0.39,
2.305,-0.07,0.19,1.01,-0.81,0.07,0.39,
2.307,-0.07,0.19,1.01,-0.80,0.03,0.34,
2.307,-0.07,0.19,1.01,-0.80,0.03,0.34,
2.309,-0.07,0.18,1.00,-0.80,0.03,0.34,
2.313,-0.07,0.18,1.00,-0.80,0.03,0.34,
2.314,-0.07,0.18,1.00,-0.80,0.00,0.30,
2.314,-0.07,0.18,1.00,-0.80,0.00,0.30,
2.317,-0.07,0.17,1.00,-0.80,0.00,0.30,
2.317,-0.07,0.17,1.00,-0.77,-0.06,0.25,
2.32,-0.06,0.17,1.00,-0.77,-0.06,0.25,
2.322,-0.06,0.17,1.00,-0.77,-0.06,0.25,
2.322,-0.06,0.17,1.00,-0.76,-0.12,0.23,
2.325,-0.06,0.17,1.00,-0.76,-0.12,0.23,
2.329,-0.06,0.17,1.00,-0.76,-0.12,0.23,
2.33,-0.06,0.17,1.00,-0.71,-0.14,0.25,
2.33,-0.06,0.18,1.00,-0.71,-0.14,0.25,
2.332,-0.06,0.18,1.00,-0.68,-0.16,0.23,
2.332,-0.06,0.18,1.00,-0.68,-0.16,0.23,
2.335,-0.05,0.18,1.00,-0.68,-0.16,0.23,
2.336,-0.05,0.18,1.00,-0.68,-0.16,0.23,
2.337,-0.05,0.18,1.00,-0.67,-0.10,0.22,
2.339,-0.05,0.18,1.00,-0.67,-0.10,0.22,
2.342,-0.05,0.18,1.01,-0.67,-0.10,0.22,
2.342,-0.05,0.18,1.01,-0.61,-0.05,0.25,
2.344,-0.04,0.18,1.01,-0.61,-0.05,0.25,
2.347,-0.04,0.18,1.01,-0.61,-0.05,0.25,
2.347,-0.04,0.18,1.01,-0.57,-0.05,0.28,
2.349,-0.04,0.18,1.01,-0.57,-0.05,0.28,
2.351,-0.04,0.18,1.01,-0.57,-0.05,0.28,
2.352,-0.04,0.18,1.01,-0.52,-0.02,0.33,
2.355,-0.04,0.19,1.01,-0.52,-0.02,0.33,
2.357,-0.04,0.19,1.01,-0.49,0.01,0.31,
2.357,-0.04,0.18,1.01,-0.49,0.01,0.31,
2.359,-0.04,0.19,1.01,-0.49,0.01,0.31,
2.362,-0.04,0.19,1.02,-0.49,0.01,0.31,
2.362,-0.04,0.19,1.02,-0.48,0.03,0.32,
2.364,-0.04,0.19,1.01,-0.48,0.03,0.32,
2.366,-0.05,0.19,1.01,-0.48,0.03,0.32,
2.367,-0.05,0.19,1.01,-0.52,0.08,0.35,
2.37,-0.04,0.20,1.01,-0.52,0.08,0.35,
2.371,-0.05,0.19,1.01,-0.52,0.08,0.35,
2.372,-0.05,0.19,1.01,-0.54,0.09,0.33,
2.374,-0.05,0.19,1.01,-0.54,0.09,0.33,
2.376,-0.05,0.19,1.01,-0.54,0.09,0.33,
2.377,-0.05,0.19,1.01,-0.56,0.14,0.32,
2.38,-0.05,0.19,1.01,-0.56,0.14,0.32,
2.381,-0.05,0.19,1.01,-0.56,0.14,0.32,
2.381,-0.05,0.19,1.01,-0.61,0.12,0.29,
2.383,-0.04,0.19,1.01,-0.61,0.12,0.29,
2.386,-0.04,0.19,1.01,-0.61,0.12,0.29,
2.386,-0.04,0.19,1.01,-0.57,0.13,0.31,
2.389,-0.04,0.19,1.01,-0.57,0.13,0.31,
2.391,-0.03,0.19,1.01,-0.57,0.13,0.31,
2.391,-0.03,0.19,1.01,-0.54,0.10,0.33,
2.394,-0.03,0.18,1.01,-0.54,0.10,0.33,
2.4,-0.02,0.18,1.01,-0.54,0.10,0.33,
2.4,-0.02,0.18,1.01,-0.48,0.09,0.28,
2.401,-0.02,0.19,1.01,-0.48,0.09,0.28,
2.401,-0.01,0.18,1.01,-0.48,0.09,0.28,
2.401,-0.01,0.18,1.01,-0.37,0.03,0.29,
2.403,-0.01,0.18,1.01,-0.37,0.03,0.29,
2.406,-0.01,0.18,1.01,-0.27,0.05,0.29,
2.406,-0.00,0.19,1.01,-0.27,0.05,0.29,
2.408,-0.00,0.19,1.02,-0.27,0.05,0.29,
2.412,-0.00,0.18,1.02,-0.27,0.05,0.29,
2.413,-0.00,0.18,1.02,-0.19,0.05,0.32,
2.413,-0.00,0.18,1.02,-0.19,0.05,0.32,
2.415,0.00,0.18,1.02,-0.19,0.05,0.32,
2.416,0.00,0.18,1.02,-0.18,0.06,0.36,
2.418,0.00,0.18,1.02,-0.18,0.06,0.36,
2.421,0.01,0.18,1.02,-0.18,0.06,0.36,
2.421,0.01,0.18,1.02,-0.15,0.03,0.38,
2.424,0.01,0.18,1.02,-0.15,0.03,0.38,
2.426,0.01,0.18,1.02,-0.15,0.03,0.38,
2.427,0.01,0.18,1.02,-0.11,0.03,0.43,
2.429,0.01,0.18,1.02,-0.11,0.03,0.43,
2.43,0.01,0.18,1.02,-0.11,0.03,0.43,
2.43,0.01,0.18,1.02,-0.08,0.02,0.40,
2.432,0.01,0.18,1.02,-0.08,0.02,0.40,
2.435,0.01,0.18,1.02,-0.08,0.02,0.40,
2.435,0.01,0.18,1.02,-0.03,0.05,0.40,
2.437,0.01,0.18,1.02,-0.03,0.05,0.40,
2.44,0.01,0.18,1.02,-0.03,0.05,0.40,
2.44,0.01,0.18,1.02,-0.05,0.03,0.42,
2.442,0.01,0.18,1.02,-0.05,0.03,0.42,
2.444,0.01,0.18,1.02,-0.05,0.03,0.42,
2.446,0.01,0.18,1.02,-0.07,0.05,0.38,
2.447,0.01,0.18,1.02,-0.07,0.05,0.38,
2.449,0.01,0.18,1.02,-0.07,0.05,0.38,
2.45,0.01,0.18,1.02,-0.10,0.03,0.38,
2.452,0.01,0.17,1.02,-0.10,0.03,0.38,
2.455,0.01,0.17,1.02,-0.07,0.05,0.39,
2.455,0.01,0.18,1.01,-0.07,0.05,0.39,
2.457,0.02,0.18,1.02,-0.07,0.05,0.39,
2.459,0.01,0.17,1.02,-0.07,0.05,0.39,
2.46,0.01,0.17,1.02,-0.07,0.00,0.33,
2.462,0.01,0.17,1.02,-0.07,0.00,0.33,
2.464,0.01,0.17,1.02,-0.07,0.00,0.33,
2.465,0.01,0.17,1.02,-0.05,-0.00,0.39,
2.469,0.01,0.17,1.02,-0.05,-0.00,0.39,
2.47,0.01,0.18,1.02,-0.05,-0.00,0.39,
2.47,0.01,0.18,1.02,-0.07,-0.02,0.40,
2.472,0.01,0.17,1.02,-0.07,-0.02,0.40,
2.475,0.01,0.17,1.02,-0.07,-0.02,0.40,
2.475,0.01,0.17,1.02,-0.08,-0.02,0.41,
2.479,0.01,0.18,1.02,-0.08,-0.02,0.41,
2.48,0.01,0.17,1.02,-0.08,-0.02,0.41,
2.48,0.01,0.17,1.02,-0.11,0.01,0.40,
2.482,0.01,0.17,1.02,-0.11,0.01,0.40,
2.486,-0.00,0.18,1.02,-0.11,0.01,0.40,
2.487,-0.00,0.18,1.02,-0.11,0.00,0.41,
2.488,0.00,0.18,1.02,-0.11,0.00,0.41,
2.489,0.00,0.18,1.02,-0.11,0.00,0.41,
2.489,0.00,0.18,1.02,-0.16,0.01,0.40,
2.493,0.00,0.18,1.02,-0.16,0.01,0.40,
2.496,0.00,0.18,1.02,-0.16,0.01,0.40,
2.496,0.00,0.18,1.02,-0.19,0.04,0.37,
2.497,0.00,0.18,1.02,-0.19,0.04,0.37,
2.499,-0.00,0.18,1.02,-0.19,0.04,0.37,
2.5,-0.00,0.18,1.02,-0.18,0.02,0.35,
2.503,0.00,0.18,1.02,-0.18,0.02,0.35,
2.505,0.00,0.18,1.02,-0.20,0.03,0.35,
2.505,0.00,0.18,1.02,-0.20,0.03,0.35,
2.507,0.00,0.18,1.01,-0.20,0.03,0.35,
2.51,0.01,0.19,1.01,-0.20,0.03,0.35,
2.51,0.01,0.19,1.01,-0.17,0.03,0.35,
2.516,0.01,0.19,1.00,-0.17,0.03,0.35,
2.516,0.01,0.18,1.00,-0.17,0.03,0.35,
2.517,0.01,0.18,1.00,-0.16,0.08,0.28,
2.517,0.01,0.19,1.00,-0.16,0.08,0.28,
2.519,0.01,0.19,0.99,-0.16,0.08,0.28,
2.52,0.01,0.19,0.99,-0.13,0.08,0.16,
2.522,0.01,0.19,0.98,-0.13,0.08,0.16,
2.524,0.01,0.19,0.98,-0.13,0.08,0.16,
2.524,0.01,0.19,0.98,-0.11,0.12,0.10,
2.527,0.02,0.19,0.98,-0.11,0.12,0.10,
2.529,0.02,0.19,0.98,-0.10,0.12,0.01,
2.53,0.02,0.19,0.97,-0.10,0.12,0.01,
2.532,0.02,0.19,0.97,-0.10,0.12,0.01,
2.534,0.02,0.20,0.97,-0.10,0.12,0.01,
2.535,0.02,0.20,0.97,-0.02,0.14,-0.07,
2.537,0.03,0.20,0.96,-0.02,0.14,-0.07,
2.54,0.03,0.19,0.97,-0.02,0.14,-0.07,
2.54,0.03,0.19,0.97,-0.02,0.18,-0.13,
2.542,0.03,0.19,0.96,-0.02,0.18,-0.13,
2.545,0.03,0.20,0.96,-0.02,0.18,-0.13,
2.545,0.03,0.20,0.96,0.07,0.18,-0.17,
2.547,0.03,0.20,0.96,0.07,0.18,-0.17,
2.55,0.03,0.20,0.96,0.07,0.18,-0.17,
2.55,0.03,0.20,0.96,0.10,0.17,-0.21,
2.552,0.03,0.20,0.97,0.10,0.17,-0.21,
2.554,0.03,0.20,0.97,0.13,0.19,-0.19,
2.555,0.04,0.19,0.97,0.13,0.19,-0.19,
2.557,0.03,0.20,0.98,0.13,0.19,-0.19,
2.56,0.03,0.20,0.98,0.13,0.16,-0.15,
2.56,0.03,0.19,0.97,0.13,0.16,-0.15,
2.564,0.03,0.19,0.98,0.13,0.16,-0.15,
2.564,0.03,0.19,0.98,0.13,0.16,-0.15,
2.564,0.03,0.19,0.98,0.10,0.15,-0.06,
2.567,0.03,0.19,0.98,0.10,0.15,-0.06,
2.569,0.03,0.19,0.99,0.10,0.15,-0.06,
2.569,0.03,0.19,0.99,0.11,0.14,-0.03,
2.572,0.03,0.19,0.99,0.11,0.14,-0.03,
2.575,0.03,0.19,1.00,0.11,0.14,-0.03,
2.575,0.03,0.19,1.00,0.09,0.14,0.04,
2.577,0.02,0.19,0.99,0.09,0.14,0.04,
2.58,0.02,0.19,0.99,0.05,0.12,0.14,
2.58,0.02,0.18,1.00,0.05,0.12,0.14,
2.581,0.02,0.19,1.00,0.05,0.12,0.14,
2.585,0.02,0.19,1.00,0.05,0.12,0.14,
2.586,0.02,0.19,1.00,0.02,0.08,0.12,
2.586,0.02,0.19,1.00,0.02,0.08,0.12,
2.59,0.02,0.19,1.00,0.02,0.08,0.12,
2.59,0.02,0.19,1.00,0.00,0.10,0.15,
2.592,0.02,0.19,1.00,0.00,0.10,0.15,
2.594,0.02,0.19,0.99,0.00,0.10,0.15,
2.595,0.02,0.19,0.99,-0.00,0.14,0.16,
2.602,0.01,0.19,0.99,-0.00,0.14,0.16,
2.603,0.02,0.19,0.99,-0.00,0.14,0.16,
2.604,0.02,0.19,0.99,-0.03,0.13,0.12,
2.605,0.02,0.19,1.00,-0.03,0.13,0.12,
2.605,0.02,0.19,1.00,-0.06,0.12,0.09,
2.605,0.01,0.19,0.99,-0.06,0.12,0.09,
2.606,0.02,0.19,0.99,-0.06,0.12,0.09,
2.609,0.01,0.19,0.99,-0.06,0.12,0.09,
2.609,0.01,0.19,0.99,-0.06,0.15,0.11,
2.611,0.02,0.19,0.99,-0.06,0.15,0.11,
2.623,0.02,0.19,0.99,-0.06,0.15,0.11,
2.624,0.02,0.19,0.99,-0.06,0.13,0.08,
2.624,0.02,0.19,1.00,-0.06,0.13,0.08,
2.624,0.02,0.19,0.99,-0.06,0.13,0.08,
2.624,0.02,0.19,0.99,-0.03,0.12,0.07,
2.625,0.02,0.19,0.99,-0.03,0.12,0.07,
2.625,0.02,0.19,0.99,0.02,0.14,0.12,
2.625,0.03,0.19,0.99,0.02,0.14,0.12,
2.626,0.03,0.18,0.98,0.02,0.14,0.12,
2.629,0.03,0.18,0.98,0.03,0.09,0.08,
2.63,0.03,0.18,0.99,0.03,0.09,0.08,
2.632,0.03,0.18,0.98,0.03,0.09,0.08,
2.634,0.03,0.18,0.98,0.03,0.09,0.08,
2.635,0.03,0.18,0.98,0.11,0.07,0.03,
2.636,0.03,0.18,0.98,0.11,0.07,0.03,
2.638,0.03,0.18,0.98,0.11,0.07,0.03,
2.639,0.03,0.18,0.98,0.10,0.05,0.00,
2.641,0.02,0.18,0.98,0.10,0.05,0.00,
2.644,0.03,0.18,0.98,0.10,0.05,0.00,
2.645,0.03,0.18,0.98,0.06,0.05,-0.01,
2.647,0.03,0.18,0.97,0.06,0.05,-0.01,
2.649,0.03,0.18,0.97,0.06,0.05,-0.01,
2.649,0.03,0.18,0.97,0.05,0.05,-0.01,
2.651,0.03,0.18,0.97,0.05,0.05,-0.01,
2.654,0.03,0.18,0.97,0.08,0.03,-0.10,
2.654,0.03,0.18,0.97,0.08,0.03,-0.10,
2.656,0.04,0.18,0.97,0.08,0.03,-0.10,
2.658,0.03,0.18,0.97,0.08,0.03,-0.10,
2.659,0.03,0.18,0.97,0.09,0.02,-0.08,
2.661,0.03,0.18,0.98,0.09,0.02,-0.08,
2.664,0.03,0.18,0.98,0.09,0.02,-0.08,
2.665,0.03,0.18,0.98,0.13,0.04,-0.11,
2.667,0.03,0.18,0.98,0.13,0.04,-0.11,
2.668,0.03,0.18,0.98,0.13,0.04,-0.11,
2.668,0.03,0.18,0.98,0.08,0.03,-0.06,
2.671,0.03,0.18,0.99,0.08,0.03,-0.06,
2.674,0.03,0.18,0.99,0.08,0.03,-0.06,
2.674,0.03,0.18,0.99,0.12,0.07,-0.02,
2.676,0.03,0.19,0.99,0.12,0.07,-0.02,
2.678,0.03,0.19,0.99,0.08,0.07,0.04,
2.679,0.02,0.19,0.99,0.08,0.07,0.04,
2.681,0.02,0.18,1.00,0.08,0.07,0.04,
2.684,0.02,0.19,1.00,0.08,0.07,0.04,
2.684,0.02,0.19,1.00,0.05,0.10,0.06,
2.685,0.01,0.18,1.00,0.05,0.10,0.06,
2.688,0.01,0.18,1.00,0.05,0.10,0.06,
2.689,0.01,0.18,1.00,-0.01,0.09,0.14,
2.691,0.01,0.18,1.00,-0.01,0.09,0.14,
2.693,0.00,0.18,1.01,-0.01,0.09,0.14,
2.694,0.00,0.18,1.01,-0.07,0.07,0.14,
2.696,0.01,0.18,1.00,-0.07,0.07,0.14,
2.699,0.01,0.18,1.00,-0.07,0.07,0.14,
2.7,0.01,0.18,1.00,-0.13,0.05,0.21,
2.7,0.01,0.18,1.00,-0.13,0.05,0.21,
2.703,0.01,0.18,1.00,-0.10,0.01,0.18,
2.704,0.01,0.17,1.00,-0.10,0.01,0.18,
2.706,0.00,0.17,1.00,-0.10,0.01,0.18,
2.708,0.01,0.17,1.00,-0.10,0.01,0.18,
2.708,0.01,0.17,1.00,-0.10,-0.00,0.19,
2.711,0.00,0.17,1.00,-0.10,-0.00,0.19,
2.713,0.01,0.16,1.00,-0.10,-0.00,0.19,
2.713,0.01,0.16,1.00,-0.14,-0.03,0.20,
2.721,0.01,0.16,1.00,-0.14,-0.03,0.20,
2.722,0.01,0.16,1.00,-0.14,-0.03,0.20,
2.723,0.01,0.16,1.00,-0.13,-0.10,0.18,
2.723,0.01,0.16,1.00,-0.13,-0.10,0.18,
2.723,0.01,0.16,1.00,-0.13,-0.10,0.18,
2.724,0.01,0.16,1.00,-0.09,-0.12,0.19,
2.724,0.02,0.15,1.00,-0.09,-0.12,0.19,
2.727,0.02,0.15,1.00,-0.06,-0.15,0.15,
2.727,0.02,0.16,1.00,-0.06,-0.15,0.15,
2.736,0.01,0.16,1.00,-0.06,-0.15,0.15,
2.737,0.02,0.15,1.00,-0.06,-0.15,0.15,
2.737,0.02,0.15,1.00,-0.04,-0.19,0.16,
2.737,0.02,0.16,1.00,-0.04,-0.19,0.16,
2.738,0.02,0.16,1.00,-0.04,-0.19,0.16,
2.738,0.02,0.16,1.00,-0.06,-0.19,0.16,
2.74,0.02,0.17,1.00,-0.06,-0.19,0.16,
2.742,0.02,0.17,0.99,-0.06,-0.19,0.16,
2.743,0.02,0.17,0.99,-0.00,-0.14,0.14,
2.745,0.02,0.17,0.99,-0.00,-0.14,0.14,
2.747,0.02,0.18,0.97,-0.00,-0.14,0.14,
2.748,0.02,0.18,0.97,-0.02,-0.08,0.10,
2.75,0.03,0.18,0.94,-0.02,-0.08,0.10,
2.752,0.03,0.18,0.94,-0.03,-0.02,-0.01,
2.753,0.04,0.19,0.92,-0.03,-0.02,-0.01,
2.755,0.06,0.19,0.91,-0.03,-0.02,-0.01,
2.758,0.06,0.20,0.91,-0.03,-0.02,-0.01,
2.758,0.06,0.20,0.91,0.15,0.09,-0.51,
2.76,0.06,0.20,0.92,0.15,0.09,-0.51,
2.762,0.06,0.20,0.92,0.38,0.18,-0.72,
2.762,0.05,0.19,0.93,0.38,0.18,-0.72,
2.765,0.05,0.19,0.94,0.38,0.18,-0.72,
2.768,0.05,0.19,0.95,0.38,0.18,-0.72,
2.768,0.05,0.19,0.95,0.35,0.19,-0.56,
2.769,0.05,0.19,0.95,0.35,0.19,-0.56,
2.772,0.05,0.19,0.96,0.35,0.19,-0.56,
2.772,0.05,0.19,0.96,0.30,0.18,-0.40,
2.775,0.05,0.19,0.96,0.30,0.18,-0.40,
2.777,0.05,0.19,0.97,0.30,0.18,-0.40,
2.777,0.05,0.19,0.97,0.27,0.18,-0.27,
2.779,0.04,0.18,0.99,0.27,0.18,-0.27,
2.781,0.05,0.17,1.00,0.27,0.18,-0.27,
2.782,0.05,0.17,1.00,0.25,0.15,-0.15,
2.785,0.04,0.17,1.01,0.25,0.15,-0.15,
2.787,0.04,0.17,1.02,0.25,0.15,-0.15,
2.787,0.04,0.17,1.02,0.23,0.04,0.09,
2.79,0.04,0.17,1.03,0.23,0.04,0.09,
2.793,0.04,0.17,1.03,0.23,0.04,0.09,
2.793,0.04,0.17,1.03,0.21,-0.00,0.27,
2.794,0.03,0.17,1.04,0.21,-0.00,0.27,
2.803,0.03,0.17,1.04,0.21,-0.00,0.27,
2.807,0.03,0.17,1.04,0.15,-0.01,0.41,
2.808,0.03,0.17,1.05,0.15,-0.01,0.41,
2.808,0.03,0.17,1.05,0.15,-0.01,0.41,
2.808,0.03,0.17,1.05,0.07,0.03,0.55,
2.809,0.04,0.18,1.06,0.07,0.03,0.55,
2.809,0.05,0.18,1.04,0.07,0.03,0.55,
2.809,0.05,0.18,1.04,0.06,-0.00,0.64,
2.81,0.05,0.18,1.05,0.06,-0.00,0.64,
2.812,0.04,0.18,1.05,0.06,-0.00,0.64,
2.812,0.04,0.18,1.05,0.19,0.09,0.64,
2.826,0.04,0.18,1.04,0.19,0.09,0.64,
2.826,0.04,0.18,1.03,0.19,0.09,0.64,
2.827,0.04,0.18,1.03,0.21,0.08,0.60,
2.827,0.04,0.18,1.02,0.21,0.08,0.60,
2.827,0.04,0.18,1.02,0.21,0.08,0.60,
2.827,0.04,0.18,1.02,0.20,0.07,0.48,
2.827,0.04,0.17,1.01,0.20,0.07,0.48,
2.827,0.04,0.17,1.01,0.15,0.03,0.35,
2.828,0.04,0.18,1.00,0.15,0.03,0.35,
2.829,0.03,0.17,1.00,0.15,0.03,0.35,
2.837,0.03,0.17,1.00,0.13,0.01,0.21,
2.837,0.02,0.17,0.99,0.13,0.01,0.21,
2.837,0.03,0.17,0.99,0.13,0.01,0.21,
2.838,0.02,0.16,0.98,0.13,0.01,0.21,
2.838,0.02,0.16,0.98,0.06,-0.03,0.08,
