
time,gFx,gFy,gFz,ax,ay,az,
0.004,0.01,0.15,0.97,0.16,0.00,-0.20,
0.004,0.01,0.15,0.97,0.11,0.03,-0.18,
0.005,0.01,0.15,0.98,0.11,0.03,-0.18,
0.005,0.02,0.14,0.99,0.11,0.03,-0.18,
0.005,0.02,0.14,0.99,0.02,0.04,-0.18,
0.005,0.02,0.14,0.99,0.02,0.04,-0.18,
0.006,0.02,0.15,0.99,0.02,0.04,-0.18,
0.006,0.02,0.15,0.99,0.02,0.01,-0.09,
0.006,0.02,0.15,1.00,0.02,0.01,-0.09,
0.009,0.02,0.15,1.00,0.02,0.01,-0.09,
0.01,0.02,0.15,1.00,0.05,0.01,-0.05,
0.012,0.03,0.14,1.00,0.05,0.01,-0.05,
0.014,0.02,0.14,1.01,0.05,0.01,-0.05,
0.014,0.02,0.14,1.01,0.08,0.02,0.03,
0.026,0.03,0.14,1.01,0.08,0.02,0.03,
0.026,0.03,0.14,1.02,0.08,0.02,0.03,
0.027,0.03,0.14,1.02,0.13,-0.01,0.09,
0.027,0.03,0.15,1.01,0.13,-0.01,0.09,
0.027,0.03,0.14,1.02,0.13,-0.01,0.09,
0.027,0.03,0.14,1.02,0.17,-0.02,0.18,
0.027,0.03,0.15,1.02,0.17,-0.02,0.18,
0.028,0.03,0.15,1.02,0.17,-0.02,0.18,
0.028,0.03,0.15,1.02,0.23,0.03,0.20,
0.031,0.04,0.16,1.02,0.23,0.03,0.20,
0.042,0.04,0.16,1.02,0.23,0.03,0.20,
0.043,0.04,0.16,1.02,0.24,0.07,0.22,
0.043,0.04,0.16,1.02,0.24,0.07,0.22,
0.044,0.04,0.16,1.02,0.24,0.07,0.22,
0.044,0.04,0.16,1.02,0.33,0.15,0.19,
0.044,0.03,0.16,1.02,0.33,0.15,0.19,
0.044,0.03,0.16,1.01,0.33,0.15,0.19,
0.044,0.03,0.16,1.01,0.33,0.17,0.26,
0.047,0.02,0.16,1.01,0.33,0.17,0.26,
0.049,0.01,0.16,1.00,0.33,0.17,0.26,
0.049,0.01,0.16,1.00,0.22,0.20,0.17,
0.06,-0.00,0.15,0.99,0.22,0.20,0.17,
0.061,-0.00,0.15,0.99,0.08,0.17,0.05,
0.061,-0.01,0.15,0.98,0.08,0.17,0.05,
0.061,-0.02,0.14,0.97,0.08,0.17,0.05,
0.061,-0.03,0.14,0.97,0.08,0.17,0.05,
0.062,-0.03,0.14,0.97,-0.12,0.08,-0.08,
0.062,-0.04,0.13,0.97,-0.12,0.08,-0.08,
0.064,-0.05,0.12,0.97,-0.12,0.08,-0.08,
0.064,-0.05,0.12,0.97,-0.30,-0.05,-0.26,
0.066,-0.05,0.12,0.97,-0.30,-0.05,-0.26,
0.075,-0.05,0.11,0.97,-0.30,-0.05,-0.26,
0.075,-0.05,0.11,0.97,-0.47,-0.18,-0.27,
0.076,-0.06,0.11,0.98,-0.47,-0.18,-0.27,
0.076,-0.05,0.11,0.98,-0.47,-0.18,-0.27,
0.076,-0.05,0.11,0.98,-0.54,-0.29,-0.24,
0.076,-0.05,0.12,0.99,-0.54,-0.29,-0.24,
0.079,-0.05,0.12,0.99,-0.58,-0.32,-0.15,
0.079,-0.05,0.12,0.99,-0.58,-0.32,-0.15,
0.081,-0.04,0.12,1.00,-0.58,-0.32,-0.15,
0.083,-0.04,0.12,1.00,-0.58,-0.32,-0.15,
0.084,-0.04,0.12,1.00,-0.55,-0.31,-0.05,
0.094,-0.03,0.13,1.00,-0.55,-0.31,-0.05,
0.095,-0.03,0.13,1.00,-0.55,-0.31,-0.05,
0.095,-0.03,0.13,1.00,-0.45,-0.26,0.05,
0.095,-0.03,0.13,1.00,-0.45,-0.26,0.05,
0.095,-0.02,0.13,1.01,-0.45,-0.26,0.05,
0.096,-0.02,0.13,1.01,-0.36,-0.21,0.08,
0.096,-0.02,0.14,1.02,-0.36,-0.21,0.08,
0.098,-0.01,0.14,1.01,-0.36,-0.21,0.08,
0.098,-0.01,0.14,1.01,-0.32,-0.16,0.13,
0.101,-0.01,0.15,1.02,-0.32,-0.16,0.13,
0.109,-0.00,0.15,1.01,-0.32,-0.16,0.13,
0.109,-0.00,0.15,1.01,-0.20,-0.10,0.18,
0.11,0.02,0.15,1.00,-0.20,-0.10,0.18,
0.11,0.02,0.15,1.00,-0.20,-0.10,0.18,
0.11,0.02,0.15,1.00,-0.10,-0.00,0.19,
0.11,0.01,0.16,1.01,-0.10,-0.00,0.19,
0.113,0.01,0.16,1.02,-0.10,-0.00,0.19,
0.113,0.01,0.16,1.02,0.12,0.02,0.03,
0.116,0.01,0.17,1.03,0.12,0.02,0.03,
0.126,0.01,0.17,1.03,0.12,0.02,0.03,
0.127,0.01,0.17,1.03,0.07,0.07,0.17,
0.127,0.01,0.16,1.03,0.07,0.07,0.17,
0.127,0.01,0.16,1.04,0.07,0.07,0.17,
0.127,0.01,0.16,1.04,0.02,0.16,0.32,
0.128,0.01,0.17,1.04,0.02,0.16,0.32,
0.128,0.01,0.16,1.03,0.02,0.16,0.32,
0.128,0.01,0.16,1.03,0.03,0.12,0.40,
0.13,0.01,0.14,1.02,0.03,0.12,0.40,
0.132,0.01,0.15,1.03,0.03,0.12,0.40,
0.132,0.01,0.15,1.03,0.05,0.10,0.39,
0.14,0.00,0.15,1.03,0.05,0.10,0.39,
0.141,-0.00,0.15,1.04,0.05,0.10,0.39,
0.141,-0.00,0.15,1.04,0.04,-0.07,0.29,
0.141,-0.01,0.14,1.05,0.04,-0.07,0.29,
0.142,-0.01,0.15,1.06,0.04,-0.07,0.29,
0.142,-0.01,0.15,1.06,-0.06,-0.07,0.39,
0.145,-0.01,0.14,1.06,-0.06,-0.07,0.39,
0.147,-0.01,0.14,1.06,-0.06,-0.07,0.39,
0.147,-0.01,0.14,1.06,-0.17,-0.09,0.55,
0.149,-0.02,0.14,1.07,-0.17,-0.09,0.55,
0.156,-0.02,0.14,1.07,-0.20,-0.12,0.63,
0.157,-0.02,0.14,1.07,-0.20,-0.12,0.63,
0.157,-0.02,0.14,1.07,-0.20,-0.12,0.63,
0.157,-0.02,0.14,1.06,-0.20,-0.12,0.63,
0.16,-0.02,0.14,1.06,-0.22,-0.17,0.67,
0.16,-0.01,0.14,1.06,-0.22,-0.17,0.67,
0.162,-0.01,0.14,1.05,-0.22,-0.17,0.67,
0.162,-0.01,0.14,1.05,-0.23,-0.15,0.66,
0.164,-0.00,0.14,1.05,-0.23,-0.15,0.66,
0.176,-0.01,0.14,1.05,-0.23,-0.15,0.66,
0.177,-0.01,0.14,1.05,-0.17,-0.19,0.58,
0.177,0.00,0.15,1.05,-0.17,-0.19,0.58,
0.177,0.01,0.15,1.04,-0.17,-0.19,0.58,
0.178,0.01,0.15,1.04,-0.10,-0.17,0.51,
0.178,0.01,0.15,1.04,-0.10,-0.17,0.51,
0.178,0.01,0.15,1.03,-0.10,-0.17,0.51,
0.179,0.01,0.15,1.03,-0.01,-0.13,0.43,
0.181,0.02,0.15,1.02,-0.01,-0.13,0.43,
0.185,0.01,0.15,1.03,-0.01,-0.13,0.43,
0.185,0.01,0.15,1.03,0.07,-0.14,0.31,
0.193,0.02,0.15,1.01,0.07,-0.14,0.31,
0.194,0.02,0.16,1.01,0.07,-0.14,0.31,
0.194,0.02,0.16,1.01,0.11,-0.09,0.25,
0.194,0.03,0.16,1.00,0.11,-0.09,0.25,
0.194,0.04,0.15,0.96,0.11,-0.09,0.25,
0.194,0.04,0.15,0.96,0.16,-0.08,0.10,
0.195,0.06,0.15,0.90,0.16,-0.08,0.10,
0.197,0.04,0.16,0.91,0.16,-0.08,0.10,
0.197,0.04,0.16,0.91,0.31,-0.09,-0.17,
0.2,0.03,0.17,0.92,0.31,-0.09,-0.17,
0.209,0.02,0.18,0.92,0.31,-0.09,-0.17,
0.209,0.02,0.18,0.92,0.46,-0.11,-0.95,
0.209,0.02,0.20,0.92,0.46,-0.11,-0.95,
0.21,0.02,0.20,0.92,0.22,0.11,-0.78,
0.21,0.01,0.21,0.93,0.22,0.11,-0.78,
0.21,0.01,0.21,0.93,0.22,0.11,-0.78,
0.212,0.00,0.21,0.93,0.22,0.11,-0.78,
0.212,0.00,0.21,0.93,0.09,0.31,-0.72,
0.215,-0.00,0.22,0.94,0.09,0.31,-0.72,
0.217,-0.00,0.22,0.95,0.09,0.31,-0.72,
0.217,-0.00,0.22,0.95,0.01,0.40,-0.61,
0.226,-0.00,0.22,0.96,0.01,0.40,-0.61,
0.227,-0.00,0.22,0.97,0.01,0.40,-0.61,
0.227,-0.00,0.22,0.97,-0.05,0.46,-0.47,
0.227,-0.00,0.21,0.98,-0.05,0.46,-0.47,
0.228,-0.00,0.21,0.98,-0.05,0.46,-0.47,
0.228,-0.00,0.21,0.98,-0.07,0.47,-0.29,
0.23,0.01,0.21,0.99,-0.07,0.47,-0.29,
0.232,0.01,0.20,0.99,-0.07,0.47,-0.29,
0.232,0.01,0.20,0.99,-0.05,0.41,-0.14,
0.234,0.00,0.20,1.00,-0.05,0.41,-0.14,
0.24,0.01,0.20,1.00,-0.05,0.41,-0.14,
0.24,0.01,0.20,1.00,-0.00,0.35,-0.04,
0.24,0.02,0.19,1.01,-0.00,0.35,-0.04,
0.242,0.02,0.19,1.02,-0.00,0.35,-0.04,
0.242,0.02,0.19,1.02,0.01,0.28,0.04,
0.244,0.02,0.18,1.02,0.01,0.28,0.04,
0.247,0.02,0.18,1.02,0.01,0.28,0.04,
0.247,0.02,0.18,1.02,0.11,0.18,0.18,
0.25,0.02,0.17,1.03,0.11,0.18,0.18,
0.252,0.02,0.17,1.03,0.14,0.07,0.24,
0.252,0.02,0.17,1.04,0.14,0.07,0.24,
0.257,0.02,0.16,1.03,0.14,0.07,0.24,
0.258,0.02,0.16,1.03,0.14,0.07,0.24,
0.258,0.02,0.16,1.03,0.17,0.01,0.35,
0.259,0.02,0.16,1.03,0.17,0.01,0.35,
0.262,0.02,0.15,1.03,0.17,0.01,0.35,
0.262,0.02,0.15,1.03,0.14,-0.06,0.36,
0.264,0.02,0.15,1.03,0.14,-0.06,0.36,
0.267,0.02,0.15,1.03,0.14,-0.06,0.36,
0.267,0.02,0.15,1.03,0.16,-0.09,0.31,
0.273,0.02,0.15,1.03,0.16,-0.09,0.31,
0.274,0.02,0.15,1.03,0.16,-0.09,0.31,
0.274,0.02,0.15,1.03,0.16,-0.13,0.31,
0.274,0.02,0.15,1.03,0.16,-0.13,0.31,
0.277,0.02,0.15,1.03,0.15,-0.12,0.30,
0.277,0.01,0.16,1.03,0.15,-0.12,0.30,
0.279,0.01,0.16,1.03,0.15,-0.12,0.30,
0.282,0.01,0.17,1.03,0.15,-0.12,0.30,
0.282,0.01,0.17,1.03,0.11,-0.07,0.31,
0.284,-0.00,0.18,1.03,0.11,-0.07,0.31,
0.29,-0.01,0.18,1.02,0.11,-0.07,0.31,
0.291,-0.01,0.18,1.02,0.08,0.03,0.34,
0.291,-0.02,0.19,1.02,0.08,0.03,0.34,
0.291,-0.03,0.20,1.01,0.08,0.03,0.34,
0.291,-0.03,0.20,1.01,-0.06,0.18,0.29,
0.294,-0.05,0.20,1.02,-0.06,0.18,0.29,
0.296,-0.06,0.20,1.02,-0.06,0.18,0.29,
0.297,-0.06,0.20,1.02,-0.25,0.32,0.18,
0.299,-0.06,0.20,1.01,-0.25,0.32,0.18,
0.301,-0.07,0.20,1.01,-0.25,0.32,0.18,
0.302,-0.07,0.20,1.01,-0.47,0.36,0.17,
0.311,-0.08,0.20,1.01,-0.47,0.36,0.17,
0.312,-0.08,0.20,1.01,-0.47,0.36,0.17,
0.312,-0.08,0.20,1.01,-0.58,0.37,0.12,
0.312,-0.08,0.19,1.01,-0.58,0.37,0.12,
0.312,-0.08,0.19,1.00,-0.58,0.37,0.12,
0.312,-0.08,0.19,1.00,-0.65,0.35,0.14,
0.313,-0.07,0.18,0.99,-0.65,0.35,0.14,
0.315,-0.07,0.18,0.99,-0.65,0.35,0.14,
0.316,-0.07,0.18,0.99,-0.66,0.29,0.06,
0.325,-0.07,0.18,0.99,-0.66,0.29,0.06,
0.326,-0.07,0.18,0.99,-0.66,0.29,0.06,
0.326,-0.07,0.18,0.99,-0.63,0.19,-0.05,
0.328,-0.06,0.17,0.98,-0.63,0.19,-0.05,
0.328,-0.06,0.17,0.98,-0.58,0.13,-0.08,
0.328,-0.05,0.17,0.98,-0.58,0.13,-0.08,
0.329,-0.04,0.17,0.98,-0.58,0.13,-0.08,
0.33,-0.03,0.17,0.97,-0.58,0.13,-0.08,
0.331,-0.03,0.17,0.97,-0.45,0.04,-0.15,
0.333,-0.02,0.17,0.96,-0.45,0.04,-0.15,
0.344,-0.01,0.17,0.95,-0.45,0.04,-0.15,
0.345,-0.01,0.17,0.95,-0.28,-0.04,-0.24,
0.345,0.00,0.17,0.95,-0.28,-0.04,-0.24,
0.345,0.02,0.17,0.94,-0.28,-0.04,-0.24,
0.345,0.02,0.17,0.94,-0.11,-0.05,-0.40,
0.346,0.02,0.17,0.93,-0.11,-0.05,-0.40,
0.346,0.04,0.17,0.92,-0.11,-0.05,-0.40,
0.346,0.04,0.17,0.92,0.12,-0.08,-0.49,
0.347,0.05,0.17,0.92,0.12,-0.08,-0.49,
0.35,0.06,0.18,0.91,0.12,-0.08,-0.49,
0.35,0.06,0.18,0.91,0.30,-0.15,-0.65,
0.357,0.07,0.18,0.90,0.30,-0.15,-0.65,
0.358,0.08,0.18,0.89,0.30,-0.15,-0.65,
0.358,0.08,0.18,0.89,0.49,-0.14,-0.79,
0.358,0.09,0.18,0.88,0.49,-0.14,-0.79,
0.36,0.10,0.18,0.87,0.49,-0.14,-0.79,
0.36,0.10,0.18,0.87,0.70,-0.16,-0.95,
0.363,0.10,0.18,0.86,0.70,-0.16,-0.95,
0.365,0.10,0.18,0.86,0.70,-0.16,-0.95,
0.365,0.10,0.18,0.86,0.83,-0.20,-1.08,
0.367,0.11,0.18,0.85,0.83,-0.20,-1.08,
0.373,0.11,0.18,0.85,0.83,-0.20,-1.08,
0.373,0.11,0.18,0.85,0.90,-0.20,-1.21,
0.374,0.10,0.19,0.84,0.90,-0.20,-1.21,
0.375,0.10,0.18,0.83,0.90,-0.20,-1.21,
0.375,0.10,0.18,0.83,0.92,-0.21,-1.32,
0.377,0.09,0.18,0.83,0.92,-0.21,-1.32,
0.38,0.09,0.19,0.82,0.92,-0.21,-1.32,
0.38,0.09,0.19,0.82,0.84,-0.21,-1.41,
0.382,0.08,0.19,0.82,0.84,-0.21,-1.41,
0.39,0.07,0.19,0.81,0.84,-0.21,-1.41,
0.391,0.07,0.19,0.81,0.74,-0.26,-1.49,
0.391,0.06,0.19,0.80,0.74,-0.26,-1.49,
0.391,0.05,0.18,0.80,0.74,-0.26,-1.49,
0.391,0.05,0.18,0.80,0.62,-0.26,-1.61,
0.392,0.05,0.18,0.80,0.62,-0.26,-1.61,
0.395,0.04,0.18,0.79,0.62,-0.26,-1.61,
0.395,0.04,0.18,0.79,0.46,-0.31,-1.70,
0.397,0.03,0.18,0.79,0.46,-0.31,-1.70,
0.4,0.03,0.18,0.79,0.30,-0.35,-1.78,
0.4,0.03,0.18,0.78,0.30,-0.35,-1.78,
0.402,0.02,0.17,0.78,0.30,-0.35,-1.78,
0.408,0.01,0.17,0.78,0.30,-0.35,-1.78,
0.409,0.01,0.17,0.78,0.19,-0.37,-1.86,
0.409,0.01,0.17,0.79,0.19,-0.37,-1.86,
0.41,0.00,0.17,0.78,0.19,-0.37,-1.86,
0.41,0.00,0.17,0.78,0.07,-0.44,-1.89,
0.412,-0.01,0.16,0.79,0.07,-0.44,-1.89,
0.415,-0.01,0.16,0.78,0.07,-0.44,-1.89,
0.416,-0.01,0.16,0.78,-0.00,-0.43,-1.83,
0.417,-0.01,0.16,0.79,-0.00,-0.43,-1.83,
0.429,-0.01,0.16,0.79,-0.00,-0.43,-1.83,
0.429,-0.01,0.16,0.79,-0.09,-0.44,-1.82,
0.43,-0.01,0.16,0.79,-0.09,-0.44,-1.82,
0.43,-0.01,0.16,0.81,-0.09,-0.44,-1.82,
0.43,-0.01,0.16,0.81,-0.10,-0.47,-1.78,
0.43,-0.02,0.15,0.81,-0.10,-0.47,-1.78,
0.431,-0.02,0.15,0.82,-0.10,-0.47,-1.78,
0.431,-0.02,0.15,0.82,-0.09,-0.47,-1.66,
0.432,-0.01,0.15,0.83,-0.09,-0.47,-1.66,
0.434,-0.01,0.15,0.85,-0.09,-0.47,-1.66,
0.434,-0.01,0.15,0.85,-0.14,-0.47,-1.48,
0.444,-0.01,0.15,0.85,-0.14,-0.47,-1.48,
0.445,-0.02,0.15,0.86,-0.14,-0.47,-1.48,
0.445,-0.02,0.15,0.86,-0.09,-0.44,-1.27,
0.445,-0.01,0.14,0.86,-0.09,-0.44,-1.27,
0.445,-0.01,0.14,0.88,-0.09,-0.44,-1.27,
0.446,-0.01,0.14,0.88,-0.10,-0.45,-1.10,
0.446,-0.01,0.14,0.89,-0.10,-0.45,-1.10,
0.449,-0.00,0.14,0.89,-0.10,-0.45,-1.10,
0.449,-0.00,0.14,0.89,-0.05,-0.49,-0.99,
0.451,-0.00,0.13,0.90,-0.05,-0.49,-0.99,
0.461,-0.00,0.13,0.90,-0.05,-0.49,-0.99,
0.462,-0.00,0.13,0.90,-0.01,-0.50,-0.79,
0.462,0.00,0.12,0.92,-0.01,-0.50,-0.79,
0.462,0.00,0.12,0.92,-0.01,-0.50,-0.79,
0.462,0.00,0.12,0.92,0.05,-0.54,-0.68,
0.463,0.01,0.12,0.92,0.05,-0.54,-0.68,
0.464,0.01,0.12,0.93,0.05,-0.54,-0.68,
0.464,0.01,0.12,0.93,0.07,-0.58,-0.52,
0.467,0.02,0.11,0.93,0.07,-0.58,-0.52,
0.475,0.02,0.11,0.94,0.07,-0.58,-0.52,
0.476,0.02,0.11,0.94,0.15,-0.62,-0.44,
0.476,0.02,0.11,0.94,0.15,-0.62,-0.44,
0.476,0.02,0.11,0.94,0.23,-0.67,-0.35,
0.476,0.03,0.10,0.94,0.23,-0.67,-0.35,
0.477,0.04,0.10,0.94,0.23,-0.67,-0.35,
0.479,0.03,0.10,0.95,0.23,-0.67,-0.35,
0.479,0.03,0.10,0.95,0.31,-0.69,-0.32,
0.481,0.04,0.10,0.94,0.31,-0.69,-0.32,
0.484,0.04,0.10,0.93,0.31,-0.69,-0.32,
0.484,0.04,0.10,0.93,0.40,-0.72,-0.29,
0.491,0.04,0.10,0.93,0.40,-0.72,-0.29,
0.493,0.04,0.09,0.93,0.40,-0.72,-0.29,
0.494,0.04,0.09,0.93,0.41,-0.73,-0.34,
0.494,0.04,0.09,0.93,0.41,-0.73,-0.34,
0.494,0.04,0.09,0.93,0.41,-0.73,-0.34,
0.494,0.04,0.09,0.93,0.43,-0.76,-0.42,
0.496,0.04,0.09,0.92,0.43,-0.76,-0.42,
0.498,0.04,0.08,0.91,0.43,-0.76,-0.42,
0.499,0.04,0.08,0.91,0.40,-0.81,-0.40,
0.501,0.04,0.09,0.91,0.40,-0.81,-0.40,
0.508,0.04,0.09,0.89,0.40,-0.81,-0.40,
0.509,0.04,0.09,0.89,0.42,-0.86,-0.55,
0.509,0.03,0.08,0.89,0.42,-0.86,-0.55,
0.509,0.03,0.09,0.88,0.42,-0.86,-0.55,
0.509,0.03,0.09,0.88,0.37,-0.85,-0.70,
0.511,0.03,0.08,0.87,0.37,-0.85,-0.70,
0.513,0.02,0.08,0.86,0.37,-0.85,-0.70,
0.514,0.02,0.08,0.86,0.31,-0.88,-0.87,
0.516,0.02,0.09,0.85,0.31,-0.88,-0.87,
0.519,0.01,0.09,0.84,0.31,-0.88,-0.87,
0.519,0.01,0.09,0.84,0.24,-0.91,-1.02,
0.528,0.01,0.09,0.83,0.24,-0.91,-1.02,
0.529,0.01,0.10,0.83,0.24,-0.91,-1.02,
0.529,0.01,0.10,0.83,0.15,-0.83,-1.18,
0.529,0.01,0.10,0.82,0.15,-0.83,-1.18,
0.53,0.01,0.11,0.81,0.15,-0.83,-1.18,
0.53,0.01,0.11,0.81,0.09,-0.80,-1.35,
0.532,0.01,0.12,0.81,0.09,-0.80,-1.35,
0.534,0.01,0.12,0.81,0.09,-0.80,-1.35,
0.534,0.01,0.12,0.81,0.10,-0.73,-1.47,
0.537,0.01,0.13,0.80,0.10,-0.73,-1.47,
0.542,0.01,0.14,0.80,0.10,-0.73,-1.47,
0.543,0.01,0.14,0.80,0.14,-0.57,-1.53,
0.543,0.01,0.14,0.79,0.14,-0.57,-1.53,
0.543,0.01,0.15,0.80,0.14,-0.57,-1.53,
0.543,0.01,0.15,0.80,0.10,-0.43,-1.60,
0.546,0.01,0.16,0.81,0.10,-0.43,-1.60,
0.549,0.01,0.16,0.81,0.10,-0.32,-1.64,
0.549,0.00,0.17,0.80,0.10,-0.32,-1.64,
0.552,0.00,0.17,0.80,0.10,-0.32,-1.64,
0.562,-0.00,0.17,0.80,0.10,-0.32,-1.64,
0.563,-0.00,0.17,0.80,0.06,-0.18,-1.55,
0.563,-0.00,0.18,0.80,0.06,-0.18,-1.55,
0.563,-0.01,0.17,0.80,0.06,-0.18,-1.55,
0.563,-0.01,0.17,0.80,-0.00,-0.12,-1.59,
0.564,-0.01,0.17,0.81,-0.00,-0.12,-1.59,
0.564,-0.01,0.18,0.81,-0.00,-0.12,-1.59,
0.564,-0.01,0.18,0.81,-0.06,-0.09,-1.57,
0.566,-0.01,0.17,0.81,-0.06,-0.09,-1.57,
0.568,-0.01,0.17,0.81,-0.06,-0.09,-1.57,
0.569,-0.01,0.17,0.81,-0.15,-0.09,-1.51,
0.576,-0.01,0.17,0.81,-0.15,-0.09,-1.51,
0.577,-0.01,0.17,0.81,-0.15,-0.09,-1.51,
0.577,-0.01,0.17,0.81,-0.15,-0.13,-1.47,
0.577,-0.01,0.17,0.81,-0.15,-0.13,-1.47,
0.578,-0.00,0.17,0.81,-0.15,-0.13,-1.47,
0.578,-0.00,0.17,0.81,-0.14,-0.15,-1.47,
0.581,0.00,0.17,0.81,-0.14,-0.15,-1.47,
0.583,0.00,0.17,0.81,-0.14,-0.15,-1.47,
0.584,0.00,0.17,0.81,-0.08,-0.17,-1.47,
0.586,0.01,0.17,0.81,-0.08,-0.17,-1.47,
0.592,0.01,0.17,0.81,-0.08,-0.17,-1.47,
0.593,0.01,0.17,0.81,-0.03,-0.18,-1.46,
0.593,0.01,0.17,0.82,-0.03,-0.18,-1.46,
0.593,0.02,0.17,0.81,-0.03,-0.18,-1.46,
0.593,0.02,0.17,0.81,0.05,-0.18,-1.41,
0.596,0.03,0.18,0.81,0.05,-0.18,-1.41,
0.598,0.03,0.18,0.80,0.05,-0.18,-1.41,
0.598,0.03,0.18,0.80,0.09,-0.16,-1.41,
0.601,0.03,0.18,0.80,0.09,-0.16,-1.41,
0.608,0.04,0.18,0.80,0.09,-0.16,-1.41,
0.609,0.04,0.18,0.80,0.19,-0.07,-1.47,
0.609,0.05,0.19,0.80,0.19,-0.07,-1.47,
0.609,0.05,0.19,0.80,0.19,-0.07,-1.47,
0.609,0.05,0.19,0.80,0.26,-0.01,-1.52,
0.611,0.06,0.20,0.79,0.26,-0.01,-1.52,
0.613,0.07,0.21,0.79,0.26,-0.01,-1.52,
0.613,0.07,0.21,0.79,0.38,0.10,-1.54,
0.616,0.07,0.21,0.79,0.38,0.10,-1.54,
0.618,0.08,0.22,0.79,0.38,0.10,-1.54,
0.618,0.08,0.22,0.79,0.51,0.21,-1.59,
0.62,0.09,0.22,0.78,0.51,0.21,-1.59,
0.631,0.09,0.22,0.77,0.51,0.21,-1.59,
0.631,0.09,0.22,0.77,0.62,0.30,-1.61,
0.632,0.10,0.22,0.77,0.62,0.30,-1.61,
0.632,0.10,0.22,0.77,0.62,0.30,-1.61,
0.632,0.10,0.22,0.77,0.79,0.37,-1.72,
0.632,0.11,0.23,0.77,0.79,0.37,-1.72,
0.632,0.11,0.23,0.77,0.79,0.37,-1.72,
0.633,0.11,0.23,0.77,0.86,0.42,-1.79,
0.636,0.11,0.23,0.77,0.86,0.42,-1.79,
0.645,0.11,0.23,0.78,0.86,0.42,-1.79,
0.646,0.11,0.23,0.78,0.96,0.48,-1.78,
0.646,0.12,0.22,0.79,0.96,0.48,-1.78,
0.646,0.12,0.23,0.79,0.96,0.48,-1.78,
0.647,0.12,0.23,0.79,0.98,0.52,-1.74,
0.647,0.11,0.22,0.79,0.98,0.52,-1.74,
0.647,0.11,0.22,0.80,0.98,0.52,-1.74,
0.647,0.11,0.22,0.80,1.07,0.54,-1.63,
0.65,0.11,0.21,0.80,1.07,0.54,-1.63,
0.653,0.10,0.21,0.81,1.07,0.54,-1.63,
0.655,0.10,0.21,0.81,1.03,0.52,-1.55,
0.655,0.10,0.20,0.81,1.03,0.52,-1.55,
0.662,0.09,0.20,0.81,1.03,0.52,-1.55,
0.663,0.09,0.20,0.81,0.96,0.46,-1.45,
0.663,0.09,0.19,0.82,0.96,0.46,-1.45,
0.663,0.09,0.19,0.83,0.96,0.46,-1.45,
0.663,0.09,0.19,0.83,0.88,0.41,-1.36,
0.664,0.09,0.18,0.84,0.88,0.41,-1.36,
0.667,0.09,0.18,0.84,0.88,0.41,-1.36,
0.667,0.09,0.18,0.84,0.84,0.35,-1.24,
0.677,0.08,0.17,0.85,0.84,0.35,-1.24,
0.678,0.08,0.17,0.85,0.84,0.35,-1.24,
0.678,0.08,0.17,0.85,0.81,0.32,-1.15,
0.678,0.08,0.17,0.86,0.81,0.32,-1.15,
0.678,0.07,0.16,0.87,0.81,0.32,-1.15,
0.679,0.07,0.16,0.87,0.76,0.29,-1.00,
0.679,0.07,0.17,0.87,0.76,0.29,-1.00,
0.682,0.08,0.16,0.87,0.76,0.29,-1.00,
0.682,0.08,0.16,0.87,0.71,0.28,-0.87,
0.684,0.07,0.15,0.88,0.71,0.28,-0.87,
0.691,0.07,0.15,0.88,0.71,0.28,-0.87,
0.692,0.07,0.15,0.88,0.68,0.27,-0.82,
0.692,0.06,0.14,0.89,0.68,0.27,-0.82,
0.692,0.06,0.14,0.89,0.68,0.27,-0.82,
0.693,0.06,0.14,0.89,0.64,0.21,-0.69,
0.694,0.05,0.13,0.89,0.64,0.21,-0.69,
0.697,0.05,0.13,0.89,0.54,0.14,-0.61,
0.697,0.04,0.13,0.90,0.54,0.14,-0.61,
0.7,0.03,0.12,0.91,0.54,0.14,-0.61,
0.701,0.03,0.11,0.90,0.54,0.14,-0.61,
0.702,0.03,0.11,0.90,0.39,0.05,-0.56,
0.709,0.02,0.11,0.91,0.39,0.05,-0.56,
0.709,0.02,0.10,0.91,0.39,0.05,-0.56,
0.71,0.02,0.10,0.91,0.25,-0.03,-0.50,
0.71,0.02,0.09,0.92,0.25,-0.03,-0.50,
0.711,0.02,0.09,0.92,0.25,-0.03,-0.50,
0.711,0.02,0.09,0.92,0.13,-0.15,-0.42,
0.714,0.01,0.08,0.93,0.13,-0.15,-0.42,
0.718,0.01,0.08,0.94,0.13,-0.15,-0.42,
0.718,0.01,0.08,0.94,0.07,-0.20,-0.34,
0.719,0.02,0.07,0.94,0.07,-0.20,-0.34,
0.727,0.03,0.06,0.94,0.07,-0.20,-0.34,
0.728,0.03,0.06,0.94,0.01,-0.32,-0.20,
0.728,0.03,0.05,0.94,0.01,-0.32,-0.20,
0.728,0.04,0.04,0.94,0.01,-0.32,-0.20,
0.728,0.04,0.04,0.94,0.08,-0.45,-0.16,
0.729,0.05,0.03,0.93,0.08,-0.45,-0.16,
0.731,0.05,0.02,0.93,0.08,-0.45,-0.16,
0.731,0.05,0.02,0.93,0.19,-0.65,-0.17,
0.734,0.06,0.02,0.92,0.19,-0.65,-0.17,
0.736,0.08,0.02,0.92,0.19,-0.65,-0.17,
0.737,0.08,0.02,0.92,0.28,-0.82,-0.27,
0.747,0.09,0.02,0.91,0.28,-0.82,-0.27,
0.748,0.11,0.02,0.91,0.28,-0.82,-0.27,
0.748,0.11,0.02,0.91,0.45,-0.92,-0.35,
0.748,0.12,0.02,0.90,0.45,-0.92,-0.35,
0.748,0.14,0.03,0.89,0.45,-0.92,-0.35,
0.749,0.14,0.03,0.89,0.69,-0.95,-0.43,
0.749,0.15,0.03,0.88,0.69,-0.95,-0.43,
0.751,0.17,0.04,0.86,0.69,-0.95,-0.43,
0.751,0.17,0.04,0.86,0.96,-0.92,-0.60,
0.761,0.19,0.05,0.84,0.96,-0.92,-0.60,
0.762,0.20,0.06,0.82,0.96,-0.92,-0.60,
0.762,0.20,0.06,0.82,1.24,-0.84,-0.83,
0.762,0.21,0.06,0.81,1.24,-0.84,-0.83,
0.763,0.22,0.07,0.80,1.24,-0.84,-0.83,
0.763,0.22,0.07,0.80,1.50,-0.72,-1.17,
0.763,0.22,0.07,0.79,1.50,-0.72,-1.17,
0.766,0.23,0.08,0.78,1.50,-0.72,-1.17,
0.766,0.23,0.08,0.78,1.69,-0.60,-1.39,
0.769,0.23,0.08,0.77,1.69,-0.60,-1.39,
0.779,0.23,0.09,0.76,1.69,-0.60,-1.39,
0.78,0.23,0.09,0.76,1.78,-0.55,-1.62,
0.78,0.23,0.09,0.76,1.78,-0.55,-1.62,
0.78,0.22,0.09,0.76,1.78,-0.55,-1.62,
0.78,0.22,0.09,0.76,1.81,-0.50,-1.80,
0.78,0.21,0.09,0.76,1.81,-0.50,-1.80,
0.781,0.20,0.09,0.76,1.81,-0.50,-1.80,
0.781,0.20,0.09,0.76,1.72,-0.48,-1.86,
0.783,0.18,0.09,0.76,1.72,-0.48,-1.86,
0.786,0.17,0.08,0.76,1.72,-0.48,-1.86,
0.786,0.17,0.08,0.76,1.49,-0.48,-1.84,
0.793,0.15,0.08,0.76,1.49,-0.48,-1.84,
0.794,0.14,0.08,0.77,1.49,-0.48,-1.84,
0.794,0.14,0.08,0.77,1.21,-0.51,-1.83,
0.794,0.13,0.08,0.78,1.21,-0.51,-1.83,
0.796,0.13,0.08,0.78,0.88,-0.53,-1.77,
0.796,0.11,0.08,0.79,0.88,-0.53,-1.77,
0.798,0.10,0.06,0.81,0.88,-0.53,-1.77,
0.8,0.08,0.06,0.82,0.88,-0.53,-1.77,
0.801,0.08,0.06,0.82,0.58,-0.58,-1.54,
0.803,0.07,0.05,0.84,0.58,-0.58,-1.54,
0.81,0.07,0.04,0.86,0.58,-0.58,-1.54,
0.811,0.07,0.04,0.86,0.29,-0.72,-1.24,
0.811,0.07,0.03,0.88,0.29,-0.72,-1.24,
0.811,0.06,0.03,0.89,0.29,-0.72,-1.24,
0.811,0.06,0.03,0.89,0.07,-0.83,-0.93,
0.813,0.06,0.02,0.91,0.07,-0.83,-0.93,
0.815,0.07,0.01,0.91,0.07,-0.83,-0.93,
0.816,0.07,0.01,0.91,-0.05,-0.96,-0.58,
0.819,0.07,0.00,0.93,-0.05,-0.96,-0.58,
0.828,0.07,-0.01,0.94,-0.05,-0.96,-0.58,
0.829,0.07,-0.01,0.94,-0.06,-1.09,-0.32,
0.829,0.09,-0.02,0.95,-0.06,-1.09,-0.32,
0.83,0.09,-0.03,0.96,-0.06,-1.09,-0.32,
0.83,0.09,-0.03,0.96,-0.03,-1.21,-0.06,
0.83,0.10,-0.03,0.97,-0.03,-1.21,-0.06,
0.831,0.11,-0.03,0.98,-0.03,-1.21,-0.06,
0.831,0.11,-0.03,0.98,0.09,-1.35,0.13,
0.834,0.12,-0.03,0.99,0.09,-1.35,0.13,
0.836,0.13,-0.03,0.99,0.09,-1.35,0.13,
0.836,0.13,-0.03,0.99,0.22,-1.42,0.29,
0.838,0.15,-0.03,0.99,0.22,-1.42,0.29,
0.851,0.16,-0.03,0.99,0.22,-1.42,0.29,
0.851,0.16,-0.03,0.99,0.42,-1.41,0.42,
0.852,0.17,-0.02,0.99,0.42,-1.41,0.42,
0.852,0.17,-0.02,0.99,0.67,-1.32,0.43,
0.852,0.19,-0.02,0.99,0.67,-1.32,0.43,
0.852,0.20,-0.01,0.99,0.67,-1.32,0.43,
0.852,0.22,-0.00,0.99,0.67,-1.32,0.43,
0.852,0.22,-0.00,0.99,0.89,-1.18,0.41,
0.852,0.23,0.01,0.99,0.89,-1.18,0.41,
0.861,0.24,0.02,1.00,0.89,-1.18,0.41,
0.861,0.24,0.02,1.00,1.15,-1.02,0.43,
0.861,0.25,0.03,1.01,1.15,-1.02,0.43,
0.862,0.26,0.03,1.01,1.15,-1.02,0.43,
0.862,0.26,0.03,1.01,1.39,-0.80,0.48,
0.863,0.26,0.04,1.01,1.39,-0.80,0.48,
0.866,0.27,0.06,1.02,1.39,-0.80,0.48,
0.866,0.27,0.06,1.02,1.56,-0.59,0.64,
0.868,0.27,0.06,1.03,1.56,-0.59,0.64,
0.87,0.27,0.07,1.04,1.56,-0.59,0.64,
0.871,0.27,0.07,1.04,1.64,-0.35,0.70,
0.879,0.27,0.08,1.05,1.64,-0.35,0.70,
0.88,0.26,0.08,1.06,1.64,-0.35,0.70,
0.88,0.26,0.08,1.06,1.65,-0.20,0.84,
0.88,0.25,0.08,1.08,1.65,-0.20,0.84,
0.88,0.24,0.08,1.10,1.65,-0.20,0.84,
0.881,0.24,0.08,1.10,1.57,-0.01,1.05,
0.883,0.23,0.08,1.12,1.57,-0.01,1.05,
0.885,0.23,0.08,1.14,1.57,-0.01,1.05,
0.885,0.23,0.08,1.14,1.38,0.09,1.38,
0.894,0.22,0.08,1.14,1.38,0.09,1.38,
0.895,0.21,0.07,1.16,1.38,0.09,1.38,
0.895,0.21,0.07,1.16,1.21,0.10,1.74,
0.895,0.19,0.07,1.17,1.21,0.10,1.74,
0.895,0.19,0.07,1.17,1.01,0.11,1.96,
0.896,0.17,0.07,1.17,1.01,0.11,1.96,
0.898,0.16,0.07,1.18,1.01,0.11,1.96,
0.9,0.15,0.07,1.20,1.01,0.11,1.96,
0.9,0.15,0.07,1.20,0.72,0.10,2.17,
0.903,0.14,0.07,1.20,0.72,0.10,2.17,
0.905,0.13,0.07,1.21,0.72,0.10,2.17,
0.905,0.13,0.07,1.21,0.43,0.12,2.34,
0.909,0.12,0.07,1.22,0.43,0.12,2.34,
0.91,0.11,0.07,1.23,0.43,0.12,2.34,
0.91,0.11,0.07,1.23,0.19,0.18,2.51,
0.913,0.10,0.07,1.23,0.19,0.18,2.51,
0.915,0.10,0.07,1.24,0.19,0.18,2.51,
0.915,0.10,0.07,1.24,-0.00,0.19,2.65,
0.917,0.09,0.06,1.24,-0.00,0.19,2.65,
0.92,0.09,0.06,1.24,-0.00,0.19,2.65,
0.92,0.09,0.06,1.24,-0.14,0.23,2.75,
0.926,0.08,0.06,1.25,-0.14,0.23,2.75,
0.927,0.08,0.05,1.25,-0.14,0.23,2.75,
0.927,0.08,0.05,1.25,-0.24,0.23,2.82,
0.927,0.08,0.05,1.25,-0.24,0.23,2.82,
0.93,0.08,0.05,1.25,-0.24,0.23,2.82,
0.93,0.08,0.05,1.25,-0.32,0.22,2.86,
0.933,0.09,0.04,1.25,-0.32,0.22,2.86,
0.935,0.09,0.04,1.25,-0.32,0.22,2.86,
0.935,0.09,0.04,1.25,-0.35,0.21,2.88,
0.938,0.10,0.03,1.25,-0.35,0.21,2.88,
0.947,0.11,0.03,1.25,-0.35,0.21,2.88,
0.948,0.11,0.03,1.25,-0.29,0.14,2.89,
0.948,0.11,0.02,1.25,-0.29,0.14,2.89,
0.948,0.12,0.02,1.25,-0.29,0.14,2.89,
0.948,0.12,0.02,1.25,-0.18,0.09,2.86,
0.949,0.12,0.02,1.25,-0.18,0.09,2.86,
0.95,0.12,0.02,1.25,-0.18,0.09,2.86,
0.95,0.12,0.02,1.25,-0.09,0.03,2.86,
0.952,0.12,0.02,1.25,-0.09,0.03,2.86,
0.955,0.12,0.02,1.25,-0.09,0.03,2.86,
0.955,0.12,0.02,1.25,-0.03,0.06,2.83,
0.963,0.12,0.03,1.25,-0.03,0.06,2.83,
0.964,0.12,0.03,1.25,-0.03,0.06,2.83,
0.964,0.12,0.03,1.25,-0.04,0.09,2.82,
0.964,0.13,0.02,1.26,-0.04,0.09,2.82,
0.964,0.13,0.02,1.26,-0.04,0.09,2.82,
0.965,0.13,0.02,1.26,-0.02,0.15,2.81,
0.966,0.14,0.03,1.25,-0.02,0.15,2.81,
0.969,0.15,0.03,1.26,-0.02,0.15,2.81,
0.969,0.15,0.03,1.26,0.05,0.12,2.87,
0.981,0.15,0.02,1.25,0.05,0.12,2.87,
0.982,0.14,0.02,1.24,0.05,0.12,2.87,
0.982,0.14,0.02,1.24,0.17,0.18,2.86,
0.983,0.14,0.02,1.23,0.17,0.18,2.86,
0.983,0.14,0.01,1.22,0.17,0.18,2.86,
0.983,0.14,0.01,1.22,0.20,0.12,2.74,
0.983,0.13,0.01,1.21,0.20,0.12,2.74,
0.985,0.13,0.01,1.20,0.20,0.12,2.74,
0.986,0.13,0.01,1.20,0.15,0.09,2.57,
0.987,0.12,0.01,1.19,0.15,0.09,2.57,
0.995,0.11,-0.00,1.17,0.15,0.09,2.57,
0.995,0.11,-0.00,1.17,0.05,0.04,2.36,
0.995,0.10,0.00,1.16,0.05,0.04,2.36,
0.996,0.09,0.00,1.15,0.05,0.04,2.36,
0.996,0.09,0.00,1.15,-0.08,0.02,2.06,
0.996,0.08,0.01,1.14,-0.08,0.02,2.06,
0.998,0.07,0.00,1.13,-0.08,0.02,2.06,
0.999,0.07,0.00,1.13,-0.25,0.03,1.84,
1.001,0.06,0.00,1.12,-0.25,0.03,1.84,
1.003,0.05,0.01,1.11,-0.25,0.03,1.84,
1.004,0.05,0.01,1.11,-0.43,0.08,1.65,
1.01,0.04,0.00,1.10,-0.43,0.08,1.65,
1.01,0.04,0.00,1.09,-0.43,0.08,1.65,
1.011,0.04,0.00,1.09,-0.58,0.09,1.43,
1.011,0.04,-0.00,1.09,-0.58,0.09,1.43,
1.013,0.04,-0.00,1.09,-0.58,0.09,1.43,
1.014,0.04,-0.00,1.09,-0.67,0.11,1.22,
1.016,0.04,-0.01,1.09,-0.67,0.11,1.22,
1.018,0.04,-0.01,1.10,-0.67,0.11,1.22,
1.019,0.04,-0.01,1.10,-0.70,0.09,1.16,
1.021,0.05,-0.02,1.10,-0.70,0.09,1.16,
1.028,0.05,-0.03,1.10,-0.70,0.09,1.16,
1.028,0.05,-0.03,1.10,-0.66,0.03,1.19,
1.029,0.05,-0.04,1.10,-0.66,0.03,1.19,
1.029,0.06,-0.05,1.10,-0.66,0.03,1.19,
1.029,0.06,-0.05,1.10,-0.57,-0.13,1.22,
1.031,0.06,-0.06,1.10,-0.57,-0.13,1.22,
1.033,0.06,-0.06,1.10,-0.57,-0.13,1.22,
1.033,0.06,-0.06,1.10,-0.50,-0.26,1.26,
1.035,0.05,-0.07,1.10,-0.50,-0.26,1.26,
1.047,0.05,-0.06,1.09,-0.50,-0.26,1.26,
1.048,0.05,-0.06,1.09,-0.46,-0.39,1.24,
1.048,0.04,-0.06,1.09,-0.46,-0.39,1.24,
1.048,0.04,-0.05,1.09,-0.46,-0.39,1.24,
1.049,0.04,-0.05,1.09,-0.50,-0.40,1.19,
1.049,0.03,-0.05,1.09,-0.50,-0.40,1.19,
1.049,0.04,-0.04,1.08,-0.50,-0.40,1.19,
1.049,0.04,-0.04,1.08,-0.59,-0.29,1.16,
1.051,0.03,-0.03,1.08,-0.59,-0.29,1.16,
1.053,0.03,-0.02,1.08,-0.59,-0.29,1.16,
1.053,0.03,-0.02,1.08,-0.64,-0.19,1.08,
1.065,0.02,-0.01,1.08,-0.64,-0.19,1.08,
1.066,0.01,0.00,1.09,-0.64,-0.19,1.08,
1.066,0.01,0.00,1.09,-0.69,0.04,1.04,
1.067,0.01,0.01,1.09,-0.69,0.04,1.04,
1.067,0.01,0.02,1.10,-0.69,0.04,1.04,
1.067,0.01,0.02,1.10,-0.79,0.29,1.07,
1.067,0.01,0.03,1.10,-0.79,0.29,1.07,
1.068,0.01,0.03,1.11,-0.79,0.29,1.07,
1.068,0.01,0.03,1.11,-0.83,0.51,1.13,
1.07,0.00,0.02,1.12,-0.83,0.51,1.13,
1.08,0.00,0.02,1.12,-0.83,0.51,1.13,
1.081,0.00,0.02,1.12,-0.88,0.62,1.26,
1.081,0.01,0.02,1.13,-0.88,0.62,1.26,
1.082,0.01,0.02,1.15,-0.88,0.62,1.26,
1.082,0.01,0.02,1.15,-0.90,0.62,1.39,
1.082,0.00,0.01,1.16,-0.90,0.62,1.39,
1.083,0.01,-0.01,1.18,-0.90,0.62,1.39,
1.083,0.01,-0.01,1.18,-0.84,0.60,1.62,
1.085,0.01,-0.01,1.18,-0.84,0.60,1.62,
1.088,0.01,-0.02,1.19,-0.84,0.60,1.62,
1.088,0.01,-0.02,1.19,-0.86,0.44,1.89,
1.099,0.01,-0.03,1.21,-0.86,0.44,1.89,
1.1,0.01,-0.03,1.22,-0.86,0.44,1.89,
1.1,0.01,-0.03,1.22,-0.78,0.32,2.05,
1.1,0.02,-0.04,1.23,-0.78,0.32,2.05,
1.1,0.03,-0.04,1.25,-0.78,0.32,2.05,
1.101,0.03,-0.04,1.25,-0.77,0.18,2.31,
1.101,0.04,-0.05,1.27,-0.77,0.18,2.31,
1.102,0.04,-0.05,1.29,-0.77,0.18,2.31,
1.102,0.04,-0.05,1.29,-0.65,0.15,2.58,
1.113,0.06,-0.05,1.31,-0.65,0.15,2.58,
1.113,0.07,-0.05,1.32,-0.65,0.15,2.58,
1.113,0.07,-0.05,1.32,-0.48,0.07,2.97,
1.114,0.09,-0.05,1.32,-0.48,0.07,2.97,
1.114,0.10,-0.05,1.33,-0.48,0.07,2.97,
1.114,0.10,-0.05,1.33,-0.24,0.11,3.23,
1.115,0.11,-0.05,1.34,-0.24,0.11,3.23,
1.117,0.12,-0.05,1.34,-0.24,0.11,3.23,
1.117,0.12,-0.05,1.34,0.09,0.11,3.37,
1.12,0.13,-0.05,1.33,0.09,0.11,3.37,
1.127,0.13,-0.05,1.34,0.09,0.11,3.37,
1.128,0.13,-0.05,1.34,0.34,0.18,3.45,
1.128,0.13,-0.05,1.33,0.34,0.18,3.45,
1.128,0.13,-0.05,1.33,0.34,0.18,3.45,
1.129,0.13,-0.05,1.33,0.48,0.21,3.45,
1.13,0.12,-0.04,1.33,0.48,0.21,3.45,
1.132,0.12,-0.04,1.33,0.48,0.21,3.45,
1.132,0.12,-0.04,1.33,0.50,0.26,3.35,
1.134,0.11,-0.04,1.33,0.50,0.26,3.35,
1.137,0.09,-0.03,1.33,0.50,0.26,3.35,
1.137,0.09,-0.03,1.33,0.44,0.38,3.36,
1.145,0.08,-0.03,1.33,0.44,0.38,3.36,
1.146,0.06,-0.02,1.34,0.44,0.38,3.36,
1.146,0.06,-0.02,1.34,0.25,0.45,3.34,
1.147,0.05,-0.02,1.34,0.25,0.45,3.34,
1.147,0.03,-0.02,1.34,0.25,0.45,3.34,
1.15,0.03,-0.02,1.34,0.00,0.53,3.40,
1.15,0.02,-0.02,1.35,0.00,0.53,3.40,
1.153,0.01,-0.02,1.36,0.00,0.53,3.40,
1.153,0.01,-0.02,1.36,-0.25,0.61,3.45,
1.155,0.01,-0.02,1.36,-0.25,0.61,3.45,
1.166,-0.00,-0.03,1.37,-0.25,0.61,3.45,
1.169,-0.00,-0.03,1.37,-0.43,0.62,3.59,
1.169,-0.01,-0.03,1.37,-0.43,0.62,3.59,
1.169,-0.02,-0.03,1.37,-0.43,0.62,3.59,
1.17,-0.02,-0.03,1.37,-0.58,0.64,3.65,
1.17,-0.03,-0.03,1.36,-0.58,0.64,3.65,
1.17,-0.03,-0.03,1.37,-0.58,0.64,3.65,
1.17,-0.03,-0.03,1.37,-0.71,0.59,3.68,
1.171,-0.04,-0.03,1.37,-0.71,0.59,3.68,
1.172,-0.04,-0.03,1.36,-0.71,0.59,3.68,
1.172,-0.04,-0.03,1.36,-0.83,0.56,3.65,
1.179,-0.03,-0.04,1.36,-0.83,0.56,3.65,
1.179,-0.03,-0.04,1.36,-0.83,0.56,3.65,
1.18,-0.03,-0.04,1.36,-0.88,0.56,3.65,
1.18,-0.03,-0.04,1.35,-0.88,0.56,3.65,
1.183,-0.03,-0.05,1.36,-0.88,0.56,3.65,
1.184,-0.03,-0.05,1.36,-0.83,0.53,3.58,
1.184,-0.02,-0.04,1.34,-0.83,0.53,3.58,
1.187,-0.02,-0.05,1.34,-0.83,0.53,3.58,
1.187,-0.02,-0.05,1.34,-0.75,0.48,3.51,
1.196,-0.02,-0.05,1.33,-0.75,0.48,3.51,
1.196,-0.02,-0.05,1.33,-0.65,0.46,3.35,
1.197,-0.01,-0.05,1.33,-0.65,0.46,3.35,
1.197,-0.01,-0.05,1.32,-0.65,0.46,3.35,
1.197,-0.01,-0.05,1.31,-0.65,0.46,3.35,
1.197,-0.01,-0.05,1.31,-0.57,0.42,3.26,
1.2,0.00,-0.05,1.30,-0.57,0.42,3.26,
1.202,0.01,-0.05,1.30,-0.57,0.42,3.26,
1.202,0.01,-0.05,1.30,-0.49,0.38,3.10,
1.205,0.01,-0.05,1.29,-0.49,0.38,3.10,
1.212,0.02,-0.05,1.28,-0.49,0.38,3.10,
1.212,0.02,-0.05,1.28,-0.35,0.41,2.96,
1.212,0.02,-0.04,1.28,-0.35,0.41,2.96,
1.212,0.03,-0.04,1.27,-0.35,0.41,2.96,
1.212,0.03,-0.04,1.27,-0.21,0.43,2.80,
1.215,0.03,-0.04,1.27,-0.21,0.43,2.80,
1.217,0.03,-0.04,1.27,-0.21,0.43,2.80,
1.217,0.03,-0.04,1.27,-0.10,0.48,2.68,
1.22,0.04,-0.05,1.26,-0.10,0.48,2.68,
1.222,0.04,-0.05,1.25,-0.10,0.48,2.68,
1.222,0.04,-0.05,1.25,-0.04,0.48,2.60,
1.23,0.04,-0.05,1.24,-0.04,0.48,2.60,
1.23,0.04,-0.05,1.24,-0.04,0.48,2.60,
1.231,0.04,-0.05,1.24,0.04,0.39,2.45,
1.231,0.03,-0.06,1.23,0.04,0.39,2.45,
1.231,0.03,-0.06,1.22,0.04,0.39,2.45,
1.231,0.03,-0.06,1.22,0.07,0.37,2.29,
1.234,0.03,-0.07,1.21,0.07,0.37,2.29,
1.237,0.02,-0.08,1.19,0.07,0.37,2.29,
1.237,0.02,-0.08,1.19,0.04,0.33,2.12,
1.24,0.01,-0.08,1.18,0.04,0.33,2.12,
1.245,0.01,-0.08,1.18,0.04,0.33,2.12,
1.246,0.01,-0.08,1.18,-0.03,0.17,1.89,
1.246,0.00,-0.09,1.16,-0.03,0.17,1.89,
1.247,-0.00,-0.09,1.15,-0.03,0.17,1.89,
1.247,-0.00,-0.09,1.15,-0.11,0.07,1.69,
1.249,-0.01,-0.10,1.13,-0.11,0.07,1.69,
1.252,-0.01,-0.10,1.12,-0.11,0.07,1.69,
1.252,-0.01,-0.10,1.12,-0.20,-0.01,1.46,
1.254,-0.01,-0.12,1.11,-0.20,-0.01,1.46,
1.257,-0.01,-0.13,1.09,-0.20,-0.01,1.46,
1.257,-0.01,-0.13,1.09,-0.26,-0.14,1.19,
1.263,-0.01,-0.13,1.08,-0.26,-0.14,1.19,
1.263,-0.01,-0.13,1.07,-0.26,-0.14,1.19,
1.263,-0.01,-0.13,1.07,-0.25,-0.33,0.92,
1.264,-0.01,-0.14,1.06,-0.25,-0.33,0.92,
1.266,-0.01,-0.13,1.06,-0.25,-0.33,0.92,
1.267,-0.01,-0.13,1.06,-0.21,-0.44,0.67,
1.269,-0.00,-0.13,1.05,-0.21,-0.44,0.67,
1.271,0.00,-0.12,1.05,-0.21,-0.44,0.67,
1.272,0.00,-0.12,1.05,-0.18,-0.48,0.50,
1.273,0.00,-0.12,1.05,-0.18,-0.48,0.50,
1.283,0.01,-0.12,1.05,-0.18,-0.48,0.50,
1.284,0.01,-0.12,1.05,-0.11,-0.42,0.41,
1.284,0.01,-0.11,1.06,-0.11,-0.42,0.41,
1.284,0.02,-0.10,1.06,-0.11,-0.42,0.41,
1.284,0.02,-0.10,1.06,-0.05,-0.34,0.39,
1.285,0.03,-0.09,1.08,-0.05,-0.34,0.39,
1.286,0.03,-0.08,1.10,-0.05,-0.34,0.39,
1.287,0.03,-0.08,1.10,0.06,-0.20,0.50,
1.29,0.04,-0.08,1.11,0.06,-0.20,0.50,
1.297,0.05,-0.07,1.12,0.06,-0.20,0.50,
1.298,0.05,-0.07,1.12,0.17,-0.05,0.78,
1.298,0.06,-0.07,1.13,0.17,-0.05,0.78,
1.298,0.07,-0.07,1.14,0.17,-0.05,0.78,
1.298,0.07,-0.07,1.14,0.33,0.05,1.02,
1.299,0.08,-0.07,1.14,0.33,0.05,1.02,
1.3,0.09,-0.08,1.15,0.33,0.05,1.02,
1.301,0.09,-0.08,1.15,0.51,0.09,1.24,
1.303,0.09,-0.08,1.15,0.51,0.09,1.24,
1.305,0.10,-0.08,1.15,0.51,0.09,1.24,
1.306,0.10,-0.08,1.15,0.65,0.04,1.31,
1.316,0.10,-0.08,1.14,0.65,0.04,1.31,
1.316,0.11,-0.08,1.13,0.65,0.04,1.31,
1.317,0.11,-0.08,1.13,0.75,-0.01,1.33,
1.318,0.11,-0.08,1.13,0.75,-0.01,1.33,
1.319,0.11,-0.08,1.12,0.75,-0.01,1.33,
1.319,0.11,-0.08,1.12,0.83,-0.02,1.25,
1.319,0.11,-0.09,1.10,0.83,-0.02,1.25,
1.32,0.12,-0.10,1.10,0.83,-0.02,1.25,
1.32,0.12,-0.10,1.10,0.87,-0.09,1.08,
1.323,0.12,-0.10,1.08,0.87,-0.09,1.08,
1.331,0.12,-0.11,1.07,0.87,-0.09,1.08,
1.332,0.12,-0.11,1.07,0.93,-0.21,0.86,
1.332,0.11,-0.11,1.06,0.93,-0.21,0.86,
1.332,0.11,-0.11,1.05,0.93,-0.21,0.86,
1.332,0.11,-0.11,1.05,0.93,-0.32,0.62,
1.333,0.10,-0.11,1.04,0.93,-0.32,0.62,
1.335,0.10,-0.10,1.02,0.93,-0.32,0.62,
1.336,0.10,-0.10,1.02,0.90,-0.34,0.40,
1.337,0.09,-0.10,1.02,0.90,-0.34,0.40,
1.345,0.09,-0.10,1.01,0.90,-0.34,0.40,
1.346,0.09,-0.10,1.01,0.80,-0.36,0.19,
1.346,0.08,-0.09,1.00,0.80,-0.36,0.19,
1.347,0.08,-0.09,1.00,0.80,-0.36,0.19,
1.347,0.08,-0.09,1.00,0.70,-0.28,0.02,
1.347,0.07,-0.08,1.00,0.70,-0.28,0.02,
1.35,0.06,-0.08,0.99,0.70,-0.28,0.02,
1.35,0.06,-0.08,0.99,0.54,-0.21,-0.12,
1.353,0.05,-0.08,1.00,0.54,-0.21,-0.12,
1.355,0.04,-0.08,1.00,0.54,-0.21,-0.12,
1.355,0.04,-0.08,1.00,0.38,-0.14,-0.20,
1.363,0.03,-0.09,1.01,0.38,-0.14,-0.20,
1.364,0.03,-0.09,1.02,0.38,-0.14,-0.20,
1.364,0.03,-0.09,1.02,0.22,-0.16,-0.12,
1.364,0.02,-0.09,1.04,0.22,-0.16,-0.12,
1.365,0.02,-0.09,1.04,0.05,-0.23,0.01,
1.365,0.02,-0.09,1.06,0.05,-0.23,0.01,
1.367,0.01,-0.09,1.07,0.05,-0.23,0.01,
1.37,0.01,-0.09,1.09,0.05,-0.23,0.01,
1.371,0.01,-0.09,1.09,-0.07,-0.30,0.39,
1.372,0.00,-0.09,1.10,-0.07,-0.30,0.39,
1.384,-0.00,-0.09,1.12,-0.07,-0.30,0.39,
1.385,-0.00,-0.09,1.12,-0.20,-0.33,0.66,
1.386,-0.01,-0.09,1.13,-0.20,-0.33,0.66,
1.386,-0.00,-0.08,1.15,-0.20,-0.33,0.66,
1.386,-0.00,-0.08,1.15,-0.35,-0.34,0.96,
1.386,-0.01,-0.08,1.16,-0.35,-0.34,0.96,
1.387,-0.01,-0.07,1.18,-0.35,-0.34,0.96,
1.387,-0.01,-0.07,1.18,-0.43,-0.26,1.24,
1.387,-0.01,-0.07,1.19,-0.43,-0.26,1.24,
1.389,-0.01,-0.06,1.21,-0.43,-0.26,1.24,
1.39,-0.01,-0.06,1.21,-0.49,-0.18,1.51,
1.398,-0.00,-0.06,1.22,-0.49,-0.18,1.51,
1.398,0.01,-0.06,1.23,-0.49,-0.18,1.51,
1.399,0.01,-0.06,1.23,-0.52,-0.10,1.81,
1.399,0.02,-0.05,1.23,-0.52,-0.10,1.81,
1.399,0.03,-0.05,1.24,-0.52,-0.10,1.81,
1.4,0.03,-0.05,1.24,-0.43,-0.04,2.03,
1.402,0.04,-0.04,1.25,-0.43,-0.04,2.03,
1.404,0.05,-0.04,1.25,-0.43,-0.04,2.03,
1.404,0.05,-0.04,1.25,-0.29,0.00,2.14,
1.417,0.06,-0.04,1.26,-0.29,0.00,2.14,
1.417,0.07,-0.05,1.27,-0.29,0.00,2.14,
1.418,0.07,-0.05,1.27,-0.08,0.07,2.27,
1.418,0.08,-0.04,1.27,-0.08,0.07,2.27,
1.418,0.08,-0.04,1.27,0.08,0.03,2.40,
1.418,0.09,-0.03,1.26,0.08,0.03,2.40,
1.418,0.10,-0.03,1.26,0.08,0.03,2.40,
1.419,0.10,-0.03,1.26,0.08,0.03,2.40,
1.419,0.10,-0.03,1.26,0.25,0.09,2.43,
1.423,0.10,-0.02,1.25,0.25,0.09,2.43,
1.43,0.10,-0.02,1.25,0.25,0.09,2.43,
1.431,0.10,-0.02,1.25,0.34,0.15,2.37,
1.431,0.10,-0.02,1.24,0.34,0.15,2.37,
1.431,0.09,-0.01,1.23,0.34,0.15,2.37,
1.431,0.09,-0.01,1.23,0.38,0.19,2.25,
1.432,0.08,-0.00,1.22,0.38,0.19,2.25,
1.434,0.07,0.01,1.21,0.38,0.19,2.25,
1.434,0.07,0.01,1.21,0.29,0.24,2.12,
1.437,0.06,0.01,1.20,0.29,0.24,2.12,
1.44,0.05,0.02,1.19,0.29,0.24,2.12,
1.447,0.05,0.02,1.19,0.14,0.36,1.92,
1.447,0.03,0.02,1.18,0.14,0.36,1.92,
1.448,0.01,0.03,1.16,0.14,0.36,1.92,
1.448,0.01,0.03,1.16,-0.11,0.46,1.70,
1.448,-0.01,0.03,1.14,-0.11,0.46,1.70,
1.449,-0.03,0.04,1.13,-0.11,0.46,1.70,
1.449,-0.03,0.04,1.13,-0.41,0.54,1.46,
1.452,-0.05,0.04,1.11,-0.41,0.54,1.46,
1.454,-0.07,0.04,1.09,-0.41,0.54,1.46,
1.455,-0.07,0.04,1.09,-0.81,0.59,1.12,
1.456,-0.09,0.04,1.07,-0.81,0.59,1.12,
1.462,-0.10,0.04,1.05,-0.81,0.59,1.12,
1.463,-0.10,0.04,1.05,-1.18,0.58,0.76,
1.463,-0.12,0.04,1.05,-1.18,0.58,0.76,
1.465,-0.12,0.05,1.04,-1.18,0.58,0.76,
1.465,-0.12,0.05,1.04,-1.51,0.53,0.40,
1.466,-0.13,0.05,1.02,-1.51,0.53,0.40,
1.469,-0.14,0.05,1.02,-1.51,0.53,0.40,
1.469,-0.14,0.05,1.02,-1.77,0.57,0.20,
1.471,-0.14,0.05,1.02,-1.77,0.57,0.20,
1.474,-0.15,0.05,1.01,-1.77,0.57,0.20,
1.475,-0.15,0.05,1.01,-1.95,0.56,0.01,
1.48,-0.15,0.05,1.02,-1.95,0.56,0.01,
1.484,-0.14,0.05,1.02,-1.95,0.56,0.01,
1.484,-0.14,0.05,1.02,-2.07,0.53,-0.02,
1.484,-0.14,0.05,1.03,-2.07,0.53,-0.02,
1.485,-0.12,0.05,1.05,-2.07,0.53,-0.02,
1.485,-0.12,0.05,1.05,-2.09,0.52,-0.03,
1.486,-0.11,0.05,1.07,-2.09,0.52,-0.03,
1.489,-0.09,0.05,1.09,-2.09,0.52,-0.03,
1.489,-0.09,0.05,1.09,-1.96,0.45,0.18,
1.491,-0.07,0.05,1.11,-1.96,0.45,0.18,
1.505,-0.05,0.05,1.13,-1.96,0.45,0.18,
1.506,-0.05,0.05,1.13,-1.72,0.46,0.54,
1.506,-0.03,0.05,1.15,-1.72,0.46,0.54,
1.506,-0.00,0.05,1.18,-1.72,0.46,0.54,
1.506,-0.00,0.05,1.18,-1.36,0.43,1.00,
1.507,0.02,0.05,1.20,-1.36,0.43,1.00,
1.507,0.04,0.05,1.21,-1.36,0.43,1.00,
1.507,0.04,0.05,1.21,-0.95,0.38,1.44,
1.507,0.06,0.05,1.23,-0.95,0.38,1.44,
1.515,0.08,0.05,1.24,-0.95,0.38,1.44,
1.515,0.08,0.05,1.24,-0.55,0.34,1.82,
1.515,0.10,0.06,1.25,-0.55,0.34,1.82,
1.515,0.11,0.06,1.25,-0.55,0.34,1.82,
1.516,0.11,0.06,1.25,-0.18,0.36,2.09,
1.516,0.12,0.05,1.24,-0.18,0.36,2.09,
1.519,0.12,0.05,1.24,0.11,0.37,2.27,
1.519,0.13,0.06,1.23,0.11,0.37,2.27,
1.522,0.13,0.06,1.22,0.11,0.37,2.27,
1.524,0.13,0.06,1.21,0.11,0.37,2.27,
1.524,0.13,0.06,1.21,0.32,0.35,2.13,
1.533,0.12,0.06,1.19,0.32,0.35,2.13,
1.534,0.11,0.07,1.17,0.32,0.35,2.13,
1.534,0.11,0.07,1.17,0.34,0.35,1.90,
1.534,0.10,0.07,1.14,0.34,0.35,1.90,
1.534,0.09,0.07,1.13,0.34,0.35,1.90,
1.534,0.09,0.07,1.13,0.24,0.37,1.57,
1.536,0.08,0.07,1.11,0.24,0.37,1.57,
1.539,0.07,0.06,1.09,0.24,0.37,1.57,
1.539,0.07,0.06,1.09,0.07,0.40,1.11,
1.541,0.05,0.06,1.07,0.07,0.40,1.11,
1.548,0.03,0.05,1.06,0.07,0.40,1.11,
1.548,0.03,0.05,1.06,-0.17,0.31,0.78,
1.548,0.02,0.04,1.04,-0.17,0.31,0.78,
1.549,0.00,0.04,1.02,-0.17,0.31,0.78,
1.549,0.00,0.04,1.02,-0.43,0.20,0.43,
1.551,-0.01,0.03,0.99,-0.43,0.20,0.43,
1.554,-0.03,0.02,0.97,-0.43,0.20,0.43,
1.554,-0.03,0.02,0.97,-0.71,0.03,0.06,
1.556,-0.05,0.01,0.94,-0.71,0.03,0.06,
1.558,-0.06,0.01,0.92,-0.71,0.03,0.06,
1.558,-0.06,0.01,0.92,-0.98,-0.14,-0.43,
1.564,-0.07,0.01,0.89,-0.98,-0.14,-0.43,
1.565,-0.07,0.01,0.89,-1.30,-0.31,-0.90,
1.565,-0.08,0.00,0.86,-1.30,-0.31,-0.90,
1.565,-0.09,-0.00,0.85,-1.30,-0.31,-0.90,
1.568,-0.09,-0.01,0.82,-1.30,-0.31,-0.90,
1.569,-0.09,-0.01,0.82,-1.49,-0.43,-1.42,
1.572,-0.09,-0.00,0.81,-1.49,-0.43,-1.42,
1.573,-0.09,-0.01,0.79,-1.49,-0.43,-1.42,
1.574,-0.09,-0.01,0.79,-1.59,-0.55,-1.81,
1.58,-0.10,-0.01,0.79,-1.59,-0.55,-1.81,
1.58,-0.10,-0.01,0.78,-1.59,-0.55,-1.81,
1.581,-0.10,-0.01,0.78,-1.62,-0.60,-2.17,
1.581,-0.09,-0.02,0.77,-1.62,-0.60,-2.17,
1.584,-0.09,-0.02,0.77,-1.64,-0.71,-2.30,
1.584,-0.09,-0.02,0.76,-1.64,-0.71,-2.30,
1.586,-0.08,-0.02,0.76,-1.64,-0.71,-2.30,
1.589,-0.08,-0.02,0.76,-1.58,-0.83,-2.49,
1.589,-0.08,-0.01,0.75,-1.58,-0.83,-2.49,
1.591,-0.07,-0.01,0.75,-1.58,-0.83,-2.49,
1.602,-0.07,-0.01,0.75,-1.58,-0.83,-2.49,
1.603,-0.07,-0.01,0.75,-1.51,-0.84,-2.57,
1.603,-0.06,-0.01,0.75,-1.51,-0.84,-2.57,
1.603,-0.06,-0.01,0.76,-1.51,-0.84,-2.57,
1.603,-0.06,-0.01,0.76,-1.44,-0.87,-2.61,
1.603,-0.05,-0.00,0.76,-1.44,-0.87,-2.61,
1.604,-0.04,0.00,0.76,-1.44,-0.87,-2.61,
1.604,-0.04,0.00,0.76,-1.34,-0.85,-2.55,
1.606,-0.03,0.01,0.78,-1.34,-0.85,-2.55,
1.608,-0.02,0.01,0.79,-1.34,-0.85,-2.55,
1.608,-0.02,0.01,0.79,-1.21,-0.81,-2.50,
1.615,-0.01,0.01,0.79,-1.21,-0.81,-2.50,
1.616,0.00,0.02,0.80,-1.21,-0.81,-2.50,
1.616,0.00,0.02,0.80,-1.04,-0.80,-2.29,
1.616,0.01,0.02,0.81,-1.04,-0.80,-2.29,
1.618,0.02,0.03,0.81,-1.04,-0.80,-2.29,
1.618,0.02,0.03,0.81,-0.81,-0.76,-2.12,
1.62,0.02,0.04,0.81,-0.81,-0.76,-2.12,
1.623,0.03,0.03,0.81,-0.81,-0.76,-2.12,
1.623,0.03,0.03,0.81,-0.62,-0.71,-1.98,
1.625,0.03,0.03,0.80,-0.62,-0.71,-1.98,
1.634,0.03,0.03,0.80,-0.62,-0.71,-1.98,
1.635,0.03,0.03,0.80,-0.54,-0.68,-1.97,
1.635,0.02,0.02,0.79,-0.54,-0.68,-1.97,
1.636,0.02,0.01,0.78,-0.54,-0.68,-1.97,
1.636,0.02,0.01,0.78,-0.47,-0.80,-2.03,
1.636,0.02,0.01,0.77,-0.47,-0.80,-2.03,
1.638,0.01,0.01,0.76,-0.47,-0.80,-2.03,
1.638,0.01,0.01,0.76,-0.51,-0.94,-2.15,
1.64,0.01,0.01,0.74,-0.51,-0.94,-2.15,
1.648,0.01,0.01,0.72,-0.51,-0.94,-2.15,
1.651,0.01,0.01,0.72,-0.56,-1.06,-2.36,
1.651,-0.00,0.01,0.70,-0.56,-1.06,-2.36,
1.651,-0.01,0.01,0.68,-0.56,-1.06,-2.36,
1.651,-0.01,0.01,0.68,-0.59,-1.11,-2.68,
1.652,-0.01,0.00,0.65,-0.59,-1.11,-2.68,
1.652,-0.02,0.00,0.63,-0.59,-1.11,-2.68,
1.652,-0.02,0.00,0.63,-0.71,-1.20,-3.09,
1.655,-0.02,0.01,0.62,-0.71,-1.20,-3.09,
1.657,-0.02,0.02,0.59,-0.71,-1.20,-3.09,
1.657,-0.02,0.02,0.59,-0.80,-1.28,-3.58,
1.665,-0.02,0.03,0.57,-0.80,-1.28,-3.58,
1.665,-0.02,0.04,0.56,-0.80,-1.28,-3.58,
1.665,-0.02,0.04,0.56,-0.81,-1.26,-3.92,
1.666,-0.02,0.06,0.54,-0.81,-1.26,-3.92,
1.667,-0.02,0.09,0.53,-0.81,-1.26,-3.92,
1.667,-0.02,0.09,0.53,-0.79,-1.09,-4.27,
1.669,-0.03,0.12,0.52,-0.79,-1.09,-4.27,
1.672,-0.03,0.16,0.51,-0.79,-1.09,-4.27,
1.672,-0.03,0.16,0.51,-0.80,-0.74,-4.54,
1.674,-0.03,0.19,0.50,-0.80,-0.74,-4.54,
1.681,-0.04,0.22,0.50,-0.80,-0.74,-4.54,
1.681,-0.04,0.22,0.50,-0.88,-0.21,-4.73,
1.682,-0.05,0.26,0.51,-0.88,-0.21,-4.73,
1.682,-0.05,0.28,0.52,-0.88,-0.21,-4.73,
1.682,-0.05,0.28,0.52,-0.96,0.36,-4.85,
1.684,-0.05,0.29,0.53,-0.96,0.36,-4.85,
1.686,-0.04,0.30,0.54,-0.96,0.36,-4.85,
1.687,-0.04,0.30,0.54,-1.12,0.90,-4.70,
1.69,-0.04,0.31,0.56,-1.12,0.90,-4.70,
1.698,-0.03,0.31,0.59,-1.12,0.90,-4.70,
1.698,-0.03,0.31,0.59,-1.13,1.12,-4.47,
1.699,-0.03,0.30,0.61,-1.13,1.12,-4.47,
1.699,-0.02,0.28,0.64,-1.13,1.12,-4.47,
1.699,-0.02,0.28,0.64,-1.13,1.19,-4.06,
1.699,-0.01,0.25,0.67,-1.13,1.19,-4.06,
1.701,0.00,0.22,0.71,-1.13,1.19,-4.06,
1.701,0.00,0.22,0.71,-1.05,0.87,-3.52,
1.704,0.01,0.18,0.74,-1.05,0.87,-3.52,
1.706,0.03,0.14,0.77,-1.05,0.87,-3.52,
1.707,0.03,0.14,0.77,-0.94,0.26,-2.87,
1.719,0.04,0.10,0.79,-0.94,0.26,-2.87,
1.72,0.06,0.05,0.82,-0.94,0.26,-2.87,
1.72,0.06,0.05,0.82,-0.76,-0.57,-2.23,
1.72,0.08,0.01,0.86,-0.76,-0.57,-2.23,
1.72,0.10,-0.02,0.87,-0.76,-0.57,-2.23,
1.721,0.10,-0.02,0.87,-0.50,-1.45,-1.63,
1.721,0.11,-0.04,0.89,-0.50,-1.45,-1.63,
1.721,0.10,-0.06,0.90,-0.50,-1.45,-1.63,
1.721,0.10,-0.06,0.90,-0.19,-2.27,-1.07,
1.724,0.08,-0.06,0.90,-0.19,-2.27,-1.07,
1.735,0.07,-0.06,0.91,-0.19,-2.27,-1.07,
1.736,0.07,-0.06,0.91,-0.06,-2.79,-0.74,
1.736,0.06,-0.06,0.90,-0.06,-2.79,-0.74,
1.736,0.05,-0.04,0.90,-0.06,-2.79,-0.74,
1.737,0.05,-0.04,0.90,-0.38,-2.95,-0.64,
1.737,0.03,-0.03,0.89,-0.38,-2.95,-0.64,
1.737,0.02,-0.00,0.88,-0.38,-2.95,-0.64,
1.737,0.02,-0.00,0.88,-0.58,-2.88,-0.65,
1.738,-0.00,0.01,0.88,-0.58,-2.88,-0.65,
1.741,-0.02,0.04,0.85,-0.58,-2.88,-0.65,
1.741,-0.02,0.04,0.85,-0.82,-2.60,-0.75,
1.751,-0.03,0.06,0.84,-0.82,-2.60,-0.75,
1.752,-0.04,0.09,0.82,-0.82,-2.60,-0.75,
1.752,-0.04,0.09,0.82,-1.13,-2.23,-0.98,
1.752,-0.05,0.12,0.79,-1.13,-2.23,-0.98,
1.752,-0.06,0.14,0.76,-1.13,-2.23,-0.98,
1.752,-0.06,0.14,0.76,-1.38,-1.78,-1.33,
1.753,-0.07,0.17,0.73,-1.38,-1.78,-1.33,
1.756,-0.08,0.19,0.71,-1.38,-1.78,-1.33,
1.756,-0.08,0.19,0.71,-1.55,-1.27,-1.81,
1.758,-0.09,0.20,0.69,-1.55,-1.27,-1.81,
1.766,-0.09,0.21,0.68,-1.55,-1.27,-1.81,
1.767,-0.09,0.21,0.68,-1.73,-0.85,-2.35,
1.767,-0.10,0.22,0.68,-1.73,-0.85,-2.35,
1.767,-0.11,0.22,0.67,-1.73,-0.85,-2.35,
1.768,-0.11,0.22,0.67,-1.87,-0.61,-2.68,
1.768,-0.11,0.23,0.66,-1.87,-0.61,-2.68,
1.771,-0.11,0.22,0.67,-1.87,-0.61,-2.68,
1.771,-0.11,0.22,0.67,-1.99,-0.49,-2.80,
1.773,-0.11,0.21,0.69,-1.99,-0.49,-2.80,
1.781,-0.11,0.20,0.70,-1.99,-0.49,-2.80,
1.781,-0.11,0.20,0.70,-2.05,-0.51,-2.83,
1.781,-0.11,0.18,0.71,-2.05,-0.51,-2.83,
1.782,-0.10,0.16,0.74,-2.05,-0.51,-2.83,
1.782,-0.10,0.16,0.74,-2.06,-0.73,-2.57,
1.783,-0.09,0.15,0.75,-2.06,-0.73,-2.57,
1.786,-0.09,0.15,0.75,-2.03,-1.07,-2.24,
1.786,-0.08,0.13,0.78,-2.03,-1.07,-2.24,
1.788,-0.07,0.11,0.82,-2.03,-1.07,-2.24,
1.79,-0.06,0.09,0.86,-2.03,-1.07,-2.24,
1.791,-0.06,0.09,0.86,-1.91,-1.42,-1.79,
1.8,-0.06,0.07,0.90,-1.91,-1.42,-1.79,
1.8,-0.04,0.07,0.93,-1.91,-1.42,-1.79,
1.801,-0.04,0.07,0.93,-1.80,-1.79,-1.09,
1.801,-0.04,0.06,0.96,-1.80,-1.79,-1.09,
1.801,-0.04,0.06,0.99,-1.80,-1.79,-1.09,
1.801,-0.04,0.06,0.99,-1.68,-2.11,-0.36,
1.804,-0.02,0.06,1.02,-1.68,-2.11,-0.36,
1.806,-0.01,0.08,1.04,-1.68,-2.11,-0.36,
1.806,-0.01,0.08,1.04,-1.59,-2.25,0.27,
1.811,-0.01,0.09,1.06,-1.59,-2.25,0.27,
1.812,0.00,0.11,1.08,-1.59,-2.25,0.27,
1.812,0.00,0.11,1.08,-1.42,-2.14,0.82,
1.819,0.01,0.12,1.09,-1.42,-2.14,0.82,
1.819,0.02,0.14,1.09,-1.42,-2.14,0.82,
1.82,0.02,0.14,1.09,-1.29,-1.85,1.20,
1.82,0.02,0.15,1.09,-1.29,-1.85,1.20,
1.821,0.03,0.16,1.09,-1.29,-1.85,1.20,
1.821,0.03,0.16,1.09,-1.15,-1.56,1.40,
1.823,0.03,0.18,1.09,-1.15,-1.56,1.40,
1.825,0.03,0.19,1.07,-1.15,-1.56,1.40,
1.826,0.03,0.19,1.07,-1.01,-1.31,1.44,
1.831,0.03,0.20,1.06,-1.01,-1.31,1.44,
1.831,0.03,0.21,1.05,-1.01,-1.31,1.44,
1.831,0.03,0.21,1.05,-0.97,-1.08,1.30,
1.833,0.03,0.22,1.03,-0.97,-1.08,1.30,
1.836,0.03,0.22,1.02,-0.97,-1.08,1.30,
1.836,0.03,0.22,1.02,-0.93,-0.82,1.07,
1.838,0.03,0.23,1.01,-0.93,-0.82,1.07,
1.841,0.03,0.24,1.00,-0.93,-0.82,1.07,
1.841,0.03,0.24,1.00,-0.96,-0.71,0.81,
1.843,0.03,0.25,0.99,-0.96,-0.71,0.81,
1.849,0.03,0.26,0.98,-0.96,-0.71,0.81,
1.85,0.03,0.26,0.98,-0.90,-0.56,0.58,
1.85,0.03,0.27,0.97,-0.90,-0.56,0.58,
1.85,0.03,0.29,0.96,-0.90,-0.56,0.58,
1.85,0.03,0.29,0.96,-0.89,-0.37,0.37,
1.853,0.04,0.30,0.95,-0.89,-0.37,0.37,
1.855,0.04,0.31,0.93,-0.89,-0.37,0.37,
1.855,0.04,0.31,0.93,-0.85,-0.12,0.16,
1.859,0.04,0.32,0.92,-0.85,-0.12,0.16,
1.866,0.05,0.33,0.91,-0.85,-0.12,0.16,
1.867,0.05,0.33,0.91,-0.77,0.15,-0.08,
1.867,0.06,0.33,0.91,-0.77,0.15,-0.08,
1.867,0.06,0.33,0.90,-0.77,0.15,-0.08,
1.867,0.06,0.33,0.90,-0.69,0.36,-0.29,
1.867,0.07,0.32,0.90,-0.69,0.36,-0.29,
1.871,0.07,0.31,0.89,-0.69,0.36,-0.29,
1.871,0.07,0.31,0.89,-0.56,0.38,-0.43,
1.873,0.08,0.29,0.89,-0.56,0.38,-0.43,
1.875,0.09,0.29,0.88,-0.56,0.38,-0.43,
1.876,0.09,0.29,0.88,-0.41,0.29,-0.55,
1.882,0.11,0.30,0.88,-0.41,0.29,-0.55,
1.883,0.11,0.29,0.88,-0.41,0.29,-0.55,
1.883,0.11,0.29,0.88,-0.24,0.08,-0.65,
1.883,0.11,0.28,0.88,-0.24,0.08,-0.65,
1.886,0.11,0.28,0.87,-0.24,0.08,-0.65,
1.886,0.11,0.28,0.87,-0.03,0.08,-0.68,
1.888,0.10,0.26,0.87,-0.03,0.08,-0.68,
1.89,0.09,0.26,0.87,-0.03,0.08,-0.68,
1.89,0.09,0.26,0.87,-0.01,0.01,-0.78,
1.893,0.09,0.25,0.88,-0.01,0.01,-0.78,
1.898,0.07,0.26,0.89,-0.01,0.01,-0.78,
1.899,0.07,0.26,0.89,-0.09,-0.16,-0.80,
1.899,0.07,0.26,0.91,-0.09,-0.16,-0.80,
1.9,0.06,0.27,0.92,-0.09,-0.16,-0.80,
1.9,0.06,0.27,0.92,-0.26,-0.16,-0.66,
1.903,0.05,0.28,0.94,-0.26,-0.16,-0.66,
1.905,0.05,0.29,0.96,-0.26,-0.16,-0.66,
1.905,0.05,0.29,0.96,-0.35,-0.01,-0.40,
1.908,0.04,0.30,0.97,-0.35,-0.01,-0.40,
1.91,0.03,0.30,0.98,-0.35,-0.01,-0.40,
1.91,0.03,0.30,0.98,-0.45,0.21,-0.07,
1.916,0.03,0.31,0.99,-0.45,0.21,-0.07,
1.917,0.02,0.31,1.00,-0.45,0.21,-0.07,
1.917,0.02,0.31,1.00,-0.56,0.41,0.13,
1.917,0.03,0.31,1.01,-0.56,0.41,0.13,
1.92,0.04,0.32,1.01,-0.56,0.41,0.13,
1.92,0.04,0.32,1.01,-0.63,0.52,0.34,
1.922,0.05,0.32,1.01,-0.63,0.52,0.34,
1.925,0.06,0.32,1.01,-0.63,0.52,0.34,
1.925,0.06,0.32,1.01,-0.51,0.61,0.47,
1.927,0.08,0.31,1.01,-0.51,0.61,0.47,
1.939,0.09,0.31,1.01,-0.51,0.61,0.47,
1.939,0.09,0.31,1.01,-0.27,0.69,0.45,
1.94,0.10,0.30,1.01,-0.27,0.69,0.45,
1.94,0.12,0.29,1.02,-0.27,0.69,0.45,
1.94,0.12,0.29,1.02,0.00,0.66,0.49,
1.94,0.13,0.27,1.01,0.00,0.66,0.49,
1.941,0.15,0.25,1.02,0.00,0.66,0.49,
1.941,0.15,0.25,1.02,0.30,0.52,0.50,
1.941,0.16,0.24,1.02,0.30,0.52,0.50,
1.951,0.18,0.22,1.02,0.30,0.52,0.50,
1.951,0.18,0.22,1.02,0.57,0.22,0.48,
1.952,0.19,0.19,1.00,0.57,0.22,0.48,
1.952,0.21,0.17,1.00,0.57,0.22,0.48,
1.952,0.21,0.17,1.00,0.89,-0.10,0.51,
1.952,0.23,0.14,0.99,0.89,-0.10,0.51,
1.954,0.26,0.10,0.97,0.89,-0.10,0.51,
1.954,0.26,0.10,0.97,1.18,-0.54,0.34,
1.956,0.29,0.05,0.96,1.18,-0.54,0.34,
1.959,0.30,0.05,0.95,1.18,-0.54,0.34,
1.959,0.30,0.05,0.95,1.62,-1.17,0.12,
1.968,0.31,0.07,0.94,1.62,-1.17,0.12,
1.969,0.30,0.08,0.93,1.62,-1.17,0.12,
1.969,0.30,0.08,0.93,2.09,-1.83,-0.10,
1.97,0.30,0.09,0.92,2.09,-1.83,-0.10,
1.97,0.30,0.11,0.91,2.09,-1.83,-0.10,
1.97,0.30,0.11,0.91,2.18,-1.58,-0.33,
1.971,0.30,0.12,0.91,2.18,-1.58,-0.33,
1.974,0.29,0.14,0.90,2.18,-1.58,-0.33,
1.974,0.29,0.14,0.90,2.08,-1.36,-0.48,
1.984,0.30,0.17,0.90,2.08,-1.36,-0.48,
1.984,0.31,0.20,0.90,2.08,-1.36,-0.48,
1.985,0.31,0.20,0.90,2.03,-1.07,-0.60,
1.985,0.31,0.24,0.92,2.03,-1.07,-0.60,
1.985,0.31,0.27,0.95,2.03,-1.07,-0.60,
1.985,0.31,0.27,0.95,2.08,-0.54,-0.64,
1.986,0.31,0.32,0.98,2.08,-0.54,-0.64,
1.989,0.31,0.37,1.00,2.08,-0.54,-0.64,
1.989,0.31,0.37,1.00,2.11,0.14,-0.28,
1.991,0.30,0.41,1.03,2.11,0.14,-0.28,
1.998,0.29,0.44,1.05,2.11,0.14,-0.28,
1.999,0.29,0.44,1.05,2.10,1.00,0.30,
1.999,0.29,0.47,1.06,2.10,1.00,0.30,
1.999,0.27,0.49,1.07,2.10,1.00,0.30,
2.0,0.27,0.49,1.07,1.96,1.75,0.76,
2.001,0.26,0.51,1.06,1.96,1.75,0.76,
2.003,0.25,0.52,1.05,1.96,1.75,0.76,
2.004,0.25,0.52,1.05,1.79,2.29,0.99,
2.006,0.24,0.52,1.04,1.79,2.29,0.99,
2.009,0.24,0.51,1.02,1.79,2.29,0.99,
2.009,0.24,0.51,1.02,1.60,2.57,0.92,
2.017,0.23,0.50,1.01,1.60,2.57,0.92,
2.018,0.23,0.49,0.99,1.60,2.57,0.92,
2.018,0.23,0.49,0.99,1.48,2.54,0.69,
2.018,0.22,0.47,0.97,1.48,2.54,0.69,
2.018,0.22,0.46,0.95,1.48,2.54,0.69,
2.019,0.22,0.46,0.95,1.41,2.35,0.35,
2.021,0.21,0.44,0.94,1.41,2.35,0.35,
2.023,0.20,0.42,0.93,1.41,2.35,0.35,
2.024,0.20,0.42,0.93,1.35,2.00,-0.01,
2.026,0.20,0.40,0.92,1.35,2.00,-0.01,
2.038,0.20,0.37,0.91,1.35,2.00,-0.01,
2.039,0.20,0.37,0.91,1.27,1.63,-0.29,
2.039,0.19,0.34,0.90,1.27,1.63,-0.29,
2.04,0.18,0.31,0.90,1.27,1.63,-0.29,
2.04,0.18,0.31,0.90,1.30,1.12,-0.49,
2.04,0.17,0.29,0.89,1.30,1.12,-0.49,
2.04,0.16,0.27,0.89,1.30,1.12,-0.49,
2.041,0.16,0.27,0.89,1.22,0.55,-0.57,
2.041,0.15,0.25,0.88,1.22,0.55,-0.57,
2.043,0.13,0.25,0.89,1.22,0.55,-0.57,
2.043,0.13,0.25,0.89,1.09,0.08,-0.68,
2.051,0.12,0.24,0.89,1.09,0.08,-0.68,
2.052,0.11,0.25,0.90,1.09,0.08,-0.68,
2.052,0.11,0.25,0.90,0.94,-0.27,-0.72,
2.052,0.10,0.27,0.91,0.94,-0.27,-0.72,
2.054,0.08,0.29,0.92,0.94,-0.27,-0.72,
2.054,0.08,0.29,0.92,0.80,-0.32,-0.63,
2.055,0.07,0.31,0.94,0.80,-0.32,-0.63,
2.058,0.05,0.34,0.95,0.80,-0.32,-0.63,
2.058,0.05,0.34,0.95,0.62,-0.04,-0.44,
2.069,0.03,0.37,0.96,0.62,-0.04,-0.44,
2.07,0.00,0.40,0.96,0.62,-0.04,-0.44,
2.07,0.00,0.40,0.96,0.46,0.37,-0.14,
2.071,-0.03,0.44,0.97,0.46,0.37,-0.14,
2.071,-0.08,0.47,0.96,0.46,0.37,-0.14,
2.071,-0.08,0.47,0.96,0.11,0.94,0.04,
2.071,-0.12,0.50,0.96,0.11,0.94,0.04,
2.073,-0.17,0.52,0.95,0.11,0.94,0.04,
2.073,-0.17,0.52,0.95,-0.43,1.52,0.11,
2.076,-0.22,0.54,0.93,-0.43,1.52,0.11,
2.083,-0.26,0.55,0.90,-0.43,1.52,0.11,
2.084,-0.26,0.55,0.90,-1.22,2.06,0.02,
2.084,-0.28,0.53,0.87,-1.22,2.06,0.02,
2.084,-0.29,0.51,0.84,-1.22,2.06,0.02,
2.084,-0.29,0.51,0.84,-2.00,2.33,-0.34,
2.086,-0.30,0.48,0.80,-2.00,2.33,-0.34,
2.088,-0.29,0.44,0.76,-2.00,2.33,-0.34,
2.088,-0.29,0.44,0.76,-2.36,2.09,-0.94,
2.091,-0.28,0.40,0.72,-2.36,2.09,-0.94,
2.099,-0.27,0.36,0.69,-2.36,2.09,-0.94,
2.1,-0.27,0.36,0.69,-2.38,1.46,-1.65,
2.1,-0.25,0.32,0.67,-2.38,1.46,-1.65,
2.1,-0.23,0.29,0.64,-2.38,1.46,-1.65,
2.1,-0.23,0.29,0.64,-2.10,0.62,-2.35,
2.101,-0.22,0.26,0.62,-2.10,0.62,-2.35,
2.102,-0.20,0.25,0.61,-2.10,0.62,-2.35,
2.103,-0.20,0.25,0.61,-1.68,-0.17,-2.86,
2.105,-0.19,0.24,0.60,-1.68,-0.17,-2.86,
2.107,-0.18,0.23,0.59,-1.68,-0.17,-2.86,
2.107,-0.18,0.23,0.59,-1.35,-0.66,-3.20,
2.11,-0.17,0.23,0.59,-1.35,-0.66,-3.20,
2.116,-0.17,0.23,0.58,-1.35,-0.66,-3.20,
2.116,-0.17,0.23,0.58,-1.05,-0.90,-3.42,
2.117,-0.17,0.25,0.58,-1.05,-0.90,-3.42,
2.117,-0.17,0.25,0.59,-1.05,-0.90,-3.42,
2.117,-0.17,0.25,0.59,-0.93,-0.91,-3.48,
2.12,-0.17,0.27,0.60,-0.93,-0.91,-3.48,
2.122,-0.16,0.28,0.62,-0.93,-0.91,-3.48,
2.122,-0.16,0.28,0.62,-0.90,-0.75,-3.48,
2.125,-0.15,0.28,0.65,-0.90,-0.75,-3.48,
2.128,-0.14,0.27,0.68,-0.90,-0.75,-3.48,
2.128,-0.14,0.27,0.68,-0.89,-0.52,-3.19,
2.136,-0.12,0.27,0.73,-0.89,-0.52,-3.19,
2.137,-0.11,0.26,0.78,-0.89,-0.52,-3.19,
2.137,-0.11,0.26,0.78,-0.69,-0.51,-2.68,
2.137,-0.09,0.26,0.84,-0.69,-0.51,-2.68,
2.138,-0.08,0.26,0.89,-0.69,-0.51,-2.68,
2.14,-0.08,0.26,0.89,-0.46,-0.60,-1.77,
2.14,-0.06,0.26,0.94,-0.46,-0.60,-1.77,
2.143,-0.04,0.26,0.98,-0.46,-0.60,-1.77,
2.143,-0.04,0.26,0.98,-0.20,-0.64,-0.70,
2.158,-0.03,0.27,1.02,-0.20,-0.64,-0.70,
2.158,-0.02,0.27,1.04,-0.20,-0.64,-0.70,
2.159,-0.02,0.27,1.04,0.08,-0.65,0.21,
2.159,-0.01,0.27,1.07,0.08,-0.65,0.21,
2.159,-0.00,0.28,1.08,0.08,-0.65,0.21,
2.159,-0.00,0.28,1.08,0.34,-0.52,0.90,
2.159,0.01,0.28,1.10,0.34,-0.52,0.90,
2.16,0.02,0.27,1.11,0.34,-0.52,0.90,
2.16,0.02,0.27,1.11,0.51,-0.45,1.32,
2.16,0.02,0.27,1.10,0.51,-0.45,1.32,
2.166,0.02,0.27,1.10,0.51,-0.45,1.32,
2.166,0.02,0.27,1.10,0.68,-0.43,1.57,
2.166,0.03,0.27,1.10,0.68,-0.43,1.57,
2.167,0.02,0.26,1.08,0.68,-0.43,1.57,
2.168,0.02,0.26,1.08,0.76,-0.43,1.55,
2.17,0.02,0.26,1.07,0.76,-0.43,1.55,
2.172,0.02,0.26,1.07,0.78,-0.47,1.42,
2.173,0.01,0.25,1.06,0.78,-0.47,1.42,
2.175,0.00,0.25,1.04,0.78,-0.47,1.42,
2.177,-0.01,0.26,1.04,0.78,-0.47,1.42,
2.177,-0.01,0.26,1.04,0.73,-0.55,1.19,
2.186,-0.03,0.26,1.02,0.73,-0.55,1.19,
2.187,-0.04,0.27,1.02,0.73,-0.55,1.19,
2.187,-0.04,0.27,1.02,0.55,-0.53,0.94,
2.187,-0.06,0.28,1.01,0.55,-0.53,0.94,
2.187,-0.08,0.29,1.01,0.55,-0.53,0.94,
2.187,-0.08,0.29,1.01,0.29,-0.38,0.73,
2.19,-0.09,0.30,1.01,0.29,-0.38,0.73,
2.192,-0.11,0.30,1.01,0.29,-0.38,0.73,
2.192,-0.11,0.30,1.01,-0.02,-0.17,0.64,
2.195,-0.11,0.30,1.01,-0.02,-0.17,0.64,
2.202,-0.11,0.31,1.01,-0.02,-0.17,0.64,
2.202,-0.11,0.31,1.01,-0.26,0.01,0.60,
2.203,-0.11,0.31,1.00,-0.26,0.01,0.60,
2.203,-0.11,0.31,1.01,-0.26,0.01,0.60,
2.203,-0.11,0.31,1.01,-0.34,0.05,0.63,
2.205,-0.11,0.30,1.01,-0.34,0.05,0.63,
2.207,-0.10,0.29,1.01,-0.34,0.05,0.63,
2.208,-0.10,0.29,1.01,-0.31,0.10,0.56,
2.21,-0.09,0.28,1.03,-0.31,0.10,0.56,
2.212,-0.08,0.27,1.04,-0.31,0.10,0.56,
2.212,-0.08,0.27,1.04,-0.23,-0.03,0.64,
2.217,-0.07,0.26,1.05,-0.23,-0.03,0.64,
2.217,-0.07,0.26,1.06,-0.23,-0.03,0.64,
2.218,-0.07,0.26,1.06,-0.06,-0.21,0.81,
2.22,-0.06,0.26,1.07,-0.06,-0.21,0.81,
2.222,-0.06,0.27,1.08,-0.06,-0.21,0.81,
2.222,-0.06,0.27,1.08,0.13,-0.32,1.01,
2.225,-0.07,0.29,1.08,0.13,-0.32,1.01,
2.227,-0.08,0.31,1.09,0.13,-0.32,1.01,
2.227,-0.08,0.31,1.09,0.24,-0.25,1.21,
2.235,-0.10,0.34,1.10,0.24,-0.25,1.21,
2.236,-0.10,0.34,1.13,0.24,-0.25,1.21,
2.236,-0.10,0.34,1.13,0.09,0.09,1.36,
2.236,-0.10,0.34,1.13,0.09,0.09,1.36,
2.236,-0.08,0.31,1.12,0.09,0.09,1.36,
2.237,-0.08,0.31,1.12,-0.11,0.46,1.63,
2.239,-0.07,0.28,1.11,-0.11,0.46,1.63,
2.242,-0.05,0.26,1.09,-0.11,0.46,1.63,
2.242,-0.05,0.26,1.09,-0.02,0.30,1.73,
2.244,-0.05,0.24,1.07,-0.02,0.30,1.73,
2.256,-0.05,0.23,1.05,-0.02,0.30,1.73,
2.257,-0.05,0.23,1.05,0.27,-0.25,1.48,
2.257,-0.06,0.23,1.03,0.27,-0.25,1.48,
2.258,-0.08,0.23,1.02,0.27,-0.25,1.48,
2.258,-0.08,0.23,1.02,0.41,-0.64,1.11,
2.258,-0.10,0.24,1.01,0.41,-0.64,1.11,
2.258,-0.10,0.24,1.01,0.21,-0.68,0.79,
2.258,-0.12,0.25,1.01,0.21,-0.68,0.79,
2.259,-0.14,0.25,1.00,0.21,-0.68,0.79,
2.261,-0.16,0.26,1.00,0.21,-0.68,0.79,
2.262,-0.16,0.26,1.00,-0.14,-0.51,0.62,
2.269,-0.17,0.26,1.00,-0.14,-0.51,0.62,
2.27,-0.19,0.26,0.99,-0.14,-0.51,0.62,
2.27,-0.19,0.26,0.99,-0.49,-0.46,0.53,
2.27,-0.20,0.26,0.98,-0.49,-0.46,0.53,
2.271,-0.20,0.26,0.98,-0.49,-0.46,0.53,
2.271,-0.20,0.26,0.98,-0.77,-0.41,0.51,
2.274,-0.21,0.26,0.97,-0.77,-0.41,0.51,
2.276,-0.21,0.27,0.95,-0.77,-0.41,0.51,
2.277,-0.21,0.27,0.95,-0.94,-0.43,0.37,
2.288,-0.21,0.27,0.94,-0.94,-0.43,0.37,
2.289,-0.21,0.27,0.92,-0.94,-0.43,0.37,
2.289,-0.21,0.27,0.92,-1.02,-0.41,0.13,
2.289,-0.20,0.27,0.91,-1.02,-0.41,0.13,
2.289,-0.20,0.27,0.88,-1.02,-0.41,0.13,
2.29,-0.20,0.27,0.88,-1.00,-0.41,-0.09,
2.29,-0.20,0.28,0.87,-1.00,-0.41,-0.09,
2.292,-0.19,0.29,0.87,-1.00,-0.41,-0.09,
2.292,-0.19,0.29,0.87,-0.88,-0.40,-0.44,
2.294,-0.18,0.30,0.85,-0.88,-0.40,-0.44,
2.302,-0.17,0.31,0.84,-0.88,-0.40,-0.44,
2.303,-0.17,0.31,0.84,-0.75,-0.29,-0.70,
2.303,-0.16,0.31,0.84,-0.75,-0.29,-0.70,
2.303,-0.15,0.32,0.83,-0.75,-0.29,-0.70,
2.304,-0.15,0.32,0.83,-0.55,-0.14,-0.94,
2.306,-0.14,0.32,0.83,-0.55,-0.14,-0.94,
2.306,-0.14,0.32,0.83,-0.36,0.00,-1.05,
2.306,-0.13,0.33,0.83,-0.36,0.00,-1.05,
2.308,-0.12,0.33,0.84,-0.36,0.00,-1.05,
2.31,-0.11,0.33,0.84,-0.36,0.00,-1.05,
2.31,-0.11,0.33,0.84,-0.17,0.08,-1.06,
2.317,-0.10,0.34,0.86,-0.17,0.08,-1.06,
2.318,-0.09,0.34,0.87,-0.17,0.08,-1.06,
2.318,-0.09,0.34,0.87,0.05,0.12,-0.96,
2.318,-0.08,0.34,0.89,0.05,0.12,-0.96,
2.32,-0.08,0.34,0.89,0.05,0.12,-0.96,
2.32,-0.08,0.34,0.89,0.21,0.18,-0.69,
2.323,-0.07,0.33,0.91,0.21,0.18,-0.69,
2.325,-0.07,0.33,0.92,0.21,0.18,-0.69,
2.325,-0.07,0.33,0.92,0.39,0.21,-0.45,
2.327,-0.08,0.33,0.93,0.39,0.21,-0.45,
2.335,-0.08,0.33,0.93,0.43,0.10,-0.22,
2.336,-0.08,0.33,0.94,0.43,0.10,-0.22,
2.336,-0.09,0.34,0.95,0.43,0.10,-0.22,
2.336,-0.10,0.34,0.97,0.43,0.10,-0.22,
2.336,-0.10,0.34,0.97,0.36,0.10,-0.02,
2.337,-0.12,0.36,0.99,0.36,0.10,-0.02,
2.34,-0.13,0.36,1.00,0.36,0.10,-0.02,
2.34,-0.13,0.36,1.00,0.20,0.15,0.27,
2.342,-0.14,0.36,1.02,0.20,0.15,0.27,
2.353,-0.16,0.35,1.02,0.20,0.15,0.27,
2.354,-0.16,0.35,1.02,-0.05,0.34,0.57,
2.354,-0.18,0.33,1.03,-0.05,0.34,0.57,
2.354,-0.20,0.32,1.03,-0.05,0.34,0.57,
2.354,-0.20,0.32,1.03,-0.30,0.26,0.83,
2.355,-0.21,0.31,1.03,-0.30,0.26,0.83,
2.355,-0.22,0.29,1.03,-0.30,0.26,0.83,
2.355,-0.22,0.29,1.03,-0.65,-0.01,0.96,
2.358,-0.23,0.29,1.03,-0.65,-0.01,0.96,
2.36,-0.24,0.28,1.03,-0.65,-0.01,0.96,
2.36,-0.24,0.28,1.03,-0.91,-0.27,0.98,
2.375,-0.25,0.27,1.01,-0.91,-0.27,0.98,
2.377,-0.24,0.26,0.96,-0.91,-0.27,0.98,
2.377,-0.24,0.26,0.96,-1.10,-0.48,0.95,
2.377,-0.25,0.26,0.91,-1.10,-0.48,0.95,
2.377,-0.26,0.27,0.87,-1.10,-0.48,0.95,
2.378,-0.26,0.27,0.87,-1.16,-0.67,0.54,
2.378,-0.26,0.28,0.84,-1.16,-0.67,0.54,
2.378,-0.26,0.29,0.82,-1.16,-0.67,0.54,
2.378,-0.26,0.29,0.82,-1.19,-0.67,-0.38,
2.379,-0.26,0.29,0.80,-1.19,-0.67,-0.38,
2.381,-0.25,0.29,0.78,-1.19,-0.67,-0.38,
2.382,-0.25,0.29,0.78,-1.24,-0.50,-1.02,
2.382,-0.24,0.29,0.78,-1.24,-0.50,-1.02,
2.385,-0.23,0.30,0.79,-1.24,-0.50,-1.02,
2.386,-0.23,0.30,0.79,-1.16,-0.47,-1.39,
2.387,-0.21,0.31,0.81,-1.16,-0.47,-1.39,
2.389,-0.18,0.33,0.84,-1.16,-0.47,-1.39,
2.39,-0.18,0.33,0.84,-0.93,-0.37,-1.42,
2.393,-0.17,0.35,0.88,-0.93,-0.37,-1.42,
2.398,-0.15,0.37,0.91,-0.93,-0.37,-1.42,
2.398,-0.15,0.37,0.91,-0.53,-0.11,-1.01,
2.398,-0.12,0.38,0.93,-0.53,-0.11,-1.01,
2.399,-0.12,0.38,0.95,-0.53,-0.11,-1.01,
2.4,-0.12,0.38,0.95,-0.10,0.30,-0.36,
2.402,-0.11,0.39,0.96,-0.10,0.30,-0.36,
2.405,-0.11,0.39,0.97,-0.10,0.30,-0.36,
2.405,-0.11,0.39,0.97,0.26,0.55,0.11,
2.407,-0.11,0.39,0.97,0.26,0.55,0.11,
2.409,-0.10,0.39,0.96,0.26,0.55,0.11,
2.409,-0.10,0.39,0.96,0.35,0.63,0.33,
2.413,-0.11,0.38,0.95,0.35,0.63,0.33,
2.42,-0.11,0.38,0.95,0.35,0.63,0.33,
2.421,-0.11,0.38,0.95,0.45,0.64,0.33,
2.421,-0.13,0.37,0.95,0.45,0.64,0.33,
2.421,-0.13,0.37,0.95,0.45,0.64,0.33,
2.422,-0.13,0.37,0.95,0.45,0.58,0.15,
2.422,-0.15,0.37,0.96,0.45,0.58,0.15,
2.424,-0.16,0.37,0.96,0.45,0.58,0.15,
2.424,-0.16,0.37,0.96,0.26,0.51,0.15,
2.427,-0.18,0.37,0.97,0.26,0.51,0.15,
2.429,-0.20,0.36,0.98,0.26,0.51,0.15,
2.434,-0.20,0.36,0.98,0.02,0.46,0.27,
2.435,-0.21,0.36,0.99,0.02,0.46,0.27,
2.435,-0.23,0.35,0.99,0.02,0.46,0.27,
2.435,-0.23,0.35,0.99,-0.33,0.41,0.45,
2.437,-0.24,0.34,0.99,-0.33,0.41,0.45,
2.439,-0.26,0.32,0.99,-0.33,0.41,0.45,
2.439,-0.26,0.32,0.99,-0.63,0.34,0.54,
2.442,-0.27,0.31,0.98,-0.63,0.34,0.54,
2.445,-0.27,0.30,0.97,-0.63,0.34,0.54,
2.446,-0.27,0.30,0.97,-0.96,0.05,0.54,
2.453,-0.26,0.30,0.96,-0.96,0.05,0.54,
2.453,-0.24,0.30,0.95,-0.96,0.05,0.54,
2.454,-0.24,0.30,0.95,-1.15,-0.20,0.47,
2.454,-0.22,0.30,0.94,-1.15,-0.20,0.47,
2.454,-0.21,0.31,0.93,-1.15,-0.20,0.47,
2.454,-0.21,0.31,0.93,-1.00,-0.28,0.20,
2.456,-0.19,0.32,0.92,-1.00,-0.28,0.20,
2.459,-0.18,0.31,0.91,-1.00,-0.28,0.20,
2.459,-0.18,0.31,0.91,-0.71,-0.20,0.02,
2.461,-0.18,0.30,0.89,-0.71,-0.20,0.02,
2.475,-0.17,0.30,0.87,-0.71,-0.20,0.02,
2.475,-0.17,0.30,0.87,-0.51,-0.21,-0.16,
2.476,-0.17,0.31,0.87,-0.51,-0.21,-0.16,
2.479,-0.18,0.31,0.87,-0.51,-0.21,-0.16,
2.479,-0.18,0.31,0.87,-0.43,-0.30,-0.47,
2.479,-0.18,0.32,0.86,-0.43,-0.30,-0.47,
2.479,-0.18,0.32,0.85,-0.43,-0.30,-0.47,
2.479,-0.18,0.32,0.85,-0.48,-0.31,-0.63,
2.48,-0.18,0.31,0.85,-0.48,-0.31,-0.63,
2.48,-0.18,0.32,0.85,-0.48,-0.31,-0.63,
2.48,-0.18,0.32,0.85,-0.62,-0.23,-0.74,
