
time,gFx,gFy,gFz,ax,ay,az,
0.002,-0.05,0.17,0.97,-0.38,-0.04,0.14,
0.002,-0.04,0.18,0.95,-0.38,-0.04,0.14,
0.003,-0.04,0.18,0.95,-0.35,-0.03,-0.09,
0.003,-0.03,0.18,0.94,-0.35,-0.03,-0.09,
0.003,-0.02,0.18,0.94,-0.35,-0.03,-0.09,
0.003,-0.02,0.18,0.94,-0.32,-0.01,-0.29,
0.007,-0.01,0.19,0.94,-0.32,-0.01,-0.29,
0.008,-0.00,0.19,0.92,-0.32,-0.01,-0.29,
0.008,-0.00,0.19,0.92,-0.09,0.05,-0.49,
0.009,0.01,0.19,0.93,-0.09,0.05,-0.49,
0.012,0.02,0.19,0.92,-0.09,0.05,-0.49,
0.012,0.02,0.19,0.92,0.08,0.11,-0.56,
0.014,0.03,0.20,0.92,0.08,0.11,-0.56,
0.017,0.04,0.20,0.92,0.08,0.11,-0.56,
0.017,0.04,0.20,0.92,0.29,0.13,-0.62,
0.02,0.04,0.20,0.92,0.29,0.13,-0.62,
0.023,0.05,0.20,0.92,0.29,0.13,-0.62,
0.023,0.05,0.20,0.92,0.47,0.17,-0.66,
0.025,0.06,0.20,0.92,0.47,0.17,-0.66,
0.028,0.06,0.20,0.92,0.59,0.18,-0.61,
0.028,0.06,0.20,0.93,0.59,0.18,-0.61,
0.029,0.07,0.20,0.93,0.59,0.18,-0.61,
0.032,0.07,0.20,0.94,0.59,0.18,-0.61,
0.032,0.07,0.20,0.94,0.72,0.16,-0.59,
0.034,0.08,0.20,0.94,0.72,0.16,-0.59,
0.037,0.08,0.20,0.95,0.72,0.16,-0.59,
0.037,0.08,0.20,0.95,0.82,0.17,-0.49,
0.041,0.08,0.20,0.95,0.82,0.17,-0.49,
0.042,0.09,0.19,0.95,0.82,0.17,-0.49,
0.042,0.09,0.19,0.95,0.88,0.17,-0.36,
0.044,0.08,0.20,0.96,0.88,0.17,-0.36,
0.047,0.08,0.19,0.96,0.88,0.17,-0.36,
0.047,0.08,0.19,0.96,0.92,0.13,-0.32,
0.048,0.08,0.18,0.96,0.92,0.13,-0.32,
0.052,0.08,0.18,0.96,0.88,0.07,-0.25,
0.052,0.08,0.18,0.97,0.88,0.07,-0.25,
0.054,0.08,0.18,0.98,0.88,0.07,-0.25,
0.056,0.09,0.17,0.98,0.88,0.07,-0.25,
0.057,0.09,0.17,0.98,0.87,-0.04,-0.15,
0.058,0.08,0.17,0.99,0.87,-0.04,-0.15,
0.061,0.09,0.17,1.00,0.87,-0.04,-0.15,
0.062,0.09,0.17,1.00,0.87,-0.09,-0.05,
0.064,0.09,0.17,1.00,0.87,-0.09,-0.05,
0.066,0.09,0.17,1.01,0.87,-0.09,-0.05,
0.067,0.09,0.17,1.01,0.87,-0.10,0.11,
0.069,0.10,0.18,1.02,0.87,-0.10,0.11,
0.071,0.10,0.18,1.02,0.87,-0.10,0.11,
0.072,0.10,0.18,1.02,0.94,-0.08,0.22,
0.074,0.10,0.17,1.03,0.94,-0.08,0.22,
0.077,0.10,0.17,1.03,1.00,-0.03,0.35,
0.077,0.10,0.17,1.04,1.00,-0.03,0.35,
0.078,0.11,0.18,1.04,1.00,-0.03,0.35,
0.081,0.10,0.17,1.05,1.00,-0.03,0.35,
0.082,0.10,0.17,1.05,1.02,-0.06,0.53,
0.084,0.11,0.18,1.05,1.02,-0.06,0.53,
0.087,0.10,0.17,1.05,1.02,-0.06,0.53,
0.087,0.10,0.17,1.05,1.04,-0.04,0.59,
0.089,0.10,0.17,1.06,1.04,-0.04,0.59,
0.092,0.10,0.17,1.05,1.04,-0.04,0.59,
0.092,0.10,0.17,1.05,1.03,-0.04,0.66,
0.094,0.10,0.17,1.05,1.03,-0.04,0.66,
0.096,0.10,0.17,1.06,1.03,-0.04,0.66,
0.097,0.10,0.17,1.06,1.01,-0.07,0.69,
0.098,0.10,0.17,1.05,1.01,-0.07,0.69,
0.102,0.10,0.17,1.05,1.00,-0.05,0.66,
0.102,0.10,0.17,1.04,1.00,-0.05,0.66,
0.104,0.10,0.17,1.04,1.00,-0.05,0.66,
0.107,0.09,0.16,1.04,1.00,-0.05,0.66,
0.107,0.09,0.16,1.04,0.96,-0.10,0.58,
0.109,0.08,0.16,1.03,0.96,-0.10,0.58,
0.111,0.09,0.16,1.03,0.96,-0.10,0.58,
0.111,0.09,0.16,1.03,0.91,-0.12,0.52,
0.113,0.09,0.16,1.02,0.91,-0.12,0.52,
0.116,0.08,0.15,1.01,0.91,-0.12,0.52,
0.117,0.08,0.15,1.01,0.82,-0.17,0.43,
0.119,0.08,0.16,1.01,0.82,-0.17,0.43,
0.121,0.08,0.15,1.00,0.82,-0.17,0.43,
0.122,0.08,0.15,1.00,0.81,-0.25,0.29,
0.124,0.08,0.15,0.99,0.81,-0.25,0.29,
0.126,0.08,0.15,0.99,0.72,-0.27,0.16,
0.127,0.08,0.15,0.98,0.72,-0.27,0.16,
0.128,0.07,0.14,0.98,0.72,-0.27,0.16,
0.131,0.07,0.14,0.97,0.72,-0.27,0.16,
0.131,0.07,0.14,0.97,0.73,-0.34,-0.02,
0.134,0.07,0.14,0.97,0.73,-0.34,-0.02,
0.137,0.07,0.14,0.96,0.73,-0.34,-0.02,
0.137,0.07,0.14,0.96,0.69,-0.40,-0.14,
0.138,0.08,0.14,0.95,0.69,-0.40,-0.14,
0.141,0.08,0.14,0.95,0.69,-0.40,-0.14,
0.142,0.08,0.14,0.95,0.69,-0.40,-0.22,
0.144,0.08,0.14,0.95,0.69,-0.40,-0.22,
0.146,0.09,0.13,0.95,0.69,-0.40,-0.22,
0.146,0.09,0.13,0.95,0.75,-0.42,-0.32,
0.149,0.10,0.13,0.95,0.75,-0.42,-0.32,
0.151,0.10,0.13,0.95,0.82,-0.46,-0.34,
0.152,0.11,0.13,0.95,0.82,-0.46,-0.34,
0.153,0.11,0.13,0.96,0.82,-0.46,-0.34,
0.162,0.12,0.12,0.97,0.82,-0.46,-0.34,
0.163,0.12,0.12,0.97,1.01,-0.52,-0.31,
0.164,0.14,0.12,0.97,1.01,-0.52,-0.31,
0.168,0.14,0.12,0.97,1.12,-0.56,-0.21,
0.168,0.14,0.12,0.97,1.12,-0.56,-0.21,
0.169,0.15,0.11,0.98,1.12,-0.56,-0.21,
0.169,0.16,0.11,0.98,1.12,-0.56,-0.21,
0.169,0.16,0.11,0.98,1.32,-0.63,-0.16,
0.17,0.17,0.11,0.98,1.32,-0.63,-0.16,
0.17,0.17,0.11,0.98,1.50,-0.72,-0.05,
0.17,0.18,0.11,0.98,1.50,-0.72,-0.05,
0.178,0.18,0.11,0.98,1.50,-0.72,-0.05,
0.178,0.18,0.11,0.98,1.66,-0.74,-0.05,
0.179,0.19,0.11,0.98,1.66,-0.74,-0.05,
0.179,0.19,0.11,0.97,1.66,-0.74,-0.05,
0.18,0.19,0.11,0.97,1.66,-0.74,-0.05,
0.18,0.19,0.11,0.97,1.77,-0.70,-0.07,
0.182,0.19,0.11,0.96,1.77,-0.70,-0.07,
0.185,0.18,0.11,0.96,1.77,-0.70,-0.07,
0.185,0.18,0.11,0.96,1.78,-0.71,-0.14,
0.187,0.18,0.11,0.95,1.78,-0.71,-0.14,
0.19,0.17,0.12,0.94,1.78,-0.71,-0.14,
0.19,0.17,0.12,0.94,1.76,-0.70,-0.24,
0.192,0.17,0.12,0.93,1.76,-0.70,-0.24,
0.197,0.16,0.12,0.92,1.76,-0.70,-0.24,
0.197,0.16,0.12,0.92,1.63,-0.70,-0.38,
0.197,0.16,0.13,0.91,1.63,-0.70,-0.38,
0.2,0.16,0.13,0.91,1.56,-0.63,-0.54,
0.2,0.15,0.13,0.90,1.56,-0.63,-0.54,
0.202,0.15,0.13,0.90,1.56,-0.63,-0.54,
0.207,0.14,0.13,0.89,1.56,-0.63,-0.54,
0.207,0.14,0.13,0.89,1.46,-0.56,-0.76,
0.207,0.14,0.13,0.88,1.46,-0.56,-0.76,
0.209,0.14,0.14,0.88,1.46,-0.56,-0.76,
0.21,0.14,0.14,0.88,1.34,-0.54,-0.88,
0.212,0.14,0.14,0.87,1.34,-0.54,-0.88,
0.214,0.14,0.14,0.87,1.34,-0.54,-0.88,
0.215,0.14,0.14,0.87,1.28,-0.51,-1.00,
0.217,0.14,0.14,0.86,1.28,-0.51,-1.00,
0.219,0.14,0.15,0.86,1.28,-0.51,-1.00,
0.22,0.14,0.15,0.86,1.26,-0.47,-1.11,
0.222,0.14,0.15,0.85,1.26,-0.47,-1.11,
0.227,0.15,0.15,0.85,1.26,-0.47,-1.11,
0.228,0.15,0.15,0.85,1.30,-0.44,-1.21,
0.228,0.15,0.15,0.84,1.30,-0.44,-1.21,
0.23,0.15,0.15,0.83,1.30,-0.44,-1.21,
0.23,0.15,0.15,0.83,1.32,-0.41,-1.28,
0.231,0.15,0.15,0.83,1.32,-0.41,-1.28,
0.234,0.15,0.16,0.83,1.32,-0.41,-1.28,
0.234,0.15,0.16,0.83,1.35,-0.40,-1.39,
0.237,0.14,0.16,0.83,1.35,-0.40,-1.39,
0.24,0.16,0.16,0.82,1.35,-0.40,-1.39,
0.24,0.16,0.16,0.82,1.40,-0.35,-1.46,
0.241,0.15,0.15,0.83,1.40,-0.35,-1.46,
0.244,0.15,0.16,0.82,1.40,-0.35,-1.46,
0.244,0.15,0.16,0.82,1.39,-0.35,-1.51,
0.247,0.15,0.15,0.82,1.39,-0.35,-1.51,
0.249,0.15,0.15,0.82,1.38,-0.38,-1.50,
0.249,0.15,0.15,0.82,1.38,-0.38,-1.50,
0.251,0.15,0.14,0.82,1.38,-0.38,-1.50,
0.254,0.14,0.14,0.81,1.38,-0.38,-1.50,
0.254,0.14,0.14,0.81,1.39,-0.48,-1.53,
0.257,0.14,0.13,0.81,1.39,-0.48,-1.53,
0.259,0.13,0.12,0.81,1.39,-0.48,-1.53,
0.259,0.13,0.12,0.81,1.36,-0.56,-1.56,
0.261,0.14,0.11,0.81,1.36,-0.56,-1.56,
0.264,0.14,0.10,0.80,1.36,-0.56,-1.56,
0.264,0.14,0.10,0.80,1.29,-0.73,-1.61,
0.266,0.14,0.10,0.79,1.29,-0.73,-1.61,
0.269,0.15,0.10,0.78,1.29,-0.73,-1.61,
0.269,0.15,0.10,0.78,1.32,-0.89,-1.63,
0.271,0.15,0.11,0.78,1.32,-0.89,-1.63,
0.277,0.15,0.11,0.78,1.38,-0.96,-1.83,
0.278,0.16,0.10,0.77,1.38,-0.96,-1.83,
0.278,0.16,0.10,0.77,1.38,-0.96,-1.83,
0.279,0.17,0.10,0.76,1.38,-0.96,-1.83,
0.279,0.17,0.10,0.76,1.53,-0.94,-1.93,
0.281,0.17,0.10,0.75,1.53,-0.94,-1.93,
0.284,0.17,0.10,0.75,1.53,-0.94,-1.93,
0.284,0.17,0.10,0.75,1.63,-0.99,-2.03,
0.286,0.18,0.10,0.74,1.63,-0.99,-2.03,
0.29,0.18,0.10,0.73,1.63,-0.99,-2.03,
0.291,0.18,0.10,0.73,1.73,-1.01,-2.19,
0.291,0.18,0.10,0.73,1.73,-1.01,-2.19,
0.293,0.18,0.10,0.72,1.73,-1.01,-2.19,
0.294,0.18,0.10,0.72,1.80,-1.03,-2.31,
0.297,0.18,0.10,0.71,1.80,-1.03,-2.31,
0.298,0.18,0.10,0.71,1.85,-1.07,-2.40,
0.299,0.18,0.09,0.72,1.85,-1.07,-2.40,
0.301,0.18,0.09,0.71,1.85,-1.07,-2.40,
0.304,0.19,0.09,0.71,1.85,-1.07,-2.40,
0.304,0.19,0.09,0.71,1.86,-1.11,-2.46,
0.309,0.18,0.08,0.72,1.86,-1.11,-2.46,
0.312,0.18,0.07,0.72,1.86,-1.11,-2.46,
0.312,0.18,0.07,0.72,1.91,-1.18,-2.48,
0.312,0.18,0.07,0.73,1.91,-1.18,-2.48,
0.313,0.17,0.07,0.73,1.91,-1.18,-2.48,
0.314,0.17,0.07,0.73,1.88,-1.27,-2.42,
0.316,0.16,0.06,0.74,1.88,-1.27,-2.42,
0.321,0.15,0.06,0.75,1.88,-1.27,-2.42,
0.321,0.15,0.06,0.75,1.80,-1.34,-2.31,
0.321,0.14,0.06,0.75,1.80,-1.34,-2.31,
0.327,0.14,0.06,0.75,1.61,-1.39,-2.13,
0.33,0.13,0.06,0.76,1.61,-1.39,-2.13,
0.331,0.12,0.06,0.77,1.61,-1.39,-2.13,
0.331,0.11,0.06,0.78,1.61,-1.39,-2.13,
0.331,0.11,0.06,0.78,1.43,-1.43,-2.01,
0.332,0.11,0.06,0.79,1.43,-1.43,-2.01,
0.333,0.10,0.06,0.79,1.43,-1.43,-2.01,
0.334,0.10,0.06,0.79,1.23,-1.40,-1.86,
0.336,0.09,0.06,0.79,1.23,-1.40,-1.86,
0.338,0.08,0.07,0.78,1.23,-1.40,-1.86,
0.339,0.08,0.07,0.78,1.10,-1.36,-1.73,
0.341,0.09,0.08,0.79,1.10,-1.36,-1.73,
0.343,0.08,0.08,0.79,1.10,-1.36,-1.73,
0.343,0.08,0.08,0.79,0.97,-1.29,-1.73,
0.346,0.09,0.09,0.78,0.97,-1.29,-1.73,
0.349,0.09,0.09,0.78,0.94,-1.15,-1.67,
0.349,0.09,0.11,0.78,0.94,-1.15,-1.67,
0.351,0.08,0.11,0.78,0.94,-1.15,-1.67,
0.353,0.07,0.12,0.77,0.94,-1.15,-1.67,
0.354,0.07,0.12,0.77,0.98,-0.94,-1.76,
0.356,0.07,0.12,0.77,0.98,-0.94,-1.76,
0.358,0.07,0.13,0.76,0.98,-0.94,-1.76,
0.358,0.07,0.13,0.76,0.90,-0.76,-1.83,
0.36,0.06,0.13,0.75,0.90,-0.76,-1.83,
0.364,0.05,0.14,0.76,0.90,-0.76,-1.83,
0.364,0.05,0.14,0.76,0.82,-0.66,-1.94,
0.365,0.05,0.13,0.75,0.82,-0.66,-1.94,
0.369,0.03,0.14,0.74,0.82,-0.66,-1.94,
0.369,0.03,0.14,0.74,0.68,-0.59,-2.00,
0.371,0.02,0.14,0.74,0.68,-0.59,-2.00,
0.373,0.02,0.14,0.74,0.55,-0.58,-2.04,
0.373,0.01,0.14,0.74,0.55,-0.58,-2.04,
0.379,-0.01,0.14,0.74,0.55,-0.58,-2.04,
0.379,-0.03,0.14,0.74,0.55,-0.58,-2.04,
0.38,-0.03,0.14,0.74,0.31,-0.53,-2.14,
0.38,-0.04,0.15,0.74,0.31,-0.53,-2.14,
0.383,-0.06,0.14,0.74,0.31,-0.53,-2.14,
0.383,-0.06,0.14,0.74,0.02,-0.52,-2.12,
0.385,-0.07,0.14,0.75,0.02,-0.52,-2.12,
0.388,-0.09,0.14,0.75,0.02,-0.52,-2.12,
0.389,-0.09,0.14,0.75,-0.26,-0.47,-2.13,
0.391,-0.10,0.14,0.76,-0.26,-0.47,-2.13,
0.393,-0.11,0.14,0.77,-0.26,-0.47,-2.13,
0.393,-0.11,0.14,0.77,-0.51,-0.50,-2.01,
0.395,-0.12,0.14,0.79,-0.51,-0.50,-2.01,
0.399,-0.12,0.14,0.79,-0.73,-0.50,-1.87,
0.399,-0.13,0.14,0.79,-0.73,-0.50,-1.87,
0.4,-0.14,0.13,0.79,-0.73,-0.50,-1.87,
0.403,-0.14,0.13,0.79,-0.73,-0.50,-1.87,
0.404,-0.14,0.13,0.79,-0.91,-0.52,-1.65,
0.405,-0.13,0.14,0.79,-0.91,-0.52,-1.65,
0.408,-0.14,0.14,0.80,-0.91,-0.52,-1.65,
0.408,-0.14,0.14,0.80,-1.02,-0.55,-1.59,
0.41,-0.14,0.14,0.81,-1.02,-0.55,-1.59,
0.413,-0.14,0.14,0.81,-0.98,-0.50,-1.53,
0.413,-0.12,0.14,0.80,-0.98,-0.50,-1.53,
0.415,-0.11,0.15,0.79,-0.98,-0.50,-1.53,
0.418,-0.10,0.15,0.79,-0.98,-0.50,-1.53,
0.418,-0.10,0.15,0.79,-0.88,-0.49,-1.44,
0.42,-0.08,0.16,0.78,-0.88,-0.49,-1.44,
0.425,-0.08,0.16,0.78,-0.60,-0.40,-1.61,
0.426,-0.07,0.17,0.77,-0.60,-0.40,-1.61,
0.426,-0.05,0.17,0.76,-0.60,-0.40,-1.61,
0.427,-0.04,0.18,0.74,-0.60,-0.40,-1.61,
0.428,-0.04,0.18,0.74,-0.29,-0.29,-1.71,
0.43,-0.03,0.19,0.74,-0.29,-0.29,-1.71,
0.433,-0.03,0.20,0.72,-0.29,-0.29,-1.71,
0.433,-0.03,0.20,0.72,0.00,-0.14,-1.96,
0.435,-0.02,0.21,0.71,0.00,-0.14,-1.96,
0.438,-0.03,0.21,0.69,0.00,-0.14,-1.96,
0.438,-0.03,0.21,0.69,0.15,-0.01,-2.17,
0.442,-0.03,0.22,0.67,0.15,-0.01,-2.17,
0.443,-0.04,0.22,0.65,0.15,-0.01,-2.17,
0.443,-0.04,0.22,0.65,0.25,0.14,-2.45,
0.445,-0.06,0.22,0.63,0.25,0.14,-2.45,
0.448,-0.06,0.22,0.63,0.15,0.23,-2.83,
0.448,-0.08,0.22,0.61,0.15,0.23,-2.83,
0.45,-0.10,0.22,0.60,0.15,0.23,-2.83,
0.453,-0.13,0.21,0.57,0.15,0.23,-2.83,
0.453,-0.13,0.21,0.57,-0.14,0.21,-3.16,
0.455,-0.16,0.20,0.55,-0.14,0.21,-3.16,
0.459,-0.18,0.19,0.53,-0.14,0.21,-3.16,
0.46,-0.18,0.19,0.53,-0.56,0.08,-3.54,
0.46,-0.21,0.18,0.51,-0.56,0.08,-3.54,
0.462,-0.24,0.17,0.51,-0.56,0.08,-3.54,
0.462,-0.24,0.17,0.51,-1.05,-0.14,-3.92,
0.464,-0.25,0.16,0.50,-1.05,-0.14,-3.92,
0.467,-0.25,0.16,0.50,-1.52,-0.31,-4.22,
0.468,-0.28,0.15,0.48,-1.52,-0.31,-4.22,
0.469,-0.30,0.14,0.48,-1.52,-0.31,-4.22,
0.472,-0.30,0.14,0.48,-1.90,-0.49,-4.38,
0.472,-0.31,0.14,0.48,-1.90,-0.49,-4.38,
0.475,-0.33,0.14,0.48,-1.90,-0.49,-4.38,
0.479,-0.35,0.13,0.48,-1.90,-0.49,-4.38,
0.479,-0.35,0.13,0.48,-2.23,-0.62,-4.48,
0.479,-0.36,0.13,0.49,-2.23,-0.62,-4.48,
0.482,-0.37,0.13,0.50,-2.23,-0.62,-4.48,
0.482,-0.37,0.13,0.50,-2.56,-0.63,-4.44,
0.485,-0.38,0.12,0.52,-2.56,-0.63,-4.44,
0.487,-0.40,0.12,0.54,-2.56,-0.63,-4.44,
0.487,-0.40,0.12,0.54,-2.77,-0.66,-4.32,
0.49,-0.41,0.11,0.56,-2.77,-0.66,-4.32,
0.497,-0.41,0.11,0.56,-3.00,-0.70,-3.95,
0.498,-0.41,0.11,0.58,-3.00,-0.70,-3.95,
0.498,-0.41,0.10,0.62,-3.00,-0.70,-3.95,
0.501,-0.41,0.10,0.62,-3.17,-0.74,-3.54,
0.501,-0.41,0.10,0.65,-3.17,-0.74,-3.54,
0.501,-0.40,0.09,0.68,-3.17,-0.74,-3.54,
0.502,-0.39,0.09,0.72,-3.17,-0.74,-3.54,
0.502,-0.39,0.09,0.72,-3.20,-0.79,-2.91,
0.504,-0.37,0.09,0.75,-3.20,-0.79,-2.91,
0.507,-0.35,0.09,0.78,-3.20,-0.79,-2.91,
0.508,-0.35,0.09,0.78,-3.03,-0.84,-2.30,
0.511,-0.33,0.09,0.81,-3.03,-0.84,-2.30,
0.511,-0.30,0.10,0.84,-3.03,-0.84,-2.30,
0.512,-0.30,0.10,0.84,-2.72,-0.75,-1.71,
0.514,-0.27,0.11,0.86,-2.72,-0.75,-1.71,
0.517,-0.24,0.11,0.89,-2.72,-0.75,-1.71,
0.517,-0.24,0.11,0.89,-2.26,-0.62,-1.11,
0.518,-0.22,0.11,0.90,-2.26,-0.62,-1.11,
0.521,-0.22,0.11,0.90,-1.70,-0.41,-0.62,
0.522,-0.20,0.12,0.92,-1.70,-0.41,-0.62,
0.525,-0.17,0.12,0.92,-1.70,-0.41,-0.62,
0.526,-0.16,0.13,0.94,-1.70,-0.41,-0.62,
0.527,-0.16,0.13,0.94,-1.25,-0.23,-0.27,
0.528,-0.15,0.13,0.95,-1.25,-0.23,-0.27,
0.531,-0.13,0.13,0.95,-1.25,-0.23,-0.27,
0.531,-0.13,0.13,0.95,-0.88,-0.09,-0.09,
0.533,-0.13,0.12,0.95,-0.88,-0.09,-0.09,
0.537,-0.13,0.12,0.95,-0.88,-0.09,-0.09,
0.538,-0.13,0.12,0.95,-0.64,-0.01,0.07,
0.538,-0.14,0.11,0.95,-0.64,-0.01,0.07,
0.542,-0.14,0.11,0.95,-0.58,-0.02,0.07,
0.543,-0.15,0.10,0.94,-0.58,-0.02,0.07,
0.544,-0.16,0.09,0.94,-0.58,-0.02,0.07,
0.546,-0.16,0.09,0.94,-0.71,-0.13,-0.01,
0.547,-0.17,0.08,0.93,-0.71,-0.13,-0.01,
0.548,-0.19,0.07,0.92,-0.71,-0.13,-0.01,
0.551,-0.21,0.06,0.92,-0.71,-0.13,-0.01,
0.551,-0.21,0.06,0.92,-0.94,-0.25,-0.13,
0.553,-0.22,0.05,0.92,-0.94,-0.25,-0.13,
0.556,-0.23,0.04,0.92,-0.94,-0.25,-0.13,
0.557,-0.23,0.04,0.92,-1.27,-0.39,-0.24,
0.562,-0.24,0.04,0.92,-1.27,-0.39,-0.24,
0.563,-0.25,0.03,0.92,-1.27,-0.39,-0.24,
0.563,-0.25,0.03,0.92,-1.56,-0.53,-0.28,
0.564,-0.26,0.02,0.93,-1.56,-0.53,-0.28,
0.566,-0.27,0.01,0.93,-1.56,-0.53,-0.28,
0.567,-0.27,0.01,0.93,-1.81,-0.58,-0.28,
0.569,-0.29,0.01,0.94,-1.81,-0.58,-0.28,
0.572,-0.29,0.01,0.94,-2.01,-0.69,-0.14,
0.572,-0.30,0.01,0.95,-2.01,-0.69,-0.14,
0.574,-0.31,0.01,0.96,-2.01,-0.69,-0.14,
0.576,-0.32,0.00,0.97,-2.01,-0.69,-0.14,
0.576,-0.32,0.00,0.97,-2.27,-0.71,-0.02,
0.578,-0.32,-0.00,0.98,-2.27,-0.71,-0.02,
0.582,-0.33,-0.01,0.99,-2.27,-0.71,-0.02,
0.582,-0.33,-0.01,0.99,-2.48,-0.75,0.17,
0.583,-0.33,-0.01,0.99,-2.48,-0.75,0.17,
0.587,-0.33,-0.01,1.00,-2.48,-0.75,0.17,
0.587,-0.33,-0.01,1.00,-2.59,-0.76,0.35,
0.589,-0.33,-0.01,1.01,-2.59,-0.76,0.35,
0.596,-0.32,-0.01,1.01,-2.59,-0.76,0.35,
0.597,-0.32,-0.01,1.01,-2.64,-0.76,0.48,
0.597,-0.31,-0.01,1.01,-2.64,-0.76,0.48,
0.597,-0.31,-0.01,1.01,-2.56,-0.75,0.60,
0.597,-0.30,-0.00,1.00,-2.56,-0.75,0.60,
0.598,-0.29,0.00,1.00,-2.56,-0.75,0.60,
0.601,-0.29,0.00,1.00,-2.42,-0.69,0.54,
0.601,-0.28,0.01,0.99,-2.42,-0.69,0.54,
0.603,-0.28,0.01,0.98,-2.42,-0.69,0.54,
0.606,-0.27,0.01,0.97,-2.42,-0.69,0.54,
0.607,-0.27,0.01,0.97,-2.23,-0.58,0.43,
0.609,-0.26,-0.00,0.95,-2.23,-0.58,0.43,
0.61,-0.25,-0.02,0.93,-2.23,-0.58,0.43,
0.61,-0.25,-0.02,0.93,-2.08,-0.54,0.23,
0.613,-0.25,-0.03,0.92,-2.08,-0.54,0.23,
0.615,-0.24,-0.05,0.90,-2.08,-0.54,0.23,
0.616,-0.24,-0.05,0.90,-1.92,-0.71,-0.12,
0.617,-0.24,-0.07,0.88,-1.92,-0.71,-0.12,
0.62,-0.24,-0.07,0.88,-1.87,-1.02,-0.41,
0.62,-0.24,-0.09,0.86,-1.87,-1.02,-0.41,
0.622,-0.25,-0.10,0.85,-1.87,-1.02,-0.41,
0.626,-0.24,-0.11,0.84,-1.87,-1.02,-0.41,
0.627,-0.24,-0.11,0.84,-1.78,-1.39,-0.78,
0.628,-0.25,-0.12,0.82,-1.78,-1.39,-0.78,
0.63,-0.25,-0.13,0.81,-1.78,-1.39,-0.78,
0.631,-0.25,-0.13,0.81,-1.84,-1.64,-1.05,
0.633,-0.25,-0.12,0.80,-1.84,-1.64,-1.05,
0.635,-0.24,-0.11,0.78,-1.84,-1.64,-1.05,
0.635,-0.24,-0.11,0.78,-1.87,-1.80,-1.33,
0.637,-0.24,-0.10,0.78,-1.87,-1.80,-1.33,
0.64,-0.24,-0.09,0.78,-1.87,-1.80,-1.33,
0.64,-0.24,-0.09,0.78,-1.80,-1.77,-1.57,
0.642,-0.24,-0.07,0.78,-1.80,-1.77,-1.57,
0.645,-0.24,-0.07,0.78,-1.77,-1.53,-1.68,
0.645,-0.25,-0.06,0.78,-1.77,-1.53,-1.68,
0.647,-0.25,-0.04,0.78,-1.77,-1.53,-1.68,
0.65,-0.27,-0.02,0.79,-1.77,-1.53,-1.68,
0.65,-0.27,-0.02,0.79,-1.77,-1.20,-1.68,
0.652,-0.28,-0.01,0.79,-1.77,-1.20,-1.68,
0.655,-0.30,-0.00,0.81,-1.77,-1.20,-1.68,
0.655,-0.30,-0.00,0.81,-1.93,-0.84,-1.61,
0.659,-0.33,0.01,0.83,-1.93,-0.84,-1.61,
0.66,-0.35,0.02,0.85,-1.93,-0.84,-1.61,
0.661,-0.35,0.02,0.85,-2.19,-0.57,-1.42,
0.662,-0.39,0.02,0.87,-2.19,-0.57,-1.42,
0.666,-0.42,0.02,0.89,-2.19,-0.57,-1.42,
0.667,-0.42,0.02,0.89,-2.62,-0.37,-1.08,
0.667,-0.46,0.03,0.91,-2.62,-0.37,-1.08,
0.67,-0.46,0.03,0.91,-3.24,-0.22,-0.62,
0.67,-0.50,0.03,0.94,-3.24,-0.22,-0.62,
0.672,-0.54,0.04,0.97,-3.24,-0.22,-0.62,
0.676,-0.57,0.05,0.99,-3.24,-0.22,-0.62,
0.676,-0.57,0.05,0.99,-3.93,-0.08,-0.20,
0.677,-0.60,0.05,1.00,-3.93,-0.08,-0.20,
0.681,-0.62,0.05,1.02,-3.93,-0.08,-0.20,
0.681,-0.62,0.05,1.02,-4.57,0.11,0.31,
0.683,-0.64,0.04,1.03,-4.57,0.11,0.31,
0.685,-0.64,0.04,1.03,-5.08,0.21,0.62,
0.685,-0.65,0.03,1.04,-5.08,0.21,0.62,
0.687,-0.67,0.03,1.05,-5.08,0.21,0.62,
0.69,-0.67,0.03,1.06,-5.08,0.21,0.62,
0.69,-0.67,0.03,1.06,-5.44,0.16,0.89,
0.693,-0.68,0.02,1.06,-5.44,0.16,0.89,
0.697,-0.68,0.01,1.07,-5.44,0.16,0.89,
0.698,-0.68,0.01,1.07,-5.63,0.15,1.04,
0.698,-0.67,-0.01,1.07,-5.63,0.15,1.04,
0.7,-0.67,-0.03,1.08,-5.63,0.15,1.04,
0.701,-0.67,-0.03,1.08,-5.70,0.06,1.16,
0.703,-0.66,-0.04,1.08,-5.70,0.06,1.16,
0.705,-0.64,-0.06,1.08,-5.70,0.06,1.16,
0.706,-0.64,-0.06,1.08,-5.64,-0.16,1.25,
0.708,-0.62,-0.07,1.08,-5.64,-0.16,1.25,
0.713,-0.61,-0.08,1.08,-5.64,-0.16,1.25,
0.714,-0.61,-0.08,1.08,-5.49,-0.41,1.28,
0.716,-0.58,-0.10,1.09,-5.49,-0.41,1.28,
0.717,-0.55,-0.10,1.08,-5.49,-0.41,1.28,
0.717,-0.55,-0.10,1.08,-5.14,-0.60,1.29,
0.717,-0.52,-0.11,1.08,-5.14,-0.60,1.29,
0.72,-0.52,-0.11,1.08,-4.67,-0.77,1.31,
0.72,-0.50,-0.12,1.08,-4.67,-0.77,1.31,
0.723,-0.46,-0.12,1.07,-4.67,-0.77,1.31,
0.725,-0.44,-0.12,1.07,-4.67,-0.77,1.31,
0.725,-0.44,-0.12,1.07,-4.12,-0.84,1.24,
0.728,-0.40,-0.13,1.07,-4.12,-0.84,1.24,
0.729,-0.37,-0.13,1.07,-4.12,-0.84,1.24,
0.729,-0.37,-0.13,1.07,-3.54,-0.87,1.16,
0.733,-0.35,-0.13,1.08,-3.54,-0.87,1.16,
0.735,-0.33,-0.13,1.08,-3.54,-0.87,1.16,
0.735,-0.33,-0.13,1.08,-2.93,-0.87,1.14,
0.737,-0.30,-0.13,1.08,-2.93,-0.87,1.14,
0.74,-0.28,-0.12,1.08,-2.93,-0.87,1.14,
0.741,-0.28,-0.12,1.08,-2.43,-0.80,1.24,
0.743,-0.26,-0.11,1.09,-2.43,-0.80,1.24,
0.744,-0.26,-0.11,1.09,-1.90,-0.67,1.30,
0.745,-0.24,-0.10,1.09,-1.90,-0.67,1.30,
0.747,-0.24,-0.10,1.10,-1.90,-0.67,1.30,
0.749,-0.23,-0.11,1.11,-1.90,-0.67,1.30,
0.749,-0.23,-0.11,1.11,-1.53,-0.47,1.37,
0.752,-0.23,-0.11,1.13,-1.53,-0.47,1.37,
0.755,-0.24,-0.10,1.13,-1.53,-0.47,1.37,
0.755,-0.24,-0.10,1.13,-1.31,-0.41,1.53,
0.756,-0.25,-0.10,1.14,-1.31,-0.41,1.53,
0.76,-0.26,-0.10,1.15,-1.31,-0.41,1.53,
0.76,-0.26,-0.10,1.15,-1.30,-0.35,1.75,
0.761,-0.28,-0.10,1.17,-1.30,-0.35,1.75,
0.764,-0.28,-0.10,1.17,-1.46,-0.27,1.93,
0.765,-0.31,-0.10,1.18,-1.46,-0.27,1.93,
0.767,-0.34,-0.10,1.18,-1.46,-0.27,1.93,
0.769,-0.34,-0.10,1.18,-1.83,-0.21,2.18,
0.77,-0.37,-0.10,1.19,-1.83,-0.21,2.18,
0.772,-0.40,-0.10,1.19,-1.83,-0.21,2.18,
0.775,-0.43,-0.10,1.20,-1.83,-0.21,2.18,
0.775,-0.43,-0.10,1.20,-2.35,-0.11,2.34,
0.777,-0.47,-0.10,1.20,-2.35,-0.11,2.34,
0.779,-0.50,-0.10,1.20,-2.35,-0.11,2.34,
0.779,-0.50,-0.10,1.20,-2.94,-0.06,2.42,
0.781,-0.52,-0.11,1.19,-2.94,-0.06,2.42,
0.784,-0.52,-0.11,1.19,-3.55,-0.03,2.49,
0.784,-0.55,-0.11,1.17,-3.55,-0.03,2.49,
0.786,-0.57,-0.11,1.17,-3.55,-0.03,2.49,
0.788,-0.59,-0.11,1.15,-3.55,-0.03,2.49,
0.789,-0.59,-0.11,1.15,-4.06,-0.08,2.28,
0.791,-0.61,-0.12,1.14,-4.06,-0.08,2.28,
0.794,-0.61,-0.12,1.14,-4.48,-0.06,2.06,
0.794,-0.62,-0.11,1.13,-4.48,-0.06,2.06,
0.796,-0.63,-0.12,1.12,-4.48,-0.06,2.06,
0.799,-0.64,-0.13,1.11,-4.48,-0.06,2.06,
0.799,-0.64,-0.13,1.11,-4.78,-0.06,1.82,
0.801,-0.64,-0.13,1.10,-4.78,-0.06,1.82,
0.803,-0.63,-0.13,1.09,-4.78,-0.06,1.82,
0.804,-0.63,-0.13,1.09,-4.93,-0.13,1.63,
0.806,-0.62,-0.13,1.08,-4.93,-0.13,1.63,
0.809,-0.61,-0.14,1.07,-4.93,-0.13,1.63,
0.809,-0.61,-0.14,1.07,-4.91,-0.15,1.42,
0.816,-0.59,-0.15,1.07,-4.91,-0.15,1.42,
0.816,-0.58,-0.14,1.06,-4.91,-0.15,1.42,
0.816,-0.58,-0.14,1.06,-4.74,-0.22,1.27,
0.817,-0.57,-0.14,1.07,-4.74,-0.22,1.27,
0.818,-0.57,-0.14,1.07,-4.41,-0.23,1.18,
0.821,-0.55,-0.14,1.06,-4.41,-0.23,1.18,
0.821,-0.53,-0.14,1.07,-4.41,-0.23,1.18,
0.823,-0.51,-0.14,1.08,-4.41,-0.23,1.18,
0.824,-0.51,-0.14,1.08,-4.08,-0.17,1.14,
0.826,-0.49,-0.14,1.08,-4.08,-0.17,1.14,
0.828,-0.47,-0.14,1.09,-4.08,-0.17,1.14,
0.829,-0.47,-0.14,1.09,-3.67,-0.15,1.24,
0.83,-0.46,-0.14,1.11,-3.67,-0.15,1.24,
0.833,-0.44,-0.14,1.12,-3.67,-0.15,1.24,
0.833,-0.44,-0.14,1.12,-3.26,-0.10,1.39,
0.835,-0.43,-0.14,1.13,-3.26,-0.10,1.39,
0.839,-0.42,-0.14,1.15,-3.26,-0.10,1.39,
0.839,-0.42,-0.14,1.15,-2.89,-0.03,1.64,
0.84,-0.42,-0.14,1.16,-2.89,-0.03,1.64,
0.843,-0.42,-0.14,1.16,-2.61,-0.04,1.92,
0.844,-0.42,-0.15,1.18,-2.61,-0.04,1.92,
0.845,-0.42,-0.15,1.19,-2.61,-0.04,1.92,
0.848,-0.42,-0.15,1.20,-2.61,-0.04,1.92,
0.848,-0.42,-0.15,1.20,-2.49,-0.05,2.23,
0.85,-0.43,-0.15,1.21,-2.49,-0.05,2.23,
0.853,-0.43,-0.15,1.21,-2.49,-0.05,2.23,
0.853,-0.43,-0.15,1.21,-2.43,-0.03,2.46,
0.855,-0.44,-0.15,1.22,-2.43,-0.03,2.46,
0.858,-0.45,-0.15,1.22,-2.43,-0.03,2.46,
0.858,-0.45,-0.15,1.22,-2.49,-0.02,2.59,
0.86,-0.47,-0.15,1.21,-2.49,-0.02,2.59,
0.863,-0.48,-0.16,1.20,-2.49,-0.02,2.59,
0.863,-0.48,-0.16,1.20,-2.61,0.03,2.70,
0.865,-0.50,-0.16,1.20,-2.61,0.03,2.70,
0.868,-0.50,-0.16,1.20,-2.82,0.01,2.60,
0.868,-0.51,-0.17,1.19,-2.82,0.01,2.60,
0.87,-0.53,-0.17,1.18,-2.82,0.01,2.60,
0.873,-0.54,-0.18,1.17,-2.82,0.01,2.60,
0.873,-0.54,-0.18,1.17,-3.09,-0.04,2.49,
0.877,-0.55,-0.18,1.17,-3.09,-0.04,2.49,
0.878,-0.56,-0.18,1.17,-3.09,-0.04,2.49,
0.878,-0.56,-0.18,1.17,-3.34,-0.12,2.34,
0.88,-0.57,-0.18,1.16,-3.34,-0.12,2.34,
0.883,-0.57,-0.18,1.16,-3.34,-0.12,2.34,
0.883,-0.57,-0.18,1.16,-3.54,-0.10,2.24,
0.885,-0.57,-0.18,1.17,-3.54,-0.10,2.24,
0.888,-0.57,-0.18,1.17,-3.54,-0.10,2.24,
0.888,-0.57,-0.18,1.17,-3.65,-0.11,2.20,
0.89,-0.57,-0.19,1.18,-3.65,-0.11,2.20,
0.894,-0.57,-0.19,1.18,-3.66,-0.04,2.29,
0.894,-0.57,-0.19,1.18,-3.66,-0.04,2.29,
0.895,-0.57,-0.19,1.19,-3.66,-0.04,2.29,
0.898,-0.56,-0.19,1.20,-3.66,-0.04,2.29,
0.899,-0.56,-0.19,1.20,-3.57,-0.08,2.36,
0.9,-0.55,-0.19,1.21,-3.57,-0.08,2.36,
0.903,-0.55,-0.19,1.21,-3.49,-0.09,2.56,
0.903,-0.55,-0.20,1.23,-3.49,-0.09,2.56,
0.905,-0.54,-0.21,1.24,-3.49,-0.09,2.56,
0.908,-0.53,-0.20,1.25,-3.49,-0.09,2.56,
0.909,-0.53,-0.20,1.25,-3.33,-0.10,2.78,
0.911,-0.53,-0.21,1.26,-3.33,-0.10,2.78,
0.912,-0.52,-0.21,1.27,-3.33,-0.10,2.78,
0.913,-0.52,-0.21,1.27,-3.16,-0.13,3.01,
0.915,-0.52,-0.21,1.28,-3.16,-0.13,3.01,
0.917,-0.52,-0.21,1.28,-3.01,-0.11,3.21,
0.918,-0.51,-0.21,1.28,-3.01,-0.11,3.21,
0.919,-0.51,-0.21,1.29,-3.01,-0.11,3.21,
0.922,-0.51,-0.22,1.30,-3.01,-0.11,3.21,
0.922,-0.51,-0.22,1.30,-2.90,-0.14,3.39,
0.924,-0.50,-0.22,1.30,-2.90,-0.14,3.39,
0.931,-0.50,-0.22,1.30,-2.90,-0.14,3.39,
0.932,-0.50,-0.22,1.30,-2.80,-0.13,3.54,
0.932,-0.50,-0.23,1.31,-2.80,-0.13,3.54,
0.932,-0.50,-0.23,1.31,-2.80,-0.13,3.54,
0.932,-0.50,-0.23,1.31,-2.69,-0.13,3.62,
0.935,-0.49,-0.23,1.30,-2.69,-0.13,3.62,
0.937,-0.48,-0.24,1.30,-2.69,-0.13,3.62,
0.937,-0.48,-0.24,1.30,-2.60,-0.16,3.68,
0.939,-0.48,-0.24,1.29,-2.60,-0.16,3.68,
0.944,-0.48,-0.24,1.29,-2.45,-0.23,3.60,
0.944,-0.47,-0.24,1.29,-2.45,-0.23,3.60,
0.944,-0.47,-0.25,1.28,-2.45,-0.23,3.60,
0.947,-0.46,-0.25,1.28,-2.45,-0.23,3.60,
0.947,-0.46,-0.25,1.28,-2.31,-0.28,3.53,
0.949,-0.45,-0.26,1.28,-2.31,-0.28,3.53,
0.952,-0.44,-0.26,1.28,-2.31,-0.28,3.53,
0.952,-0.44,-0.26,1.28,-2.14,-0.31,3.45,
0.954,-0.43,-0.27,1.28,-2.14,-0.31,3.45,
0.957,-0.42,-0.27,1.29,-2.14,-0.31,3.45,
0.957,-0.42,-0.27,1.29,-1.94,-0.39,3.40,
0.96,-0.40,-0.28,1.29,-1.94,-0.39,3.40,
0.962,-0.40,-0.28,1.30,-1.94,-0.39,3.40,
0.962,-0.40,-0.28,1.30,-1.72,-0.49,3.47,
0.964,-0.38,-0.29,1.31,-1.72,-0.49,3.47,
0.967,-0.38,-0.29,1.31,-1.44,-0.57,3.59,
0.967,-0.37,-0.29,1.32,-1.44,-0.57,3.59,
0.969,-0.35,-0.29,1.33,-1.44,-0.57,3.59,
0.972,-0.34,-0.29,1.34,-1.44,-0.57,3.59,
0.972,-0.34,-0.29,1.34,-1.16,-0.61,3.76,
0.974,-0.33,-0.30,1.35,-1.16,-0.61,3.76,
0.977,-0.33,-0.30,1.35,-1.16,-0.61,3.76,
0.978,-0.33,-0.30,1.35,-0.87,-0.59,3.95,
0.979,-0.32,-0.30,1.36,-0.87,-0.59,3.95,
0.982,-0.32,-0.31,1.36,-0.87,-0.59,3.95,
0.982,-0.32,-0.31,1.36,-0.67,-0.66,4.12,
0.984,-0.31,-0.31,1.36,-0.67,-0.66,4.12,
0.987,-0.31,-0.31,1.36,-0.53,-0.66,4.20,
0.987,-0.32,-0.31,1.37,-0.53,-0.66,4.20,
0.989,-0.32,-0.31,1.37,-0.53,-0.66,4.20,
0.991,-0.32,-0.31,1.37,-0.49,-0.73,4.27,
0.992,-0.33,-0.31,1.38,-0.49,-0.73,4.27,
0.994,-0.34,-0.31,1.38,-0.49,-0.73,4.27,
0.996,-0.35,-0.32,1.38,-0.49,-0.73,4.27,
0.997,-0.35,-0.32,1.38,-0.58,-0.74,4.37,
0.999,-0.36,-0.31,1.39,-0.58,-0.74,4.37,
1.004,-0.37,-0.31,1.39,-0.58,-0.74,4.37,
1.005,-0.37,-0.31,1.39,-0.74,-0.74,4.44,
1.005,-0.39,-0.31,1.40,-0.74,-0.74,4.44,
1.006,-0.39,-0.31,1.40,-0.74,-0.74,4.44,
1.007,-0.39,-0.31,1.40,-0.93,-0.68,4.53,
1.009,-0.40,-0.31,1.40,-0.93,-0.68,4.53,
1.012,-0.41,-0.32,1.41,-0.93,-0.68,4.53,
1.012,-0.41,-0.32,1.41,-1.14,-0.66,4.59,
1.014,-0.41,-0.32,1.40,-1.14,-0.66,4.59,
1.017,-0.41,-0.32,1.40,-1.26,-0.70,4.65,
1.017,-0.41,-0.32,1.40,-1.26,-0.70,4.65,
1.019,-0.41,-0.32,1.39,-1.26,-0.70,4.65,
1.022,-0.41,-0.32,1.40,-1.26,-0.70,4.65,
1.022,-0.41,-0.32,1.40,-1.29,-0.75,4.63,
1.024,-0.40,-0.31,1.40,-1.29,-0.75,4.63,
1.027,-0.40,-0.31,1.40,-1.29,-0.75,4.63,
1.027,-0.40,-0.31,1.40,-1.25,-0.70,4.60,
1.032,-0.38,-0.31,1.39,-1.25,-0.70,4.60,
1.033,-0.37,-0.31,1.38,-1.25,-0.70,4.60,
1.033,-0.37,-0.31,1.38,-1.11,-0.65,4.56,
1.033,-0.36,-0.32,1.38,-1.11,-0.65,4.56,
1.036,-0.36,-0.32,1.38,-0.89,-0.64,4.47,
1.036,-0.34,-0.32,1.37,-0.89,-0.64,4.47,
1.038,-0.32,-0.32,1.36,-0.89,-0.64,4.47,
1.041,-0.32,-0.32,1.36,-0.64,-0.74,4.36,
1.042,-0.31,-0.33,1.35,-0.64,-0.74,4.36,
1.045,-0.29,-0.34,1.34,-0.64,-0.74,4.36,
1.046,-0.27,-0.34,1.34,-0.64,-0.74,4.36,
1.047,-0.27,-0.34,1.34,-0.26,-0.81,4.15,
1.049,-0.25,-0.34,1.33,-0.26,-0.81,4.15,
1.052,-0.24,-0.35,1.33,-0.26,-0.81,4.15,
1.052,-0.24,-0.35,1.33,0.10,-0.90,4.01,
1.054,-0.22,-0.35,1.33,0.10,-0.90,4.01,
1.057,-0.20,-0.36,1.32,0.10,-0.90,4.01,
1.057,-0.20,-0.36,1.32,0.47,-1.00,3.87,
1.059,-0.18,-0.36,1.32,0.47,-1.00,3.87,
1.061,-0.16,-0.36,1.32,0.47,-1.00,3.87,
1.062,-0.16,-0.36,1.32,0.85,-1.11,3.80,
1.064,-0.14,-0.35,1.32,0.85,-1.11,3.80,
1.066,-0.14,-0.35,1.32,1.23,-1.14,3.76,
1.066,-0.12,-0.35,1.31,1.23,-1.14,3.76,
1.068,-0.11,-0.35,1.32,1.23,-1.14,3.76,
1.071,-0.10,-0.35,1.32,1.23,-1.14,3.76,
1.072,-0.10,-0.35,1.32,1.62,-1.10,3.71,
1.074,-0.08,-0.36,1.32,1.62,-1.10,3.71,
1.076,-0.08,-0.36,1.32,1.62,-1.10,3.71,
1.077,-0.08,-0.36,1.32,1.88,-1.13,3.72,
1.079,-0.07,-0.36,1.32,1.88,-1.13,3.72,
1.081,-0.06,-0.35,1.31,1.88,-1.13,3.72,
1.081,-0.06,-0.35,1.31,2.12,-1.18,3.74,
1.083,-0.06,-0.35,1.32,2.12,-1.18,3.74,
1.087,-0.06,-0.35,1.32,2.12,-1.18,3.74,
1.087,-0.06,-0.35,1.32,2.29,-1.18,3.70,
1.089,-0.06,-0.34,1.32,2.29,-1.18,3.70,
1.091,-0.06,-0.34,1.32,2.39,-1.10,3.75,
1.091,-0.06,-0.34,1.31,2.39,-1.10,3.75,
1.096,-0.07,-0.33,1.32,2.39,-1.10,3.75,
1.097,-0.07,-0.33,1.31,2.39,-1.10,3.75,
1.097,-0.07,-0.33,1.31,2.37,-1.06,3.70,
1.098,-0.08,-0.33,1.30,2.37,-1.06,3.70,
1.101,-0.09,-0.33,1.31,2.37,-1.06,3.70,
1.102,-0.09,-0.33,1.31,2.28,-0.94,3.68,
1.104,-0.10,-0.33,1.30,2.28,-0.94,3.68,
1.106,-0.11,-0.33,1.30,2.28,-0.94,3.68,
1.106,-0.11,-0.33,1.30,2.14,-0.93,3.58,
1.107,-0.12,-0.34,1.31,2.14,-0.93,3.58,
1.113,-0.12,-0.34,1.31,2.14,-0.93,3.58,
1.113,-0.12,-0.34,1.31,1.95,-0.95,3.56,
1.113,-0.13,-0.34,1.31,1.95,-0.95,3.56,
1.116,-0.13,-0.34,1.31,1.78,-1.05,3.60,
1.116,-0.14,-0.34,1.32,1.78,-1.05,3.60,
1.118,-0.14,-0.33,1.33,1.78,-1.05,3.60,
1.12,-0.15,-0.33,1.34,1.78,-1.05,3.60,
1.12,-0.15,-0.33,1.34,1.69,-1.04,3.68,
1.123,-0.16,-0.33,1.35,1.69,-1.04,3.68,
1.126,-0.16,-0.32,1.35,1.69,-1.04,3.68,
1.126,-0.16,-0.32,1.35,1.58,-1.00,3.86,
1.128,-0.16,-0.33,1.35,1.58,-1.00,3.86,
1.13,-0.17,-0.33,1.37,1.58,-1.00,3.86,
1.13,-0.17,-0.33,1.37,1.50,-0.93,3.97,
1.132,-0.18,-0.32,1.37,1.50,-0.93,3.97,
1.135,-0.17,-0.32,1.38,1.50,-0.93,3.97,
1.135,-0.17,-0.32,1.38,1.41,-0.97,4.08,
1.137,-0.18,-0.32,1.38,1.41,-0.97,4.08,
1.14,-0.18,-0.32,1.38,1.34,-0.92,4.22,
1.14,-0.18,-0.32,1.39,1.34,-0.92,4.22,
1.142,-0.18,-0.31,1.39,1.34,-0.92,4.22,
1.149,-0.18,-0.30,1.40,1.34,-0.92,4.22,
1.15,-0.18,-0.30,1.40,1.35,-0.90,4.34,
1.15,-0.18,-0.29,1.41,1.35,-0.90,4.34,
1.153,-0.19,-0.29,1.41,1.35,-0.90,4.34,
1.153,-0.19,-0.29,1.41,1.35,-0.76,4.39,
1.154,-0.18,-0.29,1.41,1.35,-0.76,4.39,
1.155,-0.19,-0.30,1.41,1.35,-0.76,4.39,
1.155,-0.19,-0.30,1.41,1.31,-0.65,4.53,
1.157,-0.20,-0.30,1.41,1.31,-0.65,4.53,
1.161,-0.20,-0.30,1.42,1.31,-0.65,4.53,
1.162,-0.20,-0.30,1.42,1.26,-0.69,4.50,
1.162,-0.20,-0.30,1.42,1.26,-0.69,4.50,
1.165,-0.20,-0.30,1.42,1.16,-0.74,4.57,
1.165,-0.20,-0.30,1.42,1.16,-0.74,4.57,
1.167,-0.20,-0.30,1.42,1.16,-0.74,4.57,
1.17,-0.20,-0.30,1.42,1.16,-0.74,4.57,
1.17,-0.20,-0.30,1.42,1.13,-0.78,4.57,
1.172,-0.20,-0.30,1.42,1.13,-0.78,4.57,
1.174,-0.20,-0.30,1.41,1.13,-0.78,4.57,
1.175,-0.20,-0.30,1.41,1.10,-0.75,4.56,
1.178,-0.19,-0.30,1.41,1.10,-0.75,4.56,
1.181,-0.19,-0.31,1.40,1.10,-0.75,4.56,
1.181,-0.19,-0.31,1.40,1.11,-0.79,4.51,
1.182,-0.19,-0.31,1.40,1.11,-0.79,4.51,
1.185,-0.18,-0.32,1.40,1.11,-0.79,4.51,
1.185,-0.18,-0.32,1.40,1.18,-0.87,4.40,
1.187,-0.18,-0.32,1.39,1.18,-0.87,4.40,
1.19,-0.18,-0.32,1.39,1.22,-0.97,4.31,
1.19,-0.16,-0.32,1.39,1.22,-0.97,4.31,
1.192,-0.15,-0.32,1.38,1.22,-0.97,4.31,
1.195,-0.14,-0.32,1.38,1.22,-0.97,4.31,
1.196,-0.14,-0.32,1.38,1.34,-1.04,4.21,
1.197,-0.13,-0.33,1.38,1.34,-1.04,4.21,
1.2,-0.12,-0.32,1.38,1.34,-1.04,4.21,
1.2,-0.12,-0.32,1.38,1.58,-1.12,4.13,
1.202,-0.10,-0.32,1.38,1.58,-1.12,4.13,
1.204,-0.09,-0.33,1.38,1.58,-1.12,4.13,
1.205,-0.09,-0.33,1.38,1.76,-1.17,4.03,
1.207,-0.08,-0.33,1.38,1.76,-1.17,4.03,
1.209,-0.06,-0.33,1.38,1.76,-1.17,4.03,
1.209,-0.06,-0.33,1.38,2.00,-1.21,4.04,
1.212,-0.04,-0.33,1.38,2.00,-1.21,4.04,
1.214,-0.03,-0.33,1.38,2.00,-1.21,4.04,
1.215,-0.03,-0.33,1.38,2.24,-1.29,4.00,
1.216,-0.02,-0.33,1.38,2.24,-1.29,4.00,
1.219,-0.00,-0.32,1.39,2.24,-1.29,4.00,
1.22,-0.00,-0.32,1.39,2.55,-1.33,3.99,
1.221,0.01,-0.32,1.38,2.55,-1.33,3.99,
1.224,0.03,-0.32,1.39,2.55,-1.33,3.99,
1.224,0.03,-0.32,1.39,2.84,-1.33,4.02,
1.226,0.05,-0.32,1.38,2.84,-1.33,4.02,
1.23,0.06,-0.32,1.38,2.84,-1.33,4.02,
1.23,0.06,-0.32,1.38,3.15,-1.35,4.03,
1.231,0.08,-0.31,1.38,3.15,-1.35,4.03,
1.234,0.10,-0.31,1.37,3.15,-1.35,4.03,
1.234,0.10,-0.31,1.37,3.46,-1.33,3.97,
1.236,0.11,-0.30,1.36,3.46,-1.33,3.97,
1.239,0.12,-0.29,1.35,3.46,-1.33,3.97,
1.239,0.12,-0.29,1.35,3.81,-1.32,3.88,
1.241,0.13,-0.29,1.34,3.81,-1.32,3.88,
1.25,0.13,-0.29,1.33,3.81,-1.32,3.88,
1.25,0.13,-0.29,1.33,4.07,-1.25,3.68,
1.25,0.14,-0.28,1.31,4.07,-1.25,3.68,
1.251,0.13,-0.28,1.29,4.07,-1.25,3.68,
1.251,0.13,-0.28,1.29,4.20,-1.23,3.43,
1.251,0.13,-0.28,1.28,4.20,-1.23,3.43,
1.255,0.13,-0.28,1.26,4.20,-1.23,3.43,
1.255,0.13,-0.28,1.26,4.23,-1.21,3.12,
1.256,0.13,-0.28,1.24,4.23,-1.21,3.12,
1.259,0.12,-0.28,1.23,4.23,-1.21,3.12,
1.259,0.12,-0.28,1.23,4.15,-1.24,2.77,
1.261,0.12,-0.28,1.22,4.15,-1.24,2.77,
1.264,0.12,-0.28,1.22,4.05,-1.27,2.44,
1.264,0.12,-0.27,1.21,4.05,-1.27,2.44,
1.266,0.11,-0.28,1.21,4.05,-1.27,2.44,
1.269,0.09,-0.28,1.20,4.05,-1.27,2.44,
1.269,0.09,-0.28,1.20,3.97,-1.27,2.23,
1.271,0.09,-0.29,1.20,3.97,-1.27,2.23,
1.275,0.07,-0.29,1.21,3.97,-1.27,2.23,
1.275,0.07,-0.29,1.21,3.75,-1.37,2.09,
1.276,0.06,-0.30,1.21,3.75,-1.37,2.09,
1.279,0.05,-0.31,1.21,3.75,-1.37,2.09,
1.28,0.05,-0.31,1.21,3.49,-1.52,2.07,
1.281,0.04,-0.32,1.22,3.49,-1.52,2.07,
1.284,0.03,-0.32,1.23,3.49,-1.52,2.07,
1.284,0.03,-0.32,1.23,3.23,-1.73,2.14,
1.286,0.03,-0.32,1.23,3.23,-1.73,2.14,
1.288,0.03,-0.32,1.23,2.98,-1.88,2.24,
1.289,0.02,-0.32,1.24,2.98,-1.88,2.24,
1.291,0.02,-0.31,1.25,2.98,-1.88,2.24,
1.293,0.02,-0.31,1.25,2.98,-1.88,2.24,
1.294,0.02,-0.31,1.25,2.83,-1.90,2.34,
1.296,0.01,-0.31,1.26,2.83,-1.90,2.34,
1.298,0.00,-0.30,1.27,2.83,-1.90,2.34,
1.299,0.00,-0.30,1.27,2.72,-1.86,2.45,
1.301,-0.00,-0.30,1.28,2.72,-1.86,2.45,
1.303,-0.01,-0.30,1.28,2.72,-1.86,2.45,
1.304,-0.01,-0.30,1.28,2.56,-1.83,2.61,
1.306,-0.01,-0.30,1.28,2.56,-1.83,2.61,
1.308,-0.00,-0.29,1.27,2.56,-1.83,2.61,
1.308,-0.00,-0.29,1.27,2.46,-1.84,2.70,
1.31,-0.01,-0.29,1.27,2.46,-1.84,2.70,
1.314,-0.01,-0.29,1.27,2.42,-1.80,2.66,
1.317,-0.01,-0.28,1.26,2.42,-1.80,2.66,
1.318,-0.01,-0.28,1.25,2.42,-1.80,2.66,
1.318,-0.00,-0.27,1.24,2.42,-1.80,2.66,
1.319,-0.00,-0.27,1.24,2.39,-1.75,2.55,
1.32,-0.01,-0.27,1.22,2.39,-1.75,2.55,
1.323,-0.00,-0.27,1.22,2.39,-1.75,2.55,
1.324,-0.00,-0.27,1.22,2.40,-1.72,2.34,
1.325,0.01,-0.27,1.20,2.40,-1.72,2.34,
1.33,0.01,-0.27,1.19,2.40,-1.72,2.34,
1.33,0.01,-0.27,1.19,2.39,-1.76,2.10,
1.331,0.02,-0.26,1.16,2.39,-1.76,2.10,
1.334,0.03,-0.25,1.14,2.39,-1.76,2.10,
1.334,0.03,-0.25,1.14,2.52,-1.77,1.79,
1.34,0.05,-0.24,1.13,2.52,-1.77,1.79,
1.34,0.05,-0.24,1.13,2.68,-1.72,1.39,
1.34,0.06,-0.23,1.11,2.68,-1.72,1.39,
1.341,0.07,-0.23,1.09,2.68,-1.72,1.39,
1.343,0.08,-0.22,1.07,2.68,-1.72,1.39,
1.343,0.08,-0.22,1.07,2.90,-1.63,1.03,
1.346,0.09,-0.21,1.05,2.90,-1.63,1.03,
1.348,0.11,-0.20,1.03,2.90,-1.63,1.03,
1.348,0.11,-0.20,1.03,3.10,-1.57,0.65,
1.351,0.11,-0.20,1.01,3.10,-1.57,0.65,
1.354,0.12,-0.20,1.00,3.10,-1.57,0.65,
1.354,0.12,-0.20,1.00,3.32,-1.49,0.25,
1.356,0.14,-0.20,0.99,3.32,-1.49,0.25,
1.358,0.15,-0.20,0.98,3.32,-1.49,0.25,
1.359,0.15,-0.20,0.98,3.48,-1.51,-0.09,
1.361,0.16,-0.20,0.97,3.48,-1.51,-0.09,
1.365,0.16,-0.20,0.97,3.69,-1.56,-0.33,
1.365,0.17,-0.21,0.96,3.69,-1.56,-0.33,
1.366,0.19,-0.20,0.97,3.69,-1.56,-0.33,
1.368,0.20,-0.21,0.96,3.69,-1.56,-0.33,
1.368,0.20,-0.21,0.96,3.92,-1.66,-0.53,
1.37,0.22,-0.21,0.96,3.92,-1.66,-0.53,
1.373,0.24,-0.21,0.97,3.92,-1.66,-0.53,
1.373,0.24,-0.21,0.97,4.15,-1.74,-0.53,
1.376,0.25,-0.21,0.97,4.15,-1.74,-0.53,
1.378,0.26,-0.21,0.98,4.15,-1.74,-0.53,
1.378,0.26,-0.21,0.98,4.47,-1.86,-0.49,
1.38,0.27,-0.22,0.98,4.47,-1.86,-0.49,
1.383,0.28,-0.21,0.98,4.47,-1.86,-0.49,
1.383,0.28,-0.21,0.98,4.68,-1.91,-0.42,
1.386,0.29,-0.21,0.98,4.68,-1.91,-0.42,
1.388,0.29,-0.21,0.98,4.85,-1.98,-0.35,
1.389,0.29,-0.21,0.98,4.85,-1.98,-0.35,
1.391,0.29,-0.20,0.98,4.85,-1.98,-0.35,
1.393,0.30,-0.20,0.97,4.85,-1.98,-0.35,
1.393,0.30,-0.20,0.97,4.97,-1.99,-0.36,
1.395,0.30,-0.19,0.96,4.97,-1.99,-0.36,
1.398,0.30,-0.19,0.96,4.97,-1.99,-0.36,
1.399,0.30,-0.19,0.96,4.99,-1.95,-0.40,
1.4,0.30,-0.17,0.95,4.99,-1.95,-0.40,
1.403,0.30,-0.16,0.94,4.99,-1.95,-0.40,
1.403,0.30,-0.16,0.94,5.03,-1.89,-0.57,
1.406,0.30,-0.15,0.93,5.03,-1.89,-0.57,
1.408,0.29,-0.13,0.91,5.03,-1.89,-0.57,
1.408,0.29,-0.13,0.91,4.99,-1.74,-0.72,
1.41,0.28,-0.13,0.89,4.99,-1.74,-0.72,
1.414,0.28,-0.13,0.89,4.92,-1.52,-0.98,
1.414,0.28,-0.11,0.87,4.92,-1.52,-0.98,
1.415,0.26,-0.10,0.86,4.92,-1.52,-0.98,
1.418,0.25,-0.10,0.84,4.92,-1.52,-0.98,
1.418,0.25,-0.10,0.84,4.70,-1.36,-1.32,
1.421,0.24,-0.09,0.82,4.70,-1.36,-1.32,
1.423,0.23,-0.09,0.80,4.70,-1.36,-1.32,
1.423,0.23,-0.09,0.80,4.47,-1.24,-1.68,
1.425,0.22,-0.09,0.78,4.47,-1.24,-1.68,
1.428,0.21,-0.10,0.77,4.47,-1.24,-1.68,
1.428,0.21,-0.10,0.77,4.22,-1.21,-2.04,
1.43,0.20,-0.10,0.75,4.22,-1.21,-2.04,
1.432,0.19,-0.11,0.74,4.22,-1.21,-2.04,
1.433,0.19,-0.11,0.74,3.94,-1.26,-2.39,
1.435,0.18,-0.12,0.73,3.94,-1.26,-2.39,
1.438,0.18,-0.12,0.73,3.67,-1.43,-2.72,
1.438,0.17,-0.12,0.71,3.67,-1.43,-2.72,
1.44,0.16,-0.13,0.70,3.67,-1.43,-2.72,
1.443,0.16,-0.13,0.70,3.67,-1.43,-2.72,
1.443,0.16,-0.13,0.70,3.44,-1.57,-2.97,
1.445,0.16,-0.14,0.70,3.44,-1.57,-2.97,
1.448,0.16,-0.14,0.70,3.44,-1.57,-2.97,
1.449,0.16,-0.14,0.70,3.29,-1.68,-3.12,
1.45,0.16,-0.14,0.70,3.29,-1.68,-3.12,
1.453,0.17,-0.15,0.70,3.29,-1.68,-3.12,
1.453,0.17,-0.15,0.70,3.19,-1.83,-3.16,
1.454,0.18,-0.16,0.71,3.19,-1.83,-3.16,
1.458,0.18,-0.17,0.71,3.19,-1.83,-3.16,
1.458,0.18,-0.17,0.71,3.21,-1.95,-3.14,
1.46,0.19,-0.18,0.72,3.21,-1.95,-3.14,
1.468,0.19,-0.18,0.72,3.27,-2.13,-3.05,
1.468,0.19,-0.18,0.73,3.27,-2.13,-3.05,
1.469,0.20,-0.18,0.75,3.27,-2.13,-3.05,
1.469,0.20,-0.19,0.76,3.27,-2.13,-3.05,
1.469,0.20,-0.19,0.76,3.32,-2.26,-2.86,
1.469,0.22,-0.18,0.77,3.32,-2.26,-2.86,
1.472,0.22,-0.18,0.78,3.32,-2.26,-2.86,
1.473,0.22,-0.18,0.78,3.37,-2.33,-2.59,
1.474,0.22,-0.17,0.79,3.37,-2.33,-2.59,
1.477,0.23,-0.16,0.81,3.37,-2.33,-2.59,
1.477,0.23,-0.16,0.81,3.48,-2.32,-2.38,
1.48,0.23,-0.15,0.81,3.48,-2.32,-2.38,
1.482,0.24,-0.14,0.82,3.48,-2.32,-2.38,
1.483,0.24,-0.14,0.82,3.50,-2.17,-2.16,
1.484,0.24,-0.13,0.83,3.50,-2.17,-2.16,
1.487,0.24,-0.13,0.83,3.55,-2.03,-2.00,
1.487,0.23,-0.11,0.82,3.55,-2.03,-2.00,
1.489,0.24,-0.11,0.82,3.55,-2.03,-2.00,
1.492,0.24,-0.09,0.81,3.55,-2.03,-2.00,
1.492,0.24,-0.09,0.81,3.52,-1.82,-1.93,
1.494,0.23,-0.08,0.80,3.52,-1.82,-1.93,
1.497,0.22,-0.06,0.79,3.52,-1.82,-1.93,
1.499,0.22,-0.06,0.79,3.48,-1.63,-2.03,
1.5,0.22,-0.04,0.78,3.48,-1.63,-2.03,
1.501,0.21,-0.03,0.76,3.48,-1.63,-2.03,
1.502,0.21,-0.03,0.76,3.34,-1.35,-2.17,
1.504,0.19,-0.01,0.75,3.34,-1.35,-2.17,
1.506,0.17,-0.00,0.74,3.34,-1.35,-2.17,
1.507,0.17,-0.00,0.74,3.15,-1.06,-2.46,
1.508,0.16,0.00,0.72,3.15,-1.06,-2.46,
1.511,0.16,0.00,0.72,2.80,-0.83,-2.69,
1.511,0.14,0.01,0.70,2.80,-0.83,-2.69,
1.513,0.13,0.01,0.68,2.80,-0.83,-2.69,
1.516,0.11,-0.00,0.67,2.80,-0.83,-2.69,
1.517,0.11,-0.00,0.67,2.45,-0.75,-3.03,
1.518,0.09,-0.01,0.65,2.45,-0.75,-3.03,
1.521,0.09,-0.01,0.65,2.04,-0.83,-3.38,
1.522,0.08,-0.01,0.63,2.04,-0.83,-3.38,
1.524,0.07,-0.02,0.61,2.04,-0.83,-3.38,
1.526,0.06,-0.03,0.59,2.04,-0.83,-3.38,
1.526,0.06,-0.03,0.59,1.68,-1.00,-3.74,
1.528,0.05,-0.03,0.57,1.68,-1.00,-3.74,
1.534,0.05,-0.04,0.56,1.68,-1.00,-3.74,
1.534,0.05,-0.04,0.56,1.44,-1.17,-4.10,
1.534,0.04,-0.05,0.55,1.44,-1.17,-4.10,
1.536,0.04,-0.05,0.55,1.17,-1.34,-4.44,
1.537,0.03,-0.05,0.53,1.17,-1.34,-4.44,
1.538,0.01,-0.06,0.53,1.17,-1.34,-4.44,
1.541,-0.01,-0.08,0.52,1.17,-1.34,-4.44,
1.541,-0.01,-0.08,0.52,0.93,-1.53,-4.66,
1.543,-0.02,-0.10,0.51,0.93,-1.53,-4.66,
1.548,-0.04,-0.11,0.50,0.93,-1.53,-4.66,
1.549,-0.04,-0.11,0.50,0.59,-1.78,-4.81,
1.549,-0.06,-0.12,0.49,0.59,-1.78,-4.81,
1.551,-0.07,-0.13,0.48,0.59,-1.78,-4.81,
1.551,-0.07,-0.13,0.48,0.20,-2.14,-4.98,
1.553,-0.09,-0.13,0.48,0.20,-2.14,-4.98,
1.556,-0.10,-0.13,0.48,0.20,-2.14,-4.98,
1.556,-0.10,-0.13,0.48,-0.17,-2.36,-5.14,
1.558,-0.12,-0.13,0.48,-0.17,-2.36,-5.14,
1.561,-0.12,-0.13,0.48,-0.48,-2.50,-5.19,
1.561,-0.12,-0.12,0.48,-0.48,-2.50,-5.19,
1.568,-0.13,-0.12,0.49,-0.48,-2.50,-5.19,
1.569,-0.13,-0.11,0.49,-0.48,-2.50,-5.19,
1.569,-0.13,-0.11,0.49,-0.74,-2.52,-5.17,
1.569,-0.13,-0.10,0.50,-0.74,-2.52,-5.17,
1.571,-0.14,-0.10,0.51,-0.74,-2.52,-5.17,
1.571,-0.14,-0.10,0.51,-0.86,-2.41,-5.07,
1.573,-0.14,-0.09,0.52,-0.86,-2.41,-5.07,
1.576,-0.14,-0.08,0.54,-0.86,-2.41,-5.07,
1.576,-0.14,-0.08,0.54,-0.91,-2.30,-4.93,
1.578,-0.13,-0.07,0.55,-0.91,-2.30,-4.93,
1.58,-0.12,-0.07,0.57,-0.91,-2.30,-4.93,
1.581,-0.12,-0.07,0.57,-0.91,-2.18,-4.65,
1.583,-0.11,-0.06,0.58,-0.91,-2.18,-4.65,
1.586,-0.11,-0.06,0.58,-0.80,-2.04,-4.37,
1.586,-0.10,-0.04,0.59,-0.80,-2.04,-4.37,
1.588,-0.10,-0.03,0.60,-0.80,-2.04,-4.37,
1.59,-0.10,-0.03,0.60,-0.65,-1.83,-4.12,
1.591,-0.09,-0.02,0.61,-0.65,-1.83,-4.12,
1.593,-0.08,-0.01,0.62,-0.65,-1.83,-4.12,
1.595,-0.08,-0.00,0.63,-0.65,-1.83,-4.12,
1.596,-0.08,-0.00,0.63,-0.47,-1.63,-3.90,
1.598,-0.07,0.01,0.64,-0.47,-1.63,-3.90,
1.6,-0.07,0.01,0.64,-0.47,-1.63,-3.90,
1.601,-0.07,0.01,0.64,-0.36,-1.47,-3.72,
1.603,-0.07,0.02,0.65,-0.36,-1.47,-3.72,
1.605,-0.07,0.03,0.65,-0.36,-1.47,-3.72,
1.606,-0.07,0.03,0.65,-0.30,-1.31,-3.53,
1.608,-0.07,0.03,0.66,-0.30,-1.31,-3.53,
1.61,-0.07,0.03,0.66,-0.29,-1.17,-3.42,
1.611,-0.07,0.04,0.67,-0.29,-1.17,-3.42,
1.614,-0.08,0.05,0.67,-0.29,-1.17,-3.42,
1.617,-0.08,0.06,0.68,-0.29,-1.17,-3.42,
1.617,-0.08,0.06,0.68,-0.38,-1.06,-3.29,
1.618,-0.08,0.06,0.68,-0.38,-1.06,-3.29,
1.62,-0.09,0.06,0.67,-0.38,-1.06,-3.29,
1.621,-0.09,0.06,0.67,-0.48,-0.92,-3.18,
1.623,-0.10,0.06,0.68,-0.48,-0.92,-3.18,
1.626,-0.10,0.07,0.67,-0.48,-0.92,-3.18,
1.626,-0.10,0.07,0.67,-0.59,-0.89,-3.17,
1.628,-0.10,0.07,0.67,-0.59,-0.89,-3.17,
1.631,-0.11,0.07,0.68,-0.59,-0.89,-3.17,
1.632,-0.11,0.07,0.68,-0.74,-0.82,-3.15,
1.633,-0.12,0.06,0.67,-0.74,-0.82,-3.15,
1.636,-0.12,0.06,0.67,-0.88,-0.81,-3.16,
1.636,-0.13,0.06,0.67,-0.88,-0.81,-3.16,
1.637,-0.14,0.06,0.66,-0.88,-0.81,-3.16,
1.64,-0.15,0.05,0.65,-0.88,-0.81,-3.16,
1.641,-0.15,0.05,0.65,-1.10,-0.89,-3.19,
1.643,-0.16,0.04,0.64,-1.10,-0.89,-3.19,
1.649,-0.17,0.02,0.64,-1.10,-0.89,-3.19,
1.649,-0.17,0.02,0.64,-1.29,-1.01,-3.32,
1.651,-0.18,0.02,0.63,-1.29,-1.01,-3.32,
1.651,-0.19,0.02,0.61,-1.29,-1.01,-3.32,
1.652,-0.19,0.02,0.61,-1.53,-1.22,-3.48,
1.655,-0.20,0.02,0.60,-1.53,-1.22,-3.48,
1.655,-0.20,0.02,0.60,-1.76,-1.35,-3.65,
1.656,-0.21,0.02,0.59,-1.76,-1.35,-3.65,
1.658,-0.22,0.03,0.59,-1.76,-1.35,-3.65,
1.66,-0.22,0.03,0.59,-1.97,-1.36,-3.86,
1.661,-0.22,0.03,0.59,-1.97,-1.36,-3.86,
1.662,-0.23,0.04,0.59,-1.97,-1.36,-3.86,
1.665,-0.24,0.04,0.59,-1.97,-1.36,-3.86,
1.665,-0.24,0.04,0.59,-2.10,-1.27,-3.96,
1.667,-0.25,0.05,0.59,-2.10,-1.27,-3.96,
1.67,-0.25,0.05,0.59,-2.10,-1.27,-3.96,
1.671,-0.25,0.05,0.59,-2.25,-1.17,-3.96,
1.672,-0.25,0.06,0.60,-2.25,-1.17,-3.96,
1.675,-0.25,0.06,0.61,-2.25,-1.17,-3.96,
1.675,-0.25,0.06,0.61,-2.38,-1.07,-3.92,
1.677,-0.25,0.06,0.62,-2.38,-1.07,-3.92,
1.687,-0.25,0.07,0.63,-2.38,-1.07,-3.92,
1.687,-0.25,0.07,0.63,-2.39,-0.97,-3.80,
1.688,-0.24,0.07,0.64,-2.39,-0.97,-3.80,
1.688,-0.24,0.07,0.64,-2.37,-0.90,-3.56,
1.688,-0.23,0.08,0.66,-2.37,-0.90,-3.56,
1.688,-0.23,0.08,0.68,-2.37,-0.90,-3.56,
1.69,-0.22,0.08,0.70,-2.37,-0.90,-3.56,
1.69,-0.22,0.08,0.70,-2.27,-0.79,-3.31,
1.692,-0.22,0.09,0.71,-2.27,-0.79,-3.31,
1.695,-0.21,0.09,0.73,-2.27,-0.79,-3.31,
1.695,-0.21,0.09,0.73,-2.14,-0.71,-2.95,
1.697,-0.21,0.09,0.75,-2.14,-0.71,-2.95,
1.708,-0.20,0.09,0.77,-2.14,-0.71,-2.95,
1.709,-0.20,0.09,0.77,-2.02,-0.62,-2.61,
1.709,-0.19,0.09,0.78,-2.02,-0.62,-2.61,
1.709,-0.19,0.09,0.80,-2.02,-0.62,-2.61,
1.71,-0.19,0.09,0.80,-1.93,-0.53,-2.26,
1.71,-0.19,0.10,0.81,-1.93,-0.53,-2.26,
1.71,-0.19,0.10,0.81,-1.84,-0.50,-1.95,
1.71,-0.19,0.11,0.83,-1.84,-0.50,-1.95,
1.712,-0.19,0.12,0.83,-1.84,-0.50,-1.95,
1.716,-0.19,0.12,0.84,-1.84,-0.50,-1.95,
1.717,-0.19,0.12,0.84,-1.84,-0.33,-1.66,
1.717,-0.19,0.13,0.85,-1.84,-0.33,-1.66,
1.72,-0.20,0.14,0.86,-1.84,-0.33,-1.66,
1.721,-0.20,0.14,0.86,-1.83,-0.15,-1.52,
1.722,-0.22,0.15,0.87,-1.83,-0.15,-1.52,
1.725,-0.22,0.15,0.87,-1.92,0.03,-1.30,
1.725,-0.23,0.15,0.88,-1.92,0.03,-1.30,
1.727,-0.25,0.15,0.89,-1.92,0.03,-1.30,
1.73,-0.27,0.15,0.90,-1.92,0.03,-1.30,
1.73,-0.27,0.15,0.90,-2.19,0.18,-1.15,
1.732,-0.29,0.14,0.90,-2.19,0.18,-1.15,
1.735,-0.31,0.13,0.91,-2.19,0.18,-1.15,
1.735,-0.31,0.13,0.91,-2.56,0.25,-0.95,
1.737,-0.33,0.12,0.93,-2.56,0.25,-0.95,
1.74,-0.36,0.10,0.94,-2.56,0.25,-0.95,
1.74,-0.36,0.10,0.94,-2.98,0.17,-0.80,
1.743,-0.37,0.09,0.95,-2.98,0.17,-0.80,
1.745,-0.38,0.07,0.96,-2.98,0.17,-0.80,
1.745,-0.38,0.07,0.96,-3.42,-0.10,-0.56,
1.748,-0.40,0.06,0.98,-3.42,-0.10,-0.56,
1.75,-0.40,0.05,1.00,-3.42,-0.10,-0.56,
1.751,-0.40,0.05,1.00,-3.76,-0.33,-0.34,
1.752,-0.40,0.04,1.01,-3.76,-0.33,-0.34,
1.755,-0.40,0.04,1.01,-3.96,-0.55,-0.02,
1.755,-0.40,0.03,1.03,-3.96,-0.55,-0.02,
1.757,-0.39,0.03,1.05,-3.96,-0.55,-0.02,
1.76,-0.39,0.03,1.05,-3.99,-0.71,0.27,
1.761,-0.38,0.03,1.06,-3.99,-0.71,0.27,
1.762,-0.37,0.04,1.07,-3.99,-0.71,0.27,
1.764,-0.36,0.05,1.08,-3.99,-0.71,0.27,
1.765,-0.36,0.05,1.08,-3.84,-0.70,0.60,
1.767,-0.35,0.05,1.10,-3.84,-0.70,0.60,
1.769,-0.34,0.06,1.10,-3.84,-0.70,0.60,
1.77,-0.34,0.06,1.10,-3.64,-0.56,0.82,
1.773,-0.32,0.07,1.11,-3.64,-0.56,0.82,
1.775,-0.30,0.08,1.12,-3.64,-0.56,0.82,
1.775,-0.30,0.08,1.12,-3.40,-0.40,1.04,
1.778,-0.29,0.08,1.12,-3.40,-0.40,1.04,
1.78,-0.27,0.09,1.13,-3.40,-0.40,1.04,
1.78,-0.27,0.09,1.13,-3.08,-0.19,1.16,
1.788,-0.27,0.10,1.13,-3.08,-0.19,1.16,
1.788,-0.27,0.10,1.13,-2.78,-0.05,1.28,
1.788,-0.26,0.10,1.13,-2.78,-0.05,1.28,
1.789,-0.25,0.11,1.14,-2.78,-0.05,1.28,
1.789,-0.25,0.11,1.14,-2.60,0.11,1.37,
1.789,-0.25,0.13,1.14,-2.60,0.11,1.37,
1.791,-0.24,0.13,1.13,-2.60,0.11,1.37,
1.794,-0.24,0.13,1.12,-2.60,0.11,1.37,
1.794,-0.24,0.13,1.12,-2.45,0.27,1.39,
1.797,-0.24,0.14,1.12,-2.45,0.27,1.39,
1.799,-0.24,0.14,1.11,-2.45,0.27,1.39,
1.8,-0.24,0.14,1.11,-2.37,0.38,1.28,
1.802,-0.24,0.15,1.09,-2.37,0.38,1.28,
1.804,-0.24,0.15,1.09,-2.37,0.38,1.28,
1.804,-0.24,0.15,1.09,-2.34,0.48,1.15,
1.806,-0.25,0.15,1.08,-2.34,0.48,1.15,
1.81,-0.25,0.15,1.08,-2.37,0.55,0.96,
1.813,-0.26,0.15,1.06,-2.37,0.55,0.96,
1.813,-0.26,0.16,1.05,-2.37,0.55,0.96,
1.814,-0.27,0.16,1.04,-2.37,0.55,0.96,
1.814,-0.27,0.16,1.04,-2.48,0.60,0.72,
1.817,-0.28,0.16,1.03,-2.48,0.60,0.72,
1.82,-0.28,0.16,1.03,-2.56,0.68,0.52,
1.82,-0.29,0.17,1.02,-2.56,0.68,0.52,
1.821,-0.29,0.17,1.01,-2.56,0.68,0.52,
1.825,-0.30,0.17,1.00,-2.56,0.68,0.52,
1.826,-0.30,0.17,1.00,-2.73,0.71,0.29,
1.826,-0.31,0.17,1.00,-2.73,0.71,0.29,
1.829,-0.31,0.17,0.99,-2.73,0.71,0.29,
1.829,-0.31,0.17,0.99,-2.90,0.74,0.08,
1.831,-0.32,0.16,0.99,-2.90,0.74,0.08,
1.833,-0.32,0.16,0.99,-3.03,0.72,-0.03,
1.834,-0.32,0.16,0.98,-3.03,0.72,-0.03,
1.836,-0.32,0.15,0.98,-3.03,0.72,-0.03,
1.839,-0.32,0.14,0.97,-3.03,0.72,-0.03,
1.839,-0.32,0.14,0.97,-3.13,0.64,-0.09,
1.842,-0.32,0.14,0.98,-3.13,0.64,-0.09,
1.845,-0.31,0.13,0.99,-3.13,0.64,-0.09,
1.846,-0.31,0.13,0.99,-3.10,0.51,-0.18,
1.846,-0.30,0.13,0.99,-3.10,0.51,-0.18,
1.851,-0.29,0.12,0.99,-3.10,0.51,-0.18,
1.851,-0.29,0.12,0.99,-3.05,0.44,-0.12,
1.852,-0.28,0.12,1.00,-3.05,0.44,-0.12,
1.854,-0.25,0.12,1.01,-3.05,0.44,-0.12,
1.854,-0.25,0.12,1.01,-2.88,0.30,-0.04,
1.856,-0.24,0.12,1.01,-2.88,0.30,-0.04,
1.86,-0.24,0.12,1.01,-2.57,0.26,0.12,
1.86,-0.22,0.12,1.02,-2.57,0.26,0.12,
1.86,-0.21,0.12,1.03,-2.57,0.26,0.12,
1.864,-0.19,0.13,1.04,-2.57,0.26,0.12,
1.864,-0.19,0.13,1.04,-2.26,0.29,0.22,
1.868,-0.18,0.13,1.05,-2.26,0.29,0.22,
1.869,-0.17,0.12,1.06,-2.26,0.29,0.22,
1.869,-0.17,0.12,1.06,-1.93,0.34,0.38,
1.871,-0.16,0.12,1.07,-1.93,0.34,0.38,
1.874,-0.15,0.12,1.08,-1.93,0.34,0.38,
1.874,-0.15,0.12,1.08,-1.67,0.33,0.57,
1.876,-0.15,0.11,1.09,-1.67,0.33,0.57,
1.879,-0.15,0.11,1.09,-1.67,0.33,0.57,
1.879,-0.15,0.11,1.09,-1.49,0.30,0.77,
1.881,-0.15,0.10,1.10,-1.49,0.30,0.77,
1.883,-0.15,0.10,1.10,-1.38,0.18,0.93,
1.884,-0.14,0.10,1.10,-1.38,0.18,0.93,
1.886,-0.14,0.10,1.10,-1.38,0.18,0.93,
1.888,-0.13,0.10,1.11,-1.38,0.18,0.93,
1.888,-0.13,0.10,1.11,-1.32,0.11,1.04,
1.891,-0.13,0.10,1.11,-1.32,0.11,1.04,
1.893,-0.12,0.10,1.11,-1.32,0.11,1.04,
1.894,-0.12,0.10,1.11,-1.21,0.10,1.08,
1.896,-0.11,0.10,1.10,-1.21,0.10,1.08,
1.898,-0.11,0.11,1.10,-1.21,0.10,1.08,
1.899,-0.11,0.11,1.10,-1.08,0.12,1.13,
1.901,-0.10,0.11,1.10,-1.08,0.12,1.13,
1.904,-0.09,0.11,1.09,-1.08,0.12,1.13,
1.904,-0.09,0.11,1.09,-0.94,0.14,1.05,
1.906,-0.08,0.11,1.08,-0.94,0.14,1.05,
1.908,-0.07,0.11,1.07,-0.94,0.14,1.05,
1.908,-0.07,0.11,1.07,-0.75,0.18,0.98,
1.911,-0.06,0.11,1.06,-0.75,0.18,0.98,
1.913,-0.06,0.12,1.05,-0.75,0.18,0.98,
1.913,-0.06,0.12,1.05,-0.58,0.16,0.79,
1.923,-0.05,0.11,1.05,-0.58,0.16,0.79,
1.923,-0.05,0.12,1.04,-0.58,0.16,0.79,
1.924,-0.05,0.12,1.04,-0.45,0.19,0.60,
1.924,-0.04,0.12,1.02,-0.45,0.19,0.60,
1.925,-0.04,0.12,1.01,-0.45,0.19,0.60,
1.925,-0.04,0.12,1.01,-0.34,0.18,0.43,
1.925,-0.04,0.11,1.00,-0.34,0.18,0.43,
1.928,-0.04,0.11,1.00,-0.22,0.20,0.19,
1.928,-0.04,0.11,0.99,-0.22,0.20,0.19,
1.929,-0.04,0.11,0.99,-0.22,0.20,0.19,
1.937,-0.04,0.11,0.99,-0.22,0.14,0.00,
1.938,-0.04,0.12,0.98,-0.22,0.14,0.00,
1.938,-0.05,0.11,0.97,-0.22,0.14,0.00,
1.938,-0.06,0.11,0.97,-0.22,0.14,0.00,
1.939,-0.06,0.11,0.97,-0.25,0.13,-0.12,
1.939,-0.06,0.11,0.97,-0.25,0.13,-0.12,
1.942,-0.07,0.11,0.96,-0.25,0.13,-0.12,
1.942,-0.07,0.11,0.96,-0.34,0.08,-0.25,
1.944,-0.08,0.11,0.96,-0.34,0.08,-0.25,
1.947,-0.08,0.11,0.96,-0.34,0.08,-0.25,
1.947,-0.08,0.11,0.96,-0.49,0.08,-0.32,
1.949,-0.09,0.11,0.97,-0.49,0.08,-0.32,
1.952,-0.09,0.11,0.97,-0.49,0.08,-0.32,
1.952,-0.09,0.11,0.97,-0.61,0.04,-0.33,
1.954,-0.10,0.11,0.97,-0.61,0.04,-0.33,
1.957,-0.10,0.11,0.97,-0.70,0.04,-0.28,
1.957,-0.10,0.11,0.97,-0.70,0.04,-0.28,
1.959,-0.10,0.11,0.97,-0.70,0.04,-0.28,
1.962,-0.10,0.11,0.98,-0.70,0.04,-0.28,
1.962,-0.10,0.11,0.98,-0.75,0.04,-0.23,
1.964,-0.10,0.11,0.99,-0.75,0.04,-0.23,
1.967,-0.10,0.11,0.99,-0.75,0.04,-0.23,
1.968,-0.10,0.11,0.99,-0.78,0.03,-0.16,
1.969,-0.10,0.11,0.99,-0.78,0.03,-0.16,
1.972,-0.09,0.11,1.00,-0.78,0.03,-0.16,
1.972,-0.09,0.11,1.00,-0.75,0.04,-0.06,
1.978,-0.09,0.11,1.00,-0.75,0.04,-0.06,
1.979,-0.09,0.11,1.00,-0.75,0.04,-0.06,
1.98,-0.09,0.11,1.00,-0.71,0.07,0.01,
1.98,-0.09,0.12,1.00,-0.71,0.07,0.01,
1.985,-0.09,0.12,1.00,-0.66,0.09,0.05,
1.986,-0.09,0.13,1.01,-0.66,0.09,0.05,
1.987,-0.08,0.12,1.01,-0.66,0.09,0.05,
1.987,-0.09,0.13,1.01,-0.66,0.09,0.05,
1.988,-0.09,0.13,1.01,-0.63,0.17,0.10,
1.989,-0.09,0.13,1.01,-0.63,0.17,0.10,
1.993,-0.09,0.13,1.01,-0.63,0.17,0.10,
1.994,-0.09,0.13,1.01,-0.57,0.21,0.16,
1.995,-0.09,0.13,1.02,-0.57,0.21,0.16,
1.998,-0.09,0.13,1.02,-0.61,0.27,0.16,
1.998,-0.09,0.14,1.01,-0.61,0.27,0.16,
2.001,-0.10,0.14,1.02,-0.61,0.27,0.16,
2.001,-0.10,0.13,1.02,-0.61,0.27,0.16,
2.004,-0.10,0.13,1.02,-0.64,0.31,0.19,
2.004,-0.11,0.13,1.02,-0.64,0.31,0.19,
2.007,-0.11,0.13,1.02,-0.71,0.33,0.21,
2.007,-0.11,0.13,1.02,-0.71,0.33,0.21,
2.014,-0.11,0.13,1.02,-0.71,0.33,0.21,
2.014,-0.12,0.13,1.03,-0.71,0.33,0.21,
2.014,-0.12,0.13,1.03,-0.83,0.28,0.24,
2.015,-0.12,0.13,1.02,-0.83,0.28,0.24,
2.022,-0.12,0.13,1.03,-0.83,0.28,0.24,
2.023,-0.12,0.13,1.03,-0.86,0.29,0.28,
2.023,-0.12,0.14,1.03,-0.86,0.29,0.28,
2.023,-0.12,0.14,1.03,-0.86,0.29,0.28,
2.023,-0.12,0.14,1.03,-0.91,0.28,0.31,
2.023,-0.12,0.14,1.03,-0.91,0.28,0.31,
2.027,-0.12,0.14,1.03,-0.89,0.34,0.35,
2.027,-0.12,0.14,1.04,-0.89,0.34,0.35,
2.029,-0.11,0.14,1.04,-0.89,0.34,0.35,
2.032,-0.11,0.14,1.04,-0.90,0.35,0.40,
2.032,-0.11,0.15,1.05,-0.90,0.35,0.40,
2.034,-0.11,0.14,1.05,-0.90,0.35,0.40,
2.037,-0.10,0.14,1.05,-0.90,0.35,0.40,
2.037,-0.10,0.14,1.05,-0.81,0.40,0.48,
2.039,-0.10,0.14,1.05,-0.81,0.40,0.48,
2.042,-0.10,0.14,1.05,-0.81,0.40,0.48,
2.042,-0.10,0.14,1.05,-0.76,0.39,0.53,
2.045,-0.09,0.14,1.05,-0.76,0.39,0.53,
2.047,-0.09,0.13,1.05,-0.76,0.39,0.53,
2.047,-0.09,0.13,1.05,-0.69,0.35,0.53,
2.051,-0.08,0.13,1.05,-0.69,0.35,0.53,
2.052,-0.08,0.13,1.04,-0.69,0.35,0.53,
2.052,-0.08,0.13,1.04,-0.61,0.31,0.53,
2.054,-0.08,0.13,1.05,-0.61,0.31,0.53,
2.056,-0.08,0.13,1.05,-0.54,0.24,0.49,
2.057,-0.08,0.13,1.04,-0.54,0.24,0.49,
2.058,-0.08,0.13,1.03,-0.54,0.24,0.49,
2.062,-0.08,0.13,1.03,-0.54,0.24,0.49,
2.062,-0.08,0.13,1.03,-0.54,0.22,0.45,
2.064,-0.08,0.13,1.02,-0.54,0.22,0.45,
2.068,-0.07,0.13,1.02,-0.54,0.22,0.45,
2.069,-0.07,0.13,1.02,-0.51,0.25,0.36,
2.069,-0.07,0.12,1.01,-0.51,0.25,0.36,
2.073,-0.07,0.12,1.00,-0.51,0.25,0.36,
2.073,-0.07,0.12,1.00,-0.46,0.19,0.25,
2.073,-0.07,0.12,1.00,-0.46,0.19,0.25,
2.077,-0.07,0.12,1.00,-0.46,0.19,0.25,
2.077,-0.07,0.12,1.00,-0.40,0.11,0.10,
2.08,-0.08,0.12,0.99,-0.40,0.11,0.10,
2.082,-0.08,0.12,0.99,-0.41,0.09,0.03,
2.082,-0.08,0.12,0.99,-0.41,0.09,0.03,
2.085,-0.07,0.12,0.99,-0.41,0.09,0.03,
2.086,-0.07,0.12,0.98,-0.41,0.09,0.03,
2.086,-0.07,0.12,0.98,-0.46,0.06,-0.02,
2.09,-0.07,0.13,0.98,-0.46,0.06,-0.02,
2.092,-0.07,0.13,0.98,-0.46,0.06,-0.02,
2.092,-0.07,0.13,0.98,-0.43,0.09,-0.10,
2.094,-0.07,0.12,0.98,-0.43,0.09,-0.10,
2.097,-0.07,0.13,0.98,-0.43,0.09,-0.10,
2.097,-0.07,0.13,0.98,-0.42,0.13,-0.17,
2.099,-0.07,0.13,0.97,-0.42,0.13,-0.17,
2.102,-0.07,0.12,0.98,-0.42,0.13,-0.17,
2.103,-0.07,0.12,0.98,-0.40,0.12,-0.16,
2.103,-0.06,0.13,0.98,-0.40,0.12,-0.16,
2.106,-0.06,0.13,0.98,-0.39,0.09,-0.21,
2.106,-0.06,0.12,0.98,-0.39,0.09,-0.21,
2.109,-0.05,0.13,0.98,-0.39,0.09,-0.21,
2.112,-0.04,0.13,0.99,-0.39,0.09,-0.21,
2.112,-0.04,0.13,0.99,-0.29,0.07,-0.16,
2.114,-0.04,0.12,0.99,-0.29,0.07,-0.16,
2.116,-0.04,0.12,1.00,-0.29,0.07,-0.16,
2.117,-0.04,0.12,1.00,-0.19,0.09,-0.07,
2.12,-0.04,0.11,1.00,-0.19,0.09,-0.07,
2.122,-0.03,0.11,1.00,-0.19,0.09,-0.07,
2.122,-0.03,0.11,1.00,-0.10,0.00,-0.03,
2.123,-0.02,0.11,1.01,-0.10,0.00,-0.03,
2.126,-0.02,0.11,1.01,-0.06,-0.08,0.05,
2.127,-0.01,0.11,1.01,-0.06,-0.08,0.05,
2.129,-0.01,0.11,1.02,-0.06,-0.08,0.05,
2.132,-0.01,0.11,1.02,0.11,-0.06,0.13,
2.132,0.00,0.11,1.02,0.11,-0.06,0.13,
2.139,0.01,0.11,1.02,0.11,-0.06,0.13,
2.14,0.02,0.11,1.02,0.11,-0.06,0.13,
2.14,0.02,0.11,1.02,0.24,-0.07,0.21,
2.14,0.03,0.11,1.02,0.24,-0.07,0.21,
2.143,0.03,0.11,1.03,0.24,-0.07,0.21,
2.144,0.03,0.11,1.03,0.43,-0.06,0.28,
2.144,0.03,0.11,1.03,0.43,-0.06,0.28,
2.145,0.03,0.11,1.02,0.43,-0.06,0.28,
2.146,0.03,0.11,1.02,0.54,-0.12,0.30,
2.148,0.04,0.11,1.03,0.54,-0.12,0.30,
2.154,0.04,0.10,1.03,0.54,-0.12,0.30,
2.154,0.04,0.10,1.03,0.60,-0.09,0.29,
2.155,0.05,0.10,1.02,0.60,-0.09,0.29,
2.155,0.05,0.10,1.02,0.67,-0.17,0.33,
2.155,0.05,0.10,1.01,0.67,-0.17,0.33,
2.157,0.05,0.11,1.01,0.67,-0.17,0.33,
2.161,0.06,0.11,1.01,0.67,-0.17,0.33,
2.161,0.06,0.11,1.01,0.74,-0.21,0.20,
2.163,0.05,0.12,1.00,0.74,-0.21,0.20,
2.165,0.05,0.12,0.99,0.74,-0.21,0.20,
2.166,0.05,0.12,0.99,0.81,-0.15,0.13,
2.168,0.05,0.12,0.98,0.81,-0.15,0.13,
2.171,0.05,0.12,0.98,0.81,-0.15,0.13,
2.171,0.05,0.12,0.98,0.80,-0.08,0.00,
2.173,0.04,0.12,0.97,0.80,-0.08,0.00,
2.175,0.04,0.12,0.97,0.80,-0.08,0.00,
2.176,0.04,0.12,0.97,0.78,-0.04,-0.15,
2.178,0.03,0.12,0.96,0.78,-0.04,-0.15,
2.181,0.03,0.12,0.96,0.67,-0.08,-0.25,
2.181,0.03,0.12,0.95,0.67,-0.08,-0.25,
2.183,0.03,0.12,0.94,0.67,-0.08,-0.25,
2.185,0.03,0.12,0.95,0.67,-0.08,-0.25,
2.186,0.03,0.12,0.95,0.57,-0.11,-0.37,
2.188,0.02,0.12,0.94,0.57,-0.11,-0.37,
2.19,0.02,0.12,0.94,0.57,-0.11,-0.37,
2.191,0.02,0.12,0.94,0.54,-0.10,-0.47,
2.193,0.02,0.12,0.94,0.54,-0.10,-0.47,
2.196,0.02,0.11,0.94,0.54,-0.10,-0.47,
2.197,0.02,0.11,0.94,0.48,-0.12,-0.53,
2.197,0.01,0.11,0.93,0.48,-0.12,-0.53,
2.204,0.01,0.11,0.94,0.48,-0.12,-0.53,
2.204,0.01,0.11,0.94,0.43,-0.19,-0.52,
2.205,0.01,0.11,0.93,0.43,-0.19,-0.52,
2.205,0.01,0.11,0.93,0.36,-0.24,-0.57,
2.205,0.01,0.11,0.93,0.36,-0.24,-0.57,
2.207,0.00,0.10,0.93,0.36,-0.24,-0.57,
2.211,0.00,0.10,0.93,0.33,-0.27,-0.60,
2.211,-0.01,0.11,0.93,0.33,-0.27,-0.60,
2.213,-0.01,0.11,0.94,0.33,-0.27,-0.60,
2.216,-0.02,0.11,0.94,0.33,-0.27,-0.60,
2.216,-0.02,0.11,0.94,0.24,-0.29,-0.58,
2.219,-0.02,0.11,0.94,0.24,-0.29,-0.58,
2.221,-0.03,0.12,0.94,0.24,-0.29,-0.58,
2.221,-0.03,0.12,0.94,0.12,-0.23,-0.54,
2.222,-0.04,0.12,0.94,0.12,-0.23,-0.54,
2.226,-0.04,0.13,0.96,0.12,-0.23,-0.54,
2.226,-0.04,0.13,0.96,0.02,-0.18,-0.50,
2.227,-0.04,0.13,0.96,0.02,-0.18,-0.50,
2.23,-0.04,0.13,0.96,-0.09,-0.09,-0.42,
2.231,-0.04,0.13,0.96,-0.09,-0.09,-0.42,
2.232,-0.04,0.13,0.97,-0.09,-0.09,-0.42,
2.239,-0.05,0.13,0.97,-0.09,-0.09,-0.42,
2.239,-0.05,0.13,0.97,-0.13,-0.03,-0.36,
2.24,-0.08,0.14,0.94,-0.13,-0.03,-0.36,
2.24,-0.09,0.15,0.90,-0.13,-0.03,-0.36,
2.24,-0.09,0.15,0.90,-0.17,-0.02,-0.22,
2.242,-0.11,0.16,0.88,-0.17,-0.02,-0.22,
2.245,-0.12,0.16,0.86,-0.17,-0.02,-0.22,
2.245,-0.12,0.16,0.86,-0.54,0.08,-0.72,
2.247,-0.13,0.17,0.85,-0.54,0.08,-0.72,
2.249,-0.12,0.17,0.87,-0.54,0.08,-0.72,
2.25,-0.12,0.17,0.87,-0.84,0.26,-1.23,
2.253,-0.11,0.16,0.89,-0.84,0.26,-1.23,
2.254,-0.11,0.16,0.89,-0.93,0.37,-1.25,
2.254,-0.10,0.16,0.91,-0.93,0.37,-1.25,
2.257,-0.09,0.16,0.91,-0.93,0.37,-1.25,
2.259,-0.09,0.16,0.92,-0.93,0.37,-1.25,
2.259,-0.09,0.16,0.92,-0.73,0.33,-0.88,
2.262,-0.07,0.17,0.92,-0.73,0.33,-0.88,
2.264,-0.06,0.16,0.92,-0.73,0.33,-0.88,
2.265,-0.06,0.16,0.92,-0.56,0.31,-0.77,
2.267,-0.05,0.17,0.93,-0.56,0.31,-0.77,
2.269,-0.03,0.17,0.94,-0.56,0.31,-0.77,
2.27,-0.03,0.17,0.94,-0.34,0.36,-0.69,
2.276,-0.02,0.17,0.95,-0.34,0.36,-0.69,
2.277,-0.00,0.17,0.95,-0.34,0.36,-0.69,
2.277,-0.00,0.17,0.95,-0.09,0.40,-0.56,
2.278,0.01,0.16,0.96,-0.09,0.40,-0.56,
2.28,0.01,0.16,0.96,0.23,0.42,-0.39,
2.28,0.02,0.16,0.98,0.23,0.42,-0.39,
2.282,0.02,0.16,0.99,0.23,0.42,-0.39,
2.292,0.03,0.16,0.99,0.23,0.42,-0.39,
2.293,0.03,0.16,0.99,0.45,0.38,-0.23,
2.293,0.04,0.15,1.01,0.45,0.38,-0.23,
2.293,0.04,0.15,1.02,0.45,0.38,-0.23,
2.293,0.04,0.15,1.02,0.58,0.35,-0.01,
2.294,0.05,0.15,1.03,0.58,0.35,-0.01,
2.294,0.04,0.14,1.03,0.58,0.35,-0.01,
2.294,0.04,0.14,1.03,0.71,0.29,0.20,
2.297,0.05,0.14,1.04,0.71,0.29,0.20,
2.299,0.05,0.14,1.04,0.71,0.29,0.20,
2.299,0.05,0.14,1.04,0.79,0.25,0.35,
2.307,0.05,0.13,1.05,0.79,0.25,0.35,
2.308,0.05,0.13,1.05,0.80,0.17,0.49,
2.311,0.04,0.13,1.06,0.80,0.17,0.49,
2.311,0.04,0.13,1.07,0.80,0.17,0.49,
2.311,0.04,0.13,1.08,0.80,0.17,0.49,
2.311,0.04,0.13,1.08,0.79,0.14,0.62,
2.312,0.03,0.13,1.09,0.79,0.14,0.62,
2.324,0.03,0.13,1.09,0.79,0.14,0.62,
2.325,0.03,0.13,1.09,0.77,0.09,0.79,
2.325,0.02,0.13,1.10,0.77,0.09,0.79,
2.325,0.01,0.13,1.10,0.77,0.09,0.79,
2.325,0.01,0.13,1.10,0.66,0.11,0.97,
2.326,0.01,0.13,1.10,0.66,0.11,0.97,
2.326,0.03,0.13,1.10,0.66,0.11,0.97,
2.326,0.03,0.13,1.10,0.51,0.09,1.06,
2.326,0.04,0.13,1.09,0.51,0.09,1.06,
2.328,0.02,0.14,1.07,0.51,0.09,1.06,
2.328,0.02,0.14,1.07,0.58,0.07,1.04,
2.331,-0.00,0.13,1.05,0.58,0.07,1.04,
2.333,-0.02,0.12,1.03,0.58,0.07,1.04,
2.334,-0.02,0.12,1.03,0.65,0.11,0.85,
2.34,-0.05,0.11,1.02,0.65,0.11,0.85,
2.34,-0.07,0.11,1.00,0.65,0.11,0.85,
2.341,-0.07,0.11,1.00,0.21,-0.02,0.46,
2.341,-0.09,0.11,0.98,0.21,-0.02,0.46,
