
time,gFx,gFy,gFz,ax,ay,az,
0.006,-0.01,0.19,0.96,-0.24,0.06,-0.27,
0.006,-0.00,0.18,0.96,-0.24,0.06,-0.27,
0.006,-0.00,0.18,0.96,-0.28,0.06,-0.24,
0.007,0.01,0.18,0.95,-0.28,0.06,-0.24,
0.007,0.01,0.19,0.96,-0.28,0.06,-0.24,
0.007,0.01,0.19,0.96,-0.24,-0.02,-0.24,
0.007,0.02,0.18,0.97,-0.24,-0.02,-0.24,
0.007,0.02,0.18,0.97,-0.24,-0.02,-0.24,
0.008,0.02,0.18,0.97,-0.09,-0.03,-0.25,
0.012,0.03,0.18,0.97,-0.09,-0.03,-0.25,
0.012,0.02,0.19,0.98,-0.09,-0.03,-0.25,
0.013,0.02,0.19,0.98,0.00,-0.03,-0.16,
0.013,0.03,0.19,0.97,0.00,-0.03,-0.16,
0.016,0.04,0.19,0.97,0.00,-0.03,-0.16,
0.017,0.04,0.19,0.97,0.07,-0.02,-0.11,
0.025,0.04,0.19,0.98,0.07,-0.02,-0.11,
0.025,0.04,0.19,0.98,0.07,-0.02,-0.11,
0.025,0.04,0.19,0.98,0.15,0.06,-0.14,
0.026,0.04,0.20,0.98,0.15,0.06,-0.14,
0.026,0.04,0.20,0.98,0.15,0.06,-0.14,
0.026,0.04,0.20,0.98,0.18,0.06,-0.04,
0.029,0.05,0.20,0.98,0.18,0.06,-0.04,
0.032,0.05,0.20,0.98,0.18,0.06,-0.04,
0.032,0.05,0.20,0.98,0.20,0.13,-0.07,
0.034,0.04,0.20,0.98,0.20,0.13,-0.07,
0.044,0.05,0.20,0.97,0.20,0.13,-0.07,
0.045,0.05,0.20,0.97,0.26,0.14,-0.06,
0.045,0.04,0.20,0.98,0.26,0.14,-0.06,
0.045,0.04,0.19,0.97,0.26,0.14,-0.06,
0.045,0.04,0.19,0.97,0.22,0.13,-0.07,
0.046,0.04,0.19,0.97,0.22,0.13,-0.07,
0.046,0.04,0.19,0.97,0.22,0.13,-0.07,
0.046,0.04,0.19,0.97,0.23,0.11,-0.10,
0.049,0.03,0.19,0.97,0.23,0.11,-0.10,
0.051,0.03,0.18,0.97,0.23,0.11,-0.10,
0.051,0.03,0.18,0.97,0.19,0.08,-0.12,
0.061,0.03,0.18,0.96,0.19,0.08,-0.12,
0.061,0.03,0.18,0.96,0.19,0.08,-0.12,
0.061,0.03,0.18,0.96,0.14,0.02,-0.11,
0.062,0.03,0.17,0.97,0.14,0.02,-0.11,
0.062,0.03,0.17,0.96,0.14,0.02,-0.11,
0.062,0.03,0.17,0.96,0.12,0.02,-0.23,
0.064,0.02,0.17,0.96,0.12,0.02,-0.23,
0.066,0.01,0.17,0.95,0.12,0.02,-0.23,
0.066,0.01,0.17,0.95,0.09,-0.07,-0.18,
0.068,0.01,0.16,0.95,0.09,-0.07,-0.18,
0.076,0.00,0.16,0.95,0.09,-0.07,-0.18,
0.076,0.00,0.16,0.95,-0.04,-0.12,-0.27,
0.077,0.00,0.15,0.95,-0.04,-0.12,-0.27,
0.077,0.00,0.15,0.95,-0.14,-0.18,-0.32,
0.077,0.00,0.15,0.95,-0.14,-0.18,-0.32,
0.078,0.00,0.16,0.94,-0.14,-0.18,-0.32,
0.081,0.01,0.16,0.95,-0.14,-0.18,-0.32,
0.081,0.01,0.16,0.95,-0.16,-0.22,-0.34,
0.083,0.01,0.16,0.94,-0.16,-0.22,-0.34,
0.094,0.01,0.16,0.94,-0.12,-0.14,-0.37,
0.095,0.01,0.17,0.95,-0.12,-0.14,-0.37,
0.095,0.01,0.17,0.95,-0.12,-0.14,-0.37,
0.096,0.01,0.17,0.95,-0.10,-0.07,-0.37,
0.096,0.01,0.17,0.95,-0.10,-0.07,-0.37,
0.096,0.01,0.17,0.95,-0.10,-0.07,-0.37,
0.096,0.01,0.17,0.97,-0.10,-0.07,-0.37,
0.097,0.01,0.17,0.97,-0.05,-0.04,-0.29,
0.098,0.01,0.17,0.98,-0.05,-0.04,-0.29,
0.101,0.02,0.18,0.98,-0.05,-0.04,-0.29,
0.101,0.02,0.18,0.98,-0.05,0.03,-0.23,
0.11,0.03,0.19,0.97,-0.05,0.03,-0.23,
0.111,0.04,0.18,0.96,-0.05,0.03,-0.23,
0.111,0.04,0.18,0.96,-0.00,0.10,-0.03,
0.111,0.05,0.18,0.97,-0.00,0.10,-0.03,
0.112,0.05,0.18,0.97,0.16,0.17,-0.14,
0.112,0.05,0.18,0.98,0.16,0.17,-0.14,
0.112,0.05,0.18,0.99,0.16,0.17,-0.14,
0.116,0.04,0.18,1.00,0.16,0.17,-0.14,
0.116,0.04,0.18,1.00,0.29,0.15,-0.10,
0.118,0.04,0.20,1.01,0.29,0.15,-0.10,
0.127,0.03,0.19,1.01,0.29,0.15,-0.10,
0.128,0.03,0.19,1.01,0.23,0.17,0.09,
0.128,0.02,0.18,1.01,0.23,0.17,0.09,
0.128,0.00,0.17,1.01,0.23,0.17,0.09,
0.128,0.00,0.17,1.01,0.13,0.31,0.24,
0.129,0.00,0.16,1.02,0.13,0.31,0.24,
0.13,-0.00,0.16,1.02,0.13,0.31,0.24,
0.131,-0.00,0.16,1.02,-0.09,0.13,0.27,
0.133,0.01,0.16,1.02,-0.09,0.13,0.27,
0.135,0.02,0.17,1.02,-0.09,0.13,0.27,
0.135,0.02,0.17,1.02,-0.20,-0.01,0.32,
0.146,0.04,0.19,1.02,-0.20,-0.01,0.32,
0.147,0.04,0.19,1.01,-0.20,-0.01,0.32,
0.148,0.04,0.19,1.01,-0.08,0.04,0.37,
0.148,0.05,0.17,1.01,-0.08,0.04,0.37,
0.148,0.05,0.17,1.01,-0.08,0.04,0.37,
0.148,0.05,0.17,1.01,0.17,0.28,0.32,
0.148,0.05,0.16,1.01,0.17,0.28,0.32,
0.15,0.06,0.17,0.99,0.17,0.28,0.32,
0.15,0.06,0.17,0.99,0.23,0.12,0.26,
0.152,0.08,0.17,0.98,0.23,0.12,0.26,
0.16,0.09,0.18,0.95,0.23,0.12,0.26,
0.161,0.09,0.18,0.95,0.31,0.04,0.13,
0.161,0.07,0.18,0.97,0.31,0.04,0.13,
0.164,0.06,0.18,0.98,0.31,0.04,0.13,
0.165,0.06,0.18,0.98,0.56,0.14,-0.19,
0.166,0.04,0.18,0.99,0.56,0.14,-0.19,
0.166,0.04,0.18,1.00,0.56,0.14,-0.19,
0.167,0.04,0.18,1.00,0.37,0.18,-0.12,
0.167,0.04,0.17,1.01,0.37,0.18,-0.12,
0.178,0.04,0.17,1.02,0.37,0.18,-0.12,
0.178,0.04,0.17,1.02,0.15,0.20,0.06,
0.179,0.04,0.17,1.03,0.15,0.20,0.06,
0.179,0.04,0.17,1.03,0.15,0.20,0.06,
0.179,0.04,0.17,1.03,0.15,0.12,0.27,
0.18,0.04,0.16,1.04,0.15,0.12,0.27,
0.18,0.03,0.16,1.04,0.15,0.12,0.27,
0.18,0.03,0.16,1.04,0.10,0.09,0.40,
0.183,0.03,0.16,1.05,0.10,0.09,0.40,
0.184,0.02,0.15,1.05,0.10,0.09,0.40,
0.184,0.02,0.15,1.05,0.06,0.02,0.48,
0.192,0.03,0.15,1.05,0.06,0.02,0.48,
0.192,0.03,0.15,1.05,0.06,0.02,0.48,
0.192,0.03,0.15,1.05,-0.02,-0.02,0.61,
0.192,0.03,0.15,1.04,-0.02,-0.02,0.61,
0.194,0.03,0.15,1.04,-0.02,-0.05,0.57,
0.194,0.02,0.15,1.04,-0.02,-0.05,0.57,
0.197,0.02,0.15,1.05,-0.02,-0.05,0.57,
0.199,0.02,0.15,1.05,-0.02,-0.05,0.57,
0.2,0.02,0.15,1.05,-0.03,-0.05,0.52,
0.202,0.01,0.15,1.04,-0.03,-0.05,0.52,
0.21,0.01,0.15,1.04,-0.03,-0.05,0.52,
0.211,0.01,0.15,1.04,-0.07,-0.06,0.56,
0.211,0.02,0.15,1.03,-0.07,-0.06,0.56,
0.211,0.03,0.17,1.03,-0.07,-0.06,0.56,
0.211,0.03,0.17,1.03,-0.12,-0.03,0.48,
0.212,0.04,0.20,1.05,-0.12,-0.03,0.48,
0.215,0.05,0.22,1.05,-0.12,-0.03,0.48,
0.215,0.05,0.22,1.05,-0.03,0.03,0.39,
0.217,0.05,0.21,1.04,-0.03,0.03,0.39,
0.225,0.06,0.20,1.04,-0.03,0.03,0.39,
0.226,0.06,0.20,1.04,0.18,0.50,0.56,
0.226,0.06,0.20,1.04,0.18,0.50,0.56,
0.226,0.06,0.20,1.03,0.18,0.50,0.56,
0.227,0.06,0.20,1.03,0.31,0.44,0.49,
0.227,0.06,0.19,1.04,0.31,0.44,0.49,
0.229,0.05,0.19,1.04,0.31,0.44,0.49,
0.23,0.05,0.19,1.04,0.36,0.39,0.44,
0.232,0.06,0.19,1.03,0.36,0.39,0.44,
0.234,0.05,0.19,1.04,0.36,0.39,0.44,
0.234,0.05,0.19,1.04,0.32,0.29,0.44,
0.241,0.05,0.19,1.04,0.32,0.29,0.44,
0.241,0.04,0.18,1.04,0.32,0.29,0.44,
0.241,0.04,0.18,1.04,0.28,0.25,0.43,
0.242,0.04,0.18,1.05,0.28,0.25,0.43,
0.244,0.04,0.18,1.04,0.28,0.25,0.43,
0.244,0.04,0.18,1.04,0.23,0.21,0.47,
0.249,0.04,0.18,1.04,0.23,0.21,0.47,
0.249,0.04,0.17,1.05,0.23,0.21,0.47,
0.249,0.04,0.17,1.05,0.18,0.14,0.53,
0.251,0.03,0.17,1.05,0.18,0.14,0.53,
0.263,0.03,0.18,1.05,0.18,0.14,0.53,
0.263,0.03,0.18,1.05,0.13,0.07,0.52,
0.264,0.03,0.17,1.05,0.13,0.07,0.52,
0.264,0.03,0.17,1.05,0.06,0.04,0.56,
0.264,0.02,0.17,1.04,0.06,0.04,0.56,
0.264,0.02,0.17,1.05,0.06,0.04,0.56,
0.265,0.02,0.17,1.05,0.01,0.00,0.51,
0.265,0.02,0.17,1.04,0.01,0.00,0.51,
0.266,0.02,0.17,1.05,0.01,0.00,0.51,
0.269,0.02,0.17,1.04,0.01,0.00,0.51,
0.269,0.02,0.17,1.04,-0.05,-0.02,0.52,
0.277,0.02,0.17,1.03,-0.05,-0.02,0.52,
0.278,0.02,0.17,1.03,-0.05,-0.02,0.52,
0.278,0.02,0.17,1.03,-0.04,-0.06,0.49,
0.278,0.01,0.17,1.03,-0.04,-0.06,0.49,
0.279,0.01,0.17,1.03,-0.04,-0.06,0.49,
0.279,0.01,0.17,1.03,-0.06,-0.08,0.39,
0.281,0.01,0.17,1.02,-0.06,-0.08,0.39,
0.284,0.01,0.17,1.02,-0.06,-0.08,0.39,
0.285,0.01,0.17,1.02,-0.13,-0.08,0.38,
0.294,0.01,0.17,1.01,-0.13,-0.08,0.38,
0.295,0.01,0.17,1.01,-0.13,-0.08,0.38,
0.295,0.01,0.17,1.01,-0.13,-0.13,0.24,
0.295,0.01,0.17,0.99,-0.13,-0.13,0.24,
0.295,0.01,0.17,1.00,-0.13,-0.13,0.24,
0.296,0.01,0.17,1.00,-0.12,-0.12,0.15,
0.296,0.01,0.17,0.99,-0.12,-0.12,0.15,
0.298,0.00,0.18,0.99,-0.12,-0.12,0.15,
0.299,0.00,0.18,0.99,-0.07,-0.14,0.04,
0.302,0.01,0.18,0.98,-0.07,-0.14,0.04,
0.31,0.00,0.18,0.98,-0.07,-0.14,0.04,
0.31,0.00,0.18,0.98,-0.10,-0.10,0.00,
0.311,0.00,0.18,0.97,-0.10,-0.10,0.00,
0.311,0.01,0.18,0.96,-0.10,-0.10,0.00,
0.311,0.01,0.18,0.96,-0.13,-0.10,-0.11,
0.311,0.00,0.18,0.97,-0.13,-0.10,-0.11,
0.313,0.01,0.18,0.96,-0.13,-0.10,-0.11,
0.313,0.01,0.18,0.96,-0.13,-0.09,-0.24,
0.316,0.00,0.18,0.95,-0.13,-0.09,-0.24,
0.317,0.00,0.19,0.96,-0.13,-0.09,-0.24,
0.318,0.00,0.19,0.96,-0.11,-0.08,-0.28,
0.324,0.00,0.18,0.96,-0.11,-0.08,-0.28,
0.325,0.00,0.19,0.94,-0.11,-0.08,-0.28,
0.327,0.00,0.19,0.94,-0.14,-0.06,-0.34,
0.327,-0.00,0.18,0.95,-0.14,-0.06,-0.34,
0.328,0.00,0.18,0.95,-0.14,-0.06,-0.34,
0.328,0.00,0.18,0.95,-0.11,-0.05,-0.39,
0.33,0.00,0.19,0.95,-0.11,-0.05,-0.39,
0.332,-0.00,0.18,0.95,-0.11,-0.05,-0.39,
0.333,-0.00,0.18,0.95,-0.14,-0.08,-0.40,
0.335,-0.00,0.18,0.94,-0.14,-0.08,-0.40,
0.342,-0.00,0.18,0.95,-0.14,-0.08,-0.40,
0.342,-0.00,0.18,0.95,-0.13,-0.09,-0.40,
0.343,-0.00,0.18,0.95,-0.13,-0.09,-0.40,
0.343,-0.01,0.18,0.94,-0.13,-0.09,-0.40,
0.343,-0.01,0.18,0.94,-0.12,-0.12,-0.40,
0.345,-0.01,0.18,0.95,-0.12,-0.12,-0.40,
0.347,-0.01,0.18,0.94,-0.12,-0.12,-0.40,
0.348,-0.01,0.18,0.94,-0.16,-0.15,-0.41,
0.35,-0.01,0.18,0.94,-0.16,-0.15,-0.41,
0.363,-0.01,0.18,0.94,-0.16,-0.15,-0.41,
0.364,-0.01,0.18,0.94,-0.19,-0.15,-0.42,
0.364,-0.01,0.18,0.94,-0.19,-0.15,-0.42,
0.364,-0.01,0.18,0.94,-0.19,-0.15,-0.42,
0.364,-0.01,0.18,0.94,-0.17,-0.12,-0.49,
0.365,-0.01,0.18,0.93,-0.17,-0.12,-0.49,
0.365,-0.00,0.18,0.94,-0.17,-0.12,-0.49,
0.365,-0.00,0.18,0.94,-0.21,-0.12,-0.46,
0.365,0.00,0.18,0.93,-0.21,-0.12,-0.46,
0.368,0.00,0.18,0.93,-0.21,-0.12,-0.46,
0.368,0.00,0.18,0.93,-0.14,-0.11,-0.50,
0.377,0.01,0.18,0.94,-0.14,-0.11,-0.50,
0.378,0.01,0.18,0.93,-0.14,-0.11,-0.50,
0.378,0.01,0.18,0.93,-0.07,-0.10,-0.51,
0.378,0.02,0.18,0.93,-0.07,-0.10,-0.51,
0.379,0.02,0.18,0.93,-0.07,-0.10,-0.51,
0.379,0.02,0.18,0.93,0.04,-0.09,-0.52,
0.379,0.03,0.18,0.92,0.04,-0.09,-0.52,
0.383,0.03,0.18,0.92,0.11,-0.13,-0.55,
0.383,0.04,0.18,0.92,0.11,-0.13,-0.55,
0.384,0.04,0.17,0.91,0.11,-0.13,-0.55,
0.395,0.04,0.17,0.91,0.11,-0.13,-0.55,
0.396,0.04,0.17,0.91,0.24,-0.13,-0.61,
0.396,0.05,0.17,0.91,0.24,-0.13,-0.61,
0.396,0.06,0.17,0.90,0.24,-0.13,-0.61,
0.396,0.06,0.17,0.90,0.31,-0.22,-0.73,
0.397,0.05,0.16,0.89,0.31,-0.22,-0.73,
0.397,0.05,0.16,0.89,0.31,-0.22,-0.73,
0.397,0.05,0.16,0.89,0.43,-0.24,-0.79,
0.399,0.05,0.17,0.88,0.43,-0.24,-0.79,
0.402,0.05,0.16,0.88,0.43,-0.24,-0.79,
0.402,0.05,0.16,0.88,0.41,-0.26,-0.88,
0.409,0.05,0.16,0.87,0.41,-0.26,-0.88,
0.41,0.04,0.17,0.87,0.41,-0.26,-0.88,
0.41,0.04,0.17,0.87,0.42,-0.26,-1.01,
0.41,0.04,0.17,0.87,0.42,-0.26,-1.01,
0.412,0.03,0.17,0.87,0.42,-0.26,-1.01,
0.412,0.03,0.17,0.87,0.38,-0.25,-1.07,
0.414,0.03,0.17,0.86,0.38,-0.25,-1.07,
0.416,0.02,0.18,0.86,0.38,-0.25,-1.07,
0.417,0.02,0.18,0.86,0.26,-0.20,-1.11,
0.419,0.01,0.18,0.85,0.26,-0.20,-1.11,
0.425,0.01,0.18,0.85,0.26,-0.20,-1.11,
0.426,0.01,0.18,0.85,0.18,-0.14,-1.19,
0.426,0.00,0.18,0.84,0.18,-0.14,-1.19,
0.427,-0.01,0.18,0.85,0.18,-0.14,-1.19,
0.427,-0.01,0.18,0.85,0.03,-0.11,-1.22,
0.429,-0.01,0.17,0.85,0.03,-0.11,-1.22,
0.431,-0.01,0.17,0.84,0.03,-0.11,-1.22,
0.432,-0.01,0.17,0.84,-0.07,-0.11,-1.28,
0.434,-0.02,0.16,0.84,-0.07,-0.11,-1.28,
0.445,-0.01,0.16,0.83,-0.07,-0.11,-1.28,
0.446,-0.01,0.16,0.83,-0.18,-0.16,-1.31,
0.446,-0.02,0.16,0.83,-0.18,-0.16,-1.31,
0.446,-0.01,0.15,0.83,-0.18,-0.16,-1.31,
0.446,-0.01,0.15,0.83,-0.21,-0.24,-1.38,
0.447,-0.01,0.15,0.83,-0.21,-0.24,-1.38,
0.447,-0.01,0.14,0.82,-0.21,-0.24,-1.38,
0.447,-0.01,0.14,0.82,-0.20,-0.31,-1.40,
0.449,-0.01,0.14,0.81,-0.20,-0.31,-1.40,
0.452,-0.01,0.14,0.81,-0.20,-0.31,-1.40,
0.452,-0.01,0.14,0.81,-0.18,-0.41,-1.46,
0.464,-0.00,0.13,0.81,-0.18,-0.41,-1.46,
0.465,-0.00,0.12,0.80,-0.18,-0.41,-1.46,
0.466,-0.00,0.12,0.80,-0.14,-0.50,-1.58,
0.466,0.00,0.12,0.80,-0.14,-0.50,-1.58,
0.466,0.00,0.11,0.80,-0.14,-0.50,-1.58,
0.466,0.00,0.11,0.80,-0.09,-0.61,-1.62,
0.467,0.01,0.11,0.79,-0.09,-0.61,-1.62,
0.467,0.01,0.11,0.79,-0.09,-0.61,-1.62,
0.467,0.01,0.11,0.79,-0.04,-0.67,-1.64,
0.469,0.01,0.11,0.79,-0.04,-0.67,-1.64,
0.477,0.02,0.12,0.78,-0.04,-0.67,-1.64,
0.478,0.02,0.12,0.78,0.02,-0.71,-1.73,
0.478,0.02,0.12,0.78,0.02,-0.71,-1.73,
0.478,0.02,0.12,0.78,0.02,-0.71,-1.73,
0.478,0.02,0.12,0.78,0.06,-0.68,-1.74,
0.478,0.03,0.13,0.79,0.06,-0.68,-1.74,
0.481,0.03,0.13,0.79,0.06,-0.68,-1.74,
0.481,0.03,0.13,0.79,0.13,-0.61,-1.77,
0.483,0.03,0.14,0.80,0.13,-0.61,-1.77,
0.486,0.04,0.15,0.80,0.13,-0.61,-1.77,
0.486,0.04,0.15,0.80,0.16,-0.50,-1.71,
0.491,0.04,0.17,0.82,0.16,-0.50,-1.71,
0.492,0.04,0.17,0.82,0.16,-0.50,-1.71,
0.492,0.04,0.17,0.82,0.21,-0.32,-1.57,
0.497,0.04,0.18,0.83,0.21,-0.32,-1.57,
0.498,0.04,0.19,0.84,0.21,-0.32,-1.57,
0.499,0.04,0.19,0.84,0.23,-0.11,-1.37,
0.499,0.05,0.20,0.86,0.23,-0.11,-1.37,
0.502,0.05,0.20,0.87,0.23,-0.11,-1.37,
0.502,0.05,0.20,0.87,0.22,0.06,-1.18,
0.513,0.04,0.20,0.89,0.22,0.06,-1.18,
0.513,0.05,0.20,0.89,0.22,0.06,-1.18,
0.514,0.05,0.20,0.89,0.27,0.17,-0.93,
0.514,0.05,0.20,0.90,0.27,0.17,-0.93,
0.514,0.05,0.19,0.90,0.27,0.17,-0.93,
0.514,0.05,0.19,0.90,0.20,0.20,-0.67,
0.514,0.05,0.18,0.91,0.20,0.20,-0.67,
0.516,0.05,0.18,0.92,0.20,0.20,-0.67,
0.517,0.05,0.18,0.92,0.22,0.14,-0.53,
0.519,0.05,0.17,0.92,0.22,0.14,-0.53,
0.521,0.05,0.16,0.93,0.22,0.14,-0.53,
0.521,0.05,0.16,0.93,0.22,0.00,-0.42,
0.527,0.05,0.16,0.93,0.22,0.00,-0.42,
0.527,0.05,0.15,0.94,0.22,0.00,-0.42,
0.527,0.05,0.15,0.94,0.22,-0.10,-0.33,
0.528,0.05,0.15,0.94,0.22,-0.10,-0.33,
0.531,0.05,0.15,0.94,0.18,-0.24,-0.22,
0.532,0.05,0.14,0.94,0.18,-0.24,-0.22,
0.534,0.05,0.14,0.93,0.18,-0.24,-0.22,
0.536,0.05,0.14,0.94,0.18,-0.24,-0.22,
0.536,0.05,0.14,0.94,0.18,-0.32,-0.18,
0.544,0.05,0.14,0.93,0.18,-0.32,-0.18,
0.545,0.05,0.13,0.92,0.18,-0.32,-0.18,
0.545,0.05,0.13,0.92,0.12,-0.36,-0.20,
0.545,0.05,0.13,0.92,0.12,-0.36,-0.20,
0.546,0.04,0.13,0.92,0.12,-0.36,-0.20,
0.546,0.04,0.13,0.92,0.11,-0.40,-0.28,
0.549,0.05,0.13,0.91,0.11,-0.40,-0.28,
0.551,0.04,0.13,0.90,0.11,-0.40,-0.28,
0.552,0.04,0.13,0.90,0.06,-0.43,-0.37,
0.553,0.04,0.13,0.90,0.06,-0.43,-0.37,
0.559,0.04,0.14,0.90,0.06,-0.43,-0.37,
0.559,0.04,0.14,0.90,0.05,-0.43,-0.49,
0.56,0.03,0.14,0.89,0.05,-0.43,-0.49,
0.56,0.03,0.15,0.88,0.05,-0.43,-0.49,
0.561,0.03,0.15,0.88,-0.02,-0.39,-0.55,
0.563,0.03,0.15,0.87,-0.02,-0.39,-0.55,
0.566,0.02,0.16,0.86,-0.02,-0.39,-0.55,
0.566,0.02,0.16,0.86,-0.10,-0.30,-0.67,
0.568,0.02,0.16,0.86,-0.10,-0.30,-0.67,
0.582,0.02,0.16,0.85,-0.10,-0.30,-0.67,
0.583,0.02,0.16,0.85,-0.16,-0.19,-0.89,
0.583,0.02,0.16,0.83,-0.16,-0.19,-0.89,
0.583,0.02,0.16,0.83,-0.16,-0.19,-0.89,
0.583,0.02,0.16,0.83,-0.17,-0.13,-1.02,
0.583,0.02,0.17,0.82,-0.17,-0.13,-1.02,
0.584,0.03,0.17,0.81,-0.17,-0.13,-1.02,
0.584,0.03,0.17,0.81,-0.18,-0.11,-1.22,
0.584,0.03,0.17,0.80,-0.18,-0.11,-1.22,
0.585,0.02,0.17,0.79,-0.18,-0.11,-1.22,
0.585,0.02,0.17,0.79,-0.13,-0.07,-1.37,
0.594,0.02,0.17,0.78,-0.13,-0.07,-1.37,
0.594,0.03,0.17,0.77,-0.13,-0.07,-1.37,
0.595,0.03,0.17,0.77,-0.13,-0.04,-1.55,
0.595,0.03,0.17,0.76,-0.13,-0.04,-1.55,
0.595,0.02,0.17,0.76,-0.13,-0.04,-1.55,
0.595,0.02,0.17,0.76,-0.12,-0.08,-1.73,
0.598,0.02,0.16,0.75,-0.12,-0.08,-1.73,
0.6,0.02,0.16,0.74,-0.12,-0.08,-1.73,
0.601,0.02,0.16,0.74,-0.11,-0.08,-1.87,
0.603,0.02,0.15,0.74,-0.11,-0.08,-1.87,
0.612,0.01,0.14,0.73,-0.11,-0.08,-1.87,
0.613,0.01,0.14,0.73,-0.14,-0.17,-2.00,
0.613,0.01,0.14,0.73,-0.14,-0.17,-2.00,
0.613,0.02,0.14,0.72,-0.14,-0.17,-2.00,
0.614,0.02,0.14,0.72,-0.16,-0.27,-2.08,
0.614,0.01,0.14,0.72,-0.16,-0.27,-2.08,
0.615,0.01,0.14,0.71,-0.16,-0.27,-2.08,
0.616,0.01,0.14,0.71,-0.20,-0.36,-2.20,
0.618,0.01,0.13,0.70,-0.20,-0.36,-2.20,
0.62,0.02,0.13,0.71,-0.20,-0.36,-2.20,
0.62,0.02,0.13,0.71,-0.24,-0.37,-2.27,
0.628,0.02,0.13,0.71,-0.24,-0.37,-2.27,
0.628,0.03,0.13,0.71,-0.24,-0.37,-2.27,
0.629,0.03,0.13,0.71,-0.22,-0.46,-2.36,
0.629,0.04,0.13,0.71,-0.22,-0.46,-2.36,
0.63,0.04,0.13,0.71,-0.13,-0.43,-2.33,
0.631,0.05,0.14,0.71,-0.13,-0.43,-2.33,
0.633,0.06,0.15,0.72,-0.13,-0.43,-2.33,
0.636,0.08,0.15,0.73,-0.13,-0.43,-2.33,
0.636,0.08,0.15,0.73,0.05,-0.37,-2.26,
0.637,0.09,0.15,0.74,0.05,-0.37,-2.26,
0.644,0.10,0.16,0.75,0.05,-0.37,-2.26,
0.645,0.10,0.16,0.75,0.24,-0.27,-2.14,
0.645,0.11,0.17,0.77,0.24,-0.27,-2.14,
0.645,0.13,0.17,0.78,0.24,-0.27,-2.14,
0.645,0.13,0.17,0.78,0.48,-0.15,-1.92,
0.648,0.14,0.18,0.79,0.48,-0.15,-1.92,
0.649,0.15,0.18,0.81,0.48,-0.15,-1.92,
0.65,0.15,0.18,0.81,0.69,-0.04,-1.66,
0.652,0.16,0.18,0.82,0.69,-0.04,-1.66,
0.654,0.16,0.18,0.82,0.88,0.04,-1.35,
0.655,0.17,0.19,0.83,0.88,0.04,-1.35,
0.661,0.18,0.18,0.84,0.88,0.04,-1.35,
0.662,0.18,0.18,0.84,0.88,0.04,-1.35,
0.662,0.18,0.18,0.84,1.03,0.05,-1.11,
0.662,0.19,0.18,0.85,1.03,0.05,-1.11,
0.665,0.19,0.18,0.86,1.03,0.05,-1.11,
0.665,0.19,0.18,0.86,1.15,0.00,-0.96,
0.666,0.19,0.17,0.86,1.15,0.00,-0.96,
0.669,0.19,0.16,0.86,1.15,0.00,-0.96,
0.669,0.19,0.16,0.86,1.19,-0.01,-0.84,
0.685,0.19,0.16,0.86,1.19,-0.01,-0.84,
0.686,0.19,0.15,0.86,1.19,-0.01,-0.84,
0.686,0.19,0.15,0.86,1.18,-0.10,-0.76,
0.686,0.19,0.15,0.85,1.18,-0.10,-0.76,
0.687,0.19,0.15,0.85,1.15,-0.21,-0.79,
0.687,0.18,0.14,0.84,1.15,-0.21,-0.79,
0.687,0.18,0.14,0.84,1.15,-0.21,-0.79,
0.687,0.18,0.13,0.83,1.15,-0.21,-0.79,
0.688,0.18,0.13,0.83,1.11,-0.35,-0.92,
0.688,0.18,0.13,0.82,1.11,-0.35,-0.92,
0.696,0.18,0.12,0.81,1.11,-0.35,-0.92,
0.697,0.18,0.12,0.81,1.01,-0.47,-1.02,
0.697,0.17,0.12,0.80,1.01,-0.47,-1.02,
0.698,0.17,0.11,0.79,1.01,-0.47,-1.02,
0.698,0.17,0.11,0.79,1.01,-0.56,-1.21,
0.698,0.18,0.10,0.78,1.01,-0.56,-1.21,
0.699,0.18,0.10,0.78,1.01,-0.56,-1.21,
0.7,0.18,0.10,0.78,0.95,-0.65,-1.36,
0.702,0.18,0.11,0.77,0.95,-0.65,-1.36,
0.704,0.18,0.11,0.77,0.95,-0.65,-1.36,
0.704,0.18,0.11,0.77,0.97,-0.76,-1.50,
0.715,0.18,0.10,0.76,0.97,-0.76,-1.50,
0.716,0.19,0.10,0.76,0.97,-0.76,-1.50,
0.716,0.19,0.10,0.76,0.99,-0.73,-1.56,
0.717,0.19,0.11,0.76,0.99,-0.73,-1.56,
0.717,0.19,0.11,0.76,0.99,-0.73,-1.56,
0.717,0.19,0.11,0.76,1.04,-0.74,-1.67,
0.717,0.20,0.11,0.75,1.04,-0.74,-1.67,
0.72,0.21,0.12,0.75,1.04,-0.74,-1.67,
0.72,0.21,0.12,0.75,1.11,-0.70,-1.67,
0.728,0.21,0.12,0.75,1.11,-0.70,-1.67,
0.729,0.21,0.12,0.75,1.11,-0.70,-1.67,
0.729,0.21,0.12,0.75,1.19,-0.65,-1.77,
0.729,0.21,0.13,0.75,1.19,-0.65,-1.77,
0.729,0.22,0.13,0.76,1.19,-0.65,-1.77,
0.73,0.22,0.13,0.76,1.26,-0.57,-1.79,
0.731,0.22,0.14,0.76,1.26,-0.57,-1.79,
0.733,0.22,0.15,0.77,1.26,-0.57,-1.79,
0.735,0.22,0.15,0.77,1.32,-0.44,-1.71,
0.737,0.23,0.16,0.78,1.32,-0.44,-1.71,
0.745,0.23,0.16,0.79,1.32,-0.44,-1.71,
0.745,0.23,0.16,0.79,1.38,-0.30,-1.62,
0.745,0.23,0.17,0.80,1.38,-0.30,-1.62,
0.746,0.23,0.18,0.81,1.38,-0.30,-1.62,
0.746,0.23,0.18,0.81,1.42,-0.12,-1.43,
0.746,0.23,0.18,0.83,1.42,-0.12,-1.43,
0.748,0.23,0.19,0.84,1.42,-0.12,-1.43,
0.749,0.23,0.19,0.84,1.42,0.08,-1.24,
0.751,0.22,0.19,0.85,1.42,0.08,-1.24,
0.753,0.22,0.19,0.85,1.37,0.19,-0.97,
0.754,0.22,0.19,0.86,1.37,0.19,-0.97,
0.762,0.23,0.18,0.87,1.37,0.19,-0.97,
0.763,0.22,0.18,0.89,1.37,0.19,-0.97,
0.763,0.22,0.18,0.89,1.32,0.27,-0.74,
0.763,0.22,0.17,0.90,1.32,0.27,-0.74,
0.764,0.22,0.16,0.91,1.32,0.27,-0.74,
0.764,0.22,0.16,0.91,1.30,0.21,-0.51,
0.767,0.22,0.15,0.93,1.30,0.21,-0.51,
0.768,0.21,0.14,0.93,1.30,0.21,-0.51,
0.769,0.21,0.14,0.93,1.26,0.08,-0.25,
0.77,0.21,0.12,0.94,1.26,0.08,-0.25,
0.785,0.20,0.11,0.95,1.26,0.08,-0.25,
0.786,0.20,0.11,0.95,1.16,-0.09,-0.04,
0.786,0.19,0.10,0.96,1.16,-0.09,-0.04,
0.787,0.19,0.10,0.96,1.01,-0.27,0.15,
0.787,0.19,0.09,0.96,1.01,-0.27,0.15,
0.787,0.18,0.08,0.97,1.01,-0.27,0.15,
0.787,0.17,0.07,0.97,1.01,-0.27,0.15,
0.788,0.17,0.07,0.97,0.88,-0.42,0.27,
0.788,0.16,0.07,0.97,0.88,-0.42,0.27,
0.788,0.15,0.06,0.97,0.88,-0.42,0.27,
0.788,0.15,0.06,0.97,0.69,-0.57,0.34,
0.798,0.13,0.05,0.97,0.69,-0.57,0.34,
0.799,0.12,0.05,0.97,0.69,-0.57,0.34,
0.8,0.12,0.05,0.97,0.49,-0.67,0.33,
0.8,0.11,0.04,0.97,0.49,-0.67,0.33,
0.8,0.09,0.04,0.96,0.49,-0.67,0.33,
0.8,0.09,0.04,0.96,0.26,-0.78,0.34,
0.8,0.08,0.03,0.95,0.26,-0.78,0.34,
0.803,0.07,0.03,0.94,0.26,-0.78,0.34,
0.805,0.07,0.03,0.94,-0.01,-0.80,0.27,
0.806,0.06,0.03,0.94,-0.01,-0.80,0.27,
0.815,0.06,0.03,0.93,-0.01,-0.80,0.27,
0.816,0.06,0.03,0.93,-0.25,-0.83,0.08,
0.816,0.05,0.02,0.92,-0.25,-0.83,0.08,
0.816,0.05,0.02,0.92,-0.41,-0.84,-0.05,
0.816,0.05,0.02,0.91,-0.41,-0.84,-0.05,
0.817,0.05,0.01,0.90,-0.41,-0.84,-0.05,
0.819,0.05,0.00,0.90,-0.41,-0.84,-0.05,
0.822,0.05,0.00,0.90,-0.52,-0.92,-0.26,
0.822,0.04,-0.00,0.89,-0.52,-0.92,-0.26,
0.829,0.04,-0.00,0.88,-0.52,-0.92,-0.26,
0.829,0.04,-0.00,0.88,-0.54,-0.98,-0.36,
0.83,0.03,-0.01,0.87,-0.54,-0.98,-0.36,
0.83,0.03,-0.02,0.87,-0.54,-0.98,-0.36,
0.83,0.03,-0.02,0.87,-0.57,-1.02,-0.51,
0.83,0.03,-0.02,0.87,-0.57,-1.02,-0.51,
0.832,0.03,-0.03,0.85,-0.57,-1.02,-0.51,
0.833,0.03,-0.03,0.85,-0.63,-1.09,-0.67,
0.835,0.03,-0.04,0.85,-0.63,-1.09,-0.67,
0.837,0.03,-0.05,0.84,-0.63,-1.09,-0.67,
0.845,0.03,-0.05,0.84,-0.67,-1.16,-0.77,
0.846,0.03,-0.06,0.84,-0.67,-1.16,-0.77,
0.846,0.03,-0.06,0.84,-0.67,-1.16,-0.77,
0.846,0.03,-0.06,0.84,-0.69,-1.27,-0.89,
0.846,0.03,-0.06,0.85,-0.69,-1.27,-0.89,
0.848,0.03,-0.06,0.86,-0.69,-1.27,-0.89,
0.848,0.03,-0.06,0.86,-0.71,-1.34,-0.96,
0.85,0.03,-0.05,0.87,-0.71,-1.34,-0.96,
0.852,0.05,-0.05,0.88,-0.71,-1.34,-0.96,
0.853,0.05,-0.05,0.88,-0.70,-1.31,-0.82,
0.855,0.06,-0.04,0.91,-0.70,-1.31,-0.82,
0.86,0.07,-0.03,0.92,-0.70,-1.31,-0.82,
0.861,0.07,-0.03,0.92,-0.58,-1.17,-0.59,
0.861,0.08,-0.02,0.95,-0.58,-1.17,-0.59,
0.862,0.10,-0.02,0.97,-0.58,-1.17,-0.59,
0.863,0.10,-0.02,0.97,-0.36,-0.99,-0.24,
0.865,0.11,-0.01,0.99,-0.36,-0.99,-0.24,
0.868,0.11,0.00,1.02,-0.36,-0.99,-0.24,
0.868,0.11,0.00,1.02,-0.14,-0.76,0.19,
0.87,0.12,0.02,1.04,-0.14,-0.76,0.19,
0.873,0.14,0.02,1.07,-0.14,-0.76,0.19,
0.873,0.14,0.02,1.07,0.01,-0.53,0.66,
0.879,0.15,0.03,1.09,0.01,-0.53,0.66,
0.879,0.15,0.03,1.09,0.18,-0.24,1.12,
0.879,0.16,0.04,1.11,0.18,-0.24,1.12,
0.88,0.18,0.05,1.12,0.18,-0.24,1.12,
0.883,0.19,0.06,1.14,0.18,-0.24,1.12,
0.883,0.19,0.06,1.14,0.37,-0.02,1.54,
0.885,0.20,0.06,1.16,0.37,-0.02,1.54,
0.888,0.21,0.06,1.17,0.37,-0.02,1.54,
0.888,0.21,0.06,1.17,0.60,0.21,1.90,
0.89,0.21,0.07,1.18,0.60,0.21,1.90,
0.899,0.21,0.07,1.19,0.60,0.21,1.90,
0.899,0.21,0.07,1.19,0.74,0.32,2.20,
0.899,0.22,0.07,1.19,0.74,0.32,2.20,
0.9,0.22,0.06,1.19,0.74,0.32,2.20,
0.9,0.22,0.06,1.19,0.79,0.44,2.38,
0.9,0.22,0.05,1.20,0.79,0.44,2.38,
0.903,0.22,0.05,1.20,0.82,0.43,2.45,
0.903,0.22,0.04,1.20,0.82,0.43,2.45,
0.905,0.21,0.03,1.20,0.82,0.43,2.45,
0.915,0.20,0.02,1.20,0.82,0.43,2.45,
0.915,0.20,0.02,1.20,0.80,0.30,2.50,
0.915,0.20,0.01,1.20,0.80,0.30,2.50,
0.916,0.19,0.00,1.19,0.80,0.30,2.50,
0.916,0.19,0.00,1.19,0.68,0.16,2.52,
0.916,0.19,-0.01,1.19,0.68,0.16,2.52,
0.917,0.19,-0.02,1.18,0.68,0.16,2.52,
0.917,0.19,-0.02,1.18,0.56,-0.00,2.47,
0.92,0.19,-0.03,1.17,0.56,-0.00,2.47,
0.922,0.19,-0.04,1.18,0.56,-0.00,2.47,
0.922,0.19,-0.04,1.18,0.48,-0.19,2.36,
0.931,0.20,-0.06,1.17,0.48,-0.19,2.36,
0.931,0.21,-0.07,1.17,0.48,-0.19,2.36,
0.932,0.21,-0.07,1.17,0.47,-0.36,2.27,
0.932,0.21,-0.09,1.16,0.47,-0.36,2.27,
0.932,0.22,-0.09,1.16,0.47,-0.36,2.27,
0.932,0.22,-0.09,1.16,0.57,-0.57,2.20,
0.935,0.23,-0.10,1.15,0.57,-0.57,2.20,
0.937,0.23,-0.11,1.15,0.57,-0.57,2.20,
0.937,0.23,-0.11,1.15,0.70,-0.78,2.11,
0.94,0.24,-0.11,1.14,0.70,-0.78,2.11,
0.946,0.24,-0.11,1.13,0.70,-0.78,2.11,
0.947,0.24,-0.11,1.13,0.87,-0.90,2.00,
0.947,0.25,-0.12,1.13,0.87,-0.90,2.00,
0.948,0.25,-0.11,1.14,0.87,-0.90,2.00,
0.948,0.25,-0.11,1.14,0.96,-0.91,1.86,
0.95,0.25,-0.10,1.14,0.96,-0.91,1.86,
0.952,0.25,-0.10,1.14,1.08,-0.85,1.83,
0.952,0.26,-0.09,1.14,1.08,-0.85,1.83,
0.955,0.27,-0.08,1.14,1.08,-0.85,1.83,
0.957,0.25,-0.07,1.15,1.08,-0.85,1.83,
0.957,0.25,-0.07,1.15,1.17,-0.64,1.87,
0.963,0.25,-0.06,1.15,1.17,-0.64,1.87,
0.963,0.24,-0.05,1.15,1.17,-0.64,1.87,
0.964,0.24,-0.05,1.15,1.24,-0.39,1.92,
0.965,0.22,-0.04,1.15,1.24,-0.39,1.92,
0.967,0.21,-0.03,1.16,1.24,-0.39,1.92,
0.967,0.21,-0.03,1.16,1.11,-0.10,1.96,
0.969,0.19,-0.02,1.16,1.11,-0.10,1.96,
0.971,0.17,-0.02,1.17,1.11,-0.10,1.96,
0.972,0.17,-0.02,1.17,0.89,0.14,2.03,
0.985,0.15,-0.02,1.17,0.89,0.14,2.03,
0.987,0.15,-0.02,1.17,0.53,0.33,2.06,
0.987,0.13,-0.01,1.17,0.53,0.33,2.06,
0.987,0.11,-0.01,1.18,0.53,0.33,2.06,
0.988,0.10,-0.00,1.18,0.53,0.33,2.06,
0.988,0.10,-0.00,1.18,0.17,0.40,2.14,
0.992,0.08,-0.00,1.19,0.17,0.40,2.14,
0.992,0.06,-0.00,1.20,0.17,0.40,2.14,
0.993,0.06,-0.00,1.20,-0.12,0.54,2.22,
0.993,0.05,0.00,1.20,-0.12,0.54,2.22,
0.994,0.04,-0.00,1.19,-0.12,0.54,2.22,
0.994,0.04,-0.00,1.19,-0.41,0.65,2.32,
0.994,0.03,-0.01,1.20,-0.41,0.65,2.32,
1.009,0.02,-0.01,1.21,-0.41,0.65,2.32,
1.01,0.02,-0.01,1.21,-0.67,0.70,2.34,
1.011,0.02,-0.02,1.21,-0.67,0.70,2.34,
1.011,0.02,-0.02,1.21,-0.87,0.66,2.46,
1.011,0.01,-0.03,1.22,-0.87,0.66,2.46,
1.011,0.01,-0.03,1.21,-0.87,0.66,2.46,
1.012,0.01,-0.04,1.22,-0.87,0.66,2.46,
1.012,0.01,-0.04,1.22,-0.91,0.57,2.52,
1.012,0.02,-0.04,1.21,-0.91,0.57,2.52,
1.012,0.03,-0.05,1.21,-0.91,0.57,2.52,
1.013,0.03,-0.05,1.21,-0.89,0.49,2.53,
1.013,0.04,-0.06,1.20,-0.89,0.49,2.53,
1.016,0.05,-0.06,1.19,-0.89,0.49,2.53,
1.016,0.05,-0.06,1.19,-0.77,0.41,2.46,
1.018,0.06,-0.07,1.18,-0.77,0.41,2.46,
1.021,0.07,-0.08,1.17,-0.77,0.41,2.46,
1.021,0.07,-0.08,1.17,-0.57,0.32,2.32,
1.025,0.08,-0.08,1.16,-0.57,0.32,2.32,
1.027,0.08,-0.08,1.16,-0.37,0.22,2.10,
1.027,0.09,-0.09,1.14,-0.37,0.22,2.10,
1.028,0.10,-0.09,1.14,-0.37,0.22,2.10,
1.031,0.11,-0.09,1.12,-0.37,0.22,2.10,
1.031,0.11,-0.09,1.12,-0.08,0.13,1.87,
1.033,0.13,-0.10,1.11,-0.08,0.13,1.87,
1.036,0.13,-0.10,1.10,-0.08,0.13,1.87,
1.037,0.13,-0.10,1.10,0.13,0.11,1.67,
1.038,0.14,-0.10,1.09,0.13,0.11,1.67,
1.041,0.15,-0.11,1.08,0.13,0.11,1.67,
1.042,0.15,-0.11,1.08,0.34,0.09,1.41,
1.044,0.15,-0.11,1.07,0.34,0.09,1.41,
1.046,0.15,-0.12,1.07,0.34,0.09,1.41,
1.046,0.15,-0.12,1.07,0.48,0.01,1.24,
1.048,0.14,-0.13,1.08,0.48,0.01,1.24,
1.05,0.14,-0.13,1.09,0.48,0.01,1.24,
1.05,0.14,-0.13,1.09,0.55,-0.04,1.11,
1.053,0.14,-0.13,1.10,0.55,-0.04,1.11,
1.055,0.13,-0.14,1.11,0.55,-0.04,1.11,
1.057,0.13,-0.14,1.11,0.48,-0.13,1.24,
1.06,0.12,-0.14,1.13,0.48,-0.13,1.24,
1.063,0.10,-0.14,1.14,0.48,-0.13,1.24,
1.063,0.10,-0.14,1.14,0.38,-0.18,1.42,
1.063,0.09,-0.14,1.16,0.38,-0.18,1.42,
1.065,0.07,-0.14,1.18,0.38,-0.18,1.42,
1.065,0.07,-0.14,1.18,0.14,-0.19,1.67,
1.068,0.05,-0.14,1.20,0.14,-0.19,1.67,
1.07,0.03,-0.14,1.21,0.14,-0.19,1.67,
1.07,0.03,-0.14,1.21,-0.13,-0.20,2.03,
1.072,0.01,-0.13,1.23,-0.13,-0.20,2.03,
1.075,-0.00,-0.13,1.25,-0.13,-0.20,2.03,
1.076,-0.00,-0.13,1.25,-0.55,-0.15,2.38,
1.079,-0.01,-0.13,1.26,-0.55,-0.15,2.38,
1.081,-0.02,-0.13,1.27,-0.55,-0.15,2.38,
1.081,-0.02,-0.13,1.27,-0.86,-0.03,2.71,
1.083,-0.03,-0.13,1.28,-0.86,-0.03,2.71,
1.086,-0.03,-0.13,1.29,-0.86,-0.03,2.71,
1.086,-0.03,-0.13,1.29,-1.09,-0.00,2.96,
1.088,-0.04,-0.14,1.29,-1.09,-0.00,2.96,
1.096,-0.03,-0.15,1.29,-1.09,-0.00,2.96,
1.096,-0.03,-0.15,1.29,-1.24,0.02,3.19,
1.098,-0.02,-0.16,1.29,-1.24,0.02,3.19,
1.098,-0.01,-0.17,1.29,-1.24,0.02,3.19,
1.098,-0.01,-0.17,1.29,-1.24,-0.08,3.23,
1.098,0.00,-0.17,1.28,-1.24,-0.08,3.23,
1.1,0.01,-0.19,1.28,-1.24,-0.08,3.23,
1.1,0.01,-0.19,1.28,-1.07,-0.23,3.18,
1.103,0.03,-0.20,1.27,-1.07,-0.23,3.18,
1.106,0.05,-0.20,1.27,-1.07,-0.23,3.18,
1.106,0.05,-0.20,1.27,-0.83,-0.36,3.12,
1.108,0.06,-0.21,1.26,-0.83,-0.36,3.12,
1.11,0.07,-0.21,1.25,-0.83,-0.36,3.12,
1.111,0.07,-0.21,1.25,-0.51,-0.56,3.01,
1.112,0.08,-0.22,1.25,-0.51,-0.56,3.01,
1.115,0.09,-0.22,1.24,-0.51,-0.56,3.01,
1.116,0.09,-0.22,1.24,-0.27,-0.62,2.86,
1.118,0.10,-0.21,1.23,-0.27,-0.62,2.86,
1.12,0.11,-0.21,1.22,-0.27,-0.62,2.86,
1.121,0.11,-0.21,1.22,-0.03,-0.66,2.74,
1.123,0.11,-0.21,1.22,-0.03,-0.66,2.74,
1.125,0.11,-0.21,1.21,-0.03,-0.66,2.74,
1.126,0.11,-0.21,1.21,0.19,-0.61,2.55,
1.128,0.11,-0.21,1.21,0.19,-0.61,2.55,
1.13,0.11,-0.20,1.21,0.19,-0.61,2.55,
1.13,0.11,-0.20,1.21,0.26,-0.55,2.45,
1.133,0.11,-0.19,1.21,0.26,-0.55,2.45,
1.135,0.11,-0.17,1.21,0.26,-0.55,2.45,
1.135,0.11,-0.17,1.21,0.29,-0.49,2.34,
1.138,0.10,-0.16,1.21,0.29,-0.49,2.34,
1.14,0.10,-0.15,1.22,0.29,-0.49,2.34,
1.14,0.10,-0.15,1.22,0.25,-0.24,2.37,
1.143,0.10,-0.14,1.22,0.25,-0.24,2.37,
1.145,0.09,-0.13,1.22,0.25,-0.24,2.37,
1.145,0.09,-0.13,1.22,0.20,0.03,2.43,
1.148,0.08,-0.12,1.22,0.20,0.03,2.43,
1.15,0.08,-0.12,1.22,0.13,0.25,2.45,
1.15,0.07,-0.12,1.23,0.13,0.25,2.45,
1.152,0.06,-0.11,1.23,0.13,0.25,2.45,
1.155,0.06,-0.11,1.23,0.13,0.25,2.45,
1.155,0.06,-0.11,1.23,-0.02,0.43,2.50,
1.158,0.05,-0.10,1.23,-0.02,0.43,2.50,
1.16,0.05,-0.10,1.23,-0.02,0.43,2.50,
1.16,0.05,-0.10,1.23,-0.20,0.53,2.57,
1.162,0.03,-0.10,1.23,-0.20,0.53,2.57,
1.165,0.02,-0.10,1.24,-0.20,0.53,2.57,
1.165,0.02,-0.10,1.24,-0.31,0.60,2.57,
1.168,0.02,-0.10,1.24,-0.31,0.60,2.57,
1.17,0.01,-0.10,1.24,-0.31,0.60,2.57,
1.17,0.01,-0.10,1.24,-0.49,0.60,2.61,
1.172,0.01,-0.09,1.24,-0.49,0.60,2.61,
1.174,0.01,-0.09,1.24,-0.60,0.63,2.58,
1.175,-0.00,-0.10,1.24,-0.60,0.63,2.58,
1.177,-0.00,-0.09,1.23,-0.60,0.63,2.58,
1.179,-0.01,-0.09,1.24,-0.60,0.63,2.58,
1.18,-0.01,-0.09,1.24,-0.72,0.68,2.58,
1.183,-0.01,-0.09,1.23,-0.72,0.68,2.58,
1.185,-0.01,-0.09,1.23,-0.78,0.72,2.55,
1.185,-0.01,-0.09,1.23,-0.78,0.72,2.55,
1.188,-0.00,-0.09,1.22,-0.78,0.72,2.55,
1.19,-0.01,-0.09,1.22,-0.78,0.72,2.55,
1.19,-0.01,-0.09,1.22,-0.84,0.73,2.50,
1.196,0.00,-0.09,1.21,-0.84,0.73,2.50,
1.197,0.01,-0.09,1.21,-0.84,0.73,2.50,
1.197,0.01,-0.09,1.21,-0.79,0.74,2.41,
1.197,0.01,-0.10,1.21,-0.79,0.74,2.41,
1.199,0.01,-0.10,1.21,-0.66,0.71,2.31,
1.199,0.02,-0.10,1.19,-0.66,0.71,2.31,
1.202,0.02,-0.10,1.19,-0.66,0.71,2.31,
1.205,0.03,-0.10,1.18,-0.66,0.71,2.31,
1.206,0.03,-0.10,1.18,-0.57,0.65,2.19,
1.207,0.03,-0.11,1.18,-0.57,0.65,2.19,
1.21,0.03,-0.12,1.17,-0.57,0.65,2.19,
1.21,0.03,-0.12,1.17,-0.47,0.57,2.03,
1.212,0.03,-0.12,1.16,-0.47,0.57,2.03,
1.214,0.03,-0.12,1.17,-0.47,0.57,2.03,
1.214,0.03,-0.12,1.17,-0.41,0.48,1.91,
1.217,0.03,-0.12,1.17,-0.41,0.48,1.91,
1.219,0.03,-0.12,1.17,-0.41,0.48,1.91,
1.22,0.03,-0.12,1.17,-0.40,0.42,1.82,
1.222,0.03,-0.12,1.17,-0.40,0.42,1.82,
1.226,0.03,-0.11,1.18,-0.40,0.42,1.82,
1.227,0.03,-0.11,1.18,-0.43,0.39,1.83,
1.227,0.03,-0.10,1.19,-0.43,0.39,1.83,
1.229,0.03,-0.10,1.20,-0.43,0.39,1.83,
1.23,0.03,-0.10,1.20,-0.41,0.46,1.95,
1.231,0.03,-0.10,1.20,-0.41,0.46,1.95,
1.234,0.04,-0.10,1.20,-0.41,0.46,1.95,
1.234,0.04,-0.10,1.20,-0.43,0.54,2.08,
1.237,0.04,-0.09,1.20,-0.43,0.54,2.08,
1.239,0.03,-0.10,1.21,-0.43,0.54,2.08,
1.24,0.03,-0.10,1.21,-0.40,0.57,2.16,
1.242,0.04,-0.10,1.20,-0.40,0.57,2.16,
1.246,0.04,-0.10,1.20,-0.41,0.59,2.19,
1.246,0.04,-0.10,1.20,-0.41,0.59,2.19,
1.247,0.04,-0.09,1.19,-0.41,0.59,2.19,
1.249,0.04,-0.09,1.19,-0.37,0.58,2.14,
1.249,0.05,-0.10,1.19,-0.37,0.58,2.14,
1.252,0.05,-0.10,1.18,-0.37,0.58,2.14,
1.254,0.05,-0.10,1.18,-0.37,0.58,2.14,
1.255,0.05,-0.10,1.18,-0.32,0.56,2.03,
1.257,0.05,-0.10,1.18,-0.32,0.56,2.03,
1.26,0.05,-0.10,1.17,-0.32,0.56,2.03,
1.261,0.05,-0.10,1.17,-0.27,0.50,1.93,
1.262,0.05,-0.10,1.17,-0.27,0.50,1.93,
1.264,0.05,-0.09,1.16,-0.27,0.50,1.93,
1.264,0.05,-0.09,1.16,-0.28,0.52,1.86,
1.267,0.05,-0.09,1.17,-0.28,0.52,1.86,
1.269,0.06,-0.09,1.17,-0.28,0.52,1.86,
1.269,0.06,-0.09,1.17,-0.27,0.52,1.76,
1.272,0.06,-0.09,1.18,-0.27,0.52,1.76,
1.274,0.06,-0.09,1.18,-0.28,0.55,1.78,
1.275,0.06,-0.09,1.18,-0.28,0.55,1.78,
1.278,0.06,-0.08,1.19,-0.28,0.55,1.78,
1.279,0.07,-0.09,1.19,-0.28,0.55,1.78,
1.279,0.07,-0.09,1.19,-0.24,0.56,1.90,
1.281,0.07,-0.10,1.20,-0.24,0.56,1.90,
1.284,0.08,-0.11,1.20,-0.24,0.56,1.90,
1.285,0.08,-0.11,1.20,-0.20,0.55,1.99,
1.286,0.09,-0.12,1.19,-0.20,0.55,1.99,
1.288,0.09,-0.13,1.19,-0.20,0.55,1.99,
1.289,0.09,-0.13,1.19,-0.11,0.36,2.07,
1.291,0.11,-0.14,1.19,-0.11,0.36,2.07,
1.294,0.11,-0.15,1.20,-0.11,0.36,2.07,
1.295,0.11,-0.15,1.20,0.03,0.16,2.02,
1.295,0.11,-0.16,1.19,0.03,0.16,2.02,
1.298,0.11,-0.16,1.19,0.20,-0.08,2.02,
1.298,0.12,-0.17,1.20,0.20,-0.08,2.02,
1.301,0.12,-0.17,1.19,0.20,-0.08,2.02,
1.303,0.14,-0.17,1.18,0.20,-0.08,2.02,
1.303,0.14,-0.17,1.18,0.25,-0.27,2.01,
1.306,0.15,-0.17,1.18,0.25,-0.27,2.01,
1.308,0.16,-0.18,1.18,0.25,-0.27,2.01,
1.317,0.16,-0.18,1.18,0.39,-0.33,1.90,
1.318,0.16,-0.17,1.18,0.39,-0.33,1.90,
1.318,0.17,-0.17,1.17,0.39,-0.33,1.90,
1.322,0.17,-0.17,1.17,0.59,-0.43,1.83,
1.323,0.18,-0.16,1.16,0.59,-0.43,1.83,
1.323,0.19,-0.15,1.16,0.59,-0.43,1.83,
1.324,0.19,-0.15,1.16,0.72,-0.40,1.78,
1.324,0.20,-0.15,1.16,0.72,-0.40,1.78,
1.324,0.20,-0.15,1.16,0.91,-0.32,1.67,
1.325,0.21,-0.15,1.16,0.91,-0.32,1.67,
1.325,0.21,-0.15,1.15,0.91,-0.32,1.67,
1.334,0.22,-0.15,1.14,0.91,-0.32,1.67,
1.334,0.22,-0.15,1.14,1.05,-0.29,1.59,
1.335,0.22,-0.15,1.13,1.05,-0.29,1.59,
1.335,0.22,-0.14,1.13,1.05,-0.29,1.59,
1.335,0.22,-0.14,1.13,1.14,-0.31,1.46,
1.335,0.22,-0.14,1.12,1.14,-0.31,1.46,
1.338,0.22,-0.14,1.12,1.14,-0.31,1.46,
1.338,0.22,-0.14,1.12,1.18,-0.28,1.33,
1.34,0.22,-0.14,1.12,1.18,-0.28,1.33,
1.343,0.22,-0.14,1.11,1.18,-0.28,1.33,
1.343,0.22,-0.14,1.11,1.17,-0.28,1.23,
1.345,0.21,-0.14,1.11,1.17,-0.28,1.23,
1.348,0.21,-0.14,1.11,1.14,-0.30,1.16,
1.348,0.21,-0.13,1.11,1.14,-0.30,1.16,
1.35,0.20,-0.13,1.10,1.14,-0.30,1.16,
1.352,0.19,-0.13,1.10,1.14,-0.30,1.16,
1.352,0.19,-0.13,1.10,1.08,-0.27,1.08,
1.355,0.19,-0.12,1.10,1.08,-0.27,1.08,
1.357,0.18,-0.12,1.09,1.08,-0.27,1.08,
1.357,0.18,-0.12,1.09,0.95,-0.27,1.02,
1.36,0.16,-0.12,1.08,0.95,-0.27,1.02,
1.362,0.16,-0.12,1.06,0.95,-0.27,1.02,
1.362,0.16,-0.12,1.06,0.81,-0.20,0.93,
1.365,0.14,-0.13,1.05,0.81,-0.20,0.93,
1.367,0.14,-0.14,1.03,0.81,-0.20,0.93,
1.367,0.14,-0.14,1.03,0.61,-0.26,0.70,
1.369,0.13,-0.15,1.02,0.61,-0.26,0.70,
1.372,0.13,-0.15,1.02,0.42,-0.42,0.41,
1.372,0.12,-0.15,1.01,0.42,-0.42,0.41,
1.374,0.11,-0.16,0.99,0.42,-0.42,0.41,
1.377,0.11,-0.16,0.98,0.42,-0.42,0.41,
1.377,0.11,-0.16,0.98,0.28,-0.58,0.14,
1.379,0.11,-0.15,0.97,0.28,-0.58,0.14,
1.382,0.10,-0.14,0.95,0.28,-0.58,0.14,
1.382,0.10,-0.14,0.95,0.18,-0.68,-0.13,
1.384,0.11,-0.13,0.94,0.18,-0.68,-0.13,
1.387,0.11,-0.12,0.94,0.18,-0.68,-0.13,
1.387,0.11,-0.12,0.94,0.11,-0.58,-0.39,
1.389,0.10,-0.10,0.93,0.11,-0.58,-0.39,
1.399,0.11,-0.08,0.93,0.11,-0.58,-0.39,
1.4,0.11,-0.08,0.93,0.11,-0.42,-0.56,
1.4,0.11,-0.07,0.94,0.11,-0.42,-0.56,
1.4,0.11,-0.07,0.94,0.08,-0.11,-0.70,
1.404,0.12,-0.05,0.95,0.08,-0.11,-0.70,
1.404,0.12,-0.04,0.95,0.08,-0.11,-0.70,
1.404,0.13,-0.02,0.96,0.08,-0.11,-0.70,
1.404,0.13,-0.02,0.96,0.18,0.19,-0.58,
1.405,0.13,-0.00,0.97,0.18,0.19,-0.58,
1.407,0.13,0.00,0.98,0.18,0.19,-0.58,
1.407,0.13,0.00,0.98,0.23,0.48,-0.46,
1.41,0.14,0.01,0.99,0.23,0.48,-0.46,
1.413,0.14,0.02,1.00,0.23,0.48,-0.46,
1.413,0.14,0.02,1.00,0.29,0.73,-0.24,
1.414,0.14,0.02,1.01,0.29,0.73,-0.24,
1.417,0.15,0.02,1.02,0.29,0.73,-0.24,
1.418,0.15,0.02,1.02,0.33,0.85,-0.04,
1.419,0.15,0.01,1.03,0.33,0.85,-0.04,
1.421,0.16,0.01,1.04,0.33,0.85,-0.04,
1.422,0.16,0.01,1.04,0.36,0.85,0.18,
1.424,0.15,0.01,1.04,0.36,0.85,0.18,
1.427,0.16,-0.00,1.05,0.36,0.85,0.18,
1.428,0.16,-0.00,1.05,0.45,0.78,0.36,
1.429,0.16,-0.01,1.05,0.45,0.78,0.36,
1.431,0.16,-0.01,1.06,0.45,0.78,0.36,
1.432,0.16,-0.01,1.06,0.46,0.65,0.46,
1.434,0.16,-0.03,1.07,0.46,0.65,0.46,
1.437,0.16,-0.03,1.06,0.46,0.65,0.46,
1.437,0.16,-0.03,1.06,0.47,0.48,0.56,
1.439,0.17,-0.04,1.07,0.47,0.48,0.56,
1.441,0.17,-0.05,1.07,0.47,0.48,0.56,
1.441,0.17,-0.05,1.07,0.45,0.24,0.65,
1.444,0.17,-0.06,1.07,0.45,0.24,0.65,
1.446,0.17,-0.07,1.07,0.45,0.24,0.65,
1.447,0.17,-0.07,1.07,0.45,0.08,0.67,
1.449,0.17,-0.08,1.07,0.45,0.08,0.67,
1.451,0.17,-0.08,1.07,0.40,-0.15,0.66,
1.451,0.16,-0.09,1.06,0.40,-0.15,0.66,
1.454,0.16,-0.10,1.06,0.40,-0.15,0.66,
1.456,0.16,-0.11,1.05,0.40,-0.15,0.66,
1.456,0.16,-0.11,1.05,0.34,-0.41,0.65,
1.46,0.16,-0.11,1.05,0.34,-0.41,0.65,
1.461,0.16,-0.11,1.04,0.34,-0.41,0.65,
1.462,0.16,-0.11,1.04,0.26,-0.64,0.56,
1.464,0.16,-0.12,1.03,0.26,-0.64,0.56,
1.466,0.18,-0.14,1.02,0.26,-0.64,0.56,
1.467,0.18,-0.14,1.02,0.18,-0.77,0.47,
1.469,0.19,-0.15,1.03,0.18,-0.77,0.47,
1.471,0.19,-0.15,1.03,0.22,-1.03,0.30,
1.472,0.19,-0.15,1.02,0.22,-1.03,0.30,
1.473,0.19,-0.15,1.02,0.22,-1.03,0.30,
1.478,0.19,-0.15,1.02,0.22,-1.03,0.30,
1.479,0.19,-0.15,1.02,0.39,-1.31,0.25,
1.483,0.19,-0.13,1.02,0.39,-1.31,0.25,
1.484,0.18,-0.12,1.02,0.39,-1.31,0.25,
1.484,0.18,-0.12,1.02,0.33,-1.36,0.23,
1.484,0.17,-0.11,1.03,0.33,-1.36,0.23,
1.487,0.15,-0.12,1.03,0.33,-1.36,0.23,
1.487,0.15,-0.12,1.03,0.21,-1.18,0.28,
1.489,0.15,-0.10,1.03,0.21,-1.18,0.28,
1.491,0.17,-0.09,1.04,0.21,-1.18,0.28,
1.492,0.17,-0.09,1.04,-0.08,-1.14,0.34,
1.493,0.17,-0.09,1.04,-0.08,-1.14,0.34,
1.497,0.17,-0.08,1.06,-0.08,-1.14,0.34,
1.497,0.17,-0.08,1.06,-0.11,-1.00,0.40,
1.499,0.17,-0.06,1.07,-0.11,-1.00,0.40,
1.501,0.16,-0.04,1.08,-0.11,-1.00,0.40,
1.502,0.16,-0.04,1.08,-0.01,-0.94,0.55,
1.504,0.15,-0.03,1.10,-0.01,-0.94,0.55,
1.507,0.14,0.00,1.11,-0.01,-0.94,0.55,
1.507,0.14,0.00,1.11,-0.09,-0.69,0.83,
1.509,0.13,0.02,1.12,-0.09,-0.69,0.83,
1.515,0.13,0.03,1.12,-0.09,-0.69,0.83,
1.515,0.13,0.03,1.12,-0.30,-0.36,1.09,
1.515,0.12,0.04,1.13,-0.30,-0.36,1.09,
1.516,0.11,0.04,1.13,-0.30,-0.36,1.09,
1.516,0.11,0.04,1.13,-0.46,-0.04,1.25,
1.518,0.10,0.04,1.13,-0.46,-0.04,1.25,
1.521,0.10,0.04,1.13,-0.46,-0.04,1.25,
1.521,0.10,0.04,1.13,-0.61,0.07,1.34,
1.523,0.09,0.04,1.13,-0.61,0.07,1.34,
1.526,0.09,0.04,1.13,-0.61,0.07,1.34,
1.526,0.09,0.04,1.13,-0.68,0.01,1.33,
1.529,0.09,0.04,1.12,-0.68,0.01,1.33,
1.531,0.08,0.04,1.11,-0.68,0.01,1.33,
1.531,0.08,0.04,1.11,-0.75,-0.02,1.30,
1.534,0.07,0.04,1.10,-0.75,-0.02,1.30,
1.537,0.07,0.04,1.09,-0.75,-0.02,1.30,
1.537,0.07,0.04,1.09,-0.81,-0.06,1.16,
1.539,0.07,0.05,1.07,-0.81,-0.06,1.16,
1.541,0.07,0.05,1.05,-0.81,-0.06,1.16,
1.541,0.07,0.05,1.05,-0.89,-0.12,0.95,
1.544,0.07,0.05,1.04,-0.89,-0.12,0.95,
1.547,0.07,0.05,1.04,-0.86,-0.08,0.63,
1.547,0.07,0.06,1.02,-0.86,-0.08,0.63,
1.549,0.06,0.07,1.00,-0.86,-0.08,0.63,
1.551,0.06,0.07,1.00,-0.87,-0.08,0.30,
1.551,0.05,0.07,0.98,-0.87,-0.08,0.30,
1.554,0.05,0.07,0.96,-0.87,-0.08,0.30,
1.556,0.05,0.07,0.96,-0.94,-0.01,-0.08,
1.557,0.04,0.08,0.94,-0.94,-0.01,-0.08,
1.559,0.03,0.08,0.93,-0.94,-0.01,-0.08,
1.561,0.03,0.10,0.91,-0.94,-0.01,-0.08,
1.562,0.03,0.10,0.91,-1.02,0.04,-0.45,
1.564,0.02,0.11,0.90,-1.02,0.04,-0.45,
1.566,0.02,0.11,0.89,-1.02,0.04,-0.45,
1.566,0.02,0.11,0.89,-1.10,0.12,-0.78,
1.568,0.01,0.12,0.89,-1.10,0.12,-0.78,
1.571,0.01,0.12,0.89,-1.18,0.26,-1.01,
1.571,0.01,0.14,0.88,-1.18,0.26,-1.01,
1.574,0.01,0.14,0.88,-1.18,0.26,-1.01,
1.576,0.00,0.15,0.89,-1.18,0.26,-1.01,
1.576,0.00,0.15,0.89,-1.24,0.42,-1.12,
1.58,-0.00,0.17,0.88,-1.24,0.42,-1.12,
1.58,0.00,0.18,0.89,-1.24,0.42,-1.12,
1.581,0.00,0.18,0.89,-1.28,0.56,-1.10,
1.583,-0.00,0.19,0.90,-1.28,0.56,-1.10,
1.587,0.00,0.20,0.90,-1.28,0.56,-1.10,
1.587,0.00,0.20,0.90,-1.30,0.77,-1.09,
1.589,0.01,0.21,0.91,-1.30,0.77,-1.09,
1.59,0.02,0.21,0.92,-1.30,0.77,-1.09,
1.591,0.02,0.21,0.92,-1.27,0.93,-0.93,
1.593,0.02,0.21,0.92,-1.27,0.93,-0.93,
1.596,0.02,0.21,0.92,-1.14,1.06,-0.79,
1.597,0.03,0.21,0.93,-1.14,1.06,-0.79,
1.598,0.03,0.22,0.93,-1.14,1.06,-0.79,
1.6,0.03,0.22,0.93,-1.05,1.07,-0.69,
1.601,0.04,0.21,0.93,-1.05,1.07,-0.69,
1.602,0.05,0.20,0.93,-1.05,1.07,-0.69,
1.605,0.05,0.20,0.93,-0.93,1.05,-0.64,
1.605,0.05,0.20,0.92,-0.93,1.05,-0.64,
1.607,0.07,0.19,0.92,-0.93,1.05,-0.64,
1.611,0.07,0.19,0.90,-0.93,1.05,-0.64,
1.612,0.07,0.19,0.90,-0.78,0.89,-0.67,
1.612,0.08,0.18,0.89,-0.78,0.89,-0.67,
1.615,0.09,0.17,0.87,-0.78,0.89,-0.67,
1.615,0.09,0.17,0.87,-0.59,0.77,-0.83,
1.618,0.09,0.16,0.87,-0.59,0.77,-0.83,
1.62,0.10,0.15,0.86,-0.59,0.77,-0.83,
1.62,0.10,0.15,0.86,-0.48,0.60,-1.09,
1.622,0.10,0.15,0.84,-0.48,0.60,-1.09,
1.625,0.11,0.15,0.84,-0.48,0.60,-1.09,
1.625,0.11,0.15,0.84,-0.38,0.42,-1.26,
1.635,0.12,0.14,0.83,-0.38,0.42,-1.26,
1.635,0.12,0.15,0.83,-0.38,0.42,-1.26,
1.636,0.12,0.15,0.83,-0.23,0.31,-1.50,
1.636,0.13,0.14,0.83,-0.23,0.31,-1.50,
1.637,0.13,0.15,0.84,-0.23,0.31,-1.50,
1.637,0.13,0.15,0.84,-0.14,0.26,-1.60,
1.638,0.15,0.16,0.85,-0.14,0.26,-1.60,
1.64,0.15,0.17,0.86,-0.14,0.26,-1.60,
1.64,0.15,0.17,0.86,-0.03,0.24,-1.54,
1.642,0.16,0.19,0.87,-0.03,0.24,-1.54,
1.646,0.16,0.21,0.89,-0.03,0.24,-1.54,
1.647,0.16,0.21,0.89,0.13,0.42,-1.32,
1.647,0.16,0.22,0.90,0.13,0.42,-1.32,
1.652,0.16,0.22,0.92,0.13,0.42,-1.32,
1.652,0.16,0.22,0.92,0.24,0.79,-1.09,
1.653,0.15,0.22,0.94,0.24,0.79,-1.09,
1.655,0.14,0.21,0.95,0.24,0.79,-1.09,
1.656,0.14,0.21,0.95,0.15,0.95,-0.76,
1.658,0.14,0.20,0.97,0.15,0.95,-0.76,
1.66,0.14,0.19,0.97,0.15,0.95,-0.76,
1.66,0.14,0.19,0.97,0.03,0.89,-0.46,
1.663,0.13,0.18,0.99,0.03,0.89,-0.46,
1.665,0.13,0.18,0.99,0.03,0.89,-0.46,
1.665,0.13,0.18,0.99,-0.07,0.67,-0.16,
1.667,0.13,0.16,0.99,-0.07,0.67,-0.16,
1.669,0.13,0.16,0.99,-0.17,0.53,0.05,
1.669,0.12,0.15,1.00,-0.17,0.53,0.05,
1.672,0.12,0.13,1.01,-0.17,0.53,0.05,
1.675,0.12,0.12,1.01,-0.17,0.53,0.05,
1.675,0.12,0.12,1.01,-0.27,0.27,0.12,
1.678,0.12,0.11,1.02,-0.27,0.27,0.12,
1.68,0.12,0.10,1.02,-0.27,0.27,0.12,
1.681,0.12,0.10,1.02,-0.33,-0.03,0.24,
1.682,0.12,0.09,1.03,-0.33,-0.03,0.24,
1.684,0.12,0.09,1.03,-0.33,-0.03,0.24,
1.685,0.12,0.09,1.03,-0.38,-0.25,0.33,
1.687,0.11,0.09,1.03,-0.38,-0.25,0.33,
1.689,0.11,0.09,1.02,-0.38,-0.25,0.33,
1.689,0.11,0.09,1.02,-0.38,-0.41,0.44,
1.692,0.11,0.09,1.02,-0.38,-0.41,0.44,
1.697,0.11,0.09,1.02,-0.43,-0.46,0.39,
1.697,0.11,0.09,1.01,-0.43,-0.46,0.39,
1.697,0.11,0.09,0.99,-0.43,-0.46,0.39,
1.7,0.10,0.09,0.98,-0.43,-0.46,0.39,
1.7,0.10,0.09,0.98,-0.46,-0.48,0.30,
1.702,0.10,0.09,0.97,-0.46,-0.48,0.30,
1.705,0.10,0.09,0.95,-0.46,-0.48,0.30,
1.705,0.10,0.09,0.95,-0.50,-0.46,0.04,
1.707,0.09,0.08,0.93,-0.50,-0.46,0.04,
1.71,0.09,0.09,0.92,-0.50,-0.46,0.04,
1.71,0.09,0.09,0.92,-0.56,-0.52,-0.20,
1.712,0.08,0.09,0.91,-0.56,-0.52,-0.20,
1.714,0.07,0.09,0.89,-0.56,-0.52,-0.20,
1.714,0.07,0.09,0.89,-0.62,-0.60,-0.54,
1.716,0.07,0.10,0.88,-0.62,-0.60,-0.54,
1.72,0.07,0.10,0.88,-0.76,-0.58,-0.83,
1.72,0.06,0.11,0.87,-0.76,-0.58,-0.83,
1.722,0.05,0.13,0.85,-0.76,-0.58,-0.83,
1.724,0.05,0.13,0.85,-0.76,-0.58,-0.83,
1.724,0.05,0.13,0.85,-0.84,-0.43,-1.08,
1.727,0.04,0.14,0.85,-0.84,-0.43,-1.08,
1.732,0.04,0.16,0.84,-0.84,-0.43,-1.08,
1.733,0.04,0.16,0.84,-0.93,-0.21,-1.30,
1.733,0.03,0.18,0.84,-0.93,-0.21,-1.30,
1.735,0.03,0.18,0.84,-1.01,-0.01,-1.37,
1.736,0.02,0.18,0.85,-1.01,-0.01,-1.37,
1.736,0.02,0.20,0.85,-1.01,-0.01,-1.37,
1.739,0.02,0.22,0.86,-1.01,-0.01,-1.37,
1.739,0.02,0.22,0.86,-1.12,0.24,-1.35,
1.742,0.01,0.22,0.87,-1.12,0.24,-1.35,
1.744,0.01,0.22,0.87,-1.17,0.51,-1.29,
1.744,0.01,0.23,0.89,-1.17,0.51,-1.29,
1.746,0.01,0.24,0.90,-1.17,0.51,-1.29,
1.749,0.00,0.24,0.92,-1.17,0.51,-1.29,
1.75,0.00,0.24,0.92,-1.25,0.70,-1.02,
1.752,0.00,0.24,0.93,-1.25,0.70,-1.02,
1.755,0.00,0.24,0.93,-1.26,0.78,-0.72,
1.755,0.00,0.23,0.95,-1.26,0.78,-0.72,
1.757,-0.00,0.21,0.97,-1.26,0.78,-0.72,
1.759,-0.00,0.20,0.98,-1.26,0.78,-0.72,
1.759,-0.00,0.20,0.98,-1.27,0.70,-0.38,
1.761,-0.01,0.18,1.00,-1.27,0.70,-0.38,
1.764,-0.01,0.17,1.01,-1.27,0.70,-0.38,
1.765,-0.01,0.17,1.01,-1.31,0.41,-0.06,
1.767,-0.00,0.16,1.01,-1.31,0.41,-0.06,
1.769,-0.00,0.16,1.01,-1.30,0.13,0.18,
1.769,-0.01,0.14,1.02,-1.30,0.13,0.18,
1.771,-0.00,0.13,1.02,-1.30,0.13,0.18,
1.774,0.00,0.12,1.02,-1.30,0.13,0.18,
1.774,0.00,0.12,1.02,-1.28,-0.13,0.31,
1.777,0.01,0.11,1.03,-1.28,-0.13,0.31,
1.779,0.02,0.10,1.03,-1.28,-0.13,0.31,
1.78,0.02,0.10,1.03,-1.20,-0.40,0.39,
1.782,0.02,0.09,1.04,-1.20,-0.40,0.39,
1.784,0.03,0.08,1.02,-1.20,-0.40,0.39,
1.784,0.03,0.08,1.02,-1.08,-0.61,0.47,
1.786,0.04,0.08,1.01,-1.08,-0.61,0.47,
1.789,0.05,0.07,1.00,-1.08,-0.61,0.47,
1.79,0.05,0.07,1.00,-0.94,-0.80,0.46,
1.791,0.06,0.08,0.99,-0.94,-0.80,0.46,
1.794,0.06,0.07,0.98,-0.94,-0.80,0.46,
1.794,0.06,0.07,0.98,-0.77,-0.93,0.25,
1.798,0.07,0.08,0.97,-0.77,-0.93,0.25,
1.799,0.08,0.08,0.95,-0.77,-0.93,0.25,
1.8,0.08,0.08,0.95,-0.62,-0.98,0.02,
1.801,0.08,0.09,0.93,-0.62,-0.98,0.02,
1.804,0.08,0.10,0.92,-0.62,-0.98,0.02,
1.804,0.08,0.10,0.92,-0.50,-0.96,-0.21,
1.805,0.08,0.10,0.91,-0.50,-0.96,-0.21,
1.808,0.08,0.12,0.91,-0.50,-0.96,-0.21,
1.811,0.08,0.12,0.91,-0.41,-0.86,-0.51,
1.812,0.08,0.13,0.90,-0.41,-0.86,-0.51,
1.815,0.08,0.14,0.89,-0.41,-0.86,-0.51,
1.816,0.08,0.14,0.89,-0.40,-0.72,-0.66,
1.816,0.08,0.15,0.88,-0.40,-0.72,-0.66,
1.818,0.07,0.16,0.88,-0.40,-0.72,-0.66,
1.818,0.07,0.16,0.88,-0.44,-0.51,-0.81,
1.82,0.07,0.17,0.87,-0.44,-0.51,-0.81,
1.823,0.07,0.18,0.86,-0.44,-0.51,-0.81,
1.823,0.07,0.18,0.86,-0.51,-0.32,-0.95,
1.825,0.07,0.18,0.85,-0.51,-0.32,-0.95,
1.829,0.07,0.18,0.84,-0.51,-0.32,-0.95,
1.829,0.07,0.18,0.84,-0.52,-0.21,-1.07,
1.83,0.06,0.18,0.84,-0.52,-0.21,-1.07,
1.832,0.06,0.18,0.84,-0.52,-0.21,-1.07,
1.833,0.06,0.18,0.84,-0.58,-0.16,-1.25,
1.835,0.06,0.18,0.84,-0.58,-0.16,-1.25,
1.837,0.06,0.18,0.83,-0.58,-0.16,-1.25,
1.838,0.06,0.18,0.83,-0.64,-0.19,-1.30,
1.84,0.06,0.18,0.84,-0.64,-0.19,-1.30,
1.842,0.06,0.17,0.85,-0.64,-0.19,-1.30,
1.843,0.06,0.17,0.85,-0.68,-0.24,-1.36,
1.854,0.06,0.17,0.85,-0.68,-0.24,-1.36,
1.855,0.06,0.17,0.85,-0.68,-0.24,-1.36,
1.856,0.06,0.17,0.85,-0.68,-0.32,-1.27,
1.856,0.06,0.16,0.85,-0.68,-0.32,-1.27,
1.856,0.06,0.16,0.85,-0.68,-0.32,-1.27,
1.857,0.06,0.16,0.85,-0.69,-0.40,-1.18,
1.857,0.06,0.15,0.85,-0.69,-0.40,-1.18,
1.858,0.07,0.15,0.85,-0.69,-0.40,-1.18,
1.858,0.07,0.15,0.85,-0.68,-0.49,-1.20,
1.86,0.07,0.14,0.85,-0.68,-0.49,-1.20,
1.869,0.07,0.13,0.85,-0.68,-0.49,-1.20,
1.87,0.07,0.13,0.85,-0.64,-0.63,-1.14,
1.871,0.07,0.13,0.84,-0.64,-0.63,-1.14,
1.871,0.07,0.13,0.84,-0.64,-0.79,-1.19,
1.871,0.07,0.12,0.83,-0.64,-0.79,-1.19,
1.871,0.07,0.12,0.83,-0.64,-0.79,-1.19,
1.872,0.07,0.13,0.82,-0.64,-0.79,-1.19,
1.872,0.07,0.13,0.82,-0.64,-0.91,-1.27,
1.874,0.07,0.13,0.81,-0.64,-0.91,-1.27,
1.877,0.08,0.13,0.81,-0.64,-0.91,-1.27,
1.877,0.08,0.13,0.81,-0.60,-0.92,-1.41,
1.879,0.08,0.13,0.80,-0.60,-0.92,-1.41,
1.882,0.09,0.13,0.80,-0.60,-0.92,-1.41,
1.882,0.09,0.13,0.80,-0.55,-0.90,-1.54,
1.885,0.09,0.14,0.80,-0.55,-0.90,-1.54,
1.887,0.09,0.14,0.80,-0.55,-0.90,-1.54,
1.887,0.09,0.14,0.80,-0.46,-0.84,-1.62,
1.889,0.09,0.14,0.80,-0.46,-0.84,-1.62,
1.892,0.09,0.14,0.80,-0.44,-0.78,-1.66,
1.892,0.08,0.16,0.80,-0.44,-0.78,-1.66,
1.897,0.08,0.18,0.81,-0.44,-0.78,-1.66,
1.898,0.09,0.18,0.83,-0.44,-0.78,-1.66,
1.898,0.09,0.18,0.83,-0.44,-0.67,-1.64,
1.9,0.09,0.17,0.83,-0.44,-0.67,-1.64,
1.902,0.09,0.16,0.84,-0.44,-0.67,-1.64,
1.903,0.09,0.16,0.84,-0.45,-0.41,-1.43,
1.904,0.10,0.13,0.83,-0.45,-0.41,-1.43,
1.907,0.10,0.11,0.82,-0.45,-0.41,-1.43,
1.907,0.10,0.11,0.82,-0.37,-0.53,-1.29,
1.909,0.11,0.09,0.81,-0.37,-0.53,-1.29,
1.913,0.11,0.07,0.80,-0.37,-0.53,-1.29,
1.913,0.11,0.07,0.80,-0.24,-0.95,-1.39,
1.914,0.11,0.06,0.78,-0.24,-0.95,-1.39,
1.917,0.11,0.06,0.78,-0.17,-1.37,-1.58,
1.918,0.10,0.06,0.78,-0.17,-1.37,-1.58,
1.919,0.10,0.05,0.78,-0.17,-1.37,-1.58,
1.922,0.09,0.05,0.77,-0.17,-1.37,-1.58,
1.922,0.09,0.05,0.77,-0.19,-1.54,-1.83,
1.924,0.08,0.06,0.79,-0.19,-1.54,-1.83,
1.927,0.08,0.06,0.80,-0.19,-1.54,-1.83,
1.927,0.08,0.06,0.80,-0.28,-1.58,-1.88,
1.93,0.07,0.07,0.81,-0.28,-1.58,-1.88,
1.933,0.07,0.08,0.81,-0.28,-1.58,-1.88,
1.934,0.07,0.08,0.81,-0.37,-1.51,-1.71,
1.934,0.06,0.09,0.82,-0.37,-1.51,-1.71,
1.937,0.07,0.09,0.83,-0.37,-1.51,-1.71,
1.937,0.07,0.09,0.83,-0.45,-1.33,-1.54,
1.939,0.06,0.10,0.85,-0.45,-1.33,-1.54,
1.942,0.06,0.11,0.85,-0.45,-1.33,-1.54,
1.942,0.06,0.11,0.85,-0.49,-1.15,-1.36,
1.944,0.06,0.11,0.86,-0.49,-1.15,-1.36,
1.955,0.06,0.12,0.86,-0.49,-1.15,-1.36,
1.957,0.06,0.12,0.86,-0.53,-1.03,-1.18,
1.957,0.06,0.12,0.87,-0.53,-1.03,-1.18,
1.959,0.06,0.13,0.88,-0.53,-1.03,-1.18,
1.959,0.06,0.13,0.88,-0.56,-0.92,-1.03,
1.96,0.06,0.13,0.88,-0.56,-0.92,-1.03,
1.96,0.07,0.13,0.89,-0.56,-0.92,-1.03,
1.961,0.07,0.13,0.89,-0.53,-0.82,-0.91,
1.962,0.07,0.13,0.89,-0.53,-0.82,-0.91,
1.962,0.07,0.13,0.89,-0.53,-0.82,-0.91,
1.962,0.07,0.13,0.89,-0.44,-0.73,-0.81,
1.971,0.08,0.14,0.90,-0.44,-0.73,-0.81,
1.972,0.08,0.14,0.90,-0.40,-0.70,-0.73,
1.973,0.08,0.14,0.90,-0.40,-0.70,-0.73,
1.973,0.08,0.14,0.91,-0.40,-0.70,-0.73,
1.973,0.08,0.13,0.91,-0.40,-0.70,-0.73,
1.974,0.08,0.13,0.91,-0.30,-0.66,-0.61,
1.978,0.08,0.13,0.91,-0.30,-0.66,-0.61,
1.978,0.08,0.13,0.92,-0.30,-0.66,-0.61,
1.979,0.08,0.13,0.92,-0.25,-0.69,-0.58,
1.979,0.08,0.13,0.91,-0.25,-0.69,-0.58,
1.982,0.08,0.13,0.91,-0.25,-0.69,-0.58,
1.983,0.08,0.13,0.91,-0.24,-0.71,-0.53,
1.984,0.08,0.12,0.91,-0.24,-0.71,-0.53,
1.987,0.07,0.12,0.90,-0.24,-0.71,-0.53,
1.987,0.07,0.12,0.90,-0.24,-0.73,-0.57,
1.989,0.07,0.12,0.91,-0.24,-0.73,-0.57,
1.992,0.07,0.12,0.91,-0.28,-0.79,-0.62,
1.992,0.07,0.12,0.91,-0.28,-0.79,-0.62,
1.995,0.06,0.11,0.91,-0.28,-0.79,-0.62,
1.997,0.06,0.12,0.91,-0.28,-0.79,-0.62,
1.997,0.06,0.12,0.91,-0.33,-0.78,-0.59,
1.998,0.05,0.12,0.92,-0.33,-0.78,-0.59,
2.002,0.04,0.12,0.93,-0.33,-0.78,-0.59,
2.002,0.04,0.12,0.93,-0.41,-0.84,-0.58,
2.004,0.04,0.12,0.94,-0.41,-0.84,-0.58,
2.006,0.03,0.13,0.94,-0.41,-0.84,-0.58,
2.007,0.03,0.13,0.94,-0.52,-0.82,-0.43,
2.009,0.03,0.13,0.95,-0.52,-0.82,-0.43,
2.011,0.02,0.12,0.96,-0.52,-0.82,-0.43,
2.012,0.02,0.12,0.96,-0.61,-0.77,-0.29,
2.016,0.01,0.12,0.96,-0.61,-0.77,-0.29,
2.016,0.01,0.12,0.96,-0.72,-0.75,-0.13,
2.016,0.01,0.12,0.96,-0.72,-0.75,-0.13,
2.019,0.00,0.12,0.97,-0.72,-0.75,-0.13,
2.022,-0.00,0.12,0.97,-0.72,-0.75,-0.13,
2.022,-0.00,0.12,0.97,-0.84,-0.79,-0.07,
2.024,-0.00,0.11,0.97,-0.84,-0.79,-0.07,
2.027,-0.01,0.12,0.97,-0.84,-0.79,-0.07,
2.027,-0.01,0.12,0.97,-0.93,-0.84,-0.01,
2.029,-0.01,0.13,0.97,-0.93,-0.84,-0.01,
2.032,-0.01,0.13,0.97,-0.93,-0.84,-0.01,
2.032,-0.01,0.13,0.97,-0.97,-0.83,0.01,
2.034,-0.01,0.13,0.97,-0.97,-0.83,0.01,
2.036,-0.01,0.13,0.98,-0.97,-0.83,0.01,
2.037,-0.01,0.13,0.98,-0.97,-0.74,0.01,
2.039,-0.01,0.13,0.97,-0.97,-0.74,0.01,
2.042,-0.01,0.13,0.97,-1.04,-0.70,0.06,
2.042,-0.01,0.14,0.97,-1.04,-0.70,0.06,
2.044,-0.02,0.15,0.97,-1.04,-0.70,0.06,
2.049,-0.02,0.15,0.98,-1.04,-0.70,0.06,
2.05,-0.02,0.15,0.98,-1.02,-0.65,0.07,
2.05,-0.01,0.16,0.98,-1.02,-0.65,0.07,
2.051,-0.01,0.16,0.97,-1.02,-0.65,0.07,
2.051,-0.01,0.16,0.97,-1.07,-0.54,0.08,
2.054,-0.00,0.16,0.97,-1.07,-0.54,0.08,
2.057,-0.00,0.17,0.97,-1.07,-0.54,0.08,
2.057,-0.00,0.17,0.97,-0.99,-0.46,0.09,
2.059,0.01,0.18,0.97,-0.99,-0.46,0.09,
2.061,0.01,0.17,0.96,-0.99,-0.46,0.09,
2.061,0.01,0.17,0.96,-0.96,-0.41,0.02,
2.069,0.02,0.18,0.96,-0.96,-0.41,0.02,
2.069,0.02,0.18,0.96,-0.85,-0.33,-0.04,
2.069,0.02,0.18,0.95,-0.85,-0.33,-0.04,
2.07,0.03,0.17,0.95,-0.85,-0.33,-0.04,
2.073,0.04,0.17,0.94,-0.85,-0.33,-0.04,
2.073,0.04,0.17,0.94,-0.73,-0.34,-0.09,
2.073,0.04,0.17,0.94,-0.73,-0.34,-0.09,
2.076,0.04,0.17,0.94,-0.73,-0.34,-0.09,
2.076,0.04,0.17,0.94,-0.60,-0.42,-0.20,
2.078,0.04,0.17,0.94,-0.60,-0.42,-0.20,
2.082,0.05,0.17,0.93,-0.60,-0.42,-0.20,
2.082,0.05,0.17,0.93,-0.51,-0.44,-0.23,
2.083,0.05,0.18,0.93,-0.51,-0.44,-0.23,
2.086,0.05,0.18,0.93,-0.51,-0.44,-0.23,
2.086,0.05,0.18,0.93,-0.47,-0.42,-0.30,
2.088,0.06,0.19,0.92,-0.47,-0.42,-0.30,
2.091,0.06,0.19,0.92,-0.41,-0.33,-0.35,
2.092,0.06,0.20,0.93,-0.41,-0.33,-0.35,
2.093,0.06,0.20,0.93,-0.41,-0.33,-0.35,
2.096,0.06,0.20,0.93,-0.41,-0.33,-0.35,
2.096,0.06,0.20,0.93,-0.38,-0.21,-0.39,
2.099,0.06,0.20,0.94,-0.38,-0.21,-0.39,
2.101,0.05,0.21,0.95,-0.38,-0.21,-0.39,
2.102,0.05,0.21,0.95,-0.34,-0.14,-0.32,
2.103,0.06,0.21,0.96,-0.34,-0.14,-0.32,
2.105,0.06,0.21,0.96,-0.34,-0.14,-0.32,
2.106,0.06,0.21,0.96,-0.40,-0.09,-0.23,
2.108,0.05,0.21,0.97,-0.40,-0.09,-0.23,
2.111,0.05,0.20,0.98,-0.40,-0.09,-0.23,
2.111,0.05,0.20,0.98,-0.39,-0.11,-0.06,
2.113,0.06,0.20,0.98,-0.39,-0.11,-0.06,
2.116,0.06,0.20,0.98,-0.42,-0.11,0.10,
2.117,0.06,0.20,0.99,-0.42,-0.11,0.10,
2.119,0.06,0.19,1.00,-0.42,-0.11,0.10,
2.12,0.06,0.19,1.00,-0.42,-0.11,0.10,
2.12,0.06,0.19,1.00,-0.41,-0.17,0.19,
2.124,0.06,0.18,1.01,-0.41,-0.17,0.19,
2.125,0.07,0.18,1.01,-0.41,-0.17,0.19,
2.126,0.07,0.18,1.01,-0.36,-0.26,0.37,
2.128,0.07,0.19,1.02,-0.36,-0.26,0.37,
2.131,0.08,0.19,1.02,-0.36,-0.26,0.37,
2.132,0.08,0.19,1.02,-0.30,-0.34,0.48,
2.132,0.08,0.20,1.02,-0.30,-0.34,0.48,
2.135,0.08,0.20,1.01,-0.30,-0.34,0.48,
2.135,0.08,0.20,1.01,-0.25,-0.30,0.56,
2.138,0.09,0.21,1.02,-0.25,-0.30,0.56,
2.142,0.09,0.21,1.01,-0.25,-0.30,0.56,
2.142,0.09,0.21,1.01,-0.17,-0.21,0.51,
2.142,0.10,0.21,1.01,-0.17,-0.21,0.51,
2.146,0.10,0.22,1.01,-0.17,-0.21,0.51,
2.146,0.10,0.22,1.01,-0.12,-0.11,0.50,
2.149,0.11,0.22,1.00,-0.12,-0.11,0.50,
2.15,0.12,0.23,1.00,-0.12,-0.11,0.50,
2.15,0.12,0.23,1.00,-0.03,-0.06,0.46,
2.152,0.12,0.23,0.99,-0.03,-0.06,0.46,
2.155,0.13,0.23,0.99,-0.03,-0.06,0.46,
2.155,0.13,0.23,0.99,0.10,-0.00,0.40,
2.158,0.14,0.24,0.98,0.10,-0.00,0.40,
2.161,0.14,0.24,0.98,0.10,-0.00,0.40,
2.161,0.14,0.24,0.98,0.22,0.04,0.30,
2.163,0.15,0.24,0.97,0.22,0.04,0.30,
2.167,0.15,0.24,0.96,0.22,0.04,0.30,
2.168,0.15,0.24,0.96,0.36,0.08,0.20,
2.168,0.15,0.24,0.96,0.36,0.08,0.20,
2.17,0.15,0.24,0.95,0.36,0.08,0.20,
2.17,0.15,0.24,0.95,0.45,0.05,0.07,
2.173,0.15,0.24,0.94,0.45,0.05,0.07,
2.175,0.15,0.24,0.94,0.45,0.05,0.07,
2.175,0.15,0.24,0.94,0.45,0.08,-0.03,
2.178,0.15,0.25,0.93,0.45,0.08,-0.03,
2.18,0.15,0.25,0.93,0.45,0.08,-0.03,
2.18,0.15,0.25,0.93,0.40,0.08,-0.16,
2.187,0.14,0.27,0.92,0.40,0.08,-0.16,
2.188,0.14,0.27,0.92,0.40,0.08,-0.16,
2.189,0.14,0.27,0.92,0.38,0.15,-0.26,
2.189,0.14,0.28,0.92,0.38,0.15,-0.26,
2.189,0.14,0.28,0.92,0.32,0.31,-0.37,
2.19,0.15,0.29,0.92,0.32,0.31,-0.37,
2.191,0.15,0.29,0.92,0.32,0.31,-0.37,
2.194,0.15,0.30,0.92,0.32,0.31,-0.37,
2.195,0.15,0.30,0.92,0.32,0.45,-0.39,
2.205,0.15,0.30,0.92,0.32,0.45,-0.39,
2.205,0.16,0.30,0.92,0.32,0.45,-0.39,
2.206,0.16,0.30,0.92,0.35,0.55,-0.37,
2.206,0.15,0.30,0.93,0.35,0.55,-0.37,
2.206,0.15,0.30,0.93,0.41,0.57,-0.32,
2.206,0.15,0.29,0.94,0.41,0.57,-0.32,
2.207,0.15,0.29,0.94,0.41,0.57,-0.32,
2.21,0.15,0.28,0.95,0.41,0.57,-0.32,
2.21,0.15,0.28,0.95,0.37,0.52,-0.23,
2.212,0.15,0.28,0.95,0.37,0.52,-0.23,
2.214,0.15,0.28,0.95,0.35,0.40,-0.12,
2.214,0.15,0.28,0.95,0.35,0.40,-0.12,
2.217,0.15,0.28,0.95,0.35,0.40,-0.12,
2.22,0.14,0.27,0.94,0.35,0.40,-0.12,
2.22,0.14,0.27,0.94,0.38,0.32,-0.07,
2.222,0.14,0.27,0.94,0.38,0.32,-0.07,
2.224,0.14,0.27,0.94,0.33,0.30,-0.08,
2.225,0.14,0.27,0.94,0.33,0.30,-0.08,
2.227,0.13,0.27,0.94,0.33,0.30,-0.08,
2.229,0.13,0.27,0.94,0.33,0.30,-0.08,
2.23,0.13,0.27,0.94,0.28,0.29,-0.13,
2.233,0.13,0.27,0.93,0.28,0.29,-0.13,
2.236,0.13,0.27,0.92,0.28,0.29,-0.13,
2.236,0.13,0.27,0.92,0.26,0.23,-0.19,
2.236,0.13,0.27,0.92,0.26,0.23,-0.19,
2.24,0.13,0.27,0.92,0.25,0.23,-0.29,
2.24,0.13,0.27,0.92,0.25,0.23,-0.29,
2.242,0.13,0.27,0.93,0.25,0.23,-0.29,
2.244,0.13,0.28,0.93,0.25,0.23,-0.29,
2.245,0.13,0.28,0.93,0.23,0.27,-0.33,
2.247,0.13,0.28,0.93,0.23,0.27,-0.33,
2.25,0.12,0.28,0.93,0.23,0.27,-0.33,
2.25,0.12,0.28,0.93,0.26,0.33,-0.31,
2.252,0.13,0.28,0.93,0.26,0.33,-0.31,
2.255,0.13,0.28,0.93,0.26,0.33,-0.31,
2.255,0.13,0.28,0.93,0.24,0.37,-0.30,
2.257,0.13,0.28,0.93,0.24,0.37,-0.30,
2.26,0.13,0.28,0.93,0.24,0.37,-0.30,
2.26,0.13,0.28,0.93,0.26,0.34,-0.26,
2.262,0.13,0.28,0.93,0.26,0.34,-0.26,
2.264,0.13,0.28,0.93,0.30,0.34,-0.25,
2.264,0.13,0.28,0.93,0.30,0.34,-0.25,
2.267,0.13,0.28,0.94,0.30,0.34,-0.25,
2.269,0.12,0.28,0.94,0.30,0.34,-0.25,
2.269,0.12,0.28,0.94,0.31,0.33,-0.23,
2.271,0.12,0.28,0.93,0.31,0.33,-0.23,
2.274,0.12,0.29,0.94,0.31,0.33,-0.23,
2.275,0.12,0.29,0.94,0.26,0.40,-0.20,
2.277,0.12,0.29,0.94,0.26,0.40,-0.20,
2.279,0.12,0.29,0.96,0.26,0.40,-0.20,
2.279,0.12,0.29,0.96,0.24,0.42,-0.18,
2.286,0.11,0.29,0.96,0.24,0.42,-0.18,
2.287,0.12,0.28,0.96,0.24,0.42,-0.18,
2.287,0.12,0.28,0.96,0.19,0.42,-0.07,
2.287,0.11,0.27,0.96,0.19,0.42,-0.07,
2.289,0.11,0.27,0.96,0.17,0.39,0.02,
2.289,0.11,0.27,0.98,0.17,0.39,0.02,
2.292,0.11,0.27,0.99,0.17,0.39,0.02,
2.294,0.12,0.26,0.99,0.17,0.39,0.02,
2.294,0.12,0.26,0.99,0.16,0.30,0.12,
2.296,0.12,0.25,1.00,0.16,0.30,0.12,
2.304,0.12,0.24,1.01,0.16,0.30,0.12,
2.304,0.12,0.24,1.01,0.17,0.18,0.33,
2.305,0.12,0.24,1.01,0.17,0.18,0.33,
2.305,0.12,0.23,1.02,0.17,0.18,0.33,
2.31,0.12,0.23,1.02,0.19,0.00,0.44,
2.311,0.11,0.23,1.03,0.19,0.00,0.44,
2.311,0.11,0.23,1.03,0.19,0.00,0.44,
2.311,0.11,0.23,1.03,0.22,-0.09,0.57,
2.312,0.11,0.23,1.04,0.22,-0.09,0.57,
2.313,0.11,0.23,1.04,0.13,-0.09,0.71,
2.314,0.10,0.24,1.04,0.13,-0.09,0.71,
2.316,0.10,0.24,1.04,0.13,-0.09,0.71,
2.318,0.09,0.25,1.03,0.13,-0.09,0.71,
2.319,0.09,0.25,1.03,0.08,-0.09,0.80,
2.321,0.09,0.25,1.03,0.08,-0.09,0.80,
2.323,0.09,0.25,1.02,0.08,-0.09,0.80,
2.323,0.09,0.25,1.02,-0.00,0.01,0.72,
2.327,0.09,0.26,1.01,-0.00,0.01,0.72,
2.328,0.09,0.27,1.00,-0.00,0.01,0.72,
2.328,0.09,0.27,1.00,-0.02,0.06,0.64,
2.331,0.09,0.27,1.00,-0.02,0.06,0.64,
2.333,0.09,0.28,0.98,-0.02,0.06,0.64,
2.333,0.09,0.28,0.98,-0.02,0.18,0.46,
2.336,0.09,0.29,0.98,-0.02,0.18,0.46,
2.338,0.09,0.29,0.98,-0.00,0.27,0.31,
2.338,0.09,0.30,0.98,-0.00,0.27,0.31,
2.341,0.09,0.31,0.97,-0.00,0.27,0.31,
2.343,0.09,0.31,0.97,-0.00,0.27,0.31,
2.343,0.09,0.31,0.97,0.02,0.46,0.20,
2.346,0.09,0.32,0.96,0.02,0.46,0.20,
2.349,0.10,0.32,0.95,0.02,0.46,0.20,
2.349,0.10,0.32,0.95,0.02,0.59,0.11,
2.352,0.09,0.31,0.95,0.02,0.59,0.11,
2.353,0.09,0.30,0.96,0.02,0.59,0.11,
2.353,0.09,0.30,0.96,0.05,0.65,-0.00,
2.355,0.09,0.30,0.97,0.05,0.65,-0.00,
2.359,0.09,0.29,0.96,0.05,0.65,-0.00,
2.359,0.09,0.29,0.96,0.05,0.53,-0.01,
2.361,0.09,0.28,0.97,0.05,0.53,-0.01,
2.363,0.09,0.28,0.97,0.06,0.44,0.07,
2.363,0.09,0.28,0.97,0.06,0.44,0.07,
2.367,0.09,0.26,0.97,0.06,0.44,0.07,
2.368,0.09,0.26,0.97,0.06,0.44,0.07,
2.37,0.09,0.26,0.97,0.04,0.27,0.12,
2.37,0.09,0.25,0.96,0.04,0.27,0.12,
2.374,0.08,0.24,0.96,0.04,0.27,0.12,
2.374,0.08,0.24,0.96,0.06,0.05,0.12,
2.376,0.08,0.23,0.96,0.06,0.05,0.12,
2.378,0.08,0.23,0.95,0.06,0.05,0.12,
2.378,0.08,0.23,0.95,0.03,-0.09,0.05,
2.38,0.07,0.23,0.95,0.03,-0.09,0.05,
2.382,0.07,0.23,0.95,0.03,-0.09,0.05,
2.383,0.07,0.23,0.95,-0.02,-0.24,-0.00,
2.385,0.06,0.24,0.95,-0.02,-0.24,-0.00,
2.388,0.06,0.24,0.95,-0.02,-0.24,-0.00,
2.388,0.06,0.24,0.95,-0.09,-0.27,-0.06,
2.391,0.06,0.24,0.94,-0.09,-0.27,-0.06,
2.393,0.06,0.25,0.95,-0.09,-0.27,-0.06,
2.393,0.06,0.25,0.95,-0.16,-0.21,-0.09,
2.396,0.06,0.25,0.94,-0.16,-0.21,-0.09,
2.398,0.06,0.26,0.95,-0.16,-0.21,-0.09,
2.398,0.06,0.26,0.95,-0.18,-0.12,-0.11,
2.406,0.06,0.26,0.95,-0.18,-0.12,-0.11,
2.406,0.06,0.25,0.95,-0.18,-0.12,-0.11,
2.407,0.06,0.25,0.95,-0.17,-0.05,-0.12,
2.407,0.07,0.26,0.94,-0.17,-0.05,-0.12,
2.407,0.07,0.25,0.94,-0.17,-0.05,-0.12,
2.407,0.07,0.25,0.94,-0.11,-0.02,-0.10,
2.41,0.07,0.26,0.94,-0.11,-0.02,-0.10,
2.412,0.07,0.26,0.94,-0.11,-0.02,-0.10,
2.412,0.07,0.26,0.94,-0.08,-0.03,-0.17,
2.416,0.07,0.26,0.95,-0.08,-0.03,-0.17,
2.417,0.07,0.26,0.94,-0.08,-0.03,-0.17,
2.418,0.07,0.26,0.94,-0.01,-0.01,-0.18,
2.419,0.07,0.26,0.95,-0.01,-0.01,-0.18,
2.422,0.07,0.27,0.95,-0.01,-0.01,-0.18,
2.422,0.07,0.27,0.95,-0.02,-0.04,-0.12,
2.425,0.08,0.27,0.95,-0.02,-0.04,-0.12,
2.427,0.08,0.26,0.95,-0.02,-0.04,-0.12,
2.428,0.08,0.26,0.95,0.03,0.05,-0.06,
2.43,0.08,0.26,0.95,0.03,0.05,-0.06,
2.433,0.08,0.27,0.95,0.03,0.05,-0.06,
2.433,0.08,0.27,0.95,0.08,0.04,-0.04,
2.435,0.08,0.27,0.95,0.08,0.04,-0.04,
2.437,0.08,0.27,0.95,0.10,0.02,-0.05,
2.438,0.08,0.27,0.96,0.10,0.02,-0.05,
2.44,0.09,0.27,0.96,0.10,0.02,-0.05,
2.442,0.09,0.27,0.96,0.13,0.05,0.00,
2.442,0.08,0.28,0.97,0.13,0.05,0.00,
2.444,0.07,0.28,0.97,0.13,0.05,0.00,
2.447,0.06,0.29,0.96,0.13,0.05,0.00,
2.447,0.06,0.29,0.96,0.14,0.11,0.09,
2.45,0.05,0.30,0.96,0.14,0.11,0.09,
2.452,0.05,0.31,0.95,0.14,0.11,0.09,
2.452,0.05,0.31,0.95,-0.02,0.23,0.12,
2.454,0.04,0.31,0.95,-0.02,0.23,0.12,
2.458,0.02,0.31,0.94,-0.02,0.23,0.12,
2.458,0.02,0.31,0.94,-0.20,0.38,0.03,
2.46,0.02,0.30,0.94,-0.20,0.38,0.03,
2.463,0.02,0.29,0.93,-0.20,0.38,0.03,
2.463,0.02,0.29,0.93,-0.38,0.39,-0.11,
2.466,0.02,0.28,0.93,-0.38,0.39,-0.11,
2.466,0.02,0.26,0.92,-0.38,0.39,-0.11,
2.467,0.02,0.26,0.92,-0.47,0.28,-0.18,
2.471,0.02,0.25,0.92,-0.47,0.28,-0.18,
2.471,0.02,0.24,0.92,-0.47,0.28,-0.18,
2.472,0.02,0.24,0.92,-0.45,0.01,-0.27,
2.476,0.03,0.23,0.92,-0.45,0.01,-0.27,
2.477,0.02,0.23,0.93,-0.45,0.01,-0.27,
2.477,0.02,0.23,0.93,-0.42,-0.22,-0.32,
2.479,0.02,0.23,0.93,-0.42,-0.22,-0.32,
2.483,0.02,0.22,0.93,-0.42,-0.22,-0.32,
2.483,0.02,0.22,0.93,-0.38,-0.37,-0.30,
2.483,0.02,0.22,0.92,-0.38,-0.37,-0.30,
2.487,0.01,0.22,0.92,-0.38,-0.37,-0.30,
2.487,0.01,0.22,0.92,-0.41,-0.44,-0.22,
2.489,0.01,0.22,0.92,-0.41,-0.44,-0.22,
2.491,0.00,0.22,0.91,-0.41,-0.44,-0.22,
2.491,0.00,0.22,0.91,-0.50,-0.47,-0.29,
2.494,0.00,0.23,0.91,-0.50,-0.47,-0.29,
2.496,0.00,0.23,0.91,-0.50,-0.47,-0.29,
2.497,0.00,0.23,0.91,-0.61,-0.46,-0.34,
2.504,0.01,0.24,0.90,-0.61,-0.46,-0.34,
2.505,0.01,0.25,0.91,-0.61,-0.46,-0.34,
2.505,0.01,0.25,0.91,-0.62,-0.41,-0.40,
2.505,0.02,0.25,0.91,-0.62,-0.41,-0.40,
2.506,0.03,0.26,0.91,-0.62,-0.41,-0.40,
2.506,0.03,0.26,0.91,-0.56,-0.28,-0.44,
2.508,0.03,0.26,0.91,-0.56,-0.28,-0.44,
2.511,0.05,0.26,0.92,-0.56,-0.28,-0.44,
2.512,0.05,0.26,0.92,-0.43,-0.16,-0.39,
2.514,0.05,0.27,0.91,-0.43,-0.16,-0.39,
2.527,0.05,0.26,0.91,-0.43,-0.16,-0.39,
2.527,0.05,0.26,0.91,-0.31,-0.11,-0.32,
2.528,0.06,0.26,0.91,-0.31,-0.11,-0.32,
2.528,0.06,0.26,0.92,-0.31,-0.11,-0.32,
2.528,0.06,0.26,0.92,-0.23,-0.08,-0.37,
2.528,0.06,0.27,0.91,-0.23,-0.08,-0.37,
2.529,0.07,0.26,0.92,-0.23,-0.08,-0.37,
2.529,0.07,0.26,0.92,-0.14,-0.10,-0.30,
2.529,0.07,0.26,0.93,-0.14,-0.10,-0.30,
2.531,0.08,0.26,0.93,-0.14,-0.10,-0.30,
2.531,0.08,0.26,0.93,-0.10,-0.10,-0.28,
2.541,0.08,0.27,0.94,-0.10,-0.10,-0.28,
2.541,0.08,0.27,0.94,-0.10,-0.10,-0.28,
2.542,0.08,0.27,0.94,-0.04,-0.12,-0.19,
2.542,0.08,0.28,0.95,-0.04,-0.12,-0.19,
2.542,0.08,0.28,0.95,-0.04,-0.12,-0.19,
2.542,0.08,0.28,0.95,-0.01,-0.06,-0.08,
