
time,gFx,gFy,gFz,ax,ay,az,
0.003,-0.03,0.13,0.98,-0.23,-0.05,-0.14,
0.003,-0.03,0.13,0.98,-0.23,-0.05,-0.14,
0.003,-0.04,0.13,0.99,-0.23,-0.05,-0.14,
0.004,-0.04,0.13,1.00,-0.23,-0.05,-0.14,
0.004,-0.04,0.13,1.00,-0.22,-0.05,-0.09,
0.004,-0.04,0.13,1.00,-0.22,-0.05,-0.09,
0.007,-0.04,0.13,1.00,-0.22,-0.05,-0.09,
0.007,-0.04,0.13,1.00,-0.30,-0.07,0.02,
0.009,-0.04,0.13,1.00,-0.30,-0.07,0.02,
0.011,-0.04,0.13,1.00,-0.35,-0.04,0.07,
0.012,-0.04,0.14,1.00,-0.35,-0.04,0.07,
0.014,-0.04,0.13,1.00,-0.35,-0.04,0.07,
0.017,-0.04,0.13,1.00,-0.31,-0.04,0.10,
0.017,-0.04,0.13,1.00,-0.31,-0.04,0.10,
0.019,-0.04,0.13,1.00,-0.31,-0.04,0.10,
0.022,-0.04,0.13,1.00,-0.31,-0.04,0.10,
0.022,-0.04,0.13,1.00,-0.31,-0.05,0.11,
0.024,-0.05,0.13,1.00,-0.31,-0.05,0.11,
0.027,-0.05,0.13,1.00,-0.31,-0.05,0.11,
0.027,-0.05,0.13,1.00,-0.33,-0.07,0.09,
0.03,-0.05,0.13,1.00,-0.33,-0.07,0.09,
0.034,-0.05,0.12,1.00,-0.33,-0.07,0.09,
0.034,-0.05,0.12,1.00,-0.35,-0.10,0.10,
0.034,-0.05,0.11,1.01,-0.35,-0.10,0.10,
0.037,-0.06,0.12,1.00,-0.35,-0.10,0.10,
0.037,-0.06,0.12,1.00,-0.35,-0.14,0.11,
0.039,-0.06,0.12,1.01,-0.35,-0.14,0.11,
0.042,-0.06,0.12,1.01,-0.39,-0.20,0.11,
0.042,-0.07,0.12,1.01,-0.39,-0.20,0.11,
0.044,-0.07,0.12,1.01,-0.39,-0.20,0.11,
0.047,-0.07,0.11,1.01,-0.39,-0.20,0.11,
0.047,-0.07,0.11,1.01,-0.49,-0.19,0.14,
0.048,-0.07,0.11,1.01,-0.49,-0.19,0.14,
0.051,-0.06,0.11,1.02,-0.49,-0.19,0.14,
0.051,-0.06,0.11,1.02,-0.52,-0.20,0.13,
0.054,-0.06,0.10,1.02,-0.52,-0.20,0.13,
0.057,-0.06,0.11,1.02,-0.52,-0.20,0.13,
0.057,-0.06,0.11,1.02,-0.46,-0.23,0.20,
0.058,-0.05,0.10,1.02,-0.46,-0.23,0.20,
0.062,-0.05,0.10,1.02,-0.35,-0.30,0.24,
0.062,-0.05,0.10,1.01,-0.35,-0.30,0.24,
0.067,-0.05,0.11,1.01,-0.35,-0.30,0.24,
0.067,-0.05,0.11,1.01,-0.29,-0.32,0.17,
0.067,-0.06,0.11,1.00,-0.29,-0.32,0.17,
0.068,-0.06,0.11,1.00,-0.29,-0.32,0.17,
0.071,-0.06,0.11,1.00,-0.29,-0.32,0.17,
0.071,-0.06,0.11,1.00,-0.30,-0.27,0.10,
0.074,-0.06,0.11,1.00,-0.30,-0.27,0.10,
0.077,-0.05,0.11,1.00,-0.30,-0.27,0.10,
0.077,-0.05,0.11,1.00,-0.30,-0.22,0.05,
0.08,-0.05,0.12,1.00,-0.30,-0.22,0.05,
0.084,-0.05,0.12,0.99,-0.30,-0.22,0.05,
0.084,-0.05,0.12,0.99,-0.30,-0.24,0.09,
0.084,-0.04,0.12,1.00,-0.30,-0.24,0.09,
0.087,-0.05,0.12,1.00,-0.30,-0.24,0.09,
0.087,-0.05,0.12,1.00,-0.19,-0.16,0.02,
0.088,-0.05,0.12,1.00,-0.19,-0.16,0.02,
0.091,-0.05,0.12,1.00,-0.15,-0.16,0.04,
0.092,-0.04,0.12,1.01,-0.15,-0.16,0.04,
0.094,-0.04,0.12,1.02,-0.15,-0.16,0.04,
0.097,-0.04,0.11,1.01,-0.15,-0.16,0.04,
0.098,-0.04,0.11,1.01,-0.18,-0.16,0.13,
0.098,-0.04,0.12,1.02,-0.18,-0.16,0.13,
0.101,-0.03,0.12,1.02,-0.18,-0.16,0.13,
0.102,-0.03,0.12,1.02,-0.13,-0.20,0.20,
0.104,-0.03,0.11,1.02,-0.13,-0.20,0.20,
0.106,-0.03,0.11,1.03,-0.13,-0.20,0.20,
0.106,-0.03,0.11,1.03,-0.07,-0.18,0.23,
0.108,-0.04,0.12,1.03,-0.07,-0.18,0.23,
0.111,-0.03,0.11,1.03,-0.07,-0.18,0.23,
0.111,-0.03,0.11,1.03,-0.06,-0.19,0.27,
0.113,-0.04,0.12,1.04,-0.06,-0.19,0.27,
0.116,-0.04,0.12,1.04,-0.07,-0.19,0.34,
0.116,-0.03,0.12,1.04,-0.07,-0.19,0.34,
0.118,-0.04,0.12,1.03,-0.07,-0.19,0.34,
0.127,-0.04,0.12,1.04,-0.07,-0.19,0.34,
0.127,-0.04,0.12,1.04,-0.07,-0.15,0.40,
0.127,-0.04,0.12,1.04,-0.07,-0.15,0.40,
0.127,-0.04,0.12,1.04,-0.07,-0.15,0.40,
0.127,-0.04,0.12,1.04,-0.08,-0.11,0.36,
0.128,-0.05,0.12,1.03,-0.08,-0.11,0.36,
0.131,-0.05,0.12,1.03,-0.08,-0.11,0.36,
0.131,-0.05,0.12,1.03,-0.13,-0.14,0.39,
0.133,-0.05,0.12,1.04,-0.13,-0.14,0.39,
0.136,-0.05,0.12,1.03,-0.13,-0.14,0.39,
0.136,-0.05,0.12,1.03,-0.18,-0.16,0.36,
0.138,-0.06,0.12,1.03,-0.18,-0.16,0.36,
0.141,-0.06,0.12,1.03,-0.22,-0.13,0.38,
0.141,-0.06,0.12,1.03,-0.22,-0.13,0.38,
0.143,-0.06,0.12,1.03,-0.22,-0.13,0.38,
0.146,-0.07,0.11,1.03,-0.22,-0.13,0.38,
0.147,-0.07,0.11,1.03,-0.29,-0.16,0.30,
0.147,-0.07,0.12,1.02,-0.29,-0.16,0.30,
0.151,-0.07,0.12,1.02,-0.34,-0.18,0.28,
0.151,-0.07,0.12,1.01,-0.34,-0.18,0.28,
0.153,-0.08,0.11,1.01,-0.34,-0.18,0.28,
0.156,-0.08,0.11,1.01,-0.34,-0.18,0.28,
0.156,-0.08,0.11,1.01,-0.39,-0.17,0.18,
0.157,-0.09,0.11,1.01,-0.39,-0.17,0.18,
0.161,-0.09,0.11,0.99,-0.39,-0.17,0.18,
0.163,-0.09,0.11,0.99,-0.44,-0.22,0.09,
0.163,-0.09,0.12,0.99,-0.44,-0.22,0.09,
0.165,-0.09,0.12,0.99,-0.51,-0.22,0.03,
0.165,-0.09,0.12,0.98,-0.51,-0.22,0.03,
0.168,-0.09,0.12,0.97,-0.51,-0.22,0.03,
0.171,-0.10,0.12,0.97,-0.51,-0.22,0.03,
0.171,-0.10,0.12,0.97,-0.53,-0.19,-0.13,
0.173,-0.10,0.12,0.97,-0.53,-0.19,-0.13,
0.176,-0.10,0.12,0.96,-0.53,-0.19,-0.13,
0.176,-0.10,0.12,0.96,-0.57,-0.18,-0.22,
0.178,-0.11,0.13,0.96,-0.57,-0.18,-0.22,
0.183,-0.10,0.13,0.96,-0.57,-0.18,-0.22,
0.184,-0.10,0.13,0.96,-0.59,-0.14,-0.31,
0.184,-0.10,0.14,0.95,-0.59,-0.14,-0.31,
0.185,-0.11,0.14,0.95,-0.59,-0.14,-0.31,
0.185,-0.11,0.14,0.95,-0.63,-0.10,-0.37,
0.187,-0.11,0.14,0.95,-0.63,-0.10,-0.37,
0.19,-0.11,0.14,0.95,-0.63,0.00,-0.44,
0.19,-0.11,0.14,0.94,-0.63,0.00,-0.44,
0.192,-0.11,0.15,0.94,-0.63,0.00,-0.44,
0.195,-0.11,0.15,0.94,-0.63,0.00,-0.44,
0.195,-0.11,0.15,0.94,-0.66,0.04,-0.51,
0.197,-0.11,0.16,0.94,-0.66,0.04,-0.51,
0.2,-0.11,0.16,0.94,-0.66,0.04,-0.51,
0.2,-0.11,0.16,0.94,-0.64,0.12,-0.51,
0.202,-0.11,0.16,0.94,-0.64,0.12,-0.51,
0.205,-0.11,0.16,0.94,-0.64,0.12,-0.51,
0.206,-0.11,0.16,0.94,-0.64,0.16,-0.52,
0.207,-0.11,0.16,0.94,-0.64,0.16,-0.52,
0.21,-0.11,0.17,0.94,-0.64,0.16,-0.52,
0.21,-0.11,0.17,0.94,-0.60,0.20,-0.54,
0.212,-0.10,0.17,0.94,-0.60,0.20,-0.54,
0.215,-0.10,0.17,0.94,-0.61,0.26,-0.53,
0.215,-0.11,0.17,0.94,-0.61,0.26,-0.53,
0.217,-0.11,0.17,0.95,-0.61,0.26,-0.53,
0.22,-0.11,0.18,0.95,-0.61,0.26,-0.53,
0.22,-0.11,0.18,0.95,-0.57,0.30,-0.52,
0.222,-0.11,0.18,0.95,-0.57,0.30,-0.52,
0.225,-0.11,0.18,0.96,-0.57,0.30,-0.52,
0.225,-0.11,0.18,0.96,-0.61,0.32,-0.40,
0.227,-0.11,0.18,0.96,-0.61,0.32,-0.40,
0.232,-0.11,0.18,0.97,-0.61,0.32,-0.40,
0.232,-0.11,0.18,0.97,-0.58,0.34,-0.36,
0.232,-0.11,0.17,0.98,-0.58,0.34,-0.36,
0.235,-0.11,0.18,0.98,-0.58,0.34,-0.36,
0.235,-0.11,0.18,0.98,-0.61,0.35,-0.23,
0.237,-0.11,0.17,0.98,-0.61,0.35,-0.23,
0.24,-0.11,0.17,0.98,-0.60,0.31,-0.14,
0.24,-0.11,0.17,0.99,-0.60,0.31,-0.14,
0.242,-0.11,0.16,0.99,-0.60,0.31,-0.14,
0.245,-0.12,0.16,0.99,-0.60,0.31,-0.14,
0.245,-0.12,0.16,0.99,-0.63,0.26,-0.08,
0.246,-0.12,0.16,1.00,-0.63,0.26,-0.08,
0.249,-0.12,0.15,1.00,-0.63,0.26,-0.08,
0.25,-0.12,0.15,1.00,-0.65,0.20,-0.02,
0.252,-0.13,0.15,1.01,-0.65,0.20,-0.02,
0.255,-0.13,0.15,1.01,-0.65,0.20,-0.02,
0.255,-0.13,0.15,1.01,-0.71,0.13,0.09,
0.257,-0.13,0.14,1.01,-0.71,0.13,0.09,
0.26,-0.13,0.14,1.01,-0.71,0.13,0.09,
0.26,-0.13,0.14,1.01,-0.77,0.06,0.16,
0.262,-0.14,0.14,1.01,-0.77,0.06,0.16,
0.268,-0.14,0.14,1.01,-0.80,0.00,0.15,
0.268,-0.14,0.13,1.00,-0.80,0.00,0.15,
0.269,-0.14,0.13,1.01,-0.80,0.00,0.15,
0.269,-0.14,0.13,1.00,-0.80,0.00,0.15,
0.269,-0.14,0.13,1.00,-0.84,-0.05,0.13,
0.271,-0.15,0.13,1.01,-0.84,-0.05,0.13,
0.274,-0.15,0.13,1.00,-0.84,-0.05,0.13,
0.274,-0.15,0.13,1.00,-0.86,-0.11,0.14,
0.277,-0.15,0.13,1.00,-0.86,-0.11,0.14,
0.28,-0.15,0.13,1.00,-0.86,-0.11,0.14,
0.28,-0.15,0.13,1.00,-0.91,-0.11,0.11,
0.282,-0.16,0.13,1.00,-0.91,-0.11,0.11,
0.284,-0.16,0.13,1.00,-0.91,-0.11,0.11,
0.284,-0.16,0.13,1.00,-0.95,-0.12,0.03,
0.286,-0.16,0.13,1.00,-0.95,-0.12,0.03,
0.29,-0.16,0.13,1.00,-1.00,-0.10,0.03,
0.29,-0.16,0.13,0.99,-1.00,-0.10,0.03,
0.292,-0.16,0.13,1.00,-1.00,-0.10,0.03,
0.294,-0.16,0.14,1.00,-1.00,-0.10,0.03,
0.295,-0.16,0.14,1.00,-1.01,-0.09,0.01,
0.297,-0.16,0.14,1.00,-1.01,-0.09,0.01,
0.3,-0.17,0.14,1.00,-1.01,-0.09,0.01,
0.301,-0.17,0.14,1.00,-1.03,-0.06,0.04,
0.301,-0.17,0.15,1.00,-1.03,-0.06,0.04,
0.304,-0.17,0.15,1.00,-1.06,-0.02,0.09,
0.304,-0.17,0.15,1.00,-1.06,-0.02,0.09,
0.307,-0.17,0.15,1.01,-1.06,-0.02,0.09,
0.309,-0.17,0.15,1.01,-1.06,-0.02,0.09,
0.309,-0.17,0.15,1.01,-1.10,0.03,0.10,
0.311,-0.16,0.15,1.01,-1.10,0.03,0.10,
0.314,-0.16,0.15,1.01,-1.08,0.07,0.19,
0.315,-0.16,0.16,1.02,-1.08,0.07,0.19,
0.316,-0.15,0.16,1.03,-1.08,0.07,0.19,
0.319,-0.15,0.16,1.03,-1.08,0.07,0.19,
0.319,-0.15,0.16,1.03,-0.97,0.10,0.24,
0.321,-0.14,0.16,1.03,-0.97,0.10,0.24,
0.324,-0.14,0.16,1.04,-0.97,0.10,0.24,
0.325,-0.14,0.16,1.04,-0.88,0.11,0.33,
0.327,-0.14,0.16,1.05,-0.88,0.11,0.33,
0.328,-0.14,0.16,1.05,-0.80,0.13,0.39,
0.329,-0.13,0.16,1.05,-0.80,0.13,0.39,
0.331,-0.13,0.16,1.05,-0.80,0.13,0.39,
0.334,-0.13,0.16,1.05,-0.80,0.13,0.39,
0.334,-0.13,0.16,1.05,-0.75,0.12,0.52,
0.336,-0.13,0.16,1.06,-0.75,0.12,0.52,
0.338,-0.13,0.16,1.06,-0.69,0.14,0.55,
0.339,-0.13,0.16,1.06,-0.69,0.14,0.55,
0.34,-0.13,0.16,1.06,-0.69,0.14,0.55,
0.343,-0.12,0.15,1.06,-0.69,0.14,0.55,
0.344,-0.12,0.15,1.06,-0.66,0.11,0.62,
0.346,-0.13,0.15,1.05,-0.66,0.11,0.62,
0.349,-0.13,0.15,1.05,-0.64,0.09,0.62,
0.35,-0.13,0.15,1.04,-0.64,0.09,0.62,
0.351,-0.13,0.15,1.05,-0.64,0.09,0.62,
0.354,-0.13,0.15,1.05,-0.62,0.05,0.51,
0.354,-0.14,0.15,1.05,-0.62,0.05,0.51,
0.356,-0.14,0.14,1.04,-0.62,0.05,0.51,
0.359,-0.15,0.14,1.03,-0.62,0.05,0.51,
0.359,-0.15,0.14,1.03,-0.70,0.02,0.49,
0.361,-0.15,0.14,1.03,-0.70,0.02,0.49,
0.365,-0.15,0.14,1.03,-0.76,-0.04,0.38,
0.366,-0.15,0.15,1.02,-0.76,-0.04,0.38,
0.366,-0.15,0.15,1.01,-0.76,-0.04,0.38,
0.368,-0.16,0.14,1.01,-0.76,-0.04,0.38,
0.368,-0.16,0.14,1.01,-0.80,-0.03,0.28,
0.371,-0.16,0.14,1.01,-0.80,-0.03,0.28,
0.374,-0.17,0.14,1.00,-0.80,-0.03,0.28,
0.374,-0.17,0.14,1.00,-0.85,-0.03,0.16,
0.376,-0.18,0.13,0.99,-0.85,-0.03,0.16,
0.378,-0.18,0.13,0.99,-0.94,-0.07,0.06,
0.378,-0.19,0.13,0.99,-0.94,-0.07,0.06,
0.382,-0.19,0.13,0.99,-0.94,-0.07,0.06,
0.383,-0.19,0.14,0.98,-0.94,-0.07,0.06,
0.383,-0.19,0.14,0.98,-1.06,-0.14,-0.04,
0.386,-0.20,0.14,0.98,-1.06,-0.14,-0.04,
0.388,-0.20,0.14,0.98,-1.11,-0.15,-0.14,
0.388,-0.20,0.13,0.97,-1.11,-0.15,-0.14,
0.391,-0.20,0.13,0.97,-1.11,-0.15,-0.14,
0.393,-0.21,0.13,0.97,-1.11,-0.15,-0.14,
0.394,-0.21,0.13,0.97,-1.18,-0.17,-0.19,
0.396,-0.21,0.14,0.96,-1.18,-0.17,-0.19,
0.402,-0.21,0.14,0.96,-1.18,-0.17,-0.19,
0.403,-0.21,0.14,0.96,-1.22,-0.16,-0.25,
0.403,-0.21,0.14,0.96,-1.22,-0.16,-0.25,
0.403,-0.21,0.15,0.96,-1.22,-0.16,-0.25,
0.403,-0.21,0.15,0.96,-1.25,-0.11,-0.30,
0.405,-0.21,0.14,0.97,-1.25,-0.11,-0.30,
0.408,-0.20,0.15,0.96,-1.25,-0.11,-0.30,
0.408,-0.20,0.15,0.96,-1.25,-0.07,-0.30,
0.41,-0.20,0.14,0.97,-1.25,-0.07,-0.30,
0.413,-0.20,0.14,0.97,-1.18,-0.10,-0.30,
0.414,-0.19,0.15,0.96,-1.18,-0.10,-0.30,
0.416,-0.19,0.15,0.97,-1.18,-0.10,-0.30,
0.418,-0.18,0.15,0.97,-1.18,-0.10,-0.30,
0.418,-0.18,0.15,0.97,-1.10,-0.10,-0.26,
0.42,-0.18,0.15,0.97,-1.10,-0.10,-0.26,
0.423,-0.17,0.15,0.97,-1.10,-0.10,-0.26,
0.423,-0.17,0.15,0.97,-0.98,-0.07,-0.20,
0.425,-0.16,0.15,0.98,-0.98,-0.07,-0.20,
0.428,-0.15,0.15,0.98,-0.98,-0.07,-0.20,
0.428,-0.15,0.15,0.98,-0.85,-0.05,-0.20,
0.43,-0.15,0.16,0.98,-0.85,-0.05,-0.20,
0.433,-0.14,0.16,0.98,-0.85,-0.05,-0.20,
0.434,-0.14,0.16,0.98,-0.70,-0.04,-0.12,
0.435,-0.14,0.15,0.98,-0.70,-0.04,-0.12,
0.438,-0.14,0.15,0.98,-0.55,0.01,-0.13,
0.439,-0.14,0.15,0.97,-0.55,0.01,-0.13,
0.44,-0.13,0.15,0.98,-0.55,0.01,-0.13,
0.443,-0.13,0.15,0.97,-0.55,0.01,-0.13,
0.443,-0.13,0.15,0.97,-0.48,-0.04,-0.17,
0.445,-0.13,0.15,0.97,-0.48,-0.04,-0.17,
0.45,-0.13,0.15,0.98,-0.48,-0.04,-0.17,
0.45,-0.13,0.15,0.98,-0.38,-0.06,-0.16,
0.45,-0.13,0.15,0.97,-0.38,-0.06,-0.16,
0.452,-0.13,0.14,0.98,-0.38,-0.06,-0.16,
0.453,-0.13,0.14,0.98,-0.36,-0.07,-0.16,
0.455,-0.13,0.14,0.98,-0.36,-0.07,-0.16,
0.458,-0.13,0.14,0.99,-0.36,-0.07,-0.16,
0.458,-0.13,0.14,0.99,-0.34,-0.11,-0.15,
0.46,-0.13,0.14,0.98,-0.34,-0.11,-0.15,
0.463,-0.13,0.14,0.98,-0.36,-0.16,-0.08,
0.463,-0.13,0.13,0.99,-0.36,-0.16,-0.08,
0.465,-0.13,0.13,1.00,-0.36,-0.16,-0.08,
0.467,-0.14,0.13,0.99,-0.36,-0.16,-0.08,
0.467,-0.14,0.13,0.99,-0.35,-0.19,-0.07,
0.47,-0.14,0.13,1.00,-0.35,-0.19,-0.07,
0.473,-0.14,0.12,1.00,-0.35,-0.19,-0.07,
0.473,-0.14,0.12,1.00,-0.40,-0.23,0.04,
0.475,-0.14,0.12,1.00,-0.40,-0.23,0.04,
0.478,-0.14,0.12,1.00,-0.41,-0.29,0.05,
0.478,-0.14,0.11,1.00,-0.41,-0.29,0.05,
0.48,-0.14,0.11,1.00,-0.41,-0.29,0.05,
0.483,-0.14,0.12,1.00,-0.41,-0.29,0.05,
0.483,-0.14,0.12,1.00,-0.39,-0.37,0.08,
0.484,-0.14,0.11,1.00,-0.39,-0.37,0.08,
0.487,-0.14,0.11,1.00,-0.38,-0.40,0.09,
0.487,-0.14,0.12,1.00,-0.38,-0.40,0.09,
0.489,-0.14,0.11,1.00,-0.38,-0.40,0.09,
0.492,-0.14,0.11,1.00,-0.41,-0.39,0.11,
0.492,-0.14,0.11,1.00,-0.41,-0.39,0.11,
0.494,-0.15,0.11,1.00,-0.41,-0.39,0.11,
0.496,-0.15,0.11,1.00,-0.41,-0.39,0.11,
0.497,-0.15,0.11,1.00,-0.42,-0.40,0.09,
0.502,-0.15,0.11,1.00,-0.42,-0.40,0.09,
0.503,-0.14,0.11,0.99,-0.42,-0.40,0.09,
0.503,-0.14,0.11,0.99,-0.44,-0.42,0.10,
0.504,-0.15,0.10,0.99,-0.44,-0.42,0.10,
0.506,-0.14,0.11,0.99,-0.44,-0.42,0.10,
0.507,-0.14,0.11,0.99,-0.43,-0.46,0.02,
0.509,-0.14,0.10,0.98,-0.43,-0.46,0.02,
0.511,-0.14,0.10,0.98,-0.42,-0.48,-0.02,
0.512,-0.15,0.10,0.98,-0.42,-0.48,-0.02,
0.514,-0.14,0.10,0.97,-0.42,-0.48,-0.02,
0.516,-0.14,0.10,0.96,-0.42,-0.48,-0.02,
0.517,-0.14,0.10,0.96,-0.41,-0.53,-0.13,
0.519,-0.14,0.10,0.96,-0.41,-0.53,-0.13,
0.522,-0.14,0.10,0.96,-0.41,-0.53,-0.13,
0.522,-0.14,0.10,0.96,-0.39,-0.56,-0.22,
0.524,-0.14,0.10,0.95,-0.39,-0.56,-0.22,
0.526,-0.14,0.10,0.95,-0.39,-0.56,-0.22,
0.527,-0.14,0.10,0.95,-0.38,-0.57,-0.31,
0.529,-0.14,0.09,0.94,-0.38,-0.57,-0.31,
0.532,-0.13,0.09,0.94,-0.38,-0.57,-0.31,
0.533,-0.13,0.09,0.94,-0.37,-0.55,-0.40,
0.535,-0.13,0.09,0.94,-0.37,-0.55,-0.40,
0.536,-0.13,0.09,0.94,-0.29,-0.63,-0.49,
0.536,-0.13,0.09,0.94,-0.29,-0.63,-0.49,
0.538,-0.13,0.08,0.93,-0.29,-0.63,-0.49,
0.541,-0.13,0.08,0.93,-0.29,-0.63,-0.49,
0.542,-0.13,0.08,0.93,-0.26,-0.64,-0.49,
0.544,-0.12,0.08,0.94,-0.26,-0.64,-0.49,
0.546,-0.12,0.08,0.94,-0.26,-0.64,-0.49,
0.546,-0.12,0.08,0.94,-0.20,-0.68,-0.52,
0.551,-0.12,0.09,0.94,-0.20,-0.68,-0.52,
0.552,-0.12,0.08,0.95,-0.20,-0.68,-0.52,
0.552,-0.12,0.08,0.95,-0.16,-0.70,-0.45,
0.553,-0.12,0.09,0.95,-0.16,-0.70,-0.45,
0.556,-0.12,0.09,0.95,-0.16,-0.70,-0.45,
0.556,-0.12,0.09,0.95,-0.14,-0.66,-0.38,
0.558,-0.12,0.09,0.96,-0.14,-0.66,-0.38,
0.561,-0.12,0.09,0.96,-0.11,-0.64,-0.37,
0.561,-0.11,0.09,0.97,-0.11,-0.64,-0.37,
0.563,-0.11,0.09,0.98,-0.11,-0.64,-0.37,
0.566,-0.11,0.08,0.97,-0.11,-0.64,-0.37,
0.567,-0.11,0.08,0.97,-0.07,-0.63,-0.22,
0.568,-0.10,0.09,0.98,-0.07,-0.63,-0.22,
0.571,-0.10,0.09,0.98,0.01,-0.63,-0.11,
0.571,-0.10,0.09,0.99,0.01,-0.63,-0.11,
0.573,-0.10,0.09,0.99,0.01,-0.63,-0.11,
0.576,-0.10,0.09,1.00,0.01,-0.63,-0.11,
0.576,-0.10,0.09,1.00,0.04,-0.59,-0.02,
0.578,-0.10,0.09,1.00,0.04,-0.59,-0.02,
0.582,-0.10,0.09,1.00,0.04,-0.59,-0.02,
0.582,-0.10,0.09,1.00,0.06,-0.61,0.07,
0.583,-0.09,0.08,0.99,0.06,-0.61,0.07,
0.586,-0.09,0.08,0.99,0.09,-0.60,0.12,
0.586,-0.09,0.09,1.00,0.09,-0.60,0.12,
0.588,-0.09,0.08,1.00,0.09,-0.60,0.12,
0.591,-0.09,0.08,1.00,0.17,-0.60,0.09,
0.591,-0.09,0.09,1.00,0.17,-0.60,0.09,
0.593,-0.10,0.08,1.00,0.17,-0.60,0.09,
0.596,-0.10,0.09,1.00,0.17,-0.60,0.09,
0.596,-0.10,0.09,1.00,0.18,-0.59,0.12,
0.599,-0.10,0.09,0.99,0.18,-0.59,0.12,
0.601,-0.11,0.09,0.98,0.18,-0.59,0.12,
0.601,-0.11,0.09,0.98,0.09,-0.56,0.09,
0.603,-0.11,0.09,0.98,0.09,-0.56,0.09,
0.606,-0.11,0.09,0.98,0.02,-0.54,-0.04,
0.606,-0.11,0.09,0.97,0.02,-0.54,-0.04,
0.608,-0.11,0.09,0.97,0.02,-0.54,-0.04,
0.61,-0.11,0.09,0.97,-0.00,-0.49,-0.14,
0.611,-0.11,0.10,0.96,-0.00,-0.49,-0.14,
0.613,-0.11,0.10,0.96,-0.00,-0.49,-0.14,
0.62,-0.11,0.10,0.96,-0.00,-0.49,-0.14,
0.62,-0.11,0.10,0.96,-0.00,-0.46,-0.22,
0.621,-0.11,0.10,0.96,-0.00,-0.46,-0.22,
0.621,-0.11,0.10,0.95,-0.00,-0.46,-0.22,
0.621,-0.11,0.10,0.95,0.01,-0.41,-0.25,
0.623,-0.10,0.10,0.95,0.01,-0.41,-0.25,
0.625,-0.10,0.10,0.94,0.01,-0.41,-0.25,
0.625,-0.10,0.10,0.94,0.04,-0.41,-0.30,
0.627,-0.10,0.10,0.94,0.04,-0.41,-0.30,
0.63,-0.09,0.09,0.94,0.04,-0.41,-0.30,
0.63,-0.09,0.09,0.94,0.10,-0.38,-0.41,
0.632,-0.08,0.09,0.93,0.10,-0.38,-0.41,
0.635,-0.08,0.09,0.93,0.19,-0.43,-0.45,
0.636,-0.08,0.09,0.92,0.19,-0.43,-0.45,
0.637,-0.07,0.09,0.92,0.19,-0.43,-0.45,
0.64,-0.07,0.09,0.92,0.34,-0.46,-0.60,
0.64,-0.06,0.09,0.92,0.34,-0.46,-0.60,
0.642,-0.06,0.09,0.91,0.34,-0.46,-0.60,
0.646,-0.05,0.09,0.91,0.34,-0.46,-0.60,
0.646,-0.05,0.09,0.91,0.46,-0.50,-0.65,
0.648,-0.05,0.08,0.92,0.46,-0.50,-0.65,
0.651,-0.05,0.08,0.91,0.46,-0.50,-0.65,
0.651,-0.05,0.08,0.91,0.58,-0.50,-0.71,
0.652,-0.04,0.08,0.91,0.58,-0.50,-0.71,
0.655,-0.04,0.08,0.92,0.58,-0.50,-0.71,
0.658,-0.04,0.08,0.92,0.62,-0.59,-0.70,
0.659,-0.04,0.08,0.92,0.62,-0.59,-0.70,
0.66,-0.04,0.08,0.92,0.66,-0.58,-0.64,
0.66,-0.03,0.08,0.93,0.66,-0.58,-0.64,
0.662,-0.04,0.08,0.93,0.66,-0.58,-0.64,
0.668,-0.04,0.08,0.94,0.66,-0.58,-0.64,
0.668,-0.04,0.08,0.94,0.71,-0.59,-0.55,
0.669,-0.04,0.08,0.95,0.71,-0.59,-0.55,
0.67,-0.04,0.07,0.96,0.71,-0.59,-0.55,
0.67,-0.04,0.07,0.96,0.71,-0.56,-0.44,
0.672,-0.03,0.08,0.97,0.71,-0.56,-0.44,
0.676,-0.03,0.08,0.98,0.71,-0.56,-0.44,
0.676,-0.03,0.08,0.98,0.70,-0.56,-0.29,
0.677,-0.03,0.08,0.98,0.70,-0.56,-0.29,
0.681,-0.03,0.08,0.98,0.72,-0.53,-0.11,
0.681,-0.04,0.08,0.99,0.72,-0.53,-0.11,
0.683,-0.04,0.08,1.00,0.72,-0.53,-0.11,
0.685,-0.04,0.08,1.00,0.70,-0.51,0.03,
0.685,-0.03,0.08,1.00,0.70,-0.51,0.03,
0.687,-0.03,0.08,1.00,0.70,-0.51,0.03,
0.691,-0.02,0.08,1.01,0.70,-0.51,0.03,
0.691,-0.02,0.08,1.01,0.67,-0.50,0.14,
0.692,-0.02,0.08,1.01,0.67,-0.50,0.14,
0.695,-0.01,0.08,1.01,0.67,-0.50,0.14,
0.695,-0.01,0.08,1.01,0.74,-0.48,0.19,
0.698,-0.01,0.08,1.02,0.74,-0.48,0.19,
0.7,-0.01,0.08,1.02,0.74,-0.48,0.19,
0.7,-0.01,0.08,1.02,0.83,-0.51,0.26,
0.702,-0.01,0.08,1.01,0.83,-0.51,0.26,
0.705,-0.01,0.07,1.01,0.83,-0.51,0.26,
0.706,-0.01,0.07,1.01,0.87,-0.50,0.32,
0.708,-0.01,0.08,1.01,0.87,-0.50,0.32,
0.711,-0.01,0.08,1.01,0.85,-0.52,0.29,
0.711,-0.01,0.08,1.01,0.85,-0.52,0.29,
0.712,-0.01,0.08,1.00,0.85,-0.52,0.29,
0.715,-0.01,0.08,1.00,0.85,-0.52,0.29,
0.715,-0.01,0.08,1.00,0.86,-0.49,0.26,
0.721,-0.01,0.07,0.99,0.86,-0.49,0.26,
0.721,-0.01,0.07,0.99,0.86,-0.50,0.16,
0.722,-0.00,0.08,0.98,0.86,-0.50,0.16,
0.722,-0.00,0.07,0.98,0.86,-0.50,0.16,
0.725,-0.00,0.07,0.97,0.86,-0.50,0.16,
0.725,-0.00,0.07,0.97,0.88,-0.49,0.04,
0.727,-0.00,0.08,0.97,0.88,-0.49,0.04,
0.73,-0.00,0.08,0.96,0.88,-0.49,0.04,
0.73,-0.00,0.08,0.96,0.88,-0.52,-0.08,
0.732,-0.00,0.08,0.96,0.88,-0.52,-0.08,
0.734,-0.00,0.08,0.96,0.89,-0.47,-0.19,
0.735,-0.00,0.08,0.96,0.89,-0.47,-0.19,
0.737,-0.00,0.07,0.96,0.89,-0.47,-0.19,
0.74,0.00,0.07,0.95,0.89,-0.47,-0.19,
0.74,0.00,0.07,0.95,0.89,-0.49,-0.23,
0.742,0.01,0.07,0.95,0.89,-0.49,-0.23,
0.745,0.01,0.07,0.94,0.89,-0.49,-0.23,
0.745,0.01,0.07,0.94,0.90,-0.52,-0.27,
0.747,0.01,0.07,0.95,0.90,-0.52,-0.27,
0.751,0.01,0.07,0.94,0.90,-0.52,-0.27,
0.751,0.01,0.07,0.94,0.97,-0.52,-0.37,
0.752,0.02,0.07,0.94,0.97,-0.52,-0.37,
0.755,0.02,0.07,0.94,0.97,-0.52,-0.37,
0.755,0.02,0.07,0.94,0.99,-0.55,-0.37,
0.757,0.03,0.07,0.94,0.99,-0.55,-0.37,
0.76,0.03,0.07,0.94,1.08,-0.56,-0.43,
0.76,0.03,0.07,0.95,1.08,-0.56,-0.43,
0.762,0.03,0.07,0.94,1.08,-0.56,-0.43,
0.765,0.03,0.07,0.94,1.13,-0.52,-0.38,
0.765,0.04,0.07,0.95,1.13,-0.52,-0.38,
0.767,0.04,0.08,0.94,1.13,-0.52,-0.38,
0.77,0.04,0.08,0.96,1.13,-0.52,-0.38,
0.77,0.04,0.08,0.96,1.18,-0.49,-0.37,
0.771,0.05,0.08,0.95,1.18,-0.49,-0.37,
0.775,0.05,0.08,0.96,1.18,-0.49,-0.37,
0.775,0.05,0.08,0.96,1.21,-0.41,-0.32,
0.777,0.06,0.08,0.97,1.21,-0.41,-0.32,
0.779,0.06,0.08,0.97,1.21,-0.41,-0.32,
0.78,0.06,0.08,0.97,1.29,-0.42,-0.24,
0.782,0.06,0.08,0.97,1.29,-0.42,-0.24,
0.784,0.06,0.08,0.97,1.36,-0.40,-0.16,
0.784,0.07,0.08,0.98,1.36,-0.40,-0.16,
0.786,0.07,0.07,0.98,1.36,-0.40,-0.16,
0.79,0.07,0.07,0.98,1.39,-0.38,-0.06,
0.79,0.07,0.07,0.98,1.39,-0.38,-0.06,
0.791,0.07,0.07,0.98,1.39,-0.38,-0.06,
0.794,0.07,0.07,0.98,1.43,-0.43,-0.01,
0.795,0.07,0.07,0.99,1.43,-0.43,-0.01,
0.797,0.08,0.07,0.99,1.43,-0.43,-0.01,
0.799,0.08,0.06,1.00,1.43,-0.43,-0.01,
0.8,0.08,0.06,1.00,1.43,-0.46,0.03,
0.803,0.08,0.06,1.00,1.43,-0.46,0.03,
0.804,0.08,0.06,1.00,1.43,-0.46,0.03,
0.804,0.08,0.06,1.00,1.49,-0.50,0.10,
0.806,0.07,0.05,1.00,1.49,-0.50,0.10,
0.808,0.07,0.05,1.00,1.45,-0.55,0.16,
0.809,0.07,0.05,1.00,1.45,-0.55,0.16,
0.811,0.07,0.05,1.00,1.45,-0.55,0.16,
0.813,0.06,0.04,1.00,1.45,-0.55,0.16,
0.814,0.06,0.04,1.00,1.39,-0.64,0.17,
0.818,0.06,0.04,1.00,1.39,-0.64,0.17,
0.818,0.07,0.04,1.00,1.39,-0.64,0.17,
0.819,0.07,0.04,1.00,1.34,-0.66,0.16,
0.821,0.06,0.04,1.00,1.34,-0.66,0.16,
0.823,0.06,0.03,0.99,1.34,-0.66,0.16,
0.824,0.06,0.03,0.99,1.30,-0.72,0.16,
0.826,0.06,0.03,0.99,1.30,-0.72,0.16,
0.829,0.06,0.03,0.99,1.29,-0.76,0.09,
0.829,0.06,0.03,0.99,1.29,-0.76,0.09,
0.83,0.05,0.02,0.98,1.29,-0.76,0.09,
0.839,0.05,0.02,0.98,1.23,-0.77,0.05,
0.839,0.05,0.02,0.97,1.23,-0.77,0.05,
0.84,0.05,0.02,0.96,1.23,-0.77,0.05,
0.84,0.06,0.02,0.96,1.23,-0.77,0.05,
0.84,0.06,0.02,0.96,1.17,-0.86,-0.08,
0.841,0.06,0.02,0.96,1.17,-0.86,-0.08,
0.843,0.05,0.01,0.94,1.17,-0.86,-0.08,
0.843,0.05,0.01,0.94,1.22,-0.89,-0.23,
0.845,0.05,0.01,0.94,1.22,-0.89,-0.23,
0.848,0.05,0.00,0.93,1.22,-0.89,-0.23,
0.848,0.05,0.00,0.93,1.19,-0.95,-0.31,
0.85,0.05,0.00,0.93,1.19,-0.95,-0.31,
0.853,0.04,0.00,0.93,1.19,-0.95,-0.31,
0.853,0.04,0.00,0.93,1.14,-1.01,-0.47,
0.855,0.05,0.00,0.92,1.14,-1.01,-0.47,
0.858,0.05,0.00,0.92,1.10,-1.04,-0.54,
0.858,0.05,0.00,0.91,1.10,-1.04,-0.54,
0.86,0.04,-0.00,0.91,1.10,-1.04,-0.54,
0.863,0.05,-0.00,0.91,1.10,-1.04,-0.54,
0.863,0.05,-0.00,0.91,1.10,-1.04,-0.65,
0.865,0.05,-0.01,0.90,1.10,-1.04,-0.65,
0.868,0.06,-0.01,0.90,1.10,-1.04,-0.65,
0.868,0.06,-0.01,0.90,1.08,-1.08,-0.72,
0.87,0.06,-0.01,0.89,1.08,-1.08,-0.72,
0.873,0.06,-0.01,0.89,1.08,-1.08,-0.72,
0.873,0.06,-0.01,0.89,1.15,-1.13,-0.83,
0.875,0.06,-0.00,0.89,1.15,-1.13,-0.83,
0.878,0.06,-0.00,0.89,1.15,-1.13,-0.83,
0.878,0.06,-0.00,0.89,1.20,-1.14,-0.86,
0.88,0.06,-0.00,0.89,1.20,-1.14,-0.86,
0.884,0.06,-0.00,0.89,1.17,-1.08,-0.90,
0.884,0.06,0.00,0.89,1.17,-1.08,-0.90,
0.886,0.06,0.00,0.89,1.17,-1.08,-0.90,
0.888,0.06,0.01,0.90,1.17,-1.08,-0.90,
0.888,0.06,0.01,0.90,1.17,-1.08,-0.86,
0.89,0.06,0.01,0.90,1.17,-1.08,-0.86,
0.893,0.07,0.01,0.91,1.17,-1.08,-0.86,
0.893,0.07,0.01,0.91,1.18,-1.00,-0.84,
0.895,0.07,0.01,0.91,1.18,-1.00,-0.84,
0.897,0.07,0.02,0.91,1.18,-1.00,-0.84,
0.898,0.07,0.02,0.91,1.20,-0.94,-0.75,
0.901,0.08,0.02,0.91,1.20,-0.94,-0.75,
0.903,0.07,0.03,0.92,1.20,-0.94,-0.75,
0.903,0.07,0.03,0.92,1.24,-0.89,-0.72,
0.905,0.08,0.03,0.92,1.24,-0.89,-0.72,
0.908,0.08,0.03,0.92,1.26,-0.80,-0.64,
0.908,0.09,0.04,0.92,1.26,-0.80,-0.64,
0.91,0.08,0.04,0.93,1.26,-0.80,-0.64,
0.912,0.09,0.04,0.93,1.26,-0.80,-0.64,
0.913,0.09,0.04,0.93,1.33,-0.70,-0.56,
0.915,0.09,0.04,0.92,1.33,-0.70,-0.56,
0.918,0.09,0.04,0.93,1.33,-0.70,-0.56,
0.919,0.09,0.04,0.93,1.31,-0.67,-0.54,
0.92,0.09,0.04,0.93,1.31,-0.67,-0.54,
0.922,0.10,0.05,0.93,1.31,-0.67,-0.54,
0.922,0.10,0.05,0.93,1.35,-0.60,-0.54,
0.924,0.10,0.05,0.92,1.35,-0.60,-0.54,
0.927,0.10,0.05,0.92,1.35,-0.60,-0.54,
0.927,0.10,0.05,0.92,1.39,-0.57,-0.52,
0.929,0.10,0.05,0.91,1.39,-0.57,-0.52,
0.932,0.10,0.05,0.91,1.43,-0.52,-0.58,
0.933,0.10,0.05,0.91,1.43,-0.52,-0.58,
0.935,0.10,0.05,0.91,1.43,-0.52,-0.58,
0.937,0.10,0.06,0.91,1.43,-0.52,-0.58,
0.938,0.10,0.06,0.91,1.39,-0.47,-0.67,
0.939,0.10,0.06,0.90,1.39,-0.47,-0.67,
0.942,0.10,0.06,0.90,1.39,-0.44,-0.70,
0.942,0.11,0.06,0.89,1.39,-0.44,-0.70,
0.944,0.11,0.06,0.90,1.39,-0.44,-0.70,
0.947,0.11,0.06,0.90,1.39,-0.44,-0.70,
0.947,0.11,0.06,0.90,1.44,-0.42,-0.79,
0.949,0.11,0.06,0.90,1.44,-0.42,-0.79,
0.955,0.12,0.06,0.90,1.44,-0.42,-0.79,
0.956,0.12,0.06,0.90,1.47,-0.37,-0.80,
0.956,0.13,0.06,0.90,1.47,-0.37,-0.80,
0.958,0.13,0.06,0.90,1.47,-0.37,-0.80,
0.959,0.13,0.06,0.90,1.52,-0.33,-0.75,
0.959,0.13,0.07,0.91,1.52,-0.33,-0.75,
0.962,0.14,0.07,0.91,1.52,-0.33,-0.75,
0.962,0.14,0.07,0.91,1.61,-0.33,-0.76,
0.964,0.14,0.07,0.92,1.61,-0.33,-0.76,
0.968,0.15,0.07,0.92,1.61,-0.33,-0.76,
0.969,0.15,0.07,0.92,1.66,-0.29,-0.69,
0.969,0.15,0.07,0.92,1.66,-0.29,-0.69,
0.972,0.15,0.07,0.92,1.66,-0.29,-0.69,
0.972,0.15,0.07,0.92,1.75,-0.24,-0.59,
0.974,0.16,0.07,0.93,1.75,-0.24,-0.59,
0.977,0.16,0.08,0.94,1.75,-0.24,-0.59,
0.977,0.16,0.08,0.94,1.78,-0.20,-0.55,
0.979,0.16,0.08,0.93,1.78,-0.20,-0.55,
0.984,0.17,0.08,0.94,1.78,-0.20,-0.55,
0.984,0.17,0.08,0.94,1.80,-0.16,-0.44,
0.984,0.17,0.08,0.94,1.80,-0.16,-0.44,
0.989,0.17,0.08,0.95,1.80,-0.16,-0.44,
0.99,0.17,0.08,0.95,1.85,-0.15,-0.42,
0.99,0.17,0.08,0.95,1.85,-0.15,-0.42,
0.992,0.17,0.08,0.94,1.85,-0.15,-0.42,
0.992,0.17,0.08,0.94,1.85,-0.13,-0.33,
0.994,0.16,0.08,0.95,1.85,-0.13,-0.33,
0.998,0.16,0.08,0.95,1.85,-0.13,-0.33,
0.998,0.16,0.08,0.95,1.80,-0.14,-0.31,
1.0,0.16,0.08,0.95,1.80,-0.14,-0.31,
1.002,0.17,0.08,0.94,1.80,-0.14,-0.31,
1.002,0.17,0.08,0.94,1.76,-0.09,-0.30,
1.004,0.16,0.09,0.94,1.76,-0.09,-0.30,
1.007,0.16,0.09,0.94,1.73,-0.06,-0.33,
1.008,0.15,0.09,0.94,1.73,-0.06,-0.33,
1.009,0.15,0.09,0.94,1.73,-0.06,-0.33,
1.012,0.16,0.09,0.94,1.73,-0.06,-0.33,
1.012,0.16,0.09,0.94,1.64,-0.00,-0.37,
1.014,0.15,0.09,0.93,1.64,-0.00,-0.37,
1.017,0.15,0.10,0.93,1.64,-0.00,-0.37,
1.018,0.15,0.10,0.93,1.60,0.00,-0.38,
1.02,0.15,0.10,0.93,1.60,0.00,-0.38,
1.022,0.14,0.10,0.93,1.60,0.00,-0.38,
1.022,0.14,0.10,0.93,1.52,0.06,-0.44,
1.024,0.14,0.11,0.93,1.52,0.06,-0.44,
1.027,0.14,0.11,0.93,1.47,0.14,-0.48,
1.028,0.13,0.11,0.92,1.47,0.14,-0.48,
1.029,0.13,0.11,0.92,1.47,0.14,-0.48,
1.031,0.13,0.11,0.92,1.35,0.23,-0.51,
1.032,0.14,0.12,0.93,1.35,0.23,-0.51,
1.034,0.13,0.12,0.93,1.35,0.23,-0.51,
1.037,0.14,0.11,0.93,1.35,0.23,-0.51,
1.037,0.14,0.11,0.93,1.32,0.27,-0.51,
1.039,0.14,0.11,0.92,1.32,0.27,-0.51,
1.042,0.14,0.11,0.92,1.32,0.27,-0.51,
1.042,0.14,0.11,0.92,1.30,0.29,-0.52,
1.044,0.14,0.11,0.93,1.30,0.29,-0.52,
1.047,0.14,0.11,0.93,1.30,0.29,-0.52,
1.047,0.14,0.11,0.93,1.30,0.23,-0.56,
1.049,0.14,0.10,0.92,1.30,0.23,-0.56,
1.054,0.14,0.11,0.92,1.30,0.23,-0.56,
1.055,0.14,0.11,0.92,1.30,0.21,-0.48,
1.055,0.14,0.10,0.92,1.30,0.21,-0.48,
1.057,0.14,0.10,0.92,1.30,0.19,-0.57,
1.057,0.15,0.10,0.92,1.30,0.19,-0.57,
1.059,0.15,0.10,0.92,1.30,0.19,-0.57,
1.062,0.15,0.10,0.93,1.30,0.19,-0.57,
1.062,0.15,0.10,0.93,1.30,0.15,-0.54,
1.064,0.15,0.09,0.93,1.30,0.15,-0.54,
1.067,0.15,0.09,0.93,1.30,0.15,-0.54,
1.067,0.15,0.09,0.93,1.34,0.16,-0.52,
1.069,0.16,0.09,0.94,1.34,0.16,-0.52,
1.071,0.16,0.09,0.95,1.34,0.16,-0.52,
1.071,0.16,0.09,0.95,1.36,0.12,-0.46,
1.073,0.16,0.10,0.95,1.36,0.12,-0.46,
1.077,0.16,0.10,0.95,1.36,0.12,-0.46,
1.077,0.16,0.10,0.95,1.36,0.14,-0.32,
1.079,0.16,0.10,0.96,1.36,0.14,-0.32,
1.082,0.16,0.10,0.96,1.38,0.18,-0.27,
1.082,0.17,0.10,0.96,1.38,0.18,-0.27,
1.084,0.17,0.10,0.97,1.38,0.18,-0.27,
1.086,0.18,0.11,0.97,1.38,0.18,-0.27,
1.086,0.18,0.11,0.97,1.40,0.24,-0.19,
1.088,0.18,0.11,0.98,1.40,0.24,-0.19,
1.091,0.18,0.12,0.97,1.40,0.24,-0.19,
1.091,0.18,0.12,0.97,1.45,0.30,-0.10,
1.094,0.19,0.12,0.98,1.45,0.30,-0.10,
1.096,0.19,0.12,0.98,1.45,0.30,-0.10,
1.097,0.19,0.12,0.98,1.49,0.38,-0.04,
1.099,0.19,0.13,0.98,1.49,0.38,-0.04,
1.103,0.19,0.13,0.98,1.49,0.38,-0.04,
1.103,0.19,0.13,0.98,1.58,0.46,0.01,
1.104,0.20,0.13,0.98,1.58,0.46,0.01,
1.106,0.20,0.13,0.98,1.58,0.56,0.04,
1.106,0.20,0.13,0.98,1.58,0.56,0.04,
1.108,0.20,0.14,0.98,1.58,0.56,0.04,
1.111,0.21,0.14,0.99,1.58,0.56,0.04,
1.111,0.21,0.14,0.99,1.63,0.62,0.06,
1.113,0.21,0.13,0.98,1.63,0.62,0.06,
1.116,0.22,0.13,0.99,1.63,0.62,0.06,
1.117,0.22,0.13,0.99,1.66,0.66,0.07,
1.119,0.22,0.14,0.99,1.66,0.66,0.07,
1.121,0.23,0.15,0.98,1.66,0.66,0.07,
1.121,0.23,0.15,0.98,1.74,0.65,0.07,
1.123,0.23,0.15,0.98,1.74,0.65,0.07,
1.126,0.23,0.15,0.98,1.80,0.77,0.05,
1.126,0.23,0.15,0.98,1.80,0.77,0.05,
1.128,0.24,0.15,0.98,1.80,0.77,0.05,
1.131,0.24,0.15,0.98,1.86,0.79,-0.01,
1.131,0.24,0.15,0.98,1.86,0.79,-0.01,
1.133,0.23,0.15,0.98,1.86,0.79,-0.01,
1.136,0.23,0.15,0.98,1.86,0.79,-0.01,
1.137,0.23,0.15,0.98,1.87,0.81,-0.01,
1.138,0.23,0.15,0.98,1.87,0.81,-0.01,
1.141,0.23,0.15,0.98,1.79,0.82,0.02,
1.141,0.22,0.16,0.98,1.79,0.82,0.02,
1.143,0.23,0.15,0.99,1.79,0.82,0.02,
1.146,0.22,0.15,0.99,1.79,0.82,0.02,
1.146,0.22,0.15,0.99,1.72,0.88,0.06,
1.147,0.22,0.15,0.99,1.72,0.88,0.06,
1.156,0.22,0.15,1.00,1.72,0.88,0.06,
1.159,0.22,0.15,1.00,1.68,0.88,0.11,
1.16,0.21,0.15,1.00,1.68,0.88,0.11,
1.16,0.21,0.15,1.00,1.60,0.84,0.15,
1.16,0.21,0.14,1.00,1.60,0.84,0.15,
1.161,0.21,0.13,1.00,1.60,0.84,0.15,
1.161,0.21,0.12,1.00,1.60,0.84,0.15,
1.161,0.21,0.12,1.00,1.52,0.80,0.22,
1.162,0.21,0.12,1.01,1.52,0.80,0.22,
1.165,0.21,0.12,1.01,1.52,0.80,0.22,
1.165,0.21,0.12,1.01,1.48,0.65,0.24,
1.169,0.21,0.12,1.01,1.48,0.65,0.24,
1.17,0.21,0.11,1.01,1.48,0.65,0.24,
1.17,0.21,0.11,1.01,1.47,0.57,0.32,
1.172,0.20,0.11,1.02,1.47,0.57,0.32,
1.175,0.20,0.11,1.02,1.47,0.57,0.32,
1.175,0.20,0.11,1.02,1.41,0.52,0.31,
1.177,0.21,0.11,1.02,1.41,0.52,0.31,
1.18,0.21,0.11,1.02,1.31,0.46,0.40,
1.18,0.20,0.10,1.03,1.31,0.46,0.40,
1.182,0.21,0.10,1.03,1.31,0.46,0.40,
1.186,0.20,0.10,1.03,1.31,0.46,0.40,
1.186,0.20,0.10,1.03,1.30,0.42,0.47,
1.188,0.21,0.10,1.03,1.30,0.42,0.47,
1.19,0.21,0.10,1.03,1.30,0.42,0.47,
1.19,0.21,0.10,1.03,1.28,0.38,0.53,
1.192,0.21,0.09,1.04,1.28,0.38,0.53,
1.195,0.21,0.09,1.04,1.30,0.36,0.52,
1.195,0.22,0.10,1.04,1.30,0.36,0.52,
1.197,0.21,0.09,1.04,1.30,0.36,0.52,
1.199,0.21,0.09,1.04,1.30,0.36,0.52,
1.2,0.21,0.09,1.04,1.33,0.35,0.59,
1.203,0.22,0.10,1.04,1.33,0.35,0.59,
1.205,0.22,0.10,1.04,1.31,0.35,0.60,
1.205,0.21,0.09,1.04,1.31,0.35,0.60,
1.207,0.21,0.09,1.04,1.31,0.35,0.60,
1.209,0.21,0.09,1.04,1.30,0.38,0.60,
1.21,0.21,0.09,1.04,1.30,0.38,0.60,
1.211,0.21,0.09,1.04,1.30,0.38,0.60,
1.214,0.21,0.09,1.04,1.27,0.39,0.59,
1.215,0.21,0.10,1.04,1.27,0.39,0.59,
1.217,0.21,0.09,1.04,1.27,0.39,0.59,
1.22,0.21,0.09,1.04,1.27,0.39,0.59,
1.221,0.21,0.09,1.04,1.26,0.42,0.57,
1.221,0.21,0.09,1.04,1.26,0.42,0.57,
1.224,0.21,0.09,1.04,1.26,0.42,0.57,
1.224,0.21,0.09,1.04,1.26,0.40,0.60,
1.226,0.22,0.09,1.04,1.26,0.40,0.60,
1.229,0.22,0.09,1.04,1.30,0.40,0.58,
1.23,0.21,0.09,1.04,1.30,0.40,0.58,
1.231,0.22,0.09,1.05,1.30,0.40,0.58,
1.234,0.22,0.09,1.05,1.31,0.40,0.59,
1.234,0.22,0.09,1.04,1.31,0.40,0.59,
1.237,0.22,0.09,1.04,1.31,0.40,0.59,
1.239,0.22,0.09,1.05,1.31,0.40,0.59,
1.239,0.22,0.09,1.05,1.36,0.44,0.60,
1.242,0.22,0.09,1.05,1.36,0.44,0.60,
1.244,0.22,0.09,1.05,1.36,0.44,0.60,
1.244,0.22,0.09,1.05,1.33,0.43,0.63,
1.246,0.22,0.08,1.06,1.33,0.43,0.63,
1.249,0.21,0.09,1.06,1.33,0.43,0.63,
1.249,0.21,0.09,1.06,1.34,0.45,0.67,
1.252,0.21,0.09,1.05,1.34,0.45,0.67,
1.254,0.21,0.09,1.05,1.32,0.46,0.73,
1.254,0.22,0.09,1.06,1.32,0.46,0.73,
1.256,0.21,0.09,1.06,1.32,0.46,0.73,
1.259,0.21,0.09,1.07,1.32,0.46,0.73,
1.26,0.21,0.09,1.07,1.31,0.54,0.73,
1.261,0.20,0.09,1.07,1.31,0.54,0.73,
1.264,0.20,0.09,1.07,1.31,0.54,0.73,
1.264,0.20,0.09,1.07,1.27,0.53,0.79,
1.266,0.20,0.09,1.06,1.27,0.53,0.79,
1.273,0.19,0.09,1.07,1.27,0.53,0.79,
1.274,0.19,0.09,1.07,1.19,0.53,0.84,
1.274,0.19,0.09,1.06,1.19,0.53,0.84,
1.274,0.19,0.09,1.07,1.19,0.53,0.84,
1.276,0.19,0.09,1.07,1.11,0.54,0.81,
1.276,0.18,0.09,1.06,1.11,0.54,0.81,
1.279,0.18,0.09,1.06,1.06,0.52,0.81,
1.279,0.18,0.09,1.06,1.06,0.52,0.81,
1.282,0.18,0.09,1.06,1.06,0.52,0.81,
1.284,0.17,0.09,1.06,1.06,0.52,0.81,
1.284,0.17,0.09,1.06,0.93,0.53,0.75,
1.286,0.17,0.09,1.06,0.93,0.53,0.75,
1.289,0.17,0.09,1.05,0.93,0.53,0.75,
1.289,0.17,0.09,1.05,0.89,0.53,0.73,
1.291,0.16,0.09,1.05,0.89,0.53,0.73,
1.294,0.16,0.09,1.05,0.83,0.55,0.70,
1.294,0.16,0.09,1.05,0.83,0.55,0.70,
1.296,0.17,0.09,1.05,0.83,0.55,0.70,
1.299,0.17,0.09,1.04,0.83,0.55,0.70,
1.299,0.17,0.09,1.04,0.77,0.56,0.67,
1.301,0.17,0.09,1.04,0.77,0.56,0.67,
1.305,0.17,0.09,1.04,0.82,0.55,0.60,
1.305,0.18,0.09,1.04,0.82,0.55,0.60,
1.306,0.18,0.09,1.04,0.82,0.55,0.60,
1.309,0.18,0.09,1.04,0.82,0.55,0.60,
1.309,0.18,0.09,1.04,0.86,0.53,0.55,
1.311,0.18,0.09,1.04,0.86,0.53,0.55,
1.313,0.18,0.09,1.04,0.86,0.53,0.55,
1.314,0.18,0.09,1.04,0.87,0.54,0.54,
1.316,0.18,0.08,1.04,0.87,0.54,0.54,
1.32,0.18,0.07,1.03,0.87,0.54,0.54,
1.321,0.18,0.07,1.03,0.87,0.52,0.53,
1.321,0.19,0.07,1.03,0.87,0.52,0.53,
1.324,0.19,0.06,1.03,0.87,0.52,0.53,
1.324,0.19,0.06,1.03,0.88,0.43,0.48,
1.326,0.19,0.06,1.04,0.88,0.43,0.48,
1.329,0.19,0.06,1.04,0.96,0.32,0.46,
1.329,0.20,0.05,1.03,0.96,0.32,0.46,
1.331,0.19,0.05,1.03,0.96,0.32,0.46,
1.334,0.19,0.04,1.04,0.96,0.32,0.46,
1.334,0.19,0.04,1.04,1.01,0.20,0.49,
1.338,0.19,0.03,1.04,1.01,0.20,0.49,
1.338,0.18,0.03,1.04,1.01,0.20,0.49,
1.339,0.18,0.03,1.04,0.98,0.09,0.50,
1.341,0.18,0.03,1.05,0.98,0.09,0.50,
1.344,0.18,0.03,1.04,0.98,0.09,0.50,
1.344,0.18,0.03,1.04,0.93,-0.01,0.53,
1.346,0.18,0.02,1.05,0.93,-0.01,0.53,
1.349,0.17,0.03,1.05,0.93,-0.01,0.53,
1.349,0.17,0.03,1.05,0.85,-0.05,0.60,
1.351,0.17,0.03,1.04,0.85,-0.05,0.60,
1.354,0.17,0.03,1.04,0.76,-0.04,0.64,
1.354,0.16,0.03,1.04,0.76,-0.04,0.64,
1.355,0.16,0.04,1.05,0.76,-0.04,0.64,
1.359,0.15,0.04,1.05,0.76,-0.04,0.64,
1.359,0.15,0.04,1.05,0.69,-0.01,0.58,
1.361,0.15,0.04,1.05,0.69,-0.01,0.58,
1.364,0.14,0.05,1.05,0.69,-0.01,0.58,
1.364,0.14,0.05,1.05,0.58,0.09,0.64,
1.366,0.14,0.05,1.05,0.58,0.09,0.64,
1.369,0.14,0.06,1.05,0.58,0.09,0.64,
1.369,0.14,0.06,1.05,0.49,0.16,0.67,
1.374,0.13,0.07,1.05,0.49,0.16,0.67,
1.374,0.13,0.07,1.06,0.49,0.16,0.67,
1.375,0.13,0.07,1.06,0.43,0.25,0.66,
1.376,0.14,0.08,1.05,0.43,0.25,0.66,
1.378,0.14,0.08,1.05,0.43,0.25,0.66,
1.378,0.14,0.08,1.05,0.36,0.38,0.67,
1.38,0.14,0.08,1.05,0.36,0.38,0.67,
1.383,0.14,0.08,1.05,0.36,0.38,0.67,
1.383,0.14,0.08,1.05,0.41,0.45,0.63,
1.386,0.15,0.09,1.05,0.41,0.45,0.63,
1.388,0.15,0.09,1.05,0.41,0.45,0.63,
1.388,0.15,0.09,1.05,0.43,0.51,0.62,
1.39,0.15,0.08,1.05,0.43,0.51,0.62,
1.394,0.16,0.09,1.05,0.43,0.51,0.62,
1.394,0.16,0.09,1.05,0.53,0.55,0.62,
1.396,0.16,0.08,1.05,0.53,0.55,0.62,
1.398,0.16,0.08,1.05,0.61,0.54,0.58,
1.398,0.17,0.08,1.05,0.61,0.54,0.58,
1.401,0.17,0.08,1.05,0.61,0.54,0.58,
1.405,0.17,0.07,1.05,0.61,0.54,0.58,
1.405,0.17,0.07,1.05,0.67,0.52,0.60,
1.405,0.17,0.07,1.06,0.67,0.52,0.60,
1.408,0.17,0.06,1.05,0.67,0.52,0.60,
1.408,0.17,0.06,1.05,0.74,0.47,0.61,
1.41,0.18,0.06,1.05,0.74,0.47,0.61,
1.413,0.18,0.05,1.05,0.74,0.47,0.61,
1.414,0.18,0.05,1.05,0.77,0.36,0.64,
1.415,0.18,0.04,1.05,0.77,0.36,0.64,
1.418,0.18,0.03,1.05,0.77,0.36,0.64,
1.418,0.18,0.03,1.05,0.80,0.24,0.59,
1.42,0.18,0.02,1.04,0.80,0.24,0.59,
1.423,0.19,0.02,1.04,0.80,0.24,0.59,
1.423,0.19,0.02,1.04,0.82,0.08,0.56,
1.425,0.19,0.01,1.04,0.82,0.08,0.56,
1.428,0.19,0.01,1.04,0.82,0.08,0.56,
1.428,0.19,0.01,1.04,0.88,-0.06,0.50,
1.43,0.19,0.00,1.05,0.88,-0.06,0.50,
1.433,0.19,0.00,1.05,0.92,-0.17,0.47,
1.433,0.19,-0.00,1.04,0.92,-0.17,0.47,
1.435,0.18,-0.01,1.05,0.92,-0.17,0.47,
1.438,0.18,-0.01,1.05,0.88,-0.25,0.51,
1.438,0.17,-0.01,1.05,0.88,-0.25,0.51,
1.44,0.16,-0.01,1.05,0.88,-0.25,0.51,
1.443,0.15,-0.02,1.06,0.88,-0.25,0.51,
1.443,0.15,-0.02,1.06,0.77,-0.33,0.53,
1.445,0.14,-0.02,1.06,0.77,-0.33,0.53,
1.448,0.13,-0.02,1.06,0.77,-0.33,0.53,
1.448,0.13,-0.02,1.06,0.58,-0.38,0.60,
1.45,0.12,-0.02,1.06,0.58,-0.38,0.60,
1.453,0.12,-0.02,1.06,0.58,-0.38,0.60,
1.453,0.12,-0.02,1.06,0.41,-0.41,0.61,
1.456,0.11,-0.02,1.05,0.41,-0.41,0.61,
1.457,0.10,-0.02,1.06,0.41,-0.41,0.61,
1.457,0.10,-0.02,1.06,0.23,-0.42,0.62,
1.46,0.10,-0.02,1.05,0.23,-0.42,0.62,
1.462,0.10,-0.01,1.06,0.23,-0.42,0.62,
1.462,0.10,-0.01,1.06,0.11,-0.39,0.55,
1.464,0.09,-0.01,1.05,0.11,-0.39,0.55,
1.467,0.09,-0.00,1.05,0.11,-0.39,0.55,
1.467,0.09,-0.00,1.05,0.04,-0.35,0.57,
1.469,0.09,0.00,1.05,0.04,-0.35,0.57,
1.472,0.09,0.01,1.05,0.04,-0.35,0.57,
1.472,0.09,0.01,1.05,-0.01,-0.27,0.53,
1.474,0.09,0.01,1.05,-0.01,-0.27,0.53,
1.477,0.09,0.02,1.04,-0.01,-0.27,0.53,
1.477,0.09,0.02,1.04,-0.02,-0.19,0.51,
1.479,0.09,0.02,1.04,-0.02,-0.19,0.51,
1.482,0.08,0.03,1.04,-0.02,-0.19,0.51,
1.482,0.08,0.03,1.04,-0.03,-0.10,0.47,
1.484,0.08,0.03,1.04,-0.03,-0.10,0.47,
1.492,0.08,0.03,1.05,-0.03,-0.10,0.47,
1.493,0.08,0.03,1.05,-0.05,0.01,0.42,
1.493,0.08,0.04,1.04,-0.05,0.01,0.42,
1.494,0.08,0.04,1.04,-0.05,0.01,0.42,
1.494,0.08,0.04,1.04,-0.10,0.07,0.46,
1.494,0.09,0.04,1.04,-0.10,0.07,0.46,
1.497,0.09,0.04,1.04,-0.10,0.07,0.46,
1.497,0.09,0.04,1.04,-0.09,0.13,0.41,
1.5,0.09,0.03,1.03,-0.09,0.13,0.41,
1.502,0.09,0.03,1.04,-0.09,0.13,0.41,
1.502,0.09,0.03,1.04,-0.01,0.12,0.39,
1.505,0.10,0.03,1.04,-0.01,0.12,0.39,
1.507,0.10,0.03,1.04,-0.01,0.12,0.39,
1.507,0.10,0.03,1.04,0.04,0.05,0.35,
1.509,0.11,0.02,1.04,0.04,0.05,0.35,
1.512,0.11,0.02,1.04,0.04,0.05,0.35,
1.512,0.11,0.02,1.04,0.12,0.01,0.38,
1.514,0.11,0.02,1.04,0.12,0.01,0.38,
1.516,0.11,0.02,1.04,0.12,0.01,0.38,
1.517,0.11,0.02,1.04,0.17,-0.06,0.38,
1.519,0.11,0.01,1.04,0.17,-0.06,0.38,
1.523,0.11,0.01,1.05,0.17,-0.06,0.38,
1.524,0.11,0.01,1.05,0.21,-0.10,0.38,
1.524,0.10,0.00,1.05,0.21,-0.10,0.38,
1.526,0.11,0.01,1.06,0.21,-0.10,0.38,
1.527,0.11,0.01,1.06,0.20,-0.15,0.46,
1.528,0.11,0.00,1.06,0.20,-0.15,0.46,
1.531,0.11,-0.00,1.07,0.20,-0.15,0.46,
1.532,0.11,-0.00,1.07,0.18,-0.23,0.56,
1.533,0.11,-0.01,1.07,0.18,-0.23,0.56,
1.538,0.11,-0.02,1.08,0.18,-0.23,0.56,
1.539,0.11,-0.02,1.08,0.22,-0.28,0.63,
1.54,0.11,-0.02,1.08,0.22,-0.28,0.63,
1.542,0.10,-0.02,1.08,0.22,-0.28,0.63,
1.543,0.10,-0.02,1.08,0.24,-0.41,0.71,
1.543,0.10,-0.02,1.08,0.24,-0.41,0.71,
1.546,0.09,-0.03,1.09,0.24,-0.41,0.71,
1.546,0.09,-0.03,1.09,0.21,-0.44,0.74,
1.548,0.09,-0.03,1.09,0.21,-0.44,0.74,
1.551,0.08,-0.02,1.10,0.21,-0.44,0.74,
1.551,0.08,-0.02,1.10,0.15,-0.52,0.81,
1.555,0.08,-0.02,1.09,0.15,-0.52,0.81,
1.556,0.07,-0.02,1.10,0.15,-0.52,0.81,
1.557,0.07,-0.02,1.10,0.01,-0.53,0.86,
1.558,0.05,-0.02,1.09,0.01,-0.53,0.86,
1.561,0.05,-0.02,1.10,0.01,-0.53,0.86,
1.561,0.05,-0.02,1.10,-0.10,-0.50,0.87,
1.563,0.05,-0.01,1.10,-0.10,-0.50,0.87,
1.567,0.05,-0.02,1.09,-0.10,-0.50,0.87,
1.568,0.05,-0.02,1.09,-0.27,-0.51,0.88,
1.568,0.04,-0.01,1.09,-0.27,-0.51,0.88,
1.572,0.04,-0.01,1.09,-0.27,-0.51,0.88,
1.573,0.04,-0.01,1.09,-0.29,-0.44,0.84,
1.573,0.04,-0.00,1.08,-0.29,-0.44,0.84,
1.576,0.04,0.00,1.07,-0.29,-0.44,0.84,
1.576,0.04,0.00,1.07,-0.37,-0.40,0.79,
1.578,0.04,0.01,1.07,-0.37,-0.40,0.79,
1.581,0.04,0.02,1.06,-0.37,-0.40,0.79,
1.581,0.04,0.02,1.06,-0.37,-0.31,0.69,
1.583,0.04,0.02,1.06,-0.37,-0.31,0.69,
1.586,0.05,0.03,1.05,-0.37,-0.31,0.69,
1.586,0.05,0.03,1.05,-0.35,-0.21,0.54,
1.594,0.05,0.04,1.05,-0.35,-0.21,0.54,
1.594,0.06,0.04,1.04,-0.35,-0.21,0.54,
1.594,0.06,0.04,1.04,-0.28,-0.12,0.43,
1.595,0.06,0.05,1.04,-0.28,-0.12,0.43,
1.596,0.07,0.06,1.04,-0.28,-0.12,0.43,
1.596,0.07,0.06,1.04,-0.18,-0.01,0.35,
1.598,0.07,0.06,1.04,-0.18,-0.01,0.35,
1.601,0.08,0.06,1.04,-0.18,-0.01,0.35,
1.601,0.08,0.06,1.04,-0.10,0.11,0.28,
1.603,0.07,0.07,1.03,-0.10,0.11,0.28,
1.608,0.08,0.07,1.04,-0.10,0.11,0.28,
1.608,0.08,0.07,1.04,0.02,0.18,0.26,
1.608,0.08,0.07,1.03,0.02,0.18,0.26,
1.61,0.08,0.07,1.03,0.02,0.18,0.26,
1.611,0.08,0.07,1.03,0.05,0.22,0.23,
1.614,0.09,0.07,1.04,0.05,0.22,0.23,
1.615,0.09,0.07,1.04,0.05,0.22,0.23,
1.616,0.09,0.07,1.04,0.14,0.25,0.21,
1.618,0.09,0.07,1.03,0.14,0.25,0.21,
1.625,0.09,0.06,1.03,0.14,0.25,0.21,
1.626,0.09,0.06,1.03,0.20,0.24,0.25,
1.626,0.09,0.06,1.03,0.20,0.24,0.25,
1.626,0.09,0.05,1.03,0.20,0.24,0.25,
1.627,0.09,0.05,1.03,0.25,0.16,0.19,
1.627,0.09,0.05,1.03,0.25,0.16,0.19,
1.63,0.09,0.04,1.03,0.25,0.16,0.19,
1.63,0.09,0.04,1.03,0.24,0.07,0.18,
1.632,0.08,0.04,1.03,0.24,0.07,0.18,
1.635,0.08,0.03,1.03,0.24,0.07,0.18,
1.635,0.08,0.03,1.03,0.24,-0.05,0.18,
1.639,0.07,0.02,1.04,0.24,-0.05,0.18,
1.642,0.06,0.02,1.04,0.24,-0.05,0.18,
1.642,0.06,0.02,1.04,0.19,-0.14,0.16,
1.642,0.06,0.01,1.04,0.19,-0.14,0.16,
1.645,0.05,0.01,1.04,0.19,-0.14,0.16,
1.648,0.05,0.01,1.04,0.07,-0.27,0.23,
1.648,0.04,0.00,1.05,0.07,-0.27,0.23,
1.65,0.03,-0.00,1.05,0.07,-0.27,0.23,
1.65,0.03,-0.00,1.05,-0.02,-0.36,0.25,
1.652,0.03,-0.00,1.04,-0.02,-0.36,0.25,
1.656,0.03,-0.01,1.05,-0.02,-0.36,0.25,
1.658,0.03,-0.01,1.05,-0.19,-0.46,0.32,
1.658,0.02,-0.01,1.05,-0.19,-0.46,0.32,
1.661,0.02,-0.01,1.04,-0.19,-0.46,0.32,
1.661,0.02,-0.01,1.04,-0.25,-0.50,0.30,
1.663,0.02,-0.01,1.05,-0.25,-0.50,0.30,
1.666,0.02,-0.02,1.04,-0.25,-0.50,0.30,
1.666,0.02,-0.02,1.04,-0.32,-0.57,0.30,
1.667,0.02,-0.02,1.04,-0.32,-0.57,0.30,
1.671,0.01,-0.02,1.04,-0.32,-0.57,0.30,
1.671,0.01,-0.02,1.04,-0.33,-0.61,0.27,
1.673,0.01,-0.02,1.04,-0.33,-0.61,0.27,
1.675,-0.00,-0.01,1.03,-0.33,-0.61,0.27,
1.675,-0.00,-0.01,1.03,-0.34,-0.62,0.24,
1.678,-0.00,-0.01,1.03,-0.34,-0.62,0.24,
1.681,0.00,-0.01,1.03,-0.34,-0.62,0.24,
1.681,0.00,-0.01,1.03,-0.44,-0.62,0.23,
1.682,-0.01,-0.00,1.04,-0.44,-0.62,0.23,
1.685,-0.01,-0.00,1.04,-0.46,-0.57,0.18,
1.685,-0.01,0.00,1.03,-0.46,-0.57,0.18,
1.688,-0.01,0.01,1.03,-0.46,-0.57,0.18,
1.69,-0.01,0.01,1.03,-0.53,-0.49,0.20,
1.69,-0.01,0.01,1.03,-0.53,-0.49,0.20,
1.692,-0.01,0.02,1.02,-0.53,-0.49,0.20,
1.695,-0.01,0.02,1.02,-0.53,-0.49,0.20,
1.695,-0.01,0.02,1.02,-0.52,-0.38,0.13,
1.697,-0.01,0.03,1.02,-0.52,-0.38,0.13,
1.7,-0.01,0.03,1.02,-0.49,-0.31,0.09,
1.7,-0.01,0.03,1.02,-0.49,-0.31,0.09,
1.702,-0.00,0.03,1.02,-0.49,-0.31,0.09,
1.707,-0.00,0.04,1.01,-0.49,-0.31,0.09,
1.708,-0.00,0.04,1.01,-0.46,-0.23,0.07,
1.708,0.00,0.04,1.01,-0.46,-0.23,0.07,
1.712,0.00,0.04,1.01,-0.41,-0.19,0.00,
1.712,0.00,0.04,1.01,-0.41,-0.19,0.00,
1.712,0.01,0.05,1.01,-0.41,-0.19,0.00,
1.715,0.01,0.05,1.00,-0.41,-0.19,0.00,
1.715,0.01,0.05,1.00,-0.38,-0.16,-0.04,
1.718,0.01,0.04,1.00,-0.38,-0.16,-0.04,
1.721,0.01,0.05,0.99,-0.38,-0.16,-0.04,
1.721,0.01,0.05,0.99,-0.34,-0.13,-0.09,
1.722,0.01,0.05,0.99,-0.34,-0.13,-0.09,
1.724,0.01,0.04,0.99,-0.34,-0.13,-0.09,
1.725,0.01,0.04,0.99,-0.30,-0.16,-0.18,
1.727,0.01,0.04,0.98,-0.30,-0.16,-0.18,
1.73,0.02,0.04,0.97,-0.30,-0.16,-0.18,
1.73,0.02,0.04,0.97,-0.25,-0.18,-0.25,
1.732,0.02,0.04,0.97,-0.25,-0.18,-0.25,
1.734,0.02,0.04,0.96,-0.25,-0.18,-0.25,
1.734,0.02,0.04,0.96,-0.22,-0.27,-0.39,
1.737,0.02,0.04,0.96,-0.22,-0.27,-0.39,
1.741,0.02,0.04,0.96,-0.22,-0.27,-0.39,
1.741,0.02,0.04,0.96,-0.19,-0.30,-0.45,
1.742,0.02,0.04,0.95,-0.19,-0.30,-0.45,
1.745,0.01,0.04,0.95,-0.19,-0.30,-0.45,
1.745,0.01,0.04,0.95,-0.17,-0.31,-0.54,
1.747,0.02,0.04,0.95,-0.17,-0.31,-0.54,
1.75,0.01,0.04,0.94,-0.17,-0.31,-0.54,
1.75,0.01,0.04,0.94,-0.17,-0.33,-0.64,
1.752,0.01,0.04,0.94,-0.17,-0.33,-0.64,
1.757,0.01,0.04,0.94,-0.17,-0.33,-0.64,
1.758,0.01,0.04,0.94,-0.19,-0.30,-0.65,
1.758,0.00,0.04,0.94,-0.19,-0.30,-0.65,
1.759,-0.00,0.04,0.94,-0.19,-0.30,-0.65,
1.76,-0.00,0.04,0.94,-0.26,-0.35,-0.72,
1.761,-0.00,0.04,0.93,-0.26,-0.35,-0.72,
1.765,-0.01,0.04,0.93,-0.26,-0.35,-0.72,
1.765,-0.01,0.04,0.93,-0.30,-0.35,-0.72,
1.767,-0.01,0.03,0.93,-0.30,-0.35,-0.72,
1.77,-0.01,0.03,0.93,-0.34,-0.37,-0.76,
1.77,-0.01,0.03,0.92,-0.34,-0.37,-0.76,
1.773,-0.01,0.03,0.92,-0.34,-0.37,-0.76,
1.774,-0.01,0.03,0.92,-0.34,-0.37,-0.76,
1.775,-0.01,0.03,0.92,-0.39,-0.44,-0.81,
1.776,-0.02,0.03,0.92,-0.39,-0.44,-0.81,
1.78,-0.02,0.03,0.92,-0.39,-0.44,-0.81,
1.78,-0.02,0.03,0.92,-0.41,-0.46,-0.84,
1.782,-0.01,0.03,0.92,-0.41,-0.46,-0.84,
1.785,-0.02,0.03,0.92,-0.41,-0.46,-0.84,
1.785,-0.02,0.03,0.92,-0.42,-0.48,-0.86,
1.787,-0.02,0.03,0.92,-0.42,-0.48,-0.86,
1.79,-0.02,0.03,0.92,-0.42,-0.48,-0.86,
1.79,-0.02,0.03,0.92,-0.41,-0.49,-0.84,
1.791,-0.02,0.03,0.92,-0.41,-0.49,-0.84,
1.795,-0.02,0.03,0.92,-0.46,-0.47,-0.85,
1.795,-0.02,0.03,0.92,-0.46,-0.47,-0.85,
1.797,-0.02,0.04,0.92,-0.46,-0.47,-0.85,
1.799,-0.02,0.04,0.92,-0.43,-0.48,-0.87,
1.8,-0.02,0.04,0.92,-0.43,-0.48,-0.87,
1.801,-0.02,0.04,0.92,-0.43,-0.48,-0.87,
1.804,-0.02,0.04,0.93,-0.43,-0.48,-0.87,
1.804,-0.02,0.04,0.93,-0.47,-0.46,-0.84,
1.81,-0.01,0.04,0.92,-0.47,-0.46,-0.84,
1.811,-0.01,0.04,0.92,-0.44,-0.44,-0.80,
1.811,-0.01,0.05,0.92,-0.44,-0.44,-0.80,
1.814,-0.01,0.05,0.92,-0.44,-0.44,-0.80,
1.814,-0.01,0.05,0.92,-0.41,-0.42,-0.86,
1.814,-0.01,0.05,0.92,-0.41,-0.42,-0.86,
1.816,-0.00,0.05,0.92,-0.41,-0.42,-0.86,
1.819,-0.00,0.05,0.92,-0.37,-0.39,-0.84,
1.82,-0.00,0.05,0.92,-0.37,-0.39,-0.84,
1.821,-0.00,0.06,0.92,-0.37,-0.39,-0.84,
1.824,-0.00,0.06,0.92,-0.31,-0.38,-0.83,
1.824,0.00,0.05,0.93,-0.31,-0.38,-0.83,
1.826,0.01,0.06,0.93,-0.31,-0.38,-0.83,
1.829,0.01,0.06,0.93,-0.31,-0.38,-0.83,
1.83,0.01,0.06,0.93,-0.28,-0.35,-0.79,
1.831,0.01,0.06,0.93,-0.28,-0.35,-0.79,
1.834,0.01,0.06,0.92,-0.28,-0.35,-0.79,
1.834,0.01,0.06,0.92,-0.22,-0.32,-0.76,
1.836,0.02,0.06,0.92,-0.22,-0.32,-0.76,
1.84,0.01,0.06,0.93,-0.22,-0.32,-0.76,
1.84,0.01,0.06,0.93,-0.18,-0.30,-0.78,
1.84,0.02,0.06,0.93,-0.18,-0.30,-0.78,
1.843,0.02,0.06,0.92,-0.18,-0.30,-0.78,
1.844,0.02,0.06,0.92,-0.14,-0.32,-0.78,
1.846,0.02,0.06,0.92,-0.14,-0.32,-0.78,
1.849,0.01,0.06,0.92,-0.14,-0.32,-0.78,
1.849,0.01,0.06,0.92,-0.12,-0.34,-0.77,
1.851,0.01,0.06,0.92,-0.12,-0.34,-0.77,
1.854,0.01,0.06,0.92,-0.12,-0.34,-0.77,
1.854,0.01,0.06,0.92,-0.14,-0.33,-0.82,
1.856,0.01,0.06,0.91,-0.14,-0.33,-0.82,
1.859,-0.00,0.06,0.91,-0.14,-0.33,-0.82,
1.859,-0.00,0.06,0.91,-0.16,-0.34,-0.84,
1.86,-0.01,0.06,0.91,-0.16,-0.34,-0.84,
1.864,-0.01,0.06,0.92,-0.16,-0.34,-0.84,
1.864,-0.01,0.06,0.92,-0.24,-0.36,-0.87,
1.866,-0.02,0.06,0.91,-0.24,-0.36,-0.87,
1.868,-0.03,0.06,0.91,-0.24,-0.36,-0.87,
1.869,-0.03,0.06,0.91,-0.35,-0.35,-0.88,
1.871,-0.04,0.06,0.92,-0.35,-0.35,-0.88,
1.873,-0.04,0.06,0.92,-0.53,-0.38,-0.88,
1.874,-0.04,0.07,0.91,-0.53,-0.38,-0.88,
1.875,-0.04,0.07,0.91,-0.53,-0.38,-0.88,
1.879,-0.04,0.07,0.91,-0.65,-0.33,-0.86,
1.879,-0.05,0.07,0.91,-0.65,-0.33,-0.86,
1.881,-0.05,0.07,0.91,-0.65,-0.33,-0.86,
1.883,-0.05,0.08,0.92,-0.65,-0.33,-0.86,
1.884,-0.05,0.08,0.92,-0.72,-0.29,-0.88,
1.886,-0.05,0.08,0.92,-0.72,-0.29,-0.88,
1.888,-0.05,0.09,0.92,-0.72,-0.29,-0.88,
1.888,-0.05,0.09,0.92,-0.75,-0.23,-0.84,
1.89,-0.05,0.09,0.93,-0.75,-0.23,-0.84,
1.893,-0.05,0.09,0.93,-0.77,-0.18,-0.79,
1.893,-0.06,0.09,0.93,-0.77,-0.18,-0.79,
1.896,-0.05,0.10,0.93,-0.77,-0.18,-0.79,
1.898,-0.05,0.10,0.93,-0.80,-0.07,-0.72,
1.898,-0.06,0.10,0.93,-0.80,-0.07,-0.72,
1.901,-0.06,0.10,0.94,-0.80,-0.07,-0.72,
1.903,-0.06,0.11,0.96,-0.80,-0.07,-0.72,
1.904,-0.06,0.11,0.96,-0.79,-0.03,-0.71,
1.906,-0.06,0.11,0.95,-0.79,-0.03,-0.71,
1.911,-0.05,0.11,0.95,-0.79,-0.03,-0.71,
1.912,-0.05,0.11,0.95,-0.82,0.05,-0.50,
1.912,-0.05,0.11,0.97,-0.82,0.05,-0.50,
1.913,-0.04,0.11,0.97,-0.82,0.05,-0.50,
1.913,-0.04,0.11,0.97,-0.81,0.07,-0.46,
1.915,-0.04,0.11,0.98,-0.81,0.07,-0.46,
1.918,-0.04,0.12,0.98,-0.81,0.07,-0.46,
1.918,-0.04,0.12,0.98,-0.71,0.04,-0.30,
1.92,-0.04,0.11,0.99,-0.71,0.04,-0.30,
1.925,-0.03,0.12,0.99,-0.71,0.04,-0.30,
1.925,-0.03,0.12,0.99,-0.68,0.12,-0.22,
1.925,-0.03,0.12,1.00,-0.68,0.12,-0.22,
1.928,-0.03,0.12,1.00,-0.67,0.11,-0.08,
1.928,-0.03,0.12,1.00,-0.67,0.11,-0.08,
1.93,-0.03,0.12,1.00,-0.67,0.11,-0.08,
1.932,-0.03,0.12,1.00,-0.64,0.14,-0.01,
1.932,-0.03,0.11,1.00,-0.64,0.14,-0.01,
1.934,-0.03,0.11,1.00,-0.64,0.14,-0.01,
1.937,-0.02,0.11,1.00,-0.64,0.14,-0.01,
1.937,-0.02,0.11,1.00,-0.61,0.11,-0.01,
1.94,-0.02,0.10,1.00,-0.61,0.11,-0.01,
1.943,-0.02,0.10,1.00,-0.61,0.11,-0.01,
1.943,-0.02,0.10,1.00,-0.58,0.06,0.01,
1.944,-0.01,0.10,0.99,-0.58,0.06,0.01,
1.947,-0.01,0.10,0.99,-0.53,-0.04,-0.01,
1.948,-0.02,0.09,0.99,-0.53,-0.04,-0.01,
1.949,-0.02,0.09,0.99,-0.53,-0.04,-0.01,
1.952,-0.02,0.09,0.99,-0.50,-0.06,-0.09,
1.952,-0.02,0.08,0.98,-0.50,-0.06,-0.09,
1.954,-0.03,0.08,0.98,-0.50,-0.06,-0.09,
1.957,-0.03,0.08,0.97,-0.50,-0.06,-0.09,
1.958,-0.03,0.08,0.97,-0.54,-0.18,-0.15,
1.959,-0.03,0.08,0.97,-0.54,-0.18,-0.15,
1.962,-0.04,0.08,0.97,-0.54,-0.18,-0.15,
1.962,-0.04,0.08,0.97,-0.61,-0.19,-0.24,
1.964,-0.05,0.08,0.97,-0.61,-0.19,-0.24,
1.967,-0.05,0.08,0.97,-0.67,-0.26,-0.30,
1.967,-0.05,0.07,0.96,-0.67,-0.26,-0.30,
1.969,-0.05,0.07,0.96,-0.67,-0.26,-0.30,
1.975,-0.05,0.07,0.96,-0.78,-0.30,-0.31,
1.975,-0.05,0.06,0.96,-0.78,-0.30,-0.31,
1.975,-0.06,0.05,0.96,-0.78,-0.30,-0.31,
1.979,-0.06,0.05,0.96,-0.78,-0.30,-0.31,
1.98,-0.06,0.05,0.96,-0.81,-0.38,-0.35,
1.98,-0.07,0.05,0.95,-0.81,-0.38,-0.35,
1.982,-0.08,0.05,0.95,-0.81,-0.38,-0.35,
1.982,-0.08,0.05,0.95,-0.88,-0.48,-0.39,
1.984,-0.08,0.04,0.95,-0.88,-0.48,-0.39,
1.987,-0.08,0.04,0.96,-0.88,-0.48,-0.39,
1.987,-0.08,0.04,0.96,-0.99,-0.53,-0.44,
1.992,-0.08,0.04,0.95,-0.99,-0.53,-0.44,
1.993,-0.09,0.04,0.95,-0.99,-0.53,-0.44,
1.993,-0.09,0.04,0.95,-1.04,-0.58,-0.43,
1.994,-0.09,0.03,0.95,-1.04,-0.58,-0.43,
1.998,-0.09,0.03,0.95,-1.09,-0.61,-0.51,
1.998,-0.10,0.03,0.94,-1.09,-0.61,-0.51,
1.999,-0.10,0.03,0.94,-1.09,-0.61,-0.51,
2.002,-0.11,0.02,0.93,-1.09,-0.61,-0.51,
2.002,-0.11,0.02,0.93,-1.19,-0.68,-0.54,
2.004,-0.11,0.02,0.93,-1.19,-0.68,-0.54,
2.007,-0.11,0.02,0.93,-1.19,-0.68,-0.54,
2.008,-0.11,0.02,0.93,-1.26,-0.75,-0.63,
2.01,-0.11,0.02,0.92,-1.26,-0.75,-0.63,
2.012,-0.11,0.02,0.92,-1.30,-0.80,-0.70,
2.013,-0.12,0.02,0.92,-1.30,-0.80,-0.70,
2.014,-0.12,0.02,0.92,-1.30,-0.80,-0.70,
2.017,-0.12,0.02,0.92,-1.30,-0.80,-0.70,
2.017,-0.12,0.02,0.92,-1.35,-0.82,-0.78,
2.02,-0.12,0.02,0.92,-1.35,-0.82,-0.78,
2.022,-0.12,0.02,0.92,-1.37,-0.82,-0.79,
2.022,-0.13,0.02,0.93,-1.37,-0.82,-0.79,
2.028,-0.13,0.02,0.93,-1.37,-0.82,-0.79,
2.028,-0.13,0.03,0.94,-1.37,-0.82,-0.79,
2.028,-0.13,0.03,0.94,-1.42,-0.74,-0.71,
2.029,-0.13,0.03,0.94,-1.42,-0.74,-0.71,
2.032,-0.13,0.03,0.94,-1.44,-0.74,-0.61,
2.032,-0.13,0.03,0.94,-1.44,-0.74,-0.61,
2.034,-0.13,0.04,0.94,-1.44,-0.74,-0.61,
2.037,-0.12,0.04,0.94,-1.44,-0.74,-0.61,
2.037,-0.12,0.04,0.94,-1.46,-0.66,-0.59,
2.039,-0.12,0.04,0.93,-1.46,-0.66,-0.59,
2.041,-0.12,0.04,0.94,-1.46,-0.66,-0.59,
2.042,-0.12,0.04,0.94,-1.39,-0.60,-0.61,
2.043,-0.12,0.04,0.94,-1.39,-0.60,-0.61,
2.047,-0.12,0.04,0.94,-1.35,-0.57,-0.58,
2.048,-0.12,0.05,0.94,-1.35,-0.57,-0.58,
2.049,-0.12,0.05,0.93,-1.35,-0.57,-0.58,
2.052,-0.12,0.06,0.94,-1.35,-0.57,-0.58,
2.052,-0.12,0.06,0.94,-1.34,-0.57,-0.58,
2.054,-0.12,0.07,0.94,-1.34,-0.57,-0.58,
2.056,-0.12,0.07,0.94,-1.34,-0.57,-0.58,
2.057,-0.12,0.07,0.94,-1.33,-0.48,-0.60,
2.059,-0.13,0.07,0.95,-1.33,-0.48,-0.60,
2.061,-0.13,0.07,0.96,-1.33,-0.48,-0.60,
2.061,-0.13,0.07,0.96,-1.33,-0.36,-0.54,
2.064,-0.12,0.07,0.96,-1.33,-0.36,-0.54,
2.067,-0.13,0.07,0.96,-1.33,-0.36,-0.54,
2.067,-0.13,0.07,0.96,-1.38,-0.33,-0.44,
2.069,-0.13,0.07,0.96,-1.38,-0.33,-0.44,
2.072,-0.13,0.07,0.96,-1.32,-0.31,-0.39,
2.072,-0.13,0.06,0.95,-1.32,-0.31,-0.39,
2.073,-0.13,0.06,0.96,-1.32,-0.31,-0.39,
2.076,-0.12,0.06,0.96,-1.32,-0.31,-0.39,
2.076,-0.12,0.06,0.96,-1.35,-0.34,-0.41,
2.078,-0.12,0.06,0.96,-1.35,-0.34,-0.41,
2.082,-0.12,0.05,0.95,-1.35,-0.34,-0.41,
2.082,-0.12,0.05,0.95,-1.30,-0.40,-0.39,
2.084,-0.13,0.05,0.96,-1.30,-0.40,-0.39,
2.086,-0.13,0.05,0.95,-1.30,-0.40,-0.39,
2.087,-0.13,0.05,0.95,-1.27,-0.43,-0.40,
2.089,-0.13,0.05,0.96,-1.27,-0.43,-0.40,
2.092,-0.13,0.04,0.96,-1.27,-0.43,-0.40,
2.093,-0.13,0.04,0.96,-1.30,-0.47,-0.39,
2.093,-0.14,0.04,0.97,-1.30,-0.47,-0.39,
2.096,-0.14,0.04,0.97,-1.32,-0.50,-0.31,
2.097,-0.14,0.04,0.96,-1.32,-0.50,-0.31,
2.099,-0.14,0.03,0.96,-1.32,-0.50,-0.31,
2.101,-0.15,0.02,0.96,-1.32,-0.50,-0.31,
2.101,-0.15,0.02,0.96,-1.37,-0.54,-0.33,
2.104,-0.15,0.02,0.95,-1.37,-0.54,-0.33,
2.106,-0.15,0.01,0.95,-1.37,-0.54,-0.33,
2.106,-0.15,0.01,0.95,-1.42,-0.66,-0.33,
2.109,-0.15,0.01,0.95,-1.42,-0.66,-0.33,
2.111,-0.15,0.01,0.94,-1.42,-0.66,-0.33,
2.111,-0.15,0.01,0.94,-1.44,-0.76,-0.43,
2.114,-0.15,0.00,0.93,-1.44,-0.76,-0.43,
2.116,-0.16,-0.00,0.92,-1.44,-0.76,-0.43,
2.116,-0.16,-0.00,0.92,-1.39,-0.83,-0.46,
2.118,-0.16,-0.00,0.92,-1.39,-0.83,-0.46,
2.121,-0.16,-0.00,0.92,-1.40,-0.91,-0.65,
2.121,-0.16,-0.00,0.92,-1.40,-0.91,-0.65,
2.123,-0.17,-0.00,0.92,-1.40,-0.91,-0.65,
2.128,-0.17,-0.00,0.92,-1.40,-0.91,-0.65,
2.128,-0.17,-0.00,0.92,-1.45,-0.93,-0.68,
2.128,-0.18,-0.00,0.91,-1.45,-0.93,-0.68,
2.13,-0.18,0.01,0.91,-1.45,-0.93,-0.68,
2.13,-0.18,0.01,0.91,-1.51,-0.93,-0.75,
2.133,-0.18,0.01,0.91,-1.51,-0.93,-0.75,
2.135,-0.18,0.01,0.91,-1.55,-0.89,-0.79,
2.135,-0.18,0.01,0.91,-1.55,-0.89,-0.79,
2.137,-0.19,0.02,0.91,-1.55,-0.89,-0.79,
2.146,-0.19,0.03,0.92,-1.55,-0.89,-0.79,
2.149,-0.19,0.03,0.92,-1.57,-0.76,-0.80,
2.149,-0.20,0.03,0.92,-1.57,-0.76,-0.80,
2.149,-0.20,0.03,0.92,-1.63,-0.65,-0.71,
2.15,-0.20,0.04,0.92,-1.63,-0.65,-0.71,
2.15,-0.21,0.04,0.93,-1.63,-0.65,-0.71,
2.15,-0.20,0.05,0.93,-1.63,-0.65,-0.71,
2.15,-0.20,0.05,0.93,-1.69,-0.53,-0.66,
2.152,-0.20,0.06,0.93,-1.69,-0.53,-0.66,
2.155,-0.20,0.06,0.93,-1.69,-0.53,-0.66,
2.155,-0.20,0.06,0.93,-1.73,-0.44,-0.60,
2.16,-0.20,0.06,0.93,-1.73,-0.44,-0.60,
2.16,-0.20,0.07,0.94,-1.73,-0.44,-0.60,
2.161,-0.20,0.07,0.94,-1.69,-0.32,-0.59,
2.162,-0.19,0.07,0.94,-1.69,-0.32,-0.59,
2.165,-0.19,0.07,0.94,-1.69,-0.32,-0.59,
2.165,-0.19,0.07,0.94,-1.63,-0.26,-0.53,
2.167,-0.18,0.07,0.94,-1.63,-0.26,-0.53,
2.17,-0.18,0.08,0.94,-1.63,-0.26,-0.53,
2.17,-0.18,0.08,0.94,-1.55,-0.21,-0.46,
2.172,-0.17,0.07,0.94,-1.55,-0.21,-0.46,
2.175,-0.17,0.08,0.96,-1.55,-0.21,-0.46,
2.175,-0.17,0.08,0.96,-1.42,-0.18,-0.44,
2.178,-0.18,0.08,0.95,-1.42,-0.18,-0.44,
2.182,-0.18,0.08,0.95,-1.42,-0.18,-0.44,
2.182,-0.18,0.08,0.95,-1.35,-0.16,-0.36,
2.183,-0.18,0.09,0.96,-1.35,-0.16,-0.36,
2.185,-0.18,0.09,0.96,-1.35,-0.16,-0.36,
2.185,-0.18,0.09,0.96,-1.40,-0.15,-0.33,
2.189,-0.18,0.08,0.96,-1.40,-0.15,-0.33,
2.19,-0.18,0.09,0.96,-1.40,-0.15,-0.33,
2.19,-0.18,0.09,0.96,-1.41,-0.07,-0.28,
2.192,-0.18,0.08,0.96,-1.41,-0.07,-0.28,
2.195,-0.18,0.08,0.96,-1.40,-0.08,-0.28,
2.195,-0.18,0.08,0.96,-1.40,-0.08,-0.28,
2.197,-0.18,0.08,0.96,-1.40,-0.08,-0.28,
2.2,-0.18,0.08,0.96,-1.40,-0.08,-0.28,
2.2,-0.18,0.08,0.96,-1.37,-0.10,-0.29,
2.202,-0.18,0.08,0.96,-1.37,-0.10,-0.29,
2.204,-0.19,0.07,0.96,-1.37,-0.10,-0.29,
2.205,-0.19,0.07,0.96,-1.39,-0.09,-0.27,
2.208,-0.19,0.07,0.96,-1.39,-0.09,-0.27,
2.209,-0.20,0.07,0.96,-1.39,-0.09,-0.27,
2.21,-0.20,0.07,0.96,-1.46,-0.14,-0.28,
2.212,-0.20,0.07,0.96,-1.46,-0.14,-0.28,
2.214,-0.20,0.06,0.96,-1.46,-0.14,-0.28,
2.215,-0.20,0.06,0.96,-1.53,-0.19,-0.24,
2.217,-0.20,0.06,0.96,-1.53,-0.19,-0.24,
2.219,-0.20,0.06,0.96,-1.61,-0.26,-0.25,
2.22,-0.21,0.06,0.96,-1.61,-0.26,-0.25,
2.222,-0.21,0.06,0.97,-1.61,-0.26,-0.25,
2.226,-0.21,0.05,0.97,-1.61,-0.26,-0.25,
2.226,-0.21,0.05,0.97,-1.61,-0.29,-0.23,
2.227,-0.21,0.05,0.97,-1.61,-0.29,-0.23,
2.229,-0.21,0.05,0.97,-1.61,-0.29,-0.23,
2.23,-0.21,0.05,0.97,-1.67,-0.33,-0.17,
2.232,-0.21,0.05,0.98,-1.67,-0.33,-0.17,
2.234,-0.20,0.04,0.98,-1.67,-0.33,-0.17,
2.234,-0.20,0.04,0.98,-1.67,-0.35,-0.15,
2.237,-0.20,0.05,0.98,-1.67,-0.35,-0.15,
2.239,-0.20,0.04,0.99,-1.67,-0.35,-0.15,
2.239,-0.20,0.04,0.99,-1.65,-0.38,-0.08,
2.241,-0.20,0.03,1.00,-1.65,-0.38,-0.08,
2.244,-0.20,0.04,1.00,-1.65,-0.38,-0.08,
2.245,-0.20,0.04,1.00,-1.66,-0.40,0.01,
2.246,-0.20,0.04,1.00,-1.66,-0.40,0.01,
2.249,-0.20,0.04,1.00,-1.66,-0.40,0.01,
2.249,-0.20,0.04,1.00,-1.65,-0.46,0.11,
2.251,-0.20,0.04,1.01,-1.65,-0.46,0.11,
2.254,-0.20,0.04,1.02,-1.65,-0.46,0.11,
2.254,-0.20,0.04,1.02,-1.67,-0.44,0.17,
2.256,-0.20,0.04,1.02,-1.67,-0.44,0.17,
2.263,-0.19,0.03,1.02,-1.67,-0.44,0.17,
2.263,-0.19,0.03,1.02,-1.64,-0.41,0.25,
2.263,-0.18,0.03,1.03,-1.64,-0.41,0.25,
2.264,-0.19,0.03,1.03,-1.64,-0.41,0.25,
2.264,-0.19,0.03,1.03,-1.62,-0.46,0.33,
2.267,-0.18,0.04,1.02,-1.62,-0.46,0.33,
2.269,-0.18,0.04,1.02,-1.55,-0.44,0.42,
2.269,-0.18,0.03,1.02,-1.55,-0.44,0.42,
2.271,-0.18,0.03,1.02,-1.55,-0.44,0.42,
2.275,-0.18,0.03,1.03,-1.55,-0.44,0.42,
2.276,-0.18,0.03,1.03,-1.53,-0.43,0.34,
2.276,-0.18,0.03,1.02,-1.53,-0.43,0.34,
2.279,-0.17,0.02,1.02,-1.53,-0.43,0.34,
2.279,-0.17,0.02,1.02,-1.52,-0.48,0.37,
2.281,-0.17,0.02,1.02,-1.52,-0.48,0.37,
2.284,-0.17,0.02,1.01,-1.52,-0.48,0.37,
2.284,-0.17,0.02,1.01,-1.47,-0.51,0.32,
2.286,-0.18,0.03,1.01,-1.47,-0.51,0.32,
2.289,-0.18,0.03,1.02,-1.47,-0.51,0.32,
2.289,-0.18,0.03,1.02,-1.45,-0.53,0.25,
2.292,-0.18,0.03,1.02,-1.45,-0.53,0.25,
2.295,-0.18,0.03,1.02,-1.50,-0.44,0.29,
2.295,-0.18,0.04,1.02,-1.50,-0.44,0.29,
2.296,-0.18,0.04,1.04,-1.50,-0.44,0.29,
2.298,-0.18,0.05,1.05,-1.50,-0.44,0.29,
2.299,-0.18,0.05,1.05,-1.54,-0.35,0.35,
2.301,-0.17,0.06,1.05,-1.54,-0.35,0.35,
2.303,-0.17,0.06,1.05,-1.54,-0.35,0.35,
2.304,-0.17,0.06,1.05,-1.51,-0.24,0.51,
2.306,-0.16,0.06,1.06,-1.51,-0.24,0.51,
2.31,-0.16,0.07,1.07,-1.51,-0.24,0.51,
2.311,-0.16,0.07,1.07,-1.45,-0.12,0.60,
2.311,-0.16,0.06,1.07,-1.45,-0.12,0.60,
2.315,-0.15,0.07,1.08,-1.45,-0.12,0.60,
2.315,-0.15,0.07,1.08,-1.39,-0.05,0.72,
2.316,-0.14,0.07,1.08,-1.39,-0.05,0.72,
2.319,-0.14,0.07,1.08,-1.33,-0.03,0.82,
2.32,-0.14,0.07,1.07,-1.33,-0.03,0.82,
2.321,-0.13,0.07,1.08,-1.33,-0.03,0.82,
2.324,-0.12,0.06,1.08,-1.33,-0.03,0.82,
2.324,-0.12,0.06,1.08,-1.20,-0.01,0.87,
2.327,-0.11,0.06,1.09,-1.20,-0.01,0.87,
2.329,-0.11,0.06,1.09,-1.20,-0.01,0.87,
2.329,-0.11,0.06,1.09,-1.06,-0.03,0.87,
2.331,-0.10,0.06,1.09,-1.06,-0.03,0.87,
2.334,-0.10,0.06,1.08,-1.06,-0.03,0.87,
2.334,-0.10,0.06,1.08,-0.93,-0.04,0.98,
2.336,-0.10,0.06,1.09,-0.93,-0.04,0.98,
2.339,-0.10,0.06,1.09,-0.93,-0.04,0.98,
2.339,-0.10,0.06,1.09,-0.87,-0.05,0.95,
2.341,-0.10,0.06,1.09,-0.87,-0.05,0.95,
2.344,-0.10,0.06,1.09,-0.86,-0.09,0.95,
2.344,-0.10,0.06,1.09,-0.86,-0.09,0.95,
2.346,-0.09,0.05,1.09,-0.86,-0.09,0.95,
2.348,-0.09,0.05,1.09,-0.87,-0.05,0.98,
2.349,-0.09,0.05,1.09,-0.87,-0.05,0.98,
2.351,-0.09,0.06,1.08,-0.87,-0.05,0.98,
2.353,-0.09,0.05,1.09,-0.87,-0.05,0.98,
2.354,-0.09,0.05,1.09,-0.86,-0.10,0.95,
2.355,-0.09,0.05,1.08,-0.86,-0.10,0.95,
2.36,-0.09,0.05,1.08,-0.86,-0.10,0.95,
2.361,-0.09,0.05,1.08,-0.85,-0.09,0.94,
2.361,-0.09,0.05,1.09,-0.85,-0.09,0.94,
2.364,-0.10,0.04,1.09,-0.85,-0.09,0.94,
2.364,-0.10,0.04,1.09,-0.88,-0.11,0.90,
2.366,-0.09,0.04,1.09,-0.88,-0.11,0.90,
2.369,-0.10,0.04,1.08,-0.88,-0.11,0.90,
2.369,-0.10,0.04,1.08,-0.90,-0.19,0.97,
2.371,-0.10,0.04,1.09,-0.90,-0.19,0.97,
2.373,-0.09,0.03,1.09,-0.90,-0.19,0.97,
2.374,-0.09,0.03,1.09,-0.91,-0.23,0.92,
2.375,-0.09,0.03,1.09,-0.91,-0.23,0.92,
2.378,-0.09,0.03,1.09,-0.91,-0.23,0.92,
2.378,-0.09,0.03,1.09,-0.92,-0.24,0.93,
2.38,-0.09,0.03,1.10,-0.92,-0.24,0.93,
2.384,-0.09,0.03,1.10,-0.91,-0.28,0.98,
2.384,-0.08,0.03,1.10,-0.91,-0.28,0.98,
2.386,-0.09,0.03,1.10,-0.91,-0.28,0.98,
2.388,-0.08,0.02,1.10,-0.91,-0.28,0.98,
2.388,-0.08,0.02,1.10,-0.84,-0.31,1.05,
2.391,-0.08,0.02,1.10,-0.84,-0.31,1.05,
2.393,-0.08,0.02,1.10,-0.84,-0.33,1.04,
2.394,-0.08,0.02,1.09,-0.84,-0.33,1.04,
2.395,-0.08,0.02,1.09,-0.84,-0.33,1.04,
2.398,-0.08,0.02,1.09,-0.84,-0.33,1.04,
2.398,-0.08,0.02,1.09,-0.82,-0.32,1.00,
2.401,-0.08,0.03,1.09,-0.82,-0.32,1.00,
2.403,-0.08,0.03,1.08,-0.82,-0.32,1.00,
2.404,-0.08,0.03,1.08,-0.81,-0.31,0.96,
2.406,-0.08,0.03,1.08,-0.81,-0.31,0.96,
2.41,-0.08,0.03,1.08,-0.81,-0.31,0.96,
2.41,-0.08,0.03,1.08,-0.80,-0.26,0.89,
2.411,-0.08,0.03,1.07,-0.80,-0.26,0.89,
2.413,-0.08,0.03,1.06,-0.80,-0.26,0.89,
2.413,-0.08,0.03,1.06,-0.79,-0.26,0.85,
2.415,-0.07,0.03,1.06,-0.79,-0.26,0.85,
2.418,-0.07,0.02,1.05,-0.79,-0.26,0.85,
2.418,-0.07,0.02,1.05,-0.76,-0.23,0.70,
2.421,-0.08,0.02,1.04,-0.76,-0.23,0.70,
2.423,-0.07,0.02,1.04,-0.76,-0.23,0.70,
2.423,-0.07,0.02,1.04,-0.67,-0.25,0.56,
2.425,-0.08,0.02,1.03,-0.67,-0.25,0.56,
2.427,-0.07,0.02,1.03,-0.67,-0.25,0.56,
2.428,-0.07,0.02,1.03,-0.68,-0.27,0.45,
2.43,-0.08,0.03,1.03,-0.68,-0.27,0.45,
2.433,-0.08,0.02,1.02,-0.68,-0.27,0.45,
2.433,-0.08,0.02,1.02,-0.68,-0.27,0.35,
2.435,-0.08,0.03,1.02,-0.68,-0.27,0.35,
2.438,-0.08,0.03,1.02,-0.68,-0.27,0.35,
2.438,-0.08,0.03,1.02,-0.70,-0.23,0.31,
2.44,-0.08,0.04,1.02,-0.70,-0.23,0.31,
2.444,-0.08,0.03,1.02,-0.70,-0.23,0.31,
2.444,-0.08,0.03,1.02,-0.69,-0.19,0.28,
2.445,-0.08,0.04,1.02,-0.69,-0.19,0.28,
2.448,-0.07,0.04,1.02,-0.69,-0.19,0.28,
2.448,-0.07,0.04,1.02,-0.69,-0.13,0.25,
2.45,-0.07,0.04,1.02,-0.69,-0.13,0.25,
2.453,-0.06,0.05,1.03,-0.69,-0.13,0.25,
2.453,-0.06,0.05,1.03,-0.62,-0.09,0.24,
2.455,-0.06,0.04,1.04,-0.62,-0.09,0.24,
2.458,-0.05,0.05,1.04,-0.62,-0.09,0.24,
2.458,-0.05,0.05,1.04,-0.53,-0.04,0.32,
2.46,-0.04,0.05,1.05,-0.53,-0.04,0.32,
2.462,-0.03,0.05,1.05,-0.53,-0.04,0.32,
2.462,-0.03,0.05,1.05,-0.41,-0.01,0.45,
2.465,-0.02,0.05,1.06,-0.41,-0.01,0.45,
2.468,-0.02,0.05,1.06,-0.28,0.04,0.55,
2.468,-0.01,0.06,1.06,-0.28,0.04,0.55,
2.47,-0.01,0.06,1.07,-0.28,0.04,0.55,
2.473,0.00,0.07,1.08,-0.28,0.04,0.55,
2.473,0.00,0.07,1.08,-0.08,0.10,0.61,
2.475,0.01,0.06,1.09,-0.08,0.10,0.61,
2.48,0.01,0.06,1.09,0.04,0.19,0.75,
2.481,0.02,0.07,1.09,0.04,0.19,0.75,
2.481,0.03,0.07,1.09,0.04,0.19,0.75,
2.484,0.03,0.07,1.10,0.04,0.19,0.75,
2.484,0.03,0.07,1.10,0.21,0.19,0.90,
2.484,0.04,0.07,1.10,0.21,0.19,0.90,
2.487,0.04,0.08,1.10,0.21,0.19,0.90,
2.487,0.04,0.08,1.10,0.30,0.26,0.96,
2.489,0.04,0.08,1.10,0.30,0.26,0.96,
2.493,0.04,0.08,1.10,0.40,0.32,1.02,
2.493,0.05,0.08,1.09,0.40,0.32,1.02,
2.494,0.05,0.08,1.10,0.40,0.32,1.02,
2.497,0.04,0.08,1.10,0.40,0.32,1.02,
2.497,0.04,0.08,1.10,0.47,0.34,0.97,
2.499,0.04,0.08,1.09,0.47,0.34,0.97,
2.502,0.04,0.07,1.09,0.47,0.34,0.97,
2.502,0.04,0.07,1.09,0.45,0.33,0.96,
2.504,0.04,0.07,1.09,0.45,0.33,0.96,
2.507,0.04,0.07,1.08,0.45,0.33,0.96,
2.508,0.04,0.07,1.08,0.44,0.31,0.91,
2.51,0.03,0.07,1.08,0.44,0.31,0.91,
2.512,0.03,0.07,1.07,0.44,0.31,0.91,
2.512,0.03,0.07,1.07,0.41,0.29,0.84,
2.514,0.02,0.07,1.06,0.41,0.29,0.84,
2.517,0.02,0.07,1.06,0.33,0.28,0.73,
2.518,0.02,0.06,1.06,0.33,0.28,0.73,
2.518,0.01,0.06,1.05,0.33,0.28,0.73,
2.522,0.01,0.05,1.04,0.33,0.28,0.73,
2.522,0.01,0.05,1.04,0.24,0.23,0.63,
2.523,0.01,0.04,1.04,0.24,0.23,0.63,
2.527,-0.00,0.04,1.03,0.24,0.23,0.63,
2.527,-0.00,0.04,1.03,0.18,0.14,0.48,
2.528,-0.00,0.04,1.03,0.18,0.14,0.48,
2.531,-0.01,0.03,1.02,0.18,0.14,0.48,
2.531,-0.01,0.03,1.02,0.12,-0.00,0.36,
2.533,-0.01,0.01,1.01,0.12,-0.00,0.36,
2.536,-0.01,0.01,1.01,0.12,-0.00,0.36,
2.536,-0.01,0.01,1.01,0.07,-0.13,0.23,
2.538,-0.01,-0.00,1.00,0.07,-0.13,0.23,
2.541,-0.01,-0.00,1.00,0.07,-0.32,0.08,
2.541,-0.01,-0.01,0.99,0.07,-0.32,0.08,
2.543,-0.01,-0.01,0.99,0.07,-0.32,0.08,
2.546,-0.02,-0.01,0.98,0.07,-0.32,0.08,
2.546,-0.02,-0.01,0.98,0.06,-0.47,-0.06,
2.548,-0.02,-0.02,0.98,0.06,-0.47,-0.06,
2.551,-0.03,-0.02,0.98,0.06,-0.47,-0.06,
2.551,-0.03,-0.02,0.98,0.02,-0.53,-0.16,
2.553,-0.03,-0.02,0.98,0.02,-0.53,-0.16,
2.556,-0.04,-0.02,0.97,0.02,-0.53,-0.16,
2.556,-0.04,-0.02,0.97,-0.05,-0.62,-0.22,
2.558,-0.04,-0.01,0.98,-0.05,-0.62,-0.22,
2.562,-0.04,-0.01,0.98,-0.05,-0.62,-0.22,
2.562,-0.04,-0.01,0.98,-0.10,-0.64,-0.24,
2.563,-0.04,-0.01,0.99,-0.10,-0.64,-0.24,
2.566,-0.04,-0.01,0.99,-0.14,-0.56,-0.19,
2.566,-0.04,0.00,1.00,-0.14,-0.56,-0.19,
2.568,-0.04,0.01,1.01,-0.14,-0.56,-0.19,
2.571,-0.04,0.02,1.02,-0.14,-0.56,-0.19,
2.571,-0.04,0.02,1.02,-0.17,-0.50,-0.02,
2.573,-0.04,0.03,1.03,-0.17,-0.50,-0.02,
2.581,-0.03,0.05,1.04,-0.17,-0.50,-0.02,
2.581,-0.03,0.05,1.04,-0.10,-0.31,0.14,
2.581,-0.03,0.06,1.05,-0.10,-0.31,0.14,
2.582,-0.02,0.07,1.05,-0.10,-0.31,0.14,
2.582,-0.02,0.07,1.05,-0.08,-0.08,0.38,
2.586,-0.01,0.07,1.07,-0.08,-0.08,0.38,
2.586,0.01,0.08,1.08,-0.08,-0.08,0.38,
2.586,0.01,0.08,1.08,0.05,0.09,0.53,
2.588,0.02,0.09,1.09,0.05,0.09,0.53,
2.591,0.02,0.09,1.09,0.25,0.24,0.73,
2.591,0.04,0.09,1.09,0.25,0.24,0.73,
2.594,0.05,0.10,1.10,0.25,0.24,0.73,
2.596,0.07,0.10,1.11,0.25,0.24,0.73,
2.596,0.07,0.10,1.11,0.49,0.37,0.91,
2.598,0.09,0.11,1.11,0.49,0.37,0.91,
2.601,0.11,0.11,1.11,0.49,0.37,0.91,
2.602,0.11,0.11,1.11,0.78,0.41,1.01,
2.603,0.13,0.12,1.11,0.78,0.41,1.01,
2.606,0.14,0.12,1.11,0.78,0.41,1.01,
2.606,0.14,0.12,1.11,1.15,0.53,1.07,
2.608,0.15,0.12,1.11,1.15,0.53,1.07,
2.612,0.16,0.13,1.11,1.15,0.53,1.07,
2.613,0.16,0.13,1.11,1.45,0.59,1.10,
2.614,0.17,0.13,1.11,1.45,0.59,1.10,
2.616,0.17,0.13,1.11,1.67,0.64,1.11,
2.616,0.18,0.14,1.11,1.67,0.64,1.11,
2.617,0.18,0.14,1.10,1.67,0.64,1.11,
2.62,0.18,0.14,1.09,1.67,0.64,1.11,
2.621,0.18,0.14,1.09,1.84,0.72,1.08,
2.622,0.18,0.14,1.09,1.84,0.72,1.08,
2.625,0.19,0.14,1.09,1.84,0.72,1.08,
2.626,0.19,0.14,1.09,1.88,0.76,0.95,
2.629,0.18,0.14,1.08,1.88,0.76,0.95,
2.631,0.18,0.13,1.07,1.88,0.76,0.95,
2.631,0.18,0.13,1.07,1.92,0.75,0.90,
2.632,0.18,0.13,1.07,1.92,0.75,0.90,
2.635,0.16,0.12,1.06,1.92,0.75,0.90,
2.638,0.16,0.12,1.06,1.91,0.71,0.75,
2.64,0.16,0.12,1.06,1.91,0.71,0.75,
2.641,0.16,0.12,1.06,1.81,0.61,0.63,
2.641,0.15,0.11,1.05,1.81,0.61,0.63,
2.644,0.13,0.11,1.05,1.81,0.61,0.63,
2.645,0.12,0.10,1.04,1.81,0.61,0.63,
2.646,0.12,0.10,1.04,1.67,0.49,0.56,
2.648,0.11,0.10,1.05,1.67,0.49,0.56,
2.651,0.10,0.10,1.04,1.67,0.49,0.56,
2.651,0.10,0.10,1.04,1.43,0.36,0.46,
2.653,0.09,0.09,1.04,1.43,0.36,0.46,
2.655,0.09,0.09,1.04,1.22,0.27,0.41,
2.656,0.08,0.08,1.04,1.22,0.27,0.41,
2.659,0.07,0.08,1.04,1.22,0.27,0.41,
2.661,0.06,0.07,1.04,1.22,0.27,0.41,
2.662,0.06,0.07,1.04,1.04,0.15,0.40,
2.663,0.06,0.06,1.04,1.04,0.15,0.40,
2.665,0.06,0.06,1.04,0.88,0.03,0.40,
2.665,0.05,0.06,1.04,0.88,0.03,0.40,
2.668,0.05,0.06,1.05,0.88,0.03,0.40,
2.671,0.04,0.05,1.05,0.88,0.03,0.40,
2.671,0.04,0.05,1.05,0.78,-0.11,0.43,
2.673,0.04,0.06,1.05,0.78,-0.11,0.43,
2.675,0.03,0.05,1.05,0.78,-0.11,0.43,
2.676,0.03,0.05,1.05,0.70,-0.17,0.49,
2.678,0.03,0.05,1.06,0.70,-0.17,0.49,
2.68,0.02,0.06,1.06,0.70,-0.17,0.49,
2.68,0.02,0.06,1.06,0.62,-0.19,0.49,
2.683,0.02,0.05,1.06,0.62,-0.19,0.49,
2.685,0.02,0.06,1.06,0.62,-0.19,0.49,
2.686,0.02,0.06,1.06,0.51,-0.20,0.58,
2.688,0.02,0.06,1.05,0.51,-0.20,0.58,
2.69,0.02,0.06,1.05,0.46,-0.22,0.60,
2.69,0.02,0.06,1.06,0.46,-0.22,0.60,
2.693,0.02,0.06,1.06,0.46,-0.22,0.60,
2.698,0.03,0.06,1.05,0.46,-0.22,0.60,
2.699,0.03,0.06,1.05,0.50,-0.18,0.56,
2.699,0.03,0.06,1.05,0.50,-0.18,0.56,
2.7,0.03,0.06,1.05,0.54,-0.20,0.53,
2.7,0.03,0.06,1.05,0.54,-0.20,0.53,
2.702,0.03,0.06,1.05,0.54,-0.20,0.53,
2.705,0.03,0.06,1.05,0.63,-0.21,0.52,
2.705,0.03,0.06,1.05,0.63,-0.21,0.52,
2.708,0.04,0.06,1.05,0.63,-0.21,0.52,
2.712,0.04,0.07,1.04,0.63,-0.21,0.52,
2.713,0.04,0.07,1.04,0.65,-0.19,0.50,
2.714,0.05,0.06,1.04,0.65,-0.19,0.50,
2.715,0.05,0.06,1.04,0.75,-0.20,0.45,
2.715,0.04,0.05,1.04,0.75,-0.20,0.45,
2.717,0.05,0.05,1.03,0.75,-0.20,0.45,
2.72,0.05,0.05,1.02,0.75,-0.20,0.45,
2.72,0.05,0.05,1.02,0.81,-0.28,0.38,
2.722,0.05,0.04,1.01,0.81,-0.28,0.38,
2.725,0.05,0.04,1.01,0.91,-0.38,0.27,
2.725,0.05,0.04,1.01,0.91,-0.38,0.27,
2.729,0.05,0.04,1.00,0.91,-0.38,0.27,
2.729,0.05,0.03,0.99,0.91,-0.38,0.27,
2.729,0.05,0.03,0.99,0.91,-0.46,0.12,
2.732,0.04,0.03,0.99,0.91,-0.46,0.12,
2.735,0.04,0.03,0.98,0.91,-0.46,0.12,
2.735,0.04,0.03,0.98,0.89,-0.56,-0.04,
2.737,0.04,0.03,0.97,0.89,-0.56,-0.04,
2.74,0.04,0.03,0.97,0.84,-0.61,-0.11,
2.741,0.03,0.03,0.97,0.84,-0.61,-0.11,
2.742,0.03,0.03,0.97,0.84,-0.61,-0.11,
2.745,0.03,0.03,0.96,0.84,-0.61,-0.11,
2.746,0.03,0.03,0.96,0.82,-0.68,-0.27,
2.747,0.02,0.04,0.96,0.82,-0.68,-0.27,
2.75,0.02,0.04,0.95,0.82,-0.68,-0.27,
2.75,0.02,0.04,0.95,0.76,-0.67,-0.32,
2.752,0.02,0.04,0.95,0.76,-0.67,-0.32,
2.755,0.01,0.05,0.95,0.76,-0.67,-0.32,
2.755,0.01,0.05,0.95,0.72,-0.61,-0.41,
2.756,0.01,0.06,0.96,0.72,-0.61,-0.41,
2.76,0.01,0.07,0.96,0.72,-0.61,-0.41,
2.76,0.01,0.07,0.96,0.70,-0.57,-0.43,
2.762,0.01,0.08,0.96,0.70,-0.57,-0.43,
2.764,0.01,0.08,0.96,0.65,-0.39,-0.37,
2.765,0.00,0.09,0.96,0.65,-0.39,-0.37,
2.768,0.00,0.09,0.97,0.65,-0.39,-0.37,
2.77,0.01,0.10,0.97,0.65,-0.39,-0.37,
2.77,0.01,0.10,0.97,0.62,-0.26,-0.34,
2.772,0.01,0.10,0.98,0.62,-0.26,-0.34,
2.775,0.01,0.11,0.98,0.62,-0.26,-0.34,
2.775,0.01,0.11,0.98,0.61,-0.13,-0.25,
2.777,0.02,0.11,0.99,0.61,-0.13,-0.25,
2.779,0.02,0.11,0.99,0.61,-0.13,-0.25,
2.78,0.02,0.11,0.99,0.67,-0.06,-0.14,
2.781,0.04,0.11,1.00,0.67,-0.06,-0.14,
2.784,0.05,0.11,1.01,0.67,-0.06,-0.14,
2.784,0.05,0.11,1.01,0.75,-0.04,-0.04,
2.786,0.06,0.11,1.01,0.75,-0.04,-0.04,
2.789,0.06,0.11,1.01,0.94,-0.01,0.10,
2.789,0.06,0.11,1.02,0.94,-0.01,0.10,
2.791,0.08,0.11,1.02,0.94,-0.01,0.10,
2.799,0.08,0.11,1.03,0.94,-0.01,0.10,
2.799,0.08,0.11,1.03,1.08,-0.04,0.20,
2.799,0.08,0.11,1.03,1.08,-0.04,0.20,
2.799,0.09,0.11,1.04,1.08,-0.04,0.20,
2.8,0.09,0.11,1.04,1.27,-0.05,0.32,
2.802,0.10,0.10,1.03,1.27,-0.05,0.32,
2.804,0.10,0.11,1.04,1.27,-0.05,0.32,
2.804,0.10,0.11,1.04,1.35,-0.06,0.39,
2.806,0.10,0.11,1.03,1.35,-0.06,0.39,
2.809,0.11,0.11,1.03,1.35,-0.06,0.39,
2.809,0.11,0.11,1.03,1.47,-0.11,0.37,
2.813,0.11,0.10,1.03,1.47,-0.11,0.37,
2.813,0.11,0.10,1.03,1.50,-0.09,0.37,
2.814,0.11,0.10,1.02,1.50,-0.09,0.37,
2.816,0.11,0.10,1.01,1.50,-0.09,0.37,
2.818,0.11,0.10,1.00,1.50,-0.09,0.37,
2.819,0.11,0.10,1.00,1.53,-0.16,0.27,
2.82,0.11,0.10,1.00,1.53,-0.16,0.27,
2.823,0.10,0.09,1.00,1.53,-0.16,0.27,
2.823,0.10,0.09,1.00,1.57,-0.18,0.08,
2.826,0.10,0.09,0.99,1.57,-0.18,0.08,
2.83,0.10,0.08,0.98,1.57,-0.18,0.08,
2.83,0.10,0.08,0.98,1.53,-0.26,0.04,
2.831,0.09,0.08,0.97,1.53,-0.26,0.04,
2.833,0.08,0.08,0.95,1.53,-0.26,0.04,
2.833,0.08,0.08,0.95,1.49,-0.34,-0.11,
2.835,0.08,0.08,0.95,1.49,-0.34,-0.11,
2.838,0.08,0.08,0.95,1.40,-0.38,-0.33,
2.838,0.07,0.08,0.94,1.40,-0.38,-0.33,
2.84,0.06,0.08,0.93,1.40,-0.38,-0.33,
2.843,0.05,0.08,0.93,1.40,-0.38,-0.33,
2.843,0.05,0.08,0.93,1.30,-0.41,-0.52,
2.845,0.04,0.07,0.92,1.30,-0.41,-0.52,
2.848,0.03,0.07,0.92,1.30,-0.41,-0.52,
2.848,0.03,0.07,0.92,1.15,-0.43,-0.60,
2.85,0.03,0.07,0.92,1.15,-0.43,-0.60,
2.853,0.02,0.07,0.92,1.15,-0.43,-0.60,
2.853,0.02,0.07,0.92,1.02,-0.49,-0.67,
2.855,0.02,0.07,0.92,1.02,-0.49,-0.67,
2.858,0.01,0.07,0.93,1.02,-0.49,-0.67,
2.858,0.01,0.07,0.93,0.92,-0.49,-0.70,
2.861,0.00,0.08,0.93,0.92,-0.49,-0.70,
2.864,0.00,0.08,0.93,0.80,-0.47,-0.67,
2.865,0.00,0.08,0.93,0.80,-0.47,-0.67,
2.865,-0.00,0.08,0.93,0.80,-0.47,-0.67,
2.868,-0.00,0.08,0.94,0.80,-0.47,-0.67,
2.868,-0.00,0.08,0.94,0.71,-0.43,-0.60,
2.87,-0.00,0.09,0.94,0.71,-0.43,-0.60,
2.874,0.00,0.09,0.95,0.71,-0.43,-0.60,
2.874,0.00,0.09,0.95,0.67,-0.38,-0.59,
2.875,0.01,0.09,0.95,0.67,-0.38,-0.59,
2.879,0.01,0.09,0.96,0.67,-0.38,-0.59,
2.879,0.01,0.09,0.96,0.69,-0.36,-0.46,
2.88,0.02,0.09,0.96,0.69,-0.36,-0.46,
2.883,0.03,0.09,0.97,0.69,-0.36,-0.46,
2.883,0.03,0.09,0.97,0.79,-0.36,-0.33,
2.885,0.03,0.09,0.98,0.79,-0.36,-0.33,
2.888,0.03,0.09,0.98,0.89,-0.33,-0.23,
2.888,0.04,0.09,0.98,0.89,-0.33,-0.23,
2.891,0.05,0.09,0.98,0.89,-0.33,-0.23,
2.893,0.06,0.09,0.98,0.89,-0.33,-0.23,
2.893,0.06,0.09,0.98,1.05,-0.29,-0.14,
2.895,0.06,0.09,0.98,1.05,-0.29,-0.14,
2.898,0.07,0.09,0.99,1.05,-0.29,-0.14,
2.898,0.07,0.09,0.99,1.18,-0.32,-0.15,
2.9,0.07,0.09,1.00,1.18,-0.32,-0.15,
2.902,0.07,0.09,1.00,1.30,-0.31,-0.05,
2.903,0.08,0.10,1.00,1.30,-0.31,-0.05,
2.905,0.08,0.09,1.00,1.30,-0.31,-0.05,
2.907,0.09,0.09,1.00,1.30,-0.31,-0.05,
2.908,0.09,0.09,1.00,1.38,-0.29,0.05,
2.91,0.09,0.09,1.01,1.38,-0.29,0.05,
2.916,0.09,0.09,1.01,1.44,-0.32,0.06,
2.916,0.09,0.09,1.01,1.44,-0.32,0.06,
2.917,0.09,0.09,1.01,1.44,-0.32,0.06,
2.918,0.09,0.10,1.01,1.44,-0.32,0.06,
2.918,0.09,0.10,1.01,1.51,-0.30,0.14,
2.92,0.09,0.10,1.01,1.51,-0.30,0.14,
2.923,0.09,0.10,1.01,1.51,-0.30,0.14,
2.923,0.09,0.10,1.01,1.52,-0.27,0.15,
2.925,0.09,0.10,1.01,1.52,-0.27,0.15,
2.93,0.08,0.10,1.02,1.52,-0.27,0.15,
2.93,0.08,0.10,1.02,1.50,-0.21,0.19,
2.93,0.08,0.10,1.02,1.50,-0.21,0.19,
2.932,0.08,0.10,1.01,1.50,-0.21,0.19,
2.933,0.08,0.10,1.01,1.45,-0.19,0.22,
2.934,0.08,0.10,1.02,1.45,-0.19,0.22,
2.937,0.09,0.11,1.02,1.45,-0.19,0.22,
2.938,0.09,0.11,1.02,1.43,-0.16,0.23,
2.939,0.08,0.11,1.02,1.43,-0.16,0.23,
2.942,0.08,0.11,1.01,1.43,-0.16,0.23,
2.942,0.08,0.11,1.01,1.43,-0.13,0.24,
2.945,0.08,0.11,1.01,1.43,-0.13,0.24,
2.947,0.08,0.11,1.02,1.43,-0.13,0.24,
2.948,0.08,0.11,1.02,1.40,-0.12,0.23,
2.949,0.08,0.11,1.02,1.40,-0.12,0.23,
2.952,0.09,0.11,1.02,1.40,-0.12,0.23,
2.952,0.09,0.11,1.02,1.39,-0.11,0.21,
2.954,0.09,0.11,1.02,1.39,-0.11,0.21,
2.958,0.09,0.11,1.02,1.39,-0.11,0.21,
2.958,0.09,0.11,1.02,1.38,-0.11,0.24,
2.959,0.10,0.11,1.02,1.38,-0.11,0.24,
2.962,0.10,0.11,1.02,1.42,-0.12,0.28,
2.963,0.10,0.11,1.03,1.42,-0.12,0.28,
2.964,0.10,0.11,1.03,1.42,-0.12,0.28,
2.967,0.10,0.11,1.03,1.49,-0.08,0.28,
2.968,0.11,0.11,1.03,1.49,-0.08,0.28,
2.969,0.11,0.11,1.03,1.49,-0.08,0.28,
2.973,0.11,0.11,1.03,1.49,-0.08,0.28,
2.973,0.11,0.11,1.03,1.52,-0.11,0.31,
2.975,0.11,0.11,1.04,1.52,-0.11,0.31,
2.978,0.12,0.11,1.04,1.52,-0.11,0.31,
2.978,0.12,0.11,1.04,1.52,-0.13,0.35,
2.98,0.11,0.10,1.04,1.52,-0.13,0.35,
2.982,0.11,0.11,1.04,1.52,-0.13,0.35,
2.982,0.11,0.11,1.04,1.57,-0.13,0.42,
2.985,0.11,0.11,1.04,1.57,-0.13,0.42,
2.988,0.11,0.11,1.04,1.52,-0.13,0.43,
2.988,0.11,0.11,1.05,1.52,-0.13,0.43,
2.99,0.11,0.11,1.04,1.52,-0.13,0.43,
2.992,0.11,0.11,1.05,1.52,-0.13,0.43,
2.993,0.11,0.11,1.05,1.50,-0.10,0.50,
2.995,0.11,0.11,1.05,1.50,-0.10,0.50,
2.999,0.11,0.11,1.05,1.50,-0.10,0.50,
3.0,0.11,0.11,1.05,1.45,-0.11,0.48,
3.0,0.11,0.12,1.05,1.45,-0.11,0.48,
3.002,0.11,0.12,1.04,1.45,-0.11,0.48,
3.002,0.11,0.12,1.04,1.41,-0.08,0.51,
3.004,0.11,0.11,1.04,1.41,-0.08,0.51,
3.007,0.11,0.12,1.04,1.41,-0.08,0.51,
3.008,0.11,0.12,1.04,1.41,-0.04,0.47,
3.009,0.11,0.12,1.03,1.41,-0.04,0.47,
3.016,0.11,0.12,1.03,1.39,-0.06,0.43,
3.016,0.11,0.11,1.03,1.39,-0.06,0.43,
3.016,0.11,0.12,1.03,1.39,-0.06,0.43,
3.018,0.11,0.12,1.02,1.39,-0.06,0.43,
3.018,0.11,0.12,1.02,1.36,-0.06,0.35,
3.02,0.11,0.12,1.02,1.36,-0.06,0.35,
3.022,0.11,0.12,1.02,1.36,-0.06,0.35,
3.022,0.11,0.12,1.02,1.35,-0.05,0.26,
3.024,0.11,0.12,1.01,1.35,-0.05,0.26,
3.027,0.11,0.13,1.01,1.35,-0.05,0.26,
3.027,0.11,0.13,1.01,1.35,-0.03,0.21,
3.03,0.11,0.13,1.00,1.35,-0.03,0.21,
3.032,0.10,0.13,1.00,1.35,-0.03,0.21,
3.032,0.10,0.13,1.00,1.33,0.03,0.15,
3.034,0.10,0.13,1.00,1.33,0.03,0.15,
3.037,0.10,0.13,1.00,1.28,0.06,0.02,
3.037,0.10,0.14,1.00,1.28,0.06,0.02,
3.039,0.10,0.13,1.00,1.28,0.06,0.02,
3.042,0.10,0.14,0.99,1.28,0.06,0.02,
3.042,0.10,0.14,0.99,1.22,0.11,0.04,
3.044,0.10,0.14,0.99,1.22,0.11,0.04,
3.047,0.10,0.14,0.99,1.22,0.11,0.04,
3.047,0.10,0.14,0.99,1.19,0.12,-0.03,
3.049,0.09,0.14,0.99,1.19,0.12,-0.03,
3.051,0.09,0.14,0.99,1.16,0.15,-0.06,
3.052,0.09,0.14,0.99,1.16,0.15,-0.06,
3.054,0.08,0.14,0.99,1.16,0.15,-0.06,
3.057,0.08,0.14,0.99,1.16,0.15,-0.06,
3.057,0.08,0.14,0.99,1.06,0.18,-0.10,
3.059,0.08,0.14,0.98,1.06,0.18,-0.10,
3.062,0.08,0.14,0.98,1.00,0.16,-0.10,
3.062,0.08,0.14,0.98,1.00,0.16,-0.10,
3.064,0.08,0.14,0.97,1.00,0.16,-0.10,
3.066,0.07,0.14,0.97,1.00,0.16,-0.10,
3.066,0.07,0.14,0.97,0.95,0.15,-0.18,
3.069,0.07,0.14,0.97,0.95,0.15,-0.18,
3.072,0.07,0.14,0.97,0.95,0.15,-0.18,
3.072,0.07,0.14,0.97,0.90,0.14,-0.24,
3.074,0.07,0.14,0.97,0.90,0.14,-0.24,
3.077,0.07,0.14,0.97,0.89,0.15,-0.24,
3.077,0.07,0.14,0.96,0.89,0.15,-0.24,
3.081,0.07,0.14,0.97,0.89,0.15,-0.24,
3.082,0.07,0.15,0.97,0.89,0.15,-0.24,
3.082,0.07,0.15,0.97,0.85,0.11,-0.32,
3.083,0.08,0.15,0.97,0.85,0.11,-0.32,
3.087,0.08,0.15,0.97,0.85,0.18,-0.28,
3.087,0.07,0.15,0.97,0.85,0.18,-0.28,
3.088,0.07,0.15,0.97,0.85,0.18,-0.28,
3.094,0.08,0.15,0.97,0.85,0.18,-0.28,
3.094,0.08,0.15,0.97,0.84,0.18,-0.27,
3.094,0.07,0.15,0.97,0.84,0.18,-0.27,
3.098,0.08,0.16,0.97,0.84,0.18,-0.27,
3.099,0.08,0.16,0.97,0.84,0.23,-0.24,
3.099,0.08,0.16,0.98,0.84,0.23,-0.24,
3.102,0.08,0.16,0.98,0.84,0.26,-0.24,
3.102,0.08,0.16,0.97,0.84,0.26,-0.24,
3.103,0.08,0.16,0.97,0.84,0.26,-0.24,
3.106,0.09,0.16,0.98,0.84,0.26,-0.24,
3.107,0.09,0.16,0.98,0.86,0.26,-0.20,
3.108,0.09,0.16,0.97,0.86,0.26,-0.20,
3.111,0.09,0.16,0.97,0.89,0.27,-0.19,
3.111,0.08,0.16,0.97,0.89,0.27,-0.19,
3.114,0.08,0.16,0.97,0.89,0.27,-0.19,
3.116,0.09,0.16,0.97,0.89,0.27,-0.19,
3.116,0.09,0.16,0.97,0.88,0.26,-0.23,
3.118,0.09,0.16,0.96,0.88,0.26,-0.23,
3.12,0.09,0.16,0.96,0.88,0.26,-0.23,
3.121,0.09,0.16,0.96,0.87,0.27,-0.21,
3.123,0.08,0.15,0.97,0.87,0.27,-0.21,
3.125,0.08,0.15,0.97,0.87,0.27,-0.21,
3.126,0.08,0.15,0.97,0.87,0.25,-0.30,
3.127,0.08,0.15,0.97,0.87,0.25,-0.30,
3.137,0.07,0.15,0.97,0.87,0.25,-0.30,
3.142,0.07,0.15,0.97,0.79,0.21,-0.20,
3.142,0.07,0.15,0.97,0.79,0.21,-0.20,
3.142,0.07,0.15,0.97,0.74,0.20,-0.23,
3.143,0.07,0.16,0.97,0.74,0.20,-0.23,
3.143,0.06,0.15,0.97,0.74,0.20,-0.23,
3.143,0.06,0.15,0.97,0.65,0.21,-0.22,
3.143,0.06,0.15,0.97,0.65,0.21,-0.22,
3.143,0.06,0.15,0.97,0.65,0.21,-0.22,
3.151,0.06,0.15,0.97,0.61,0.19,-0.24,
3.152,0.05,0.15,0.97,0.61,0.19,-0.24,
3.152,0.05,0.15,0.97,0.61,0.19,-0.24,
3.152,0.05,0.16,0.97,0.61,0.19,-0.24,
3.153,0.05,0.16,0.97,0.53,0.21,-0.24,
3.153,0.05,0.16,0.98,0.53,0.21,-0.24,
3.155,0.05,0.16,0.98,0.53,0.21,-0.24,
3.155,0.05,0.16,0.98,0.48,0.23,-0.20,
3.157,0.05,0.16,0.98,0.48,0.23,-0.20,
3.16,0.05,0.16,0.98,0.46,0.25,-0.14,
3.16,0.04,0.16,0.98,0.46,0.25,-0.14,
3.166,0.04,0.16,0.99,0.46,0.25,-0.14,
3.166,0.04,0.15,0.99,0.46,0.25,-0.14,
3.167,0.04,0.15,0.99,0.40,0.25,-0.11,
3.167,0.04,0.16,0.99,0.40,0.25,-0.11,
3.171,0.05,0.16,0.99,0.40,0.25,-0.11,
3.172,0.05,0.16,0.99,0.35,0.24,-0.03,
3.172,0.05,0.16,0.98,0.35,0.24,-0.03,
3.176,0.04,0.16,0.98,0.35,0.24,-0.03,
3.177,0.04,0.16,0.98,0.36,0.25,-0.03,
3.177,0.04,0.16,0.98,0.36,0.25,-0.03,
3.181,0.05,0.16,0.97,0.36,0.25,-0.03,
3.182,0.05,0.16,0.97,0.38,0.24,-0.10,
3.182,0.05,0.16,0.97,0.38,0.24,-0.10,
3.186,0.05,0.16,0.97,0.36,0.25,-0.16,
3.186,0.05,0.16,0.96,0.36,0.25,-0.16,
3.189,0.05,0.16,0.96,0.36,0.25,-0.16,
3.191,0.06,0.17,0.96,0.36,0.25,-0.16,
3.191,0.06,0.17,0.96,0.41,0.25,-0.26,
3.193,0.06,0.17,0.95,0.41,0.25,-0.26,
3.196,0.06,0.17,0.95,0.41,0.25,-0.26,
3.196,0.06,0.17,0.95,0.44,0.30,-0.31,
3.198,0.06,0.17,0.95,0.44,0.30,-0.31,
3.201,0.06,0.18,0.94,0.44,0.30,-0.31,
3.202,0.06,0.18,0.94,0.45,0.33,-0.42,
3.202,0.07,0.18,0.94,0.45,0.33,-0.42,
3.206,0.07,0.18,0.94,0.45,0.33,-0.42,
3.206,0.07,0.18,0.94,0.46,0.38,-0.43,
3.208,0.07,0.18,0.94,0.46,0.38,-0.43,
3.21,0.07,0.18,0.94,0.51,0.42,-0.51,
3.211,0.08,0.18,0.94,0.51,0.42,-0.51,
3.213,0.08,0.19,0.94,0.51,0.42,-0.51,
3.215,0.08,0.19,0.94,0.52,0.44,-0.47,
3.215,0.08,0.18,0.93,0.52,0.44,-0.47,
3.217,0.08,0.18,0.94,0.52,0.44,-0.47,
3.22,0.08,0.18,0.95,0.52,0.44,-0.47,
3.22,0.08,0.18,0.95,0.57,0.44,-0.52,
3.222,0.08,0.16,0.96,0.57,0.44,-0.52,
3.226,0.08,0.16,0.96,0.57,0.44,-0.52,
3.226,0.08,0.16,0.96,0.56,0.37,-0.39,
3.226,0.08,0.15,0.96,0.56,0.37,-0.39,
3.229,0.07,0.14,0.97,0.56,0.37,-0.39,
3.23,0.07,0.14,0.97,0.53,0.21,-0.29,
3.235,0.07,0.13,0.97,0.53,0.21,-0.29,
3.236,0.07,0.13,0.97,0.46,0.05,-0.21,
3.236,0.06,0.13,0.97,0.46,0.05,-0.21,
3.237,0.05,0.13,0.97,0.46,0.05,-0.21,
3.239,0.05,0.13,0.97,0.46,0.05,-0.21,
3.239,0.05,0.13,0.97,0.32,-0.08,-0.18,
3.242,0.04,0.12,0.98,0.32,-0.08,-0.18,
3.245,0.03,0.12,0.98,0.32,-0.08,-0.18,
3.245,0.03,0.12,0.98,0.16,-0.11,-0.17,
3.247,0.03,0.12,0.98,0.16,-0.11,-0.17,
3.249,0.03,0.11,0.99,0.16,-0.11,-0.17,
3.25,0.03,0.11,0.99,0.01,-0.20,-0.07,
3.252,0.03,0.11,0.99,0.01,-0.20,-0.07,
3.255,0.03,0.11,1.00,0.01,-0.20,-0.07,
3.255,0.03,0.11,1.00,-0.10,-0.24,0.01,
3.257,0.03,0.11,1.01,-0.10,-0.24,0.01,
3.26,0.03,0.11,1.01,-0.12,-0.27,0.09,
3.26,0.03,0.11,1.01,-0.12,-0.27,0.09,
3.262,0.03,0.10,1.02,-0.12,-0.27,0.09,
3.266,0.03,0.10,1.02,-0.12,-0.27,0.09,
3.266,0.03,0.10,1.02,-0.10,-0.33,0.19,
3.266,0.03,0.10,1.02,-0.10,-0.33,0.19,
3.269,0.04,0.10,1.02,-0.10,-0.33,0.19,
3.27,0.04,0.10,1.02,-0.09,-0.40,0.32,
3.272,0.04,0.10,1.03,-0.09,-0.40,0.32,
3.274,0.04,0.10,1.02,-0.09,-0.40,0.32,
3.274,0.04,0.10,1.02,-0.05,-0.37,0.29,
3.278,0.04,0.10,1.01,-0.05,-0.37,0.29,
3.279,0.03,0.11,1.01,-0.05,-0.37,0.29,
3.279,0.03,0.11,1.01,-0.04,-0.37,0.33,
3.281,0.04,0.11,1.01,-0.04,-0.37,0.33,
3.286,0.04,0.11,1.01,-0.04,-0.31,0.20,
3.286,0.03,0.11,1.01,-0.04,-0.31,0.20,
3.286,0.03,0.11,1.00,-0.04,-0.31,0.20,
3.289,0.02,0.11,1.00,-0.04,-0.31,0.20,
3.289,0.02,0.11,1.00,-0.07,-0.29,0.16,
3.291,0.02,0.11,0.99,-0.07,-0.29,0.16,
3.294,0.02,0.12,0.99,-0.07,-0.29,0.16,
3.294,0.02,0.12,0.99,-0.15,-0.28,0.10,
3.3,0.02,0.12,0.98,-0.15,-0.28,0.10,
3.301,0.02,0.12,0.98,-0.15,-0.28,0.10,
3.302,0.02,0.12,0.98,-0.15,-0.20,-0.00,
3.302,0.01,0.13,0.98,-0.15,-0.20,-0.00,
3.304,0.01,0.13,0.97,-0.15,-0.20,-0.00,
3.304,0.01,0.13,0.97,-0.21,-0.15,-0.09,
3.307,0.01,0.13,0.98,-0.21,-0.15,-0.09,
3.309,0.01,0.13,0.97,-0.21,-0.15,-0.09,
3.309,0.01,0.13,0.97,-0.25,-0.08,-0.14,
3.311,0.01,0.13,0.97,-0.25,-0.08,-0.14,
3.317,0.01,0.14,0.97,-0.25,-0.08,-0.14,
3.318,0.01,0.14,0.97,-0.29,-0.07,-0.15,
3.318,0.01,0.13,0.97,-0.29,-0.07,-0.15,
3.319,0.01,0.14,0.97,-0.29,-0.07,-0.15,
3.319,0.01,0.14,0.97,-0.29,-0.01,-0.16,
3.321,0.01,0.13,0.97,-0.29,-0.01,-0.16,
3.324,0.01,0.14,0.98,-0.29,-0.01,-0.16,
3.324,0.01,0.14,0.98,-0.31,0.01,-0.18,
3.326,0.01,0.14,0.99,-0.31,0.01,-0.18,
3.329,0.01,0.13,1.00,-0.31,0.01,-0.18,
3.329,0.01,0.13,1.00,-0.30,0.03,-0.10,
3.33,0.01,0.13,1.01,-0.30,0.03,-0.10,
3.333,0.01,0.14,1.01,-0.30,0.03,-0.10,
3.334,0.01,0.14,1.01,-0.26,0.02,0.06,
3.335,0.02,0.14,1.01,-0.26,0.02,0.06,
3.339,0.02,0.13,1.02,-0.26,0.02,0.06,
3.34,0.02,0.13,1.02,-0.24,0.02,0.18,
3.341,0.02,0.14,1.02,-0.24,0.02,0.18,
3.343,0.03,0.13,1.01,-0.24,0.02,0.18,
3.344,0.03,0.13,1.01,-0.19,0.02,0.24,
3.346,0.03,0.13,1.01,-0.19,0.02,0.24,
3.351,0.03,0.13,1.02,-0.19,0.02,0.24,
3.352,0.03,0.13,1.02,-0.16,0.04,0.26,
3.352,0.03,0.13,1.02,-0.16,0.04,0.26,
3.353,0.03,0.13,1.01,-0.16,0.04,0.26,
3.353,0.03,0.13,1.01,-0.11,0.02,0.25,
3.355,0.03,0.14,1.01,-0.11,0.02,0.25,
3.358,0.03,0.13,1.02,-0.11,0.02,0.25,
3.358,0.03,0.13,1.02,-0.09,0.02,0.24,
3.36,0.03,0.13,1.02,-0.09,0.02,0.24,
3.364,0.04,0.13,1.02,-0.09,0.02,0.24,
3.364,0.04,0.13,1.02,-0.10,0.03,0.25,
3.366,0.04,0.13,1.02,-0.10,0.03,0.25,
3.368,0.04,0.13,1.02,-0.10,0.03,0.25,
3.368,0.04,0.13,1.02,-0.10,0.03,0.31,
3.371,0.04,0.13,1.02,-0.10,0.03,0.31,
3.374,0.04,0.12,1.02,-0.10,0.03,0.31,
3.374,0.04,0.12,1.02,-0.06,0.03,0.29,
3.376,0.04,0.12,1.02,-0.06,0.03,0.29,
3.379,0.04,0.11,1.02,-0.06,0.03,0.29,
3.379,0.04,0.11,1.02,-0.04,-0.06,0.29,
3.381,0.04,0.11,1.01,-0.04,-0.06,0.29,
3.383,0.04,0.11,1.01,-0.04,-0.06,0.29,
3.383,0.04,0.11,1.01,-0.06,-0.16,0.26,
3.385,0.04,0.10,1.02,-0.06,-0.16,0.26,
3.388,0.04,0.10,1.02,-0.06,-0.16,0.26,
3.388,0.04,0.10,1.02,-0.05,-0.20,0.22,
3.391,0.04,0.10,1.01,-0.05,-0.20,0.22,
3.395,0.04,0.10,1.01,-0.05,-0.20,0.22,
3.395,0.04,0.10,1.01,-0.06,-0.28,0.24,
3.396,0.04,0.09,1.01,-0.06,-0.28,0.24,
3.399,0.03,0.09,1.01,-0.06,-0.28,0.24,
3.4,0.03,0.09,1.01,-0.07,-0.30,0.17,
3.4,0.03,0.09,1.01,-0.07,-0.30,0.17,
3.404,0.03,0.09,1.01,-0.07,-0.30,0.17,
3.404,0.03,0.09,1.01,-0.14,-0.34,0.17,
3.405,0.03,0.09,1.00,-0.14,-0.34,0.17,
3.408,0.02,0.10,1.00,-0.14,-0.34,0.17,
3.408,0.02,0.10,1.00,-0.15,-0.37,0.13,
3.41,0.03,0.10,0.99,-0.15,-0.37,0.13,
3.413,0.03,0.10,0.99,-0.15,-0.37,0.13,
3.413,0.03,0.10,0.99,-0.23,-0.34,0.05,
3.416,0.03,0.10,0.98,-0.23,-0.34,0.05,
3.418,0.03,0.11,0.98,-0.23,-0.34,0.05,
3.418,0.03,0.11,0.98,-0.21,-0.31,-0.03,
3.421,0.03,0.11,0.98,-0.21,-0.31,-0.03,
3.423,0.03,0.11,0.98,-0.21,-0.31,-0.03,
3.423,0.03,0.11,0.98,-0.20,-0.26,-0.09,
3.425,0.03,0.11,0.98,-0.20,-0.26,-0.09,
3.428,0.03,0.11,0.98,-0.20,-0.26,-0.09,
3.428,0.03,0.11,0.98,-0.21,-0.20,-0.11,
3.43,0.03,0.11,0.98,-0.21,-0.20,-0.11,
3.433,0.04,0.11,0.98,-0.21,-0.20,-0.11,
3.433,0.04,0.11,0.98,-0.19,-0.18,-0.11,
3.435,0.04,0.12,0.98,-0.19,-0.18,-0.11,
3.437,0.05,0.13,0.98,-0.19,-0.18,-0.11,
3.438,0.05,0.13,0.98,-0.12,-0.16,-0.11,
3.439,0.05,0.13,0.99,-0.12,-0.16,-0.11,
3.442,0.05,0.13,0.99,-0.05,-0.07,-0.15,
3.442,0.05,0.13,0.99,-0.05,-0.07,-0.15,
3.444,0.06,0.14,1.00,-0.05,-0.07,-0.15,
3.453,0.06,0.14,1.00,-0.05,-0.07,-0.15,
3.453,0.06,0.14,1.00,-0.01,-0.01,-0.04,
3.453,0.06,0.14,1.00,-0.01,-0.01,-0.04,
3.453,0.06,0.14,1.01,-0.01,-0.01,-0.04,
3.454,0.06,0.14,1.01,0.06,0.07,0.05,
3.456,0.07,0.15,1.01,0.06,0.07,0.05,
3.457,0.07,0.15,1.01,0.11,0.12,0.14,
3.458,0.07,0.15,1.01,0.11,0.12,0.14,
3.46,0.07,0.15,1.01,0.11,0.12,0.14,
3.462,0.07,0.15,1.01,0.11,0.12,0.14,
3.463,0.07,0.15,1.01,0.16,0.17,0.16,
3.465,0.08,0.15,1.01,0.16,0.17,0.16,
3.467,0.07,0.15,1.01,0.16,0.17,0.16,
3.467,0.07,0.15,1.01,0.19,0.19,0.18,
3.469,0.07,0.15,1.01,0.19,0.19,0.18,
3.472,0.08,0.14,1.01,0.19,0.19,0.18,
3.473,0.08,0.14,1.01,0.21,0.20,0.16,
3.474,0.08,0.14,1.01,0.21,0.20,0.16,
3.478,0.08,0.15,1.00,0.21,0.20,0.16,
3.478,0.08,0.15,1.00,0.20,0.16,0.17,
3.479,0.07,0.15,1.01,0.20,0.16,0.17,
3.483,0.07,0.14,1.00,0.20,0.16,0.17,
3.483,0.07,0.14,1.00,0.22,0.18,0.13,
3.484,0.07,0.14,1.00,0.22,0.18,0.13,
3.487,0.07,0.13,1.00,0.22,0.18,0.13,
3.487,0.07,0.13,1.00,0.16,0.16,0.11,
3.489,0.06,0.13,1.00,0.16,0.16,0.11,
3.492,0.06,0.13,0.99,0.16,0.16,0.11,
3.492,0.06,0.13,0.99,0.16,0.05,0.10,
3.494,0.06,0.13,0.99,0.16,0.05,0.10,
3.497,0.06,0.13,0.99,0.16,0.05,0.10,
3.497,0.06,0.13,0.99,0.08,0.03,0.01,
3.499,0.06,0.12,0.99,0.08,0.03,0.01,
3.501,0.06,0.12,0.98,0.08,0.03,0.01,
3.502,0.06,0.12,0.98,0.04,0.01,-0.03,
3.504,0.05,0.12,0.98,0.04,0.01,-0.03,
3.507,0.05,0.12,0.98,0.04,0.01,-0.03,
3.507,0.05,0.12,0.98,-0.00,-0.07,-0.09,
3.509,0.05,0.12,0.97,-0.00,-0.07,-0.09,
3.511,0.05,0.12,0.97,-0.00,-0.07,-0.09,
3.512,0.05,0.12,0.97,-0.06,-0.09,-0.12,
3.515,0.04,0.12,0.97,-0.06,-0.09,-0.12,
3.516,0.05,0.12,0.97,-0.06,-0.09,-0.12,
3.517,0.05,0.12,0.97,-0.09,-0.10,-0.21,
3.519,0.04,0.12,0.97,-0.09,-0.10,-0.21,
3.521,0.04,0.12,0.97,-0.13,-0.12,-0.21,
3.522,0.04,0.12,0.97,-0.13,-0.12,-0.21,
3.524,0.04,0.13,0.97,-0.13,-0.12,-0.21,
3.527,0.05,0.13,0.97,-0.13,-0.12,-0.21,
3.527,0.05,0.13,0.97,-0.14,-0.09,-0.23,
3.528,0.05,0.13,0.95,-0.14,-0.09,-0.23,
3.532,0.06,0.12,0.92,-0.14,-0.09,-0.23,
3.533,0.06,0.12,0.92,-0.14,-0.05,-0.21,
3.533,0.07,0.13,0.91,-0.14,-0.05,-0.21,
3.536,0.07,0.13,0.91,-0.06,-0.07,-0.53,
3.536,0.07,0.14,0.91,-0.06,-0.07,-0.53,
3.538,0.06,0.14,0.92,-0.06,-0.07,-0.53,
3.543,0.06,0.14,0.93,-0.06,-0.07,-0.53,
3.544,0.06,0.14,0.93,0.07,0.00,-0.82,
3.544,0.05,0.14,0.95,0.07,0.00,-0.82,
3.546,0.05,0.13,0.97,0.07,0.00,-0.82,
3.546,0.05,0.13,0.97,-0.01,0.09,-0.60,
3.551,0.05,0.13,0.98,-0.01,0.09,-0.60,
3.552,0.05,0.13,0.99,-0.01,0.09,-0.60,
3.552,0.05,0.13,0.99,-0.13,0.03,-0.28,
3.553,0.06,0.13,0.99,-0.13,0.03,-0.28,
3.556,0.06,0.12,0.99,-0.13,0.03,-0.28,
3.556,0.06,0.12,0.99,-0.08,0.00,-0.05,
3.558,0.06,0.13,0.99,-0.08,0.00,-0.05,
3.561,0.07,0.13,0.99,-0.08,0.00,-0.05,
3.561,0.07,0.13,0.99,-0.02,-0.06,0.03,
3.563,0.06,0.12,1.00,-0.02,-0.06,0.03,
3.57,0.06,0.12,1.00,-0.02,-0.06,0.03,
3.571,0.06,0.12,1.00,0.06,-0.01,0.01,
3.571,0.06,0.13,1.00,0.06,-0.01,0.01,
3.571,0.06,0.13,1.00,0.06,-0.01,0.01,
3.572,0.06,0.13,1.00,0.02,-0.05,0.10,
3.583,0.05,0.13,1.01,0.02,-0.05,0.10,
3.584,0.05,0.12,1.02,0.02,-0.05,0.10,
3.584,0.05,0.12,1.02,0.00,0.01,0.13,
3.584,0.05,0.13,1.02,0.00,0.01,0.13,
3.584,0.05,0.12,1.03,0.00,0.01,0.13,
3.585,0.05,0.12,1.03,-0.04,-0.00,0.21,
3.585,0.05,0.12,1.03,-0.04,-0.00,0.21,
3.586,0.05,0.12,1.04,-0.04,-0.00,0.21,
3.586,0.05,0.12,1.04,-0.05,-0.00,0.33,
3.588,0.06,0.11,1.05,-0.05,-0.00,0.33,
3.591,0.05,0.11,1.05,-0.05,-0.00,0.33,
3.592,0.05,0.11,1.05,-0.03,-0.06,0.45,
3.594,0.06,0.10,1.06,-0.03,-0.06,0.45,
3.596,0.06,0.10,1.06,-0.03,-0.06,0.45,
3.596,0.06,0.10,1.06,-0.02,-0.14,0.58,
3.599,0.06,0.10,1.07,-0.02,-0.14,0.58,
3.6,0.07,0.09,1.07,-0.02,-0.14,0.58,
3.601,0.07,0.09,1.07,0.01,-0.20,0.67,
3.603,0.07,0.09,1.08,0.01,-0.20,0.67,
3.606,0.07,0.09,1.08,0.01,-0.20,0.67,
3.606,0.07,0.09,1.08,0.07,-0.29,0.75,
3.608,0.07,0.09,1.08,0.07,-0.29,0.75,
3.611,0.07,0.09,1.08,0.07,-0.29,0.75,
3.611,0.07,0.09,1.08,0.13,-0.29,0.83,
3.613,0.07,0.09,1.08,0.13,-0.29,0.83,
3.616,0.07,0.09,1.08,0.13,-0.29,0.83,
3.617,0.07,0.09,1.08,0.15,-0.29,0.86,
3.618,0.07,0.09,1.07,0.15,-0.29,0.86,
3.622,0.07,0.09,1.06,0.15,-0.29,0.86,
3.622,0.07,0.09,1.06,0.13,-0.30,0.82,
3.622,0.07,0.10,1.06,0.13,-0.30,0.82,
3.625,0.08,0.10,1.05,0.13,-0.30,0.82,
3.627,0.08,0.10,1.05,0.10,-0.30,0.69,
3.628,0.07,0.10,1.04,0.10,-0.30,0.69,
3.63,0.07,0.09,1.04,0.10,-0.30,0.69,
3.631,0.07,0.09,1.04,0.15,-0.27,0.56,
3.633,0.07,0.09,1.03,0.15,-0.27,0.56,
