
time,gFx,gFy,gFz,ax,ay,az,
0.004,0.04,0.13,1.03,0.15,0.01,-0.09,
0.005,0.04,0.13,1.03,0.11,-0.01,0.10,
0.005,0.05,0.13,1.03,0.11,-0.01,0.10,
0.005,0.05,0.13,1.04,0.11,-0.01,0.10,
0.005,0.05,0.13,1.04,0.17,-0.03,0.33,
0.005,0.05,0.13,1.04,0.17,-0.03,0.33,
0.006,0.05,0.14,1.05,0.17,-0.03,0.33,
0.007,0.05,0.14,1.05,0.19,-0.02,0.47,
0.016,0.05,0.14,1.06,0.19,-0.02,0.47,
0.017,0.05,0.14,1.05,0.19,-0.02,0.47,
0.017,0.05,0.14,1.05,0.25,-0.02,0.53,
0.017,0.05,0.14,1.05,0.25,-0.02,0.53,
0.017,0.05,0.15,1.05,0.25,-0.02,0.53,
0.018,0.05,0.15,1.05,0.21,0.04,0.63,
0.019,0.05,0.15,1.05,0.21,0.04,0.63,
0.021,0.05,0.15,1.05,0.21,0.04,0.63,
0.022,0.05,0.15,1.05,0.23,0.09,0.59,
0.024,0.04,0.15,1.04,0.23,0.09,0.59,
0.029,0.04,0.15,1.04,0.23,0.09,0.59,
0.029,0.04,0.15,1.04,0.23,0.11,0.56,
0.029,0.04,0.15,1.03,0.23,0.11,0.56,
0.031,0.04,0.15,1.02,0.23,0.11,0.56,
0.031,0.04,0.15,1.02,0.13,0.11,0.44,
0.034,0.04,0.15,1.02,0.13,0.11,0.44,
0.037,0.04,0.15,1.02,0.12,0.12,0.37,
0.037,0.05,0.15,1.00,0.12,0.12,0.37,
0.039,0.05,0.16,1.01,0.12,0.12,0.37,
0.042,0.05,0.16,1.00,0.12,0.12,0.37,
0.042,0.05,0.16,1.00,0.19,0.09,0.20,
0.044,0.05,0.15,1.00,0.19,0.09,0.20,
0.046,0.05,0.15,0.99,0.19,0.09,0.20,
0.046,0.05,0.15,0.99,0.21,0.14,0.13,
0.049,0.06,0.15,0.99,0.21,0.14,0.13,
0.052,0.06,0.14,0.99,0.21,0.14,0.13,
0.052,0.06,0.14,0.99,0.22,0.10,0.06,
0.054,0.06,0.14,0.99,0.22,0.10,0.06,
0.057,0.06,0.14,0.99,0.22,0.10,0.06,
0.057,0.06,0.14,0.99,0.34,-0.02,-0.01,
0.06,0.05,0.14,1.00,0.34,-0.02,-0.01,
0.061,0.04,0.14,1.00,0.34,-0.02,-0.01,
0.061,0.04,0.14,1.00,0.29,-0.06,-0.02,
0.064,0.03,0.14,1.01,0.29,-0.06,-0.02,
0.067,0.02,0.14,1.01,0.29,-0.06,-0.02,
0.067,0.02,0.14,1.01,0.16,-0.04,0.06,
0.069,0.01,0.15,1.01,0.16,-0.04,0.06,
0.072,0.02,0.15,1.01,0.16,-0.04,0.06,
0.072,0.02,0.15,1.01,0.01,-0.04,0.17,
0.074,0.02,0.15,1.02,0.01,-0.04,0.17,
0.077,0.03,0.15,1.02,0.01,-0.04,0.17,
0.077,0.03,0.15,1.02,-0.06,0.02,0.20,
0.078,0.03,0.15,1.02,-0.06,0.02,0.20,
0.081,0.03,0.15,1.02,-0.06,0.02,0.20,
0.081,0.03,0.15,1.02,0.02,0.00,0.26,
0.084,0.03,0.15,1.01,0.02,0.00,0.26,
0.087,0.04,0.15,1.01,0.02,0.00,0.26,
0.087,0.04,0.15,1.01,0.10,0.03,0.24,
0.089,0.03,0.15,1.01,0.10,0.03,0.24,
0.091,0.03,0.15,1.00,0.10,0.03,0.24,
0.091,0.03,0.15,1.00,0.13,-0.03,0.21,
0.094,0.03,0.14,1.00,0.13,-0.03,0.21,
0.097,0.03,0.14,1.00,0.14,-0.03,0.15,
0.097,0.03,0.14,1.00,0.14,-0.03,0.15,
0.099,0.03,0.14,0.99,0.14,-0.03,0.15,
0.101,0.03,0.14,0.99,0.14,-0.13,0.06,
0.101,0.03,0.15,0.99,0.14,-0.13,0.06,
0.104,0.03,0.14,0.99,0.14,-0.13,0.06,
0.106,0.02,0.15,0.99,0.14,-0.13,0.06,
0.106,0.02,0.15,0.99,0.12,-0.11,-0.02,
0.109,0.02,0.15,0.98,0.12,-0.11,-0.02,
0.113,0.02,0.15,0.99,0.12,-0.11,-0.02,
0.114,0.02,0.15,0.99,0.09,-0.13,-0.02,
0.114,0.02,0.15,0.99,0.09,-0.13,-0.02,
0.116,0.02,0.15,0.98,0.09,-0.13,-0.02,
0.116,0.02,0.15,0.98,0.08,-0.10,-0.06,
0.118,0.02,0.15,0.98,0.08,-0.10,-0.06,
0.121,0.02,0.15,0.98,0.08,-0.10,-0.06,
0.121,0.02,0.15,0.98,0.05,-0.09,-0.06,
0.123,0.01,0.15,0.98,0.05,-0.09,-0.06,
0.126,0.01,0.15,0.98,0.05,-0.09,-0.06,
0.126,0.01,0.15,0.98,0.04,-0.05,-0.08,
0.128,0.01,0.15,0.98,0.04,-0.05,-0.08,
0.13,0.01,0.15,0.98,0.04,-0.05,-0.08,
0.131,0.01,0.15,0.98,-0.00,-0.06,-0.11,
0.133,0.01,0.15,0.98,-0.00,-0.06,-0.11,
0.136,0.01,0.16,0.98,-0.00,-0.06,-0.11,
0.136,0.01,0.16,0.98,-0.01,-0.07,-0.08,
0.138,0.01,0.15,0.98,-0.01,-0.07,-0.08,
0.14,0.01,0.15,0.99,-0.01,-0.07,-0.08,
0.14,0.01,0.15,0.99,-0.00,-0.06,-0.11,
0.144,0.01,0.15,0.99,-0.00,-0.06,-0.11,
0.146,0.01,0.16,0.98,-0.00,-0.06,-0.11,
0.146,0.01,0.16,0.98,0.02,-0.12,-0.02,
0.148,0.01,0.16,1.00,0.02,-0.12,-0.02,
0.15,0.01,0.16,0.99,0.02,-0.12,-0.02,
0.15,0.01,0.16,0.99,0.03,-0.06,-0.03,
0.153,0.01,0.16,0.99,0.03,-0.06,-0.03,
0.156,0.01,0.16,0.99,0.03,-0.06,-0.03,
0.156,0.01,0.16,0.99,0.02,-0.06,0.03,
0.157,0.01,0.16,0.99,0.02,-0.06,0.03,
0.16,0.02,0.16,0.99,0.02,-0.06,0.03,
0.163,0.02,0.16,0.99,-0.01,-0.04,0.01,
0.163,0.01,0.16,0.99,-0.01,-0.04,0.01,
0.165,0.01,0.16,0.99,-0.01,-0.04,0.01,
0.166,0.01,0.16,0.99,0.04,-0.04,0.03,
0.168,0.02,0.16,0.98,0.04,-0.04,0.03,
0.17,0.01,0.16,0.97,0.04,-0.04,0.03,
0.17,0.01,0.16,0.97,0.03,-0.05,-0.01,
0.172,0.02,0.16,0.97,0.03,-0.05,-0.01,
0.175,0.02,0.17,0.96,0.03,-0.05,-0.01,
0.175,0.02,0.17,0.96,0.06,-0.08,-0.10,
0.177,0.02,0.16,0.95,0.06,-0.08,-0.10,
0.18,0.02,0.16,0.96,0.06,-0.08,-0.10,
0.18,0.02,0.16,0.96,0.11,-0.06,-0.22,
0.183,0.02,0.16,0.94,0.11,-0.06,-0.22,
0.185,0.02,0.16,0.94,0.11,-0.06,-0.22,
0.185,0.02,0.16,0.94,0.12,-0.11,-0.32,
0.187,0.02,0.16,0.92,0.12,-0.11,-0.32,
0.19,0.02,0.16,0.93,0.12,-0.11,-0.32,
0.19,0.02,0.16,0.93,0.15,-0.13,-0.46,
0.193,0.02,0.16,0.93,0.15,-0.13,-0.46,
0.196,0.02,0.16,0.92,0.15,-0.13,-0.46,
0.196,0.02,0.16,0.92,0.15,-0.14,-0.61,
0.198,0.02,0.16,0.91,0.15,-0.14,-0.61,
0.2,0.02,0.16,0.91,0.12,-0.14,-0.60,
0.201,0.02,0.17,0.90,0.12,-0.14,-0.60,
0.203,0.02,0.17,0.90,0.12,-0.14,-0.60,
0.205,0.02,0.17,0.89,0.12,-0.14,-0.60,
0.205,0.02,0.17,0.89,0.13,-0.11,-0.79,
0.207,0.01,0.17,0.89,0.13,-0.11,-0.79,
0.209,0.01,0.17,0.88,0.13,-0.11,-0.79,
0.211,0.01,0.17,0.88,0.14,-0.08,-0.86,
0.212,0.01,0.17,0.87,0.14,-0.08,-0.86,
0.215,0.01,0.17,0.88,0.14,-0.08,-0.86,
0.215,0.01,0.17,0.88,0.11,-0.07,-0.95,
0.217,0.01,0.17,0.87,0.11,-0.07,-0.95,
0.22,0.00,0.17,0.87,0.11,-0.07,-0.95,
0.221,0.00,0.17,0.87,0.08,-0.10,-1.05,
0.223,0.00,0.17,0.87,0.08,-0.10,-1.05,
0.225,0.00,0.17,0.86,0.08,-0.10,-1.05,
0.225,0.00,0.17,0.86,0.03,-0.12,-1.07,
0.227,-0.00,0.17,0.86,0.03,-0.12,-1.07,
0.229,0.00,0.17,0.86,0.03,-0.12,-1.07,
0.23,0.00,0.17,0.86,0.00,-0.10,-1.14,
0.233,-0.00,0.17,0.86,0.00,-0.10,-1.14,
0.235,-0.00,0.17,0.85,0.00,-0.10,-1.14,
0.235,-0.00,0.17,0.85,0.00,-0.07,-1.18,
0.238,-0.00,0.17,0.85,0.00,-0.07,-1.18,
0.241,-0.01,0.17,0.85,0.00,-0.07,-1.18,
0.241,-0.01,0.17,0.85,-0.00,-0.09,-1.18,
0.243,-0.00,0.17,0.85,-0.00,-0.09,-1.18,
0.249,-0.00,0.17,0.85,-0.00,-0.09,-1.18,
0.249,-0.00,0.17,0.85,-0.04,-0.08,-1.22,
0.25,-0.01,0.17,0.85,-0.04,-0.08,-1.22,
0.25,0.00,0.17,0.84,-0.04,-0.08,-1.22,
0.25,0.00,0.17,0.84,-0.02,-0.11,-1.25,
0.252,0.00,0.17,0.83,-0.02,-0.11,-1.25,
0.254,0.00,0.17,0.83,-0.02,-0.11,-1.28,
0.255,-0.00,0.16,0.83,-0.02,-0.11,-1.28,
0.257,0.00,0.16,0.83,-0.02,-0.11,-1.28,
0.26,0.01,0.16,0.82,-0.02,-0.11,-1.28,
0.26,0.01,0.16,0.82,0.01,-0.18,-1.36,
0.263,0.01,0.16,0.82,0.01,-0.18,-1.36,
0.264,0.02,0.16,0.82,0.01,-0.18,-1.36,
0.264,0.02,0.16,0.82,0.05,-0.21,-1.43,
0.267,0.03,0.16,0.81,0.05,-0.21,-1.43,
0.27,0.03,0.16,0.81,0.05,-0.21,-1.43,
0.27,0.03,0.16,0.81,0.15,-0.21,-1.47,
0.272,0.04,0.16,0.81,0.15,-0.21,-1.47,
0.275,0.05,0.16,0.81,0.15,-0.21,-1.47,
0.275,0.05,0.16,0.81,0.25,-0.24,-1.57,
0.276,0.06,0.15,0.81,0.25,-0.24,-1.57,
0.28,0.07,0.15,0.80,0.25,-0.24,-1.57,
0.28,0.07,0.15,0.80,0.36,-0.27,-1.55,
0.281,0.07,0.15,0.81,0.36,-0.27,-1.55,
0.284,0.08,0.15,0.81,0.36,-0.27,-1.55,
0.284,0.08,0.15,0.81,0.54,-0.29,-1.57,
0.287,0.08,0.15,0.82,0.54,-0.29,-1.57,
0.289,0.08,0.15,0.82,0.54,-0.29,-1.57,
0.289,0.08,0.15,0.82,0.64,-0.31,-1.50,
0.291,0.08,0.15,0.81,0.64,-0.31,-1.50,
0.295,0.08,0.15,0.81,0.64,-0.31,-1.50,
0.295,0.08,0.15,0.81,0.69,-0.34,-1.42,
0.296,0.09,0.15,0.82,0.69,-0.34,-1.42,
0.299,0.09,0.14,0.81,0.69,-0.34,-1.42,
0.3,0.09,0.14,0.81,0.70,-0.34,-1.45,
0.301,0.09,0.14,0.81,0.70,-0.34,-1.45,
0.303,0.10,0.14,0.81,0.70,-0.34,-1.45,
0.304,0.10,0.14,0.81,0.73,-0.37,-1.41,
0.306,0.10,0.14,0.81,0.73,-0.37,-1.41,
0.327,0.10,0.14,0.80,0.73,-0.37,-1.41,
0.327,0.10,0.14,0.80,0.78,-0.42,-1.45,
0.328,0.11,0.13,0.79,0.78,-0.42,-1.45,
0.328,0.11,0.13,0.78,0.78,-0.42,-1.45,
0.328,0.11,0.13,0.78,0.84,-0.46,-1.52,
0.328,0.12,0.12,0.78,0.84,-0.46,-1.52,
0.329,0.12,0.11,0.77,0.84,-0.46,-1.52,
0.329,0.12,0.11,0.77,0.92,-0.57,-1.64,
0.329,0.12,0.11,0.76,0.92,-0.57,-1.64,
0.329,0.12,0.10,0.74,0.92,-0.57,-1.64,
0.33,0.12,0.10,0.74,1.03,-0.67,-1.76,
0.332,0.11,0.10,0.74,1.03,-0.67,-1.76,
0.332,0.12,0.09,0.72,1.03,-0.67,-1.76,
0.332,0.12,0.09,0.72,1.07,-0.80,-1.96,
0.332,0.12,0.09,0.71,1.07,-0.80,-1.96,
0.336,0.12,0.08,0.70,1.07,-0.80,-1.96,
0.337,0.12,0.08,0.70,1.01,-0.91,-2.19,
0.337,0.11,0.07,0.69,1.01,-0.91,-2.19,
0.339,0.11,0.07,0.67,1.01,-0.91,-2.19,
0.339,0.11,0.07,0.67,1.03,-1.05,-2.44,
0.341,0.10,0.07,0.66,1.03,-1.05,-2.44,
0.345,0.10,0.06,0.65,1.03,-1.05,-2.44,
0.345,0.10,0.06,0.65,0.97,-1.16,-2.63,
0.346,0.09,0.06,0.64,0.97,-1.16,-2.63,
0.349,0.08,0.06,0.64,0.97,-1.16,-2.63,
0.349,0.08,0.06,0.64,0.89,-1.25,-2.81,
0.35,0.07,0.05,0.64,0.89,-1.25,-2.81,
0.353,0.07,0.06,0.63,0.89,-1.25,-2.81,
0.353,0.07,0.06,0.63,0.77,-1.33,-2.97,
0.356,0.05,0.06,0.62,0.77,-1.33,-2.97,
0.358,0.05,0.06,0.62,0.77,-1.33,-2.97,
0.358,0.05,0.06,0.62,0.65,-1.39,-3.04,
0.366,0.05,0.05,0.62,0.65,-1.39,-3.04,
0.367,0.04,0.06,0.61,0.65,-1.39,-3.04,
0.367,0.04,0.06,0.61,0.50,-1.39,-3.10,
0.368,0.03,0.06,0.62,0.50,-1.39,-3.10,
0.368,0.03,0.06,0.62,0.50,-1.39,-3.10,
0.369,0.03,0.06,0.62,0.44,-1.41,-3.14,
0.37,0.02,0.06,0.61,0.44,-1.41,-3.14,
0.373,0.02,0.06,0.62,0.44,-1.41,-3.14,
0.374,0.02,0.06,0.62,0.29,-1.38,-3.09,
0.376,0.02,0.06,0.62,0.29,-1.38,-3.09,
0.378,0.02,0.06,0.62,0.29,-1.38,-3.09,
0.379,0.02,0.06,0.62,0.21,-1.42,-3.08,
0.381,0.02,0.06,0.63,0.21,-1.42,-3.08,
0.383,0.02,0.07,0.63,0.21,-1.42,-3.08,
0.383,0.02,0.07,0.63,0.18,-1.40,-3.01,
0.386,0.03,0.07,0.63,0.18,-1.40,-3.01,
0.387,0.03,0.07,0.63,0.18,-1.40,-3.01,
0.388,0.03,0.07,0.63,0.21,-1.40,-2.97,
0.391,0.04,0.07,0.63,0.21,-1.40,-2.97,
0.393,0.04,0.07,0.64,0.21,-1.40,-2.97,
0.393,0.04,0.07,0.64,0.26,-1.37,-2.91,
0.395,0.05,0.07,0.64,0.26,-1.37,-2.91,
0.398,0.06,0.07,0.65,0.26,-1.37,-2.91,
0.398,0.06,0.07,0.65,0.35,-1.35,-2.83,
0.401,0.07,0.08,0.66,0.35,-1.35,-2.83,
0.404,0.07,0.08,0.67,0.35,-1.35,-2.83,
0.404,0.07,0.08,0.67,0.49,-1.34,-2.73,
0.406,0.09,0.08,0.68,0.49,-1.34,-2.73,
0.409,0.10,0.08,0.69,0.49,-1.34,-2.73,
0.409,0.10,0.08,0.69,0.60,-1.30,-2.53,
0.41,0.11,0.08,0.69,0.60,-1.30,-2.53,
0.413,0.12,0.08,0.70,0.60,-1.30,-2.53,
0.413,0.12,0.08,0.70,0.79,-1.29,-2.32,
0.415,0.12,0.07,0.71,0.79,-1.29,-2.32,
0.418,0.13,0.08,0.72,0.79,-1.29,-2.32,
0.418,0.13,0.08,0.72,0.94,-1.29,-2.17,
0.421,0.15,0.07,0.73,0.94,-1.29,-2.17,
0.423,0.15,0.07,0.73,1.04,-1.32,-1.96,
0.423,0.16,0.07,0.74,1.04,-1.32,-1.96,
0.426,0.16,0.07,0.75,1.04,-1.32,-1.96,
0.427,0.17,0.06,0.75,1.04,-1.32,-1.96,
0.428,0.17,0.06,0.75,1.22,-1.36,-1.77,
0.43,0.18,0.06,0.77,1.22,-1.36,-1.77,
0.433,0.18,0.06,0.78,1.22,-1.36,-1.77,
0.433,0.18,0.06,0.78,1.34,-1.41,-1.61,
0.436,0.18,0.05,0.78,1.34,-1.41,-1.61,
0.437,0.19,0.05,0.79,1.34,-1.41,-1.61,
0.438,0.19,0.05,0.79,1.41,-1.47,-1.39,
0.441,0.19,0.05,0.79,1.41,-1.47,-1.39,
0.443,0.19,0.05,0.80,1.41,-1.47,-1.39,
0.443,0.19,0.05,0.80,1.42,-1.53,-1.29,
0.445,0.19,0.05,0.80,1.42,-1.53,-1.29,
0.447,0.19,0.05,0.81,1.42,-1.53,-1.29,
0.448,0.19,0.05,0.81,1.40,-1.50,-1.17,
0.451,0.19,0.06,0.82,1.40,-1.50,-1.17,
0.453,0.19,0.06,0.82,1.40,-1.50,-1.17,
0.453,0.19,0.06,0.82,1.40,-1.47,-1.04,
0.455,0.19,0.07,0.82,1.40,-1.47,-1.04,
0.457,0.19,0.08,0.83,1.40,-1.47,-1.04,
0.458,0.19,0.08,0.83,1.40,-1.40,-0.94,
0.46,0.20,0.08,0.84,1.40,-1.40,-0.94,
0.466,0.20,0.10,0.85,1.40,-1.40,-0.94,
0.466,0.20,0.10,0.85,1.39,-1.23,-0.85,
0.466,0.20,0.11,0.85,1.39,-1.23,-0.85,
0.467,0.20,0.12,0.86,1.39,-1.23,-0.85,
0.467,0.20,0.12,0.86,1.40,-1.02,-0.70,
0.47,0.21,0.13,0.87,1.40,-1.02,-0.70,
0.472,0.21,0.15,0.87,1.40,-1.02,-0.70,
0.473,0.21,0.15,0.87,1.41,-0.76,-0.59,
0.475,0.21,0.17,0.88,1.41,-0.76,-0.59,
0.479,0.21,0.18,0.89,1.41,-0.76,-0.59,
0.48,0.21,0.18,0.89,1.48,-0.45,-0.44,
0.48,0.22,0.19,0.90,1.48,-0.45,-0.44,
0.482,0.22,0.20,0.89,1.48,-0.45,-0.44,
0.482,0.22,0.20,0.89,1.47,-0.14,-0.30,
0.485,0.22,0.21,0.90,1.47,-0.14,-0.30,
0.487,0.23,0.22,0.91,1.47,-0.14,-0.30,
0.488,0.23,0.22,0.91,1.55,0.12,-0.19,
0.49,0.23,0.23,0.91,1.55,0.12,-0.19,
0.493,0.24,0.24,0.92,1.55,0.12,-0.19,
0.493,0.24,0.24,0.92,1.62,0.35,-0.08,
0.495,0.24,0.25,0.92,1.62,0.35,-0.08,
0.498,0.24,0.25,0.92,1.68,0.57,0.00,
0.498,0.24,0.25,0.92,1.68,0.57,0.00,
0.5,0.24,0.26,0.92,1.68,0.57,0.00,
0.502,0.24,0.25,0.92,1.68,0.57,0.00,
0.503,0.24,0.25,0.92,1.74,0.74,0.05,
0.505,0.24,0.25,0.93,1.74,0.74,0.05,
0.507,0.23,0.25,0.92,1.74,0.74,0.05,
0.507,0.23,0.25,0.92,1.70,0.79,0.06,
0.509,0.23,0.25,0.92,1.70,0.79,0.06,
0.512,0.23,0.24,0.92,1.70,0.79,0.06,
0.512,0.23,0.24,0.92,1.65,0.78,0.07,
0.515,0.22,0.24,0.92,1.65,0.78,0.07,
0.517,0.21,0.24,0.93,1.65,0.78,0.07,
0.517,0.21,0.24,0.93,1.57,0.77,0.01,
0.519,0.21,0.23,0.93,1.57,0.77,0.01,
0.522,0.21,0.23,0.93,1.45,0.73,0.04,
0.522,0.21,0.22,0.94,1.45,0.73,0.04,
0.524,0.19,0.22,0.94,1.45,0.73,0.04,
0.526,0.19,0.21,0.95,1.45,0.73,0.04,
0.527,0.19,0.21,0.95,1.32,0.65,0.12,
0.529,0.17,0.20,0.96,1.32,0.65,0.12,
0.531,0.16,0.19,0.97,1.32,0.65,0.12,
0.531,0.16,0.19,0.97,1.13,0.55,0.26,
0.535,0.16,0.18,0.98,1.13,0.55,0.26,
0.537,0.15,0.17,0.98,1.13,0.55,0.26,
0.537,0.15,0.17,0.98,0.86,0.43,0.43,
0.539,0.14,0.17,0.99,0.86,0.43,0.43,
0.541,0.14,0.16,1.00,0.86,0.43,0.43,
0.541,0.14,0.16,1.00,0.69,0.31,0.61,
0.547,0.13,0.14,1.00,0.69,0.31,0.61,
0.547,0.13,0.13,1.01,0.69,0.31,0.61,
0.547,0.13,0.13,1.01,0.53,0.18,0.72,
0.549,0.12,0.13,1.01,0.53,0.18,0.72,
0.551,0.12,0.12,1.01,0.53,0.18,0.72,
0.552,0.12,0.12,1.01,0.38,0.01,0.78,
0.554,0.11,0.11,1.01,0.38,0.01,0.78,
0.557,0.11,0.10,1.01,0.38,0.01,0.78,
0.557,0.11,0.10,1.01,0.25,-0.11,0.87,
0.559,0.11,0.09,1.02,0.25,-0.11,0.87,
0.562,0.10,0.08,1.02,0.25,-0.11,0.87,
0.563,0.10,0.08,1.02,0.17,-0.23,0.86,
0.563,0.10,0.09,1.01,0.17,-0.23,0.86,
0.566,0.10,0.08,1.02,0.17,-0.23,0.86,
0.566,0.10,0.08,1.02,0.06,-0.36,0.91,
0.568,0.10,0.07,1.01,0.06,-0.36,0.91,
0.572,0.09,0.07,1.01,0.06,-0.36,0.91,
0.572,0.09,0.07,1.01,-0.04,-0.37,0.88,
0.574,0.09,0.07,1.00,-0.04,-0.37,0.88,
0.577,0.09,0.07,1.00,-0.04,-0.37,0.88,
0.577,0.09,0.07,1.00,-0.12,-0.44,0.80,
0.578,0.09,0.07,0.99,-0.12,-0.44,0.80,
0.581,0.09,0.07,0.98,-0.12,-0.44,0.80,
0.581,0.09,0.07,0.98,-0.21,-0.44,0.71,
0.585,0.08,0.07,0.97,-0.21,-0.44,0.71,
0.586,0.09,0.08,0.96,-0.21,-0.44,0.71,
0.586,0.09,0.08,0.96,-0.19,-0.40,0.57,
0.589,0.09,0.08,0.96,-0.19,-0.40,0.57,
0.591,0.09,0.09,0.95,-0.19,-0.40,0.57,
0.592,0.09,0.09,0.95,-0.26,-0.32,0.40,
0.594,0.10,0.10,0.95,-0.26,-0.32,0.40,
0.596,0.10,0.11,0.94,-0.26,-0.32,0.40,
0.597,0.10,0.11,0.94,-0.23,-0.16,0.30,
0.599,0.11,0.11,0.93,-0.23,-0.16,0.30,
0.601,0.12,0.11,0.93,-0.23,-0.16,0.30,
0.601,0.12,0.11,0.93,-0.14,0.01,0.15,
0.604,0.13,0.12,0.92,-0.14,0.01,0.15,
0.606,0.13,0.12,0.92,-0.14,0.01,0.15,
0.606,0.13,0.12,0.92,0.01,0.13,0.01,
0.609,0.14,0.13,0.92,0.01,0.13,0.01,
0.611,0.15,0.13,0.92,0.01,0.13,0.01,
0.611,0.15,0.13,0.92,0.09,0.27,-0.06,
0.613,0.15,0.13,0.92,0.09,0.27,-0.06,
0.615,0.16,0.14,0.92,0.09,0.27,-0.06,
0.616,0.16,0.14,0.92,0.24,0.38,-0.08,
0.619,0.17,0.14,0.93,0.24,0.38,-0.08,
0.621,0.17,0.14,0.93,0.24,0.38,-0.08,
0.621,0.17,0.14,0.93,0.32,0.48,-0.06,
0.624,0.17,0.15,0.93,0.32,0.48,-0.06,
0.626,0.17,0.15,0.94,0.32,0.48,-0.06,
0.626,0.17,0.15,0.94,0.42,0.57,0.02,
0.629,0.17,0.15,0.95,0.42,0.57,0.02,
0.63,0.17,0.14,0.96,0.42,0.57,0.02,
0.631,0.17,0.14,0.96,0.44,0.70,0.08,
0.633,0.17,0.15,0.96,0.44,0.70,0.08,
0.636,0.16,0.14,0.98,0.44,0.70,0.08,
0.636,0.16,0.14,0.98,0.39,0.70,0.25,
0.639,0.15,0.13,0.99,0.39,0.70,0.25,
0.641,0.15,0.13,1.00,0.39,0.70,0.25,
0.641,0.15,0.13,1.00,0.27,0.74,0.44,
0.643,0.14,0.12,1.01,0.27,0.74,0.44,
0.647,0.13,0.10,1.02,0.27,0.74,0.44,
0.647,0.13,0.10,1.02,0.10,0.65,0.64,
0.648,0.12,0.09,1.04,0.10,0.65,0.64,
0.651,0.11,0.09,1.05,0.10,0.65,0.64,
0.651,0.11,0.09,1.05,-0.09,0.51,0.83,
0.653,0.11,0.07,1.05,-0.09,0.51,0.83,
0.656,0.09,0.06,1.06,-0.09,0.51,0.83,
0.658,0.09,0.06,1.06,-0.28,0.33,1.12,
0.658,0.08,0.05,1.07,-0.28,0.33,1.12,
0.661,0.08,0.04,1.09,-0.28,0.33,1.12,
0.661,0.08,0.04,1.09,-0.48,0.17,1.26,
0.666,0.07,0.03,1.09,-0.48,0.17,1.26,
0.667,0.06,0.02,1.10,-0.48,0.17,1.26,
0.667,0.06,0.02,1.10,-0.72,-0.01,1.45,
0.668,0.05,0.01,1.10,-0.72,-0.01,1.45,
0.67,0.05,0.01,1.10,-0.90,-0.16,1.63,
0.67,0.05,0.00,1.11,-0.90,-0.16,1.63,
0.673,0.04,0.00,1.11,-0.90,-0.16,1.63,
0.675,0.03,-0.00,1.12,-0.90,-0.16,1.63,
0.676,0.03,-0.00,1.12,-1.10,-0.29,1.71,
0.677,0.03,-0.00,1.12,-1.10,-0.29,1.71,
0.681,0.04,-0.01,1.12,-1.10,-0.29,1.71,
0.681,0.04,-0.01,1.12,-1.26,-0.30,1.85,
0.683,0.04,-0.00,1.13,-1.26,-0.30,1.85,
0.686,0.05,-0.00,1.13,-1.26,-0.30,1.85,
0.686,0.05,-0.00,1.13,-1.27,-0.31,1.86,
0.687,0.05,-0.00,1.14,-1.27,-0.31,1.86,
0.69,0.06,-0.00,1.15,-1.27,-0.31,1.86,
0.691,0.06,-0.00,1.15,-1.19,-0.24,1.97,
0.693,0.08,0.00,1.15,-1.19,-0.24,1.97,
0.696,0.08,0.01,1.16,-1.19,-0.24,1.97,
0.697,0.08,0.01,1.16,-1.11,-0.18,2.08,
0.698,0.09,0.01,1.17,-1.11,-0.18,2.08,
0.7,0.10,0.01,1.18,-1.11,-0.18,2.08,
0.7,0.10,0.01,1.18,-0.93,-0.06,2.17,
0.702,0.11,0.01,1.18,-0.93,-0.06,2.17,
0.704,0.12,0.01,1.18,-0.93,-0.06,2.17,
0.706,0.12,0.01,1.18,-0.79,0.03,2.39,
0.707,0.12,0.01,1.19,-0.79,0.03,2.39,
0.71,0.13,0.01,1.19,-0.79,0.03,2.39,
0.711,0.13,0.01,1.19,-0.59,0.08,2.44,
0.713,0.14,0.01,1.19,-0.59,0.08,2.44,
0.714,0.14,0.01,1.19,-0.59,0.08,2.44,
0.716,0.14,0.01,1.19,-0.49,0.13,2.54,
0.717,0.15,0.01,1.19,-0.49,0.13,2.54,
0.719,0.15,0.01,1.19,-0.37,0.17,2.53,
0.72,0.15,0.00,1.19,-0.37,0.17,2.53,
0.722,0.15,0.01,1.19,-0.37,0.17,2.53,
0.724,0.15,-0.00,1.19,-0.37,0.17,2.53,
0.725,0.15,-0.00,1.19,-0.27,0.17,2.54,
0.727,0.15,-0.00,1.19,-0.27,0.17,2.54,
0.731,0.15,-0.00,1.19,-0.27,0.17,2.54,
0.731,0.15,-0.00,1.19,-0.33,0.18,2.54,
0.733,0.14,-0.01,1.19,-0.33,0.18,2.54,
0.734,0.14,-0.01,1.19,-0.33,0.18,2.54,
0.736,0.14,-0.01,1.19,-0.38,0.18,2.50,
0.737,0.13,-0.01,1.19,-0.38,0.18,2.50,
0.739,0.13,-0.01,1.19,-0.38,0.18,2.50,
0.739,0.13,-0.01,1.19,-0.43,0.19,2.49,
0.742,0.13,-0.01,1.19,-0.43,0.19,2.49,
0.744,0.13,-0.01,1.19,-0.43,0.19,2.49,
0.748,0.13,-0.01,1.19,-0.53,0.20,2.49,
0.748,0.13,-0.01,1.20,-0.53,0.20,2.49,
0.749,0.14,-0.01,1.20,-0.53,0.20,2.49,
0.749,0.14,-0.01,1.20,-0.56,0.20,2.49,
0.752,0.14,-0.00,1.20,-0.56,0.20,2.49,
0.754,0.15,-0.01,1.21,-0.56,0.20,2.49,
0.754,0.15,-0.01,1.21,-0.55,0.28,2.58,
0.757,0.15,-0.01,1.22,-0.55,0.28,2.58,
0.759,0.15,-0.02,1.21,-0.55,0.28,2.58,
0.759,0.15,-0.02,1.21,-0.50,0.33,2.64,
0.763,0.15,-0.02,1.22,-0.50,0.33,2.64,
0.765,0.16,-0.02,1.22,-0.50,0.33,2.64,
0.765,0.16,-0.02,1.22,-0.48,0.29,2.71,
0.766,0.16,-0.03,1.22,-0.48,0.29,2.71,
0.769,0.17,-0.03,1.23,-0.48,0.29,2.71,
0.77,0.17,-0.03,1.23,-0.44,0.25,2.76,
0.771,0.17,-0.03,1.23,-0.44,0.25,2.76,
0.775,0.18,-0.04,1.23,-0.44,0.25,2.76,
0.775,0.18,-0.04,1.23,-0.35,0.22,2.82,
0.776,0.18,-0.05,1.23,-0.35,0.22,2.82,
0.784,0.18,-0.06,1.24,-0.35,0.22,2.82,
0.785,0.18,-0.06,1.24,-0.30,0.20,2.83,
0.785,0.18,-0.06,1.24,-0.30,0.20,2.83,
0.785,0.18,-0.07,1.25,-0.30,0.20,2.83,
0.785,0.18,-0.07,1.25,-0.26,0.04,2.91,
0.787,0.17,-0.07,1.26,-0.26,0.04,2.91,
0.789,0.17,-0.08,1.26,-0.26,0.04,2.91,
0.789,0.17,-0.08,1.26,-0.29,-0.03,3.00,
0.791,0.16,-0.08,1.27,-0.29,-0.03,3.00,
0.793,0.16,-0.08,1.27,-0.29,-0.03,3.00,
0.794,0.16,-0.08,1.27,-0.38,-0.11,3.13,
0.797,0.15,-0.08,1.28,-0.38,-0.11,3.13,
0.799,0.15,-0.08,1.28,-0.38,-0.11,3.13,
0.8,0.15,-0.08,1.28,-0.51,-0.11,3.25,
0.801,0.14,-0.08,1.29,-0.51,-0.11,3.25,
0.803,0.13,-0.08,1.30,-0.51,-0.11,3.25,
0.804,0.13,-0.08,1.30,-0.60,-0.10,3.33,
0.806,0.13,-0.08,1.30,-0.60,-0.10,3.33,
0.808,0.13,-0.08,1.30,-0.60,-0.10,3.33,
0.809,0.13,-0.08,1.30,-0.73,-0.04,3.44,
0.811,0.13,-0.08,1.30,-0.73,-0.04,3.44,
0.813,0.12,-0.07,1.30,-0.73,-0.04,3.44,
0.814,0.12,-0.07,1.30,-0.82,0.01,3.52,
0.816,0.12,-0.07,1.31,-0.82,0.01,3.52,
0.819,0.12,-0.08,1.31,-0.82,0.01,3.52,
0.82,0.12,-0.08,1.31,-0.86,0.11,3.53,
0.823,0.13,-0.07,1.30,-0.86,0.11,3.53,
0.824,0.14,-0.07,1.30,-0.86,0.11,3.53,
0.825,0.14,-0.07,1.30,-0.86,0.14,3.54,
0.826,0.13,-0.07,1.30,-0.86,0.14,3.54,
0.828,0.14,-0.07,1.29,-0.86,0.14,3.54,
0.832,0.14,-0.07,1.29,-0.79,0.25,3.50,
0.833,0.14,-0.07,1.29,-0.79,0.25,3.50,
0.834,0.15,-0.06,1.28,-0.79,0.25,3.50,
0.834,0.15,-0.06,1.28,-0.75,0.28,3.42,
0.836,0.16,-0.06,1.27,-0.75,0.28,3.42,
0.838,0.16,-0.06,1.28,-0.75,0.28,3.42,
0.838,0.16,-0.06,1.28,-0.62,0.34,3.33,
0.841,0.16,-0.07,1.27,-0.62,0.34,3.33,
0.844,0.17,-0.06,1.25,-0.62,0.34,3.33,
0.845,0.17,-0.06,1.25,-0.54,0.38,3.20,
0.847,0.17,-0.06,1.25,-0.54,0.38,3.20,
0.849,0.18,-0.06,1.24,-0.54,0.38,3.20,
0.849,0.18,-0.06,1.24,-0.44,0.36,3.04,
0.851,0.18,-0.06,1.24,-0.44,0.36,3.04,
0.854,0.19,-0.07,1.23,-0.44,0.36,3.04,
0.854,0.19,-0.07,1.23,-0.38,0.43,2.91,
0.856,0.19,-0.07,1.23,-0.38,0.43,2.91,
0.858,0.19,-0.08,1.22,-0.38,0.43,2.91,
0.858,0.19,-0.08,1.22,-0.29,0.40,2.83,
0.861,0.19,-0.08,1.21,-0.29,0.40,2.83,
0.864,0.18,-0.09,1.20,-0.29,0.40,2.83,
0.864,0.18,-0.09,1.20,-0.22,0.31,2.68,
0.866,0.18,-0.09,1.19,-0.22,0.31,2.68,
0.869,0.18,-0.09,1.18,-0.22,0.31,2.68,
0.869,0.18,-0.09,1.18,-0.27,0.19,2.50,
0.871,0.17,-0.10,1.18,-0.27,0.19,2.50,
0.873,0.16,-0.10,1.16,-0.27,0.19,2.50,
0.874,0.16,-0.10,1.16,-0.31,0.11,2.30,
0.876,0.16,-0.11,1.15,-0.31,0.11,2.30,
0.878,0.15,-0.11,1.14,-0.31,0.11,2.30,
0.879,0.15,-0.11,1.14,-0.42,0.03,2.11,
0.884,0.14,-0.11,1.13,-0.42,0.03,2.11,
0.885,0.14,-0.12,1.12,-0.42,0.03,2.11,
0.885,0.14,-0.12,1.12,-0.51,-0.05,1.89,
0.885,0.13,-0.12,1.11,-0.51,-0.05,1.89,
0.888,0.12,-0.12,1.10,-0.51,-0.05,1.89,
0.888,0.12,-0.12,1.10,-0.65,-0.08,1.68,
0.89,0.11,-0.12,1.09,-0.65,-0.08,1.68,
0.893,0.11,-0.13,1.08,-0.65,-0.08,1.68,
0.894,0.11,-0.13,1.08,-0.77,-0.15,1.44,
0.896,0.11,-0.13,1.08,-0.77,-0.15,1.44,
0.898,0.10,-0.13,1.08,-0.77,-0.15,1.44,
0.899,0.10,-0.13,1.08,-0.87,-0.17,1.28,
0.901,0.09,-0.13,1.07,-0.87,-0.17,1.28,
0.903,0.08,-0.13,1.08,-0.87,-0.17,1.28,
0.903,0.08,-0.13,1.08,-0.97,-0.22,1.21,
0.906,0.08,-0.13,1.08,-0.97,-0.22,1.21,
0.908,0.08,-0.13,1.09,-0.97,-0.22,1.21,
0.908,0.08,-0.13,1.09,-1.13,-0.17,1.16,
0.911,0.08,-0.13,1.09,-1.13,-0.17,1.16,
0.913,0.07,-0.12,1.11,-1.13,-0.17,1.16,
0.913,0.07,-0.12,1.11,-1.17,-0.17,1.25,
0.915,0.07,-0.12,1.12,-1.17,-0.17,1.25,
0.918,0.07,-0.12,1.13,-1.17,-0.17,1.25,
0.918,0.07,-0.12,1.13,-1.23,-0.12,1.41,
0.92,0.07,-0.13,1.14,-1.23,-0.12,1.41,
0.923,0.08,-0.13,1.14,-1.23,-0.12,1.41,
0.923,0.08,-0.13,1.14,-1.25,-0.07,1.62,
0.926,0.08,-0.13,1.15,-1.25,-0.07,1.62,
0.928,0.09,-0.13,1.16,-1.25,-0.07,1.62,
0.928,0.09,-0.13,1.16,-1.22,-0.12,1.77,
0.932,0.10,-0.13,1.17,-1.22,-0.12,1.77,
0.932,0.10,-0.14,1.17,-1.22,-0.12,1.77,
0.933,0.10,-0.14,1.17,-1.12,-0.13,1.91,
0.936,0.11,-0.14,1.18,-1.12,-0.13,1.91,
0.938,0.12,-0.14,1.19,-1.12,-0.13,1.91,
0.938,0.12,-0.14,1.19,-0.96,-0.18,2.07,
0.94,0.12,-0.15,1.20,-0.96,-0.18,2.07,
0.942,0.12,-0.15,1.21,-0.96,-0.18,2.07,
0.943,0.12,-0.15,1.21,-0.83,-0.21,2.22,
0.945,0.12,-0.15,1.21,-0.83,-0.21,2.22,
0.948,0.12,-0.15,1.22,-0.83,-0.21,2.22,
0.949,0.12,-0.15,1.22,-0.78,-0.28,2.36,
0.952,0.13,-0.14,1.22,-0.78,-0.28,2.36,
0.952,0.13,-0.14,1.22,-0.78,-0.28,2.36,
0.953,0.13,-0.14,1.22,-0.76,-0.27,2.50,
0.956,0.13,-0.13,1.22,-0.76,-0.27,2.50,
0.957,0.14,-0.13,1.23,-0.76,-0.27,2.50,
0.958,0.14,-0.13,1.23,-0.69,-0.21,2.52,
0.96,0.14,-0.12,1.22,-0.69,-0.21,2.52,
0.963,0.15,-0.12,1.22,-0.69,-0.21,2.52,
0.963,0.15,-0.12,1.22,-0.61,-0.14,2.54,
0.965,0.15,-0.12,1.22,-0.61,-0.14,2.54,
0.967,0.15,-0.12,1.22,-0.51,-0.01,2.49,
0.967,0.16,-0.11,1.22,-0.51,-0.01,2.49,
0.969,0.16,-0.10,1.22,-0.51,-0.01,2.49,
0.972,0.17,-0.10,1.22,-0.51,-0.01,2.49,
0.972,0.17,-0.10,1.22,-0.42,0.05,2.51,
0.974,0.18,-0.09,1.22,-0.42,0.05,2.51,
0.977,0.18,-0.09,1.22,-0.42,0.05,2.51,
0.977,0.18,-0.09,1.22,-0.28,0.18,2.50,
0.983,0.19,-0.08,1.22,-0.28,0.18,2.50,
0.983,0.20,-0.07,1.21,-0.28,0.18,2.50,
0.983,0.20,-0.07,1.21,-0.13,0.29,2.43,
0.984,0.22,-0.07,1.22,-0.13,0.29,2.43,
0.988,0.22,-0.06,1.22,-0.13,0.29,2.43,
0.988,0.22,-0.06,1.22,0.02,0.43,2.42,
0.989,0.23,-0.06,1.22,0.02,0.43,2.42,
0.992,0.23,-0.06,1.22,0.25,0.50,2.42,
0.992,0.24,-0.06,1.21,0.25,0.50,2.42,
0.994,0.24,-0.05,1.22,0.25,0.50,2.42,
1.001,0.25,-0.05,1.22,0.25,0.50,2.42,
1.001,0.25,-0.05,1.22,0.42,0.56,2.40,
1.002,0.25,-0.05,1.23,0.42,0.56,2.40,
1.002,0.25,-0.05,1.22,0.42,0.56,2.40,
1.002,0.25,-0.05,1.22,0.53,0.66,2.45,
1.004,0.26,-0.05,1.24,0.53,0.66,2.45,
1.007,0.26,-0.05,1.25,0.53,0.66,2.45,
1.007,0.26,-0.05,1.25,0.57,0.69,2.49,
1.01,0.25,-0.05,1.26,0.57,0.69,2.49,
1.011,0.25,-0.05,1.27,0.57,0.69,2.49,
1.012,0.25,-0.05,1.27,0.62,0.66,2.65,
1.014,0.25,-0.05,1.29,0.62,0.66,2.65,
1.016,0.25,-0.05,1.30,0.62,0.66,2.65,
1.017,0.25,-0.05,1.30,0.59,0.69,2.84,
1.019,0.25,-0.05,1.32,0.59,0.69,2.84,
1.021,0.24,-0.06,1.33,0.59,0.69,2.84,
1.022,0.24,-0.06,1.33,0.52,0.69,3.15,
1.024,0.24,-0.06,1.35,0.52,0.69,3.15,
1.026,0.24,-0.06,1.36,0.52,0.69,3.15,
1.027,0.24,-0.06,1.36,0.49,0.63,3.45,
1.029,0.23,-0.06,1.37,0.49,0.63,3.45,
1.032,0.23,-0.07,1.38,0.49,0.63,3.45,
1.033,0.23,-0.07,1.38,0.42,0.56,3.72,
1.034,0.23,-0.07,1.39,0.42,0.56,3.72,
1.036,0.23,-0.07,1.40,0.42,0.56,3.72,
1.036,0.23,-0.07,1.40,0.37,0.52,3.91,
1.039,0.23,-0.08,1.40,0.37,0.52,3.91,
1.041,0.23,-0.08,1.40,0.34,0.44,4.07,
1.042,0.23,-0.08,1.41,0.34,0.44,4.07,
1.043,0.23,-0.08,1.41,0.34,0.44,4.07,
1.049,0.24,-0.09,1.41,0.34,0.44,4.07,
1.05,0.24,-0.09,1.41,0.35,0.34,4.19,
1.05,0.24,-0.09,1.41,0.35,0.34,4.19,
1.051,0.24,-0.09,1.41,0.35,0.34,4.19,
1.052,0.24,-0.09,1.41,0.41,0.29,4.22,
1.054,0.24,-0.09,1.41,0.41,0.29,4.22,
1.056,0.24,-0.09,1.40,0.41,0.29,4.22,
1.056,0.24,-0.09,1.40,0.43,0.25,4.19,
1.058,0.25,-0.09,1.39,0.43,0.25,4.19,
1.062,0.25,-0.09,1.39,0.47,0.24,4.12,
1.062,0.25,-0.08,1.39,0.47,0.24,4.12,
1.064,0.26,-0.08,1.38,0.47,0.24,4.12,
1.067,0.26,-0.08,1.36,0.47,0.24,4.12,
1.067,0.26,-0.08,1.36,0.57,0.24,3.96,
1.068,0.27,-0.07,1.35,0.57,0.24,3.96,
1.072,0.27,-0.07,1.35,0.57,0.24,3.96,
1.072,0.27,-0.07,1.35,0.68,0.27,3.75,
1.073,0.27,-0.07,1.33,0.68,0.27,3.75,
1.078,0.26,-0.06,1.32,0.68,0.27,3.75,
1.078,0.26,-0.06,1.32,0.78,0.29,3.51,
1.079,0.27,-0.06,1.31,0.78,0.29,3.51,
1.081,0.26,-0.05,1.30,0.78,0.29,3.51,
1.082,0.26,-0.05,1.30,0.81,0.33,3.26,
1.083,0.26,-0.05,1.29,0.81,0.33,3.26,
1.086,0.26,-0.05,1.27,0.81,0.33,3.26,
1.086,0.26,-0.05,1.27,0.78,0.40,3.03,
1.088,0.26,-0.04,1.26,0.78,0.40,3.03,
1.091,0.26,-0.04,1.26,0.73,0.44,2.79,
1.091,0.25,-0.04,1.25,0.73,0.44,2.79,
1.093,0.25,-0.04,1.24,0.73,0.44,2.79,
1.095,0.25,-0.03,1.24,0.73,0.44,2.79,
1.096,0.25,-0.03,1.24,0.74,0.49,2.55,
1.102,0.24,-0.03,1.23,0.74,0.49,2.55,
1.103,0.24,-0.03,1.22,0.74,0.49,2.55,
1.103,0.24,-0.03,1.22,0.69,0.47,2.37,
1.103,0.24,-0.03,1.20,0.69,0.47,2.37,
1.105,0.23,-0.03,1.20,0.69,0.47,2.37,
1.106,0.23,-0.03,1.20,0.64,0.45,2.18,
1.108,0.22,-0.04,1.19,0.64,0.45,2.18,
1.11,0.22,-0.04,1.19,0.64,0.45,2.18,
1.111,0.22,-0.04,1.19,0.61,0.40,1.96,
1.114,0.22,-0.04,1.18,0.61,0.40,1.96,
1.115,0.21,-0.05,1.18,0.61,0.40,1.96,
1.116,0.21,-0.05,1.18,0.51,0.29,1.84,
1.118,0.21,-0.05,1.17,0.51,0.29,1.84,
1.12,0.20,-0.05,1.16,0.51,0.29,1.84,
1.121,0.20,-0.05,1.16,0.46,0.22,1.75,
1.123,0.20,-0.05,1.16,0.46,0.22,1.75,
1.125,0.19,-0.05,1.15,0.46,0.22,1.75,
1.125,0.19,-0.05,1.15,0.40,0.16,1.60,
1.128,0.18,-0.05,1.14,0.40,0.16,1.60,
1.131,0.17,-0.05,1.13,0.40,0.16,1.60,
1.132,0.17,-0.05,1.13,0.28,0.09,1.47,
1.134,0.17,-0.04,1.13,0.28,0.09,1.47,
1.135,0.16,-0.04,1.12,0.28,0.09,1.47,
1.135,0.16,-0.04,1.12,0.13,0.09,1.27,
1.138,0.15,-0.05,1.11,0.13,0.09,1.27,
1.14,0.15,-0.05,1.11,0.03,0.08,1.16,
1.141,0.15,-0.05,1.11,0.03,0.08,1.16,
1.142,0.15,-0.04,1.10,0.03,0.08,1.16,
1.145,0.15,-0.04,1.11,0.03,0.08,1.16,
1.145,0.15,-0.04,1.11,-0.05,0.02,1.01,
1.148,0.14,-0.03,1.10,-0.05,0.02,1.01,
1.151,0.14,-0.03,1.10,-0.05,0.02,1.01,
1.154,0.14,-0.03,1.10,-0.10,0.04,0.96,
1.154,0.14,-0.02,1.11,-0.10,0.04,0.96,
1.155,0.14,-0.02,1.10,-0.10,0.04,0.96,
1.155,0.14,-0.02,1.10,-0.17,0.11,0.92,
1.158,0.13,-0.02,1.11,-0.17,0.11,0.92,
1.16,0.13,-0.02,1.11,-0.17,0.11,0.92,
1.16,0.13,-0.02,1.11,-0.17,0.15,0.95,
1.163,0.14,-0.01,1.10,-0.17,0.15,0.95,
1.166,0.14,-0.01,1.11,-0.17,0.15,0.95,
1.166,0.14,-0.01,1.11,-0.22,0.16,0.95,
1.168,0.14,-0.01,1.11,-0.22,0.16,0.95,
1.171,0.15,-0.01,1.11,-0.22,0.16,0.95,
1.171,0.15,-0.01,1.11,-0.15,0.18,0.96,
1.172,0.15,-0.01,1.10,-0.15,0.18,0.96,
1.175,0.14,-0.01,1.11,-0.15,0.18,0.96,
1.176,0.14,-0.01,1.11,-0.09,0.17,0.97,
1.177,0.14,-0.01,1.10,-0.09,0.17,0.97,
1.18,0.14,-0.01,1.10,-0.09,0.17,0.97,
1.181,0.14,-0.01,1.10,-0.14,0.16,0.91,
1.183,0.14,-0.01,1.10,-0.14,0.16,0.91,
1.185,0.14,-0.01,1.09,-0.14,0.16,0.91,
1.185,0.14,-0.01,1.09,-0.19,0.15,0.90,
1.187,0.14,-0.02,1.09,-0.19,0.15,0.90,
1.19,0.14,-0.02,1.09,-0.17,0.07,0.83,
1.19,0.15,-0.02,1.08,-0.17,0.07,0.83,
1.192,0.15,-0.02,1.07,-0.17,0.07,0.83,
1.195,0.15,-0.03,1.07,-0.17,0.07,0.83,
1.195,0.15,-0.03,1.07,-0.14,-0.04,0.71,
1.198,0.14,-0.03,1.06,-0.14,-0.04,0.71,
1.201,0.14,-0.04,1.06,-0.14,-0.04,0.71,
1.201,0.14,-0.04,1.06,-0.10,-0.17,0.59,
1.203,0.13,-0.04,1.05,-0.10,-0.17,0.59,
1.205,0.13,-0.04,1.04,-0.10,-0.17,0.59,
1.205,0.13,-0.04,1.04,-0.17,-0.25,0.48,
1.207,0.12,-0.04,1.04,-0.17,-0.25,0.48,
1.21,0.12,-0.05,1.03,-0.17,-0.25,0.48,
1.21,0.12,-0.05,1.03,-0.25,-0.34,0.35,
1.213,0.12,-0.05,1.02,-0.25,-0.34,0.35,
1.217,0.12,-0.05,1.02,-0.25,-0.34,0.35,
1.218,0.12,-0.05,1.02,-0.32,-0.42,0.22,
1.218,0.11,-0.05,1.01,-0.32,-0.42,0.22,
1.219,0.11,-0.05,1.01,-0.32,-0.42,0.22,
1.219,0.11,-0.05,1.01,-0.37,-0.51,0.06,
1.223,0.10,-0.05,1.00,-0.37,-0.51,0.06,
1.225,0.10,-0.06,1.00,-0.37,-0.51,0.06,
1.225,0.10,-0.06,1.00,-0.45,-0.57,-0.03,
1.227,0.09,-0.05,1.00,-0.45,-0.57,-0.03,
1.23,0.09,-0.05,1.00,-0.45,-0.57,-0.03,
1.23,0.09,-0.05,1.00,-0.54,-0.61,-0.11,
1.232,0.09,-0.05,0.99,-0.54,-0.61,-0.11,
1.234,0.08,-0.04,0.99,-0.54,-0.61,-0.11,
1.235,0.08,-0.04,0.99,-0.67,-0.64,-0.14,
1.237,0.08,-0.04,0.98,-0.67,-0.64,-0.14,
1.24,0.08,-0.04,0.98,-0.67,-0.61,-0.23,
1.24,0.08,-0.04,0.98,-0.67,-0.61,-0.23,
1.242,0.08,-0.03,0.98,-0.67,-0.61,-0.23,
1.245,0.07,-0.03,0.98,-0.67,-0.61,-0.23,
1.245,0.07,-0.03,0.98,-0.74,-0.56,-0.31,
1.247,0.07,-0.02,0.97,-0.74,-0.56,-0.31,
1.249,0.08,-0.02,0.98,-0.74,-0.56,-0.31,
1.25,0.08,-0.02,0.98,-0.76,-0.47,-0.30,
1.252,0.08,-0.01,0.97,-0.76,-0.47,-0.30,
1.254,0.09,-0.01,0.97,-0.76,-0.47,-0.30,
1.254,0.09,-0.01,0.97,-0.75,-0.42,-0.37,
1.257,0.09,-0.01,0.97,-0.75,-0.42,-0.37,
1.26,0.09,-0.00,0.97,-0.75,-0.42,-0.37,
1.26,0.09,-0.00,0.97,-0.66,-0.33,-0.39,
1.262,0.09,-0.00,0.97,-0.66,-0.33,-0.39,
1.266,0.09,-0.00,0.97,-0.60,-0.30,-0.40,
1.266,0.10,0.00,0.97,-0.60,-0.30,-0.40,
1.267,0.10,0.00,0.97,-0.60,-0.30,-0.40,
1.269,0.11,-0.00,0.97,-0.60,-0.30,-0.40,
1.269,0.11,-0.00,0.97,-0.54,-0.27,-0.42,
1.272,0.11,-0.00,0.97,-0.54,-0.27,-0.42,
1.275,0.11,0.00,0.98,-0.54,-0.27,-0.42,
1.275,0.11,0.00,0.98,-0.46,-0.27,-0.42,
1.277,0.12,0.01,0.98,-0.46,-0.27,-0.42,
1.279,0.12,0.01,0.99,-0.46,-0.27,-0.42,
1.28,0.12,0.01,0.99,-0.34,-0.28,-0.36,
1.283,0.12,0.01,0.99,-0.34,-0.28,-0.36,
1.284,0.12,0.00,0.99,-0.34,-0.28,-0.36,
1.284,0.12,0.00,0.99,-0.25,-0.25,-0.28,
1.287,0.11,-0.00,1.00,-0.25,-0.25,-0.28,
1.29,0.11,-0.00,1.00,-0.25,-0.28,-0.22,
1.29,0.11,-0.00,1.00,-0.25,-0.28,-0.22,
1.292,0.10,-0.01,1.01,-0.25,-0.28,-0.22,
1.294,0.10,-0.01,1.01,-0.25,-0.28,-0.22,
1.295,0.10,-0.01,1.01,-0.34,-0.34,-0.10,
1.297,0.09,-0.02,1.00,-0.34,-0.34,-0.10,
1.299,0.08,-0.02,1.01,-0.34,-0.34,-0.10,
1.299,0.08,-0.02,1.01,-0.41,-0.43,-0.06,
1.301,0.08,-0.02,1.02,-0.41,-0.43,-0.06,
1.304,0.07,-0.02,1.01,-0.41,-0.43,-0.06,
1.304,0.07,-0.02,1.01,-0.52,-0.49,-0.06,
1.306,0.07,-0.03,1.01,-0.52,-0.49,-0.06,
1.308,0.06,-0.03,1.02,-0.52,-0.49,-0.06,
1.309,0.06,-0.03,1.02,-0.64,-0.55,0.02,
1.311,0.05,-0.03,1.02,-0.64,-0.55,0.02,
1.313,0.05,-0.03,1.02,-0.70,-0.63,0.04,
1.314,0.05,-0.04,1.01,-0.70,-0.63,0.04,
1.316,0.05,-0.04,1.02,-0.70,-0.63,0.04,
1.319,0.04,-0.04,1.02,-0.70,-0.63,0.04,
1.319,0.04,-0.04,1.02,-0.81,-0.69,0.01,
1.321,0.04,-0.04,1.01,-0.81,-0.69,0.01,
1.323,0.04,-0.05,1.01,-0.81,-0.69,0.01,
1.324,0.04,-0.05,1.01,-0.88,-0.74,0.04,
1.326,0.04,-0.05,1.01,-0.88,-0.74,0.04,
1.328,0.04,-0.05,1.01,-0.88,-0.74,0.04,
1.328,0.04,-0.05,1.01,-0.91,-0.82,-0.03,
1.336,0.04,-0.06,1.01,-0.91,-0.82,-0.03,
1.336,0.04,-0.06,1.02,-0.91,-0.82,-0.03,
1.337,0.04,-0.06,1.02,-0.93,-0.88,-0.01,
1.337,0.04,-0.06,1.02,-0.93,-0.88,-0.01,
1.338,0.04,-0.07,1.01,-0.93,-0.88,-0.01,
1.338,0.04,-0.07,1.01,-0.88,-0.97,0.01,
1.341,0.04,-0.06,1.00,-0.88,-0.97,0.01,
1.343,0.04,-0.07,1.00,-0.88,-0.97,0.01,
1.343,0.04,-0.07,1.00,-0.87,-1.00,-0.00,
1.345,0.05,-0.06,0.99,-0.87,-1.00,-0.00,
1.349,0.05,-0.05,0.98,-0.87,-1.00,-0.00,
1.349,0.05,-0.05,0.98,-0.82,-1.04,-0.15,
1.351,0.06,-0.06,0.98,-0.82,-1.04,-0.15,
1.353,0.06,-0.05,0.98,-0.82,-1.04,-0.15,
1.353,0.06,-0.05,0.98,-0.73,-0.96,-0.26,
1.356,0.07,-0.05,0.96,-0.73,-0.96,-0.26,
1.358,0.08,-0.05,0.96,-0.73,-0.96,-0.26,
1.358,0.08,-0.05,0.96,-0.61,-0.96,-0.33,
1.36,0.08,-0.04,0.95,-0.61,-0.96,-0.33,
1.364,0.08,-0.03,0.95,-0.61,-0.96,-0.33,
1.364,0.08,-0.03,0.95,-0.48,-0.91,-0.55,
1.368,0.08,-0.03,0.93,-0.48,-0.91,-0.55,
1.368,0.08,-0.03,0.92,-0.48,-0.91,-0.55,
1.368,0.08,-0.03,0.92,-0.39,-0.82,-0.63,
1.37,0.08,-0.02,0.91,-0.39,-0.82,-0.63,
1.373,0.09,-0.02,0.90,-0.39,-0.82,-0.63,
1.373,0.09,-0.02,0.90,-0.37,-0.77,-0.88,
1.376,0.09,-0.02,0.89,-0.37,-0.77,-0.88,
1.378,0.09,-0.02,0.88,-0.37,-0.77,-0.88,
1.378,0.09,-0.02,0.88,-0.35,-0.72,-1.08,
1.38,0.09,-0.02,0.88,-0.35,-0.72,-1.08,
1.383,0.09,-0.01,0.87,-0.35,-0.72,-1.08,
1.384,0.09,-0.01,0.87,-0.29,-0.71,-1.23,
1.385,0.09,-0.01,0.87,-0.29,-0.71,-1.23,
1.388,0.09,-0.02,0.86,-0.29,-0.71,-1.23,
1.388,0.09,-0.02,0.86,-0.24,-0.71,-1.38,
1.39,0.08,-0.02,0.86,-0.24,-0.71,-1.38,
1.393,0.08,-0.02,0.86,-0.24,-0.71,-1.38,
1.393,0.08,-0.02,0.86,-0.25,-0.73,-1.44,
1.395,0.07,-0.01,0.86,-0.25,-0.73,-1.44,
1.397,0.06,-0.01,0.86,-0.25,-0.73,-1.44,
1.398,0.06,-0.01,0.86,-0.29,-0.77,-1.50,
1.4,0.06,-0.01,0.86,-0.29,-0.77,-1.50,
1.402,0.06,-0.01,0.85,-0.29,-0.77,-1.50,
1.404,0.06,-0.01,0.85,-0.40,-0.71,-1.50,
1.405,0.04,-0.00,0.86,-0.40,-0.71,-1.50,
1.408,0.04,-0.00,0.86,-0.40,-0.71,-1.50,
1.408,0.04,-0.00,0.86,-0.46,-0.71,-1.54,
1.41,0.03,-0.00,0.86,-0.46,-0.71,-1.54,
1.413,0.03,-0.00,0.86,-0.46,-0.71,-1.54,
1.413,0.03,-0.00,0.86,-0.61,-0.69,-1.49,
1.421,0.03,0.01,0.87,-0.61,-0.69,-1.49,
1.422,0.03,0.00,0.88,-0.61,-0.69,-1.49,
1.422,0.03,0.00,0.88,-0.67,-0.69,-1.45,
1.423,0.02,0.01,0.89,-0.67,-0.69,-1.45,
1.423,0.02,0.01,0.89,-0.67,-0.69,-1.45,
1.423,0.02,0.01,0.89,-0.72,-0.63,-1.30,
1.425,0.02,0.01,0.90,-0.72,-0.63,-1.30,
1.428,0.02,0.01,0.90,-0.72,-0.63,-1.30,
1.428,0.02,0.01,0.90,-0.76,-0.60,-1.19,
1.43,0.01,0.01,0.91,-0.76,-0.60,-1.19,
1.433,0.01,0.01,0.91,-0.76,-0.60,-1.19,
1.433,0.01,0.01,0.91,-0.80,-0.58,-1.12,
1.435,0.01,0.01,0.91,-0.80,-0.58,-1.12,
1.437,0.01,0.01,0.91,-0.86,-0.60,-1.01,
1.437,0.02,0.01,0.91,-0.86,-0.60,-1.01,
1.44,0.02,0.01,0.91,-0.86,-0.60,-1.01,
1.442,0.02,0.01,0.91,-0.81,-0.63,-1.00,
1.442,0.02,0.01,0.92,-0.81,-0.63,-1.00,
1.444,0.03,0.01,0.92,-0.81,-0.63,-1.00,
1.447,0.03,0.02,0.92,-0.81,-0.63,-1.00,
1.447,0.03,0.02,0.92,-0.76,-0.63,-0.96,
1.45,0.03,0.01,0.92,-0.76,-0.63,-0.96,
1.452,0.04,0.02,0.92,-0.76,-0.63,-0.96,
1.452,0.04,0.02,0.92,-0.67,-0.63,-0.88,
1.454,0.04,0.02,0.92,-0.67,-0.63,-0.88,
1.457,0.04,0.02,0.92,-0.67,-0.63,-0.88,
1.457,0.04,0.02,0.92,-0.61,-0.64,-0.86,
1.46,0.04,0.02,0.92,-0.61,-0.64,-0.86,
1.462,0.04,0.02,0.93,-0.61,-0.64,-0.86,
1.463,0.04,0.02,0.93,-0.61,-0.61,-0.84,
1.464,0.04,0.03,0.93,-0.61,-0.61,-0.84,
1.468,0.04,0.03,0.93,-0.61,-0.61,-0.84,
1.468,0.04,0.03,0.93,-0.55,-0.63,-0.82,
1.469,0.04,0.04,0.93,-0.55,-0.63,-0.82,
1.472,0.04,0.04,0.93,-0.51,-0.53,-0.76,
1.472,0.04,0.04,0.93,-0.51,-0.53,-0.76,
1.474,0.04,0.05,0.92,-0.51,-0.53,-0.76,
1.477,0.04,0.05,0.91,-0.51,-0.53,-0.76,
1.477,0.04,0.05,0.91,-0.52,-0.47,-0.77,
1.479,0.04,0.06,0.91,-0.52,-0.47,-0.77,
1.482,0.04,0.06,0.90,-0.52,-0.47,-0.77,
1.483,0.04,0.06,0.90,-0.52,-0.39,-0.87,
1.485,0.04,0.06,0.90,-0.52,-0.39,-0.87,
1.487,0.04,0.06,0.89,-0.52,-0.39,-0.87,
1.487,0.04,0.06,0.89,-0.53,-0.35,-0.96,
1.489,0.05,0.06,0.88,-0.53,-0.35,-0.96,
1.492,0.05,0.06,0.88,-0.48,-0.36,-1.09,
1.492,0.05,0.06,0.87,-0.48,-0.36,-1.09,
1.494,0.05,0.06,0.87,-0.48,-0.36,-1.09,
1.498,0.05,0.06,0.86,-0.48,-0.36,-1.09,
1.499,0.05,0.06,0.86,-0.40,-0.39,-1.26,
1.499,0.06,0.06,0.85,-0.40,-0.39,-1.26,
1.502,0.07,0.06,0.84,-0.40,-0.39,-1.26,
1.502,0.07,0.06,0.84,-0.34,-0.41,-1.38,
1.505,0.07,0.06,0.83,-0.34,-0.41,-1.38,
1.507,0.07,0.06,0.82,-0.34,-0.41,-1.38,
1.507,0.07,0.06,0.82,-0.22,-0.42,-1.59,
1.51,0.08,0.06,0.81,-0.22,-0.42,-1.59,
1.512,0.08,0.06,0.81,-0.09,-0.40,-1.78,
1.512,0.07,0.06,0.81,-0.09,-0.40,-1.78,
1.515,0.07,0.06,0.80,-0.09,-0.40,-1.78,
1.519,0.07,0.06,0.80,-0.09,-0.40,-1.78,
1.519,0.07,0.06,0.80,-0.06,-0.45,-1.88,
1.52,0.07,0.06,0.80,-0.06,-0.45,-1.88,
1.521,0.07,0.06,0.79,-0.06,-0.45,-1.88,
1.521,0.07,0.06,0.79,-0.08,-0.47,-1.98,
1.524,0.06,0.06,0.80,-0.08,-0.47,-1.98,
1.526,0.06,0.06,0.80,-0.08,-0.47,-1.98,
1.526,0.06,0.06,0.80,-0.08,-0.52,-2.03,
1.53,0.06,0.05,0.80,-0.08,-0.52,-2.03,
1.532,0.05,0.05,0.82,-0.08,-0.52,-2.03,
1.532,0.05,0.05,0.82,-0.13,-0.53,-1.97,
1.534,0.05,0.05,0.82,-0.13,-0.53,-1.97,
1.536,0.05,0.06,0.82,-0.13,-0.53,-1.97,
1.537,0.05,0.06,0.82,-0.16,-0.57,-1.88,
1.539,0.04,0.06,0.83,-0.16,-0.57,-1.88,
1.542,0.04,0.06,0.83,-0.16,-0.57,-1.88,
1.542,0.04,0.06,0.83,-0.22,-0.57,-1.78,
1.544,0.04,0.06,0.84,-0.22,-0.57,-1.78,
1.547,0.03,0.06,0.84,-0.22,-0.57,-1.78,
1.547,0.03,0.06,0.84,-0.28,-0.49,-1.67,
1.549,0.02,0.06,0.84,-0.28,-0.49,-1.67,
1.553,0.02,0.06,0.85,-0.28,-0.49,-1.67,
1.553,0.02,0.06,0.85,-0.34,-0.54,-1.55,
1.553,0.02,0.07,0.85,-0.34,-0.54,-1.55,
1.556,0.02,0.07,0.85,-0.34,-0.54,-1.55,
1.556,0.02,0.07,0.85,-0.43,-0.50,-1.50,
1.559,0.01,0.07,0.86,-0.43,-0.50,-1.50,
1.562,0.01,0.07,0.86,-0.45,-0.44,-1.47,
1.562,0.01,0.08,0.86,-0.45,-0.44,-1.47,
1.564,0.01,0.08,0.86,-0.45,-0.44,-1.47,
1.566,0.01,0.08,0.85,-0.45,-0.44,-1.47,
1.566,0.01,0.08,0.85,-0.47,-0.37,-1.39,
1.569,0.01,0.08,0.84,-0.47,-0.37,-1.39,
1.571,0.01,0.08,0.84,-0.47,-0.37,-1.39,
1.571,0.01,0.08,0.84,-0.48,-0.33,-1.44,
1.574,0.01,0.08,0.84,-0.48,-0.33,-1.44,
1.577,0.01,0.08,0.84,-0.48,-0.33,-1.44,
1.577,0.01,0.08,0.84,-0.48,-0.37,-1.56,
1.579,0.01,0.08,0.84,-0.48,-0.37,-1.56,
1.581,0.01,0.08,0.84,-0.41,-0.41,-1.58,
1.582,0.02,0.08,0.84,-0.41,-0.41,-1.58,
1.584,0.02,0.08,0.83,-0.41,-0.41,-1.58,
1.586,0.02,0.09,0.83,-0.41,-0.41,-1.58,
1.586,0.02,0.09,0.83,-0.35,-0.36,-1.55,
1.589,0.02,0.09,0.83,-0.35,-0.36,-1.55,
1.591,0.02,0.10,0.83,-0.35,-0.36,-1.55,
1.592,0.02,0.10,0.83,-0.28,-0.34,-1.61,
1.594,0.02,0.10,0.82,-0.28,-0.34,-1.61,
1.596,0.02,0.10,0.82,-0.28,-0.34,-1.61,
1.596,0.02,0.10,0.82,-0.25,-0.26,-1.66,
1.599,0.02,0.11,0.81,-0.25,-0.26,-1.66,
1.601,0.02,0.11,0.79,-0.25,-0.26,-1.66,
1.601,0.02,0.11,0.79,-0.23,-0.20,-1.72,
1.604,0.01,0.11,0.79,-0.23,-0.20,-1.72,
1.606,0.01,0.11,0.79,-0.23,-0.20,-1.72,
1.607,0.01,0.11,0.79,-0.21,-0.14,-1.92,
1.609,0.02,0.11,0.77,-0.21,-0.14,-1.92,
1.611,0.02,0.11,0.77,-0.21,-0.14,-1.92,
1.611,0.02,0.11,0.77,-0.21,-0.12,-2.04,
1.614,0.02,0.12,0.76,-0.21,-0.12,-2.04,
1.616,0.02,0.12,0.77,-0.21,-0.12,-2.04,
1.616,0.02,0.12,0.77,-0.14,-0.13,-2.20,
1.619,0.02,0.12,0.75,-0.14,-0.13,-2.20,
1.62,0.02,0.12,0.75,-0.14,-0.13,-2.20,
1.62,0.02,0.12,0.75,-0.11,-0.11,-2.27,
1.623,0.02,0.12,0.75,-0.11,-0.11,-2.27,
1.625,0.03,0.12,0.75,-0.11,-0.11,-2.27,
1.625,0.03,0.12,0.75,-0.06,-0.14,-2.36,
1.628,0.03,0.12,0.74,-0.06,-0.14,-2.36,
1.63,0.02,0.12,0.74,-0.06,-0.14,-2.36,
1.63,0.02,0.12,0.74,-0.03,-0.12,-2.39,
1.634,0.02,0.12,0.74,-0.03,-0.12,-2.39,
1.638,0.02,0.12,0.74,-0.01,-0.13,-2.47,
1.638,0.02,0.12,0.75,-0.01,-0.13,-2.47,
1.638,0.01,0.12,0.76,-0.01,-0.13,-2.47,
1.64,0.01,0.12,0.76,-0.01,-0.13,-2.47,
1.64,0.01,0.12,0.76,-0.06,-0.14,-2.41,
1.642,0.01,0.13,0.77,-0.06,-0.14,-2.41,
1.645,0.00,0.13,0.78,-0.06,-0.14,-2.41,
1.648,0.00,0.13,0.78,-0.12,-0.12,-2.27,
1.649,-0.01,0.13,0.79,-0.12,-0.12,-2.27,
1.657,-0.01,0.13,0.79,-0.12,-0.12,-2.27,
1.659,-0.01,0.13,0.79,-0.16,-0.09,-2.08,
1.659,-0.01,0.14,0.81,-0.16,-0.09,-2.08,
1.659,-0.02,0.13,0.82,-0.16,-0.09,-2.08,
1.66,-0.02,0.13,0.82,-0.27,-0.04,-1.95,
1.66,-0.02,0.14,0.83,-0.27,-0.04,-1.95,
1.661,-0.02,0.14,0.83,-0.27,-0.04,-1.95,
1.661,-0.02,0.14,0.83,-0.37,-0.02,-1.73,
1.663,-0.02,0.14,0.83,-0.37,-0.02,-1.73,
1.665,-0.02,0.14,0.84,-0.37,-0.02,-1.73,
1.666,-0.02,0.14,0.84,-0.39,0.02,-1.59,
1.668,-0.02,0.13,0.85,-0.39,0.02,-1.59,
1.671,-0.02,0.13,0.85,-0.39,0.02,-1.59,
1.671,-0.02,0.13,0.85,-0.43,0.01,-1.49,
1.672,-0.02,0.13,0.85,-0.43,0.01,-1.49,
1.676,-0.02,0.12,0.85,-0.43,0.01,-1.49,
1.676,-0.02,0.12,0.85,-0.43,-0.09,-1.38,
1.678,-0.02,0.12,0.85,-0.43,-0.09,-1.38,
1.68,-0.02,0.12,0.85,-0.43,-0.09,-1.38,
1.681,-0.02,0.12,0.85,-0.38,-0.14,-1.35,
1.682,-0.02,0.12,0.85,-0.38,-0.14,-1.35,
1.687,-0.01,0.11,0.86,-0.38,-0.14,-1.35,
1.688,-0.01,0.11,0.86,-0.40,-0.20,-1.33,
1.689,-0.02,0.11,0.85,-0.40,-0.20,-1.33,
1.69,-0.01,0.11,0.85,-0.40,-0.20,-1.33,
1.69,-0.01,0.11,0.85,-0.35,-0.28,-1.30,
1.692,-0.01,0.11,0.85,-0.35,-0.28,-1.30,
1.694,-0.01,0.12,0.84,-0.35,-0.28,-1.30,
1.695,-0.01,0.12,0.84,-0.33,-0.32,-1.33,
1.697,-0.01,0.11,0.84,-0.33,-0.32,-1.33,
1.703,-0.01,0.11,0.84,-0.33,-0.32,-1.33,
1.703,-0.01,0.11,0.84,-0.29,-0.30,-1.39,
1.703,-0.00,0.12,0.83,-0.29,-0.30,-1.39,
1.704,-0.00,0.12,0.83,-0.29,-0.30,-1.39,
1.705,-0.00,0.12,0.83,-0.29,-0.33,-1.44,
1.707,0.00,0.12,0.83,-0.29,-0.33,-1.44,
1.709,0.00,0.12,0.83,-0.21,-0.27,-1.48,
1.71,0.01,0.13,0.83,-0.21,-0.27,-1.48,
1.712,0.01,0.13,0.82,-0.21,-0.27,-1.48,
1.714,0.02,0.13,0.82,-0.21,-0.27,-1.48,
1.715,0.02,0.13,0.82,-0.11,-0.25,-1.55,
1.718,0.01,0.14,0.82,-0.11,-0.25,-1.55,
1.719,0.01,0.14,0.81,-0.11,-0.25,-1.55,
1.719,0.01,0.14,0.81,-0.05,-0.18,-1.63,
1.722,0.02,0.14,0.82,-0.05,-0.18,-1.63,
1.724,0.02,0.15,0.82,-0.05,-0.18,-1.63,
1.724,0.02,0.15,0.82,-0.04,-0.09,-1.67,
1.727,0.02,0.15,0.82,-0.04,-0.09,-1.67,
1.73,0.02,0.15,0.82,-0.04,-0.09,-1.67,
1.73,0.02,0.15,0.82,0.00,-0.06,-1.64,
1.732,0.02,0.15,0.82,0.00,-0.06,-1.64,
1.735,0.02,0.15,0.82,0.00,-0.06,-1.64,
1.735,0.02,0.15,0.82,0.05,-0.03,-1.62,
1.737,0.02,0.15,0.83,0.05,-0.03,-1.62,
1.739,0.02,0.16,0.83,0.05,-0.03,-1.62,
1.739,0.02,0.16,0.83,0.03,0.02,-1.56,
1.742,0.02,0.16,0.84,0.03,0.02,-1.56,
1.744,0.03,0.16,0.84,0.03,0.02,-1.56,
1.744,0.03,0.16,0.84,0.05,0.02,-1.48,
1.747,0.03,0.16,0.85,0.05,0.02,-1.48,
1.749,0.02,0.16,0.85,0.05,0.02,-1.48,
1.749,0.02,0.16,0.85,0.07,0.03,-1.40,
1.755,0.02,0.16,0.86,0.07,0.03,-1.40,
1.756,0.02,0.15,0.87,0.07,0.03,-1.40,
1.756,0.02,0.15,0.87,0.07,0.05,-1.32,
1.756,0.02,0.16,0.87,0.07,0.05,-1.32,
1.759,0.02,0.15,0.88,0.07,0.05,-1.32,
1.759,0.02,0.15,0.88,0.04,0.03,-1.14,
1.762,0.02,0.15,0.89,0.04,0.03,-1.14,
1.764,0.02,0.15,0.89,0.04,0.03,-1.14,
1.764,0.02,0.15,0.89,-0.00,0.02,-1.03,
1.768,0.01,0.15,0.89,-0.00,0.02,-1.03,
1.77,0.01,0.15,0.90,-0.00,0.02,-1.03,
1.77,0.01,0.15,0.90,-0.03,-0.00,-0.92,
1.771,0.02,0.15,0.90,-0.03,-0.00,-0.92,
1.774,0.02,0.15,0.91,-0.03,-0.00,-0.92,
1.774,0.02,0.15,0.91,-0.06,-0.03,-0.80,
1.776,0.02,0.15,0.92,-0.06,-0.03,-0.80,
1.778,0.02,0.15,0.92,-0.06,-0.03,-0.80,
1.779,0.02,0.15,0.92,-0.03,-0.04,-0.72,
1.781,0.03,0.15,0.92,-0.03,-0.04,-0.72,
1.785,0.02,0.14,0.93,-0.03,-0.04,-0.72,
1.785,0.02,0.14,0.93,-0.02,-0.03,-0.60,
1.786,0.02,0.15,0.93,-0.02,-0.03,-0.60,
1.789,0.02,0.14,0.93,-0.02,-0.03,-0.60,
1.79,0.02,0.14,0.93,0.02,-0.06,-0.55,
1.791,0.02,0.15,0.94,0.02,-0.06,-0.55,
1.793,0.02,0.15,0.94,0.02,-0.06,-0.55,
1.794,0.02,0.15,0.94,-0.02,-0.09,-0.48,
1.797,0.02,0.15,0.94,-0.02,-0.09,-0.48,
1.799,0.02,0.15,0.94,-0.02,-0.09,-0.48,
1.799,0.02,0.15,0.94,-0.05,-0.06,-0.41,
1.802,0.01,0.15,0.95,-0.05,-0.06,-0.41,
1.804,0.01,0.15,0.94,-0.05,-0.06,-0.41,
1.804,0.01,0.15,0.94,-0.09,-0.04,-0.38,
1.806,0.01,0.16,0.94,-0.09,-0.04,-0.38,
1.809,0.01,0.16,0.94,-0.11,-0.02,-0.35,
1.809,0.01,0.16,0.95,-0.11,-0.02,-0.35,
1.812,0.01,0.16,0.95,-0.11,-0.02,-0.35,
1.814,0.01,0.16,0.94,-0.11,-0.02,-0.35,
1.814,0.01,0.16,0.94,-0.14,0.06,-0.33,
1.816,0.02,0.16,0.94,-0.14,0.06,-0.33,
1.821,0.02,0.17,0.95,-0.14,0.06,-0.33,
1.822,0.02,0.17,0.95,-0.14,0.10,-0.33,
1.822,0.01,0.17,0.94,-0.14,0.10,-0.33,
1.826,0.02,0.17,0.94,-0.14,0.10,-0.33,
1.826,0.02,0.17,0.94,-0.08,0.11,-0.33,
1.827,0.02,0.17,0.94,-0.08,0.11,-0.33,
1.829,0.01,0.17,0.94,-0.08,0.11,-0.33,
1.829,0.01,0.17,0.94,-0.12,0.14,-0.37,
1.831,0.01,0.17,0.95,-0.12,0.14,-0.37,
1.838,0.02,0.17,0.95,-0.12,0.14,-0.37,
1.839,0.02,0.17,0.95,-0.12,0.12,-0.37,
1.839,0.02,0.17,0.95,-0.12,0.12,-0.37,
1.84,0.01,0.18,0.95,-0.12,0.12,-0.37,
1.84,0.01,0.18,0.95,-0.11,0.15,-0.32,
1.841,0.02,0.18,0.95,-0.11,0.15,-0.32,
1.844,0.02,0.18,0.95,-0.11,0.15,-0.32,
1.844,0.02,0.18,0.95,-0.10,0.21,-0.33,
1.847,0.03,0.18,0.95,-0.10,0.21,-0.33,
1.849,0.03,0.18,0.95,-0.10,0.21,-0.33,
1.849,0.03,0.18,0.95,-0.05,0.20,-0.31,
1.853,0.03,0.17,0.95,-0.05,0.20,-0.31,
1.854,0.03,0.17,0.95,-0.05,0.20,-0.31,
1.854,0.03,0.17,0.95,-0.00,0.19,-0.29,
1.856,0.03,0.18,0.95,-0.00,0.19,-0.29,
1.859,0.04,0.17,0.95,-0.00,0.19,-0.29,
1.859,0.04,0.17,0.95,0.00,0.17,-0.28,
1.861,0.03,0.17,0.96,0.00,0.17,-0.28,
1.864,0.03,0.17,0.95,0.00,0.17,-0.28,
1.864,0.03,0.17,0.95,0.07,0.19,-0.26,
1.866,0.03,0.17,0.95,0.07,0.19,-0.26,
1.873,0.03,0.18,0.96,0.07,0.19,-0.26,
1.874,0.03,0.18,0.96,0.04,0.15,-0.26,
1.874,0.03,0.17,0.96,0.04,0.15,-0.26,
1.874,0.03,0.17,0.96,0.04,0.15,-0.26,
1.876,0.03,0.17,0.96,0.03,0.19,-0.26,
1.877,0.02,0.18,0.97,0.03,0.19,-0.26,
1.878,0.02,0.17,0.97,0.03,0.19,-0.26,
1.878,0.02,0.17,0.97,-0.02,0.16,-0.19,
1.881,0.02,0.17,0.98,-0.02,0.16,-0.19,
1.883,0.02,0.17,0.98,-0.02,0.16,-0.19,
1.884,0.02,0.17,0.98,-0.07,0.17,-0.09,
1.886,0.02,0.17,0.98,-0.07,0.17,-0.09,
1.888,0.02,0.17,0.99,-0.07,0.17,-0.09,
1.888,0.02,0.17,0.99,-0.08,0.14,-0.03,
1.89,0.01,0.17,0.99,-0.08,0.14,-0.03,
1.893,0.01,0.17,0.99,-0.08,0.14,-0.03,
1.893,0.01,0.17,0.99,-0.14,0.16,0.03,
1.896,0.01,0.16,1.00,-0.14,0.16,0.03,
1.898,0.00,0.16,1.00,-0.14,0.16,0.03,
1.899,0.00,0.16,1.00,-0.18,0.13,0.09,
1.901,0.00,0.16,1.00,-0.18,0.13,0.09,
1.905,0.00,0.16,1.00,-0.18,0.13,0.09,
1.906,0.00,0.16,1.00,-0.25,0.09,0.19,
1.906,-0.00,0.17,1.00,-0.25,0.09,0.19,
1.908,-0.00,0.17,1.00,-0.29,0.09,0.21,
1.908,0.00,0.16,1.00,-0.29,0.09,0.21,
1.911,0.01,0.16,1.00,-0.29,0.09,0.21,
1.913,0.01,0.16,0.99,-0.29,0.09,0.21,
1.913,0.01,0.16,0.99,-0.32,0.09,0.21,
1.916,0.01,0.16,0.99,-0.32,0.09,0.21,
1.92,0.01,0.15,1.00,-0.32,0.09,0.21,
1.92,0.01,0.15,1.00,-0.26,0.05,0.18,
1.921,0.02,0.16,1.00,-0.26,0.05,0.18,
1.923,0.02,0.16,1.00,-0.26,0.05,0.18,
1.923,0.02,0.16,1.00,-0.27,0.01,0.15,
1.926,0.02,0.16,1.00,-0.27,0.01,0.15,
1.928,0.03,0.16,0.99,-0.27,0.01,0.15,
1.928,0.03,0.16,0.99,-0.15,0.03,0.20,
1.931,0.03,0.16,0.99,-0.15,0.03,0.20,
1.933,0.03,0.16,0.99,-0.10,0.03,0.16,
1.934,0.03,0.16,0.99,-0.10,0.03,0.16,
1.935,0.03,0.16,0.99,-0.10,0.03,0.16,
1.938,0.03,0.16,0.99,-0.10,0.03,0.16,
1.938,0.03,0.16,0.99,-0.07,0.02,0.11,
1.94,0.03,0.16,0.99,-0.07,0.02,0.11,
1.943,0.03,0.16,0.99,-0.07,0.02,0.11,
1.943,0.03,0.16,0.99,-0.05,0.07,0.12,
1.945,0.03,0.17,0.99,-0.05,0.07,0.12,
1.948,0.03,0.18,0.99,-0.05,0.07,0.12,
1.948,0.03,0.18,0.99,-0.05,0.08,0.13,
1.951,0.03,0.17,0.99,-0.05,0.08,0.13,
1.953,0.04,0.17,0.98,-0.05,0.08,0.13,
1.954,0.04,0.17,0.98,-0.02,0.19,0.09,
1.955,0.04,0.18,0.99,-0.02,0.19,0.09,
1.957,0.04,0.18,0.99,-0.02,0.19,0.09,
1.957,0.04,0.18,0.99,0.00,0.17,0.07,
1.96,0.04,0.17,0.98,0.00,0.17,0.07,
1.962,0.04,0.17,0.99,0.00,0.17,0.07,
1.963,0.04,0.17,0.99,0.04,0.22,0.09,
1.965,0.04,0.17,0.99,0.04,0.22,0.09,
1.967,0.04,0.17,0.99,0.04,0.22,0.09,
1.975,0.04,0.17,0.99,0.04,0.18,0.05,
1.975,0.04,0.17,0.99,0.04,0.18,0.05,
1.976,0.04,0.16,1.00,0.04,0.18,0.05,
1.976,0.04,0.16,1.00,0.03,0.15,0.14,
1.976,0.04,0.16,1.00,0.03,0.15,0.14,
1.979,0.04,0.16,1.00,0.03,0.15,0.14,
1.979,0.04,0.16,1.00,0.03,0.09,0.16,
1.979,0.04,0.16,1.00,0.03,0.09,0.16,
1.982,0.04,0.15,1.01,0.03,0.09,0.16,
1.983,0.04,0.15,1.01,0.01,0.07,0.18,
1.985,0.04,0.16,1.01,0.01,0.07,0.18,
1.988,0.04,0.15,1.00,0.01,0.07,0.18,
1.988,0.04,0.15,1.00,0.01,0.00,0.25,
1.989,0.05,0.15,1.01,0.01,0.00,0.25,
1.992,0.04,0.15,1.01,0.01,0.00,0.25,
1.993,0.04,0.15,1.01,0.04,-0.02,0.26,
1.994,0.05,0.15,1.01,0.04,-0.02,0.26,
1.996,0.05,0.14,1.01,0.04,-0.02,0.26,
1.998,0.05,0.14,1.01,0.07,-0.08,0.29,
2.0,0.04,0.14,1.01,0.07,-0.08,0.29,
2.003,0.05,0.14,1.01,0.07,-0.08,0.29,
2.004,0.05,0.14,1.01,0.08,-0.11,0.29,
2.005,0.04,0.14,1.01,0.08,-0.11,0.29,
2.007,0.04,0.14,1.02,0.08,-0.11,0.29,
2.008,0.04,0.14,1.02,0.05,-0.16,0.31,
2.009,0.04,0.14,1.02,0.05,-0.16,0.31,
2.011,0.04,0.14,1.02,0.05,-0.16,0.31,
2.012,0.04,0.14,1.02,0.03,-0.19,0.36,
2.015,0.03,0.14,1.03,0.03,-0.19,0.36,
2.017,0.03,0.14,1.03,0.03,-0.19,0.36,
2.018,0.03,0.14,1.03,-0.00,-0.18,0.39,
2.021,0.03,0.14,1.02,-0.00,-0.18,0.39,
2.021,0.03,0.14,1.03,-0.00,-0.18,0.39,
2.022,0.03,0.14,1.03,-0.04,-0.19,0.47,
2.024,0.03,0.14,1.04,-0.04,-0.19,0.47,
2.026,0.03,0.14,1.03,-0.04,-0.19,0.47,
2.027,0.03,0.14,1.03,-0.04,-0.20,0.47,
2.029,0.03,0.14,1.03,-0.04,-0.20,0.47,
2.031,0.03,0.14,1.03,-0.04,-0.20,0.47,
2.032,0.03,0.14,1.03,-0.09,-0.13,0.54,
2.033,0.03,0.14,1.03,-0.09,-0.13,0.54,
2.037,0.03,0.15,1.03,-0.09,-0.13,0.54,
2.038,0.03,0.15,1.03,-0.09,-0.16,0.53,
2.039,0.03,0.15,1.03,-0.09,-0.16,0.53,
2.041,0.03,0.15,1.02,-0.09,-0.16,0.53,
2.041,0.03,0.15,1.02,-0.11,-0.11,0.50,
2.044,0.04,0.16,1.02,-0.11,-0.11,0.50,
2.046,0.03,0.15,0.98,-0.11,-0.11,0.50,
2.046,0.03,0.15,0.98,-0.09,-0.10,0.44,
2.048,0.05,0.15,0.87,-0.09,-0.10,0.44,
2.055,0.10,0.17,0.78,-0.09,-0.10,0.44,
2.056,0.10,0.17,0.78,-0.05,-0.06,0.17,
2.056,0.11,0.17,0.80,-0.05,-0.06,0.17,
2.056,0.09,0.16,0.88,-0.05,-0.06,0.17,
2.057,0.09,0.16,0.88,0.34,0.02,-1.48,
2.059,0.07,0.16,0.93,0.34,0.02,-1.48,
2.061,0.05,0.16,0.95,0.34,0.02,-1.48,
2.061,0.05,0.16,0.95,0.60,0.06,-1.37,
2.064,0.04,0.16,0.96,0.60,0.06,-1.37,
2.066,0.02,0.16,0.96,0.60,0.06,-1.37,
2.066,0.02,0.16,0.96,0.28,-0.01,-0.37,
2.069,0.01,0.17,0.96,0.28,-0.01,-0.37,
2.072,-0.00,0.18,0.96,0.28,-0.01,-0.37,
2.072,-0.00,0.18,0.96,-0.02,0.03,-0.20,
2.075,-0.00,0.18,0.95,-0.02,0.03,-0.20,
2.076,-0.01,0.19,0.96,-0.02,0.03,-0.20,
2.076,-0.01,0.19,0.96,-0.26,0.17,-0.21,
2.078,-0.01,0.20,0.96,-0.26,0.17,-0.21,
2.081,-0.01,0.21,0.97,-0.26,0.17,-0.21,
2.082,-0.01,0.21,0.97,-0.34,0.31,-0.25,
2.084,-0.01,0.21,0.99,-0.34,0.31,-0.25,
2.086,-0.00,0.21,1.00,-0.34,0.31,-0.25,
2.091,-0.00,0.21,1.00,-0.36,0.46,-0.14,
2.092,-0.01,0.21,1.01,-0.36,0.46,-0.14,
2.092,0.00,0.21,1.01,-0.36,0.46,-0.14,
2.092,0.00,0.21,1.01,-0.33,0.53,0.11,
2.093,0.01,0.21,1.02,-0.33,0.53,0.11,
2.095,0.02,0.20,1.03,-0.33,0.53,0.11,
2.096,0.02,0.20,1.03,-0.31,0.54,0.32,
2.098,0.03,0.20,1.04,-0.31,0.54,0.32,
2.101,0.04,0.20,1.04,-0.31,0.54,0.32,
2.102,0.04,0.20,1.04,-0.16,0.50,0.40,
2.105,0.05,0.19,1.05,-0.16,0.50,0.40,
2.106,0.06,0.19,1.05,-0.16,0.50,0.40,
2.106,0.06,0.19,1.05,0.05,0.44,0.57,
2.108,0.07,0.18,1.05,0.05,0.44,0.57,
2.111,0.08,0.18,1.04,0.05,0.44,0.57,
2.111,0.08,0.18,1.04,0.20,0.38,0.70,
2.113,0.08,0.18,1.03,0.20,0.38,0.70,
2.115,0.08,0.18,1.03,0.20,0.38,0.70,
2.116,0.08,0.18,1.03,0.37,0.30,0.62,
2.118,0.09,0.18,1.02,0.37,0.30,0.62,
2.12,0.09,0.18,1.02,0.37,0.30,0.62,
2.122,0.09,0.18,1.02,0.45,0.25,0.50,
2.124,0.09,0.17,1.01,0.45,0.25,0.50,
2.126,0.08,0.17,1.02,0.45,0.25,0.50,
2.126,0.08,0.17,1.02,0.50,0.20,0.40,
2.128,0.08,0.17,1.01,0.50,0.20,0.40,
2.13,0.08,0.17,1.01,0.46,0.15,0.34,
2.131,0.08,0.17,1.01,0.46,0.15,0.34,
2.133,0.07,0.17,1.01,0.46,0.15,0.34,
2.137,0.07,0.17,1.01,0.46,0.15,0.34,
2.137,0.07,0.17,1.01,0.42,0.09,0.29,
