
time,gFx,gFy,gFz,ax,ay,az,
0.003,0.07,0.25,0.92,0.28,0.01,-0.37,
0.003,0.07,0.25,0.92,0.38,0.09,-0.48,
0.003,0.07,0.25,0.92,0.38,0.09,-0.48,
0.004,0.07,0.26,0.92,0.38,0.09,-0.48,
0.004,0.07,0.26,0.92,0.38,0.15,-0.53,
0.006,0.07,0.27,0.91,0.38,0.15,-0.53,
0.009,0.06,0.27,0.91,0.38,0.15,-0.53,
0.009,0.06,0.27,0.91,0.33,0.21,-0.52,
0.011,0.06,0.27,0.92,0.33,0.21,-0.52,
0.014,0.06,0.28,0.92,0.33,0.21,-0.52,
0.014,0.06,0.28,0.92,0.28,0.35,-0.58,
0.017,0.05,0.28,0.93,0.28,0.35,-0.58,
0.019,0.04,0.28,0.94,0.28,0.35,-0.58,
0.019,0.04,0.28,0.94,0.20,0.40,-0.50,
0.021,0.01,0.27,0.94,0.20,0.40,-0.50,
0.024,-0.00,0.27,0.95,0.20,0.40,-0.50,
0.024,-0.00,0.27,0.95,0.11,0.45,-0.38,
0.026,-0.00,0.27,0.96,0.11,0.45,-0.38,
0.029,-0.00,0.26,0.96,0.11,0.45,-0.38,
0.029,-0.00,0.26,0.96,-0.29,0.38,-0.27,
0.031,0.00,0.25,0.96,-0.29,0.38,-0.27,
0.034,0.01,0.24,0.96,-0.29,0.38,-0.27,
0.034,0.01,0.24,0.96,-0.38,0.34,-0.11,
0.036,0.02,0.23,0.98,-0.38,0.34,-0.11,
0.038,0.03,0.22,0.99,-0.38,0.34,-0.11,
0.039,0.03,0.22,0.99,-0.28,0.15,-0.07,
0.041,0.04,0.21,1.01,-0.28,0.15,-0.07,
0.043,0.05,0.21,1.02,-0.28,0.15,-0.07,
0.044,0.05,0.21,1.02,-0.11,-0.02,0.14,
0.046,0.06,0.20,1.04,-0.11,-0.02,0.14,
0.049,0.06,0.20,1.05,-0.11,-0.02,0.14,
0.049,0.06,0.20,1.05,0.10,-0.13,0.43,
0.051,0.07,0.20,1.06,0.10,-0.13,0.43,
0.053,0.07,0.20,1.07,0.10,-0.13,0.43,
0.053,0.07,0.20,1.07,0.23,-0.20,0.68,
0.056,0.07,0.20,1.08,0.23,-0.20,0.68,
0.058,0.07,0.21,1.08,0.23,-0.20,0.68,
0.058,0.07,0.21,1.08,0.29,-0.22,0.87,
0.061,0.06,0.21,1.08,0.29,-0.22,0.87,
0.063,0.06,0.22,1.07,0.29,-0.22,0.87,
0.064,0.06,0.22,1.07,0.28,-0.14,1.00,
0.066,0.06,0.22,1.07,0.28,-0.14,1.00,
0.068,0.05,0.22,1.06,0.28,-0.14,1.00,
0.068,0.05,0.22,1.06,0.19,-0.05,0.98,
0.071,0.05,0.22,1.05,0.19,-0.05,0.98,
0.073,0.05,0.22,1.04,0.19,-0.05,0.98,
0.073,0.05,0.22,1.04,0.13,0.03,0.89,
0.076,0.05,0.22,1.03,0.13,0.03,0.89,
0.078,0.05,0.23,1.02,0.13,0.03,0.89,
0.078,0.05,0.23,1.02,0.08,0.05,0.70,
0.081,0.05,0.23,1.01,0.08,0.05,0.70,
0.083,0.05,0.23,1.00,0.08,0.05,0.70,
0.083,0.05,0.23,1.00,0.07,0.07,0.47,
0.086,0.06,0.23,0.98,0.07,0.07,0.47,
0.088,0.05,0.22,0.98,0.07,0.07,0.47,
0.088,0.05,0.22,0.98,0.12,0.10,0.23,
0.09,0.05,0.22,0.98,0.12,0.10,0.23,
0.093,0.05,0.22,0.98,0.12,0.10,0.23,
0.093,0.05,0.22,0.98,0.15,0.04,0.04,
0.095,0.05,0.22,0.98,0.15,0.04,0.04,
0.098,0.05,0.22,0.98,0.15,0.04,0.04,
0.098,0.05,0.22,0.98,0.14,-0.01,0.02,
0.1,0.05,0.21,0.98,0.14,-0.01,0.02,
0.103,0.05,0.21,0.97,0.14,-0.01,0.02,
0.103,0.05,0.21,0.97,0.07,-0.05,0.01,
0.105,0.05,0.22,0.97,0.07,-0.05,0.01,
0.108,0.05,0.22,0.97,0.07,-0.05,0.01,
0.108,0.05,0.22,0.97,0.09,-0.09,-0.00,
0.11,0.05,0.22,0.97,0.09,-0.09,-0.00,
0.113,0.05,0.22,0.97,0.09,-0.09,-0.00,
0.113,0.05,0.22,0.97,0.10,-0.04,-0.07,
0.115,0.05,0.23,0.97,0.10,-0.04,-0.07,
0.118,0.06,0.22,0.97,0.10,-0.04,-0.07,
0.118,0.06,0.22,0.97,0.11,-0.02,-0.09,
0.12,0.05,0.23,0.98,0.11,-0.02,-0.09,
0.123,0.05,0.23,0.97,0.11,-0.02,-0.09,
0.123,0.05,0.23,0.97,0.16,0.00,-0.08,
0.125,0.05,0.23,0.98,0.16,0.00,-0.08,
0.127,0.05,0.23,0.97,0.16,0.00,-0.08,
0.128,0.05,0.23,0.97,0.14,0.05,-0.03,
0.13,0.05,0.24,0.97,0.14,0.05,-0.03,
0.133,0.05,0.24,0.97,0.14,0.05,-0.03,
0.133,0.05,0.24,0.97,0.14,0.08,-0.01,
0.135,0.05,0.24,0.97,0.14,0.08,-0.01,
0.137,0.05,0.23,0.97,0.14,0.08,-0.01,
0.138,0.05,0.23,0.97,0.14,0.09,-0.03,
0.14,0.05,0.24,0.98,0.14,0.09,-0.03,
0.142,0.06,0.23,0.97,0.14,0.09,-0.03,
0.143,0.06,0.23,0.97,0.15,0.09,-0.07,
0.145,0.06,0.24,0.98,0.15,0.09,-0.07,
0.149,0.06,0.24,0.97,0.15,0.09,-0.07,
0.149,0.06,0.24,0.97,0.17,0.08,-0.03,
0.15,0.06,0.23,0.97,0.17,0.08,-0.03,
0.152,0.06,0.24,0.97,0.17,0.08,-0.03,
0.152,0.06,0.24,0.97,0.17,0.11,-0.03,
0.155,0.05,0.23,0.98,0.17,0.11,-0.03,
0.157,0.06,0.23,0.98,0.17,0.11,-0.03,
0.157,0.06,0.23,0.98,0.18,0.07,-0.03,
0.16,0.06,0.23,0.98,0.18,0.07,-0.03,
0.162,0.05,0.23,0.98,0.18,0.07,-0.03,
0.163,0.05,0.23,0.98,0.16,0.03,0.04,
0.165,0.06,0.23,0.98,0.16,0.03,0.04,
0.167,0.06,0.23,0.98,0.16,0.03,0.04,
0.167,0.06,0.23,0.98,0.18,0.00,0.03,
0.17,0.06,0.22,0.98,0.18,0.00,0.03,
0.172,0.05,0.22,0.99,0.18,0.00,0.03,
0.172,0.05,0.22,0.99,0.18,-0.01,0.09,
0.175,0.05,0.22,0.99,0.18,-0.01,0.09,
0.177,0.05,0.21,0.98,0.18,-0.01,0.09,
0.177,0.05,0.21,0.98,0.16,-0.07,0.07,
0.18,0.04,0.21,0.99,0.16,-0.07,0.07,
0.182,0.04,0.21,0.99,0.16,-0.07,0.07,
0.182,0.04,0.21,0.99,0.13,-0.11,0.09,
0.185,0.04,0.22,0.99,0.13,-0.11,0.09,
0.187,0.04,0.22,0.99,0.13,-0.11,0.09,
0.187,0.04,0.22,0.99,0.02,-0.17,0.14,
0.189,0.03,0.21,0.99,0.02,-0.17,0.14,
0.192,0.03,0.21,0.98,0.02,-0.17,0.14,
0.192,0.03,0.21,0.98,0.01,-0.13,0.13,
0.194,0.03,0.21,0.98,0.01,-0.13,0.13,
0.197,0.03,0.21,0.98,0.01,-0.13,0.13,
0.197,0.03,0.21,0.98,-0.08,-0.15,0.09,
0.2,0.02,0.21,0.98,-0.08,-0.15,0.09,
0.202,0.02,0.21,0.97,-0.08,-0.15,0.09,
0.202,0.02,0.21,0.97,-0.07,-0.16,0.04,
0.204,0.02,0.21,0.96,-0.07,-0.16,0.04,
0.207,0.02,0.21,0.95,-0.07,-0.16,0.04,
0.207,0.02,0.21,0.95,-0.10,-0.24,-0.04,
0.209,0.02,0.21,0.94,-0.10,-0.24,-0.04,
0.212,0.02,0.21,0.94,-0.10,-0.24,-0.04,
0.212,0.02,0.21,0.94,-0.11,-0.21,-0.22,
0.214,0.02,0.21,0.94,-0.11,-0.21,-0.22,
0.217,0.02,0.21,0.93,-0.11,-0.21,-0.22,
0.217,0.02,0.21,0.93,-0.10,-0.21,-0.30,
0.22,0.02,0.21,0.92,-0.10,-0.21,-0.30,
0.222,0.01,0.21,0.91,-0.10,-0.21,-0.30,
0.222,0.01,0.21,0.91,-0.08,-0.24,-0.43,
0.224,0.02,0.22,0.91,-0.08,-0.24,-0.43,
0.226,0.02,0.22,0.90,-0.08,-0.24,-0.43,
0.227,0.02,0.22,0.90,-0.14,-0.21,-0.56,
0.229,0.02,0.22,0.89,-0.14,-0.21,-0.56,
0.232,0.02,0.22,0.89,-0.14,-0.21,-0.56,
0.232,0.02,0.22,0.89,-0.10,-0.16,-0.67,
0.234,0.01,0.22,0.88,-0.10,-0.16,-0.67,
0.236,0.01,0.23,0.87,-0.10,-0.16,-0.67,
0.237,0.01,0.23,0.87,-0.10,-0.12,-0.81,
0.239,0.01,0.24,0.87,-0.10,-0.12,-0.81,
0.241,0.00,0.23,0.87,-0.10,-0.12,-0.81,
0.241,0.00,0.23,0.87,-0.16,-0.09,-0.92,
0.244,0.00,0.23,0.86,-0.16,-0.09,-0.92,
0.246,-0.00,0.24,0.85,-0.16,-0.09,-0.92,
0.246,-0.00,0.24,0.85,-0.17,-0.05,-1.00,
0.249,-0.00,0.24,0.85,-0.17,-0.05,-1.00,
0.251,-0.00,0.24,0.85,-0.17,-0.05,-1.00,
0.251,-0.00,0.24,0.85,-0.19,-0.02,-1.11,
0.254,-0.01,0.24,0.85,-0.19,-0.02,-1.11,
0.256,-0.01,0.23,0.84,-0.19,-0.02,-1.11,
0.256,-0.01,0.23,0.84,-0.23,-0.02,-1.18,
0.259,-0.01,0.23,0.84,-0.23,-0.02,-1.18,
0.261,-0.01,0.24,0.84,-0.23,-0.02,-1.18,
0.261,-0.01,0.24,0.84,-0.25,-0.03,-1.20,
0.264,-0.01,0.23,0.84,-0.25,-0.03,-1.20,
0.266,-0.01,0.23,0.84,-0.25,-0.03,-1.20,
0.266,-0.01,0.23,0.84,-0.24,-0.04,-1.21,
0.269,-0.01,0.23,0.85,-0.24,-0.04,-1.21,
0.271,-0.01,0.23,0.85,-0.24,-0.04,-1.21,
0.271,-0.01,0.23,0.85,-0.24,-0.08,-1.20,
0.274,-0.01,0.23,0.85,-0.24,-0.08,-1.20,
0.276,-0.01,0.23,0.85,-0.24,-0.08,-1.20,
0.276,-0.01,0.23,0.85,-0.20,-0.09,-1.15,
0.279,-0.01,0.23,0.86,-0.20,-0.09,-1.15,
0.281,-0.01,0.23,0.86,-0.20,-0.09,-1.15,
0.281,-0.01,0.23,0.86,-0.21,-0.13,-1.09,
0.284,-0.01,0.23,0.86,-0.21,-0.13,-1.09,
0.286,-0.01,0.23,0.86,-0.21,-0.13,-1.09,
0.286,-0.01,0.23,0.86,-0.24,-0.12,-1.01,
0.288,-0.01,0.23,0.86,-0.24,-0.12,-1.01,
0.291,-0.01,0.23,0.86,-0.24,-0.12,-1.01,
0.291,-0.01,0.23,0.86,-0.23,-0.09,-0.99,
0.293,-0.01,0.23,0.86,-0.23,-0.09,-0.99,
0.296,-0.01,0.23,0.86,-0.23,-0.09,-0.99,
0.296,-0.01,0.23,0.86,-0.23,-0.09,-0.99,
0.298,-0.01,0.22,0.86,-0.23,-0.09,-0.99,
0.301,-0.01,0.22,0.86,-0.23,-0.09,-0.99,
0.301,-0.01,0.22,0.86,-0.20,-0.11,-0.97,
0.303,-0.00,0.22,0.85,-0.20,-0.11,-0.97,
0.306,-0.01,0.22,0.84,-0.20,-0.11,-0.97,
0.306,-0.01,0.22,0.84,-0.15,-0.17,-0.95,
0.308,-0.00,0.22,0.85,-0.15,-0.17,-0.95,
0.311,0.00,0.22,0.84,-0.15,-0.17,-0.95,
0.311,0.00,0.22,0.84,-0.12,-0.16,-1.07,
0.313,0.00,0.22,0.84,-0.12,-0.16,-1.07,
0.316,0.00,0.21,0.84,-0.12,-0.16,-1.07,
0.316,0.00,0.21,0.84,-0.07,-0.22,-1.07,
0.318,0.00,0.21,0.84,-0.07,-0.22,-1.07,
0.321,0.00,0.21,0.84,-0.07,-0.22,-1.07,
0.321,0.00,0.21,0.84,-0.03,-0.25,-1.15,
0.323,0.00,0.21,0.84,-0.03,-0.25,-1.15,
0.325,0.00,0.20,0.84,-0.03,-0.25,-1.15,
0.326,0.00,0.20,0.84,-0.02,-0.29,-1.14,
0.328,0.00,0.20,0.84,-0.02,-0.29,-1.14,
0.331,0.01,0.19,0.83,-0.02,-0.29,-1.14,
0.331,0.01,0.19,0.83,0.01,-0.36,-1.14,
0.334,0.01,0.19,0.84,0.01,-0.36,-1.14,
0.336,0.00,0.19,0.84,0.01,-0.36,-1.14,
0.336,0.00,0.19,0.84,0.03,-0.42,-1.15,
0.338,0.01,0.19,0.84,0.03,-0.42,-1.15,
0.34,0.02,0.19,0.83,0.03,-0.42,-1.15,
0.34,0.02,0.19,0.83,0.04,-0.45,-1.11,
0.343,0.01,0.19,0.83,0.04,-0.45,-1.11,
0.345,0.02,0.19,0.83,0.04,-0.45,-1.11,
0.345,0.02,0.19,0.83,0.11,-0.49,-1.16,
0.35,0.03,0.19,0.82,0.11,-0.49,-1.16,
0.35,0.03,0.18,0.82,0.11,-0.49,-1.16,
0.351,0.03,0.18,0.82,0.16,-0.47,-1.21,
0.353,0.04,0.19,0.82,0.16,-0.47,-1.21,
0.355,0.05,0.18,0.82,0.16,-0.47,-1.21,
0.355,0.05,0.18,0.82,0.28,-0.48,-1.24,
0.358,0.05,0.18,0.82,0.28,-0.48,-1.24,
0.36,0.05,0.18,0.81,0.28,-0.48,-1.24,
0.36,0.05,0.18,0.81,0.43,-0.48,-1.25,
0.363,0.05,0.18,0.81,0.43,-0.48,-1.25,
0.365,0.05,0.19,0.81,0.43,-0.48,-1.25,
0.365,0.05,0.19,0.81,0.48,-0.51,-1.30,
0.368,0.06,0.18,0.80,0.48,-0.51,-1.30,
0.37,0.06,0.18,0.80,0.48,-0.51,-1.30,
0.37,0.06,0.18,0.80,0.53,-0.50,-1.31,
0.373,0.06,0.19,0.80,0.53,-0.50,-1.31,
0.375,0.06,0.19,0.80,0.53,-0.50,-1.31,
0.375,0.06,0.19,0.80,0.60,-0.51,-1.39,
0.378,0.06,0.19,0.79,0.60,-0.51,-1.39,
0.38,0.06,0.18,0.79,0.60,-0.51,-1.39,
0.38,0.06,0.18,0.79,0.59,-0.50,-1.40,
0.383,0.06,0.18,0.79,0.59,-0.50,-1.40,
0.385,0.06,0.18,0.78,0.59,-0.50,-1.40,
0.385,0.06,0.18,0.78,0.63,-0.52,-1.49,
0.387,0.06,0.17,0.78,0.63,-0.52,-1.49,
0.39,0.05,0.17,0.78,0.63,-0.52,-1.49,
0.39,0.05,0.17,0.78,0.58,-0.58,-1.51,
0.392,0.05,0.17,0.77,0.58,-0.58,-1.51,
0.395,0.05,0.17,0.77,0.58,-0.58,-1.51,
0.395,0.05,0.17,0.77,0.57,-0.65,-1.59,
0.397,0.05,0.17,0.76,0.57,-0.65,-1.59,
0.4,0.04,0.16,0.75,0.57,-0.65,-1.59,
0.4,0.04,0.16,0.75,0.54,-0.70,-1.66,
0.402,0.04,0.16,0.74,0.54,-0.70,-1.66,
0.405,0.03,0.16,0.74,0.54,-0.70,-1.66,
0.405,0.03,0.16,0.74,0.49,-0.76,-1.81,
0.407,0.04,0.16,0.72,0.49,-0.76,-1.81,
0.41,0.04,0.15,0.72,0.49,-0.76,-1.81,
0.41,0.04,0.15,0.72,0.41,-0.84,-1.94,
0.412,0.04,0.15,0.70,0.41,-0.84,-1.94,
0.415,0.04,0.15,0.69,0.41,-0.84,-1.94,
0.415,0.04,0.15,0.69,0.46,-0.90,-2.12,
0.417,0.04,0.14,0.68,0.46,-0.90,-2.12,
0.42,0.04,0.14,0.67,0.46,-0.90,-2.12,
0.42,0.04,0.14,0.67,0.46,-0.97,-2.31,
0.422,0.04,0.14,0.66,0.46,-0.97,-2.31,
0.424,0.03,0.14,0.64,0.46,-0.97,-2.31,
0.425,0.03,0.14,0.64,0.50,-1.04,-2.55,
0.427,0.03,0.14,0.64,0.50,-1.04,-2.55,
0.429,0.03,0.14,0.62,0.50,-1.04,-2.55,
0.43,0.03,0.14,0.62,0.50,-1.07,-2.73,
0.432,0.03,0.14,0.61,0.50,-1.07,-2.73,
0.435,0.03,0.14,0.61,0.50,-1.07,-2.73,
0.435,0.03,0.14,0.61,0.43,-1.13,-2.93,
0.438,0.03,0.14,0.60,0.43,-1.13,-2.93,
0.44,0.03,0.14,0.59,0.43,-1.13,-2.93,
0.44,0.03,0.14,0.59,0.46,-1.11,-3.08,
0.443,0.03,0.14,0.59,0.46,-1.11,-3.08,
0.445,0.03,0.15,0.58,0.46,-1.11,-3.08,
0.445,0.03,0.15,0.58,0.48,-1.12,-3.22,
0.448,0.03,0.15,0.58,0.48,-1.12,-3.22,
0.455,0.03,0.15,0.58,0.48,-1.12,-3.22,
0.455,0.03,0.15,0.58,0.51,-1.05,-3.32,
0.456,0.03,0.15,0.58,0.51,-1.05,-3.32,
0.456,0.04,0.16,0.57,0.51,-1.05,-3.32,
0.456,0.04,0.16,0.57,0.53,-0.99,-3.35,
0.458,0.04,0.16,0.57,0.53,-0.99,-3.35,
0.459,0.04,0.16,0.58,0.53,-0.99,-3.35,
0.46,0.04,0.16,0.58,0.60,-0.96,-3.33,
0.462,0.04,0.17,0.58,0.60,-0.96,-3.33,
0.464,0.04,0.17,0.58,0.60,-0.96,-3.33,
0.465,0.04,0.17,0.58,0.67,-0.91,-3.32,
0.468,0.04,0.17,0.59,0.67,-0.91,-3.32,
0.469,0.04,0.18,0.60,0.67,-0.91,-3.32,
0.47,0.04,0.18,0.60,0.67,-0.83,-3.23,
0.472,0.05,0.19,0.61,0.67,-0.83,-3.23,
0.474,0.05,0.19,0.61,0.67,-0.83,-3.23,
0.475,0.05,0.19,0.61,0.72,-0.76,-3.11,
0.477,0.05,0.19,0.62,0.72,-0.76,-3.11,
0.479,0.05,0.19,0.63,0.72,-0.76,-3.11,
0.479,0.05,0.19,0.63,0.76,-0.62,-2.98,
0.483,0.05,0.20,0.64,0.76,-0.62,-2.98,
0.485,0.05,0.21,0.66,0.76,-0.62,-2.98,
0.485,0.05,0.21,0.66,0.77,-0.57,-2.80,
0.487,0.05,0.21,0.67,0.77,-0.57,-2.80,
0.489,0.06,0.22,0.69,0.77,-0.57,-2.80,
0.489,0.06,0.22,0.69,0.79,-0.42,-2.52,
0.492,0.06,0.22,0.70,0.79,-0.42,-2.52,
0.494,0.06,0.22,0.72,0.79,-0.42,-2.52,
0.494,0.06,0.22,0.72,0.79,-0.33,-2.25,
0.497,0.07,0.22,0.72,0.79,-0.33,-2.25,
0.5,0.07,0.22,0.74,0.79,-0.33,-2.25,
0.501,0.07,0.22,0.74,0.83,-0.28,-1.95,
0.501,0.08,0.22,0.75,0.83,-0.28,-1.95,
0.504,0.08,0.22,0.76,0.83,-0.28,-1.95,
0.504,0.08,0.22,0.76,0.85,-0.25,-1.71,
0.506,0.09,0.21,0.77,0.85,-0.25,-1.71,
0.509,0.09,0.21,0.77,0.93,-0.26,-1.46,
0.509,0.10,0.21,0.78,0.93,-0.26,-1.46,
0.511,0.10,0.21,0.78,0.93,-0.26,-1.46,
0.514,0.10,0.20,0.78,0.93,-0.26,-1.46,
0.514,0.10,0.20,0.78,1.04,-0.31,-1.29,
0.516,0.11,0.20,0.78,1.04,-0.31,-1.29,
0.519,0.11,0.20,0.78,1.04,-0.31,-1.29,
0.519,0.11,0.20,0.78,1.09,-0.36,-1.25,
0.521,0.12,0.19,0.78,1.09,-0.36,-1.25,
0.524,0.12,0.19,0.78,1.09,-0.36,-1.25,
0.524,0.12,0.19,0.78,1.17,-0.41,-1.22,
0.526,0.13,0.18,0.77,1.17,-0.41,-1.22,
0.529,0.12,0.18,0.77,1.17,-0.41,-1.22,
0.53,0.12,0.18,0.77,1.23,-0.48,-1.26,
0.531,0.13,0.18,0.76,1.23,-0.48,-1.26,
0.534,0.13,0.18,0.76,1.24,-0.57,-1.31,
0.535,0.13,0.17,0.76,1.24,-0.57,-1.31,
0.536,0.14,0.17,0.75,1.24,-0.57,-1.31,
0.539,0.14,0.16,0.74,1.24,-0.57,-1.31,
0.539,0.14,0.16,0.74,1.28,-0.62,-1.45,
0.541,0.14,0.16,0.73,1.28,-0.62,-1.45,
0.543,0.14,0.15,0.72,1.28,-0.62,-1.45,
0.544,0.14,0.15,0.72,1.32,-0.70,-1.60,
0.546,0.15,0.15,0.71,1.32,-0.70,-1.60,
0.548,0.15,0.15,0.70,1.32,-0.70,-1.60,
0.549,0.15,0.15,0.70,1.32,-0.77,-1.76,
0.554,0.15,0.15,0.70,1.32,-0.77,-1.76,
0.554,0.15,0.15,0.70,1.32,-0.77,-1.76,
0.555,0.15,0.15,0.70,1.42,-0.83,-1.93,
0.556,0.15,0.15,0.70,1.42,-0.83,-1.93,
0.558,0.15,0.15,0.70,1.42,-0.81,-2.00,
0.559,0.14,0.15,0.70,1.42,-0.81,-2.00,
0.561,0.14,0.15,0.70,1.42,-0.81,-2.00,
0.563,0.13,0.15,0.70,1.42,-0.81,-2.00,
0.563,0.13,0.15,0.70,1.37,-0.75,-2.03,
0.567,0.13,0.16,0.71,1.37,-0.75,-2.03,
0.568,0.12,0.16,0.72,1.37,-0.75,-2.03,
0.568,0.12,0.16,0.72,1.26,-0.72,-1.98,
0.571,0.11,0.17,0.73,1.26,-0.72,-1.98,
0.573,0.11,0.19,0.73,1.26,-0.72,-1.98,
0.573,0.11,0.19,0.73,1.14,-0.59,-1.86,
0.576,0.10,0.21,0.75,1.14,-0.59,-1.86,
0.578,0.09,0.22,0.76,1.14,-0.59,-1.86,
0.578,0.09,0.22,0.76,0.97,-0.36,-1.72,
0.581,0.09,0.23,0.78,0.97,-0.36,-1.72,
0.584,0.08,0.25,0.78,0.97,-0.36,-1.72,
0.584,0.08,0.25,0.78,0.82,-0.00,-1.44,
0.586,0.07,0.27,0.80,0.82,-0.00,-1.44,
0.588,0.07,0.28,0.82,0.82,-0.00,-1.44,
0.588,0.07,0.28,0.82,0.68,0.31,-1.20,
0.591,0.07,0.28,0.83,0.68,0.31,-1.20,
0.593,0.08,0.29,0.85,0.68,0.31,-1.20,
0.593,0.08,0.29,0.85,0.53,0.66,-0.93,
0.596,0.08,0.29,0.86,0.53,0.66,-0.93,
0.598,0.09,0.30,0.87,0.53,0.66,-0.93,
0.598,0.09,0.30,0.87,0.50,0.79,-0.64,
0.6,0.10,0.30,0.89,0.50,0.79,-0.64,
0.603,0.12,0.29,0.90,0.50,0.79,-0.64,
0.603,0.12,0.29,0.90,0.53,0.93,-0.37,
0.605,0.13,0.29,0.91,0.53,0.93,-0.37,
0.608,0.13,0.29,0.91,0.71,0.97,-0.14,
0.608,0.14,0.28,0.92,0.71,0.97,-0.14,
0.61,0.15,0.27,0.93,0.71,0.97,-0.14,
0.613,0.16,0.25,0.94,0.71,0.97,-0.14,
0.613,0.16,0.25,0.94,0.90,0.88,0.07,
0.615,0.17,0.24,0.95,0.90,0.88,0.07,
0.618,0.17,0.23,0.96,0.90,0.88,0.07,
0.619,0.17,0.23,0.96,1.06,0.67,0.24,
0.62,0.18,0.21,0.97,1.06,0.67,0.24,
0.623,0.18,0.19,0.99,1.06,0.67,0.24,
0.623,0.18,0.19,0.99,1.11,0.44,0.46,
0.625,0.18,0.17,1.00,1.11,0.44,0.46,
0.628,0.18,0.15,1.02,1.11,0.44,0.46,
0.628,0.18,0.15,1.02,1.14,0.16,0.67,
0.63,0.18,0.13,1.03,1.14,0.16,0.67,
0.634,0.18,0.11,1.04,1.14,0.16,0.67,
0.634,0.18,0.11,1.04,1.11,-0.12,1.00,
0.635,0.18,0.10,1.05,1.11,-0.12,1.00,
0.638,0.17,0.08,1.06,1.11,-0.12,1.00,
0.638,0.17,0.08,1.06,1.01,-0.50,1.22,
0.64,0.16,0.07,1.07,1.01,-0.50,1.22,
0.643,0.15,0.05,1.08,1.01,-0.50,1.22,
0.643,0.15,0.05,1.08,0.90,-0.75,1.43,
0.645,0.16,0.04,1.08,0.90,-0.75,1.43,
0.647,0.15,0.04,1.08,0.90,-0.75,1.43,
0.648,0.15,0.04,1.08,0.73,-0.97,1.61,
0.65,0.14,0.03,1.09,0.73,-0.97,1.61,
0.652,0.14,0.03,1.08,0.73,-0.97,1.61,
0.653,0.14,0.03,1.08,0.64,-1.10,1.67,
0.655,0.14,0.03,1.08,0.64,-1.10,1.67,
0.658,0.13,0.03,1.09,0.64,-1.10,1.67,
0.66,0.13,0.03,1.09,0.49,-1.18,1.65,
0.661,0.12,0.04,1.08,0.49,-1.18,1.65,
0.663,0.11,0.04,1.09,0.49,-1.18,1.65,
0.663,0.11,0.04,1.09,0.40,-1.12,1.64,
0.665,0.10,0.05,1.09,0.40,-1.12,1.64,
0.673,0.10,0.06,1.09,0.40,-1.12,1.64,
0.673,0.10,0.06,1.09,0.21,-0.92,1.63,
0.673,0.10,0.07,1.10,0.21,-0.92,1.63,
0.674,0.10,0.08,1.10,0.21,-0.92,1.63,
0.674,0.10,0.08,1.10,0.02,-0.74,1.70,
0.675,0.09,0.08,1.10,0.02,-0.74,1.70,
0.678,0.09,0.08,1.10,0.02,-0.74,1.70,
0.678,0.09,0.08,1.10,-0.01,-0.48,1.74,
0.68,0.09,0.08,1.10,-0.01,-0.48,1.74,
0.683,0.09,0.09,1.10,-0.01,-0.48,1.74,
0.683,0.09,0.09,1.10,-0.09,-0.32,1.72,
0.685,0.09,0.09,1.10,-0.09,-0.32,1.72,
0.687,0.10,0.09,1.11,-0.09,-0.32,1.72,
0.687,0.10,0.09,1.11,-0.12,-0.25,1.70,
0.69,0.11,0.09,1.11,-0.12,-0.25,1.70,
0.692,0.11,0.09,1.12,-0.12,-0.25,1.70,
0.693,0.11,0.09,1.12,-0.10,-0.14,1.75,
0.695,0.11,0.09,1.12,-0.10,-0.14,1.75,
0.698,0.13,0.09,1.12,-0.10,-0.14,1.75,
0.698,0.13,0.09,1.12,0.01,-0.06,1.82,
0.7,0.13,0.10,1.14,0.01,-0.06,1.82,
0.702,0.13,0.10,1.14,0.01,-0.06,1.82,
0.702,0.13,0.10,1.14,0.09,0.03,1.90,
0.705,0.13,0.10,1.14,0.09,0.03,1.90,
0.707,0.13,0.10,1.15,0.09,0.03,1.90,
0.707,0.13,0.10,1.15,0.16,0.17,2.06,
0.71,0.13,0.10,1.15,0.16,0.17,2.06,
0.713,0.13,0.10,1.16,0.16,0.17,2.06,
0.713,0.13,0.10,1.16,0.15,0.27,2.09,
0.715,0.14,0.09,1.15,0.15,0.27,2.09,
0.718,0.15,0.08,1.16,0.15,0.27,2.09,
0.719,0.15,0.08,1.16,0.13,0.29,2.19,
0.72,0.16,0.07,1.17,0.13,0.29,2.19,
0.722,0.16,0.06,1.17,0.13,0.29,2.19,
0.722,0.16,0.06,1.17,0.23,0.27,2.21,
0.725,0.17,0.05,1.17,0.23,0.27,2.21,
0.727,0.17,0.04,1.18,0.23,0.27,2.21,
0.728,0.17,0.04,1.18,0.31,0.12,2.33,
0.73,0.17,0.03,1.18,0.31,0.12,2.33,
0.732,0.18,0.03,1.18,0.31,0.12,2.33,
0.733,0.18,0.03,1.18,0.37,0.01,2.38,
0.734,0.17,0.02,1.19,0.37,0.01,2.38,
0.737,0.17,0.01,1.19,0.37,0.01,2.38,
0.737,0.17,0.01,1.19,0.40,-0.11,2.41,
0.74,0.18,0.00,1.20,0.40,-0.11,2.41,
0.742,0.18,0.00,1.20,0.34,-0.16,2.53,
0.743,0.18,0.00,1.21,0.34,-0.16,2.53,
0.745,0.19,-0.00,1.22,0.34,-0.16,2.53,
0.747,0.18,0.00,1.22,0.34,-0.16,2.53,
0.748,0.18,0.00,1.22,0.38,-0.25,2.63,
0.75,0.18,-0.00,1.24,0.38,-0.25,2.63,
0.752,0.18,-0.01,1.25,0.38,-0.25,2.63,
0.752,0.18,-0.01,1.25,0.39,-0.20,2.78,
0.754,0.17,-0.01,1.26,0.39,-0.20,2.78,
0.757,0.17,-0.01,1.27,0.39,-0.20,2.78,
0.757,0.17,-0.01,1.27,0.28,-0.16,3.02,
0.76,0.16,-0.01,1.28,0.28,-0.16,3.02,
0.762,0.16,-0.02,1.29,0.28,-0.16,3.02,
0.762,0.16,-0.02,1.29,0.15,-0.14,3.22,
0.765,0.15,-0.03,1.31,0.15,-0.14,3.22,
0.771,0.15,-0.04,1.33,0.15,-0.14,3.22,
0.772,0.15,-0.04,1.33,0.02,-0.15,3.43,
0.772,0.15,-0.05,1.33,0.02,-0.15,3.43,
0.772,0.15,-0.05,1.33,-0.07,-0.23,3.73,
0.772,0.15,-0.06,1.34,-0.07,-0.23,3.73,
0.774,0.15,-0.06,1.35,-0.07,-0.23,3.73,
0.777,0.14,-0.07,1.36,-0.07,-0.23,3.73,
0.777,0.14,-0.07,1.36,-0.15,-0.36,3.91,
0.779,0.14,-0.08,1.37,-0.15,-0.36,3.91,
0.782,0.14,-0.08,1.37,-0.26,-0.47,4.03,
0.783,0.13,-0.08,1.37,-0.26,-0.47,4.03,
0.784,0.13,-0.10,1.37,-0.26,-0.47,4.03,
0.786,0.14,-0.10,1.37,-0.26,-0.47,4.03,
0.787,0.14,-0.10,1.37,-0.37,-0.54,4.19,
0.789,0.14,-0.10,1.36,-0.37,-0.54,4.19,
0.791,0.14,-0.11,1.36,-0.37,-0.54,4.19,
0.791,0.14,-0.11,1.36,-0.41,-0.65,4.21,
0.794,0.14,-0.11,1.35,-0.41,-0.65,4.21,
0.796,0.14,-0.11,1.34,-0.41,-0.65,4.21,
0.796,0.14,-0.11,1.34,-0.36,-0.67,4.08,
0.799,0.15,-0.11,1.33,-0.36,-0.67,4.08,
0.802,0.14,-0.11,1.32,-0.36,-0.67,4.08,
0.803,0.14,-0.11,1.32,-0.36,-0.66,3.93,
0.803,0.15,-0.10,1.31,-0.36,-0.66,3.93,
0.806,0.14,-0.09,1.29,-0.36,-0.66,3.93,
0.807,0.14,-0.09,1.29,-0.37,-0.61,3.73,
0.808,0.15,-0.09,1.27,-0.37,-0.61,3.73,
0.811,0.16,-0.09,1.25,-0.37,-0.61,3.73,
0.811,0.16,-0.09,1.25,-0.37,-0.45,3.46,
0.813,0.16,-0.09,1.24,-0.37,-0.45,3.46,
0.818,0.17,-0.08,1.22,-0.37,-0.45,3.46,
0.819,0.17,-0.08,1.22,-0.27,-0.36,3.12,
0.819,0.17,-0.08,1.20,-0.27,-0.36,3.12,
0.822,0.16,-0.08,1.19,-0.27,-0.36,3.12,
0.822,0.16,-0.08,1.19,-0.17,-0.26,2.81,
0.824,0.17,-0.08,1.18,-0.17,-0.26,2.81,
0.826,0.17,-0.08,1.18,-0.17,-0.26,2.81,
0.827,0.17,-0.08,1.18,-0.18,-0.15,2.47,
0.828,0.17,-0.07,1.16,-0.18,-0.15,2.47,
0.831,0.17,-0.08,1.16,-0.18,-0.15,2.47,
0.831,0.17,-0.08,1.16,-0.16,-0.08,2.29,
0.833,0.18,-0.08,1.15,-0.16,-0.08,2.29,
0.837,0.18,-0.08,1.14,-0.16,-0.08,2.29,
0.837,0.18,-0.08,1.14,-0.14,-0.03,2.06,
0.838,0.18,-0.08,1.14,-0.14,-0.03,2.06,
0.841,0.18,-0.08,1.14,-0.05,-0.03,1.96,
0.841,0.18,-0.09,1.14,-0.05,-0.03,1.96,
0.843,0.18,-0.09,1.14,-0.05,-0.03,1.96,
0.845,0.18,-0.09,1.14,-0.05,-0.03,1.96,
0.846,0.18,-0.09,1.14,-0.05,-0.04,1.86,
0.848,0.17,-0.09,1.14,-0.05,-0.04,1.86,
0.851,0.17,-0.10,1.14,-0.05,-0.04,1.86,
0.851,0.17,-0.10,1.14,-0.05,-0.05,1.85,
0.853,0.16,-0.11,1.15,-0.05,-0.05,1.85,
0.856,0.16,-0.11,1.16,-0.05,-0.05,1.85,
0.856,0.16,-0.11,1.16,-0.18,-0.07,1.91,
0.858,0.16,-0.11,1.18,-0.18,-0.07,1.91,
0.86,0.16,-0.11,1.19,-0.18,-0.07,1.91,
0.861,0.16,-0.11,1.19,-0.21,-0.13,2.01,
0.864,0.15,-0.11,1.20,-0.21,-0.13,2.01,
0.865,0.15,-0.11,1.21,-0.21,-0.13,2.01,
0.866,0.15,-0.11,1.21,-0.29,-0.06,2.28,
0.872,0.14,-0.10,1.21,-0.29,-0.06,2.28,
0.872,0.14,-0.10,1.23,-0.29,-0.06,2.28,
0.872,0.14,-0.10,1.23,-0.39,-0.02,2.48,
0.873,0.14,-0.11,1.23,-0.39,-0.02,2.48,
0.876,0.14,-0.11,1.24,-0.39,-0.02,2.48,
0.876,0.14,-0.11,1.24,-0.46,0.06,2.66,
0.878,0.14,-0.11,1.25,-0.46,0.06,2.66,
0.88,0.14,-0.12,1.26,-0.46,0.06,2.66,
0.88,0.14,-0.12,1.26,-0.52,0.04,2.84,
0.883,0.14,-0.12,1.26,-0.52,0.04,2.84,
0.886,0.15,-0.13,1.26,-0.52,0.04,2.84,
0.887,0.15,-0.13,1.26,-0.51,0.03,2.99,
0.888,0.15,-0.13,1.27,-0.51,0.03,2.99,
0.89,0.16,-0.14,1.27,-0.51,0.03,2.99,
0.89,0.16,-0.14,1.27,-0.47,-0.02,3.09,
0.893,0.16,-0.14,1.27,-0.47,-0.02,3.09,
0.895,0.16,-0.14,1.27,-0.38,-0.07,3.17,
0.895,0.16,-0.14,1.27,-0.38,-0.07,3.17,
0.897,0.16,-0.14,1.27,-0.38,-0.07,3.17,
0.9,0.16,-0.15,1.27,-0.38,-0.07,3.17,
0.9,0.16,-0.15,1.27,-0.35,-0.11,3.16,
0.902,0.17,-0.15,1.26,-0.35,-0.11,3.16,
0.906,0.17,-0.14,1.26,-0.35,-0.11,3.16,
0.906,0.17,-0.14,1.26,-0.32,-0.10,3.15,
0.907,0.18,-0.14,1.24,-0.32,-0.10,3.15,
0.91,0.19,-0.14,1.23,-0.32,-0.10,3.15,
0.91,0.19,-0.14,1.23,-0.21,-0.10,3.03,
0.912,0.19,-0.14,1.22,-0.21,-0.10,3.03,
0.915,0.20,-0.13,1.20,-0.21,-0.10,3.03,
0.915,0.20,-0.13,1.20,-0.09,-0.05,2.80,
0.92,0.20,-0.12,1.19,-0.09,-0.05,2.80,
0.921,0.20,-0.12,1.18,-0.09,-0.05,2.80,
0.921,0.20,-0.12,1.18,0.00,0.04,2.55,
0.922,0.20,-0.11,1.17,0.00,0.04,2.55,
0.925,0.21,-0.10,1.15,0.00,0.04,2.55,
0.925,0.21,-0.10,1.15,0.07,0.18,2.27,
0.927,0.21,-0.09,1.14,0.07,0.18,2.27,
0.931,0.20,-0.08,1.13,0.07,0.18,2.27,
0.931,0.20,-0.08,1.13,0.13,0.35,1.99,
0.932,0.21,-0.07,1.12,0.13,0.35,1.99,
0.935,0.21,-0.06,1.12,0.13,0.35,1.99,
0.936,0.21,-0.06,1.12,0.15,0.57,1.80,
0.937,0.21,-0.05,1.12,0.15,0.57,1.80,
0.94,0.21,-0.05,1.12,0.15,0.57,1.80,
0.94,0.21,-0.05,1.12,0.17,0.75,1.62,
0.942,0.21,-0.04,1.12,0.17,0.75,1.62,
0.945,0.21,-0.04,1.12,0.19,0.93,1.61,
0.945,0.20,-0.04,1.12,0.19,0.93,1.61,
0.947,0.21,-0.04,1.12,0.19,0.93,1.61,
0.949,0.21,-0.04,1.13,0.19,0.93,1.61,
0.95,0.21,-0.04,1.13,0.17,1.03,1.62,
0.953,0.21,-0.04,1.12,0.17,1.03,1.62,
0.955,0.21,-0.04,1.12,0.18,1.04,1.62,
0.955,0.21,-0.05,1.13,0.18,1.04,1.62,
0.957,0.21,-0.06,1.13,0.18,1.04,1.62,
0.96,0.21,-0.06,1.13,0.23,0.99,1.64,
0.96,0.22,-0.06,1.13,0.23,0.99,1.64,
0.962,0.22,-0.07,1.12,0.23,0.99,1.64,
0.964,0.22,-0.07,1.12,0.23,0.99,1.64,
0.964,0.22,-0.07,1.12,0.30,0.88,1.65,
0.967,0.21,-0.08,1.12,0.30,0.88,1.65,
0.972,0.21,-0.08,1.12,0.30,0.88,1.65,
0.973,0.21,-0.08,1.12,0.34,0.77,1.57,
0.973,0.22,-0.09,1.12,0.34,0.77,1.57,
0.974,0.22,-0.08,1.11,0.34,0.77,1.57,
0.974,0.22,-0.08,1.11,0.27,0.67,1.56,
0.977,0.21,-0.08,1.11,0.27,0.67,1.56,
0.979,0.21,-0.08,1.11,0.30,0.62,1.51,
0.98,0.21,-0.08,1.11,0.30,0.62,1.51,
0.982,0.21,-0.08,1.11,0.30,0.62,1.51,
0.986,0.21,-0.08,1.10,0.30,0.62,1.51,
0.986,0.21,-0.08,1.10,0.25,0.65,1.44,
0.987,0.21,-0.08,1.10,0.25,0.65,1.44,
0.99,0.21,-0.08,1.10,0.25,0.65,1.44,
0.99,0.21,-0.08,1.10,0.20,0.64,1.41,
0.992,0.20,-0.08,1.10,0.20,0.64,1.41,
0.994,0.20,-0.08,1.09,0.20,0.64,1.41,
0.995,0.20,-0.08,1.09,0.22,0.65,1.39,
0.997,0.20,-0.08,1.09,0.22,0.65,1.39,
0.999,0.20,-0.08,1.09,0.22,0.65,1.39,
0.999,0.20,-0.08,1.09,0.14,0.64,1.35,
1.003,0.20,-0.08,1.09,0.14,0.64,1.35,
1.006,0.19,-0.08,1.09,0.14,0.64,1.35,
1.006,0.19,-0.08,1.09,0.11,0.63,1.28,
1.006,0.19,-0.08,1.09,0.11,0.63,1.28,
1.009,0.20,-0.08,1.08,0.11,0.63,1.28,
1.01,0.20,-0.08,1.08,0.10,0.65,1.26,
1.012,0.20,-0.08,1.09,0.10,0.65,1.26,
1.015,0.20,-0.09,1.09,0.10,0.65,1.26,
1.015,0.20,-0.09,1.09,0.08,0.62,1.25,
1.017,0.20,-0.09,1.09,0.08,0.62,1.25,
1.019,0.20,-0.10,1.09,0.08,0.62,1.25,
1.02,0.20,-0.10,1.09,0.14,0.58,1.22,
1.021,0.20,-0.10,1.08,0.14,0.58,1.22,
1.024,0.19,-0.10,1.08,0.14,0.58,1.22,
1.024,0.19,-0.10,1.08,0.13,0.46,1.20,
1.027,0.20,-0.10,1.08,0.13,0.46,1.20,
1.03,0.20,-0.10,1.08,0.13,0.46,1.20,
1.03,0.20,-0.10,1.08,0.08,0.41,1.17,
1.032,0.19,-0.10,1.09,0.08,0.41,1.17,
1.034,0.19,-0.10,1.09,0.08,0.41,1.17,
1.035,0.19,-0.10,1.09,0.13,0.39,1.17,
1.037,0.20,-0.11,1.09,0.13,0.39,1.17,
1.039,0.20,-0.11,1.09,0.13,0.39,1.17,
1.039,0.20,-0.11,1.09,0.06,0.39,1.19,
1.042,0.20,-0.11,1.09,0.06,0.39,1.19,
1.044,0.20,-0.11,1.09,0.06,0.39,1.19,
1.044,0.20,-0.11,1.09,0.13,0.34,1.21,
1.046,0.20,-0.11,1.09,0.13,0.34,1.21,
1.049,0.20,-0.11,1.10,0.13,0.34,1.21,
1.049,0.20,-0.11,1.10,0.13,0.34,1.23,
1.052,0.21,-0.11,1.10,0.13,0.34,1.23,
1.054,0.21,-0.11,1.10,0.17,0.33,1.26,
1.055,0.21,-0.11,1.10,0.17,0.33,1.26,
1.056,0.21,-0.11,1.10,0.17,0.33,1.26,
1.059,0.21,-0.11,1.11,0.17,0.33,1.26,
1.059,0.21,-0.11,1.11,0.22,0.30,1.33,
1.062,0.21,-0.11,1.11,0.22,0.30,1.33,
1.064,0.21,-0.11,1.11,0.22,0.30,1.33,
1.064,0.21,-0.11,1.11,0.26,0.30,1.33,
1.066,0.21,-0.11,1.12,0.26,0.30,1.33,
1.073,0.22,-0.11,1.12,0.26,0.30,1.33,
1.074,0.22,-0.11,1.12,0.26,0.34,1.38,
1.074,0.22,-0.10,1.14,0.26,0.34,1.38,
1.074,0.22,-0.10,1.15,0.26,0.34,1.38,
1.074,0.22,-0.10,1.15,0.31,0.31,1.50,
1.076,0.22,-0.10,1.15,0.31,0.31,1.50,
1.079,0.23,-0.10,1.16,0.31,0.31,1.50,
1.079,0.23,-0.10,1.16,0.34,0.36,1.72,
1.082,0.23,-0.09,1.17,0.34,0.36,1.72,
1.084,0.23,-0.09,1.19,0.34,0.36,1.72,
1.084,0.23,-0.09,1.19,0.40,0.38,1.84,
1.087,0.23,-0.09,1.20,0.40,0.38,1.84,
1.088,0.23,-0.08,1.20,0.40,0.38,1.84,
1.088,0.23,-0.08,1.20,0.45,0.47,2.08,
1.091,0.24,-0.08,1.21,0.45,0.47,2.08,
1.094,0.24,-0.08,1.21,0.45,0.47,2.08,
1.094,0.24,-0.08,1.21,0.46,0.53,2.26,
1.097,0.25,-0.08,1.21,0.46,0.53,2.26,
1.099,0.25,-0.08,1.21,0.54,0.60,2.34,
1.099,0.25,-0.08,1.22,0.54,0.60,2.34,
1.103,0.25,-0.08,1.22,0.54,0.60,2.34,
1.103,0.25,-0.09,1.22,0.54,0.60,2.34,
1.104,0.25,-0.09,1.22,0.60,0.59,2.37,
1.105,0.26,-0.09,1.22,0.60,0.59,2.37,
1.109,0.27,-0.09,1.23,0.60,0.59,2.37,
1.11,0.27,-0.09,1.23,0.62,0.53,2.38,
1.111,0.27,-0.09,1.23,0.62,0.53,2.38,
1.113,0.28,-0.09,1.23,0.62,0.53,2.38,
1.113,0.28,-0.09,1.23,0.75,0.48,2.44,
1.116,0.28,-0.09,1.23,0.75,0.48,2.44,
1.118,0.28,-0.09,1.23,0.75,0.48,2.44,
1.118,0.28,-0.09,1.23,0.89,0.41,2.50,
1.121,0.28,-0.08,1.23,0.89,0.41,2.50,
1.123,0.28,-0.08,1.23,0.93,0.43,2.49,
1.124,0.27,-0.08,1.24,0.93,0.43,2.49,
1.126,0.28,-0.07,1.24,0.93,0.43,2.49,
1.128,0.28,-0.07,1.25,0.93,0.43,2.49,
1.128,0.28,-0.07,1.25,0.86,0.51,2.55,
1.13,0.27,-0.07,1.25,0.86,0.51,2.55,
1.133,0.27,-0.06,1.25,0.86,0.51,2.55,
1.133,0.27,-0.06,1.25,0.86,0.58,2.63,
1.136,0.27,-0.06,1.25,0.86,0.58,2.63,
1.138,0.28,-0.06,1.26,0.86,0.58,2.63,
1.138,0.28,-0.06,1.26,0.84,0.63,2.62,
1.14,0.28,-0.06,1.26,0.84,0.63,2.62,
1.143,0.28,-0.06,1.27,0.84,0.63,2.62,
1.143,0.28,-0.06,1.27,0.87,0.67,2.69,
1.145,0.27,-0.05,1.27,0.87,0.67,2.69,
1.147,0.27,-0.06,1.28,0.87,0.67,2.69,
1.148,0.27,-0.06,1.28,0.88,0.66,2.76,
1.15,0.27,-0.06,1.27,0.88,0.66,2.76,
1.153,0.27,-0.05,1.28,0.88,0.66,2.76,
1.155,0.27,-0.05,1.28,0.84,0.67,2.86,
1.155,0.27,-0.06,1.28,0.84,0.67,2.86,
1.158,0.27,-0.06,1.28,0.84,0.67,2.86,
1.158,0.27,-0.06,1.28,0.86,0.66,2.87,
1.16,0.27,-0.06,1.29,0.86,0.66,2.87,
1.162,0.27,-0.07,1.28,0.86,0.66,2.87,
1.163,0.27,-0.07,1.28,0.81,0.59,2.90,
1.165,0.26,-0.07,1.28,0.81,0.59,2.90,
1.168,0.26,-0.07,1.28,0.81,0.59,2.90,
1.168,0.26,-0.07,1.28,0.82,0.50,2.92,
1.17,0.26,-0.08,1.28,0.82,0.50,2.92,
1.173,0.25,-0.08,1.28,0.82,0.50,2.92,
1.173,0.25,-0.08,1.28,0.74,0.42,2.89,
1.175,0.24,-0.08,1.27,0.74,0.42,2.89,
1.177,0.23,-0.08,1.27,0.74,0.42,2.89,
1.177,0.23,-0.08,1.27,0.67,0.34,2.82,
1.18,0.23,-0.09,1.27,0.67,0.34,2.82,
1.183,0.22,-0.09,1.27,0.67,0.34,2.82,
1.183,0.22,-0.09,1.27,0.51,0.30,2.78,
1.185,0.22,-0.09,1.26,0.51,0.30,2.78,
1.191,0.22,-0.09,1.26,0.51,0.30,2.78,
1.192,0.22,-0.09,1.26,0.39,0.18,2.77,
1.192,0.21,-0.09,1.25,0.39,0.18,2.77,
1.192,0.21,-0.09,1.25,0.39,0.18,2.77,
1.192,0.21,-0.09,1.25,0.32,0.14,2.65,
1.195,0.21,-0.10,1.24,0.32,0.14,2.65,
1.197,0.21,-0.10,1.24,0.32,0.14,2.65,
1.197,0.21,-0.10,1.24,0.23,0.07,2.56,
1.2,0.20,-0.10,1.24,0.23,0.07,2.56,
1.205,0.20,-0.09,1.23,0.23,0.07,2.56,
1.206,0.20,-0.09,1.23,0.22,0.00,2.41,
1.206,0.20,-0.10,1.22,0.22,0.00,2.41,
1.207,0.20,-0.10,1.21,0.22,0.00,2.41,
1.207,0.20,-0.10,1.21,0.16,-0.03,2.35,
1.21,0.20,-0.10,1.20,0.16,-0.03,2.35,
1.212,0.21,-0.10,1.20,0.16,-0.03,2.35,
1.213,0.21,-0.10,1.20,0.17,-0.06,2.17,
1.215,0.20,-0.10,1.19,0.17,-0.06,2.17,
1.217,0.21,-0.10,1.19,0.17,-0.06,2.17,
1.217,0.21,-0.10,1.19,0.20,-0.09,1.98,
1.22,0.21,-0.09,1.18,0.20,-0.09,1.98,
1.222,0.21,-0.09,1.18,0.20,-0.09,1.98,
1.223,0.21,-0.09,1.18,0.21,-0.15,1.89,
1.225,0.21,-0.09,1.18,0.21,-0.15,1.89,
1.229,0.21,-0.09,1.18,0.27,-0.10,1.79,
1.23,0.21,-0.08,1.16,0.27,-0.10,1.79,
1.23,0.21,-0.08,1.16,0.27,-0.10,1.79,
1.232,0.21,-0.08,1.15,0.27,-0.10,1.79,
1.233,0.21,-0.08,1.15,0.27,-0.09,1.67,
1.234,0.21,-0.08,1.15,0.27,-0.09,1.67,
1.237,0.21,-0.07,1.13,0.27,-0.09,1.67,
1.237,0.21,-0.07,1.13,0.26,-0.07,1.51,
1.24,0.20,-0.07,1.14,0.26,-0.07,1.51,
1.242,0.20,-0.06,1.13,0.26,-0.07,1.51,
1.242,0.20,-0.06,1.13,0.23,-0.05,1.39,
1.245,0.20,-0.06,1.13,0.23,-0.05,1.39,
1.247,0.20,-0.06,1.13,0.23,-0.05,1.39,
1.247,0.20,-0.06,1.13,0.20,0.01,1.32,
1.25,0.20,-0.05,1.13,0.20,0.01,1.32,
1.252,0.19,-0.05,1.12,0.20,0.01,1.32,
1.252,0.19,-0.05,1.12,0.16,0.03,1.25,
1.254,0.19,-0.05,1.11,0.16,0.03,1.25,
1.257,0.20,-0.05,1.10,0.16,0.03,1.25,
1.257,0.20,-0.05,1.10,0.13,0.07,1.19,
1.26,0.19,-0.04,1.10,0.13,0.07,1.19,
1.262,0.18,-0.04,1.09,0.13,0.07,1.19,
1.262,0.18,-0.04,1.09,0.13,0.07,0.99,
1.265,0.19,-0.04,1.09,0.13,0.07,0.99,
1.266,0.18,-0.04,1.09,0.13,0.07,0.99,
1.267,0.18,-0.04,1.09,0.07,0.10,0.91,
1.269,0.18,-0.04,1.08,0.07,0.10,0.91,
1.271,0.18,-0.04,1.08,0.07,0.10,0.91,
1.272,0.18,-0.04,1.08,0.04,0.08,0.84,
1.274,0.17,-0.04,1.08,0.04,0.08,0.84,
1.278,0.17,-0.04,1.08,-0.01,0.08,0.77,
1.278,0.17,-0.04,1.07,-0.01,0.08,0.77,
1.28,0.17,-0.03,1.07,-0.01,0.08,0.77,
1.282,0.17,-0.04,1.07,-0.01,0.08,0.77,
1.282,0.17,-0.04,1.07,-0.08,0.06,0.70,
1.284,0.16,-0.03,1.06,-0.08,0.06,0.70,
1.29,0.15,-0.03,1.06,-0.08,0.06,0.70,
1.291,0.15,-0.03,1.06,-0.12,0.04,0.61,
1.291,0.16,-0.03,1.06,-0.12,0.04,0.61,
1.291,0.16,-0.04,1.06,-0.12,0.04,0.61,
1.291,0.16,-0.04,1.06,-0.20,0.02,0.54,
1.296,0.16,-0.03,1.05,-0.20,0.02,0.54,
1.296,0.16,-0.03,1.05,-0.20,0.02,0.54,
1.296,0.16,-0.03,1.05,-0.20,-0.02,0.52,
1.299,0.16,-0.03,1.05,-0.20,-0.02,0.52,
1.302,0.16,-0.03,1.05,-0.20,-0.02,0.52,
1.302,0.16,-0.03,1.05,-0.18,0.00,0.47,
1.304,0.16,-0.03,1.05,-0.18,0.00,0.47,
1.306,0.15,-0.02,1.05,-0.18,0.00,0.47,
1.307,0.15,-0.02,1.05,-0.19,-0.02,0.39,
1.31,0.15,-0.02,1.04,-0.19,-0.02,0.39,
1.312,0.14,-0.01,1.05,-0.19,-0.02,0.39,
1.312,0.14,-0.01,1.05,-0.25,0.00,0.41,
1.314,0.14,-0.02,1.04,-0.25,0.00,0.41,
1.316,0.14,-0.02,1.04,-0.25,0.00,0.41,
1.317,0.14,-0.02,1.04,-0.31,0.03,0.38,
1.319,0.13,-0.02,1.04,-0.31,0.03,0.38,
1.321,0.13,-0.02,1.04,-0.31,0.03,0.38,
1.322,0.13,-0.02,1.04,-0.34,0.01,0.35,
1.325,0.13,-0.02,1.04,-0.34,0.01,0.35,
1.326,0.13,-0.02,1.04,-0.41,-0.04,0.29,
1.327,0.13,-0.02,1.03,-0.41,-0.04,0.29,
1.328,0.13,-0.02,1.03,-0.41,-0.04,0.29,
1.331,0.13,-0.03,1.03,-0.41,-0.04,0.29,
1.331,0.13,-0.03,1.03,-0.41,-0.10,0.25,
1.333,0.12,-0.03,1.04,-0.41,-0.10,0.25,
1.337,0.12,-0.04,1.03,-0.41,-0.10,0.25,
1.337,0.12,-0.04,1.03,-0.47,-0.18,0.21,
1.34,0.12,-0.03,1.03,-0.47,-0.18,0.21,
1.341,0.12,-0.04,1.04,-0.47,-0.18,0.21,
1.341,0.12,-0.04,1.04,-0.49,-0.29,0.26,
1.343,0.12,-0.04,1.04,-0.49,-0.29,0.26,
1.346,0.12,-0.05,1.04,-0.49,-0.29,0.26,
1.346,0.12,-0.05,1.04,-0.50,-0.33,0.26,
1.348,0.12,-0.05,1.03,-0.50,-0.33,0.26,
1.351,0.11,-0.05,1.04,-0.50,-0.33,0.26,
1.351,0.11,-0.05,1.04,-0.53,-0.46,0.31,
1.354,0.11,-0.06,1.03,-0.53,-0.46,0.31,
1.356,0.11,-0.06,1.02,-0.53,-0.46,0.31,
1.356,0.11,-0.06,1.02,-0.55,-0.54,0.25,
1.359,0.11,-0.06,1.02,-0.55,-0.54,0.25,
1.361,0.10,-0.06,1.02,-0.55,-0.54,0.25,
1.361,0.10,-0.06,1.02,-0.57,-0.64,0.18,
1.363,0.11,-0.06,1.02,-0.57,-0.64,0.18,
1.366,0.10,-0.06,1.01,-0.57,-0.64,0.18,
1.366,0.10,-0.06,1.01,-0.61,-0.73,0.09,
1.368,0.10,-0.06,1.01,-0.61,-0.73,0.09,
1.37,0.09,-0.05,1.01,-0.61,-0.73,0.09,
1.371,0.09,-0.05,1.01,-0.60,-0.74,0.05,
1.373,0.09,-0.05,1.00,-0.60,-0.74,0.05,
1.376,0.09,-0.04,1.00,-0.60,-0.74,0.05,
1.377,0.09,-0.04,1.00,-0.65,-0.71,0.01,
1.379,0.09,-0.05,1.00,-0.65,-0.71,0.01,
1.381,0.09,-0.05,0.99,-0.65,-0.71,0.01,
1.381,0.09,-0.05,0.99,-0.72,-0.68,-0.06,
1.383,0.08,-0.05,0.98,-0.72,-0.68,-0.06,
1.386,0.07,-0.04,0.99,-0.72,-0.68,-0.06,
1.386,0.07,-0.04,0.99,-0.72,-0.77,-0.16,
1.388,0.07,-0.04,0.98,-0.72,-0.77,-0.16,
1.391,0.07,-0.04,0.98,-0.72,-0.77,-0.16,
1.391,0.07,-0.04,0.98,-0.81,-0.73,-0.26,
1.393,0.07,-0.04,0.98,-0.81,-0.73,-0.26,
1.396,0.07,-0.04,0.98,-0.81,-0.73,-0.26,
1.396,0.07,-0.04,0.98,-0.84,-0.73,-0.27,
1.398,0.06,-0.04,0.97,-0.84,-0.73,-0.27,
1.401,0.06,-0.04,0.97,-0.84,-0.73,-0.27,
1.401,0.06,-0.04,0.97,-0.88,-0.76,-0.31,
1.403,0.06,-0.04,0.97,-0.88,-0.76,-0.31,
1.408,0.06,-0.04,0.97,-0.88,-0.76,-0.31,
1.408,0.06,-0.04,0.97,-0.91,-0.78,-0.35,
1.409,0.07,-0.03,0.97,-0.91,-0.78,-0.35,
1.411,0.06,-0.04,0.98,-0.91,-0.78,-0.35,
1.412,0.06,-0.04,0.98,-0.87,-0.81,-0.36,
1.412,0.07,-0.03,0.97,-0.87,-0.81,-0.36,
1.415,0.07,-0.03,0.97,-0.87,-0.81,-0.36,
1.415,0.07,-0.03,0.97,-0.82,-0.82,-0.36,
1.418,0.06,-0.03,0.97,-0.82,-0.82,-0.36,
1.421,0.06,-0.03,0.97,-0.82,-0.82,-0.36,
1.422,0.06,-0.03,0.97,-0.77,-0.82,-0.42,
1.422,0.06,-0.02,0.97,-0.77,-0.82,-0.42,
1.425,0.06,-0.02,0.97,-0.79,-0.80,-0.37,
1.425,0.06,-0.02,0.96,-0.79,-0.80,-0.37,
1.427,0.06,-0.02,0.96,-0.79,-0.80,-0.37,
1.43,0.07,-0.01,0.95,-0.79,-0.80,-0.37,
1.431,0.07,-0.01,0.95,-0.78,-0.78,-0.43,
1.434,0.06,-0.01,0.95,-0.78,-0.78,-0.43,
1.435,0.06,-0.01,0.95,-0.78,-0.78,-0.43,
1.435,0.06,-0.01,0.95,-0.72,-0.73,-0.52,
1.437,0.06,-0.01,0.94,-0.72,-0.73,-0.52,
1.44,0.07,-0.01,0.94,-0.72,-0.73,-0.52,
1.44,0.07,-0.01,0.94,-0.72,-0.75,-0.58,
1.442,0.06,-0.00,0.93,-0.72,-0.75,-0.58,
1.444,0.06,0.00,0.93,-0.72,-0.75,-0.58,
1.445,0.06,0.00,0.93,-0.69,-0.74,-0.69,
1.448,0.06,-0.00,0.93,-0.69,-0.74,-0.69,
1.45,0.06,-0.00,0.92,-0.69,-0.74,-0.69,
1.45,0.06,-0.00,0.92,-0.71,-0.70,-0.76,
1.453,0.06,-0.00,0.92,-0.71,-0.70,-0.76,
1.454,0.06,-0.00,0.92,-0.71,-0.70,-0.76,
1.455,0.06,-0.00,0.92,-0.68,-0.73,-0.86,
1.457,0.06,-0.00,0.91,-0.68,-0.73,-0.86,
1.459,0.06,-0.00,0.91,-0.68,-0.73,-0.86,
1.459,0.06,-0.00,0.91,-0.67,-0.75,-0.90,
1.463,0.05,-0.00,0.91,-0.67,-0.75,-0.90,
1.465,0.06,0.00,0.91,-0.67,-0.75,-0.90,
1.465,0.06,0.00,0.91,-0.64,-0.77,-1.00,
1.467,0.05,0.00,0.90,-0.64,-0.77,-1.00,
1.47,0.06,0.01,0.91,-0.64,-0.77,-1.00,
1.47,0.06,0.01,0.91,-0.66,-0.79,-0.99,
1.472,0.05,0.01,0.90,-0.66,-0.79,-0.99,
1.474,0.05,0.01,0.91,-0.66,-0.79,-0.99,
1.474,0.05,0.01,0.91,-0.64,-0.77,-1.03,
1.477,0.05,0.02,0.90,-0.64,-0.77,-1.03,
1.479,0.05,0.02,0.90,-0.64,-0.77,-1.03,
1.479,0.05,0.02,0.90,-0.65,-0.71,-1.03,
1.482,0.05,0.01,0.90,-0.65,-0.71,-1.03,
1.484,0.04,0.01,0.91,-0.65,-0.71,-1.03,
1.484,0.04,0.01,0.91,-0.69,-0.70,-1.02,
1.488,0.05,0.01,0.91,-0.69,-0.70,-1.02,
1.489,0.05,0.01,0.92,-0.69,-0.70,-1.02,
1.489,0.05,0.01,0.92,-0.69,-0.74,-0.98,
1.491,0.05,0.01,0.92,-0.69,-0.74,-0.98,
1.494,0.05,0.01,0.92,-0.69,-0.74,-0.98,
1.494,0.05,0.01,0.92,-0.61,-0.77,-0.92,
1.496,0.04,0.01,0.93,-0.61,-0.77,-0.92,
1.499,0.04,0.01,0.94,-0.61,-0.77,-0.92,
1.5,0.04,0.01,0.94,-0.59,-0.84,-0.85,
1.501,0.04,0.02,0.95,-0.59,-0.84,-0.85,
1.505,0.04,0.02,0.96,-0.59,-0.84,-0.85,
1.505,0.04,0.02,0.96,-0.65,-0.81,-0.71,
1.506,0.04,0.01,0.96,-0.65,-0.81,-0.71,
1.509,0.04,0.02,0.96,-0.65,-0.81,-0.71,
1.509,0.04,0.02,0.96,-0.67,-0.80,-0.52,
1.511,0.04,0.01,0.96,-0.67,-0.80,-0.52,
1.514,0.04,0.01,0.96,-0.67,-0.80,-0.52,
1.514,0.04,0.01,0.96,-0.67,-0.82,-0.47,
1.516,0.04,0.01,0.96,-0.67,-0.82,-0.47,
1.519,0.04,0.01,0.97,-0.67,-0.82,-0.47,
1.519,0.04,0.01,0.97,-0.68,-0.84,-0.43,
1.524,0.04,0.01,0.97,-0.68,-0.84,-0.43,
1.525,0.04,0.01,0.96,-0.68,-0.84,-0.43,
1.525,0.04,0.01,0.96,-0.64,-0.91,-0.40,
1.526,0.04,0.00,0.96,-0.64,-0.91,-0.40,
1.529,0.04,0.00,0.94,-0.64,-0.91,-0.40,
1.529,0.04,0.00,0.94,-0.62,-0.96,-0.42,
1.531,0.04,-0.00,0.94,-0.62,-0.96,-0.42,
1.533,0.04,-0.00,0.93,-0.62,-0.96,-0.42,
1.535,0.04,-0.00,0.93,-0.62,-1.01,-0.55,
1.539,0.04,-0.01,0.93,-0.62,-1.01,-0.55,
1.54,0.04,-0.01,0.91,-0.62,-1.01,-0.55,
1.54,0.04,-0.01,0.91,-0.58,-1.08,-0.69,
1.541,0.04,-0.01,0.91,-0.58,-1.08,-0.69,
1.543,0.04,-0.01,0.90,-0.58,-1.08,-0.69,
1.544,0.04,-0.01,0.90,-0.56,-1.13,-0.85,
1.546,0.04,-0.01,0.88,-0.56,-1.13,-0.85,
1.548,0.04,-0.01,0.88,-0.55,-1.18,-1.01,
1.549,0.04,-0.01,0.87,-0.55,-1.18,-1.01,
1.551,0.03,-0.01,0.87,-0.55,-1.18,-1.01,
1.555,0.03,-0.00,0.86,-0.55,-1.18,-1.01,
1.555,0.03,-0.00,0.86,-0.56,-1.17,-1.29,
1.557,0.03,0.00,0.85,-0.56,-1.17,-1.29,
1.558,0.03,0.00,0.84,-0.56,-1.17,-1.29,
1.558,0.03,0.00,0.84,-0.59,-1.15,-1.38,
1.561,0.02,0.01,0.84,-0.59,-1.15,-1.38,
1.563,0.02,0.02,0.83,-0.59,-1.15,-1.38,
1.564,0.02,0.02,0.83,-0.59,-1.10,-1.55,
1.567,0.01,0.01,0.82,-0.59,-1.10,-1.55,
1.568,0.01,0.02,0.82,-0.59,-1.10,-1.55,
1.568,0.01,0.02,0.82,-0.63,-1.02,-1.70,
1.571,0.00,0.02,0.82,-0.63,-1.02,-1.70,
1.574,-0.00,0.03,0.82,-0.63,-1.02,-1.70,
1.574,-0.00,0.03,0.82,-0.71,-0.99,-1.78,
1.576,-0.00,0.03,0.82,-0.71,-0.99,-1.78,
1.578,-0.00,0.03,0.82,-0.80,-0.89,-1.78,
1.579,-0.01,0.03,0.82,-0.80,-0.89,-1.78,
1.581,-0.02,0.04,0.82,-0.80,-0.89,-1.78,
1.583,-0.03,0.03,0.81,-0.80,-0.89,-1.78,
1.583,-0.03,0.03,0.81,-0.85,-0.84,-1.80,
1.586,-0.03,0.04,0.82,-0.85,-0.84,-1.80,
1.589,-0.03,0.03,0.82,-0.85,-0.84,-1.80,
1.589,-0.03,0.03,0.82,-0.96,-0.82,-1.85,
1.591,-0.03,0.03,0.82,-0.96,-0.82,-1.85,
1.593,-0.03,0.03,0.82,-0.96,-0.82,-1.85,
1.593,-0.03,0.03,0.82,-0.99,-0.81,-1.80,
1.596,-0.03,0.02,0.82,-0.99,-0.81,-1.80,
1.599,-0.03,0.02,0.83,-0.99,-0.81,-1.80,
1.599,-0.03,0.02,0.83,-1.02,-0.82,-1.79,
1.6,-0.03,0.02,0.83,-1.02,-0.82,-1.79,
1.603,-0.02,0.02,0.83,-1.02,-0.82,-1.79,
1.604,-0.02,0.02,0.83,-0.97,-0.91,-1.74,
1.606,-0.02,0.02,0.83,-0.97,-0.91,-1.74,
1.608,-0.02,0.02,0.83,-0.97,-0.91,-1.74,
1.608,-0.02,0.02,0.83,-0.93,-0.95,-1.69,
1.611,-0.02,0.01,0.83,-0.93,-0.95,-1.69,
1.613,-0.01,0.01,0.83,-0.93,-0.95,-1.69,
1.613,-0.01,0.01,0.83,-0.86,-0.96,-1.68,
1.615,-0.01,0.01,0.84,-0.86,-0.96,-1.68,
1.618,-0.01,0.01,0.84,-0.86,-0.96,-1.68,
1.618,-0.01,0.01,0.84,-0.76,-1.03,-1.65,
1.621,-0.01,0.02,0.84,-0.76,-1.03,-1.65,
1.623,-0.01,0.02,0.84,-0.76,-1.03,-1.65,
1.623,-0.01,0.02,0.84,-0.73,-0.98,-1.60,
1.625,-0.01,0.03,0.84,-0.73,-0.98,-1.60,
1.628,-0.01,0.03,0.85,-0.73,-0.98,-1.60,
1.628,-0.01,0.03,0.85,-0.70,-0.89,-1.57,
1.63,-0.01,0.03,0.86,-0.70,-0.89,-1.57,
1.633,-0.01,0.04,0.86,-0.70,-0.89,-1.57,
1.633,-0.01,0.04,0.86,-0.68,-0.82,-1.55,
1.635,-0.01,0.04,0.85,-0.68,-0.82,-1.55,
1.641,-0.01,0.04,0.84,-0.68,-0.82,-1.55,
1.642,-0.01,0.04,0.84,-0.64,-0.75,-1.42,
1.642,-0.01,0.05,0.85,-0.64,-0.75,-1.42,
1.643,0.00,0.06,0.84,-0.64,-0.75,-1.42,
1.645,0.00,0.06,0.84,-0.59,-0.67,-1.50,
1.645,-0.00,0.06,0.84,-0.59,-0.67,-1.50,
1.648,-0.01,0.07,0.83,-0.59,-0.67,-1.50,
1.651,-0.01,0.07,0.83,-0.55,-0.57,-1.53,
1.651,-0.00,0.07,0.83,-0.55,-0.57,-1.53,
1.653,-0.00,0.07,0.82,-0.55,-0.57,-1.53,
1.653,-0.00,0.07,0.82,-0.54,-0.45,-1.61,
1.655,-0.00,0.08,0.83,-0.54,-0.45,-1.61,
1.657,-0.00,0.08,0.82,-0.54,-0.45,-1.61,
1.658,-0.00,0.08,0.82,-0.50,-0.39,-1.68,
1.66,-0.00,0.08,0.82,-0.50,-0.39,-1.68,
1.662,0.00,0.08,0.81,-0.50,-0.39,-1.68,
1.663,0.00,0.08,0.81,-0.47,-0.34,-1.73,
1.665,0.00,0.08,0.80,-0.47,-0.34,-1.73,
1.667,0.00,0.08,0.81,-0.47,-0.34,-1.73,
1.668,0.00,0.08,0.81,-0.43,-0.29,-1.82,
1.67,0.00,0.09,0.80,-0.43,-0.29,-1.82,
1.672,0.00,0.08,0.81,-0.43,-0.29,-1.82,
1.673,0.00,0.08,0.81,-0.39,-0.29,-1.90,
1.675,0.01,0.09,0.80,-0.39,-0.29,-1.90,
1.678,0.00,0.09,0.80,-0.39,-0.29,-1.90,
1.679,0.00,0.09,0.80,-0.38,-0.29,-1.88,
1.681,0.00,0.09,0.80,-0.38,-0.29,-1.88,
1.683,0.00,0.09,0.80,-0.38,-0.29,-1.88,
1.683,0.00,0.09,0.80,-0.36,-0.28,-1.92,
1.685,-0.00,0.09,0.81,-0.36,-0.28,-1.92,
1.687,-0.00,0.10,0.81,-0.36,-0.28,-1.92,
1.687,-0.00,0.10,0.81,-0.36,-0.26,-1.91,
1.69,-0.00,0.10,0.80,-0.36,-0.26,-1.91,
1.692,-0.00,0.10,0.81,-0.36,-0.26,-1.91,
1.692,-0.00,0.10,0.81,-0.39,-0.23,-1.82,
1.695,-0.01,0.10,0.81,-0.39,-0.23,-1.82,
1.698,-0.01,0.11,0.80,-0.39,-0.23,-1.82,
1.698,-0.01,0.11,0.80,-0.39,-0.19,-1.87,
1.7,-0.01,0.11,0.81,-0.39,-0.19,-1.87,
1.702,-0.01,0.11,0.81,-0.39,-0.19,-1.87,
1.703,-0.01,0.11,0.81,-0.41,-0.16,-1.86,
1.706,-0.01,0.11,0.80,-0.41,-0.16,-1.86,
1.707,-0.01,0.11,0.81,-0.41,-0.16,-1.86,
1.707,-0.01,0.11,0.81,-0.45,-0.13,-1.82,
1.71,-0.01,0.11,0.80,-0.45,-0.13,-1.82,
1.713,-0.01,0.11,0.80,-0.45,-0.13,-1.82,
1.713,-0.01,0.11,0.80,-0.46,-0.14,-1.86,
1.714,-0.01,0.11,0.80,-0.46,-0.14,-1.86,
1.717,-0.01,0.11,0.80,-0.46,-0.14,-1.86,
1.718,-0.01,0.11,0.80,-0.42,-0.13,-1.86,
1.72,-0.01,0.11,0.80,-0.42,-0.13,-1.86,
1.722,-0.01,0.11,0.80,-0.39,-0.18,-1.87,
1.723,-0.01,0.11,0.80,-0.39,-0.18,-1.87,
1.724,-0.01,0.11,0.80,-0.39,-0.18,-1.87,
1.727,-0.01,0.11,0.81,-0.39,-0.18,-1.87,
1.727,-0.01,0.11,0.81,-0.36,-0.19,-1.86,
1.73,-0.01,0.11,0.81,-0.36,-0.19,-1.86,
1.732,-0.02,0.11,0.82,-0.36,-0.19,-1.86,
1.733,-0.02,0.11,0.82,-0.37,-0.18,-1.84,
1.735,-0.02,0.11,0.82,-0.37,-0.18,-1.84,
1.737,-0.02,0.11,0.82,-0.37,-0.18,-1.84,
1.737,-0.02,0.11,0.82,-0.41,-0.16,-1.76,
1.742,-0.02,0.12,0.83,-0.41,-0.16,-1.76,
1.743,-0.02,0.12,0.83,-0.41,-0.16,-1.76,
1.743,-0.02,0.12,0.83,-0.45,-0.15,-1.68,
1.744,-0.02,0.13,0.84,-0.45,-0.15,-1.68,
1.747,-0.02,0.13,0.84,-0.47,-0.07,-1.58,
1.747,-0.03,0.13,0.84,-0.47,-0.07,-1.58,
1.75,-0.02,0.13,0.84,-0.47,-0.07,-1.58,
1.752,-0.02,0.13,0.85,-0.47,-0.07,-1.58,
1.752,-0.02,0.13,0.85,-0.48,-0.04,-1.51,
1.754,-0.02,0.13,0.84,-0.48,-0.04,-1.51,
1.756,-0.02,0.13,0.85,-0.48,-0.04,-1.51,
1.757,-0.02,0.13,0.85,-0.46,-0.04,-1.44,
1.759,-0.02,0.13,0.84,-0.46,-0.04,-1.44,
1.762,-0.02,0.13,0.84,-0.46,-0.04,-1.44,
1.762,-0.02,0.13,0.84,-0.43,-0.04,-1.43,
1.764,-0.01,0.12,0.84,-0.43,-0.04,-1.43,
1.766,-0.01,0.13,0.84,-0.43,-0.04,-1.43,
1.767,-0.01,0.13,0.84,-0.38,-0.07,-1.44,
1.769,-0.01,0.13,0.84,-0.38,-0.07,-1.44,
1.773,-0.00,0.13,0.84,-0.38,-0.07,-1.44,
1.773,-0.00,0.13,0.84,-0.29,-0.08,-1.46,
1.774,-0.00,0.13,0.84,-0.29,-0.08,-1.46,
1.776,0.00,0.13,0.83,-0.29,-0.08,-1.46,
1.777,0.00,0.13,0.83,-0.25,-0.09,-1.46,
1.779,-0.00,0.14,0.83,-0.25,-0.09,-1.46,
1.781,-0.00,0.14,0.83,-0.25,-0.09,-1.46,
1.781,-0.00,0.14,0.83,-0.21,-0.09,-1.47,
1.784,-0.01,0.14,0.83,-0.21,-0.09,-1.47,
1.786,-0.01,0.15,0.82,-0.21,-0.09,-1.47,
1.787,-0.01,0.15,0.82,-0.24,-0.02,-1.52,
1.79,-0.01,0.15,0.82,-0.24,-0.02,-1.52,
1.791,-0.01,0.15,0.82,-0.24,-0.02,-1.52,
1.791,-0.01,0.15,0.82,-0.26,0.04,-1.61,
1.793,-0.01,0.15,0.82,-0.26,0.04,-1.61,
1.796,-0.01,0.15,0.82,-0.26,0.08,-1.61,
1.796,-0.01,0.16,0.82,-0.26,0.08,-1.61,
1.798,-0.01,0.16,0.81,-0.26,0.08,-1.61,
1.801,-0.01,0.16,0.81,-0.26,0.08,-1.61,
1.801,-0.01,0.16,0.81,-0.31,0.13,-1.66,
1.803,-0.01,0.16,0.80,-0.31,0.13,-1.66,
1.807,-0.01,0.16,0.80,-0.31,0.13,-1.66,
1.807,-0.01,0.16,0.80,-0.29,0.15,-1.69,
1.808,-0.01,0.16,0.81,-0.29,0.15,-1.69,
1.811,-0.02,0.16,0.80,-0.29,0.15,-1.69,
1.811,-0.02,0.16,0.80,-0.29,0.16,-1.77,
1.813,-0.01,0.17,0.80,-0.29,0.16,-1.77,
1.816,-0.01,0.16,0.80,-0.29,0.16,-1.77,
1.816,-0.01,0.16,0.80,-0.31,0.11,-1.78,
1.818,-0.01,0.16,0.80,-0.31,0.11,-1.78,
1.822,-0.01,0.16,0.80,-0.32,0.15,-1.82,
1.823,-0.01,0.16,0.80,-0.32,0.15,-1.82,
1.823,-0.01,0.16,0.81,-0.32,0.15,-1.82,
1.826,-0.02,0.16,0.81,-0.32,0.15,-1.82,
1.826,-0.02,0.16,0.81,-0.33,0.07,-1.79,
1.83,-0.02,0.16,0.81,-0.33,0.07,-1.79,
1.831,-0.02,0.16,0.83,-0.33,0.07,-1.79,
1.832,-0.02,0.16,0.83,-0.34,0.05,-1.70,
1.833,-0.02,0.16,0.83,-0.34,0.05,-1.70,
1.835,-0.02,0.16,0.84,-0.34,0.05,-1.70,
1.836,-0.02,0.16,0.84,-0.36,0.10,-1.58,
1.84,-0.01,0.16,0.85,-0.36,0.10,-1.58,
1.84,-0.01,0.16,0.85,-0.36,0.10,-1.58,
1.841,-0.01,0.16,0.85,-0.36,0.10,-1.43,
1.843,-0.01,0.16,0.86,-0.36,0.10,-1.43,
1.845,-0.01,0.15,0.87,-0.36,0.10,-1.43,
1.846,-0.01,0.15,0.87,-0.33,0.09,-1.30,
1.848,-0.01,0.16,0.89,-0.33,0.09,-1.30,
1.85,-0.01,0.15,0.90,-0.33,0.09,-1.30,
1.851,-0.01,0.15,0.90,-0.29,0.05,-1.11,
1.853,-0.01,0.15,0.91,-0.29,0.05,-1.11,
1.86,-0.00,0.15,0.92,-0.29,0.05,-1.11,
1.861,-0.00,0.15,0.92,-0.27,0.06,-0.86,
1.861,-0.01,0.15,0.93,-0.27,0.06,-0.86,
1.861,-0.01,0.15,0.95,-0.27,0.06,-0.86,
1.861,-0.01,0.15,0.95,-0.27,0.04,-0.65,
1.863,-0.00,0.15,0.97,-0.27,0.04,-0.65,
1.865,-0.00,0.15,0.98,-0.27,0.04,-0.65,
1.866,-0.00,0.15,0.98,-0.27,0.07,-0.40,
1.868,0.00,0.15,0.99,-0.27,0.07,-0.40,
1.872,0.00,0.15,1.00,-0.27,0.07,-0.40,
1.873,0.00,0.15,1.00,-0.25,0.06,-0.06,
1.873,0.01,0.15,1.01,-0.25,0.06,-0.06,
1.875,0.01,0.15,1.01,-0.25,0.06,-0.06,
1.876,0.01,0.15,1.01,-0.21,0.08,0.11,
1.878,0.01,0.15,1.02,-0.21,0.08,0.11,
1.881,0.01,0.15,1.02,-0.21,0.08,0.11,
1.881,0.01,0.15,1.02,-0.17,0.07,0.28,
1.882,0.02,0.15,1.02,-0.17,0.07,0.28,
1.885,0.02,0.15,1.02,-0.17,0.07,0.28,
1.885,0.02,0.15,1.02,-0.13,0.06,0.33,
1.889,0.02,0.15,1.01,-0.13,0.06,0.33,
1.891,0.02,0.15,1.01,-0.13,0.06,0.33,
1.891,0.02,0.15,1.01,-0.07,0.07,0.36,
1.892,0.03,0.16,1.01,-0.07,0.07,0.36,
1.895,0.03,0.16,1.01,-0.01,0.11,0.29,
1.895,0.03,0.16,1.00,-0.01,0.11,0.29,
1.897,0.03,0.16,1.00,-0.01,0.11,0.29,
1.9,0.03,0.16,0.99,-0.01,0.11,0.29,
1.9,0.03,0.16,0.99,0.02,0.14,0.23,
1.903,0.03,0.17,0.98,0.02,0.14,0.23,
1.906,0.03,0.16,0.98,0.02,0.14,0.23,
1.906,0.03,0.16,0.98,0.01,0.15,0.14,
1.907,0.03,0.17,0.97,0.01,0.15,0.14,
1.911,0.03,0.17,0.96,0.01,0.15,0.14,
1.911,0.03,0.17,0.96,0.04,0.20,-0.03,
1.912,0.03,0.17,0.95,0.04,0.20,-0.03,
1.915,0.02,0.17,0.95,0.04,0.20,-0.03,
1.915,0.02,0.17,0.95,0.05,0.24,-0.17,
1.918,0.03,0.17,0.95,0.05,0.24,-0.17,
1.92,0.02,0.18,0.95,0.05,0.24,-0.17,
1.921,0.02,0.18,0.95,0.02,0.25,-0.29,
1.923,0.03,0.18,0.94,0.02,0.25,-0.29,
1.925,0.03,0.19,0.94,0.02,0.25,-0.29,
1.925,0.03,0.19,0.94,0.01,0.29,-0.32,
1.927,0.02,0.19,0.94,0.01,0.29,-0.32,
1.932,0.02,0.19,0.94,0.01,0.29,-0.32,
1.932,0.02,0.19,0.94,0.03,0.33,-0.39,
1.932,0.02,0.19,0.94,0.03,0.33,-0.39,
1.934,0.02,0.19,0.95,0.03,0.33,-0.39,
1.935,0.02,0.19,0.95,-0.02,0.38,-0.37,
1.937,0.02,0.18,0.95,-0.02,0.38,-0.37,
1.94,0.02,0.18,0.95,-0.02,0.38,-0.37,
1.941,0.02,0.18,0.95,-0.02,0.37,-0.35,
1.942,0.02,0.18,0.95,-0.02,0.37,-0.35,
1.945,0.02,0.18,0.96,-0.02,0.37,-0.35,
1.946,0.02,0.18,0.96,-0.01,0.33,-0.33,
1.947,0.03,0.17,0.96,-0.01,0.33,-0.33,
1.95,0.03,0.17,0.96,-0.01,0.29,-0.25,
1.95,0.02,0.17,0.96,-0.01,0.29,-0.25,
1.952,0.02,0.17,0.97,-0.01,0.29,-0.25,
1.96,0.02,0.17,0.98,-0.01,0.29,-0.25,
1.96,0.02,0.17,0.98,0.01,0.20,-0.20,
1.961,0.02,0.16,0.98,0.01,0.20,-0.20,
1.961,0.02,0.16,0.98,0.01,0.20,-0.20,
1.962,0.02,0.16,0.98,-0.03,0.19,-0.08,
1.962,0.02,0.16,0.98,-0.03,0.19,-0.08,
1.964,0.02,0.16,0.98,-0.03,0.19,-0.08,
1.964,0.02,0.16,0.98,-0.00,0.11,-0.03,
1.967,0.02,0.15,0.99,-0.00,0.11,-0.03,
1.969,0.02,0.15,0.99,-0.04,0.07,0.01,
1.97,0.01,0.15,0.99,-0.04,0.07,0.01,
1.973,0.01,0.15,1.00,-0.04,0.07,0.01,
1.974,0.01,0.15,1.00,-0.04,0.07,0.01,
1.974,0.01,0.15,1.00,-0.07,0.02,0.11,
1.977,0.01,0.15,1.00,-0.07,0.02,0.11,
1.98,0.01,0.15,1.00,-0.07,0.02,0.11,
1.981,0.01,0.15,1.00,-0.13,-0.02,0.21,
1.982,0.01,0.14,1.00,-0.13,-0.02,0.21,
1.984,0.01,0.14,1.00,-0.13,-0.02,0.21,
1.985,0.01,0.14,1.00,-0.15,-0.02,0.22,
1.987,0.01,0.15,1.00,-0.15,-0.02,0.22,
1.99,0.00,0.14,1.01,-0.15,-0.02,0.22,
1.991,0.00,0.14,1.01,-0.17,-0.06,0.20,
1.992,0.01,0.14,1.01,-0.17,-0.06,0.20,
1.994,0.01,0.14,1.01,-0.18,-0.05,0.23,
1.995,0.01,0.14,1.00,-0.18,-0.05,0.23,
1.997,0.01,0.14,0.99,-0.18,-0.05,0.23,
2.0,0.01,0.14,0.99,-0.18,-0.05,0.23,
2.003,0.01,0.14,0.99,-0.13,-0.07,0.20,
2.003,0.02,0.14,0.99,-0.13,-0.07,0.20,
2.004,0.02,0.14,0.99,-0.13,-0.07,0.20,
2.004,0.02,0.14,0.99,-0.12,-0.11,0.08,
2.007,0.02,0.15,0.98,-0.12,-0.11,0.08,
2.009,0.03,0.15,0.98,-0.12,-0.11,0.08,
2.009,0.03,0.15,0.98,-0.05,-0.07,0.07,
2.012,0.04,0.15,0.97,-0.05,-0.07,0.07,
2.015,0.04,0.15,0.97,-0.05,-0.07,0.07,
2.015,0.04,0.15,0.97,0.05,-0.05,-0.00,
2.017,0.05,0.15,0.97,0.05,-0.05,-0.00,
2.019,0.04,0.15,0.98,0.05,-0.05,-0.00,
2.02,0.04,0.15,0.98,0.15,-0.02,-0.10,
2.022,0.05,0.15,0.97,0.15,-0.02,-0.10,
2.024,0.05,0.16,0.98,0.15,-0.02,-0.10,
2.024,0.05,0.16,0.98,0.22,0.02,-0.06,
2.026,0.05,0.17,0.98,0.22,0.02,-0.06,
2.029,0.04,0.16,0.98,0.22,0.02,-0.06,
2.029,0.04,0.16,0.98,0.24,0.06,-0.05,
2.032,0.04,0.17,0.98,0.24,0.06,-0.05,
2.034,0.03,0.17,0.98,0.24,0.06,-0.05,
2.034,0.03,0.17,0.98,0.21,0.13,-0.03,
2.036,0.03,0.17,0.99,0.21,0.13,-0.03,
2.039,0.03,0.17,0.99,0.21,0.13,-0.03,
2.039,0.03,0.17,0.99,0.16,0.15,0.03,
2.041,0.03,0.17,1.00,0.16,0.15,0.03,
2.044,0.03,0.17,1.00,0.07,0.17,0.08,
2.045,0.03,0.17,1.00,0.07,0.17,0.08,
2.046,0.03,0.17,0.99,0.07,0.17,0.08,
2.049,0.03,0.17,0.99,0.07,0.17,0.08,
2.05,0.03,0.17,0.99,0.03,0.16,0.15,
2.052,0.03,0.17,0.99,0.03,0.16,0.15,
2.054,0.03,0.16,0.99,0.03,0.16,0.15,
2.054,0.03,0.16,0.99,0.07,0.16,0.11,
2.061,0.04,0.16,0.99,0.07,0.16,0.11,
2.061,0.04,0.16,0.99,0.07,0.16,0.11,
2.062,0.04,0.16,0.99,0.09,0.12,0.11,
2.062,0.04,0.17,1.00,0.09,0.12,0.11,
2.064,0.04,0.16,1.00,0.09,0.12,0.11,
2.064,0.04,0.16,1.00,0.17,0.10,0.14,
2.066,0.05,0.16,1.00,0.17,0.10,0.14,
2.07,0.04,0.16,1.01,0.17,0.10,0.14,
2.07,0.04,0.16,1.01,0.16,0.11,0.20,
2.071,0.04,0.16,1.00,0.16,0.11,0.20,
2.074,0.03,0.17,0.97,0.16,0.11,0.20,
2.074,0.03,0.17,0.97,0.22,0.08,0.26,
2.076,0.04,0.17,0.93,0.22,0.08,0.26,
2.08,0.05,0.17,0.89,0.22,0.08,0.26,
2.08,0.05,0.17,0.89,0.13,0.11,0.03,
2.082,0.06,0.17,0.88,0.13,0.11,0.03,
2.084,0.06,0.17,0.91,0.13,0.11,0.03,
2.084,0.06,0.17,0.91,0.23,0.17,-0.70,
2.086,0.05,0.16,0.93,0.23,0.17,-0.70,
2.089,0.04,0.16,0.95,0.23,0.17,-0.70,
2.089,0.04,0.16,0.95,0.37,0.20,-0.84,
2.091,0.02,0.16,0.96,0.37,0.20,-0.84,
2.093,0.02,0.16,0.95,0.37,0.20,-0.84,
2.093,0.02,0.16,0.95,0.22,0.11,-0.40,
2.096,0.01,0.16,0.94,0.22,0.11,-0.40,
2.099,0.00,0.17,0.94,0.22,0.11,-0.40,
2.099,0.00,0.17,0.94,-0.02,0.12,-0.26,
2.1,0.01,0.17,0.94,-0.02,0.12,-0.26,
2.103,0.01,0.17,0.95,-0.02,0.12,-0.26,
2.104,0.01,0.17,0.95,-0.13,0.15,-0.41,
2.106,0.01,0.17,0.94,-0.13,0.15,-0.41,
2.108,0.01,0.16,0.96,-0.13,0.15,-0.41,
2.109,0.01,0.16,0.96,-0.12,0.20,-0.39,
2.112,0.01,0.16,0.97,-0.12,0.20,-0.39,
2.114,0.01,0.16,0.99,-0.12,0.20,-0.39,
2.114,0.01,0.16,0.99,-0.08,0.18,-0.31,
2.116,0.01,0.16,0.99,-0.08,0.18,-0.31,
2.118,0.01,0.17,1.00,-0.08,0.18,-0.31,
2.118,0.01,0.17,1.00,-0.06,0.17,-0.00,
2.121,0.02,0.16,1.01,-0.06,0.17,-0.00,
2.128,0.02,0.16,1.01,-0.06,0.17,-0.00,
2.129,0.02,0.16,1.01,-0.04,0.19,0.15,
2.129,0.03,0.16,1.02,-0.04,0.19,0.15,
2.129,0.03,0.16,1.03,-0.04,0.19,0.15,
2.13,0.03,0.16,1.03,0.02,0.18,0.26,
2.131,0.04,0.16,1.03,0.02,0.18,0.26,
2.132,0.05,0.16,1.04,0.02,0.18,0.26,
2.133,0.05,0.16,1.04,0.11,0.19,0.39,
2.135,0.05,0.16,1.05,0.11,0.19,0.39,
2.137,0.06,0.17,1.06,0.11,0.19,0.39,
2.138,0.06,0.17,1.06,0.24,0.18,0.49,
2.145,0.06,0.17,1.06,0.24,0.18,0.49,
2.146,0.05,0.17,1.07,0.24,0.18,0.49,
2.148,0.05,0.17,1.07,0.34,0.21,0.72,
2.149,0.06,0.17,1.08,0.34,0.21,0.72,
2.149,0.06,0.17,1.07,0.34,0.21,0.72,
2.149,0.06,0.17,1.07,0.36,0.24,0.84,
2.15,0.05,0.17,1.08,0.36,0.24,0.84,
2.152,0.04,0.18,1.08,0.36,0.24,0.84,
2.153,0.04,0.18,1.08,0.38,0.24,0.91,
2.155,0.04,0.18,1.07,0.38,0.24,0.91,
2.162,0.04,0.18,1.06,0.38,0.24,0.91,
2.163,0.04,0.18,1.06,0.27,0.27,0.96,
2.163,0.04,0.18,1.06,0.27,0.27,0.96,
2.163,0.03,0.17,1.05,0.27,0.27,0.96,
2.163,0.03,0.17,1.05,0.18,0.29,0.80,
2.165,0.02,0.17,1.04,0.18,0.29,0.80,
2.167,0.02,0.17,1.04,0.13,0.22,0.71,
2.168,0.02,0.17,1.03,0.13,0.22,0.71,
2.17,0.02,0.16,1.02,0.13,0.22,0.71,
2.178,0.02,0.16,1.02,0.13,0.22,0.71,
2.179,0.02,0.16,1.02,0.02,0.15,0.55,
2.179,0.02,0.16,1.01,0.02,0.15,0.55,
2.179,0.01,0.15,1.00,0.02,0.15,0.55,
2.18,0.01,0.15,1.00,-0.01,0.06,0.37,
2.18,0.02,0.15,0.99,-0.01,0.06,0.37,
