
time,gFx,gFy,gFz,ax,ay,az,
0.002,-0.08,0.15,0.95,-0.29,-0.51,-0.13,
0.002,-0.08,0.15,0.95,-0.18,-0.36,-0.16,
0.003,-0.08,0.16,0.95,-0.18,-0.36,-0.16,
0.003,-0.08,0.16,0.95,-0.05,-0.22,-0.24,
0.003,-0.08,0.17,0.96,-0.05,-0.22,-0.24,
0.003,-0.07,0.17,0.96,-0.05,-0.22,-0.24,
0.007,-0.06,0.18,0.96,-0.05,-0.22,-0.24,
0.007,-0.06,0.18,0.96,0.04,-0.07,-0.26,
0.008,-0.05,0.18,0.96,0.04,-0.07,-0.26,
0.01,-0.04,0.19,0.97,0.04,-0.07,-0.26,
0.01,-0.04,0.19,0.97,0.14,0.02,-0.18,
0.012,-0.04,0.20,0.97,0.14,0.02,-0.18,
0.015,-0.03,0.20,0.96,0.14,0.02,-0.18,
0.015,-0.03,0.20,0.96,0.27,0.14,-0.13,
0.017,-0.03,0.20,0.97,0.27,0.14,-0.13,
0.023,-0.02,0.21,0.97,0.27,0.14,-0.13,
0.023,-0.02,0.21,0.97,0.37,0.26,-0.13,
0.023,-0.01,0.21,0.98,0.37,0.26,-0.13,
0.024,0.00,0.21,0.98,0.37,0.26,-0.13,
0.024,0.00,0.21,0.98,0.47,0.31,-0.06,
0.027,0.01,0.21,0.98,0.47,0.31,-0.06,
0.029,0.01,0.22,0.98,0.47,0.31,-0.06,
0.03,0.01,0.22,0.98,0.65,0.34,0.06,
0.032,0.02,0.22,0.99,0.65,0.34,0.06,
0.035,0.01,0.22,1.00,0.65,0.34,0.06,
0.036,0.01,0.22,1.00,0.76,0.39,0.04,
0.038,0.02,0.22,1.00,0.76,0.39,0.04,
0.039,0.02,0.22,1.00,0.76,0.39,0.04,
0.039,0.02,0.22,1.00,0.83,0.46,0.13,
0.042,0.03,0.22,1.01,0.83,0.46,0.13,
0.044,0.03,0.22,1.01,0.83,0.46,0.13,
0.044,0.03,0.22,1.01,0.88,0.45,0.19,
0.047,0.04,0.23,1.01,0.88,0.45,0.19,
0.05,0.04,0.23,1.01,0.88,0.45,0.19,
0.051,0.04,0.23,1.01,0.93,0.51,0.26,
0.052,0.03,0.23,1.02,0.93,0.51,0.26,
0.054,0.03,0.23,1.02,0.93,0.51,0.26,
0.055,0.03,0.23,1.02,1.00,0.55,0.30,
0.056,0.03,0.23,1.02,1.00,0.55,0.30,
0.059,0.02,0.22,1.02,1.00,0.55,0.30,
0.059,0.02,0.22,1.02,0.91,0.55,0.38,
0.062,0.02,0.22,1.02,0.91,0.55,0.38,
0.063,0.01,0.22,1.03,0.91,0.55,0.38,
0.064,0.01,0.22,1.03,0.87,0.54,0.37,
0.067,0.01,0.21,1.02,0.87,0.54,0.37,
0.069,-0.00,0.20,1.02,0.87,0.54,0.37,
0.069,-0.00,0.20,1.02,0.79,0.49,0.42,
0.071,-0.01,0.19,1.02,0.79,0.49,0.42,
0.073,-0.03,0.18,1.01,0.79,0.49,0.42,
0.074,-0.03,0.18,1.01,0.67,0.37,0.36,
0.076,-0.04,0.17,1.01,0.67,0.37,0.36,
0.079,-0.05,0.16,1.00,0.67,0.37,0.36,
0.079,-0.05,0.16,1.00,0.45,0.21,0.32,
0.081,-0.06,0.16,1.00,0.45,0.21,0.32,
0.084,-0.08,0.16,1.00,0.45,0.21,0.32,
0.084,-0.08,0.16,1.00,0.23,0.05,0.21,
0.088,-0.09,0.15,1.00,0.23,0.05,0.21,
0.089,-0.09,0.14,0.99,0.23,0.05,0.21,
0.089,-0.09,0.14,0.99,-0.02,-0.05,0.15,
0.091,-0.11,0.14,1.00,-0.02,-0.05,0.15,
0.093,-0.11,0.14,1.00,-0.02,-0.05,0.15,
0.094,-0.11,0.14,1.00,-0.23,-0.14,0.12,
0.096,-0.12,0.14,0.99,-0.23,-0.14,0.12,
0.099,-0.12,0.13,0.99,-0.23,-0.14,0.12,
0.099,-0.12,0.13,0.99,-0.41,-0.24,0.14,
0.101,-0.13,0.13,0.99,-0.41,-0.24,0.14,
0.108,-0.13,0.13,1.00,-0.41,-0.24,0.14,
0.109,-0.13,0.13,1.00,-0.51,-0.26,0.07,
0.109,-0.13,0.13,0.99,-0.51,-0.26,0.07,
0.109,-0.13,0.12,1.00,-0.51,-0.26,0.07,
0.11,-0.13,0.12,1.00,-0.60,-0.31,0.10,
0.111,-0.13,0.12,1.00,-0.60,-0.31,0.10,
0.113,-0.13,0.12,1.00,-0.59,-0.34,0.09,
0.114,-0.12,0.12,1.00,-0.59,-0.34,0.09,
0.116,-0.12,0.12,1.00,-0.59,-0.34,0.09,
0.119,-0.11,0.13,1.00,-0.59,-0.34,0.09,
0.119,-0.11,0.13,1.00,-0.58,-0.35,0.16,
0.121,-0.11,0.12,1.00,-0.58,-0.35,0.16,
0.123,-0.11,0.13,1.00,-0.58,-0.35,0.16,
0.123,-0.11,0.13,1.00,-0.48,-0.32,0.14,
0.126,-0.10,0.13,0.99,-0.48,-0.32,0.14,
0.128,-0.10,0.13,0.99,-0.48,-0.32,0.14,
0.128,-0.10,0.13,0.99,-0.42,-0.32,0.14,
0.13,-0.10,0.14,0.99,-0.42,-0.32,0.14,
0.133,-0.09,0.14,0.99,-0.42,-0.32,0.14,
0.133,-0.09,0.14,0.99,-0.35,-0.24,0.05,
0.135,-0.08,0.15,0.98,-0.35,-0.24,0.05,
0.139,-0.09,0.15,0.98,-0.35,-0.24,0.05,
0.139,-0.09,0.15,0.98,-0.31,-0.19,0.03,
0.14,-0.09,0.15,0.99,-0.31,-0.19,0.03,
0.143,-0.08,0.16,0.99,-0.31,-0.19,0.03,
0.143,-0.08,0.16,0.99,-0.19,-0.11,-0.03,
0.145,-0.08,0.17,0.99,-0.19,-0.11,-0.03,
0.147,-0.08,0.17,0.98,-0.19,-0.11,-0.03,
0.148,-0.08,0.17,0.98,-0.19,0.00,0.06,
0.15,-0.08,0.18,0.97,-0.19,0.00,0.06,
0.153,-0.08,0.18,0.98,-0.19,0.00,0.06,
0.154,-0.08,0.18,0.98,-0.13,0.12,-0.01,
0.155,-0.08,0.19,0.98,-0.13,0.12,-0.01,
0.157,-0.07,0.19,0.98,-0.13,0.12,-0.01,
0.16,-0.07,0.19,0.98,-0.16,0.23,-0.08,
0.16,-0.07,0.19,0.98,-0.16,0.23,-0.08,
0.163,-0.07,0.19,0.98,-0.10,0.29,-0.04,
0.163,-0.06,0.19,0.98,-0.10,0.29,-0.04,
0.165,-0.05,0.19,0.97,-0.10,0.29,-0.04,
0.167,-0.05,0.19,0.97,-0.10,0.29,-0.04,
0.167,-0.05,0.19,0.97,-0.03,0.32,-0.05,
0.173,-0.06,0.19,0.97,-0.03,0.32,-0.05,
0.174,-0.06,0.19,0.96,-0.03,0.32,-0.05,
0.174,-0.06,0.19,0.96,0.08,0.32,-0.17,
0.175,-0.06,0.18,0.96,0.08,0.32,-0.17,
0.178,-0.06,0.18,0.96,0.08,0.32,-0.17,
0.178,-0.06,0.18,0.96,0.03,0.26,-0.20,
0.18,-0.06,0.18,0.95,0.03,0.26,-0.20,
0.183,-0.06,0.18,0.95,0.03,0.22,-0.27,
0.183,-0.06,0.17,0.96,0.03,0.22,-0.27,
0.186,-0.06,0.17,0.95,0.03,0.22,-0.27,
0.188,-0.06,0.17,0.95,0.03,0.22,-0.27,
0.189,-0.06,0.17,0.95,0.02,0.18,-0.30,
0.19,-0.07,0.17,0.95,0.02,0.18,-0.30,
0.193,-0.07,0.17,0.95,0.02,0.18,-0.30,
0.193,-0.07,0.17,0.95,0.01,0.14,-0.33,
0.195,-0.08,0.17,0.95,0.01,0.14,-0.33,
0.197,-0.09,0.17,0.96,0.01,0.14,-0.33,
0.197,-0.09,0.17,0.96,-0.11,0.14,-0.31,
0.2,-0.09,0.17,0.96,-0.11,0.14,-0.31,
0.202,-0.09,0.16,0.95,-0.11,0.14,-0.31,
0.202,-0.09,0.16,0.95,-0.22,0.12,-0.27,
0.208,-0.10,0.16,0.95,-0.22,0.12,-0.27,
0.208,-0.10,0.16,0.96,-0.22,0.12,-0.27,
0.208,-0.10,0.16,0.96,-0.29,0.11,-0.30,
0.211,-0.11,0.15,0.96,-0.29,0.11,-0.30,
0.213,-0.11,0.15,0.96,-0.39,0.04,-0.30,
0.213,-0.11,0.14,0.95,-0.39,0.04,-0.30,
0.215,-0.11,0.14,0.96,-0.39,0.04,-0.30,
0.217,-0.12,0.13,0.96,-0.39,0.04,-0.30,
0.217,-0.12,0.13,0.96,-0.46,-0.04,-0.28,
0.219,-0.12,0.13,0.96,-0.46,-0.04,-0.28,
0.222,-0.11,0.12,0.97,-0.46,-0.04,-0.28,
0.223,-0.11,0.12,0.97,-0.54,-0.12,-0.27,
0.225,-0.12,0.12,0.97,-0.54,-0.12,-0.27,
0.228,-0.12,0.12,0.97,-0.54,-0.12,-0.27,
0.228,-0.12,0.12,0.97,-0.54,-0.22,-0.21,
0.23,-0.12,0.11,0.98,-0.54,-0.22,-0.21,
0.232,-0.12,0.11,0.98,-0.54,-0.22,-0.21,
0.233,-0.12,0.11,0.98,-0.56,-0.29,-0.12,
0.235,-0.11,0.10,0.98,-0.56,-0.29,-0.12,
0.239,-0.11,0.10,0.98,-0.57,-0.35,-0.08,
0.239,-0.11,0.10,0.98,-0.57,-0.35,-0.08,
0.239,-0.11,0.10,0.98,-0.57,-0.35,-0.08,
0.242,-0.11,0.11,0.98,-0.57,-0.35,-0.08,
0.242,-0.11,0.11,0.98,-0.54,-0.37,-0.04,
0.245,-0.11,0.10,0.99,-0.54,-0.37,-0.04,
0.247,-0.11,0.10,0.99,-0.54,-0.37,-0.04,
0.247,-0.11,0.10,0.99,-0.52,-0.36,-0.06,
0.25,-0.11,0.10,0.98,-0.52,-0.36,-0.06,
0.253,-0.11,0.09,0.97,-0.52,-0.36,-0.06,
0.253,-0.11,0.09,0.97,-0.54,-0.36,-0.01,
0.256,-0.11,0.09,0.97,-0.54,-0.36,-0.01,
0.256,-0.11,0.09,0.97,-0.53,-0.38,-0.11,
0.257,-0.10,0.09,0.96,-0.53,-0.38,-0.11,
0.259,-0.11,0.08,0.96,-0.53,-0.38,-0.11,
0.262,-0.11,0.08,0.96,-0.48,-0.43,-0.21,
0.263,-0.10,0.08,0.95,-0.48,-0.43,-0.21,
0.265,-0.10,0.08,0.95,-0.48,-0.43,-0.21,
0.267,-0.10,0.08,0.94,-0.48,-0.43,-0.21,
0.268,-0.10,0.08,0.94,-0.49,-0.49,-0.32,
0.27,-0.10,0.08,0.94,-0.49,-0.49,-0.32,
0.272,-0.10,0.08,0.93,-0.49,-0.49,-0.32,
0.273,-0.10,0.08,0.93,-0.46,-0.51,-0.38,
0.274,-0.09,0.08,0.93,-0.46,-0.51,-0.38,
0.277,-0.09,0.07,0.93,-0.46,-0.51,-0.38,
0.277,-0.09,0.07,0.93,-0.39,-0.48,-0.51,
0.28,-0.09,0.08,0.92,-0.39,-0.48,-0.51,
0.282,-0.09,0.08,0.92,-0.39,-0.48,-0.51,
0.282,-0.09,0.08,0.92,-0.35,-0.47,-0.53,
0.284,-0.09,0.08,0.92,-0.35,-0.47,-0.53,
0.289,-0.09,0.08,0.91,-0.35,-0.47,-0.53,
0.289,-0.09,0.08,0.91,-0.36,-0.40,-0.64,
0.289,-0.08,0.08,0.90,-0.36,-0.40,-0.64,
0.292,-0.08,0.08,0.90,-0.36,-0.40,-0.64,
0.292,-0.08,0.08,0.90,-0.33,-0.40,-0.72,
0.295,-0.08,0.07,0.90,-0.33,-0.40,-0.72,
0.297,-0.07,0.08,0.89,-0.33,-0.40,-0.72,
0.297,-0.07,0.08,0.89,-0.27,-0.38,-0.84,
0.299,-0.08,0.08,0.90,-0.27,-0.38,-0.84,
0.302,-0.07,0.08,0.89,-0.27,-0.38,-0.84,
0.302,-0.07,0.08,0.89,-0.20,-0.35,-0.86,
0.309,-0.07,0.09,0.89,-0.20,-0.35,-0.86,
0.31,-0.07,0.09,0.88,-0.20,-0.35,-0.86,
0.31,-0.07,0.09,0.88,-0.17,-0.27,-0.90,
0.31,-0.07,0.08,0.88,-0.17,-0.27,-0.90,
0.312,-0.07,0.08,0.88,-0.17,-0.27,-0.90,
0.312,-0.07,0.08,0.88,-0.11,-0.20,-1.00,
0.314,-0.06,0.08,0.88,-0.11,-0.20,-1.00,
0.317,-0.07,0.08,0.88,-0.11,-0.20,-1.00,
0.317,-0.07,0.08,0.88,-0.13,-0.21,-0.98,
0.319,-0.06,0.08,0.88,-0.13,-0.21,-0.98,
0.323,-0.06,0.08,0.88,-0.13,-0.21,-0.98,
0.323,-0.06,0.08,0.88,-0.09,-0.21,-0.98,
0.325,-0.06,0.08,0.89,-0.09,-0.21,-0.98,
0.326,-0.06,0.08,0.89,-0.09,-0.21,-0.98,
0.326,-0.06,0.08,0.89,-0.05,-0.21,-1.01,
0.328,-0.06,0.08,0.89,-0.05,-0.21,-1.01,
0.331,-0.06,0.08,0.90,-0.05,-0.21,-1.01,
0.331,-0.06,0.08,0.90,-0.05,-0.16,-0.93,
0.333,-0.05,0.08,0.90,-0.05,-0.16,-0.93,
0.336,-0.05,0.08,0.91,-0.05,-0.16,-0.93,
0.336,-0.05,0.08,0.91,-0.05,-0.17,-0.83,
0.339,-0.04,0.08,0.91,-0.05,-0.17,-0.83,
0.341,-0.04,0.09,0.91,-0.05,-0.17,-0.83,
0.341,-0.04,0.09,0.91,0.02,-0.14,-0.73,
0.343,-0.04,0.09,0.92,0.02,-0.14,-0.73,
0.345,-0.03,0.09,0.93,0.02,-0.14,-0.73,
0.346,-0.03,0.09,0.93,0.05,-0.08,-0.69,
0.348,-0.03,0.09,0.93,0.05,-0.08,-0.69,
0.35,-0.02,0.10,0.93,0.05,-0.08,-0.69,
0.351,-0.02,0.10,0.93,0.12,-0.04,-0.59,
0.353,-0.01,0.10,0.93,0.12,-0.04,-0.59,
0.355,-0.01,0.10,0.93,0.12,-0.04,-0.59,
0.356,-0.01,0.10,0.93,0.18,0.05,-0.50,
0.358,0.00,0.10,0.92,0.18,0.05,-0.50,
0.36,0.01,0.09,0.92,0.18,0.05,-0.50,
0.361,0.01,0.09,0.92,0.31,0.06,-0.51,
0.363,0.01,0.09,0.92,0.31,0.06,-0.51,
0.366,0.02,0.09,0.91,0.31,0.06,-0.51,
0.366,0.02,0.09,0.91,0.42,0.06,-0.56,
0.368,0.01,0.08,0.91,0.42,0.06,-0.56,
0.371,0.01,0.08,0.91,0.42,0.06,-0.56,
0.372,0.01,0.08,0.91,0.49,-0.04,-0.62,
0.374,0.02,0.08,0.91,0.49,-0.04,-0.62,
0.375,0.01,0.08,0.90,0.49,-0.04,-0.62,
0.375,0.01,0.08,0.90,0.49,-0.07,-0.70,
0.378,0.01,0.08,0.90,0.49,-0.07,-0.70,
0.38,0.01,0.08,0.90,0.47,-0.08,-0.71,
0.381,0.01,0.08,0.90,0.47,-0.08,-0.71,
0.383,0.00,0.08,0.90,0.47,-0.08,-0.71,
0.385,0.00,0.08,0.89,0.47,-0.08,-0.71,
0.385,0.00,0.08,0.89,0.41,-0.09,-0.72,
0.388,0.00,0.08,0.87,0.41,-0.09,-0.72,
0.391,0.00,0.06,0.86,0.41,-0.09,-0.72,
0.391,0.00,0.06,0.86,0.37,-0.05,-0.81,
0.393,0.00,0.05,0.84,0.37,-0.05,-0.81,
0.395,0.01,0.03,0.82,0.37,-0.05,-0.81,
0.395,0.01,0.03,0.82,0.38,-0.16,-1.05,
0.397,0.01,0.03,0.80,0.38,-0.16,-1.05,
0.4,0.00,0.02,0.79,0.38,-0.16,-1.05,
0.4,0.00,0.02,0.79,0.40,-0.44,-1.41,
0.402,0.00,0.02,0.77,0.40,-0.44,-1.41,
0.41,0.01,0.02,0.77,0.40,-0.44,-1.41,
0.41,0.01,0.02,0.77,0.41,-0.60,-1.71,
0.41,0.01,0.01,0.75,0.41,-0.60,-1.71,
0.411,0.02,0.02,0.75,0.41,-0.60,-1.71,
0.411,0.02,0.02,0.75,0.39,-0.66,-1.99,
0.412,0.02,0.02,0.75,0.39,-0.66,-1.99,
0.415,0.02,0.03,0.75,0.39,-0.66,-1.99,
0.415,0.02,0.03,0.75,0.48,-0.68,-2.14,
0.417,0.03,0.04,0.75,0.48,-0.68,-2.14,
0.42,0.04,0.06,0.75,0.48,-0.68,-2.14,
0.42,0.04,0.06,0.75,0.53,-0.56,-2.17,
0.422,0.04,0.07,0.76,0.53,-0.56,-2.17,
0.425,0.05,0.08,0.76,0.53,-0.56,-2.17,
0.426,0.05,0.08,0.76,0.66,-0.32,-2.15,
0.427,0.06,0.10,0.76,0.66,-0.32,-2.15,
0.43,0.06,0.11,0.77,0.66,-0.32,-2.15,
0.43,0.06,0.11,0.77,0.76,-0.07,-2.04,
0.432,0.06,0.12,0.78,0.76,-0.07,-2.04,
0.435,0.07,0.14,0.78,0.76,-0.07,-2.04,
0.435,0.07,0.14,0.78,0.85,0.18,-1.96,
0.437,0.07,0.15,0.80,0.85,0.18,-1.96,
0.44,0.08,0.15,0.81,0.85,0.18,-1.96,
0.441,0.08,0.15,0.81,0.89,0.48,-1.84,
0.442,0.08,0.16,0.82,0.89,0.48,-1.84,
0.445,0.08,0.17,0.83,0.89,0.48,-1.84,
0.445,0.08,0.17,0.83,0.95,0.65,-1.61,
0.447,0.08,0.17,0.84,0.95,0.65,-1.61,
0.449,0.08,0.18,0.86,0.95,0.65,-1.61,
0.45,0.08,0.18,0.86,0.95,0.82,-1.42,
0.452,0.08,0.18,0.87,0.95,0.82,-1.42,
0.456,0.08,0.17,0.88,0.95,0.82,-1.42,
0.456,0.08,0.17,0.88,0.93,0.89,-1.14,
0.457,0.09,0.17,0.89,0.93,0.89,-1.14,
0.459,0.08,0.17,0.91,0.93,0.89,-1.14,
0.46,0.08,0.17,0.91,0.92,0.88,-0.88,
0.462,0.08,0.16,0.93,0.92,0.88,-0.88,
0.464,0.09,0.16,0.93,0.92,0.88,-0.88,
0.465,0.09,0.16,0.93,0.90,0.84,-0.63,
0.467,0.09,0.14,0.94,0.90,0.84,-0.63,
0.469,0.10,0.13,0.95,0.90,0.84,-0.63,
0.469,0.10,0.13,0.95,0.87,0.72,-0.38,
0.473,0.09,0.12,0.95,0.87,0.72,-0.38,
0.474,0.10,0.10,0.94,0.87,0.72,-0.38,
0.475,0.10,0.10,0.94,0.89,0.53,-0.22,
0.477,0.10,0.08,0.94,0.89,0.53,-0.22,
0.479,0.09,0.07,0.94,0.89,0.53,-0.22,
0.48,0.09,0.07,0.94,0.86,0.23,-0.24,
0.482,0.09,0.05,0.93,0.86,0.23,-0.24,
0.485,0.09,0.03,0.92,0.86,0.23,-0.24,
0.485,0.09,0.03,0.92,0.80,-0.08,-0.28,
0.487,0.09,0.02,0.92,0.80,-0.08,-0.28,
0.489,0.10,0.00,0.91,0.80,-0.08,-0.28,
0.489,0.10,0.00,0.91,0.73,-0.43,-0.35,
0.492,0.10,-0.01,0.90,0.73,-0.43,-0.35,
0.494,0.10,-0.01,0.89,0.73,-0.43,-0.35,
0.495,0.10,-0.01,0.89,0.78,-0.70,-0.49,
0.497,0.10,-0.02,0.89,0.78,-0.70,-0.49,
0.499,0.10,-0.02,0.88,0.78,-0.70,-0.49,
0.5,0.10,-0.02,0.88,0.79,-0.89,-0.69,
0.502,0.10,-0.02,0.88,0.79,-0.89,-0.69,
0.504,0.10,-0.02,0.88,0.79,-0.89,-0.69,
0.505,0.10,-0.02,0.88,0.78,-1.00,-0.75,
0.508,0.10,-0.02,0.87,0.78,-1.00,-0.75,
0.51,0.11,-0.01,0.87,0.78,-1.00,-0.75,
0.51,0.11,-0.01,0.87,0.78,-1.00,-0.81,
0.512,0.11,-0.00,0.86,0.78,-1.00,-0.81,
0.515,0.11,0.00,0.85,0.78,-1.00,-0.81,
0.515,0.11,0.00,0.85,0.80,-0.98,-0.91,
0.517,0.11,0.02,0.85,0.80,-0.98,-0.91,
0.52,0.10,0.03,0.83,0.80,-0.98,-0.91,
0.52,0.10,0.03,0.83,0.83,-0.81,-1.05,
0.527,0.10,0.04,0.83,0.83,-0.81,-1.05,
0.528,0.09,0.05,0.82,0.83,-0.81,-1.05,
0.528,0.09,0.05,0.82,0.79,-0.59,-1.18,
0.528,0.08,0.06,0.82,0.79,-0.59,-1.18,
0.529,0.07,0.08,0.81,0.79,-0.59,-1.18,
0.529,0.07,0.08,0.81,0.70,-0.35,-1.33,
0.532,0.07,0.09,0.81,0.70,-0.35,-1.33,
0.534,0.06,0.10,0.80,0.70,-0.35,-1.33,
0.534,0.06,0.10,0.80,0.55,-0.11,-1.44,
0.537,0.05,0.10,0.80,0.55,-0.11,-1.44,
0.539,0.04,0.11,0.79,0.55,-0.11,-1.44,
0.539,0.04,0.11,0.79,0.39,0.12,-1.53,
0.541,0.03,0.11,0.79,0.39,0.12,-1.53,
0.544,0.02,0.12,0.77,0.39,0.12,-1.53,
0.544,0.02,0.12,0.77,0.20,0.25,-1.62,
0.547,0.01,0.13,0.77,0.20,0.25,-1.62,
0.549,0.01,0.13,0.77,0.20,0.25,-1.62,
0.55,0.01,0.13,0.77,0.02,0.35,-1.76,
0.552,0.00,0.13,0.76,0.02,0.35,-1.76,
0.554,0.00,0.12,0.77,0.02,0.35,-1.76,
0.555,0.00,0.12,0.77,-0.12,0.46,-1.83,
0.557,0.01,0.13,0.77,-0.12,0.46,-1.83,
0.559,0.01,0.13,0.79,-0.12,0.46,-1.83,
0.559,0.01,0.13,0.79,-0.18,0.46,-1.86,
0.561,0.02,0.13,0.80,-0.18,0.46,-1.86,
0.564,0.03,0.13,0.82,-0.18,0.46,-1.86,
0.564,0.03,0.13,0.82,-0.16,0.51,-1.73,
0.567,0.04,0.13,0.84,-0.16,0.51,-1.73,
0.569,0.06,0.13,0.85,-0.16,0.51,-1.73,
0.569,0.06,0.13,0.85,-0.01,0.51,-1.42,
0.572,0.09,0.12,0.86,-0.01,0.51,-1.42,
0.574,0.11,0.11,0.87,-0.01,0.51,-1.42,
0.574,0.11,0.11,0.87,0.22,0.50,-1.11,
0.576,0.13,0.10,0.88,0.22,0.50,-1.11,
0.579,0.16,0.09,0.88,0.22,0.50,-1.11,
0.579,0.16,0.09,0.88,0.65,0.38,-0.85,
0.582,0.18,0.08,0.89,0.65,0.38,-0.85,
0.584,0.20,0.07,0.90,0.65,0.38,-0.85,
0.584,0.20,0.07,0.90,1.07,0.19,-0.72,
0.586,0.22,0.06,0.90,1.07,0.19,-0.72,
0.589,0.23,0.05,0.90,1.07,0.19,-0.72,
0.589,0.23,0.05,0.90,1.47,-0.03,-0.59,
0.592,0.24,0.05,0.91,1.47,-0.03,-0.59,
0.594,0.26,0.04,0.91,1.47,-0.03,-0.59,
0.594,0.26,0.04,0.91,1.81,-0.22,-0.51,
0.596,0.26,0.03,0.91,1.81,-0.22,-0.51,
0.599,0.26,0.02,0.91,1.81,-0.22,-0.51,
0.599,0.26,0.02,0.91,1.98,-0.32,-0.41,
0.601,0.27,0.01,0.90,1.98,-0.32,-0.41,
0.604,0.26,0.01,0.91,1.98,-0.32,-0.41,
0.604,0.26,0.01,0.91,2.06,-0.50,-0.45,
0.606,0.25,-0.00,0.90,2.06,-0.50,-0.45,
0.608,0.24,-0.01,0.89,2.06,-0.50,-0.45,
0.609,0.24,-0.01,0.89,2.06,-0.64,-0.47,
0.611,0.23,-0.01,0.88,2.06,-0.64,-0.47,
0.614,0.23,-0.01,0.88,1.86,-0.80,-0.55,
0.614,0.22,-0.01,0.87,1.86,-0.80,-0.55,
0.616,0.20,-0.01,0.87,1.86,-0.80,-0.55,
0.618,0.18,-0.00,0.87,1.86,-0.80,-0.55,
0.619,0.18,-0.00,0.87,1.62,-0.84,-0.78,
0.62,0.17,0.01,0.86,1.62,-0.84,-0.78,
0.623,0.15,0.02,0.87,1.62,-0.84,-0.78,
0.624,0.15,0.02,0.87,1.24,-0.77,-0.82,
0.625,0.13,0.04,0.88,1.24,-0.77,-0.82,
0.628,0.12,0.05,0.88,1.24,-0.77,-0.82,
0.629,0.12,0.05,0.88,0.89,-0.59,-0.80,
0.63,0.10,0.06,0.89,0.89,-0.59,-0.80,
0.633,0.10,0.07,0.90,0.89,-0.59,-0.80,
0.633,0.10,0.07,0.90,0.54,-0.30,-0.70,
0.635,0.09,0.08,0.91,0.54,-0.30,-0.70,
0.637,0.09,0.09,0.92,0.54,-0.30,-0.70,
0.638,0.09,0.09,0.92,0.31,-0.06,-0.55,
0.645,0.10,0.09,0.92,0.31,-0.06,-0.55,
0.645,0.10,0.10,0.93,0.31,-0.06,-0.55,
0.646,0.10,0.10,0.93,0.22,0.17,-0.38,
0.646,0.11,0.10,0.94,0.22,0.17,-0.38,
0.648,0.12,0.09,0.95,0.22,0.17,-0.38,
0.648,0.12,0.09,0.95,0.25,0.28,-0.24,
0.65,0.13,0.09,0.96,0.25,0.28,-0.24,
0.652,0.14,0.08,0.96,0.25,0.28,-0.24,
0.654,0.14,0.08,0.96,0.36,0.28,-0.06,
0.655,0.16,0.08,0.97,0.36,0.28,-0.06,
0.657,0.16,0.06,0.98,0.36,0.28,-0.06,
0.658,0.16,0.06,0.98,0.54,0.19,0.07,
0.66,0.18,0.06,0.99,0.54,0.19,0.07,
0.662,0.18,0.04,0.99,0.54,0.19,0.07,
0.663,0.18,0.04,0.99,0.75,0.05,0.25,
0.665,0.19,0.03,1.00,0.75,0.05,0.25,
0.668,0.19,0.02,1.01,0.75,0.05,0.25,
0.668,0.19,0.02,1.01,0.89,-0.12,0.38,
0.67,0.20,0.01,1.00,0.89,-0.12,0.38,
0.673,0.19,0.00,1.01,0.89,-0.12,0.38,
0.674,0.19,0.00,1.01,0.97,-0.33,0.51,
0.675,0.19,-0.01,1.01,0.97,-0.33,0.51,
0.677,0.18,-0.02,1.01,0.97,-0.33,0.51,
0.677,0.18,-0.02,1.01,0.93,-0.47,0.55,
0.68,0.17,-0.03,1.01,0.93,-0.47,0.55,
0.682,0.17,-0.03,1.02,0.93,-0.47,0.55,
0.683,0.17,-0.03,1.02,0.82,-0.66,0.63,
0.684,0.16,-0.04,1.02,0.82,-0.66,0.63,
0.688,0.16,-0.04,1.02,0.82,-0.66,0.63,
0.688,0.16,-0.04,1.02,0.64,-0.80,0.66,
0.692,0.15,-0.04,1.03,0.64,-0.80,0.66,
0.693,0.15,-0.04,1.03,0.64,-0.80,0.66,
0.694,0.15,-0.04,1.03,0.47,-0.87,0.71,
0.694,0.14,-0.04,1.04,0.47,-0.87,0.71,
0.697,0.14,-0.03,1.05,0.47,-0.87,0.71,
0.697,0.14,-0.03,1.05,0.33,-0.86,0.75,
0.7,0.15,-0.03,1.06,0.33,-0.86,0.75,
0.703,0.15,-0.02,1.07,0.33,-0.86,0.75,
0.703,0.15,-0.02,1.07,0.21,-0.75,0.92,
0.704,0.15,-0.01,1.09,0.21,-0.75,0.92,
0.708,0.15,-0.00,1.10,0.21,-0.75,0.92,
0.708,0.15,-0.00,1.10,0.21,-0.60,1.15,
0.709,0.16,0.01,1.11,0.21,-0.60,1.15,
0.712,0.17,0.02,1.13,0.21,-0.60,1.15,
0.712,0.17,0.02,1.13,0.19,-0.44,1.40,
0.714,0.18,0.02,1.14,0.19,-0.44,1.40,
0.718,0.18,0.03,1.15,0.19,-0.44,1.40,
0.718,0.18,0.03,1.15,0.26,-0.22,1.68,
0.719,0.19,0.03,1.16,0.26,-0.22,1.68,
0.722,0.20,0.03,1.17,0.26,-0.22,1.68,
0.722,0.20,0.03,1.17,0.38,-0.08,1.90,
0.727,0.20,0.04,1.18,0.38,-0.08,1.90,
0.728,0.21,0.04,1.18,0.38,-0.08,1.90,
0.728,0.21,0.04,1.18,0.48,0.03,2.10,
0.73,0.21,0.03,1.18,0.48,0.03,2.10,
0.732,0.22,0.03,1.18,0.48,0.03,2.10,
0.732,0.22,0.03,1.18,0.59,0.08,2.25,
0.734,0.21,0.03,1.18,0.59,0.08,2.25,
0.738,0.21,0.03,1.18,0.59,0.08,2.25,
0.738,0.21,0.03,1.18,0.65,0.06,2.23,
0.741,0.20,0.03,1.19,0.65,0.06,2.23,
0.741,0.19,0.02,1.18,0.65,0.06,2.23,
0.742,0.19,0.02,1.18,0.59,0.09,2.25,
0.744,0.19,0.02,1.18,0.59,0.09,2.25,
0.747,0.18,0.01,1.17,0.59,0.09,2.25,
0.747,0.18,0.01,1.17,0.45,0.07,2.28,
0.749,0.17,0.00,1.16,0.45,0.07,2.28,
0.751,0.16,-0.01,1.15,0.45,0.07,2.28,
0.752,0.16,-0.01,1.15,0.30,-0.03,2.21,
0.755,0.15,-0.02,1.14,0.30,-0.03,2.21,
0.758,0.14,-0.02,1.13,0.30,-0.03,2.21,
0.758,0.14,-0.02,1.13,0.12,-0.20,2.00,
0.759,0.13,-0.03,1.11,0.12,-0.20,2.00,
0.761,0.12,-0.03,1.10,0.12,-0.20,2.00,
0.762,0.12,-0.03,1.10,-0.06,-0.32,1.74,
0.764,0.12,-0.04,1.10,-0.06,-0.32,1.74,
0.766,0.11,-0.04,1.08,-0.06,-0.32,1.74,
0.766,0.11,-0.04,1.08,-0.26,-0.38,1.51,
0.77,0.10,-0.04,1.08,-0.26,-0.38,1.51,
0.772,0.10,-0.04,1.06,-0.26,-0.38,1.51,
0.772,0.10,-0.04,1.06,-0.38,-0.48,1.33,
0.774,0.09,-0.05,1.05,-0.38,-0.48,1.33,
0.777,0.09,-0.05,1.04,-0.38,-0.48,1.33,
0.777,0.09,-0.05,1.04,-0.49,-0.47,1.12,
0.779,0.10,-0.05,1.03,-0.49,-0.47,1.12,
0.781,0.10,-0.04,1.03,-0.49,-0.47,1.12,
0.782,0.10,-0.04,1.03,-0.54,-0.50,0.88,
0.784,0.10,-0.04,1.03,-0.54,-0.50,0.88,
0.786,0.11,-0.03,1.02,-0.54,-0.50,0.88,
0.786,0.11,-0.03,1.02,-0.47,-0.41,0.72,
0.788,0.12,-0.03,1.01,-0.47,-0.41,0.72,
0.795,0.12,-0.02,1.00,-0.47,-0.41,0.72,
0.796,0.12,-0.02,1.00,-0.37,-0.27,0.64,
0.797,0.13,-0.02,1.00,-0.37,-0.27,0.64,
0.797,0.14,-0.02,0.99,-0.37,-0.27,0.64,
0.797,0.14,-0.02,0.99,-0.23,-0.17,0.48,
0.798,0.15,-0.02,0.98,-0.23,-0.17,0.48,
0.801,0.16,-0.01,0.98,-0.23,-0.17,0.48,
0.801,0.16,-0.01,0.98,-0.11,-0.05,0.37,
0.803,0.17,-0.01,0.97,-0.11,-0.05,0.37,
0.806,0.18,-0.00,0.96,-0.11,-0.05,0.37,
0.806,0.18,-0.00,0.96,0.07,0.01,0.22,
0.809,0.19,0.00,0.96,0.07,0.01,0.22,
0.811,0.19,0.01,0.96,0.07,0.01,0.22,
0.811,0.19,0.01,0.96,0.27,0.12,0.09,
0.813,0.20,0.01,0.96,0.27,0.12,0.09,
0.816,0.20,0.01,0.95,0.27,0.12,0.09,
0.816,0.20,0.01,0.95,0.46,0.23,0.04,
0.827,0.20,0.02,0.95,0.46,0.23,0.04,
0.827,0.20,0.02,0.95,0.46,0.23,0.04,
0.828,0.20,0.02,0.95,0.55,0.31,-0.01,
0.828,0.20,0.02,0.94,0.55,0.31,-0.01,
0.828,0.20,0.02,0.94,0.55,0.31,-0.01,
0.829,0.20,0.02,0.94,0.58,0.41,-0.10,
0.829,0.19,0.03,0.94,0.58,0.41,-0.10,
0.832,0.18,0.02,0.94,0.58,0.41,-0.10,
0.832,0.18,0.02,0.94,0.56,0.45,-0.16,
0.833,0.18,0.02,0.94,0.56,0.45,-0.16,
0.836,0.17,0.02,0.94,0.56,0.45,-0.16,
0.837,0.17,0.02,0.94,0.43,0.49,-0.19,
0.838,0.15,0.02,0.95,0.43,0.49,-0.19,
0.843,0.14,0.01,0.96,0.43,0.49,-0.19,
0.843,0.14,0.01,0.96,0.27,0.47,-0.16,
0.843,0.13,0.00,0.96,0.27,0.47,-0.16,
0.846,0.12,-0.00,0.97,0.27,0.47,-0.16,
0.846,0.12,-0.00,0.97,0.03,0.43,-0.01,
0.849,0.12,-0.01,0.97,0.03,0.43,-0.01,
0.851,0.12,-0.03,0.97,0.03,0.43,-0.01,
0.851,0.12,-0.03,0.97,-0.18,0.27,0.11,
0.854,0.12,-0.04,0.97,-0.18,0.27,0.11,
0.856,0.12,-0.06,0.97,-0.18,0.27,0.11,
0.856,0.12,-0.06,0.97,-0.25,0.06,0.13,
0.861,0.12,-0.07,0.97,-0.25,0.06,0.13,
0.862,0.12,-0.08,0.97,-0.25,0.06,0.13,
0.862,0.12,-0.08,0.97,-0.26,-0.18,0.15,
0.863,0.12,-0.09,0.97,-0.26,-0.18,0.15,
0.866,0.12,-0.10,0.97,-0.26,-0.18,0.15,
0.866,0.12,-0.10,0.97,-0.23,-0.39,0.09,
0.869,0.14,-0.11,0.97,-0.23,-0.39,0.09,
0.871,0.15,-0.11,0.97,-0.23,-0.39,0.09,
0.871,0.15,-0.11,0.97,-0.21,-0.58,0.09,
0.873,0.17,-0.12,0.98,-0.21,-0.58,0.09,
0.876,0.18,-0.12,0.98,-0.21,-0.58,0.09,
0.877,0.18,-0.12,0.98,-0.03,-0.70,0.15,
0.878,0.20,-0.12,0.99,-0.03,-0.70,0.15,
0.881,0.22,-0.13,1.00,-0.03,-0.70,0.15,
0.881,0.22,-0.13,1.00,0.29,-0.79,0.21,
0.883,0.24,-0.13,1.01,0.29,-0.79,0.21,
0.886,0.25,-0.13,1.02,0.29,-0.79,0.21,
0.886,0.25,-0.13,1.02,0.61,-0.79,0.35,
0.888,0.26,-0.12,1.04,0.61,-0.79,0.35,
0.892,0.27,-0.12,1.05,0.61,-0.79,0.35,
0.892,0.27,-0.12,1.05,0.91,-0.77,0.57,
0.894,0.28,-0.11,1.07,0.91,-0.77,0.57,
0.895,0.28,-0.11,1.09,0.91,-0.77,0.57,
0.896,0.28,-0.11,1.09,1.11,-0.68,0.86,
0.898,0.29,-0.10,1.11,1.11,-0.68,0.86,
0.901,0.29,-0.10,1.11,1.24,-0.50,1.22,
0.901,0.29,-0.09,1.13,1.24,-0.50,1.22,
0.903,0.29,-0.07,1.15,1.24,-0.50,1.22,
0.906,0.29,-0.06,1.17,1.24,-0.50,1.22,
0.906,0.29,-0.06,1.17,1.28,-0.30,1.62,
0.909,0.29,-0.05,1.20,1.28,-0.30,1.62,
0.91,0.28,-0.05,1.22,1.28,-0.30,1.62,
0.91,0.28,-0.05,1.22,1.26,-0.03,2.02,
0.913,0.27,-0.04,1.24,1.26,-0.03,2.02,
0.916,0.27,-0.04,1.24,1.17,0.19,2.49,
0.916,0.27,-0.03,1.26,1.17,0.19,2.49,
0.918,0.26,-0.03,1.27,1.17,0.19,2.49,
0.92,0.26,-0.03,1.29,1.17,0.19,2.49,
0.92,0.26,-0.03,1.29,1.04,0.38,2.86,
0.923,0.26,-0.03,1.31,1.04,0.38,2.86,
0.925,0.25,-0.03,1.33,1.04,0.38,2.86,
0.926,0.25,-0.03,1.33,0.91,0.47,3.19,
0.927,0.25,-0.03,1.34,0.91,0.47,3.19,
0.931,0.25,-0.04,1.35,0.91,0.47,3.19,
0.931,0.25,-0.04,1.35,0.78,0.49,3.55,
0.933,0.25,-0.05,1.36,0.78,0.49,3.55,
0.935,0.25,-0.05,1.38,0.78,0.49,3.55,
0.936,0.25,-0.05,1.38,0.69,0.43,3.80,
0.938,0.25,-0.06,1.38,0.69,0.43,3.80,
0.94,0.25,-0.08,1.40,0.69,0.43,3.80,
0.94,0.25,-0.08,1.40,0.65,0.30,4.03,
0.943,0.25,-0.09,1.40,0.65,0.30,4.03,
0.945,0.26,-0.10,1.41,0.65,0.30,4.03,
0.945,0.26,-0.10,1.41,0.64,0.16,4.23,
0.948,0.26,-0.10,1.41,0.64,0.16,4.23,
0.95,0.27,-0.11,1.41,0.64,0.16,4.23,
0.95,0.27,-0.11,1.41,0.65,-0.05,4.36,
0.953,0.27,-0.12,1.42,0.65,-0.05,4.36,
0.955,0.27,-0.13,1.41,0.65,-0.05,4.36,
0.955,0.27,-0.13,1.41,0.72,-0.19,4.41,
0.958,0.27,-0.13,1.42,0.72,-0.19,4.41,
0.963,0.27,-0.13,1.42,0.72,-0.19,4.41,
0.963,0.27,-0.13,1.42,0.76,-0.34,4.45,
0.963,0.27,-0.13,1.41,0.76,-0.34,4.45,
0.965,0.26,-0.13,1.41,0.76,-0.34,4.45,
0.965,0.26,-0.13,1.41,0.72,-0.39,4.48,
0.967,0.26,-0.12,1.41,0.72,-0.39,4.48,
0.969,0.25,-0.12,1.40,0.72,-0.39,4.48,
0.97,0.25,-0.12,1.40,0.67,-0.35,4.42,
0.972,0.25,-0.12,1.40,0.67,-0.35,4.42,
0.975,0.24,-0.11,1.39,0.67,-0.35,4.42,
0.976,0.24,-0.11,1.39,0.57,-0.25,4.38,
0.977,0.24,-0.10,1.38,0.57,-0.25,4.38,
0.979,0.23,-0.09,1.37,0.57,-0.25,4.38,
0.98,0.23,-0.09,1.37,0.45,-0.16,4.23,
0.982,0.22,-0.09,1.36,0.45,-0.16,4.23,
0.984,0.21,-0.08,1.35,0.45,-0.16,4.23,
0.985,0.21,-0.08,1.35,0.34,0.02,4.00,
0.987,0.20,-0.07,1.34,0.34,0.02,4.00,
0.99,0.20,-0.06,1.33,0.34,0.02,4.00,
0.99,0.20,-0.06,1.33,0.17,0.20,3.80,
0.992,0.20,-0.06,1.32,0.17,0.20,3.80,
0.994,0.20,-0.06,1.31,0.17,0.20,3.80,
0.994,0.20,-0.06,1.31,0.05,0.36,3.60,
0.997,0.19,-0.05,1.31,0.05,0.36,3.60,
0.999,0.19,-0.05,1.31,0.05,0.36,3.60,
0.999,0.19,-0.05,1.31,0.01,0.45,3.42,
1.001,0.19,-0.05,1.30,0.01,0.45,3.42,
1.004,0.19,-0.05,1.29,0.01,0.45,3.42,
1.004,0.19,-0.05,1.29,-0.01,0.54,3.31,
1.006,0.19,-0.04,1.28,-0.01,0.54,3.31,
1.01,0.18,-0.04,1.29,-0.01,0.54,3.31,
1.011,0.18,-0.04,1.29,-0.04,0.54,3.15,
1.011,0.18,-0.04,1.28,-0.04,0.54,3.15,
1.014,0.18,-0.04,1.28,-0.07,0.65,3.06,
1.014,0.18,-0.04,1.29,-0.07,0.65,3.06,
1.016,0.17,-0.04,1.28,-0.07,0.65,3.06,
1.019,0.17,-0.04,1.28,-0.07,0.65,3.06,
1.019,0.17,-0.04,1.28,-0.13,0.65,3.06,
1.021,0.17,-0.05,1.27,-0.13,0.65,3.06,
1.024,0.16,-0.05,1.27,-0.13,0.65,3.06,
1.024,0.16,-0.05,1.27,-0.19,0.65,3.04,
1.026,0.16,-0.06,1.27,-0.19,0.65,3.04,
1.029,0.16,-0.07,1.26,-0.19,0.65,3.04,
1.029,0.16,-0.07,1.26,-0.25,0.59,2.91,
1.031,0.16,-0.08,1.25,-0.25,0.59,2.91,
1.034,0.16,-0.08,1.24,-0.25,0.59,2.91,
1.034,0.16,-0.08,1.24,-0.27,0.44,2.81,
1.036,0.16,-0.09,1.23,-0.27,0.44,2.81,
1.038,0.16,-0.10,1.22,-0.27,0.44,2.81,
1.039,0.16,-0.10,1.22,-0.28,0.28,2.61,
1.041,0.16,-0.10,1.21,-0.28,0.28,2.61,
1.044,0.17,-0.11,1.20,-0.28,0.28,2.61,
1.045,0.17,-0.11,1.20,-0.25,0.13,2.42,
1.046,0.17,-0.12,1.19,-0.25,0.13,2.42,
1.049,0.17,-0.12,1.19,-0.19,0.01,2.23,
1.049,0.17,-0.12,1.18,-0.19,0.01,2.23,
1.051,0.18,-0.11,1.17,-0.19,0.01,2.23,
1.053,0.17,-0.11,1.16,-0.19,0.01,2.23,
1.054,0.17,-0.11,1.16,-0.12,-0.10,2.04,
1.056,0.18,-0.10,1.15,-0.12,-0.10,2.04,
1.063,0.17,-0.10,1.14,-0.12,-0.10,2.04,
1.064,0.17,-0.10,1.14,-0.08,-0.06,1.83,
1.064,0.17,-0.09,1.14,-0.08,-0.06,1.83,
1.064,0.17,-0.08,1.13,-0.08,-0.06,1.83,
1.064,0.17,-0.08,1.13,-0.06,0.02,1.64,
1.066,0.17,-0.08,1.12,-0.06,0.02,1.64,
1.069,0.17,-0.07,1.11,-0.06,0.02,1.64,
1.07,0.17,-0.07,1.11,-0.06,0.16,1.49,
1.071,0.17,-0.06,1.11,-0.06,0.16,1.49,
1.073,0.17,-0.06,1.11,-0.06,0.16,1.49,
1.073,0.17,-0.06,1.11,-0.06,0.30,1.31,
1.077,0.18,-0.06,1.10,-0.06,0.30,1.31,
1.078,0.18,-0.05,1.10,-0.06,0.30,1.31,
1.078,0.18,-0.05,1.10,-0.05,0.40,1.21,
1.081,0.19,-0.05,1.10,-0.05,0.40,1.21,
1.083,0.19,-0.04,1.10,-0.05,0.40,1.21,
1.083,0.19,-0.04,1.10,-0.00,0.47,1.17,
1.085,0.19,-0.04,1.11,-0.00,0.47,1.17,
1.088,0.19,-0.03,1.10,-0.00,0.47,1.17,
1.088,0.19,-0.03,1.10,0.09,0.50,1.17,
1.091,0.20,-0.03,1.10,0.09,0.50,1.17,
1.094,0.21,-0.03,1.10,0.09,0.50,1.17,
1.095,0.21,-0.03,1.10,0.14,0.61,1.17,
1.095,0.22,-0.03,1.11,0.14,0.61,1.17,
1.098,0.22,-0.03,1.11,0.14,0.61,1.17,
1.098,0.22,-0.03,1.11,0.25,0.62,1.12,
1.1,0.23,-0.04,1.11,0.25,0.62,1.12,
1.103,0.24,-0.04,1.12,0.25,0.62,1.12,
1.103,0.24,-0.04,1.12,0.41,0.64,1.23,
1.105,0.25,-0.04,1.12,0.41,0.64,1.23,
1.11,0.25,-0.04,1.13,0.41,0.64,1.23,
1.11,0.25,-0.04,1.13,0.55,0.56,1.29,
1.113,0.25,-0.05,1.13,0.55,0.56,1.29,
1.113,0.26,-0.05,1.14,0.55,0.56,1.29,
1.114,0.26,-0.05,1.14,0.68,0.51,1.38,
1.116,0.25,-0.05,1.14,0.68,0.51,1.38,
1.118,0.25,-0.05,1.15,0.68,0.51,1.38,
1.118,0.25,-0.05,1.15,0.75,0.45,1.47,
1.12,0.24,-0.05,1.16,0.75,0.45,1.47,
1.123,0.24,-0.06,1.16,0.75,0.45,1.47,
1.124,0.24,-0.06,1.16,0.71,0.41,1.58,
1.126,0.23,-0.06,1.16,0.71,0.41,1.58,
1.128,0.22,-0.06,1.16,0.71,0.41,1.58,
1.128,0.22,-0.06,1.16,0.63,0.37,1.71,
1.13,0.22,-0.06,1.16,0.63,0.37,1.71,
1.133,0.21,-0.06,1.15,0.63,0.37,1.71,
1.133,0.21,-0.06,1.15,0.49,0.31,1.67,
1.135,0.20,-0.06,1.14,0.49,0.31,1.67,
1.138,0.19,-0.06,1.14,0.49,0.31,1.67,
1.139,0.19,-0.06,1.14,0.35,0.31,1.61,
1.14,0.19,-0.07,1.12,0.35,0.31,1.61,
1.144,0.18,-0.06,1.10,0.35,0.31,1.61,
1.144,0.18,-0.06,1.10,0.19,0.23,1.45,
1.145,0.17,-0.06,1.10,0.19,0.23,1.45,
1.148,0.17,-0.06,1.10,0.19,0.23,1.45,
1.152,0.17,-0.06,1.10,0.09,0.20,1.18,
1.152,0.17,-0.07,1.09,0.09,0.20,1.18,
1.153,0.16,-0.06,1.08,0.09,0.20,1.18,
1.153,0.16,-0.06,1.08,-0.01,0.20,1.04,
1.155,0.16,-0.06,1.07,-0.01,0.20,1.04,
1.158,0.14,-0.05,1.07,-0.01,0.20,1.04,
1.158,0.14,-0.05,1.07,-0.06,0.19,0.91,
1.163,0.14,-0.05,1.07,-0.06,0.19,0.91,
1.164,0.14,-0.05,1.07,-0.06,0.19,0.91,
1.164,0.14,-0.05,1.07,-0.19,0.27,0.74,
1.165,0.14,-0.05,1.08,-0.19,0.27,0.74,
1.168,0.14,-0.05,1.07,-0.19,0.27,0.74,
1.168,0.14,-0.05,1.07,-0.25,0.29,0.76,
1.17,0.15,-0.05,1.07,-0.25,0.29,0.76,
1.172,0.15,-0.05,1.07,-0.25,0.29,0.76,
1.173,0.15,-0.05,1.07,-0.26,0.29,0.81,
1.175,0.15,-0.05,1.06,-0.26,0.29,0.81,
1.177,0.15,-0.05,1.06,-0.26,0.29,0.81,
1.178,0.15,-0.05,1.06,-0.16,0.28,0.75,
1.18,0.15,-0.05,1.06,-0.16,0.28,0.75,
1.182,0.15,-0.05,1.06,-0.10,0.24,0.64,
1.183,0.16,-0.06,1.06,-0.10,0.24,0.64,
1.185,0.16,-0.05,1.06,-0.10,0.24,0.64,
1.187,0.17,-0.05,1.07,-0.10,0.24,0.64,
1.187,0.17,-0.05,1.07,-0.06,0.19,0.61,
1.19,0.18,-0.05,1.07,-0.06,0.19,0.61,
1.194,0.19,-0.05,1.08,-0.06,0.19,0.61,
1.194,0.19,-0.05,1.08,0.05,0.18,0.69,
1.196,0.19,-0.05,1.09,0.05,0.18,0.69,
1.197,0.19,-0.05,1.09,0.05,0.18,0.69,
1.198,0.19,-0.05,1.09,0.20,0.15,0.75,
1.199,0.19,-0.04,1.10,0.20,0.15,0.75,
1.203,0.19,-0.04,1.10,0.20,0.15,0.75,
1.203,0.19,-0.04,1.10,0.29,0.20,0.89,
1.206,0.19,-0.03,1.11,0.29,0.20,0.89,
1.207,0.19,-0.03,1.12,0.29,0.20,0.89,
1.208,0.19,-0.03,1.12,0.29,0.24,1.03,
1.211,0.18,-0.03,1.12,0.29,0.24,1.03,
1.212,0.18,-0.03,1.12,0.29,0.24,1.03,
1.212,0.18,-0.03,1.12,0.27,0.31,1.14,
1.215,0.18,-0.03,1.12,0.27,0.31,1.14,
1.218,0.17,-0.03,1.11,0.27,0.31,1.14,
1.218,0.17,-0.03,1.11,0.21,0.33,1.17,
1.22,0.16,-0.03,1.11,0.21,0.33,1.17,
1.222,0.16,-0.03,1.11,0.21,0.33,1.17,
1.223,0.16,-0.03,1.11,0.15,0.32,1.13,
1.225,0.15,-0.04,1.10,0.15,0.32,1.13,
1.228,0.15,-0.04,1.10,0.15,0.32,1.13,
1.228,0.15,-0.04,1.10,-0.00,0.25,1.10,
1.229,0.14,-0.04,1.09,-0.00,0.25,1.10,
1.232,0.14,-0.04,1.09,-0.00,0.25,1.10,
1.233,0.14,-0.04,1.09,-0.08,0.17,0.97,
1.235,0.14,-0.05,1.08,-0.08,0.17,0.97,
1.237,0.14,-0.05,1.08,-0.08,0.17,0.97,
1.237,0.14,-0.05,1.08,-0.14,0.10,0.88,
1.24,0.13,-0.06,1.08,-0.14,0.10,0.88,
1.242,0.13,-0.06,1.08,-0.14,0.10,0.88,
1.242,0.13,-0.06,1.08,-0.19,-0.01,0.78,
1.245,0.13,-0.06,1.09,-0.19,-0.01,0.78,
1.246,0.13,-0.06,1.08,-0.19,-0.01,0.78,
1.248,0.13,-0.06,1.08,-0.22,-0.09,0.78,
1.25,0.12,-0.06,1.09,-0.22,-0.09,0.78,
1.252,0.11,-0.06,1.09,-0.22,-0.09,0.78,
1.253,0.11,-0.06,1.09,-0.26,-0.12,0.81,
1.255,0.11,-0.06,1.10,-0.26,-0.12,0.81,
1.257,0.10,-0.06,1.11,-0.26,-0.12,0.81,
1.257,0.10,-0.06,1.11,-0.35,-0.16,0.87,
1.259,0.10,-0.06,1.11,-0.35,-0.16,0.87,
1.262,0.09,-0.06,1.12,-0.35,-0.16,0.87,
1.262,0.09,-0.06,1.12,-0.45,-0.17,0.99,
1.264,0.09,-0.06,1.13,-0.45,-0.17,0.99,
1.267,0.09,-0.06,1.12,-0.45,-0.17,0.99,
1.267,0.09,-0.06,1.12,-0.56,-0.20,1.07,
1.27,0.09,-0.06,1.12,-0.56,-0.20,1.07,
1.272,0.09,-0.06,1.13,-0.56,-0.20,1.07,
1.272,0.09,-0.06,1.13,-0.58,-0.20,1.18,
1.275,0.09,-0.06,1.12,-0.58,-0.20,1.18,
1.281,0.09,-0.06,1.12,-0.58,-0.20,1.18,
1.282,0.09,-0.06,1.12,-0.58,-0.20,1.17,
1.282,0.10,-0.06,1.12,-0.58,-0.20,1.17,
1.282,0.10,-0.07,1.11,-0.58,-0.20,1.17,
1.282,0.10,-0.07,1.11,-0.50,-0.22,1.11,
1.285,0.10,-0.06,1.11,-0.50,-0.22,1.11,
1.286,0.10,-0.07,1.11,-0.50,-0.22,1.11,
1.287,0.10,-0.07,1.11,-0.43,-0.28,1.06,
1.289,0.11,-0.07,1.09,-0.43,-0.28,1.06,
1.292,0.10,-0.07,1.08,-0.43,-0.28,1.06,
1.292,0.10,-0.07,1.08,-0.37,-0.33,0.98,
1.294,0.10,-0.07,1.07,-0.37,-0.33,0.98,
1.296,0.10,-0.07,1.08,-0.37,-0.33,0.98,
1.297,0.10,-0.07,1.08,-0.31,-0.39,0.77,
1.299,0.09,-0.08,1.07,-0.31,-0.39,0.77,
1.302,0.10,-0.08,1.05,-0.31,-0.39,0.77,
1.302,0.10,-0.08,1.05,-0.33,-0.41,0.64,
1.304,0.10,-0.08,1.03,-0.33,-0.41,0.64,
1.307,0.10,-0.08,1.02,-0.33,-0.41,0.64,
1.307,0.10,-0.08,1.02,-0.32,-0.49,0.54,
1.309,0.09,-0.08,1.01,-0.32,-0.49,0.54,
1.311,0.08,-0.08,1.00,-0.32,-0.49,0.54,
1.312,0.08,-0.08,1.00,-0.24,-0.57,0.17,
1.314,0.08,-0.07,1.00,-0.24,-0.57,0.17,
1.316,0.07,-0.06,0.98,-0.24,-0.57,0.17,
1.317,0.07,-0.06,0.98,-0.33,-0.55,-0.04,
1.319,0.06,-0.04,0.98,-0.33,-0.55,-0.04,
1.321,0.06,-0.03,0.97,-0.33,-0.55,-0.04,
1.322,0.06,-0.03,0.97,-0.46,-0.40,-0.17,
1.324,0.05,-0.02,0.97,-0.46,-0.40,-0.17,
1.329,0.05,-0.02,0.97,-0.46,-0.40,-0.17,
1.33,0.05,-0.02,0.97,-0.57,-0.18,-0.32,
1.33,0.04,-0.01,0.96,-0.57,-0.18,-0.32,
1.331,0.04,-0.00,0.96,-0.57,-0.18,-0.32,
1.332,0.04,-0.00,0.96,-0.63,-0.02,-0.40,
1.333,0.04,0.00,0.97,-0.63,-0.02,-0.40,
1.336,0.03,0.01,0.97,-0.63,-0.02,-0.40,
1.336,0.03,0.01,0.97,-0.71,0.12,-0.50,
1.338,0.03,0.01,0.97,-0.71,0.12,-0.50,
1.34,0.03,0.01,0.98,-0.71,0.12,-0.50,
1.341,0.03,0.01,0.98,-0.74,0.20,-0.38,
1.344,0.03,0.01,0.99,-0.74,0.20,-0.38,
1.347,0.04,0.00,1.01,-0.74,0.20,-0.38,
1.347,0.04,0.00,1.01,-0.77,0.24,-0.32,
1.348,0.04,0.00,1.02,-0.77,0.24,-0.32,
1.351,0.05,-0.01,1.03,-0.77,0.24,-0.32,
1.351,0.05,-0.01,1.03,-0.71,0.16,-0.11,
1.353,0.05,-0.02,1.04,-0.71,0.16,-0.11,
1.356,0.05,-0.03,1.05,-0.71,0.16,-0.11,
1.356,0.05,-0.03,1.05,-0.59,0.03,0.13,
1.358,0.05,-0.03,1.06,-0.59,0.03,0.13,
1.361,0.05,-0.05,1.07,-0.59,0.03,0.13,
1.362,0.05,-0.05,1.07,-0.53,-0.20,0.36,
1.363,0.05,-0.06,1.08,-0.53,-0.20,0.36,
1.365,0.04,-0.06,1.07,-0.53,-0.20,0.36,
1.366,0.04,-0.06,1.07,-0.56,-0.39,0.52,
1.368,0.04,-0.07,1.07,-0.56,-0.39,0.52,
1.37,0.04,-0.07,1.06,-0.56,-0.39,0.52,
1.37,0.04,-0.07,1.06,-0.60,-0.60,0.62,
1.373,0.03,-0.07,1.06,-0.60,-0.60,0.62,
1.375,0.02,-0.06,1.05,-0.60,-0.60,0.62,
1.375,0.02,-0.06,1.05,-0.64,-0.74,0.51,
1.381,0.02,-0.06,1.04,-0.64,-0.74,0.51,
1.381,0.01,-0.06,1.04,-0.64,-0.74,0.51,
1.382,0.01,-0.06,1.04,-0.77,-0.74,0.41,
1.383,0.01,-0.06,1.03,-0.77,-0.74,0.41,
1.385,0.01,-0.06,1.02,-0.77,-0.74,0.41,
1.385,0.01,-0.06,1.02,-0.86,-0.73,0.25,
1.388,0.02,-0.05,1.01,-0.86,-0.73,0.25,
1.39,0.02,-0.05,0.99,-0.86,-0.73,0.25,
1.39,0.02,-0.05,0.99,-0.91,-0.77,0.13,
1.394,0.02,-0.05,0.97,-0.91,-0.77,0.13,
1.396,0.03,-0.04,0.95,-0.91,-0.77,0.13,
1.396,0.03,-0.04,0.95,-0.78,-0.74,-0.13,
1.397,0.03,-0.04,0.94,-0.78,-0.74,-0.13,
1.4,0.03,-0.04,0.93,-0.78,-0.74,-0.13,
1.4,0.03,-0.04,0.93,-0.70,-0.74,-0.47,
1.402,0.03,-0.03,0.92,-0.70,-0.74,-0.47,
1.405,0.03,-0.02,0.90,-0.70,-0.74,-0.47,
1.405,0.03,-0.02,0.90,-0.67,-0.74,-0.76,
1.407,0.03,-0.01,0.89,-0.67,-0.74,-0.76,
1.411,0.03,-0.00,0.87,-0.67,-0.74,-0.76,
1.411,0.03,-0.00,0.87,-0.65,-0.65,-1.03,
1.412,0.04,0.00,0.86,-0.65,-0.65,-1.03,
1.416,0.04,0.01,0.85,-0.65,-0.65,-1.03,
1.416,0.04,0.01,0.85,-0.58,-0.52,-1.28,
1.417,0.05,0.02,0.84,-0.58,-0.52,-1.28,
1.42,0.05,0.03,0.83,-0.58,-0.52,-1.28,
1.42,0.05,0.03,0.83,-0.50,-0.40,-1.55,
1.423,0.05,0.03,0.81,-0.50,-0.40,-1.55,
1.425,0.05,0.04,0.81,-0.50,-0.40,-1.55,
1.425,0.05,0.04,0.81,-0.41,-0.29,-1.71,
1.428,0.06,0.05,0.80,-0.41,-0.29,-1.71,
1.43,0.06,0.06,0.79,-0.41,-0.29,-1.71,
1.43,0.06,0.06,0.79,-0.37,-0.22,-1.95,
1.432,0.06,0.05,0.78,-0.37,-0.22,-1.95,
1.435,0.06,0.06,0.78,-0.37,-0.22,-1.95,
1.435,0.06,0.06,0.78,-0.32,-0.09,-2.14,
1.437,0.06,0.07,0.78,-0.32,-0.09,-2.14,
1.44,0.06,0.07,0.79,-0.32,-0.09,-2.14,
1.44,0.06,0.07,0.79,-0.31,-0.09,-2.20,
1.442,0.06,0.08,0.79,-0.31,-0.09,-2.20,
1.446,0.06,0.08,0.78,-0.31,-0.09,-2.20,
1.446,0.06,0.08,0.78,-0.27,-0.02,-2.16,
1.447,0.05,0.08,0.79,-0.27,-0.02,-2.16,
1.449,0.05,0.09,0.80,-0.27,-0.02,-2.16,
1.45,0.05,0.09,0.80,-0.27,0.05,-2.18,
1.452,0.05,0.09,0.80,-0.27,0.05,-2.18,
1.455,0.04,0.09,0.80,-0.27,0.05,-2.18,
1.455,0.04,0.09,0.80,-0.35,0.11,-2.10,
1.457,0.03,0.09,0.81,-0.35,0.11,-2.10,
1.46,0.03,0.09,0.82,-0.35,0.11,-2.10,
1.46,0.03,0.09,0.82,-0.42,0.13,-1.99,
1.463,0.02,0.09,0.83,-0.42,0.13,-1.99,
1.464,0.01,0.09,0.84,-0.42,0.13,-1.99,
1.464,0.01,0.09,0.84,-0.56,0.13,-1.84,
1.467,0.01,0.09,0.85,-0.56,0.13,-1.84,
1.469,0.01,0.08,0.87,-0.56,0.13,-1.84,
1.469,0.01,0.08,0.87,-0.69,0.06,-1.68,
1.472,0.01,0.07,0.88,-0.69,0.06,-1.68,
1.474,0.00,0.06,0.89,-0.69,0.06,-1.68,
1.474,0.00,0.06,0.89,-0.78,-0.00,-1.40,
1.482,0.00,0.05,0.90,-0.78,-0.00,-1.40,
1.485,0.01,0.04,0.90,-0.78,-0.00,-1.40,
1.485,0.01,0.04,0.90,-0.80,-0.17,-1.19,
1.486,0.01,0.03,0.91,-0.80,-0.17,-1.19,
1.486,0.01,0.03,0.91,-0.79,-0.38,-0.99,
1.487,0.01,0.02,0.92,-0.79,-0.38,-0.99,
1.487,0.01,0.01,0.93,-0.79,-0.38,-0.99,
1.49,0.01,0.01,0.93,-0.79,-0.38,-0.99,
1.49,0.01,0.01,0.93,-0.73,-0.63,-0.84,
1.492,0.01,0.00,0.93,-0.73,-0.63,-0.84,
1.497,0.01,-0.00,0.94,-0.73,-0.63,-0.84,
1.499,0.01,-0.00,0.94,-0.72,-0.77,-0.69,
1.499,0.01,-0.00,0.94,-0.72,-0.77,-0.69,
1.5,0.01,-0.00,0.94,-0.72,-0.77,-0.69,
1.5,0.01,-0.00,0.94,-0.69,-0.91,-0.65,
1.502,0.01,-0.00,0.93,-0.69,-0.91,-0.65,
1.504,0.01,-0.00,0.93,-0.69,-0.91,-0.65,
1.505,0.01,-0.00,0.93,-0.72,-0.96,-0.63,
1.507,0.00,-0.00,0.93,-0.72,-0.96,-0.63,
1.51,0.00,-0.00,0.93,-0.72,-0.96,-0.63,
1.51,0.00,-0.00,0.93,-0.73,-0.99,-0.69,
1.512,0.01,0.01,0.91,-0.73,-0.99,-0.69,
1.514,0.00,0.01,0.90,-0.73,-0.99,-0.69,
1.514,0.00,0.01,0.90,-0.75,-0.99,-0.73,
1.517,-0.00,0.01,0.88,-0.75,-0.99,-0.73,
1.52,-0.00,0.01,0.88,-0.73,-0.92,-0.92,
1.52,-0.01,0.02,0.87,-0.73,-0.92,-0.92,
1.521,-0.01,0.03,0.87,-0.73,-0.92,-0.92,
1.524,-0.01,0.03,0.86,-0.73,-0.92,-0.92,
1.525,-0.01,0.03,0.86,-0.80,-0.89,-1.20,
1.527,-0.01,0.04,0.84,-0.80,-0.89,-1.20,
1.53,-0.01,0.05,0.84,-0.80,-0.89,-1.20,
1.53,-0.01,0.05,0.84,-0.85,-0.76,-1.35,
1.531,-0.01,0.05,0.83,-0.85,-0.76,-1.35,
1.534,-0.01,0.05,0.82,-0.85,-0.76,-1.35,
1.534,-0.01,0.05,0.82,-0.84,-0.64,-1.55,
1.537,-0.01,0.05,0.81,-0.84,-0.64,-1.55,
1.539,-0.01,0.06,0.80,-0.84,-0.64,-1.55,
1.54,-0.01,0.06,0.80,-0.80,-0.57,-1.74,
1.542,-0.01,0.06,0.79,-0.80,-0.57,-1.74,
1.544,-0.01,0.07,0.79,-0.80,-0.57,-1.74,
1.544,-0.01,0.07,0.79,-0.81,-0.53,-1.88,
1.546,-0.02,0.07,0.78,-0.81,-0.53,-1.88,
1.549,-0.02,0.07,0.78,-0.81,-0.53,-1.88,
1.549,-0.02,0.07,0.78,-0.79,-0.47,-2.04,
1.552,-0.02,0.07,0.78,-0.79,-0.47,-2.04,
1.554,-0.02,0.07,0.78,-0.79,-0.47,-2.04,
1.554,-0.02,0.07,0.78,-0.84,-0.43,-2.11,
1.557,-0.02,0.07,0.79,-0.84,-0.43,-2.11,
1.559,-0.03,0.07,0.79,-0.84,-0.43,-2.11,
1.559,-0.03,0.07,0.79,-0.90,-0.45,-2.11,
1.563,-0.03,0.07,0.80,-0.90,-0.45,-2.11,
1.563,-0.03,0.07,0.80,-0.90,-0.45,-2.11,
1.563,-0.03,0.07,0.80,-0.90,-0.47,-2.06,
1.567,-0.04,0.07,0.81,-0.90,-0.47,-2.06,
1.569,-0.04,0.07,0.82,-0.90,-0.47,-2.06,
1.569,-0.04,0.07,0.82,-0.97,-0.49,-1.94,
1.572,-0.05,0.07,0.83,-0.97,-0.49,-1.94,
1.574,-0.05,0.07,0.83,-0.97,-0.49,-1.94,
1.574,-0.05,0.07,0.83,-1.05,-0.50,-1.77,
1.576,-0.05,0.07,0.84,-1.05,-0.50,-1.77,
1.579,-0.05,0.06,0.85,-1.05,-0.50,-1.77,
1.58,-0.05,0.06,0.85,-1.11,-0.52,-1.62,
1.581,-0.04,0.07,0.86,-1.11,-0.52,-1.62,
1.583,-0.05,0.07,0.87,-1.11,-0.52,-1.62,
1.584,-0.05,0.07,0.87,-1.12,-0.54,-1.42,
1.586,-0.04,0.07,0.87,-1.12,-0.54,-1.42,
1.589,-0.04,0.07,0.88,-1.12,-0.54,-1.42,
1.589,-0.04,0.07,0.88,-1.09,-0.50,-1.28,
1.591,-0.04,0.07,0.88,-1.09,-0.50,-1.28,
1.594,-0.03,0.08,0.88,-1.09,-0.50,-1.28,
1.594,-0.03,0.08,0.88,-1.04,-0.50,-1.17,
1.597,-0.03,0.08,0.87,-1.04,-0.50,-1.17,
1.598,-0.02,0.07,0.87,-1.04,-0.50,-1.17,
1.598,-0.02,0.07,0.87,-1.02,-0.48,-1.11,
1.601,-0.01,0.07,0.86,-1.02,-0.48,-1.11,
1.603,-0.00,0.07,0.87,-1.02,-0.48,-1.11,
1.603,-0.00,0.07,0.87,-0.88,-0.49,-1.18,
1.605,0.00,0.07,0.86,-0.88,-0.49,-1.18,
1.608,0.01,0.07,0.87,-0.88,-0.49,-1.18,
1.608,0.01,0.07,0.87,-0.74,-0.53,-1.23,
1.616,0.01,0.07,0.87,-0.74,-0.53,-1.23,
1.616,0.02,0.06,0.88,-0.74,-0.53,-1.23,
1.616,0.02,0.06,0.88,-0.61,-0.55,-1.24,
1.617,0.02,0.05,0.89,-0.61,-0.55,-1.24,
1.618,0.02,0.05,0.90,-0.61,-0.55,-1.24,
1.618,0.02,0.05,0.90,-0.55,-0.63,-1.13,
1.62,0.02,0.04,0.90,-0.55,-0.63,-1.13,
1.624,0.02,0.05,0.91,-0.55,-0.63,-1.13,
1.624,0.02,0.05,0.91,-0.46,-0.77,-0.95,
1.625,0.01,0.05,0.91,-0.46,-0.77,-0.95,
1.629,-0.00,0.05,0.92,-0.46,-0.77,-0.95,
1.63,-0.00,0.05,0.92,-0.45,-0.87,-0.82,
1.63,-0.02,0.05,0.92,-0.45,-0.87,-0.82,
1.633,-0.03,0.06,0.92,-0.45,-0.87,-0.82,
1.633,-0.03,0.06,0.92,-0.64,-0.85,-0.72,
1.635,-0.04,0.07,0.92,-0.64,-0.85,-0.72,
1.638,-0.05,0.08,0.92,-0.64,-0.85,-0.72,
1.639,-0.05,0.08,0.92,-0.89,-0.79,-0.68,
1.64,-0.05,0.09,0.92,-0.89,-0.79,-0.68,
1.642,-0.06,0.10,0.91,-0.89,-0.79,-0.68,
1.644,-0.06,0.10,0.91,-1.10,-0.58,-0.65,
1.647,-0.07,0.11,0.90,-1.10,-0.58,-0.65,
1.647,-0.07,0.12,0.91,-1.10,-0.58,-0.65,
1.648,-0.07,0.12,0.91,-1.23,-0.43,-0.71,
1.65,-0.07,0.13,0.90,-1.23,-0.43,-0.71,
1.653,-0.07,0.14,0.89,-1.23,-0.43,-0.71,
1.654,-0.07,0.14,0.89,-1.34,-0.23,-0.81,
1.655,-0.07,0.15,0.88,-1.34,-0.23,-0.81,
1.657,-0.06,0.16,0.88,-1.34,-0.23,-0.81,
1.658,-0.06,0.16,0.88,-1.32,-0.04,-0.89,
1.66,-0.04,0.16,0.87,-1.32,-0.04,-0.89,
1.663,-0.04,0.17,0.87,-1.32,-0.04,-0.89,
1.664,-0.04,0.17,0.87,-1.23,0.11,-1.03,
1.665,-0.03,0.17,0.86,-1.23,0.11,-1.03,
1.667,-0.01,0.17,0.85,-1.23,0.11,-1.03,
1.668,-0.01,0.17,0.85,-1.02,0.18,-1.12,
1.67,-0.01,0.18,0.85,-1.02,0.18,-1.12,
1.672,-0.00,0.18,0.85,-1.02,0.18,-1.12,
1.672,-0.00,0.18,0.85,-0.80,0.25,-1.24,
1.675,0.00,0.18,0.85,-0.80,0.25,-1.24,
1.677,0.01,0.19,0.85,-0.80,0.25,-1.24,
1.677,0.01,0.19,0.85,-0.64,0.29,-1.32,
1.68,0.01,0.19,0.84,-0.64,0.29,-1.32,
1.682,0.02,0.19,0.84,-0.64,0.29,-1.32,
1.682,0.02,0.19,0.84,-0.51,0.37,-1.35,
1.685,0.03,0.19,0.84,-0.51,0.37,-1.35,
1.687,0.03,0.19,0.84,-0.51,0.37,-1.35,
1.687,0.03,0.19,0.84,-0.38,0.37,-1.40,
1.689,0.03,0.18,0.84,-0.38,0.37,-1.40,
1.692,0.03,0.17,0.84,-0.38,0.37,-1.40,
1.693,0.03,0.17,0.84,-0.29,0.34,-1.39,
1.695,0.03,0.18,0.84,-0.29,0.34,-1.39,
1.697,0.03,0.18,0.85,-0.29,0.34,-1.39,
1.697,0.03,0.18,0.85,-0.25,0.25,-1.42,
1.699,0.02,0.17,0.85,-0.25,0.25,-1.42,
1.702,0.02,0.18,0.85,-0.25,0.25,-1.42,
1.702,0.02,0.18,0.85,-0.26,0.23,-1.38,
1.704,0.01,0.18,0.86,-0.26,0.23,-1.38,
1.707,0.01,0.18,0.86,-0.26,0.23,-1.38,
1.707,0.01,0.18,0.86,-0.36,0.21,-1.30,
1.71,-0.00,0.18,0.87,-0.36,0.21,-1.30,
1.717,-0.01,0.18,0.88,-0.36,0.21,-1.30,
1.717,-0.01,0.18,0.88,-0.49,0.27,-1.22,
1.718,-0.01,0.18,0.89,-0.49,0.27,-1.22,
1.718,-0.02,0.18,0.90,-0.49,0.27,-1.22,
1.718,-0.02,0.18,0.90,-0.64,0.27,-1.05,
1.721,-0.02,0.18,0.91,-0.64,0.27,-1.05,
1.724,-0.02,0.18,0.93,-0.64,0.27,-1.05,
1.724,-0.02,0.18,0.93,-0.74,0.28,-0.85,
1.724,-0.02,0.17,0.94,-0.74,0.28,-0.85,
1.727,-0.01,0.16,0.95,-0.74,0.28,-0.85,
1.727,-0.01,0.16,0.95,-0.78,0.22,-0.61,
1.729,-0.01,0.16,0.97,-0.78,0.22,-0.61,
1.733,-0.01,0.16,0.98,-0.78,0.22,-0.61,
1.733,-0.01,0.16,0.98,-0.76,0.13,-0.33,
1.734,-0.01,0.15,1.00,-0.76,0.13,-0.33,
1.736,-0.00,0.14,1.00,-0.76,0.13,-0.33,
1.737,-0.00,0.14,1.00,-0.69,0.04,-0.08,
1.739,-0.00,0.14,1.01,-0.69,0.04,-0.08,
1.741,-0.01,0.14,1.01,-0.69,0.04,-0.08,
1.742,-0.01,0.14,1.01,-0.67,-0.08,0.17,
1.744,-0.01,0.14,1.02,-0.67,-0.08,0.17,
1.747,-0.02,0.14,1.02,-0.67,-0.08,0.17,
1.748,-0.02,0.14,1.02,-0.66,-0.13,0.29,
1.749,-0.02,0.14,1.03,-0.66,-0.13,0.29,
1.751,-0.04,0.14,1.04,-0.66,-0.13,0.29,
1.752,-0.04,0.14,1.04,-0.78,-0.18,0.39,
1.754,-0.04,0.13,1.04,-0.78,-0.18,0.39,
1.756,-0.05,0.13,1.03,-0.78,-0.18,0.39,
1.757,-0.05,0.13,1.03,-0.94,-0.18,0.53,
1.759,-0.06,0.13,1.03,-0.94,-0.18,0.53,
1.763,-0.07,0.12,1.02,-0.94,-0.18,0.53,
1.763,-0.07,0.12,1.02,-1.12,-0.26,0.53,
1.765,-0.06,0.11,1.02,-1.12,-0.26,0.53,
1.766,-0.06,0.11,1.01,-1.12,-0.26,0.53,
1.766,-0.06,0.11,1.01,-1.25,-0.36,0.42,
1.769,-0.06,0.11,0.99,-1.25,-0.36,0.42,
1.771,-0.06,0.11,0.98,-1.25,-0.36,0.42,
1.771,-0.06,0.11,0.98,-1.24,-0.48,0.32,
1.774,-0.04,0.11,0.97,-1.24,-0.48,0.32,
1.777,-0.04,0.10,0.96,-1.24,-0.48,0.32,
1.777,-0.04,0.10,0.96,-1.20,-0.49,0.04,
1.78,-0.03,0.10,0.95,-1.20,-0.49,0.04,
1.781,-0.02,0.11,0.93,-1.20,-0.49,0.04,
1.781,-0.02,0.11,0.93,-1.05,-0.53,-0.16,
1.784,-0.02,0.11,0.93,-1.05,-0.53,-0.16,
1.786,-0.01,0.11,0.92,-1.05,-0.53,-0.16,
1.786,-0.01,0.11,0.92,-0.89,-0.55,-0.40,
1.788,-0.01,0.12,0.92,-0.89,-0.55,-0.40,
1.792,0.00,0.13,0.91,-0.89,-0.55,-0.40,
1.792,0.00,0.13,0.91,-0.78,-0.49,-0.53,
1.793,0.00,0.13,0.90,-0.78,-0.49,-0.53,
1.797,0.01,0.14,0.90,-0.78,-0.49,-0.53,
1.797,0.01,0.14,0.90,-0.67,-0.38,-0.63,
1.798,0.01,0.14,0.90,-0.67,-0.38,-0.63,
1.802,0.01,0.15,0.89,-0.67,-0.38,-0.63,
1.802,0.01,0.15,0.89,-0.59,-0.28,-0.76,
1.803,0.02,0.15,0.89,-0.59,-0.28,-0.76,
1.807,0.02,0.15,0.90,-0.59,-0.28,-0.76,
1.807,0.02,0.15,0.90,-0.52,-0.22,-0.82,
1.811,0.02,0.15,0.90,-0.52,-0.22,-0.82,
1.811,0.02,0.15,0.90,-0.52,-0.22,-0.82,
1.812,0.02,0.15,0.90,-0.48,-0.16,-0.82,
1.822,0.02,0.16,0.90,-0.48,-0.16,-0.82,
1.823,0.03,0.16,0.91,-0.48,-0.16,-0.82,
1.823,0.03,0.16,0.91,-0.45,-0.13,-0.81,
1.824,0.03,0.16,0.91,-0.45,-0.13,-0.81,
1.824,0.04,0.16,0.91,-0.45,-0.13,-0.81,
1.824,0.04,0.16,0.91,-0.41,-0.08,-0.74,
1.825,0.04,0.16,0.92,-0.41,-0.08,-0.74,
1.826,0.04,0.16,0.93,-0.41,-0.08,-0.74,
1.826,0.04,0.16,0.93,-0.33,-0.07,-0.66,
1.831,0.05,0.16,0.93,-0.33,-0.07,-0.66,
1.831,0.05,0.17,0.94,-0.33,-0.07,-0.66,
1.832,0.05,0.17,0.94,-0.24,-0.08,-0.51,
1.834,0.05,0.17,0.95,-0.24,-0.08,-0.51,
1.836,0.05,0.17,0.96,-0.24,-0.08,-0.51,
1.837,0.05,0.17,0.96,-0.22,0.00,-0.41,
1.839,0.05,0.17,0.97,-0.22,0.00,-0.41,
1.841,0.06,0.17,0.97,-0.22,0.00,-0.41,
1.841,0.06,0.17,0.97,-0.22,0.03,-0.20,
1.844,0.06,0.17,0.98,-0.22,0.03,-0.20,
1.847,0.06,0.17,0.98,-0.22,0.03,-0.20,
1.847,0.06,0.17,0.98,-0.19,0.06,-0.06,
1.849,0.06,0.18,0.98,-0.19,0.06,-0.06,
1.851,0.07,0.17,0.98,-0.19,0.06,-0.06,
1.851,0.07,0.17,0.98,-0.16,0.07,0.01,
1.853,0.06,0.17,0.98,-0.16,0.07,0.01,
1.856,0.07,0.16,0.99,-0.16,0.07,0.01,
1.856,0.07,0.16,0.99,-0.11,0.09,-0.00,
1.859,0.07,0.16,0.98,-0.11,0.09,-0.00,
1.861,0.07,0.15,0.98,-0.11,0.09,-0.00,
1.861,0.07,0.15,0.98,-0.09,-0.00,0.07,
1.863,0.08,0.15,0.98,-0.09,-0.00,0.07,
1.866,0.08,0.15,0.98,-0.09,-0.00,0.07,
1.866,0.08,0.15,0.98,-0.03,-0.06,0.05,
1.869,0.08,0.14,0.99,-0.03,-0.06,0.05,
1.871,0.08,0.14,0.99,-0.03,-0.06,0.05,
1.871,0.08,0.14,0.99,0.02,-0.15,0.02,
1.874,0.08,0.15,0.99,0.02,-0.15,0.02,
1.876,0.08,0.14,1.00,0.02,-0.15,0.02,
1.876,0.08,0.14,1.00,-0.00,-0.19,0.12,
1.878,0.07,0.14,1.00,-0.00,-0.19,0.12,
1.881,0.07,0.15,1.01,-0.00,-0.19,0.12,
1.882,0.07,0.15,1.01,0.00,-0.19,0.20,
1.883,0.06,0.15,1.01,0.00,-0.19,0.20,
1.886,0.06,0.15,1.01,0.00,-0.19,0.20,
1.886,0.06,0.15,1.01,-0.09,-0.18,0.27,
1.889,0.05,0.15,1.01,-0.09,-0.18,0.27,
1.891,0.05,0.15,1.01,-0.09,-0.18,0.27,
1.891,0.05,0.15,1.01,-0.15,-0.15,0.28,
1.893,0.05,0.16,1.01,-0.15,-0.15,0.28,
1.896,0.04,0.16,1.00,-0.15,-0.15,0.28,
1.896,0.04,0.16,1.00,-0.25,-0.10,0.28,
1.898,0.04,0.17,1.00,-0.25,-0.10,0.28,
1.9,0.04,0.16,1.00,-0.25,-0.10,0.28,
1.9,0.04,0.16,1.00,-0.30,-0.05,0.24,
1.903,0.05,0.17,0.99,-0.30,-0.05,0.24,
1.906,0.05,0.17,0.99,-0.30,-0.05,0.24,
1.906,0.05,0.17,0.99,-0.32,0.01,0.23,
1.908,0.05,0.18,0.98,-0.32,0.01,0.23,
1.911,0.06,0.18,0.99,-0.32,0.01,0.23,
1.911,0.06,0.18,0.99,-0.28,0.08,0.10,
1.913,0.07,0.17,0.99,-0.28,0.08,0.10,
1.915,0.07,0.17,0.98,-0.28,0.08,0.10,
1.915,0.07,0.17,0.98,-0.21,0.11,0.08,
1.918,0.08,0.17,0.98,-0.21,0.11,0.08,
1.921,0.08,0.17,0.98,-0.21,0.11,0.08,
1.921,0.08,0.17,0.98,-0.06,0.09,0.07,
1.923,0.09,0.17,0.97,-0.06,0.09,0.07,
1.925,0.09,0.17,0.97,-0.06,0.09,0.07,
1.926,0.09,0.17,0.97,0.06,0.07,-0.00,
1.928,0.09,0.18,0.97,0.06,0.07,-0.00,
1.935,0.09,0.18,0.97,0.06,0.07,-0.00,
1.935,0.09,0.18,0.97,0.13,0.06,-0.09,
1.935,0.09,0.18,0.96,0.13,0.06,-0.09,
1.936,0.09,0.17,0.96,0.13,0.06,-0.09,
1.936,0.09,0.17,0.96,0.15,0.13,-0.12,
1.937,0.09,0.17,0.96,0.15,0.13,-0.12,
1.94,0.09,0.17,0.95,0.15,0.13,-0.12,
1.94,0.09,0.17,0.95,0.18,0.10,-0.16,
1.942,0.09,0.17,0.95,0.18,0.10,-0.16,
1.944,0.09,0.17,0.95,0.18,0.10,-0.16,
1.945,0.09,0.17,0.95,0.16,0.09,-0.23,
1.947,0.08,0.17,0.95,0.16,0.09,-0.23,
1.949,0.08,0.18,0.95,0.16,0.09,-0.23,
1.95,0.08,0.18,0.95,0.12,0.08,-0.25,
1.952,0.08,0.18,0.95,0.12,0.08,-0.25,
1.954,0.08,0.18,0.95,0.07,0.10,-0.29,
1.955,0.07,0.18,0.94,0.07,0.10,-0.29,
1.957,0.07,0.18,0.94,0.07,0.10,-0.29,
1.959,0.08,0.18,0.94,0.07,0.10,-0.29,
1.959,0.08,0.18,0.94,0.03,0.14,-0.31,
1.962,0.08,0.19,0.94,0.03,0.14,-0.31,
1.965,0.07,0.18,0.94,0.03,0.14,-0.31,
1.966,0.07,0.18,0.94,0.03,0.19,-0.35,
1.967,0.08,0.18,0.94,0.03,0.19,-0.35,
1.969,0.08,0.18,0.94,0.03,0.19,-0.35,
1.97,0.08,0.18,0.94,0.03,0.18,-0.34,
1.972,0.08,0.18,0.94,0.03,0.18,-0.34,
1.974,0.08,0.18,0.94,0.03,0.18,-0.34,
1.975,0.08,0.18,0.94,0.04,0.17,-0.37,
1.977,0.09,0.18,0.94,0.04,0.17,-0.37,
1.981,0.09,0.18,0.94,0.04,0.17,-0.37,
1.982,0.09,0.18,0.94,0.11,0.19,-0.37,
1.983,0.09,0.18,0.95,0.11,0.19,-0.37,
1.985,0.09,0.18,0.95,0.11,0.19,-0.37,
1.985,0.09,0.18,0.95,0.13,0.16,-0.37,
1.987,0.10,0.18,0.95,0.13,0.16,-0.37,
1.99,0.10,0.18,0.97,0.13,0.16,-0.37,
1.99,0.10,0.18,0.97,0.16,0.18,-0.29,
1.992,0.10,0.18,0.98,0.16,0.18,-0.29,
1.995,0.10,0.18,0.98,0.16,0.18,-0.29,
1.995,0.10,0.18,0.98,0.20,0.16,-0.17,
1.997,0.10,0.18,0.99,0.20,0.16,-0.17,
1.999,0.11,0.18,1.00,0.20,0.16,-0.17,
2.0,0.11,0.18,1.00,0.23,0.13,0.02,
2.002,0.10,0.18,1.01,0.23,0.13,0.02,
2.005,0.10,0.17,1.01,0.23,0.13,0.02,
2.005,0.10,0.17,1.01,0.28,0.13,0.16,
2.007,0.10,0.17,1.02,0.28,0.13,0.16,
2.01,0.10,0.17,1.03,0.28,0.13,0.16,
2.011,0.10,0.17,1.03,0.26,0.09,0.32,
2.012,0.10,0.17,1.03,0.26,0.09,0.32,
2.015,0.10,0.17,1.04,0.26,0.09,0.32,
2.015,0.10,0.17,1.04,0.26,0.09,0.46,
2.016,0.10,0.17,1.05,0.26,0.09,0.46,
2.019,0.09,0.16,1.06,0.26,0.09,0.46,
2.019,0.09,0.16,1.06,0.24,0.06,0.56,
2.022,0.10,0.16,1.06,0.24,0.06,0.56,
2.024,0.10,0.16,1.05,0.24,0.06,0.56,
2.024,0.10,0.16,1.05,0.19,0.02,0.71,
2.027,0.10,0.16,1.05,0.19,0.02,0.71,
2.031,0.10,0.17,1.05,0.19,0.02,0.71,
2.031,0.10,0.17,1.05,0.23,-0.01,0.76,
2.032,0.10,0.17,1.04,0.23,-0.01,0.76,
2.034,0.10,0.17,1.04,0.29,-0.00,0.69,
2.034,0.10,0.16,1.03,0.29,-0.00,0.69,
2.037,0.10,0.16,1.02,0.29,-0.00,0.69,
2.039,0.09,0.16,1.01,0.29,-0.00,0.69,
2.039,0.09,0.16,1.01,0.26,-0.04,0.58,
2.042,0.08,0.16,1.01,0.26,-0.04,0.58,
2.044,0.08,0.16,1.00,0.26,-0.04,0.58,
2.044,0.08,0.16,1.00,0.20,-0.07,0.35,
2.047,0.08,0.16,0.98,0.20,-0.07,0.35,
2.052,0.08,0.17,0.97,0.20,-0.07,0.35,
2.053,0.08,0.17,0.97,0.12,-0.05,0.24,
2.053,0.07,0.17,0.95,0.12,-0.05,0.24,
2.053,0.07,0.17,0.94,0.12,-0.05,0.24,
2.054,0.07,0.17,0.94,0.11,-0.04,-0.04,
2.056,0.07,0.16,0.93,0.11,-0.04,-0.04,
2.058,0.07,0.16,0.91,0.11,-0.04,-0.04,
2.059,0.07,0.16,0.91,0.02,0.01,-0.34,
2.062,0.07,0.17,0.91,0.02,0.01,-0.34,
2.065,0.07,0.17,0.90,0.02,0.01,-0.34,
2.066,0.07,0.17,0.90,0.03,-0.06,-0.56,
2.066,0.07,0.17,0.89,0.03,-0.06,-0.56,
2.069,0.07,0.17,0.87,0.03,-0.06,-0.56,
2.069,0.07,0.17,0.87,-0.00,-0.01,-0.74,
2.072,0.06,0.17,0.84,-0.00,-0.01,-0.74,
2.074,0.05,0.18,0.82,-0.00,-0.01,-0.74,
2.074,0.05,0.18,0.82,-0.02,-0.04,-0.98,
2.076,0.04,0.19,0.81,-0.02,-0.04,-0.98,
2.079,0.03,0.20,0.84,-0.02,-0.04,-0.98,
2.079,0.03,0.20,0.84,-0.12,0.03,-1.46,
2.081,0.03,0.21,0.86,-0.12,0.03,-1.46,
2.084,0.02,0.22,0.89,-0.12,0.03,-1.46,
2.084,0.02,0.22,0.89,-0.31,0.25,-1.49,
2.086,0.03,0.22,0.92,-0.31,0.25,-1.49,
2.088,0.03,0.21,0.95,-0.31,0.25,-1.49,
2.089,0.03,0.21,0.95,-0.44,0.45,-0.99,
2.091,0.04,0.20,0.96,-0.44,0.45,-0.99,
2.093,0.04,0.19,1.00,-0.44,0.45,-0.99,
2.094,0.04,0.19,1.00,-0.37,0.49,-0.40,
2.096,0.06,0.18,1.00,-0.37,0.49,-0.40,
2.099,0.07,0.16,1.01,-0.37,0.49,-0.40,
2.1,0.07,0.16,1.01,-0.25,0.29,0.03,
2.1,0.08,0.15,1.03,-0.25,0.29,0.03,
2.104,0.09,0.15,1.04,-0.25,0.29,0.03,
2.104,0.09,0.15,1.04,-0.03,0.05,0.30,
2.106,0.09,0.14,1.05,-0.03,0.05,0.30,
2.109,0.09,0.14,1.06,-0.03,0.05,0.30,
2.109,0.09,0.14,1.06,0.13,-0.15,0.53,
2.111,0.08,0.13,1.05,0.13,-0.15,0.53,
2.114,0.08,0.14,1.06,0.13,-0.15,0.53,
2.114,0.08,0.14,1.06,0.15,-0.24,0.74,
2.116,0.08,0.15,1.05,0.15,-0.24,0.74,
2.118,0.07,0.15,1.05,0.15,-0.24,0.74,
2.118,0.07,0.15,1.05,0.10,-0.26,0.76,
2.121,0.06,0.15,1.06,0.10,-0.26,0.76,
2.124,0.05,0.16,1.05,0.10,-0.26,0.76,
2.124,0.05,0.16,1.05,-0.00,-0.14,0.75,
2.126,0.05,0.17,1.05,-0.00,-0.14,0.75,
2.128,0.05,0.17,1.05,-0.00,-0.14,0.75,
2.128,0.05,0.17,1.05,-0.17,-0.08,0.74,
2.131,0.05,0.17,1.05,-0.17,-0.08,0.74,
2.134,0.05,0.17,1.04,-0.17,-0.08,0.74,
2.134,0.05,0.17,1.04,-0.23,0.01,0.69,
2.135,0.06,0.17,1.03,-0.23,0.01,0.69,
2.139,0.05,0.17,1.03,-0.23,0.01,0.69,
2.141,0.05,0.17,1.03,-0.26,0.05,0.62,
2.141,0.06,0.16,1.02,-0.26,0.05,0.62,
2.143,0.06,0.16,1.02,-0.26,0.05,0.62,
2.143,0.06,0.16,1.02,-0.20,0.06,0.50,
2.145,0.07,0.15,1.01,-0.20,0.06,0.50,
2.153,0.08,0.16,0.99,-0.20,0.06,0.50,
2.153,0.08,0.16,0.99,-0.16,-0.11,0.41,
2.153,0.08,0.16,0.99,-0.16,-0.11,0.41,
2.154,0.08,0.17,0.99,-0.16,-0.11,0.41,
2.154,0.08,0.17,0.99,-0.05,-0.12,0.23,
2.155,0.08,0.17,0.99,-0.05,-0.12,0.23,
2.158,0.09,0.18,0.99,-0.05,-0.12,0.23,
2.158,0.09,0.18,0.99,0.01,-0.01,0.08,
2.16,0.09,0.19,0.98,0.01,-0.01,0.08,
2.162,0.09,0.19,0.98,0.01,-0.01,0.08,
2.163,0.09,0.19,0.98,0.09,0.06,0.09,
2.166,0.10,0.18,0.98,0.09,0.06,0.09,
