
time,gFx,gFy,gFz,ax,ay,az,
0.004,0.01,0.03,1.01,-0.11,-0.17,0.17,
0.004,0.01,0.03,1.01,-0.10,-0.12,0.16,
0.004,0.01,0.03,1.02,-0.10,-0.12,0.16,
0.005,0.01,0.03,1.01,-0.10,-0.12,0.16,
0.005,0.01,0.03,1.01,-0.13,-0.12,0.14,
0.005,0.02,0.03,1.01,-0.13,-0.12,0.14,
0.01,0.02,0.03,1.01,-0.13,-0.12,0.14,
0.01,0.02,0.03,1.01,-0.12,-0.08,0.15,
0.01,0.02,0.03,1.02,-0.12,-0.08,0.15,
0.01,0.02,0.04,1.02,-0.12,-0.08,0.15,
0.01,0.02,0.04,1.02,-0.06,-0.07,0.14,
0.013,0.02,0.04,1.02,-0.06,-0.07,0.14,
0.015,0.02,0.04,1.02,-0.01,-0.06,0.17,
0.015,0.02,0.05,1.02,-0.01,-0.06,0.17,
0.018,0.02,0.05,1.01,-0.01,-0.06,0.17,
0.028,0.02,0.06,1.01,-0.01,-0.06,0.17,
0.029,0.02,0.06,1.01,-0.03,0.04,0.18,
0.029,0.02,0.05,1.01,-0.03,0.04,0.18,
0.029,0.03,0.05,1.01,-0.03,0.04,0.18,
0.029,0.03,0.05,1.01,-0.03,0.10,0.09,
0.029,0.02,0.05,1.01,-0.03,0.10,0.09,
0.031,0.02,0.06,1.00,-0.03,0.10,0.09,
0.031,0.02,0.06,1.00,-0.01,0.11,0.09,
0.033,0.02,0.06,1.00,-0.01,0.11,0.09,
0.035,0.02,0.06,1.00,-0.01,0.11,0.09,
0.036,0.02,0.06,1.00,-0.05,0.11,0.04,
0.045,0.02,0.07,1.00,-0.05,0.11,0.04,
0.045,0.02,0.06,1.00,-0.05,0.11,0.04,
0.045,0.02,0.06,1.00,0.01,0.16,0.02,
0.046,0.03,0.07,0.99,0.01,0.16,0.02,
0.046,0.03,0.07,1.00,0.01,0.16,0.02,
0.046,0.03,0.07,1.00,0.02,0.19,-0.03,
0.048,0.03,0.07,1.00,0.02,0.19,-0.03,
0.05,0.03,0.07,1.00,0.02,0.19,-0.03,
0.05,0.03,0.07,1.00,0.09,0.20,-0.02,
0.063,0.03,0.07,1.00,0.09,0.20,-0.02,
0.064,0.04,0.07,1.00,0.09,0.20,-0.02,
0.064,0.04,0.07,1.00,0.12,0.22,-0.03,
0.065,0.03,0.07,1.00,0.12,0.22,-0.03,
0.065,0.04,0.08,0.99,0.12,0.22,-0.03,
0.065,0.04,0.08,0.99,0.16,0.23,-0.03,
0.065,0.03,0.07,0.99,0.16,0.23,-0.03,
0.065,0.03,0.07,1.00,0.16,0.23,-0.03,
0.066,0.03,0.07,1.00,0.15,0.24,-0.04,
0.068,0.03,0.07,0.99,0.15,0.24,-0.04,
0.07,0.02,0.07,0.99,0.15,0.24,-0.04,
0.07,0.02,0.07,0.99,0.13,0.20,-0.06,
0.08,0.01,0.04,0.99,0.13,0.20,-0.06,
0.081,0.00,0.04,0.99,0.13,0.20,-0.06,
0.081,0.00,0.04,0.99,0.09,0.19,-0.10,
0.082,0.01,0.05,0.99,0.09,0.19,-0.10,
0.082,0.00,0.05,0.99,0.09,0.19,-0.10,
0.082,0.00,0.05,0.99,-0.12,-0.06,-0.07,
0.082,0.01,0.05,0.99,-0.12,-0.06,-0.07,
0.085,0.01,0.05,0.99,-0.12,-0.06,-0.07,
0.085,0.01,0.05,0.99,-0.13,-0.02,-0.11,
0.094,0.01,0.04,1.00,-0.13,-0.02,-0.11,
0.095,0.00,0.04,0.99,-0.13,-0.02,-0.11,
0.095,0.00,0.04,0.99,-0.10,-0.02,-0.10,
0.095,0.01,0.05,0.99,-0.10,-0.02,-0.10,
0.096,0.00,0.05,0.99,-0.10,-0.02,-0.10,
0.096,0.00,0.05,0.99,-0.11,-0.08,-0.05,
0.098,0.00,0.05,1.00,-0.11,-0.08,-0.05,
0.1,0.00,0.05,0.99,-0.11,-0.08,-0.05,
0.1,0.00,0.05,0.99,-0.10,-0.03,-0.07,
0.102,0.00,0.05,0.99,-0.10,-0.03,-0.07,
0.112,0.00,0.05,0.99,-0.10,-0.03,-0.07,
0.113,0.00,0.05,0.99,-0.12,0.01,-0.05,
0.113,0.00,0.05,1.00,-0.12,0.01,-0.05,
0.113,0.00,0.05,0.99,-0.12,0.01,-0.05,
0.114,0.00,0.05,0.99,-0.12,-0.00,-0.06,
0.114,0.01,0.05,0.99,-0.12,-0.00,-0.06,
0.114,0.01,0.05,0.99,-0.13,-0.04,-0.04,
0.114,0.01,0.05,1.00,-0.13,-0.04,-0.04,
0.117,0.01,0.05,1.00,-0.13,-0.04,-0.04,
0.128,0.01,0.05,1.01,-0.13,-0.04,-0.04,
0.129,0.01,0.05,1.01,-0.07,-0.03,-0.04,
0.129,0.01,0.05,1.00,-0.07,-0.03,-0.04,
0.129,0.01,0.05,1.01,-0.07,-0.03,-0.04,
0.129,0.01,0.05,1.01,-0.11,-0.05,0.04,
0.13,0.01,0.05,1.01,-0.11,-0.05,0.04,
0.13,0.00,0.04,1.01,-0.11,-0.05,0.04,
0.13,0.00,0.04,1.01,-0.09,-0.02,0.05,
0.132,0.01,0.05,1.01,-0.09,-0.02,0.05,
0.135,0.01,0.05,1.01,-0.11,-0.05,0.10,
0.135,0.01,0.05,1.01,-0.11,-0.05,0.10,
0.137,0.01,0.05,1.01,-0.11,-0.05,0.10,
0.143,0.02,0.05,1.01,-0.11,-0.05,0.10,
0.144,0.02,0.05,1.01,-0.10,-0.05,0.11,
0.144,0.02,0.05,1.01,-0.10,-0.05,0.11,
0.144,0.02,0.05,1.01,-0.10,-0.05,0.11,
0.145,0.02,0.05,1.01,0.01,-0.00,0.10,
0.147,0.02,0.05,1.01,0.01,-0.00,0.10,
0.149,0.03,0.06,1.01,0.01,-0.00,0.10,
0.15,0.03,0.06,1.01,0.02,0.00,0.09,
0.152,0.03,0.06,1.01,0.02,0.00,0.09,
0.16,0.03,0.06,1.01,0.02,0.00,0.09,
0.161,0.03,0.06,1.01,0.08,0.02,0.11,
0.161,0.03,0.06,1.01,0.08,0.02,0.11,
0.161,0.03,0.06,1.01,0.08,0.02,0.11,
0.164,0.03,0.06,1.01,0.12,0.06,0.10,
0.164,0.03,0.06,1.02,0.12,0.06,0.10,
0.164,0.04,0.05,1.02,0.12,0.06,0.10,
0.164,0.04,0.05,1.02,0.17,0.07,0.12,
0.167,0.03,0.05,1.02,0.17,0.07,0.12,
0.169,0.03,0.05,1.03,0.17,0.07,0.12,
0.169,0.03,0.05,1.03,0.18,0.04,0.23,
0.18,0.04,0.05,1.03,0.18,0.04,0.23,
0.181,0.03,0.05,1.04,0.18,0.04,0.23,
0.181,0.03,0.05,1.04,0.16,-0.01,0.26,
0.181,0.03,0.05,1.04,0.16,-0.01,0.26,
0.182,0.03,0.04,1.04,0.16,-0.01,0.26,
0.182,0.03,0.04,1.04,0.16,0.02,0.34,
0.182,0.03,0.04,1.05,0.16,0.02,0.34,
0.183,0.03,0.04,1.05,0.16,0.02,0.34,
0.183,0.03,0.04,1.05,0.13,-0.06,0.41,
0.186,0.03,0.04,1.05,0.13,-0.06,0.41,
0.195,0.03,0.04,1.06,0.13,-0.06,0.41,
0.196,0.03,0.04,1.06,0.10,-0.10,0.48,
0.196,0.03,0.03,1.06,0.10,-0.10,0.48,
0.196,0.02,0.03,1.06,0.10,-0.10,0.48,
0.197,0.02,0.03,1.06,0.11,-0.14,0.53,
0.197,0.03,0.03,1.05,0.11,-0.14,0.53,
0.198,0.02,0.03,1.05,0.11,-0.14,0.53,
0.199,0.02,0.03,1.05,0.07,-0.23,0.54,
0.201,0.02,0.03,1.05,0.07,-0.23,0.54,
0.213,0.02,0.03,1.05,0.07,-0.23,0.54,
0.214,0.02,0.03,1.05,0.06,-0.21,0.46,
0.214,0.03,0.03,1.04,0.06,-0.21,0.46,
0.214,0.03,0.04,1.03,0.06,-0.21,0.46,
0.214,0.03,0.04,1.03,0.07,-0.20,0.43,
0.215,0.03,0.04,1.03,0.07,-0.20,0.43,
0.215,0.04,0.04,1.03,0.07,-0.20,0.43,
0.215,0.04,0.04,1.03,0.13,-0.17,0.33,
0.216,0.03,0.05,1.03,0.13,-0.17,0.33,
0.218,0.04,0.05,1.03,0.13,-0.17,0.33,
0.218,0.04,0.05,1.03,0.18,-0.12,0.24,
0.227,0.03,0.06,1.03,0.18,-0.12,0.24,
0.228,0.04,0.06,1.03,0.18,-0.12,0.24,
0.228,0.04,0.06,1.03,0.19,-0.04,0.26,
0.229,0.05,0.06,1.03,0.19,-0.04,0.26,
0.229,0.05,0.07,1.02,0.19,-0.04,0.26,
0.229,0.05,0.07,1.02,0.22,0.01,0.23,
0.23,0.05,0.07,1.03,0.22,0.01,0.23,
0.233,0.05,0.07,1.03,0.22,0.01,0.23,
0.233,0.05,0.07,1.03,0.32,0.07,0.21,
0.235,0.05,0.08,1.02,0.32,0.07,0.21,
0.242,0.06,0.08,1.03,0.32,0.07,0.21,
0.242,0.06,0.08,1.03,0.35,0.10,0.24,
0.243,0.06,0.08,1.03,0.35,0.10,0.24,
0.243,0.06,0.08,1.03,0.35,0.10,0.24,
0.243,0.06,0.08,1.03,0.41,0.19,0.23,
0.245,0.06,0.09,1.04,0.41,0.19,0.23,
0.248,0.06,0.09,1.04,0.41,0.19,0.23,
0.248,0.06,0.09,1.04,0.45,0.22,0.29,
0.25,0.07,0.09,1.05,0.45,0.22,0.29,
0.252,0.07,0.09,1.05,0.45,0.22,0.29,
0.253,0.07,0.09,1.05,0.47,0.24,0.34,
0.26,0.07,0.09,1.05,0.47,0.24,0.34,
0.26,0.07,0.09,1.05,0.47,0.24,0.34,
0.26,0.07,0.09,1.05,0.53,0.28,0.43,
0.261,0.07,0.09,1.05,0.53,0.28,0.43,
0.263,0.08,0.09,1.05,0.53,0.28,0.43,
0.264,0.08,0.09,1.05,0.55,0.27,0.43,
0.265,0.08,0.09,1.05,0.55,0.27,0.43,
0.267,0.09,0.09,1.05,0.55,0.27,0.43,
0.268,0.09,0.09,1.05,0.61,0.28,0.48,
0.279,0.08,0.09,1.05,0.61,0.28,0.48,
0.28,0.09,0.09,1.05,0.61,0.28,0.48,
0.28,0.09,0.09,1.05,0.69,0.27,0.45,
0.28,0.09,0.09,1.04,0.69,0.27,0.45,
0.28,0.09,0.09,1.04,0.69,0.27,0.45,
0.28,0.09,0.09,1.04,0.70,0.23,0.42,
0.281,0.09,0.09,1.04,0.70,0.23,0.42,
0.282,0.09,0.09,1.04,0.70,0.23,0.42,
0.283,0.09,0.09,1.04,0.75,0.19,0.36,
0.285,0.09,0.09,1.04,0.75,0.19,0.36,
0.297,0.09,0.09,1.04,0.75,0.19,0.36,
0.298,0.09,0.09,1.04,0.75,0.19,0.36,
0.298,0.09,0.09,1.05,0.75,0.19,0.36,
0.298,0.09,0.09,1.05,0.75,0.19,0.36,
0.298,0.09,0.09,1.05,0.78,0.19,0.36,
0.298,0.09,0.09,1.05,0.78,0.19,0.36,
0.299,0.09,0.09,1.06,0.78,0.19,0.36,
0.299,0.09,0.09,1.06,0.75,0.18,0.39,
0.3,0.09,0.09,1.06,0.75,0.18,0.39,
0.302,0.10,0.09,1.06,0.75,0.18,0.39,
0.302,0.10,0.09,1.06,0.79,0.18,0.45,
0.31,0.10,0.09,1.06,0.79,0.18,0.45,
0.311,0.10,0.09,1.07,0.79,0.18,0.45,
0.311,0.10,0.09,1.07,0.79,0.17,0.48,
0.312,0.10,0.09,1.06,0.79,0.17,0.48,
0.312,0.10,0.09,1.07,0.79,0.17,0.48,
0.312,0.10,0.09,1.07,0.85,0.15,0.54,
0.314,0.10,0.08,1.08,0.85,0.15,0.54,
0.317,0.10,0.09,1.07,0.85,0.15,0.54,
0.317,0.10,0.09,1.07,0.87,0.13,0.55,
0.331,0.10,0.09,1.08,0.87,0.13,0.55,
0.332,0.10,0.09,1.09,0.87,0.13,0.55,
0.333,0.10,0.09,1.09,0.83,0.08,0.65,
0.335,0.10,0.09,1.09,0.83,0.08,0.65,
0.335,0.11,0.09,1.09,0.83,0.08,0.65,
0.335,0.11,0.09,1.09,0.84,0.09,0.73,
0.336,0.11,0.09,1.09,0.84,0.09,0.73,
0.336,0.11,0.09,1.09,0.84,0.09,0.73,
0.336,0.11,0.09,1.09,0.86,0.07,0.77,
0.336,0.12,0.09,1.08,0.86,0.07,0.77,
0.347,0.12,0.09,1.08,0.90,0.07,0.78,
0.347,0.12,0.09,1.09,0.90,0.07,0.78,
0.348,0.12,0.09,1.08,0.90,0.07,0.78,
0.348,0.12,0.09,1.09,0.90,0.07,0.78,
0.349,0.12,0.09,1.09,0.96,0.08,0.74,
0.349,0.11,0.09,1.09,0.96,0.08,0.74,
0.349,0.12,0.10,1.09,0.96,0.08,0.74,
0.35,0.12,0.10,1.09,0.95,0.10,0.72,
0.35,0.12,0.10,1.09,0.95,0.10,0.72,
0.352,0.12,0.11,1.09,0.95,0.10,0.72,
0.352,0.12,0.11,1.09,0.96,0.10,0.75,
0.359,0.12,0.11,1.09,0.96,0.10,0.75,
0.359,0.13,0.11,1.09,0.96,0.10,0.75,
0.36,0.13,0.11,1.09,1.00,0.18,0.74,
0.36,0.13,0.12,1.09,1.00,0.18,0.74,
0.362,0.13,0.12,1.09,1.03,0.23,0.75,
0.363,0.13,0.12,1.09,1.03,0.23,0.75,
0.365,0.13,0.12,1.08,1.03,0.23,0.75,
0.367,0.14,0.12,1.09,1.03,0.23,0.75,
0.367,0.14,0.12,1.09,1.12,0.30,0.73,
0.369,0.14,0.12,1.08,1.12,0.30,0.73,
0.378,0.14,0.12,1.08,1.13,0.28,0.69,
0.378,0.15,0.13,1.08,1.13,0.28,0.69,
0.378,0.15,0.13,1.07,1.13,0.28,0.69,
0.378,0.15,0.13,1.07,1.13,0.28,0.69,
0.378,0.15,0.13,1.07,1.23,0.33,0.62,
0.38,0.15,0.13,1.06,1.23,0.33,0.62,
0.382,0.16,0.13,1.06,1.23,0.33,0.62,
0.382,0.16,0.13,1.06,1.29,0.31,0.52,
0.385,0.15,0.13,1.05,1.29,0.31,0.52,
0.387,0.16,0.13,1.05,1.29,0.31,0.52,
0.387,0.16,0.13,1.05,1.31,0.33,0.43,
0.394,0.16,0.13,1.04,1.31,0.33,0.43,
0.395,0.16,0.14,1.04,1.31,0.33,0.43,
0.395,0.16,0.14,1.04,1.35,0.36,0.31,
0.395,0.16,0.14,1.04,1.35,0.36,0.31,
0.397,0.16,0.13,1.03,1.35,0.36,0.31,
0.397,0.16,0.13,1.03,1.40,0.36,0.23,
0.399,0.16,0.14,1.02,1.40,0.36,0.23,
0.402,0.15,0.14,1.02,1.40,0.36,0.23,
0.402,0.15,0.14,1.02,1.39,0.36,0.17,
0.404,0.16,0.14,1.02,1.39,0.36,0.17,
0.414,0.15,0.14,1.01,1.39,0.36,0.17,
0.414,0.15,0.14,1.01,1.39,0.37,0.06,
0.414,0.15,0.14,1.01,1.39,0.37,0.06,
0.415,0.15,0.14,1.01,1.39,0.37,0.06,
0.415,0.15,0.14,1.01,1.38,0.35,-0.01,
0.415,0.15,0.14,1.01,1.38,0.35,-0.01,
0.417,0.14,0.14,1.00,1.38,0.35,-0.01,
0.417,0.14,0.14,1.00,1.34,0.33,-0.04,
0.419,0.14,0.14,1.01,1.34,0.33,-0.04,
0.421,0.14,0.14,1.00,1.34,0.33,-0.04,
0.421,0.14,0.14,1.00,1.29,0.34,-0.10,
0.429,0.14,0.14,1.00,1.29,0.34,-0.10,
0.43,0.14,0.14,0.99,1.29,0.34,-0.10,
0.43,0.14,0.14,0.99,1.23,0.31,-0.10,
0.43,0.14,0.14,0.99,1.23,0.31,-0.10,
0.432,0.13,0.13,0.98,1.23,0.31,-0.10,
0.432,0.13,0.13,0.98,1.24,0.29,-0.21,
0.434,0.14,0.14,0.97,1.24,0.29,-0.21,
0.437,0.14,0.14,0.97,1.23,0.25,-0.28,
0.437,0.13,0.13,0.97,1.23,0.25,-0.28,
0.438,0.13,0.14,0.97,1.23,0.25,-0.28,
0.448,0.14,0.14,0.96,1.23,0.25,-0.28,
0.448,0.14,0.14,0.96,1.22,0.24,-0.43,
0.448,0.13,0.14,0.96,1.22,0.24,-0.43,
0.449,0.13,0.14,0.95,1.22,0.24,-0.43,
0.449,0.13,0.14,0.95,1.22,0.25,-0.48,
0.449,0.13,0.14,0.95,1.22,0.25,-0.48,
0.451,0.13,0.15,0.96,1.22,0.25,-0.48,
0.452,0.13,0.15,0.96,1.19,0.25,-0.56,
0.454,0.13,0.15,0.95,1.19,0.25,-0.56,
0.461,0.12,0.15,0.95,1.19,0.25,-0.56,
0.461,0.12,0.15,0.95,1.20,0.28,-0.58,
0.462,0.13,0.15,0.95,1.20,0.28,-0.58,
0.462,0.13,0.15,0.95,1.18,0.30,-0.61,
0.462,0.13,0.15,0.94,1.18,0.30,-0.61,
0.464,0.13,0.15,0.94,1.18,0.30,-0.61,
0.466,0.13,0.15,0.94,1.18,0.30,-0.61,
0.467,0.13,0.15,0.94,1.20,0.29,-0.64,
0.469,0.14,0.16,0.93,1.20,0.29,-0.64,
0.471,0.13,0.15,0.93,1.20,0.29,-0.64,
0.471,0.13,0.15,0.93,1.21,0.28,-0.70,
0.478,0.13,0.15,0.92,1.21,0.28,-0.70,
0.479,0.13,0.15,0.91,1.21,0.28,-0.70,
0.479,0.13,0.15,0.91,1.25,0.28,-0.78,
0.479,0.13,0.15,0.91,1.25,0.28,-0.78,
0.48,0.13,0.14,0.90,1.25,0.28,-0.78,
0.48,0.13,0.14,0.90,1.24,0.20,-0.90,
0.483,0.13,0.15,0.90,1.24,0.20,-0.90,
0.485,0.12,0.14,0.90,1.24,0.20,-0.90,
0.486,0.12,0.14,0.90,1.24,0.15,-0.99,
0.494,0.12,0.14,0.90,1.24,0.15,-0.99,
0.496,0.12,0.14,0.89,1.24,0.15,-0.99,
0.497,0.12,0.14,0.89,1.20,0.12,-1.06,
0.497,0.11,0.14,0.88,1.20,0.12,-1.06,
0.497,0.11,0.14,0.88,1.20,0.12,-1.06,
0.497,0.11,0.14,0.88,1.12,0.05,-1.11,
0.498,0.10,0.14,0.87,1.12,0.05,-1.11,
0.502,0.09,0.13,0.87,1.12,0.05,-1.11,
0.502,0.09,0.13,0.87,1.09,0.03,-1.21,
0.503,0.09,0.14,0.87,1.09,0.03,-1.21,
0.516,0.08,0.13,0.86,1.09,0.03,-1.21,
0.517,0.08,0.13,0.86,0.96,-0.03,-1.30,
0.518,0.08,0.13,0.86,0.96,-0.03,-1.30,
0.518,0.07,0.13,0.86,0.96,-0.03,-1.30,
0.518,0.07,0.13,0.86,0.90,-0.04,-1.33,
0.518,0.07,0.13,0.85,0.90,-0.04,-1.33,
0.519,0.06,0.12,0.85,0.90,-0.04,-1.33,
0.519,0.06,0.12,0.85,0.78,-0.10,-1.39,
0.519,0.06,0.12,0.84,0.78,-0.10,-1.39,
0.52,0.06,0.12,0.84,0.78,-0.10,-1.39,
0.52,0.06,0.12,0.84,0.73,-0.13,-1.46,
0.533,0.05,0.12,0.84,0.73,-0.13,-1.46,
0.533,0.05,0.11,0.83,0.73,-0.13,-1.46,
0.534,0.05,0.11,0.83,0.67,-0.22,-1.52,
0.534,0.05,0.11,0.83,0.67,-0.22,-1.52,
0.534,0.04,0.11,0.82,0.67,-0.22,-1.52,
0.535,0.04,0.11,0.82,0.63,-0.25,-1.58,
0.535,0.04,0.11,0.82,0.63,-0.25,-1.58,
0.535,0.04,0.11,0.82,0.63,-0.25,-1.58,
0.535,0.04,0.11,0.82,0.57,-0.29,-1.66,
0.537,0.04,0.11,0.82,0.57,-0.29,-1.66,
0.548,0.04,0.10,0.81,0.57,-0.29,-1.66,
0.548,0.04,0.10,0.81,0.53,-0.33,-1.71,
0.549,0.04,0.11,0.81,0.53,-0.33,-1.71,
0.549,0.04,0.11,0.81,0.53,-0.33,-1.71,
0.549,0.04,0.11,0.81,0.54,-0.36,-1.76,
0.549,0.04,0.11,0.82,0.54,-0.36,-1.76,
0.55,0.04,0.11,0.81,0.54,-0.36,-1.76,
0.55,0.04,0.11,0.81,0.54,-0.34,-1.77,
0.552,0.04,0.11,0.81,0.54,-0.34,-1.77,
0.563,0.04,0.11,0.81,0.54,-0.34,-1.77,
0.564,0.04,0.11,0.81,0.54,-0.33,-1.75,
0.564,0.03,0.11,0.81,0.54,-0.33,-1.75,
0.564,0.03,0.11,0.81,0.55,-0.32,-1.75,
0.564,0.04,0.11,0.81,0.55,-0.32,-1.75,
0.565,0.04,0.11,0.82,0.55,-0.32,-1.75,
0.565,0.04,0.11,0.82,0.55,-0.32,-1.75,
0.566,0.04,0.11,0.82,0.54,-0.31,-1.74,
0.567,0.04,0.10,0.82,0.54,-0.31,-1.74,
0.571,0.04,0.10,0.81,0.54,-0.31,-1.74,
0.571,0.04,0.10,0.81,0.56,-0.34,-1.66,
0.578,0.04,0.10,0.82,0.56,-0.34,-1.66,
0.579,0.03,0.10,0.82,0.56,-0.34,-1.66,
0.579,0.03,0.10,0.82,0.56,-0.41,-1.71,
0.579,0.03,0.10,0.81,0.56,-0.41,-1.71,
0.579,0.03,0.10,0.81,0.56,-0.41,-1.71,
0.58,0.03,0.10,0.81,0.56,-0.45,-1.69,
0.582,0.03,0.10,0.81,0.56,-0.45,-1.69,
0.585,0.03,0.10,0.81,0.55,-0.46,-1.75,
0.585,0.03,0.09,0.81,0.55,-0.46,-1.75,
0.587,0.02,0.09,0.81,0.55,-0.46,-1.75,
0.595,0.01,0.10,0.81,0.55,-0.46,-1.75,
0.596,0.01,0.10,0.81,0.50,-0.49,-1.75,
0.596,0.00,0.10,0.81,0.50,-0.49,-1.75,
0.596,-0.00,0.10,0.81,0.50,-0.49,-1.75,
0.596,-0.00,0.10,0.81,0.41,-0.47,-1.70,
0.597,-0.01,0.11,0.81,0.41,-0.47,-1.70,
0.599,-0.01,0.11,0.81,0.41,-0.47,-1.70,
0.599,-0.01,0.11,0.81,0.25,-0.41,-1.69,
0.602,-0.02,0.11,0.82,0.25,-0.41,-1.69,
0.604,-0.02,0.12,0.82,0.25,-0.41,-1.69,
0.604,-0.02,0.12,0.82,0.17,-0.34,-1.68,
0.611,-0.02,0.12,0.82,0.17,-0.34,-1.68,
0.612,-0.02,0.13,0.82,0.17,-0.34,-1.68,
0.612,-0.02,0.13,0.82,0.09,-0.28,-1.63,
0.612,-0.03,0.13,0.83,0.09,-0.28,-1.63,
0.614,-0.03,0.14,0.84,0.09,-0.28,-1.63,
0.614,-0.03,0.14,0.84,0.08,-0.17,-1.57,
0.616,-0.03,0.14,0.83,0.08,-0.17,-1.57,
0.619,-0.03,0.14,0.84,0.08,-0.17,-1.57,
0.619,-0.03,0.14,0.84,0.00,-0.08,-1.43,
0.621,-0.03,0.14,0.84,0.00,-0.08,-1.43,
0.633,-0.03,0.15,0.84,0.00,-0.08,-1.43,
0.634,-0.03,0.15,0.84,0.02,-0.05,-1.42,
0.634,-0.03,0.15,0.84,0.02,-0.05,-1.42,
0.635,-0.02,0.15,0.85,0.02,-0.05,-1.42,
0.635,-0.02,0.15,0.85,0.03,0.01,-1.39,
0.635,-0.02,0.15,0.84,0.03,0.01,-1.39,
0.635,-0.02,0.15,0.84,0.09,0.02,-1.34,
0.636,-0.02,0.14,0.84,0.09,0.02,-1.34,
0.637,-0.01,0.14,0.84,0.09,0.02,-1.34,
0.648,-0.01,0.15,0.85,0.09,0.02,-1.34,
0.648,-0.01,0.15,0.85,0.13,0.01,-1.35,
0.649,-0.01,0.14,0.84,0.13,0.01,-1.35,
0.649,-0.01,0.14,0.83,0.13,0.01,-1.35,
0.649,-0.01,0.14,0.83,0.18,0.02,-1.33,
0.649,-0.00,0.14,0.83,0.18,0.02,-1.33,
0.65,-0.00,0.13,0.83,0.18,0.02,-1.33,
0.65,-0.00,0.13,0.83,0.22,-0.01,-1.39,
0.651,0.00,0.13,0.83,0.22,-0.01,-1.39,
0.653,0.01,0.13,0.83,0.22,-0.01,-1.39,
0.656,0.01,0.13,0.83,0.28,-0.06,-1.43,
0.665,0.01,0.13,0.82,0.28,-0.06,-1.43,
0.666,0.01,0.12,0.82,0.28,-0.06,-1.43,
0.667,0.01,0.12,0.82,0.37,-0.08,-1.47,
0.667,0.01,0.13,0.82,0.37,-0.08,-1.47,
0.667,0.02,0.12,0.82,0.37,-0.08,-1.47,
0.667,0.02,0.12,0.82,0.44,-0.15,-1.51,
0.668,0.02,0.12,0.81,0.44,-0.15,-1.51,
0.668,0.01,0.12,0.81,0.44,-0.15,-1.51,
0.669,0.01,0.12,0.81,0.46,-0.16,-1.55,
0.672,0.01,0.11,0.81,0.46,-0.16,-1.55,
0.677,0.01,0.11,0.82,0.46,-0.16,-1.55,
0.678,0.01,0.11,0.82,0.47,-0.21,-1.62,
0.678,0.00,0.11,0.82,0.47,-0.21,-1.62,
0.678,-0.00,0.11,0.81,0.47,-0.21,-1.62,
0.678,-0.00,0.11,0.81,0.44,-0.24,-1.59,
0.682,-0.00,0.11,0.81,0.44,-0.24,-1.59,
0.684,-0.00,0.11,0.81,0.31,-0.26,-1.60,
0.684,-0.01,0.11,0.81,0.31,-0.26,-1.60,
0.686,-0.02,0.11,0.81,0.31,-0.26,-1.60,
0.689,-0.03,0.11,0.81,0.31,-0.26,-1.60,
0.689,-0.03,0.11,0.81,0.22,-0.28,-1.61,
0.695,-0.04,0.11,0.81,0.22,-0.28,-1.61,
0.695,-0.05,0.11,0.80,0.22,-0.28,-1.61,
0.695,-0.05,0.11,0.80,0.06,-0.25,-1.64,
0.696,-0.05,0.11,0.80,0.06,-0.25,-1.64,
0.699,-0.06,0.11,0.80,0.06,-0.25,-1.64,
0.699,-0.06,0.11,0.80,-0.10,-0.24,-1.64,
0.701,-0.06,0.11,0.81,-0.10,-0.24,-1.64,
0.704,-0.07,0.10,0.80,-0.10,-0.24,-1.64,
0.704,-0.07,0.10,0.80,-0.25,-0.22,-1.66,
0.706,-0.07,0.11,0.80,-0.25,-0.22,-1.66,
0.711,-0.07,0.10,0.81,-0.25,-0.22,-1.66,
0.712,-0.07,0.10,0.81,-0.33,-0.28,-1.66,
0.712,-0.08,0.10,0.81,-0.33,-0.28,-1.66,
0.714,-0.08,0.09,0.80,-0.33,-0.28,-1.66,
0.714,-0.08,0.09,0.80,-0.41,-0.32,-1.64,
0.716,-0.09,0.09,0.80,-0.41,-0.32,-1.64,
0.719,-0.09,0.08,0.80,-0.41,-0.32,-1.64,
0.719,-0.09,0.08,0.80,-0.52,-0.40,-1.64,
0.721,-0.09,0.07,0.80,-0.52,-0.40,-1.64,
0.734,-0.09,0.07,0.80,-0.52,-0.40,-1.64,
0.734,-0.09,0.07,0.80,-0.58,-0.48,-1.70,
0.734,-0.09,0.06,0.79,-0.58,-0.48,-1.70,
0.735,-0.10,0.05,0.78,-0.58,-0.48,-1.70,
0.735,-0.10,0.05,0.78,-0.64,-0.63,-1.70,
0.735,-0.10,0.05,0.77,-0.64,-0.63,-1.70,
0.735,-0.10,0.05,0.77,-0.64,-0.63,-1.70,
0.736,-0.10,0.05,0.77,-0.71,-0.77,-1.80,
0.736,-0.11,0.04,0.77,-0.71,-0.77,-1.80,
0.738,-0.11,0.04,0.76,-0.71,-0.77,-1.80,
0.739,-0.11,0.04,0.76,-0.75,-0.87,-1.92,
0.747,-0.11,0.04,0.76,-0.75,-0.87,-1.92,
0.747,-0.11,0.03,0.76,-0.75,-0.87,-1.92,
0.748,-0.11,0.03,0.76,-0.81,-0.90,-1.99,
0.748,-0.11,0.03,0.75,-0.81,-0.90,-1.99,
0.748,-0.11,0.03,0.75,-0.81,-0.90,-1.99,
0.748,-0.11,0.03,0.75,-0.87,-0.96,-2.04,
0.751,-0.11,0.02,0.74,-0.87,-0.96,-2.04,
0.753,-0.11,0.02,0.74,-0.87,-0.96,-2.04,
0.754,-0.11,0.02,0.74,-0.91,-0.99,-2.14,
0.756,-0.10,0.03,0.74,-0.91,-0.99,-2.14,
0.765,-0.11,0.03,0.73,-0.91,-0.99,-2.14,
0.765,-0.11,0.03,0.73,-0.89,-1.08,-2.18,
0.765,-0.11,0.02,0.73,-0.89,-1.08,-2.18,
0.766,-0.10,0.02,0.72,-0.89,-1.08,-2.18,
0.766,-0.10,0.02,0.72,-0.83,-1.05,-2.23,
0.766,-0.10,0.02,0.72,-0.83,-1.05,-2.23,
0.768,-0.11,0.02,0.72,-0.83,-1.05,-2.23,
0.769,-0.11,0.02,0.72,-0.85,-1.08,-2.31,
0.771,-0.11,0.03,0.72,-0.85,-1.08,-2.31,
0.773,-0.12,0.03,0.72,-0.85,-1.08,-2.31,
0.773,-0.12,0.03,0.72,-0.87,-1.09,-2.38,
0.779,-0.12,0.03,0.72,-0.87,-1.09,-2.38,
0.779,-0.12,0.04,0.72,-0.87,-1.09,-2.38,
0.78,-0.12,0.04,0.72,-0.95,-1.01,-2.37,
0.78,-0.13,0.05,0.72,-0.95,-1.01,-2.37,
0.783,-0.13,0.05,0.72,-0.95,-1.01,-2.37,
0.783,-0.13,0.05,0.72,-1.03,-0.92,-2.34,
0.786,-0.13,0.06,0.73,-1.03,-0.92,-2.34,
0.788,-0.13,0.06,0.73,-1.03,-0.92,-2.34,
0.788,-0.13,0.06,0.73,-1.14,-0.76,-2.34,
0.795,-0.13,0.07,0.73,-1.14,-0.76,-2.34,
0.795,-0.13,0.08,0.74,-1.14,-0.76,-2.34,
0.796,-0.13,0.08,0.74,-1.16,-0.65,-2.24,
0.796,-0.13,0.07,0.74,-1.16,-0.65,-2.24,
0.798,-0.13,0.08,0.75,-1.16,-0.65,-2.24,
0.798,-0.13,0.08,0.75,-1.19,-0.53,-2.16,
0.8,-0.13,0.08,0.76,-1.19,-0.53,-2.16,
0.803,-0.13,0.09,0.76,-1.19,-0.53,-2.16,
0.804,-0.13,0.09,0.76,-1.20,-0.49,-2.09,
0.805,-0.12,0.09,0.76,-1.20,-0.49,-2.09,
0.812,-0.12,0.09,0.77,-1.20,-0.49,-2.09,
0.813,-0.12,0.09,0.77,-1.18,-0.41,-1.97,
0.813,-0.11,0.09,0.77,-1.18,-0.41,-1.97,
0.813,-0.11,0.09,0.77,-1.18,-0.41,-1.97,
0.814,-0.11,0.09,0.77,-1.17,-0.32,-1.90,
0.815,-0.11,0.09,0.79,-1.17,-0.32,-1.90,
0.818,-0.10,0.09,0.79,-1.17,-0.32,-1.90,
0.818,-0.10,0.09,0.79,-1.10,-0.36,-1.81,
0.821,-0.09,0.08,0.80,-1.10,-0.36,-1.81,
0.823,-0.09,0.08,0.81,-1.10,-0.36,-1.81,
0.823,-0.09,0.08,0.81,-1.03,-0.36,-1.63,
0.83,-0.08,0.08,0.81,-1.03,-0.36,-1.63,
0.831,-0.08,0.07,0.81,-1.03,-0.36,-1.63,
0.831,-0.08,0.07,0.81,-0.96,-0.40,-1.45,
0.832,-0.08,0.07,0.82,-0.96,-0.40,-1.45,
0.832,-0.07,0.06,0.83,-0.96,-0.40,-1.45,
0.832,-0.07,0.06,0.83,-0.88,-0.44,-1.39,
0.835,-0.07,0.06,0.83,-0.88,-0.44,-1.39,
0.837,-0.07,0.05,0.84,-0.88,-0.44,-1.39,
0.838,-0.07,0.05,0.84,-0.84,-0.53,-1.32,
0.84,-0.07,0.04,0.84,-0.84,-0.53,-1.32,
0.852,-0.07,0.03,0.85,-0.84,-0.53,-1.32,
0.852,-0.07,0.03,0.85,-0.82,-0.65,-1.19,
0.853,-0.07,0.02,0.84,-0.82,-0.65,-1.19,
0.853,-0.07,0.01,0.85,-0.82,-0.65,-1.19,
0.853,-0.07,0.01,0.85,-0.82,-0.82,-1.10,
0.853,-0.07,0.01,0.85,-0.82,-0.82,-1.10,
0.854,-0.08,0.00,0.86,-0.82,-0.82,-1.10,
0.854,-0.08,0.00,0.86,-0.87,-0.95,-1.04,
0.854,-0.08,0.00,0.86,-0.87,-0.95,-1.04,
0.864,-0.09,-0.00,0.87,-0.87,-0.95,-1.04,
0.864,-0.09,-0.00,0.87,-0.93,-1.07,-0.96,
0.865,-0.10,-0.01,0.87,-0.93,-1.07,-0.96,
0.865,-0.10,-0.01,0.87,-0.93,-1.07,-0.96,
0.865,-0.10,-0.01,0.87,-1.02,-1.11,-0.85,
0.865,-0.11,-0.02,0.87,-1.02,-1.11,-0.85,
0.866,-0.12,-0.03,0.88,-1.02,-1.11,-0.85,
0.867,-0.12,-0.03,0.88,-1.21,-1.19,-0.84,
0.87,-0.13,-0.03,0.88,-1.21,-1.19,-0.84,
0.871,-0.14,-0.04,0.88,-1.21,-1.19,-0.84,
0.872,-0.14,-0.04,0.88,-1.39,-1.27,-0.80,
0.882,-0.15,-0.04,0.89,-1.39,-1.27,-0.80,
0.883,-0.15,-0.04,0.90,-1.39,-1.27,-0.80,
0.883,-0.15,-0.04,0.90,-1.58,-1.38,-0.71,
0.883,-0.15,-0.05,0.90,-1.58,-1.38,-0.71,
0.883,-0.16,-0.05,0.91,-1.58,-1.38,-0.71,
0.884,-0.16,-0.05,0.91,-1.79,-1.41,-0.59,
0.884,-0.16,-0.05,0.91,-1.79,-1.41,-0.59,
0.886,-0.16,-0.05,0.93,-1.79,-1.41,-0.59,
0.886,-0.16,-0.05,0.93,-1.88,-1.45,-0.49,
0.889,-0.16,-0.05,0.94,-1.88,-1.45,-0.49,
0.896,-0.16,-0.05,0.94,-1.88,-1.45,-0.49,
0.896,-0.16,-0.05,0.94,-1.97,-1.44,-0.33,
0.897,-0.17,-0.05,0.95,-1.97,-1.44,-0.33,
0.897,-0.16,-0.05,0.96,-1.97,-1.44,-0.33,
0.897,-0.16,-0.05,0.96,-2.03,-1.42,-0.15,
0.899,-0.15,-0.06,0.96,-2.03,-1.42,-0.15,
0.901,-0.15,-0.06,0.97,-2.03,-1.42,-0.15,
0.901,-0.15,-0.06,0.97,-2.06,-1.42,0.02,
0.904,-0.14,-0.07,0.97,-2.06,-1.42,0.02,
0.911,-0.14,-0.07,0.97,-2.00,-1.51,0.13,
0.912,-0.14,-0.07,0.97,-2.00,-1.51,0.13,
0.912,-0.14,-0.08,0.98,-2.00,-1.51,0.13,
0.912,-0.13,-0.08,0.98,-2.00,-1.51,0.13,
0.913,-0.13,-0.08,0.98,-1.93,-1.58,0.18,
0.913,-0.13,-0.09,0.98,-1.93,-1.58,0.18,
0.916,-0.13,-0.09,0.98,-1.93,-1.58,0.18,
0.916,-0.13,-0.09,0.98,-1.91,-1.66,0.24,
0.918,-0.13,-0.10,0.97,-1.91,-1.66,0.24,
0.921,-0.13,-0.10,0.98,-1.91,-1.66,0.24,
0.922,-0.13,-0.10,0.98,-1.89,-1.73,0.23,
0.93,-0.13,-0.11,0.97,-1.89,-1.73,0.23,
0.931,-0.13,-0.10,0.98,-1.89,-1.73,0.23,
0.931,-0.13,-0.10,0.98,-1.92,-1.77,0.22,
0.931,-0.14,-0.10,0.98,-1.92,-1.77,0.22,
0.931,-0.14,-0.11,0.98,-1.92,-1.77,0.22,
0.932,-0.14,-0.11,0.98,-1.96,-1.78,0.21,
0.933,-0.14,-0.10,0.98,-1.96,-1.78,0.21,
0.937,-0.14,-0.11,0.98,-1.96,-1.78,0.21,
0.937,-0.14,-0.11,0.98,-2.06,-1.77,0.24,
0.938,-0.14,-0.11,0.99,-2.06,-1.77,0.24,
0.952,-0.15,-0.11,0.99,-2.06,-1.77,0.24,
0.953,-0.15,-0.11,0.99,-2.13,-1.75,0.28,
0.954,-0.15,-0.11,1.00,-2.13,-1.75,0.28,
0.954,-0.15,-0.11,1.00,-2.13,-1.75,0.28,
0.954,-0.15,-0.11,1.00,-2.18,-1.72,0.35,
0.954,-0.15,-0.11,1.00,-2.18,-1.72,0.35,
0.955,-0.16,-0.11,1.01,-2.18,-1.72,0.35,
0.955,-0.16,-0.11,1.01,-2.21,-1.73,0.46,
0.955,-0.16,-0.11,1.01,-2.21,-1.73,0.46,
0.955,-0.16,-0.11,1.02,-2.21,-1.73,0.46,
0.956,-0.16,-0.11,1.02,-2.27,-1.68,0.52,
0.965,-0.16,-0.11,1.03,-2.27,-1.68,0.52,
0.965,-0.16,-0.11,1.03,-2.27,-1.68,0.52,
0.966,-0.16,-0.11,1.03,-2.35,-1.64,0.61,
0.966,-0.16,-0.10,1.03,-2.35,-1.64,0.61,
0.966,-0.16,-0.11,1.04,-2.35,-1.64,0.61,
0.966,-0.16,-0.11,1.04,-2.37,-1.58,0.71,
0.968,-0.16,-0.11,1.04,-2.37,-1.58,0.71,
0.97,-0.16,-0.11,1.04,-2.37,-1.58,0.71,
0.971,-0.16,-0.11,1.04,-2.38,-1.51,0.76,
0.984,-0.16,-0.11,1.04,-2.38,-1.51,0.76,
0.985,-0.16,-0.10,1.04,-2.38,-1.51,0.76,
0.985,-0.16,-0.10,1.04,-2.41,-1.46,0.80,
0.986,-0.16,-0.11,1.04,-2.41,-1.46,0.80,
0.986,-0.16,-0.11,1.04,-2.42,-1.41,0.83,
0.986,-0.16,-0.11,1.04,-2.42,-1.41,0.83,
0.986,-0.17,-0.11,1.04,-2.42,-1.41,0.83,
0.989,-0.16,-0.12,1.04,-2.42,-1.41,0.83,
0.989,-0.16,-0.12,1.04,-2.44,-1.41,0.82,
0.989,-0.16,-0.11,1.05,-2.44,-1.41,0.82,
0.999,-0.17,-0.11,1.05,-2.44,-1.41,0.82,
1.0,-0.17,-0.11,1.05,-2.46,-1.39,0.84,
1.0,-0.16,-0.12,1.04,-2.46,-1.39,0.84,
1.0,-0.17,-0.12,1.05,-2.46,-1.39,0.84,
1.001,-0.17,-0.12,1.05,-2.46,-1.35,0.89,
1.001,-0.16,-0.12,1.05,-2.46,-1.35,0.89,
1.001,-0.16,-0.12,1.04,-2.46,-1.35,0.89,
1.002,-0.16,-0.12,1.04,-2.48,-1.38,0.87,
1.003,-0.16,-0.13,1.04,-2.48,-1.38,0.87,
1.006,-0.16,-0.13,1.04,-2.46,-1.36,0.87,
1.006,-0.16,-0.14,1.04,-2.46,-1.36,0.87,
1.014,-0.15,-0.14,1.04,-2.46,-1.36,0.87,
1.015,-0.15,-0.14,1.04,-2.46,-1.36,0.87,
1.015,-0.15,-0.14,1.04,-2.45,-1.42,0.82,
1.015,-0.15,-0.14,1.05,-2.45,-1.42,0.82,
1.015,-0.14,-0.15,1.05,-2.45,-1.42,0.82,
1.015,-0.14,-0.15,1.05,-2.38,-1.43,0.82,
1.018,-0.15,-0.15,1.05,-2.38,-1.43,0.82,
1.021,-0.14,-0.15,1.05,-2.38,-1.43,0.82,
1.021,-0.14,-0.15,1.05,-2.32,-1.43,0.87,
1.023,-0.14,-0.15,1.06,-2.32,-1.43,0.87,
1.029,-0.13,-0.15,1.07,-2.32,-1.43,0.87,
1.03,-0.13,-0.15,1.07,-2.31,-1.40,0.91,
1.03,-0.13,-0.15,1.08,-2.31,-1.40,0.91,
1.03,-0.13,-0.15,1.08,-2.24,-1.34,1.08,
1.03,-0.13,-0.15,1.09,-2.24,-1.34,1.08,
1.033,-0.12,-0.15,1.10,-2.24,-1.34,1.08,
1.036,-0.12,-0.15,1.10,-2.24,-1.34,1.08,
1.036,-0.12,-0.15,1.10,-2.20,-1.33,1.26,
1.038,-0.11,-0.15,1.12,-2.20,-1.33,1.26,
1.04,-0.11,-0.15,1.12,-2.20,-1.33,1.26,
1.041,-0.11,-0.15,1.12,-2.11,-1.29,1.42,
1.046,-0.10,-0.15,1.13,-2.11,-1.29,1.42,
1.046,-0.11,-0.15,1.13,-2.11,-1.29,1.42,
1.046,-0.11,-0.15,1.13,-2.04,-1.28,1.58,
1.048,-0.10,-0.16,1.14,-2.04,-1.28,1.58,
1.05,-0.11,-0.16,1.14,-2.04,-1.28,1.58,
1.051,-0.11,-0.16,1.14,-2.02,-1.24,1.71,
1.053,-0.11,-0.16,1.15,-2.02,-1.24,1.71,
1.055,-0.11,-0.16,1.15,-2.02,-1.24,1.71,
1.056,-0.11,-0.16,1.15,-2.04,-1.27,1.80,
1.058,-0.11,-0.16,1.16,-2.04,-1.27,1.80,
1.067,-0.12,-0.16,1.16,-2.04,-1.27,1.80,
1.068,-0.12,-0.16,1.16,-2.07,-1.23,1.88,
1.068,-0.12,-0.16,1.16,-2.07,-1.23,1.88,
1.068,-0.13,-0.17,1.16,-2.07,-1.23,1.88,
1.068,-0.13,-0.17,1.16,-2.18,-1.22,1.99,
1.068,-0.13,-0.17,1.16,-2.18,-1.22,1.99,
1.07,-0.13,-0.17,1.16,-2.27,-1.21,2.02,
1.071,-0.13,-0.18,1.16,-2.27,-1.21,2.02,
1.073,-0.14,-0.17,1.16,-2.27,-1.21,2.02,
1.083,-0.14,-0.17,1.15,-2.27,-1.21,2.02,
1.083,-0.14,-0.17,1.15,-2.34,-1.24,1.99,
1.084,-0.14,-0.18,1.15,-2.34,-1.24,1.99,
1.084,-0.14,-0.18,1.15,-2.41,-1.22,1.95,
1.084,-0.15,-0.18,1.15,-2.41,-1.22,1.95,
1.084,-0.16,-0.19,1.15,-2.41,-1.22,1.95,
1.084,-0.16,-0.20,1.15,-2.41,-1.22,1.95,
1.085,-0.16,-0.20,1.15,-2.48,-1.25,1.86,
1.088,-0.17,-0.20,1.15,-2.48,-1.25,1.86,
1.09,-0.17,-0.21,1.15,-2.48,-1.25,1.86,
1.09,-0.17,-0.21,1.15,-2.66,-1.35,1.83,
1.1,-0.18,-0.21,1.15,-2.66,-1.35,1.83,
1.1,-0.18,-0.21,1.15,-2.66,-1.35,1.83,
1.101,-0.18,-0.21,1.15,-2.75,-1.41,1.86,
1.101,-0.19,-0.21,1.15,-2.75,-1.41,1.86,
1.101,-0.19,-0.22,1.16,-2.75,-1.41,1.86,
1.101,-0.19,-0.22,1.16,-2.84,-1.46,1.85,
1.102,-0.20,-0.23,1.16,-2.84,-1.46,1.85,
1.105,-0.20,-0.22,1.17,-2.84,-1.46,1.85,
1.106,-0.20,-0.22,1.17,-2.96,-1.48,1.89,
1.107,-0.21,-0.22,1.17,-2.96,-1.48,1.89,
1.114,-0.21,-0.22,1.17,-2.96,-1.48,1.89,
1.115,-0.21,-0.22,1.17,-3.07,-1.51,2.01,
1.115,-0.21,-0.23,1.18,-3.07,-1.51,2.01,
1.115,-0.21,-0.24,1.18,-3.07,-1.51,2.01,
1.115,-0.21,-0.24,1.18,-3.18,-1.47,2.09,
1.118,-0.22,-0.24,1.18,-3.18,-1.47,2.09,
1.119,-0.21,-0.24,1.18,-3.18,-1.47,2.09,
1.119,-0.21,-0.24,1.18,-3.21,-1.56,2.16,
1.121,-0.21,-0.25,1.18,-3.21,-1.56,2.16,
1.124,-0.21,-0.25,1.18,-3.21,-1.56,2.16,
1.131,-0.21,-0.25,1.18,-3.25,-1.62,2.17,
1.132,-0.22,-0.26,1.18,-3.25,-1.62,2.17,
1.132,-0.22,-0.26,1.18,-3.25,-1.62,2.17,
1.132,-0.22,-0.26,1.18,-3.25,-1.68,2.16,
1.133,-0.22,-0.27,1.17,-3.25,-1.68,2.16,
1.134,-0.22,-0.28,1.17,-3.25,-1.68,2.16,
1.134,-0.22,-0.28,1.17,-3.32,-1.78,2.12,
1.136,-0.22,-0.29,1.16,-3.32,-1.78,2.12,
1.139,-0.23,-0.30,1.15,-3.32,-1.78,2.12,
1.139,-0.23,-0.30,1.15,-3.36,-1.88,2.04,
1.147,-0.22,-0.30,1.14,-3.36,-1.88,2.04,
1.147,-0.22,-0.31,1.14,-3.36,-1.88,2.04,
1.147,-0.22,-0.31,1.14,-3.40,-2.06,1.89,
1.148,-0.23,-0.32,1.13,-3.40,-2.06,1.89,
1.149,-0.22,-0.33,1.12,-3.40,-2.06,1.89,
1.151,-0.22,-0.33,1.12,-3.41,-2.17,1.75,
1.152,-0.21,-0.34,1.11,-3.41,-2.17,1.75,
1.154,-0.21,-0.34,1.11,-3.39,-2.34,1.59,
1.155,-0.21,-0.35,1.10,-3.39,-2.34,1.59,
1.156,-0.20,-0.35,1.10,-3.39,-2.34,1.59,
1.169,-0.19,-0.36,1.09,-3.39,-2.34,1.59,
1.169,-0.19,-0.36,1.09,-3.28,-2.48,1.43,
1.17,-0.18,-0.35,1.10,-3.28,-2.48,1.43,
1.17,-0.17,-0.35,1.10,-3.28,-2.48,1.43,
1.17,-0.17,-0.35,1.10,-3.13,-2.59,1.31,
1.17,-0.16,-0.35,1.10,-3.13,-2.59,1.31,
1.171,-0.15,-0.34,1.11,-3.13,-2.59,1.31,
1.171,-0.15,-0.34,1.11,-2.96,-2.58,1.32,
1.171,-0.14,-0.34,1.11,-2.96,-2.58,1.32,
1.173,-0.13,-0.33,1.13,-2.96,-2.58,1.32,
1.173,-0.13,-0.33,1.13,-2.76,-2.50,1.37,
1.182,-0.12,-0.32,1.14,-2.76,-2.50,1.37,
1.183,-0.12,-0.32,1.14,-2.56,-2.36,1.55,
1.184,-0.10,-0.30,1.16,-2.56,-2.36,1.55,
1.184,-0.09,-0.29,1.18,-2.56,-2.36,1.55,
1.184,-0.08,-0.27,1.19,-2.56,-2.36,1.55,
1.184,-0.08,-0.27,1.19,-2.36,-2.13,1.84,
1.186,-0.06,-0.26,1.21,-2.36,-2.13,1.84,
1.188,-0.04,-0.24,1.22,-2.36,-2.13,1.84,
1.188,-0.04,-0.24,1.22,-2.14,-1.82,2.18,
1.201,-0.02,-0.22,1.23,-2.14,-1.82,2.18,
1.202,0.00,-0.20,1.25,-2.14,-1.82,2.18,
1.202,0.00,-0.20,1.25,-1.87,-1.49,2.49,
1.202,0.02,-0.20,1.26,-1.87,-1.49,2.49,
1.203,0.04,-0.19,1.27,-1.87,-1.49,2.49,
1.203,0.04,-0.19,1.27,-1.48,-1.13,2.74,
1.203,0.06,-0.18,1.28,-1.48,-1.13,2.74,
1.204,0.07,-0.18,1.30,-1.48,-1.13,2.74,
1.204,0.07,-0.18,1.30,-1.16,-0.96,2.97,
1.206,0.08,-0.18,1.31,-1.16,-0.96,2.97,
1.214,0.09,-0.17,1.31,-1.16,-0.96,2.97,
1.215,0.09,-0.17,1.31,-0.82,-0.78,3.21,
1.215,0.09,-0.16,1.33,-0.82,-0.78,3.21,
1.215,0.09,-0.15,1.35,-0.82,-0.78,3.21,
1.216,0.09,-0.15,1.35,-0.66,-0.68,3.42,
1.216,0.10,-0.15,1.36,-0.66,-0.68,3.42,
1.218,0.11,-0.15,1.36,-0.66,-0.68,3.42,
1.218,0.11,-0.15,1.36,-0.61,-0.50,3.68,
1.22,0.11,-0.15,1.37,-0.61,-0.50,3.68,
1.223,0.11,-0.15,1.36,-0.61,-0.50,3.68,
1.223,0.11,-0.15,1.36,-0.49,-0.40,3.89,
1.23,0.11,-0.16,1.35,-0.49,-0.40,3.89,
1.23,0.11,-0.16,1.35,-0.49,-0.40,3.89,
1.231,0.11,-0.16,1.35,-0.44,-0.40,3.92,
1.231,0.10,-0.17,1.35,-0.44,-0.40,3.92,
1.233,0.10,-0.18,1.33,-0.44,-0.40,3.92,
1.233,0.10,-0.18,1.33,-0.46,-0.46,3.79,
1.235,0.10,-0.20,1.31,-0.46,-0.46,3.79,
1.238,0.09,-0.21,1.30,-0.46,-0.46,3.79,
1.238,0.09,-0.21,1.30,-0.52,-0.61,3.63,
1.24,0.08,-0.22,1.28,-0.52,-0.61,3.63,
1.248,0.07,-0.23,1.26,-0.52,-0.61,3.63,
1.248,0.07,-0.23,1.26,-0.56,-0.85,3.32,
1.249,0.06,-0.25,1.25,-0.56,-0.85,3.32,
1.249,0.05,-0.25,1.23,-0.56,-0.85,3.32,
1.249,0.05,-0.25,1.23,-0.73,-1.05,2.98,
1.25,0.04,-0.27,1.21,-0.73,-1.05,2.98,
1.253,0.04,-0.27,1.21,-0.87,-1.23,2.61,
1.253,0.03,-0.27,1.20,-0.87,-1.23,2.61,
1.255,0.02,-0.27,1.19,-0.87,-1.23,2.61,
1.258,0.02,-0.29,1.17,-0.87,-1.23,2.61,
1.259,0.02,-0.29,1.17,-1.05,-1.41,2.29,
1.265,0.02,-0.29,1.15,-1.05,-1.41,2.29,
1.266,0.02,-0.29,1.15,-1.05,-1.41,2.29,
1.266,0.02,-0.29,1.15,-1.12,-1.50,2.04,
1.267,0.03,-0.30,1.14,-1.12,-1.50,2.04,
1.267,0.04,-0.30,1.13,-1.12,-1.50,2.04,
1.268,0.04,-0.30,1.13,-1.13,-1.62,1.75,
1.27,0.04,-0.31,1.13,-1.13,-1.62,1.75,
1.272,0.05,-0.30,1.13,-1.13,-1.62,1.75,
1.273,0.05,-0.30,1.13,-0.99,-1.69,1.60,
1.289,0.06,-0.30,1.13,-0.99,-1.69,1.60,
1.29,0.06,-0.30,1.13,-0.84,-1.70,1.54,
1.29,0.07,-0.29,1.14,-0.84,-1.70,1.54,
1.291,0.09,-0.29,1.14,-0.84,-1.70,1.54,
1.291,0.10,-0.28,1.15,-0.84,-1.70,1.54,
1.291,0.10,-0.28,1.15,-0.64,-1.60,1.57,
1.292,0.11,-0.28,1.16,-0.64,-1.60,1.57,
1.292,0.13,-0.26,1.18,-0.64,-1.60,1.57,
1.292,0.13,-0.26,1.18,-0.40,-1.48,1.69,
1.293,0.14,-0.25,1.19,-0.40,-1.48,1.69,
1.293,0.16,-0.24,1.20,-0.40,-1.48,1.69,
1.293,0.16,-0.24,1.20,-0.18,-1.32,1.93,
1.302,0.17,-0.23,1.21,-0.18,-1.32,1.93,
1.303,0.19,-0.22,1.22,-0.18,-1.32,1.93,
1.303,0.19,-0.22,1.22,0.12,-1.07,2.16,
1.303,0.20,-0.21,1.24,0.12,-1.07,2.16,
1.303,0.21,-0.21,1.24,0.12,-1.07,2.16,
1.304,0.21,-0.21,1.24,0.42,-0.86,2.36,
1.305,0.23,-0.19,1.25,0.42,-0.86,2.36,
1.307,0.24,-0.18,1.27,0.42,-0.86,2.36,
1.317,0.24,-0.18,1.27,0.65,-0.70,2.60,
1.318,0.24,-0.17,1.28,0.65,-0.70,2.60,
1.318,0.24,-0.17,1.28,0.65,-0.70,2.60,
1.318,0.24,-0.17,1.28,0.88,-0.46,2.78,
1.322,0.25,-0.17,1.29,0.88,-0.46,2.78,
1.322,0.25,-0.16,1.29,0.88,-0.46,2.78,
1.323,0.25,-0.16,1.29,0.98,-0.30,2.98,
1.323,0.26,-0.16,1.29,0.98,-0.30,2.98,
1.323,0.26,-0.16,1.29,0.98,-0.30,2.98,
1.324,0.26,-0.16,1.29,1.07,-0.20,3.05,
1.325,0.26,-0.16,1.29,1.07,-0.20,3.05,
1.335,0.26,-0.16,1.29,1.15,-0.12,3.09,
1.335,0.26,-0.16,1.28,1.15,-0.12,3.09,
1.336,0.26,-0.16,1.28,1.15,-0.12,3.09,
1.336,0.26,-0.17,1.26,1.15,-0.12,3.09,
1.336,0.26,-0.17,1.26,1.17,-0.13,3.02,
1.336,0.25,-0.17,1.25,1.17,-0.13,3.02,
1.337,0.24,-0.18,1.23,1.17,-0.13,3.02,
1.338,0.24,-0.18,1.23,1.19,-0.15,2.84,
1.34,0.24,-0.19,1.23,1.19,-0.15,2.84,
1.349,0.23,-0.19,1.20,1.19,-0.15,2.84,
1.35,0.23,-0.19,1.20,1.12,-0.25,2.57,
1.35,0.23,-0.20,1.19,1.12,-0.25,2.57,
1.35,0.22,-0.20,1.18,1.12,-0.25,2.57,
1.35,0.22,-0.20,1.18,1.06,-0.38,2.30,
1.351,0.21,-0.21,1.16,1.06,-0.38,2.30,
1.352,0.22,-0.21,1.15,1.06,-0.38,2.30,
1.352,0.22,-0.21,1.15,0.96,-0.45,1.97,
1.355,0.21,-0.22,1.13,0.96,-0.45,1.97,
1.357,0.21,-0.22,1.13,0.91,-0.56,1.70,
1.357,0.21,-0.23,1.12,0.91,-0.56,1.70,
1.365,0.21,-0.23,1.11,0.91,-0.56,1.70,
1.366,0.21,-0.23,1.10,0.91,-0.56,1.70,
1.366,0.21,-0.23,1.10,0.89,-0.68,1.42,
1.366,0.21,-0.24,1.10,0.89,-0.68,1.42,
1.366,0.21,-0.23,1.09,0.89,-0.68,1.42,
1.367,0.21,-0.23,1.09,0.90,-0.77,1.21,
1.369,0.21,-0.23,1.09,0.90,-0.77,1.21,
1.372,0.21,-0.23,1.09,0.93,-0.77,1.07,
1.372,0.21,-0.23,1.09,0.93,-0.77,1.07,
1.374,0.22,-0.21,1.10,0.93,-0.77,1.07,
1.385,0.22,-0.21,1.10,0.96,-0.73,1.07,
1.386,0.22,-0.21,1.10,0.96,-0.73,1.07,
1.386,0.23,-0.21,1.10,0.96,-0.73,1.07,
1.386,0.24,-0.20,1.10,0.96,-0.73,1.07,
1.386,0.24,-0.20,1.10,1.03,-0.56,1.10,
1.386,0.24,-0.20,1.11,1.03,-0.56,1.10,
1.386,0.25,-0.19,1.13,1.03,-0.56,1.10,
1.387,0.25,-0.19,1.13,1.18,-0.49,1.16,
1.389,0.26,-0.18,1.14,1.18,-0.49,1.16,
1.392,0.26,-0.17,1.15,1.18,-0.49,1.16,
1.4,0.26,-0.17,1.15,1.32,-0.34,1.33,
1.4,0.27,-0.17,1.16,1.32,-0.34,1.33,
1.401,0.28,-0.17,1.17,1.32,-0.34,1.33,
1.401,0.28,-0.17,1.17,1.48,-0.17,1.56,
1.401,0.29,-0.16,1.17,1.48,-0.17,1.56,
1.401,0.29,-0.16,1.18,1.48,-0.17,1.56,
1.401,0.29,-0.16,1.18,1.60,-0.07,1.73,
1.405,0.29,-0.16,1.19,1.60,-0.07,1.73,
1.407,0.29,-0.15,1.20,1.60,-0.07,1.73,
1.407,0.29,-0.15,1.20,1.76,0.01,1.86,
1.418,0.29,-0.16,1.20,1.76,0.01,1.86,
1.419,0.29,-0.16,1.20,1.76,0.01,1.86,
1.419,0.29,-0.16,1.20,1.80,0.06,2.01,
1.419,0.29,-0.16,1.20,1.80,0.06,2.01,
1.419,0.29,-0.16,1.20,1.80,0.06,2.01,
1.42,0.29,-0.16,1.20,1.82,0.06,2.08,
1.42,0.29,-0.17,1.19,1.82,0.06,2.08,
1.422,0.29,-0.17,1.18,1.82,0.06,2.08,
1.422,0.29,-0.17,1.18,1.81,0.04,2.05,
1.424,0.28,-0.18,1.17,1.81,0.04,2.05,
1.433,0.28,-0.18,1.17,1.81,0.04,2.05,
1.434,0.28,-0.18,1.17,1.84,-0.04,1.95,
1.434,0.27,-0.19,1.16,1.84,-0.04,1.95,
1.435,0.26,-0.20,1.15,1.84,-0.04,1.95,
1.435,0.26,-0.20,1.15,1.79,-0.10,1.78,
1.435,0.25,-0.21,1.14,1.79,-0.10,1.78,
1.437,0.24,-0.21,1.13,1.79,-0.10,1.78,
1.437,0.24,-0.21,1.13,1.70,-0.27,1.60,
1.439,0.24,-0.22,1.12,1.70,-0.27,1.60,
1.441,0.23,-0.23,1.10,1.70,-0.27,1.60,
1.442,0.23,-0.23,1.10,1.54,-0.43,1.39,
1.449,0.22,-0.24,1.10,1.54,-0.43,1.39,
1.45,0.21,-0.24,1.10,1.54,-0.43,1.39,
1.45,0.21,-0.24,1.10,1.43,-0.54,1.17,
1.45,0.21,-0.25,1.09,1.43,-0.54,1.17,
1.451,0.20,-0.25,1.09,1.43,-0.54,1.17,
1.451,0.20,-0.25,1.09,1.28,-0.66,1.05,
1.454,0.19,-0.25,1.08,1.28,-0.66,1.05,
1.456,0.19,-0.25,1.08,1.28,-0.66,1.05,
1.456,0.19,-0.25,1.08,1.24,-0.73,0.95,
1.459,0.19,-0.25,1.08,1.24,-0.73,0.95,
1.464,0.19,-0.25,1.08,1.24,-0.73,0.95,
1.465,0.19,-0.25,1.08,1.13,-0.77,0.86,
1.465,0.19,-0.25,1.08,1.13,-0.77,0.86,
1.465,0.20,-0.25,1.08,1.13,-0.77,0.86,
1.466,0.20,-0.25,1.08,1.14,-0.78,0.84,
1.469,0.20,-0.25,1.08,1.14,-0.78,0.84,
1.471,0.19,-0.24,1.09,1.14,-0.78,0.84,
1.471,0.19,-0.24,1.09,1.17,-0.77,0.87,
1.474,0.19,-0.24,1.09,1.17,-0.77,0.87,
1.476,0.19,-0.24,1.09,1.17,-0.77,0.87,
1.476,0.19,-0.24,1.09,1.18,-0.71,0.91,
1.482,0.20,-0.24,1.09,1.18,-0.71,0.91,
1.485,0.20,-0.23,1.09,1.18,-0.71,0.91,
1.485,0.20,-0.23,1.09,1.19,-0.67,0.98,
1.486,0.20,-0.23,1.10,1.19,-0.67,0.98,
1.486,0.20,-0.23,1.10,1.19,-0.67,0.98,
1.486,0.20,-0.23,1.10,1.25,-0.61,0.98,
1.488,0.21,-0.23,1.10,1.25,-0.61,0.98,
1.49,0.21,-0.22,1.10,1.25,-0.61,0.98,
1.49,0.21,-0.22,1.10,1.30,-0.55,1.04,
1.505,0.21,-0.22,1.10,1.30,-0.55,1.04,
1.506,0.21,-0.22,1.10,1.30,-0.55,1.04,
1.506,0.21,-0.22,1.10,1.41,-0.52,1.01,
1.506,0.22,-0.22,1.09,1.41,-0.52,1.01,
1.506,0.22,-0.22,1.09,1.43,-0.48,0.99,
1.506,0.22,-0.21,1.09,1.43,-0.48,0.99,
1.507,0.22,-0.21,1.08,1.43,-0.48,0.99,
1.507,0.22,-0.21,1.08,1.53,-0.44,0.93,
1.507,0.22,-0.21,1.09,1.53,-0.44,0.93,
1.508,0.22,-0.21,1.09,1.53,-0.44,0.93,
1.52,0.22,-0.21,1.08,1.53,-0.44,0.93,
1.521,0.22,-0.21,1.08,1.54,-0.41,0.88,
1.521,0.22,-0.21,1.08,1.54,-0.41,0.88,
1.522,0.23,-0.21,1.08,1.54,-0.41,0.88,
1.522,0.23,-0.21,1.08,1.59,-0.39,0.87,
1.522,0.22,-0.21,1.08,1.59,-0.39,0.87,
1.523,0.22,-0.21,1.07,1.59,-0.39,0.87,
1.523,0.22,-0.21,1.07,1.62,-0.39,0.82,
1.523,0.23,-0.21,1.07,1.62,-0.39,0.82,
1.526,0.23,-0.21,1.06,1.62,-0.39,0.82,
1.526,0.23,-0.21,1.06,1.63,-0.41,0.72,
1.535,0.23,-0.21,1.05,1.63,-0.41,0.72,
1.535,0.23,-0.22,1.05,1.63,-0.41,0.72,
1.536,0.23,-0.22,1.05,1.70,-0.46,0.63,
1.536,0.23,-0.22,1.04,1.70,-0.46,0.63,
1.536,0.23,-0.23,1.04,1.70,-0.46,0.63,
1.536,0.23,-0.23,1.04,1.70,-0.53,0.50,
1.538,0.23,-0.23,1.03,1.70,-0.53,0.50,
1.54,0.23,-0.23,1.03,1.70,-0.53,0.50,
1.541,0.23,-0.23,1.03,1.76,-0.61,0.41,
1.543,0.23,-0.23,1.03,1.76,-0.61,0.41,
1.551,0.23,-0.22,1.02,1.76,-0.61,0.41,
1.551,0.23,-0.22,1.02,1.77,-0.63,0.27,
1.552,0.23,-0.22,1.02,1.77,-0.63,0.27,
1.552,0.23,-0.22,1.03,1.77,-0.63,0.27,
1.552,0.23,-0.22,1.03,1.78,-0.61,0.25,
1.552,0.23,-0.22,1.03,1.78,-0.61,0.25,
1.556,0.23,-0.21,1.03,1.78,-0.61,0.25,
1.556,0.23,-0.21,1.03,1.81,-0.60,0.21,
1.558,0.23,-0.21,1.04,1.81,-0.60,0.21,
1.56,0.23,-0.20,1.05,1.81,-0.60,0.21,
1.56,0.23,-0.20,1.05,1.78,-0.55,0.28,
1.567,0.24,-0.20,1.05,1.78,-0.55,0.28,
1.567,0.24,-0.20,1.06,1.78,-0.55,0.28,
1.568,0.24,-0.20,1.06,1.81,-0.49,0.40,
1.568,0.24,-0.20,1.07,1.81,-0.49,0.40,
1.57,0.25,-0.19,1.07,1.81,-0.49,0.40,
1.57,0.25,-0.19,1.07,1.81,-0.44,0.52,
1.573,0.25,-0.19,1.08,1.81,-0.44,0.52,
1.575,0.25,-0.19,1.08,1.87,-0.38,0.67,
1.575,0.25,-0.18,1.09,1.87,-0.38,0.67,
1.577,0.25,-0.18,1.09,1.87,-0.38,0.67,
1.583,0.26,-0.17,1.10,1.87,-0.38,0.67,
1.583,0.26,-0.17,1.10,1.94,-0.30,0.81,
1.583,0.26,-0.17,1.10,1.94,-0.30,0.81,
1.585,0.27,-0.17,1.10,1.94,-0.30,0.81,
1.585,0.27,-0.17,1.10,1.98,-0.21,0.90,
1.588,0.27,-0.17,1.10,1.98,-0.21,0.90,
1.59,0.27,-0.17,1.10,2.04,-0.18,0.94,
1.59,0.27,-0.17,1.10,2.04,-0.18,0.94,
1.593,0.27,-0.16,1.09,2.04,-0.18,0.94,
1.599,0.27,-0.16,1.10,2.04,-0.18,0.94,
1.599,0.27,-0.16,1.10,2.06,-0.17,0.91,
1.599,0.27,-0.16,1.10,2.06,-0.17,0.91,
1.6,0.27,-0.16,1.09,2.06,-0.17,0.91,
1.6,0.27,-0.16,1.09,2.08,-0.14,0.90,
1.602,0.27,-0.16,1.09,2.08,-0.14,0.90,
1.605,0.27,-0.16,1.08,2.08,-0.14,0.90,
1.605,0.27,-0.16,1.08,2.07,-0.15,0.86,
1.607,0.27,-0.15,1.07,2.07,-0.15,0.86,
1.61,0.27,-0.15,1.07,2.07,-0.15,0.86,
1.61,0.27,-0.15,1.07,2.07,-0.13,0.80,
1.623,0.27,-0.15,1.06,2.07,-0.13,0.80,
1.624,0.28,-0.15,1.05,2.07,-0.13,0.80,
1.624,0.28,-0.15,1.05,2.10,-0.13,0.63,
1.624,0.28,-0.16,1.05,2.10,-0.13,0.63,
1.624,0.28,-0.15,1.04,2.10,-0.13,0.63,
1.625,0.28,-0.15,1.04,2.14,-0.14,0.52,
1.625,0.28,-0.15,1.04,2.14,-0.14,0.52,
1.625,0.29,-0.15,1.04,2.14,-0.14,0.52,
1.625,0.29,-0.15,1.04,2.16,-0.16,0.38,
1.636,0.28,-0.14,1.05,2.16,-0.16,0.38,
1.636,0.28,-0.14,1.04,2.16,-0.16,0.38,
1.636,0.28,-0.14,1.04,2.24,-0.15,0.34,
1.637,0.28,-0.14,1.04,2.24,-0.15,0.34,
1.637,0.29,-0.14,1.04,2.24,-0.15,0.34,
1.637,0.29,-0.14,1.04,2.22,-0.09,0.34,
1.637,0.29,-0.14,1.04,2.22,-0.09,0.34,
1.64,0.30,-0.14,1.04,2.22,-0.09,0.34,
1.64,0.30,-0.14,1.04,2.24,-0.11,0.33,
1.643,0.30,-0.14,1.04,2.24,-0.11,0.33,
1.652,0.30,-0.13,1.04,2.24,-0.11,0.33,
1.655,0.30,-0.13,1.04,2.33,-0.10,0.31,
1.656,0.31,-0.13,1.05,2.33,-0.10,0.31,
1.657,0.31,-0.13,1.05,2.38,-0.07,0.32,
1.657,0.31,-0.13,1.05,2.38,-0.07,0.32,
1.657,0.31,-0.13,1.04,2.38,-0.07,0.32,
1.658,0.32,-0.12,1.04,2.38,-0.07,0.32,
1.658,0.32,-0.12,1.04,2.43,-0.08,0.39,
1.659,0.32,-0.12,1.04,2.43,-0.08,0.39,
1.659,0.32,-0.11,1.05,2.43,-0.08,0.39,
1.659,0.32,-0.11,1.05,2.48,-0.05,0.34,
1.67,0.32,-0.11,1.04,2.48,-0.05,0.34,
1.671,0.32,-0.10,1.05,2.48,-0.05,0.34,
1.671,0.32,-0.10,1.05,2.51,-0.01,0.34,
1.671,0.32,-0.10,1.05,2.51,-0.01,0.34,
1.672,0.33,-0.10,1.05,2.51,-0.01,0.34,
1.672,0.33,-0.10,1.05,2.51,0.08,0.36,
1.672,0.33,-0.09,1.05,2.51,0.08,0.36,
1.673,0.34,-0.09,1.05,2.51,0.08,0.36,
1.674,0.34,-0.09,1.05,2.58,0.12,0.38,
1.676,0.34,-0.08,1.05,2.58,0.12,0.38,
1.683,0.35,-0.07,1.06,2.58,0.12,0.38,
1.683,0.35,-0.07,1.06,2.64,0.18,0.38,
1.684,0.35,-0.07,1.05,2.64,0.18,0.38,
1.684,0.35,-0.07,1.05,2.64,0.18,0.38,
1.684,0.35,-0.07,1.05,2.70,0.28,0.41,
1.687,0.35,-0.06,1.06,2.70,0.28,0.41,
1.689,0.35,-0.06,1.06,2.70,0.28,0.41,
1.689,0.35,-0.06,1.06,2.72,0.33,0.39,
1.691,0.35,-0.05,1.07,2.72,0.33,0.39,
1.694,0.34,-0.05,1.07,2.72,0.33,0.39,
1.694,0.34,-0.05,1.07,2.73,0.36,0.48,
1.701,0.34,-0.05,1.07,2.73,0.36,0.48,
1.702,0.35,-0.05,1.07,2.73,0.36,0.48,
1.702,0.35,-0.05,1.07,2.68,0.44,0.53,
1.702,0.34,-0.05,1.07,2.68,0.44,0.53,
1.704,0.34,-0.05,1.07,2.68,0.44,0.53,
1.704,0.34,-0.05,1.07,2.67,0.43,0.54,
1.706,0.33,-0.06,1.07,2.67,0.43,0.54,
1.709,0.32,-0.06,1.07,2.67,0.43,0.54,
1.709,0.32,-0.06,1.07,2.62,0.41,0.57,
1.711,0.33,-0.06,1.06,2.62,0.41,0.57,
1.721,0.33,-0.06,1.05,2.62,0.41,0.57,
1.721,0.33,-0.06,1.05,2.52,0.34,0.54,
1.722,0.32,-0.06,1.05,2.52,0.34,0.54,
1.722,0.32,-0.07,1.05,2.52,0.34,0.54,
1.722,0.32,-0.07,1.05,2.51,0.28,0.43,
1.722,0.31,-0.07,1.05,2.51,0.28,0.43,
1.724,0.31,-0.07,1.05,2.51,0.28,0.43,
1.724,0.31,-0.07,1.05,2.42,0.21,0.38,
1.726,0.30,-0.07,1.04,2.42,0.21,0.38,
1.728,0.30,-0.07,1.03,2.42,0.21,0.38,
1.728,0.30,-0.07,1.03,2.34,0.14,0.33,
1.737,0.30,-0.07,1.03,2.34,0.14,0.33,
1.737,0.30,-0.07,1.02,2.34,0.14,0.33,
1.738,0.30,-0.07,1.02,2.27,0.13,0.20,
1.738,0.29,-0.07,1.02,2.27,0.13,0.20,
1.738,0.28,-0.07,1.02,2.27,0.13,0.20,
1.738,0.28,-0.07,1.02,2.23,0.10,0.11,
1.741,0.28,-0.07,1.01,2.23,0.10,0.11,
1.743,0.28,-0.07,1.01,2.23,0.10,0.11,
1.744,0.28,-0.07,1.01,2.15,0.05,0.01,
1.752,0.28,-0.07,1.00,2.15,0.05,0.01,
1.753,0.27,-0.07,1.00,2.15,0.05,0.01,
1.753,0.27,-0.07,1.00,2.11,0.03,-0.07,
1.753,0.27,-0.07,0.99,2.11,0.03,-0.07,
1.754,0.27,-0.06,0.99,2.11,0.03,-0.07,
1.754,0.27,-0.06,0.99,2.03,-0.00,-0.14,
1.756,0.26,-0.06,0.99,2.03,-0.00,-0.14,
1.758,0.26,-0.06,0.99,2.03,-0.00,-0.14,
1.758,0.26,-0.06,0.99,1.97,0.04,-0.24,
1.761,0.26,-0.05,0.98,1.97,0.04,-0.24,
1.768,0.25,-0.05,0.98,1.97,0.04,-0.24,
1.768,0.25,-0.05,0.98,1.91,0.07,-0.27,
1.768,0.25,-0.05,0.98,1.91,0.07,-0.27,
1.769,0.24,-0.04,0.98,1.91,0.07,-0.27,
1.769,0.24,-0.04,0.98,1.85,0.14,-0.33,
1.771,0.24,-0.03,0.98,1.85,0.14,-0.33,
1.773,0.24,-0.03,0.98,1.85,0.14,-0.33,
1.773,0.24,-0.03,0.98,1.79,0.14,-0.36,
1.776,0.24,-0.03,0.97,1.79,0.14,-0.36,
1.778,0.23,-0.03,0.97,1.79,0.14,-0.36,
1.778,0.23,-0.03,0.97,1.70,0.21,-0.38,
1.783,0.23,-0.02,0.97,1.70,0.21,-0.38,
1.784,0.22,-0.02,0.97,1.70,0.21,-0.38,
1.784,0.22,-0.02,0.97,1.64,0.22,-0.45,
1.785,0.22,-0.02,0.97,1.64,0.22,-0.45,
1.787,0.22,-0.02,0.96,1.64,0.22,-0.45,
1.787,0.22,-0.02,0.96,1.58,0.23,-0.47,
1.79,0.21,-0.02,0.96,1.58,0.23,-0.47,
1.793,0.21,-0.02,0.96,1.58,0.23,-0.47,
1.793,0.21,-0.02,0.96,1.53,0.23,-0.50,
1.8,0.21,-0.02,0.95,1.53,0.23,-0.50,
1.801,0.20,-0.02,0.95,1.53,0.23,-0.50,
1.801,0.20,-0.02,0.95,1.45,0.21,-0.55,
1.801,0.20,-0.03,0.95,1.45,0.21,-0.55,
1.802,0.20,-0.03,0.94,1.45,0.21,-0.55,
1.802,0.20,-0.03,0.94,1.42,0.14,-0.63,
1.805,0.20,-0.03,0.95,1.42,0.14,-0.63,
1.807,0.19,-0.02,0.95,1.42,0.14,-0.63,
1.808,0.19,-0.02,0.95,1.34,0.07,-0.70,
1.811,0.18,-0.02,0.96,1.34,0.07,-0.70,
1.817,0.18,-0.01,0.96,1.34,0.07,-0.70,
1.818,0.18,-0.01,0.96,1.30,0.06,-0.62,
1.818,0.18,-0.01,0.96,1.30,0.06,-0.62,
1.818,0.17,-0.02,0.96,1.30,0.06,-0.62,
1.818,0.17,-0.02,0.96,1.20,0.10,-0.60,
1.82,0.17,-0.01,0.96,1.20,0.10,-0.60,
1.822,0.17,-0.01,0.96,1.13,0.11,-0.58,
1.822,0.17,-0.01,0.96,1.13,0.11,-0.58,
1.824,0.16,-0.01,0.97,1.13,0.11,-0.58,
1.827,0.16,-0.01,0.97,1.13,0.11,-0.58,
1.828,0.16,-0.01,0.97,1.07,0.11,-0.52,
1.838,0.16,-0.01,0.97,1.07,0.11,-0.52,
1.839,0.16,-0.00,0.97,1.07,0.11,-0.52,
1.839,0.16,-0.00,0.97,1.03,0.10,-0.48,
1.839,0.16,-0.00,0.96,1.03,0.10,-0.48,
1.84,0.16,-0.01,0.97,1.03,0.10,-0.48,
1.84,0.16,-0.01,0.97,1.04,0.10,-0.47,
1.84,0.16,-0.01,0.97,1.04,0.10,-0.47,
1.841,0.16,-0.01,0.97,1.04,0.10,-0.47,
1.842,0.16,-0.01,0.97,1.03,0.09,-0.51,
1.853,0.16,-0.00,0.96,1.03,0.09,-0.51,
1.853,0.16,0.00,0.96,1.03,0.09,-0.51,
1.854,0.16,0.00,0.96,1.01,0.05,-0.50,
1.854,0.16,0.00,0.96,1.01,0.05,-0.50,
1.854,0.16,-0.00,0.95,1.01,0.05,-0.50,
1.854,0.16,-0.00,0.95,0.96,0.08,-0.54,
1.855,0.16,0.00,0.96,0.96,0.08,-0.54,
1.857,0.16,0.00,0.95,0.96,0.08,-0.54,
1.857,0.16,0.00,0.95,1.01,0.07,-0.59,
1.859,0.16,-0.00,0.95,1.01,0.07,-0.59,
1.871,0.16,-0.00,0.95,1.01,0.07,-0.59,
1.872,0.16,-0.00,0.95,0.99,0.03,-0.61,
1.872,0.16,-0.00,0.95,0.99,0.03,-0.61,
1.873,0.16,-0.00,0.95,0.99,0.03,-0.61,
1.873,0.16,-0.00,0.95,1.01,-0.02,-0.66,
1.873,0.15,-0.00,0.95,1.01,-0.02,-0.66,
1.873,0.15,-0.00,0.95,1.01,-0.02,-0.66,
1.874,0.15,-0.00,0.95,0.97,-0.06,-0.65,
1.875,0.14,-0.00,0.95,0.97,-0.06,-0.65,
1.876,0.14,-0.00,0.95,0.97,-0.06,-0.65,
1.876,0.14,-0.00,0.95,0.90,-0.06,-0.64,
1.884,0.14,-0.00,0.95,0.90,-0.06,-0.64,
1.885,0.13,-0.00,0.95,0.90,-0.06,-0.64,
1.885,0.13,-0.00,0.95,0.84,-0.11,-0.65,
1.885,0.13,-0.00,0.95,0.84,-0.11,-0.65,
1.886,0.12,0.00,0.95,0.84,-0.11,-0.65,
1.886,0.12,0.00,0.95,0.79,-0.13,-0.67,
1.889,0.12,-0.00,0.95,0.79,-0.13,-0.67,
1.891,0.12,-0.00,0.94,0.79,-0.13,-0.67,
1.892,0.12,-0.00,0.94,0.69,-0.14,-0.67,
1.894,0.11,-0.00,0.94,0.69,-0.14,-0.67,
1.9,0.11,-0.00,0.94,0.61,-0.18,-0.69,
1.9,0.11,-0.00,0.93,0.61,-0.18,-0.69,
1.9,0.11,-0.01,0.93,0.61,-0.18,-0.69,
1.902,0.11,-0.01,0.93,0.61,-0.18,-0.69,
1.902,0.11,-0.01,0.93,0.51,-0.23,-0.77,
1.903,0.11,-0.01,0.93,0.51,-0.23,-0.77,
1.906,0.11,-0.00,0.92,0.51,-0.23,-0.77,
1.906,0.11,-0.00,0.92,0.53,-0.28,-0.83,
1.908,0.11,-0.00,0.92,0.53,-0.28,-0.83,
1.917,0.11,-0.01,0.92,0.53,-0.28,-0.83,
1.918,0.11,-0.01,0.92,0.50,-0.30,-0.90,
1.918,0.11,-0.01,0.91,0.50,-0.30,-0.90,
1.918,0.11,-0.01,0.91,0.50,-0.30,-0.90,
1.918,0.11,-0.01,0.91,0.50,-0.32,-0.96,
1.918,0.11,-0.00,0.90,0.50,-0.32,-0.96,
1.921,0.11,-0.00,0.90,0.50,-0.37,-1.04,
1.921,0.11,-0.00,0.90,0.50,-0.37,-1.04,
1.923,0.11,0.00,0.90,0.50,-0.37,-1.04,
1.926,0.11,0.00,0.89,0.50,-0.37,-1.04,
1.926,0.11,0.00,0.89,0.51,-0.37,-1.11,
1.94,0.11,0.00,0.88,0.51,-0.37,-1.11,
1.941,0.12,0.01,0.88,0.51,-0.37,-1.11,
1.941,0.12,0.01,0.88,0.53,-0.36,-1.20,
1.941,0.12,0.01,0.88,0.53,-0.36,-1.20,
1.941,0.12,0.02,0.87,0.53,-0.36,-1.20,
1.942,0.12,0.02,0.87,0.58,-0.34,-1.32,
1.942,0.11,0.02,0.87,0.58,-0.34,-1.32,
1.942,0.11,0.02,0.87,0.58,-0.34,-1.32,
1.943,0.11,0.02,0.87,0.58,-0.30,-1.36,
1.943,0.11,0.02,0.88,0.58,-0.30,-1.36,
1.953,0.11,0.03,0.88,0.58,-0.30,-1.36,
1.953,0.11,0.03,0.88,0.55,-0.28,-1.40,
1.954,0.11,0.03,0.89,0.55,-0.28,-1.40,
1.954,0.12,0.04,0.89,0.55,-0.28,-1.40,
1.954,0.12,0.04,0.89,0.55,-0.23,-1.29,
1.954,0.12,0.04,0.89,0.55,-0.23,-1.29,
1.955,0.11,0.04,0.90,0.55,-0.23,-1.29,
1.956,0.11,0.04,0.90,0.57,-0.16,-1.23,
1.958,0.12,0.05,0.89,0.57,-0.16,-1.23,
1.97,0.12,0.05,0.90,0.57,-0.16,-1.23,
1.972,0.12,0.05,0.90,0.55,-0.11,-1.16,
1.972,0.12,0.04,0.90,0.55,-0.11,-1.16,
1.972,0.12,0.05,0.90,0.55,-0.11,-1.16,
1.972,0.12,0.05,0.90,0.57,-0.09,-1.12,
1.972,0.12,0.05,0.91,0.57,-0.09,-1.12,
1.973,0.11,0.05,0.91,0.57,-0.09,-1.12,
1.973,0.11,0.05,0.91,0.56,-0.14,-1.08,
1.974,0.12,0.05,0.91,0.56,-0.14,-1.08,
1.977,0.11,0.05,0.92,0.56,-0.14,-1.08,
1.977,0.11,0.05,0.92,0.52,-0.13,-0.98,
1.978,0.11,0.05,0.92,0.52,-0.13,-0.98,
1.987,0.11,0.05,0.92,0.52,-0.13,-0.98,
1.988,0.11,0.05,0.92,0.51,-0.15,-0.94,
1.988,0.10,0.05,0.91,0.51,-0.15,-0.94,
1.988,0.10,0.05,0.91,0.51,-0.15,-0.94,
1.989,0.10,0.05,0.91,0.45,-0.14,-0.90,
1.989,0.10,0.05,0.92,0.45,-0.14,-0.90,
1.991,0.10,0.04,0.92,0.45,-0.14,-0.90,
1.991,0.10,0.04,0.92,0.40,-0.18,-0.93,
1.993,0.10,0.04,0.92,0.40,-0.18,-0.93,
2.001,0.10,0.04,0.92,0.39,-0.23,-0.90,
2.002,0.10,0.04,0.92,0.39,-0.23,-0.90,
2.002,0.11,0.04,0.92,0.39,-0.23,-0.90,
2.003,0.11,0.04,0.92,0.39,-0.23,-0.90,
2.003,0.11,0.04,0.92,0.40,-0.31,-0.90,
2.004,0.11,0.04,0.92,0.40,-0.31,-0.90,
2.005,0.12,0.03,0.91,0.40,-0.31,-0.90,
2.006,0.12,0.03,0.91,0.43,-0.35,-0.88,
2.008,0.11,0.03,0.91,0.43,-0.35,-0.88,
2.01,0.11,0.03,0.91,0.47,-0.39,-0.90,
2.011,0.12,0.03,0.92,0.47,-0.39,-0.90,
2.018,0.12,0.02,0.92,0.47,-0.39,-0.90,
2.018,0.12,0.03,0.93,0.47,-0.39,-0.90,
2.02,0.12,0.03,0.93,0.49,-0.45,-0.89,
2.02,0.12,0.03,0.93,0.49,-0.45,-0.89,
2.02,0.12,0.02,0.94,0.49,-0.45,-0.89,
2.021,0.12,0.02,0.94,0.52,-0.51,-0.80,
2.022,0.12,0.03,0.94,0.52,-0.51,-0.80,
2.026,0.12,0.03,0.95,0.52,-0.51,-0.80,
2.026,0.12,0.03,0.95,0.53,-0.53,-0.70,
2.028,0.12,0.03,0.95,0.53,-0.53,-0.70,
2.038,0.12,0.03,0.96,0.53,-0.53,-0.70,
2.038,0.12,0.03,0.96,0.56,-0.50,-0.59,
2.038,0.12,0.02,0.95,0.56,-0.50,-0.59,
2.039,0.12,0.03,0.96,0.56,-0.50,-0.59,
2.039,0.12,0.03,0.96,0.52,-0.54,-0.51,
2.039,0.12,0.03,0.95,0.52,-0.54,-0.51,
2.04,0.11,0.03,0.95,0.52,-0.54,-0.51,
2.041,0.11,0.03,0.95,0.50,-0.58,-0.49,
2.044,0.11,0.03,0.94,0.50,-0.58,-0.49,
2.045,0.11,0.03,0.94,0.50,-0.58,-0.49,
2.046,0.11,0.03,0.94,0.44,-0.58,-0.54,
2.052,0.11,0.03,0.93,0.44,-0.58,-0.54,
2.053,0.11,0.03,0.93,0.44,-0.58,-0.54,
2.053,0.11,0.03,0.93,0.41,-0.54,-0.65,
2.053,0.10,0.04,0.94,0.41,-0.54,-0.65,
2.055,0.11,0.04,0.93,0.41,-0.54,-0.65,
2.056,0.11,0.04,0.93,0.37,-0.56,-0.71,
2.059,0.11,0.05,0.93,0.37,-0.56,-0.71,
2.06,0.10,0.05,0.93,0.37,-0.56,-0.71,
2.061,0.10,0.05,0.93,0.36,-0.53,-0.69,
2.063,0.11,0.05,0.93,0.36,-0.53,-0.69,
2.073,0.11,0.05,0.92,0.36,-0.53,-0.69,
2.073,0.11,0.05,0.92,0.37,-0.48,-0.74,
2.073,0.11,0.06,0.92,0.37,-0.48,-0.74,
2.074,0.11,0.06,0.92,0.37,-0.48,-0.74,
2.074,0.11,0.06,0.92,0.37,-0.44,-0.77,
2.074,0.11,0.06,0.92,0.37,-0.44,-0.77,
2.074,0.11,0.06,0.91,0.37,-0.44,-0.77,
2.075,0.11,0.06,0.91,0.39,-0.40,-0.84,
2.078,0.11,0.06,0.91,0.39,-0.40,-0.84,
2.086,0.11,0.07,0.91,0.39,-0.40,-0.84,
2.086,0.11,0.07,0.91,0.41,-0.36,-0.85,
2.087,0.10,0.08,0.91,0.41,-0.36,-0.85,
2.087,0.10,0.08,0.90,0.41,-0.36,-0.85,
2.087,0.10,0.08,0.90,0.40,-0.36,-0.88,
2.087,0.10,0.08,0.90,0.40,-0.36,-0.88,
2.09,0.10,0.08,0.89,0.40,-0.36,-0.88,
2.09,0.10,0.08,0.89,0.34,-0.29,-0.94,
2.092,0.10,0.08,0.88,0.34,-0.29,-0.94,
2.096,0.10,0.08,0.88,0.34,-0.27,-1.06,
2.096,0.10,0.08,0.88,0.34,-0.27,-1.06,
2.101,0.09,0.09,0.87,0.34,-0.27,-1.06,
2.102,0.10,0.09,0.86,0.34,-0.27,-1.06,
2.102,0.10,0.09,0.86,0.34,-0.28,-1.18,
2.103,0.10,0.09,0.85,0.34,-0.28,-1.18,
2.105,0.10,0.09,0.84,0.34,-0.28,-1.18,
2.105,0.10,0.09,0.84,0.31,-0.27,-1.33,
2.107,0.10,0.08,0.84,0.31,-0.27,-1.33,
2.11,0.10,0.08,0.83,0.31,-0.27,-1.33,
2.11,0.10,0.08,0.83,0.34,-0.28,-1.49,
2.112,0.10,0.09,0.83,0.34,-0.28,-1.49,
2.119,0.10,0.08,0.82,0.34,-0.28,-1.49,
2.119,0.10,0.08,0.82,0.38,-0.33,-1.62,
2.12,0.10,0.08,0.82,0.38,-0.33,-1.62,
2.12,0.10,0.09,0.81,0.38,-0.33,-1.62,
2.12,0.10,0.09,0.81,0.38,-0.33,-1.68,
2.122,0.10,0.09,0.81,0.38,-0.33,-1.68,
2.124,0.10,0.09,0.81,0.38,-0.33,-1.68,
2.125,0.10,0.09,0.81,0.40,-0.36,-1.81,
2.127,0.10,0.09,0.81,0.40,-0.36,-1.81,
2.129,0.09,0.09,0.80,0.40,-0.36,-1.81,
2.13,0.09,0.09,0.80,0.37,-0.32,-1.84,
2.137,0.09,0.09,0.81,0.37,-0.32,-1.84,
2.137,0.09,0.10,0.81,0.37,-0.32,-1.84,
2.138,0.09,0.10,0.81,0.31,-0.32,-1.89,
2.138,0.08,0.11,0.80,0.31,-0.32,-1.89,
2.14,0.08,0.11,0.80,0.31,-0.32,-1.89,
2.142,0.08,0.11,0.80,0.27,-0.28,-1.87,
2.143,0.08,0.11,0.81,0.27,-0.28,-1.87,
2.145,0.08,0.11,0.81,0.18,-0.17,-1.91,
2.145,0.07,0.12,0.81,0.18,-0.17,-1.91,
2.16,0.07,0.12,0.81,0.18,-0.17,-1.91,
2.161,0.07,0.12,0.83,0.18,-0.17,-1.91,
2.161,0.07,0.12,0.83,0.11,-0.13,-1.86,
2.161,0.07,0.12,0.83,0.11,-0.13,-1.86,
2.161,0.06,0.13,0.84,0.11,-0.13,-1.86,
2.162,0.06,0.13,0.84,0.06,-0.09,-1.73,
2.162,0.06,0.13,0.84,0.06,-0.09,-1.73,
2.162,0.06,0.13,0.85,0.06,-0.09,-1.73,
2.163,0.06,0.13,0.85,0.02,-0.01,-1.59,
2.163,0.06,0.14,0.86,0.02,-0.01,-1.59,
2.17,0.06,0.14,0.86,0.02,-0.01,-1.59,
2.171,0.06,0.14,0.86,-0.03,0.04,-1.48,
2.171,0.06,0.14,0.87,-0.03,0.04,-1.48,
2.172,0.06,0.14,0.87,-0.09,0.08,-1.31,
2.172,0.07,0.14,0.87,-0.09,0.08,-1.31,
2.172,0.07,0.14,0.88,-0.09,0.08,-1.31,
2.173,0.07,0.13,0.89,-0.09,0.08,-1.31,
2.173,0.07,0.13,0.89,-0.02,0.08,-1.22,
2.176,0.07,0.13,0.89,-0.02,0.08,-1.22,
2.178,0.07,0.13,0.90,-0.02,0.08,-1.22,
2.178,0.07,0.13,0.90,-0.02,0.06,-1.08,
2.19,0.07,0.13,0.90,-0.02,0.06,-1.08,
2.19,0.07,0.12,0.90,-0.02,0.06,-1.08,
2.191,0.07,0.12,0.90,-0.02,0.00,-0.97,
2.191,0.08,0.12,0.91,-0.02,0.00,-0.97,
2.192,0.07,0.12,0.92,-0.02,0.00,-0.97,
2.192,0.07,0.12,0.92,-0.01,-0.03,-0.89,
2.193,0.08,0.11,0.92,-0.01,-0.03,-0.89,
2.194,0.08,0.11,0.92,-0.01,-0.03,-0.89,
2.194,0.08,0.11,0.92,0.01,-0.09,-0.77,
2.196,0.08,0.11,0.93,0.01,-0.09,-0.77,
2.202,0.09,0.10,0.93,0.01,-0.09,-0.77,
2.202,0.09,0.10,0.93,0.01,-0.15,-0.73,
2.203,0.09,0.10,0.94,0.01,-0.15,-0.73,
2.203,0.09,0.10,0.93,0.01,-0.15,-0.73,
2.203,0.09,0.10,0.93,0.07,-0.20,-0.63,
2.206,0.09,0.09,0.94,0.07,-0.20,-0.63,
2.208,0.10,0.09,0.94,0.07,-0.20,-0.63,
2.208,0.10,0.09,0.94,0.10,-0.25,-0.58,
2.21,0.10,0.09,0.95,0.10,-0.25,-0.58,
2.219,0.10,0.09,0.95,0.15,-0.33,-0.51,
2.219,0.10,0.09,0.94,0.15,-0.33,-0.51,
2.22,0.11,0.09,0.94,0.15,-0.33,-0.51,
2.22,0.11,0.09,0.94,0.23,-0.37,-0.47,
2.22,0.11,0.09,0.95,0.23,-0.37,-0.47,
2.22,0.11,0.09,0.95,0.23,-0.37,-0.47,
2.223,0.11,0.09,0.94,0.23,-0.37,-0.47,
2.223,0.11,0.09,0.94,0.31,-0.34,-0.48,
2.226,0.11,0.10,0.95,0.31,-0.34,-0.48,
2.228,0.11,0.10,0.95,0.31,-0.34,-0.48,
2.228,0.11,0.10,0.95,0.30,-0.29,-0.47,
2.236,0.11,0.11,0.95,0.30,-0.29,-0.47,
2.236,0.11,0.11,0.95,0.30,-0.29,-0.47,
2.237,0.11,0.11,0.95,0.27,-0.20,-0.45,
2.237,0.11,0.11,0.95,0.27,-0.20,-0.45,
2.237,0.11,0.12,0.95,0.27,-0.20,-0.45,
2.238,0.11,0.12,0.95,0.28,-0.09,-0.43,
2.24,0.10,0.12,0.95,0.28,-0.09,-0.43,
2.243,0.10,0.13,0.95,0.28,-0.09,-0.43,
2.244,0.10,0.13,0.95,0.29,-0.02,-0.43,
2.245,0.10,0.13,0.95,0.29,-0.02,-0.43,
2.252,0.09,0.13,0.95,0.29,-0.02,-0.43,
2.252,0.09,0.13,0.95,0.23,0.04,-0.41,
2.253,0.09,0.13,0.96,0.23,0.04,-0.41,
2.253,0.09,0.13,0.96,0.23,0.04,-0.41,
2.253,0.09,0.13,0.96,0.20,0.11,-0.40,
2.255,0.09,0.14,0.96,0.20,0.11,-0.40,
2.257,0.09,0.13,0.95,0.20,0.11,-0.40,
2.258,0.09,0.13,0.95,0.19,0.13,-0.34,
2.26,0.09,0.13,0.95,0.19,0.13,-0.34,
2.262,0.09,0.14,0.94,0.19,0.13,-0.34,
2.263,0.09,0.14,0.94,0.20,0.14,-0.37,
2.279,0.09,0.14,0.95,0.20,0.14,-0.37,
2.279,0.09,0.14,0.95,0.20,0.14,-0.37,
2.28,0.09,0.14,0.95,0.20,0.13,-0.44,
2.28,0.09,0.13,0.95,0.20,0.13,-0.44,
2.28,0.08,0.13,0.95,0.20,0.13,-0.44,
2.281,0.08,0.13,0.95,0.21,0.15,-0.44,
2.281,0.08,0.13,0.94,0.21,0.15,-0.44,
2.281,0.07,0.13,0.94,0.21,0.15,-0.44,
2.281,0.07,0.13,0.94,0.16,0.10,-0.45,
2.282,0.07,0.13,0.93,0.16,0.10,-0.45,
2.282,0.07,0.13,0.93,0.16,0.10,-0.45,
2.282,0.07,0.13,0.93,0.09,0.10,-0.51,
2.285,0.06,0.13,0.92,0.09,0.10,-0.51,
2.287,0.06,0.13,0.92,0.09,0.10,-0.51,
2.287,0.06,0.13,0.92,0.05,0.06,-0.59,
2.29,0.05,0.13,0.92,0.05,0.06,-0.59,
2.292,0.05,0.13,0.92,0.05,0.06,-0.59,
2.292,0.05,0.13,0.92,-0.05,0.07,-0.66,
2.294,0.05,0.13,0.92,-0.05,0.07,-0.66,
2.298,0.04,0.12,0.92,-0.05,0.07,-0.66,
2.298,0.04,0.12,0.92,-0.10,0.04,-0.65,
2.301,0.04,0.12,0.92,-0.10,0.04,-0.65,
2.302,0.04,0.12,0.91,-0.10,0.04,-0.65,
2.302,0.04,0.12,0.91,-0.16,-0.00,-0.70,
2.305,0.03,0.12,0.91,-0.16,-0.00,-0.70,
2.307,0.04,0.12,0.90,-0.16,-0.00,-0.70,
2.307,0.04,0.12,0.90,-0.22,-0.07,-0.74,
2.309,0.04,0.12,0.90,-0.22,-0.07,-0.74,
2.312,0.04,0.11,0.89,-0.22,-0.07,-0.74,
2.312,0.04,0.11,0.89,-0.21,-0.11,-0.80,
2.315,0.04,0.11,0.89,-0.21,-0.11,-0.80,
2.317,0.04,0.11,0.89,-0.21,-0.11,-0.80,
2.317,0.04,0.11,0.89,-0.20,-0.15,-0.91,
2.32,0.03,0.11,0.89,-0.20,-0.15,-0.91,
2.324,0.03,0.10,0.90,-0.20,-0.15,-0.91,
2.324,0.03,0.10,0.90,-0.18,-0.21,-0.94,
2.324,0.03,0.11,0.89,-0.18,-0.21,-0.94,
2.327,0.02,0.11,0.89,-0.18,-0.21,-0.94,
2.328,0.02,0.11,0.89,-0.25,-0.24,-0.89,
2.33,0.02,0.11,0.90,-0.25,-0.24,-0.89,
2.332,0.01,0.11,0.90,-0.25,-0.24,-0.89,
2.333,0.01,0.11,0.90,-0.29,-0.23,-0.89,
2.334,0.01,0.11,0.90,-0.29,-0.23,-0.89,
2.337,0.00,0.11,0.90,-0.29,-0.23,-0.89,
2.337,0.00,0.11,0.90,-0.37,-0.24,-0.83,
2.34,-0.00,0.11,0.91,-0.37,-0.24,-0.83,
2.342,-0.00,0.11,0.91,-0.45,-0.20,-0.79,
2.342,-0.00,0.11,0.91,-0.45,-0.20,-0.79,
2.345,-0.01,0.11,0.91,-0.45,-0.20,-0.79,
2.351,-0.01,0.11,0.92,-0.45,-0.20,-0.79,
2.352,-0.01,0.11,0.92,-0.53,-0.22,-0.71,
2.352,-0.02,0.11,0.92,-0.53,-0.22,-0.71,
2.352,-0.01,0.11,0.92,-0.53,-0.22,-0.71,
2.353,-0.01,0.11,0.92,-0.58,-0.19,-0.66,
2.354,-0.02,0.11,0.92,-0.58,-0.19,-0.66,
2.357,-0.02,0.12,0.92,-0.58,-0.19,-0.66,
2.357,-0.02,0.12,0.92,-0.62,-0.20,-0.60,
2.36,-0.02,0.11,0.93,-0.62,-0.20,-0.60,
2.362,-0.03,0.11,0.93,-0.62,-0.20,-0.60,
2.362,-0.03,0.11,0.93,-0.64,-0.19,-0.57,
2.366,-0.03,0.12,0.92,-0.64,-0.19,-0.57,
2.367,-0.04,0.12,0.92,-0.64,-0.19,-0.57,
2.367,-0.04,0.12,0.92,-0.68,-0.21,-0.52,
2.369,-0.04,0.11,0.92,-0.68,-0.21,-0.52,
2.372,-0.04,0.11,0.92,-0.68,-0.21,-0.52,
2.373,-0.04,0.11,0.92,-0.75,-0.16,-0.54,
2.375,-0.04,0.11,0.92,-0.75,-0.16,-0.54,
2.378,-0.04,0.12,0.92,-0.75,-0.16,-0.54,
2.378,-0.04,0.12,0.92,-0.76,-0.17,-0.58,
2.379,-0.04,0.12,0.93,-0.76,-0.17,-0.58,
2.382,-0.05,0.12,0.93,-0.76,-0.17,-0.58,
2.383,-0.05,0.12,0.93,-0.77,-0.16,-0.56,
2.384,-0.05,0.12,0.93,-0.77,-0.16,-0.56,
2.387,-0.05,0.12,0.93,-0.77,-0.16,-0.56,
2.387,-0.05,0.12,0.93,-0.80,-0.15,-0.49,
2.389,-0.05,0.12,0.93,-0.80,-0.15,-0.49,
2.392,-0.04,0.12,0.93,-0.80,-0.15,-0.49,
2.392,-0.04,0.12,0.93,-0.81,-0.13,-0.49,
2.394,-0.05,0.12,0.93,-0.81,-0.13,-0.49,
2.397,-0.05,0.12,0.93,-0.81,-0.13,-0.49,
2.397,-0.05,0.12,0.93,-0.78,-0.12,-0.49,
2.399,-0.05,0.12,0.93,-0.78,-0.12,-0.49,
2.401,-0.04,0.12,0.93,-0.78,-0.12,-0.49,
2.401,-0.04,0.12,0.93,-0.78,-0.12,-0.47,
2.404,-0.04,0.12,0.93,-0.78,-0.12,-0.47,
2.407,-0.05,0.12,0.94,-0.78,-0.12,-0.47,
2.407,-0.05,0.12,0.94,-0.76,-0.14,-0.45,
2.409,-0.05,0.13,0.94,-0.76,-0.14,-0.45,
2.412,-0.05,0.13,0.94,-0.76,-0.14,-0.45,
2.412,-0.05,0.13,0.94,-0.73,-0.11,-0.39,
2.414,-0.05,0.13,0.94,-0.73,-0.11,-0.39,
2.416,-0.05,0.14,0.94,-0.73,-0.11,-0.39,
2.417,-0.05,0.14,0.94,-0.76,-0.04,-0.39,
2.419,-0.06,0.13,0.94,-0.76,-0.04,-0.39,
2.422,-0.06,0.14,0.95,-0.76,-0.04,-0.39,
2.422,-0.06,0.14,0.95,-0.78,0.03,-0.34,
2.424,-0.06,0.14,0.95,-0.78,0.03,-0.34,
2.427,-0.06,0.14,0.95,-0.78,0.03,-0.34,
2.427,-0.06,0.14,0.95,-0.82,0.06,-0.30,
2.429,-0.06,0.14,0.94,-0.82,0.06,-0.30,
2.431,-0.07,0.14,0.94,-0.82,0.06,-0.30,
2.431,-0.07,0.14,0.94,-0.85,0.12,-0.29,
2.433,-0.07,0.14,0.94,-0.85,0.12,-0.29,
2.437,-0.07,0.14,0.94,-0.85,0.12,-0.29,
2.437,-0.07,0.14,0.94,-0.84,0.12,-0.31,
2.439,-0.07,0.14,0.94,-0.84,0.12,-0.31,
2.441,-0.07,0.14,0.94,-0.84,0.12,-0.31,
2.441,-0.07,0.14,0.94,-0.91,0.10,-0.34,
2.443,-0.08,0.14,0.94,-0.91,0.10,-0.34,
2.445,-0.08,0.14,0.93,-0.91,0.10,-0.34,
2.446,-0.08,0.14,0.93,-0.90,0.10,-0.34,
2.452,-0.08,0.14,0.94,-0.90,0.10,-0.34,
2.453,-0.09,0.14,0.94,-0.90,0.10,-0.34,
2.453,-0.09,0.14,0.94,-0.96,0.11,-0.39,
2.453,-0.09,0.14,0.94,-0.96,0.11,-0.39,
2.456,-0.09,0.14,0.94,-0.96,0.11,-0.39,
2.456,-0.09,0.14,0.94,-0.98,0.07,-0.31,
2.458,-0.10,0.14,0.94,-0.98,0.07,-0.31,
2.461,-0.10,0.14,0.94,-0.98,0.07,-0.31,
2.461,-0.10,0.14,0.94,-1.05,0.07,-0.31,
2.463,-0.10,0.13,0.94,-1.05,0.07,-0.31,
2.466,-0.10,0.14,0.94,-1.05,0.07,-0.31,
2.467,-0.10,0.14,0.94,-1.12,0.03,-0.35,
2.468,-0.10,0.13,0.94,-1.12,0.03,-0.35,
2.47,-0.10,0.13,0.94,-1.12,0.03,-0.35,
2.471,-0.10,0.13,0.94,-1.14,-0.01,-0.32,
2.473,-0.10,0.13,0.93,-1.14,-0.01,-0.32,
2.475,-0.10,0.13,0.93,-1.14,-0.01,-0.32,
2.476,-0.10,0.13,0.93,-1.15,-0.04,-0.32,
2.478,-0.10,0.13,0.93,-1.15,-0.04,-0.32,
2.48,-0.09,0.12,0.93,-1.15,-0.04,-0.32,
2.482,-0.09,0.12,0.93,-1.12,-0.07,-0.40,
2.483,-0.10,0.12,0.94,-1.12,-0.07,-0.40,
2.485,-0.09,0.12,0.94,-1.12,-0.07,-0.40,
2.485,-0.09,0.12,0.94,-1.06,-0.12,-0.41,
2.488,-0.09,0.12,0.94,-1.06,-0.12,-0.41,
2.491,-0.09,0.12,0.94,-1.06,-0.12,-0.41,
2.491,-0.09,0.12,0.94,-1.03,-0.17,-0.35,
2.493,-0.09,0.12,0.94,-1.03,-0.17,-0.35,
2.495,-0.09,0.11,0.95,-1.03,-0.17,-0.35,
2.496,-0.09,0.11,0.95,-1.02,-0.18,-0.33,
2.498,-0.09,0.11,0.96,-1.02,-0.18,-0.33,
2.5,-0.09,0.11,0.96,-1.02,-0.18,-0.33,
2.501,-0.09,0.11,0.96,-0.95,-0.21,-0.28,
2.502,-0.09,0.11,0.96,-0.95,-0.21,-0.28,
2.505,-0.09,0.11,0.97,-0.95,-0.21,-0.28,
2.505,-0.09,0.11,0.97,-0.95,-0.24,-0.16,
2.507,-0.09,0.11,0.96,-0.95,-0.24,-0.16,
2.51,-0.08,0.11,0.97,-0.95,-0.24,-0.16,
2.51,-0.08,0.11,0.97,-0.94,-0.23,-0.11,
2.512,-0.08,0.11,0.97,-0.94,-0.23,-0.11,
2.516,-0.08,0.12,0.97,-0.94,-0.23,-0.11,
2.516,-0.08,0.12,0.97,-0.92,-0.24,-0.05,
2.517,-0.08,0.12,0.97,-0.92,-0.24,-0.05,
2.52,-0.09,0.12,0.96,-0.92,-0.24,-0.05,
2.52,-0.09,0.12,0.96,-0.89,-0.19,-0.06,
2.522,-0.09,0.12,0.97,-0.89,-0.19,-0.06,
2.525,-0.09,0.13,0.97,-0.89,-0.19,-0.06,
2.525,-0.09,0.13,0.97,-0.89,-0.16,-0.09,
2.527,-0.09,0.12,0.97,-0.89,-0.16,-0.09,
2.53,-0.09,0.13,0.97,-0.89,-0.16,-0.09,
2.53,-0.09,0.13,0.97,-0.90,-0.10,-0.04,
2.533,-0.09,0.13,0.97,-0.90,-0.10,-0.04,
2.534,-0.09,0.13,0.96,-0.90,-0.10,-0.04,
2.535,-0.09,0.13,0.96,-0.92,-0.09,-0.06,
2.537,-0.09,0.13,0.96,-0.92,-0.09,-0.06,
2.54,-0.09,0.13,0.95,-0.92,-0.09,-0.06,
2.54,-0.09,0.13,0.95,-0.91,-0.04,-0.11,
2.542,-0.08,0.13,0.95,-0.91,-0.04,-0.11,
2.544,-0.08,0.13,0.94,-0.91,-0.04,-0.11,
2.545,-0.08,0.13,0.94,-0.87,-0.00,-0.19,
2.548,-0.08,0.13,0.94,-0.87,-0.00,-0.19,
2.55,-0.08,0.13,0.94,-0.87,-0.00,-0.19,
2.551,-0.08,0.13,0.94,-0.82,-0.01,-0.30,
2.552,-0.08,0.13,0.94,-0.82,-0.01,-0.30,
2.554,-0.08,0.13,0.93,-0.82,-0.01,-0.30,
2.555,-0.08,0.13,0.93,-0.80,0.01,-0.33,
2.557,-0.08,0.13,0.94,-0.80,0.01,-0.33,
2.559,-0.08,0.13,0.93,-0.80,0.01,-0.33,
2.56,-0.08,0.13,0.93,-0.77,-0.00,-0.38,
2.562,-0.08,0.13,0.93,-0.77,-0.00,-0.38,
2.57,-0.08,0.13,0.94,-0.77,-0.00,-0.38,
2.571,-0.08,0.13,0.94,-0.78,-0.03,-0.38,
2.571,-0.08,0.12,0.94,-0.78,-0.03,-0.38,
2.572,-0.09,0.12,0.95,-0.78,-0.03,-0.38,
2.572,-0.09,0.12,0.95,-0.81,-0.04,-0.37,
2.572,-0.09,0.12,0.95,-0.81,-0.04,-0.37,
2.574,-0.09,0.12,0.95,-0.81,-0.04,-0.37,
2.575,-0.09,0.12,0.95,-0.84,-0.09,-0.29,
2.577,-0.09,0.12,0.95,-0.84,-0.09,-0.29,
2.581,-0.09,0.11,0.96,-0.84,-0.09,-0.29,
2.581,-0.09,0.11,0.96,-0.87,-0.10,-0.22,
2.584,-0.09,0.11,0.96,-0.87,-0.10,-0.22,
2.584,-0.09,0.11,0.97,-0.87,-0.10,-0.22,
2.585,-0.09,0.11,0.97,-0.88,-0.15,-0.16,
2.587,-0.09,0.10,0.97,-0.88,-0.15,-0.16,
2.589,-0.09,0.10,0.97,-0.88,-0.15,-0.16,
2.589,-0.09,0.10,0.97,-0.89,-0.20,-0.08,
2.592,-0.09,0.10,0.98,-0.89,-0.20,-0.08,
2.594,-0.08,0.10,0.99,-0.89,-0.20,-0.08,
2.594,-0.08,0.10,0.99,-0.87,-0.30,-0.04,
2.596,-0.09,0.10,0.99,-0.87,-0.30,-0.04,
2.6,-0.08,0.09,0.99,-0.87,-0.30,-0.04,
2.601,-0.08,0.09,0.99,-0.86,-0.30,0.09,
2.602,-0.08,0.10,0.99,-0.86,-0.30,0.09,
2.604,-0.08,0.10,0.99,-0.86,-0.30,0.09,
2.604,-0.08,0.10,0.99,-0.86,-0.34,0.13,
2.606,-0.08,0.10,0.99,-0.86,-0.34,0.13,
2.609,-0.08,0.10,0.99,-0.86,-0.34,0.13,
2.609,-0.08,0.10,0.99,-0.84,-0.31,0.13,
2.611,-0.08,0.10,0.99,-0.84,-0.31,0.13,
2.614,-0.07,0.10,0.99,-0.84,-0.31,0.13,
2.614,-0.07,0.10,0.99,-0.81,-0.32,0.18,
2.616,-0.07,0.10,1.00,-0.81,-0.32,0.18,
2.619,-0.07,0.10,1.00,-0.81,-0.32,0.18,
2.619,-0.07,0.10,1.00,-0.77,-0.31,0.20,
2.621,-0.07,0.10,1.00,-0.77,-0.31,0.20,
2.624,-0.07,0.10,1.01,-0.77,-0.31,0.20,
2.624,-0.07,0.10,1.01,-0.76,-0.31,0.21,
2.626,-0.06,0.10,1.00,-0.76,-0.31,0.21,
2.629,-0.06,0.10,1.01,-0.76,-0.31,0.21,
2.63,-0.06,0.10,1.01,-0.71,-0.30,0.30,
2.633,-0.06,0.10,1.00,-0.71,-0.30,0.30,
2.634,-0.05,0.10,1.00,-0.71,-0.30,0.30,
2.637,-0.05,0.10,1.00,-0.65,-0.28,0.29,
2.637,-0.05,0.10,1.00,-0.65,-0.28,0.29,
2.639,-0.04,0.10,1.00,-0.65,-0.28,0.29,
2.639,-0.04,0.10,1.00,-0.58,-0.28,0.28,
2.641,-0.04,0.10,1.00,-0.58,-0.28,0.28,
2.644,-0.04,0.10,1.00,-0.58,-0.28,0.28,
2.644,-0.04,0.10,1.00,-0.49,-0.27,0.24,
2.646,-0.03,0.11,1.00,-0.49,-0.27,0.24,
2.649,-0.03,0.11,1.00,-0.49,-0.27,0.24,
2.652,-0.03,0.11,1.00,-0.42,-0.24,0.27,
2.652,-0.03,0.11,1.00,-0.42,-0.24,0.27,
2.654,-0.03,0.11,1.00,-0.42,-0.24,0.27,
2.655,-0.03,0.11,1.00,-0.34,-0.18,0.25,
2.657,-0.02,0.11,1.00,-0.34,-0.18,0.25,
2.661,-0.02,0.12,0.99,-0.34,-0.18,0.25,
2.662,-0.02,0.12,0.99,-0.32,-0.18,0.21,
2.662,-0.02,0.12,1.00,-0.32,-0.18,0.21,
2.664,-0.02,0.12,1.00,-0.26,-0.12,0.20,
2.664,-0.02,0.12,1.00,-0.26,-0.12,0.20,
2.669,-0.02,0.12,1.00,-0.26,-0.12,0.20,
2.67,-0.01,0.12,1.00,-0.26,-0.12,0.20,
2.67,-0.01,0.12,1.00,-0.25,-0.08,0.25,
2.671,-0.01,0.12,1.00,-0.25,-0.08,0.25,
2.674,-0.01,0.12,1.00,-0.25,-0.08,0.25,
2.674,-0.01,0.12,1.00,-0.22,-0.03,0.23,
2.677,-0.01,0.12,1.00,-0.22,-0.03,0.23,
2.679,-0.01,0.13,1.00,-0.22,-0.03,0.23,
2.679,-0.01,0.13,1.00,-0.17,-0.02,0.25,
2.681,-0.01,0.13,1.00,-0.17,-0.02,0.25,
2.684,-0.00,0.13,1.00,-0.17,-0.02,0.25,
2.684,-0.00,0.13,1.00,-0.16,-0.01,0.23,
2.686,-0.01,0.12,0.99,-0.16,-0.01,0.23,
2.689,-0.01,0.12,1.00,-0.16,-0.01,0.23,
2.689,-0.01,0.12,1.00,-0.12,0.02,0.22,
2.691,-0.01,0.13,0.99,-0.12,0.02,0.22,
2.694,-0.00,0.13,1.00,-0.12,0.02,0.22,
2.694,-0.00,0.13,1.00,-0.13,-0.00,0.18,
2.696,-0.00,0.12,0.99,-0.13,-0.00,0.18,
2.699,-0.01,0.12,0.99,-0.13,-0.00,0.18,
2.699,-0.01,0.12,0.99,-0.12,0.01,0.17,
2.701,-0.01,0.12,0.99,-0.12,0.01,0.17,
2.703,-0.01,0.13,0.99,-0.12,0.01,0.17,
2.703,-0.01,0.13,0.99,-0.12,-0.02,0.14,
2.706,-0.01,0.12,0.99,-0.12,-0.02,0.14,
2.709,-0.01,0.12,0.99,-0.12,-0.02,0.14,
2.709,-0.01,0.12,0.99,-0.13,-0.00,0.15,
2.711,-0.01,0.12,1.00,-0.13,-0.00,0.15,
2.714,-0.01,0.12,1.00,-0.13,-0.04,0.15,
2.714,-0.00,0.13,1.00,-0.13,-0.04,0.15,
2.715,-0.01,0.12,1.01,-0.13,-0.04,0.15,
2.718,-0.00,0.13,1.01,-0.13,-0.04,0.15,
2.719,-0.00,0.13,1.01,-0.13,0.00,0.19,
2.721,-0.00,0.13,1.01,-0.13,0.00,0.19,
2.724,0.00,0.12,1.02,-0.13,0.00,0.19,
2.724,0.00,0.12,1.02,-0.12,0.00,0.31,
2.726,0.00,0.12,1.01,-0.12,0.00,0.31,
2.728,0.00,0.12,1.02,-0.12,0.00,0.31,
2.729,0.00,0.12,1.02,-0.08,0.02,0.35,
2.731,0.01,0.12,1.02,-0.08,0.02,0.35,
2.734,0.01,0.12,1.02,-0.08,0.02,0.35,
2.734,0.01,0.12,1.02,-0.06,-0.01,0.35,
2.735,0.01,0.13,1.02,-0.06,-0.01,0.35,
2.738,0.01,0.13,1.02,-0.06,-0.01,0.35,
2.739,0.01,0.13,1.02,-0.04,0.00,0.37,
2.741,0.00,0.13,1.02,-0.04,0.00,0.37,
2.744,0.00,0.13,1.02,-0.04,0.00,0.37,
2.744,0.00,0.13,1.02,-0.03,0.03,0.39,
2.746,0.00,0.13,1.02,-0.03,0.03,0.39,
2.748,0.01,0.13,1.01,-0.03,0.03,0.39,
2.749,0.01,0.13,1.01,-0.07,0.05,0.40,
2.751,0.00,0.12,1.01,-0.07,0.05,0.40,
2.753,0.00,0.12,1.01,-0.07,0.05,0.40,
2.753,0.00,0.12,1.01,-0.06,0.02,0.35,
2.756,0.00,0.12,1.01,-0.06,0.02,0.35,
2.758,0.00,0.12,1.01,-0.06,0.02,0.35,
2.758,0.00,0.12,1.01,-0.06,0.01,0.33,
2.761,-0.00,0.12,1.01,-0.06,0.01,0.33,
2.763,-0.00,0.12,1.00,-0.06,0.01,0.33,
2.763,-0.00,0.12,1.00,-0.08,-0.01,0.28,
2.767,0.00,0.12,1.00,-0.08,-0.01,0.28,
2.768,0.00,0.12,1.00,-0.08,-0.01,0.28,
2.768,0.00,0.12,1.00,-0.11,-0.00,0.25,
2.77,-0.00,0.12,1.00,-0.11,-0.00,0.25,
2.772,0.00,0.12,1.00,-0.11,-0.00,0.25,
2.772,0.00,0.12,1.00,-0.08,-0.03,0.21,
2.776,-0.00,0.12,0.99,-0.08,-0.03,0.21,
2.778,0.00,0.12,0.99,-0.08,-0.03,0.21,
2.779,0.00,0.12,0.99,-0.10,-0.01,0.17,
2.782,-0.00,0.12,0.99,-0.10,-0.01,0.17,
2.788,0.00,0.12,0.99,-0.10,-0.01,0.17,
2.788,0.00,0.12,0.99,-0.11,-0.02,0.12,
2.788,0.00,0.12,0.99,-0.11,-0.02,0.12,
2.789,0.00,0.12,0.99,-0.11,-0.02,0.12,
2.789,0.00,0.12,0.99,-0.09,-0.02,0.11,
2.791,0.00,0.12,0.99,-0.09,-0.02,0.11,
2.793,0.01,0.12,0.99,-0.09,-0.02,0.11,
2.793,0.01,0.12,0.99,-0.08,-0.05,0.11,
2.795,0.01,0.12,0.99,-0.08,-0.05,0.11,
2.798,0.01,0.12,0.99,-0.08,-0.05,0.11,
2.799,0.01,0.12,0.99,-0.04,-0.04,0.09,
2.801,0.01,0.12,0.99,-0.04,-0.04,0.09,
2.803,0.02,0.12,0.99,-0.04,-0.04,0.09,
2.804,0.02,0.12,0.99,-0.00,-0.04,0.10,
2.805,0.02,0.11,0.99,-0.00,-0.04,0.10,
2.807,0.02,0.11,0.99,-0.00,-0.04,0.10,
2.807,0.02,0.11,0.99,0.03,-0.08,0.09,
2.809,0.02,0.11,0.99,0.03,-0.08,0.09,
2.812,0.02,0.11,0.99,0.06,-0.13,0.06,
2.812,0.02,0.11,0.99,0.06,-0.13,0.06,
2.814,0.02,0.12,0.99,0.06,-0.13,0.06,
2.818,0.02,0.12,1.00,0.06,-0.13,0.06,
2.819,0.02,0.12,1.00,0.07,-0.13,0.09,
2.819,0.02,0.11,1.00,0.07,-0.13,0.09,
2.822,0.02,0.11,1.00,0.07,-0.13,0.09,
2.822,0.02,0.11,1.00,0.06,-0.10,0.12,
2.824,0.02,0.11,0.99,0.06,-0.10,0.12,
2.827,0.02,0.11,1.00,0.06,-0.10,0.12,
2.827,0.02,0.11,1.00,0.04,-0.12,0.14,
2.829,0.02,0.11,1.00,0.04,-0.12,0.14,
2.832,0.02,0.11,1.00,0.04,-0.12,0.14,
2.832,0.02,0.11,1.00,0.06,-0.14,0.16,
2.835,0.02,0.11,1.00,0.06,-0.14,0.16,
2.837,0.01,0.11,1.00,0.06,-0.14,0.16,
2.837,0.01,0.11,1.00,0.04,-0.14,0.20,
2.839,0.02,0.11,1.01,0.04,-0.14,0.20,
2.842,0.02,0.10,1.01,0.04,-0.14,0.20,
2.842,0.02,0.10,1.01,0.01,-0.15,0.20,
2.844,0.02,0.10,1.01,0.01,-0.15,0.20,
2.846,0.02,0.11,1.01,0.01,-0.15,0.20,
2.847,0.02,0.11,1.01,0.03,-0.17,0.22,
2.85,0.02,0.11,1.00,0.03,-0.17,0.22,
2.852,0.02,0.11,1.01,0.03,-0.17,0.22,
2.852,0.02,0.11,1.01,0.04,-0.19,0.24,
2.854,0.02,0.11,1.01,0.04,-0.19,0.24,
2.856,0.02,0.11,1.01,0.04,-0.19,0.24,
2.857,0.02,0.11,1.01,0.04,-0.12,0.24,
2.859,0.03,0.12,1.01,0.04,-0.12,0.24,
2.862,0.02,0.12,1.01,0.04,-0.12,0.24,
2.862,0.02,0.12,1.01,0.06,-0.09,0.26,
2.864,0.03,0.12,1.01,0.06,-0.09,0.26,
2.867,0.03,0.12,1.01,0.06,-0.09,0.26,
2.868,0.03,0.12,1.01,0.08,-0.05,0.25,
2.87,0.03,0.12,1.01,0.08,-0.05,0.25,
2.871,0.03,0.12,1.01,0.08,-0.05,0.25,
2.872,0.03,0.12,1.01,0.11,-0.07,0.27,
2.874,0.03,0.12,1.01,0.11,-0.07,0.27,
2.876,0.03,0.12,1.01,0.11,-0.07,0.27,
2.876,0.03,0.12,1.01,0.10,-0.03,0.27,
2.879,0.04,0.12,1.01,0.10,-0.03,0.27,
2.881,0.04,0.12,1.01,0.10,-0.03,0.27,
2.881,0.04,0.12,1.01,0.15,-0.03,0.23,
2.884,0.04,0.12,1.01,0.15,-0.03,0.23,
2.886,0.04,0.13,1.00,0.15,-0.03,0.23,
2.887,0.04,0.13,1.00,0.22,-0.03,0.22,
2.889,0.04,0.13,1.00,0.22,-0.03,0.22,
2.891,0.04,0.13,1.00,0.22,-0.03,0.22,
2.892,0.04,0.13,1.00,0.21,0.01,0.22,
2.894,0.04,0.12,1.00,0.21,0.01,0.22,
2.896,0.03,0.12,1.00,0.21,0.01,0.22,
2.896,0.03,0.12,1.00,0.22,0.02,0.17,
2.898,0.04,0.13,1.00,0.22,0.02,0.17,
2.905,0.04,0.12,1.00,0.22,0.02,0.17,
2.905,0.04,0.12,1.00,0.19,-0.01,0.17,
2.905,0.04,0.12,1.00,0.19,-0.01,0.17,
2.906,0.04,0.12,1.00,0.19,-0.01,0.17,
2.906,0.04,0.12,1.00,0.20,0.01,0.16,
2.909,0.04,0.12,1.00,0.20,0.01,0.16,
2.912,0.04,0.12,1.00,0.20,0.01,0.16,
2.912,0.04,0.12,1.00,0.25,-0.01,0.17,
2.913,0.04,0.12,1.00,0.25,-0.01,0.17,
2.917,0.04,0.12,1.00,0.25,-0.01,0.17,
2.917,0.04,0.12,1.00,0.22,-0.02,0.18,
2.918,0.04,0.12,1.00,0.22,-0.02,0.18,
2.921,0.04,0.12,1.00,0.22,-0.02,0.18,
2.921,0.04,0.12,1.00,0.21,-0.04,0.12,
2.923,0.04,0.12,1.00,0.21,-0.04,0.12,
2.926,0.04,0.12,1.00,0.21,-0.04,0.12,
2.926,0.04,0.12,1.00,0.23,-0.06,0.15,
2.93,0.04,0.11,1.00,0.23,-0.06,0.15,
2.933,0.04,0.11,1.00,0.19,-0.08,0.14,
2.933,0.04,0.11,1.00,0.19,-0.08,0.14,
2.935,0.04,0.12,1.00,0.19,-0.08,0.14,
2.936,0.04,0.12,1.00,0.19,-0.08,0.14,
2.936,0.04,0.12,1.00,0.17,-0.15,0.13,
2.938,0.03,0.11,1.00,0.17,-0.15,0.13,
2.941,0.03,0.11,1.00,0.17,-0.15,0.13,
2.941,0.03,0.11,1.00,0.14,-0.11,0.17,
2.943,0.03,0.11,1.00,0.14,-0.11,0.17,
2.946,0.04,0.11,1.00,0.14,-0.11,0.17,
2.946,0.04,0.11,1.00,0.10,-0.13,0.13,
2.948,0.04,0.11,1.00,0.10,-0.13,0.13,
2.952,0.04,0.11,1.01,0.10,-0.13,0.13,
2.953,0.04,0.11,1.01,0.11,-0.13,0.18,
2.953,0.05,0.12,1.02,0.11,-0.13,0.18,
2.956,0.06,0.12,1.01,0.11,-0.13,0.18,
2.956,0.06,0.12,1.01,0.14,-0.12,0.19,
2.958,0.06,0.13,1.02,0.14,-0.12,0.19,
2.961,0.07,0.14,1.02,0.14,-0.12,0.19,
2.961,0.07,0.14,1.02,0.26,-0.05,0.30,
2.963,0.09,0.15,1.02,0.26,-0.05,0.30,
2.965,0.09,0.16,1.03,0.26,-0.05,0.30,
2.966,0.09,0.16,1.03,0.39,0.05,0.34,
2.969,0.10,0.16,1.03,0.39,0.05,0.34,
2.971,0.11,0.17,1.02,0.39,0.05,0.34,
2.972,0.11,0.17,1.02,0.57,0.23,0.38,
2.974,0.11,0.18,1.02,0.57,0.23,0.38,
2.976,0.11,0.18,1.02,0.57,0.23,0.38,
2.976,0.11,0.18,1.02,0.74,0.40,0.38,
2.979,0.10,0.18,1.01,0.74,0.40,0.38,
2.981,0.10,0.18,1.01,0.74,0.40,0.38,
2.981,0.10,0.18,1.01,0.79,0.50,0.31,
2.983,0.10,0.17,1.01,0.79,0.50,0.31,
2.989,0.09,0.17,1.01,0.79,0.50,0.31,
2.989,0.09,0.17,1.01,0.71,0.50,0.23,
2.99,0.08,0.17,1.00,0.71,0.50,0.23,
2.99,0.08,0.16,1.00,0.71,0.50,0.23,
2.99,0.08,0.16,1.00,0.61,0.43,0.22,
2.993,0.08,0.15,1.00,0.61,0.43,0.22,
2.995,0.07,0.15,1.00,0.61,0.43,0.22,
2.996,0.07,0.15,1.00,0.50,0.36,0.13,
2.998,0.07,0.15,1.00,0.50,0.36,0.13,
3.001,0.06,0.13,0.98,0.50,0.36,0.13,
3.001,0.06,0.13,0.98,0.41,0.23,0.11,
3.003,0.06,0.13,0.95,0.41,0.23,0.11,
3.005,0.06,0.13,0.94,0.41,0.23,0.11,
3.005,0.06,0.13,0.94,0.31,0.10,0.03,
3.007,0.06,0.13,0.95,0.31,0.10,0.03,
3.01,0.06,0.13,0.96,0.31,0.10,0.03,
3.01,0.06,0.13,0.96,0.29,0.00,-0.38,
3.013,0.05,0.14,0.99,0.29,0.00,-0.38,
3.015,0.04,0.14,1.01,0.29,0.00,-0.38,
3.015,0.04,0.14,1.01,0.30,-0.00,-0.33,
3.017,0.03,0.14,1.02,0.30,-0.00,-0.33,
3.02,0.03,0.14,1.02,0.30,-0.00,-0.33,
3.021,0.03,0.14,1.02,0.13,0.09,0.09,
3.022,0.04,0.14,1.03,0.13,0.09,0.09,
3.025,0.03,0.14,1.03,0.13,0.09,0.09,
3.025,0.03,0.14,1.03,0.01,0.12,0.33,
3.027,0.03,0.13,1.05,0.01,0.12,0.33,
3.031,0.03,0.13,1.04,0.01,0.12,0.33,
3.031,0.03,0.13,1.04,0.03,0.13,0.43,
3.033,0.04,0.13,1.04,0.03,0.13,0.43,
3.035,0.04,0.12,1.03,0.03,0.13,0.43,
3.036,0.04,0.12,1.03,-0.01,0.03,0.54,
3.038,0.04,0.12,1.03,-0.01,0.03,0.54,
3.04,0.03,0.12,1.02,-0.01,0.03,0.54,
3.04,0.03,0.12,1.02,0.07,-0.03,0.45,
3.042,0.03,0.12,1.01,0.07,-0.03,0.45,
3.045,0.03,0.12,1.01,0.07,-0.03,0.45,
3.046,0.03,0.12,1.01,0.04,-0.10,0.32,
3.048,0.03,0.11,1.01,0.04,-0.10,0.32,
3.05,0.02,0.11,1.01,0.04,-0.10,0.32,
3.052,0.02,0.11,1.01,-0.01,-0.11,0.19,
3.052,0.02,0.11,1.00,-0.01,-0.11,0.19,
3.055,0.02,0.11,1.00,-0.01,-0.11,0.19,
3.055,0.02,0.11,1.00,-0.07,-0.14,0.17,
3.058,0.01,0.11,1.00,-0.07,-0.14,0.17,
3.06,0.01,0.11,1.00,-0.07,-0.14,0.17,
3.06,0.01,0.11,1.00,-0.11,-0.16,0.09,
3.062,0.02,0.11,0.99,-0.11,-0.16,0.09,
3.065,0.02,0.11,0.98,-0.11,-0.16,0.09,
3.065,0.02,0.11,0.98,-0.19,-0.21,0.10,
3.068,0.02,0.10,0.99,-0.19,-0.21,0.10,
3.07,0.01,0.10,0.98,-0.19,-0.21,0.10,
3.07,0.01,0.10,0.98,-0.13,-0.21,-0.03,
3.073,0.02,0.10,0.99,-0.13,-0.21,-0.03,
3.075,0.02,0.10,0.98,-0.13,-0.21,-0.03,
3.075,0.02,0.10,0.98,-0.14,-0.26,-0.03,
3.077,0.02,0.10,0.98,-0.14,-0.26,-0.03,
3.08,0.02,0.10,0.98,-0.14,-0.26,-0.03,
3.08,0.02,0.10,0.98,-0.13,-0.26,-0.05,
3.082,0.02,0.10,0.98,-0.13,-0.26,-0.05,
3.087,0.02,0.10,0.98,-0.13,-0.26,-0.05,
3.087,0.02,0.10,0.98,-0.07,-0.27,-0.11,
3.088,0.03,0.10,0.98,-0.07,-0.27,-0.11,
