
time,gFx,gFy,gFz,ax,ay,az,
0.003,0.02,0.09,1.03,-0.49,-0.22,0.27,
0.004,0.04,0.09,1.03,-0.49,-0.22,0.27,
0.004,0.04,0.09,1.03,-0.34,-0.41,0.27,
0.004,0.05,0.10,1.03,-0.34,-0.41,0.27,
0.005,0.05,0.10,1.05,-0.34,-0.41,0.27,
0.005,0.05,0.10,1.05,-0.17,-0.52,0.36,
0.005,0.06,0.10,1.04,-0.17,-0.52,0.36,
0.013,0.07,0.10,1.04,-0.17,-0.52,0.36,
0.013,0.07,0.10,1.04,-0.01,-0.53,0.45,
0.013,0.07,0.10,1.03,-0.01,-0.53,0.45,
0.013,0.08,0.11,1.03,-0.01,-0.53,0.45,
0.013,0.08,0.11,1.03,0.12,-0.54,0.46,
0.014,0.09,0.11,1.02,0.12,-0.54,0.46,
0.017,0.10,0.11,1.02,0.12,-0.54,0.46,
0.017,0.10,0.11,1.02,0.24,-0.49,0.36,
0.024,0.12,0.12,1.00,0.24,-0.49,0.36,
0.024,0.13,0.12,1.00,0.24,-0.49,0.36,
0.025,0.13,0.12,1.00,0.43,-0.45,0.24,
0.025,0.14,0.13,0.99,0.43,-0.45,0.24,
0.027,0.14,0.13,0.99,0.68,-0.39,0.04,
0.027,0.15,0.13,0.98,0.68,-0.39,0.04,
0.028,0.15,0.14,0.98,0.68,-0.39,0.04,
0.032,0.15,0.16,0.97,0.68,-0.39,0.04,
0.032,0.15,0.16,0.97,0.89,-0.31,-0.07,
0.034,0.15,0.18,0.97,0.89,-0.31,-0.07,
0.044,0.14,0.19,0.97,0.89,-0.31,-0.07,
0.045,0.14,0.19,0.97,0.97,-0.09,-0.17,
0.045,0.13,0.20,0.96,0.97,-0.09,-0.17,
0.045,0.12,0.21,0.96,0.97,-0.09,-0.17,
0.046,0.12,0.21,0.96,0.94,0.20,-0.22,
0.046,0.11,0.22,0.95,0.94,0.20,-0.22,
0.046,0.11,0.22,0.95,0.94,0.20,-0.22,
0.046,0.11,0.22,0.95,0.73,0.36,-0.32,
0.049,0.10,0.23,0.96,0.73,0.36,-0.32,
0.052,0.10,0.23,0.97,0.73,0.36,-0.32,
0.052,0.10,0.23,0.97,0.59,0.53,-0.38,
0.06,0.09,0.23,0.98,0.59,0.53,-0.38,
0.061,0.08,0.23,0.99,0.59,0.53,-0.38,
0.061,0.08,0.23,0.99,0.50,0.61,-0.26,
0.061,0.07,0.22,1.01,0.50,0.61,-0.26,
0.062,0.06,0.20,1.01,0.50,0.61,-0.26,
0.062,0.06,0.20,1.01,0.38,0.62,-0.06,
0.064,0.04,0.20,1.02,0.38,0.62,-0.06,
0.066,0.03,0.19,1.01,0.38,0.62,-0.06,
0.067,0.03,0.19,1.01,0.18,0.45,0.18,
0.068,0.02,0.17,1.02,0.18,0.45,0.18,
0.077,-0.00,0.15,1.02,0.18,0.45,0.18,
0.078,-0.00,0.15,1.02,-0.06,0.25,0.21,
0.078,-0.01,0.14,1.02,-0.06,0.25,0.21,
0.078,-0.03,0.13,1.02,-0.06,0.25,0.21,
0.079,-0.03,0.13,1.02,-0.28,-0.04,0.26,
0.079,-0.03,0.12,1.01,-0.28,-0.04,0.26,
0.082,-0.04,0.11,1.00,-0.28,-0.04,0.26,
0.082,-0.04,0.11,1.00,-0.54,-0.26,0.24,
0.083,-0.05,0.10,1.01,-0.54,-0.26,0.24,
0.094,-0.04,0.09,1.00,-0.54,-0.26,0.24,
0.095,-0.04,0.09,1.00,-0.69,-0.48,0.12,
0.095,-0.04,0.09,1.00,-0.69,-0.48,0.12,
0.095,-0.04,0.09,0.99,-0.69,-0.48,0.12,
0.095,-0.04,0.09,0.99,-0.78,-0.66,0.09,
0.096,-0.04,0.08,0.99,-0.78,-0.66,0.09,
0.096,-0.03,0.08,0.99,-0.78,-0.66,0.09,
0.096,-0.03,0.08,0.99,-0.73,-0.74,0.01,
0.099,-0.02,0.07,1.00,-0.73,-0.74,0.01,
0.101,0.01,0.08,1.04,-0.73,-0.74,0.01,
0.101,0.01,0.08,1.04,-0.63,-0.81,-0.06,
0.112,0.03,0.08,1.04,-0.63,-0.81,-0.06,
0.113,0.03,0.08,1.03,-0.63,-0.81,-0.06,
0.113,0.03,0.08,1.03,-0.35,-0.83,0.25,
0.113,0.03,0.08,1.03,-0.35,-0.83,0.25,
0.113,0.03,0.08,1.02,-0.35,-0.83,0.25,
0.113,0.03,0.08,1.02,-0.08,-0.77,0.40,
0.114,0.04,0.09,1.00,-0.08,-0.77,0.40,
0.116,0.04,0.09,1.00,-0.08,-0.77,0.40,
0.116,0.04,0.09,1.00,-0.04,-0.78,0.27,
0.118,0.04,0.10,0.99,-0.04,-0.78,0.27,
0.126,0.05,0.11,0.98,-0.04,-0.78,0.27,
0.127,0.05,0.11,0.98,0.05,-0.71,0.06,
0.127,0.06,0.11,0.98,0.05,-0.71,0.06,
0.128,0.05,0.12,0.98,0.05,-0.71,0.06,
0.128,0.05,0.12,0.98,0.11,-0.60,-0.07,
0.128,0.07,0.13,0.97,0.11,-0.60,-0.07,
0.131,0.14,0.13,0.93,0.11,-0.60,-0.07,
0.131,0.14,0.13,0.93,0.21,-0.47,-0.13,
0.133,0.17,0.14,0.90,0.21,-0.47,-0.13,
0.145,0.17,0.14,0.90,0.70,-0.38,-0.39,
0.146,0.15,0.15,0.90,0.70,-0.38,-0.39,
0.146,0.13,0.15,0.90,0.70,-0.38,-0.39,
0.146,0.12,0.16,0.90,0.70,-0.38,-0.39,
0.147,0.12,0.16,0.90,1.23,-0.26,-0.91,
0.147,0.10,0.17,0.88,1.23,-0.26,-0.91,
0.147,0.10,0.17,0.88,1.23,-0.26,-0.91,
0.147,0.10,0.17,0.88,0.85,-0.16,-0.92,
0.147,0.09,0.17,0.87,0.85,-0.16,-0.92,
0.151,0.08,0.17,0.87,0.85,-0.16,-0.92,
0.151,0.08,0.17,0.87,0.64,-0.08,-1.04,
0.152,0.07,0.18,0.85,0.64,-0.08,-1.04,
0.159,0.07,0.17,0.84,0.64,-0.08,-1.04,
0.16,0.07,0.17,0.84,0.46,-0.06,-1.15,
0.16,0.06,0.17,0.84,0.46,-0.06,-1.15,
0.162,0.06,0.17,0.83,0.46,-0.06,-1.15,
0.162,0.06,0.17,0.83,0.35,-0.05,-1.34,
0.162,0.05,0.18,0.83,0.35,-0.05,-1.34,
0.166,0.05,0.18,0.82,0.35,-0.05,-1.34,
0.166,0.05,0.18,0.82,0.25,-0.08,-1.47,
0.167,0.05,0.18,0.81,0.25,-0.08,-1.47,
0.174,0.05,0.17,0.82,0.25,-0.08,-1.47,
0.174,0.05,0.17,0.82,0.21,-0.07,-1.59,
0.175,0.04,0.17,0.80,0.21,-0.07,-1.59,
0.175,0.05,0.17,0.80,0.21,-0.07,-1.59,
0.175,0.05,0.17,0.80,0.17,-0.10,-1.63,
0.177,0.05,0.17,0.80,0.17,-0.10,-1.63,
0.18,0.04,0.17,0.81,0.17,-0.10,-1.63,
0.18,0.04,0.17,0.81,0.17,-0.17,-1.74,
0.182,0.04,0.18,0.81,0.17,-0.17,-1.74,
0.185,0.04,0.18,0.81,0.17,-0.17,-1.74,
0.185,0.04,0.18,0.81,0.17,-0.15,-1.72,
0.19,0.04,0.18,0.82,0.17,-0.15,-1.72,
0.191,0.04,0.19,0.82,0.17,-0.15,-1.72,
0.191,0.04,0.19,0.82,0.13,-0.12,-1.64,
0.192,0.04,0.19,0.83,0.13,-0.12,-1.64,
0.194,0.04,0.19,0.83,0.13,-0.12,-1.64,
0.195,0.04,0.19,0.83,0.18,-0.05,-1.53,
0.197,0.04,0.19,0.83,0.18,-0.05,-1.53,
0.199,0.04,0.18,0.83,0.18,-0.05,-1.53,
0.199,0.04,0.18,0.83,0.16,-0.02,-1.46,
0.208,0.04,0.18,0.83,0.16,-0.02,-1.46,
0.209,0.05,0.18,0.83,0.16,-0.02,-1.46,
0.209,0.05,0.18,0.83,0.21,-0.06,-1.42,
0.209,0.05,0.17,0.83,0.21,-0.06,-1.42,
0.209,0.06,0.17,0.82,0.21,-0.06,-1.42,
0.21,0.06,0.17,0.82,0.23,-0.09,-1.40,
0.212,0.06,0.17,0.83,0.23,-0.09,-1.40,
0.214,0.06,0.17,0.82,0.23,-0.09,-1.40,
0.215,0.06,0.17,0.82,0.32,-0.17,-1.46,
0.216,0.07,0.16,0.82,0.32,-0.17,-1.46,
0.229,0.07,0.16,0.82,0.32,-0.17,-1.46,
0.23,0.07,0.16,0.82,0.40,-0.19,-1.42,
0.23,0.07,0.17,0.82,0.40,-0.19,-1.42,
0.233,0.08,0.17,0.81,0.40,-0.19,-1.42,
0.233,0.08,0.17,0.81,0.48,-0.25,-1.46,
0.233,0.08,0.17,0.80,0.48,-0.25,-1.46,
0.234,0.07,0.17,0.80,0.48,-0.25,-1.46,
0.234,0.07,0.17,0.80,0.55,-0.19,-1.52,
0.234,0.08,0.18,0.80,0.55,-0.19,-1.52,
0.234,0.07,0.17,0.80,0.55,-0.19,-1.52,
0.235,0.07,0.17,0.80,0.56,-0.14,-1.63,
0.243,0.07,0.17,0.79,0.56,-0.14,-1.63,
0.243,0.06,0.17,0.78,0.56,-0.14,-1.63,
0.243,0.06,0.17,0.78,0.54,-0.13,-1.66,
0.243,0.06,0.17,0.78,0.54,-0.13,-1.66,
0.245,0.06,0.17,0.77,0.54,-0.13,-1.66,
0.245,0.06,0.17,0.77,0.47,-0.13,-1.75,
0.247,0.05,0.17,0.77,0.47,-0.13,-1.75,
0.25,0.04,0.16,0.77,0.47,-0.13,-1.75,
0.25,0.04,0.16,0.77,0.41,-0.15,-1.83,
0.252,0.04,0.16,0.77,0.41,-0.15,-1.83,
0.261,0.03,0.15,0.77,0.41,-0.15,-1.83,
0.261,0.03,0.15,0.77,0.31,-0.15,-1.90,
0.262,0.03,0.15,0.77,0.31,-0.15,-1.90,
0.262,0.03,0.15,0.77,0.25,-0.25,-1.93,
0.262,0.02,0.15,0.76,0.25,-0.25,-1.93,
0.262,0.02,0.15,0.77,0.25,-0.25,-1.93,
0.264,0.01,0.15,0.77,0.25,-0.25,-1.93,
0.265,0.01,0.15,0.77,0.14,-0.27,-1.94,
0.267,0.00,0.14,0.78,0.14,-0.27,-1.94,
0.269,-0.00,0.14,0.77,0.14,-0.27,-1.94,
0.27,-0.00,0.14,0.77,0.04,-0.31,-1.87,
0.278,-0.01,0.14,0.78,0.04,-0.31,-1.87,
0.278,-0.02,0.13,0.77,0.04,-0.31,-1.87,
0.278,-0.02,0.13,0.77,-0.09,-0.33,-1.82,
0.279,-0.02,0.13,0.79,-0.09,-0.33,-1.82,
0.279,-0.03,0.13,0.79,-0.09,-0.33,-1.82,
0.279,-0.03,0.13,0.79,-0.23,-0.38,-1.82,
0.281,-0.04,0.13,0.79,-0.23,-0.38,-1.82,
0.284,-0.05,0.12,0.80,-0.23,-0.38,-1.82,
0.284,-0.05,0.12,0.80,-0.34,-0.42,-1.65,
0.286,-0.04,0.12,0.80,-0.34,-0.42,-1.65,
0.291,-0.05,0.12,0.80,-0.34,-0.42,-1.65,
0.292,-0.05,0.12,0.80,-0.50,-0.47,-1.57,
0.292,-0.06,0.11,0.81,-0.50,-0.47,-1.57,
0.294,-0.06,0.11,0.81,-0.53,-0.53,-1.53,
0.294,-0.05,0.12,0.82,-0.53,-0.53,-1.53,
0.296,-0.05,0.12,0.82,-0.53,-0.53,-1.53,
0.299,-0.05,0.12,0.82,-0.61,-0.55,-1.43,
0.299,-0.04,0.12,0.81,-0.61,-0.55,-1.43,
0.301,-0.04,0.12,0.81,-0.61,-0.55,-1.43,
0.308,-0.03,0.12,0.81,-0.61,-0.55,-1.43,
0.308,-0.03,0.12,0.81,-0.53,-0.50,-1.39,
0.309,-0.03,0.12,0.81,-0.53,-0.50,-1.39,
0.309,-0.02,0.12,0.81,-0.53,-0.50,-1.39,
0.309,-0.02,0.12,0.81,-0.43,-0.49,-1.41,
0.311,-0.01,0.12,0.80,-0.43,-0.49,-1.41,
0.314,-0.01,0.13,0.79,-0.43,-0.49,-1.41,
0.314,-0.01,0.13,0.79,-0.34,-0.47,-1.41,
0.316,0.00,0.13,0.79,-0.34,-0.47,-1.41,
0.319,0.01,0.13,0.79,-0.34,-0.47,-1.41,
0.319,0.01,0.13,0.79,-0.19,-0.42,-1.52,
0.328,0.02,0.13,0.78,-0.19,-0.42,-1.52,
0.329,0.02,0.13,0.78,-0.19,-0.42,-1.52,
0.331,0.02,0.13,0.78,-0.05,-0.39,-1.59,
0.332,0.03,0.13,0.77,-0.05,-0.39,-1.59,
0.332,0.04,0.14,0.77,-0.05,-0.39,-1.59,
0.332,0.04,0.14,0.77,0.08,-0.35,-1.68,
0.332,0.05,0.14,0.76,0.08,-0.35,-1.68,
0.334,0.06,0.14,0.76,0.08,-0.35,-1.68,
0.334,0.06,0.14,0.76,0.23,-0.30,-1.77,
0.336,0.07,0.15,0.76,0.23,-0.30,-1.77,
0.343,0.07,0.15,0.76,0.23,-0.30,-1.77,
0.344,0.07,0.15,0.76,0.41,-0.25,-1.84,
0.344,0.08,0.16,0.76,0.41,-0.25,-1.84,
0.345,0.09,0.16,0.75,0.41,-0.25,-1.84,
0.345,0.09,0.16,0.75,0.56,-0.19,-1.87,
0.346,0.09,0.17,0.75,0.56,-0.19,-1.87,
0.349,0.09,0.17,0.76,0.56,-0.19,-1.87,
0.349,0.09,0.17,0.76,0.67,-0.08,-1.90,
0.35,0.09,0.18,0.77,0.67,-0.08,-1.90,
0.361,0.09,0.18,0.77,0.67,-0.08,-1.90,
0.362,0.09,0.18,0.77,0.70,0.04,-1.84,
0.362,0.08,0.18,0.79,0.70,0.04,-1.84,
0.363,0.08,0.18,0.80,0.70,0.04,-1.84,
0.363,0.08,0.18,0.80,0.68,0.12,-1.70,
0.363,0.08,0.18,0.81,0.68,0.12,-1.70,
0.363,0.08,0.18,0.82,0.68,0.12,-1.70,
0.363,0.08,0.18,0.82,0.63,0.14,-1.47,
0.365,0.08,0.18,0.84,0.63,0.14,-1.47,
0.368,0.07,0.17,0.85,0.63,0.14,-1.47,
0.368,0.07,0.17,0.85,0.58,0.09,-1.27,
0.375,0.07,0.17,0.86,0.58,0.09,-1.27,
0.376,0.07,0.16,0.87,0.58,0.09,-1.27,
0.376,0.07,0.16,0.87,0.52,0.08,-0.97,
0.377,0.07,0.15,0.89,0.52,0.08,-0.97,
0.377,0.07,0.15,0.90,0.52,0.08,-0.97,
0.378,0.07,0.15,0.90,0.47,0.00,-0.76,
0.38,0.07,0.14,0.91,0.47,0.00,-0.76,
0.383,0.07,0.14,0.92,0.47,0.00,-0.76,
0.384,0.07,0.14,0.92,0.45,-0.15,-0.47,
0.385,0.07,0.13,0.92,0.45,-0.15,-0.47,
0.391,0.07,0.13,0.92,0.45,-0.15,-0.47,
0.392,0.07,0.13,0.92,0.44,-0.22,-0.32,
0.392,0.07,0.13,0.92,0.44,-0.22,-0.32,
0.392,0.07,0.12,0.93,0.44,-0.22,-0.32,
0.393,0.07,0.12,0.93,0.42,-0.30,-0.22,
0.395,0.07,0.12,0.92,0.42,-0.30,-0.22,
0.397,0.08,0.11,0.92,0.42,-0.30,-0.22,
0.398,0.08,0.11,0.92,0.39,-0.37,-0.18,
0.4,0.09,0.11,0.91,0.39,-0.37,-0.18,
0.402,0.09,0.11,0.91,0.45,-0.44,-0.22,
0.402,0.09,0.11,0.91,0.45,-0.44,-0.22,
0.409,0.10,0.11,0.90,0.45,-0.44,-0.22,
0.41,0.10,0.10,0.89,0.45,-0.44,-0.22,
0.41,0.10,0.10,0.89,0.57,-0.48,-0.35,
0.41,0.11,0.11,0.88,0.57,-0.48,-0.35,
0.412,0.12,0.11,0.87,0.57,-0.48,-0.35,
0.412,0.12,0.11,0.87,0.66,-0.49,-0.46,
0.415,0.12,0.11,0.88,0.66,-0.49,-0.46,
0.417,0.12,0.11,0.88,0.66,-0.49,-0.46,
0.417,0.12,0.11,0.88,0.80,-0.49,-0.66,
0.419,0.12,0.11,0.89,0.80,-0.49,-0.66,
0.425,0.12,0.12,0.89,0.80,-0.49,-0.66,
0.426,0.12,0.12,0.89,0.84,-0.46,-0.63,
0.427,0.12,0.12,0.90,0.84,-0.46,-0.63,
0.427,0.12,0.13,0.91,0.84,-0.46,-0.63,
0.427,0.12,0.13,0.91,0.87,-0.38,-0.52,
0.435,0.12,0.14,0.92,0.87,-0.38,-0.52,
0.435,0.13,0.15,0.92,0.87,-0.38,-0.52,
0.435,0.13,0.15,0.92,0.86,-0.24,-0.39,
0.436,0.12,0.16,0.93,0.86,-0.24,-0.39,
0.442,0.12,0.16,0.93,0.86,-0.07,-0.23,
0.443,0.12,0.17,0.94,0.86,-0.07,-0.23,
0.443,0.11,0.17,0.95,0.86,-0.07,-0.23,
0.443,0.11,0.18,0.96,0.86,-0.07,-0.23,
0.443,0.11,0.18,0.96,0.83,0.14,-0.05,
0.445,0.11,0.18,0.97,0.83,0.14,-0.05,
0.447,0.11,0.18,0.97,0.73,0.29,0.14,
0.448,0.10,0.18,0.97,0.73,0.29,0.14,
0.45,0.11,0.18,0.98,0.73,0.29,0.14,
0.452,0.10,0.19,0.98,0.73,0.29,0.14,
0.452,0.10,0.19,0.98,0.68,0.36,0.25,
0.455,0.10,0.18,0.99,0.68,0.36,0.25,
0.457,0.11,0.18,1.00,0.68,0.36,0.25,
0.457,0.11,0.18,1.00,0.66,0.43,0.36,
0.459,0.10,0.19,1.00,0.66,0.43,0.36,
0.462,0.10,0.18,1.00,0.66,0.43,0.36,
0.462,0.10,0.18,1.00,0.67,0.43,0.48,
0.464,0.10,0.17,1.00,0.67,0.43,0.48,
0.467,0.10,0.16,0.99,0.67,0.43,0.48,
0.467,0.10,0.16,0.99,0.65,0.46,0.54,
0.469,0.09,0.16,1.00,0.65,0.46,0.54,
0.472,0.09,0.15,1.00,0.65,0.46,0.54,
0.472,0.09,0.15,1.00,0.65,0.32,0.47,
0.474,0.09,0.15,1.01,0.65,0.32,0.47,
0.477,0.09,0.14,1.01,0.65,0.32,0.47,
0.477,0.09,0.14,1.01,0.54,0.26,0.53,
0.479,0.09,0.13,1.00,0.54,0.26,0.53,
0.481,0.08,0.12,1.00,0.54,0.26,0.53,
0.482,0.08,0.12,1.00,0.54,0.13,0.57,
0.484,0.08,0.12,0.99,0.54,0.13,0.57,
0.488,0.08,0.11,0.99,0.54,0.13,0.57,
0.489,0.08,0.11,0.99,0.52,0.00,0.53,
0.491,0.07,0.10,0.98,0.52,0.00,0.53,
0.492,0.07,0.10,0.98,0.43,-0.11,0.44,
0.492,0.07,0.10,0.99,0.43,-0.11,0.44,
0.494,0.07,0.09,0.98,0.43,-0.11,0.44,
0.496,0.07,0.09,0.98,0.43,-0.11,0.44,
0.497,0.07,0.09,0.98,0.37,-0.18,0.37,
0.499,0.07,0.08,0.98,0.37,-0.18,0.37,
0.501,0.07,0.07,0.97,0.37,-0.18,0.37,
0.501,0.07,0.07,0.97,0.36,-0.25,0.33,
0.505,0.08,0.07,0.98,0.36,-0.25,0.33,
0.508,0.08,0.07,0.98,0.36,-0.39,0.24,
0.509,0.08,0.06,0.98,0.36,-0.39,0.24,
0.509,0.09,0.06,0.97,0.36,-0.39,0.24,
0.512,0.09,0.06,0.96,0.36,-0.39,0.24,
0.512,0.09,0.06,0.96,0.42,-0.45,0.24,
0.514,0.09,0.06,0.96,0.42,-0.45,0.24,
0.517,0.09,0.06,0.95,0.42,-0.45,0.24,
0.517,0.09,0.06,0.95,0.49,-0.49,0.15,
0.519,0.09,0.06,0.96,0.49,-0.49,0.15,
0.521,0.09,0.06,0.96,0.49,-0.49,0.15,
0.522,0.09,0.06,0.96,0.52,-0.46,0.05,
0.523,0.09,0.06,0.96,0.52,-0.46,0.05,
0.526,0.09,0.07,0.96,0.52,-0.46,0.05,
0.527,0.09,0.07,0.96,0.51,-0.42,0.05,
0.529,0.09,0.07,0.96,0.51,-0.42,0.05,
0.532,0.09,0.07,0.96,0.51,-0.42,0.05,
0.532,0.09,0.07,0.96,0.49,-0.36,0.05,
0.533,0.08,0.08,0.98,0.49,-0.36,0.05,
0.537,0.09,0.09,0.98,0.49,-0.36,0.05,
0.537,0.09,0.09,0.98,0.47,-0.28,0.08,
0.54,0.08,0.09,0.99,0.47,-0.28,0.08,
0.541,0.08,0.09,1.01,0.47,-0.28,0.08,
0.541,0.08,0.09,1.01,0.40,-0.17,0.26,
0.543,0.08,0.10,1.02,0.40,-0.17,0.26,
0.546,0.09,0.10,1.03,0.40,-0.17,0.26,
0.546,0.09,0.10,1.03,0.36,-0.04,0.46,
0.549,0.10,0.10,1.04,0.36,-0.04,0.46,
0.551,0.10,0.09,1.04,0.36,-0.04,0.46,
0.551,0.10,0.09,1.04,0.35,0.04,0.68,
0.554,0.11,0.10,1.06,0.35,0.04,0.68,
0.557,0.11,0.08,1.06,0.35,0.04,0.68,
0.557,0.11,0.08,1.06,0.44,0.04,0.85,
0.558,0.12,0.08,1.06,0.44,0.04,0.85,
0.561,0.12,0.08,1.06,0.55,-0.02,1.00,
0.562,0.13,0.07,1.06,0.55,-0.02,1.00,
0.564,0.13,0.05,1.07,0.55,-0.02,1.00,
0.566,0.13,0.05,1.06,0.55,-0.02,1.00,
0.567,0.13,0.05,1.06,0.64,-0.15,1.03,
0.569,0.14,0.04,1.06,0.64,-0.15,1.03,
0.571,0.14,0.04,1.06,0.69,-0.37,1.07,
0.571,0.14,0.04,1.06,0.69,-0.37,1.07,
0.574,0.14,0.03,1.06,0.69,-0.37,1.07,
0.576,0.14,0.02,1.06,0.69,-0.37,1.07,
0.576,0.14,0.02,1.06,0.73,-0.44,1.05,
0.578,0.14,0.02,1.06,0.73,-0.44,1.05,
0.581,0.14,0.02,1.06,0.76,-0.58,1.04,
0.582,0.14,0.01,1.05,0.76,-0.58,1.04,
0.584,0.14,0.01,1.04,0.76,-0.58,1.04,
0.586,0.13,0.01,1.04,0.76,-0.58,1.04,
0.587,0.13,0.01,1.04,0.74,-0.67,0.97,
0.589,0.12,0.02,1.03,0.74,-0.67,0.97,
0.591,0.12,0.02,1.02,0.74,-0.67,0.97,
0.591,0.12,0.02,1.02,0.62,-0.67,0.84,
0.593,0.11,0.02,1.02,0.62,-0.67,0.84,
0.596,0.10,0.03,1.00,0.62,-0.67,0.84,
0.596,0.10,0.03,1.00,0.46,-0.61,0.69,
0.598,0.09,0.03,1.00,0.46,-0.61,0.69,
0.601,0.09,0.03,1.00,0.30,-0.52,0.52,
0.601,0.08,0.03,1.00,0.30,-0.52,0.52,
0.603,0.07,0.04,1.00,0.30,-0.52,0.52,
0.606,0.07,0.05,1.00,0.30,-0.52,0.52,
0.606,0.07,0.05,1.00,0.10,-0.44,0.42,
0.608,0.07,0.05,1.00,0.10,-0.44,0.42,
0.611,0.06,0.06,1.00,0.10,-0.44,0.42,
0.611,0.06,0.06,1.00,-0.05,-0.31,0.38,
0.613,0.06,0.07,1.02,-0.05,-0.31,0.38,
0.616,0.07,0.07,1.03,-0.05,-0.31,0.38,
0.616,0.07,0.07,1.03,-0.12,-0.17,0.45,
0.618,0.07,0.07,1.04,-0.12,-0.17,0.45,
0.621,0.07,0.08,1.04,-0.12,-0.17,0.45,
0.621,0.07,0.08,1.04,-0.16,-0.06,0.65,
0.623,0.08,0.07,1.06,-0.16,-0.06,0.65,
0.626,0.08,0.07,1.08,-0.16,-0.06,0.65,
0.626,0.08,0.07,1.08,-0.12,0.03,0.81,
0.628,0.09,0.07,1.09,-0.12,0.03,0.81,
0.631,0.10,0.07,1.10,-0.12,0.03,0.81,
0.631,0.10,0.07,1.10,-0.04,0.03,1.06,
0.633,0.11,0.07,1.11,-0.04,0.03,1.06,
0.636,0.11,0.06,1.13,-0.04,0.03,1.06,
0.636,0.11,0.06,1.13,0.05,0.01,1.35,
0.638,0.11,0.06,1.14,0.05,0.01,1.35,
0.64,0.12,0.06,1.15,0.05,0.01,1.35,
0.641,0.12,0.06,1.15,0.16,-0.00,1.55,
0.642,0.12,0.06,1.15,0.16,-0.00,1.55,
0.646,0.12,0.06,1.15,0.16,-0.00,1.55,
0.646,0.12,0.06,1.15,0.24,-0.02,1.78,
0.648,0.13,0.06,1.16,0.24,-0.02,1.78,
0.651,0.13,0.06,1.16,0.24,-0.02,1.78,
0.651,0.13,0.06,1.16,0.29,-0.02,1.89,
0.653,0.13,0.06,1.16,0.29,-0.02,1.89,
0.655,0.13,0.05,1.15,0.29,-0.02,1.89,
0.656,0.13,0.05,1.15,0.32,-0.02,1.92,
0.661,0.13,0.05,1.15,0.32,-0.02,1.92,
0.661,0.14,0.06,1.14,0.32,-0.02,1.92,
0.662,0.14,0.06,1.14,0.31,-0.01,1.90,
0.662,0.14,0.05,1.14,0.31,-0.01,1.90,
0.665,0.14,0.06,1.14,0.31,-0.01,1.90,
0.665,0.14,0.06,1.14,0.33,0.01,1.80,
0.667,0.14,0.06,1.13,0.33,0.01,1.80,
0.67,0.14,0.06,1.12,0.33,0.01,1.80,
0.67,0.14,0.06,1.12,0.33,0.02,1.73,
0.674,0.14,0.05,1.11,0.33,0.02,1.73,
0.675,0.13,0.05,1.11,0.33,0.02,1.73,
0.675,0.13,0.05,1.11,0.33,0.06,1.58,
0.677,0.14,0.05,1.10,0.33,0.06,1.58,
0.68,0.13,0.05,1.10,0.33,0.06,1.58,
0.68,0.13,0.05,1.10,0.26,0.01,1.42,
0.682,0.13,0.04,1.10,0.26,0.01,1.42,
0.684,0.13,0.03,1.10,0.26,0.01,1.42,
0.685,0.13,0.03,1.10,0.24,-0.02,1.32,
0.687,0.13,0.02,1.10,0.24,-0.02,1.32,
0.69,0.12,0.02,1.10,0.24,-0.02,1.32,
0.691,0.12,0.02,1.10,0.16,-0.16,1.29,
0.692,0.12,0.02,1.09,0.16,-0.16,1.29,
0.694,0.11,0.01,1.09,0.16,-0.16,1.29,
0.695,0.11,0.01,1.09,0.11,-0.23,1.33,
0.697,0.11,0.00,1.09,0.11,-0.23,1.33,
0.699,0.11,-0.00,1.08,0.11,-0.23,1.33,
0.7,0.11,-0.00,1.08,0.02,-0.30,1.24,
0.701,0.10,-0.00,1.08,0.02,-0.30,1.24,
0.706,0.10,-0.01,1.08,0.02,-0.30,1.24,
0.707,0.10,-0.01,1.08,-0.06,-0.41,1.17,
0.707,0.09,-0.02,1.08,-0.06,-0.41,1.17,
0.709,0.09,-0.01,1.08,-0.06,-0.41,1.17,
0.709,0.09,-0.01,1.08,-0.16,-0.45,1.12,
0.712,0.09,-0.02,1.08,-0.16,-0.45,1.12,
0.714,0.09,-0.02,1.08,-0.21,-0.51,1.11,
0.714,0.09,-0.02,1.08,-0.21,-0.51,1.11,
0.716,0.09,-0.02,1.07,-0.21,-0.51,1.11,
0.719,0.08,-0.01,1.07,-0.21,-0.51,1.11,
0.719,0.08,-0.01,1.07,-0.27,-0.52,1.09,
0.722,0.08,-0.01,1.08,-0.27,-0.52,1.09,
0.724,0.08,-0.01,1.07,-0.27,-0.52,1.09,
0.724,0.08,-0.01,1.07,-0.27,-0.49,1.02,
0.726,0.08,-0.00,1.07,-0.27,-0.49,1.02,
0.729,0.08,0.00,1.08,-0.27,-0.49,1.02,
0.729,0.08,0.00,1.08,-0.32,-0.40,1.02,
0.731,0.08,0.00,1.09,-0.32,-0.40,1.02,
0.734,0.08,0.01,1.09,-0.32,-0.40,1.02,
0.734,0.08,0.01,1.09,-0.31,-0.27,1.05,
0.736,0.09,0.02,1.10,-0.31,-0.27,1.05,
0.741,0.09,0.02,1.10,-0.31,-0.27,1.05,
0.741,0.09,0.02,1.10,-0.29,-0.17,1.16,
0.741,0.09,0.02,1.10,-0.29,-0.17,1.16,
0.745,0.09,0.03,1.10,-0.29,-0.17,1.16,
0.745,0.09,0.03,1.10,-0.24,-0.02,1.24,
0.746,0.08,0.03,1.11,-0.24,-0.02,1.24,
0.749,0.08,0.04,1.11,-0.24,-0.02,1.24,
0.749,0.08,0.04,1.11,-0.22,0.07,1.25,
0.751,0.08,0.03,1.11,-0.22,0.07,1.25,
0.754,0.09,0.04,1.11,-0.22,0.07,1.25,
0.754,0.09,0.04,1.11,-0.25,0.18,1.35,
0.76,0.09,0.04,1.12,-0.25,0.18,1.35,
0.76,0.08,0.04,1.12,-0.25,0.18,1.35,
0.76,0.08,0.04,1.12,-0.25,0.22,1.37,
0.761,0.08,0.04,1.12,-0.25,0.22,1.37,
0.766,0.08,0.03,1.12,-0.25,0.22,1.37,
0.766,0.08,0.03,1.12,-0.26,0.30,1.43,
0.766,0.08,0.03,1.13,-0.26,0.30,1.43,
0.768,0.08,0.03,1.12,-0.26,0.30,1.43,
0.769,0.08,0.03,1.12,-0.30,0.27,1.44,
0.771,0.07,0.03,1.12,-0.30,0.27,1.44,
0.773,0.07,0.03,1.12,-0.30,0.27,1.44,
0.775,0.07,0.03,1.12,-0.35,0.24,1.45,
0.776,0.07,0.03,1.12,-0.35,0.24,1.45,
0.778,0.07,0.02,1.11,-0.35,0.24,1.45,
0.779,0.07,0.02,1.11,-0.41,0.24,1.43,
0.781,0.07,0.03,1.11,-0.41,0.24,1.43,
0.783,0.06,0.03,1.11,-0.41,0.24,1.43,
0.784,0.06,0.03,1.11,-0.45,0.19,1.36,
0.786,0.07,0.03,1.11,-0.45,0.19,1.36,
0.79,0.07,0.03,1.10,-0.45,0.19,1.36,
0.79,0.07,0.03,1.10,-0.51,0.22,1.31,
0.791,0.07,0.03,1.10,-0.51,0.22,1.31,
0.793,0.07,0.03,1.09,-0.51,0.22,1.31,
0.794,0.07,0.03,1.09,-0.50,0.24,1.25,
0.796,0.07,0.03,1.10,-0.50,0.24,1.25,
0.798,0.07,0.03,1.09,-0.50,0.24,1.25,
0.799,0.07,0.03,1.09,-0.51,0.28,1.19,
0.801,0.07,0.03,1.09,-0.51,0.28,1.19,
0.803,0.08,0.03,1.09,-0.51,0.28,1.19,
0.804,0.08,0.03,1.09,-0.50,0.30,1.15,
0.807,0.08,0.03,1.10,-0.50,0.30,1.15,
0.808,0.09,0.03,1.10,-0.50,0.30,1.15,
0.809,0.09,0.03,1.10,-0.46,0.34,1.12,
0.81,0.09,0.03,1.11,-0.46,0.34,1.12,
0.813,0.09,0.02,1.12,-0.46,0.34,1.12,
0.813,0.09,0.02,1.12,-0.38,0.34,1.23,
0.816,0.09,0.02,1.13,-0.38,0.34,1.23,
0.818,0.09,0.02,1.13,-0.38,0.34,1.23,
0.821,0.09,0.02,1.13,-0.34,0.29,1.36,
0.821,0.09,0.02,1.14,-0.34,0.29,1.36,
0.825,0.09,0.02,1.16,-0.34,0.29,1.36,
0.825,0.09,0.02,1.16,-0.32,0.27,1.49,
0.826,0.09,0.02,1.16,-0.32,0.27,1.49,
0.828,0.09,0.02,1.16,-0.33,0.29,1.67,
0.829,0.09,0.02,1.16,-0.33,0.29,1.67,
0.831,0.09,0.02,1.17,-0.33,0.29,1.67,
0.833,0.09,0.02,1.17,-0.35,0.33,1.80,
0.833,0.09,0.02,1.18,-0.35,0.33,1.80,
0.836,0.09,0.03,1.19,-0.35,0.33,1.80,
0.838,0.09,0.03,1.20,-0.35,0.33,1.80,
0.838,0.09,0.03,1.20,-0.34,0.35,1.95,
0.841,0.09,0.03,1.20,-0.34,0.35,1.95,
0.843,0.09,0.03,1.20,-0.32,0.45,2.14,
0.843,0.09,0.03,1.21,-0.32,0.45,2.14,
0.845,0.10,0.03,1.21,-0.32,0.45,2.14,
0.848,0.10,0.04,1.22,-0.32,0.45,2.14,
0.848,0.10,0.04,1.22,-0.30,0.53,2.20,
0.85,0.10,0.04,1.21,-0.30,0.53,2.20,
0.853,0.10,0.04,1.21,-0.30,0.53,2.20,
0.853,0.10,0.04,1.21,-0.20,0.58,2.29,
0.856,0.11,0.04,1.21,-0.20,0.58,2.29,
0.859,0.11,0.04,1.21,-0.20,0.58,2.29,
0.859,0.11,0.04,1.21,-0.18,0.64,2.24,
0.86,0.11,0.04,1.21,-0.18,0.64,2.24,
0.863,0.11,0.04,1.20,-0.18,0.64,2.24,
0.863,0.11,0.04,1.20,-0.12,0.67,2.19,
0.866,0.11,0.05,1.19,-0.12,0.67,2.19,
0.868,0.11,0.06,1.19,-0.12,0.67,2.19,
0.868,0.11,0.06,1.19,-0.06,0.72,2.13,
0.87,0.11,0.06,1.20,-0.06,0.72,2.13,
0.873,0.10,0.07,1.20,-0.06,0.72,2.13,
0.874,0.10,0.07,1.20,-0.08,0.85,2.02,
0.875,0.10,0.07,1.20,-0.08,0.85,2.02,
0.878,0.10,0.09,1.20,-0.08,0.85,2.02,
0.879,0.10,0.09,1.20,-0.10,0.98,2.07,
0.881,0.09,0.09,1.20,-0.10,0.98,2.07,
0.883,0.09,0.09,1.20,-0.15,1.14,2.11,
0.883,0.10,0.09,1.21,-0.15,1.14,2.11,
0.885,0.11,0.09,1.20,-0.15,1.14,2.11,
0.888,0.10,0.09,1.20,-0.15,1.14,2.11,
0.888,0.10,0.09,1.20,-0.18,1.26,2.14,
0.891,0.10,0.08,1.20,-0.18,1.26,2.14,
0.892,0.10,0.08,1.20,-0.18,1.26,2.14,
0.893,0.10,0.08,1.20,-0.10,1.24,2.07,
0.895,0.11,0.08,1.19,-0.10,1.24,2.07,
0.898,0.11,0.07,1.19,-0.10,1.24,2.07,
0.898,0.11,0.07,1.19,-0.13,1.17,2.08,
0.901,0.11,0.07,1.20,-0.13,1.17,2.08,
0.903,0.11,0.06,1.20,-0.13,1.17,2.08,
0.903,0.11,0.06,1.20,-0.08,1.11,1.96,
0.905,0.11,0.05,1.19,-0.08,1.11,1.96,
0.907,0.11,0.05,1.19,-0.08,1.11,1.96,
0.907,0.11,0.05,1.19,-0.06,1.01,2.00,
0.91,0.11,0.05,1.18,-0.06,1.01,2.00,
0.913,0.11,0.04,1.18,-0.06,1.01,2.00,
0.913,0.11,0.04,1.18,-0.05,0.89,1.94,
0.916,0.12,0.04,1.18,-0.05,0.89,1.94,
0.918,0.12,0.03,1.18,-0.05,0.89,1.94,
0.918,0.12,0.03,1.18,-0.01,0.82,1.85,
0.92,0.12,0.03,1.17,-0.01,0.82,1.85,
0.925,0.12,0.03,1.17,0.03,0.75,1.82,
0.926,0.12,0.03,1.17,0.03,0.75,1.82,
0.926,0.13,0.02,1.17,0.03,0.75,1.82,
0.927,0.12,0.02,1.17,0.03,0.75,1.82,
0.927,0.12,0.02,1.17,0.06,0.66,1.73,
0.929,0.13,0.01,1.17,0.06,0.66,1.73,
0.933,0.13,0.01,1.17,0.06,0.66,1.73,
0.933,0.13,0.01,1.17,0.10,0.60,1.72,
0.935,0.13,0.01,1.17,0.10,0.60,1.72,
0.937,0.13,0.00,1.17,0.10,0.60,1.72,
0.937,0.13,0.00,1.17,0.13,0.51,1.70,
0.939,0.13,0.00,1.17,0.13,0.51,1.70,
0.942,0.13,0.00,1.17,0.13,0.51,1.70,
0.942,0.13,0.00,1.17,0.11,0.48,1.71,
0.945,0.12,-0.00,1.17,0.11,0.48,1.71,
0.947,0.12,-0.00,1.17,0.11,0.44,1.71,
0.947,0.12,-0.00,1.17,0.11,0.44,1.71,
0.95,0.13,-0.00,1.16,0.11,0.44,1.71,
0.952,0.13,-0.00,1.16,0.08,0.41,1.66,
0.953,0.13,-0.01,1.16,0.08,0.41,1.66,
0.955,0.13,-0.00,1.16,0.08,0.41,1.66,
0.961,0.13,-0.01,1.15,0.08,0.41,1.66,
0.961,0.13,-0.01,1.15,0.13,0.38,1.61,
0.961,0.14,-0.01,1.15,0.13,0.38,1.61,
0.962,0.14,-0.02,1.15,0.13,0.38,1.61,
0.962,0.14,-0.02,1.15,0.16,0.35,1.56,
0.964,0.14,-0.01,1.15,0.16,0.35,1.56,
0.967,0.15,-0.02,1.15,0.16,0.35,1.56,
0.967,0.15,-0.02,1.15,0.22,0.28,1.48,
0.969,0.14,-0.02,1.15,0.22,0.28,1.48,
0.971,0.15,-0.02,1.15,0.22,0.28,1.48,
0.972,0.15,-0.02,1.15,0.27,0.27,1.49,
0.974,0.15,-0.01,1.15,0.27,0.27,1.49,
0.977,0.15,-0.01,1.15,0.27,0.27,1.49,
0.977,0.15,-0.01,1.15,0.26,0.25,1.50,
0.979,0.14,-0.01,1.15,0.26,0.25,1.50,
0.981,0.15,-0.01,1.15,0.26,0.25,1.50,
0.982,0.15,-0.01,1.15,0.27,0.31,1.50,
0.984,0.14,-0.02,1.16,0.27,0.31,1.50,
0.986,0.14,-0.02,1.15,0.27,0.31,1.50,
0.987,0.14,-0.02,1.15,0.24,0.29,1.49,
0.989,0.14,-0.01,1.15,0.24,0.29,1.49,
0.992,0.13,-0.02,1.15,0.24,0.29,1.49,
0.993,0.13,-0.02,1.15,0.21,0.25,1.51,
0.994,0.13,-0.02,1.15,0.21,0.25,1.51,
0.996,0.13,-0.02,1.14,0.21,0.25,1.51,
0.997,0.13,-0.02,1.14,0.13,0.26,1.44,
0.999,0.13,-0.02,1.14,0.13,0.26,1.44,
1.001,0.13,-0.02,1.14,0.08,0.21,1.37,
1.002,0.13,-0.03,1.14,0.08,0.21,1.37,
1.004,0.13,-0.03,1.13,0.08,0.21,1.37,
1.007,0.13,-0.04,1.13,0.08,0.21,1.37,
1.008,0.13,-0.04,1.13,0.04,0.13,1.32,
1.009,0.13,-0.04,1.12,0.04,0.13,1.32,
1.011,0.13,-0.04,1.11,0.04,0.13,1.32,
1.011,0.13,-0.04,1.11,0.02,0.05,1.20,
1.014,0.13,-0.04,1.11,0.02,0.05,1.20,
1.016,0.13,-0.04,1.11,0.04,-0.03,1.08,
1.016,0.14,-0.05,1.10,0.04,-0.03,1.08,
1.018,0.13,-0.06,1.09,0.04,-0.03,1.08,
1.021,0.14,-0.06,1.09,0.04,-0.03,1.08,
1.021,0.14,-0.06,1.09,0.07,-0.09,0.99,
1.024,0.14,-0.06,1.09,0.07,-0.09,0.99,
1.027,0.15,-0.06,1.08,0.07,-0.09,0.99,
1.027,0.15,-0.06,1.08,0.06,-0.20,0.81,
1.028,0.15,-0.06,1.09,0.06,-0.20,0.81,
1.031,0.15,-0.06,1.09,0.06,-0.20,0.81,
1.031,0.15,-0.06,1.09,0.13,-0.20,0.78,
1.033,0.16,-0.05,1.10,0.13,-0.20,0.78,
1.037,0.16,-0.05,1.10,0.13,-0.20,0.78,
1.037,0.16,-0.05,1.10,0.19,-0.21,0.76,
1.038,0.17,-0.05,1.12,0.19,-0.21,0.76,
1.042,0.18,-0.05,1.12,0.19,-0.21,0.76,
1.042,0.18,-0.05,1.12,0.25,-0.14,0.89,
1.043,0.18,-0.04,1.13,0.25,-0.14,0.89,
1.046,0.19,-0.03,1.13,0.25,-0.14,0.89,
1.046,0.19,-0.03,1.13,0.37,-0.11,1.07,
1.048,0.19,-0.03,1.14,0.37,-0.11,1.07,
1.051,0.19,-0.03,1.14,0.46,0.00,1.15,
1.051,0.19,-0.03,1.15,0.46,0.00,1.15,
1.053,0.20,-0.02,1.15,0.46,0.00,1.15,
1.056,0.20,-0.02,1.15,0.46,0.00,1.15,
1.056,0.20,-0.02,1.15,0.50,0.08,1.29,
1.061,0.20,-0.02,1.16,0.50,0.08,1.29,
1.062,0.20,-0.01,1.16,0.50,0.08,1.29,
1.062,0.20,-0.01,1.16,0.55,0.12,1.33,
1.063,0.21,-0.01,1.16,0.55,0.12,1.33,
1.066,0.21,-0.01,1.15,0.55,0.12,1.33,
1.066,0.21,-0.01,1.15,0.60,0.19,1.41,
1.068,0.21,-0.01,1.16,0.60,0.19,1.41,
1.07,0.22,-0.02,1.15,0.60,0.19,1.41,
1.071,0.22,-0.02,1.15,0.65,0.21,1.38,
1.074,0.22,-0.02,1.15,0.65,0.21,1.38,
1.075,0.22,-0.02,1.15,0.65,0.21,1.38,
1.076,0.22,-0.02,1.15,0.67,0.19,1.37,
1.078,0.21,-0.02,1.15,0.67,0.19,1.37,
1.08,0.21,-0.02,1.15,0.67,0.19,1.37,
1.081,0.21,-0.02,1.15,0.69,0.15,1.28,
1.083,0.21,-0.01,1.15,0.69,0.15,1.28,
1.085,0.20,-0.01,1.15,0.69,0.15,1.28,
1.085,0.20,-0.01,1.15,0.60,0.14,1.25,
1.088,0.20,-0.01,1.15,0.60,0.14,1.25,
1.091,0.19,-0.01,1.15,0.60,0.14,1.25,
1.092,0.19,-0.01,1.15,0.55,0.21,1.26,
1.094,0.19,-0.00,1.15,0.55,0.21,1.26,
1.096,0.18,0.00,1.15,0.55,0.21,1.26,
1.096,0.18,0.00,1.15,0.44,0.19,1.27,
1.098,0.17,-0.00,1.15,0.44,0.19,1.27,
1.1,0.17,-0.00,1.15,0.32,0.26,1.24,
1.101,0.16,-0.00,1.14,0.32,0.26,1.24,
1.102,0.16,-0.00,1.14,0.32,0.26,1.24,
1.105,0.14,-0.01,1.14,0.32,0.26,1.24,
1.105,0.14,-0.01,1.14,0.12,0.24,1.23,
1.108,0.14,-0.01,1.13,0.12,0.24,1.23,
1.11,0.13,-0.02,1.12,0.12,0.24,1.23,
1.11,0.13,-0.02,1.12,-0.00,0.17,1.12,
1.112,0.13,-0.02,1.12,-0.00,0.17,1.12,
1.115,0.13,-0.02,1.12,-0.15,0.08,1.01,
1.115,0.13,-0.02,1.11,-0.15,0.08,1.01,
1.117,0.13,-0.02,1.10,-0.15,0.08,1.01,
1.12,0.13,-0.03,1.10,-0.15,0.08,1.01,
1.12,0.13,-0.03,1.10,-0.21,0.01,0.90,
1.122,0.13,-0.02,1.09,-0.21,0.01,0.90,
1.126,0.13,-0.02,1.09,-0.22,-0.08,0.74,
1.127,0.13,-0.02,1.08,-0.22,-0.08,0.74,
1.128,0.13,-0.02,1.08,-0.22,-0.08,0.74,
1.13,0.14,-0.02,1.08,-0.22,-0.08,0.74,
1.13,0.14,-0.02,1.08,-0.22,-0.11,0.57,
1.133,0.14,-0.02,1.07,-0.22,-0.11,0.57,
1.135,0.15,-0.01,1.07,-0.22,-0.11,0.57,
1.135,0.15,-0.01,1.07,-0.16,-0.14,0.50,
1.137,0.16,-0.00,1.07,-0.16,-0.14,0.50,
1.141,0.17,0.00,1.08,-0.16,-0.14,0.50,
1.142,0.17,0.00,1.08,-0.05,-0.08,0.44,
1.143,0.17,0.01,1.08,-0.05,-0.08,0.44,
1.145,0.18,0.01,1.09,-0.05,-0.08,0.44,
1.145,0.18,0.01,1.09,0.07,0.03,0.46,
1.147,0.18,0.03,1.09,0.07,0.03,0.46,
1.15,0.18,0.03,1.09,0.20,0.11,0.58,
1.151,0.19,0.03,1.09,0.20,0.11,0.58,
1.152,0.19,0.03,1.10,0.20,0.11,0.58,
1.155,0.19,0.04,1.10,0.20,0.11,0.58,
1.156,0.19,0.04,1.10,0.27,0.24,0.64,
1.158,0.19,0.04,1.10,0.27,0.24,0.64,
1.16,0.19,0.05,1.11,0.27,0.24,0.64,
1.16,0.19,0.05,1.11,0.28,0.29,0.70,
1.162,0.19,0.05,1.11,0.28,0.29,0.70,
1.165,0.19,0.05,1.11,0.28,0.29,0.70,
1.165,0.19,0.05,1.11,0.28,0.36,0.75,
1.167,0.19,0.06,1.11,0.28,0.36,0.75,
1.171,0.18,0.06,1.11,0.28,0.36,0.75,
1.171,0.18,0.06,1.11,0.25,0.38,0.82,
1.172,0.19,0.06,1.12,0.25,0.38,0.82,
1.176,0.19,0.06,1.12,0.21,0.41,0.83,
1.176,0.18,0.07,1.11,0.21,0.41,0.83,
1.177,0.18,0.07,1.11,0.21,0.41,0.83,
1.18,0.17,0.07,1.10,0.21,0.41,0.83,
1.18,0.17,0.07,1.10,0.18,0.47,0.82,
1.182,0.17,0.07,1.10,0.18,0.47,0.82,
1.185,0.16,0.07,1.10,0.18,0.47,0.82,
1.185,0.16,0.07,1.10,0.06,0.46,0.76,
1.187,0.16,0.07,1.10,0.06,0.46,0.76,
1.19,0.16,0.07,1.09,0.06,0.46,0.76,
1.19,0.16,0.07,1.09,-0.01,0.47,0.67,
1.194,0.15,0.07,1.08,-0.01,0.47,0.67,
1.195,0.15,0.07,1.08,-0.01,0.47,0.67,
1.195,0.15,0.07,1.08,-0.09,0.44,0.60,
1.197,0.15,0.07,1.07,-0.09,0.44,0.60,
1.2,0.15,0.07,1.07,-0.18,0.39,0.50,
1.2,0.14,0.07,1.06,-0.18,0.39,0.50,
1.202,0.14,0.06,1.06,-0.18,0.39,0.50,
1.205,0.15,0.06,1.04,-0.18,0.39,0.50,
1.205,0.15,0.06,1.04,-0.22,0.35,0.33,
1.207,0.14,0.07,1.03,-0.22,0.35,0.33,
1.209,0.14,0.06,1.02,-0.22,0.35,0.33,
1.21,0.14,0.06,1.02,-0.25,0.26,0.19,
1.212,0.14,0.06,1.02,-0.25,0.26,0.19,
1.214,0.13,0.07,1.01,-0.25,0.26,0.19,
1.214,0.13,0.07,1.01,-0.29,0.24,-0.02,
1.217,0.13,0.07,1.00,-0.29,0.24,-0.02,
1.22,0.13,0.07,0.99,-0.29,0.24,-0.02,
1.22,0.13,0.07,0.99,-0.34,0.21,-0.16,
1.222,0.13,0.07,0.99,-0.34,0.21,-0.16,
1.226,0.13,0.07,0.99,-0.38,0.19,-0.32,
1.227,0.13,0.07,0.98,-0.38,0.19,-0.32,
1.227,0.13,0.07,0.97,-0.38,0.19,-0.32,
1.229,0.13,0.07,0.97,-0.41,0.19,-0.42,
1.23,0.13,0.07,0.97,-0.41,0.19,-0.42,
1.232,0.13,0.07,0.96,-0.41,0.19,-0.42,
1.235,0.12,0.08,0.96,-0.41,0.19,-0.42,
1.235,0.12,0.08,0.96,-0.41,0.17,-0.57,
1.237,0.12,0.08,0.97,-0.41,0.17,-0.57,
1.24,0.12,0.08,0.97,-0.41,0.17,-0.57,
1.24,0.12,0.08,0.97,-0.46,0.18,-0.68,
1.242,0.12,0.08,0.98,-0.46,0.18,-0.68,
1.244,0.12,0.09,0.99,-0.46,0.18,-0.68,
1.245,0.12,0.09,0.99,-0.52,0.15,-0.56,
1.246,0.11,0.09,1.00,-0.52,0.15,-0.56,
1.25,0.11,0.09,1.00,-0.55,0.20,-0.41,
1.25,0.12,0.10,1.01,-0.55,0.20,-0.41,
1.252,0.11,0.10,1.02,-0.55,0.20,-0.41,
1.255,0.11,0.10,1.02,-0.59,0.28,-0.20,
1.255,0.11,0.10,1.03,-0.59,0.28,-0.20,
1.257,0.11,0.11,1.04,-0.59,0.28,-0.20,
1.259,0.10,0.10,1.05,-0.59,0.28,-0.20,
1.259,0.10,0.10,1.05,-0.62,0.30,0.02,
1.261,0.09,0.10,1.05,-0.62,0.30,0.02,
1.264,0.10,0.10,1.05,-0.62,0.30,0.02,
1.264,0.10,0.10,1.05,-0.72,0.31,0.18,
1.267,0.10,0.09,1.06,-0.72,0.31,0.18,
1.269,0.09,0.09,1.07,-0.72,0.31,0.18,
1.27,0.09,0.09,1.07,-0.80,0.22,0.28,
1.272,0.09,0.08,1.07,-0.80,0.22,0.28,
1.274,0.09,0.08,1.07,-0.84,0.12,0.39,
1.274,0.09,0.07,1.05,-0.84,0.12,0.39,
1.277,0.09,0.07,1.05,-0.84,0.12,0.39,
1.279,0.08,0.06,1.04,-0.84,0.12,0.39,
1.279,0.08,0.06,1.04,-0.84,-0.04,0.35,
1.281,0.08,0.06,1.02,-0.84,-0.04,0.35,
1.283,0.07,0.05,1.02,-0.84,-0.04,0.35,
1.283,0.07,0.05,1.02,-0.91,-0.23,0.21,
1.286,0.06,0.05,1.01,-0.91,-0.23,0.21,
1.29,0.06,0.05,0.99,-0.91,-0.23,0.21,
1.29,0.06,0.05,0.99,-1.01,-0.36,-0.02,
1.297,0.05,0.05,0.98,-1.01,-0.36,-0.02,
1.297,0.05,0.05,0.96,-1.01,-0.36,-0.02,
1.298,0.05,0.05,0.96,-1.15,-0.45,-0.24,
1.298,0.05,0.05,0.94,-1.15,-0.45,-0.24,
1.298,0.05,0.05,0.94,-1.24,-0.47,-0.52,
1.299,0.05,0.06,0.92,-1.24,-0.47,-0.52,
1.301,0.04,0.06,0.91,-1.24,-0.47,-0.52,
1.303,0.04,0.07,0.89,-1.24,-0.47,-0.52,
1.304,0.04,0.07,0.89,-1.28,-0.46,-0.87,
1.305,0.04,0.07,0.87,-1.28,-0.46,-0.87,
1.31,0.04,0.08,0.86,-1.28,-0.46,-0.87,
1.311,0.04,0.08,0.86,-1.34,-0.40,-1.18,
1.311,0.04,0.08,0.85,-1.34,-0.40,-1.18,
1.313,0.04,0.09,0.84,-1.34,-0.40,-1.18,
1.315,0.04,0.09,0.84,-1.36,-0.36,-1.49,
1.317,0.04,0.09,0.83,-1.36,-0.36,-1.49,
1.318,0.04,0.10,0.82,-1.36,-0.36,-1.49,
1.318,0.04,0.10,0.82,-1.39,-0.32,-1.71,
1.321,0.05,0.10,0.81,-1.39,-0.32,-1.71,
1.323,0.05,0.10,0.81,-1.38,-0.28,-1.88,
1.323,0.05,0.11,0.81,-1.38,-0.28,-1.88,
1.326,0.06,0.12,0.80,-1.38,-0.28,-1.88,
1.328,0.06,0.13,0.81,-1.38,-0.28,-1.88,
1.328,0.06,0.13,0.81,-1.30,-0.18,-2.01,
1.33,0.06,0.13,0.81,-1.30,-0.18,-2.01,
1.333,0.07,0.14,0.81,-1.30,-0.18,-2.01,
1.333,0.07,0.14,0.81,-1.21,-0.07,-2.05,
1.335,0.08,0.14,0.81,-1.21,-0.07,-2.05,
1.338,0.08,0.15,0.82,-1.21,-0.07,-2.05,
1.338,0.08,0.15,0.82,-1.16,-0.00,-2.02,
1.34,0.09,0.14,0.83,-1.16,-0.00,-2.02,
1.344,0.09,0.14,0.83,-1.16,-0.00,-2.02,
1.344,0.09,0.14,0.83,-1.04,0.05,-1.90,
1.345,0.10,0.13,0.84,-1.04,0.05,-1.90,
1.348,0.10,0.13,0.84,-0.97,-0.05,-1.77,
1.348,0.10,0.12,0.85,-0.97,-0.05,-1.77,
1.35,0.11,0.12,0.86,-0.97,-0.05,-1.77,
1.353,0.11,0.12,0.87,-0.97,-0.05,-1.77,
1.353,0.11,0.12,0.87,-0.90,-0.19,-1.61,
1.355,0.10,0.11,0.87,-0.90,-0.19,-1.61,
1.359,0.10,0.10,0.88,-0.90,-0.19,-1.61,
1.359,0.10,0.10,0.88,-0.83,-0.31,-1.40,
1.36,0.09,0.09,0.88,-0.83,-0.31,-1.40,
1.363,0.09,0.08,0.88,-0.83,-0.31,-1.40,
1.363,0.09,0.08,0.88,-0.93,-0.48,-1.29,
1.365,0.08,0.07,0.89,-0.93,-0.48,-1.29,
1.368,0.07,0.06,0.89,-0.93,-0.48,-1.29,
1.368,0.07,0.06,0.89,-1.02,-0.64,-1.19,
1.37,0.07,0.05,0.89,-1.02,-0.64,-1.19,
1.373,0.07,0.05,0.89,-1.14,-0.85,-1.11,
1.373,0.07,0.05,0.88,-1.14,-0.85,-1.11,
1.376,0.07,0.05,0.88,-1.14,-0.85,-1.11,
1.377,0.06,0.04,0.88,-1.14,-0.85,-1.11,
1.378,0.06,0.04,0.88,-1.19,-1.04,-1.17,
1.38,0.06,0.04,0.87,-1.19,-1.04,-1.17,
1.382,0.06,0.04,0.87,-1.25,-1.09,-1.23,
1.383,0.06,0.04,0.86,-1.25,-1.09,-1.23,
1.385,0.05,0.04,0.86,-1.25,-1.09,-1.23,
1.387,0.05,0.04,0.85,-1.25,-1.09,-1.23,
1.388,0.05,0.04,0.85,-1.29,-1.18,-1.33,
1.39,0.05,0.04,0.84,-1.29,-1.18,-1.33,
1.397,0.04,0.04,0.84,-1.29,-1.18,-1.33,
1.398,0.04,0.04,0.84,-1.35,-1.23,-1.43,
1.398,0.03,0.02,0.83,-1.35,-1.23,-1.43,
1.398,0.03,0.02,0.83,-1.41,-1.23,-1.56,
1.399,0.02,-0.01,0.84,-1.41,-1.23,-1.56,
1.401,0.01,-0.05,0.83,-1.41,-1.23,-1.56,
1.402,0.03,-0.06,0.83,-1.41,-1.23,-1.56,
1.402,0.03,-0.06,0.83,-1.58,-1.55,-1.63,
1.404,0.06,-0.06,0.82,-1.58,-1.55,-1.63,
1.407,0.09,-0.08,0.81,-1.58,-1.55,-1.63,
1.407,0.09,-0.08,0.81,-1.60,-2.17,-1.64,
1.41,0.11,-0.07,0.81,-1.60,-2.17,-1.64,
1.412,0.12,-0.04,0.81,-1.60,-2.17,-1.64,
1.412,0.12,-0.04,0.81,-1.02,-2.33,-1.79,
1.415,0.14,-0.00,0.81,-1.02,-2.33,-1.79,
1.417,0.14,0.02,0.81,-1.02,-2.33,-1.79,
1.417,0.14,0.02,0.81,-0.64,-2.15,-1.88,
1.419,0.14,0.04,0.81,-0.64,-2.15,-1.88,
1.422,0.14,0.04,0.81,-0.40,-1.59,-1.84,
1.422,0.14,0.06,0.81,-0.40,-1.59,-1.84,
1.424,0.14,0.07,0.81,-0.40,-1.59,-1.84,
1.428,0.15,0.09,0.81,-0.40,-1.59,-1.84,
1.428,0.15,0.09,0.81,-0.44,-1.23,-1.84,
1.429,0.14,0.11,0.82,-0.44,-1.23,-1.84,
1.432,0.14,0.13,0.82,-0.44,-1.23,-1.84,
1.432,0.14,0.13,0.82,-0.39,-0.91,-1.81,
1.434,0.14,0.15,0.82,-0.39,-0.91,-1.81,
1.437,0.14,0.16,0.84,-0.39,-0.91,-1.81,
1.437,0.14,0.16,0.84,-0.43,-0.55,-1.75,
1.439,0.13,0.18,0.84,-0.43,-0.55,-1.75,
1.443,0.13,0.19,0.86,-0.43,-0.55,-1.75,
1.443,0.13,0.19,0.86,-0.50,-0.25,-1.61,
1.445,0.14,0.20,0.87,-0.50,-0.25,-1.61,
1.447,0.14,0.20,0.87,-0.56,0.00,-1.40,
1.447,0.15,0.20,0.88,-0.56,0.00,-1.40,
1.449,0.15,0.20,0.88,-0.56,0.00,-1.40,
1.452,0.15,0.20,0.89,-0.56,0.00,-1.40,
1.452,0.15,0.20,0.89,-0.51,0.10,-1.12,
1.454,0.15,0.20,0.89,-0.51,0.10,-1.12,
1.457,0.15,0.19,0.90,-0.51,0.10,-1.12,
1.457,0.15,0.19,0.90,-0.47,0.09,-1.02,
1.46,0.14,0.19,0.90,-0.47,0.09,-1.02,
1.462,0.13,0.19,0.91,-0.47,0.09,-1.02,
1.462,0.13,0.19,0.91,-0.49,0.01,-0.90,
1.464,0.12,0.18,0.91,-0.49,0.01,-0.90,
1.467,0.11,0.18,0.91,-0.49,0.01,-0.90,
1.467,0.11,0.18,0.91,-0.62,-0.08,-0.79,
1.469,0.11,0.17,0.91,-0.62,-0.08,-0.79,
1.471,0.10,0.17,0.90,-0.62,-0.08,-0.79,
1.472,0.10,0.17,0.90,-0.83,-0.18,-0.76,
1.474,0.09,0.16,0.89,-0.83,-0.18,-0.76,
1.477,0.09,0.15,0.89,-0.83,-0.18,-0.76,
1.477,0.09,0.15,0.89,-0.99,-0.33,-0.82,
1.48,0.09,0.14,0.88,-0.99,-0.33,-0.82,
1.481,0.09,0.13,0.87,-0.99,-0.33,-0.82,
1.482,0.09,0.13,0.87,-1.09,-0.49,-0.93,
1.484,0.08,0.13,0.86,-1.09,-0.49,-0.93,
1.487,0.08,0.12,0.86,-1.09,-0.49,-0.93,
1.487,0.08,0.12,0.86,-1.16,-0.68,-1.06,
1.489,0.08,0.12,0.85,-1.16,-0.68,-1.06,
1.492,0.08,0.11,0.84,-1.16,-0.68,-1.06,
1.492,0.08,0.11,0.84,-1.20,-0.82,-1.21,
1.498,0.08,0.11,0.83,-1.20,-0.82,-1.21,
1.499,0.08,0.11,0.83,-1.18,-0.94,-1.34,
1.499,0.09,0.11,0.83,-1.18,-0.94,-1.34,
1.5,0.09,0.11,0.83,-1.18,-0.94,-1.34,
1.501,0.09,0.11,0.82,-1.18,-0.94,-1.34,
1.502,0.09,0.11,0.82,-1.16,-1.04,-1.45,
1.504,0.09,0.11,0.82,-1.16,-1.04,-1.45,
1.507,0.09,0.11,0.82,-1.16,-1.04,-1.45,
1.507,0.09,0.11,0.82,-1.11,-1.04,-1.51,
1.511,0.09,0.12,0.82,-1.11,-1.04,-1.51,
1.512,0.09,0.13,0.82,-1.11,-1.04,-1.51,
1.512,0.09,0.13,0.82,-1.06,-1.04,-1.56,
1.514,0.10,0.13,0.82,-1.06,-1.04,-1.56,
1.517,0.09,0.13,0.83,-1.06,-1.04,-1.56,
1.517,0.09,0.13,0.83,-1.03,-0.90,-1.52,
1.519,0.10,0.14,0.83,-1.03,-0.90,-1.52,
1.522,0.10,0.14,0.83,-1.00,-0.85,-1.50,
1.522,0.10,0.14,0.84,-1.00,-0.85,-1.50,
1.524,0.10,0.14,0.85,-1.00,-0.85,-1.50,
1.527,0.10,0.15,0.85,-1.00,-0.85,-1.50,
1.527,0.10,0.15,0.85,-0.93,-0.78,-1.40,
1.529,0.10,0.15,0.85,-0.93,-0.78,-1.40,
1.531,0.10,0.16,0.86,-0.93,-0.78,-1.40,
1.532,0.10,0.16,0.86,-0.91,-0.73,-1.27,
1.534,0.10,0.16,0.86,-0.91,-0.73,-1.27,
1.537,0.10,0.16,0.86,-0.91,-0.73,-1.27,
1.537,0.10,0.16,0.86,-0.88,-0.62,-1.21,
1.539,0.10,0.16,0.86,-0.88,-0.62,-1.21,
1.541,0.10,0.16,0.86,-0.88,-0.62,-1.21,
1.542,0.10,0.16,0.86,-0.87,-0.62,-1.18,
1.544,0.10,0.16,0.85,-0.87,-0.62,-1.18,
1.546,0.10,0.16,0.85,-0.88,-0.62,-1.17,
1.546,0.11,0.16,0.86,-0.88,-0.62,-1.17,
1.548,0.11,0.16,0.85,-0.88,-0.62,-1.17,
1.552,0.11,0.15,0.85,-0.88,-0.62,-1.17,
1.552,0.11,0.15,0.85,-0.81,-0.64,-1.18,
1.554,0.12,0.15,0.84,-0.81,-0.64,-1.18,
1.556,0.12,0.15,0.83,-0.81,-0.64,-1.18,
1.557,0.12,0.15,0.83,-0.77,-0.67,-1.23,
1.559,0.12,0.16,0.83,-0.77,-0.67,-1.23,
1.561,0.13,0.16,0.81,-0.77,-0.67,-1.23,
1.562,0.13,0.16,0.81,-0.68,-0.67,-1.38,
1.563,0.13,0.17,0.80,-0.68,-0.67,-1.38,
1.566,0.13,0.17,0.79,-0.68,-0.67,-1.38,
1.567,0.13,0.17,0.79,-0.60,-0.60,-1.54,
1.568,0.13,0.18,0.78,-0.60,-0.60,-1.54,
1.571,0.13,0.18,0.78,-0.53,-0.51,-1.78,
1.572,0.13,0.19,0.78,-0.53,-0.51,-1.78,
1.574,0.12,0.20,0.77,-0.53,-0.51,-1.78,
1.58,0.12,0.21,0.76,-0.53,-0.51,-1.78,
1.58,0.12,0.21,0.76,-0.50,-0.33,-1.92,
1.58,0.11,0.21,0.76,-0.50,-0.33,-1.92,
1.581,0.11,0.22,0.76,-0.50,-0.33,-1.92,
1.581,0.11,0.22,0.76,-0.57,-0.19,-2.03,
1.583,0.10,0.23,0.75,-0.57,-0.19,-2.03,
1.586,0.10,0.23,0.75,-0.64,-0.04,-2.11,
1.586,0.09,0.23,0.75,-0.64,-0.04,-2.11,
1.588,0.09,0.23,0.76,-0.64,-0.04,-2.11,
1.591,0.08,0.23,0.75,-0.64,-0.04,-2.11,
1.591,0.08,0.23,0.75,-0.77,0.07,-2.18,
1.593,0.07,0.22,0.75,-0.77,0.07,-2.18,
1.595,0.07,0.22,0.75,-0.88,0.10,-2.18,
1.596,0.06,0.22,0.76,-0.88,0.10,-2.18,
1.598,0.05,0.20,0.76,-0.88,0.10,-2.18,
1.601,0.05,0.19,0.78,-0.88,0.10,-2.18,
1.602,0.05,0.19,0.78,-1.00,0.02,-2.15,
1.603,0.04,0.18,0.79,-1.00,0.02,-2.15,
1.606,0.04,0.18,0.79,-1.16,-0.18,-2.03,
1.607,0.03,0.18,0.80,-1.16,-0.18,-2.03,
1.608,0.03,0.17,0.82,-1.16,-0.18,-2.03,
1.615,0.02,0.16,0.84,-1.16,-0.18,-2.03,
1.615,0.02,0.16,0.84,-1.30,-0.34,-1.75,
1.615,0.02,0.15,0.86,-1.30,-0.34,-1.75,
1.616,0.03,0.14,0.88,-1.30,-0.34,-1.75,
1.616,0.03,0.14,0.88,-1.39,-0.48,-1.41,
1.617,0.04,0.13,0.90,-1.39,-0.48,-1.41,
1.62,0.04,0.13,0.90,-1.36,-0.65,-1.05,
1.62,0.04,0.12,0.91,-1.36,-0.65,-1.05,
1.623,0.05,0.11,0.93,-1.36,-0.65,-1.05,
1.625,0.06,0.10,0.94,-1.36,-0.65,-1.05,
1.625,0.06,0.10,0.94,-1.21,-0.79,-0.70,
1.628,0.07,0.10,0.94,-1.21,-0.79,-0.70,
1.63,0.08,0.09,0.95,-1.21,-0.79,-0.70,
1.63,0.08,0.09,0.95,-1.01,-0.95,-0.48,
1.632,0.09,0.07,0.96,-1.01,-0.95,-0.48,
1.635,0.09,0.07,0.95,-1.01,-0.95,-0.48,
1.635,0.09,0.07,0.95,-0.81,-1.05,-0.36,
1.637,0.10,0.07,0.96,-0.81,-1.05,-0.36,
1.64,0.10,0.06,0.96,-0.81,-1.05,-0.36,
1.64,0.10,0.06,0.96,-0.64,-1.21,-0.25,
1.642,0.11,0.06,0.96,-0.64,-1.21,-0.25,
1.647,0.11,0.06,0.96,-0.53,-1.23,-0.24,
1.647,0.11,0.06,0.96,-0.53,-1.23,-0.24,
1.648,0.12,0.06,0.96,-0.53,-1.23,-0.24,
1.65,0.11,0.06,0.95,-0.53,-1.23,-0.24,
1.65,0.11,0.06,0.95,-0.39,-1.25,-0.26,
1.652,0.11,0.06,0.95,-0.39,-1.25,-0.26,
1.655,0.12,0.06,0.94,-0.39,-1.25,-0.26,
1.655,0.12,0.06,0.94,-0.33,-1.21,-0.32,
1.657,0.12,0.06,0.94,-0.33,-1.21,-0.32,
1.661,0.12,0.06,0.94,-0.33,-1.21,-0.32,
1.661,0.12,0.06,0.94,-0.30,-1.14,-0.44,
1.662,0.12,0.05,0.93,-0.30,-1.14,-0.44,
1.665,0.11,0.05,0.94,-0.30,-1.14,-0.44,
1.665,0.11,0.05,0.94,-0.24,-1.14,-0.48,
1.667,0.12,0.05,0.94,-0.24,-1.14,-0.48,
1.67,0.12,0.05,0.94,-0.21,-1.18,-0.52,
1.67,0.11,0.05,0.94,-0.21,-1.18,-0.52,
1.672,0.11,0.06,0.95,-0.21,-1.18,-0.52,
1.674,0.11,0.07,0.96,-0.21,-1.18,-0.52,
1.675,0.11,0.07,0.96,-0.16,-1.16,-0.46,
1.678,0.11,0.08,0.96,-0.16,-1.16,-0.46,
1.679,0.11,0.10,0.97,-0.16,-1.16,-0.46,
1.68,0.11,0.10,0.97,-0.17,-1.00,-0.35,
1.682,0.11,0.11,0.98,-0.17,-1.00,-0.35,
1.684,0.11,0.13,0.99,-0.17,-1.00,-0.35,
1.685,0.11,0.13,0.99,-0.16,-0.68,-0.22,
1.687,0.12,0.15,0.99,-0.16,-0.68,-0.22,
1.69,0.12,0.16,1.00,-0.16,-0.68,-0.22,
1.69,0.12,0.16,1.00,-0.07,-0.38,-0.06,
1.691,0.12,0.18,1.00,-0.07,-0.38,-0.06,
1.694,0.12,0.19,1.01,-0.07,-0.38,-0.06,
1.695,0.12,0.19,1.01,-0.01,-0.00,0.06,
1.697,0.12,0.20,1.01,-0.01,-0.00,0.06,
1.699,0.12,0.20,1.01,0.05,0.31,0.14,
1.7,0.12,0.19,1.02,0.05,0.31,0.14,
1.702,0.12,0.19,1.02,0.05,0.31,0.14,
1.704,0.13,0.19,1.02,0.05,0.31,0.14,
1.704,0.13,0.19,1.02,0.13,0.44,0.23,
1.707,0.13,0.18,1.01,0.13,0.44,0.23,
1.709,0.13,0.17,1.01,0.13,0.44,0.23,
1.709,0.13,0.17,1.01,0.18,0.41,0.26,
1.712,0.13,0.17,1.00,0.18,0.41,0.26,
1.714,0.13,0.16,0.99,0.18,0.41,0.26,
1.714,0.13,0.16,0.99,0.26,0.28,0.15,
1.717,0.12,0.15,0.99,0.26,0.28,0.15,
1.719,0.12,0.15,0.99,0.27,0.18,0.00,
1.719,0.12,0.14,0.98,0.27,0.18,0.00,
1.721,0.11,0.13,0.97,0.27,0.18,0.00,
1.724,0.11,0.12,0.96,0.27,0.18,0.00,
1.724,0.11,0.12,0.96,0.22,0.03,-0.13,
1.732,0.10,0.11,0.95,0.22,0.03,-0.13,
1.732,0.09,0.10,0.94,0.22,0.03,-0.13,
1.733,0.09,0.10,0.94,0.18,-0.16,-0.29,
1.733,0.08,0.09,0.92,0.18,-0.16,-0.29,
1.736,0.07,0.09,0.92,0.18,-0.16,-0.29,
1.736,0.07,0.09,0.92,0.06,-0.35,-0.55,
1.736,0.06,0.08,0.90,0.06,-0.35,-0.55,
1.739,0.05,0.08,0.89,0.06,-0.35,-0.55,
1.739,0.05,0.08,0.89,-0.10,-0.47,-0.76,
1.742,0.04,0.07,0.89,-0.10,-0.47,-0.76,
1.745,0.04,0.08,0.89,-0.10,-0.47,-0.76,
1.746,0.04,0.08,0.89,-0.29,-0.56,-1.00,
1.746,0.03,0.07,0.89,-0.29,-0.56,-1.00,
1.749,0.03,0.07,0.90,-0.29,-0.56,-1.00,
1.749,0.03,0.07,0.90,-0.41,-0.61,-1.06,
1.751,0.02,0.06,0.91,-0.41,-0.61,-1.06,
1.754,0.02,0.07,0.92,-0.41,-0.61,-1.06,
1.754,0.02,0.07,0.92,-0.52,-0.64,-1.00,
1.757,0.02,0.06,0.93,-0.52,-0.64,-1.00,
1.759,0.01,0.06,0.94,-0.52,-0.64,-1.00,
1.759,0.01,0.06,0.94,-0.60,-0.68,-0.82,
1.761,0.02,0.07,0.96,-0.60,-0.68,-0.82,
1.764,0.01,0.08,0.97,-0.60,-0.68,-0.82,
1.764,0.01,0.08,0.97,-0.65,-0.69,-0.58,
1.766,0.02,0.08,0.99,-0.65,-0.69,-0.58,
1.769,0.02,0.08,0.99,-0.65,-0.55,-0.32,
1.769,0.02,0.08,1.01,-0.65,-0.55,-0.32,
1.771,0.02,0.08,1.03,-0.65,-0.55,-0.32,
1.774,0.02,0.08,1.03,-0.62,-0.46,0.02,
1.774,0.03,0.07,1.04,-0.62,-0.46,0.02,
1.776,0.03,0.07,1.06,-0.62,-0.46,0.02,
1.778,0.04,0.06,1.06,-0.62,-0.46,0.02,
1.779,0.04,0.06,1.06,-0.55,-0.50,0.38,
1.781,0.04,0.05,1.08,-0.55,-0.50,0.38,
1.783,0.05,0.05,1.08,-0.55,-0.50,0.38,
1.784,0.05,0.05,1.08,-0.47,-0.63,0.61,
1.786,0.05,0.05,1.08,-0.47,-0.63,0.61,
1.788,0.05,0.06,1.09,-0.47,-0.63,0.61,
1.789,0.05,0.06,1.09,-0.35,-0.74,0.76,
1.79,0.05,0.06,1.10,-0.35,-0.74,0.76,
1.795,0.05,0.06,1.10,-0.29,-0.70,0.86,
1.795,0.05,0.06,1.09,-0.29,-0.70,0.86,
1.796,0.05,0.07,1.10,-0.29,-0.70,0.86,
1.798,0.05,0.08,1.10,-0.29,-0.70,0.86,
1.798,0.05,0.08,1.10,-0.31,-0.60,0.95,
1.801,0.05,0.09,1.09,-0.31,-0.60,0.95,
1.803,0.05,0.09,1.09,-0.31,-0.60,0.95,
1.804,0.05,0.09,1.09,-0.30,-0.45,0.94,
1.805,0.05,0.10,1.09,-0.30,-0.45,0.94,
1.809,0.05,0.10,1.08,-0.30,-0.45,0.94,
1.812,0.05,0.10,1.08,-0.25,-0.32,0.91,
1.813,0.05,0.11,1.08,-0.25,-0.32,0.91,
1.813,0.05,0.11,1.06,-0.25,-0.32,0.91,
1.813,0.05,0.11,1.06,-0.25,-0.19,0.83,
1.815,0.04,0.11,1.06,-0.25,-0.19,0.83,
1.819,0.04,0.11,1.06,-0.23,-0.12,0.67,
1.819,0.04,0.11,1.05,-0.23,-0.12,0.67,
1.823,0.04,0.11,1.04,-0.23,-0.12,0.67,
1.823,0.03,0.11,1.04,-0.23,-0.12,0.67,
1.823,0.03,0.11,1.04,-0.30,-0.07,0.49,
1.825,0.03,0.10,1.04,-0.30,-0.07,0.49,
1.831,0.03,0.10,1.04,-0.30,-0.07,0.49,
1.832,0.03,0.10,1.04,-0.33,-0.14,0.39,
1.832,0.03,0.10,1.03,-0.33,-0.14,0.39,
1.834,0.03,0.10,1.04,-0.33,-0.14,0.39,
1.834,0.03,0.10,1.04,-0.37,-0.18,0.36,
1.836,0.03,0.09,1.04,-0.37,-0.18,0.36,
1.839,0.03,0.09,1.05,-0.37,-0.18,0.36,
1.839,0.03,0.09,1.05,-0.33,-0.20,0.32,
1.841,0.03,0.09,1.05,-0.33,-0.20,0.32,
1.843,0.03,0.09,1.05,-0.37,-0.28,0.42,
1.844,0.03,0.08,1.06,-0.37,-0.28,0.42,
1.846,0.03,0.08,1.06,-0.37,-0.28,0.42,
1.848,0.04,0.08,1.06,-0.37,-0.28,0.42,
1.849,0.04,0.08,1.06,-0.36,-0.34,0.52,
1.851,0.05,0.08,1.07,-0.36,-0.34,0.52,
1.853,0.05,0.08,1.07,-0.25,-0.39,0.57,
1.854,0.05,0.07,1.07,-0.25,-0.39,0.57,
1.856,0.06,0.07,1.08,-0.25,-0.39,0.57,
1.858,0.06,0.06,1.09,-0.25,-0.39,0.57,
1.859,0.06,0.06,1.09,-0.11,-0.48,0.67,
1.861,0.06,0.06,1.10,-0.11,-0.48,0.67,
1.863,0.07,0.06,1.10,-0.11,-0.48,0.67,
1.863,0.07,0.06,1.10,-0.06,-0.58,0.81,
1.865,0.07,0.06,1.11,-0.06,-0.58,0.81,
1.868,0.07,0.06,1.11,0.04,-0.69,0.97,
1.868,0.07,0.06,1.12,0.04,-0.69,0.97,
1.871,0.06,0.06,1.12,0.04,-0.69,0.97,
1.873,0.06,0.07,1.12,0.04,-0.69,0.97,
1.874,0.06,0.07,1.12,0.05,-0.68,1.09,
1.875,0.06,0.07,1.12,0.05,-0.68,1.09,
1.879,0.06,0.08,1.11,0.05,-0.68,1.09,
1.88,0.06,0.08,1.11,0.04,-0.65,1.17,
1.88,0.06,0.10,1.10,0.04,-0.65,1.17,
1.883,0.05,0.11,1.09,0.04,-0.65,1.17,
1.883,0.05,0.11,1.09,0.01,-0.51,1.14,
1.885,0.05,0.12,1.09,0.01,-0.51,1.14,
1.888,0.04,0.13,1.08,0.01,-0.51,1.14,
1.888,0.04,0.13,1.08,-0.03,-0.29,0.95,
1.89,0.05,0.14,1.06,-0.03,-0.29,0.95,
1.893,0.05,0.14,1.06,-0.09,-0.12,0.76,
1.893,0.04,0.15,1.05,-0.09,-0.12,0.76,
1.895,0.04,0.17,1.03,-0.09,-0.12,0.76,
1.897,0.05,0.17,1.02,-0.09,-0.12,0.76,
1.898,0.05,0.17,1.02,-0.06,0.11,0.50,
1.9,0.05,0.19,1.01,-0.06,0.11,0.50,
1.903,0.05,0.20,1.01,-0.06,0.11,0.50,
1.903,0.05,0.20,1.01,-0.02,0.33,0.24,
1.905,0.05,0.21,1.00,-0.02,0.33,0.24,
1.908,0.06,0.22,0.99,-0.02,0.33,0.24,
1.908,0.06,0.22,0.99,0.04,0.54,0.07,
1.91,0.07,0.23,0.99,0.04,0.54,0.07,
1.913,0.07,0.23,0.98,0.04,0.54,0.07,
1.913,0.07,0.23,0.98,0.13,0.71,-0.03,
1.915,0.08,0.23,0.97,0.13,0.71,-0.03,
1.918,0.08,0.23,0.97,0.28,0.83,-0.17,
1.918,0.08,0.24,0.97,0.28,0.83,-0.17,
1.92,0.09,0.23,0.96,0.28,0.83,-0.17,
1.923,0.09,0.23,0.97,0.28,0.83,-0.17,
1.923,0.09,0.23,0.97,0.44,0.86,-0.32,
1.925,0.09,0.23,0.97,0.44,0.86,-0.32,
1.928,0.09,0.23,0.98,0.44,0.86,-0.32,
1.928,0.09,0.23,0.98,0.53,0.83,-0.36,
1.933,0.09,0.23,0.98,0.53,0.83,-0.36,
1.934,0.09,0.23,0.98,0.59,0.77,-0.28,
1.934,0.10,0.22,0.98,0.59,0.77,-0.28,
1.934,0.09,0.23,0.99,0.59,0.77,-0.28,
1.937,0.09,0.22,1.00,0.59,0.77,-0.28,
1.937,0.09,0.22,1.00,0.60,0.68,-0.19,
1.939,0.09,0.22,1.01,0.60,0.68,-0.19,
1.943,0.09,0.22,1.01,0.60,0.68,-0.04,
1.943,0.09,0.21,1.02,0.60,0.68,-0.04,
1.946,0.08,0.21,1.04,0.60,0.68,-0.04,
1.947,0.08,0.20,1.05,0.60,0.68,-0.04,
1.947,0.08,0.20,1.05,0.59,0.55,0.15,
1.949,0.08,0.18,1.06,0.59,0.55,0.15,
1.952,0.08,0.17,1.07,0.59,0.55,0.15,
1.952,0.08,0.17,1.07,0.55,0.40,0.41,
1.954,0.08,0.16,1.08,0.55,0.40,0.41,
1.957,0.07,0.16,1.08,0.55,0.40,0.41,
1.957,0.07,0.16,1.08,0.50,0.15,0.62,
1.959,0.06,0.15,1.08,0.50,0.15,0.62,
1.962,0.06,0.15,1.08,0.50,0.15,0.62,
1.963,0.06,0.15,1.08,0.47,-0.06,0.79,
1.964,0.05,0.14,1.08,0.47,-0.06,0.79,
1.967,0.05,0.14,1.08,0.33,-0.19,0.80,
1.967,0.04,0.13,1.08,0.33,-0.19,0.80,
1.969,0.03,0.12,1.07,0.33,-0.19,0.80,
1.972,0.03,0.12,1.06,0.33,-0.19,0.80,
1.972,0.03,0.12,1.06,0.20,-0.36,0.79,
1.975,0.02,0.12,1.05,0.20,-0.36,0.79,
1.977,0.01,0.13,1.04,0.20,-0.36,0.79,
1.977,0.01,0.13,1.04,0.09,-0.49,0.69,
1.98,0.00,0.13,1.03,0.09,-0.49,0.69,
1.982,-0.00,0.13,1.02,0.09,-0.49,0.69,
1.982,-0.00,0.13,1.02,-0.02,-0.50,0.46,
1.984,-0.02,0.15,1.03,-0.02,-0.50,0.46,
1.987,-0.02,0.16,1.02,-0.02,-0.50,0.46,
1.987,-0.02,0.16,1.02,-0.13,-0.47,0.26,
1.989,-0.03,0.18,1.02,-0.13,-0.47,0.26,
1.992,-0.03,0.18,1.02,-0.29,-0.26,0.26,
1.992,-0.04,0.20,1.02,-0.29,-0.26,0.26,
1.994,-0.04,0.22,1.01,-0.29,-0.26,0.26,
1.996,-0.04,0.25,1.00,-0.29,-0.26,0.26,
1.997,-0.04,0.25,1.00,-0.40,0.07,0.19,
1.999,-0.05,0.26,1.00,-0.40,0.07,0.19,
2.002,-0.04,0.28,0.99,-0.40,0.07,0.19,
2.002,-0.04,0.28,0.99,-0.42,0.49,0.09,
2.004,-0.03,0.29,0.98,-0.42,0.49,0.09,
2.007,-0.02,0.29,0.96,-0.42,0.49,0.09,
2.007,-0.02,0.29,0.96,-0.37,0.86,-0.03,
2.009,-0.01,0.28,0.95,-0.37,0.86,-0.03,
2.011,0.00,0.28,0.92,-0.37,0.86,-0.03,
2.012,0.00,0.28,0.92,-0.14,0.98,-0.23,
2.017,0.01,0.27,0.89,-0.14,0.98,-0.23,
2.018,0.01,0.27,0.89,0.11,0.87,-0.57,
2.018,0.02,0.26,0.85,0.11,0.87,-0.57,
2.019,0.01,0.26,0.81,0.11,0.87,-0.57,
2.022,0.00,0.26,0.78,0.11,0.87,-0.57,
2.022,0.00,0.26,0.78,0.35,0.69,-1.23,
2.023,-0.00,0.25,0.74,0.35,0.69,-1.23,
2.026,-0.00,0.25,0.74,0.30,0.59,-1.97,
2.027,-0.00,0.26,0.72,0.30,0.59,-1.97,
2.029,0.00,0.25,0.71,0.30,0.59,-1.97,
2.031,-0.00,0.25,0.71,0.30,0.59,-1.97,
2.031,-0.00,0.25,0.71,0.28,0.55,-2.55,
2.033,0.00,0.25,0.71,0.28,0.55,-2.55,
2.037,0.01,0.24,0.72,0.28,0.55,-2.55,
2.038,0.01,0.24,0.72,0.33,0.52,-2.77,
2.038,0.00,0.23,0.75,0.33,0.52,-2.77,
2.041,0.00,0.23,0.75,0.43,0.46,-2.71,
2.042,0.01,0.23,0.76,0.43,0.46,-2.71,
2.043,0.00,0.23,0.80,0.43,0.46,-2.71,
2.047,-0.00,0.22,0.82,0.43,0.46,-2.71,
2.047,-0.00,0.22,0.82,0.44,0.32,-2.34,
2.049,-0.01,0.22,0.84,0.44,0.32,-2.34,
2.051,-0.01,0.22,0.84,0.43,0.27,-1.78,
2.051,-0.01,0.22,0.88,0.43,0.27,-1.78,
2.054,-0.02,0.23,0.90,0.43,0.27,-1.78,
2.056,-0.03,0.24,0.92,0.43,0.27,-1.78,
2.057,-0.03,0.24,0.92,0.32,0.27,-1.28,
2.059,-0.03,0.24,0.95,0.32,0.27,-1.28,
2.061,-0.03,0.25,0.97,0.32,0.27,-1.28,
2.061,-0.03,0.25,0.97,0.19,0.37,-0.80,
2.064,-0.04,0.25,0.99,0.19,0.37,-0.80,
2.066,-0.04,0.25,1.00,0.19,0.37,-0.80,
2.066,-0.04,0.25,1.00,0.10,0.49,-0.31,
2.068,-0.04,0.25,1.01,0.10,0.49,-0.31,
2.071,-0.04,0.25,1.02,0.10,0.49,-0.31,
2.072,-0.04,0.25,1.02,0.01,0.58,0.03,
2.074,-0.04,0.25,1.02,0.01,0.58,0.03,
2.075,-0.04,0.25,1.02,0.01,0.58,0.24,
2.076,-0.04,0.25,1.03,0.01,0.58,0.24,
2.079,-0.04,0.24,1.03,0.01,0.58,0.24,
2.081,-0.05,0.23,1.02,0.01,0.58,0.24,
2.082,-0.05,0.23,1.02,-0.00,0.55,0.35,
2.083,-0.04,0.22,1.02,-0.00,0.55,0.35,
2.086,-0.04,0.21,1.01,-0.00,0.55,0.35,
2.086,-0.04,0.21,1.01,-0.06,0.42,0.32,
2.088,-0.04,0.20,0.99,-0.06,0.42,0.32,
2.091,-0.04,0.20,0.99,-0.06,0.18,0.18,
2.091,-0.04,0.19,0.99,-0.06,0.18,0.18,
2.092,-0.05,0.19,0.99,-0.06,0.18,0.18,
2.097,-0.05,0.18,0.98,-0.06,0.18,0.18,
2.097,-0.05,0.18,0.98,-0.07,0.01,0.01,
2.099,-0.05,0.18,0.98,-0.07,0.01,0.01,
2.1,-0.06,0.17,0.98,-0.07,0.01,0.01,
2.101,-0.06,0.17,0.98,-0.14,-0.11,-0.06,
2.102,-0.07,0.17,0.98,-0.14,-0.11,-0.06,
2.106,-0.07,0.17,0.97,-0.14,-0.11,-0.06,
2.106,-0.07,0.17,0.97,-0.23,-0.23,-0.08,
2.108,-0.07,0.17,0.96,-0.23,-0.23,-0.08,
2.111,-0.07,0.17,0.95,-0.23,-0.23,-0.08,
2.111,-0.07,0.17,0.95,-0.36,-0.26,-0.16,
2.117,-0.06,0.16,0.94,-0.36,-0.26,-0.16,
2.118,-0.06,0.16,0.94,-0.40,-0.27,-0.31,
2.118,-0.07,0.14,0.92,-0.40,-0.27,-0.31,
2.118,-0.08,0.16,0.90,-0.40,-0.27,-0.31,
2.121,-0.10,0.18,0.88,-0.40,-0.27,-0.31,
2.121,-0.10,0.18,0.88,-0.41,-0.50,-0.59,
2.123,-0.12,0.20,0.87,-0.41,-0.50,-0.59,
2.125,-0.13,0.21,0.86,-0.41,-0.50,-0.59,
2.126,-0.13,0.21,0.86,-0.68,-0.31,-0.94,
2.128,-0.13,0.22,0.85,-0.68,-0.31,-0.94,
2.135,-0.12,0.24,0.84,-0.68,-0.31,-0.94,
2.136,-0.12,0.24,0.84,-1.03,0.00,-1.20,
2.137,-0.11,0.23,0.84,-1.03,0.00,-1.20,
2.137,-0.10,0.23,0.84,-1.03,0.00,-1.20,
2.137,-0.10,0.23,0.84,-1.12,0.23,-1.44,
2.137,-0.08,0.23,0.84,-1.12,0.23,-1.44,
