
time,gFx,gFy,gFz,ax,ay,az,
0.002,0.00,0.07,1.05,-0.17,-0.19,0.50,
0.002,0.01,0.07,1.04,-0.17,-0.19,0.50,
0.002,0.01,0.07,1.04,-0.17,-0.18,0.55,
0.003,0.01,0.07,1.04,-0.17,-0.18,0.55,
0.005,0.02,0.07,1.04,-0.17,-0.18,0.55,
0.006,0.02,0.07,1.04,-0.17,-0.19,0.49,
0.007,0.03,0.08,1.04,-0.17,-0.19,0.49,
0.01,0.03,0.08,1.02,-0.17,-0.19,0.49,
0.011,0.03,0.08,1.02,-0.05,-0.16,0.46,
0.013,0.04,0.08,1.02,-0.05,-0.16,0.46,
0.015,0.05,0.09,1.01,-0.05,-0.16,0.46,
0.016,0.05,0.09,1.01,0.07,-0.11,0.34,
0.018,0.05,0.10,1.01,0.07,-0.11,0.34,
0.021,0.06,0.09,1.00,0.07,-0.11,0.34,
0.021,0.06,0.09,1.00,0.22,-0.05,0.20,
0.023,0.06,0.10,0.99,0.22,-0.05,0.20,
0.026,0.06,0.11,0.98,0.22,-0.05,0.20,
0.026,0.06,0.11,0.98,0.30,0.03,0.08,
0.028,0.07,0.11,0.97,0.30,0.03,0.08,
0.03,0.07,0.11,0.97,0.30,0.03,0.08,
0.03,0.07,0.11,0.97,0.37,0.10,-0.07,
0.032,0.07,0.12,0.98,0.37,0.10,-0.07,
0.035,0.07,0.12,0.98,0.37,0.10,-0.07,
0.035,0.07,0.12,0.98,0.42,0.16,-0.20,
0.037,0.08,0.12,0.97,0.42,0.16,-0.20,
0.04,0.07,0.12,0.97,0.42,0.16,-0.20,
0.04,0.07,0.12,0.97,0.47,0.20,-0.18,
0.043,0.07,0.12,0.98,0.47,0.20,-0.18,
0.045,0.07,0.12,0.98,0.47,0.20,-0.18,
0.045,0.07,0.12,0.98,0.49,0.21,-0.22,
0.047,0.06,0.12,0.99,0.49,0.21,-0.22,
0.051,0.06,0.12,0.99,0.49,0.21,-0.22,
0.051,0.06,0.12,0.99,0.45,0.22,-0.13,
0.053,0.06,0.12,0.99,0.45,0.22,-0.13,
0.056,0.06,0.12,0.99,0.45,0.22,-0.13,
0.056,0.06,0.12,0.99,0.38,0.22,-0.04,
0.057,0.05,0.12,0.99,0.38,0.22,-0.04,
0.06,0.05,0.12,0.99,0.38,0.22,-0.04,
0.061,0.05,0.12,0.99,0.36,0.20,-0.03,
0.063,0.04,0.12,1.00,0.36,0.20,-0.03,
0.065,0.04,0.12,1.00,0.36,0.20,-0.03,
0.065,0.04,0.12,1.00,0.28,0.17,-0.02,
0.068,0.04,0.12,1.00,0.28,0.17,-0.02,
0.07,0.03,0.11,1.00,0.28,0.17,-0.02,
0.071,0.03,0.11,1.00,0.17,0.12,0.05,
0.073,0.03,0.12,1.00,0.17,0.12,0.05,
0.075,0.03,0.12,1.00,0.15,0.08,0.08,
0.076,0.03,0.12,1.00,0.15,0.08,0.08,
0.078,0.03,0.11,0.99,0.15,0.08,0.08,
0.08,0.03,0.11,0.99,0.09,0.10,0.06,
0.08,0.03,0.11,0.99,0.09,0.10,0.06,
0.082,0.03,0.11,0.98,0.09,0.10,0.06,
0.085,0.04,0.11,0.97,0.09,0.10,0.06,
0.085,0.04,0.11,0.97,0.10,0.02,-0.03,
0.088,0.04,0.11,0.97,0.10,0.02,-0.03,
0.09,0.03,0.11,0.97,0.10,0.02,-0.03,
0.091,0.03,0.11,0.97,0.13,-0.01,-0.18,
0.092,0.04,0.12,0.97,0.13,-0.01,-0.18,
0.095,0.04,0.13,0.97,0.13,-0.01,-0.18,
0.095,0.04,0.13,0.97,0.16,0.01,-0.23,
0.099,0.04,0.13,0.97,0.16,0.01,-0.23,
0.1,0.04,0.13,0.97,0.20,0.13,-0.24,
0.1,0.04,0.14,0.98,0.20,0.13,-0.24,
0.102,0.04,0.14,0.99,0.20,0.13,-0.24,
0.105,0.04,0.14,0.99,0.20,0.13,-0.24,
0.105,0.04,0.14,0.99,0.21,0.24,-0.14,
0.107,0.04,0.14,1.00,0.21,0.24,-0.14,
0.109,0.04,0.14,1.00,0.21,0.24,-0.14,
0.109,0.04,0.14,1.00,0.22,0.30,-0.02,
0.113,0.05,0.15,1.00,0.22,0.30,-0.02,
0.114,0.05,0.14,1.01,0.22,0.30,-0.02,
0.114,0.05,0.14,1.01,0.23,0.29,0.06,
0.117,0.04,0.14,1.01,0.23,0.29,0.06,
0.119,0.04,0.13,1.02,0.23,0.29,0.06,
0.119,0.04,0.13,1.02,0.26,0.28,0.12,
0.122,0.05,0.13,1.02,0.26,0.28,0.12,
0.125,0.05,0.13,1.02,0.22,0.19,0.19,
0.125,0.05,0.13,1.01,0.22,0.19,0.19,
0.127,0.05,0.13,1.01,0.22,0.19,0.19,
0.131,0.05,0.13,1.01,0.22,0.19,0.19,
0.131,0.05,0.13,1.01,0.24,0.13,0.22,
0.132,0.06,0.13,1.01,0.24,0.13,0.22,
0.134,0.06,0.13,1.01,0.24,0.13,0.22,
0.135,0.06,0.13,1.01,0.28,0.10,0.21,
0.137,0.06,0.13,1.01,0.28,0.10,0.21,
0.14,0.06,0.13,1.00,0.28,0.10,0.21,
0.14,0.06,0.13,1.00,0.35,0.08,0.18,
0.142,0.06,0.13,1.00,0.35,0.08,0.18,
0.145,0.07,0.13,1.00,0.35,0.08,0.18,
0.145,0.07,0.13,1.00,0.38,0.08,0.12,
0.147,0.07,0.13,1.00,0.38,0.08,0.12,
0.151,0.07,0.13,0.98,0.38,0.08,0.12,
0.152,0.07,0.13,0.98,0.41,0.05,0.03,
0.152,0.07,0.13,0.98,0.41,0.05,0.03,
0.155,0.07,0.13,0.98,0.43,0.07,-0.03,
0.155,0.07,0.13,0.99,0.43,0.07,-0.03,
0.156,0.07,0.13,0.98,0.43,0.07,-0.03,
0.159,0.07,0.13,0.97,0.43,0.07,-0.03,
0.16,0.07,0.13,0.97,0.47,0.07,-0.07,
0.162,0.07,0.13,0.97,0.47,0.07,-0.07,
0.164,0.08,0.14,0.97,0.47,0.07,-0.07,
0.164,0.08,0.14,0.97,0.51,0.07,-0.13,
0.166,0.08,0.14,0.97,0.51,0.07,-0.13,
0.169,0.08,0.14,0.96,0.51,0.07,-0.13,
0.17,0.08,0.14,0.96,0.54,0.07,-0.20,
0.172,0.09,0.14,0.96,0.54,0.07,-0.20,
0.174,0.09,0.14,0.96,0.59,0.11,-0.28,
0.175,0.08,0.14,0.96,0.59,0.11,-0.28,
0.176,0.08,0.14,0.96,0.59,0.11,-0.28,
0.18,0.08,0.14,0.96,0.59,0.11,-0.28,
0.181,0.08,0.14,0.96,0.62,0.10,-0.30,
0.182,0.08,0.14,0.96,0.62,0.10,-0.30,
0.184,0.08,0.14,0.96,0.62,0.10,-0.30,
0.184,0.08,0.14,0.96,0.60,0.11,-0.32,
0.186,0.08,0.14,0.97,0.60,0.11,-0.32,
0.189,0.08,0.14,0.97,0.60,0.11,-0.32,
0.189,0.08,0.14,0.97,0.57,0.12,-0.31,
0.191,0.08,0.15,0.98,0.57,0.12,-0.31,
0.194,0.08,0.15,0.99,0.57,0.12,-0.31,
0.194,0.08,0.15,0.99,0.56,0.10,-0.16,
0.2,0.09,0.15,0.99,0.56,0.10,-0.16,
0.201,0.08,0.14,1.00,0.56,0.10,-0.16,
0.201,0.08,0.14,1.00,0.55,0.18,-0.05,
0.201,0.09,0.15,1.01,0.55,0.18,-0.05,
0.203,0.09,0.15,1.01,0.55,0.18,-0.05,
0.203,0.09,0.15,1.01,0.62,0.15,0.08,
0.206,0.08,0.14,1.01,0.62,0.15,0.08,
0.208,0.09,0.14,1.01,0.62,0.15,0.08,
0.209,0.09,0.14,1.01,0.63,0.18,0.22,
0.211,0.09,0.14,1.02,0.63,0.18,0.22,
0.213,0.09,0.13,1.02,0.63,0.18,0.22,
0.214,0.09,0.13,1.02,0.63,0.15,0.23,
0.215,0.10,0.13,1.02,0.63,0.15,0.23,
0.218,0.10,0.13,1.03,0.63,0.15,0.23,
0.219,0.10,0.13,1.03,0.66,0.09,0.31,
0.22,0.10,0.13,1.03,0.66,0.09,0.31,
0.223,0.10,0.13,1.02,0.66,0.09,0.31,
0.224,0.10,0.13,1.02,0.75,0.05,0.32,
0.226,0.10,0.13,1.03,0.75,0.05,0.32,
0.229,0.10,0.12,1.02,0.75,0.05,0.32,
0.229,0.10,0.12,1.02,0.77,-0.00,0.32,
0.232,0.10,0.12,1.02,0.77,-0.00,0.32,
0.233,0.10,0.13,1.01,0.77,-0.00,0.32,
0.234,0.10,0.13,1.01,0.74,-0.01,0.31,
0.236,0.10,0.13,1.00,0.74,-0.01,0.31,
0.238,0.10,0.13,1.01,0.74,-0.01,0.31,
0.238,0.10,0.13,1.01,0.74,-0.01,0.23,
0.24,0.10,0.13,1.01,0.74,-0.01,0.23,
0.243,0.10,0.12,1.00,0.74,-0.01,0.23,
0.243,0.10,0.12,1.00,0.79,0.01,0.13,
0.245,0.10,0.13,0.99,0.79,0.01,0.13,
0.251,0.11,0.13,0.99,0.79,0.01,0.13,
0.252,0.11,0.13,0.99,0.79,-0.01,0.08,
0.252,0.11,0.13,0.98,0.79,-0.01,0.08,
0.253,0.11,0.13,0.98,0.82,-0.00,-0.01,
0.253,0.11,0.13,0.98,0.82,-0.00,-0.01,
0.255,0.11,0.13,0.98,0.82,-0.00,-0.01,
0.258,0.11,0.13,0.98,0.85,0.01,-0.11,
0.258,0.11,0.13,0.97,0.85,0.01,-0.11,
0.26,0.11,0.13,0.97,0.85,0.01,-0.11,
0.264,0.12,0.13,0.96,0.85,0.01,-0.11,
0.265,0.12,0.13,0.96,0.86,-0.01,-0.16,
0.266,0.12,0.13,0.97,0.86,-0.01,-0.16,
0.268,0.12,0.13,0.96,0.86,-0.01,-0.16,
0.268,0.12,0.13,0.96,0.95,0.02,-0.27,
0.27,0.12,0.13,0.96,0.95,0.02,-0.27,
0.273,0.12,0.13,0.97,0.95,0.02,-0.27,
0.273,0.12,0.13,0.97,0.96,-0.02,-0.25,
0.275,0.12,0.12,0.96,0.96,-0.02,-0.25,
0.278,0.12,0.12,0.96,1.00,-0.01,-0.25,
0.279,0.12,0.12,0.97,1.00,-0.01,-0.25,
0.28,0.13,0.12,0.98,1.00,-0.01,-0.25,
0.283,0.13,0.12,0.98,1.00,-0.06,-0.22,
0.283,0.13,0.13,0.98,1.00,-0.06,-0.22,
0.285,0.12,0.12,0.98,1.00,-0.06,-0.22,
0.288,0.12,0.12,0.98,1.02,-0.03,-0.14,
0.288,0.13,0.13,0.98,1.02,-0.03,-0.14,
0.29,0.12,0.13,0.98,1.02,-0.03,-0.14,
0.293,0.12,0.12,0.99,1.02,-0.03,-0.14,
0.293,0.12,0.12,0.99,1.01,-0.03,-0.10,
0.295,0.12,0.12,0.99,1.01,-0.03,-0.10,
0.298,0.12,0.12,0.99,1.01,-0.03,-0.10,
0.299,0.12,0.12,0.99,0.96,-0.05,-0.07,
0.3,0.12,0.12,1.00,0.96,-0.05,-0.07,
0.303,0.12,0.12,0.99,0.96,-0.05,-0.07,
0.303,0.12,0.12,0.99,0.95,-0.06,-0.00,
0.305,0.11,0.11,1.00,0.95,-0.06,-0.00,
0.307,0.11,0.11,1.00,0.95,-0.06,-0.00,
0.308,0.11,0.11,1.00,0.93,-0.11,0.06,
0.309,0.11,0.11,1.00,0.93,-0.11,0.06,
0.318,0.11,0.11,1.00,0.93,-0.11,0.06,
0.318,0.11,0.11,1.00,0.86,-0.16,0.06,
0.318,0.10,0.11,1.00,0.86,-0.16,0.06,
0.319,0.10,0.11,0.99,0.86,-0.16,0.06,
0.319,0.10,0.11,0.99,0.81,-0.18,0.06,
0.319,0.10,0.11,0.99,0.81,-0.18,0.06,
0.322,0.10,0.11,1.00,0.81,-0.18,0.06,
0.323,0.10,0.11,1.00,0.79,-0.17,0.01,
0.325,0.10,0.11,0.99,0.79,-0.17,0.01,
0.328,0.11,0.10,0.99,0.79,-0.17,0.01,
0.331,0.11,0.10,0.99,0.79,-0.20,-0.01,
0.331,0.10,0.11,0.99,0.79,-0.20,-0.01,
0.333,0.10,0.11,0.99,0.81,-0.23,-0.03,
0.334,0.10,0.11,0.99,0.81,-0.23,-0.03,
0.334,0.10,0.11,0.98,0.81,-0.23,-0.03,
0.337,0.10,0.11,0.98,0.76,-0.19,-0.03,
0.338,0.11,0.12,0.98,0.76,-0.19,-0.03,
0.339,0.11,0.12,0.97,0.76,-0.19,-0.03,
0.342,0.11,0.12,0.97,0.76,-0.19,-0.03,
0.343,0.11,0.12,0.97,0.84,-0.15,-0.09,
0.344,0.11,0.12,0.97,0.84,-0.15,-0.09,
0.348,0.12,0.12,0.96,0.84,-0.15,-0.09,
0.349,0.12,0.12,0.96,0.87,-0.11,-0.17,
0.349,0.12,0.12,0.96,0.87,-0.11,-0.17,
0.352,0.12,0.12,0.96,0.92,-0.07,-0.24,
0.353,0.12,0.12,0.96,0.92,-0.07,-0.24,
0.355,0.12,0.12,0.96,0.92,-0.07,-0.24,
0.357,0.13,0.13,0.95,0.92,-0.07,-0.24,
0.358,0.13,0.13,0.95,0.96,-0.07,-0.30,
0.36,0.13,0.12,0.94,0.96,-0.07,-0.30,
0.362,0.13,0.12,0.94,0.96,-0.07,-0.30,
0.363,0.13,0.12,0.94,1.03,-0.06,-0.36,
0.365,0.12,0.13,0.93,1.03,-0.06,-0.36,
0.367,0.12,0.13,0.93,1.07,-0.10,-0.49,
0.367,0.12,0.13,0.93,1.07,-0.10,-0.49,
0.37,0.12,0.13,0.93,1.07,-0.10,-0.49,
0.372,0.12,0.13,0.93,1.07,-0.10,-0.49,
0.372,0.12,0.13,0.93,1.01,-0.03,-0.55,
0.374,0.11,0.14,0.93,1.01,-0.03,-0.55,
0.378,0.11,0.14,0.92,1.01,-0.03,-0.55,
0.378,0.11,0.14,0.92,0.97,-0.00,-0.59,
0.379,0.11,0.14,0.92,0.97,-0.00,-0.59,
0.382,0.11,0.14,0.92,0.93,0.04,-0.63,
0.382,0.10,0.14,0.92,0.93,0.04,-0.63,
0.384,0.10,0.14,0.93,0.93,0.04,-0.63,
0.387,0.10,0.15,0.92,0.93,0.04,-0.63,
0.388,0.10,0.15,0.92,0.86,0.10,-0.63,
0.39,0.10,0.15,0.92,0.86,0.10,-0.63,
0.392,0.10,0.15,0.92,0.84,0.12,-0.61,
0.392,0.09,0.15,0.92,0.84,0.12,-0.61,
0.394,0.09,0.15,0.92,0.84,0.12,-0.61,
0.397,0.10,0.16,0.92,0.84,0.12,-0.61,
0.397,0.10,0.16,0.92,0.74,0.15,-0.63,
0.402,0.09,0.16,0.92,0.74,0.15,-0.63,
0.402,0.09,0.15,0.92,0.74,0.15,-0.63,
0.402,0.09,0.15,0.92,0.74,0.19,-0.65,
0.403,0.10,0.15,0.92,0.74,0.19,-0.65,
0.407,0.10,0.15,0.92,0.73,0.17,-0.63,
0.407,0.09,0.15,0.92,0.73,0.17,-0.63,
0.409,0.09,0.15,0.91,0.73,0.17,-0.63,
0.412,0.09,0.15,0.91,0.74,0.14,-0.66,
0.412,0.09,0.15,0.92,0.74,0.14,-0.66,
0.414,0.10,0.15,0.91,0.74,0.14,-0.66,
0.416,0.10,0.15,0.91,0.74,0.14,-0.66,
0.417,0.10,0.15,0.91,0.74,0.15,-0.66,
0.419,0.10,0.15,0.91,0.74,0.15,-0.66,
0.422,0.10,0.15,0.90,0.74,0.15,-0.66,
0.422,0.10,0.15,0.90,0.77,0.11,-0.71,
0.424,0.10,0.15,0.90,0.77,0.11,-0.71,
0.427,0.10,0.14,0.89,0.77,0.11,-0.71,
0.427,0.10,0.14,0.89,0.79,0.08,-0.76,
0.429,0.11,0.14,0.89,0.79,0.08,-0.76,
0.432,0.11,0.14,0.89,0.79,0.08,-0.76,
0.432,0.11,0.14,0.89,0.80,0.05,-0.87,
0.433,0.10,0.14,0.88,0.80,0.05,-0.87,
0.436,0.10,0.14,0.87,0.80,0.05,-0.87,
0.436,0.10,0.14,0.87,0.86,0.01,-0.91,
0.439,0.10,0.14,0.87,0.86,0.01,-0.91,
0.442,0.10,0.14,0.87,0.86,0.01,-0.91,
0.442,0.10,0.14,0.87,0.83,-0.03,-1.03,
0.444,0.10,0.14,0.86,0.83,-0.03,-1.03,
0.447,0.10,0.15,0.87,0.83,-0.03,-1.03,
0.447,0.10,0.15,0.87,0.82,-0.04,-1.05,
0.449,0.10,0.15,0.87,0.82,-0.04,-1.05,
0.451,0.10,0.14,0.87,0.82,-0.04,-1.05,
0.451,0.10,0.14,0.87,0.79,0.01,-1.12,
0.454,0.09,0.15,0.87,0.79,0.01,-1.12,
0.457,0.09,0.15,0.87,0.79,0.01,-1.12,
0.457,0.09,0.15,0.87,0.76,0.01,-1.05,
0.459,0.09,0.16,0.87,0.76,0.01,-1.05,
0.462,0.09,0.16,0.87,0.76,0.01,-1.05,
0.462,0.09,0.16,0.87,0.70,0.07,-1.05,
0.464,0.09,0.16,0.87,0.70,0.07,-1.05,
0.466,0.08,0.16,0.87,0.70,0.07,-1.05,
0.466,0.08,0.16,0.87,0.65,0.13,-1.05,
0.469,0.08,0.16,0.88,0.65,0.13,-1.05,
0.471,0.08,0.16,0.88,0.65,0.13,-1.05,
0.471,0.08,0.16,0.88,0.64,0.15,-1.00,
0.473,0.08,0.16,0.88,0.64,0.15,-1.00,
0.476,0.08,0.16,0.88,0.64,0.15,-1.00,
0.476,0.08,0.16,0.88,0.57,0.16,-0.92,
0.478,0.08,0.17,0.88,0.57,0.16,-0.92,
0.481,0.07,0.17,0.88,0.57,0.16,-0.92,
0.482,0.07,0.17,0.88,0.55,0.16,-0.92,
0.483,0.08,0.16,0.88,0.55,0.16,-0.92,
0.486,0.08,0.16,0.88,0.55,0.16,-0.92,
0.486,0.08,0.16,0.88,0.52,0.17,-0.87,
0.488,0.07,0.16,0.88,0.52,0.17,-0.87,
0.491,0.07,0.16,0.88,0.52,0.17,-0.87,
0.491,0.07,0.16,0.88,0.54,0.11,-0.86,
0.493,0.07,0.15,0.89,0.54,0.11,-0.86,
0.496,0.07,0.16,0.89,0.54,0.11,-0.86,
0.496,0.07,0.16,0.89,0.48,0.09,-0.85,
0.498,0.06,0.15,0.88,0.48,0.09,-0.85,
0.5,0.06,0.15,0.88,0.48,0.09,-0.85,
0.501,0.06,0.15,0.88,0.44,0.06,-0.81,
0.503,0.06,0.15,0.88,0.44,0.06,-0.81,
0.505,0.06,0.15,0.87,0.44,0.06,-0.81,
0.506,0.06,0.15,0.87,0.40,0.01,-0.89,
0.508,0.06,0.15,0.87,0.40,0.01,-0.89,
0.51,0.06,0.15,0.87,0.40,0.01,-0.89,
0.51,0.06,0.15,0.87,0.40,-0.00,-0.91,
0.512,0.05,0.14,0.87,0.40,-0.00,-0.91,
0.516,0.05,0.14,0.86,0.40,-0.00,-0.91,
0.516,0.05,0.14,0.86,0.36,-0.04,-0.95,
0.517,0.05,0.14,0.86,0.36,-0.04,-0.95,
0.52,0.05,0.14,0.86,0.36,-0.04,-0.95,
0.52,0.05,0.14,0.86,0.29,-0.08,-0.97,
0.523,0.04,0.13,0.86,0.29,-0.08,-0.97,
0.525,0.04,0.13,0.85,0.29,-0.08,-0.97,
0.525,0.04,0.13,0.85,0.25,-0.13,-1.03,
0.527,0.04,0.12,0.86,0.25,-0.13,-1.03,
0.53,0.04,0.12,0.86,0.25,-0.13,-1.03,
0.53,0.04,0.12,0.86,0.18,-0.18,-1.07,
0.537,0.03,0.11,0.85,0.18,-0.18,-1.07,
0.537,0.03,0.11,0.85,0.18,-0.18,-1.07,
0.538,0.03,0.11,0.85,0.15,-0.29,-1.03,
0.538,0.03,0.10,0.84,0.15,-0.29,-1.03,
0.54,0.02,0.10,0.84,0.15,-0.29,-1.03,
0.54,0.02,0.10,0.84,0.07,-0.37,-1.08,
0.542,0.02,0.10,0.84,0.07,-0.37,-1.08,
0.545,0.02,0.10,0.83,0.07,-0.37,-1.08,
0.545,0.02,0.10,0.83,0.02,-0.48,-1.14,
0.549,0.02,0.09,0.83,0.02,-0.48,-1.14,
0.551,0.02,0.09,0.83,0.01,-0.52,-1.22,
0.551,0.01,0.10,0.83,0.01,-0.52,-1.22,
0.552,0.01,0.09,0.83,0.01,-0.52,-1.22,
0.555,0.01,0.09,0.83,0.01,-0.52,-1.22,
0.555,0.01,0.09,0.83,-0.09,-0.56,-1.24,
0.557,0.00,0.10,0.83,-0.09,-0.56,-1.24,
0.561,-0.01,0.10,0.82,-0.09,-0.56,-1.24,
0.561,-0.01,0.10,0.82,-0.13,-0.58,-1.27,
0.562,-0.01,0.10,0.83,-0.13,-0.58,-1.27,
0.565,-0.02,0.10,0.82,-0.13,-0.58,-1.27,
0.566,-0.02,0.10,0.82,-0.27,-0.54,-1.28,
0.567,-0.03,0.10,0.82,-0.27,-0.54,-1.28,
0.57,-0.03,0.11,0.83,-0.27,-0.54,-1.28,
0.57,-0.03,0.11,0.83,-0.39,-0.50,-1.26,
0.572,-0.03,0.11,0.82,-0.39,-0.50,-1.26,
0.575,-0.04,0.11,0.82,-0.39,-0.50,-1.26,
0.575,-0.04,0.11,0.82,-0.51,-0.46,-1.25,
0.577,-0.04,0.12,0.82,-0.51,-0.46,-1.25,
0.58,-0.04,0.12,0.82,-0.51,-0.46,-1.25,
0.58,-0.04,0.12,0.82,-0.58,-0.40,-1.29,
0.582,-0.04,0.12,0.82,-0.58,-0.40,-1.29,
0.585,-0.05,0.12,0.81,-0.58,-0.40,-1.29,
0.585,-0.05,0.12,0.81,-0.63,-0.31,-1.26,
0.587,-0.05,0.13,0.81,-0.63,-0.31,-1.26,
0.59,-0.05,0.13,0.81,-0.63,-0.31,-1.26,
0.59,-0.05,0.13,0.81,-0.70,-0.31,-1.32,
0.592,-0.06,0.12,0.81,-0.70,-0.31,-1.32,
0.594,-0.06,0.12,0.81,-0.70,-0.31,-1.32,
0.595,-0.06,0.12,0.81,-0.72,-0.24,-1.34,
0.598,-0.06,0.12,0.80,-0.72,-0.24,-1.34,
0.599,-0.06,0.12,0.80,-0.72,-0.24,-1.34,
0.6,-0.06,0.12,0.80,-0.82,-0.30,-1.38,
0.601,-0.06,0.12,0.80,-0.82,-0.30,-1.38,
0.605,-0.06,0.12,0.80,-0.82,-0.32,-1.42,
0.605,-0.06,0.11,0.79,-0.82,-0.32,-1.42,
0.606,-0.06,0.10,0.79,-0.82,-0.32,-1.42,
0.61,-0.06,0.10,0.79,-0.82,-0.41,-1.48,
0.61,-0.06,0.10,0.78,-0.82,-0.41,-1.48,
0.611,-0.06,0.10,0.78,-0.82,-0.41,-1.48,
0.615,-0.06,0.09,0.77,-0.82,-0.41,-1.48,
0.616,-0.06,0.09,0.77,-0.85,-0.50,-1.59,
0.616,-0.06,0.08,0.77,-0.85,-0.50,-1.59,
0.619,-0.07,0.08,0.77,-0.85,-0.50,-1.59,
0.62,-0.07,0.08,0.77,-0.83,-0.59,-1.65,
0.621,-0.07,0.07,0.77,-0.83,-0.59,-1.65,
0.624,-0.07,0.07,0.77,-0.83,-0.59,-1.65,
0.625,-0.07,0.07,0.77,-0.88,-0.71,-1.70,
0.627,-0.08,0.06,0.77,-0.88,-0.71,-1.70,
0.629,-0.08,0.06,0.78,-0.88,-0.71,-1.70,
0.629,-0.08,0.06,0.78,-0.94,-0.79,-1.73,
0.636,-0.08,0.06,0.77,-0.94,-0.79,-1.73,
0.637,-0.09,0.05,0.78,-0.94,-0.79,-1.73,
0.637,-0.09,0.05,0.78,-1.03,-0.86,-1.65,
0.637,-0.10,0.06,0.78,-1.03,-0.86,-1.65,
0.639,-0.10,0.05,0.79,-1.03,-0.86,-1.65,
0.64,-0.10,0.05,0.79,-1.11,-0.90,-1.65,
0.642,-0.11,0.06,0.79,-1.11,-0.90,-1.65,
0.644,-0.11,0.06,0.79,-1.11,-0.90,-1.65,
0.644,-0.11,0.06,0.79,-1.21,-0.88,-1.56,
0.646,-0.12,0.06,0.79,-1.21,-0.88,-1.56,
0.649,-0.12,0.06,0.79,-1.21,-0.88,-1.56,
0.649,-0.12,0.06,0.79,-1.33,-0.81,-1.50,
0.655,-0.13,0.06,0.79,-1.33,-0.81,-1.50,
0.655,-0.13,0.07,0.79,-1.33,-0.81,-1.50,
0.656,-0.13,0.07,0.79,-1.42,-0.76,-1.50,
0.656,-0.13,0.07,0.80,-1.42,-0.76,-1.50,
0.659,-0.13,0.07,0.80,-1.42,-0.76,-1.50,
0.66,-0.13,0.07,0.80,-1.51,-0.72,-1.46,
0.661,-0.14,0.08,0.80,-1.51,-0.72,-1.46,
0.664,-0.14,0.08,0.80,-1.51,-0.72,-1.46,
0.665,-0.14,0.08,0.80,-1.57,-0.66,-1.39,
0.668,-0.14,0.08,0.80,-1.57,-0.66,-1.39,
0.671,-0.14,0.08,0.80,-1.57,-0.66,-1.39,
0.672,-0.14,0.08,0.80,-1.63,-0.57,-1.36,
0.672,-0.14,0.08,0.80,-1.63,-0.57,-1.36,
0.676,-0.14,0.08,0.80,-1.62,-0.52,-1.39,
0.676,-0.13,0.08,0.80,-1.62,-0.52,-1.39,
0.677,-0.12,0.08,0.80,-1.62,-0.52,-1.39,
0.679,-0.12,0.08,0.80,-1.62,-0.52,-1.39,
0.679,-0.12,0.08,0.80,-1.57,-0.51,-1.41,
0.683,-0.12,0.08,0.80,-1.57,-0.51,-1.41,
0.684,-0.11,0.09,0.80,-1.57,-0.51,-1.41,
0.684,-0.11,0.09,0.80,-1.49,-0.52,-1.38,
0.686,-0.11,0.09,0.81,-1.49,-0.52,-1.38,
0.689,-0.11,0.08,0.81,-1.49,-0.52,-1.38,
0.689,-0.11,0.08,0.81,-1.41,-0.48,-1.34,
0.691,-0.11,0.09,0.81,-1.41,-0.48,-1.34,
0.694,-0.10,0.09,0.82,-1.41,-0.48,-1.34,
0.694,-0.10,0.09,0.82,-1.41,-0.45,-1.28,
0.696,-0.11,0.09,0.83,-1.41,-0.45,-1.28,
0.7,-0.10,0.08,0.83,-1.41,-0.45,-1.28,
0.701,-0.10,0.08,0.83,-1.40,-0.42,-1.20,
0.701,-0.10,0.08,0.83,-1.40,-0.42,-1.20,
0.704,-0.10,0.08,0.84,-1.40,-0.42,-1.20,
0.704,-0.10,0.08,0.84,-1.39,-0.43,-1.11,
0.706,-0.10,0.08,0.84,-1.39,-0.43,-1.11,
0.709,-0.10,0.07,0.85,-1.39,-0.43,-1.11,
0.71,-0.10,0.07,0.85,-1.40,-0.46,-1.00,
0.711,-0.09,0.06,0.86,-1.40,-0.46,-1.00,
0.714,-0.09,0.06,0.87,-1.40,-0.46,-1.00,
0.715,-0.09,0.06,0.87,-1.40,-0.49,-0.89,
0.716,-0.09,0.05,0.87,-1.40,-0.49,-0.89,
0.718,-0.09,0.05,0.88,-1.40,-0.49,-0.89,
0.719,-0.09,0.05,0.88,-1.34,-0.60,-0.69,
0.721,-0.09,0.04,0.89,-1.34,-0.60,-0.69,
0.723,-0.09,0.04,0.89,-1.36,-0.70,-0.60,
0.724,-0.09,0.04,0.89,-1.36,-0.70,-0.60,
0.726,-0.10,0.03,0.89,-1.36,-0.70,-0.60,
0.729,-0.09,0.03,0.90,-1.36,-0.70,-0.60,
0.729,-0.09,0.03,0.90,-1.40,-0.79,-0.47,
0.731,-0.10,0.04,0.90,-1.40,-0.79,-0.47,
0.734,-0.10,0.04,0.92,-1.40,-0.79,-0.47,
0.734,-0.10,0.04,0.92,-1.48,-0.83,-0.41,
0.736,-0.10,0.04,0.92,-1.48,-0.83,-0.41,
0.739,-0.10,0.04,0.92,-1.48,-0.83,-0.41,
0.739,-0.10,0.04,0.92,-1.56,-0.77,-0.28,
0.741,-0.10,0.05,0.93,-1.56,-0.77,-0.28,
0.744,-0.10,0.05,0.93,-1.57,-0.71,-0.15,
0.744,-0.10,0.05,0.94,-1.57,-0.71,-0.15,
0.746,-0.10,0.06,0.94,-1.57,-0.71,-0.15,
0.754,-0.11,0.07,0.94,-1.57,-0.71,-0.15,
0.754,-0.11,0.07,0.94,-1.60,-0.61,-0.06,
0.755,-0.11,0.07,0.95,-1.60,-0.61,-0.06,
0.755,-0.11,0.08,0.95,-1.60,-0.61,-0.06,
0.755,-0.11,0.08,0.95,-1.66,-0.45,0.04,
0.755,-0.12,0.09,0.96,-1.66,-0.45,0.04,
0.758,-0.12,0.09,0.96,-1.75,-0.28,0.14,
0.759,-0.12,0.09,0.96,-1.75,-0.28,0.14,
0.76,-0.13,0.10,0.96,-1.75,-0.28,0.14,
0.764,-0.13,0.10,0.96,-1.75,-0.28,0.14,
0.764,-0.13,0.10,0.96,-1.84,-0.12,0.23,
0.765,-0.14,0.11,0.96,-1.84,-0.12,0.23,
0.768,-0.14,0.11,0.96,-1.84,-0.12,0.23,
0.769,-0.14,0.11,0.96,-1.96,-0.00,0.22,
0.77,-0.14,0.11,0.96,-1.96,-0.00,0.22,
0.774,-0.14,0.11,0.96,-2.03,0.10,0.23,
0.774,-0.14,0.11,0.95,-2.03,0.10,0.23,
0.776,-0.14,0.11,0.94,-2.03,0.10,0.23,
0.779,-0.15,0.11,0.94,-2.03,0.10,0.23,
0.779,-0.15,0.11,0.94,-2.05,0.13,0.16,
0.781,-0.15,0.10,0.94,-2.05,0.13,0.16,
0.783,-0.15,0.10,0.94,-2.11,0.12,0.02,
0.784,-0.15,0.10,0.93,-2.11,0.12,0.02,
0.786,-0.15,0.09,0.92,-2.11,0.12,0.02,
0.788,-0.15,0.08,0.91,-2.11,0.12,0.02,
0.788,-0.15,0.08,0.91,-2.11,0.11,-0.08,
0.79,-0.15,0.07,0.90,-2.11,0.11,-0.08,
0.793,-0.15,0.07,0.90,-2.13,-0.03,-0.21,
0.793,-0.15,0.07,0.89,-2.13,-0.03,-0.21,
0.796,-0.15,0.06,0.89,-2.13,-0.03,-0.21,
0.798,-0.15,0.04,0.89,-2.13,-0.03,-0.21,
0.798,-0.15,0.04,0.89,-2.14,-0.18,-0.43,
0.801,-0.16,0.04,0.88,-2.14,-0.18,-0.43,
0.803,-0.16,0.03,0.88,-2.14,-0.18,-0.43,
0.803,-0.16,0.03,0.88,-2.15,-0.38,-0.51,
0.805,-0.16,0.02,0.88,-2.15,-0.38,-0.51,
0.808,-0.16,0.02,0.88,-2.20,-0.50,-0.57,
0.809,-0.16,0.01,0.88,-2.20,-0.50,-0.57,
0.81,-0.16,0.00,0.87,-2.20,-0.50,-0.57,
0.813,-0.16,-0.01,0.87,-2.20,-0.50,-0.57,
0.813,-0.16,-0.01,0.87,-2.21,-0.64,-0.60,
0.815,-0.16,-0.01,0.87,-2.21,-0.64,-0.60,
0.818,-0.16,-0.02,0.87,-2.21,-0.64,-0.60,
0.818,-0.16,-0.02,0.87,-2.24,-0.78,-0.66,
0.82,-0.17,-0.02,0.87,-2.24,-0.78,-0.66,
0.823,-0.17,-0.02,0.87,-2.27,-0.90,-0.70,
0.826,-0.17,-0.03,0.87,-2.27,-0.90,-0.70,
0.826,-0.18,-0.03,0.88,-2.27,-0.90,-0.70,
0.828,-0.18,-0.03,0.89,-2.27,-0.90,-0.70,
0.828,-0.18,-0.03,0.89,-2.35,-0.95,-0.67,
0.83,-0.19,-0.03,0.89,-2.35,-0.95,-0.67,
0.837,-0.19,-0.03,0.89,-2.47,-0.99,-0.53,
0.837,-0.20,-0.04,0.90,-2.47,-0.99,-0.53,
0.838,-0.20,-0.03,0.92,-2.47,-0.99,-0.53,
0.838,-0.21,-0.04,0.92,-2.47,-0.99,-0.53,
0.838,-0.21,-0.04,0.92,-2.61,-0.96,-0.42,
0.84,-0.21,-0.03,0.93,-2.61,-0.96,-0.42,
0.843,-0.21,-0.03,0.93,-2.72,-0.93,-0.21,
0.843,-0.21,-0.04,0.95,-2.72,-0.93,-0.21,
0.845,-0.21,-0.04,0.96,-2.72,-0.93,-0.21,
0.848,-0.21,-0.04,0.97,-2.72,-0.93,-0.21,
0.848,-0.21,-0.04,0.97,-2.83,-0.91,0.01,
0.85,-0.20,-0.04,0.98,-2.83,-0.91,0.01,
0.852,-0.20,-0.04,0.99,-2.83,-0.91,0.01,
0.852,-0.20,-0.04,0.99,-2.83,-0.88,0.22,
0.854,-0.20,-0.05,1.00,-2.83,-0.88,0.22,
0.857,-0.19,-0.05,1.01,-2.83,-0.88,0.22,
0.857,-0.19,-0.05,1.01,-2.77,-0.89,0.42,
0.859,-0.19,-0.06,1.02,-2.77,-0.89,0.42,
0.862,-0.18,-0.06,1.03,-2.77,-0.89,0.42,
0.863,-0.18,-0.06,1.03,-2.72,-0.89,0.61,
0.864,-0.17,-0.07,1.03,-2.72,-0.89,0.61,
0.869,-0.17,-0.07,1.04,-2.72,-0.89,0.61,
0.869,-0.17,-0.07,1.04,-2.66,-0.97,0.81,
0.869,-0.16,-0.08,1.05,-2.66,-0.97,0.81,
0.872,-0.16,-0.09,1.05,-2.66,-0.97,0.81,
0.872,-0.16,-0.09,1.05,-2.58,-1.04,0.95,
0.874,-0.16,-0.09,1.06,-2.58,-1.04,0.95,
0.877,-0.15,-0.10,1.07,-2.58,-1.04,0.95,
0.877,-0.15,-0.10,1.07,-2.49,-1.14,1.09,
0.879,-0.14,-0.11,1.08,-2.49,-1.14,1.09,
0.887,-0.14,-0.11,1.08,-2.49,-1.14,1.09,
0.888,-0.14,-0.11,1.08,-2.46,-1.21,1.27,
0.888,-0.14,-0.12,1.09,-2.46,-1.21,1.27,
0.889,-0.14,-0.13,1.10,-2.46,-1.21,1.27,
0.889,-0.14,-0.13,1.10,-2.37,-1.32,1.37,
0.889,-0.13,-0.14,1.11,-2.37,-1.32,1.37,
0.891,-0.13,-0.14,1.11,-2.37,-1.32,1.37,
0.892,-0.13,-0.14,1.11,-2.39,-1.45,1.52,
0.894,-0.13,-0.15,1.12,-2.39,-1.45,1.52,
0.896,-0.13,-0.15,1.12,-2.35,-1.51,1.64,
0.897,-0.13,-0.15,1.13,-2.35,-1.51,1.64,
0.901,-0.13,-0.16,1.13,-2.35,-1.51,1.64,
0.902,-0.13,-0.16,1.14,-2.35,-1.51,1.64,
0.902,-0.13,-0.16,1.14,-2.37,-1.58,1.80,
0.904,-0.13,-0.16,1.15,-2.37,-1.58,1.80,
0.906,-0.13,-0.16,1.16,-2.37,-1.58,1.80,
0.907,-0.13,-0.16,1.16,-2.38,-1.61,1.90,
0.909,-0.14,-0.16,1.17,-2.38,-1.61,1.90,
0.911,-0.13,-0.16,1.19,-2.38,-1.61,1.90,
0.911,-0.13,-0.16,1.19,-2.40,-1.58,2.10,
0.914,-0.14,-0.15,1.20,-2.40,-1.58,2.10,
0.917,-0.13,-0.14,1.22,-2.40,-1.58,2.10,
0.917,-0.13,-0.14,1.22,-2.44,-1.51,2.33,
0.918,-0.13,-0.14,1.23,-2.44,-1.51,2.33,
0.921,-0.13,-0.13,1.24,-2.44,-1.51,2.33,
0.921,-0.13,-0.13,1.24,-2.45,-1.35,2.62,
0.923,-0.14,-0.13,1.25,-2.45,-1.35,2.62,
0.926,-0.14,-0.13,1.26,-2.45,-1.35,2.62,
0.926,-0.14,-0.13,1.26,-2.46,-1.20,2.86,
0.928,-0.13,-0.13,1.27,-2.46,-1.20,2.86,
0.931,-0.14,-0.13,1.28,-2.46,-1.20,2.86,
0.931,-0.14,-0.13,1.28,-2.49,-1.10,3.07,
0.934,-0.13,-0.13,1.28,-2.49,-1.10,3.07,
0.936,-0.13,-0.14,1.29,-2.49,-1.10,3.07,
0.936,-0.13,-0.14,1.29,-2.48,-1.02,3.22,
0.938,-0.13,-0.15,1.30,-2.48,-1.02,3.22,
0.941,-0.13,-0.15,1.30,-2.48,-1.02,3.22,
0.941,-0.13,-0.15,1.30,-2.46,-1.08,3.34,
0.943,-0.13,-0.16,1.31,-2.46,-1.08,3.34,
0.946,-0.13,-0.17,1.32,-2.46,-1.08,3.34,
0.946,-0.13,-0.17,1.32,-2.43,-1.16,3.48,
0.948,-0.13,-0.17,1.31,-2.43,-1.16,3.48,
0.952,-0.13,-0.18,1.32,-2.43,-1.16,3.48,
0.952,-0.13,-0.18,1.32,-2.42,-1.25,3.61,
0.953,-0.13,-0.19,1.32,-2.42,-1.25,3.61,
0.956,-0.14,-0.19,1.31,-2.42,-1.25,3.61,
0.956,-0.14,-0.19,1.31,-2.47,-1.37,3.61,
0.958,-0.14,-0.20,1.30,-2.47,-1.37,3.61,
0.961,-0.15,-0.21,1.30,-2.47,-1.37,3.61,
0.961,-0.15,-0.21,1.30,-2.49,-1.48,3.59,
0.963,-0.15,-0.22,1.29,-2.49,-1.48,3.59,
0.971,-0.15,-0.22,1.28,-2.49,-1.48,3.59,
0.971,-0.15,-0.22,1.28,-2.58,-1.57,3.48,
0.972,-0.16,-0.23,1.27,-2.58,-1.57,3.48,
0.972,-0.16,-0.23,1.26,-2.58,-1.57,3.48,
0.973,-0.16,-0.23,1.26,-2.63,-1.67,3.31,
0.973,-0.16,-0.23,1.26,-2.63,-1.67,3.31,
0.976,-0.16,-0.23,1.24,-2.63,-1.67,3.31,
0.976,-0.16,-0.23,1.24,-2.70,-1.74,3.12,
0.978,-0.17,-0.23,1.23,-2.70,-1.74,3.12,
0.981,-0.17,-0.23,1.22,-2.70,-1.74,3.12,
0.981,-0.17,-0.23,1.22,-2.72,-1.77,2.93,
0.984,-0.17,-0.23,1.21,-2.72,-1.77,2.93,
0.986,-0.18,-0.22,1.20,-2.72,-1.77,2.93,
0.986,-0.18,-0.22,1.20,-2.78,-1.75,2.69,
0.988,-0.18,-0.22,1.19,-2.78,-1.75,2.69,
0.991,-0.19,-0.22,1.18,-2.78,-1.75,2.69,
0.991,-0.19,-0.22,1.18,-2.83,-1.70,2.46,
0.993,-0.20,-0.21,1.18,-2.83,-1.70,2.46,
0.996,-0.20,-0.21,1.18,-2.83,-1.70,2.46,
0.996,-0.20,-0.21,1.18,-2.93,-1.63,2.31,
0.998,-0.19,-0.21,1.17,-2.93,-1.63,2.31,
1.001,-0.19,-0.21,1.16,-2.93,-1.63,2.31,
1.002,-0.19,-0.21,1.16,-3.00,-1.55,2.23,
1.004,-0.20,-0.21,1.16,-3.00,-1.55,2.23,
1.006,-0.19,-0.21,1.16,-3.00,-1.55,2.23,
1.006,-0.19,-0.21,1.16,-2.97,-1.54,2.09,
1.008,-0.19,-0.20,1.16,-2.97,-1.54,2.09,
1.014,-0.18,-0.20,1.17,-2.97,-1.54,2.09,
1.014,-0.18,-0.20,1.17,-2.98,-1.49,2.02,
1.015,-0.18,-0.20,1.17,-2.98,-1.49,2.02,
1.015,-0.18,-0.20,1.17,-2.86,-1.43,2.06,
1.015,-0.18,-0.20,1.17,-2.86,-1.43,2.06,
1.018,-0.17,-0.20,1.16,-2.86,-1.43,2.06,
1.021,-0.16,-0.20,1.15,-2.86,-1.43,2.06,
1.021,-0.16,-0.20,1.15,-2.83,-1.44,2.07,
1.023,-0.15,-0.20,1.13,-2.83,-1.44,2.07,
1.026,-0.15,-0.20,1.13,-2.64,-1.43,1.94,
1.026,-0.13,-0.21,1.12,-2.64,-1.43,1.94,
1.028,-0.13,-0.21,1.13,-2.64,-1.43,1.94,
1.031,-0.13,-0.20,1.13,-2.64,-1.43,1.94,
1.031,-0.13,-0.20,1.13,-2.40,-1.46,1.68,
1.033,-0.13,-0.19,1.13,-2.40,-1.46,1.68,
1.036,-0.14,-0.18,1.14,-2.40,-1.46,1.68,
1.036,-0.14,-0.18,1.14,-2.29,-1.40,1.68,
1.037,-0.14,-0.17,1.15,-2.29,-1.40,1.68,
1.041,-0.14,-0.17,1.15,-2.33,-1.20,1.76,
1.041,-0.14,-0.16,1.15,-2.33,-1.20,1.76,
1.043,-0.15,-0.16,1.15,-2.33,-1.20,1.76,
1.046,-0.15,-0.16,1.14,-2.33,-1.20,1.76,
1.046,-0.15,-0.16,1.14,-2.40,-1.00,1.86,
1.048,-0.14,-0.17,1.14,-2.40,-1.00,1.86,
1.055,-0.13,-0.18,1.13,-2.40,-1.00,1.86,
1.056,-0.13,-0.18,1.13,-2.46,-0.93,1.81,
1.056,-0.12,-0.19,1.12,-2.46,-0.93,1.81,
1.056,-0.11,-0.20,1.12,-2.46,-0.93,1.81,
1.056,-0.11,-0.20,1.12,-2.34,-1.02,1.74,
1.058,-0.10,-0.21,1.12,-2.34,-1.02,1.74,
1.06,-0.09,-0.22,1.12,-2.34,-1.02,1.74,
1.061,-0.09,-0.22,1.12,-2.15,-1.20,1.61,
1.062,-0.08,-0.23,1.11,-2.15,-1.20,1.61,
1.065,-0.08,-0.23,1.11,-2.15,-1.20,1.61,
1.065,-0.08,-0.23,1.11,-1.91,-1.41,1.55,
1.068,-0.07,-0.23,1.12,-1.91,-1.41,1.55,
1.07,-0.07,-0.23,1.12,-1.91,-1.41,1.55,
1.07,-0.07,-0.23,1.12,-1.75,-1.47,1.50,
1.072,-0.07,-0.22,1.13,-1.75,-1.47,1.50,
1.076,-0.06,-0.23,1.14,-1.75,-1.47,1.50,
1.076,-0.06,-0.23,1.14,-1.68,-1.46,1.59,
1.078,-0.06,-0.21,1.14,-1.68,-1.46,1.59,
1.08,-0.05,-0.21,1.15,-1.68,-1.46,1.59,
1.08,-0.05,-0.21,1.15,-1.58,-1.40,1.72,
1.082,-0.04,-0.20,1.16,-1.58,-1.40,1.72,
1.086,-0.04,-0.20,1.17,-1.58,-1.40,1.72,
1.086,-0.04,-0.20,1.17,-1.50,-1.23,1.83,
1.087,-0.03,-0.19,1.18,-1.50,-1.23,1.83,
1.09,-0.03,-0.19,1.18,-1.41,-1.09,2.01,
1.09,-0.02,-0.19,1.18,-1.41,-1.09,2.01,
1.092,-0.01,-0.18,1.19,-1.41,-1.09,2.01,
1.096,0.00,-0.17,1.19,-1.41,-1.09,2.01,
1.096,0.00,-0.17,1.19,-1.24,-1.01,2.18,
1.098,0.01,-0.17,1.20,-1.24,-1.01,2.18,
1.1,0.02,-0.17,1.21,-1.24,-1.01,2.18,
1.1,0.02,-0.17,1.21,-1.05,-0.85,2.26,
1.103,0.03,-0.16,1.21,-1.05,-0.85,2.26,
1.105,0.03,-0.16,1.22,-1.05,-0.85,2.26,
1.105,0.03,-0.16,1.22,-0.91,-0.74,2.41,
1.107,0.04,-0.15,1.22,-0.91,-0.74,2.41,
1.11,0.05,-0.14,1.22,-0.91,-0.74,2.41,
1.11,0.05,-0.14,1.22,-0.72,-0.60,2.50,
1.112,0.06,-0.13,1.23,-0.72,-0.60,2.50,
1.115,0.06,-0.13,1.23,-0.72,-0.60,2.50,
1.115,0.06,-0.13,1.23,-0.57,-0.41,2.56,
1.119,0.07,-0.13,1.22,-0.57,-0.41,2.56,
1.119,0.08,-0.12,1.22,-0.57,-0.41,2.56,
1.119,0.08,-0.12,1.22,-0.48,-0.29,2.63,
1.122,0.08,-0.12,1.22,-0.48,-0.29,2.63,
1.125,0.09,-0.12,1.22,-0.48,-0.29,2.63,
1.125,0.09,-0.12,1.22,-0.31,-0.18,2.59,
1.127,0.10,-0.12,1.21,-0.31,-0.18,2.59,
1.13,0.11,-0.13,1.20,-0.31,-0.18,2.59,
1.13,0.11,-0.13,1.20,-0.17,-0.13,2.54,
1.132,0.11,-0.13,1.19,-0.17,-0.13,2.54,
1.135,0.11,-0.13,1.18,-0.17,-0.13,2.54,
1.136,0.11,-0.13,1.18,-0.03,-0.15,2.38,
1.136,0.11,-0.14,1.18,-0.03,-0.15,2.38,
1.139,0.11,-0.15,1.17,-0.03,-0.15,2.38,
1.139,0.11,-0.15,1.17,0.06,-0.20,2.19,
1.141,0.11,-0.15,1.16,0.06,-0.20,2.19,
1.144,0.11,-0.17,1.15,0.06,-0.20,2.19,
1.144,0.11,-0.17,1.15,0.11,-0.30,2.06,
1.146,0.11,-0.18,1.14,0.11,-0.30,2.06,
1.15,0.11,-0.18,1.13,0.11,-0.30,2.06,
1.151,0.11,-0.18,1.13,0.15,-0.43,1.88,
1.151,0.11,-0.20,1.12,0.15,-0.43,1.88,
1.157,0.11,-0.20,1.12,0.14,-0.61,1.69,
1.157,0.10,-0.21,1.12,0.14,-0.61,1.69,
1.157,0.09,-0.21,1.11,0.14,-0.61,1.69,
1.159,0.09,-0.21,1.11,0.12,-0.80,1.48,
1.159,0.09,-0.22,1.12,0.12,-0.80,1.48,
1.162,0.08,-0.22,1.11,0.12,-0.80,1.48,
1.164,0.07,-0.22,1.11,0.12,-0.80,1.48,
1.164,0.07,-0.22,1.11,0.00,-0.89,1.48,
1.166,0.06,-0.23,1.12,0.00,-0.89,1.48,
1.169,0.05,-0.23,1.12,0.00,-0.89,1.48,
1.169,0.05,-0.23,1.12,-0.16,-0.96,1.46,
1.171,0.04,-0.23,1.13,-0.16,-0.96,1.46,
1.174,0.04,-0.22,1.13,-0.16,-0.96,1.46,
1.174,0.04,-0.22,1.13,-0.32,-0.99,1.52,
1.176,0.04,-0.22,1.14,-0.32,-0.99,1.52,
1.179,0.03,-0.21,1.14,-0.32,-0.99,1.52,
1.179,0.03,-0.21,1.14,-0.47,-0.99,1.61,
1.181,0.03,-0.21,1.15,-0.47,-0.99,1.61,
1.188,0.03,-0.20,1.16,-0.47,-0.99,1.61,
1.189,0.03,-0.20,1.16,-0.49,-0.89,1.70,
1.189,0.03,-0.19,1.17,-0.49,-0.89,1.70,
1.189,0.04,-0.20,1.16,-0.49,-0.89,1.70,
1.19,0.04,-0.20,1.16,-0.54,-0.79,1.86,
1.191,0.04,-0.19,1.17,-0.54,-0.79,1.86,
1.193,0.04,-0.19,1.17,-0.54,-0.79,1.86,
1.194,0.04,-0.19,1.17,-0.51,-0.68,1.93,
1.197,0.05,-0.18,1.17,-0.51,-0.68,1.93,
1.2,0.06,-0.17,1.17,-0.51,-0.68,1.93,
1.2,0.06,-0.17,1.17,-0.44,-0.63,1.97,
1.2,0.07,-0.17,1.16,-0.44,-0.63,1.97,
1.204,0.08,-0.17,1.15,-0.44,-0.63,1.97,
1.205,0.08,-0.17,1.15,-0.30,-0.51,1.95,
1.205,0.08,-0.16,1.15,-0.30,-0.51,1.95,
1.208,0.08,-0.16,1.15,-0.12,-0.44,1.84,
1.209,0.09,-0.16,1.14,-0.12,-0.44,1.84,
1.21,0.10,-0.16,1.13,-0.12,-0.44,1.84,
1.213,0.11,-0.16,1.12,-0.12,-0.44,1.84,
1.213,0.11,-0.16,1.12,0.01,-0.39,1.74,
1.215,0.11,-0.17,1.11,0.01,-0.39,1.74,
1.219,0.12,-0.17,1.11,0.01,-0.39,1.74,
1.22,0.12,-0.17,1.11,0.16,-0.39,1.57,
1.221,0.12,-0.17,1.10,0.16,-0.39,1.57,
1.223,0.12,-0.18,1.09,0.16,-0.39,1.57,
1.223,0.12,-0.18,1.09,0.31,-0.47,1.39,
1.225,0.12,-0.18,1.09,0.31,-0.47,1.39,
1.228,0.12,-0.18,1.09,0.31,-0.47,1.39,
1.229,0.12,-0.18,1.09,0.40,-0.52,1.24,
1.23,0.12,-0.19,1.08,0.40,-0.52,1.24,
1.235,0.11,-0.19,1.08,0.40,-0.52,1.24,
1.235,0.11,-0.19,1.08,0.41,-0.58,1.13,
1.236,0.11,-0.18,1.08,0.41,-0.58,1.13,
1.238,0.11,-0.18,1.07,0.41,-0.58,1.13,
1.238,0.11,-0.18,1.07,0.35,-0.65,1.09,
1.24,0.10,-0.17,1.08,0.35,-0.65,1.09,
1.243,0.10,-0.17,1.09,0.35,-0.65,1.09,
1.243,0.10,-0.17,1.09,0.34,-0.60,1.02,
1.245,0.10,-0.16,1.09,0.34,-0.60,1.02,
1.248,0.09,-0.15,1.10,0.34,-0.60,1.02,
1.248,0.09,-0.15,1.10,0.25,-0.48,1.11,
1.251,0.09,-0.15,1.11,0.25,-0.48,1.11,
1.253,0.08,-0.14,1.11,0.25,-0.48,1.11,
1.253,0.08,-0.14,1.11,0.21,-0.34,1.22,
1.255,0.09,-0.13,1.12,0.21,-0.34,1.22,
1.258,0.09,-0.13,1.12,0.21,-0.34,1.22,
1.258,0.09,-0.13,1.12,0.15,-0.21,1.34,
1.26,0.08,-0.13,1.12,0.15,-0.21,1.34,
1.263,0.09,-0.13,1.13,0.15,-0.21,1.34,
1.263,0.09,-0.13,1.13,0.16,-0.13,1.44,
1.265,0.10,-0.12,1.14,0.16,-0.13,1.44,
1.268,0.10,-0.11,1.14,0.16,-0.13,1.44,
1.269,0.10,-0.11,1.14,0.18,-0.05,1.49,
1.27,0.11,-0.11,1.14,0.18,-0.05,1.49,
1.273,0.11,-0.11,1.15,0.18,-0.05,1.49,
1.273,0.11,-0.11,1.15,0.33,0.04,1.61,
1.275,0.12,-0.11,1.14,0.33,0.04,1.61,
1.278,0.12,-0.11,1.14,0.45,0.07,1.66,
1.278,0.12,-0.11,1.14,0.45,0.07,1.66,
1.281,0.12,-0.11,1.15,0.45,0.07,1.66,
1.282,0.12,-0.11,1.15,0.45,0.07,1.66,
1.283,0.12,-0.11,1.15,0.55,0.14,1.66,
1.289,0.14,-0.11,1.13,0.55,0.14,1.66,
1.29,0.13,-0.11,1.13,0.55,0.14,1.66,
1.29,0.13,-0.11,1.13,0.57,0.09,1.68,
1.29,0.14,-0.12,1.12,0.57,0.09,1.68,
1.293,0.14,-0.12,1.12,0.57,0.09,1.68,
1.293,0.14,-0.12,1.12,0.69,0.10,1.55,
1.295,0.14,-0.12,1.12,0.69,0.10,1.55,
1.297,0.14,-0.12,1.12,0.69,0.10,1.55,
1.298,0.14,-0.12,1.12,0.76,0.03,1.42,
1.299,0.14,-0.12,1.12,0.76,0.03,1.42,
1.305,0.14,-0.13,1.12,0.76,0.03,1.42,
1.305,0.14,-0.13,1.12,0.79,-0.01,1.39,
1.306,0.14,-0.13,1.11,0.79,-0.01,1.39,
1.307,0.14,-0.13,1.10,0.79,-0.01,1.39,
1.307,0.14,-0.13,1.10,0.79,-0.08,1.39,
1.31,0.14,-0.14,1.10,0.79,-0.08,1.39,
1.312,0.14,-0.14,1.11,0.79,-0.08,1.39,
1.312,0.14,-0.14,1.11,0.84,-0.15,1.27,
1.314,0.15,-0.14,1.09,0.84,-0.15,1.27,
1.318,0.15,-0.14,1.09,0.84,-0.19,1.21,
1.321,0.15,-0.15,1.09,0.84,-0.19,1.21,
1.322,0.15,-0.16,1.08,0.84,-0.19,1.21,
1.322,0.14,-0.16,1.08,0.84,-0.19,1.21,
1.322,0.14,-0.16,1.08,0.90,-0.30,1.09,
1.325,0.14,-0.17,1.07,0.90,-0.30,1.09,
1.327,0.14,-0.18,1.07,0.90,-0.30,1.09,
1.327,0.14,-0.18,1.07,0.92,-0.40,0.95,
1.329,0.14,-0.18,1.05,0.92,-0.40,0.95,
1.333,0.13,-0.19,1.06,0.92,-0.40,0.95,
1.333,0.13,-0.19,1.06,0.87,-0.55,0.89,
1.336,0.13,-0.19,1.05,0.87,-0.55,0.89,
1.338,0.13,-0.19,1.05,0.80,-0.68,0.73,
1.338,0.13,-0.19,1.04,0.80,-0.68,0.73,
1.34,0.13,-0.19,1.04,0.80,-0.68,0.73,
1.343,0.13,-0.19,1.04,0.82,-0.72,0.61,
1.343,0.13,-0.19,1.03,0.82,-0.72,0.61,
1.345,0.13,-0.19,1.04,0.82,-0.72,0.61,
1.348,0.13,-0.18,1.03,0.82,-0.72,0.61,
1.348,0.13,-0.18,1.03,0.84,-0.77,0.55,
1.35,0.13,-0.17,1.03,0.84,-0.77,0.55,
1.354,0.14,-0.17,1.03,0.84,-0.77,0.55,
1.354,0.14,-0.17,1.03,0.82,-0.71,0.54,
1.355,0.14,-0.17,1.04,0.82,-0.71,0.54,
1.357,0.14,-0.17,1.04,0.86,-0.62,0.51,
1.357,0.14,-0.16,1.04,0.86,-0.62,0.51,
1.359,0.15,-0.16,1.04,0.86,-0.62,0.51,
1.362,0.14,-0.15,1.04,0.86,-0.62,0.51,
1.362,0.14,-0.15,1.04,0.92,-0.56,0.54,
1.364,0.15,-0.15,1.04,0.92,-0.56,0.54,
1.367,0.15,-0.15,1.04,0.96,-0.48,0.58,
1.367,0.15,-0.14,1.05,0.96,-0.48,0.58,
1.369,0.15,-0.14,1.06,0.96,-0.48,0.58,
1.373,0.15,-0.13,1.06,0.96,-0.48,0.58,
1.373,0.15,-0.13,1.06,1.02,-0.40,0.63,
1.374,0.16,-0.12,1.06,1.02,-0.40,0.63,
1.377,0.17,-0.12,1.07,1.02,-0.40,0.63,
1.377,0.17,-0.12,1.07,1.04,-0.28,0.75,
1.379,0.17,-0.12,1.06,1.04,-0.28,0.75,
1.382,0.18,-0.12,1.06,1.04,-0.28,0.75,
1.382,0.18,-0.12,1.06,1.16,-0.21,0.79,
1.387,0.18,-0.13,1.06,1.16,-0.21,0.79,
1.388,0.19,-0.13,1.06,1.16,-0.21,0.79,
1.388,0.19,-0.13,1.06,1.21,-0.17,0.77,
1.389,0.20,-0.13,1.06,1.21,-0.17,0.77,
1.392,0.20,-0.13,1.06,1.35,-0.27,0.72,
1.393,0.20,-0.14,1.05,1.35,-0.27,0.72,
1.394,0.21,-0.14,1.05,1.35,-0.27,0.72,
1.397,0.21,-0.15,1.05,1.35,-0.27,0.72,
1.397,0.21,-0.15,1.05,1.48,-0.34,0.69,
1.399,0.21,-0.16,1.04,1.48,-0.34,0.69,
1.402,0.21,-0.17,1.04,1.48,-0.34,0.69,
1.403,0.21,-0.17,1.04,1.55,-0.44,0.65,
1.404,0.22,-0.17,1.05,1.55,-0.44,0.65,
1.406,0.22,-0.17,1.05,1.55,-0.44,0.65,
1.406,0.22,-0.17,1.05,1.63,-0.59,0.59,
1.41,0.21,-0.18,1.06,1.63,-0.59,0.59,
1.412,0.21,-0.18,1.07,1.63,-0.59,0.59,
1.412,0.21,-0.18,1.07,1.65,-0.66,0.65,
1.414,0.21,-0.18,1.07,1.65,-0.66,0.65,
1.417,0.21,-0.18,1.07,1.61,-0.78,0.77,
1.418,0.20,-0.19,1.09,1.61,-0.78,0.77,
1.42,0.20,-0.19,1.09,1.61,-0.78,0.77,
1.421,0.20,-0.19,1.11,1.61,-0.78,0.77,
1.422,0.20,-0.19,1.11,1.56,-0.81,0.92,
1.423,0.20,-0.19,1.11,1.56,-0.81,0.92,
1.427,0.19,-0.19,1.13,1.56,-0.81,0.92,
1.427,0.19,-0.19,1.13,1.50,-0.82,1.13,
1.429,0.19,-0.20,1.13,1.50,-0.82,1.13,
1.432,0.19,-0.20,1.15,1.50,-0.82,1.13,
1.432,0.19,-0.20,1.15,1.47,-0.85,1.34,
1.434,0.19,-0.20,1.16,1.47,-0.85,1.34,
1.436,0.20,-0.20,1.17,1.47,-0.85,1.34,
1.437,0.20,-0.20,1.17,1.45,-0.90,1.50,
1.438,0.20,-0.20,1.17,1.45,-0.90,1.50,
1.441,0.20,-0.20,1.17,1.47,-0.92,1.74,
1.442,0.21,-0.19,1.17,1.47,-0.92,1.74,
1.444,0.21,-0.20,1.18,1.47,-0.92,1.74,
1.446,0.21,-0.19,1.19,1.47,-0.92,1.74,
1.446,0.21,-0.19,1.19,1.55,-0.87,1.83,
1.449,0.22,-0.18,1.19,1.55,-0.87,1.83,
1.453,0.23,-0.17,1.20,1.55,-0.87,1.83,
1.454,0.23,-0.17,1.20,1.62,-0.84,1.96,
1.454,0.23,-0.17,1.20,1.62,-0.84,1.96,
1.456,0.24,-0.16,1.20,1.62,-0.84,1.96,
1.456,0.24,-0.16,1.20,1.77,-0.73,2.04,
1.459,0.25,-0.16,1.20,1.77,-0.73,2.04,
1.461,0.25,-0.15,1.20,1.77,-0.73,2.04,
1.462,0.25,-0.15,1.20,1.86,-0.62,2.07,
1.464,0.26,-0.14,1.20,1.86,-0.62,2.07,
1.466,0.26,-0.14,1.20,2.00,-0.50,2.05,
1.466,0.26,-0.14,1.19,2.00,-0.50,2.05,
1.468,0.27,-0.14,1.19,2.00,-0.50,2.05,
1.471,0.27,-0.13,1.20,2.00,-0.50,2.05,
1.471,0.27,-0.13,1.20,2.10,-0.42,2.04,
1.474,0.27,-0.12,1.20,2.10,-0.42,2.04,
1.476,0.28,-0.13,1.18,2.10,-0.42,2.04,
1.477,0.28,-0.13,1.18,2.13,-0.33,2.02,
1.479,0.28,-0.12,1.19,2.13,-0.33,2.02,
1.482,0.28,-0.12,1.18,2.13,-0.33,2.02,
1.482,0.28,-0.12,1.18,2.21,-0.28,1.96,
1.485,0.29,-0.12,1.17,2.21,-0.28,1.96,
1.49,0.29,-0.12,1.17,2.24,-0.27,1.91,
1.491,0.29,-0.11,1.16,2.24,-0.27,1.91,
1.491,0.29,-0.11,1.17,2.24,-0.27,1.91,
1.491,0.29,-0.11,1.17,2.37,-0.24,1.72,
1.492,0.29,-0.11,1.17,2.37,-0.24,1.72,
1.493,0.30,-0.11,1.16,2.37,-0.24,1.72,
1.496,0.29,-0.12,1.16,2.37,-0.24,1.72,
1.496,0.29,-0.12,1.16,2.38,-0.23,1.71,
1.498,0.29,-0.12,1.16,2.38,-0.23,1.71,
1.501,0.30,-0.12,1.16,2.38,-0.23,1.71,
1.501,0.30,-0.12,1.16,2.38,-0.30,1.62,
1.503,0.30,-0.12,1.15,2.38,-0.30,1.62,
1.505,0.30,-0.12,1.16,2.38,-0.30,1.62,
1.506,0.30,-0.12,1.16,2.38,-0.34,1.62,
1.507,0.30,-0.13,1.16,2.38,-0.34,1.62,
1.51,0.30,-0.13,1.16,2.38,-0.34,1.62,
1.51,0.30,-0.13,1.16,2.39,-0.41,1.61,
1.513,0.30,-0.13,1.17,2.39,-0.41,1.61,
1.515,0.30,-0.13,1.17,2.39,-0.48,1.63,
1.516,0.30,-0.13,1.17,2.39,-0.48,1.63,
1.517,0.29,-0.14,1.17,2.39,-0.48,1.63,
1.52,0.29,-0.14,1.18,2.39,-0.48,1.63,
1.521,0.29,-0.14,1.18,2.38,-0.56,1.70,
1.522,0.29,-0.14,1.17,2.38,-0.56,1.70,
1.525,0.28,-0.14,1.18,2.38,-0.56,1.70,
1.526,0.28,-0.14,1.18,2.28,-0.61,1.75,
1.527,0.28,-0.13,1.18,2.28,-0.61,1.75,
1.53,0.28,-0.13,1.18,2.28,-0.61,1.75,
1.531,0.28,-0.13,1.18,2.23,-0.65,1.75,
1.532,0.29,-0.13,1.18,2.23,-0.65,1.75,
1.536,0.29,-0.13,1.18,2.18,-0.63,1.79,
1.536,0.28,-0.13,1.17,2.18,-0.63,1.79,
1.538,0.28,-0.13,1.17,2.18,-0.63,1.79,
1.54,0.28,-0.12,1.17,2.18,-0.63,1.79,
1.541,0.28,-0.12,1.17,2.21,-0.60,1.74,
1.542,0.27,-0.12,1.17,2.21,-0.60,1.74,
1.545,0.27,-0.11,1.16,2.21,-0.60,1.74,
1.545,0.27,-0.11,1.16,2.14,-0.58,1.70,
1.547,0.27,-0.11,1.16,2.14,-0.58,1.70,
1.551,0.27,-0.11,1.15,2.14,-0.58,1.70,
1.551,0.27,-0.11,1.15,2.09,-0.54,1.61,
1.553,0.27,-0.11,1.15,2.09,-0.54,1.61,
1.555,0.26,-0.10,1.13,2.09,-0.54,1.61,
1.555,0.26,-0.10,1.13,2.05,-0.52,1.53,
1.557,0.25,-0.10,1.13,2.05,-0.52,1.53,
1.56,0.26,-0.09,1.13,2.05,-0.52,1.53,
1.56,0.26,-0.09,1.13,1.98,-0.47,1.39,
1.562,0.25,-0.09,1.12,1.98,-0.47,1.39,
1.565,0.25,-0.09,1.12,1.91,-0.41,1.27,
1.565,0.25,-0.08,1.11,1.91,-0.41,1.27,
1.567,0.25,-0.08,1.12,1.91,-0.41,1.27,
1.571,0.24,-0.08,1.10,1.91,-0.41,1.27,
1.571,0.24,-0.08,1.10,1.88,-0.37,1.15,
1.572,0.24,-0.08,1.10,1.88,-0.37,1.15,
1.575,0.24,-0.08,1.10,1.84,-0.37,1.08,
1.576,0.24,-0.09,1.10,1.84,-0.37,1.08,
1.577,0.24,-0.09,1.10,1.84,-0.37,1.08,
1.579,0.24,-0.09,1.10,1.82,-0.41,1.01,
1.58,0.25,-0.09,1.09,1.82,-0.41,1.01,
1.582,0.24,-0.09,1.09,1.82,-0.41,1.01,
1.585,0.24,-0.09,1.09,1.82,-0.41,1.01,
1.586,0.24,-0.09,1.09,1.86,-0.47,0.90,
1.591,0.24,-0.09,1.09,1.86,-0.47,0.90,
1.592,0.24,-0.09,1.09,1.85,-0.54,0.88,
1.592,0.24,-0.10,1.09,1.85,-0.54,0.88,
1.592,0.24,-0.10,1.08,1.85,-0.54,0.88,
1.594,0.24,-0.10,1.08,1.85,-0.54,0.88,
1.595,0.24,-0.10,1.08,1.86,-0.62,0.84,
1.596,0.24,-0.09,1.07,1.86,-0.62,0.84,
1.6,0.24,-0.09,1.07,1.86,-0.62,0.84,
1.6,0.24,-0.09,1.07,1.86,-0.68,0.79,
1.603,0.25,-0.09,1.07,1.86,-0.68,0.79,
1.604,0.24,-0.09,1.06,1.86,-0.68,0.79,
1.605,0.24,-0.09,1.06,1.84,-0.65,0.70,
1.606,0.24,-0.08,1.06,1.84,-0.65,0.70,
1.609,0.25,-0.08,1.06,1.84,-0.65,0.70,
1.609,0.25,-0.08,1.06,1.89,-0.63,0.63,
1.612,0.24,-0.08,1.05,1.89,-0.63,0.63,
1.614,0.24,-0.08,1.05,1.92,-0.59,0.54,
1.615,0.24,-0.07,1.04,1.92,-0.59,0.54,
1.616,0.25,-0.07,1.04,1.92,-0.59,0.54,
1.62,0.25,-0.06,1.04,1.92,-0.59,0.54,
1.62,0.25,-0.06,1.04,1.89,-0.55,0.44,
1.622,0.25,-0.06,1.04,1.89,-0.55,0.44,
1.625,0.25,-0.06,1.03,1.89,-0.55,0.44,
1.625,0.25,-0.06,1.03,1.96,-0.47,0.38,
1.627,0.26,-0.05,1.02,1.96,-0.47,0.38,
1.629,0.25,-0.05,1.02,1.96,-0.47,0.38,
1.629,0.25,-0.05,1.02,2.00,-0.45,0.31,
1.632,0.26,-0.04,1.02,2.00,-0.45,0.31,
1.634,0.26,-0.04,1.02,2.00,-0.45,0.31,
1.634,0.26,-0.04,1.02,2.04,-0.39,0.19,
1.636,0.26,-0.04,1.02,2.04,-0.39,0.19,
1.639,0.26,-0.04,1.02,2.05,-0.34,0.19,
1.639,0.25,-0.04,1.01,2.05,-0.34,0.19,
1.641,0.26,-0.03,1.01,2.05,-0.34,0.19,
1.644,0.25,-0.03,1.01,2.05,-0.34,0.19,
1.644,0.25,-0.03,1.01,2.03,-0.33,0.13,
1.646,0.25,-0.02,1.01,2.03,-0.33,0.13,
1.649,0.25,-0.02,1.01,2.03,-0.33,0.13,
1.649,0.25,-0.02,1.01,2.04,-0.27,0.09,
1.652,0.24,-0.02,1.01,2.04,-0.27,0.09,
1.656,0.24,-0.02,1.01,2.04,-0.27,0.09,
1.657,0.24,-0.02,1.01,1.98,-0.23,0.04,
1.657,0.24,-0.01,1.01,1.98,-0.23,0.04,
1.659,0.24,-0.01,1.01,1.98,-0.23,0.04,
1.66,0.24,-0.01,1.01,1.95,-0.24,0.07,
1.661,0.24,-0.01,1.01,1.95,-0.24,0.07,
1.664,0.24,-0.01,1.01,1.95,-0.19,0.04,
1.664,0.24,-0.00,1.01,1.95,-0.19,0.04,
1.666,0.24,-0.00,1.01,1.95,-0.19,0.04,
1.672,0.23,-0.00,1.01,1.95,-0.19,0.04,
1.672,0.23,-0.00,1.01,1.93,-0.17,0.06,
1.672,0.23,0.00,1.01,1.93,-0.17,0.06,
1.674,0.23,0.01,1.01,1.93,-0.17,0.06,
1.674,0.23,0.01,1.01,1.89,-0.15,0.09,
1.676,0.23,0.01,1.01,1.89,-0.15,0.09,
1.679,0.23,0.00,1.01,1.89,-0.15,0.09,
1.68,0.23,0.00,1.01,1.86,-0.12,0.07,
1.681,0.23,0.00,1.00,1.86,-0.12,0.07,
1.684,0.23,0.01,1.00,1.86,-0.12,0.07,
1.684,0.23,0.01,1.00,1.88,-0.13,0.04,
1.686,0.24,-0.00,1.00,1.88,-0.13,0.04,
1.689,0.24,-0.00,1.00,1.90,-0.15,-0.00,
1.689,0.24,-0.00,1.00,1.90,-0.15,-0.00,
1.691,0.24,-0.00,1.00,1.90,-0.15,-0.00,
1.694,0.24,-0.00,1.00,1.90,-0.15,-0.00,
1.694,0.24,-0.00,1.00,1.96,-0.24,-0.03,
1.696,0.24,-0.00,1.00,1.96,-0.24,-0.03,
1.699,0.24,-0.00,1.00,1.96,-0.24,-0.03,
1.699,0.24,-0.00,1.00,1.95,-0.27,-0.03,
1.701,0.23,0.00,1.00,1.95,-0.27,-0.03,
1.707,0.23,0.01,1.00,1.95,-0.27,-0.03,
1.708,0.23,0.01,1.00,1.94,-0.31,-0.02,
1.708,0.23,0.01,1.00,1.94,-0.31,-0.02,
1.709,0.22,0.01,0.99,1.94,-0.31,-0.02,
1.709,0.22,0.01,0.99,1.90,-0.26,-0.04,
1.711,0.22,0.01,0.99,1.90,-0.26,-0.04,
1.714,0.22,0.01,0.99,1.86,-0.26,-0.07,
1.714,0.21,0.01,0.99,1.86,-0.26,-0.07,
1.715,0.21,0.01,0.99,1.86,-0.26,-0.07,
1.719,0.21,0.02,0.99,1.86,-0.26,-0.07,
1.719,0.21,0.02,0.99,1.79,-0.23,-0.10,
1.722,0.21,0.02,0.99,1.79,-0.23,-0.10,
1.723,0.21,0.03,0.98,1.79,-0.23,-0.10,
1.724,0.21,0.03,0.98,1.72,-0.26,-0.13,
1.726,0.20,0.03,0.98,1.72,-0.26,-0.13,
1.729,0.19,0.03,0.98,1.72,-0.26,-0.13,
1.729,0.19,0.03,0.98,1.71,-0.18,-0.19,
1.731,0.19,0.04,0.97,1.71,-0.18,-0.19,
1.734,0.19,0.04,0.96,1.71,-0.18,-0.19,
1.734,0.19,0.04,0.96,1.58,-0.16,-0.24,
1.736,0.19,0.04,0.95,1.58,-0.16,-0.24,
1.738,0.19,0.04,0.95,1.61,-0.10,-0.41,
1.738,0.19,0.05,0.95,1.61,-0.10,-0.41,
1.74,0.19,0.06,0.95,1.61,-0.10,-0.41,
1.743,0.19,0.06,0.95,1.61,-0.10,-0.41,
1.744,0.19,0.06,0.95,1.59,-0.08,-0.50,
1.746,0.18,0.06,0.94,1.59,-0.08,-0.50,
1.749,0.18,0.06,0.94,1.56,-0.01,-0.55,
1.749,0.19,0.07,0.94,1.56,-0.01,-0.55,
1.751,0.18,0.07,0.93,1.56,-0.01,-0.55,
1.755,0.19,0.08,0.92,1.56,-0.01,-0.55,
1.756,0.19,0.08,0.92,1.55,0.02,-0.64,
1.756,0.19,0.08,0.91,1.55,0.02,-0.64,
1.758,0.19,0.08,0.91,1.55,0.02,-0.64,
1.758,0.19,0.08,0.91,1.56,0.10,-0.75,
1.761,0.19,0.08,0.91,1.56,0.10,-0.75,
1.763,0.19,0.08,0.91,1.60,0.10,-0.86,
1.764,0.20,0.09,0.90,1.60,0.10,-0.86,
1.766,0.20,0.09,0.90,1.60,0.10,-0.86,
1.768,0.20,0.09,0.91,1.60,0.10,-0.86,
1.769,0.20,0.09,0.91,1.66,0.12,-0.90,
1.771,0.20,0.09,0.90,1.66,0.12,-0.90,
1.773,0.20,0.09,0.90,1.66,0.12,-0.90,
1.773,0.20,0.09,0.90,1.70,0.11,-0.93,
1.776,0.20,0.09,0.90,1.70,0.11,-0.93,
1.778,0.20,0.09,0.90,1.71,0.12,-0.93,
1.779,0.20,0.09,0.90,1.71,0.12,-0.93,
1.78,0.20,0.10,0.90,1.71,0.12,-0.93,
1.783,0.20,0.10,0.90,1.71,0.12,-0.93,
1.783,0.20,0.10,0.90,1.73,0.09,-0.94,
1.785,0.21,0.10,0.91,1.73,0.09,-0.94,
1.788,0.21,0.10,0.91,1.71,0.11,-0.94,
1.789,0.20,0.10,0.91,1.71,0.11,-0.94,
1.79,0.20,0.10,0.90,1.71,0.11,-0.94,
1.793,0.20,0.10,0.91,1.71,0.11,-0.94,
1.793,0.20,0.10,0.91,1.75,0.10,-0.90,
1.795,0.20,0.10,0.91,1.75,0.10,-0.90,
1.797,0.19,0.10,0.91,1.75,0.10,-0.90,
1.798,0.19,0.10,0.91,1.70,0.07,-0.89,
1.799,0.19,0.10,0.92,1.70,0.07,-0.89,
1.808,0.19,0.10,0.92,1.70,0.07,-0.89,
1.809,0.19,0.10,0.92,1.70,0.03,-0.85,
1.809,0.19,0.10,0.92,1.70,0.03,-0.85,
1.809,0.19,0.10,0.92,1.70,0.03,-0.85,
1.809,0.19,0.10,0.92,1.67,0.05,-0.79,
1.809,0.18,0.10,0.92,1.67,0.05,-0.79,
1.812,0.18,0.10,0.92,1.62,0.04,-0.74,
1.815,0.18,0.10,0.93,1.62,0.04,-0.74,
1.815,0.18,0.11,0.93,1.62,0.04,-0.74,
1.817,0.17,0.10,0.93,1.62,0.04,-0.74,
1.817,0.17,0.10,0.93,1.58,0.01,-0.67,
1.82,0.17,0.09,0.93,1.58,0.01,-0.67,
1.822,0.17,0.10,0.93,1.58,0.01,-0.67,
1.822,0.17,0.10,0.93,1.51,0.00,-0.65,
1.824,0.16,0.09,0.94,1.51,0.00,-0.65,
1.827,0.16,0.09,0.94,1.51,0.00,-0.65,
1.827,0.16,0.09,0.94,1.46,-0.07,-0.62,
1.829,0.16,0.09,0.94,1.46,-0.07,-0.62,
1.833,0.15,0.09,0.94,1.46,-0.07,-0.62,
1.833,0.15,0.09,0.94,1.36,-0.13,-0.60,
1.834,0.14,0.09,0.94,1.36,-0.13,-0.60,
1.837,0.14,0.09,0.94,1.32,-0.19,-0.59,
1.838,0.14,0.09,0.93,1.32,-0.19,-0.59,
1.839,0.15,0.09,0.94,1.32,-0.19,-0.59,
1.842,0.14,0.09,0.93,1.32,-0.19,-0.59,
1.842,0.14,0.09,0.93,1.24,-0.22,-0.58,
1.844,0.14,0.09,0.93,1.24,-0.22,-0.58,
1.847,0.14,0.09,0.93,1.24,-0.22,-0.58,
1.847,0.14,0.09,0.93,1.23,-0.19,-0.59,
1.849,0.14,0.10,0.93,1.23,-0.19,-0.59,
1.852,0.14,0.10,0.92,1.23,-0.19,-0.59,
1.852,0.14,0.10,0.92,1.19,-0.21,-0.64,
1.854,0.14,0.10,0.92,1.19,-0.21,-0.64,
1.857,0.13,0.11,0.92,1.19,-0.21,-0.64,
1.857,0.13,0.11,0.92,1.19,-0.19,-0.70,
1.859,0.13,0.11,0.91,1.19,-0.19,-0.70,
1.862,0.13,0.11,0.91,1.18,-0.15,-0.74,
1.862,0.13,0.11,0.90,1.18,-0.15,-0.74,
1.864,0.14,0.11,0.89,1.18,-0.15,-0.74,
1.867,0.14,0.12,0.89,1.18,-0.15,-0.74,
1.867,0.14,0.12,0.89,1.19,-0.13,-0.91,
1.869,0.14,0.12,0.88,1.19,-0.13,-0.91,
1.872,0.14,0.12,0.87,1.19,-0.13,-0.91,
1.872,0.14,0.12,0.87,1.22,-0.11,-1.00,
1.874,0.15,0.12,0.86,1.22,-0.11,-1.00,
1.876,0.14,0.13,0.86,1.22,-0.11,-1.00,
1.877,0.14,0.13,0.86,1.27,-0.08,-1.18,
1.879,0.14,0.13,0.85,1.27,-0.08,-1.18,
1.881,0.15,0.14,0.84,1.27,-0.08,-1.18,
1.882,0.15,0.14,0.84,1.32,-0.04,-1.30,
1.884,0.14,0.14,0.84,1.32,-0.04,-1.30,
1.887,0.14,0.14,0.84,1.33,0.01,-1.44,
1.888,0.15,0.15,0.83,1.33,0.01,-1.44,
1.889,0.15,0.15,0.83,1.33,0.01,-1.44,
1.892,0.15,0.15,0.84,1.33,0.01,-1.44,
1.892,0.15,0.15,0.84,1.35,0.06,-1.50,
1.894,0.15,0.16,0.83,1.35,0.06,-1.50,
1.896,0.14,0.17,0.83,1.35,0.06,-1.50,
1.897,0.14,0.17,0.83,1.36,0.11,-1.52,
1.899,0.14,0.17,0.83,1.36,0.11,-1.52,
1.902,0.14,0.17,0.83,1.36,0.20,-1.59,
1.902,0.13,0.17,0.83,1.36,0.20,-1.59,
1.904,0.13,0.17,0.83,1.36,0.20,-1.59,
1.906,0.13,0.17,0.82,1.36,0.20,-1.59,
1.906,0.13,0.17,0.82,1.26,0.21,-1.59,
1.908,0.13,0.16,0.83,1.26,0.21,-1.59,
1.911,0.13,0.16,0.83,1.26,0.20,-1.60,
1.911,0.12,0.16,0.83,1.26,0.20,-1.60,
1.913,0.12,0.15,0.83,1.26,0.20,-1.60,
1.916,0.12,0.16,0.83,1.26,0.20,-1.60,
1.916,0.12,0.16,0.83,1.20,0.12,-1.56,
1.918,0.12,0.15,0.83,1.20,0.12,-1.56,
1.922,0.11,0.15,0.83,1.20,0.12,-1.56,
1.922,0.11,0.15,0.83,1.16,0.04,-1.55,
1.923,0.12,0.15,0.83,1.16,0.04,-1.55,
1.926,0.12,0.15,0.83,1.16,0.04,-1.55,
1.926,0.12,0.15,0.83,1.10,-0.03,-1.53,
1.928,0.11,0.15,0.83,1.10,-0.03,-1.53,
1.932,0.11,0.15,0.83,1.10,-0.03,-1.53,
1.932,0.11,0.15,0.83,1.11,-0.06,-1.54,
1.933,0.11,0.15,0.83,1.11,-0.06,-1.54,
1.942,0.11,0.15,0.83,1.09,-0.07,-1.55,
1.942,0.10,0.15,0.83,1.09,-0.07,-1.55,
1.942,0.10,0.14,0.83,1.09,-0.07,-1.55,
1.943,0.10,0.14,0.84,1.09,-0.07,-1.55,
1.943,0.10,0.14,0.84,1.01,-0.06,-1.52,
1.943,0.09,0.14,0.85,1.01,-0.06,-1.52,
1.946,0.09,0.14,0.85,0.94,-0.10,-1.44,
1.947,0.09,0.14,0.85,0.94,-0.10,-1.44,
1.948,0.08,0.14,0.85,0.94,-0.10,-1.44,
1.951,0.08,0.14,0.86,0.94,-0.10,-1.44,
1.951,0.08,0.14,0.86,0.87,-0.14,-1.33,
1.953,0.08,0.14,0.86,0.87,-0.14,-1.33,
1.956,0.07,0.13,0.87,0.87,-0.14,-1.33,
1.957,0.07,0.13,0.87,0.81,-0.16,-1.26,
1.958,0.07,0.13,0.87,0.81,-0.16,-1.26,
1.961,0.07,0.13,0.87,0.74,-0.21,-1.18,
1.961,0.07,0.13,0.87,0.74,-0.21,-1.18,
1.963,0.06,0.12,0.87,0.74,-0.21,-1.18,
1.966,0.07,0.12,0.87,0.74,-0.21,-1.18,
1.966,0.07,0.12,0.87,0.67,-0.27,-1.10,
1.968,0.07,0.11,0.87,0.67,-0.27,-1.10,
1.971,0.06,0.11,0.87,0.67,-0.27,-1.10,
1.972,0.06,0.11,0.87,0.64,-0.35,-1.07,
1.973,0.06,0.11,0.86,0.64,-0.35,-1.07,
1.976,0.06,0.11,0.87,0.64,-0.35,-1.07,
1.976,0.06,0.11,0.87,0.64,-0.44,-1.13,
1.978,0.06,0.11,0.87,0.64,-0.44,-1.13,
1.98,0.05,0.11,0.87,0.64,-0.44,-1.13,
1.981,0.05,0.11,0.87,0.61,-0.47,-1.16,
1.984,0.04,0.10,0.87,0.61,-0.47,-1.16,
1.985,0.04,0.10,0.87,0.55,-0.47,-1.14,
1.986,0.04,0.10,0.86,0.55,-0.47,-1.14,
1.989,0.04,0.11,0.86,0.55,-0.47,-1.14,
1.991,0.03,0.11,0.86,0.55,-0.47,-1.14,
1.991,0.03,0.11,0.86,0.40,-0.53,-1.16,
1.993,0.02,0.11,0.86,0.40,-0.53,-1.16,
1.996,0.02,0.12,0.86,0.40,-0.53,-1.16,
1.996,0.02,0.12,0.86,0.30,-0.50,-1.19,
1.998,0.02,0.12,0.86,0.30,-0.50,-1.19,
2.001,0.02,0.13,0.85,0.30,-0.50,-1.19,
2.001,0.02,0.13,0.85,0.21,-0.43,-1.18,
2.003,0.01,0.14,0.85,0.21,-0.43,-1.18,
2.006,0.01,0.14,0.85,0.21,-0.43,-1.18,
2.006,0.01,0.14,0.85,0.17,-0.33,-1.24,
2.008,0.01,0.14,0.84,0.17,-0.33,-1.24,
2.011,0.01,0.14,0.84,0.09,-0.23,-1.30,
2.012,0.02,0.15,0.83,0.09,-0.23,-1.30,
2.013,0.02,0.15,0.83,0.09,-0.23,-1.30,
2.016,0.02,0.15,0.83,0.09,-0.23,-1.30,
2.016,0.02,0.15,0.83,0.10,-0.16,-1.42,
2.018,0.02,0.16,0.83,0.10,-0.16,-1.42,
2.021,0.02,0.16,0.84,0.10,-0.16,-1.42,
2.022,0.02,0.16,0.84,0.13,-0.12,-1.45,
2.024,0.02,0.16,0.84,0.13,-0.12,-1.45,
2.026,0.01,0.16,0.85,0.13,-0.12,-1.45,
2.026,0.01,0.16,0.85,0.14,-0.07,-1.41,
2.028,0.02,0.16,0.85,0.14,-0.07,-1.41,
2.03,0.01,0.17,0.86,0.14,-0.07,-1.41,
2.031,0.01,0.17,0.86,0.10,-0.02,-1.32,
2.033,0.02,0.17,0.87,0.10,-0.02,-1.32,
2.036,0.02,0.17,0.87,0.08,0.01,-1.21,
2.036,0.02,0.17,0.87,0.08,0.01,-1.21,
2.037,0.02,0.17,0.88,0.08,0.01,-1.21,
2.041,0.03,0.16,0.88,0.08,0.01,-1.21,
2.041,0.03,0.16,0.88,0.08,0.02,-1.06,
2.042,0.02,0.16,0.89,0.08,0.02,-1.06,
2.046,0.03,0.15,0.89,0.08,0.02,-1.06,
2.046,0.03,0.15,0.89,0.12,0.01,-0.94,
2.048,0.02,0.14,0.90,0.12,0.01,-0.94,
2.05,0.02,0.14,0.91,0.12,0.01,-0.94,
2.05,0.02,0.14,0.91,0.14,-0.11,-0.87,
2.053,0.02,0.14,0.91,0.14,-0.11,-0.87,
2.055,0.02,0.14,0.92,0.14,-0.11,-0.87,
2.056,0.02,0.14,0.92,0.12,-0.24,-0.73,
2.058,0.02,0.13,0.92,0.12,-0.24,-0.73,
2.061,0.02,0.13,0.92,0.09,-0.26,-0.62,
2.061,0.02,0.13,0.93,0.09,-0.26,-0.62,
2.062,0.02,0.13,0.94,0.09,-0.26,-0.62,
2.065,0.02,0.13,0.94,0.09,-0.26,-0.62,
2.066,0.02,0.13,0.94,0.05,-0.31,-0.50,
2.067,0.02,0.13,0.95,0.05,-0.31,-0.50,
2.07,0.01,0.13,0.96,0.05,-0.31,-0.50,
2.071,0.01,0.13,0.96,0.03,-0.32,-0.37,
2.073,0.01,0.13,0.96,0.03,-0.32,-0.37,
2.075,0.01,0.12,0.95,0.03,-0.32,-0.37,
2.075,0.01,0.12,0.95,0.01,-0.32,-0.24,
2.077,0.01,0.11,0.95,0.01,-0.32,-0.24,
2.08,0.01,0.11,0.95,0.01,-0.32,-0.24,
2.081,0.01,0.11,0.95,-0.07,-0.37,-0.20,
2.082,0.02,0.10,0.96,-0.07,-0.37,-0.20,
2.086,0.02,0.10,0.96,-0.05,-0.50,-0.26,
2.086,0.02,0.10,0.95,-0.05,-0.50,-0.26,
2.089,0.02,0.09,0.94,-0.05,-0.50,-0.26,
2.091,0.02,0.10,0.94,-0.05,-0.50,-0.26,
2.091,0.02,0.10,0.94,0.01,-0.58,-0.24,
2.092,0.02,0.09,0.93,0.01,-0.58,-0.24,
2.095,0.02,0.08,0.92,0.01,-0.58,-0.24,
2.095,0.02,0.08,0.92,0.04,-0.66,-0.37,
2.097,0.02,0.08,0.92,0.04,-0.66,-0.37,
2.101,0.00,0.09,0.93,0.04,-0.66,-0.37,
2.101,0.00,0.09,0.93,0.05,-0.76,-0.51,
2.102,-0.00,0.09,0.93,0.05,-0.76,-0.51,
2.106,-0.01,0.10,0.93,0.05,-0.76,-0.51,
2.107,-0.01,0.10,0.93,-0.04,-0.74,-0.51,
2.107,-0.02,0.10,0.92,-0.04,-0.74,-0.51,
2.109,-0.02,0.10,0.92,-0.19,-0.66,-0.49,
2.11,-0.02,0.11,0.92,-0.19,-0.66,-0.49,
2.112,-0.03,0.11,0.92,-0.19,-0.66,-0.49,
2.115,-0.03,0.12,0.91,-0.19,-0.66,-0.49,
2.115,-0.03,0.12,0.91,-0.36,-0.55,-0.56,
2.117,-0.03,0.12,0.91,-0.36,-0.55,-0.56,
2.12,-0.03,0.12,0.91,-0.36,-0.55,-0.56,
2.12,-0.03,0.12,0.91,-0.41,-0.48,-0.62,
2.122,-0.03,0.12,0.90,-0.41,-0.48,-0.62,
2.124,-0.02,0.12,0.89,-0.41,-0.48,-0.62,
2.125,-0.02,0.12,0.89,-0.45,-0.43,-0.64,
2.127,-0.02,0.12,0.89,-0.45,-0.43,-0.64,
2.13,-0.01,0.12,0.88,-0.45,-0.43,-0.64,
2.13,-0.01,0.12,0.88,-0.39,-0.42,-0.76,
2.132,-0.01,0.12,0.87,-0.39,-0.42,-0.76,
2.134,-0.01,0.12,0.87,-0.28,-0.47,-0.90,
2.134,-0.01,0.12,0.86,-0.28,-0.47,-0.90,
2.136,-0.01,0.13,0.85,-0.28,-0.47,-0.90,
2.142,-0.02,0.13,0.85,-0.28,-0.47,-0.90,
2.143,-0.02,0.13,0.85,-0.20,-0.48,-1.12,
2.143,-0.02,0.15,0.85,-0.20,-0.48,-1.12,
2.146,-0.03,0.16,0.85,-0.20,-0.48,-1.12,
2.146,-0.03,0.16,0.85,-0.23,-0.37,-1.25,
2.147,-0.05,0.17,0.85,-0.23,-0.37,-1.25,
2.149,-0.05,0.17,0.85,-0.37,-0.19,-1.25,
2.15,-0.06,0.17,0.85,-0.37,-0.19,-1.25,
2.151,-0.07,0.18,0.85,-0.37,-0.19,-1.25,
2.156,-0.08,0.19,0.85,-0.37,-0.19,-1.25,
2.156,-0.08,0.19,0.85,-0.61,-0.04,-1.23,
2.157,-0.08,0.19,0.85,-0.61,-0.04,-1.23,
2.159,-0.08,0.19,0.85,-0.81,0.10,-1.24,
2.159,-0.08,0.19,0.84,-0.81,0.10,-1.24,
2.162,-0.09,0.19,0.84,-0.81,0.10,-1.24,
2.164,-0.09,0.19,0.84,-0.81,0.10,-1.24,
2.164,-0.09,0.19,0.84,-0.90,0.16,-1.29,
2.166,-0.10,0.19,0.84,-0.90,0.16,-1.29,
2.17,-0.10,0.19,0.84,-0.90,0.16,-1.29,
2.17,-0.10,0.19,0.84,-1.01,0.15,-1.33,
2.171,-0.11,0.19,0.85,-1.01,0.15,-1.33,
2.174,-0.12,0.19,0.85,-1.01,0.15,-1.33,
2.175,-0.12,0.19,0.85,-1.10,0.11,-1.29,
2.177,-0.12,0.18,0.86,-1.10,0.11,-1.29,
2.178,-0.13,0.17,0.86,-1.10,0.11,-1.29,
2.179,-0.13,0.17,0.86,-1.21,0.10,-1.21,
2.182,-0.14,0.17,0.87,-1.21,0.10,-1.21,
2.185,-0.14,0.17,0.87,-1.34,-0.01,-1.09,
2.185,-0.14,0.17,0.88,-1.34,-0.01,-1.09,
2.186,-0.15,0.17,0.89,-1.34,-0.01,-1.09,
2.19,-0.15,0.16,0.90,-1.34,-0.01,-1.09,
2.19,-0.15,0.16,0.90,-1.48,-0.06,-0.95,
2.191,-0.16,0.16,0.92,-1.48,-0.06,-0.95,
2.195,-0.16,0.16,0.94,-1.48,-0.06,-0.95,
2.195,-0.16,0.16,0.94,-1.61,-0.13,-0.72,
2.196,-0.17,0.15,0.94,-1.61,-0.13,-0.72,
2.199,-0.16,0.15,0.95,-1.61,-0.13,-0.72,
2.2,-0.16,0.15,0.95,-1.71,-0.18,-0.43,
2.201,-0.17,0.14,0.96,-1.71,-0.18,-0.43,
2.204,-0.17,0.14,0.97,-1.71,-0.18,-0.43,
2.205,-0.17,0.14,0.97,-1.78,-0.30,-0.29,
2.207,-0.17,0.14,0.98,-1.78,-0.30,-0.29,
2.209,-0.17,0.14,0.98,-1.82,-0.34,-0.08,
2.209,-0.17,0.14,0.98,-1.82,-0.34,-0.08,
2.211,-0.18,0.14,0.98,-1.82,-0.34,-0.08,
2.214,-0.18,0.14,0.98,-1.86,-0.37,0.03,
2.214,-0.18,0.13,0.99,-1.86,-0.37,0.03,
2.216,-0.18,0.13,0.99,-1.86,-0.37,0.03,
2.219,-0.18,0.13,0.99,-1.86,-0.37,0.03,
2.219,-0.18,0.13,0.99,-1.92,-0.42,0.12,
2.221,-0.18,0.13,0.99,-1.92,-0.42,0.12,
2.223,-0.19,0.12,0.98,-1.92,-0.42,0.12,
2.224,-0.19,0.12,0.98,-1.94,-0.48,0.16,
2.225,-0.18,0.12,0.98,-1.94,-0.48,0.16,
2.229,-0.18,0.12,0.98,-1.98,-0.52,0.11,
2.229,-0.18,0.12,0.97,-1.98,-0.52,0.11,
2.231,-0.17,0.11,0.96,-1.98,-0.52,0.11,
2.234,-0.17,0.11,0.96,-1.92,-0.56,-0.01,
2.234,-0.17,0.11,0.95,-1.92,-0.56,-0.01,
2.236,-0.16,0.11,0.94,-1.92,-0.56,-0.01,
2.238,-0.17,0.11,0.93,-1.92,-0.56,-0.01,
2.238,-0.17,0.11,0.93,-1.83,-0.62,-0.17,
2.243,-0.17,0.12,0.93,-1.83,-0.62,-0.17,
2.243,-0.18,0.12,0.94,-1.83,-0.62,-0.17,
2.244,-0.18,0.12,0.94,-1.76,-0.63,-0.38,
2.247,-0.19,0.13,0.94,-1.76,-0.63,-0.38,
2.248,-0.19,0.13,0.94,-1.90,-0.57,-0.40,
2.249,-0.20,0.14,0.95,-1.90,-0.57,-0.40,
2.25,-0.21,0.14,0.95,-1.90,-0.57,-0.40,
2.254,-0.21,0.14,0.95,-2.08,-0.40,-0.24,
2.254,-0.22,0.14,0.96,-2.08,-0.40,-0.24,
2.256,-0.21,0.14,0.96,-2.08,-0.40,-0.24,
2.259,-0.21,0.14,0.96,-2.24,-0.39,-0.16,
2.259,-0.20,0.14,0.95,-2.24,-0.39,-0.16,
2.26,-0.19,0.13,0.95,-2.24,-0.39,-0.16,
2.263,-0.17,0.13,0.94,-2.24,-0.39,-0.16,
2.263,-0.17,0.13,0.94,-2.16,-0.36,-0.17,
2.266,-0.16,0.13,0.93,-2.16,-0.36,-0.17,
2.268,-0.15,0.13,0.93,-2.16,-0.36,-0.17,
2.269,-0.15,0.13,0.93,-1.91,-0.45,-0.27,
2.271,-0.14,0.13,0.94,-1.91,-0.45,-0.27,
2.273,-0.14,0.13,0.94,-1.67,-0.46,-0.37,
2.274,-0.13,0.13,0.94,-1.67,-0.46,-0.37,
2.275,-0.14,0.14,0.94,-1.67,-0.46,-0.37,
2.278,-0.14,0.14,0.94,-1.48,-0.47,-0.35,
2.278,-0.14,0.14,0.95,-1.48,-0.47,-0.35,
2.281,-0.14,0.15,0.95,-1.48,-0.47,-0.35,
2.283,-0.14,0.15,0.95,-1.46,-0.42,-0.25,
2.284,-0.14,0.15,0.96,-1.46,-0.42,-0.25,
2.286,-0.14,0.15,0.97,-1.46,-0.42,-0.25,
2.288,-0.14,0.15,0.98,-1.46,-0.42,-0.25,
2.289,-0.14,0.15,0.98,-1.49,-0.31,-0.12,
2.291,-0.14,0.15,0.98,-1.49,-0.31,-0.12,
2.293,-0.15,0.15,0.98,-1.49,-0.31,-0.12,
2.293,-0.15,0.15,0.98,-1.47,-0.28,0.00,
2.295,-0.14,0.15,0.99,-1.47,-0.28,0.00,
2.298,-0.14,0.15,0.98,-1.47,-0.28,0.00,
2.299,-0.14,0.15,0.98,-1.51,-0.27,0.10,
2.3,-0.13,0.15,0.98,-1.51,-0.27,0.10,
2.303,-0.13,0.15,0.98,-1.49,-0.33,0.14,
2.303,-0.14,0.14,0.98,-1.49,-0.33,0.14,
2.307,-0.13,0.15,0.98,-1.49,-0.33,0.14,
2.308,-0.13,0.15,0.98,-1.40,-0.36,0.09,
2.311,-0.13,0.14,0.98,-1.40,-0.36,0.09,
2.311,-0.12,0.14,0.97,-1.40,-0.36,0.09,
2.313,-0.12,0.14,0.97,-1.32,-0.37,0.05,
2.313,-0.12,0.14,0.98,-1.32,-0.37,0.05,
2.315,-0.12,0.15,0.98,-1.32,-0.37,0.05,
2.318,-0.12,0.15,0.98,-1.26,-0.40,0.03,
2.318,-0.12,0.15,0.98,-1.26,-0.40,0.03,
2.32,-0.11,0.15,0.97,-1.26,-0.40,0.03,
2.323,-0.11,0.16,0.98,-1.26,-0.40,0.03,
2.324,-0.11,0.16,0.98,-1.18,-0.35,0.08,
2.327,-0.11,0.16,0.98,-1.18,-0.35,0.08,
2.327,-0.11,0.16,0.97,-1.18,-0.35,0.08,
2.327,-0.11,0.16,0.97,-1.15,-0.27,0.05,
2.33,-0.11,0.16,0.98,-1.15,-0.27,0.05,
2.333,-0.11,0.16,0.98,-1.08,-0.24,0.05,
2.333,-0.11,0.16,0.98,-1.08,-0.24,0.05,
2.335,-0.11,0.16,0.98,-1.08,-0.24,0.05,
2.338,-0.11,0.16,0.98,-1.10,-0.21,0.09,
2.338,-0.11,0.16,0.97,-1.10,-0.21,0.09,
2.339,-0.12,0.16,0.97,-1.10,-0.21,0.09,
2.343,-0.11,0.17,0.98,-1.10,-0.21,0.09,
2.343,-0.11,0.17,0.98,-1.07,-0.23,0.04,
2.345,-0.11,0.16,0.97,-1.07,-0.23,0.04,
2.348,-0.11,0.17,0.97,-1.07,-0.23,0.04,
2.348,-0.11,0.17,0.97,-1.11,-0.20,0.02,
2.35,-0.11,0.17,0.97,-1.11,-0.20,0.02,
2.353,-0.11,0.17,0.96,-1.11,-0.20,0.02,
2.353,-0.11,0.17,0.96,-1.08,-0.18,0.02,
2.355,-0.11,0.18,0.96,-1.08,-0.18,0.02,
2.358,-0.11,0.18,0.96,-1.10,-0.15,-0.06,
2.358,-0.11,0.18,0.96,-1.10,-0.15,-0.06,
2.359,-0.11,0.18,0.96,-1.10,-0.15,-0.06,
2.362,-0.11,0.18,0.95,-1.10,-0.15,-0.06,
2.363,-0.11,0.18,0.95,-1.04,-0.07,-0.08,
2.365,-0.10,0.18,0.94,-1.04,-0.07,-0.08,
2.367,-0.10,0.19,0.94,-1.04,-0.07,-0.08,
2.368,-0.10,0.19,0.94,-1.03,-0.04,-0.17,
2.37,-0.10,0.19,0.93,-1.03,-0.04,-0.17,
2.378,-0.10,0.19,0.93,-0.96,-0.02,-0.27,
2.378,-0.10,0.19,0.93,-0.96,-0.02,-0.27,
2.378,-0.10,0.19,0.92,-0.96,-0.02,-0.27,
2.379,-0.10,0.19,0.92,-0.96,-0.02,-0.27,
2.379,-0.10,0.19,0.92,-0.94,-0.02,-0.39,
2.379,-0.10,0.19,0.92,-0.94,-0.02,-0.39,
2.382,-0.10,0.19,0.92,-0.95,-0.03,-0.44,
2.382,-0.11,0.19,0.92,-0.95,-0.03,-0.44,
2.384,-0.10,0.19,0.93,-0.95,-0.03,-0.44,
2.387,-0.11,0.19,0.92,-0.95,-0.03,-0.44,
2.387,-0.11,0.19,0.92,-0.99,-0.03,-0.45,
2.389,-0.12,0.18,0.92,-0.99,-0.03,-0.45,
2.392,-0.11,0.19,0.93,-0.99,-0.03,-0.45,
2.392,-0.11,0.19,0.93,-0.98,-0.05,-0.44,
2.394,-0.12,0.19,0.93,-0.98,-0.05,-0.44,
2.397,-0.12,0.18,0.92,-0.98,-0.05,-0.44,
2.397,-0.12,0.18,0.92,-1.06,-0.08,-0.42,
2.399,-0.11,0.18,0.93,-1.06,-0.08,-0.42,
2.402,-0.11,0.19,0.93,-1.06,-0.08,-0.42,
2.402,-0.11,0.19,0.93,-1.07,-0.10,-0.42,
2.404,-0.11,0.19,0.93,-1.07,-0.10,-0.42,
2.409,-0.11,0.19,0.93,-1.02,-0.10,-0.37,
2.41,-0.12,0.18,0.94,-1.02,-0.10,-0.37,
2.41,-0.11,0.18,0.94,-1.02,-0.10,-0.37,
2.411,-0.11,0.18,0.94,-1.06,-0.14,-0.29,
2.412,-0.11,0.18,0.94,-1.06,-0.14,-0.29,
2.414,-0.11,0.17,0.95,-1.06,-0.14,-0.29,
2.417,-0.10,0.17,0.95,-1.06,-0.14,-0.29,
2.417,-0.10,0.17,0.95,-1.02,-0.17,-0.23,
2.419,-0.10,0.17,0.95,-1.02,-0.17,-0.23,
2.422,-0.10,0.18,0.96,-1.02,-0.17,-0.23,
2.422,-0.10,0.18,0.96,-0.97,-0.23,-0.17,
2.424,-0.10,0.18,0.96,-0.97,-0.23,-0.17,
2.426,-0.09,0.18,0.96,-0.97,-0.23,-0.17,
2.426,-0.09,0.18,0.96,-0.93,-0.22,-0.12,
2.429,-0.10,0.18,0.96,-0.93,-0.22,-0.12,
2.432,-0.10,0.18,0.96,-0.89,-0.22,-0.06,
2.432,-0.09,0.18,0.97,-0.89,-0.22,-0.06,
2.434,-0.09,0.18,0.97,-0.89,-0.22,-0.06,
2.436,-0.08,0.18,0.97,-0.89,-0.22,-0.06,
2.436,-0.08,0.18,0.97,-0.86,-0.17,-0.02,
2.44,-0.08,0.19,0.96,-0.86,-0.17,-0.02,
2.442,-0.08,0.19,0.96,-0.86,-0.17,-0.02,
2.442,-0.08,0.19,0.96,-0.79,-0.15,-0.01,
2.443,-0.07,0.20,0.96,-0.79,-0.15,-0.01,
2.446,-0.07,0.21,0.96,-0.79,-0.15,-0.01,
2.446,-0.07,0.21,0.96,-0.74,-0.07,-0.03,
2.449,-0.06,0.21,0.97,-0.74,-0.07,-0.03,
2.452,-0.06,0.22,0.97,-0.74,-0.07,-0.03,
2.452,-0.06,0.22,0.97,-0.64,0.04,-0.03,
2.454,-0.06,0.22,0.97,-0.64,0.04,-0.03,
2.458,-0.05,0.22,0.97,-0.64,0.04,-0.03,
2.458,-0.05,0.22,0.97,-0.54,0.12,0.02,
2.459,-0.04,0.23,0.97,-0.54,0.12,0.02,
2.462,-0.04,0.23,0.97,-0.49,0.20,0.02,
2.462,-0.05,0.23,0.98,-0.49,0.20,0.02,
2.464,-0.04,0.24,0.97,-0.49,0.20,0.02,
2.466,-0.03,0.23,0.97,-0.49,0.20,0.02,
2.466,-0.03,0.23,0.97,-0.40,0.30,0.07,
2.468,-0.03,0.24,0.97,-0.40,0.30,0.07,
2.471,-0.03,0.24,0.97,-0.32,0.35,0.03,
2.471,-0.03,0.24,0.97,-0.32,0.35,0.03,
2.473,-0.02,0.24,0.97,-0.32,0.35,0.03,
2.48,-0.02,0.24,0.97,-0.32,0.35,0.03,
2.48,-0.02,0.24,0.97,-0.24,0.37,0.07,
2.481,-0.01,0.24,0.97,-0.24,0.37,0.07,
2.481,-0.02,0.24,0.97,-0.24,0.37,0.07,
2.481,-0.02,0.24,0.97,-0.15,0.38,0.03,
2.483,-0.01,0.23,0.98,-0.15,0.38,0.03,
2.485,-0.01,0.23,0.97,-0.15,0.38,0.03,
2.486,-0.01,0.23,0.97,-0.12,0.36,0.05,
2.488,-0.01,0.23,0.97,-0.12,0.36,0.05,
2.493,-0.01,0.23,0.98,-0.12,0.36,0.05,
2.493,-0.01,0.23,0.98,-0.09,0.31,0.08,
2.493,-0.01,0.23,0.98,-0.09,0.31,0.08,
2.495,-0.01,0.23,0.98,-0.10,0.28,0.11,
2.496,-0.01,0.23,0.98,-0.10,0.28,0.11,
2.498,-0.02,0.22,0.98,-0.10,0.28,0.11,
2.5,-0.02,0.22,0.99,-0.10,0.28,0.11,
2.5,-0.02,0.22,0.99,-0.10,0.22,0.10,
2.502,-0.02,0.22,0.99,-0.10,0.22,0.10,
2.509,-0.03,0.21,0.99,-0.10,0.22,0.10,
2.51,-0.03,0.21,0.99,-0.13,0.17,0.16,
2.51,-0.03,0.21,0.99,-0.13,0.17,0.16,
2.51,-0.04,0.20,0.99,-0.13,0.17,0.16,
2.511,-0.04,0.20,0.99,-0.20,0.10,0.24,
2.513,-0.04,0.20,0.99,-0.20,0.10,0.24,
2.516,-0.05,0.20,0.99,-0.20,0.10,0.24,
2.516,-0.05,0.20,0.99,-0.31,-0.01,0.26,
2.518,-0.05,0.19,0.99,-0.31,-0.01,0.26,
2.521,-0.05,0.19,0.99,-0.40,-0.08,0.25,
2.521,-0.05,0.19,0.99,-0.40,-0.08,0.25,
2.523,-0.06,0.18,0.99,-0.40,-0.08,0.25,
2.525,-0.07,0.18,0.99,-0.40,-0.08,0.25,
2.526,-0.07,0.18,0.99,-0.48,-0.18,0.28,
2.527,-0.07,0.18,0.99,-0.48,-0.18,0.28,
2.531,-0.07,0.18,0.99,-0.58,-0.25,0.25,
2.531,-0.07,0.18,0.99,-0.58,-0.25,0.25,
2.533,-0.07,0.18,0.98,-0.58,-0.25,0.25,
2.536,-0.07,0.18,0.97,-0.58,-0.25,0.25,
2.536,-0.07,0.18,0.97,-0.63,-0.28,0.22,
2.538,-0.07,0.18,0.96,-0.63,-0.28,0.22,
2.542,-0.07,0.18,0.96,-0.63,-0.28,0.22,
2.543,-0.07,0.18,0.96,-0.66,-0.33,0.08,
2.543,-0.07,0.18,0.95,-0.66,-0.33,0.08,
2.545,-0.07,0.18,0.95,-0.64,-0.34,-0.04,
2.545,-0.07,0.18,0.95,-0.64,-0.34,-0.04,
2.548,-0.06,0.19,0.95,-0.64,-0.34,-0.04,
2.551,-0.06,0.20,0.94,-0.64,-0.34,-0.04,
2.551,-0.06,0.20,0.94,-0.67,-0.30,-0.13,
2.553,-0.05,0.20,0.94,-0.67,-0.30,-0.13,
2.556,-0.03,0.22,0.94,-0.67,-0.30,-0.13,
2.556,-0.03,0.22,0.94,-0.57,-0.22,-0.18,
2.558,-0.02,0.23,0.94,-0.57,-0.22,-0.18,
2.56,-0.00,0.24,0.94,-0.57,-0.22,-0.18,
2.56,-0.00,0.24,0.94,-0.38,-0.06,-0.25,
2.563,0.01,0.26,0.94,-0.38,-0.06,-0.25,
2.566,0.03,0.27,0.94,-0.38,-0.06,-0.25,
2.566,0.03,0.27,0.94,-0.10,0.17,-0.24,
2.568,0.04,0.28,0.94,-0.10,0.17,-0.24,
2.57,0.05,0.29,0.95,-0.10,0.17,-0.24,
2.571,0.05,0.29,0.95,0.22,0.43,-0.24,
2.572,0.06,0.30,0.96,0.22,0.43,-0.24,
2.578,0.06,0.30,0.96,0.22,0.43,-0.24,
2.579,0.06,0.30,0.96,0.47,0.64,-0.15,
2.579,0.06,0.30,0.97,0.47,0.64,-0.15,
2.58,0.06,0.30,0.97,0.60,0.80,-0.02,
2.581,0.06,0.30,0.98,0.60,0.80,-0.02,
2.582,0.05,0.30,0.98,0.60,0.80,-0.02,
2.585,0.05,0.29,0.99,0.60,0.80,-0.02,
2.585,0.05,0.29,0.99,0.57,0.75,0.15,
2.587,0.04,0.27,1.00,0.57,0.75,0.15,
2.591,0.03,0.26,1.00,0.57,0.75,0.15,
2.591,0.03,0.26,1.00,0.47,0.67,0.25,
2.592,0.02,0.25,1.00,0.47,0.67,0.25,
2.595,0.02,0.25,1.00,0.31,0.44,0.36,
2.595,0.01,0.25,1.00,0.31,0.44,0.36,
2.597,0.01,0.24,1.01,0.31,0.44,0.36,
2.599,-0.00,0.23,1.01,0.31,0.44,0.36,
2.599,-0.00,0.23,1.01,0.14,0.27,0.39,
2.601,-0.00,0.23,1.01,0.14,0.27,0.39,
2.604,-0.00,0.22,1.02,0.14,0.27,0.39,
2.604,-0.00,0.22,1.02,-0.02,0.14,0.48,
2.607,0.00,0.22,1.01,-0.02,0.14,0.48,
2.609,0.00,0.22,1.00,-0.02,0.14,0.48,
2.609,0.00,0.22,1.00,-0.06,0.03,0.53,
2.612,0.01,0.22,1.00,-0.06,0.03,0.53,
2.614,0.01,0.22,1.00,-0.06,0.03,0.53,
2.614,0.01,0.22,1.00,-0.03,-0.02,0.42,
2.616,0.01,0.22,1.00,-0.03,-0.02,0.42,
2.619,0.01,0.22,1.00,-0.00,-0.05,0.38,
2.619,0.01,0.22,0.99,-0.00,-0.05,0.38,
2.621,0.02,0.22,0.98,-0.00,-0.05,0.38,
2.624,0.01,0.22,0.98,-0.00,-0.05,0.38,
2.625,0.01,0.22,0.98,0.03,-0.06,0.31,
2.627,0.01,0.22,0.99,0.03,-0.06,0.31,
2.629,0.01,0.23,0.98,0.03,-0.06,0.31,
2.629,0.01,0.23,0.98,0.06,-0.04,0.23,
2.631,0.00,0.24,0.98,0.06,-0.04,0.23,
2.634,0.00,0.24,0.98,0.06,-0.04,0.23,
2.634,0.00,0.24,0.98,0.03,0.01,0.21,
2.636,0.00,0.24,0.98,0.03,0.01,0.21,
2.64,0.00,0.24,0.97,0.03,0.01,0.21,
2.641,0.00,0.24,0.97,-0.03,0.07,0.21,
2.645,0.00,0.24,0.97,-0.03,0.07,0.21,
2.646,0.00,0.24,0.97,-0.06,0.09,0.13,
2.646,0.00,0.24,0.97,-0.06,0.09,0.13,
2.647,0.00,0.24,0.97,-0.06,0.09,0.13,
2.65,0.00,0.25,0.97,-0.06,0.09,0.13,
2.65,0.00,0.25,0.97,-0.07,0.13,0.09,
2.652,-0.00,0.24,0.97,-0.07,0.13,0.09,
2.655,0.00,0.24,0.96,-0.07,0.13,0.09,
2.655,0.00,0.24,0.96,-0.07,0.15,0.10,
2.657,0.01,0.24,0.96,-0.07,0.15,0.10,
2.659,0.00,0.25,0.96,-0.07,0.15,0.10,
2.66,0.00,0.25,0.96,-0.07,0.12,0.03,
2.662,0.01,0.25,0.95,-0.07,0.12,0.03,
2.664,0.01,0.25,0.95,-0.07,0.12,0.03,
2.664,0.01,0.25,0.95,-0.03,0.14,-0.03,
2.666,0.01,0.24,0.95,-0.03,0.14,-0.03,
2.669,0.01,0.24,0.95,0.02,0.14,-0.08,
2.669,0.01,0.25,0.95,0.02,0.14,-0.08,
2.671,0.02,0.25,0.95,0.02,0.14,-0.08,
2.675,0.02,0.25,0.96,0.02,0.14,-0.08,
2.675,0.02,0.25,0.96,0.05,0.13,-0.08,
2.676,0.03,0.26,0.96,0.05,0.13,-0.08,
2.679,0.03,0.26,0.95,0.05,0.13,-0.08,
2.679,0.03,0.26,0.95,0.10,0.19,-0.04,
2.682,0.04,0.26,0.95,0.10,0.19,-0.04,
2.684,0.04,0.27,0.95,0.10,0.19,-0.04,
2.684,0.04,0.27,0.95,0.20,0.24,-0.07,
2.686,0.05,0.27,0.95,0.20,0.24,-0.07,
2.689,0.05,0.27,0.95,0.20,0.24,-0.07,
2.689,0.05,0.27,0.95,0.28,0.29,-0.06,
2.695,0.05,0.28,0.96,0.28,0.29,-0.06,
2.696,0.05,0.28,0.96,0.35,0.33,-0.08,
2.696,0.05,0.28,0.95,0.35,0.33,-0.08,
2.696,0.04,0.28,0.95,0.35,0.33,-0.08,
2.699,0.04,0.29,0.96,0.35,0.33,-0.08,
2.7,0.04,0.29,0.96,0.36,0.45,-0.04,
2.701,0.04,0.28,0.96,0.36,0.45,-0.04,
2.703,0.04,0.27,0.95,0.36,0.45,-0.04,
2.704,0.04,0.27,0.95,0.32,0.48,-0.05,
2.706,0.03,0.27,0.96,0.32,0.48,-0.05,
2.709,0.03,0.26,0.95,0.32,0.48,-0.05,
2.71,0.03,0.26,0.95,0.31,0.39,-0.04,
2.711,0.03,0.26,0.96,0.31,0.39,-0.04,
2.713,0.03,0.26,0.96,0.31,0.39,-0.04,
2.714,0.03,0.26,0.96,0.20,0.28,-0.02,
2.716,0.02,0.25,0.95,0.20,0.28,-0.02,
2.719,0.02,0.25,0.95,0.16,0.19,-0.03,
2.719,0.02,0.25,0.92,0.16,0.19,-0.03,
2.721,0.02,0.24,0.89,0.16,0.19,-0.03,
2.724,0.03,0.24,0.87,0.16,0.19,-0.03,
2.724,0.03,0.24,0.87,0.08,0.09,-0.26,
2.726,0.02,0.24,0.86,0.08,0.09,-0.26,
2.728,0.01,0.25,0.87,0.08,0.09,-0.26,
2.729,0.01,0.25,0.87,0.13,0.01,-0.77,
2.731,-0.00,0.25,0.88,0.13,0.01,-0.77,
2.734,-0.01,0.25,0.89,0.13,0.01,-0.77,
2.734,-0.01,0.25,0.89,0.02,0.04,-0.89,
2.735,-0.02,0.25,0.92,0.02,0.04,-0.89,
2.739,-0.02,0.25,0.93,0.02,0.04,-0.89,
2.739,-0.02,0.25,0.93,-0.21,0.10,-0.67,
2.741,-0.02,0.25,0.94,-0.21,0.10,-0.67,
2.746,-0.02,0.25,0.94,-0.35,0.08,-0.33,
2.747,-0.02,0.25,0.95,-0.35,0.08,-0.33,
2.747,-0.01,0.24,0.95,-0.35,0.08,-0.33,
2.749,0.00,0.24,0.96,-0.35,0.08,-0.33,
2.749,0.00,0.24,0.96,-0.34,0.07,-0.16,
2.751,0.01,0.23,0.96,-0.34,0.07,-0.16,
2.754,0.01,0.24,0.96,-0.34,0.07,-0.16,
2.754,0.01,0.24,0.96,-0.18,0.02,-0.04,
2.755,0.01,0.23,0.96,-0.18,0.02,-0.04,
2.763,0.01,0.24,0.97,-0.18,0.02,-0.04,
2.763,0.01,0.24,0.97,-0.08,-0.01,0.01,
2.763,0.01,0.24,0.97,-0.08,-0.01,0.01,
2.764,0.01,0.24,0.98,-0.08,-0.01,0.01,
2.764,0.01,0.24,0.98,-0.05,-0.01,0.06,
2.766,0.01,0.24,0.98,-0.05,-0.01,0.06,
2.768,0.01,0.24,0.98,-0.08,0.01,0.18,
2.769,0.01,0.23,0.99,-0.08,0.01,0.18,
2.77,0.01,0.23,0.99,-0.08,0.01,0.18,
2.772,0.01,0.24,0.99,-0.08,0.01,0.18,
2.773,0.01,0.24,0.99,-0.07,0.01,0.23,
2.78,0.01,0.24,1.00,-0.07,0.01,0.23,
2.781,0.01,0.23,1.00,-0.07,0.01,0.23,
2.781,0.01,0.23,1.00,-0.08,0.01,0.28,
2.781,0.01,0.23,1.01,-0.08,0.01,0.28,
2.783,0.01,0.23,1.01,-0.08,0.01,0.28,
2.783,0.01,0.23,1.01,-0.08,0.02,0.36,
2.784,0.01,0.23,1.02,-0.08,0.02,0.36,
2.787,0.01,0.24,1.02,-0.08,0.02,0.36,
2.787,0.01,0.24,1.02,-0.07,-0.00,0.49,
2.79,0.02,0.24,1.02,-0.07,-0.00,0.49,
2.797,0.02,0.24,1.02,-0.05,0.01,0.53,
2.797,0.02,0.23,1.02,-0.05,0.01,0.53,
2.797,0.03,0.23,1.03,-0.05,0.01,0.53,
2.798,0.03,0.24,1.03,-0.05,0.01,0.53,
2.798,0.03,0.24,1.03,0.04,-0.00,0.54,
2.799,0.03,0.23,1.03,0.04,-0.00,0.54,
2.802,0.04,0.23,1.02,0.04,-0.00,0.54,
2.805,0.04,0.23,1.02,0.13,-0.01,0.64,
2.805,0.04,0.23,1.02,0.13,-0.01,0.64,
2.82,0.04,0.23,1.02,0.18,0.01,0.61,
2.82,0.03,0.24,1.01,0.18,0.01,0.61,
2.821,0.03,0.24,1.01,0.18,0.01,0.61,
2.821,0.03,0.23,1.00,0.18,0.01,0.61,
2.821,0.03,0.23,1.00,0.17,0.02,0.51,
2.821,0.03,0.23,0.99,0.17,0.02,0.51,
2.822,0.03,0.23,0.99,0.10,-0.01,0.38,
2.822,0.03,0.23,0.98,0.10,-0.01,0.38,
2.822,0.03,0.23,0.97,0.10,-0.01,0.38,
2.822,0.03,0.23,0.96,0.10,-0.01,0.38,
2.823,0.03,0.23,0.96,0.11,-0.07,0.27,
2.832,0.02,0.23,0.96,0.11,-0.07,0.27,
2.833,0.03,0.23,0.96,0.11,-0.07,0.27,
2.833,0.03,0.23,0.96,0.05,-0.11,0.05,
2.833,0.02,0.22,0.96,0.05,-0.11,0.05,
2.834,0.02,0.22,0.96,0.05,-0.11,0.05,
2.834,0.02,0.22,0.96,0.03,-0.11,0.01,
