
time,ax,ay,az,gFx,gFy,gFz,
0.002,-0.05,0.08,0.17,-0.08,0.07,0.98,
0.002,-0.02,0.09,0.11,-0.08,0.07,0.98,
0.002,-0.02,0.09,0.11,-0.08,0.07,0.98,
0.003,-0.02,0.09,0.11,-0.09,0.07,0.98,
0.003,-0.01,0.09,0.08,-0.09,0.07,0.98,
0.004,-0.01,0.09,0.08,-0.09,0.07,0.98,
0.007,-0.01,0.09,0.08,-0.08,0.07,0.98,
0.007,-0.02,0.10,0.03,-0.08,0.07,0.98,
0.01,-0.02,0.10,0.03,-0.08,0.07,0.98,
0.012,-0.02,0.10,0.03,-0.08,0.07,0.98,
0.012,-0.01,0.10,0.01,-0.08,0.07,0.98,
0.014,-0.01,0.10,0.01,-0.08,0.07,0.98,
0.016,-0.01,0.10,0.01,-0.09,0.07,0.98,
0.017,0.00,0.10,-0.01,-0.09,0.07,0.98,
0.019,0.00,0.10,-0.01,-0.09,0.07,0.98,
0.021,0.00,0.10,-0.01,-0.09,0.07,0.98,
0.021,-0.03,0.09,0.00,-0.09,0.07,0.98,
0.024,-0.03,0.09,0.00,-0.09,0.06,0.98,
0.027,-0.03,0.09,0.00,-0.09,0.06,0.98,
0.027,-0.05,0.09,0.02,-0.09,0.06,0.98,
0.029,-0.05,0.09,0.02,-0.09,0.06,0.99,
0.031,-0.05,0.09,0.02,-0.09,0.06,0.98,
0.031,-0.05,0.06,0.05,-0.09,0.06,0.98,
0.033,-0.05,0.06,0.05,-0.09,0.06,0.99,
0.036,-0.05,0.06,0.05,-0.09,0.06,0.99,
0.036,-0.07,0.04,0.08,-0.09,0.06,0.99,
0.038,-0.07,0.04,0.08,-0.09,0.06,0.99,
0.041,-0.07,0.04,0.08,-0.08,0.06,0.99,
0.041,-0.06,0.04,0.12,-0.08,0.06,0.99,
0.043,-0.06,0.04,0.12,-0.08,0.06,0.99,
0.046,-0.06,0.04,0.12,-0.08,0.06,0.99,
0.046,-0.03,0.03,0.12,-0.08,0.06,0.99,
0.048,-0.03,0.03,0.12,-0.08,0.06,0.99,
0.051,-0.03,0.03,0.12,-0.08,0.06,0.99,
0.051,-0.01,0.02,0.15,-0.08,0.06,0.99,
0.053,-0.01,0.02,0.15,-0.08,0.05,0.99,
0.056,-0.01,0.02,0.15,-0.08,0.05,0.99,
0.056,-0.00,-0.02,0.15,-0.08,0.05,0.99,
0.058,-0.00,-0.02,0.15,-0.08,0.05,0.99,
0.06,-0.00,-0.02,0.15,-0.08,0.05,0.99,
0.061,0.01,-0.05,0.11,-0.08,0.05,0.99,
0.063,0.01,-0.05,0.11,-0.08,0.05,0.99,
0.065,0.01,-0.05,0.11,-0.08,0.05,0.98,
0.066,0.00,-0.09,0.10,-0.08,0.05,0.98,
0.068,0.00,-0.09,0.10,-0.08,0.05,0.98,
0.071,0.00,-0.09,0.10,-0.08,0.05,0.98,
0.071,-0.02,-0.10,0.07,-0.08,0.05,0.98,
0.073,-0.02,-0.10,0.07,-0.08,0.05,0.97,
0.075,-0.02,-0.10,0.07,-0.08,0.05,0.97,
0.075,0.01,-0.08,0.00,-0.08,0.05,0.97,
0.078,0.01,-0.08,0.00,-0.08,0.05,0.97,
0.08,0.01,-0.08,0.00,-0.07,0.05,0.97,
0.08,0.03,-0.07,-0.04,-0.07,0.05,0.97,
0.082,0.03,-0.07,-0.04,-0.07,0.05,0.97,
0.085,0.03,-0.07,-0.04,-0.07,0.05,0.97,
0.085,0.07,-0.05,-0.06,-0.07,0.05,0.97,
0.088,0.07,-0.05,-0.06,-0.07,0.06,0.97,
0.09,0.07,-0.05,-0.06,-0.07,0.06,0.97,
0.09,0.07,-0.04,-0.08,-0.07,0.06,0.97,
0.096,0.07,-0.04,-0.08,-0.07,0.06,0.97,
0.096,0.07,-0.04,-0.08,-0.07,0.06,0.97,
0.096,0.08,0.00,-0.08,-0.07,0.06,0.97,
0.097,0.08,0.00,-0.08,-0.08,0.06,0.97,
0.1,0.08,0.00,-0.08,-0.07,0.06,0.98,
0.1,0.08,0.03,-0.06,-0.07,0.06,0.98,
0.102,0.08,0.03,-0.06,-0.07,0.06,0.98,
0.105,0.08,0.03,-0.06,-0.07,0.06,0.98,
0.105,0.05,0.06,-0.03,-0.07,0.06,0.98,
0.107,0.05,0.06,-0.03,-0.08,0.06,0.99,
0.109,0.05,0.06,-0.03,-0.08,0.06,0.99,
0.11,0.07,0.05,0.05,-0.08,0.06,0.99,
0.112,0.07,0.05,0.05,-0.08,0.06,0.99,
0.114,0.07,0.05,0.05,-0.08,0.06,1.00,
0.114,0.04,0.06,0.11,-0.08,0.06,1.00,
0.117,0.04,0.06,0.11,-0.08,0.06,1.00,
0.119,0.04,0.06,0.11,-0.08,0.06,1.00,
0.119,0.02,0.04,0.17,-0.08,0.06,1.00,
0.122,0.02,0.04,0.17,-0.09,0.05,1.00,
0.124,0.02,0.04,0.17,-0.09,0.05,1.01,
0.124,0.00,-0.00,0.22,-0.09,0.05,1.01,
0.127,0.00,-0.00,0.22,-0.09,0.05,1.01,
0.129,0.00,-0.00,0.22,-0.09,0.05,1.00,
0.13,-0.04,-0.04,0.26,-0.09,0.05,1.00,
0.132,-0.04,-0.04,0.26,-0.09,0.05,1.00,
0.134,-0.04,-0.04,0.26,-0.09,0.05,1.00,
0.134,-0.07,-0.08,0.25,-0.09,0.05,1.00,
0.136,-0.07,-0.08,0.25,-0.09,0.04,1.00,
0.139,-0.07,-0.08,0.25,-0.09,0.04,0.99,
0.139,-0.07,-0.11,0.22,-0.09,0.04,0.99,
0.141,-0.07,-0.11,0.22,-0.09,0.04,0.99,
0.144,-0.07,-0.11,0.22,-0.08,0.04,0.99,
0.144,-0.08,-0.14,0.14,-0.08,0.04,0.99,
0.146,-0.08,-0.14,0.14,-0.08,0.04,0.98,
0.149,-0.08,-0.14,0.14,-0.08,0.05,0.97,
0.149,-0.03,-0.14,0.07,-0.08,0.05,0.97,
0.151,-0.03,-0.14,0.07,-0.08,0.05,0.97,
0.153,-0.03,-0.14,0.07,-0.08,0.05,0.96,
0.154,0.00,-0.12,-0.03,-0.08,0.05,0.96,
0.156,0.00,-0.12,-0.03,-0.07,0.05,0.96,
0.159,0.00,-0.12,-0.03,-0.07,0.05,0.96,
0.159,0.03,-0.10,-0.13,-0.07,0.05,0.96,
0.161,0.03,-0.10,-0.13,-0.08,0.05,0.95,
0.164,0.05,-0.08,-0.21,-0.08,0.05,0.95,
0.164,0.05,-0.08,-0.21,-0.08,0.05,0.95,
0.166,0.05,-0.08,-0.21,-0.08,0.05,0.95,
0.168,0.05,-0.08,-0.21,-0.08,0.05,0.94,
0.168,0.03,-0.06,-0.29,-0.08,0.05,0.94,
0.17,0.03,-0.06,-0.29,-0.08,0.05,0.94,
0.173,0.03,-0.06,-0.29,-0.08,0.05,0.94,
0.174,0.02,-0.05,-0.33,-0.08,0.05,0.94,
0.176,0.02,-0.05,-0.33,-0.08,0.05,0.94,
0.178,0.02,-0.05,-0.33,-0.08,0.05,0.94,
0.178,0.01,-0.04,-0.37,-0.08,0.05,0.94,
0.18,0.01,-0.04,-0.37,-0.08,0.06,0.94,
0.183,0.01,-0.04,-0.37,-0.08,0.06,0.95,
0.183,-0.02,-0.04,-0.35,-0.08,0.06,0.95,
0.185,-0.02,-0.04,-0.35,-0.08,0.06,0.95,
0.188,-0.02,-0.04,-0.35,-0.08,0.06,0.95,
0.188,-0.03,-0.02,-0.33,-0.08,0.06,0.95,
0.19,-0.03,-0.02,-0.33,-0.08,0.06,0.95,
0.193,-0.03,-0.02,-0.33,-0.08,0.06,0.96,
0.193,-0.04,0.01,-0.27,-0.08,0.06,0.96,
0.195,-0.04,0.01,-0.27,-0.08,0.06,0.96,
0.198,-0.04,0.01,-0.27,-0.08,0.06,0.96,
0.198,-0.02,0.01,-0.23,-0.08,0.06,0.96,
0.2,-0.02,0.01,-0.23,-0.08,0.06,0.96,
0.202,-0.02,0.01,-0.23,-0.08,0.06,0.97,
0.203,-0.01,0.03,-0.17,-0.08,0.06,0.97,
0.205,-0.01,0.03,-0.17,-0.08,0.06,0.97,
0.208,-0.01,0.03,-0.17,-0.08,0.06,0.97,
0.208,-0.02,0.03,-0.10,-0.08,0.06,0.97,
0.212,-0.02,0.03,-0.10,-0.08,0.06,0.97,
0.212,-0.02,0.03,-0.10,-0.08,0.06,0.98,
0.213,-0.02,0.03,-0.05,-0.08,0.06,0.98,
0.215,-0.02,0.03,-0.05,-0.08,0.06,0.98,
0.217,-0.02,0.03,-0.05,-0.09,0.06,0.98,
0.217,-0.02,0.03,-0.01,-0.09,0.06,0.98,
0.219,-0.02,0.03,-0.01,-0.09,0.06,0.98,
0.222,-0.02,0.03,-0.01,-0.09,0.06,0.98,
0.222,-0.04,0.04,0.02,-0.09,0.06,0.98,
0.225,-0.04,0.04,0.02,-0.09,0.06,0.98,
0.227,-0.04,0.04,0.02,-0.09,0.06,0.98,
0.227,-0.05,0.04,0.06,-0.09,0.06,0.98,
0.229,-0.05,0.04,0.06,-0.09,0.06,0.98,
0.232,-0.05,0.04,0.06,-0.09,0.06,0.98,
0.232,-0.07,0.03,0.07,-0.09,0.06,0.98,
0.234,-0.07,0.03,0.07,-0.09,0.07,0.98,
0.237,-0.07,0.03,0.07,-0.09,0.07,0.98,
0.237,-0.07,0.05,0.05,-0.09,0.07,0.98,
0.239,-0.07,0.05,0.05,-0.10,0.07,0.98,
0.242,-0.07,0.05,0.05,-0.10,0.07,0.98,
0.242,-0.08,0.07,0.04,-0.10,0.07,0.98,
0.244,-0.08,0.07,0.04,-0.10,0.07,0.98,
0.247,-0.08,0.07,0.04,-0.10,0.07,0.98,
0.247,-0.13,0.08,0.03,-0.10,0.07,0.98,
0.249,-0.13,0.08,0.03,-0.10,0.07,0.98,
0.251,-0.13,0.08,0.03,-0.10,0.07,0.98,
0.252,-0.13,0.09,0.02,-0.10,0.07,0.98,
0.254,-0.13,0.09,0.02,-0.10,0.07,0.98,
0.256,-0.13,0.09,0.02,-0.10,0.07,0.98,
0.257,-0.15,0.07,0.01,-0.10,0.07,0.98,
0.259,-0.15,0.07,0.01,-0.10,0.07,0.98,
0.261,-0.15,0.07,0.01,-0.10,0.06,0.98,
0.261,-0.14,0.07,0.00,-0.10,0.06,0.98,
0.264,-0.14,0.07,0.00,-0.10,0.06,0.98,
0.266,-0.14,0.07,0.00,-0.09,0.06,0.98,
0.266,-0.13,0.04,0.01,-0.09,0.06,0.98,
0.269,-0.13,0.04,0.01,-0.09,0.06,0.98,
0.271,-0.13,0.04,0.01,-0.09,0.06,0.97,
0.271,-0.11,0.04,0.00,-0.09,0.06,0.97,
0.273,-0.11,0.04,0.00,-0.09,0.06,0.97,
0.276,-0.11,0.04,0.00,-0.08,0.06,0.97,
0.276,-0.06,0.01,-0.02,-0.08,0.06,0.97,
0.279,-0.06,0.01,-0.02,-0.08,0.06,0.97,
0.281,-0.06,0.01,-0.02,-0.08,0.06,0.97,
0.281,-0.01,-0.01,-0.04,-0.08,0.06,0.97,
0.283,-0.01,-0.01,-0.04,-0.08,0.06,0.97,
0.286,-0.01,-0.01,-0.04,-0.07,0.05,0.97,
0.286,0.03,-0.03,-0.06,-0.07,0.05,0.97,
0.288,0.03,-0.03,-0.06,-0.07,0.05,0.97,
0.291,0.03,-0.03,-0.06,-0.07,0.05,0.97,
0.291,0.08,-0.04,-0.07,-0.07,0.05,0.97,
0.295,0.08,-0.04,-0.07,-0.07,0.05,0.97,
0.296,0.08,-0.04,-0.07,-0.07,0.05,0.97,
0.296,0.09,-0.06,-0.06,-0.07,0.05,0.97,
0.298,0.09,-0.06,-0.06,-0.07,0.05,0.97,
0.3,0.09,-0.06,-0.06,-0.07,0.05,0.97,
0.301,0.13,-0.06,-0.06,-0.07,0.05,0.97,
0.303,0.13,-0.06,-0.06,-0.07,0.05,0.97,
0.305,0.13,-0.06,-0.06,-0.07,0.05,0.97,
0.306,0.13,-0.08,-0.04,-0.07,0.05,0.97,
0.308,0.13,-0.08,-0.04,-0.07,0.05,0.97,
0.311,0.13,-0.08,-0.04,-0.07,0.05,0.98,
0.313,0.11,-0.10,-0.03,-0.07,0.05,0.98,
0.313,0.11,-0.10,-0.03,-0.07,0.05,0.98,
0.315,0.11,-0.10,-0.03,-0.07,0.06,0.98,
0.315,0.11,-0.08,-0.01,-0.07,0.06,0.98,
0.318,0.11,-0.08,-0.01,-0.07,0.05,0.98,
0.32,0.11,-0.08,-0.01,-0.07,0.05,0.99,
0.32,0.11,-0.05,0.04,-0.07,0.05,0.99,
0.322,0.11,-0.05,0.04,-0.07,0.05,0.99,
0.325,0.11,-0.05,0.04,-0.08,0.06,0.99,
0.325,0.10,-0.04,0.09,-0.08,0.06,0.99,
0.327,0.10,-0.04,0.09,-0.08,0.06,1.00,
0.33,0.10,-0.04,0.09,-0.08,0.06,1.00,
0.33,0.07,-0.02,0.15,-0.08,0.06,1.00,
0.332,0.07,-0.02,0.15,-0.08,0.06,1.00,
0.335,0.07,-0.02,0.15,-0.08,0.06,1.00,
0.335,0.06,0.02,0.21,-0.08,0.06,1.00,
0.337,0.06,0.02,0.21,-0.08,0.06,1.00,
0.34,0.06,0.02,0.21,-0.08,0.06,1.00,
0.34,0.02,0.01,0.24,-0.08,0.06,1.00,
0.342,0.02,0.01,0.24,-0.08,0.06,1.00,
0.345,0.02,0.01,0.24,-0.08,0.06,1.00,
0.345,-0.01,0.01,0.22,-0.08,0.06,1.00,
0.347,-0.01,0.01,0.22,-0.08,0.06,1.00,
0.35,-0.01,0.01,0.22,-0.08,0.06,1.00,
0.35,-0.01,0.01,0.23,-0.08,0.06,1.00,
0.352,-0.01,0.01,0.23,-0.08,0.06,0.99,
0.354,-0.01,0.01,0.23,-0.08,0.06,0.99,
0.354,0.01,-0.02,0.19,-0.08,0.06,0.99,
0.357,0.01,-0.02,0.19,-0.07,0.06,0.99,
0.36,0.01,-0.02,0.19,-0.07,0.05,0.98,
0.36,0.05,-0.04,0.14,-0.07,0.05,0.98,
0.362,0.05,-0.04,0.14,-0.07,0.05,0.98,
0.364,0.08,-0.05,0.06,-0.07,0.05,0.98,
0.365,0.08,-0.05,0.06,-0.07,0.05,0.98,
0.366,0.08,-0.05,0.06,-0.07,0.05,0.97,
0.369,0.08,-0.05,0.06,-0.07,0.05,0.97,
0.369,0.09,-0.09,-0.01,-0.07,0.05,0.97,
0.371,0.09,-0.09,-0.01,-0.07,0.05,0.96,
0.375,0.09,-0.09,-0.01,-0.07,0.05,0.96,
0.375,0.10,-0.10,-0.09,-0.07,0.05,0.96,
0.377,0.10,-0.10,-0.09,-0.07,0.05,0.96,
0.379,0.10,-0.10,-0.09,-0.07,0.05,0.96,
0.38,0.12,-0.08,-0.16,-0.07,0.05,0.96,
0.382,0.12,-0.08,-0.16,-0.07,0.05,0.96,
0.384,0.12,-0.08,-0.16,-0.07,0.05,0.96,
0.384,0.11,-0.07,-0.20,-0.07,0.05,0.96,
0.386,0.11,-0.07,-0.20,-0.07,0.05,0.96,
0.389,0.10,-0.07,-0.21,-0.07,0.05,0.96,
0.389,0.10,-0.07,-0.21,-0.07,0.05,0.96,
0.399,0.10,-0.07,-0.21,-0.07,0.06,0.96,
0.4,0.10,-0.07,-0.21,-0.07,0.06,0.96,
0.4,0.12,-0.07,-0.19,-0.07,0.06,0.96,
0.4,0.12,-0.07,-0.19,-0.07,0.06,0.96,
0.4,0.12,-0.07,-0.19,-0.07,0.06,0.96,
0.4,0.12,-0.05,-0.16,-0.07,0.06,0.96,
0.401,0.12,-0.05,-0.16,-0.07,0.06,0.97,
0.403,0.12,-0.05,-0.16,-0.07,0.06,0.97,
0.404,0.12,-0.04,-0.12,-0.07,0.06,0.97,
0.406,0.12,-0.04,-0.12,-0.07,0.06,0.98,
0.409,0.12,-0.04,-0.12,-0.07,0.06,0.98,
0.409,0.11,-0.04,-0.04,-0.07,0.06,0.98,
0.411,0.11,-0.04,-0.04,-0.07,0.06,0.98,
0.413,0.11,-0.03,0.02,-0.07,0.06,0.98,
0.414,0.11,-0.03,0.02,-0.07,0.06,0.98,
0.415,0.11,-0.03,0.02,-0.08,0.06,0.99,
0.418,0.11,-0.03,0.02,-0.07,0.06,0.99,
0.418,0.08,-0.02,0.06,-0.07,0.06,0.99,
0.42,0.08,-0.02,0.06,-0.07,0.05,0.99,
0.423,0.07,-0.04,0.09,-0.07,0.05,0.99,
0.423,0.07,-0.04,0.09,-0.07,0.05,0.99,
0.425,0.07,-0.04,0.09,-0.07,0.05,0.99,
0.428,0.07,-0.04,0.09,-0.07,0.05,0.99,
0.428,0.09,-0.06,0.11,-0.07,0.05,0.99,
0.431,0.09,-0.06,0.11,-0.07,0.05,0.99,
0.433,0.12,-0.06,0.09,-0.07,0.05,0.99,
0.433,0.12,-0.06,0.09,-0.06,0.05,0.98,
0.435,0.12,-0.06,0.09,-0.06,0.05,0.98,
0.438,0.12,-0.06,0.09,-0.06,0.05,0.98,
0.438,0.16,-0.07,0.08,-0.06,0.05,0.98,
0.44,0.16,-0.07,0.08,-0.06,0.05,0.98,
0.443,0.16,-0.07,0.08,-0.06,0.05,0.98,
0.443,0.19,-0.09,0.04,-0.06,0.05,0.98,
0.445,0.19,-0.09,0.04,-0.05,0.05,0.98,
0.448,0.19,-0.09,0.04,-0.05,0.05,0.98,
0.448,0.22,-0.11,0.01,-0.05,0.05,0.98,
0.45,0.22,-0.11,0.01,-0.05,0.05,0.98,
0.452,0.22,-0.11,0.01,-0.05,0.05,0.97,
0.452,0.25,-0.10,0.00,-0.05,0.05,0.97,
0.455,0.25,-0.10,0.00,-0.05,0.05,0.98,
0.457,0.25,-0.10,0.00,-0.05,0.05,0.97,
0.457,0.25,-0.11,-0.02,-0.05,0.05,0.97,
0.46,0.25,-0.11,-0.02,-0.05,0.05,0.97,
0.462,0.25,-0.11,-0.02,-0.05,0.04,0.98,
0.462,0.27,-0.14,-0.03,-0.05,0.04,0.98,
0.465,0.27,-0.14,-0.03,-0.05,0.04,0.98,
0.467,0.27,-0.14,-0.03,-0.05,0.05,0.98,
0.467,0.28,-0.15,-0.02,-0.05,0.05,0.98,
0.47,0.28,-0.15,-0.02,-0.05,0.04,0.98,
0.472,0.28,-0.15,-0.02,-0.05,0.04,0.98,
0.472,0.29,-0.15,0.01,-0.05,0.04,0.98,
0.475,0.29,-0.15,0.01,-0.05,0.04,0.97,
0.477,0.29,-0.15,0.01,-0.05,0.04,0.97,
0.477,0.28,-0.17,0.01,-0.05,0.04,0.97,
0.479,0.28,-0.17,0.01,-0.05,0.04,0.97,
0.482,0.28,-0.17,0.01,-0.05,0.04,0.97,
0.482,0.26,-0.21,-0.03,-0.05,0.04,0.97,
0.484,0.26,-0.21,-0.03,-0.04,0.04,0.96,
0.487,0.26,-0.21,-0.03,-0.04,0.03,0.96,
0.487,0.31,-0.24,-0.07,-0.04,0.03,0.96,
0.489,0.31,-0.24,-0.07,-0.04,0.03,0.96,
0.492,0.31,-0.24,-0.07,-0.04,0.03,0.96,
0.492,0.34,-0.26,-0.12,-0.04,0.03,0.96,
0.494,0.34,-0.26,-0.12,-0.03,0.03,0.96,
0.497,0.34,-0.26,-0.12,-0.03,0.03,0.96,
0.497,0.39,-0.30,-0.15,-0.03,0.03,0.96,
0.499,0.39,-0.30,-0.15,-0.02,0.02,0.96,
0.501,0.39,-0.30,-0.15,-0.02,0.02,0.96,
0.502,0.47,-0.33,-0.17,-0.02,0.02,0.96,
0.504,0.47,-0.33,-0.17,-0.01,0.02,0.96,
0.506,0.56,-0.37,-0.20,-0.01,0.02,0.96,
0.507,0.56,-0.37,-0.20,-0.01,0.02,0.96,
0.511,0.56,-0.37,-0.20,-0.01,0.02,0.96,
0.512,0.56,-0.37,-0.20,-0.00,0.02,0.96,
0.512,0.63,-0.36,-0.19,-0.00,0.02,0.96,
0.513,0.63,-0.36,-0.19,-0.00,0.02,0.97,
0.516,0.63,-0.36,-0.19,-0.00,0.02,0.97,
0.517,0.71,-0.36,-0.15,-0.00,0.02,0.97,
0.518,0.71,-0.36,-0.15,0.00,0.02,0.97,
0.521,0.71,-0.36,-0.15,-0.00,0.02,0.98,
0.521,0.72,-0.36,-0.08,-0.00,0.02,0.98,
0.523,0.72,-0.36,-0.08,-0.01,0.02,0.98,
0.526,0.72,-0.36,-0.08,-0.01,0.01,0.98,
0.526,0.73,-0.39,-0.01,-0.01,0.01,0.98,
0.528,0.73,-0.39,-0.01,-0.01,0.01,0.98,
0.531,0.73,-0.39,-0.01,-0.01,0.01,0.99,
0.531,0.65,-0.43,0.04,-0.01,0.01,0.99,
0.533,0.65,-0.43,0.04,-0.01,0.01,0.99,
0.536,0.65,-0.43,0.04,-0.01,0.01,0.99,
0.536,0.62,-0.47,0.10,-0.01,0.01,0.99,
0.538,0.62,-0.47,0.10,-0.01,0.01,0.99,
0.541,0.62,-0.47,0.10,-0.01,0.02,0.99,
0.541,0.62,-0.47,0.13,-0.01,0.02,0.99,
0.543,0.62,-0.47,0.13,-0.00,0.02,0.99,
0.546,0.62,-0.47,0.13,-0.00,0.02,0.99,
0.546,0.65,-0.42,0.15,-0.00,0.02,0.99,
0.548,0.65,-0.42,0.15,-0.00,0.02,0.99,
0.551,0.65,-0.42,0.15,0.00,0.02,0.98,
0.551,0.70,-0.41,0.15,0.00,0.02,0.98,
0.553,0.70,-0.41,0.15,0.00,0.02,0.98,
0.555,0.70,-0.41,0.15,0.00,0.02,0.98,
0.555,0.71,-0.40,0.10,0.00,0.02,0.98,
0.558,0.71,-0.40,0.10,0.00,0.01,0.97,
0.56,0.71,-0.40,0.10,0.01,0.01,0.97,
0.561,0.73,-0.41,0.04,0.01,0.01,0.97,
0.563,0.73,-0.41,0.04,0.00,0.01,0.97,
0.565,0.73,-0.41,0.04,0.00,0.01,0.96,
0.565,0.75,-0.44,-0.04,0.00,0.01,0.96,
0.568,0.75,-0.44,-0.04,-0.00,0.01,0.96,
0.57,0.75,-0.44,-0.04,-0.00,0.01,0.95,
0.571,0.72,-0.44,-0.10,-0.00,0.01,0.95,
0.572,0.72,-0.44,-0.10,-0.00,0.01,0.95,
0.577,0.72,-0.44,-0.10,-0.01,0.01,0.95,
0.578,0.67,-0.51,-0.18,-0.01,0.01,0.95,
0.579,0.67,-0.51,-0.18,-0.01,0.00,0.95,
0.58,0.67,-0.51,-0.18,-0.01,0.01,0.95,
0.581,0.64,-0.51,-0.24,-0.01,0.01,0.95,
0.582,0.64,-0.51,-0.24,-0.01,0.01,0.94,
0.585,0.64,-0.51,-0.24,-0.01,0.01,0.95,
0.586,0.63,-0.51,-0.28,-0.01,0.01,0.95,
0.587,0.63,-0.51,-0.28,-0.01,0.01,0.95,
0.59,0.63,-0.51,-0.28,-0.01,0.01,0.95,
0.59,0.60,-0.49,-0.29,-0.01,0.01,0.95,
0.593,0.60,-0.49,-0.29,-0.01,0.01,0.95,
0.595,0.60,-0.49,-0.29,-0.02,0.01,0.96,
0.595,0.58,-0.46,-0.26,-0.02,0.01,0.96,
0.597,0.58,-0.46,-0.26,-0.02,0.02,0.96,
0.599,0.58,-0.46,-0.26,-0.02,0.02,0.96,
0.6,0.53,-0.42,-0.20,-0.02,0.02,0.96,
0.602,0.53,-0.42,-0.20,-0.03,0.02,0.97,
0.604,0.53,-0.42,-0.20,-0.02,0.03,0.97,
0.605,0.46,-0.38,-0.14,-0.02,0.03,0.97,
0.607,0.46,-0.38,-0.14,-0.03,0.03,0.97,
0.624,0.44,-0.32,-0.07,-0.03,0.03,0.97,
0.625,0.44,-0.32,-0.07,-0.02,0.03,0.97,
0.625,0.44,-0.32,-0.07,-0.02,0.03,0.98,
0.626,0.44,-0.32,-0.07,-0.02,0.04,0.98,
0.626,0.43,-0.25,-0.01,-0.02,0.04,0.98,
0.627,0.43,-0.25,-0.01,-0.02,0.04,0.98,
0.627,0.43,-0.25,-0.01,-0.02,0.04,0.98,
0.628,0.45,-0.20,0.02,-0.02,0.04,0.98,
0.628,0.45,-0.20,0.02,-0.02,0.04,0.98,
0.629,0.45,-0.17,0.04,-0.02,0.04,0.98,
0.629,0.45,-0.17,0.04,-0.02,0.04,0.98,
0.63,0.45,-0.17,0.04,-0.02,0.04,0.98,
0.63,0.45,-0.17,0.04,-0.02,0.04,0.98,
0.631,0.46,-0.18,0.03,-0.02,0.04,0.98,
0.631,0.46,-0.18,0.03,-0.02,0.03,0.97,
0.634,0.46,-0.18,0.03,-0.02,0.03,0.97,
0.634,0.42,-0.19,0.02,-0.02,0.03,0.97,
0.636,0.42,-0.19,0.02,-0.03,0.03,0.97,
0.641,0.42,-0.19,0.02,-0.03,0.03,0.96,
0.641,0.42,-0.25,-0.03,-0.03,0.03,0.96,
0.641,0.42,-0.25,-0.03,-0.03,0.02,0.96,
0.649,0.42,-0.25,-0.03,-0.03,0.02,0.96,
0.649,0.37,-0.28,-0.09,-0.03,0.02,0.96,
0.649,0.37,-0.28,-0.09,-0.03,0.02,0.96,
0.65,0.37,-0.28,-0.09,-0.03,0.02,0.96,
0.65,0.34,-0.32,-0.13,-0.03,0.02,0.96,
0.65,0.34,-0.32,-0.13,-0.03,0.02,0.95,
0.653,0.34,-0.32,-0.13,-0.03,0.02,0.95,
0.654,0.34,-0.36,-0.17,-0.03,0.02,0.95,
0.655,0.34,-0.36,-0.17,-0.03,0.02,0.95,
0.658,0.34,-0.36,-0.17,-0.03,0.02,0.95,
0.659,0.35,-0.35,-0.20,-0.03,0.02,0.95,
0.661,0.35,-0.35,-0.20,-0.03,0.03,0.96,
0.663,0.35,-0.35,-0.20,-0.04,0.03,0.96,
0.664,0.34,-0.33,-0.19,-0.04,0.03,0.96,
0.666,0.34,-0.33,-0.19,-0.04,0.03,0.96,
0.668,0.34,-0.33,-0.19,-0.04,0.03,0.97,
0.668,0.32,-0.29,-0.15,-0.04,0.03,0.97,
0.67,0.32,-0.29,-0.15,-0.04,0.03,0.97,
0.673,0.32,-0.29,-0.15,-0.05,0.03,0.97,
0.673,0.25,-0.26,-0.09,-0.05,0.03,0.97,
0.675,0.25,-0.26,-0.09,-0.05,0.03,0.98,
0.678,0.25,-0.26,-0.09,-0.05,0.03,0.98,
0.678,0.21,-0.25,-0.02,-0.05,0.03,0.98,
0.681,0.21,-0.25,-0.02,-0.06,0.03,0.99,
0.683,0.21,-0.25,-0.02,-0.06,0.03,0.99,
0.683,0.14,-0.23,0.07,-0.06,0.03,0.99,
0.685,0.14,-0.23,0.07,-0.06,0.03,0.99,
0.688,0.14,-0.23,0.07,-0.06,0.03,1.00,
0.688,0.08,-0.22,0.15,-0.06,0.03,1.00,
0.69,0.08,-0.22,0.15,-0.06,0.04,1.00,
0.697,0.08,-0.22,0.15,-0.06,0.03,1.00,
0.697,0.05,-0.21,0.22,-0.06,0.03,1.00,
0.697,0.05,-0.21,0.22,-0.06,0.03,1.00,
0.698,0.05,-0.21,0.22,-0.06,0.04,1.00,
0.698,0.04,-0.19,0.26,-0.06,0.04,1.00,
0.7,0.04,-0.19,0.26,-0.06,0.04,1.00,
0.702,0.04,-0.19,0.26,-0.06,0.03,1.00,
0.702,0.04,-0.18,0.28,-0.06,0.03,1.00,
0.705,0.04,-0.18,0.28,-0.06,0.03,1.00,
0.71,0.04,-0.18,0.28,-0.06,0.03,1.00,
0.71,0.05,-0.18,0.27,-0.06,0.03,1.00,
0.71,0.05,-0.18,0.27,-0.06,0.03,1.00,
0.712,0.05,-0.18,0.27,-0.06,0.02,0.99,
0.712,0.06,-0.23,0.25,-0.06,0.02,0.99,
0.714,0.06,-0.23,0.25,-0.06,0.02,0.99,
0.717,0.06,-0.23,0.25,-0.06,0.02,0.99,
0.717,0.04,-0.27,0.20,-0.06,0.02,0.99,
0.719,0.04,-0.27,0.20,-0.06,0.02,0.99,
0.722,0.04,-0.27,0.20,-0.06,0.02,0.98,
0.722,0.03,-0.30,0.16,-0.06,0.02,0.98,
0.724,0.03,-0.30,0.16,-0.06,0.02,0.98,
0.727,0.03,-0.30,0.16,-0.06,0.02,0.98,
0.727,0.02,-0.33,0.09,-0.06,0.02,0.98,
0.729,0.02,-0.33,0.09,-0.06,0.02,0.98,
0.732,0.02,-0.33,0.09,-0.06,0.01,0.98,
0.733,0.03,-0.35,0.04,-0.06,0.01,0.98,
0.734,0.03,-0.35,0.04,-0.06,0.01,0.98,
0.736,0.03,-0.35,0.04,-0.06,0.01,0.98,
0.737,0.04,-0.36,0.02,-0.06,0.01,0.98,
0.739,0.04,-0.36,0.02,-0.06,0.01,0.98,
0.742,0.04,-0.36,0.02,-0.06,0.01,0.98,
0.742,0.02,-0.37,0.02,-0.06,0.01,0.98,
0.744,0.02,-0.37,0.02,-0.06,0.01,0.98,
0.746,0.02,-0.37,0.02,-0.06,0.02,0.98,
0.747,-0.02,-0.36,0.02,-0.06,0.02,0.98,
0.749,-0.02,-0.36,0.02,-0.06,0.02,0.98,
0.751,-0.02,-0.36,0.02,-0.06,0.02,0.98,
0.751,-0.01,-0.34,0.03,-0.06,0.02,0.98,
0.753,-0.01,-0.34,0.03,-0.06,0.02,0.98,
0.756,-0.01,-0.30,0.04,-0.06,0.02,0.98,
0.756,-0.01,-0.30,0.04,-0.05,0.02,0.98,
0.759,-0.01,-0.30,0.04,-0.05,0.02,0.98,
0.761,-0.01,-0.30,0.04,-0.06,0.02,0.98,
0.762,-0.01,-0.27,0.03,-0.06,0.02,0.98,
0.763,-0.01,-0.27,0.03,-0.06,0.03,0.97,
0.766,-0.01,-0.27,0.03,-0.06,0.03,0.97,
0.766,-0.00,-0.26,0.00,-0.06,0.03,0.97,
0.768,-0.00,-0.26,0.00,-0.06,0.03,0.97,
0.772,-0.00,-0.26,0.00,-0.06,0.03,0.97,
0.773,-0.06,-0.24,-0.02,-0.06,0.03,0.97,
0.774,-0.06,-0.24,-0.02,-0.06,0.03,0.97,
0.776,-0.06,-0.24,-0.02,-0.07,0.03,0.97,
0.776,-0.09,-0.22,-0.05,-0.07,0.03,0.97,
0.779,-0.09,-0.22,-0.05,-0.07,0.03,0.96,
0.781,-0.09,-0.22,-0.05,-0.07,0.03,0.96,
0.781,-0.14,-0.20,-0.09,-0.07,0.03,0.96,
0.783,-0.14,-0.20,-0.09,-0.07,0.03,0.96,
0.785,-0.14,-0.20,-0.09,-0.07,0.03,0.95,
0.786,-0.17,-0.20,-0.14,-0.07,0.03,0.95,
0.788,-0.17,-0.20,-0.14,-0.07,0.03,0.95,
0.791,-0.17,-0.20,-0.14,-0.07,0.03,0.94,
0.792,-0.20,-0.19,-0.22,-0.07,0.03,0.94,
0.793,-0.20,-0.19,-0.22,-0.06,0.03,0.94,
0.795,-0.20,-0.19,-0.22,-0.06,0.03,0.94,
0.796,-0.21,-0.20,-0.29,-0.06,0.03,0.94,
0.798,-0.21,-0.20,-0.29,-0.05,0.03,0.93,
0.8,-0.21,-0.20,-0.29,-0.05,0.03,0.93,
0.803,-0.16,-0.19,-0.37,-0.05,0.03,0.93,
0.803,-0.16,-0.19,-0.37,-0.05,0.03,0.92,
0.805,-0.07,-0.18,-0.44,-0.05,0.03,0.92,
0.806,-0.07,-0.18,-0.44,-0.04,0.03,0.92,
0.813,-0.07,-0.18,-0.44,-0.04,0.03,0.92,
0.814,-0.07,-0.18,-0.44,-0.05,0.03,0.92,
0.814,-0.01,-0.17,-0.51,-0.05,0.03,0.92,
0.814,-0.01,-0.17,-0.51,-0.04,0.03,0.92,
0.815,-0.01,-0.17,-0.51,-0.05,0.03,0.92,
0.815,-0.01,-0.19,-0.54,-0.05,0.03,0.92,
0.817,-0.01,-0.19,-0.54,-0.05,0.03,0.93,
0.82,-0.01,-0.19,-0.54,-0.05,0.03,0.93,
0.82,-0.02,-0.20,-0.51,-0.05,0.03,0.93,
0.822,-0.02,-0.20,-0.51,-0.05,0.02,0.94,
0.825,-0.02,-0.20,-0.51,-0.06,0.03,0.94,
0.825,-0.06,-0.23,-0.45,-0.06,0.03,0.94,
0.827,-0.06,-0.23,-0.45,-0.06,0.02,0.95,
0.83,-0.06,-0.23,-0.45,-0.06,0.02,0.95,
0.83,-0.12,-0.25,-0.34,-0.06,0.02,0.95,
0.832,-0.12,-0.25,-0.34,-0.07,0.02,0.96,
0.834,-0.12,-0.25,-0.34,-0.07,0.02,0.97,
0.834,-0.20,-0.27,-0.22,-0.07,0.02,0.97,
0.837,-0.20,-0.27,-0.22,-0.08,0.02,0.98,
0.839,-0.20,-0.27,-0.22,-0.08,0.01,0.98,
0.84,-0.27,-0.31,-0.06,-0.08,0.01,0.98,
0.842,-0.27,-0.31,-0.06,-0.09,0.01,0.99,
0.844,-0.27,-0.31,-0.06,-0.09,0.01,1.00,
0.845,-0.37,-0.35,0.08,-0.09,0.01,1.00,
0.847,-0.37,-0.35,0.08,-0.09,0.01,1.00,
0.849,-0.37,-0.35,0.08,-0.09,0.01,1.01,
0.85,-0.45,-0.36,0.21,-0.09,0.01,1.01,
0.851,-0.45,-0.36,0.21,-0.09,0.01,1.01,
0.854,-0.45,-0.36,0.21,-0.09,0.01,1.01,
0.854,-0.50,-0.37,0.30,-0.09,0.01,1.01,
0.856,-0.50,-0.37,0.30,-0.09,0.01,1.01,
0.859,-0.50,-0.37,0.30,-0.09,0.01,1.01,
0.86,-0.51,-0.37,0.37,-0.09,0.01,1.01,
0.862,-0.51,-0.37,0.37,-0.09,0.01,1.01,
0.864,-0.51,-0.37,0.37,-0.09,0.01,1.01,
0.864,-0.50,-0.34,0.38,-0.09,0.01,1.01,
0.866,-0.50,-0.34,0.38,-0.08,0.02,1.00,
0.869,-0.50,-0.34,0.38,-0.08,0.02,1.00,
0.869,-0.48,-0.33,0.34,-0.08,0.02,1.00,
0.871,-0.48,-0.33,0.34,-0.07,0.02,0.99,
0.874,-0.48,-0.33,0.34,-0.07,0.02,0.99,
0.875,-0.42,-0.30,0.26,-0.07,0.02,0.99,
0.876,-0.42,-0.30,0.26,-0.06,0.02,0.98,
0.879,-0.33,-0.27,0.14,-0.06,0.02,0.98,
0.879,-0.33,-0.27,0.14,-0.06,0.02,0.97,
0.881,-0.33,-0.27,0.14,-0.05,0.02,0.96,
0.883,-0.33,-0.27,0.14,-0.05,0.02,0.96,
0.884,-0.25,-0.24,0.01,-0.05,0.02,0.96,
0.886,-0.25,-0.24,0.01,-0.05,0.02,0.95,
0.889,-0.25,-0.24,0.01,-0.05,0.02,0.94,
0.889,-0.18,-0.25,-0.15,-0.05,0.02,0.94,
0.896,-0.18,-0.25,-0.15,-0.05,0.01,0.94,
0.896,-0.18,-0.25,-0.15,-0.04,0.02,0.93,
0.897,-0.18,-0.28,-0.29,-0.04,0.02,0.93,
0.897,-0.18,-0.28,-0.29,-0.04,0.02,0.92,
0.898,-0.18,-0.28,-0.29,-0.04,0.02,0.92,
0.899,-0.15,-0.31,-0.41,-0.04,0.02,0.92,
0.901,-0.15,-0.31,-0.41,-0.04,0.02,0.92,
0.903,-0.15,-0.31,-0.41,-0.04,0.02,0.92,
0.903,-0.13,-0.29,-0.50,-0.04,0.02,0.92,
0.905,-0.13,-0.29,-0.50,-0.04,0.02,0.92,
0.908,-0.13,-0.29,-0.50,-0.04,0.02,0.92,
0.909,-0.08,-0.27,-0.54,-0.04,0.02,0.92,
0.911,-0.08,-0.27,-0.54,-0.04,0.02,0.92,
0.913,-0.08,-0.27,-0.54,-0.05,0.02,0.92,
0.913,-0.13,-0.26,-0.53,-0.05,0.02,0.92,
0.915,-0.13,-0.26,-0.53,-0.06,0.01,0.93,
0.918,-0.13,-0.26,-0.53,-0.06,0.01,0.93,
0.918,-0.21,-0.28,-0.50,-0.06,0.01,0.93,
0.92,-0.21,-0.28,-0.50,-0.07,0.01,0.94,
0.923,-0.21,-0.28,-0.50,-0.07,0.01,0.94,
0.923,-0.32,-0.33,-0.43,-0.07,0.01,0.94,
0.925,-0.32,-0.33,-0.43,-0.08,0.01,0.95,
0.928,-0.32,-0.33,-0.43,-0.08,0.01,0.96,
0.928,-0.41,-0.36,-0.32,-0.08,0.01,0.96,
0.93,-0.41,-0.36,-0.32,-0.08,0.01,0.97,
0.932,-0.41,-0.36,-0.32,-0.08,0.01,0.97,
0.933,-0.49,-0.38,-0.18,-0.08,0.01,0.97,
0.935,-0.49,-0.38,-0.18,-0.07,0.01,0.98,
0.937,-0.49,-0.38,-0.18,-0.07,0.01,0.99,
0.938,-0.49,-0.37,-0.02,-0.07,0.01,0.99,
0.94,-0.49,-0.37,-0.02,-0.07,0.01,0.99,
0.942,-0.49,-0.37,-0.02,-0.07,0.01,1.00,
0.943,-0.45,-0.35,0.11,-0.07,0.01,1.00,
0.945,-0.45,-0.35,0.11,-0.07,0.01,1.01,
0.947,-0.45,-0.35,0.11,-0.07,0.01,1.01,
0.947,-0.46,-0.33,0.24,-0.07,0.01,1.01,
0.949,-0.46,-0.33,0.24,-0.07,0.01,1.01,
0.952,-0.46,-0.33,0.24,-0.08,0.01,1.02,
0.952,-0.45,-0.32,0.33,-0.08,0.01,1.02,
0.954,-0.45,-0.32,0.33,-0.08,0.01,1.02,
0.958,-0.45,-0.32,0.33,-0.08,0.01,1.02,
0.958,-0.47,-0.32,0.40,-0.08,0.01,1.02,
0.959,-0.47,-0.32,0.40,-0.07,0.01,1.01,
0.962,-0.47,-0.32,0.40,-0.07,0.01,1.01,
0.963,-0.49,-0.32,0.42,-0.07,0.01,1.01,
0.965,-0.49,-0.32,0.42,-0.07,0.01,1.00,
0.967,-0.49,-0.32,0.42,-0.07,0.02,1.00,
0.967,-0.48,-0.32,0.37,-0.07,0.02,1.00,
0.969,-0.48,-0.32,0.37,-0.07,0.02,0.99,
0.972,-0.48,-0.32,0.37,-0.07,0.02,0.98,
0.972,-0.47,-0.27,0.27,-0.07,0.02,0.98,
0.974,-0.47,-0.27,0.27,-0.07,0.02,0.98,
0.977,-0.47,-0.27,0.27,-0.07,0.02,0.97,
0.978,-0.48,-0.23,0.13,-0.07,0.02,0.97,
0.979,-0.48,-0.23,0.13,-0.07,0.02,0.95,
0.981,-0.48,-0.23,0.13,-0.07,0.02,0.94,
0.981,-0.48,-0.22,-0.04,-0.07,0.02,0.94,
0.983,-0.48,-0.22,-0.04,-0.07,0.02,0.94,
0.986,-0.48,-0.22,-0.04,-0.07,0.02,0.93,
0.986,-0.49,-0.23,-0.24,-0.07,0.02,0.93,
0.988,-0.49,-0.23,-0.24,-0.07,0.02,0.92,
0.993,-0.49,-0.23,-0.24,-0.07,0.02,0.91,
0.993,-0.52,-0.22,-0.42,-0.07,0.02,0.91,
0.994,-0.52,-0.22,-0.42,-0.07,0.02,0.91,
0.996,-0.52,-0.22,-0.42,-0.07,0.01,0.90,
0.996,-0.54,-0.24,-0.58,-0.07,0.01,0.90,
0.998,-0.54,-0.24,-0.58,-0.08,0.01,0.90,
1.001,-0.57,-0.28,-0.66,-0.08,0.01,0.90,
1.001,-0.57,-0.28,-0.66,-0.08,0.01,0.90,
1.003,-0.57,-0.28,-0.66,-0.09,0.00,0.90,
1.006,-0.57,-0.28,-0.66,-0.09,-0.00,0.90,
1.006,-0.65,-0.34,-0.70,-0.09,-0.00,0.90,
1.008,-0.65,-0.34,-0.70,-0.09,-0.00,0.91,
1.011,-0.65,-0.34,-0.70,-0.09,-0.00,0.91,
1.011,-0.72,-0.42,-0.66,-0.09,-0.00,0.91,
1.013,-0.72,-0.42,-0.66,-0.09,-0.01,0.92,
1.016,-0.72,-0.42,-0.66,-0.09,-0.01,0.93,
1.016,-0.74,-0.43,-0.58,-0.09,-0.01,0.93,
1.018,-0.74,-0.43,-0.58,-0.09,-0.01,0.94,
1.021,-0.74,-0.43,-0.58,-0.10,-0.01,0.95,
1.021,-0.75,-0.45,-0.44,-0.10,-0.01,0.95,
1.023,-0.75,-0.45,-0.44,-0.10,-0.01,0.96,
1.026,-0.75,-0.45,-0.44,-0.10,-0.01,0.96,
1.026,-0.79,-0.47,-0.28,-0.10,-0.01,0.96,
1.028,-0.79,-0.47,-0.28,-0.10,-0.01,0.97,
1.031,-0.79,-0.47,-0.28,-0.10,-0.01,0.98,
1.031,-0.81,-0.50,-0.12,-0.10,-0.01,0.98,
1.033,-0.81,-0.50,-0.12,-0.09,-0.01,0.98,
1.035,-0.81,-0.50,-0.12,-0.09,-0.01,0.99,
1.035,-0.80,-0.48,0.02,-0.09,-0.01,0.99,
1.038,-0.80,-0.48,0.02,-0.09,-0.01,0.99,
1.041,-0.80,-0.48,0.02,-0.08,-0.00,0.99,
1.041,-0.76,-0.46,0.13,-0.08,-0.00,0.99,
1.043,-0.76,-0.46,0.13,-0.08,-0.00,0.99,
1.046,-0.76,-0.46,0.13,-0.07,0.00,0.99,
1.046,-0.69,-0.41,0.17,-0.07,0.00,0.99,
1.048,-0.69,-0.41,0.17,-0.06,0.00,0.98,
1.05,-0.69,-0.41,0.17,-0.06,0.01,0.98,
1.05,-0.60,-0.36,0.17,-0.06,0.01,0.98,
1.052,-0.60,-0.36,0.17,-0.05,0.01,0.97,
1.055,-0.60,-0.36,0.17,-0.04,0.01,0.96,
1.056,-0.48,-0.30,0.10,-0.04,0.01,0.96,
1.058,-0.48,-0.30,0.10,-0.04,0.01,0.95,
1.06,-0.48,-0.30,0.10,-0.03,0.01,0.95,
1.06,-0.36,-0.24,-0.04,-0.03,0.01,0.95,
1.062,-0.36,-0.24,-0.04,-0.03,0.01,0.94,
1.065,-0.36,-0.24,-0.04,-0.02,0.01,0.93,
1.065,-0.27,-0.24,-0.21,-0.02,0.01,0.93,
1.067,-0.27,-0.24,-0.21,-0.02,0.01,0.92,
1.069,-0.27,-0.24,-0.21,-0.02,0.01,0.91,
1.07,-0.20,-0.26,-0.37,-0.02,0.01,0.91,
1.072,-0.20,-0.26,-0.37,-0.02,0.00,0.90,
1.075,-0.20,-0.26,-0.37,-0.02,0.00,0.90,
1.075,-0.15,-0.29,-0.54,-0.02,0.00,0.90,
1.077,-0.15,-0.29,-0.54,-0.02,0.00,0.89,
1.08,-0.15,-0.29,-0.54,-0.03,-0.00,0.89,
1.08,-0.17,-0.33,-0.68,-0.03,-0.00,0.89,
1.082,-0.17,-0.33,-0.68,-0.04,-0.00,0.89,
1.084,-0.17,-0.33,-0.68,-0.04,-0.00,0.89,
1.084,-0.25,-0.36,-0.76,-0.04,-0.00,0.89,
1.086,-0.25,-0.36,-0.76,-0.05,-0.00,0.89,
1.095,-0.25,-0.36,-0.76,-0.06,-0.00,0.90,
1.096,-0.38,-0.37,-0.76,-0.06,-0.00,0.90,
1.096,-0.38,-0.37,-0.76,-0.07,-0.00,0.91,
1.097,-0.38,-0.37,-0.76,-0.08,-0.00,0.91,
1.097,-0.53,-0.36,-0.70,-0.08,-0.00,0.91,
1.097,-0.53,-0.36,-0.70,-0.09,-0.00,0.92,
1.099,-0.53,-0.36,-0.70,-0.10,-0.00,0.93,
1.099,-0.70,-0.36,-0.58,-0.10,-0.00,0.93,
1.101,-0.70,-0.36,-0.58,-0.11,-0.00,0.94,
1.104,-0.70,-0.36,-0.58,-0.12,0.00,0.95,
1.104,-0.89,-0.34,-0.43,-0.12,0.00,0.95,
1.112,-0.89,-0.34,-0.43,-0.13,0.00,0.96,
1.112,-0.89,-0.34,-0.43,-0.14,0.01,0.97,
1.113,-1.09,-0.30,-0.22,-0.14,0.01,0.97,
1.113,-1.09,-0.30,-0.22,-0.14,0.01,0.98,
1.114,-1.09,-0.30,-0.22,-0.15,0.01,0.99,
1.114,-1.27,-0.25,0.00,-0.15,0.01,0.99,
1.116,-1.27,-0.25,0.00,-0.15,0.01,1.00,
1.118,-1.27,-0.25,0.00,-0.15,0.01,1.00,
1.119,-1.41,-0.23,0.19,-0.15,0.01,1.00,
1.121,-1.41,-0.23,0.19,-0.14,0.01,1.01,
1.124,-1.41,-0.23,0.19,-0.14,0.02,1.01,
1.124,-1.44,-0.19,0.33,-0.14,0.02,1.01,
1.126,-1.44,-0.19,0.33,-0.12,0.03,1.01,
1.129,-1.44,-0.19,0.33,-0.11,0.03,1.00,
1.129,-1.34,-0.12,0.40,-0.11,0.03,1.00,
1.131,-1.34,-0.12,0.40,-0.10,0.03,1.00,
1.133,-1.14,-0.00,0.37,-0.10,0.03,1.00,
1.134,-1.14,-0.00,0.37,-0.09,0.04,0.99,
1.136,-1.14,-0.00,0.37,-0.08,0.04,0.98,
1.138,-1.14,-0.00,0.37,-0.08,0.04,0.97,
1.138,-0.96,0.07,0.25,-0.08,0.04,0.97,
1.14,-0.96,0.07,0.25,-0.07,0.03,0.95,
1.143,-0.96,0.07,0.25,-0.06,0.03,0.94,
1.143,-0.79,0.07,0.05,-0.06,0.03,0.94,
1.146,-0.79,0.07,0.05,-0.05,0.02,0.92,
1.148,-0.79,0.07,0.05,-0.05,0.02,0.90,
1.148,-0.67,0.00,-0.21,-0.05,0.02,0.90,
1.15,-0.67,0.00,-0.21,-0.04,0.01,0.89,
1.153,-0.67,0.00,-0.21,-0.03,0.01,0.87,
1.153,-0.56,-0.09,-0.53,-0.03,0.01,0.87,
1.155,-0.56,-0.09,-0.53,-0.02,0.01,0.86,
1.158,-0.44,-0.16,-0.85,-0.02,0.01,0.86,
1.158,-0.44,-0.16,-0.85,-0.01,0.01,0.84,
1.16,-0.44,-0.16,-0.85,-0.01,0.01,0.83,
1.162,-0.44,-0.16,-0.85,-0.00,0.00,0.82,
1.163,-0.32,-0.20,-1.12,-0.00,0.00,0.82,
1.165,-0.32,-0.20,-1.12,-0.01,0.00,0.82,
1.168,-0.32,-0.20,-1.12,-0.00,0.00,0.81,
1.168,-0.21,-0.21,-1.34,-0.00,0.00,0.81,
1.17,-0.21,-0.21,-1.34,-0.01,0.01,0.81,
1.172,-0.21,-0.21,-1.34,-0.01,0.01,0.81,
1.173,-0.22,-0.21,-1.46,-0.01,0.01,0.81,
1.175,-0.22,-0.21,-1.46,-0.02,0.01,0.82,
1.177,-0.22,-0.21,-1.46,-0.03,0.01,0.82,
1.178,-0.27,-0.17,-1.48,-0.03,0.01,0.82,
1.18,-0.27,-0.17,-1.48,-0.04,0.01,0.83,
1.182,-0.27,-0.17,-1.48,-0.05,0.01,0.84,
1.183,-0.44,-0.13,-1.38,-0.05,0.01,0.84,
1.185,-0.44,-0.13,-1.38,-0.06,0.02,0.86,
1.187,-0.44,-0.13,-1.38,-0.07,0.02,0.87,
1.187,-0.60,-0.07,-1.20,-0.07,0.02,0.87,
1.19,-0.60,-0.07,-1.20,-0.08,0.03,0.89,
1.192,-0.60,-0.07,-1.20,-0.08,0.03,0.90,
1.192,-0.80,0.00,-0.92,-0.08,0.03,0.90,
1.194,-0.80,0.00,-0.92,-0.09,0.04,0.92,
1.197,-0.80,0.00,-0.92,-0.10,0.04,0.94,
1.197,-0.97,0.09,-0.61,-0.10,0.04,0.94,
1.199,-0.97,0.09,-0.61,-0.10,0.05,0.95,
1.202,-0.97,0.09,-0.61,-0.11,0.05,0.96,
1.203,-1.08,0.22,-0.30,-0.11,0.05,0.96,
1.204,-1.08,0.22,-0.30,-0.11,0.06,0.97,
1.212,-1.08,0.22,-0.30,-0.12,0.06,0.99,
1.213,-1.18,0.34,-0.03,-0.12,0.06,0.99,
1.213,-1.18,0.34,-0.03,-0.12,0.06,0.99,
1.213,-1.18,0.34,-0.03,-0.12,0.07,1.00,
1.214,-1.27,0.43,0.21,-0.12,0.07,1.00,
1.214,-1.27,0.43,0.21,-0.12,0.07,1.00,
1.216,-1.27,0.43,0.21,-0.12,0.06,1.00,
1.217,-1.34,0.49,0.36,-0.12,0.06,1.00,
1.219,-1.34,0.49,0.36,-0.11,0.06,1.00,
1.221,-1.34,0.49,0.36,-0.11,0.06,1.00,
1.221,-1.33,0.49,0.44,-0.11,0.06,1.00,
1.224,-1.33,0.49,0.44,-0.10,0.06,0.99,
1.226,-1.33,0.49,0.44,-0.09,0.06,0.98,
1.226,-1.24,0.48,0.40,-0.09,0.06,0.98,
1.228,-1.24,0.48,0.40,-0.07,0.06,0.96,
1.231,-1.24,0.48,0.40,-0.06,0.06,0.95,
1.231,-1.07,0.48,0.23,-0.06,0.06,0.95,
1.233,-1.07,0.48,0.23,-0.04,0.06,0.93,
1.236,-1.07,0.48,0.23,-0.03,0.06,0.91,
1.236,-0.82,0.47,-0.05,-0.03,0.06,0.91,
1.238,-0.82,0.47,-0.05,-0.01,0.05,0.89,
1.241,-0.82,0.47,-0.05,-0.00,0.05,0.88,
1.241,-0.54,0.44,-0.38,-0.00,0.05,0.88,
1.243,-0.54,0.44,-0.38,0.01,0.05,0.86,
1.246,-0.54,0.44,-0.38,0.02,0.05,0.85,
1.246,-0.28,0.37,-0.72,0.02,0.05,0.85,
1.248,-0.28,0.37,-0.72,0.02,0.05,0.83,
1.251,-0.28,0.37,-0.72,0.03,0.04,0.82,
1.251,-0.09,0.31,-1.01,0.03,0.04,0.82,
1.253,-0.09,0.31,-1.01,0.03,0.04,0.82,
1.256,-0.09,0.31,-1.01,0.02,0.04,0.82,
1.256,0.00,0.30,-1.25,0.02,0.04,0.82,
1.258,0.00,0.30,-1.25,0.02,0.05,0.82,
1.26,0.00,0.30,-1.25,0.01,0.05,0.83,
1.261,0.00,0.28,-1.33,0.01,0.05,0.83,
1.263,0.00,0.28,-1.33,0.00,0.05,0.84,
1.265,0.00,0.28,-1.33,-0.01,0.05,0.85,
1.266,-0.07,0.31,-1.28,-0.01,0.05,0.85,
1.268,-0.07,0.31,-1.28,-0.02,0.06,0.87,
1.271,-0.07,0.31,-1.28,-0.04,0.06,0.88,
1.271,-0.25,0.36,-1.06,-0.04,0.06,0.88,
1.273,-0.25,0.36,-1.06,-0.06,0.07,0.91,
1.275,-0.25,0.36,-1.06,-0.07,0.07,0.93,
1.276,-0.54,0.49,-0.77,-0.07,0.07,0.93,
1.277,-0.54,0.49,-0.77,-0.09,0.08,0.95,
1.28,-0.54,0.49,-0.77,-0.10,0.08,0.97,
1.28,-0.85,0.60,-0.33,-0.10,0.08,0.97,
1.282,-0.85,0.60,-0.33,-0.11,0.08,0.98,
1.285,-0.85,0.60,-0.33,-0.11,0.08,1.00,
1.285,-1.08,0.68,0.07,-0.11,0.08,1.00,
1.288,-1.08,0.68,0.07,-0.11,0.08,1.01,
1.295,-1.08,0.68,0.07,-0.11,0.09,1.02,
1.3,-1.22,0.70,0.37,-0.11,0.09,1.02,
1.3,-1.22,0.70,0.37,-0.11,0.09,1.03,
1.301,-1.22,0.70,0.37,-0.10,0.09,1.03,
1.301,-1.24,0.75,0.58,-0.10,0.09,1.03,
1.301,-1.24,0.75,0.58,-0.10,0.10,1.04,
1.302,-1.24,0.75,0.58,-0.10,0.10,1.04,
1.302,-1.17,0.84,0.75,-0.10,0.10,1.04,
1.303,-1.17,0.84,0.75,-0.09,0.10,1.04,
1.305,-1.17,0.84,0.75,-0.08,0.10,1.03,
1.305,-1.07,0.93,0.82,-0.08,0.10,1.03,
1.31,-1.07,0.93,0.82,-0.08,0.10,1.02,
1.31,-1.07,0.93,0.82,-0.07,0.09,1.02,
1.31,-0.93,0.93,0.77,-0.07,0.09,1.02,
1.312,-0.93,0.93,0.77,-0.07,0.09,1.01,
1.314,-0.93,0.93,0.77,-0.06,0.09,1.00,
1.315,-0.83,0.87,0.64,-0.06,0.09,1.00,
1.317,-0.83,0.87,0.64,-0.05,0.10,0.99,
1.319,-0.69,0.84,0.48,-0.05,0.10,0.99,
1.319,-0.69,0.84,0.48,-0.04,0.10,0.98,
1.322,-0.69,0.84,0.48,-0.04,0.10,0.97,
1.324,-0.69,0.84,0.48,-0.04,0.10,0.97,
1.324,-0.54,0.87,0.30,-0.04,0.10,0.97,
1.326,-0.54,0.87,0.30,-0.04,0.10,0.96,
1.329,-0.54,0.87,0.30,-0.04,0.10,0.96,
1.329,-0.44,0.88,0.14,-0.04,0.10,0.96,
1.331,-0.44,0.88,0.14,-0.04,0.10,0.95,
1.334,-0.44,0.88,0.14,-0.05,0.10,0.95,
1.334,-0.41,0.88,0.01,-0.05,0.10,0.95,
1.336,-0.41,0.88,0.01,-0.06,0.09,0.95,
1.34,-0.41,0.88,0.01,-0.07,0.10,0.95,
1.34,-0.49,0.84,-0.07,-0.07,0.10,0.95,
1.342,-0.49,0.84,-0.07,-0.08,0.10,0.96,
1.344,-0.69,0.83,-0.07,-0.08,0.10,0.96,
1.344,-0.69,0.83,-0.07,-0.09,0.10,0.96,
1.346,-0.69,0.83,-0.07,-0.11,0.10,0.97,
1.349,-0.69,0.83,-0.07,-0.12,0.10,0.98,
1.349,-0.88,0.84,0.02,-0.12,0.10,0.98,
1.351,-0.88,0.84,0.02,-0.13,0.09,0.99,
1.354,-1.14,0.84,0.16,-0.13,0.09,0.99,
1.354,-1.14,0.84,0.16,-0.14,0.09,1.00,
1.356,-1.14,0.84,0.16,-0.15,0.09,1.00,
1.359,-1.14,0.84,0.16,-0.15,0.09,1.02,
1.359,-1.32,0.82,0.33,-0.15,0.09,1.02,
1.361,-1.32,0.82,0.33,-0.15,0.10,1.03,
1.363,-1.32,0.82,0.33,-0.15,0.09,1.04,
1.364,-1.43,0.81,0.51,-0.15,0.09,1.04,
1.366,-1.43,0.81,0.51,-0.15,0.09,1.04,
1.368,-1.43,0.81,0.51,-0.14,0.09,1.05,
1.369,-1.43,0.83,0.71,-0.14,0.09,1.05,
1.371,-1.43,0.83,0.71,-0.13,0.09,1.05,
1.374,-1.43,0.83,0.71,-0.12,0.09,1.05,
1.374,-1.34,0.82,0.84,-0.12,0.09,1.05,
1.376,-1.34,0.82,0.84,-0.11,0.08,1.05,
1.378,-1.34,0.82,0.84,-0.10,0.08,1.05,
1.378,-1.14,0.78,0.90,-0.10,0.08,1.05,
1.381,-1.14,0.78,0.90,-0.08,0.07,1.04,
1.383,-1.14,0.78,0.90,-0.07,0.07,1.04,
1.383,-0.89,0.70,0.88,-0.07,0.07,1.04,
1.385,-0.89,0.70,0.88,-0.05,0.06,1.03,
1.388,-0.89,0.70,0.88,-0.04,0.06,1.02,
1.388,-0.63,0.63,0.77,-0.04,0.06,1.02,
1.395,-0.63,0.63,0.77,-0.02,0.06,1.01,
1.396,-0.35,0.54,0.62,-0.02,0.06,1.01,
1.396,-0.35,0.54,0.62,-0.01,0.05,1.00,
1.397,-0.35,0.54,0.62,-0.00,0.05,1.00,
1.398,-0.35,0.54,0.62,0.01,0.05,0.99,
1.398,-0.10,0.48,0.44,0.01,0.05,0.99,
1.4,-0.10,0.48,0.44,0.01,0.05,0.98,
1.402,-0.10,0.48,0.44,0.01,0.05,0.97,
1.403,0.10,0.46,0.27,0.01,0.05,0.97,
1.408,0.10,0.46,0.27,0.02,0.05,0.97,
1.409,0.10,0.46,0.27,0.01,0.04,0.96,
1.409,0.21,0.42,0.12,0.01,0.04,0.96,
1.41,0.21,0.42,0.12,0.01,0.04,0.96,
1.412,0.21,0.42,0.12,0.00,0.04,0.96,
1.412,0.25,0.41,0.02,0.00,0.04,0.96,
1.415,0.25,0.41,0.02,-0.01,0.04,0.96,
1.417,0.25,0.41,0.02,-0.01,0.04,0.97,
1.417,0.16,0.38,-0.02,-0.01,0.04,0.97,
1.419,0.16,0.38,-0.02,-0.02,0.04,0.97,
1.422,0.16,0.38,-0.02,-0.03,0.04,0.97,
1.422,0.02,0.38,0.01,-0.03,0.04,0.97,
1.424,0.02,0.38,0.01,-0.04,0.04,0.98,
1.427,0.02,0.38,0.01,-0.05,0.04,0.99,
1.427,-0.15,0.39,0.09,-0.05,0.04,0.99,
1.43,-0.15,0.39,0.09,-0.06,0.04,1.00,
1.432,-0.15,0.39,0.09,-0.06,0.04,1.01,
1.432,-0.30,0.38,0.23,-0.06,0.04,1.01,
1.434,-0.30,0.38,0.23,-0.07,0.05,1.02,
1.437,-0.30,0.38,0.23,-0.08,0.05,1.03,
1.437,-0.43,0.42,0.40,-0.08,0.05,1.03,
1.439,-0.43,0.42,0.40,-0.09,0.05,1.04,
1.442,-0.43,0.42,0.40,-0.09,0.05,1.05,
1.443,-0.56,0.47,0.61,-0.09,0.05,1.05,
1.444,-0.56,0.47,0.61,-0.10,0.05,1.06,
1.446,-0.56,0.47,0.61,-0.10,0.05,1.08,
1.447,-0.70,0.49,0.82,-0.10,0.05,1.08,
1.449,-0.70,0.49,0.82,-0.10,0.05,1.08,
1.452,-0.70,0.49,0.82,-0.10,0.05,1.09,
1.452,-0.77,0.54,1.04,-0.10,0.05,1.09,
1.454,-0.77,0.54,1.04,-0.09,0.05,1.09,
1.456,-0.77,0.54,1.04,-0.09,0.05,1.10,
1.457,-0.75,0.57,1.20,-0.09,0.05,1.10,
1.459,-0.75,0.57,1.20,-0.09,0.05,1.10,
1.461,-0.68,0.56,1.29,-0.09,0.05,1.10,
1.462,-0.68,0.56,1.29,-0.08,0.05,1.10,
1.464,-0.68,0.56,1.29,-0.07,0.05,1.10,
1.466,-0.68,0.56,1.29,-0.07,0.04,1.10,
1.467,-0.58,0.55,1.32,-0.07,0.04,1.10,
1.469,-0.58,0.55,1.32,-0.06,0.04,1.10,
1.471,-0.45,0.53,1.34,-0.06,0.04,1.10,
1.471,-0.45,0.53,1.34,-0.05,0.04,1.09,
1.473,-0.45,0.53,1.34,-0.05,0.04,1.09,
1.476,-0.45,0.53,1.34,-0.04,0.04,1.08,
1.476,-0.28,0.50,1.31,-0.04,0.04,1.08,
1.478,-0.28,0.50,1.31,-0.04,0.04,1.08,
1.481,-0.28,0.50,1.31,-0.03,0.04,1.07,
1.481,-0.16,0.49,1.20,-0.03,0.04,1.07,
1.483,-0.16,0.49,1.20,-0.03,0.04,1.06,
1.486,-0.16,0.49,1.20,-0.03,0.04,1.05,
1.486,-0.07,0.50,1.06,-0.03,0.04,1.05,
1.491,-0.07,0.50,1.06,-0.03,0.05,1.05,
1.491,-0.07,0.50,1.06,-0.03,0.05,1.04,
1.492,-0.01,0.53,0.92,-0.03,0.05,1.04,
1.493,-0.01,0.53,0.92,-0.03,0.05,1.03,
1.495,-0.01,0.53,0.92,-0.04,0.05,1.02,
1.496,-0.03,0.56,0.75,-0.04,0.05,1.02,
1.498,-0.03,0.56,0.75,-0.04,0.05,1.01,
1.501,-0.03,0.56,0.75,-0.04,0.05,1.00,
1.501,-0.08,0.59,0.56,-0.04,0.05,1.00,
1.503,-0.08,0.59,0.56,-0.05,0.05,0.99,
1.505,-0.08,0.59,0.56,-0.05,0.05,0.98,
1.506,-0.14,0.61,0.37,-0.05,0.05,0.98,
1.507,-0.14,0.61,0.37,-0.05,0.05,0.98,
1.51,-0.14,0.61,0.37,-0.06,0.05,0.97,
1.51,-0.20,0.59,0.21,-0.06,0.05,0.97,
1.512,-0.20,0.59,0.21,-0.06,0.06,0.97,
1.515,-0.20,0.59,0.21,-0.07,0.06,0.97,
1.515,-0.26,0.61,0.11,-0.07,0.06,0.97,
1.517,-0.26,0.61,0.11,-0.07,0.06,0.97,
1.52,-0.26,0.61,0.11,-0.08,0.06,0.98,
1.52,-0.33,0.66,0.08,-0.08,0.06,0.98,
1.523,-0.33,0.66,0.08,-0.08,0.06,0.98,
1.525,-0.33,0.66,0.08,-0.09,0.06,0.99,
1.525,-0.44,0.68,0.10,-0.09,0.06,0.99,
1.528,-0.44,0.68,0.10,-0.09,0.06,0.99,
1.53,-0.44,0.68,0.10,-0.09,0.06,1.00,
1.53,-0.50,0.70,0.18,-0.09,0.06,1.00,
1.532,-0.50,0.70,0.18,-0.10,0.05,1.01,
1.535,-0.50,0.70,0.18,-0.10,0.05,1.01,
1.535,-0.57,0.71,0.30,-0.10,0.05,1.01,
1.537,-0.57,0.71,0.30,-0.10,0.05,1.02,
1.54,-0.57,0.71,0.30,-0.09,0.05,1.02,
1.54,-0.65,0.65,0.44,-0.09,0.05,1.02,
1.542,-0.65,0.65,0.44,-0.09,0.05,1.03,
1.545,-0.65,0.65,0.44,-0.08,0.04,1.03,
1.545,-0.61,0.63,0.56,-0.08,0.04,1.03,
1.547,-0.61,0.63,0.56,-0.07,0.04,1.04,
1.549,-0.61,0.63,0.56,-0.07,0.04,1.04,
1.55,-0.47,0.60,0.65,-0.07,0.04,1.04,
1.552,-0.47,0.60,0.65,-0.06,0.04,1.05,
1.556,-0.47,0.60,0.65,-0.05,0.04,1.05,
1.556,-0.35,0.59,0.75,-0.05,0.04,1.05,
1.557,-0.35,0.59,0.75,-0.04,0.04,1.05,
1.559,-0.19,0.60,0.82,-0.04,0.04,1.05,
1.56,-0.19,0.60,0.82,-0.03,0.04,1.05,
1.562,-0.19,0.60,0.82,-0.03,0.04,1.06,
1.564,-0.19,0.60,0.82,-0.03,0.04,1.06,
1.564,-0.01,0.62,0.87,-0.03,0.04,1.06,
1.566,-0.01,0.62,0.87,-0.02,0.04,1.06,
1.569,-0.01,0.62,0.87,-0.02,0.04,1.05,
1.569,0.09,0.61,0.92,-0.02,0.04,1.05,
1.572,0.09,0.61,0.92,-0.02,0.03,1.05,
1.574,0.09,0.61,0.92,-0.02,0.03,1.05,
1.574,0.14,0.60,0.87,-0.02,0.03,1.05,
1.577,0.14,0.60,0.87,-0.02,0.03,1.04,
1.579,0.18,0.55,0.81,-0.02,0.03,1.04,
1.579,0.18,0.55,0.81,-0.01,0.03,1.04,
1.581,0.18,0.55,0.81,-0.01,0.02,1.03,
1.584,0.18,0.55,0.81,-0.01,0.02,1.02,
1.584,0.21,0.51,0.73,-0.01,0.02,1.02,
1.586,0.21,0.51,0.73,-0.01,0.02,1.02,
1.589,0.22,0.48,0.61,-0.01,0.02,1.02,
1.59,0.22,0.48,0.61,-0.01,0.02,1.01,
1.591,0.22,0.48,0.61,-0.01,0.02,1.01,
1.594,0.22,0.48,0.61,-0.02,0.02,1.00,
1.594,0.25,0.47,0.49,-0.02,0.02,1.00,
1.596,0.25,0.47,0.49,-0.02,0.01,1.00,
1.598,0.25,0.47,0.49,-0.02,0.01,1.00,
1.599,0.22,0.44,0.38,-0.02,0.01,1.00,
1.601,0.22,0.44,0.38,-0.03,0.01,1.00,
1.604,0.22,0.44,0.38,-0.03,0.01,1.00,
1.604,0.15,0.42,0.33,-0.03,0.01,1.00,
1.611,0.15,0.42,0.33,-0.04,0.01,1.00,
1.612,0.15,0.42,0.33,-0.04,0.01,1.00,
1.612,0.06,0.42,0.32,-0.04,0.01,1.00,
1.613,0.06,0.42,0.32,-0.04,0.02,1.01,
1.613,0.06,0.42,0.32,-0.04,0.02,1.01,
1.613,-0.01,0.44,0.37,-0.04,0.02,1.01,
1.615,-0.01,0.44,0.37,-0.04,0.03,1.02,
1.618,-0.01,0.44,0.37,-0.04,0.04,1.02,
1.618,-0.03,0.50,0.42,-0.04,0.04,1.02,
1.62,-0.03,0.50,0.42,-0.04,0.04,1.03,
1.626,-0.03,0.50,0.42,-0.03,0.05,1.03,
1.626,-0.01,0.62,0.54,-0.03,0.05,1.03,
1.626,-0.01,0.62,0.54,-0.03,0.05,1.04,
1.628,-0.01,0.62,0.54,-0.03,0.06,1.05,
1.628,0.05,0.74,0.65,-0.03,0.06,1.05,
1.63,0.05,0.74,0.65,-0.03,0.06,1.05,
1.633,0.05,0.74,0.65,-0.03,0.06,1.05,
1.633,0.10,0.86,0.76,-0.03,0.06,1.05,
1.635,0.10,0.86,0.76,-0.03,0.07,1.06,
1.639,0.10,0.86,0.76,-0.03,0.07,1.06,
1.639,0.13,0.96,0.85,-0.03,0.07,1.06,
1.64,0.13,0.96,0.85,-0.02,0.07,1.06,
1.643,0.16,1.00,0.90,-0.02,0.07,1.06,
1.643,0.16,1.00,0.90,-0.02,0.07,1.06,
1.645,0.16,1.00,0.90,-0.02,0.08,1.06,
1.648,0.16,1.00,0.90,-0.01,0.08,1.05,
1.648,0.23,1.05,0.91,-0.01,0.08,1.05,
1.65,0.23,1.05,0.91,-0.01,0.08,1.05,
1.652,0.23,1.05,0.91,-0.00,0.08,1.05,
1.652,0.33,1.10,0.89,-0.00,0.08,1.05,
1.655,0.33,1.10,0.89,0.00,0.08,1.04,
1.657,0.33,1.10,0.89,0.00,0.08,1.04,
1.658,0.43,1.11,0.83,0.00,0.08,1.04,
1.66,0.43,1.11,0.83,0.00,0.08,1.03,
1.662,0.43,1.11,0.83,0.00,0.07,1.03,
1.662,0.49,1.13,0.74,0.00,0.07,1.03,
1.665,0.49,1.13,0.74,0.00,0.07,1.02,
1.667,0.49,1.13,0.74,0.00,0.07,1.02,
1.667,0.51,1.09,0.63,0.00,0.07,1.02,
1.67,0.51,1.09,0.63,0.00,0.07,1.01,
1.672,0.51,1.09,0.63,0.00,0.06,1.01,
1.673,0.51,1.03,0.52,0.00,0.06,1.01,
1.674,0.51,1.03,0.52,0.00,0.06,1.00,
1.677,0.51,1.03,0.52,-0.00,0.06,1.00,
1.677,0.50,0.97,0.41,-0.00,0.06,1.00,
1.679,0.50,0.97,0.41,-0.00,0.06,1.00,
1.682,0.50,0.97,0.41,-0.00,0.05,1.00,
1.682,0.48,0.91,0.34,-0.00,0.05,1.00,
1.684,0.48,0.91,0.34,-0.01,0.05,1.00,
1.687,0.45,0.87,0.32,-0.01,0.05,1.00,
1.687,0.45,0.87,0.32,-0.01,0.05,1.00,
1.694,0.45,0.87,0.32,-0.02,0.05,1.01,
1.694,0.45,0.87,0.32,-0.02,0.04,1.01,
1.695,0.38,0.83,0.33,-0.02,0.04,1.01,
1.695,0.38,0.83,0.33,-0.03,0.04,1.02,
1.696,0.38,0.83,0.33,-0.03,0.04,1.03,
1.697,0.31,0.77,0.41,-0.03,0.04,1.03,
1.699,0.31,0.77,0.41,-0.03,0.04,1.03,
1.701,0.31,0.77,0.41,-0.03,0.04,1.04,
1.701,0.26,0.75,0.54,-0.03,0.04,1.04,
1.703,0.26,0.75,0.54,-0.03,0.04,1.05,
1.706,0.26,0.75,0.54,-0.03,0.04,1.06,
1.707,0.23,0.74,0.70,-0.03,0.04,1.06,
1.709,0.23,0.74,0.70,-0.04,0.04,1.07,
1.711,0.23,0.74,0.70,-0.04,0.04,1.08,
1.711,0.25,0.75,0.87,-0.04,0.04,1.08,
1.713,0.25,0.75,0.87,-0.04,0.04,1.09,
1.716,0.25,0.75,0.87,-0.03,0.04,1.09,
1.716,0.23,0.73,1.04,-0.03,0.04,1.09,
1.718,0.23,0.73,1.04,-0.03,0.04,1.10,
1.721,0.23,0.73,1.04,-0.03,0.04,1.10,
1.721,0.26,0.73,1.19,-0.03,0.04,1.10,
1.723,0.26,0.73,1.19,-0.02,0.04,1.10,
1.726,0.26,0.73,1.19,-0.01,0.04,1.10,
1.726,0.34,0.72,1.24,-0.01,0.04,1.10,
1.728,0.34,0.72,1.24,-0.00,0.04,1.10,
1.731,0.34,0.72,1.24,0.01,0.04,1.10,
1.731,0.48,0.72,1.27,0.01,0.04,1.10,
1.733,0.48,0.72,1.27,0.01,0.05,1.09,
1.735,0.48,0.72,1.27,0.02,0.04,1.08,
1.736,0.63,0.74,1.22,0.02,0.04,1.08,
1.738,0.63,0.74,1.22,0.03,0.04,1.07,
1.741,0.63,0.74,1.22,0.03,0.04,1.07,
1.741,0.79,0.75,1.09,0.03,0.04,1.07,
1.743,0.79,0.75,1.09,0.04,0.04,1.06,
1.745,0.79,0.75,1.09,0.04,0.04,1.05,
1.745,0.91,0.72,0.93,0.04,0.04,1.05,
1.748,0.91,0.72,0.93,0.04,0.04,1.04,
1.75,0.91,0.72,0.93,0.04,0.04,1.03,
1.751,0.98,0.68,0.74,0.04,0.04,1.03,
1.752,0.98,0.68,0.74,0.03,0.03,1.02,
1.755,0.98,0.68,0.74,0.03,0.03,1.01,
1.756,0.97,0.63,0.54,0.03,0.03,1.01,
1.758,0.97,0.63,0.54,0.03,0.03,1.00,
1.76,0.97,0.63,0.54,0.03,0.03,1.00,
1.76,0.92,0.58,0.37,0.03,0.03,1.00,
1.762,0.92,0.58,0.37,0.02,0.03,0.99,
1.765,0.92,0.58,0.37,0.02,0.03,0.99,
1.765,0.88,0.55,0.23,0.02,0.03,0.99,
1.767,0.88,0.55,0.23,0.02,0.03,0.99,
1.77,0.88,0.55,0.23,0.02,0.03,0.98,
1.77,0.83,0.53,0.14,0.02,0.03,0.98,
1.773,0.83,0.53,0.14,0.01,0.03,0.99,
1.775,0.83,0.53,0.14,0.01,0.03,0.99,
1.776,0.79,0.50,0.08,0.01,0.03,0.99,
1.778,0.79,0.50,0.08,0.00,0.03,0.99,
1.78,0.79,0.50,0.08,0.00,0.03,1.00,
1.782,0.72,0.50,0.11,0.00,0.03,1.00,
1.782,0.72,0.50,0.11,-0.00,0.03,1.00,
1.785,0.65,0.50,0.19,-0.00,0.03,1.00,
1.785,0.65,0.50,0.19,-0.00,0.03,1.01,
1.793,0.65,0.50,0.19,-0.00,0.03,1.02,
1.793,0.65,0.50,0.19,-0.00,0.03,1.03,
1.794,0.61,0.51,0.31,-0.00,0.03,1.03,
1.794,0.61,0.51,0.31,-0.00,0.03,1.03,
1.794,0.61,0.51,0.31,0.00,0.03,1.04,
1.794,0.61,0.51,0.45,0.00,0.03,1.04,
1.797,0.61,0.51,0.45,0.00,0.03,1.05,
1.799,0.61,0.51,0.45,0.00,0.03,1.06,
1.799,0.66,0.53,0.61,0.00,0.03,1.06,
1.802,0.66,0.53,0.61,0.01,0.03,1.06,
1.805,0.66,0.53,0.61,0.01,0.03,1.07,
1.806,0.69,0.56,0.75,0.01,0.03,1.07,
1.806,0.69,0.56,0.75,0.01,0.03,1.08,
1.809,0.75,0.54,0.88,0.01,0.03,1.08,
1.809,0.75,0.54,0.88,0.01,0.03,1.08,
1.811,0.75,0.54,0.88,0.01,0.03,1.09,
1.814,0.75,0.54,0.88,0.01,0.03,1.09,
1.814,0.78,0.54,0.98,0.01,0.03,1.09,
1.816,0.78,0.54,0.98,0.01,0.03,1.09,
1.819,0.78,0.54,0.98,0.02,0.03,1.09,
1.819,0.80,0.53,1.04,0.02,0.03,1.09,
1.822,0.80,0.53,1.04,0.02,0.03,1.09,
1.824,0.80,0.53,1.04,0.02,0.03,1.09,
1.824,0.83,0.54,1.05,0.02,0.03,1.09,
1.826,0.83,0.54,1.05,0.02,0.03,1.09,
1.829,0.83,0.54,1.05,0.03,0.03,1.09,
1.829,0.87,0.57,1.05,0.03,0.03,1.09,
1.831,0.87,0.57,1.05,0.02,0.03,1.08,
1.833,0.87,0.57,1.05,0.03,0.03,1.08,
1.834,0.91,0.55,1.01,0.03,0.03,1.08,
1.836,0.91,0.55,1.01,0.03,0.04,1.08,
1.839,0.91,0.55,1.01,0.03,0.04,1.08,
1.839,0.94,0.53,0.97,0.03,0.04,1.08,
1.841,0.94,0.53,0.97,0.03,0.04,1.07,
1.843,0.94,0.53,0.97,0.02,0.04,1.07,
1.844,0.93,0.55,0.92,0.02,0.04,1.07,
1.846,0.93,0.55,0.92,0.02,0.04,1.06,
1.848,0.93,0.55,0.92,0.01,0.04,1.06,
1.848,0.92,0.54,0.85,0.01,0.04,1.06,
1.85,0.92,0.54,0.85,0.01,0.04,1.06,
1.853,0.92,0.54,0.85,0.00,0.04,1.05,
1.854,0.84,0.52,0.75,0.00,0.04,1.05,
1.855,0.84,0.52,0.75,-0.00,0.04,1.05,
1.858,0.84,0.52,0.75,-0.01,0.04,1.04,
1.859,0.74,0.50,0.66,-0.01,0.04,1.04,
1.86,0.74,0.50,0.66,-0.01,0.04,1.03,
1.863,0.74,0.50,0.66,-0.02,0.04,1.03,
1.863,0.63,0.50,0.55,-0.02,0.04,1.03,
1.865,0.63,0.50,0.55,-0.02,0.04,1.02,
1.868,0.63,0.50,0.55,-0.03,0.04,1.02,
1.868,0.50,0.49,0.41,-0.03,0.04,1.02,
1.871,0.50,0.49,0.41,-0.03,0.04,1.01,
1.873,0.50,0.49,0.41,-0.03,0.05,1.01,
1.873,0.41,0.49,0.31,-0.03,0.05,1.01,
1.875,0.41,0.49,0.31,-0.03,0.05,1.00,
1.878,0.41,0.49,0.31,-0.04,0.05,1.00,
1.878,0.33,0.54,0.22,-0.04,0.05,1.00,
1.88,0.33,0.54,0.22,-0.04,0.05,0.99,
1.882,0.33,0.54,0.22,-0.03,0.05,0.99,
1.883,0.30,0.55,0.11,-0.03,0.05,0.99,
1.885,0.30,0.55,0.11,-0.03,0.05,0.99,
1.888,0.30,0.55,0.11,-0.02,0.05,0.98,
1.889,0.30,0.57,0.05,-0.02,0.05,0.98,
1.89,0.30,0.57,0.05,-0.02,0.05,0.98,
1.892,0.30,0.57,0.05,-0.01,0.05,0.98,
1.893,0.35,0.57,-0.02,-0.01,0.05,0.98,
1.894,0.35,0.57,-0.02,0.00,0.05,0.98,
1.897,0.35,0.57,-0.02,0.01,0.05,0.97,
1.897,0.47,0.58,-0.07,0.01,0.05,0.97,
1.899,0.47,0.58,-0.07,0.02,0.05,0.97,
1.902,0.47,0.58,-0.07,0.03,0.05,0.97,
1.903,0.64,0.55,-0.12,0.03,0.05,0.97,
1.905,0.64,0.55,-0.12,0.04,0.04,0.97,
1.907,0.83,0.51,-0.14,0.04,0.04,0.97,
1.907,0.83,0.51,-0.14,0.05,0.04,0.97,
1.91,0.83,0.51,-0.14,0.06,0.03,0.97,
1.912,0.83,0.51,-0.14,0.07,0.03,0.97,
1.912,1.00,0.44,-0.13,0.07,0.03,0.97,
1.914,1.00,0.44,-0.13,0.07,0.02,0.98,
1.917,1.00,0.44,-0.13,0.08,0.01,0.98,
1.917,1.17,0.32,-0.13,0.08,0.01,0.98,
1.919,1.17,0.32,-0.13,0.08,0.01,0.98,
1.926,1.17,0.32,-0.13,0.08,0.00,0.98,
1.927,1.30,0.20,-0.11,0.08,0.00,0.98,
1.927,1.30,0.20,-0.11,0.08,-0.00,0.98,
1.928,1.30,0.20,-0.11,0.08,-0.01,0.98,
1.928,1.33,0.08,-0.09,0.08,-0.01,0.98,
1.929,1.33,0.08,-0.09,0.07,-0.02,0.98,
1.932,1.33,0.08,-0.09,0.07,-0.02,0.98,
1.932,1.32,-0.05,-0.05,0.07,-0.02,0.98,
1.934,1.32,-0.05,-0.05,0.06,-0.02,0.99,
1.937,1.32,-0.05,-0.05,0.06,-0.02,0.99,
1.937,1.27,-0.17,-0.04,0.06,-0.02,0.99,
1.94,1.27,-0.17,-0.04,0.05,-0.03,0.99,
1.941,1.27,-0.17,-0.04,0.05,-0.03,0.99,
1.942,1.15,-0.22,0.00,0.05,-0.03,0.99,
1.944,1.15,-0.22,0.00,0.04,-0.03,1.00,
1.946,1.15,-0.22,0.00,0.04,-0.03,1.00,
1.946,1.05,-0.26,0.06,0.04,-0.03,1.00,
1.948,1.05,-0.26,0.06,0.04,-0.03,1.00,
1.951,1.05,-0.26,0.06,0.03,-0.03,1.00,
1.951,0.97,-0.28,0.12,0.03,-0.03,1.00,
1.954,0.97,-0.28,0.12,0.03,-0.03,1.01,
1.956,0.97,-0.28,0.12,0.03,-0.02,1.01,
1.957,0.90,-0.27,0.17,0.03,-0.02,1.01,
1.958,0.90,-0.27,0.17,0.02,-0.02,1.01,
1.961,0.90,-0.27,0.17,0.02,-0.02,1.01,
1.962,0.84,-0.25,0.18,0.02,-0.02,1.01,
1.963,0.84,-0.25,0.18,0.02,-0.02,1.01,
1.966,0.84,-0.25,0.18,0.02,-0.01,1.01,
1.966,0.77,-0.20,0.22,0.02,-0.01,1.01,
1.968,0.77,-0.20,0.22,0.02,-0.01,1.02,
1.971,0.77,-0.20,0.22,0.02,-0.01,1.02,
1.971,0.73,-0.15,0.25,0.02,-0.01,1.02,
1.973,0.73,-0.15,0.25,0.02,-0.01,1.02,
1.975,0.73,-0.15,0.25,0.02,-0.01,1.02,
1.976,0.72,-0.12,0.29,0.02,-0.01,1.02,
1.978,0.72,-0.12,0.29,0.02,-0.01,1.02,
1.981,0.73,-0.09,0.31,0.02,-0.01,1.02,
1.981,0.73,-0.09,0.31,0.02,-0.01,1.02,
1.983,0.73,-0.09,0.31,0.03,-0.00,1.02,
1.986,0.76,-0.09,0.32,0.03,-0.00,1.02,
1.986,0.76,-0.09,0.32,0.03,-0.00,1.02,
1.988,0.76,-0.09,0.32,0.03,-0.00,1.02,
1.991,0.76,-0.09,0.32,0.03,-0.01,1.02,
1.991,0.82,-0.07,0.32,0.03,-0.01,1.02,
1.993,0.82,-0.07,0.32,0.04,-0.01,1.02,
1.995,0.82,-0.07,0.32,0.04,-0.01,1.02,
1.995,0.87,-0.08,0.34,0.04,-0.01,1.02,
1.997,0.87,-0.08,0.34,0.04,-0.01,1.02,
2.0,0.87,-0.08,0.34,0.04,-0.01,1.02,
2.0,0.91,-0.10,0.33,0.04,-0.01,1.02,
2.002,0.91,-0.10,0.33,0.04,-0.01,1.02,
2.009,0.94,-0.10,0.31,0.04,-0.01,1.02,
2.009,0.94,-0.10,0.31,0.04,-0.01,1.02,
2.009,0.94,-0.10,0.31,0.04,-0.00,1.02,
2.01,0.94,-0.10,0.31,0.04,-0.00,1.02,
2.01,0.96,-0.11,0.28,0.04,-0.00,1.02,
2.012,0.96,-0.11,0.28,0.04,-0.00,1.01,
2.015,0.96,-0.11,0.28,0.03,-0.00,1.01,
2.015,0.92,-0.09,0.26,0.03,-0.00,1.01,
2.017,0.92,-0.09,0.26,0.03,-0.00,1.01,
2.02,0.92,-0.09,0.26,0.02,-0.00,1.01,
2.02,0.85,-0.08,0.22,0.02,-0.00,1.01,
2.022,0.85,-0.08,0.22,0.02,-0.00,1.01,
2.025,0.85,-0.08,0.22,0.02,0.00,1.02,
2.025,0.76,-0.06,0.23,0.02,0.00,1.02,
2.027,0.76,-0.06,0.23,0.02,0.00,1.02,
2.029,0.76,-0.06,0.23,0.01,0.00,1.02,
2.03,0.71,-0.05,0.24,0.01,0.00,1.02,
2.032,0.71,-0.05,0.24,0.01,0.01,1.02,
2.034,0.71,-0.05,0.24,0.01,0.01,1.03,
2.034,0.65,-0.02,0.27,0.01,0.01,1.03,
2.037,0.65,-0.02,0.27,0.00,0.00,1.03,
2.039,0.58,0.01,0.34,0.00,0.00,1.03,
2.039,0.58,0.01,0.34,0.00,0.00,1.03,
2.042,0.58,0.01,0.34,-0.00,0.00,1.04,
2.044,0.58,0.01,0.34,-0.00,-0.00,1.05,
2.044,0.50,-0.01,0.41,-0.00,-0.00,1.05,
2.046,0.50,-0.01,0.41,-0.00,-0.01,1.05,
2.049,0.50,-0.01,0.41,-0.00,-0.01,1.05,
2.049,0.44,-0.06,0.50,-0.00,-0.01,1.05,
2.051,0.44,-0.06,0.50,-0.00,-0.01,1.06,
2.054,0.44,-0.06,0.50,0.00,-0.01,1.06,
2.054,0.41,-0.12,0.59,0.00,-0.01,1.06,
2.056,0.41,-0.12,0.59,0.00,-0.01,1.07,
2.059,0.41,-0.12,0.59,0.00,-0.01,1.07,
2.06,0.44,-0.12,0.65,0.00,-0.01,1.07,
2.061,0.44,-0.12,0.65,0.01,-0.00,1.07,
2.064,0.44,-0.12,0.65,0.01,-0.01,1.07,
2.064,0.48,-0.11,0.71,0.01,-0.01,1.07,
2.066,0.48,-0.11,0.71,0.01,-0.01,1.06,
2.069,0.48,-0.11,0.71,0.01,-0.01,1.06,
2.069,0.50,-0.11,0.70,0.01,-0.01,1.06,
2.071,0.50,-0.11,0.70,0.01,-0.01,1.06,
2.074,0.50,-0.11,0.70,0.01,-0.02,1.05,
2.074,0.49,-0.15,0.68,0.01,-0.02,1.05,
2.076,0.49,-0.15,0.68,0.01,-0.02,1.05,
2.078,0.49,-0.15,0.68,0.01,-0.01,1.04,
2.079,0.50,-0.21,0.62,0.01,-0.01,1.04,
2.081,0.50,-0.21,0.62,0.01,-0.01,1.04,
2.083,0.50,-0.21,0.62,0.01,-0.01,1.03,
2.084,0.50,-0.21,0.49,0.01,-0.01,1.03,
2.087,0.50,-0.21,0.49,0.01,-0.00,1.03,
2.088,0.50,-0.21,0.49,0.01,0.01,1.03,
2.089,0.51,-0.17,0.38,0.01,0.01,1.03,
2.091,0.51,-0.17,0.38,0.01,0.01,1.02,
2.093,0.51,-0.17,0.38,0.00,0.01,1.02,
2.094,0.50,-0.08,0.30,0.00,0.01,1.02,
2.095,0.50,-0.08,0.30,-0.00,0.01,1.01,
2.098,0.50,-0.08,0.30,-0.00,0.01,1.01,
2.098,0.44,-0.02,0.22,-0.00,0.01,1.01,
2.1,0.44,-0.02,0.22,-0.01,0.00,1.00,
2.104,0.44,-0.02,0.22,-0.02,-0.00,1.00,
2.105,0.34,-0.04,0.14,-0.02,-0.00,1.00,
2.106,0.34,-0.04,0.14,-0.02,-0.00,0.99,
2.108,0.34,-0.04,0.14,-0.02,-0.00,0.99,
2.108,0.22,-0.12,0.03,-0.02,-0.00,0.99,
2.11,0.22,-0.12,0.03,-0.02,-0.00,0.98,
2.113,0.22,-0.12,0.03,-0.02,-0.00,0.98,
2.113,0.15,-0.19,-0.07,-0.02,-0.00,0.98,
2.115,0.15,-0.19,-0.07,-0.01,-0.00,0.98,
2.118,0.15,-0.19,-0.07,-0.01,-0.00,0.98,
2.118,0.18,-0.20,-0.14,-0.01,-0.00,0.98,
2.124,0.18,-0.20,-0.14,-0.00,-0.01,0.98,
2.125,0.18,-0.20,-0.14,0.00,-0.01,0.98,
2.125,0.25,-0.20,-0.18,0.00,-0.01,0.98,
2.125,0.25,-0.20,-0.18,0.00,-0.01,0.98,
2.128,0.35,-0.25,-0.19,0.00,-0.01,0.98,
2.128,0.35,-0.25,-0.19,-0.00,-0.02,0.98,
2.13,0.35,-0.25,-0.19,-0.00,-0.03,0.98,
2.133,0.35,-0.25,-0.19,-0.01,-0.03,0.98,
2.133,0.35,-0.36,-0.19,-0.01,-0.03,0.98,
2.135,0.35,-0.36,-0.19,-0.01,-0.03,0.99,
2.138,0.35,-0.36,-0.19,-0.01,-0.03,0.99,
2.139,0.31,-0.45,-0.14,-0.01,-0.03,0.99,
2.139,0.31,-0.45,-0.14,-0.02,-0.03,1.00,
2.142,0.31,-0.45,-0.14,-0.02,-0.03,1.01,
2.142,0.24,-0.50,-0.04,-0.02,-0.03,1.01,
2.144,0.24,-0.50,-0.04,-0.02,-0.02,1.01,
2.147,0.24,-0.50,-0.04,-0.02,-0.02,1.02,
2.147,0.16,-0.49,0.08,-0.02,-0.02,1.02,
2.149,0.16,-0.49,0.08,-0.02,-0.02,1.02,
2.152,0.16,-0.49,0.08,-0.02,-0.01,1.03,
2.152,0.16,-0.42,0.18,-0.02,-0.01,1.03,
2.154,0.16,-0.42,0.18,-0.02,-0.01,1.03,
2.157,0.16,-0.42,0.18,-0.02,-0.00,1.03,
2.158,0.17,-0.36,0.28,-0.02,-0.00,1.03,
2.159,0.17,-0.36,0.28,-0.03,-0.00,1.04,
2.162,0.17,-0.36,0.28,-0.03,0.01,1.04,
2.162,0.14,-0.27,0.36,-0.03,0.01,1.04,
2.164,0.14,-0.27,0.36,-0.04,0.01,1.04,
2.166,0.14,-0.27,0.36,-0.04,0.02,1.04,
2.167,0.06,-0.19,0.42,-0.04,0.02,1.04,
2.17,0.06,-0.19,0.42,-0.05,0.02,1.04,
2.171,0.06,-0.19,0.42,-0.05,0.02,1.03,
2.171,-0.02,-0.08,0.44,-0.05,0.02,1.03,
2.174,-0.02,-0.08,0.44,-0.05,0.03,1.03,
2.177,-0.02,-0.08,0.44,-0.05,0.03,1.03,
2.177,-0.13,-0.02,0.39,-0.05,0.03,1.03,
2.179,-0.13,-0.02,0.39,-0.05,0.03,1.02,
2.181,-0.13,-0.02,0.39,-0.05,0.03,1.02,
2.181,-0.17,0.00,0.31,-0.05,0.03,1.02,
2.183,-0.17,0.00,0.31,-0.04,0.03,1.01,
2.187,-0.17,0.00,0.31,-0.04,0.03,1.01,
2.187,-0.16,0.01,0.21,-0.04,0.03,1.01,
2.188,-0.16,0.01,0.21,-0.03,0.03,1.00,
2.191,-0.16,0.01,0.21,-0.03,0.03,1.00,
2.191,-0.10,0.02,0.11,-0.03,0.03,1.00,
2.193,-0.10,0.02,0.11,-0.03,0.03,0.99,
2.196,-0.10,0.02,0.11,-0.02,0.02,0.99,
2.196,0.00,0.00,0.02,-0.02,0.02,0.99,
2.198,0.00,0.00,0.02,-0.03,0.01,0.99,
2.201,0.00,0.00,0.02,-0.02,0.00,0.98,
2.201,0.06,-0.07,-0.05,-0.02,0.00,0.98,
2.203,0.06,-0.07,-0.05,-0.02,-0.00,0.98,
2.206,0.06,-0.07,-0.05,-0.03,-0.01,0.98,
2.206,0.07,-0.22,-0.11,-0.03,-0.01,0.98,
2.208,0.07,-0.22,-0.11,-0.03,-0.02,0.98,
2.21,0.07,-0.22,-0.11,-0.03,-0.02,0.98,
2.211,0.07,-0.39,-0.13,-0.03,-0.02,0.98,
2.213,0.07,-0.39,-0.13,-0.02,-0.03,0.98,
2.215,0.07,-0.39,-0.13,-0.02,-0.03,0.98,
2.216,0.05,-0.52,-0.14,-0.02,-0.03,0.98,
2.218,0.05,-0.52,-0.14,-0.02,-0.03,0.98,
2.225,0.05,-0.52,-0.14,-0.01,-0.03,0.98,
2.226,0.12,-0.62,-0.15,-0.01,-0.03,0.98,
2.226,0.12,-0.62,-0.15,-0.01,-0.03,0.98,
2.226,0.12,-0.62,-0.15,-0.00,-0.03,0.99,
2.226,0.16,-0.67,-0.13,-0.00,-0.03,0.99,
2.227,0.16,-0.67,-0.13,0.00,-0.03,0.99,
2.23,0.26,-0.67,-0.11,0.00,-0.03,0.99,
2.23,0.26,-0.67,-0.11,0.01,-0.03,0.99,
2.232,0.26,-0.67,-0.11,0.01,-0.02,0.99,
2.235,0.26,-0.67,-0.11,0.01,-0.01,0.99,
2.235,0.37,-0.61,-0.08,0.01,-0.01,0.99,
2.237,0.37,-0.61,-0.08,0.01,-0.01,1.00,
2.24,0.37,-0.61,-0.08,0.00,-0.01,1.00,
2.24,0.38,-0.52,-0.03,0.00,-0.01,1.00,
2.242,0.38,-0.52,-0.03,-0.00,-0.00,1.00,
2.245,0.38,-0.52,-0.03,-0.01,0.00,1.00,
2.245,0.31,-0.42,-0.00,-0.01,0.00,1.00,
2.247,0.31,-0.42,-0.00,-0.01,0.01,1.00,
2.25,0.31,-0.42,-0.00,-0.01,0.01,0.99,
2.25,0.22,-0.35,0.01,-0.01,0.01,0.99,
2.253,0.22,-0.35,0.01,-0.01,0.01,0.99,
2.255,0.22,-0.35,0.01,-0.02,0.02,0.98,
2.255,0.15,-0.28,-0.03,-0.02,0.02,0.98,
2.257,0.15,-0.28,-0.03,-0.02,0.02,0.98,
2.26,0.15,-0.28,-0.03,-0.01,0.03,0.97,
2.26,0.10,-0.23,-0.13,-0.01,0.03,0.97,
2.262,0.10,-0.23,-0.13,-0.01,0.03,0.97,
2.265,0.10,-0.23,-0.13,-0.01,0.03,0.97,
2.265,0.10,-0.13,-0.22,-0.01,0.03,0.97,
2.267,0.10,-0.13,-0.22,-0.01,0.04,0.96,
2.269,0.10,-0.13,-0.22,-0.01,0.04,0.96,
2.272,0.13,-0.06,-0.27,-0.01,0.04,0.96,
2.272,0.13,-0.06,-0.27,-0.01,0.03,0.96,
2.274,0.13,-0.06,-0.27,-0.01,0.03,0.95,
2.275,0.16,-0.03,-0.33,-0.01,0.03,0.95,
2.276,0.16,-0.03,-0.33,-0.01,0.02,0.95,
2.279,0.16,-0.03,-0.33,-0.01,0.01,0.95,
2.279,0.15,-0.10,-0.38,-0.01,0.01,0.95,
2.282,0.15,-0.10,-0.38,-0.01,0.01,0.95,
2.284,0.13,-0.22,-0.41,-0.01,0.01,0.95,
2.284,0.13,-0.22,-0.41,-0.01,0.00,0.96,
2.287,0.13,-0.22,-0.41,-0.01,-0.00,0.96,
2.289,0.13,-0.22,-0.41,-0.00,-0.01,0.96,
2.29,0.13,-0.36,-0.38,-0.00,-0.01,0.96,
2.291,0.13,-0.36,-0.38,-0.00,-0.02,0.97,
2.294,0.13,-0.36,-0.38,0.00,-0.03,0.97,
2.294,0.16,-0.49,-0.32,0.00,-0.03,0.97,
2.296,0.16,-0.49,-0.32,0.01,-0.04,0.97,
2.299,0.19,-0.67,-0.25,0.01,-0.04,0.97,
2.299,0.19,-0.67,-0.25,0.01,-0.04,0.98,
2.301,0.19,-0.67,-0.25,0.02,-0.04,0.98,
2.308,0.19,-0.67,-0.25,0.03,-0.05,0.99,
2.309,0.30,-0.78,-0.17,0.03,-0.05,0.99,
2.309,0.30,-0.78,-0.17,0.03,-0.05,1.00,
2.31,0.30,-0.78,-0.17,0.04,-0.05,1.00,
2.31,0.44,-0.84,-0.07,0.04,-0.05,1.00,
2.311,0.44,-0.84,-0.07,0.05,-0.05,1.01,
2.313,0.44,-0.84,-0.07,0.05,-0.05,1.02,
2.314,0.56,-0.87,0.06,0.05,-0.05,1.02,
2.316,0.56,-0.87,0.06,0.06,-0.04,1.02,
2.318,0.56,-0.87,0.06,0.06,-0.04,1.03,
2.318,0.69,-0.84,0.19,0.06,-0.04,1.03,
2.321,0.69,-0.84,0.19,0.06,-0.04,1.04,
2.323,0.69,-0.84,0.19,0.06,-0.03,1.04,
2.323,0.78,-0.80,0.32,0.06,-0.03,1.04,
2.325,0.78,-0.80,0.32,0.05,-0.02,1.04,
2.328,0.78,-0.80,0.32,0.05,-0.02,1.04,
2.328,0.75,-0.71,0.42,0.05,-0.02,1.04,
2.33,0.75,-0.71,0.42,0.04,-0.01,1.05,
2.333,0.75,-0.71,0.42,0.04,-0.01,1.05,
2.333,0.70,-0.59,0.47,0.04,-0.01,1.05,
2.336,0.70,-0.59,0.47,0.03,0.00,1.05,
2.338,0.70,-0.59,0.47,0.03,0.01,1.05,
2.338,0.60,-0.48,0.51,0.03,0.01,1.05,
2.34,0.60,-0.48,0.51,0.02,0.01,1.04,
2.343,0.60,-0.48,0.51,0.01,0.02,1.04,
2.343,0.48,-0.34,0.52,0.01,0.02,1.04,
2.345,0.48,-0.34,0.52,0.01,0.03,1.03,
2.348,0.48,-0.34,0.52,0.00,0.03,1.03,
2.348,0.35,-0.24,0.44,0.00,0.03,1.03,
2.35,0.35,-0.24,0.44,-0.00,0.04,1.02,
2.352,0.35,-0.24,0.44,-0.01,0.04,1.01,
2.353,0.22,-0.13,0.34,-0.01,0.04,1.01,
2.355,0.22,-0.13,0.34,-0.02,0.04,1.00,
2.358,0.22,-0.13,0.34,-0.03,0.04,1.00,
2.358,0.08,-0.06,0.19,-0.03,0.04,1.00,
2.36,0.08,-0.06,0.19,-0.03,0.05,0.99,
2.362,0.08,-0.06,0.19,-0.04,0.05,0.98,
2.363,-0.07,-0.03,0.04,-0.04,0.05,0.98,
2.365,-0.07,-0.03,0.04,-0.04,0.04,0.98,
2.368,-0.07,-0.03,0.04,-0.04,0.04,0.97,
2.368,-0.19,-0.03,-0.08,-0.04,0.04,0.97,
2.37,-0.19,-0.03,-0.08,-0.04,0.04,0.97,
2.372,-0.19,-0.03,-0.08,-0.03,0.04,0.97,
2.373,-0.23,-0.07,-0.20,-0.03,0.04,0.97,
2.374,-0.23,-0.07,-0.20,-0.03,0.04,0.96,
2.377,-0.23,-0.07,-0.20,-0.02,0.04,0.96,
2.377,-0.21,-0.07,-0.27,-0.02,0.04,0.96,
2.379,-0.21,-0.07,-0.27,-0.02,0.04,0.96,
2.382,-0.21,-0.07,-0.27,-0.01,0.03,0.96,
2.382,-0.12,-0.11,-0.31,-0.01,0.03,0.96,
2.384,-0.12,-0.11,-0.31,-0.01,0.03,0.96,
2.387,-0.12,-0.11,-0.31,-0.00,0.02,0.96,
2.387,-0.02,-0.17,-0.32,-0.00,0.02,0.96,
2.389,-0.02,-0.17,-0.32,0.01,0.02,0.96,
2.392,-0.02,-0.17,-0.32,0.01,0.01,0.96,
2.392,0.06,-0.27,-0.33,0.01,0.01,0.96,
2.394,0.06,-0.27,-0.33,0.02,0.00,0.96,
2.397,0.19,-0.39,-0.33,0.02,0.00,0.96,
2.397,0.19,-0.39,-0.33,0.03,-0.00,0.96,
2.399,0.19,-0.39,-0.33,0.03,-0.00,0.96,
2.408,0.19,-0.39,-0.33,0.04,-0.01,0.97,
2.408,0.32,-0.50,-0.30,0.04,-0.01,0.97,
2.409,0.32,-0.50,-0.30,0.05,-0.01,0.97,
2.409,0.32,-0.50,-0.30,0.05,-0.01,0.97,
2.409,0.45,-0.57,-0.28,0.05,-0.01,0.97,
2.409,0.45,-0.57,-0.28,0.06,-0.02,0.97,
2.411,0.45,-0.57,-0.28,0.06,-0.02,0.97,
2.412,0.56,-0.62,-0.23,0.06,-0.02,0.97,
2.414,0.56,-0.62,-0.23,0.06,-0.03,0.97,
2.416,0.56,-0.62,-0.23,0.06,-0.03,0.97,
2.416,0.63,-0.70,-0.23,0.06,-0.03,0.97,
2.421,0.63,-0.70,-0.23,0.06,-0.03,0.97,
2.421,0.63,-0.70,-0.23,0.06,-0.03,0.97,
2.421,0.62,-0.77,-0.21,0.06,-0.03,0.97,
2.423,0.62,-0.77,-0.21,0.05,-0.02,0.98,
2.426,0.62,-0.77,-0.21,0.05,-0.02,0.98,
2.426,0.60,-0.76,-0.20,0.05,-0.02,0.98,
2.428,0.60,-0.76,-0.20,0.05,-0.01,0.98,
2.431,0.60,-0.76,-0.20,0.04,-0.01,0.98,
2.431,0.52,-0.70,-0.16,0.04,-0.01,0.98,
2.433,0.52,-0.70,-0.16,0.03,-0.01,0.98,
2.436,0.52,-0.70,-0.16,0.03,-0.00,0.98,
2.436,0.42,-0.61,-0.13,0.03,-0.00,0.98,
2.438,0.42,-0.61,-0.13,0.02,0.01,0.98,
2.441,0.42,-0.61,-0.13,0.01,0.01,0.98,
2.441,0.27,-0.53,-0.10,0.01,0.01,0.98,
2.443,0.27,-0.53,-0.10,0.01,0.02,0.98,
2.445,0.27,-0.53,-0.10,-0.00,0.02,0.98,
2.446,0.14,-0.41,-0.08,-0.00,0.02,0.98,
2.448,0.14,-0.41,-0.08,-0.01,0.03,0.98,
2.45,0.14,-0.41,-0.08,-0.02,0.03,0.98,
2.45,-0.00,-0.32,-0.10,-0.02,0.03,0.98,
2.453,-0.00,-0.32,-0.10,-0.03,0.03,0.98,
2.456,-0.00,-0.32,-0.10,-0.04,0.03,0.97,
2.456,-0.16,-0.26,-0.12,-0.04,0.03,0.97,
2.458,-0.16,-0.26,-0.12,-0.04,0.03,0.97,
2.46,-0.16,-0.26,-0.12,-0.03,0.03,0.97,
2.46,-0.31,-0.26,-0.17,-0.03,0.03,0.97,
2.462,-0.31,-0.26,-0.17,-0.03,0.03,0.96,
2.465,-0.31,-0.26,-0.17,-0.03,0.03,0.96,
2.466,-0.35,-0.27,-0.21,-0.03,0.03,0.96,
2.468,-0.35,-0.27,-0.21,-0.02,0.02,0.95,
2.47,-0.35,-0.27,-0.21,-0.02,0.02,0.95,
2.471,-0.29,-0.30,-0.29,-0.02,0.02,0.95,
2.473,-0.29,-0.30,-0.29,-0.01,0.02,0.95,
2.475,-0.29,-0.30,-0.29,-0.00,0.01,0.94,
2.475,-0.20,-0.35,-0.37,-0.00,0.01,0.94,
2.477,-0.20,-0.35,-0.37,0.00,0.01,0.94,
2.48,-0.20,-0.35,-0.37,0.01,0.00,0.94,
2.48,-0.07,-0.41,-0.45,0.01,0.00,0.94,
2.482,-0.07,-0.41,-0.45,0.02,-0.00,0.93,
2.486,-0.07,-0.41,-0.45,0.02,-0.01,0.93,
2.487,0.06,-0.53,-0.51,0.02,-0.01,0.93,
2.487,0.06,-0.53,-0.51,0.02,-0.01,0.92,
2.49,0.06,-0.53,-0.51,0.03,-0.02,0.92,
2.49,0.18,-0.64,-0.59,0.03,-0.02,0.92,
2.492,0.18,-0.64,-0.59,0.03,-0.02,0.92,
2.494,0.18,-0.64,-0.59,0.03,-0.02,0.92,
2.495,0.26,-0.73,-0.64,0.03,-0.02,0.92,
2.497,0.26,-0.73,-0.64,0.04,-0.02,0.92,
2.499,0.26,-0.73,-0.64,0.04,-0.02,0.92,
2.5,0.33,-0.77,-0.68,0.04,-0.02,0.92,
2.502,0.33,-0.77,-0.68,0.04,-0.02,0.92,
2.505,0.33,-0.77,-0.68,0.03,-0.02,0.92,
2.505,0.37,-0.78,-0.69,0.03,-0.02,0.92,
2.507,0.37,-0.78,-0.69,0.03,-0.02,0.92,
2.509,0.37,-0.78,-0.69,0.02,-0.02,0.93,
2.51,0.35,-0.79,-0.68,0.02,-0.02,0.93,
2.511,0.35,-0.79,-0.68,0.01,-0.02,0.93,
2.514,0.35,-0.79,-0.68,0.01,-0.02,0.93,
2.514,0.23,-0.80,-0.62,0.01,-0.02,0.93,
2.516,0.23,-0.80,-0.62,0.00,-0.02,0.94,
2.524,0.10,-0.78,-0.55,0.00,-0.02,0.94,
2.525,0.10,-0.78,-0.55,-0.00,-0.01,0.94,
2.525,0.10,-0.78,-0.55,-0.01,-0.00,0.94,
2.526,0.01,-0.72,-0.48,-0.01,-0.00,0.94,
2.526,0.01,-0.72,-0.48,-0.01,0.00,0.95,
2.526,0.01,-0.72,-0.48,-0.02,0.01,0.95,
2.529,-0.09,-0.59,-0.40,-0.02,0.01,0.95,
2.529,-0.09,-0.59,-0.40,-0.02,0.01,0.95,
2.531,-0.09,-0.59,-0.40,-0.03,0.01,0.95,
2.534,-0.09,-0.59,-0.40,-0.03,0.01,0.96,
2.534,-0.17,-0.50,-0.33,-0.03,0.01,0.96,
2.54,-0.17,-0.50,-0.33,-0.04,0.01,0.96,
2.54,-0.17,-0.50,-0.33,-0.04,0.01,0.96,
2.54,-0.27,-0.46,-0.30,-0.04,0.01,0.96,
2.541,-0.27,-0.46,-0.30,-0.04,0.01,0.96,
2.543,-0.27,-0.46,-0.30,-0.04,0.01,0.96,
2.543,-0.37,-0.47,-0.27,-0.04,0.01,0.96,
2.546,-0.37,-0.47,-0.27,-0.04,0.01,0.96,
2.548,-0.37,-0.47,-0.27,-0.03,0.01,0.95,
2.548,-0.39,-0.49,-0.28,-0.03,0.01,0.95,
2.551,-0.39,-0.49,-0.28,-0.03,0.01,0.95,
2.553,-0.39,-0.49,-0.28,-0.02,0.01,0.95,
2.553,-0.32,-0.49,-0.28,-0.02,0.01,0.95,
2.556,-0.32,-0.49,-0.28,-0.02,0.01,0.95,
2.558,-0.32,-0.49,-0.28,-0.01,0.01,0.95,
2.558,-0.20,-0.51,-0.32,-0.01,0.01,0.95,
2.56,-0.20,-0.51,-0.32,-0.01,0.00,0.95,
2.563,-0.20,-0.51,-0.32,-0.00,0.01,0.95,
2.563,-0.08,-0.51,-0.35,-0.00,0.01,0.95,
2.565,-0.08,-0.51,-0.35,0.00,0.00,0.94,
2.568,-0.08,-0.51,-0.35,0.01,0.00,0.94,
2.569,0.01,-0.52,-0.36,0.01,0.00,0.94,
2.57,0.01,-0.52,-0.36,0.01,-0.00,0.94,
2.573,0.01,-0.52,-0.36,0.01,-0.00,0.94,
2.573,0.10,-0.55,-0.39,0.01,-0.00,0.94,
2.575,0.10,-0.55,-0.39,0.01,-0.00,0.94,
2.578,0.10,-0.55,-0.39,0.01,-0.00,0.94,
2.578,0.14,-0.59,-0.40,0.01,-0.00,0.94,
2.58,0.14,-0.59,-0.40,0.01,-0.00,0.94,
2.583,0.14,-0.59,-0.40,0.00,-0.00,0.94,
2.583,0.14,-0.58,-0.42,0.00,-0.00,0.94,
2.585,0.14,-0.58,-0.42,-0.00,0.00,0.94,
2.588,0.14,-0.58,-0.42,-0.01,0.00,0.94,
2.588,0.09,-0.58,-0.44,-0.01,0.00,0.94,
2.59,0.09,-0.58,-0.44,-0.02,0.01,0.94,
2.593,0.09,-0.58,-0.44,-0.03,0.01,0.93,
2.593,-0.02,-0.54,-0.43,-0.03,0.01,0.93,
2.595,-0.02,-0.54,-0.43,-0.03,0.01,0.94,
2.597,-0.02,-0.54,-0.43,-0.04,0.02,0.94,
2.598,-0.16,-0.48,-0.44,-0.04,0.02,0.94,
2.6,-0.16,-0.48,-0.44,-0.05,0.02,0.94,
2.603,-0.16,-0.48,-0.44,-0.06,0.02,0.94,
2.603,-0.31,-0.43,-0.44,-0.06,0.02,0.94,
2.605,-0.31,-0.43,-0.44,-0.06,0.03,0.94,
2.607,-0.31,-0.43,-0.44,-0.06,0.03,0.94,
2.608,-0.46,-0.37,-0.42,-0.06,0.03,0.94,
2.609,-0.46,-0.37,-0.42,-0.06,0.04,0.94,
2.612,-0.46,-0.37,-0.42,-0.06,0.04,0.94,
2.612,-0.53,-0.28,-0.43,-0.06,0.04,0.94,
2.614,-0.53,-0.28,-0.43,-0.06,0.05,0.94,
2.617,-0.53,-0.17,-0.41,-0.06,0.05,0.94,
2.617,-0.53,-0.17,-0.41,-0.07,0.05,0.94,
2.624,-0.53,-0.17,-0.41,-0.06,0.06,0.95,
2.625,-0.53,-0.17,-0.41,-0.06,0.06,0.95,
2.625,-0.53,-0.07,-0.35,-0.06,0.06,0.95,
2.626,-0.53,-0.07,-0.35,-0.06,0.06,0.96,
2.627,-0.53,-0.07,-0.35,-0.06,0.06,0.96,
2.627,-0.50,-0.02,-0.26,-0.06,0.06,0.96,
2.629,-0.50,-0.02,-0.26,-0.06,0.06,0.96,
2.632,-0.50,-0.02,-0.26,-0.06,0.05,0.97,
2.632,-0.49,-0.02,-0.18,-0.06,0.05,0.97,
2.637,-0.49,-0.02,-0.18,-0.05,0.05,0.97,
2.638,-0.49,-0.02,-0.18,-0.05,0.05,0.97,
2.638,-0.44,-0.03,-0.11,-0.05,0.05,0.97,
2.639,-0.44,-0.03,-0.11,-0.04,0.04,0.98,
2.642,-0.33,-0.09,-0.05,-0.04,0.04,0.98,
2.642,-0.33,-0.09,-0.05,-0.04,0.04,0.98,
2.644,-0.33,-0.09,-0.05,-0.04,0.04,0.98,
2.646,-0.33,-0.09,-0.05,-0.03,0.03,0.98,
2.646,-0.26,-0.16,-0.01,-0.03,0.03,0.98,
2.649,-0.26,-0.16,-0.01,-0.03,0.03,0.98,
2.651,-0.26,-0.16,-0.01,-0.02,0.02,0.98,
2.652,-0.17,-0.24,0.03,-0.02,0.02,0.98,
2.654,-0.17,-0.24,0.03,-0.03,0.02,0.98,
2.656,-0.17,-0.24,0.03,-0.02,0.01,0.98,
2.657,-0.09,-0.35,0.04,-0.02,0.01,0.98,
2.659,-0.09,-0.35,0.04,-0.02,0.01,0.98,
2.661,-0.09,-0.35,0.04,-0.02,0.00,0.97,
2.661,-0.07,-0.43,0.02,-0.02,0.00,0.97,
2.663,-0.07,-0.43,0.02,-0.02,-0.00,0.97,
2.666,-0.07,-0.43,0.02,-0.03,-0.00,0.96,
2.666,-0.04,-0.54,-0.03,-0.03,-0.00,0.96,
2.668,-0.04,-0.54,-0.03,-0.03,-0.01,0.96,
2.671,-0.04,-0.54,-0.03,-0.03,-0.01,0.96,
2.671,-0.06,-0.62,-0.12,-0.03,-0.01,0.96,
2.674,-0.06,-0.62,-0.12,-0.03,-0.01,0.95,
2.676,-0.06,-0.62,-0.12,-0.04,-0.00,0.95,
2.676,-0.12,-0.64,-0.17,-0.04,-0.00,0.95,
2.678,-0.12,-0.64,-0.17,-0.04,0.00,0.95,
2.681,-0.12,-0.64,-0.17,-0.04,0.01,0.95,
2.681,-0.17,-0.62,-0.24,-0.04,0.01,0.95,
2.683,-0.17,-0.62,-0.24,-0.04,0.01,0.94,
2.686,-0.22,-0.53,-0.30,-0.04,0.01,0.94,
2.686,-0.22,-0.53,-0.30,-0.05,0.02,0.94,
2.688,-0.22,-0.53,-0.30,-0.05,0.03,0.94,
2.69,-0.28,-0.43,-0.34,-0.05,0.03,0.94,
2.691,-0.28,-0.43,-0.34,-0.06,0.03,0.94,
2.693,-0.28,-0.43,-0.34,-0.06,0.04,0.94,
2.695,-0.28,-0.43,-0.34,-0.07,0.05,0.94,
2.696,-0.36,-0.29,-0.35,-0.07,0.05,0.94,
2.698,-0.36,-0.29,-0.35,-0.07,0.05,0.94,
2.7,-0.36,-0.29,-0.35,-0.07,0.06,0.94,
2.701,-0.47,-0.15,-0.38,-0.07,0.06,0.94,
2.707,-0.47,-0.15,-0.38,-0.07,0.06,0.93,
2.707,-0.47,-0.15,-0.38,-0.07,0.06,0.93,
2.707,-0.55,-0.03,-0.39,-0.07,0.06,0.93,
2.708,-0.55,-0.03,-0.39,-0.07,0.07,0.93,
2.71,-0.55,-0.03,-0.39,-0.07,0.07,0.93,
2.71,-0.57,0.04,-0.40,-0.07,0.07,0.93,
2.712,-0.57,0.04,-0.40,-0.07,0.07,0.94,
2.715,-0.57,0.04,-0.40,-0.07,0.07,0.94,
2.715,-0.56,0.10,-0.41,-0.07,0.07,0.94,
2.718,-0.56,0.10,-0.41,-0.06,0.06,0.94,
2.72,-0.56,0.10,-0.41,-0.06,0.06,0.94,
2.72,-0.54,0.11,-0.38,-0.06,0.06,0.94,
2.722,-0.54,0.11,-0.38,-0.05,0.05,0.94,
2.725,-0.54,0.11,-0.38,-0.05,0.05,0.94,
2.725,-0.48,0.05,-0.36,-0.05,0.05,0.94,
2.727,-0.48,0.05,-0.36,-0.05,0.04,0.95,
2.729,-0.48,0.05,-0.36,-0.04,0.04,0.95,
2.73,-0.38,-0.03,-0.31,-0.04,0.04,0.95,
2.732,-0.38,-0.03,-0.31,-0.04,0.03,0.95,
2.734,-0.38,-0.03,-0.31,-0.03,0.02,0.96,
2.735,-0.29,-0.15,-0.26,-0.03,0.02,0.96,
2.737,-0.29,-0.15,-0.26,-0.03,0.02,0.96,
2.739,-0.29,-0.15,-0.26,-0.03,0.01,0.97,
2.74,-0.20,-0.26,-0.19,-0.03,0.01,0.97,
2.742,-0.20,-0.26,-0.19,-0.03,0.01,0.97,
2.744,-0.20,-0.26,-0.19,-0.02,0.01,0.98,
2.745,-0.14,-0.34,-0.10,-0.02,0.01,0.98,
2.746,-0.14,-0.34,-0.10,-0.03,0.01,0.99,
2.749,-0.14,-0.34,-0.10,-0.02,0.01,0.99,
2.749,-0.10,-0.42,0.04,-0.02,0.01,0.99,
2.752,-0.10,-0.42,0.04,-0.02,0.01,1.00,
2.754,-0.10,-0.42,0.04,-0.03,0.01,1.00,
2.754,-0.08,-0.45,0.15,-0.03,0.01,1.00,
2.756,-0.08,-0.45,0.15,-0.03,0.01,1.01,
2.759,-0.08,-0.45,0.15,-0.04,0.01,1.01,
2.76,-0.08,-0.42,0.25,-0.04,0.01,1.01,
2.762,-0.08,-0.42,0.25,-0.04,0.01,1.01,
2.764,-0.08,-0.42,0.25,-0.05,0.02,1.01,
2.764,-0.16,-0.39,0.34,-0.05,0.02,1.01,
2.766,-0.16,-0.39,0.34,-0.05,0.02,1.01,
2.769,-0.16,-0.39,0.34,-0.06,0.02,1.00,
2.769,-0.26,-0.37,0.34,-0.06,0.02,1.00,
2.771,-0.26,-0.37,0.34,-0.06,0.02,1.00,
2.774,-0.26,-0.37,0.34,-0.06,0.03,0.99,
2.774,-0.35,-0.34,0.31,-0.06,0.03,0.99,
2.776,-0.35,-0.34,0.31,-0.06,0.03,0.98,
2.779,-0.35,-0.34,0.31,-0.06,0.03,0.97,
2.779,-0.40,-0.29,0.17,-0.06,0.03,0.97,
2.781,-0.40,-0.29,0.17,-0.06,0.03,0.96,
2.784,-0.40,-0.29,0.17,-0.06,0.04,0.95,
2.784,-0.43,-0.23,-0.01,-0.06,0.04,0.95,
2.786,-0.43,-0.23,-0.01,-0.07,0.04,0.94,
2.789,-0.45,-0.19,-0.22,-0.07,0.04,0.94,
2.789,-0.45,-0.19,-0.22,-0.07,0.04,0.92,
2.791,-0.45,-0.19,-0.22,-0.07,0.04,0.92,
2.793,-0.45,-0.19,-0.22,-0.07,0.04,0.91,
2.794,-0.52,-0.17,-0.44,-0.07,0.04,0.91,
2.796,-0.52,-0.17,-0.44,-0.07,0.04,0.90,
2.798,-0.52,-0.17,-0.44,-0.07,0.04,0.89,
2.798,-0.58,-0.17,-0.62,-0.07,0.04,0.89,
2.807,-0.58,-0.17,-0.62,-0.07,0.04,0.88,
2.807,-0.58,-0.17,-0.62,-0.07,0.05,0.88,
2.807,-0.57,-0.14,-0.79,-0.07,0.05,0.88,
2.808,-0.57,-0.14,-0.79,-0.07,0.04,0.88,
2.808,-0.57,-0.14,-0.79,-0.07,0.04,0.88,
2.808,-0.53,-0.10,-0.88,-0.07,0.04,0.88,
2.81,-0.53,-0.10,-0.88,-0.07,0.04,0.88,
2.813,-0.53,-0.10,-0.88,-0.07,0.04,0.88,
2.813,-0.52,-0.10,-0.90,-0.07,0.04,0.88,
2.815,-0.52,-0.10,-0.90,-0.07,0.04,0.89,
2.818,-0.52,-0.10,-0.90,-0.07,0.04,0.90,
2.818,-0.50,-0.12,-0.87,-0.07,0.04,0.90,
2.82,-0.50,-0.12,-0.87,-0.08,0.03,0.91,
2.823,-0.50,-0.12,-0.87,-0.07,0.03,0.91,
2.823,-0.56,-0.15,-0.77,-0.07,0.03,0.91,
2.825,-0.56,-0.15,-0.77,-0.07,0.03,0.92,
2.827,-0.56,-0.15,-0.77,-0.07,0.03,0.93,
2.828,-0.59,-0.18,-0.60,-0.07,0.03,0.93,
2.83,-0.59,-0.18,-0.60,-0.07,0.03,0.94,
2.833,-0.59,-0.18,-0.60,-0.06,0.03,0.95,
2.833,-0.54,-0.19,-0.45,-0.06,0.03,0.95,
2.835,-0.54,-0.19,-0.45,-0.06,0.03,0.95,
2.838,-0.54,-0.19,-0.45,-0.06,0.04,0.96,
2.838,-0.48,-0.16,-0.27,-0.06,0.04,0.96,
2.84,-0.48,-0.16,-0.27,-0.06,0.03,0.97,
2.842,-0.48,-0.16,-0.27,-0.06,0.03,0.97,
2.842,-0.44,-0.13,-0.13,-0.06,0.03,0.97,
2.844,-0.44,-0.13,-0.13,-0.06,0.03,0.97,
2.847,-0.44,-0.13,-0.13,-0.06,0.03,0.98,
2.847,-0.43,-0.13,-0.01,-0.06,0.03,0.98,
2.849,-0.43,-0.13,-0.01,-0.06,0.03,0.98,
2.852,-0.43,-0.13,-0.01,-0.06,0.03,0.97,
2.852,-0.42,-0.15,0.06,-0.06,0.03,0.97,
2.854,-0.42,-0.15,0.06,-0.06,0.03,0.97,
2.857,-0.42,-0.15,0.06,-0.06,0.03,0.97,
2.857,-0.43,-0.18,0.04,-0.06,0.03,0.97,
2.859,-0.43,-0.18,0.04,-0.06,0.03,0.97,
2.862,-0.41,-0.18,0.02,-0.06,0.03,0.97,
2.862,-0.41,-0.18,0.02,-0.06,0.03,0.96,
2.864,-0.41,-0.18,0.02,-0.06,0.03,0.96,
2.868,-0.41,-0.18,0.02,-0.05,0.03,0.95,
2.869,-0.42,-0.18,-0.04,-0.05,0.03,0.95,
2.869,-0.42,-0.18,-0.04,-0.05,0.03,0.95,
2.872,-0.38,-0.18,-0.14,-0.05,0.03,0.95,
2.873,-0.38,-0.18,-0.14,-0.05,0.03,0.94,
2.874,-0.38,-0.18,-0.14,-0.05,0.03,0.94,
2.877,-0.38,-0.18,-0.14,-0.05,0.03,0.93,
2.877,-0.34,-0.17,-0.24,-0.05,0.03,0.93,
2.879,-0.34,-0.17,-0.24,-0.05,0.03,0.93,
2.882,-0.34,-0.17,-0.24,-0.05,0.03,0.92,
2.882,-0.33,-0.15,-0.34,-0.05,0.03,0.92,
2.885,-0.33,-0.15,-0.34,-0.05,0.03,0.92,
2.887,-0.33,-0.15,-0.34,-0.05,0.02,0.92,
2.887,-0.35,-0.16,-0.43,-0.05,0.02,0.92,
2.889,-0.35,-0.16,-0.43,-0.05,0.02,0.92,
2.892,-0.35,-0.16,-0.43,-0.05,0.03,0.92,
2.892,-0.36,-0.17,-0.46,-0.05,0.03,0.92,
2.893,-0.36,-0.17,-0.46,-0.05,0.03,0.93,
2.896,-0.36,-0.17,-0.46,-0.06,0.03,0.93,
2.896,-0.36,-0.16,-0.44,-0.06,0.03,0.93,
2.899,-0.36,-0.16,-0.44,-0.06,0.03,0.94,
2.901,-0.36,-0.16,-0.44,-0.07,0.03,0.94,
2.902,-0.38,-0.15,-0.37,-0.07,0.03,0.94,
2.904,-0.38,-0.15,-0.37,-0.07,0.03,0.95,
2.906,-0.38,-0.15,-0.37,-0.08,0.03,0.96,
2.906,-0.46,-0.11,-0.28,-0.08,0.03,0.96,
2.908,-0.46,-0.11,-0.28,-0.09,0.04,0.97,
2.911,-0.46,-0.11,-0.28,-0.09,0.04,0.97,
2.911,-0.57,-0.08,-0.14,-0.09,0.04,0.97,
2.913,-0.57,-0.08,-0.14,-0.10,0.04,0.98,
2.916,-0.57,-0.08,-0.14,-0.10,0.04,0.98,
2.917,-0.68,-0.01,0.03,-0.10,0.04,0.98,
2.924,-0.68,-0.01,0.03,-0.10,0.05,0.98,
2.924,-0.68,-0.01,0.03,-0.11,0.05,0.99,
2.925,-0.78,0.06,0.12,-0.11,0.05,0.99,
2.927,-0.78,0.06,0.12,-0.11,0.05,0.99,
2.927,-0.78,0.06,0.12,-0.11,0.06,0.99,
2.928,-0.82,0.13,0.18,-0.11,0.06,0.99,
2.928,-0.82,0.13,0.18,-0.11,0.06,0.99,
2.93,-0.82,0.13,0.18,-0.11,0.06,0.99,
2.931,-0.87,0.18,0.22,-0.11,0.06,0.99,
2.933,-0.87,0.18,0.22,-0.11,0.06,0.99,
2.937,-0.87,0.18,0.22,-0.11,0.06,0.99,
2.938,-0.85,0.22,0.21,-0.11,0.06,0.99,
2.938,-0.85,0.22,0.21,-0.11,0.06,0.98,
2.94,-0.85,0.22,0.21,-0.11,0.06,0.98,
2.94,-0.84,0.23,0.18,-0.11,0.06,0.98,
2.942,-0.84,0.23,0.18,-0.10,0.05,0.98,
2.945,-0.84,0.23,0.18,-0.10,0.05,0.97,
2.945,-0.80,0.20,0.12,-0.10,0.05,0.97,
2.947,-0.80,0.20,0.12,-0.10,0.05,0.97,
2.951,-0.80,0.20,0.12,-0.10,0.04,0.97,
2.951,-0.75,0.15,0.05,-0.10,0.04,0.97,
2.953,-0.75,0.15,0.05,-0.09,0.04,0.96,
2.955,-0.75,0.15,0.05,-0.09,0.03,0.96,
2.955,-0.71,0.07,-0.02,-0.09,0.03,0.96,
2.957,-0.71,0.07,-0.02,-0.08,0.03,0.96,
2.96,-0.71,0.07,-0.02,-0.08,0.02,0.96,
2.96,-0.63,-0.03,-0.08,-0.08,0.02,0.96,
2.962,-0.63,-0.03,-0.08,-0.08,0.02,0.96,
2.964,-0.63,-0.03,-0.08,-0.07,0.01,0.96,
2.965,-0.53,-0.11,-0.10,-0.07,0.01,0.96,
2.967,-0.53,-0.11,-0.10,-0.07,0.01,0.96,
2.97,-0.53,-0.11,-0.10,-0.07,0.01,0.96,
2.97,-0.45,-0.18,-0.10,-0.07,0.01,0.96,
2.972,-0.45,-0.18,-0.10,-0.07,0.01,0.97,
2.974,-0.45,-0.18,-0.10,-0.07,0.01,0.97,
2.975,-0.39,-0.22,-0.06,-0.07,0.01,0.97,
2.977,-0.39,-0.22,-0.06,-0.06,0.01,0.98,
2.979,-0.39,-0.22,-0.06,-0.06,0.01,0.98,
2.98,-0.36,-0.23,0.03,-0.06,0.01,0.98,
2.982,-0.36,-0.23,0.03,-0.06,0.02,0.99,
2.985,-0.36,-0.23,0.03,-0.07,0.02,0.99,
2.985,-0.33,-0.21,0.13,-0.07,0.02,0.99,
2.987,-0.33,-0.21,0.13,-0.06,0.02,0.99,
2.989,-0.33,-0.21,0.13,-0.07,0.03,1.00,
2.99,-0.33,-0.15,0.20,-0.07,0.03,1.00,
2.991,-0.33,-0.15,0.20,-0.07,0.03,1.00,
2.994,-0.33,-0.15,0.20,-0.07,0.03,1.00,
2.995,-0.35,-0.09,0.25,-0.07,0.03,1.00,
2.997,-0.35,-0.09,0.25,-0.08,0.03,1.00,
2.999,-0.35,-0.09,0.25,-0.08,0.04,1.00,
3.006,-0.41,-0.02,0.28,-0.08,0.04,1.00,
3.006,-0.41,-0.02,0.28,-0.08,0.04,1.00,
3.006,-0.41,-0.02,0.28,-0.08,0.04,1.00,
3.007,-0.44,0.04,0.29,-0.08,0.04,1.00,
3.007,-0.44,0.04,0.29,-0.09,0.05,0.99,
3.009,-0.44,0.04,0.29,-0.09,0.05,0.99,
3.009,-0.49,0.10,0.27,-0.09,0.05,0.99,
3.011,-0.49,0.10,0.27,-0.09,0.05,0.99,
3.014,-0.49,0.10,0.27,-0.09,0.06,0.99,
3.014,-0.54,0.16,0.23,-0.09,0.06,0.99,
3.016,-0.54,0.16,0.23,-0.09,0.06,0.98,
3.019,-0.54,0.16,0.23,-0.09,0.06,0.98,
3.019,-0.54,0.22,0.18,-0.09,0.06,0.98,
3.021,-0.54,0.22,0.18,-0.08,0.06,0.98,
3.023,-0.54,0.22,0.18,-0.09,0.06,0.98,
3.024,-0.53,0.28,0.11,-0.09,0.06,0.98,
3.026,-0.53,0.28,0.11,-0.09,0.06,0.98,
3.028,-0.53,0.28,0.11,-0.09,0.06,0.98,
3.028,-0.51,0.28,0.06,-0.09,0.06,0.98,
3.031,-0.51,0.28,0.06,-0.09,0.05,0.98,
3.033,-0.51,0.28,0.06,-0.09,0.05,0.98,
3.034,-0.53,0.26,0.05,-0.09,0.05,0.98,
3.036,-0.53,0.26,0.05,-0.09,0.04,0.98,
3.038,-0.53,0.26,0.05,-0.09,0.04,0.98,
3.038,-0.55,0.21,0.07,-0.09,0.04,0.98,
3.04,-0.55,0.21,0.07,-0.09,0.04,0.98,
3.043,-0.55,0.21,0.07,-0.09,0.04,0.99,
3.043,-0.54,0.13,0.08,-0.09,0.04,0.99,
3.045,-0.54,0.13,0.08,-0.09,0.03,0.99,
3.048,-0.54,0.13,0.08,-0.09,0.03,0.99,
3.048,-0.52,0.08,0.14,-0.09,0.03,0.99,
3.05,-0.52,0.08,0.14,-0.08,0.03,1.00,
3.054,-0.52,0.08,0.14,-0.08,0.03,1.00,
3.054,-0.48,0.04,0.20,-0.08,0.03,1.00,
3.055,-0.48,0.04,0.20,-0.08,0.03,1.01,
3.058,-0.48,0.04,0.20,-0.08,0.02,1.01,
3.058,-0.45,0.00,0.29,-0.08,0.02,1.01,
3.06,-0.45,0.00,0.29,-0.08,0.02,1.01,
3.063,-0.45,0.00,0.29,-0.08,0.03,1.02,
3.063,-0.44,-0.04,0.36,-0.08,0.03,1.02,
3.065,-0.44,-0.04,0.36,-0.08,0.03,1.02,
3.068,-0.44,-0.04,0.36,-0.08,0.03,1.02,
3.069,-0.44,-0.04,0.43,-0.08,0.03,1.02,
3.07,-0.44,-0.04,0.43,-0.08,0.03,1.02,
3.073,-0.44,-0.04,0.43,-0.08,0.03,1.03,
3.073,-0.39,-0.00,0.49,-0.08,0.03,1.03,
3.075,-0.39,-0.00,0.49,-0.07,0.04,1.03,
3.077,-0.39,-0.00,0.49,-0.08,0.04,1.03,
3.077,-0.35,0.05,0.51,-0.08,0.04,1.03,
3.08,-0.35,0.05,0.51,-0.08,0.04,1.03,
3.082,-0.35,0.10,0.52,-0.08,0.04,1.03,
3.082,-0.35,0.10,0.52,-0.08,0.04,1.02,
3.085,-0.35,0.10,0.52,-0.09,0.04,1.02,
3.087,-0.35,0.10,0.52,-0.09,0.04,1.02,
3.088,-0.41,0.12,0.50,-0.09,0.04,1.02,
3.089,-0.41,0.12,0.50,-0.09,0.04,1.01,
3.092,-0.41,0.12,0.50,-0.09,0.04,1.01,
3.092,-0.47,0.12,0.44,-0.09,0.04,1.01,
3.094,-0.47,0.12,0.44,-0.09,0.04,1.00,
3.097,-0.47,0.12,0.44,-0.10,0.05,1.00,
3.097,-0.51,0.14,0.37,-0.10,0.05,1.00,
3.106,-0.51,0.14,0.37,-0.10,0.05,0.99,
3.106,-0.51,0.14,0.37,-0.09,0.05,0.99,
3.107,-0.53,0.17,0.26,-0.09,0.05,0.99,
3.107,-0.53,0.17,0.26,-0.09,0.05,0.98,
3.107,-0.53,0.17,0.26,-0.09,0.05,0.98,
3.107,-0.53,0.23,0.16,-0.09,0.05,0.98,
3.109,-0.53,0.23,0.16,-0.10,0.05,0.97,
3.111,-0.53,0.23,0.16,-0.10,0.05,0.97,
3.112,-0.52,0.22,0.05,-0.10,0.05,0.97,
3.114,-0.52,0.22,0.05,-0.10,0.04,0.96,
3.119,-0.52,0.22,0.05,-0.10,0.04,0.96,
3.119,-0.55,0.18,-0.04,-0.10,0.04,0.96,
3.119,-0.55,0.18,-0.04,-0.10,0.04,0.96,
3.121,-0.55,0.18,-0.04,-0.10,0.04,0.95,
3.122,-0.60,0.12,-0.14,-0.10,0.04,0.95,
3.124,-0.60,0.12,-0.14,-0.10,0.04,0.95,
3.126,-0.60,0.12,-0.14,-0.10,0.04,0.95,
3.126,-0.60,0.09,-0.20,-0.10,0.04,0.95,
3.128,-0.60,0.09,-0.20,-0.10,0.05,0.95,
3.131,-0.59,0.13,-0.22,-0.10,0.05,0.95,
3.131,-0.59,0.13,-0.22,-0.09,0.05,0.95,
3.134,-0.59,0.13,-0.22,-0.09,0.05,0.95,
3.136,-0.59,0.13,-0.22,-0.09,0.05,0.96,
3.136,-0.53,0.19,-0.21,-0.09,0.05,0.96,
3.139,-0.53,0.19,-0.21,-0.09,0.05,0.96,
3.141,-0.53,0.19,-0.21,-0.09,0.05,0.96,
3.141,-0.46,0.22,-0.19,-0.09,0.05,0.96,
3.143,-0.46,0.22,-0.19,-0.09,0.05,0.97,
3.146,-0.46,0.22,-0.19,-0.09,0.06,0.97,
3.146,-0.45,0.22,-0.14,-0.09,0.06,0.97,
3.148,-0.45,0.22,-0.14,-0.09,0.05,0.97,
3.151,-0.45,0.22,-0.14,-0.09,0.05,0.97,
3.151,-0.43,0.26,-0.07,-0.09,0.05,0.97,
3.153,-0.43,0.26,-0.07,-0.09,0.05,0.98,
3.156,-0.45,0.25,-0.01,-0.09,0.05,0.98,
3.156,-0.45,0.25,-0.01,-0.09,0.06,0.98,
3.158,-0.45,0.25,-0.01,-0.09,0.06,0.98,
3.16,-0.42,0.27,0.06,-0.09,0.06,0.98,
3.161,-0.42,0.27,0.06,-0.09,0.06,0.99,
3.163,-0.42,0.27,0.06,-0.09,0.07,0.99,
3.166,-0.42,0.27,0.06,-0.09,0.07,0.99,
3.166,-0.42,0.33,0.11,-0.09,0.07,0.99,
3.168,-0.42,0.33,0.11,-0.09,0.07,1.00,
3.171,-0.42,0.33,0.11,-0.09,0.07,1.00,
3.171,-0.40,0.39,0.17,-0.09,0.07,1.00,
3.173,-0.40,0.39,0.17,-0.09,0.07,1.00,
3.175,-0.40,0.39,0.17,-0.09,0.06,1.00,
3.176,-0.39,0.41,0.23,-0.09,0.06,1.00,
3.177,-0.39,0.41,0.23,-0.10,0.06,1.00,
3.18,-0.39,0.41,0.23,-0.10,0.06,0.99,
3.18,-0.41,0.35,0.21,-0.10,0.06,0.99,
3.184,-0.41,0.35,0.21,-0.10,0.05,0.99,
3.185,-0.41,0.35,0.21,-0.10,0.05,0.99,
3.186,-0.48,0.28,0.20,-0.10,0.05,0.99,
3.187,-0.48,0.28,0.20,-0.10,0.05,0.99,
3.19,-0.48,0.28,0.20,-0.10,0.04,0.99,
3.19,-0.51,0.21,0.19,-0.10,0.04,0.99,
3.192,-0.51,0.21,0.19,-0.10,0.04,0.99,
3.195,-0.51,0.21,0.19,-0.10,0.04,0.99,
3.195,-0.50,0.16,0.19,-0.10,0.04,0.99,
3.197,-0.50,0.16,0.19,-0.10,0.03,0.99,
3.201,-0.50,0.16,0.19,-0.10,0.03,0.99,
3.201,-0.48,0.09,0.18,-0.10,0.03,0.99,
3.202,-0.48,0.09,0.18,-0.09,0.03,0.99,
3.205,-0.48,0.09,0.18,-0.09,0.02,0.99,
3.205,-0.43,0.03,0.16,-0.09,0.02,0.99,
3.207,-0.43,0.03,0.16,-0.09,0.02,0.99,
3.21,-0.43,0.03,0.16,-0.08,0.02,0.99,
3.21,-0.37,-0.04,0.16,-0.08,0.02,0.99,
3.212,-0.37,-0.04,0.16,-0.08,0.02,0.99,
3.215,-0.37,-0.04,0.16,-0.07,0.02,0.99,
3.215,-0.28,-0.08,0.17,-0.07,0.02,0.99,
3.222,-0.28,-0.08,0.17,-0.06,0.01,0.99,
3.223,-0.28,-0.08,0.17,-0.05,0.01,0.99,
3.223,-0.15,-0.11,0.16,-0.05,0.01,0.99,
3.223,-0.15,-0.11,0.16,-0.05,0.01,0.99,
3.224,-0.15,-0.11,0.16,-0.04,0.01,0.98,
3.225,-0.02,-0.14,0.13,-0.04,0.01,0.98,
3.226,-0.02,-0.14,0.13,-0.03,0.01,0.98,
3.229,-0.02,-0.14,0.13,-0.03,0.01,0.98,
3.229,0.11,-0.15,0.09,-0.03,0.01,0.98,
3.231,0.11,-0.15,0.09,-0.03,0.02,0.98,
3.234,0.11,-0.15,0.09,-0.02,0.02,0.98,
3.235,0.22,-0.14,0.07,-0.02,0.02,0.98,
3.236,0.22,-0.14,0.07,-0.03,0.02,0.98,
3.239,0.22,-0.14,0.07,-0.02,0.02,0.97,
3.239,0.28,-0.11,0.03,-0.02,0.02,0.97,
3.241,0.28,-0.11,0.03,-0.02,0.02,0.97,
3.244,0.28,-0.11,0.03,-0.03,0.03,0.97,
3.244,0.28,-0.07,-0.00,-0.03,0.03,0.97,
3.246,0.28,-0.07,-0.00,-0.03,0.03,0.97,
3.249,0.28,-0.07,-0.00,-0.03,0.03,0.97,
3.251,0.29,-0.03,-0.03,-0.03,0.03,0.97,
3.251,0.29,-0.03,-0.03,-0.04,0.03,0.97,
3.254,0.29,-0.03,-0.03,-0.04,0.04,0.97,
3.254,0.22,0.01,-0.05,-0.04,0.04,0.97,
3.256,0.22,0.01,-0.05,-0.04,0.04,0.97,
3.259,0.22,0.01,-0.05,-0.05,0.04,0.97,
3.259,0.14,0.07,-0.04,-0.05,0.04,0.97,
3.261,0.14,0.07,-0.04,-0.05,0.05,0.98,
3.263,0.14,0.07,-0.04,-0.06,0.05,0.98,
3.263,0.09,0.11,-0.02,-0.06,0.05,0.98,
3.266,0.09,0.11,-0.02,-0.06,0.05,0.98,
3.268,0.09,0.11,-0.02,-0.07,0.05,0.99,
3.268,0.02,0.18,0.01,-0.07,0.05,0.99,
3.271,0.02,0.18,0.01,-0.07,0.05,0.99,
3.273,0.02,0.18,0.01,-0.07,0.05,0.99,
3.273,-0.08,0.21,0.09,-0.07,0.05,0.99,
3.275,-0.08,0.21,0.09,-0.07,0.05,0.99,
3.278,-0.08,0.21,0.09,-0.07,0.05,0.99,
3.278,-0.13,0.23,0.15,-0.07,0.05,0.99,
3.28,-0.13,0.23,0.15,-0.08,0.05,0.99,
3.283,-0.13,0.23,0.15,-0.08,0.05,0.99,
3.283,-0.15,0.25,0.18,-0.08,0.05,0.99,
3.285,-0.15,0.25,0.18,-0.07,0.05,0.99,
3.288,-0.15,0.25,0.18,-0.07,0.05,0.99,
3.288,-0.17,0.23,0.18,-0.07,0.05,0.99,
3.29,-0.17,0.23,0.18,-0.06,0.05,0.99,
3.293,-0.17,0.23,0.18,-0.06,0.05,0.99,
3.293,-0.10,0.21,0.16,-0.06,0.05,0.99,
3.295,-0.10,0.21,0.16,-0.05,0.05,0.99,
3.298,-0.10,0.21,0.16,-0.05,0.05,0.99,
3.298,0.02,0.21,0.12,-0.05,0.05,0.99,
3.305,0.02,0.21,0.12,-0.04,0.05,0.98,
3.306,0.02,0.21,0.12,-0.03,0.04,0.98,
3.306,0.10,0.18,0.10,-0.03,0.04,0.98,
3.306,0.10,0.18,0.10,-0.03,0.04,0.98,
3.308,0.10,0.18,0.10,-0.02,0.04,0.98,
3.308,0.23,0.15,0.05,-0.02,0.04,0.98,
3.31,0.23,0.15,0.05,-0.02,0.04,0.98,
3.312,0.23,0.15,0.05,-0.02,0.03,0.98,
3.312,0.35,0.09,0.02,-0.02,0.03,0.98,
3.315,0.35,0.09,0.02,-0.02,0.03,0.97,
3.317,0.35,0.09,0.02,-0.01,0.02,0.97,
3.317,0.42,0.02,-0.00,-0.01,0.02,0.97,
3.319,0.42,0.02,-0.00,-0.01,0.02,0.97,
3.322,0.42,0.02,-0.00,-0.02,0.02,0.97,
3.322,0.45,-0.06,-0.04,-0.02,0.02,0.97,
3.324,0.45,-0.06,-0.04,-0.02,0.01,0.98,
3.327,0.45,-0.06,-0.04,-0.02,0.01,0.97,
3.327,0.45,-0.14,-0.04,-0.02,0.01,0.97,
3.329,0.45,-0.14,-0.04,-0.02,0.01,0.98,
3.332,0.45,-0.14,-0.04,-0.02,0.01,0.98,
3.332,0.40,-0.19,-0.00,-0.02,0.01,0.98,
3.335,0.40,-0.19,-0.00,-0.03,0.01,0.98,
3.337,0.40,-0.19,-0.00,-0.03,0.02,0.98,
3.337,0.37,-0.16,0.02,-0.03,0.02,0.98,
3.339,0.37,-0.16,0.02,-0.03,0.02,0.99,
3.342,0.37,-0.16,0.02,-0.04,0.02,0.99,
3.342,0.32,-0.15,0.07,-0.04,0.02,0.99,
3.344,0.32,-0.15,0.07,-0.04,0.02,0.99,
3.347,0.32,-0.15,0.07,-0.04,0.02,1.00,
3.347,0.27,-0.10,0.14,-0.04,0.02,1.00,
3.35,0.27,-0.10,0.14,-0.05,0.03,1.00,
3.352,0.27,-0.10,0.14,-0.05,0.03,1.00,
3.352,0.20,-0.06,0.18,-0.05,0.03,1.00,
3.354,0.20,-0.06,0.18,-0.05,0.03,1.00,
3.356,0.20,-0.06,0.18,-0.05,0.03,1.01,
3.357,0.13,-0.01,0.24,-0.05,0.03,1.01,
3.359,0.13,-0.01,0.24,-0.05,0.03,1.00,
3.362,0.13,-0.01,0.24,-0.05,0.04,1.01,
3.362,0.10,0.00,0.28,-0.05,0.04,1.01,
3.364,0.10,0.00,0.28,-0.05,0.04,1.01,
3.366,0.10,0.00,0.28,-0.05,0.04,1.01,
3.367,0.12,0.05,0.28,-0.05,0.04,1.01,
3.369,0.12,0.05,0.28,-0.05,0.04,1.00,
3.371,0.12,0.05,0.28,-0.05,0.04,1.00,
3.372,0.11,0.10,0.28,-0.05,0.04,1.00,
3.373,0.11,0.10,0.28,-0.05,0.04,1.00,
3.376,0.11,0.10,0.28,-0.05,0.04,1.00,
3.376,0.13,0.09,0.26,-0.05,0.04,1.00,
3.379,0.13,0.09,0.26,-0.04,0.03,0.99,
3.381,0.13,0.09,0.26,-0.03,0.03,0.99,
3.381,0.14,0.07,0.21,-0.03,0.03,0.99,
3.383,0.14,0.07,0.21,-0.03,0.03,0.99,
3.386,0.14,0.07,0.21,-0.03,0.03,0.98,
3.386,0.22,0.05,0.14,-0.03,0.03,0.98,
3.388,0.22,0.05,0.14,-0.02,0.03,0.98,
3.391,0.22,0.05,0.14,-0.02,0.03,0.97,
3.391,0.30,0.03,0.06,-0.02,0.03,0.97,
3.393,0.30,0.03,0.06,-0.02,0.03,0.96,
3.396,0.30,0.03,0.06,-0.02,0.03,0.92,
3.396,0.37,0.04,-0.03,-0.02,0.03,0.92,
3.398,0.37,0.04,-0.03,-0.01,0.03,0.89,
3.405,0.37,0.04,-0.03,-0.01,0.03,0.88,
3.405,0.41,0.02,-0.36,-0.01,0.03,0.88,
3.406,0.41,0.02,-0.36,-0.01,0.03,0.86,
3.406,0.41,0.02,-0.36,-0.02,0.03,0.86,
3.406,0.48,0.02,-0.93,-0.02,0.03,0.86,
3.408,0.48,0.02,-0.93,-0.02,0.03,0.86,
3.41,0.48,0.02,-0.93,-0.03,0.03,0.86,
3.41,0.43,0.03,-1.11,-0.03,0.03,0.86,
3.413,0.43,0.03,-1.11,-0.04,0.04,0.87,
3.417,0.43,0.03,-1.11,-0.04,0.04,0.88,
3.417,0.33,0.05,-1.15,-0.04,0.04,0.88,
3.418,0.33,0.05,-1.15,-0.05,0.04,0.89,
3.42,0.33,0.05,-1.15,-0.05,0.04,0.91,
3.42,0.21,0.09,-1.00,-0.05,0.04,0.91,
3.422,0.21,0.09,-1.00,-0.05,0.04,0.93,
3.425,0.21,0.09,-1.00,-0.05,0.04,0.95,
3.425,0.17,0.12,-0.69,-0.05,0.04,0.95,
3.427,0.17,0.12,-0.69,-0.05,0.04,0.97,
3.43,0.17,0.12,-0.69,-0.06,0.04,0.99,
3.43,0.15,0.16,-0.29,-0.06,0.04,0.99,
3.432,0.15,0.16,-0.29,-0.06,0.04,1.01,
3.435,0.15,0.16,-0.29,-0.06,0.04,1.02,
3.435,0.11,0.16,0.10,-0.06,0.04,1.02,
3.437,0.11,0.16,0.10,-0.06,0.04,1.03,
3.44,0.11,0.16,0.10,-0.06,0.04,1.04,
3.44,0.09,0.13,0.41,-0.06,0.04,1.04,
3.442,0.09,0.13,0.41,-0.06,0.04,1.04,
3.444,0.09,0.13,0.41,-0.06,0.04,1.04,
3.445,0.08,0.11,0.58,-0.06,0.04,1.04,
3.447,0.08,0.11,0.58,-0.06,0.04,1.04,
3.449,0.08,0.11,0.58,-0.05,0.04,1.04,
3.45,0.07,0.11,0.64,-0.05,0.04,1.04,
3.452,0.07,0.11,0.64,-0.05,0.04,1.03,
3.454,0.07,0.11,0.64,-0.05,0.04,1.02,
3.454,0.12,0.14,0.61,-0.05,0.04,1.02,
3.457,0.12,0.14,0.61,-0.05,0.04,1.02,
3.459,0.12,0.14,0.61,-0.05,0.04,1.01,
3.459,0.15,0.17,0.50,-0.05,0.04,1.01,
3.461,0.15,0.17,0.50,-0.05,0.04,1.00,
3.464,0.15,0.17,0.50,-0.06,0.04,1.00,
3.465,0.16,0.18,0.36,-0.06,0.04,1.00,
3.467,0.16,0.18,0.36,-0.06,0.04,1.00,
3.469,0.16,0.18,0.36,-0.06,0.04,1.00,
3.469,0.11,0.17,0.27,-0.06,0.04,1.00,
3.471,0.11,0.17,0.27,-0.07,0.04,1.00,
3.474,0.11,0.17,0.27,-0.07,0.04,1.01,
3.474,0.04,0.14,0.23,-0.07,0.04,1.01,
3.476,0.04,0.14,0.23,-0.07,0.04,1.01,
3.479,0.04,0.14,0.23,-0.06,0.04,1.02,
3.479,0.01,0.10,0.28,-0.06,0.04,1.02,
3.481,0.01,0.10,0.28,-0.06,0.04,1.02,
3.484,0.01,0.10,0.28,-0.07,0.04,1.03,
3.484,0.02,0.09,0.39,-0.07,0.04,1.03,
3.486,0.02,0.09,0.39,-0.07,0.04,1.03,
3.489,0.02,0.09,0.39,-0.07,0.04,1.02,
3.489,0.01,0.08,0.48,-0.07,0.04,1.02,
3.491,0.01,0.08,0.48,-0.07,0.04,1.02,
3.493,0.01,0.08,0.48,-0.07,0.04,1.01,
3.494,-0.00,0.10,0.49,-0.07,0.04,1.01,
3.496,-0.00,0.10,0.49,-0.07,0.04,1.01,
3.503,-0.00,0.10,0.49,-0.08,0.04,1.00,
3.503,-0.05,0.14,0.37,-0.08,0.04,1.00,
3.503,-0.05,0.14,0.37,-0.08,0.04,1.00,
3.503,-0.05,0.14,0.37,-0.09,0.05,0.99,
3.503,-0.11,0.14,0.27,-0.09,0.05,0.99,
3.506,-0.11,0.14,0.27,-0.09,0.05,0.99,
3.508,-0.11,0.14,0.27,-0.09,0.05,0.99,
3.508,-0.18,0.15,0.17,-0.09,0.05,0.99,
3.51,-0.18,0.15,0.17,-0.09,0.06,0.98,
3.513,-0.18,0.15,0.17,-0.08,0.06,0.98,
3.513,-0.20,0.19,0.10,-0.08,0.06,0.98,
