
time,ax,ay,az,gFx,gFy,gFz,
0.002,-0.01,0.05,0.26,-0.02,0.01,0.99,
0.002,0.02,0.07,0.20,-0.02,0.01,0.99,
0.003,0.02,0.07,0.20,-0.02,0.00,0.99,
0.003,0.02,0.07,0.20,-0.02,0.00,0.99,
0.003,0.07,0.06,0.13,-0.02,0.00,0.99,
0.005,0.07,0.06,0.13,-0.01,0.00,0.98,
0.008,0.07,0.06,0.13,-0.01,-0.00,0.98,
0.008,0.10,0.00,0.06,-0.01,-0.00,0.98,
0.01,0.10,0.00,0.06,-0.01,-0.00,0.98,
0.014,0.10,0.00,0.06,-0.01,-0.00,0.98,
0.014,0.17,-0.01,0.03,-0.01,-0.00,0.98,
0.015,0.17,-0.01,0.03,-0.01,-0.00,0.97,
0.018,0.17,-0.01,0.03,-0.01,-0.00,0.97,
0.018,0.21,-0.03,-0.04,-0.01,-0.00,0.97,
0.02,0.21,-0.03,-0.04,-0.01,-0.00,0.97,
0.022,0.21,-0.03,-0.04,-0.01,-0.00,0.98,
0.023,0.22,-0.05,-0.06,-0.01,-0.00,0.98,
0.025,0.22,-0.05,-0.06,-0.01,-0.00,0.98,
0.027,0.22,-0.05,-0.06,-0.01,-0.00,0.98,
0.028,0.22,-0.05,-0.05,-0.01,-0.00,0.98,
0.03,0.22,-0.05,-0.05,-0.01,-0.00,0.98,
0.032,0.22,-0.05,-0.05,-0.01,-0.00,0.98,
0.032,0.20,-0.04,-0.02,-0.01,-0.00,0.98,
0.035,0.20,-0.04,-0.02,-0.01,-0.00,0.98,
0.037,0.20,-0.04,-0.02,-0.02,0.00,0.99,
0.038,0.16,-0.03,0.02,-0.02,0.00,0.99,
0.04,0.16,-0.03,0.02,-0.02,0.00,0.99,
0.042,0.16,-0.03,0.02,-0.02,0.00,0.99,
0.043,0.12,-0.01,0.06,-0.02,0.00,0.99,
0.045,0.12,-0.01,0.06,-0.03,0.00,0.99,
0.047,0.12,-0.01,0.06,-0.03,0.00,1.00,
0.047,0.07,0.01,0.11,-0.03,0.00,1.00,
0.049,0.07,0.01,0.11,-0.03,0.01,1.00,
0.052,0.07,0.01,0.11,-0.04,0.01,1.00,
0.052,-0.01,0.03,0.14,-0.04,0.01,1.00,
0.054,-0.01,0.03,0.14,-0.04,0.01,1.00,
0.057,-0.01,0.03,0.14,-0.04,0.01,1.00,
0.057,-0.07,0.05,0.17,-0.04,0.01,1.00,
0.059,-0.07,0.05,0.17,-0.03,0.01,1.00,
0.062,-0.07,0.05,0.17,-0.04,0.01,1.00,
0.062,-0.09,0.07,0.17,-0.04,0.01,1.00,
0.07,-0.09,0.07,0.17,-0.04,0.01,1.00,
0.07,-0.09,0.07,0.17,-0.04,0.01,1.00,
0.071,-0.09,0.07,0.16,-0.04,0.01,1.00,
0.071,-0.09,0.07,0.16,-0.03,0.01,0.99,
0.072,-0.09,0.07,0.16,-0.03,0.01,0.99,
0.072,-0.10,0.08,0.15,-0.03,0.01,0.99,
0.074,-0.10,0.08,0.15,-0.03,0.01,0.99,
0.077,-0.10,0.08,0.15,-0.03,0.01,0.99,
0.077,-0.04,0.10,0.11,-0.03,0.01,0.99,
0.079,-0.04,0.10,0.11,-0.03,0.01,0.99,
0.081,-0.04,0.10,0.11,-0.03,0.01,0.99,
0.082,-0.01,0.12,0.08,-0.03,0.01,0.99,
0.084,-0.01,0.12,0.08,-0.03,0.01,0.99,
0.086,-0.01,0.12,0.08,-0.03,0.01,0.99,
0.086,0.00,0.12,0.07,-0.03,0.01,0.99,
0.088,0.00,0.12,0.07,-0.03,0.01,0.99,
0.091,0.00,0.12,0.07,-0.02,0.01,0.99,
0.091,0.02,0.12,0.06,-0.02,0.01,0.99,
0.093,0.02,0.12,0.06,-0.03,0.01,0.98,
0.096,0.02,0.12,0.06,-0.03,0.01,0.98,
0.096,0.02,0.10,0.04,-0.03,0.01,0.98,
0.098,0.02,0.10,0.04,-0.03,0.01,0.98,
0.101,0.02,0.10,0.04,-0.03,0.01,0.99,
0.101,0.01,0.10,0.02,-0.03,0.01,0.99,
0.103,0.01,0.10,0.02,-0.03,0.01,0.98,
0.106,0.01,0.10,0.02,-0.03,0.01,0.99,
0.106,0.00,0.10,0.04,-0.03,0.01,0.99,
0.108,0.00,0.10,0.04,-0.04,0.01,0.99,
0.111,0.00,0.10,0.04,-0.04,0.01,0.99,
0.111,-0.03,0.10,0.03,-0.04,0.01,0.99,
0.113,-0.03,0.10,0.03,-0.04,0.01,0.99,
0.116,-0.03,0.10,0.03,-0.04,0.01,0.99,
0.116,-0.08,0.10,0.08,-0.04,0.01,0.99,
0.118,-0.08,0.10,0.08,-0.04,0.01,1.00,
0.12,-0.08,0.10,0.08,-0.05,0.01,1.00,
0.121,-0.12,0.10,0.11,-0.05,0.01,1.00,
0.123,-0.12,0.10,0.11,-0.04,0.01,1.00,
0.125,-0.12,0.10,0.11,-0.04,0.01,1.00,
0.126,-0.16,0.08,0.14,-0.04,0.01,1.00,
0.128,-0.16,0.08,0.14,-0.04,0.01,1.00,
0.13,-0.16,0.08,0.14,-0.04,0.01,1.01,
0.131,-0.13,0.06,0.20,-0.04,0.01,1.01,
0.133,-0.13,0.06,0.20,-0.04,0.01,1.01,
0.135,-0.13,0.06,0.20,-0.04,0.00,1.01,
0.135,-0.13,0.05,0.23,-0.04,0.00,1.01,
0.137,-0.13,0.05,0.23,-0.04,0.00,1.01,
0.14,-0.13,0.05,0.23,-0.04,0.00,1.01,
0.14,-0.12,0.02,0.27,-0.04,0.00,1.01,
0.142,-0.12,0.02,0.27,-0.03,0.00,1.01,
0.145,-0.12,0.02,0.27,-0.03,-0.00,1.01,
0.145,-0.08,-0.01,0.27,-0.03,-0.00,1.01,
0.147,-0.08,-0.01,0.27,-0.03,-0.00,1.01,
0.15,-0.08,-0.01,0.27,-0.02,-0.01,1.01,
0.15,-0.03,-0.03,0.26,-0.02,-0.01,1.01,
0.152,-0.03,-0.03,0.26,-0.02,-0.01,1.01,
0.155,-0.03,-0.03,0.26,-0.02,-0.01,1.01,
0.155,0.04,-0.07,0.26,-0.02,-0.01,1.01,
0.157,0.04,-0.07,0.26,-0.02,-0.01,1.00,
0.16,0.04,-0.07,0.26,-0.02,-0.01,1.00,
0.16,0.07,-0.09,0.24,-0.02,-0.01,1.00,
0.166,0.07,-0.09,0.24,-0.02,-0.01,1.00,
0.166,0.07,-0.09,0.24,-0.02,-0.01,1.00,
0.167,0.09,-0.13,0.19,-0.02,-0.01,1.00,
0.167,0.09,-0.13,0.19,-0.01,-0.01,0.99,
0.17,0.09,-0.13,0.19,-0.01,-0.01,0.99,
0.17,0.11,-0.14,0.13,-0.01,-0.01,0.99,
0.172,0.11,-0.14,0.13,-0.01,-0.01,0.99,
0.174,0.11,-0.14,0.13,-0.01,-0.01,0.99,
0.175,0.14,-0.15,0.08,-0.01,-0.01,0.99,
0.177,0.14,-0.15,0.08,-0.01,-0.01,0.98,
0.18,0.14,-0.15,0.08,-0.01,-0.01,0.98,
0.18,0.14,-0.17,0.03,-0.01,-0.01,0.98,
0.182,0.14,-0.17,0.03,-0.01,-0.01,0.98,
0.184,0.14,-0.17,0.03,-0.01,-0.01,0.98,
0.184,0.15,-0.14,-0.01,-0.01,-0.01,0.98,
0.187,0.15,-0.14,-0.01,-0.01,-0.01,0.98,
0.189,0.15,-0.14,-0.01,-0.02,-0.01,0.97,
0.189,0.14,-0.13,-0.05,-0.02,-0.01,0.97,
0.191,0.14,-0.13,-0.05,-0.02,-0.01,0.97,
0.194,0.14,-0.13,-0.05,-0.02,-0.01,0.97,
0.194,0.11,-0.10,-0.08,-0.02,-0.01,0.97,
0.197,0.11,-0.10,-0.08,-0.02,-0.00,0.97,
0.199,0.11,-0.10,-0.08,-0.02,-0.00,0.97,
0.2,0.07,-0.09,-0.11,-0.02,-0.00,0.97,
0.201,0.07,-0.09,-0.11,-0.02,-0.00,0.97,
0.204,0.07,-0.09,-0.11,-0.03,-0.00,0.98,
0.204,0.05,-0.06,-0.11,-0.03,-0.00,0.98,
0.206,0.05,-0.06,-0.11,-0.03,-0.00,0.98,
0.209,0.05,-0.06,-0.11,-0.03,-0.00,0.98,
0.209,-0.00,-0.04,-0.08,-0.03,-0.00,0.98,
0.211,-0.00,-0.04,-0.08,-0.03,-0.00,0.98,
0.214,-0.00,-0.04,-0.08,-0.03,-0.00,0.98,
0.214,-0.03,-0.05,-0.05,-0.03,-0.00,0.98,
0.216,-0.03,-0.05,-0.05,-0.03,-0.00,0.98,
0.22,-0.03,-0.05,-0.05,-0.04,-0.00,0.99,
0.22,-0.06,-0.05,-0.01,-0.04,-0.00,0.99,
0.221,-0.06,-0.05,-0.01,-0.04,-0.00,0.99,
0.223,-0.06,-0.05,-0.01,-0.04,-0.00,0.99,
0.224,-0.08,-0.07,0.03,-0.04,-0.00,0.99,
0.226,-0.08,-0.07,0.03,-0.03,-0.00,0.99,
0.228,-0.08,-0.07,0.03,-0.03,-0.00,0.99,
0.228,-0.09,-0.07,0.07,-0.03,-0.00,0.99,
0.231,-0.09,-0.07,0.07,-0.03,-0.00,0.99,
0.233,-0.09,-0.07,0.07,-0.02,-0.00,0.98,
0.233,-0.05,-0.06,0.06,-0.02,-0.00,0.98,
0.236,-0.05,-0.06,0.06,-0.02,-0.00,0.98,
0.238,-0.05,-0.06,0.06,-0.02,-0.00,0.98,
0.238,0.01,-0.06,0.03,-0.02,-0.00,0.98,
0.24,0.01,-0.06,0.03,-0.02,-0.00,0.98,
0.243,0.01,-0.06,0.03,-0.01,0.00,0.98,
0.243,0.07,-0.06,0.00,-0.01,0.00,0.98,
0.247,0.07,-0.06,0.00,-0.01,-0.00,0.98,
0.248,0.07,-0.06,0.00,-0.01,-0.00,0.97,
0.249,0.10,-0.05,-0.04,-0.01,-0.00,0.97,
0.251,0.10,-0.05,-0.04,-0.01,-0.00,0.97,
0.253,0.10,-0.05,-0.04,-0.01,-0.01,0.96,
0.253,0.13,-0.08,-0.09,-0.01,-0.01,0.96,
0.255,0.13,-0.08,-0.09,-0.01,-0.01,0.96,
0.258,0.13,-0.08,-0.09,-0.01,-0.01,0.96,
0.258,0.12,-0.11,-0.16,-0.01,-0.01,0.96,
0.26,0.12,-0.11,-0.16,-0.01,-0.01,0.95,
0.263,0.12,-0.11,-0.16,-0.01,-0.01,0.95,
0.263,0.14,-0.15,-0.24,-0.01,-0.01,0.95,
0.265,0.14,-0.15,-0.24,-0.01,-0.01,0.95,
0.268,0.14,-0.15,-0.24,-0.01,-0.01,0.94,
0.268,0.14,-0.16,-0.32,-0.01,-0.01,0.94,
0.27,0.14,-0.16,-0.32,-0.01,-0.01,0.94,
0.272,0.14,-0.16,-0.32,-0.01,-0.01,0.94,
0.272,0.12,-0.15,-0.36,-0.01,-0.01,0.94,
0.275,0.12,-0.15,-0.36,-0.01,-0.01,0.94,
0.277,0.12,-0.15,-0.36,-0.02,-0.01,0.94,
0.278,0.09,-0.16,-0.39,-0.02,-0.01,0.94,
0.287,0.09,-0.16,-0.39,-0.02,-0.01,0.94,
0.287,0.09,-0.16,-0.39,-0.02,-0.01,0.94,
0.288,0.07,-0.15,-0.41,-0.02,-0.01,0.94,
0.288,0.07,-0.15,-0.41,-0.02,-0.01,0.95,
0.288,0.07,-0.15,-0.41,-0.02,-0.01,0.95,
0.288,0.01,-0.15,-0.39,-0.02,-0.01,0.95,
0.289,0.01,-0.15,-0.39,-0.03,-0.01,0.95,
0.292,0.01,-0.15,-0.39,-0.02,-0.01,0.95,
0.292,-0.01,-0.15,-0.34,-0.02,-0.01,0.95,
0.294,-0.01,-0.15,-0.34,-0.02,-0.00,0.96,
0.297,-0.01,-0.15,-0.34,-0.02,-0.00,0.96,
0.297,-0.03,-0.12,-0.28,-0.02,-0.00,0.96,
0.3,-0.03,-0.12,-0.28,-0.02,-0.00,0.96,
0.302,-0.03,-0.12,-0.28,-0.02,0.00,0.97,
0.302,-0.00,-0.08,-0.23,-0.02,0.00,0.97,
0.304,-0.00,-0.08,-0.23,-0.02,0.00,0.97,
0.307,-0.00,-0.08,-0.23,-0.02,0.00,0.98,
0.307,0.01,-0.06,-0.13,-0.02,0.00,0.98,
0.309,0.01,-0.06,-0.13,-0.02,0.00,0.98,
0.313,0.01,-0.06,-0.13,-0.01,0.00,0.98,
0.313,0.04,-0.03,-0.05,-0.01,0.00,0.98,
0.314,0.04,-0.03,-0.05,-0.01,0.00,0.99,
0.317,0.04,-0.03,-0.05,-0.02,0.00,0.99,
0.317,0.08,-0.01,0.02,-0.02,0.00,0.99,
0.319,0.08,-0.01,0.02,-0.02,0.00,0.99,
0.321,0.08,-0.01,0.02,-0.02,-0.00,0.99,
0.322,0.08,-0.02,0.06,-0.02,-0.00,0.99,
0.324,0.08,-0.02,0.06,-0.02,-0.00,0.99,
0.326,0.08,-0.02,0.06,-0.02,0.00,0.98,
0.326,0.06,-0.05,0.07,-0.02,0.00,0.98,
0.329,0.06,-0.05,0.07,-0.02,-0.00,0.98,
0.331,0.06,-0.05,0.07,-0.02,-0.00,0.98,
0.332,0.05,-0.06,0.05,-0.02,-0.00,0.98,
0.334,0.05,-0.06,0.05,-0.03,-0.00,0.98,
0.336,0.05,-0.06,0.05,-0.03,-0.00,0.97,
0.336,0.00,-0.07,0.00,-0.03,-0.00,0.97,
0.338,0.00,-0.07,0.00,-0.03,0.00,0.97,
0.341,0.00,-0.07,0.00,-0.03,0.00,0.97,
0.341,-0.04,-0.07,-0.05,-0.03,0.00,0.97,
0.343,-0.04,-0.07,-0.05,-0.03,0.01,0.97,
0.346,-0.04,-0.07,-0.05,-0.04,0.01,0.96,
0.346,-0.05,-0.04,-0.11,-0.04,0.01,0.96,
0.348,-0.05,-0.04,-0.11,-0.04,0.01,0.96,
0.351,-0.05,-0.04,-0.11,-0.04,0.01,0.96,
0.351,-0.11,0.01,-0.17,-0.04,0.01,0.96,
0.353,-0.11,0.01,-0.17,-0.04,0.01,0.96,
0.356,-0.11,0.01,-0.17,-0.05,0.01,0.96,
0.356,-0.18,0.03,-0.21,-0.05,0.01,0.96,
0.358,-0.18,0.03,-0.21,-0.05,0.02,0.96,
0.36,-0.18,0.03,-0.21,-0.06,0.02,0.96,
0.361,-0.24,0.05,-0.22,-0.06,0.02,0.96,
0.365,-0.24,0.05,-0.22,-0.06,0.02,0.96,
0.366,-0.24,0.05,-0.22,-0.06,0.02,0.96,
0.366,-0.33,0.09,-0.21,-0.06,0.02,0.96,
0.368,-0.33,0.09,-0.21,-0.06,0.01,0.97,
0.371,-0.33,0.09,-0.21,-0.06,0.02,0.97,
0.371,-0.38,0.10,-0.16,-0.06,0.02,0.97,
0.373,-0.38,0.10,-0.16,-0.07,0.02,0.98,
0.375,-0.38,0.10,-0.16,-0.07,0.02,0.98,
0.375,-0.42,0.09,-0.11,-0.07,0.02,0.98,
0.377,-0.42,0.09,-0.11,-0.07,0.02,0.98,
0.38,-0.42,0.09,-0.11,-0.07,0.02,0.99,
0.38,-0.45,0.11,-0.03,-0.07,0.02,0.99,
0.383,-0.45,0.11,-0.03,-0.07,0.02,0.99,
0.385,-0.45,0.11,-0.03,-0.07,0.02,1.00,
0.385,-0.49,0.14,0.05,-0.07,0.02,1.00,
0.387,-0.49,0.14,0.05,-0.08,0.02,1.00,
0.39,-0.49,0.14,0.05,-0.07,0.03,1.00,
0.39,-0.50,0.16,0.14,-0.07,0.03,1.00,
0.392,-0.50,0.16,0.14,-0.08,0.03,1.00,
0.395,-0.50,0.16,0.14,-0.08,0.03,1.01,
0.395,-0.51,0.19,0.20,-0.08,0.03,1.01,
0.397,-0.51,0.19,0.20,-0.08,0.03,1.01,
0.4,-0.51,0.19,0.20,-0.07,0.03,1.01,
0.4,-0.52,0.21,0.24,-0.07,0.03,1.01,
0.402,-0.52,0.21,0.24,-0.07,0.03,1.01,
0.405,-0.52,0.21,0.24,-0.07,0.03,1.01,
0.405,-0.51,0.23,0.28,-0.07,0.03,1.01,
0.407,-0.51,0.23,0.28,-0.07,0.03,1.01,
0.409,-0.51,0.23,0.28,-0.08,0.03,1.01,
0.41,-0.49,0.24,0.28,-0.08,0.03,1.01,
0.412,-0.49,0.24,0.28,-0.07,0.03,1.00,
0.415,-0.49,0.24,0.28,-0.07,0.03,1.00,
0.417,-0.51,0.21,0.26,-0.07,0.03,1.00,
0.417,-0.51,0.21,0.26,-0.08,0.03,1.00,
0.42,-0.51,0.21,0.26,-0.08,0.03,0.99,
0.42,-0.51,0.19,0.20,-0.08,0.03,0.99,
0.422,-0.51,0.19,0.20,-0.08,0.03,0.99,
0.424,-0.51,0.19,0.20,-0.08,0.02,0.98,
0.424,-0.53,0.18,0.13,-0.08,0.02,0.98,
0.426,-0.53,0.18,0.13,-0.08,0.02,0.98,
0.43,-0.53,0.18,0.13,-0.08,0.02,0.98,
0.43,-0.54,0.17,0.05,-0.08,0.02,0.98,
0.432,-0.54,0.17,0.05,-0.08,0.02,0.98,
0.434,-0.54,0.17,0.05,-0.09,0.03,0.97,
0.434,-0.57,0.15,-0.03,-0.09,0.03,0.97,
0.436,-0.57,0.15,-0.03,-0.09,0.02,0.97,
0.439,-0.57,0.15,-0.03,-0.10,0.02,0.97,
0.439,-0.61,0.16,-0.07,-0.10,0.02,0.97,
0.441,-0.61,0.16,-0.07,-0.10,0.02,0.97,
0.444,-0.69,0.13,-0.07,-0.10,0.02,0.97,
0.444,-0.69,0.13,-0.07,-0.10,0.02,0.97,
0.446,-0.69,0.13,-0.07,-0.10,0.02,0.97,
0.449,-0.69,0.13,-0.07,-0.11,0.02,0.97,
0.449,-0.77,0.12,-0.09,-0.11,0.02,0.97,
0.451,-0.77,0.12,-0.09,-0.11,0.02,0.97,
0.454,-0.77,0.12,-0.09,-0.11,0.02,0.97,
0.454,-0.80,0.10,-0.09,-0.11,0.02,0.97,
0.456,-0.80,0.10,-0.09,-0.11,0.02,0.98,
0.458,-0.80,0.10,-0.09,-0.11,0.02,0.98,
0.459,-0.82,0.10,-0.07,-0.11,0.02,0.98,
0.461,-0.82,0.10,-0.07,-0.10,0.02,0.98,
0.467,-0.82,0.10,-0.07,-0.10,0.02,0.98,
0.467,-0.80,0.09,-0.04,-0.10,0.02,0.98,
0.467,-0.80,0.09,-0.04,-0.10,0.02,0.98,
0.468,-0.80,0.09,-0.04,-0.10,0.02,0.98,
0.468,-0.76,0.09,-0.03,-0.10,0.02,0.98,
0.471,-0.76,0.09,-0.03,-0.10,0.01,0.98,
0.473,-0.76,0.09,-0.03,-0.09,0.01,0.97,
0.473,-0.72,0.08,-0.03,-0.09,0.01,0.97,
0.475,-0.72,0.08,-0.03,-0.09,0.01,0.97,
0.479,-0.72,0.08,-0.03,-0.09,0.01,0.97,
0.479,-0.68,0.02,-0.05,-0.09,0.01,0.97,
0.48,-0.68,0.02,-0.05,-0.09,0.01,0.97,
0.483,-0.68,0.02,-0.05,-0.08,0.00,0.97,
0.483,-0.64,-0.02,-0.08,-0.08,0.00,0.97,
0.485,-0.64,-0.02,-0.08,-0.08,0.00,0.96,
0.488,-0.64,-0.02,-0.08,-0.07,0.00,0.96,
0.488,-0.56,-0.06,-0.14,-0.07,0.00,0.96,
0.49,-0.56,-0.06,-0.14,-0.07,0.00,0.95,
0.493,-0.56,-0.06,-0.14,-0.07,-0.00,0.95,
0.493,-0.48,-0.09,-0.20,-0.07,-0.00,0.95,
0.496,-0.48,-0.09,-0.20,-0.06,-0.00,0.95,
0.498,-0.48,-0.09,-0.20,-0.06,0.00,0.95,
0.498,-0.41,-0.10,-0.27,-0.06,0.00,0.95,
0.5,-0.41,-0.10,-0.27,-0.06,-0.00,0.95,
0.503,-0.41,-0.10,-0.27,-0.06,-0.00,0.95,
0.503,-0.35,-0.11,-0.29,-0.06,-0.00,0.95,
0.505,-0.35,-0.11,-0.29,-0.07,-0.00,0.96,
0.507,-0.35,-0.11,-0.29,-0.07,-0.00,0.96,
0.508,-0.33,-0.13,-0.27,-0.07,-0.00,0.96,
0.51,-0.33,-0.13,-0.27,-0.08,-0.00,0.96,
0.512,-0.33,-0.13,-0.27,-0.08,-0.00,0.96,
0.513,-0.38,-0.14,-0.22,-0.08,-0.00,0.96,
0.515,-0.38,-0.14,-0.22,-0.09,-0.00,0.97,
0.517,-0.38,-0.14,-0.22,-0.09,0.00,0.97,
0.517,-0.47,-0.14,-0.17,-0.09,0.00,0.97,
0.519,-0.47,-0.14,-0.17,-0.09,0.00,0.97,
0.522,-0.47,-0.14,-0.17,-0.10,0.01,0.98,
0.522,-0.56,-0.11,-0.10,-0.10,0.01,0.98,
0.525,-0.56,-0.11,-0.10,-0.10,0.01,0.98,
0.527,-0.56,-0.11,-0.10,-0.11,0.01,0.99,
0.528,-0.63,-0.08,-0.03,-0.11,0.01,0.99,
0.53,-0.63,-0.08,-0.03,-0.11,0.01,0.99,
0.532,-0.63,-0.08,-0.03,-0.12,0.02,0.99,
0.532,-0.70,-0.02,0.06,-0.12,0.02,0.99,
0.534,-0.70,-0.02,0.06,-0.12,0.02,1.00,
0.537,-0.70,-0.02,0.06,-0.12,0.02,1.00,
0.537,-0.78,0.04,0.13,-0.12,0.02,1.00,
0.539,-0.78,0.04,0.13,-0.12,0.02,1.00,
0.542,-0.78,0.04,0.13,-0.13,0.02,1.00,
0.543,-0.84,0.06,0.17,-0.13,0.02,1.00,
0.544,-0.84,0.06,0.17,-0.13,0.02,1.00,
0.548,-0.84,0.06,0.17,-0.12,0.01,0.99,
0.549,-0.86,0.05,0.17,-0.12,0.01,0.99,
0.55,-0.86,0.05,0.17,-0.12,0.01,0.99,
0.552,-0.86,0.05,0.17,-0.12,0.01,0.99,
0.552,-0.85,0.03,0.15,-0.12,0.01,0.99,
0.554,-0.85,0.03,0.15,-0.11,0.01,0.99,
0.557,-0.85,0.03,0.15,-0.11,0.01,0.99,
0.557,-0.79,0.01,0.11,-0.11,0.01,0.99,
0.559,-0.79,0.01,0.11,-0.11,0.01,0.98,
0.563,-0.79,0.01,0.11,-0.10,0.01,0.98,
0.564,-0.71,-0.01,0.06,-0.10,0.01,0.98,
0.564,-0.71,-0.01,0.06,-0.10,0.00,0.98,
0.566,-0.71,-0.01,0.06,-0.10,-0.00,0.98,
0.567,-0.65,-0.06,0.02,-0.10,-0.00,0.98,
0.569,-0.65,-0.06,0.02,-0.10,-0.00,0.98,
0.571,-0.65,-0.06,0.02,-0.10,-0.00,0.98,
0.572,-0.62,-0.12,-0.04,-0.10,-0.00,0.98,
0.574,-0.62,-0.12,-0.04,-0.09,-0.01,0.98,
0.576,-0.62,-0.12,-0.04,-0.09,-0.01,0.98,
0.577,-0.57,-0.16,-0.04,-0.09,-0.01,0.98,
0.579,-0.57,-0.16,-0.04,-0.09,-0.01,0.98,
0.587,-0.57,-0.16,-0.04,-0.09,-0.01,0.98,
0.588,-0.51,-0.21,-0.01,-0.09,-0.01,0.98,
0.589,-0.51,-0.21,-0.01,-0.09,-0.02,0.99,
0.589,-0.51,-0.21,-0.01,-0.09,-0.02,0.99,
0.589,-0.45,-0.24,0.02,-0.09,-0.02,0.99,
0.589,-0.45,-0.24,0.02,-0.08,-0.02,0.99,
0.591,-0.45,-0.24,0.02,-0.08,-0.02,0.99,
0.591,-0.42,-0.30,0.06,-0.08,-0.02,0.99,
0.593,-0.42,-0.30,0.06,-0.08,-0.03,1.00,
0.6,-0.42,-0.30,0.06,-0.08,-0.03,1.00,
0.6,-0.39,-0.37,0.11,-0.08,-0.03,1.00,
0.6,-0.39,-0.37,0.11,-0.08,-0.03,1.00,
0.6,-0.39,-0.37,0.11,-0.08,-0.03,1.01,
0.601,-0.35,-0.40,0.18,-0.08,-0.03,1.01,
0.603,-0.35,-0.40,0.18,-0.08,-0.03,1.01,
0.605,-0.35,-0.40,0.18,-0.08,-0.04,1.01,
0.605,-0.29,-0.43,0.24,-0.08,-0.04,1.01,
0.608,-0.29,-0.43,0.24,-0.07,-0.04,1.01,
0.61,-0.29,-0.47,0.27,-0.07,-0.04,1.01,
0.61,-0.29,-0.47,0.27,-0.07,-0.04,1.01,
0.613,-0.29,-0.47,0.27,-0.07,-0.04,1.01,
0.615,-0.29,-0.47,0.27,-0.07,-0.04,1.01,
0.615,-0.25,-0.52,0.31,-0.07,-0.04,1.01,
0.618,-0.25,-0.52,0.31,-0.07,-0.05,1.01,
0.62,-0.25,-0.52,0.31,-0.07,-0.05,1.01,
0.62,-0.22,-0.56,0.30,-0.07,-0.05,1.01,
0.622,-0.22,-0.56,0.30,-0.07,-0.05,1.00,
0.625,-0.22,-0.56,0.30,-0.07,-0.05,1.00,
0.625,-0.25,-0.60,0.26,-0.07,-0.05,1.00,
0.627,-0.25,-0.60,0.26,-0.07,-0.05,0.99,
0.63,-0.25,-0.60,0.26,-0.07,-0.05,0.99,
0.63,-0.21,-0.63,0.18,-0.07,-0.05,0.99,
0.632,-0.21,-0.63,0.18,-0.07,-0.05,0.99,
0.635,-0.21,-0.63,0.18,-0.07,-0.05,0.98,
0.635,-0.21,-0.64,0.11,-0.07,-0.05,0.98,
0.637,-0.21,-0.64,0.11,-0.07,-0.04,0.98,
0.64,-0.21,-0.64,0.11,-0.07,-0.05,0.97,
0.64,-0.19,-0.61,0.04,-0.07,-0.05,0.97,
0.642,-0.19,-0.61,0.04,-0.07,-0.05,0.97,
0.645,-0.19,-0.61,0.04,-0.07,-0.05,0.96,
0.646,-0.19,-0.59,-0.06,-0.07,-0.05,0.96,
0.647,-0.19,-0.59,-0.06,-0.07,-0.05,0.96,
0.65,-0.19,-0.59,-0.06,-0.07,-0.05,0.95,
0.65,-0.20,-0.63,-0.16,-0.07,-0.05,0.95,
0.652,-0.20,-0.63,-0.16,-0.08,-0.05,0.95,
0.654,-0.20,-0.63,-0.16,-0.08,-0.04,0.94,
0.654,-0.22,-0.62,-0.27,-0.08,-0.04,0.94,
0.657,-0.22,-0.62,-0.27,-0.08,-0.05,0.94,
0.66,-0.22,-0.62,-0.27,-0.08,-0.05,0.93,
0.66,-0.25,-0.60,-0.35,-0.08,-0.05,0.93,
0.662,-0.25,-0.60,-0.35,-0.09,-0.05,0.93,
0.664,-0.25,-0.60,-0.35,-0.09,-0.05,0.93,
0.665,-0.29,-0.62,-0.43,-0.09,-0.05,0.93,
0.667,-0.29,-0.62,-0.43,-0.09,-0.05,0.93,
0.669,-0.29,-0.62,-0.43,-0.09,-0.05,0.93,
0.669,-0.33,-0.64,-0.47,-0.09,-0.05,0.93,
0.672,-0.33,-0.64,-0.47,-0.09,-0.06,0.93,
0.674,-0.33,-0.64,-0.47,-0.09,-0.06,0.93,
0.674,-0.35,-0.68,-0.50,-0.09,-0.06,0.93,
0.677,-0.35,-0.68,-0.50,-0.09,-0.06,0.93,
0.684,-0.35,-0.68,-0.50,-0.09,-0.06,0.93,
0.684,-0.38,-0.71,-0.51,-0.09,-0.06,0.93,
0.685,-0.38,-0.71,-0.51,-0.09,-0.06,0.93,
0.685,-0.36,-0.71,-0.50,-0.09,-0.06,0.93,
0.685,-0.36,-0.71,-0.50,-0.09,-0.06,0.93,
0.686,-0.36,-0.71,-0.50,-0.08,-0.06,0.93,
0.689,-0.36,-0.71,-0.50,-0.08,-0.06,0.94,
0.689,-0.31,-0.72,-0.46,-0.08,-0.06,0.94,
0.691,-0.31,-0.72,-0.46,-0.08,-0.06,0.94,
0.694,-0.31,-0.72,-0.46,-0.08,-0.06,0.95,
0.694,-0.26,-0.72,-0.40,-0.08,-0.06,0.95,
0.696,-0.26,-0.72,-0.40,-0.07,-0.06,0.95,
0.698,-0.26,-0.72,-0.40,-0.07,-0.06,0.95,
0.699,-0.19,-0.71,-0.31,-0.07,-0.06,0.95,
0.701,-0.19,-0.71,-0.31,-0.06,-0.06,0.96,
0.703,-0.19,-0.71,-0.31,-0.06,-0.05,0.96,
0.704,-0.11,-0.71,-0.25,-0.06,-0.05,0.96,
0.706,-0.11,-0.71,-0.25,-0.06,-0.05,0.96,
0.708,-0.11,-0.71,-0.25,-0.05,-0.05,0.96,
0.709,-0.03,-0.70,-0.17,-0.05,-0.05,0.96,
0.712,-0.03,-0.70,-0.17,-0.05,-0.05,0.96,
0.713,-0.03,-0.70,-0.17,-0.05,-0.05,0.96,
0.713,0.03,-0.64,-0.12,-0.05,-0.05,0.96,
0.716,0.03,-0.64,-0.12,-0.05,-0.04,0.96,
0.718,0.03,-0.64,-0.12,-0.06,-0.04,0.96,
0.718,0.04,-0.61,-0.12,-0.06,-0.04,0.96,
0.721,0.04,-0.61,-0.12,-0.06,-0.04,0.96,
0.723,0.04,-0.61,-0.12,-0.06,-0.04,0.96,
0.723,0.03,-0.57,-0.14,-0.06,-0.04,0.96,
0.725,0.03,-0.57,-0.14,-0.06,-0.03,0.95,
0.729,0.03,-0.57,-0.14,-0.07,-0.03,0.95,
0.729,-0.02,-0.52,-0.17,-0.07,-0.03,0.95,
0.73,-0.02,-0.52,-0.17,-0.07,-0.03,0.94,
0.733,-0.02,-0.52,-0.17,-0.07,-0.03,0.94,
0.733,-0.09,-0.49,-0.26,-0.07,-0.03,0.94,
0.735,-0.09,-0.49,-0.26,-0.07,-0.03,0.94,
0.738,-0.09,-0.49,-0.26,-0.07,-0.03,0.94,
0.738,-0.15,-0.45,-0.31,-0.07,-0.03,0.94,
0.74,-0.15,-0.45,-0.31,-0.07,-0.02,0.93,
0.743,-0.15,-0.45,-0.31,-0.07,-0.02,0.93,
0.743,-0.16,-0.42,-0.37,-0.07,-0.02,0.93,
0.745,-0.16,-0.42,-0.37,-0.07,-0.03,0.92,
0.748,-0.16,-0.42,-0.37,-0.07,-0.03,0.92,
0.748,-0.16,-0.40,-0.46,-0.07,-0.03,0.92,
0.75,-0.16,-0.40,-0.46,-0.07,-0.03,0.92,
0.752,-0.16,-0.40,-0.46,-0.07,-0.03,0.91,
0.753,-0.16,-0.42,-0.54,-0.07,-0.03,0.91,
0.755,-0.16,-0.42,-0.54,-0.06,-0.03,0.91,
0.757,-0.16,-0.42,-0.54,-0.06,-0.04,0.90,
0.758,-0.11,-0.45,-0.60,-0.06,-0.04,0.90,
0.76,-0.11,-0.45,-0.60,-0.05,-0.04,0.90,
0.767,-0.11,-0.45,-0.60,-0.05,-0.04,0.90,
0.768,-0.04,-0.50,-0.67,-0.05,-0.04,0.90,
0.768,-0.04,-0.50,-0.67,-0.04,-0.04,0.89,
0.769,-0.04,-0.50,-0.67,-0.04,-0.04,0.89,
0.769,0.03,-0.57,-0.73,-0.04,-0.04,0.89,
0.77,0.03,-0.57,-0.73,-0.03,-0.04,0.89,
0.772,0.03,-0.57,-0.73,-0.02,-0.04,0.88,
0.772,0.12,-0.58,-0.79,-0.02,-0.04,0.88,
0.774,0.12,-0.58,-0.79,-0.02,-0.04,0.88,
0.777,0.12,-0.58,-0.79,-0.01,-0.04,0.88,
0.777,0.26,-0.59,-0.86,-0.01,-0.04,0.88,
0.785,0.26,-0.59,-0.86,-0.00,-0.04,0.88,
0.785,0.26,-0.59,-0.86,0.00,-0.04,0.88,
0.785,0.36,-0.56,-0.91,0.00,-0.04,0.88,
0.785,0.36,-0.56,-0.91,0.00,-0.03,0.88,
0.787,0.36,-0.56,-0.91,0.01,-0.03,0.88,
0.787,0.48,-0.51,-0.92,0.01,-0.03,0.88,
0.789,0.48,-0.51,-0.92,0.01,-0.03,0.88,
0.792,0.48,-0.51,-0.92,0.01,-0.04,0.88,
0.792,0.55,-0.48,-0.89,0.01,-0.04,0.88,
0.794,0.55,-0.48,-0.89,0.01,-0.04,0.89,
0.797,0.55,-0.48,-0.89,0.01,-0.04,0.89,
0.797,0.57,-0.48,-0.86,0.01,-0.04,0.89,
0.799,0.57,-0.48,-0.86,0.00,-0.04,0.89,
0.802,0.57,-0.48,-0.86,0.00,-0.04,0.89,
0.802,0.56,-0.50,-0.80,0.00,-0.04,0.89,
0.804,0.56,-0.50,-0.80,-0.00,-0.04,0.90,
0.806,0.56,-0.50,-0.80,-0.00,-0.04,0.90,
0.806,0.51,-0.53,-0.73,-0.00,-0.04,0.90,
0.808,0.51,-0.53,-0.73,-0.00,-0.04,0.90,
0.811,0.51,-0.53,-0.73,-0.01,-0.05,0.91,
0.812,0.46,-0.54,-0.66,-0.01,-0.05,0.91,
0.814,0.46,-0.54,-0.66,-0.01,-0.05,0.91,
0.816,0.46,-0.54,-0.66,-0.01,-0.05,0.91,
0.816,0.43,-0.58,-0.59,-0.01,-0.05,0.91,
0.818,0.43,-0.58,-0.59,-0.01,-0.05,0.91,
0.821,0.43,-0.58,-0.59,-0.01,-0.05,0.92,
0.821,0.40,-0.61,-0.54,-0.01,-0.05,0.92,
0.823,0.40,-0.61,-0.54,-0.01,-0.05,0.92,
0.826,0.40,-0.61,-0.54,-0.01,-0.05,0.92,
0.826,0.38,-0.63,-0.49,-0.01,-0.05,0.92,
0.828,0.38,-0.63,-0.49,-0.01,-0.05,0.92,
0.831,0.38,-0.63,-0.49,-0.01,-0.05,0.92,
0.832,0.37,-0.63,-0.46,-0.01,-0.05,0.92,
0.833,0.37,-0.63,-0.46,-0.01,-0.04,0.92,
0.836,0.37,-0.63,-0.46,-0.01,-0.04,0.92,
0.836,0.38,-0.61,-0.44,-0.01,-0.04,0.92,
0.838,0.38,-0.61,-0.44,-0.01,-0.03,0.92,
0.84,0.38,-0.61,-0.44,-0.00,-0.03,0.92,
0.841,0.42,-0.54,-0.44,-0.00,-0.03,0.92,
0.843,0.42,-0.54,-0.44,0.00,-0.02,0.92,
0.846,0.42,-0.54,-0.44,0.00,-0.01,0.92,
0.846,0.47,-0.42,-0.45,0.00,-0.01,0.92,
0.848,0.47,-0.42,-0.45,0.01,-0.00,0.92,
0.85,0.47,-0.42,-0.45,0.00,-0.00,0.92,
0.851,0.54,-0.26,-0.44,0.00,-0.00,0.92,
0.853,0.54,-0.26,-0.44,-0.00,0.00,0.92,
0.855,0.54,-0.26,-0.44,-0.00,0.00,0.92,
0.856,0.56,-0.15,-0.43,-0.00,0.00,0.92,
0.858,0.56,-0.15,-0.43,-0.01,0.00,0.92,
0.867,0.56,-0.15,-0.43,-0.01,0.00,0.92,
0.868,0.48,-0.10,-0.40,-0.01,0.00,0.92,
0.868,0.48,-0.10,-0.40,-0.02,0.01,0.92,
0.869,0.48,-0.10,-0.40,-0.02,0.01,0.92,
0.869,0.40,-0.08,-0.41,-0.02,0.01,0.92,
0.869,0.40,-0.08,-0.41,-0.02,0.01,0.92,
0.87,0.40,-0.08,-0.41,-0.03,0.01,0.91,
0.87,0.33,-0.05,-0.45,-0.03,0.01,0.91,
0.872,0.33,-0.05,-0.45,-0.03,0.02,0.91,
0.875,0.33,-0.05,-0.45,-0.03,0.02,0.91,
0.875,0.26,0.00,-0.46,-0.03,0.02,0.91,
0.879,0.26,0.00,-0.46,-0.04,0.02,0.92,
0.88,0.26,0.00,-0.46,-0.04,0.02,0.92,
0.88,0.18,0.06,-0.46,-0.04,0.02,0.92,
0.882,0.18,0.06,-0.46,-0.04,0.03,0.92,
0.884,0.18,0.06,-0.46,-0.04,0.03,0.92,
0.884,0.15,0.09,-0.43,-0.04,0.03,0.92,
0.887,0.15,0.09,-0.43,-0.04,0.03,0.92,
0.889,0.15,0.09,-0.43,-0.04,0.03,0.92,
0.889,0.13,0.14,-0.40,-0.04,0.03,0.92,
0.892,0.13,0.14,-0.40,-0.04,0.02,0.93,
0.895,0.13,0.14,-0.40,-0.04,0.02,0.93,
0.896,0.09,0.14,-0.37,-0.04,0.02,0.93,
0.897,0.09,0.14,-0.37,-0.04,0.02,0.93,
0.9,0.09,0.14,-0.37,-0.04,0.02,0.94,
0.9,0.07,0.10,-0.32,-0.04,0.02,0.94,
0.902,0.07,0.10,-0.32,-0.04,0.02,0.94,
0.904,0.09,0.06,-0.25,-0.04,0.02,0.94,
0.906,0.09,0.06,-0.25,-0.03,0.01,0.94,
0.907,0.09,0.06,-0.25,-0.03,0.01,0.94,
0.909,0.09,0.06,-0.25,-0.02,0.01,0.94,
0.91,0.16,0.02,-0.19,-0.02,0.01,0.94,
0.911,0.16,0.02,-0.19,-0.02,0.01,0.94,
0.914,0.16,0.02,-0.19,-0.01,0.01,0.94,
0.914,0.24,-0.01,-0.15,-0.01,0.01,0.94,
0.917,0.24,-0.01,-0.15,-0.01,0.01,0.94,
0.919,0.24,-0.01,-0.15,0.00,0.01,0.94,
0.919,0.34,-0.00,-0.16,0.00,0.01,0.94,
0.921,0.34,-0.00,-0.16,0.01,0.01,0.94,
0.924,0.34,-0.00,-0.16,0.02,0.02,0.94,
0.924,0.46,0.01,-0.17,0.02,0.02,0.94,
0.926,0.46,0.01,-0.17,0.03,0.02,0.94,
0.929,0.46,0.01,-0.17,0.03,0.02,0.94,
0.93,0.59,0.05,-0.19,0.03,0.02,0.94,
0.931,0.59,0.05,-0.19,0.04,0.02,0.94,
0.934,0.59,0.05,-0.19,0.05,0.02,0.93,
0.934,0.74,0.11,-0.20,0.05,0.02,0.93,
0.936,0.74,0.11,-0.20,0.05,0.02,0.93,
0.939,0.74,0.11,-0.20,0.05,0.01,0.93,
0.939,0.86,0.09,-0.22,0.05,0.01,0.93,
0.941,0.86,0.09,-0.22,0.06,0.01,0.93,
0.944,0.86,0.09,-0.22,0.06,0.01,0.92,
0.945,0.94,0.06,-0.27,0.06,0.01,0.92,
0.946,0.94,0.06,-0.27,0.06,0.01,0.92,
0.948,0.94,0.06,-0.27,0.07,0.00,0.91,
0.949,1.01,0.01,-0.33,0.07,0.00,0.91,
0.951,1.01,0.01,-0.33,0.07,0.00,0.91,
0.953,1.01,0.01,-0.33,0.08,0.00,0.90,
0.954,1.06,-0.03,-0.41,0.08,0.00,0.90,
0.955,1.06,-0.03,-0.41,0.08,0.00,0.90,
0.958,1.06,-0.03,-0.41,0.08,-0.00,0.90,
0.958,1.13,-0.05,-0.50,0.08,-0.00,0.90,
0.961,1.13,-0.05,-0.50,0.08,-0.00,0.89,
0.963,1.13,-0.05,-0.50,0.08,-0.00,0.89,
0.964,1.16,-0.08,-0.56,0.08,-0.00,0.89,
0.966,1.16,-0.08,-0.56,0.09,-0.00,0.89,
0.968,1.16,-0.08,-0.56,0.09,-0.00,0.89,
0.969,1.20,-0.11,-0.61,0.09,-0.00,0.89,
0.97,1.20,-0.11,-0.61,0.10,-0.01,0.90,
0.973,1.20,-0.11,-0.61,0.10,-0.00,0.90,
0.973,1.27,-0.12,-0.60,0.10,-0.00,0.90,
0.975,1.27,-0.12,-0.60,0.10,-0.00,0.90,
0.983,1.27,-0.12,-0.60,0.11,0.00,0.90,
0.983,1.33,-0.12,-0.58,0.11,0.00,0.90,
0.984,1.33,-0.12,-0.58,0.11,0.00,0.91,
0.984,1.33,-0.12,-0.58,0.12,0.01,0.91,
0.984,1.40,-0.07,-0.52,0.12,0.01,0.91,
0.985,1.40,-0.07,-0.52,0.12,0.01,0.92,
0.988,1.40,-0.07,-0.52,0.13,0.01,0.92,
0.988,1.48,-0.02,-0.44,0.13,0.01,0.92,
0.99,1.48,-0.02,-0.44,0.14,0.01,0.92,
0.992,1.48,-0.02,-0.44,0.14,0.01,0.92,
0.993,1.60,0.03,-0.36,0.14,0.01,0.92,
1.007,1.60,0.03,-0.36,0.15,0.01,0.92,
1.008,1.60,0.03,-0.36,0.16,0.01,0.92,
1.008,1.72,0.03,-0.32,0.16,0.01,0.92,
1.008,1.72,0.03,-0.32,0.17,0.01,0.92,
1.008,1.72,0.03,-0.32,0.18,0.01,0.91,
1.008,1.84,0.05,-0.33,0.18,0.01,0.91,
1.008,1.84,0.05,-0.33,0.18,0.01,0.92,
1.008,1.84,0.05,-0.33,0.19,0.01,0.91,
1.008,2.00,0.05,-0.37,0.19,0.01,0.91,
1.009,2.00,0.05,-0.37,0.20,0.01,0.92,
1.012,2.00,0.05,-0.37,0.20,0.01,0.92,
1.012,2.15,0.07,-0.37,0.20,0.01,0.92,
1.014,2.15,0.07,-0.37,0.20,0.01,0.92,
1.017,2.15,0.07,-0.37,0.20,0.01,0.93,
1.017,2.26,0.09,-0.34,0.20,0.01,0.93,
1.019,2.26,0.09,-0.34,0.20,0.01,0.94,
1.022,2.26,0.09,-0.34,0.20,0.01,0.94,
1.022,2.30,0.10,-0.26,0.20,0.01,0.94,
1.024,2.30,0.10,-0.26,0.19,0.01,0.95,
1.027,2.30,0.10,-0.26,0.18,0.01,0.95,
1.027,2.28,0.11,-0.13,0.18,0.01,0.95,
1.029,2.28,0.11,-0.13,0.18,0.01,0.96,
1.032,2.28,0.11,-0.13,0.17,0.01,0.97,
1.032,2.20,0.08,-0.01,0.17,0.01,0.97,
1.034,2.20,0.08,-0.01,0.17,0.01,0.97,
1.037,2.20,0.08,-0.01,0.16,0.01,0.98,
1.037,2.09,0.08,0.12,0.16,0.01,0.98,
1.039,2.09,0.08,0.12,0.16,0.01,0.98,
1.041,2.09,0.08,0.12,0.15,0.01,0.98,
1.041,2.02,0.07,0.23,0.15,0.01,0.98,
1.044,2.02,0.07,0.23,0.15,0.01,0.99,
1.046,2.02,0.07,0.23,0.15,0.01,0.99,
1.047,1.95,0.11,0.30,0.15,0.01,0.99,
1.049,1.95,0.11,0.30,0.14,0.01,0.99,
1.051,1.95,0.11,0.30,0.14,0.01,1.00,
1.051,1.88,0.12,0.36,0.14,0.01,1.00,
1.054,1.88,0.12,0.36,0.13,0.00,1.00,
1.056,1.88,0.12,0.36,0.13,-0.00,1.01,
1.056,1.81,0.09,0.44,0.13,-0.00,1.01,
1.058,1.81,0.09,0.44,0.12,-0.00,1.01,
1.066,1.81,0.09,0.44,0.12,-0.01,1.01,
1.067,1.72,0.04,0.52,0.12,-0.01,1.01,
1.067,1.72,0.04,0.52,0.12,-0.01,1.02,
1.068,1.72,0.04,0.52,0.12,-0.01,1.02,
1.068,1.67,-0.00,0.60,0.12,-0.01,1.02,
1.071,1.67,-0.00,0.60,0.12,-0.01,1.02,
1.071,1.67,-0.00,0.60,0.12,-0.01,1.03,
1.072,1.64,-0.04,0.67,0.12,-0.01,1.03,
1.073,1.64,-0.04,0.67,0.12,-0.01,1.03,
1.076,1.64,-0.04,0.67,0.13,-0.01,1.03,
1.076,1.66,-0.05,0.71,0.13,-0.01,1.03,
1.083,1.66,-0.05,0.71,0.13,-0.01,1.03,
1.083,1.66,-0.05,0.71,0.14,-0.01,1.03,
1.084,1.70,-0.04,0.72,0.14,-0.01,1.03,
1.084,1.70,-0.04,0.72,0.14,-0.01,1.03,
1.085,1.70,-0.04,0.72,0.15,-0.00,1.03,
1.085,1.80,-0.01,0.73,0.15,-0.00,1.03,
1.088,1.80,-0.01,0.73,0.15,0.00,1.03,
1.09,1.80,-0.01,0.73,0.16,0.00,1.03,
1.09,1.90,0.05,0.75,0.16,0.00,1.03,
1.092,1.90,0.05,0.75,0.17,0.01,1.03,
1.095,1.90,0.05,0.75,0.17,0.01,1.03,
1.095,2.01,0.12,0.75,0.17,0.01,1.03,
1.097,2.01,0.12,0.75,0.17,0.01,1.03,
1.1,2.01,0.12,0.75,0.18,0.01,1.02,
1.1,2.10,0.19,0.74,0.18,0.01,1.02,
1.102,2.10,0.19,0.74,0.18,0.02,1.02,
1.105,2.10,0.19,0.74,0.17,0.02,1.02,
1.105,2.16,0.26,0.70,0.17,0.02,1.02,
1.107,2.16,0.26,0.70,0.17,0.02,1.02,
1.111,2.16,0.26,0.70,0.17,0.02,1.02,
1.111,2.14,0.32,0.67,0.17,0.02,1.02,
1.113,2.14,0.32,0.67,0.16,0.02,1.02,
1.115,2.14,0.32,0.67,0.16,0.03,1.02,
1.115,2.07,0.38,0.68,0.16,0.03,1.02,
1.117,2.07,0.38,0.68,0.16,0.03,1.02,
1.119,2.07,0.38,0.68,0.15,0.03,1.02,
1.12,2.00,0.42,0.67,0.15,0.03,1.02,
1.122,2.00,0.42,0.67,0.15,0.03,1.02,
1.125,2.00,0.42,0.67,0.14,0.03,1.03,
1.125,1.89,0.45,0.68,0.14,0.03,1.03,
1.127,1.89,0.45,0.68,0.14,0.03,1.03,
1.13,1.89,0.45,0.68,0.13,0.03,1.03,
1.13,1.79,0.50,0.71,0.13,0.03,1.03,
1.132,1.79,0.50,0.71,0.13,0.03,1.04,
1.134,1.79,0.50,0.71,0.12,0.03,1.04,
1.135,1.70,0.53,0.76,0.12,0.03,1.04,
1.137,1.70,0.53,0.76,0.12,0.03,1.04,
1.14,1.70,0.53,0.76,0.11,0.03,1.04,
1.14,1.56,0.54,0.81,0.11,0.03,1.04,
1.142,1.56,0.54,0.81,0.11,0.03,1.05,
1.145,1.56,0.54,0.81,0.11,0.03,1.05,
1.146,1.47,0.53,0.85,0.11,0.03,1.05,
1.147,1.47,0.53,0.85,0.10,0.03,1.05,
1.15,1.47,0.53,0.85,0.10,0.03,1.05,
1.15,1.40,0.57,0.93,0.10,0.03,1.05,
1.151,1.40,0.57,0.93,0.10,0.02,1.06,
1.154,1.40,0.57,0.93,0.11,0.02,1.06,
1.154,1.34,0.53,0.98,0.11,0.02,1.06,
1.157,1.34,0.53,0.98,0.11,0.01,1.05,
1.159,1.34,0.53,0.98,0.11,0.01,1.05,
1.159,1.35,0.45,0.99,0.11,0.01,1.05,
1.166,1.35,0.45,0.99,0.12,0.01,1.05,
1.166,1.35,0.45,0.99,0.13,0.01,1.05,
1.166,1.39,0.40,0.97,0.13,0.01,1.05,
1.166,1.39,0.40,0.97,0.13,0.00,1.04,
1.169,1.39,0.40,0.97,0.14,0.00,1.03,
1.169,1.49,0.35,0.91,0.14,0.00,1.03,
1.171,1.49,0.35,0.91,0.15,0.00,1.03,
1.174,1.49,0.35,0.91,0.16,0.00,1.02,
1.174,1.62,0.32,0.81,0.16,0.00,1.02,
1.177,1.62,0.32,0.81,0.17,0.00,1.02,
1.179,1.62,0.32,0.81,0.17,-0.00,1.01,
1.179,1.77,0.30,0.69,0.17,-0.00,1.01,
1.181,1.77,0.30,0.69,0.17,-0.00,1.01,
1.183,1.77,0.30,0.69,0.17,-0.01,1.01,
1.183,1.89,0.30,0.59,0.17,-0.01,1.01,
1.186,1.89,0.30,0.59,0.18,-0.01,1.00,
1.188,1.89,0.30,0.59,0.17,-0.01,1.00,
1.188,1.92,0.26,0.52,0.17,-0.01,1.00,
1.191,1.92,0.26,0.52,0.17,-0.01,1.00,
1.193,1.92,0.26,0.52,0.17,-0.01,1.00,
1.193,1.94,0.24,0.46,0.17,-0.01,1.00,
1.195,1.94,0.24,0.46,0.16,-0.01,1.00,
1.198,1.94,0.24,0.46,0.15,-0.01,1.00,
1.198,1.88,0.24,0.44,0.15,-0.01,1.00,
1.2,1.88,0.24,0.44,0.15,-0.00,1.00,
1.203,1.88,0.24,0.44,0.14,0.00,1.01,
1.203,1.76,0.25,0.44,0.14,0.00,1.01,
1.205,1.76,0.25,0.44,0.13,0.00,1.01,
1.208,1.76,0.25,0.44,0.12,0.00,1.01,
1.208,1.62,0.31,0.49,0.12,0.00,1.01,
1.21,1.62,0.31,0.49,0.11,0.01,1.02,
1.213,1.62,0.31,0.49,0.11,0.01,1.02,
1.213,1.46,0.34,0.54,0.11,0.01,1.02,
1.215,1.46,0.34,0.54,0.10,0.01,1.03,
1.217,1.46,0.34,0.54,0.09,0.01,1.03,
1.218,1.28,0.40,0.62,0.09,0.01,1.03,
1.22,1.28,0.40,0.62,0.08,0.02,1.04,
1.222,1.28,0.40,0.62,0.07,0.02,1.05,
1.223,1.11,0.47,0.74,0.07,0.02,1.05,
1.225,1.11,0.47,0.74,0.07,0.02,1.05,
1.227,1.11,0.47,0.74,0.06,0.02,1.06,
1.228,0.95,0.53,0.87,0.06,0.02,1.06,
1.23,0.95,0.53,0.87,0.06,0.02,1.06,
1.232,0.95,0.53,0.87,0.05,0.02,1.07,
1.232,0.84,0.56,0.98,0.05,0.02,1.07,
1.235,0.84,0.56,0.98,0.05,0.02,1.07,
1.237,0.84,0.56,0.98,0.05,0.02,1.07,
1.237,0.72,0.55,1.06,0.05,0.02,1.07,
1.239,0.72,0.55,1.06,0.04,0.02,1.07,
1.243,0.72,0.55,1.06,0.04,0.02,1.08,
1.243,0.64,0.59,1.12,0.04,0.02,1.08,
1.244,0.64,0.59,1.12,0.04,0.01,1.08,
1.247,0.64,0.59,1.12,0.04,0.01,1.08,
1.247,0.57,0.55,1.17,0.04,0.01,1.08,
1.249,0.57,0.55,1.17,0.05,0.01,1.08,
1.252,0.57,0.55,1.17,0.05,0.00,1.07,
1.252,0.57,0.50,1.20,0.05,0.00,1.07,
1.254,0.57,0.50,1.20,0.06,0.00,1.07,
1.257,0.57,0.50,1.20,0.07,-0.00,1.06,
1.257,0.61,0.45,1.16,0.07,-0.00,1.06,
1.26,0.61,0.45,1.16,0.08,-0.01,1.05,
1.262,0.61,0.45,1.16,0.08,-0.01,1.05,
1.262,0.74,0.38,1.07,0.08,-0.01,1.05,
1.264,0.74,0.38,1.07,0.09,-0.01,1.04,
1.267,0.74,0.38,1.07,0.10,-0.01,1.04,
1.267,0.86,0.34,0.93,0.10,-0.01,1.04,
1.269,0.86,0.34,0.93,0.10,-0.01,1.03,
1.271,0.86,0.34,0.93,0.10,-0.01,1.03,
1.272,1.00,0.33,0.81,0.10,-0.01,1.03,
1.274,1.00,0.33,0.81,0.10,-0.01,1.03,
1.282,1.00,0.33,0.81,0.11,-0.01,1.02,
1.283,1.06,0.34,0.71,0.11,-0.01,1.02,
1.284,1.06,0.34,0.71,0.11,-0.01,1.02,
1.285,1.06,0.34,0.71,0.10,-0.02,1.02,
1.285,1.08,0.31,0.66,0.10,-0.02,1.02,
1.285,1.08,0.31,0.66,0.10,-0.02,1.02,
1.286,1.08,0.31,0.66,0.09,-0.01,1.02,
1.287,1.07,0.27,0.62,0.09,-0.01,1.02,
1.288,1.07,0.27,0.62,0.08,-0.01,1.03,
1.291,1.07,0.27,0.62,0.08,-0.01,1.03,
1.291,0.96,0.26,0.63,0.08,-0.01,1.03,
1.295,0.96,0.26,0.63,0.07,-0.01,1.03,
1.296,0.96,0.26,0.63,0.05,-0.00,1.04,
1.296,0.81,0.30,0.70,0.05,-0.00,1.04,
1.298,0.81,0.30,0.70,0.04,-0.00,1.05,
1.301,0.81,0.30,0.70,0.03,0.00,1.05,
1.301,0.61,0.37,0.78,0.03,0.00,1.05,
1.303,0.61,0.37,0.78,0.02,0.00,1.06,
1.306,0.61,0.37,0.78,0.00,0.01,1.07,
1.306,0.35,0.43,0.90,0.00,0.01,1.07,
1.308,0.35,0.43,0.90,-0.01,0.01,1.07,
1.311,0.35,0.43,0.90,-0.02,0.02,1.07,
1.311,0.09,0.47,1.04,-0.02,0.02,1.07,
1.313,0.09,0.47,1.04,-0.03,0.02,1.08,
1.316,0.09,0.47,1.04,-0.03,0.03,1.08,
1.316,-0.14,0.57,1.13,-0.03,0.03,1.08,
1.318,-0.14,0.57,1.13,-0.04,0.03,1.08,
1.32,-0.14,0.57,1.13,-0.05,0.04,1.09,
1.32,-0.31,0.67,1.20,-0.05,0.04,1.09,
1.323,-0.31,0.67,1.20,-0.05,0.04,1.09,
1.325,-0.31,0.67,1.20,-0.05,0.04,1.09,
1.326,-0.45,0.75,1.25,-0.05,0.04,1.09,
1.328,-0.45,0.75,1.25,-0.05,0.04,1.09,
1.33,-0.45,0.75,1.25,-0.06,0.04,1.09,
1.33,-0.53,0.80,1.27,-0.06,0.04,1.09,
1.333,-0.53,0.80,1.27,-0.06,0.05,1.09,
1.335,-0.53,0.80,1.27,-0.06,0.05,1.09,
1.335,-0.56,0.85,1.30,-0.06,0.05,1.09,
1.337,-0.56,0.85,1.30,-0.06,0.05,1.09,
1.34,-0.56,0.85,1.30,-0.05,0.04,1.09,
1.34,-0.60,0.87,1.29,-0.05,0.04,1.09,
1.343,-0.60,0.87,1.29,-0.05,0.04,1.08,
1.346,-0.60,0.87,1.29,-0.05,0.04,1.08,
1.347,-0.61,0.84,1.26,-0.05,0.04,1.08,
1.348,-0.61,0.84,1.26,-0.05,0.03,1.07,
1.35,-0.62,0.78,1.17,-0.05,0.03,1.07,
1.35,-0.62,0.78,1.17,-0.05,0.02,1.06,
1.352,-0.62,0.78,1.17,-0.05,0.02,1.06,
1.355,-0.62,0.65,1.06,-0.05,0.02,1.06,
1.355,-0.62,0.65,1.06,-0.04,0.01,1.05,
1.357,-0.62,0.65,1.06,-0.04,0.00,1.04,
1.36,-0.62,0.65,1.06,-0.04,-0.00,1.03,
1.361,-0.57,0.52,0.91,-0.04,-0.00,1.03,
1.362,-0.57,0.52,0.91,-0.03,-0.01,1.02,
1.365,-0.57,0.52,0.91,-0.02,-0.01,1.01,
1.365,-0.52,0.39,0.74,-0.02,-0.01,1.01,
1.367,-0.52,0.39,0.74,-0.02,-0.02,1.00,
1.369,-0.52,0.39,0.74,-0.01,-0.02,0.99,
1.37,-0.43,0.30,0.55,-0.01,-0.02,0.99,
1.372,-0.43,0.30,0.55,-0.01,-0.03,0.99,
1.375,-0.43,0.30,0.55,-0.01,-0.03,0.98,
1.375,-0.36,0.18,0.39,-0.01,-0.03,0.98,
1.382,-0.36,0.18,0.39,-0.01,-0.03,0.97,
1.383,-0.36,0.18,0.39,-0.00,-0.04,0.97,
1.383,-0.30,0.10,0.24,-0.00,-0.04,0.97,
1.383,-0.30,0.10,0.24,-0.00,-0.04,0.97,
1.384,-0.30,0.10,0.24,-0.00,-0.04,0.97,
1.385,-0.29,0.05,0.14,-0.00,-0.04,0.97,
1.387,-0.29,0.05,0.14,-0.00,-0.04,0.98,
1.389,-0.29,0.05,0.14,-0.01,-0.03,0.98,
1.389,-0.29,0.02,0.14,-0.01,-0.03,0.98,
1.391,-0.29,0.02,0.14,-0.01,-0.03,0.99,
1.398,-0.29,0.02,0.14,-0.02,-0.03,0.99,
1.4,-0.32,0.05,0.20,-0.02,-0.03,0.99,
1.4,-0.32,0.05,0.20,-0.03,-0.02,1.00,
1.4,-0.32,0.05,0.20,-0.03,-0.02,1.00,
1.4,-0.45,0.11,0.29,-0.03,-0.02,1.00,
1.401,-0.45,0.11,0.29,-0.04,-0.02,1.01,
1.404,-0.45,0.11,0.29,-0.04,-0.01,1.02,
1.404,-0.61,0.21,0.42,-0.04,-0.01,1.02,
1.406,-0.61,0.21,0.42,-0.05,-0.00,1.02,
1.409,-0.61,0.21,0.42,-0.05,-0.00,1.03,
1.409,-0.74,0.28,0.54,-0.05,-0.00,1.03,
1.411,-0.74,0.28,0.54,-0.06,0.00,1.03,
1.414,-0.74,0.28,0.54,-0.06,0.01,1.04,
1.414,-0.86,0.38,0.65,-0.06,0.01,1.04,
1.416,-0.86,0.38,0.65,-0.06,0.01,1.04,
1.418,-0.86,0.38,0.65,-0.06,0.01,1.05,
1.418,-0.93,0.45,0.76,-0.06,0.01,1.05,
1.421,-0.93,0.45,0.76,-0.06,0.01,1.05,
1.423,-0.93,0.45,0.76,-0.06,0.01,1.06,
1.423,-0.99,0.49,0.85,-0.06,0.01,1.06,
1.426,-0.99,0.49,0.85,-0.06,0.00,1.06,
1.429,-0.99,0.49,0.85,-0.06,0.00,1.06,
1.429,-1.01,0.47,0.93,-0.06,0.00,1.06,
1.431,-1.01,0.47,0.93,-0.06,-0.00,1.06,
1.433,-1.01,0.47,0.93,-0.06,-0.01,1.06,
1.433,-1.03,0.44,0.99,-0.06,-0.01,1.06,
1.435,-1.03,0.44,0.99,-0.06,-0.01,1.06,
1.438,-1.03,0.44,0.99,-0.06,-0.02,1.05,
1.439,-1.02,0.36,0.98,-0.06,-0.02,1.05,
1.44,-1.02,0.36,0.98,-0.06,-0.02,1.05,
1.443,-1.02,0.36,0.98,-0.05,-0.03,1.04,
1.444,-1.01,0.24,0.95,-0.05,-0.03,1.04,
1.445,-1.01,0.24,0.95,-0.05,-0.04,1.04,
1.448,-1.01,0.24,0.95,-0.04,-0.04,1.03,
1.448,-0.99,0.13,0.86,-0.04,-0.04,1.03,
1.45,-0.99,0.13,0.86,-0.04,-0.05,1.03,
1.453,-0.99,0.13,0.86,-0.04,-0.05,1.02,
1.453,-0.92,0.00,0.76,-0.04,-0.05,1.02,
1.455,-0.92,0.00,0.76,-0.04,-0.06,1.01,
1.458,-0.92,0.00,0.76,-0.03,-0.07,1.00,
1.458,-0.84,-0.12,0.60,-0.03,-0.07,1.00,
1.46,-0.84,-0.12,0.60,-0.03,-0.07,0.99,
1.462,-0.84,-0.12,0.60,-0.03,-0.07,0.98,
1.463,-0.82,-0.24,0.42,-0.03,-0.07,0.98,
1.465,-0.82,-0.24,0.42,-0.02,-0.08,0.97,
1.468,-0.82,-0.24,0.42,-0.02,-0.08,0.96,
1.468,-0.76,-0.34,0.25,-0.02,-0.08,0.96,
1.47,-0.76,-0.34,0.25,-0.02,-0.08,0.96,
1.472,-0.76,-0.34,0.25,-0.02,-0.08,0.95,
1.473,-0.72,-0.41,0.08,-0.02,-0.08,0.95,
1.474,-0.72,-0.41,0.08,-0.02,-0.08,0.95,
1.482,-0.72,-0.41,0.08,-0.03,-0.08,0.95,
1.483,-0.75,-0.42,-0.03,-0.03,-0.08,0.95,
1.483,-0.75,-0.42,-0.03,-0.03,-0.07,0.95,
1.484,-0.75,-0.42,-0.03,-0.03,-0.07,0.95,
1.484,-0.79,-0.41,-0.10,-0.03,-0.07,0.95,
1.485,-0.79,-0.41,-0.10,-0.04,-0.07,0.95,
1.487,-0.79,-0.41,-0.10,-0.04,-0.06,0.95,
1.487,-0.86,-0.35,-0.09,-0.04,-0.06,0.95,
1.489,-0.86,-0.35,-0.09,-0.04,-0.06,0.95,
1.497,-0.86,-0.35,-0.09,-0.04,-0.06,0.95,
1.497,-0.92,-0.31,-0.10,-0.04,-0.06,0.95,
1.498,-0.92,-0.31,-0.10,-0.04,-0.06,0.95,
1.498,-0.92,-0.31,-0.10,-0.04,-0.06,0.95,
1.498,-0.95,-0.28,-0.07,-0.04,-0.06,0.95,
1.499,-0.95,-0.28,-0.07,-0.04,-0.06,0.95,
1.502,-0.95,-0.28,-0.07,-0.04,-0.05,0.95,
1.502,-0.98,-0.23,-0.08,-0.04,-0.05,0.95,
1.504,-0.98,-0.23,-0.08,-0.04,-0.05,0.95,
1.506,-0.98,-0.23,-0.08,-0.04,-0.06,0.95,
1.507,-0.99,-0.21,-0.05,-0.04,-0.06,0.95,
1.509,-0.99,-0.21,-0.05,-0.05,-0.06,0.95,
1.511,-0.99,-0.21,-0.05,-0.05,-0.06,0.95,
1.511,-1.03,-0.23,-0.05,-0.05,-0.06,0.95,
1.514,-1.03,-0.23,-0.05,-0.05,-0.06,0.95,
1.517,-1.03,-0.23,-0.05,-0.05,-0.06,0.95,
1.517,-1.07,-0.24,-0.08,-0.05,-0.06,0.95,
1.519,-1.07,-0.24,-0.08,-0.05,-0.07,0.95,
1.521,-1.07,-0.24,-0.08,-0.04,-0.07,0.95,
1.521,-1.08,-0.30,-0.10,-0.04,-0.07,0.95,
1.524,-1.08,-0.30,-0.10,-0.04,-0.07,0.95,
1.527,-1.08,-0.30,-0.10,-0.04,-0.07,0.95,
1.527,-1.08,-0.34,-0.12,-0.04,-0.07,0.95,
1.529,-1.08,-0.34,-0.12,-0.04,-0.07,0.94,
1.532,-1.08,-0.34,-0.12,-0.04,-0.08,0.94,
1.532,-1.06,-0.39,-0.12,-0.04,-0.08,0.94,
1.533,-1.06,-0.39,-0.12,-0.04,-0.08,0.94,
1.536,-1.06,-0.39,-0.12,-0.03,-0.08,0.94,
1.536,-1.03,-0.43,-0.15,-0.03,-0.08,0.94,
1.538,-1.03,-0.43,-0.15,-0.03,-0.08,0.94,
1.541,-1.03,-0.43,-0.15,-0.04,-0.08,0.94,
1.542,-1.02,-0.44,-0.18,-0.04,-0.08,0.94,
1.544,-1.02,-0.44,-0.18,-0.03,-0.08,0.94,
1.546,-1.02,-0.44,-0.18,-0.03,-0.08,0.94,
1.546,-1.01,-0.47,-0.20,-0.03,-0.08,0.94,
1.548,-1.01,-0.47,-0.20,-0.04,-0.09,0.94,
1.551,-1.01,-0.47,-0.20,-0.04,-0.09,0.94,
1.551,-1.01,-0.50,-0.21,-0.04,-0.09,0.94,
1.553,-1.01,-0.50,-0.21,-0.04,-0.09,0.94,
1.556,-1.01,-0.50,-0.21,-0.04,-0.09,0.94,
1.556,-1.03,-0.56,-0.19,-0.04,-0.09,0.94,
1.558,-1.03,-0.56,-0.19,-0.04,-0.10,0.94,
1.561,-1.03,-0.56,-0.19,-0.04,-0.10,0.94,
1.561,-1.06,-0.62,-0.19,-0.04,-0.10,0.94,
1.563,-1.06,-0.62,-0.19,-0.04,-0.10,0.94,
1.565,-1.06,-0.62,-0.19,-0.04,-0.10,0.94,
1.566,-1.10,-0.66,-0.20,-0.04,-0.10,0.94,
1.568,-1.10,-0.66,-0.20,-0.04,-0.10,0.94,
1.57,-1.10,-0.66,-0.20,-0.05,-0.10,0.94,
1.571,-1.11,-0.67,-0.20,-0.05,-0.10,0.94,
1.573,-1.11,-0.67,-0.20,-0.05,-0.09,0.95,
1.581,-1.11,-0.67,-0.20,-0.05,-0.09,0.95,
1.581,-1.12,-0.66,-0.17,-0.05,-0.09,0.95,
1.582,-1.12,-0.66,-0.17,-0.05,-0.09,0.95,
1.582,-1.12,-0.66,-0.17,-0.04,-0.09,0.96,
1.582,-1.15,-0.63,-0.09,-0.04,-0.09,0.96,
1.582,-1.15,-0.63,-0.09,-0.04,-0.09,0.96,
1.585,-1.15,-0.63,-0.09,-0.04,-0.09,0.97,
1.586,-1.13,-0.59,-0.02,-0.04,-0.09,0.97,
1.587,-1.13,-0.59,-0.02,-0.04,-0.09,0.97,
1.59,-1.13,-0.59,-0.02,-0.04,-0.09,0.97,
1.59,-1.09,-0.58,0.06,-0.04,-0.09,0.97,
1.597,-1.09,-0.58,0.06,-0.04,-0.09,0.96,
1.597,-1.09,-0.58,0.06,-0.03,-0.09,0.96,
1.597,-1.07,-0.58,0.09,-0.03,-0.09,0.96,
1.598,-1.07,-0.58,0.09,-0.03,-0.09,0.95,
1.6,-1.07,-0.58,0.09,-0.04,-0.09,0.95,
1.6,-1.05,-0.60,0.04,-0.04,-0.09,0.95,
1.602,-1.05,-0.60,0.04,-0.03,-0.09,0.94,
1.604,-1.05,-0.60,0.04,-0.03,-0.08,0.94,
1.605,-1.05,-0.60,-0.06,-0.03,-0.08,0.94,
1.607,-1.05,-0.60,-0.06,-0.03,-0.08,0.93,
1.609,-1.05,-0.60,-0.06,-0.02,-0.08,0.92,
1.61,-1.01,-0.55,-0.18,-0.02,-0.08,0.92,
1.612,-1.01,-0.55,-0.18,-0.02,-0.07,0.92,
1.614,-1.01,-0.55,-0.18,-0.02,-0.07,0.92,
1.615,-0.95,-0.51,-0.31,-0.02,-0.07,0.92,
1.617,-0.95,-0.51,-0.31,-0.02,-0.07,0.92,
1.619,-0.95,-0.51,-0.31,-0.02,-0.06,0.91,
1.62,-0.93,-0.45,-0.39,-0.02,-0.06,0.91,
1.621,-0.93,-0.45,-0.39,-0.02,-0.06,0.92,
1.624,-0.93,-0.45,-0.39,-0.03,-0.06,0.92,
1.624,-0.93,-0.38,-0.41,-0.03,-0.06,0.92,
1.626,-0.93,-0.38,-0.41,-0.04,-0.05,0.92,
1.629,-0.93,-0.38,-0.41,-0.04,-0.05,0.93,
1.63,-1.01,-0.33,-0.39,-0.04,-0.05,0.93,
1.631,-1.01,-0.33,-0.39,-0.05,-0.05,0.93,
1.634,-1.01,-0.33,-0.39,-0.06,-0.04,0.94,
1.634,-1.13,-0.26,-0.32,-0.06,-0.04,0.94,
1.636,-1.13,-0.26,-0.32,-0.06,-0.04,0.94,
1.639,-1.13,-0.26,-0.32,-0.07,-0.04,0.94,
1.639,-1.26,-0.19,-0.23,-0.07,-0.04,0.94,
1.643,-1.26,-0.19,-0.23,-0.07,-0.04,0.94,
1.644,-1.26,-0.19,-0.23,-0.08,-0.04,0.94,
1.644,-1.39,-0.18,-0.16,-0.08,-0.04,0.94,
1.646,-1.39,-0.18,-0.16,-0.08,-0.04,0.94,
1.648,-1.39,-0.18,-0.16,-0.08,-0.04,0.94,
1.649,-1.48,-0.19,-0.18,-0.08,-0.04,0.94,
1.651,-1.48,-0.19,-0.18,-0.08,-0.04,0.93,
1.654,-1.48,-0.19,-0.18,-0.08,-0.04,0.93,
1.654,-1.54,-0.18,-0.20,-0.08,-0.04,0.93,
1.656,-1.54,-0.18,-0.20,-0.08,-0.04,0.93,
1.659,-1.54,-0.18,-0.20,-0.08,-0.04,0.93,
1.659,-1.55,-0.16,-0.27,-0.08,-0.04,0.93,
1.661,-1.55,-0.16,-0.27,-0.07,-0.04,0.93,
1.663,-1.55,-0.16,-0.27,-0.07,-0.04,0.93,
1.664,-1.53,-0.14,-0.30,-0.07,-0.04,0.93,
1.666,-1.53,-0.14,-0.30,-0.07,-0.04,0.93,
1.668,-1.53,-0.14,-0.30,-0.07,-0.04,0.93,
1.668,-1.46,-0.15,-0.29,-0.07,-0.04,0.93,
1.671,-1.46,-0.15,-0.29,-0.07,-0.04,0.94,
1.673,-1.46,-0.15,-0.29,-0.06,-0.03,0.94,
1.674,-1.41,-0.13,-0.25,-0.06,-0.03,0.94,
1.681,-1.41,-0.13,-0.25,-0.06,-0.03,0.94,
1.681,-1.41,-0.13,-0.25,-0.06,-0.03,0.95,
1.681,-1.38,-0.11,-0.18,-0.06,-0.03,0.95,
1.682,-1.38,-0.11,-0.18,-0.06,-0.03,0.95,
1.683,-1.38,-0.11,-0.18,-0.06,-0.03,0.95,
1.683,-1.37,-0.09,-0.11,-0.06,-0.03,0.95,
1.685,-1.37,-0.09,-0.11,-0.06,-0.03,0.96,
1.688,-1.37,-0.09,-0.11,-0.06,-0.03,0.96,
1.688,-1.35,-0.09,-0.04,-0.06,-0.03,0.96,
1.69,-1.35,-0.09,-0.04,-0.06,-0.04,0.96,
1.696,-1.35,-0.09,-0.04,-0.06,-0.03,0.95,
1.696,-1.33,-0.09,0.01,-0.06,-0.03,0.95,
1.696,-1.33,-0.09,0.01,-0.06,-0.03,0.95,
1.697,-1.33,-0.09,0.01,-0.06,-0.03,0.95,
1.697,-1.37,-0.09,-0.02,-0.06,-0.03,0.95,
1.7,-1.37,-0.09,-0.02,-0.07,-0.03,0.94,
1.702,-1.37,-0.09,-0.02,-0.07,-0.03,0.94,
1.702,-1.38,-0.09,-0.07,-0.07,-0.03,0.94,
1.705,-1.38,-0.09,-0.07,-0.07,-0.03,0.93,
1.707,-1.38,-0.09,-0.07,-0.07,-0.03,0.93,
1.707,-1.41,-0.08,-0.16,-0.07,-0.03,0.93,
1.709,-1.41,-0.08,-0.16,-0.07,-0.02,0.93,
1.712,-1.41,-0.08,-0.16,-0.08,-0.02,0.93,
1.712,-1.45,-0.05,-0.24,-0.08,-0.02,0.93,
1.714,-1.45,-0.05,-0.24,-0.08,-0.02,0.93,
1.717,-1.45,-0.05,-0.24,-0.08,-0.01,0.93,
1.717,-1.50,0.04,-0.26,-0.08,-0.01,0.93,
1.719,-1.50,0.04,-0.26,-0.09,-0.01,0.93,
1.722,-1.50,0.04,-0.26,-0.09,-0.01,0.94,
1.722,-1.55,0.13,-0.25,-0.09,-0.01,0.94,
1.725,-1.55,0.13,-0.25,-0.10,-0.01,0.94,
1.727,-1.55,0.13,-0.25,-0.10,-0.01,0.95,
1.727,-1.63,0.19,-0.19,-0.10,-0.01,0.95,
1.729,-1.63,0.19,-0.19,-0.10,-0.01,0.95,
1.732,-1.63,0.19,-0.19,-0.10,-0.01,0.96,
1.732,-1.69,0.20,-0.10,-0.10,-0.01,0.96,
1.734,-1.69,0.20,-0.10,-0.11,-0.01,0.97,
1.737,-1.69,0.20,-0.10,-0.11,-0.01,0.97,
1.737,-1.74,0.19,0.02,-0.11,-0.01,0.97,
1.739,-1.74,0.19,0.02,-0.11,-0.01,0.97,
1.742,-1.74,0.19,0.02,-0.11,-0.01,0.98,
1.742,-1.76,0.21,0.14,-0.11,-0.01,0.98,
1.744,-1.76,0.21,0.14,-0.11,-0.01,0.98,
1.746,-1.76,0.21,0.14,-0.11,-0.01,0.99,
1.746,-1.75,0.20,0.21,-0.11,-0.01,0.99,
1.749,-1.75,0.20,0.21,-0.10,-0.01,1.00,
1.751,-1.75,0.20,0.21,-0.10,-0.01,1.00,
1.751,-1.73,0.25,0.32,-0.10,-0.01,1.00,
1.754,-1.73,0.25,0.32,-0.10,-0.01,1.01,
1.757,-1.73,0.25,0.32,-0.10,-0.01,1.01,
1.757,-1.65,0.28,0.44,-0.10,-0.01,1.01,
1.759,-1.65,0.28,0.44,-0.09,-0.01,1.01,
1.762,-1.65,0.28,0.44,-0.09,-0.01,1.02,
1.762,-1.60,0.29,0.51,-0.09,-0.01,1.02,
1.764,-1.60,0.29,0.51,-0.09,-0.00,1.02,
1.766,-1.60,0.29,0.51,-0.09,-0.00,1.02,
1.766,-1.55,0.29,0.56,-0.09,-0.00,1.02,
1.768,-1.55,0.29,0.56,-0.09,-0.00,1.02,
1.771,-1.55,0.29,0.56,-0.09,0.00,1.02,
1.771,-1.52,0.32,0.59,-0.09,0.00,1.02,
1.774,-1.52,0.32,0.59,-0.08,0.00,1.02,
1.781,-1.52,0.32,0.59,-0.08,0.00,1.01,
1.781,-1.48,0.36,0.59,-0.08,0.00,1.01,
1.782,-1.48,0.36,0.59,-0.08,0.01,1.01,
1.782,-1.48,0.36,0.59,-0.08,0.01,1.01,
1.782,-1.40,0.40,0.55,-0.08,0.01,1.01,
1.783,-1.40,0.40,0.55,-0.07,0.01,1.00,
1.786,-1.40,0.40,0.55,-0.07,0.01,1.00,
1.786,-1.34,0.43,0.49,-0.07,0.01,1.00,
1.788,-1.34,0.43,0.49,-0.07,0.00,0.99,
1.794,-1.34,0.43,0.49,-0.07,0.01,0.99,
1.795,-1.30,0.43,0.40,-0.07,0.01,0.99,
1.795,-1.30,0.43,0.40,-0.08,0.01,0.98,
1.795,-1.30,0.43,0.40,-0.08,0.01,0.98,
1.796,-1.29,0.43,0.29,-0.08,0.01,0.98,
1.798,-1.29,0.43,0.29,-0.08,0.01,0.97,
1.8,-1.29,0.43,0.29,-0.09,0.01,0.97,
1.8,-1.33,0.44,0.21,-0.09,0.01,0.97,
1.803,-1.33,0.44,0.21,-0.09,0.01,0.97,
1.805,-1.33,0.44,0.21,-0.10,0.02,0.97,
1.805,-1.40,0.46,0.13,-0.10,0.02,0.97,
1.808,-1.40,0.46,0.13,-0.10,0.02,0.97,
1.81,-1.40,0.46,0.13,-0.11,0.02,0.97,
1.811,-1.46,0.51,0.11,-0.11,0.02,0.97,
1.812,-1.46,0.51,0.11,-0.12,0.02,0.97,
1.815,-1.46,0.51,0.11,-0.12,0.03,0.98,
1.815,-1.56,0.57,0.10,-0.12,0.03,0.98,
1.817,-1.56,0.57,0.10,-0.13,0.03,0.98,
1.82,-1.56,0.57,0.10,-0.14,0.03,0.98,
1.82,-1.66,0.64,0.15,-0.14,0.03,0.98,
1.822,-1.66,0.64,0.15,-0.14,0.04,0.99,
1.825,-1.66,0.64,0.15,-0.14,0.04,1.00,
1.825,-1.77,0.70,0.22,-0.14,0.04,1.00,
1.827,-1.77,0.70,0.22,-0.15,0.04,1.00,
1.83,-1.77,0.70,0.22,-0.15,0.05,1.01,
1.83,-1.82,0.78,0.34,-0.15,0.05,1.01,
1.832,-1.82,0.78,0.34,-0.15,0.05,1.02,
1.835,-1.82,0.78,0.34,-0.15,0.05,1.02,
1.835,-1.88,0.84,0.46,-0.15,0.05,1.02,
1.837,-1.88,0.84,0.46,-0.15,0.05,1.03,
1.84,-1.88,0.84,0.46,-0.14,0.06,1.04,
1.84,-1.87,0.89,0.59,-0.14,0.06,1.04,
1.842,-1.87,0.89,0.59,-0.14,0.06,1.04,
1.845,-1.87,0.89,0.59,-0.13,0.06,1.04,
1.845,-1.80,0.94,0.70,-0.13,0.06,1.04,
1.847,-1.80,0.94,0.70,-0.12,0.05,1.04,
1.849,-1.80,0.94,0.70,-0.12,0.05,1.04,
1.85,-1.66,0.97,0.77,-0.12,0.05,1.04,
1.852,-1.66,0.97,0.77,-0.11,0.05,1.04,
1.854,-1.66,0.97,0.77,-0.10,0.05,1.04,
1.855,-1.52,0.94,0.80,-0.10,0.05,1.04,
1.856,-1.52,0.94,0.80,-0.10,0.05,1.04,
1.86,-1.52,0.94,0.80,-0.09,0.04,1.03,
1.86,-1.38,0.89,0.77,-0.09,0.04,1.03,
1.862,-1.38,0.89,0.77,-0.08,0.04,1.03,
1.864,-1.38,0.89,0.77,-0.07,0.04,1.02,
1.864,-1.21,0.84,0.69,-0.07,0.04,1.02,
1.866,-1.21,0.84,0.69,-0.07,0.03,1.02,
1.869,-1.21,0.84,0.69,-0.06,0.03,1.01,
1.869,-1.05,0.77,0.60,-0.06,0.03,1.01,
1.872,-1.05,0.77,0.60,-0.06,0.03,1.01,
1.88,-1.05,0.77,0.60,-0.05,0.03,1.01,
1.881,-0.90,0.69,0.51,-0.05,0.03,1.01,
1.881,-0.90,0.69,0.51,-0.05,0.02,1.00,
1.882,-0.90,0.69,0.51,-0.05,0.02,1.00,
1.882,-0.79,0.65,0.41,-0.05,0.02,1.00,
1.882,-0.79,0.65,0.41,-0.05,0.02,1.00,
1.884,-0.79,0.65,0.41,-0.05,0.02,1.00,
1.886,-0.73,0.64,0.35,-0.05,0.02,1.00,
1.886,-0.73,0.64,0.35,-0.05,0.02,0.99,
1.888,-0.73,0.64,0.35,-0.06,0.02,0.99,
1.889,-0.72,0.62,0.31,-0.06,0.02,0.99,
1.898,-0.72,0.62,0.31,-0.06,0.02,0.99,
1.899,-0.72,0.62,0.31,-0.06,0.02,0.99,
1.899,-0.75,0.61,0.27,-0.06,0.02,0.99,
1.899,-0.75,0.61,0.27,-0.07,0.02,0.99,
1.899,-0.75,0.61,0.27,-0.07,0.03,1.00,
1.899,-0.81,0.62,0.25,-0.07,0.03,1.00,
1.901,-0.81,0.62,0.25,-0.08,0.03,1.00,
1.903,-0.81,0.62,0.25,-0.08,0.03,1.01,
1.903,-0.88,0.66,0.27,-0.08,0.03,1.01,
1.905,-0.88,0.66,0.27,-0.08,0.04,1.01,
1.908,-0.88,0.66,0.27,-0.09,0.04,1.02,
1.909,-0.93,0.73,0.36,-0.09,0.04,1.02,
1.911,-0.93,0.73,0.36,-0.09,0.05,1.03,
1.913,-0.93,0.73,0.36,-0.09,0.05,1.03,
1.914,-0.98,0.83,0.48,-0.09,0.05,1.03,
1.915,-0.98,0.83,0.48,-0.09,0.06,1.04,
1.918,-0.98,0.83,0.48,-0.08,0.06,1.04,
1.918,-1.00,0.92,0.60,-0.08,0.06,1.04,
1.92,-1.00,0.92,0.60,-0.08,0.06,1.05,
1.923,-1.00,0.92,0.60,-0.08,0.06,1.05,
1.923,-0.94,0.98,0.70,-0.08,0.06,1.05,
1.925,-0.94,0.98,0.70,-0.07,0.07,1.05,
1.928,-0.94,0.98,0.70,-0.06,0.06,1.05,
1.929,-0.87,1.02,0.76,-0.06,0.06,1.05,
1.93,-0.87,1.02,0.76,-0.06,0.06,1.05,
1.932,-0.87,1.02,0.76,-0.05,0.06,1.05,
1.933,-0.74,1.06,0.79,-0.05,0.06,1.05,
1.935,-0.74,1.06,0.79,-0.04,0.06,1.05,
1.937,-0.74,1.06,0.79,-0.04,0.06,1.04,
1.937,-0.59,1.03,0.75,-0.04,0.06,1.04,
1.941,-0.59,1.03,0.75,-0.03,0.05,1.04,
1.943,-0.59,1.03,0.75,-0.02,0.05,1.03,
1.943,-0.45,0.98,0.71,-0.02,0.05,1.03,
1.945,-0.45,0.98,0.71,-0.02,0.05,1.03,
1.947,-0.45,0.98,0.71,-0.01,0.04,1.03,
1.948,-0.31,0.89,0.61,-0.01,0.04,1.03,
1.95,-0.31,0.89,0.61,-0.01,0.04,1.02,
1.952,-0.31,0.89,0.61,-0.01,0.03,1.02,
1.952,-0.20,0.83,0.54,-0.01,0.03,1.02,
1.954,-0.20,0.83,0.54,-0.00,0.02,1.02,
1.958,-0.20,0.83,0.54,0.00,0.02,1.02,
1.958,-0.10,0.72,0.48,0.00,0.02,1.02,
1.96,-0.10,0.72,0.48,0.00,0.02,1.02,
1.962,-0.10,0.72,0.48,0.01,0.01,1.02,
1.963,0.00,0.61,0.44,0.01,0.01,1.02,
1.964,0.00,0.61,0.44,0.01,0.01,1.02,
1.967,0.00,0.61,0.44,0.01,0.01,1.02,
1.967,0.06,0.53,0.43,0.01,0.01,1.02,
1.969,0.06,0.53,0.43,0.01,0.00,1.02,
1.972,0.06,0.53,0.43,0.01,0.00,1.03,
1.972,0.11,0.47,0.44,0.01,0.00,1.03,
1.975,0.11,0.47,0.44,0.01,0.00,1.03,
1.977,0.11,0.47,0.44,0.01,-0.00,1.03,
1.977,0.13,0.44,0.50,0.01,-0.00,1.03,
1.979,0.13,0.44,0.50,0.01,-0.00,1.04,
1.982,0.13,0.44,0.50,0.01,-0.00,1.04,
1.982,0.14,0.40,0.54,0.01,-0.00,1.04,
1.984,0.14,0.40,0.54,0.01,-0.01,1.04,
1.986,0.14,0.40,0.54,0.01,-0.00,1.04,
1.987,0.18,0.37,0.63,0.01,-0.00,1.04,
1.989,0.18,0.37,0.63,0.01,-0.00,1.05,
1.997,0.18,0.37,0.63,0.01,-0.00,1.05,
1.997,0.20,0.35,0.67,0.01,-0.00,1.05,
1.998,0.20,0.35,0.67,0.02,-0.00,1.05,
1.998,0.20,0.35,0.67,0.02,-0.00,1.05,
1.998,0.20,0.38,0.70,0.02,-0.00,1.05,
1.999,0.20,0.38,0.70,0.02,-0.00,1.05,
2.001,0.20,0.38,0.70,0.02,-0.00,1.05,
2.001,0.23,0.37,0.72,0.02,-0.00,1.05,
2.003,0.23,0.37,0.72,0.03,-0.00,1.05,
2.006,0.28,0.39,0.72,0.03,-0.00,1.05,
2.006,0.28,0.39,0.72,0.03,-0.00,1.05,
2.013,0.28,0.39,0.72,0.04,-0.00,1.05,
2.013,0.28,0.39,0.72,0.04,-0.00,1.05,
2.013,0.37,0.39,0.70,0.04,-0.00,1.05,
2.013,0.37,0.39,0.70,0.04,-0.01,1.05,
2.016,0.37,0.39,0.70,0.05,-0.01,1.04,
2.016,0.43,0.37,0.67,0.05,-0.01,1.04,
2.018,0.43,0.37,0.67,0.05,-0.01,1.04,
2.021,0.43,0.37,0.67,0.05,-0.02,1.04,
2.021,0.50,0.34,0.64,0.05,-0.02,1.04,
2.023,0.50,0.34,0.64,0.06,-0.02,1.04,
2.026,0.50,0.34,0.64,0.06,-0.02,1.04,
2.026,0.58,0.29,0.61,0.06,-0.02,1.04,
2.028,0.58,0.29,0.61,0.06,-0.02,1.04,
2.031,0.58,0.29,0.61,0.06,-0.02,1.04,
2.031,0.64,0.21,0.58,0.06,-0.02,1.04,
2.033,0.64,0.21,0.58,0.06,-0.02,1.04,
2.036,0.64,0.21,0.58,0.06,-0.03,1.04,
2.036,0.69,0.17,0.56,0.06,-0.03,1.04,
2.038,0.69,0.17,0.56,0.07,-0.03,1.04,
2.041,0.69,0.17,0.56,0.07,-0.03,1.04,
2.041,0.72,0.17,0.55,0.07,-0.03,1.04,
2.043,0.72,0.17,0.55,0.07,-0.03,1.04,
2.045,0.72,0.17,0.55,0.07,-0.03,1.04,
2.045,0.75,0.14,0.58,0.07,-0.03,1.04,
2.048,0.75,0.14,0.58,0.07,-0.03,1.05,
2.05,0.75,0.14,0.58,0.07,-0.02,1.05,
2.05,0.77,0.14,0.60,0.07,-0.02,1.05,
2.052,0.77,0.14,0.60,0.06,-0.02,1.05,
2.055,0.77,0.14,0.60,0.06,-0.02,1.05,
2.055,0.77,0.17,0.64,0.06,-0.02,1.05,
2.057,0.77,0.17,0.64,0.06,-0.02,1.05,
2.06,0.77,0.17,0.64,0.06,-0.01,1.05,
2.06,0.75,0.21,0.66,0.06,-0.01,1.05,
2.062,0.75,0.21,0.66,0.05,-0.01,1.05,
2.065,0.75,0.21,0.66,0.05,-0.00,1.05,
2.065,0.73,0.28,0.66,0.05,-0.00,1.05,
2.067,0.73,0.28,0.66,0.05,-0.00,1.05,
2.07,0.73,0.28,0.66,0.05,0.00,1.05,
2.07,0.66,0.34,0.67,0.05,0.00,1.05,
2.072,0.66,0.34,0.67,0.05,0.01,1.05,
2.079,0.66,0.34,0.67,0.05,0.01,1.05,
2.08,0.62,0.39,0.62,0.05,0.01,1.05,
2.08,0.62,0.39,0.62,0.05,0.01,1.04,
2.08,0.62,0.39,0.62,0.05,0.02,1.04,
2.08,0.61,0.46,0.61,0.05,0.02,1.04,
2.082,0.61,0.46,0.61,0.05,0.02,1.04,
2.084,0.61,0.46,0.61,0.05,0.02,1.03,
2.085,0.61,0.53,0.53,0.05,0.02,1.03,
2.087,0.61,0.53,0.53,0.05,0.02,1.03,
2.089,0.61,0.53,0.53,0.06,0.02,1.03,
2.09,0.63,0.53,0.47,0.06,0.02,1.03,
2.095,0.63,0.53,0.47,0.06,0.02,1.02,
2.095,0.63,0.53,0.47,0.06,0.02,1.02,
2.096,0.68,0.53,0.40,0.06,0.02,1.02,
2.097,0.68,0.53,0.40,0.07,0.01,1.02,
2.099,0.68,0.53,0.40,0.07,0.01,1.02,
2.099,0.72,0.52,0.31,0.07,0.01,1.02,
2.101,0.72,0.52,0.31,0.07,0.01,1.02,
2.104,0.72,0.52,0.31,0.08,0.00,1.02,
2.104,0.80,0.49,0.30,0.08,0.00,1.02,
2.107,0.80,0.49,0.30,0.08,0.00,1.02,
2.109,0.80,0.49,0.30,0.08,0.00,1.02,
2.109,0.87,0.42,0.31,0.08,0.00,1.02,
2.111,0.87,0.42,0.31,0.09,-0.00,1.02,
2.114,0.87,0.42,0.31,0.09,-0.00,1.03,
2.114,0.96,0.37,0.32,0.09,-0.00,1.03,
2.116,0.96,0.37,0.32,0.09,-0.01,1.03,
2.119,0.96,0.37,0.32,0.10,-0.01,1.03,
2.119,1.02,0.32,0.38,0.10,-0.01,1.03,
2.121,1.02,0.32,0.38,0.10,-0.00,1.04,
2.124,1.02,0.32,0.38,0.10,-0.00,1.04,
2.124,1.10,0.30,0.46,0.10,-0.00,1.04,
2.126,1.10,0.30,0.46,0.11,-0.01,1.05,
2.129,1.10,0.30,0.46,0.11,-0.01,1.05,
2.129,1.16,0.31,0.53,0.11,-0.01,1.05,
2.131,1.16,0.31,0.53,0.11,-0.01,1.05,
2.133,1.16,0.31,0.53,0.11,-0.01,1.06,
2.134,1.22,0.30,0.60,0.11,-0.01,1.06,
2.136,1.22,0.30,0.60,0.11,-0.01,1.06,
2.138,1.22,0.30,0.60,0.11,-0.01,1.06,
2.139,1.27,0.27,0.67,0.11,-0.01,1.06,
2.141,1.27,0.27,0.67,0.11,-0.01,1.06,
2.143,1.27,0.27,0.67,0.11,-0.01,1.06,
2.144,1.26,0.25,0.70,0.11,-0.01,1.06,
2.146,1.26,0.25,0.70,0.11,-0.02,1.05,
2.148,1.26,0.25,0.70,0.11,-0.02,1.05,
2.149,1.25,0.20,0.68,0.11,-0.02,1.05,
2.151,1.25,0.20,0.68,0.10,-0.02,1.04,
2.153,1.25,0.20,0.68,0.10,-0.02,1.04,
2.153,1.23,0.16,0.62,0.10,-0.02,1.04,
2.155,1.23,0.16,0.62,0.10,-0.02,1.03,
2.158,1.23,0.16,0.62,0.11,-0.02,1.03,
2.158,1.21,0.11,0.50,0.11,-0.02,1.03,
2.16,1.21,0.11,0.50,0.11,-0.03,1.02,
2.163,1.21,0.11,0.50,0.11,-0.03,1.01,
2.163,1.23,0.07,0.40,0.11,-0.03,1.01,
2.165,1.23,0.07,0.40,0.11,-0.03,1.01,
2.168,1.23,0.07,0.40,0.12,-0.04,1.01,
2.168,1.26,0.02,0.29,0.12,-0.04,1.01,
2.17,1.26,0.02,0.29,0.12,-0.04,1.00,
2.173,1.34,-0.04,0.20,0.12,-0.04,1.00,
2.173,1.34,-0.04,0.20,0.13,-0.04,1.00,
2.18,1.34,-0.04,0.20,0.13,-0.04,1.00,
2.181,1.34,-0.04,0.20,0.13,-0.04,1.00,
2.181,1.42,-0.09,0.14,0.13,-0.04,1.00,
2.181,1.42,-0.09,0.14,0.13,-0.05,1.00,
2.182,1.42,-0.09,0.14,0.13,-0.05,1.00,
2.183,1.48,-0.14,0.12,0.13,-0.05,1.00,
2.185,1.48,-0.14,0.12,0.13,-0.05,1.00,
2.187,1.48,-0.14,0.12,0.13,-0.06,1.00,
2.188,1.51,-0.22,0.09,0.13,-0.06,1.00,
2.197,1.51,-0.22,0.09,0.14,-0.06,1.00,
2.197,1.51,-0.22,0.09,0.14,-0.06,1.00,
2.197,1.53,-0.28,0.09,0.14,-0.06,1.00,
2.198,1.53,-0.28,0.09,0.14,-0.06,1.00,
2.198,1.53,-0.28,0.09,0.14,-0.07,1.00,
2.198,1.56,-0.35,0.11,0.14,-0.07,1.00,
2.199,1.56,-0.35,0.11,0.14,-0.07,1.00,
2.202,1.56,-0.35,0.11,0.14,-0.07,1.00,
2.202,1.58,-0.38,0.10,0.14,-0.07,1.00,
2.204,1.58,-0.38,0.10,0.14,-0.07,1.00,
2.207,1.58,-0.38,0.10,0.14,-0.06,1.01,
2.207,1.60,-0.40,0.12,0.14,-0.06,1.01,
2.209,1.60,-0.40,0.12,0.14,-0.07,1.01,
2.212,1.60,-0.40,0.12,0.13,-0.07,1.01,
2.212,1.58,-0.39,0.17,0.13,-0.07,1.01,
2.214,1.58,-0.39,0.17,0.13,-0.07,1.01,
2.216,1.58,-0.39,0.17,0.12,-0.07,1.02,
2.217,1.53,-0.41,0.22,0.12,-0.07,1.02,
2.219,1.53,-0.41,0.22,0.12,-0.07,1.02,
2.222,1.53,-0.41,0.22,0.12,-0.07,1.02,
2.222,1.44,-0.41,0.28,0.12,-0.07,1.02,
2.224,1.44,-0.41,0.28,0.11,-0.07,1.02,
2.227,1.44,-0.41,0.28,0.11,-0.07,1.01,
2.227,1.38,-0.43,0.30,0.11,-0.07,1.01,
2.229,1.38,-0.43,0.30,0.11,-0.08,1.01,
2.231,1.38,-0.43,0.30,0.11,-0.08,1.01,
2.231,1.32,-0.49,0.27,0.11,-0.08,1.01,
2.234,1.32,-0.49,0.27,0.11,-0.08,1.01,
2.236,1.32,-0.49,0.27,0.11,-0.08,1.01,
2.236,1.29,-0.52,0.23,0.11,-0.08,1.01,
2.238,1.29,-0.52,0.23,0.11,-0.09,1.01,
2.241,1.29,-0.52,0.23,0.12,-0.09,1.00,
2.242,1.32,-0.56,0.19,0.12,-0.09,1.00,
2.244,1.32,-0.56,0.19,0.12,-0.10,1.00,
2.246,1.32,-0.56,0.19,0.13,-0.10,1.00,
2.246,1.34,-0.64,0.16,0.13,-0.10,1.00,
2.248,1.34,-0.64,0.16,0.13,-0.11,1.00,
2.251,1.34,-0.64,0.16,0.13,-0.11,1.00,
2.251,1.41,-0.75,0.14,0.13,-0.11,1.00,
2.253,1.41,-0.75,0.14,0.14,-0.12,0.99,
2.257,1.47,-0.88,0.10,0.14,-0.12,0.99,
2.258,1.47,-0.88,0.10,0.14,-0.12,0.99,
2.258,1.47,-0.88,0.10,0.14,-0.13,0.99,
2.261,1.47,-0.88,0.10,0.15,-0.13,0.99,
2.262,1.54,-0.98,0.04,0.15,-0.13,0.99,
2.263,1.54,-0.98,0.04,0.15,-0.13,0.98,
2.266,1.54,-0.98,0.04,0.15,-0.13,0.98,
2.266,1.61,-1.05,-0.01,0.15,-0.13,0.98,
2.268,1.61,-1.05,-0.01,0.15,-0.13,0.99,
2.271,1.65,-1.07,-0.04,0.15,-0.13,0.99,
2.271,1.65,-1.07,-0.04,0.15,-0.13,0.99,
2.273,1.65,-1.07,-0.04,0.15,-0.13,0.99,
2.276,1.65,-1.07,-0.04,0.14,-0.13,0.99,
2.276,1.63,-1.06,-0.02,0.14,-0.13,0.99,
2.278,1.63,-1.06,-0.02,0.14,-0.12,0.99,
2.28,1.63,-1.06,-0.02,0.13,-0.12,0.99,
2.281,1.59,-1.07,0.01,0.13,-0.12,0.99,
2.283,1.59,-1.07,0.01,0.12,-0.12,1.00,
2.285,1.59,-1.07,0.01,0.11,-0.12,1.00,
2.285,1.48,-1.02,0.05,0.11,-0.12,1.00,
2.288,1.48,-1.02,0.05,0.11,-0.11,1.00,
2.296,1.48,-1.02,0.05,0.10,-0.11,1.00,
2.296,1.33,-0.99,0.09,0.10,-0.11,1.00,
2.296,1.33,-0.99,0.09,0.10,-0.11,1.00,
2.297,1.33,-0.99,0.09,0.09,-0.11,0.99,
2.297,1.20,-0.96,0.11,0.09,-0.11,0.99,
2.297,1.20,-0.96,0.11,0.09,-0.11,0.99,
2.3,1.20,-0.96,0.11,0.09,-0.11,0.98,
2.3,1.10,-0.92,0.06,0.09,-0.11,0.98,
2.302,1.10,-0.92,0.06,0.09,-0.11,0.98,
2.305,1.10,-0.92,0.06,0.10,-0.11,0.97,
2.305,1.07,-0.91,-0.02,0.10,-0.11,0.97,
2.308,1.07,-0.91,-0.02,0.10,-0.11,0.97,
2.31,1.07,-0.91,-0.02,0.10,-0.11,0.96,
2.31,1.08,-0.95,-0.12,0.10,-0.11,0.96,
2.312,1.08,-0.95,-0.12,0.11,-0.12,0.96,
2.315,1.08,-0.95,-0.12,0.12,-0.12,0.95,
2.315,1.12,-0.96,-0.23,0.12,-0.12,0.95,
2.317,1.12,-0.96,-0.23,0.12,-0.12,0.95,
2.319,1.12,-0.96,-0.23,0.12,-0.12,0.94,
2.319,1.22,-1.00,-0.35,0.12,-0.12,0.94,
2.322,1.22,-1.00,-0.35,0.13,-0.12,0.94,
2.324,1.22,-1.00,-0.35,0.13,-0.12,0.94,
2.325,1.31,-1.03,-0.44,0.13,-0.12,0.94,
2.327,1.31,-1.03,-0.44,0.14,-0.12,0.93,
2.329,1.31,-1.03,-0.44,0.14,-0.13,0.93,
2.33,1.39,-1.08,-0.50,0.14,-0.13,0.93,
2.332,1.39,-1.08,-0.50,0.14,-0.13,0.93,
2.334,1.39,-1.08,-0.50,0.14,-0.13,0.93,
2.335,1.45,-1.11,-0.53,0.14,-0.13,0.93,
2.337,1.45,-1.11,-0.53,0.14,-0.13,0.93,
2.34,1.45,-1.11,-0.53,0.14,-0.13,0.93,
2.341,1.47,-1.16,-0.58,0.14,-0.13,0.93,
2.341,1.47,-1.16,-0.58,0.14,-0.12,0.93,
2.344,1.47,-1.16,-0.58,0.14,-0.12,0.93,
2.344,1.46,-1.12,-0.61,0.14,-0.12,0.93,
2.346,1.46,-1.12,-0.61,0.13,-0.11,0.93,
2.349,1.46,-1.12,-0.61,0.13,-0.11,0.93,
2.349,1.42,-1.06,-0.60,0.13,-0.11,0.93,
2.351,1.42,-1.06,-0.60,0.12,-0.10,0.93,
2.354,1.42,-1.06,-0.60,0.12,-0.10,0.94,
2.354,1.33,-0.97,-0.56,0.12,-0.10,0.94,
2.357,1.33,-0.97,-0.56,0.11,-0.09,0.94,
2.359,1.33,-0.97,-0.56,0.10,-0.09,0.95,
2.359,1.23,-0.86,-0.50,0.10,-0.09,0.95,
2.361,1.23,-0.86,-0.50,0.10,-0.09,0.95,
2.363,1.23,-0.86,-0.50,0.09,-0.08,0.96,
2.364,1.09,-0.78,-0.41,0.09,-0.08,0.96,
2.366,1.09,-0.78,-0.41,0.08,-0.08,0.96,
2.368,1.09,-0.78,-0.41,0.08,-0.08,0.96,
2.369,0.94,-0.72,-0.33,0.08,-0.08,0.96,
2.371,0.94,-0.72,-0.33,0.07,-0.08,0.96,
2.374,0.94,-0.72,-0.33,0.07,-0.07,0.97,
2.377,0.81,-0.67,-0.25,0.07,-0.07,0.97,
2.377,0.81,-0.67,-0.25,0.07,-0.07,0.97,
2.378,0.81,-0.67,-0.25,0.06,-0.07,0.97,
2.379,0.75,-0.64,-0.22,0.06,-0.07,0.97,
2.381,0.75,-0.64,-0.22,0.06,-0.07,0.96,
2.383,0.75,-0.64,-0.22,0.06,-0.08,0.96,
2.383,0.69,-0.61,-0.19,0.06,-0.08,0.96,
2.385,0.69,-0.61,-0.19,0.06,-0.08,0.96,
2.388,0.69,-0.61,-0.19,0.06,-0.08,0.95,
2.389,0.66,-0.65,-0.24,0.06,-0.08,0.95,
2.393,0.66,-0.65,-0.24,0.06,-0.09,0.95,
2.394,0.66,-0.65,-0.24,0.06,-0.09,0.95,
2.394,0.66,-0.71,-0.30,0.06,-0.09,0.95,
2.395,0.66,-0.71,-0.30,0.06,-0.09,0.94,
2.398,0.66,-0.71,-0.30,0.07,-0.09,0.94,
2.398,0.66,-0.75,-0.38,0.07,-0.09,0.94,
2.4,0.66,-0.75,-0.38,0.07,-0.09,0.94,
2.402,0.66,-0.75,-0.38,0.07,-0.08,0.94,
2.403,0.67,-0.77,-0.44,0.07,-0.08,0.94,
2.405,0.67,-0.77,-0.44,0.07,-0.08,0.94,
2.408,0.67,-0.77,-0.44,0.07,-0.08,0.95,
2.408,0.71,-0.75,-0.46,0.07,-0.08,0.95,
2.41,0.71,-0.75,-0.46,0.07,-0.08,0.95,
2.412,0.71,-0.75,-0.46,0.07,-0.08,0.96,
2.412,0.74,-0.72,-0.42,0.07,-0.08,0.96,
2.415,0.74,-0.72,-0.42,0.06,-0.08,0.96,
2.417,0.74,-0.72,-0.42,0.06,-0.08,0.97,
2.417,0.71,-0.69,-0.32,0.06,-0.08,0.97,
2.42,0.71,-0.69,-0.32,0.06,-0.08,0.98,
2.423,0.71,-0.69,-0.32,0.06,-0.07,0.98,
2.423,0.65,-0.66,-0.20,0.06,-0.07,0.98,
2.425,0.65,-0.66,-0.20,0.05,-0.07,0.99,
2.428,0.65,-0.66,-0.20,0.05,-0.07,0.99,
2.428,0.58,-0.64,-0.08,0.05,-0.07,0.99,
2.43,0.58,-0.64,-0.08,0.05,-0.07,0.99,
2.432,0.58,-0.64,-0.08,0.05,-0.06,1.00,
2.432,0.51,-0.60,0.03,0.05,-0.06,1.00,
2.434,0.51,-0.60,0.03,0.04,-0.06,1.00,
2.437,0.51,-0.60,0.03,0.04,-0.06,0.99,
2.437,0.46,-0.55,0.08,0.04,-0.06,0.99,
2.44,0.46,-0.55,0.08,0.04,-0.06,0.99,
2.442,0.46,-0.55,0.08,0.04,-0.06,0.99,
2.442,0.41,-0.53,0.07,0.04,-0.06,0.99,
2.444,0.41,-0.53,0.07,0.04,-0.06,0.98,
2.447,0.41,-0.53,0.07,0.04,-0.06,0.98,
2.447,0.37,-0.53,0.02,0.04,-0.06,0.98,
2.449,0.37,-0.53,0.02,0.04,-0.06,0.97,
2.452,0.37,-0.53,0.02,0.04,-0.06,0.97,
2.452,0.37,-0.52,-0.07,0.04,-0.06,0.97,
2.454,0.37,-0.52,-0.07,0.04,-0.06,0.96,
2.457,0.37,-0.52,-0.07,0.04,-0.07,0.96,
2.457,0.38,-0.54,-0.17,0.04,-0.07,0.96,
2.459,0.38,-0.54,-0.17,0.05,-0.07,0.95,
2.461,0.38,-0.54,-0.17,0.05,-0.07,0.95,
2.462,0.40,-0.55,-0.27,0.05,-0.07,0.95,
2.464,0.40,-0.55,-0.27,0.05,-0.07,0.94,
2.466,0.40,-0.55,-0.27,0.05,-0.07,0.94,
2.467,0.42,-0.56,-0.38,0.05,-0.07,0.94,
2.469,0.42,-0.56,-0.38,0.05,-0.07,0.93,
2.471,0.42,-0.56,-0.38,0.06,-0.07,0.93,
2.472,0.45,-0.59,-0.46,0.06,-0.07,0.93,
2.479,0.45,-0.59,-0.46,0.06,-0.07,0.93,
2.479,0.45,-0.59,-0.46,0.06,-0.07,0.93,
2.48,0.49,-0.59,-0.52,0.06,-0.07,0.93,
2.48,0.49,-0.59,-0.52,0.07,-0.07,0.93,
2.481,0.56,-0.59,-0.53,0.07,-0.07,0.93,
2.481,0.56,-0.59,-0.53,0.07,-0.07,0.94,
2.484,0.56,-0.59,-0.53,0.07,-0.07,0.94,
2.486,0.56,-0.59,-0.53,0.07,-0.07,0.94,
2.486,0.61,-0.58,-0.50,0.07,-0.07,0.94,
2.488,0.61,-0.58,-0.50,0.07,-0.07,0.94,
2.491,0.61,-0.58,-0.50,0.07,-0.07,0.95,
2.491,0.63,-0.56,-0.42,0.07,-0.07,0.95,
2.493,0.63,-0.56,-0.42,0.07,-0.07,0.95,
2.496,0.63,-0.56,-0.42,0.06,-0.07,0.95,
2.496,0.59,-0.55,-0.37,0.06,-0.07,0.95,
2.498,0.59,-0.55,-0.37,0.06,-0.06,0.96,
2.501,0.59,-0.55,-0.37,0.06,-0.06,0.96,
2.501,0.54,-0.52,-0.30,0.06,-0.06,0.96,
2.503,0.54,-0.52,-0.30,0.06,-0.06,0.96,
2.506,0.54,-0.52,-0.30,0.06,-0.06,0.96,
2.506,0.53,-0.48,-0.23,0.06,-0.06,0.96,
2.508,0.53,-0.48,-0.23,0.05,-0.06,0.97,
2.511,0.53,-0.48,-0.23,0.05,-0.06,0.97,
2.511,0.49,-0.44,-0.19,0.05,-0.06,0.97,
2.513,0.49,-0.44,-0.19,0.05,-0.06,0.97,
2.515,0.49,-0.44,-0.19,0.04,-0.05,0.97,
2.515,0.41,-0.42,-0.15,0.04,-0.05,0.97,
2.517,0.41,-0.42,-0.15,0.04,-0.06,0.97,
2.52,0.41,-0.42,-0.15,0.03,-0.05,0.96,
2.52,0.32,-0.40,-0.16,0.03,-0.05,0.96,
2.522,0.32,-0.40,-0.16,0.03,-0.05,0.96,
2.525,0.32,-0.40,-0.16,0.02,-0.05,0.96,
2.526,0.22,-0.39,-0.17,0.02,-0.05,0.96,
2.528,0.22,-0.39,-0.17,0.02,-0.05,0.97,
2.53,0.22,-0.39,-0.17,0.01,-0.05,0.97,
2.53,0.13,-0.35,-0.18,0.01,-0.05,0.97,
2.532,0.13,-0.35,-0.18,0.01,-0.04,0.97,
2.535,0.13,-0.35,-0.18,0.00,-0.04,0.97,
2.535,0.03,-0.32,-0.16,0.00,-0.04,0.97,
2.537,0.03,-0.32,-0.16,0.00,-0.04,0.97,
2.54,0.03,-0.32,-0.16,-0.00,-0.04,0.97,
2.54,-0.04,-0.28,-0.14,-0.00,-0.04,0.97,
2.542,-0.04,-0.28,-0.14,-0.00,-0.04,0.97,
2.545,-0.04,-0.28,-0.14,-0.00,-0.04,0.97,
2.545,-0.09,-0.25,-0.12,-0.00,-0.04,0.97,
2.547,-0.09,-0.25,-0.12,-0.00,-0.03,0.98,
2.549,-0.09,-0.25,-0.12,-0.00,-0.03,0.98,
2.55,-0.10,-0.21,-0.09,-0.00,-0.03,0.98,
2.552,-0.10,-0.21,-0.09,-0.00,-0.03,0.98,
2.554,-0.10,-0.21,-0.09,-0.00,-0.03,0.98,
2.555,-0.11,-0.18,-0.04,-0.00,-0.03,0.98,
2.557,-0.11,-0.18,-0.04,-0.00,-0.03,0.99,
2.559,-0.11,-0.18,-0.04,0.00,-0.03,0.99,
2.56,-0.11,-0.16,0.01,0.00,-0.03,0.99,
2.562,-0.11,-0.16,0.01,0.00,-0.04,0.99,
2.564,-0.11,-0.16,0.01,0.01,-0.04,0.99,
2.564,-0.09,-0.18,0.04,0.01,-0.04,0.99,
2.566,-0.09,-0.18,0.04,0.01,-0.04,0.99,
2.569,-0.09,-0.18,0.04,0.01,-0.04,0.98,
2.569,-0.03,-0.20,0.05,0.01,-0.04,0.98,
2.571,-0.03,-0.20,0.05,0.02,-0.04,0.98,
2.578,-0.03,-0.20,0.05,0.02,-0.04,0.97,
2.578,0.02,-0.22,0.02,0.02,-0.04,0.97,
2.579,0.02,-0.22,0.02,0.02,-0.03,0.97,
2.579,0.02,-0.22,0.02,0.03,-0.03,0.97,
2.579,0.07,-0.21,-0.06,0.03,-0.03,0.97,
2.581,0.07,-0.21,-0.06,0.03,-0.03,0.96,
2.584,0.07,-0.21,-0.06,0.03,-0.03,0.96,
2.584,0.13,-0.18,-0.13,0.03,-0.03,0.96,
2.586,0.13,-0.18,-0.13,0.03,-0.03,0.95,
2.593,0.13,-0.18,-0.13,0.03,-0.03,0.95,
2.593,0.16,-0.15,-0.21,0.03,-0.03,0.95,
2.593,0.16,-0.15,-0.21,0.03,-0.03,0.95,
2.594,0.16,-0.15,-0.21,0.02,-0.03,0.95,
2.594,0.16,-0.11,-0.28,0.02,-0.03,0.95,
2.596,0.16,-0.11,-0.28,0.02,-0.02,0.94,
2.598,0.16,-0.11,-0.28,0.02,-0.02,0.94,
2.599,0.13,-0.10,-0.33,0.02,-0.02,0.94,
2.601,0.13,-0.10,-0.33,0.02,-0.02,0.94,
2.604,0.13,-0.10,-0.33,0.01,-0.02,0.94,
2.604,0.07,-0.07,-0.37,0.01,-0.02,0.94,
2.606,0.07,-0.07,-0.37,0.01,-0.02,0.94,
2.608,0.07,-0.07,-0.37,0.01,-0.02,0.94,
2.608,0.02,-0.04,-0.39,0.01,-0.02,0.94,
2.611,0.02,-0.04,-0.39,0.01,-0.02,0.94,
2.614,0.02,-0.04,-0.39,0.01,-0.02,0.95,
2.614,-0.04,-0.03,-0.38,0.01,-0.02,0.95,
2.616,-0.04,-0.03,-0.38,0.01,-0.01,0.95,
2.618,-0.04,-0.03,-0.38,0.01,-0.02,0.90,
2.618,-0.06,0.00,-0.32,0.01,-0.02,0.90,
2.62,-0.06,0.00,-0.32,0.01,-0.03,0.77,
2.623,-0.06,0.00,-0.32,0.00,-0.02,0.72,
2.624,-0.03,0.01,-0.54,0.00,-0.02,0.72,
2.626,-0.03,0.01,-0.54,-0.01,-0.01,0.77,
2.628,-0.03,0.01,-0.54,-0.02,0.00,0.86,
2.628,-0.03,-0.09,-2.27,-0.02,0.00,0.86,
2.63,-0.03,-0.09,-2.27,-0.04,0.01,0.92,
2.633,-0.03,-0.09,-2.27,-0.05,-0.00,0.95,
2.633,-0.22,0.18,-1.57,-0.05,-0.00,0.95,
2.635,-0.22,0.18,-1.57,-0.06,-0.02,0.96,
2.638,-0.22,0.18,-1.57,-0.06,-0.02,0.96,
2.638,-0.48,0.21,-0.42,-0.06,-0.02,0.96,
2.64,-0.48,0.21,-0.42,-0.05,-0.03,0.96,
2.642,-0.48,0.21,-0.42,-0.04,-0.03,0.97,
2.643,-0.59,0.01,-0.18,-0.04,-0.03,0.97,
2.645,-0.59,0.01,-0.18,-0.02,-0.03,0.99,
2.648,-0.59,0.01,-0.18,-0.01,-0.02,1.01,
2.648,-0.45,-0.08,-0.10,-0.01,-0.02,1.01,
2.65,-0.45,-0.08,-0.10,-0.00,-0.02,1.04,
2.652,-0.45,-0.08,-0.10,0.00,-0.02,1.06,
2.652,-0.17,-0.03,0.23,0.00,-0.02,1.06,
2.655,-0.17,-0.03,0.23,0.00,-0.03,1.07,
2.657,-0.17,-0.03,0.23,0.01,-0.04,1.08,
2.658,-0.01,0.00,0.68,0.01,-0.04,1.08,
2.66,-0.01,0.00,0.68,0.01,-0.05,1.09,
2.662,-0.01,0.00,0.68,0.02,-0.05,1.09,
2.662,0.07,-0.13,0.98,0.02,-0.05,1.09,
2.665,0.07,-0.13,0.98,0.02,-0.06,1.09,
2.667,0.07,-0.13,0.98,0.02,-0.06,1.09,
2.667,0.14,-0.27,1.08,0.02,-0.06,1.09,
2.669,0.14,-0.27,1.08,0.03,-0.06,1.09,
2.673,0.14,-0.27,1.08,0.03,-0.06,1.08,
2.674,0.21,-0.35,1.11,0.03,-0.06,1.08,
2.675,0.21,-0.35,1.11,0.03,-0.06,1.07,
2.677,0.21,-0.35,1.11,0.04,-0.07,1.06,
2.677,0.29,-0.41,1.03,0.04,-0.07,1.06,
2.679,0.29,-0.41,1.03,0.03,-0.06,1.05,
2.682,0.29,-0.41,1.03,0.03,-0.06,1.04,
2.682,0.34,-0.43,0.87,0.03,-0.06,1.04,
2.684,0.34,-0.43,0.87,0.03,-0.06,1.03,
2.687,0.34,-0.43,0.87,0.03,-0.06,1.02,
2.687,0.32,-0.41,0.65,0.03,-0.06,1.02,
2.691,0.32,-0.41,0.65,0.03,-0.06,1.01,
2.692,0.32,-0.41,0.65,0.03,-0.05,0.99,
2.692,0.27,-0.39,0.40,0.03,-0.05,0.99,
2.694,0.27,-0.39,0.40,0.03,-0.05,0.99,
2.696,0.27,-0.39,0.40,0.03,-0.05,0.98,
2.697,0.26,-0.33,0.18,0.03,-0.05,0.98,
2.699,0.26,-0.33,0.18,0.03,-0.04,0.98,
2.701,0.26,-0.33,0.18,0.03,-0.04,0.99,
2.701,0.26,-0.27,0.05,0.03,-0.04,0.99,
2.704,0.26,-0.27,0.05,0.03,-0.04,0.99,
