
time,ax,ay,az,gFx,gFy,gFz,
0.002,0.14,-0.09,0.21,0.07,0.04,0.99,
0.002,0.14,-0.09,0.21,0.07,0.04,0.98,
0.002,0.14,-0.07,0.12,0.07,0.04,0.98,
0.003,0.14,-0.07,0.12,0.07,0.04,0.98,
0.004,0.14,-0.07,0.12,0.06,0.04,0.98,
0.004,0.08,-0.05,0.04,0.06,0.04,0.98,
0.006,0.08,-0.05,0.04,0.06,0.04,0.97,
0.009,0.08,-0.05,0.04,0.06,0.04,0.97,
0.009,0.03,-0.04,-0.03,0.06,0.04,0.97,
0.013,0.03,-0.04,-0.03,0.06,0.05,0.97,
0.014,0.03,-0.04,-0.03,0.06,0.05,0.97,
0.014,-0.00,-0.01,-0.08,0.06,0.05,0.97,
0.016,-0.00,-0.01,-0.08,0.06,0.05,0.97,
0.019,-0.00,-0.01,-0.08,0.06,0.05,0.96,
0.019,0.00,0.01,-0.11,0.06,0.05,0.96,
0.021,0.00,0.01,-0.11,0.06,0.05,0.96,
0.024,0.00,0.01,-0.11,0.05,0.06,0.96,
0.024,-0.02,0.05,-0.14,0.05,0.06,0.96,
0.026,-0.02,0.05,-0.14,0.05,0.06,0.96,
0.029,-0.02,0.05,-0.14,0.05,0.06,0.96,
0.029,-0.06,0.09,-0.16,0.05,0.06,0.96,
0.031,-0.06,0.09,-0.16,0.05,0.06,0.96,
0.033,-0.06,0.09,-0.16,0.05,0.06,0.97,
0.034,-0.08,0.10,-0.16,0.05,0.06,0.97,
0.036,-0.08,0.10,-0.16,0.06,0.06,0.97,
0.038,-0.08,0.10,-0.16,0.06,0.06,0.97,
0.039,-0.09,0.12,-0.14,0.06,0.06,0.97,
0.041,-0.09,0.12,-0.14,0.06,0.06,0.97,
0.043,-0.09,0.12,-0.14,0.06,0.06,0.97,
0.044,-0.04,0.15,-0.11,0.06,0.06,0.97,
0.045,-0.04,0.15,-0.11,0.06,0.06,0.97,
0.048,-0.04,0.15,-0.11,0.06,0.05,0.97,
0.048,-0.01,0.12,-0.08,0.06,0.05,0.97,
0.05,-0.01,0.12,-0.08,0.06,0.05,0.98,
0.053,-0.01,0.12,-0.08,0.06,0.05,0.98,
0.053,0.00,0.08,-0.05,0.06,0.05,0.98,
0.055,0.00,0.08,-0.05,0.06,0.05,0.98,
0.058,0.00,0.08,-0.05,0.06,0.05,0.98,
0.058,0.01,0.04,-0.03,0.06,0.05,0.98,
0.061,0.01,0.04,-0.03,0.06,0.05,0.98,
0.063,0.01,0.04,-0.03,0.07,0.05,0.98,
0.063,0.03,0.05,-0.02,0.07,0.05,0.98,
0.065,0.03,0.05,-0.02,0.07,0.06,0.98,
0.068,0.03,0.05,-0.02,0.07,0.06,0.98,
0.068,0.05,0.06,-0.02,0.07,0.06,0.98,
0.07,0.05,0.06,-0.02,0.07,0.06,0.98,
0.073,0.05,0.06,-0.02,0.07,0.05,0.98,
0.073,0.06,0.08,-0.01,0.07,0.05,0.98,
0.075,0.06,0.08,-0.01,0.06,0.06,0.97,
0.08,0.06,0.08,-0.01,0.06,0.06,0.98,
0.08,0.04,0.08,-0.01,0.06,0.06,0.98,
0.081,0.04,0.08,-0.01,0.06,0.06,0.98,
0.083,0.04,0.08,-0.01,0.06,0.05,0.98,
0.084,-0.01,0.09,-0.03,0.06,0.05,0.98,
0.085,-0.01,0.09,-0.03,0.05,0.05,0.98,
0.087,-0.01,0.09,-0.03,0.05,0.06,0.98,
0.088,-0.05,0.09,-0.01,0.05,0.06,0.98,
0.09,-0.05,0.09,-0.01,0.05,0.06,0.98,
0.092,-0.05,0.09,-0.01,0.05,0.06,0.99,
0.092,-0.08,0.09,0.03,0.05,0.06,0.99,
0.098,-0.08,0.09,0.03,0.05,0.06,0.99,
0.099,-0.08,0.09,0.03,0.05,0.06,0.99,
0.099,-0.09,0.11,0.06,0.05,0.06,0.99,
0.099,-0.09,0.11,0.06,0.05,0.05,1.00,
0.102,-0.09,0.11,0.06,0.05,0.05,1.00,
0.102,-0.10,0.10,0.11,0.05,0.05,1.00,
0.105,-0.10,0.10,0.11,0.05,0.05,1.00,
0.107,-0.10,0.10,0.11,0.05,0.05,1.00,
0.108,-0.09,0.06,0.17,0.05,0.05,1.00,
0.109,-0.09,0.06,0.17,0.05,0.04,1.00,
0.112,-0.09,0.06,0.17,0.05,0.04,1.01,
0.113,-0.10,0.02,0.21,0.05,0.04,1.01,
0.114,-0.10,0.02,0.21,0.05,0.04,1.01,
0.117,-0.10,0.02,0.21,0.06,0.04,1.01,
0.118,-0.08,-0.02,0.25,0.06,0.04,1.01,
0.119,-0.08,-0.02,0.25,0.06,0.04,1.01,
0.122,-0.08,-0.02,0.25,0.06,0.04,1.00,
0.122,-0.05,-0.05,0.27,0.06,0.04,1.00,
0.124,-0.05,-0.05,0.27,0.07,0.04,1.00,
0.127,-0.05,-0.05,0.27,0.07,0.04,1.00,
0.127,0.01,-0.07,0.24,0.07,0.04,1.00,
0.129,0.01,-0.07,0.24,0.07,0.04,1.00,
0.132,0.01,-0.07,0.24,0.07,0.04,0.99,
0.132,0.06,-0.04,0.20,0.07,0.04,0.99,
0.134,0.06,-0.04,0.20,0.07,0.04,0.99,
0.136,0.06,-0.04,0.20,0.07,0.04,0.99,
0.137,0.08,-0.04,0.15,0.07,0.04,0.99,
0.139,0.08,-0.04,0.15,0.07,0.04,0.98,
0.141,0.08,-0.04,0.15,0.08,0.04,0.98,
0.141,0.10,-0.06,0.08,0.08,0.04,0.98,
0.144,0.10,-0.06,0.08,0.07,0.04,0.98,
0.147,0.10,-0.06,0.08,0.07,0.04,0.97,
0.147,0.13,-0.07,0.01,0.07,0.04,0.97,
0.149,0.13,-0.07,0.01,0.07,0.04,0.97,
0.151,0.11,-0.07,-0.05,0.07,0.04,0.97,
0.151,0.11,-0.07,-0.05,0.07,0.04,0.97,
0.153,0.11,-0.07,-0.05,0.08,0.04,0.97,
0.156,0.11,-0.08,-0.10,0.08,0.04,0.97,
0.156,0.11,-0.08,-0.10,0.08,0.04,0.97,
0.158,0.11,-0.08,-0.10,0.08,0.04,0.96,
0.161,0.11,-0.08,-0.10,0.08,0.04,0.96,
0.161,0.14,-0.07,-0.14,0.08,0.04,0.96,
0.164,0.14,-0.07,-0.14,0.08,0.04,0.96,
0.166,0.14,-0.07,-0.14,0.08,0.04,0.96,
0.166,0.16,-0.06,-0.16,0.08,0.04,0.96,
0.168,0.16,-0.06,-0.16,0.08,0.04,0.96,
0.171,0.16,-0.06,-0.16,0.07,0.04,0.96,
0.171,0.17,-0.07,-0.17,0.07,0.04,0.96,
0.173,0.17,-0.07,-0.17,0.07,0.04,0.96,
0.176,0.17,-0.07,-0.17,0.06,0.04,0.96,
0.176,0.12,-0.08,-0.18,0.06,0.04,0.96,
0.181,0.12,-0.08,-0.18,0.06,0.04,0.96,
0.182,0.12,-0.08,-0.18,0.06,0.04,0.96,
0.182,0.05,-0.11,-0.16,0.06,0.04,0.96,
0.183,0.05,-0.11,-0.16,0.06,0.04,0.96,
0.185,0.05,-0.11,-0.16,0.06,0.04,0.96,
0.186,0.01,-0.12,-0.16,0.06,0.04,0.96,
0.188,0.01,-0.12,-0.16,0.05,0.04,0.97,
0.19,0.01,-0.12,-0.16,0.05,0.04,0.97,
0.19,-0.05,-0.11,-0.14,0.05,0.04,0.97,
0.193,-0.05,-0.11,-0.14,0.05,0.04,0.97,
0.195,-0.05,-0.11,-0.14,0.05,0.04,0.97,
0.196,-0.07,-0.11,-0.11,0.05,0.04,0.97,
0.198,-0.07,-0.11,-0.11,0.05,0.04,0.97,
0.2,-0.07,-0.11,-0.11,0.05,0.04,0.97,
0.2,-0.08,-0.08,-0.10,0.05,0.04,0.97,
0.202,-0.08,-0.08,-0.10,0.04,0.04,0.97,
0.205,-0.08,-0.08,-0.10,0.04,0.04,0.97,
0.205,-0.13,-0.04,-0.09,0.04,0.04,0.97,
0.207,-0.13,-0.04,-0.09,0.04,0.04,0.97,
0.21,-0.13,-0.04,-0.09,0.04,0.05,0.98,
0.21,-0.16,-0.02,-0.08,0.04,0.05,0.98,
0.212,-0.16,-0.02,-0.08,0.04,0.05,0.98,
0.215,-0.16,-0.02,-0.08,0.04,0.05,0.98,
0.215,-0.18,-0.01,-0.03,0.04,0.05,0.98,
0.217,-0.18,-0.01,-0.03,0.04,0.05,0.98,
0.22,-0.18,-0.01,-0.03,0.04,0.05,0.99,
0.22,-0.18,0.01,0.02,0.04,0.05,0.99,
0.222,-0.18,0.01,0.02,0.04,0.05,0.99,
0.225,-0.18,0.01,0.02,0.04,0.05,0.99,
0.225,-0.18,0.02,0.06,0.04,0.05,0.99,
0.227,-0.18,0.02,0.06,0.04,0.05,0.99,
0.23,-0.18,0.02,0.06,0.04,0.04,0.99,
0.23,-0.17,0.04,0.11,0.04,0.04,0.99,
0.232,-0.17,0.04,0.11,0.04,0.04,1.00,
0.234,-0.17,0.04,0.11,0.04,0.04,0.99,
0.235,-0.17,-0.00,0.14,0.04,0.04,0.99,
0.237,-0.17,-0.00,0.14,0.05,0.04,0.99,
0.239,-0.17,-0.00,0.14,0.05,0.04,0.99,
0.239,-0.16,-0.03,0.14,0.05,0.04,0.99,
0.241,-0.16,-0.03,0.14,0.05,0.04,0.99,
0.245,-0.16,-0.03,0.14,0.06,0.03,0.99,
0.245,-0.12,-0.08,0.10,0.06,0.03,0.99,
0.246,-0.12,-0.08,0.10,0.06,0.03,0.98,
0.249,-0.12,-0.08,0.10,0.06,0.03,0.98,
0.249,-0.04,-0.11,0.07,0.06,0.03,0.98,
0.251,-0.04,-0.11,0.07,0.07,0.02,0.98,
0.254,-0.04,-0.11,0.07,0.07,0.02,0.98,
0.254,0.02,-0.18,0.04,0.07,0.02,0.98,
0.256,0.02,-0.18,0.04,0.07,0.02,0.98,
0.259,0.02,-0.18,0.04,0.08,0.02,0.97,
0.259,0.08,-0.23,-0.01,0.08,0.02,0.97,
0.262,0.08,-0.23,-0.01,0.08,0.01,0.97,
0.265,0.08,-0.23,-0.01,0.08,0.01,0.97,
0.265,0.15,-0.27,-0.04,0.08,0.01,0.97,
0.267,0.15,-0.27,-0.04,0.08,0.01,0.97,
0.269,0.15,-0.27,-0.04,0.08,0.01,0.97,
0.269,0.17,-0.36,-0.06,0.08,0.01,0.97,
0.271,0.17,-0.36,-0.06,0.08,0.00,0.97,
0.273,0.17,-0.36,-0.06,0.08,0.00,0.97,
0.274,0.17,-0.40,-0.10,0.08,0.00,0.97,
0.276,0.17,-0.40,-0.10,0.08,0.00,0.97,
0.278,0.17,-0.40,-0.10,0.08,0.00,0.96,
0.279,0.16,-0.43,-0.11,0.08,0.00,0.96,
0.281,0.16,-0.43,-0.11,0.08,-0.00,0.96,
0.284,0.16,-0.43,-0.11,0.07,-0.00,0.96,
0.284,0.16,-0.46,-0.15,0.07,-0.00,0.96,
0.286,0.16,-0.46,-0.15,0.07,-0.00,0.96,
0.288,0.16,-0.46,-0.15,0.07,-0.00,0.96,
0.288,0.14,-0.48,-0.18,0.07,-0.00,0.96,
0.29,0.14,-0.48,-0.18,0.07,-0.00,0.96,
0.293,0.14,-0.48,-0.18,0.07,-0.00,0.96,
0.293,0.12,-0.48,-0.19,0.07,-0.00,0.96,
0.302,0.12,-0.48,-0.19,0.07,-0.00,0.95,
0.302,0.12,-0.48,-0.19,0.07,-0.00,0.95,
0.302,0.13,-0.48,-0.21,0.07,-0.00,0.95,
0.303,0.13,-0.48,-0.21,0.07,0.00,0.95,
0.303,0.13,-0.48,-0.21,0.07,-0.00,0.95,
0.303,0.12,-0.48,-0.24,0.07,-0.00,0.95,
0.305,0.12,-0.48,-0.24,0.07,0.00,0.95,
0.308,0.12,-0.48,-0.24,0.07,0.00,0.95,
0.308,0.12,-0.47,-0.26,0.07,0.00,0.95,
0.31,0.12,-0.47,-0.26,0.07,0.00,0.95,
0.313,0.12,-0.47,-0.26,0.07,0.00,0.95,
0.313,0.11,-0.45,-0.27,0.07,0.00,0.95,
0.315,0.11,-0.45,-0.27,0.07,0.00,0.95,
0.318,0.11,-0.45,-0.27,0.06,0.00,0.95,
0.318,0.09,-0.43,-0.28,0.06,0.00,0.95,
0.32,0.09,-0.43,-0.28,0.06,0.01,0.95,
0.323,0.09,-0.43,-0.28,0.06,0.01,0.95,
0.323,0.05,-0.42,-0.29,0.06,0.01,0.95,
0.325,0.05,-0.42,-0.29,0.06,0.01,0.94,
0.328,0.05,-0.42,-0.29,0.06,0.01,0.94,
0.328,0.00,-0.40,-0.31,0.06,0.01,0.94,
0.33,0.00,-0.40,-0.31,0.06,0.01,0.94,
0.332,0.00,-0.40,-0.31,0.06,0.01,0.94,
0.333,-0.04,-0.38,-0.33,0.06,0.01,0.94,
0.335,-0.04,-0.38,-0.33,0.06,0.01,0.94,
0.337,-0.04,-0.38,-0.33,0.06,0.01,0.94,
0.337,-0.03,-0.37,-0.35,0.06,0.01,0.94,
0.339,-0.03,-0.37,-0.35,0.07,0.01,0.94,
0.342,-0.03,-0.37,-0.35,0.07,0.01,0.94,
0.342,0.01,-0.35,-0.35,0.07,0.01,0.94,
0.344,0.01,-0.35,-0.35,0.07,0.01,0.95,
0.347,0.01,-0.35,-0.35,0.07,0.01,0.95,
0.347,0.09,-0.35,-0.32,0.07,0.01,0.95,
0.349,0.09,-0.35,-0.32,0.08,0.00,0.95,
0.352,0.09,-0.35,-0.32,0.08,0.00,0.95,
0.352,0.14,-0.36,-0.28,0.08,0.00,0.95,
0.354,0.14,-0.36,-0.28,0.08,-0.00,0.95,
0.357,0.14,-0.36,-0.28,0.08,-0.01,0.95,
0.357,0.17,-0.42,-0.26,0.08,-0.01,0.95,
0.359,0.17,-0.42,-0.26,0.09,-0.01,0.95,
0.362,0.17,-0.42,-0.26,0.09,-0.01,0.95,
0.362,0.22,-0.49,-0.23,0.09,-0.01,0.95,
0.364,0.22,-0.49,-0.23,0.09,-0.02,0.95,
0.367,0.24,-0.55,-0.22,0.09,-0.02,0.95,
0.367,0.24,-0.55,-0.22,0.09,-0.02,0.95,
0.369,0.24,-0.55,-0.22,0.09,-0.02,0.95,
0.372,0.24,-0.55,-0.22,0.09,-0.03,0.95,
0.372,0.27,-0.60,-0.20,0.09,-0.03,0.95,
0.374,0.27,-0.60,-0.20,0.09,-0.03,0.95,
0.377,0.27,-0.60,-0.20,0.09,-0.03,0.95,
0.377,0.28,-0.66,-0.20,0.09,-0.03,0.95,
0.384,0.28,-0.66,-0.20,0.09,-0.04,0.95,
0.384,0.31,-0.73,-0.22,0.09,-0.04,0.95,
0.385,0.31,-0.73,-0.22,0.09,-0.04,0.95,
0.385,0.31,-0.73,-0.22,0.09,-0.04,0.95,
0.386,0.31,-0.73,-0.22,0.09,-0.04,0.95,
0.386,0.27,-0.76,-0.26,0.09,-0.04,0.95,
0.388,0.27,-0.76,-0.26,0.08,-0.04,0.95,
0.391,0.27,-0.76,-0.26,0.08,-0.04,0.95,
0.391,0.25,-0.81,-0.28,0.08,-0.04,0.95,
0.394,0.25,-0.81,-0.28,0.08,-0.05,0.95,
0.396,0.25,-0.81,-0.28,0.07,-0.05,0.95,
0.396,0.21,-0.83,-0.27,0.07,-0.05,0.95,
0.398,0.21,-0.83,-0.27,0.07,-0.05,0.95,
0.401,0.21,-0.83,-0.27,0.07,-0.05,0.95,
0.402,0.14,-0.86,-0.26,0.07,-0.05,0.95,
0.403,0.14,-0.86,-0.26,0.06,-0.05,0.95,
0.406,0.14,-0.86,-0.26,0.06,-0.05,0.95,
0.406,0.09,-0.85,-0.23,0.06,-0.05,0.95,
0.408,0.09,-0.85,-0.23,0.06,-0.05,0.95,
0.415,0.09,-0.85,-0.23,0.07,-0.05,0.95,
0.415,0.05,-0.86,-0.22,0.07,-0.05,0.95,
0.415,0.05,-0.86,-0.22,0.07,-0.05,0.96,
0.415,0.05,-0.86,-0.22,0.07,-0.05,0.96,
0.416,0.07,-0.84,-0.20,0.07,-0.05,0.96,
0.418,0.07,-0.84,-0.20,0.07,-0.05,0.96,
0.421,0.07,-0.84,-0.20,0.08,-0.05,0.96,
0.421,0.11,-0.83,-0.15,0.08,-0.05,0.96,
0.422,0.11,-0.83,-0.15,0.08,-0.05,0.96,
0.425,0.11,-0.83,-0.15,0.08,-0.06,0.96,
0.425,0.15,-0.84,-0.11,0.08,-0.06,0.96,
0.427,0.15,-0.84,-0.11,0.09,-0.06,0.96,
0.43,0.15,-0.84,-0.11,0.09,-0.06,0.96,
0.43,0.21,-0.88,-0.10,0.09,-0.06,0.96,
0.432,0.21,-0.88,-0.10,0.10,-0.06,0.96,
0.435,0.21,-0.88,-0.10,0.11,-0.07,0.96,
0.436,0.29,-0.91,-0.10,0.11,-0.07,0.96,
0.437,0.29,-0.91,-0.10,0.11,-0.07,0.96,
0.44,0.29,-0.91,-0.10,0.12,-0.08,0.96,
0.44,0.42,-1.00,-0.13,0.12,-0.08,0.96,
0.442,0.42,-1.00,-0.13,0.12,-0.08,0.96,
0.445,0.42,-1.00,-0.13,0.13,-0.09,0.96,
0.445,0.49,-1.07,-0.14,0.13,-0.09,0.96,
0.447,0.49,-1.07,-0.14,0.14,-0.09,0.95,
0.45,0.49,-1.07,-0.14,0.14,-0.10,0.95,
0.45,0.61,-1.13,-0.16,0.14,-0.10,0.95,
0.452,0.61,-1.13,-0.16,0.15,-0.10,0.95,
0.455,0.61,-1.13,-0.16,0.15,-0.11,0.95,
0.455,0.71,-1.20,-0.18,0.15,-0.11,0.95,
0.457,0.71,-1.20,-0.18,0.15,-0.11,0.95,
0.46,0.71,-1.20,-0.18,0.16,-0.12,0.95,
0.46,0.80,-1.32,-0.18,0.16,-0.12,0.95,
0.462,0.80,-1.32,-0.18,0.16,-0.12,0.95,
0.464,0.80,-1.32,-0.18,0.16,-0.12,0.95,
0.465,0.85,-1.40,-0.19,0.16,-0.12,0.95,
0.467,0.85,-1.40,-0.19,0.16,-0.13,0.95,
0.469,0.85,-1.40,-0.19,0.16,-0.13,0.95,
0.47,0.88,-1.44,-0.19,0.16,-0.13,0.95,
0.472,0.88,-1.44,-0.19,0.16,-0.13,0.96,
0.474,0.88,-1.44,-0.19,0.16,-0.13,0.96,
0.474,0.89,-1.49,-0.18,0.16,-0.13,0.96,
0.477,0.89,-1.49,-0.18,0.16,-0.12,0.96,
0.479,0.89,-1.49,-0.18,0.16,-0.12,0.96,
0.48,0.88,-1.50,-0.14,0.16,-0.12,0.96,
0.482,0.88,-1.50,-0.14,0.15,-0.12,0.96,
0.484,0.88,-1.50,-0.14,0.14,-0.12,0.96,
0.484,0.84,-1.42,-0.11,0.14,-0.12,0.96,
0.486,0.84,-1.42,-0.11,0.13,-0.12,0.96,
0.489,0.84,-1.42,-0.11,0.13,-0.12,0.96,
0.489,0.69,-1.37,-0.09,0.13,-0.12,0.96,
0.491,0.69,-1.37,-0.09,0.12,-0.12,0.96,
0.498,0.69,-1.37,-0.09,0.11,-0.11,0.96,
0.499,0.54,-1.36,-0.07,0.11,-0.11,0.96,
0.499,0.54,-1.36,-0.07,0.10,-0.11,0.96,
0.5,0.38,-1.35,-0.09,0.10,-0.11,0.96,
0.5,0.38,-1.35,-0.09,0.10,-0.11,0.96,
0.501,0.38,-1.35,-0.09,0.09,-0.11,0.96,
0.504,0.38,-1.35,-0.09,0.09,-0.11,0.95,
0.504,0.25,-1.31,-0.12,0.09,-0.11,0.95,
0.506,0.25,-1.31,-0.12,0.09,-0.10,0.95,
0.509,0.25,-1.31,-0.12,0.09,-0.10,0.94,
0.509,0.16,-1.27,-0.17,0.09,-0.10,0.94,
0.511,0.16,-1.27,-0.17,0.10,-0.10,0.94,
0.513,0.16,-1.27,-0.17,0.10,-0.10,0.94,
0.514,0.13,-1.23,-0.23,0.10,-0.10,0.94,
0.516,0.13,-1.23,-0.23,0.11,-0.10,0.93,
0.518,0.13,-1.23,-0.23,0.11,-0.09,0.93,
0.519,0.22,-1.18,-0.31,0.11,-0.09,0.93,
0.521,0.22,-1.18,-0.31,0.12,-0.09,0.92,
0.523,0.22,-1.18,-0.31,0.13,-0.09,0.91,
0.524,0.34,-1.13,-0.40,0.13,-0.09,0.91,
0.526,0.34,-1.13,-0.40,0.13,-0.09,0.91,
0.528,0.34,-1.13,-0.40,0.14,-0.09,0.90,
0.529,0.44,-1.10,-0.52,0.14,-0.09,0.90,
0.531,0.44,-1.10,-0.52,0.14,-0.09,0.89,
0.533,0.44,-1.10,-0.52,0.14,-0.09,0.89,
0.533,0.54,-1.09,-0.65,0.14,-0.09,0.89,
0.535,0.54,-1.09,-0.65,0.14,-0.09,0.88,
0.538,0.54,-1.09,-0.65,0.14,-0.09,0.88,
0.538,0.60,-1.08,-0.75,0.14,-0.09,0.88,
0.54,0.60,-1.08,-0.75,0.14,-0.09,0.88,
0.543,0.60,-1.08,-0.75,0.14,-0.09,0.87,
0.544,0.59,-1.06,-0.83,0.14,-0.09,0.87,
0.545,0.59,-1.06,-0.83,0.13,-0.08,0.87,
0.548,0.59,-1.06,-0.83,0.13,-0.08,0.87,
0.548,0.54,-1.04,-0.91,0.13,-0.08,0.87,
0.55,0.54,-1.04,-0.91,0.12,-0.08,0.87,
0.553,0.54,-1.04,-0.91,0.12,-0.07,0.87,
0.553,0.46,-1.00,-0.94,0.12,-0.07,0.87,
0.555,0.46,-1.00,-0.94,0.11,-0.07,0.87,
0.558,0.46,-1.00,-0.94,0.11,-0.06,0.88,
0.558,0.37,-0.94,-0.92,0.11,-0.06,0.88,
0.56,0.37,-0.94,-0.92,0.10,-0.05,0.88,
0.562,0.37,-0.94,-0.92,0.09,-0.05,0.88,
0.563,0.24,-0.82,-0.87,0.09,-0.05,0.88,
0.565,0.24,-0.82,-0.87,0.08,-0.05,0.89,
0.567,0.24,-0.82,-0.87,0.07,-0.04,0.90,
0.567,0.08,-0.70,-0.80,0.07,-0.04,0.90,
0.569,0.08,-0.70,-0.80,0.05,-0.04,0.90,
0.572,0.08,-0.70,-0.80,0.04,-0.04,0.91,
0.572,-0.11,-0.62,-0.68,0.04,-0.04,0.91,
0.575,-0.11,-0.62,-0.68,0.03,-0.03,0.91,
0.577,-0.11,-0.62,-0.68,0.02,-0.03,0.92,
0.578,-0.34,-0.56,-0.56,0.02,-0.03,0.92,
0.579,-0.34,-0.56,-0.56,0.01,-0.03,0.93,
0.582,-0.34,-0.56,-0.56,0.00,-0.03,0.93,
0.582,-0.56,-0.50,-0.44,0.00,-0.03,0.93,
0.584,-0.56,-0.50,-0.44,-0.00,-0.03,0.94,
0.587,-0.56,-0.50,-0.44,-0.00,-0.03,0.94,
0.587,-0.71,-0.48,-0.33,-0.00,-0.03,0.94,
0.589,-0.71,-0.48,-0.33,-0.00,-0.03,0.95,
0.592,-0.71,-0.48,-0.33,0.01,-0.03,0.95,
0.592,-0.80,-0.47,-0.22,0.01,-0.03,0.95,
0.599,-0.80,-0.47,-0.22,0.02,-0.03,0.96,
0.6,-0.80,-0.47,-0.22,0.03,-0.02,0.96,
0.6,-0.72,-0.45,-0.12,0.03,-0.02,0.96,
0.601,-0.72,-0.45,-0.12,0.04,-0.02,0.96,
0.602,-0.72,-0.45,-0.12,0.05,-0.03,0.96,
0.602,-0.51,-0.39,-0.05,0.05,-0.03,0.96,
0.604,-0.51,-0.39,-0.05,0.06,-0.03,0.96,
0.606,-0.51,-0.39,-0.05,0.07,-0.03,0.95,
0.607,-0.29,-0.37,-0.05,0.07,-0.03,0.95,
0.609,-0.29,-0.37,-0.05,0.07,-0.04,0.94,
0.615,-0.29,-0.37,-0.05,0.07,-0.04,0.94,
0.615,-0.12,-0.43,-0.07,0.07,-0.04,0.94,
0.615,-0.12,-0.43,-0.07,0.07,-0.05,0.93,
0.616,-0.12,-0.43,-0.07,0.07,-0.05,0.92,
0.616,-0.08,-0.50,-0.19,0.07,-0.05,0.92,
0.619,-0.08,-0.50,-0.19,0.08,-0.05,0.92,
0.621,-0.08,-0.50,-0.19,0.08,-0.04,0.91,
0.621,-0.07,-0.58,-0.32,0.08,-0.04,0.91,
0.623,-0.07,-0.58,-0.32,0.09,-0.04,0.90,
0.627,-0.07,-0.58,-0.32,0.10,-0.03,0.89,
0.627,-0.02,-0.55,-0.46,0.10,-0.03,0.89,
0.628,-0.02,-0.55,-0.46,0.10,-0.02,0.89,
0.631,-0.02,-0.55,-0.46,0.10,-0.02,0.89,
0.631,0.08,-0.43,-0.61,0.10,-0.02,0.89,
0.633,0.08,-0.43,-0.61,0.10,-0.02,0.88,
0.636,0.08,-0.43,-0.61,0.10,-0.01,0.88,
0.636,0.18,-0.29,-0.69,0.10,-0.01,0.88,
0.638,0.18,-0.29,-0.69,0.09,-0.01,0.88,
0.641,0.18,-0.29,-0.69,0.08,-0.01,0.89,
0.641,0.14,-0.22,-0.73,0.08,-0.01,0.89,
0.643,0.14,-0.22,-0.73,0.07,-0.01,0.89,
0.646,0.14,-0.22,-0.73,0.06,-0.01,0.89,
0.646,0.01,-0.15,-0.71,0.06,-0.01,0.89,
0.648,0.01,-0.15,-0.71,0.06,-0.01,0.90,
0.65,0.01,-0.15,-0.71,0.05,-0.01,0.90,
0.651,-0.16,-0.15,-0.66,0.05,-0.01,0.90,
0.653,-0.16,-0.15,-0.66,0.05,-0.01,0.91,
0.656,-0.16,-0.15,-0.66,0.05,-0.01,0.91,
0.656,-0.28,-0.15,-0.56,0.05,-0.01,0.91,
0.658,-0.28,-0.15,-0.56,0.05,-0.01,0.92,
0.661,-0.28,-0.15,-0.56,0.05,-0.01,0.93,
0.661,-0.33,-0.11,-0.44,0.05,-0.01,0.93,
0.663,-0.33,-0.11,-0.44,0.05,-0.02,0.93,
0.665,-0.33,-0.11,-0.44,0.05,-0.02,0.94,
0.666,-0.30,-0.12,-0.31,0.05,-0.02,0.94,
0.668,-0.30,-0.12,-0.31,0.05,-0.02,0.94,
0.67,-0.30,-0.12,-0.31,0.06,-0.03,0.95,
0.67,-0.29,-0.17,-0.20,0.06,-0.03,0.95,
0.672,-0.29,-0.17,-0.20,0.06,-0.03,0.95,
0.675,-0.29,-0.17,-0.20,0.07,-0.03,0.95,
0.675,-0.27,-0.23,-0.10,0.07,-0.03,0.95,
0.682,-0.27,-0.23,-0.10,0.08,-0.03,0.95,
0.683,-0.27,-0.23,-0.10,0.08,-0.02,0.96,
0.683,-0.16,-0.26,-0.04,0.08,-0.02,0.96,
0.684,-0.16,-0.26,-0.04,0.09,-0.02,0.96,
0.685,-0.16,-0.26,-0.04,0.09,-0.02,0.96,
0.685,-0.03,-0.22,-0.01,0.09,-0.02,0.96,
0.687,-0.03,-0.22,-0.01,0.09,-0.02,0.96,
0.69,-0.03,-0.22,-0.01,0.09,-0.02,0.96,
0.69,0.07,-0.16,0.02,0.09,-0.02,0.96,
0.692,0.07,-0.16,0.02,0.09,-0.02,0.95,
0.695,0.07,-0.16,0.02,0.09,-0.02,0.95,
0.695,0.12,-0.15,0.01,0.09,-0.02,0.95,
0.697,0.12,-0.15,0.01,0.09,-0.01,0.94,
0.699,0.12,-0.15,0.01,0.10,-0.01,0.94,
0.699,0.13,-0.12,-0.05,0.10,-0.01,0.94,
0.702,0.13,-0.12,-0.05,0.10,-0.01,0.93,
0.704,0.13,-0.12,-0.05,0.09,-0.00,0.93,
0.704,0.13,-0.07,-0.13,0.09,-0.00,0.93,
0.707,0.13,-0.07,-0.13,0.09,-0.00,0.92,
0.71,0.13,-0.07,-0.13,0.09,-0.01,0.92,
0.71,0.13,0.01,-0.23,0.09,-0.01,0.92,
0.712,0.13,0.01,-0.23,0.09,-0.00,0.92,
0.714,0.13,0.01,-0.23,0.09,-0.01,0.91,
0.715,0.11,0.03,-0.31,0.09,-0.01,0.91,
0.716,0.11,0.03,-0.31,0.09,-0.00,0.91,
0.719,0.11,0.03,-0.31,0.09,-0.00,0.91,
0.719,0.08,0.03,-0.40,0.09,-0.00,0.91,
0.721,0.08,0.03,-0.40,0.09,-0.00,0.90,
0.724,0.08,0.03,-0.40,0.09,-0.00,0.90,
0.724,0.07,0.05,-0.46,0.09,-0.00,0.90,
0.727,0.07,0.05,-0.46,0.09,-0.00,0.90,
0.729,0.07,0.05,-0.46,0.09,-0.00,0.90,
0.73,0.08,0.08,-0.52,0.09,-0.00,0.90,
0.731,0.08,0.08,-0.52,0.09,-0.00,0.90,
0.734,0.08,0.08,-0.52,0.09,0.00,0.90,
0.734,0.06,0.10,-0.54,0.09,0.00,0.90,
0.736,0.06,0.10,-0.54,0.09,0.00,0.90,
0.739,0.06,0.10,-0.54,0.08,0.00,0.91,
0.739,0.06,0.13,-0.53,0.08,0.00,0.91,
0.741,0.06,0.13,-0.53,0.08,0.00,0.91,
0.744,0.06,0.13,-0.53,0.08,0.01,0.92,
0.744,0.02,0.15,-0.47,0.08,0.01,0.92,
0.746,0.02,0.15,-0.47,0.08,0.01,0.93,
0.748,0.02,0.15,-0.47,0.07,0.01,0.94,
0.749,-0.04,0.20,-0.36,0.07,0.01,0.94,
0.751,-0.04,0.20,-0.36,0.07,0.01,0.96,
0.753,-0.04,0.20,-0.36,0.06,0.01,0.97,
0.754,-0.06,0.27,-0.16,0.06,0.01,0.97,
0.756,-0.06,0.27,-0.16,0.06,0.01,0.98,
0.758,-0.06,0.27,-0.16,0.06,0.02,1.00,
0.759,-0.12,0.31,0.12,0.06,0.02,1.00,
0.761,-0.12,0.31,0.12,0.05,0.02,1.01,
0.764,-0.12,0.31,0.12,0.05,0.02,1.03,
0.764,-0.18,0.35,0.39,0.05,0.02,1.03,
0.765,-0.18,0.35,0.39,0.05,0.02,1.04,
0.768,-0.18,0.35,0.39,0.05,0.03,1.05,
0.768,-0.23,0.41,0.64,0.05,0.03,1.05,
0.77,-0.23,0.41,0.64,0.04,0.03,1.06,
0.773,-0.23,0.41,0.64,0.04,0.04,1.06,
0.773,-0.26,0.47,0.86,0.04,0.04,1.06,
0.775,-0.26,0.47,0.86,0.04,0.04,1.07,
0.782,-0.26,0.47,0.86,0.03,0.04,1.07,
0.782,-0.31,0.58,1.02,0.03,0.04,1.07,
0.783,-0.31,0.58,1.02,0.03,0.04,1.07,
0.783,-0.31,0.58,1.02,0.03,0.04,1.07,
0.783,-0.35,0.62,1.10,0.03,0.04,1.07,
0.785,-0.35,0.62,1.10,0.03,0.04,1.07,
0.788,-0.35,0.62,1.10,0.02,0.04,1.06,
0.788,-0.43,0.63,1.12,0.02,0.04,1.06,
0.79,-0.43,0.63,1.12,0.02,0.04,1.06,
0.793,-0.43,0.63,1.12,0.02,0.04,1.05,
0.794,-0.44,0.65,1.06,0.02,0.04,1.05,
0.795,-0.44,0.65,1.06,0.02,0.04,1.04,
0.798,-0.44,0.65,1.06,0.02,0.03,1.03,
0.798,-0.46,0.65,0.95,0.02,0.03,1.03,
0.8,-0.46,0.65,0.95,0.02,0.02,1.02,
0.802,-0.46,0.65,0.95,0.02,0.02,1.01,
0.802,-0.48,0.58,0.78,0.02,0.02,1.01,
0.804,-0.48,0.58,0.78,0.02,0.01,1.00,
0.807,-0.48,0.58,0.78,0.02,0.00,0.99,
0.807,-0.50,0.43,0.56,0.02,0.00,0.99,
0.809,-0.50,0.43,0.56,0.03,-0.00,0.98,
0.812,-0.50,0.43,0.56,0.04,-0.00,0.96,
0.813,-0.49,0.30,0.33,0.04,-0.00,0.96,
0.814,-0.49,0.30,0.33,0.05,-0.00,0.95,
0.817,-0.49,0.30,0.33,0.06,0.00,0.95,
0.817,-0.37,0.22,0.10,0.06,0.00,0.95,
0.819,-0.37,0.22,0.10,0.07,0.01,0.94,
0.822,-0.37,0.22,0.10,0.07,0.02,0.93,
0.822,-0.19,0.25,-0.10,0.07,0.02,0.93,
0.824,-0.19,0.25,-0.10,0.08,0.03,0.93,
0.827,-0.19,0.25,-0.10,0.08,0.04,0.93,
0.827,-0.02,0.38,-0.23,0.08,0.04,0.93,
0.829,-0.02,0.38,-0.23,0.08,0.05,0.93,
0.832,-0.02,0.38,-0.23,0.07,0.06,0.93,
0.832,0.07,0.58,-0.28,0.07,0.06,0.93,
0.834,0.07,0.58,-0.28,0.07,0.07,0.94,
0.836,0.07,0.58,-0.28,0.06,0.08,0.95,
0.837,0.05,0.80,-0.25,0.06,0.08,0.95,
0.839,0.05,0.80,-0.25,0.04,0.09,0.95,
0.841,0.05,0.80,-0.25,0.03,0.09,0.96,
0.842,-0.08,0.99,-0.16,0.03,0.09,0.96,
0.844,-0.08,0.99,-0.16,0.01,0.10,0.96,
0.846,-0.08,0.99,-0.16,0.00,0.10,0.97,
0.847,-0.32,1.15,-0.05,0.00,0.10,0.97,
0.849,-0.32,1.15,-0.05,-0.01,0.11,0.98,
0.852,-0.32,1.15,-0.05,-0.02,0.11,0.99,
0.852,-0.57,1.24,0.08,-0.02,0.11,0.99,
0.854,-0.57,1.24,0.08,-0.03,0.12,1.00,
0.856,-0.57,1.24,0.08,-0.04,0.12,1.01,
0.856,-0.78,1.33,0.24,-0.04,0.12,1.01,
0.858,-0.78,1.33,0.24,-0.04,0.13,1.02,
0.861,-0.78,1.33,0.24,-0.04,0.13,1.03,
0.861,-0.92,1.44,0.43,-0.04,0.13,1.03,
0.863,-0.92,1.44,0.43,-0.04,0.13,1.04,
0.866,-0.92,1.44,0.43,-0.04,0.12,1.05,
0.866,-0.98,1.54,0.63,-0.04,0.12,1.05,
0.868,-0.98,1.54,0.63,-0.04,0.12,1.05,
0.871,-0.98,1.54,0.63,-0.03,0.11,1.06,
0.871,-0.96,1.53,0.82,-0.03,0.11,1.06,
0.873,-0.96,1.53,0.82,-0.03,0.11,1.06,
0.881,-0.96,1.53,0.82,-0.03,0.10,1.06,
0.882,-0.91,1.45,0.93,-0.03,0.10,1.06,
0.882,-0.91,1.45,0.93,-0.02,0.09,1.06,
0.883,-0.91,1.45,0.93,-0.02,0.09,1.05,
0.883,-0.82,1.32,0.98,-0.02,0.09,1.05,
0.883,-0.82,1.32,0.98,-0.01,0.08,1.05,
0.886,-0.82,1.32,0.98,0.00,0.08,1.04,
0.886,-0.74,1.20,0.93,0.00,0.08,1.04,
0.888,-0.74,1.20,0.93,0.01,0.08,1.03,
0.89,-0.74,1.20,0.93,0.02,0.08,1.02,
0.892,-0.61,1.16,0.79,0.02,0.08,1.02,
0.893,-0.61,1.16,0.79,0.03,0.09,1.00,
0.895,-0.61,1.16,0.79,0.04,0.09,0.99,
0.896,-0.41,1.15,0.59,0.04,0.09,0.99,
0.898,-0.41,1.15,0.59,0.05,0.10,0.98,
0.9,-0.41,1.15,0.59,0.05,0.11,0.98,
0.9,-0.22,1.23,0.37,0.05,0.11,0.98,
0.902,-0.22,1.23,0.37,0.05,0.11,0.97,
0.905,-0.22,1.23,0.37,0.05,0.12,0.97,
0.905,-0.09,1.35,0.19,0.05,0.12,0.97,
0.907,-0.09,1.35,0.19,0.04,0.13,0.97,
0.91,-0.09,1.35,0.19,0.04,0.14,0.97,
0.91,-0.07,1.52,0.09,0.04,0.14,0.97,
0.912,-0.07,1.52,0.09,0.02,0.15,0.98,
0.915,-0.07,1.52,0.09,0.01,0.16,0.99,
0.915,-0.17,1.70,0.11,0.01,0.16,0.99,
0.917,-0.17,1.70,0.11,-0.00,0.17,1.00,
0.92,-0.17,1.70,0.11,-0.02,0.18,1.01,
0.92,-0.39,1.93,0.22,-0.02,0.18,1.01,
0.922,-0.39,1.93,0.22,-0.03,0.19,1.02,
0.925,-0.39,1.93,0.22,-0.04,0.19,1.03,
0.925,-0.63,2.14,0.41,-0.04,0.19,1.03,
0.927,-0.63,2.14,0.41,-0.06,0.20,1.05,
0.93,-0.63,2.14,0.41,-0.06,0.20,1.06,
0.93,-0.88,2.28,0.65,-0.06,0.20,1.06,
0.932,-0.88,2.28,0.65,-0.07,0.20,1.08,
0.935,-0.88,2.28,0.65,-0.07,0.21,1.09,
0.935,-1.06,2.39,0.92,-0.07,0.21,1.09,
0.937,-1.06,2.39,0.92,-0.08,0.21,1.10,
0.939,-1.06,2.39,0.92,-0.08,0.21,1.12,
0.94,-1.16,2.47,1.19,-0.08,0.21,1.12,
0.943,-1.16,2.47,1.19,-0.09,0.21,1.13,
0.944,-1.16,2.47,1.19,-0.10,0.21,1.14,
0.945,-1.23,2.49,1.45,-0.10,0.21,1.14,
0.946,-1.23,2.49,1.45,-0.10,0.21,1.14,
0.949,-1.23,2.49,1.45,-0.10,0.20,1.15,
0.949,-1.31,2.51,1.65,-0.10,0.20,1.15,
0.952,-1.31,2.51,1.65,-0.10,0.20,1.15,
0.954,-1.31,2.51,1.65,-0.10,0.19,1.16,
0.954,-1.35,2.47,1.81,-0.10,0.19,1.16,
0.956,-1.35,2.47,1.81,-0.10,0.19,1.16,
0.959,-1.35,2.47,1.81,-0.10,0.18,1.16,
0.96,-1.37,2.40,1.90,-0.10,0.18,1.16,
0.961,-1.37,2.40,1.90,-0.09,0.18,1.15,
0.964,-1.37,2.40,1.90,-0.09,0.17,1.15,
0.964,-1.34,2.29,1.90,-0.09,0.17,1.15,
0.966,-1.34,2.29,1.90,-0.08,0.17,1.14,
0.969,-1.34,2.29,1.90,-0.08,0.17,1.13,
0.969,-1.24,2.19,1.83,-0.08,0.17,1.13,
0.971,-1.24,2.19,1.83,-0.07,0.17,1.12,
0.973,-1.24,2.19,1.83,-0.06,0.17,1.11,
0.974,-1.12,2.14,1.68,-0.06,0.17,1.11,
0.976,-1.12,2.14,1.68,-0.05,0.17,1.11,
0.978,-1.12,2.14,1.68,-0.04,0.17,1.10,
0.979,-0.97,2.13,1.52,-0.04,0.17,1.10,
0.981,-0.97,2.13,1.52,-0.04,0.17,1.09,
0.983,-0.97,2.13,1.52,-0.03,0.17,1.08,
0.984,-0.80,2.13,1.37,-0.03,0.17,1.08,
0.986,-0.80,2.13,1.37,-0.03,0.17,1.08,
0.988,-0.80,2.13,1.37,-0.03,0.18,1.08,
0.989,-0.68,2.16,1.22,-0.03,0.18,1.08,
0.99,-0.68,2.16,1.22,-0.03,0.18,1.07,
0.997,-0.68,2.16,1.22,-0.03,0.18,1.07,
0.998,-0.63,2.22,1.12,-0.03,0.18,1.07,
0.998,-0.63,2.22,1.12,-0.03,0.18,1.07,
0.998,-0.63,2.22,1.12,-0.03,0.18,1.07,
0.998,-0.62,2.28,1.08,-0.03,0.18,1.07,
1.0,-0.62,2.28,1.08,-0.03,0.18,1.08,
1.003,-0.62,2.28,1.08,-0.03,0.18,1.08,
1.003,-0.67,2.33,1.08,-0.03,0.18,1.08,
1.005,-0.67,2.33,1.08,-0.04,0.18,1.08,
1.009,-0.67,2.33,1.08,-0.04,0.18,1.08,
1.009,-0.71,2.32,1.12,-0.04,0.18,1.08,
1.01,-0.71,2.32,1.12,-0.04,0.17,1.09,
1.013,-0.71,2.32,1.12,-0.03,0.17,1.09,
1.013,-0.75,2.28,1.16,-0.03,0.17,1.09,
1.015,-0.75,2.28,1.16,-0.03,0.16,1.09,
1.018,-0.75,2.28,1.16,-0.02,0.16,1.09,
1.018,-0.74,2.24,1.22,-0.02,0.16,1.09,
1.02,-0.74,2.24,1.22,-0.02,0.16,1.09,
1.022,-0.74,2.24,1.22,-0.01,0.16,1.09,
1.023,-0.65,2.18,1.25,-0.01,0.16,1.09,
1.025,-0.65,2.18,1.25,-0.01,0.15,1.09,
1.028,-0.65,2.18,1.25,-0.00,0.14,1.09,
1.028,-0.54,2.12,1.26,-0.00,0.14,1.09,
1.03,-0.54,2.12,1.26,-0.00,0.13,1.09,
1.032,-0.54,2.12,1.26,-0.00,0.13,1.09,
1.032,-0.47,2.02,1.25,-0.00,0.13,1.09,
1.035,-0.47,2.02,1.25,0.00,0.12,1.09,
1.037,-0.47,2.02,1.25,0.01,0.11,1.08,
1.038,-0.43,1.86,1.22,0.01,0.11,1.08,
1.04,-0.43,1.86,1.22,0.01,0.10,1.08,
1.042,-0.43,1.86,1.22,0.01,0.09,1.08,
1.043,-0.36,1.70,1.17,0.01,0.09,1.08,
1.045,-0.36,1.70,1.17,0.02,0.09,1.07,
1.047,-0.36,1.70,1.17,0.03,0.09,1.07,
1.048,-0.29,1.54,1.11,0.03,0.09,1.07,
1.049,-0.29,1.54,1.11,0.04,0.09,1.07,
1.052,-0.29,1.54,1.11,0.04,0.09,1.07,
1.052,-0.16,1.47,1.06,0.04,0.09,1.07,
1.054,-0.16,1.47,1.06,0.05,0.09,1.07,
1.057,-0.16,1.47,1.06,0.05,0.09,1.08,
1.057,-0.01,1.50,1.06,0.05,0.09,1.08,
1.059,-0.01,1.50,1.06,0.05,0.09,1.08,
1.062,-0.01,1.50,1.06,0.04,0.10,1.08,
1.062,0.07,1.51,1.08,0.04,0.10,1.08,
1.064,0.07,1.51,1.08,0.03,0.10,1.08,
1.067,0.07,1.51,1.08,0.03,0.10,1.09,
1.067,0.05,1.52,1.13,0.03,0.10,1.09,
1.069,0.05,1.52,1.13,0.02,0.10,1.09,
1.072,0.05,1.52,1.13,0.01,0.10,1.10,
1.072,-0.07,1.52,1.19,0.01,0.10,1.10,
1.074,-0.07,1.52,1.19,0.00,0.10,1.10,
1.077,-0.07,1.52,1.19,-0.01,0.10,1.10,
1.077,-0.22,1.53,1.28,-0.01,0.10,1.10,
1.079,-0.22,1.53,1.28,-0.01,0.10,1.10,
1.081,-0.22,1.53,1.28,-0.02,0.10,1.10,
1.082,-0.38,1.53,1.34,-0.02,0.10,1.10,
1.084,-0.38,1.53,1.34,-0.02,0.10,1.11,
1.086,-0.38,1.53,1.34,-0.02,0.10,1.10,
1.087,-0.51,1.55,1.36,-0.02,0.10,1.10,
1.089,-0.51,1.55,1.36,-0.03,0.10,1.10,
1.091,-0.51,1.55,1.36,-0.03,0.11,1.10,
1.092,-0.58,1.56,1.37,-0.03,0.11,1.10,
1.096,-0.58,1.56,1.37,-0.03,0.11,1.10,
1.096,-0.58,1.56,1.37,-0.03,0.11,1.10,
1.096,-0.61,1.61,1.35,-0.03,0.11,1.10,
1.098,-0.61,1.61,1.35,-0.03,0.11,1.10,
1.101,-0.61,1.61,1.35,-0.02,0.11,1.09,
1.101,-0.62,1.66,1.34,-0.02,0.11,1.09,
1.103,-0.62,1.66,1.34,-0.03,0.11,1.09,
1.106,-0.62,1.66,1.34,-0.03,0.11,1.09,
1.106,-0.58,1.66,1.28,-0.03,0.11,1.09,
1.108,-0.58,1.66,1.28,-0.03,0.11,1.08,
1.111,-0.58,1.66,1.28,-0.03,0.11,1.07,
1.111,-0.59,1.63,1.19,-0.03,0.11,1.07,
1.113,-0.59,1.63,1.19,-0.03,0.11,1.07,
1.115,-0.59,1.63,1.19,-0.02,0.11,1.06,
1.116,-0.61,1.59,1.08,-0.02,0.11,1.06,
1.118,-0.61,1.59,1.08,-0.02,0.11,1.05,
1.12,-0.61,1.59,1.08,-0.02,0.11,1.05,
1.12,-0.59,1.57,0.95,-0.02,0.11,1.05,
1.123,-0.59,1.57,0.95,-0.01,0.11,1.04,
1.125,-0.59,1.57,0.95,-0.01,0.10,1.04,
1.126,-0.53,1.56,0.82,-0.01,0.10,1.04,
1.128,-0.53,1.56,0.82,-0.01,0.10,1.04,
1.13,-0.53,1.56,0.82,-0.00,0.10,1.03,
1.131,-0.45,1.54,0.72,-0.00,0.10,1.03,
1.132,-0.45,1.54,0.72,-0.00,0.10,1.03,
1.135,-0.45,1.54,0.72,0.00,0.10,1.03,
1.135,-0.42,1.51,0.65,0.00,0.10,1.03,
1.137,-0.42,1.51,0.65,0.01,0.10,1.03,
1.14,-0.42,1.51,0.65,0.01,0.09,1.03,
1.141,-0.35,1.46,0.63,0.01,0.09,1.03,
1.142,-0.35,1.46,0.63,0.01,0.09,1.03,
1.145,-0.35,1.46,0.63,0.01,0.09,1.03,
1.145,-0.31,1.41,0.63,0.01,0.09,1.03,
1.148,-0.31,1.41,0.63,0.01,0.08,1.03,
1.15,-0.31,1.41,0.63,0.01,0.08,1.04,
1.15,-0.28,1.35,0.64,0.01,0.08,1.04,
1.152,-0.28,1.35,0.64,0.02,0.08,1.04,
1.155,-0.28,1.35,0.64,0.02,0.08,1.04,
1.155,-0.27,1.29,0.67,0.02,0.08,1.04,
1.157,-0.27,1.29,0.67,0.02,0.08,1.04,
1.16,-0.21,1.23,0.68,0.02,0.08,1.04,
1.16,-0.21,1.23,0.68,0.03,0.07,1.04,
1.162,-0.21,1.23,0.68,0.04,0.07,1.03,
1.165,-0.21,1.23,0.68,0.04,0.07,1.03,
1.165,-0.13,1.18,0.68,0.04,0.07,1.03,
1.167,-0.13,1.18,0.68,0.05,0.07,1.03,
1.169,-0.13,1.18,0.68,0.05,0.07,1.03,
1.17,-0.03,1.15,0.64,0.05,0.07,1.03,
1.172,-0.03,1.15,0.64,0.05,0.07,1.02,
1.175,-0.03,1.15,0.64,0.05,0.08,1.02,
1.176,0.06,1.14,0.58,0.05,0.08,1.02,
1.177,0.06,1.14,0.58,0.05,0.08,1.02,
1.179,0.06,1.14,0.58,0.06,0.08,1.01,
1.18,0.09,1.16,0.52,0.06,0.08,1.01,
1.181,0.09,1.16,0.52,0.05,0.09,1.01,
1.184,0.09,1.16,0.52,0.05,0.09,1.01,
1.184,0.11,1.23,0.45,0.05,0.09,1.01,
1.186,0.11,1.23,0.45,0.05,0.10,1.00,
1.189,0.11,1.23,0.45,0.05,0.11,1.00,
1.189,0.11,1.32,0.38,0.05,0.11,1.00,
1.197,0.11,1.32,0.38,0.05,0.11,1.00,
1.197,0.11,1.32,0.38,0.04,0.12,1.00,
1.198,0.05,1.44,0.35,0.04,0.12,1.00,
1.198,0.05,1.44,0.35,0.04,0.12,1.00,
1.199,0.05,1.44,0.35,0.04,0.12,1.00,
1.199,0.01,1.52,0.32,0.04,0.12,1.00,
1.201,0.01,1.52,0.32,0.04,0.12,1.00,
1.204,0.01,1.52,0.32,0.04,0.12,1.00,
1.204,-0.03,1.56,0.31,0.04,0.12,1.00,
1.206,-0.03,1.56,0.31,0.04,0.12,1.00,
1.209,-0.03,1.56,0.31,0.04,0.12,1.00,
1.21,-0.04,1.57,0.32,0.04,0.12,1.00,
1.211,-0.04,1.57,0.32,0.04,0.12,1.01,
1.214,-0.04,1.57,0.32,0.05,0.12,1.01,
1.214,-0.03,1.54,0.34,0.05,0.12,1.01,
1.216,-0.03,1.54,0.34,0.05,0.12,1.01,
1.218,-0.03,1.54,0.34,0.05,0.11,1.01,
1.218,0.01,1.52,0.37,0.05,0.11,1.01,
1.221,0.01,1.52,0.37,0.05,0.11,1.01,
1.223,0.01,1.52,0.37,0.06,0.11,1.01,
1.224,0.04,1.49,0.40,0.06,0.11,1.01,
1.226,0.04,1.49,0.40,0.06,0.10,1.01,
1.228,0.04,1.49,0.40,0.07,0.10,1.01,
1.228,0.12,1.40,0.43,0.07,0.10,1.01,
1.23,0.12,1.40,0.43,0.08,0.09,1.01,
1.233,0.12,1.40,0.43,0.08,0.09,1.02,
1.233,0.22,1.31,0.43,0.08,0.09,1.02,
1.235,0.22,1.31,0.43,0.09,0.09,1.02,
1.238,0.22,1.31,0.43,0.10,0.08,1.02,
1.238,0.35,1.22,0.46,0.10,0.08,1.02,
1.24,0.35,1.22,0.46,0.10,0.08,1.02,
1.243,0.35,1.22,0.46,0.10,0.08,1.02,
1.244,0.47,1.16,0.46,0.10,0.08,1.02,
1.245,0.47,1.16,0.46,0.11,0.08,1.02,
1.248,0.47,1.16,0.46,0.11,0.08,1.02,
1.248,0.56,1.10,0.47,0.11,0.08,1.02,
1.25,0.56,1.10,0.47,0.11,0.07,1.02,
1.253,0.56,1.10,0.47,0.11,0.08,1.02,
1.253,0.62,1.06,0.48,0.11,0.08,1.02,
1.255,0.62,1.06,0.48,0.11,0.07,1.02,
1.259,0.62,1.06,0.48,0.11,0.08,1.02,
1.259,0.63,1.05,0.50,0.11,0.08,1.02,
1.26,0.63,1.05,0.50,0.12,0.08,1.02,
1.263,0.63,1.05,0.50,0.12,0.08,1.02,
1.263,0.66,1.05,0.53,0.12,0.08,1.02,
1.265,0.66,1.05,0.53,0.12,0.09,1.02,
1.267,0.66,1.05,0.53,0.12,0.09,1.02,
1.268,0.69,1.10,0.54,0.12,0.09,1.02,
1.27,0.69,1.10,0.54,0.12,0.09,1.02,
1.273,0.69,1.10,0.54,0.12,0.09,1.02,
1.273,0.70,1.15,0.54,0.12,0.09,1.02,
1.276,0.70,1.15,0.54,0.13,0.10,1.03,
1.278,0.70,1.15,0.54,0.13,0.10,1.03,
1.278,0.73,1.19,0.54,0.13,0.10,1.03,
1.28,0.73,1.19,0.54,0.13,0.10,1.03,
1.282,0.73,1.19,0.54,0.13,0.10,1.03,
1.283,0.77,1.27,0.57,0.13,0.10,1.03,
1.285,0.77,1.27,0.57,0.13,0.10,1.04,
1.287,0.77,1.27,0.57,0.13,0.10,1.04,
1.287,0.79,1.27,0.61,0.13,0.10,1.04,
1.289,0.79,1.27,0.61,0.13,0.10,1.04,
1.292,0.79,1.27,0.61,0.13,0.09,1.05,
1.292,0.82,1.25,0.67,0.13,0.09,1.05,
1.294,0.82,1.25,0.67,0.13,0.09,1.05,
1.297,0.82,1.25,0.67,0.14,0.09,1.05,
1.297,0.81,1.21,0.72,0.14,0.09,1.05,
1.299,0.81,1.21,0.72,0.14,0.10,1.05,
1.302,0.81,1.21,0.72,0.14,0.10,1.05,
1.302,0.85,1.18,0.75,0.14,0.10,1.05,
1.304,0.85,1.18,0.75,0.14,0.10,1.05,
1.307,0.85,1.18,0.75,0.14,0.10,1.05,
1.307,0.87,1.21,0.79,0.14,0.10,1.05,
1.314,0.87,1.21,0.79,0.14,0.10,1.05,
1.315,0.87,1.21,0.79,0.14,0.10,1.05,
1.315,0.89,1.21,0.80,0.14,0.10,1.05,
1.316,0.89,1.21,0.80,0.14,0.10,1.05,
1.316,0.89,1.21,0.80,0.13,0.10,1.05,
1.317,0.86,1.21,0.81,0.13,0.10,1.05,
1.319,0.86,1.21,0.81,0.13,0.10,1.05,
1.321,0.86,1.21,0.81,0.13,0.09,1.04,
1.322,0.83,1.17,0.77,0.13,0.09,1.04,
1.323,0.83,1.17,0.77,0.13,0.09,1.04,
1.327,0.83,1.17,0.77,0.13,0.09,1.04,
1.327,0.79,1.15,0.73,0.13,0.09,1.04,
1.329,0.79,1.15,0.73,0.13,0.09,1.04,
1.331,0.79,1.15,0.73,0.13,0.10,1.04,
1.331,0.80,1.13,0.67,0.13,0.10,1.04,
1.333,0.80,1.13,0.67,0.13,0.10,1.03,
1.336,0.80,1.13,0.67,0.14,0.10,1.03,
1.336,0.79,1.12,0.64,0.14,0.10,1.03,
1.338,0.79,1.12,0.64,0.14,0.10,1.03,
1.341,0.79,1.12,0.64,0.13,0.10,1.03,
1.342,0.80,1.14,0.61,0.13,0.10,1.03,
1.343,0.80,1.14,0.61,0.13,0.09,1.03,
1.346,0.80,1.14,0.61,0.13,0.09,1.03,
1.346,0.79,1.14,0.60,0.13,0.09,1.03,
1.348,0.79,1.14,0.60,0.13,0.09,1.03,
1.351,0.79,1.14,0.60,0.13,0.08,1.03,
1.351,0.75,1.08,0.60,0.13,0.08,1.03,
1.353,0.75,1.08,0.60,0.13,0.08,1.03,
1.356,0.75,1.08,0.60,0.13,0.07,1.03,
1.356,0.76,1.00,0.59,0.13,0.07,1.03,
1.358,0.76,1.00,0.59,0.13,0.07,1.03,
1.361,0.76,1.00,0.59,0.14,0.07,1.03,
1.361,0.74,0.90,0.56,0.14,0.07,1.03,
1.364,0.74,0.90,0.56,0.14,0.07,1.02,
1.365,0.74,0.90,0.56,0.14,0.07,1.02,
1.366,0.76,0.84,0.54,0.14,0.07,1.02,
1.368,0.76,0.84,0.54,0.15,0.07,1.02,
1.37,0.76,0.84,0.54,0.15,0.07,1.02,
1.37,0.80,0.83,0.52,0.15,0.07,1.02,
1.373,0.80,0.83,0.52,0.15,0.08,1.01,
1.376,0.80,0.83,0.52,0.15,0.08,1.01,
1.376,0.86,0.84,0.47,0.15,0.08,1.01,
1.378,0.86,0.84,0.47,0.15,0.08,1.01,
1.381,0.86,0.86,0.42,0.15,0.08,1.01,
1.383,0.86,0.86,0.42,0.14,0.08,1.01,
1.383,0.86,0.86,0.42,0.14,0.08,1.01,
1.385,0.86,0.86,0.42,0.13,0.07,1.00,
1.385,0.80,0.85,0.37,0.13,0.07,1.00,
1.387,0.80,0.85,0.37,0.13,0.08,1.00,
1.39,0.80,0.85,0.37,0.12,0.08,1.00,
1.39,0.68,0.81,0.33,0.12,0.08,1.00,
1.397,0.68,0.81,0.33,0.12,0.08,1.00,
1.397,0.68,0.81,0.33,0.11,0.08,0.99,
1.398,0.58,0.80,0.28,0.11,0.08,0.99,
1.398,0.58,0.80,0.28,0.11,0.08,0.99,
1.4,0.58,0.80,0.28,0.11,0.08,0.99,
1.4,0.48,0.80,0.23,0.11,0.08,0.99,
1.402,0.48,0.80,0.23,0.11,0.09,0.99,
1.405,0.48,0.80,0.23,0.10,0.09,0.98,
1.405,0.42,0.83,0.18,0.10,0.09,0.98,
1.407,0.42,0.83,0.18,0.10,0.09,0.98,
1.411,0.42,0.83,0.18,0.09,0.09,0.98,
1.412,0.34,0.85,0.14,0.09,0.09,0.98,
1.412,0.34,0.85,0.14,0.09,0.09,0.98,
1.415,0.34,0.85,0.14,0.09,0.08,0.98,
1.415,0.27,0.85,0.10,0.09,0.08,0.98,
1.417,0.27,0.85,0.10,0.09,0.08,0.98,
1.419,0.27,0.85,0.10,0.08,0.08,0.98,
1.419,0.21,0.80,0.08,0.08,0.08,0.98,
1.422,0.21,0.80,0.08,0.08,0.08,0.98,
1.424,0.21,0.80,0.08,0.08,0.08,0.98,
1.425,0.16,0.76,0.07,0.08,0.08,0.98,
1.427,0.16,0.76,0.07,0.08,0.08,0.98,
1.429,0.16,0.76,0.07,0.08,0.09,0.98,
1.429,0.12,0.75,0.07,0.08,0.09,0.98,
1.432,0.12,0.75,0.07,0.08,0.09,0.98,
1.434,0.12,0.75,0.07,0.08,0.09,0.98,
1.434,0.12,0.77,0.10,0.08,0.09,0.98,
1.436,0.12,0.77,0.10,0.08,0.09,0.99,
1.439,0.12,0.77,0.10,0.08,0.09,0.99,
1.439,0.12,0.82,0.14,0.08,0.09,0.99,
1.441,0.12,0.82,0.14,0.08,0.09,0.99,
1.444,0.12,0.82,0.14,0.08,0.09,1.00,
1.444,0.11,0.82,0.19,0.08,0.09,1.00,
1.447,0.11,0.82,0.19,0.09,0.09,1.00,
1.449,0.11,0.82,0.19,0.09,0.09,1.00,
1.449,0.10,0.78,0.24,0.09,0.09,1.00,
1.451,0.10,0.78,0.24,0.09,0.09,1.00,
1.454,0.10,0.78,0.24,0.09,0.09,1.00,
1.454,0.14,0.74,0.28,0.09,0.09,1.00,
1.456,0.14,0.74,0.28,0.10,0.09,1.00,
1.459,0.14,0.74,0.28,0.10,0.09,1.01,
1.46,0.17,0.73,0.29,0.10,0.09,1.01,
1.461,0.17,0.73,0.29,0.10,0.09,1.01,
1.463,0.17,0.73,0.29,0.10,0.09,1.01,
1.464,0.21,0.72,0.34,0.10,0.09,1.01,
1.466,0.21,0.72,0.34,0.09,0.08,1.01,
1.468,0.21,0.72,0.34,0.09,0.08,1.01,
1.469,0.22,0.68,0.35,0.09,0.08,1.01,
1.471,0.22,0.68,0.35,0.08,0.08,1.01,
1.474,0.22,0.68,0.35,0.07,0.07,1.00,
1.474,0.14,0.59,0.36,0.07,0.07,1.00,
1.476,0.14,0.59,0.36,0.07,0.07,1.00,
1.478,0.14,0.59,0.36,0.06,0.07,1.00,
1.479,-0.01,0.52,0.34,0.06,0.07,1.00,
1.48,-0.01,0.52,0.34,0.06,0.07,0.99,
1.483,-0.01,0.52,0.34,0.05,0.07,0.99,
1.484,-0.14,0.48,0.28,0.05,0.07,0.99,
1.485,-0.14,0.48,0.28,0.05,0.08,0.99,
1.488,-0.14,0.48,0.28,0.05,0.08,0.98,
1.488,-0.29,0.46,0.20,0.05,0.08,0.98,
1.491,-0.29,0.46,0.20,0.04,0.08,0.98,
1.493,-0.29,0.46,0.20,0.04,0.08,0.97,
1.493,-0.36,0.49,0.13,0.04,0.08,0.97,
1.496,-0.36,0.49,0.13,0.05,0.08,0.97,
1.498,-0.36,0.49,0.13,0.05,0.08,0.96,
1.498,-0.40,0.50,0.03,0.05,0.08,0.96,
1.5,-0.40,0.50,0.03,0.05,0.08,0.96,
1.503,-0.40,0.50,0.03,0.06,0.08,0.96,
1.503,-0.35,0.48,-0.06,0.06,0.08,0.96,
1.505,-0.35,0.48,-0.06,0.07,0.08,0.95,
1.514,-0.35,0.48,-0.06,0.07,0.07,0.95,
1.514,-0.31,0.45,-0.13,0.07,0.07,0.95,
1.515,-0.31,0.45,-0.13,0.08,0.07,0.95,
1.515,-0.31,0.45,-0.13,0.09,0.06,0.95,
1.515,-0.17,0.39,-0.16,0.09,0.06,0.95,
1.515,-0.17,0.39,-0.16,0.10,0.06,0.95,
1.518,-0.17,0.39,-0.16,0.12,0.06,0.95,
1.518,-0.03,0.30,-0.18,0.12,0.06,0.95,
1.519,-0.03,0.30,-0.18,0.13,0.06,0.95,
1.522,-0.03,0.30,-0.18,0.13,0.05,0.95,
1.523,0.17,0.24,-0.20,0.13,0.05,0.95,
1.524,0.17,0.24,-0.20,0.14,0.05,0.95,
1.527,0.17,0.24,-0.20,0.15,0.04,0.95,
1.527,0.37,0.16,-0.21,0.15,0.04,0.95,
1.529,0.37,0.16,-0.21,0.15,0.04,0.95,
1.532,0.37,0.16,-0.21,0.16,0.04,0.95,
1.532,0.50,0.08,-0.21,0.16,0.04,0.95,
1.534,0.50,0.08,-0.21,0.16,0.03,0.95,
1.537,0.50,0.08,-0.21,0.16,0.03,0.95,
1.537,0.60,-0.00,-0.21,0.16,0.03,0.95,
1.539,0.60,-0.00,-0.21,0.16,0.03,0.95,
1.542,0.60,-0.00,-0.21,0.16,0.02,0.95,
1.542,0.61,-0.08,-0.21,0.16,0.02,0.95,
1.544,0.61,-0.08,-0.21,0.15,0.02,0.95,
1.547,0.61,-0.08,-0.21,0.14,0.02,0.95,
1.547,0.58,-0.15,-0.18,0.14,0.02,0.95,
1.549,0.58,-0.15,-0.18,0.14,0.02,0.95,
1.552,0.58,-0.15,-0.18,0.13,0.02,0.95,
1.552,0.48,-0.20,-0.16,0.13,0.02,0.95,
1.554,0.48,-0.20,-0.16,0.12,0.01,0.95,
1.557,0.48,-0.20,-0.16,0.11,0.02,0.95,
1.558,0.35,-0.26,-0.18,0.11,0.02,0.95,
1.559,0.35,-0.26,-0.18,0.11,0.02,0.95,
1.562,0.35,-0.26,-0.18,0.10,0.02,0.94,
1.562,0.19,-0.28,-0.20,0.10,0.02,0.94,
1.564,0.19,-0.28,-0.20,0.09,0.03,0.94,
1.566,0.19,-0.28,-0.20,0.08,0.03,0.94,
1.566,0.03,-0.23,-0.23,0.08,0.03,0.94,
1.569,0.03,-0.23,-0.23,0.08,0.04,0.93,
1.571,0.03,-0.23,-0.23,0.07,0.04,0.93,
1.571,-0.10,-0.17,-0.28,0.07,0.04,0.93,
1.575,-0.10,-0.17,-0.28,0.06,0.04,0.93,
1.577,-0.10,-0.17,-0.28,0.05,0.05,0.93,
1.577,-0.26,-0.10,-0.35,0.05,0.05,0.93,
1.579,-0.26,-0.10,-0.35,0.05,0.05,0.93,
1.581,-0.40,-0.04,-0.40,0.05,0.05,0.93,
1.581,-0.40,-0.04,-0.40,0.04,0.05,0.93,
1.583,-0.40,-0.04,-0.40,0.04,0.05,0.93,
1.586,-0.40,-0.04,-0.40,0.04,0.05,0.93,
1.586,-0.50,0.00,-0.37,0.04,0.05,0.93,
1.588,-0.50,0.00,-0.37,0.03,0.05,0.94,
1.592,-0.50,0.00,-0.37,0.03,0.04,0.95,
1.592,-0.55,-0.00,-0.32,0.03,0.04,0.95,
1.594,-0.55,-0.00,-0.32,0.04,0.04,0.95,
1.596,-0.55,-0.00,-0.32,0.04,0.04,0.96,
1.597,-0.59,-0.06,-0.21,0.04,0.04,0.96,
1.598,-0.59,-0.06,-0.21,0.04,0.03,0.96,
1.6,-0.59,-0.06,-0.21,0.04,0.03,0.97,
1.601,-0.55,-0.14,-0.10,0.04,0.03,0.97,
1.603,-0.55,-0.14,-0.10,0.04,0.03,0.97,
1.605,-0.55,-0.14,-0.10,0.05,0.02,0.98,
1.606,-0.50,-0.22,0.02,0.05,0.02,0.98,
1.613,-0.50,-0.22,0.02,0.05,0.02,0.98,
1.614,-0.50,-0.22,0.02,0.06,0.01,0.98,
1.614,-0.45,-0.30,0.10,0.06,0.01,0.98,
1.614,-0.45,-0.30,0.10,0.06,0.01,0.98,
1.616,-0.45,-0.30,0.10,0.06,0.00,0.98,
1.616,-0.38,-0.39,0.16,0.06,0.00,0.98,
1.617,-0.38,-0.39,0.16,0.06,-0.00,0.98,
1.621,-0.38,-0.39,0.16,0.07,-0.01,0.98,
1.621,-0.29,-0.48,0.18,0.07,-0.01,0.98,
1.623,-0.29,-0.48,0.18,0.07,-0.01,0.98,
1.628,-0.29,-0.48,0.18,0.07,-0.01,0.98,
1.629,-0.26,-0.56,0.15,0.07,-0.01,0.98,
1.629,-0.26,-0.56,0.15,0.07,-0.01,0.97,
1.63,-0.26,-0.56,0.15,0.08,-0.01,0.97,
1.63,-0.22,-0.62,0.11,0.08,-0.01,0.97,
1.632,-0.22,-0.62,0.11,0.07,-0.02,0.97,
1.635,-0.22,-0.62,0.11,0.07,-0.02,0.96,
1.635,-0.18,-0.66,0.05,0.07,-0.02,0.96,
1.637,-0.18,-0.66,0.05,0.07,-0.01,0.96,
1.641,-0.18,-0.66,0.05,0.07,-0.01,0.96,
1.642,-0.18,-0.68,-0.00,0.07,-0.01,0.96,
1.642,-0.18,-0.68,-0.00,0.07,-0.01,0.96,
1.645,-0.18,-0.68,-0.00,0.06,-0.01,0.96,
1.645,-0.21,-0.67,-0.04,0.06,-0.01,0.96,
1.647,-0.21,-0.67,-0.04,0.06,-0.01,0.96,
1.649,-0.21,-0.67,-0.04,0.05,-0.01,0.96,
1.65,-0.28,-0.67,-0.04,0.05,-0.01,0.96,
1.652,-0.28,-0.67,-0.04,0.05,-0.01,0.96,
1.655,-0.28,-0.67,-0.04,0.04,-0.01,0.96,
1.655,-0.38,-0.63,-0.05,0.04,-0.01,0.96,
1.657,-0.38,-0.63,-0.05,0.03,-0.01,0.97,
1.66,-0.38,-0.63,-0.05,0.03,-0.00,0.97,
1.66,-0.49,-0.59,-0.03,0.03,-0.00,0.97,
1.662,-0.49,-0.59,-0.03,0.03,-0.00,0.97,
1.664,-0.49,-0.59,-0.03,0.02,-0.00,0.98,
1.664,-0.59,-0.58,0.03,0.02,-0.00,0.98,
1.666,-0.59,-0.58,0.03,0.02,-0.00,0.98,
1.669,-0.59,-0.58,0.03,0.02,-0.00,0.99,
1.669,-0.65,-0.56,0.11,0.02,-0.00,0.99,
1.671,-0.65,-0.56,0.11,0.02,-0.00,0.99,
1.674,-0.65,-0.56,0.11,0.02,-0.00,0.99,
1.675,-0.65,-0.56,0.19,0.02,-0.00,0.99,
1.676,-0.65,-0.56,0.19,0.03,-0.00,0.99,
1.679,-0.65,-0.56,0.19,0.03,-0.00,0.99,
1.679,-0.64,-0.57,0.25,0.03,-0.00,0.99,
1.681,-0.64,-0.57,0.25,0.03,-0.01,0.99,
1.684,-0.64,-0.57,0.25,0.03,-0.01,0.99,
1.684,-0.60,-0.57,0.27,0.03,-0.01,0.99,
1.686,-0.60,-0.57,0.27,0.03,-0.01,0.99,
1.689,-0.56,-0.60,0.24,0.03,-0.01,0.99,
1.689,-0.56,-0.60,0.24,0.04,-0.01,0.99,
1.697,-0.56,-0.60,0.24,0.04,-0.01,0.98,
1.697,-0.56,-0.60,0.24,0.04,-0.01,0.97,
1.697,-0.51,-0.62,0.20,0.04,-0.01,0.97,
1.698,-0.51,-0.62,0.20,0.04,-0.00,0.96,
1.699,-0.51,-0.62,0.20,0.04,-0.00,0.96,
1.699,-0.46,-0.62,0.11,0.04,-0.00,0.96,
1.701,-0.46,-0.62,0.11,0.04,-0.00,0.95,
1.703,-0.46,-0.62,0.11,0.04,0.00,0.94,
1.704,-0.46,-0.59,-0.05,0.04,0.00,0.94,
1.706,-0.46,-0.59,-0.05,0.04,0.00,0.93,
1.71,-0.46,-0.59,-0.05,0.03,0.01,0.92,
1.711,-0.46,-0.58,-0.23,0.03,0.01,0.92,
1.711,-0.46,-0.58,-0.23,0.03,0.01,0.91,
1.713,-0.46,-0.58,-0.23,0.03,0.01,0.91,
1.714,-0.51,-0.53,-0.41,0.03,0.01,0.91,
1.715,-0.51,-0.53,-0.41,0.02,0.02,0.91,
1.718,-0.51,-0.53,-0.41,0.01,0.02,0.90,
1.718,-0.59,-0.48,-0.52,0.01,0.02,0.90,
1.72,-0.59,-0.48,-0.52,0.01,0.02,0.90,
1.723,-0.59,-0.48,-0.52,0.01,0.02,0.90,
1.723,-0.70,-0.42,-0.59,0.01,0.02,0.90,
1.725,-0.70,-0.42,-0.59,0.00,0.02,0.90,
1.728,-0.70,-0.42,-0.59,-0.00,0.02,0.90,
1.728,-0.78,-0.37,-0.62,-0.00,0.02,0.90,
1.73,-0.78,-0.37,-0.62,-0.01,0.02,0.91,
1.733,-0.78,-0.37,-0.62,-0.01,0.02,0.91,
1.733,-0.85,-0.37,-0.61,-0.01,0.02,0.91,
1.735,-0.85,-0.37,-0.61,-0.01,0.02,0.92,
1.737,-0.85,-0.37,-0.61,-0.01,0.02,0.93,
1.737,-0.93,-0.37,-0.50,-0.01,0.02,0.93,
1.74,-0.93,-0.37,-0.50,-0.00,0.02,0.93,
1.742,-0.93,-0.37,-0.50,-0.00,0.01,0.94,
1.742,-0.89,-0.40,-0.39,-0.00,0.01,0.94,
1.744,-0.89,-0.40,-0.39,-0.00,0.01,0.95,
1.747,-0.89,-0.40,-0.39,-0.00,0.01,0.96,
1.747,-0.84,-0.43,-0.25,-0.00,0.01,0.96,
1.749,-0.84,-0.43,-0.25,-0.00,0.00,0.96,
1.752,-0.84,-0.43,-0.25,-0.00,-0.00,0.97,
1.752,-0.81,-0.50,-0.10,-0.00,-0.00,0.97,
1.754,-0.81,-0.50,-0.10,0.00,-0.01,0.97,
1.757,-0.81,-0.50,-0.10,0.01,-0.01,0.97,
1.758,-0.81,-0.58,0.02,0.01,-0.01,0.97,
1.759,-0.81,-0.58,0.02,0.01,-0.01,0.98,
1.762,-0.81,-0.58,0.02,0.01,-0.01,0.98,
1.762,-0.75,-0.67,0.10,0.01,-0.01,0.98,
1.764,-0.75,-0.67,0.10,0.02,-0.02,0.98,
1.767,-0.75,-0.67,0.10,0.02,-0.02,0.98,
1.767,-0.70,-0.70,0.18,0.02,-0.02,0.98,
1.769,-0.70,-0.70,0.18,0.02,-0.02,0.98,
1.772,-0.70,-0.70,0.18,0.02,-0.02,0.98,
1.772,-0.60,-0.73,0.19,0.02,-0.02,0.98,
1.774,-0.60,-0.73,0.19,0.02,-0.02,0.97,
1.777,-0.60,-0.73,0.19,0.02,-0.02,0.97,
1.777,-0.58,-0.75,0.16,0.02,-0.02,0.97,
1.779,-0.58,-0.75,0.16,0.02,-0.02,0.97,
1.782,-0.58,-0.75,0.16,0.02,-0.02,0.96,
1.782,-0.57,-0.79,0.11,0.02,-0.02,0.96,
1.784,-0.57,-0.79,0.11,0.02,-0.02,0.96,
1.786,-0.57,-0.79,0.11,0.02,-0.02,0.95,
1.787,-0.58,-0.80,0.03,0.02,-0.02,0.95,
1.789,-0.58,-0.80,0.03,0.03,-0.01,0.95,
1.795,-0.58,-0.80,0.03,0.03,-0.01,0.94,
1.796,-0.56,-0.74,-0.07,0.03,-0.01,0.94,
1.796,-0.56,-0.74,-0.07,0.03,-0.01,0.94,
1.797,-0.56,-0.74,-0.07,0.03,-0.00,0.94,
1.797,-0.53,-0.67,-0.16,0.03,-0.00,0.94,
1.798,-0.53,-0.67,-0.16,0.03,-0.00,0.93,
1.801,-0.53,-0.67,-0.16,0.02,-0.00,0.93,
1.802,-0.54,-0.60,-0.22,0.02,-0.00,0.93,
1.803,-0.54,-0.60,-0.22,0.02,-0.00,0.93,
1.807,-0.54,-0.60,-0.22,0.02,-0.00,0.93,
1.807,-0.57,-0.56,-0.29,0.02,-0.00,0.93,
1.809,-0.57,-0.56,-0.29,0.02,-0.00,0.93,
1.811,-0.57,-0.56,-0.29,0.02,-0.00,0.93,
1.811,-0.58,-0.55,-0.32,0.02,-0.00,0.93,
1.813,-0.58,-0.55,-0.32,0.03,-0.00,0.93,
1.816,-0.58,-0.55,-0.32,0.03,-0.01,0.93,
1.816,-0.59,-0.56,-0.34,0.03,-0.01,0.93,
1.818,-0.59,-0.56,-0.34,0.03,-0.01,0.93,
1.821,-0.59,-0.56,-0.34,0.03,-0.01,0.93,
1.821,-0.56,-0.57,-0.33,0.03,-0.01,0.93,
1.824,-0.56,-0.57,-0.33,0.04,-0.01,0.94,
1.826,-0.56,-0.57,-0.33,0.04,-0.02,0.94,
1.826,-0.50,-0.59,-0.29,0.04,-0.02,0.94,
1.828,-0.50,-0.59,-0.29,0.04,-0.02,0.94,
1.831,-0.50,-0.59,-0.29,0.04,-0.02,0.94,
1.831,-0.47,-0.66,-0.23,0.04,-0.02,0.94,
1.833,-0.47,-0.66,-0.23,0.04,-0.03,0.95,
1.835,-0.44,-0.73,-0.18,0.04,-0.03,0.95,
1.836,-0.44,-0.73,-0.18,0.04,-0.03,0.95,
1.838,-0.44,-0.73,-0.18,0.04,-0.03,0.95,
1.841,-0.44,-0.73,-0.18,0.04,-0.03,0.95,
1.841,-0.41,-0.77,-0.12,0.04,-0.03,0.95,
1.843,-0.41,-0.77,-0.12,0.04,-0.04,0.95,
1.845,-0.41,-0.77,-0.12,0.04,-0.03,0.95,
1.846,-0.42,-0.80,-0.10,0.04,-0.03,0.95,
1.848,-0.42,-0.80,-0.10,0.04,-0.04,0.95,
1.85,-0.42,-0.80,-0.10,0.04,-0.03,0.95,
1.85,-0.42,-0.83,-0.09,0.04,-0.03,0.95,
1.853,-0.42,-0.83,-0.09,0.04,-0.03,0.95,
1.855,-0.42,-0.83,-0.09,0.04,-0.03,0.94,
1.855,-0.42,-0.82,-0.10,0.04,-0.03,0.94,
1.858,-0.42,-0.82,-0.10,0.04,-0.03,0.94,
1.86,-0.42,-0.82,-0.10,0.04,-0.03,0.94,
1.861,-0.41,-0.77,-0.13,0.04,-0.03,0.94,
1.862,-0.41,-0.77,-0.13,0.04,-0.02,0.93,
1.865,-0.41,-0.77,-0.13,0.04,-0.02,0.93,
1.865,-0.40,-0.73,-0.19,0.04,-0.02,0.93,
1.867,-0.40,-0.73,-0.19,0.04,-0.02,0.93,
1.87,-0.40,-0.73,-0.19,0.04,-0.02,0.92,
1.873,-0.41,-0.71,-0.26,0.04,-0.02,0.92,
1.873,-0.41,-0.71,-0.26,0.04,-0.01,0.92,
1.876,-0.41,-0.71,-0.26,0.04,-0.01,0.92,
1.877,-0.44,-0.66,-0.32,0.04,-0.01,0.92,
1.878,-0.44,-0.66,-0.32,0.04,-0.01,0.92,
1.88,-0.44,-0.66,-0.32,0.04,-0.00,0.92,
1.88,-0.42,-0.59,-0.36,0.04,-0.00,0.92,
1.882,-0.42,-0.59,-0.36,0.04,-0.00,0.91,
1.884,-0.42,-0.59,-0.36,0.04,0.00,0.91,
1.885,-0.37,-0.51,-0.40,0.04,0.00,0.91,
1.887,-0.37,-0.51,-0.40,0.05,0.00,0.91,
1.89,-0.37,-0.51,-0.40,0.05,0.00,0.91,
1.891,-0.37,-0.47,-0.43,0.05,0.00,0.91,
1.892,-0.37,-0.47,-0.43,0.04,0.00,0.92,
1.895,-0.37,-0.47,-0.43,0.04,0.00,0.92,
1.896,-0.34,-0.43,-0.41,0.04,0.00,0.92,
1.897,-0.34,-0.43,-0.41,0.04,0.01,0.93,
1.899,-0.34,-0.43,-0.41,0.04,0.00,0.94,
1.9,-0.36,-0.41,-0.35,0.04,0.00,0.94,
1.901,-0.36,-0.41,-0.35,0.04,0.01,0.94,
1.904,-0.36,-0.41,-0.35,0.04,0.01,0.95,
1.904,-0.37,-0.39,-0.23,0.04,0.01,0.95,
1.912,-0.37,-0.39,-0.23,0.04,0.01,0.95,
1.913,-0.37,-0.39,-0.23,0.04,0.01,0.96,
1.913,-0.39,-0.38,-0.12,0.04,0.01,0.96,
1.913,-0.39,-0.38,-0.12,0.04,0.01,0.96,
1.914,-0.39,-0.38,-0.12,0.04,0.01,0.97,
1.914,-0.40,-0.34,-0.00,0.04,0.01,0.97,
1.916,-0.40,-0.34,-0.00,0.03,0.01,0.97,
1.919,-0.40,-0.34,-0.00,0.03,0.01,0.98,
1.919,-0.41,-0.31,0.10,0.03,0.01,0.98,
1.921,-0.41,-0.31,0.10,0.03,0.01,0.98,
1.925,-0.41,-0.31,0.10,0.03,0.01,0.98,
1.926,-0.44,-0.30,0.18,0.03,0.01,0.98,
1.926,-0.44,-0.30,0.18,0.03,0.01,0.98,
1.929,-0.44,-0.30,0.18,0.03,0.01,0.98,
1.929,-0.46,-0.29,0.21,0.03,0.01,0.98,
1.931,-0.46,-0.29,0.21,0.03,0.01,0.98,
1.933,-0.46,-0.29,0.21,0.03,0.01,0.98,
1.933,-0.47,-0.28,0.23,0.03,0.01,0.98,
1.936,-0.47,-0.28,0.23,0.03,0.02,0.98,
1.938,-0.47,-0.28,0.23,0.04,0.02,0.98,
1.938,-0.48,-0.28,0.23,0.04,0.02,0.98,
1.941,-0.48,-0.28,0.23,0.04,0.02,0.98,
1.943,-0.48,-0.28,0.23,0.04,0.02,0.97,
1.944,-0.43,-0.24,0.20,0.04,0.02,0.97,
1.946,-0.43,-0.24,0.20,0.05,0.02,0.97,
1.948,-0.43,-0.24,0.20,0.06,0.02,0.96,
1.948,-0.34,-0.24,0.17,0.06,0.02,0.96,
1.95,-0.34,-0.24,0.17,0.06,0.02,0.96,
1.953,-0.34,-0.24,0.17,0.07,0.02,0.96,
1.953,-0.24,-0.25,0.09,0.07,0.02,0.96,
1.956,-0.24,-0.25,0.09,0.07,0.02,0.96,
1.958,-0.24,-0.25,0.09,0.07,0.02,0.96,
1.959,-0.13,-0.24,0.05,0.07,0.02,0.96,
1.96,-0.13,-0.24,0.05,0.07,0.02,0.96,
1.963,-0.13,-0.24,0.05,0.07,0.02,0.96,
1.963,-0.05,-0.23,0.02,0.07,0.02,0.96,
1.965,-0.05,-0.23,0.02,0.07,0.02,0.96,
1.968,-0.05,-0.23,0.02,0.07,0.02,0.95,
1.968,-0.01,-0.24,-0.01,0.07,0.02,0.95,
1.97,-0.01,-0.24,-0.01,0.07,0.02,0.95,
1.973,-0.01,-0.24,-0.01,0.07,0.02,0.95,
1.974,-0.03,-0.25,-0.03,0.07,0.02,0.95,
1.975,-0.03,-0.25,-0.03,0.07,0.02,0.95,
1.978,-0.03,-0.25,-0.03,0.07,0.02,0.95,
1.979,-0.02,-0.21,-0.05,0.07,0.02,0.95,
1.98,-0.02,-0.21,-0.05,0.06,0.03,0.95,
1.982,-0.02,-0.21,-0.05,0.06,0.03,0.95,
1.983,-0.04,-0.19,-0.05,0.06,0.03,0.95,
1.985,-0.04,-0.19,-0.05,0.05,0.03,0.95,
1.987,-0.04,-0.19,-0.05,0.05,0.04,0.95,
1.988,-0.11,-0.15,-0.07,0.05,0.04,0.95,
1.99,-0.11,-0.15,-0.07,0.04,0.04,0.95,
1.992,-0.11,-0.15,-0.07,0.04,0.04,0.94,
1.993,-0.22,-0.10,-0.08,0.04,0.04,0.94,
1.995,-0.22,-0.10,-0.08,0.04,0.04,0.94,
1.997,-0.22,-0.10,-0.08,0.04,0.04,0.94,
1.998,-0.30,-0.04,-0.12,0.04,0.04,0.94,
1.999,-0.30,-0.04,-0.12,0.03,0.05,0.94,
2.002,-0.30,-0.04,-0.12,0.03,0.05,0.94,
2.002,-0.35,0.01,-0.13,0.03,0.05,0.94,
2.005,-0.35,0.01,-0.13,0.03,0.05,0.94,
2.012,-0.35,0.01,-0.13,0.02,0.04,0.94,
2.013,-0.38,0.03,-0.16,0.02,0.04,0.94,
2.013,-0.38,0.03,-0.16,0.02,0.04,0.94,
2.013,-0.46,0.01,-0.19,0.02,0.04,0.94,
2.014,-0.46,0.01,-0.19,0.02,0.04,0.94,
2.014,-0.46,0.01,-0.19,0.02,0.04,0.95,
2.017,-0.46,0.01,-0.19,0.02,0.04,0.95,
2.017,-0.47,0.01,-0.16,0.02,0.04,0.95,
2.019,-0.47,0.01,-0.16,0.03,0.04,0.96,
2.023,-0.47,0.01,-0.16,0.03,0.04,0.96,
2.023,-0.45,0.01,-0.08,0.03,0.04,0.96,
2.026,-0.45,0.01,-0.08,0.04,0.04,0.97,
2.027,-0.45,0.01,-0.08,0.04,0.04,0.97,
2.027,-0.35,0.02,0.02,0.04,0.04,0.97,
2.029,-0.35,0.02,0.02,0.05,0.04,0.98,
2.032,-0.35,0.02,0.02,0.05,0.04,0.99,
2.032,-0.26,0.02,0.14,0.05,0.04,0.99,
2.034,-0.26,0.02,0.14,0.05,0.04,0.99,
2.036,-0.26,0.02,0.14,0.06,0.04,1.00,
2.036,-0.17,0.01,0.24,0.06,0.04,1.00,
2.039,-0.17,0.01,0.24,0.06,0.04,1.00,
2.041,-0.17,0.01,0.24,0.06,0.04,1.01,
2.041,-0.09,-0.02,0.36,0.06,0.04,1.01,
2.043,-0.09,-0.02,0.36,0.06,0.04,1.01,
2.046,-0.09,-0.02,0.36,0.07,0.04,1.01,
2.046,-0.02,-0.03,0.46,0.07,0.04,1.01,
2.048,-0.02,-0.03,0.46,0.07,0.04,1.02,
2.051,-0.02,-0.03,0.46,0.07,0.04,1.02,
2.051,0.03,-0.00,0.53,0.07,0.04,1.02,
2.053,0.03,-0.00,0.53,0.07,0.04,1.02,
2.056,0.03,-0.00,0.53,0.07,0.04,1.02,
2.057,0.05,0.04,0.56,0.07,0.04,1.02,
2.058,0.05,0.04,0.56,0.06,0.04,1.02,
2.061,0.05,0.04,0.56,0.06,0.04,1.02,
2.061,0.03,0.05,0.56,0.06,0.04,1.02,
2.063,0.03,0.05,0.56,0.06,0.04,1.01,
2.066,0.03,0.05,0.56,0.05,0.04,1.01,
2.066,-0.01,0.03,0.54,0.05,0.04,1.01,
2.068,-0.01,0.03,0.54,0.05,0.04,1.01,
2.071,-0.01,0.03,0.54,0.05,0.04,1.01,
2.071,-0.08,0.03,0.51,0.05,0.04,1.01,
2.073,-0.08,0.03,0.51,0.05,0.05,1.00,
2.076,-0.08,0.03,0.51,0.05,0.05,1.00,
2.076,-0.09,0.04,0.45,0.05,0.05,1.00,
2.078,-0.09,0.04,0.45,0.05,0.05,1.00,
2.08,-0.09,0.04,0.45,0.05,0.05,0.99,
2.081,-0.09,0.09,0.37,0.05,0.05,0.99,
2.083,-0.09,0.09,0.37,0.04,0.05,0.99,
2.085,-0.09,0.09,0.37,0.04,0.05,0.99,
2.086,-0.13,0.11,0.32,0.04,0.05,0.99,
2.088,-0.13,0.11,0.32,0.04,0.05,0.98,
2.095,-0.13,0.11,0.32,0.04,0.05,0.98,
2.095,-0.16,0.11,0.25,0.04,0.05,0.98,
2.096,-0.16,0.11,0.25,0.04,0.05,0.98,
2.096,-0.16,0.11,0.25,0.04,0.05,0.98,
2.096,-0.21,0.10,0.20,0.04,0.05,0.98,
2.097,-0.21,0.10,0.20,0.04,0.05,0.98,
2.1,-0.21,0.10,0.20,0.04,0.05,0.98,
2.101,-0.20,0.12,0.21,0.04,0.05,0.98,
2.102,-0.20,0.12,0.21,0.05,0.05,0.99,
2.11,-0.20,0.12,0.21,0.05,0.05,0.99,
2.11,-0.15,0.14,0.20,0.05,0.05,0.99,
2.11,-0.15,0.14,0.20,0.05,0.05,0.99,
2.11,-0.15,0.14,0.20,0.06,0.05,0.99,
2.111,-0.08,0.14,0.24,0.06,0.05,0.99,
2.112,-0.08,0.14,0.24,0.06,0.05,0.99,
2.115,-0.08,0.14,0.24,0.06,0.05,0.99,
2.115,-0.03,0.11,0.28,0.06,0.05,0.99,
2.117,-0.03,0.11,0.28,0.07,0.05,0.99,
2.119,-0.03,0.11,0.28,0.07,0.05,0.99,
2.12,0.03,0.11,0.30,0.07,0.05,0.99,
2.122,0.03,0.11,0.30,0.08,0.05,0.99,
2.125,0.03,0.11,0.30,0.08,0.05,0.99,
2.125,0.14,0.12,0.30,0.08,0.05,0.99,
2.127,0.14,0.12,0.30,0.09,0.05,0.99,
2.129,0.14,0.12,0.30,0.09,0.05,0.99,
2.13,0.24,0.12,0.29,0.09,0.05,0.99,
2.132,0.24,0.12,0.29,0.09,0.05,0.99,
2.134,0.24,0.12,0.29,0.09,0.04,0.98,
2.135,0.29,0.09,0.24,0.09,0.04,0.98,
2.136,0.29,0.09,0.24,0.09,0.04,0.98,
2.139,0.29,0.09,0.24,0.10,0.04,0.98,
2.14,0.31,0.06,0.20,0.10,0.04,0.98,
2.141,0.31,0.06,0.20,0.10,0.04,0.98,
2.144,0.31,0.06,0.20,0.10,0.04,0.98,
2.144,0.34,0.02,0.15,0.10,0.04,0.98,
2.146,0.34,0.02,0.15,0.10,0.04,0.97,
2.149,0.34,0.02,0.15,0.11,0.04,0.97,
2.149,0.39,0.03,0.12,0.11,0.04,0.97,
2.151,0.39,0.03,0.12,0.11,0.05,0.97,
2.154,0.39,0.03,0.12,0.10,0.05,0.97,
2.154,0.42,0.05,0.07,0.10,0.05,0.97,
2.156,0.42,0.05,0.07,0.10,0.05,0.97,
2.159,0.42,0.05,0.07,0.10,0.05,0.97,
2.159,0.40,0.07,0.03,0.10,0.05,0.97,
2.161,0.40,0.07,0.03,0.10,0.05,0.97,
2.164,0.40,0.07,0.03,0.10,0.05,0.97,
2.164,0.38,0.07,0.03,0.10,0.05,0.97,
2.166,0.38,0.07,0.03,0.09,0.05,0.97,
2.169,0.38,0.07,0.03,0.09,0.06,0.97,
2.169,0.33,0.10,0.03,0.09,0.06,0.97,
2.171,0.33,0.10,0.03,0.10,0.06,0.97,
2.175,0.33,0.10,0.03,0.10,0.06,0.97,
2.175,0.29,0.15,0.02,0.10,0.06,0.97,
2.176,0.29,0.15,0.02,0.10,0.07,0.97,
2.178,0.29,0.15,0.02,0.10,0.07,0.98,
2.179,0.32,0.21,0.05,0.10,0.07,0.98,
2.18,0.32,0.21,0.05,0.10,0.08,0.98,
2.183,0.32,0.21,0.05,0.10,0.08,0.99,
2.183,0.34,0.29,0.10,0.10,0.08,0.99,
2.186,0.34,0.29,0.10,0.10,0.08,0.99,
2.195,0.34,0.29,0.10,0.10,0.08,0.99,
2.196,0.38,0.37,0.18,0.10,0.08,0.99,
2.196,0.38,0.37,0.18,0.10,0.08,0.99,
2.196,0.38,0.37,0.18,0.10,0.08,1.00,
2.197,0.37,0.40,0.25,0.10,0.08,1.00,
2.197,0.37,0.40,0.25,0.10,0.08,1.00,
2.198,0.37,0.40,0.25,0.10,0.08,0.98,
2.199,0.35,0.39,0.30,0.10,0.08,0.98,
2.2,0.35,0.39,0.30,0.10,0.08,0.86,
2.203,0.35,0.39,0.30,0.10,0.08,0.75,
2.203,0.36,0.38,0.26,0.10,0.08,0.75,
2.208,0.36,0.38,0.26,0.11,0.10,0.77,
2.208,0.36,0.38,0.26,0.11,0.11,0.86,
2.209,0.35,0.38,-1.57,0.11,0.11,0.86,
2.21,0.35,0.38,-1.57,0.10,0.11,0.93,
2.213,0.35,0.38,-1.57,0.09,0.10,0.96,
2.213,0.49,0.65,-1.43,0.09,0.10,0.96,
2.215,0.49,0.65,-1.43,0.09,0.09,0.97,
2.217,0.49,0.65,-1.43,0.09,0.08,0.97,
2.218,0.37,0.62,-0.22,0.09,0.08,0.97,
2.22,0.37,0.62,-0.22,0.09,0.08,0.97,
2.223,0.37,0.62,-0.22,0.09,0.08,0.97,
2.223,0.27,0.45,0.03,0.09,0.08,0.97,
2.225,0.27,0.45,0.03,0.09,0.09,0.97,
2.228,0.27,0.45,0.03,0.09,0.09,0.97,
2.228,0.28,0.43,0.04,0.09,0.09,0.97,
2.23,0.28,0.43,0.04,0.08,0.09,0.97,
2.232,0.28,0.43,0.04,0.08,0.09,0.98,
2.232,0.29,0.48,0.04,0.08,0.09,0.98,
2.234,0.29,0.48,0.04,0.08,0.08,1.00,
2.237,0.29,0.48,0.04,0.08,0.08,1.01,
2.237,0.24,0.49,0.15,0.08,0.08,1.01,
2.24,0.24,0.49,0.15,0.07,0.08,1.02,
2.242,0.24,0.49,0.15,0.07,0.08,1.03,
2.242,0.21,0.45,0.36,0.07,0.08,1.03,
2.244,0.21,0.45,0.36,0.07,0.08,1.04,
2.247,0.21,0.45,0.36,0.06,0.08,1.05,
2.247,0.13,0.40,0.57,0.06,0.08,1.05,
2.249,0.13,0.40,0.57,0.06,0.08,1.06,
2.252,0.13,0.40,0.57,0.06,0.08,1.07,
2.252,0.05,0.38,0.76,0.06,0.08,1.07,
2.254,0.05,0.38,0.76,0.06,0.08,1.07,
2.257,0.05,0.38,0.76,0.06,0.08,1.07,
2.257,0.01,0.41,0.93,0.06,0.08,1.07,
2.259,0.01,0.41,0.93,0.05,0.08,1.07,
2.262,0.01,0.41,0.93,0.06,0.08,1.07,
2.262,-0.03,0.43,1.03,0.06,0.08,1.07,
2.264,-0.03,0.43,1.03,0.06,0.08,1.06,
2.266,-0.03,0.43,1.03,0.06,0.08,1.06,
2.267,-0.04,0.41,0.99,0.06,0.08,1.06,
2.269,-0.04,0.41,0.99,0.07,0.08,1.06,
2.272,-0.04,0.41,0.99,0.08,0.08,1.06,
2.272,0.03,0.40,0.91,0.08,0.08,1.06,
2.274,0.03,0.40,0.91,0.09,0.08,1.06,
2.276,0.03,0.40,0.91,0.09,0.08,1.05,
2.277,0.15,0.37,0.88,0.09,0.08,1.05,
2.278,0.15,0.37,0.88,0.10,0.07,1.05,
2.281,0.15,0.37,0.88,0.11,0.07,1.05,
2.281,0.28,0.34,0.83,0.11,0.07,1.05,
2.283,0.28,0.34,0.83,0.11,0.06,1.04,
2.286,0.28,0.34,0.83,0.12,0.06,1.03,
2.286,0.44,0.26,0.77,0.12,0.06,1.03,
2.289,0.44,0.26,0.77,0.12,0.06,1.03,
