
time,ax,ay,az,gFx,gFy,gFz,
0.002,0.19,-0.06,0.10,-0.09,0.15,0.97,
0.003,0.19,-0.06,0.10,-0.09,0.15,0.97,
0.003,0.08,-0.03,0.05,-0.09,0.15,0.97,
0.003,0.08,-0.03,0.05,-0.10,0.16,0.97,
0.005,0.08,-0.03,0.05,-0.10,0.16,0.97,
0.005,0.01,0.03,0.04,-0.10,0.16,0.97,
0.007,0.01,0.03,0.04,-0.10,0.16,0.97,
0.009,0.01,0.03,0.04,-0.10,0.16,0.97,
0.01,-0.04,0.06,0.04,-0.10,0.16,0.97,
0.013,-0.04,0.06,0.04,-0.10,0.16,0.97,
0.015,-0.04,0.06,0.04,-0.10,0.16,0.97,
0.015,-0.05,0.09,0.03,-0.10,0.16,0.97,
0.017,-0.05,0.09,0.03,-0.10,0.16,0.97,
0.019,-0.05,0.09,0.03,-0.10,0.16,0.97,
0.02,-0.09,0.12,0.03,-0.10,0.16,0.97,
0.022,-0.09,0.12,0.03,-0.10,0.16,0.97,
0.024,-0.09,0.12,0.03,-0.10,0.16,0.97,
0.024,-0.11,0.11,0.04,-0.10,0.16,0.97,
0.027,-0.11,0.11,0.04,-0.10,0.16,0.97,
0.03,-0.11,0.11,0.04,-0.10,0.16,0.97,
0.03,-0.09,0.10,0.04,-0.10,0.16,0.97,
0.032,-0.09,0.10,0.04,-0.10,0.17,0.97,
0.034,-0.09,0.10,0.04,-0.10,0.16,0.97,
0.034,-0.08,0.11,0.03,-0.10,0.16,0.97,
0.036,-0.08,0.11,0.03,-0.10,0.16,0.97,
0.039,-0.08,0.11,0.03,-0.10,0.16,0.97,
0.039,-0.06,0.13,0.02,-0.10,0.16,0.97,
0.041,-0.06,0.13,0.02,-0.10,0.16,0.97,
0.044,-0.06,0.13,0.02,-0.10,0.16,0.96,
0.044,-0.07,0.12,0.01,-0.10,0.16,0.96,
0.046,-0.07,0.12,0.01,-0.09,0.16,0.96,
0.049,-0.07,0.12,0.01,-0.09,0.17,0.96,
0.049,-0.06,0.11,-0.03,-0.09,0.17,0.96,
0.051,-0.06,0.11,-0.03,-0.09,0.17,0.96,
0.054,-0.06,0.11,-0.03,-0.09,0.17,0.96,
0.054,-0.04,0.13,-0.06,-0.09,0.17,0.96,
0.056,-0.04,0.13,-0.06,-0.09,0.17,0.96,
0.059,-0.04,0.13,-0.06,-0.09,0.17,0.96,
0.059,-0.03,0.17,-0.06,-0.09,0.17,0.96,
0.061,-0.03,0.17,-0.06,-0.09,0.17,0.96,
0.064,-0.03,0.17,-0.06,-0.09,0.17,0.96,
0.064,-0.01,0.18,-0.08,-0.09,0.17,0.96,
0.066,-0.01,0.18,-0.08,-0.09,0.17,0.96,
0.068,-0.01,0.18,-0.08,-0.08,0.17,0.96,
0.069,0.01,0.17,-0.09,-0.08,0.17,0.96,
0.071,0.01,0.17,-0.09,-0.08,0.16,0.96,
0.073,0.01,0.17,-0.09,-0.08,0.16,0.96,
0.074,0.03,0.16,-0.07,-0.08,0.16,0.96,
0.076,0.03,0.16,-0.07,-0.08,0.16,0.96,
0.079,0.03,0.16,-0.07,-0.09,0.16,0.97,
0.08,0.04,0.12,-0.05,-0.09,0.16,0.97,
0.081,0.04,0.12,-0.05,-0.08,0.16,0.97,
0.083,0.04,0.12,-0.05,-0.08,0.16,0.97,
0.084,0.04,0.08,-0.01,-0.08,0.16,0.97,
0.085,0.04,0.08,-0.01,-0.08,0.15,0.97,
0.088,0.04,0.08,-0.01,-0.09,0.15,0.97,
0.088,0.06,0.07,0.03,-0.09,0.15,0.97,
0.09,0.06,0.07,0.03,-0.09,0.15,0.97,
0.093,0.06,0.07,0.03,-0.09,0.15,0.97,
0.093,0.04,0.01,0.04,-0.09,0.15,0.97,
0.103,0.04,0.01,0.04,-0.09,0.15,0.98,
0.103,0.04,0.01,0.04,-0.09,0.15,0.98,
0.103,0.01,-0.00,0.06,-0.09,0.15,0.98,
0.103,0.01,-0.00,0.06,-0.09,0.15,0.98,
0.104,0.01,-0.00,0.06,-0.09,0.15,0.98,
0.104,0.02,-0.03,0.09,-0.09,0.15,0.98,
0.105,0.02,-0.03,0.09,-0.09,0.15,0.98,
0.108,0.02,-0.03,0.09,-0.09,0.15,0.98,
0.108,0.02,-0.03,0.10,-0.09,0.15,0.98,
0.11,0.02,-0.03,0.10,-0.09,0.15,0.98,
0.112,0.02,-0.03,0.10,-0.09,0.15,0.98,
0.113,0.02,-0.03,0.12,-0.09,0.15,0.98,
0.115,0.02,-0.03,0.12,-0.10,0.15,0.98,
0.118,0.02,-0.03,0.12,-0.10,0.15,0.98,
0.118,-0.03,-0.01,0.12,-0.10,0.15,0.98,
0.12,-0.03,-0.01,0.12,-0.10,0.15,0.98,
0.122,-0.03,-0.01,0.12,-0.10,0.15,0.98,
0.123,-0.08,-0.01,0.12,-0.10,0.15,0.98,
0.125,-0.08,-0.01,0.12,-0.10,0.15,0.98,
0.127,-0.08,-0.01,0.12,-0.11,0.15,0.98,
0.127,-0.12,-0.02,0.10,-0.11,0.15,0.98,
0.13,-0.12,-0.02,0.10,-0.11,0.15,0.98,
0.132,-0.12,-0.02,0.10,-0.11,0.15,0.98,
0.132,-0.15,-0.02,0.09,-0.11,0.15,0.98,
0.135,-0.15,-0.02,0.09,-0.10,0.15,0.98,
0.137,-0.15,-0.02,0.09,-0.10,0.15,0.97,
0.137,-0.16,-0.01,0.08,-0.10,0.15,0.97,
0.139,-0.16,-0.01,0.08,-0.10,0.15,0.97,
0.142,-0.16,-0.01,0.08,-0.10,0.15,0.97,
0.142,-0.12,-0.01,0.08,-0.10,0.15,0.97,
0.144,-0.12,-0.01,0.08,-0.10,0.15,0.97,
0.147,-0.12,-0.01,0.08,-0.10,0.15,0.97,
0.147,-0.10,-0.02,0.05,-0.10,0.15,0.97,
0.149,-0.10,-0.02,0.05,-0.10,0.15,0.97,
0.152,-0.10,-0.02,0.05,-0.10,0.15,0.97,
0.152,-0.09,-0.03,0.07,-0.10,0.15,0.97,
0.154,-0.09,-0.03,0.07,-0.10,0.14,0.97,
0.157,-0.09,-0.03,0.07,-0.10,0.14,0.97,
0.157,-0.09,-0.06,0.05,-0.10,0.14,0.97,
0.159,-0.09,-0.06,0.05,-0.10,0.14,0.97,
0.162,-0.09,-0.06,0.05,-0.10,0.14,0.98,
0.162,-0.09,-0.11,0.06,-0.10,0.14,0.98,
0.164,-0.09,-0.11,0.06,-0.10,0.13,0.97,
0.166,-0.09,-0.11,0.06,-0.10,0.13,0.97,
0.167,-0.10,-0.14,0.07,-0.10,0.13,0.97,
0.169,-0.10,-0.14,0.07,-0.09,0.13,0.97,
0.171,-0.10,-0.14,0.07,-0.09,0.13,0.97,
0.171,-0.09,-0.18,0.06,-0.09,0.13,0.97,
0.173,-0.09,-0.18,0.06,-0.09,0.13,0.97,
0.176,-0.09,-0.18,0.06,-0.09,0.13,0.97,
0.176,-0.06,-0.19,0.03,-0.09,0.13,0.97,
0.179,-0.06,-0.19,0.03,-0.08,0.13,0.96,
0.182,-0.06,-0.19,0.03,-0.08,0.13,0.96,
0.182,-0.02,-0.22,-0.02,-0.08,0.13,0.96,
0.183,-0.02,-0.22,-0.02,-0.08,0.13,0.96,
0.186,0.04,-0.24,-0.08,-0.08,0.13,0.96,
0.186,0.04,-0.24,-0.08,-0.07,0.13,0.95,
0.188,0.04,-0.24,-0.08,-0.07,0.12,0.95,
0.191,0.04,-0.24,-0.08,-0.07,0.12,0.95,
0.191,0.08,-0.25,-0.13,-0.07,0.12,0.95,
0.193,0.08,-0.25,-0.13,-0.07,0.12,0.95,
0.202,0.08,-0.25,-0.13,-0.06,0.12,0.94,
0.202,0.11,-0.27,-0.19,-0.06,0.12,0.94,
0.202,0.11,-0.27,-0.19,-0.06,0.12,0.95,
0.203,0.11,-0.27,-0.19,-0.06,0.12,0.94,
0.203,0.17,-0.30,-0.23,-0.06,0.12,0.94,
0.203,0.17,-0.30,-0.23,-0.06,0.13,0.94,
0.205,0.17,-0.30,-0.23,-0.06,0.13,0.95,
0.206,0.20,-0.27,-0.23,-0.06,0.13,0.95,
0.208,0.20,-0.27,-0.23,-0.06,0.13,0.95,
0.21,0.20,-0.27,-0.23,-0.07,0.13,0.95,
0.211,0.19,-0.24,-0.22,-0.07,0.13,0.95,
0.213,0.19,-0.24,-0.22,-0.07,0.13,0.95,
0.215,0.19,-0.24,-0.22,-0.07,0.13,0.95,
0.215,0.19,-0.24,-0.22,-0.07,0.13,0.95,
0.218,0.19,-0.24,-0.22,-0.07,0.13,0.95,
0.22,0.19,-0.24,-0.22,-0.08,0.13,0.95,
0.221,0.16,-0.20,-0.21,-0.08,0.13,0.95,
0.222,0.16,-0.20,-0.21,-0.08,0.13,0.95,
0.225,0.16,-0.20,-0.21,-0.08,0.13,0.95,
0.227,0.09,-0.19,-0.19,-0.08,0.13,0.95,
0.227,0.09,-0.19,-0.19,-0.08,0.14,0.95,
0.23,0.06,-0.18,-0.18,-0.08,0.14,0.95,
0.231,0.06,-0.18,-0.18,-0.09,0.14,0.95,
0.232,0.06,-0.18,-0.18,-0.09,0.14,0.95,
0.235,0.06,-0.18,-0.18,-0.09,0.14,0.95,
0.235,0.02,-0.15,-0.18,-0.09,0.14,0.95,
0.238,0.02,-0.15,-0.18,-0.10,0.14,0.95,
0.24,0.02,-0.15,-0.18,-0.10,0.14,0.95,
0.24,-0.05,-0.16,-0.18,-0.10,0.14,0.95,
0.242,-0.05,-0.16,-0.18,-0.10,0.14,0.94,
0.245,-0.05,-0.16,-0.18,-0.10,0.14,0.94,
0.245,-0.11,-0.15,-0.18,-0.10,0.14,0.94,
0.247,-0.11,-0.15,-0.18,-0.10,0.14,0.94,
0.25,-0.11,-0.15,-0.18,-0.11,0.14,0.94,
0.25,-0.15,-0.14,-0.22,-0.11,0.14,0.94,
0.252,-0.15,-0.14,-0.22,-0.11,0.14,0.94,
0.255,-0.15,-0.14,-0.22,-0.11,0.14,0.94,
0.255,-0.18,-0.14,-0.25,-0.11,0.14,0.94,
0.257,-0.18,-0.14,-0.25,-0.11,0.14,0.93,
0.259,-0.18,-0.14,-0.25,-0.11,0.14,0.93,
0.26,-0.21,-0.12,-0.27,-0.11,0.14,0.93,
0.262,-0.21,-0.12,-0.27,-0.11,0.14,0.93,
0.264,-0.21,-0.12,-0.27,-0.11,0.14,0.93,
0.265,-0.19,-0.10,-0.31,-0.11,0.14,0.93,
0.267,-0.19,-0.10,-0.31,-0.11,0.14,0.93,
0.269,-0.19,-0.10,-0.31,-0.10,0.15,0.93,
0.27,-0.19,-0.09,-0.32,-0.10,0.15,0.93,
0.272,-0.19,-0.09,-0.32,-0.10,0.15,0.93,
0.274,-0.19,-0.09,-0.32,-0.10,0.15,0.93,
0.274,-0.18,-0.07,-0.34,-0.10,0.15,0.93,
0.276,-0.18,-0.07,-0.34,-0.10,0.15,0.93,
0.282,-0.18,-0.07,-0.34,-0.09,0.15,0.93,
0.282,-0.14,-0.04,-0.32,-0.09,0.15,0.93,
0.282,-0.14,-0.04,-0.32,-0.09,0.15,0.94,
0.284,-0.14,-0.04,-0.32,-0.08,0.15,0.94,
0.284,-0.08,-0.00,-0.31,-0.08,0.15,0.94,
0.286,-0.08,-0.00,-0.31,-0.08,0.15,0.94,
0.289,-0.08,-0.00,-0.31,-0.08,0.15,0.95,
0.289,0.02,-0.01,-0.26,-0.08,0.15,0.95,
0.291,0.02,-0.01,-0.26,-0.08,0.14,0.95,
0.294,0.02,-0.01,-0.26,-0.07,0.14,0.96,
0.294,0.08,-0.03,-0.20,-0.07,0.14,0.96,
0.296,0.08,-0.03,-0.20,-0.07,0.14,0.96,
0.299,0.08,-0.03,-0.20,-0.06,0.14,0.97,
0.299,0.14,-0.07,-0.09,-0.06,0.14,0.97,
0.301,0.14,-0.07,-0.09,-0.06,0.14,0.98,
0.303,0.14,-0.07,-0.09,-0.06,0.14,0.98,
0.304,0.20,-0.11,0.02,-0.06,0.14,0.98,
0.306,0.20,-0.11,0.02,-0.05,0.13,0.99,
0.308,0.20,-0.11,0.02,-0.05,0.13,1.00,
0.308,0.30,-0.13,0.16,-0.05,0.13,1.00,
0.312,0.30,-0.13,0.16,-0.05,0.13,1.01,
0.314,0.30,-0.13,0.16,-0.04,0.13,1.02,
0.314,0.37,-0.18,0.32,-0.04,0.13,1.02,
0.316,0.37,-0.18,0.32,-0.05,0.12,1.02,
0.318,0.37,-0.18,0.32,-0.05,0.12,1.03,
0.318,0.43,-0.22,0.47,-0.05,0.12,1.03,
0.32,0.43,-0.22,0.47,-0.05,0.11,1.03,
0.323,0.43,-0.22,0.47,-0.05,0.11,1.03,
0.323,0.44,-0.30,0.59,-0.05,0.11,1.03,
0.325,0.44,-0.30,0.59,-0.04,0.11,1.03,
0.328,0.44,-0.30,0.59,-0.04,0.11,1.03,
0.329,0.43,-0.37,0.65,-0.04,0.11,1.03,
0.33,0.43,-0.37,0.65,-0.04,0.11,1.03,
0.333,0.43,-0.37,0.65,-0.04,0.11,1.03,
0.333,0.44,-0.42,0.66,-0.04,0.11,1.03,
0.335,0.44,-0.42,0.66,-0.04,0.11,1.02,
0.338,0.44,-0.42,0.66,-0.04,0.11,1.02,
0.338,0.46,-0.42,0.61,-0.04,0.11,1.02,
0.34,0.46,-0.42,0.61,-0.04,0.11,1.01,
0.343,0.46,-0.42,0.61,-0.04,0.12,1.00,
0.343,0.46,-0.41,0.53,-0.04,0.12,1.00,
0.345,0.46,-0.41,0.53,-0.05,0.12,0.99,
0.348,0.46,-0.41,0.53,-0.05,0.12,0.99,
0.349,0.47,-0.35,0.37,-0.05,0.12,0.99,
0.35,0.47,-0.35,0.37,-0.05,0.12,0.98,
0.352,0.47,-0.35,0.37,-0.05,0.12,0.97,
0.353,0.41,-0.32,0.22,-0.05,0.12,0.97,
0.355,0.41,-0.32,0.22,-0.06,0.12,0.96,
0.357,0.41,-0.32,0.22,-0.06,0.13,0.96,
0.358,0.36,-0.30,0.08,-0.06,0.13,0.96,
0.36,0.36,-0.30,0.08,-0.06,0.13,0.95,
0.362,0.36,-0.30,0.08,-0.06,0.13,0.95,
0.363,0.30,-0.27,-0.05,-0.06,0.13,0.95,
0.365,0.30,-0.27,-0.05,-0.06,0.13,0.94,
0.367,0.30,-0.27,-0.05,-0.06,0.14,0.94,
0.368,0.25,-0.22,-0.16,-0.06,0.14,0.94,
0.369,0.25,-0.22,-0.16,-0.06,0.14,0.94,
0.372,0.25,-0.22,-0.16,-0.07,0.15,0.93,
0.372,0.23,-0.16,-0.26,-0.07,0.15,0.93,
0.375,0.23,-0.16,-0.26,-0.06,0.15,0.93,
0.377,0.23,-0.16,-0.26,-0.06,0.15,0.93,
0.377,0.22,-0.09,-0.31,-0.06,0.15,0.93,
0.385,0.22,-0.09,-0.31,-0.06,0.15,0.93,
0.386,0.22,-0.09,-0.31,-0.06,0.15,0.93,
0.386,0.22,-0.03,-0.34,-0.06,0.15,0.93,
0.386,0.22,-0.03,-0.34,-0.06,0.15,0.94,
0.387,0.22,-0.03,-0.34,-0.06,0.15,0.94,
0.387,0.22,0.00,-0.32,-0.06,0.15,0.94,
0.389,0.22,0.00,-0.32,-0.06,0.15,0.94,
0.392,0.22,0.00,-0.32,-0.05,0.15,0.95,
0.392,0.22,-0.01,-0.26,-0.05,0.15,0.95,
0.395,0.22,-0.01,-0.26,-0.05,0.15,0.95,
0.397,0.22,-0.01,-0.26,-0.05,0.15,0.95,
0.397,0.30,-0.02,-0.20,-0.05,0.15,0.95,
0.399,0.30,-0.02,-0.20,-0.04,0.14,0.96,
0.401,0.30,-0.02,-0.20,-0.04,0.14,0.96,
0.402,0.36,-0.05,-0.13,-0.04,0.14,0.96,
0.404,0.36,-0.05,-0.13,-0.04,0.14,0.97,
0.406,0.36,-0.05,-0.13,-0.04,0.13,0.97,
0.406,0.41,-0.09,-0.05,-0.04,0.13,0.97,
0.409,0.41,-0.09,-0.05,-0.03,0.13,0.98,
0.411,0.41,-0.09,-0.05,-0.03,0.12,0.98,
0.411,0.47,-0.16,0.03,-0.03,0.12,0.98,
0.414,0.47,-0.16,0.03,-0.03,0.12,0.98,
0.416,0.47,-0.16,0.03,-0.03,0.12,0.99,
0.416,0.51,-0.23,0.13,-0.03,0.12,0.99,
0.418,0.51,-0.23,0.13,-0.03,0.12,0.99,
0.421,0.51,-0.23,0.13,-0.03,0.12,0.99,
0.421,0.52,-0.28,0.21,-0.03,0.12,0.99,
0.423,0.52,-0.28,0.21,-0.03,0.12,0.99,
0.426,0.52,-0.28,0.21,-0.03,0.12,1.00,
0.426,0.53,-0.30,0.25,-0.03,0.12,1.00,
0.428,0.53,-0.30,0.25,-0.04,0.12,1.00,
0.431,0.53,-0.30,0.25,-0.04,0.12,1.00,
0.431,0.52,-0.30,0.29,-0.04,0.12,1.00,
0.433,0.52,-0.30,0.29,-0.04,0.12,1.00,
0.436,0.52,-0.30,0.29,-0.04,0.12,1.01,
0.436,0.47,-0.28,0.33,-0.04,0.12,1.01,
0.438,0.47,-0.28,0.33,-0.04,0.12,1.01,
0.44,0.47,-0.28,0.33,-0.04,0.13,1.01,
0.441,0.45,-0.26,0.37,-0.04,0.13,1.01,
0.443,0.45,-0.26,0.37,-0.04,0.13,1.01,
0.446,0.45,-0.26,0.37,-0.03,0.13,1.02,
0.446,0.45,-0.22,0.42,-0.03,0.13,1.02,
0.448,0.45,-0.22,0.42,-0.03,0.13,1.02,
0.45,0.45,-0.22,0.42,-0.03,0.13,1.02,
0.451,0.46,-0.20,0.48,-0.03,0.13,1.02,
0.453,0.46,-0.20,0.48,-0.03,0.13,1.03,
0.455,0.46,-0.20,0.48,-0.03,0.12,1.03,
0.455,0.48,-0.19,0.54,-0.03,0.12,1.03,
0.458,0.48,-0.19,0.54,-0.03,0.12,1.03,
0.461,0.48,-0.19,0.54,-0.03,0.12,1.03,
0.461,0.46,-0.21,0.59,-0.03,0.12,1.03,
0.463,0.46,-0.21,0.59,-0.03,0.12,1.03,
0.465,0.46,-0.21,0.59,-0.03,0.11,1.03,
0.465,0.46,-0.26,0.61,-0.03,0.11,1.03,
0.467,0.46,-0.26,0.61,-0.03,0.11,1.03,
0.47,0.46,-0.26,0.61,-0.02,0.11,1.03,
0.47,0.49,-0.31,0.63,-0.02,0.11,1.03,
0.472,0.49,-0.31,0.63,-0.02,0.10,1.03,
0.475,0.49,-0.31,0.63,-0.02,0.10,1.02,
0.475,0.52,-0.39,0.59,-0.02,0.10,1.02,
0.478,0.52,-0.39,0.59,-0.02,0.10,1.02,
0.48,0.52,-0.39,0.59,-0.02,0.10,1.02,
0.48,0.55,-0.42,0.54,-0.02,0.10,1.02,
0.482,0.55,-0.42,0.54,-0.02,0.10,1.01,
0.485,0.55,-0.42,0.54,-0.02,0.10,1.01,
0.485,0.56,-0.48,0.46,-0.02,0.10,1.01,
0.487,0.56,-0.48,0.46,-0.02,0.10,1.00,
0.49,0.56,-0.48,0.46,-0.01,0.10,1.00,
0.49,0.56,-0.48,0.38,-0.01,0.10,1.00,
0.492,0.56,-0.48,0.38,-0.01,0.10,1.00,
0.498,0.56,-0.48,0.38,-0.01,0.10,1.00,
0.498,0.59,-0.47,0.31,-0.01,0.10,1.00,
0.498,0.59,-0.47,0.31,-0.01,0.11,0.99,
0.499,0.59,-0.47,0.31,-0.01,0.11,0.99,
0.5,0.64,-0.42,0.24,-0.01,0.11,0.99,
0.502,0.64,-0.42,0.24,-0.01,0.11,0.99,
0.504,0.64,-0.42,0.24,-0.01,0.11,0.99,
0.504,0.62,-0.37,0.21,-0.01,0.11,0.99,
0.506,0.62,-0.37,0.21,-0.01,0.11,0.99,
0.509,0.62,-0.37,0.21,-0.02,0.11,0.99,
0.509,0.58,-0.35,0.18,-0.02,0.11,0.99,
0.512,0.58,-0.35,0.18,-0.02,0.11,0.98,
0.514,0.58,-0.35,0.18,-0.02,0.11,0.98,
0.514,0.52,-0.34,0.15,-0.02,0.11,0.98,
0.516,0.52,-0.34,0.15,-0.02,0.11,0.98,
0.519,0.52,-0.34,0.15,-0.02,0.11,0.98,
0.519,0.46,-0.33,0.09,-0.02,0.11,0.98,
0.521,0.46,-0.33,0.09,-0.02,0.12,0.97,
0.524,0.46,-0.33,0.09,-0.02,0.12,0.97,
0.524,0.45,-0.30,0.05,-0.02,0.12,0.97,
0.526,0.45,-0.30,0.05,-0.02,0.12,0.97,
0.529,0.45,-0.30,0.05,-0.02,0.12,0.97,
0.53,0.44,-0.28,0.01,-0.02,0.12,0.97,
0.532,0.44,-0.28,0.01,-0.02,0.11,0.97,
0.534,0.44,-0.28,0.01,-0.02,0.12,0.96,
0.534,0.41,-0.28,-0.02,-0.02,0.12,0.96,
0.536,0.41,-0.28,-0.02,-0.03,0.12,0.96,
0.538,0.41,-0.28,-0.02,-0.03,0.12,0.96,
0.539,0.38,-0.30,-0.08,-0.03,0.12,0.96,
0.541,0.38,-0.30,-0.08,-0.03,0.12,0.96,
0.544,0.38,-0.30,-0.08,-0.03,0.12,0.96,
0.544,0.32,-0.27,-0.10,-0.03,0.12,0.96,
0.546,0.32,-0.27,-0.10,-0.03,0.12,0.96,
0.548,0.32,-0.27,-0.10,-0.03,0.12,0.96,
0.549,0.30,-0.25,-0.11,-0.03,0.12,0.96,
0.551,0.30,-0.25,-0.11,-0.03,0.11,0.96,
0.553,0.30,-0.25,-0.11,-0.04,0.11,0.95,
0.554,0.26,-0.27,-0.14,-0.04,0.11,0.95,
0.556,0.26,-0.27,-0.14,-0.04,0.11,0.95,
0.558,0.26,-0.27,-0.14,-0.04,0.11,0.95,
0.558,0.22,-0.30,-0.17,-0.04,0.11,0.95,
0.561,0.22,-0.30,-0.17,-0.04,0.11,0.95,
0.564,0.22,-0.30,-0.17,-0.04,0.11,0.94,
0.564,0.19,-0.31,-0.20,-0.04,0.11,0.94,
0.566,0.19,-0.31,-0.20,-0.04,0.11,0.94,
0.568,0.19,-0.31,-0.20,-0.03,0.11,0.94,
0.568,0.17,-0.33,-0.26,-0.03,0.11,0.94,
0.57,0.17,-0.33,-0.26,-0.03,0.11,0.94,
0.573,0.17,-0.33,-0.26,-0.03,0.11,0.94,
0.573,0.20,-0.34,-0.30,-0.03,0.11,0.94,
0.575,0.20,-0.34,-0.30,-0.02,0.11,0.94,
0.578,0.20,-0.34,-0.30,-0.02,0.11,0.94,
0.579,0.23,-0.35,-0.35,-0.02,0.11,0.94,
0.58,0.23,-0.35,-0.35,-0.02,0.11,0.94,
0.583,0.23,-0.35,-0.35,-0.01,0.11,0.94,
0.583,0.29,-0.34,-0.34,-0.01,0.11,0.94,
0.585,0.29,-0.34,-0.34,-0.01,0.11,0.94,
0.587,0.29,-0.34,-0.34,-0.01,0.11,0.94,
0.588,0.35,-0.34,-0.33,-0.01,0.11,0.94,
0.59,0.35,-0.34,-0.33,-0.01,0.10,0.94,
0.593,0.35,-0.34,-0.33,-0.01,0.10,0.95,
0.593,0.37,-0.35,-0.28,-0.01,0.10,0.95,
0.6,0.37,-0.35,-0.28,-0.02,0.10,0.95,
0.6,0.37,-0.35,-0.28,-0.02,0.10,0.96,
0.601,0.35,-0.39,-0.24,-0.02,0.10,0.96,
0.601,0.35,-0.39,-0.24,-0.02,0.09,0.96,
0.602,0.35,-0.39,-0.24,-0.02,0.09,0.96,
0.603,0.30,-0.42,-0.16,-0.02,0.09,0.96,
0.605,0.30,-0.42,-0.16,-0.02,0.09,0.96,
0.607,0.30,-0.42,-0.16,-0.02,0.09,0.97,
0.607,0.29,-0.47,-0.10,-0.02,0.09,0.97,
0.609,0.29,-0.47,-0.10,-0.02,0.09,0.97,
0.614,0.29,-0.47,-0.10,-0.02,0.08,0.97,
0.614,0.30,-0.50,-0.05,-0.02,0.08,0.97,
0.615,0.30,-0.50,-0.05,-0.02,0.08,0.98,
0.617,0.30,-0.50,-0.05,-0.02,0.08,0.98,
0.617,0.30,-0.52,0.00,-0.02,0.08,0.98,
0.619,0.30,-0.52,0.00,-0.02,0.08,0.98,
0.622,0.30,-0.52,0.00,-0.02,0.07,0.98,
0.622,0.29,-0.58,0.07,-0.02,0.07,0.98,
0.624,0.29,-0.58,0.07,-0.02,0.07,0.99,
0.628,0.29,-0.58,0.07,-0.03,0.08,0.99,
0.628,0.26,-0.61,0.13,-0.03,0.08,0.99,
0.629,0.26,-0.61,0.13,-0.03,0.07,0.99,
0.632,0.26,-0.61,0.13,-0.03,0.07,0.99,
0.632,0.20,-0.61,0.15,-0.03,0.07,0.99,
0.634,0.20,-0.61,0.15,-0.04,0.07,0.99,
0.636,0.20,-0.61,0.15,-0.05,0.07,0.99,
0.637,0.11,-0.61,0.18,-0.05,0.07,0.99,
0.639,0.11,-0.61,0.18,-0.05,0.08,0.99,
0.641,0.11,-0.61,0.18,-0.06,0.08,0.99,
0.641,0.00,-0.60,0.21,-0.06,0.08,0.99,
0.644,0.00,-0.60,0.21,-0.06,0.08,1.00,
0.647,0.00,-0.60,0.21,-0.07,0.08,1.00,
0.647,-0.09,-0.58,0.22,-0.07,0.08,1.00,
0.649,-0.09,-0.58,0.22,-0.07,0.08,1.00,
0.651,-0.09,-0.58,0.22,-0.08,0.08,1.00,
0.652,-0.20,-0.54,0.25,-0.08,0.08,1.00,
0.654,-0.20,-0.54,0.25,-0.09,0.09,1.00,
0.656,-0.20,-0.54,0.25,-0.09,0.09,0.99,
0.656,-0.34,-0.51,0.24,-0.09,0.09,0.99,
0.659,-0.34,-0.51,0.24,-0.10,0.09,1.00,
0.661,-0.34,-0.51,0.24,-0.10,0.09,0.99,
0.662,-0.46,-0.46,0.22,-0.10,0.09,0.99,
0.663,-0.46,-0.46,0.22,-0.10,0.09,0.99,
0.666,-0.46,-0.46,0.22,-0.10,0.09,0.99,
0.667,-0.54,-0.41,0.22,-0.10,0.09,0.99,
0.668,-0.54,-0.41,0.22,-0.10,0.09,0.98,
0.671,-0.54,-0.41,0.22,-0.10,0.09,0.98,
0.671,-0.55,-0.40,0.16,-0.10,0.09,0.98,
0.673,-0.55,-0.40,0.16,-0.10,0.09,0.97,
0.676,-0.57,-0.41,0.06,-0.10,0.09,0.97,
0.676,-0.57,-0.41,0.06,-0.10,0.09,0.96,
0.682,-0.57,-0.41,0.06,-0.10,0.09,0.95,
0.683,-0.57,-0.41,0.06,-0.09,0.09,0.94,
0.683,-0.58,-0.44,-0.09,-0.09,0.09,0.94,
0.684,-0.58,-0.44,-0.09,-0.09,0.08,0.93,
0.685,-0.58,-0.44,-0.09,-0.09,0.08,0.93,
0.686,-0.54,-0.45,-0.26,-0.09,0.08,0.93,
0.688,-0.54,-0.45,-0.26,-0.09,0.08,0.92,
0.69,-0.54,-0.45,-0.26,-0.08,0.08,0.92,
0.691,-0.50,-0.49,-0.41,-0.08,0.08,0.92,
0.693,-0.50,-0.49,-0.41,-0.08,0.08,0.91,
0.696,-0.50,-0.49,-0.41,-0.08,0.09,0.91,
0.697,-0.47,-0.49,-0.52,-0.08,0.09,0.91,
0.698,-0.47,-0.49,-0.52,-0.08,0.09,0.91,
0.701,-0.47,-0.49,-0.52,-0.08,0.09,0.90,
0.701,-0.43,-0.47,-0.60,-0.08,0.09,0.90,
0.703,-0.43,-0.47,-0.60,-0.08,0.09,0.91,
0.705,-0.43,-0.47,-0.60,-0.08,0.09,0.91,
0.705,-0.42,-0.44,-0.64,-0.08,0.09,0.91,
0.707,-0.42,-0.44,-0.64,-0.08,0.09,0.91,
0.711,-0.42,-0.44,-0.64,-0.08,0.09,0.92,
0.711,-0.43,-0.44,-0.63,-0.08,0.09,0.92,
0.712,-0.43,-0.44,-0.63,-0.09,0.09,0.92,
0.715,-0.43,-0.44,-0.63,-0.09,0.09,0.93,
0.717,-0.47,-0.42,-0.55,-0.09,0.09,0.93,
0.717,-0.47,-0.42,-0.55,-0.09,0.09,0.93,
0.719,-0.47,-0.42,-0.55,-0.10,0.09,0.94,
0.72,-0.53,-0.41,-0.46,-0.10,0.09,0.94,
0.722,-0.53,-0.41,-0.46,-0.10,0.09,0.94,
0.724,-0.53,-0.41,-0.46,-0.10,0.09,0.95,
0.724,-0.59,-0.41,-0.35,-0.10,0.09,0.95,
0.727,-0.59,-0.41,-0.35,-0.10,0.09,0.95,
0.73,-0.59,-0.41,-0.35,-0.10,0.09,0.96,
0.73,-0.66,-0.41,-0.22,-0.10,0.09,0.96,
0.732,-0.66,-0.41,-0.22,-0.10,0.09,0.96,
0.735,-0.66,-0.41,-0.22,-0.10,0.09,0.96,
0.735,-0.67,-0.39,-0.13,-0.10,0.09,0.96,
0.737,-0.67,-0.39,-0.13,-0.11,0.09,0.96,
0.739,-0.67,-0.39,-0.13,-0.11,0.09,0.97,
0.739,-0.69,-0.38,-0.07,-0.11,0.09,0.97,
0.742,-0.69,-0.38,-0.07,-0.11,0.09,0.96,
0.744,-0.69,-0.38,-0.07,-0.11,0.09,0.96,
0.744,-0.73,-0.38,-0.04,-0.11,0.09,0.96,
0.747,-0.73,-0.38,-0.04,-0.10,0.08,0.96,
0.749,-0.73,-0.38,-0.04,-0.10,0.08,0.96,
0.749,-0.73,-0.39,-0.05,-0.10,0.08,0.96,
0.752,-0.73,-0.39,-0.05,-0.10,0.08,0.96,
0.754,-0.73,-0.39,-0.05,-0.09,0.08,0.95,
0.754,-0.68,-0.42,-0.07,-0.09,0.08,0.95,
0.756,-0.68,-0.42,-0.07,-0.08,0.08,0.94,
0.759,-0.68,-0.42,-0.07,-0.08,0.08,0.94,
0.759,-0.62,-0.42,-0.16,-0.08,0.08,0.94,
0.761,-0.62,-0.42,-0.16,-0.07,0.09,0.93,
0.764,-0.62,-0.42,-0.16,-0.07,0.09,0.93,
0.764,-0.51,-0.41,-0.29,-0.07,0.09,0.93,
0.766,-0.51,-0.41,-0.29,-0.06,0.09,0.92,
0.769,-0.51,-0.41,-0.29,-0.06,0.09,0.92,
0.769,-0.41,-0.38,-0.39,-0.06,0.09,0.92,
0.771,-0.41,-0.38,-0.39,-0.05,0.09,0.91,
0.774,-0.41,-0.38,-0.39,-0.05,0.09,0.91,
0.774,-0.33,-0.36,-0.47,-0.05,0.09,0.91,
0.776,-0.33,-0.36,-0.47,-0.05,0.09,0.91,
0.783,-0.33,-0.36,-0.47,-0.05,0.09,0.91,
0.783,-0.25,-0.32,-0.55,-0.05,0.09,0.91,
0.784,-0.25,-0.32,-0.55,-0.04,0.09,0.91,
0.784,-0.25,-0.32,-0.55,-0.04,0.09,0.91,
0.784,-0.21,-0.30,-0.57,-0.04,0.09,0.91,
0.786,-0.21,-0.30,-0.57,-0.04,0.09,0.92,
0.788,-0.21,-0.30,-0.57,-0.04,0.09,0.92,
0.789,-0.17,-0.29,-0.53,-0.04,0.09,0.92,
0.791,-0.17,-0.29,-0.53,-0.04,0.09,0.93,
0.799,-0.17,-0.29,-0.53,-0.03,0.10,0.93,
0.799,-0.13,-0.28,-0.45,-0.03,0.10,0.93,
0.799,-0.13,-0.28,-0.45,-0.03,0.10,0.94,
0.799,-0.13,-0.28,-0.45,-0.04,0.10,0.95,
0.799,-0.11,-0.24,-0.35,-0.04,0.10,0.95,
0.8,-0.11,-0.24,-0.35,-0.04,0.10,0.95,
0.803,-0.11,-0.24,-0.35,-0.05,0.10,0.96,
0.803,-0.11,-0.21,-0.22,-0.05,0.10,0.96,
0.805,-0.11,-0.21,-0.22,-0.05,0.10,0.97,
0.808,-0.11,-0.21,-0.22,-0.06,0.10,0.97,
0.808,-0.18,-0.18,-0.09,-0.06,0.10,0.97,
0.81,-0.18,-0.18,-0.09,-0.07,0.10,0.98,
0.813,-0.32,-0.16,0.03,-0.07,0.10,0.98,
0.813,-0.32,-0.16,0.03,-0.07,0.10,0.98,
0.815,-0.32,-0.16,0.03,-0.08,0.10,0.98,
0.818,-0.32,-0.16,0.03,-0.08,0.10,0.98,
0.818,-0.46,-0.16,0.09,-0.08,0.10,0.98,
0.821,-0.46,-0.16,0.09,-0.09,0.10,0.98,
0.823,-0.46,-0.16,0.09,-0.09,0.11,0.97,
0.823,-0.57,-0.15,0.11,-0.09,0.11,0.97,
0.825,-0.57,-0.15,0.11,-0.09,0.11,0.97,
0.828,-0.57,-0.15,0.11,-0.10,0.11,0.97,
0.828,-0.64,-0.12,0.08,-0.10,0.11,0.97,
0.83,-0.64,-0.12,0.08,-0.10,0.11,0.96,
0.833,-0.64,-0.12,0.08,-0.10,0.11,0.96,
0.833,-0.68,-0.08,0.01,-0.10,0.11,0.96,
0.835,-0.68,-0.08,0.01,-0.10,0.12,0.95,
0.838,-0.68,-0.08,0.01,-0.10,0.12,0.94,
0.838,-0.73,-0.06,-0.08,-0.10,0.12,0.94,
0.839,-0.73,-0.06,-0.08,-0.10,0.12,0.93,
0.842,-0.73,-0.06,-0.08,-0.10,0.12,0.93,
0.842,-0.73,-0.03,-0.23,-0.10,0.12,0.93,
0.845,-0.73,-0.03,-0.23,-0.09,0.12,0.92,
0.847,-0.73,-0.03,-0.23,-0.10,0.13,0.92,
0.848,-0.73,0.01,-0.34,-0.10,0.13,0.92,
0.85,-0.73,0.01,-0.34,-0.09,0.13,0.91,
0.852,-0.73,0.01,-0.34,-0.09,0.13,0.91,
0.852,-0.68,0.07,-0.48,-0.09,0.13,0.91,
0.855,-0.68,0.07,-0.48,-0.09,0.13,0.90,
0.857,-0.68,0.07,-0.48,-0.09,0.13,0.90,
0.857,-0.65,0.11,-0.55,-0.09,0.13,0.90,
0.859,-0.65,0.11,-0.55,-0.09,0.13,0.90,
0.863,-0.65,0.11,-0.55,-0.09,0.13,0.90,
0.863,-0.60,0.13,-0.61,-0.09,0.13,0.90,
0.864,-0.60,0.13,-0.61,-0.09,0.12,0.90,
0.867,-0.60,0.13,-0.61,-0.08,0.12,0.91,
0.867,-0.60,0.08,-0.63,-0.08,0.12,0.91,
0.869,-0.60,0.08,-0.63,-0.08,0.12,0.91,
0.872,-0.60,0.08,-0.63,-0.08,0.12,0.92,
0.872,-0.58,0.05,-0.59,-0.08,0.12,0.92,
0.874,-0.58,0.05,-0.59,-0.07,0.12,0.92,
0.882,-0.58,0.05,-0.59,-0.07,0.12,0.93,
0.883,-0.50,0.06,-0.50,-0.07,0.12,0.93,
0.885,-0.50,0.06,-0.50,-0.06,0.12,0.94,
0.886,-0.50,0.06,-0.50,-0.06,0.12,0.95,
0.886,-0.42,0.06,-0.34,-0.06,0.12,0.95,
0.886,-0.42,0.06,-0.34,-0.07,0.12,0.96,
0.886,-0.42,0.06,-0.34,-0.07,0.11,0.97,
0.887,-0.35,0.04,-0.16,-0.07,0.11,0.97,
0.889,-0.35,0.04,-0.16,-0.07,0.11,0.98,
0.891,-0.35,0.04,-0.16,-0.07,0.11,0.98,
0.891,-0.39,-0.00,0.02,-0.07,0.11,0.98,
0.896,-0.39,-0.00,0.02,-0.08,0.10,0.99,
0.896,-0.39,-0.00,0.02,-0.09,0.10,1.00,
0.896,-0.43,-0.07,0.17,-0.09,0.10,1.00,
0.899,-0.43,-0.07,0.17,-0.09,0.10,1.00,
0.901,-0.43,-0.07,0.17,-0.10,0.10,1.00,
0.901,-0.54,-0.11,0.29,-0.10,0.10,1.00,
0.903,-0.54,-0.11,0.29,-0.10,0.11,1.00,
0.906,-0.54,-0.11,0.29,-0.11,0.11,1.00,
0.906,-0.66,-0.10,0.35,-0.11,0.11,1.00,
0.908,-0.66,-0.10,0.35,-0.11,0.11,1.00,
0.911,-0.66,-0.10,0.35,-0.11,0.11,1.00,
0.911,-0.74,-0.04,0.37,-0.11,0.11,1.00,
0.913,-0.74,-0.04,0.37,-0.11,0.11,1.00,
0.915,-0.74,-0.04,0.37,-0.11,0.12,0.99,
0.916,-0.78,0.01,0.35,-0.11,0.12,0.99,
0.918,-0.78,0.01,0.35,-0.10,0.12,0.99,
0.92,-0.78,0.01,0.35,-0.10,0.13,0.98,
0.921,-0.75,0.04,0.27,-0.10,0.13,0.98,
0.923,-0.75,0.04,0.27,-0.10,0.13,0.97,
0.925,-0.75,0.04,0.27,-0.10,0.14,0.97,
0.925,-0.73,0.13,0.17,-0.10,0.14,0.97,
0.93,-0.73,0.13,0.17,-0.09,0.14,0.96,
0.93,-0.73,0.13,0.17,-0.09,0.14,0.96,
0.931,-0.68,0.22,0.06,-0.09,0.14,0.96,
0.933,-0.68,0.22,0.06,-0.08,0.14,0.96,
0.935,-0.68,0.22,0.06,-0.08,0.15,0.95,
0.935,-0.60,0.31,-0.04,-0.08,0.15,0.95,
0.938,-0.60,0.31,-0.04,-0.08,0.15,0.95,
0.94,-0.60,0.31,-0.04,-0.08,0.15,0.94,
0.94,-0.53,0.34,-0.12,-0.08,0.15,0.94,
0.943,-0.53,0.34,-0.12,-0.08,0.15,0.94,
0.945,-0.53,0.34,-0.12,-0.08,0.15,0.94,
0.945,-0.50,0.35,-0.20,-0.08,0.15,0.94,
0.948,-0.50,0.35,-0.20,-0.08,0.15,0.93,
0.95,-0.50,0.35,-0.20,-0.08,0.15,0.93,
0.95,-0.49,0.34,-0.26,-0.08,0.15,0.93,
0.952,-0.49,0.34,-0.26,-0.08,0.15,0.93,
0.955,-0.49,0.34,-0.26,-0.08,0.15,0.93,
0.955,-0.50,0.34,-0.34,-0.08,0.15,0.93,
0.957,-0.50,0.34,-0.34,-0.09,0.15,0.92,
0.96,-0.50,0.34,-0.34,-0.09,0.15,0.92,
0.961,-0.52,0.37,-0.38,-0.09,0.15,0.92,
0.962,-0.52,0.37,-0.38,-0.09,0.16,0.92,
0.965,-0.52,0.37,-0.38,-0.10,0.16,0.92,
0.965,-0.59,0.42,-0.41,-0.10,0.16,0.92,
0.967,-0.59,0.42,-0.41,-0.10,0.16,0.93,
0.969,-0.59,0.42,-0.41,-0.11,0.16,0.93,
0.97,-0.65,0.47,-0.42,-0.11,0.16,0.93,
0.972,-0.65,0.47,-0.42,-0.11,0.17,0.93,
0.975,-0.65,0.47,-0.42,-0.11,0.17,0.93,
0.975,-0.70,0.51,-0.37,-0.11,0.17,0.93,
0.977,-0.70,0.51,-0.37,-0.11,0.17,0.94,
0.98,-0.70,0.51,-0.37,-0.11,0.17,0.94,
0.98,-0.73,0.55,-0.31,-0.11,0.17,0.94,
0.982,-0.73,0.55,-0.31,-0.11,0.17,0.95,
0.984,-0.73,0.55,-0.31,-0.11,0.17,0.96,
0.984,-0.75,0.57,-0.21,-0.11,0.17,0.96,
0.986,-0.75,0.57,-0.21,-0.12,0.16,0.96,
0.989,-0.75,0.57,-0.21,-0.12,0.16,0.97,
0.989,-0.78,0.56,-0.09,-0.12,0.16,0.97,
0.992,-0.78,0.56,-0.09,-0.12,0.15,0.97,
1.0,-0.83,0.51,0.01,-0.12,0.15,0.97,
1.001,-0.83,0.51,0.01,-0.12,0.15,0.98,
1.001,-0.83,0.51,0.01,-0.12,0.15,0.98,
1.001,-0.83,0.51,0.01,-0.12,0.14,0.99,
1.001,-0.82,0.42,0.12,-0.12,0.14,0.99,
1.002,-0.82,0.42,0.12,-0.12,0.14,0.99,
1.004,-0.82,0.42,0.12,-0.12,0.14,0.99,
1.004,-0.79,0.35,0.21,-0.12,0.14,0.99,
1.006,-0.79,0.35,0.21,-0.11,0.14,0.99,
1.009,-0.79,0.35,0.21,-0.11,0.13,0.99,
1.009,-0.78,0.30,0.25,-0.11,0.13,0.99,
1.014,-0.78,0.30,0.25,-0.11,0.13,0.99,
1.015,-0.78,0.30,0.25,-0.10,0.13,0.99,
1.015,-0.71,0.25,0.29,-0.10,0.13,0.99,
1.016,-0.71,0.25,0.29,-0.10,0.13,0.99,
1.018,-0.71,0.25,0.29,-0.10,0.12,0.99,
1.018,-0.63,0.23,0.28,-0.10,0.12,0.99,
1.021,-0.63,0.23,0.28,-0.10,0.12,0.99,
1.023,-0.63,0.23,0.28,-0.10,0.12,0.98,
1.023,-0.59,0.17,0.26,-0.10,0.12,0.98,
1.026,-0.59,0.17,0.26,-0.10,0.12,0.98,
1.028,-0.59,0.17,0.26,-0.10,0.12,0.97,
1.029,-0.57,0.12,0.18,-0.10,0.12,0.97,
1.03,-0.57,0.12,0.18,-0.10,0.12,0.97,
1.033,-0.57,0.12,0.18,-0.10,0.12,0.97,
1.033,-0.58,0.08,0.09,-0.10,0.12,0.97,
1.035,-0.58,0.08,0.09,-0.10,0.12,0.97,
1.038,-0.58,0.08,0.09,-0.10,0.12,0.96,
1.038,-0.57,0.09,0.04,-0.10,0.12,0.96,
1.04,-0.57,0.09,0.04,-0.10,0.12,0.96,
1.043,-0.57,0.09,0.04,-0.10,0.12,0.96,
1.043,-0.58,0.13,-0.01,-0.10,0.12,0.96,
1.045,-0.58,0.13,-0.01,-0.10,0.13,0.95,
1.048,-0.58,0.13,-0.01,-0.11,0.13,0.95,
1.049,-0.60,0.16,-0.06,-0.11,0.13,0.95,
1.05,-0.60,0.16,-0.06,-0.11,0.13,0.95,
1.053,-0.60,0.16,-0.06,-0.11,0.13,0.94,
1.053,-0.65,0.21,-0.14,-0.11,0.13,0.94,
1.055,-0.65,0.21,-0.14,-0.11,0.13,0.94,
1.058,-0.65,0.21,-0.14,-0.11,0.13,0.94,
1.058,-0.69,0.25,-0.22,-0.11,0.13,0.94,
1.06,-0.69,0.25,-0.22,-0.11,0.13,0.94,
1.063,-0.69,0.25,-0.22,-0.10,0.13,0.93,
1.063,-0.71,0.29,-0.26,-0.10,0.13,0.93,
1.065,-0.71,0.29,-0.26,-0.10,0.14,0.94,
1.067,-0.71,0.29,-0.26,-0.10,0.14,0.93,
1.068,-0.65,0.31,-0.30,-0.10,0.14,0.93,
1.07,-0.65,0.31,-0.30,-0.10,0.14,0.94,
1.072,-0.65,0.31,-0.30,-0.10,0.13,0.94,
1.072,-0.61,0.32,-0.30,-0.10,0.13,0.94,
1.075,-0.61,0.32,-0.30,-0.10,0.13,0.94,
1.081,-0.61,0.32,-0.30,-0.10,0.13,0.94,
1.082,-0.59,0.33,-0.29,-0.10,0.13,0.94,
1.082,-0.59,0.33,-0.29,-0.10,0.13,0.94,
1.082,-0.59,0.33,-0.29,-0.10,0.13,0.94,
1.083,-0.59,0.32,-0.27,-0.10,0.13,0.94,
1.084,-0.59,0.32,-0.27,-0.10,0.13,0.95,
1.087,-0.59,0.32,-0.27,-0.10,0.13,0.95,
1.087,-0.61,0.30,-0.24,-0.10,0.13,0.95,
1.089,-0.61,0.30,-0.24,-0.10,0.12,0.95,
1.092,-0.61,0.30,-0.24,-0.10,0.13,0.95,
1.092,-0.59,0.27,-0.18,-0.10,0.13,0.95,
1.099,-0.59,0.27,-0.18,-0.10,0.12,0.96,
1.099,-0.59,0.27,-0.18,-0.10,0.12,0.96,
1.1,-0.58,0.25,-0.13,-0.10,0.12,0.96,
1.1,-0.58,0.25,-0.13,-0.10,0.12,0.96,
1.102,-0.58,0.25,-0.13,-0.10,0.12,0.97,
1.102,-0.59,0.23,-0.06,-0.10,0.12,0.97,
1.104,-0.59,0.23,-0.06,-0.11,0.12,0.97,
1.106,-0.59,0.23,-0.06,-0.10,0.11,0.97,
1.106,-0.62,0.19,0.01,-0.10,0.11,0.97,
1.109,-0.62,0.19,0.01,-0.10,0.11,0.98,
1.112,-0.62,0.19,0.01,-0.10,0.11,0.98,
1.112,-0.62,0.17,0.07,-0.10,0.11,0.98,
1.114,-0.62,0.17,0.07,-0.10,0.11,0.98,
1.116,-0.62,0.17,0.07,-0.10,0.11,0.98,
1.116,-0.60,0.11,0.12,-0.10,0.11,0.98,
1.119,-0.60,0.11,0.12,-0.10,0.11,0.99,
1.121,-0.60,0.11,0.12,-0.10,0.10,0.99,
1.121,-0.60,0.09,0.17,-0.10,0.10,0.99,
1.123,-0.60,0.09,0.17,-0.10,0.10,0.99,
1.127,-0.60,0.09,0.17,-0.10,0.10,0.98,
1.127,-0.57,0.06,0.20,-0.10,0.10,0.98,
1.129,-0.57,0.06,0.20,-0.10,0.09,0.98,
1.131,-0.57,0.06,0.20,-0.10,0.09,0.98,
1.131,-0.55,-0.01,0.18,-0.10,0.09,0.98,
1.133,-0.55,-0.01,0.18,-0.10,0.08,0.97,
1.136,-0.55,-0.01,0.18,-0.09,0.08,0.97,
1.136,-0.51,-0.09,0.12,-0.09,0.08,0.97,
1.138,-0.51,-0.09,0.12,-0.08,0.08,0.97,
1.141,-0.51,-0.09,0.12,-0.08,0.08,0.96,
1.141,-0.46,-0.14,0.05,-0.08,0.08,0.96,
1.143,-0.46,-0.14,0.05,-0.07,0.08,0.96,
1.146,-0.46,-0.14,0.05,-0.07,0.09,0.96,
1.146,-0.34,-0.16,0.01,-0.07,0.09,0.96,
1.148,-0.34,-0.16,0.01,-0.07,0.09,0.96,
1.151,-0.34,-0.16,0.01,-0.07,0.08,0.95,
1.151,-0.25,-0.13,-0.05,-0.07,0.08,0.95,
1.153,-0.25,-0.13,-0.05,-0.06,0.08,0.95,
1.156,-0.25,-0.13,-0.05,-0.06,0.08,0.95,
1.156,-0.19,-0.12,-0.10,-0.06,0.08,0.95,
1.158,-0.19,-0.12,-0.10,-0.06,0.09,0.95,
1.161,-0.19,-0.12,-0.10,-0.06,0.09,0.95,
1.161,-0.15,-0.12,-0.13,-0.06,0.09,0.95,
1.163,-0.15,-0.12,-0.13,-0.06,0.09,0.95,
1.166,-0.15,-0.12,-0.13,-0.06,0.10,0.95,
1.166,-0.11,-0.07,-0.13,-0.06,0.10,0.95,
1.168,-0.11,-0.07,-0.13,-0.07,0.10,0.96,
1.171,-0.11,-0.07,-0.13,-0.07,0.11,0.96,
1.171,-0.14,0.02,-0.11,-0.07,0.11,0.96,
1.173,-0.14,0.02,-0.11,-0.08,0.11,0.96,
1.182,-0.14,0.02,-0.11,-0.08,0.12,0.96,
1.182,-0.22,0.12,-0.09,-0.08,0.12,0.96,
1.183,-0.22,0.12,-0.09,-0.09,0.12,0.97,
1.183,-0.22,0.12,-0.09,-0.10,0.12,0.97,
1.183,-0.34,0.20,-0.04,-0.10,0.12,0.97,
1.183,-0.34,0.20,-0.04,-0.11,0.13,0.98,
1.185,-0.34,0.20,-0.04,-0.11,0.13,0.98,
1.185,-0.48,0.28,0.02,-0.11,0.13,0.98,
1.187,-0.48,0.28,0.02,-0.12,0.13,0.99,
1.19,-0.48,0.28,0.02,-0.12,0.13,1.00,
1.19,-0.59,0.37,0.13,-0.12,0.13,1.00,
1.196,-0.59,0.37,0.13,-0.13,0.14,1.00,
1.196,-0.59,0.37,0.13,-0.13,0.14,1.00,
1.196,-0.69,0.41,0.27,-0.13,0.14,1.00,
1.198,-0.69,0.41,0.27,-0.14,0.14,1.01,
1.2,-0.69,0.41,0.27,-0.14,0.15,1.01,
1.2,-0.78,0.47,0.35,-0.14,0.15,1.01,
1.202,-0.78,0.47,0.35,-0.15,0.15,1.01,
1.204,-0.78,0.47,0.35,-0.15,0.15,1.00,
1.206,-0.85,0.52,0.38,-0.15,0.15,1.00,
1.207,-0.85,0.52,0.38,-0.15,0.15,1.00,
1.209,-0.85,0.52,0.38,-0.14,0.15,1.00,
1.21,-0.90,0.55,0.36,-0.14,0.15,1.00,
1.212,-0.90,0.55,0.36,-0.14,0.15,0.99,
1.215,-0.90,0.55,0.36,-0.14,0.15,0.99,
1.215,-0.87,0.56,0.30,-0.14,0.15,0.99,
1.217,-0.87,0.56,0.30,-0.14,0.15,0.99,
1.219,-0.87,0.56,0.30,-0.14,0.15,0.98,
1.219,-0.85,0.56,0.24,-0.14,0.15,0.98,
1.221,-0.85,0.56,0.24,-0.14,0.15,0.98,
1.224,-0.85,0.56,0.24,-0.14,0.14,0.98,
1.224,-0.81,0.55,0.18,-0.14,0.14,0.98,
1.226,-0.81,0.55,0.18,-0.14,0.14,0.97,
1.229,-0.81,0.55,0.18,-0.14,0.14,0.96,
1.229,-0.79,0.49,0.10,-0.14,0.14,0.96,
1.232,-0.79,0.49,0.10,-0.14,0.13,0.96,
1.234,-0.79,0.49,0.10,-0.14,0.13,0.96,
1.234,-0.78,0.38,-0.00,-0.14,0.13,0.96,
1.236,-0.78,0.38,-0.00,-0.13,0.13,0.95,
1.239,-0.78,0.38,-0.00,-0.13,0.13,0.95,
1.239,-0.74,0.30,-0.10,-0.13,0.13,0.95,
1.241,-0.74,0.30,-0.10,-0.12,0.13,0.94,
1.244,-0.74,0.30,-0.10,-0.12,0.13,0.94,
1.244,-0.64,0.26,-0.19,-0.12,0.13,0.94,
1.246,-0.64,0.26,-0.19,-0.11,0.14,0.94,
1.249,-0.64,0.26,-0.19,-0.11,0.14,0.95,
1.249,-0.53,0.30,-0.23,-0.11,0.14,0.95,
1.251,-0.53,0.30,-0.23,-0.10,0.15,0.95,
1.253,-0.53,0.30,-0.23,-0.10,0.15,0.96,
1.254,-0.40,0.38,-0.22,-0.10,0.15,0.96,
1.256,-0.40,0.38,-0.22,-0.10,0.15,0.96,
1.262,-0.40,0.38,-0.22,-0.10,0.16,0.97,
1.262,-0.30,0.48,-0.13,-0.10,0.16,0.97,
1.263,-0.30,0.48,-0.13,-0.10,0.16,0.98,
1.263,-0.30,0.48,-0.13,-0.11,0.16,0.98,
1.264,-0.25,0.56,-0.01,-0.11,0.16,0.98,
1.266,-0.25,0.56,-0.01,-0.11,0.16,0.99,
1.268,-0.25,0.56,-0.01,-0.12,0.17,1.00,
1.269,-0.30,0.62,0.13,-0.12,0.17,1.00,
1.271,-0.30,0.62,0.13,-0.12,0.17,1.00,
1.273,-0.30,0.62,0.13,-0.13,0.18,1.01,
1.273,-0.40,0.64,0.26,-0.13,0.18,1.01,
1.276,-0.40,0.64,0.26,-0.13,0.18,1.02,
1.278,-0.40,0.64,0.26,-0.13,0.19,1.02,
1.279,-0.48,0.74,0.40,-0.13,0.19,1.02,
1.28,-0.48,0.74,0.40,-0.14,0.19,1.03,
1.283,-0.48,0.74,0.40,-0.14,0.20,1.03,
1.283,-0.54,0.84,0.50,-0.14,0.20,1.03,
1.285,-0.54,0.84,0.50,-0.14,0.20,1.03,
1.288,-0.54,0.84,0.50,-0.14,0.20,1.04,
1.288,-0.58,0.92,0.61,-0.14,0.20,1.04,
1.29,-0.58,0.92,0.61,-0.14,0.20,1.03,
1.299,-0.58,0.92,0.61,-0.14,0.20,1.03,
1.299,-0.59,0.96,0.66,-0.14,0.20,1.03,
1.299,-0.59,0.96,0.66,-0.14,0.19,1.02,
1.3,-0.59,0.96,0.66,-0.14,0.19,1.02,
1.3,-0.60,0.93,0.62,-0.14,0.19,1.02,
1.3,-0.60,0.93,0.62,-0.14,0.19,1.01,
1.303,-0.63,0.84,0.51,-0.14,0.19,1.01,
1.303,-0.63,0.84,0.51,-0.14,0.18,1.00,
1.305,-0.63,0.84,0.51,-0.14,0.18,0.99,
1.307,-0.63,0.84,0.51,-0.14,0.18,0.99,
1.308,-0.59,0.77,0.37,-0.14,0.18,0.99,
1.31,-0.59,0.77,0.37,-0.14,0.18,0.98,
1.312,-0.59,0.77,0.37,-0.14,0.18,0.97,
1.313,-0.58,0.75,0.21,-0.14,0.18,0.97,
1.315,-0.58,0.75,0.21,-0.14,0.19,0.97,
1.317,-0.58,0.75,0.21,-0.14,0.19,0.96,
1.317,-0.57,0.74,0.06,-0.14,0.19,0.96,
1.319,-0.57,0.74,0.06,-0.14,0.19,0.95,
1.322,-0.57,0.74,0.06,-0.14,0.19,0.95,
1.322,-0.53,0.75,-0.07,-0.14,0.19,0.95,
1.324,-0.53,0.75,-0.07,-0.14,0.20,0.95,
1.327,-0.53,0.75,-0.07,-0.14,0.20,0.95,
1.328,-0.51,0.81,-0.17,-0.14,0.20,0.95,
1.329,-0.51,0.81,-0.17,-0.15,0.20,0.94,
1.332,-0.51,0.81,-0.17,-0.15,0.20,0.94,
1.332,-0.53,0.85,-0.20,-0.15,0.20,0.94,
1.335,-0.53,0.85,-0.20,-0.15,0.20,0.94,
1.337,-0.53,0.85,-0.20,-0.15,0.21,0.94,
1.337,-0.56,0.86,-0.23,-0.15,0.21,0.94,
1.339,-0.56,0.86,-0.23,-0.15,0.21,0.94,
1.342,-0.56,0.86,-0.23,-0.15,0.22,0.94,
1.342,-0.54,0.89,-0.24,-0.15,0.22,0.94,
1.344,-0.54,0.89,-0.24,-0.15,0.22,0.94,
1.347,-0.54,0.89,-0.24,-0.15,0.23,0.94,
1.347,-0.52,0.96,-0.25,-0.15,0.23,0.94,
1.349,-0.52,0.96,-0.25,-0.15,0.23,0.94,
1.352,-0.52,0.96,-0.25,-0.15,0.23,0.94,
1.352,-0.52,1.04,-0.24,-0.15,0.23,0.94,
1.354,-0.52,1.04,-0.24,-0.15,0.24,0.95,
1.356,-0.52,1.04,-0.24,-0.16,0.24,0.95,
1.357,-0.53,1.11,-0.23,-0.16,0.24,0.95,
1.359,-0.53,1.11,-0.23,-0.16,0.24,0.95,
1.362,-0.53,1.11,-0.23,-0.16,0.24,0.96,
1.362,-0.56,1.15,-0.14,-0.16,0.24,0.96,
1.364,-0.56,1.15,-0.14,-0.16,0.24,0.96,
1.366,-0.56,1.15,-0.14,-0.17,0.23,0.97,
1.367,-0.59,1.16,-0.09,-0.17,0.23,0.97,
1.369,-0.59,1.16,-0.09,-0.17,0.23,0.97,
1.371,-0.59,1.16,-0.09,-0.17,0.23,0.97,
1.371,-0.62,1.08,0.00,-0.17,0.23,0.97,
1.374,-0.62,1.08,0.00,-0.17,0.22,0.98,
1.376,-0.62,1.08,0.00,-0.18,0.22,0.98,
1.376,-0.64,1.03,0.06,-0.18,0.22,0.98,
1.378,-0.64,1.03,0.06,-0.18,0.22,0.98,
1.381,-0.64,1.03,0.06,-0.17,0.21,0.98,
1.381,-0.66,0.93,0.10,-0.17,0.21,0.98,
1.383,-0.66,0.93,0.10,-0.17,0.21,0.98,
1.386,-0.66,0.93,0.10,-0.17,0.21,0.99,
1.386,-0.64,0.88,0.14,-0.17,0.21,0.99,
1.388,-0.64,0.88,0.14,-0.17,0.20,0.99,
1.391,-0.64,0.88,0.14,-0.17,0.20,1.00,
1.391,-0.60,0.81,0.19,-0.17,0.20,1.00,
1.398,-0.60,0.81,0.19,-0.17,0.19,1.01,
1.399,-0.60,0.81,0.19,-0.17,0.19,1.01,
1.399,-0.55,0.76,0.29,-0.17,0.19,1.01,
1.399,-0.55,0.76,0.29,-0.17,0.19,1.02,
1.4,-0.55,0.76,0.29,-0.18,0.18,1.02,
1.401,-0.57,0.66,0.41,-0.18,0.18,1.02,
1.403,-0.57,0.66,0.41,-0.18,0.18,1.03,
1.405,-0.57,0.66,0.41,-0.18,0.17,1.03,
1.405,-0.62,0.60,0.51,-0.18,0.17,1.03,
1.411,-0.62,0.60,0.51,-0.19,0.17,1.03,
1.411,-0.62,0.60,0.51,-0.19,0.16,1.04,
1.411,-0.68,0.50,0.61,-0.19,0.16,1.04,
1.413,-0.68,0.50,0.61,-0.19,0.16,1.04,
1.415,-0.68,0.50,0.61,-0.19,0.16,1.03,
1.415,-0.71,0.42,0.65,-0.19,0.16,1.03,
1.417,-0.71,0.42,0.65,-0.18,0.16,1.03,
1.42,-0.71,0.42,0.65,-0.18,0.16,1.03,
1.42,-0.73,0.39,0.65,-0.18,0.16,1.03,
1.422,-0.73,0.39,0.65,-0.17,0.17,1.02,
1.425,-0.73,0.39,0.65,-0.17,0.17,1.02,
1.425,-0.66,0.40,0.58,-0.17,0.17,1.02,
1.427,-0.66,0.40,0.58,-0.16,0.18,1.01,
1.43,-0.66,0.40,0.58,-0.15,0.18,1.01,
1.43,-0.56,0.48,0.48,-0.15,0.18,1.01,
1.432,-0.56,0.48,0.48,-0.15,0.18,1.00,
1.435,-0.56,0.48,0.48,-0.14,0.18,1.00,
1.435,-0.43,0.58,0.38,-0.14,0.18,1.00,
1.437,-0.43,0.58,0.38,-0.14,0.18,0.99,
1.44,-0.43,0.58,0.38,-0.13,0.18,0.99,
1.44,-0.32,0.62,0.26,-0.13,0.18,0.99,
1.442,-0.32,0.62,0.26,-0.12,0.18,0.99,
1.445,-0.32,0.62,0.26,-0.11,0.18,0.99,
1.445,-0.19,0.60,0.20,-0.11,0.18,0.99,
1.447,-0.19,0.60,0.20,-0.11,0.18,0.98,
1.45,-0.19,0.60,0.20,-0.10,0.18,0.99,
1.45,-0.04,0.58,0.15,-0.10,0.18,0.99,
1.452,-0.04,0.58,0.15,-0.09,0.18,0.98,
1.455,-0.04,0.58,0.15,-0.09,0.17,0.98,
1.455,0.11,0.59,0.13,-0.09,0.17,0.98,
1.457,0.11,0.59,0.13,-0.09,0.17,0.98,
1.459,0.11,0.59,0.13,-0.09,0.17,0.98,
1.46,0.21,0.55,0.11,-0.09,0.17,0.98,
1.462,0.21,0.55,0.11,-0.09,0.16,0.97,
1.464,0.21,0.55,0.11,-0.09,0.16,0.97,
1.464,0.24,0.46,0.05,-0.09,0.16,0.97,
1.466,0.24,0.46,0.05,-0.09,0.16,0.97,
1.469,0.24,0.46,0.05,-0.09,0.16,0.97,
1.469,0.24,0.41,0.01,-0.09,0.16,0.97,
1.471,0.24,0.41,0.01,-0.10,0.16,0.96,
1.474,0.24,0.41,0.01,-0.10,0.16,0.96,
1.474,0.22,0.39,-0.04,-0.10,0.16,0.96,
1.476,0.22,0.39,-0.04,-0.10,0.17,0.96,
1.479,0.22,0.39,-0.04,-0.11,0.17,0.96,
1.479,0.15,0.41,-0.07,-0.11,0.17,0.96,
1.481,0.15,0.41,-0.07,-0.12,0.17,0.96,
1.484,0.15,0.41,-0.07,-0.12,0.18,0.96,
1.484,0.09,0.46,-0.08,-0.12,0.18,0.96,
1.486,0.09,0.46,-0.08,-0.13,0.18,0.97,
1.489,0.09,0.46,-0.08,-0.13,0.18,0.97,
1.489,-0.03,0.53,-0.07,-0.13,0.18,0.97,
1.498,-0.03,0.53,-0.07,-0.14,0.19,0.98,
1.498,-0.03,0.53,-0.07,-0.14,0.19,0.98,
1.499,-0.13,0.59,-0.01,-0.14,0.19,0.98,
1.499,-0.13,0.59,-0.01,-0.14,0.19,0.98,
1.499,-0.13,0.59,-0.01,-0.15,0.20,0.98,
1.499,-0.22,0.65,0.06,-0.15,0.20,0.98,
1.501,-0.22,0.65,0.06,-0.14,0.20,0.99,
1.503,-0.22,0.65,0.06,-0.14,0.20,0.99,
1.504,-0.26,0.70,0.12,-0.14,0.20,0.99,
1.506,-0.26,0.70,0.12,-0.14,0.20,0.99,
1.51,-0.26,0.70,0.12,-0.13,0.19,0.99,
1.511,-0.24,0.73,0.18,-0.13,0.19,0.99,
1.511,-0.24,0.73,0.18,-0.13,0.19,0.99,
1.513,-0.24,0.73,0.18,-0.12,0.19,0.99,
1.513,-0.17,0.70,0.19,-0.12,0.19,0.99,
1.515,-0.17,0.70,0.19,-0.11,0.19,0.99,
1.518,-0.17,0.70,0.19,-0.10,0.19,0.98,
1.518,-0.03,0.65,0.17,-0.10,0.19,0.98,
1.52,-0.03,0.65,0.17,-0.09,0.19,0.98,
1.523,-0.03,0.65,0.17,-0.08,0.18,0.98,
1.523,0.11,0.62,0.13,-0.08,0.18,0.98,
1.525,0.11,0.62,0.13,-0.07,0.18,0.97,
1.528,0.11,0.62,0.13,-0.07,0.18,0.97,
1.528,0.29,0.60,0.07,-0.07,0.18,0.97,
1.53,0.29,0.60,0.07,-0.06,0.18,0.97,
1.533,0.47,0.59,-0.03,-0.06,0.18,0.97,
1.533,0.47,0.59,-0.03,-0.05,0.18,0.96,
1.535,0.47,0.59,-0.03,-0.05,0.19,0.96,
1.538,0.47,0.59,-0.03,-0.05,0.19,0.96,
1.538,0.60,0.59,-0.08,-0.05,0.19,0.96,
1.54,0.60,0.59,-0.08,-0.05,0.19,0.96,
1.543,0.60,0.59,-0.08,-0.05,0.19,0.95,
1.543,0.65,0.61,-0.12,-0.05,0.19,0.95,
1.545,0.65,0.61,-0.12,-0.05,0.19,0.95,
1.547,0.65,0.61,-0.12,-0.05,0.19,0.95,
1.547,0.67,0.63,-0.16,-0.05,0.19,0.95,
1.55,0.67,0.63,-0.16,-0.06,0.20,0.95,
1.552,0.67,0.63,-0.16,-0.06,0.20,0.95,
1.552,0.61,0.65,-0.20,-0.06,0.20,0.95,
1.554,0.61,0.65,-0.20,-0.06,0.21,0.95,
1.558,0.59,0.75,-0.21,-0.06,0.21,0.95,
1.559,0.59,0.75,-0.21,-0.06,0.22,0.95,
1.56,0.59,0.75,-0.21,-0.07,0.22,0.96,
1.562,0.59,0.75,-0.21,-0.07,0.22,0.96,
1.562,0.55,0.86,-0.18,-0.07,0.22,0.96,
1.564,0.55,0.86,-0.18,-0.08,0.22,0.97,
1.567,0.55,0.86,-0.18,-0.08,0.23,0.98,
1.567,0.46,0.93,-0.09,-0.08,0.23,0.98,
1.569,0.46,0.93,-0.09,-0.08,0.23,0.98,
1.572,0.46,0.93,-0.09,-0.09,0.23,0.99,
1.572,0.39,0.98,0.03,-0.09,0.23,0.99,
1.575,0.39,0.98,0.03,-0.09,0.23,1.00,
1.577,0.39,0.98,0.03,-0.09,0.23,1.00,
1.578,0.33,1.02,0.15,-0.09,0.23,1.00,
1.58,0.33,1.02,0.15,-0.09,0.23,1.01,
1.582,0.33,1.02,0.15,-0.09,0.23,1.01,
1.582,0.28,1.00,0.28,-0.09,0.23,1.01,
1.584,0.28,1.00,0.28,-0.09,0.22,1.01,
1.587,0.28,1.00,0.28,-0.09,0.22,1.02,
1.587,0.29,0.98,0.38,-0.09,0.22,1.02,
1.589,0.29,0.98,0.38,-0.08,0.22,1.02,
1.592,0.29,0.98,0.38,-0.07,0.22,1.02,
1.592,0.32,0.92,0.43,-0.07,0.22,1.02,
1.594,0.32,0.92,0.43,-0.07,0.22,1.01,
1.596,0.32,0.92,0.43,-0.07,0.22,1.01,
1.597,0.42,0.87,0.44,-0.07,0.22,1.01,
1.599,0.42,0.87,0.44,-0.07,0.21,1.01,
1.601,0.42,0.87,0.44,-0.06,0.21,1.01,
1.602,0.47,0.83,0.40,-0.06,0.21,1.01,
1.604,0.47,0.83,0.40,-0.06,0.21,1.01,
1.606,0.47,0.83,0.40,-0.06,0.20,1.00,
1.607,0.53,0.78,0.37,-0.06,0.20,1.00,
1.614,0.53,0.78,0.37,-0.05,0.20,1.00,
1.614,0.53,0.78,0.37,-0.05,0.20,0.99,
1.615,0.60,0.71,0.30,-0.05,0.20,0.99,
1.615,0.60,0.71,0.30,-0.05,0.21,0.99,
1.616,0.60,0.71,0.30,-0.05,0.21,0.99,
1.616,0.66,0.69,0.21,-0.05,0.21,0.99,
1.618,0.66,0.69,0.21,-0.05,0.21,0.99,
1.621,0.66,0.69,0.21,-0.05,0.21,0.99,
1.621,0.69,0.71,0.14,-0.05,0.21,0.99,
1.623,0.69,0.71,0.14,-0.05,0.22,0.99,
1.627,0.69,0.71,0.14,-0.05,0.22,0.99,
1.627,0.70,0.76,0.12,-0.05,0.22,0.99,
1.628,0.70,0.76,0.12,-0.05,0.22,0.99,
1.631,0.70,0.76,0.12,-0.06,0.23,1.00,
1.631,0.66,0.82,0.14,-0.06,0.23,1.00,
1.633,0.66,0.82,0.14,-0.06,0.23,1.00,
1.635,0.66,0.82,0.14,-0.06,0.23,1.01,
1.636,0.63,0.86,0.22,-0.06,0.23,1.01,
1.638,0.63,0.86,0.22,-0.06,0.23,1.02,
1.641,0.63,0.86,0.22,-0.05,0.23,1.02,
1.642,0.61,0.92,0.32,-0.05,0.23,1.02,
1.643,0.61,0.92,0.32,-0.05,0.23,1.03,
1.645,0.61,0.92,0.32,-0.04,0.23,1.03,
1.646,0.62,0.94,0.44,-0.04,0.23,1.03,
1.648,0.62,0.94,0.44,-0.04,0.23,1.04,
1.65,0.62,0.94,0.44,-0.03,0.23,1.04,
1.651,0.69,0.92,0.56,-0.03,0.23,1.04,
1.652,0.69,0.92,0.56,-0.03,0.22,1.05,
1.655,0.69,0.92,0.56,-0.02,0.22,1.05,
1.655,0.78,0.87,0.66,-0.02,0.22,1.05,
1.658,0.78,0.87,0.66,-0.01,0.21,1.05,
1.661,0.78,0.87,0.66,0.00,0.21,1.06,
1.661,0.92,0.79,0.72,0.00,0.21,1.06,
1.663,0.92,0.79,0.72,0.01,0.20,1.06,
1.665,0.92,0.79,0.72,0.02,0.20,1.06,
1.666,1.11,0.69,0.78,0.02,0.20,1.06,
1.667,1.11,0.69,0.78,0.03,0.19,1.06,
1.67,1.11,0.69,0.78,0.04,0.18,1.06,
1.67,1.28,0.58,0.82,0.04,0.18,1.06,
1.672,1.28,0.58,0.82,0.04,0.18,1.06,
1.675,1.28,0.58,0.82,0.05,0.17,1.06,
1.676,1.42,0.43,0.82,0.05,0.17,1.06,
1.677,1.42,0.43,0.82,0.05,0.16,1.06,
1.681,1.42,0.43,0.82,0.06,0.16,1.06,
1.681,1.51,0.29,0.79,0.06,0.16,1.06,
1.682,1.51,0.29,0.79,0.06,0.16,1.05,
1.684,1.51,0.29,0.79,0.07,0.16,1.05,
1.685,1.59,0.16,0.75,0.07,0.16,1.05,
1.687,1.59,0.16,0.75,0.06,0.16,1.04,
1.689,1.59,0.16,0.75,0.06,0.16,1.04,
1.69,1.68,0.12,0.68,0.06,0.16,1.04,
1.692,1.68,0.12,0.68,0.05,0.16,1.04,
1.695,1.68,0.12,0.68,0.04,0.16,1.04,
1.698,1.65,0.12,0.61,0.04,0.16,1.04,
1.698,1.65,0.12,0.61,0.04,0.17,1.04,
1.699,1.65,0.12,0.61,0.03,0.17,1.04,
1.7,1.50,0.16,0.57,0.03,0.17,1.04,
1.702,1.50,0.16,0.57,0.02,0.18,1.04,
1.704,1.50,0.16,0.57,0.01,0.18,1.04,
1.704,1.33,0.24,0.56,0.01,0.18,1.04,
1.707,1.33,0.24,0.56,-0.00,0.19,1.04,
1.714,1.33,0.24,0.56,-0.01,0.20,1.04,
1.714,1.12,0.33,0.55,-0.01,0.20,1.04,
1.714,1.12,0.33,0.55,-0.02,0.20,1.03,
1.715,1.12,0.33,0.55,-0.02,0.21,1.03,
1.715,0.94,0.43,0.53,-0.02,0.21,1.03,
1.716,0.94,0.43,0.53,-0.03,0.21,1.03,
1.719,0.94,0.43,0.53,-0.04,0.21,1.03,
1.719,0.79,0.52,0.51,-0.04,0.21,1.03,
1.721,0.79,0.52,0.51,-0.04,0.22,1.02,
1.727,0.79,0.52,0.51,-0.05,0.22,1.02,
1.727,0.64,0.57,0.45,-0.05,0.22,1.02,
1.727,0.64,0.57,0.45,-0.05,0.22,1.02,
1.729,0.64,0.57,0.45,-0.05,0.22,1.01,
1.729,0.56,0.59,0.40,-0.05,0.22,1.01,
1.731,0.56,0.59,0.40,-0.04,0.22,1.01,
1.733,0.56,0.59,0.40,-0.04,0.22,1.00,
1.734,0.54,0.59,0.32,-0.04,0.22,1.00,
1.736,0.54,0.59,0.32,-0.04,0.21,1.00,
1.738,0.54,0.59,0.32,-0.03,0.21,1.00,
1.738,0.58,0.54,0.23,-0.03,0.21,1.00,
1.741,0.58,0.54,0.23,-0.02,0.20,1.00,
1.743,0.58,0.54,0.23,-0.02,0.20,1.00,
1.743,0.68,0.46,0.18,-0.02,0.20,1.00,
1.746,0.68,0.46,0.18,-0.01,0.19,1.00,
1.748,0.68,0.46,0.18,0.00,0.18,1.00,
1.748,0.79,0.33,0.17,0.00,0.18,1.00,
1.751,0.79,0.33,0.17,0.02,0.18,1.00,
1.753,0.79,0.33,0.17,0.03,0.17,1.01,
1.753,0.96,0.19,0.19,0.03,0.17,1.01,
1.755,0.96,0.19,0.19,0.04,0.16,1.02,
1.758,0.96,0.19,0.19,0.05,0.15,1.02,
1.759,1.15,0.05,0.25,0.05,0.15,1.02,
1.76,1.15,0.05,0.25,0.05,0.15,1.02,
1.763,1.15,0.05,0.25,0.06,0.14,1.03,
1.764,1.32,-0.11,0.35,0.06,0.14,1.03,
1.765,1.32,-0.11,0.35,0.07,0.13,1.03,
1.768,1.32,-0.11,0.35,0.07,0.13,1.04,
1.768,1.44,-0.26,0.44,0.07,0.13,1.04,
1.77,1.44,-0.26,0.44,0.07,0.12,1.04,
1.773,1.44,-0.26,0.44,0.08,0.12,1.04,
1.773,1.54,-0.36,0.50,0.08,0.12,1.04,
1.775,1.54,-0.36,0.50,0.08,0.12,1.04,
1.778,1.54,-0.36,0.50,0.08,0.12,1.04,
1.779,1.57,-0.44,0.55,0.08,0.12,1.04,
1.78,1.57,-0.44,0.55,0.08,0.12,1.05,
1.782,1.57,-0.44,0.55,0.08,0.12,1.05,
1.783,1.60,-0.47,0.59,0.08,0.12,1.05,
1.785,1.60,-0.47,0.59,0.08,0.12,1.05,
1.787,1.60,-0.47,0.59,0.08,0.13,1.05,
1.787,1.55,-0.47,0.61,0.08,0.13,1.05,
1.789,1.55,-0.47,0.61,0.07,0.13,1.05,
1.797,1.55,-0.47,0.61,0.07,0.13,1.04,
1.797,1.51,-0.42,0.61,0.07,0.13,1.04,
1.797,1.51,-0.42,0.61,0.06,0.14,1.04,
1.798,1.51,-0.42,0.61,0.06,0.14,1.04,
1.798,1.41,-0.34,0.59,0.06,0.14,1.04,
1.799,1.41,-0.34,0.59,0.05,0.15,1.04,
1.802,1.41,-0.34,0.59,0.05,0.15,1.03,
1.802,1.28,-0.26,0.54,0.05,0.15,1.03,
1.804,1.28,-0.26,0.54,0.04,0.15,1.02,
1.81,1.28,-0.26,0.54,0.04,0.15,1.02,
1.81,1.15,-0.20,0.47,0.04,0.15,1.02,
1.81,1.15,-0.20,0.47,0.04,0.16,1.01,
1.812,1.15,-0.20,0.47,0.03,0.16,1.00,
1.812,1.02,-0.15,0.35,0.03,0.16,1.00,
1.815,1.02,-0.15,0.35,0.03,0.16,1.00,
1.817,1.02,-0.15,0.35,0.03,0.16,0.99,
1.817,0.96,-0.11,0.21,0.03,0.16,0.99,
1.819,0.96,-0.11,0.21,0.04,0.16,0.99,
1.821,0.96,-0.11,0.21,0.04,0.16,0.98,
1.822,0.95,-0.11,0.10,0.04,0.16,0.98,
1.824,0.95,-0.11,0.10,0.04,0.16,0.98,
1.827,0.95,-0.11,0.10,0.04,0.16,0.98,
1.827,0.98,-0.09,0.01,0.04,0.16,0.98,
1.829,0.98,-0.09,0.01,0.04,0.16,0.98,
1.832,0.98,-0.09,0.01,0.05,0.15,0.98,
1.832,1.01,-0.12,-0.05,0.05,0.15,0.98,
1.834,1.01,-0.12,-0.05,0.05,0.15,0.98,
1.836,1.01,-0.12,-0.05,0.05,0.14,0.97,
1.836,1.03,-0.21,-0.07,0.05,0.14,0.97,
1.839,1.03,-0.21,-0.07,0.05,0.13,0.97,
1.841,1.03,-0.21,-0.07,0.06,0.13,0.97,
1.842,1.08,-0.34,-0.09,0.06,0.13,0.97,
1.844,1.08,-0.34,-0.09,0.06,0.13,0.98,
1.846,1.08,-0.34,-0.09,0.07,0.12,0.97,
1.846,1.15,-0.47,-0.09,0.07,0.12,0.97,
1.849,1.15,-0.47,-0.09,0.07,0.12,0.98,
1.851,1.15,-0.47,-0.09,0.07,0.11,0.98,
1.851,1.22,-0.56,-0.07,0.07,0.11,0.98,
1.853,1.22,-0.56,-0.07,0.08,0.11,0.97,
1.856,1.22,-0.56,-0.07,0.08,0.10,0.97,
1.856,1.27,-0.67,-0.06,0.08,0.10,0.97,
1.858,1.27,-0.67,-0.06,0.08,0.10,0.97,
1.861,1.35,-0.79,-0.09,0.08,0.10,0.97,
1.862,1.35,-0.79,-0.09,0.09,0.10,0.97,
1.863,1.35,-0.79,-0.09,0.09,0.10,0.97,
1.866,1.35,-0.79,-0.09,0.09,0.10,0.97,
1.866,1.40,-0.86,-0.09,0.09,0.10,0.97,
1.868,1.40,-0.86,-0.09,0.10,0.10,0.97,
1.871,1.40,-0.86,-0.09,0.10,0.10,0.97,
1.871,1.45,-0.87,-0.08,0.10,0.10,0.97,
1.873,1.45,-0.87,-0.08,0.10,0.11,0.98,
1.875,1.45,-0.87,-0.08,0.09,0.11,0.98,
1.876,1.51,-0.85,-0.07,0.09,0.11,0.98,
1.878,1.51,-0.85,-0.07,0.09,0.11,0.98,
1.881,1.51,-0.85,-0.07,0.09,0.12,0.99,
1.881,1.47,-0.81,-0.02,0.09,0.12,0.99,
1.883,1.47,-0.81,-0.02,0.08,0.12,0.99,
1.885,1.47,-0.81,-0.02,0.08,0.12,0.99,
1.886,1.40,-0.75,0.05,0.08,0.12,0.99,
1.887,1.40,-0.75,0.05,0.08,0.12,1.00,
1.896,1.40,-0.75,0.05,0.07,0.12,1.00,
1.896,1.30,-0.71,0.11,0.07,0.12,1.00,
1.897,1.30,-0.71,0.11,0.07,0.12,1.00,
1.897,1.30,-0.71,0.11,0.06,0.13,1.00,
1.897,1.23,-0.67,0.16,0.06,0.13,1.00,
1.897,1.23,-0.67,0.16,0.06,0.13,1.00,
1.9,1.23,-0.67,0.16,0.05,0.13,1.00,
1.9,1.10,-0.64,0.17,0.05,0.13,1.00,
1.902,1.10,-0.64,0.17,0.05,0.13,1.00,
1.905,1.10,-0.64,0.17,0.05,0.13,0.99,
1.905,1.00,-0.62,0.18,0.05,0.13,0.99,
1.91,1.00,-0.62,0.18,0.05,0.14,0.99,
1.911,1.00,-0.62,0.18,0.04,0.14,0.99,
1.911,0.95,-0.58,0.13,0.04,0.14,0.99,
1.912,0.95,-0.58,0.13,0.04,0.15,0.99,
1.915,0.95,-0.58,0.13,0.04,0.15,0.98,
1.915,0.85,-0.49,0.08,0.04,0.15,0.98,
1.917,0.85,-0.49,0.08,0.04,0.16,0.98,
1.919,0.85,-0.49,0.08,0.04,0.16,0.98,
1.919,0.80,-0.41,0.03,0.04,0.16,0.98,
1.922,0.80,-0.41,0.03,0.04,0.16,0.98,
1.924,0.80,-0.41,0.03,0.03,0.16,0.98,
1.925,0.75,-0.33,0.01,0.03,0.16,0.98,
1.927,0.75,-0.33,0.01,0.03,0.16,0.98,
1.929,0.75,-0.33,0.01,0.03,0.16,0.98,
1.93,0.69,-0.29,-0.02,0.03,0.16,0.98,
1.932,0.69,-0.29,-0.02,0.03,0.16,0.97,
1.934,0.69,-0.29,-0.02,0.03,0.16,0.97,
1.935,0.68,-0.34,-0.05,0.03,0.16,0.97,
1.936,0.68,-0.34,-0.05,0.03,0.16,0.97,
1.939,0.68,-0.34,-0.05,0.03,0.15,0.97,
1.94,0.66,-0.36,-0.08,0.03,0.15,0.97,
1.941,0.66,-0.36,-0.08,0.04,0.15,0.97,
1.944,0.66,-0.36,-0.08,0.04,0.15,0.96,
1.944,0.66,-0.39,-0.12,0.04,0.15,0.96,
1.947,0.66,-0.39,-0.12,0.04,0.15,0.96,
1.949,0.66,-0.39,-0.12,0.05,0.15,0.96,
1.949,0.69,-0.45,-0.15,0.05,0.15,0.96,
1.952,0.69,-0.45,-0.15,0.05,0.14,0.96,
1.954,0.69,-0.45,-0.15,0.06,0.14,0.96,
1.954,0.76,-0.50,-0.18,0.06,0.14,0.96,
1.957,0.76,-0.50,-0.18,0.06,0.14,0.96,
1.959,0.76,-0.50,-0.18,0.06,0.14,0.96,
1.959,0.85,-0.55,-0.20,0.06,0.14,0.96,
1.961,0.85,-0.55,-0.20,0.07,0.14,0.96,
1.964,0.85,-0.55,-0.20,0.07,0.13,0.96,
1.964,0.91,-0.59,-0.20,0.07,0.13,0.96,
1.966,0.91,-0.59,-0.20,0.08,0.13,0.97,
1.969,0.91,-0.59,-0.20,0.08,0.13,0.97,
1.969,1.02,-0.65,-0.17,0.08,0.13,0.97,
1.971,1.02,-0.65,-0.17,0.08,0.13,0.98,
1.974,1.02,-0.65,-0.17,0.08,0.12,0.98,
1.975,1.06,-0.69,-0.10,0.08,0.12,0.98,
1.976,1.06,-0.69,-0.10,0.08,0.12,0.99,
1.979,1.06,-0.69,-0.10,0.08,0.11,0.99,
1.979,1.06,-0.76,0.00,0.08,0.11,0.99,
1.981,1.06,-0.76,0.00,0.07,0.11,0.99,
1.983,1.06,-0.76,0.00,0.07,0.10,0.99,
1.984,1.02,-0.88,0.09,0.07,0.10,0.99,
1.986,1.02,-0.88,0.09,0.07,0.10,0.99,
1.988,1.02,-0.88,0.09,0.07,0.10,0.99,
1.991,0.99,-0.97,0.13,0.07,0.10,0.99,
1.991,0.99,-0.97,0.13,0.07,0.10,0.99,
1.993,0.99,-0.97,0.13,0.07,0.10,0.99,
1.994,0.94,-1.01,0.13,0.07,0.10,0.99,
1.995,0.94,-1.01,0.13,0.06,0.11,0.98,
1.998,0.94,-1.01,0.13,0.06,0.11,0.98,
1.998,0.88,-0.98,0.09,0.06,0.11,0.98,
2.0,0.88,-0.98,0.09,0.06,0.11,0.98,
2.003,0.88,-0.98,0.09,0.06,0.11,0.97,
2.003,0.83,-0.94,0.03,0.06,0.11,0.97,
2.005,0.83,-0.94,0.03,0.05,0.11,0.97,
2.012,0.83,-0.94,0.03,0.05,0.11,0.97,
2.012,0.76,-0.92,-0.04,0.05,0.11,0.97,
2.012,0.76,-0.92,-0.04,0.04,0.12,0.97,
2.013,0.76,-0.92,-0.04,0.04,0.13,0.97,
2.013,0.67,-0.87,-0.09,0.04,0.13,0.97,
2.017,0.67,-0.87,-0.09,0.03,0.13,0.97,
2.017,0.67,-0.87,-0.09,0.03,0.14,0.97,
2.018,0.59,-0.78,-0.13,0.03,0.14,0.97,
2.02,0.59,-0.78,-0.13,0.02,0.15,0.97,
2.022,0.59,-0.78,-0.13,0.02,0.15,0.97,
2.022,0.46,-0.66,-0.09,0.02,0.15,0.97,
2.025,0.46,-0.66,-0.09,0.01,0.15,0.97,
2.027,0.46,-0.66,-0.09,0.01,0.15,0.98,
2.028,0.35,-0.55,-0.05,0.01,0.15,0.98,
2.03,0.35,-0.55,-0.05,0.00,0.15,0.98,
2.033,0.35,-0.55,-0.05,0.01,0.15,0.98,
2.033,0.23,-0.51,-0.02,0.01,0.15,0.98,
2.034,0.23,-0.51,-0.02,0.01,0.15,0.98,
2.037,0.19,-0.50,-0.01,0.01,0.15,0.98,
2.037,0.19,-0.50,-0.01,0.02,0.16,0.98,
2.04,0.19,-0.50,-0.01,0.02,0.16,0.98,
2.042,0.19,-0.50,-0.01,0.03,0.16,0.98,
2.042,0.28,-0.48,-0.01,0.03,0.16,0.98,
2.046,0.28,-0.48,-0.01,0.04,0.15,0.98,
2.047,0.28,-0.48,-0.01,0.04,0.15,0.98,
2.047,0.40,-0.48,0.01,0.04,0.15,0.98,
2.049,0.40,-0.48,0.01,0.04,0.14,0.98,
2.052,0.40,-0.48,0.01,0.05,0.13,0.98,
2.052,0.50,-0.57,0.02,0.05,0.13,0.98,
2.054,0.50,-0.57,0.02,0.05,0.12,0.98,
2.057,0.50,-0.57,0.02,0.06,0.12,0.97,
2.058,0.58,-0.70,0.03,0.06,0.12,0.97,
2.059,0.58,-0.70,0.03,0.06,0.11,0.97,
2.062,0.66,-0.86,-0.01,0.06,0.11,0.97,
2.062,0.66,-0.86,-0.01,0.07,0.11,0.97,
2.064,0.66,-0.86,-0.01,0.07,0.10,0.96,
2.066,0.66,-0.86,-0.01,0.07,0.10,0.96,
2.067,0.73,-0.99,-0.07,0.07,0.10,0.96,
2.069,0.73,-0.99,-0.07,0.07,0.10,0.96,
2.071,0.73,-0.99,-0.07,0.08,0.10,0.95,
2.072,0.79,-1.03,-0.12,0.08,0.10,0.95,
2.074,0.79,-1.03,-0.12,0.08,0.11,0.95,
2.076,0.79,-1.03,-0.12,0.07,0.11,0.95,
2.077,0.84,-1.04,-0.20,0.07,0.11,0.95,
2.079,0.84,-1.04,-0.20,0.07,0.11,0.95,
2.081,0.84,-1.04,-0.20,0.06,0.11,0.95,
2.081,0.82,-1.02,-0.24,0.06,0.11,0.95,
2.083,0.82,-1.02,-0.24,0.05,0.12,0.95,
2.086,0.82,-1.02,-0.24,0.04,0.12,0.95,
2.086,0.70,-0.98,-0.25,0.04,0.12,0.95,
2.089,0.70,-0.98,-0.25,0.04,0.13,0.95,
2.095,0.70,-0.98,-0.25,0.03,0.13,0.95,
2.096,0.54,-0.89,-0.25,0.03,0.13,0.95,
2.096,0.54,-0.89,-0.25,0.02,0.14,0.95,
2.096,0.54,-0.89,-0.25,0.01,0.14,0.95,
2.097,0.38,-0.79,-0.21,0.01,0.14,0.95,
2.098,0.38,-0.79,-0.21,0.00,0.15,0.95,
2.101,0.38,-0.79,-0.21,-0.00,0.15,0.95,
2.101,0.23,-0.71,-0.19,-0.00,0.15,0.95,
2.103,0.23,-0.71,-0.19,-0.01,0.15,0.95,
2.11,0.23,-0.71,-0.19,-0.02,0.16,0.95,
2.11,0.07,-0.63,-0.18,-0.02,0.16,0.95,
2.11,0.07,-0.63,-0.18,-0.02,0.16,0.95,
2.111,0.07,-0.63,-0.18,-0.03,0.17,0.94,
2.111,-0.09,-0.55,-0.23,-0.03,0.17,0.94,
2.113,-0.09,-0.55,-0.23,-0.03,0.17,0.94,
2.115,-0.09,-0.55,-0.23,-0.04,0.18,0.93,
2.115,-0.19,-0.46,-0.26,-0.04,0.18,0.93,
2.118,-0.19,-0.46,-0.26,-0.04,0.18,0.93,
2.12,-0.19,-0.46,-0.26,-0.04,0.17,0.92,
2.12,-0.26,-0.39,-0.33,-0.04,0.17,0.92,
2.123,-0.26,-0.39,-0.33,-0.03,0.17,0.92,
2.125,-0.26,-0.39,-0.33,-0.03,0.17,0.91,
2.125,-0.27,-0.40,-0.42,-0.03,0.17,0.91,
2.128,-0.27,-0.40,-0.42,-0.02,0.17,0.91,
2.13,-0.27,-0.40,-0.42,-0.02,0.16,0.90,
2.131,-0.23,-0.47,-0.51,-0.02,0.16,0.90,
2.133,-0.23,-0.47,-0.51,-0.01,0.16,0.90,
2.135,-0.23,-0.47,-0.51,-0.00,0.15,0.90,
2.135,-0.13,-0.54,-0.61,-0.00,0.15,0.90,
2.137,-0.13,-0.54,-0.61,0.01,0.15,0.90,
2.14,-0.13,-0.54,-0.61,0.02,0.14,0.91,
2.141,0.00,-0.62,-0.65,0.02,0.14,0.91,
2.142,0.00,-0.62,-0.65,0.03,0.14,0.91,
2.145,0.00,-0.62,-0.65,0.03,0.13,0.91,
2.145,0.20,-0.72,-0.62,0.03,0.13,0.91,
2.147,0.20,-0.72,-0.62,0.03,0.12,0.92,
2.15,0.20,-0.72,-0.62,0.04,0.11,0.93,
2.15,0.34,-0.83,-0.54,0.04,0.11,0.93,
2.152,0.34,-0.83,-0.54,0.04,0.10,0.93,
2.155,0.34,-0.83,-0.54,0.04,0.10,0.94,
2.155,0.41,-0.97,-0.41,0.04,0.10,0.94,
2.157,0.41,-0.97,-0.41,0.05,0.09,0.94,
2.159,0.41,-0.97,-0.41,0.05,0.08,0.95,
2.16,0.44,-1.12,-0.28,0.05,0.08,0.95,
2.162,0.44,-1.12,-0.28,0.05,0.08,0.95,
2.164,0.44,-1.12,-0.28,0.06,0.08,0.96,
2.165,0.51,-1.24,-0.19,0.06,0.08,0.96,
2.167,0.51,-1.24,-0.19,0.06,0.08,0.96,
2.169,0.51,-1.24,-0.19,0.06,0.08,0.97,
2.17,0.58,-1.29,-0.11,0.06,0.08,0.97,
2.172,0.58,-1.29,-0.11,0.07,0.08,0.97,
2.175,0.58,-1.29,-0.11,0.06,0.09,0.97,
2.175,0.64,-1.28,-0.03,0.06,0.09,0.97,
2.177,0.64,-1.28,-0.03,0.06,0.09,0.98,
2.179,0.64,-1.28,-0.03,0.05,0.09,0.98,
2.18,0.64,-1.22,0.06,0.05,0.09,0.98,
2.181,0.64,-1.22,0.06,0.05,0.10,0.98,
2.184,0.64,-1.22,0.06,0.04,0.10,0.99,
2.187,0.56,-1.16,0.12,0.04,0.10,0.99,
2.187,0.56,-1.16,0.12,0.03,0.11,0.99,
2.197,0.56,-1.16,0.12,0.02,0.11,0.99,
2.197,0.43,-1.08,0.19,0.02,0.11,0.99,
2.198,0.43,-1.08,0.19,0.02,0.12,0.99,
2.198,0.43,-1.08,0.19,0.01,0.12,0.99,
2.198,0.27,-0.97,0.23,0.01,0.12,0.99,
2.198,0.27,-0.97,0.23,0.01,0.12,0.99,
2.199,0.27,-0.97,0.23,0.00,0.13,0.99,
2.199,0.12,-0.89,0.26,0.00,0.13,0.99,
2.201,0.12,-0.89,0.26,-0.00,0.13,0.98,
2.203,0.12,-0.89,0.26,-0.00,0.13,0.98,
2.204,0.02,-0.82,0.24,-0.00,0.13,0.98,
2.208,0.02,-0.82,0.24,-0.01,0.13,0.98,
2.209,-0.06,-0.79,0.16,-0.01,0.13,0.98,
2.21,-0.06,-0.79,0.16,-0.01,0.13,0.97,
2.211,-0.06,-0.79,0.16,-0.01,0.13,0.96,
2.213,-0.06,-0.79,0.16,-0.01,0.13,0.96,
2.213,-0.11,-0.77,0.06,-0.01,0.13,0.96,
2.216,-0.11,-0.77,0.06,-0.01,0.13,0.95,
2.218,-0.11,-0.77,0.06,-0.01,0.13,0.95,
2.218,-0.12,-0.78,-0.06,-0.01,0.13,0.95,
2.22,-0.12,-0.78,-0.06,-0.01,0.13,0.95,
2.223,-0.12,-0.78,-0.06,-0.01,0.13,0.94,
2.223,-0.12,-0.80,-0.14,-0.01,0.13,0.94,
2.226,-0.12,-0.80,-0.14,-0.01,0.12,0.94,
2.228,-0.12,-0.80,-0.14,-0.01,0.12,0.94,
2.228,-0.12,-0.82,-0.20,-0.01,0.12,0.94,
2.23,-0.12,-0.82,-0.20,-0.00,0.12,0.94,
2.233,-0.12,-0.82,-0.20,-0.00,0.11,0.94,
2.233,-0.09,-0.86,-0.25,-0.00,0.11,0.94,
2.235,-0.09,-0.86,-0.25,-0.01,0.11,0.94,
2.238,-0.09,-0.86,-0.25,-0.00,0.10,0.93,
2.238,-0.06,-0.94,-0.27,-0.00,0.10,0.93,
2.24,-0.06,-0.94,-0.27,0.00,0.10,0.93,
2.243,-0.06,-0.94,-0.27,0.00,0.10,0.93,
2.243,-0.07,-1.02,-0.29,0.00,0.10,0.93,
2.245,-0.07,-1.02,-0.29,0.00,0.10,0.93,
2.248,-0.07,-1.02,-0.29,0.00,0.10,0.93,
2.248,-0.01,-1.09,-0.32,0.00,0.10,0.93,
2.25,-0.01,-1.09,-0.32,0.00,0.10,0.92,
2.252,-0.01,-1.09,-0.32,0.00,0.10,0.92,
2.253,-0.00,-1.09,-0.36,0.00,0.10,0.92,
2.255,-0.00,-1.09,-0.36,-0.00,0.10,0.93,
2.258,-0.00,-1.09,-0.36,-0.00,0.10,0.93,
2.258,-0.02,-1.08,-0.38,-0.00,0.10,0.93,
2.26,-0.02,-1.08,-0.38,-0.00,0.10,0.93,
2.262,-0.02,-1.08,-0.38,-0.01,0.10,0.93,
2.263,-0.07,-1.05,-0.34,-0.01,0.10,0.93,
2.265,-0.07,-1.05,-0.34,-0.01,0.11,0.94,
2.267,-0.07,-1.05,-0.34,-0.02,0.11,0.94,
2.267,-0.13,-1.00,-0.29,-0.02,0.11,0.94,
2.27,-0.13,-1.00,-0.29,-0.03,0.12,0.95,
2.273,-0.13,-1.00,-0.29,-0.03,0.13,0.95,
2.274,-0.25,-0.91,-0.23,-0.03,0.13,0.95,
2.275,-0.25,-0.91,-0.23,-0.04,0.13,0.95,
2.277,-0.25,-0.91,-0.23,-0.05,0.14,0.96,
2.278,-0.40,-0.77,-0.15,-0.05,0.14,0.96,
2.279,-0.40,-0.77,-0.15,-0.05,0.14,0.96,
2.282,-0.40,-0.77,-0.15,-0.05,0.15,0.97,
2.282,-0.52,-0.64,-0.06,-0.05,0.15,0.97,
2.284,-0.52,-0.64,-0.06,-0.05,0.15,0.97,
2.287,-0.52,-0.64,-0.06,-0.06,0.15,0.97,
2.287,-0.59,-0.55,0.04,-0.06,0.15,0.97,
2.291,-0.59,-0.55,0.04,-0.05,0.15,0.97,
2.292,-0.64,-0.52,0.10,-0.05,0.15,0.97,
2.293,-0.64,-0.52,0.10,-0.05,0.14,0.97,
2.295,-0.64,-0.52,0.10,-0.05,0.14,0.97,
2.297,-0.64,-0.52,0.10,-0.04,0.14,0.97,
2.297,-0.61,-0.54,0.09,-0.04,0.14,0.97,
2.299,-0.61,-0.54,0.09,-0.03,0.13,0.97,
2.302,-0.61,-0.54,0.09,-0.03,0.13,0.96,
2.302,-0.53,-0.58,0.05,-0.03,0.13,0.96,
2.304,-0.53,-0.58,0.05,-0.02,0.13,0.96,
2.312,-0.53,-0.58,0.05,-0.02,0.12,0.95,
2.312,-0.40,-0.64,-0.00,-0.02,0.12,0.95,
2.313,-0.40,-0.64,-0.00,-0.02,0.12,0.95,
2.313,-0.40,-0.64,-0.00,-0.02,0.12,0.95,
2.313,-0.34,-0.69,-0.08,-0.02,0.12,0.95,
2.314,-0.34,-0.69,-0.08,-0.02,0.11,0.94,
2.316,-0.34,-0.69,-0.08,-0.02,0.11,0.94,
2.316,-0.31,-0.77,-0.14,-0.02,0.11,0.94,
2.318,-0.31,-0.77,-0.14,-0.02,0.11,0.94,
2.321,-0.32,-0.82,-0.18,-0.02,0.11,0.94,
2.321,-0.32,-0.82,-0.18,-0.03,0.11,0.94,
2.326,-0.32,-0.82,-0.18,-0.03,0.11,0.94,
2.326,-0.32,-0.82,-0.18,-0.04,0.11,0.94,
2.326,-0.35,-0.82,-0.20,-0.04,0.11,0.94,
2.328,-0.35,-0.82,-0.20,-0.04,0.12,0.94,
2.331,-0.35,-0.82,-0.20,-0.05,0.12,0.94,
2.331,-0.42,-0.79,-0.23,-0.05,0.12,0.94,
2.333,-0.42,-0.79,-0.23,-0.06,0.12,0.94,
2.336,-0.42,-0.79,-0.23,-0.06,0.13,0.94,
2.336,-0.53,-0.76,-0.26,-0.06,0.13,0.94,
2.338,-0.53,-0.76,-0.26,-0.07,0.13,0.94,
2.341,-0.53,-0.76,-0.26,-0.07,0.14,0.94,
2.341,-0.69,-0.70,-0.23,-0.07,0.14,0.94,
2.343,-0.69,-0.70,-0.23,-0.08,0.14,0.95,
2.346,-0.69,-0.70,-0.23,-0.09,0.15,0.95,
2.346,-0.79,-0.58,-0.17,-0.09,0.15,0.95,
2.348,-0.79,-0.58,-0.17,-0.09,0.15,0.95,
2.35,-0.79,-0.58,-0.17,-0.10,0.15,0.95,
2.351,-0.90,-0.48,-0.13,-0.10,0.15,0.95,
2.353,-0.90,-0.48,-0.13,-0.10,0.16,0.95,
2.356,-1.00,-0.41,-0.09,-0.10,0.16,0.95,
2.357,-1.00,-0.41,-0.09,-0.10,0.16,0.96,
2.358,-1.00,-0.41,-0.09,-0.10,0.16,0.96,
2.36,-1.00,-0.41,-0.09,-0.10,0.16,0.96,
2.361,-1.08,-0.34,-0.05,-0.10,0.16,0.96,
2.363,-1.08,-0.34,-0.05,-0.10,0.17,0.97,
2.365,-1.08,-0.34,-0.05,-0.09,0.17,0.97,
2.366,-1.06,-0.29,0.02,-0.09,0.17,0.97,
2.368,-1.06,-0.29,0.02,-0.08,0.17,0.97,
2.37,-1.06,-0.29,0.02,-0.08,0.17,0.97,
2.37,-0.97,-0.25,0.06,-0.08,0.17,0.97,
2.373,-0.97,-0.25,0.06,-0.08,0.17,0.97,
2.375,-0.97,-0.25,0.06,-0.07,0.17,0.97,
2.375,-0.86,-0.23,0.08,-0.07,0.17,0.97,
2.377,-0.86,-0.23,0.08,-0.07,0.16,0.97,
2.38,-0.78,-0.26,0.07,-0.07,0.16,0.97,
2.38,-0.78,-0.26,0.07,-0.07,0.16,0.97,
2.382,-0.78,-0.26,0.07,-0.07,0.16,0.97,
2.385,-0.78,-0.26,0.07,-0.08,0.16,0.97,
2.385,-0.76,-0.28,0.08,-0.08,0.16,0.97,
2.387,-0.76,-0.28,0.08,-0.08,0.16,0.97,
2.39,-0.76,-0.28,0.08,-0.08,0.16,0.97,
2.39,-0.79,-0.32,0.08,-0.08,0.16,0.97,
2.392,-0.79,-0.32,0.08,-0.08,0.16,0.97,
2.395,-0.79,-0.32,0.08,-0.09,0.16,0.96,
2.395,-0.85,-0.34,0.05,-0.09,0.16,0.96,
2.397,-0.85,-0.34,0.05,-0.09,0.16,0.96,
2.399,-0.85,-0.34,0.05,-0.09,0.16,0.96,
2.4,-0.90,-0.32,0.02,-0.09,0.16,0.96,
2.402,-0.90,-0.32,0.02,-0.10,0.16,0.95,
2.404,-0.95,-0.27,-0.04,-0.10,0.16,0.95,
2.405,-0.95,-0.27,-0.04,-0.10,0.17,0.95,
2.412,-0.95,-0.27,-0.04,-0.10,0.17,0.94,
2.412,-0.95,-0.27,-0.04,-0.11,0.17,0.94,
2.413,-1.02,-0.24,-0.13,-0.11,0.17,0.94,
2.413,-1.02,-0.24,-0.13,-0.11,0.17,0.93,
2.415,-1.02,-0.24,-0.13,-0.12,0.18,0.92,
2.415,-1.09,-0.19,-0.24,-0.12,0.18,0.92,
2.417,-1.09,-0.19,-0.24,-0.12,0.18,0.92,
2.419,-1.09,-0.19,-0.24,-0.12,0.18,0.92,
2.419,-1.19,-0.14,-0.34,-0.12,0.18,0.92,
2.422,-1.19,-0.14,-0.34,-0.12,0.18,0.92,
2.424,-1.19,-0.14,-0.34,-0.24,0.15,0.92,
2.424,-1.23,-0.05,-0.37,-0.24,0.15,0.92,
2.426,-1.23,-0.05,-0.37,-0.22,0.17,0.94,
2.429,-1.80,-0.17,-0.40,-0.22,0.17,0.94,
2.429,-1.80,-0.17,-0.40,-0.21,0.19,0.95,
2.431,-1.80,-0.17,-0.40,-0.20,0.20,0.94,
2.434,-1.80,-0.17,-0.40,-0.19,0.22,0.93,
2.434,-2.12,-0.07,-0.17,-0.19,0.22,0.93,
2.436,-2.12,-0.07,-0.17,-0.18,0.23,0.92,
2.439,-2.12,-0.07,-0.17,-0.17,0.21,0.90,
2.439,-1.93,0.23,-0.26,-0.17,0.21,0.90,
2.441,-1.93,0.23,-0.26,-0.20,0.13,0.93,
2.443,-1.93,0.23,-0.26,-0.22,0.13,0.96,
2.444,-1.75,0.34,-0.50,-0.22,0.13,0.96,
2.446,-1.75,0.34,-0.50,-0.22,0.16,0.96,
2.448,-1.75,0.34,-0.50,-0.22,0.17,0.95,
2.449,-2.05,-0.60,-0.18,-0.22,0.17,0.95,
2.451,-2.05,-0.60,-0.18,-0.23,0.19,0.94,
2.453,-2.05,-0.60,-0.18,-0.21,0.23,0.92,
2.454,-2.14,-0.19,-0.04,-0.21,0.23,0.92,
2.456,-2.14,-0.19,-0.04,-0.18,0.26,0.89,
2.458,-2.14,-0.19,-0.04,-0.15,0.27,0.87,
2.458,-2.09,0.22,-0.28,-0.15,0.27,0.87,
2.461,-2.09,0.22,-0.28,-0.14,0.26,0.87,
2.463,-2.09,0.22,-0.28,-0.16,0.24,0.87,
2.463,-1.58,0.75,-0.76,-0.16,0.24,0.87,
2.466,-1.58,0.75,-0.76,-0.18,0.22,0.88,
2.468,-1.58,0.75,-0.76,-0.20,0.19,0.89,
2.468,-1.45,0.65,-0.91,-0.20,0.19,0.89,
2.47,-1.45,0.65,-0.91,-0.21,0.17,0.91,
2.473,-1.81,0.18,-0.73,-0.21,0.17,0.91,
2.473,-1.81,0.18,-0.73,-0.22,0.15,0.93,
2.475,-1.81,0.18,-0.73,-0.22,0.15,0.94,
2.478,-1.81,0.18,-0.73,-0.20,0.15,0.95,
2.478,-2.11,-0.23,-0.40,-0.20,0.15,0.95,
2.48,-2.11,-0.23,-0.40,-0.18,0.16,0.96,
2.483,-2.11,-0.23,-0.40,-0.15,0.17,0.96,
2.483,-2.02,-0.34,-0.13,-0.15,0.17,0.96,
2.485,-2.02,-0.34,-0.13,-0.13,0.17,0.96,
2.488,-2.02,-0.34,-0.13,-0.11,0.17,0.96,
2.488,-1.56,-0.18,-0.04,-0.11,0.17,0.96,
2.495,-1.56,-0.18,-0.04,-0.11,0.17,0.96,
2.496,-1.56,-0.18,-0.04,-0.11,0.16,0.96,
2.496,-1.17,-0.09,-0.04,-0.11,0.16,0.96,
2.496,-1.17,-0.09,-0.04,-0.11,0.16,0.97,
2.497,-1.17,-0.09,-0.04,-0.11,0.16,0.97,
2.498,-1.02,-0.16,-0.02,-0.11,0.16,0.97,
2.5,-1.02,-0.16,-0.02,-0.11,0.16,0.97,
2.502,-1.02,-0.16,-0.02,-0.11,0.17,0.97,
2.502,-1.08,-0.24,0.08,-0.11,0.17,0.97,
2.505,-1.08,-0.24,0.08,-0.10,0.17,0.97,
2.509,-1.08,-0.24,0.08,-0.09,0.17,0.97,
2.51,-1.03,-0.16,0.09,-0.09,0.17,0.97,
2.51,-1.03,-0.16,0.09,-0.08,0.17,0.97,
2.512,-1.03,-0.16,0.09,-0.08,0.17,0.97,
2.513,-0.88,-0.10,0.10,-0.08,0.17,0.97,
2.514,-0.88,-0.10,0.10,-0.08,0.16,0.97,
2.517,-0.88,-0.10,0.10,-0.08,0.16,0.96,
2.517,-0.74,-0.10,0.10,-0.08,0.16,0.96,
2.519,-0.74,-0.10,0.10,-0.07,0.16,0.95,
2.522,-0.74,-0.10,0.10,-0.06,0.15,0.94,
2.522,-0.72,-0.18,0.03,-0.06,0.15,0.94,
2.524,-0.72,-0.18,0.03,-0.06,0.15,0.94,
2.527,-0.72,-0.18,0.03,-0.05,0.15,0.94,
2.527,-0.61,-0.25,-0.14,-0.05,0.15,0.94,
2.529,-0.61,-0.25,-0.14,-0.05,0.15,0.94,
2.532,-0.61,-0.25,-0.14,-0.04,0.15,0.95,
2.532,-0.47,-0.27,-0.22,-0.04,0.15,0.95,
2.534,-0.47,-0.27,-0.22,-0.04,0.15,0.95,
2.536,-0.47,-0.27,-0.22,-0.04,0.15,0.96,
2.537,-0.36,-0.27,-0.17,-0.04,0.15,0.96,
2.539,-0.36,-0.27,-0.17,-0.04,0.15,0.96,
2.542,-0.36,-0.27,-0.17,-0.05,0.15,0.97,
2.542,-0.34,-0.26,-0.06,-0.05,0.15,0.97,
2.544,-0.34,-0.26,-0.06,-0.04,0.15,0.97,
2.546,-0.34,-0.26,-0.06,-0.05,0.15,0.98,
2.546,-0.34,-0.27,0.04,-0.05,0.15,0.98,
2.549,-0.34,-0.27,0.04,-0.05,0.15,0.98,
2.551,-0.34,-0.27,0.04,-0.05,0.16,0.98,
2.552,-0.34,-0.27,0.13,-0.05,0.16,0.98,
2.554,-0.34,-0.27,0.13,-0.04,0.16,0.99,
2.556,-0.34,-0.27,0.13,-0.04,0.16,0.99,
2.557,-0.33,-0.24,0.21,-0.04,0.16,0.99,
2.558,-0.33,-0.24,0.21,-0.04,0.16,1.00,
2.561,-0.33,-0.24,0.21,-0.04,0.16,1.00,
2.561,-0.27,-0.19,0.29,-0.04,0.16,1.00,
2.563,-0.27,-0.19,0.29,-0.04,0.16,1.01,
2.566,-0.27,-0.19,0.29,-0.03,0.16,1.01,
2.566,-0.23,-0.19,0.38,-0.03,0.16,1.01,
2.569,-0.23,-0.19,0.38,-0.03,0.15,1.01,
2.571,-0.23,-0.19,0.38,-0.03,0.15,1.01,
2.571,-0.21,-0.20,0.45,-0.03,0.15,1.01,
2.573,-0.21,-0.20,0.45,-0.03,0.15,1.01,
2.576,-0.21,-0.20,0.45,-0.02,0.14,1.01,
2.576,-0.15,-0.28,0.51,-0.02,0.14,1.01,
2.578,-0.15,-0.28,0.51,-0.02,0.14,1.01,
2.581,-0.15,-0.28,0.51,-0.02,0.14,1.01,
2.581,-0.10,-0.33,0.51,-0.02,0.14,1.01,
2.583,-0.10,-0.33,0.51,-0.01,0.14,1.02,
2.586,-0.10,-0.33,0.51,-0.01,0.15,1.02,
2.586,-0.02,-0.35,0.51,-0.01,0.15,1.02,
2.594,-0.02,-0.35,0.51,-0.01,0.15,1.02,
2.595,-0.02,-0.35,0.51,-0.01,0.15,1.02,
2.595,0.03,-0.31,0.54,-0.01,0.15,1.02,
2.596,0.03,-0.31,0.54,-0.01,0.15,1.03,
2.596,0.03,-0.31,0.54,-0.01,0.15,1.03,
2.596,0.08,-0.26,0.58,-0.01,0.15,1.03,
2.598,0.08,-0.26,0.58,-0.01,0.15,1.03,
2.6,0.08,-0.26,0.58,-0.01,0.15,1.03,
2.601,0.09,-0.23,0.63,-0.01,0.15,1.03,
2.603,0.09,-0.23,0.63,-0.01,0.15,1.03,
2.608,0.09,-0.23,0.63,-0.01,0.15,1.02,
2.609,0.04,-0.23,0.62,-0.01,0.15,1.02,
2.609,0.04,-0.23,0.62,-0.01,0.15,1.02,
2.61,0.04,-0.23,0.62,-0.02,0.16,1.02,
2.61,-0.00,-0.24,0.58,-0.02,0.16,1.02,
2.612,-0.00,-0.24,0.58,-0.02,0.16,1.01,
2.615,-0.00,-0.24,0.58,-0.02,0.16,1.00,
2.615,-0.01,-0.20,0.52,-0.02,0.16,1.00,
2.617,-0.01,-0.20,0.52,-0.02,0.16,1.00,
2.62,-0.01,-0.20,0.52,-0.02,0.17,0.99,
2.62,-0.03,-0.14,0.42,-0.02,0.17,0.99,
2.622,-0.03,-0.14,0.42,-0.02,0.17,0.98,
2.625,-0.03,-0.14,0.42,-0.01,0.17,0.97,
2.625,-0.05,-0.09,0.29,-0.01,0.17,0.97,
2.627,-0.05,-0.09,0.29,-0.01,0.17,0.97,
2.63,-0.05,-0.09,0.29,-0.00,0.17,0.96,
2.63,-0.04,-0.07,0.13,-0.00,0.17,0.96,
2.632,-0.04,-0.07,0.13,-0.00,0.17,0.95,
2.634,-0.04,-0.07,0.13,-0.00,0.18,0.95,
2.635,0.02,-0.04,-0.00,-0.00,0.18,0.95,
2.637,0.02,-0.04,-0.00,0.00,0.18,0.94,
2.639,0.02,-0.04,-0.00,0.00,0.18,0.94,
2.64,0.09,0.01,-0.14,0.00,0.18,0.94,
2.642,0.09,0.01,-0.14,0.00,0.19,0.94,
2.644,0.09,0.01,-0.14,0.00,0.19,0.94,
2.645,0.12,0.09,-0.20,0.00,0.19,0.94,
2.647,0.12,0.09,-0.20,-0.00,0.19,0.94,
2.649,0.12,0.09,-0.20,-0.01,0.19,0.95,
2.649,0.13,0.14,-0.21,-0.01,0.19,0.95,
2.651,0.13,0.14,-0.21,-0.01,0.20,0.95,
2.655,0.13,0.14,-0.21,-0.02,0.19,0.96,
2.656,0.07,0.19,-0.19,-0.02,0.19,0.96,
2.656,0.07,0.19,-0.19,-0.02,0.20,0.97,
2.659,0.07,0.19,-0.19,-0.03,0.20,0.97,
2.659,-0.04,0.21,-0.09,-0.03,0.20,0.97,
2.661,-0.04,0.21,-0.09,-0.03,0.20,0.98,
2.664,-0.04,0.21,-0.09,-0.03,0.20,0.99,
2.664,-0.13,0.22,0.06,-0.03,0.20,0.99,
2.666,-0.13,0.22,0.06,-0.03,0.20,1.00,
2.669,-0.13,0.22,0.06,-0.03,0.19,1.00,
2.669,-0.16,0.23,0.18,-0.03,0.19,1.00,
2.672,-0.16,0.23,0.18,-0.03,0.19,1.01,
2.674,-0.16,0.23,0.18,-0.03,0.18,1.01,
2.676,-0.19,0.21,0.34,-0.03,0.18,1.01,
2.677,-0.19,0.21,0.34,-0.03,0.18,1.01,
2.679,-0.19,0.21,0.34,-0.03,0.17,1.01,
2.679,-0.17,0.12,0.41,-0.03,0.17,1.01,
2.681,-0.17,0.12,0.41,-0.02,0.17,1.01,
2.683,-0.17,0.12,0.41,-0.02,0.16,1.02,
2.684,-0.13,-0.00,0.44,-0.02,0.16,1.02,
2.686,-0.13,-0.00,0.44,-0.01,0.16,1.02,
2.689,-0.13,-0.00,0.44,-0.01,0.16,1.01,
2.689,-0.03,-0.08,0.49,-0.01,0.16,1.01,
2.691,-0.03,-0.08,0.49,0.00,0.16,1.01,
2.693,-0.03,-0.08,0.49,0.00,0.16,1.01,
2.694,0.07,-0.16,0.49,0.00,0.16,1.01,
2.696,0.07,-0.16,0.49,0.00,0.15,1.00,
2.698,0.07,-0.16,0.49,0.01,0.15,1.00,
2.698,0.17,-0.18,0.42,0.01,0.15,1.00,
2.7,0.17,-0.18,0.42,0.01,0.15,0.99,
2.703,0.17,-0.18,0.42,0.01,0.16,0.99,
2.704,0.21,-0.20,0.34,0.01,0.16,0.99,
2.711,0.21,-0.20,0.34,0.01,0.16,0.98,
2.711,0.21,-0.20,0.34,0.01,0.16,0.97,
2.712,0.26,-0.17,0.22,0.01,0.16,0.97,
2.712,0.26,-0.17,0.22,0.01,0.16,0.97,
2.713,0.26,-0.17,0.22,0.00,0.17,0.96,
2.714,0.24,-0.13,0.10,0.00,0.17,0.96,
2.715,0.24,-0.13,0.10,0.00,0.17,0.96,
2.718,0.24,-0.13,0.10,0.00,0.18,0.96,
2.718,0.18,-0.09,-0.02,0.00,0.18,0.96,
2.72,0.18,-0.09,-0.02,0.00,0.18,0.96,
2.727,0.18,-0.09,-0.02,-0.00,0.18,0.96,
2.728,0.14,-0.01,-0.07,-0.00,0.18,0.96,
2.728,0.14,-0.01,-0.07,-0.01,0.19,0.96,
2.728,0.14,-0.01,-0.07,-0.01,0.19,0.96,
2.729,0.11,0.08,-0.11,-0.01,0.19,0.96,
2.73,0.11,0.08,-0.11,-0.01,0.19,0.96,
2.732,0.11,0.08,-0.11,-0.01,0.19,0.96,
2.733,0.07,0.14,-0.10,-0.01,0.19,0.96,
2.735,0.07,0.14,-0.10,-0.01,0.20,0.96,
2.738,0.07,0.14,-0.10,-0.01,0.20,0.96,
2.738,0.04,0.18,-0.09,-0.01,0.20,0.96,
2.74,0.04,0.18,-0.09,-0.01,0.20,0.96,
2.742,0.04,0.18,-0.09,-0.01,0.20,0.96,
2.742,0.03,0.23,-0.07,-0.01,0.20,0.96,
2.745,0.03,0.23,-0.07,-0.01,0.20,0.97,
2.747,0.03,0.23,-0.07,-0.01,0.20,0.97,
2.748,0.05,0.24,-0.03,-0.01,0.20,0.97,
2.75,0.05,0.24,-0.03,-0.01,0.20,0.97,
2.752,0.05,0.24,-0.03,-0.01,0.19,0.98,
2.752,0.06,0.25,0.02,-0.01,0.19,0.98,
2.755,0.06,0.25,0.02,-0.01,0.19,0.97,
2.757,0.06,0.25,0.02,-0.01,0.19,0.97,
2.758,0.08,0.20,0.07,-0.01,0.19,0.97,
2.759,0.08,0.20,0.07,-0.01,0.19,0.97,
2.762,0.09,0.16,0.06,-0.01,0.19,0.97,
2.762,0.09,0.16,0.06,-0.00,0.19,0.97,
2.764,0.09,0.16,0.06,-0.00,0.18,0.97,
2.767,0.09,0.16,0.06,-0.00,0.18,0.97,
2.767,0.10,0.13,0.06,-0.00,0.18,0.97,
2.769,0.10,0.13,0.06,-0.00,0.18,0.98,
2.772,0.10,0.13,0.06,-0.00,0.18,0.97,
2.772,0.12,0.09,0.08,-0.00,0.18,0.97,
2.774,0.12,0.09,0.08,-0.01,0.18,0.97,
2.777,0.12,0.09,0.08,-0.01,0.18,0.97,
2.777,0.11,0.07,0.08,-0.01,0.18,0.97,
2.779,0.11,0.07,0.08,-0.01,0.18,0.97,
2.781,0.11,0.07,0.08,-0.01,0.18,0.97,
2.782,0.08,0.06,0.05,-0.01,0.18,0.97,
2.784,0.08,0.06,0.05,-0.01,0.18,0.97,
2.786,0.08,0.06,0.05,-0.01,0.18,0.97,
2.787,0.07,0.05,0.06,-0.01,0.18,0.97,
2.789,0.07,0.05,0.06,-0.01,0.18,0.98,
2.791,0.07,0.05,0.06,-0.01,0.18,0.97,
2.792,0.06,0.05,0.05,-0.01,0.18,0.97,
2.794,0.06,0.05,0.05,-0.01,0.18,0.97,
2.796,0.06,0.05,0.05,-0.01,0.18,0.97,
2.796,0.08,0.08,0.07,-0.01,0.18,0.97,
2.798,0.08,0.08,0.07,-0.00,0.18,0.97,
2.801,0.08,0.08,0.07,-0.00,0.18,0.96,
2.801,0.10,0.09,0.03,-0.00,0.18,0.96,
2.803,0.10,0.09,0.03,-0.00,0.18,0.96,
2.811,0.10,0.09,0.03,0.00,0.18,0.96,
2.811,0.12,0.04,-0.03,0.00,0.18,0.96,
2.811,0.12,0.04,-0.03,0.01,0.18,0.96,
2.812,0.12,0.04,-0.03,0.00,0.18,0.97,
2.812,0.16,0.03,-0.05,0.00,0.18,0.97,
2.813,0.16,0.03,-0.05,0.01,0.18,0.97,
2.816,0.16,0.03,-0.05,0.01,0.18,0.97,
2.816,0.21,0.04,-0.02,0.01,0.18,0.97,
2.818,0.21,0.04,-0.02,0.01,0.18,0.98,
2.822,0.21,0.04,-0.02,0.00,0.18,0.98,
2.823,0.23,0.06,0.04,0.00,0.18,0.98,
2.823,0.23,0.06,0.04,0.00,0.18,0.98,
2.826,0.22,0.07,0.13,0.00,0.18,0.98,
2.826,0.22,0.07,0.13,0.00,0.18,0.99,
2.828,0.22,0.07,0.13,0.00,0.18,0.99,
2.83,0.22,0.07,0.13,0.00,0.18,0.99,
2.83,0.21,0.08,0.17,0.00,0.18,0.99,
2.833,0.21,0.08,0.17,0.00,0.18,0.99,
2.835,0.21,0.08,0.17,0.00,0.18,0.99,
2.835,0.19,0.04,0.22,0.00,0.18,0.99,
2.838,0.19,0.04,0.22,-0.00,0.18,0.99,
2.84,0.19,0.04,0.22,-0.00,0.19,0.99,
2.84,0.20,0.07,0.22,-0.00,0.19,0.99,
2.843,0.20,0.07,0.22,-0.01,0.19,0.99,
2.845,0.20,0.07,0.22,-0.01,0.19,0.99,
2.845,0.18,0.09,0.22,-0.01,0.19,0.99,
2.847,0.18,0.09,0.22,-0.02,0.19,0.99,
2.85,0.18,0.09,0.22,-0.02,0.19,0.99,
2.85,0.11,0.10,0.21,-0.02,0.19,0.99,
2.852,0.11,0.10,0.21,-0.03,0.19,0.99,
2.855,0.11,0.10,0.21,-0.04,0.19,0.99,
2.855,0.01,0.09,0.20,-0.04,0.19,0.99,
2.857,0.01,0.09,0.20,-0.04,0.19,0.98,
2.86,0.01,0.09,0.20,-0.05,0.20,0.98,
2.861,-0.14,0.11,0.18,-0.05,0.20,0.98,
2.862,-0.14,0.11,0.18,-0.05,0.20,0.98,
2.864,-0.14,0.11,0.18,-0.05,0.20,0.98,
2.865,-0.22,0.18,0.15,-0.05,0.20,0.98,
2.867,-0.22,0.18,0.15,-0.05,0.21,0.98,
2.87,-0.22,0.18,0.15,-0.05,0.21,0.97,
2.87,-0.25,0.25,0.13,-0.05,0.21,0.97,
2.872,-0.25,0.25,0.13,-0.05,0.21,0.97,
2.875,-0.23,0.30,0.08,-0.05,0.21,0.97,
2.875,-0.23,0.30,0.08,-0.05,0.21,0.97,
2.877,-0.23,0.30,0.08,-0.05,0.21,0.97,
2.879,-0.23,0.30,0.08,-0.05,0.21,0.96,
2.88,-0.22,0.30,0.03,-0.05,0.21,0.96,
2.882,-0.22,0.30,0.03,-0.04,0.20,0.96,
2.884,-0.22,0.30,0.03,-0.04,0.20,0.96,
2.885,-0.20,0.26,-0.03,-0.04,0.20,0.96,
2.887,-0.20,0.26,-0.03,-0.04,0.20,0.96,
2.894,-0.20,0.26,-0.03,-0.03,0.20,0.96,
2.894,-0.18,0.23,-0.07,-0.03,0.20,0.96,
2.894,-0.18,0.23,-0.07,-0.02,0.20,0.96,
2.895,-0.18,0.23,-0.07,-0.02,0.20,0.96,
2.895,-0.09,0.21,-0.10,-0.02,0.20,0.96,
2.896,-0.09,0.21,-0.10,-0.01,0.20,0.96,
2.9,-0.09,0.21,-0.10,-0.01,0.20,0.96,
2.901,0.05,0.20,-0.11,-0.01,0.20,0.96,
2.901,0.05,0.20,-0.11,0.00,0.20,0.96,
2.909,0.05,0.20,-0.11,0.00,0.19,0.96,
2.91,0.15,0.17,-0.12,0.00,0.19,0.96,
2.91,0.15,0.17,-0.12,0.01,0.19,0.97,
2.91,0.15,0.17,-0.12,0.01,0.19,0.97,
2.91,0.26,0.13,-0.08,0.01,0.19,0.97,
2.911,0.26,0.13,-0.08,0.01,0.19,0.97,
2.914,0.26,0.13,-0.08,0.01,0.18,0.97,
2.914,0.32,0.08,-0.00,0.01,0.18,0.97,
2.916,0.32,0.08,-0.00,0.01,0.18,0.97,
2.918,0.32,0.08,-0.00,0.01,0.18,0.97,
2.919,0.34,0.04,0.02,0.01,0.18,0.97,
2.921,0.34,0.04,0.02,0.01,0.18,0.98,
2.923,0.34,0.04,0.02,0.01,0.18,0.98,
2.923,0.36,-0.00,0.06,0.01,0.18,0.98,
2.926,0.36,-0.00,0.06,0.00,0.18,0.98,
2.929,0.36,-0.00,0.06,-0.00,0.18,0.98,
2.929,0.31,-0.02,0.09,-0.00,0.18,0.98,
2.931,0.31,-0.02,0.09,-0.01,0.18,0.98,
2.933,0.31,-0.02,0.09,-0.02,0.18,0.98,
2.934,0.22,-0.03,0.09,-0.02,0.18,0.98,
2.936,0.22,-0.03,0.09,-0.03,0.18,0.99,
2.938,0.22,-0.03,0.09,-0.03,0.18,0.98,
2.939,0.10,-0.02,0.12,-0.03,0.18,0.98,
2.941,0.10,-0.02,0.12,-0.04,0.18,0.97,
2.943,-0.05,-0.00,0.17,-0.04,0.18,0.97,
2.943,-0.05,-0.00,0.17,-0.05,0.17,0.92,
2.945,-0.05,-0.00,0.17,-0.05,0.17,0.88,
2.948,-0.05,-0.00,0.17,-0.05,0.18,0.89,
2.948,-0.18,-0.04,-0.23,-0.05,0.18,0.89,
2.95,-0.18,-0.04,-0.23,-0.05,0.18,0.92,
2.953,-0.18,-0.04,-0.23,-0.06,0.18,0.94,
2.953,-0.19,-0.03,-0.80,-0.06,0.18,0.94,
2.955,-0.19,-0.03,-0.80,-0.07,0.18,0.95,
2.958,-0.19,-0.03,-0.80,-0.07,0.17,0.96,
2.958,-0.26,0.01,-0.35,-0.07,0.17,0.96,
2.96,-0.26,0.01,-0.35,-0.07,0.17,0.95,
2.963,-0.26,0.01,-0.35,-0.07,0.17,0.95,
2.963,-0.42,-0.08,-0.10,-0.07,0.17,0.95,
2.965,-0.42,-0.08,-0.10,-0.07,0.16,0.95,
2.967,-0.42,-0.08,-0.10,-0.06,0.17,0.95,
2.968,-0.41,-0.15,-0.13,-0.06,0.17,0.95,
2.97,-0.41,-0.15,-0.13,-0.05,0.17,0.95,
2.972,-0.41,-0.15,-0.13,-0.05,0.16,0.96,
2.973,-0.31,-0.16,-0.16,-0.05,0.16,0.96,
2.975,-0.31,-0.16,-0.16,-0.04,0.16,0.96,
2.977,-0.31,-0.16,-0.16,-0.03,0.16,0.97,
2.977,-0.17,-0.17,-0.09,-0.03,0.16,0.97,
2.98,-0.17,-0.17,-0.09,-0.02,0.16,0.97,
2.982,-0.17,-0.17,-0.09,-0.01,0.16,0.97,
2.982,-0.03,-0.22,-0.00,-0.01,0.16,0.97,
2.984,-0.03,-0.22,-0.00,-0.01,0.15,0.97,
2.992,-0.03,-0.22,-0.00,0.00,0.15,0.97,
2.993,0.12,-0.26,0.06,0.00,0.15,0.97,
2.993,0.12,-0.26,0.06,0.01,0.15,0.97,
2.993,0.12,-0.26,0.06,0.01,0.15,0.97,
2.993,0.27,-0.30,0.05,0.01,0.15,0.97,
2.994,0.27,-0.30,0.05,0.02,0.15,0.97,
2.997,0.27,-0.30,0.05,0.02,0.15,0.97,
2.997,0.40,-0.28,0.06,0.02,0.15,0.97,
2.999,0.40,-0.28,0.06,0.02,0.15,0.97,
3.002,0.48,-0.27,0.06,0.02,0.15,0.97,
3.002,0.48,-0.27,0.06,0.02,0.15,0.97,
3.004,0.48,-0.27,0.06,0.03,0.16,0.96,
3.007,0.48,-0.27,0.06,0.02,0.16,0.96,
3.007,0.52,-0.28,0.00,0.02,0.16,0.96,
3.009,0.52,-0.28,0.00,0.02,0.16,0.97,
3.011,0.52,-0.28,0.00,0.02,0.16,0.97,
3.011,0.52,-0.24,-0.02,0.02,0.16,0.97,
3.014,0.52,-0.24,-0.02,0.01,0.17,0.97,
3.016,0.52,-0.24,-0.02,0.01,0.17,0.97,
3.016,0.45,-0.18,0.00,0.01,0.17,0.97,
3.019,0.45,-0.18,0.00,0.00,0.17,0.97,
