
time,ax,ay,az,gFx,gFy,gFz,
0.002,-0.20,0.11,0.14,-0.07,0.03,0.99,
0.002,-0.20,0.11,0.14,-0.07,0.03,0.99,
0.002,-0.29,0.14,0.12,-0.07,0.03,0.99,
0.003,-0.29,0.14,0.12,-0.07,0.03,0.99,
0.005,-0.29,0.14,0.12,-0.07,0.03,0.99,
0.005,-0.33,0.14,0.09,-0.07,0.03,0.99,
0.007,-0.33,0.14,0.09,-0.07,0.03,0.99,
0.009,-0.33,0.14,0.09,-0.07,0.03,0.99,
0.01,-0.35,0.14,0.06,-0.07,0.03,0.99,
0.012,-0.35,0.14,0.06,-0.06,0.03,0.98,
0.014,-0.35,0.14,0.06,-0.06,0.03,0.98,
0.015,-0.31,0.12,0.05,-0.06,0.03,0.98,
0.017,-0.31,0.12,0.05,-0.05,0.03,0.98,
0.019,-0.31,0.12,0.05,-0.05,0.03,0.98,
0.019,-0.24,0.12,0.02,-0.05,0.03,0.98,
0.022,-0.24,0.12,0.02,-0.05,0.02,0.98,
0.024,-0.24,0.12,0.02,-0.05,0.01,0.98,
0.024,-0.15,0.12,0.01,-0.05,0.01,0.98,
0.027,-0.15,0.12,0.01,-0.05,0.01,0.98,
0.029,-0.15,0.12,0.01,-0.05,0.01,0.98,
0.03,-0.14,-0.00,-0.01,-0.05,0.01,0.98,
0.032,-0.14,-0.00,-0.01,-0.04,0.02,0.98,
0.034,-0.14,-0.00,-0.01,-0.03,0.02,0.97,
0.034,-0.11,-0.06,-0.03,-0.03,0.02,0.97,
0.036,-0.11,-0.06,-0.03,-0.03,0.03,0.97,
0.039,-0.11,-0.06,-0.03,-0.03,0.03,0.97,
0.039,0.02,0.06,-0.06,-0.03,0.03,0.97,
0.042,0.02,0.06,-0.06,-0.03,0.02,0.97,
0.044,0.02,0.06,-0.06,-0.02,0.02,0.97,
0.044,0.07,0.10,-0.08,-0.02,0.02,0.97,
0.046,0.07,0.10,-0.08,-0.02,0.02,0.97,
0.049,0.07,0.10,-0.08,-0.03,0.02,0.97,
0.049,0.09,0.06,-0.11,-0.03,0.02,0.97,
0.051,0.09,0.06,-0.11,-0.03,0.02,0.97,
0.054,0.09,0.06,-0.11,-0.03,0.02,0.97,
0.054,0.08,0.06,-0.11,-0.03,0.02,0.97,
0.056,0.08,0.06,-0.11,-0.03,0.02,0.97,
0.059,0.08,0.06,-0.11,-0.03,0.02,0.97,
0.059,0.05,0.08,-0.10,-0.03,0.02,0.97,
0.061,0.05,0.08,-0.10,-0.03,0.02,0.97,
0.065,0.05,0.08,-0.10,-0.03,0.02,0.97,
0.065,0.04,0.07,-0.10,-0.03,0.02,0.97,
0.066,0.04,0.07,-0.10,-0.03,0.02,0.97,
0.068,0.04,0.07,-0.10,-0.03,0.02,0.97,
0.069,0.05,0.06,-0.09,-0.03,0.02,0.97,
0.071,0.05,0.06,-0.09,-0.03,0.02,0.98,
0.073,0.05,0.06,-0.09,-0.03,0.03,0.98,
0.073,0.02,0.04,-0.10,-0.03,0.03,0.98,
0.076,0.02,0.04,-0.10,-0.04,0.02,0.97,
0.079,0.02,0.04,-0.10,-0.04,0.02,0.97,
0.079,0.02,0.09,-0.05,-0.04,0.02,0.97,
0.081,0.02,0.09,-0.05,-0.04,0.01,0.97,
0.083,0.02,0.09,-0.05,-0.04,0.01,0.97,
0.083,-0.06,0.03,-0.07,-0.04,0.01,0.97,
0.085,-0.06,0.03,-0.07,-0.04,0.01,0.97,
0.088,-0.06,0.03,-0.07,-0.03,0.01,0.97,
0.088,-0.10,-0.02,-0.06,-0.03,0.01,0.97,
0.09,-0.10,-0.02,-0.06,-0.03,0.01,0.98,
0.093,-0.10,-0.02,-0.06,-0.03,0.02,0.98,
0.093,-0.04,-0.03,-0.06,-0.03,0.02,0.98,
0.095,-0.04,-0.03,-0.06,-0.03,0.01,0.98,
0.098,-0.04,-0.03,-0.06,-0.03,0.01,0.98,
0.098,0.00,-0.01,-0.03,-0.03,0.01,0.98,
0.1,0.00,-0.01,-0.03,-0.02,0.01,0.98,
0.103,0.00,-0.01,-0.03,-0.02,0.00,0.98,
0.103,0.04,-0.05,-0.02,-0.02,0.00,0.98,
0.105,0.04,-0.05,-0.02,-0.02,0.00,0.98,
0.107,0.04,-0.05,-0.02,-0.02,0.00,0.98,
0.108,0.08,-0.09,-0.04,-0.02,0.00,0.98,
0.11,0.08,-0.09,-0.04,-0.01,0.00,0.98,
0.112,0.08,-0.09,-0.04,-0.01,0.01,0.98,
0.113,0.12,-0.12,-0.04,-0.01,0.01,0.98,
0.115,0.12,-0.12,-0.04,-0.00,0.01,0.98,
0.117,0.12,-0.12,-0.04,-0.00,0.01,0.98,
0.118,0.21,-0.09,-0.03,-0.00,0.01,0.98,
0.12,0.21,-0.09,-0.03,-0.00,0.01,0.98,
0.122,0.21,-0.09,-0.03,-0.00,0.00,0.98,
0.122,0.27,-0.07,-0.04,-0.00,0.00,0.98,
0.125,0.27,-0.07,-0.04,-0.00,0.00,0.98,
0.127,0.27,-0.07,-0.04,-0.01,0.00,0.98,
0.127,0.27,-0.09,-0.03,-0.01,0.00,0.98,
0.129,0.27,-0.09,-0.03,-0.01,0.00,0.98,
0.132,0.27,-0.09,-0.03,-0.01,0.00,0.98,
0.132,0.23,-0.11,0.01,-0.01,0.00,0.98,
0.134,0.23,-0.11,0.01,-0.01,-0.00,0.98,
0.137,0.23,-0.11,0.01,-0.01,-0.00,0.99,
0.137,0.17,-0.11,0.03,-0.01,-0.00,0.99,
0.139,0.17,-0.11,0.03,-0.02,-0.00,0.99,
0.142,0.17,-0.11,0.03,-0.02,-0.00,0.99,
0.142,0.15,-0.14,0.04,-0.02,-0.00,0.99,
0.145,0.15,-0.14,0.04,-0.02,0.00,0.99,
0.147,0.15,-0.14,0.04,-0.02,0.00,0.99,
0.147,0.12,-0.15,0.07,-0.02,0.00,0.99,
0.149,0.12,-0.15,0.07,-0.02,0.00,0.99,
0.152,0.09,-0.11,0.09,-0.02,0.00,0.99,
0.152,0.09,-0.11,0.09,-0.02,0.01,1.00,
0.154,0.09,-0.11,0.09,-0.02,0.01,1.00,
0.156,0.09,-0.11,0.09,-0.02,0.01,1.00,
0.157,0.08,-0.08,0.13,-0.02,0.01,1.00,
0.159,0.08,-0.08,0.13,-0.02,0.01,1.00,
0.162,0.08,-0.08,0.13,-0.02,0.01,1.00,
0.162,0.07,-0.04,0.17,-0.02,0.01,1.00,
0.164,0.07,-0.04,0.17,-0.02,0.01,1.01,
0.166,0.07,-0.04,0.17,-0.02,0.01,1.01,
0.166,0.06,-0.01,0.21,-0.02,0.01,1.01,
0.169,0.06,-0.01,0.21,-0.03,0.02,1.01,
0.171,0.06,-0.01,0.21,-0.03,0.02,1.01,
0.171,0.04,0.01,0.24,-0.03,0.02,1.01,
0.174,0.04,0.01,0.24,-0.03,0.02,1.01,
0.176,0.04,0.01,0.24,-0.02,0.02,1.01,
0.176,0.03,0.05,0.25,-0.02,0.02,1.01,
0.181,0.03,0.05,0.25,-0.03,0.02,1.01,
0.181,0.03,0.05,0.25,-0.03,0.02,1.01,
0.182,0.03,0.10,0.25,-0.03,0.02,1.01,
0.183,0.03,0.10,0.25,-0.03,0.02,1.00,
0.186,0.03,0.10,0.25,-0.03,0.02,1.00,
0.186,0.01,0.09,0.24,-0.03,0.02,1.00,
0.188,0.01,0.09,0.24,-0.03,0.02,1.00,
0.191,0.01,0.09,0.24,-0.03,0.02,1.00,
0.191,-0.00,0.10,0.21,-0.03,0.02,1.00,
0.193,-0.00,0.10,0.21,-0.03,0.02,1.00,
0.196,-0.00,0.10,0.21,-0.03,0.02,1.00,
0.196,-0.03,0.09,0.19,-0.03,0.02,1.00,
0.198,-0.03,0.09,0.19,-0.03,0.02,0.99,
0.201,-0.03,0.09,0.19,-0.03,0.02,0.99,
0.201,-0.05,0.08,0.14,-0.03,0.02,0.99,
0.203,-0.05,0.08,0.14,-0.03,0.02,0.99,
0.205,-0.05,0.08,0.14,-0.03,0.02,0.99,
0.206,-0.05,0.08,0.09,-0.03,0.02,0.99,
0.208,-0.05,0.08,0.09,-0.03,0.02,0.98,
0.21,-0.05,0.08,0.09,-0.03,0.02,0.98,
0.211,-0.06,0.07,0.05,-0.03,0.02,0.98,
0.213,-0.06,0.07,0.05,-0.03,0.02,0.98,
0.215,-0.06,0.07,0.05,-0.03,0.01,0.98,
0.216,-0.05,0.03,-0.01,-0.03,0.01,0.98,
0.218,-0.05,0.03,-0.01,-0.03,0.01,0.97,
0.22,-0.05,0.03,-0.01,-0.03,0.01,0.97,
0.22,-0.03,0.01,-0.06,-0.03,0.01,0.97,
0.223,-0.03,0.01,-0.06,-0.03,0.01,0.97,
0.225,-0.03,0.01,-0.06,-0.03,0.01,0.97,
0.225,-0.01,-0.02,-0.11,-0.03,0.01,0.97,
0.228,-0.01,-0.02,-0.11,-0.03,0.01,0.97,
0.23,-0.01,-0.02,-0.11,-0.02,0.01,0.97,
0.231,0.00,-0.01,-0.16,-0.02,0.01,0.97,
0.232,0.00,-0.01,-0.16,-0.02,0.02,0.97,
0.235,0.00,-0.01,-0.16,-0.02,0.02,0.97,
0.235,0.04,-0.02,-0.14,-0.02,0.02,0.97,
0.237,0.04,-0.02,-0.14,-0.02,0.02,0.97,
0.24,0.04,-0.02,-0.14,-0.02,0.02,0.97,
0.24,0.05,0.01,-0.16,-0.02,0.02,0.97,
0.242,0.05,0.01,-0.16,-0.02,0.02,0.97,
0.245,0.05,0.01,-0.16,-0.02,0.02,0.97,
0.245,0.09,0.02,-0.15,-0.02,0.02,0.97,
0.247,0.09,0.02,-0.15,-0.02,0.02,0.97,
0.25,0.09,0.02,-0.15,-0.02,0.02,0.97,
0.25,0.08,0.04,-0.13,-0.02,0.02,0.97,
0.252,0.08,0.04,-0.13,-0.02,0.02,0.98,
0.254,0.08,0.04,-0.13,-0.02,0.02,0.98,
0.255,0.06,0.05,-0.08,-0.02,0.02,0.98,
0.257,0.06,0.05,-0.08,-0.02,0.02,0.98,
0.259,0.06,0.05,-0.08,-0.02,0.02,0.98,
0.26,0.09,0.04,-0.03,-0.02,0.02,0.98,
0.262,0.09,0.04,-0.03,-0.02,0.01,0.98,
0.265,0.09,0.04,-0.03,-0.01,0.01,0.98,
0.265,0.10,0.02,0.01,-0.01,0.01,0.98,
0.267,0.10,0.02,0.01,-0.01,0.01,0.98,
0.269,0.10,0.02,0.01,-0.01,0.01,0.99,
0.269,0.11,-0.01,0.01,-0.01,0.01,0.99,
0.272,0.11,-0.01,0.01,-0.01,0.01,0.99,
0.274,0.11,-0.01,0.01,-0.01,0.01,0.98,
0.274,0.11,-0.05,0.03,-0.01,0.01,0.98,
0.276,0.11,-0.05,0.03,-0.01,0.00,0.98,
0.281,0.11,-0.05,0.03,-0.01,0.00,0.99,
0.281,0.13,-0.08,0.04,-0.01,0.00,0.99,
0.282,0.13,-0.08,0.04,-0.00,0.00,0.99,
0.284,0.13,-0.08,0.04,-0.00,0.00,0.98,
0.284,0.16,-0.12,0.03,-0.00,0.00,0.98,
0.286,0.16,-0.12,0.03,-0.00,0.00,0.98,
0.289,0.16,-0.12,0.03,0.00,0.00,0.98,
0.289,0.20,-0.12,0.03,0.00,0.00,0.98,
0.291,0.20,-0.12,0.03,0.00,0.00,0.98,
0.294,0.20,-0.12,0.03,0.00,0.00,0.98,
0.295,0.23,-0.11,0.01,0.00,0.00,0.98,
0.296,0.23,-0.11,0.01,0.00,0.00,0.98,
0.299,0.23,-0.11,0.01,-0.00,0.00,0.98,
0.299,0.25,-0.10,0.00,-0.00,0.00,0.98,
0.301,0.25,-0.10,0.00,-0.00,0.00,0.98,
0.303,0.25,-0.10,0.00,-0.01,0.01,0.98,
0.304,0.23,-0.10,0.00,-0.01,0.01,0.98,
0.306,0.23,-0.10,0.00,-0.01,0.01,0.98,
0.308,0.23,-0.10,0.00,-0.01,0.01,0.98,
0.308,0.19,-0.10,0.03,-0.01,0.01,0.98,
0.311,0.19,-0.10,0.03,-0.01,0.01,0.99,
0.313,0.19,-0.10,0.03,-0.01,0.01,0.99,
0.313,0.14,-0.06,0.02,-0.01,0.01,0.99,
0.316,0.14,-0.06,0.02,-0.01,0.01,0.99,
0.318,0.14,-0.06,0.02,-0.01,0.01,0.99,
0.318,0.12,-0.05,0.04,-0.01,0.01,0.99,
0.321,0.12,-0.05,0.04,-0.01,0.01,0.99,
0.323,0.12,-0.05,0.04,-0.01,0.01,0.99,
0.323,0.09,-0.02,0.04,-0.01,0.01,0.99,
0.326,0.09,-0.02,0.04,-0.01,0.01,0.99,
0.328,0.09,-0.02,0.04,-0.01,0.01,0.98,
0.328,0.09,-0.00,0.04,-0.01,0.01,0.98,
0.33,0.09,-0.00,0.04,-0.01,0.01,0.98,
0.333,0.09,-0.00,0.04,-0.01,0.01,0.98,
0.333,0.09,-0.04,0.02,-0.01,0.01,0.98,
0.335,0.09,-0.04,0.02,-0.01,0.01,0.98,
0.338,0.09,-0.04,0.02,-0.01,0.01,0.98,
0.338,0.09,-0.07,-0.00,-0.01,0.01,0.98,
0.34,0.09,-0.07,-0.00,-0.01,0.01,0.98,
0.343,0.09,-0.07,-0.00,-0.00,0.01,0.98,
0.343,0.12,-0.08,-0.03,-0.00,0.01,0.98,
0.345,0.12,-0.08,-0.03,-0.01,0.01,0.98,
0.348,0.12,-0.08,-0.03,-0.01,0.01,0.98,
0.348,0.15,-0.05,-0.03,-0.01,0.01,0.98,
0.35,0.15,-0.05,-0.03,-0.01,0.01,0.98,
0.352,0.15,-0.05,-0.03,-0.01,0.01,0.98,
0.353,0.14,-0.05,-0.03,-0.01,0.01,0.98,
0.355,0.14,-0.05,-0.03,-0.01,0.00,0.98,
0.357,0.14,-0.05,-0.03,-0.01,0.00,0.98,
0.358,0.10,-0.08,-0.04,-0.01,0.00,0.98,
0.36,0.10,-0.08,-0.04,-0.01,0.00,0.98,
0.364,0.10,-0.08,-0.04,-0.02,0.00,0.98,
0.365,0.05,-0.11,-0.03,-0.02,0.00,0.98,
0.365,0.05,-0.11,-0.03,-0.02,0.00,0.98,
0.367,0.05,-0.11,-0.03,-0.02,0.00,0.98,
0.368,0.03,-0.12,-0.01,-0.02,0.00,0.98,
0.37,0.03,-0.12,-0.01,-0.01,0.00,0.98,
0.372,0.03,-0.12,-0.01,-0.01,0.00,0.98,
0.372,0.02,-0.11,-0.01,-0.01,0.00,0.98,
0.374,0.02,-0.11,-0.01,-0.01,0.01,0.98,
0.378,0.02,-0.11,-0.01,-0.01,0.01,0.98,
0.378,0.04,-0.10,-0.00,-0.01,0.01,0.98,
0.38,0.04,-0.10,-0.00,-0.01,0.01,0.98,
0.382,0.04,-0.10,-0.00,-0.01,0.01,0.98,
0.382,0.05,-0.06,-0.03,-0.01,0.01,0.98,
0.384,0.05,-0.06,-0.03,-0.01,0.01,0.98,
0.387,0.05,-0.06,-0.03,-0.02,0.01,0.98,
0.387,0.04,-0.04,-0.02,-0.02,0.01,0.98,
0.389,0.04,-0.04,-0.02,-0.02,0.01,0.98,
0.392,0.04,-0.04,-0.02,-0.02,0.01,0.98,
0.392,0.00,-0.05,-0.01,-0.02,0.01,0.98,
0.394,0.00,-0.05,-0.01,-0.03,0.01,0.98,
0.397,0.00,-0.05,-0.01,-0.03,0.01,0.98,
0.397,-0.08,-0.02,-0.02,-0.03,0.01,0.98,
0.399,-0.08,-0.02,-0.02,-0.03,0.02,0.98,
0.402,-0.08,-0.02,-0.02,-0.03,0.02,0.98,
0.402,-0.13,0.00,-0.01,-0.03,0.02,0.98,
0.404,-0.13,0.00,-0.01,-0.03,0.02,0.98,
0.406,-0.13,0.00,-0.01,-0.04,0.02,0.98,
0.406,-0.18,0.04,-0.02,-0.04,0.02,0.98,
0.409,-0.18,0.04,-0.02,-0.04,0.02,0.98,
0.412,-0.18,0.04,-0.02,-0.04,0.02,0.98,
0.413,-0.21,0.07,-0.02,-0.04,0.02,0.98,
0.414,-0.21,0.07,-0.02,-0.04,0.02,0.98,
0.416,-0.21,0.07,-0.02,-0.04,0.02,0.98,
0.416,-0.23,0.08,-0.04,-0.04,0.02,0.98,
0.419,-0.23,0.08,-0.04,-0.04,0.02,0.97,
0.421,-0.23,0.08,-0.04,-0.04,0.02,0.97,
0.421,-0.26,0.09,-0.05,-0.04,0.02,0.97,
0.423,-0.26,0.09,-0.05,-0.04,0.02,0.97,
0.428,-0.26,0.09,-0.05,-0.04,0.02,0.97,
0.428,-0.29,0.06,-0.09,-0.04,0.02,0.97,
0.428,-0.29,0.06,-0.09,-0.04,0.03,0.97,
0.431,-0.29,0.06,-0.09,-0.05,0.03,0.97,
0.431,-0.29,0.08,-0.11,-0.05,0.03,0.97,
0.433,-0.29,0.08,-0.11,-0.05,0.03,0.97,
0.436,-0.29,0.08,-0.11,-0.05,0.03,0.97,
0.436,-0.30,0.11,-0.12,-0.05,0.03,0.97,
0.438,-0.30,0.11,-0.12,-0.05,0.03,0.97,
0.441,-0.30,0.11,-0.12,-0.05,0.03,0.97,
0.441,-0.32,0.14,-0.11,-0.05,0.03,0.97,
0.443,-0.32,0.14,-0.11,-0.05,0.03,0.97,
0.446,-0.32,0.14,-0.11,-0.06,0.03,0.97,
0.446,-0.36,0.15,-0.10,-0.06,0.03,0.97,
0.448,-0.36,0.15,-0.10,-0.06,0.03,0.98,
0.45,-0.36,0.15,-0.10,-0.06,0.03,0.98,
0.451,-0.41,0.16,-0.08,-0.06,0.03,0.98,
0.453,-0.41,0.16,-0.08,-0.06,0.03,0.98,
0.455,-0.41,0.16,-0.08,-0.07,0.03,0.98,
0.455,-0.46,0.15,-0.03,-0.07,0.03,0.98,
0.458,-0.46,0.15,-0.03,-0.07,0.03,0.99,
0.465,-0.46,0.15,-0.03,-0.07,0.03,0.99,
0.465,-0.50,0.14,0.03,-0.07,0.03,0.99,
0.466,-0.50,0.14,0.03,-0.07,0.03,0.99,
0.466,-0.50,0.14,0.03,-0.08,0.03,0.99,
0.466,-0.54,0.13,0.06,-0.08,0.03,0.99,
0.468,-0.54,0.13,0.06,-0.08,0.03,1.00,
0.47,-0.54,0.13,0.06,-0.08,0.03,1.00,
0.47,-0.58,0.13,0.11,-0.08,0.03,1.00,
0.473,-0.58,0.13,0.11,-0.08,0.03,1.00,
0.475,-0.58,0.13,0.11,-0.08,0.03,1.00,
0.475,-0.62,0.14,0.14,-0.08,0.03,1.00,
0.477,-0.62,0.14,0.14,-0.09,0.03,1.00,
0.48,-0.62,0.14,0.14,-0.09,0.03,1.00,
0.48,-0.66,0.14,0.16,-0.09,0.03,1.00,
0.482,-0.66,0.14,0.16,-0.09,0.03,1.00,
0.485,-0.66,0.14,0.16,-0.09,0.03,1.00,
0.485,-0.72,0.15,0.17,-0.09,0.03,1.00,
0.487,-0.72,0.15,0.17,-0.09,0.03,1.00,
0.489,-0.72,0.15,0.17,-0.10,0.04,1.00,
0.49,-0.76,0.17,0.21,-0.10,0.04,1.00,
0.492,-0.76,0.17,0.21,-0.10,0.04,1.00,
0.495,-0.76,0.17,0.21,-0.10,0.04,1.00,
0.495,-0.78,0.19,0.20,-0.10,0.04,1.00,
0.497,-0.78,0.19,0.20,-0.10,0.04,1.00,
0.499,-0.78,0.19,0.20,-0.10,0.04,1.00,
0.5,-0.81,0.22,0.18,-0.10,0.04,1.00,
0.502,-0.81,0.22,0.18,-0.10,0.04,1.00,
0.504,-0.81,0.22,0.18,-0.11,0.04,1.00,
0.505,-0.84,0.23,0.18,-0.11,0.04,1.00,
0.507,-0.84,0.23,0.18,-0.11,0.04,1.00,
0.509,-0.84,0.23,0.18,-0.11,0.04,1.00,
0.509,-0.89,0.22,0.16,-0.11,0.04,1.00,
0.512,-0.89,0.22,0.16,-0.11,0.04,1.00,
0.514,-0.89,0.22,0.16,-0.11,0.04,1.00,
0.514,-0.94,0.21,0.13,-0.11,0.04,1.00,
0.517,-0.94,0.21,0.13,-0.11,0.04,0.99,
0.519,-0.94,0.21,0.13,-0.10,0.04,0.99,
0.519,-0.93,0.23,0.12,-0.10,0.04,0.99,
0.522,-0.93,0.23,0.12,-0.10,0.03,0.99,
0.524,-0.93,0.23,0.12,-0.10,0.03,0.98,
0.524,-0.89,0.20,0.08,-0.10,0.03,0.98,
0.527,-0.89,0.20,0.08,-0.10,0.03,0.98,
0.53,-0.89,0.20,0.08,-0.10,0.02,0.98,
0.531,-0.86,0.15,0.03,-0.10,0.02,0.98,
0.532,-0.86,0.15,0.03,-0.10,0.02,0.98,
0.534,-0.85,0.07,-0.02,-0.10,0.02,0.98,
0.536,-0.85,0.07,-0.02,-0.10,0.02,0.98,
0.537,-0.85,0.07,-0.02,-0.09,0.01,0.97,
0.539,-0.85,0.07,-0.02,-0.09,0.01,0.97,
0.539,-0.81,-0.00,-0.07,-0.09,0.01,0.97,
0.541,-0.81,-0.00,-0.07,-0.09,0.01,0.97,
0.544,-0.81,-0.00,-0.07,-0.09,0.01,0.97,
0.545,-0.79,-0.05,-0.12,-0.09,0.01,0.97,
0.546,-0.79,-0.05,-0.12,-0.09,0.00,0.96,
0.549,-0.79,-0.05,-0.12,-0.09,0.00,0.96,
0.549,-0.75,-0.10,-0.16,-0.09,0.00,0.96,
0.551,-0.75,-0.10,-0.16,-0.09,0.00,0.96,
0.553,-0.75,-0.10,-0.16,-0.09,0.00,0.96,
0.554,-0.74,-0.15,-0.19,-0.09,0.00,0.96,
0.556,-0.74,-0.15,-0.19,-0.09,-0.00,0.96,
0.559,-0.75,-0.16,-0.20,-0.09,-0.00,0.96,
0.559,-0.75,-0.16,-0.20,-0.10,-0.00,0.96,
0.561,-0.75,-0.16,-0.20,-0.10,-0.01,0.96,
0.563,-0.75,-0.16,-0.20,-0.10,-0.01,0.96,
0.564,-0.76,-0.22,-0.22,-0.10,-0.01,0.96,
0.566,-0.76,-0.22,-0.22,-0.10,-0.00,0.96,
0.568,-0.76,-0.22,-0.22,-0.09,-0.00,0.96,
0.568,-0.79,-0.24,-0.22,-0.09,-0.00,0.96,
0.57,-0.79,-0.24,-0.22,-0.10,0.00,0.96,
0.573,-0.79,-0.24,-0.22,-0.10,0.00,0.96,
0.574,-0.76,-0.21,-0.21,-0.10,0.00,0.96,
0.576,-0.76,-0.21,-0.21,-0.10,0.01,0.96,
0.588,-0.76,-0.21,-0.21,-0.10,0.01,0.96,
0.589,-0.79,-0.16,-0.19,-0.10,0.01,0.96,
0.589,-0.79,-0.16,-0.19,-0.10,0.01,0.96,
0.589,-0.79,-0.16,-0.19,-0.11,0.01,0.96,
0.59,-0.80,-0.10,-0.19,-0.11,0.01,0.96,
0.59,-0.80,-0.10,-0.19,-0.11,0.02,0.96,
0.59,-0.80,-0.10,-0.19,-0.11,0.02,0.96,
0.59,-0.83,-0.06,-0.18,-0.11,0.02,0.96,
0.59,-0.83,-0.06,-0.18,-0.11,0.02,0.96,
0.593,-0.83,-0.06,-0.18,-0.11,0.02,0.96,
0.593,-0.85,-0.04,-0.18,-0.11,0.02,0.96,
0.6,-0.85,-0.04,-0.18,-0.11,0.02,0.95,
0.601,-0.85,-0.04,-0.18,-0.11,0.02,0.95,
0.601,-0.89,-0.00,-0.22,-0.11,0.02,0.95,
0.601,-0.89,-0.00,-0.22,-0.11,0.02,0.95,
0.602,-0.89,-0.00,-0.22,-0.12,0.02,0.95,
0.602,-0.90,0.00,-0.28,-0.12,0.02,0.95,
0.605,-0.90,0.00,-0.28,-0.11,0.02,0.94,
0.607,-0.90,0.00,-0.28,-0.12,0.02,0.94,
0.607,-0.91,0.02,-0.32,-0.12,0.02,0.94,
0.61,-0.91,0.02,-0.32,-0.11,0.02,0.94,
0.612,-0.91,0.02,-0.32,-0.11,0.02,0.94,
0.613,-0.91,0.01,-0.40,-0.11,0.02,0.94,
0.615,-0.91,0.01,-0.40,-0.11,0.02,0.93,
0.617,-0.91,0.01,-0.40,-0.11,0.02,0.93,
0.618,-0.90,-0.01,-0.43,-0.11,0.02,0.93,
0.62,-0.90,-0.01,-0.43,-0.11,0.01,0.93,
0.622,-0.90,-0.01,-0.43,-0.11,0.01,0.94,
0.622,-0.87,-0.03,-0.45,-0.11,0.01,0.94,
0.625,-0.87,-0.03,-0.45,-0.11,0.01,0.94,
0.627,-0.87,-0.03,-0.45,-0.11,0.01,0.94,
0.627,-0.82,-0.08,-0.43,-0.11,0.01,0.94,
0.63,-0.82,-0.08,-0.43,-0.11,0.01,0.94,
0.632,-0.82,-0.08,-0.43,-0.11,0.00,0.94,
0.632,-0.79,-0.11,-0.40,-0.11,0.00,0.94,
0.634,-0.79,-0.11,-0.40,-0.11,-0.00,0.95,
0.636,-0.79,-0.11,-0.40,-0.11,-0.00,0.95,
0.637,-0.78,-0.18,-0.36,-0.11,-0.00,0.95,
0.639,-0.78,-0.18,-0.36,-0.11,-0.00,0.95,
0.642,-0.78,-0.18,-0.36,-0.11,-0.00,0.95,
0.642,-0.80,-0.24,-0.30,-0.11,-0.00,0.95,
0.644,-0.80,-0.24,-0.30,-0.10,-0.01,0.96,
0.646,-0.80,-0.24,-0.30,-0.10,-0.01,0.96,
0.647,-0.74,-0.24,-0.26,-0.10,-0.01,0.96,
0.649,-0.74,-0.24,-0.26,-0.10,-0.01,0.96,
0.651,-0.74,-0.24,-0.26,-0.10,-0.01,0.96,
0.652,-0.69,-0.27,-0.20,-0.10,-0.01,0.96,
0.654,-0.69,-0.27,-0.20,-0.10,-0.01,0.96,
0.656,-0.69,-0.27,-0.20,-0.10,-0.01,0.96,
0.656,-0.69,-0.29,-0.16,-0.10,-0.01,0.96,
0.659,-0.69,-0.29,-0.16,-0.11,-0.01,0.96,
0.666,-0.69,-0.29,-0.16,-0.10,-0.01,0.96,
0.667,-0.68,-0.32,-0.15,-0.10,-0.01,0.96,
0.667,-0.68,-0.32,-0.15,-0.10,-0.01,0.97,
0.667,-0.68,-0.32,-0.15,-0.10,-0.01,0.97,
0.668,-0.68,-0.33,-0.12,-0.10,-0.01,0.97,
0.668,-0.68,-0.33,-0.12,-0.09,-0.00,0.97,
0.671,-0.68,-0.33,-0.12,-0.09,0.00,0.97,
0.671,-0.63,-0.30,-0.10,-0.09,0.00,0.97,
0.673,-0.63,-0.30,-0.10,-0.09,0.00,0.97,
0.676,-0.63,-0.30,-0.10,-0.09,0.00,0.96,
0.676,-0.52,-0.23,-0.10,-0.09,0.00,0.96,
0.678,-0.52,-0.23,-0.10,-0.09,0.00,0.96,
0.681,-0.52,-0.23,-0.10,-0.09,0.00,0.96,
0.681,-0.46,-0.18,-0.11,-0.09,0.00,0.96,
0.683,-0.46,-0.18,-0.11,-0.08,0.00,0.96,
0.685,-0.46,-0.18,-0.11,-0.08,-0.00,0.96,
0.686,-0.43,-0.19,-0.16,-0.08,-0.00,0.96,
0.688,-0.43,-0.19,-0.16,-0.08,-0.01,0.95,
0.69,-0.43,-0.19,-0.16,-0.08,-0.01,0.95,
0.691,-0.39,-0.22,-0.20,-0.08,-0.01,0.95,
0.694,-0.39,-0.22,-0.20,-0.08,-0.01,0.95,
0.696,-0.39,-0.22,-0.20,-0.07,-0.01,0.95,
0.696,-0.36,-0.29,-0.23,-0.07,-0.01,0.95,
0.698,-0.36,-0.29,-0.23,-0.07,-0.02,0.94,
0.701,-0.36,-0.29,-0.23,-0.06,-0.03,0.94,
0.701,-0.29,-0.35,-0.27,-0.06,-0.03,0.94,
0.703,-0.29,-0.35,-0.27,-0.06,-0.03,0.94,
0.705,-0.21,-0.44,-0.32,-0.06,-0.03,0.94,
0.705,-0.21,-0.44,-0.32,-0.06,-0.03,0.94,
0.707,-0.21,-0.44,-0.32,-0.06,-0.04,0.94,
0.711,-0.21,-0.44,-0.32,-0.05,-0.04,0.94,
0.711,-0.14,-0.52,-0.36,-0.05,-0.04,0.94,
0.713,-0.14,-0.52,-0.36,-0.05,-0.04,0.94,
0.715,-0.14,-0.52,-0.36,-0.05,-0.04,0.94,
0.715,-0.07,-0.58,-0.36,-0.05,-0.04,0.94,
0.717,-0.07,-0.58,-0.36,-0.04,-0.05,0.94,
0.72,-0.07,-0.58,-0.36,-0.04,-0.05,0.94,
0.72,-0.00,-0.63,-0.34,-0.04,-0.05,0.94,
0.722,-0.00,-0.63,-0.34,-0.04,-0.05,0.95,
0.725,-0.00,-0.63,-0.34,-0.04,-0.06,0.95,
0.725,0.04,-0.67,-0.31,-0.04,-0.06,0.95,
0.727,0.04,-0.67,-0.31,-0.04,-0.06,0.95,
0.73,0.05,-0.73,-0.26,-0.04,-0.06,0.95,
0.73,0.05,-0.73,-0.26,-0.04,-0.06,0.95,
0.732,0.05,-0.73,-0.26,-0.04,-0.06,0.96,
0.735,0.05,-0.73,-0.26,-0.04,-0.06,0.96,
0.735,0.06,-0.78,-0.22,-0.04,-0.06,0.96,
0.737,0.06,-0.78,-0.22,-0.04,-0.05,0.96,
0.739,0.06,-0.78,-0.22,-0.03,-0.05,0.97,
0.74,0.09,-0.76,-0.15,-0.03,-0.05,0.97,
0.742,0.09,-0.76,-0.15,-0.03,-0.04,0.97,
0.745,0.09,-0.76,-0.15,-0.03,-0.03,0.97,
0.745,0.15,-0.66,-0.09,-0.03,-0.03,0.97,
0.747,0.15,-0.66,-0.09,-0.03,-0.03,0.97,
0.749,0.15,-0.66,-0.09,-0.03,-0.02,0.97,
0.75,0.19,-0.52,-0.04,-0.03,-0.02,0.97,
0.752,0.19,-0.52,-0.04,-0.03,-0.02,0.97,
0.754,0.19,-0.52,-0.04,-0.03,-0.01,0.97,
0.755,0.20,-0.41,-0.00,-0.03,-0.01,0.97,
0.757,0.20,-0.41,-0.00,-0.04,-0.01,0.97,
0.759,0.20,-0.41,-0.00,-0.04,-0.00,0.97,
0.759,0.18,-0.31,0.01,-0.04,-0.00,0.97,
0.768,0.18,-0.31,0.01,-0.04,-0.00,0.97,
0.769,0.18,-0.31,0.01,-0.04,-0.00,0.97,
0.769,0.13,-0.23,-0.00,-0.04,-0.00,0.97,
0.769,0.13,-0.23,-0.00,-0.04,0.00,0.96,
0.769,0.13,-0.23,-0.00,-0.05,-0.00,0.96,
0.77,0.12,-0.19,-0.06,-0.05,-0.00,0.96,
0.771,0.12,-0.19,-0.06,-0.05,0.00,0.96,
0.774,0.12,-0.19,-0.06,-0.05,-0.00,0.95,
0.774,0.09,-0.18,-0.11,-0.05,-0.00,0.95,
0.78,0.09,-0.18,-0.11,-0.05,-0.01,0.94,
0.78,0.05,-0.20,-0.19,-0.05,-0.01,0.94,
0.78,0.05,-0.20,-0.19,-0.05,-0.01,0.94,
0.781,0.05,-0.20,-0.19,-0.05,-0.01,0.94,
0.784,0.05,-0.20,-0.19,-0.05,-0.02,0.93,
0.784,0.04,-0.26,-0.29,-0.05,-0.02,0.93,
0.786,0.04,-0.26,-0.29,-0.05,-0.02,0.93,
0.788,0.04,-0.26,-0.29,-0.05,-0.03,0.93,
0.788,0.03,-0.32,-0.35,-0.05,-0.03,0.93,
0.791,0.03,-0.32,-0.35,-0.05,-0.03,0.93,
0.793,0.03,-0.32,-0.35,-0.04,-0.04,0.93,
0.793,0.08,-0.41,-0.39,-0.04,-0.04,0.93,
0.796,0.08,-0.41,-0.39,-0.04,-0.04,0.93,
0.798,0.08,-0.41,-0.39,-0.04,-0.05,0.93,
0.799,0.11,-0.53,-0.42,-0.04,-0.05,0.93,
0.801,0.11,-0.53,-0.42,-0.03,-0.06,0.94,
0.803,0.11,-0.53,-0.42,-0.03,-0.06,0.94,
0.803,0.15,-0.64,-0.39,-0.03,-0.06,0.94,
0.805,0.15,-0.64,-0.39,-0.03,-0.06,0.94,
0.808,0.15,-0.64,-0.39,-0.03,-0.07,0.95,
0.808,0.23,-0.74,-0.32,-0.03,-0.07,0.95,
0.811,0.23,-0.74,-0.32,-0.02,-0.07,0.95,
0.813,0.23,-0.74,-0.32,-0.02,-0.07,0.96,
0.814,0.29,-0.81,-0.24,-0.02,-0.07,0.96,
0.815,0.29,-0.81,-0.24,-0.01,-0.07,0.96,
0.818,0.29,-0.81,-0.24,-0.00,-0.07,0.97,
0.819,0.39,-0.85,-0.15,-0.00,-0.07,0.97,
0.82,0.39,-0.85,-0.15,0.00,-0.07,0.97,
0.823,0.39,-0.85,-0.15,0.01,-0.07,0.98,
0.823,0.52,-0.86,-0.04,0.01,-0.07,0.98,
0.825,0.52,-0.86,-0.04,0.01,-0.07,0.98,
0.828,0.52,-0.86,-0.04,0.02,-0.07,0.98,
0.828,0.65,-0.84,0.05,0.02,-0.07,0.98,
0.83,0.65,-0.84,0.05,0.02,-0.07,0.98,
0.833,0.65,-0.84,0.05,0.03,-0.07,0.98,
0.833,0.74,-0.83,0.08,0.03,-0.07,0.98,
0.835,0.74,-0.83,0.08,0.03,-0.07,0.97,
0.837,0.74,-0.83,0.08,0.03,-0.07,0.97,
0.838,0.81,-0.81,0.07,0.03,-0.07,0.97,
0.84,0.81,-0.81,0.07,0.03,-0.07,0.96,
0.844,0.81,-0.81,0.07,0.03,-0.07,0.96,
0.844,0.83,-0.82,0.01,0.03,-0.07,0.96,
0.845,0.83,-0.82,0.01,0.02,-0.07,0.95,
0.848,0.83,-0.82,0.01,0.03,-0.07,0.94,
0.848,0.82,-0.85,-0.11,0.03,-0.07,0.94,
0.85,0.82,-0.85,-0.11,0.03,-0.07,0.93,
0.852,0.82,-0.85,-0.11,0.03,-0.07,0.93,
0.852,0.81,-0.84,-0.23,0.03,-0.07,0.93,
0.854,0.81,-0.84,-0.23,0.03,-0.07,0.92,
0.857,0.81,-0.84,-0.23,0.03,-0.07,0.91,
0.857,0.85,-0.82,-0.39,0.03,-0.07,0.91,
0.86,0.85,-0.82,-0.39,0.03,-0.07,0.90,
0.863,0.85,-0.82,-0.39,0.04,-0.07,0.90,
0.863,0.87,-0.81,-0.53,0.04,-0.07,0.90,
0.865,0.87,-0.81,-0.53,0.04,-0.07,0.89,
0.867,0.87,-0.81,-0.53,0.04,-0.08,0.89,
0.867,0.88,-0.83,-0.66,0.04,-0.08,0.89,
0.869,0.88,-0.83,-0.66,0.05,-0.08,0.89,
0.872,0.88,-0.83,-0.66,0.05,-0.07,0.89,
0.872,0.94,-0.85,-0.74,0.05,-0.07,0.89,
0.874,0.94,-0.85,-0.74,0.06,-0.07,0.89,
0.886,0.94,-0.85,-0.74,0.07,-0.07,0.89,
0.886,1.02,-0.84,-0.77,0.07,-0.07,0.89,
0.887,1.02,-0.84,-0.77,0.07,-0.07,0.89,
0.887,1.02,-0.84,-0.77,0.07,-0.07,0.90,
0.887,1.14,-0.79,-0.75,0.07,-0.07,0.90,
0.888,1.14,-0.79,-0.75,0.07,-0.07,0.90,
0.888,1.14,-0.79,-0.75,0.07,-0.07,0.91,
0.888,1.20,-0.75,-0.68,0.07,-0.07,0.91,
0.889,1.20,-0.75,-0.68,0.06,-0.07,0.91,
0.891,1.20,-0.75,-0.68,0.06,-0.07,0.92,
0.892,1.19,-0.77,-0.58,0.06,-0.07,0.92,
0.901,1.19,-0.77,-0.58,0.05,-0.07,0.92,
0.902,1.19,-0.77,-0.58,0.05,-0.07,0.93,
0.902,1.10,-0.78,-0.49,0.05,-0.07,0.93,
0.902,1.10,-0.78,-0.49,0.05,-0.07,0.94,
0.902,1.10,-0.78,-0.49,0.05,-0.07,0.94,
0.903,1.02,-0.78,-0.37,0.05,-0.07,0.94,
0.903,1.02,-0.78,-0.37,0.05,-0.06,0.95,
0.906,1.02,-0.78,-0.37,0.04,-0.06,0.96,
0.906,0.97,-0.71,-0.23,0.04,-0.06,0.96,
0.908,0.97,-0.71,-0.23,0.04,-0.06,0.97,
0.911,0.97,-0.71,-0.23,0.03,-0.06,0.97,
0.911,0.94,-0.64,-0.08,0.03,-0.06,0.97,
0.914,0.94,-0.64,-0.08,0.03,-0.06,0.98,
0.916,0.94,-0.64,-0.08,0.02,-0.06,0.98,
0.916,0.85,-0.59,0.04,0.02,-0.06,0.98,
0.918,0.85,-0.59,0.04,0.01,-0.06,0.99,
0.921,0.85,-0.59,0.04,0.01,-0.06,0.99,
0.921,0.73,-0.59,0.16,0.01,-0.06,0.99,
0.923,0.73,-0.59,0.16,-0.00,-0.06,0.99,
0.927,0.73,-0.59,0.16,-0.01,-0.07,0.99,
0.927,0.59,-0.63,0.22,-0.01,-0.07,0.99,
0.928,0.59,-0.63,0.22,-0.01,-0.07,0.99,
0.93,0.59,-0.63,0.22,-0.01,-0.07,0.99,
0.93,0.47,-0.66,0.22,-0.01,-0.07,0.99,
0.933,0.47,-0.66,0.22,-0.01,-0.07,0.98,
0.935,0.47,-0.66,0.22,-0.01,-0.06,0.98,
0.935,0.40,-0.67,0.22,-0.01,-0.06,0.98,
0.938,0.40,-0.67,0.22,-0.01,-0.06,0.98,
0.94,0.40,-0.67,0.22,-0.01,-0.06,0.97,
0.94,0.38,-0.66,0.16,-0.01,-0.06,0.97,
0.943,0.38,-0.66,0.16,-0.01,-0.05,0.97,
0.945,0.38,-0.66,0.16,-0.00,-0.05,0.97,
0.946,0.41,-0.60,0.10,-0.00,-0.05,0.97,
0.948,0.41,-0.60,0.10,0.00,-0.05,0.96,
0.95,0.48,-0.52,0.03,0.00,-0.05,0.96,
0.951,0.48,-0.52,0.03,0.01,-0.04,0.96,
0.952,0.48,-0.52,0.03,0.01,-0.04,0.95,
0.955,0.48,-0.52,0.03,0.01,-0.04,0.94,
0.955,0.56,-0.45,-0.06,0.01,-0.04,0.94,
0.958,0.56,-0.45,-0.06,0.01,-0.04,0.94,
0.96,0.56,-0.45,-0.06,0.01,-0.04,0.94,
0.961,0.60,-0.40,-0.17,0.01,-0.04,0.94,
0.962,0.60,-0.40,-0.17,0.01,-0.04,0.93,
0.965,0.60,-0.40,-0.17,0.01,-0.03,0.93,
0.965,0.61,-0.40,-0.26,0.01,-0.03,0.93,
0.967,0.61,-0.40,-0.26,0.01,-0.03,0.93,
0.97,0.61,-0.40,-0.26,-0.00,-0.03,0.93,
0.97,0.57,-0.35,-0.34,-0.00,-0.03,0.93,
0.972,0.57,-0.35,-0.34,-0.00,-0.02,0.93,
0.975,0.57,-0.35,-0.34,-0.01,-0.01,0.93,
0.975,0.53,-0.27,-0.35,-0.01,-0.01,0.93,
0.982,0.53,-0.27,-0.35,-0.01,-0.01,0.93,
0.982,0.53,-0.27,-0.35,-0.02,-0.00,0.93,
0.983,0.43,-0.16,-0.35,-0.02,-0.00,0.93,
0.983,0.43,-0.16,-0.35,-0.03,-0.00,0.93,
0.985,0.43,-0.16,-0.35,-0.03,0.00,0.94,
0.985,0.32,-0.06,-0.33,-0.03,0.00,0.94,
0.987,0.32,-0.06,-0.33,-0.04,0.00,0.94,
0.989,0.32,-0.06,-0.33,-0.05,0.00,0.94,
0.989,0.20,-0.01,-0.28,-0.05,0.00,0.94,
0.992,0.20,-0.01,-0.28,-0.07,0.00,0.95,
0.998,0.20,-0.01,-0.28,-0.07,0.00,0.95,
0.998,0.04,0.03,-0.23,-0.07,0.00,0.95,
0.998,0.04,0.03,-0.23,-0.08,0.00,0.95,
0.999,0.04,0.03,-0.23,-0.08,0.00,0.96,
0.999,-0.17,0.04,-0.14,-0.08,0.00,0.96,
1.002,-0.17,0.04,-0.14,-0.09,0.01,0.96,
1.004,-0.17,0.04,-0.14,-0.09,0.01,0.96,
1.004,-0.28,0.04,-0.07,-0.09,0.01,0.96,
1.006,-0.28,0.04,-0.07,-0.09,0.01,0.97,
1.01,-0.28,0.04,-0.07,-0.09,0.02,0.97,
1.01,-0.37,0.07,-0.00,-0.09,0.02,0.97,
1.011,-0.37,0.07,-0.00,-0.08,0.03,0.97,
1.014,-0.37,0.07,-0.00,-0.07,0.04,0.97,
1.014,-0.33,0.16,0.06,-0.07,0.04,0.97,
1.016,-0.33,0.16,0.06,-0.06,0.04,0.97,
1.019,-0.33,0.16,0.06,-0.05,0.05,0.97,
1.019,-0.18,0.31,0.09,-0.05,0.05,0.97,
1.021,-0.18,0.31,0.09,-0.03,0.06,0.96,
1.024,-0.18,0.31,0.09,-0.02,0.06,0.96,
1.026,0.01,0.46,0.07,-0.02,0.06,0.96,
1.026,0.01,0.46,0.07,-0.01,0.07,0.95,
1.029,0.01,0.46,0.07,-0.00,0.07,0.95,
1.029,0.23,0.58,-0.01,-0.00,0.07,0.95,
1.031,0.23,0.58,-0.01,0.01,0.08,0.94,
1.033,0.23,0.58,-0.01,0.02,0.08,0.93,
1.033,0.42,0.66,-0.14,0.02,0.08,0.93,
1.036,0.42,0.66,-0.14,0.03,0.08,0.92,
1.038,0.42,0.66,-0.14,0.03,0.08,0.92,
1.038,0.61,0.72,-0.26,0.03,0.08,0.92,
1.041,0.61,0.72,-0.26,0.04,0.08,0.91,
1.044,0.61,0.72,-0.26,0.05,0.08,0.91,
1.045,0.77,0.74,-0.40,0.05,0.08,0.91,
1.046,0.77,0.74,-0.40,0.06,0.08,0.90,
1.048,0.77,0.74,-0.40,0.07,0.08,0.90,
1.048,0.94,0.75,-0.51,0.07,0.08,0.90,
1.05,0.94,0.75,-0.51,0.07,0.07,0.90,
1.053,0.94,0.75,-0.51,0.08,0.07,0.89,
1.053,1.09,0.71,-0.58,0.08,0.07,0.89,
1.055,1.09,0.71,-0.58,0.08,0.06,0.89,
1.058,1.09,0.71,-0.58,0.09,0.06,0.89,
1.058,1.18,0.66,-0.65,0.09,0.06,0.89,
1.061,1.18,0.66,-0.65,0.09,0.05,0.89,
1.063,1.18,0.66,-0.65,0.09,0.05,0.90,
1.063,1.27,0.54,-0.67,0.09,0.05,0.90,
1.065,1.27,0.54,-0.67,0.09,0.04,0.90,
1.068,1.27,0.54,-0.67,0.09,0.03,0.90,
1.068,1.32,0.44,-0.62,0.09,0.03,0.90,
1.07,1.32,0.44,-0.62,0.09,0.03,0.91,
1.072,1.32,0.44,-0.62,0.09,0.02,0.92,
1.073,1.33,0.32,-0.55,0.09,0.02,0.92,
1.081,1.33,0.32,-0.55,0.09,0.01,0.92,
1.082,1.33,0.32,-0.55,0.09,0.01,0.93,
1.082,1.33,0.18,-0.44,0.09,0.01,0.93,
1.083,1.33,0.18,-0.44,0.08,0.00,0.94,
1.083,1.33,0.18,-0.44,0.08,-0.00,0.94,
1.083,1.32,0.05,-0.31,0.08,-0.00,0.94,
1.085,1.32,0.05,-0.31,0.08,-0.01,0.95,
1.087,1.32,0.05,-0.31,0.08,-0.01,0.95,
1.088,1.26,-0.07,-0.18,0.08,-0.01,0.95,
1.09,1.26,-0.07,-0.18,0.08,-0.02,0.96,
1.097,1.26,-0.07,-0.18,0.08,-0.02,0.96,
1.098,1.25,-0.17,-0.08,0.08,-0.02,0.96,
1.098,1.25,-0.17,-0.08,0.08,-0.02,0.96,
1.098,1.25,-0.17,-0.08,0.09,-0.02,0.96,
1.098,1.27,-0.25,-0.00,0.09,-0.02,0.96,
1.099,1.27,-0.25,-0.00,0.09,-0.02,0.97,
1.102,1.27,-0.25,-0.00,0.10,-0.01,0.96,
1.102,1.35,-0.26,0.06,0.10,-0.01,0.96,
1.104,1.35,-0.26,0.06,0.11,-0.01,0.96,
1.107,1.35,-0.26,0.06,0.12,-0.00,0.96,
1.107,1.46,-0.20,0.08,0.12,-0.00,0.96,
1.109,1.46,-0.20,0.08,0.12,0.01,0.96,
1.112,1.46,-0.20,0.08,0.13,0.02,0.96,
1.112,1.62,-0.08,0.05,0.13,0.02,0.96,
1.114,1.62,-0.08,0.05,0.13,0.02,0.95,
1.116,1.62,-0.08,0.05,0.14,0.03,0.95,
1.117,1.74,0.06,0.01,0.14,0.03,0.95,
1.119,1.74,0.06,0.01,0.14,0.04,0.95,
1.122,1.74,0.06,0.01,0.14,0.04,0.95,
1.122,1.85,0.20,-0.07,0.14,0.04,0.95,
1.124,1.85,0.20,-0.07,0.15,0.05,0.94,
1.127,1.85,0.20,-0.07,0.14,0.06,0.94,
1.127,1.93,0.34,-0.12,0.14,0.06,0.94,
1.129,1.93,0.34,-0.12,0.14,0.06,0.94,
1.131,1.93,0.34,-0.12,0.14,0.07,0.94,
1.131,1.94,0.47,-0.14,0.14,0.07,0.94,
1.134,1.94,0.47,-0.14,0.14,0.07,0.94,
1.136,1.94,0.47,-0.14,0.14,0.07,0.95,
1.136,1.91,0.57,-0.15,0.14,0.07,0.95,
1.139,1.91,0.57,-0.15,0.13,0.07,0.95,
1.141,1.91,0.57,-0.15,0.13,0.07,0.95,
1.141,1.86,0.66,-0.12,0.13,0.07,0.95,
1.144,1.86,0.66,-0.12,0.13,0.07,0.95,
1.146,1.86,0.66,-0.12,0.12,0.07,0.95,
1.146,1.80,0.67,-0.08,0.12,0.07,0.95,
1.148,1.80,0.67,-0.08,0.12,0.07,0.96,
1.151,1.80,0.67,-0.08,0.11,0.06,0.96,
1.151,1.75,0.68,-0.03,0.11,0.06,0.96,
1.153,1.75,0.68,-0.03,0.11,0.06,0.97,
1.156,1.75,0.68,-0.03,0.11,0.05,0.97,
1.156,1.69,0.62,0.04,0.11,0.05,0.97,
1.159,1.69,0.62,0.04,0.11,0.05,0.97,
1.161,1.69,0.62,0.04,0.11,0.04,0.98,
1.162,1.64,0.53,0.12,0.11,0.04,0.98,
1.163,1.64,0.53,0.12,0.11,0.03,0.98,
1.166,1.64,0.53,0.12,0.11,0.03,0.98,
1.166,1.63,0.41,0.18,0.11,0.03,0.98,
1.168,1.63,0.41,0.18,0.11,0.02,0.99,
1.17,1.63,0.41,0.18,0.12,0.01,0.99,
1.171,1.64,0.29,0.25,0.12,0.01,0.99,
1.173,1.64,0.29,0.25,0.12,0.01,1.00,
1.176,1.64,0.29,0.25,0.12,0.00,1.00,
1.176,1.69,0.17,0.34,0.12,0.00,1.00,
1.178,1.69,0.17,0.34,0.12,-0.00,1.01,
1.18,1.72,0.07,0.44,0.12,-0.00,1.01,
1.181,1.72,0.07,0.44,0.13,-0.01,1.01,
1.183,1.72,0.07,0.44,0.13,-0.01,1.02,
1.185,1.72,0.07,0.44,0.13,-0.01,1.02,
1.185,1.79,0.01,0.53,0.13,-0.01,1.02,
1.188,1.79,0.01,0.53,0.14,-0.01,1.03,
1.191,1.79,0.01,0.53,0.14,-0.01,1.03,
1.191,1.87,-0.03,0.64,0.14,-0.01,1.03,
1.198,1.87,-0.03,0.64,0.14,-0.01,1.04,
1.199,1.94,-0.04,0.74,0.14,-0.01,1.04,
1.199,1.94,-0.04,0.74,0.14,-0.01,1.05,
1.2,1.94,-0.04,0.74,0.14,-0.00,1.05,
1.2,1.94,-0.04,0.74,0.14,0.00,1.06,
1.2,2.00,-0.01,0.85,0.14,0.00,1.06,
1.202,2.00,-0.01,0.85,0.14,0.01,1.06,
1.204,2.00,-0.01,0.85,0.14,0.01,1.07,
1.205,2.01,0.09,0.97,0.14,0.01,1.07,
1.207,2.01,0.09,0.97,0.14,0.01,1.07,
1.21,2.01,0.09,0.97,0.13,0.02,1.07,
1.211,2.00,0.19,1.06,0.13,0.02,1.07,
1.212,2.00,0.19,1.06,0.13,0.02,1.07,
1.215,2.00,0.19,1.06,0.13,0.02,1.07,
1.215,1.93,0.27,1.11,0.13,0.02,1.07,
1.217,1.93,0.27,1.11,0.12,0.02,1.07,
1.219,1.93,0.27,1.11,0.11,0.02,1.06,
1.219,1.86,0.32,1.10,0.11,0.02,1.06,
1.222,1.86,0.32,1.10,0.10,0.03,1.06,
1.226,1.86,0.32,1.10,0.10,0.03,1.05,
1.226,1.73,0.35,1.05,0.10,0.03,1.05,
1.227,1.73,0.35,1.05,0.09,0.03,1.05,
1.229,1.73,0.35,1.05,0.09,0.03,1.04,
1.23,1.61,0.39,0.98,0.09,0.03,1.04,
1.232,1.61,0.39,0.98,0.08,0.04,1.04,
1.234,1.61,0.39,0.98,0.08,0.03,1.03,
1.234,1.51,0.44,0.87,0.08,0.03,1.03,
1.236,1.51,0.44,0.87,0.07,0.03,1.03,
1.239,1.51,0.44,0.87,0.07,0.03,1.03,
1.239,1.42,0.47,0.77,0.07,0.03,1.03,
1.242,1.42,0.47,0.77,0.06,0.03,1.03,
1.244,1.42,0.47,0.77,0.06,0.03,1.03,
1.244,1.31,0.47,0.71,0.06,0.03,1.03,
1.246,1.31,0.47,0.71,0.05,0.03,1.03,
1.249,1.31,0.47,0.71,0.05,0.03,1.03,
1.249,1.18,0.43,0.69,0.05,0.03,1.03,
1.251,1.18,0.43,0.69,0.05,0.02,1.03,
1.254,1.18,0.43,0.69,0.05,0.02,1.03,
1.254,1.10,0.41,0.68,0.05,0.02,1.03,
1.256,1.10,0.41,0.68,0.05,0.02,1.03,
1.259,1.10,0.41,0.68,0.05,0.02,1.03,
1.26,1.05,0.38,0.70,0.05,0.02,1.03,
1.261,1.05,0.38,0.70,0.06,0.02,1.04,
1.263,1.05,0.38,0.70,0.06,0.02,1.04,
1.264,1.07,0.37,0.73,0.06,0.02,1.04,
1.266,1.07,0.37,0.73,0.07,0.01,1.04,
1.268,1.07,0.37,0.73,0.07,0.01,1.04,
1.269,1.13,0.36,0.81,0.07,0.01,1.04,
1.271,1.13,0.36,0.81,0.08,0.01,1.04,
1.273,1.13,0.36,0.81,0.09,0.00,1.03,
1.274,1.21,0.31,0.81,0.09,0.00,1.03,
1.276,1.21,0.31,0.81,0.10,-0.00,1.03,
1.278,1.21,0.31,0.81,0.10,-0.01,1.02,
1.278,1.34,0.24,0.77,0.10,-0.01,1.02,
1.281,1.34,0.24,0.77,0.11,-0.01,1.02,
1.283,1.34,0.24,0.77,0.12,-0.01,1.01,
1.283,1.45,0.17,0.66,0.12,-0.01,1.01,
1.285,1.45,0.17,0.66,0.13,-0.02,1.00,
1.288,1.45,0.17,0.66,0.14,-0.02,0.99,
1.288,1.57,0.09,0.52,0.14,-0.02,0.99,
1.291,1.57,0.09,0.52,0.14,-0.02,0.98,
1.298,1.70,0.04,0.36,0.14,-0.02,0.98,
1.299,1.70,0.04,0.36,0.15,-0.02,0.97,
1.299,1.70,0.04,0.36,0.16,-0.02,0.97,
1.299,1.70,0.04,0.36,0.16,-0.02,0.96,
1.299,1.83,-0.00,0.19,0.16,-0.02,0.96,
1.3,1.83,-0.00,0.19,0.16,-0.02,0.96,
1.303,1.83,-0.00,0.19,0.16,-0.02,0.96,
1.303,1.89,0.02,0.08,0.16,-0.02,0.96,
1.305,1.89,0.02,0.08,0.16,-0.01,0.97,
1.308,1.89,0.02,0.08,0.15,-0.01,0.97,
1.308,1.90,0.08,0.03,0.15,-0.01,0.97,
1.31,1.90,0.08,0.03,0.14,-0.01,0.98,
1.312,1.90,0.08,0.03,0.13,-0.01,0.99,
1.313,1.83,0.15,0.10,0.13,-0.01,0.99,
1.315,1.83,0.15,0.10,0.12,-0.00,0.99,
1.317,1.83,0.15,0.10,0.11,-0.00,1.00,
1.318,1.66,0.20,0.21,0.11,-0.00,1.00,
1.32,1.66,0.20,0.21,0.10,0.00,1.01,
1.322,1.44,0.24,0.38,0.10,0.00,1.01,
1.322,1.44,0.24,0.38,0.09,0.00,1.02,
1.325,1.44,0.24,0.38,0.08,0.01,1.02,
1.327,1.44,0.24,0.38,0.07,0.01,1.03,
1.328,1.20,0.31,0.55,0.07,0.01,1.03,
1.33,1.20,0.31,0.55,0.06,0.02,1.04,
1.332,1.20,0.31,0.55,0.05,0.02,1.04,
1.332,0.98,0.39,0.67,0.05,0.02,1.04,
1.335,0.98,0.39,0.67,0.04,0.03,1.04,
1.337,0.98,0.39,0.67,0.04,0.03,1.05,
1.337,0.77,0.49,0.76,0.04,0.03,1.05,
1.339,0.77,0.49,0.76,0.03,0.04,1.05,
1.342,0.62,0.61,0.83,0.03,0.04,1.05,
1.343,0.62,0.61,0.83,0.03,0.04,1.05,
1.344,0.62,0.61,0.83,0.02,0.05,1.05,
1.347,0.62,0.61,0.83,0.02,0.05,1.05,
1.347,0.50,0.71,0.84,0.02,0.05,1.05,
1.349,0.50,0.71,0.84,0.02,0.05,1.05,
1.351,0.50,0.71,0.84,0.01,0.05,1.04,
1.352,0.40,0.79,0.84,0.01,0.05,1.04,
1.354,0.40,0.79,0.84,0.01,0.05,1.04,
1.356,0.40,0.79,0.84,0.01,0.05,1.04,
1.356,0.31,0.83,0.83,0.01,0.05,1.04,
1.359,0.31,0.83,0.83,0.00,0.05,1.04,
1.362,0.31,0.83,0.83,0.00,0.05,1.04,
1.362,0.22,0.86,0.81,0.00,0.05,1.04,
1.364,0.22,0.86,0.81,0.00,0.05,1.04,
1.366,0.22,0.86,0.81,-0.00,0.04,1.04,
1.366,0.16,0.83,0.79,-0.00,0.04,1.04,
1.369,0.16,0.83,0.79,-0.01,0.04,1.03,
1.371,0.16,0.83,0.79,-0.01,0.03,1.03,
1.371,0.10,0.79,0.76,-0.01,0.03,1.03,
1.373,0.10,0.79,0.76,-0.01,0.03,1.02,
1.378,0.10,0.79,0.76,-0.01,0.02,1.01,
1.379,0.01,0.69,0.67,-0.01,0.02,1.01,
1.379,0.01,0.69,0.67,-0.01,0.02,1.00,
1.381,0.01,0.69,0.67,-0.00,0.01,1.00,
1.381,-0.03,0.57,0.54,-0.00,0.01,1.00,
1.383,-0.03,0.57,0.54,0.00,0.01,0.99,
1.386,-0.03,0.57,0.54,0.01,0.01,0.98,
1.387,-0.01,0.51,0.38,0.01,0.01,0.98,
1.388,-0.01,0.51,0.38,0.01,0.01,0.98,
1.391,-0.01,0.51,0.38,0.02,0.01,0.97,
1.392,0.07,0.47,0.25,0.02,0.01,0.97,
1.393,0.07,0.47,0.25,0.02,0.01,0.97,
1.396,0.07,0.47,0.25,0.02,0.01,0.97,
1.396,0.13,0.46,0.15,0.02,0.01,0.97,
1.398,0.13,0.46,0.15,0.03,0.00,0.97,
1.4,0.13,0.46,0.15,0.03,0.00,0.98,
1.401,0.17,0.45,0.12,0.03,0.00,0.98,
1.403,0.17,0.45,0.12,0.03,-0.00,0.98,
1.405,0.17,0.45,0.12,0.03,-0.00,0.99,
1.405,0.19,0.42,0.15,0.03,-0.00,0.99,
1.408,0.19,0.42,0.15,0.03,-0.01,0.99,
1.41,0.19,0.42,0.15,0.03,-0.01,1.00,
1.41,0.19,0.37,0.23,0.03,-0.01,1.00,
1.413,0.19,0.37,0.23,0.03,-0.01,1.01,
1.415,0.19,0.37,0.23,0.03,-0.01,1.02,
1.415,0.17,0.35,0.34,0.03,-0.01,1.02,
1.418,0.17,0.35,0.34,0.03,-0.01,1.03,
1.42,0.17,0.35,0.34,0.02,-0.01,1.04,
1.42,0.14,0.34,0.51,0.02,-0.01,1.04,
1.423,0.14,0.34,0.51,0.02,-0.01,1.04,
1.425,0.14,0.34,0.51,0.01,-0.00,1.05,
1.426,0.08,0.36,0.70,0.01,-0.00,1.05,
1.427,0.08,0.36,0.70,0.01,-0.00,1.06,
1.43,0.08,0.36,0.70,0.00,0.00,1.07,
1.431,-0.04,0.40,0.86,0.00,0.00,1.07,
1.432,-0.04,0.40,0.86,-0.00,0.00,1.07,
1.435,-0.04,0.40,0.86,-0.01,0.00,1.08,
1.435,-0.17,0.44,1.01,-0.01,0.00,1.08,
1.437,-0.17,0.44,1.01,-0.01,0.00,1.08,
1.44,-0.17,0.44,1.01,-0.02,0.00,1.08,
1.44,-0.28,0.48,1.11,-0.02,0.00,1.08,
1.442,-0.28,0.48,1.11,-0.02,0.00,1.08,
1.445,-0.39,0.49,1.17,-0.02,0.00,1.08,
1.446,-0.39,0.49,1.17,-0.03,-0.00,1.08,
1.447,-0.39,0.49,1.17,-0.03,-0.00,1.08,
1.449,-0.39,0.49,1.17,-0.04,-0.00,1.08,
1.45,-0.53,0.49,1.20,-0.04,-0.00,1.08,
1.452,-0.53,0.49,1.20,-0.04,-0.00,1.08,
1.455,-0.53,0.49,1.20,-0.05,-0.00,1.08,
1.455,-0.66,0.48,1.19,-0.05,-0.00,1.08,
1.458,-0.66,0.48,1.19,-0.05,-0.00,1.07,
1.459,-0.66,0.48,1.19,-0.05,-0.01,1.07,
1.46,-0.79,0.46,1.15,-0.05,-0.01,1.07,
1.462,-0.79,0.46,1.15,-0.05,-0.01,1.07,
1.464,-0.86,0.44,1.08,-0.05,-0.01,1.07,
1.464,-0.86,0.44,1.08,-0.06,-0.01,1.06,
1.467,-0.86,0.44,1.08,-0.06,-0.01,1.06,
1.469,-0.86,0.44,1.08,-0.06,-0.01,1.06,
1.469,-0.91,0.40,1.01,-0.06,-0.01,1.06,
1.471,-0.91,0.40,1.01,-0.05,-0.01,1.05,
1.475,-0.91,0.40,1.01,-0.05,-0.01,1.05,
1.475,-0.93,0.39,0.94,-0.05,-0.01,1.05,
1.477,-0.93,0.39,0.94,-0.06,-0.01,1.05,
1.479,-0.93,0.39,0.94,-0.05,-0.01,1.04,
1.479,-0.93,0.38,0.87,-0.05,-0.01,1.04,
1.482,-0.93,0.38,0.87,-0.05,-0.01,1.04,
1.484,-0.93,0.38,0.87,-0.05,-0.02,1.04,
1.484,-0.94,0.37,0.82,-0.05,-0.02,1.04,
1.486,-0.94,0.37,0.82,-0.05,-0.02,1.04,
1.489,-0.94,0.37,0.82,-0.05,-0.02,1.04,
1.489,-0.94,0.34,0.80,-0.05,-0.02,1.04,
1.497,-0.94,0.34,0.80,-0.05,-0.03,1.04,
1.497,-0.94,0.34,0.80,-0.04,-0.03,1.04,
1.497,-0.91,0.28,0.76,-0.04,-0.03,1.04,
1.498,-0.91,0.28,0.76,-0.04,-0.04,1.03,
1.499,-0.91,0.28,0.76,-0.04,-0.04,1.03,
1.499,-0.88,0.20,0.75,-0.04,-0.04,1.03,
1.501,-0.88,0.20,0.75,-0.04,-0.05,1.03,
1.503,-0.88,0.20,0.75,-0.04,-0.05,1.03,
1.503,-0.88,0.08,0.70,-0.04,-0.05,1.03,
1.506,-0.88,0.08,0.70,-0.04,-0.05,1.03,
1.512,-0.88,0.08,0.70,-0.04,-0.06,1.02,
1.513,-0.89,-0.01,0.65,-0.04,-0.06,1.02,
1.513,-0.89,-0.01,0.65,-0.04,-0.06,1.02,
1.513,-0.89,-0.01,0.65,-0.04,-0.06,1.02,
1.515,-0.87,-0.07,0.62,-0.04,-0.06,1.02,
1.516,-0.87,-0.07,0.62,-0.03,-0.07,1.02,
1.518,-0.87,-0.07,0.62,-0.03,-0.07,1.02,
1.518,-0.86,-0.13,0.58,-0.03,-0.07,1.02,
1.52,-0.86,-0.13,0.58,-0.03,-0.07,1.01,
1.523,-0.86,-0.13,0.58,-0.03,-0.08,1.01,
1.523,-0.81,-0.20,0.56,-0.03,-0.08,1.01,
1.525,-0.81,-0.20,0.56,-0.03,-0.08,1.01,
1.528,-0.81,-0.20,0.56,-0.04,-0.08,1.01,
1.528,-0.82,-0.28,0.51,-0.04,-0.08,1.01,
1.53,-0.82,-0.28,0.51,-0.04,-0.09,1.01,
1.533,-0.82,-0.28,0.51,-0.04,-0.09,1.00,
1.533,-0.88,-0.33,0.47,-0.04,-0.09,1.00,
1.535,-0.88,-0.33,0.47,-0.04,-0.09,1.00,
1.538,-0.88,-0.33,0.47,-0.04,-0.09,1.00,
1.538,-0.92,-0.39,0.42,-0.04,-0.09,1.00,
1.541,-0.92,-0.39,0.42,-0.04,-0.10,1.00,
1.542,-0.92,-0.39,0.42,-0.04,-0.10,0.99,
1.543,-0.96,-0.43,0.37,-0.04,-0.10,0.99,
1.545,-0.96,-0.43,0.37,-0.03,-0.10,1.00,
1.547,-0.96,-0.43,0.37,-0.03,-0.09,1.00,
1.547,-0.98,-0.45,0.34,-0.03,-0.09,1.00,
1.55,-0.98,-0.45,0.34,-0.02,-0.09,1.01,
1.552,-0.98,-0.45,0.34,-0.02,-0.09,1.01,
1.552,-0.92,-0.44,0.36,-0.02,-0.09,1.01,
1.555,-0.92,-0.44,0.36,-0.02,-0.09,1.02,
1.557,-0.92,-0.44,0.36,-0.01,-0.10,1.02,
1.558,-0.82,-0.41,0.47,-0.01,-0.10,1.02,
1.56,-0.82,-0.41,0.47,-0.02,-0.10,1.03,
1.562,-0.82,-0.41,0.47,-0.02,-0.10,1.03,
1.563,-0.79,-0.41,0.58,-0.02,-0.10,1.03,
1.565,-0.79,-0.41,0.58,-0.02,-0.11,1.04,
1.567,-0.79,-0.41,0.58,-0.02,-0.11,1.04,
1.568,-0.83,-0.48,0.69,-0.02,-0.11,1.04,
1.57,-0.83,-0.48,0.69,-0.02,-0.12,1.04,
1.572,-0.83,-0.48,0.69,-0.02,-0.12,1.03,
1.572,-0.87,-0.58,0.74,-0.02,-0.12,1.03,
1.575,-0.87,-0.58,0.74,-0.02,-0.12,1.02,
1.577,-0.87,-0.58,0.74,-0.02,-0.12,1.02,
1.578,-0.92,-0.65,0.71,-0.02,-0.12,1.02,
1.579,-0.92,-0.65,0.71,-0.02,-0.12,1.01,
1.582,-0.92,-0.65,0.71,-0.01,-0.12,1.00,
1.582,-0.94,-0.68,0.59,-0.01,-0.12,1.00,
1.584,-0.94,-0.68,0.59,-0.01,-0.12,0.99,
1.587,-0.94,-0.68,0.59,-0.01,-0.11,0.98,
1.587,-0.89,-0.67,0.42,-0.01,-0.11,0.98,
1.589,-0.89,-0.67,0.42,-0.01,-0.11,0.97,
1.596,-0.89,-0.67,0.42,-0.01,-0.11,0.96,
1.597,-0.83,-0.63,0.25,-0.01,-0.11,0.96,
1.597,-0.83,-0.63,0.25,-0.02,-0.11,0.95,
1.598,-0.83,-0.63,0.25,-0.02,-0.11,0.94,
1.598,-0.85,-0.58,0.06,-0.02,-0.11,0.94,
1.599,-0.85,-0.58,0.06,-0.03,-0.11,0.93,
1.601,-0.85,-0.58,0.06,-0.03,-0.11,0.92,
1.602,-0.96,-0.58,-0.14,-0.03,-0.11,0.92,
1.604,-0.96,-0.58,-0.14,-0.04,-0.11,0.92,
1.606,-0.96,-0.58,-0.14,-0.05,-0.11,0.91,
1.606,-1.09,-0.59,-0.32,-0.05,-0.11,0.91,
1.609,-1.09,-0.59,-0.32,-0.06,-0.11,0.91,
1.611,-1.09,-0.59,-0.32,-0.06,-0.10,0.91,
1.611,-1.23,-0.59,-0.45,-0.06,-0.10,0.91,
1.614,-1.23,-0.59,-0.45,-0.06,-0.10,0.91,
1.616,-1.23,-0.59,-0.45,-0.07,-0.10,0.91,
1.616,-1.37,-0.56,-0.52,-0.07,-0.10,0.91,
1.619,-1.37,-0.56,-0.52,-0.07,-0.10,0.91,
1.621,-1.37,-0.56,-0.52,-0.07,-0.10,0.91,
1.621,-1.43,-0.52,-0.52,-0.07,-0.10,0.91,
1.624,-1.43,-0.52,-0.52,-0.08,-0.10,0.92,
1.626,-1.43,-0.52,-0.52,-0.08,-0.09,0.92,
1.626,-1.51,-0.49,-0.48,-0.08,-0.09,0.92,
1.629,-1.51,-0.49,-0.48,-0.09,-0.09,0.93,
1.631,-1.51,-0.49,-0.48,-0.09,-0.09,0.94,
1.631,-1.59,-0.47,-0.38,-0.09,-0.09,0.94,
1.634,-1.59,-0.47,-0.38,-0.10,-0.10,0.95,
1.636,-1.59,-0.47,-0.38,-0.10,-0.10,0.95,
1.636,-1.67,-0.46,-0.25,-0.10,-0.10,0.95,
1.638,-1.67,-0.46,-0.25,-0.10,-0.10,0.95,
1.641,-1.67,-0.46,-0.25,-0.10,-0.11,0.96,
1.641,-1.77,-0.50,-0.11,-0.10,-0.11,0.96,
1.643,-1.77,-0.50,-0.11,-0.10,-0.11,0.96,
1.646,-1.77,-0.50,-0.11,-0.10,-0.11,0.96,
1.646,-1.81,-0.55,-0.03,-0.10,-0.11,0.96,
1.648,-1.81,-0.55,-0.03,-0.09,-0.11,0.96,
1.65,-1.81,-0.55,-0.03,-0.09,-0.11,0.96,
1.651,-1.77,-0.59,0.01,-0.09,-0.11,0.96,
1.653,-1.77,-0.59,0.01,-0.08,-0.11,0.95,
1.655,-1.77,-0.59,0.01,-0.07,-0.11,0.95,
1.656,-1.71,-0.61,-0.02,-0.07,-0.11,0.95,
1.658,-1.71,-0.61,-0.02,-0.07,-0.11,0.94,
1.66,-1.71,-0.61,-0.02,-0.06,-0.11,0.93,
1.661,-1.59,-0.61,-0.08,-0.06,-0.11,0.93,
1.663,-1.59,-0.61,-0.08,-0.06,-0.12,0.93,
1.665,-1.59,-0.61,-0.08,-0.05,-0.12,0.92,
1.665,-1.50,-0.62,-0.20,-0.05,-0.12,0.92,
1.667,-1.50,-0.62,-0.20,-0.05,-0.12,0.91,
1.67,-1.50,-0.62,-0.20,-0.05,-0.12,0.90,
1.671,-1.44,-0.65,-0.34,-0.05,-0.12,0.90,
1.673,-1.44,-0.65,-0.34,-0.05,-0.13,0.90,
1.68,-1.44,-0.65,-0.34,-0.04,-0.13,0.89,
1.68,-1.40,-0.69,-0.49,-0.04,-0.13,0.89,
1.682,-1.40,-0.69,-0.49,-0.04,-0.13,0.89,
1.683,-1.40,-0.69,-0.49,-0.04,-0.13,0.88,
1.683,-1.37,-0.73,-0.62,-0.04,-0.13,0.88,
1.683,-1.37,-0.73,-0.62,-0.04,-0.13,0.88,
1.685,-1.37,-0.73,-0.62,-0.04,-0.13,0.88,
1.685,-1.36,-0.74,-0.72,-0.04,-0.13,0.88,
1.687,-1.36,-0.74,-0.72,-0.04,-0.13,0.88,
1.689,-1.36,-0.74,-0.72,-0.05,-0.13,0.88,
1.69,-1.36,-0.74,-0.76,-0.05,-0.13,0.88,
1.693,-1.36,-0.74,-0.76,-0.06,-0.13,0.88,
1.694,-1.36,-0.74,-0.76,-0.06,-0.13,0.89,
1.695,-1.40,-0.75,-0.74,-0.06,-0.13,0.89,
1.697,-1.40,-0.75,-0.74,-0.07,-0.13,0.89,
1.699,-1.40,-0.75,-0.74,-0.08,-0.13,0.90,
1.699,-1.53,-0.75,-0.69,-0.08,-0.13,0.90,
1.702,-1.53,-0.75,-0.69,-0.09,-0.13,0.91,
1.704,-1.53,-0.75,-0.69,-0.10,-0.12,0.91,
1.704,-1.67,-0.76,-0.59,-0.10,-0.12,0.91,
1.707,-1.67,-0.76,-0.59,-0.10,-0.12,0.92,
1.709,-1.84,-0.70,-0.45,-0.10,-0.12,0.92,
1.709,-1.84,-0.70,-0.45,-0.11,-0.11,0.93,
1.711,-1.84,-0.70,-0.45,-0.12,-0.11,0.94,
1.714,-1.84,-0.70,-0.45,-0.13,-0.10,0.95,
1.715,-1.99,-0.61,-0.29,-0.13,-0.10,0.95,
1.716,-1.99,-0.61,-0.29,-0.13,-0.09,0.96,
1.719,-1.99,-0.61,-0.29,-0.14,-0.09,0.96,
1.719,-2.14,-0.47,-0.09,-0.14,-0.09,0.96,
1.722,-2.14,-0.47,-0.09,-0.15,-0.08,0.97,
1.724,-2.14,-0.47,-0.09,-0.15,-0.08,0.97,
1.724,-2.27,-0.35,0.05,-0.15,-0.08,0.97,
1.726,-2.27,-0.35,0.05,-0.15,-0.08,0.98,
1.729,-2.27,-0.35,0.05,-0.16,-0.07,0.97,
1.729,-2.37,-0.26,0.15,-0.16,-0.07,0.97,
1.731,-2.37,-0.26,0.15,-0.15,-0.07,0.97,
1.733,-2.37,-0.26,0.15,-0.15,-0.07,0.97,
1.734,-2.42,-0.21,0.19,-0.15,-0.07,0.97,
1.736,-2.42,-0.21,0.19,-0.15,-0.07,0.97,
1.739,-2.42,-0.21,0.19,-0.15,-0.07,0.96,
1.739,-2.41,-0.16,0.15,-0.15,-0.07,0.96,
1.741,-2.41,-0.16,0.15,-0.14,-0.07,0.96,
1.743,-2.41,-0.16,0.15,-0.13,-0.07,0.95,
1.744,-2.36,-0.17,0.07,-0.13,-0.07,0.95,
1.746,-2.36,-0.17,0.07,-0.13,-0.07,0.94,
1.748,-2.36,-0.17,0.07,-0.12,-0.07,0.93,
1.749,-2.23,-0.16,-0.05,-0.12,-0.07,0.93,
1.751,-2.23,-0.16,-0.05,-0.11,-0.07,0.93,
1.753,-2.23,-0.16,-0.05,-0.10,-0.07,0.92,
1.754,-2.09,-0.17,-0.19,-0.10,-0.07,0.92,
1.756,-2.09,-0.17,-0.19,-0.10,-0.07,0.92,
1.758,-2.09,-0.17,-0.19,-0.10,-0.07,0.91,
1.759,-1.95,-0.16,-0.31,-0.10,-0.07,0.91,
1.761,-1.95,-0.16,-0.31,-0.10,-0.07,0.91,
1.763,-1.95,-0.16,-0.31,-0.10,-0.07,0.90,
1.763,-1.89,-0.17,-0.43,-0.10,-0.07,0.90,
1.765,-1.89,-0.17,-0.43,-0.09,-0.07,0.90,
1.768,-1.89,-0.17,-0.43,-0.09,-0.08,0.90,
1.768,-1.87,-0.19,-0.52,-0.09,-0.08,0.90,
1.77,-1.87,-0.19,-0.52,-0.10,-0.08,0.90,
1.779,-1.87,-0.19,-0.52,-0.10,-0.07,0.91,
1.78,-1.82,-0.18,-0.54,-0.10,-0.07,0.91,
1.78,-1.82,-0.18,-0.54,-0.10,-0.07,0.91,
1.78,-1.82,-0.18,-0.54,-0.10,-0.07,0.92,
1.78,-1.85,-0.17,-0.51,-0.10,-0.07,0.92,
1.781,-1.85,-0.17,-0.51,-0.11,-0.07,0.92,
1.782,-1.85,-0.17,-0.51,-0.12,-0.07,0.93,
1.783,-1.90,-0.11,-0.40,-0.12,-0.07,0.93,
1.785,-1.90,-0.11,-0.40,-0.12,-0.07,0.93,
1.787,-1.90,-0.11,-0.40,-0.13,-0.07,0.94,
1.788,-2.01,-0.10,-0.28,-0.13,-0.07,0.94,
1.79,-2.01,-0.10,-0.28,-0.14,-0.06,0.95,
1.792,-2.01,-0.10,-0.28,-0.14,-0.06,0.95,
1.793,-2.15,-0.07,-0.19,-0.14,-0.06,0.95,
1.795,-2.15,-0.07,-0.19,-0.15,-0.06,0.96,
1.797,-2.15,-0.07,-0.19,-0.16,-0.05,0.96,
1.797,-2.29,-0.03,-0.07,-0.16,-0.05,0.96,
1.8,-2.29,-0.03,-0.07,-0.16,-0.05,0.97,
1.802,-2.29,-0.03,-0.07,-0.17,-0.05,0.97,
1.802,-2.44,0.05,0.03,-0.17,-0.05,0.97,
1.804,-2.44,0.05,0.03,-0.17,-0.05,0.98,
1.807,-2.44,0.05,0.03,-0.18,-0.05,0.98,
1.808,-2.53,0.11,0.14,-0.18,-0.05,0.98,
1.81,-2.53,0.11,0.14,-0.18,-0.04,0.98,
1.812,-2.53,0.11,0.14,-0.18,-0.04,0.99,
1.812,-2.61,0.14,0.22,-0.18,-0.04,0.99,
1.814,-2.61,0.14,0.22,-0.18,-0.04,0.98,
1.817,-2.61,0.14,0.22,-0.18,-0.04,0.98,
1.817,-2.61,0.20,0.28,-0.18,-0.04,0.98,
1.819,-2.61,0.20,0.28,-0.18,-0.04,0.98,
1.822,-2.61,0.20,0.28,-0.17,-0.04,0.98,
1.822,-2.58,0.21,0.28,-0.17,-0.04,0.98,
1.824,-2.58,0.21,0.28,-0.17,-0.04,0.98,
1.827,-2.58,0.21,0.28,-0.16,-0.05,0.98,
1.827,-2.55,0.22,0.25,-0.16,-0.05,0.98,
1.829,-2.55,0.22,0.25,-0.16,-0.05,0.98,
1.831,-2.55,0.22,0.25,-0.15,-0.05,0.98,
1.832,-2.45,0.18,0.22,-0.15,-0.05,0.98,
1.834,-2.45,0.18,0.22,-0.14,-0.06,0.98,
1.836,-2.45,0.18,0.22,-0.13,-0.06,0.98,
1.837,-2.32,0.14,0.21,-0.13,-0.06,0.98,
1.839,-2.32,0.14,0.21,-0.13,-0.06,0.98,
1.842,-2.32,0.14,0.21,-0.12,-0.07,0.98,
1.842,-2.15,0.08,0.21,-0.12,-0.07,0.98,
1.844,-2.15,0.08,0.21,-0.12,-0.07,0.98,
1.846,-2.01,0.03,0.22,-0.12,-0.07,0.98,
1.847,-2.01,0.03,0.22,-0.11,-0.07,0.98,
1.849,-2.01,0.03,0.22,-0.11,-0.07,0.98,
1.851,-1.91,0.00,0.23,-0.11,-0.07,0.98,
1.851,-1.91,0.00,0.23,-0.10,-0.07,0.98,
1.854,-1.91,0.00,0.23,-0.10,-0.07,0.98,
1.858,-1.91,0.00,0.23,-0.10,-0.07,0.98,
1.858,-1.83,0.02,0.24,-0.10,-0.07,0.98,
1.859,-1.83,0.02,0.24,-0.10,-0.07,0.98,
1.861,-1.83,0.02,0.24,-0.10,-0.06,0.99,
1.862,-1.79,0.05,0.25,-0.10,-0.06,0.99,
1.864,-1.79,0.05,0.25,-0.10,-0.06,0.99,
1.866,-1.79,0.05,0.25,-0.10,-0.06,0.99,
1.866,-1.77,0.09,0.29,-0.10,-0.06,0.99,
1.868,-1.77,0.09,0.29,-0.10,-0.05,0.99,
1.871,-1.77,0.09,0.29,-0.10,-0.05,1.00,
1.871,-1.76,0.16,0.35,-0.10,-0.05,1.00,
1.874,-1.76,0.16,0.35,-0.10,-0.04,1.00,
1.876,-1.76,0.16,0.35,-0.11,-0.04,0.99,
1.876,-1.76,0.27,0.38,-0.11,-0.04,0.99,
1.878,-1.76,0.27,0.38,-0.11,-0.03,0.99,
1.881,-1.76,0.27,0.38,-0.12,-0.03,0.99,
1.881,-1.83,0.36,0.38,-0.12,-0.03,0.99,
1.883,-1.83,0.36,0.38,-0.12,-0.03,0.98,
1.886,-1.83,0.36,0.38,-0.12,-0.02,0.98,
1.886,-1.93,0.45,0.33,-0.12,-0.02,0.98,
1.888,-1.93,0.45,0.33,-0.13,-0.02,0.98,
1.896,-1.93,0.45,0.33,-0.13,-0.01,0.98,
1.896,-2.00,0.53,0.27,-0.13,-0.01,0.98,
1.896,-2.00,0.53,0.27,-0.13,-0.01,0.98,
1.897,-2.00,0.53,0.27,-0.13,0.00,0.98,
1.897,-2.06,0.65,0.24,-0.13,0.00,0.98,
1.898,-2.06,0.65,0.24,-0.14,0.00,0.98,
1.9,-2.06,0.65,0.24,-0.14,0.01,0.98,
1.9,-2.10,0.78,0.24,-0.14,0.01,0.98,
1.902,-2.10,0.78,0.24,-0.14,0.01,0.98,
1.905,-2.14,0.85,0.25,-0.14,0.01,0.98,
1.905,-2.14,0.85,0.25,-0.14,0.01,0.99,
1.909,-2.14,0.85,0.25,-0.14,0.00,0.99,
1.91,-2.14,0.85,0.25,-0.14,0.00,0.99,
1.91,-2.13,0.88,0.29,-0.14,0.00,0.99,
1.912,-2.13,0.88,0.29,-0.14,-0.00,0.98,
1.915,-2.13,0.88,0.29,-0.14,-0.00,0.99,
1.915,-2.13,0.85,0.30,-0.14,-0.00,0.99,
1.917,-2.13,0.85,0.30,-0.13,-0.01,0.98,
1.92,-2.13,0.85,0.30,-0.12,-0.01,0.99,
1.92,-2.10,0.81,0.29,-0.12,-0.01,0.99,
1.922,-2.10,0.81,0.29,-0.12,-0.01,0.99,
1.925,-2.10,0.81,0.29,-0.11,-0.01,0.99,
1.925,-1.99,0.76,0.28,-0.11,-0.01,0.99,
1.927,-1.99,0.76,0.28,-0.10,-0.01,0.99,
1.93,-1.99,0.76,0.28,-0.09,-0.00,0.99,
1.93,-1.82,0.74,0.31,-0.09,-0.00,0.99,
1.932,-1.82,0.74,0.31,-0.08,-0.00,1.00,
1.934,-1.82,0.74,0.31,-0.07,0.00,1.00,
1.934,-1.64,0.80,0.34,-0.07,0.00,1.00,
1.937,-1.64,0.80,0.34,-0.07,0.00,1.00,
1.94,-1.64,0.80,0.34,-0.06,0.00,1.00,
1.941,-1.44,0.86,0.40,-0.06,0.00,1.00,
1.942,-1.44,0.86,0.40,-0.06,0.01,1.01,
1.945,-1.44,0.86,0.40,-0.05,0.01,1.01,
1.945,-1.28,0.89,0.45,-0.05,0.01,1.01,
1.947,-1.28,0.89,0.45,-0.05,0.01,1.01,
1.949,-1.28,0.89,0.45,-0.05,0.01,1.02,
1.95,-1.17,0.94,0.52,-0.05,0.01,1.02,
1.952,-1.17,0.94,0.52,-0.05,0.01,1.02,
1.954,-1.08,0.95,0.57,-0.05,0.01,1.02,
1.954,-1.08,0.95,0.57,-0.05,0.01,1.02,
1.957,-1.08,0.95,0.57,-0.05,0.01,1.02,
1.959,-1.08,0.95,0.57,-0.06,0.01,1.03,
1.959,-1.06,0.97,0.62,-0.06,0.01,1.03,
1.962,-1.06,0.97,0.62,-0.06,0.01,1.03,
1.964,-1.06,0.97,0.62,-0.07,0.02,1.04,
1.964,-1.09,1.00,0.66,-0.07,0.02,1.04,
1.966,-1.09,1.00,0.66,-0.07,0.02,1.04,
1.969,-1.09,1.00,0.66,-0.08,0.02,1.04,
1.969,-1.17,1.03,0.74,-0.08,0.02,1.04,
1.971,-1.17,1.03,0.74,-0.08,0.02,1.05,
1.974,-1.17,1.03,0.74,-0.09,0.02,1.06,
1.974,-1.22,1.07,0.81,-0.09,0.02,1.06,
1.976,-1.22,1.07,0.81,-0.09,0.02,1.06,
1.979,-1.22,1.07,0.81,-0.10,0.02,1.07,
1.979,-1.30,1.09,0.91,-0.10,0.02,1.07,
1.981,-1.30,1.09,0.91,-0.10,0.02,1.07,
1.983,-1.30,1.09,0.91,-0.11,0.02,1.08,
1.984,-1.38,1.11,1.00,-0.11,0.02,1.08,
1.986,-1.38,1.11,1.00,-0.11,0.02,1.08,
1.988,-1.38,1.11,1.00,-0.11,0.02,1.09,
1.989,-1.41,1.10,1.12,-0.11,0.02,1.09,
1.996,-1.41,1.10,1.12,-0.11,0.02,1.09,
1.996,-1.41,1.10,1.12,-0.11,0.02,1.09,
1.997,-1.43,1.08,1.20,-0.11,0.02,1.09,
1.997,-1.43,1.08,1.20,-0.10,0.02,1.09,
1.998,-1.43,1.08,1.20,-0.09,0.02,1.09,
1.998,-1.40,1.05,1.24,-0.09,0.02,1.09,
2.0,-1.40,1.05,1.24,-0.09,0.02,1.09,
2.003,-1.40,1.05,1.24,-0.08,0.01,1.09,
2.004,-1.27,1.03,1.25,-0.08,0.01,1.09,
2.007,-1.27,1.03,1.25,-0.07,0.01,1.08,
2.008,-1.27,1.03,1.25,-0.06,0.01,1.08,
2.008,-1.09,1.02,1.20,-0.06,0.01,1.08,
2.01,-1.09,1.02,1.20,-0.05,0.00,1.07,
2.013,-1.09,1.02,1.20,-0.04,0.00,1.06,
2.013,-0.93,0.97,1.11,-0.04,0.00,1.06,
2.015,-0.93,0.97,1.11,-0.03,-0.00,1.06,
2.017,-0.93,0.97,1.11,-0.03,-0.01,1.05,
2.018,-0.72,0.90,0.98,-0.03,-0.01,1.05,
2.02,-0.72,0.90,0.98,-0.02,-0.01,1.04,
2.022,-0.72,0.90,0.98,-0.01,-0.01,1.04,
2.023,-0.55,0.83,0.84,-0.01,-0.01,1.04,
2.025,-0.55,0.83,0.84,-0.01,-0.01,1.03,
2.027,-0.55,0.83,0.84,0.00,-0.01,1.02,
2.028,-0.42,0.79,0.70,0.00,-0.01,1.02,
2.03,-0.42,0.79,0.70,0.01,-0.01,1.02,
2.032,-0.42,0.79,0.70,0.01,-0.02,1.02,
2.032,-0.27,0.77,0.58,0.01,-0.02,1.02,
2.035,-0.27,0.77,0.58,0.01,-0.02,1.02,
2.037,-0.27,0.77,0.58,0.02,-0.02,1.02,
2.037,-0.15,0.75,0.51,0.02,-0.02,1.02,
2.039,-0.15,0.75,0.51,0.01,-0.03,1.01,
2.042,-0.15,0.75,0.51,0.01,-0.03,1.01,
2.042,-0.09,0.70,0.47,0.01,-0.03,1.01,
2.044,-0.09,0.70,0.47,0.01,-0.02,1.01,
2.047,-0.09,0.70,0.47,0.01,-0.02,1.01,
2.047,-0.06,0.66,0.44,0.01,-0.02,1.01,
2.049,-0.06,0.66,0.44,0.00,-0.02,1.02,
2.052,-0.06,0.66,0.44,-0.00,-0.02,1.02,
2.052,-0.09,0.69,0.44,-0.00,-0.02,1.02,
2.054,-0.09,0.69,0.44,-0.00,-0.01,1.03,
2.057,-0.09,0.69,0.44,-0.01,-0.01,1.03,
2.057,-0.14,0.76,0.51,-0.01,-0.01,1.03,
2.059,-0.14,0.76,0.51,-0.01,-0.01,1.04,
2.062,-0.14,0.76,0.51,-0.01,-0.01,1.05,
2.062,-0.19,0.80,0.63,-0.01,-0.01,1.05,
2.064,-0.19,0.80,0.63,-0.02,-0.01,1.06,
2.067,-0.19,0.80,0.63,-0.02,-0.01,1.06,
2.067,-0.23,0.83,0.75,-0.02,-0.01,1.06,
2.069,-0.23,0.83,0.75,-0.02,-0.01,1.07,
2.071,-0.23,0.83,0.75,-0.02,-0.01,1.08,
2.077,-0.26,0.86,0.91,-0.02,-0.01,1.08,
2.078,-0.26,0.86,0.91,-0.01,-0.01,1.08,
2.078,-0.26,0.86,0.91,-0.01,-0.00,1.09,
2.079,-0.24,0.88,1.03,-0.01,-0.00,1.09,
2.079,-0.24,0.88,1.03,-0.01,-0.00,1.09,
2.081,-0.24,0.88,1.03,-0.00,0.00,1.10,
2.082,-0.17,0.91,1.13,-0.00,0.00,1.10,
2.084,-0.17,0.91,1.13,0.00,0.00,1.10,
2.086,-0.17,0.91,1.13,0.01,0.00,1.10,
2.086,-0.08,0.95,1.22,0.01,0.00,1.10,
2.089,-0.08,0.95,1.22,0.02,0.01,1.11,
2.091,-0.08,0.95,1.22,0.03,0.00,1.11,
2.092,0.06,0.98,1.30,0.03,0.00,1.11,
2.094,0.06,0.98,1.30,0.04,0.00,1.10,
2.096,0.06,0.98,1.30,0.05,0.00,1.10,
2.096,0.25,1.01,1.36,0.05,0.00,1.10,
2.099,0.25,1.01,1.36,0.05,0.00,1.10,
2.101,0.25,1.01,1.36,0.05,0.00,1.10,
2.101,0.41,1.00,1.33,0.05,0.00,1.10,
2.103,0.41,1.00,1.33,0.06,0.00,1.10,
2.106,0.41,1.00,1.33,0.07,0.00,1.10,
2.106,0.50,0.99,1.32,0.07,0.00,1.10,
2.108,0.50,0.99,1.32,0.07,0.00,1.09,
2.111,0.50,0.99,1.32,0.07,0.00,1.09,
2.111,0.64,0.99,1.26,0.07,0.00,1.09,
2.113,0.64,0.99,1.26,0.08,0.00,1.09,
2.116,0.64,0.99,1.26,0.08,0.01,1.08,
2.116,0.71,0.99,1.19,0.08,0.01,1.08,
2.118,0.71,0.99,1.19,0.08,0.01,1.08,
2.12,0.71,0.99,1.19,0.08,0.01,1.08,
2.121,0.78,1.02,1.13,0.08,0.01,1.08,
2.123,0.78,1.02,1.13,0.08,0.01,1.07,
2.126,0.78,1.02,1.13,0.07,0.01,1.07,
2.126,0.81,1.05,1.06,0.07,0.01,1.07,
2.128,0.81,1.05,1.06,0.07,0.01,1.07,
2.13,0.81,1.05,1.06,0.07,0.01,1.07,
2.131,0.80,1.06,1.01,0.07,0.01,1.07,
2.133,0.80,1.06,1.01,0.07,0.01,1.06,
2.135,0.80,1.06,1.01,0.06,0.01,1.06,
2.135,0.74,1.07,0.95,0.06,0.01,1.06,
2.138,0.74,1.07,0.95,0.06,0.01,1.06,
2.14,0.74,1.07,0.95,0.06,0.01,1.06,
2.141,0.71,1.08,0.91,0.06,0.01,1.06,
2.143,0.71,1.08,0.91,0.06,0.02,1.06,
2.145,0.71,1.08,0.91,0.06,0.02,1.06,
2.145,0.68,1.10,0.89,0.06,0.02,1.06,
2.147,0.68,1.10,0.89,0.06,0.01,1.07,
2.15,0.68,1.10,0.89,0.06,0.01,1.07,
2.15,0.67,1.12,0.91,0.06,0.01,1.07,
2.152,0.67,1.12,0.91,0.06,0.01,1.07,
2.155,0.67,1.12,0.91,0.07,0.01,1.08,
2.155,0.71,1.09,0.97,0.07,0.01,1.08,
2.157,0.71,1.09,0.97,0.07,-0.00,1.08,
2.16,0.71,1.09,0.97,0.08,-0.01,1.09,
2.16,0.76,1.02,1.03,0.08,-0.01,1.09,
2.162,0.76,1.02,1.03,0.08,-0.02,1.09,
2.164,0.76,1.02,1.03,0.09,-0.02,1.09,
2.165,0.86,0.91,1.11,0.09,-0.02,1.09,
2.167,0.86,0.91,1.11,0.09,-0.03,1.10,
2.169,0.86,0.91,1.11,0.10,-0.04,1.10,
2.17,0.98,0.75,1.20,0.10,-0.04,1.10,
2.177,0.98,0.75,1.20,0.11,-0.04,1.10,
2.178,0.98,0.75,1.20,0.12,-0.05,1.11,
2.178,1.11,0.62,1.26,0.12,-0.05,1.11,
2.179,1.11,0.62,1.26,0.13,-0.06,1.11,
2.179,1.11,0.62,1.26,0.13,-0.06,1.11,
2.179,1.27,0.48,1.33,0.13,-0.06,1.11,
2.182,1.27,0.48,1.33,0.14,-0.07,1.11,
2.184,1.27,0.48,1.33,0.15,-0.07,1.11,
2.184,1.48,0.36,1.36,0.15,-0.07,1.11,
2.186,1.48,0.36,1.36,0.15,-0.08,1.11,
2.189,1.48,0.36,1.36,0.16,-0.08,1.11,
2.189,1.62,0.26,1.37,0.16,-0.08,1.11,
2.192,1.62,0.26,1.37,0.17,-0.08,1.10,
2.194,1.62,0.26,1.37,0.18,-0.09,1.10,
2.195,1.78,0.16,1.33,0.18,-0.09,1.10,
2.196,1.78,0.16,1.33,0.18,-0.09,1.10,
2.199,1.78,0.16,1.33,0.19,-0.09,1.09,
2.199,1.93,0.08,1.29,0.19,-0.09,1.09,
2.201,1.93,0.08,1.29,0.19,-0.09,1.09,
2.204,1.93,0.08,1.29,0.19,-0.09,1.09,
2.204,2.03,0.04,1.21,0.19,-0.09,1.09,
2.206,2.03,0.04,1.21,0.18,-0.09,1.08,
2.209,2.03,0.04,1.21,0.17,-0.09,1.08,
2.209,2.07,0.05,1.14,0.17,-0.09,1.08,
2.211,2.07,0.05,1.14,0.17,-0.09,1.08,
2.213,2.07,0.05,1.14,0.16,-0.08,1.07,
2.214,1.99,0.05,1.06,0.16,-0.08,1.07,
2.216,1.99,0.05,1.06,0.16,-0.08,1.07,
2.219,1.99,0.05,1.06,0.16,-0.08,1.07,
2.219,1.88,0.05,1.01,0.16,-0.08,1.07,
2.221,1.88,0.05,1.01,0.15,-0.08,1.07,
2.223,1.88,0.05,1.01,0.15,-0.08,1.07,
2.224,1.80,0.05,0.97,0.15,-0.08,1.07,
2.226,1.80,0.05,0.97,0.14,-0.08,1.06,
2.228,1.80,0.05,0.97,0.14,-0.08,1.06,
2.229,1.72,0.10,0.94,0.14,-0.08,1.06,
2.231,1.72,0.10,0.94,0.13,-0.08,1.06,
2.233,1.72,0.10,0.94,0.13,-0.08,1.05,
2.233,1.61,0.11,0.88,0.13,-0.08,1.05,
2.236,1.61,0.11,0.88,0.13,-0.08,1.05,
2.239,1.61,0.11,0.88,0.12,-0.08,1.05,
2.24,1.52,0.09,0.79,0.12,-0.08,1.05,
2.24,1.52,0.09,0.79,0.12,-0.08,1.04,
2.243,1.52,0.09,0.79,0.12,-0.09,1.04,
2.243,1.46,0.06,0.75,0.12,-0.09,1.04,
2.245,1.46,0.06,0.75,0.12,-0.09,1.04,
2.248,1.46,0.06,0.75,0.13,-0.09,1.04,
2.248,1.44,0.01,0.68,0.13,-0.09,1.04,
2.25,1.44,0.01,0.68,0.13,-0.10,1.03,
2.253,1.44,0.01,0.68,0.14,-0.10,1.03,
2.253,1.46,-0.05,0.63,0.14,-0.10,1.03,
2.256,1.46,-0.05,0.63,0.14,-0.10,1.03,
2.258,1.46,-0.05,0.63,0.14,-0.11,1.03,
2.258,1.53,-0.14,0.58,0.14,-0.11,1.03,
2.26,1.53,-0.14,0.58,0.15,-0.11,1.03,
2.262,1.53,-0.14,0.58,0.15,-0.12,1.03,
2.263,1.60,-0.23,0.55,0.15,-0.12,1.03,
2.265,1.60,-0.23,0.55,0.15,-0.12,1.03,
2.267,1.60,-0.23,0.55,0.15,-0.12,1.03,
2.267,1.66,-0.32,0.54,0.15,-0.12,1.03,
2.27,1.66,-0.32,0.54,0.15,-0.13,1.03,
2.272,1.66,-0.32,0.54,0.15,-0.13,1.03,
2.273,1.70,-0.39,0.55,0.15,-0.13,1.03,
2.275,1.70,-0.39,0.55,0.15,-0.13,1.03,
2.277,1.70,-0.39,0.55,0.15,-0.14,1.03,
2.277,1.73,-0.48,0.58,0.15,-0.14,1.03,
2.28,1.73,-0.48,0.58,0.15,-0.14,1.03,
2.282,1.73,-0.48,0.58,0.15,-0.14,1.03,
2.282,1.72,-0.56,0.58,0.15,-0.14,1.03,
2.285,1.72,-0.56,0.58,0.15,-0.14,1.02,
2.287,1.72,-0.56,0.58,0.15,-0.14,1.02,
2.288,1.70,-0.60,0.55,0.15,-0.14,1.02,
2.295,1.70,-0.60,0.55,0.15,-0.14,1.01,
2.295,1.70,-0.60,0.55,0.15,-0.14,1.01,
2.295,1.70,-0.66,0.46,0.15,-0.14,1.01,
2.296,1.70,-0.66,0.46,0.15,-0.14,1.00,
2.297,1.70,-0.66,0.46,0.15,-0.14,1.00,
2.297,1.72,-0.67,0.36,0.15,-0.14,1.00,
2.299,1.72,-0.67,0.36,0.15,-0.14,0.99,
2.302,1.72,-0.67,0.36,0.15,-0.14,0.99,
2.302,1.70,-0.69,0.24,0.15,-0.14,0.99,
2.311,1.70,-0.69,0.24,0.15,-0.14,0.98,
2.311,1.70,-0.69,0.24,0.15,-0.14,0.98,
2.312,1.68,-0.70,0.14,0.15,-0.14,0.98,
2.312,1.68,-0.70,0.14,0.14,-0.14,0.97,
2.312,1.68,-0.70,0.14,0.14,-0.14,0.97,
2.312,1.66,-0.71,0.03,0.14,-0.14,0.97,
2.314,1.66,-0.71,0.03,0.14,-0.14,0.96,
2.316,1.66,-0.71,0.03,0.14,-0.15,0.96,
2.316,1.62,-0.71,-0.06,0.14,-0.15,0.96,
2.319,1.62,-0.71,-0.06,0.14,-0.15,0.95,
2.322,1.62,-0.71,-0.06,0.14,-0.15,0.94,
2.322,1.59,-0.77,-0.15,0.14,-0.15,0.94,
2.324,1.59,-0.77,-0.15,0.13,-0.15,0.94,
2.326,1.59,-0.77,-0.15,0.13,-0.16,0.94,
2.326,1.56,-0.84,-0.26,0.13,-0.16,0.94,
2.329,1.56,-0.84,-0.26,0.12,-0.15,0.93,
2.331,1.56,-0.84,-0.26,0.12,-0.15,0.93,
2.331,1.48,-0.87,-0.37,0.12,-0.15,0.93,
2.333,1.48,-0.87,-0.37,0.12,-0.15,0.93,
2.336,1.48,-0.87,-0.37,0.12,-0.15,0.93,
2.336,1.39,-0.84,-0.45,0.12,-0.15,0.93,
2.339,1.39,-0.84,-0.45,0.12,-0.14,0.93,
2.341,1.39,-0.84,-0.45,0.12,-0.14,0.93,
2.341,1.37,-0.80,-0.47,0.12,-0.14,0.93,
2.343,1.37,-0.80,-0.47,0.12,-0.14,0.93,
2.346,1.37,-0.80,-0.47,0.11,-0.14,0.94,
2.346,1.35,-0.77,-0.44,0.11,-0.14,0.94,
2.348,1.35,-0.77,-0.44,0.11,-0.15,0.94,
2.35,1.35,-0.77,-0.44,0.11,-0.14,0.95,
2.351,1.26,-0.78,-0.38,0.11,-0.14,0.95,
2.353,1.26,-0.78,-0.38,0.11,-0.14,0.95,
2.356,1.26,-0.78,-0.38,0.11,-0.14,0.96,
2.357,1.21,-0.79,-0.30,0.11,-0.14,0.96,
2.358,1.21,-0.79,-0.30,0.12,-0.14,0.96,
2.36,1.21,-0.79,-0.30,0.12,-0.14,0.97,
2.361,1.23,-0.77,-0.18,0.12,-0.14,0.97,
2.363,1.23,-0.77,-0.18,0.12,-0.14,0.97,
2.365,1.23,-0.77,-0.18,0.12,-0.15,0.98,
2.366,1.27,-0.77,-0.08,0.12,-0.15,0.98,
2.368,1.27,-0.77,-0.08,0.12,-0.15,0.98,
2.371,1.27,-0.77,-0.08,0.12,-0.15,0.98,
2.371,1.34,-0.80,0.01,0.12,-0.15,0.98,
2.378,1.34,-0.80,0.01,0.12,-0.15,0.98,
2.378,1.34,-0.80,0.01,0.12,-0.16,0.98,
2.379,1.35,-0.89,0.05,0.12,-0.16,0.98,
2.379,1.35,-0.89,0.05,0.12,-0.16,0.97,
2.38,1.35,-0.89,0.05,0.12,-0.16,0.97,
2.38,1.34,-0.94,0.02,0.12,-0.16,0.97,
2.382,1.34,-0.94,0.02,0.12,-0.16,0.96,
2.385,1.34,-0.94,0.02,0.12,-0.16,0.96,
2.385,1.35,-0.99,-0.03,0.12,-0.16,0.96,
2.387,1.35,-0.99,-0.03,0.11,-0.16,0.95,
2.39,1.35,-0.99,-0.03,0.11,-0.16,0.95,
2.391,1.30,-1.02,-0.13,0.11,-0.16,0.95,
2.392,1.30,-1.02,-0.13,0.11,-0.16,0.94,
2.395,1.30,-1.02,-0.13,0.10,-0.16,0.94,
2.395,1.25,-1.02,-0.25,0.10,-0.16,0.94,
2.397,1.25,-1.02,-0.25,0.09,-0.16,0.93,
2.399,1.25,-1.02,-0.25,0.09,-0.16,0.92,
2.4,1.17,-1.03,-0.35,0.09,-0.16,0.92,
2.402,1.17,-1.03,-0.35,0.08,-0.16,0.92,
2.405,1.17,-1.03,-0.35,0.08,-0.16,0.91,
2.406,1.04,-1.07,-0.47,0.08,-0.16,0.91,
2.407,1.04,-1.07,-0.47,0.07,-0.16,0.91,
2.41,1.04,-1.07,-0.47,0.07,-0.15,0.90,
2.41,0.96,-1.07,-0.60,0.07,-0.15,0.90,
2.412,0.96,-1.07,-0.60,0.07,-0.15,0.90,
2.414,0.96,-1.07,-0.60,0.06,-0.15,0.90,
2.414,0.87,-1.03,-0.70,0.06,-0.15,0.90,
2.417,0.87,-1.03,-0.70,0.06,-0.14,0.90,
2.419,0.87,-1.03,-0.70,0.06,-0.14,0.90,
2.42,0.79,-0.97,-0.74,0.06,-0.14,0.90,
2.422,0.79,-0.97,-0.74,0.05,-0.14,0.90,
2.425,0.79,-0.97,-0.74,0.04,-0.14,0.91,
2.425,0.74,-0.90,-0.73,0.04,-0.14,0.91,
2.426,0.74,-0.90,-0.73,0.04,-0.14,0.91,
2.429,0.74,-0.90,-0.73,0.03,-0.14,0.91,
2.429,0.60,-0.86,-0.71,0.03,-0.14,0.91,
2.431,0.60,-0.86,-0.71,0.03,-0.14,0.92,
2.434,0.60,-0.86,-0.71,0.02,-0.13,0.93,
2.434,0.49,-0.87,-0.62,0.02,-0.13,0.93,
2.437,0.49,-0.87,-0.62,0.02,-0.13,0.93,
2.439,0.49,-0.87,-0.62,0.01,-0.13,0.94,
2.439,0.38,-0.86,-0.51,0.01,-0.13,0.94,
2.442,0.38,-0.86,-0.51,0.01,-0.12,0.95,
2.444,0.38,-0.86,-0.51,0.01,-0.12,0.96,
2.444,0.28,-0.78,-0.39,0.01,-0.12,0.96,
2.446,0.28,-0.78,-0.39,0.01,-0.12,0.96,
2.448,0.28,-0.78,-0.39,0.00,-0.12,0.97,
2.449,0.22,-0.72,-0.23,0.00,-0.12,0.97,
2.451,0.22,-0.72,-0.23,-0.00,-0.12,0.97,
2.454,0.22,-0.72,-0.23,-0.00,-0.12,0.97,
2.454,0.17,-0.67,-0.10,-0.00,-0.12,0.97,
2.456,0.17,-0.67,-0.10,-0.01,-0.12,0.97,
2.459,0.17,-0.67,-0.10,-0.01,-0.11,0.97,
2.459,0.11,-0.67,-0.03,-0.01,-0.11,0.97,
2.461,0.11,-0.67,-0.03,-0.00,-0.12,0.97,
2.463,0.11,-0.67,-0.03,-0.01,-0.12,0.96,
2.463,0.06,-0.67,-0.02,-0.01,-0.12,0.96,
2.466,0.06,-0.67,-0.02,-0.00,-0.12,0.95,
2.468,0.06,-0.67,-0.02,0.00,-0.12,0.95,
2.468,0.07,-0.68,-0.11,0.00,-0.12,0.95,
2.47,0.07,-0.68,-0.11,0.00,-0.12,0.94,
2.477,0.07,-0.68,-0.11,0.01,-0.12,0.93,
2.477,0.11,-0.70,-0.25,0.01,-0.12,0.93,
2.478,0.11,-0.70,-0.25,0.01,-0.12,0.92,
2.478,0.17,-0.71,-0.40,0.01,-0.12,0.92,
2.478,0.17,-0.71,-0.40,0.01,-0.12,0.92,
2.48,0.17,-0.71,-0.40,0.02,-0.12,0.91,
2.483,0.17,-0.71,-0.40,0.02,-0.12,0.91,
2.483,0.23,-0.74,-0.54,0.02,-0.12,0.91,
2.485,0.23,-0.74,-0.54,0.02,-0.12,0.90,
2.488,0.23,-0.74,-0.54,0.02,-0.12,0.90,
2.488,0.27,-0.75,-0.65,0.02,-0.12,0.90,
2.49,0.27,-0.75,-0.65,0.03,-0.12,0.90,
2.493,0.27,-0.75,-0.65,0.03,-0.12,0.90,
2.495,0.30,-0.77,-0.73,0.03,-0.12,0.90,
2.495,0.30,-0.77,-0.73,0.03,-0.12,0.91,
2.497,0.30,-0.77,-0.73,0.03,-0.12,0.91,
2.498,0.36,-0.78,-0.72,0.03,-0.12,0.91,
2.5,0.36,-0.78,-0.72,0.03,-0.12,0.92,
2.502,0.36,-0.78,-0.72,0.03,-0.12,0.92,
2.502,0.38,-0.77,-0.67,0.03,-0.12,0.92,
2.505,0.38,-0.77,-0.67,0.03,-0.11,0.93,
2.507,0.38,-0.77,-0.67,0.02,-0.11,0.93,
2.507,0.36,-0.75,-0.57,0.02,-0.11,0.93,
2.51,0.36,-0.75,-0.57,0.02,-0.11,0.94,
2.512,0.36,-0.75,-0.57,0.02,-0.11,0.94,
2.512,0.32,-0.69,-0.45,0.02,-0.11,0.94,
2.514,0.32,-0.69,-0.45,0.01,-0.11,0.95,
2.517,0.32,-0.69,-0.45,0.01,-0.10,0.95,
2.517,0.25,-0.65,-0.33,0.01,-0.10,0.95,
2.519,0.25,-0.65,-0.33,0.01,-0.10,0.95,
2.522,0.25,-0.65,-0.33,0.00,-0.10,0.95,
2.523,0.18,-0.60,-0.26,0.00,-0.10,0.95,
2.525,0.18,-0.60,-0.26,-0.00,-0.10,0.95,
2.527,0.18,-0.60,-0.26,-0.01,-0.09,0.95,
2.527,0.10,-0.55,-0.23,-0.01,-0.09,0.95,
2.529,0.10,-0.55,-0.23,-0.01,-0.09,0.94,
2.532,0.10,-0.55,-0.23,-0.01,-0.09,0.94,
2.532,0.02,-0.51,-0.25,-0.01,-0.09,0.94,
2.534,0.02,-0.51,-0.25,-0.02,-0.09,0.94,
2.537,0.02,-0.51,-0.25,-0.02,-0.08,0.93,
2.537,-0.07,-0.47,-0.32,-0.02,-0.08,0.93,
2.539,-0.07,-0.47,-0.32,-0.02,-0.08,0.93,
2.542,-0.07,-0.47,-0.32,-0.02,-0.08,0.92,
2.542,-0.12,-0.42,-0.41,-0.02,-0.08,0.92,
2.544,-0.12,-0.42,-0.41,-0.02,-0.07,0.92,
2.546,-0.12,-0.42,-0.41,-0.02,-0.07,0.92,
2.547,-0.15,-0.37,-0.52,-0.02,-0.07,0.92,
2.549,-0.15,-0.37,-0.52,-0.02,-0.07,0.91,
2.551,-0.15,-0.37,-0.52,-0.02,-0.07,0.91,
2.552,-0.15,-0.33,-0.58,-0.02,-0.07,0.91,
2.555,-0.15,-0.33,-0.58,-0.02,-0.07,0.91,
2.557,-0.15,-0.33,-0.58,-0.02,-0.07,0.91,
2.557,-0.17,-0.30,-0.63,-0.02,-0.07,0.91,
2.559,-0.17,-0.30,-0.63,-0.03,-0.07,0.91,
2.562,-0.17,-0.30,-0.63,-0.03,-0.07,0.91,
2.562,-0.20,-0.27,-0.64,-0.03,-0.07,0.91,
2.564,-0.20,-0.27,-0.64,-0.03,-0.07,0.92,
2.566,-0.20,-0.27,-0.64,-0.03,-0.06,0.92,
2.566,-0.22,-0.24,-0.61,-0.03,-0.06,0.92,
2.569,-0.22,-0.24,-0.61,-0.03,-0.06,0.92,
2.572,-0.22,-0.24,-0.61,-0.04,-0.06,0.93,
2.572,-0.27,-0.24,-0.55,-0.04,-0.06,0.93,
2.574,-0.27,-0.24,-0.55,-0.04,-0.06,0.93,
2.576,-0.27,-0.24,-0.55,-0.04,-0.06,0.94,
2.576,-0.32,-0.20,-0.48,-0.04,-0.06,0.94,
2.579,-0.32,-0.20,-0.48,-0.04,-0.05,0.94,
2.581,-0.32,-0.20,-0.48,-0.04,-0.05,0.94,
2.581,-0.35,-0.17,-0.39,-0.04,-0.05,0.94,
2.583,-0.35,-0.17,-0.39,-0.04,-0.05,0.95,
2.586,-0.35,-0.17,-0.39,-0.04,-0.05,0.95,
2.586,-0.36,-0.12,-0.31,-0.04,-0.05,0.95,
2.593,-0.36,-0.12,-0.31,-0.04,-0.05,0.95,
2.594,-0.36,-0.12,-0.31,-0.04,-0.05,0.95,
2.594,-0.36,-0.11,-0.27,-0.04,-0.05,0.95,
2.595,-0.36,-0.11,-0.27,-0.04,-0.05,0.95,
2.596,-0.36,-0.11,-0.27,-0.03,-0.05,0.95,
2.596,-0.36,-0.11,-0.26,-0.03,-0.05,0.95,
2.598,-0.36,-0.11,-0.26,-0.03,-0.05,0.95,
2.6,-0.36,-0.11,-0.26,-0.03,-0.05,0.95,
2.6,-0.32,-0.10,-0.25,-0.03,-0.05,0.95,
2.603,-0.32,-0.10,-0.25,-0.02,-0.05,0.95,
2.606,-0.32,-0.10,-0.25,-0.02,-0.05,0.95,
2.606,-0.27,-0.10,-0.27,-0.02,-0.05,0.95,
2.608,-0.27,-0.10,-0.27,-0.02,-0.05,0.95,
2.61,-0.27,-0.10,-0.27,-0.01,-0.05,0.95,
2.61,-0.20,-0.11,-0.26,-0.01,-0.05,0.95,
2.613,-0.20,-0.11,-0.26,-0.01,-0.06,0.95,
2.615,-0.20,-0.11,-0.26,-0.01,-0.06,0.95,
2.615,-0.13,-0.12,-0.27,-0.01,-0.06,0.95,
2.617,-0.13,-0.12,-0.27,-0.01,-0.06,0.95,
2.62,-0.13,-0.12,-0.27,-0.01,-0.06,0.95,
2.621,-0.08,-0.13,-0.26,-0.01,-0.06,0.95,
2.623,-0.08,-0.13,-0.26,-0.01,-0.06,0.95,
2.625,-0.08,-0.13,-0.26,-0.01,-0.06,0.95,
2.625,-0.08,-0.16,-0.26,-0.01,-0.06,0.95,
2.627,-0.08,-0.16,-0.26,-0.01,-0.06,0.95,
2.63,-0.08,-0.16,-0.26,-0.00,-0.06,0.96,
2.63,-0.05,-0.17,-0.24,-0.00,-0.06,0.96,
2.632,-0.05,-0.17,-0.24,-0.00,-0.06,0.97,
2.635,-0.05,-0.17,-0.24,-0.00,-0.05,0.97,
2.635,-0.03,-0.15,-0.17,-0.00,-0.05,0.97,
2.637,-0.03,-0.15,-0.17,-0.00,-0.06,0.98,
2.639,-0.03,-0.15,-0.17,-0.01,-0.06,0.98,
2.64,-0.02,-0.12,-0.05,-0.01,-0.06,0.98,
2.642,-0.02,-0.12,-0.05,-0.01,-0.06,0.99,
2.644,-0.02,-0.12,-0.05,-0.02,-0.06,1.00,
2.644,-0.05,-0.11,0.06,-0.02,-0.06,1.00,
2.647,-0.05,-0.11,0.06,-0.02,-0.06,1.00,
2.649,-0.05,-0.11,0.06,-0.02,-0.06,1.01,
2.649,-0.11,-0.12,0.20,-0.02,-0.06,1.01,
2.652,-0.11,-0.12,0.20,-0.03,-0.05,1.01,
2.655,-0.11,-0.12,0.20,-0.03,-0.05,1.01,
2.655,-0.19,-0.12,0.29,-0.03,-0.05,1.01,
2.66,-0.19,-0.12,0.29,-0.03,-0.05,1.02,
2.66,-0.19,-0.12,0.29,-0.03,-0.04,1.01,
2.661,-0.25,-0.08,0.37,-0.03,-0.04,1.01,
2.662,-0.25,-0.08,0.37,-0.04,-0.04,1.02,
2.664,-0.25,-0.08,0.37,-0.04,-0.04,1.01,
2.665,-0.28,-0.01,0.40,-0.04,-0.04,1.01,
2.666,-0.28,-0.01,0.40,-0.04,-0.04,1.01,
2.669,-0.28,-0.01,0.40,-0.04,-0.04,1.01,
2.669,-0.32,0.03,0.39,-0.04,-0.04,1.01,
2.671,-0.32,0.03,0.39,-0.04,-0.03,1.00,
2.674,-0.32,0.03,0.39,-0.04,-0.03,1.00,
2.674,-0.34,0.06,0.33,-0.04,-0.03,1.00,
2.676,-0.34,0.06,0.33,-0.04,-0.03,0.99,
2.679,-0.34,0.06,0.33,-0.04,-0.03,0.99,
2.679,-0.35,0.12,0.24,-0.04,-0.03,0.99,
2.681,-0.35,0.12,0.24,-0.03,-0.02,0.99,
2.684,-0.35,0.12,0.24,-0.03,-0.03,0.98,
2.684,-0.33,0.16,0.17,-0.03,-0.03,0.98,
2.686,-0.33,0.16,0.17,-0.03,-0.03,0.98,
2.689,-0.33,0.16,0.17,-0.02,-0.03,0.98,
2.69,-0.28,0.18,0.10,-0.02,-0.03,0.98,
2.691,-0.28,0.18,0.10,-0.02,-0.03,0.98,
2.693,-0.28,0.18,0.10,-0.02,-0.03,0.98,
2.693,-0.22,0.17,0.06,-0.02,-0.03,0.98,
2.696,-0.22,0.17,0.06,-0.02,-0.03,0.98,
2.698,-0.22,0.17,0.06,-0.02,-0.04,0.98,
2.698,-0.18,0.17,0.04,-0.02,-0.04,0.98,
2.701,-0.18,0.17,0.04,-0.02,-0.04,0.98,
2.703,-0.18,0.17,0.04,-0.01,-0.04,0.98,
2.703,-0.17,0.10,0.01,-0.01,-0.04,0.98,
2.705,-0.17,0.10,0.01,-0.01,-0.04,0.98,
2.708,-0.17,0.10,0.01,-0.00,-0.04,0.98,
2.708,-0.10,0.07,0.02,-0.00,-0.04,0.98,
2.71,-0.10,0.07,0.02,0.00,-0.04,0.98,
2.713,-0.10,0.07,0.02,0.01,-0.05,0.99,
2.713,0.00,0.04,0.05,0.01,-0.05,0.99,
2.715,0.00,0.04,0.05,0.01,-0.05,0.99,
2.718,0.00,0.04,0.05,0.01,-0.05,1.00,
2.719,0.09,-0.01,0.10,0.01,-0.05,1.00,
2.721,0.09,-0.01,0.10,0.01,-0.06,1.00,
2.723,0.09,-0.01,0.10,0.01,-0.06,1.00,
2.723,0.14,-0.06,0.18,0.01,-0.06,1.00,
2.725,0.14,-0.06,0.18,0.01,-0.06,1.01,
2.728,0.14,-0.06,0.18,0.01,-0.06,1.01,
2.728,0.17,-0.13,0.27,0.01,-0.06,1.01,
2.73,0.17,-0.13,0.27,0.01,-0.06,1.02,
2.733,0.17,-0.13,0.27,0.00,-0.06,1.02,
2.733,0.15,-0.16,0.34,0.00,-0.06,1.02,
2.735,0.15,-0.16,0.34,0.00,-0.06,1.02,
2.738,0.15,-0.16,0.34,0.00,-0.06,1.03,
2.739,0.13,-0.17,0.42,0.00,-0.06,1.03,
2.74,0.13,-0.17,0.42,-0.00,-0.06,1.03,
2.743,0.13,-0.17,0.42,-0.01,-0.06,1.03,
2.744,0.09,-0.16,0.48,-0.01,-0.06,1.03,
2.745,0.09,-0.16,0.48,-0.01,-0.06,1.03,
2.747,0.09,-0.16,0.48,-0.01,-0.05,1.03,
2.747,0.03,-0.13,0.53,-0.01,-0.05,1.03,
2.75,0.03,-0.13,0.53,-0.01,-0.05,1.03,
2.752,-0.01,-0.10,0.52,-0.01,-0.05,1.03,
2.752,-0.01,-0.10,0.52,-0.01,-0.05,1.02,
2.755,-0.01,-0.10,0.52,-0.02,-0.05,1.02,
2.757,-0.01,-0.10,0.52,-0.01,-0.04,1.02,
2.758,-0.04,-0.06,0.49,-0.01,-0.04,1.02,
2.76,-0.04,-0.06,0.49,-0.01,-0.04,1.02,
2.762,-0.04,-0.06,0.49,-0.01,-0.04,1.01,
2.762,-0.06,-0.01,0.43,-0.01,-0.04,1.01,
2.764,-0.06,-0.01,0.43,-0.01,-0.04,1.01,
2.767,-0.06,-0.01,0.43,-0.01,-0.04,1.01,
2.767,-0.03,0.02,0.38,-0.01,-0.04,1.01,
2.769,-0.03,0.02,0.38,-0.00,-0.04,1.00,
2.777,-0.03,0.02,0.38,0.00,-0.04,1.00,
2.777,-0.00,0.03,0.32,0.00,-0.04,1.00,
2.778,-0.00,0.03,0.32,0.01,-0.04,1.00,
2.778,-0.00,0.03,0.32,0.01,-0.05,0.99,
2.778,0.08,-0.00,0.25,0.01,-0.05,0.99,
2.779,0.08,-0.00,0.25,0.02,-0.05,0.99,
2.782,0.08,-0.00,0.25,0.02,-0.05,0.99,
2.782,0.16,-0.03,0.20,0.02,-0.05,0.99,
2.784,0.16,-0.03,0.20,0.02,-0.05,0.98,
2.79,0.23,-0.07,0.14,0.02,-0.05,0.98,
2.79,0.23,-0.07,0.14,0.03,-0.05,0.98,
2.79,0.23,-0.07,0.14,0.03,-0.06,0.98,
2.791,0.23,-0.07,0.14,0.04,-0.06,0.98,
2.791,0.30,-0.11,0.09,0.04,-0.06,0.98,
2.794,0.30,-0.11,0.09,0.04,-0.06,0.98,
2.796,0.30,-0.11,0.09,0.04,-0.06,0.98,
2.796,0.38,-0.15,0.07,0.04,-0.06,0.98,
2.799,0.38,-0.15,0.07,0.04,-0.06,0.98,
2.801,0.38,-0.15,0.07,0.04,-0.06,0.99,
2.801,0.43,-0.17,0.06,0.04,-0.06,0.99,
2.804,0.43,-0.17,0.06,0.04,-0.06,0.99,
2.806,0.43,-0.17,0.06,0.04,-0.06,0.99,
2.806,0.44,-0.19,0.10,0.04,-0.06,0.99,
2.809,0.44,-0.19,0.10,0.03,-0.06,0.99,
2.811,0.44,-0.19,0.10,0.02,-0.06,0.99,
2.811,0.41,-0.19,0.13,0.02,-0.06,0.99,
2.813,0.41,-0.19,0.13,0.02,-0.06,0.99,
2.816,0.41,-0.19,0.13,0.01,-0.06,0.99,
2.816,0.29,-0.19,0.16,0.01,-0.06,0.99,
2.818,0.29,-0.19,0.16,0.00,-0.05,1.00,
2.821,0.29,-0.19,0.16,-0.00,-0.05,1.00,
2.821,0.19,-0.16,0.18,-0.00,-0.05,1.00,
2.823,0.19,-0.16,0.18,-0.01,-0.04,1.00,
2.825,0.19,-0.16,0.18,-0.01,-0.04,1.00,
2.826,0.03,-0.09,0.20,-0.01,-0.04,1.00,
2.828,0.03,-0.09,0.20,-0.02,-0.04,1.00,
2.83,0.03,-0.09,0.20,-0.02,-0.03,1.00,
2.831,-0.06,0.01,0.22,-0.02,-0.03,1.00,
2.833,-0.06,0.01,0.22,-0.03,-0.03,1.00,
2.836,-0.06,0.01,0.22,-0.03,-0.03,0.99,
2.836,-0.14,0.08,0.20,-0.03,-0.03,0.99,
2.838,-0.14,0.08,0.20,-0.03,-0.03,0.99,
2.84,-0.14,0.08,0.20,-0.03,-0.02,0.99,
2.841,-0.22,0.13,0.18,-0.03,-0.02,0.99,
2.843,-0.22,0.13,0.18,-0.03,-0.02,0.99,
2.845,-0.22,0.13,0.18,-0.03,-0.02,0.99,
2.845,-0.27,0.15,0.13,-0.03,-0.02,0.99,
2.848,-0.27,0.15,0.13,-0.03,-0.02,0.99,
2.85,-0.27,0.15,0.13,-0.03,-0.03,0.98,
2.851,-0.27,0.15,0.09,-0.03,-0.03,0.98,
2.854,-0.27,0.15,0.09,-0.03,-0.03,0.98,
2.855,-0.27,0.15,0.09,-0.02,-0.03,0.98,
2.856,-0.24,0.14,0.06,-0.02,-0.03,0.98,
2.858,-0.24,0.14,0.06,-0.02,-0.03,0.98,
2.86,-0.24,0.14,0.06,-0.01,-0.03,0.98,
2.86,-0.17,0.10,0.03,-0.01,-0.03,0.98,
2.862,-0.17,0.10,0.03,-0.01,-0.04,0.98,
2.865,-0.17,0.10,0.03,-0.00,-0.04,0.98,
2.865,-0.09,0.06,0.01,-0.00,-0.04,0.98,
2.867,-0.09,0.06,0.01,0.00,-0.05,0.98,
2.87,-0.09,0.06,0.01,0.00,-0.05,0.98,
2.871,0.01,-0.02,0.01,0.00,-0.05,0.98,
2.872,0.01,-0.02,0.01,0.01,-0.05,0.98,
2.875,0.01,-0.02,0.01,0.01,-0.05,0.98,
2.876,0.09,-0.09,0.02,0.01,-0.05,0.98,
2.877,0.09,-0.09,0.02,0.02,-0.05,0.99,
2.88,0.09,-0.09,0.02,0.02,-0.05,0.99,
2.88,0.17,-0.14,0.05,0.02,-0.05,0.99,
2.882,0.17,-0.14,0.05,0.02,-0.06,0.99,
2.884,0.17,-0.14,0.05,0.03,-0.06,0.99,
2.885,0.23,-0.15,0.08,0.03,-0.06,0.99,
2.892,0.23,-0.15,0.08,0.03,-0.06,0.99,
2.893,0.23,-0.15,0.08,0.03,-0.06,0.99,
2.893,0.28,-0.17,0.11,0.03,-0.06,0.99,
2.893,0.28,-0.17,0.11,0.03,-0.06,0.99,
2.894,0.28,-0.17,0.11,0.03,-0.07,0.99,
2.895,0.32,-0.20,0.13,0.03,-0.07,0.99,
2.897,0.32,-0.20,0.13,0.03,-0.07,0.99,
2.899,0.32,-0.20,0.13,0.02,-0.07,0.98,
2.899,0.32,-0.24,0.12,0.02,-0.07,0.98,
2.901,0.32,-0.24,0.12,0.02,-0.07,0.98,
2.905,0.32,-0.24,0.12,0.02,-0.07,0.98,
2.905,0.28,-0.27,0.08,0.02,-0.07,0.98,
2.906,0.28,-0.27,0.08,0.01,-0.06,0.98,
2.909,0.28,-0.27,0.08,0.01,-0.06,0.97,
2.909,0.21,-0.27,0.03,0.01,-0.06,0.97,
2.911,0.21,-0.27,0.03,0.00,-0.06,0.97,
2.914,0.21,-0.27,0.03,-0.00,-0.06,0.97,
2.914,0.15,-0.23,-0.02,-0.00,-0.06,0.97,
2.916,0.15,-0.23,-0.02,-0.01,-0.05,0.97,
2.919,0.15,-0.23,-0.02,-0.01,-0.05,0.97,
2.919,0.04,-0.18,-0.07,-0.01,-0.05,0.97,
2.921,0.04,-0.18,-0.07,-0.01,-0.05,0.96,
2.924,0.04,-0.18,-0.07,-0.02,-0.05,0.96,
2.924,-0.03,-0.15,-0.10,-0.02,-0.05,0.96,
2.926,-0.03,-0.15,-0.10,-0.02,-0.04,0.96,
2.928,-0.03,-0.15,-0.10,-0.03,-0.04,0.96,
2.929,-0.13,-0.11,-0.13,-0.03,-0.04,0.96,
2.931,-0.13,-0.11,-0.13,-0.03,-0.03,0.97,
2.933,-0.13,-0.11,-0.13,-0.04,-0.03,0.96,
2.933,-0.23,-0.03,-0.14,-0.04,-0.03,0.96,
2.936,-0.23,-0.03,-0.14,-0.04,-0.02,0.97,
2.939,-0.23,-0.03,-0.14,-0.04,-0.03,0.97,
2.939,-0.30,0.05,-0.12,-0.04,-0.03,0.97,
2.941,-0.30,0.05,-0.12,-0.04,-0.02,0.97,
2.943,-0.30,0.05,-0.12,-0.04,-0.02,0.97,
2.943,-0.37,0.11,-0.10,-0.04,-0.02,0.97,
2.946,-0.37,0.11,-0.10,-0.04,-0.02,0.98,
2.948,-0.37,0.11,-0.10,-0.04,-0.02,0.97,
2.948,-0.38,0.13,-0.05,-0.04,-0.02,0.97,
2.95,-0.38,0.13,-0.05,-0.04,-0.02,0.98,
2.954,-0.38,0.13,-0.05,-0.03,-0.03,0.98,
2.954,-0.37,0.13,-0.02,-0.03,-0.03,0.98,
2.956,-0.37,0.13,-0.02,-0.03,-0.03,0.98,
2.958,-0.37,0.13,-0.02,-0.02,-0.03,0.98,
2.958,-0.29,0.11,0.01,-0.02,-0.03,0.98,
2.96,-0.29,0.11,0.01,-0.01,-0.03,0.98,
2.963,-0.29,0.11,0.01,-0.01,-0.03,0.98,
2.963,-0.18,0.08,0.01,-0.01,-0.03,0.98,
2.965,-0.18,0.08,0.01,-0.00,-0.03,0.97,
2.968,-0.18,0.08,0.01,0.00,-0.04,0.97,
2.968,-0.05,0.05,-0.01,0.00,-0.04,0.97,
2.97,-0.05,0.05,-0.01,0.01,-0.04,0.97,
2.973,-0.05,0.05,-0.01,0.01,-0.05,0.96,
2.973,0.06,-0.01,-0.06,0.01,-0.05,0.96,
2.975,0.06,-0.01,-0.06,0.02,-0.05,0.96,
2.978,0.06,-0.01,-0.06,0.02,-0.06,0.94,
2.978,0.14,-0.10,-0.11,0.02,-0.06,0.94,
2.98,0.14,-0.10,-0.11,0.03,-0.07,0.82,
2.982,0.14,-0.10,-0.11,0.04,-0.08,0.72,
2.985,0.23,-0.19,-0.25,0.04,-0.08,0.72,
2.985,0.23,-0.19,-0.25,0.04,-0.06,0.73,
2.991,0.23,-0.19,-0.25,0.03,-0.05,0.80,
2.992,0.39,-0.38,-1.99,0.03,-0.05,0.80,
2.992,0.39,-0.38,-1.99,0.01,-0.04,0.86,
2.992,0.39,-0.38,-1.99,-0.01,-0.03,0.90,
2.992,0.36,-0.18,-2.04,-0.01,-0.03,0.90,
2.994,0.36,-0.18,-2.04,-0.02,-0.04,0.92,
2.997,0.36,-0.18,-2.04,-0.02,-0.04,0.93,
2.997,0.07,0.02,-0.92,-0.02,-0.04,0.93,
2.999,0.07,0.02,-0.92,-0.02,-0.05,0.95,
3.002,0.07,0.02,-0.92,-0.01,-0.05,0.97,
3.002,-0.13,-0.01,-0.46,-0.01,-0.05,0.97,
3.004,-0.13,-0.01,-0.46,-0.01,-0.05,1.00,
3.007,-0.13,-0.01,-0.46,-0.01,-0.05,1.03,
3.007,-0.05,-0.11,-0.11,-0.01,-0.05,1.03,
3.009,-0.05,-0.11,-0.11,-0.02,-0.06,1.06,
3.011,-0.05,-0.11,-0.11,-0.02,-0.06,1.08,
3.012,-0.00,-0.14,0.42,-0.02,-0.06,1.08,
3.014,-0.00,-0.14,0.42,-0.03,-0.06,1.09,
3.016,-0.00,-0.14,0.42,-0.03,-0.07,1.09,
3.016,-0.09,-0.18,0.93,-0.03,-0.07,1.09,
3.021,-0.09,-0.18,0.93,-0.03,-0.06,1.09,
3.022,-0.09,-0.18,0.93,-0.03,-0.06,1.08,
3.022,-0.21,-0.24,1.12,-0.03,-0.06,1.08,
3.024,-0.21,-0.24,1.12,-0.03,-0.05,1.06,
3.026,-0.21,-0.24,1.12,-0.02,-0.04,1.05,
3.026,-0.24,-0.23,1.05,-0.02,-0.04,1.05,
3.029,-0.24,-0.23,1.05,-0.01,-0.04,1.02,
3.031,-0.24,-0.23,1.05,-0.01,-0.03,1.00,
3.031,-0.14,-0.10,0.78,-0.01,-0.03,1.00,
3.034,-0.14,-0.10,0.78,-0.00,-0.03,0.99,
3.036,-0.14,-0.10,0.78,-0.00,-0.03,0.97,
3.037,-0.01,0.02,0.38,-0.00,-0.03,0.97,
3.039,-0.01,0.02,0.38,-0.01,-0.04,0.95,
3.041,-0.01,0.02,0.38,-0.01,-0.04,0.94,
3.041,0.03,0.03,0.01,-0.01,-0.04,0.94,
3.043,0.03,0.03,0.01,-0.01,-0.04,0.94,
3.046,0.03,0.03,0.01,-0.01,-0.04,0.93,
3.046,0.01,-0.01,-0.27,-0.01,-0.04,0.93,
3.048,0.01,-0.01,-0.27,-0.01,-0.04,0.94,
3.051,-0.01,-0.02,-0.39,-0.01,-0.04,0.94,
3.051,-0.01,-0.02,-0.39,-0.01,-0.03,0.94,
3.054,-0.01,-0.02,-0.39,-0.01,-0.04,0.94,
