
time,ax,ay,az,gFx,gFy,gFz,
0.002,-0.06,-0.02,0.17,-0.12,0.06,0.98,
0.002,-0.06,-0.02,0.17,-0.12,0.06,0.98,
0.002,-0.06,-0.03,0.13,-0.12,0.06,0.98,
0.003,-0.06,-0.03,0.13,-0.12,0.06,0.98,
0.005,-0.06,-0.03,0.13,-0.12,0.06,0.98,
0.005,-0.05,-0.01,0.10,-0.12,0.06,0.98,
0.008,-0.05,-0.01,0.10,-0.12,0.06,0.98,
0.01,-0.05,-0.01,0.10,-0.11,0.05,0.98,
0.01,-0.03,-0.01,0.07,-0.11,0.05,0.98,
0.013,-0.03,-0.01,0.07,-0.11,0.05,0.97,
0.015,-0.03,-0.01,0.07,-0.11,0.05,0.97,
0.015,-0.01,-0.03,0.04,-0.11,0.05,0.97,
0.017,-0.01,-0.03,0.04,-0.10,0.05,0.97,
0.02,-0.01,-0.03,0.04,-0.10,0.05,0.97,
0.02,0.04,-0.06,-0.01,-0.10,0.05,0.97,
0.022,0.04,-0.06,-0.01,-0.10,0.05,0.96,
0.025,0.04,-0.06,-0.01,-0.10,0.05,0.96,
0.025,0.10,-0.07,-0.06,-0.10,0.05,0.96,
0.027,0.10,-0.07,-0.06,-0.10,0.05,0.96,
0.03,0.10,-0.07,-0.06,-0.10,0.05,0.96,
0.03,0.11,-0.07,-0.11,-0.10,0.05,0.96,
0.032,0.11,-0.07,-0.11,-0.10,0.05,0.96,
0.034,0.11,-0.07,-0.11,-0.09,0.05,0.95,
0.035,0.13,-0.05,-0.16,-0.09,0.05,0.95,
0.037,0.13,-0.05,-0.16,-0.10,0.06,0.96,
0.039,0.13,-0.05,-0.16,-0.10,0.06,0.96,
0.039,0.16,-0.05,-0.18,-0.10,0.06,0.96,
0.042,0.16,-0.05,-0.18,-0.10,0.05,0.96,
0.044,0.16,-0.05,-0.18,-0.10,0.06,0.96,
0.044,0.12,-0.02,-0.16,-0.10,0.06,0.96,
0.052,0.12,-0.02,-0.16,-0.10,0.06,0.97,
0.052,0.12,-0.02,-0.16,-0.10,0.06,0.97,
0.052,0.10,-0.01,-0.11,-0.10,0.06,0.97,
0.053,0.10,-0.01,-0.11,-0.11,0.06,0.97,
0.054,0.10,-0.01,-0.11,-0.11,0.06,0.98,
0.054,0.06,-0.01,-0.06,-0.11,0.06,0.98,
0.056,0.06,-0.01,-0.06,-0.11,0.06,0.98,
0.059,0.06,-0.01,-0.06,-0.12,0.06,0.98,
0.059,-0.01,0.01,0.01,-0.12,0.06,0.98,
0.062,-0.01,0.01,0.01,-0.12,0.06,0.99,
0.064,-0.01,0.01,0.01,-0.12,0.06,0.99,
0.064,-0.05,0.02,0.07,-0.12,0.06,0.99,
0.066,-0.05,0.02,0.07,-0.12,0.06,0.99,
0.069,-0.05,0.02,0.07,-0.12,0.06,0.99,
0.069,-0.13,0.04,0.13,-0.12,0.06,0.99,
0.071,-0.13,0.04,0.13,-0.12,0.06,0.99,
0.074,-0.13,0.04,0.13,-0.12,0.06,0.99,
0.074,-0.15,0.04,0.17,-0.12,0.06,0.99,
0.076,-0.15,0.04,0.17,-0.12,0.07,0.99,
0.079,-0.15,0.04,0.17,-0.12,0.07,0.99,
0.079,-0.15,0.08,0.18,-0.12,0.07,0.99,
0.081,-0.15,0.08,0.18,-0.12,0.07,0.99,
0.084,-0.15,0.08,0.18,-0.12,0.07,0.98,
0.084,-0.15,0.10,0.15,-0.12,0.07,0.98,
0.086,-0.15,0.10,0.15,-0.12,0.07,0.98,
0.088,-0.15,0.10,0.15,-0.12,0.07,0.98,
0.088,-0.12,0.11,0.10,-0.12,0.07,0.98,
0.091,-0.12,0.11,0.10,-0.12,0.07,0.97,
0.093,-0.12,0.11,0.10,-0.12,0.06,0.97,
0.094,-0.12,0.11,0.03,-0.12,0.06,0.97,
0.096,-0.12,0.11,0.03,-0.12,0.06,0.96,
0.098,-0.12,0.11,0.03,-0.11,0.06,0.96,
0.099,-0.11,0.09,-0.05,-0.11,0.06,0.96,
0.101,-0.11,0.09,-0.05,-0.11,0.06,0.95,
0.103,-0.11,0.09,-0.05,-0.11,0.06,0.95,
0.103,-0.07,0.05,-0.14,-0.11,0.06,0.95,
0.106,-0.07,0.05,-0.14,-0.10,0.06,0.95,
0.108,-0.07,0.05,-0.14,-0.10,0.06,0.94,
0.108,-0.03,0.04,-0.23,-0.10,0.06,0.94,
0.111,-0.03,0.04,-0.23,-0.10,0.06,0.94,
0.113,-0.03,0.04,-0.23,-0.10,0.06,0.94,
0.113,0.04,0.03,-0.29,-0.10,0.06,0.94,
0.115,0.04,0.03,-0.29,-0.10,0.06,0.94,
0.118,0.04,0.03,-0.29,-0.10,0.06,0.94,
0.118,0.06,0.01,-0.32,-0.10,0.06,0.94,
0.12,0.06,0.01,-0.32,-0.10,0.05,0.94,
0.123,0.06,0.01,-0.32,-0.10,0.05,0.94,
0.123,0.11,-0.01,-0.32,-0.10,0.05,0.94,
0.125,0.11,-0.01,-0.32,-0.10,0.05,0.95,
0.132,0.11,-0.01,-0.32,-0.10,0.05,0.95,
0.132,0.09,-0.04,-0.29,-0.10,0.05,0.95,
0.132,0.09,-0.04,-0.29,-0.10,0.05,0.96,
0.132,0.09,-0.04,-0.29,-0.10,0.05,0.96,
0.133,0.07,-0.07,-0.22,-0.10,0.05,0.96,
0.135,0.07,-0.07,-0.22,-0.10,0.04,0.97,
0.137,0.07,-0.07,-0.22,-0.10,0.04,0.97,
0.138,0.05,-0.09,-0.13,-0.10,0.04,0.97,
0.14,0.05,-0.09,-0.13,-0.11,0.05,0.98,
0.142,0.05,-0.09,-0.13,-0.11,0.05,0.98,
0.142,0.05,-0.12,-0.03,-0.11,0.05,0.98,
0.145,0.05,-0.12,-0.03,-0.11,0.05,0.98,
0.147,0.05,-0.12,-0.03,-0.11,0.05,0.99,
0.147,0.01,-0.10,0.05,-0.11,0.05,0.99,
0.15,0.01,-0.10,0.05,-0.11,0.05,0.99,
0.152,0.01,-0.10,0.05,-0.11,0.05,0.99,
0.152,0.00,-0.08,0.13,-0.11,0.05,0.99,
0.155,0.00,-0.08,0.13,-0.11,0.05,0.99,
0.157,0.00,-0.08,0.13,-0.11,0.05,0.99,
0.157,-0.00,-0.07,0.16,-0.11,0.05,0.99,
0.159,-0.00,-0.07,0.16,-0.11,0.05,0.99,
0.162,-0.00,-0.07,0.16,-0.11,0.05,0.99,
0.163,-0.01,-0.05,0.19,-0.11,0.05,0.99,
0.164,-0.01,-0.05,0.19,-0.11,0.06,0.99,
0.167,-0.01,-0.05,0.19,-0.11,0.06,1.00,
0.167,-0.02,-0.02,0.20,-0.11,0.06,1.00,
0.169,-0.02,-0.02,0.20,-0.11,0.06,1.00,
0.172,-0.02,-0.02,0.20,-0.11,0.06,1.00,
0.172,-0.03,0.02,0.21,-0.11,0.06,1.00,
0.174,-0.03,0.02,0.21,-0.12,0.06,1.00,
0.177,-0.03,0.02,0.21,-0.12,0.06,0.99,
0.177,-0.03,0.05,0.22,-0.12,0.06,0.99,
0.179,-0.03,0.05,0.22,-0.12,0.06,0.99,
0.182,-0.03,0.05,0.22,-0.12,0.06,0.99,
0.182,-0.06,0.07,0.20,-0.12,0.06,0.99,
0.184,-0.06,0.07,0.20,-0.12,0.06,0.99,
0.186,-0.06,0.07,0.20,-0.12,0.06,0.99,
0.186,-0.07,0.06,0.20,-0.12,0.06,0.99,
0.189,-0.07,0.06,0.20,-0.12,0.06,0.99,
0.191,-0.07,0.06,0.20,-0.12,0.06,0.99,
0.191,-0.06,0.06,0.18,-0.12,0.06,0.99,
0.194,-0.06,0.06,0.18,-0.12,0.06,0.99,
0.197,-0.06,0.06,0.18,-0.11,0.06,0.99,
0.197,-0.07,0.02,0.15,-0.11,0.06,0.99,
0.199,-0.07,0.02,0.15,-0.11,0.05,0.98,
0.201,-0.07,0.02,0.15,-0.11,0.06,0.98,
0.201,-0.04,0.02,0.12,-0.11,0.06,0.98,
0.203,-0.04,0.02,0.12,-0.11,0.06,0.98,
0.206,-0.04,0.02,0.12,-0.11,0.06,0.98,
0.206,-0.02,-0.01,0.07,-0.11,0.06,0.98,
0.208,-0.02,-0.01,0.07,-0.11,0.05,0.98,
0.211,-0.02,-0.01,0.07,-0.11,0.05,0.97,
0.211,-0.01,0.00,0.06,-0.11,0.05,0.97,
0.214,-0.01,0.00,0.06,-0.11,0.05,0.97,
0.216,-0.01,0.00,0.06,-0.11,0.05,0.97,
0.217,-0.00,-0.01,0.01,-0.11,0.05,0.97,
0.218,-0.00,-0.01,0.01,-0.11,0.05,0.97,
0.221,-0.00,-0.01,0.01,-0.11,0.05,0.97,
0.221,-0.02,-0.03,-0.03,-0.11,0.05,0.97,
0.223,-0.02,-0.03,-0.03,-0.11,0.05,0.97,
0.226,-0.02,-0.03,-0.03,-0.11,0.05,0.97,
0.226,-0.03,-0.04,-0.04,-0.11,0.05,0.97,
0.235,-0.03,-0.04,-0.04,-0.11,0.05,0.97,
0.235,-0.03,-0.04,-0.04,-0.11,0.06,0.97,
0.236,-0.00,-0.04,-0.04,-0.11,0.06,0.97,
0.236,-0.00,-0.04,-0.04,-0.11,0.06,0.97,
0.236,-0.00,-0.04,-0.04,-0.11,0.06,0.97,
0.236,0.02,-0.00,-0.03,-0.11,0.06,0.97,
0.238,0.02,-0.00,-0.03,-0.11,0.06,0.98,
0.24,0.02,-0.00,-0.03,-0.11,0.06,0.98,
0.24,0.04,0.03,-0.02,-0.11,0.06,0.98,
0.243,0.04,0.03,-0.02,-0.11,0.06,0.98,
0.245,0.04,0.03,-0.02,-0.11,0.06,0.98,
0.246,0.04,0.07,0.02,-0.11,0.06,0.98,
0.248,0.04,0.07,0.02,-0.12,0.07,0.98,
0.25,0.04,0.07,0.02,-0.12,0.07,0.99,
0.25,0.02,0.09,0.06,-0.12,0.07,0.99,
0.252,0.02,0.09,0.06,-0.12,0.07,0.99,
0.255,0.02,0.09,0.06,-0.12,0.07,0.99,
0.255,-0.05,0.11,0.11,-0.12,0.07,0.99,
0.257,-0.05,0.11,0.11,-0.13,0.07,1.00,
0.26,-0.05,0.11,0.11,-0.13,0.07,1.00,
0.26,-0.09,0.12,0.16,-0.13,0.07,1.00,
0.262,-0.09,0.12,0.16,-0.13,0.07,1.00,
0.265,-0.09,0.12,0.16,-0.13,0.07,1.00,
0.266,-0.13,0.17,0.22,-0.13,0.07,1.00,
0.267,-0.13,0.17,0.22,-0.12,0.07,1.00,
0.269,-0.13,0.17,0.22,-0.13,0.08,1.00,
0.27,-0.13,0.18,0.25,-0.13,0.08,1.00,
0.272,-0.13,0.18,0.25,-0.13,0.07,1.00,
0.275,-0.13,0.18,0.25,-0.13,0.07,1.00,
0.275,-0.13,0.19,0.27,-0.13,0.07,1.00,
0.277,-0.13,0.19,0.27,-0.13,0.07,1.00,
0.279,-0.13,0.19,0.27,-0.13,0.07,1.00,
0.28,-0.16,0.17,0.28,-0.13,0.07,1.00,
0.282,-0.16,0.17,0.28,-0.13,0.07,1.00,
0.284,-0.16,0.17,0.28,-0.13,0.06,1.00,
0.284,-0.16,0.14,0.25,-0.13,0.06,1.00,
0.287,-0.16,0.14,0.25,-0.13,0.06,1.00,
0.289,-0.16,0.14,0.25,-0.13,0.06,1.00,
0.29,-0.15,0.07,0.23,-0.13,0.06,1.00,
0.292,-0.15,0.07,0.23,-0.12,0.06,0.99,
0.295,-0.15,0.07,0.23,-0.12,0.06,0.99,
0.295,-0.12,0.04,0.21,-0.12,0.06,0.99,
0.297,-0.12,0.04,0.21,-0.12,0.06,0.99,
0.299,-0.12,0.04,0.21,-0.12,0.05,0.99,
0.299,-0.10,0.01,0.16,-0.12,0.05,0.99,
0.301,-0.10,0.01,0.16,-0.12,0.05,0.99,
0.304,-0.10,0.01,0.16,-0.12,0.05,0.99,
0.304,-0.07,-0.01,0.15,-0.12,0.05,0.99,
0.306,-0.07,-0.01,0.15,-0.12,0.05,0.99,
0.309,-0.07,-0.01,0.15,-0.12,0.05,0.99,
0.309,-0.06,-0.05,0.14,-0.12,0.05,0.99,
0.311,-0.06,-0.05,0.14,-0.12,0.05,0.98,
0.314,-0.06,-0.05,0.14,-0.11,0.05,0.98,
0.314,-0.02,-0.08,0.11,-0.11,0.05,0.98,
0.316,-0.02,-0.08,0.11,-0.11,0.05,0.98,
0.319,-0.02,-0.08,0.11,-0.11,0.05,0.98,
0.319,-0.01,-0.11,0.07,-0.11,0.05,0.98,
0.321,-0.01,-0.11,0.07,-0.11,0.05,0.98,
0.323,-0.01,-0.11,0.07,-0.11,0.05,0.98,
0.324,0.03,-0.11,0.05,-0.11,0.05,0.98,
0.326,0.03,-0.11,0.05,-0.11,0.05,0.97,
0.328,0.03,-0.11,0.05,-0.11,0.05,0.97,
0.329,0.03,-0.10,-0.00,-0.11,0.05,0.97,
0.331,0.03,-0.10,-0.00,-0.11,0.05,0.97,
0.334,0.03,-0.10,-0.00,-0.11,0.05,0.96,
0.334,0.06,-0.08,-0.05,-0.11,0.05,0.96,
0.336,0.06,-0.08,-0.05,-0.11,0.05,0.96,
0.338,0.06,-0.08,-0.05,-0.11,0.05,0.96,
0.339,0.05,-0.07,-0.11,-0.11,0.05,0.96,
0.341,0.05,-0.07,-0.11,-0.11,0.05,0.96,
0.343,0.05,-0.07,-0.11,-0.11,0.05,0.96,
0.343,0.05,-0.06,-0.16,-0.11,0.05,0.96,
0.348,0.05,-0.06,-0.16,-0.11,0.05,0.96,
0.348,0.05,-0.06,-0.16,-0.11,0.06,0.96,
0.348,0.06,-0.07,-0.16,-0.11,0.06,0.96,
0.351,0.06,-0.07,-0.16,-0.11,0.05,0.96,
0.353,0.06,-0.07,-0.16,-0.11,0.05,0.96,
0.353,0.05,-0.05,-0.16,-0.11,0.05,0.96,
0.355,0.05,-0.05,-0.16,-0.11,0.05,0.96,
0.358,0.05,-0.05,-0.16,-0.11,0.05,0.96,
0.358,0.06,-0.08,-0.14,-0.11,0.05,0.96,
0.36,0.06,-0.08,-0.14,-0.10,0.05,0.96,
0.363,0.06,-0.08,-0.14,-0.10,0.05,0.96,
0.363,0.05,-0.10,-0.15,-0.10,0.05,0.96,
0.365,0.05,-0.10,-0.15,-0.10,0.05,0.96,
0.368,0.05,-0.10,-0.15,-0.10,0.05,0.96,
0.368,0.09,-0.11,-0.13,-0.10,0.05,0.96,
0.37,0.09,-0.11,-0.13,-0.09,0.05,0.96,
0.372,0.09,-0.11,-0.13,-0.09,0.05,0.97,
0.373,0.14,-0.11,-0.12,-0.09,0.05,0.97,
0.375,0.14,-0.11,-0.12,-0.09,0.05,0.97,
0.378,0.14,-0.11,-0.12,-0.08,0.05,0.97,
0.378,0.18,-0.11,-0.09,-0.08,0.05,0.97,
0.38,0.18,-0.11,-0.09,-0.09,0.05,0.97,
0.382,0.18,-0.11,-0.09,-0.09,0.05,0.97,
0.383,0.26,-0.09,-0.05,-0.09,0.05,0.97,
0.385,0.26,-0.09,-0.05,-0.09,0.04,0.97,
0.389,0.26,-0.09,-0.05,-0.09,0.04,0.97,
0.389,0.21,-0.14,-0.05,-0.09,0.04,0.97,
0.39,0.21,-0.14,-0.05,-0.09,0.04,0.98,
0.392,0.21,-0.14,-0.05,-0.09,0.04,0.98,
0.392,0.20,-0.17,-0.01,-0.09,0.04,0.98,
0.395,0.20,-0.17,-0.01,-0.09,0.04,0.98,
0.397,0.20,-0.17,-0.01,-0.09,0.04,0.98,
0.398,0.22,-0.18,0.01,-0.09,0.04,0.98,
0.399,0.22,-0.18,0.01,-0.09,0.04,0.98,
0.402,0.22,-0.18,0.01,-0.09,0.04,0.98,
0.402,0.21,-0.17,0.05,-0.09,0.04,0.98,
0.404,0.21,-0.17,0.05,-0.09,0.04,0.98,
0.407,0.21,-0.17,0.05,-0.09,0.04,0.99,
0.407,0.20,-0.16,0.09,-0.09,0.04,0.99,
0.409,0.20,-0.16,0.09,-0.09,0.04,0.99,
0.412,0.20,-0.16,0.09,-0.09,0.05,0.99,
0.412,0.18,-0.17,0.10,-0.09,0.05,0.99,
0.414,0.18,-0.17,0.10,-0.09,0.05,0.99,
0.417,0.18,-0.17,0.10,-0.09,0.05,0.99,
0.417,0.19,-0.14,0.12,-0.09,0.05,0.99,
0.419,0.19,-0.14,0.12,-0.09,0.05,0.99,
0.421,0.19,-0.14,0.12,-0.09,0.05,0.99,
0.422,0.20,-0.12,0.14,-0.09,0.05,0.99,
0.424,0.20,-0.12,0.14,-0.09,0.05,0.98,
0.426,0.20,-0.12,0.14,-0.09,0.05,0.98,
0.427,0.19,-0.11,0.11,-0.09,0.05,0.98,
0.429,0.19,-0.11,0.11,-0.09,0.05,0.98,
0.431,0.19,-0.11,0.11,-0.08,0.05,0.98,
0.432,0.20,-0.09,0.08,-0.08,0.05,0.98,
0.434,0.20,-0.09,0.08,-0.08,0.05,0.98,
0.436,0.20,-0.09,0.08,-0.08,0.05,0.97,
0.436,0.22,-0.09,0.05,-0.08,0.05,0.97,
0.438,0.22,-0.09,0.05,-0.08,0.05,0.97,
0.441,0.22,-0.09,0.05,-0.08,0.05,0.97,
0.441,0.26,-0.06,0.00,-0.08,0.05,0.97,
0.448,0.26,-0.06,0.00,-0.08,0.05,0.97,
0.448,0.26,-0.06,0.00,-0.08,0.06,0.96,
0.448,0.25,-0.06,-0.05,-0.08,0.06,0.96,
0.448,0.25,-0.06,-0.05,-0.08,0.06,0.96,
0.451,0.25,-0.06,-0.05,-0.08,0.06,0.96,
0.451,0.26,-0.05,-0.09,-0.08,0.06,0.96,
0.454,0.26,-0.05,-0.09,-0.08,0.06,0.96,
0.456,0.26,-0.05,-0.09,-0.08,0.05,0.96,
0.456,0.27,-0.05,-0.13,-0.08,0.05,0.96,
0.458,0.27,-0.05,-0.13,-0.08,0.05,0.96,
0.461,0.27,-0.05,-0.13,-0.08,0.06,0.96,
0.462,0.28,-0.05,-0.15,-0.08,0.06,0.96,
0.463,0.28,-0.05,-0.15,-0.08,0.05,0.96,
0.466,0.28,-0.05,-0.15,-0.08,0.05,0.96,
0.466,0.26,-0.06,-0.17,-0.08,0.05,0.96,
0.468,0.26,-0.06,-0.17,-0.08,0.05,0.96,
0.471,0.26,-0.06,-0.17,-0.09,0.05,0.96,
0.471,0.26,-0.06,-0.16,-0.09,0.05,0.96,
0.473,0.26,-0.06,-0.16,-0.09,0.05,0.96,
0.475,0.26,-0.06,-0.16,-0.09,0.05,0.96,
0.475,0.21,-0.08,-0.14,-0.09,0.05,0.96,
0.478,0.21,-0.08,-0.14,-0.09,0.05,0.97,
0.48,0.21,-0.08,-0.14,-0.09,0.05,0.97,
0.481,0.17,-0.09,-0.12,-0.09,0.05,0.97,
0.483,0.17,-0.09,-0.12,-0.09,0.05,0.97,
0.485,0.17,-0.09,-0.12,-0.09,0.05,0.97,
0.485,0.14,-0.09,-0.07,-0.09,0.05,0.97,
0.488,0.14,-0.09,-0.07,-0.09,0.05,0.97,
0.49,0.14,-0.09,-0.07,-0.09,0.05,0.97,
0.49,0.14,-0.11,-0.04,-0.09,0.05,0.97,
0.492,0.14,-0.11,-0.04,-0.09,0.05,0.98,
0.495,0.14,-0.11,-0.04,-0.09,0.05,0.98,
0.495,0.15,-0.11,-0.02,-0.09,0.05,0.98,
0.498,0.15,-0.11,-0.02,-0.08,0.05,0.98,
0.5,0.15,-0.11,-0.02,-0.08,0.06,0.98,
0.5,0.20,-0.09,0.01,-0.08,0.06,0.98,
0.502,0.20,-0.09,0.01,-0.08,0.06,0.98,
0.505,0.20,-0.09,0.01,-0.08,0.06,0.98,
0.505,0.23,-0.07,0.04,-0.08,0.06,0.98,
0.507,0.23,-0.07,0.04,-0.08,0.06,0.98,
0.51,0.25,-0.05,0.08,-0.08,0.06,0.98,
0.51,0.25,-0.05,0.08,-0.08,0.06,0.99,
0.513,0.25,-0.05,0.08,-0.08,0.06,0.99,
0.515,0.25,-0.05,0.08,-0.08,0.06,0.99,
0.515,0.26,-0.03,0.11,-0.08,0.06,0.99,
0.517,0.26,-0.03,0.11,-0.07,0.06,0.99,
0.519,0.26,-0.03,0.11,-0.07,0.06,0.99,
0.52,0.29,-0.03,0.13,-0.07,0.06,0.99,
0.522,0.29,-0.03,0.13,-0.07,0.06,0.99,
0.524,0.29,-0.03,0.13,-0.07,0.06,0.99,
0.524,0.34,-0.04,0.12,-0.07,0.06,0.99,
0.527,0.34,-0.04,0.12,-0.07,0.06,0.99,
0.531,0.34,-0.04,0.12,-0.07,0.06,0.99,
0.531,0.33,-0.05,0.14,-0.07,0.06,0.99,
0.532,0.33,-0.05,0.14,-0.07,0.06,0.99,
0.534,0.33,-0.05,0.14,-0.07,0.06,1.00,
0.534,0.33,-0.05,0.16,-0.07,0.06,1.00,
0.537,0.33,-0.05,0.16,-0.07,0.06,1.00,
0.539,0.33,-0.05,0.16,-0.07,0.06,1.00,
0.539,0.35,-0.04,0.19,-0.07,0.06,1.00,
0.541,0.35,-0.04,0.19,-0.07,0.06,1.00,
0.544,0.35,-0.04,0.19,-0.07,0.06,1.00,
0.544,0.34,-0.05,0.22,-0.07,0.06,1.00,
0.546,0.34,-0.05,0.22,-0.07,0.05,1.00,
0.549,0.34,-0.05,0.22,-0.07,0.05,1.00,
0.549,0.33,-0.05,0.26,-0.07,0.05,1.00,
0.551,0.33,-0.05,0.26,-0.07,0.05,1.01,
0.554,0.33,-0.05,0.26,-0.07,0.05,1.00,
0.554,0.30,-0.07,0.27,-0.07,0.05,1.00,
0.556,0.30,-0.07,0.27,-0.08,0.05,1.00,
0.559,0.30,-0.07,0.27,-0.08,0.05,1.00,
0.559,0.27,-0.10,0.28,-0.08,0.05,1.00,
0.562,0.27,-0.10,0.28,-0.08,0.05,1.00,
0.564,0.27,-0.10,0.28,-0.08,0.05,1.00,
0.564,0.22,-0.12,0.27,-0.08,0.05,1.00,
0.567,0.22,-0.12,0.27,-0.08,0.05,1.00,
0.568,0.22,-0.12,0.27,-0.09,0.06,1.00,
0.569,0.16,-0.11,0.24,-0.09,0.06,1.00,
0.571,0.16,-0.11,0.24,-0.09,0.06,0.99,
0.574,0.16,-0.11,0.24,-0.08,0.06,0.99,
0.574,0.14,-0.07,0.20,-0.08,0.06,0.99,
0.576,0.14,-0.07,0.20,-0.09,0.06,0.98,
0.578,0.14,-0.07,0.20,-0.09,0.06,0.98,
0.579,0.14,-0.06,0.14,-0.09,0.06,0.98,
0.581,0.14,-0.06,0.14,-0.09,0.06,0.98,
0.583,0.14,-0.06,0.14,-0.09,0.06,0.97,
0.584,0.13,-0.04,0.05,-0.09,0.06,0.97,
0.586,0.13,-0.04,0.05,-0.09,0.07,0.97,
0.588,0.13,-0.04,0.05,-0.09,0.07,0.96,
0.588,0.09,-0.01,-0.03,-0.09,0.07,0.96,
0.591,0.09,-0.01,-0.03,-0.09,0.07,0.96,
0.593,0.09,-0.01,-0.03,-0.08,0.07,0.96,
0.593,0.08,0.01,-0.13,-0.08,0.07,0.96,
0.595,0.08,0.01,-0.13,-0.08,0.07,0.95,
0.598,0.08,0.01,-0.13,-0.08,0.07,0.95,
0.598,0.11,0.03,-0.20,-0.08,0.07,0.95,
0.6,0.11,0.03,-0.20,-0.08,0.07,0.95,
0.603,0.11,0.03,-0.20,-0.08,0.06,0.95,
0.603,0.13,0.03,-0.24,-0.08,0.06,0.95,
0.605,0.13,0.03,-0.24,-0.08,0.06,0.95,
0.608,0.13,0.03,-0.24,-0.08,0.06,0.94,
0.608,0.16,-0.00,-0.26,-0.08,0.06,0.94,
0.611,0.16,-0.00,-0.26,-0.08,0.05,0.94,
0.613,0.16,-0.00,-0.26,-0.07,0.05,0.94,
0.613,0.16,-0.06,-0.31,-0.07,0.05,0.94,
0.615,0.16,-0.06,-0.31,-0.07,0.05,0.94,
0.618,0.16,-0.06,-0.31,-0.07,0.04,0.94,
0.618,0.19,-0.15,-0.35,-0.07,0.04,0.94,
0.62,0.19,-0.15,-0.35,-0.06,0.04,0.94,
0.622,0.19,-0.15,-0.35,-0.06,0.03,0.94,
0.623,0.25,-0.23,-0.35,-0.06,0.03,0.94,
0.625,0.25,-0.23,-0.35,-0.06,0.03,0.94,
0.628,0.25,-0.23,-0.35,-0.05,0.02,0.95,
0.628,0.29,-0.31,-0.32,-0.05,0.02,0.95,
0.63,0.29,-0.31,-0.32,-0.05,0.02,0.95,
0.632,0.29,-0.31,-0.32,-0.05,0.02,0.95,
0.632,0.35,-0.38,-0.30,-0.05,0.02,0.95,
0.634,0.35,-0.38,-0.30,-0.04,0.02,0.95,
0.637,0.35,-0.38,-0.30,-0.04,0.01,0.95,
0.637,0.40,-0.45,-0.27,-0.04,0.01,0.95,
0.64,0.40,-0.45,-0.27,-0.04,0.01,0.96,
0.642,0.40,-0.45,-0.27,-0.04,0.01,0.96,
0.643,0.46,-0.49,-0.22,-0.04,0.01,0.96,
0.645,0.46,-0.49,-0.22,-0.04,0.01,0.96,
0.647,0.46,-0.49,-0.22,-0.04,0.01,0.97,
0.647,0.46,-0.51,-0.16,-0.04,0.01,0.97,
0.649,0.46,-0.51,-0.16,-0.04,0.01,0.97,
0.652,0.46,-0.51,-0.16,-0.04,0.01,0.97,
0.652,0.44,-0.54,-0.12,-0.04,0.01,0.97,
0.654,0.44,-0.54,-0.12,-0.04,0.01,0.97,
0.657,0.44,-0.54,-0.12,-0.04,0.01,0.97,
0.657,0.42,-0.53,-0.06,-0.04,0.01,0.97,
0.66,0.42,-0.53,-0.06,-0.05,0.01,0.98,
0.667,0.42,-0.53,-0.06,-0.04,0.01,0.98,
0.668,0.42,-0.51,-0.02,-0.04,0.01,0.98,
0.668,0.42,-0.51,-0.02,-0.04,0.01,0.98,
0.668,0.42,-0.51,-0.02,-0.05,0.01,0.98,
0.668,0.41,-0.52,0.02,-0.05,0.01,0.98,
0.669,0.41,-0.52,0.02,-0.05,0.01,0.98,
0.671,0.41,-0.52,0.02,-0.05,0.01,0.98,
0.671,0.39,-0.50,0.02,-0.05,0.01,0.98,
0.674,0.39,-0.50,0.02,-0.05,0.01,0.98,
0.677,0.39,-0.50,0.02,-0.06,0.00,0.98,
0.681,0.35,-0.51,0.04,-0.06,0.00,0.98,
0.682,0.35,-0.51,0.04,-0.06,0.00,0.98,
0.682,0.35,-0.51,0.04,-0.06,0.00,0.98,
0.682,0.28,-0.53,0.04,-0.06,0.00,0.98,
0.684,0.28,-0.53,0.04,-0.06,-0.00,0.97,
0.686,0.28,-0.53,0.04,-0.06,-0.00,0.97,
0.686,0.23,-0.56,0.01,-0.06,-0.00,0.97,
0.688,0.23,-0.56,0.01,-0.06,-0.01,0.97,
0.691,0.23,-0.56,0.01,-0.06,-0.01,0.97,
0.691,0.23,-0.61,-0.01,-0.06,-0.01,0.97,
0.693,0.23,-0.61,-0.01,-0.06,-0.01,0.97,
0.696,0.23,-0.61,-0.01,-0.05,-0.02,0.97,
0.696,0.25,-0.64,-0.03,-0.05,-0.02,0.97,
0.698,0.25,-0.64,-0.03,-0.05,-0.02,0.97,
0.7,0.25,-0.64,-0.03,-0.05,-0.02,0.97,
0.701,0.26,-0.70,-0.05,-0.05,-0.02,0.97,
0.703,0.26,-0.70,-0.05,-0.04,-0.02,0.97,
0.705,0.26,-0.70,-0.05,-0.04,-0.03,0.97,
0.706,0.32,-0.76,-0.06,-0.04,-0.03,0.97,
0.708,0.32,-0.76,-0.06,-0.04,-0.03,0.97,
0.711,0.32,-0.76,-0.06,-0.03,-0.03,0.97,
0.712,0.39,-0.82,-0.06,-0.03,-0.03,0.97,
0.713,0.39,-0.82,-0.06,-0.03,-0.04,0.97,
0.715,0.39,-0.82,-0.06,-0.03,-0.04,0.97,
0.716,0.44,-0.86,-0.07,-0.03,-0.04,0.97,
0.718,0.44,-0.86,-0.07,-0.03,-0.04,0.97,
0.72,0.44,-0.86,-0.07,-0.03,-0.04,0.97,
0.721,0.47,-0.93,-0.08,-0.03,-0.04,0.97,
0.723,0.47,-0.93,-0.08,-0.02,-0.05,0.96,
0.725,0.47,-0.93,-0.08,-0.03,-0.05,0.96,
0.726,0.50,-0.98,-0.09,-0.03,-0.05,0.96,
0.728,0.50,-0.98,-0.09,-0.02,-0.05,0.96,
0.73,0.50,-0.98,-0.09,-0.02,-0.05,0.96,
0.73,0.52,-1.01,-0.10,-0.02,-0.05,0.96,
0.732,0.52,-1.01,-0.10,-0.01,-0.05,0.96,
0.735,0.52,-1.01,-0.10,-0.01,-0.05,0.95,
0.735,0.58,-1.01,-0.13,-0.01,-0.05,0.95,
0.738,0.58,-1.01,-0.13,-0.01,-0.05,0.95,
0.74,0.58,-1.01,-0.13,-0.01,-0.05,0.95,
0.74,0.65,-1.01,-0.18,-0.01,-0.05,0.95,
0.743,0.65,-1.01,-0.18,-0.01,-0.05,0.95,
0.749,0.65,-1.01,-0.18,-0.01,-0.05,0.95,
0.75,0.66,-1.01,-0.23,-0.01,-0.05,0.95,
0.75,0.66,-1.01,-0.23,-0.02,-0.05,0.94,
0.75,0.66,-1.01,-0.23,-0.02,-0.06,0.94,
0.75,0.62,-1.03,-0.28,-0.02,-0.06,0.94,
0.752,0.62,-1.03,-0.28,-0.02,-0.06,0.94,
0.755,0.62,-1.03,-0.28,-0.02,-0.06,0.94,
0.755,0.56,-1.07,-0.31,-0.02,-0.06,0.94,
0.757,0.56,-1.07,-0.31,-0.02,-0.05,0.94,
0.761,0.56,-1.07,-0.31,-0.02,-0.05,0.94,
0.761,0.51,-1.10,-0.34,-0.02,-0.05,0.94,
0.762,0.51,-1.10,-0.34,-0.02,-0.05,0.94,
0.764,0.51,-1.10,-0.34,-0.03,-0.04,0.94,
0.765,0.48,-1.05,-0.35,-0.03,-0.04,0.94,
0.767,0.48,-1.05,-0.35,-0.03,-0.04,0.94,
0.769,0.48,-1.05,-0.35,-0.03,-0.04,0.94,
0.77,0.43,-0.97,-0.35,-0.03,-0.04,0.94,
0.772,0.43,-0.97,-0.35,-0.03,-0.04,0.95,
0.774,0.43,-0.97,-0.35,-0.04,-0.04,0.95,
0.774,0.38,-0.93,-0.30,-0.04,-0.04,0.95,
0.777,0.38,-0.93,-0.30,-0.04,-0.04,0.96,
0.779,0.38,-0.93,-0.30,-0.05,-0.03,0.96,
0.78,0.31,-0.89,-0.19,-0.05,-0.03,0.96,
0.781,0.31,-0.89,-0.19,-0.05,-0.03,0.96,
0.784,0.31,-0.89,-0.19,-0.05,-0.03,0.96,
0.784,0.23,-0.84,-0.13,-0.05,-0.03,0.96,
0.786,0.23,-0.84,-0.13,-0.06,-0.03,0.96,
0.789,0.23,-0.84,-0.13,-0.06,-0.03,0.96,
0.789,0.13,-0.82,-0.09,-0.06,-0.03,0.96,
0.791,0.13,-0.82,-0.09,-0.06,-0.04,0.96,
0.794,0.13,-0.82,-0.09,-0.06,-0.04,0.96,
0.794,0.07,-0.81,-0.10,-0.06,-0.04,0.96,
0.796,0.07,-0.81,-0.10,-0.06,-0.04,0.95,
0.798,0.07,-0.81,-0.10,-0.06,-0.04,0.94,
0.799,0.05,-0.82,-0.15,-0.06,-0.04,0.94,
0.801,0.05,-0.82,-0.15,-0.05,-0.04,0.94,
0.803,0.05,-0.82,-0.15,-0.05,-0.04,0.93,
0.803,0.05,-0.84,-0.25,-0.05,-0.04,0.93,
0.806,0.05,-0.84,-0.25,-0.04,-0.04,0.92,
0.808,0.05,-0.84,-0.25,-0.04,-0.05,0.92,
0.809,0.09,-0.87,-0.36,-0.04,-0.05,0.92,
0.811,0.09,-0.87,-0.36,-0.03,-0.05,0.91,
0.814,0.09,-0.87,-0.36,-0.03,-0.06,0.91,
0.814,0.16,-0.91,-0.50,-0.03,-0.06,0.91,
0.816,0.16,-0.91,-0.50,-0.03,-0.06,0.90,
0.818,0.16,-0.91,-0.50,-0.03,-0.07,0.90,
0.819,0.22,-1.00,-0.62,-0.03,-0.07,0.90,
0.821,0.22,-1.00,-0.62,-0.02,-0.07,0.89,
0.823,0.22,-1.00,-0.62,-0.02,-0.08,0.89,
0.823,0.26,-1.08,-0.72,-0.02,-0.08,0.89,
0.826,0.26,-1.08,-0.72,-0.02,-0.08,0.89,
0.828,0.26,-1.08,-0.72,-0.02,-0.08,0.89,
0.829,0.29,-1.18,-0.77,-0.02,-0.08,0.89,
0.831,0.29,-1.18,-0.77,-0.01,-0.08,0.90,
0.833,0.29,-1.18,-0.77,-0.00,-0.08,0.90,
0.833,0.35,-1.23,-0.76,-0.00,-0.08,0.90,
0.835,0.35,-1.23,-0.76,0.00,-0.08,0.91,
0.838,0.35,-1.23,-0.76,0.00,-0.08,0.91,
0.838,0.43,-1.23,-0.69,0.00,-0.08,0.91,
0.84,0.43,-1.23,-0.69,0.00,-0.07,0.92,
0.85,0.43,-1.23,-0.69,0.00,-0.07,0.93,
0.85,0.54,-1.18,-0.57,0.00,-0.07,0.93,
0.851,0.54,-1.18,-0.57,-0.00,-0.07,0.94,
0.851,0.54,-1.18,-0.57,-0.01,-0.07,0.94,
0.851,0.53,-1.13,-0.43,-0.01,-0.07,0.94,
0.851,0.53,-1.13,-0.43,-0.02,-0.06,0.95,
0.853,0.53,-1.13,-0.43,-0.02,-0.06,0.96,
0.853,0.45,-1.07,-0.28,-0.02,-0.06,0.96,
0.855,0.45,-1.07,-0.28,-0.03,-0.06,0.96,
0.857,0.45,-1.07,-0.28,-0.04,-0.05,0.97,
0.858,0.30,-1.03,-0.14,-0.04,-0.05,0.97,
0.865,0.30,-1.03,-0.14,-0.05,-0.05,0.97,
0.866,0.30,-1.03,-0.14,-0.05,-0.04,0.97,
0.866,0.15,-0.95,-0.04,-0.05,-0.04,0.97,
0.866,0.15,-0.95,-0.04,-0.05,-0.03,0.97,
0.867,0.15,-0.95,-0.04,-0.06,-0.03,0.96,
0.867,0.03,-0.84,-0.01,-0.06,-0.03,0.96,
0.869,0.03,-0.84,-0.01,-0.06,-0.02,0.96,
0.872,0.03,-0.84,-0.01,-0.06,-0.01,0.96,
0.872,-0.04,-0.69,-0.02,-0.06,-0.01,0.96,
0.874,-0.04,-0.69,-0.02,-0.06,-0.00,0.95,
0.877,-0.04,-0.69,-0.02,-0.06,0.00,0.94,
0.877,-0.07,-0.53,-0.08,-0.06,0.00,0.94,
0.879,-0.07,-0.53,-0.08,-0.06,0.01,0.93,
0.882,-0.07,-0.53,-0.08,-0.06,0.01,0.93,
0.882,-0.11,-0.41,-0.21,-0.06,0.01,0.93,
0.884,-0.11,-0.41,-0.21,-0.06,0.01,0.92,
0.887,-0.11,-0.41,-0.21,-0.07,0.02,0.91,
0.887,-0.13,-0.32,-0.37,-0.07,0.02,0.91,
0.889,-0.13,-0.32,-0.37,-0.07,0.02,0.90,
0.892,-0.13,-0.32,-0.37,-0.06,0.02,0.90,
0.892,-0.17,-0.25,-0.53,-0.06,0.02,0.90,
0.894,-0.17,-0.25,-0.53,-0.06,0.02,0.89,
0.897,-0.17,-0.25,-0.53,-0.06,0.02,0.89,
0.897,-0.17,-0.21,-0.65,-0.06,0.02,0.89,
0.899,-0.17,-0.21,-0.65,-0.06,0.02,0.89,
0.902,-0.17,-0.21,-0.65,-0.06,0.02,0.89,
0.902,-0.16,-0.18,-0.72,-0.06,0.02,0.89,
0.904,-0.16,-0.18,-0.72,-0.06,0.02,0.89,
0.906,-0.17,-0.18,-0.74,-0.06,0.02,0.89,
0.907,-0.17,-0.18,-0.74,-0.06,0.02,0.90,
0.909,-0.17,-0.18,-0.74,-0.07,0.02,0.90,
0.911,-0.17,-0.18,-0.74,-0.07,0.03,0.91,
0.912,-0.19,-0.16,-0.69,-0.07,0.03,0.91,
0.914,-0.19,-0.16,-0.69,-0.08,0.03,0.92,
0.916,-0.19,-0.16,-0.69,-0.09,0.03,0.92,
0.917,-0.25,-0.13,-0.59,-0.09,0.03,0.92,
0.919,-0.25,-0.13,-0.59,-0.09,0.04,0.94,
0.921,-0.25,-0.13,-0.59,-0.10,0.04,0.95,
0.921,-0.37,-0.07,-0.44,-0.10,0.04,0.95,
0.923,-0.37,-0.07,-0.44,-0.11,0.04,0.96,
0.927,-0.37,-0.07,-0.44,-0.12,0.04,0.97,
0.927,-0.52,-0.02,-0.23,-0.12,0.04,0.97,
0.929,-0.52,-0.02,-0.23,-0.12,0.04,0.98,
0.931,-0.52,-0.02,-0.23,-0.13,0.05,0.99,
0.932,-0.65,0.04,-0.02,-0.13,0.05,0.99,
0.934,-0.65,0.04,-0.02,-0.13,0.05,0.99,
0.936,-0.65,0.04,-0.02,-0.13,0.05,1.00,
0.936,-0.78,0.09,0.17,-0.13,0.05,1.00,
0.938,-0.78,0.09,0.17,-0.13,0.06,1.01,
0.941,-0.78,0.09,0.17,-0.13,0.06,1.02,
0.941,-0.85,0.14,0.34,-0.13,0.06,1.02,
0.943,-0.85,0.14,0.34,-0.13,0.07,1.03,
0.946,-0.85,0.14,0.34,-0.13,0.07,1.03,
0.946,-0.85,0.22,0.49,-0.13,0.07,1.03,
0.948,-0.85,0.22,0.49,-0.12,0.07,1.03,
0.951,-0.85,0.22,0.49,-0.12,0.08,1.03,
0.951,-0.80,0.30,0.61,-0.12,0.08,1.03,
0.953,-0.80,0.30,0.61,-0.12,0.08,1.03,
0.955,-0.80,0.30,0.61,-0.11,0.08,1.03,
0.956,-0.73,0.37,0.66,-0.11,0.08,1.03,
0.958,-0.73,0.37,0.66,-0.11,0.08,1.03,
0.966,-0.73,0.37,0.66,-0.11,0.08,1.03,
0.966,-0.66,0.42,0.66,-0.11,0.08,1.03,
0.966,-0.66,0.42,0.66,-0.11,0.08,1.02,
0.967,-0.66,0.42,0.66,-0.10,0.08,1.01,
0.967,-0.60,0.44,0.60,-0.10,0.08,1.01,
0.968,-0.60,0.44,0.60,-0.11,0.08,1.01,
0.97,-0.60,0.44,0.60,-0.10,0.08,1.00,
0.97,-0.57,0.45,0.48,-0.10,0.08,1.00,
0.973,-0.57,0.45,0.48,-0.10,0.08,0.99,
0.975,-0.57,0.45,0.48,-0.10,0.08,0.98,
0.975,-0.58,0.43,0.34,-0.10,0.08,0.98,
0.978,-0.58,0.43,0.34,-0.10,0.08,0.97,
0.98,-0.58,0.43,0.34,-0.10,0.08,0.97,
0.98,-0.57,0.41,0.17,-0.10,0.08,0.97,
0.982,-0.57,0.41,0.17,-0.10,0.08,0.96,
0.985,-0.57,0.41,0.17,-0.10,0.08,0.95,
0.985,-0.57,0.40,0.01,-0.10,0.08,0.95,
0.987,-0.57,0.40,0.01,-0.10,0.08,0.95,
0.989,-0.57,0.40,0.01,-0.11,0.08,0.95,
0.99,-0.58,0.38,-0.12,-0.11,0.08,0.95,
0.993,-0.58,0.38,-0.12,-0.11,0.08,0.95,
0.995,-0.58,0.38,-0.12,-0.12,0.08,0.94,
0.995,-0.61,0.37,-0.20,-0.12,0.08,0.94,
0.997,-0.61,0.37,-0.20,-0.12,0.08,0.95,
0.999,-0.61,0.37,-0.20,-0.13,0.08,0.95,
1.0,-0.68,0.37,-0.23,-0.13,0.08,0.95,
1.002,-0.68,0.37,-0.23,-0.13,0.08,0.95,
1.004,-0.68,0.37,-0.23,-0.14,0.08,0.95,
1.004,-0.78,0.37,-0.21,-0.14,0.08,0.95,
1.007,-0.78,0.37,-0.21,-0.15,0.08,0.96,
1.01,-0.78,0.37,-0.21,-0.15,0.08,0.96,
1.01,-0.90,0.36,-0.14,-0.15,0.08,0.96,
1.012,-0.90,0.36,-0.14,-0.16,0.08,0.97,
1.014,-0.90,0.36,-0.14,-0.16,0.08,0.97,
1.015,-1.04,0.35,-0.07,-0.16,0.08,0.97,
1.017,-1.04,0.35,-0.07,-0.16,0.08,0.98,
1.019,-1.04,0.35,-0.07,-0.17,0.08,0.99,
1.02,-1.13,0.34,0.01,-0.17,0.08,0.99,
1.022,-1.13,0.34,0.01,-0.17,0.08,0.99,
1.024,-1.13,0.34,0.01,-0.17,0.08,1.00,
1.024,-1.19,0.36,0.16,-0.17,0.08,1.00,
1.027,-1.19,0.36,0.16,-0.16,0.08,1.00,
1.029,-1.19,0.36,0.16,-0.16,0.09,1.01,
1.029,-1.21,0.39,0.27,-0.16,0.09,1.01,
1.031,-1.21,0.39,0.27,-0.15,0.09,1.01,
1.034,-1.21,0.39,0.27,-0.15,0.09,1.00,
1.034,-1.14,0.41,0.35,-0.15,0.09,1.00,
1.036,-1.14,0.41,0.35,-0.14,0.09,1.00,
1.038,-1.14,0.41,0.35,-0.14,0.09,1.00,
1.039,-1.05,0.45,0.35,-0.14,0.09,1.00,
1.041,-1.05,0.45,0.35,-0.14,0.09,1.00,
1.044,-1.05,0.45,0.35,-0.13,0.09,0.99,
1.044,-0.96,0.46,0.31,-0.13,0.09,0.99,
1.046,-0.96,0.46,0.31,-0.12,0.09,0.98,
1.048,-0.96,0.46,0.31,-0.12,0.09,0.97,
1.049,-0.88,0.46,0.23,-0.12,0.09,0.97,
1.051,-0.88,0.46,0.23,-0.12,0.09,0.97,
1.053,-0.88,0.46,0.23,-0.11,0.09,0.96,
1.054,-0.79,0.46,0.09,-0.11,0.09,0.96,
1.056,-0.79,0.46,0.09,-0.11,0.09,0.95,
1.058,-0.79,0.46,0.09,-0.11,0.09,0.94,
1.059,-0.73,0.43,-0.09,-0.11,0.09,0.94,
1.066,-0.73,0.43,-0.09,-0.11,0.09,0.93,
1.067,-0.73,0.43,-0.09,-0.11,0.09,0.93,
1.067,-0.68,0.41,-0.25,-0.11,0.09,0.93,
1.067,-0.68,0.41,-0.25,-0.10,0.09,0.92,
1.068,-0.68,0.41,-0.25,-0.10,0.09,0.92,
1.068,-0.66,0.43,-0.38,-0.10,0.09,0.92,
1.071,-0.66,0.43,-0.38,-0.10,0.09,0.92,
1.073,-0.66,0.43,-0.38,-0.10,0.09,0.92,
1.073,-0.62,0.46,-0.46,-0.10,0.09,0.92,
1.077,-0.62,0.46,-0.46,-0.10,0.09,0.92,
1.078,-0.62,0.46,-0.46,-0.10,0.09,0.92,
1.078,-0.58,0.46,-0.48,-0.10,0.09,0.92,
1.08,-0.58,0.46,-0.48,-0.11,0.09,0.92,
1.082,-0.58,0.46,-0.48,-0.11,0.09,0.93,
1.083,-0.61,0.45,-0.46,-0.11,0.09,0.93,
1.085,-0.61,0.45,-0.46,-0.11,0.09,0.93,
1.087,-0.61,0.45,-0.46,-0.12,0.09,0.94,
1.088,-0.67,0.43,-0.42,-0.12,0.09,0.94,
1.09,-0.67,0.43,-0.42,-0.13,0.09,0.94,
1.093,-0.67,0.43,-0.42,-0.13,0.09,0.95,
1.093,-0.76,0.42,-0.32,-0.13,0.09,0.95,
1.095,-0.76,0.42,-0.32,-0.14,0.08,0.96,
1.097,-0.76,0.42,-0.32,-0.15,0.08,0.96,
1.098,-0.89,0.41,-0.19,-0.15,0.08,0.96,
1.1,-0.89,0.41,-0.19,-0.15,0.08,0.97,
1.102,-0.89,0.41,-0.19,-0.16,0.08,0.98,
1.102,-1.02,0.37,-0.05,-0.16,0.08,0.98,
1.105,-1.02,0.37,-0.05,-0.17,0.08,0.99,
1.107,-1.02,0.37,-0.05,-0.17,0.08,0.99,
1.107,-1.12,0.32,0.08,-0.17,0.08,0.99,
1.11,-1.12,0.32,0.08,-0.18,0.08,1.00,
1.112,-1.12,0.32,0.08,-0.19,0.08,1.01,
1.112,-1.23,0.32,0.23,-0.19,0.08,1.01,
1.114,-1.23,0.32,0.23,-0.19,0.08,1.01,
1.117,-1.23,0.32,0.23,-0.19,0.08,1.02,
1.117,-1.34,0.30,0.34,-0.19,0.08,1.02,
1.119,-1.34,0.30,0.34,-0.20,0.08,1.02,
1.122,-1.34,0.30,0.34,-0.20,0.07,1.03,
1.122,-1.41,0.30,0.46,-0.20,0.07,1.03,
1.124,-1.41,0.30,0.46,-0.21,0.07,1.03,
1.127,-1.41,0.30,0.46,-0.21,0.07,1.03,
1.127,-1.49,0.30,0.56,-0.21,0.07,1.03,
1.129,-1.49,0.30,0.56,-0.20,0.08,1.04,
1.132,-1.49,0.30,0.56,-0.20,0.08,1.03,
1.132,-1.55,0.27,0.63,-0.20,0.08,1.03,
1.134,-1.55,0.27,0.63,-0.19,0.09,1.03,
1.136,-1.55,0.27,0.63,-0.18,0.09,1.03,
1.137,-1.47,0.37,0.66,-0.18,0.09,1.03,
1.139,-1.47,0.37,0.66,-0.18,0.10,1.02,
1.142,-1.47,0.37,0.66,-0.17,0.10,1.02,
1.142,-1.35,0.46,0.61,-0.17,0.10,1.02,
1.149,-1.35,0.46,0.61,-0.16,0.10,1.02,
1.15,-1.35,0.46,0.61,-0.16,0.10,1.01,
1.15,-1.24,0.52,0.53,-0.16,0.10,1.01,
1.15,-1.24,0.52,0.53,-0.16,0.10,1.00,
1.151,-1.24,0.52,0.53,-0.16,0.09,0.99,
1.151,-1.12,0.51,0.43,-0.16,0.09,0.99,
1.154,-1.12,0.51,0.43,-0.16,0.09,0.98,
1.156,-1.12,0.51,0.43,-0.17,0.08,0.98,
1.156,-1.12,0.47,0.30,-0.17,0.08,0.98,
1.162,-1.12,0.47,0.30,-0.17,0.08,0.97,
1.162,-1.12,0.47,0.30,-0.17,0.08,0.96,
1.162,-1.17,0.40,0.12,-0.17,0.08,0.96,
1.163,-1.17,0.40,0.12,-0.17,0.07,0.95,
1.166,-1.17,0.40,0.12,-0.17,0.07,0.94,
1.166,-1.23,0.32,-0.05,-0.17,0.07,0.94,
1.168,-1.23,0.32,-0.05,-0.17,0.06,0.93,
1.171,-1.23,0.32,-0.05,-0.17,0.06,0.92,
1.171,-1.28,0.23,-0.23,-0.17,0.06,0.92,
1.173,-1.28,0.23,-0.23,-0.17,0.06,0.92,
1.176,-1.28,0.23,-0.23,-0.17,0.06,0.91,
1.176,-1.29,0.18,-0.39,-0.17,0.06,0.91,
1.178,-1.29,0.18,-0.39,-0.17,0.06,0.91,
1.18,-1.29,0.18,-0.39,-0.16,0.07,0.91,
1.181,-1.27,0.15,-0.52,-0.16,0.07,0.91,
1.183,-1.27,0.15,-0.52,-0.16,0.07,0.91,
1.185,-1.27,0.15,-0.52,-0.17,0.08,0.91,
1.186,-1.24,0.21,-0.59,-0.17,0.08,0.91,
1.188,-1.24,0.21,-0.59,-0.17,0.08,0.91,
1.191,-1.24,0.21,-0.59,-0.17,0.09,0.91,
1.191,-1.24,0.31,-0.62,-0.17,0.09,0.91,
1.193,-1.24,0.31,-0.62,-0.17,0.09,0.91,
1.195,-1.24,0.31,-0.62,-0.17,0.09,0.92,
1.196,-1.29,0.39,-0.59,-0.17,0.09,0.92,
1.198,-1.29,0.39,-0.59,-0.18,0.09,0.92,
1.2,-1.29,0.39,-0.59,-0.18,0.10,0.93,
1.2,-1.33,0.43,-0.51,-0.18,0.10,0.93,
1.202,-1.33,0.43,-0.51,-0.18,0.10,0.94,
1.205,-1.33,0.43,-0.51,-0.18,0.11,0.94,
1.205,-1.38,0.50,-0.41,-0.18,0.11,0.94,
1.208,-1.38,0.50,-0.41,-0.18,0.11,0.95,
1.21,-1.38,0.50,-0.41,-0.18,0.12,0.95,
1.211,-1.40,0.61,-0.28,-0.18,0.12,0.95,
1.213,-1.40,0.61,-0.28,-0.17,0.12,0.95,
1.215,-1.40,0.61,-0.28,-0.17,0.12,0.95,
1.215,-1.37,0.72,-0.21,-0.17,0.12,0.95,
1.217,-1.37,0.72,-0.21,-0.16,0.13,0.95,
1.22,-1.37,0.72,-0.21,-0.16,0.13,0.95,
1.22,-1.32,0.80,-0.18,-0.16,0.13,0.95,
1.222,-1.32,0.80,-0.18,-0.15,0.12,0.94,
1.225,-1.32,0.80,-0.18,-0.15,0.12,0.94,
1.225,-1.24,0.83,-0.19,-0.15,0.12,0.94,
1.227,-1.24,0.83,-0.19,-0.14,0.12,0.94,
1.23,-1.24,0.83,-0.19,-0.14,0.12,0.93,
1.23,-1.14,0.79,-0.25,-0.14,0.12,0.93,
1.232,-1.14,0.79,-0.25,-0.13,0.11,0.93,
1.234,-1.14,0.79,-0.25,-0.12,0.11,0.92,
1.235,-1.03,0.75,-0.33,-0.12,0.11,0.92,
1.237,-1.03,0.75,-0.33,-0.12,0.11,0.92,
1.239,-1.03,0.75,-0.33,-0.11,0.11,0.91,
1.24,-0.91,0.70,-0.43,-0.11,0.11,0.91,
1.249,-0.91,0.70,-0.43,-0.11,0.11,0.91,
1.25,-0.91,0.70,-0.43,-0.11,0.10,0.91,
1.25,-0.82,0.67,-0.51,-0.11,0.10,0.91,
1.251,-0.82,0.67,-0.51,-0.11,0.10,0.91,
1.251,-0.82,0.67,-0.51,-0.11,0.10,0.91,
1.251,-0.78,0.62,-0.53,-0.11,0.10,0.91,
1.252,-0.78,0.62,-0.53,-0.11,0.10,0.91,
1.254,-0.78,0.62,-0.53,-0.11,0.10,0.92,
1.254,-0.75,0.60,-0.53,-0.11,0.10,0.92,
1.257,-0.75,0.60,-0.53,-0.11,0.10,0.92,
1.261,-0.75,0.60,-0.53,-0.12,0.09,0.92,
1.261,-0.74,0.58,-0.51,-0.12,0.09,0.92,
1.262,-0.74,0.58,-0.51,-0.12,0.10,0.93,
1.264,-0.74,0.58,-0.51,-0.12,0.10,0.94,
1.264,-0.80,0.54,-0.46,-0.12,0.10,0.94,
1.266,-0.80,0.54,-0.46,-0.12,0.10,0.95,
1.269,-0.80,0.54,-0.46,-0.12,0.10,0.95,
1.27,-0.84,0.56,-0.36,-0.12,0.10,0.95,
1.271,-0.84,0.56,-0.36,-0.12,0.10,0.96,
1.273,-0.84,0.56,-0.36,-0.13,0.10,0.98,
1.274,-0.87,0.61,-0.18,-0.13,0.10,0.98,
1.276,-0.87,0.61,-0.18,-0.12,0.11,0.99,
1.279,-0.87,0.61,-0.18,-0.12,0.11,1.00,
1.279,-0.90,0.64,0.02,-0.12,0.11,1.00,
1.281,-0.90,0.64,0.02,-0.12,0.11,1.01,
1.283,-0.90,0.64,0.02,-0.12,0.11,1.02,
1.284,-0.87,0.68,0.23,-0.12,0.11,1.02,
1.286,-0.87,0.68,0.23,-0.11,0.11,1.03,
1.288,-0.87,0.68,0.23,-0.11,0.12,1.03,
1.289,-0.79,0.73,0.44,-0.11,0.12,1.03,
1.291,-0.79,0.73,0.44,-0.11,0.12,1.04,
1.293,-0.79,0.73,0.44,-0.10,0.12,1.04,
1.294,-0.73,0.77,0.59,-0.10,0.12,1.04,
1.296,-0.73,0.77,0.59,-0.10,0.12,1.04,
1.298,-0.73,0.77,0.59,-0.10,0.12,1.04,
1.298,-0.67,0.81,0.67,-0.10,0.12,1.04,
1.3,-0.67,0.81,0.67,-0.09,0.12,1.04,
1.303,-0.67,0.81,0.67,-0.09,0.12,1.03,
1.303,-0.62,0.82,0.68,-0.09,0.12,1.03,
1.306,-0.62,0.82,0.68,-0.08,0.12,1.03,
1.308,-0.62,0.82,0.68,-0.08,0.12,1.03,
1.308,-0.52,0.81,0.65,-0.08,0.12,1.03,
1.311,-0.52,0.81,0.65,-0.07,0.12,1.02,
1.313,-0.52,0.81,0.65,-0.07,0.12,1.02,
1.313,-0.41,0.80,0.58,-0.07,0.12,1.02,
1.315,-0.41,0.80,0.58,-0.07,0.11,1.01,
1.318,-0.41,0.80,0.58,-0.06,0.11,1.01,
1.318,-0.30,0.78,0.50,-0.06,0.11,1.01,
1.32,-0.30,0.78,0.50,-0.06,0.11,1.01,
1.322,-0.30,0.78,0.50,-0.06,0.11,1.00,
1.323,-0.24,0.74,0.43,-0.06,0.11,1.00,
1.326,-0.24,0.74,0.43,-0.07,0.10,1.00,
1.328,-0.24,0.74,0.43,-0.07,0.10,1.00,
1.328,-0.22,0.69,0.34,-0.07,0.10,1.00,
1.33,-0.22,0.69,0.34,-0.07,0.10,0.99,
1.332,-0.22,0.69,0.34,-0.07,0.10,0.99,
1.333,-0.27,0.60,0.28,-0.07,0.10,0.99,
1.335,-0.27,0.60,0.28,-0.07,0.09,0.99,
1.337,-0.27,0.60,0.28,-0.07,0.09,0.99,
1.337,-0.29,0.55,0.23,-0.07,0.09,0.99,
1.34,-0.29,0.55,0.23,-0.08,0.09,0.99,
1.343,-0.29,0.55,0.23,-0.08,0.09,0.99,
1.343,-0.30,0.49,0.21,-0.08,0.09,0.99,
1.345,-0.30,0.49,0.21,-0.08,0.09,0.99,
1.347,-0.30,0.49,0.21,-0.08,0.09,1.00,
1.347,-0.32,0.46,0.21,-0.08,0.09,1.00,
1.35,-0.32,0.46,0.21,-0.08,0.09,1.00,
1.352,-0.32,0.46,0.21,-0.09,0.09,1.00,
1.352,-0.35,0.46,0.23,-0.09,0.09,1.00,
1.354,-0.35,0.46,0.23,-0.09,0.09,1.01,
1.357,-0.35,0.46,0.23,-0.09,0.10,1.01,
1.357,-0.38,0.50,0.27,-0.09,0.10,1.01,
1.364,-0.38,0.50,0.27,-0.10,0.10,1.02,
1.365,-0.38,0.50,0.27,-0.10,0.09,1.02,
1.365,-0.45,0.51,0.36,-0.10,0.09,1.02,
1.365,-0.45,0.51,0.36,-0.10,0.09,1.03,
1.367,-0.45,0.51,0.36,-0.11,0.09,1.03,
1.367,-0.49,0.51,0.47,-0.11,0.09,1.03,
1.369,-0.49,0.51,0.47,-0.11,0.09,1.04,
1.372,-0.49,0.51,0.47,-0.11,0.09,1.04,
1.372,-0.55,0.49,0.59,-0.11,0.09,1.04,
1.374,-0.55,0.49,0.59,-0.11,0.09,1.04,
1.379,-0.55,0.49,0.59,-0.11,0.10,1.05,
1.379,-0.59,0.49,0.66,-0.11,0.10,1.05,
1.379,-0.59,0.49,0.66,-0.10,0.10,1.05,
1.381,-0.59,0.49,0.66,-0.09,0.10,1.05,
1.381,-0.55,0.50,0.71,-0.09,0.10,1.05,
1.384,-0.55,0.50,0.71,-0.08,0.10,1.05,
1.386,-0.55,0.50,0.71,-0.07,0.10,1.04,
1.386,-0.40,0.53,0.71,-0.07,0.10,1.04,
1.389,-0.40,0.53,0.71,-0.06,0.10,1.04,
1.392,-0.40,0.53,0.71,-0.06,0.10,1.03,
1.392,-0.25,0.54,0.68,-0.06,0.10,1.03,
1.393,-0.25,0.54,0.68,-0.05,0.09,1.03,
1.397,-0.25,0.54,0.68,-0.04,0.09,1.02,
1.397,-0.10,0.52,0.60,-0.04,0.09,1.02,
1.399,-0.10,0.52,0.60,-0.04,0.09,1.02,
1.401,0.05,0.48,0.49,-0.04,0.09,1.02,
1.401,0.05,0.48,0.49,-0.03,0.09,1.02,
1.403,0.05,0.48,0.49,-0.03,0.09,1.01,
1.406,0.16,0.45,0.41,-0.03,0.09,1.01,
1.406,0.16,0.45,0.41,-0.03,0.08,1.01,
1.409,0.16,0.45,0.41,-0.02,0.08,1.01,
1.411,0.16,0.45,0.41,-0.02,0.08,1.01,
1.411,0.21,0.41,0.34,-0.02,0.08,1.01,
1.414,0.21,0.41,0.34,-0.01,0.08,1.01,
1.416,0.21,0.41,0.34,-0.01,0.08,1.01,
1.416,0.29,0.36,0.31,-0.01,0.08,1.01,
1.418,0.29,0.36,0.31,-0.00,0.08,1.02,
1.421,0.29,0.36,0.31,-0.00,0.08,1.02,
1.421,0.38,0.36,0.34,-0.00,0.08,1.02,
1.423,0.38,0.36,0.34,0.00,0.07,1.02,
1.426,0.38,0.36,0.34,-0.00,0.08,1.03,
1.426,0.45,0.34,0.39,-0.00,0.08,1.03,
1.428,0.45,0.34,0.39,-0.01,0.07,1.03,
1.43,0.45,0.34,0.39,-0.01,0.07,1.04,
1.431,0.44,0.32,0.45,-0.01,0.07,1.04,
1.433,0.44,0.32,0.45,-0.02,0.07,1.04,
1.435,0.44,0.32,0.45,-0.02,0.08,1.05,
1.435,0.36,0.32,0.55,-0.02,0.08,1.05,
1.438,0.36,0.32,0.55,-0.03,0.08,1.05,
1.44,0.36,0.32,0.55,-0.04,0.08,1.05,
1.44,0.26,0.32,0.64,-0.04,0.08,1.05,
1.447,0.26,0.32,0.64,-0.05,0.08,1.06,
1.447,0.26,0.32,0.64,-0.06,0.08,1.06,
1.447,0.11,0.34,0.70,-0.06,0.08,1.06,
1.448,0.11,0.34,0.70,-0.07,0.09,1.06,
1.45,0.11,0.34,0.70,-0.08,0.09,1.06,
1.45,-0.07,0.38,0.77,-0.08,0.09,1.06,
1.453,-0.07,0.38,0.77,-0.09,0.09,1.07,
1.455,-0.07,0.38,0.77,-0.10,0.09,1.07,
1.455,-0.27,0.43,0.82,-0.10,0.09,1.07,
1.457,-0.27,0.43,0.82,-0.11,0.09,1.07,
1.46,-0.27,0.43,0.82,-0.12,0.09,1.07,
1.46,-0.46,0.44,0.86,-0.12,0.09,1.07,
1.462,-0.46,0.44,0.86,-0.12,0.09,1.07,
1.465,-0.46,0.44,0.86,-0.13,0.09,1.07,
1.465,-0.63,0.44,0.88,-0.13,0.09,1.07,
1.467,-0.63,0.44,0.88,-0.12,0.09,1.07,
1.469,-0.63,0.44,0.88,-0.12,0.09,1.06,
1.47,-0.70,0.43,0.87,-0.12,0.09,1.06,
1.472,-0.70,0.43,0.87,-0.11,0.09,1.06,
1.475,-0.70,0.43,0.87,-0.10,0.09,1.06,
1.475,-0.63,0.41,0.82,-0.10,0.09,1.06,
1.477,-0.63,0.41,0.82,-0.09,0.08,1.05,
1.479,-0.63,0.41,0.82,-0.08,0.08,1.04,
1.48,-0.47,0.36,0.75,-0.08,0.08,1.04,
1.482,-0.47,0.36,0.75,-0.06,0.07,1.04,
1.484,-0.47,0.36,0.75,-0.05,0.07,1.03,
1.484,-0.26,0.30,0.62,-0.05,0.07,1.03,
1.487,-0.26,0.30,0.62,-0.04,0.07,1.02,
1.489,-0.26,0.30,0.62,-0.03,0.06,1.01,
1.489,-0.01,0.21,0.47,-0.03,0.06,1.01,
1.492,-0.01,0.21,0.47,-0.02,0.06,1.00,
1.494,-0.01,0.21,0.47,-0.01,0.05,0.99,
1.495,0.22,0.13,0.31,-0.01,0.05,0.99,
1.496,0.22,0.13,0.31,-0.00,0.05,0.98,
1.499,0.22,0.13,0.31,0.00,0.05,0.98,
1.499,0.42,0.04,0.13,0.00,0.05,0.98,
1.501,0.42,0.04,0.13,0.01,0.04,0.97,
1.504,0.42,0.04,0.13,0.01,0.04,0.96,
1.504,0.54,-0.06,-0.04,0.01,0.04,0.96,
1.506,0.54,-0.06,-0.04,0.01,0.04,0.96,
1.509,0.54,-0.06,-0.04,0.01,0.04,0.96,
1.509,0.60,-0.13,-0.17,0.01,0.04,0.96,
1.511,0.60,-0.13,-0.17,0.01,0.04,0.96,
1.514,0.60,-0.13,-0.17,0.00,0.04,0.96,
1.514,0.58,-0.17,-0.24,0.00,0.04,0.96,
1.516,0.58,-0.17,-0.24,-0.01,0.04,0.96,
1.518,0.58,-0.17,-0.24,-0.01,0.05,0.96,
1.519,0.55,-0.16,-0.24,-0.01,0.05,0.96,
1.521,0.55,-0.16,-0.24,-0.02,0.05,0.97,
1.524,0.55,-0.16,-0.24,-0.03,0.05,0.97,
1.524,0.40,-0.10,-0.22,-0.03,0.05,0.97,
1.526,0.40,-0.10,-0.22,-0.04,0.06,0.97,
1.528,0.40,-0.10,-0.22,-0.05,0.06,0.98,
1.529,0.25,-0.04,-0.16,-0.05,0.06,0.98,
1.531,0.25,-0.04,-0.16,-0.06,0.07,0.98,
1.533,0.25,-0.04,-0.16,-0.08,0.07,0.99,
1.534,0.02,0.03,-0.09,-0.08,0.07,0.99,
1.536,0.02,0.03,-0.09,-0.09,0.08,0.99,
1.538,0.02,0.03,-0.09,-0.10,0.08,1.00,
1.538,-0.20,0.14,0.01,-0.10,0.08,1.00,
1.548,-0.20,0.14,0.01,-0.11,0.08,1.00,
1.548,-0.20,0.14,0.01,-0.12,0.09,1.01,
1.549,-0.41,0.23,0.10,-0.12,0.09,1.01,
1.549,-0.41,0.23,0.10,-0.13,0.09,1.01,
1.549,-0.41,0.23,0.10,-0.14,0.09,1.01,
1.549,-0.60,0.29,0.20,-0.14,0.09,1.01,
1.551,-0.60,0.29,0.20,-0.14,0.09,1.01,
1.553,-0.60,0.29,0.20,-0.15,0.09,1.01,
1.554,-0.78,0.30,0.26,-0.15,0.09,1.01,
1.555,-0.78,0.30,0.26,-0.15,0.09,1.01,
1.56,-0.78,0.30,0.26,-0.15,0.09,1.01,
1.561,-0.90,0.31,0.28,-0.15,0.09,1.01,
1.561,-0.90,0.31,0.28,-0.15,0.09,1.01,
1.562,-0.90,0.31,0.28,-0.14,0.09,1.00,
1.563,-0.95,0.34,0.26,-0.14,0.09,1.00,
1.565,-0.95,0.34,0.26,-0.14,0.09,1.00,
1.567,-0.95,0.34,0.26,-0.14,0.09,0.99,
1.568,-0.90,0.34,0.20,-0.14,0.09,0.99,
1.57,-0.90,0.34,0.20,-0.13,0.08,0.98,
1.572,-0.90,0.34,0.20,-0.12,0.08,0.97,
1.572,-0.82,0.30,0.06,-0.12,0.08,0.97,
1.575,-0.82,0.30,0.06,-0.11,0.07,0.96,
1.577,-0.82,0.30,0.06,-0.11,0.06,0.95,
1.577,-0.72,0.22,-0.10,-0.11,0.06,0.95,
1.58,-0.72,0.22,-0.10,-0.10,0.06,0.94,
1.582,-0.72,0.22,-0.10,-0.09,0.05,0.93,
1.582,-0.56,0.07,-0.29,-0.09,0.05,0.93,
1.585,-0.56,0.07,-0.29,-0.08,0.04,0.93,
1.587,-0.56,0.07,-0.29,-0.07,0.03,0.92,
1.587,-0.37,-0.07,-0.46,-0.07,0.03,0.92,
1.59,-0.37,-0.07,-0.46,-0.05,0.03,0.92,
1.592,-0.37,-0.07,-0.46,-0.05,0.02,0.91,
1.592,-0.19,-0.21,-0.59,-0.05,0.02,0.91,
1.594,-0.19,-0.21,-0.59,-0.04,0.02,0.91,
1.597,-0.19,-0.21,-0.59,-0.03,0.01,0.91,
1.597,0.01,-0.33,-0.67,-0.03,0.01,0.91,
1.599,0.01,-0.33,-0.67,-0.03,0.01,0.91,
1.602,0.13,-0.45,-0.72,-0.03,0.01,0.91,
1.602,0.13,-0.45,-0.72,-0.03,0.00,0.90,
1.604,0.13,-0.45,-0.72,-0.03,-0.00,0.90,
1.607,0.13,-0.45,-0.72,-0.03,-0.00,0.91,
1.607,0.20,-0.53,-0.75,-0.03,-0.00,0.91,
1.609,0.20,-0.53,-0.75,-0.04,-0.01,0.91,
1.612,0.20,-0.53,-0.75,-0.04,-0.00,0.91,
1.612,0.18,-0.59,-0.74,-0.04,-0.00,0.91,
1.614,0.18,-0.59,-0.74,-0.05,-0.00,0.92,
1.616,0.18,-0.59,-0.74,-0.06,0.00,0.92,
1.617,0.09,-0.59,-0.69,-0.06,0.00,0.92,
1.619,0.09,-0.59,-0.69,-0.07,0.01,0.93,
1.621,0.09,-0.59,-0.69,-0.08,0.02,0.93,
1.622,-0.07,-0.53,-0.60,-0.08,0.02,0.93,
1.625,-0.07,-0.53,-0.60,-0.09,0.02,0.94,
1.626,-0.07,-0.53,-0.60,-0.10,0.03,0.94,
1.627,-0.28,-0.41,-0.50,-0.10,0.03,0.94,
1.629,-0.28,-0.41,-0.50,-0.11,0.04,0.94,
1.631,-0.28,-0.41,-0.50,-0.12,0.05,0.95,
1.631,-0.46,-0.25,-0.40,-0.12,0.05,0.95,
1.634,-0.46,-0.25,-0.40,-0.12,0.06,0.95,
1.636,-0.46,-0.25,-0.40,-0.13,0.06,0.95,
1.636,-0.63,-0.07,-0.33,-0.13,0.06,0.95,
1.638,-0.63,-0.07,-0.33,-0.14,0.07,0.95,
1.642,-0.63,-0.07,-0.33,-0.13,0.08,0.95,
1.643,-0.77,0.10,-0.28,-0.13,0.08,0.95,
1.644,-0.77,0.10,-0.28,-0.13,0.09,0.96,
1.646,-0.83,0.24,-0.26,-0.13,0.09,0.96,
1.647,-0.83,0.24,-0.26,-0.12,0.10,0.96,
1.648,-0.83,0.24,-0.26,-0.11,0.11,0.95,
1.651,-0.83,0.24,-0.26,-0.10,0.11,0.95,
1.651,-0.73,0.43,-0.23,-0.10,0.11,0.95,
1.653,-0.73,0.43,-0.23,-0.10,0.11,0.94,
1.656,-0.73,0.43,-0.23,-0.09,0.11,0.94,
1.656,-0.58,0.55,-0.28,-0.09,0.11,0.94,
1.664,-0.58,0.55,-0.28,-0.08,0.10,0.93,
1.664,-0.58,0.55,-0.28,-0.08,0.10,0.92,
1.665,-0.46,0.56,-0.37,-0.08,0.10,0.92,
1.665,-0.46,0.56,-0.37,-0.07,0.09,0.91,
1.666,-0.46,0.56,-0.37,-0.06,0.09,0.91,
1.666,-0.32,0.50,-0.51,-0.06,0.09,0.91,
1.668,-0.32,0.50,-0.51,-0.05,0.08,0.91,
1.67,-0.32,0.50,-0.51,-0.04,0.08,0.90,
1.671,-0.16,0.40,-0.64,-0.04,0.08,0.90,
1.673,-0.16,0.40,-0.64,-0.03,0.07,0.90,
1.675,-0.16,0.40,-0.64,-0.02,0.07,0.90,
1.676,0.01,0.29,-0.72,-0.02,0.07,0.90,
1.678,0.01,0.29,-0.72,-0.02,0.07,0.90,
1.68,0.01,0.29,-0.72,-0.01,0.07,0.90,
1.68,0.17,0.23,-0.78,-0.01,0.07,0.90,
1.682,0.17,0.23,-0.78,-0.01,0.06,0.90,
1.685,0.17,0.23,-0.78,-0.01,0.06,0.91,
1.685,0.30,0.18,-0.77,-0.01,0.06,0.91,
1.687,0.30,0.18,-0.77,-0.02,0.06,0.91,
1.69,0.30,0.18,-0.77,-0.02,0.05,0.92,
1.69,0.35,0.13,-0.70,-0.02,0.05,0.92,
1.692,0.35,0.13,-0.70,-0.02,0.05,0.92,
1.695,0.35,0.13,-0.70,-0.04,0.05,0.93,
1.695,0.29,0.09,-0.59,-0.04,0.05,0.93,
1.697,0.29,0.09,-0.59,-0.05,0.05,0.93,
1.699,0.29,0.09,-0.59,-0.06,0.05,0.94,
1.7,0.17,0.05,-0.50,-0.06,0.05,0.94,
1.702,0.17,0.05,-0.50,-0.07,0.06,0.94,
1.705,0.17,0.05,-0.50,-0.07,0.07,0.95,
1.705,-0.02,0.06,-0.39,-0.07,0.07,0.95,
1.707,-0.02,0.06,-0.39,-0.08,0.08,0.96,
1.709,-0.02,0.06,-0.39,-0.09,0.09,0.97,
1.709,-0.18,0.18,-0.26,-0.09,0.09,0.97,
1.712,-0.18,0.18,-0.26,-0.10,0.09,0.97,
1.714,-0.18,0.18,-0.26,-0.11,0.10,0.98,
1.714,-0.33,0.34,-0.10,-0.11,0.10,0.98,
1.717,-0.33,0.34,-0.10,-0.12,0.10,0.98,
1.719,-0.33,0.34,-0.10,-0.12,0.11,0.98,
1.719,-0.48,0.47,0.01,-0.12,0.11,0.98,
1.722,-0.48,0.47,0.01,-0.13,0.11,0.99,
1.724,-0.48,0.47,0.01,-0.13,0.12,0.98,
1.724,-0.61,0.57,0.09,-0.13,0.12,0.98,
1.727,-0.61,0.57,0.09,-0.13,0.12,0.98,
1.729,-0.61,0.57,0.09,-0.13,0.13,0.98,
1.73,-0.68,0.66,0.12,-0.13,0.13,0.98,
1.731,-0.68,0.66,0.12,-0.13,0.13,0.98,
1.734,-0.68,0.66,0.12,-0.12,0.14,0.97,
1.734,-0.70,0.74,0.09,-0.12,0.14,0.97,
1.736,-0.70,0.74,0.09,-0.12,0.14,0.97,
1.739,-0.70,0.74,0.09,-0.11,0.14,0.96,
1.74,-0.62,0.83,0.02,-0.11,0.14,0.96,
1.747,-0.62,0.83,0.02,-0.10,0.14,0.95,
1.747,-0.62,0.83,0.02,-0.09,0.14,0.95,
1.748,-0.45,0.89,-0.09,-0.09,0.14,0.95,
1.748,-0.45,0.89,-0.09,-0.08,0.14,0.94,
1.749,-0.45,0.89,-0.09,-0.07,0.14,0.94,
1.749,-0.27,0.90,-0.22,-0.07,0.14,0.94,
1.751,-0.27,0.90,-0.22,-0.07,0.14,0.93,
1.754,-0.27,0.90,-0.22,-0.06,0.13,0.93,
1.754,-0.08,0.87,-0.31,-0.06,0.13,0.93,
1.756,-0.08,0.87,-0.31,-0.05,0.12,0.93,
1.758,-0.08,0.87,-0.31,-0.05,0.12,0.92,
1.76,0.06,0.79,-0.42,-0.05,0.12,0.92,
1.761,0.06,0.79,-0.42,-0.04,0.12,0.92,
1.763,0.06,0.79,-0.42,-0.04,0.11,0.92,
1.763,0.16,0.68,-0.47,-0.04,0.11,0.92,
1.766,0.16,0.68,-0.47,-0.04,0.11,0.92,
1.768,0.16,0.68,-0.47,-0.04,0.11,0.92,
1.768,0.25,0.60,-0.51,-0.04,0.11,0.92,
1.771,0.25,0.60,-0.51,-0.04,0.11,0.93,
1.774,0.25,0.60,-0.51,-0.04,0.11,0.93,
1.774,0.29,0.54,-0.49,-0.04,0.11,0.93,
1.776,0.29,0.54,-0.49,-0.04,0.11,0.94,
1.778,0.29,0.54,-0.49,-0.05,0.11,0.95,
1.778,0.30,0.55,-0.40,-0.05,0.11,0.95,
1.781,0.30,0.55,-0.40,-0.05,0.12,0.96,
1.783,0.30,0.55,-0.40,-0.06,0.12,0.97,
1.783,0.25,0.59,-0.27,-0.06,0.12,0.97,
1.785,0.25,0.59,-0.27,-0.07,0.12,0.98,
1.788,0.25,0.59,-0.27,-0.09,0.13,0.99,
1.788,0.13,0.66,-0.07,-0.09,0.13,0.99,
1.791,0.13,0.66,-0.07,-0.10,0.13,1.00,
1.793,0.13,0.66,-0.07,-0.11,0.14,1.01,
1.793,-0.06,0.75,0.14,-0.11,0.14,1.01,
1.795,-0.06,0.75,0.14,-0.12,0.14,1.02,
1.798,-0.06,0.75,0.14,-0.13,0.15,1.03,
1.798,-0.27,0.85,0.36,-0.13,0.15,1.03,
1.8,-0.27,0.85,0.36,-0.13,0.15,1.04,
1.802,-0.27,0.85,0.36,-0.14,0.15,1.05,
1.802,-0.43,0.94,0.55,-0.14,0.15,1.05,
1.805,-0.43,0.94,0.55,-0.15,0.16,1.05,
1.808,-0.43,0.94,0.55,-0.15,0.16,1.06,
1.809,-0.56,1.01,0.71,-0.15,0.16,1.06,
1.81,-0.56,1.01,0.71,-0.15,0.16,1.06,
1.812,-0.56,1.01,0.71,-0.15,0.16,1.07,
1.813,-0.64,1.05,0.83,-0.15,0.16,1.07,
1.815,-0.64,1.05,0.83,-0.14,0.16,1.07,
1.817,-0.64,1.05,0.83,-0.14,0.17,1.07,
1.817,-0.61,1.09,0.91,-0.14,0.17,1.07,
1.82,-0.61,1.09,0.91,-0.13,0.16,1.07,
1.822,-0.61,1.09,0.91,-0.13,0.16,1.06,
1.823,-0.52,1.12,0.94,-0.13,0.16,1.06,
1.825,-0.52,1.12,0.94,-0.12,0.16,1.06,
1.827,-0.52,1.12,0.94,-0.11,0.16,1.06,
1.828,-0.38,1.09,0.90,-0.11,0.16,1.06,
1.83,-0.38,1.09,0.90,-0.11,0.15,1.05,
1.832,-0.38,1.09,0.90,-0.10,0.15,1.05,
1.832,-0.21,1.04,0.83,-0.10,0.15,1.05,
1.834,-0.21,1.04,0.83,-0.09,0.14,1.04,
1.837,-0.21,1.04,0.83,-0.08,0.14,1.04,
1.837,-0.08,0.95,0.74,-0.08,0.14,1.04,
1.839,-0.08,0.95,0.74,-0.08,0.13,1.03,
1.847,-0.08,0.95,0.74,-0.07,0.13,1.03,
1.847,0.08,0.84,0.63,-0.07,0.13,1.03,
1.847,0.08,0.84,0.63,-0.07,0.13,1.03,
1.848,0.08,0.84,0.63,-0.07,0.12,1.02,
1.848,0.21,0.75,0.55,-0.07,0.12,1.02,
1.849,0.21,0.75,0.55,-0.06,0.12,1.02,
1.851,0.21,0.75,0.55,-0.06,0.12,1.02,
1.852,0.29,0.68,0.48,-0.06,0.12,1.02,
1.854,0.29,0.68,0.48,-0.07,0.11,1.02,
1.857,0.29,0.68,0.48,-0.07,0.11,1.02,
1.857,0.33,0.62,0.43,-0.07,0.11,1.02,
1.859,0.33,0.62,0.43,-0.07,0.11,1.02,
1.861,0.33,0.62,0.43,-0.08,0.11,1.02,
1.862,0.31,0.54,0.39,-0.08,0.11,1.02,
1.864,0.31,0.54,0.39,-0.08,0.11,1.02,
1.866,0.31,0.54,0.39,-0.08,0.11,1.02,
1.866,0.25,0.51,0.39,-0.08,0.11,1.02,
1.868,0.25,0.51,0.39,-0.09,0.12,1.02,
1.871,0.25,0.51,0.39,-0.09,0.12,1.03,
1.871,0.20,0.55,0.42,-0.09,0.12,1.03,
1.874,0.20,0.55,0.42,-0.10,0.13,1.03,
1.876,0.20,0.55,0.42,-0.10,0.13,1.03,
1.876,0.11,0.63,0.46,-0.10,0.13,1.03,
1.878,0.11,0.63,0.46,-0.11,0.13,1.03,
1.881,0.11,0.63,0.46,-0.12,0.14,1.03,
1.881,0.01,0.71,0.48,-0.12,0.14,1.03,
1.883,0.01,0.71,0.48,-0.13,0.14,1.03,
1.886,0.01,0.71,0.48,-0.13,0.14,1.03,
1.886,-0.13,0.75,0.47,-0.13,0.14,1.03,
1.888,-0.13,0.75,0.47,-0.13,0.14,1.03,
1.891,-0.13,0.75,0.47,-0.13,0.15,1.03,
1.892,-0.26,0.79,0.47,-0.13,0.15,1.03,
1.894,-0.26,0.79,0.47,-0.13,0.15,1.03,
1.896,-0.26,0.79,0.47,-0.12,0.15,1.03,
1.896,-0.27,0.85,0.47,-0.12,0.15,1.03,
1.898,-0.27,0.85,0.47,-0.12,0.15,1.03,
1.9,-0.27,0.85,0.47,-0.11,0.15,1.03,
1.901,-0.19,0.88,0.49,-0.11,0.15,1.03,
1.903,-0.19,0.88,0.49,-0.10,0.15,1.04,
1.905,-0.19,0.88,0.49,-0.10,0.15,1.04,
1.906,-0.08,0.89,0.52,-0.10,0.15,1.04,
1.908,-0.08,0.89,0.52,-0.09,0.14,1.04,
1.911,-0.08,0.89,0.52,-0.08,0.14,1.04,
1.911,0.06,0.87,0.57,-0.08,0.14,1.04,
1.913,0.06,0.87,0.57,-0.08,0.13,1.05,
1.915,0.06,0.87,0.57,-0.07,0.13,1.05,
1.915,0.21,0.79,0.61,-0.07,0.13,1.05,
1.918,0.21,0.79,0.61,-0.07,0.12,1.05,
1.92,0.21,0.79,0.61,-0.07,0.11,1.05,
1.92,0.33,0.67,0.66,-0.07,0.11,1.05,
1.923,0.33,0.67,0.66,-0.06,0.10,1.05,
1.925,0.33,0.67,0.66,-0.05,0.10,1.05,
1.925,0.40,0.52,0.69,-0.05,0.10,1.05,
1.928,0.40,0.52,0.69,-0.05,0.09,1.04,
1.93,0.40,0.52,0.69,-0.05,0.08,1.04,
1.93,0.50,0.37,0.67,-0.05,0.08,1.04,
1.932,0.50,0.37,0.67,-0.04,0.08,1.04,
1.935,0.50,0.37,0.67,-0.04,0.08,1.03,
1.935,0.59,0.22,0.60,-0.04,0.08,1.03,
1.937,0.59,0.22,0.60,-0.03,0.08,1.03,
1.946,0.59,0.22,0.60,-0.03,0.08,1.03,
1.946,0.68,0.15,0.53,-0.03,0.08,1.03,
1.947,0.68,0.15,0.53,-0.03,0.08,1.02,
1.947,0.68,0.15,0.53,-0.03,0.09,1.02,
1.947,0.75,0.13,0.45,-0.03,0.09,1.02,
1.947,0.75,0.13,0.45,-0.04,0.09,1.02,
1.949,0.75,0.13,0.45,-0.04,0.09,1.02,
1.95,0.75,0.18,0.38,-0.04,0.09,1.02,
1.952,0.75,0.18,0.38,-0.05,0.09,1.01,
1.954,0.75,0.18,0.38,-0.05,0.10,1.01,
1.954,0.67,0.23,0.33,-0.05,0.10,1.01,
1.958,0.67,0.23,0.33,-0.05,0.10,1.01,
1.959,0.67,0.23,0.33,-0.06,0.10,1.01,
1.96,0.60,0.27,0.27,-0.06,0.10,1.01,
1.962,0.60,0.27,0.27,-0.06,0.11,1.00,
1.964,0.60,0.27,0.27,-0.06,0.12,1.00,
1.964,0.52,0.35,0.24,-0.06,0.12,1.00,
1.966,0.52,0.35,0.24,-0.06,0.12,1.00,
1.969,0.52,0.35,0.24,-0.06,0.13,1.00,
1.969,0.48,0.45,0.20,-0.06,0.13,1.00,
1.971,0.48,0.45,0.20,-0.06,0.13,1.00,
1.974,0.48,0.45,0.20,-0.06,0.14,1.00,
1.974,0.48,0.55,0.17,-0.06,0.14,1.00,
1.976,0.48,0.55,0.17,-0.05,0.14,0.99,
1.979,0.48,0.55,0.17,-0.05,0.14,0.99,
1.979,0.52,0.62,0.14,-0.05,0.14,0.99,
1.981,0.52,0.62,0.14,-0.05,0.14,0.99,
1.983,0.52,0.62,0.14,-0.05,0.14,0.99,
1.984,0.59,0.69,0.11,-0.05,0.14,0.99,
1.986,0.59,0.69,0.11,-0.04,0.14,0.99,
1.988,0.59,0.69,0.11,-0.04,0.14,0.99,
1.989,0.62,0.71,0.10,-0.04,0.14,0.99,
1.991,0.62,0.71,0.10,-0.04,0.14,0.99,
1.993,0.62,0.71,0.10,-0.04,0.14,0.99,
1.993,0.65,0.69,0.10,-0.04,0.14,0.99,
1.996,0.65,0.69,0.10,-0.05,0.14,0.99,
1.998,0.65,0.69,0.10,-0.05,0.13,0.99,
1.998,0.65,0.66,0.09,-0.05,0.13,0.99,
2.001,0.65,0.66,0.09,-0.05,0.13,0.99,
2.003,0.65,0.66,0.09,-0.04,0.13,0.99,
2.003,0.62,0.58,0.06,-0.04,0.13,0.99,
2.006,0.62,0.58,0.06,-0.04,0.13,0.99,
2.008,0.62,0.58,0.06,-0.04,0.13,0.99,
2.008,0.65,0.53,0.05,-0.04,0.13,0.99,
2.01,0.65,0.53,0.05,-0.04,0.13,0.99,
2.013,0.65,0.53,0.05,-0.05,0.12,0.99,
2.013,0.68,0.49,0.04,-0.05,0.12,0.99,
2.015,0.68,0.49,0.04,-0.05,0.12,0.99,
2.018,0.68,0.49,0.04,-0.05,0.12,0.99,
2.018,0.64,0.45,0.03,-0.05,0.12,0.99,
2.02,0.64,0.45,0.03,-0.06,0.12,0.99,
2.023,0.64,0.45,0.03,-0.07,0.12,0.99,
2.024,0.59,0.42,0.04,-0.07,0.12,0.99,
2.025,0.59,0.42,0.04,-0.07,0.12,0.99,
2.028,0.59,0.42,0.04,-0.07,0.12,0.99,
2.028,0.50,0.40,0.05,-0.07,0.12,0.99,
2.03,0.50,0.40,0.05,-0.08,0.12,0.99,
2.033,0.50,0.40,0.05,-0.09,0.12,0.99,
2.033,0.40,0.40,0.07,-0.09,0.12,0.99,
2.035,0.40,0.40,0.07,-0.09,0.12,0.99,
2.037,0.40,0.40,0.07,-0.10,0.12,0.99,
2.037,0.30,0.40,0.10,-0.10,0.12,0.99,
2.04,0.30,0.40,0.10,-0.10,0.13,0.99,
2.042,0.30,0.40,0.10,-0.10,0.13,1.00,
2.042,0.21,0.38,0.11,-0.10,0.13,1.00,
2.045,0.21,0.38,0.11,-0.11,0.13,1.00,
2.047,0.21,0.38,0.11,-0.11,0.13,1.00,
2.048,0.15,0.41,0.13,-0.11,0.13,1.00,
2.05,0.15,0.41,0.13,-0.11,0.13,1.00,
2.052,0.15,0.41,0.13,-0.11,0.13,1.00,
2.052,0.09,0.39,0.14,-0.11,0.13,1.00,
2.055,0.09,0.39,0.14,-0.10,0.13,1.00,
2.059,0.09,0.39,0.14,-0.10,0.13,1.01,
2.059,0.11,0.38,0.18,-0.10,0.13,1.01,
2.06,0.11,0.38,0.18,-0.10,0.13,1.01,
2.062,0.11,0.38,0.18,-0.09,0.13,1.01,
2.062,0.17,0.41,0.23,-0.09,0.13,1.01,
2.065,0.17,0.41,0.23,-0.08,0.12,1.02,
2.067,0.17,0.41,0.23,-0.07,0.12,1.02,
2.067,0.25,0.37,0.30,-0.07,0.12,1.02,
2.069,0.25,0.37,0.30,-0.07,0.11,1.02,
2.072,0.25,0.37,0.30,-0.06,0.11,1.03,
2.072,0.40,0.29,0.35,-0.06,0.11,1.03,
2.074,0.40,0.29,0.35,-0.05,0.11,1.03,
2.077,0.40,0.29,0.35,-0.04,0.10,1.03,
2.077,0.54,0.19,0.40,-0.04,0.10,1.03,
2.079,0.54,0.19,0.40,-0.04,0.11,1.03,
2.082,0.54,0.19,0.40,-0.03,0.10,1.04,
2.082,0.70,0.12,0.44,-0.03,0.10,1.04,
2.084,0.70,0.12,0.44,-0.02,0.10,1.04,
2.087,0.70,0.12,0.44,-0.02,0.10,1.04,
2.087,0.86,0.11,0.50,-0.02,0.10,1.04,
2.09,0.86,0.11,0.50,-0.01,0.09,1.04,
2.091,0.86,0.11,0.50,-0.01,0.09,1.04,
2.092,0.97,0.04,0.53,-0.01,0.09,1.04,
2.094,0.97,0.04,0.53,-0.01,0.08,1.04,
2.096,0.97,0.04,0.53,-0.01,0.07,1.03,
2.097,1.04,-0.07,0.53,-0.01,0.07,1.03,
2.099,1.04,-0.07,0.53,-0.01,0.07,1.03,
2.101,1.04,-0.07,0.53,-0.00,0.07,1.03,
2.102,1.08,-0.19,0.51,-0.00,0.07,1.03,
2.104,1.08,-0.19,0.51,-0.00,0.07,1.03,
2.107,1.08,-0.19,0.51,-0.00,0.07,1.03,
2.108,1.11,-0.27,0.46,-0.00,0.07,1.03,
2.109,1.11,-0.27,0.46,-0.01,0.07,1.03,
2.111,1.11,-0.27,0.46,-0.01,0.07,1.03,
2.112,1.11,-0.29,0.44,-0.01,0.07,1.03,
2.114,1.11,-0.29,0.44,-0.01,0.07,1.03,
2.116,1.11,-0.29,0.44,-0.01,0.07,1.03,
2.116,1.07,-0.30,0.42,-0.01,0.07,1.03,
2.118,1.07,-0.30,0.42,-0.02,0.07,1.02,
2.121,1.07,-0.30,0.42,-0.03,0.08,1.02,
2.121,1.00,-0.29,0.40,-0.03,0.08,1.02,
2.123,1.00,-0.29,0.40,-0.03,0.08,1.02,
2.126,1.00,-0.29,0.40,-0.04,0.09,1.01,
2.126,0.89,-0.22,0.36,-0.04,0.09,1.01,
2.128,0.89,-0.22,0.36,-0.05,0.09,1.01,
2.131,0.89,-0.22,0.36,-0.05,0.10,1.01,
2.131,0.75,-0.14,0.30,-0.05,0.10,1.01,
2.133,0.75,-0.14,0.30,-0.05,0.11,1.00,
2.135,0.75,-0.14,0.30,-0.06,0.12,1.00,
2.136,0.63,-0.03,0.23,-0.06,0.12,1.00,
2.138,0.63,-0.03,0.23,-0.06,0.12,0.99,
2.14,0.63,-0.03,0.23,-0.07,0.13,0.99,
2.141,0.54,0.11,0.15,-0.07,0.13,0.99,
2.143,0.54,0.11,0.15,-0.07,0.14,0.98,
2.145,0.54,0.11,0.15,-0.07,0.14,0.98,
2.146,0.44,0.24,0.05,-0.07,0.14,0.98,
2.148,0.44,0.24,0.05,-0.08,0.14,0.97,
2.15,0.35,0.33,-0.07,-0.08,0.14,0.97,
2.151,0.35,0.33,-0.07,-0.08,0.14,0.97,
2.153,0.35,0.33,-0.07,-0.08,0.14,0.96,
2.155,0.35,0.33,-0.07,-0.08,0.14,0.96,
2.156,0.32,0.37,-0.13,-0.08,0.14,0.96,
2.163,0.32,0.37,-0.13,-0.07,0.15,0.96,
2.163,0.32,0.37,-0.13,-0.07,0.14,0.95,
2.163,0.30,0.37,-0.24,-0.07,0.14,0.95,
2.164,0.30,0.37,-0.24,-0.07,0.14,0.95,
2.165,0.32,0.37,-0.28,-0.07,0.14,0.95,
2.165,0.32,0.37,-0.28,-0.06,0.14,0.95,
2.168,0.32,0.37,-0.28,-0.06,0.14,0.95,
2.17,0.32,0.37,-0.28,-0.05,0.14,0.96,
2.17,0.40,0.33,-0.32,-0.05,0.14,0.96,
2.176,0.40,0.33,-0.32,-0.04,0.13,0.96,
2.177,0.40,0.33,-0.32,-0.04,0.13,0.97,
2.177,0.52,0.27,-0.28,-0.04,0.13,0.97,
2.177,0.52,0.27,-0.28,-0.03,0.12,0.98,
2.179,0.52,0.27,-0.28,-0.02,0.12,0.99,
2.18,0.65,0.17,-0.18,-0.02,0.12,0.99,
2.182,0.65,0.17,-0.18,-0.02,0.12,1.00,
2.184,0.65,0.17,-0.18,-0.02,0.11,1.01,
2.185,0.76,0.08,-0.01,-0.02,0.11,1.01,
2.187,0.76,0.08,-0.01,-0.01,0.11,1.02,
2.19,0.76,0.08,-0.01,-0.01,0.11,1.03,
2.191,0.84,0.02,0.17,-0.01,0.11,1.03,
2.192,0.84,0.02,0.17,-0.01,0.10,1.04,
2.194,0.84,0.02,0.17,-0.00,0.10,1.05,
2.194,0.91,-0.05,0.42,-0.00,0.10,1.05,
2.197,0.91,-0.05,0.42,-0.00,0.10,1.06,
2.199,0.91,-0.05,0.42,-0.00,0.10,1.07,
2.199,0.95,-0.09,0.59,-0.00,0.10,1.07,
2.202,0.95,-0.09,0.59,-0.00,0.10,1.07,
2.204,0.95,-0.09,0.59,-0.00,0.10,1.08,
2.204,1.00,-0.12,0.76,-0.00,0.10,1.08,
2.206,1.00,-0.12,0.76,-0.01,0.10,1.08,
2.209,1.00,-0.12,0.76,-0.01,0.10,1.08,
2.21,0.98,-0.12,0.87,-0.01,0.10,1.08,
2.211,0.98,-0.12,0.87,-0.01,0.11,1.08,
2.214,0.98,-0.12,0.87,-0.02,0.11,1.08,
2.214,0.93,-0.10,0.92,-0.02,0.11,1.08,
2.216,0.93,-0.10,0.92,-0.02,0.11,1.07,
2.219,0.93,-0.10,0.92,-0.02,0.11,1.07,
2.219,0.84,-0.07,0.90,-0.02,0.11,1.07,
2.221,0.84,-0.07,0.90,-0.02,0.11,1.06,
2.224,0.84,-0.07,0.90,-0.02,0.11,1.05,
2.224,0.77,-0.06,0.81,-0.02,0.11,1.05,
2.226,0.77,-0.06,0.81,-0.02,0.12,1.04,
2.229,0.77,-0.06,0.81,-0.02,0.12,1.03,
2.229,0.74,-0.05,0.67,-0.02,0.12,1.03,
2.231,0.74,-0.05,0.67,-0.03,0.12,1.02,
2.233,0.74,-0.05,0.67,-0.03,0.12,1.01,
2.234,0.69,0.01,0.47,-0.03,0.12,1.01,
2.236,0.69,0.01,0.47,-0.03,0.12,1.00,
2.238,0.69,0.01,0.47,-0.04,0.12,0.99,
2.239,0.64,0.03,0.28,-0.04,0.12,0.99,
2.246,0.64,0.03,0.28,-0.04,0.12,0.98,
2.247,0.64,0.03,0.28,-0.04,0.11,0.97,
2.247,0.56,-0.00,0.10,-0.04,0.11,0.97,
2.248,0.56,-0.00,0.10,-0.04,0.11,0.97,
2.248,0.49,-0.10,-0.10,-0.04,0.11,0.97,
2.249,0.49,-0.10,-0.10,-0.04,0.10,0.96,
2.25,0.49,-0.10,-0.10,-0.05,0.10,0.95,
2.253,0.49,-0.10,-0.10,-0.04,0.10,0.94,
2.253,0.43,-0.17,-0.28,-0.04,0.10,0.94,
2.261,0.43,-0.17,-0.28,-0.04,0.10,0.94,
2.262,0.43,-0.17,-0.28,-0.04,0.09,0.94,
2.262,0.40,-0.26,-0.43,-0.04,0.09,0.94,
2.262,0.40,-0.26,-0.43,-0.03,0.09,0.94,
2.263,0.40,-0.26,-0.43,-0.03,0.09,0.94,
2.263,0.43,-0.31,-0.50,-0.03,0.09,0.94,
2.265,0.43,-0.31,-0.50,-0.02,0.09,0.94,
2.268,0.43,-0.31,-0.50,-0.01,0.09,0.95,
2.268,0.50,-0.33,-0.48,-0.01,0.09,0.95,
2.27,0.50,-0.33,-0.48,-0.00,0.08,0.96,
2.273,0.50,-0.33,-0.48,0.01,0.08,0.97,
2.273,0.66,-0.38,-0.40,0.01,0.08,0.97,
2.275,0.66,-0.38,-0.40,0.02,0.08,0.97,
2.277,0.66,-0.38,-0.40,0.02,0.07,0.98,
2.278,0.80,-0.44,-0.24,0.02,0.07,0.98,
2.28,0.80,-0.44,-0.24,0.03,0.07,0.99,
2.282,0.80,-0.44,-0.24,0.04,0.07,1.00,
2.282,0.96,-0.50,-0.09,0.04,0.07,1.00,
2.285,0.96,-0.50,-0.09,0.04,0.06,1.01,
2.287,0.96,-0.50,-0.09,0.05,0.06,1.01,
2.288,1.12,-0.56,0.08,0.05,0.06,1.01,
2.29,1.12,-0.56,0.08,0.05,0.06,1.02,
2.293,1.12,-0.56,0.08,0.06,0.06,1.03,
2.293,1.19,-0.60,0.22,0.06,0.06,1.03,
2.295,1.19,-0.60,0.22,0.06,0.06,1.03,
2.297,1.19,-0.60,0.22,0.06,0.06,1.04,
2.298,1.26,-0.61,0.34,0.06,0.06,1.04,
2.299,1.26,-0.61,0.34,0.06,0.06,1.04,
2.302,1.26,-0.61,0.34,0.06,0.07,1.04,
2.302,1.29,-0.60,0.44,0.06,0.07,1.04,
2.305,1.29,-0.60,0.44,0.06,0.07,1.05,
2.307,1.29,-0.60,0.44,0.05,0.08,1.05,
2.307,1.28,-0.54,0.53,0.05,0.08,1.05,
2.309,1.28,-0.54,0.53,0.04,0.08,1.05,
2.312,1.28,-0.54,0.53,0.03,0.09,1.06,
2.312,1.18,-0.44,0.59,0.03,0.09,1.06,
2.314,1.18,-0.44,0.59,0.02,0.09,1.06,
2.317,1.18,-0.44,0.59,0.00,0.10,1.06,
2.317,0.98,-0.34,0.65,0.00,0.10,1.06,
2.319,0.98,-0.34,0.65,-0.01,0.10,1.06,
2.323,0.98,-0.34,0.65,-0.02,0.10,1.06,
2.324,0.73,-0.25,0.68,-0.02,0.10,1.06,
2.324,0.73,-0.25,0.68,-0.04,0.11,1.06,
2.327,0.73,-0.25,0.68,-0.05,0.11,1.06,
2.327,0.44,-0.19,0.67,-0.05,0.11,1.06,
2.329,0.44,-0.19,0.67,-0.06,0.11,1.05,
2.331,0.44,-0.19,0.67,-0.07,0.11,1.05,
2.332,0.18,-0.14,0.65,-0.07,0.11,1.05,
2.334,0.18,-0.14,0.65,-0.07,0.12,1.04,
2.336,0.18,-0.14,0.65,-0.08,0.12,1.04,
2.336,-0.02,-0.12,0.58,-0.08,0.12,1.04,
2.339,-0.02,-0.12,0.58,-0.08,0.11,1.03,
2.341,-0.02,-0.12,0.58,-0.08,0.11,1.02,
2.341,-0.19,-0.10,0.46,-0.08,0.11,1.02,
2.344,-0.19,-0.10,0.46,-0.08,0.10,1.01,
2.346,-0.19,-0.10,0.46,-0.07,0.10,1.00,
2.347,-0.26,-0.18,0.31,-0.07,0.10,1.00,
2.348,-0.26,-0.18,0.31,-0.07,0.10,1.00,
2.351,-0.26,-0.18,0.31,-0.06,0.09,0.99,
2.351,-0.22,-0.27,0.16,-0.06,0.09,0.99,
2.353,-0.22,-0.27,0.16,-0.05,0.09,0.98,
2.362,-0.22,-0.27,0.16,-0.04,0.08,0.98,
2.362,-0.09,-0.37,0.01,-0.04,0.08,0.98,
2.363,-0.09,-0.37,0.01,-0.03,0.08,0.98,
2.363,-0.09,-0.37,0.01,-0.02,0.07,0.98,
2.363,0.09,-0.46,-0.11,-0.02,0.07,0.98,
2.364,0.09,-0.46,-0.11,-0.01,0.07,0.98,
2.366,0.09,-0.46,-0.11,0.01,0.07,0.98,
2.367,0.30,-0.55,-0.15,0.01,0.07,0.98,
2.368,0.30,-0.55,-0.15,0.01,0.06,0.99,
2.371,0.30,-0.55,-0.15,0.02,0.06,0.99,
2.371,0.51,-0.62,-0.11,0.02,0.06,0.99,
2.38,0.51,-0.62,-0.11,0.03,0.05,1.00,
2.38,0.51,-0.62,-0.11,0.04,0.05,1.00,
2.38,0.67,-0.69,-0.03,0.04,0.05,1.00,
2.38,0.67,-0.69,-0.03,0.04,0.05,1.01,
2.381,0.67,-0.69,-0.03,0.04,0.04,1.02,
2.381,0.80,-0.77,0.09,0.04,0.04,1.02,
2.383,0.80,-0.77,0.09,0.05,0.04,1.03,
2.385,0.80,-0.77,0.09,0.05,0.04,1.03,
2.385,0.88,-0.84,0.23,0.05,0.04,1.03,
2.388,0.88,-0.84,0.23,0.05,0.04,1.03,
2.39,0.88,-0.84,0.23,0.05,0.04,1.04,
2.391,0.92,-0.88,0.34,0.05,0.04,1.04,
2.392,0.92,-0.88,0.34,0.05,0.05,1.04,
2.395,0.92,-0.88,0.34,0.05,0.05,1.04,
2.395,0.94,-0.87,0.42,0.05,0.05,1.04,
2.397,0.94,-0.87,0.42,0.05,0.06,1.04,
2.4,0.94,-0.87,0.42,0.05,0.06,1.03,
2.4,0.94,-0.79,0.45,0.05,0.06,1.03,
2.402,0.94,-0.79,0.45,0.04,0.06,1.03,
2.405,0.94,-0.79,0.45,0.03,0.06,1.03,
2.405,0.87,-0.72,0.41,0.03,0.06,1.03,
2.407,0.87,-0.72,0.41,0.01,0.07,1.02,
2.41,0.87,-0.72,0.41,-0.00,0.07,1.01,
2.41,0.68,-0.66,0.37,-0.00,0.07,1.01,
2.412,0.68,-0.66,0.37,-0.02,0.07,1.01,
2.414,0.68,-0.66,0.37,-0.03,0.07,1.00,
2.415,0.42,-0.64,0.25,-0.03,0.07,1.00,
2.417,0.42,-0.64,0.25,-0.05,0.07,1.00,
2.419,0.42,-0.64,0.25,-0.06,0.08,0.99,
2.419,0.11,-0.63,0.12,-0.06,0.08,0.99,
2.422,0.11,-0.63,0.12,-0.08,0.08,0.99,
2.425,0.11,-0.63,0.12,-0.09,0.09,0.99,
2.425,-0.20,-0.56,0.03,-0.09,0.09,0.99,
2.427,-0.20,-0.56,0.03,-0.10,0.10,0.99,
2.429,-0.20,-0.56,0.03,-0.11,0.11,0.98,
2.43,-0.48,-0.46,-0.03,-0.11,0.11,0.98,
2.432,-0.48,-0.46,-0.03,-0.12,0.11,0.98,
2.434,-0.48,-0.46,-0.03,-0.13,0.11,0.98,
2.434,-0.72,-0.34,-0.08,-0.13,0.11,0.98,
2.437,-0.72,-0.34,-0.08,-0.13,0.12,0.97,
2.439,-0.72,-0.34,-0.08,-0.13,0.12,0.97,
2.44,-0.88,-0.25,-0.13,-0.13,0.12,0.97,
2.442,-0.88,-0.25,-0.13,-0.13,0.12,0.97,
2.444,-0.88,-0.25,-0.13,-0.12,0.12,0.97,
2.444,-0.92,-0.24,-0.19,-0.12,0.12,0.97,
2.446,-0.92,-0.24,-0.19,-0.11,0.13,0.97,
2.449,-0.92,-0.24,-0.19,-0.10,0.13,0.97,
2.449,-0.85,-0.19,-0.22,-0.10,0.13,0.97,
2.451,-0.85,-0.19,-0.22,-0.09,0.13,0.97,
2.454,-0.85,-0.19,-0.22,-0.08,0.12,0.97,
2.454,-0.66,-0.16,-0.24,-0.08,0.12,0.97,
2.461,-0.66,-0.16,-0.24,-0.06,0.12,0.97,
2.462,-0.66,-0.16,-0.24,-0.05,0.11,0.97,
2.462,-0.44,-0.21,-0.23,-0.05,0.11,0.97,
2.463,-0.44,-0.21,-0.23,-0.04,0.11,0.97,
2.464,-0.44,-0.21,-0.23,-0.03,0.10,0.97,
2.464,-0.18,-0.29,-0.22,-0.03,0.10,0.97,
2.466,-0.18,-0.29,-0.22,-0.02,0.09,0.97,
2.469,-0.18,-0.29,-0.22,-0.01,0.08,0.97,
2.469,0.06,-0.44,-0.21,-0.01,0.08,0.97,
2.471,0.06,-0.44,-0.21,-0.00,0.08,0.96,
2.477,0.06,-0.44,-0.21,0.00,0.07,0.96,
2.477,0.25,-0.61,-0.22,0.00,0.07,0.96,
2.478,0.25,-0.61,-0.22,0.00,0.06,0.96,
2.478,0.25,-0.61,-0.22,0.00,0.05,0.96,
2.479,0.37,-0.75,-0.26,0.00,0.05,0.96,
2.481,0.37,-0.75,-0.26,0.00,0.05,0.95,
2.483,0.37,-0.75,-0.26,-0.00,0.05,0.95,
2.483,0.38,-0.89,-0.31,-0.00,0.05,0.95,
2.485,0.38,-0.89,-0.31,-0.00,0.04,0.95,
2.489,0.38,-0.89,-0.31,-0.01,0.04,0.94,
2.489,0.33,-1.01,-0.37,-0.01,0.04,0.94,
2.491,0.33,-1.01,-0.37,-0.01,0.05,0.94,
2.493,0.33,-1.01,-0.37,-0.02,0.05,0.94,
2.493,0.27,-1.03,-0.41,-0.02,0.05,0.94,
2.495,0.27,-1.03,-0.41,-0.03,0.05,0.94,
2.498,0.27,-1.03,-0.41,-0.04,0.06,0.94,
2.498,0.17,-1.01,-0.44,-0.04,0.06,0.94,
2.5,0.17,-1.01,-0.44,-0.05,0.07,0.95,
2.503,0.17,-1.01,-0.44,-0.06,0.08,0.95,
2.503,-0.01,-0.90,-0.42,-0.06,0.08,0.95,
2.505,-0.01,-0.90,-0.42,-0.07,0.08,0.95,
2.507,-0.01,-0.90,-0.42,-0.08,0.09,0.96,
2.508,-0.21,-0.77,-0.37,-0.08,0.09,0.96,
2.51,-0.21,-0.77,-0.37,-0.09,0.10,0.96,
2.512,-0.21,-0.77,-0.37,-0.10,0.11,0.97,
2.513,-0.45,-0.61,-0.28,-0.10,0.11,0.97,
2.515,-0.45,-0.61,-0.28,-0.10,0.11,0.97,
2.517,-0.45,-0.61,-0.28,-0.11,0.12,0.98,
2.518,-0.61,-0.48,-0.18,-0.11,0.12,0.98,
2.52,-0.61,-0.48,-0.18,-0.11,0.12,0.98,
2.522,-0.61,-0.48,-0.18,-0.11,0.12,0.98,
2.522,-0.72,-0.37,-0.09,-0.11,0.12,0.98,
2.525,-0.72,-0.37,-0.09,-0.11,0.12,0.98,
2.527,-0.72,-0.37,-0.09,-0.11,0.13,0.98,
2.528,-0.75,-0.30,-0.04,-0.11,0.13,0.98,
2.53,-0.75,-0.30,-0.04,-0.10,0.13,0.98,
2.532,-0.75,-0.30,-0.04,-0.10,0.12,0.98,
2.532,-0.72,-0.27,-0.03,-0.10,0.12,0.98,
2.534,-0.72,-0.27,-0.03,-0.09,0.12,0.98,
2.537,-0.72,-0.27,-0.03,-0.08,0.12,0.97,
2.537,-0.62,-0.28,-0.07,-0.08,0.12,0.97,
2.544,-0.62,-0.28,-0.07,-0.07,0.11,0.97,
2.544,-0.62,-0.28,-0.07,-0.06,0.10,0.97,
2.544,-0.51,-0.36,-0.10,-0.06,0.10,0.97,
2.545,-0.51,-0.36,-0.10,-0.05,0.09,0.96,
2.547,-0.51,-0.36,-0.10,-0.04,0.09,0.96,
2.547,-0.33,-0.48,-0.17,-0.04,0.09,0.96,
2.549,-0.33,-0.48,-0.17,-0.03,0.08,0.95,
2.551,-0.33,-0.48,-0.17,-0.02,0.07,0.95,
2.552,-0.13,-0.64,-0.24,-0.02,0.07,0.95,
2.554,-0.13,-0.64,-0.24,-0.01,0.07,0.95,
2.557,-0.13,-0.64,-0.24,-0.01,0.06,0.95,
2.557,0.05,-0.77,-0.30,-0.01,0.06,0.95,
2.559,0.05,-0.77,-0.30,-0.00,0.05,0.94,
2.561,0.05,-0.77,-0.30,0.00,0.05,0.94,
2.562,0.23,-0.91,-0.35,0.00,0.05,0.94,
2.564,0.23,-0.91,-0.35,0.00,0.04,0.94,
2.566,0.23,-0.91,-0.35,0.00,0.04,0.94,
2.566,0.30,-1.04,-0.38,0.00,0.04,0.94,
2.569,0.30,-1.04,-0.38,0.00,0.04,0.94,
2.571,0.30,-1.04,-0.38,0.00,0.04,0.94,
2.572,0.35,-1.14,-0.41,0.00,0.04,0.94,
2.574,0.35,-1.14,-0.41,-0.00,0.04,0.94,
2.576,0.35,-1.14,-0.41,-0.00,0.04,0.94,
2.576,0.33,-1.18,-0.41,-0.00,0.04,0.94,
2.579,0.33,-1.18,-0.41,-0.01,0.04,0.94,
2.581,0.33,-1.18,-0.41,-0.01,0.05,0.94,
2.581,0.30,-1.16,-0.42,-0.01,0.05,0.94,
2.583,0.30,-1.16,-0.42,-0.02,0.05,0.94,
2.586,0.30,-1.16,-0.42,-0.03,0.06,0.94,
2.586,0.22,-1.09,-0.42,-0.03,0.06,0.94,
2.588,0.22,-1.09,-0.42,-0.03,0.06,0.94,
2.591,0.22,-1.09,-0.42,-0.04,0.06,0.94,
2.591,0.10,-1.01,-0.43,-0.04,0.06,0.94,
2.593,0.10,-1.01,-0.43,-0.05,0.06,0.93,
2.596,0.10,-1.01,-0.43,-0.06,0.07,0.93,
2.596,-0.06,-0.95,-0.43,-0.06,0.07,0.93,
2.598,-0.06,-0.95,-0.43,-0.06,0.07,0.93,
2.601,-0.06,-0.95,-0.43,-0.06,0.08,0.93,
2.601,-0.19,-0.89,-0.44,-0.06,0.08,0.93,
2.603,-0.19,-0.89,-0.44,-0.06,0.08,0.93,
2.606,-0.19,-0.89,-0.44,-0.06,0.09,0.93,
2.607,-0.28,-0.80,-0.44,-0.06,0.09,0.93,
2.608,-0.28,-0.80,-0.44,-0.06,0.10,0.94,
2.61,-0.28,-0.80,-0.44,-0.06,0.11,0.94,
2.611,-0.29,-0.68,-0.43,-0.06,0.11,0.94,
2.613,-0.29,-0.68,-0.43,-0.05,0.11,0.94,
2.615,-0.29,-0.68,-0.43,-0.05,0.11,0.95,
2.616,-0.22,-0.54,-0.37,-0.05,0.11,0.95,
2.618,-0.22,-0.54,-0.37,-0.05,0.11,0.96,
2.62,-0.22,-0.54,-0.37,-0.05,0.11,0.96,
2.621,-0.18,-0.44,-0.30,-0.05,0.11,0.96,
2.623,-0.18,-0.44,-0.30,-0.05,0.11,0.96,
2.626,-0.18,-0.44,-0.30,-0.04,0.11,0.97,
2.626,-0.15,-0.42,-0.19,-0.04,0.11,0.97,
2.628,-0.15,-0.42,-0.19,-0.04,0.10,0.97,
2.63,-0.15,-0.42,-0.19,-0.04,0.10,0.97,
2.631,-0.12,-0.48,-0.10,-0.04,0.10,0.97,
2.632,-0.12,-0.48,-0.10,-0.04,0.09,0.97,
2.635,-0.12,-0.48,-0.10,-0.03,0.09,0.97,
2.635,-0.07,-0.56,-0.05,-0.03,0.09,0.97,
2.645,-0.07,-0.56,-0.05,-0.03,0.09,0.98,
2.645,-0.07,-0.56,-0.05,-0.03,0.09,0.97,
2.645,-0.01,-0.62,-0.03,-0.03,0.09,0.97,
2.646,-0.01,-0.62,-0.03,-0.02,0.08,0.97,
2.646,-0.01,-0.62,-0.03,-0.02,0.08,0.97,
2.646,0.05,-0.68,-0.02,-0.02,0.08,0.97,
2.647,0.05,-0.68,-0.02,-0.02,0.07,0.97,
2.65,0.05,-0.68,-0.02,-0.02,0.07,0.96,
2.65,0.09,-0.76,-0.04,-0.02,0.07,0.96,
2.652,0.09,-0.76,-0.04,-0.03,0.07,0.96,
2.657,0.09,-0.76,-0.04,-0.03,0.06,0.96,
2.657,0.10,-0.83,-0.10,-0.03,0.06,0.96,
2.657,0.10,-0.83,-0.10,-0.03,0.06,0.95,
2.659,0.10,-0.83,-0.10,-0.04,0.06,0.95,
2.659,0.02,-0.90,-0.17,-0.04,0.06,0.95,
2.662,0.02,-0.90,-0.17,-0.05,0.06,0.94,
2.664,0.02,-0.90,-0.17,-0.06,0.06,0.94,
2.664,-0.08,-0.95,-0.25,-0.06,0.06,0.94,
2.667,-0.08,-0.95,-0.25,-0.06,0.06,0.94,
2.669,-0.08,-0.95,-0.25,-0.06,0.07,0.94,
2.669,-0.22,-0.94,-0.32,-0.06,0.07,0.94,
2.672,-0.22,-0.94,-0.32,-0.07,0.07,0.94,
2.674,-0.22,-0.94,-0.32,-0.07,0.07,0.93,
2.674,-0.30,-0.88,-0.35,-0.07,0.07,0.93,
2.677,-0.30,-0.88,-0.35,-0.07,0.08,0.93,
2.679,-0.39,-0.82,-0.40,-0.07,0.08,0.93,
2.679,-0.39,-0.82,-0.40,-0.08,0.08,0.93,
2.682,-0.39,-0.82,-0.40,-0.08,0.09,0.93,
2.684,-0.39,-0.82,-0.40,-0.08,0.10,0.93,
2.684,-0.42,-0.72,-0.42,-0.08,0.10,0.93,
2.686,-0.42,-0.72,-0.42,-0.07,0.10,0.92,
2.689,-0.42,-0.72,-0.42,-0.07,0.10,0.92,
2.689,-0.44,-0.62,-0.46,-0.07,0.10,0.92,
2.692,-0.44,-0.62,-0.46,-0.07,0.11,0.92,
2.694,-0.44,-0.62,-0.46,-0.07,0.11,0.92,
2.694,-0.42,-0.53,-0.51,-0.07,0.11,0.92,
2.696,-0.42,-0.53,-0.51,-0.06,0.11,0.92,
2.699,-0.42,-0.53,-0.51,-0.06,0.12,0.93,
2.699,-0.38,-0.46,-0.51,-0.06,0.12,0.93,
2.701,-0.38,-0.46,-0.51,-0.06,0.12,0.93,
2.703,-0.38,-0.46,-0.51,-0.06,0.12,0.94,
2.704,-0.31,-0.41,-0.47,-0.06,0.12,0.94,
2.706,-0.31,-0.41,-0.47,-0.05,0.11,0.94,
2.709,-0.31,-0.41,-0.47,-0.05,0.11,0.94,
2.709,-0.25,-0.38,-0.38,-0.05,0.11,0.94,
2.711,-0.25,-0.38,-0.38,-0.05,0.10,0.94,
2.713,-0.25,-0.38,-0.38,-0.05,0.10,0.95,
2.714,-0.23,-0.45,-0.32,-0.05,0.10,0.95,
2.716,-0.23,-0.45,-0.32,-0.05,0.09,0.95,
2.719,-0.23,-0.45,-0.32,-0.04,0.09,0.95,
2.719,-0.21,-0.54,-0.25,-0.04,0.09,0.95,
2.722,-0.21,-0.54,-0.25,-0.04,0.08,0.96,
2.723,-0.21,-0.54,-0.25,-0.04,0.08,0.96,
2.724,-0.16,-0.62,-0.18,-0.04,0.08,0.96,
2.726,-0.16,-0.62,-0.18,-0.04,0.08,0.96,
2.728,-0.16,-0.62,-0.18,-0.04,0.08,0.96,
2.728,-0.14,-0.68,-0.15,-0.04,0.08,0.96,
2.73,-0.14,-0.68,-0.15,-0.04,0.08,0.96,
2.733,-0.14,-0.68,-0.15,-0.04,0.09,0.96,
2.733,-0.10,-0.69,-0.12,-0.04,0.09,0.96,
2.735,-0.10,-0.69,-0.12,-0.04,0.09,0.96,
2.738,-0.10,-0.69,-0.12,-0.05,0.09,0.96,
2.742,-0.12,-0.66,-0.11,-0.05,0.09,0.96,
2.742,-0.12,-0.66,-0.11,-0.05,0.09,0.96,
2.743,-0.12,-0.66,-0.11,-0.05,0.09,0.96,
2.743,-0.18,-0.61,-0.12,-0.05,0.09,0.96,
2.745,-0.18,-0.61,-0.12,-0.06,0.10,0.96,
2.748,-0.18,-0.61,-0.12,-0.07,0.10,0.95,
2.748,-0.24,-0.56,-0.14,-0.07,0.10,0.95,
2.75,-0.24,-0.56,-0.14,-0.07,0.10,0.95,
2.752,-0.24,-0.56,-0.14,-0.08,0.10,0.95,
2.753,-0.38,-0.50,-0.16,-0.08,0.10,0.95,
2.76,-0.38,-0.50,-0.16,-0.08,0.10,0.94,
2.76,-0.38,-0.50,-0.16,-0.09,0.11,0.94,
2.761,-0.50,-0.46,-0.21,-0.09,0.11,0.94,
2.761,-0.50,-0.46,-0.21,-0.09,0.11,0.93,
2.762,-0.50,-0.46,-0.21,-0.09,0.12,0.92,
2.763,-0.59,-0.43,-0.32,-0.09,0.12,0.92,
2.765,-0.59,-0.43,-0.32,-0.09,0.12,0.92,
2.767,-0.59,-0.43,-0.32,-0.10,0.12,0.91,
2.768,-0.66,-0.35,-0.41,-0.10,0.12,0.91,
2.77,-0.66,-0.35,-0.41,-0.10,0.12,0.91,
2.772,-0.66,-0.35,-0.41,-0.10,0.13,0.91,
2.772,-0.72,-0.27,-0.52,-0.10,0.13,0.91,
2.774,-0.72,-0.27,-0.52,-0.11,0.12,0.90,
2.777,-0.72,-0.27,-0.52,-0.10,0.13,0.90,
2.777,-0.79,-0.23,-0.60,-0.10,0.13,0.90,
2.779,-0.79,-0.23,-0.60,-0.10,0.13,0.90,
2.782,-0.79,-0.23,-0.60,-0.09,0.13,0.90,
2.782,-0.81,-0.23,-0.65,-0.09,0.13,0.90,
2.784,-0.81,-0.23,-0.65,-0.09,0.13,0.90,
2.787,-0.81,-0.23,-0.65,-0.09,0.13,0.90,
2.787,-0.74,-0.20,-0.68,-0.09,0.13,0.90,
2.789,-0.74,-0.20,-0.68,-0.08,0.13,0.90,
2.792,-0.74,-0.20,-0.68,-0.08,0.14,0.90,
2.792,-0.66,-0.15,-0.70,-0.08,0.14,0.90,
2.794,-0.66,-0.15,-0.70,-0.07,0.14,0.91,
2.796,-0.66,-0.15,-0.70,-0.07,0.14,0.92,
2.797,-0.57,-0.11,-0.64,-0.07,0.14,0.92,
2.799,-0.57,-0.11,-0.64,-0.06,0.14,0.92,
2.801,-0.57,-0.11,-0.64,-0.06,0.13,0.93,
2.802,-0.50,-0.09,-0.53,-0.06,0.13,0.93,
2.804,-0.50,-0.09,-0.53,-0.06,0.13,0.94,
2.806,-0.50,-0.09,-0.53,-0.06,0.13,0.94,
2.806,-0.42,-0.11,-0.40,-0.06,0.13,0.94,
2.809,-0.42,-0.11,-0.40,-0.06,0.12,0.95,
2.811,-0.42,-0.11,-0.40,-0.06,0.12,0.95,
2.811,-0.39,-0.17,-0.26,-0.06,0.12,0.95,
2.814,-0.39,-0.17,-0.26,-0.06,0.12,0.96,
2.816,-0.39,-0.17,-0.26,-0.06,0.11,0.96,
2.816,-0.36,-0.23,-0.15,-0.06,0.11,0.96,
2.819,-0.36,-0.23,-0.15,-0.06,0.11,0.96,
2.821,-0.36,-0.23,-0.15,-0.06,0.11,0.96,
2.822,-0.37,-0.30,-0.09,-0.06,0.11,0.96,
2.824,-0.37,-0.30,-0.09,-0.07,0.11,0.96,
2.826,-0.37,-0.30,-0.09,-0.07,0.11,0.95,
2.827,-0.41,-0.34,-0.05,-0.07,0.11,0.95,
2.828,-0.41,-0.34,-0.05,-0.08,0.11,0.95,
2.833,-0.41,-0.34,-0.05,-0.08,0.11,0.95,
2.833,-0.49,-0.35,-0.10,-0.08,0.11,0.95,
2.834,-0.49,-0.35,-0.10,-0.09,0.12,0.94,
2.836,-0.49,-0.35,-0.10,-0.09,0.12,0.93,
2.837,-0.57,-0.31,-0.18,-0.09,0.12,0.93,
2.839,-0.57,-0.31,-0.18,-0.10,0.12,0.93,
2.841,-0.57,-0.31,-0.18,-0.10,0.13,0.92,
2.841,-0.66,-0.24,-0.28,-0.10,0.13,0.92,
2.843,-0.66,-0.24,-0.28,-0.11,0.13,0.92,
2.846,-0.66,-0.24,-0.28,-0.11,0.14,0.91,
2.846,-0.76,-0.19,-0.41,-0.11,0.14,0.91,
2.848,-0.76,-0.19,-0.41,-0.12,0.15,0.91,
2.85,-0.76,-0.19,-0.41,-0.12,0.15,0.91,
2.851,-0.86,-0.08,-0.50,-0.12,0.15,0.91,
2.853,-0.86,-0.08,-0.50,-0.12,0.16,0.90,
2.861,-0.86,-0.08,-0.50,-0.12,0.17,0.90,
2.861,-0.94,0.05,-0.57,-0.12,0.17,0.90,
2.862,-0.94,0.05,-0.57,-0.12,0.17,0.90,
2.862,-0.94,0.05,-0.57,-0.13,0.18,0.91,
2.862,-0.93,0.19,-0.59,-0.13,0.18,0.91,
2.863,-0.93,0.19,-0.59,-0.13,0.18,0.91,
2.865,-0.93,0.19,-0.59,-0.13,0.19,0.92,
2.866,-0.97,0.32,-0.57,-0.13,0.19,0.92,
2.868,-0.97,0.32,-0.57,-0.14,0.19,0.92,
2.87,-0.97,0.32,-0.57,-0.14,0.19,0.93,
2.871,-1.04,0.42,-0.47,-0.14,0.19,0.93,
2.879,-1.04,0.42,-0.47,-0.14,0.19,0.94,
2.879,-1.04,0.42,-0.47,-0.14,0.19,0.94,
2.879,-1.08,0.43,-0.37,-0.14,0.19,0.94,
2.88,-1.08,0.43,-0.37,-0.13,0.19,0.95,
2.88,-1.08,0.43,-0.37,-0.13,0.18,0.95,
2.88,-1.06,0.43,-0.23,-0.13,0.18,0.95,
2.882,-1.06,0.43,-0.23,-0.13,0.18,0.96,
2.884,-1.06,0.43,-0.23,-0.13,0.18,0.96,
2.885,-1.03,0.42,-0.12,-0.13,0.18,0.96,
2.887,-1.03,0.42,-0.12,-0.13,0.18,0.97,
2.889,-1.03,0.42,-0.12,-0.12,0.18,0.97,
2.89,-0.96,0.40,-0.04,-0.12,0.18,0.97,
2.892,-0.96,0.40,-0.04,-0.13,0.18,0.97,
2.896,-0.96,0.40,-0.04,-0.13,0.17,0.97,
2.896,-0.95,0.37,0.04,-0.13,0.17,0.97,
2.897,-0.95,0.37,0.04,-0.13,0.17,0.97,
2.899,-0.95,0.37,0.04,-0.13,0.16,0.97,
2.899,-0.97,0.31,0.07,-0.13,0.16,0.97,
2.902,-0.97,0.31,0.07,-0.13,0.16,0.97,
2.905,-0.97,0.31,0.07,-0.13,0.16,0.97,
2.905,-1.00,0.25,0.08,-0.13,0.16,0.97,
2.907,-1.00,0.25,0.08,-0.13,0.16,0.96,
2.909,-1.00,0.25,0.08,-0.13,0.15,0.96,
2.91,-1.01,0.20,0.05,-0.13,0.15,0.96,
2.912,-1.01,0.20,0.05,-0.13,0.15,0.96,
2.914,-1.01,0.20,0.05,-0.13,0.15,0.95,
2.914,-0.98,0.16,-0.03,-0.13,0.15,0.95,
2.916,-0.98,0.16,-0.03,-0.13,0.15,0.95,
2.919,-0.98,0.16,-0.03,-0.13,0.16,0.95,
2.919,-0.95,0.14,-0.08,-0.13,0.16,0.95,
2.922,-0.95,0.14,-0.08,-0.13,0.15,0.95,
2.924,-0.95,0.14,-0.08,-0.13,0.15,0.95,
2.925,-0.93,0.16,-0.13,-0.13,0.15,0.95,
2.927,-0.93,0.16,-0.13,-0.13,0.15,0.95,
2.929,-0.93,0.16,-0.13,-0.13,0.16,0.95,
2.929,-0.93,0.17,-0.17,-0.13,0.16,0.95,
2.931,-0.93,0.17,-0.17,-0.12,0.16,0.95,
2.934,-0.93,0.17,-0.17,-0.12,0.16,0.95,
2.934,-0.92,0.18,-0.14,-0.12,0.16,0.95,
2.936,-0.92,0.18,-0.14,-0.12,0.16,0.96,
2.944,-0.92,0.18,-0.14,-0.12,0.16,0.96,
2.944,-0.88,0.23,-0.10,-0.12,0.16,0.96,
2.944,-0.88,0.23,-0.10,-0.12,0.16,0.97,
2.945,-0.88,0.23,-0.10,-0.12,0.16,0.97,
2.945,-0.87,0.25,-0.03,-0.12,0.16,0.97,
2.946,-0.87,0.25,-0.03,-0.13,0.15,0.98,
2.948,-0.87,0.25,-0.03,-0.13,0.15,0.98,
2.949,-0.86,0.22,0.05,-0.13,0.15,0.98,
2.951,-0.86,0.22,0.05,-0.12,0.15,0.99,
2.953,-0.86,0.22,0.05,-0.12,0.15,0.99,
2.954,-0.88,0.16,0.15,-0.12,0.15,0.99,
2.961,-0.88,0.16,0.15,-0.12,0.15,1.00,
2.961,-0.82,0.17,0.24,-0.12,0.15,1.00,
2.961,-0.82,0.17,0.24,-0.11,0.15,1.00,
2.961,-0.82,0.17,0.24,-0.11,0.15,1.00,
2.963,-0.82,0.17,0.24,-0.11,0.15,1.01,
2.963,-0.76,0.15,0.34,-0.11,0.15,1.01,
2.965,-0.76,0.15,0.34,-0.11,0.15,1.01,
2.968,-0.76,0.15,0.34,-0.11,0.14,1.02,
2.968,-0.67,0.17,0.41,-0.11,0.14,1.02,
2.97,-0.67,0.17,0.41,-0.11,0.14,1.02,
2.973,-0.68,0.12,0.48,-0.11,0.14,1.02,
2.973,-0.68,0.12,0.48,-0.11,0.14,1.02,
2.975,-0.68,0.12,0.48,-0.11,0.13,1.02,
2.978,-0.68,0.12,0.48,-0.12,0.13,1.02,
2.978,-0.66,0.06,0.51,-0.12,0.13,1.02,
2.98,-0.66,0.06,0.51,-0.12,0.13,1.02,
2.983,-0.66,0.06,0.51,-0.12,0.13,1.02,
2.983,-0.69,-0.03,0.52,-0.12,0.13,1.02,
2.985,-0.69,-0.03,0.52,-0.12,0.13,1.01,
2.988,-0.69,-0.03,0.52,-0.12,0.13,1.01,
2.988,-0.74,-0.07,0.49,-0.12,0.13,1.01,
2.991,-0.74,-0.07,0.49,-0.13,0.13,1.01,
2.993,-0.74,-0.07,0.49,-0.13,0.14,1.00,
2.993,-0.75,-0.04,0.44,-0.13,0.14,1.00,
2.995,-0.75,-0.04,0.44,-0.13,0.14,1.00,
2.997,-0.75,-0.04,0.44,-0.13,0.15,0.99,
2.998,-0.77,0.02,0.37,-0.13,0.15,0.99,
3.0,-0.77,0.02,0.37,-0.13,0.15,0.99,
3.002,-0.77,0.02,0.37,-0.13,0.15,0.98,
3.003,-0.78,0.09,0.27,-0.13,0.15,0.98,
3.005,-0.78,0.09,0.27,-0.14,0.15,0.97,
3.008,-0.78,0.09,0.27,-0.14,0.15,0.96,
3.008,-0.82,0.13,0.14,-0.14,0.15,0.96,
3.01,-0.82,0.13,0.14,-0.15,0.15,0.96,
3.012,-0.82,0.13,0.14,-0.15,0.15,0.95,
3.012,-0.89,0.16,0.01,-0.15,0.15,0.95,
3.014,-0.89,0.16,0.01,-0.15,0.15,0.95,
3.017,-0.89,0.16,0.01,-0.15,0.16,0.95,
3.017,-0.95,0.18,-0.11,-0.15,0.16,0.95,
3.019,-0.95,0.18,-0.11,-0.15,0.16,0.94,
3.022,-0.95,0.18,-0.11,-0.15,0.16,0.94,
3.022,-0.97,0.19,-0.19,-0.15,0.16,0.94,
3.025,-0.97,0.19,-0.19,-0.15,0.15,0.94,
3.027,-0.97,0.19,-0.19,-0.15,0.15,0.95,
3.027,-0.97,0.20,-0.22,-0.15,0.15,0.95,
3.029,-0.97,0.20,-0.22,-0.15,0.15,0.95,
3.032,-0.97,0.20,-0.22,-0.15,0.15,0.96,
3.032,-0.94,0.17,-0.23,-0.15,0.15,0.96,
3.034,-0.94,0.17,-0.23,-0.14,0.15,0.96,
3.043,-0.94,0.17,-0.23,-0.14,0.15,0.97,
3.044,-0.90,0.13,-0.14,-0.14,0.15,0.97,
3.044,-0.90,0.13,-0.14,-0.14,0.14,0.97,
3.044,-0.90,0.13,-0.14,-0.13,0.14,0.98,
3.045,-0.83,0.12,-0.05,-0.13,0.14,0.98,
3.045,-0.83,0.12,-0.05,-0.13,0.14,0.99,
3.046,-0.83,0.12,-0.05,-0.13,0.13,1.00,
3.046,-0.77,0.10,0.12,-0.13,0.13,1.00,
3.049,-0.77,0.10,0.12,-0.12,0.13,1.01,
3.051,-0.77,0.10,0.12,-0.12,0.12,1.02,
3.051,-0.69,0.03,0.30,-0.12,0.12,1.02,
3.056,-0.69,0.03,0.30,-0.11,0.12,1.02,
3.056,-0.69,0.03,0.30,-0.10,0.12,1.03,
3.057,-0.60,-0.06,0.45,-0.10,0.12,1.03,
3.059,-0.60,-0.06,0.45,-0.09,0.11,1.03,
3.061,-0.60,-0.06,0.45,-0.09,0.11,1.04,
3.061,-0.47,-0.15,0.58,-0.09,0.11,1.04,
3.063,-0.47,-0.15,0.58,-0.08,0.11,1.04,
3.066,-0.47,-0.15,0.58,-0.08,0.11,1.04,
3.066,-0.32,-0.17,0.64,-0.08,0.11,1.04,
3.068,-0.32,-0.17,0.64,-0.07,0.11,1.04,
3.071,-0.32,-0.17,0.64,-0.06,0.11,1.03,
3.072,-0.20,-0.17,0.66,-0.06,0.11,1.03,
3.073,-0.20,-0.17,0.66,-0.06,0.11,1.03,
3.076,-0.20,-0.17,0.66,-0.06,0.11,1.02,
3.076,-0.08,-0.16,0.61,-0.06,0.11,1.02,
3.078,-0.08,-0.16,0.61,-0.06,0.11,1.01,
3.081,-0.08,-0.16,0.61,-0.06,0.12,1.00,
3.081,0.00,-0.16,0.49,-0.06,0.12,1.00,
3.083,0.00,-0.16,0.49,-0.06,0.11,0.99,
3.085,0.00,-0.16,0.49,-0.06,0.11,0.98,
3.086,0.01,-0.15,0.35,-0.06,0.11,0.98,
3.088,0.01,-0.15,0.35,-0.06,0.12,0.97,
3.091,0.01,-0.15,0.35,-0.06,0.12,0.96,
3.091,0.00,-0.15,0.16,-0.06,0.12,0.96,
3.093,0.00,-0.15,0.16,-0.07,0.12,0.95,
3.095,0.00,-0.15,0.16,-0.07,0.12,0.95,
3.095,-0.05,-0.12,-0.05,-0.07,0.12,0.95,
3.098,-0.05,-0.12,-0.05,-0.07,0.12,0.94,
3.1,-0.05,-0.12,-0.05,-0.08,0.12,0.93,
3.1,-0.10,-0.10,-0.21,-0.08,0.12,0.93,
3.103,-0.10,-0.10,-0.21,-0.08,0.12,0.93,
3.105,-0.10,-0.10,-0.21,-0.09,0.12,0.92,
3.106,-0.18,-0.09,-0.33,-0.09,0.12,0.92,
3.108,-0.18,-0.09,-0.33,-0.09,0.12,0.92,
3.111,-0.18,-0.09,-0.33,-0.10,0.12,0.92,
3.111,-0.27,-0.07,-0.44,-0.10,0.12,0.92,
3.113,-0.27,-0.07,-0.44,-0.10,0.12,0.92,
3.115,-0.27,-0.07,-0.44,-0.10,0.12,0.92,
3.115,-0.36,-0.09,-0.49,-0.10,0.12,0.92,
3.117,-0.36,-0.09,-0.49,-0.10,0.12,0.92,
3.12,-0.36,-0.09,-0.49,-0.10,0.12,0.93,
3.121,-0.41,-0.11,-0.48,-0.10,0.12,0.93,
3.123,-0.41,-0.11,-0.48,-0.10,0.13,0.93,
3.125,-0.41,-0.11,-0.48,-0.10,0.13,0.94,
3.125,-0.44,-0.07,-0.44,-0.10,0.13,0.94,
3.127,-0.44,-0.07,-0.44,-0.10,0.13,0.94,
3.13,-0.44,-0.07,-0.44,-0.10,0.13,0.94,
3.13,-0.43,-0.01,-0.35,-0.10,0.13,0.94,
3.132,-0.43,-0.01,-0.35,-0.10,0.14,0.95,
3.134,-0.43,-0.01,-0.35,-0.10,0.14,0.95,
3.135,-0.40,0.04,-0.26,-0.10,0.14,0.95,
3.137,-0.40,0.04,-0.26,-0.10,0.14,0.96,
3.139,-0.40,0.04,-0.26,-0.10,0.14,0.96,
3.14,-0.37,0.08,-0.16,-0.10,0.14,0.96,
3.142,-0.37,0.08,-0.16,-0.10,0.14,0.96,
3.144,-0.37,0.08,-0.16,-0.09,0.14,0.96,
3.145,-0.32,0.08,-0.11,-0.09,0.14,0.96,
3.147,-0.32,0.08,-0.11,-0.09,0.14,0.97,
3.149,-0.32,0.08,-0.11,-0.09,0.14,0.97,
3.15,-0.29,0.08,-0.04,-0.09,0.14,0.97,
3.152,-0.29,0.08,-0.04,-0.09,0.14,0.97,
3.16,-0.29,0.08,-0.04,-0.08,0.14,0.98,
3.16,-0.22,0.09,0.01,-0.08,0.14,0.98,
3.16,-0.22,0.09,0.01,-0.08,0.13,0.98,
3.161,-0.22,0.09,0.01,-0.08,0.13,0.98,
3.161,-0.16,0.07,0.06,-0.08,0.13,0.98,
3.162,-0.16,0.07,0.06,-0.07,0.13,0.98,
3.164,-0.16,0.07,0.06,-0.07,0.13,0.98,
3.164,-0.09,0.04,0.09,-0.07,0.13,0.98,
3.166,-0.09,0.04,0.09,-0.07,0.13,0.98,
3.169,-0.09,0.04,0.09,-0.06,0.12,0.98,
3.169,-0.03,-0.00,0.09,-0.06,0.12,0.98,
3.171,-0.03,-0.00,0.09,-0.06,0.13,0.98,
3.173,-0.03,-0.00,0.09,-0.06,0.13,0.98,
3.174,0.03,-0.04,0.11,-0.06,0.13,0.98,
3.176,0.03,-0.04,0.11,-0.06,0.12,0.98,
3.179,0.03,-0.04,0.11,-0.06,0.12,0.98,
3.179,0.09,-0.03,0.09,-0.06,0.12,0.98,
3.181,0.09,-0.03,0.09,-0.06,0.13,0.98,
3.183,0.09,-0.03,0.09,-0.06,0.12,0.98,
3.183,0.08,-0.04,0.10,-0.06,0.12,0.98,
3.187,0.08,-0.04,0.10,-0.06,0.12,0.98,
3.188,0.08,-0.04,0.10,-0.07,0.13,0.98,
3.189,0.05,-0.03,0.12,-0.07,0.13,0.98,
3.191,0.05,-0.03,0.12,-0.06,0.13,0.99,
3.193,0.05,-0.03,0.12,-0.06,0.13,0.99,
3.193,0.04,-0.03,0.14,-0.06,0.13,0.99,
3.196,0.04,-0.03,0.14,-0.06,0.13,0.99,
3.198,0.04,-0.03,0.14,-0.06,0.13,1.00,
3.199,0.05,-0.00,0.20,-0.06,0.13,1.00,
3.201,0.05,-0.00,0.20,-0.06,0.13,1.00,
3.204,0.05,-0.00,0.20,-0.07,0.14,1.00,
3.205,0.06,0.02,0.24,-0.07,0.14,1.00,
3.206,0.06,0.02,0.24,-0.07,0.14,1.00,
3.208,0.05,0.07,0.28,-0.07,0.14,1.00,
3.208,0.05,0.07,0.28,-0.07,0.14,1.01,
3.211,0.05,0.07,0.28,-0.07,0.14,1.01,
3.213,0.05,0.07,0.28,-0.08,0.14,1.01,
3.213,0.02,0.12,0.35,-0.08,0.14,1.01,
3.215,0.02,0.12,0.35,-0.08,0.14,1.01,
3.218,0.02,0.12,0.35,-0.08,0.15,1.01,
3.218,-0.04,0.15,0.38,-0.08,0.15,1.01,
3.22,-0.04,0.15,0.38,-0.08,0.15,1.01,
3.223,-0.04,0.15,0.38,-0.08,0.15,1.01,
3.223,-0.07,0.19,0.39,-0.08,0.15,1.01,
3.225,-0.07,0.19,0.39,-0.08,0.15,1.01,
3.228,-0.07,0.19,0.39,-0.08,0.15,1.01,
3.23,-0.06,0.22,0.41,-0.08,0.15,1.01,
3.231,-0.06,0.22,0.41,-0.08,0.15,1.01,
3.232,-0.06,0.22,0.41,-0.08,0.15,1.01,
3.233,-0.06,0.20,0.38,-0.08,0.15,1.01,
3.235,-0.06,0.20,0.38,-0.08,0.14,1.01,
3.237,-0.06,0.20,0.38,-0.07,0.14,1.01,
3.238,-0.08,0.18,0.38,-0.07,0.14,1.01,
3.24,-0.08,0.18,0.38,-0.07,0.14,1.00,
3.242,-0.08,0.18,0.38,-0.06,0.14,1.00,
3.243,-0.01,0.13,0.34,-0.06,0.14,1.00,
3.245,-0.01,0.13,0.34,-0.05,0.13,1.00,
3.247,-0.01,0.13,0.34,-0.05,0.13,1.00,
3.247,0.10,0.09,0.29,-0.05,0.13,1.00,
3.249,0.10,0.09,0.29,-0.04,0.13,1.00,
3.252,0.10,0.09,0.29,-0.03,0.12,1.00,
3.252,0.22,0.04,0.25,-0.03,0.12,1.00,
3.26,0.22,0.04,0.25,-0.03,0.12,1.00,
3.26,0.22,0.04,0.25,-0.02,0.12,1.00,
3.26,0.38,-0.02,0.24,-0.02,0.12,1.00,
3.261,0.38,-0.02,0.24,-0.02,0.11,0.99,
3.262,0.38,-0.02,0.24,-0.02,0.11,1.00,
3.262,0.51,-0.11,0.22,-0.02,0.11,1.00,
3.264,0.51,-0.11,0.22,-0.02,0.11,1.00,
3.267,0.51,-0.11,0.22,-0.01,0.10,1.00,
3.267,0.54,-0.18,0.23,-0.01,0.10,1.00,
3.276,0.54,-0.18,0.23,-0.02,0.10,1.00,
3.277,0.54,-0.18,0.23,-0.02,0.10,1.00,
3.277,0.56,-0.23,0.23,-0.02,0.10,1.00,
3.277,0.56,-0.23,0.23,-0.02,0.10,1.00,
3.277,0.56,-0.23,0.23,-0.02,0.11,1.00,
3.278,0.54,-0.25,0.27,-0.02,0.11,1.00,
3.279,0.54,-0.25,0.27,-0.02,0.10,1.00,
3.282,0.54,-0.25,0.27,-0.03,0.11,1.00,
3.282,0.51,-0.23,0.28,-0.03,0.11,1.00,
3.284,0.51,-0.23,0.28,-0.04,0.11,1.00,
3.286,0.51,-0.23,0.28,-0.04,0.11,1.00,
3.287,0.43,-0.22,0.27,-0.04,0.11,1.00,
3.289,0.43,-0.22,0.27,-0.05,0.11,1.00,
3.291,0.43,-0.22,0.27,-0.05,0.12,1.00,
3.292,0.31,-0.19,0.26,-0.05,0.12,1.00,
3.294,0.31,-0.19,0.26,-0.05,0.12,1.00,
3.296,0.31,-0.19,0.26,-0.05,0.13,1.00,
3.296,0.22,-0.12,0.26,-0.05,0.13,1.00,
3.299,0.22,-0.12,0.26,-0.05,0.13,1.00,
3.301,0.18,-0.04,0.26,-0.05,0.13,1.00,
3.301,0.18,-0.04,0.26,-0.05,0.14,1.00,
3.303,0.18,-0.04,0.26,-0.06,0.14,1.00,
3.306,0.18,-0.04,0.26,-0.06,0.14,1.00,
3.306,0.18,0.06,0.25,-0.06,0.14,1.00,
3.308,0.18,0.06,0.25,-0.06,0.14,1.00,
3.311,0.18,0.06,0.25,-0.06,0.15,0.99,
3.311,0.14,0.12,0.25,-0.06,0.15,0.99,
3.313,0.14,0.12,0.25,-0.06,0.15,0.99,
3.316,0.14,0.12,0.25,-0.06,0.14,0.98,
3.316,0.11,0.15,0.19,-0.06,0.14,0.98,
3.318,0.11,0.15,0.19,-0.06,0.14,0.98,
3.32,0.11,0.15,0.19,-0.07,0.14,0.97,
3.32,0.07,0.15,0.11,-0.07,0.14,0.97,
3.323,0.07,0.15,0.11,-0.07,0.14,0.96,
3.326,0.07,0.15,0.11,-0.07,0.14,0.93,
3.326,0.05,0.11,0.02,-0.07,0.14,0.93,
3.328,0.05,0.11,0.02,-0.07,0.14,0.87,
3.33,0.05,0.11,0.02,-0.06,0.14,0.84,
3.331,0.01,0.10,-0.28,-0.06,0.14,0.84,
3.333,0.01,0.10,-0.28,-0.06,0.15,0.83,
3.335,0.01,0.10,-0.28,-0.06,0.15,0.83,
3.335,0.03,0.11,-1.18,-0.06,0.15,0.83,
3.338,0.03,0.11,-1.18,-0.07,0.15,0.83,
3.34,0.03,0.11,-1.18,-0.07,0.15,0.83,
3.341,0.10,0.18,-1.39,-0.07,0.15,0.83,
3.343,0.10,0.18,-1.39,-0.07,0.15,0.84,
3.345,0.10,0.18,-1.39,-0.07,0.15,0.85,
3.345,0.03,0.19,-1.37,-0.07,0.15,0.85,
3.347,0.03,0.19,-1.37,-0.08,0.14,0.86,
3.35,0.03,0.19,-1.37,-0.08,0.14,0.88,
3.35,-0.01,0.15,-1.21,-0.08,0.14,0.88,
3.357,-0.01,0.15,-1.21,-0.08,0.14,0.90,
3.357,-0.01,0.15,-1.21,-0.08,0.14,0.92,
3.357,-0.03,0.11,-0.95,-0.08,0.14,0.92,
3.357,-0.03,0.11,-0.95,-0.08,0.13,0.94,
3.359,-0.03,0.11,-0.95,-0.08,0.13,0.95,
3.36,-0.03,0.07,-0.59,-0.08,0.13,0.95,
3.362,-0.03,0.07,-0.59,-0.08,0.13,0.96,
3.365,-0.03,0.07,-0.59,-0.08,0.12,0.97,
3.365,-0.04,0.04,-0.25,-0.08,0.12,0.97,
3.367,-0.04,0.04,-0.25,-0.07,0.12,0.97,
3.37,-0.04,0.04,-0.25,-0.07,0.11,0.98,
3.37,-0.01,-0.02,-0.04,-0.07,0.11,0.98,
3.372,-0.01,-0.02,-0.04,-0.07,0.12,0.99,
3.374,-0.01,-0.02,-0.04,-0.07,0.12,0.99,
3.374,0.04,-0.10,0.06,-0.07,0.12,0.99,
3.377,0.04,-0.10,0.06,-0.07,0.12,1.00,
3.379,0.04,-0.10,0.06,-0.07,0.12,1.01,
3.379,0.08,-0.11,0.22,-0.07,0.12,1.01,
3.382,0.08,-0.11,0.22,-0.07,0.12,1.02,
3.384,0.08,-0.11,0.22,-0.07,0.12,1.02,
3.384,0.08,-0.10,0.37,-0.07,0.12,1.02,
3.387,0.08,-0.10,0.37,-0.07,0.11,1.03,
3.389,0.08,-0.10,0.37,-0.07,0.11,1.03,
3.389,0.07,-0.10,0.49,-0.07,0.11,1.03,
3.392,0.07,-0.10,0.49,-0.06,0.12,1.03,
3.394,0.07,-0.10,0.49,-0.06,0.12,1.03,
3.394,0.06,-0.11,0.57,-0.06,0.12,1.03,
3.396,0.06,-0.11,0.57,-0.06,0.12,1.03,
3.399,0.06,-0.11,0.57,-0.05,0.12,1.03,
3.399,0.11,-0.10,0.59,-0.05,0.12,1.03,
3.401,0.11,-0.10,0.59,-0.05,0.12,1.02,
3.404,0.11,-0.10,0.59,-0.05,0.13,1.01,
3.404,0.17,-0.07,0.57,-0.05,0.13,1.01,
3.406,0.17,-0.07,0.57,-0.04,0.13,1.00,
3.408,0.17,-0.07,0.57,-0.04,0.14,0.98,
3.409,0.21,-0.02,0.45,-0.04,0.14,0.98,
3.411,0.21,-0.02,0.45,-0.04,0.14,0.97,
3.413,0.21,-0.02,0.45,-0.04,0.14,0.96,
3.414,0.28,0.07,0.18,-0.04,0.14,0.96,
3.416,0.28,0.07,0.18,-0.05,0.14,0.95,
3.419,0.28,0.07,0.18,-0.05,0.14,0.94,
3.419,0.28,0.09,-0.07,-0.05,0.14,0.94,
