
time,ax,ay,az,gFx,gFy,gFz,
0.001,0.09,-0.11,0.11,-0.06,-0.02,0.97,
0.001,0.11,-0.10,0.06,-0.06,-0.02,0.97,
0.001,0.11,-0.10,0.06,-0.06,-0.02,0.97,
0.002,0.11,-0.10,0.06,-0.06,-0.02,0.97,
0.002,0.13,-0.11,-0.02,-0.06,-0.02,0.97,
0.004,0.13,-0.11,-0.02,-0.06,-0.02,0.97,
0.006,0.13,-0.11,-0.02,-0.06,-0.02,0.96,
0.007,0.15,-0.12,-0.07,-0.06,-0.02,0.96,
0.009,0.15,-0.12,-0.07,-0.05,-0.02,0.96,
0.012,0.15,-0.12,-0.07,-0.05,-0.02,0.96,
0.012,0.18,-0.13,-0.13,-0.05,-0.02,0.96,
0.014,0.18,-0.13,-0.13,-0.05,-0.02,0.96,
0.016,0.18,-0.13,-0.13,-0.05,-0.02,0.95,
0.017,0.23,-0.13,-0.17,-0.05,-0.02,0.95,
0.019,0.23,-0.13,-0.17,-0.05,-0.02,0.95,
0.021,0.23,-0.13,-0.17,-0.04,-0.02,0.95,
0.021,0.24,-0.14,-0.24,-0.04,-0.02,0.95,
0.024,0.24,-0.14,-0.24,-0.04,-0.02,0.95,
0.026,0.24,-0.14,-0.24,-0.04,-0.02,0.95,
0.027,0.28,-0.13,-0.27,-0.04,-0.02,0.95,
0.029,0.28,-0.13,-0.27,-0.04,-0.02,0.95,
0.031,0.28,-0.13,-0.27,-0.04,-0.03,0.95,
0.031,0.28,-0.14,-0.29,-0.04,-0.03,0.95,
0.033,0.28,-0.14,-0.29,-0.04,-0.03,0.95,
0.036,0.28,-0.14,-0.29,-0.04,-0.03,0.95,
0.036,0.28,-0.16,-0.27,-0.04,-0.03,0.95,
0.038,0.28,-0.16,-0.27,-0.04,-0.03,0.95,
0.042,0.28,-0.16,-0.27,-0.05,-0.02,0.95,
0.042,0.29,-0.19,-0.27,-0.05,-0.02,0.95,
0.044,0.29,-0.19,-0.27,-0.04,-0.02,0.95,
0.046,0.29,-0.19,-0.27,-0.05,-0.02,0.96,
0.046,0.26,-0.17,-0.26,-0.05,-0.02,0.96,
0.048,0.26,-0.17,-0.26,-0.05,-0.02,0.96,
0.05,0.26,-0.17,-0.26,-0.05,-0.02,0.96,
0.051,0.25,-0.15,-0.22,-0.05,-0.02,0.96,
0.053,0.25,-0.15,-0.22,-0.05,-0.02,0.97,
0.055,0.25,-0.15,-0.22,-0.06,-0.02,0.97,
0.056,0.23,-0.13,-0.16,-0.06,-0.02,0.97,
0.058,0.23,-0.13,-0.16,-0.06,-0.02,0.98,
0.061,0.23,-0.13,-0.16,-0.06,-0.01,0.98,
0.061,0.16,-0.10,-0.08,-0.06,-0.01,0.98,
0.063,0.16,-0.10,-0.08,-0.06,-0.01,0.98,
0.065,0.16,-0.10,-0.08,-0.07,-0.01,0.99,
0.065,0.13,-0.05,0.02,-0.07,-0.01,0.99,
0.068,0.13,-0.05,0.02,-0.07,-0.01,0.99,
0.07,0.13,-0.05,0.02,-0.08,-0.01,0.99,
0.07,0.08,-0.02,0.09,-0.08,-0.01,0.99,
0.073,0.08,-0.02,0.09,-0.08,-0.01,1.00,
0.075,0.08,-0.02,0.09,-0.08,-0.01,1.00,
0.075,-0.01,-0.00,0.16,-0.08,-0.01,1.00,
0.078,-0.01,-0.00,0.16,-0.09,-0.01,1.00,
0.08,-0.01,-0.00,0.16,-0.09,-0.01,1.00,
0.08,-0.08,0.03,0.22,-0.09,-0.01,1.00,
0.083,-0.08,0.03,0.22,-0.09,-0.00,1.00,
0.085,-0.08,0.03,0.22,-0.09,-0.00,1.00,
0.085,-0.12,0.04,0.25,-0.09,-0.00,1.00,
0.087,-0.12,0.04,0.25,-0.09,0.00,1.01,
0.09,-0.12,0.04,0.25,-0.09,0.00,1.00,
0.09,-0.13,0.07,0.27,-0.09,0.00,1.00,
0.095,-0.13,0.07,0.27,-0.09,0.00,1.00,
0.095,-0.13,0.07,0.27,-0.08,0.00,1.00,
0.096,-0.11,0.10,0.27,-0.08,0.00,1.00,
0.097,-0.11,0.10,0.27,-0.08,0.00,1.00,
0.099,-0.11,0.10,0.27,-0.09,0.00,1.00,
0.1,-0.10,0.11,0.25,-0.09,0.00,1.00,
0.102,-0.10,0.11,0.25,-0.08,-0.00,0.99,
0.104,-0.10,0.11,0.25,-0.08,-0.00,0.99,
0.105,-0.09,0.09,0.20,-0.08,-0.00,0.99,
0.107,-0.09,0.09,0.20,-0.08,-0.00,0.99,
0.109,-0.09,0.09,0.20,-0.08,-0.00,0.98,
0.11,-0.08,0.07,0.14,-0.08,-0.00,0.98,
0.112,-0.08,0.07,0.14,-0.07,-0.01,0.98,
0.114,-0.08,0.07,0.14,-0.07,-0.01,0.98,
0.115,-0.05,0.04,0.06,-0.07,-0.01,0.98,
0.117,-0.05,0.04,0.06,-0.07,-0.01,0.97,
0.119,-0.05,0.04,0.06,-0.07,-0.01,0.97,
0.119,0.01,0.02,-0.01,-0.07,-0.01,0.97,
0.121,0.01,0.02,-0.01,-0.07,-0.01,0.97,
0.125,0.01,0.02,-0.01,-0.07,-0.01,0.96,
0.126,0.04,0.00,-0.07,-0.07,-0.01,0.96,
0.127,0.04,0.00,-0.07,-0.06,-0.01,0.96,
0.129,0.04,0.00,-0.07,-0.06,-0.01,0.96,
0.13,0.07,-0.04,-0.12,-0.06,-0.01,0.96,
0.131,0.07,-0.04,-0.12,-0.06,-0.01,0.96,
0.134,0.07,-0.04,-0.12,-0.06,-0.02,0.96,
0.134,0.09,-0.05,-0.16,-0.06,-0.02,0.96,
0.136,0.09,-0.05,-0.16,-0.06,-0.02,0.96,
0.139,0.09,-0.05,-0.16,-0.06,-0.01,0.96,
0.139,0.10,-0.06,-0.19,-0.06,-0.01,0.96,
0.141,0.10,-0.06,-0.19,-0.06,-0.01,0.96,
0.144,0.10,-0.06,-0.19,-0.06,-0.01,0.96,
0.144,0.11,-0.06,-0.20,-0.06,-0.01,0.96,
0.146,0.11,-0.06,-0.20,-0.06,-0.01,0.96,
0.148,0.11,-0.06,-0.20,-0.06,-0.01,0.96,
0.149,0.15,-0.05,-0.18,-0.06,-0.01,0.96,
0.151,0.15,-0.05,-0.18,-0.06,-0.01,0.97,
0.153,0.15,-0.05,-0.18,-0.06,-0.01,0.97,
0.154,0.15,-0.03,-0.15,-0.06,-0.01,0.97,
0.156,0.15,-0.03,-0.15,-0.06,-0.01,0.97,
0.159,0.15,-0.03,-0.15,-0.06,-0.01,0.97,
0.159,0.14,-0.02,-0.09,-0.06,-0.01,0.97,
0.161,0.14,-0.02,-0.09,-0.07,-0.01,0.98,
0.164,0.14,-0.02,-0.09,-0.07,-0.01,0.98,
0.164,0.11,-0.01,-0.05,-0.07,-0.01,0.98,
0.166,0.11,-0.01,-0.05,-0.07,-0.01,0.98,
0.168,0.11,-0.01,-0.05,-0.07,-0.01,0.99,
0.168,0.05,0.03,0.02,-0.07,-0.01,0.99,
0.17,0.05,0.03,0.02,-0.07,-0.01,0.99,
0.173,0.05,0.03,0.02,-0.08,-0.01,0.99,
0.173,0.04,0.02,0.08,-0.08,-0.01,0.99,
0.177,0.04,0.02,0.08,-0.08,-0.01,0.99,
0.178,0.04,0.02,0.08,-0.08,-0.00,1.00,
0.178,-0.01,0.04,0.13,-0.08,-0.00,1.00,
0.18,-0.01,0.04,0.13,-0.08,-0.00,1.00,
0.183,-0.01,0.04,0.13,-0.08,-0.00,1.00,
0.183,-0.04,0.05,0.18,-0.08,-0.00,1.00,
0.185,-0.04,0.05,0.18,-0.08,-0.00,1.00,
0.188,-0.04,0.05,0.18,-0.08,-0.00,1.00,
0.188,-0.08,0.06,0.22,-0.08,-0.00,1.00,
0.19,-0.08,0.06,0.22,-0.09,0.00,1.01,
0.192,-0.08,0.06,0.22,-0.09,0.00,1.01,
0.193,-0.10,0.09,0.26,-0.09,0.00,1.01,
0.195,-0.10,0.09,0.26,-0.09,0.00,1.01,
0.198,-0.10,0.09,0.26,-0.09,0.00,1.01,
0.198,-0.12,0.11,0.29,-0.09,0.00,1.01,
0.2,-0.12,0.11,0.29,-0.09,0.00,1.01,
0.202,-0.12,0.11,0.29,-0.10,0.01,1.01,
0.202,-0.15,0.13,0.32,-0.10,0.01,1.01,
0.205,-0.15,0.13,0.32,-0.09,0.01,1.01,
0.208,-0.15,0.13,0.32,-0.09,0.01,1.01,
0.208,-0.20,0.15,0.31,-0.09,0.01,1.01,
0.21,-0.20,0.15,0.31,-0.10,0.01,1.01,
0.212,-0.20,0.15,0.31,-0.10,0.01,1.01,
0.212,-0.19,0.16,0.29,-0.10,0.01,1.01,
0.215,-0.19,0.16,0.29,-0.10,0.01,1.00,
0.217,-0.19,0.16,0.29,-0.10,0.01,1.00,
0.217,-0.21,0.16,0.27,-0.10,0.01,1.00,
0.219,-0.21,0.16,0.27,-0.09,0.00,1.00,
0.222,-0.21,0.16,0.27,-0.09,0.00,1.00,
0.222,-0.21,0.16,0.24,-0.09,0.00,1.00,
0.224,-0.21,0.16,0.24,-0.09,0.00,0.99,
0.227,-0.21,0.16,0.24,-0.09,-0.00,0.99,
0.227,-0.17,0.11,0.18,-0.09,-0.00,0.99,
0.229,-0.17,0.11,0.18,-0.08,-0.00,0.99,
0.232,-0.17,0.11,0.18,-0.08,-0.00,0.98,
0.232,-0.15,0.08,0.12,-0.08,-0.00,0.98,
0.234,-0.15,0.08,0.12,-0.07,-0.01,0.98,
0.237,-0.15,0.08,0.12,-0.07,-0.01,0.97,
0.237,-0.05,0.06,0.04,-0.07,-0.01,0.97,
0.239,-0.05,0.06,0.04,-0.06,-0.01,0.97,
0.241,-0.05,0.06,0.04,-0.06,-0.01,0.97,
0.242,0.03,0.01,-0.03,-0.06,-0.01,0.97,
0.244,0.03,0.01,-0.03,-0.05,-0.02,0.96,
0.246,0.03,0.01,-0.03,-0.05,-0.02,0.96,
0.246,0.11,-0.04,-0.12,-0.05,-0.02,0.96,
0.249,0.11,-0.04,-0.12,-0.05,-0.02,0.96,
0.251,0.11,-0.04,-0.12,-0.04,-0.02,0.96,
0.251,0.21,-0.09,-0.17,-0.04,-0.02,0.96,
0.254,0.21,-0.09,-0.17,-0.04,-0.03,0.96,
0.256,0.21,-0.09,-0.17,-0.04,-0.03,0.96,
0.256,0.26,-0.15,-0.19,-0.04,-0.03,0.96,
0.259,0.26,-0.15,-0.19,-0.03,-0.03,0.96,
0.261,0.26,-0.15,-0.19,-0.04,-0.03,0.95,
0.261,0.33,-0.19,-0.22,-0.04,-0.03,0.95,
0.264,0.33,-0.19,-0.22,-0.04,-0.03,0.96,
0.266,0.33,-0.19,-0.22,-0.04,-0.03,0.96,
0.266,0.36,-0.21,-0.23,-0.04,-0.03,0.96,
0.268,0.36,-0.21,-0.23,-0.04,-0.03,0.96,
0.271,0.36,-0.21,-0.23,-0.04,-0.03,0.96,
0.271,0.35,-0.23,-0.20,-0.04,-0.03,0.96,
0.281,0.35,-0.23,-0.20,-0.04,-0.03,0.97,
0.282,0.35,-0.23,-0.20,-0.04,-0.03,0.97,
0.282,0.33,-0.25,-0.15,-0.04,-0.03,0.97,
0.282,0.33,-0.25,-0.15,-0.04,-0.03,0.97,
0.282,0.33,-0.25,-0.15,-0.04,-0.03,0.97,
0.282,0.33,-0.22,-0.12,-0.04,-0.03,0.97,
0.283,0.33,-0.22,-0.12,-0.04,-0.03,0.97,
0.286,0.33,-0.22,-0.12,-0.04,-0.03,0.97,
0.286,0.32,-0.22,-0.09,-0.04,-0.03,0.97,
0.288,0.32,-0.22,-0.09,-0.04,-0.03,0.97,
0.291,0.32,-0.22,-0.09,-0.04,-0.03,0.97,
0.291,0.32,-0.21,-0.06,-0.04,-0.03,0.97,
0.293,0.32,-0.21,-0.06,-0.04,-0.03,0.97,
0.295,0.32,-0.21,-0.06,-0.04,-0.03,0.98,
0.295,0.29,-0.20,-0.04,-0.04,-0.03,0.98,
0.298,0.29,-0.20,-0.04,-0.04,-0.03,0.97,
0.3,0.29,-0.20,-0.04,-0.04,-0.03,0.98,
0.3,0.30,-0.20,-0.03,-0.04,-0.03,0.98,
0.303,0.30,-0.20,-0.03,-0.04,-0.03,0.98,
0.305,0.30,-0.20,-0.03,-0.03,-0.03,0.98,
0.305,0.32,-0.19,-0.02,-0.03,-0.03,0.98,
0.308,0.32,-0.19,-0.02,-0.03,-0.03,0.97,
0.31,0.32,-0.19,-0.02,-0.03,-0.03,0.97,
0.311,0.36,-0.19,-0.02,-0.03,-0.03,0.97,
0.312,0.36,-0.19,-0.02,-0.02,-0.03,0.97,
0.315,0.36,-0.19,-0.02,-0.02,-0.03,0.97,
0.315,0.41,-0.22,-0.05,-0.02,-0.03,0.97,
0.318,0.41,-0.22,-0.05,-0.02,-0.03,0.97,
0.32,0.41,-0.22,-0.05,-0.02,-0.03,0.97,
0.32,0.47,-0.23,-0.07,-0.02,-0.03,0.97,
0.322,0.47,-0.23,-0.07,-0.02,-0.04,0.97,
0.325,0.47,-0.23,-0.07,-0.01,-0.04,0.97,
0.325,0.50,-0.26,-0.10,-0.01,-0.04,0.97,
0.327,0.50,-0.26,-0.10,-0.01,-0.04,0.97,
0.33,0.50,-0.26,-0.10,-0.01,-0.04,0.97,
0.33,0.54,-0.29,-0.10,-0.01,-0.04,0.97,
0.332,0.54,-0.29,-0.10,-0.01,-0.04,0.96,
0.335,0.54,-0.29,-0.10,-0.01,-0.04,0.97,
0.335,0.57,-0.32,-0.11,-0.01,-0.04,0.97,
0.337,0.57,-0.32,-0.11,-0.01,-0.04,0.97,
0.339,0.57,-0.32,-0.11,-0.01,-0.04,0.97,
0.339,0.57,-0.33,-0.12,-0.01,-0.04,0.97,
0.342,0.57,-0.33,-0.12,-0.01,-0.04,0.97,
0.344,0.57,-0.33,-0.12,-0.01,-0.05,0.97,
0.344,0.57,-0.35,-0.09,-0.01,-0.05,0.97,
0.347,0.57,-0.35,-0.09,-0.01,-0.04,0.97,
0.349,0.57,-0.35,-0.09,-0.01,-0.04,0.97,
0.349,0.54,-0.36,-0.08,-0.01,-0.04,0.97,
0.352,0.54,-0.36,-0.08,-0.01,-0.04,0.97,
0.354,0.54,-0.36,-0.08,-0.01,-0.04,0.97,
0.354,0.54,-0.35,-0.06,-0.01,-0.04,0.97,
0.357,0.54,-0.35,-0.06,-0.01,-0.04,0.98,
0.359,0.54,-0.35,-0.06,-0.01,-0.04,0.98,
0.359,0.54,-0.34,-0.03,-0.01,-0.04,0.98,
0.361,0.54,-0.34,-0.03,-0.02,-0.04,0.98,
0.364,0.54,-0.34,-0.03,-0.02,-0.04,0.98,
0.364,0.53,-0.32,0.01,-0.02,-0.04,0.98,
0.366,0.53,-0.32,0.01,-0.02,-0.04,0.98,
0.369,0.53,-0.32,0.01,-0.02,-0.04,0.98,
0.369,0.50,-0.33,0.04,-0.02,-0.04,0.98,
0.371,0.50,-0.33,0.04,-0.02,-0.04,0.98,
0.374,0.50,-0.33,0.04,-0.02,-0.04,0.98,
0.374,0.47,-0.31,0.05,-0.02,-0.04,0.98,
0.376,0.47,-0.31,0.05,-0.02,-0.04,0.98,
0.378,0.47,-0.31,0.05,-0.02,-0.04,0.98,
0.379,0.44,-0.30,0.05,-0.02,-0.04,0.98,
0.381,0.44,-0.30,0.05,-0.02,-0.04,0.98,
0.383,0.44,-0.30,0.05,-0.02,-0.04,0.98,
0.384,0.44,-0.30,0.06,-0.02,-0.04,0.98,
0.386,0.44,-0.30,0.06,-0.02,-0.04,0.98,
0.388,0.44,-0.30,0.06,-0.02,-0.04,0.97,
0.389,0.44,-0.29,0.02,-0.02,-0.04,0.97,
0.393,0.44,-0.29,0.02,-0.02,-0.04,0.97,
0.393,0.44,-0.29,0.02,-0.01,-0.04,0.97,
0.393,0.47,-0.31,-0.01,-0.01,-0.04,0.97,
0.396,0.47,-0.31,-0.01,-0.01,-0.04,0.97,
0.398,0.47,-0.31,-0.01,-0.01,-0.05,0.97,
0.398,0.48,-0.34,-0.07,-0.01,-0.05,0.97,
0.401,0.48,-0.34,-0.07,-0.01,-0.05,0.96,
0.403,0.48,-0.34,-0.07,-0.00,-0.05,0.96,
0.403,0.49,-0.36,-0.11,-0.00,-0.05,0.96,
0.405,0.49,-0.36,-0.11,0.00,-0.04,0.96,
0.408,0.49,-0.36,-0.11,0.00,-0.04,0.96,
0.408,0.56,-0.37,-0.14,0.00,-0.04,0.96,
0.41,0.56,-0.37,-0.14,0.01,-0.05,0.96,
0.413,0.56,-0.37,-0.14,0.01,-0.04,0.96,
0.413,0.61,-0.35,-0.16,0.01,-0.04,0.96,
0.415,0.61,-0.35,-0.16,0.01,-0.04,0.96,
0.418,0.61,-0.35,-0.16,0.01,-0.05,0.96,
0.418,0.66,-0.36,-0.15,0.01,-0.05,0.96,
0.42,0.66,-0.36,-0.15,0.01,-0.05,0.97,
0.423,0.66,-0.36,-0.15,0.01,-0.05,0.97,
0.423,0.69,-0.35,-0.15,0.01,-0.05,0.97,
0.425,0.69,-0.35,-0.15,0.01,-0.05,0.97,
0.427,0.69,-0.35,-0.15,0.01,-0.05,0.97,
0.428,0.68,-0.36,-0.09,0.01,-0.05,0.97,
0.43,0.68,-0.36,-0.09,0.01,-0.05,0.98,
0.432,0.68,-0.36,-0.09,0.01,-0.06,0.98,
0.433,0.63,-0.40,-0.05,0.01,-0.06,0.98,
0.435,0.63,-0.40,-0.05,0.01,-0.05,0.98,
0.437,0.63,-0.40,-0.05,0.01,-0.05,0.98,
0.438,0.61,-0.42,-0.00,0.01,-0.05,0.98,
0.44,0.61,-0.42,-0.00,0.01,-0.06,0.98,
0.442,0.61,-0.42,-0.00,0.01,-0.06,0.98,
0.442,0.61,-0.42,0.04,0.01,-0.06,0.98,
0.445,0.61,-0.42,0.04,0.01,-0.06,0.99,
0.447,0.61,-0.42,0.04,0.01,-0.06,0.98,
0.447,0.62,-0.43,0.06,0.01,-0.06,0.98,
0.449,0.62,-0.43,0.06,0.01,-0.06,0.99,
0.452,0.62,-0.43,0.06,0.01,-0.06,0.99,
0.452,0.64,-0.44,0.08,0.01,-0.06,0.99,
0.455,0.64,-0.44,0.08,0.01,-0.06,0.98,
0.457,0.64,-0.44,0.08,0.02,-0.06,0.98,
0.457,0.66,-0.46,0.08,0.02,-0.06,0.98,
0.459,0.66,-0.46,0.08,0.02,-0.06,0.98,
0.462,0.66,-0.46,0.08,0.02,-0.06,0.98,
0.462,0.66,-0.47,0.05,0.02,-0.06,0.98,
0.464,0.66,-0.47,0.05,0.02,-0.06,0.98,
0.467,0.66,-0.47,0.05,0.02,-0.06,0.98,
0.467,0.68,-0.47,0.05,0.02,-0.06,0.98,
0.469,0.68,-0.47,0.05,0.03,-0.07,0.97,
0.472,0.68,-0.47,0.05,0.03,-0.07,0.97,
0.472,0.72,-0.49,0.01,0.03,-0.07,0.97,
0.475,0.72,-0.49,0.01,0.04,-0.07,0.97,
0.477,0.72,-0.49,0.01,0.04,-0.07,0.97,
0.477,0.78,-0.50,-0.03,0.04,-0.07,0.97,
0.479,0.78,-0.50,-0.03,0.04,-0.07,0.97,
0.482,0.81,-0.52,-0.07,0.04,-0.07,0.97,
0.482,0.81,-0.52,-0.07,0.04,-0.07,0.97,
0.484,0.81,-0.52,-0.07,0.04,-0.07,0.96,
0.486,0.81,-0.52,-0.07,0.04,-0.07,0.96,
0.486,0.83,-0.54,-0.11,0.04,-0.07,0.96,
0.489,0.83,-0.54,-0.11,0.04,-0.07,0.96,
0.491,0.83,-0.54,-0.11,0.04,-0.07,0.96,
0.491,0.80,-0.56,-0.14,0.04,-0.07,0.96,
0.494,0.80,-0.56,-0.14,0.03,-0.07,0.96,
0.496,0.80,-0.56,-0.14,0.04,-0.07,0.96,
0.496,0.77,-0.56,-0.16,0.04,-0.07,0.96,
0.499,0.77,-0.56,-0.16,0.03,-0.07,0.96,
0.501,0.77,-0.56,-0.16,0.03,-0.07,0.96,
0.501,0.74,-0.54,-0.15,0.03,-0.07,0.96,
0.503,0.74,-0.54,-0.15,0.02,-0.07,0.97,
0.506,0.74,-0.54,-0.15,0.02,-0.06,0.97,
0.507,0.69,-0.50,-0.13,0.02,-0.06,0.97,
0.508,0.69,-0.50,-0.13,0.02,-0.06,0.97,
0.511,0.69,-0.50,-0.13,0.01,-0.06,0.97,
0.511,0.61,-0.46,-0.08,0.01,-0.06,0.97,
0.513,0.61,-0.46,-0.08,0.01,-0.06,0.98,
0.516,0.61,-0.46,-0.08,0.00,-0.05,0.98,
0.516,0.51,-0.40,-0.03,0.00,-0.05,0.98,
0.518,0.51,-0.40,-0.03,-0.00,-0.05,0.98,
0.52,0.51,-0.40,-0.03,-0.01,-0.05,0.99,
0.521,0.41,-0.34,0.04,-0.01,-0.05,0.99,
0.523,0.41,-0.34,0.04,-0.02,-0.04,0.99,
0.525,0.41,-0.34,0.04,-0.02,-0.04,0.99,
0.526,0.28,-0.28,0.08,-0.02,-0.04,0.99,
0.528,0.28,-0.28,0.08,-0.03,-0.04,0.99,
0.53,0.28,-0.28,0.08,-0.03,-0.04,0.99,
0.531,0.16,-0.23,0.12,-0.03,-0.04,0.99,
0.533,0.16,-0.23,0.12,-0.03,-0.04,0.99,
0.535,0.16,-0.23,0.12,-0.03,-0.04,0.99,
0.535,0.08,-0.21,0.15,-0.03,-0.04,0.99,
0.538,0.08,-0.21,0.15,-0.04,-0.04,0.99,
0.54,0.08,-0.21,0.15,-0.04,-0.04,0.99,
0.541,0.03,-0.16,0.17,-0.04,-0.04,0.99,
0.543,0.03,-0.16,0.17,-0.04,-0.04,0.99,
0.545,0.03,-0.16,0.17,-0.04,-0.03,0.99,
0.545,-0.02,-0.16,0.15,-0.04,-0.03,0.99,
0.547,-0.02,-0.16,0.15,-0.04,-0.04,0.99,
0.55,-0.02,-0.16,0.15,-0.04,-0.04,0.99,
0.55,-0.05,-0.15,0.14,-0.04,-0.04,0.99,
0.552,-0.05,-0.15,0.14,-0.03,-0.04,0.98,
0.555,-0.05,-0.15,0.14,-0.03,-0.04,0.98,
0.555,-0.02,-0.18,0.10,-0.03,-0.04,0.98,
0.558,-0.02,-0.18,0.10,-0.03,-0.05,0.98,
0.56,-0.02,-0.18,0.10,-0.03,-0.05,0.98,
0.56,-0.01,-0.21,0.04,-0.03,-0.05,0.98,
0.562,-0.01,-0.21,0.04,-0.03,-0.04,0.98,
0.565,-0.01,-0.21,0.04,-0.03,-0.05,0.97,
0.565,0.00,-0.25,0.01,-0.03,-0.05,0.97,
0.567,0.00,-0.25,0.01,-0.03,-0.05,0.97,
0.57,0.00,-0.25,0.01,-0.03,-0.05,0.97,
0.57,0.01,-0.25,-0.02,-0.03,-0.05,0.97,
0.572,0.01,-0.25,-0.02,-0.03,-0.05,0.97,
0.578,0.01,-0.25,-0.02,-0.03,-0.06,0.97,
0.579,-0.00,-0.30,-0.04,-0.03,-0.06,0.97,
0.579,-0.00,-0.30,-0.04,-0.04,-0.06,0.97,
0.579,-0.00,-0.30,-0.04,-0.04,-0.06,0.97,
0.58,-0.01,-0.32,-0.04,-0.04,-0.06,0.97,
0.582,-0.01,-0.32,-0.04,-0.04,-0.06,0.97,
0.584,-0.01,-0.32,-0.04,-0.04,-0.06,0.97,
0.586,-0.07,-0.38,-0.05,-0.04,-0.06,0.97,
0.587,-0.07,-0.38,-0.05,-0.05,-0.06,0.97,
0.59,-0.07,-0.38,-0.05,-0.05,-0.06,0.98,
0.59,-0.11,-0.41,-0.05,-0.05,-0.06,0.98,
0.592,-0.11,-0.41,-0.05,-0.05,-0.06,0.98,
0.594,-0.11,-0.41,-0.05,-0.05,-0.06,0.98,
0.594,-0.19,-0.41,-0.03,-0.05,-0.06,0.98,
0.597,-0.19,-0.41,-0.03,-0.06,-0.06,0.98,
0.599,-0.19,-0.41,-0.03,-0.06,-0.06,0.98,
0.599,-0.23,-0.41,-0.01,-0.06,-0.06,0.98,
0.601,-0.23,-0.41,-0.01,-0.06,-0.06,0.98,
0.604,-0.23,-0.41,-0.01,-0.06,-0.05,0.98,
0.604,-0.27,-0.38,0.02,-0.06,-0.05,0.98,
0.607,-0.27,-0.38,0.02,-0.05,-0.05,0.98,
0.609,-0.27,-0.38,0.02,-0.05,-0.05,0.98,
0.609,-0.27,-0.33,0.05,-0.05,-0.05,0.98,
0.611,-0.27,-0.33,0.05,-0.05,-0.05,0.98,
0.614,-0.27,-0.33,0.05,-0.05,-0.05,0.98,
0.614,-0.25,-0.29,0.05,-0.05,-0.05,0.98,
0.616,-0.25,-0.29,0.05,-0.05,-0.05,0.98,
0.618,-0.25,-0.29,0.05,-0.05,-0.05,0.98,
0.619,-0.24,-0.26,0.06,-0.05,-0.05,0.98,
0.621,-0.24,-0.26,0.06,-0.05,-0.05,0.98,
0.623,-0.24,-0.26,0.06,-0.05,-0.05,0.98,
0.624,-0.23,-0.28,0.04,-0.05,-0.05,0.98,
0.626,-0.23,-0.28,0.04,-0.05,-0.05,0.98,
0.628,-0.23,-0.28,0.04,-0.05,-0.05,0.97,
0.629,-0.25,-0.25,0.01,-0.05,-0.05,0.97,
0.631,-0.25,-0.25,0.01,-0.05,-0.05,0.97,
0.633,-0.25,-0.25,0.01,-0.05,-0.05,0.97,
0.634,-0.27,-0.24,-0.02,-0.05,-0.05,0.97,
0.636,-0.27,-0.24,-0.02,-0.05,-0.05,0.97,
0.638,-0.27,-0.24,-0.02,-0.05,-0.05,0.97,
0.638,-0.28,-0.23,-0.04,-0.05,-0.05,0.97,
0.641,-0.28,-0.23,-0.04,-0.05,-0.05,0.97,
0.643,-0.28,-0.23,-0.04,-0.05,-0.05,0.97,
0.643,-0.29,-0.26,-0.07,-0.05,-0.05,0.97,
0.645,-0.29,-0.26,-0.07,-0.05,-0.05,0.97,
0.648,-0.29,-0.26,-0.07,-0.05,-0.05,0.97,
0.648,-0.29,-0.26,-0.11,-0.05,-0.05,0.97,
0.65,-0.29,-0.26,-0.11,-0.05,-0.05,0.97,
0.653,-0.29,-0.26,-0.11,-0.05,-0.05,0.97,
0.653,-0.29,-0.27,-0.12,-0.05,-0.05,0.97,
0.657,-0.29,-0.27,-0.12,-0.06,-0.05,0.97,
0.659,-0.29,-0.27,-0.12,-0.06,-0.05,0.97,
0.659,-0.31,-0.27,-0.11,-0.06,-0.05,0.97,
0.661,-0.31,-0.27,-0.11,-0.07,-0.05,0.97,
0.663,-0.31,-0.27,-0.11,-0.07,-0.06,0.97,
0.664,-0.37,-0.29,-0.11,-0.07,-0.06,0.97,
0.665,-0.37,-0.29,-0.11,-0.08,-0.06,0.97,
0.668,-0.37,-0.29,-0.11,-0.08,-0.06,0.97,
0.668,-0.47,-0.33,-0.07,-0.08,-0.06,0.97,
0.67,-0.47,-0.33,-0.07,-0.09,-0.06,0.97,
0.673,-0.47,-0.33,-0.07,-0.09,-0.06,0.97,
0.674,-0.58,-0.37,-0.05,-0.09,-0.06,0.97,
0.675,-0.58,-0.37,-0.05,-0.09,-0.06,0.97,
0.678,-0.58,-0.37,-0.05,-0.10,-0.06,0.97,
0.678,-0.67,-0.41,-0.05,-0.10,-0.06,0.97,
0.68,-0.67,-0.41,-0.05,-0.10,-0.06,0.97,
0.682,-0.67,-0.41,-0.05,-0.10,-0.06,0.97,
0.683,-0.73,-0.42,-0.05,-0.10,-0.06,0.97,
0.685,-0.73,-0.42,-0.05,-0.10,-0.06,0.97,
0.687,-0.73,-0.42,-0.05,-0.10,-0.06,0.97,
0.688,-0.75,-0.41,-0.05,-0.10,-0.06,0.97,
0.695,-0.75,-0.41,-0.05,-0.09,-0.06,0.97,
0.696,-0.75,-0.41,-0.05,-0.09,-0.06,0.96,
0.696,-0.74,-0.38,-0.09,-0.09,-0.06,0.96,
0.696,-0.74,-0.38,-0.09,-0.09,-0.06,0.96,
0.697,-0.74,-0.38,-0.09,-0.09,-0.06,0.95,
0.697,-0.72,-0.36,-0.13,-0.09,-0.06,0.95,
0.699,-0.72,-0.36,-0.13,-0.08,-0.06,0.95,
0.702,-0.72,-0.36,-0.13,-0.08,-0.06,0.94,
0.702,-0.68,-0.35,-0.20,-0.08,-0.06,0.94,
0.704,-0.68,-0.35,-0.20,-0.07,-0.06,0.94,
0.708,-0.68,-0.35,-0.20,-0.07,-0.06,0.93,
0.708,-0.61,-0.38,-0.31,-0.07,-0.06,0.93,
0.71,-0.61,-0.38,-0.31,-0.06,-0.06,0.92,
0.712,-0.61,-0.38,-0.31,-0.05,-0.06,0.92,
0.712,-0.51,-0.38,-0.43,-0.05,-0.06,0.92,
0.714,-0.51,-0.38,-0.43,-0.05,-0.06,0.91,
0.717,-0.51,-0.38,-0.43,-0.04,-0.07,0.91,
0.717,-0.42,-0.40,-0.56,-0.04,-0.07,0.91,
0.719,-0.42,-0.40,-0.56,-0.04,-0.07,0.90,
0.721,-0.42,-0.40,-0.56,-0.03,-0.07,0.90,
0.722,-0.34,-0.44,-0.65,-0.03,-0.07,0.90,
0.724,-0.34,-0.44,-0.65,-0.03,-0.08,0.90,
0.727,-0.34,-0.44,-0.65,-0.03,-0.08,0.90,
0.727,-0.26,-0.49,-0.72,-0.03,-0.08,0.90,
0.729,-0.26,-0.49,-0.72,-0.03,-0.08,0.90,
0.731,-0.26,-0.49,-0.72,-0.03,-0.08,0.90,
0.731,-0.20,-0.54,-0.76,-0.03,-0.08,0.90,
0.734,-0.20,-0.54,-0.76,-0.03,-0.09,0.90,
0.736,-0.20,-0.54,-0.76,-0.03,-0.09,0.90,
0.736,-0.19,-0.59,-0.76,-0.03,-0.09,0.90,
0.739,-0.19,-0.59,-0.76,-0.03,-0.10,0.90,
0.741,-0.19,-0.59,-0.76,-0.04,-0.10,0.90,
0.741,-0.22,-0.68,-0.75,-0.04,-0.10,0.90,
0.744,-0.22,-0.68,-0.75,-0.04,-0.10,0.90,
0.746,-0.22,-0.68,-0.75,-0.05,-0.11,0.91,
0.747,-0.30,-0.76,-0.70,-0.05,-0.11,0.91,
0.749,-0.30,-0.76,-0.70,-0.05,-0.11,0.91,
0.751,-0.30,-0.76,-0.70,-0.05,-0.11,0.92,
0.751,-0.36,-0.80,-0.64,-0.05,-0.11,0.92,
0.754,-0.36,-0.80,-0.64,-0.05,-0.11,0.92,
0.756,-0.36,-0.80,-0.64,-0.06,-0.11,0.93,
0.757,-0.42,-0.81,-0.55,-0.06,-0.11,0.93,
0.758,-0.42,-0.81,-0.55,-0.06,-0.10,0.93,
0.761,-0.42,-0.81,-0.55,-0.07,-0.10,0.94,
0.762,-0.48,-0.79,-0.47,-0.07,-0.10,0.94,
0.764,-0.48,-0.79,-0.47,-0.07,-0.10,0.94,
0.766,-0.48,-0.79,-0.47,-0.07,-0.10,0.94,
0.766,-0.56,-0.75,-0.37,-0.07,-0.10,0.94,
0.768,-0.56,-0.75,-0.37,-0.07,-0.09,0.94,
0.77,-0.56,-0.75,-0.37,-0.07,-0.09,0.94,
0.771,-0.61,-0.70,-0.33,-0.07,-0.09,0.94,
0.773,-0.61,-0.70,-0.33,-0.07,-0.09,0.94,
0.776,-0.61,-0.70,-0.33,-0.07,-0.08,0.94,
0.776,-0.63,-0.62,-0.30,-0.07,-0.08,0.94,
0.778,-0.63,-0.62,-0.30,-0.07,-0.08,0.94,
0.78,-0.63,-0.62,-0.30,-0.08,-0.08,0.94,
0.781,-0.65,-0.56,-0.28,-0.08,-0.08,0.94,
0.783,-0.65,-0.56,-0.28,-0.08,-0.08,0.94,
0.785,-0.65,-0.56,-0.28,-0.08,-0.07,0.94,
0.785,-0.69,-0.50,-0.32,-0.08,-0.07,0.94,
0.788,-0.69,-0.50,-0.32,-0.08,-0.07,0.93,
0.795,-0.69,-0.50,-0.32,-0.08,-0.07,0.93,
0.795,-0.72,-0.46,-0.33,-0.08,-0.07,0.93,
0.796,-0.72,-0.46,-0.33,-0.08,-0.06,0.93,
0.796,-0.72,-0.46,-0.33,-0.08,-0.06,0.92,
0.796,-0.73,-0.41,-0.38,-0.08,-0.06,0.92,
0.798,-0.73,-0.41,-0.38,-0.09,-0.06,0.92,
0.8,-0.73,-0.41,-0.38,-0.09,-0.06,0.92,
0.8,-0.77,-0.35,-0.43,-0.09,-0.06,0.92,
0.802,-0.77,-0.35,-0.43,-0.09,-0.06,0.92,
0.805,-0.77,-0.35,-0.43,-0.09,-0.06,0.92,
0.805,-0.85,-0.31,-0.48,-0.09,-0.06,0.92,
0.807,-0.85,-0.31,-0.48,-0.08,-0.05,0.92,
0.81,-0.85,-0.31,-0.48,-0.08,-0.05,0.92,
0.81,-0.84,-0.27,-0.51,-0.08,-0.05,0.92,
0.813,-0.84,-0.27,-0.51,-0.08,-0.05,0.91,
0.815,-0.84,-0.27,-0.51,-0.08,-0.05,0.91,
0.815,-0.82,-0.23,-0.51,-0.08,-0.05,0.91,
0.817,-0.82,-0.23,-0.51,-0.08,-0.04,0.92,
0.819,-0.82,-0.23,-0.51,-0.07,-0.04,0.92,
0.82,-0.79,-0.18,-0.53,-0.07,-0.04,0.92,
0.822,-0.79,-0.18,-0.53,-0.07,-0.04,0.92,
0.825,-0.79,-0.18,-0.53,-0.07,-0.04,0.92,
0.825,-0.76,-0.12,-0.50,-0.07,-0.04,0.92,
0.827,-0.76,-0.12,-0.50,-0.07,-0.03,0.92,
0.829,-0.76,-0.12,-0.50,-0.07,-0.03,0.92,
0.83,-0.76,-0.07,-0.47,-0.07,-0.03,0.92,
0.832,-0.76,-0.07,-0.47,-0.08,-0.03,0.93,
0.834,-0.76,-0.07,-0.47,-0.08,-0.03,0.93,
0.834,-0.76,-0.02,-0.42,-0.08,-0.03,0.93,
0.836,-0.76,-0.02,-0.42,-0.08,-0.03,0.94,
0.839,-0.76,-0.02,-0.42,-0.08,-0.03,0.94,
0.839,-0.82,0.01,-0.35,-0.08,-0.03,0.94,
0.842,-0.82,0.01,-0.35,-0.08,-0.03,0.94,
0.844,-0.82,0.01,-0.35,-0.09,-0.03,0.95,
0.844,-0.87,0.01,-0.28,-0.09,-0.03,0.95,
0.846,-0.87,0.01,-0.28,-0.09,-0.03,0.95,
0.849,-0.87,0.01,-0.28,-0.09,-0.03,0.95,
0.849,-0.91,0.01,-0.21,-0.09,-0.03,0.95,
0.851,-0.91,0.01,-0.21,-0.09,-0.04,0.95,
0.854,-0.91,0.01,-0.21,-0.09,-0.04,0.95,
0.854,-0.95,-0.02,-0.16,-0.09,-0.04,0.95,
0.856,-0.95,-0.02,-0.16,-0.09,-0.04,0.95,
0.859,-0.95,-0.02,-0.16,-0.09,-0.04,0.96,
0.859,-0.97,-0.05,-0.12,-0.09,-0.04,0.96,
0.861,-0.97,-0.05,-0.12,-0.08,-0.05,0.96,
0.864,-0.97,-0.05,-0.12,-0.08,-0.05,0.96,
0.864,-0.96,-0.09,-0.09,-0.08,-0.05,0.96,
0.866,-0.96,-0.09,-0.09,-0.07,-0.04,0.96,
0.868,-0.96,-0.09,-0.09,-0.06,-0.04,0.96,
0.869,-0.89,-0.11,-0.08,-0.06,-0.04,0.96,
0.871,-0.89,-0.11,-0.08,-0.05,-0.04,0.95,
0.874,-0.89,-0.11,-0.08,-0.05,-0.04,0.95,
0.874,-0.77,-0.07,-0.08,-0.05,-0.04,0.95,
0.876,-0.77,-0.07,-0.08,-0.04,-0.04,0.95,
0.878,-0.62,-0.04,-0.11,-0.04,-0.04,0.95,
0.879,-0.62,-0.04,-0.11,-0.03,-0.03,0.95,
0.881,-0.62,-0.04,-0.11,-0.03,-0.03,0.95,
0.883,-0.62,-0.04,-0.11,-0.03,-0.03,0.95,
0.884,-0.51,0.01,-0.12,-0.03,-0.03,0.95,
0.886,-0.51,0.01,-0.12,-0.03,-0.03,0.95,
0.889,-0.45,0.03,-0.14,-0.03,-0.03,0.95,
0.889,-0.45,0.03,-0.14,-0.02,-0.03,0.95,
0.902,-0.45,0.03,-0.14,-0.02,-0.02,0.95,
0.902,-0.45,0.03,-0.14,-0.01,-0.02,0.95,
0.902,-0.42,0.09,-0.16,-0.01,-0.02,0.95,
0.903,-0.42,0.09,-0.16,-0.01,-0.02,0.95,
0.903,-0.42,0.09,-0.16,-0.01,-0.01,0.95,
0.903,-0.36,0.16,-0.16,-0.01,-0.01,0.95,
0.904,-0.36,0.16,-0.16,-0.01,-0.01,0.95,
0.904,-0.36,0.16,-0.16,-0.02,-0.01,0.95,
0.904,-0.32,0.23,-0.16,-0.02,-0.01,0.95,
0.917,-0.32,0.23,-0.16,-0.02,-0.01,0.95,
0.918,-0.32,0.23,-0.16,-0.03,-0.01,0.95,
0.918,-0.36,0.26,-0.15,-0.03,-0.01,0.95,
0.918,-0.36,0.26,-0.15,-0.03,-0.01,0.96,
0.919,-0.36,0.26,-0.15,-0.03,-0.01,0.96,
0.92,-0.48,0.26,-0.11,-0.03,-0.01,0.96,
0.92,-0.48,0.26,-0.11,-0.04,-0.01,0.96,
0.92,-0.48,0.26,-0.11,-0.04,-0.01,0.96,
0.92,-0.57,0.28,-0.06,-0.04,-0.01,0.96,
0.92,-0.57,0.28,-0.06,-0.05,-0.02,0.96,
0.923,-0.57,0.28,-0.06,-0.05,-0.02,0.97,
0.923,-0.66,0.26,-0.02,-0.05,-0.02,0.97,
0.925,-0.66,0.26,-0.02,-0.06,-0.02,0.97,
0.928,-0.66,0.26,-0.02,-0.07,-0.03,0.97,
0.928,-0.77,0.21,0.02,-0.07,-0.03,0.97,
0.93,-0.77,0.21,0.02,-0.07,-0.03,0.97,
0.932,-0.77,0.21,0.02,-0.07,-0.04,0.97,
0.933,-0.88,0.14,0.06,-0.07,-0.04,0.97,
0.935,-0.88,0.14,0.06,-0.07,-0.04,0.97,
0.937,-0.88,0.14,0.06,-0.06,-0.04,0.97,
0.937,-0.97,0.05,0.10,-0.06,-0.04,0.97,
0.94,-0.97,0.05,0.10,-0.06,-0.04,0.97,
0.942,-0.97,0.05,0.10,-0.05,-0.03,0.97,
0.942,-0.93,0.02,0.09,-0.05,-0.03,0.97,
0.945,-0.93,0.02,0.09,-0.04,-0.03,0.97,
0.947,-0.93,0.02,0.09,-0.03,-0.03,0.96,
0.947,-0.79,0.05,0.07,-0.03,-0.03,0.96,
0.949,-0.79,0.05,0.07,-0.02,-0.03,0.96,
0.952,-0.79,0.05,0.07,-0.02,-0.03,0.96,
0.952,-0.65,0.08,0.03,-0.02,-0.03,0.96,
0.954,-0.65,0.08,0.03,-0.01,-0.03,0.96,
0.957,-0.65,0.08,0.03,-0.00,-0.02,0.96,
0.957,-0.51,0.07,-0.02,-0.00,-0.02,0.96,
0.959,-0.51,0.07,-0.02,0.01,-0.02,0.95,
0.962,-0.51,0.07,-0.02,0.01,-0.02,0.95,
0.962,-0.36,0.14,-0.07,0.01,-0.02,0.95,
0.964,-0.36,0.14,-0.07,0.02,-0.01,0.95,
0.966,-0.36,0.14,-0.07,0.02,-0.01,0.94,
0.967,-0.23,0.21,-0.11,0.02,-0.01,0.94,
0.969,-0.23,0.21,-0.11,0.01,-0.01,0.94,
0.973,-0.17,0.25,-0.16,0.01,-0.01,0.94,
0.974,-0.17,0.25,-0.16,0.01,-0.01,0.94,
0.974,-0.17,0.25,-0.16,0.01,-0.01,0.94,
0.976,-0.17,0.25,-0.16,0.01,-0.01,0.94,
0.977,-0.22,0.27,-0.20,0.01,-0.01,0.94,
0.979,-0.22,0.27,-0.20,0.01,-0.01,0.93,
0.981,-0.22,0.27,-0.20,0.01,-0.01,0.93,
0.981,-0.24,0.29,-0.24,0.01,-0.01,0.93,
0.983,-0.24,0.29,-0.24,0.00,-0.01,0.93,
0.986,-0.24,0.29,-0.24,-0.00,-0.00,0.93,
0.987,-0.30,0.31,-0.29,-0.00,-0.00,0.93,
0.994,-0.30,0.31,-0.29,-0.01,0.00,0.93,
0.995,-0.30,0.31,-0.29,-0.01,0.00,0.93,
0.995,-0.39,0.36,-0.31,-0.01,0.00,0.93,
0.996,-0.39,0.36,-0.31,-0.02,0.01,0.93,
0.996,-0.39,0.36,-0.31,-0.02,0.01,0.93,
0.996,-0.49,0.42,-0.32,-0.02,0.01,0.93,
0.998,-0.49,0.42,-0.32,-0.03,0.00,0.93,
1.001,-0.49,0.42,-0.32,-0.03,0.01,0.93,
1.001,-0.58,0.45,-0.35,-0.03,0.01,0.93,
1.003,-0.58,0.45,-0.35,-0.04,0.00,0.93,
1.006,-0.67,0.44,-0.34,-0.04,0.00,0.93,
1.006,-0.67,0.44,-0.34,-0.04,0.00,0.93,
1.008,-0.67,0.44,-0.34,-0.05,0.00,0.93,
1.011,-0.67,0.44,-0.34,-0.05,-0.00,0.93,
1.011,-0.77,0.44,-0.32,-0.05,-0.00,0.93,
1.013,-0.77,0.44,-0.32,-0.05,-0.01,0.94,
1.015,-0.77,0.44,-0.32,-0.06,-0.01,0.94,
1.015,-0.89,0.40,-0.29,-0.06,-0.01,0.94,
1.018,-0.89,0.40,-0.29,-0.05,-0.01,0.94,
1.02,-0.89,0.40,-0.29,-0.05,-0.01,0.95,
1.021,-0.95,0.36,-0.21,-0.05,-0.01,0.95,
1.023,-0.95,0.36,-0.21,-0.05,-0.01,0.95,
1.025,-0.95,0.36,-0.21,-0.04,-0.01,0.96,
1.025,-0.93,0.31,-0.13,-0.04,-0.01,0.96,
1.028,-0.93,0.31,-0.13,-0.03,-0.01,0.96,
1.03,-0.93,0.31,-0.13,-0.02,-0.01,0.96,
1.03,-0.81,0.30,-0.04,-0.02,-0.01,0.96,
1.032,-0.81,0.30,-0.04,-0.01,-0.01,0.97,
1.035,-0.81,0.30,-0.04,-0.01,-0.00,0.97,
1.035,-0.65,0.33,0.03,-0.01,-0.00,0.97,
1.038,-0.65,0.33,0.03,0.00,-0.00,0.98,
1.04,-0.65,0.33,0.03,0.01,-0.00,0.98,
1.04,-0.51,0.38,0.12,0.01,-0.00,0.98,
1.042,-0.51,0.38,0.12,0.01,-0.00,0.99,
1.045,-0.51,0.38,0.12,0.01,-0.01,0.99,
1.045,-0.38,0.41,0.21,0.01,-0.01,0.99,
1.047,-0.38,0.41,0.21,0.01,-0.01,1.00,
1.05,-0.38,0.41,0.21,0.00,-0.01,1.00,
1.05,-0.34,0.40,0.30,0.00,-0.01,1.00,
1.052,-0.34,0.40,0.30,0.00,-0.02,1.00,
1.056,-0.34,0.40,0.30,-0.00,-0.02,1.00,
1.057,-0.36,0.35,0.37,-0.00,-0.02,1.00,
1.058,-0.36,0.35,0.37,-0.01,-0.02,1.00,
1.06,-0.36,0.35,0.37,-0.01,-0.03,1.00,
1.06,-0.43,0.31,0.41,-0.01,-0.03,1.00,
1.062,-0.43,0.31,0.41,-0.01,-0.03,1.00,
1.064,-0.43,0.31,0.41,-0.02,-0.03,1.00,
1.065,-0.49,0.25,0.42,-0.02,-0.03,1.00,
1.067,-0.49,0.25,0.42,-0.02,-0.03,1.00,
1.069,-0.49,0.25,0.42,-0.02,-0.03,0.99,
1.07,-0.55,0.19,0.40,-0.02,-0.03,0.99,
1.072,-0.55,0.19,0.40,-0.02,-0.04,0.99,
1.074,-0.55,0.19,0.40,-0.02,-0.04,0.99,
1.077,-0.62,0.16,0.34,-0.02,-0.04,0.99,
1.077,-0.62,0.16,0.34,-0.02,-0.05,0.98,
1.079,-0.62,0.16,0.34,-0.02,-0.05,0.97,
1.079,-0.65,0.11,0.27,-0.02,-0.05,0.97,
1.081,-0.65,0.11,0.27,-0.02,-0.05,0.97,
1.084,-0.65,0.11,0.27,-0.02,-0.05,0.96,
1.084,-0.64,0.05,0.15,-0.02,-0.05,0.96,
1.087,-0.64,0.05,0.15,-0.02,-0.05,0.96,
1.089,-0.64,0.05,0.15,-0.02,-0.05,0.95,
1.089,-0.64,0.01,0.05,-0.02,-0.05,0.95,
1.091,-0.64,0.01,0.05,-0.03,-0.05,0.95,
1.094,-0.64,0.01,0.05,-0.02,-0.05,0.95,
1.094,-0.65,0.00,-0.04,-0.02,-0.05,0.95,
1.096,-0.65,0.00,-0.04,-0.03,-0.05,0.95,
1.098,-0.65,0.00,-0.04,-0.03,-0.04,0.95,
1.099,-0.67,0.02,-0.10,-0.03,-0.04,0.95,
1.101,-0.67,0.02,-0.10,-0.03,-0.04,0.95,
1.104,-0.67,0.02,-0.10,-0.03,-0.04,0.95,
1.104,-0.68,0.06,-0.10,-0.03,-0.04,0.95,
1.11,-0.68,0.06,-0.10,-0.03,-0.04,0.95,
1.11,-0.68,0.06,-0.10,-0.04,-0.04,0.96,
1.111,-0.73,0.11,-0.07,-0.04,-0.04,0.96,
1.111,-0.73,0.11,-0.07,-0.04,-0.04,0.96,
1.113,-0.73,0.11,-0.07,-0.05,-0.04,0.96,
1.113,-0.78,0.12,-0.05,-0.05,-0.04,0.96,
1.116,-0.78,0.12,-0.05,-0.05,-0.04,0.96,
1.118,-0.78,0.12,-0.05,-0.05,-0.03,0.97,
1.118,-0.87,0.13,-0.01,-0.05,-0.03,0.97,
1.121,-0.87,0.13,-0.01,-0.05,-0.03,0.97,
1.123,-0.87,0.13,-0.01,-0.04,-0.03,0.97,
1.123,-0.91,0.19,0.04,-0.04,-0.03,0.97,
1.126,-0.91,0.19,0.04,-0.04,-0.02,0.97,
1.128,-0.91,0.19,0.04,-0.03,-0.02,0.97,
1.128,-0.86,0.26,0.08,-0.03,-0.02,0.97,
1.13,-0.86,0.26,0.08,-0.03,-0.02,0.97,
1.133,-0.86,0.26,0.08,-0.03,-0.01,0.97,
1.133,-0.76,0.35,0.09,-0.03,-0.01,0.97,
1.135,-0.76,0.35,0.09,-0.03,-0.01,0.97,
1.138,-0.76,0.35,0.09,-0.02,-0.01,0.97,
1.139,-0.69,0.40,0.08,-0.02,-0.01,0.97,
1.14,-0.69,0.40,0.08,-0.02,-0.01,0.97,
1.143,-0.69,0.40,0.08,-0.02,-0.01,0.96,
1.144,-0.64,0.43,0.07,-0.02,-0.01,0.96,
1.145,-0.64,0.43,0.07,-0.02,-0.01,0.96,
1.148,-0.64,0.43,0.07,-0.02,-0.01,0.96,
1.148,-0.61,0.46,0.04,-0.02,-0.01,0.96,
1.15,-0.61,0.46,0.04,-0.02,-0.01,0.96,
1.153,-0.61,0.46,0.04,-0.03,-0.01,0.95,
1.153,-0.58,0.48,0.00,-0.03,-0.01,0.95,
1.155,-0.58,0.48,0.00,-0.03,-0.01,0.95,
1.158,-0.62,0.49,-0.05,-0.03,-0.01,0.95,
1.158,-0.62,0.49,-0.05,-0.03,-0.01,0.95,
1.16,-0.62,0.49,-0.05,-0.04,-0.01,0.94,
1.162,-0.62,0.49,-0.05,-0.04,-0.01,0.94,
1.163,-0.66,0.49,-0.12,-0.04,-0.01,0.94,
1.165,-0.66,0.49,-0.12,-0.05,-0.01,0.94,
1.167,-0.66,0.49,-0.12,-0.05,-0.01,0.94,
1.167,-0.76,0.45,-0.16,-0.05,-0.01,0.94,
1.17,-0.76,0.45,-0.16,-0.06,-0.01,0.94,
1.172,-0.76,0.45,-0.16,-0.07,-0.01,0.94,
1.173,-0.85,0.44,-0.19,-0.07,-0.01,0.94,
1.175,-0.85,0.44,-0.19,-0.08,-0.01,0.94,
1.177,-0.85,0.44,-0.19,-0.08,-0.01,0.94,
1.177,-0.96,0.43,-0.21,-0.08,-0.01,0.94,
1.179,-0.96,0.43,-0.21,-0.09,-0.01,0.95,
1.182,-0.96,0.43,-0.21,-0.10,-0.00,0.95,
1.182,-1.10,0.45,-0.18,-0.10,-0.00,0.95,
1.184,-1.10,0.45,-0.18,-0.10,-0.00,0.96,
1.187,-1.10,0.45,-0.18,-0.11,-0.00,0.96,
1.187,-1.20,0.48,-0.12,-0.11,-0.00,0.96,
1.194,-1.20,0.48,-0.12,-0.11,0.00,0.97,
1.195,-1.20,0.48,-0.12,-0.12,0.01,0.98,
1.195,-1.29,0.53,-0.02,-0.12,0.01,0.98,
1.195,-1.29,0.53,-0.02,-0.12,0.01,0.98,
1.197,-1.29,0.53,-0.02,-0.13,0.01,0.99,
1.197,-1.38,0.56,0.11,-0.13,0.01,0.99,
1.199,-1.38,0.56,0.11,-0.13,0.01,1.00,
1.201,-1.38,0.56,0.11,-0.13,0.01,1.01,
1.202,-1.43,0.63,0.27,-0.13,0.01,1.01,
1.205,-1.43,0.63,0.27,-0.12,0.01,1.01,
1.206,-1.43,0.63,0.27,-0.12,0.01,1.01,
1.207,-1.41,0.63,0.41,-0.12,0.01,1.01,
1.209,-1.41,0.63,0.41,-0.11,0.01,1.02,
1.211,-1.41,0.63,0.41,-0.11,0.02,1.02,
1.211,-1.36,0.63,0.50,-0.11,0.02,1.02,
1.214,-1.36,0.63,0.50,-0.10,0.02,1.02,
1.216,-1.36,0.63,0.50,-0.10,0.02,1.02,
1.216,-1.24,0.70,0.57,-0.10,0.02,1.02,
1.218,-1.24,0.70,0.57,-0.09,0.02,1.02,
1.221,-1.24,0.70,0.57,-0.08,0.02,1.02,
1.221,-1.10,0.76,0.60,-0.08,0.02,1.02,
1.224,-1.10,0.76,0.60,-0.07,0.03,1.02,
1.226,-1.10,0.76,0.60,-0.07,0.03,1.02,
1.227,-0.94,0.79,0.61,-0.07,0.03,1.02,
1.229,-0.94,0.79,0.61,-0.06,0.03,1.02,
1.231,-0.94,0.79,0.61,-0.05,0.02,1.01,
1.231,-0.77,0.82,0.57,-0.05,0.02,1.01,
1.233,-0.77,0.82,0.57,-0.05,0.02,1.01,
1.236,-0.77,0.82,0.57,-0.05,0.02,1.00,
1.236,-0.65,0.81,0.51,-0.05,0.02,1.00,
1.238,-0.65,0.81,0.51,-0.05,0.02,1.00,
1.241,-0.65,0.81,0.51,-0.04,0.01,0.99,
1.241,-0.55,0.77,0.42,-0.04,0.01,0.99,
1.243,-0.55,0.77,0.42,-0.04,0.01,0.99,
1.245,-0.55,0.77,0.42,-0.04,0.01,0.98,
1.246,-0.52,0.72,0.31,-0.04,0.01,0.98,
1.248,-0.52,0.72,0.31,-0.05,0.00,0.97,
1.25,-0.52,0.72,0.31,-0.05,-0.00,0.97,
1.251,-0.48,0.64,0.19,-0.05,-0.00,0.97,
1.253,-0.48,0.64,0.19,-0.05,-0.00,0.97,
1.255,-0.48,0.64,0.19,-0.05,-0.01,0.96,
1.256,-0.50,0.57,0.09,-0.05,-0.01,0.96,
1.258,-0.50,0.57,0.09,-0.05,-0.01,0.96,
1.26,-0.50,0.57,0.09,-0.05,-0.01,0.96,
1.261,-0.51,0.50,0.03,-0.05,-0.01,0.96,
1.263,-0.51,0.50,0.03,-0.05,-0.02,0.96,
1.265,-0.51,0.50,0.03,-0.05,-0.02,0.96,
1.265,-0.52,0.44,-0.03,-0.05,-0.02,0.96,
1.268,-0.52,0.44,-0.03,-0.06,-0.02,0.96,
1.27,-0.52,0.44,-0.03,-0.06,-0.03,0.96,
1.27,-0.54,0.38,-0.05,-0.06,-0.03,0.96,
1.273,-0.54,0.38,-0.05,-0.05,-0.03,0.97,
1.275,-0.54,0.38,-0.05,-0.05,-0.03,0.97,
1.276,-0.55,0.31,-0.03,-0.05,-0.03,0.97,
1.278,-0.55,0.31,-0.03,-0.05,-0.03,0.98,
1.28,-0.55,0.31,-0.03,-0.05,-0.03,0.98,
1.28,-0.52,0.27,0.05,-0.05,-0.03,0.98,
1.282,-0.52,0.27,0.05,-0.05,-0.02,0.99,
1.285,-0.52,0.27,0.05,-0.05,-0.02,1.00,
1.285,-0.47,0.28,0.15,-0.05,-0.02,1.00,
1.293,-0.47,0.28,0.15,-0.04,-0.02,1.00,
1.294,-0.47,0.28,0.15,-0.04,-0.02,1.01,
1.294,-0.42,0.33,0.28,-0.04,-0.02,1.01,
1.295,-0.42,0.33,0.28,-0.04,-0.01,1.02,
1.295,-0.42,0.33,0.28,-0.03,-0.01,1.02,
1.295,-0.33,0.39,0.40,-0.03,-0.01,1.02,
1.297,-0.33,0.39,0.40,-0.03,-0.00,1.03,
1.299,-0.33,0.39,0.40,-0.02,-0.00,1.03,
1.3,-0.24,0.47,0.54,-0.02,-0.00,1.03,
1.302,-0.24,0.47,0.54,-0.01,0.00,1.04,
1.306,-0.24,0.47,0.54,-0.01,0.01,1.04,
1.306,-0.12,0.54,0.64,-0.01,0.01,1.04,
1.307,-0.12,0.54,0.64,-0.01,0.01,1.04,
1.309,-0.12,0.54,0.64,-0.00,0.02,1.05,
1.309,0.01,0.65,0.73,-0.00,0.02,1.05,
1.312,0.01,0.65,0.73,0.00,0.02,1.05,
1.314,0.01,0.65,0.73,0.00,0.02,1.05,
1.314,0.11,0.75,0.77,0.00,0.02,1.05,
1.316,0.11,0.75,0.77,0.00,0.03,1.05,
1.319,0.11,0.75,0.77,0.00,0.02,1.05,
1.32,0.17,0.80,0.78,0.00,0.02,1.05,
1.322,0.17,0.80,0.78,0.00,0.02,1.04,
1.324,0.17,0.80,0.78,0.00,0.02,1.04,
1.324,0.21,0.82,0.77,0.00,0.02,1.04,
1.327,0.21,0.82,0.77,-0.00,0.02,1.04,
1.329,0.21,0.82,0.77,-0.00,0.02,1.03,
1.33,0.20,0.81,0.73,-0.00,0.02,1.03,
1.331,0.20,0.81,0.73,-0.01,0.02,1.03,
1.334,0.20,0.81,0.73,-0.01,0.02,1.03,
1.334,0.16,0.79,0.65,-0.01,0.02,1.03,
1.336,0.16,0.79,0.65,-0.01,0.02,1.02,
1.339,0.16,0.79,0.65,-0.01,0.01,1.02,
1.339,0.09,0.75,0.58,-0.01,0.01,1.02,
1.341,0.09,0.75,0.58,-0.02,0.01,1.01,
1.344,0.09,0.75,0.58,-0.02,0.01,1.01,
1.344,0.06,0.71,0.49,-0.02,0.01,1.01,
1.346,0.06,0.71,0.49,-0.02,0.01,1.00,
1.348,0.06,0.71,0.49,-0.02,-0.00,1.00,
1.349,0.04,0.67,0.40,-0.02,-0.00,1.00,
1.351,0.04,0.67,0.40,-0.02,-0.00,1.00,
1.354,0.04,0.67,0.40,-0.02,-0.00,1.00,
1.354,0.03,0.58,0.32,-0.02,-0.00,1.00,
1.356,0.03,0.58,0.32,-0.02,-0.01,1.00,
1.358,0.03,0.58,0.32,-0.02,-0.01,1.00,
1.359,0.03,0.52,0.28,-0.02,-0.01,1.00,
1.361,0.03,0.52,0.28,-0.02,-0.01,1.00,
1.363,0.03,0.52,0.28,-0.02,-0.01,1.00,
1.364,0.02,0.46,0.27,-0.02,-0.01,1.00,
1.366,0.02,0.46,0.27,-0.02,-0.01,1.01,
1.368,0.02,0.46,0.27,-0.01,-0.01,1.01,
1.368,0.02,0.43,0.28,-0.01,-0.01,1.01,
1.371,0.02,0.43,0.28,-0.01,-0.01,1.01,
1.373,0.02,0.43,0.28,-0.01,-0.01,1.02,
1.373,0.09,0.44,0.36,-0.01,-0.01,1.02,
1.375,0.09,0.44,0.36,-0.00,-0.00,1.02,
1.378,0.09,0.44,0.36,0.00,-0.00,1.03,
1.378,0.18,0.49,0.45,0.00,-0.00,1.03,
1.38,0.18,0.49,0.45,0.01,0.00,1.03,
1.383,0.18,0.49,0.45,0.01,0.01,1.04,
1.383,0.26,0.55,0.54,0.01,0.01,1.04,
1.385,0.26,0.55,0.54,0.01,0.01,1.04,
1.388,0.26,0.55,0.54,0.02,0.02,1.05,
1.388,0.38,0.63,0.63,0.02,0.02,1.05,
1.39,0.38,0.63,0.63,0.02,0.02,1.05,
1.392,0.38,0.63,0.63,0.02,0.03,1.05,
1.393,0.44,0.71,0.71,0.02,0.03,1.05,
1.395,0.44,0.71,0.71,0.02,0.03,1.06,
1.398,0.44,0.71,0.71,0.02,0.03,1.06,
1.398,0.49,0.82,0.77,0.02,0.03,1.06,
1.4,0.49,0.82,0.77,0.02,0.04,1.06,
1.403,0.49,0.82,0.77,0.02,0.04,1.07,
1.403,0.52,0.91,0.84,0.02,0.04,1.07,
1.41,0.52,0.91,0.84,0.01,0.04,1.07,
1.41,0.52,0.91,0.84,0.01,0.05,1.07,
1.411,0.50,0.98,0.90,0.01,0.05,1.07,
1.411,0.50,0.98,0.90,0.00,0.05,1.08,
1.412,0.50,0.98,0.90,-0.00,0.05,1.08,
1.412,0.42,1.03,0.95,-0.00,0.05,1.08,
1.415,0.42,1.03,0.95,-0.01,0.04,1.08,
1.417,0.42,1.03,0.95,-0.02,0.04,1.08,
1.417,0.32,1.05,0.99,-0.02,0.04,1.08,
1.419,0.32,1.05,0.99,-0.02,0.04,1.08,
1.422,0.32,1.05,0.99,-0.03,0.04,1.08,
1.423,0.20,1.01,1.01,-0.03,0.04,1.08,
1.424,0.20,1.01,1.01,-0.03,0.04,1.08,
1.427,0.20,1.01,1.01,-0.04,0.04,1.08,
1.427,0.10,1.01,1.00,-0.04,0.04,1.08,
1.429,0.10,1.01,1.00,-0.05,0.04,1.08,
1.432,0.10,1.01,1.00,-0.05,0.03,1.08,
1.432,-0.01,0.97,0.97,-0.05,0.03,1.08,
1.434,-0.01,0.97,0.97,-0.06,0.03,1.07,
1.437,-0.01,0.97,0.97,-0.06,0.03,1.07,
1.437,-0.12,0.93,0.97,-0.06,0.03,1.07,
1.439,-0.12,0.93,0.97,-0.07,0.03,1.07,
1.442,-0.12,0.93,0.97,-0.07,0.03,1.07,
1.442,-0.22,0.89,0.93,-0.07,0.03,1.07,
1.444,-0.22,0.89,0.93,-0.07,0.03,1.07,
1.446,-0.22,0.89,0.93,-0.07,0.03,1.07,
1.447,-0.28,0.87,0.91,-0.07,0.03,1.07,
1.449,-0.28,0.87,0.91,-0.07,0.03,1.06,
1.451,-0.28,0.87,0.91,-0.07,0.03,1.06,
1.451,-0.32,0.84,0.86,-0.07,0.03,1.06,
1.454,-0.32,0.84,0.86,-0.07,0.03,1.06,
1.456,-0.32,0.84,0.86,-0.07,0.02,1.06,
1.457,-0.35,0.83,0.81,-0.07,0.02,1.06,
1.459,-0.35,0.83,0.81,-0.07,0.03,1.06,
1.461,-0.35,0.83,0.81,-0.07,0.03,1.05,
1.461,-0.35,0.81,0.77,-0.07,0.03,1.05,
1.463,-0.35,0.81,0.77,-0.07,0.03,1.05,
1.466,-0.35,0.81,0.77,-0.07,0.03,1.05,
1.467,-0.32,0.81,0.71,-0.07,0.03,1.05,
1.469,-0.32,0.81,0.71,-0.07,0.03,1.05,
1.471,-0.32,0.81,0.71,-0.07,0.03,1.05,
1.472,-0.31,0.82,0.66,-0.07,0.03,1.05,
1.473,-0.31,0.82,0.66,-0.07,0.03,1.05,
1.476,-0.31,0.82,0.66,-0.06,0.03,1.05,
1.476,-0.29,0.83,0.65,-0.06,0.03,1.05,
1.478,-0.29,0.83,0.65,-0.06,0.03,1.05,
1.481,-0.29,0.83,0.65,-0.06,0.03,1.05,
1.481,-0.23,0.82,0.64,-0.06,0.03,1.05,
1.483,-0.23,0.82,0.64,-0.06,0.02,1.05,
1.486,-0.23,0.82,0.64,-0.06,0.02,1.05,
1.486,-0.15,0.83,0.62,-0.06,0.02,1.05,
1.494,-0.15,0.83,0.62,-0.05,0.02,1.05,
1.495,-0.15,0.83,0.62,-0.05,0.02,1.04,
1.495,-0.15,0.78,0.60,-0.05,0.02,1.04,
1.495,-0.15,0.78,0.60,-0.05,0.02,1.04,
1.495,-0.15,0.78,0.60,-0.04,0.01,1.04,
1.496,-0.09,0.74,0.58,-0.04,0.01,1.04,
1.498,-0.09,0.74,0.58,-0.04,0.01,1.04,
1.5,-0.09,0.74,0.58,-0.04,0.00,1.03,
1.501,-0.03,0.69,0.54,-0.04,0.00,1.03,
1.503,-0.03,0.69,0.54,-0.04,0.00,1.04,
1.506,-0.03,0.69,0.54,-0.03,-0.00,1.03,
1.506,0.03,0.61,0.48,-0.03,-0.00,1.03,
1.508,0.03,0.61,0.48,-0.03,-0.01,1.03,
1.51,0.07,0.56,0.47,-0.03,-0.01,1.03,
1.51,0.07,0.56,0.47,-0.03,-0.01,1.03,
1.512,0.07,0.56,0.47,-0.02,-0.01,1.03,
1.515,0.07,0.56,0.47,-0.02,-0.01,1.03,
1.515,0.12,0.50,0.44,-0.02,-0.01,1.03,
1.517,0.12,0.50,0.44,-0.02,-0.01,1.03,
1.521,0.12,0.50,0.44,-0.01,-0.01,1.03,
1.521,0.21,0.48,0.44,-0.01,-0.01,1.03,
1.523,0.21,0.48,0.44,-0.01,-0.01,1.03,
1.525,0.21,0.48,0.44,-0.01,-0.01,1.04,
1.525,0.29,0.47,0.45,-0.01,-0.01,1.04,
1.527,0.29,0.47,0.45,-0.01,-0.01,1.04,
1.529,0.29,0.47,0.45,-0.01,-0.01,1.04,
1.53,0.33,0.46,0.45,-0.01,-0.01,1.04,
1.532,0.33,0.46,0.45,-0.02,-0.01,1.04,
1.534,0.33,0.46,0.45,-0.02,-0.01,1.04,
1.535,0.33,0.47,0.47,-0.02,-0.01,1.04,
1.537,0.33,0.47,0.47,-0.03,-0.01,1.04,
1.54,0.33,0.47,0.47,-0.03,-0.01,1.04,
1.54,0.24,0.47,0.48,-0.03,-0.01,1.04,
1.542,0.24,0.47,0.48,-0.04,-0.01,1.04,
1.544,0.24,0.47,0.48,-0.04,-0.01,1.04,
1.544,0.15,0.50,0.48,-0.04,-0.01,1.04,
1.547,0.15,0.50,0.48,-0.05,-0.00,1.03,
1.549,0.15,0.50,0.48,-0.05,-0.00,1.04,
1.549,0.06,0.48,0.46,-0.05,-0.00,1.04,
1.552,0.06,0.48,0.46,-0.05,-0.00,1.03,
1.554,0.06,0.48,0.46,-0.05,0.00,1.03,
1.555,-0.02,0.52,0.43,-0.05,0.00,1.03,
1.557,-0.02,0.52,0.43,-0.06,0.00,1.03,
1.559,-0.02,0.52,0.43,-0.06,0.01,1.02,
1.559,-0.07,0.56,0.39,-0.06,0.01,1.02,
1.561,-0.07,0.56,0.39,-0.05,0.01,1.02,
1.564,-0.07,0.56,0.39,-0.05,0.01,1.02,
1.566,-0.10,0.60,0.32,-0.05,0.01,1.02,
1.567,-0.10,0.60,0.32,-0.05,0.01,1.01,
1.569,-0.10,0.60,0.32,-0.04,0.02,1.01,
1.569,-0.05,0.65,0.27,-0.04,0.02,1.01,
1.571,-0.05,0.65,0.27,-0.04,0.02,1.01,
1.574,-0.05,0.65,0.27,-0.03,0.02,1.01,
1.574,0.04,0.68,0.23,-0.03,0.02,1.01,
1.576,0.04,0.68,0.23,-0.03,0.02,1.01,
1.578,0.04,0.68,0.23,-0.02,0.01,1.01,
1.579,0.12,0.70,0.20,-0.02,0.01,1.01,
1.581,0.12,0.70,0.20,-0.01,0.01,1.01,
1.583,0.12,0.70,0.20,0.00,0.01,1.00,
1.584,0.27,0.65,0.16,0.00,0.01,1.00,
1.59,0.27,0.65,0.16,0.01,0.00,1.01,
1.591,0.27,0.65,0.16,0.02,-0.00,1.00,
1.591,0.44,0.60,0.14,0.02,-0.00,1.00,
1.591,0.44,0.60,0.14,0.02,-0.01,1.01,
1.594,0.44,0.60,0.14,0.03,-0.01,1.01,
1.594,0.63,0.49,0.13,0.03,-0.01,1.01,
1.596,0.63,0.49,0.13,0.03,-0.02,1.01,
1.598,0.63,0.49,0.13,0.04,-0.02,1.01,
1.598,0.75,0.39,0.14,0.04,-0.02,1.01,
1.6,0.75,0.39,0.14,0.04,-0.03,1.01,
1.603,0.75,0.39,0.14,0.05,-0.03,1.01,
1.603,0.85,0.29,0.15,0.05,-0.03,1.01,
1.605,0.85,0.29,0.15,0.05,-0.04,1.01,
1.608,0.85,0.29,0.15,0.05,-0.04,1.01,
1.608,0.94,0.18,0.15,0.05,-0.04,1.01,
1.61,0.94,0.18,0.15,0.05,-0.04,1.01,
1.613,0.94,0.18,0.15,0.05,-0.04,1.01,
1.613,0.99,0.09,0.14,0.05,-0.04,1.01,
1.615,0.99,0.09,0.14,0.05,-0.04,1.01,
1.618,0.99,0.09,0.14,0.05,-0.04,1.01,
1.618,1.01,0.05,0.14,0.05,-0.04,1.01,
1.62,1.01,0.05,0.14,0.05,-0.04,1.01,
1.623,1.01,0.05,0.14,0.05,-0.04,1.01,
1.623,1.03,0.04,0.14,0.05,-0.04,1.01,
1.625,1.03,0.04,0.14,0.05,-0.03,1.01,
1.627,1.03,0.04,0.14,0.04,-0.03,1.01,
1.627,1.04,0.08,0.16,0.04,-0.03,1.01,
1.63,1.04,0.08,0.16,0.04,-0.02,1.01,
1.632,1.04,0.08,0.16,0.04,-0.02,1.01,
1.632,0.99,0.15,0.15,0.04,-0.02,1.01,
1.635,0.99,0.15,0.15,0.04,-0.02,1.01,
1.637,0.99,0.15,0.15,0.04,-0.02,1.01,
1.638,0.93,0.21,0.16,0.04,-0.02,1.01,
1.64,0.93,0.21,0.16,0.04,-0.01,1.01,
1.642,0.93,0.21,0.16,0.04,-0.01,1.01,
1.643,0.92,0.25,0.17,0.04,-0.01,1.01,
1.645,0.92,0.25,0.17,0.05,-0.01,1.01,
1.647,0.92,0.25,0.17,0.04,-0.01,1.01,
1.647,0.95,0.31,0.18,0.04,-0.01,1.01,
1.649,0.95,0.31,0.18,0.05,-0.00,1.01,
1.652,0.95,0.31,0.18,0.05,-0.01,1.01,
1.652,1.01,0.35,0.19,0.05,-0.01,1.01,
1.655,1.01,0.35,0.19,0.06,-0.01,1.01,
1.657,1.01,0.35,0.19,0.06,-0.01,1.01,
1.657,1.07,0.34,0.17,0.06,-0.01,1.01,
1.659,1.07,0.34,0.17,0.06,-0.02,1.01,
1.662,1.07,0.34,0.17,0.06,-0.02,1.00,
1.662,1.15,0.31,0.17,0.06,-0.02,1.00,
1.664,1.15,0.31,0.17,0.07,-0.03,1.00,
1.667,1.15,0.31,0.17,0.07,-0.03,1.00,
1.667,1.20,0.21,0.13,0.07,-0.03,1.00,
1.67,1.20,0.21,0.13,0.07,-0.03,1.00,
1.672,1.20,0.21,0.13,0.08,-0.04,1.00,
1.672,1.23,0.10,0.11,0.08,-0.04,1.00,
1.675,1.23,0.10,0.11,0.08,-0.04,1.00,
1.677,1.23,0.10,0.11,0.08,-0.05,1.00,
1.677,1.31,0.02,0.07,0.08,-0.05,1.00,
1.679,1.31,0.02,0.07,0.08,-0.05,1.00,
1.681,1.31,0.02,0.07,0.08,-0.06,1.00,
1.682,1.37,-0.06,0.05,0.08,-0.06,1.00,
1.684,1.37,-0.06,0.05,0.08,-0.07,0.99,
1.687,1.37,-0.06,0.05,0.07,-0.07,1.00,
1.688,1.37,-0.18,0.04,0.07,-0.07,1.00,
1.689,1.37,-0.18,0.04,0.07,-0.07,1.00,
1.691,1.37,-0.18,0.04,0.07,-0.07,1.00,
1.691,1.30,-0.29,0.02,0.07,-0.07,1.00,
1.694,1.30,-0.29,0.02,0.07,-0.07,1.00,
1.696,1.30,-0.29,0.02,0.06,-0.06,1.01,
1.696,1.24,-0.30,0.07,0.06,-0.06,1.01,
1.698,1.24,-0.30,0.07,0.06,-0.05,1.01,
1.701,1.24,-0.30,0.07,0.05,-0.05,1.02,
1.701,1.17,-0.22,0.13,0.05,-0.05,1.02,
1.709,1.17,-0.22,0.13,0.05,-0.04,1.02,
1.71,1.17,-0.22,0.13,0.04,-0.03,1.03,
1.71,1.08,-0.09,0.22,0.04,-0.03,1.03,
1.71,1.08,-0.09,0.22,0.04,-0.02,1.04,
1.711,1.08,-0.09,0.22,0.04,-0.01,1.05,
1.711,1.00,0.08,0.34,0.04,-0.01,1.05,
1.713,1.00,0.08,0.34,0.04,0.00,1.05,
1.715,1.00,0.08,0.34,0.03,0.01,1.06,
1.716,0.93,0.28,0.47,0.03,0.01,1.06,
1.718,0.93,0.28,0.47,0.03,0.02,1.07,
1.721,0.93,0.28,0.47,0.03,0.02,1.07,
1.721,0.90,0.45,0.61,0.03,0.02,1.07,
1.723,0.90,0.45,0.61,0.03,0.02,1.08,
1.725,0.90,0.45,0.61,0.04,0.03,1.08,
1.726,0.87,0.58,0.74,0.04,0.03,1.08,
1.728,0.87,0.58,0.74,0.05,0.03,1.08,
1.73,0.87,0.58,0.74,0.05,0.03,1.08,
1.731,0.92,0.65,0.79,0.05,0.03,1.08,
1.733,0.92,0.65,0.79,0.06,0.03,1.08,
1.735,0.92,0.65,0.79,0.07,0.03,1.08,
1.735,1.03,0.69,0.83,0.07,0.03,1.08,
1.738,1.03,0.69,0.83,0.07,0.02,1.08,
1.74,1.03,0.69,0.83,0.08,0.02,1.08,
1.741,1.15,0.68,0.82,0.08,0.02,1.08,
1.743,1.15,0.68,0.82,0.08,0.01,1.08,
1.745,1.15,0.68,0.82,0.08,0.01,1.07,
1.745,1.24,0.61,0.79,0.08,0.01,1.07,
1.747,1.24,0.61,0.79,0.09,0.00,1.07,
1.75,1.24,0.61,0.79,0.09,-0.01,1.07,
1.75,1.30,0.49,0.75,0.09,-0.01,1.07,
1.753,1.30,0.49,0.75,0.09,-0.01,1.06,
1.755,1.30,0.49,0.75,0.09,-0.02,1.06,
1.756,1.37,0.36,0.68,0.09,-0.02,1.06,
1.757,1.37,0.36,0.68,0.09,-0.02,1.05,
1.76,1.37,0.36,0.68,0.09,-0.03,1.05,
1.76,1.37,0.23,0.60,0.09,-0.03,1.05,
1.762,1.37,0.23,0.60,0.09,-0.03,1.05,
1.764,1.37,0.23,0.60,0.09,-0.03,1.04,
1.765,1.35,0.10,0.52,0.09,-0.03,1.04,
1.767,1.35,0.10,0.52,0.08,-0.04,1.04,
1.77,1.35,0.10,0.52,0.08,-0.04,1.04,
1.77,1.29,0.03,0.45,0.08,-0.04,1.04,
1.772,1.29,0.03,0.45,0.08,-0.04,1.04,
1.775,1.29,0.03,0.45,0.07,-0.04,1.04,
1.775,1.21,-0.01,0.42,0.07,-0.04,1.04,
1.777,1.21,-0.01,0.42,0.06,-0.03,1.04,
1.779,1.21,-0.01,0.42,0.06,-0.03,1.05,
1.78,1.13,-0.01,0.40,0.06,-0.03,1.05,
1.782,1.13,-0.01,0.40,0.05,-0.03,1.05,
1.785,1.13,-0.01,0.40,0.05,-0.02,1.05,
1.785,1.00,0.03,0.44,0.05,-0.02,1.05,
1.787,1.00,0.03,0.44,0.04,-0.02,1.05,
1.789,1.00,0.03,0.44,0.04,-0.01,1.06,
1.79,0.90,0.11,0.48,0.04,-0.01,1.06,
1.792,0.90,0.11,0.48,0.04,-0.01,1.06,
1.794,0.90,0.11,0.48,0.04,-0.01,1.06,
1.794,0.81,0.18,0.53,0.04,-0.01,1.06,
1.796,0.81,0.18,0.53,0.04,-0.01,1.06,
1.799,0.81,0.18,0.53,0.04,-0.01,1.06,
1.799,0.75,0.21,0.55,0.04,-0.01,1.06,
1.801,0.75,0.21,0.55,0.05,-0.01,1.06,
1.809,0.75,0.21,0.55,0.06,-0.01,1.06,
1.809,0.78,0.22,0.58,0.06,-0.01,1.06,
1.809,0.78,0.22,0.58,0.07,-0.01,1.06,
1.81,0.78,0.22,0.58,0.08,-0.01,1.06,
1.81,0.92,0.22,0.57,0.08,-0.01,1.06,
1.811,0.92,0.22,0.57,0.09,-0.01,1.06,
1.813,0.92,0.22,0.57,0.10,-0.02,1.06,
1.814,1.13,0.20,0.56,0.10,-0.02,1.06,
1.816,1.13,0.20,0.56,0.11,-0.02,1.06,
1.824,1.13,0.20,0.56,0.13,-0.03,1.05,
1.824,1.29,0.13,0.54,0.13,-0.03,1.05,
1.824,1.29,0.13,0.54,0.14,-0.03,1.05,
1.824,1.29,0.13,0.54,0.14,-0.04,1.05,
1.824,1.53,0.04,0.48,0.14,-0.04,1.05,
1.826,1.53,0.04,0.48,0.15,-0.05,1.04,
1.828,1.53,0.04,0.48,0.16,-0.05,1.04,
1.828,1.72,-0.10,0.43,0.16,-0.05,1.04,
1.831,1.72,-0.10,0.43,0.16,-0.06,1.04,
1.833,1.72,-0.10,0.43,0.16,-0.06,1.04,
1.833,1.84,-0.24,0.35,0.16,-0.06,1.04,
1.835,1.84,-0.24,0.35,0.17,-0.07,1.03,
1.838,1.84,-0.24,0.35,0.17,-0.07,1.03,
1.838,1.91,-0.36,0.30,0.17,-0.07,1.03,
1.84,1.91,-0.36,0.30,0.17,-0.07,1.03,
1.843,1.91,-0.36,0.30,0.16,-0.08,1.03,
1.843,1.93,-0.46,0.27,0.16,-0.08,1.03,
1.845,1.93,-0.46,0.27,0.15,-0.08,1.03,
1.848,1.93,-0.46,0.27,0.14,-0.08,1.03,
1.848,1.90,-0.51,0.23,0.14,-0.08,1.03,
1.85,1.90,-0.51,0.23,0.13,-0.08,1.03,
1.853,1.90,-0.51,0.23,0.12,-0.07,1.03,
1.853,1.75,-0.54,0.22,0.12,-0.07,1.03,
1.855,1.75,-0.54,0.22,0.10,-0.07,1.03,
1.858,1.75,-0.54,0.22,0.09,-0.07,1.03,
1.858,1.51,-0.52,0.22,0.09,-0.07,1.03,
1.86,1.51,-0.52,0.22,0.07,-0.06,1.03,
1.863,1.51,-0.52,0.22,0.06,-0.05,1.03,
1.863,1.22,-0.48,0.23,0.06,-0.05,1.03,
1.865,1.22,-0.48,0.23,0.04,-0.05,1.03,
1.868,0.91,-0.37,0.25,0.04,-0.05,1.03,
1.868,0.91,-0.37,0.25,0.02,-0.04,1.03,
1.87,0.91,-0.37,0.25,0.01,-0.03,1.03,
1.872,0.91,-0.37,0.25,-0.00,-0.02,1.04,
1.873,0.56,-0.21,0.26,-0.00,-0.02,1.04,
1.875,0.56,-0.21,0.26,-0.01,-0.01,1.03,
1.877,0.56,-0.21,0.26,-0.02,-0.00,1.03,
1.878,0.27,-0.04,0.26,-0.02,-0.00,1.03,
1.88,0.27,-0.04,0.26,-0.02,0.00,1.03,
1.882,0.27,-0.04,0.26,-0.03,0.01,1.03,
1.882,0.09,0.10,0.26,-0.03,0.01,1.03,
1.885,0.09,0.10,0.26,-0.03,0.01,1.03,
1.891,0.09,0.10,0.26,-0.03,0.01,1.03,
1.892,-0.02,0.20,0.24,-0.03,0.01,1.03,
1.892,-0.02,0.20,0.24,-0.03,0.01,1.03,
1.894,-0.02,0.20,0.24,-0.02,0.01,1.02,
1.894,-0.04,0.23,0.21,-0.02,0.01,1.02,
1.895,-0.04,0.23,0.21,-0.02,0.01,1.02,
1.897,-0.04,0.23,0.21,-0.01,0.00,1.02,
1.897,-0.00,0.21,0.14,-0.01,0.00,1.02,
1.899,-0.00,0.21,0.14,0.00,-0.00,1.01,
1.903,-0.00,0.21,0.14,0.01,-0.01,1.01,
1.903,0.11,0.17,0.09,0.01,-0.01,1.01,
1.904,0.11,0.17,0.09,0.03,-0.01,1.01,
1.907,0.11,0.17,0.09,0.03,-0.02,1.01,
1.907,0.29,0.07,0.04,0.03,-0.02,1.01,
1.909,0.29,0.07,0.04,0.04,-0.03,1.01,
1.911,0.29,0.07,0.04,0.05,-0.04,1.02,
1.912,0.51,-0.08,0.04,0.05,-0.04,1.02,
1.914,0.51,-0.08,0.04,0.06,-0.05,1.02,
1.916,0.51,-0.08,0.04,0.07,-0.05,1.02,
1.916,0.70,-0.24,0.05,0.07,-0.05,1.02,
1.919,0.70,-0.24,0.05,0.07,-0.06,1.02,
1.921,0.70,-0.24,0.05,0.07,-0.07,1.02,
1.921,0.85,-0.41,0.10,0.07,-0.07,1.02,
1.924,0.85,-0.41,0.10,0.07,-0.08,1.03,
1.926,0.85,-0.41,0.10,0.07,-0.09,1.03,
1.926,0.91,-0.60,0.15,0.07,-0.09,1.03,
1.929,0.91,-0.60,0.15,0.07,-0.09,1.04,
1.931,0.91,-0.60,0.15,0.07,-0.10,1.04,
1.931,0.90,-0.75,0.22,0.07,-0.10,1.04,
1.933,0.90,-0.75,0.22,0.06,-0.10,1.04,
1.936,0.90,-0.75,0.22,0.06,-0.11,1.05,
1.936,0.90,-0.90,0.28,0.06,-0.11,1.05,
1.938,0.90,-0.90,0.28,0.05,-0.11,1.05,
1.941,0.90,-0.90,0.28,0.05,-0.11,1.05,
1.941,0.83,-0.99,0.34,0.05,-0.11,1.05,
1.943,0.83,-0.99,0.34,0.05,-0.10,1.05,
1.946,0.83,-0.99,0.34,0.05,-0.10,1.05,
1.946,0.77,-1.00,0.37,0.05,-0.10,1.05,
1.948,0.77,-1.00,0.37,0.05,-0.09,1.05,
1.951,0.77,-1.00,0.37,0.05,-0.09,1.04,
1.951,0.72,-0.97,0.37,0.05,-0.09,1.04,
1.953,0.72,-0.97,0.37,0.05,-0.08,1.04,
1.955,0.72,-0.97,0.37,0.05,-0.08,1.03,
1.956,0.69,-0.89,0.33,0.05,-0.08,1.03,
1.958,0.69,-0.89,0.33,0.04,-0.07,1.03,
1.96,0.69,-0.89,0.33,0.04,-0.07,1.02,
1.961,0.68,-0.79,0.26,0.04,-0.07,1.02,
1.963,0.68,-0.79,0.26,0.04,-0.07,1.02,
1.965,0.68,-0.79,0.26,0.03,-0.06,1.01,
1.966,0.64,-0.72,0.14,0.03,-0.06,1.01,
1.969,0.64,-0.72,0.14,0.03,-0.06,1.01,
1.97,0.64,-0.72,0.14,0.02,-0.06,1.00,
1.97,0.55,-0.65,0.05,0.02,-0.06,1.00,
1.973,0.55,-0.65,0.05,0.02,-0.05,0.99,
1.975,0.55,-0.65,0.05,0.02,-0.05,0.99,
1.975,0.44,-0.62,-0.07,0.02,-0.05,0.99,
1.977,0.44,-0.62,-0.07,0.02,-0.05,0.98,
1.98,0.44,-0.62,-0.07,0.02,-0.05,0.98,
1.98,0.38,-0.58,-0.21,0.02,-0.05,0.98,
1.982,0.38,-0.58,-0.21,0.02,-0.06,0.97,
1.985,0.38,-0.58,-0.21,0.02,-0.06,0.97,
1.986,0.37,-0.59,-0.31,0.02,-0.06,0.97,
1.987,0.37,-0.59,-0.31,0.02,-0.06,0.96,
1.99,0.37,-0.59,-0.31,0.02,-0.06,0.96,
1.99,0.36,-0.64,-0.40,0.02,-0.06,0.96,
1.992,0.36,-0.64,-0.40,0.02,-0.07,0.96,
1.995,0.36,-0.64,-0.40,0.02,-0.07,0.96,
1.995,0.37,-0.70,-0.45,0.02,-0.07,0.96,
1.997,0.37,-0.70,-0.45,0.02,-0.07,0.96,
2.0,0.37,-0.70,-0.45,0.02,-0.07,0.97,
2.0,0.36,-0.77,-0.47,0.02,-0.07,0.97,
2.008,0.36,-0.77,-0.47,0.02,-0.07,0.97,
2.008,0.36,-0.77,-0.47,0.02,-0.07,0.97,
2.008,0.39,-0.81,-0.43,0.02,-0.07,0.97,
2.009,0.39,-0.81,-0.43,0.02,-0.07,0.98,
2.009,0.39,-0.81,-0.43,0.02,-0.07,0.98,
2.01,0.38,-0.82,-0.38,0.02,-0.07,0.98,
2.012,0.38,-0.82,-0.38,0.02,-0.07,0.99,
2.018,0.38,-0.82,-0.38,0.02,-0.06,1.00,
2.018,0.39,-0.81,-0.26,0.02,-0.06,1.00,
2.018,0.39,-0.81,-0.26,0.02,-0.06,1.01,
2.02,0.39,-0.74,-0.14,0.02,-0.06,1.01,
2.021,0.39,-0.74,-0.14,0.02,-0.06,1.01,
2.022,0.39,-0.74,-0.14,0.03,-0.05,1.02,
2.024,0.39,-0.74,-0.14,0.03,-0.05,1.03,
2.024,0.42,-0.68,0.02,0.03,-0.05,1.03,
2.027,0.42,-0.68,0.02,0.03,-0.04,1.03,
2.029,0.42,-0.68,0.02,0.03,-0.04,1.04,
2.029,0.43,-0.61,0.15,0.03,-0.04,1.04,
2.031,0.43,-0.61,0.15,0.03,-0.04,1.04,
2.034,0.43,-0.61,0.15,0.03,-0.04,1.05,
2.034,0.46,-0.54,0.27,0.03,-0.04,1.05,
2.036,0.46,-0.54,0.27,0.03,-0.04,1.05,
2.039,0.46,-0.54,0.27,0.03,-0.04,1.06,
2.039,0.48,-0.51,0.37,0.03,-0.04,1.06,
2.041,0.48,-0.51,0.37,0.03,-0.04,1.06,
2.044,0.48,-0.51,0.37,0.03,-0.04,1.06,
2.044,0.47,-0.50,0.44,0.03,-0.04,1.06,
2.046,0.47,-0.50,0.44,0.03,-0.04,1.06,
2.049,0.47,-0.50,0.44,0.02,-0.04,1.06,
2.049,0.44,-0.49,0.50,0.02,-0.04,1.06,
2.052,0.44,-0.49,0.50,0.02,-0.04,1.06,
2.054,0.44,-0.49,0.50,0.01,-0.05,1.06,
2.056,0.39,-0.51,0.53,0.01,-0.05,1.06,
2.056,0.39,-0.51,0.53,0.01,-0.05,1.06,
2.058,0.39,-0.51,0.53,0.00,-0.05,1.05,
2.058,0.30,-0.58,0.50,0.00,-0.05,1.05,
2.061,0.30,-0.58,0.50,-0.01,-0.05,1.05,
2.063,0.18,-0.67,0.44,-0.01,-0.05,1.05,
2.064,0.18,-0.67,0.44,-0.01,-0.06,1.04,
2.066,0.18,-0.67,0.44,-0.01,-0.06,1.04,
2.069,0.18,-0.67,0.44,-0.01,-0.05,1.03,
2.069,0.05,-0.69,0.34,-0.01,-0.05,1.03,
2.071,0.05,-0.69,0.34,-0.02,-0.05,1.03,
2.073,0.05,-0.69,0.34,-0.02,-0.04,1.02,
2.073,-0.01,-0.69,0.25,-0.02,-0.04,1.02,
2.076,-0.01,-0.69,0.25,-0.02,-0.03,1.02,
2.078,-0.01,-0.69,0.25,-0.02,-0.02,1.01,
2.078,-0.05,-0.61,0.14,-0.02,-0.02,1.01,
2.08,-0.05,-0.61,0.14,-0.02,-0.02,1.01,
2.083,-0.05,-0.61,0.14,-0.03,-0.01,1.00,
2.084,-0.08,-0.45,0.04,-0.03,-0.01,1.00,
2.086,-0.08,-0.45,0.04,-0.03,-0.01,1.00,
2.088,-0.15,-0.33,-0.06,-0.03,-0.01,1.00,
2.088,-0.15,-0.33,-0.06,-0.04,0.00,1.00,
2.091,-0.15,-0.33,-0.06,-0.05,0.01,0.99,
2.093,-0.15,-0.33,-0.06,-0.05,0.01,0.99,
2.093,-0.26,-0.25,-0.13,-0.05,0.01,0.99,
2.095,-0.26,-0.25,-0.13,-0.06,0.01,0.99,
2.098,-0.26,-0.25,-0.13,-0.07,0.02,0.98,
2.098,-0.41,-0.18,-0.20,-0.07,0.02,0.98,
2.1,-0.41,-0.18,-0.20,-0.07,0.03,0.98,
2.108,-0.41,-0.18,-0.20,-0.07,0.03,0.98,
2.108,-0.52,-0.10,-0.26,-0.07,0.03,0.98,
2.109,-0.52,-0.10,-0.26,-0.07,0.03,0.98,
2.109,-0.52,-0.10,-0.26,-0.06,0.04,0.98,
2.109,-0.58,-0.02,-0.31,-0.06,0.04,0.98,
2.11,-0.58,-0.02,-0.31,-0.06,0.04,0.98,
2.112,-0.58,-0.02,-0.31,-0.06,0.04,0.98,
2.112,-0.54,0.05,-0.31,-0.06,0.04,0.98,
2.115,-0.54,0.05,-0.31,-0.06,0.04,0.98,
2.117,-0.54,0.05,-0.31,-0.06,0.04,0.98,
2.118,-0.53,0.08,-0.28,-0.06,0.04,0.98,
2.12,-0.53,0.08,-0.28,-0.06,0.03,0.99,
2.122,-0.53,0.08,-0.28,-0.05,0.03,0.99,
2.123,-0.49,0.04,-0.25,-0.05,0.03,0.99,
2.124,-0.49,0.04,-0.25,-0.04,0.03,0.99,
2.127,-0.49,0.04,-0.25,-0.04,0.02,0.99,
2.127,-0.43,-0.05,-0.19,-0.04,0.02,0.99,
2.129,-0.43,-0.05,-0.19,-0.04,0.01,1.00,
2.132,-0.43,-0.05,-0.19,-0.03,0.01,1.00,
2.132,-0.32,-0.14,-0.14,-0.03,0.01,1.00,
2.135,-0.32,-0.14,-0.14,-0.03,-0.00,1.00,
2.137,-0.32,-0.14,-0.14,-0.02,-0.01,1.00,
2.137,-0.22,-0.29,-0.12,-0.02,-0.01,1.00,
2.139,-0.22,-0.29,-0.12,-0.01,-0.02,1.00,
2.142,-0.22,-0.29,-0.12,-0.01,-0.02,1.00,
2.142,-0.14,-0.46,-0.10,-0.01,-0.02,1.00,
2.144,-0.14,-0.46,-0.10,-0.00,-0.03,1.00,
2.147,-0.14,-0.46,-0.10,0.00,-0.03,1.00,
2.147,-0.03,-0.61,-0.05,0.00,-0.03,1.00,
2.149,-0.03,-0.61,-0.05,0.01,-0.03,1.00,
2.152,-0.03,-0.61,-0.05,0.01,-0.03,1.00,
2.152,0.07,-0.67,-0.05,0.01,-0.03,1.00,
2.154,0.07,-0.67,-0.05,0.01,-0.04,1.00,
2.156,0.07,-0.67,-0.05,0.01,-0.04,0.99,
2.157,0.14,-0.73,-0.08,0.01,-0.04,0.99,
2.159,0.14,-0.73,-0.08,0.00,-0.05,0.99,
2.161,0.14,-0.73,-0.08,-0.01,-0.05,0.99,
2.162,0.15,-0.80,-0.13,-0.01,-0.05,0.99,
2.164,0.15,-0.80,-0.13,-0.01,-0.06,0.98,
2.166,0.15,-0.80,-0.13,-0.02,-0.06,0.98,
2.167,0.03,-0.92,-0.19,-0.02,-0.06,0.98,
2.169,0.03,-0.92,-0.19,-0.03,-0.06,0.98,
2.171,0.03,-0.92,-0.19,-0.04,-0.06,0.97,
2.172,-0.14,-1.02,-0.26,-0.04,-0.06,0.97,
2.174,-0.14,-1.02,-0.26,-0.04,-0.06,0.97,
2.176,-0.14,-1.02,-0.26,-0.04,-0.05,0.97,
2.176,-0.29,-1.04,-0.31,-0.04,-0.05,0.97,
2.178,-0.29,-1.04,-0.31,-0.04,-0.05,0.96,
2.181,-0.29,-1.04,-0.31,-0.04,-0.04,0.96,
2.181,-0.40,-0.97,-0.38,-0.04,-0.04,0.96,
2.184,-0.40,-0.97,-0.38,-0.04,-0.04,0.96,
2.191,-0.40,-0.97,-0.38,-0.04,-0.03,0.96,
2.191,-0.43,-0.90,-0.44,-0.04,-0.03,0.96,
2.192,-0.43,-0.90,-0.44,-0.04,-0.03,0.95,
2.192,-0.43,-0.90,-0.44,-0.04,-0.02,0.95,
2.192,-0.41,-0.81,-0.48,-0.04,-0.02,0.95,
2.193,-0.41,-0.81,-0.48,-0.03,-0.02,0.95,
2.196,-0.41,-0.81,-0.48,-0.03,-0.02,0.95,
2.196,-0.40,-0.71,-0.51,-0.03,-0.02,0.95,
2.198,-0.40,-0.71,-0.51,-0.03,-0.02,0.95,
2.201,-0.35,-0.65,-0.53,-0.03,-0.02,0.95,
2.201,-0.35,-0.65,-0.53,-0.02,-0.02,0.95,
2.204,-0.35,-0.65,-0.53,-0.01,-0.02,0.95,
2.205,-0.35,-0.65,-0.53,-0.01,-0.02,0.95,
2.205,-0.27,-0.63,-0.55,-0.01,-0.02,0.95,
2.208,-0.27,-0.63,-0.55,0.00,-0.02,0.95,
2.21,-0.27,-0.63,-0.55,0.01,-0.02,0.95,
2.21,-0.14,-0.63,-0.55,0.01,-0.02,0.95,
2.213,-0.14,-0.63,-0.55,0.02,-0.02,0.95,
2.215,-0.14,-0.63,-0.55,0.03,-0.03,0.95,
2.215,0.01,-0.67,-0.55,0.03,-0.03,0.95,
2.218,0.01,-0.67,-0.55,0.03,-0.03,0.95,
2.22,0.01,-0.67,-0.55,0.04,-0.03,0.95,
2.22,0.16,-0.72,-0.55,0.04,-0.03,0.95,
2.223,0.16,-0.72,-0.55,0.04,-0.03,0.95,
2.225,0.16,-0.72,-0.55,0.05,-0.04,0.95,
2.225,0.27,-0.78,-0.52,0.05,-0.04,0.95,
2.227,0.27,-0.78,-0.52,0.05,-0.04,0.95,
2.23,0.27,-0.78,-0.52,0.05,-0.04,0.95,
2.23,0.35,-0.83,-0.51,0.05,-0.04,0.95,
2.232,0.35,-0.83,-0.51,0.05,-0.04,0.95,
2.235,0.35,-0.83,-0.51,0.05,-0.04,0.95,
2.235,0.41,-0.87,-0.51,0.05,-0.04,0.95,
2.237,0.41,-0.87,-0.51,0.05,-0.05,0.95,
2.24,0.41,-0.87,-0.51,0.04,-0.05,0.95,
2.24,0.41,-0.91,-0.53,0.04,-0.05,0.95,
2.242,0.41,-0.91,-0.53,0.04,-0.05,0.95,
2.244,0.41,-0.91,-0.53,0.03,-0.05,0.95,
2.245,0.33,-0.96,-0.52,0.03,-0.05,0.95,
2.247,0.33,-0.96,-0.52,0.02,-0.05,0.95,
2.25,0.33,-0.96,-0.52,0.02,-0.05,0.95,
2.25,0.23,-0.98,-0.51,0.02,-0.05,0.95,
2.252,0.23,-0.98,-0.51,0.01,-0.05,0.95,
2.255,0.23,-0.98,-0.51,0.00,-0.05,0.95,
2.255,0.08,-0.99,-0.48,0.00,-0.05,0.95,
2.257,0.08,-0.99,-0.48,0.00,-0.04,0.95,
2.259,0.08,-0.99,-0.48,-0.00,-0.04,0.95,
2.259,-0.04,-0.96,-0.48,-0.00,-0.04,0.95,
2.262,-0.04,-0.96,-0.48,-0.01,-0.04,0.95,
2.264,-0.04,-0.96,-0.48,-0.01,-0.03,0.95,
2.264,-0.13,-0.89,-0.47,-0.01,-0.03,0.95,
2.267,-0.13,-0.89,-0.47,-0.01,-0.03,0.95,
2.269,-0.13,-0.89,-0.47,-0.01,-0.03,0.94,
2.27,-0.20,-0.85,-0.50,-0.01,-0.03,0.94,
2.272,-0.20,-0.85,-0.50,-0.01,-0.03,0.94,
2.274,-0.20,-0.85,-0.50,-0.01,-0.03,0.94,
2.274,-0.23,-0.83,-0.52,-0.01,-0.03,0.94,
2.276,-0.23,-0.83,-0.52,-0.01,-0.03,0.94,
2.279,-0.24,-0.82,-0.54,-0.01,-0.03,0.94,
2.279,-0.24,-0.82,-0.54,-0.00,-0.03,0.94,
2.281,-0.24,-0.82,-0.54,0.00,-0.03,0.94,
2.291,-0.24,-0.82,-0.54,0.01,-0.03,0.93,
2.291,-0.21,-0.79,-0.56,0.01,-0.03,0.93,
2.292,-0.21,-0.79,-0.56,0.01,-0.03,0.93,
2.292,-0.21,-0.79,-0.56,0.02,-0.03,0.92,
2.292,-0.13,-0.80,-0.59,0.02,-0.03,0.92,
2.292,-0.13,-0.80,-0.59,0.02,-0.03,0.92,
2.294,-0.13,-0.80,-0.59,0.03,-0.04,0.92,
2.294,-0.03,-0.84,-0.68,0.03,-0.04,0.92,
2.296,-0.03,-0.84,-0.68,0.04,-0.04,0.91,
2.298,-0.03,-0.84,-0.68,0.04,-0.04,0.91,
2.298,0.07,-0.87,-0.76,0.04,-0.04,0.91,
2.302,0.07,-0.87,-0.76,0.04,-0.05,0.91,
2.303,0.07,-0.87,-0.76,0.05,-0.05,0.90,
2.304,0.17,-0.94,-0.81,0.05,-0.05,0.90,
2.306,0.17,-0.94,-0.81,0.05,-0.05,0.90,
2.308,0.17,-0.94,-0.81,0.05,-0.05,0.90,
2.308,0.21,-0.97,-0.88,0.05,-0.05,0.90,
2.31,0.21,-0.97,-0.88,0.05,-0.05,0.89,
2.313,0.21,-0.97,-0.88,0.06,-0.05,0.89,
2.313,0.25,-1.02,-0.94,0.06,-0.05,0.89,
2.315,0.25,-1.02,-0.94,0.05,-0.06,0.88,
2.318,0.25,-1.02,-0.94,0.05,-0.06,0.88,
2.319,0.28,-1.04,-0.99,0.05,-0.06,0.88,
2.321,0.28,-1.04,-0.99,0.05,-0.06,0.88,
2.323,0.28,-1.04,-0.99,0.04,-0.06,0.88,
2.323,0.26,-1.08,-1.04,0.04,-0.06,0.88,
2.325,0.26,-1.08,-1.04,0.03,-0.06,0.88,
2.328,0.26,-1.08,-1.04,0.03,-0.06,0.88,
2.328,0.16,-1.10,-1.07,0.03,-0.06,0.88,
2.33,0.16,-1.10,-1.07,0.02,-0.06,0.88,
2.333,0.16,-1.10,-1.07,0.02,-0.06,0.88,
2.333,0.04,-1.11,-1.06,0.02,-0.06,0.88,
2.335,0.04,-1.11,-1.06,0.02,-0.06,0.89,
2.338,0.04,-1.11,-1.06,0.02,-0.05,0.89,
2.338,-0.06,-1.11,-1.02,0.02,-0.05,0.89,
2.341,-0.06,-1.11,-1.02,0.02,-0.05,0.90,
2.343,-0.06,-1.11,-1.02,0.02,-0.04,0.90,
2.343,-0.09,-1.03,-0.95,0.02,-0.04,0.90,
2.345,-0.09,-1.03,-0.95,0.02,-0.03,0.90,
2.347,-0.09,-1.03,-0.95,0.02,-0.03,0.90,
2.348,-0.06,-0.90,-0.88,0.02,-0.03,0.90,
2.35,-0.06,-0.90,-0.88,0.02,-0.02,0.91,
2.352,-0.06,-0.90,-0.88,0.02,-0.02,0.91,
2.353,-0.04,-0.80,-0.82,0.02,-0.02,0.91,
2.355,-0.04,-0.80,-0.82,0.02,-0.02,0.91,
2.357,-0.04,-0.80,-0.82,0.02,-0.01,0.92,
2.358,-0.06,-0.70,-0.73,0.02,-0.01,0.92,
2.36,-0.06,-0.70,-0.73,0.01,-0.01,0.92,
2.362,-0.06,-0.70,-0.73,0.01,-0.01,0.92,
2.362,-0.10,-0.61,-0.66,0.01,-0.01,0.92,
2.364,-0.10,-0.61,-0.66,0.01,-0.00,0.92,
2.368,-0.10,-0.61,-0.66,0.01,-0.00,0.93,
2.369,-0.13,-0.56,-0.61,0.01,-0.00,0.93,
2.37,-0.13,-0.56,-0.61,0.01,-0.00,0.93,
2.372,-0.13,-0.56,-0.61,0.01,0.00,0.93,
2.372,-0.17,-0.51,-0.56,0.01,0.00,0.93,
2.374,-0.17,-0.51,-0.56,0.01,0.00,0.93,
2.377,-0.17,-0.51,-0.56,0.01,0.00,0.93,
2.377,-0.17,-0.46,-0.53,0.01,0.00,0.93,
2.379,-0.17,-0.46,-0.53,0.01,0.00,0.92,
2.382,-0.17,-0.46,-0.53,0.01,0.00,0.92,
2.382,-0.17,-0.45,-0.53,0.01,0.00,0.92,
2.384,-0.17,-0.45,-0.53,0.00,0.00,0.92,
2.387,-0.17,-0.45,-0.53,0.00,0.00,0.91,
2.387,-0.19,-0.44,-0.59,0.00,0.00,0.91,
2.389,-0.19,-0.44,-0.59,0.00,0.00,0.91,
2.392,-0.19,-0.44,-0.59,0.00,0.00,0.91,
2.392,-0.24,-0.45,-0.65,0.00,0.00,0.91,
2.394,-0.24,-0.45,-0.65,0.01,0.00,0.91,
2.396,-0.24,-0.45,-0.65,0.01,0.00,0.90,
2.397,-0.24,-0.45,-0.68,0.01,0.00,0.90,
2.399,-0.24,-0.45,-0.68,0.01,0.00,0.90,
2.406,-0.24,-0.45,-0.68,0.01,0.00,0.90,
2.407,-0.20,-0.42,-0.74,0.01,0.00,0.90,
2.407,-0.20,-0.42,-0.74,0.01,0.00,0.89,
2.408,-0.20,-0.42,-0.74,0.01,-0.00,0.89,
2.408,-0.17,-0.43,-0.79,0.01,-0.00,0.89,
2.409,-0.17,-0.43,-0.79,0.01,-0.00,0.89,
2.411,-0.17,-0.43,-0.79,0.01,-0.00,0.88,
2.411,-0.18,-0.46,-0.86,0.01,-0.00,0.88,
2.413,-0.18,-0.46,-0.86,0.00,-0.01,0.88,
2.416,-0.18,-0.46,-0.86,0.00,-0.01,0.88,
2.416,-0.20,-0.48,-0.91,0.00,-0.01,0.88,
2.419,-0.20,-0.48,-0.91,0.00,-0.01,0.89,
2.421,-0.20,-0.48,-0.91,-0.00,-0.01,0.89,
2.421,-0.24,-0.51,-0.91,-0.00,-0.01,0.89,
2.423,-0.24,-0.51,-0.91,-0.00,-0.01,0.89,
2.426,-0.24,-0.51,-0.91,-0.01,-0.01,0.89,
2.426,-0.27,-0.53,-0.88,-0.01,-0.01,0.89,
2.428,-0.27,-0.53,-0.88,-0.01,-0.01,0.89,
2.43,-0.27,-0.53,-0.88,-0.01,-0.01,0.90,
2.431,-0.31,-0.54,-0.84,-0.01,-0.01,0.90,
2.434,-0.31,-0.54,-0.84,-0.01,-0.01,0.90,
2.435,-0.31,-0.54,-0.84,-0.01,-0.01,0.91,
2.436,-0.31,-0.53,-0.78,-0.01,-0.01,0.91,
2.438,-0.31,-0.53,-0.78,-0.02,-0.01,0.91,
2.44,-0.31,-0.53,-0.78,-0.03,-0.00,0.92,
2.441,-0.34,-0.51,-0.69,-0.03,-0.00,0.92,
2.443,-0.34,-0.51,-0.69,-0.03,-0.00,0.92,
2.445,-0.34,-0.51,-0.69,-0.04,-0.00,0.93,
2.446,-0.41,-0.49,-0.59,-0.04,-0.00,0.93,
2.448,-0.41,-0.49,-0.59,-0.04,0.00,0.94,
2.451,-0.41,-0.49,-0.59,-0.05,0.01,0.95,
2.452,-0.50,-0.47,-0.46,-0.05,0.01,0.95,
2.453,-0.50,-0.47,-0.46,-0.05,0.01,0.95,
2.455,-0.50,-0.47,-0.46,-0.05,0.01,0.96,
2.456,-0.59,-0.40,-0.31,-0.05,0.01,0.96,
2.458,-0.59,-0.40,-0.31,-0.05,0.02,0.96,
2.46,-0.59,-0.40,-0.31,-0.05,0.03,0.97,
2.46,-0.63,-0.32,-0.18,-0.05,0.03,0.97,
2.463,-0.63,-0.32,-0.18,-0.05,0.03,0.97,
2.465,-0.63,-0.32,-0.18,-0.06,0.04,0.98,
2.465,-0.62,-0.20,-0.07,-0.06,0.04,0.98,
2.468,-0.62,-0.20,-0.07,-0.06,0.04,0.99,
2.47,-0.62,-0.20,-0.07,-0.07,0.04,0.99,
2.471,-0.64,-0.08,0.05,-0.07,0.04,0.99,
2.472,-0.64,-0.08,0.05,-0.07,0.05,0.99,
2.475,-0.64,-0.08,0.05,-0.07,0.05,0.99,
2.475,-0.71,0.00,0.14,-0.07,0.05,0.99,
2.477,-0.71,0.00,0.14,-0.08,0.05,1.00,
2.479,-0.71,0.00,0.14,-0.08,0.05,1.00,
2.48,-0.75,0.03,0.20,-0.08,0.05,1.00,
2.482,-0.75,0.03,0.20,-0.08,0.05,1.00,
2.489,-0.75,0.03,0.20,-0.08,0.05,0.99,
2.49,-0.82,0.05,0.22,-0.08,0.05,0.99,
2.49,-0.82,0.05,0.22,-0.09,0.05,1.00,
2.491,-0.82,0.05,0.22,-0.09,0.04,1.00,
2.491,-0.86,0.06,0.22,-0.09,0.04,1.00,
2.492,-0.86,0.06,0.22,-0.09,0.04,0.99,
2.494,-0.86,0.06,0.22,-0.09,0.04,0.99,
2.495,-0.87,0.03,0.22,-0.09,0.04,0.99,
2.497,-0.87,0.03,0.22,-0.08,0.04,0.99,
2.499,-0.86,0.01,0.18,-0.08,0.04,0.99,
2.499,-0.86,0.01,0.18,-0.08,0.04,0.99,
2.502,-0.86,0.01,0.18,-0.07,0.03,0.98,
2.504,-0.86,0.01,0.18,-0.07,0.03,0.98,
2.504,-0.80,-0.03,0.15,-0.07,0.03,0.98,
2.507,-0.80,-0.03,0.15,-0.07,0.03,0.98,
2.509,-0.80,-0.03,0.15,-0.07,0.02,0.97,
2.509,-0.73,-0.10,0.09,-0.07,0.02,0.97,
2.512,-0.73,-0.10,0.09,-0.08,0.02,0.97,
2.514,-0.73,-0.10,0.09,-0.08,0.01,0.97,
2.514,-0.71,-0.18,0.00,-0.08,0.01,0.97,
2.517,-0.71,-0.18,0.00,-0.08,0.01,0.96,
2.519,-0.71,-0.18,0.00,-0.08,0.01,0.96,
2.519,-0.77,-0.26,-0.06,-0.08,0.01,0.96,
2.521,-0.77,-0.26,-0.06,-0.08,0.01,0.96,
2.524,-0.77,-0.26,-0.06,-0.07,0.01,0.96,
2.524,-0.79,-0.32,-0.12,-0.07,0.01,0.96,
2.526,-0.79,-0.32,-0.12,-0.07,0.01,0.96,
2.529,-0.79,-0.32,-0.12,-0.06,0.02,0.95,
2.529,-0.76,-0.31,-0.15,-0.06,0.02,0.95,
2.531,-0.76,-0.31,-0.15,-0.06,0.02,0.95,
2.534,-0.76,-0.31,-0.15,-0.05,0.03,0.95,
2.534,-0.65,-0.25,-0.19,-0.05,0.03,0.95,
2.536,-0.65,-0.25,-0.19,-0.05,0.03,0.95,
2.539,-0.56,-0.16,-0.19,-0.05,0.03,0.95,
2.54,-0.56,-0.16,-0.19,-0.04,0.03,0.95,
2.541,-0.56,-0.16,-0.19,-0.04,0.04,0.96,
2.543,-0.56,-0.16,-0.19,-0.04,0.04,0.96,
2.546,-0.45,-0.09,-0.20,-0.04,0.04,0.96,
2.546,-0.45,-0.09,-0.20,-0.04,0.04,0.96,
2.548,-0.45,-0.09,-0.20,-0.04,0.04,0.96,
2.548,-0.40,-0.02,-0.16,-0.04,0.04,0.96,
2.551,-0.40,-0.02,-0.16,-0.04,0.05,0.97,
2.553,-0.40,-0.02,-0.16,-0.04,0.05,0.97,
2.553,-0.40,0.03,-0.11,-0.04,0.05,0.97,
2.555,-0.40,0.03,-0.11,-0.04,0.05,0.98,
2.558,-0.40,0.03,-0.11,-0.04,0.05,0.98,
2.558,-0.39,0.09,-0.02,-0.04,0.05,0.98,
2.56,-0.39,0.09,-0.02,-0.04,0.05,0.98,
2.563,-0.39,0.09,-0.02,-0.04,0.05,0.98,
2.564,-0.39,0.10,0.03,-0.04,0.05,0.98,
2.566,-0.39,0.10,0.03,-0.04,0.04,0.98,
2.568,-0.39,0.10,0.03,-0.05,0.03,0.98,
2.568,-0.39,0.09,0.07,-0.05,0.03,0.98,
2.571,-0.39,0.09,0.07,-0.05,0.03,0.99,
2.573,-0.39,0.09,0.07,-0.05,0.02,0.99,
2.573,-0.39,0.00,0.10,-0.05,0.02,0.99,
2.575,-0.39,0.00,0.10,-0.06,0.02,0.99,
2.578,-0.39,0.00,0.10,-0.06,0.01,0.99,
2.578,-0.43,-0.09,0.12,-0.06,0.01,0.99,
2.58,-0.43,-0.09,0.12,-0.06,0.01,0.99,
2.582,-0.43,-0.09,0.12,-0.06,0.01,0.99,
2.583,-0.50,-0.20,0.15,-0.06,0.01,0.99,
2.59,-0.50,-0.20,0.15,-0.06,0.00,0.99,
2.59,-0.50,-0.20,0.15,-0.06,-0.00,0.99,
2.59,-0.53,-0.28,0.15,-0.06,-0.00,0.99,
2.591,-0.53,-0.28,0.15,-0.06,-0.00,0.99,
2.592,-0.53,-0.28,0.15,-0.06,-0.00,0.99,
2.592,-0.53,-0.36,0.15,-0.06,-0.00,0.99,
2.595,-0.53,-0.36,0.15,-0.07,-0.00,0.99,
2.597,-0.53,-0.36,0.15,-0.06,-0.00,0.99,
2.598,-0.53,-0.39,0.16,-0.06,-0.00,0.99,
2.601,-0.53,-0.39,0.16,-0.06,0.00,0.99,
2.602,-0.53,-0.39,0.16,-0.06,0.01,0.99,
2.602,-0.52,-0.38,0.17,-0.06,0.01,0.99,
2.604,-0.52,-0.38,0.17,-0.06,0.01,0.99,
2.607,-0.52,-0.38,0.17,-0.06,0.02,0.99,
2.607,-0.49,-0.31,0.16,-0.06,0.02,0.99,
2.609,-0.49,-0.31,0.16,-0.06,0.02,0.99,
2.612,-0.49,-0.31,0.16,-0.07,0.03,0.99,
2.612,-0.46,-0.22,0.17,-0.07,0.03,0.99,
2.614,-0.46,-0.22,0.17,-0.07,0.03,0.99,
2.617,-0.46,-0.22,0.17,-0.08,0.04,0.99,
2.617,-0.53,-0.10,0.16,-0.08,0.04,0.99,
2.619,-0.53,-0.10,0.16,-0.08,0.04,0.99,
2.622,-0.53,-0.10,0.16,-0.09,0.05,0.99,
2.622,-0.62,-0.02,0.16,-0.09,0.05,0.99,
2.624,-0.62,-0.02,0.16,-0.09,0.06,0.99,
2.626,-0.62,-0.02,0.16,-0.09,0.06,0.99,
2.626,-0.70,0.09,0.15,-0.09,0.06,0.99,
2.629,-0.70,0.09,0.15,-0.09,0.07,0.99,
2.632,-0.70,0.09,0.15,-0.09,0.07,0.99,
2.632,-0.74,0.21,0.16,-0.09,0.07,0.99,
2.634,-0.74,0.21,0.16,-0.10,0.07,0.98,
2.636,-0.74,0.21,0.16,-0.10,0.07,0.98,
2.637,-0.77,0.32,0.12,-0.10,0.07,0.98,
2.639,-0.77,0.32,0.12,-0.11,0.07,0.98,
2.641,-0.77,0.32,0.12,-0.11,0.07,0.98,
2.641,-0.82,0.34,0.08,-0.11,0.07,0.98,
2.644,-0.82,0.34,0.08,-0.11,0.07,0.98,
2.646,-0.82,0.34,0.08,-0.11,0.06,0.98,
2.646,-0.92,0.34,0.06,-0.11,0.06,0.98,
2.649,-0.92,0.34,0.06,-0.11,0.06,0.98,
2.651,-0.92,0.34,0.06,-0.10,0.06,0.98,
2.652,-0.95,0.28,0.07,-0.10,0.06,0.98,
2.654,-0.95,0.28,0.07,-0.10,0.06,0.98,
2.656,-0.95,0.28,0.07,-0.10,0.05,0.98,
2.656,-0.90,0.23,0.05,-0.10,0.05,0.98,
2.658,-0.90,0.23,0.05,-0.10,0.05,0.97,
2.661,-0.90,0.23,0.05,-0.09,0.04,0.97,
2.661,-0.82,0.19,0.01,-0.09,0.04,0.97,
2.663,-0.82,0.19,0.01,-0.09,0.04,0.97,
2.668,-0.82,0.19,0.01,-0.09,0.03,0.97,
2.668,-0.77,0.11,-0.01,-0.09,0.03,0.97,
2.669,-0.77,0.11,-0.01,-0.08,0.03,0.97,
2.671,-0.77,0.11,-0.01,-0.07,0.02,0.97,
2.672,-0.71,0.02,-0.03,-0.07,0.02,0.97,
2.673,-0.71,0.02,-0.03,-0.07,0.02,0.97,
2.675,-0.71,0.02,-0.03,-0.07,0.02,0.97,
2.676,-0.60,-0.07,-0.05,-0.07,0.02,0.97,
2.678,-0.60,-0.07,-0.05,-0.06,0.02,0.97,
2.68,-0.60,-0.07,-0.05,-0.06,0.01,0.97,
2.681,-0.51,-0.12,-0.07,-0.06,0.01,0.97,
2.683,-0.51,-0.12,-0.07,-0.06,0.01,0.97,
2.686,-0.51,-0.12,-0.07,-0.06,0.01,0.97,
2.686,-0.45,-0.17,-0.07,-0.06,0.01,0.97,
2.688,-0.45,-0.17,-0.07,-0.06,0.02,0.97,
2.69,-0.45,-0.17,-0.07,-0.05,0.02,0.97,
2.69,-0.41,-0.18,-0.07,-0.05,0.02,0.97,
2.693,-0.41,-0.18,-0.07,-0.05,0.02,0.97,
2.695,-0.41,-0.18,-0.07,-0.05,0.03,0.97,
2.695,-0.37,-0.13,-0.06,-0.05,0.03,0.97,
2.697,-0.37,-0.13,-0.06,-0.05,0.03,0.97,
2.705,-0.37,-0.13,-0.06,-0.05,0.03,0.97,
2.706,-0.35,-0.08,-0.05,-0.05,0.03,0.97,
2.706,-0.35,-0.08,-0.05,-0.06,0.03,0.97,
2.707,-0.35,-0.08,-0.05,-0.06,0.03,0.97,
2.707,-0.36,-0.05,-0.05,-0.06,0.03,0.97,
2.709,-0.36,-0.05,-0.05,-0.07,0.03,0.97,
2.71,-0.36,-0.05,-0.05,-0.07,0.02,0.97,
2.71,-0.41,-0.06,-0.07,-0.07,0.02,0.97,
2.712,-0.41,-0.06,-0.07,-0.08,0.02,0.97,
2.715,-0.41,-0.06,-0.07,-0.08,0.02,0.97,
2.716,-0.51,-0.07,-0.07,-0.08,0.02,0.97,
2.718,-0.51,-0.07,-0.07,-0.08,0.02,0.97,
2.719,-0.51,-0.07,-0.07,-0.09,0.02,0.97,
2.72,-0.60,-0.08,-0.08,-0.09,0.02,0.97,
2.722,-0.60,-0.08,-0.08,-0.09,0.02,0.97,
2.724,-0.60,-0.08,-0.08,-0.09,0.02,0.97,
2.724,-0.64,-0.08,-0.08,-0.09,0.02,0.97,
2.727,-0.64,-0.08,-0.08,-0.09,0.02,0.97,
2.729,-0.64,-0.08,-0.08,-0.09,0.02,0.97,
2.729,-0.66,-0.07,-0.07,-0.09,0.02,0.97,
2.732,-0.66,-0.07,-0.07,-0.09,0.02,0.97,
2.734,-0.66,-0.07,-0.07,-0.09,0.02,0.97,
2.734,-0.67,-0.07,-0.05,-0.09,0.02,0.97,
2.737,-0.67,-0.07,-0.05,-0.09,0.02,0.98,
2.739,-0.67,-0.07,-0.05,-0.09,0.02,0.98,
2.739,-0.68,-0.07,-0.03,-0.09,0.02,0.98,
2.742,-0.68,-0.07,-0.03,-0.09,0.02,0.98,
2.744,-0.68,-0.07,-0.03,-0.09,0.02,0.98,
2.744,-0.66,-0.07,0.03,-0.09,0.02,0.98,
2.746,-0.66,-0.07,0.03,-0.09,0.03,0.98,
2.749,-0.66,-0.07,0.03,-0.09,0.03,0.98,
2.749,-0.64,-0.06,0.06,-0.09,0.03,0.98,
2.752,-0.64,-0.06,0.06,-0.10,0.03,0.98,
2.754,-0.64,-0.06,0.06,-0.10,0.03,0.99,
2.754,-0.65,-0.05,0.08,-0.10,0.03,0.99,
2.756,-0.65,-0.05,0.08,-0.11,0.03,0.99,
2.759,-0.65,-0.05,0.08,-0.10,0.03,0.99,
2.759,-0.69,-0.04,0.10,-0.10,0.03,0.99,
2.761,-0.69,-0.04,0.10,-0.10,0.03,0.99,
2.764,-0.69,-0.04,0.10,-0.10,0.03,0.99,
2.764,-0.72,-0.02,0.13,-0.10,0.03,0.99,
2.767,-0.72,-0.02,0.13,-0.10,0.04,0.99,
2.769,-0.72,-0.02,0.13,-0.10,0.04,0.99,
2.769,-0.69,0.02,0.16,-0.10,0.04,0.99,
2.771,-0.69,0.02,0.16,-0.10,0.04,0.99,
2.773,-0.69,0.02,0.16,-0.10,0.04,0.99,
2.774,-0.64,0.07,0.15,-0.10,0.04,0.99,
2.776,-0.64,0.07,0.15,-0.10,0.04,0.98,
2.778,-0.64,0.07,0.15,-0.10,0.04,0.98,
2.779,-0.62,0.09,0.11,-0.10,0.04,0.98,
2.781,-0.62,0.09,0.11,-0.10,0.04,0.98,
2.784,-0.62,0.09,0.11,-0.10,0.04,0.97,
2.784,-0.62,0.10,0.05,-0.10,0.04,0.97,
2.786,-0.62,0.10,0.05,-0.10,0.04,0.97,
2.788,-0.62,0.10,0.05,-0.10,0.04,0.96,
2.788,-0.65,0.11,-0.02,-0.10,0.04,0.96,
2.791,-0.65,0.11,-0.02,-0.10,0.04,0.96,
2.793,-0.65,0.11,-0.02,-0.10,0.04,0.96,
2.793,-0.65,0.11,-0.09,-0.10,0.04,0.96,
2.795,-0.65,0.11,-0.09,-0.10,0.04,0.95,
2.798,-0.65,0.11,-0.09,-0.10,0.04,0.95,
2.798,-0.67,0.11,-0.15,-0.10,0.04,0.95,
2.805,-0.67,0.11,-0.15,-0.10,0.05,0.95,
2.806,-0.67,0.11,-0.15,-0.10,0.05,0.94,
2.806,-0.67,0.11,-0.22,-0.10,0.05,0.94,
2.806,-0.67,0.11,-0.22,-0.10,0.05,0.94,
2.808,-0.67,0.11,-0.22,-0.10,0.04,0.94,
2.808,-0.65,0.13,-0.28,-0.10,0.04,0.94,
2.81,-0.65,0.13,-0.28,-0.10,0.05,0.95,
2.812,-0.65,0.13,-0.28,-0.10,0.05,0.95,
2.813,-0.62,0.13,-0.30,-0.10,0.05,0.95,
2.815,-0.62,0.13,-0.30,-0.10,0.05,0.95,
2.817,-0.62,0.13,-0.30,-0.10,0.05,0.95,
2.818,-0.62,0.14,-0.27,-0.10,0.05,0.95,
2.82,-0.62,0.14,-0.27,-0.10,0.05,0.96,
2.822,-0.62,0.14,-0.27,-0.10,0.05,0.96,
2.823,-0.60,0.14,-0.22,-0.10,0.05,0.96,
2.825,-0.60,0.14,-0.22,-0.09,0.05,0.97,
2.827,-0.60,0.14,-0.22,-0.09,0.05,0.97,
2.827,-0.58,0.16,-0.14,-0.09,0.05,0.97,
2.829,-0.58,0.16,-0.14,-0.09,0.05,0.97,
2.833,-0.58,0.16,-0.14,-0.10,0.05,0.98,
2.833,-0.52,0.17,-0.05,-0.10,0.05,0.98,
2.834,-0.52,0.17,-0.05,-0.10,0.05,0.98,
2.837,-0.52,0.17,-0.05,-0.09,0.05,0.99,
2.838,-0.52,0.17,0.03,-0.09,0.05,0.99,
2.84,-0.52,0.17,0.03,-0.09,0.05,0.99,
2.842,-0.52,0.17,0.03,-0.09,0.05,0.99,
2.842,-0.52,0.16,0.10,-0.09,0.05,0.99,
2.844,-0.52,0.16,0.10,-0.09,0.04,0.99,
2.847,-0.52,0.16,0.10,-0.10,0.04,0.99,
2.847,-0.49,0.16,0.16,-0.10,0.04,0.99,
2.85,-0.49,0.16,0.16,-0.10,0.04,1.00,
2.852,-0.49,0.16,0.16,-0.09,0.04,0.99,
2.852,-0.49,0.13,0.19,-0.09,0.04,0.99,
2.855,-0.49,0.13,0.19,-0.09,0.04,1.00,
2.857,-0.49,0.13,0.19,-0.09,0.04,0.99,
2.857,-0.50,0.13,0.21,-0.09,0.04,0.99,
2.859,-0.50,0.13,0.21,-0.09,0.04,0.99,
2.861,-0.50,0.13,0.21,-0.09,0.05,0.99,
2.862,-0.45,0.11,0.20,-0.09,0.05,0.99,
2.864,-0.45,0.11,0.20,-0.08,0.04,0.99,
2.867,-0.45,0.11,0.20,-0.08,0.04,0.99,
2.867,-0.41,0.14,0.16,-0.08,0.04,0.99,
2.869,-0.41,0.14,0.16,-0.08,0.04,0.98,
2.872,-0.41,0.14,0.16,-0.09,0.04,0.98,
2.872,-0.38,0.13,0.12,-0.09,0.04,0.98,
2.874,-0.38,0.13,0.12,-0.08,0.04,0.98,
2.876,-0.38,0.13,0.12,-0.09,0.04,0.97,
2.876,-0.37,0.13,0.08,-0.09,0.04,0.97,
2.879,-0.37,0.13,0.08,-0.08,0.04,0.97,
2.881,-0.37,0.13,0.08,-0.08,0.04,0.97,
2.882,-0.39,0.10,-0.01,-0.08,0.04,0.97,
2.889,-0.39,0.10,-0.01,-0.08,0.05,0.97,
2.889,-0.39,0.10,-0.01,-0.07,0.05,0.96,
2.89,-0.36,0.11,-0.04,-0.07,0.05,0.96,
2.89,-0.36,0.11,-0.04,-0.07,0.05,0.96,
2.891,-0.36,0.11,-0.04,-0.06,0.05,0.96,
2.891,-0.29,0.14,-0.09,-0.06,0.05,0.96,
2.893,-0.29,0.14,-0.09,-0.06,0.05,0.95,
2.896,-0.29,0.14,-0.09,-0.06,0.05,0.95,
2.896,-0.19,0.18,-0.15,-0.06,0.05,0.95,
2.899,-0.19,0.18,-0.15,-0.06,0.05,0.95,
2.905,-0.19,0.18,-0.15,-0.06,0.04,0.95,
2.906,-0.14,0.16,-0.20,-0.06,0.04,0.95,
2.906,-0.14,0.16,-0.20,-0.06,0.04,0.94,
2.906,-0.14,0.16,-0.20,-0.05,0.04,0.94,
2.906,-0.13,0.13,-0.26,-0.05,0.04,0.94,
2.908,-0.13,0.13,-0.26,-0.05,0.04,0.94,
2.91,-0.13,0.13,-0.26,-0.05,0.04,0.94,
2.911,-0.08,0.09,-0.31,-0.05,0.04,0.94,
2.913,-0.08,0.09,-0.31,-0.05,0.04,0.94,
2.916,-0.08,0.09,-0.31,-0.05,0.04,0.95,
2.917,-0.05,0.09,-0.29,-0.05,0.04,0.95,
2.918,-0.05,0.09,-0.29,-0.05,0.05,0.95,
2.92,-0.05,0.09,-0.29,-0.05,0.05,0.95,
2.921,-0.01,0.10,-0.27,-0.05,0.05,0.95,
2.923,-0.01,0.10,-0.27,-0.05,0.04,0.95,
2.925,-0.01,0.10,-0.27,-0.05,0.04,0.96,
2.925,-0.01,0.13,-0.25,-0.05,0.04,0.96,
2.927,-0.01,0.13,-0.25,-0.05,0.04,0.96,
2.93,-0.01,0.13,-0.25,-0.06,0.04,0.97,
2.93,-0.03,0.11,-0.17,-0.06,0.04,0.97,
2.933,-0.03,0.11,-0.17,-0.06,0.04,0.97,
2.935,-0.03,0.11,-0.17,-0.06,0.05,0.97,
2.935,-0.08,0.11,-0.08,-0.06,0.05,0.97,
2.938,-0.08,0.11,-0.08,-0.07,0.05,0.98,
2.94,-0.08,0.11,-0.08,-0.07,0.05,0.98,
2.94,-0.13,0.12,-0.01,-0.07,0.05,0.98,
2.942,-0.13,0.12,-0.01,-0.08,0.05,0.99,
2.945,-0.13,0.12,-0.01,-0.08,0.05,0.99,
2.945,-0.20,0.14,0.07,-0.08,0.05,0.99,
2.947,-0.20,0.14,0.07,-0.08,0.05,0.99,
2.95,-0.20,0.14,0.07,-0.08,0.05,0.99,
2.95,-0.25,0.18,0.15,-0.08,0.05,0.99,
2.952,-0.25,0.18,0.15,-0.08,0.05,0.95,
2.955,-0.25,0.18,0.15,-0.07,0.05,0.92,
2.955,-0.28,0.20,0.19,-0.07,0.05,0.92,
2.957,-0.28,0.20,0.19,-0.07,0.05,0.90,
2.959,-0.28,0.20,0.19,-0.06,0.06,0.90,
2.96,-0.20,0.19,-0.37,-0.06,0.06,0.90,
2.962,-0.20,0.19,-0.37,-0.06,0.06,0.90,
2.965,-0.20,0.19,-0.37,-0.07,0.05,0.90,
2.965,-0.10,0.23,-0.70,-0.07,0.05,0.90,
2.968,-0.10,0.23,-0.70,-0.06,0.05,0.89,
2.97,-0.10,0.23,-0.70,-0.06,0.05,0.89,
2.97,-0.10,0.24,-0.69,-0.06,0.05,0.89,
2.972,-0.10,0.24,-0.69,-0.05,0.04,0.89,
2.974,-0.10,0.24,-0.69,-0.05,0.04,0.90,
2.975,-0.05,0.18,-0.77,-0.05,0.04,0.90,
2.976,-0.05,0.18,-0.77,-0.05,0.03,0.92,
2.979,-0.05,0.18,-0.77,-0.04,0.03,0.94,
2.979,0.05,0.09,-0.70,-0.04,0.03,0.94,
2.981,0.05,0.09,-0.70,-0.04,0.02,0.96,
2.986,0.05,0.09,-0.70,-0.04,0.02,0.97,
2.986,0.11,0.03,-0.41,-0.04,0.02,0.97,
2.987,0.11,0.03,-0.41,-0.04,0.02,0.99,
2.989,0.11,0.03,-0.41,-0.04,0.02,1.01,
2.989,0.14,-0.02,-0.05,-0.04,0.02,1.01,
2.991,0.14,-0.02,-0.05,-0.04,0.01,1.03,
2.993,0.14,-0.02,-0.05,-0.03,0.01,1.04,
2.994,0.15,-0.05,0.31,-0.03,0.01,1.04,
2.996,0.15,-0.05,0.31,-0.03,0.01,1.05,
2.998,0.15,-0.05,0.31,-0.03,0.00,1.06,
2.999,0.21,-0.11,0.61,-0.03,0.00,1.06,
3.001,0.21,-0.11,0.61,-0.02,0.00,1.06,
3.003,0.21,-0.11,0.61,-0.02,0.01,1.06,
3.004,0.28,-0.16,0.80,-0.02,0.01,1.06,
3.006,0.28,-0.16,0.80,-0.02,0.00,1.06,
3.008,0.28,-0.16,0.80,-0.02,0.01,1.06,
3.009,0.34,-0.17,0.89,-0.02,0.01,1.06,
3.011,0.34,-0.17,0.89,-0.02,0.01,1.05,
3.013,0.34,-0.17,0.89,-0.02,0.01,1.05,
3.013,0.37,-0.16,0.84,-0.02,0.01,1.05,
3.016,0.37,-0.16,0.84,-0.02,0.01,1.05,
3.018,0.37,-0.16,0.84,-0.03,0.01,1.04,
3.019,0.35,-0.11,0.76,-0.03,0.01,1.04,
3.021,0.35,-0.11,0.76,-0.04,0.01,1.03,
3.023,0.35,-0.11,0.76,-0.04,0.02,1.03,
3.023,0.27,-0.09,0.67,-0.04,0.02,1.03,
3.026,0.27,-0.09,0.67,-0.04,0.02,1.02,
3.028,0.27,-0.09,0.67,-0.05,0.03,1.02,
3.028,0.17,-0.05,0.56,-0.05,0.03,1.02,
3.03,0.17,-0.05,0.56,-0.05,0.03,1.02,
