
time,ax,ay,az,gFx,gFy,gFz,
0.002,0.24,-0.13,0.14,0.01,0.13,0.98,
0.002,0.19,-0.15,0.08,0.01,0.13,0.98,
0.002,0.19,-0.15,0.08,0.01,0.13,0.98,
0.003,0.19,-0.15,0.08,0.01,0.13,0.98,
0.003,0.14,-0.12,0.06,0.01,0.13,0.98,
0.003,0.14,-0.12,0.06,0.00,0.14,0.98,
0.006,0.14,-0.12,0.06,-0.00,0.14,0.98,
0.006,0.07,-0.11,0.05,-0.00,0.14,0.98,
0.008,0.07,-0.11,0.05,-0.00,0.14,0.98,
0.01,0.07,-0.11,0.05,-0.01,0.14,0.98,
0.011,0.00,-0.07,0.06,-0.01,0.14,0.98,
0.013,0.00,-0.07,0.06,-0.01,0.14,0.98,
0.016,0.00,-0.07,0.06,-0.02,0.15,0.98,
0.016,-0.05,-0.06,0.06,-0.02,0.15,0.98,
0.018,-0.05,-0.06,0.06,-0.02,0.15,0.97,
0.02,-0.05,-0.06,0.06,-0.01,0.15,0.97,
0.021,-0.13,-0.01,0.03,-0.01,0.15,0.97,
0.023,-0.13,-0.01,0.03,-0.01,0.15,0.97,
0.025,-0.13,-0.01,0.03,-0.01,0.15,0.97,
0.025,-0.14,0.01,-0.01,-0.01,0.15,0.97,
0.028,-0.14,0.01,-0.01,-0.01,0.15,0.96,
0.03,-0.14,0.01,-0.01,-0.01,0.15,0.96,
0.031,-0.11,0.02,-0.06,-0.01,0.15,0.96,
0.033,-0.11,0.02,-0.06,-0.01,0.15,0.96,
0.035,-0.11,0.02,-0.06,-0.01,0.15,0.96,
0.035,-0.08,0.05,-0.13,-0.01,0.15,0.96,
0.037,-0.08,0.05,-0.13,-0.01,0.15,0.96,
0.04,-0.08,0.05,-0.13,-0.00,0.16,0.95,
0.04,-0.07,0.07,-0.17,-0.00,0.16,0.95,
0.042,-0.07,0.07,-0.17,-0.00,0.15,0.95,
0.048,-0.07,0.07,-0.17,-0.00,0.15,0.96,
0.048,-0.04,0.07,-0.18,-0.00,0.15,0.96,
0.049,-0.04,0.07,-0.18,-0.00,0.15,0.96,
0.051,-0.04,0.07,-0.18,-0.00,0.15,0.96,
0.051,-0.02,0.07,-0.18,-0.00,0.15,0.96,
0.052,-0.02,0.07,-0.18,-0.01,0.15,0.96,
0.055,-0.02,0.07,-0.18,-0.01,0.15,0.96,
0.055,-0.02,0.06,-0.16,-0.01,0.15,0.96,
0.057,-0.02,0.06,-0.16,-0.01,0.15,0.96,
0.06,-0.02,0.06,-0.16,-0.01,0.15,0.97,
0.06,-0.04,0.06,-0.13,-0.01,0.15,0.97,
0.062,-0.04,0.06,-0.13,-0.01,0.16,0.97,
0.064,-0.04,0.06,-0.13,-0.01,0.16,0.97,
0.065,-0.05,0.06,-0.09,-0.01,0.16,0.97,
0.067,-0.05,0.06,-0.09,-0.01,0.16,0.97,
0.069,-0.05,0.06,-0.09,-0.01,0.16,0.97,
0.069,-0.07,0.08,-0.04,-0.01,0.16,0.97,
0.071,-0.07,0.08,-0.04,-0.01,0.16,0.97,
0.074,-0.07,0.08,-0.04,-0.01,0.16,0.98,
0.074,-0.08,0.08,-0.01,-0.01,0.16,0.98,
0.076,-0.08,0.08,-0.01,-0.01,0.16,0.98,
0.079,-0.08,0.08,-0.01,-0.01,0.16,0.98,
0.08,-0.09,0.10,0.02,-0.01,0.16,0.98,
0.082,-0.09,0.10,0.02,-0.01,0.16,0.98,
0.085,-0.09,0.10,0.02,-0.01,0.16,0.98,
0.085,-0.07,0.10,0.04,-0.01,0.16,0.98,
0.086,-0.07,0.10,0.04,-0.01,0.16,0.98,
0.089,-0.07,0.10,0.04,-0.01,0.16,0.98,
0.089,-0.08,0.10,0.05,-0.01,0.16,0.98,
0.091,-0.08,0.10,0.05,-0.01,0.16,0.98,
0.094,-0.08,0.10,0.05,-0.00,0.16,0.98,
0.094,-0.07,0.10,0.06,-0.00,0.16,0.98,
0.096,-0.07,0.10,0.06,-0.00,0.16,0.98,
0.099,-0.07,0.10,0.06,-0.00,0.15,0.98,
0.099,-0.02,0.10,0.07,-0.00,0.15,0.98,
0.101,-0.02,0.10,0.07,-0.01,0.15,0.98,
0.104,-0.02,0.10,0.07,-0.00,0.15,0.98,
0.104,-0.00,0.08,0.07,-0.00,0.15,0.98,
0.106,-0.00,0.08,0.07,-0.00,0.15,0.98,
0.108,-0.00,0.08,0.07,-0.01,0.15,0.98,
0.109,-0.02,0.03,0.06,-0.01,0.15,0.98,
0.112,-0.02,0.03,0.06,-0.00,0.14,0.98,
0.114,-0.02,0.03,0.06,-0.00,0.15,0.98,
0.114,-0.02,-0.01,0.03,-0.00,0.15,0.98,
0.116,-0.02,-0.01,0.03,-0.00,0.15,0.98,
0.119,-0.02,-0.01,0.03,-0.00,0.15,0.98,
0.119,-0.00,-0.02,0.04,-0.00,0.15,0.98,
0.121,-0.00,-0.02,0.04,-0.00,0.15,0.98,
0.123,-0.00,-0.02,0.04,-0.01,0.15,0.98,
0.123,0.01,0.01,0.04,-0.01,0.15,0.98,
0.125,0.01,0.01,0.04,-0.01,0.15,0.98,
0.128,0.01,0.01,0.04,-0.01,0.16,0.98,
0.129,-0.02,0.04,0.06,-0.01,0.16,0.98,
0.131,-0.02,0.04,0.06,-0.01,0.16,0.99,
0.133,-0.02,0.04,0.06,-0.01,0.16,0.99,
0.133,-0.03,0.07,0.09,-0.01,0.16,0.99,
0.135,-0.03,0.07,0.09,-0.02,0.16,0.99,
0.138,-0.03,0.07,0.09,-0.02,0.15,0.99,
0.138,-0.08,0.09,0.13,-0.02,0.15,0.99,
0.14,-0.08,0.09,0.13,-0.02,0.16,0.99,
0.143,-0.08,0.09,0.13,-0.02,0.16,1.00,
0.143,-0.14,0.08,0.15,-0.02,0.16,1.00,
0.152,-0.14,0.08,0.15,-0.02,0.16,1.00,
0.152,-0.14,0.08,0.15,-0.02,0.16,1.00,
0.153,-0.16,0.10,0.20,-0.02,0.16,1.00,
0.153,-0.16,0.10,0.20,-0.02,0.16,1.00,
0.153,-0.16,0.10,0.20,-0.02,0.16,1.00,
0.153,-0.18,0.09,0.24,-0.02,0.16,1.00,
0.155,-0.18,0.09,0.24,-0.02,0.16,1.00,
0.158,-0.18,0.09,0.24,-0.02,0.16,1.00,
0.158,-0.14,0.11,0.24,-0.02,0.16,1.00,
0.16,-0.14,0.11,0.24,-0.02,0.16,1.00,
0.163,-0.14,0.11,0.24,-0.01,0.16,0.99,
0.164,-0.12,0.11,0.23,-0.01,0.16,0.99,
0.165,-0.12,0.11,0.23,-0.01,0.16,0.99,
0.167,-0.12,0.11,0.23,-0.01,0.16,0.99,
0.167,-0.10,0.09,0.21,-0.01,0.16,0.99,
0.17,-0.10,0.09,0.21,-0.01,0.16,0.99,
0.172,-0.10,0.09,0.21,-0.01,0.15,0.98,
0.172,-0.07,0.08,0.16,-0.01,0.15,0.98,
0.174,-0.07,0.08,0.16,-0.01,0.15,0.98,
0.178,-0.07,0.08,0.16,-0.01,0.15,0.98,
0.178,-0.07,0.05,0.11,-0.01,0.15,0.98,
0.18,-0.07,0.05,0.11,-0.01,0.15,0.98,
0.182,-0.07,0.05,0.11,-0.01,0.15,0.97,
0.182,-0.04,0.04,0.05,-0.01,0.15,0.97,
0.184,-0.04,0.04,0.05,-0.01,0.15,0.97,
0.187,-0.04,0.04,0.05,-0.01,0.15,0.97,
0.187,-0.04,0.04,0.01,-0.01,0.15,0.97,
0.189,-0.04,0.04,0.01,-0.00,0.15,0.97,
0.192,-0.04,0.04,0.01,-0.00,0.15,0.97,
0.192,-0.03,0.04,-0.01,-0.00,0.15,0.97,
0.195,-0.03,0.04,-0.01,-0.00,0.15,0.97,
0.197,-0.03,0.04,-0.01,-0.00,0.15,0.97,
0.197,0.01,0.02,-0.02,-0.00,0.15,0.97,
0.199,0.01,0.02,-0.02,-0.00,0.15,0.97,
0.202,0.01,0.02,-0.02,-0.01,0.15,0.97,
0.202,0.01,0.01,-0.03,-0.01,0.15,0.97,
0.204,0.01,0.01,-0.03,-0.01,0.15,0.98,
0.206,0.01,0.01,-0.03,-0.01,0.15,0.98,
0.206,0.00,0.01,-0.00,-0.01,0.15,0.98,
0.209,0.00,0.01,-0.00,-0.01,0.15,0.98,
0.212,0.00,0.01,-0.00,-0.01,0.15,0.98,
0.212,-0.03,-0.02,0.02,-0.01,0.15,0.98,
0.214,-0.03,-0.02,0.02,-0.01,0.15,0.98,
0.216,-0.03,-0.02,0.02,-0.01,0.15,0.98,
0.216,-0.08,-0.02,0.03,-0.01,0.15,0.98,
0.218,-0.08,-0.02,0.03,-0.01,0.15,0.98,
0.221,-0.08,-0.02,0.03,-0.01,0.15,0.98,
0.221,-0.08,-0.01,0.02,-0.01,0.15,0.98,
0.223,-0.08,-0.01,0.02,-0.01,0.15,0.97,
0.226,-0.08,-0.01,0.02,-0.01,0.15,0.97,
0.227,-0.10,-0.01,0.01,-0.01,0.15,0.97,
0.229,-0.10,-0.01,0.01,-0.02,0.15,0.97,
0.232,-0.10,-0.01,-0.01,-0.02,0.15,0.97,
0.232,-0.10,-0.01,-0.01,-0.01,0.15,0.97,
0.233,-0.10,-0.01,-0.01,-0.02,0.15,0.97,
0.236,-0.10,-0.01,-0.01,-0.02,0.15,0.97,
0.237,-0.11,0.00,-0.02,-0.02,0.15,0.97,
0.238,-0.11,0.00,-0.02,-0.02,0.15,0.97,
0.241,-0.11,0.00,-0.02,-0.01,0.15,0.97,
0.241,-0.12,0.01,-0.02,-0.01,0.15,0.97,
0.243,-0.12,0.01,-0.02,-0.01,0.15,0.97,
0.248,-0.12,0.01,-0.02,-0.01,0.15,0.97,
0.248,-0.10,0.01,-0.02,-0.01,0.15,0.97,
0.248,-0.10,0.01,-0.02,-0.01,0.15,0.97,
0.25,-0.10,0.01,-0.02,-0.01,0.15,0.97,
0.251,-0.08,0.00,-0.03,-0.01,0.15,0.97,
0.253,-0.08,0.00,-0.03,-0.01,0.15,0.97,
0.256,-0.08,0.00,-0.03,-0.00,0.15,0.96,
0.256,-0.03,0.01,-0.06,-0.00,0.15,0.96,
0.257,-0.03,0.01,-0.06,-0.00,0.15,0.96,
0.26,-0.03,0.01,-0.06,-0.00,0.15,0.96,
0.26,0.00,0.01,-0.09,-0.00,0.15,0.96,
0.263,0.00,0.01,-0.09,-0.00,0.15,0.96,
0.265,0.00,0.01,-0.09,0.00,0.15,0.96,
0.265,0.01,-0.01,-0.10,0.00,0.15,0.96,
0.268,0.01,-0.01,-0.10,0.00,0.15,0.96,
0.27,0.01,-0.01,-0.10,0.00,0.15,0.96,
0.27,0.05,-0.04,-0.12,0.00,0.15,0.96,
0.272,0.05,-0.04,-0.12,0.01,0.15,0.95,
0.275,0.05,-0.04,-0.12,0.01,0.15,0.95,
0.275,0.07,-0.04,-0.15,0.01,0.15,0.95,
0.277,0.07,-0.04,-0.15,0.01,0.15,0.95,
0.28,0.07,-0.04,-0.15,0.00,0.15,0.95,
0.28,0.09,-0.03,-0.19,0.00,0.15,0.95,
0.282,0.09,-0.03,-0.19,0.00,0.15,0.95,
0.285,0.09,-0.03,-0.19,0.00,0.15,0.95,
0.285,0.09,-0.01,-0.19,0.00,0.15,0.95,
0.287,0.09,-0.01,-0.19,-0.00,0.15,0.95,
0.29,0.09,-0.01,-0.19,-0.01,0.15,0.95,
0.29,0.04,-0.02,-0.19,-0.01,0.15,0.95,
0.292,0.04,-0.02,-0.19,-0.01,0.15,0.96,
0.295,0.04,-0.02,-0.19,-0.01,0.15,0.96,
0.295,0.00,-0.00,-0.18,-0.01,0.15,0.96,
0.297,0.00,-0.00,-0.18,-0.01,0.15,0.96,
0.299,0.00,-0.00,-0.18,-0.01,0.15,0.96,
0.3,-0.02,0.01,-0.16,-0.01,0.15,0.96,
0.302,-0.02,0.01,-0.16,-0.01,0.15,0.96,
0.304,-0.02,0.01,-0.16,-0.02,0.16,0.96,
0.305,-0.05,0.01,-0.16,-0.02,0.16,0.96,
0.307,-0.05,0.01,-0.16,-0.02,0.15,0.97,
0.309,-0.05,0.01,-0.16,-0.02,0.15,0.97,
0.309,-0.11,0.02,-0.12,-0.02,0.15,0.97,
0.312,-0.11,0.02,-0.12,-0.02,0.15,0.97,
0.314,-0.11,0.02,-0.12,-0.02,0.15,0.97,
0.315,-0.15,0.01,-0.06,-0.02,0.15,0.97,
0.317,-0.15,0.01,-0.06,-0.02,0.15,0.97,
0.319,-0.15,0.01,-0.06,-0.02,0.15,0.97,
0.319,-0.17,0.00,-0.04,-0.02,0.15,0.97,
0.321,-0.17,0.00,-0.04,-0.02,0.15,0.97,
0.324,-0.17,0.00,-0.04,-0.02,0.15,0.97,
0.324,-0.17,0.01,-0.01,-0.02,0.15,0.97,
0.326,-0.17,0.01,-0.01,-0.02,0.15,0.97,
0.335,-0.17,0.01,-0.01,-0.02,0.15,0.97,
0.335,-0.16,-0.01,-0.00,-0.02,0.15,0.97,
0.335,-0.16,-0.01,-0.00,-0.02,0.15,0.97,
0.336,-0.16,-0.01,-0.00,-0.02,0.15,0.97,
0.336,-0.15,-0.06,-0.00,-0.02,0.15,0.97,
0.336,-0.15,-0.06,-0.00,-0.02,0.14,0.97,
0.339,-0.15,-0.06,-0.00,-0.01,0.14,0.97,
0.339,-0.10,-0.08,-0.00,-0.01,0.14,0.97,
0.341,-0.10,-0.08,-0.00,-0.01,0.14,0.97,
0.344,-0.10,-0.08,-0.00,-0.01,0.14,0.97,
0.344,-0.08,-0.10,-0.02,-0.01,0.14,0.97,
0.346,-0.08,-0.10,-0.02,-0.01,0.14,0.97,
0.348,-0.08,-0.10,-0.02,-0.01,0.14,0.97,
0.349,-0.05,-0.12,-0.03,-0.01,0.14,0.97,
0.351,-0.05,-0.12,-0.03,-0.01,0.14,0.97,
0.353,-0.05,-0.12,-0.03,-0.01,0.14,0.97,
0.353,-0.03,-0.14,-0.03,-0.01,0.14,0.97,
0.355,-0.03,-0.14,-0.03,-0.00,0.14,0.97,
0.358,-0.03,-0.14,-0.03,-0.00,0.14,0.97,
0.359,-0.02,-0.18,-0.04,-0.00,0.14,0.97,
0.361,-0.02,-0.18,-0.04,-0.00,0.14,0.96,
0.363,-0.02,-0.18,-0.04,0.00,0.14,0.96,
0.363,0.03,-0.16,-0.05,0.00,0.14,0.96,
0.365,0.03,-0.16,-0.05,-0.00,0.14,0.96,
0.368,0.03,-0.16,-0.05,-0.01,0.14,0.96,
0.368,0.04,-0.15,-0.08,-0.01,0.14,0.96,
0.37,0.04,-0.15,-0.08,-0.01,0.14,0.96,
0.373,0.04,-0.15,-0.08,-0.01,0.14,0.96,
0.373,0.00,-0.13,-0.11,-0.01,0.14,0.96,
0.375,0.00,-0.13,-0.11,-0.02,0.14,0.96,
0.378,0.00,-0.13,-0.11,-0.02,0.15,0.96,
0.379,-0.08,-0.10,-0.13,-0.02,0.15,0.96,
0.38,-0.08,-0.10,-0.13,-0.03,0.15,0.96,
0.383,-0.08,-0.10,-0.13,-0.03,0.15,0.96,
0.384,-0.17,-0.08,-0.14,-0.03,0.15,0.96,
0.385,-0.17,-0.08,-0.14,-0.04,0.16,0.96,
0.387,-0.17,-0.08,-0.14,-0.05,0.16,0.96,
0.388,-0.25,-0.01,-0.16,-0.05,0.16,0.96,
0.39,-0.25,-0.01,-0.16,-0.05,0.16,0.96,
0.393,-0.25,-0.01,-0.16,-0.05,0.17,0.96,
0.393,-0.37,0.04,-0.12,-0.05,0.17,0.96,
0.395,-0.37,0.04,-0.12,-0.06,0.17,0.96,
0.397,-0.37,0.04,-0.12,-0.07,0.17,0.97,
0.398,-0.46,0.10,-0.10,-0.07,0.17,0.97,
0.4,-0.46,0.10,-0.10,-0.07,0.17,0.97,
0.402,-0.46,0.10,-0.10,-0.07,0.17,0.97,
0.402,-0.55,0.15,-0.06,-0.07,0.17,0.97,
0.404,-0.55,0.15,-0.06,-0.08,0.17,0.97,
0.407,-0.55,0.15,-0.06,-0.08,0.17,0.98,
0.407,-0.63,0.16,-0.02,-0.08,0.17,0.98,
0.41,-0.63,0.16,-0.02,-0.08,0.17,0.98,
0.412,-0.63,0.16,-0.02,-0.08,0.18,0.98,
0.412,-0.67,0.17,0.04,-0.08,0.18,0.98,
0.414,-0.67,0.17,0.04,-0.08,0.17,0.98,
0.417,-0.67,0.17,0.04,-0.09,0.17,0.98,
0.417,-0.69,0.19,0.08,-0.09,0.17,0.98,
0.419,-0.69,0.19,0.08,-0.09,0.17,0.99,
0.422,-0.69,0.19,0.08,-0.09,0.17,0.99,
0.422,-0.73,0.17,0.11,-0.09,0.17,0.99,
0.424,-0.73,0.17,0.11,-0.09,0.17,0.99,
0.431,-0.73,0.17,0.11,-0.09,0.17,0.99,
0.431,-0.73,0.18,0.16,-0.09,0.17,0.99,
0.431,-0.73,0.18,0.16,-0.09,0.17,0.99,
0.432,-0.73,0.18,0.16,-0.09,0.17,0.99,
0.432,-0.74,0.17,0.18,-0.09,0.17,0.99,
0.434,-0.74,0.17,0.18,-0.09,0.16,0.99,
0.436,-0.74,0.17,0.18,-0.09,0.16,0.99,
0.437,-0.75,0.14,0.19,-0.09,0.16,0.99,
0.439,-0.75,0.14,0.19,-0.09,0.16,0.99,
0.442,-0.75,0.14,0.19,-0.09,0.16,0.99,
0.442,-0.74,0.08,0.18,-0.09,0.16,0.99,
0.444,-0.74,0.08,0.18,-0.08,0.15,0.98,
0.447,-0.74,0.08,0.18,-0.08,0.15,0.98,
0.447,-0.73,0.03,0.15,-0.08,0.15,0.98,
0.449,-0.73,0.03,0.15,-0.08,0.15,0.98,
0.451,-0.73,0.03,0.15,-0.08,0.15,0.97,
0.451,-0.71,-0.02,0.07,-0.08,0.15,0.97,
0.453,-0.71,-0.02,0.07,-0.08,0.15,0.97,
0.456,-0.71,-0.02,0.07,-0.08,0.15,0.97,
0.456,-0.68,-0.02,0.03,-0.08,0.15,0.97,
0.458,-0.68,-0.02,0.03,-0.08,0.15,0.97,
0.461,-0.68,-0.02,0.03,-0.08,0.15,0.97,
0.461,-0.68,-0.03,-0.02,-0.08,0.15,0.97,
0.463,-0.68,-0.03,-0.02,-0.08,0.15,0.97,
0.466,-0.68,-0.03,-0.02,-0.08,0.15,0.97,
0.466,-0.72,-0.05,-0.05,-0.08,0.15,0.97,
0.468,-0.72,-0.05,-0.05,-0.09,0.15,0.97,
0.471,-0.72,-0.06,-0.04,-0.09,0.15,0.97,
0.471,-0.72,-0.06,-0.04,-0.09,0.15,0.97,
0.473,-0.72,-0.06,-0.04,-0.08,0.15,0.97,
0.476,-0.72,-0.06,-0.04,-0.08,0.15,0.97,
0.476,-0.74,-0.07,-0.04,-0.08,0.15,0.97,
0.478,-0.74,-0.07,-0.04,-0.08,0.15,0.97,
0.481,-0.74,-0.07,-0.04,-0.08,0.15,0.97,
0.481,-0.71,-0.07,-0.03,-0.08,0.15,0.97,
0.483,-0.71,-0.07,-0.03,-0.08,0.15,0.97,
0.485,-0.71,-0.07,-0.03,-0.08,0.15,0.97,
0.486,-0.71,-0.07,-0.01,-0.08,0.15,0.97,
0.488,-0.71,-0.07,-0.01,-0.08,0.15,0.97,
0.491,-0.71,-0.07,-0.01,-0.08,0.15,0.97,
0.491,-0.69,-0.04,-0.00,-0.08,0.15,0.97,
0.493,-0.69,-0.04,-0.00,-0.08,0.15,0.97,
0.496,-0.69,-0.04,-0.00,-0.09,0.15,0.97,
0.496,-0.68,-0.04,0.01,-0.09,0.15,0.97,
0.498,-0.68,-0.04,0.01,-0.09,0.15,0.97,
0.5,-0.68,-0.04,0.01,-0.09,0.15,0.97,
0.501,-0.71,-0.04,-0.00,-0.09,0.15,0.97,
0.502,-0.71,-0.04,-0.00,-0.09,0.15,0.97,
0.505,-0.71,-0.04,-0.00,-0.09,0.15,0.97,
0.505,-0.74,-0.04,-0.03,-0.09,0.15,0.97,
0.507,-0.74,-0.04,-0.03,-0.10,0.15,0.97,
0.51,-0.74,-0.04,-0.03,-0.10,0.15,0.96,
0.511,-0.78,-0.04,-0.04,-0.10,0.15,0.96,
0.513,-0.78,-0.04,-0.04,-0.10,0.15,0.96,
0.515,-0.78,-0.04,-0.04,-0.10,0.15,0.96,
0.515,-0.80,-0.05,-0.07,-0.10,0.15,0.96,
0.517,-0.80,-0.05,-0.07,-0.11,0.15,0.96,
0.52,-0.80,-0.05,-0.07,-0.11,0.15,0.95,
0.52,-0.84,-0.09,-0.13,-0.11,0.15,0.95,
0.522,-0.84,-0.09,-0.13,-0.11,0.14,0.95,
0.525,-0.84,-0.09,-0.13,-0.11,0.14,0.94,
0.525,-0.88,-0.11,-0.18,-0.11,0.14,0.94,
0.527,-0.88,-0.11,-0.18,-0.11,0.14,0.94,
0.53,-0.88,-0.11,-0.18,-0.11,0.14,0.94,
0.53,-0.90,-0.14,-0.25,-0.11,0.14,0.94,
0.532,-0.90,-0.14,-0.25,-0.11,0.14,0.94,
0.534,-0.90,-0.14,-0.25,-0.12,0.14,0.93,
0.535,-0.91,-0.16,-0.30,-0.12,0.14,0.93,
0.537,-0.91,-0.16,-0.30,-0.12,0.14,0.93,
0.539,-0.91,-0.16,-0.30,-0.12,0.14,0.93,
0.539,-0.92,-0.16,-0.36,-0.12,0.14,0.93,
0.542,-0.92,-0.16,-0.36,-0.12,0.14,0.93,
0.548,-0.92,-0.16,-0.36,-0.12,0.13,0.93,
0.548,-0.91,-0.20,-0.38,-0.12,0.13,0.93,
0.548,-0.91,-0.20,-0.38,-0.12,0.13,0.94,
0.549,-0.91,-0.20,-0.38,-0.12,0.13,0.94,
0.55,-0.90,-0.23,-0.36,-0.12,0.13,0.94,
0.551,-0.90,-0.23,-0.36,-0.12,0.13,0.94,
0.554,-0.90,-0.23,-0.36,-0.12,0.13,0.94,
0.554,-0.91,-0.25,-0.32,-0.12,0.13,0.94,
0.556,-0.91,-0.25,-0.32,-0.12,0.13,0.94,
0.559,-0.91,-0.25,-0.32,-0.12,0.13,0.95,
0.559,-0.87,-0.27,-0.29,-0.12,0.13,0.95,
0.561,-0.87,-0.27,-0.29,-0.12,0.13,0.95,
0.564,-0.87,-0.27,-0.29,-0.12,0.13,0.96,
0.564,-0.88,-0.29,-0.23,-0.12,0.13,0.96,
0.566,-0.88,-0.29,-0.23,-0.12,0.13,0.96,
0.569,-0.88,-0.29,-0.23,-0.12,0.13,0.97,
0.569,-0.87,-0.27,-0.15,-0.12,0.13,0.97,
0.571,-0.87,-0.27,-0.15,-0.13,0.13,0.97,
0.573,-0.87,-0.27,-0.15,-0.13,0.13,0.98,
0.574,-0.87,-0.26,-0.04,-0.13,0.13,0.98,
0.577,-0.87,-0.26,-0.04,-0.14,0.13,0.98,
0.579,-0.87,-0.26,-0.04,-0.14,0.12,0.99,
0.579,-0.94,-0.30,0.08,-0.14,0.12,0.99,
0.581,-0.94,-0.30,0.08,-0.14,0.12,0.99,
0.584,-0.94,-0.30,0.08,-0.14,0.12,0.99,
0.584,-0.99,-0.34,0.16,-0.14,0.12,0.99,
0.586,-0.99,-0.34,0.16,-0.14,0.12,1.00,
0.588,-0.99,-0.34,0.16,-0.14,0.12,1.00,
0.589,-1.01,-0.38,0.23,-0.14,0.12,1.00,
0.591,-1.01,-0.38,0.23,-0.14,0.12,1.00,
0.595,-1.01,-0.38,0.23,-0.14,0.13,1.00,
0.595,-1.01,-0.38,0.28,-0.14,0.13,1.00,
0.595,-1.01,-0.38,0.28,-0.14,0.13,1.00,
0.599,-1.01,-0.38,0.28,-0.14,0.12,1.00,
0.599,-0.98,-0.33,0.31,-0.14,0.12,1.00,
0.6,-0.98,-0.33,0.31,-0.14,0.12,1.00,
0.603,-0.98,-0.33,0.31,-0.14,0.12,0.99,
0.603,-0.93,-0.34,0.30,-0.14,0.12,0.99,
0.605,-0.93,-0.34,0.30,-0.14,0.12,0.99,
0.609,-0.92,-0.36,0.26,-0.14,0.12,0.99,
0.609,-0.92,-0.36,0.26,-0.13,0.12,0.98,
0.611,-0.92,-0.36,0.26,-0.13,0.11,0.98,
0.613,-0.92,-0.36,0.26,-0.13,0.11,0.98,
0.613,-0.86,-0.43,0.18,-0.13,0.11,0.98,
0.616,-0.86,-0.43,0.18,-0.13,0.11,0.98,
0.618,-0.86,-0.43,0.18,-0.12,0.11,0.97,
0.618,-0.79,-0.48,0.11,-0.12,0.11,0.97,
0.62,-0.79,-0.48,0.11,-0.12,0.10,0.97,
0.623,-0.79,-0.48,0.11,-0.12,0.10,0.97,
0.623,-0.75,-0.52,0.05,-0.12,0.10,0.97,
0.625,-0.75,-0.52,0.05,-0.12,0.10,0.96,
0.628,-0.75,-0.52,0.05,-0.12,0.09,0.96,
0.628,-0.69,-0.58,-0.01,-0.12,0.09,0.96,
0.63,-0.69,-0.58,-0.01,-0.12,0.09,0.96,
0.633,-0.69,-0.58,-0.01,-0.12,0.08,0.95,
0.633,-0.67,-0.66,-0.07,-0.12,0.08,0.95,
0.635,-0.67,-0.66,-0.07,-0.11,0.08,0.95,
0.637,-0.67,-0.66,-0.07,-0.11,0.08,0.95,
0.638,-0.63,-0.74,-0.14,-0.11,0.08,0.95,
0.64,-0.63,-0.74,-0.14,-0.11,0.07,0.94,
0.642,-0.63,-0.74,-0.14,-0.11,0.07,0.94,
0.643,-0.60,-0.82,-0.19,-0.11,0.07,0.94,
0.65,-0.60,-0.82,-0.19,-0.11,0.07,0.94,
0.651,-0.60,-0.82,-0.19,-0.11,0.07,0.94,
0.651,-0.55,-0.87,-0.26,-0.11,0.07,0.94,
0.651,-0.55,-0.87,-0.26,-0.10,0.06,0.93,
0.652,-0.55,-0.87,-0.26,-0.10,0.06,0.93,
0.652,-0.50,-0.93,-0.29,-0.10,0.06,0.93,
0.654,-0.50,-0.93,-0.29,-0.10,0.06,0.93,
0.657,-0.50,-0.93,-0.29,-0.10,0.06,0.93,
0.657,-0.44,-0.96,-0.33,-0.10,0.06,0.93,
0.666,-0.44,-0.96,-0.33,-0.10,0.06,0.93,
0.667,-0.44,-0.96,-0.33,-0.10,0.06,0.93,
0.667,-0.42,-0.98,-0.34,-0.10,0.06,0.93,
0.667,-0.42,-0.98,-0.34,-0.10,0.06,0.93,
0.667,-0.42,-0.98,-0.34,-0.11,0.06,0.93,
0.667,-0.43,-0.98,-0.36,-0.11,0.06,0.93,
0.669,-0.43,-0.98,-0.36,-0.11,0.06,0.93,
0.672,-0.43,-0.98,-0.36,-0.11,0.06,0.92,
0.672,-0.44,-0.98,-0.38,-0.11,0.06,0.92,
0.674,-0.44,-0.98,-0.38,-0.11,0.06,0.92,
0.676,-0.44,-0.98,-0.38,-0.11,0.07,0.92,
0.677,-0.48,-0.95,-0.38,-0.11,0.07,0.92,
0.679,-0.48,-0.95,-0.38,-0.11,0.07,0.92,
0.681,-0.48,-0.95,-0.38,-0.11,0.07,0.92,
0.681,-0.50,-0.94,-0.42,-0.11,0.07,0.92,
0.684,-0.50,-0.94,-0.42,-0.10,0.08,0.92,
0.686,-0.50,-0.94,-0.42,-0.10,0.08,0.92,
0.686,-0.46,-0.91,-0.45,-0.10,0.08,0.92,
0.688,-0.46,-0.91,-0.45,-0.09,0.08,0.91,
0.691,-0.46,-0.91,-0.45,-0.08,0.09,0.91,
0.691,-0.36,-0.81,-0.46,-0.08,0.09,0.91,
0.693,-0.36,-0.81,-0.46,-0.08,0.09,0.91,
0.696,-0.36,-0.81,-0.46,-0.07,0.09,0.91,
0.697,-0.24,-0.72,-0.49,-0.07,0.09,0.91,
0.699,-0.24,-0.72,-0.49,-0.06,0.10,0.91,
0.701,-0.24,-0.72,-0.49,-0.06,0.10,0.91,
0.701,-0.11,-0.66,-0.52,-0.06,0.10,0.91,
0.703,-0.11,-0.66,-0.52,-0.06,0.10,0.90,
0.706,-0.11,-0.66,-0.52,-0.06,0.10,0.90,
0.706,0.02,-0.60,-0.55,-0.06,0.10,0.90,
0.708,0.02,-0.60,-0.55,-0.06,0.10,0.90,
0.711,0.02,-0.60,-0.55,-0.06,0.09,0.90,
0.711,0.06,-0.59,-0.58,-0.06,0.09,0.90,
0.713,0.06,-0.59,-0.58,-0.06,0.09,0.89,
0.716,0.06,-0.59,-0.58,-0.06,0.09,0.89,
0.716,0.07,-0.63,-0.61,-0.06,0.09,0.89,
0.718,0.07,-0.63,-0.61,-0.06,0.09,0.89,
0.721,0.07,-0.63,-0.61,-0.06,0.08,0.88,
0.721,0.06,-0.66,-0.66,-0.06,0.08,0.88,
0.723,0.06,-0.66,-0.66,-0.06,0.08,0.88,
0.732,0.06,-0.66,-0.66,-0.06,0.08,0.88,
0.735,0.06,-0.72,-0.72,-0.06,0.08,0.88,
0.735,0.06,-0.72,-0.72,-0.06,0.08,0.88,
0.736,0.06,-0.72,-0.72,-0.06,0.08,0.88,
0.736,0.01,-0.76,-0.78,-0.06,0.08,0.88,
0.736,0.01,-0.76,-0.78,-0.06,0.08,0.88,
0.736,0.01,-0.76,-0.78,-0.06,0.08,0.88,
0.736,0.03,-0.77,-0.81,-0.06,0.08,0.88,
0.737,0.03,-0.77,-0.81,-0.06,0.08,0.88,
0.74,0.03,-0.77,-0.81,-0.06,0.08,0.88,
0.74,0.04,-0.76,-0.80,-0.06,0.08,0.88,
0.743,0.04,-0.76,-0.80,-0.06,0.08,0.88,
0.745,0.04,-0.76,-0.80,-0.06,0.08,0.89,
0.745,0.07,-0.76,-0.75,-0.06,0.08,0.89,
0.747,0.07,-0.76,-0.75,-0.05,0.08,0.89,
0.75,0.07,-0.76,-0.75,-0.05,0.08,0.89,
0.75,0.07,-0.76,-0.70,-0.05,0.08,0.89,
0.752,0.07,-0.76,-0.70,-0.05,0.08,0.90,
0.755,0.07,-0.76,-0.70,-0.05,0.08,0.90,
0.755,0.10,-0.76,-0.62,-0.05,0.08,0.90,
0.757,0.10,-0.76,-0.62,-0.05,0.08,0.91,
0.759,0.10,-0.76,-0.62,-0.04,0.08,0.92,
0.76,0.13,-0.73,-0.52,-0.04,0.08,0.92,
0.762,0.13,-0.73,-0.52,-0.04,0.09,0.92,
0.765,0.13,-0.73,-0.52,-0.04,0.09,0.92,
0.765,0.20,-0.68,-0.41,-0.04,0.09,0.92,
0.767,0.20,-0.68,-0.41,-0.03,0.09,0.93,
0.77,0.20,-0.68,-0.41,-0.03,0.09,0.93,
0.77,0.26,-0.63,-0.31,-0.03,0.09,0.93,
0.772,0.26,-0.63,-0.31,-0.03,0.09,0.93,
0.774,0.26,-0.63,-0.31,-0.03,0.09,0.93,
0.775,0.31,-0.61,-0.23,-0.03,0.09,0.93,
0.777,0.31,-0.61,-0.23,-0.03,0.08,0.93,
0.779,0.31,-0.61,-0.23,-0.03,0.08,0.93,
0.779,0.33,-0.62,-0.20,-0.03,0.08,0.93,
0.781,0.33,-0.62,-0.20,-0.03,0.08,0.93,
0.784,0.33,-0.62,-0.20,-0.03,0.08,0.93,
0.784,0.33,-0.65,-0.20,-0.03,0.08,0.93,
0.787,0.33,-0.65,-0.20,-0.03,0.08,0.93,
0.789,0.33,-0.65,-0.20,-0.02,0.08,0.93,
0.789,0.38,-0.67,-0.22,-0.02,0.08,0.93,
0.791,0.38,-0.67,-0.22,-0.02,0.08,0.92,
0.794,0.38,-0.67,-0.22,-0.01,0.08,0.92,
0.794,0.42,-0.66,-0.23,-0.01,0.08,0.92,
0.796,0.42,-0.66,-0.23,-0.01,0.09,0.92,
0.799,0.42,-0.66,-0.23,-0.00,0.08,0.92,
0.799,0.51,-0.65,-0.29,-0.00,0.08,0.92,
0.801,0.51,-0.65,-0.29,0.00,0.08,0.92,
0.804,0.51,-0.65,-0.29,0.01,0.08,0.91,
0.804,0.60,-0.61,-0.33,0.01,0.08,0.91,
0.806,0.60,-0.61,-0.33,0.01,0.08,0.91,
0.809,0.60,-0.61,-0.33,0.01,0.08,0.91,
0.809,0.69,-0.64,-0.36,0.01,0.08,0.91,
0.811,0.69,-0.64,-0.36,0.01,0.08,0.91,
0.813,0.69,-0.64,-0.36,0.02,0.07,0.91,
0.814,0.73,-0.67,-0.39,0.02,0.07,0.91,
0.816,0.73,-0.67,-0.39,0.02,0.07,0.90,
0.818,0.73,-0.67,-0.39,0.02,0.08,0.90,
0.819,0.77,-0.68,-0.44,0.02,0.08,0.90,
0.821,0.77,-0.68,-0.44,0.03,0.08,0.90,
0.825,0.77,-0.68,-0.44,0.03,0.08,0.90,
0.825,0.85,-0.67,-0.48,0.03,0.08,0.90,
0.828,0.85,-0.67,-0.48,0.03,0.09,0.90,
0.828,0.85,-0.67,-0.48,0.04,0.09,0.90,
0.828,0.92,-0.60,-0.49,0.04,0.09,0.90,
0.83,0.92,-0.60,-0.49,0.04,0.10,0.90,
0.833,0.92,-0.60,-0.49,0.05,0.10,0.91,
0.833,0.99,-0.52,-0.47,0.05,0.10,0.91,
0.835,0.99,-0.52,-0.47,0.05,0.10,0.91,
0.838,0.99,-0.52,-0.47,0.05,0.11,0.91,
0.838,1.06,-0.44,-0.45,0.05,0.11,0.91,
0.84,1.06,-0.44,-0.45,0.05,0.11,0.91,
0.843,1.06,-0.44,-0.45,0.06,0.11,0.91,
0.843,1.11,-0.34,-0.41,0.06,0.11,0.91,
0.845,1.11,-0.34,-0.41,0.06,0.11,0.92,
0.848,1.11,-0.34,-0.41,0.06,0.12,0.92,
0.848,1.16,-0.29,-0.36,0.06,0.12,0.92,
0.85,1.16,-0.29,-0.36,0.06,0.12,0.92,
0.853,1.16,-0.29,-0.36,0.07,0.12,0.92,
0.853,1.20,-0.23,-0.32,0.07,0.12,0.92,
0.855,1.20,-0.23,-0.32,0.07,0.12,0.92,
0.857,1.20,-0.23,-0.32,0.07,0.12,0.92,
0.858,1.26,-0.16,-0.29,0.07,0.12,0.92,
0.86,1.26,-0.16,-0.29,0.08,0.13,0.92,
0.863,1.26,-0.16,-0.29,0.08,0.13,0.93,
0.863,1.32,-0.13,-0.26,0.08,0.13,0.93,
0.865,1.32,-0.13,-0.26,0.08,0.13,0.93,
0.867,1.32,-0.13,-0.26,0.08,0.13,0.93,
0.868,1.37,-0.10,-0.23,0.08,0.13,0.93,
0.87,1.37,-0.10,-0.23,0.08,0.13,0.93,
0.872,1.37,-0.10,-0.23,0.09,0.13,0.93,
0.873,1.40,-0.08,-0.22,0.09,0.13,0.93,
0.875,1.40,-0.08,-0.22,0.09,0.13,0.94,
0.877,1.40,-0.08,-0.22,0.09,0.13,0.94,
0.878,1.43,-0.09,-0.16,0.09,0.13,0.94,
0.88,1.43,-0.09,-0.16,0.09,0.13,0.95,
0.882,1.43,-0.09,-0.16,0.09,0.13,0.95,
0.882,1.45,-0.07,-0.08,0.09,0.13,0.95,
0.884,1.45,-0.07,-0.08,0.09,0.13,0.96,
0.887,1.45,-0.07,-0.08,0.09,0.12,0.96,
0.887,1.48,-0.07,0.00,0.09,0.12,0.96,
0.89,1.48,-0.07,0.00,0.10,0.12,0.97,
0.894,1.48,-0.07,0.00,0.10,0.12,0.98,
0.895,1.51,-0.09,0.12,0.10,0.12,0.98,
0.895,1.51,-0.09,0.12,0.10,0.12,0.98,
0.897,1.51,-0.09,0.12,0.11,0.12,0.99,
0.897,1.54,-0.12,0.25,0.11,0.12,0.99,
0.899,1.54,-0.12,0.25,0.11,0.12,0.99,
0.902,1.54,-0.12,0.25,0.12,0.12,1.00,
0.902,1.63,-0.12,0.37,0.12,0.12,1.00,
0.904,1.63,-0.12,0.37,0.13,0.12,1.00,
0.907,1.63,-0.12,0.37,0.13,0.12,1.01,
0.907,1.73,-0.08,0.48,0.13,0.12,1.01,
0.91,1.73,-0.08,0.48,0.14,0.12,1.01,
0.912,1.73,-0.08,0.48,0.15,0.12,1.01,
0.912,1.90,-0.07,0.55,0.15,0.12,1.01,
0.914,1.90,-0.07,0.55,0.15,0.12,1.02,
0.917,1.90,-0.07,0.55,0.16,0.12,1.02,
0.917,2.06,-0.06,0.62,0.16,0.12,1.02,
0.919,2.06,-0.06,0.62,0.17,0.12,1.02,
0.921,2.06,-0.06,0.62,0.18,0.12,1.02,
0.922,2.19,-0.07,0.67,0.18,0.12,1.02,
0.924,2.19,-0.07,0.67,0.18,0.12,1.03,
0.927,2.19,-0.07,0.67,0.19,0.12,1.03,
0.927,2.35,-0.07,0.71,0.19,0.12,1.03,
0.929,2.35,-0.07,0.71,0.19,0.12,1.03,
0.931,2.35,-0.07,0.71,0.19,0.12,1.03,
0.931,2.45,-0.08,0.74,0.19,0.12,1.03,
0.933,2.45,-0.08,0.74,0.19,0.12,1.03,
0.936,2.45,-0.08,0.74,0.19,0.12,1.03,
0.936,2.54,-0.08,0.76,0.19,0.12,1.03,
0.938,2.54,-0.08,0.76,0.20,0.12,1.03,
0.941,2.54,-0.08,0.76,0.20,0.12,1.03,
0.941,2.57,-0.09,0.76,0.20,0.12,1.03,
0.948,2.57,-0.09,0.76,0.20,0.12,1.03,
0.949,2.57,-0.09,0.76,0.20,0.13,1.03,
0.949,2.58,-0.08,0.76,0.20,0.13,1.03,
0.95,2.58,-0.08,0.76,0.20,0.14,1.03,
0.951,2.58,-0.08,0.76,0.20,0.15,1.03,
0.951,2.61,0.02,0.76,0.20,0.15,1.03,
0.953,2.61,0.02,0.76,0.20,0.15,1.03,
0.955,2.61,0.02,0.76,0.19,0.16,1.03,
0.956,2.62,0.17,0.77,0.19,0.16,1.03,
0.958,2.62,0.17,0.77,0.19,0.17,1.03,
0.964,2.62,0.17,0.77,0.19,0.17,1.03,
0.965,2.59,0.32,0.79,0.19,0.17,1.03,
0.965,2.59,0.32,0.79,0.19,0.18,1.03,
0.965,2.59,0.32,0.79,0.18,0.18,1.03,
0.965,2.55,0.43,0.80,0.18,0.18,1.03,
0.967,2.55,0.43,0.80,0.18,0.19,1.03,
0.97,2.55,0.43,0.80,0.18,0.19,1.03,
0.97,2.47,0.55,0.79,0.18,0.19,1.03,
0.972,2.47,0.55,0.79,0.17,0.19,1.03,
0.976,2.47,0.55,0.79,0.17,0.19,1.02,
0.976,2.40,0.65,0.79,0.17,0.19,1.02,
0.978,2.40,0.65,0.79,0.18,0.19,1.02,
0.98,2.40,0.65,0.79,0.18,0.19,1.02,
0.981,2.34,0.69,0.73,0.18,0.19,1.02,
0.983,2.34,0.69,0.73,0.18,0.19,1.02,
0.985,2.34,0.69,0.73,0.18,0.19,1.01,
0.985,2.38,0.71,0.68,0.18,0.19,1.01,
0.987,2.38,0.71,0.68,0.18,0.19,1.01,
0.99,2.38,0.71,0.68,0.19,0.19,1.01,
0.99,2.43,0.71,0.63,0.19,0.19,1.01,
0.993,2.43,0.71,0.63,0.18,0.19,1.01,
0.995,2.43,0.71,0.63,0.18,0.18,1.01,
0.996,2.45,0.69,0.60,0.18,0.18,1.01,
0.997,2.45,0.69,0.60,0.18,0.18,1.01,
1.0,2.45,0.69,0.60,0.18,0.17,1.02,
1.0,2.43,0.64,0.60,0.18,0.17,1.02,
1.002,2.43,0.64,0.60,0.19,0.17,1.02,
1.005,2.43,0.64,0.60,0.19,0.17,1.02,
1.005,2.43,0.57,0.63,0.19,0.17,1.02,
1.007,2.43,0.57,0.63,0.19,0.17,1.03,
1.01,2.43,0.57,0.63,0.18,0.16,1.04,
1.01,2.44,0.50,0.69,0.18,0.16,1.04,
1.012,2.44,0.50,0.69,0.18,0.16,1.04,
1.014,2.44,0.50,0.69,0.18,0.15,1.05,
1.015,2.43,0.46,0.79,0.18,0.15,1.05,
1.017,2.43,0.46,0.79,0.18,0.15,1.06,
1.019,2.43,0.46,0.79,0.18,0.14,1.06,
1.02,2.41,0.36,0.92,0.18,0.14,1.06,
1.022,2.41,0.36,0.92,0.18,0.14,1.07,
1.024,2.41,0.36,0.92,0.17,0.14,1.08,
1.025,2.38,0.30,1.04,0.17,0.14,1.08,
1.032,2.38,0.30,1.04,0.17,0.14,1.08,
1.033,2.38,0.30,1.04,0.17,0.14,1.09,
1.033,2.33,0.27,1.19,0.17,0.14,1.09,
1.033,2.33,0.27,1.19,0.17,0.14,1.10,
1.034,2.33,0.27,1.19,0.16,0.14,1.10,
1.034,2.28,0.25,1.32,0.16,0.14,1.10,
1.036,2.28,0.25,1.32,0.16,0.14,1.11,
1.039,2.28,0.25,1.32,0.16,0.14,1.11,
1.039,2.22,0.25,1.42,0.16,0.14,1.11,
1.041,2.22,0.25,1.42,0.16,0.15,1.11,
1.044,2.22,0.25,1.42,0.16,0.15,1.11,
1.045,2.20,0.29,1.50,0.16,0.15,1.11,
1.046,2.20,0.29,1.50,0.16,0.16,1.11,
1.049,2.20,0.29,1.50,0.15,0.16,1.10,
1.049,2.15,0.37,1.50,0.15,0.16,1.10,
1.051,2.15,0.37,1.50,0.15,0.16,1.10,
1.054,2.15,0.37,1.50,0.15,0.17,1.09,
1.054,2.09,0.46,1.46,0.15,0.17,1.09,
1.056,2.09,0.46,1.46,0.15,0.17,1.08,
1.059,2.09,0.46,1.46,0.15,0.18,1.08,
1.06,2.02,0.54,1.36,0.15,0.18,1.08,
1.061,2.02,0.54,1.36,0.15,0.18,1.07,
1.064,2.02,0.54,1.36,0.15,0.19,1.06,
1.064,1.98,0.63,1.22,0.15,0.19,1.06,
1.066,1.98,0.63,1.22,0.16,0.19,1.05,
1.068,1.98,0.63,1.22,0.16,0.19,1.04,
1.068,1.99,0.71,1.04,0.16,0.19,1.04,
1.071,1.99,0.71,1.04,0.17,0.20,1.03,
1.073,1.99,0.71,1.04,0.17,0.21,1.01,
1.073,2.04,0.80,0.83,0.17,0.21,1.01,
1.075,2.04,0.80,0.83,0.17,0.21,1.01,
1.079,2.04,0.80,0.83,0.17,0.21,1.00,
1.079,2.08,0.90,0.62,0.17,0.21,1.00,
1.08,2.08,0.90,0.62,0.17,0.21,0.99,
1.083,2.08,0.90,0.62,0.18,0.21,0.98,
1.083,2.10,0.98,0.45,0.18,0.21,0.98,
1.085,2.10,0.98,0.45,0.17,0.21,0.98,
1.088,2.10,0.98,0.45,0.17,0.21,0.98,
1.088,2.11,1.00,0.31,0.17,0.21,0.98,
1.091,2.11,1.00,0.31,0.17,0.21,0.98,
1.093,2.11,1.00,0.31,0.17,0.21,0.98,
1.094,2.07,1.00,0.22,0.17,0.21,0.98,
1.095,2.07,1.00,0.22,0.17,0.20,0.98,
1.098,2.07,1.00,0.22,0.16,0.20,0.98,
1.098,2.03,0.95,0.19,0.16,0.20,0.98,
1.1,2.03,0.95,0.19,0.16,0.20,0.98,
1.103,2.03,0.95,0.19,0.16,0.20,0.99,
1.103,1.96,0.93,0.21,0.16,0.20,0.99,
1.105,1.96,0.93,0.21,0.16,0.20,0.99,
1.107,1.96,0.93,0.21,0.16,0.19,1.00,
1.108,1.91,0.89,0.27,0.16,0.19,1.00,
1.11,1.91,0.89,0.27,0.15,0.19,1.00,
1.112,1.91,0.89,0.27,0.15,0.19,1.01,
1.113,1.85,0.85,0.34,0.15,0.19,1.01,
1.114,1.85,0.85,0.34,0.14,0.19,1.01,
1.117,1.85,0.85,0.34,0.14,0.19,1.02,
1.117,1.77,0.83,0.46,0.14,0.19,1.02,
1.119,1.77,0.83,0.46,0.14,0.19,1.02,
1.122,1.77,0.83,0.46,0.13,0.18,1.03,
1.122,1.69,0.81,0.58,0.13,0.18,1.03,
1.131,1.69,0.81,0.58,0.13,0.18,1.03,
1.132,1.69,0.81,0.58,0.13,0.18,1.03,
1.132,1.58,0.76,0.66,0.13,0.18,1.03,
1.132,1.58,0.76,0.66,0.12,0.18,1.03,
1.133,1.58,0.76,0.66,0.12,0.18,1.03,
1.133,1.50,0.72,0.71,0.12,0.18,1.03,
1.134,1.50,0.72,0.71,0.12,0.18,1.03,
1.137,1.50,0.72,0.71,0.12,0.18,1.03,
1.137,1.45,0.70,0.71,0.12,0.18,1.03,
1.139,1.45,0.70,0.71,0.12,0.18,1.03,
1.147,1.45,0.70,0.71,0.12,0.19,1.03,
1.148,1.42,0.72,0.71,0.12,0.19,1.03,
1.148,1.42,0.72,0.71,0.11,0.19,1.03,
1.148,1.42,0.72,0.71,0.11,0.19,1.03,
1.148,1.37,0.77,0.70,0.11,0.19,1.03,
1.149,1.37,0.77,0.70,0.11,0.19,1.02,
1.152,1.27,0.80,0.67,0.11,0.19,1.02,
1.152,1.27,0.80,0.67,0.10,0.19,1.02,
1.154,1.27,0.80,0.67,0.10,0.19,1.02,
1.156,1.20,0.81,0.62,0.10,0.19,1.02,
1.157,1.20,0.81,0.62,0.10,0.19,1.02,
1.159,1.20,0.81,0.62,0.11,0.19,1.01,
1.161,1.20,0.81,0.62,0.11,0.20,1.01,
1.162,1.17,0.85,0.59,0.11,0.20,1.01,
1.164,1.17,0.85,0.59,0.11,0.19,1.01,
1.166,1.17,0.85,0.59,0.10,0.19,1.01,
1.166,1.16,0.89,0.52,0.10,0.19,1.01,
1.168,1.16,0.89,0.52,0.10,0.19,1.01,
1.171,1.16,0.89,0.52,0.10,0.19,1.01,
1.172,1.14,0.88,0.49,0.10,0.19,1.01,
1.174,1.14,0.88,0.49,0.09,0.19,1.01,
1.176,1.06,0.86,0.45,0.09,0.19,1.01,
1.177,1.06,0.86,0.45,0.09,0.19,1.00,
1.178,1.06,0.86,0.45,0.09,0.19,1.00,
1.181,1.06,0.86,0.45,0.09,0.19,1.00,
1.182,0.98,0.84,0.44,0.09,0.19,1.00,
1.183,0.98,0.84,0.44,0.09,0.19,1.00,
1.186,0.98,0.84,0.44,0.09,0.19,0.99,
1.186,0.95,0.83,0.39,0.09,0.19,0.99,
1.188,0.95,0.83,0.39,0.09,0.19,0.99,
1.19,0.95,0.83,0.39,0.09,0.19,0.99,
1.191,0.93,0.81,0.34,0.09,0.19,0.99,
1.194,0.93,0.81,0.34,0.08,0.19,0.99,
1.196,0.93,0.81,0.34,0.08,0.19,0.99,
1.196,0.88,0.81,0.31,0.08,0.19,0.99,
1.199,0.88,0.81,0.31,0.08,0.19,0.98,
1.2,0.88,0.81,0.31,0.07,0.19,0.98,
1.201,0.83,0.82,0.27,0.07,0.19,0.98,
1.203,0.83,0.82,0.27,0.07,0.19,0.98,
1.205,0.83,0.82,0.27,0.07,0.18,0.98,
1.206,0.73,0.81,0.24,0.07,0.18,0.98,
1.209,0.73,0.81,0.24,0.07,0.19,0.98,
1.21,0.73,0.81,0.24,0.06,0.19,0.98,
1.211,0.65,0.80,0.22,0.06,0.19,0.98,
1.212,0.65,0.80,0.22,0.06,0.19,0.98,
1.215,0.65,0.80,0.22,0.06,0.19,0.98,
1.218,0.59,0.81,0.20,0.06,0.19,0.98,
1.218,0.59,0.81,0.20,0.06,0.19,0.98,
1.22,0.59,0.81,0.20,0.06,0.20,0.98,
1.22,0.50,0.83,0.19,0.06,0.20,0.98,
1.222,0.50,0.83,0.19,0.05,0.20,0.98,
1.225,0.50,0.83,0.19,0.05,0.20,0.98,
1.226,0.47,0.89,0.21,0.05,0.20,0.98,
1.227,0.47,0.89,0.21,0.05,0.20,0.98,
1.23,0.47,0.89,0.21,0.05,0.20,0.98,
1.23,0.45,0.95,0.21,0.05,0.20,0.98,
1.232,0.45,0.95,0.21,0.05,0.20,0.99,
1.235,0.45,0.95,0.21,0.04,0.20,0.99,
1.235,0.40,0.97,0.23,0.04,0.20,0.99,
1.237,0.40,0.97,0.23,0.04,0.20,0.99,
1.24,0.40,0.97,0.23,0.04,0.20,0.99,
1.24,0.33,0.97,0.25,0.04,0.20,0.99,
1.247,0.33,0.97,0.25,0.03,0.20,0.99,
1.248,0.33,0.97,0.25,0.03,0.20,1.00,
1.248,0.23,0.96,0.30,0.03,0.20,1.00,
1.248,0.23,0.96,0.30,0.03,0.20,1.00,
1.25,0.23,0.96,0.30,0.03,0.20,1.00,
1.25,0.17,0.95,0.34,0.03,0.20,1.00,
1.252,0.17,0.95,0.34,0.03,0.19,1.00,
1.255,0.17,0.95,0.34,0.03,0.19,1.00,
1.255,0.11,0.93,0.37,0.03,0.19,1.00,
1.257,0.11,0.93,0.37,0.03,0.19,1.00,
1.265,0.11,0.93,0.37,0.03,0.19,1.01,
1.265,0.09,0.90,0.39,0.03,0.19,1.01,
1.265,0.09,0.90,0.39,0.03,0.19,1.01,
1.265,0.09,0.90,0.39,0.03,0.18,1.01,
1.265,0.06,0.87,0.43,0.03,0.18,1.01,
1.266,0.06,0.87,0.43,0.03,0.18,1.01,
1.269,0.06,0.87,0.43,0.03,0.18,1.01,
1.269,0.05,0.81,0.47,0.03,0.18,1.01,
1.271,0.05,0.81,0.47,0.03,0.18,1.01,
1.274,0.05,0.81,0.47,0.03,0.18,1.01,
1.275,0.05,0.78,0.48,0.03,0.18,1.01,
1.276,0.05,0.78,0.48,0.03,0.18,1.01,
1.279,0.05,0.78,0.48,0.03,0.18,1.01,
1.279,0.05,0.78,0.48,0.03,0.18,1.01,
1.281,0.05,0.78,0.48,0.03,0.18,1.01,
1.284,0.05,0.78,0.48,0.03,0.18,1.01,
1.284,0.02,0.79,0.47,0.03,0.18,1.01,
1.286,0.02,0.79,0.47,0.03,0.18,1.01,
1.288,0.02,0.79,0.47,0.02,0.18,1.01,
1.288,0.00,0.79,0.45,0.02,0.18,1.01,
1.291,0.00,0.79,0.45,0.01,0.18,1.01,
1.294,0.00,0.79,0.45,0.01,0.18,1.01,
1.294,-0.09,0.79,0.46,0.01,0.18,1.01,
1.296,-0.09,0.79,0.46,0.00,0.18,1.00,
1.298,-0.09,0.79,0.46,-0.00,0.18,1.00,
1.299,-0.22,0.78,0.45,-0.00,0.18,1.00,
1.301,-0.22,0.78,0.45,-0.01,0.18,1.00,
1.303,-0.22,0.78,0.45,-0.01,0.18,1.00,
1.304,-0.33,0.79,0.41,-0.01,0.18,1.00,
1.306,-0.33,0.79,0.41,-0.01,0.19,1.00,
1.309,-0.33,0.79,0.41,-0.02,0.19,1.00,
1.31,-0.44,0.81,0.40,-0.02,0.19,1.00,
1.311,-0.44,0.81,0.40,-0.02,0.18,1.00,
1.313,-0.44,0.81,0.40,-0.02,0.18,1.00,
1.313,-0.52,0.82,0.38,-0.02,0.18,1.00,
1.315,-0.52,0.82,0.38,-0.02,0.17,1.00,
1.318,-0.52,0.82,0.38,-0.02,0.17,0.99,
1.318,-0.55,0.75,0.36,-0.02,0.17,0.99,
1.32,-0.55,0.75,0.36,-0.01,0.17,0.99,
1.323,-0.55,0.75,0.36,-0.01,0.16,0.99,
1.323,-0.55,0.68,0.33,-0.01,0.16,0.99,
1.325,-0.55,0.68,0.33,-0.01,0.15,0.99,
1.328,-0.55,0.68,0.33,-0.00,0.15,0.99,
1.328,-0.53,0.58,0.31,-0.00,0.15,0.99,
1.33,-0.53,0.58,0.31,0.01,0.14,0.99,
1.333,-0.53,0.58,0.31,0.01,0.13,0.99,
1.333,-0.45,0.44,0.31,0.01,0.13,0.99,
1.335,-0.45,0.44,0.31,0.02,0.12,0.99,
1.338,-0.45,0.44,0.31,0.02,0.11,0.98,
1.338,-0.35,0.30,0.27,0.02,0.11,0.98,
1.34,-0.35,0.30,0.27,0.03,0.10,0.98,
1.347,-0.35,0.30,0.27,0.04,0.09,0.98,
1.348,-0.25,0.14,0.23,0.04,0.09,0.98,
1.348,-0.25,0.14,0.23,0.04,0.09,0.98,
1.349,-0.25,0.14,0.23,0.05,0.08,0.98,
1.349,-0.14,-0.05,0.20,0.05,0.08,0.98,
1.35,-0.14,-0.05,0.20,0.05,0.08,0.98,
1.353,-0.03,-0.16,0.18,0.05,0.08,0.98,
1.353,-0.03,-0.16,0.18,0.05,0.08,0.98,
1.355,-0.03,-0.16,0.18,0.06,0.07,0.99,
1.357,-0.03,-0.16,0.18,0.06,0.07,0.99,
1.361,0.03,-0.24,0.20,0.06,0.07,0.99,
1.361,0.03,-0.24,0.20,0.06,0.07,0.99,
1.363,0.03,-0.24,0.20,0.05,0.06,1.00,
1.363,0.05,-0.30,0.25,0.05,0.06,1.00,
1.364,0.05,-0.30,0.25,0.05,0.06,1.00,
1.367,0.05,-0.30,0.25,0.04,0.06,1.00,
1.367,0.03,-0.35,0.32,0.04,0.06,1.00,
1.369,0.03,-0.35,0.32,0.04,0.06,1.00,
1.372,0.03,-0.35,0.32,0.03,0.07,1.01,
1.372,-0.06,-0.37,0.37,0.03,0.07,1.01,
1.375,-0.06,-0.37,0.37,0.02,0.07,1.01,
1.377,-0.06,-0.37,0.37,0.01,0.07,1.01,
1.377,-0.21,-0.36,0.42,0.01,0.07,1.01,
1.379,-0.21,-0.36,0.42,-0.00,0.08,1.01,
1.382,-0.43,-0.28,0.46,-0.00,0.08,1.01,
1.382,-0.43,-0.28,0.46,-0.01,0.08,1.01,
1.384,-0.43,-0.28,0.46,-0.02,0.08,1.01,
1.387,-0.43,-0.28,0.46,-0.04,0.08,1.01,
1.387,-0.64,-0.22,0.47,-0.04,0.08,1.01,
1.389,-0.64,-0.22,0.47,-0.05,0.09,1.00,
1.391,-0.64,-0.22,0.47,-0.06,0.09,1.00,
1.392,-0.87,-0.18,0.45,-0.06,0.09,1.00,
1.394,-0.87,-0.18,0.45,-0.06,0.09,1.00,
1.396,-0.87,-0.18,0.45,-0.07,0.09,0.99,
1.396,-1.08,-0.14,0.39,-0.07,0.09,0.99,
1.398,-1.08,-0.14,0.39,-0.07,0.10,0.99,
1.401,-1.08,-0.14,0.39,-0.07,0.10,0.98,
1.401,-1.21,-0.12,0.31,-0.07,0.10,0.98,
1.404,-1.21,-0.12,0.31,-0.08,0.10,0.98,
1.406,-1.30,-0.07,0.22,-0.08,0.10,0.98,
1.406,-1.30,-0.07,0.22,-0.08,0.10,0.97,
1.408,-1.30,-0.07,0.22,-0.08,0.10,0.97,
1.411,-1.30,-0.07,0.22,-0.08,0.10,0.97,
1.412,-1.36,-0.07,0.13,-0.08,0.10,0.97,
1.413,-1.36,-0.07,0.13,-0.08,0.10,0.96,
1.416,-1.36,-0.07,0.13,-0.08,0.09,0.96,
1.416,-1.37,-0.07,0.05,-0.08,0.09,0.96,
1.418,-1.37,-0.07,0.05,-0.08,0.09,0.95,
1.421,-1.37,-0.13,-0.04,-0.08,0.09,0.95,
1.421,-1.37,-0.13,-0.04,-0.08,0.09,0.95,
1.423,-1.37,-0.13,-0.04,-0.08,0.08,0.95,
1.428,-1.36,-0.20,-0.12,-0.08,0.08,0.95,
1.429,-1.36,-0.20,-0.12,-0.08,0.08,0.94,
1.429,-1.36,-0.20,-0.12,-0.08,0.07,0.94,
1.431,-1.36,-0.20,-0.12,-0.07,0.07,0.94,
1.431,-1.36,-0.28,-0.17,-0.07,0.07,0.94,
1.433,-1.36,-0.28,-0.17,-0.07,0.07,0.94,
1.435,-1.36,-0.28,-0.17,-0.07,0.07,0.94,
1.436,-1.34,-0.37,-0.20,-0.07,0.07,0.94,
1.438,-1.34,-0.37,-0.20,-0.07,0.07,0.94,
1.441,-1.34,-0.37,-0.20,-0.07,0.06,0.94,
1.442,-1.33,-0.41,-0.21,-0.07,0.06,0.94,
1.443,-1.33,-0.41,-0.21,-0.08,0.06,0.94,
1.445,-1.33,-0.41,-0.21,-0.08,0.06,0.94,
1.446,-1.33,-0.44,-0.19,-0.08,0.06,0.94,
1.447,-1.33,-0.44,-0.19,-0.08,0.06,0.94,
1.45,-1.33,-0.44,-0.19,-0.08,0.05,0.94,
1.45,-1.36,-0.49,-0.18,-0.08,0.05,0.94,
1.452,-1.36,-0.49,-0.18,-0.09,0.05,0.94,
1.455,-1.36,-0.49,-0.18,-0.09,0.05,0.94,
1.456,-1.41,-0.55,-0.18,-0.09,0.05,0.94,
1.457,-1.41,-0.55,-0.18,-0.09,0.05,0.94,
1.46,-1.41,-0.55,-0.18,-0.09,0.05,0.94,
1.46,-1.46,-0.59,-0.17,-0.09,0.05,0.94,
1.463,-1.46,-0.59,-0.17,-0.09,0.05,0.94,
1.465,-1.46,-0.59,-0.17,-0.09,0.05,0.94,
1.465,-1.49,-0.60,-0.16,-0.09,0.05,0.94,
1.467,-1.49,-0.60,-0.16,-0.10,0.05,0.94,
1.47,-1.49,-0.60,-0.16,-0.10,0.05,0.94,
1.47,-1.54,-0.61,-0.17,-0.10,0.05,0.94,
1.472,-1.54,-0.61,-0.17,-0.10,0.05,0.94,
1.475,-1.54,-0.61,-0.17,-0.11,0.05,0.94,
1.475,-1.59,-0.59,-0.18,-0.11,0.05,0.94,
1.477,-1.59,-0.59,-0.18,-0.11,0.05,0.93,
1.48,-1.66,-0.59,-0.22,-0.11,0.05,0.93,
1.48,-1.66,-0.59,-0.22,-0.11,0.05,0.93,
1.482,-1.66,-0.59,-0.22,-0.11,0.05,0.93,
1.484,-1.68,-0.58,-0.27,-0.11,0.05,0.93,
1.484,-1.68,-0.58,-0.27,-0.11,0.06,0.93,
1.487,-1.68,-0.58,-0.27,-0.10,0.06,0.92,
1.489,-1.68,-0.58,-0.27,-0.10,0.06,0.92,
1.49,-1.69,-0.56,-0.31,-0.10,0.06,0.92,
1.492,-1.69,-0.56,-0.31,-0.10,0.06,0.91,
1.494,-1.69,-0.56,-0.31,-0.10,0.06,0.91,
1.495,-1.66,-0.54,-0.39,-0.10,0.06,0.91,
1.497,-1.66,-0.54,-0.39,-0.10,0.06,0.91,
1.499,-1.62,-0.51,-0.48,-0.10,0.06,0.91,
1.5,-1.62,-0.51,-0.48,-0.09,0.06,0.90,
1.501,-1.62,-0.51,-0.48,-0.09,0.06,0.90,
1.504,-1.62,-0.51,-0.48,-0.09,0.06,0.89,
1.504,-1.55,-0.50,-0.55,-0.09,0.06,0.89,
1.506,-1.55,-0.50,-0.55,-0.09,0.06,0.88,
1.509,-1.55,-0.50,-0.55,-0.08,0.06,0.88,
1.51,-1.50,-0.49,-0.65,-0.08,0.06,0.88,
1.511,-1.50,-0.49,-0.65,-0.08,0.06,0.88,
1.514,-1.50,-0.49,-0.65,-0.08,0.06,0.87,
1.514,-1.47,-0.52,-0.76,-0.08,0.06,0.87,
1.516,-1.47,-0.52,-0.76,-0.08,0.05,0.87,
1.519,-1.47,-0.52,-0.76,-0.07,0.05,0.87,
1.519,-1.41,-0.57,-0.85,-0.07,0.05,0.87,
1.521,-1.41,-0.57,-0.85,-0.07,0.06,0.86,
1.53,-1.41,-0.57,-0.85,-0.06,0.06,0.86,
1.531,-1.36,-0.59,-0.92,-0.06,0.06,0.86,
1.531,-1.36,-0.59,-0.92,-0.06,0.06,0.86,
1.532,-1.36,-0.59,-0.92,-0.06,0.06,0.86,
1.532,-1.28,-0.57,-0.97,-0.06,0.06,0.86,
1.532,-1.28,-0.57,-0.97,-0.06,0.06,0.86,
1.533,-1.28,-0.57,-0.97,-0.06,0.06,0.86,
1.534,-1.20,-0.56,-1.00,-0.06,0.06,0.86,
1.536,-1.20,-0.56,-1.00,-0.06,0.06,0.86,
1.538,-1.20,-0.56,-1.00,-0.06,0.06,0.86,
1.539,-1.18,-0.56,-1.02,-0.06,0.06,0.86,
1.546,-1.18,-0.56,-1.02,-0.06,0.06,0.86,
1.547,-1.18,-0.56,-1.02,-0.06,0.05,0.87,
1.547,-1.18,-0.56,-0.98,-0.06,0.05,0.87,
1.548,-1.18,-0.56,-0.98,-0.06,0.05,0.87,
1.548,-1.18,-0.56,-0.98,-0.06,0.05,0.88,
1.549,-1.18,-0.57,-0.91,-0.06,0.05,0.88,
1.55,-1.18,-0.57,-0.91,-0.07,0.05,0.89,
1.553,-1.18,-0.57,-0.91,-0.07,0.06,0.89,
1.553,-1.20,-0.57,-0.80,-0.07,0.06,0.89,
1.555,-1.20,-0.57,-0.80,-0.07,0.06,0.90,
1.558,-1.20,-0.57,-0.80,-0.07,0.06,0.91,
1.558,-1.23,-0.55,-0.66,-0.07,0.06,0.91,
1.56,-1.23,-0.55,-0.66,-0.08,0.06,0.91,
1.563,-1.23,-0.55,-0.66,-0.08,0.06,0.92,
1.563,-1.27,-0.53,-0.54,-0.08,0.06,0.92,
1.565,-1.27,-0.53,-0.54,-0.08,0.06,0.92,
1.568,-1.27,-0.53,-0.54,-0.09,0.06,0.93,
1.568,-1.29,-0.50,-0.43,-0.09,0.06,0.93,
1.57,-1.29,-0.50,-0.43,-0.09,0.07,0.93,
1.573,-1.29,-0.50,-0.43,-0.09,0.07,0.94,
1.573,-1.37,-0.45,-0.34,-0.09,0.07,0.94,
1.575,-1.37,-0.45,-0.34,-0.09,0.07,0.94,
1.578,-1.37,-0.45,-0.34,-0.09,0.08,0.95,
1.578,-1.40,-0.38,-0.24,-0.09,0.08,0.95,
1.58,-1.40,-0.38,-0.24,-0.09,0.08,0.95,
1.582,-1.40,-0.38,-0.24,-0.09,0.09,0.96,
1.583,-1.40,-0.30,-0.14,-0.09,0.09,0.96,
1.585,-1.40,-0.30,-0.14,-0.09,0.09,0.97,
1.587,-1.40,-0.30,-0.14,-0.09,0.10,0.97,
1.588,-1.38,-0.22,-0.03,-0.09,0.10,0.97,
1.59,-1.38,-0.22,-0.03,-0.09,0.10,0.98,
1.592,-1.38,-0.22,-0.03,-0.10,0.10,0.98,
1.593,-1.39,-0.12,0.09,-0.10,0.10,0.98,
1.595,-1.39,-0.12,0.09,-0.10,0.10,0.98,
1.597,-1.39,-0.12,0.09,-0.11,0.10,0.99,
1.597,-1.40,-0.04,0.18,-0.11,0.10,0.99,
1.599,-1.40,-0.04,0.18,-0.11,0.10,0.99,
1.602,-1.40,-0.04,0.18,-0.11,0.11,0.99,
1.602,-1.46,-0.01,0.23,-0.11,0.11,0.99,
1.604,-1.46,-0.01,0.23,-0.11,0.11,0.99,
1.608,-1.46,-0.01,0.23,-0.11,0.11,0.99,
1.608,-1.51,0.00,0.29,-0.11,0.11,0.99,
1.61,-1.51,0.00,0.29,-0.11,0.11,0.99,
1.612,-1.51,0.00,0.29,-0.11,0.11,0.99,
1.612,-1.51,0.02,0.30,-0.11,0.11,0.99,
1.614,-1.51,0.02,0.30,-0.10,0.11,0.99,
1.617,-1.51,0.02,0.30,-0.10,0.11,0.99,
1.617,-1.46,0.04,0.30,-0.10,0.11,0.99,
1.619,-1.46,0.04,0.30,-0.10,0.10,0.99,
1.622,-1.46,0.04,0.30,-0.10,0.10,1.00,
1.622,-1.36,0.04,0.31,-0.10,0.10,1.00,
1.624,-1.36,0.04,0.31,-0.09,0.10,1.00,
1.627,-1.36,0.04,0.31,-0.09,0.10,1.00,
1.627,-1.31,0.00,0.33,-0.09,0.10,1.00,
1.629,-1.31,0.00,0.33,-0.09,0.10,1.00,
1.631,-1.31,0.00,0.33,-0.08,0.10,1.01,
1.632,-1.22,-0.02,0.35,-0.08,0.10,1.01,
1.634,-1.22,-0.02,0.35,-0.08,0.10,1.01,
1.636,-1.22,-0.02,0.35,-0.08,0.10,1.01,
1.637,-1.15,-0.05,0.41,-0.08,0.10,1.01,
1.639,-1.15,-0.05,0.41,-0.07,0.10,1.02,
1.646,-1.15,-0.05,0.41,-0.07,0.10,1.02,
1.647,-1.06,-0.06,0.48,-0.07,0.10,1.02,
1.647,-1.06,-0.06,0.48,-0.07,0.10,1.03,
1.648,-1.06,-0.06,0.48,-0.07,0.10,1.03,
1.648,-0.98,-0.06,0.56,-0.07,0.10,1.03,
1.648,-0.98,-0.06,0.56,-0.07,0.10,1.04,
1.651,-0.98,-0.06,0.56,-0.08,0.10,1.04,
1.651,-0.95,-0.03,0.65,-0.08,0.10,1.04,
1.653,-0.95,-0.03,0.65,-0.08,0.10,1.05,
1.656,-0.95,-0.03,0.65,-0.08,0.10,1.05,
1.656,-0.97,0.00,0.76,-0.08,0.10,1.05,
1.658,-0.97,0.00,0.76,-0.09,0.11,1.06,
1.661,-0.97,0.00,0.76,-0.09,0.11,1.06,
1.661,-1.03,0.04,0.86,-0.09,0.11,1.06,
1.663,-1.03,0.04,0.86,-0.10,0.11,1.06,
1.666,-1.03,0.04,0.86,-0.10,0.11,1.06,
1.666,-1.08,0.07,0.92,-0.10,0.11,1.06,
1.668,-1.08,0.07,0.92,-0.10,0.12,1.06,
1.671,-1.08,0.07,0.92,-0.10,0.12,1.06,
1.671,-1.15,0.11,0.95,-0.10,0.12,1.06,
1.674,-1.15,0.11,0.95,-0.10,0.12,1.06,
1.675,-1.15,0.11,0.95,-0.10,0.12,1.06,
1.676,-1.15,0.18,0.95,-0.10,0.12,1.06,
1.678,-1.15,0.18,0.95,-0.10,0.13,1.06,
1.68,-1.15,0.18,0.95,-0.10,0.13,1.05,
1.68,-1.17,0.24,0.94,-0.10,0.13,1.05,
1.683,-1.17,0.24,0.94,-0.10,0.13,1.05,
1.685,-1.17,0.24,0.94,-0.10,0.13,1.04,
1.685,-1.19,0.29,0.88,-0.10,0.13,1.04,
1.687,-1.19,0.29,0.88,-0.10,0.13,1.03,
1.69,-1.19,0.29,0.88,-0.10,0.14,1.03,
1.691,-1.20,0.34,0.78,-0.10,0.14,1.03,
1.693,-1.20,0.34,0.78,-0.10,0.14,1.02,
1.695,-1.20,0.34,0.78,-0.10,0.15,1.01,
1.695,-1.18,0.38,0.64,-0.10,0.15,1.01,
1.697,-1.18,0.38,0.64,-0.09,0.15,1.00,
1.7,-1.18,0.38,0.64,-0.09,0.15,1.00,
1.7,-1.11,0.48,0.51,-0.09,0.15,1.00,
1.702,-1.11,0.48,0.51,-0.09,0.15,0.99,
1.705,-1.09,0.51,0.34,-0.09,0.15,0.99,
1.708,-1.09,0.51,0.34,-0.09,0.15,0.98,
1.708,-1.09,0.51,0.34,-0.09,0.15,0.97,
1.71,-1.09,0.51,0.34,-0.08,0.15,0.97,
1.711,-1.05,0.52,0.19,-0.08,0.15,0.97,
1.712,-1.05,0.52,0.19,-0.08,0.15,0.96,
1.715,-1.05,0.52,0.19,-0.08,0.15,0.96,
1.715,-1.03,0.53,0.06,-0.08,0.15,0.96,
1.717,-1.03,0.53,0.06,-0.08,0.16,0.96,
1.719,-1.03,0.53,0.06,-0.08,0.16,0.96,
1.72,-0.98,0.57,-0.00,-0.08,0.16,0.96,
1.722,-0.98,0.57,-0.00,-0.08,0.15,0.97,
1.724,-0.96,0.61,-0.02,-0.08,0.15,0.97,
1.725,-0.96,0.61,-0.02,-0.08,0.15,0.97,
1.727,-0.96,0.61,-0.02,-0.08,0.15,0.98,
1.73,-0.96,0.61,-0.02,-0.08,0.15,0.98,
1.73,-0.95,0.61,0.05,-0.08,0.15,0.98,
1.732,-0.95,0.61,0.05,-0.08,0.14,0.98,
1.734,-0.95,0.61,0.05,-0.08,0.14,0.99,
1.734,-0.96,0.56,0.12,-0.08,0.14,0.99,
1.736,-0.96,0.56,0.12,-0.08,0.14,1.00,
1.739,-0.96,0.56,0.12,-0.08,0.14,1.00,
1.74,-0.95,0.52,0.21,-0.08,0.14,1.00,
1.747,-0.95,0.52,0.21,-0.08,0.13,1.01,
1.748,-0.95,0.52,0.21,-0.08,0.13,1.01,
1.748,-0.93,0.48,0.34,-0.08,0.13,1.01,
1.748,-0.93,0.48,0.34,-0.07,0.13,1.02,
1.749,-0.93,0.48,0.34,-0.07,0.13,1.02,
1.749,-0.91,0.44,0.44,-0.07,0.13,1.02,
1.751,-0.91,0.44,0.44,-0.07,0.12,1.02,
1.754,-0.91,0.44,0.44,-0.07,0.12,1.03,
1.754,-0.86,0.39,0.52,-0.07,0.12,1.03,
1.761,-0.86,0.39,0.52,-0.07,0.12,1.03,
1.762,-0.86,0.39,0.52,-0.07,0.12,1.03,
1.762,-0.86,0.34,0.57,-0.07,0.12,1.03,
1.762,-0.86,0.34,0.57,-0.07,0.12,1.03,
1.765,-0.86,0.34,0.57,-0.07,0.12,1.03,
1.766,-0.84,0.31,0.60,-0.07,0.12,1.03,
1.766,-0.84,0.31,0.60,-0.07,0.12,1.03,
1.769,-0.84,0.31,0.60,-0.06,0.12,1.02,
1.769,-0.80,0.31,0.60,-0.06,0.12,1.02,
1.771,-0.80,0.31,0.60,-0.06,0.13,1.02,
1.773,-0.80,0.31,0.60,-0.06,0.13,1.02,
1.774,-0.73,0.33,0.57,-0.06,0.13,1.02,
1.775,-0.73,0.33,0.57,-0.06,0.13,1.02,
1.778,-0.73,0.33,0.57,-0.06,0.13,1.01,
1.778,-0.69,0.38,0.50,-0.06,0.13,1.01,
1.781,-0.69,0.38,0.50,-0.06,0.13,1.01,
1.783,-0.69,0.38,0.50,-0.07,0.13,1.01,
1.783,-0.66,0.41,0.46,-0.07,0.13,1.01,
1.785,-0.66,0.41,0.46,-0.07,0.14,1.01,
1.788,-0.66,0.41,0.46,-0.07,0.14,1.01,
1.788,-0.69,0.44,0.42,-0.07,0.14,1.01,
1.79,-0.69,0.44,0.42,-0.08,0.14,1.01,
1.793,-0.69,0.44,0.42,-0.08,0.14,1.01,
1.794,-0.76,0.48,0.39,-0.08,0.14,1.01,
1.796,-0.76,0.48,0.39,-0.08,0.14,1.01,
1.798,-0.76,0.48,0.39,-0.09,0.14,1.00,
1.798,-0.81,0.47,0.37,-0.09,0.14,1.00,
1.8,-0.81,0.47,0.37,-0.09,0.14,1.00,
1.803,-0.81,0.47,0.37,-0.09,0.15,1.00,
1.803,-0.86,0.49,0.34,-0.09,0.15,1.00,
1.805,-0.86,0.49,0.34,-0.09,0.15,0.99,
1.808,-0.86,0.49,0.34,-0.09,0.15,0.99,
1.808,-0.88,0.54,0.29,-0.09,0.15,0.99,
1.81,-0.88,0.54,0.29,-0.09,0.15,0.98,
1.812,-0.88,0.54,0.29,-0.09,0.16,0.98,
1.813,-0.89,0.59,0.19,-0.09,0.16,0.98,
1.815,-0.89,0.59,0.19,-0.09,0.16,0.98,
1.817,-0.89,0.59,0.19,-0.09,0.16,0.97,
1.817,-0.91,0.63,0.11,-0.09,0.16,0.97,
1.82,-0.91,0.63,0.11,-0.10,0.17,0.97,
1.822,-0.91,0.63,0.11,-0.10,0.17,0.96,
1.823,-0.91,0.70,0.03,-0.10,0.17,0.96,
1.83,-0.91,0.70,0.03,-0.10,0.17,0.96,
1.83,-0.91,0.70,0.03,-0.10,0.17,0.96,
1.831,-0.97,0.74,-0.05,-0.10,0.17,0.96,
1.831,-0.97,0.74,-0.05,-0.11,0.18,0.96,
1.832,-0.97,0.74,-0.05,-0.11,0.18,0.96,
1.833,-1.00,0.77,-0.09,-0.11,0.18,0.96,
1.834,-1.00,0.77,-0.09,-0.11,0.19,0.96,
1.837,-1.00,0.77,-0.09,-0.11,0.19,0.96,
1.837,-1.01,0.86,-0.10,-0.11,0.19,0.96,
1.846,-1.01,0.86,-0.10,-0.12,0.20,0.96,
1.846,-1.05,0.94,-0.11,-0.12,0.20,0.96,
1.846,-1.05,0.94,-0.11,-0.12,0.20,0.96,
1.847,-1.05,0.94,-0.11,-0.12,0.20,0.97,
1.847,-1.05,0.94,-0.11,-0.12,0.21,0.97,
1.847,-1.11,1.03,-0.07,-0.12,0.21,0.97,
1.849,-1.11,1.03,-0.07,-0.12,0.21,0.97,
1.852,-1.11,1.03,-0.07,-0.12,0.22,0.98,
1.852,-1.16,1.09,-0.02,-0.12,0.22,0.98,
1.854,-1.16,1.09,-0.02,-0.12,0.22,0.98,
1.856,-1.16,1.09,-0.02,-0.13,0.22,0.98,
1.857,-1.14,1.16,0.05,-0.13,0.22,0.98,
1.859,-1.14,1.16,0.05,-0.13,0.22,0.99,
1.861,-1.13,1.22,0.11,-0.13,0.22,0.99,
1.862,-1.13,1.22,0.11,-0.12,0.22,0.99,
1.864,-1.13,1.22,0.11,-0.13,0.22,0.99,
1.866,-1.13,1.22,0.11,-0.13,0.22,0.99,
1.867,-1.13,1.24,0.16,-0.13,0.22,0.99,
1.868,-1.13,1.24,0.16,-0.12,0.22,1.00,
1.871,-1.13,1.24,0.16,-0.12,0.21,1.00,
1.872,-1.13,1.21,0.21,-0.12,0.21,1.00,
1.873,-1.13,1.21,0.21,-0.12,0.21,1.00,
1.876,-1.13,1.21,0.21,-0.12,0.20,1.00,
1.877,-1.08,1.15,0.28,-0.12,0.20,1.00,
1.878,-1.08,1.15,0.28,-0.11,0.20,1.00,
1.881,-1.08,1.15,0.28,-0.11,0.20,1.01,
1.881,-1.01,1.06,0.31,-0.11,0.20,1.01,
1.883,-1.01,1.06,0.31,-0.10,0.19,1.01,
1.886,-1.01,1.06,0.31,-0.10,0.19,1.01,
1.886,-0.95,0.98,0.34,-0.10,0.19,1.01,
1.888,-0.95,0.98,0.34,-0.09,0.19,1.01,
1.891,-0.95,0.98,0.34,-0.09,0.18,1.01,
1.892,-0.84,0.90,0.35,-0.09,0.18,1.01,
1.893,-0.84,0.90,0.35,-0.08,0.18,1.01,
1.896,-0.84,0.90,0.35,-0.08,0.18,1.01,
1.896,-0.73,0.83,0.35,-0.08,0.18,1.01,
1.898,-0.73,0.83,0.35,-0.08,0.18,1.01,
1.901,-0.73,0.83,0.35,-0.08,0.17,1.01,
1.901,-0.63,0.78,0.36,-0.08,0.17,1.01,
1.903,-0.63,0.78,0.36,-0.07,0.17,1.01,
1.906,-0.63,0.78,0.36,-0.07,0.17,1.02,
1.906,-0.57,0.73,0.38,-0.07,0.17,1.02,
1.908,-0.57,0.73,0.38,-0.07,0.17,1.02,
1.91,-0.57,0.73,0.38,-0.07,0.17,1.02,
1.911,-0.52,0.66,0.41,-0.07,0.17,1.02,
1.913,-0.52,0.66,0.41,-0.06,0.17,1.02,
1.915,-0.52,0.66,0.41,-0.06,0.17,1.02,
1.916,-0.47,0.65,0.43,-0.06,0.17,1.02,
1.918,-0.47,0.65,0.43,-0.06,0.17,1.03,
1.92,-0.47,0.65,0.43,-0.06,0.17,1.03,
1.92,-0.44,0.66,0.48,-0.06,0.17,1.03,
1.929,-0.44,0.66,0.48,-0.06,0.17,1.03,
1.929,-0.44,0.66,0.48,-0.06,0.17,1.03,
1.93,-0.43,0.66,0.51,-0.06,0.17,1.03,
1.93,-0.43,0.66,0.51,-0.06,0.17,1.03,
1.93,-0.43,0.66,0.51,-0.06,0.17,1.03,
1.93,-0.43,0.69,0.54,-0.06,0.17,1.03,
1.932,-0.43,0.69,0.54,-0.06,0.17,1.03,
1.935,-0.43,0.69,0.54,-0.06,0.17,1.02,
1.935,-0.43,0.69,0.51,-0.06,0.17,1.02,
1.937,-0.43,0.69,0.51,-0.06,0.17,1.02,
1.94,-0.40,0.67,0.47,-0.06,0.17,1.02,
1.94,-0.40,0.67,0.47,-0.06,0.17,1.02,
1.942,-0.40,0.67,0.47,-0.05,0.17,1.01,
1.945,-0.40,0.67,0.47,-0.05,0.17,1.01,
1.945,-0.35,0.69,0.41,-0.05,0.17,1.01,
1.947,-0.35,0.69,0.41,-0.05,0.18,1.00,
1.949,-0.35,0.69,0.41,-0.04,0.18,1.00,
1.95,-0.29,0.69,0.33,-0.04,0.18,1.00,
1.952,-0.29,0.69,0.33,-0.04,0.18,0.99,
1.954,-0.29,0.69,0.33,-0.04,0.18,0.99,
1.955,-0.23,0.70,0.23,-0.04,0.18,0.99,
1.957,-0.23,0.70,0.23,-0.04,0.18,0.98,
1.959,-0.23,0.70,0.23,-0.03,0.18,0.98,
1.96,-0.15,0.72,0.14,-0.03,0.18,0.98,
1.962,-0.15,0.72,0.14,-0.03,0.18,0.97,
1.964,-0.12,0.74,0.04,-0.03,0.18,0.97,
1.965,-0.12,0.74,0.04,-0.03,0.18,0.97,
1.966,-0.12,0.74,0.04,-0.03,0.18,0.97,
1.969,-0.12,0.74,0.04,-0.03,0.18,0.96,
1.969,-0.09,0.72,-0.04,-0.03,0.18,0.96,
1.971,-0.09,0.72,-0.04,-0.03,0.18,0.96,
1.974,-0.09,0.72,-0.04,-0.03,0.19,0.95,
1.975,-0.06,0.70,-0.12,-0.03,0.19,0.95,
1.977,-0.06,0.70,-0.12,-0.03,0.19,0.95,
1.979,-0.06,0.70,-0.12,-0.03,0.19,0.95,
1.98,-0.07,0.72,-0.19,-0.03,0.19,0.95,
1.981,-0.07,0.72,-0.19,-0.03,0.19,0.94,
1.984,-0.07,0.72,-0.19,-0.03,0.19,0.94,
1.984,-0.06,0.73,-0.28,-0.03,0.19,0.94,
1.986,-0.06,0.73,-0.28,-0.03,0.19,0.94,
1.989,-0.06,0.73,-0.28,-0.03,0.19,0.94,
1.99,-0.05,0.76,-0.33,-0.03,0.19,0.94,
1.992,-0.05,0.76,-0.33,-0.03,0.19,0.94,
1.994,-0.05,0.76,-0.33,-0.03,0.20,0.94,
1.994,-0.05,0.75,-0.35,-0.03,0.20,0.94,
1.996,-0.05,0.75,-0.35,-0.03,0.20,0.94,
1.999,-0.05,0.75,-0.35,-0.03,0.20,0.94,
1.999,-0.02,0.78,-0.35,-0.03,0.20,0.94,
2.001,-0.02,0.78,-0.35,-0.02,0.20,0.94,
2.004,-0.02,0.78,-0.35,-0.02,0.20,0.95,
2.004,0.03,0.78,-0.34,-0.02,0.20,0.95,
2.006,0.03,0.78,-0.34,-0.02,0.20,0.95,
2.009,0.03,0.78,-0.34,-0.01,0.19,0.95,
2.009,0.08,0.77,-0.28,-0.01,0.19,0.95,
2.011,0.08,0.77,-0.28,-0.01,0.19,0.96,
2.013,0.08,0.77,-0.28,-0.00,0.19,0.96,
2.013,0.17,0.75,-0.21,-0.00,0.19,0.96,
2.016,0.17,0.75,-0.21,0.00,0.19,0.97,
2.018,0.17,0.75,-0.21,0.01,0.18,0.97,
2.018,0.26,0.70,-0.12,0.01,0.18,0.97,
2.021,0.26,0.70,-0.12,0.02,0.18,0.98,
2.023,0.26,0.70,-0.12,0.02,0.18,0.98,
2.024,0.38,0.66,-0.02,0.02,0.18,0.98,
2.026,0.38,0.66,-0.02,0.02,0.18,0.99,
2.028,0.38,0.66,-0.02,0.03,0.18,0.99,
2.028,0.49,0.62,0.08,0.03,0.18,0.99,
2.03,0.49,0.62,0.08,0.03,0.17,0.99,
2.033,0.49,0.62,0.08,0.04,0.17,0.99,
2.034,0.57,0.58,0.13,0.04,0.17,0.99,
2.035,0.57,0.58,0.13,0.04,0.16,0.99,
2.038,0.57,0.58,0.13,0.04,0.16,0.99,
2.039,0.64,0.49,0.16,0.04,0.16,0.99,
2.048,0.64,0.49,0.16,0.05,0.16,0.99,
2.048,0.64,0.49,0.16,0.05,0.16,0.99,
2.048,0.69,0.44,0.16,0.05,0.16,0.99,
2.048,0.69,0.44,0.16,0.05,0.16,0.99,
2.049,0.69,0.44,0.16,0.06,0.16,0.99,
2.049,0.77,0.41,0.16,0.06,0.16,0.99,
2.05,0.77,0.41,0.16,0.06,0.16,0.99,
2.052,0.77,0.41,0.16,0.07,0.16,0.99,
2.053,0.85,0.39,0.14,0.07,0.16,0.99,
2.055,0.85,0.39,0.14,0.07,0.16,0.98,
2.061,0.85,0.39,0.14,0.07,0.15,0.99,
2.061,0.93,0.38,0.11,0.07,0.15,0.99,
2.061,0.93,0.38,0.11,0.08,0.15,0.99,
2.062,0.93,0.38,0.11,0.08,0.15,0.99,
2.062,0.98,0.34,0.10,0.08,0.15,0.99,
2.064,0.98,0.34,0.10,0.08,0.15,0.99,
2.067,0.98,0.34,0.10,0.08,0.15,0.99,
2.067,1.05,0.29,0.14,0.08,0.15,0.99,
2.069,1.05,0.29,0.14,0.09,0.15,1.00,
2.072,1.05,0.29,0.14,0.09,0.15,1.00,
2.073,1.09,0.28,0.18,0.09,0.15,1.00,
2.074,1.09,0.28,0.18,0.09,0.15,1.01,
2.077,1.09,0.28,0.18,0.10,0.15,1.01,
2.077,1.14,0.26,0.24,0.10,0.15,1.01,
2.079,1.14,0.26,0.24,0.10,0.14,1.02,
2.081,1.14,0.26,0.24,0.10,0.14,1.02,
2.082,1.20,0.27,0.32,0.10,0.14,1.02,
2.084,1.20,0.27,0.32,0.10,0.14,1.03,
2.087,1.26,0.21,0.41,0.10,0.14,1.03,
2.087,1.26,0.21,0.41,0.11,0.14,1.03,
2.089,1.26,0.21,0.41,0.11,0.14,1.04,
2.092,1.26,0.21,0.41,0.11,0.13,1.04,
2.092,1.32,0.18,0.51,0.11,0.13,1.04,
2.094,1.32,0.18,0.51,0.12,0.13,1.04,
2.096,1.32,0.18,0.51,0.12,0.13,1.05,
2.097,1.39,0.14,0.58,0.12,0.13,1.05,
2.099,1.39,0.14,0.58,0.12,0.13,1.05,
2.101,1.39,0.14,0.58,0.13,0.13,1.05,
2.102,1.46,0.11,0.65,0.13,0.13,1.05,
2.104,1.46,0.11,0.65,0.13,0.13,1.06,
2.106,1.46,0.11,0.65,0.13,0.13,1.06,
2.108,1.50,0.10,0.73,0.13,0.13,1.06,
2.109,1.50,0.10,0.73,0.14,0.13,1.06,
2.111,1.50,0.10,0.73,0.14,0.13,1.06,
2.111,1.57,0.10,0.77,0.14,0.13,1.06,
2.113,1.57,0.10,0.77,0.14,0.13,1.06,
2.116,1.57,0.10,0.77,0.14,0.13,1.06,
2.116,1.64,0.12,0.81,0.14,0.13,1.06,
2.119,1.64,0.12,0.81,0.14,0.13,1.06,
2.121,1.64,0.12,0.81,0.15,0.13,1.06,
2.121,1.67,0.13,0.82,0.15,0.13,1.06,
2.124,1.67,0.13,0.82,0.15,0.13,1.06,
2.126,1.67,0.13,0.82,0.15,0.13,1.06,
2.126,1.71,0.11,0.80,0.15,0.13,1.06,
2.128,1.71,0.11,0.80,0.16,0.13,1.06,
2.131,1.71,0.11,0.80,0.16,0.13,1.05,
2.131,1.78,0.10,0.77,0.16,0.13,1.05,
2.133,1.78,0.10,0.77,0.16,0.13,1.05,
2.136,1.78,0.10,0.77,0.16,0.13,1.05,
2.136,1.83,0.11,0.73,0.16,0.13,1.05,
2.138,1.83,0.11,0.73,0.16,0.13,1.05,
2.145,1.83,0.11,0.73,0.16,0.13,1.05,
2.146,1.85,0.10,0.70,0.16,0.13,1.05,
2.146,1.85,0.10,0.70,0.15,0.13,1.04,
2.146,1.85,0.10,0.70,0.15,0.12,1.04,
2.147,1.83,0.05,0.67,0.15,0.12,1.04,
2.148,1.83,0.05,0.67,0.15,0.12,1.04,
2.15,1.83,0.05,0.67,0.15,0.12,1.04,
2.151,1.78,0.00,0.63,0.15,0.12,1.04,
2.153,1.78,0.00,0.63,0.15,0.12,1.04,
2.156,1.78,0.00,0.63,0.15,0.12,1.04,
2.156,1.76,-0.04,0.60,0.15,0.12,1.04,
2.158,1.76,-0.04,0.60,0.15,0.12,1.04,
2.16,1.76,-0.04,0.60,0.15,0.12,1.04,
2.16,1.77,-0.07,0.58,0.15,0.12,1.04,
2.162,1.77,-0.07,0.58,0.15,0.12,1.04,
2.165,1.77,-0.07,0.58,0.15,0.13,1.05,
2.165,1.77,-0.05,0.59,0.15,0.13,1.05,
2.167,1.77,-0.05,0.59,0.15,0.13,1.05,
2.17,1.77,-0.05,0.59,0.15,0.12,1.05,
2.17,1.76,-0.03,0.63,0.15,0.12,1.05,
2.173,1.76,-0.03,0.63,0.14,0.12,1.05,
2.175,1.76,-0.03,0.63,0.14,0.12,1.05,
2.176,1.70,-0.02,0.68,0.14,0.12,1.05,
2.177,1.70,-0.02,0.68,0.13,0.12,1.05,
2.18,1.70,-0.02,0.68,0.13,0.12,1.05,
2.18,1.62,-0.06,0.68,0.13,0.12,1.05,
2.182,1.62,-0.06,0.68,0.13,0.12,1.04,
2.185,1.62,-0.06,0.68,0.13,0.12,1.04,
2.185,1.56,-0.10,0.67,0.13,0.12,1.04,
2.187,1.56,-0.10,0.67,0.13,0.12,1.03,
2.189,1.56,-0.10,0.67,0.13,0.11,1.03,
2.19,1.52,-0.12,0.59,0.13,0.11,1.03,
2.192,1.52,-0.12,0.59,0.13,0.11,1.02,
2.195,1.52,-0.12,0.59,0.14,0.11,1.02,
2.197,1.51,-0.15,0.50,0.14,0.11,1.02,
2.197,1.51,-0.15,0.50,0.14,0.11,1.01,
2.199,1.51,-0.15,0.50,0.14,0.11,1.00,
2.199,1.53,-0.20,0.38,0.14,0.11,1.00,
2.201,1.53,-0.20,0.38,0.14,0.11,1.00,
2.204,1.53,-0.20,0.38,0.14,0.11,1.00,
2.204,1.55,-0.21,0.26,0.14,0.11,1.00,
2.206,1.55,-0.21,0.26,0.14,0.10,0.99,
2.209,1.55,-0.21,0.26,0.14,0.10,0.99,
2.21,1.55,-0.24,0.17,0.14,0.10,0.99,
2.211,1.55,-0.24,0.17,0.14,0.09,0.99,
2.214,1.55,-0.24,0.17,0.14,0.09,0.99,
2.214,1.54,-0.30,0.12,0.14,0.09,0.99,
2.216,1.54,-0.30,0.12,0.14,0.09,0.99,
2.219,1.54,-0.30,0.12,0.15,0.08,0.98,
2.219,1.55,-0.39,0.07,0.15,0.08,0.98,
2.221,1.55,-0.39,0.07,0.15,0.08,0.98,
2.224,1.55,-0.39,0.07,0.15,0.08,0.98,
2.225,1.56,-0.47,0.05,0.15,0.08,0.98,
2.227,1.56,-0.47,0.05,0.15,0.08,0.98,
2.229,1.59,-0.51,0.04,0.15,0.08,0.98,
2.229,1.59,-0.51,0.04,0.16,0.08,0.98,
2.231,1.59,-0.51,0.04,0.16,0.08,0.98,
2.234,1.59,-0.51,0.04,0.15,0.08,0.99,
2.234,1.63,-0.51,0.03,0.15,0.08,0.99,
2.236,1.63,-0.51,0.03,0.15,0.08,0.99,
2.244,1.63,-0.51,0.03,0.15,0.08,0.99,
2.245,1.61,-0.52,0.06,0.15,0.08,0.99,
2.245,1.61,-0.52,0.06,0.14,0.07,0.99,
2.245,1.61,-0.52,0.06,0.14,0.07,1.00,
2.246,1.52,-0.55,0.10,0.14,0.07,1.00,
2.246,1.52,-0.55,0.10,0.13,0.07,1.00,
2.248,1.52,-0.55,0.10,0.13,0.08,1.00,
2.249,1.44,-0.59,0.16,0.13,0.08,1.00,
2.25,1.44,-0.59,0.16,0.13,0.07,1.00,
2.253,1.44,-0.59,0.16,0.13,0.07,1.00,
2.253,1.36,-0.59,0.18,0.13,0.07,1.00,
2.259,1.36,-0.59,0.18,0.12,0.07,0.99,
2.259,1.36,-0.59,0.18,0.12,0.07,0.99,
2.259,1.31,-0.62,0.17,0.12,0.07,0.99,
2.261,1.31,-0.62,0.17,0.12,0.07,0.98,
2.263,1.23,-0.63,0.12,0.12,0.07,0.98,
2.263,1.23,-0.63,0.12,0.12,0.07,0.98,
2.265,1.23,-0.63,0.12,0.12,0.07,0.97,
2.268,1.23,-0.63,0.12,0.12,0.07,0.97,
2.268,1.17,-0.67,0.02,0.12,0.07,0.97,
2.27,1.17,-0.67,0.02,0.12,0.06,0.96,
2.273,1.17,-0.67,0.02,0.12,0.06,0.95,
2.273,1.16,-0.69,-0.09,0.12,0.06,0.95,
2.275,1.16,-0.69,-0.09,0.12,0.06,0.95,
2.278,1.16,-0.69,-0.09,0.12,0.06,0.94,
2.278,1.15,-0.74,-0.22,0.12,0.06,0.94,
2.28,1.15,-0.74,-0.22,0.12,0.06,0.94,
2.282,1.15,-0.74,-0.22,0.12,0.06,0.94,
2.283,1.15,-0.75,-0.31,0.12,0.06,0.94,
2.285,1.15,-0.75,-0.31,0.12,0.06,0.93,
2.287,1.15,-0.75,-0.31,0.13,0.06,0.93,
2.287,1.16,-0.77,-0.40,0.13,0.06,0.93,
2.29,1.16,-0.77,-0.40,0.12,0.06,0.92,
2.292,1.16,-0.77,-0.40,0.12,0.06,0.92,
2.293,1.15,-0.80,-0.47,0.12,0.06,0.92,
2.295,1.15,-0.80,-0.47,0.12,0.06,0.92,
2.297,1.15,-0.80,-0.47,0.11,0.06,0.92,
2.297,1.10,-0.79,-0.54,0.11,0.06,0.92,
2.299,1.10,-0.79,-0.54,0.11,0.06,0.92,
2.302,1.10,-0.79,-0.54,0.11,0.06,0.92,
2.302,1.04,-0.81,-0.54,0.11,0.06,0.92,
2.306,1.04,-0.81,-0.54,0.10,0.06,0.92,
2.307,1.04,-0.81,-0.54,0.10,0.06,0.93,
2.307,0.95,-0.78,-0.53,0.10,0.06,0.93,
2.309,0.95,-0.78,-0.53,0.09,0.06,0.93,
2.312,0.95,-0.78,-0.53,0.09,0.06,0.93,
2.312,0.87,-0.78,-0.51,0.09,0.06,0.93,
2.314,0.87,-0.78,-0.51,0.09,0.06,0.93,
2.317,0.87,-0.78,-0.51,0.08,0.06,0.93,
2.317,0.77,-0.74,-0.46,0.08,0.06,0.93,
2.319,0.77,-0.74,-0.46,0.08,0.06,0.93,
2.323,0.77,-0.74,-0.46,0.08,0.06,0.94,
2.323,0.69,-0.75,-0.45,0.08,0.06,0.94,
2.324,0.69,-0.75,-0.45,0.08,0.06,0.94,
2.327,0.69,-0.75,-0.45,0.08,0.06,0.94,
2.327,0.60,-0.74,-0.43,0.08,0.06,0.94,
2.329,0.60,-0.74,-0.43,0.08,0.06,0.94,
2.332,0.60,-0.74,-0.43,0.08,0.06,0.94,
2.332,0.60,-0.75,-0.40,0.08,0.06,0.94,
2.334,0.60,-0.75,-0.40,0.08,0.06,0.94,
2.336,0.60,-0.75,-0.40,0.08,0.06,0.94,
2.337,0.61,-0.74,-0.38,0.08,0.06,0.94,
2.339,0.61,-0.74,-0.38,0.08,0.06,0.94,
2.341,0.61,-0.74,-0.38,0.08,0.06,0.94,
2.342,0.61,-0.77,-0.37,0.08,0.06,0.94,
2.343,0.61,-0.77,-0.37,0.08,0.05,0.94,
2.346,0.61,-0.77,-0.37,0.08,0.05,0.94,
2.347,0.58,-0.82,-0.38,0.08,0.05,0.94,
2.348,0.58,-0.82,-0.38,0.08,0.05,0.93,
2.351,0.58,-0.82,-0.38,0.08,0.05,0.93,
2.351,0.58,-0.87,-0.40,0.08,0.05,0.93,
2.353,0.58,-0.87,-0.40,0.09,0.05,0.93,
2.361,0.58,-0.87,-0.40,0.09,0.04,0.93,
2.361,0.62,-0.92,-0.43,0.09,0.04,0.93,
2.363,0.62,-0.92,-0.43,0.09,0.04,0.93,
2.364,0.62,-0.92,-0.43,0.09,0.05,0.92,
2.364,0.66,-0.95,-0.48,0.09,0.05,0.92,
2.364,0.66,-0.95,-0.48,0.10,0.04,0.92,
2.366,0.66,-0.95,-0.48,0.10,0.04,0.92,
2.366,0.70,-0.95,-0.51,0.10,0.04,0.92,
2.368,0.70,-0.95,-0.51,0.09,0.05,0.92,
2.371,0.70,-0.95,-0.51,0.09,0.05,0.92,
2.371,0.74,-0.95,-0.54,0.09,0.05,0.92,
2.375,0.74,-0.95,-0.54,0.09,0.05,0.92,
2.376,0.74,-0.95,-0.54,0.09,0.05,0.92,
2.376,0.68,-0.94,-0.55,0.09,0.05,0.92,
2.378,0.68,-0.94,-0.55,0.08,0.05,0.93,
2.38,0.63,-0.94,-0.52,0.08,0.05,0.93,
2.381,0.63,-0.94,-0.52,0.08,0.05,0.93,
2.382,0.63,-0.94,-0.52,0.08,0.05,0.93,
2.385,0.63,-0.94,-0.52,0.07,0.05,0.93,
2.385,0.57,-0.91,-0.49,0.07,0.05,0.93,
2.389,0.57,-0.91,-0.49,0.07,0.06,0.93,
2.391,0.57,-0.91,-0.49,0.07,0.06,0.93,
2.391,0.50,-0.88,-0.48,0.07,0.06,0.93,
2.393,0.50,-0.88,-0.48,0.06,0.06,0.93,
2.396,0.50,-0.88,-0.48,0.06,0.06,0.93,
2.396,0.44,-0.82,-0.46,0.06,0.06,0.93,
2.398,0.44,-0.82,-0.46,0.06,0.07,0.93,
2.4,0.44,-0.82,-0.46,0.05,0.07,0.94,
2.4,0.37,-0.78,-0.43,0.05,0.07,0.94,
2.402,0.37,-0.78,-0.43,0.05,0.07,0.94,
2.405,0.37,-0.78,-0.43,0.05,0.08,0.94,
2.406,0.29,-0.70,-0.41,0.05,0.08,0.94,
2.407,0.29,-0.70,-0.41,0.05,0.07,0.94,
2.41,0.29,-0.70,-0.41,0.05,0.07,0.94,
2.41,0.24,-0.65,-0.38,0.05,0.07,0.94,
2.412,0.24,-0.65,-0.38,0.05,0.07,0.94,
2.415,0.24,-0.65,-0.38,0.05,0.08,0.94,
2.415,0.23,-0.64,-0.34,0.05,0.08,0.94,
2.417,0.23,-0.64,-0.34,0.05,0.07,0.94,
2.42,0.23,-0.64,-0.34,0.05,0.07,0.94,
2.42,0.23,-0.64,-0.34,0.05,0.07,0.94,
2.422,0.23,-0.64,-0.34,0.06,0.07,0.93,
2.424,0.23,-0.64,-0.34,0.06,0.07,0.93,
2.425,0.25,-0.66,-0.37,0.06,0.07,0.93,
2.427,0.25,-0.66,-0.37,0.06,0.07,0.93,
2.429,0.25,-0.66,-0.37,0.07,0.07,0.92,
2.43,0.30,-0.67,-0.42,0.07,0.07,0.92,
2.432,0.30,-0.67,-0.42,0.07,0.07,0.92,
2.434,0.30,-0.67,-0.42,0.07,0.07,0.92,
2.435,0.38,-0.67,-0.49,0.07,0.07,0.92,
2.437,0.38,-0.67,-0.49,0.07,0.08,0.92,
2.444,0.38,-0.67,-0.49,0.07,0.08,0.92,
2.444,0.44,-0.65,-0.55,0.07,0.08,0.92,
2.445,0.44,-0.65,-0.55,0.07,0.08,0.92,
2.445,0.44,-0.65,-0.55,0.07,0.08,0.92,
2.445,0.45,-0.61,-0.58,0.07,0.08,0.92,
2.446,0.45,-0.61,-0.58,0.07,0.08,0.92,
2.449,0.45,-0.61,-0.58,0.06,0.08,0.92,
2.45,0.45,-0.58,-0.58,0.06,0.08,0.92,
2.451,0.45,-0.58,-0.58,0.06,0.09,0.93,
2.454,0.45,-0.58,-0.58,0.05,0.09,0.94,
2.455,0.38,-0.55,-0.52,0.05,0.09,0.94,
2.457,0.38,-0.55,-0.52,0.05,0.10,0.94,
2.459,0.30,-0.48,-0.43,0.05,0.10,0.94,
2.46,0.30,-0.48,-0.43,0.04,0.10,0.94,
2.461,0.30,-0.48,-0.43,0.03,0.11,0.95,
2.464,0.30,-0.48,-0.43,0.03,0.11,0.96,
2.464,0.18,-0.38,-0.33,0.03,0.11,0.96,
2.466,0.18,-0.38,-0.33,0.02,0.11,0.96,
2.469,0.18,-0.38,-0.33,0.01,0.12,0.97,
2.469,0.05,-0.29,-0.21,0.01,0.12,0.97,
2.471,0.05,-0.29,-0.21,0.01,0.12,0.97,
2.473,0.05,-0.29,-0.21,0.00,0.12,0.98,
2.473,-0.08,-0.21,-0.09,0.00,0.12,0.98,
2.476,-0.08,-0.21,-0.09,-0.00,0.13,0.98,
2.478,-0.08,-0.21,-0.09,-0.01,0.13,0.98,
2.478,-0.18,-0.14,-0.00,-0.01,0.13,0.98,
2.48,-0.18,-0.14,-0.00,-0.01,0.13,0.99,
2.483,-0.18,-0.14,-0.00,-0.01,0.13,0.99,
2.483,-0.27,-0.09,0.08,-0.01,0.13,0.99,
2.485,-0.27,-0.09,0.08,-0.01,0.13,0.99,
2.488,-0.27,-0.09,0.08,-0.01,0.13,0.99,
2.488,-0.31,-0.05,0.13,-0.01,0.13,0.99,
2.49,-0.31,-0.05,0.13,-0.00,0.13,0.99,
2.493,-0.31,-0.05,0.13,-0.00,0.13,0.99,
2.493,-0.31,-0.04,0.16,-0.00,0.13,0.99,
2.495,-0.31,-0.04,0.16,-0.00,0.13,0.99,
2.498,-0.31,-0.04,0.16,-0.00,0.13,0.99,
2.499,-0.26,-0.02,0.16,-0.00,0.13,0.99,
2.501,-0.26,-0.02,0.16,0.00,0.13,0.99,
2.503,-0.26,-0.02,0.16,0.01,0.13,0.99,
2.503,-0.25,-0.05,0.15,0.01,0.13,0.99,
2.505,-0.25,-0.05,0.15,0.01,0.13,0.99,
2.508,-0.25,-0.05,0.15,0.01,0.12,0.99,
2.508,-0.19,-0.06,0.12,0.01,0.12,0.99,
2.51,-0.19,-0.06,0.12,0.01,0.12,0.98,
2.513,-0.19,-0.06,0.12,0.02,0.12,0.98,
2.513,-0.13,-0.09,0.10,0.02,0.12,0.98,
2.515,-0.13,-0.09,0.10,0.02,0.12,0.98,
2.518,-0.13,-0.09,0.10,0.02,0.12,0.98,
2.518,-0.08,-0.11,0.08,0.02,0.12,0.98,
2.52,-0.08,-0.11,0.08,0.02,0.12,0.98,
2.523,-0.08,-0.11,0.08,0.02,0.12,0.98,
2.523,-0.01,-0.13,0.06,0.02,0.12,0.98,
2.525,-0.01,-0.13,0.06,0.02,0.12,0.99,
2.528,0.01,-0.11,0.07,0.02,0.12,0.99,
2.528,0.01,-0.11,0.07,0.02,0.12,0.98,
2.53,0.01,-0.11,0.07,0.02,0.12,0.98,
2.532,0.01,-0.11,0.07,0.02,0.12,0.98,
2.532,0.01,-0.12,0.07,0.02,0.12,0.98,
2.535,0.01,-0.12,0.07,0.02,0.12,0.99,
2.544,0.01,-0.12,0.07,0.02,0.12,0.99,
2.544,0.01,-0.13,0.07,0.02,0.12,0.99,
2.544,0.01,-0.13,0.07,0.01,0.12,0.99,
2.545,0.01,-0.13,0.07,0.01,0.12,0.98,
2.545,-0.05,-0.14,0.08,0.01,0.12,0.98,
2.545,-0.05,-0.14,0.08,0.01,0.12,0.98,
2.547,-0.05,-0.14,0.08,0.01,0.12,0.98,
2.547,-0.11,-0.13,0.07,0.01,0.12,0.98,
2.549,-0.11,-0.13,0.07,0.01,0.12,0.98,
2.552,-0.14,-0.10,0.05,0.01,0.12,0.98,
2.552,-0.14,-0.10,0.05,0.01,0.13,0.98,
2.555,-0.14,-0.10,0.05,0.01,0.13,0.98,
2.557,-0.14,-0.10,0.05,0.01,0.13,0.98,
2.557,-0.15,-0.05,0.04,0.01,0.13,0.98,
2.559,-0.15,-0.05,0.04,0.01,0.13,0.98,
2.561,-0.15,-0.05,0.04,0.00,0.14,0.98,
2.562,-0.15,0.01,0.03,0.00,0.14,0.98,
2.564,-0.15,0.01,0.03,0.00,0.14,0.98,
2.566,-0.15,0.01,0.03,0.00,0.13,0.98,
2.567,-0.18,0.04,0.03,0.00,0.13,0.98,
2.569,-0.18,0.04,0.03,0.00,0.13,0.98,
2.572,-0.18,0.04,0.03,0.00,0.13,0.98,
2.572,-0.19,0.05,0.03,0.00,0.13,0.98,
2.574,-0.19,0.05,0.03,0.00,0.13,0.98,
2.576,-0.19,0.05,0.03,0.01,0.13,0.98,
2.577,-0.18,0.02,0.01,0.01,0.13,0.98,
2.578,-0.18,0.02,0.01,0.01,0.13,0.98,
2.581,-0.18,0.02,0.01,0.01,0.13,0.98,
2.581,-0.18,0.03,0.00,0.01,0.13,0.98,
2.583,-0.18,0.03,0.00,0.01,0.13,0.98,
2.586,-0.18,0.03,0.00,0.01,0.13,0.98,
2.586,-0.15,0.03,0.00,0.01,0.13,0.98,
2.588,-0.15,0.03,0.00,0.01,0.13,0.98,
2.591,-0.15,0.03,0.00,0.01,0.13,0.97,
2.592,-0.08,0.04,-0.02,0.01,0.13,0.97,
2.594,-0.08,0.04,-0.02,0.01,0.13,0.97,
2.596,-0.08,0.04,-0.02,0.02,0.13,0.97,
2.596,-0.08,0.04,-0.03,0.02,0.13,0.97,
2.598,-0.08,0.04,-0.03,0.02,0.13,0.97,
2.601,-0.08,0.04,-0.03,0.02,0.13,0.97,
2.601,-0.07,-0.01,-0.06,0.02,0.13,0.97,
2.603,-0.07,-0.01,-0.06,0.02,0.13,0.97,
2.606,-0.07,-0.01,-0.06,0.02,0.13,0.96,
2.607,-0.03,-0.02,-0.09,0.02,0.13,0.96,
2.608,-0.03,-0.02,-0.09,0.02,0.13,0.96,
2.611,-0.03,-0.02,-0.09,0.02,0.13,0.96,
2.611,-0.01,-0.02,-0.13,0.02,0.13,0.96,
2.613,-0.01,-0.02,-0.13,0.02,0.13,0.96,
2.615,-0.01,-0.02,-0.13,0.03,0.13,0.96,
2.616,0.01,-0.02,-0.14,0.03,0.13,0.96,
2.618,0.01,-0.02,-0.14,0.02,0.13,0.96,
2.622,0.01,-0.02,-0.14,0.02,0.12,0.93,
2.623,0.02,-0.00,-0.13,0.02,0.12,0.93,
2.623,0.02,-0.00,-0.13,0.03,0.12,0.87,
2.626,0.02,-0.00,-0.13,0.03,0.12,0.82,
2.627,-0.00,-0.03,-0.30,0.03,0.12,0.82,
2.628,-0.00,-0.03,-0.30,0.04,0.12,0.83,
2.631,-0.00,-0.03,-0.30,0.03,0.13,0.86,
2.631,0.09,-0.09,-1.31,0.03,0.13,0.86,
2.632,0.09,-0.09,-1.31,0.02,0.12,0.89,
2.635,0.09,-0.09,-1.31,0.02,0.12,0.91,
2.635,0.11,-0.01,-1.28,0.02,0.12,0.91,
2.638,0.11,-0.01,-1.28,0.02,0.11,0.91,
2.64,-0.02,-0.03,-0.74,0.02,0.11,0.91,
2.64,-0.02,-0.03,-0.74,0.02,0.10,0.91,
2.642,-0.02,-0.03,-0.74,0.02,0.10,0.90,
2.645,-0.02,-0.03,-0.74,0.03,0.10,0.90,
2.645,-0.05,-0.15,-0.67,0.03,0.10,0.90,
2.647,-0.05,-0.15,-0.67,0.04,0.11,0.91,
2.65,-0.05,-0.15,-0.67,0.04,0.11,0.92,
2.65,0.05,-0.16,-0.69,0.04,0.11,0.92,
2.652,0.05,-0.16,-0.69,0.04,0.11,0.93,
2.659,0.05,-0.16,-0.69,0.04,0.11,0.94,
2.66,0.16,-0.12,-0.61,0.04,0.11,0.94,
2.66,0.16,-0.12,-0.61,0.05,0.10,0.96,
2.66,0.16,-0.12,-0.61,0.05,0.10,0.98,
2.66,0.21,-0.10,-0.37,0.05,0.10,0.98,
2.662,0.21,-0.10,-0.37,0.05,0.10,1.00,
2.664,0.21,-0.10,-0.37,0.04,0.09,1.02,
2.665,0.25,-0.13,-0.04,0.04,0.09,1.02,
2.667,0.25,-0.13,-0.04,0.04,0.09,1.04,
2.669,0.25,-0.13,-0.04,0.04,0.09,1.06,
2.669,0.22,-0.17,0.31,0.04,0.09,1.06,
2.672,0.22,-0.17,0.31,0.03,0.09,1.08,
2.674,0.22,-0.17,0.31,0.03,0.08,1.09,
2.674,0.15,-0.23,0.72,0.03,0.08,1.09,
2.676,0.15,-0.23,0.72,0.04,0.08,1.10,
2.679,0.15,-0.23,0.72,0.04,0.09,1.10,
2.679,0.10,-0.27,1.08,0.04,0.09,1.10,
2.681,0.10,-0.27,1.08,0.05,0.09,1.09,
2.684,0.10,-0.27,1.08,0.05,0.09,1.08,
2.685,0.16,-0.27,1.19,0.05,0.09,1.08,
2.686,0.16,-0.27,1.19,0.06,0.09,1.07,
2.689,0.16,-0.27,1.19,0.06,0.09,1.07,
2.689,0.26,-0.24,1.06,0.06,0.09,1.07,
2.691,0.26,-0.24,1.06,0.06,0.09,1.06,
2.694,0.26,-0.24,1.06,0.06,0.08,1.05,
2.694,0.33,-0.24,0.90,0.06,0.08,1.05,
2.696,0.33,-0.24,0.90,0.06,0.08,1.04,
2.699,0.33,-0.24,0.90,0.06,0.08,1.04,
2.699,0.37,-0.25,0.73,0.06,0.08,1.04,
2.701,0.37,-0.25,0.73,0.05,0.08,1.03,
2.704,0.37,-0.25,0.73,0.05,0.08,1.02,
2.704,0.31,-0.29,0.59,0.05,0.08,1.02,
