
time,ax,ay,az,gFx,gFy,gFz,
0.002,0.03,-0.05,0.22,-0.03,0.09,0.99,
0.002,0.01,-0.01,0.18,-0.03,0.09,0.99,
0.003,0.01,-0.01,0.18,-0.03,0.09,0.99,
0.004,0.01,-0.01,0.18,-0.03,0.09,0.99,
0.004,-0.01,0.03,0.13,-0.03,0.09,0.99,
0.006,-0.01,0.03,0.13,-0.03,0.09,0.99,
0.009,-0.01,0.03,0.13,-0.03,0.09,0.99,
0.009,-0.02,0.04,0.12,-0.03,0.09,0.99,
0.011,-0.02,0.04,0.12,-0.03,0.09,0.99,
0.015,-0.02,0.04,0.12,-0.03,0.09,0.99,
0.015,-0.02,0.07,0.08,-0.03,0.09,0.99,
0.016,-0.02,0.07,0.08,-0.03,0.09,0.99,
0.018,-0.02,0.07,0.08,-0.03,0.09,0.98,
0.019,-0.03,0.08,0.06,-0.03,0.09,0.98,
0.021,-0.03,0.08,0.06,-0.03,0.09,0.98,
0.023,-0.03,0.08,0.06,-0.03,0.09,0.98,
0.023,-0.02,0.07,0.05,-0.03,0.09,0.98,
0.026,-0.02,0.07,0.05,-0.02,0.09,0.98,
0.028,-0.02,0.07,0.05,-0.02,0.09,0.98,
0.028,-0.02,0.06,0.01,-0.02,0.09,0.98,
0.031,-0.02,0.06,0.01,-0.02,0.09,0.97,
0.033,-0.02,0.06,0.01,-0.02,0.09,0.97,
0.033,0.01,0.07,-0.02,-0.02,0.09,0.97,
0.035,0.01,0.07,-0.02,-0.02,0.09,0.97,
0.038,0.01,0.07,-0.02,-0.02,0.09,0.97,
0.039,0.01,0.05,-0.07,-0.02,0.09,0.97,
0.04,0.01,0.05,-0.07,-0.02,0.09,0.97,
0.043,0.01,0.05,-0.07,-0.02,0.09,0.97,
0.043,0.01,0.04,-0.10,-0.02,0.09,0.97,
0.045,0.01,0.04,-0.10,-0.02,0.09,0.97,
0.048,0.01,0.04,-0.10,-0.02,0.09,0.97,
0.048,0.03,0.03,-0.12,-0.02,0.09,0.97,
0.051,0.03,0.03,-0.12,-0.02,0.09,0.97,
0.053,0.03,0.03,-0.12,-0.02,0.09,0.97,
0.053,0.04,0.02,-0.14,-0.02,0.09,0.97,
0.055,0.04,0.02,-0.14,-0.02,0.09,0.97,
0.058,0.04,0.02,-0.14,-0.02,0.09,0.97,
0.058,0.06,0.03,-0.13,-0.02,0.09,0.97,
0.06,0.06,0.03,-0.13,-0.02,0.08,0.97,
0.063,0.06,0.03,-0.13,-0.02,0.08,0.97,
0.063,0.04,0.00,-0.13,-0.02,0.08,0.97,
0.07,0.04,0.00,-0.13,-0.02,0.08,0.97,
0.071,0.04,0.00,-0.13,-0.02,0.08,0.97,
0.071,-0.01,-0.04,-0.12,-0.02,0.08,0.97,
0.071,-0.01,-0.04,-0.12,-0.02,0.08,0.97,
0.073,-0.01,-0.04,-0.12,-0.02,0.08,0.97,
0.073,-0.00,-0.06,-0.12,-0.02,0.08,0.97,
0.075,-0.00,-0.06,-0.12,-0.02,0.08,0.97,
0.077,-0.00,-0.06,-0.12,-0.03,0.09,0.97,
0.077,0.01,-0.05,-0.09,-0.03,0.09,0.97,
0.08,0.01,-0.05,-0.09,-0.03,0.08,0.98,
0.082,0.01,-0.05,-0.09,-0.03,0.09,0.98,
0.082,-0.01,-0.04,-0.06,-0.03,0.09,0.98,
0.085,-0.01,-0.04,-0.06,-0.03,0.09,0.98,
0.087,-0.01,-0.04,-0.06,-0.04,0.09,0.98,
0.088,-0.05,-0.03,-0.01,-0.04,0.09,0.98,
0.09,-0.05,-0.03,-0.01,-0.04,0.09,0.98,
0.092,-0.05,-0.03,-0.01,-0.04,0.09,0.99,
0.092,-0.12,0.00,0.01,-0.04,0.09,0.99,
0.094,-0.12,0.00,0.01,-0.04,0.09,0.99,
0.097,-0.12,0.00,0.01,-0.04,0.09,0.98,
0.098,-0.16,0.01,0.06,-0.04,0.09,0.98,
0.099,-0.16,0.01,0.06,-0.03,0.09,0.98,
0.102,-0.16,0.01,0.06,-0.03,0.09,0.98,
0.102,-0.13,0.04,0.05,-0.03,0.09,0.98,
0.104,-0.13,0.04,0.05,-0.03,0.10,0.98,
0.107,-0.13,0.04,0.05,-0.03,0.10,0.98,
0.107,-0.07,0.05,0.03,-0.03,0.10,0.98,
0.109,-0.07,0.05,0.03,-0.03,0.10,0.97,
0.111,-0.07,0.05,0.03,-0.02,0.10,0.97,
0.112,-0.06,0.07,-0.02,-0.02,0.10,0.97,
0.114,-0.06,0.07,-0.02,-0.02,0.10,0.96,
0.116,-0.02,0.08,-0.08,-0.02,0.10,0.96,
0.117,-0.02,0.08,-0.08,-0.02,0.10,0.96,
0.119,-0.02,0.08,-0.08,-0.02,0.09,0.96,
0.121,-0.02,0.08,-0.08,-0.02,0.09,0.95,
0.121,0.00,0.07,-0.15,-0.02,0.09,0.95,
0.124,0.00,0.07,-0.15,-0.02,0.09,0.95,
0.126,0.00,0.07,-0.15,-0.02,0.09,0.95,
0.126,0.01,0.04,-0.22,-0.02,0.09,0.95,
0.128,0.01,0.04,-0.22,-0.02,0.09,0.94,
0.131,0.01,0.04,-0.22,-0.02,0.09,0.94,
0.132,-0.01,0.04,-0.30,-0.02,0.09,0.94,
0.133,-0.01,0.04,-0.30,-0.02,0.09,0.94,
0.136,-0.01,0.04,-0.30,-0.02,0.08,0.94,
0.136,0.02,0.01,-0.35,-0.02,0.08,0.94,
0.138,0.02,0.01,-0.35,-0.02,0.08,0.94,
0.141,0.02,0.01,-0.35,-0.02,0.08,0.94,
0.142,0.02,-0.03,-0.38,-0.02,0.08,0.94,
0.143,0.02,-0.03,-0.38,-0.02,0.08,0.94,
0.146,0.02,-0.03,-0.38,-0.02,0.08,0.94,
0.146,0.03,-0.07,-0.37,-0.02,0.08,0.94,
0.154,0.03,-0.07,-0.37,-0.02,0.08,0.94,
0.154,0.03,-0.07,-0.37,-0.02,0.08,0.95,
0.154,0.04,-0.10,-0.36,-0.02,0.08,0.95,
0.154,0.04,-0.10,-0.36,-0.02,0.08,0.95,
0.155,0.04,-0.10,-0.36,-0.01,0.07,0.95,
0.156,0.05,-0.11,-0.32,-0.01,0.07,0.95,
0.158,0.05,-0.11,-0.32,-0.01,0.07,0.95,
0.16,0.05,-0.11,-0.32,-0.02,0.07,0.96,
0.161,0.05,-0.12,-0.27,-0.02,0.07,0.96,
0.163,0.05,-0.12,-0.27,-0.02,0.08,0.96,
0.165,0.05,-0.12,-0.27,-0.02,0.08,0.97,
0.165,0.06,-0.12,-0.21,-0.02,0.08,0.97,
0.168,0.06,-0.12,-0.21,-0.01,0.08,0.97,
0.17,0.06,-0.12,-0.21,-0.01,0.08,0.98,
0.17,0.05,-0.10,-0.12,-0.01,0.08,0.98,
0.172,0.05,-0.10,-0.12,-0.01,0.08,0.98,
0.175,0.05,-0.10,-0.12,-0.02,0.08,0.98,
0.176,0.07,-0.09,-0.03,-0.02,0.08,0.98,
0.178,0.07,-0.09,-0.03,-0.02,0.08,0.98,
0.18,0.07,-0.09,-0.03,-0.02,0.08,0.98,
0.181,0.05,-0.06,0.01,-0.02,0.08,0.98,
0.183,0.05,-0.06,0.01,-0.02,0.08,0.98,
0.185,0.05,-0.06,0.01,-0.02,0.08,0.98,
0.185,0.05,-0.06,0.04,-0.02,0.08,0.98,
0.187,0.05,-0.06,0.04,-0.01,0.08,0.98,
0.19,0.05,-0.06,0.04,-0.01,0.08,0.97,
0.19,0.04,-0.06,0.01,-0.01,0.08,0.97,
0.192,0.04,-0.06,0.01,-0.01,0.08,0.97,
0.195,0.04,-0.06,0.01,-0.01,0.08,0.97,
0.195,0.08,-0.06,-0.02,-0.01,0.08,0.97,
0.197,0.08,-0.06,-0.02,-0.01,0.08,0.97,
0.2,0.08,-0.06,-0.02,-0.01,0.08,0.96,
0.2,0.11,-0.08,-0.05,-0.01,0.08,0.96,
0.202,0.11,-0.08,-0.05,-0.00,0.08,0.96,
0.205,0.11,-0.08,-0.05,-0.00,0.08,0.95,
0.205,0.14,-0.08,-0.13,-0.00,0.08,0.95,
0.207,0.14,-0.08,-0.13,-0.00,0.08,0.95,
0.21,0.14,-0.08,-0.13,-0.00,0.08,0.95,
0.21,0.17,-0.10,-0.20,-0.00,0.08,0.95,
0.212,0.17,-0.10,-0.20,-0.00,0.08,0.95,
0.214,0.17,-0.10,-0.20,-0.00,0.08,0.95,
0.215,0.19,-0.10,-0.25,-0.00,0.08,0.95,
0.217,0.19,-0.10,-0.25,-0.01,0.08,0.94,
0.219,0.19,-0.10,-0.25,-0.01,0.07,0.94,
0.219,0.18,-0.10,-0.29,-0.01,0.07,0.94,
0.221,0.18,-0.10,-0.29,-0.01,0.08,0.94,
0.224,0.18,-0.10,-0.29,-0.01,0.08,0.95,
0.224,0.14,-0.10,-0.32,-0.01,0.08,0.95,
0.227,0.14,-0.10,-0.32,-0.01,0.08,0.95,
0.229,0.14,-0.10,-0.32,-0.01,0.08,0.95,
0.229,0.12,-0.10,-0.30,-0.01,0.08,0.95,
0.231,0.12,-0.10,-0.30,-0.02,0.08,0.96,
0.234,0.12,-0.10,-0.30,-0.02,0.08,0.96,
0.234,0.09,-0.08,-0.24,-0.02,0.08,0.96,
0.236,0.09,-0.08,-0.24,-0.02,0.08,0.96,
0.239,0.09,-0.08,-0.24,-0.02,0.08,0.97,
0.239,0.06,-0.09,-0.17,-0.02,0.08,0.97,
0.241,0.06,-0.09,-0.17,-0.02,0.08,0.97,
0.244,0.06,-0.09,-0.17,-0.02,0.08,0.97,
0.244,0.04,-0.08,-0.11,-0.02,0.08,0.97,
0.248,0.04,-0.08,-0.11,-0.02,0.08,0.98,
0.249,0.04,-0.08,-0.11,-0.02,0.08,0.98,
0.249,0.02,-0.10,-0.05,-0.02,0.08,0.98,
0.251,0.02,-0.10,-0.05,-0.03,0.08,0.98,
0.253,0.02,-0.10,-0.05,-0.03,0.08,0.99,
0.254,-0.00,-0.09,0.04,-0.03,0.08,0.99,
0.256,-0.00,-0.09,0.04,-0.03,0.08,0.99,
0.258,-0.00,-0.09,0.04,-0.03,0.08,0.99,
0.258,-0.04,-0.07,0.09,-0.03,0.08,0.99,
0.261,-0.04,-0.07,0.09,-0.03,0.08,0.99,
0.263,-0.04,-0.07,0.09,-0.03,0.08,0.99,
0.263,-0.07,-0.06,0.12,-0.03,0.08,0.99,
0.266,-0.07,-0.06,0.12,-0.03,0.08,0.99,
0.268,-0.07,-0.06,0.12,-0.03,0.08,0.99,
0.268,-0.08,-0.04,0.13,-0.03,0.08,0.99,
0.271,-0.08,-0.04,0.13,-0.03,0.09,0.99,
0.273,-0.08,-0.04,0.13,-0.04,0.09,0.99,
0.273,-0.09,-0.01,0.14,-0.04,0.09,0.99,
0.275,-0.09,-0.01,0.14,-0.03,0.09,0.99,
0.278,-0.09,-0.01,0.14,-0.03,0.09,0.98,
0.278,-0.10,0.00,0.14,-0.03,0.09,0.98,
0.28,-0.10,0.00,0.14,-0.03,0.09,0.98,
0.283,-0.10,0.00,0.14,-0.03,0.09,0.98,
0.283,-0.09,0.02,0.10,-0.03,0.09,0.98,
0.286,-0.09,0.02,0.10,-0.03,0.09,0.98,
0.288,-0.09,0.02,0.10,-0.03,0.09,0.98,
0.288,-0.08,0.02,0.07,-0.03,0.09,0.98,
0.29,-0.08,0.02,0.07,-0.03,0.09,0.98,
0.293,-0.08,0.02,0.07,-0.02,0.09,0.97,
0.293,-0.06,0.03,0.03,-0.02,0.09,0.97,
0.295,-0.06,0.03,0.03,-0.02,0.09,0.97,
0.298,-0.06,0.03,0.03,-0.02,0.08,0.97,
0.298,-0.01,0.02,-0.01,-0.02,0.08,0.97,
0.3,-0.01,0.02,-0.01,-0.02,0.08,0.97,
0.303,-0.01,0.02,-0.01,-0.02,0.08,0.97,
0.303,0.02,0.01,-0.02,-0.02,0.08,0.97,
0.305,0.02,0.01,-0.02,-0.01,0.08,0.98,
0.307,0.02,0.01,-0.02,-0.01,0.08,0.98,
0.308,0.06,-0.02,-0.01,-0.01,0.08,0.98,
0.31,0.06,-0.02,-0.01,-0.01,0.08,0.98,
0.313,0.06,-0.02,-0.01,-0.01,0.07,0.98,
0.313,0.11,-0.05,0.00,-0.01,0.07,0.98,
0.315,0.11,-0.05,0.00,-0.01,0.07,0.98,
0.317,0.11,-0.05,0.00,-0.01,0.07,0.98,
0.318,0.14,-0.09,0.02,-0.01,0.07,0.98,
0.32,0.14,-0.09,0.02,-0.01,0.07,0.98,
0.322,0.14,-0.09,0.02,-0.01,0.07,0.99,
0.322,0.15,-0.10,0.06,-0.01,0.07,0.99,
0.325,0.15,-0.10,0.06,-0.01,0.07,0.99,
0.327,0.15,-0.10,0.06,-0.01,0.07,0.99,
0.327,0.15,-0.11,0.10,-0.01,0.07,0.99,
0.33,0.15,-0.11,0.10,-0.01,0.07,0.99,
0.332,0.15,-0.11,0.10,-0.01,0.07,0.99,
0.332,0.13,-0.13,0.12,-0.01,0.07,0.99,
0.334,0.13,-0.13,0.12,-0.02,0.08,0.99,
0.337,0.13,-0.13,0.12,-0.02,0.08,0.99,
0.337,0.10,-0.11,0.13,-0.02,0.08,0.99,
0.339,0.10,-0.11,0.13,-0.02,0.08,0.99,
0.342,0.10,-0.11,0.13,-0.03,0.08,0.99,
0.342,0.04,-0.08,0.13,-0.03,0.08,0.99,
0.344,0.04,-0.08,0.13,-0.03,0.08,0.99,
0.347,0.04,-0.08,0.13,-0.03,0.08,0.99,
0.348,0.01,-0.08,0.12,-0.03,0.08,0.99,
0.349,0.01,-0.08,0.12,-0.03,0.09,0.99,
0.351,0.01,-0.08,0.12,-0.03,0.09,0.98,
0.352,-0.03,-0.04,0.11,-0.03,0.09,0.98,
0.354,-0.03,-0.04,0.11,-0.03,0.09,0.98,
0.356,-0.03,0.00,0.08,-0.03,0.09,0.98,
0.357,-0.03,0.00,0.08,-0.03,0.09,0.98,
0.359,-0.03,0.00,0.08,-0.03,0.09,0.98,
0.361,-0.03,0.00,0.08,-0.03,0.09,0.98,
0.362,-0.05,0.04,0.05,-0.03,0.09,0.98,
0.37,-0.05,0.04,0.05,-0.03,0.09,0.97,
0.37,-0.05,0.04,0.05,-0.03,0.09,0.97,
0.37,-0.02,0.06,0.02,-0.03,0.09,0.97,
0.37,-0.02,0.06,0.02,-0.02,0.09,0.97,
0.371,-0.02,0.06,0.02,-0.02,0.09,0.97,
0.371,-0.02,0.03,-0.03,-0.02,0.09,0.97,
0.373,-0.02,0.03,-0.03,-0.02,0.08,0.96,
0.376,-0.02,0.03,-0.03,-0.02,0.08,0.96,
0.376,0.01,-0.01,-0.10,-0.02,0.08,0.96,
0.378,0.01,-0.01,-0.10,-0.02,0.08,0.96,
0.381,0.04,-0.04,-0.14,-0.02,0.08,0.96,
0.382,0.04,-0.04,-0.14,-0.02,0.08,0.96,
0.383,0.04,-0.04,-0.14,-0.01,0.08,0.96,
0.386,0.04,-0.04,-0.14,-0.01,0.07,0.96,
0.386,0.06,-0.08,-0.15,-0.01,0.07,0.96,
0.388,0.06,-0.08,-0.15,-0.00,0.07,0.96,
0.39,0.06,-0.08,-0.15,0.00,0.07,0.96,
0.391,0.14,-0.12,-0.15,0.00,0.07,0.96,
0.393,0.14,-0.12,-0.15,0.00,0.07,0.97,
0.396,0.14,-0.12,-0.15,0.00,0.07,0.97,
0.396,0.21,-0.13,-0.12,0.00,0.07,0.97,
0.398,0.21,-0.13,-0.12,0.01,0.07,0.97,
0.4,0.21,-0.13,-0.12,0.01,0.07,0.97,
0.401,0.26,-0.13,-0.09,0.01,0.07,0.97,
0.403,0.26,-0.13,-0.09,0.01,0.07,0.97,
0.405,0.26,-0.13,-0.09,0.01,0.07,0.97,
0.406,0.29,-0.16,-0.06,0.01,0.07,0.97,
0.408,0.29,-0.16,-0.06,0.01,0.06,0.98,
0.41,0.29,-0.16,-0.06,0.01,0.06,0.98,
0.41,0.29,-0.17,-0.02,0.01,0.06,0.98,
0.413,0.29,-0.17,-0.02,0.01,0.06,0.98,
0.416,0.29,-0.17,-0.02,0.01,0.06,0.98,
0.416,0.29,-0.21,0.03,0.01,0.06,0.98,
0.417,0.29,-0.21,0.03,0.00,0.06,0.99,
0.42,0.29,-0.21,0.03,0.00,0.06,0.99,
0.42,0.29,-0.20,0.08,0.00,0.06,0.99,
0.422,0.29,-0.20,0.08,0.00,0.06,0.99,
0.425,0.29,-0.20,0.08,0.00,0.06,0.99,
0.425,0.25,-0.21,0.12,0.00,0.06,0.99,
0.427,0.25,-0.21,0.12,0.00,0.06,0.99,
0.43,0.25,-0.21,0.12,0.00,0.06,0.99,
0.431,0.24,-0.20,0.12,0.00,0.06,0.99,
0.433,0.24,-0.20,0.12,0.00,0.07,0.99,
0.435,0.24,-0.20,0.12,0.00,0.07,0.99,
0.435,0.24,-0.23,0.13,0.00,0.07,0.99,
0.437,0.24,-0.23,0.13,0.00,0.07,0.99,
0.44,0.24,-0.23,0.13,0.00,0.07,0.99,
0.44,0.25,-0.18,0.15,0.00,0.07,0.99,
0.442,0.25,-0.18,0.15,0.01,0.07,0.99,
0.444,0.25,-0.18,0.15,0.01,0.07,0.99,
0.445,0.26,-0.17,0.17,0.01,0.07,0.99,
0.447,0.26,-0.17,0.17,0.01,0.07,0.99,
0.45,0.26,-0.17,0.17,0.01,0.07,0.99,
0.45,0.30,-0.15,0.17,0.01,0.07,0.99,
0.452,0.30,-0.15,0.17,0.00,0.06,0.99,
0.454,0.30,-0.15,0.17,0.00,0.06,0.99,
0.454,0.29,-0.19,0.17,0.00,0.06,0.99,
0.457,0.29,-0.19,0.17,0.00,0.06,0.99,
0.459,0.26,-0.22,0.15,0.00,0.06,0.99,
0.459,0.26,-0.22,0.15,0.00,0.06,0.99,
0.462,0.26,-0.22,0.15,0.00,0.06,0.99,
0.467,0.26,-0.22,0.15,0.00,0.06,0.99,
0.467,0.26,-0.23,0.13,0.00,0.06,0.99,
0.467,0.26,-0.23,0.13,0.01,0.06,0.99,
0.469,0.26,-0.25,0.12,0.01,0.06,0.99,
0.469,0.26,-0.25,0.12,0.01,0.06,0.99,
0.471,0.26,-0.25,0.12,0.01,0.06,0.99,
0.474,0.26,-0.25,0.12,0.01,0.06,0.99,
0.474,0.31,-0.26,0.14,0.01,0.06,0.99,
0.476,0.31,-0.26,0.14,0.02,0.06,0.99,
0.479,0.31,-0.26,0.14,0.02,0.05,0.99,
0.479,0.35,-0.26,0.11,0.02,0.05,0.99,
0.481,0.35,-0.26,0.11,0.02,0.05,0.99,
0.484,0.35,-0.26,0.11,0.02,0.05,0.99,
0.484,0.39,-0.30,0.11,0.02,0.05,0.99,
0.486,0.39,-0.30,0.11,0.02,0.05,0.99,
0.488,0.39,-0.30,0.11,0.03,0.05,0.98,
0.489,0.44,-0.32,0.09,0.03,0.05,0.98,
0.491,0.44,-0.32,0.09,0.03,0.06,0.99,
0.493,0.44,-0.32,0.09,0.04,0.05,0.99,
0.494,0.46,-0.32,0.08,0.04,0.05,0.99,
0.496,0.46,-0.32,0.08,0.04,0.06,0.99,
0.499,0.46,-0.32,0.08,0.04,0.06,0.99,
0.499,0.54,-0.30,0.08,0.04,0.06,0.99,
0.501,0.54,-0.30,0.08,0.05,0.06,0.99,
0.503,0.54,-0.30,0.08,0.05,0.06,0.99,
0.503,0.62,-0.28,0.09,0.05,0.06,0.99,
0.505,0.62,-0.28,0.09,0.05,0.06,0.99,
0.508,0.62,-0.28,0.09,0.05,0.06,1.00,
0.508,0.69,-0.26,0.12,0.05,0.06,1.00,
0.511,0.69,-0.26,0.12,0.05,0.06,1.00,
0.513,0.69,-0.26,0.12,0.06,0.05,1.00,
0.514,0.70,-0.25,0.15,0.06,0.05,1.00,
0.516,0.70,-0.25,0.15,0.06,0.05,0.99,
0.518,0.70,-0.25,0.15,0.06,0.05,1.00,
0.518,0.73,-0.30,0.18,0.06,0.05,1.00,
0.52,0.73,-0.30,0.18,0.06,0.05,1.00,
0.523,0.73,-0.30,0.18,0.06,0.05,0.99,
0.523,0.73,-0.34,0.17,0.06,0.05,0.99,
0.525,0.73,-0.34,0.17,0.06,0.04,0.99,
0.528,0.73,-0.34,0.17,0.06,0.04,0.99,
0.528,0.73,-0.37,0.16,0.06,0.04,0.99,
0.53,0.73,-0.37,0.16,0.05,0.04,0.99,
0.533,0.73,-0.37,0.16,0.05,0.04,0.98,
0.533,0.70,-0.40,0.13,0.05,0.04,0.98,
0.535,0.70,-0.40,0.13,0.05,0.04,0.98,
0.538,0.70,-0.40,0.13,0.05,0.04,0.98,
0.538,0.65,-0.41,0.08,0.05,0.04,0.98,
0.54,0.65,-0.41,0.08,0.05,0.04,0.98,
0.542,0.65,-0.41,0.08,0.05,0.04,0.97,
0.543,0.61,-0.44,0.02,0.05,0.04,0.97,
0.546,0.61,-0.44,0.02,0.05,0.04,0.97,
0.548,0.61,-0.44,0.02,0.05,0.04,0.96,
0.548,0.61,-0.44,-0.04,0.05,0.04,0.96,
0.55,0.61,-0.44,-0.04,0.04,0.04,0.96,
0.552,0.61,-0.44,-0.04,0.04,0.04,0.96,
0.553,0.57,-0.45,-0.13,0.04,0.04,0.96,
0.554,0.57,-0.45,-0.13,0.04,0.04,0.96,
0.557,0.57,-0.45,-0.13,0.04,0.05,0.96,
0.557,0.51,-0.43,-0.16,0.04,0.05,0.96,
0.559,0.51,-0.43,-0.16,0.04,0.05,0.96,
0.565,0.51,-0.43,-0.16,0.04,0.05,0.96,
0.566,0.48,-0.39,-0.16,0.04,0.05,0.96,
0.567,0.48,-0.39,-0.16,0.04,0.05,0.96,
0.568,0.48,-0.39,-0.16,0.04,0.05,0.96,
0.568,0.45,-0.35,-0.18,0.04,0.05,0.96,
0.571,0.45,-0.35,-0.18,0.04,0.05,0.96,
0.572,0.45,-0.35,-0.18,0.04,0.06,0.96,
0.572,0.44,-0.30,-0.18,0.04,0.06,0.96,
0.574,0.44,-0.30,-0.18,0.05,0.06,0.96,
0.577,0.44,-0.30,-0.18,0.05,0.06,0.96,
0.577,0.47,-0.27,-0.20,0.05,0.06,0.96,
0.584,0.47,-0.27,-0.20,0.06,0.06,0.96,
0.585,0.47,-0.27,-0.20,0.06,0.06,0.96,
0.585,0.54,-0.23,-0.20,0.06,0.06,0.96,
0.586,0.54,-0.23,-0.20,0.07,0.06,0.96,
0.587,0.54,-0.23,-0.20,0.07,0.06,0.96,
0.587,0.63,-0.22,-0.20,0.07,0.06,0.96,
0.589,0.63,-0.22,-0.20,0.07,0.06,0.96,
0.591,0.63,-0.22,-0.20,0.07,0.06,0.96,
0.592,0.68,-0.22,-0.17,0.07,0.06,0.96,
0.594,0.68,-0.22,-0.17,0.08,0.05,0.96,
0.599,0.68,-0.22,-0.17,0.08,0.05,0.96,
0.599,0.71,-0.25,-0.14,0.08,0.05,0.96,
0.599,0.71,-0.25,-0.14,0.08,0.05,0.96,
0.601,0.71,-0.25,-0.14,0.07,0.05,0.96,
0.602,0.76,-0.30,-0.12,0.07,0.05,0.96,
0.604,0.76,-0.30,-0.12,0.07,0.04,0.97,
0.606,0.76,-0.30,-0.12,0.06,0.04,0.97,
0.606,0.72,-0.33,-0.11,0.06,0.04,0.97,
0.608,0.72,-0.33,-0.11,0.06,0.04,0.97,
0.611,0.72,-0.33,-0.11,0.06,0.04,0.97,
0.611,0.64,-0.36,-0.10,0.06,0.04,0.97,
0.613,0.64,-0.36,-0.10,0.06,0.04,0.97,
0.616,0.64,-0.36,-0.10,0.05,0.04,0.97,
0.616,0.57,-0.39,-0.09,0.05,0.04,0.97,
0.619,0.57,-0.39,-0.09,0.05,0.05,0.97,
0.621,0.57,-0.39,-0.09,0.04,0.05,0.97,
0.621,0.51,-0.39,-0.08,0.04,0.05,0.97,
0.623,0.51,-0.39,-0.08,0.04,0.05,0.97,
0.626,0.51,-0.39,-0.08,0.03,0.05,0.97,
0.626,0.42,-0.34,-0.07,0.03,0.05,0.97,
0.629,0.42,-0.34,-0.07,0.03,0.05,0.97,
0.63,0.42,-0.34,-0.07,0.02,0.06,0.97,
0.632,0.32,-0.32,-0.06,0.02,0.06,0.97,
0.633,0.32,-0.32,-0.06,0.01,0.06,0.98,
0.635,0.32,-0.32,-0.06,0.01,0.06,0.98,
0.635,0.19,-0.25,-0.03,0.01,0.06,0.98,
0.638,0.19,-0.25,-0.03,0.00,0.07,0.98,
0.64,0.19,-0.25,-0.03,-0.00,0.07,0.98,
0.64,0.08,-0.19,0.01,-0.00,0.07,0.98,
0.642,0.08,-0.19,0.01,-0.01,0.07,0.98,
0.646,0.08,-0.19,0.01,-0.01,0.07,0.99,
0.646,-0.04,-0.14,0.06,-0.01,0.07,0.99,
0.648,-0.04,-0.14,0.06,-0.02,0.07,0.99,
0.65,-0.04,-0.14,0.06,-0.01,0.07,0.99,
0.65,-0.14,-0.08,0.10,-0.01,0.07,0.99,
0.652,-0.14,-0.08,0.10,-0.01,0.07,0.99,
0.655,-0.14,-0.08,0.10,-0.02,0.07,0.98,
0.655,-0.18,-0.08,0.11,-0.02,0.07,0.98,
0.657,-0.18,-0.08,0.11,-0.01,0.07,0.98,
0.66,-0.18,-0.08,0.11,-0.01,0.07,0.98,
0.66,-0.19,-0.08,0.10,-0.01,0.07,0.98,
0.662,-0.19,-0.08,0.10,-0.01,0.07,0.98,
0.665,-0.19,-0.08,0.10,-0.01,0.07,0.98,
0.665,-0.17,-0.10,0.04,-0.01,0.07,0.98,
0.667,-0.17,-0.10,0.04,-0.01,0.06,0.98,
0.67,-0.17,-0.10,0.04,-0.01,0.06,0.98,
0.67,-0.17,-0.13,0.02,-0.01,0.06,0.98,
0.672,-0.17,-0.13,0.02,-0.01,0.06,0.98,
0.675,-0.17,-0.13,0.02,-0.01,0.06,0.98,
0.675,-0.13,-0.16,0.02,-0.01,0.06,0.98,
0.677,-0.13,-0.16,0.02,-0.01,0.06,0.98,
0.682,-0.13,-0.16,0.02,-0.01,0.05,0.98,
0.682,-0.12,-0.18,0.00,-0.01,0.05,0.98,
0.683,-0.12,-0.18,0.00,-0.01,0.05,0.98,
0.685,-0.12,-0.18,0.00,-0.01,0.05,0.98,
0.685,-0.15,-0.23,0.03,-0.01,0.05,0.98,
0.687,-0.15,-0.23,0.03,-0.01,0.06,0.99,
0.689,-0.15,-0.23,0.03,-0.01,0.06,0.99,
0.69,-0.15,-0.24,0.07,-0.01,0.06,0.99,
0.692,-0.15,-0.24,0.07,-0.01,0.06,1.00,
0.694,-0.17,-0.21,0.15,-0.01,0.06,1.00,
0.694,-0.17,-0.21,0.15,-0.01,0.06,1.00,
0.697,-0.17,-0.21,0.15,-0.01,0.06,1.00,
0.699,-0.17,-0.21,0.15,-0.02,0.06,1.00,
0.699,-0.20,-0.17,0.20,-0.02,0.06,1.00,
0.701,-0.20,-0.17,0.20,-0.02,0.06,1.00,
0.704,-0.20,-0.17,0.20,-0.02,0.06,1.00,
0.704,-0.25,-0.17,0.23,-0.02,0.06,1.00,
0.706,-0.25,-0.17,0.23,-0.02,0.06,1.00,
0.709,-0.25,-0.17,0.23,-0.03,0.06,1.00,
0.709,-0.32,-0.17,0.23,-0.03,0.06,1.00,
0.712,-0.32,-0.17,0.23,-0.03,0.06,1.00,
0.714,-0.32,-0.17,0.23,-0.03,0.06,1.00,
0.714,-0.34,-0.15,0.24,-0.03,0.06,1.00,
0.716,-0.34,-0.15,0.24,-0.03,0.06,1.00,
0.719,-0.34,-0.15,0.24,-0.03,0.06,1.00,
0.719,-0.39,-0.13,0.23,-0.03,0.06,1.00,
0.721,-0.39,-0.13,0.23,-0.03,0.06,0.99,
0.724,-0.39,-0.13,0.23,-0.03,0.06,0.99,
0.724,-0.41,-0.14,0.21,-0.03,0.06,0.99,
0.726,-0.41,-0.14,0.21,-0.03,0.06,0.98,
0.729,-0.41,-0.14,0.21,-0.02,0.06,0.98,
0.729,-0.40,-0.16,0.13,-0.02,0.06,0.98,
0.731,-0.40,-0.16,0.13,-0.02,0.06,0.97,
0.734,-0.40,-0.16,0.13,-0.01,0.06,0.96,
0.734,-0.35,-0.16,0.02,-0.01,0.06,0.96,
0.736,-0.35,-0.16,0.02,-0.01,0.06,0.96,
0.738,-0.35,-0.16,0.02,-0.01,0.06,0.95,
0.739,-0.28,-0.18,-0.11,-0.01,0.06,0.95,
0.741,-0.28,-0.18,-0.11,-0.00,0.06,0.94,
0.743,-0.28,-0.18,-0.11,-0.00,0.06,0.94,
0.744,-0.23,-0.19,-0.25,-0.00,0.06,0.94,
0.746,-0.23,-0.19,-0.25,-0.00,0.05,0.94,
0.748,-0.23,-0.19,-0.25,-0.00,0.05,0.94,
0.749,-0.19,-0.21,-0.33,-0.00,0.05,0.94,
0.751,-0.19,-0.21,-0.33,-0.00,0.05,0.94,
0.753,-0.19,-0.21,-0.33,-0.01,0.04,0.93,
0.753,-0.18,-0.27,-0.37,-0.01,0.04,0.93,
0.755,-0.18,-0.27,-0.37,-0.01,0.04,0.93,
0.758,-0.18,-0.27,-0.37,-0.01,0.04,0.93,
0.759,-0.22,-0.32,-0.40,-0.01,0.04,0.93,
0.76,-0.22,-0.32,-0.40,-0.01,0.04,0.94,
0.768,-0.22,-0.32,-0.40,-0.01,0.04,0.94,
0.768,-0.24,-0.36,-0.41,-0.01,0.04,0.94,
0.768,-0.24,-0.36,-0.41,-0.01,0.04,0.94,
0.769,-0.27,-0.37,-0.39,-0.01,0.04,0.94,
0.769,-0.27,-0.37,-0.39,-0.01,0.04,0.94,
0.77,-0.27,-0.37,-0.39,-0.01,0.04,0.94,
0.773,-0.27,-0.37,-0.39,-0.01,0.04,0.94,
0.773,-0.29,-0.39,-0.37,-0.01,0.04,0.94,
0.775,-0.29,-0.39,-0.37,-0.02,0.04,0.94,
0.778,-0.29,-0.39,-0.37,-0.02,0.04,0.95,
0.778,-0.32,-0.37,-0.32,-0.02,0.04,0.95,
0.786,-0.32,-0.37,-0.32,-0.03,0.04,0.95,
0.787,-0.32,-0.37,-0.32,-0.03,0.04,0.95,
0.787,-0.38,-0.38,-0.29,-0.03,0.04,0.95,
0.787,-0.38,-0.38,-0.29,-0.03,0.04,0.95,
0.787,-0.38,-0.38,-0.29,-0.03,0.03,0.96,
0.788,-0.47,-0.38,-0.24,-0.03,0.03,0.96,
0.79,-0.47,-0.38,-0.24,-0.04,0.04,0.96,
0.792,-0.47,-0.38,-0.24,-0.04,0.04,0.97,
0.793,-0.53,-0.39,-0.17,-0.04,0.04,0.97,
0.795,-0.53,-0.39,-0.17,-0.03,0.03,0.97,
0.797,-0.53,-0.39,-0.17,-0.04,0.04,0.98,
0.797,-0.56,-0.38,-0.08,-0.04,0.04,0.98,
0.799,-0.56,-0.38,-0.08,-0.03,0.04,0.98,
0.802,-0.56,-0.38,-0.08,-0.03,0.04,0.99,
0.802,-0.55,-0.38,0.03,-0.03,0.04,0.99,
0.805,-0.55,-0.38,0.03,-0.03,0.04,0.99,
0.807,-0.55,-0.38,0.03,-0.03,0.04,0.99,
0.807,-0.53,-0.36,0.13,-0.03,0.04,0.99,
0.809,-0.53,-0.36,0.13,-0.03,0.04,1.00,
0.812,-0.53,-0.36,0.13,-0.03,0.04,1.00,
0.812,-0.52,-0.37,0.18,-0.03,0.04,1.00,
0.814,-0.52,-0.37,0.18,-0.02,0.04,1.00,
0.817,-0.52,-0.37,0.18,-0.02,0.04,1.00,
0.817,-0.48,-0.35,0.23,-0.02,0.04,1.00,
0.819,-0.48,-0.35,0.23,-0.02,0.03,1.00,
0.822,-0.48,-0.35,0.23,-0.02,0.04,1.00,
0.822,-0.44,-0.36,0.26,-0.02,0.04,1.00,
0.824,-0.44,-0.36,0.26,-0.01,0.04,1.00,
0.827,-0.44,-0.36,0.26,-0.01,0.04,1.00,
0.827,-0.42,-0.37,0.27,-0.01,0.04,1.00,
0.829,-0.42,-0.37,0.27,-0.00,0.04,0.99,
0.832,-0.42,-0.37,0.27,0.00,0.04,0.98,
0.832,-0.33,-0.35,0.22,0.00,0.04,0.98,
0.834,-0.33,-0.35,0.22,0.00,0.04,0.97,
0.836,-0.33,-0.35,0.22,0.01,0.04,0.96,
0.837,-0.26,-0.34,0.10,0.01,0.04,0.96,
0.838,-0.26,-0.34,0.10,0.01,0.04,0.95,
0.841,-0.26,-0.34,0.10,0.01,0.04,0.94,
0.841,-0.20,-0.30,-0.07,0.01,0.04,0.94,
0.844,-0.20,-0.30,-0.07,0.00,0.04,0.94,
0.846,-0.20,-0.30,-0.07,0.00,0.05,0.93,
0.847,-0.21,-0.30,-0.27,0.00,0.05,0.93,
0.849,-0.21,-0.30,-0.27,0.00,0.05,0.92,
0.851,-0.21,-0.30,-0.27,0.00,0.05,0.92,
0.851,-0.24,-0.29,-0.41,0.00,0.05,0.92,
0.853,-0.24,-0.29,-0.41,-0.01,0.04,0.91,
0.856,-0.24,-0.29,-0.41,-0.01,0.05,0.90,
0.856,-0.27,-0.27,-0.53,-0.01,0.05,0.90,
0.858,-0.27,-0.27,-0.53,-0.01,0.05,0.90,
0.867,-0.27,-0.27,-0.53,-0.01,0.05,0.91,
0.868,-0.35,-0.29,-0.65,-0.01,0.05,0.91,
0.868,-0.35,-0.29,-0.65,-0.02,0.05,0.91,
0.868,-0.35,-0.29,-0.65,-0.02,0.05,0.91,
0.869,-0.40,-0.27,-0.66,-0.02,0.05,0.91,
0.869,-0.40,-0.27,-0.66,-0.02,0.05,0.92,
0.871,-0.40,-0.27,-0.66,-0.02,0.05,0.92,
0.871,-0.46,-0.26,-0.61,-0.02,0.05,0.92,
0.873,-0.46,-0.26,-0.61,-0.02,0.05,0.93,
0.875,-0.46,-0.26,-0.61,-0.02,0.05,0.94,
0.876,-0.48,-0.24,-0.51,-0.02,0.05,0.94,
0.884,-0.48,-0.24,-0.51,-0.02,0.05,0.95,
0.884,-0.48,-0.24,-0.51,-0.02,0.04,0.96,
0.884,-0.48,-0.23,-0.34,-0.02,0.04,0.96,
0.884,-0.48,-0.23,-0.34,-0.02,0.04,0.97,
0.885,-0.48,-0.23,-0.34,-0.02,0.04,0.98,
0.885,-0.50,-0.26,-0.16,-0.02,0.04,0.98,
0.888,-0.50,-0.26,-0.16,-0.02,0.03,0.98,
0.89,-0.50,-0.26,-0.16,-0.02,0.03,0.99,
0.89,-0.52,-0.32,0.00,-0.02,0.03,0.99,
0.892,-0.52,-0.32,0.00,-0.02,0.02,1.00,
0.895,-0.52,-0.32,0.00,-0.02,0.02,1.00,
0.896,-0.55,-0.40,0.15,-0.02,0.02,1.00,
0.897,-0.55,-0.40,0.15,-0.02,0.02,1.00,
0.9,-0.55,-0.40,0.15,-0.02,0.02,1.00,
0.9,-0.53,-0.48,0.28,-0.02,0.02,1.00,
0.902,-0.53,-0.48,0.28,-0.01,0.01,1.01,
0.905,-0.53,-0.48,0.28,-0.00,0.01,1.00,
0.905,-0.49,-0.53,0.32,-0.00,0.01,1.00,
0.907,-0.49,-0.53,0.32,0.00,0.01,1.00,
0.91,-0.49,-0.53,0.32,0.01,0.01,1.00,
0.91,-0.41,-0.57,0.32,0.01,0.01,1.00,
0.912,-0.41,-0.57,0.32,0.01,0.01,0.99,
0.915,-0.41,-0.57,0.32,0.01,0.02,0.98,
0.915,-0.33,-0.56,0.25,0.01,0.02,0.98,
0.917,-0.33,-0.56,0.25,0.01,0.02,0.98,
0.919,-0.33,-0.56,0.25,0.02,0.02,0.97,
0.92,-0.29,-0.53,0.15,0.02,0.02,0.97,
0.922,-0.29,-0.53,0.15,0.02,0.02,0.96,
0.924,-0.29,-0.53,0.15,0.01,0.03,0.96,
0.925,-0.25,-0.50,0.02,0.01,0.03,0.96,
0.927,-0.25,-0.50,0.02,0.01,0.03,0.95,
0.93,-0.25,-0.44,-0.11,0.01,0.03,0.95,
0.93,-0.25,-0.44,-0.11,0.01,0.03,0.94,
0.932,-0.25,-0.44,-0.11,0.01,0.04,0.94,
0.934,-0.25,-0.44,-0.11,0.01,0.04,0.93,
0.935,-0.29,-0.37,-0.24,0.01,0.04,0.93,
0.937,-0.29,-0.37,-0.24,0.01,0.05,0.93,
0.939,-0.31,-0.29,-0.37,0.01,0.05,0.93,
0.94,-0.31,-0.29,-0.37,0.01,0.05,0.92,
0.942,-0.31,-0.29,-0.37,0.01,0.05,0.92,
0.945,-0.31,-0.29,-0.37,0.01,0.05,0.91,
0.946,-0.32,-0.22,-0.45,0.01,0.05,0.91,
0.947,-0.32,-0.22,-0.45,0.01,0.05,0.91,
0.949,-0.34,-0.16,-0.54,0.01,0.05,0.91,
0.95,-0.34,-0.16,-0.54,0.01,0.05,0.91,
0.951,-0.34,-0.16,-0.54,0.01,0.05,0.91,
0.954,-0.34,-0.16,-0.54,0.01,0.05,0.91,
0.954,-0.37,-0.16,-0.57,0.01,0.05,0.91,
0.956,-0.37,-0.16,-0.57,0.01,0.05,0.91,
0.959,-0.37,-0.16,-0.57,0.01,0.04,0.91,
0.959,-0.42,-0.19,-0.60,0.01,0.04,0.91,
0.962,-0.42,-0.19,-0.60,0.01,0.04,0.91,
0.964,-0.42,-0.19,-0.60,0.01,0.04,0.92,
0.964,-0.44,-0.23,-0.56,0.01,0.04,0.92,
0.966,-0.44,-0.23,-0.56,0.01,0.04,0.92,
0.968,-0.44,-0.23,-0.56,0.01,0.04,0.93,
0.969,-0.44,-0.23,-0.51,0.01,0.04,0.93,
0.971,-0.44,-0.23,-0.51,0.02,0.04,0.94,
0.973,-0.44,-0.23,-0.51,0.02,0.04,0.94,
0.974,-0.39,-0.23,-0.39,0.02,0.04,0.94,
0.976,-0.39,-0.23,-0.39,0.02,0.04,0.95,
0.984,-0.39,-0.23,-0.39,0.02,0.04,0.95,
0.984,-0.37,-0.22,-0.28,0.02,0.04,0.95,
0.985,-0.37,-0.22,-0.28,0.03,0.04,0.96,
0.985,-0.37,-0.22,-0.28,0.03,0.04,0.96,
0.985,-0.34,-0.24,-0.16,0.03,0.04,0.96,
0.986,-0.34,-0.24,-0.16,0.03,0.04,0.96,
0.988,-0.34,-0.24,-0.16,0.03,0.04,0.96,
0.988,-0.32,-0.22,-0.10,0.03,0.04,0.96,
0.99,-0.32,-0.22,-0.10,0.04,0.04,0.96,
0.993,-0.32,-0.22,-0.10,0.04,0.05,0.96,
0.993,-0.30,-0.20,-0.06,0.04,0.05,0.96,
0.996,-0.30,-0.20,-0.06,0.04,0.05,0.95,
0.998,-0.30,-0.20,-0.06,0.05,0.05,0.94,
0.999,-0.26,-0.17,-0.09,0.05,0.05,0.94,
1.0,-0.26,-0.17,-0.09,0.05,0.05,0.94,
1.003,-0.26,-0.17,-0.09,0.05,0.06,0.93,
1.003,-0.20,-0.12,-0.19,0.05,0.06,0.93,
1.005,-0.20,-0.12,-0.19,0.05,0.05,0.93,
1.008,-0.20,-0.12,-0.19,0.06,0.05,0.92,
1.008,-0.17,-0.07,-0.30,0.06,0.05,0.92,
1.01,-0.17,-0.07,-0.30,0.06,0.06,0.91,
1.013,-0.17,-0.07,-0.30,0.06,0.05,0.90,
1.013,-0.15,-0.07,-0.44,0.06,0.05,0.90,
1.015,-0.15,-0.07,-0.44,0.06,0.06,0.89,
1.018,-0.15,-0.07,-0.44,0.07,0.06,0.89,
1.018,-0.12,-0.05,-0.60,0.07,0.06,0.89,
1.02,-0.12,-0.05,-0.60,0.07,0.06,0.88,
1.022,-0.12,-0.05,-0.60,0.07,0.06,0.88,
1.022,-0.08,-0.02,-0.72,0.07,0.06,0.88,
1.025,-0.08,-0.02,-0.72,0.07,0.06,0.88,
1.028,-0.08,-0.02,-0.72,0.08,0.06,0.89,
1.029,-0.01,0.01,-0.78,0.08,0.06,0.89,
1.029,-0.01,0.01,-0.78,0.07,0.05,0.89,
1.033,-0.01,0.01,-0.78,0.07,0.05,0.90,
1.033,0.01,0.00,-0.76,0.07,0.05,0.90,
1.034,0.01,0.00,-0.76,0.06,0.06,0.90,
1.037,0.01,0.00,-0.76,0.06,0.06,0.92,
1.037,-0.02,-0.05,-0.65,0.06,0.06,0.92,
1.039,-0.02,-0.05,-0.65,0.06,0.06,0.93,
1.042,-0.02,-0.05,-0.65,0.06,0.06,0.94,
1.042,-0.11,0.01,-0.49,0.06,0.06,0.94,
1.045,-0.11,0.01,-0.49,0.05,0.06,0.96,
1.047,-0.11,0.01,-0.49,0.04,0.06,0.97,
1.047,-0.14,0.04,-0.25,0.04,0.06,0.97,
1.049,-0.14,0.04,-0.25,0.04,0.06,0.98,
1.052,-0.14,0.04,-0.25,0.03,0.06,0.99,
1.052,-0.28,0.00,-0.00,0.03,0.06,0.99,
1.054,-0.28,0.00,-0.00,0.03,0.06,1.00,
1.057,-0.28,0.00,-0.00,0.03,0.06,1.01,
1.057,-0.37,0.00,0.22,0.03,0.06,1.01,
1.059,-0.37,0.00,0.22,0.03,0.07,1.01,
1.067,-0.37,0.00,0.22,0.03,0.07,1.02,
1.067,-0.41,0.04,0.40,0.03,0.07,1.02,
1.067,-0.41,0.04,0.40,0.03,0.08,1.02,
1.068,-0.41,0.04,0.40,0.03,0.08,1.02,
1.068,-0.42,0.11,0.51,0.03,0.08,1.02,
1.069,-0.42,0.11,0.51,0.03,0.08,1.02,
1.071,-0.42,0.11,0.51,0.03,0.09,1.02,
1.072,-0.41,0.20,0.56,0.03,0.09,1.02,
1.074,-0.41,0.20,0.56,0.02,0.09,1.01,
1.076,-0.41,0.20,0.56,0.02,0.09,1.01,
1.077,-0.44,0.28,0.55,0.02,0.09,1.01,
1.083,-0.44,0.28,0.55,0.01,0.10,1.00,
1.084,-0.44,0.28,0.55,0.01,0.10,1.00,
1.084,-0.52,0.34,0.48,0.01,0.10,1.00,
1.084,-0.52,0.34,0.48,0.00,0.10,0.99,
1.086,-0.52,0.34,0.48,0.00,0.10,0.98,
1.086,-0.63,0.36,0.36,0.00,0.10,0.98,
1.088,-0.63,0.36,0.36,0.00,0.10,0.97,
1.091,-0.63,0.36,0.36,0.00,0.11,0.96,
1.091,-0.70,0.39,0.20,0.00,0.11,0.96,
1.093,-0.70,0.39,0.20,0.01,0.11,0.96,
1.096,-0.70,0.39,0.20,0.01,0.11,0.95,
1.096,-0.69,0.45,0.04,0.01,0.11,0.95,
1.098,-0.69,0.45,0.04,0.01,0.12,0.94,
1.101,-0.69,0.45,0.04,0.02,0.12,0.94,
1.101,-0.63,0.52,-0.09,0.02,0.12,0.94,
1.103,-0.63,0.52,-0.09,0.02,0.11,0.93,
1.106,-0.63,0.52,-0.09,0.02,0.10,0.93,
1.106,-0.59,0.55,-0.22,0.02,0.10,0.93,
1.108,-0.59,0.55,-0.22,0.02,0.10,0.92,
1.111,-0.59,0.55,-0.22,0.01,0.09,0.92,
1.111,-0.57,0.47,-0.33,0.01,0.09,0.92,
1.113,-0.57,0.47,-0.33,0.02,0.09,0.92,
1.115,-0.57,0.47,-0.33,0.02,0.09,0.92,
1.116,-0.59,0.36,-0.41,0.02,0.09,0.92,
1.118,-0.59,0.36,-0.41,0.02,0.08,0.92,
1.12,-0.59,0.36,-0.41,0.03,0.08,0.93,
1.122,-0.55,0.28,-0.43,0.03,0.08,0.93,
1.123,-0.55,0.28,-0.43,0.03,0.07,0.93,
1.125,-0.55,0.28,-0.43,0.03,0.07,0.94,
1.126,-0.51,0.22,-0.38,0.03,0.07,0.94,
1.128,-0.51,0.22,-0.38,0.03,0.06,0.95,
1.13,-0.51,0.22,-0.38,0.03,0.06,0.96,
1.131,-0.46,0.13,-0.28,0.03,0.06,0.96,
1.133,-0.46,0.13,-0.28,0.03,0.06,0.97,
1.135,-0.44,0.05,-0.11,0.03,0.06,0.97,
1.136,-0.44,0.05,-0.11,0.03,0.06,0.98,
1.137,-0.44,0.05,-0.11,0.02,0.06,0.99,
1.14,-0.44,0.05,-0.11,0.02,0.06,1.00,
1.14,-0.46,0.01,0.11,0.02,0.06,1.00,
1.142,-0.46,0.01,0.11,0.02,0.06,1.01,
1.145,-0.46,0.01,0.11,0.02,0.06,1.02,
1.146,-0.49,0.01,0.31,0.02,0.06,1.02,
1.147,-0.49,0.01,0.31,0.02,0.06,1.03,
1.15,-0.49,0.01,0.31,0.02,0.06,1.04,
1.15,-0.50,0.02,0.51,0.02,0.06,1.04,
1.152,-0.50,0.02,0.51,0.02,0.06,1.04,
1.155,-0.50,0.02,0.51,0.02,0.06,1.05,
1.155,-0.51,0.05,0.68,0.02,0.06,1.05,
1.157,-0.51,0.05,0.68,0.03,0.06,1.05,
1.16,-0.51,0.05,0.68,0.03,0.07,1.04,
1.161,-0.49,0.08,0.77,0.03,0.07,1.04,
1.168,-0.49,0.08,0.77,0.03,0.07,1.04,
1.169,-0.49,0.08,0.77,0.03,0.07,1.03,
1.169,-0.43,0.12,0.78,0.03,0.07,1.03,
1.17,-0.43,0.12,0.78,0.03,0.07,1.03,
1.17,-0.43,0.12,0.78,0.04,0.07,1.01,
1.17,-0.39,0.13,0.70,0.04,0.07,1.01,
1.172,-0.39,0.13,0.70,0.04,0.06,1.00,
1.174,-0.39,0.13,0.70,0.04,0.06,0.98,
1.174,-0.37,0.14,0.51,0.04,0.06,0.98,
1.181,-0.37,0.14,0.51,0.04,0.06,0.97,
1.181,-0.37,0.14,0.51,0.04,0.06,0.96,
1.181,-0.37,0.08,0.24,0.04,0.06,0.96,
1.182,-0.37,0.08,0.24,0.04,0.06,0.94,
1.184,-0.37,0.08,0.24,0.04,0.06,0.93,
1.184,-0.36,0.05,-0.02,0.04,0.06,0.93,
1.186,-0.36,0.05,-0.02,0.04,0.06,0.92,
1.189,-0.36,0.05,-0.02,0.04,0.06,0.91,
1.189,-0.34,0.05,-0.30,0.04,0.06,0.91,
1.191,-0.34,0.05,-0.30,0.04,0.06,0.90,
1.194,-0.34,0.05,-0.30,0.04,0.06,0.90,
1.194,-0.34,0.08,-0.50,0.04,0.06,0.90,
1.196,-0.34,0.08,-0.50,0.03,0.06,0.90,
1.199,-0.34,0.08,-0.50,0.03,0.06,0.90,
1.199,-0.36,0.06,-0.64,0.03,0.06,0.90,
1.201,-0.36,0.06,-0.64,0.03,0.06,0.90,
1.204,-0.36,0.06,-0.64,0.02,0.07,0.92,
1.204,-0.42,0.07,-0.64,0.02,0.07,0.92,
1.206,-0.42,0.07,-0.64,0.02,0.07,0.93,
1.208,-0.48,0.12,-0.53,0.02,0.07,0.93,
1.209,-0.48,0.12,-0.53,0.01,0.07,0.94,
1.211,-0.48,0.12,-0.53,0.00,0.07,0.96,
1.214,-0.48,0.12,-0.53,-0.00,0.07,0.98,
1.214,-0.58,0.18,-0.28,-0.00,0.07,0.98,
1.216,-0.58,0.18,-0.28,-0.01,0.08,1.00,
1.218,-0.58,0.18,-0.28,-0.01,0.08,1.01,
1.219,-0.69,0.21,0.04,-0.01,0.08,1.01,
1.221,-0.69,0.21,0.04,-0.02,0.08,1.03,
1.223,-0.69,0.21,0.04,-0.02,0.08,1.05,
1.223,-0.78,0.28,0.41,-0.02,0.08,1.05,
1.226,-0.78,0.28,0.41,-0.02,0.08,1.06,
1.228,-0.78,0.28,0.41,-0.02,0.08,1.06,
1.229,-0.84,0.32,0.72,-0.02,0.08,1.06,
1.23,-0.84,0.32,0.72,-0.03,0.08,1.07,
1.233,-0.84,0.32,0.72,-0.03,0.07,1.07,
1.233,-0.89,0.30,0.92,-0.03,0.07,1.07,
1.235,-0.89,0.30,0.92,-0.03,0.07,1.06,
1.238,-0.89,0.30,0.92,-0.02,0.07,1.05,
1.238,-0.94,0.24,0.98,-0.02,0.07,1.05,
1.24,-0.94,0.24,0.98,-0.01,0.07,1.04,
1.243,-0.94,0.24,0.98,0.00,0.07,1.03,
1.244,-0.88,0.20,0.88,0.00,0.07,1.03,
1.245,-0.88,0.20,0.88,0.01,0.07,1.01,
1.248,-0.88,0.20,0.88,0.03,0.07,1.00,
1.248,-0.71,0.16,0.66,0.03,0.07,1.00,
1.25,-0.71,0.16,0.66,0.04,0.07,0.98,
1.253,-0.71,0.16,0.66,0.05,0.07,0.96,
1.253,-0.46,0.17,0.36,0.05,0.07,0.96,
1.255,-0.46,0.17,0.36,0.06,0.07,0.94,
1.257,-0.46,0.17,0.36,0.07,0.06,0.92,
1.258,-0.23,0.18,0.00,0.07,0.06,0.92,
1.261,-0.23,0.18,0.00,0.07,0.06,0.91,
1.262,-0.23,0.18,0.00,0.07,0.05,0.90,
1.263,-0.04,0.12,-0.33,0.07,0.05,0.90,
1.265,-0.04,0.12,-0.33,0.07,0.04,0.89,
1.267,-0.04,0.12,-0.33,0.07,0.04,0.88,
1.268,0.03,0.00,-0.62,0.07,0.04,0.88,
1.27,0.03,0.00,-0.62,0.07,0.03,0.87,
1.272,0.03,0.00,-0.62,0.07,0.03,0.87,
1.273,0.03,-0.12,-0.83,0.07,0.03,0.87,
1.274,0.03,-0.12,-0.83,0.07,0.03,0.87,
1.283,0.03,-0.12,-0.83,0.07,0.03,0.88,
1.283,0.00,-0.18,-0.93,0.07,0.03,0.88,
1.283,0.00,-0.18,-0.93,0.06,0.04,0.89,
1.284,0.00,-0.18,-0.93,0.06,0.04,0.90,
1.284,-0.02,-0.17,-0.87,0.06,0.04,0.90,
1.286,-0.02,-0.17,-0.87,0.06,0.05,0.91,
1.287,-0.02,-0.17,-0.87,0.05,0.05,0.93,
1.287,-0.07,-0.08,-0.70,0.05,0.05,0.93,
1.289,-0.07,-0.08,-0.70,0.04,0.05,0.95,
1.292,-0.07,-0.08,-0.70,0.03,0.06,0.96,
1.292,-0.18,-0.00,-0.43,0.03,0.06,0.96,
1.297,-0.18,-0.00,-0.43,0.02,0.06,0.98,
1.298,-0.18,-0.00,-0.43,0.01,0.06,0.99,
1.298,-0.32,0.08,-0.11,0.01,0.06,0.99,
1.299,-0.32,0.08,-0.11,0.00,0.06,1.01,
1.301,-0.32,0.08,-0.11,-0.01,0.06,1.02,
1.302,-0.51,0.12,0.20,-0.01,0.06,1.02,
1.304,-0.51,0.12,0.20,-0.01,0.07,1.04,
1.307,-0.51,0.12,0.20,-0.02,0.07,1.05,
1.307,-0.67,0.17,0.52,-0.02,0.07,1.05,
1.309,-0.67,0.17,0.52,-0.02,0.08,1.06,
1.311,-0.67,0.17,0.52,-0.02,0.08,1.07,
1.312,-0.77,0.25,0.77,-0.02,0.08,1.07,
1.314,-0.77,0.25,0.77,-0.02,0.09,1.07,
1.316,-0.77,0.25,0.77,-0.02,0.09,1.07,
1.316,-0.79,0.33,0.94,-0.02,0.09,1.07,
1.318,-0.79,0.33,0.94,-0.02,0.09,1.07,
1.321,-0.79,0.33,0.94,-0.01,0.10,1.06,
1.321,-0.76,0.43,1.00,-0.01,0.10,1.06,
1.324,-0.76,0.43,1.00,-0.01,0.10,1.05,
1.326,-0.76,0.43,1.00,-0.01,0.10,1.04,
1.326,-0.73,0.49,0.93,-0.01,0.10,1.04,
1.329,-0.73,0.49,0.93,0.00,0.10,1.03,
1.331,-0.73,0.49,0.93,0.01,0.10,1.02,
1.331,-0.65,0.54,0.77,0.01,0.10,1.02,
1.333,-0.65,0.54,0.77,0.02,0.10,1.01,
1.336,-0.65,0.54,0.77,0.02,0.10,1.00,
1.336,-0.52,0.55,0.57,0.02,0.10,1.00,
1.338,-0.52,0.55,0.57,0.03,0.10,0.99,
1.341,-0.52,0.55,0.57,0.04,0.10,0.98,
1.341,-0.38,0.53,0.35,0.04,0.10,0.98,
1.344,-0.38,0.53,0.35,0.04,0.10,0.97,
1.346,-0.38,0.53,0.35,0.05,0.10,0.96,
1.346,-0.25,0.48,0.13,0.05,0.10,0.96,
1.348,-0.25,0.48,0.13,0.05,0.10,0.95,
1.351,-0.25,0.48,0.13,0.05,0.10,0.95,
1.351,-0.13,0.47,-0.06,0.05,0.10,0.95,
1.353,-0.13,0.47,-0.06,0.06,0.09,0.94,
1.355,-0.13,0.47,-0.06,0.06,0.09,0.94,
1.356,-0.07,0.46,-0.20,0.06,0.09,0.94,
1.358,-0.07,0.46,-0.20,0.05,0.09,0.94,
1.361,-0.07,0.46,-0.20,0.05,0.09,0.95,
1.362,-0.03,0.43,-0.27,0.05,0.09,0.95,
1.363,-0.03,0.43,-0.27,0.05,0.09,0.95,
1.365,-0.03,0.43,-0.27,0.04,0.09,0.96,
1.366,-0.04,0.41,-0.23,0.04,0.09,0.96,
1.368,-0.04,0.41,-0.23,0.03,0.09,0.97,
1.37,-0.04,0.41,-0.23,0.02,0.10,0.98,
1.37,-0.12,0.42,-0.11,0.02,0.10,0.98,
1.372,-0.12,0.42,-0.11,0.02,0.10,1.00,
1.375,-0.12,0.42,-0.11,0.01,0.11,1.01,
1.376,-0.28,0.47,0.10,0.01,0.11,1.01,
1.383,-0.28,0.47,0.10,0.00,0.11,1.03,
1.383,-0.28,0.47,0.10,-0.00,0.11,1.05,
1.384,-0.41,0.55,0.35,-0.00,0.11,1.05,
1.384,-0.41,0.55,0.35,-0.01,0.11,1.06,
1.386,-0.41,0.55,0.35,-0.01,0.12,1.07,
1.387,-0.53,0.64,0.65,-0.01,0.12,1.07,
1.388,-0.53,0.64,0.65,-0.02,0.12,1.08,
1.39,-0.53,0.64,0.65,-0.02,0.12,1.09,
1.39,-0.62,0.68,0.92,-0.02,0.12,1.09,
1.392,-0.62,0.68,0.92,-0.02,0.13,1.10,
1.402,-0.62,0.68,0.92,-0.02,0.13,1.10,
1.402,-0.71,0.73,1.14,-0.02,0.13,1.10,
1.402,-0.71,0.73,1.14,-0.02,0.13,1.11,
1.403,-0.71,0.73,1.14,-0.02,0.13,1.11,
1.403,-0.71,0.76,1.27,-0.02,0.13,1.11,
1.403,-0.71,0.76,1.27,-0.02,0.12,1.10,
1.404,-0.71,0.76,1.27,-0.01,0.12,1.10,
1.405,-0.69,0.76,1.30,-0.01,0.12,1.10,
1.406,-0.69,0.76,1.30,-0.01,0.12,1.09,
1.41,-0.69,0.76,1.30,-0.01,0.11,1.08,
1.41,-0.61,0.69,1.23,-0.01,0.11,1.08,
1.411,-0.61,0.69,1.23,-0.00,0.11,1.07,
1.414,-0.61,0.69,1.23,0.00,0.10,1.06,
1.414,-0.54,0.61,1.07,0.00,0.10,1.06,
1.416,-0.54,0.61,1.07,0.01,0.10,1.04,
1.419,-0.54,0.61,1.07,0.01,0.10,1.03,
1.419,-0.46,0.50,0.85,0.01,0.10,1.03,
1.421,-0.46,0.50,0.85,0.02,0.10,1.01,
1.424,-0.46,0.50,0.85,0.03,0.09,1.00,
1.424,-0.35,0.43,0.56,0.03,0.09,1.00,
1.427,-0.35,0.43,0.56,0.03,0.09,0.98,
1.429,-0.35,0.43,0.56,0.04,0.09,0.97,
1.43,-0.24,0.37,0.27,0.04,0.09,0.97,
1.431,-0.24,0.37,0.27,0.04,0.09,0.96,
1.434,-0.24,0.37,0.27,0.04,0.09,0.95,
1.434,-0.12,0.30,0.01,0.04,0.09,0.95,
1.436,-0.12,0.30,0.01,0.05,0.09,0.95,
1.438,-0.12,0.30,0.01,0.05,0.09,0.94,
1.439,-0.04,0.28,-0.19,0.05,0.09,0.94,
1.441,-0.04,0.28,-0.19,0.05,0.09,0.94,
1.444,-0.04,0.28,-0.19,0.05,0.10,0.94,
1.444,0.03,0.29,-0.31,0.05,0.10,0.94,
1.446,0.03,0.29,-0.31,0.05,0.10,0.94,
1.448,0.03,0.29,-0.31,0.04,0.11,0.95,
1.448,0.03,0.35,-0.32,0.04,0.11,0.95,
1.451,0.03,0.35,-0.32,0.04,0.12,0.96,
1.453,0.03,0.35,-0.32,0.04,0.12,0.97,
1.453,-0.00,0.44,-0.29,0.04,0.12,0.97,
1.455,-0.00,0.44,-0.29,0.04,0.12,0.98,
1.458,-0.00,0.44,-0.29,0.04,0.12,0.99,
1.458,-0.06,0.55,-0.15,0.04,0.12,0.99,
1.463,-0.06,0.55,-0.15,0.03,0.13,1.00,
1.463,-0.06,0.55,-0.15,0.03,0.13,1.01,
1.464,-0.08,0.61,0.04,0.03,0.13,1.01,
1.465,-0.08,0.61,0.04,0.02,0.12,1.02,
1.468,-0.08,0.61,0.04,0.01,0.13,1.03,
1.468,-0.14,0.65,0.25,0.01,0.13,1.03,
1.47,-0.14,0.65,0.25,0.01,0.12,1.04,
1.473,-0.14,0.65,0.25,0.01,0.12,1.05,
1.473,-0.25,0.63,0.48,0.01,0.12,1.05,
1.475,-0.25,0.63,0.48,0.01,0.12,1.06,
1.478,-0.30,0.62,0.64,0.01,0.12,1.06,
1.478,-0.30,0.62,0.64,0.01,0.12,1.06,
1.48,-0.30,0.62,0.64,0.01,0.12,1.07,
1.483,-0.30,0.62,0.64,0.01,0.12,1.07,
1.483,-0.30,0.60,0.79,0.01,0.12,1.07,
1.485,-0.30,0.60,0.79,0.01,0.11,1.07,
1.487,-0.30,0.60,0.79,0.01,0.11,1.06,
1.488,-0.30,0.54,0.84,0.01,0.11,1.06,
1.49,-0.30,0.54,0.84,0.01,0.10,1.06,
1.493,-0.30,0.54,0.84,0.01,0.10,1.05,
1.493,-0.29,0.45,0.83,0.01,0.10,1.05,
1.495,-0.29,0.45,0.83,0.00,0.09,1.04,
1.498,-0.29,0.45,0.83,0.00,0.09,1.04,
1.498,-0.28,0.34,0.74,0.00,0.09,1.04,
1.5,-0.28,0.34,0.74,0.00,0.09,1.03,
1.502,-0.28,0.34,0.74,0.00,0.09,1.02,
1.503,-0.30,0.25,0.58,0.00,0.09,1.02,
1.505,-0.30,0.25,0.58,0.01,0.09,1.01,
1.507,-0.30,0.25,0.58,0.01,0.09,1.00,
1.507,-0.31,0.20,0.41,0.01,0.09,1.00,
1.51,-0.31,0.20,0.41,0.01,0.09,1.00,
1.513,-0.31,0.20,0.41,0.01,0.10,0.99,
1.513,-0.24,0.21,0.27,0.01,0.10,0.99,
1.514,-0.24,0.21,0.27,0.02,0.10,0.98,
1.517,-0.24,0.21,0.27,0.01,0.10,0.97,
1.517,-0.18,0.25,0.11,0.01,0.10,0.97,
1.519,-0.18,0.25,0.11,0.02,0.11,0.97,
1.522,-0.14,0.29,-0.05,0.02,0.11,0.97,
1.522,-0.14,0.29,-0.05,0.01,0.11,0.96,
1.524,-0.14,0.29,-0.05,0.01,0.12,0.96,
1.527,-0.14,0.29,-0.05,0.01,0.12,0.95,
1.527,-0.14,0.37,-0.17,0.01,0.12,0.95,
1.53,-0.14,0.37,-0.17,0.01,0.13,0.95,
1.532,-0.14,0.37,-0.17,0.00,0.13,0.95,
1.532,-0.16,0.44,-0.25,0.00,0.13,0.95,
1.534,-0.16,0.44,-0.25,0.00,0.13,0.95,
1.537,-0.16,0.44,-0.25,-0.00,0.13,0.96,
1.537,-0.19,0.49,-0.27,-0.00,0.13,0.96,
1.539,-0.19,0.49,-0.27,-0.01,0.14,0.96,
1.542,-0.19,0.49,-0.27,-0.01,0.14,0.96,
1.542,-0.23,0.54,-0.24,-0.01,0.14,0.96,
1.544,-0.23,0.54,-0.24,-0.01,0.14,0.97,
1.549,-0.23,0.54,-0.24,-0.02,0.14,0.97,
1.549,-0.28,0.55,-0.18,-0.02,0.14,0.97,
1.549,-0.28,0.55,-0.18,-0.03,0.14,0.98,
1.551,-0.28,0.55,-0.18,-0.04,0.14,0.98,
1.552,-0.35,0.55,-0.08,-0.04,0.14,0.98,
1.554,-0.35,0.55,-0.08,-0.04,0.13,0.99,
1.556,-0.35,0.55,-0.08,-0.05,0.13,1.00,
1.556,-0.48,0.55,-0.00,-0.05,0.13,1.00,
1.559,-0.48,0.55,-0.00,-0.05,0.13,1.00,
1.566,-0.48,0.55,-0.00,-0.06,0.13,1.01,
1.566,-0.58,0.50,0.12,-0.06,0.13,1.01,
1.567,-0.58,0.50,0.12,-0.06,0.13,1.01,
1.567,-0.58,0.50,0.12,-0.06,0.13,1.02,
1.567,-0.66,0.46,0.25,-0.06,0.13,1.02,
1.568,-0.66,0.46,0.25,-0.05,0.12,1.03,
1.571,-0.66,0.46,0.25,-0.05,0.12,1.04,
1.571,-0.65,0.42,0.37,-0.05,0.12,1.04,
1.573,-0.65,0.42,0.37,-0.04,0.12,1.04,
1.582,-0.65,0.42,0.37,-0.04,0.12,1.04,
1.582,-0.59,0.37,0.51,-0.04,0.12,1.04,
1.582,-0.59,0.37,0.51,-0.03,0.12,1.05,
1.583,-0.59,0.37,0.51,-0.03,0.12,1.05,
1.583,-0.46,0.33,0.60,-0.03,0.12,1.05,
1.583,-0.46,0.33,0.60,-0.02,0.11,1.05,
1.585,-0.46,0.33,0.60,-0.02,0.11,1.05,
1.586,-0.34,0.29,0.63,-0.02,0.11,1.05,
1.588,-0.34,0.29,0.63,-0.01,0.11,1.05,
1.59,-0.34,0.29,0.63,-0.01,0.11,1.04,
1.591,-0.25,0.26,0.64,-0.01,0.11,1.04,
1.593,-0.25,0.26,0.64,-0.00,0.11,1.04,
1.595,-0.25,0.26,0.64,0.00,0.10,1.03,
1.596,-0.13,0.21,0.61,0.00,0.10,1.03,
1.598,-0.13,0.21,0.61,0.00,0.10,1.02,
1.6,-0.13,0.21,0.61,0.00,0.10,1.01,
1.601,-0.06,0.17,0.49,0.00,0.10,1.01,
1.602,-0.06,0.17,0.49,0.00,0.10,1.00,
1.605,-0.06,0.17,0.49,0.01,0.10,0.99,
1.605,-0.02,0.13,0.34,0.01,0.10,0.99,
1.607,-0.02,0.13,0.34,0.00,0.11,0.98,
1.61,-0.02,0.13,0.34,0.00,0.11,0.97,
1.613,-0.00,0.13,0.14,0.00,0.11,0.97,
1.613,-0.00,0.13,0.14,0.00,0.11,0.96,
1.615,-0.00,0.13,0.14,0.00,0.12,0.95,
1.615,-0.03,0.18,-0.08,0.00,0.12,0.95,
1.617,-0.03,0.18,-0.08,0.00,0.12,0.94,
1.62,-0.03,0.18,-0.08,0.00,0.12,0.94,
1.62,-0.02,0.22,-0.26,0.00,0.12,0.94,
1.622,-0.02,0.22,-0.26,-0.00,0.13,0.93,
1.625,-0.02,0.22,-0.26,-0.00,0.13,0.92,
1.625,-0.03,0.29,-0.42,-0.00,0.13,0.92,
1.627,-0.03,0.29,-0.42,-0.01,0.14,0.92,
1.63,-0.03,0.29,-0.42,-0.02,0.14,0.91,
1.63,-0.08,0.37,-0.58,-0.02,0.14,0.91,
1.632,-0.08,0.37,-0.58,-0.02,0.15,0.91,
1.634,-0.08,0.37,-0.58,-0.03,0.15,0.91,
1.635,-0.17,0.43,-0.67,-0.03,0.15,0.91,
1.637,-0.17,0.43,-0.67,-0.03,0.16,0.90,
1.639,-0.17,0.43,-0.67,-0.03,0.16,0.91,
1.64,-0.26,0.53,-0.73,-0.03,0.16,0.91,
1.643,-0.26,0.53,-0.73,-0.03,0.17,0.91,
1.645,-0.26,0.53,-0.73,-0.04,0.17,0.91,
1.645,-0.33,0.64,-0.74,-0.04,0.17,0.91,
1.647,-0.33,0.64,-0.74,-0.04,0.17,0.92,
1.649,-0.36,0.67,-0.67,-0.04,0.17,0.92,
1.65,-0.36,0.67,-0.67,-0.05,0.17,0.93,
1.651,-0.36,0.67,-0.67,-0.05,0.17,0.93,
1.654,-0.36,0.67,-0.67,-0.05,0.17,0.94,
1.654,-0.42,0.72,-0.55,-0.05,0.17,0.94,
1.656,-0.42,0.72,-0.55,-0.05,0.17,0.95,
1.66,-0.42,0.72,-0.55,-0.05,0.17,0.96,
1.66,-0.48,0.74,-0.41,-0.05,0.17,0.96,
1.662,-0.48,0.74,-0.41,-0.05,0.17,0.97,
1.664,-0.48,0.74,-0.41,-0.05,0.17,0.98,
1.665,-0.47,0.71,-0.23,-0.05,0.17,0.98,
1.667,-0.47,0.71,-0.23,-0.04,0.17,0.99,
1.669,-0.47,0.71,-0.23,-0.04,0.17,1.00,
1.669,-0.45,0.69,-0.03,-0.04,0.17,1.00,
1.671,-0.45,0.69,-0.03,-0.03,0.17,1.00,
1.674,-0.45,0.69,-0.03,-0.03,0.17,1.01,
1.674,-0.36,0.68,0.16,-0.03,0.17,1.01,
1.681,-0.36,0.68,0.16,-0.02,0.16,1.01,
1.682,-0.36,0.68,0.16,-0.01,0.16,1.00,
1.682,-0.24,0.64,0.25,-0.01,0.16,1.00,
1.682,-0.24,0.64,0.25,-0.00,0.16,1.00,
1.684,-0.24,0.64,0.25,0.01,0.15,1.00,
1.684,-0.10,0.58,0.25,0.01,0.15,1.00,
1.686,-0.10,0.58,0.25,0.01,0.15,0.99,
1.688,-0.10,0.58,0.25,0.02,0.15,0.98,
1.689,0.08,0.51,0.19,0.02,0.15,0.98,
1.691,0.08,0.51,0.19,0.03,0.14,0.97,
1.698,0.08,0.51,0.19,0.03,0.14,0.97,
1.698,0.24,0.46,0.06,0.03,0.14,0.97,
1.698,0.24,0.46,0.06,0.03,0.14,0.96,
1.699,0.24,0.46,0.06,0.03,0.14,0.95,
1.699,0.33,0.39,-0.08,0.03,0.14,0.95,
1.701,0.33,0.39,-0.08,0.03,0.14,0.94,
1.703,0.35,0.38,-0.24,0.03,0.14,0.94,
1.703,0.35,0.38,-0.24,0.03,0.15,0.93,
1.705,0.35,0.38,-0.24,0.02,0.15,0.93,
1.708,0.35,0.38,-0.24,0.02,0.15,0.92,
1.708,0.32,0.40,-0.40,0.02,0.15,0.92,
1.71,0.32,0.40,-0.40,0.02,0.16,0.91,
1.713,0.32,0.40,-0.40,0.01,0.17,0.91,
1.713,0.28,0.47,-0.55,0.01,0.17,0.91,
1.715,0.28,0.47,-0.55,0.01,0.17,0.91,
1.718,0.28,0.47,-0.55,0.00,0.18,0.91,
1.718,0.21,0.56,-0.65,0.00,0.18,0.91,
1.72,0.21,0.56,-0.65,-0.00,0.18,0.91,
1.723,0.21,0.56,-0.65,-0.00,0.19,0.91,
1.723,0.13,0.68,-0.68,-0.00,0.19,0.91,
1.726,0.13,0.68,-0.68,-0.01,0.20,0.92,
1.728,0.13,0.68,-0.68,-0.02,0.20,0.92,
1.728,0.06,0.80,-0.64,-0.02,0.20,0.92,
1.73,0.06,0.80,-0.64,-0.02,0.20,0.93,
1.733,0.06,0.80,-0.64,-0.03,0.20,0.93,
1.733,-0.04,0.91,-0.56,-0.03,0.20,0.93,
1.735,-0.04,0.91,-0.56,-0.03,0.21,0.94,
1.737,-0.04,0.91,-0.56,-0.04,0.21,0.95,
1.738,-0.14,0.94,-0.44,-0.04,0.21,0.95,
1.74,-0.14,0.94,-0.44,-0.04,0.21,0.96,
1.742,-0.14,0.94,-0.44,-0.04,0.21,0.98,
1.743,-0.20,0.97,-0.27,-0.04,0.21,0.98,
1.745,-0.20,0.97,-0.27,-0.03,0.21,0.98,
1.748,-0.20,0.97,-0.27,-0.03,0.21,0.99,
1.748,-0.22,0.98,-0.06,-0.03,0.21,0.99,
1.749,-0.22,0.98,-0.06,-0.03,0.21,1.00,
1.752,-0.22,0.98,-0.06,-0.03,0.21,1.01,
1.753,-0.15,1.00,0.13,-0.03,0.21,1.01,
1.754,-0.15,1.00,0.13,-0.03,0.21,1.01,
1.758,-0.15,1.00,0.13,-0.02,0.20,1.01,
1.758,-0.09,0.99,0.28,-0.02,0.20,1.01,
1.76,-0.09,0.99,0.28,-0.02,0.20,1.02,
1.762,-0.09,0.99,0.28,-0.02,0.20,1.02,
1.762,-0.02,0.92,0.37,-0.02,0.20,1.02,
1.765,-0.02,0.92,0.37,-0.01,0.20,1.01,
1.767,-0.02,0.92,0.37,-0.01,0.20,1.01,
1.767,0.06,0.86,0.39,-0.01,0.20,1.01,
1.769,0.06,0.86,0.39,-0.00,0.21,1.01,
1.772,0.06,0.86,0.39,-0.00,0.21,1.01,
1.772,0.14,0.87,0.36,-0.00,0.21,1.01,
1.775,0.14,0.87,0.36,0.00,0.21,1.01,
1.782,0.14,0.87,0.36,0.00,0.20,1.01,
1.783,0.24,0.90,0.34,0.00,0.20,1.01,
1.783,0.24,0.90,0.34,-0.00,0.20,1.01,
1.783,0.24,0.90,0.34,0.00,0.20,1.00,
1.783,0.29,0.86,0.31,0.00,0.20,1.00,
1.784,0.29,0.86,0.31,0.00,0.20,1.00,
1.787,0.29,0.86,0.31,-0.00,0.20,1.00,
1.787,0.28,0.81,0.29,-0.00,0.20,1.00,
1.789,0.28,0.81,0.29,-0.00,0.20,1.00,
1.791,0.28,0.81,0.29,-0.00,0.19,1.00,
1.791,0.28,0.77,0.24,-0.00,0.19,1.00,
1.8,0.28,0.77,0.24,-0.01,0.19,1.00,
1.801,0.28,0.77,0.24,-0.01,0.19,1.00,
1.801,0.27,0.73,0.24,-0.01,0.19,1.00,
1.801,0.27,0.73,0.24,-0.01,0.19,1.00,
1.801,0.27,0.73,0.24,-0.01,0.19,1.00,
1.801,0.24,0.68,0.23,-0.01,0.19,1.00,
1.804,0.24,0.68,0.23,-0.00,0.19,1.00,
1.806,0.24,0.68,0.23,-0.00,0.19,1.01,
1.806,0.22,0.67,0.24,-0.00,0.19,1.01,
1.809,0.22,0.67,0.24,0.00,0.19,1.01,
1.811,0.22,0.67,0.24,0.00,0.19,1.01,
1.811,0.30,0.69,0.26,0.00,0.19,1.01,
1.813,0.30,0.69,0.26,0.00,0.19,1.01,
1.816,0.30,0.69,0.26,-0.00,0.19,1.02,
1.816,0.33,0.71,0.29,-0.00,0.19,1.02,
1.818,0.33,0.71,0.29,0.00,0.19,1.02,
1.821,0.33,0.71,0.29,0.00,0.19,1.02,
1.821,0.32,0.70,0.35,0.00,0.19,1.02,
1.823,0.32,0.70,0.35,0.00,0.19,1.03,
1.826,0.32,0.70,0.35,0.00,0.19,1.03,
1.826,0.34,0.66,0.42,0.00,0.19,1.03,
1.828,0.34,0.66,0.42,0.01,0.19,1.03,
1.83,0.34,0.66,0.42,0.02,0.19,1.04,
1.831,0.37,0.64,0.48,0.02,0.19,1.04,
1.833,0.37,0.64,0.48,0.03,0.19,1.04,
1.835,0.37,0.64,0.48,0.04,0.18,1.04,
1.836,0.50,0.64,0.53,0.04,0.18,1.04,
1.838,0.50,0.64,0.53,0.04,0.18,1.05,
1.84,0.50,0.64,0.53,0.04,0.18,1.05,
1.841,0.67,0.61,0.60,0.04,0.18,1.05,
1.843,0.67,0.61,0.60,0.05,0.17,1.05,
1.845,0.67,0.61,0.60,0.05,0.17,1.06,
1.846,0.76,0.54,0.68,0.05,0.17,1.06,
1.848,0.76,0.54,0.68,0.05,0.16,1.06,
1.85,0.76,0.54,0.68,0.05,0.16,1.06,
1.85,0.80,0.45,0.72,0.05,0.16,1.06,
1.852,0.80,0.45,0.72,0.05,0.16,1.06,
1.855,0.80,0.45,0.72,0.05,0.15,1.06,
1.855,0.84,0.38,0.76,0.05,0.15,1.06,
1.857,0.84,0.38,0.76,0.05,0.15,1.06,
1.865,0.84,0.38,0.76,0.06,0.15,1.06,
1.865,0.87,0.32,0.74,0.06,0.15,1.06,
1.865,0.87,0.32,0.74,0.06,0.16,1.06,
1.866,0.87,0.32,0.74,0.06,0.16,1.05,
1.866,0.89,0.28,0.73,0.06,0.16,1.05,
1.867,0.89,0.28,0.73,0.06,0.16,1.05,
1.87,0.91,0.31,0.70,0.06,0.16,1.05,
1.87,0.91,0.31,0.70,0.06,0.17,1.05,
1.872,0.91,0.31,0.70,0.05,0.17,1.05,
1.876,0.91,0.31,0.70,0.05,0.17,1.05,
1.876,0.89,0.38,0.65,0.05,0.17,1.05,
1.877,0.89,0.38,0.65,0.05,0.17,1.04,
1.879,0.89,0.38,0.65,0.04,0.18,1.04,
1.879,0.85,0.43,0.61,0.04,0.18,1.04,
1.882,0.85,0.43,0.61,0.04,0.18,1.04,
1.884,0.85,0.43,0.61,0.04,0.19,1.04,
1.884,0.77,0.46,0.54,0.04,0.19,1.04,
1.886,0.77,0.46,0.54,0.04,0.19,1.04,
1.889,0.77,0.46,0.54,0.03,0.20,1.04,
1.889,0.71,0.53,0.51,0.03,0.20,1.04,
1.892,0.71,0.53,0.51,0.03,0.20,1.04,
1.894,0.71,0.53,0.51,0.03,0.20,1.04,
1.894,0.67,0.62,0.50,0.03,0.20,1.04,
1.896,0.67,0.62,0.50,0.03,0.20,1.04,
1.899,0.67,0.62,0.50,0.02,0.20,1.03,
1.899,0.62,0.68,0.51,0.02,0.20,1.03,
1.901,0.62,0.68,0.51,0.02,0.20,1.03,
1.904,0.62,0.68,0.51,0.01,0.20,1.03,
1.904,0.55,0.69,0.48,0.01,0.20,1.03,
1.906,0.55,0.69,0.48,0.01,0.20,1.03,
1.909,0.55,0.69,0.48,0.00,0.21,1.03,
1.909,0.47,0.67,0.43,0.00,0.21,1.03,
1.911,0.47,0.67,0.43,0.00,0.21,1.02,
1.914,0.47,0.67,0.43,0.00,0.21,1.02,
1.914,0.36,0.68,0.39,0.00,0.21,1.02,
1.916,0.36,0.68,0.39,-0.00,0.21,1.02,
1.918,0.36,0.68,0.39,-0.00,0.22,1.02,
1.919,0.33,0.70,0.34,-0.00,0.22,1.02,
1.921,0.33,0.70,0.34,-0.01,0.22,1.01,
1.924,0.33,0.70,0.34,-0.01,0.22,1.01,
1.924,0.28,0.75,0.29,-0.01,0.22,1.01,
1.926,0.28,0.75,0.29,-0.01,0.22,1.00,
1.928,0.28,0.75,0.29,-0.01,0.22,1.00,
1.929,0.23,0.75,0.22,-0.01,0.22,1.00,
1.931,0.23,0.75,0.22,-0.01,0.22,0.99,
1.933,0.23,0.75,0.22,-0.02,0.22,0.99,
1.934,0.19,0.74,0.14,-0.02,0.22,0.99,
1.935,0.19,0.74,0.14,-0.02,0.22,0.98,
1.938,0.19,0.74,0.14,-0.02,0.22,0.98,
1.938,0.14,0.74,0.04,-0.02,0.22,0.98,
1.942,0.14,0.74,0.04,-0.02,0.22,0.97,
1.943,0.14,0.74,0.04,-0.02,0.22,0.97,
1.943,0.12,0.74,-0.06,-0.02,0.22,0.97,
1.945,0.12,0.74,-0.06,-0.02,0.22,0.96,
1.948,0.12,0.74,-0.06,-0.01,0.22,0.96,
1.948,0.12,0.73,-0.15,-0.01,0.22,0.96,
1.95,0.12,0.73,-0.15,-0.00,0.22,0.96,
1.953,0.12,0.73,-0.15,-0.00,0.22,0.95,
1.953,0.17,0.73,-0.24,-0.00,0.22,0.95,
1.955,0.17,0.73,-0.24,0.00,0.22,0.95,
1.958,0.17,0.73,-0.24,0.00,0.22,0.95,
1.959,0.26,0.71,-0.29,0.00,0.22,0.95,
1.96,0.26,0.71,-0.29,0.01,0.22,0.96,
1.963,0.26,0.71,-0.29,0.01,0.22,0.96,
1.963,0.32,0.67,-0.31,0.01,0.22,0.96,
1.965,0.32,0.67,-0.31,0.02,0.22,0.97,
1.967,0.39,0.64,-0.24,0.02,0.22,0.97,
1.968,0.39,0.64,-0.24,0.02,0.22,0.97,
1.97,0.39,0.64,-0.24,0.03,0.21,0.98,
1.972,0.39,0.64,-0.24,0.03,0.21,0.99,
1.973,0.48,0.63,-0.14,0.03,0.21,0.99,
1.981,0.48,0.63,-0.14,0.03,0.21,1.00,
1.981,0.48,0.63,-0.14,0.03,0.20,1.01,
1.981,0.53,0.58,0.01,0.03,0.20,1.01,
1.982,0.53,0.58,0.01,0.03,0.19,1.01,
1.983,0.53,0.58,0.01,0.03,0.19,1.02,
1.983,0.57,0.49,0.19,0.03,0.19,1.02,
1.985,0.57,0.49,0.19,0.03,0.18,1.03,
1.987,0.57,0.49,0.19,0.04,0.18,1.03,
1.987,0.57,0.36,0.32,0.04,0.18,1.03,
1.99,0.57,0.36,0.32,0.04,0.18,1.04,
1.997,0.57,0.36,0.32,0.04,0.17,1.04,
1.998,0.59,0.27,0.44,0.04,0.17,1.04,
1.998,0.59,0.27,0.44,0.04,0.17,1.04,
1.998,0.60,0.18,0.49,0.04,0.17,1.04,
1.998,0.60,0.18,0.49,0.04,0.17,1.04,
1.999,0.60,0.18,0.49,0.04,0.17,1.04,
2.002,0.60,0.18,0.49,0.04,0.16,1.03,
2.002,0.60,0.10,0.51,0.04,0.16,1.03,
2.004,0.60,0.10,0.51,0.04,0.16,1.03,
2.007,0.60,0.10,0.51,0.04,0.16,1.02,
2.007,0.64,0.07,0.46,0.04,0.16,1.02,
2.009,0.64,0.07,0.46,0.04,0.17,1.02,
2.012,0.64,0.07,0.46,0.04,0.17,1.01,
2.012,0.65,0.04,0.38,0.04,0.17,1.01,
2.014,0.65,0.04,0.38,0.04,0.17,1.00,
2.016,0.65,0.04,0.38,0.04,0.17,1.00,
2.017,0.63,0.04,0.27,0.04,0.17,1.00,
2.019,0.63,0.04,0.27,0.03,0.17,0.99,
2.021,0.63,0.04,0.27,0.03,0.17,0.98,
2.021,0.58,0.03,0.14,0.03,0.17,0.98,
2.024,0.58,0.03,0.14,0.03,0.17,0.98,
2.027,0.58,0.03,0.14,0.03,0.18,0.97,
2.027,0.54,0.03,0.01,0.03,0.18,0.97,
2.029,0.54,0.03,0.01,0.03,0.18,0.97,
2.031,0.54,0.03,0.01,0.04,0.19,0.96,
2.031,0.50,0.07,-0.12,0.04,0.19,0.96,
2.033,0.50,0.07,-0.12,0.04,0.19,0.96,
2.036,0.50,0.07,-0.12,0.04,0.20,0.96,
2.036,0.52,0.17,-0.20,0.04,0.20,0.96,
2.038,0.52,0.17,-0.20,0.05,0.20,0.95,
2.042,0.59,0.25,-0.25,0.05,0.20,0.95,
2.042,0.59,0.25,-0.25,0.06,0.20,0.95,
2.043,0.59,0.25,-0.25,0.07,0.20,0.95,
2.046,0.59,0.25,-0.25,0.07,0.20,0.95,
2.046,0.71,0.27,-0.31,0.07,0.20,0.95,
2.048,0.71,0.27,-0.31,0.08,0.19,0.95,
2.051,0.71,0.27,-0.31,0.09,0.19,0.95,
2.051,0.84,0.26,-0.33,0.09,0.19,0.95,
2.053,0.84,0.26,-0.33,0.10,0.18,0.95,
2.056,0.84,0.26,-0.33,0.11,0.18,0.96,
2.056,1.00,0.19,-0.32,0.11,0.18,0.96,
2.058,1.00,0.19,-0.32,0.11,0.18,0.96,
2.061,1.00,0.19,-0.32,0.12,0.17,0.97,
2.061,1.14,0.10,-0.26,0.12,0.17,0.97,
2.063,1.14,0.10,-0.26,0.13,0.17,0.98,
2.065,1.14,0.10,-0.26,0.14,0.17,0.99,
2.066,1.27,0.03,-0.15,0.14,0.17,0.99,
2.068,1.27,0.03,-0.15,0.14,0.16,1.00,
2.07,1.27,0.03,-0.15,0.15,0.16,1.01,
2.071,1.41,-0.03,0.01,0.15,0.16,1.01,
2.073,1.41,-0.03,0.01,0.15,0.15,1.02,
2.08,1.41,-0.03,0.01,0.15,0.15,1.03,
2.081,1.51,-0.11,0.19,0.15,0.15,1.03,
2.081,1.51,-0.11,0.19,0.15,0.14,1.04,
2.082,1.51,-0.11,0.19,0.15,0.14,1.04,
2.082,1.52,-0.21,0.37,0.15,0.14,1.04,
2.082,1.52,-0.21,0.37,0.15,0.14,1.05,
2.085,1.52,-0.21,0.37,0.15,0.13,1.06,
2.085,1.53,-0.32,0.54,0.15,0.13,1.06,
2.087,1.53,-0.32,0.54,0.15,0.13,1.06,
2.09,1.53,-0.32,0.54,0.14,0.13,1.06,
2.09,1.51,-0.37,0.67,0.14,0.13,1.06,
2.096,1.51,-0.37,0.67,0.14,0.14,1.07,
2.096,1.51,-0.37,0.67,0.13,0.14,1.07,
2.097,1.46,-0.39,0.77,0.13,0.14,1.07,
2.097,1.46,-0.39,0.77,0.13,0.14,1.07,
2.1,1.46,-0.39,0.77,0.12,0.15,1.06,
2.101,1.37,-0.36,0.79,0.12,0.15,1.06,
2.102,1.37,-0.36,0.79,0.10,0.16,1.06,
2.105,1.37,-0.36,0.79,0.09,0.16,1.05,
2.105,1.19,-0.27,0.75,0.09,0.16,1.05,
2.107,1.19,-0.27,0.75,0.08,0.17,1.05,
2.109,1.19,-0.27,0.75,0.07,0.18,1.04,
2.11,0.96,-0.17,0.68,0.07,0.18,1.04,
2.112,0.96,-0.17,0.68,0.06,0.18,1.03,
2.115,0.96,-0.17,0.68,0.06,0.19,1.02,
2.115,0.72,-0.05,0.55,0.06,0.19,1.02,
2.117,0.72,-0.05,0.55,0.05,0.19,1.01,
2.119,0.72,-0.05,0.55,0.05,0.20,1.00,
2.119,0.56,0.06,0.40,0.05,0.20,1.00,
2.121,0.56,0.06,0.40,0.06,0.21,0.99,
2.124,0.56,0.06,0.40,0.06,0.21,0.98,
2.125,0.48,0.15,0.21,0.06,0.21,0.98,
2.127,0.48,0.15,0.21,0.07,0.21,0.97,
2.129,0.48,0.15,0.21,0.07,0.22,0.96,
2.129,0.50,0.26,0.01,0.07,0.22,0.96,
2.131,0.50,0.26,0.01,0.08,0.22,0.95,
2.134,0.50,0.26,0.01,0.09,0.22,0.95,
2.134,0.61,0.32,-0.18,0.09,0.22,0.95,
2.136,0.61,0.32,-0.18,0.09,0.21,0.95,
2.139,0.61,0.32,-0.18,0.10,0.21,0.95,
2.139,0.69,0.31,-0.32,0.10,0.21,0.95,
2.141,0.69,0.31,-0.32,0.10,0.20,0.95,
2.144,0.69,0.31,-0.32,0.10,0.19,0.95,
2.144,0.78,0.24,-0.36,0.10,0.19,0.95,
2.146,0.78,0.24,-0.36,0.11,0.19,0.96,
2.149,0.78,0.24,-0.36,0.11,0.18,0.97,
2.149,0.83,0.12,-0.32,0.11,0.18,0.97,
2.151,0.83,0.12,-0.32,0.12,0.18,0.97,
2.154,0.83,0.12,-0.32,0.12,0.17,0.98,
2.154,0.91,-0.01,-0.22,0.12,0.17,0.98,
2.156,0.91,-0.01,-0.22,0.12,0.16,0.99,
2.159,0.91,-0.01,-0.22,0.13,0.16,1.00,
2.159,0.97,-0.13,-0.06,0.13,0.16,1.00,
2.161,0.97,-0.13,-0.06,0.13,0.15,1.01,
2.164,0.97,-0.13,-0.06,0.13,0.14,1.02,
2.164,1.02,-0.23,0.12,0.13,0.14,1.02,
2.166,1.02,-0.23,0.12,0.14,0.14,1.02,
2.168,1.02,-0.23,0.12,0.14,0.13,1.03,
2.169,1.08,-0.36,0.27,0.14,0.13,1.03,
2.171,1.08,-0.36,0.27,0.15,0.13,1.04,
2.173,1.08,-0.36,0.27,0.15,0.12,1.04,
2.173,1.13,-0.49,0.41,0.15,0.12,1.04,
2.18,1.13,-0.49,0.41,0.16,0.12,1.04,
2.181,1.13,-0.49,0.41,0.16,0.12,1.05,
2.181,1.20,-0.58,0.52,0.16,0.12,1.05,
2.182,1.20,-0.58,0.52,0.16,0.12,1.05,
2.183,1.20,-0.58,0.52,0.16,0.12,1.05,
2.183,1.27,-0.61,0.59,0.16,0.12,1.05,
2.185,1.27,-0.61,0.59,0.16,0.12,1.05,
2.188,1.27,-0.61,0.59,0.16,0.12,1.05,
2.188,1.27,-0.65,0.63,0.16,0.12,1.05,
2.191,1.27,-0.65,0.63,0.16,0.11,1.04,
2.194,1.27,-0.65,0.63,0.15,0.12,1.04,
2.195,1.24,-0.68,0.60,0.15,0.12,1.04,
2.195,1.24,-0.68,0.60,0.15,0.12,1.04,
2.198,1.24,-0.68,0.60,0.15,0.12,1.03,
2.198,1.17,-0.70,0.54,0.15,0.12,1.03,
2.2,1.17,-0.70,0.54,0.15,0.12,1.03,
2.202,1.17,-0.70,0.54,0.15,0.13,1.03,
2.203,1.11,-0.68,0.48,0.15,0.13,1.03,
2.205,1.11,-0.68,0.48,0.15,0.14,1.03,
2.207,1.11,-0.68,0.48,0.14,0.14,1.02,
2.208,1.06,-0.58,0.42,0.14,0.14,1.02,
2.21,1.06,-0.58,0.42,0.14,0.15,1.02,
2.213,1.06,-0.58,0.42,0.14,0.15,1.01,
2.213,0.98,-0.47,0.36,0.14,0.15,1.01,
2.215,0.98,-0.47,0.36,0.13,0.15,1.00,
2.217,0.98,-0.47,0.36,0.12,0.16,1.00,
2.217,0.89,-0.39,0.26,0.12,0.16,1.00,
2.219,0.89,-0.39,0.26,0.12,0.16,0.99,
2.222,0.78,-0.33,0.13,0.12,0.16,0.99,
2.222,0.78,-0.33,0.13,0.12,0.17,0.99,
2.224,0.78,-0.33,0.13,0.12,0.17,0.98,
2.227,0.78,-0.33,0.13,0.12,0.17,0.98,
2.228,0.70,-0.27,0.05,0.12,0.17,0.98,
2.23,0.70,-0.27,0.05,0.12,0.17,0.98,
2.232,0.70,-0.27,0.05,0.11,0.17,0.97,
2.233,0.66,-0.19,-0.03,0.11,0.17,0.97,
2.234,0.66,-0.19,-0.03,0.11,0.17,0.96,
2.237,0.66,-0.19,-0.03,0.11,0.17,0.96,
2.237,0.59,-0.20,-0.13,0.11,0.17,0.96,
2.239,0.59,-0.20,-0.13,0.10,0.17,0.95,
2.242,0.59,-0.20,-0.13,0.10,0.16,0.95,
2.242,0.52,-0.23,-0.26,0.10,0.16,0.95,
2.244,0.52,-0.23,-0.26,0.11,0.17,0.94,
2.247,0.52,-0.23,-0.26,0.11,0.16,0.94,
2.247,0.46,-0.30,-0.35,0.11,0.16,0.94,
2.249,0.46,-0.30,-0.35,0.11,0.16,0.94,
2.252,0.46,-0.30,-0.35,0.11,0.16,0.94,
2.252,0.46,-0.32,-0.40,0.11,0.16,0.94,
2.254,0.46,-0.32,-0.40,0.11,0.15,0.94,
2.257,0.46,-0.32,-0.40,0.11,0.15,0.94,
2.257,0.49,-0.36,-0.42,0.11,0.15,0.94,
2.264,0.49,-0.36,-0.42,0.12,0.14,0.94,
2.265,0.49,-0.36,-0.42,0.12,0.14,0.94,
2.265,0.49,-0.45,-0.42,0.12,0.14,0.94,
2.267,0.49,-0.45,-0.42,0.12,0.14,0.94,
2.267,0.49,-0.45,-0.42,0.12,0.13,0.94,
2.267,0.52,-0.54,-0.43,0.12,0.13,0.94,
2.269,0.52,-0.54,-0.43,0.13,0.13,0.94,
2.271,0.52,-0.54,-0.43,0.13,0.13,0.94,
2.271,0.57,-0.63,-0.41,0.13,0.13,0.94,
2.275,0.57,-0.63,-0.41,0.13,0.13,0.95,
2.276,0.57,-0.63,-0.41,0.14,0.13,0.96,
2.276,0.61,-0.67,-0.37,0.14,0.13,0.96,
2.279,0.61,-0.67,-0.37,0.14,0.13,0.96,
2.281,0.61,-0.67,-0.37,0.14,0.13,0.97,
2.281,0.67,-0.71,-0.26,0.14,0.13,0.97,
2.283,0.67,-0.71,-0.26,0.15,0.14,0.98,
2.286,0.67,-0.71,-0.26,0.14,0.14,0.98,
2.286,0.73,-0.67,-0.13,0.14,0.14,0.98,
2.288,0.73,-0.67,-0.13,0.14,0.14,0.99,
2.291,0.73,-0.67,-0.13,0.14,0.14,1.00,
2.292,0.74,-0.61,0.01,0.14,0.14,1.00,
2.293,0.74,-0.61,0.01,0.13,0.14,1.00,
2.296,0.74,-0.61,0.01,0.13,0.14,1.00,
2.296,0.66,-0.57,0.14,0.13,0.14,1.00,
2.298,0.66,-0.57,0.14,0.12,0.14,1.00,
2.301,0.58,-0.55,0.19,0.12,0.14,1.00,
2.301,0.58,-0.55,0.19,0.12,0.15,1.00,
2.303,0.58,-0.55,0.19,0.11,0.15,1.00,
2.305,0.58,-0.55,0.19,0.11,0.15,0.99,
2.306,0.47,-0.55,0.19,0.11,0.15,0.99,
2.308,0.47,-0.55,0.19,0.11,0.15,0.99,
2.31,0.47,-0.55,0.19,0.10,0.15,0.98,
2.311,0.40,-0.54,0.15,0.10,0.15,0.98,
2.313,0.40,-0.54,0.15,0.10,0.15,0.97,
2.315,0.40,-0.54,0.15,0.10,0.16,0.96,
2.315,0.32,-0.51,0.04,0.10,0.16,0.96,
2.318,0.32,-0.51,0.04,0.09,0.16,0.95,
2.32,0.32,-0.51,0.04,0.09,0.16,0.94,
2.32,0.24,-0.48,-0.11,0.09,0.16,0.94,
2.323,0.24,-0.48,-0.11,0.08,0.16,0.93,
2.325,0.24,-0.48,-0.11,0.08,0.16,0.93,
2.326,0.13,-0.47,-0.28,0.08,0.16,0.93,
2.327,0.13,-0.47,-0.28,0.07,0.16,0.92,
2.33,0.13,-0.47,-0.28,0.07,0.16,0.91,
2.33,0.04,-0.45,-0.46,0.07,0.16,0.91,
2.332,0.04,-0.45,-0.46,0.06,0.16,0.91,
2.335,0.04,-0.45,-0.46,0.05,0.16,0.90,
2.335,-0.09,-0.48,-0.61,0.05,0.16,0.90,
2.337,-0.09,-0.48,-0.61,0.05,0.16,0.90,
2.342,-0.09,-0.48,-0.61,0.04,0.16,0.90,
2.343,-0.21,-0.48,-0.70,0.04,0.16,0.90,
2.343,-0.21,-0.48,-0.70,0.04,0.16,0.90,
2.345,-0.21,-0.48,-0.70,0.04,0.15,0.91,
2.345,-0.31,-0.50,-0.71,0.04,0.15,0.91,
2.347,-0.31,-0.50,-0.71,0.04,0.15,0.91,
2.349,-0.31,-0.50,-0.71,0.04,0.15,0.92,
2.35,-0.37,-0.53,-0.67,0.04,0.15,0.92,
2.352,-0.37,-0.53,-0.67,0.04,0.14,0.92,
2.354,-0.37,-0.53,-0.67,0.04,0.15,0.93,
2.355,-0.40,-0.60,-0.57,0.04,0.15,0.93,
2.357,-0.40,-0.60,-0.57,0.05,0.15,0.95,
2.36,-0.40,-0.60,-0.57,0.05,0.15,0.96,
2.36,-0.36,-0.61,-0.43,0.05,0.15,0.96,
2.362,-0.36,-0.61,-0.43,0.06,0.15,0.97,
2.364,-0.36,-0.61,-0.43,0.07,0.15,0.98,
2.365,-0.25,-0.58,-0.18,0.07,0.15,0.98,
2.366,-0.25,-0.58,-0.18,0.08,0.15,0.99,
2.369,-0.25,-0.58,-0.18,0.08,0.14,1.00,
2.37,-0.08,-0.57,0.04,0.08,0.14,1.00,
2.372,-0.08,-0.57,0.04,0.09,0.14,1.01,
2.379,-0.08,-0.57,0.04,0.09,0.13,1.02,
2.38,0.06,-0.62,0.23,0.09,0.13,1.02,
2.38,0.06,-0.62,0.23,0.09,0.12,1.02,
2.38,0.06,-0.62,0.23,0.09,0.12,1.03,
2.38,0.13,-0.72,0.40,0.09,0.12,1.03,
2.381,0.13,-0.72,0.40,0.10,0.12,1.03,
2.384,0.13,-0.72,0.40,0.10,0.12,1.03,
2.384,0.18,-0.81,0.50,0.10,0.12,1.03,
2.386,0.18,-0.81,0.50,0.10,0.12,1.03,
2.389,0.18,-0.81,0.50,0.11,0.12,1.03,
2.389,0.21,-0.85,0.55,0.11,0.12,1.03,
2.394,0.21,-0.85,0.55,0.11,0.12,1.03,
2.394,0.21,-0.85,0.55,0.11,0.12,1.02,
2.394,0.27,-0.86,0.55,0.11,0.12,1.02,
2.396,0.27,-0.86,0.55,0.10,0.12,1.02,
2.398,0.27,-0.86,0.55,0.10,0.12,1.02,
2.399,0.30,-0.86,0.51,0.10,0.12,1.02,
2.401,0.30,-0.86,0.51,0.09,0.12,1.01,
2.404,0.30,-0.86,0.51,0.08,0.12,1.00,
2.404,0.22,-0.85,0.45,0.08,0.12,1.00,
2.406,0.22,-0.85,0.45,0.07,0.12,0.99,
2.409,0.22,-0.85,0.45,0.06,0.12,0.98,
2.409,0.07,-0.83,0.32,0.06,0.12,0.98,
2.411,0.07,-0.83,0.32,0.05,0.12,0.97,
2.413,0.07,-0.83,0.32,0.04,0.13,0.96,
2.414,-0.16,-0.84,0.14,0.04,0.13,0.96,
2.416,-0.16,-0.84,0.14,0.03,0.13,0.95,
2.418,-0.16,-0.84,0.14,0.03,0.13,0.94,
2.418,-0.33,-0.83,-0.09,0.03,0.13,0.94,
2.421,-0.33,-0.83,-0.09,0.03,0.13,0.93,
2.423,-0.33,-0.83,-0.09,0.03,0.14,0.92,
2.424,-0.46,-0.81,-0.31,0.03,0.14,0.92,
2.426,-0.46,-0.81,-0.31,0.02,0.15,0.92,
2.428,-0.46,-0.81,-0.31,0.03,0.15,0.91,
2.429,-0.51,-0.72,-0.48,0.03,0.15,0.91,
2.43,-0.51,-0.72,-0.48,0.03,0.15,0.91,
2.433,-0.51,-0.72,-0.48,0.03,0.16,0.91,
2.433,-0.53,-0.62,-0.55,0.03,0.16,0.91,
2.435,-0.53,-0.62,-0.55,0.03,0.15,0.91,
2.438,-0.53,-0.62,-0.55,0.03,0.15,0.91,
2.438,-0.49,-0.56,-0.59,0.03,0.15,0.91,
2.44,-0.49,-0.56,-0.59,0.04,0.15,0.92,
2.443,-0.49,-0.56,-0.59,0.04,0.14,0.92,
2.443,-0.44,-0.59,-0.57,0.04,0.14,0.92,
2.445,-0.44,-0.59,-0.57,0.04,0.14,0.93,
2.447,-0.44,-0.59,-0.57,0.05,0.14,0.94,
2.448,-0.38,-0.66,-0.49,0.05,0.14,0.94,
2.45,-0.38,-0.66,-0.49,0.06,0.14,0.95,
2.452,-0.38,-0.66,-0.49,0.06,0.14,0.96,
2.452,-0.29,-0.72,-0.30,0.06,0.14,0.96,
2.455,-0.29,-0.72,-0.30,0.07,0.14,0.97,
2.457,-0.17,-0.70,-0.09,0.07,0.14,0.97,
2.457,-0.17,-0.70,-0.09,0.07,0.13,0.98,
2.459,-0.17,-0.70,-0.09,0.07,0.13,0.99,
2.462,-0.17,-0.70,-0.09,0.07,0.12,1.00,
2.462,-0.09,-0.76,0.09,0.07,0.12,1.00,
2.464,-0.09,-0.76,0.09,0.07,0.12,1.00,
2.467,-0.09,-0.76,0.09,0.08,0.12,1.00,
2.467,-0.04,-0.84,0.25,0.08,0.12,1.00,
2.469,-0.04,-0.84,0.25,0.08,0.11,1.01,
2.472,-0.04,-0.84,0.25,0.08,0.11,1.01,
2.472,-0.00,-0.93,0.34,0.08,0.11,1.01,
2.478,-0.00,-0.93,0.34,0.08,0.11,1.01,
2.478,-0.00,-0.93,0.34,0.08,0.11,1.01,
2.479,0.02,-1.01,0.36,0.08,0.11,1.01,
2.479,0.02,-1.01,0.36,0.08,0.11,1.00,
2.482,0.02,-1.01,0.36,0.08,0.11,1.00,
2.482,0.05,-1.02,0.36,0.08,0.11,1.00,
2.484,0.05,-1.02,0.36,0.08,0.11,1.00,
2.486,0.05,-1.02,0.36,0.08,0.11,0.99,
2.487,0.07,-1.00,0.33,0.08,0.11,0.99,
2.489,0.07,-1.00,0.33,0.08,0.12,0.98,
2.491,0.07,-1.00,0.33,0.08,0.12,0.98,
2.492,0.06,-0.97,0.23,0.08,0.12,0.98,
2.494,0.06,-0.97,0.23,0.07,0.11,0.97,
2.496,0.06,-0.97,0.23,0.06,0.11,0.96,
2.496,0.01,-0.96,0.10,0.06,0.11,0.96,
2.499,0.01,-0.96,0.10,0.06,0.11,0.95,
2.501,0.01,-0.96,0.10,0.05,0.11,0.95,
2.501,-0.12,-1.00,-0.05,0.05,0.11,0.95,
2.503,-0.12,-1.00,-0.05,0.05,0.11,0.94,
2.507,-0.12,-1.00,-0.05,0.05,0.11,0.93,
2.508,-0.23,-1.04,-0.18,0.05,0.11,0.93,
2.509,-0.23,-1.04,-0.18,0.05,0.11,0.93,
2.511,-0.23,-1.04,-0.18,0.05,0.11,0.93,
2.512,-0.32,-1.03,-0.31,0.05,0.11,0.93,
2.513,-0.32,-1.03,-0.31,0.05,0.11,0.92,
2.516,-0.32,-1.03,-0.31,0.05,0.11,0.92,
2.517,-0.31,-1.00,-0.39,0.05,0.11,0.92,
2.518,-0.31,-1.00,-0.39,0.06,0.11,0.91,
2.521,-0.31,-1.00,-0.39,0.06,0.11,0.91,
2.521,-0.27,-1.00,-0.47,0.06,0.11,0.91,
2.523,-0.27,-1.00,-0.47,0.06,0.11,0.90,
2.526,-0.27,-1.00,-0.47,0.07,0.10,0.90,
2.526,-0.23,-1.04,-0.56,0.07,0.10,0.90,
2.528,-0.23,-1.04,-0.56,0.07,0.10,0.90,
2.531,-0.23,-1.04,-0.56,0.08,0.10,0.90,
2.531,-0.15,-1.08,-0.64,0.08,0.10,0.90,
2.533,-0.15,-1.08,-0.64,0.09,0.10,0.90,
2.535,-0.15,-1.08,-0.64,0.10,0.09,0.90,
2.536,-0.07,-1.13,-0.66,0.10,0.09,0.90,
2.538,-0.07,-1.13,-0.66,0.10,0.09,0.90,
2.541,-0.07,-1.13,-0.66,0.11,0.08,0.90,
2.541,0.10,-1.14,-0.65,0.11,0.08,0.90,
2.543,0.10,-1.14,-0.65,0.12,0.08,0.90,
2.545,0.25,-1.21,-0.62,0.12,0.08,0.90,
2.546,0.25,-1.21,-0.62,0.12,0.08,0.91,
2.548,0.25,-1.21,-0.62,0.13,0.07,0.91,
2.55,0.25,-1.21,-0.62,0.13,0.07,0.92,
2.55,0.37,-1.29,-0.56,0.13,0.07,0.92,
2.553,0.37,-1.29,-0.56,0.14,0.07,0.92,
2.555,0.45,-1.34,-0.47,0.14,0.07,0.92,
2.555,0.45,-1.34,-0.47,0.14,0.07,0.93,
2.562,0.45,-1.34,-0.47,0.14,0.07,0.94,
2.563,0.45,-1.34,-0.47,0.14,0.07,0.94,
2.563,0.52,-1.35,-0.35,0.14,0.07,0.94,
2.563,0.52,-1.35,-0.35,0.14,0.07,0.95,
2.565,0.52,-1.35,-0.35,0.14,0.08,0.95,
2.565,0.57,-1.32,-0.23,0.14,0.08,0.95,
2.567,0.57,-1.32,-0.23,0.13,0.08,0.96,
2.57,0.57,-1.32,-0.23,0.13,0.08,0.96,
2.57,0.55,-1.27,-0.11,0.13,0.08,0.96,
2.572,0.55,-1.27,-0.11,0.12,0.08,0.96,
2.579,0.55,-1.27,-0.11,0.11,0.09,0.97,
2.58,0.45,-1.22,-0.03,0.11,0.09,0.97,
2.58,0.45,-1.22,-0.03,0.10,0.09,0.97,
2.58,0.45,-1.22,-0.03,0.09,0.10,0.97,
2.58,0.26,-1.16,0.03,0.09,0.10,0.97,
2.582,0.26,-1.16,0.03,0.08,0.11,0.97,
2.584,0.26,-1.16,0.03,0.07,0.11,0.97,
2.585,0.06,-1.05,0.07,0.07,0.11,0.97,
2.587,0.06,-1.05,0.07,0.06,0.12,0.96,
2.59,0.06,-1.05,0.07,0.05,0.12,0.96,
2.593,-0.11,-0.92,0.07,0.05,0.12,0.96,
2.593,-0.11,-0.92,0.07,0.04,0.13,0.95,
2.594,-0.11,-0.92,0.07,0.04,0.13,0.95,
2.595,-0.26,-0.81,0.01,0.04,0.13,0.95,
2.597,-0.26,-0.81,0.01,0.03,0.13,0.94,
2.599,-0.26,-0.81,0.01,0.03,0.13,0.93,
2.599,-0.43,-0.75,-0.10,0.03,0.13,0.93,
2.601,-0.43,-0.75,-0.10,0.02,0.13,0.92,
2.604,-0.43,-0.75,-0.10,0.02,0.13,0.92,
2.604,-0.52,-0.74,-0.23,0.02,0.13,0.92,
2.606,-0.52,-0.74,-0.23,0.02,0.13,0.91,
2.61,-0.52,-0.74,-0.23,0.02,0.14,0.90,
2.61,-0.59,-0.73,-0.40,0.02,0.14,0.90,
2.611,-0.59,-0.73,-0.40,0.03,0.14,0.89,
2.614,-0.59,-0.73,-0.40,0.03,0.14,0.89,
2.614,-0.57,-0.70,-0.55,0.03,0.14,0.89,
2.616,-0.57,-0.70,-0.55,0.03,0.14,0.89,
2.619,-0.57,-0.70,-0.55,0.04,0.14,0.88,
2.619,-0.52,-0.66,-0.65,0.04,0.14,0.88,
2.621,-0.52,-0.66,-0.65,0.05,0.14,0.88,
2.624,-0.52,-0.66,-0.65,0.05,0.14,0.88,
2.624,-0.43,-0.62,-0.71,0.05,0.14,0.88,
2.626,-0.43,-0.62,-0.71,0.05,0.14,0.89,
2.629,-0.43,-0.62,-0.71,0.05,0.13,0.89,
2.629,-0.34,-0.64,-0.74,0.05,0.13,0.89,
2.631,-0.34,-0.64,-0.74,0.06,0.13,0.89,
2.633,-0.34,-0.64,-0.74,0.05,0.13,0.90,
2.634,-0.28,-0.67,-0.68,0.05,0.13,0.90,
2.636,-0.28,-0.67,-0.68,0.05,0.13,0.90,
2.638,-0.28,-0.67,-0.68,0.05,0.13,0.90,
2.639,-0.25,-0.69,-0.61,0.05,0.13,0.90,
2.641,-0.25,-0.69,-0.61,0.04,0.13,0.91,
2.644,-0.25,-0.69,-0.61,0.04,0.13,0.91,
2.645,-0.31,-0.70,-0.53,0.04,0.13,0.91,
2.646,-0.31,-0.70,-0.53,0.03,0.13,0.91,
2.648,-0.31,-0.70,-0.53,0.03,0.13,0.92,
2.648,-0.38,-0.70,-0.46,0.03,0.13,0.92,
2.65,-0.38,-0.70,-0.46,0.03,0.13,0.92,
2.653,-0.38,-0.70,-0.46,0.03,0.13,0.93,
2.654,-0.46,-0.70,-0.38,0.03,0.13,0.93,
2.662,-0.46,-0.70,-0.38,0.03,0.14,0.93,
2.663,-0.46,-0.70,-0.38,0.02,0.14,0.93,
2.663,-0.50,-0.68,-0.30,0.02,0.14,0.93,
2.663,-0.50,-0.68,-0.30,0.02,0.14,0.93,
2.663,-0.50,-0.68,-0.30,0.02,0.14,0.94,
2.664,-0.54,-0.61,-0.23,0.02,0.14,0.94,
2.665,-0.54,-0.61,-0.23,0.01,0.15,0.94,
2.668,-0.54,-0.61,-0.23,0.01,0.15,0.94,
2.668,-0.58,-0.56,-0.18,0.01,0.15,0.94,
2.67,-0.58,-0.56,-0.18,0.01,0.16,0.94,
2.68,-0.58,-0.56,-0.18,0.01,0.16,0.94,
2.68,-0.65,-0.46,-0.15,0.01,0.16,0.94,
2.68,-0.65,-0.46,-0.15,0.00,0.16,0.94,
2.68,-0.65,-0.46,-0.15,-0.00,0.17,0.94,
2.68,-0.70,-0.39,-0.13,-0.00,0.17,0.94,
2.68,-0.70,-0.39,-0.13,-0.00,0.17,0.95,
2.682,-0.70,-0.39,-0.13,-0.01,0.17,0.95,
2.683,-0.78,-0.31,-0.11,-0.01,0.17,0.95,
2.685,-0.78,-0.31,-0.11,-0.01,0.17,0.95,
2.687,-0.78,-0.31,-0.11,-0.02,0.16,0.95,
2.688,-0.84,-0.28,-0.09,-0.02,0.16,0.95,
2.69,-0.84,-0.28,-0.09,-0.02,0.16,0.94,
2.692,-0.84,-0.28,-0.09,-0.02,0.16,0.94,
2.692,-0.90,-0.30,-0.09,-0.02,0.16,0.94,
2.695,-0.90,-0.30,-0.09,-0.02,0.16,0.94,
2.697,-0.90,-0.30,-0.09,-0.02,0.15,0.94,
2.697,-0.93,-0.35,-0.10,-0.02,0.15,0.94,
2.699,-0.93,-0.35,-0.10,-0.02,0.15,0.94,
2.702,-0.93,-0.39,-0.13,-0.02,0.15,0.94,
2.702,-0.93,-0.39,-0.13,-0.01,0.15,0.94,
2.704,-0.93,-0.39,-0.13,-0.02,0.15,0.94,
2.708,-0.93,-0.39,-0.13,-0.01,0.14,0.93,
2.708,-0.90,-0.42,-0.15,-0.01,0.14,0.93,
2.71,-0.90,-0.42,-0.15,-0.01,0.14,0.93,
2.712,-0.90,-0.42,-0.15,-0.01,0.14,0.93,
2.713,-0.89,-0.47,-0.18,-0.01,0.14,0.93,
2.714,-0.89,-0.47,-0.18,-0.00,0.14,0.93,
2.717,-0.84,-0.48,-0.19,-0.00,0.14,0.93,
2.717,-0.84,-0.48,-0.19,-0.00,0.14,0.93,
2.719,-0.84,-0.48,-0.19,-0.00,0.14,0.93,
2.722,-0.84,-0.48,-0.19,-0.00,0.14,0.93,
2.722,-0.77,-0.47,-0.20,-0.00,0.14,0.93,
2.725,-0.77,-0.47,-0.20,-0.00,0.14,0.93,
2.727,-0.77,-0.47,-0.20,-0.00,0.15,0.93,
2.727,-0.74,-0.46,-0.21,-0.00,0.15,0.93,
2.729,-0.74,-0.46,-0.21,-0.01,0.15,0.93,
2.731,-0.74,-0.46,-0.21,-0.01,0.15,0.93,
2.732,-0.75,-0.45,-0.22,-0.01,0.15,0.93,
2.734,-0.75,-0.45,-0.22,-0.01,0.16,0.93,
2.736,-0.75,-0.45,-0.22,-0.00,0.16,0.93,
2.737,-0.79,-0.39,-0.22,-0.00,0.16,0.93,
2.74,-0.79,-0.39,-0.22,0.00,0.17,0.93,
2.741,-0.79,-0.39,-0.22,0.00,0.17,0.94,
2.742,-0.77,-0.28,-0.20,0.00,0.17,0.94,
2.744,-0.77,-0.28,-0.20,0.00,0.18,0.94,
2.746,-0.77,-0.28,-0.20,0.01,0.18,0.95,
2.747,-0.70,-0.16,-0.16,0.01,0.18,0.95,
2.748,-0.70,-0.16,-0.16,0.01,0.19,0.96,
2.751,-0.70,-0.16,-0.16,0.01,0.19,0.96,
2.751,-0.67,-0.05,-0.06,0.01,0.19,0.96,
2.754,-0.67,-0.05,-0.06,0.01,0.19,0.97,
2.757,-0.67,-0.05,-0.06,0.00,0.20,0.97,
2.757,-0.64,0.05,0.07,0.00,0.20,0.97,
2.758,-0.64,0.05,0.07,0.00,0.19,0.97,
2.761,-0.64,0.05,0.07,-0.00,0.20,0.98,
2.761,-0.66,0.09,0.17,-0.00,0.20,0.98,
2.763,-0.66,0.09,0.17,-0.00,0.19,0.98,
2.766,-0.66,0.09,0.17,-0.00,0.20,0.98,
2.766,-0.70,0.09,0.21,-0.00,0.20,0.98,
2.768,-0.70,0.09,0.21,-0.01,0.20,0.98,
2.77,-0.70,0.09,0.21,-0.01,0.20,0.97,
2.771,-0.73,0.10,0.22,-0.01,0.20,0.97,
2.778,-0.73,0.10,0.22,-0.01,0.20,0.97,
2.778,-0.73,0.10,0.22,-0.01,0.20,0.97,
2.778,-0.75,0.11,0.21,-0.01,0.20,0.97,
2.779,-0.75,0.11,0.21,-0.01,0.20,0.97,
2.781,-0.75,0.11,0.21,-0.01,0.20,0.97,
2.781,-0.76,0.12,0.20,-0.01,0.20,0.97,
2.783,-0.76,0.12,0.20,-0.01,0.20,0.97,
2.785,-0.76,0.12,0.20,-0.01,0.19,0.97,
2.786,-0.76,0.11,0.17,-0.01,0.19,0.97,
2.788,-0.76,0.11,0.17,-0.01,0.19,0.96,
2.79,-0.76,0.11,0.17,-0.01,0.18,0.96,
2.791,-0.74,0.07,0.12,-0.01,0.18,0.96,
2.793,-0.74,0.07,0.12,-0.02,0.18,0.96,
2.795,-0.74,0.07,0.12,-0.02,0.18,0.95,
2.795,-0.77,-0.01,0.05,-0.02,0.18,0.95,
2.798,-0.77,-0.01,0.05,-0.03,0.17,0.95,
2.8,-0.85,-0.09,0.01,-0.03,0.17,0.95,
2.8,-0.85,-0.09,0.01,-0.03,0.17,0.95,
2.802,-0.85,-0.09,0.01,-0.03,0.17,0.95,
2.805,-0.85,-0.09,0.01,-0.04,0.17,0.95,
2.805,-0.93,-0.14,-0.02,-0.04,0.17,0.95,
2.807,-0.93,-0.14,-0.02,-0.04,0.17,0.95,
2.81,-0.93,-0.14,-0.02,-0.03,0.18,0.95,
2.81,-0.96,-0.15,-0.06,-0.03,0.18,0.95,
2.812,-0.96,-0.15,-0.06,-0.03,0.18,0.94,
2.815,-0.96,-0.15,-0.06,-0.03,0.18,0.94,
2.815,-0.96,-0.12,-0.08,-0.03,0.18,0.94,
2.817,-0.96,-0.12,-0.08,-0.03,0.18,0.94,
2.819,-0.96,-0.12,-0.08,-0.03,0.19,0.94,
2.82,-0.94,-0.07,-0.13,-0.03,0.19,0.94,
2.822,-0.94,-0.07,-0.13,-0.03,0.19,0.94,
2.825,-0.94,-0.07,-0.13,-0.02,0.20,0.94,
2.825,-0.90,0.00,-0.16,-0.02,0.20,0.94,
2.827,-0.90,0.00,-0.16,-0.02,0.20,0.94,
2.829,-0.90,0.00,-0.16,-0.02,0.21,0.94,
2.83,-0.85,0.08,-0.16,-0.02,0.21,0.94,
2.832,-0.85,0.08,-0.16,-0.02,0.21,0.95,
2.834,-0.85,0.08,-0.16,-0.02,0.21,0.95,
2.834,-0.79,0.19,-0.13,-0.02,0.21,0.95,
2.837,-0.79,0.19,-0.13,-0.02,0.21,0.95,
2.839,-0.79,0.19,-0.13,-0.02,0.21,0.95,
2.84,-0.80,0.25,-0.07,-0.02,0.21,0.95,
2.842,-0.80,0.25,-0.07,-0.02,0.21,0.96,
2.844,-0.80,0.25,-0.07,-0.02,0.21,0.96,
2.845,-0.83,0.25,-0.02,-0.02,0.21,0.96,
2.846,-0.83,0.25,-0.02,-0.02,0.21,0.96,
2.849,-0.83,0.25,-0.02,-0.02,0.21,0.96,
2.849,-0.82,0.24,0.02,-0.02,0.21,0.96,
2.851,-0.82,0.24,0.02,-0.03,0.21,0.96,
2.854,-0.82,0.24,0.02,-0.02,0.21,0.97,
2.854,-0.81,0.24,0.06,-0.02,0.21,0.97,
2.857,-0.81,0.24,0.06,-0.03,0.21,0.97,
2.859,-0.81,0.24,0.06,-0.03,0.21,0.97,
2.859,-0.82,0.24,0.09,-0.03,0.21,0.97,
2.861,-0.82,0.24,0.09,-0.03,0.21,0.97,
2.863,-0.82,0.24,0.09,-0.03,0.21,0.97,
2.864,-0.86,0.26,0.13,-0.03,0.21,0.97,
2.866,-0.86,0.26,0.13,-0.04,0.20,0.97,
2.869,-0.86,0.26,0.13,-0.04,0.20,0.97,
2.869,-0.88,0.24,0.15,-0.04,0.20,0.97,
2.871,-0.88,0.24,0.15,-0.04,0.20,0.97,
2.878,-0.88,0.24,0.15,-0.04,0.19,0.97,
2.879,-0.92,0.21,0.18,-0.04,0.19,0.97,
2.879,-0.92,0.21,0.18,-0.04,0.19,0.97,
2.879,-0.92,0.21,0.18,-0.04,0.18,0.97,
2.88,-0.93,0.13,0.17,-0.04,0.18,0.97,
2.881,-0.93,0.13,0.17,-0.04,0.18,0.97,
2.883,-0.93,0.13,0.17,-0.04,0.18,0.97,
2.884,-0.94,0.05,0.15,-0.04,0.18,0.97,
2.885,-0.94,0.05,0.15,-0.04,0.18,0.97,
2.888,-0.94,0.05,0.15,-0.04,0.18,0.97,
2.888,-0.93,0.02,0.14,-0.04,0.18,0.97,
2.895,-0.93,0.02,0.14,-0.04,0.18,0.97,
2.895,-0.93,0.02,0.14,-0.04,0.18,0.97,
2.896,-0.88,0.03,0.15,-0.04,0.18,0.97,
2.896,-0.88,0.03,0.15,-0.03,0.18,0.97,
2.898,-0.88,0.03,0.15,-0.03,0.17,0.96,
2.898,-0.84,0.01,0.13,-0.03,0.17,0.96,
2.9,-0.84,0.01,0.13,-0.03,0.17,0.96,
2.903,-0.84,0.01,0.13,-0.03,0.17,0.96,
2.903,-0.80,-0.05,0.08,-0.03,0.17,0.96,
2.906,-0.80,-0.05,0.08,-0.03,0.17,0.96,
2.908,-0.80,-0.05,0.08,-0.02,0.17,0.96,
2.908,-0.79,-0.08,0.01,-0.02,0.17,0.96,
2.91,-0.79,-0.08,0.01,-0.02,0.17,0.96,
2.913,-0.79,-0.08,0.01,-0.01,0.17,0.96,
2.913,-0.71,-0.08,0.01,-0.01,0.17,0.96,
2.915,-0.71,-0.08,0.01,-0.01,0.17,0.96,
2.918,-0.71,-0.08,0.01,-0.01,0.17,0.96,
2.918,-0.60,-0.06,0.02,-0.01,0.17,0.96,
2.92,-0.60,-0.06,0.02,-0.00,0.17,0.96,
2.923,-0.60,-0.06,0.02,-0.00,0.17,0.97,
2.923,-0.52,-0.06,0.05,-0.00,0.17,0.97,
2.925,-0.52,-0.06,0.05,0.00,0.17,0.97,
2.928,-0.52,-0.06,0.05,0.01,0.17,0.98,
2.928,-0.45,-0.07,0.09,0.01,0.17,0.98,
2.929,-0.45,-0.07,0.09,0.01,0.17,0.98,
2.932,-0.45,-0.07,0.09,0.00,0.17,0.98,
2.932,-0.40,-0.05,0.17,0.00,0.17,0.98,
2.935,-0.40,-0.05,0.17,0.00,0.17,0.99,
2.937,-0.40,-0.05,0.17,-0.00,0.17,1.00,
2.937,-0.38,-0.02,0.23,-0.00,0.17,1.00,
2.94,-0.38,-0.02,0.23,-0.01,0.17,1.00,
2.944,-0.38,-0.02,0.23,-0.01,0.17,1.00,
2.945,-0.40,-0.03,0.33,-0.01,0.17,1.00,
2.945,-0.40,-0.03,0.33,-0.01,0.17,1.01,
2.947,-0.40,-0.03,0.33,-0.02,0.17,1.01,
2.947,-0.48,-0.04,0.42,-0.02,0.17,1.01,
2.949,-0.48,-0.04,0.42,-0.02,0.17,1.02,
2.952,-0.48,-0.04,0.42,-0.03,0.18,1.02,
2.952,-0.57,-0.02,0.51,-0.03,0.18,1.02,
2.954,-0.57,-0.02,0.51,-0.03,0.18,1.03,
2.957,-0.57,-0.02,0.51,-0.03,0.19,1.03,
2.957,-0.62,0.04,0.58,-0.03,0.19,1.03,
2.959,-0.62,0.04,0.58,-0.03,0.19,1.03,
2.961,-0.62,0.04,0.58,-0.04,0.20,1.03,
2.961,-0.67,0.12,0.65,-0.04,0.20,1.03,
2.964,-0.67,0.12,0.65,-0.04,0.20,1.03,
2.966,-0.67,0.12,0.65,-0.04,0.20,1.02,
2.966,-0.72,0.20,0.66,-0.04,0.20,1.02,
2.969,-0.72,0.20,0.66,-0.05,0.20,1.02,
2.972,-0.72,0.20,0.66,-0.05,0.21,1.02,
2.972,-0.77,0.25,0.62,-0.05,0.21,1.02,
2.976,-0.77,0.25,0.62,-0.05,0.21,1.01,
2.976,-0.77,0.25,0.62,-0.05,0.21,1.01,
2.976,-0.83,0.30,0.54,-0.05,0.21,1.01,
2.979,-0.83,0.30,0.54,-0.04,0.21,1.00,
2.981,-0.83,0.30,0.54,-0.04,0.21,1.00,
2.981,-0.83,0.33,0.44,-0.04,0.21,1.00,
2.983,-0.83,0.33,0.44,-0.04,0.21,0.99,
2.986,-0.75,0.35,0.36,-0.04,0.21,0.99,
2.987,-0.75,0.35,0.36,-0.03,0.21,0.99,
2.989,-0.75,0.35,0.36,-0.03,0.21,0.99,
2.991,-0.75,0.35,0.36,-0.03,0.21,0.98,
2.991,-0.69,0.36,0.28,-0.03,0.21,0.98,
2.993,-0.69,0.36,0.28,-0.02,0.20,0.98,
2.996,-0.69,0.36,0.28,-0.02,0.20,0.98,
2.997,-0.62,0.34,0.22,-0.02,0.20,0.98,
2.998,-0.62,0.34,0.22,-0.01,0.20,0.97,
3.001,-0.62,0.34,0.22,-0.00,0.19,0.97,
3.001,-0.54,0.28,0.15,-0.00,0.19,0.97,
3.003,-0.54,0.28,0.15,0.00,0.19,0.97,
3.007,-0.54,0.28,0.15,0.01,0.19,0.97,
3.007,-0.41,0.22,0.09,0.01,0.19,0.97,
3.008,-0.41,0.22,0.09,0.01,0.19,0.97,
3.011,-0.41,0.22,0.09,0.02,0.19,0.97,
3.011,-0.30,0.18,0.08,0.02,0.19,0.97,
3.013,-0.30,0.18,0.08,0.02,0.18,0.98,
3.016,-0.30,0.18,0.08,0.02,0.18,0.98,
3.016,-0.18,0.16,0.10,0.02,0.18,0.98,
3.018,-0.18,0.16,0.10,0.03,0.18,0.98,
3.021,-0.18,0.16,0.10,0.03,0.17,0.98,
3.022,-0.12,0.08,0.15,0.03,0.17,0.98,
3.023,-0.12,0.08,0.15,0.03,0.17,0.98,
3.025,-0.12,0.08,0.15,0.03,0.17,0.98,
3.026,-0.07,0.01,0.17,0.03,0.17,0.98,
3.028,-0.07,0.01,0.17,0.03,0.17,0.98,
3.03,-0.07,0.01,0.17,0.03,0.17,0.98,
3.03,-0.04,-0.03,0.18,0.03,0.17,0.98,
3.032,-0.04,-0.03,0.18,0.03,0.16,0.99,
3.035,-0.04,-0.03,0.18,0.03,0.17,0.98,
3.035,-0.02,-0.07,0.18,0.03,0.17,0.98,
3.039,-0.02,-0.07,0.18,0.03,0.17,0.99,
3.04,-0.02,-0.07,0.18,0.03,0.17,0.99,
3.041,-0.02,-0.08,0.20,0.03,0.17,0.99,
3.042,-0.02,-0.08,0.20,0.03,0.17,0.99,
3.045,-0.02,-0.08,0.20,0.03,0.17,0.99,
3.045,-0.02,-0.03,0.21,0.03,0.17,0.99,
3.047,-0.02,-0.03,0.21,0.02,0.18,0.99,
3.05,-0.02,-0.03,0.21,0.02,0.18,0.99,
3.05,-0.05,0.01,0.22,0.02,0.18,0.99,
3.052,-0.05,0.01,0.22,0.02,0.19,0.99,
3.055,-0.05,0.01,0.22,0.02,0.19,0.98,
3.056,-0.08,0.06,0.22,0.02,0.19,0.98,
3.057,-0.08,0.06,0.22,0.02,0.19,0.98,
3.06,-0.08,0.06,0.22,0.01,0.19,0.98,
3.06,-0.10,0.12,0.18,0.01,0.19,0.98,
3.062,-0.10,0.12,0.18,0.01,0.19,0.97,
3.064,-0.10,0.12,0.18,0.00,0.20,0.97,
3.065,-0.16,0.17,0.14,0.00,0.20,0.97,
3.067,-0.16,0.17,0.14,0.00,0.20,0.97,
3.069,-0.16,0.17,0.14,0.00,0.21,0.96,
3.07,-0.23,0.21,0.06,0.00,0.21,0.96,
3.078,-0.23,0.21,0.06,0.01,0.21,0.96,
3.079,-0.23,0.21,0.06,0.01,0.21,0.96,
3.079,-0.25,0.27,-0.02,0.01,0.21,0.96,
3.079,-0.25,0.27,-0.02,0.01,0.21,0.96,
3.079,-0.25,0.27,-0.02,0.01,0.21,0.95,
3.081,-0.21,0.33,-0.06,0.01,0.21,0.95,
3.081,-0.21,0.33,-0.06,0.01,0.21,0.95,
3.084,-0.21,0.33,-0.06,0.01,0.21,0.95,
3.084,-0.18,0.33,-0.11,0.01,0.21,0.95,
3.086,-0.18,0.33,-0.11,0.01,0.21,0.96,
3.09,-0.18,0.33,-0.11,0.01,0.21,0.96,
3.09,-0.15,0.34,-0.13,0.01,0.21,0.96,
3.091,-0.15,0.34,-0.13,0.01,0.22,0.96,
3.094,-0.15,0.34,-0.13,0.01,0.22,0.97,
3.094,-0.12,0.37,-0.07,0.01,0.22,0.97,
3.096,-0.12,0.37,-0.07,0.01,0.22,0.98,
3.099,-0.12,0.37,-0.07,0.01,0.21,0.99,
3.099,-0.13,0.38,0.03,0.01,0.21,0.99,
3.101,-0.13,0.38,0.03,0.00,0.21,1.00,
3.103,-0.13,0.38,0.03,-0.00,0.21,1.00,
3.104,-0.14,0.37,0.17,-0.00,0.21,1.00,
3.106,-0.14,0.37,0.17,-0.00,0.21,1.01,
3.109,-0.14,0.37,0.17,-0.00,0.20,1.02,
3.109,-0.21,0.34,0.32,-0.00,0.20,1.02,
3.111,-0.21,0.34,0.32,-0.00,0.20,1.02,
3.113,-0.21,0.34,0.32,0.00,0.20,1.03,
3.113,-0.22,0.27,0.46,0.00,0.20,1.03,
3.116,-0.22,0.27,0.46,0.00,0.20,1.03,
3.118,-0.22,0.27,0.46,0.01,0.20,1.03,
3.118,-0.20,0.20,0.55,0.01,0.20,1.03,
3.12,-0.20,0.20,0.55,0.01,0.19,1.04,
3.123,-0.20,0.20,0.55,0.01,0.19,1.03,
3.124,-0.12,0.17,0.62,0.01,0.19,1.03,
3.126,-0.12,0.17,0.62,0.01,0.19,1.03,
3.128,-0.12,0.17,0.62,0.02,0.19,1.03,
3.129,-0.07,0.15,0.65,0.02,0.19,1.03,
3.13,-0.07,0.15,0.65,0.02,0.19,1.03,
3.133,-0.07,0.15,0.65,0.02,0.19,1.02,
3.133,-0.02,0.13,0.61,0.02,0.19,1.02,
3.135,-0.02,0.13,0.61,0.02,0.19,1.01,
3.139,-0.02,0.13,0.61,0.03,0.19,1.00,
3.139,0.02,0.14,0.51,0.03,0.19,1.00,
3.141,0.02,0.14,0.51,0.03,0.19,0.99,
3.143,0.02,0.14,0.51,0.03,0.19,0.98,
3.143,0.06,0.11,0.34,0.03,0.19,0.98,
3.145,0.06,0.11,0.34,0.03,0.19,0.97,
3.148,0.06,0.11,0.34,0.03,0.19,0.96,
3.148,0.07,0.08,0.13,0.03,0.19,0.96,
3.15,0.07,0.08,0.13,0.04,0.19,0.95,
3.152,0.07,0.08,0.13,0.04,0.19,0.94,
3.153,0.13,0.09,-0.06,0.04,0.19,0.94,
3.155,0.13,0.09,-0.06,0.04,0.20,0.94,
3.158,0.13,0.09,-0.06,0.04,0.20,0.93,
3.159,0.19,0.11,-0.22,0.04,0.20,0.93,
3.16,0.19,0.11,-0.22,0.04,0.20,0.93,
3.162,0.19,0.11,-0.22,0.03,0.20,0.88,
3.162,0.20,0.15,-0.34,0.03,0.20,0.88,
3.165,0.20,0.15,-0.34,0.04,0.20,0.80,
3.167,0.20,0.15,-0.34,0.04,0.21,0.78,
3.167,0.17,0.18,-0.66,0.04,0.21,0.78,
3.169,0.17,0.18,-0.66,0.04,0.22,0.82,
3.176,0.17,0.18,-0.66,0.03,0.22,0.87,
3.176,0.19,0.21,-1.72,0.03,0.22,0.87,
3.176,0.19,0.21,-1.72,0.01,0.22,0.89,
3.177,0.19,0.21,-1.72,0.00,0.21,0.89,
3.177,0.16,0.37,-1.19,0.00,0.21,0.89,
3.18,0.16,0.37,-1.19,-0.00,0.20,0.89,
3.182,0.16,0.37,-1.19,-0.00,0.20,0.88,
3.182,-0.09,0.31,-0.72,-0.00,0.20,0.88,
3.184,-0.09,0.31,-0.72,0.00,0.20,0.88,
3.187,-0.09,0.31,-0.72,0.00,0.20,0.89,
3.187,-0.18,0.21,-0.79,0.00,0.20,0.89,
3.189,-0.18,0.21,-0.79,-0.00,0.20,0.90,
3.192,-0.18,0.21,-0.79,-0.00,0.20,0.92,
3.192,-0.12,0.23,-0.75,-0.00,0.20,0.92,
3.194,-0.12,0.23,-0.75,-0.00,0.19,0.93,
3.197,-0.12,0.23,-0.75,-0.00,0.18,0.94,
3.197,-0.14,0.20,-0.53,-0.00,0.18,0.94,
3.199,-0.14,0.20,-0.53,-0.00,0.18,0.94,
3.201,-0.14,0.20,-0.53,0.00,0.17,0.95,
3.202,-0.15,0.10,-0.30,0.00,0.17,0.95,
3.205,-0.15,0.10,-0.30,0.01,0.16,0.95,
3.207,-0.15,0.10,-0.30,0.01,0.16,0.96,
3.207,-0.09,-0.04,-0.17,0.01,0.16,0.96,
3.209,-0.09,-0.04,-0.17,0.02,0.16,0.97,
3.211,-0.09,-0.04,-0.17,0.02,0.15,0.97,
3.211,0.01,-0.13,-0.06,0.02,0.15,0.97,
3.214,0.01,-0.13,-0.06,0.03,0.15,0.97,
3.216,0.01,-0.13,-0.06,0.03,0.15,0.97,
3.216,0.11,-0.20,0.03,0.03,0.15,0.97,
3.219,0.11,-0.20,0.03,0.04,0.14,0.97,
3.222,0.11,-0.20,0.03,0.04,0.14,0.97,
3.222,0.21,-0.26,0.08,0.04,0.14,0.97,
3.223,0.21,-0.26,0.08,0.04,0.14,0.98,
3.226,0.21,-0.26,0.08,0.04,0.14,0.98,
3.226,0.30,-0.31,0.10,0.04,0.14,0.98,
3.228,0.30,-0.31,0.10,0.05,0.14,0.99,
3.231,0.30,-0.31,0.10,0.05,0.15,1.00,
3.231,0.36,-0.31,0.16,0.05,0.15,1.00,
3.233,0.36,-0.31,0.16,0.05,0.15,1.01,
3.236,0.36,-0.31,0.16,0.05,0.15,1.02,
3.236,0.39,-0.30,0.29,0.05,0.15,1.02,
3.238,0.39,-0.30,0.29,0.04,0.15,1.03,
3.241,0.39,-0.30,0.29,0.04,0.15,1.04,
3.241,0.37,-0.25,0.46,0.04,0.15,1.04,
3.243,0.37,-0.25,0.46,0.03,0.16,1.05,
3.245,0.37,-0.25,0.46,0.03,0.16,1.06,
3.246,0.29,-0.22,0.69,0.03,0.16,1.06,
3.248,0.29,-0.22,0.69,0.03,0.16,1.07,
3.25,0.29,-0.22,0.69,0.03,0.17,1.06,
3.25,0.23,-0.18,0.87,0.03,0.17,1.06,
3.253,0.23,-0.18,0.87,0.03,0.17,1.06,
3.255,0.17,-0.13,0.96,0.03,0.17,1.06,
3.256,0.17,-0.13,0.96,0.03,0.17,1.04,
3.258,0.17,-0.13,0.96,0.03,0.18,1.03,
3.26,0.17,-0.13,0.96,0.03,0.19,1.01,
3.261,0.13,-0.05,0.81,0.03,0.19,1.01,
3.262,0.13,-0.05,0.81,0.03,0.19,1.00,
3.265,0.13,-0.05,0.81,0.03,0.20,0.98,
3.265,0.14,0.06,0.51,0.03,0.20,0.98,
3.267,0.14,0.06,0.51,0.02,0.20,0.97,
3.27,0.14,0.06,0.51,0.02,0.21,0.96,
3.27,0.12,0.18,0.22,0.02,0.21,0.96,
3.275,0.12,0.18,0.22,0.01,0.21,0.95,
3.275,0.12,0.18,0.22,0.01,0.21,0.95,
3.275,0.04,0.25,-0.02,0.01,0.21,0.95,
