
time,ax,ay,az,gFx,gFy,gFz,
0.002,-0.00,-0.05,0.62,-0.04,0.06,1.03,
0.002,0.03,-0.07,0.57,-0.04,0.06,1.03,
0.002,0.03,-0.07,0.57,-0.04,0.06,1.03,
0.003,0.03,-0.07,0.57,-0.04,0.06,1.02,
0.003,0.04,-0.08,0.50,-0.04,0.06,1.02,
0.005,0.04,-0.08,0.50,-0.04,0.06,1.02,
0.008,0.04,-0.08,0.50,-0.04,0.06,1.01,
0.008,0.06,-0.08,0.43,-0.04,0.06,1.01,
0.01,0.06,-0.08,0.43,-0.04,0.06,1.01,
0.014,0.06,-0.08,0.43,-0.04,0.06,1.00,
0.014,0.06,-0.06,0.35,-0.04,0.06,1.00,
0.015,0.06,-0.06,0.35,-0.04,0.06,1.00,
0.019,0.06,-0.06,0.35,-0.05,0.06,1.00,
0.02,0.05,-0.03,0.26,-0.05,0.06,1.00,
0.02,0.05,-0.03,0.26,-0.04,0.06,0.99,
0.022,0.05,-0.03,0.26,-0.04,0.07,0.99,
0.023,0.01,-0.04,0.18,-0.04,0.07,0.99,
0.025,0.01,-0.04,0.18,-0.04,0.07,0.98,
0.027,0.01,-0.04,0.18,-0.04,0.07,0.98,
0.028,0.02,-0.03,0.09,-0.04,0.07,0.98,
0.03,0.02,-0.03,0.09,-0.04,0.07,0.98,
0.032,0.02,-0.03,0.09,-0.04,0.08,0.97,
0.032,0.01,0.01,0.01,-0.04,0.08,0.97,
0.035,0.01,0.01,0.01,-0.04,0.08,0.97,
0.037,0.01,0.01,0.01,-0.04,0.08,0.96,
0.037,0.01,0.04,-0.07,-0.04,0.08,0.96,
0.039,0.01,0.04,-0.07,-0.04,0.08,0.96,
0.042,0.01,0.04,-0.07,-0.04,0.08,0.96,
0.042,-0.00,0.07,-0.13,-0.04,0.08,0.96,
0.045,-0.00,0.07,-0.13,-0.04,0.08,0.95,
0.047,-0.00,0.07,-0.13,-0.05,0.07,0.95,
0.047,0.00,0.09,-0.20,-0.05,0.07,0.95,
0.049,0.00,0.09,-0.20,-0.05,0.07,0.95,
0.052,0.00,0.09,-0.20,-0.04,0.07,0.95,
0.052,-0.03,0.05,-0.25,-0.04,0.07,0.95,
0.054,-0.03,0.05,-0.25,-0.04,0.08,0.95,
0.057,-0.03,0.05,-0.25,-0.04,0.08,0.95,
0.057,-0.03,0.03,-0.27,-0.04,0.08,0.95,
0.059,-0.03,0.03,-0.27,-0.04,0.08,0.95,
0.062,-0.03,0.03,-0.27,-0.04,0.08,0.95,
0.062,0.01,0.11,-0.27,-0.04,0.08,0.95,
0.066,0.01,0.11,-0.27,-0.04,0.08,0.95,
0.067,0.01,0.11,-0.27,-0.04,0.08,0.95,
0.067,0.04,0.12,-0.26,-0.04,0.08,0.95,
0.069,0.04,0.12,-0.26,-0.04,0.08,0.96,
0.071,0.04,0.12,-0.26,-0.05,0.08,0.96,
0.072,0.02,0.13,-0.24,-0.05,0.08,0.96,
0.074,0.02,0.13,-0.24,-0.05,0.08,0.96,
0.076,0.02,0.13,-0.24,-0.05,0.08,0.97,
0.077,-0.03,0.13,-0.18,-0.05,0.08,0.97,
0.08,-0.03,0.13,-0.18,-0.05,0.08,0.97,
0.081,-0.03,0.13,-0.18,-0.06,0.08,0.97,
0.082,-0.08,0.13,-0.14,-0.06,0.08,0.97,
0.084,-0.08,0.13,-0.14,-0.06,0.08,0.97,
0.086,-0.08,0.13,-0.14,-0.06,0.08,0.98,
0.086,-0.13,0.13,-0.10,-0.06,0.08,0.98,
0.088,-0.13,0.13,-0.10,-0.06,0.08,0.98,
0.091,-0.13,0.13,-0.10,-0.06,0.08,0.98,
0.091,-0.15,0.12,-0.03,-0.06,0.08,0.98,
0.093,-0.15,0.12,-0.03,-0.05,0.08,0.98,
0.096,-0.15,0.12,-0.03,-0.05,0.08,0.99,
0.096,-0.14,0.12,0.04,-0.05,0.08,0.99,
0.098,-0.14,0.12,0.04,-0.05,0.08,0.99,
0.101,-0.14,0.12,0.04,-0.05,0.08,0.99,
0.101,-0.08,0.14,0.07,-0.05,0.08,0.99,
0.103,-0.08,0.14,0.07,-0.05,0.08,0.99,
0.106,-0.08,0.14,0.07,-0.05,0.08,0.99,
0.106,-0.06,0.13,0.09,-0.05,0.08,0.99,
0.108,-0.06,0.13,0.09,-0.05,0.08,0.99,
0.11,-0.06,0.13,0.09,-0.05,0.08,0.99,
0.111,-0.04,0.13,0.10,-0.05,0.08,0.99,
0.113,-0.04,0.13,0.10,-0.05,0.08,0.98,
0.115,-0.04,0.13,0.10,-0.05,0.07,0.99,
0.116,-0.06,0.12,0.08,-0.05,0.07,0.99,
0.118,-0.06,0.12,0.08,-0.05,0.07,0.98,
0.12,-0.06,0.12,0.08,-0.04,0.07,0.99,
0.12,-0.05,0.07,0.06,-0.04,0.07,0.99,
0.123,-0.05,0.07,0.06,-0.04,0.07,0.98,
0.126,-0.05,0.07,0.06,-0.04,0.07,0.98,
0.126,-0.03,0.04,0.06,-0.04,0.07,0.98,
0.128,-0.03,0.04,0.06,-0.04,0.06,0.98,
0.131,-0.03,0.04,0.06,-0.04,0.06,0.98,
0.132,-0.01,-0.01,0.05,-0.04,0.06,0.98,
0.133,-0.01,-0.01,0.05,-0.03,0.06,0.98,
0.135,-0.01,-0.01,0.05,-0.03,0.06,0.98,
0.135,0.03,-0.06,0.00,-0.03,0.06,0.98,
0.137,0.03,-0.06,0.00,-0.03,0.06,0.97,
0.14,0.03,-0.06,0.00,-0.03,0.05,0.97,
0.14,0.09,-0.09,-0.03,-0.03,0.05,0.97,
0.142,0.09,-0.09,-0.03,-0.02,0.05,0.97,
0.145,0.09,-0.09,-0.03,-0.02,0.05,0.97,
0.145,0.15,-0.13,-0.05,-0.02,0.05,0.97,
0.147,0.15,-0.13,-0.05,-0.03,0.05,0.97,
0.15,0.15,-0.13,-0.05,-0.03,0.05,0.97,
0.15,0.16,-0.15,-0.06,-0.03,0.05,0.97,
0.152,0.16,-0.15,-0.06,-0.03,0.05,0.97,
0.155,0.16,-0.15,-0.06,-0.03,0.05,0.97,
0.155,0.14,-0.17,-0.06,-0.03,0.05,0.97,
0.157,0.14,-0.17,-0.06,-0.02,0.05,0.98,
0.16,0.14,-0.17,-0.06,-0.02,0.05,0.98,
0.16,0.14,-0.17,-0.04,-0.02,0.05,0.98,
0.169,0.14,-0.17,-0.04,-0.02,0.05,0.98,
0.169,0.14,-0.17,-0.04,-0.03,0.05,0.98,
0.169,0.16,-0.15,-0.02,-0.03,0.05,0.98,
0.17,0.16,-0.15,-0.02,-0.03,0.05,0.98,
0.17,0.16,-0.15,-0.02,-0.03,0.06,0.99,
0.17,0.15,-0.14,0.03,-0.03,0.06,0.99,
0.172,0.15,-0.14,0.03,-0.02,0.06,0.99,
0.174,0.15,-0.14,0.03,-0.03,0.06,0.99,
0.174,0.15,-0.13,0.07,-0.03,0.06,0.99,
0.177,0.15,-0.13,0.07,-0.03,0.06,0.99,
0.179,0.15,-0.13,0.07,-0.03,0.06,0.98,
0.179,0.14,-0.11,0.08,-0.03,0.06,0.98,
0.182,0.14,-0.11,0.08,-0.03,0.06,0.98,
0.184,0.14,-0.11,0.08,-0.03,0.06,0.98,
0.184,0.12,-0.09,0.06,-0.03,0.06,0.98,
0.186,0.12,-0.09,0.06,-0.03,0.06,0.98,
0.189,0.12,-0.09,0.06,-0.03,0.06,0.98,
0.189,0.09,-0.09,0.05,-0.03,0.06,0.98,
0.191,0.09,-0.09,0.05,-0.03,0.06,0.98,
0.194,0.09,-0.09,0.05,-0.03,0.06,0.98,
0.195,0.06,-0.09,0.04,-0.03,0.06,0.98,
0.196,0.06,-0.09,0.04,-0.04,0.06,0.98,
0.199,0.06,-0.09,0.04,-0.03,0.06,0.97,
0.199,0.05,-0.09,0.01,-0.03,0.06,0.97,
0.201,0.05,-0.09,0.01,-0.03,0.05,0.97,
0.204,0.05,-0.09,0.01,-0.03,0.05,0.97,
0.204,0.04,-0.10,-0.05,-0.03,0.05,0.97,
0.206,0.04,-0.10,-0.05,-0.03,0.05,0.97,
0.209,0.04,-0.10,-0.05,-0.03,0.05,0.97,
0.209,0.05,-0.12,-0.08,-0.03,0.05,0.97,
0.211,0.05,-0.12,-0.08,-0.03,0.05,0.97,
0.214,0.05,-0.12,-0.08,-0.03,0.06,0.97,
0.214,0.08,-0.13,-0.09,-0.03,0.06,0.97,
0.216,0.08,-0.13,-0.09,-0.02,0.06,0.97,
0.219,0.08,-0.13,-0.09,-0.02,0.05,0.97,
0.219,0.10,-0.10,-0.10,-0.02,0.05,0.97,
0.221,0.10,-0.10,-0.10,-0.02,0.05,0.97,
0.223,0.10,-0.10,-0.10,-0.03,0.05,0.97,
0.223,0.15,-0.10,-0.10,-0.03,0.05,0.97,
0.226,0.15,-0.10,-0.10,-0.03,0.05,0.97,
0.228,0.15,-0.10,-0.10,-0.03,0.05,0.97,
0.228,0.12,-0.11,-0.09,-0.03,0.05,0.97,
0.231,0.12,-0.11,-0.09,-0.03,0.05,0.97,
0.234,0.12,-0.11,-0.09,-0.03,0.05,0.97,
0.234,0.10,-0.13,-0.06,-0.03,0.05,0.97,
0.236,0.10,-0.13,-0.06,-0.03,0.05,0.98,
0.238,0.10,-0.13,-0.06,-0.03,0.05,0.98,
0.238,0.07,-0.16,-0.05,-0.03,0.05,0.98,
0.241,0.07,-0.16,-0.05,-0.03,0.05,0.98,
0.243,0.07,-0.16,-0.05,-0.03,0.05,0.98,
0.243,0.08,-0.15,-0.02,-0.03,0.05,0.98,
0.246,0.08,-0.15,-0.02,-0.03,0.05,0.98,
0.248,0.08,-0.15,-0.02,-0.03,0.05,0.98,
0.248,0.06,-0.12,0.00,-0.03,0.05,0.98,
0.25,0.06,-0.12,0.00,-0.03,0.06,0.98,
0.253,0.06,-0.12,0.00,-0.03,0.05,0.98,
0.253,0.06,-0.11,0.02,-0.03,0.05,0.98,
0.255,0.06,-0.11,0.02,-0.03,0.06,0.98,
0.258,0.06,-0.11,0.02,-0.03,0.06,0.98,
0.258,0.08,-0.09,0.02,-0.03,0.06,0.98,
0.26,0.08,-0.09,0.02,-0.03,0.06,0.98,
0.263,0.08,-0.09,0.02,-0.03,0.06,0.98,
0.263,0.07,-0.09,0.03,-0.03,0.06,0.98,
0.265,0.07,-0.09,0.03,-0.03,0.06,0.97,
0.268,0.07,-0.09,0.03,-0.03,0.06,0.97,
0.268,0.07,-0.07,-0.01,-0.03,0.06,0.97,
0.27,0.07,-0.07,-0.01,-0.03,0.06,0.97,
0.272,0.07,-0.07,-0.01,-0.03,0.06,0.97,
0.272,0.09,-0.08,-0.05,-0.03,0.06,0.97,
0.274,0.09,-0.08,-0.05,-0.02,0.05,0.97,
0.277,0.09,-0.08,-0.05,-0.02,0.05,0.97,
0.278,0.10,-0.10,-0.08,-0.02,0.05,0.97,
0.287,0.10,-0.10,-0.08,-0.02,0.05,0.97,
0.287,0.10,-0.10,-0.08,-0.02,0.05,0.96,
0.287,0.12,-0.14,-0.11,-0.02,0.05,0.96,
0.287,0.12,-0.14,-0.11,-0.02,0.05,0.96,
0.287,0.12,-0.14,-0.11,-0.02,0.05,0.96,
0.288,0.14,-0.17,-0.13,-0.02,0.05,0.96,
0.289,0.14,-0.17,-0.13,-0.02,0.04,0.96,
0.292,0.14,-0.17,-0.13,-0.01,0.04,0.96,
0.292,0.17,-0.19,-0.17,-0.01,0.04,0.96,
0.294,0.17,-0.19,-0.17,-0.01,0.04,0.96,
0.297,0.17,-0.19,-0.17,-0.01,0.04,0.95,
0.297,0.19,-0.23,-0.18,-0.01,0.04,0.95,
0.299,0.19,-0.23,-0.18,-0.01,0.04,0.95,
0.302,0.19,-0.23,-0.18,-0.01,0.04,0.95,
0.302,0.21,-0.26,-0.22,-0.01,0.04,0.95,
0.304,0.21,-0.26,-0.22,-0.01,0.03,0.95,
0.307,0.21,-0.26,-0.22,-0.00,0.04,0.95,
0.307,0.22,-0.29,-0.23,-0.00,0.04,0.95,
0.309,0.22,-0.29,-0.23,-0.00,0.04,0.95,
0.311,0.22,-0.29,-0.23,-0.00,0.04,0.96,
0.312,0.26,-0.29,-0.25,-0.00,0.04,0.96,
0.314,0.26,-0.29,-0.25,-0.00,0.04,0.95,
0.316,0.26,-0.29,-0.25,-0.00,0.04,0.96,
0.317,0.30,-0.24,-0.22,-0.00,0.04,0.96,
0.319,0.30,-0.24,-0.22,-0.00,0.04,0.96,
0.321,0.30,-0.24,-0.22,-0.00,0.05,0.96,
0.321,0.29,-0.23,-0.22,-0.00,0.05,0.96,
0.323,0.29,-0.23,-0.22,-0.00,0.05,0.96,
0.326,0.29,-0.23,-0.22,-0.00,0.05,0.96,
0.326,0.26,-0.18,-0.21,-0.00,0.05,0.96,
0.329,0.26,-0.18,-0.21,0.00,0.05,0.96,
0.331,0.26,-0.18,-0.21,0.00,0.06,0.96,
0.332,0.28,-0.14,-0.17,0.00,0.06,0.96,
0.334,0.28,-0.14,-0.17,0.01,0.06,0.96,
0.336,0.28,-0.14,-0.17,0.01,0.06,0.96,
0.336,0.31,-0.07,-0.13,0.01,0.06,0.96,
0.338,0.31,-0.07,-0.13,0.01,0.06,0.97,
0.341,0.31,-0.07,-0.13,0.01,0.06,0.97,
0.341,0.35,-0.04,-0.12,0.01,0.06,0.97,
0.343,0.35,-0.04,-0.12,0.01,0.06,0.97,
0.346,0.35,-0.04,-0.12,0.01,0.06,0.97,
0.347,0.37,-0.02,-0.09,0.01,0.06,0.97,
0.348,0.37,-0.02,-0.09,0.01,0.06,0.97,
0.351,0.37,-0.02,-0.09,0.01,0.06,0.97,
0.351,0.37,-0.01,-0.05,0.01,0.06,0.97,
0.353,0.37,-0.01,-0.05,0.01,0.06,0.98,
0.355,0.37,-0.01,-0.05,0.01,0.06,0.98,
0.356,0.35,0.00,-0.03,0.01,0.06,0.98,
0.358,0.35,0.00,-0.03,0.00,0.06,0.98,
0.36,0.35,0.00,-0.03,0.00,0.06,0.98,
0.361,0.33,-0.00,0.01,0.00,0.06,0.98,
0.363,0.33,-0.00,0.01,0.00,0.06,0.98,
0.365,0.33,-0.00,0.01,0.00,0.06,0.98,
0.365,0.29,-0.01,0.03,0.00,0.06,0.98,
0.368,0.29,-0.01,0.03,-0.00,0.05,0.98,
0.37,0.29,-0.01,0.03,-0.00,0.05,0.98,
0.371,0.28,-0.05,0.04,-0.00,0.05,0.98,
0.372,0.28,-0.05,0.04,-0.00,0.05,0.98,
0.375,0.28,-0.05,0.04,-0.00,0.05,0.99,
0.375,0.25,-0.09,0.07,-0.00,0.05,0.99,
0.377,0.25,-0.09,0.07,0.00,0.05,0.99,
0.386,0.25,-0.09,0.07,0.00,0.05,0.99,
0.387,0.23,-0.11,0.08,0.00,0.05,0.99,
0.387,0.23,-0.11,0.08,0.00,0.05,0.99,
0.387,0.23,-0.11,0.08,0.01,0.04,0.99,
0.388,0.27,-0.12,0.09,0.01,0.04,0.99,
0.388,0.27,-0.12,0.09,0.01,0.05,0.99,
0.39,0.27,-0.12,0.09,0.01,0.05,0.99,
0.39,0.31,-0.16,0.09,0.01,0.05,0.99,
0.392,0.31,-0.16,0.09,0.01,0.05,0.99,
0.395,0.31,-0.16,0.09,0.01,0.05,0.99,
0.395,0.33,-0.15,0.10,0.01,0.05,0.99,
0.397,0.33,-0.15,0.10,0.02,0.05,0.99,
0.4,0.33,-0.15,0.10,0.02,0.05,0.99,
0.4,0.37,-0.13,0.12,0.02,0.05,0.99,
0.402,0.37,-0.13,0.12,0.02,0.05,0.99,
0.405,0.37,-0.13,0.12,0.02,0.05,1.00,
0.405,0.43,-0.11,0.14,0.02,0.05,1.00,
0.407,0.43,-0.11,0.14,0.02,0.05,1.00,
0.409,0.43,-0.11,0.14,0.03,0.05,1.00,
0.41,0.47,-0.10,0.16,0.03,0.05,1.00,
0.412,0.47,-0.10,0.16,0.03,0.05,1.00,
0.414,0.47,-0.10,0.16,0.03,0.04,1.00,
0.415,0.48,-0.11,0.22,0.03,0.04,1.00,
0.417,0.48,-0.11,0.22,0.03,0.04,1.00,
0.419,0.48,-0.11,0.22,0.03,0.04,1.00,
0.419,0.51,-0.13,0.25,0.03,0.04,1.00,
0.422,0.51,-0.13,0.25,0.03,0.04,1.01,
0.424,0.51,-0.13,0.25,0.03,0.03,1.01,
0.424,0.51,-0.18,0.25,0.03,0.03,1.01,
0.426,0.51,-0.18,0.25,0.03,0.03,1.01,
0.429,0.51,-0.18,0.25,0.03,0.03,1.01,
0.429,0.53,-0.23,0.27,0.03,0.03,1.01,
0.431,0.53,-0.23,0.27,0.04,0.03,1.00,
0.435,0.53,-0.23,0.27,0.04,0.02,1.00,
0.435,0.53,-0.27,0.27,0.04,0.02,1.00,
0.437,0.53,-0.27,0.27,0.04,0.02,1.01,
0.439,0.53,-0.27,0.27,0.05,0.02,1.01,
0.439,0.58,-0.32,0.25,0.05,0.02,1.01,
0.441,0.58,-0.32,0.25,0.05,0.01,1.01,
0.444,0.58,-0.32,0.25,0.05,0.01,1.01,
0.444,0.63,-0.37,0.27,0.05,0.01,1.01,
0.446,0.63,-0.37,0.27,0.05,0.01,1.01,
0.449,0.63,-0.37,0.27,0.05,0.00,1.01,
0.449,0.66,-0.45,0.28,0.05,0.00,1.01,
0.451,0.66,-0.45,0.28,0.06,-0.00,1.01,
0.453,0.66,-0.45,0.28,0.06,-0.00,1.01,
0.454,0.69,-0.51,0.27,0.06,-0.00,1.01,
0.456,0.69,-0.51,0.27,0.06,-0.00,1.01,
0.458,0.69,-0.51,0.27,0.06,-0.01,1.01,
0.458,0.72,-0.56,0.27,0.06,-0.01,1.01,
0.461,0.72,-0.56,0.27,0.06,-0.01,1.01,
0.466,0.72,-0.56,0.27,0.06,-0.01,1.01,
0.466,0.71,-0.59,0.27,0.06,-0.01,1.01,
0.467,0.71,-0.59,0.27,0.06,-0.01,1.01,
0.468,0.71,-0.59,0.27,0.05,-0.01,1.01,
0.469,0.72,-0.62,0.27,0.05,-0.01,1.01,
0.47,0.72,-0.62,0.27,0.05,-0.01,1.01,
0.473,0.72,-0.62,0.27,0.05,-0.01,1.01,
0.473,0.68,-0.65,0.30,0.05,-0.01,1.01,
0.475,0.68,-0.65,0.30,0.05,-0.01,1.01,
0.479,0.68,-0.65,0.30,0.05,-0.02,1.01,
0.479,0.63,-0.66,0.31,0.05,-0.02,1.01,
0.481,0.63,-0.66,0.31,0.05,-0.02,1.01,
0.483,0.63,-0.66,0.31,0.05,-0.02,1.01,
0.483,0.58,-0.68,0.29,0.05,-0.02,1.01,
0.485,0.58,-0.68,0.29,0.05,-0.02,1.01,
0.488,0.58,-0.68,0.29,0.05,-0.01,1.00,
0.488,0.56,-0.68,0.27,0.05,-0.01,1.00,
0.49,0.56,-0.68,0.27,0.05,-0.02,1.00,
0.493,0.56,-0.68,0.27,0.06,-0.01,1.00,
0.493,0.58,-0.67,0.22,0.06,-0.01,1.00,
0.495,0.58,-0.67,0.22,0.06,-0.01,0.99,
0.498,0.58,-0.67,0.22,0.07,-0.01,0.99,
0.498,0.63,-0.66,0.15,0.07,-0.01,0.99,
0.5,0.63,-0.66,0.15,0.07,-0.01,0.98,
0.502,0.63,-0.66,0.15,0.07,-0.01,0.98,
0.503,0.73,-0.63,0.07,0.07,-0.01,0.98,
0.505,0.73,-0.63,0.07,0.07,-0.01,0.97,
0.508,0.73,-0.63,0.07,0.08,-0.01,0.97,
0.508,0.77,-0.61,-0.02,0.08,-0.01,0.97,
0.51,0.77,-0.61,-0.02,0.08,-0.01,0.97,
0.512,0.77,-0.61,-0.02,0.08,-0.01,0.96,
0.513,0.80,-0.61,-0.10,0.08,-0.01,0.96,
0.515,0.80,-0.61,-0.10,0.08,-0.01,0.96,
0.517,0.80,-0.61,-0.10,0.09,-0.01,0.96,
0.517,0.83,-0.64,-0.17,0.09,-0.01,0.96,
0.519,0.83,-0.64,-0.17,0.09,-0.01,0.95,
0.522,0.83,-0.64,-0.17,0.09,-0.01,0.95,
0.522,0.85,-0.64,-0.24,0.09,-0.01,0.95,
0.525,0.85,-0.64,-0.24,0.09,-0.01,0.95,
0.527,0.85,-0.64,-0.24,0.09,-0.01,0.95,
0.527,0.87,-0.66,-0.30,0.09,-0.01,0.95,
0.529,0.87,-0.66,-0.30,0.09,-0.02,0.95,
0.532,0.87,-0.66,-0.30,0.08,-0.02,0.95,
0.532,0.89,-0.67,-0.29,0.08,-0.02,0.95,
0.534,0.89,-0.67,-0.29,0.08,-0.02,0.95,
0.537,0.89,-0.67,-0.29,0.07,-0.02,0.95,
0.537,0.83,-0.68,-0.30,0.07,-0.02,0.95,
0.539,0.83,-0.68,-0.30,0.07,-0.02,0.95,
0.542,0.83,-0.68,-0.30,0.06,-0.02,0.95,
0.542,0.74,-0.70,-0.26,0.06,-0.02,0.95,
0.544,0.74,-0.70,-0.26,0.06,-0.02,0.96,
0.547,0.74,-0.70,-0.26,0.05,-0.02,0.96,
0.547,0.64,-0.71,-0.26,0.05,-0.02,0.96,
0.549,0.64,-0.71,-0.26,0.05,-0.02,0.96,
0.551,0.64,-0.71,-0.26,0.04,-0.02,0.97,
0.552,0.54,-0.70,-0.21,0.04,-0.02,0.97,
0.554,0.54,-0.70,-0.21,0.04,-0.01,0.97,
0.556,0.54,-0.70,-0.21,0.04,-0.01,0.97,
0.556,0.46,-0.70,-0.15,0.04,-0.01,0.97,
0.559,0.46,-0.70,-0.15,0.03,-0.01,0.97,
0.565,0.46,-0.70,-0.15,0.03,-0.01,0.97,
0.565,0.38,-0.65,-0.10,0.03,-0.01,0.97,
0.565,0.38,-0.65,-0.10,0.03,-0.01,0.97,
0.566,0.38,-0.65,-0.10,0.03,-0.01,0.97,
0.566,0.33,-0.62,-0.07,0.03,-0.01,0.97,
0.568,0.33,-0.62,-0.07,0.03,-0.01,0.97,
0.571,0.33,-0.62,-0.07,0.02,-0.01,0.97,
0.571,0.27,-0.59,-0.06,0.02,-0.01,0.97,
0.573,0.27,-0.59,-0.06,0.02,-0.01,0.97,
0.576,0.27,-0.59,-0.06,0.03,-0.00,0.97,
0.576,0.24,-0.58,-0.05,0.03,-0.00,0.97,
0.578,0.24,-0.58,-0.05,0.03,-0.00,0.97,
0.581,0.24,-0.58,-0.05,0.03,-0.00,0.97,
0.581,0.23,-0.57,-0.06,0.03,-0.00,0.97,
0.583,0.23,-0.57,-0.06,0.03,-0.00,0.97,
0.586,0.23,-0.57,-0.06,0.04,0.00,0.97,
0.586,0.28,-0.56,-0.08,0.04,0.00,0.97,
0.588,0.28,-0.56,-0.08,0.04,0.00,0.97,
0.591,0.28,-0.56,-0.08,0.04,0.00,0.96,
0.591,0.32,-0.53,-0.09,0.04,0.00,0.96,
0.593,0.32,-0.53,-0.09,0.04,0.00,0.96,
0.597,0.32,-0.53,-0.09,0.04,0.00,0.96,
0.598,0.34,-0.51,-0.14,0.04,0.00,0.96,
0.598,0.34,-0.51,-0.14,0.03,0.00,0.96,
0.6,0.34,-0.51,-0.14,0.03,0.01,0.96,
0.601,0.33,-0.49,-0.19,0.03,0.01,0.96,
0.603,0.33,-0.49,-0.19,0.02,0.01,0.96,
0.605,0.33,-0.49,-0.19,0.02,0.01,0.96,
0.606,0.27,-0.48,-0.20,0.02,0.01,0.96,
0.608,0.27,-0.48,-0.20,0.02,0.01,0.96,
0.611,0.27,-0.48,-0.20,0.01,0.01,0.95,
0.611,0.18,-0.45,-0.21,0.01,0.01,0.95,
0.613,0.18,-0.45,-0.21,0.01,0.01,0.95,
0.615,0.18,-0.45,-0.21,0.00,0.01,0.95,
0.615,0.08,-0.44,-0.22,0.00,0.01,0.95,
0.617,0.08,-0.44,-0.22,-0.00,0.01,0.95,
0.62,0.08,-0.44,-0.22,-0.01,0.01,0.95,
0.62,-0.01,-0.44,-0.23,-0.01,0.01,0.95,
0.623,-0.01,-0.44,-0.23,-0.01,0.01,0.95,
0.625,-0.01,-0.44,-0.23,-0.01,0.01,0.95,
0.625,-0.10,-0.45,-0.23,-0.01,0.01,0.95,
0.629,-0.10,-0.45,-0.23,-0.02,0.01,0.95,
0.63,-0.10,-0.45,-0.23,-0.02,0.01,0.95,
0.63,-0.17,-0.46,-0.24,-0.02,0.01,0.95,
0.633,-0.17,-0.46,-0.24,-0.02,0.00,0.95,
0.635,-0.17,-0.46,-0.24,-0.02,0.00,0.95,
0.635,-0.22,-0.46,-0.25,-0.02,0.00,0.95,
0.637,-0.22,-0.46,-0.25,-0.02,0.00,0.95,
0.64,-0.22,-0.46,-0.25,-0.01,-0.00,0.95,
0.64,-0.24,-0.49,-0.26,-0.01,-0.00,0.95,
0.642,-0.24,-0.49,-0.26,-0.01,0.00,0.95,
0.645,-0.24,-0.49,-0.26,-0.01,-0.00,0.95,
0.646,-0.21,-0.53,-0.28,-0.01,-0.00,0.95,
0.647,-0.21,-0.53,-0.28,-0.00,-0.00,0.95,
0.65,-0.21,-0.53,-0.28,-0.00,-0.01,0.95,
0.65,-0.13,-0.52,-0.29,-0.00,-0.01,0.95,
0.652,-0.13,-0.52,-0.29,0.00,-0.01,0.95,
0.654,-0.13,-0.52,-0.29,0.00,-0.01,0.95,
0.655,-0.08,-0.57,-0.28,0.00,-0.01,0.95,
0.657,-0.08,-0.57,-0.28,0.01,-0.01,0.94,
0.659,-0.08,-0.57,-0.28,0.01,-0.02,0.94,
0.659,-0.03,-0.59,-0.28,0.01,-0.02,0.94,
0.662,-0.03,-0.59,-0.28,0.01,-0.02,0.95,
0.664,-0.03,-0.59,-0.28,0.01,-0.02,0.94,
0.665,0.02,-0.64,-0.30,0.01,-0.02,0.94,
0.667,0.02,-0.64,-0.30,0.01,-0.02,0.94,
0.669,0.02,-0.64,-0.30,0.01,-0.02,0.94,
0.669,0.04,-0.67,-0.29,0.01,-0.02,0.94,
0.671,0.04,-0.67,-0.29,0.01,-0.02,0.94,
0.674,0.04,-0.67,-0.29,0.01,-0.02,0.94,
0.674,0.05,-0.68,-0.33,0.01,-0.02,0.94,
0.676,0.05,-0.68,-0.33,0.01,-0.01,0.94,
0.684,0.05,-0.68,-0.33,0.01,-0.01,0.94,
0.684,0.03,-0.67,-0.32,0.01,-0.01,0.94,
0.685,0.03,-0.67,-0.32,0.00,-0.01,0.94,
0.685,0.03,-0.67,-0.32,0.00,-0.01,0.94,
0.687,-0.01,-0.64,-0.32,0.00,-0.01,0.94,
0.687,-0.01,-0.64,-0.32,-0.00,-0.01,0.94,
0.689,-0.01,-0.64,-0.32,-0.01,-0.01,0.95,
0.689,-0.06,-0.60,-0.30,-0.01,-0.01,0.95,
0.691,-0.06,-0.60,-0.30,-0.02,-0.00,0.94,
0.693,-0.06,-0.60,-0.30,-0.02,-0.01,0.94,
0.694,-0.16,-0.56,-0.28,-0.02,-0.01,0.94,
0.696,-0.16,-0.56,-0.28,-0.03,-0.00,0.94,
0.699,-0.16,-0.56,-0.28,-0.03,-0.00,0.95,
0.699,-0.26,-0.54,-0.29,-0.03,-0.00,0.95,
0.701,-0.26,-0.54,-0.29,-0.04,-0.00,0.95,
0.703,-0.26,-0.54,-0.29,-0.04,0.00,0.95,
0.703,-0.38,-0.53,-0.27,-0.04,0.00,0.95,
0.705,-0.38,-0.53,-0.27,-0.05,0.00,0.95,
0.708,-0.38,-0.53,-0.27,-0.06,0.00,0.95,
0.708,-0.49,-0.49,-0.26,-0.06,0.00,0.95,
0.712,-0.49,-0.49,-0.26,-0.06,0.00,0.95,
0.713,-0.49,-0.49,-0.26,-0.06,0.01,0.95,
0.714,-0.60,-0.47,-0.22,-0.06,0.01,0.95,
0.716,-0.60,-0.47,-0.22,-0.06,0.01,0.95,
0.718,-0.60,-0.47,-0.22,-0.06,0.01,0.95,
0.718,-0.67,-0.42,-0.19,-0.06,0.01,0.95,
0.72,-0.67,-0.42,-0.19,-0.05,0.02,0.95,
0.723,-0.67,-0.42,-0.19,-0.05,0.02,0.96,
0.723,-0.66,-0.35,-0.19,-0.05,0.02,0.96,
0.725,-0.66,-0.35,-0.19,-0.05,0.02,0.96,
0.728,-0.66,-0.35,-0.19,-0.05,0.03,0.96,
0.729,-0.61,-0.29,-0.16,-0.05,0.03,0.96,
0.73,-0.61,-0.29,-0.16,-0.04,0.03,0.96,
0.733,-0.61,-0.29,-0.16,-0.04,0.03,0.96,
0.733,-0.58,-0.24,-0.13,-0.04,0.03,0.96,
0.735,-0.58,-0.24,-0.13,-0.04,0.03,0.96,
0.738,-0.58,-0.24,-0.13,-0.04,0.04,0.96,
0.738,-0.50,-0.17,-0.13,-0.04,0.04,0.96,
0.74,-0.50,-0.17,-0.13,-0.04,0.04,0.96,
0.743,-0.50,-0.17,-0.13,-0.03,0.04,0.95,
0.743,-0.47,-0.13,-0.13,-0.03,0.04,0.95,
0.745,-0.47,-0.13,-0.13,-0.04,0.04,0.95,
0.748,-0.47,-0.13,-0.13,-0.04,0.05,0.95,
0.748,-0.45,-0.07,-0.15,-0.04,0.05,0.95,
0.75,-0.45,-0.07,-0.15,-0.04,0.04,0.95,
0.752,-0.45,-0.07,-0.15,-0.04,0.04,0.95,
0.753,-0.46,-0.03,-0.19,-0.04,0.04,0.95,
0.755,-0.46,-0.03,-0.19,-0.04,0.05,0.94,
0.757,-0.46,-0.03,-0.19,-0.04,0.05,0.94,
0.758,-0.46,-0.03,-0.22,-0.04,0.05,0.94,
0.76,-0.46,-0.03,-0.22,-0.04,0.05,0.94,
0.767,-0.46,-0.03,-0.22,-0.05,0.06,0.94,
0.768,-0.49,0.01,-0.26,-0.05,0.06,0.94,
0.768,-0.49,0.01,-0.26,-0.05,0.06,0.94,
0.768,-0.49,0.01,-0.26,-0.06,0.06,0.94,
0.768,-0.58,0.08,-0.28,-0.06,0.06,0.94,
0.769,-0.58,0.08,-0.28,-0.06,0.07,0.94,
0.772,-0.58,0.08,-0.28,-0.07,0.07,0.94,
0.772,-0.66,0.14,-0.30,-0.07,0.07,0.94,
0.774,-0.66,0.14,-0.30,-0.08,0.07,0.94,
0.777,-0.66,0.14,-0.30,-0.08,0.08,0.94,
0.778,-0.76,0.19,-0.32,-0.08,0.08,0.94,
0.779,-0.76,0.19,-0.32,-0.09,0.08,0.94,
0.782,-0.76,0.19,-0.32,-0.09,0.08,0.94,
0.783,-0.90,0.25,-0.30,-0.09,0.08,0.94,
0.784,-0.90,0.25,-0.30,-0.09,0.08,0.94,
0.787,-0.90,0.25,-0.30,-0.09,0.08,0.94,
0.787,-0.99,0.28,-0.28,-0.09,0.08,0.94,
0.789,-0.99,0.28,-0.28,-0.09,0.08,0.94,
0.791,-0.99,0.28,-0.28,-0.09,0.09,0.94,
0.792,-1.03,0.32,-0.30,-0.09,0.09,0.94,
0.794,-1.03,0.32,-0.30,-0.09,0.09,0.94,
0.796,-1.03,0.32,-0.30,-0.09,0.09,0.94,
0.797,-1.05,0.33,-0.29,-0.09,0.09,0.94,
0.799,-1.05,0.33,-0.29,-0.09,0.09,0.94,
0.801,-1.05,0.33,-0.29,-0.08,0.09,0.94,
0.801,-1.01,0.36,-0.30,-0.08,0.09,0.94,
0.804,-1.01,0.36,-0.30,-0.08,0.09,0.94,
0.806,-1.01,0.36,-0.30,-0.07,0.09,0.94,
0.806,-0.96,0.37,-0.30,-0.07,0.09,0.94,
0.809,-0.96,0.37,-0.30,-0.07,0.09,0.94,
0.811,-0.96,0.37,-0.30,-0.07,0.09,0.94,
0.811,-0.90,0.37,-0.32,-0.07,0.09,0.94,
0.814,-0.90,0.37,-0.32,-0.07,0.09,0.94,
0.816,-0.90,0.37,-0.32,-0.07,0.09,0.94,
0.816,-0.84,0.35,-0.29,-0.07,0.09,0.94,
0.818,-0.84,0.35,-0.29,-0.06,0.08,0.94,
0.821,-0.84,0.35,-0.29,-0.06,0.08,0.94,
0.821,-0.80,0.34,-0.28,-0.06,0.08,0.94,
0.823,-0.80,0.34,-0.28,-0.06,0.08,0.94,
0.826,-0.80,0.34,-0.28,-0.06,0.07,0.94,
0.826,-0.74,0.29,-0.26,-0.06,0.07,0.94,
0.828,-0.74,0.29,-0.26,-0.06,0.07,0.95,
0.831,-0.74,0.29,-0.26,-0.06,0.07,0.95,
0.831,-0.74,0.23,-0.23,-0.06,0.07,0.95,
0.833,-0.74,0.23,-0.23,-0.06,0.07,0.95,
0.836,-0.74,0.23,-0.23,-0.06,0.06,0.95,
0.836,-0.72,0.17,-0.21,-0.06,0.06,0.95,
0.838,-0.72,0.17,-0.21,-0.05,0.06,0.95,
0.84,-0.72,0.17,-0.21,-0.05,0.06,0.96,
0.841,-0.72,0.14,-0.17,-0.05,0.06,0.96,
0.843,-0.72,0.14,-0.17,-0.05,0.06,0.96,
0.845,-0.72,0.14,-0.17,-0.05,0.05,0.96,
0.846,-0.69,0.10,-0.13,-0.05,0.05,0.96,
0.848,-0.69,0.10,-0.13,-0.05,0.05,0.96,
0.851,-0.69,0.10,-0.13,-0.04,0.05,0.97,
0.851,-0.68,0.07,-0.07,-0.04,0.05,0.97,
0.852,-0.68,0.07,-0.07,-0.04,0.05,0.97,
0.855,-0.68,0.07,-0.07,-0.04,0.05,0.97,
0.855,-0.62,0.06,-0.01,-0.04,0.05,0.97,
0.857,-0.62,0.06,-0.01,-0.03,0.05,0.97,
0.86,-0.62,0.06,-0.01,-0.03,0.05,0.97,
0.861,-0.56,0.07,0.03,-0.03,0.05,0.97,
0.864,-0.56,0.07,0.03,-0.03,0.05,0.98,
0.865,-0.56,0.07,0.03,-0.03,0.05,0.98,
0.865,-0.49,0.08,0.07,-0.03,0.05,0.98,
0.867,-0.49,0.08,0.07,-0.03,0.05,0.98,
0.87,-0.49,0.08,0.07,-0.03,0.04,0.98,
0.87,-0.45,0.06,0.10,-0.03,0.04,0.98,
0.872,-0.45,0.06,0.10,-0.03,0.04,0.98,
0.875,-0.45,0.06,0.10,-0.04,0.04,0.98,
0.875,-0.48,0.02,0.13,-0.04,0.04,0.98,
0.877,-0.48,0.02,0.13,-0.04,0.03,0.98,
0.879,-0.48,0.02,0.13,-0.04,0.03,0.98,
0.88,-0.54,-0.05,0.14,-0.04,0.03,0.98,
0.882,-0.54,-0.05,0.14,-0.04,0.03,0.98,
0.885,-0.54,-0.05,0.14,-0.04,0.03,0.98,
0.885,-0.58,-0.08,0.15,-0.04,0.03,0.98,
0.887,-0.58,-0.08,0.15,-0.03,0.04,0.98,
0.889,-0.58,-0.08,0.15,-0.03,0.04,0.98,
0.889,-0.57,-0.07,0.14,-0.03,0.04,0.98,
0.891,-0.57,-0.07,0.14,-0.03,0.04,0.98,
0.894,-0.57,-0.07,0.14,-0.03,0.05,0.98,
0.894,-0.52,-0.02,0.12,-0.03,0.05,0.98,
0.896,-0.52,-0.02,0.12,-0.03,0.05,0.98,
0.899,-0.52,-0.02,0.12,-0.03,0.05,0.98,
0.899,-0.50,0.05,0.11,-0.03,0.05,0.98,
0.902,-0.50,0.05,0.11,-0.03,0.06,0.98,
0.904,-0.50,0.05,0.11,-0.03,0.06,0.98,
0.904,-0.48,0.10,0.10,-0.03,0.06,0.98,
0.906,-0.48,0.10,0.10,-0.03,0.07,0.98,
0.909,-0.48,0.10,0.10,-0.03,0.08,0.98,
0.909,-0.49,0.20,0.10,-0.03,0.08,0.98,
0.911,-0.49,0.20,0.10,-0.04,0.08,0.98,
0.914,-0.49,0.20,0.10,-0.04,0.08,0.99,
0.915,-0.53,0.32,0.13,-0.04,0.08,0.99,
0.917,-0.53,0.32,0.13,-0.04,0.09,0.99,
0.919,-0.53,0.32,0.13,-0.04,0.09,0.99,
0.919,-0.59,0.42,0.15,-0.04,0.09,0.99,
0.921,-0.59,0.42,0.15,-0.04,0.10,1.00,
0.923,-0.59,0.42,0.15,-0.05,0.10,1.00,
0.924,-0.65,0.50,0.23,-0.05,0.10,1.00,
0.926,-0.65,0.50,0.23,-0.05,0.10,1.00,
0.929,-0.65,0.50,0.23,-0.05,0.10,1.00,
0.929,-0.65,0.59,0.28,-0.05,0.10,1.00,
0.931,-0.65,0.59,0.28,-0.05,0.10,1.01,
0.933,-0.65,0.59,0.28,-0.06,0.10,1.01,
0.934,-0.68,0.62,0.33,-0.06,0.10,1.01,
0.936,-0.68,0.62,0.33,-0.05,0.10,1.01,
0.938,-0.68,0.62,0.33,-0.06,0.10,1.01,
0.938,-0.73,0.63,0.38,-0.06,0.10,1.01,
0.941,-0.73,0.63,0.38,-0.06,0.10,1.02,
0.944,-0.73,0.63,0.38,-0.06,0.10,1.02,
0.944,-0.75,0.61,0.41,-0.06,0.10,1.02,
0.946,-0.75,0.61,0.41,-0.06,0.09,1.02,
0.948,-0.75,0.61,0.41,-0.06,0.09,1.02,
0.948,-0.76,0.56,0.45,-0.06,0.09,1.02,
0.95,-0.76,0.56,0.45,-0.05,0.09,1.02,
0.953,-0.76,0.56,0.45,-0.05,0.08,1.02,
0.953,-0.76,0.51,0.45,-0.05,0.08,1.02,
0.955,-0.76,0.51,0.45,-0.05,0.08,1.02,
0.958,-0.76,0.51,0.45,-0.05,0.07,1.01,
0.958,-0.73,0.44,0.44,-0.05,0.07,1.01,
0.96,-0.73,0.44,0.44,-0.05,0.07,1.01,
0.963,-0.73,0.44,0.44,-0.05,0.07,1.01,
0.963,-0.72,0.37,0.43,-0.05,0.07,1.01,
0.965,-0.72,0.37,0.43,-0.05,0.06,1.01,
0.968,-0.72,0.37,0.43,-0.05,0.06,1.01,
0.968,-0.70,0.28,0.41,-0.05,0.06,1.01,
0.97,-0.70,0.28,0.41,-0.05,0.05,1.01,
0.973,-0.70,0.28,0.41,-0.05,0.05,1.01,
0.973,-0.69,0.19,0.39,-0.05,0.05,1.01,
0.975,-0.69,0.19,0.39,-0.05,0.05,1.01,
0.982,-0.69,0.19,0.39,-0.05,0.05,1.01,
0.983,-0.70,0.14,0.37,-0.05,0.05,1.01,
0.983,-0.70,0.14,0.37,-0.05,0.05,1.01,
0.983,-0.70,0.14,0.37,-0.05,0.05,1.01,
0.983,-0.73,0.10,0.37,-0.05,0.05,1.01,
0.985,-0.73,0.10,0.37,-0.05,0.05,1.01,
0.987,-0.73,0.10,0.37,-0.05,0.05,1.01,
0.988,-0.73,0.08,0.38,-0.05,0.05,1.01,
0.989,-0.73,0.08,0.38,-0.05,0.05,1.01,
0.992,-0.73,0.08,0.38,-0.05,0.05,1.01,
0.993,-0.71,0.09,0.37,-0.05,0.05,1.01,
0.994,-0.71,0.09,0.37,-0.05,0.05,1.01,
0.997,-0.71,0.09,0.37,-0.04,0.05,1.01,
0.997,-0.67,0.13,0.38,-0.04,0.05,1.01,
0.999,-0.67,0.13,0.38,-0.04,0.06,1.01,
1.002,-0.67,0.13,0.38,-0.04,0.05,1.01,
1.002,-0.66,0.15,0.37,-0.04,0.05,1.01,
1.004,-0.66,0.15,0.37,-0.04,0.05,1.01,
1.007,-0.66,0.15,0.37,-0.04,0.05,1.01,
1.007,-0.64,0.16,0.35,-0.04,0.05,1.01,
1.009,-0.64,0.16,0.35,-0.04,0.05,1.00,
1.012,-0.64,0.16,0.35,-0.05,0.05,1.00,
1.012,-0.62,0.13,0.32,-0.05,0.05,1.00,
1.014,-0.62,0.13,0.32,-0.05,0.05,1.00,
1.016,-0.62,0.13,0.32,-0.04,0.05,0.99,
1.017,-0.66,0.11,0.26,-0.04,0.05,0.99,
1.019,-0.66,0.11,0.26,-0.04,0.05,0.99,
1.022,-0.66,0.11,0.26,-0.04,0.05,0.98,
1.022,-0.67,0.09,0.18,-0.04,0.05,0.98,
1.024,-0.67,0.09,0.18,-0.04,0.05,0.97,
1.027,-0.67,0.09,0.18,-0.04,0.05,0.96,
1.027,-0.66,0.10,0.08,-0.04,0.05,0.96,
1.029,-0.66,0.10,0.08,-0.04,0.05,0.96,
1.031,-0.66,0.10,0.08,-0.03,0.04,0.95,
1.031,-0.62,0.08,-0.07,-0.03,0.04,0.95,
1.034,-0.62,0.08,-0.07,-0.03,0.04,0.94,
1.036,-0.62,0.08,-0.07,-0.03,0.04,0.93,
1.037,-0.59,0.04,-0.20,-0.03,0.04,0.93,
1.039,-0.59,0.04,-0.20,-0.03,0.04,0.93,
1.041,-0.59,0.04,-0.20,-0.04,0.04,0.92,
1.041,-0.58,0.01,-0.34,-0.04,0.04,0.92,
1.044,-0.58,0.01,-0.34,-0.04,0.04,0.92,
1.046,-0.58,0.01,-0.34,-0.04,0.04,0.92,
1.046,-0.60,-0.00,-0.46,-0.04,0.04,0.92,
1.048,-0.60,-0.00,-0.46,-0.05,0.03,0.92,
1.051,-0.60,-0.00,-0.46,-0.05,0.03,0.92,
1.051,-0.67,-0.03,-0.52,-0.05,0.03,0.92,
1.053,-0.67,-0.03,-0.52,-0.05,0.03,0.92,
1.056,-0.67,-0.03,-0.52,-0.05,0.03,0.92,
1.056,-0.71,-0.07,-0.54,-0.05,0.03,0.92,
1.058,-0.71,-0.07,-0.54,-0.05,0.03,0.92,
1.061,-0.71,-0.07,-0.54,-0.05,0.02,0.93,
1.061,-0.74,-0.12,-0.53,-0.05,0.02,0.93,
1.063,-0.74,-0.12,-0.53,-0.05,0.02,0.93,
1.065,-0.74,-0.12,-0.53,-0.05,0.02,0.94,
1.066,-0.73,-0.14,-0.45,-0.05,0.02,0.94,
1.068,-0.73,-0.14,-0.45,-0.04,0.02,0.94,
1.07,-0.73,-0.14,-0.45,-0.04,0.02,0.95,
1.071,-0.70,-0.15,-0.38,-0.04,0.02,0.95,
1.073,-0.70,-0.15,-0.38,-0.04,0.03,0.95,
1.075,-0.70,-0.15,-0.38,-0.04,0.03,0.95,
1.075,-0.66,-0.14,-0.27,-0.04,0.03,0.95,
1.082,-0.66,-0.14,-0.27,-0.04,0.03,0.96,
1.082,-0.66,-0.14,-0.27,-0.04,0.03,0.96,
1.082,-0.60,-0.11,-0.18,-0.04,0.03,0.96,
1.083,-0.60,-0.11,-0.18,-0.04,0.02,0.97,
1.085,-0.60,-0.11,-0.18,-0.04,0.02,0.97,
1.085,-0.58,-0.11,-0.10,-0.04,0.02,0.97,
1.087,-0.58,-0.11,-0.10,-0.04,0.02,0.97,
1.09,-0.58,-0.11,-0.10,-0.04,0.02,0.97,
1.091,-0.56,-0.14,-0.03,-0.04,0.02,0.97,
1.095,-0.56,-0.14,-0.03,-0.04,0.02,0.97,
1.095,-0.56,-0.14,-0.03,-0.04,0.02,0.97,
1.096,-0.56,-0.17,-0.00,-0.04,0.02,0.97,
1.097,-0.56,-0.17,-0.00,-0.04,0.02,0.97,
1.1,-0.56,-0.17,-0.00,-0.04,0.02,0.97,
1.1,-0.57,-0.19,0.02,-0.04,0.02,0.97,
1.102,-0.57,-0.19,0.02,-0.04,0.02,0.97,
1.105,-0.57,-0.19,0.02,-0.04,0.02,0.97,
1.105,-0.62,-0.18,-0.01,-0.04,0.02,0.97,
1.107,-0.62,-0.18,-0.01,-0.04,0.03,0.96,
1.11,-0.62,-0.18,-0.01,-0.04,0.03,0.96,
1.11,-0.57,-0.13,-0.04,-0.04,0.03,0.96,
1.112,-0.57,-0.13,-0.04,-0.04,0.03,0.95,
1.114,-0.57,-0.13,-0.04,-0.04,0.04,0.95,
1.114,-0.55,-0.07,-0.11,-0.04,0.04,0.95,
1.117,-0.55,-0.07,-0.11,-0.03,0.04,0.95,
1.119,-0.55,-0.07,-0.11,-0.04,0.05,0.94,
1.119,-0.53,0.01,-0.18,-0.04,0.05,0.94,
1.122,-0.53,0.01,-0.18,-0.04,0.05,0.94,
1.125,-0.53,0.01,-0.18,-0.04,0.05,0.94,
1.125,-0.53,0.09,-0.26,-0.04,0.05,0.94,
1.127,-0.53,0.09,-0.26,-0.04,0.05,0.93,
1.129,-0.53,0.09,-0.26,-0.05,0.05,0.93,
1.129,-0.55,0.13,-0.32,-0.05,0.05,0.93,
1.131,-0.55,0.13,-0.32,-0.05,0.05,0.93,
1.134,-0.55,0.13,-0.32,-0.05,0.05,0.93,
1.134,-0.63,0.13,-0.35,-0.05,0.05,0.93,
1.136,-0.63,0.13,-0.35,-0.05,0.05,0.94,
1.139,-0.63,0.13,-0.35,-0.05,0.05,0.94,
1.139,-0.65,0.18,-0.35,-0.05,0.05,0.94,
1.142,-0.65,0.18,-0.35,-0.06,0.05,0.94,
1.144,-0.65,0.18,-0.35,-0.06,0.05,0.94,
1.144,-0.69,0.17,-0.34,-0.06,0.05,0.94,
1.146,-0.69,0.17,-0.34,-0.06,0.05,0.94,
1.149,-0.69,0.17,-0.34,-0.06,0.05,0.95,
1.149,-0.72,0.17,-0.30,-0.06,0.05,0.95,
1.151,-0.72,0.17,-0.30,-0.06,0.05,0.95,
1.154,-0.72,0.17,-0.30,-0.06,0.05,0.96,
1.154,-0.74,0.16,-0.22,-0.06,0.05,0.96,
1.156,-0.74,0.16,-0.22,-0.06,0.05,0.97,
1.159,-0.74,0.16,-0.22,-0.06,0.05,0.97,
1.159,-0.76,0.15,-0.11,-0.06,0.05,0.97,
1.165,-0.76,0.15,-0.11,-0.06,0.04,0.98,
1.166,-0.76,0.15,-0.11,-0.05,0.04,0.99,
1.166,-0.73,0.17,0.03,-0.05,0.04,0.99,
1.166,-0.73,0.17,0.03,-0.05,0.04,0.99,
1.168,-0.73,0.17,0.03,-0.05,0.04,1.00,
1.168,-0.67,0.13,0.15,-0.05,0.04,1.00,
1.171,-0.67,0.13,0.15,-0.05,0.04,1.00,
1.173,-0.67,0.13,0.15,-0.05,0.04,1.01,
1.175,-0.62,0.14,0.25,-0.05,0.04,1.01,
1.177,-0.62,0.14,0.25,-0.04,0.04,1.01,
1.179,-0.62,0.14,0.25,-0.04,0.04,1.01,
1.179,-0.55,0.13,0.33,-0.04,0.04,1.01,
1.181,-0.55,0.13,0.33,-0.03,0.04,1.02,
1.183,-0.55,0.13,0.33,-0.03,0.04,1.02,
1.183,-0.46,0.14,0.41,-0.03,0.04,1.02,
1.185,-0.46,0.14,0.41,-0.03,0.04,1.03,
1.188,-0.46,0.14,0.41,-0.02,0.04,1.03,
1.188,-0.38,0.14,0.49,-0.02,0.04,1.03,
1.19,-0.38,0.14,0.49,-0.02,0.05,1.04,
1.193,-0.38,0.14,0.49,-0.02,0.05,1.04,
1.194,-0.32,0.17,0.58,-0.02,0.05,1.04,
1.195,-0.32,0.17,0.58,-0.02,0.05,1.04,
1.198,-0.32,0.17,0.58,-0.02,0.05,1.04,
1.198,-0.26,0.20,0.65,-0.02,0.05,1.04,
1.2,-0.26,0.20,0.65,-0.02,0.04,1.04,
1.203,-0.26,0.20,0.65,-0.02,0.04,1.04,
1.203,-0.25,0.21,0.66,-0.02,0.04,1.04,
1.205,-0.25,0.21,0.66,-0.02,0.04,1.04,
1.208,-0.25,0.21,0.66,-0.02,0.03,1.04,
1.208,-0.24,0.15,0.66,-0.02,0.03,1.04,
1.21,-0.24,0.15,0.66,-0.03,0.03,1.04,
1.212,-0.24,0.15,0.66,-0.03,0.03,1.03,
1.213,-0.27,0.09,0.65,-0.03,0.03,1.03,
1.215,-0.27,0.09,0.65,-0.03,0.02,1.03,
1.217,-0.27,0.09,0.65,-0.04,0.02,1.02,
1.218,-0.32,0.01,0.59,-0.04,0.02,1.02,
1.22,-0.32,0.01,0.59,-0.04,0.02,1.02,
1.222,-0.32,0.01,0.59,-0.04,0.01,1.01,
1.222,-0.37,-0.05,0.51,-0.04,0.01,1.01,
1.224,-0.37,-0.05,0.51,-0.05,0.01,1.00,
1.227,-0.37,-0.05,0.51,-0.05,0.01,1.00,
1.228,-0.43,-0.12,0.39,-0.05,0.01,1.00,
1.229,-0.43,-0.12,0.39,-0.06,0.01,0.99,
1.232,-0.43,-0.12,0.39,-0.06,0.01,0.99,
1.232,-0.51,-0.15,0.25,-0.06,0.01,0.99,
1.234,-0.51,-0.15,0.25,-0.06,0.01,0.98,
1.237,-0.51,-0.15,0.25,-0.06,0.01,0.98,
1.237,-0.60,-0.19,0.15,-0.06,0.01,0.98,
1.239,-0.60,-0.19,0.15,-0.06,0.01,0.97,
1.242,-0.60,-0.19,0.15,-0.06,0.01,0.96,
1.242,-0.65,-0.18,0.03,-0.06,0.01,0.96,
1.244,-0.65,-0.18,0.03,-0.06,0.01,0.96,
1.247,-0.65,-0.18,0.03,-0.06,0.02,0.96,
1.247,-0.67,-0.18,-0.07,-0.06,0.02,0.96,
1.249,-0.67,-0.18,-0.07,-0.06,0.02,0.96,
1.252,-0.67,-0.18,-0.07,-0.06,0.03,0.96,
1.252,-0.65,-0.10,-0.12,-0.06,0.03,0.96,
1.254,-0.65,-0.10,-0.12,-0.06,0.03,0.96,
1.257,-0.65,-0.10,-0.12,-0.05,0.03,0.96,
1.257,-0.62,-0.02,-0.16,-0.05,0.03,0.96,
1.264,-0.62,-0.02,-0.16,-0.05,0.04,0.96,
1.265,-0.62,-0.02,-0.16,-0.05,0.04,0.95,
1.265,-0.58,0.06,-0.18,-0.05,0.04,0.95,
1.266,-0.58,0.06,-0.18,-0.05,0.04,0.95,
1.266,-0.58,0.06,-0.18,-0.05,0.04,0.95,
1.267,-0.53,0.12,-0.19,-0.05,0.04,0.95,
1.269,-0.53,0.12,-0.19,-0.04,0.04,0.95,
1.272,-0.53,0.12,-0.19,-0.04,0.04,0.96,
1.272,-0.51,0.13,-0.21,-0.04,0.04,0.96,
1.273,-0.51,0.13,-0.21,-0.04,0.04,0.95,
1.276,-0.51,0.13,-0.21,-0.03,0.04,0.95,
1.277,-0.43,0.15,-0.20,-0.03,0.04,0.95,
1.279,-0.43,0.15,-0.20,-0.03,0.04,0.95,
1.281,-0.43,0.15,-0.20,-0.03,0.04,0.95,
1.281,-0.36,0.17,-0.21,-0.03,0.04,0.95,
1.283,-0.36,0.17,-0.21,-0.02,0.04,0.95,
1.286,-0.36,0.17,-0.21,-0.02,0.04,0.94,
1.286,-0.27,0.18,-0.22,-0.02,0.04,0.94,
1.288,-0.27,0.18,-0.22,-0.02,0.04,0.94,
1.291,-0.27,0.18,-0.22,-0.01,0.03,0.94,
1.291,-0.22,0.17,-0.28,-0.01,0.03,0.94,
1.293,-0.22,0.17,-0.28,-0.01,0.03,0.94,
1.296,-0.22,0.17,-0.28,-0.01,0.03,0.93,
1.296,-0.16,0.12,-0.32,-0.01,0.03,0.93,
1.298,-0.16,0.12,-0.32,-0.01,0.02,0.93,
1.301,-0.16,0.12,-0.32,-0.00,0.02,0.93,
1.301,-0.12,0.06,-0.38,-0.00,0.02,0.93,
1.303,-0.12,0.06,-0.38,-0.00,0.02,0.92,
1.305,-0.12,0.06,-0.38,0.00,0.02,0.92,
1.306,-0.07,0.02,-0.44,0.00,0.02,0.92,
1.308,-0.07,0.02,-0.44,0.00,0.02,0.92,
1.311,-0.07,0.02,-0.44,0.00,0.01,0.91,
1.311,-0.03,-0.02,-0.51,0.00,0.01,0.91,
1.313,-0.03,-0.02,-0.51,-0.00,0.01,0.91,
1.316,-0.03,-0.02,-0.51,-0.01,0.01,0.91,
1.316,-0.02,-0.03,-0.55,-0.01,0.01,0.91,
1.318,-0.02,-0.03,-0.55,-0.01,0.01,0.91,
1.32,-0.02,-0.03,-0.55,-0.02,0.01,0.92,
1.32,-0.05,-0.05,-0.58,-0.02,0.01,0.92,
1.322,-0.05,-0.05,-0.58,-0.03,0.01,0.92,
1.326,-0.05,-0.05,-0.58,-0.04,0.01,0.93,
1.327,-0.18,-0.07,-0.55,-0.04,0.01,0.93,
1.328,-0.18,-0.07,-0.55,-0.05,0.01,0.93,
1.331,-0.18,-0.07,-0.55,-0.05,0.01,0.94,
1.332,-0.35,-0.07,-0.46,-0.05,0.01,0.94,
1.333,-0.35,-0.07,-0.46,-0.06,0.02,0.95,
1.335,-0.35,-0.07,-0.46,-0.06,0.02,0.96,
1.336,-0.49,-0.03,-0.36,-0.06,0.02,0.96,
1.338,-0.49,-0.03,-0.36,-0.07,0.02,0.96,
1.34,-0.49,-0.03,-0.36,-0.07,0.03,0.97,
1.34,-0.58,0.05,-0.19,-0.07,0.03,0.97,
1.343,-0.58,0.05,-0.19,-0.08,0.03,0.98,
1.345,-0.58,0.05,-0.19,-0.08,0.04,0.99,
1.345,-0.62,0.14,-0.01,-0.08,0.04,0.99,
1.348,-0.62,0.14,-0.01,-0.08,0.04,1.00,
1.35,-0.62,0.14,-0.01,-0.08,0.05,1.00,
1.35,-0.68,0.24,0.15,-0.08,0.05,1.00,
1.352,-0.68,0.24,0.15,-0.08,0.05,1.01,
1.355,-0.68,0.24,0.15,-0.08,0.06,1.02,
1.355,-0.66,0.35,0.30,-0.08,0.06,1.02,
1.357,-0.66,0.35,0.30,-0.08,0.06,1.02,
1.36,-0.66,0.35,0.30,-0.08,0.06,1.02,
1.361,-0.65,0.46,0.42,-0.08,0.06,1.02,
1.362,-0.65,0.46,0.42,-0.08,0.06,1.02,
1.365,-0.65,0.46,0.42,-0.08,0.06,1.02,
1.365,-0.63,0.53,0.47,-0.08,0.06,1.02,
1.367,-0.63,0.53,0.47,-0.09,0.06,1.02,
1.369,-0.63,0.53,0.47,-0.09,0.06,1.02,
1.37,-0.63,0.53,0.51,-0.09,0.06,1.02,
1.372,-0.63,0.53,0.51,-0.09,0.06,1.02,
1.374,-0.63,0.53,0.51,-0.10,0.07,1.02,
1.375,-0.67,0.54,0.50,-0.10,0.07,1.02,
1.382,-0.67,0.54,0.50,-0.10,0.07,1.01,
1.383,-0.67,0.54,0.50,-0.09,0.07,1.01,
1.383,-0.72,0.59,0.45,-0.09,0.07,1.01,
1.384,-0.72,0.59,0.45,-0.09,0.08,1.00,
1.384,-0.72,0.59,0.45,-0.09,0.08,1.00,
1.384,-0.71,0.63,0.38,-0.09,0.08,1.00,
1.387,-0.71,0.63,0.38,-0.09,0.08,1.00,
1.389,-0.71,0.63,0.38,-0.09,0.08,0.99,
1.389,-0.66,0.69,0.29,-0.09,0.08,0.99,
1.391,-0.66,0.69,0.29,-0.09,0.09,0.99,
1.396,-0.66,0.69,0.29,-0.09,0.09,0.98,
1.397,-0.63,0.73,0.21,-0.09,0.09,0.98,
1.397,-0.63,0.73,0.21,-0.09,0.09,0.98,
1.399,-0.63,0.73,0.21,-0.09,0.09,0.98,
1.399,-0.59,0.78,0.13,-0.09,0.09,0.98,
1.401,-0.59,0.78,0.13,-0.09,0.10,0.98,
1.403,-0.59,0.78,0.13,-0.09,0.10,0.98,
1.404,-0.57,0.83,0.08,-0.09,0.10,0.98,
1.406,-0.57,0.83,0.08,-0.10,0.10,0.98,
1.409,-0.57,0.83,0.08,-0.10,0.10,0.98,
1.41,-0.58,0.87,0.06,-0.10,0.10,0.98,
1.411,-0.58,0.87,0.06,-0.11,0.10,0.98,
1.413,-0.58,0.87,0.06,-0.11,0.10,0.99,
1.414,-0.63,0.90,0.08,-0.11,0.10,0.99,
1.416,-0.63,0.90,0.08,-0.12,0.10,0.99,
1.418,-0.63,0.90,0.08,-0.13,0.10,1.00,
1.418,-0.73,0.90,0.12,-0.13,0.10,1.00,
1.42,-0.73,0.90,0.12,-0.13,0.10,1.00,
1.423,-0.73,0.90,0.12,-0.14,0.09,1.01,
1.424,-0.83,0.89,0.22,-0.14,0.09,1.01,
1.426,-0.83,0.89,0.22,-0.14,0.09,1.01,
1.428,-0.83,0.89,0.22,-0.14,0.09,1.02,
1.429,-0.88,0.84,0.31,-0.14,0.09,1.02,
1.43,-0.88,0.84,0.31,-0.14,0.09,1.02,
1.433,-0.88,0.84,0.31,-0.14,0.09,1.02,
1.433,-0.92,0.79,0.38,-0.14,0.09,1.02,
1.435,-0.92,0.79,0.38,-0.14,0.09,1.03,
1.438,-0.92,0.79,0.38,-0.14,0.09,1.03,
1.438,-0.90,0.76,0.46,-0.14,0.09,1.03,
1.44,-0.90,0.76,0.46,-0.13,0.09,1.03,
1.443,-0.90,0.76,0.46,-0.13,0.09,1.03,
1.444,-0.84,0.76,0.50,-0.13,0.09,1.03,
1.445,-0.84,0.76,0.50,-0.13,0.09,1.03,
1.448,-0.84,0.76,0.50,-0.12,0.09,1.03,
1.448,-0.74,0.74,0.51,-0.12,0.09,1.03,
1.45,-0.74,0.74,0.51,-0.11,0.09,1.02,
1.452,-0.74,0.74,0.51,-0.11,0.09,1.02,
1.453,-0.65,0.76,0.50,-0.11,0.09,1.02,
1.455,-0.65,0.76,0.50,-0.10,0.09,1.02,
1.457,-0.65,0.76,0.50,-0.10,0.09,1.02,
1.458,-0.53,0.76,0.46,-0.10,0.09,1.02,
1.465,-0.53,0.76,0.46,-0.10,0.08,1.01,
1.465,-0.42,0.74,0.41,-0.10,0.08,1.01,
1.465,-0.42,0.74,0.41,-0.09,0.09,1.01,
1.466,-0.42,0.74,0.41,-0.09,0.09,1.00,
1.467,-0.42,0.74,0.41,-0.09,0.09,1.00,
1.468,-0.35,0.72,0.33,-0.09,0.09,1.00,
1.47,-0.35,0.72,0.33,-0.09,0.09,1.00,
1.472,-0.35,0.72,0.33,-0.09,0.09,0.99,
1.472,-0.31,0.73,0.25,-0.09,0.09,0.99,
1.474,-0.31,0.73,0.25,-0.09,0.09,0.98,
1.477,-0.31,0.73,0.25,-0.09,0.08,0.98,
1.478,-0.28,0.73,0.16,-0.09,0.08,0.98,
1.479,-0.28,0.73,0.16,-0.09,0.08,0.98,
1.482,-0.28,0.73,0.16,-0.09,0.08,0.97,
1.482,-0.28,0.72,0.06,-0.09,0.08,0.97,
1.485,-0.28,0.72,0.06,-0.09,0.08,0.97,
1.487,-0.28,0.72,0.06,-0.09,0.08,0.97,
1.487,-0.25,0.71,0.00,-0.09,0.08,0.97,
1.489,-0.25,0.71,0.00,-0.08,0.08,0.97,
1.492,-0.25,0.71,0.00,-0.08,0.08,0.97,
1.492,-0.22,0.70,-0.05,-0.08,0.08,0.97,
1.494,-0.22,0.70,-0.05,-0.08,0.08,0.97,
1.497,-0.22,0.70,-0.05,-0.08,0.08,0.97,
1.497,-0.18,0.70,-0.06,-0.08,0.08,0.97,
1.499,-0.18,0.70,-0.06,-0.09,0.08,0.97,
1.502,-0.18,0.70,-0.06,-0.09,0.08,0.98,
1.502,-0.16,0.69,-0.04,-0.09,0.08,0.98,
1.504,-0.16,0.69,-0.04,-0.09,0.07,0.98,
1.506,-0.16,0.69,-0.04,-0.09,0.07,0.98,
1.507,-0.19,0.66,-0.01,-0.09,0.07,0.98,
1.509,-0.19,0.66,-0.01,-0.10,0.07,0.99,
1.511,-0.19,0.66,-0.01,-0.11,0.07,1.00,
1.512,-0.23,0.62,0.06,-0.11,0.07,1.00,
1.514,-0.23,0.62,0.06,-0.11,0.07,1.01,
1.516,-0.23,0.62,0.06,-0.12,0.07,1.02,
1.517,-0.30,0.58,0.20,-0.12,0.07,1.02,
1.519,-0.30,0.58,0.20,-0.12,0.07,1.02,
1.521,-0.30,0.58,0.20,-0.12,0.07,1.03,
1.521,-0.38,0.59,0.35,-0.12,0.07,1.03,
1.523,-0.38,0.59,0.35,-0.13,0.07,1.04,
1.526,-0.38,0.59,0.35,-0.13,0.07,1.04,
1.527,-0.43,0.60,0.49,-0.13,0.07,1.04,
1.528,-0.43,0.60,0.49,-0.13,0.07,1.04,
1.531,-0.43,0.60,0.49,-0.13,0.07,1.05,
1.531,-0.47,0.61,0.61,-0.13,0.07,1.05,
1.533,-0.47,0.61,0.61,-0.13,0.07,1.05,
1.536,-0.47,0.61,0.61,-0.13,0.07,1.05,
1.536,-0.48,0.60,0.67,-0.13,0.07,1.05,
1.538,-0.48,0.60,0.67,-0.13,0.07,1.05,
1.541,-0.48,0.60,0.67,-0.13,0.07,1.05,
1.541,-0.46,0.60,0.72,-0.13,0.07,1.05,
1.543,-0.46,0.60,0.72,-0.12,0.07,1.05,
1.546,-0.46,0.60,0.72,-0.12,0.07,1.04,
1.546,-0.39,0.63,0.71,-0.12,0.07,1.04,
1.548,-0.39,0.63,0.71,-0.11,0.07,1.04,
1.55,-0.39,0.63,0.71,-0.11,0.07,1.04,
1.551,-0.32,0.66,0.66,-0.11,0.07,1.04,
1.553,-0.32,0.66,0.66,-0.11,0.07,1.03,
1.555,-0.32,0.66,0.66,-0.11,0.07,1.02,
1.556,-0.24,0.64,0.58,-0.11,0.07,1.02,
1.558,-0.24,0.64,0.58,-0.11,0.06,1.02,
1.565,-0.24,0.64,0.58,-0.11,0.06,1.01,
1.566,-0.20,0.60,0.47,-0.11,0.06,1.01,
1.566,-0.20,0.60,0.47,-0.10,0.06,1.01,
1.566,-0.20,0.60,0.47,-0.10,0.06,1.00,
1.567,-0.16,0.56,0.35,-0.10,0.06,1.00,
1.567,-0.16,0.56,0.35,-0.10,0.06,0.99,
1.57,-0.16,0.56,0.35,-0.09,0.06,0.98,
1.57,-0.09,0.52,0.22,-0.09,0.06,0.98,
1.573,-0.09,0.52,0.22,-0.09,0.06,0.98,
1.58,-0.09,0.52,0.22,-0.09,0.06,0.97,
1.581,-0.04,0.51,0.07,-0.09,0.06,0.97,
1.581,-0.04,0.51,0.07,-0.10,0.06,0.97,
1.581,-0.04,0.51,0.07,-0.10,0.06,0.96,
1.581,-0.03,0.53,-0.06,-0.10,0.06,0.96,
1.582,-0.03,0.53,-0.06,-0.10,0.06,0.96,
1.585,-0.03,0.53,-0.06,-0.10,0.07,0.96,
1.585,-0.05,0.54,-0.16,-0.10,0.07,0.96,
1.587,-0.05,0.54,-0.16,-0.11,0.07,0.95,
1.59,-0.05,0.54,-0.16,-0.11,0.07,0.95,
1.59,-0.09,0.56,-0.23,-0.11,0.07,0.95,
1.592,-0.09,0.56,-0.23,-0.11,0.07,0.95,
1.594,-0.09,0.56,-0.23,-0.11,0.08,0.95,
1.595,-0.15,0.61,-0.27,-0.11,0.08,0.95,
1.597,-0.15,0.61,-0.27,-0.11,0.08,0.95,
1.6,-0.15,0.61,-0.27,-0.11,0.09,0.96,
1.6,-0.18,0.69,-0.28,-0.11,0.09,0.96,
1.602,-0.18,0.69,-0.28,-0.11,0.09,0.96,
1.605,-0.18,0.69,-0.28,-0.11,0.09,0.97,
1.605,-0.17,0.77,-0.22,-0.11,0.09,0.97,
1.607,-0.17,0.77,-0.22,-0.11,0.10,0.97,
1.609,-0.17,0.77,-0.22,-0.11,0.10,0.98,
1.61,-0.12,0.84,-0.13,-0.11,0.10,0.98,
1.612,-0.12,0.84,-0.13,-0.10,0.10,0.98,
1.614,-0.12,0.84,-0.13,-0.10,0.10,0.99,
1.614,-0.09,0.88,-0.04,-0.10,0.10,0.99,
1.616,-0.09,0.88,-0.04,-0.10,0.09,0.99,
1.619,-0.09,0.88,-0.04,-0.10,0.09,1.00,
1.619,-0.04,0.89,0.08,-0.10,0.09,1.00,
1.622,-0.04,0.89,0.08,-0.09,0.09,1.00,
1.624,-0.04,0.89,0.08,-0.09,0.09,1.01,
1.624,0.02,0.85,0.17,-0.09,0.09,1.01,
1.626,0.02,0.85,0.17,-0.08,0.09,1.01,
1.629,0.12,0.83,0.27,-0.08,0.09,1.01,
1.629,0.12,0.83,0.27,-0.08,0.08,1.02,
1.631,0.12,0.83,0.27,-0.07,0.08,1.02,
1.634,0.12,0.83,0.27,-0.07,0.08,1.02,
1.634,0.20,0.78,0.34,-0.07,0.08,1.02,
1.636,0.20,0.78,0.34,-0.07,0.08,1.02,
1.639,0.32,0.75,0.40,-0.07,0.08,1.02,
1.639,0.32,0.75,0.40,-0.06,0.08,1.02,
1.642,0.32,0.75,0.40,-0.05,0.08,1.02,
1.644,0.32,0.75,0.40,-0.05,0.08,1.02,
1.644,0.43,0.73,0.41,-0.05,0.08,1.02,
1.646,0.43,0.73,0.41,-0.04,0.08,1.02,
1.649,0.43,0.73,0.41,-0.03,0.08,1.02,
1.649,0.56,0.72,0.41,-0.03,0.08,1.02,
1.651,0.56,0.72,0.41,-0.03,0.08,1.02,
1.653,0.56,0.72,0.41,-0.03,0.08,1.01,
1.654,0.68,0.73,0.37,-0.03,0.08,1.01,
1.656,0.68,0.73,0.37,-0.02,0.09,1.01,
1.658,0.68,0.73,0.37,-0.02,0.09,1.01,
1.659,0.74,0.73,0.34,-0.02,0.09,1.01,
1.661,0.74,0.73,0.34,-0.02,0.09,1.01,
1.663,0.74,0.73,0.34,-0.01,0.09,1.01,
1.666,0.84,0.78,0.31,-0.01,0.09,1.01,
1.666,0.84,0.78,0.31,-0.01,0.09,1.01,
1.668,0.84,0.78,0.31,-0.02,0.10,1.02,
1.668,0.89,0.80,0.31,-0.02,0.10,1.02,
1.67,0.89,0.80,0.31,-0.02,0.10,1.02,
1.673,0.89,0.80,0.31,-0.02,0.10,1.03,
1.673,0.90,0.83,0.35,-0.02,0.10,1.03,
1.68,0.90,0.83,0.35,-0.03,0.10,1.03,
1.682,0.90,0.83,0.35,-0.03,0.10,1.04,
1.682,0.85,0.87,0.44,-0.03,0.10,1.04,
1.683,0.85,0.87,0.44,-0.04,0.10,1.04,
1.683,0.85,0.87,0.44,-0.04,0.10,1.05,
1.683,0.77,0.88,0.52,-0.04,0.10,1.05,
1.685,0.77,0.88,0.52,-0.05,0.10,1.06,
1.688,0.77,0.88,0.52,-0.05,0.10,1.06,
1.688,0.66,0.85,0.64,-0.05,0.10,1.06,
1.69,0.66,0.85,0.64,-0.05,0.10,1.07,
1.693,0.64,0.83,0.75,-0.05,0.10,1.07,
1.694,0.64,0.83,0.75,-0.04,0.10,1.07,
1.695,0.64,0.83,0.75,-0.04,0.10,1.08,
1.697,0.64,0.83,0.75,-0.04,0.10,1.09,
1.698,0.64,0.85,0.87,-0.04,0.10,1.09,
1.7,0.64,0.85,0.87,-0.03,0.10,1.09,
1.702,0.64,0.85,0.87,-0.03,0.10,1.09,
1.702,0.70,0.84,0.99,-0.03,0.10,1.09,
1.705,0.70,0.84,0.99,-0.02,0.10,1.10,
1.707,0.70,0.84,0.99,-0.01,0.10,1.10,
1.708,0.81,0.85,1.07,-0.01,0.10,1.10,
1.71,0.81,0.85,1.07,-0.01,0.10,1.10,
1.712,0.81,0.85,1.07,-0.01,0.10,1.11,
1.712,0.93,0.83,1.13,-0.01,0.10,1.11,
1.714,0.93,0.83,1.13,-0.00,0.10,1.10,
1.717,0.93,0.83,1.13,0.00,0.10,1.10,
1.717,1.03,0.82,1.18,0.00,0.10,1.10,
1.719,1.03,0.82,1.18,0.00,0.09,1.10,
1.722,1.03,0.82,1.18,0.01,0.09,1.10,
1.722,1.11,0.78,1.16,0.01,0.09,1.10,
1.725,1.11,0.78,1.16,0.01,0.09,1.10,
1.727,1.11,0.78,1.16,0.01,0.09,1.10,
1.727,1.16,0.75,1.16,0.01,0.09,1.10,
1.729,1.16,0.75,1.16,0.01,0.09,1.10,
1.732,1.16,0.75,1.16,0.02,0.09,1.10,
1.732,1.21,0.72,1.13,0.02,0.09,1.10,
1.734,1.21,0.72,1.13,0.02,0.09,1.09,
1.737,1.21,0.72,1.13,0.02,0.09,1.09,
1.737,1.24,0.69,1.06,0.02,0.09,1.09,
1.739,1.24,0.69,1.06,0.02,0.09,1.09,
1.742,1.24,0.69,1.06,0.02,0.09,1.08,
1.743,1.26,0.67,1.00,0.02,0.09,1.08,
1.744,1.26,0.67,1.00,0.02,0.09,1.08,
1.747,1.26,0.67,1.00,0.01,0.09,1.07,
1.747,1.27,0.68,0.92,0.01,0.09,1.07,
1.749,1.27,0.68,0.92,0.01,0.10,1.07,
1.751,1.27,0.68,0.92,0.01,0.10,1.07,
1.752,1.22,0.68,0.84,0.01,0.10,1.07,
1.754,1.22,0.68,0.84,0.01,0.10,1.06,
1.756,1.17,0.70,0.75,0.01,0.10,1.06,
1.757,1.17,0.70,0.75,0.01,0.10,1.06,
1.759,1.17,0.70,0.75,0.01,0.10,1.06,
1.762,1.17,0.70,0.75,0.00,0.11,1.05,
1.762,1.11,0.70,0.68,0.00,0.11,1.05,
1.764,1.11,0.70,0.68,0.01,0.11,1.05,
1.766,1.11,0.70,0.68,0.00,0.11,1.05,
1.766,1.07,0.74,0.62,0.00,0.11,1.05,
1.768,1.07,0.74,0.62,0.00,0.12,1.05,
1.771,1.07,0.74,0.62,-0.00,0.12,1.05,
1.771,1.05,0.78,0.58,-0.00,0.12,1.05,
1.773,1.05,0.78,0.58,-0.00,0.12,1.05,
1.781,1.05,0.78,0.58,-0.01,0.12,1.04,
1.782,0.99,0.83,0.54,-0.01,0.12,1.04,
1.782,0.99,0.83,0.54,-0.01,0.11,1.04,
1.782,0.99,0.83,0.54,-0.01,0.11,1.04,
1.782,0.95,0.81,0.50,-0.01,0.11,1.04,
1.783,0.95,0.81,0.50,-0.01,0.11,1.04,
1.786,0.95,0.81,0.50,-0.01,0.11,1.04,
1.786,0.91,0.77,0.45,-0.01,0.11,1.04,
1.788,0.91,0.77,0.45,-0.01,0.11,1.03,
1.791,0.91,0.77,0.45,-0.01,0.11,1.03,
1.791,0.90,0.73,0.42,-0.01,0.11,1.03,
1.793,0.90,0.73,0.42,-0.00,0.11,1.03,
1.795,0.90,0.73,0.42,-0.00,0.11,1.03,
1.795,0.91,0.70,0.37,-0.00,0.11,1.03,
1.798,0.91,0.70,0.37,-0.00,0.11,1.02,
1.8,0.91,0.70,0.37,-0.00,0.10,1.02,
1.8,0.92,0.67,0.33,-0.00,0.10,1.02,
1.802,0.92,0.67,0.33,0.00,0.10,1.02,
1.805,0.92,0.62,0.27,0.00,0.10,1.02,
1.805,0.92,0.62,0.27,0.00,0.10,1.01,
1.808,0.92,0.62,0.27,0.01,0.10,1.01,
1.81,0.92,0.62,0.27,0.00,0.09,1.01,
1.811,0.95,0.53,0.20,0.00,0.09,1.01,
1.812,0.95,0.53,0.20,0.01,0.09,1.01,
1.815,0.95,0.53,0.20,0.01,0.09,1.00,
1.815,0.96,0.47,0.12,0.01,0.09,1.00,
1.817,0.96,0.47,0.12,0.01,0.09,1.00,
1.82,0.96,0.47,0.12,0.00,0.09,1.01,
1.82,0.97,0.43,0.08,0.00,0.09,1.01,
1.822,0.97,0.43,0.08,-0.00,0.09,1.01,
1.825,0.97,0.43,0.08,-0.00,0.09,1.01,
1.825,0.93,0.41,0.09,-0.00,0.09,1.01,
1.827,0.93,0.41,0.09,-0.01,0.08,1.01,
1.83,0.93,0.41,0.09,-0.01,0.08,1.01,
1.83,0.86,0.36,0.12,-0.01,0.08,1.01,
1.832,0.86,0.36,0.12,-0.01,0.08,1.01,
1.834,0.86,0.36,0.12,-0.00,0.08,1.01,
1.835,0.80,0.30,0.13,-0.00,0.08,1.01,
1.837,0.80,0.30,0.13,0.00,0.07,1.02,
1.84,0.80,0.30,0.13,0.00,0.07,1.02,
1.84,0.81,0.24,0.17,0.00,0.07,1.02,
1.842,0.81,0.24,0.17,0.01,0.07,1.03,
1.845,0.81,0.24,0.17,0.01,0.06,1.03,
1.845,0.88,0.18,0.23,0.01,0.06,1.03,
1.847,0.88,0.18,0.23,0.02,0.06,1.04,
1.849,0.88,0.18,0.23,0.02,0.06,1.05,
1.849,0.93,0.10,0.33,0.02,0.06,1.05,
1.852,0.93,0.10,0.33,0.03,0.05,1.06,
1.854,0.93,0.10,0.33,0.04,0.05,1.06,
1.855,1.04,0.04,0.46,0.04,0.05,1.06,
1.857,1.04,0.04,0.46,0.04,0.05,1.07,
1.859,1.04,0.04,0.46,0.05,0.04,1.08,
1.86,1.17,-0.05,0.62,0.05,0.04,1.08,
1.862,1.17,-0.05,0.62,0.06,0.03,1.09,
1.864,1.17,-0.05,0.62,0.06,0.03,1.09,
1.864,1.28,-0.14,0.76,0.06,0.03,1.09,
1.866,1.28,-0.14,0.76,0.07,0.02,1.10,
1.869,1.28,-0.14,0.76,0.07,0.02,1.10,
1.869,1.36,-0.26,0.88,0.07,0.02,1.10,
1.871,1.36,-0.26,0.88,0.08,0.01,1.10,
1.88,1.36,-0.26,0.88,0.08,0.01,1.10,
1.881,1.45,-0.37,0.95,0.08,0.01,1.10,
1.881,1.45,-0.37,0.95,0.09,-0.00,1.10,
1.881,1.45,-0.37,0.95,0.09,-0.01,1.09,
1.881,1.53,-0.49,0.97,0.09,-0.01,1.09,
1.882,1.53,-0.49,0.97,0.10,-0.01,1.09,
1.883,1.53,-0.49,0.97,0.10,-0.01,1.08,
1.884,1.61,-0.62,0.92,0.10,-0.01,1.08,
1.886,1.61,-0.62,0.92,0.11,-0.02,1.08,
1.888,1.61,-0.62,0.92,0.11,-0.02,1.07,
1.889,1.68,-0.70,0.83,0.11,-0.02,1.07,
1.891,1.68,-0.70,0.83,0.12,-0.01,1.07,
1.893,1.68,-0.70,0.83,0.12,-0.01,1.06,
1.894,1.73,-0.74,0.72,0.12,-0.01,1.06,
1.896,1.73,-0.74,0.72,0.12,-0.01,1.05,
1.898,1.73,-0.74,0.72,0.12,-0.00,1.04,
1.899,1.75,-0.72,0.58,0.12,-0.00,1.04,
1.901,1.75,-0.72,0.58,0.12,0.01,1.03,
1.903,1.75,-0.72,0.58,0.12,0.02,1.02,
1.903,1.77,-0.65,0.42,0.12,0.02,1.02,
1.905,1.77,-0.65,0.42,0.12,0.03,1.01,
1.908,1.77,-0.65,0.42,0.11,0.04,1.00,
1.908,1.75,-0.48,0.25,0.11,0.04,1.00,
1.91,1.75,-0.48,0.25,0.10,0.05,0.99,
1.913,1.64,-0.32,0.05,0.10,0.05,0.99,
1.913,1.64,-0.32,0.05,0.09,0.06,0.99,
1.915,1.64,-0.32,0.05,0.07,0.07,0.98,
1.918,1.64,-0.32,0.05,0.06,0.08,0.97,
1.918,1.40,-0.14,-0.12,0.06,0.08,0.97,
1.92,1.40,-0.14,-0.12,0.05,0.09,0.97,
1.923,1.40,-0.14,-0.12,0.04,0.10,0.97,
1.923,1.12,0.05,-0.26,0.04,0.10,0.97,
1.925,1.12,0.05,-0.26,0.03,0.10,0.96,
1.928,1.12,0.05,-0.26,0.02,0.12,0.96,
1.928,0.87,0.22,-0.35,0.02,0.12,0.96,
1.93,0.87,0.22,-0.35,0.01,0.12,0.96,
1.933,0.87,0.22,-0.35,0.01,0.13,0.96,
1.933,0.70,0.38,-0.41,0.01,0.13,0.96,
1.935,0.70,0.38,-0.41,0.01,0.14,0.97,
1.937,0.70,0.38,-0.41,0.00,0.14,0.97,
1.938,0.57,0.54,-0.40,0.00,0.14,0.97,
1.94,0.57,0.54,-0.40,-0.00,0.14,0.97,
1.942,0.57,0.54,-0.40,-0.00,0.14,0.98,
1.943,0.48,0.63,-0.35,-0.00,0.14,0.98,
1.945,0.48,0.63,-0.35,-0.00,0.14,0.99,
1.948,0.48,0.63,-0.35,-0.00,0.14,0.99,
1.948,0.42,0.64,-0.25,-0.00,0.14,0.99,
1.95,0.42,0.64,-0.25,-0.00,0.13,1.00,
1.952,0.42,0.64,-0.25,-0.00,0.13,1.01,
1.952,0.42,0.59,-0.12,-0.00,0.13,1.01,
1.954,0.42,0.59,-0.12,0.00,0.13,1.02,
1.958,0.42,0.59,-0.12,0.01,0.12,1.02,
1.958,0.45,0.52,0.03,0.01,0.12,1.02,
1.959,0.45,0.52,0.03,0.01,0.11,1.03,
1.962,0.45,0.52,0.03,0.02,0.11,1.04,
1.963,0.54,0.39,0.17,0.02,0.11,1.04,
1.965,0.54,0.39,0.17,0.03,0.10,1.04,
1.967,0.54,0.39,0.17,0.03,0.09,1.05,
1.967,0.65,0.25,0.31,0.03,0.09,1.05,
1.969,0.65,0.25,0.31,0.04,0.08,1.05,
1.972,0.65,0.25,0.31,0.05,0.07,1.05,
1.972,0.79,0.07,0.41,0.05,0.07,1.05,
1.98,0.79,0.07,0.41,0.05,0.06,1.06,
1.981,0.79,0.07,0.41,0.05,0.05,1.06,
1.981,0.93,-0.13,0.51,0.05,0.05,1.06,
1.981,0.93,-0.13,0.51,0.06,0.04,1.06,
1.982,0.93,-0.13,0.51,0.06,0.04,1.06,
1.982,1.00,-0.34,0.55,0.06,0.04,1.06,
1.984,1.00,-0.34,0.55,0.06,0.03,1.06,
1.986,1.00,-0.34,0.55,0.06,0.03,1.06,
1.987,1.05,-0.52,0.58,0.06,0.03,1.06,
1.989,1.05,-0.52,0.58,0.06,0.03,1.05,
1.993,1.05,-0.52,0.58,0.07,0.03,1.05,
1.993,1.09,-0.64,0.56,0.07,0.03,1.05,
1.994,1.09,-0.64,0.56,0.06,0.02,1.05,
1.996,1.09,-0.64,0.56,0.06,0.02,1.04,
1.997,1.10,-0.69,0.50,0.06,0.02,1.04,
1.999,1.10,-0.69,0.50,0.06,0.02,1.03,
2.001,1.10,-0.69,0.50,0.05,0.03,1.02,
2.001,1.05,-0.75,0.40,0.05,0.03,1.02,
2.003,1.05,-0.75,0.40,0.05,0.03,1.02,
2.006,1.05,-0.75,0.40,0.05,0.04,1.01,
2.006,0.96,-0.73,0.26,0.05,0.04,1.01,
2.008,0.96,-0.73,0.26,0.04,0.05,1.00,
2.011,0.96,-0.73,0.26,0.04,0.06,1.00,
2.011,0.88,-0.61,0.12,0.04,0.06,1.00,
2.013,0.88,-0.61,0.12,0.04,0.07,0.99,
2.016,0.88,-0.61,0.12,0.03,0.08,0.98,
2.016,0.78,-0.46,-0.01,0.03,0.08,0.98,
2.018,0.78,-0.46,-0.01,0.03,0.08,0.98,
2.02,0.78,-0.46,-0.01,0.02,0.09,0.97,
2.021,0.68,-0.31,-0.14,0.02,0.09,0.97,
2.023,0.68,-0.31,-0.14,0.02,0.09,0.97,
2.026,0.68,-0.31,-0.14,0.01,0.10,0.96,
2.026,0.57,-0.20,-0.26,0.01,0.10,0.96,
2.028,0.57,-0.20,-0.26,0.00,0.10,0.96,
2.031,0.57,-0.20,-0.26,-0.00,0.10,0.96,
2.031,0.43,-0.11,-0.36,-0.00,0.10,0.96,
2.033,0.43,-0.11,-0.36,-0.01,0.10,0.96,
2.035,0.43,-0.11,-0.36,-0.01,0.10,0.96,
2.036,0.28,-0.04,-0.40,-0.01,0.10,0.96,
2.038,0.28,-0.04,-0.40,-0.01,0.10,0.96,
2.042,0.28,-0.04,-0.40,-0.01,0.10,0.97,
2.042,0.17,-0.04,-0.37,-0.01,0.10,0.97,
2.043,0.17,-0.04,-0.37,-0.01,0.09,0.97,
2.045,0.17,-0.04,-0.37,-0.01,0.09,0.97,
2.046,0.14,-0.10,-0.34,-0.01,0.09,0.97,
2.047,0.14,-0.10,-0.34,-0.01,0.08,0.98,
2.05,0.14,-0.10,-0.34,-0.00,0.08,0.98,
2.05,0.12,-0.21,-0.29,-0.00,0.08,0.98,
2.052,0.12,-0.21,-0.29,0.01,0.08,0.99,
2.055,0.12,-0.21,-0.29,0.01,0.07,0.99,
2.055,0.19,-0.31,-0.21,0.01,0.07,0.99,
2.057,0.19,-0.31,-0.21,0.03,0.06,1.00,
2.06,0.19,-0.31,-0.21,0.04,0.06,1.00,
2.06,0.33,-0.38,-0.10,0.04,0.06,1.00,
2.062,0.33,-0.38,-0.10,0.05,0.06,1.00,
2.065,0.33,-0.38,-0.10,0.06,0.05,1.00,
2.065,0.53,-0.49,-0.02,0.06,0.05,1.00,
2.067,0.53,-0.49,-0.02,0.06,0.04,1.01,
2.07,0.53,-0.49,-0.02,0.07,0.04,1.01,
2.07,0.73,-0.59,0.01,0.07,0.04,1.01,
2.072,0.73,-0.59,0.01,0.07,0.03,1.01,
2.074,0.73,-0.59,0.01,0.08,0.02,1.01,
2.075,0.88,-0.74,0.07,0.08,0.02,1.01,
2.077,0.88,-0.74,0.07,0.08,0.02,1.01,
2.079,0.88,-0.74,0.07,0.08,0.02,1.01,
2.08,0.97,-0.87,0.10,0.08,0.02,1.01,
2.082,0.97,-0.87,0.10,0.08,0.02,1.00,
2.085,0.97,-0.87,0.10,0.08,0.02,1.00,
2.085,1.01,-0.94,0.09,0.08,0.02,1.00,
2.086,1.01,-0.94,0.09,0.08,0.02,1.00,
2.089,1.01,-0.94,0.09,0.08,0.02,1.00,
2.089,1.00,-0.99,0.05,0.08,0.02,1.00,
2.096,1.00,-0.99,0.05,0.07,0.02,0.99,
2.097,1.00,-0.99,0.05,0.07,0.02,0.98,
2.097,0.95,-0.97,0.01,0.07,0.02,0.98,
2.097,0.95,-0.97,0.01,0.06,0.03,0.98,
2.099,0.95,-0.97,0.01,0.05,0.03,0.97,
2.1,0.83,-0.94,-0.09,0.05,0.03,0.97,
2.102,0.83,-0.94,-0.09,0.04,0.03,0.97,
2.104,0.83,-0.94,-0.09,0.03,0.04,0.96,
2.104,0.65,-0.91,-0.20,0.03,0.04,0.96,
2.107,0.65,-0.91,-0.20,0.02,0.04,0.96,
2.109,0.44,-0.87,-0.30,0.02,0.04,0.96,
2.109,0.44,-0.87,-0.30,0.01,0.04,0.96,
2.111,0.44,-0.87,-0.30,0.00,0.05,0.95,
2.113,0.44,-0.87,-0.30,-0.00,0.05,0.95,
2.114,0.25,-0.82,-0.38,-0.00,0.05,0.95,
2.116,0.25,-0.82,-0.38,-0.01,0.05,0.95,
2.119,0.25,-0.82,-0.38,-0.01,0.05,0.95,
2.119,0.10,-0.75,-0.42,-0.01,0.05,0.95,
2.121,0.10,-0.75,-0.42,-0.01,0.06,0.95,
2.124,0.10,-0.75,-0.42,-0.01,0.06,0.95,
2.124,0.04,-0.72,-0.46,-0.01,0.06,0.95,
2.126,0.04,-0.72,-0.46,-0.00,0.06,0.95,
2.129,0.04,-0.72,-0.46,-0.00,0.06,0.95,
2.129,0.04,-0.70,-0.45,-0.00,0.06,0.95,
2.131,0.04,-0.70,-0.45,0.01,0.06,0.95,
2.133,0.04,-0.70,-0.45,0.01,0.06,0.96,
2.133,0.08,-0.70,-0.43,0.01,0.06,0.96,
2.136,0.08,-0.70,-0.43,0.02,0.06,0.96,
2.138,0.08,-0.70,-0.43,0.02,0.06,0.97,
2.138,0.20,-0.71,-0.36,0.02,0.06,0.97,
2.14,0.20,-0.71,-0.36,0.03,0.06,0.97,
2.143,0.20,-0.71,-0.36,0.03,0.06,0.98,
2.143,0.29,-0.71,-0.28,0.03,0.06,0.98,
2.145,0.29,-0.71,-0.28,0.04,0.06,0.99,
2.148,0.29,-0.71,-0.28,0.05,0.06,0.99,
2.148,0.43,-0.69,-0.16,0.05,0.06,0.99,
2.15,0.43,-0.69,-0.16,0.05,0.05,0.99,
2.153,0.43,-0.69,-0.16,0.06,0.05,1.00,
2.155,0.55,-0.73,-0.04,0.06,0.05,1.00,
2.155,0.55,-0.73,-0.04,0.06,0.04,1.00,
2.158,0.66,-0.83,0.03,0.06,0.04,1.00,
2.158,0.66,-0.83,0.03,0.06,0.03,1.01,
2.16,0.66,-0.83,0.03,0.06,0.03,1.01,
2.164,0.66,-0.83,0.03,0.06,0.02,1.01,
2.164,0.70,-0.96,0.11,0.06,0.02,1.01,
2.165,0.70,-0.96,0.11,0.06,0.02,1.01,
2.167,0.70,-0.96,0.11,0.07,0.02,1.01,
2.168,0.73,-1.07,0.15,0.07,0.02,1.01,
2.17,0.73,-1.07,0.15,0.07,0.01,1.01,
2.172,0.73,-1.07,0.15,0.07,0.02,1.01,
2.173,0.73,-1.14,0.17,0.07,0.02,1.01,
2.18,0.73,-1.14,0.17,0.08,0.02,1.00,
2.181,0.73,-1.14,0.17,0.08,0.02,1.00,
2.182,0.80,-1.16,0.16,0.08,0.02,1.00,
2.182,0.80,-1.16,0.16,0.07,0.02,0.99,
2.182,0.80,-1.16,0.16,0.07,0.02,0.99,
2.182,0.83,-1.14,0.08,0.07,0.02,0.99,
2.185,0.83,-1.14,0.08,0.06,0.03,0.99,
2.187,0.83,-1.14,0.08,0.05,0.03,0.98,
2.188,0.76,-1.10,0.00,0.05,0.03,0.98,
2.198,0.76,-1.10,0.00,0.04,0.04,0.98,
2.198,0.76,-1.10,0.00,0.03,0.04,0.98,
2.198,0.61,-1.01,-0.08,0.03,0.04,0.98,
2.198,0.61,-1.01,-0.08,0.01,0.05,0.97,
2.198,0.61,-1.01,-0.08,-0.00,0.05,0.97,
2.198,0.37,-0.92,-0.15,-0.00,0.05,0.97,
2.199,0.37,-0.92,-0.15,-0.01,0.06,0.97,
2.202,0.37,-0.92,-0.15,-0.03,0.07,0.97,
2.202,0.08,-0.83,-0.19,-0.03,0.07,0.97,
2.204,0.08,-0.83,-0.19,-0.04,0.07,0.96,
2.206,0.08,-0.83,-0.19,-0.05,0.08,0.96,
2.207,-0.20,-0.70,-0.23,-0.05,0.08,0.96,
2.209,-0.20,-0.70,-0.23,-0.06,0.08,0.96,
2.211,-0.20,-0.70,-0.23,-0.06,0.09,0.96,
2.212,-0.41,-0.62,-0.27,-0.06,0.09,0.96,
2.214,-0.41,-0.62,-0.27,-0.07,0.09,0.97,
2.216,-0.41,-0.62,-0.27,-0.07,0.10,0.97,
2.216,-0.57,-0.53,-0.25,-0.07,0.10,0.97,
2.219,-0.57,-0.53,-0.25,-0.06,0.10,0.97,
2.221,-0.57,-0.53,-0.25,-0.06,0.11,0.97,
2.222,-0.64,-0.43,-0.22,-0.06,0.11,0.97,
2.223,-0.64,-0.43,-0.22,-0.05,0.11,0.97,
2.226,-0.64,-0.43,-0.22,-0.04,0.11,0.97,
2.226,-0.57,-0.35,-0.17,-0.04,0.11,0.97,
2.229,-0.57,-0.35,-0.17,-0.02,0.11,0.97,
2.231,-0.57,-0.35,-0.17,-0.01,0.11,0.97,
2.231,-0.40,-0.32,-0.15,-0.01,0.11,0.97,
2.233,-0.40,-0.32,-0.15,0.00,0.10,0.97,
2.236,-0.40,-0.32,-0.15,0.01,0.10,0.97,
2.236,-0.15,-0.35,-0.14,0.01,0.10,0.97,
2.238,-0.15,-0.35,-0.14,0.03,0.09,0.97,
2.241,-0.15,-0.35,-0.14,0.04,0.09,0.97,
2.241,0.11,-0.41,-0.14,0.04,0.09,0.97,
2.243,0.11,-0.41,-0.14,0.06,0.08,0.97,
2.246,0.11,-0.41,-0.14,0.07,0.07,0.97,
2.246,0.40,-0.53,-0.13,0.07,0.07,0.97,
2.248,0.40,-0.53,-0.13,0.08,0.06,0.97,
2.25,0.40,-0.53,-0.13,0.09,0.05,0.97,
2.251,0.63,-0.70,-0.14,0.09,0.05,0.97,
2.253,0.63,-0.70,-0.14,0.10,0.04,0.96,
2.257,0.63,-0.70,-0.14,0.11,0.03,0.96,
2.257,0.86,-0.90,-0.19,0.11,0.03,0.96,
2.258,0.86,-0.90,-0.19,0.11,0.02,0.96,
2.261,1.01,-1.11,-0.24,0.11,0.02,0.96,
2.261,1.01,-1.11,-0.24,0.11,0.02,0.95,
2.263,1.01,-1.11,-0.24,0.11,0.01,0.95,
2.265,1.01,-1.11,-0.24,0.11,0.01,0.95,
2.265,1.05,-1.24,-0.32,0.11,0.01,0.95,
2.268,1.05,-1.24,-0.32,0.10,0.01,0.95,
2.27,1.05,-1.24,-0.32,0.10,0.00,0.94,
2.27,1.04,-1.35,-0.36,0.10,0.00,0.94,
2.273,1.04,-1.35,-0.36,0.09,0.00,0.94,
2.275,1.04,-1.35,-0.36,0.08,0.00,0.94,
2.275,0.95,-1.39,-0.40,0.08,0.00,0.94,
2.278,0.95,-1.39,-0.40,0.06,0.01,0.94,
2.28,0.95,-1.39,-0.40,0.05,0.01,0.94,
2.28,0.75,-1.39,-0.43,0.05,0.01,0.94,
2.282,0.75,-1.39,-0.43,0.04,0.02,0.94,
2.285,0.75,-1.39,-0.43,0.03,0.03,0.94,
2.285,0.53,-1.34,-0.43,0.03,0.03,0.94,
2.287,0.53,-1.34,-0.43,0.01,0.04,0.95,
2.292,0.53,-1.34,-0.43,0.00,0.05,0.95,
2.293,0.27,-1.16,-0.41,0.00,0.05,0.95,
2.293,0.27,-1.16,-0.41,-0.00,0.07,0.95,
2.295,0.27,-1.16,-0.41,-0.01,0.08,0.96,
2.295,0.03,-0.95,-0.34,-0.01,0.08,0.96,
2.297,0.03,-0.95,-0.34,-0.02,0.09,0.96,
2.3,0.03,-0.95,-0.34,-0.02,0.10,0.97,
2.3,-0.11,-0.71,-0.25,-0.02,0.10,0.97,
2.302,-0.11,-0.71,-0.25,-0.02,0.11,0.97,
2.304,-0.11,-0.71,-0.25,-0.03,0.11,0.97,
2.305,-0.23,-0.51,-0.16,-0.03,0.11,0.97,
2.307,-0.23,-0.51,-0.16,-0.03,0.12,0.98,
2.31,-0.23,-0.51,-0.16,-0.04,0.12,0.98,
2.31,-0.32,-0.36,-0.10,-0.04,0.12,0.98,
2.312,-0.32,-0.36,-0.10,-0.04,0.11,0.98,
2.314,-0.32,-0.36,-0.10,-0.04,0.11,0.98,
2.314,-0.40,-0.30,-0.03,-0.04,0.11,0.98,
2.317,-0.40,-0.30,-0.03,-0.03,0.11,0.98,
2.319,-0.40,-0.30,-0.03,-0.03,0.10,0.98,
2.319,-0.41,-0.35,-0.00,-0.03,0.10,0.98,
2.321,-0.41,-0.35,-0.00,-0.02,0.10,0.98,
2.324,-0.41,-0.35,-0.00,-0.01,0.09,0.98,
2.325,-0.34,-0.41,0.01,-0.01,0.09,0.98,
2.327,-0.34,-0.41,0.01,-0.00,0.09,0.98,
2.329,-0.34,-0.41,0.01,0.01,0.08,0.98,
2.33,-0.22,-0.50,0.01,0.01,0.08,0.98,
2.331,-0.22,-0.50,0.01,0.02,0.08,0.98,
2.334,-0.22,-0.50,0.01,0.03,0.07,0.98,
2.334,-0.04,-0.61,-0.01,0.03,0.07,0.98,
2.336,-0.04,-0.61,-0.01,0.03,0.06,0.98,
2.34,-0.04,-0.61,-0.01,0.04,0.06,0.98,
2.34,0.14,-0.72,-0.01,0.04,0.06,0.98,
2.341,0.14,-0.72,-0.01,0.05,0.05,0.98,
2.344,0.14,-0.72,-0.01,0.05,0.04,0.98,
2.344,0.29,-0.86,-0.03,0.05,0.04,0.98,
2.346,0.29,-0.86,-0.03,0.05,0.03,0.97,
2.349,0.29,-0.86,-0.03,0.06,0.03,0.97,
2.349,0.40,-1.00,-0.05,0.06,0.03,0.97,
2.351,0.40,-1.00,-0.05,0.06,0.02,0.98,
2.353,0.40,-1.00,-0.05,0.06,0.02,0.97,
2.354,0.47,-1.13,-0.07,0.06,0.02,0.97,
2.356,0.47,-1.13,-0.07,0.06,0.02,0.97,
2.359,0.51,-1.20,-0.07,0.06,0.02,0.97,
2.359,0.51,-1.20,-0.07,0.06,0.02,0.97,
2.361,0.51,-1.20,-0.07,0.06,0.01,0.97,
2.363,0.51,-1.20,-0.07,0.05,0.01,0.97,
2.364,0.48,-1.26,-0.08,0.05,0.01,0.97,
2.366,0.48,-1.26,-0.08,0.05,0.01,0.97,
2.368,0.48,-1.26,-0.08,0.04,0.01,0.97,
2.369,0.42,-1.30,-0.10,0.04,0.01,0.97,
2.37,0.42,-1.30,-0.10,0.04,0.01,0.97,
2.378,0.42,-1.30,-0.10,0.03,0.02,0.97,
2.379,0.33,-1.30,-0.12,0.03,0.02,0.97,
2.379,0.33,-1.30,-0.12,0.02,0.02,0.97,
2.379,0.33,-1.30,-0.12,0.02,0.03,0.97,
2.38,0.21,-1.25,-0.13,0.02,0.03,0.97,
2.381,0.21,-1.25,-0.13,0.01,0.04,0.96,
2.383,0.21,-1.25,-0.13,0.01,0.04,0.96,
2.383,0.05,-1.15,-0.15,0.01,0.04,0.96,
2.385,0.05,-1.15,-0.15,0.01,0.05,0.96,
2.388,0.05,-1.15,-0.15,0.01,0.06,0.96,
2.388,-0.04,-1.01,-0.17,0.01,0.06,0.96,
2.39,-0.04,-1.01,-0.17,0.01,0.07,0.96,
2.393,-0.04,-1.01,-0.17,0.01,0.07,0.96,
2.394,-0.10,-0.85,-0.17,0.01,0.07,0.96,
2.395,-0.10,-0.85,-0.17,0.01,0.08,0.96,
2.397,-0.10,-0.85,-0.17,0.01,0.08,0.96,
2.398,-0.11,-0.70,-0.16,0.01,0.08,0.96,
2.4,-0.11,-0.70,-0.16,0.01,0.09,0.96,
2.402,-0.11,-0.70,-0.16,0.02,0.09,0.96,
2.403,-0.08,-0.59,-0.18,0.02,0.09,0.96,
2.405,-0.08,-0.59,-0.18,0.02,0.09,0.96,
2.408,-0.08,-0.59,-0.18,0.02,0.09,0.96,
2.408,-0.02,-0.50,-0.20,0.02,0.09,0.96,
2.41,-0.02,-0.50,-0.20,0.02,0.09,0.96,
2.412,-0.02,-0.50,-0.20,0.03,0.08,0.96,
2.413,0.03,-0.50,-0.22,0.03,0.08,0.96,
2.415,0.03,-0.50,-0.22,0.03,0.08,0.96,
2.417,0.03,-0.50,-0.22,0.03,0.07,0.96,
2.417,0.05,-0.55,-0.20,0.03,0.07,0.96,
2.419,0.05,-0.55,-0.20,0.03,0.07,0.96,
2.423,0.05,-0.55,-0.20,0.04,0.06,0.96,
2.423,0.08,-0.65,-0.18,0.04,0.06,0.96,
2.425,0.08,-0.65,-0.18,0.04,0.05,0.96,
2.427,0.08,-0.65,-0.18,0.04,0.05,0.96,
2.428,0.12,-0.75,-0.21,0.04,0.05,0.96,
2.429,0.12,-0.75,-0.21,0.04,0.04,0.95,
2.432,0.12,-0.75,-0.21,0.04,0.04,0.95,
2.432,0.12,-0.87,-0.22,0.04,0.04,0.95,
2.434,0.12,-0.87,-0.22,0.04,0.03,0.95,
2.437,0.12,-0.87,-0.22,0.04,0.03,0.95,
2.437,0.13,-0.97,-0.25,0.04,0.03,0.95,
2.44,0.13,-0.97,-0.25,0.04,0.03,0.94,
2.442,0.13,-0.97,-0.25,0.04,0.03,0.94,
2.442,0.15,-1.04,-0.29,0.04,0.03,0.94,
2.444,0.15,-1.04,-0.29,0.04,0.03,0.94,
2.447,0.15,-1.04,-0.29,0.04,0.03,0.94,
2.447,0.14,-1.05,-0.33,0.04,0.03,0.94,
2.449,0.14,-1.05,-0.33,0.04,0.04,0.94,
2.452,0.14,-1.05,-0.33,0.04,0.04,0.94,
2.452,0.15,-1.02,-0.34,0.04,0.04,0.94,
2.454,0.15,-1.02,-0.34,0.04,0.05,0.94,
2.457,0.15,-1.02,-0.34,0.03,0.05,0.94,
2.457,0.14,-0.94,-0.35,0.03,0.05,0.94,
2.459,0.14,-0.94,-0.35,0.03,0.06,0.94,
2.462,0.14,-0.94,-0.35,0.02,0.06,0.94,
2.462,0.06,-0.84,-0.34,0.02,0.06,0.94,
2.466,0.06,-0.84,-0.34,0.02,0.07,0.94,
2.466,0.06,-0.84,-0.34,0.01,0.07,0.94,
2.467,-0.05,-0.76,-0.32,0.01,0.07,0.94,
2.468,-0.05,-0.76,-0.32,0.01,0.07,0.94,
2.471,-0.05,-0.76,-0.32,0.00,0.08,0.94,
2.471,-0.16,-0.67,-0.32,0.00,0.08,0.94,
2.478,-0.16,-0.67,-0.32,0.00,0.08,0.94,
2.479,-0.16,-0.67,-0.32,-0.00,0.09,0.94,
2.479,-0.26,-0.60,-0.33,-0.00,0.09,0.94,
2.479,-0.26,-0.60,-0.33,-0.00,0.09,0.94,
2.481,-0.26,-0.60,-0.33,-0.00,0.09,0.94,
2.482,-0.32,-0.52,-0.36,-0.00,0.09,0.94,
2.483,-0.32,-0.52,-0.36,-0.00,0.09,0.94,
2.486,-0.32,-0.52,-0.36,0.00,0.09,0.94,
2.486,-0.34,-0.47,-0.35,0.00,0.09,0.94,
2.488,-0.34,-0.47,-0.35,0.00,0.09,0.94,
2.491,-0.34,-0.47,-0.35,0.00,0.09,0.94,
2.491,-0.32,-0.44,-0.32,0.00,0.09,0.94,
2.493,-0.32,-0.44,-0.32,0.01,0.09,0.94,
2.496,-0.32,-0.44,-0.32,0.01,0.08,0.94,
2.496,-0.29,-0.45,-0.32,0.01,0.08,0.94,
2.498,-0.29,-0.45,-0.32,0.01,0.08,0.94,
2.5,-0.29,-0.45,-0.32,0.01,0.08,0.94,
2.5,-0.25,-0.48,-0.31,0.01,0.08,0.94,
2.503,-0.25,-0.48,-0.31,0.02,0.07,0.93,
2.506,-0.25,-0.48,-0.31,0.02,0.07,0.94,
2.507,-0.20,-0.53,-0.34,0.02,0.07,0.94,
2.508,-0.20,-0.53,-0.34,0.02,0.07,0.93,
2.51,-0.20,-0.53,-0.34,0.02,0.07,0.94,
2.51,-0.19,-0.61,-0.37,0.02,0.07,0.94,
2.513,-0.19,-0.61,-0.37,0.02,0.07,0.94,
2.515,-0.19,-0.61,-0.37,0.02,0.07,0.94,
2.515,-0.18,-0.63,-0.37,0.02,0.07,0.94,
2.517,-0.18,-0.63,-0.37,0.02,0.07,0.93,
2.52,-0.18,-0.63,-0.37,0.02,0.07,0.93,
2.52,-0.16,-0.64,-0.35,0.02,0.07,0.93,
2.522,-0.16,-0.64,-0.35,0.01,0.07,0.93,
2.525,-0.16,-0.64,-0.35,0.01,0.07,0.93,
2.526,-0.19,-0.64,-0.38,0.01,0.07,0.93,
2.527,-0.19,-0.64,-0.38,0.00,0.07,0.93,
2.53,-0.19,-0.64,-0.38,0.00,0.07,0.93,
2.53,-0.27,-0.64,-0.37,0.00,0.07,0.93,
2.532,-0.27,-0.64,-0.37,-0.00,0.08,0.93,
2.535,-0.27,-0.64,-0.37,-0.00,0.08,0.94,
2.535,-0.35,-0.60,-0.38,-0.00,0.08,0.94,
2.537,-0.35,-0.60,-0.38,-0.01,0.09,0.94,
2.54,-0.35,-0.60,-0.38,-0.01,0.09,0.94,
2.54,-0.40,-0.52,-0.36,-0.01,0.09,0.94,
2.542,-0.40,-0.52,-0.36,-0.01,0.10,0.94,
2.545,-0.40,-0.52,-0.36,-0.02,0.11,0.94,
2.546,-0.48,-0.40,-0.31,-0.02,0.11,0.94,
2.547,-0.48,-0.40,-0.31,-0.02,0.11,0.94,
2.55,-0.48,-0.40,-0.31,-0.02,0.12,0.94,
2.55,-0.52,-0.26,-0.28,-0.02,0.12,0.94,
2.552,-0.52,-0.26,-0.28,-0.02,0.12,0.94,
2.554,-0.52,-0.26,-0.28,-0.02,0.12,0.94,
2.555,-0.54,-0.16,-0.28,-0.02,0.12,0.94,
2.557,-0.54,-0.16,-0.28,-0.02,0.12,0.94,
2.559,-0.54,-0.16,-0.28,-0.03,0.13,0.93,
2.56,-0.57,-0.09,-0.30,-0.03,0.13,0.93,
2.562,-0.57,-0.09,-0.30,-0.03,0.13,0.93,
2.564,-0.57,-0.09,-0.30,-0.03,0.13,0.93,
2.565,-0.62,-0.05,-0.34,-0.03,0.13,0.93,
2.566,-0.62,-0.05,-0.34,-0.03,0.13,0.93,
2.569,-0.62,-0.05,-0.34,-0.03,0.12,0.93,
2.569,-0.65,-0.03,-0.35,-0.03,0.12,0.93,
2.578,-0.65,-0.03,-0.35,-0.02,0.12,0.93,
2.578,-0.65,-0.03,-0.35,-0.02,0.12,0.93,
2.578,-0.64,-0.06,-0.35,-0.02,0.12,0.93,
2.579,-0.64,-0.06,-0.35,-0.02,0.11,0.93,
2.579,-0.64,-0.06,-0.35,-0.01,0.11,0.93,
2.579,-0.59,-0.10,-0.36,-0.01,0.11,0.93,
2.581,-0.59,-0.10,-0.36,-0.01,0.11,0.93,
2.584,-0.59,-0.10,-0.36,-0.01,0.10,0.93,
2.584,-0.52,-0.16,-0.39,-0.01,0.10,0.93,
2.586,-0.52,-0.16,-0.39,-0.01,0.10,0.93,
2.594,-0.52,-0.16,-0.39,-0.01,0.09,0.93,
2.595,-0.45,-0.24,-0.39,-0.01,0.09,0.93,
2.595,-0.45,-0.24,-0.39,-0.01,0.09,0.93,
2.595,-0.45,-0.24,-0.39,-0.01,0.08,0.93,
2.595,-0.44,-0.34,-0.38,-0.01,0.08,0.93,
2.596,-0.44,-0.34,-0.38,-0.01,0.08,0.94,
2.599,-0.44,-0.34,-0.38,-0.01,0.07,0.94,
2.599,-0.44,-0.44,-0.35,-0.01,0.07,0.94,
2.601,-0.44,-0.44,-0.35,-0.01,0.07,0.94,
2.603,-0.44,-0.44,-0.35,-0.02,0.07,0.94,
2.603,-0.46,-0.52,-0.30,-0.02,0.07,0.94,
2.606,-0.46,-0.52,-0.30,-0.02,0.07,0.94,
2.609,-0.46,-0.52,-0.30,-0.02,0.07,0.94,
2.609,-0.49,-0.60,-0.27,-0.02,0.07,0.94,
2.611,-0.49,-0.60,-0.27,-0.02,0.07,0.94,
2.613,-0.49,-0.60,-0.27,-0.02,0.08,0.95,
2.613,-0.50,-0.59,-0.25,-0.02,0.08,0.95,
2.615,-0.50,-0.59,-0.25,-0.03,0.08,0.95,
2.618,-0.50,-0.59,-0.25,-0.03,0.09,0.95,
2.618,-0.53,-0.52,-0.21,-0.03,0.09,0.95,
2.62,-0.53,-0.52,-0.21,-0.04,0.10,0.95,
2.623,-0.53,-0.52,-0.21,-0.04,0.11,0.95,
2.624,-0.62,-0.39,-0.20,-0.04,0.11,0.95,
2.625,-0.62,-0.39,-0.20,-0.05,0.11,0.95,
2.628,-0.62,-0.39,-0.20,-0.05,0.12,0.94,
2.628,-0.70,-0.23,-0.18,-0.05,0.12,0.94,
2.63,-0.70,-0.23,-0.18,-0.06,0.13,0.94,
2.633,-0.70,-0.23,-0.18,-0.07,0.13,0.94,
2.633,-0.82,-0.08,-0.21,-0.07,0.13,0.94,
2.635,-0.82,-0.08,-0.21,-0.07,0.14,0.94,
2.638,-0.82,-0.08,-0.21,-0.08,0.14,0.93,
2.638,-0.94,0.05,-0.23,-0.08,0.14,0.93,
2.64,-0.94,0.05,-0.23,-0.09,0.14,0.93,
2.643,-0.94,0.05,-0.23,-0.09,0.14,0.93,
2.645,-1.07,0.12,-0.29,-0.09,0.14,0.93,
2.645,-1.07,0.12,-0.29,-0.09,0.14,0.93,
2.647,-1.07,0.12,-0.29,-0.09,0.15,0.93,
2.648,-1.16,0.18,-0.33,-0.09,0.15,0.93,
2.65,-1.16,0.18,-0.33,-0.09,0.14,0.93,
2.652,-1.16,0.18,-0.33,-0.09,0.14,0.92,
2.653,-1.21,0.19,-0.37,-0.09,0.14,0.92,
2.656,-1.21,0.19,-0.37,-0.09,0.14,0.92,
2.657,-1.21,0.19,-0.37,-0.09,0.13,0.92,
2.658,-1.22,0.17,-0.39,-0.09,0.13,0.92,
2.66,-1.22,0.17,-0.39,-0.09,0.13,0.92,
2.662,-1.22,0.17,-0.39,-0.08,0.13,0.93,
2.662,-1.18,0.11,-0.39,-0.08,0.13,0.93,
2.664,-1.18,0.11,-0.39,-0.08,0.12,0.93,
2.667,-1.18,0.11,-0.39,-0.07,0.12,0.93,
2.668,-1.11,0.04,-0.37,-0.07,0.12,0.93,
2.669,-1.11,0.04,-0.37,-0.07,0.12,0.94,
2.672,-1.11,0.04,-0.37,-0.06,0.11,0.94,
2.673,-1.00,-0.02,-0.31,-0.06,0.11,0.94,
2.674,-1.00,-0.02,-0.31,-0.06,0.11,0.94,
2.677,-1.00,-0.02,-0.31,-0.06,0.10,0.95,
2.678,-0.88,-0.08,-0.26,-0.06,0.10,0.95,
2.679,-0.88,-0.08,-0.26,-0.05,0.10,0.96,
2.682,-0.88,-0.08,-0.26,-0.05,0.09,0.96,
2.682,-0.80,-0.18,-0.16,-0.05,0.09,0.96,
2.684,-0.80,-0.18,-0.16,-0.05,0.09,0.97,
2.687,-0.80,-0.18,-0.16,-0.05,0.09,0.97,
2.687,-0.74,-0.26,-0.03,-0.05,0.09,0.97,
2.694,-0.74,-0.26,-0.03,-0.05,0.09,0.98,
2.695,-0.74,-0.26,-0.03,-0.05,0.09,0.98,
2.695,-0.71,-0.32,0.07,-0.05,0.09,0.98,
2.696,-0.71,-0.32,0.07,-0.05,0.09,0.99,
2.696,-0.71,-0.32,0.07,-0.05,0.09,0.99,
2.697,-0.68,-0.32,0.17,-0.05,0.09,0.99,
2.699,-0.68,-0.32,0.17,-0.05,0.09,0.99,
2.701,-0.68,-0.32,0.17,-0.05,0.10,1.00,
2.702,-0.68,-0.29,0.25,-0.05,0.10,1.00,
2.704,-0.68,-0.29,0.25,-0.06,0.10,1.00,
2.706,-0.68,-0.29,0.25,-0.06,0.10,0.99,
2.707,-0.71,-0.23,0.29,-0.06,0.10,0.99,
2.709,-0.71,-0.23,0.29,-0.06,0.11,0.99,
2.711,-0.71,-0.23,0.29,-0.07,0.11,0.99,
2.711,-0.76,-0.18,0.29,-0.07,0.11,0.99,
2.713,-0.76,-0.18,0.29,-0.08,0.11,0.99,
2.716,-0.76,-0.18,0.29,-0.09,0.11,0.98,
2.716,-0.84,-0.09,0.26,-0.09,0.11,0.98,
2.718,-0.84,-0.09,0.26,-0.09,0.12,0.98,
2.722,-0.97,-0.04,0.20,-0.09,0.12,0.98,
2.722,-0.97,-0.04,0.20,-0.10,0.12,0.98,
2.723,-0.97,-0.04,0.20,-0.10,0.12,0.98,
2.726,-0.97,-0.04,0.20,-0.10,0.12,0.97,
2.727,-1.10,0.02,0.14,-0.10,0.12,0.97,
2.728,-1.10,0.02,0.14,-0.10,0.13,0.97,
2.731,-1.10,0.02,0.14,-0.10,0.13,0.97,
2.731,-1.16,0.08,0.08,-0.10,0.13,0.97,
2.733,-1.16,0.08,0.08,-0.10,0.14,0.96,
2.736,-1.16,0.08,0.08,-0.10,0.14,0.96,
2.736,-1.18,0.15,0.03,-0.10,0.14,0.96,
2.738,-1.18,0.15,0.03,-0.10,0.14,0.96,
2.741,-1.18,0.15,0.03,-0.10,0.14,0.96,
2.741,-1.13,0.22,-0.03,-0.10,0.14,0.96,
2.743,-1.13,0.22,-0.03,-0.09,0.14,0.96,
2.745,-1.13,0.22,-0.03,-0.09,0.14,0.96,
2.746,-1.10,0.26,-0.05,-0.09,0.14,0.96,
2.748,-1.10,0.26,-0.05,-0.09,0.13,0.96,
2.75,-1.10,0.26,-0.05,-0.09,0.13,0.96,
2.75,-1.05,0.24,-0.07,-0.09,0.13,0.96,
2.753,-1.05,0.24,-0.07,-0.09,0.13,0.96,
2.755,-1.05,0.24,-0.07,-0.09,0.12,0.96,
2.756,-1.05,0.19,-0.07,-0.09,0.12,0.96,
2.758,-1.05,0.19,-0.07,-0.09,0.12,0.96,
2.76,-1.05,0.19,-0.07,-0.09,0.12,0.96,
2.76,-1.04,0.13,-0.05,-0.09,0.12,0.96,
2.762,-1.04,0.13,-0.05,-0.09,0.12,0.96,
2.765,-1.04,0.13,-0.05,-0.09,0.11,0.97,
2.765,-1.00,0.08,-0.05,-0.09,0.11,0.97,
2.767,-1.00,0.08,-0.05,-0.08,0.11,0.97,
2.77,-1.00,0.08,-0.05,-0.08,0.11,0.97,
2.77,-0.95,0.03,-0.01,-0.08,0.11,0.97,
2.772,-0.95,0.03,-0.01,-0.08,0.11,0.97,
2.775,-0.95,0.03,-0.01,-0.08,0.11,0.98,
2.775,-0.89,0.01,0.03,-0.08,0.11,0.98,
2.777,-0.89,0.01,0.03,-0.08,0.12,0.98,
2.78,-0.89,0.01,0.03,-0.08,0.12,0.98,
2.78,-0.86,0.02,0.09,-0.08,0.12,0.98,
2.782,-0.86,0.02,0.09,-0.08,0.12,0.98,
2.785,-0.86,0.02,0.09,-0.08,0.12,0.98,
2.785,-0.83,0.04,0.15,-0.08,0.12,0.98,
2.787,-0.83,0.04,0.15,-0.08,0.13,0.98,
2.794,-0.83,0.04,0.15,-0.08,0.13,0.99,
2.795,-0.81,0.08,0.17,-0.08,0.13,0.99,
2.795,-0.81,0.08,0.17,-0.08,0.13,0.99,
2.796,-0.81,0.08,0.17,-0.08,0.14,0.99,
2.796,-0.79,0.16,0.19,-0.08,0.14,0.99,
2.797,-0.79,0.16,0.19,-0.09,0.14,0.99,
2.799,-0.79,0.16,0.19,-0.09,0.15,0.99,
2.8,-0.82,0.25,0.23,-0.09,0.15,0.99,
2.802,-0.82,0.25,0.23,-0.10,0.15,0.99,
2.81,-0.90,0.32,0.24,-0.10,0.15,0.99,
2.811,-0.90,0.32,0.24,-0.10,0.15,0.99,
2.812,-0.90,0.32,0.24,-0.10,0.16,0.99,
2.812,-0.90,0.32,0.24,-0.10,0.16,0.99,
2.813,-0.98,0.39,0.26,-0.10,0.16,0.99,
2.813,-0.98,0.39,0.26,-0.11,0.16,0.99,
2.814,-0.98,0.39,0.26,-0.11,0.16,0.99,
2.814,-1.01,0.43,0.24,-0.11,0.16,0.99,
2.816,-1.01,0.43,0.24,-0.11,0.16,0.98,
2.819,-1.01,0.43,0.24,-0.10,0.16,0.98,
2.819,-1.02,0.47,0.20,-0.10,0.16,0.98,
2.821,-1.02,0.47,0.20,-0.10,0.16,0.98,
2.824,-1.02,0.47,0.20,-0.10,0.16,0.98,
2.824,-1.00,0.50,0.15,-0.10,0.16,0.98,
2.826,-1.00,0.50,0.15,-0.10,0.16,0.98,
2.829,-1.00,0.50,0.15,-0.10,0.16,0.98,
2.829,-0.97,0.50,0.10,-0.10,0.16,0.98,
2.831,-0.97,0.50,0.10,-0.09,0.15,0.97,
2.833,-0.97,0.50,0.10,-0.09,0.15,0.97,
2.833,-0.92,0.46,0.08,-0.09,0.15,0.97,
2.836,-0.92,0.46,0.08,-0.09,0.15,0.97,
2.839,-0.92,0.46,0.08,-0.09,0.14,0.97,
2.839,-0.88,0.40,0.03,-0.09,0.14,0.97,
2.841,-0.88,0.40,0.03,-0.09,0.14,0.97,
2.844,-0.83,0.34,0.00,-0.09,0.14,0.97,
2.844,-0.83,0.34,0.00,-0.08,0.14,0.97,
2.846,-0.83,0.34,0.00,-0.08,0.13,0.97,
2.848,-0.83,0.34,0.00,-0.07,0.13,0.97,
2.848,-0.75,0.26,-0.01,-0.07,0.13,0.97,
2.85,-0.75,0.26,-0.01,-0.07,0.13,0.97,
2.854,-0.75,0.26,-0.01,-0.07,0.12,0.97,
2.854,-0.66,0.18,0.00,-0.07,0.12,0.97,
2.856,-0.66,0.18,0.00,-0.07,0.12,0.97,
2.858,-0.66,0.18,0.00,-0.07,0.11,0.97,
2.859,-0.62,0.11,-0.00,-0.07,0.11,0.97,
2.86,-0.62,0.11,-0.00,-0.07,0.11,0.97,
2.863,-0.62,0.11,-0.00,-0.07,0.11,0.98,
2.863,-0.57,0.05,0.02,-0.07,0.11,0.98,
2.865,-0.57,0.05,0.02,-0.07,0.11,0.98,
2.868,-0.57,0.05,0.02,-0.07,0.11,0.99,
2.868,-0.56,-0.01,0.08,-0.07,0.11,0.99,
2.87,-0.56,-0.01,0.08,-0.07,0.11,0.99,
2.877,-0.56,-0.01,0.08,-0.08,0.11,0.99,
2.877,-0.55,-0.03,0.15,-0.08,0.11,0.99,
2.878,-0.55,-0.03,0.15,-0.08,0.11,1.00,
2.878,-0.55,-0.03,0.15,-0.08,0.11,1.00,
2.878,-0.58,-0.04,0.22,-0.08,0.11,1.00,
2.881,-0.58,-0.04,0.22,-0.08,0.11,1.01,
2.882,-0.58,-0.04,0.22,-0.08,0.12,1.01,
2.882,-0.61,-0.03,0.31,-0.08,0.12,1.01,
2.885,-0.61,-0.03,0.31,-0.08,0.12,1.02,
2.889,-0.61,-0.03,0.31,-0.08,0.12,1.02,
2.889,-0.59,0.03,0.41,-0.08,0.12,1.02,
2.89,-0.59,0.03,0.41,-0.07,0.13,1.03,
2.892,-0.59,0.03,0.41,-0.07,0.13,1.03,
2.893,-0.56,0.11,0.51,-0.07,0.13,1.03,
2.895,-0.56,0.11,0.51,-0.07,0.13,1.03,
2.897,-0.56,0.11,0.51,-0.07,0.13,1.03,
2.897,-0.51,0.15,0.57,-0.07,0.13,1.03,
2.899,-0.51,0.15,0.57,-0.07,0.13,1.03,
2.902,-0.51,0.15,0.57,-0.07,0.13,1.03,
2.902,-0.50,0.16,0.61,-0.07,0.13,1.03,
2.904,-0.50,0.16,0.61,-0.07,0.13,1.03,
2.907,-0.50,0.16,0.61,-0.06,0.12,1.03,
2.908,-0.48,0.14,0.62,-0.06,0.12,1.03,
2.909,-0.48,0.14,0.62,-0.06,0.12,1.03,
2.912,-0.48,0.14,0.62,-0.05,0.12,1.02,
2.912,-0.39,0.13,0.58,-0.05,0.12,1.02,
2.914,-0.39,0.13,0.58,-0.05,0.12,1.02,
2.917,-0.39,0.13,0.58,-0.04,0.12,1.01,
2.917,-0.29,0.10,0.52,-0.04,0.12,1.01,
2.919,-0.29,0.10,0.52,-0.04,0.12,1.01,
2.922,-0.29,0.10,0.52,-0.03,0.11,1.00,
2.923,-0.20,0.05,0.41,-0.03,0.11,1.00,
2.924,-0.20,0.05,0.41,-0.03,0.11,1.00,
2.927,-0.20,0.05,0.41,-0.02,0.11,0.99,
2.927,-0.12,0.03,0.32,-0.02,0.11,0.99,
2.929,-0.12,0.03,0.32,-0.02,0.11,0.99,
2.931,-0.12,0.03,0.32,-0.01,0.11,0.98,
2.931,-0.02,-0.01,0.19,-0.01,0.11,0.98,
2.934,-0.02,-0.01,0.19,-0.01,0.10,0.98,
2.936,-0.02,-0.01,0.19,-0.01,0.10,0.98,
2.936,0.06,-0.05,0.12,-0.01,0.10,0.98,
2.939,0.06,-0.05,0.12,-0.01,0.10,0.98,
2.942,0.10,-0.08,0.08,-0.01,0.10,0.98,
2.942,0.10,-0.08,0.08,-0.01,0.10,0.98,
2.944,0.10,-0.08,0.08,-0.02,0.10,0.98,
2.946,0.10,-0.08,0.08,-0.02,0.10,0.98,
2.946,0.10,-0.10,0.04,-0.02,0.10,0.98,
2.948,0.10,-0.10,0.04,-0.02,0.10,0.98,
2.951,0.10,-0.10,0.04,-0.03,0.10,0.98,
2.951,0.05,-0.11,0.05,-0.03,0.10,0.98,
2.954,0.05,-0.11,0.05,-0.03,0.10,0.98,
2.956,0.05,-0.11,0.05,-0.04,0.10,0.98,
2.957,-0.03,-0.13,0.06,-0.04,0.10,0.98,
2.959,-0.03,-0.13,0.06,-0.04,0.10,0.99,
2.961,-0.03,-0.13,0.06,-0.04,0.10,0.99,
2.961,-0.09,-0.13,0.09,-0.04,0.10,0.99,
2.963,-0.09,-0.13,0.09,-0.03,0.10,0.99,
2.966,-0.09,-0.13,0.09,-0.03,0.10,1.00,
2.966,-0.14,-0.13,0.15,-0.03,0.10,1.00,
2.968,-0.14,-0.13,0.15,-0.03,0.11,0.99,
2.977,-0.14,-0.13,0.15,-0.02,0.11,0.99,
2.977,-0.08,-0.10,0.20,-0.02,0.11,0.99,
2.977,-0.08,-0.10,0.20,-0.02,0.11,0.99,
2.978,-0.08,-0.10,0.20,-0.02,0.11,0.99,
2.978,-0.01,-0.04,0.19,-0.02,0.11,0.99,
2.978,-0.01,-0.04,0.19,-0.02,0.11,0.98,
2.98,-0.01,-0.04,0.19,-0.01,0.11,0.98,
2.981,0.04,-0.00,0.15,-0.01,0.11,0.98,
2.983,0.04,-0.00,0.15,-0.01,0.11,0.98,
2.985,0.04,-0.00,0.15,-0.01,0.11,0.98,
2.985,0.08,0.01,0.09,-0.01,0.11,0.98,
2.99,0.08,0.01,0.09,-0.01,0.11,0.97,
2.99,0.08,0.01,0.09,-0.01,0.11,0.97,
2.99,0.13,-0.00,0.04,-0.01,0.11,0.97,
2.993,0.13,-0.00,0.04,-0.01,0.11,0.97,
2.995,0.13,-0.00,0.04,-0.00,0.11,0.97,
2.995,0.15,-0.00,-0.03,-0.00,0.11,0.97,
2.997,0.15,-0.00,-0.03,-0.01,0.12,0.97,
3.0,0.15,-0.00,-0.03,-0.00,0.12,0.97,
3.0,0.18,0.03,-0.06,-0.00,0.12,0.97,
3.002,0.18,0.03,-0.06,-0.00,0.12,0.97,
3.005,0.18,0.03,-0.06,0.00,0.12,0.97,
3.005,0.20,0.07,-0.08,0.00,0.12,0.97,
3.007,0.20,0.07,-0.08,-0.00,0.13,0.97,
3.01,0.20,0.07,-0.08,-0.00,0.13,0.97,
3.01,0.24,0.13,-0.08,-0.00,0.13,0.97,
3.012,0.24,0.13,-0.08,-0.01,0.13,0.97,
3.015,0.24,0.13,-0.08,-0.01,0.13,0.97,
3.015,0.23,0.16,-0.06,-0.01,0.13,0.97,
3.017,0.23,0.16,-0.06,-0.01,0.13,0.98,
3.019,0.23,0.16,-0.06,-0.02,0.13,0.98,
3.019,0.17,0.17,-0.02,-0.02,0.13,0.98,
3.022,0.17,0.17,-0.02,-0.02,0.13,0.98,
3.024,0.17,0.17,-0.02,-0.02,0.13,0.99,
3.025,0.12,0.20,0.05,-0.02,0.13,0.99,
3.027,0.12,0.20,0.05,-0.03,0.13,0.99,
3.029,0.12,0.20,0.05,-0.03,0.13,0.99,
3.03,0.05,0.18,0.12,-0.03,0.13,0.99,
3.032,0.05,0.18,0.12,-0.03,0.13,0.99,
3.034,0.05,0.18,0.12,-0.03,0.13,1.00,
3.035,0.01,0.19,0.16,-0.03,0.13,1.00,
3.038,0.01,0.19,0.16,-0.03,0.14,0.99,
3.039,0.01,0.19,0.16,-0.03,0.14,1.00,
3.04,-0.01,0.19,0.20,-0.03,0.14,1.00,
3.042,-0.01,0.19,0.20,-0.03,0.14,0.99,
3.044,-0.01,0.19,0.20,-0.03,0.14,0.99,
3.045,-0.01,0.22,0.20,-0.03,0.14,0.99,
3.046,-0.01,0.22,0.20,-0.02,0.14,0.99,
3.049,-0.01,0.22,0.20,-0.02,0.14,0.99,
3.049,0.02,0.23,0.19,-0.02,0.14,0.99,
3.051,0.02,0.23,0.19,-0.02,0.14,0.98,
3.054,0.02,0.23,0.19,-0.01,0.14,0.98,
3.055,0.06,0.24,0.15,-0.01,0.14,0.98,
3.056,0.06,0.24,0.15,-0.01,0.15,0.98,
3.059,0.06,0.24,0.15,-0.01,0.15,0.98,
3.059,0.13,0.28,0.08,-0.01,0.15,0.98,
3.061,0.13,0.28,0.08,-0.01,0.15,0.97,
3.064,0.13,0.28,0.08,-0.01,0.15,0.97,
3.064,0.17,0.33,0.04,-0.01,0.15,0.97,
3.066,0.17,0.33,0.04,-0.01,0.15,0.97,
3.069,0.17,0.33,0.04,-0.01,0.15,0.97,
3.069,0.19,0.35,-0.03,-0.01,0.15,0.97,
3.072,0.19,0.35,-0.03,-0.01,0.15,0.97,
3.073,0.19,0.35,-0.03,-0.01,0.14,0.96,
3.074,0.17,0.32,-0.07,-0.01,0.14,0.96,
3.076,0.17,0.32,-0.07,-0.01,0.14,0.96,
3.079,0.17,0.32,-0.07,-0.01,0.14,0.96,
3.079,0.15,0.28,-0.09,-0.01,0.14,0.96,
3.081,0.15,0.28,-0.09,-0.01,0.14,0.96,
3.083,0.15,0.28,-0.09,-0.00,0.14,0.96,
3.084,0.17,0.24,-0.12,-0.00,0.14,0.96,
3.086,0.17,0.24,-0.12,-0.00,0.14,0.96,
3.093,0.17,0.24,-0.12,0.00,0.13,0.96,
3.093,0.22,0.22,-0.12,0.00,0.13,0.96,
3.094,0.22,0.22,-0.12,0.00,0.13,0.97,
3.094,0.22,0.22,-0.12,0.00,0.13,0.97,
3.094,0.27,0.18,-0.09,0.00,0.13,0.97,
3.096,0.27,0.18,-0.09,0.01,0.13,0.97,
3.098,0.27,0.18,-0.09,0.01,0.13,0.98,
3.098,0.30,0.14,-0.06,0.01,0.13,0.98,
3.1,0.30,0.14,-0.06,0.01,0.12,0.98,
3.103,0.30,0.14,-0.06,0.01,0.12,0.98,
3.103,0.37,0.11,-0.00,0.01,0.12,0.98,
3.105,0.37,0.11,-0.00,0.01,0.12,0.98,
3.108,0.37,0.11,-0.00,0.02,0.12,0.98,
3.108,0.40,0.06,0.03,0.02,0.12,0.98,
3.11,0.40,0.06,0.03,0.02,0.12,0.98,
3.113,0.42,0.04,0.08,0.02,0.12,0.98,
3.113,0.42,0.04,0.08,0.02,0.12,0.99,
3.115,0.42,0.04,0.08,0.02,0.12,0.99,
3.117,0.42,0.04,0.08,0.02,0.11,0.99,
3.118,0.44,0.01,0.11,0.02,0.11,0.99,
3.12,0.44,0.01,0.11,0.02,0.11,0.99,
3.122,0.44,0.01,0.11,0.02,0.11,0.99,
3.123,0.47,-0.02,0.12,0.02,0.11,0.99,
3.125,0.47,-0.02,0.12,0.02,0.11,0.98,
3.128,0.47,-0.02,0.12,0.02,0.11,0.94,
3.128,0.47,-0.04,0.11,0.02,0.11,0.94,
3.13,0.47,-0.04,0.11,0.03,0.10,0.88,
3.132,0.47,-0.04,0.11,0.03,0.11,0.87,
3.135,0.50,-0.07,-0.12,0.03,0.11,0.87,
3.135,0.50,-0.07,-0.12,0.03,0.13,0.87,
3.139,0.50,-0.07,-0.12,0.02,0.13,0.88,
3.139,0.55,-0.06,-0.99,0.02,0.13,0.88,
3.139,0.55,-0.06,-0.99,0.01,0.13,0.87,
3.142,0.55,-0.06,-0.99,0.01,0.13,0.87,
3.143,0.54,0.13,-0.97,0.01,0.13,0.87,
3.144,0.54,0.13,-0.97,0.00,0.13,0.87,
3.147,0.54,0.13,-0.97,-0.00,0.13,0.88,
3.147,0.41,0.18,-0.97,-0.00,0.13,0.88,
3.149,0.41,0.18,-0.97,-0.01,0.13,0.89,
3.152,0.41,0.18,-0.97,-0.01,0.13,0.91,
3.152,0.31,0.18,-0.94,-0.01,0.13,0.91,
3.154,0.31,0.18,-0.94,-0.02,0.13,0.93,
3.157,0.31,0.18,-0.94,-0.02,0.13,0.95,
3.157,0.24,0.17,-0.70,-0.02,0.13,0.95,
3.159,0.24,0.17,-0.70,-0.03,0.12,0.97,
3.161,0.24,0.17,-0.70,-0.03,0.12,1.00,
3.162,0.13,0.17,-0.30,-0.03,0.12,1.00,
3.164,0.13,0.17,-0.30,-0.04,0.12,1.02,
3.166,0.13,0.17,-0.30,-0.04,0.12,1.04,
3.167,0.02,0.16,0.16,-0.04,0.12,1.04,
3.169,0.02,0.16,0.16,-0.04,0.12,1.06,
3.171,0.02,0.16,0.16,-0.04,0.11,1.07,
3.172,-0.06,0.14,0.60,-0.04,0.11,1.07,
3.176,-0.06,0.14,0.60,-0.04,0.11,1.09,
3.176,-0.06,0.14,0.60,-0.03,0.11,1.10,
3.176,-0.05,0.07,0.90,-0.03,0.11,1.10,
3.179,-0.05,0.07,0.90,-0.02,0.10,1.11,
3.181,-0.05,0.07,0.90,-0.02,0.10,1.11,
3.181,-0.01,0.01,1.17,-0.02,0.10,1.11,
3.183,-0.01,0.01,1.17,-0.01,0.10,1.11,
3.187,-0.01,0.01,1.17,-0.01,0.10,1.10,
3.187,0.10,-0.04,1.29,-0.01,0.10,1.10,
3.188,0.10,-0.04,1.29,-0.00,0.10,1.09,
3.191,0.10,-0.04,1.29,0.00,0.10,1.08,
3.191,0.21,-0.07,1.26,0.00,0.10,1.08,
3.193,0.21,-0.07,1.26,0.01,0.10,1.07,
3.196,0.21,-0.07,1.26,0.01,0.10,1.06,
3.196,0.28,-0.05,1.11,0.01,0.10,1.06,
3.198,0.28,-0.05,1.11,0.02,0.11,1.04,
3.2,0.28,-0.05,1.11,0.02,0.11,1.03,
3.201,0.36,-0.03,0.86,0.02,0.11,1.03,
3.203,0.36,-0.03,0.86,0.02,0.11,1.02,
3.206,0.36,-0.03,0.86,0.02,0.12,1.00,
3.206,0.42,0.01,0.57,0.02,0.12,1.00,
3.208,0.42,0.01,0.57,0.02,0.12,0.99,
3.21,0.42,0.01,0.57,0.02,0.12,0.98,
3.21,0.42,0.05,0.31,0.02,0.12,0.98,
3.213,0.42,0.05,0.31,0.02,0.12,0.97,
3.215,0.42,0.05,0.31,0.01,0.12,0.96,
3.216,0.39,0.06,0.08,0.01,0.12,0.96,
3.218,0.39,0.06,0.08,0.01,0.12,0.95,
