
time,ax,ay,az,gFx,gFy,gFz,
0.002,0.01,-0.09,0.16,-0.06,0.04,0.98,
0.002,0.01,-0.09,0.16,-0.06,0.04,0.98,
0.002,-0.06,-0.05,0.05,-0.06,0.04,0.98,
0.002,-0.06,-0.05,0.05,-0.06,0.04,0.98,
0.004,-0.06,-0.05,0.05,-0.07,0.04,0.98,
0.004,-0.10,-0.01,0.00,-0.07,0.04,0.98,
0.007,-0.10,-0.01,0.00,-0.06,0.04,0.98,
0.009,-0.10,-0.01,0.00,-0.06,0.04,0.98,
0.009,-0.13,-0.00,-0.02,-0.06,0.04,0.98,
0.012,-0.13,-0.00,-0.02,-0.06,0.04,0.98,
0.014,-0.13,-0.00,-0.02,-0.06,0.04,0.98,
0.015,-0.12,-0.00,-0.02,-0.06,0.04,0.98,
0.016,-0.12,-0.00,-0.02,-0.05,0.04,0.98,
0.019,-0.12,-0.00,-0.02,-0.05,0.04,0.98,
0.019,-0.05,0.02,0.01,-0.05,0.04,0.98,
0.021,-0.05,0.02,0.01,-0.04,0.04,0.98,
0.024,-0.05,0.02,0.01,-0.04,0.04,0.98,
0.024,-0.01,0.03,0.02,-0.04,0.04,0.98,
0.026,-0.01,0.03,0.02,-0.04,0.04,0.98,
0.03,-0.01,0.03,0.02,-0.04,0.04,0.98,
0.031,0.10,0.01,0.04,-0.04,0.04,0.98,
0.032,0.10,0.01,0.04,-0.03,0.04,0.98,
0.034,0.10,0.01,0.04,-0.03,0.03,0.98,
0.034,0.12,-0.02,0.03,-0.03,0.03,0.98,
0.036,0.12,-0.02,0.03,-0.03,0.03,0.98,
0.039,0.12,-0.02,0.03,-0.03,0.03,0.98,
0.039,0.14,-0.06,0.02,-0.03,0.03,0.98,
0.041,0.14,-0.06,0.02,-0.03,0.03,0.98,
0.044,0.14,-0.06,0.02,-0.03,0.03,0.98,
0.044,0.14,-0.08,0.01,-0.03,0.03,0.98,
0.046,0.14,-0.08,0.01,-0.03,0.03,0.98,
0.049,0.14,-0.08,0.01,-0.02,0.03,0.98,
0.049,0.20,-0.07,-0.01,-0.02,0.03,0.98,
0.051,0.20,-0.07,-0.01,-0.02,0.03,0.97,
0.053,0.20,-0.07,-0.01,-0.03,0.03,0.97,
0.053,0.21,-0.07,-0.03,-0.03,0.03,0.97,
0.055,0.21,-0.07,-0.03,-0.03,0.03,0.97,
0.058,0.21,-0.07,-0.03,-0.03,0.03,0.97,
0.058,0.21,-0.08,-0.05,-0.03,0.03,0.97,
0.06,0.21,-0.08,-0.05,-0.03,0.04,0.97,
0.069,0.21,-0.08,-0.05,-0.04,0.04,0.97,
0.069,0.18,-0.07,-0.06,-0.04,0.04,0.97,
0.07,0.18,-0.07,-0.06,-0.04,0.04,0.97,
0.07,0.18,-0.07,-0.06,-0.04,0.04,0.98,
0.07,0.12,-0.05,-0.06,-0.04,0.04,0.98,
0.07,0.12,-0.05,-0.06,-0.04,0.04,0.98,
0.073,0.12,-0.05,-0.06,-0.05,0.04,0.98,
0.073,0.04,-0.04,-0.05,-0.05,0.04,0.98,
0.075,0.04,-0.04,-0.05,-0.05,0.04,0.98,
0.078,0.04,-0.04,-0.05,-0.05,0.04,0.98,
0.078,-0.01,-0.03,-0.04,-0.05,0.04,0.98,
0.08,-0.01,-0.03,-0.04,-0.05,0.04,0.98,
0.083,-0.01,-0.03,-0.04,-0.06,0.05,0.97,
0.083,-0.07,0.02,-0.03,-0.06,0.05,0.97,
0.085,-0.07,0.02,-0.03,-0.06,0.05,0.97,
0.087,-0.07,0.02,-0.03,-0.06,0.05,0.97,
0.088,-0.10,0.06,-0.05,-0.06,0.05,0.97,
0.09,-0.10,0.06,-0.05,-0.06,0.05,0.97,
0.092,-0.10,0.06,-0.05,-0.06,0.05,0.97,
0.092,-0.12,0.09,-0.08,-0.06,0.05,0.97,
0.095,-0.12,0.09,-0.08,-0.06,0.06,0.97,
0.097,-0.12,0.09,-0.08,-0.06,0.06,0.97,
0.098,-0.13,0.12,-0.10,-0.06,0.06,0.97,
0.1,-0.13,0.12,-0.10,-0.06,0.06,0.97,
0.102,-0.13,0.12,-0.10,-0.06,0.06,0.97,
0.102,-0.15,0.15,-0.11,-0.06,0.06,0.97,
0.104,-0.15,0.15,-0.11,-0.06,0.06,0.97,
0.107,-0.15,0.15,-0.11,-0.05,0.06,0.97,
0.107,-0.12,0.16,-0.13,-0.05,0.06,0.97,
0.109,-0.12,0.16,-0.13,-0.05,0.06,0.97,
0.112,-0.12,0.16,-0.13,-0.05,0.06,0.97,
0.113,-0.09,0.18,-0.11,-0.05,0.06,0.97,
0.114,-0.09,0.18,-0.11,-0.05,0.06,0.97,
0.117,-0.09,0.18,-0.11,-0.05,0.05,0.98,
0.117,-0.06,0.16,-0.08,-0.05,0.05,0.98,
0.119,-0.06,0.16,-0.08,-0.04,0.05,0.98,
0.122,-0.06,0.16,-0.08,-0.04,0.05,0.98,
0.122,-0.01,0.10,-0.04,-0.04,0.05,0.98,
0.124,-0.01,0.10,-0.04,-0.04,0.04,0.98,
0.127,-0.01,0.10,-0.04,-0.04,0.04,0.99,
0.127,0.04,0.07,0.01,-0.04,0.04,0.99,
0.129,0.04,0.07,0.01,-0.04,0.04,0.99,
0.132,0.06,0.03,0.07,-0.04,0.04,0.99,
0.132,0.06,0.03,0.07,-0.03,0.04,0.99,
0.134,0.06,0.03,0.07,-0.03,0.04,1.00,
0.137,0.06,0.03,0.07,-0.03,0.04,1.00,
0.137,0.12,-0.01,0.11,-0.03,0.04,1.00,
0.139,0.12,-0.01,0.11,-0.03,0.04,1.00,
0.141,0.12,-0.01,0.11,-0.03,0.04,1.00,
0.142,0.17,-0.04,0.17,-0.03,0.04,1.00,
0.144,0.17,-0.04,0.17,-0.02,0.04,1.01,
0.152,0.17,-0.04,0.17,-0.02,0.04,1.01,
0.152,0.21,-0.04,0.22,-0.02,0.04,1.01,
0.152,0.21,-0.04,0.22,-0.02,0.03,1.01,
0.152,0.21,-0.04,0.22,-0.02,0.03,1.01,
0.152,0.23,-0.06,0.28,-0.02,0.03,1.01,
0.153,0.23,-0.06,0.28,-0.02,0.03,1.01,
0.156,0.23,-0.06,0.28,-0.03,0.03,1.01,
0.156,0.24,-0.08,0.31,-0.03,0.03,1.01,
0.158,0.24,-0.08,0.31,-0.03,0.03,1.01,
0.161,0.24,-0.08,0.31,-0.03,0.03,1.01,
0.162,0.22,-0.09,0.31,-0.03,0.03,1.01,
0.163,0.22,-0.09,0.31,-0.03,0.03,1.01,
0.166,0.16,-0.08,0.30,-0.03,0.03,1.01,
0.166,0.16,-0.08,0.30,-0.04,0.04,1.01,
0.168,0.16,-0.08,0.30,-0.04,0.04,1.01,
0.171,0.16,-0.08,0.30,-0.04,0.04,1.00,
0.171,0.11,-0.08,0.27,-0.04,0.04,1.00,
0.173,0.11,-0.08,0.27,-0.04,0.04,1.00,
0.176,0.11,-0.08,0.27,-0.05,0.04,1.00,
0.176,0.05,-0.06,0.23,-0.05,0.04,1.00,
0.178,0.05,-0.06,0.23,-0.05,0.04,1.00,
0.181,0.05,-0.06,0.23,-0.05,0.04,1.00,
0.181,0.01,-0.03,0.16,-0.05,0.04,1.00,
0.183,0.01,-0.03,0.16,-0.06,0.04,0.99,
0.186,0.01,-0.03,0.16,-0.06,0.04,0.99,
0.186,-0.05,0.01,0.14,-0.06,0.04,0.99,
0.188,-0.05,0.01,0.14,-0.06,0.05,0.99,
0.19,-0.05,0.01,0.14,-0.06,0.05,0.99,
0.191,-0.11,0.02,0.10,-0.06,0.05,0.99,
0.193,-0.11,0.02,0.10,-0.06,0.05,0.98,
0.195,-0.11,0.02,0.10,-0.06,0.05,0.98,
0.196,-0.15,0.04,0.06,-0.06,0.05,0.98,
0.198,-0.15,0.04,0.06,-0.06,0.05,0.98,
0.2,-0.15,0.04,0.06,-0.06,0.05,0.98,
0.201,-0.18,0.05,0.01,-0.06,0.05,0.98,
0.203,-0.18,0.05,0.01,-0.06,0.05,0.98,
0.205,-0.18,0.05,0.01,-0.06,0.05,0.98,
0.205,-0.18,0.05,0.00,-0.06,0.05,0.98,
0.207,-0.18,0.05,0.00,-0.06,0.05,0.98,
0.21,-0.18,0.05,0.00,-0.06,0.05,0.98,
0.21,-0.16,0.07,-0.02,-0.06,0.05,0.98,
0.212,-0.16,0.07,-0.02,-0.05,0.05,0.97,
0.215,-0.16,0.07,-0.02,-0.05,0.05,0.98,
0.215,-0.13,0.05,-0.05,-0.05,0.05,0.98,
0.217,-0.13,0.05,-0.05,-0.05,0.05,0.97,
0.22,-0.13,0.05,-0.05,-0.05,0.05,0.97,
0.22,-0.10,0.06,-0.06,-0.05,0.05,0.97,
0.222,-0.10,0.06,-0.06,-0.05,0.04,0.97,
0.225,-0.10,0.06,-0.06,-0.05,0.04,0.97,
0.225,-0.05,0.03,-0.08,-0.05,0.04,0.97,
0.227,-0.05,0.03,-0.08,-0.05,0.04,0.97,
0.23,-0.05,0.03,-0.08,-0.05,0.04,0.97,
0.23,-0.03,0.00,-0.09,-0.05,0.04,0.97,
0.232,-0.03,0.00,-0.09,-0.04,0.04,0.97,
0.235,-0.03,0.00,-0.09,-0.04,0.04,0.97,
0.235,-0.02,-0.03,-0.12,-0.04,0.04,0.97,
0.237,-0.02,-0.03,-0.12,-0.04,0.04,0.96,
0.239,-0.02,-0.03,-0.12,-0.04,0.04,0.96,
0.24,0.03,-0.06,-0.13,-0.04,0.04,0.96,
0.242,0.03,-0.06,-0.13,-0.04,0.04,0.96,
0.252,0.03,-0.06,-0.13,-0.04,0.04,0.96,
0.253,0.05,-0.05,-0.16,-0.04,0.04,0.96,
0.253,0.05,-0.05,-0.16,-0.04,0.04,0.96,
0.253,0.05,-0.05,-0.16,-0.04,0.04,0.96,
0.253,0.06,-0.06,-0.18,-0.04,0.04,0.96,
0.253,0.06,-0.06,-0.18,-0.04,0.04,0.96,
0.254,0.06,-0.06,-0.18,-0.04,0.04,0.96,
0.254,0.05,-0.05,-0.18,-0.04,0.04,0.96,
0.256,0.05,-0.05,-0.18,-0.04,0.04,0.96,
0.259,0.05,-0.05,-0.18,-0.05,0.04,0.96,
0.259,0.02,-0.06,-0.19,-0.05,0.04,0.96,
0.261,0.02,-0.06,-0.19,-0.05,0.04,0.96,
0.264,0.02,-0.06,-0.19,-0.05,0.04,0.96,
0.264,-0.02,-0.07,-0.17,-0.05,0.04,0.96,
0.266,-0.02,-0.07,-0.17,-0.05,0.04,0.96,
0.269,-0.02,-0.07,-0.17,-0.05,0.04,0.97,
0.269,-0.04,-0.06,-0.16,-0.05,0.04,0.97,
0.271,-0.04,-0.06,-0.16,-0.05,0.04,0.97,
0.274,-0.04,-0.06,-0.16,-0.06,0.04,0.97,
0.274,-0.08,-0.07,-0.13,-0.06,0.04,0.97,
0.276,-0.08,-0.07,-0.13,-0.06,0.04,0.97,
0.279,-0.08,-0.07,-0.13,-0.06,0.04,0.97,
0.279,-0.12,-0.05,-0.10,-0.06,0.04,0.97,
0.281,-0.12,-0.05,-0.10,-0.06,0.04,0.98,
0.283,-0.12,-0.05,-0.10,-0.06,0.04,0.98,
0.284,-0.15,-0.02,-0.07,-0.06,0.04,0.98,
0.286,-0.15,-0.02,-0.07,-0.06,0.04,0.98,
0.289,-0.15,-0.02,-0.07,-0.06,0.05,0.98,
0.289,-0.18,0.00,-0.04,-0.06,0.05,0.98,
0.291,-0.18,0.00,-0.04,-0.07,0.05,0.98,
0.293,-0.18,0.00,-0.04,-0.07,0.05,0.97,
0.294,-0.22,0.01,-0.03,-0.07,0.05,0.97,
0.296,-0.22,0.01,-0.03,-0.07,0.05,0.97,
0.298,-0.22,0.01,-0.03,-0.07,0.05,0.97,
0.299,-0.26,0.03,-0.03,-0.07,0.05,0.97,
0.301,-0.26,0.03,-0.03,-0.07,0.05,0.97,
0.303,-0.26,0.03,-0.03,-0.07,0.05,0.97,
0.303,-0.28,0.04,-0.05,-0.07,0.05,0.97,
0.305,-0.28,0.04,-0.05,-0.07,0.05,0.97,
0.308,-0.28,0.04,-0.05,-0.07,0.05,0.97,
0.308,-0.29,0.05,-0.06,-0.07,0.05,0.97,
0.312,-0.29,0.05,-0.06,-0.07,0.05,0.97,
0.313,-0.29,0.05,-0.06,-0.07,0.05,0.97,
0.314,-0.26,0.04,-0.08,-0.07,0.05,0.97,
0.315,-0.26,0.04,-0.08,-0.07,0.05,0.97,
0.318,-0.26,0.04,-0.08,-0.07,0.05,0.97,
0.318,-0.30,0.05,-0.12,-0.07,0.05,0.97,
0.32,-0.30,0.05,-0.12,-0.08,0.05,0.97,
0.323,-0.30,0.05,-0.12,-0.07,0.05,0.96,
0.323,-0.30,0.05,-0.12,-0.07,0.05,0.96,
0.325,-0.30,0.05,-0.12,-0.07,0.05,0.96,
0.327,-0.30,0.05,-0.12,-0.07,0.05,0.97,
0.328,-0.30,0.05,-0.14,-0.07,0.05,0.97,
0.33,-0.30,0.05,-0.14,-0.08,0.05,0.97,
0.332,-0.30,0.05,-0.14,-0.08,0.05,0.97,
0.333,-0.29,0.04,-0.14,-0.08,0.05,0.97,
0.335,-0.29,0.04,-0.14,-0.08,0.05,0.97,
0.337,-0.29,0.04,-0.14,-0.08,0.05,0.97,
0.337,-0.31,0.03,-0.12,-0.08,0.05,0.97,
0.34,-0.31,0.03,-0.12,-0.08,0.05,0.97,
0.342,-0.31,0.03,-0.12,-0.08,0.04,0.98,
0.343,-0.34,0.02,-0.06,-0.08,0.04,0.98,
0.345,-0.34,0.02,-0.06,-0.08,0.04,0.98,
0.347,-0.34,0.02,-0.06,-0.08,0.04,0.98,
0.348,-0.35,-0.02,-0.04,-0.08,0.04,0.98,
0.349,-0.35,-0.02,-0.04,-0.08,0.04,0.98,
0.352,-0.35,-0.02,-0.04,-0.08,0.04,0.98,
0.352,-0.37,-0.06,0.02,-0.08,0.04,0.98,
0.354,-0.37,-0.06,0.02,-0.08,0.04,0.99,
0.357,-0.37,-0.06,0.02,-0.08,0.04,0.99,
0.357,-0.35,-0.08,0.05,-0.08,0.04,0.99,
0.359,-0.35,-0.08,0.05,-0.08,0.04,0.99,
0.364,-0.35,-0.08,0.05,-0.09,0.04,0.99,
0.364,-0.38,-0.09,0.09,-0.09,0.04,0.99,
0.364,-0.38,-0.09,0.09,-0.09,0.03,0.99,
0.367,-0.38,-0.09,0.09,-0.10,0.03,0.99,
0.367,-0.40,-0.09,0.13,-0.10,0.03,0.99,
0.369,-0.40,-0.09,0.13,-0.10,0.03,1.00,
0.372,-0.40,-0.09,0.13,-0.10,0.03,1.00,
0.372,-0.46,-0.12,0.14,-0.10,0.03,1.00,
0.374,-0.46,-0.12,0.14,-0.10,0.03,1.00,
0.376,-0.46,-0.12,0.14,-0.11,0.03,1.00,
0.377,-0.52,-0.12,0.16,-0.11,0.03,1.00,
0.379,-0.52,-0.12,0.16,-0.11,0.03,1.00,
0.381,-0.52,-0.12,0.16,-0.11,0.04,0.99,
0.382,-0.56,-0.11,0.19,-0.11,0.04,0.99,
0.384,-0.56,-0.11,0.19,-0.11,0.04,0.99,
0.386,-0.56,-0.11,0.19,-0.11,0.04,0.99,
0.386,-0.60,-0.10,0.15,-0.11,0.04,0.99,
0.389,-0.60,-0.10,0.15,-0.11,0.04,0.99,
0.391,-0.60,-0.10,0.15,-0.11,0.04,0.99,
0.392,-0.61,-0.06,0.11,-0.11,0.04,0.99,
0.394,-0.61,-0.06,0.11,-0.11,0.04,0.99,
0.396,-0.61,-0.06,0.11,-0.12,0.05,0.98,
0.396,-0.66,-0.03,0.08,-0.12,0.05,0.98,
0.398,-0.66,-0.03,0.08,-0.12,0.05,0.98,
0.401,-0.66,-0.03,0.08,-0.12,0.05,0.98,
0.401,-0.67,-0.01,0.05,-0.12,0.05,0.98,
0.403,-0.67,-0.01,0.05,-0.12,0.05,0.98,
0.406,-0.67,-0.01,0.05,-0.12,0.05,0.98,
0.406,-0.68,0.02,0.01,-0.12,0.05,0.98,
0.408,-0.68,0.02,0.01,-0.12,0.05,0.98,
0.411,-0.68,0.02,0.01,-0.12,0.05,0.98,
0.411,-0.70,0.04,-0.02,-0.12,0.05,0.98,
0.413,-0.70,0.04,-0.02,-0.12,0.05,0.97,
0.416,-0.70,0.04,-0.02,-0.12,0.05,0.97,
0.417,-0.69,0.08,-0.04,-0.12,0.05,0.97,
0.418,-0.69,0.08,-0.04,-0.12,0.05,0.97,
0.421,-0.69,0.08,-0.04,-0.12,0.05,0.97,
0.421,-0.69,0.09,-0.05,-0.12,0.05,0.97,
0.423,-0.69,0.09,-0.05,-0.12,0.05,0.98,
0.426,-0.69,0.09,-0.05,-0.12,0.05,0.98,
0.426,-0.69,0.05,-0.06,-0.12,0.05,0.98,
0.428,-0.69,0.05,-0.06,-0.12,0.04,0.98,
0.431,-0.69,0.05,-0.06,-0.11,0.04,0.97,
0.431,-0.69,0.01,-0.04,-0.11,0.04,0.97,
0.433,-0.69,0.01,-0.04,-0.11,0.04,0.97,
0.435,-0.69,0.01,-0.04,-0.11,0.04,0.98,
0.435,-0.67,-0.03,-0.04,-0.11,0.04,0.98,
0.437,-0.67,-0.03,-0.04,-0.11,0.04,0.98,
0.44,-0.67,-0.03,-0.04,-0.11,0.03,0.98,
0.44,-0.63,-0.06,-0.05,-0.11,0.03,0.98,
0.442,-0.63,-0.06,-0.05,-0.11,0.03,0.97,
0.447,-0.63,-0.06,-0.05,-0.11,0.03,0.98,
0.447,-0.60,-0.13,-0.04,-0.11,0.03,0.98,
0.447,-0.60,-0.13,-0.04,-0.11,0.02,0.98,
0.45,-0.60,-0.13,-0.04,-0.11,0.02,0.97,
0.45,-0.58,-0.20,-0.05,-0.11,0.02,0.97,
0.452,-0.58,-0.20,-0.05,-0.11,0.02,0.97,
0.455,-0.58,-0.20,-0.05,-0.11,0.01,0.97,
0.455,-0.59,-0.26,-0.05,-0.11,0.01,0.97,
0.457,-0.59,-0.26,-0.05,-0.11,0.01,0.97,
0.461,-0.59,-0.26,-0.05,-0.11,0.02,0.97,
0.461,-0.60,-0.30,-0.06,-0.11,0.02,0.97,
0.462,-0.60,-0.30,-0.06,-0.11,0.02,0.97,
0.465,-0.60,-0.30,-0.06,-0.11,0.02,0.97,
0.465,-0.61,-0.32,-0.08,-0.11,0.02,0.97,
0.467,-0.61,-0.32,-0.08,-0.11,0.02,0.97,
0.469,-0.61,-0.32,-0.08,-0.12,0.01,0.97,
0.47,-0.62,-0.30,-0.10,-0.12,0.01,0.97,
0.472,-0.62,-0.30,-0.10,-0.12,0.01,0.97,
0.474,-0.62,-0.30,-0.10,-0.13,0.01,0.97,
0.475,-0.66,-0.33,-0.10,-0.13,0.01,0.97,
0.477,-0.66,-0.33,-0.10,-0.13,0.00,0.96,
0.479,-0.66,-0.33,-0.10,-0.13,0.00,0.96,
0.48,-0.74,-0.39,-0.12,-0.13,0.00,0.96,
0.482,-0.74,-0.39,-0.12,-0.13,0.00,0.96,
0.484,-0.74,-0.39,-0.12,-0.13,0.00,0.96,
0.484,-0.79,-0.43,-0.17,-0.13,0.00,0.96,
0.486,-0.79,-0.43,-0.17,-0.13,0.00,0.95,
0.489,-0.79,-0.43,-0.17,-0.13,0.00,0.95,
0.489,-0.81,-0.45,-0.21,-0.13,0.00,0.95,
0.491,-0.81,-0.45,-0.21,-0.13,0.01,0.95,
0.494,-0.81,-0.45,-0.21,-0.13,0.01,0.95,
0.497,-0.81,-0.44,-0.26,-0.13,0.01,0.95,
0.497,-0.81,-0.44,-0.26,-0.13,0.01,0.94,
0.499,-0.81,-0.44,-0.26,-0.13,0.01,0.94,
0.499,-0.79,-0.40,-0.29,-0.13,0.01,0.94,
0.501,-0.79,-0.40,-0.29,-0.13,0.01,0.94,
0.504,-0.79,-0.40,-0.29,-0.14,0.01,0.94,
0.504,-0.80,-0.39,-0.33,-0.14,0.01,0.94,
0.506,-0.80,-0.39,-0.33,-0.14,0.00,0.94,
0.509,-0.80,-0.39,-0.33,-0.14,0.00,0.94,
0.509,-0.82,-0.41,-0.33,-0.14,0.00,0.94,
0.511,-0.82,-0.41,-0.33,-0.14,-0.00,0.94,
0.514,-0.82,-0.41,-0.33,-0.13,-0.01,0.94,
0.514,-0.83,-0.45,-0.33,-0.13,-0.01,0.94,
0.516,-0.83,-0.45,-0.33,-0.13,-0.01,0.94,
0.518,-0.83,-0.45,-0.33,-0.13,-0.01,0.94,
0.518,-0.82,-0.51,-0.35,-0.13,-0.01,0.94,
0.521,-0.82,-0.51,-0.35,-0.13,-0.00,0.94,
0.523,-0.82,-0.51,-0.35,-0.13,-0.00,0.94,
0.523,-0.79,-0.52,-0.34,-0.13,-0.00,0.94,
0.526,-0.79,-0.52,-0.34,-0.13,-0.00,0.94,
0.528,-0.79,-0.52,-0.34,-0.13,-0.00,0.94,
0.529,-0.78,-0.52,-0.35,-0.13,-0.00,0.94,
0.53,-0.78,-0.52,-0.35,-0.13,-0.00,0.94,
0.533,-0.78,-0.52,-0.35,-0.13,0.00,0.94,
0.533,-0.73,-0.49,-0.34,-0.13,0.00,0.94,
0.535,-0.73,-0.49,-0.34,-0.13,0.00,0.95,
0.538,-0.73,-0.49,-0.34,-0.13,0.01,0.95,
0.538,-0.71,-0.48,-0.33,-0.13,0.01,0.95,
0.54,-0.71,-0.48,-0.33,-0.13,0.01,0.95,
0.548,-0.71,-0.48,-0.33,-0.13,0.01,0.95,
0.549,-0.71,-0.43,-0.29,-0.13,0.01,0.95,
0.549,-0.71,-0.43,-0.29,-0.13,0.01,0.95,
0.549,-0.71,-0.43,-0.29,-0.13,0.01,0.95,
0.549,-0.72,-0.37,-0.26,-0.13,0.01,0.95,
0.55,-0.72,-0.37,-0.26,-0.13,0.02,0.95,
0.553,-0.72,-0.37,-0.26,-0.13,0.02,0.95,
0.553,-0.73,-0.34,-0.23,-0.13,0.02,0.95,
0.555,-0.73,-0.34,-0.23,-0.13,0.02,0.95,
0.558,-0.73,-0.34,-0.23,-0.13,0.02,0.95,
0.558,-0.75,-0.30,-0.21,-0.13,0.02,0.95,
0.561,-0.75,-0.30,-0.21,-0.13,0.02,0.96,
0.563,-0.75,-0.30,-0.21,-0.13,0.02,0.95,
0.563,-0.72,-0.29,-0.20,-0.13,0.02,0.95,
0.565,-0.72,-0.29,-0.20,-0.13,0.02,0.95,
0.567,-0.72,-0.29,-0.20,-0.13,0.02,0.95,
0.568,-0.72,-0.29,-0.20,-0.13,0.02,0.95,
0.57,-0.72,-0.29,-0.20,-0.13,0.01,0.95,
0.572,-0.72,-0.29,-0.20,-0.13,0.01,0.95,
0.572,-0.69,-0.32,-0.23,-0.13,0.01,0.95,
0.575,-0.69,-0.32,-0.23,-0.13,0.01,0.95,
0.577,-0.69,-0.32,-0.23,-0.12,0.01,0.94,
0.578,-0.67,-0.35,-0.24,-0.12,0.01,0.94,
0.58,-0.67,-0.35,-0.24,-0.12,0.01,0.94,
0.582,-0.67,-0.35,-0.24,-0.12,0.00,0.94,
0.583,-0.65,-0.40,-0.27,-0.12,0.00,0.94,
0.585,-0.65,-0.40,-0.27,-0.11,0.00,0.93,
0.587,-0.65,-0.40,-0.27,-0.11,0.00,0.92,
0.587,-0.59,-0.45,-0.34,-0.11,0.00,0.92,
0.589,-0.59,-0.45,-0.34,-0.11,0.01,0.92,
0.592,-0.59,-0.45,-0.34,-0.10,0.01,0.91,
0.592,-0.51,-0.46,-0.44,-0.10,0.01,0.91,
0.594,-0.51,-0.46,-0.44,-0.10,0.01,0.91,
0.597,-0.51,-0.46,-0.44,-0.10,0.01,0.91,
0.597,-0.43,-0.43,-0.54,-0.10,0.01,0.91,
0.6,-0.43,-0.43,-0.54,-0.10,0.01,0.90,
0.602,-0.43,-0.43,-0.54,-0.10,0.01,0.90,
0.602,-0.37,-0.40,-0.63,-0.10,0.01,0.90,
0.604,-0.37,-0.40,-0.63,-0.10,0.01,0.89,
0.607,-0.37,-0.40,-0.63,-0.10,0.02,0.89,
0.607,-0.36,-0.38,-0.71,-0.10,0.02,0.89,
0.609,-0.36,-0.38,-0.71,-0.09,0.02,0.89,
0.612,-0.36,-0.38,-0.71,-0.09,0.02,0.88,
0.612,-0.35,-0.37,-0.78,-0.09,0.02,0.88,
0.614,-0.35,-0.37,-0.78,-0.09,0.02,0.88,
0.616,-0.35,-0.37,-0.78,-0.10,0.02,0.88,
0.617,-0.30,-0.32,-0.85,-0.10,0.02,0.88,
0.619,-0.30,-0.32,-0.85,-0.10,0.03,0.87,
0.621,-0.30,-0.32,-0.85,-0.10,0.03,0.87,
0.621,-0.29,-0.30,-0.90,-0.10,0.03,0.87,
0.624,-0.29,-0.30,-0.90,-0.10,0.02,0.87,
0.627,-0.29,-0.30,-0.90,-0.10,0.02,0.87,
0.627,-0.31,-0.27,-0.94,-0.10,0.02,0.87,
0.629,-0.31,-0.27,-0.94,-0.10,0.02,0.87,
0.631,-0.30,-0.29,-0.97,-0.10,0.02,0.87,
0.632,-0.30,-0.29,-0.97,-0.10,0.02,0.87,
0.633,-0.30,-0.29,-0.97,-0.10,0.02,0.88,
0.636,-0.30,-0.29,-0.97,-0.09,0.01,0.88,
0.636,-0.29,-0.32,-0.92,-0.09,0.01,0.88,
0.638,-0.29,-0.32,-0.92,-0.10,0.01,0.88,
0.641,-0.29,-0.32,-0.92,-0.09,0.01,0.89,
0.641,-0.27,-0.37,-0.87,-0.09,0.01,0.89,
0.644,-0.27,-0.37,-0.87,-0.09,0.00,0.89,
0.646,-0.27,-0.37,-0.87,-0.09,-0.00,0.90,
0.646,-0.25,-0.43,-0.79,-0.09,-0.00,0.90,
0.648,-0.25,-0.43,-0.79,-0.09,-0.01,0.90,
0.651,-0.25,-0.43,-0.79,-0.09,-0.01,0.90,
0.651,-0.19,-0.50,-0.70,-0.09,-0.01,0.90,
0.653,-0.19,-0.50,-0.70,-0.08,-0.01,0.91,
0.656,-0.19,-0.50,-0.70,-0.08,-0.02,0.91,
0.656,-0.16,-0.59,-0.61,-0.08,-0.02,0.91,
0.658,-0.16,-0.59,-0.61,-0.07,-0.02,0.91,
0.668,-0.16,-0.59,-0.61,-0.07,-0.02,0.92,
0.668,-0.10,-0.66,-0.51,-0.07,-0.02,0.92,
0.668,-0.10,-0.66,-0.51,-0.06,-0.02,0.92,
0.669,-0.10,-0.66,-0.51,-0.05,-0.02,0.92,
0.669,0.01,-0.71,-0.46,-0.05,-0.02,0.92,
0.669,0.01,-0.71,-0.46,-0.04,-0.02,0.92,
0.67,0.01,-0.71,-0.46,-0.03,-0.02,0.92,
0.67,0.15,-0.73,-0.43,-0.03,-0.02,0.92,
0.672,0.15,-0.73,-0.43,-0.03,-0.02,0.92,
0.675,0.15,-0.73,-0.43,-0.02,-0.02,0.92,
0.675,0.33,-0.70,-0.43,-0.02,-0.02,0.92,
0.683,0.33,-0.70,-0.43,-0.01,-0.01,0.91,
0.683,0.48,-0.68,-0.44,-0.01,-0.01,0.91,
0.683,0.48,-0.68,-0.44,-0.01,-0.02,0.91,
0.683,0.48,-0.68,-0.44,-0.01,-0.01,0.91,
0.685,0.48,-0.68,-0.44,-0.01,-0.01,0.91,
0.685,0.59,-0.62,-0.47,-0.01,-0.01,0.91,
0.687,0.59,-0.62,-0.47,-0.01,-0.01,0.90,
0.69,0.59,-0.62,-0.47,-0.00,-0.00,0.90,
0.69,0.63,-0.58,-0.51,-0.00,-0.00,0.90,
0.692,0.63,-0.58,-0.51,0.00,-0.00,0.90,
0.695,0.63,-0.58,-0.51,-0.00,0.00,0.90,
0.695,0.67,-0.51,-0.55,-0.00,0.00,0.90,
0.697,0.67,-0.51,-0.55,-0.00,0.01,0.90,
0.7,0.67,-0.51,-0.55,-0.01,0.01,0.90,
0.7,0.70,-0.46,-0.57,-0.01,0.01,0.90,
0.702,0.70,-0.46,-0.57,-0.01,0.01,0.90,
0.705,0.70,-0.46,-0.57,-0.01,0.01,0.90,
0.705,0.66,-0.39,-0.58,-0.01,0.01,0.90,
0.707,0.66,-0.39,-0.58,-0.01,0.01,0.90,
0.71,0.66,-0.39,-0.58,-0.02,0.01,0.90,
0.71,0.60,-0.35,-0.56,-0.02,0.01,0.90,
0.712,0.60,-0.35,-0.56,-0.02,0.01,0.91,
0.715,0.60,-0.35,-0.56,-0.03,0.02,0.91,
0.715,0.54,-0.32,-0.53,-0.03,0.02,0.91,
0.717,0.54,-0.32,-0.53,-0.03,0.02,0.92,
0.719,0.54,-0.32,-0.53,-0.04,0.02,0.92,
0.719,0.48,-0.28,-0.47,-0.04,0.02,0.92,
0.721,0.48,-0.28,-0.47,-0.04,0.02,0.93,
0.724,0.48,-0.28,-0.47,-0.04,0.03,0.93,
0.724,0.37,-0.22,-0.38,-0.04,0.03,0.93,
0.727,0.37,-0.22,-0.38,-0.05,0.03,0.94,
0.729,0.37,-0.22,-0.38,-0.05,0.03,0.94,
0.729,0.31,-0.18,-0.26,-0.05,0.03,0.94,
0.731,0.31,-0.18,-0.26,-0.05,0.03,0.95,
0.734,0.31,-0.18,-0.26,-0.06,0.03,0.95,
0.734,0.26,-0.12,-0.15,-0.06,0.03,0.95,
0.736,0.26,-0.12,-0.15,-0.06,0.03,0.96,
0.739,0.26,-0.12,-0.15,-0.06,0.04,0.96,
0.739,0.21,-0.08,-0.06,-0.06,0.04,0.96,
0.741,0.21,-0.08,-0.06,-0.07,0.03,0.96,
0.744,0.21,-0.08,-0.06,-0.07,0.03,0.96,
0.744,0.14,-0.07,0.03,-0.07,0.03,0.96,
0.746,0.14,-0.07,0.03,-0.07,0.03,0.96,
0.749,0.14,-0.07,0.03,-0.06,0.03,0.96,
0.749,0.11,-0.10,0.04,-0.06,0.03,0.96,
0.751,0.11,-0.10,0.04,-0.06,0.03,0.96,
0.754,0.11,-0.10,0.04,-0.06,0.03,0.96,
0.754,0.13,-0.10,0.05,-0.06,0.03,0.96,
0.756,0.13,-0.10,0.05,-0.05,0.03,0.96,
0.758,0.13,-0.10,0.05,-0.05,0.03,0.95,
0.759,0.18,-0.10,0.03,-0.05,0.03,0.95,
0.765,0.18,-0.10,0.03,-0.04,0.03,0.95,
0.765,0.18,-0.10,0.03,-0.04,0.03,0.95,
0.766,0.29,-0.09,-0.01,-0.04,0.03,0.95,
0.766,0.29,-0.09,-0.01,-0.03,0.03,0.94,
0.768,0.29,-0.09,-0.01,-0.02,0.03,0.94,
0.769,0.40,-0.11,-0.09,-0.02,0.03,0.94,
0.771,0.40,-0.11,-0.09,-0.01,0.03,0.94,
0.773,0.40,-0.11,-0.09,-0.01,0.03,0.93,
0.773,0.56,-0.12,-0.13,-0.01,0.03,0.93,
0.775,0.56,-0.12,-0.13,-0.01,0.02,0.94,
0.778,0.56,-0.12,-0.13,0.00,0.02,0.94,
0.778,0.68,-0.14,-0.19,0.00,0.02,0.94,
0.78,0.68,-0.14,-0.19,0.00,0.02,0.93,
0.783,0.68,-0.14,-0.19,0.01,0.02,0.94,
0.783,0.76,-0.18,-0.20,0.01,0.02,0.94,
0.785,0.76,-0.18,-0.20,0.01,0.01,0.94,
0.788,0.76,-0.18,-0.20,0.01,0.01,0.94,
0.788,0.83,-0.22,-0.19,0.01,0.01,0.94,
0.79,0.83,-0.22,-0.19,0.01,0.01,0.94,
0.794,0.83,-0.22,-0.19,0.02,0.01,0.94,
0.794,0.89,-0.28,-0.16,0.02,0.01,0.94,
0.795,0.89,-0.28,-0.16,0.02,0.01,0.95,
0.798,0.89,-0.28,-0.16,0.02,0.01,0.95,
0.798,0.93,-0.31,-0.11,0.02,0.01,0.95,
0.8,0.93,-0.31,-0.11,0.02,0.01,0.96,
0.803,0.93,-0.31,-0.11,0.03,0.01,0.96,
0.803,0.97,-0.31,-0.06,0.03,0.01,0.96,
0.805,0.97,-0.31,-0.06,0.03,0.01,0.96,
0.807,0.97,-0.31,-0.06,0.02,0.01,0.97,
0.808,1.03,-0.30,0.03,0.02,0.01,0.97,
0.81,1.03,-0.30,0.03,0.02,0.01,0.97,
0.812,1.03,-0.30,0.03,0.02,0.00,0.97,
0.813,1.03,-0.30,0.09,0.02,0.00,0.97,
0.815,1.03,-0.30,0.09,0.02,0.00,0.97,
0.817,1.03,-0.30,0.09,0.02,0.00,0.97,
0.817,1.01,-0.31,0.12,0.02,0.00,0.97,
0.82,1.01,-0.31,0.12,0.02,0.00,0.96,
0.822,1.01,-0.31,0.12,0.02,0.00,0.96,
0.822,0.98,-0.34,0.12,0.02,0.00,0.96,
0.824,0.98,-0.34,0.12,0.02,0.00,0.96,
0.827,0.98,-0.34,0.12,0.02,0.00,0.96,
0.827,0.98,-0.34,0.09,0.02,0.00,0.96,
0.829,0.98,-0.34,0.09,0.02,0.00,0.95,
0.832,0.98,-0.34,0.09,0.02,0.00,0.95,
0.832,0.99,-0.32,0.04,0.02,0.00,0.95,
0.834,0.99,-0.32,0.04,0.02,0.00,0.95,
0.837,0.99,-0.32,0.04,0.02,0.00,0.95,
0.837,1.00,-0.34,-0.01,0.02,0.00,0.95,
0.839,1.00,-0.34,-0.01,0.03,-0.00,0.95,
0.842,1.00,-0.34,-0.01,0.03,-0.00,0.95,
0.842,1.02,-0.34,-0.04,0.03,-0.00,0.95,
0.848,1.02,-0.34,-0.04,0.03,-0.00,0.95,
0.849,1.02,-0.34,-0.04,0.03,-0.00,0.94,
0.849,1.07,-0.34,-0.07,0.03,-0.00,0.94,
0.85,1.07,-0.34,-0.07,0.04,-0.00,0.94,
0.852,1.07,-0.34,-0.07,0.04,-0.00,0.95,
0.852,1.11,-0.37,-0.09,0.04,-0.00,0.95,
0.854,1.11,-0.37,-0.09,0.04,-0.01,0.94,
0.856,1.11,-0.37,-0.09,0.05,-0.01,0.94,
0.857,1.17,-0.38,-0.09,0.05,-0.01,0.94,
0.859,1.17,-0.38,-0.09,0.05,-0.01,0.94,
0.864,1.17,-0.38,-0.09,0.06,-0.01,0.94,
0.865,1.23,-0.40,-0.10,0.06,-0.01,0.94,
0.865,1.23,-0.40,-0.10,0.06,-0.01,0.94,
0.866,1.23,-0.40,-0.10,0.06,-0.01,0.94,
0.866,1.32,-0.41,-0.11,0.06,-0.01,0.94,
0.868,1.32,-0.41,-0.11,0.06,-0.00,0.94,
0.871,1.32,-0.41,-0.11,0.07,0.00,0.94,
0.871,1.38,-0.40,-0.10,0.07,0.00,0.94,
0.873,1.38,-0.40,-0.10,0.07,0.01,0.94,
0.876,1.38,-0.40,-0.10,0.07,0.01,0.94,
0.876,1.44,-0.34,-0.12,0.07,0.01,0.94,
0.878,1.44,-0.34,-0.12,0.07,0.01,0.94,
0.881,1.44,-0.34,-0.12,0.07,0.02,0.94,
0.881,1.48,-0.25,-0.11,0.07,0.02,0.94,
0.883,1.48,-0.25,-0.11,0.07,0.02,0.95,
0.886,1.48,-0.25,-0.11,0.07,0.03,0.95,
0.886,1.47,-0.15,-0.09,0.07,0.03,0.95,
0.888,1.47,-0.15,-0.09,0.06,0.03,0.95,
0.89,1.47,-0.15,-0.09,0.06,0.04,0.95,
0.891,1.42,-0.07,-0.07,0.06,0.04,0.95,
0.893,1.42,-0.07,-0.07,0.06,0.05,0.95,
0.896,1.42,-0.07,-0.07,0.06,0.05,0.95,
0.896,1.38,0.03,-0.05,0.06,0.05,0.95,
0.898,1.38,0.03,-0.05,0.07,0.06,0.95,
0.901,1.38,0.03,-0.05,0.07,0.07,0.96,
0.901,1.37,0.18,-0.02,0.07,0.07,0.96,
0.903,1.37,0.18,-0.02,0.07,0.07,0.96,
0.905,1.37,0.18,-0.02,0.07,0.07,0.96,
0.906,1.41,0.33,0.02,0.07,0.07,0.96,
0.908,1.41,0.33,0.02,0.07,0.07,0.96,
0.91,1.41,0.33,0.02,0.07,0.08,0.96,
0.911,1.43,0.42,0.06,0.07,0.08,0.96,
0.912,1.43,0.42,0.06,0.07,0.07,0.96,
0.915,1.43,0.42,0.06,0.07,0.07,0.97,
0.915,1.42,0.47,0.08,0.07,0.07,0.97,
0.917,1.42,0.47,0.08,0.07,0.07,0.97,
0.92,1.42,0.47,0.08,0.07,0.06,0.97,
0.92,1.42,0.46,0.11,0.07,0.06,0.97,
0.922,1.42,0.46,0.11,0.07,0.06,0.97,
0.925,1.42,0.46,0.11,0.06,0.06,0.97,
0.925,1.37,0.40,0.15,0.06,0.06,0.97,
0.927,1.37,0.40,0.15,0.06,0.05,0.98,
0.93,1.37,0.40,0.15,0.06,0.05,0.98,
0.93,1.31,0.32,0.18,0.06,0.05,0.98,
0.932,1.31,0.32,0.18,0.06,0.04,0.98,
0.935,1.31,0.32,0.18,0.06,0.04,0.98,
0.935,1.28,0.25,0.22,0.06,0.04,0.98,
0.937,1.28,0.25,0.22,0.06,0.03,0.98,
0.94,1.28,0.25,0.22,0.06,0.03,0.99,
0.94,1.24,0.17,0.26,0.06,0.03,0.99,
0.949,1.24,0.17,0.26,0.06,0.02,0.99,
0.95,1.24,0.17,0.26,0.05,0.02,0.99,
0.95,1.21,0.05,0.30,0.05,0.02,0.99,
0.951,1.21,0.05,0.30,0.05,0.02,0.99,
0.951,1.21,0.05,0.30,0.05,0.02,1.00,
0.951,1.18,-0.01,0.35,0.05,0.02,1.00,
0.952,1.18,-0.01,0.35,0.06,0.02,1.00,
0.954,1.18,-0.01,0.35,0.06,0.03,1.00,
0.955,1.17,-0.02,0.39,0.06,0.03,1.00,
0.957,1.17,-0.02,0.39,0.06,0.03,1.01,
0.965,1.17,-0.02,0.39,0.07,0.04,1.02,
0.965,1.21,0.03,0.46,0.07,0.04,1.02,
0.965,1.21,0.03,0.46,0.07,0.05,1.02,
0.965,1.21,0.03,0.46,0.07,0.05,1.03,
0.965,1.27,0.13,0.57,0.07,0.05,1.03,
0.966,1.27,0.13,0.57,0.07,0.06,1.04,
0.969,1.27,0.13,0.57,0.07,0.07,1.04,
0.969,1.32,0.29,0.70,0.07,0.07,1.04,
0.971,1.32,0.29,0.70,0.08,0.07,1.05,
0.974,1.32,0.29,0.70,0.07,0.07,1.05,
0.974,1.37,0.43,0.82,0.07,0.07,1.05,
0.976,1.37,0.43,0.82,0.07,0.08,1.05,
0.979,1.37,0.43,0.82,0.07,0.08,1.06,
0.979,1.39,0.54,0.89,0.07,0.08,1.06,
0.981,1.39,0.54,0.89,0.07,0.09,1.06,
0.983,1.39,0.54,0.89,0.07,0.09,1.06,
0.985,1.36,0.63,0.97,0.07,0.09,1.06,
0.986,1.36,0.63,0.97,0.08,0.09,1.06,
0.989,1.36,0.63,0.97,0.08,0.09,1.05,
0.989,1.38,0.71,0.99,0.08,0.09,1.05,
0.991,1.38,0.71,0.99,0.08,0.09,1.05,
0.994,1.38,0.71,0.99,0.08,0.09,1.05,
0.994,1.42,0.75,0.96,0.08,0.09,1.05,
0.996,1.42,0.75,0.96,0.08,0.09,1.04,
0.998,1.42,0.75,0.96,0.08,0.08,1.03,
0.999,1.46,0.73,0.89,0.08,0.08,1.03,
1.001,1.46,0.73,0.89,0.08,0.07,1.03,
1.003,1.46,0.73,0.89,0.09,0.07,1.03,
1.003,1.45,0.65,0.79,0.09,0.07,1.03,
1.006,1.45,0.65,0.79,0.08,0.06,1.02,
1.009,1.45,0.65,0.79,0.09,0.05,1.02,
1.01,1.49,0.53,0.70,0.09,0.05,1.02,
1.011,1.49,0.53,0.70,0.09,0.05,1.01,
1.013,1.49,0.53,0.70,0.09,0.04,1.01,
1.014,1.48,0.39,0.62,0.09,0.04,1.01,
1.016,1.48,0.39,0.62,0.08,0.03,1.01,
1.018,1.48,0.39,0.62,0.08,0.03,1.00,
1.018,1.48,0.25,0.52,0.08,0.03,1.00,
1.02,1.48,0.25,0.52,0.08,0.02,1.00,
1.023,1.48,0.25,0.52,0.08,0.02,0.99,
1.023,1.46,0.13,0.44,0.08,0.02,0.99,
1.026,1.46,0.13,0.44,0.08,0.01,0.99,
1.028,1.46,0.13,0.44,0.08,0.00,0.99,
1.028,1.43,0.02,0.37,0.08,0.00,0.99,
1.03,1.43,0.02,0.37,0.07,0.00,0.99,
1.033,1.43,0.02,0.37,0.07,-0.00,0.99,
1.033,1.40,-0.09,0.30,0.07,-0.00,0.99,
1.035,1.40,-0.09,0.30,0.07,0.00,0.99,
1.038,1.40,-0.09,0.30,0.08,0.00,0.99,
1.038,1.35,-0.14,0.30,0.08,0.00,0.99,
1.04,1.35,-0.14,0.30,0.08,0.01,1.00,
1.043,1.35,-0.14,0.30,0.08,0.01,1.00,
1.044,1.36,-0.13,0.32,0.08,0.01,1.00,
1.045,1.36,-0.13,0.32,0.08,0.02,1.01,
1.048,1.36,-0.13,0.32,0.08,0.03,1.02,
1.048,1.37,-0.03,0.40,0.08,0.03,1.02,
1.05,1.37,-0.03,0.40,0.08,0.03,1.02,
1.052,1.37,-0.03,0.40,0.08,0.04,1.03,
1.053,1.37,0.11,0.53,0.08,0.04,1.03,
1.055,1.37,0.11,0.53,0.07,0.05,1.03,
1.057,1.37,0.11,0.53,0.07,0.05,1.04,
1.058,1.36,0.25,0.67,0.07,0.05,1.04,
1.065,1.36,0.25,0.67,0.07,0.06,1.05,
1.065,1.36,0.25,0.67,0.06,0.06,1.05,
1.066,1.32,0.38,0.78,0.06,0.06,1.05,
1.066,1.32,0.38,0.78,0.06,0.07,1.05,
1.067,1.32,0.38,0.78,0.06,0.07,1.05,
1.068,1.24,0.48,0.88,0.06,0.07,1.05,
1.07,1.24,0.48,0.88,0.07,0.08,1.05,
1.072,1.24,0.48,0.88,0.07,0.08,1.06,
1.072,1.22,0.60,0.92,0.07,0.08,1.06,
1.074,1.22,0.60,0.92,0.07,0.08,1.05,
1.077,1.22,0.60,0.92,0.07,0.08,1.05,
1.078,1.21,0.68,0.94,0.07,0.08,1.05,
1.079,1.21,0.68,0.94,0.07,0.09,1.05,
1.082,1.21,0.68,0.94,0.07,0.08,1.04,
1.082,1.22,0.73,0.90,0.07,0.08,1.04,
1.084,1.22,0.73,0.90,0.07,0.08,1.04,
1.087,1.22,0.73,0.90,0.07,0.08,1.03,
1.087,1.21,0.75,0.84,0.07,0.08,1.03,
1.089,1.21,0.75,0.84,0.07,0.08,1.03,
1.093,1.21,0.75,0.84,0.07,0.07,1.02,
1.093,1.21,0.71,0.74,0.07,0.07,1.02,
1.094,1.21,0.71,0.74,0.07,0.07,1.02,
1.097,1.21,0.71,0.74,0.07,0.06,1.01,
1.097,1.20,0.65,0.64,0.07,0.06,1.01,
1.099,1.20,0.65,0.64,0.07,0.06,1.00,
1.101,1.20,0.65,0.64,0.07,0.05,1.00,
1.101,1.18,0.56,0.52,0.07,0.05,1.00,
1.103,1.18,0.56,0.52,0.07,0.05,0.99,
1.106,1.18,0.56,0.52,0.08,0.04,0.99,
1.106,1.20,0.48,0.40,0.08,0.04,0.99,
1.109,1.20,0.48,0.40,0.08,0.04,0.98,
1.112,1.20,0.48,0.40,0.09,0.04,0.98,
1.112,1.24,0.38,0.29,0.09,0.04,0.98,
1.113,1.24,0.38,0.29,0.09,0.04,0.98,
1.116,1.24,0.38,0.29,0.10,0.03,0.98,
1.116,1.30,0.32,0.21,0.10,0.03,0.98,
1.118,1.30,0.32,0.21,0.10,0.03,0.98,
1.121,1.30,0.32,0.21,0.10,0.03,0.97,
1.121,1.36,0.29,0.16,0.10,0.03,0.97,
1.123,1.36,0.29,0.16,0.10,0.03,0.98,
1.126,1.36,0.29,0.16,0.10,0.03,0.98,
1.127,1.40,0.27,0.14,0.10,0.03,0.98,
1.128,1.40,0.27,0.14,0.10,0.04,0.99,
1.131,1.41,0.28,0.19,0.10,0.04,0.99,
1.131,1.41,0.28,0.19,0.11,0.04,0.99,
1.133,1.41,0.28,0.19,0.10,0.04,1.00,
1.136,1.41,0.28,0.19,0.10,0.04,1.00,
1.136,1.39,0.32,0.28,0.10,0.04,1.00,
1.138,1.39,0.32,0.28,0.10,0.04,1.01,
1.141,1.35,0.33,0.39,0.10,0.04,1.01,
1.141,1.35,0.33,0.39,0.09,0.04,1.02,
1.143,1.35,0.33,0.39,0.09,0.04,1.02,
1.146,1.35,0.33,0.39,0.09,0.04,1.03,
1.147,1.26,0.37,0.50,0.09,0.04,1.03,
1.153,1.26,0.37,0.50,0.09,0.05,1.03,
1.154,1.26,0.37,0.50,0.08,0.05,1.04,
1.154,1.17,0.42,0.61,0.08,0.05,1.04,
1.155,1.17,0.42,0.61,0.08,0.05,1.04,
1.156,1.17,0.42,0.61,0.08,0.06,1.04,
1.156,1.09,0.49,0.69,0.08,0.06,1.04,
1.158,1.09,0.49,0.69,0.08,0.06,1.04,
1.165,1.09,0.49,0.69,0.08,0.06,1.04,
1.165,1.02,0.54,0.75,0.08,0.06,1.04,
1.166,1.02,0.54,0.75,0.07,0.06,1.04,
1.166,1.02,0.54,0.75,0.07,0.06,1.04,
1.166,0.99,0.60,0.77,0.07,0.06,1.04,
1.167,0.99,0.60,0.77,0.07,0.06,1.04,
1.17,0.99,0.60,0.77,0.07,0.06,1.04,
1.17,0.94,0.62,0.77,0.07,0.06,1.04,
1.172,0.94,0.62,0.77,0.07,0.06,1.03,
1.176,0.94,0.62,0.77,0.07,0.06,1.03,
1.177,0.89,0.60,0.72,0.07,0.06,1.03,
1.177,0.89,0.60,0.72,0.07,0.05,1.03,
1.18,0.89,0.60,0.72,0.07,0.05,1.03,
1.18,0.86,0.57,0.66,0.07,0.05,1.03,
1.182,0.86,0.57,0.66,0.07,0.04,1.02,
1.184,0.86,0.57,0.66,0.07,0.04,1.02,
1.184,0.84,0.52,0.60,0.07,0.04,1.02,
1.187,0.84,0.52,0.60,0.07,0.04,1.01,
1.189,0.84,0.52,0.60,0.07,0.03,1.01,
1.19,0.84,0.42,0.49,0.07,0.03,1.01,
1.192,0.84,0.42,0.49,0.06,0.03,1.01,
1.195,0.84,0.42,0.49,0.06,0.03,1.00,
1.195,0.80,0.34,0.42,0.06,0.03,1.00,
1.197,0.80,0.34,0.42,0.06,0.03,1.00,
1.199,0.80,0.34,0.42,0.06,0.03,1.00,
1.2,0.74,0.31,0.37,0.06,0.03,1.00,
1.202,0.74,0.31,0.37,0.06,0.03,1.00,
1.204,0.74,0.31,0.37,0.05,0.03,1.00,
1.204,0.71,0.31,0.32,0.05,0.03,1.00,
1.206,0.71,0.31,0.32,0.05,0.04,1.00,
1.209,0.71,0.31,0.32,0.05,0.04,1.01,
1.209,0.64,0.33,0.33,0.05,0.04,1.01,
1.211,0.64,0.33,0.33,0.04,0.05,1.02,
1.215,0.64,0.33,0.33,0.04,0.05,1.03,
1.215,0.60,0.41,0.38,0.04,0.05,1.03,
1.216,0.60,0.41,0.38,0.04,0.05,1.03,
1.219,0.60,0.41,0.38,0.03,0.06,1.04,
1.219,0.52,0.49,0.51,0.03,0.06,1.04,
1.221,0.52,0.49,0.51,0.03,0.06,1.05,
1.224,0.52,0.49,0.51,0.02,0.06,1.05,
1.224,0.45,0.54,0.65,0.02,0.06,1.05,
1.226,0.45,0.54,0.65,0.01,0.06,1.06,
1.229,0.45,0.54,0.65,-0.00,0.06,1.07,
1.23,0.32,0.59,0.78,-0.00,0.06,1.07,
1.232,0.32,0.59,0.78,-0.01,0.06,1.08,
1.234,0.32,0.59,0.78,-0.02,0.05,1.08,
1.234,0.13,0.57,0.93,-0.02,0.05,1.08,
1.236,0.13,0.57,0.93,-0.03,0.05,1.08,
1.238,0.13,0.57,0.93,-0.03,0.05,1.08,
1.239,-0.05,0.53,1.02,-0.03,0.05,1.08,
1.241,-0.05,0.53,1.02,-0.04,0.05,1.08,
1.247,-0.05,0.53,1.02,-0.04,0.05,1.07,
1.248,-0.19,0.50,1.02,-0.04,0.05,1.07,
1.248,-0.19,0.50,1.02,-0.04,0.04,1.07,
1.248,-0.19,0.50,1.02,-0.04,0.04,1.06,
1.249,-0.28,0.45,0.98,-0.04,0.04,1.06,
1.25,-0.28,0.45,0.98,-0.04,0.04,1.06,
1.253,-0.28,0.45,0.98,-0.04,0.04,1.05,
1.254,-0.35,0.40,0.89,-0.04,0.04,1.05,
1.255,-0.35,0.40,0.89,-0.04,0.03,1.05,
1.263,-0.35,0.40,0.89,-0.04,0.03,1.04,
1.264,-0.34,0.35,0.79,-0.04,0.03,1.04,
1.264,-0.34,0.35,0.79,-0.04,0.03,1.04,
1.264,-0.34,0.35,0.79,-0.04,0.02,1.03,
1.264,-0.34,0.29,0.68,-0.04,0.02,1.03,
1.265,-0.34,0.29,0.68,-0.03,0.01,1.03,
1.268,-0.31,0.21,0.58,-0.03,0.01,1.03,
1.268,-0.31,0.21,0.58,-0.03,0.01,1.02,
1.27,-0.31,0.21,0.58,-0.03,0.00,1.02,
1.273,-0.31,0.21,0.58,-0.03,0.00,1.01,
1.273,-0.28,0.09,0.45,-0.03,0.00,1.01,
1.275,-0.28,0.09,0.45,-0.02,-0.00,1.01,
1.278,-0.28,0.09,0.45,-0.02,-0.00,1.01,
1.278,-0.25,-0.00,0.36,-0.02,-0.00,1.01,
1.28,-0.25,-0.00,0.36,-0.02,-0.00,1.01,
1.283,-0.25,-0.00,0.36,-0.02,-0.01,1.01,
1.283,-0.21,-0.04,0.33,-0.02,-0.01,1.01,
1.285,-0.21,-0.04,0.33,-0.02,-0.01,1.01,
1.287,-0.21,-0.04,0.33,-0.02,-0.01,1.01,
1.287,-0.20,-0.08,0.33,-0.02,-0.01,1.01,
1.29,-0.20,-0.08,0.33,-0.02,-0.02,1.01,
1.292,-0.20,-0.08,0.33,-0.02,-0.02,1.01,
1.293,-0.17,-0.13,0.34,-0.02,-0.02,1.01,
1.295,-0.17,-0.13,0.34,-0.02,-0.02,1.02,
1.298,-0.17,-0.13,0.34,-0.02,-0.02,1.02,
1.298,-0.18,-0.18,0.35,-0.02,-0.02,1.02,
1.3,-0.18,-0.18,0.35,-0.02,-0.02,1.02,
1.302,-0.18,-0.18,0.35,-0.02,-0.02,1.02,
1.302,-0.21,-0.21,0.36,-0.02,-0.02,1.02,
1.304,-0.21,-0.21,0.36,-0.02,-0.02,1.02,
1.307,-0.21,-0.21,0.36,-0.02,-0.02,1.01,
1.307,-0.24,-0.22,0.36,-0.02,-0.02,1.01,
1.309,-0.24,-0.22,0.36,-0.03,-0.02,1.01,
1.312,-0.24,-0.22,0.36,-0.03,-0.02,1.01,
1.312,-0.26,-0.22,0.35,-0.03,-0.02,1.01,
1.314,-0.26,-0.22,0.35,-0.03,-0.02,1.01,
1.317,-0.26,-0.22,0.35,-0.03,-0.02,1.00,
1.317,-0.33,-0.23,0.32,-0.03,-0.02,1.00,
1.319,-0.33,-0.23,0.32,-0.03,-0.03,1.00,
1.322,-0.33,-0.23,0.32,-0.04,-0.03,1.00,
1.322,-0.39,-0.23,0.24,-0.04,-0.03,1.00,
1.324,-0.39,-0.23,0.24,-0.04,-0.02,0.99,
1.327,-0.39,-0.23,0.24,-0.04,-0.03,0.99,
1.327,-0.42,-0.25,0.17,-0.04,-0.03,0.99,
1.329,-0.42,-0.25,0.17,-0.04,-0.03,0.98,
1.332,-0.42,-0.25,0.17,-0.04,-0.02,0.98,
1.332,-0.48,-0.25,0.10,-0.04,-0.02,0.98,
1.334,-0.48,-0.25,0.10,-0.05,-0.02,0.98,
1.336,-0.48,-0.25,0.10,-0.05,-0.03,0.97,
1.336,-0.50,-0.23,0.03,-0.05,-0.03,0.97,
1.338,-0.50,-0.23,0.03,-0.06,-0.03,0.97,
1.346,-0.50,-0.23,0.03,-0.06,-0.03,0.97,
1.346,-0.59,-0.25,-0.03,-0.06,-0.03,0.97,
1.347,-0.59,-0.25,-0.03,-0.06,-0.03,0.97,
1.347,-0.59,-0.25,-0.03,-0.07,-0.03,0.97,
1.347,-0.68,-0.26,-0.08,-0.07,-0.03,0.97,
1.349,-0.68,-0.26,-0.08,-0.07,-0.03,0.97,
1.351,-0.68,-0.26,-0.08,-0.07,-0.03,0.97,
1.351,-0.77,-0.30,-0.10,-0.07,-0.03,0.97,
1.353,-0.77,-0.30,-0.10,-0.07,-0.03,0.97,
1.356,-0.77,-0.30,-0.10,-0.07,-0.03,0.97,
1.356,-0.86,-0.27,-0.12,-0.07,-0.03,0.97,
1.358,-0.86,-0.27,-0.12,-0.07,-0.03,0.98,
1.361,-0.86,-0.27,-0.12,-0.07,-0.03,0.98,
1.361,-0.87,-0.25,-0.09,-0.07,-0.03,0.98,
1.363,-0.87,-0.25,-0.09,-0.07,-0.03,0.98,
1.366,-0.87,-0.25,-0.09,-0.06,-0.03,0.98,
1.366,-0.86,-0.22,-0.02,-0.06,-0.03,0.98,
1.368,-0.86,-0.22,-0.02,-0.07,-0.03,0.99,
1.371,-0.86,-0.22,-0.02,-0.06,-0.03,0.99,
1.371,-0.83,-0.22,0.02,-0.06,-0.03,0.99,
1.373,-0.83,-0.22,0.02,-0.06,-0.04,0.99,
1.376,-0.83,-0.22,0.02,-0.06,-0.04,0.99,
1.377,-0.81,-0.27,0.07,-0.06,-0.04,0.99,
1.378,-0.81,-0.27,0.07,-0.06,-0.05,0.99,
1.381,-0.80,-0.34,0.07,-0.06,-0.05,0.99,
1.381,-0.80,-0.34,0.07,-0.06,-0.05,0.98,
1.383,-0.80,-0.34,0.07,-0.05,-0.06,0.98,
1.386,-0.80,-0.34,0.07,-0.05,-0.06,0.97,
1.386,-0.77,-0.44,0.04,-0.05,-0.06,0.97,
1.388,-0.77,-0.44,0.04,-0.04,-0.06,0.97,
1.39,-0.71,-0.50,-0.04,-0.04,-0.06,0.97,
1.391,-0.71,-0.50,-0.04,-0.04,-0.06,0.97,
1.392,-0.71,-0.50,-0.04,-0.04,-0.06,0.96,
1.395,-0.71,-0.50,-0.04,-0.04,-0.06,0.96,
1.395,-0.61,-0.50,-0.12,-0.04,-0.06,0.96,
1.397,-0.61,-0.50,-0.12,-0.04,-0.06,0.96,
1.4,-0.61,-0.50,-0.12,-0.04,-0.06,0.95,
1.4,-0.57,-0.50,-0.17,-0.04,-0.06,0.95,
1.403,-0.57,-0.50,-0.17,-0.04,-0.06,0.95,
1.405,-0.57,-0.50,-0.17,-0.04,-0.06,0.95,
1.405,-0.58,-0.50,-0.22,-0.04,-0.06,0.95,
1.409,-0.58,-0.50,-0.22,-0.05,-0.06,0.95,
1.41,-0.58,-0.50,-0.22,-0.05,-0.06,0.94,
1.411,-0.63,-0.52,-0.27,-0.05,-0.06,0.94,
1.412,-0.63,-0.52,-0.27,-0.06,-0.06,0.94,
1.415,-0.63,-0.52,-0.27,-0.07,-0.05,0.94,
1.415,-0.73,-0.51,-0.33,-0.07,-0.05,0.94,
1.417,-0.73,-0.51,-0.33,-0.07,-0.05,0.94,
1.42,-0.73,-0.51,-0.33,-0.08,-0.05,0.94,
1.42,-0.86,-0.46,-0.35,-0.08,-0.05,0.94,
1.422,-0.86,-0.46,-0.35,-0.08,-0.05,0.95,
1.425,-0.96,-0.43,-0.35,-0.08,-0.05,0.95,
1.426,-0.96,-0.43,-0.35,-0.09,-0.05,0.95,
1.429,-0.96,-0.43,-0.35,-0.09,-0.04,0.95,
1.43,-0.96,-0.43,-0.35,-0.10,-0.04,0.95,
1.43,-1.04,-0.39,-0.32,-0.10,-0.04,0.95,
1.432,-1.04,-0.39,-0.32,-0.10,-0.04,0.95,
1.434,-1.04,-0.39,-0.32,-0.11,-0.04,0.95,
1.435,-1.12,-0.36,-0.29,-0.11,-0.04,0.95,
1.437,-1.12,-0.36,-0.29,-0.11,-0.04,0.96,
1.439,-1.12,-0.36,-0.29,-0.11,-0.04,0.96,
1.44,-1.20,-0.36,-0.25,-0.11,-0.04,0.96,
1.442,-1.20,-0.36,-0.25,-0.12,-0.04,0.97,
1.444,-1.20,-0.36,-0.25,-0.12,-0.04,0.97,
1.445,-1.28,-0.35,-0.16,-0.12,-0.04,0.97,
1.447,-1.28,-0.35,-0.16,-0.12,-0.04,0.98,
1.449,-1.28,-0.35,-0.16,-0.13,-0.04,0.98,
1.449,-1.35,-0.34,-0.06,-0.13,-0.04,0.98,
1.451,-1.35,-0.34,-0.06,-0.13,-0.04,0.99,
1.454,-1.35,-0.34,-0.06,-0.13,-0.04,0.99,
1.454,-1.41,-0.33,0.03,-0.13,-0.04,0.99,
1.456,-1.41,-0.33,0.03,-0.14,-0.04,1.00,
1.463,-1.41,-0.33,0.03,-0.14,-0.04,1.00,
1.464,-1.47,-0.34,0.12,-0.14,-0.04,1.00,
1.464,-1.47,-0.34,0.12,-0.14,-0.05,1.00,
1.465,-1.47,-0.34,0.12,-0.14,-0.05,1.00,
1.465,-1.52,-0.37,0.18,-0.14,-0.05,1.00,
1.466,-1.52,-0.37,0.18,-0.14,-0.05,1.00,
1.469,-1.52,-0.37,0.18,-0.14,-0.05,1.00,
1.469,-1.54,-0.41,0.22,-0.14,-0.05,1.00,
1.471,-1.54,-0.41,0.22,-0.14,-0.05,1.00,
1.473,-1.54,-0.41,0.22,-0.14,-0.05,1.00,
1.476,-1.57,-0.43,0.24,-0.14,-0.05,1.00,
1.476,-1.57,-0.43,0.24,-0.15,-0.05,1.00,
1.482,-1.57,-0.43,0.24,-0.15,-0.05,0.99,
1.482,-1.59,-0.45,0.23,-0.15,-0.05,0.99,
1.483,-1.59,-0.45,0.23,-0.15,-0.06,0.99,
1.483,-1.59,-0.45,0.23,-0.15,-0.06,0.98,
1.483,-1.63,-0.50,0.16,-0.15,-0.06,0.98,
1.486,-1.63,-0.50,0.16,-0.15,-0.06,0.98,
1.488,-1.63,-0.55,0.07,-0.15,-0.06,0.98,
1.489,-1.63,-0.55,0.07,-0.14,-0.06,0.97,
1.491,-1.63,-0.55,0.07,-0.14,-0.06,0.96,
1.493,-1.63,-0.55,0.07,-0.14,-0.06,0.95,
1.493,-1.62,-0.57,-0.05,-0.14,-0.06,0.95,
1.495,-1.62,-0.57,-0.05,-0.14,-0.06,0.95,
1.498,-1.62,-0.57,-0.05,-0.14,-0.06,0.94,
1.498,-1.61,-0.59,-0.18,-0.14,-0.06,0.94,
1.5,-1.61,-0.59,-0.18,-0.14,-0.07,0.93,
1.503,-1.61,-0.59,-0.18,-0.14,-0.07,0.93,
1.503,-1.62,-0.61,-0.32,-0.14,-0.07,0.93,
1.505,-1.62,-0.61,-0.32,-0.14,-0.07,0.92,
1.508,-1.62,-0.61,-0.32,-0.14,-0.07,0.92,
1.509,-1.63,-0.68,-0.46,-0.14,-0.07,0.92,
1.511,-1.63,-0.68,-0.46,-0.14,-0.08,0.91,
1.513,-1.63,-0.68,-0.46,-0.14,-0.08,0.91,
1.513,-1.65,-0.73,-0.58,-0.14,-0.08,0.91,
1.515,-1.65,-0.73,-0.58,-0.14,-0.07,0.91,
1.517,-1.65,-0.73,-0.58,-0.13,-0.07,0.91,
1.518,-1.62,-0.75,-0.63,-0.13,-0.07,0.91,
1.52,-1.62,-0.75,-0.63,-0.13,-0.08,0.92,
1.523,-1.62,-0.75,-0.63,-0.13,-0.08,0.92,
1.523,-1.58,-0.74,-0.64,-0.13,-0.08,0.92,
1.525,-1.58,-0.74,-0.64,-0.13,-0.08,0.92,
1.527,-1.58,-0.74,-0.64,-0.13,-0.08,0.92,
1.528,-1.56,-0.75,-0.59,-0.13,-0.08,0.92,
1.53,-1.56,-0.75,-0.59,-0.13,-0.08,0.93,
1.532,-1.56,-0.75,-0.59,-0.13,-0.08,0.93,
1.533,-1.54,-0.75,-0.53,-0.13,-0.08,0.93,
1.534,-1.54,-0.75,-0.53,-0.13,-0.07,0.94,
1.537,-1.54,-0.75,-0.53,-0.13,-0.07,0.95,
1.537,-1.55,-0.74,-0.45,-0.13,-0.07,0.95,
1.54,-1.55,-0.74,-0.45,-0.13,-0.07,0.95,
1.546,-1.55,-0.74,-0.45,-0.13,-0.06,0.95,
1.547,-1.54,-0.69,-0.34,-0.13,-0.06,0.95,
1.547,-1.54,-0.69,-0.34,-0.13,-0.06,0.96,
1.547,-1.54,-0.69,-0.34,-0.13,-0.05,0.96,
1.547,-1.53,-0.61,-0.25,-0.13,-0.05,0.96,
1.549,-1.53,-0.61,-0.25,-0.13,-0.05,0.96,
1.552,-1.53,-0.61,-0.25,-0.13,-0.04,0.97,
1.552,-1.53,-0.51,-0.17,-0.13,-0.04,0.97,
1.554,-1.53,-0.51,-0.17,-0.14,-0.04,0.97,
1.558,-1.53,-0.51,-0.17,-0.14,-0.04,0.97,
1.558,-1.58,-0.41,-0.11,-0.14,-0.04,0.97,
1.559,-1.58,-0.41,-0.11,-0.14,-0.04,0.97,
1.562,-1.58,-0.41,-0.11,-0.14,-0.04,0.97,
1.562,-1.64,-0.36,-0.07,-0.14,-0.04,0.97,
1.564,-1.64,-0.36,-0.07,-0.15,-0.03,0.97,
1.566,-1.64,-0.36,-0.07,-0.15,-0.03,0.98,
1.567,-1.70,-0.32,-0.03,-0.15,-0.03,0.98,
1.569,-1.70,-0.32,-0.03,-0.15,-0.03,0.98,
1.571,-1.70,-0.32,-0.03,-0.15,-0.03,0.98,
1.572,-1.75,-0.27,-0.01,-0.15,-0.03,0.98,
1.574,-1.75,-0.27,-0.01,-0.15,-0.02,0.97,
1.577,-1.75,-0.27,-0.01,-0.15,-0.02,0.97,
1.577,-1.78,-0.22,-0.00,-0.15,-0.02,0.97,
1.579,-1.78,-0.22,-0.00,-0.16,-0.02,0.97,
1.581,-1.78,-0.22,-0.00,-0.16,-0.02,0.97,
1.582,-1.82,-0.18,-0.03,-0.16,-0.02,0.97,
1.584,-1.82,-0.18,-0.03,-0.16,-0.02,0.96,
1.586,-1.82,-0.18,-0.03,-0.16,-0.03,0.96,
1.586,-1.86,-0.18,-0.06,-0.16,-0.03,0.96,
1.588,-1.86,-0.18,-0.06,-0.16,-0.03,0.96,
1.591,-1.86,-0.18,-0.06,-0.17,-0.03,0.96,
1.592,-1.88,-0.20,-0.12,-0.17,-0.03,0.96,
1.593,-1.88,-0.20,-0.12,-0.17,-0.03,0.96,
1.596,-1.88,-0.20,-0.12,-0.17,-0.03,0.96,
1.597,-1.94,-0.22,-0.14,-0.17,-0.03,0.96,
1.598,-1.94,-0.22,-0.14,-0.17,-0.02,0.96,
1.601,-1.94,-0.22,-0.14,-0.18,-0.02,0.96,
1.601,-1.97,-0.21,-0.15,-0.18,-0.02,0.96,
1.603,-1.97,-0.21,-0.15,-0.18,-0.02,0.96,
1.606,-1.97,-0.21,-0.15,-0.18,-0.02,0.97,
1.606,-2.01,-0.17,-0.15,-0.18,-0.02,0.97,
1.608,-2.01,-0.17,-0.15,-0.18,-0.02,0.97,
1.611,-2.01,-0.17,-0.15,-0.18,-0.02,0.98,
1.611,-2.04,-0.16,-0.09,-0.18,-0.02,0.98,
1.613,-2.04,-0.16,-0.09,-0.18,-0.01,0.98,
1.616,-2.04,-0.16,-0.09,-0.18,-0.01,0.98,
1.616,-2.06,-0.13,-0.03,-0.18,-0.01,0.98,
1.618,-2.06,-0.13,-0.03,-0.18,-0.01,0.98,
1.621,-2.06,-0.13,-0.03,-0.18,-0.01,0.99,
1.621,-2.05,-0.08,0.03,-0.18,-0.01,0.99,
1.623,-2.05,-0.08,0.03,-0.18,-0.00,0.99,
1.626,-2.05,-0.08,0.03,-0.18,-0.00,1.00,
1.626,-2.05,-0.03,0.09,-0.18,-0.00,1.00,
1.628,-2.05,-0.03,0.09,-0.18,0.00,1.00,
1.63,-2.05,-0.03,0.09,-0.17,0.00,1.00,
1.631,-2.04,0.04,0.17,-0.17,0.00,1.00,
1.633,-2.04,0.04,0.17,-0.18,0.00,1.00,
1.635,-1.99,0.10,0.23,-0.18,0.00,1.00,
1.636,-1.99,0.10,0.23,-0.18,0.01,1.01,
1.638,-1.99,0.10,0.23,-0.17,0.01,1.01,
1.647,-1.99,0.10,0.23,-0.18,0.01,1.01,
1.648,-1.99,0.12,0.28,-0.18,0.01,1.01,
1.648,-1.99,0.12,0.28,-0.18,0.01,1.00,
1.648,-1.99,0.12,0.28,-0.17,0.01,1.00,
1.648,-1.97,0.13,0.29,-0.17,0.01,1.00,
1.649,-1.97,0.13,0.29,-0.17,0.01,1.00,
1.65,-1.97,0.13,0.29,-0.17,0.01,1.00,
1.65,-1.97,0.15,0.27,-0.17,0.01,1.00,
1.652,-1.97,0.15,0.27,-0.17,0.01,1.00,
1.655,-1.97,0.15,0.27,-0.17,0.01,1.00,
1.655,-1.95,0.19,0.24,-0.17,0.01,1.00,
1.662,-1.95,0.19,0.24,-0.17,0.02,0.99,
1.662,-1.95,0.19,0.24,-0.17,0.02,0.99,
1.662,-1.94,0.21,0.20,-0.17,0.02,0.99,
1.662,-1.94,0.21,0.20,-0.17,0.02,0.99,
1.664,-1.94,0.21,0.20,-0.17,0.02,0.99,
1.665,-1.94,0.26,0.16,-0.17,0.02,0.99,
1.667,-1.94,0.26,0.16,-0.18,0.02,0.99,
1.669,-1.94,0.26,0.16,-0.18,0.02,0.98,
1.669,-1.96,0.26,0.14,-0.18,0.02,0.98,
1.672,-1.96,0.26,0.14,-0.18,0.02,0.98,
1.674,-1.96,0.26,0.14,-0.18,0.01,0.98,
1.675,-1.98,0.27,0.09,-0.18,0.01,0.98,
1.677,-1.98,0.27,0.09,-0.18,0.01,0.98,
1.68,-1.98,0.27,0.09,-0.17,0.01,0.98,
1.68,-1.99,0.24,0.05,-0.17,0.01,0.98,
1.682,-1.99,0.24,0.05,-0.18,0.01,0.98,
1.684,-1.99,0.24,0.05,-0.17,0.01,0.98,
1.684,-1.98,0.22,0.04,-0.17,0.01,0.98,
1.686,-1.98,0.22,0.04,-0.17,0.01,0.98,
1.689,-1.98,0.22,0.04,-0.17,0.01,0.99,
1.689,-1.98,0.22,0.05,-0.17,0.01,0.99,
1.692,-1.98,0.22,0.05,-0.17,0.01,0.99,
1.695,-1.98,0.22,0.05,-0.17,0.01,0.99,
1.695,-1.95,0.23,0.08,-0.17,0.01,0.99,
1.696,-1.95,0.23,0.08,-0.17,0.00,1.00,
1.699,-1.95,0.23,0.08,-0.17,0.00,1.00,
1.699,-1.92,0.20,0.15,-0.17,0.00,1.00,
1.701,-1.92,0.20,0.15,-0.17,0.00,1.01,
1.704,-1.92,0.20,0.15,-0.17,0.00,1.01,
1.704,-1.88,0.16,0.21,-0.17,0.00,1.01,
1.706,-1.88,0.16,0.21,-0.16,-0.00,1.02,
1.709,-1.88,0.16,0.21,-0.16,-0.01,1.02,
1.709,-1.84,0.14,0.31,-0.16,-0.01,1.02,
1.711,-1.84,0.14,0.31,-0.15,-0.01,1.02,
1.713,-1.84,0.14,0.31,-0.15,-0.01,1.03,
1.714,-1.77,0.10,0.41,-0.15,-0.01,1.03,
1.716,-1.77,0.10,0.41,-0.14,-0.01,1.03,
1.718,-1.77,0.10,0.41,-0.14,-0.01,1.03,
1.719,-1.66,0.06,0.47,-0.14,-0.01,1.03,
1.721,-1.66,0.06,0.47,-0.13,-0.02,1.02,
1.724,-1.66,0.06,0.47,-0.13,-0.02,1.02,
1.725,-1.55,0.01,0.49,-0.13,-0.02,1.02,
1.726,-1.55,0.01,0.49,-0.12,-0.02,1.02,
1.729,-1.55,0.01,0.49,-0.12,-0.02,1.01,
1.729,-1.44,-0.04,0.44,-0.12,-0.02,1.01,
1.731,-1.44,-0.04,0.44,-0.12,-0.01,1.00,
1.733,-1.44,-0.04,0.44,-0.11,-0.01,0.99,
1.733,-1.32,-0.03,0.33,-0.11,-0.01,0.99,
1.735,-1.32,-0.03,0.33,-0.10,-0.01,0.98,
1.738,-1.32,-0.03,0.33,-0.10,-0.00,0.98,
1.738,-1.24,0.04,0.16,-0.10,-0.00,0.98,
1.741,-1.24,0.04,0.16,-0.10,0.00,0.97,
1.743,-1.24,0.04,0.16,-0.10,0.01,0.96,
1.744,-1.14,0.11,0.01,-0.10,0.01,0.96,
1.746,-1.14,0.11,0.01,-0.10,0.01,0.96,
1.748,-1.13,0.18,-0.13,-0.10,0.01,0.96,
1.748,-1.13,0.18,-0.13,-0.10,0.01,0.95,
1.75,-1.13,0.18,-0.13,-0.10,0.02,0.95,
1.753,-1.13,0.25,-0.25,-0.10,0.02,0.95,
1.753,-1.13,0.25,-0.25,-0.11,0.02,0.94,
1.755,-1.13,0.25,-0.25,-0.11,0.03,0.94,
1.763,-1.13,0.25,-0.25,-0.12,0.03,0.94,
1.763,-1.14,0.34,-0.33,-0.12,0.03,0.94,
1.764,-1.14,0.34,-0.33,-0.12,0.04,0.94,
1.764,-1.14,0.34,-0.33,-0.13,0.04,0.93,
1.764,-1.22,0.43,-0.39,-0.13,0.04,0.93,
1.765,-1.22,0.43,-0.39,-0.13,0.05,0.93,
1.767,-1.22,0.43,-0.39,-0.13,0.05,0.94,
1.768,-1.30,0.53,-0.42,-0.13,0.05,0.94,
1.77,-1.30,0.53,-0.42,-0.13,0.05,0.94,
1.772,-1.30,0.53,-0.42,-0.14,0.06,0.94,
1.772,-1.35,0.62,-0.42,-0.14,0.06,0.94,
1.775,-1.35,0.62,-0.42,-0.14,0.06,0.95,
1.777,-1.35,0.62,-0.42,-0.13,0.07,0.95,
1.777,-1.39,0.70,-0.36,-0.13,0.07,0.95,
1.78,-1.39,0.70,-0.36,-0.14,0.07,0.96,
1.782,-1.39,0.70,-0.36,-0.14,0.07,0.96,
1.782,-1.39,0.78,-0.28,-0.14,0.07,0.96,
1.784,-1.39,0.78,-0.28,-0.14,0.07,0.97,
1.787,-1.39,0.78,-0.28,-0.14,0.07,0.97,
1.787,-1.38,0.80,-0.16,-0.14,0.07,0.97,
1.789,-1.38,0.80,-0.16,-0.14,0.07,0.98,
1.792,-1.38,0.80,-0.16,-0.13,0.07,0.98,
1.793,-1.37,0.82,-0.07,-0.13,0.07,0.98,
1.794,-1.37,0.82,-0.07,-0.13,0.07,0.99,
1.797,-1.37,0.82,-0.07,-0.13,0.07,1.00,
1.797,-1.35,0.83,0.03,-0.13,0.07,1.00,
1.799,-1.35,0.83,0.03,-0.13,0.07,1.01,
1.802,-1.35,0.83,0.03,-0.12,0.08,1.01,
1.802,-1.28,0.85,0.17,-0.12,0.08,1.01,
1.804,-1.28,0.85,0.17,-0.11,0.08,1.02,
1.807,-1.28,0.85,0.17,-0.11,0.09,1.03,
1.807,-1.18,0.92,0.32,-0.11,0.09,1.03,
1.809,-1.18,0.92,0.32,-0.11,0.09,1.04,
1.811,-1.18,0.92,0.32,-0.10,0.09,1.04,
1.812,-1.07,1.00,0.48,-0.10,0.09,1.04,
1.814,-1.07,1.00,0.48,-0.10,0.09,1.05,
1.816,-1.07,1.00,0.48,-0.10,0.09,1.05,
1.816,-0.98,1.04,0.59,-0.10,0.09,1.05,
1.818,-0.98,1.04,0.59,-0.10,0.09,1.05,
1.821,-0.98,1.04,0.59,-0.10,0.09,1.05,
1.821,-0.92,1.05,0.68,-0.10,0.09,1.05,
1.823,-0.92,1.05,0.68,-0.10,0.09,1.05,
1.826,-0.92,1.05,0.68,-0.10,0.09,1.05,
1.826,-0.88,1.05,0.70,-0.10,0.09,1.05,
1.828,-0.88,1.05,0.70,-0.09,0.09,1.04,
1.831,-0.88,1.05,0.70,-0.09,0.09,1.04,
1.832,-0.84,1.05,0.67,-0.09,0.09,1.04,
1.833,-0.84,1.05,0.67,-0.09,0.10,1.03,
1.836,-0.84,1.05,0.67,-0.09,0.10,1.03,
1.836,-0.81,1.07,0.60,-0.09,0.10,1.03,
1.839,-0.81,1.07,0.60,-0.09,0.10,1.02,
1.845,-0.81,1.07,0.60,-0.09,0.10,1.02,
1.845,-0.79,1.12,0.50,-0.09,0.10,1.02,
1.846,-0.79,1.12,0.50,-0.10,0.10,1.01,
1.846,-0.79,1.12,0.50,-0.10,0.11,1.00,
1.846,-0.80,1.15,0.38,-0.10,0.11,1.00,
1.848,-0.80,1.15,0.38,-0.10,0.11,1.00,
1.851,-0.80,1.15,0.38,-0.11,0.11,1.00,
1.851,-0.80,1.17,0.26,-0.11,0.11,1.00,
1.853,-0.80,1.17,0.26,-0.11,0.11,0.99,
1.855,-0.80,1.17,0.26,-0.11,0.12,0.99,
1.856,-0.86,1.19,0.16,-0.11,0.12,0.99,
1.858,-0.86,1.19,0.16,-0.11,0.12,0.99,
1.86,-0.86,1.19,0.16,-0.11,0.12,0.99,
1.86,-0.89,1.24,0.10,-0.11,0.12,0.99,
1.863,-0.89,1.24,0.10,-0.12,0.12,0.99,
1.865,-0.89,1.24,0.10,-0.12,0.12,0.99,
1.865,-0.92,1.27,0.07,-0.12,0.12,0.99,
1.867,-0.92,1.27,0.07,-0.12,0.12,0.99,
1.87,-0.92,1.27,0.07,-0.13,0.12,0.99,
1.87,-0.96,1.27,0.08,-0.13,0.12,0.99,
1.872,-0.96,1.27,0.08,-0.12,0.12,0.99,
1.875,-0.96,1.27,0.08,-0.12,0.12,0.99,
1.876,-1.01,1.26,0.10,-0.12,0.12,0.99,
1.877,-1.01,1.26,0.10,-0.12,0.12,1.00,
1.88,-1.01,1.26,0.10,-0.11,0.12,1.00,
1.88,-0.98,1.25,0.12,-0.11,0.12,1.00,
1.883,-0.98,1.25,0.12,-0.10,0.12,1.00,
1.885,-0.98,1.25,0.12,-0.10,0.11,1.01,
1.885,-0.86,1.25,0.17,-0.10,0.11,1.01,
1.887,-0.86,1.25,0.17,-0.09,0.11,1.01,
1.89,-0.86,1.25,0.17,-0.08,0.11,1.01,
1.89,-0.72,1.24,0.23,-0.08,0.11,1.01,
1.892,-0.72,1.24,0.23,-0.07,0.10,1.02,
1.895,-0.72,1.24,0.23,-0.07,0.10,1.02,
1.895,-0.58,1.16,0.29,-0.07,0.10,1.02,
1.897,-0.58,1.16,0.29,-0.06,0.09,1.02,
1.9,-0.58,1.16,0.29,-0.05,0.09,1.02,
1.9,-0.39,1.09,0.34,-0.05,0.09,1.02,
1.902,-0.39,1.09,0.34,-0.04,0.09,1.02,
1.904,-0.39,1.09,0.34,-0.04,0.08,1.03,
1.905,-0.23,1.01,0.39,-0.04,0.08,1.03,
1.907,-0.23,1.01,0.39,-0.03,0.07,1.03,
1.909,-0.23,1.01,0.39,-0.03,0.07,1.03,
1.91,-0.07,0.91,0.42,-0.03,0.07,1.03,
1.912,-0.07,0.91,0.42,-0.02,0.06,1.03,
1.914,-0.07,0.91,0.42,-0.02,0.06,1.03,
1.915,0.04,0.79,0.43,-0.02,0.06,1.03,
1.917,0.04,0.79,0.43,-0.02,0.05,1.03,
1.919,0.04,0.79,0.43,-0.01,0.05,1.03,
1.92,0.14,0.69,0.43,-0.01,0.05,1.03,
1.922,0.14,0.69,0.43,-0.01,0.05,1.03,
1.924,0.14,0.69,0.43,-0.01,0.05,1.03,
1.925,0.24,0.59,0.44,-0.01,0.05,1.03,
1.927,0.24,0.59,0.44,-0.01,0.04,1.03,
1.929,0.24,0.59,0.44,0.00,0.04,1.04,
1.929,0.31,0.55,0.45,0.00,0.04,1.04,
1.931,0.31,0.55,0.45,-0.00,0.04,1.04,
1.934,0.31,0.55,0.45,-0.00,0.04,1.04,
1.934,0.37,0.49,0.48,-0.00,0.04,1.04,
1.936,0.37,0.49,0.48,0.00,0.04,1.04,
1.939,0.37,0.49,0.48,0.00,0.04,1.05,
1.939,0.41,0.47,0.54,0.00,0.04,1.05,
1.946,0.41,0.47,0.54,0.00,0.04,1.05,
1.947,0.41,0.47,0.54,0.00,0.03,1.06,
1.947,0.45,0.46,0.61,0.00,0.03,1.06,
1.947,0.45,0.46,0.61,0.00,0.03,1.06,
1.949,0.45,0.46,0.61,0.01,0.03,1.06,
1.949,0.48,0.45,0.68,0.01,0.03,1.06,
1.951,0.48,0.45,0.68,0.01,0.03,1.07,
1.954,0.48,0.45,0.68,0.01,0.03,1.07,
1.954,0.50,0.43,0.76,0.01,0.03,1.07,
1.956,0.50,0.43,0.76,0.01,0.03,1.07,
1.962,0.50,0.43,0.76,0.01,0.03,1.08,
1.963,0.57,0.42,0.85,0.01,0.03,1.08,
1.963,0.57,0.42,0.85,0.01,0.04,1.08,
1.963,0.57,0.42,0.85,0.02,0.04,1.09,
1.964,0.63,0.42,0.89,0.02,0.04,1.09,
1.965,0.63,0.42,0.89,0.01,0.04,1.09,
1.968,0.63,0.42,0.89,0.01,0.04,1.09,
1.969,0.65,0.46,0.96,0.01,0.04,1.09,
1.97,0.65,0.46,0.96,0.01,0.04,1.09,
1.973,0.65,0.46,0.96,0.01,0.04,1.09,
1.973,0.65,0.50,0.99,0.01,0.04,1.09,
1.975,0.65,0.50,0.99,0.01,0.04,1.09,
1.978,0.65,0.50,0.99,0.01,0.04,1.09,
1.978,0.62,0.51,0.99,0.01,0.04,1.09,
1.98,0.62,0.51,0.99,0.00,0.04,1.08,
1.983,0.62,0.51,0.99,0.00,0.04,1.08,
1.983,0.61,0.50,0.98,0.00,0.04,1.08,
1.985,0.61,0.50,0.98,0.00,0.04,1.08,
1.988,0.61,0.50,0.98,0.00,0.05,1.08,
1.988,0.59,0.51,0.96,0.00,0.05,1.08,
1.99,0.59,0.51,0.96,0.01,0.05,1.08,
1.993,0.59,0.51,0.96,0.00,0.05,1.08,
1.993,0.62,0.53,0.92,0.00,0.05,1.08,
1.996,0.62,0.53,0.92,0.00,0.05,1.08,
1.998,0.62,0.53,0.92,0.00,0.05,1.07,
1.998,0.64,0.57,0.90,0.00,0.05,1.07,
2.0,0.64,0.57,0.90,0.00,0.06,1.07,
2.003,0.64,0.61,0.88,0.00,0.06,1.07,
2.003,0.64,0.61,0.88,0.00,0.06,1.08,
2.005,0.64,0.61,0.88,0.00,0.06,1.08,
2.008,0.64,0.61,0.88,0.00,0.05,1.08,
2.008,0.67,0.63,0.88,0.00,0.05,1.08,
2.01,0.67,0.63,0.88,0.00,0.05,1.08,
2.012,0.67,0.63,0.88,0.00,0.05,1.08,
2.013,0.66,0.62,0.90,0.00,0.05,1.08,
2.015,0.66,0.62,0.90,0.00,0.05,1.08,
2.017,0.66,0.62,0.90,0.00,0.05,1.08,
2.017,0.68,0.58,0.94,0.00,0.05,1.08,
2.02,0.68,0.58,0.94,0.01,0.05,1.08,
2.022,0.68,0.58,0.94,0.01,0.05,1.08,
2.024,0.69,0.55,0.94,0.01,0.05,1.08,
2.024,0.69,0.55,0.94,0.02,0.05,1.08,
2.027,0.69,0.55,0.94,0.02,0.05,1.08,
2.027,0.76,0.53,0.95,0.02,0.05,1.08,
2.029,0.76,0.53,0.95,0.03,0.05,1.08,
2.032,0.76,0.53,0.95,0.03,0.05,1.08,
2.032,0.87,0.52,0.93,0.03,0.05,1.08,
2.034,0.87,0.52,0.93,0.04,0.05,1.08,
2.037,0.87,0.52,0.93,0.04,0.04,1.08,
2.037,0.99,0.53,0.94,0.04,0.04,1.08,
2.04,0.99,0.53,0.94,0.05,0.04,1.08,
2.042,0.99,0.53,0.94,0.05,0.04,1.08,
2.042,1.09,0.48,0.93,0.05,0.04,1.08,
2.044,1.09,0.48,0.93,0.06,0.03,1.08,
2.047,1.09,0.48,0.93,0.06,0.03,1.08,
2.047,1.17,0.41,0.91,0.06,0.03,1.08,
2.049,1.17,0.41,0.91,0.06,0.03,1.08,
2.051,1.17,0.41,0.91,0.07,0.03,1.08,
2.052,1.28,0.35,0.88,0.07,0.03,1.08,
2.054,1.28,0.35,0.88,0.07,0.03,1.08,
2.062,1.35,0.30,0.87,0.07,0.03,1.08,
2.062,1.35,0.30,0.87,0.08,0.02,1.08,
2.063,1.35,0.30,0.87,0.08,0.02,1.08,
2.063,1.35,0.30,0.87,0.08,0.02,1.08,
2.063,1.43,0.26,0.89,0.08,0.02,1.08,
2.063,1.43,0.26,0.89,0.08,0.02,1.08,
2.066,1.43,0.26,0.89,0.08,0.02,1.08,
2.066,1.51,0.21,0.91,0.08,0.02,1.08,
2.068,1.51,0.21,0.91,0.08,0.01,1.08,
2.071,1.51,0.21,0.91,0.08,0.01,1.08,
2.071,1.54,0.17,0.92,0.08,0.01,1.08,
2.075,1.54,0.17,0.92,0.08,0.01,1.08,
2.076,1.55,0.11,0.91,0.08,0.01,1.08,
2.076,1.55,0.11,0.91,0.09,0.01,1.08,
2.078,1.55,0.11,0.91,0.09,0.01,1.08,
2.081,1.55,0.11,0.91,0.09,0.01,1.08,
2.081,1.56,0.05,0.91,0.09,0.01,1.08,
2.083,1.56,0.05,0.91,0.09,0.01,1.08,
2.086,1.56,0.05,0.91,0.09,0.01,1.07,
2.086,1.60,0.03,0.89,0.09,0.01,1.07,
2.088,1.60,0.03,0.89,0.09,0.00,1.07,
2.09,1.60,0.03,0.89,0.09,0.00,1.07,
2.091,1.60,0.01,0.86,0.09,0.00,1.07,
2.093,1.60,0.01,0.86,0.08,0.00,1.07,
2.095,1.60,0.01,0.86,0.09,0.00,1.07,
2.096,1.59,-0.03,0.83,0.09,0.00,1.07,
2.098,1.59,-0.03,0.83,0.08,0.00,1.07,
2.1,1.59,-0.03,0.83,0.08,0.00,1.07,
2.101,1.58,-0.04,0.80,0.08,0.00,1.07,
2.103,1.58,-0.04,0.80,0.08,0.00,1.06,
2.106,1.58,-0.04,0.80,0.08,0.00,1.06,
2.106,1.55,-0.05,0.78,0.08,0.00,1.06,
2.108,1.55,-0.05,0.78,0.07,0.00,1.06,
2.11,1.55,-0.05,0.78,0.07,0.00,1.06,
2.111,1.49,-0.07,0.76,0.07,0.00,1.06,
2.113,1.49,-0.07,0.76,0.07,0.00,1.06,
2.115,1.49,-0.07,0.76,0.07,0.00,1.06,
2.115,1.46,-0.06,0.75,0.07,0.00,1.06,
2.117,1.46,-0.06,0.75,0.07,0.00,1.06,
2.12,1.46,-0.06,0.75,0.07,0.00,1.05,
2.12,1.43,-0.07,0.71,0.07,0.00,1.05,
2.123,1.43,-0.07,0.71,0.07,-0.00,1.05,
2.125,1.43,-0.07,0.71,0.07,0.00,1.04,
2.126,1.42,-0.11,0.65,0.07,0.00,1.04,
2.128,1.42,-0.11,0.65,0.07,-0.00,1.04,
2.13,1.42,-0.11,0.65,0.07,-0.00,1.03,
2.13,1.42,-0.13,0.57,0.07,-0.00,1.03,
2.132,1.42,-0.13,0.57,0.07,-0.00,1.03,
2.135,1.42,-0.13,0.57,0.07,-0.00,1.02,
2.135,1.41,-0.17,0.47,0.07,-0.00,1.02,
2.137,1.41,-0.17,0.47,0.07,-0.00,1.01,
2.14,1.41,-0.17,0.47,0.07,-0.00,1.01,
2.14,1.42,-0.19,0.34,0.07,-0.00,1.01,
2.142,1.42,-0.19,0.34,0.07,-0.00,1.01,
2.144,1.42,-0.19,0.34,0.07,0.00,1.00,
2.145,1.40,-0.20,0.24,0.07,0.00,1.00,
2.147,1.40,-0.20,0.24,0.07,0.00,1.00,
2.149,1.40,-0.20,0.24,0.06,-0.00,0.99,
2.15,1.38,-0.19,0.15,0.06,-0.00,0.99,
2.152,1.38,-0.19,0.15,0.06,0.00,0.99,
2.154,1.38,-0.19,0.15,0.06,0.00,0.99,
2.155,1.36,-0.21,0.08,0.06,0.00,0.99,
2.161,1.36,-0.21,0.08,0.05,-0.00,0.99,
2.162,1.36,-0.21,0.08,0.05,-0.00,1.00,
2.162,1.30,-0.22,0.06,0.05,-0.00,1.00,
2.162,1.30,-0.22,0.06,0.05,-0.00,1.00,
2.164,1.30,-0.22,0.06,0.05,-0.01,1.00,
2.164,1.24,-0.26,0.07,0.05,-0.01,1.00,
2.166,1.24,-0.26,0.07,0.05,-0.01,1.00,
2.169,1.24,-0.26,0.07,0.06,-0.01,1.00,
2.169,1.20,-0.29,0.10,0.06,-0.01,1.00,
2.171,1.20,-0.29,0.10,0.06,-0.01,1.00,
2.174,1.20,-0.29,0.10,0.06,-0.02,1.00,
2.174,1.23,-0.36,0.11,0.06,-0.02,1.00,
2.176,1.23,-0.36,0.11,0.07,-0.02,1.00,
2.179,1.23,-0.36,0.11,0.07,-0.03,0.99,
2.179,1.31,-0.43,0.11,0.07,-0.03,0.99,
2.181,1.31,-0.43,0.11,0.07,-0.03,0.99,
2.183,1.31,-0.43,0.11,0.07,-0.03,0.99,
2.184,1.35,-0.52,0.07,0.07,-0.03,0.99,
2.186,1.35,-0.52,0.07,0.07,-0.04,0.98,
2.189,1.35,-0.52,0.07,0.07,-0.04,0.98,
2.189,1.40,-0.61,0.01,0.07,-0.04,0.98,
2.191,1.40,-0.61,0.01,0.07,-0.05,0.98,
2.194,1.40,-0.61,0.01,0.07,-0.05,0.97,
2.194,1.40,-0.71,-0.04,0.07,-0.05,0.97,
2.196,1.40,-0.71,-0.04,0.07,-0.05,0.97,
2.199,1.40,-0.71,-0.04,0.07,-0.05,0.97,
2.199,1.36,-0.77,-0.12,0.07,-0.05,0.97,
2.2,1.36,-0.77,-0.12,0.07,-0.05,0.96,
2.203,1.36,-0.77,-0.12,0.06,-0.05,0.96,
2.203,1.33,-0.80,-0.20,0.06,-0.05,0.96,
2.206,1.33,-0.80,-0.20,0.06,-0.05,0.96,
2.209,1.33,-0.80,-0.20,0.06,-0.05,0.95,
2.209,1.29,-0.82,-0.27,0.06,-0.05,0.95,
2.211,1.29,-0.82,-0.27,0.05,-0.05,0.95,
2.213,1.29,-0.82,-0.27,0.04,-0.04,0.95,
2.213,1.20,-0.82,-0.32,0.04,-0.04,0.95,
2.215,1.20,-0.82,-0.32,0.03,-0.04,0.95,
2.218,1.20,-0.82,-0.32,0.03,-0.04,0.95,
2.218,1.08,-0.80,-0.35,0.03,-0.04,0.95,
2.22,1.08,-0.80,-0.35,0.02,-0.04,0.95,
2.223,1.08,-0.80,-0.35,0.02,-0.03,0.95,
2.224,0.92,-0.77,-0.37,0.02,-0.03,0.95,
2.225,0.92,-0.77,-0.37,0.01,-0.03,0.95,
2.228,0.80,-0.73,-0.36,0.01,-0.03,0.95,
2.228,0.80,-0.73,-0.36,0.01,-0.03,0.95,
2.23,0.80,-0.73,-0.36,0.00,-0.03,0.96,
2.233,0.80,-0.73,-0.36,0.01,-0.03,0.96,
2.233,0.71,-0.67,-0.33,0.01,-0.03,0.96,
2.235,0.71,-0.67,-0.33,0.01,-0.03,0.96,
2.238,0.67,-0.67,-0.28,0.01,-0.03,0.96,
2.238,0.67,-0.67,-0.28,0.01,-0.03,0.96,
2.245,0.67,-0.67,-0.28,0.01,-0.03,0.96,
2.245,0.67,-0.67,-0.28,0.01,-0.04,0.96,
2.246,0.70,-0.69,-0.24,0.01,-0.04,0.96,
2.246,0.70,-0.69,-0.24,0.02,-0.04,0.97,
2.247,0.70,-0.69,-0.24,0.02,-0.04,0.97,
2.247,0.74,-0.75,-0.22,0.02,-0.04,0.97,
2.249,0.74,-0.75,-0.22,0.02,-0.05,0.97,
2.252,0.74,-0.75,-0.22,0.03,-0.05,0.96,
2.252,0.79,-0.83,-0.20,0.03,-0.05,0.96,
2.254,0.79,-0.83,-0.20,0.03,-0.05,0.96,
2.257,0.79,-0.83,-0.20,0.04,-0.06,0.96,
2.258,0.87,-0.93,-0.21,0.04,-0.06,0.96,
2.259,0.87,-0.93,-0.21,0.04,-0.06,0.96,
2.262,0.87,-0.93,-0.21,0.04,-0.06,0.96,
2.262,0.95,-0.99,-0.23,0.04,-0.06,0.96,
2.264,0.95,-0.99,-0.23,0.05,-0.06,0.95,
2.267,0.95,-0.99,-0.23,0.05,-0.06,0.95,
2.267,1.01,-1.03,-0.27,0.05,-0.06,0.95,
2.269,1.01,-1.03,-0.27,0.05,-0.06,0.95,
2.272,1.01,-1.03,-0.27,0.05,-0.06,0.95,
2.272,1.07,-1.05,-0.32,0.05,-0.06,0.95,
2.274,1.07,-1.05,-0.32,0.05,-0.06,0.95,
2.277,1.07,-1.05,-0.32,0.05,-0.05,0.95,
2.278,1.06,-1.05,-0.36,0.05,-0.05,0.95,
2.279,1.06,-1.05,-0.36,0.04,-0.05,0.95,
2.282,1.06,-1.05,-0.36,0.04,-0.05,0.94,
2.282,1.04,-1.02,-0.38,0.04,-0.05,0.94,
2.284,1.04,-1.02,-0.38,0.04,-0.05,0.94,
2.286,1.04,-1.02,-0.38,0.03,-0.05,0.94,
2.286,0.99,-1.00,-0.40,0.03,-0.05,0.94,
2.289,0.99,-1.00,-0.40,0.03,-0.05,0.94,
2.292,0.99,-1.00,-0.40,0.02,-0.04,0.94,
2.292,0.91,-0.98,-0.43,0.02,-0.04,0.94,
2.294,0.91,-0.98,-0.43,0.02,-0.04,0.94,
2.296,0.91,-0.98,-0.43,0.02,-0.04,0.94,
2.296,0.81,-0.96,-0.45,0.02,-0.04,0.94,
2.298,0.81,-0.96,-0.45,0.02,-0.04,0.94,
2.301,0.81,-0.96,-0.45,0.01,-0.04,0.94,
2.301,0.76,-0.93,-0.47,0.01,-0.04,0.94,
2.303,0.76,-0.93,-0.47,0.01,-0.04,0.94,
2.306,0.76,-0.93,-0.47,0.01,-0.04,0.94,
2.307,0.71,-0.91,-0.47,0.01,-0.04,0.94,
2.308,0.71,-0.91,-0.47,0.01,-0.04,0.94,
2.311,0.71,-0.91,-0.47,0.01,-0.04,0.94,
2.311,0.63,-0.91,-0.48,0.01,-0.04,0.94,
2.313,0.63,-0.91,-0.48,0.01,-0.04,0.94,
2.316,0.63,-0.91,-0.48,0.01,-0.03,0.93,
2.316,0.61,-0.91,-0.49,0.01,-0.03,0.93,
2.318,0.61,-0.91,-0.49,0.01,-0.03,0.93,
2.321,0.61,-0.91,-0.49,0.01,-0.03,0.93,
2.321,0.64,-0.89,-0.49,0.01,-0.03,0.93,
2.323,0.64,-0.89,-0.49,0.02,-0.03,0.93,
2.326,0.64,-0.89,-0.49,0.01,-0.03,0.93,
2.326,0.68,-0.87,-0.50,0.01,-0.03,0.93,
2.328,0.68,-0.87,-0.50,0.01,-0.03,0.93,
2.331,0.68,-0.87,-0.50,0.01,-0.03,0.93,
2.331,0.69,-0.86,-0.51,0.01,-0.03,0.93,
2.333,0.69,-0.86,-0.51,0.01,-0.03,0.94,
2.335,0.69,-0.86,-0.51,0.00,-0.03,0.94,
2.336,0.65,-0.90,-0.50,0.00,-0.03,0.94,
2.338,0.65,-0.90,-0.50,0.00,-0.03,0.94,
2.344,0.65,-0.90,-0.50,-0.00,-0.03,0.94,
2.345,0.59,-0.91,-0.49,-0.00,-0.03,0.94,
2.345,0.59,-0.91,-0.49,-0.01,-0.03,0.94,
2.346,0.59,-0.91,-0.49,-0.01,-0.03,0.94,
2.346,0.53,-0.88,-0.45,-0.01,-0.03,0.94,
2.347,0.53,-0.88,-0.45,-0.02,-0.02,0.95,
2.35,0.53,-0.88,-0.45,-0.02,-0.02,0.95,
2.35,0.43,-0.86,-0.42,-0.02,-0.02,0.95,
2.352,0.43,-0.86,-0.42,-0.02,-0.02,0.95,
2.361,0.43,-0.86,-0.42,-0.03,-0.02,0.96,
2.362,0.37,-0.81,-0.36,-0.03,-0.02,0.96,
2.362,0.37,-0.81,-0.36,-0.03,-0.02,0.96,
2.362,0.37,-0.81,-0.36,-0.04,-0.02,0.96,
2.362,0.30,-0.78,-0.28,-0.04,-0.02,0.96,
2.362,0.30,-0.78,-0.28,-0.04,-0.02,0.96,
2.365,0.30,-0.78,-0.28,-0.04,-0.01,0.97,
2.365,0.20,-0.76,-0.24,-0.04,-0.01,0.97,
2.367,0.20,-0.76,-0.24,-0.04,-0.01,0.97,
2.37,0.20,-0.76,-0.24,-0.04,-0.01,0.97,
2.37,0.15,-0.73,-0.18,-0.04,-0.01,0.97,
2.373,0.15,-0.73,-0.18,-0.04,-0.00,0.97,
2.375,0.15,-0.73,-0.18,-0.04,-0.00,0.97,
2.375,0.12,-0.67,-0.13,-0.04,-0.00,0.97,
2.377,0.12,-0.67,-0.13,-0.04,-0.01,0.98,
2.38,0.12,-0.67,-0.13,-0.04,-0.01,0.97,
2.38,0.12,-0.63,-0.10,-0.04,-0.01,0.97,
2.382,0.12,-0.63,-0.10,-0.03,-0.01,0.97,
2.384,0.12,-0.63,-0.10,-0.03,-0.01,0.97,
2.384,0.16,-0.66,-0.09,-0.03,-0.01,0.97,
2.387,0.16,-0.66,-0.09,-0.03,-0.01,0.97,
2.389,0.16,-0.66,-0.09,-0.02,-0.02,0.97,
2.39,0.22,-0.69,-0.11,-0.02,-0.02,0.97,
2.392,0.22,-0.69,-0.11,-0.02,-0.02,0.96,
2.394,0.22,-0.69,-0.11,-0.02,-0.02,0.96,
2.394,0.28,-0.72,-0.16,-0.02,-0.02,0.96,
2.397,0.28,-0.72,-0.16,-0.01,-0.02,0.95,
2.399,0.28,-0.72,-0.16,-0.01,-0.02,0.95,
2.399,0.33,-0.77,-0.24,-0.01,-0.02,0.95,
2.401,0.33,-0.77,-0.24,-0.00,-0.02,0.95,
2.404,0.33,-0.77,-0.24,-0.00,-0.02,0.95,
2.404,0.42,-0.78,-0.30,-0.00,-0.02,0.95,
2.406,0.42,-0.78,-0.30,0.00,-0.02,0.95,
2.409,0.42,-0.78,-0.30,0.00,-0.02,0.95,
2.409,0.48,-0.78,-0.32,0.00,-0.02,0.95,
2.411,0.48,-0.78,-0.32,0.00,-0.02,0.95,
2.414,0.48,-0.78,-0.32,-0.00,-0.02,0.96,
2.414,0.52,-0.78,-0.31,-0.00,-0.02,0.96,
2.416,0.52,-0.78,-0.31,-0.00,-0.03,0.96,
2.419,0.52,-0.78,-0.31,-0.01,-0.03,0.96,
2.419,0.49,-0.81,-0.28,-0.01,-0.03,0.96,
2.421,0.49,-0.81,-0.28,-0.01,-0.03,0.96,
2.424,0.49,-0.81,-0.28,-0.01,-0.03,0.96,
2.424,0.44,-0.83,-0.24,-0.01,-0.03,0.96,
2.426,0.44,-0.83,-0.24,-0.01,-0.02,0.96,
2.429,0.44,-0.83,-0.24,-0.02,-0.02,0.96,
2.429,0.39,-0.83,-0.23,-0.02,-0.02,0.96,
2.431,0.39,-0.83,-0.23,-0.02,-0.01,0.96,
2.433,0.39,-0.83,-0.23,-0.03,-0.01,0.96,
2.434,0.32,-0.76,-0.22,-0.03,-0.01,0.96,
2.436,0.32,-0.76,-0.22,-0.03,-0.01,0.96,
2.445,0.32,-0.76,-0.22,-0.03,-0.01,0.96,
2.446,0.25,-0.67,-0.22,-0.03,-0.01,0.96,
2.446,0.25,-0.67,-0.22,-0.03,-0.00,0.96,
2.446,0.25,-0.67,-0.22,-0.04,0.00,0.96,
2.446,0.16,-0.62,-0.24,-0.04,0.00,0.96,
2.447,0.16,-0.62,-0.24,-0.04,0.00,0.96,
2.448,0.16,-0.62,-0.24,-0.05,0.00,0.96,
2.448,0.11,-0.55,-0.24,-0.05,0.00,0.96,
2.45,0.11,-0.55,-0.24,-0.05,0.01,0.96,
2.453,0.11,-0.55,-0.24,-0.05,0.01,0.96,
2.454,0.03,-0.52,-0.24,-0.05,0.01,0.96,
2.461,0.03,-0.52,-0.24,-0.06,0.01,0.96,
2.461,0.03,-0.52,-0.24,-0.06,0.01,0.96,
2.462,-0.04,-0.47,-0.24,-0.06,0.01,0.96,
2.462,-0.04,-0.47,-0.24,-0.06,0.02,0.96,
2.465,-0.04,-0.47,-0.24,-0.06,0.02,0.96,
2.465,-0.10,-0.42,-0.24,-0.06,0.02,0.96,
2.465,-0.10,-0.42,-0.24,-0.06,0.02,0.96,
2.468,-0.10,-0.35,-0.22,-0.06,0.02,0.96,
2.468,-0.10,-0.35,-0.22,-0.06,0.02,0.96,
2.47,-0.10,-0.35,-0.22,-0.06,0.02,0.96,
2.472,-0.10,-0.35,-0.22,-0.06,0.02,0.96,
2.473,-0.13,-0.32,-0.21,-0.06,0.02,0.96,
2.475,-0.13,-0.32,-0.21,-0.06,0.02,0.96,
2.477,-0.13,-0.32,-0.21,-0.06,0.02,0.96,
2.477,-0.09,-0.33,-0.21,-0.06,0.02,0.96,
2.48,-0.09,-0.33,-0.21,-0.05,0.02,0.96,
2.483,-0.09,-0.33,-0.21,-0.05,0.02,0.96,
2.483,-0.09,-0.31,-0.21,-0.05,0.02,0.96,
2.484,-0.09,-0.31,-0.21,-0.04,0.02,0.96,
2.487,-0.09,-0.31,-0.21,-0.04,0.02,0.96,
2.488,-0.03,-0.32,-0.18,-0.04,0.02,0.96,
2.489,-0.03,-0.32,-0.18,-0.03,0.02,0.96,
2.492,0.07,-0.33,-0.16,-0.03,0.02,0.96,
2.493,0.07,-0.33,-0.16,-0.03,0.02,0.97,
2.494,0.07,-0.33,-0.16,-0.03,0.02,0.97,
2.497,0.07,-0.33,-0.16,-0.03,0.02,0.97,
2.498,0.14,-0.34,-0.15,-0.03,0.02,0.97,
2.499,0.14,-0.34,-0.15,-0.02,0.01,0.97,
2.502,0.14,-0.34,-0.15,-0.02,0.01,0.97,
2.502,0.19,-0.37,-0.12,-0.02,0.01,0.97,
2.505,0.19,-0.37,-0.12,-0.02,0.01,0.97,
2.507,0.19,-0.37,-0.12,-0.01,0.01,0.97,
2.507,0.23,-0.41,-0.11,-0.01,0.01,0.97,
2.509,0.23,-0.41,-0.11,-0.00,0.01,0.97,
2.512,0.23,-0.41,-0.11,-0.00,0.01,0.97,
2.512,0.30,-0.43,-0.12,-0.00,0.01,0.97,
2.514,0.30,-0.43,-0.12,-0.00,0.01,0.97,
2.517,0.30,-0.43,-0.12,-0.01,0.01,0.97,
2.517,0.39,-0.43,-0.09,-0.01,0.01,0.97,
2.519,0.39,-0.43,-0.09,-0.01,0.01,0.97,
2.522,0.39,-0.43,-0.09,-0.01,0.01,0.97,
2.523,0.38,-0.43,-0.06,-0.01,0.01,0.97,
2.524,0.38,-0.43,-0.06,-0.01,0.01,0.98,
2.527,0.32,-0.44,-0.05,-0.01,0.01,0.98,
2.527,0.32,-0.44,-0.05,-0.02,0.00,0.98,
2.529,0.32,-0.44,-0.05,-0.02,0.01,0.98,
2.531,0.32,-0.44,-0.05,-0.03,0.01,0.98,
2.531,0.24,-0.46,-0.03,-0.03,0.01,0.98,
2.534,0.24,-0.46,-0.03,-0.03,0.01,0.97,
2.536,0.24,-0.46,-0.03,-0.03,0.01,0.97,
2.537,0.16,-0.44,-0.03,-0.03,0.01,0.97,
2.539,0.16,-0.44,-0.03,-0.04,0.02,0.97,
2.541,0.16,-0.44,-0.03,-0.04,0.02,0.97,
2.541,0.09,-0.39,-0.06,-0.04,0.02,0.97,
2.543,0.09,-0.39,-0.06,-0.04,0.03,0.97,
2.546,0.09,-0.39,-0.06,-0.04,0.03,0.97,
2.546,0.03,-0.32,-0.07,-0.04,0.03,0.97,
2.548,0.03,-0.32,-0.07,-0.05,0.03,0.96,
2.551,0.03,-0.32,-0.07,-0.05,0.03,0.96,
2.551,-0.03,-0.23,-0.11,-0.05,0.03,0.96,
2.553,-0.03,-0.23,-0.11,-0.05,0.03,0.96,
2.556,-0.10,-0.19,-0.18,-0.05,0.03,0.96,
2.557,-0.10,-0.19,-0.18,-0.05,0.03,0.96,
2.558,-0.10,-0.19,-0.18,-0.05,0.04,0.96,
2.561,-0.10,-0.19,-0.18,-0.05,0.04,0.96,
2.561,-0.13,-0.16,-0.21,-0.05,0.04,0.96,
2.563,-0.13,-0.16,-0.21,-0.05,0.04,0.96,
2.566,-0.13,-0.16,-0.21,-0.04,0.03,0.91,
2.566,-0.13,-0.13,-0.20,-0.04,0.03,0.91,
2.568,-0.13,-0.13,-0.20,-0.03,0.03,0.81,
2.57,-0.13,-0.13,-0.20,-0.02,0.02,0.76,
2.571,-0.08,-0.14,-0.45,-0.02,0.02,0.76,
2.578,-0.08,-0.14,-0.45,-0.02,0.03,0.77,
2.579,-0.08,-0.14,-0.45,-0.03,0.04,0.81,
2.579,0.17,-0.23,-1.90,-0.03,0.04,0.81,
2.579,0.17,-0.23,-1.90,-0.04,0.04,0.84,
2.581,0.17,-0.23,-1.90,-0.05,0.03,0.85,
2.581,0.18,-0.14,-1.78,-0.05,0.03,0.85,
2.583,0.18,-0.14,-1.78,-0.05,0.03,0.86,
2.585,0.18,-0.14,-1.78,-0.05,0.02,0.87,
2.585,0.01,-0.11,-1.29,-0.05,0.02,0.87,
2.588,0.01,-0.11,-1.29,-0.05,0.01,0.90,
2.59,-0.07,-0.20,-1.08,-0.05,0.01,0.90,
2.59,-0.07,-0.20,-1.08,-0.05,0.01,0.92,
2.592,-0.07,-0.20,-1.08,-0.04,0.00,0.95,
2.595,-0.07,-0.20,-1.08,-0.04,0.00,0.97,
2.595,-0.05,-0.33,-0.65,-0.04,0.00,0.97,
2.597,-0.05,-0.33,-0.65,-0.03,0.01,0.99,
2.6,-0.05,-0.33,-0.65,-0.03,0.00,1.00,
2.6,0.06,-0.37,-0.16,-0.03,0.00,1.00,
2.602,0.06,-0.37,-0.16,-0.03,0.00,1.02,
2.605,0.06,-0.37,-0.16,-0.03,-0.00,1.03,
2.605,0.10,-0.35,0.20,-0.03,-0.00,1.03,
2.607,0.10,-0.35,0.20,-0.03,-0.00,1.04,
2.61,0.10,-0.35,0.20,-0.03,-0.00,1.05,
2.61,0.14,-0.39,0.48,-0.03,-0.00,1.05,
2.612,0.14,-0.39,0.48,-0.03,-0.00,1.06,
2.614,0.14,-0.39,0.48,-0.03,-0.00,1.06,
2.615,0.14,-0.42,0.71,-0.03,-0.00,1.06,
2.617,0.14,-0.42,0.71,-0.03,-0.00,1.07,
2.62,0.14,-0.42,0.71,-0.03,-0.00,1.07,
2.62,0.12,-0.42,0.85,-0.03,-0.00,1.07,
2.622,0.12,-0.42,0.85,-0.03,-0.00,1.07,
2.624,0.12,-0.42,0.85,-0.02,0.00,1.07,
2.625,0.12,-0.40,0.92,-0.02,0.00,1.07,
2.627,0.12,-0.40,0.92,-0.02,-0.00,1.06,
2.629,0.12,-0.40,0.92,-0.01,-0.00,1.06,
2.629,0.17,-0.39,0.92,-0.01,-0.00,1.06,
2.631,0.17,-0.39,0.92,-0.00,-0.00,1.05,
2.634,0.17,-0.39,0.92,-0.00,0.00,1.03,
2.634,0.24,-0.41,0.81,-0.00,0.00,1.03,
2.637,0.24,-0.41,0.81,0.00,0.01,1.01,
2.639,0.24,-0.41,0.81,0.00,0.01,1.00,
2.639,0.35,-0.39,0.60,0.00,0.01,1.00,
2.641,0.35,-0.39,0.60,-0.00,0.01,0.99,
2.644,0.35,-0.39,0.60,-0.01,0.02,0.98,
2.644,0.37,-0.32,0.29,-0.01,0.02,0.98,
2.646,0.37,-0.32,0.29,-0.01,0.02,0.97,
2.649,0.37,-0.32,0.29,-0.01,0.02,0.97,
2.649,0.32,-0.26,0.07,-0.01,0.02,0.97,
2.651,0.32,-0.26,0.07,-0.01,0.02,0.96,
2.659,0.32,-0.26,0.07,-0.02,0.03,0.96,
2.659,0.25,-0.22,-0.09,-0.02,0.03,0.96,
2.659,0.25,-0.22,-0.09,-0.03,0.03,0.96,
2.659,0.25,-0.22,-0.09,-0.03,0.03,0.97,
2.66,0.16,-0.18,-0.15,-0.03,0.03,0.97,
