
time,ax,ay,az,gFx,gFy,gFz,
0.001,0.01,-0.01,0.11,0.04,0.06,0.97,
0.001,-0.02,0.01,0.04,0.04,0.06,0.97,
0.002,-0.02,0.01,0.04,0.04,0.06,0.97,
0.003,-0.02,0.01,0.04,0.04,0.06,0.97,
0.003,-0.01,-0.00,-0.03,0.04,0.06,0.97,
0.005,-0.01,-0.00,-0.03,0.05,0.06,0.97,
0.008,-0.01,-0.00,-0.03,0.05,0.06,0.96,
0.008,0.01,-0.00,-0.09,0.05,0.06,0.96,
0.01,0.01,-0.00,-0.09,0.05,0.06,0.96,
0.013,0.01,-0.00,-0.09,0.05,0.06,0.96,
0.013,0.05,-0.03,-0.12,0.05,0.06,0.96,
0.015,0.05,-0.03,-0.12,0.05,0.06,0.96,
0.018,0.05,-0.03,-0.12,0.05,0.06,0.96,
0.018,0.08,-0.04,-0.16,0.05,0.06,0.96,
0.02,0.08,-0.04,-0.16,0.06,0.06,0.96,
0.023,0.10,-0.03,-0.16,0.06,0.06,0.96,
0.023,0.10,-0.03,-0.16,0.06,0.06,0.96,
0.025,0.10,-0.03,-0.16,0.05,0.06,0.96,
0.027,0.10,-0.03,-0.16,0.05,0.06,0.96,
0.027,0.12,-0.02,-0.16,0.05,0.06,0.96,
0.03,0.12,-0.02,-0.16,0.05,0.06,0.96,
0.032,0.12,-0.02,-0.16,0.05,0.06,0.96,
0.032,0.10,-0.02,-0.15,0.05,0.06,0.96,
0.035,0.10,-0.02,-0.15,0.05,0.06,0.96,
0.038,0.10,-0.02,-0.15,0.05,0.06,0.97,
0.038,0.09,-0.01,-0.13,0.05,0.06,0.97,
0.039,0.09,-0.01,-0.13,0.05,0.06,0.97,
0.042,0.09,-0.01,-0.13,0.05,0.06,0.97,
0.042,0.05,-0.03,-0.11,0.05,0.06,0.97,
0.044,0.05,-0.03,-0.11,0.05,0.06,0.98,
0.05,0.05,-0.03,-0.11,0.04,0.05,0.98,
0.05,0.03,-0.05,-0.05,0.04,0.05,0.98,
0.05,0.03,-0.05,-0.05,0.04,0.05,0.98,
0.052,0.03,-0.05,-0.05,0.04,0.05,0.98,
0.052,0.00,-0.07,-0.00,0.04,0.05,0.98,
0.055,0.00,-0.07,-0.00,0.03,0.05,0.98,
0.057,0.00,-0.07,-0.00,0.03,0.05,0.99,
0.057,-0.05,-0.07,0.04,0.03,0.05,0.99,
0.059,-0.05,-0.07,0.04,0.03,0.05,0.99,
0.062,-0.05,-0.07,0.04,0.03,0.05,0.99,
0.062,-0.11,-0.09,0.08,0.03,0.05,0.99,
0.064,-0.11,-0.09,0.08,0.03,0.05,0.99,
0.067,-0.11,-0.09,0.08,0.03,0.05,0.99,
0.067,-0.15,-0.09,0.11,0.03,0.05,0.99,
0.069,-0.15,-0.09,0.11,0.03,0.05,0.99,
0.072,-0.15,-0.09,0.11,0.03,0.05,0.99,
0.072,-0.16,-0.11,0.12,0.03,0.05,0.99,
0.074,-0.16,-0.11,0.12,0.03,0.05,0.99,
0.076,-0.16,-0.11,0.12,0.03,0.05,0.99,
0.076,-0.16,-0.11,0.11,0.03,0.05,0.99,
0.079,-0.16,-0.11,0.11,0.03,0.05,0.99,
0.081,-0.16,-0.11,0.11,0.03,0.05,0.99,
0.081,-0.16,-0.10,0.11,0.03,0.05,0.99,
0.084,-0.16,-0.10,0.11,0.03,0.05,0.98,
0.086,-0.16,-0.10,0.11,0.03,0.05,0.98,
0.086,-0.13,-0.10,0.09,0.03,0.05,0.98,
0.089,-0.13,-0.10,0.09,0.03,0.05,0.98,
0.091,-0.13,-0.10,0.09,0.03,0.05,0.98,
0.091,-0.13,-0.07,0.04,0.03,0.05,0.98,
0.093,-0.13,-0.07,0.04,0.04,0.06,0.98,
0.096,-0.13,-0.07,0.04,0.04,0.06,0.97,
0.096,-0.09,-0.06,0.00,0.04,0.06,0.97,
0.098,-0.09,-0.06,0.00,0.04,0.06,0.97,
0.101,-0.09,-0.06,0.00,0.04,0.06,0.97,
0.101,-0.05,-0.03,-0.03,0.04,0.06,0.97,
0.103,-0.05,-0.03,-0.03,0.04,0.06,0.97,
0.106,-0.05,-0.03,-0.03,0.05,0.06,0.97,
0.106,-0.02,-0.01,-0.07,0.05,0.06,0.97,
0.108,-0.02,-0.01,-0.07,0.05,0.06,0.97,
0.111,-0.02,-0.01,-0.07,0.05,0.06,0.97,
0.111,0.01,-0.01,-0.08,0.05,0.06,0.97,
0.114,0.01,-0.01,-0.08,0.05,0.06,0.97,
0.115,0.01,-0.01,-0.08,0.05,0.07,0.97,
0.116,0.04,-0.00,-0.10,0.05,0.07,0.97,
0.118,0.04,-0.00,-0.10,0.05,0.07,0.97,
0.12,0.04,-0.00,-0.10,0.05,0.07,0.97,
0.121,0.06,0.03,-0.11,0.05,0.07,0.97,
0.123,0.06,0.03,-0.11,0.05,0.07,0.97,
0.125,0.06,0.03,-0.11,0.05,0.06,0.97,
0.126,0.07,0.04,-0.09,0.05,0.06,0.97,
0.128,0.07,0.04,-0.09,0.05,0.06,0.97,
0.131,0.07,0.04,-0.09,0.05,0.07,0.97,
0.131,0.06,0.04,-0.07,0.05,0.07,0.97,
0.133,0.06,0.04,-0.07,0.05,0.07,0.97,
0.135,0.06,0.04,-0.07,0.05,0.06,0.97,
0.135,0.06,0.05,-0.06,0.05,0.06,0.97,
0.137,0.06,0.05,-0.06,0.05,0.07,0.97,
0.14,0.06,0.05,-0.06,0.05,0.06,0.97,
0.14,0.05,0.04,-0.04,0.05,0.06,0.97,
0.142,0.05,0.04,-0.04,0.05,0.06,0.98,
0.145,0.05,0.04,-0.04,0.05,0.06,0.98,
0.145,0.03,0.04,-0.03,0.05,0.06,0.98,
0.147,0.03,0.04,-0.03,0.05,0.06,0.98,
0.15,0.03,0.04,-0.03,0.04,0.06,0.98,
0.15,0.02,0.04,-0.01,0.04,0.06,0.98,
0.152,0.02,0.04,-0.01,0.04,0.06,0.98,
0.155,0.02,0.04,-0.01,0.04,0.06,0.98,
0.155,0.01,0.02,0.01,0.04,0.06,0.98,
0.157,0.01,0.02,0.01,0.04,0.06,0.98,
0.159,0.01,0.02,0.01,0.04,0.06,0.98,
0.16,-0.03,0.03,0.02,0.04,0.06,0.98,
0.162,-0.03,0.03,0.02,0.03,0.06,0.98,
0.171,-0.03,0.03,0.02,0.03,0.06,0.98,
0.171,-0.07,0.03,0.02,0.03,0.06,0.98,
0.171,-0.07,0.03,0.02,0.03,0.06,0.98,
0.171,-0.07,0.03,0.02,0.03,0.06,0.98,
0.171,-0.11,0.01,0.01,0.03,0.06,0.98,
0.172,-0.11,0.01,0.01,0.03,0.06,0.97,
0.175,-0.11,0.01,0.01,0.03,0.06,0.97,
0.175,-0.13,0.01,-0.01,0.03,0.06,0.97,
0.177,-0.13,0.01,-0.01,0.03,0.06,0.97,
0.179,-0.13,0.01,-0.01,0.03,0.06,0.97,
0.179,-0.15,0.01,-0.03,0.03,0.06,0.97,
0.181,-0.15,0.01,-0.03,0.03,0.06,0.97,
0.184,-0.15,0.01,-0.03,0.02,0.06,0.97,
0.184,-0.16,0.00,-0.05,0.02,0.06,0.97,
0.186,-0.16,0.00,-0.05,0.03,0.06,0.97,
0.189,-0.16,0.00,-0.05,0.02,0.06,0.97,
0.189,-0.19,-0.02,-0.07,0.02,0.06,0.97,
0.192,-0.19,-0.02,-0.07,0.02,0.06,0.97,
0.194,-0.19,-0.02,-0.07,0.02,0.06,0.97,
0.194,-0.19,-0.01,-0.09,0.02,0.06,0.97,
0.197,-0.19,-0.01,-0.09,0.02,0.06,0.97,
0.199,-0.19,-0.01,-0.09,0.03,0.06,0.97,
0.199,-0.20,-0.01,-0.10,0.03,0.06,0.97,
0.201,-0.20,-0.01,-0.10,0.03,0.06,0.97,
0.204,-0.20,-0.01,-0.10,0.03,0.06,0.97,
0.204,-0.18,-0.01,-0.09,0.03,0.06,0.97,
0.206,-0.18,-0.01,-0.09,0.03,0.06,0.97,
0.209,-0.18,-0.01,-0.09,0.03,0.06,0.97,
0.209,-0.16,0.03,-0.09,0.03,0.06,0.97,
0.211,-0.16,0.03,-0.09,0.03,0.06,0.97,
0.214,-0.16,0.03,-0.09,0.03,0.06,0.97,
0.214,-0.16,0.04,-0.09,0.03,0.06,0.97,
0.216,-0.16,0.04,-0.09,0.03,0.06,0.97,
0.218,-0.16,0.04,-0.09,0.03,0.06,0.97,
0.219,-0.16,0.03,-0.07,0.03,0.06,0.97,
0.221,-0.16,0.03,-0.07,0.03,0.06,0.97,
0.223,-0.16,0.03,-0.07,0.03,0.06,0.97,
0.223,-0.14,0.03,-0.05,0.03,0.06,0.97,
0.226,-0.14,0.03,-0.05,0.03,0.06,0.98,
0.228,-0.14,0.03,-0.05,0.03,0.07,0.98,
0.228,-0.11,0.03,-0.02,0.03,0.07,0.98,
0.231,-0.11,0.03,-0.02,0.03,0.07,0.98,
0.233,-0.11,0.03,-0.02,0.03,0.07,0.98,
0.234,-0.12,0.04,0.01,0.03,0.07,0.98,
0.235,-0.12,0.04,0.01,0.03,0.07,0.98,
0.238,-0.12,0.04,0.01,0.03,0.06,0.99,
0.238,-0.11,0.05,0.05,0.03,0.06,0.99,
0.24,-0.11,0.05,0.05,0.03,0.06,0.99,
0.243,-0.11,0.05,0.05,0.03,0.06,0.99,
0.243,-0.11,0.05,0.10,0.03,0.06,0.99,
0.246,-0.11,0.05,0.10,0.03,0.06,0.99,
0.254,-0.11,0.05,0.10,0.03,0.06,0.99,
0.254,-0.12,0.03,0.14,0.03,0.06,0.99,
0.255,-0.12,0.03,0.14,0.03,0.06,1.00,
0.255,-0.12,0.03,0.14,0.03,0.06,1.00,
0.255,-0.14,0.02,0.17,0.03,0.06,1.00,
0.255,-0.14,0.02,0.17,0.03,0.06,1.00,
0.258,-0.14,0.02,0.17,0.03,0.06,1.00,
0.258,-0.16,0.02,0.19,0.03,0.06,1.00,
0.26,-0.16,0.02,0.19,0.03,0.06,1.00,
0.263,-0.16,0.02,0.19,0.03,0.06,1.00,
0.263,-0.16,0.02,0.19,0.03,0.06,1.00,
0.265,-0.16,0.02,0.19,0.03,0.06,1.00,
0.268,-0.16,0.02,0.19,0.02,0.06,1.00,
0.268,-0.16,0.04,0.20,0.02,0.06,1.00,
0.27,-0.16,0.04,0.20,0.03,0.07,1.00,
0.272,-0.16,0.04,0.20,0.03,0.06,1.00,
0.273,-0.19,0.03,0.20,0.03,0.06,1.00,
0.275,-0.19,0.03,0.20,0.03,0.06,1.00,
0.277,-0.19,0.03,0.20,0.03,0.07,1.00,
0.278,-0.18,0.05,0.20,0.03,0.07,1.00,
0.28,-0.18,0.05,0.20,0.03,0.07,1.00,
0.282,-0.18,0.05,0.20,0.03,0.07,1.00,
0.282,-0.16,0.05,0.19,0.03,0.07,1.00,
0.285,-0.16,0.05,0.19,0.04,0.06,1.00,
0.287,-0.16,0.05,0.19,0.04,0.06,1.00,
0.287,-0.12,0.06,0.20,0.04,0.06,1.00,
0.289,-0.12,0.06,0.20,0.04,0.07,1.00,
0.292,-0.12,0.06,0.20,0.04,0.07,1.00,
0.292,-0.08,0.03,0.23,0.04,0.07,1.00,
0.294,-0.08,0.03,0.23,0.05,0.07,1.01,
0.297,-0.08,0.03,0.23,0.05,0.07,1.01,
0.299,-0.05,0.06,0.26,0.05,0.07,1.01,
0.3,-0.05,0.06,0.26,0.05,0.07,1.01,
0.302,-0.05,0.06,0.26,0.05,0.07,1.01,
0.302,0.00,0.07,0.28,0.05,0.07,1.01,
0.304,0.00,0.07,0.28,0.05,0.07,1.01,
0.306,0.00,0.07,0.28,0.06,0.08,1.01,
0.307,0.05,0.09,0.31,0.06,0.08,1.01,
0.309,0.05,0.09,0.31,0.06,0.08,1.01,
0.312,0.05,0.09,0.31,0.06,0.08,1.01,
0.312,0.08,0.12,0.33,0.06,0.08,1.01,
0.314,0.08,0.12,0.33,0.06,0.08,1.01,
0.316,0.08,0.12,0.33,0.06,0.07,1.01,
0.316,0.10,0.16,0.33,0.06,0.07,1.01,
0.319,0.10,0.16,0.33,0.06,0.08,1.01,
0.321,0.10,0.16,0.33,0.06,0.08,1.01,
0.321,0.11,0.15,0.33,0.06,0.08,1.01,
0.324,0.11,0.15,0.33,0.06,0.08,1.01,
0.326,0.11,0.15,0.33,0.06,0.08,1.01,
0.326,0.11,0.14,0.32,0.06,0.08,1.01,
0.329,0.11,0.14,0.32,0.05,0.08,1.01,
0.331,0.11,0.14,0.32,0.05,0.08,1.01,
0.331,0.09,0.16,0.31,0.05,0.08,1.01,
0.333,0.09,0.16,0.31,0.05,0.08,1.01,
0.336,0.09,0.16,0.31,0.05,0.08,1.01,
0.336,0.06,0.16,0.28,0.05,0.08,1.01,
0.338,0.06,0.16,0.28,0.05,0.08,1.01,
0.341,0.06,0.16,0.28,0.04,0.08,1.00,
0.341,0.03,0.15,0.27,0.04,0.08,1.00,
0.343,0.03,0.15,0.27,0.04,0.08,1.00,
0.353,0.03,0.15,0.27,0.04,0.08,1.00,
0.354,-0.02,0.18,0.24,0.04,0.08,1.00,
0.354,-0.02,0.18,0.24,0.03,0.08,1.00,
0.354,-0.02,0.18,0.24,0.03,0.09,1.00,
0.354,-0.09,0.20,0.21,0.03,0.09,1.00,
0.354,-0.09,0.20,0.21,0.03,0.09,1.00,
0.356,-0.09,0.20,0.21,0.02,0.09,1.00,
0.356,-0.14,0.22,0.20,0.02,0.09,1.00,
0.358,-0.14,0.22,0.20,0.02,0.09,0.99,
0.36,-0.14,0.22,0.20,0.02,0.09,0.99,
0.36,-0.18,0.23,0.16,0.02,0.09,0.99,
0.363,-0.18,0.23,0.16,0.02,0.09,0.99,
0.365,-0.18,0.23,0.16,0.01,0.09,0.99,
0.365,-0.23,0.22,0.12,0.01,0.09,0.99,
0.368,-0.23,0.22,0.12,0.01,0.09,0.99,
0.37,-0.23,0.22,0.12,0.01,0.09,0.99,
0.371,-0.29,0.21,0.09,0.01,0.09,0.99,
0.372,-0.29,0.21,0.09,0.01,0.09,0.99,
0.375,-0.29,0.21,0.09,0.00,0.09,0.99,
0.376,-0.34,0.21,0.06,0.00,0.09,0.99,
0.378,-0.34,0.21,0.06,0.00,0.09,0.99,
0.38,-0.34,0.21,0.06,0.00,0.09,0.99,
0.38,-0.37,0.21,0.04,0.00,0.09,0.99,
0.382,-0.37,0.21,0.04,0.00,0.08,0.99,
0.385,-0.37,0.21,0.04,-0.00,0.08,0.99,
0.385,-0.41,0.19,0.05,-0.00,0.08,0.99,
0.387,-0.41,0.19,0.05,-0.00,0.08,0.99,
0.39,-0.41,0.19,0.05,-0.00,0.08,0.99,
0.39,-0.42,0.17,0.06,-0.00,0.08,0.99,
0.392,-0.42,0.17,0.06,-0.01,0.08,0.99,
0.395,-0.42,0.17,0.06,-0.01,0.08,0.99,
0.395,-0.44,0.13,0.09,-0.01,0.08,0.99,
0.397,-0.44,0.13,0.09,-0.01,0.08,1.00,
0.4,-0.44,0.13,0.09,-0.01,0.08,1.00,
0.4,-0.48,0.14,0.12,-0.01,0.08,1.00,
0.402,-0.48,0.14,0.12,-0.01,0.08,1.00,
0.404,-0.48,0.14,0.12,-0.01,0.08,1.00,
0.405,-0.49,0.10,0.16,-0.01,0.08,1.00,
0.407,-0.49,0.10,0.16,-0.01,0.08,1.00,
0.409,-0.49,0.10,0.16,-0.02,0.07,1.00,
0.41,-0.52,0.09,0.19,-0.02,0.07,1.00,
0.412,-0.52,0.09,0.19,-0.02,0.07,1.01,
0.415,-0.52,0.09,0.19,-0.02,0.07,1.01,
0.415,-0.55,0.08,0.22,-0.02,0.07,1.01,
0.417,-0.55,0.08,0.22,-0.02,0.07,1.01,
0.419,-0.55,0.08,0.22,-0.03,0.07,1.01,
0.419,-0.60,0.06,0.25,-0.03,0.07,1.01,
0.421,-0.60,0.06,0.25,-0.03,0.07,1.01,
0.424,-0.60,0.06,0.25,-0.03,0.06,1.01,
0.424,-0.65,0.01,0.26,-0.03,0.06,1.01,
0.426,-0.65,0.01,0.26,-0.03,0.06,1.01,
0.429,-0.65,0.01,0.26,-0.04,0.06,1.01,
0.431,-0.70,-0.02,0.26,-0.04,0.06,1.01,
0.432,-0.70,-0.02,0.26,-0.04,0.06,1.01,
0.435,-0.75,-0.05,0.27,-0.04,0.06,1.01,
0.436,-0.75,-0.05,0.27,-0.04,0.06,1.01,
0.436,-0.75,-0.05,0.27,-0.05,0.06,1.01,
0.439,-0.75,-0.05,0.27,-0.05,0.06,1.01,
0.439,-0.78,-0.09,0.26,-0.05,0.06,1.01,
0.441,-0.78,-0.09,0.26,-0.05,0.06,1.01,
0.444,-0.78,-0.09,0.26,-0.05,0.05,1.01,
0.444,-0.84,-0.12,0.25,-0.05,0.05,1.01,
0.447,-0.84,-0.12,0.25,-0.06,0.05,1.01,
0.449,-0.84,-0.12,0.25,-0.06,0.05,1.01,
0.449,-0.88,-0.15,0.25,-0.06,0.05,1.01,
0.451,-0.88,-0.15,0.25,-0.06,0.05,1.01,
0.453,-0.88,-0.15,0.25,-0.06,0.04,1.01,
0.454,-0.92,-0.20,0.26,-0.06,0.04,1.01,
0.456,-0.92,-0.20,0.26,-0.06,0.04,1.01,
0.458,-0.92,-0.20,0.26,-0.06,0.04,1.01,
0.458,-0.91,-0.22,0.26,-0.06,0.04,1.01,
0.461,-0.91,-0.22,0.26,-0.06,0.04,1.01,
0.466,-0.91,-0.22,0.26,-0.06,0.04,1.01,
0.467,-0.91,-0.26,0.26,-0.06,0.04,1.01,
0.467,-0.91,-0.26,0.26,-0.05,0.04,1.01,
0.468,-0.91,-0.26,0.26,-0.05,0.04,1.01,
0.468,-0.89,-0.28,0.25,-0.05,0.04,1.01,
0.471,-0.89,-0.28,0.25,-0.05,0.04,1.01,
0.473,-0.89,-0.28,0.25,-0.05,0.04,1.01,
0.473,-0.86,-0.31,0.26,-0.05,0.04,1.01,
0.475,-0.86,-0.31,0.26,-0.05,0.04,1.01,
0.478,-0.86,-0.31,0.26,-0.05,0.04,1.01,
0.478,-0.85,-0.31,0.27,-0.05,0.04,1.01,
0.48,-0.85,-0.31,0.27,-0.05,0.04,1.01,
0.483,-0.85,-0.31,0.27,-0.05,0.03,1.01,
0.484,-0.81,-0.33,0.28,-0.05,0.03,1.01,
0.485,-0.81,-0.33,0.28,-0.05,0.03,1.01,
0.488,-0.81,-0.33,0.28,-0.04,0.03,1.01,
0.488,-0.78,-0.35,0.26,-0.04,0.03,1.01,
0.49,-0.78,-0.35,0.26,-0.04,0.03,1.01,
0.493,-0.78,-0.35,0.26,-0.04,0.03,1.01,
0.493,-0.73,-0.38,0.27,-0.04,0.03,1.01,
0.495,-0.73,-0.38,0.27,-0.04,0.03,1.01,
0.498,-0.73,-0.38,0.27,-0.04,0.03,1.01,
0.498,-0.69,-0.42,0.28,-0.04,0.03,1.01,
0.5,-0.69,-0.42,0.28,-0.04,0.03,1.01,
0.502,-0.69,-0.42,0.28,-0.04,0.02,1.01,
0.503,-0.66,-0.45,0.26,-0.04,0.02,1.01,
0.505,-0.66,-0.45,0.26,-0.03,0.02,1.01,
0.507,-0.66,-0.45,0.26,-0.04,0.02,1.01,
0.507,-0.65,-0.46,0.23,-0.04,0.02,1.01,
0.51,-0.65,-0.46,0.23,-0.04,0.02,1.00,
0.513,-0.65,-0.46,0.23,-0.04,0.02,1.00,
0.513,-0.62,-0.49,0.20,-0.04,0.02,1.00,
0.515,-0.62,-0.49,0.20,-0.04,0.02,1.00,
0.517,-0.62,-0.49,0.20,-0.04,0.01,0.99,
0.518,-0.65,-0.52,0.16,-0.04,0.01,0.99,
0.519,-0.65,-0.52,0.16,-0.04,0.01,0.99,
0.522,-0.65,-0.52,0.16,-0.04,0.01,0.99,
0.522,-0.66,-0.56,0.10,-0.04,0.01,0.99,
0.524,-0.66,-0.56,0.10,-0.05,0.01,0.98,
0.527,-0.66,-0.56,0.10,-0.05,0.00,0.98,
0.527,-0.68,-0.60,0.03,-0.05,0.00,0.98,
0.53,-0.68,-0.60,0.03,-0.05,0.00,0.98,
0.532,-0.68,-0.60,0.03,-0.05,-0.00,0.97,
0.532,-0.69,-0.66,-0.05,-0.05,-0.00,0.97,
0.534,-0.69,-0.66,-0.05,-0.05,-0.00,0.97,
0.537,-0.69,-0.66,-0.05,-0.05,-0.00,0.97,
0.537,-0.71,-0.72,-0.09,-0.05,-0.00,0.97,
0.539,-0.71,-0.72,-0.09,-0.05,-0.00,0.97,
0.542,-0.71,-0.72,-0.09,-0.06,-0.00,0.96,
0.542,-0.75,-0.73,-0.14,-0.06,-0.00,0.96,
0.544,-0.75,-0.73,-0.14,-0.05,-0.00,0.96,
0.547,-0.75,-0.73,-0.14,-0.05,-0.00,0.96,
0.547,-0.75,-0.75,-0.19,-0.05,-0.00,0.96,
0.549,-0.75,-0.75,-0.19,-0.05,-0.01,0.96,
0.552,-0.75,-0.75,-0.19,-0.05,-0.01,0.96,
0.552,-0.74,-0.74,-0.23,-0.05,-0.01,0.96,
0.554,-0.74,-0.74,-0.23,-0.04,-0.00,0.95,
0.556,-0.74,-0.74,-0.23,-0.04,-0.00,0.95,
0.556,-0.68,-0.77,-0.26,-0.04,-0.00,0.95,
0.559,-0.68,-0.77,-0.26,-0.03,-0.00,0.96,
0.561,-0.68,-0.77,-0.26,-0.03,0.00,0.96,
0.562,-0.58,-0.74,-0.29,-0.03,0.00,0.96,
0.566,-0.58,-0.74,-0.29,-0.02,0.00,0.96,
0.567,-0.48,-0.71,-0.27,-0.02,0.00,0.96,
0.567,-0.48,-0.71,-0.27,-0.02,0.00,0.96,
0.569,-0.48,-0.71,-0.27,-0.01,0.00,0.96,
0.571,-0.48,-0.71,-0.27,-0.01,0.00,0.96,
0.571,-0.37,-0.69,-0.27,-0.01,0.00,0.96,
0.573,-0.37,-0.69,-0.27,-0.00,0.01,0.96,
0.576,-0.37,-0.69,-0.27,-0.00,0.00,0.95,
0.576,-0.26,-0.66,-0.25,-0.00,0.00,0.95,
0.578,-0.26,-0.66,-0.25,0.00,0.01,0.95,
0.581,-0.26,-0.66,-0.25,0.00,0.01,0.95,
0.581,-0.18,-0.65,-0.27,0.00,0.01,0.95,
0.583,-0.18,-0.65,-0.27,0.01,0.01,0.95,
0.586,-0.18,-0.65,-0.27,0.01,0.01,0.95,
0.586,-0.14,-0.61,-0.29,0.01,0.01,0.95,
0.588,-0.14,-0.61,-0.29,0.01,0.01,0.94,
0.59,-0.14,-0.61,-0.29,0.01,0.01,0.94,
0.591,-0.08,-0.61,-0.33,0.01,0.01,0.94,
0.593,-0.08,-0.61,-0.33,0.01,0.01,0.94,
0.596,-0.08,-0.61,-0.33,0.01,0.01,0.93,
0.596,-0.05,-0.59,-0.39,0.01,0.01,0.93,
0.598,-0.05,-0.59,-0.39,0.01,0.01,0.93,
0.601,-0.05,-0.59,-0.39,0.01,0.01,0.93,
0.601,-0.04,-0.60,-0.45,0.01,0.01,0.93,
0.603,-0.04,-0.60,-0.45,0.01,0.01,0.92,
0.605,-0.04,-0.60,-0.45,0.01,0.01,0.92,
0.605,-0.05,-0.60,-0.52,0.01,0.01,0.92,
0.607,-0.05,-0.60,-0.52,0.01,0.01,0.92,
0.61,-0.05,-0.60,-0.52,0.01,0.01,0.91,
0.61,-0.03,-0.60,-0.58,0.01,0.01,0.91,
0.613,-0.03,-0.60,-0.58,0.01,0.01,0.91,
0.615,-0.03,-0.60,-0.58,0.01,0.01,0.91,
0.615,-0.02,-0.62,-0.63,0.01,0.01,0.91,
0.617,-0.02,-0.62,-0.63,0.01,0.01,0.91,
0.62,-0.02,-0.62,-0.63,0.02,0.01,0.91,
0.62,-0.01,-0.59,-0.68,0.02,0.01,0.91,
0.622,-0.01,-0.59,-0.68,0.02,0.01,0.91,
0.625,-0.01,-0.59,-0.68,0.02,0.01,0.91,
0.625,0.02,-0.59,-0.70,0.02,0.01,0.91,
0.627,0.02,-0.59,-0.70,0.02,0.01,0.91,
0.63,0.02,-0.59,-0.70,0.03,0.01,0.91,
0.63,0.05,-0.56,-0.71,0.03,0.01,0.91,
0.632,0.05,-0.56,-0.71,0.03,0.02,0.91,
0.635,0.05,-0.56,-0.71,0.03,0.02,0.91,
0.635,0.11,-0.54,-0.68,0.03,0.02,0.91,
0.637,0.11,-0.54,-0.68,0.04,0.02,0.91,
0.64,0.11,-0.54,-0.68,0.04,0.02,0.91,
0.64,0.20,-0.49,-0.66,0.04,0.02,0.91,
0.642,0.20,-0.49,-0.66,0.05,0.03,0.92,
0.644,0.20,-0.49,-0.66,0.05,0.03,0.92,
0.645,0.30,-0.44,-0.63,0.05,0.03,0.92,
0.65,0.30,-0.44,-0.63,0.06,0.03,0.92,
0.65,0.30,-0.44,-0.63,0.06,0.03,0.93,
0.65,0.39,-0.40,-0.58,0.06,0.03,0.93,
0.652,0.39,-0.40,-0.58,0.06,0.03,0.93,
0.654,0.39,-0.40,-0.58,0.07,0.04,0.93,
0.655,0.47,-0.35,-0.51,0.07,0.04,0.93,
0.657,0.47,-0.35,-0.51,0.07,0.04,0.93,
0.659,0.47,-0.35,-0.51,0.07,0.04,0.93,
0.659,0.54,-0.31,-0.46,0.07,0.04,0.93,
0.661,0.54,-0.31,-0.46,0.07,0.04,0.93,
0.664,0.54,-0.31,-0.46,0.07,0.04,0.93,
0.664,0.59,-0.30,-0.44,0.07,0.04,0.93,
0.666,0.59,-0.30,-0.44,0.07,0.04,0.93,
0.669,0.59,-0.30,-0.44,0.07,0.04,0.93,
0.669,0.61,-0.28,-0.43,0.07,0.04,0.93,
0.672,0.61,-0.28,-0.43,0.07,0.04,0.93,
0.674,0.61,-0.28,-0.43,0.07,0.04,0.93,
0.674,0.60,-0.26,-0.41,0.07,0.04,0.93,
0.676,0.60,-0.26,-0.41,0.07,0.03,0.93,
0.679,0.60,-0.26,-0.41,0.07,0.03,0.93,
0.68,0.59,-0.26,-0.41,0.07,0.03,0.93,
0.681,0.59,-0.26,-0.41,0.07,0.03,0.93,
0.684,0.59,-0.26,-0.41,0.07,0.03,0.93,
0.684,0.58,-0.31,-0.41,0.07,0.03,0.93,
0.686,0.58,-0.31,-0.41,0.07,0.03,0.93,
0.689,0.58,-0.31,-0.41,0.07,0.02,0.93,
0.689,0.55,-0.34,-0.40,0.07,0.02,0.93,
0.691,0.55,-0.34,-0.40,0.07,0.02,0.93,
0.693,0.55,-0.34,-0.40,0.07,0.02,0.93,
0.694,0.55,-0.38,-0.43,0.07,0.02,0.93,
0.696,0.55,-0.38,-0.43,0.07,0.02,0.93,
0.699,0.55,-0.38,-0.43,0.07,0.02,0.93,
0.699,0.53,-0.40,-0.45,0.07,0.02,0.93,
0.701,0.53,-0.40,-0.45,0.07,0.02,0.93,
0.703,0.53,-0.40,-0.45,0.07,0.02,0.92,
0.703,0.55,-0.41,-0.45,0.07,0.02,0.92,
0.706,0.55,-0.41,-0.45,0.08,0.02,0.92,
0.708,0.55,-0.41,-0.45,0.08,0.02,0.92,
0.708,0.59,-0.41,-0.46,0.08,0.02,0.92,
0.71,0.59,-0.41,-0.46,0.08,0.02,0.92,
0.713,0.59,-0.41,-0.46,0.08,0.03,0.92,
0.714,0.63,-0.39,-0.48,0.08,0.03,0.92,
0.716,0.63,-0.39,-0.48,0.09,0.03,0.93,
0.718,0.63,-0.39,-0.48,0.09,0.03,0.93,
0.718,0.68,-0.36,-0.46,0.09,0.03,0.93,
0.72,0.68,-0.36,-0.46,0.10,0.03,0.93,
0.723,0.68,-0.36,-0.46,0.10,0.03,0.93,
0.723,0.74,-0.31,-0.44,0.10,0.03,0.93,
0.725,0.74,-0.31,-0.44,0.10,0.03,0.93,
0.728,0.74,-0.31,-0.44,0.10,0.03,0.93,
0.728,0.82,-0.28,-0.42,0.10,0.03,0.93,
0.73,0.82,-0.28,-0.42,0.11,0.03,0.93,
0.733,0.82,-0.28,-0.42,0.11,0.04,0.94,
0.733,0.87,-0.24,-0.39,0.11,0.04,0.94,
0.735,0.87,-0.24,-0.39,0.11,0.04,0.94,
0.738,0.87,-0.24,-0.39,0.11,0.04,0.94,
0.738,0.93,-0.23,-0.34,0.11,0.04,0.94,
0.74,0.93,-0.23,-0.34,0.11,0.04,0.94,
0.742,0.93,-0.23,-0.34,0.11,0.04,0.94,
0.743,0.94,-0.17,-0.29,0.11,0.04,0.94,
0.745,0.94,-0.17,-0.29,0.11,0.04,0.94,
0.753,0.94,-0.17,-0.29,0.11,0.04,0.95,
0.754,0.96,-0.15,-0.26,0.11,0.04,0.95,
0.754,0.96,-0.15,-0.26,0.11,0.04,0.95,
0.754,0.96,-0.15,-0.26,0.10,0.04,0.95,
0.754,0.94,-0.15,-0.24,0.10,0.04,0.95,
0.755,0.94,-0.15,-0.24,0.10,0.04,0.95,
0.758,0.94,-0.15,-0.24,0.10,0.03,0.95,
0.758,0.86,-0.15,-0.21,0.10,0.03,0.95,
0.759,0.86,-0.15,-0.21,0.09,0.03,0.95,
0.765,0.86,-0.15,-0.21,0.09,0.03,0.95,
0.765,0.81,-0.17,-0.20,0.09,0.03,0.95,
0.765,0.81,-0.17,-0.20,0.09,0.02,0.96,
0.767,0.81,-0.17,-0.20,0.09,0.02,0.96,
0.767,0.74,-0.22,-0.18,0.09,0.02,0.96,
0.769,0.74,-0.22,-0.18,0.08,0.02,0.96,
0.772,0.74,-0.22,-0.18,0.08,0.02,0.96,
0.772,0.67,-0.27,-0.14,0.08,0.02,0.96,
0.774,0.67,-0.27,-0.14,0.08,0.02,0.96,
0.777,0.67,-0.27,-0.14,0.08,0.02,0.96,
0.777,0.64,-0.30,-0.11,0.08,0.02,0.96,
0.779,0.64,-0.30,-0.11,0.08,0.02,0.96,
0.782,0.64,-0.30,-0.11,0.08,0.02,0.96,
0.782,0.63,-0.33,-0.09,0.08,0.02,0.96,
0.784,0.63,-0.33,-0.09,0.08,0.02,0.96,
0.786,0.63,-0.33,-0.09,0.08,0.02,0.97,
0.788,0.62,-0.32,-0.06,0.08,0.02,0.97,
0.789,0.62,-0.32,-0.06,0.09,0.01,0.97,
0.792,0.62,-0.32,-0.06,0.09,0.02,0.97,
0.792,0.64,-0.31,-0.03,0.09,0.02,0.97,
0.794,0.64,-0.31,-0.03,0.10,0.02,0.97,
0.796,0.64,-0.31,-0.03,0.10,0.02,0.97,
0.797,0.69,-0.31,-0.00,0.10,0.02,0.97,
0.799,0.69,-0.31,-0.00,0.10,0.02,0.97,
0.801,0.69,-0.31,-0.00,0.11,0.02,0.97,
0.802,0.76,-0.29,0.03,0.11,0.02,0.97,
0.804,0.76,-0.29,0.03,0.11,0.02,0.97,
0.806,0.76,-0.29,0.03,0.12,0.02,0.97,
0.806,0.83,-0.26,0.02,0.12,0.02,0.97,
0.809,0.83,-0.26,0.02,0.12,0.02,0.97,
0.811,0.83,-0.26,0.02,0.12,0.03,0.97,
0.811,0.91,-0.23,0.03,0.12,0.03,0.97,
0.814,0.91,-0.23,0.03,0.13,0.03,0.97,
0.816,0.91,-0.23,0.03,0.13,0.03,0.97,
0.816,0.98,-0.18,0.04,0.13,0.03,0.97,
0.818,0.98,-0.18,0.04,0.13,0.03,0.97,
0.821,0.98,-0.18,0.04,0.13,0.03,0.97,
0.821,1.03,-0.14,0.03,0.13,0.03,0.97,
0.823,1.03,-0.14,0.03,0.13,0.04,0.97,
0.826,1.03,-0.14,0.03,0.13,0.04,0.97,
0.826,1.06,-0.08,0.01,0.13,0.04,0.97,
0.828,1.06,-0.08,0.01,0.13,0.04,0.97,
0.831,1.06,-0.08,0.01,0.13,0.04,0.96,
0.831,1.04,-0.05,-0.01,0.13,0.04,0.96,
0.833,1.04,-0.05,-0.01,0.13,0.04,0.96,
0.835,1.04,-0.05,-0.01,0.13,0.04,0.96,
0.836,1.05,-0.04,-0.04,0.13,0.04,0.96,
0.838,1.05,-0.04,-0.04,0.13,0.04,0.96,
0.84,1.05,-0.04,-0.04,0.13,0.04,0.96,
0.841,1.04,-0.03,-0.06,0.13,0.04,0.96,
0.843,1.04,-0.03,-0.06,0.13,0.04,0.96,
0.852,1.04,-0.03,-0.06,0.12,0.04,0.96,
0.853,1.03,-0.01,-0.06,0.12,0.04,0.96,
0.854,1.03,-0.01,-0.06,0.12,0.04,0.96,
0.854,1.03,-0.01,-0.06,0.12,0.04,0.96,
0.854,0.97,-0.01,-0.07,0.12,0.04,0.96,
0.855,0.97,-0.01,-0.07,0.12,0.04,0.96,
0.856,0.97,-0.01,-0.07,0.12,0.04,0.96,
0.856,0.93,-0.00,-0.08,0.12,0.04,0.96,
0.858,0.93,-0.00,-0.08,0.12,0.04,0.96,
0.86,0.93,-0.00,-0.08,0.12,0.04,0.97,
0.86,0.91,-0.00,-0.07,0.12,0.04,0.97,
0.865,0.91,-0.00,-0.07,0.12,0.04,0.97,
0.865,0.91,-0.00,-0.07,0.12,0.04,0.97,
0.865,0.91,0.00,-0.05,0.12,0.04,0.97,
0.867,0.91,0.00,-0.05,0.13,0.04,0.97,
0.87,0.91,0.00,-0.05,0.13,0.04,0.97,
0.87,0.92,0.03,0.00,0.13,0.04,0.97,
0.872,0.92,0.03,0.00,0.13,0.04,0.97,
0.875,0.92,0.03,0.00,0.13,0.04,0.98,
0.875,0.94,0.04,0.03,0.13,0.04,0.98,
0.877,0.94,0.04,0.03,0.14,0.04,0.98,
0.879,0.94,0.04,0.03,0.14,0.04,0.98,
0.88,0.98,0.07,0.06,0.14,0.04,0.98,
0.882,0.98,0.07,0.06,0.14,0.05,0.98,
0.885,0.98,0.07,0.06,0.14,0.05,0.98,
0.885,1.03,0.11,0.09,0.14,0.05,0.98,
0.887,1.03,0.11,0.09,0.15,0.05,0.98,
0.889,1.03,0.11,0.09,0.15,0.06,0.98,
0.89,1.04,0.17,0.12,0.15,0.06,0.98,
0.892,1.04,0.17,0.12,0.15,0.06,0.98,
0.894,1.04,0.17,0.12,0.16,0.06,0.98,
0.895,1.14,0.23,0.13,0.16,0.06,0.98,
0.896,1.14,0.23,0.13,0.16,0.06,0.98,
0.899,1.14,0.23,0.13,0.16,0.06,0.98,
0.899,1.18,0.27,0.12,0.16,0.06,0.98,
0.901,1.18,0.27,0.12,0.16,0.06,0.98,
0.904,1.18,0.27,0.12,0.16,0.06,0.98,
0.904,1.21,0.31,0.10,0.16,0.06,0.98,
0.906,1.21,0.31,0.10,0.17,0.07,0.98,
0.909,1.21,0.31,0.10,0.17,0.07,0.98,
0.909,1.25,0.34,0.09,0.17,0.07,0.98,
0.911,1.25,0.34,0.09,0.17,0.07,0.97,
0.914,1.25,0.34,0.09,0.17,0.07,0.97,
0.914,1.26,0.40,0.06,0.17,0.07,0.97,
0.916,1.26,0.40,0.06,0.17,0.07,0.97,
0.919,1.26,0.40,0.06,0.16,0.07,0.97,
0.919,1.25,0.44,0.04,0.16,0.07,0.97,
0.921,1.25,0.44,0.04,0.16,0.08,0.98,
0.924,1.25,0.44,0.04,0.16,0.08,0.98,
0.924,1.22,0.46,0.04,0.16,0.08,0.98,
0.926,1.22,0.46,0.04,0.16,0.08,0.98,
0.929,1.22,0.46,0.04,0.16,0.08,0.98,
0.93,1.16,0.50,0.06,0.16,0.08,0.98,
0.931,1.16,0.50,0.06,0.15,0.08,0.99,
0.933,1.16,0.50,0.06,0.15,0.08,0.99,
0.934,1.12,0.52,0.10,0.15,0.08,0.99,
0.936,1.12,0.52,0.10,0.15,0.08,0.99,
0.938,1.12,0.52,0.10,0.15,0.08,1.00,
0.939,1.08,0.50,0.16,0.15,0.08,1.00,
0.941,1.08,0.50,0.16,0.15,0.08,1.00,
0.943,1.08,0.50,0.16,0.15,0.08,1.00,
0.943,1.05,0.51,0.23,0.15,0.08,1.00,
0.946,1.05,0.51,0.23,0.15,0.08,1.01,
0.949,1.05,0.51,0.23,0.15,0.08,1.01,
0.949,1.02,0.51,0.31,0.15,0.08,1.01,
0.952,1.02,0.51,0.31,0.14,0.08,1.01,
0.953,1.02,0.51,0.31,0.15,0.07,1.01,
0.954,0.97,0.51,0.35,0.15,0.07,1.01,
0.955,0.97,0.51,0.35,0.15,0.07,1.01,
0.958,0.97,0.51,0.35,0.14,0.07,1.01,
0.958,0.96,0.51,0.39,0.14,0.07,1.01,
0.96,0.96,0.51,0.39,0.15,0.08,1.01,
0.968,0.96,0.51,0.39,0.15,0.07,1.01,
0.968,0.94,0.49,0.40,0.15,0.07,1.01,
0.969,0.94,0.49,0.40,0.15,0.08,1.01,
0.969,0.94,0.49,0.40,0.15,0.08,1.01,
0.969,0.94,0.51,0.39,0.15,0.08,1.01,
0.97,0.94,0.51,0.39,0.15,0.08,1.01,
0.972,0.94,0.51,0.39,0.15,0.08,1.01,
0.973,0.94,0.52,0.36,0.15,0.08,1.01,
0.975,0.94,0.52,0.36,0.15,0.08,1.01,
0.978,0.94,0.52,0.36,0.15,0.08,1.00,
0.978,0.97,0.55,0.34,0.15,0.08,1.00,
0.981,0.97,0.55,0.34,0.15,0.08,1.00,
0.982,0.97,0.55,0.34,0.15,0.08,1.00,
0.982,0.99,0.56,0.30,0.15,0.08,1.00,
0.985,0.99,0.56,0.30,0.15,0.09,1.00,
0.987,0.99,0.56,0.30,0.15,0.09,1.00,
0.988,1.00,0.58,0.25,0.15,0.09,1.00,
0.989,1.00,0.58,0.25,0.15,0.09,0.99,
0.992,1.00,0.58,0.25,0.15,0.09,0.99,
0.992,0.98,0.61,0.22,0.15,0.09,0.99,
0.994,0.98,0.61,0.22,0.15,0.09,0.99,
0.997,0.98,0.61,0.22,0.15,0.09,0.98,
0.997,0.95,0.64,0.17,0.15,0.09,0.98,
0.999,0.95,0.64,0.17,0.15,0.09,0.98,
1.002,0.95,0.64,0.17,0.15,0.09,0.98,
1.002,0.91,0.65,0.11,0.15,0.09,0.98,
1.004,0.91,0.65,0.11,0.14,0.09,0.98,
1.007,0.91,0.65,0.11,0.14,0.09,0.98,
1.007,0.88,0.64,0.09,0.14,0.09,0.98,
1.009,0.88,0.64,0.09,0.14,0.09,0.99,
1.012,0.88,0.64,0.09,0.14,0.09,0.99,
1.012,0.83,0.64,0.10,0.14,0.09,0.99,
1.015,0.83,0.64,0.10,0.14,0.09,0.99,
1.017,0.83,0.64,0.10,0.14,0.09,0.99,
1.017,0.80,0.63,0.12,0.14,0.09,0.99,
1.019,0.80,0.63,0.12,0.14,0.08,1.00,
1.021,0.80,0.63,0.12,0.14,0.08,1.00,
1.022,0.80,0.61,0.18,0.14,0.08,1.00,
1.024,0.80,0.61,0.18,0.13,0.08,1.01,
1.026,0.80,0.61,0.18,0.13,0.08,1.01,
1.026,0.75,0.59,0.25,0.13,0.08,1.01,
1.029,0.75,0.59,0.25,0.13,0.08,1.02,
1.031,0.75,0.59,0.25,0.13,0.08,1.02,
1.032,0.71,0.57,0.34,0.13,0.08,1.02,
1.034,0.71,0.57,0.34,0.13,0.09,1.02,
1.036,0.71,0.57,0.34,0.13,0.09,1.02,
1.036,0.69,0.58,0.41,0.13,0.09,1.02,
1.038,0.69,0.58,0.41,0.13,0.09,1.02,
1.041,0.69,0.58,0.41,0.13,0.09,1.02,
1.041,0.66,0.61,0.45,0.13,0.09,1.02,
1.043,0.66,0.61,0.45,0.13,0.09,1.02,
1.046,0.66,0.61,0.45,0.14,0.09,1.02,
1.046,0.67,0.61,0.45,0.14,0.09,1.02,
1.048,0.67,0.61,0.45,0.14,0.09,1.02,
1.051,0.67,0.61,0.45,0.14,0.09,1.02,
1.051,0.67,0.61,0.44,0.14,0.09,1.02,
1.053,0.67,0.61,0.44,0.14,0.09,1.01,
1.056,0.67,0.61,0.44,0.14,0.09,1.01,
1.056,0.67,0.64,0.40,0.14,0.09,1.01,
1.058,0.67,0.64,0.40,0.14,0.09,1.01,
1.061,0.67,0.64,0.40,0.14,0.09,1.01,
1.061,0.69,0.64,0.32,0.14,0.09,1.01,
1.067,0.69,0.64,0.32,0.14,0.10,1.00,
1.068,0.69,0.64,0.32,0.14,0.09,1.00,
1.068,0.68,0.66,0.28,0.14,0.09,1.00,
1.068,0.68,0.66,0.28,0.14,0.09,1.00,
1.07,0.68,0.66,0.28,0.14,0.09,1.00,
1.07,0.67,0.66,0.23,0.14,0.09,1.00,
1.073,0.67,0.66,0.23,0.14,0.10,0.99,
1.075,0.67,0.66,0.23,0.14,0.10,0.99,
1.075,0.69,0.64,0.18,0.14,0.10,0.99,
1.078,0.69,0.64,0.18,0.13,0.10,0.99,
1.08,0.69,0.64,0.18,0.13,0.10,0.99,
1.081,0.65,0.66,0.15,0.13,0.10,0.99,
1.083,0.65,0.66,0.15,0.13,0.10,0.99,
1.085,0.65,0.66,0.15,0.13,0.10,0.99,
1.086,0.60,0.67,0.12,0.13,0.10,0.99,
1.088,0.60,0.67,0.12,0.13,0.09,0.99,
1.09,0.60,0.67,0.12,0.13,0.09,0.99,
1.09,0.57,0.65,0.09,0.13,0.09,0.99,
1.092,0.57,0.65,0.09,0.12,0.09,0.99,
1.095,0.57,0.65,0.09,0.12,0.09,0.99,
1.096,0.51,0.62,0.11,0.12,0.09,0.99,
1.097,0.51,0.62,0.11,0.12,0.09,0.99,
1.1,0.51,0.62,0.11,0.12,0.09,0.99,
1.1,0.44,0.60,0.12,0.12,0.09,0.99,
1.102,0.44,0.60,0.12,0.11,0.09,1.00,
1.105,0.44,0.60,0.12,0.11,0.09,1.00,
1.105,0.40,0.58,0.15,0.11,0.09,1.00,
1.107,0.40,0.58,0.15,0.11,0.09,1.01,
1.11,0.36,0.53,0.20,0.11,0.09,1.01,
1.11,0.36,0.53,0.20,0.11,0.08,1.01,
1.112,0.36,0.53,0.20,0.11,0.08,1.01,
1.115,0.36,0.53,0.20,0.11,0.08,1.02,
1.115,0.34,0.52,0.29,0.11,0.08,1.02,
1.117,0.34,0.52,0.29,0.11,0.08,1.02,
1.119,0.34,0.52,0.29,0.11,0.08,1.03,
1.119,0.33,0.48,0.36,0.11,0.08,1.03,
1.122,0.33,0.48,0.36,0.11,0.08,1.03,
1.124,0.33,0.48,0.36,0.11,0.08,1.03,
1.124,0.31,0.45,0.46,0.11,0.08,1.03,
1.127,0.31,0.45,0.46,0.11,0.08,1.03,
1.129,0.31,0.45,0.46,0.11,0.07,1.03,
1.13,0.28,0.44,0.50,0.11,0.07,1.03,
1.131,0.28,0.44,0.50,0.11,0.07,1.03,
1.134,0.28,0.44,0.50,0.11,0.07,1.03,
1.134,0.26,0.40,0.52,0.11,0.07,1.03,
1.136,0.26,0.40,0.52,0.10,0.07,1.03,
1.139,0.26,0.40,0.52,0.10,0.07,1.02,
1.139,0.22,0.36,0.49,0.10,0.07,1.02,
1.141,0.22,0.36,0.49,0.10,0.06,1.02,
1.144,0.22,0.36,0.49,0.10,0.06,1.02,
1.144,0.19,0.30,0.44,0.10,0.06,1.02,
1.148,0.19,0.30,0.44,0.10,0.06,1.01,
1.149,0.19,0.30,0.44,0.09,0.06,1.00,
1.149,0.15,0.26,0.36,0.09,0.06,1.00,
1.151,0.15,0.26,0.36,0.09,0.06,1.00,
1.154,0.15,0.26,0.36,0.09,0.06,1.00,
1.154,0.07,0.24,0.27,0.09,0.06,1.00,
1.156,0.07,0.24,0.27,0.09,0.06,0.99,
1.158,0.07,0.24,0.27,0.08,0.06,0.98,
1.159,0.03,0.23,0.16,0.08,0.06,0.98,
1.161,0.03,0.23,0.16,0.08,0.06,0.98,
1.164,0.03,0.23,0.16,0.08,0.06,0.98,
1.164,-0.01,0.22,0.07,0.08,0.06,0.98,
1.166,-0.01,0.22,0.07,0.08,0.06,0.98,
1.168,-0.01,0.22,0.07,0.08,0.06,0.97,
1.169,-0.03,0.18,0.00,0.08,0.06,0.97,
1.171,-0.03,0.18,0.00,0.09,0.06,0.97,
1.173,-0.03,0.18,0.00,0.08,0.05,0.97,
1.173,-0.04,0.16,-0.06,0.08,0.05,0.97,
1.176,-0.04,0.16,-0.06,0.08,0.05,0.97,
1.178,-0.04,0.16,-0.06,0.08,0.05,0.97,
1.179,-0.04,0.11,-0.12,0.08,0.05,0.97,
1.18,-0.04,0.11,-0.12,0.08,0.04,0.98,
1.183,-0.04,0.11,-0.12,0.08,0.04,0.98,
1.183,-0.08,0.04,-0.10,0.08,0.04,0.98,
1.186,-0.08,0.04,-0.10,0.07,0.04,0.98,
1.188,-0.08,0.04,-0.10,0.07,0.04,0.98,
1.188,-0.12,-0.01,-0.03,0.07,0.04,0.98,
1.19,-0.12,-0.01,-0.03,0.07,0.03,0.99,
1.193,-0.12,-0.01,-0.03,0.07,0.03,0.99,
1.193,-0.17,-0.06,0.01,0.07,0.03,0.99,
1.195,-0.17,-0.06,0.01,0.07,0.03,0.99,
1.198,-0.17,-0.06,0.01,0.07,0.03,0.99,
1.198,-0.20,-0.12,0.07,0.07,0.03,0.99,
1.2,-0.20,-0.12,0.07,0.07,0.02,1.00,
1.203,-0.20,-0.12,0.07,0.06,0.02,1.00,
1.203,-0.23,-0.16,0.13,0.06,0.02,1.00,
1.205,-0.23,-0.16,0.13,0.06,0.02,1.00,
1.207,-0.23,-0.16,0.13,0.06,0.02,1.00,
1.208,-0.26,-0.22,0.18,0.06,0.02,1.00,
1.21,-0.26,-0.22,0.18,0.07,0.01,1.00,
1.212,-0.26,-0.22,0.18,0.07,0.01,1.01,
1.213,-0.27,-0.28,0.20,0.07,0.01,1.01,
1.215,-0.27,-0.28,0.20,0.06,0.01,1.01,
1.217,-0.27,-0.28,0.20,0.07,0.00,1.01,
1.218,-0.27,-0.35,0.25,0.07,0.00,1.01,
1.22,-0.27,-0.35,0.25,0.07,0.00,1.02,
1.222,-0.27,-0.35,0.25,0.07,-0.00,1.02,
1.222,-0.28,-0.42,0.30,0.07,-0.00,1.02,
1.225,-0.28,-0.42,0.30,0.07,-0.00,1.02,
1.227,-0.28,-0.42,0.30,0.06,-0.01,1.02,
1.227,-0.27,-0.46,0.35,0.06,-0.01,1.02,
1.23,-0.27,-0.46,0.35,0.06,-0.01,1.02,
1.232,-0.27,-0.46,0.35,0.06,-0.01,1.02,
1.232,-0.29,-0.51,0.38,0.06,-0.01,1.02,
1.234,-0.29,-0.51,0.38,0.07,-0.01,1.02,
1.237,-0.29,-0.51,0.38,0.07,-0.01,1.02,
1.237,-0.31,-0.53,0.41,0.07,-0.01,1.02,
1.239,-0.31,-0.53,0.41,0.07,-0.01,1.02,
1.242,-0.31,-0.53,0.41,0.06,-0.01,1.02,
1.242,-0.29,-0.57,0.39,0.06,-0.01,1.02,
1.244,-0.29,-0.57,0.39,0.06,-0.01,1.01,
1.251,-0.29,-0.57,0.39,0.06,-0.02,1.01,
1.251,-0.31,-0.60,0.35,0.06,-0.02,1.01,
1.252,-0.31,-0.60,0.35,0.06,-0.02,1.01,
1.252,-0.31,-0.60,0.35,0.06,-0.02,1.01,
1.252,-0.33,-0.62,0.31,0.06,-0.02,1.01,
1.254,-0.33,-0.62,0.31,0.05,-0.02,1.00,
1.256,-0.33,-0.62,0.31,0.05,-0.02,1.00,
1.257,-0.38,-0.64,0.26,0.05,-0.02,1.00,
1.259,-0.38,-0.64,0.26,0.05,-0.02,0.99,
1.264,-0.38,-0.64,0.26,0.05,-0.02,0.99,
1.264,-0.43,-0.65,0.18,0.05,-0.02,0.99,
1.264,-0.43,-0.65,0.18,0.05,-0.02,0.98,
1.266,-0.43,-0.65,0.18,0.04,-0.02,0.98,
1.267,-0.47,-0.66,0.08,0.04,-0.02,0.98,
1.268,-0.47,-0.66,0.08,0.04,-0.02,0.98,
1.271,-0.47,-0.66,0.08,0.04,-0.02,0.97,
1.271,-0.51,-0.66,0.01,0.04,-0.02,0.97,
1.273,-0.51,-0.66,0.01,0.04,-0.02,0.97,
1.276,-0.51,-0.66,0.01,0.04,-0.02,0.97,
1.277,-0.57,-0.68,-0.05,0.04,-0.02,0.97,
1.278,-0.57,-0.68,-0.05,0.04,-0.02,0.97,
1.281,-0.57,-0.68,-0.05,0.04,-0.02,0.96,
1.282,-0.59,-0.70,-0.11,0.04,-0.02,0.96,
1.284,-0.59,-0.70,-0.11,0.04,-0.02,0.96,
1.286,-0.59,-0.70,-0.11,0.04,-0.03,0.96,
1.286,-0.60,-0.73,-0.15,0.04,-0.03,0.96,
1.288,-0.60,-0.73,-0.15,0.04,-0.03,0.96,
1.291,-0.60,-0.73,-0.15,0.04,-0.03,0.97,
1.291,-0.60,-0.74,-0.18,0.04,-0.03,0.97,
1.293,-0.60,-0.74,-0.18,0.04,-0.03,0.97,
1.296,-0.60,-0.74,-0.18,0.04,-0.03,0.97,
1.296,-0.61,-0.77,-0.15,0.04,-0.03,0.97,
1.298,-0.61,-0.77,-0.15,0.04,-0.03,0.97,
1.3,-0.61,-0.77,-0.15,0.04,-0.03,0.97,
1.301,-0.60,-0.78,-0.14,0.04,-0.03,0.97,
1.303,-0.60,-0.78,-0.14,0.04,-0.03,0.97,
1.306,-0.60,-0.78,-0.14,0.04,-0.03,0.98,
1.306,-0.60,-0.81,-0.10,0.04,-0.03,0.98,
1.308,-0.60,-0.81,-0.10,0.04,-0.03,0.98,
1.31,-0.60,-0.81,-0.10,0.04,-0.03,0.98,
1.311,-0.59,-0.84,-0.04,0.04,-0.03,0.98,
1.313,-0.59,-0.84,-0.04,0.04,-0.03,0.98,
1.315,-0.59,-0.84,-0.04,0.04,-0.03,0.98,
1.316,-0.58,-0.83,0.00,0.04,-0.03,0.98,
1.318,-0.58,-0.83,0.00,0.04,-0.04,0.98,
1.32,-0.58,-0.83,0.00,0.04,-0.03,0.98,
1.32,-0.58,-0.84,0.04,0.04,-0.03,0.98,
1.323,-0.58,-0.84,0.04,0.04,-0.03,0.98,
1.325,-0.58,-0.84,0.04,0.03,-0.03,0.98,
1.325,-0.63,-0.85,0.03,0.03,-0.03,0.98,
1.327,-0.63,-0.85,0.03,0.03,-0.03,0.98,
1.33,-0.63,-0.85,0.03,0.03,-0.03,0.98,
1.33,-0.65,-0.82,0.03,0.03,-0.03,0.98,
1.332,-0.65,-0.82,0.03,0.03,-0.03,0.98,
1.335,-0.65,-0.82,0.03,0.03,-0.03,0.97,
1.335,-0.68,-0.80,0.00,0.03,-0.03,0.97,
1.337,-0.68,-0.80,0.00,0.03,-0.03,0.97,
1.34,-0.68,-0.80,0.00,0.03,-0.03,0.96,
1.34,-0.69,-0.80,-0.05,0.03,-0.03,0.96,
1.342,-0.69,-0.80,-0.05,0.03,-0.03,0.96,
1.35,-0.69,-0.80,-0.05,0.03,-0.03,0.95,
1.351,-0.69,-0.79,-0.12,0.03,-0.03,0.95,
1.351,-0.69,-0.79,-0.12,0.03,-0.02,0.95,
1.352,-0.69,-0.79,-0.12,0.03,-0.02,0.94,
1.352,-0.71,-0.76,-0.22,0.03,-0.02,0.94,
1.352,-0.71,-0.76,-0.22,0.03,-0.02,0.94,
1.354,-0.71,-0.76,-0.22,0.03,-0.02,0.94,
1.355,-0.70,-0.73,-0.31,0.03,-0.02,0.94,
1.357,-0.70,-0.73,-0.31,0.03,-0.02,0.94,
1.36,-0.70,-0.73,-0.31,0.03,-0.01,0.94,
1.36,-0.68,-0.69,-0.36,0.03,-0.01,0.94,
1.362,-0.68,-0.69,-0.36,0.03,-0.01,0.94,
1.364,-0.68,-0.69,-0.36,0.02,-0.01,0.93,
1.365,-0.70,-0.67,-0.40,0.02,-0.01,0.93,
1.366,-0.70,-0.67,-0.40,0.02,-0.01,0.93,
1.369,-0.70,-0.67,-0.40,0.02,-0.01,0.93,
1.369,-0.75,-0.62,-0.41,0.02,-0.01,0.93,
1.371,-0.75,-0.62,-0.41,0.02,-0.01,0.93,
1.374,-0.75,-0.62,-0.41,0.02,-0.01,0.93,
1.374,-0.79,-0.62,-0.41,0.02,-0.01,0.93,
1.376,-0.79,-0.62,-0.41,0.02,-0.01,0.93,
1.379,-0.79,-0.62,-0.41,0.01,-0.01,0.93,
1.379,-0.80,-0.64,-0.43,0.01,-0.01,0.93,
1.381,-0.80,-0.64,-0.43,0.01,-0.02,0.93,
1.384,-0.80,-0.64,-0.43,0.01,-0.02,0.93,
1.384,-0.85,-0.65,-0.44,0.01,-0.02,0.93,
1.386,-0.85,-0.65,-0.44,0.01,-0.02,0.93,
1.389,-0.85,-0.65,-0.44,0.01,-0.02,0.93,
1.389,-0.89,-0.70,-0.43,0.01,-0.02,0.93,
1.391,-0.89,-0.70,-0.43,0.01,-0.02,0.93,
1.394,-0.89,-0.70,-0.43,0.00,-0.02,0.93,
1.394,-0.93,-0.71,-0.42,0.00,-0.02,0.93,
1.396,-0.93,-0.71,-0.42,0.00,-0.02,0.94,
1.398,-0.93,-0.71,-0.42,0.00,-0.03,0.94,
1.399,-0.96,-0.74,-0.39,0.00,-0.03,0.94,
1.401,-0.96,-0.74,-0.39,0.00,-0.03,0.94,
1.403,-0.96,-0.74,-0.39,0.00,-0.03,0.95,
1.403,-0.97,-0.76,-0.35,0.00,-0.03,0.95,
1.406,-0.97,-0.76,-0.35,0.00,-0.03,0.95,
1.408,-0.97,-0.76,-0.35,0.00,-0.03,0.95,
1.409,-1.00,-0.78,-0.27,0.00,-0.03,0.95,
1.411,-1.00,-0.78,-0.27,-0.00,-0.03,0.95,
1.413,-1.00,-0.78,-0.27,0.00,-0.03,0.96,
1.414,-1.00,-0.76,-0.24,0.00,-0.03,0.96,
1.416,-1.00,-0.76,-0.24,0.00,-0.03,0.96,
1.418,-1.00,-0.76,-0.24,-0.00,-0.03,0.96,
1.418,-1.02,-0.75,-0.16,-0.00,-0.03,0.96,
1.42,-1.02,-0.75,-0.16,-0.00,-0.02,0.97,
1.423,-1.02,-0.75,-0.16,-0.00,-0.02,0.97,
1.423,-1.02,-0.76,-0.10,-0.00,-0.02,0.97,
1.425,-1.02,-0.76,-0.10,-0.00,-0.02,0.97,
1.429,-1.02,-0.76,-0.10,-0.00,-0.02,0.98,
1.429,-1.04,-0.72,-0.05,-0.00,-0.02,0.98,
1.43,-1.04,-0.72,-0.05,-0.00,-0.02,0.98,
1.433,-1.04,-0.72,-0.05,-0.01,-0.02,0.98,
1.433,-1.05,-0.69,0.03,-0.01,-0.02,0.98,
1.435,-1.05,-0.69,0.03,-0.01,-0.02,0.98,
1.438,-1.05,-0.69,0.03,-0.01,-0.02,0.98,
1.438,-1.06,-0.67,0.07,-0.01,-0.02,0.98,
1.44,-1.06,-0.67,0.07,-0.01,-0.02,0.97,
1.443,-1.06,-0.67,0.07,-0.01,-0.01,0.97,
1.443,-1.08,-0.63,0.05,-0.01,-0.01,0.97,
1.445,-1.08,-0.63,0.05,-0.01,-0.01,0.97,
1.447,-1.08,-0.63,0.05,-0.01,-0.01,0.96,
1.448,-1.08,-0.61,0.01,-0.01,-0.01,0.96,
1.45,-1.08,-0.61,0.01,-0.01,-0.01,0.96,
1.453,-1.08,-0.61,0.01,-0.01,-0.01,0.95,
1.453,-1.09,-0.55,-0.08,-0.01,-0.01,0.95,
1.455,-1.09,-0.55,-0.08,-0.01,-0.00,0.94,
1.457,-1.09,-0.55,-0.08,-0.02,-0.00,0.94,
1.458,-1.11,-0.52,-0.19,-0.02,-0.00,0.94,
1.46,-1.11,-0.52,-0.19,-0.02,-0.00,0.93,
1.468,-1.11,-0.52,-0.19,-0.02,0.00,0.93,
1.468,-1.14,-0.48,-0.30,-0.02,0.00,0.93,
1.468,-1.14,-0.48,-0.30,-0.02,0.00,0.93,
1.469,-1.14,-0.48,-0.30,-0.02,0.00,0.92,
1.469,-1.16,-0.44,-0.39,-0.02,0.00,0.92,
1.47,-1.16,-0.44,-0.39,-0.02,0.01,0.92,
1.472,-1.16,-0.44,-0.39,-0.02,0.01,0.92,
1.472,-1.15,-0.41,-0.44,-0.02,0.01,0.92,
1.474,-1.15,-0.41,-0.44,-0.02,0.01,0.92,
1.478,-1.15,-0.41,-0.44,-0.02,0.01,0.92,
1.478,-1.18,-0.37,-0.48,-0.02,0.01,0.92,
1.48,-1.18,-0.37,-0.48,-0.02,0.01,0.92,
1.482,-1.18,-0.37,-0.48,-0.01,0.01,0.92,
1.482,-1.16,-0.34,-0.50,-0.01,0.01,0.92,
1.484,-1.16,-0.34,-0.50,-0.01,0.01,0.93,
1.487,-1.16,-0.34,-0.50,-0.01,0.01,0.93,
1.487,-1.11,-0.32,-0.47,-0.01,0.01,0.93,
1.489,-1.11,-0.32,-0.47,-0.01,0.01,0.93,
1.492,-1.11,-0.32,-0.47,-0.00,0.02,0.94,
1.492,-1.07,-0.30,-0.41,-0.00,0.02,0.94,
1.495,-1.07,-0.30,-0.41,0.00,0.02,0.94,
1.496,-1.07,-0.30,-0.41,0.00,0.02,0.95,
1.497,-0.99,-0.25,-0.31,0.00,0.02,0.95,
1.499,-0.99,-0.25,-0.31,0.00,0.02,0.95,
1.502,-0.99,-0.25,-0.31,0.01,0.02,0.96,
1.502,-0.93,-0.22,-0.22,0.01,0.02,0.96,
1.504,-0.93,-0.22,-0.22,0.01,0.02,0.96,
1.506,-0.93,-0.22,-0.22,0.01,0.02,0.97,
1.507,-0.88,-0.18,-0.12,0.01,0.02,0.97,
1.509,-0.88,-0.18,-0.12,0.01,0.02,0.97,
1.512,-0.88,-0.18,-0.12,0.01,0.02,0.98,
1.512,-0.85,-0.16,-0.03,0.01,0.02,0.98,
1.514,-0.85,-0.16,-0.03,0.02,0.03,0.98,
1.516,-0.85,-0.16,-0.03,0.02,0.03,0.98,
1.517,-0.82,-0.12,0.06,0.02,0.03,0.98,
1.519,-0.82,-0.12,0.06,0.02,0.02,0.99,
1.521,-0.82,-0.12,0.06,0.02,0.03,0.99,
1.521,-0.78,-0.10,0.13,0.02,0.03,0.99,
1.523,-0.78,-0.10,0.13,0.02,0.03,0.99,
1.526,-0.77,-0.10,0.20,0.02,0.03,0.99,
1.527,-0.77,-0.10,0.20,0.02,0.03,0.99,
1.529,-0.77,-0.10,0.20,0.02,0.03,1.00,
1.531,-0.77,-0.10,0.20,0.02,0.03,1.00,
1.531,-0.77,-0.06,0.23,0.02,0.03,1.00,
1.533,-0.77,-0.06,0.23,0.02,0.03,1.00,
1.536,-0.77,-0.06,0.23,0.02,0.04,1.00,
1.536,-0.78,-0.01,0.27,0.02,0.04,1.00,
1.538,-0.78,-0.01,0.27,0.02,0.04,1.00,
1.541,-0.78,-0.01,0.27,0.02,0.04,0.99,
1.541,-0.76,0.02,0.27,0.02,0.04,0.99,
1.543,-0.76,0.02,0.27,0.02,0.04,0.99,
1.551,-0.76,0.02,0.27,0.02,0.04,0.99,
1.551,-0.77,0.06,0.24,0.02,0.04,0.99,
1.552,-0.77,0.06,0.24,0.02,0.05,0.98,
1.552,-0.77,0.06,0.24,0.01,0.05,0.98,
1.552,-0.78,0.10,0.18,0.01,0.05,0.98,
1.553,-0.78,0.10,0.18,0.01,0.05,0.97,
1.555,-0.78,0.10,0.18,0.01,0.05,0.97,
1.555,-0.78,0.14,0.12,0.01,0.05,0.97,
1.558,-0.78,0.14,0.12,0.01,0.06,0.97,
1.56,-0.78,0.14,0.12,0.01,0.06,0.96,
1.56,-0.80,0.20,0.03,0.01,0.06,0.96,
1.563,-0.80,0.20,0.03,0.01,0.06,0.96,
1.565,-0.80,0.20,0.03,0.01,0.06,0.96,
1.565,-0.83,0.26,-0.04,0.01,0.06,0.96,
1.567,-0.83,0.26,-0.04,0.01,0.06,0.96,
1.57,-0.83,0.26,-0.04,0.01,0.07,0.96,
1.57,-0.84,0.31,-0.09,0.01,0.07,0.96,
1.572,-0.84,0.31,-0.09,0.01,0.07,0.96,
1.575,-0.84,0.31,-0.09,0.01,0.07,0.96,
1.575,-0.82,0.35,-0.11,0.01,0.07,0.96,
1.578,-0.82,0.35,-0.11,0.01,0.07,0.96,
1.58,-0.82,0.35,-0.11,0.01,0.07,0.97,
1.58,-0.82,0.39,-0.10,0.01,0.07,0.97,
1.582,-0.82,0.39,-0.10,0.01,0.08,0.97,
1.585,-0.82,0.39,-0.10,0.01,0.08,0.97,
1.585,-0.79,0.45,-0.05,0.01,0.08,0.97,
1.587,-0.79,0.45,-0.05,0.01,0.08,0.98,
1.59,-0.79,0.45,-0.05,0.02,0.07,0.98,
1.59,-0.78,0.48,-0.00,0.02,0.07,0.98,
1.592,-0.78,0.48,-0.00,0.01,0.07,0.98,
1.595,-0.78,0.48,-0.00,0.01,0.07,0.99,
1.595,-0.73,0.47,0.08,0.01,0.07,0.99,
1.597,-0.73,0.47,0.08,0.01,0.07,0.99,
1.599,-0.73,0.47,0.08,0.01,0.07,1.00,
1.6,-0.72,0.45,0.16,0.01,0.07,1.00,
1.602,-0.72,0.45,0.16,0.01,0.07,1.01,
1.604,-0.72,0.45,0.16,0.01,0.07,1.01,
1.604,-0.73,0.47,0.27,0.01,0.07,1.01,
1.607,-0.73,0.47,0.27,0.01,0.07,1.01,
1.609,-0.73,0.47,0.27,0.00,0.06,1.02,
1.61,-0.75,0.48,0.36,0.00,0.06,1.02,
1.612,-0.75,0.48,0.36,0.00,0.06,1.02,
1.614,-0.75,0.48,0.36,-0.00,0.06,1.03,
1.615,-0.79,0.42,0.45,-0.00,0.06,1.03,
1.617,-0.79,0.42,0.45,-0.00,0.06,1.03,
1.619,-0.79,0.42,0.45,-0.00,0.06,1.04,
1.619,-0.83,0.41,0.54,-0.00,0.06,1.04,
1.621,-0.83,0.41,0.54,-0.01,0.06,1.04,
1.624,-0.83,0.41,0.54,-0.01,0.05,1.04,
1.624,-0.85,0.38,0.60,-0.01,0.05,1.04,
1.626,-0.85,0.38,0.60,-0.01,0.05,1.04,
1.629,-0.85,0.38,0.60,-0.01,0.05,1.04,
1.63,-0.88,0.34,0.66,-0.01,0.05,1.04,
1.631,-0.88,0.34,0.66,-0.02,0.05,1.04,
1.634,-0.88,0.34,0.66,-0.02,0.05,1.04,
1.634,-0.92,0.30,0.67,-0.02,0.05,1.04,
1.636,-0.92,0.30,0.67,-0.03,0.05,1.04,
1.639,-0.97,0.27,0.67,-0.03,0.05,1.04,
1.639,-0.97,0.27,0.67,-0.03,0.04,1.04,
1.641,-0.97,0.27,0.67,-0.04,0.04,1.04,
1.644,-0.97,0.27,0.67,-0.04,0.04,1.04,
1.644,-1.05,0.26,0.64,-0.04,0.04,1.04,
1.654,-1.05,0.26,0.64,-0.04,0.03,1.03,
1.654,-1.05,0.26,0.64,-0.05,0.03,1.03,
1.654,-1.11,0.20,0.60,-0.05,0.03,1.03,
1.655,-1.11,0.20,0.60,-0.05,0.03,1.03,
1.655,-1.11,0.20,0.60,-0.05,0.03,1.03,
1.655,-1.15,0.16,0.56,-0.05,0.03,1.03,
1.656,-1.15,0.16,0.56,-0.06,0.03,1.03,
1.658,-1.15,0.16,0.56,-0.06,0.03,1.03,
1.658,-1.18,0.15,0.51,-0.06,0.03,1.03,
1.665,-1.18,0.15,0.51,-0.06,0.03,1.02,
1.665,-1.18,0.15,0.51,-0.06,0.03,1.02,
1.665,-1.22,0.15,0.48,-0.06,0.03,1.02,
1.666,-1.22,0.15,0.48,-0.06,0.03,1.02,
1.668,-1.22,0.15,0.48,-0.06,0.04,1.02,
1.668,-1.22,0.16,0.46,-0.06,0.04,1.02,
1.67,-1.22,0.16,0.46,-0.06,0.04,1.02,
1.673,-1.22,0.16,0.46,-0.06,0.04,1.02,
1.673,-1.22,0.21,0.43,-0.06,0.04,1.02,
1.676,-1.22,0.21,0.43,-0.06,0.04,1.02,
1.678,-1.22,0.21,0.43,-0.05,0.04,1.02,
1.678,-1.21,0.26,0.44,-0.05,0.04,1.02,
1.68,-1.21,0.26,0.44,-0.05,0.05,1.02,
1.683,-1.21,0.26,0.44,-0.04,0.05,1.02,
1.683,-1.14,0.30,0.44,-0.04,0.05,1.02,
1.685,-1.14,0.30,0.44,-0.04,0.05,1.03,
1.687,-1.14,0.30,0.44,-0.03,0.05,1.03,
1.688,-1.05,0.34,0.44,-0.03,0.05,1.03,
1.69,-1.05,0.34,0.44,-0.03,0.05,1.03,
1.692,-1.05,0.34,0.44,-0.02,0.05,1.02,
1.693,-0.92,0.38,0.46,-0.02,0.05,1.02,
1.695,-0.92,0.38,0.46,-0.02,0.06,1.02,
1.697,-0.92,0.38,0.46,-0.02,0.06,1.02,
1.698,-0.82,0.40,0.44,-0.02,0.06,1.02,
1.7,-0.82,0.40,0.44,-0.01,0.06,1.01,
1.702,-0.82,0.40,0.44,-0.01,0.07,1.01,
1.702,-0.74,0.44,0.36,-0.01,0.07,1.01,
1.704,-0.74,0.44,0.36,-0.00,0.07,1.00,
1.707,-0.63,0.49,0.26,-0.00,0.07,1.00,
1.707,-0.63,0.49,0.26,0.00,0.07,0.99,
1.71,-0.63,0.49,0.26,0.00,0.07,0.99,
1.712,-0.63,0.49,0.26,0.01,0.07,0.98,
1.713,-0.57,0.52,0.16,0.01,0.07,0.98,
1.715,-0.57,0.52,0.16,0.01,0.07,0.98,
1.717,-0.57,0.52,0.16,0.01,0.07,0.97,
1.717,-0.50,0.54,0.05,0.01,0.07,0.97,
1.719,-0.50,0.54,0.05,0.02,0.07,0.97,
1.722,-0.50,0.54,0.05,0.02,0.07,0.97,
1.722,-0.42,0.55,-0.06,0.02,0.07,0.97,
1.724,-0.42,0.55,-0.06,0.02,0.08,0.96,
1.727,-0.42,0.55,-0.06,0.03,0.08,0.96,
1.727,-0.33,0.57,-0.13,0.03,0.08,0.96,
1.729,-0.33,0.57,-0.13,0.03,0.08,0.96,
1.732,-0.33,0.57,-0.13,0.03,0.08,0.96,
1.732,-0.28,0.60,-0.16,0.03,0.08,0.96,
1.734,-0.28,0.60,-0.16,0.04,0.08,0.96,
1.736,-0.28,0.60,-0.16,0.04,0.08,0.96,
1.737,-0.21,0.60,-0.21,0.04,0.08,0.96,
1.739,-0.21,0.60,-0.21,0.04,0.07,0.97,
1.742,-0.21,0.60,-0.21,0.04,0.07,0.97,
1.742,-0.16,0.59,-0.18,0.04,0.07,0.97,
1.75,-0.16,0.59,-0.18,0.04,0.07,0.97,
1.751,-0.16,0.59,-0.18,0.04,0.07,0.98,
1.751,-0.13,0.53,-0.11,0.04,0.07,0.98,
1.752,-0.13,0.53,-0.11,0.04,0.06,0.98,
1.752,-0.13,0.53,-0.11,0.03,0.06,0.99,
1.752,-0.12,0.51,-0.03,0.03,0.06,0.99,
1.754,-0.12,0.51,-0.03,0.03,0.06,0.99,
1.756,-0.12,0.51,-0.03,0.03,0.06,1.00,
1.756,-0.13,0.47,0.07,0.03,0.06,1.00,
1.758,-0.13,0.47,0.07,0.03,0.06,1.01,
1.761,-0.13,0.47,0.07,0.02,0.05,1.01,
1.761,-0.16,0.43,0.17,0.02,0.05,1.01,
1.764,-0.16,0.43,0.17,0.02,0.05,1.02,
1.766,-0.16,0.43,0.17,0.02,0.05,1.02,
1.767,-0.20,0.42,0.28,0.02,0.05,1.02,
1.769,-0.20,0.42,0.28,0.01,0.05,1.03,
1.771,-0.20,0.42,0.28,0.01,0.05,1.03,
1.771,-0.23,0.42,0.37,0.01,0.05,1.03,
1.773,-0.23,0.42,0.37,0.01,0.05,1.03,
1.776,-0.23,0.42,0.37,0.01,0.05,1.03,
1.776,-0.29,0.41,0.44,0.01,0.05,1.03,
1.778,-0.29,0.41,0.44,0.00,0.05,1.03,
1.781,-0.29,0.41,0.44,0.00,0.04,1.03,
1.781,-0.32,0.37,0.45,0.00,0.04,1.03,
1.783,-0.32,0.37,0.45,0.00,0.04,1.02,
1.786,-0.35,0.34,0.44,0.00,0.04,1.02,
1.786,-0.35,0.34,0.44,-0.00,0.04,1.02,
1.788,-0.35,0.34,0.44,-0.00,0.03,1.01,
1.79,-0.35,0.34,0.44,-0.00,0.03,1.01,
1.791,-0.36,0.31,0.37,-0.00,0.03,1.01,
1.793,-0.36,0.31,0.37,-0.00,0.03,1.00,
1.796,-0.36,0.31,0.37,-0.01,0.03,1.00,
1.796,-0.34,0.26,0.27,-0.01,0.03,1.00,
1.798,-0.34,0.26,0.27,-0.01,0.03,0.99,
1.801,-0.34,0.26,0.27,-0.00,0.03,0.99,
1.802,-0.35,0.26,0.17,-0.00,0.03,0.99,
1.803,-0.35,0.26,0.17,-0.00,0.03,0.99,
1.805,-0.35,0.26,0.17,-0.00,0.03,0.98,
1.805,-0.33,0.26,0.06,-0.00,0.03,0.98,
1.807,-0.33,0.26,0.06,0.00,0.03,0.98,
1.81,-0.33,0.26,0.06,0.01,0.04,0.98,
1.81,-0.27,0.26,0.00,0.01,0.04,0.98,
1.812,-0.27,0.26,0.00,0.01,0.04,0.98,
1.815,-0.27,0.26,0.00,0.01,0.04,0.98,
1.815,-0.20,0.30,-0.03,0.01,0.04,0.98,
1.817,-0.20,0.30,-0.03,0.02,0.04,0.98,
1.82,-0.20,0.30,-0.03,0.02,0.04,0.98,
1.82,-0.13,0.35,-0.05,0.02,0.04,0.98,
1.822,-0.13,0.35,-0.05,0.03,0.04,0.98,
1.825,-0.13,0.35,-0.05,0.03,0.05,0.98,
1.825,-0.02,0.40,-0.04,0.03,0.05,0.98,
1.828,-0.02,0.40,-0.04,0.04,0.05,0.98,
1.831,-0.02,0.40,-0.04,0.04,0.05,0.98,
1.831,0.09,0.41,-0.04,0.04,0.05,0.98,
1.834,0.09,0.41,-0.04,0.05,0.05,0.98,
1.834,0.09,0.41,-0.04,0.05,0.05,0.97,
1.835,0.19,0.43,-0.06,0.05,0.05,0.97,
1.837,0.19,0.43,-0.06,0.05,0.05,0.97,
1.839,0.19,0.43,-0.06,0.06,0.06,0.97,
1.84,0.29,0.48,-0.08,0.06,0.06,0.97,
1.842,0.29,0.48,-0.08,0.06,0.06,0.97,
1.845,0.29,0.48,-0.08,0.07,0.06,0.97,
1.846,0.36,0.52,-0.12,0.07,0.06,0.97,
1.847,0.36,0.52,-0.12,0.07,0.06,0.96,
1.849,0.36,0.52,-0.12,0.07,0.06,0.96,
1.85,0.45,0.57,-0.15,0.07,0.06,0.96,
1.852,0.45,0.57,-0.15,0.08,0.06,0.96,
1.854,0.45,0.57,-0.15,0.08,0.06,0.96,
1.855,0.51,0.58,-0.20,0.08,0.06,0.96,
1.856,0.51,0.58,-0.20,0.08,0.07,0.95,
1.859,0.51,0.58,-0.20,0.08,0.07,0.95,
1.86,0.59,0.60,-0.25,0.08,0.07,0.95,
1.867,0.59,0.60,-0.25,0.08,0.07,0.94,
1.867,0.59,0.60,-0.25,0.08,0.07,0.94,
1.868,0.62,0.62,-0.32,0.08,0.07,0.94,
1.868,0.62,0.62,-0.32,0.08,0.06,0.94,
1.869,0.63,0.62,-0.38,0.08,0.06,0.94,
1.869,0.63,0.62,-0.38,0.08,0.07,0.93,
1.871,0.63,0.62,-0.38,0.08,0.07,0.93,
1.874,0.63,0.62,-0.38,0.08,0.06,0.92,
1.874,0.66,0.60,-0.44,0.08,0.06,0.92,
1.876,0.66,0.60,-0.44,0.08,0.06,0.92,
1.881,0.66,0.60,-0.44,0.08,0.06,0.92,
1.881,0.66,0.60,-0.53,0.08,0.06,0.92,
1.882,0.66,0.60,-0.53,0.08,0.06,0.91,
1.884,0.61,0.56,-0.62,0.08,0.06,0.91,
1.884,0.61,0.56,-0.62,0.07,0.06,0.90,
1.886,0.61,0.56,-0.62,0.07,0.06,0.90,
1.889,0.61,0.56,-0.62,0.06,0.05,0.90,
1.889,0.55,0.54,-0.72,0.06,0.05,0.90,
1.891,0.55,0.54,-0.72,0.05,0.05,0.90,
1.893,0.55,0.54,-0.72,0.04,0.05,0.90,
1.893,0.46,0.50,-0.77,0.04,0.05,0.90,
1.895,0.46,0.50,-0.77,0.03,0.05,0.90,
1.898,0.46,0.50,-0.77,0.02,0.05,0.90,
1.898,0.32,0.49,-0.77,0.02,0.05,0.90,
1.901,0.32,0.49,-0.77,0.01,0.05,0.91,
1.903,0.32,0.49,-0.77,0.00,0.05,0.91,
1.903,0.13,0.46,-0.75,0.00,0.05,0.91,
1.905,0.13,0.46,-0.75,-0.01,0.04,0.92,
1.908,0.13,0.46,-0.75,-0.02,0.04,0.92,
1.908,-0.05,0.45,-0.68,-0.02,0.04,0.92,
1.911,-0.05,0.45,-0.68,-0.03,0.04,0.93,
1.913,-0.05,0.45,-0.68,-0.04,0.04,0.94,
1.913,-0.21,0.44,-0.56,-0.04,0.04,0.94,
1.915,-0.21,0.44,-0.56,-0.04,0.04,0.95,
1.918,-0.21,0.44,-0.56,-0.05,0.04,0.97,
1.918,-0.38,0.45,-0.40,-0.05,0.04,0.97,
1.92,-0.38,0.45,-0.40,-0.05,0.04,0.98,
1.923,-0.38,0.45,-0.40,-0.05,0.04,0.99,
1.923,-0.50,0.45,-0.17,-0.05,0.04,0.99,
1.925,-0.50,0.45,-0.17,-0.05,0.04,1.01,
1.928,-0.50,0.45,-0.17,-0.05,0.04,1.02,
1.928,-0.55,0.44,0.09,-0.05,0.04,1.02,
1.933,-0.55,0.44,0.09,-0.04,0.04,1.03,
1.934,-0.55,0.44,0.09,-0.04,0.04,1.03,
1.934,-0.50,0.46,0.34,-0.04,0.04,1.03,
1.937,-0.50,0.46,0.34,-0.03,0.04,1.04,
1.937,-0.50,0.46,0.34,-0.03,0.04,1.05,
1.938,-0.41,0.44,0.52,-0.03,0.04,1.05,
1.94,-0.41,0.44,0.52,-0.02,0.04,1.05,
1.942,-0.41,0.44,0.52,-0.02,0.04,1.06,
1.942,-0.29,0.43,0.66,-0.02,0.04,1.06,
1.945,-0.29,0.43,0.66,-0.02,0.04,1.06,
1.947,-0.29,0.43,0.66,-0.01,0.04,1.06,
1.947,-0.20,0.43,0.74,-0.01,0.04,1.06,
1.95,-0.20,0.43,0.74,-0.01,0.04,1.05,
1.952,-0.20,0.43,0.74,-0.01,0.05,1.05,
1.952,-0.14,0.47,0.75,-0.01,0.05,1.05,
1.954,-0.14,0.47,0.75,-0.00,0.05,1.05,
1.957,-0.14,0.47,0.75,-0.00,0.05,1.04,
1.957,-0.06,0.48,0.70,-0.00,0.05,1.04,
1.959,-0.06,0.48,0.70,0.01,0.05,1.03,
1.967,-0.06,0.48,0.70,0.01,0.05,1.03,
1.967,-0.02,0.50,0.60,0.01,0.05,1.03,
1.967,-0.02,0.50,0.60,0.02,0.05,1.02,
1.968,-0.02,0.50,0.60,0.02,0.05,1.02,
1.968,0.09,0.49,0.49,0.02,0.05,1.02,
1.97,0.09,0.49,0.49,0.03,0.05,1.01,
1.972,0.09,0.49,0.49,0.03,0.05,1.01,
1.972,0.20,0.51,0.38,0.03,0.05,1.01,
1.974,0.20,0.51,0.38,0.03,0.05,1.00,
1.977,0.20,0.51,0.38,0.03,0.05,1.00,
1.977,0.27,0.51,0.28,0.03,0.05,1.00,
1.984,0.27,0.51,0.28,0.03,0.06,0.99,
1.984,0.27,0.51,0.28,0.03,0.06,0.99,
1.984,0.31,0.51,0.17,0.03,0.06,0.99,
1.984,0.31,0.51,0.17,0.03,0.06,0.98,
1.986,0.31,0.51,0.17,0.04,0.06,0.98,
1.986,0.30,0.53,0.08,0.04,0.06,0.98,
1.989,0.30,0.53,0.08,0.03,0.06,0.98,
1.991,0.30,0.53,0.08,0.04,0.06,0.98,
1.992,0.31,0.56,0.01,0.04,0.06,0.98,
1.994,0.31,0.56,0.01,0.03,0.06,0.97,
1.996,0.31,0.56,0.01,0.03,0.06,0.97,
1.997,0.31,0.56,-0.04,0.03,0.06,0.97,
1.999,0.31,0.56,-0.04,0.03,0.06,0.97,
2.001,0.31,0.56,-0.04,0.03,0.06,0.97,
2.001,0.29,0.55,-0.08,0.03,0.06,0.97,
2.003,0.29,0.55,-0.08,0.03,0.06,0.97,
2.006,0.29,0.55,-0.08,0.03,0.07,0.97,
2.006,0.29,0.56,-0.09,0.03,0.07,0.97,
2.009,0.29,0.56,-0.09,0.03,0.07,0.98,
2.011,0.29,0.56,-0.09,0.02,0.07,0.98,
2.011,0.26,0.59,-0.08,0.02,0.07,0.98,
2.013,0.26,0.59,-0.08,0.02,0.07,0.98,
2.016,0.26,0.59,-0.08,0.02,0.07,0.98,
2.017,0.22,0.63,-0.04,0.02,0.07,0.98,
2.018,0.22,0.63,-0.04,0.02,0.07,0.98,
2.021,0.22,0.63,-0.04,0.02,0.07,0.99,
2.021,0.19,0.65,-0.01,0.02,0.07,0.99,
2.023,0.19,0.65,-0.01,0.02,0.07,0.99,
2.026,0.19,0.65,-0.01,0.02,0.07,1.00,
2.026,0.19,0.65,0.04,0.02,0.07,1.00,
2.028,0.19,0.65,0.04,0.03,0.07,1.00,
2.03,0.19,0.65,0.04,0.03,0.07,1.01,
2.031,0.23,0.62,0.12,0.03,0.07,1.01,
2.033,0.23,0.62,0.12,0.03,0.07,1.01,
2.035,0.23,0.62,0.12,0.03,0.07,1.02,
2.035,0.30,0.60,0.21,0.03,0.07,1.02,
2.038,0.30,0.60,0.21,0.04,0.07,1.02,
2.04,0.30,0.60,0.21,0.04,0.06,1.03,
2.04,0.33,0.59,0.31,0.04,0.06,1.03,
2.043,0.33,0.59,0.31,0.05,0.06,1.03,
2.046,0.33,0.59,0.31,0.05,0.06,1.04,
2.046,0.43,0.59,0.41,0.05,0.06,1.04,
2.048,0.43,0.59,0.41,0.06,0.06,1.04,
2.05,0.43,0.59,0.41,0.06,0.06,1.05,
2.05,0.51,0.57,0.54,0.06,0.06,1.05,
2.052,0.51,0.57,0.54,0.07,0.06,1.06,
2.055,0.51,0.57,0.54,0.07,0.06,1.06,
2.055,0.62,0.57,0.63,0.07,0.06,1.06,
2.057,0.62,0.57,0.63,0.08,0.06,1.06,
2.067,0.62,0.57,0.63,0.08,0.06,1.06,
2.067,0.72,0.57,0.71,0.08,0.06,1.06,
2.068,0.72,0.57,0.71,0.09,0.06,1.06,
2.068,0.72,0.57,0.71,0.09,0.06,1.06,
2.068,0.79,0.54,0.75,0.09,0.06,1.06,
2.068,0.79,0.54,0.75,0.09,0.06,1.06,
2.07,0.79,0.54,0.75,0.08,0.06,1.06,
2.07,0.84,0.55,0.74,0.08,0.06,1.06,
2.072,0.84,0.55,0.74,0.08,0.07,1.05,
2.074,0.84,0.55,0.74,0.08,0.07,1.05,
2.075,0.82,0.54,0.68,0.08,0.07,1.05,
2.078,0.82,0.54,0.68,0.08,0.07,1.04,
2.08,0.82,0.54,0.68,0.08,0.07,1.03,
2.08,0.81,0.56,0.62,0.08,0.07,1.03,
2.082,0.81,0.56,0.62,0.08,0.07,1.03,
2.084,0.81,0.56,0.62,0.07,0.07,1.02,
2.084,0.76,0.58,0.50,0.07,0.07,1.02,
2.086,0.76,0.58,0.50,0.07,0.07,1.01,
2.089,0.76,0.58,0.50,0.07,0.06,1.01,
2.089,0.70,0.55,0.34,0.07,0.06,1.01,
2.091,0.70,0.55,0.34,0.07,0.07,1.00,
2.094,0.70,0.55,0.34,0.06,0.07,1.00,
2.095,0.66,0.52,0.23,0.06,0.07,1.00,
2.096,0.66,0.52,0.23,0.06,0.07,1.00,
2.099,0.66,0.52,0.23,0.06,0.07,0.99,
2.099,0.61,0.53,0.14,0.06,0.07,0.99,
2.101,0.61,0.53,0.14,0.05,0.07,0.99,
2.104,0.61,0.53,0.14,0.05,0.07,0.99,
2.104,0.53,0.54,0.06,0.05,0.07,0.99,
2.106,0.53,0.54,0.06,0.05,0.07,0.99,
2.109,0.53,0.54,0.06,0.05,0.07,0.98,
2.109,0.44,0.52,0.00,0.05,0.07,0.98,
2.111,0.44,0.52,0.00,0.05,0.07,0.98,
2.114,0.44,0.52,0.00,0.05,0.07,0.98,
2.114,0.44,0.49,-0.02,0.05,0.07,0.98,
2.116,0.44,0.49,-0.02,0.04,0.07,0.98,
2.119,0.44,0.49,-0.02,0.04,0.07,0.98,
2.119,0.43,0.49,-0.07,0.04,0.07,0.98,
2.121,0.43,0.49,-0.07,0.03,0.06,0.98,
2.123,0.43,0.49,-0.07,0.03,0.06,0.99,
2.124,0.38,0.47,-0.07,0.03,0.06,0.99,
2.126,0.38,0.47,-0.07,0.02,0.06,0.99,
2.129,0.38,0.47,-0.07,0.02,0.06,0.99,
2.129,0.28,0.45,-0.02,0.02,0.06,0.99,
2.131,0.28,0.45,-0.02,0.02,0.06,1.00,
2.134,0.28,0.45,-0.02,0.02,0.05,1.00,
2.134,0.22,0.43,0.03,0.02,0.05,1.00,
2.136,0.22,0.43,0.03,0.03,0.05,1.01,
2.138,0.22,0.43,0.03,0.03,0.05,1.01,
2.138,0.22,0.35,0.10,0.03,0.05,1.01,
2.14,0.22,0.35,0.10,0.03,0.04,1.01,
2.143,0.22,0.35,0.10,0.04,0.04,1.02,
2.144,0.30,0.27,0.18,0.04,0.04,1.02,
2.146,0.30,0.27,0.18,0.05,0.04,1.02,
2.148,0.30,0.27,0.18,0.05,0.04,1.02,
2.149,0.38,0.24,0.27,0.05,0.04,1.02,
2.15,0.38,0.24,0.27,0.06,0.04,1.03,
2.153,0.38,0.24,0.27,0.06,0.04,1.03,
2.153,0.49,0.19,0.34,0.06,0.04,1.03,
2.155,0.49,0.19,0.34,0.07,0.04,1.04,
2.158,0.49,0.19,0.34,0.07,0.04,1.04,
2.158,0.58,0.19,0.42,0.07,0.04,1.04,
2.166,0.58,0.19,0.42,0.07,0.04,1.04,
2.166,0.58,0.19,0.42,0.08,0.04,1.04,
2.167,0.67,0.15,0.49,0.08,0.04,1.04,
2.167,0.67,0.15,0.49,0.08,0.04,1.05,
2.168,0.67,0.15,0.49,0.09,0.03,1.05,
2.168,0.74,0.13,0.53,0.09,0.03,1.05,
2.17,0.74,0.13,0.53,0.09,0.03,1.05,
2.172,0.74,0.13,0.53,0.09,0.03,1.05,
2.173,0.82,0.09,0.57,0.09,0.03,1.05,
2.175,0.82,0.09,0.57,0.10,0.03,1.05,
2.181,0.88,0.04,0.57,0.10,0.03,1.05,
2.181,0.88,0.04,0.57,0.10,0.03,1.04,
2.181,0.88,0.04,0.57,0.10,0.03,1.04,
2.182,0.88,0.04,0.57,0.10,0.03,1.04,
2.182,0.90,0.01,0.53,0.10,0.03,1.04,
2.185,0.90,0.01,0.53,0.11,0.03,1.03,
2.187,0.90,0.01,0.53,0.11,0.03,1.03,
2.187,0.95,0.00,0.46,0.11,0.03,1.03,
2.189,0.95,0.00,0.46,0.11,0.03,1.02,
2.192,0.95,0.00,0.46,0.11,0.03,1.02,
2.192,0.97,-0.02,0.38,0.11,0.03,1.02,
2.194,0.97,-0.02,0.38,0.11,0.03,1.01,
2.197,0.97,-0.02,0.38,0.11,0.02,1.01,
2.197,0.99,-0.06,0.30,0.11,0.02,1.01,
2.199,0.99,-0.06,0.30,0.11,0.02,1.00,
2.202,0.99,-0.06,0.30,0.11,0.02,0.99,
2.202,0.96,-0.10,0.18,0.11,0.02,0.99,
2.204,0.96,-0.10,0.18,0.10,0.02,0.99,
2.207,0.96,-0.10,0.18,0.11,0.02,0.98,
2.207,0.95,-0.13,0.04,0.11,0.02,0.98,
2.209,0.95,-0.13,0.04,0.10,0.02,0.97,
2.212,0.95,-0.13,0.04,0.11,0.02,0.97,
2.212,0.93,-0.15,-0.09,0.11,0.02,0.97,
2.215,0.93,-0.15,-0.09,0.11,0.02,0.96,
2.216,0.93,-0.15,-0.09,0.10,0.02,0.96,
2.217,0.93,-0.17,-0.19,0.10,0.02,0.96,
2.219,0.93,-0.17,-0.19,0.10,0.02,0.96,
2.221,0.93,-0.17,-0.19,0.09,0.02,0.96,
2.221,0.93,-0.19,-0.28,0.09,0.02,0.96,
2.224,0.93,-0.19,-0.28,0.09,0.02,0.95,
2.226,0.93,-0.19,-0.28,0.09,0.02,0.96,
2.226,0.85,-0.19,-0.33,0.09,0.02,0.96,
2.229,0.85,-0.19,-0.33,0.09,0.02,0.96,
2.231,0.85,-0.19,-0.33,0.08,0.02,0.96,
2.232,0.78,-0.20,-0.35,0.08,0.02,0.96,
2.233,0.78,-0.20,-0.35,0.07,0.02,0.96,
2.236,0.78,-0.20,-0.35,0.07,0.02,0.96,
2.236,0.71,-0.22,-0.34,0.07,0.02,0.96,
2.238,0.71,-0.22,-0.34,0.07,0.02,0.97,
2.241,0.71,-0.22,-0.34,0.07,0.01,0.97,
2.241,0.62,-0.26,-0.29,0.07,0.01,0.97,
2.243,0.62,-0.26,-0.29,0.06,0.01,0.97,
2.246,0.62,-0.26,-0.29,0.06,0.01,0.98,
2.246,0.55,-0.31,-0.22,0.06,0.01,0.98,
2.248,0.55,-0.31,-0.22,0.06,0.01,0.98,
2.251,0.55,-0.31,-0.22,0.05,0.01,0.99,
2.251,0.46,-0.36,-0.13,0.05,0.01,0.99,
2.253,0.46,-0.36,-0.13,0.05,0.01,0.99,
2.256,0.46,-0.36,-0.13,0.05,0.01,1.00,
2.257,0.42,-0.40,-0.04,0.05,0.01,1.00,
2.258,0.42,-0.40,-0.04,0.05,0.00,1.00,
2.261,0.42,-0.40,-0.04,0.06,0.01,1.00,
2.261,0.40,-0.42,0.04,0.06,0.01,1.00,
2.263,0.40,-0.42,0.04,0.06,0.01,1.00,
2.266,0.40,-0.42,0.04,0.06,0.01,1.01,
2.266,0.42,-0.43,0.11,0.06,0.01,1.01,
2.268,0.42,-0.43,0.11,0.07,0.01,1.01,
2.27,0.42,-0.43,0.11,0.07,0.01,1.01,
2.271,0.47,-0.42,0.15,0.07,0.01,1.01,
2.273,0.47,-0.42,0.15,0.07,0.01,1.01,
2.275,0.52,-0.43,0.20,0.07,0.01,1.01,
2.276,0.52,-0.43,0.20,0.08,0.01,1.01,
2.284,0.52,-0.43,0.20,0.08,0.02,1.01,
2.284,0.52,-0.43,0.20,0.08,0.02,1.01,
2.285,0.59,-0.40,0.21,0.08,0.02,1.01,
2.285,0.59,-0.40,0.21,0.09,0.02,1.01,
2.285,0.59,-0.40,0.21,0.09,0.02,1.00,
2.285,0.65,-0.34,0.20,0.09,0.02,1.00,
2.287,0.65,-0.34,0.20,0.09,0.02,1.00,
2.29,0.65,-0.34,0.20,0.09,0.02,0.99,
2.29,0.71,-0.35,0.13,0.09,0.02,0.99,
2.292,0.71,-0.35,0.13,0.09,0.03,0.99,
2.295,0.71,-0.35,0.13,0.09,0.03,0.98,
2.295,0.73,-0.32,0.03,0.09,0.03,0.98,
2.297,0.73,-0.32,0.03,0.09,0.03,0.97,
2.3,0.73,-0.32,0.03,0.09,0.03,0.97,
2.3,0.73,-0.30,-0.07,0.09,0.03,0.97,
2.302,0.73,-0.30,-0.07,0.09,0.03,0.96,
2.304,0.73,-0.30,-0.07,0.09,0.03,0.96,
2.305,0.70,-0.29,-0.18,0.09,0.03,0.96,
2.307,0.70,-0.29,-0.18,0.08,0.03,0.95,
2.311,0.70,-0.29,-0.18,0.08,0.04,0.95,
2.312,0.66,-0.29,-0.28,0.08,0.04,0.95,
2.312,0.66,-0.29,-0.28,0.08,0.04,0.94,
2.315,0.66,-0.29,-0.28,0.07,0.04,0.94,
2.315,0.57,-0.28,-0.37,0.07,0.04,0.94,
2.317,0.57,-0.28,-0.37,0.07,0.03,0.94,
2.319,0.57,-0.28,-0.37,0.06,0.03,0.94,
2.319,0.49,-0.29,-0.44,0.06,0.03,0.94,
2.322,0.49,-0.29,-0.44,0.06,0.03,0.94,
2.324,0.49,-0.29,-0.44,0.05,0.03,0.94,
2.324,0.39,-0.32,-0.47,0.05,0.03,0.94,
2.327,0.39,-0.32,-0.47,0.05,0.03,0.94,
2.33,0.39,-0.32,-0.47,0.04,0.03,0.95,
2.33,0.28,-0.35,-0.45,0.04,0.03,0.95,
2.331,0.28,-0.35,-0.45,0.04,0.03,0.95,
2.334,0.28,-0.35,-0.45,0.04,0.03,0.95,
2.334,0.19,-0.38,-0.40,0.04,0.03,0.95,
2.336,0.19,-0.38,-0.40,0.04,0.03,0.95,
2.339,0.19,-0.38,-0.40,0.03,0.03,0.96,
2.339,0.12,-0.41,-0.35,0.03,0.03,0.96,
2.341,0.12,-0.41,-0.35,0.03,0.02,0.96,
2.344,0.12,-0.41,-0.35,0.03,0.02,0.96,
2.345,0.07,-0.44,-0.29,0.03,0.02,0.96,
2.346,0.07,-0.44,-0.29,0.03,0.02,0.96,
2.349,0.07,-0.44,-0.29,0.04,0.02,0.96,
2.349,0.04,-0.48,-0.25,0.04,0.02,0.96,
2.351,0.04,-0.48,-0.25,0.04,0.02,0.97,
2.354,0.04,-0.48,-0.25,0.04,0.02,0.97,
2.354,0.06,-0.50,-0.20,0.04,0.02,0.97,
2.356,0.06,-0.50,-0.20,0.04,0.02,0.97,
2.359,0.06,-0.50,-0.20,0.04,0.02,0.97,
2.359,0.07,-0.52,-0.17,0.04,0.02,0.97,
2.366,0.07,-0.52,-0.17,0.04,0.02,0.97,
2.367,0.07,-0.52,-0.17,0.04,0.02,0.97,
2.367,0.08,-0.52,-0.15,0.04,0.02,0.97,
2.368,0.08,-0.52,-0.15,0.05,0.03,0.97,
2.368,0.08,-0.52,-0.15,0.05,0.03,0.97,
2.369,0.12,-0.52,-0.14,0.05,0.03,0.97,
2.371,0.12,-0.52,-0.14,0.05,0.03,0.97,
2.373,0.12,-0.52,-0.14,0.06,0.03,0.97,
2.374,0.19,-0.48,-0.14,0.06,0.03,0.97,
2.375,0.19,-0.48,-0.14,0.06,0.03,0.97,
2.38,0.19,-0.48,-0.14,0.06,0.03,0.97,
2.38,0.24,-0.46,-0.15,0.06,0.03,0.97,
2.381,0.24,-0.46,-0.15,0.06,0.03,0.97,
2.383,0.24,-0.46,-0.15,0.06,0.03,0.97,
2.383,0.29,-0.45,-0.16,0.06,0.03,0.97,
2.386,0.29,-0.45,-0.16,0.06,0.03,0.96,
2.388,0.29,-0.45,-0.16,0.06,0.03,0.96,
2.388,0.31,-0.46,-0.16,0.06,0.03,0.96,
2.39,0.31,-0.46,-0.16,0.07,0.04,0.96,
2.394,0.31,-0.46,-0.16,0.07,0.04,0.96,
2.394,0.32,-0.43,-0.20,0.07,0.04,0.96,
2.395,0.32,-0.43,-0.20,0.07,0.04,0.96,
2.398,0.32,-0.43,-0.20,0.07,0.04,0.95,
2.398,0.35,-0.41,-0.24,0.07,0.04,0.95,
2.4,0.35,-0.41,-0.24,0.07,0.04,0.95,
2.403,0.35,-0.41,-0.24,0.07,0.04,0.95,
2.403,0.34,-0.40,-0.27,0.07,0.04,0.95,
2.405,0.34,-0.40,-0.27,0.07,0.04,0.95,
2.407,0.34,-0.40,-0.27,0.06,0.04,0.94,
2.408,0.33,-0.41,-0.31,0.06,0.04,0.94,
2.411,0.33,-0.41,-0.31,0.06,0.04,0.94,
2.412,0.33,-0.41,-0.31,0.06,0.04,0.94,
2.412,0.29,-0.45,-0.35,0.06,0.04,0.94,
2.415,0.29,-0.45,-0.35,0.06,0.04,0.94,
2.418,0.29,-0.45,-0.35,0.05,0.03,0.94,
2.418,0.24,-0.48,-0.39,0.05,0.03,0.94,
2.42,0.24,-0.48,-0.39,0.05,0.03,0.94,
2.422,0.24,-0.48,-0.39,0.05,0.03,0.94,
2.422,0.18,-0.48,-0.39,0.05,0.03,0.94,
2.424,0.18,-0.48,-0.39,0.05,0.03,0.94,
2.427,0.18,-0.48,-0.39,0.05,0.03,0.94,
2.428,0.13,-0.52,-0.39,0.05,0.03,0.94,
2.43,0.13,-0.52,-0.39,0.05,0.03,0.94,
2.432,0.13,-0.52,-0.39,0.05,0.02,0.95,
2.432,0.10,-0.57,-0.36,0.05,0.02,0.95,
2.434,0.10,-0.57,-0.36,0.05,0.02,0.94,
2.437,0.10,-0.57,-0.36,0.05,0.02,0.94,
2.437,0.09,-0.61,-0.33,0.05,0.02,0.94,
2.439,0.09,-0.61,-0.33,0.06,0.02,0.94,
2.442,0.09,-0.61,-0.33,0.06,0.02,0.94,
2.442,0.11,-0.65,-0.34,0.06,0.02,0.94,
2.444,0.11,-0.65,-0.34,0.06,0.02,0.94,
2.447,0.11,-0.65,-0.34,0.06,0.02,0.94,
2.447,0.15,-0.66,-0.34,0.06,0.02,0.94,
2.449,0.15,-0.66,-0.34,0.07,0.02,0.94,
2.452,0.15,-0.66,-0.34,0.07,0.03,0.94,
2.452,0.20,-0.65,-0.35,0.07,0.03,0.94,
2.454,0.20,-0.65,-0.35,0.08,0.03,0.94,
2.456,0.20,-0.65,-0.35,0.08,0.03,0.94,
2.457,0.26,-0.63,-0.36,0.08,0.03,0.94,
2.459,0.26,-0.63,-0.36,0.08,0.03,0.94,
2.467,0.26,-0.63,-0.36,0.09,0.03,0.94,
2.467,0.33,-0.59,-0.36,0.09,0.03,0.94,
2.467,0.33,-0.59,-0.36,0.09,0.03,0.95,
2.467,0.33,-0.59,-0.36,0.09,0.03,0.95,
2.468,0.39,-0.56,-0.33,0.09,0.03,0.95,
2.468,0.39,-0.56,-0.33,0.09,0.03,0.96,
2.472,0.39,-0.56,-0.33,0.09,0.03,0.96,
2.472,0.42,-0.54,-0.28,0.09,0.03,0.96,
2.473,0.42,-0.54,-0.28,0.09,0.04,0.96,
2.479,0.42,-0.54,-0.28,0.10,0.04,0.97,
2.48,0.46,-0.54,-0.19,0.10,0.04,0.97,
2.48,0.46,-0.54,-0.19,0.10,0.04,0.97,
2.481,0.46,-0.54,-0.19,0.10,0.04,0.98,
2.481,0.49,-0.49,-0.12,0.10,0.04,0.98,
2.483,0.49,-0.49,-0.12,0.10,0.04,0.98,
2.486,0.49,-0.49,-0.12,0.10,0.04,0.98,
2.486,0.50,-0.48,-0.03,0.10,0.04,0.98,
2.488,0.50,-0.48,-0.03,0.10,0.04,0.99,
2.491,0.50,-0.48,-0.03,0.10,0.04,0.99,
2.491,0.51,-0.46,0.05,0.10,0.04,0.99,
2.493,0.51,-0.46,0.05,0.09,0.04,0.99,
2.496,0.51,-0.46,0.05,0.09,0.04,0.99,
2.496,0.51,-0.48,0.11,0.09,0.04,0.99,
2.498,0.51,-0.48,0.11,0.09,0.04,1.00,
2.5,0.51,-0.48,0.11,0.08,0.03,1.00,
2.501,0.45,-0.50,0.17,0.08,0.03,1.00,
2.503,0.45,-0.50,0.17,0.08,0.03,1.00,
2.505,0.45,-0.50,0.17,0.07,0.03,1.00,
2.506,0.38,-0.52,0.21,0.07,0.03,1.00,
2.508,0.38,-0.52,0.21,0.07,0.03,1.00,
2.51,0.38,-0.52,0.21,0.06,0.03,0.99,
2.511,0.28,-0.54,0.20,0.06,0.03,0.99,
2.513,0.28,-0.54,0.20,0.06,0.03,0.99,
2.515,0.28,-0.54,0.20,0.06,0.03,0.99,
2.515,0.19,-0.57,0.18,0.06,0.03,0.99,
2.517,0.19,-0.57,0.18,0.05,0.02,0.99,
2.52,0.19,-0.57,0.18,0.05,0.02,0.99,
2.52,0.11,-0.60,0.15,0.05,0.02,0.99,
2.522,0.11,-0.60,0.15,0.05,0.02,0.98,
2.525,0.11,-0.60,0.15,0.05,0.02,0.98,
2.525,0.04,-0.65,0.12,0.05,0.02,0.98,
2.527,0.04,-0.65,0.12,0.05,0.01,0.97,
2.53,0.04,-0.65,0.12,0.05,0.02,0.97,
2.53,0.03,-0.69,0.04,0.05,0.02,0.97,
2.532,0.03,-0.69,0.04,0.05,0.02,0.97,
2.535,0.03,-0.69,0.04,0.04,0.02,0.96,
2.535,-0.00,-0.72,-0.03,0.04,0.02,0.96,
2.537,-0.00,-0.72,-0.03,0.05,0.02,0.96,
2.54,-0.00,-0.72,-0.03,0.05,0.02,0.96,
2.54,-0.04,-0.70,-0.11,0.05,0.02,0.96,
2.542,-0.04,-0.70,-0.11,0.05,0.02,0.96,
2.545,-0.04,-0.70,-0.11,0.05,0.02,0.96,
2.545,-0.03,-0.69,-0.16,0.05,0.02,0.96,
2.547,-0.03,-0.69,-0.16,0.05,0.03,0.96,
2.55,-0.03,-0.69,-0.16,0.05,0.03,0.96,
2.55,-0.01,-0.65,-0.19,0.05,0.03,0.96,
2.552,-0.01,-0.65,-0.19,0.06,0.03,0.96,
2.554,-0.01,-0.65,-0.19,0.06,0.03,0.96,
2.555,0.03,-0.60,-0.19,0.06,0.03,0.96,
2.557,0.03,-0.60,-0.19,0.06,0.03,0.96,
2.566,0.03,-0.60,-0.19,0.06,0.03,0.97,
2.567,0.10,-0.57,-0.15,0.06,0.03,0.97,
2.567,0.10,-0.57,-0.15,0.07,0.04,0.97,
2.567,0.10,-0.57,-0.15,0.07,0.04,0.97,
2.568,0.15,-0.54,-0.11,0.07,0.04,0.97,
2.568,0.15,-0.54,-0.11,0.07,0.04,0.98,
2.569,0.15,-0.54,-0.11,0.07,0.04,0.98,
2.57,0.19,-0.47,-0.04,0.07,0.04,0.98,
2.571,0.19,-0.47,-0.04,0.07,0.04,0.98,
2.574,0.19,-0.47,-0.04,0.07,0.04,0.99,
2.575,0.21,-0.46,0.03,0.07,0.04,0.99,
2.578,0.21,-0.46,0.03,0.07,0.04,0.99,
2.579,0.21,-0.46,0.03,0.06,0.04,0.99,
2.579,0.18,-0.41,0.08,0.06,0.04,0.99,
2.581,0.18,-0.41,0.08,0.06,0.04,0.99,
2.584,0.18,-0.41,0.08,0.06,0.05,0.99,
2.584,0.15,-0.42,0.13,0.06,0.05,0.99,
2.586,0.15,-0.42,0.13,0.05,0.05,0.99,
2.589,0.15,-0.42,0.13,0.05,0.04,0.99,
2.589,0.08,-0.40,0.14,0.05,0.04,0.99,
2.591,0.08,-0.40,0.14,0.05,0.04,0.99,
2.594,0.08,-0.40,0.14,0.04,0.04,0.99,
2.594,0.03,-0.41,0.13,0.04,0.04,0.99,
2.596,0.03,-0.41,0.13,0.04,0.04,0.98,
2.598,0.03,-0.41,0.13,0.04,0.04,0.98,
2.599,-0.04,-0.43,0.12,0.04,0.04,0.98,
2.601,-0.04,-0.43,0.12,0.03,0.04,0.98,
2.603,-0.04,-0.43,0.12,0.03,0.04,0.98,
2.603,-0.10,-0.45,0.08,0.03,0.04,0.98,
2.606,-0.10,-0.45,0.08,0.03,0.04,0.98,
2.608,-0.10,-0.45,0.08,0.03,0.04,0.98,
2.608,-0.16,-0.45,0.04,0.03,0.04,0.98,
2.61,-0.16,-0.45,0.04,0.02,0.04,0.98,
2.613,-0.16,-0.45,0.04,0.03,0.04,0.98,
2.613,-0.19,-0.42,0.06,0.03,0.04,0.98,
2.615,-0.19,-0.42,0.06,0.03,0.05,0.98,
2.618,-0.19,-0.42,0.06,0.03,0.05,0.97,
2.618,-0.21,-0.42,0.01,0.03,0.05,0.97,
2.62,-0.21,-0.42,0.01,0.03,0.05,0.97,
2.623,-0.21,-0.42,0.01,0.03,0.05,0.97,
2.623,-0.17,-0.38,-0.01,0.03,0.05,0.97,
2.625,-0.17,-0.38,-0.01,0.03,0.05,0.97,
2.628,-0.17,-0.38,-0.01,0.03,0.05,0.96,
2.628,-0.17,-0.38,-0.05,0.03,0.05,0.96,
2.63,-0.17,-0.38,-0.05,0.03,0.05,0.96,
2.633,-0.17,-0.38,-0.05,0.04,0.06,0.96,
2.633,-0.14,-0.34,-0.10,0.04,0.06,0.96,
2.635,-0.14,-0.34,-0.10,0.04,0.06,0.96,
2.638,-0.14,-0.34,-0.10,0.04,0.06,0.96,
2.638,-0.12,-0.30,-0.15,0.04,0.06,0.96,
2.64,-0.12,-0.30,-0.15,0.04,0.06,0.96,
2.645,-0.12,-0.30,-0.15,0.04,0.07,0.95,
2.646,-0.09,-0.26,-0.17,0.04,0.07,0.95,
2.646,-0.09,-0.26,-0.17,0.05,0.07,0.95,
2.648,-0.09,-0.26,-0.17,0.05,0.07,0.95,
2.648,-0.05,-0.22,-0.20,0.05,0.07,0.95,
2.65,-0.05,-0.22,-0.20,0.05,0.07,0.95,
2.652,-0.05,-0.22,-0.20,0.05,0.07,0.95,
2.653,0.00,-0.19,-0.22,0.05,0.07,0.95,
2.655,0.00,-0.19,-0.22,0.05,0.07,0.95,
2.657,0.00,-0.19,-0.22,0.05,0.07,0.95,
2.658,0.04,-0.17,-0.22,0.05,0.07,0.95,
2.66,0.04,-0.17,-0.22,0.05,0.07,0.95,
2.662,0.04,-0.17,-0.22,0.05,0.08,0.95,
2.662,0.06,-0.15,-0.25,0.05,0.08,0.95,
2.664,0.06,-0.15,-0.25,0.05,0.08,0.95,
2.667,0.06,-0.15,-0.25,0.05,0.07,0.95,
2.667,0.06,-0.13,-0.26,0.05,0.07,0.95,
2.669,0.06,-0.13,-0.26,0.04,0.07,0.95,
2.672,0.06,-0.13,-0.26,0.04,0.08,0.95,
2.672,0.01,-0.12,-0.24,0.04,0.08,0.95,
2.674,0.01,-0.12,-0.24,0.04,0.08,0.95,
2.682,0.01,-0.12,-0.24,0.04,0.07,0.95,
2.682,-0.04,-0.12,-0.23,0.04,0.07,0.95,
2.683,-0.04,-0.12,-0.23,0.04,0.07,0.95,
2.683,-0.04,-0.12,-0.23,0.04,0.07,0.95,
2.683,-0.09,-0.13,-0.23,0.04,0.07,0.95,
2.684,-0.09,-0.13,-0.23,0.04,0.07,0.96,
2.686,-0.09,-0.13,-0.23,0.04,0.07,0.96,
2.687,-0.11,-0.14,-0.21,0.04,0.07,0.96,
2.689,-0.11,-0.14,-0.21,0.04,0.07,0.96,
2.691,-0.11,-0.14,-0.21,0.04,0.07,0.97,
2.692,-0.11,-0.16,-0.15,0.04,0.07,0.97,
2.694,-0.11,-0.16,-0.15,0.04,0.07,0.97,
2.696,-0.11,-0.16,-0.15,0.04,0.07,0.97,
2.696,-0.10,-0.14,-0.09,0.04,0.07,0.97,
2.699,-0.10,-0.14,-0.09,0.04,0.07,0.98,
2.701,-0.10,-0.14,-0.09,0.04,0.07,0.98,
2.701,-0.10,-0.14,-0.04,0.04,0.07,0.98,
2.704,-0.10,-0.14,-0.04,0.04,0.07,0.98,
2.706,-0.10,-0.14,-0.04,0.04,0.07,0.98,
2.706,-0.11,-0.14,0.04,0.04,0.07,0.98,
2.708,-0.11,-0.14,0.04,0.04,0.07,0.99,
2.712,-0.11,-0.14,0.04,0.04,0.07,0.99,
2.712,-0.10,-0.14,0.10,0.04,0.07,0.99,
2.714,-0.10,-0.14,0.10,0.04,0.07,0.99,
2.716,-0.10,-0.14,0.10,0.04,0.07,0.99,
2.716,-0.11,-0.15,0.14,0.04,0.07,0.99,
2.718,-0.11,-0.15,0.14,0.04,0.07,1.00,
2.721,-0.11,-0.15,0.14,0.04,0.07,1.00,
2.721,-0.11,-0.13,0.18,0.04,0.07,1.00,
2.723,-0.11,-0.13,0.18,0.03,0.07,1.00,
2.727,-0.11,-0.13,0.18,0.03,0.08,1.00,
2.727,-0.12,-0.12,0.21,0.03,0.08,1.00,
2.728,-0.12,-0.12,0.21,0.03,0.07,1.00,
2.731,-0.12,-0.12,0.21,0.04,0.07,1.01,
2.731,-0.13,-0.09,0.25,0.04,0.07,1.01,
2.733,-0.13,-0.09,0.25,0.03,0.07,1.01,
2.736,-0.13,-0.09,0.25,0.04,0.08,1.01,
2.736,-0.12,-0.10,0.29,0.04,0.08,1.01,
2.738,-0.12,-0.10,0.29,0.03,0.08,1.01,
2.74,-0.12,-0.10,0.29,0.03,0.07,1.01,
2.741,-0.12,-0.10,0.31,0.03,0.07,1.01,
2.743,-0.12,-0.10,0.31,0.04,0.07,1.01,
2.746,-0.12,-0.10,0.31,0.03,0.07,1.01,
2.747,-0.12,-0.11,0.30,0.03,0.07,1.01,
2.748,-0.12,-0.11,0.30,0.04,0.08,1.00,
2.75,-0.12,-0.11,0.30,0.03,0.08,1.00,
2.751,-0.13,-0.11,0.30,0.03,0.08,1.00,
2.753,-0.13,-0.11,0.30,0.03,0.08,1.00,
2.755,-0.13,-0.11,0.30,0.03,0.08,1.00,
2.756,-0.13,-0.08,0.27,0.03,0.08,1.00,
2.758,-0.13,-0.08,0.27,0.03,0.08,0.99,
2.76,-0.13,-0.08,0.27,0.03,0.08,0.99,
2.761,-0.15,-0.05,0.23,0.03,0.08,0.99,
2.763,-0.15,-0.05,0.23,0.03,0.08,0.99,
2.765,-0.15,-0.05,0.23,0.03,0.08,0.98,
2.765,-0.14,-0.03,0.15,0.03,0.08,0.98,
2.767,-0.14,-0.03,0.15,0.04,0.09,0.98,
2.77,-0.14,-0.03,0.15,0.04,0.09,0.97,
2.77,-0.13,-0.01,0.07,0.04,0.09,0.97,
2.772,-0.13,-0.01,0.07,0.04,0.09,0.97,
2.775,-0.13,-0.01,0.07,0.04,0.09,0.97,
2.775,-0.11,0.00,-0.00,0.04,0.09,0.97,
2.778,-0.11,0.00,-0.00,0.03,0.09,0.97,
2.78,-0.11,0.00,-0.00,0.03,0.09,0.97,
2.78,-0.12,0.02,-0.04,0.03,0.09,0.97,
2.782,-0.12,0.02,-0.04,0.03,0.09,0.97,
2.785,-0.12,0.02,-0.04,0.03,0.09,0.96,
2.785,-0.13,0.04,-0.07,0.03,0.09,0.96,
2.787,-0.13,0.04,-0.07,0.03,0.09,0.96,
2.789,-0.13,0.04,-0.07,0.03,0.09,0.97,
2.789,-0.14,0.05,-0.09,0.03,0.09,0.97,
2.792,-0.14,0.05,-0.09,0.03,0.09,0.97,
2.794,-0.14,0.05,-0.09,0.03,0.09,0.97,
2.795,-0.15,0.07,-0.10,0.03,0.09,0.97,
2.797,-0.15,0.07,-0.10,0.03,0.10,0.97,
2.799,-0.15,0.07,-0.10,0.04,0.10,0.97,
2.799,-0.13,0.08,-0.09,0.04,0.10,0.97,
2.802,-0.13,0.08,-0.09,0.04,0.10,0.97,
2.804,-0.13,0.08,-0.09,0.04,0.10,0.97,
2.804,-0.12,0.09,-0.07,0.04,0.10,0.97,
2.806,-0.12,0.09,-0.07,0.03,0.10,0.97,
2.81,-0.12,0.09,-0.07,0.04,0.10,0.98,
2.81,-0.11,0.10,-0.03,0.04,0.10,0.98,
2.812,-0.11,0.10,-0.03,0.04,0.10,0.98,
2.814,-0.11,0.10,-0.03,0.04,0.10,0.97,
2.815,-0.11,0.11,-0.00,0.04,0.10,0.97,
2.816,-0.11,0.11,-0.00,0.04,0.09,0.94,
2.819,-0.11,0.11,-0.00,0.05,0.09,0.91,
2.819,-0.08,0.11,-0.01,0.05,0.09,0.91,
2.821,-0.08,0.11,-0.01,0.07,0.09,0.89,
2.824,-0.08,0.11,-0.01,0.07,0.10,0.88,
2.824,0.00,0.04,-0.46,0.07,0.10,0.88,
2.826,0.00,0.04,-0.46,0.07,0.10,0.89,
2.83,0.00,0.04,-0.46,0.07,0.10,0.90,
2.83,0.22,0.08,-0.87,0.07,0.10,0.90,
2.831,0.22,0.08,-0.87,0.06,0.10,0.91,
2.833,0.22,0.08,-0.87,0.06,0.10,0.92,
2.834,0.22,0.13,-0.77,0.06,0.10,0.92,
2.836,0.22,0.13,-0.77,0.05,0.09,0.92,
2.838,0.22,0.13,-0.77,0.04,0.09,0.93,
2.838,0.14,0.11,-0.60,0.04,0.09,0.93,
2.841,0.14,0.11,-0.60,0.04,0.09,0.93,
2.843,0.14,0.11,-0.60,0.03,0.08,0.94,
2.844,-0.02,0.09,-0.48,0.03,0.08,0.94,
2.846,-0.02,0.09,-0.48,0.03,0.08,0.94,
2.848,-0.02,0.09,-0.48,0.02,0.08,0.95,
2.849,-0.12,0.02,-0.38,0.02,0.08,0.95,
2.851,-0.12,0.02,-0.38,0.02,0.07,0.96,
2.853,-0.12,0.02,-0.38,0.02,0.07,0.97,
2.853,-0.19,-0.04,-0.24,0.02,0.07,0.97,
2.855,-0.19,-0.04,-0.24,0.02,0.07,0.98,
2.858,-0.19,-0.04,-0.24,0.01,0.08,0.99,
2.858,-0.25,-0.08,-0.05,0.01,0.08,0.99,
2.86,-0.25,-0.08,-0.05,0.01,0.08,1.00,
2.863,-0.25,-0.08,-0.05,0.01,0.08,1.01,
2.863,-0.27,-0.05,0.13,0.01,0.08,1.01,
2.865,-0.27,-0.05,0.13,0.01,0.08,1.03,
2.868,-0.27,-0.05,0.13,0.01,0.08,1.03,
2.868,-0.29,0.01,0.34,0.01,0.08,1.03,
2.87,-0.29,0.01,0.34,0.02,0.09,1.04,
2.873,-0.29,0.01,0.34,0.02,0.09,1.05,
2.873,-0.29,0.04,0.55,0.02,0.09,1.05,
2.875,-0.29,0.04,0.55,0.02,0.09,1.05,
2.88,-0.29,0.04,0.55,0.03,0.09,1.06,
2.88,-0.25,0.06,0.68,0.03,0.09,1.06,
2.881,-0.25,0.06,0.68,0.03,0.09,1.06,
2.883,-0.25,0.06,0.68,0.04,0.09,1.06,
2.883,-0.16,0.09,0.78,0.04,0.09,1.06,
2.885,-0.16,0.09,0.78,0.03,0.09,1.05,
2.887,-0.16,0.09,0.78,0.03,0.09,1.05,
2.887,-0.08,0.08,0.84,0.03,0.09,1.05,
2.89,-0.08,0.08,0.84,0.02,0.10,1.04,
2.893,-0.08,0.08,0.84,0.02,0.10,1.03,
2.893,-0.10,0.10,0.74,0.02,0.10,1.03,
2.895,-0.10,0.10,0.74,0.02,0.10,1.02,
2.897,-0.10,0.10,0.74,0.02,0.10,1.01,
2.897,-0.18,0.15,0.56,0.02,0.10,1.01,
2.9,-0.18,0.15,0.56,0.02,0.10,1.00,
2.902,-0.18,0.15,0.56,0.02,0.09,0.99,
2.902,-0.22,0.14,0.38,0.02,0.09,0.99,
2.904,-0.22,0.14,0.38,0.02,0.09,0.99,
2.907,-0.22,0.14,0.38,0.02,0.09,0.98,
2.907,-0.23,0.12,0.20,0.02,0.09,0.98,
2.91,-0.23,0.12,0.20,0.03,0.09,0.97,
