
time,ax,ay,az,gFx,gFy,gFz,
0.001,-0.10,-0.06,-0.38,0.03,0.07,0.91,
0.001,-0.06,-0.05,-0.55,0.03,0.07,0.91,
0.001,-0.06,-0.05,-0.55,0.04,0.07,0.91,
0.004,-0.06,-0.05,-0.55,0.04,0.07,0.91,
0.004,-0.00,-0.04,-0.65,0.04,0.07,0.91,
0.006,-0.00,-0.04,-0.65,0.04,0.08,0.91,
0.009,-0.00,-0.04,-0.65,0.04,0.08,0.91,
0.009,0.04,-0.01,-0.68,0.04,0.08,0.91,
0.012,0.04,-0.01,-0.68,0.04,0.08,0.91,
0.015,0.04,-0.01,-0.68,0.04,0.08,0.91,
0.015,0.08,0.03,-0.69,0.04,0.08,0.91,
0.016,0.08,0.03,-0.69,0.04,0.08,0.92,
0.019,0.08,0.03,-0.69,0.04,0.08,0.92,
0.019,0.11,0.05,-0.63,0.04,0.08,0.92,
0.021,0.11,0.05,-0.63,0.05,0.08,0.93,
0.024,0.11,0.05,-0.63,0.05,0.08,0.94,
0.024,0.12,0.08,-0.54,0.05,0.08,0.94,
0.026,0.12,0.08,-0.54,0.05,0.08,0.94,
0.029,0.12,0.08,-0.54,0.05,0.08,0.95,
0.029,0.16,0.09,-0.43,0.05,0.08,0.95,
0.038,0.16,0.09,-0.43,0.05,0.08,0.95,
0.038,0.16,0.09,-0.43,0.05,0.08,0.96,
0.038,0.19,0.07,-0.31,0.05,0.08,0.96,
0.038,0.19,0.07,-0.31,0.05,0.08,0.97,
0.039,0.19,0.07,-0.31,0.05,0.08,0.97,
0.039,0.20,0.08,-0.18,0.05,0.08,0.97,
0.041,0.20,0.08,-0.18,0.05,0.08,0.98,
0.043,0.20,0.08,-0.18,0.05,0.07,0.99,
0.044,0.19,0.07,-0.04,0.05,0.07,0.99,
0.046,0.19,0.07,-0.04,0.05,0.07,0.99,
0.048,0.19,0.07,-0.04,0.04,0.07,0.99,
0.048,0.20,0.04,0.08,0.04,0.07,0.99,
0.051,0.20,0.04,0.08,0.04,0.07,1.00,
0.053,0.20,0.04,0.08,0.04,0.07,1.00,
0.053,0.14,0.03,0.17,0.04,0.07,1.00,
0.055,0.14,0.03,0.17,0.04,0.07,1.00,
0.058,0.14,0.03,0.17,0.04,0.07,1.00,
0.059,0.11,0.02,0.22,0.04,0.07,1.00,
0.06,0.11,0.02,0.22,0.04,0.07,1.00,
0.064,0.11,0.02,0.22,0.04,0.07,1.00,
0.064,0.07,0.01,0.24,0.04,0.07,1.00,
0.065,0.07,0.01,0.24,0.03,0.07,1.00,
0.068,0.07,0.01,0.24,0.03,0.06,1.00,
0.068,0.05,-0.01,0.23,0.03,0.06,1.00,
0.07,0.05,-0.01,0.23,0.03,0.06,0.99,
0.073,0.05,-0.01,0.23,0.03,0.06,0.99,
0.073,0.01,-0.04,0.21,0.03,0.06,0.99,
0.075,0.01,-0.04,0.21,0.03,0.06,0.99,
0.078,0.01,-0.04,0.21,0.03,0.06,0.98,
0.078,-0.02,-0.09,0.15,0.03,0.06,0.98,
0.08,-0.02,-0.09,0.15,0.02,0.06,0.98,
0.083,-0.02,-0.09,0.15,0.02,0.06,0.98,
0.083,-0.05,-0.09,0.07,0.02,0.06,0.98,
0.085,-0.05,-0.09,0.07,0.02,0.06,0.97,
0.088,-0.05,-0.09,0.07,0.02,0.06,0.97,
0.088,-0.09,-0.11,-0.00,0.02,0.06,0.97,
0.09,-0.09,-0.11,-0.00,0.03,0.06,0.97,
0.092,-0.09,-0.11,-0.00,0.03,0.06,0.96,
0.093,-0.09,-0.10,-0.07,0.03,0.06,0.96,
0.095,-0.09,-0.10,-0.07,0.03,0.06,0.96,
0.098,-0.09,-0.10,-0.07,0.03,0.06,0.96,
0.098,-0.05,-0.10,-0.11,0.03,0.06,0.96,
0.1,-0.05,-0.10,-0.11,0.03,0.06,0.96,
0.102,-0.05,-0.10,-0.11,0.03,0.07,0.95,
0.102,-0.04,-0.09,-0.18,0.03,0.07,0.95,
0.105,-0.04,-0.09,-0.18,0.03,0.07,0.95,
0.107,-0.04,-0.09,-0.18,0.03,0.07,0.95,
0.107,-0.00,-0.05,-0.21,0.03,0.07,0.95,
0.109,-0.00,-0.05,-0.21,0.04,0.07,0.96,
0.112,-0.00,-0.05,-0.21,0.04,0.07,0.96,
0.112,0.01,-0.03,-0.21,0.04,0.07,0.96,
0.12,0.01,-0.03,-0.21,0.04,0.07,0.96,
0.121,0.01,-0.03,-0.21,0.04,0.07,0.96,
0.121,0.05,-0.02,-0.19,0.04,0.07,0.96,
0.121,0.05,-0.02,-0.19,0.04,0.07,0.96,
0.122,0.05,-0.02,-0.19,0.04,0.07,0.96,
0.122,0.06,0.01,-0.17,0.04,0.07,0.96,
0.124,0.06,0.01,-0.17,0.04,0.07,0.97,
0.127,0.06,0.01,-0.17,0.04,0.07,0.97,
0.127,0.08,0.02,-0.12,0.04,0.07,0.97,
0.129,0.08,0.02,-0.12,0.04,0.07,0.97,
0.132,0.08,0.02,-0.12,0.04,0.07,0.97,
0.132,0.09,0.05,-0.09,0.04,0.07,0.97,
0.134,0.09,0.05,-0.09,0.04,0.07,0.98,
0.137,0.09,0.05,-0.09,0.04,0.08,0.98,
0.137,0.09,0.06,-0.04,0.04,0.08,0.98,
0.139,0.09,0.06,-0.04,0.04,0.08,0.98,
0.141,0.09,0.06,-0.04,0.04,0.08,0.98,
0.141,0.08,0.07,0.01,0.04,0.08,0.98,
0.144,0.08,0.07,0.01,0.04,0.08,0.98,
0.147,0.08,0.07,0.01,0.04,0.07,0.99,
0.147,0.06,0.07,0.05,0.04,0.07,0.99,
0.149,0.06,0.07,0.05,0.03,0.08,0.99,
0.151,0.06,0.07,0.05,0.03,0.07,0.99,
0.152,0.05,0.07,0.08,0.03,0.07,0.99,
0.153,0.05,0.07,0.08,0.03,0.07,0.98,
0.156,0.05,0.07,0.08,0.03,0.07,0.98,
0.156,0.01,0.07,0.09,0.03,0.07,0.98,
0.158,0.01,0.07,0.09,0.03,0.07,0.98,
0.161,0.01,0.07,0.09,0.03,0.07,0.98,
0.161,-0.01,0.05,0.08,0.03,0.07,0.98,
0.163,-0.01,0.05,0.08,0.03,0.07,0.98,
0.166,-0.01,0.05,0.08,0.03,0.07,0.98,
0.166,-0.03,0.04,0.06,0.03,0.07,0.98,
0.168,-0.03,0.04,0.06,0.03,0.07,0.98,
0.171,-0.03,0.04,0.06,0.03,0.07,0.98,
0.171,-0.03,0.03,0.05,0.03,0.07,0.98,
0.173,-0.03,0.03,0.05,0.03,0.07,0.97,
0.176,-0.03,0.03,0.05,0.03,0.07,0.98,
0.176,-0.02,0.04,0.00,0.03,0.07,0.98,
0.178,-0.02,0.04,0.00,0.04,0.07,0.97,
0.18,-0.02,0.04,0.00,0.04,0.07,0.97,
0.181,-0.00,0.02,-0.01,0.04,0.07,0.97,
0.183,-0.00,0.02,-0.01,0.04,0.07,0.97,
0.186,-0.00,0.02,-0.01,0.04,0.07,0.97,
0.186,0.02,0.01,-0.03,0.04,0.07,0.97,
0.188,0.02,0.01,-0.03,0.04,0.07,0.97,
0.19,0.02,0.01,-0.03,0.04,0.07,0.97,
0.19,0.02,0.04,-0.04,0.04,0.07,0.97,
0.193,0.02,0.04,-0.04,0.04,0.07,0.97,
0.195,0.02,0.04,-0.04,0.04,0.07,0.97,
0.196,0.05,0.05,-0.05,0.04,0.07,0.97,
0.198,0.05,0.05,-0.05,0.04,0.07,0.97,
0.201,0.05,0.05,-0.05,0.04,0.07,0.97,
0.201,0.07,0.04,-0.04,0.04,0.07,0.97,
0.203,0.07,0.04,-0.04,0.04,0.07,0.97,
0.205,0.07,0.04,-0.04,0.05,0.07,0.97,
0.205,0.07,0.05,-0.04,0.05,0.07,0.97,
0.207,0.07,0.05,-0.04,0.04,0.07,0.98,
0.21,0.07,0.05,-0.04,0.04,0.07,0.98,
0.21,0.08,0.03,-0.01,0.04,0.07,0.98,
0.212,0.08,0.03,-0.01,0.04,0.07,0.98,
0.221,0.08,0.03,-0.01,0.04,0.07,0.98,
0.221,0.09,0.04,0.02,0.04,0.07,0.98,
0.221,0.09,0.04,0.02,0.04,0.07,0.98,
0.221,0.09,0.04,0.02,0.04,0.07,0.99,
0.222,0.06,0.03,0.07,0.04,0.07,0.99,
0.222,0.06,0.03,0.07,0.04,0.07,0.99,
0.225,0.06,0.03,0.07,0.03,0.07,0.98,
0.225,0.04,0.02,0.08,0.03,0.07,0.98,
0.227,0.04,0.02,0.08,0.03,0.07,0.98,
0.23,0.04,0.02,0.08,0.03,0.07,0.98,
0.231,-0.01,0.01,0.09,0.03,0.07,0.98,
0.232,-0.01,0.01,0.09,0.03,0.07,0.98,
0.237,-0.01,0.01,0.09,0.03,0.07,0.98,
0.237,-0.02,0.03,0.08,0.03,0.07,0.98,
0.237,-0.02,0.03,0.08,0.02,0.07,0.98,
0.239,-0.02,0.03,0.08,0.02,0.07,0.98,
0.239,-0.07,0.02,0.08,0.02,0.07,0.98,
0.242,-0.07,0.02,0.08,0.02,0.07,0.98,
0.244,-0.07,0.02,0.08,0.02,0.07,0.98,
0.245,-0.11,0.01,0.06,0.02,0.07,0.98,
0.247,-0.11,0.01,0.06,0.02,0.07,0.98,
0.249,-0.11,0.01,0.06,0.02,0.07,0.98,
0.249,-0.13,0.02,0.03,0.02,0.07,0.98,
0.252,-0.13,0.02,0.03,0.02,0.07,0.98,
0.254,-0.13,0.02,0.03,0.02,0.07,0.98,
0.254,-0.14,0.03,0.00,0.02,0.07,0.98,
0.256,-0.14,0.03,0.00,0.02,0.07,0.97,
0.259,-0.14,0.03,0.00,0.02,0.07,0.98,
0.259,-0.15,0.04,-0.00,0.02,0.07,0.98,
0.261,-0.15,0.04,-0.00,0.02,0.07,0.98,
0.264,-0.15,0.04,-0.00,0.02,0.07,0.98,
0.264,-0.18,0.04,-0.02,0.02,0.07,0.98,
0.266,-0.18,0.04,-0.02,0.02,0.07,0.98,
0.269,-0.18,0.04,-0.02,0.02,0.07,0.98,
0.269,-0.18,0.05,0.01,0.02,0.07,0.98,
0.271,-0.18,0.05,0.01,0.02,0.07,0.98,
0.274,-0.18,0.05,0.01,0.02,0.08,0.98,
0.274,-0.18,0.06,0.02,0.02,0.08,0.98,
0.276,-0.18,0.06,0.02,0.01,0.08,0.98,
0.278,-0.18,0.06,0.02,0.02,0.08,0.98,
0.279,-0.19,0.09,0.03,0.02,0.08,0.98,
0.281,-0.19,0.09,0.03,0.02,0.08,0.98,
0.284,-0.19,0.09,0.03,0.01,0.08,0.98,
0.284,-0.18,0.11,0.04,0.01,0.08,0.98,
0.286,-0.18,0.11,0.04,0.02,0.07,0.98,
0.288,-0.18,0.11,0.04,0.01,0.07,0.98,
0.289,-0.20,0.09,0.05,0.01,0.07,0.98,
0.291,-0.20,0.09,0.05,0.01,0.07,0.98,
0.293,-0.20,0.09,0.05,0.02,0.07,0.98,
0.293,-0.20,0.07,0.05,0.02,0.07,0.98,
0.295,-0.20,0.07,0.05,0.02,0.07,0.98,
0.298,-0.20,0.07,0.05,0.01,0.07,0.98,
0.298,-0.20,0.04,0.05,0.01,0.07,0.98,
0.3,-0.20,0.04,0.05,0.01,0.07,0.98,
0.303,-0.20,0.04,0.05,0.01,0.07,0.98,
0.304,-0.20,0.04,0.06,0.01,0.07,0.98,
0.305,-0.20,0.04,0.06,0.01,0.07,0.98,
0.308,-0.20,0.04,0.06,0.01,0.07,0.98,
0.308,-0.21,0.05,0.05,0.01,0.07,0.98,
0.31,-0.21,0.05,0.05,0.01,0.07,0.98,
0.316,-0.21,0.05,0.05,0.01,0.07,0.99,
0.317,-0.23,0.05,0.06,0.01,0.07,0.99,
0.317,-0.23,0.05,0.06,0.02,0.07,0.99,
0.318,-0.23,0.05,0.06,0.01,0.07,0.99,
0.318,-0.21,0.05,0.08,0.01,0.07,0.99,
0.32,-0.21,0.05,0.08,0.01,0.07,0.99,
0.323,-0.21,0.05,0.08,0.01,0.07,0.99,
0.324,-0.21,0.04,0.11,0.01,0.07,0.99,
0.325,-0.21,0.04,0.11,0.01,0.07,1.00,
0.327,-0.21,0.04,0.11,0.00,0.07,1.00,
0.328,-0.24,0.01,0.15,0.00,0.07,1.00,
0.33,-0.24,0.01,0.15,0.00,0.07,1.00,
0.332,-0.24,0.01,0.15,0.00,0.07,1.00,
0.333,-0.29,0.02,0.18,0.00,0.07,1.00,
0.335,-0.29,0.02,0.18,0.00,0.07,1.00,
0.337,-0.29,0.02,0.18,0.00,0.07,1.00,
0.338,-0.30,0.02,0.20,0.00,0.07,1.00,
0.339,-0.30,0.02,0.20,-0.00,0.07,1.00,
0.342,-0.30,0.02,0.20,-0.00,0.07,1.00,
0.342,-0.32,0.02,0.23,-0.00,0.07,1.00,
0.344,-0.32,0.02,0.23,-0.00,0.07,1.01,
0.347,-0.32,0.02,0.23,-0.01,0.07,1.01,
0.347,-0.34,0.02,0.24,-0.01,0.07,1.01,
0.349,-0.34,0.02,0.24,-0.01,0.07,1.01,
0.352,-0.34,0.02,0.24,-0.01,0.06,1.01,
0.352,-0.37,0.02,0.28,-0.01,0.06,1.01,
0.355,-0.37,0.02,0.28,-0.01,0.06,1.01,
0.357,-0.37,0.02,0.28,-0.01,0.06,1.01,
0.357,-0.41,-0.01,0.29,-0.01,0.06,1.01,
0.359,-0.41,-0.01,0.29,-0.02,0.06,1.01,
0.362,-0.41,-0.01,0.29,-0.02,0.06,1.01,
0.362,-0.42,-0.03,0.30,-0.02,0.06,1.01,
0.364,-0.42,-0.03,0.30,-0.02,0.06,1.01,
0.367,-0.42,-0.03,0.30,-0.03,0.06,1.00,
0.367,-0.48,-0.05,0.27,-0.03,0.06,1.00,
0.369,-0.48,-0.05,0.27,-0.03,0.06,1.00,
0.372,-0.48,-0.05,0.27,-0.03,0.06,1.00,
0.372,-0.54,-0.04,0.25,-0.03,0.06,1.00,
0.374,-0.54,-0.04,0.25,-0.03,0.06,1.00,
0.376,-0.54,-0.04,0.25,-0.04,0.06,1.00,
0.377,-0.62,-0.07,0.22,-0.04,0.06,1.00,
0.379,-0.62,-0.07,0.22,-0.04,0.05,1.00,
0.381,-0.62,-0.07,0.22,-0.04,0.05,1.00,
0.382,-0.64,-0.08,0.18,-0.04,0.05,1.00,
0.384,-0.64,-0.08,0.18,-0.04,0.05,0.99,
0.386,-0.64,-0.08,0.18,-0.04,0.05,0.99,
0.387,-0.67,-0.13,0.16,-0.04,0.05,0.99,
0.389,-0.67,-0.13,0.16,-0.04,0.05,0.99,
0.391,-0.67,-0.13,0.16,-0.05,0.05,0.99,
0.391,-0.70,-0.14,0.14,-0.05,0.05,0.99,
0.393,-0.70,-0.14,0.14,-0.05,0.05,0.99,
0.396,-0.70,-0.14,0.14,-0.05,0.05,1.00,
0.396,-0.72,-0.15,0.11,-0.05,0.05,1.00,
0.398,-0.72,-0.15,0.11,-0.05,0.05,1.00,
0.401,-0.72,-0.15,0.11,-0.05,0.05,1.00,
0.401,-0.74,-0.18,0.14,-0.05,0.05,1.00,
0.403,-0.74,-0.18,0.14,-0.05,0.05,1.00,
0.406,-0.74,-0.18,0.14,-0.05,0.05,1.00,
0.406,-0.74,-0.19,0.17,-0.05,0.05,1.00,
0.408,-0.74,-0.19,0.17,-0.05,0.05,1.01,
0.411,-0.73,-0.19,0.20,-0.05,0.05,1.01,
0.411,-0.73,-0.19,0.20,-0.05,0.05,1.01,
0.413,-0.73,-0.19,0.20,-0.05,0.05,1.01,
0.416,-0.73,-0.19,0.20,-0.05,0.04,1.01,
0.416,-0.71,-0.18,0.25,-0.05,0.04,1.01,
0.418,-0.71,-0.18,0.25,-0.05,0.04,1.02,
0.42,-0.71,-0.18,0.25,-0.05,0.04,1.02,
0.421,-0.72,-0.20,0.29,-0.05,0.04,1.02,
0.423,-0.72,-0.20,0.29,-0.04,0.05,1.02,
0.425,-0.72,-0.20,0.29,-0.04,0.05,1.02,
0.426,-0.71,-0.20,0.35,-0.04,0.05,1.02,
0.428,-0.71,-0.20,0.35,-0.04,0.05,1.02,
0.43,-0.71,-0.20,0.35,-0.04,0.05,1.02,
0.431,-0.67,-0.19,0.38,-0.04,0.05,1.02,
0.433,-0.67,-0.19,0.38,-0.04,0.05,1.02,
0.435,-0.67,-0.19,0.38,-0.04,0.05,1.02,
0.435,-0.66,-0.19,0.39,-0.04,0.05,1.02,
0.437,-0.66,-0.19,0.39,-0.04,0.05,1.02,
0.44,-0.66,-0.19,0.39,-0.04,0.05,1.02,
0.44,-0.64,-0.16,0.39,-0.04,0.05,1.02,
0.442,-0.64,-0.16,0.39,-0.04,0.06,1.02,
0.445,-0.64,-0.16,0.39,-0.04,0.06,1.02,
0.445,-0.62,-0.13,0.36,-0.04,0.06,1.02,
0.449,-0.62,-0.13,0.36,-0.04,0.06,1.01,
0.45,-0.62,-0.13,0.36,-0.03,0.06,1.01,
0.45,-0.59,-0.09,0.33,-0.03,0.06,1.01,
0.452,-0.59,-0.09,0.33,-0.03,0.06,1.01,
0.455,-0.59,-0.09,0.33,-0.03,0.06,1.01,
0.455,-0.55,-0.08,0.29,-0.03,0.06,1.01,
0.457,-0.55,-0.08,0.29,-0.03,0.06,1.00,
0.46,-0.55,-0.08,0.29,-0.02,0.06,1.00,
0.46,-0.49,-0.07,0.23,-0.02,0.06,1.00,
0.463,-0.49,-0.07,0.23,-0.02,0.06,1.00,
0.465,-0.49,-0.07,0.23,-0.02,0.06,0.99,
0.465,-0.44,-0.08,0.17,-0.02,0.06,0.99,
0.467,-0.44,-0.08,0.17,-0.02,0.06,0.99,
0.47,-0.44,-0.08,0.17,-0.02,0.06,0.99,
0.47,-0.40,-0.10,0.12,-0.02,0.06,0.99,
0.472,-0.40,-0.10,0.12,-0.02,0.06,0.98,
0.475,-0.40,-0.10,0.12,-0.02,0.06,0.98,
0.475,-0.37,-0.07,0.05,-0.02,0.06,0.98,
0.477,-0.37,-0.07,0.05,-0.02,0.06,0.98,
0.48,-0.37,-0.07,0.05,-0.01,0.06,0.98,
0.48,-0.34,-0.07,-0.01,-0.01,0.06,0.98,
0.482,-0.34,-0.07,-0.01,-0.01,0.06,0.98,
0.484,-0.34,-0.07,-0.01,-0.01,0.06,0.98,
0.485,-0.30,-0.08,-0.04,-0.01,0.06,0.98,
0.487,-0.30,-0.08,-0.04,-0.01,0.06,0.98,
0.489,-0.30,-0.08,-0.04,-0.01,0.06,0.97,
0.489,-0.28,-0.10,-0.05,-0.01,0.06,0.97,
0.491,-0.28,-0.10,-0.05,-0.01,0.06,0.98,
0.494,-0.28,-0.10,-0.05,-0.02,0.06,0.98,
0.494,-0.28,-0.12,-0.08,-0.02,0.06,0.98,
0.497,-0.28,-0.12,-0.08,-0.02,0.06,0.98,
0.499,-0.28,-0.12,-0.08,-0.02,0.06,0.98,
0.499,-0.29,-0.12,-0.06,-0.02,0.06,0.98,
0.501,-0.29,-0.12,-0.06,-0.02,0.06,0.98,
0.504,-0.29,-0.12,-0.06,-0.02,0.06,0.98,
0.504,-0.31,-0.13,-0.03,-0.02,0.06,0.98,
0.506,-0.31,-0.13,-0.03,-0.02,0.05,0.98,
0.509,-0.34,-0.13,-0.01,-0.02,0.05,0.98,
0.509,-0.34,-0.13,-0.01,-0.02,0.05,0.99,
0.511,-0.34,-0.13,-0.01,-0.02,0.05,0.99,
0.513,-0.34,-0.13,-0.01,-0.02,0.05,0.99,
0.514,-0.33,-0.17,0.02,-0.02,0.05,0.99,
0.516,-0.33,-0.17,0.02,-0.02,0.05,0.99,
0.518,-0.33,-0.17,0.02,-0.02,0.05,0.99,
0.519,-0.36,-0.20,0.04,-0.02,0.05,0.99,
0.521,-0.36,-0.20,0.04,-0.03,0.05,0.99,
0.523,-0.36,-0.20,0.04,-0.03,0.05,0.99,
0.524,-0.35,-0.21,0.08,-0.03,0.05,0.99,
0.526,-0.35,-0.21,0.08,-0.03,0.04,0.99,
0.528,-0.35,-0.21,0.08,-0.03,0.04,0.99,
0.529,-0.38,-0.22,0.11,-0.03,0.04,0.99,
0.534,-0.38,-0.22,0.11,-0.03,0.04,0.99,
0.534,-0.38,-0.22,0.11,-0.03,0.04,0.99,
0.535,-0.40,-0.26,0.10,-0.03,0.04,0.99,
0.535,-0.40,-0.26,0.10,-0.03,0.04,0.99,
0.538,-0.40,-0.26,0.10,-0.03,0.04,0.99,
0.538,-0.40,-0.28,0.09,-0.03,0.04,0.99,
0.54,-0.40,-0.28,0.09,-0.03,0.04,0.99,
0.543,-0.40,-0.28,0.09,-0.03,0.04,0.99,
0.543,-0.40,-0.30,0.09,-0.03,0.04,0.99,
0.545,-0.40,-0.30,0.09,-0.03,0.04,0.99,
0.548,-0.40,-0.30,0.09,-0.03,0.04,0.99,
0.548,-0.38,-0.30,0.08,-0.03,0.04,0.99,
0.55,-0.38,-0.30,0.08,-0.03,0.04,0.99,
0.553,-0.38,-0.30,0.08,-0.03,0.04,0.98,
0.553,-0.36,-0.31,0.04,-0.03,0.04,0.98,
0.555,-0.36,-0.31,0.04,-0.02,0.04,0.98,
0.558,-0.36,-0.31,0.04,-0.02,0.04,0.98,
0.558,-0.32,-0.31,0.01,-0.02,0.04,0.98,
0.56,-0.32,-0.31,0.01,-0.02,0.04,0.98,
0.563,-0.32,-0.31,0.01,-0.02,0.04,0.97,
0.563,-0.27,-0.28,-0.03,-0.02,0.04,0.97,
0.565,-0.27,-0.28,-0.03,-0.01,0.04,0.97,
0.568,-0.27,-0.28,-0.03,-0.01,0.04,0.97,
0.568,-0.23,-0.28,-0.08,-0.01,0.04,0.97,
0.57,-0.23,-0.28,-0.08,-0.01,0.05,0.97,
0.573,-0.23,-0.28,-0.08,-0.00,0.04,0.96,
0.573,-0.16,-0.27,-0.13,-0.00,0.04,0.96,
0.575,-0.16,-0.27,-0.13,-0.00,0.05,0.96,
0.578,-0.16,-0.27,-0.13,-0.00,0.05,0.96,
0.578,-0.10,-0.24,-0.18,-0.00,0.05,0.96,
0.58,-0.10,-0.24,-0.18,0.00,0.05,0.96,
0.582,-0.10,-0.24,-0.18,0.00,0.05,0.96,
0.583,-0.06,-0.23,-0.20,0.00,0.05,0.96,
0.585,-0.06,-0.23,-0.20,0.00,0.05,0.96,
0.587,-0.06,-0.23,-0.20,0.01,0.05,0.96,
0.587,-0.01,-0.20,-0.21,0.01,0.05,0.96,
0.589,-0.01,-0.20,-0.21,0.01,0.05,0.96,
0.592,-0.01,-0.20,-0.21,0.01,0.05,0.96,
0.592,0.04,-0.21,-0.23,0.01,0.05,0.96,
0.595,0.04,-0.21,-0.23,0.01,0.05,0.96,
0.597,0.04,-0.21,-0.23,0.01,0.05,0.96,
0.598,0.05,-0.21,-0.23,0.01,0.05,0.96,
0.599,0.05,-0.21,-0.23,0.01,0.05,0.96,
0.602,0.05,-0.21,-0.23,0.01,0.05,0.95,
0.602,0.06,-0.21,-0.25,0.01,0.05,0.95,
0.604,0.06,-0.21,-0.25,0.01,0.05,0.95,
0.607,0.06,-0.21,-0.26,0.01,0.05,0.95,
0.607,0.06,-0.21,-0.26,0.00,0.05,0.95,
0.609,0.06,-0.21,-0.26,0.01,0.05,0.95,
0.613,0.06,-0.21,-0.26,0.01,0.05,0.95,
0.613,0.06,-0.23,-0.27,0.01,0.05,0.95,
0.615,0.06,-0.23,-0.27,0.01,0.04,0.95,
0.617,0.06,-0.23,-0.27,0.01,0.04,0.95,
0.617,0.08,-0.23,-0.26,0.01,0.04,0.95,
0.619,0.08,-0.23,-0.26,0.01,0.04,0.95,
0.621,0.08,-0.23,-0.26,0.00,0.04,0.95,
0.622,0.08,-0.26,-0.27,0.00,0.04,0.95,
0.624,0.08,-0.26,-0.27,0.00,0.04,0.95,
0.626,0.08,-0.26,-0.27,0.00,0.04,0.95,
0.627,0.06,-0.27,-0.29,0.00,0.04,0.95,
0.63,0.06,-0.27,-0.29,0.00,0.04,0.95,
0.631,0.06,-0.27,-0.29,0.00,0.04,0.95,
0.632,0.05,-0.29,-0.28,0.00,0.04,0.95,
0.634,0.05,-0.29,-0.28,0.00,0.04,0.95,
0.636,0.05,-0.29,-0.28,0.00,0.04,0.95,
0.636,0.04,-0.30,-0.26,0.00,0.04,0.95,
0.638,0.04,-0.30,-0.26,0.00,0.03,0.95,
0.641,0.04,-0.30,-0.26,0.01,0.03,0.95,
0.641,0.06,-0.33,-0.26,0.01,0.03,0.95,
0.643,0.06,-0.33,-0.26,0.00,0.03,0.95,
0.651,0.06,-0.33,-0.26,0.01,0.03,0.95,
0.652,0.08,-0.35,-0.25,0.01,0.03,0.95,
0.652,0.08,-0.35,-0.25,0.01,0.03,0.95,
0.654,0.08,-0.35,-0.25,0.01,0.03,0.96,
0.654,0.09,-0.36,-0.25,0.01,0.03,0.96,
0.654,0.09,-0.36,-0.25,0.01,0.03,0.96,
0.656,0.09,-0.36,-0.25,0.01,0.03,0.96,
0.656,0.12,-0.38,-0.23,0.01,0.03,0.96,
0.658,0.12,-0.38,-0.23,0.01,0.03,0.96,
0.661,0.12,-0.38,-0.23,0.01,0.02,0.96,
0.661,0.12,-0.39,-0.20,0.01,0.02,0.96,
0.663,0.12,-0.39,-0.20,0.01,0.02,0.96,
0.665,0.12,-0.39,-0.20,0.01,0.02,0.96,
0.666,0.15,-0.42,-0.17,0.01,0.02,0.96,
0.668,0.15,-0.42,-0.17,0.02,0.02,0.97,
0.67,0.15,-0.42,-0.17,0.02,0.02,0.97,
0.67,0.17,-0.43,-0.15,0.02,0.02,0.97,
0.672,0.17,-0.43,-0.15,0.02,0.02,0.97,
0.675,0.17,-0.43,-0.15,0.02,0.02,0.97,
0.675,0.21,-0.43,-0.10,0.02,0.02,0.97,
0.677,0.21,-0.43,-0.10,0.02,0.02,0.97,
0.68,0.21,-0.43,-0.10,0.02,0.02,0.97,
0.681,0.22,-0.43,-0.08,0.02,0.02,0.97,
0.682,0.22,-0.43,-0.08,0.02,0.02,0.97,
0.685,0.22,-0.43,-0.08,0.02,0.03,0.97,
0.686,0.23,-0.42,-0.08,0.02,0.03,0.97,
0.687,0.23,-0.42,-0.08,0.02,0.03,0.97,
0.69,0.23,-0.42,-0.08,0.03,0.03,0.97,
0.69,0.26,-0.40,-0.07,0.03,0.03,0.97,
0.692,0.26,-0.40,-0.07,0.03,0.03,0.97,
0.695,0.26,-0.40,-0.07,0.03,0.03,0.97,
0.695,0.29,-0.36,-0.07,0.03,0.03,0.97,
0.698,0.29,-0.36,-0.07,0.03,0.03,0.97,
0.7,0.29,-0.36,-0.07,0.03,0.03,0.97,
0.7,0.33,-0.36,-0.07,0.03,0.03,0.97,
0.702,0.33,-0.36,-0.07,0.03,0.03,0.97,
0.705,0.33,-0.36,-0.07,0.03,0.03,0.97,
0.705,0.36,-0.37,-0.09,0.03,0.03,0.97,
0.707,0.36,-0.37,-0.09,0.03,0.03,0.96,
0.709,0.36,-0.37,-0.09,0.03,0.03,0.96,
0.71,0.37,-0.38,-0.12,0.03,0.03,0.96,
0.713,0.37,-0.38,-0.12,0.03,0.03,0.96,
0.715,0.37,-0.38,-0.12,0.03,0.03,0.96,
0.715,0.36,-0.37,-0.13,0.03,0.03,0.96,
0.717,0.36,-0.37,-0.13,0.03,0.03,0.96,
0.719,0.36,-0.37,-0.13,0.03,0.03,0.96,
0.72,0.35,-0.35,-0.18,0.03,0.03,0.96,
0.722,0.35,-0.35,-0.18,0.03,0.03,0.95,
0.724,0.35,-0.35,-0.18,0.03,0.03,0.95,
0.725,0.36,-0.35,-0.21,0.03,0.03,0.95,
0.727,0.36,-0.35,-0.21,0.03,0.03,0.95,
0.729,0.36,-0.35,-0.21,0.03,0.03,0.95,
0.73,0.37,-0.34,-0.23,0.03,0.03,0.95,
0.732,0.37,-0.34,-0.23,0.03,0.03,0.95,
0.734,0.37,-0.34,-0.23,0.03,0.03,0.95,
0.734,0.37,-0.34,-0.24,0.03,0.03,0.95,
0.736,0.37,-0.34,-0.24,0.04,0.03,0.95,
0.739,0.37,-0.34,-0.24,0.04,0.03,0.95,
0.739,0.39,-0.33,-0.24,0.04,0.03,0.95,
0.741,0.39,-0.33,-0.24,0.03,0.03,0.95,
0.744,0.39,-0.33,-0.24,0.03,0.03,0.95,
0.744,0.40,-0.31,-0.28,0.03,0.03,0.95,
0.752,0.40,-0.31,-0.28,0.03,0.03,0.95,
0.752,0.40,-0.31,-0.28,0.04,0.03,0.95,
0.753,0.39,-0.29,-0.29,0.04,0.03,0.95,
0.753,0.39,-0.29,-0.29,0.03,0.03,0.95,
0.754,0.39,-0.29,-0.29,0.03,0.03,0.95,
0.754,0.39,-0.29,-0.29,0.03,0.03,0.95,
0.756,0.39,-0.29,-0.29,0.03,0.03,0.95,
0.758,0.39,-0.29,-0.29,0.04,0.03,0.95,
0.759,0.39,-0.28,-0.29,0.04,0.03,0.95,
0.761,0.39,-0.28,-0.29,0.04,0.03,0.95,
0.763,0.39,-0.28,-0.29,0.03,0.03,0.95,
0.764,0.39,-0.26,-0.27,0.03,0.03,0.95,
0.766,0.39,-0.26,-0.27,0.03,0.03,0.95,
0.768,0.39,-0.26,-0.27,0.04,0.03,0.95,
0.768,0.39,-0.25,-0.26,0.04,0.03,0.95,
0.771,0.39,-0.25,-0.26,0.03,0.04,0.96,
0.773,0.39,-0.25,-0.26,0.04,0.03,0.96,
0.773,0.40,-0.25,-0.23,0.04,0.03,0.96,
0.775,0.40,-0.25,-0.23,0.03,0.03,0.96,
0.778,0.40,-0.25,-0.23,0.04,0.03,0.96,
0.778,0.39,-0.23,-0.17,0.04,0.03,0.96,
0.78,0.39,-0.23,-0.17,0.03,0.03,0.97,
0.783,0.39,-0.23,-0.17,0.03,0.03,0.97,
0.783,0.39,-0.24,-0.12,0.03,0.03,0.97,
0.785,0.39,-0.24,-0.12,0.04,0.03,0.97,
0.788,0.39,-0.24,-0.12,0.04,0.03,0.97,
0.788,0.39,-0.23,-0.07,0.04,0.03,0.97,
0.79,0.39,-0.23,-0.07,0.04,0.03,0.97,
0.793,0.39,-0.23,-0.07,0.04,0.03,0.98,
0.793,0.41,-0.23,-0.05,0.04,0.03,0.98,
0.796,0.41,-0.23,-0.05,0.03,0.03,0.98,
0.798,0.41,-0.23,-0.05,0.03,0.03,0.97,
0.798,0.41,-0.24,-0.00,0.03,0.03,0.97,
0.8,0.41,-0.24,-0.00,0.03,0.03,0.97,
0.803,0.41,-0.24,-0.00,0.03,0.03,0.97,
0.803,0.38,-0.23,-0.00,0.03,0.03,0.97,
0.805,0.38,-0.23,-0.00,0.03,0.04,0.97,
0.807,0.38,-0.23,-0.00,0.03,0.03,0.97,
0.807,0.38,-0.20,-0.02,0.03,0.03,0.97,
0.81,0.38,-0.20,-0.02,0.03,0.04,0.97,
0.813,0.38,-0.20,-0.02,0.03,0.03,0.97,
0.818,0.36,-0.18,-0.03,0.03,0.03,0.97,
0.818,0.36,-0.18,-0.03,0.03,0.03,0.97,
0.819,0.36,-0.18,-0.03,0.03,0.03,0.97,
0.819,0.35,-0.18,-0.04,0.03,0.03,0.97,
0.821,0.35,-0.18,-0.04,0.03,0.03,0.97,
0.822,0.35,-0.18,-0.04,0.04,0.04,0.97,
0.823,0.36,-0.18,-0.05,0.04,0.04,0.97,
0.824,0.36,-0.18,-0.05,0.04,0.04,0.97,
0.827,0.36,-0.18,-0.05,0.04,0.04,0.97,
0.827,0.37,-0.16,-0.08,0.04,0.04,0.97,
0.829,0.37,-0.16,-0.08,0.04,0.04,0.96,
0.832,0.37,-0.16,-0.08,0.04,0.04,0.96,
0.832,0.42,-0.14,-0.09,0.04,0.04,0.96,
0.835,0.42,-0.14,-0.09,0.04,0.04,0.97,
0.837,0.42,-0.14,-0.09,0.04,0.04,0.96,
0.837,0.43,-0.12,-0.10,0.04,0.04,0.96,
0.839,0.43,-0.12,-0.10,0.04,0.04,0.97,
0.842,0.43,-0.12,-0.10,0.05,0.04,0.97,
0.842,0.46,-0.10,-0.10,0.05,0.04,0.97,
0.844,0.46,-0.10,-0.10,0.05,0.04,0.97,
0.852,0.46,-0.10,-0.10,0.05,0.05,0.97,
0.853,0.49,-0.07,-0.09,0.05,0.05,0.97,
0.853,0.49,-0.07,-0.09,0.05,0.05,0.97,
0.853,0.49,-0.07,-0.09,0.05,0.05,0.97,
0.853,0.53,-0.05,-0.08,0.05,0.05,0.97,
0.854,0.53,-0.05,-0.08,0.06,0.05,0.97,
0.857,0.53,-0.05,-0.08,0.06,0.05,0.97,
0.857,0.56,-0.03,-0.06,0.06,0.05,0.97,
0.859,0.56,-0.03,-0.06,0.06,0.05,0.97,
0.862,0.56,-0.03,-0.06,0.06,0.05,0.97,
0.862,0.59,-0.02,-0.05,0.06,0.05,0.97,
0.864,0.59,-0.02,-0.05,0.06,0.05,0.97,
0.866,0.59,-0.02,-0.05,0.06,0.05,0.97,
0.866,0.60,-0.00,-0.05,0.06,0.05,0.97,
0.869,0.60,-0.00,-0.05,0.06,0.06,0.97,
0.871,0.60,-0.00,-0.05,0.06,0.05,0.97,
0.871,0.59,0.04,-0.06,0.06,0.05,0.97,
0.873,0.59,0.04,-0.06,0.05,0.06,0.97,
0.876,0.59,0.04,-0.06,0.06,0.06,0.97,
0.876,0.59,0.08,-0.09,0.06,0.06,0.97,
0.879,0.59,0.08,-0.09,0.06,0.06,0.97,
0.881,0.59,0.08,-0.09,0.06,0.06,0.97,
0.881,0.58,0.09,-0.09,0.06,0.06,0.97,
0.883,0.58,0.09,-0.09,0.06,0.06,0.97,
0.886,0.58,0.09,-0.09,0.06,0.06,0.97,
0.886,0.58,0.11,-0.08,0.06,0.06,0.97,
0.888,0.58,0.11,-0.08,0.06,0.06,0.97,
0.891,0.58,0.11,-0.08,0.07,0.06,0.97,
0.891,0.60,0.12,-0.08,0.07,0.06,0.97,
0.893,0.60,0.12,-0.08,0.07,0.06,0.97,
0.896,0.60,0.12,-0.08,0.07,0.06,0.97,
0.897,0.65,0.13,-0.08,0.07,0.06,0.97,
0.898,0.65,0.13,-0.08,0.07,0.06,0.97,
0.901,0.65,0.13,-0.08,0.08,0.07,0.97,
0.901,0.70,0.16,-0.08,0.08,0.07,0.97,
0.903,0.70,0.16,-0.08,0.08,0.07,0.97,
0.905,0.70,0.16,-0.08,0.08,0.07,0.97,
0.906,0.74,0.19,-0.08,0.08,0.07,0.97,
0.908,0.74,0.19,-0.08,0.09,0.07,0.97,
0.91,0.74,0.19,-0.08,0.09,0.07,0.97,
0.911,0.79,0.21,-0.06,0.09,0.07,0.97,
0.913,0.79,0.21,-0.06,0.09,0.07,0.97,
0.915,0.79,0.21,-0.06,0.09,0.07,0.97,
0.915,0.83,0.22,-0.04,0.09,0.07,0.97,
0.917,0.83,0.22,-0.04,0.09,0.07,0.97,
0.92,0.83,0.22,-0.04,0.09,0.07,0.98,
0.921,0.85,0.23,-0.02,0.09,0.07,0.98,
0.922,0.85,0.23,-0.02,0.09,0.07,0.97,
0.925,0.85,0.23,-0.02,0.09,0.06,0.97,
0.925,0.84,0.22,0.00,0.09,0.06,0.97,
0.927,0.84,0.22,0.00,0.09,0.06,0.97,
0.935,0.84,0.22,0.00,0.09,0.06,0.97,
0.936,0.83,0.21,0.00,0.09,0.06,0.97,
0.936,0.83,0.21,0.00,0.09,0.06,0.97,
0.936,0.83,0.21,0.00,0.09,0.06,0.97,
0.936,0.81,0.19,-0.01,0.09,0.06,0.97,
0.937,0.81,0.19,-0.01,0.08,0.06,0.97,
0.94,0.81,0.19,-0.01,0.08,0.06,0.97,
0.94,0.78,0.20,-0.01,0.08,0.06,0.97,
0.942,0.78,0.20,-0.01,0.08,0.06,0.97,
0.945,0.78,0.20,-0.01,0.08,0.06,0.97,
0.945,0.74,0.19,-0.01,0.08,0.06,0.97,
0.948,0.74,0.19,-0.01,0.08,0.06,0.97,
0.949,0.74,0.19,-0.01,0.08,0.06,0.98,
0.95,0.72,0.19,-0.00,0.08,0.06,0.98,
0.952,0.72,0.19,-0.00,0.08,0.06,0.98,
0.955,0.72,0.19,-0.00,0.08,0.06,0.98,
0.955,0.71,0.17,0.01,0.08,0.06,0.98,
0.956,0.71,0.17,0.01,0.08,0.06,0.98,
0.959,0.71,0.17,0.01,0.08,0.05,0.98,
0.959,0.67,0.16,0.06,0.08,0.05,0.98,
0.962,0.67,0.16,0.06,0.08,0.06,0.99,
0.964,0.67,0.16,0.06,0.08,0.06,0.99,
0.964,0.66,0.14,0.08,0.08,0.06,0.99,
0.966,0.66,0.14,0.08,0.08,0.06,0.99,
0.969,0.66,0.14,0.08,0.09,0.06,0.99,
0.969,0.69,0.15,0.12,0.09,0.06,0.99,
0.971,0.69,0.15,0.12,0.09,0.06,0.99,
0.974,0.69,0.15,0.12,0.09,0.06,0.99,
0.974,0.73,0.15,0.14,0.09,0.06,0.99,
0.976,0.73,0.15,0.14,0.09,0.06,0.99,
0.979,0.73,0.15,0.14,0.09,0.06,0.99,
0.979,0.75,0.19,0.15,0.09,0.06,0.99,
0.981,0.75,0.19,0.15,0.10,0.06,0.99,
0.984,0.75,0.19,0.15,0.10,0.06,0.99,
0.984,0.78,0.19,0.15,0.10,0.06,0.99,
0.986,0.78,0.19,0.15,0.10,0.06,0.99,
0.989,0.78,0.19,0.15,0.10,0.06,0.99,
0.989,0.82,0.20,0.15,0.10,0.06,0.99,
0.991,0.82,0.20,0.15,0.10,0.06,0.99,
0.994,0.82,0.20,0.15,0.10,0.06,0.99,
0.994,0.85,0.20,0.13,0.10,0.06,0.99,
0.996,0.85,0.20,0.13,0.11,0.06,0.98,
0.998,0.85,0.20,0.13,0.11,0.06,0.98,
0.999,0.85,0.22,0.10,0.11,0.06,0.98,
1.001,0.85,0.22,0.10,0.11,0.06,0.98,
1.003,0.85,0.22,0.10,0.11,0.06,0.98,
1.003,0.88,0.23,0.07,0.11,0.06,0.98,
1.006,0.88,0.23,0.07,0.11,0.06,0.98,
1.008,0.88,0.23,0.07,0.11,0.07,0.98,
1.008,0.88,0.24,0.05,0.11,0.07,0.98,
1.011,0.88,0.24,0.05,0.11,0.07,0.97,
1.013,0.88,0.24,0.05,0.11,0.06,0.98,
1.013,0.87,0.24,0.03,0.11,0.06,0.98,
1.016,0.87,0.24,0.03,0.11,0.06,0.98,
1.018,0.87,0.24,0.03,0.11,0.06,0.98,
1.018,0.85,0.26,-0.01,0.11,0.06,0.98,
1.02,0.85,0.26,-0.01,0.11,0.06,0.97,
1.023,0.85,0.26,-0.01,0.10,0.06,0.98,
1.023,0.84,0.23,-0.00,0.10,0.06,0.98,
1.025,0.84,0.23,-0.00,0.10,0.06,0.98,
1.034,0.84,0.23,-0.00,0.10,0.06,0.98,
1.035,0.80,0.22,-0.01,0.10,0.06,0.98,
1.035,0.80,0.22,-0.01,0.10,0.06,0.98,
1.035,0.80,0.22,-0.01,0.10,0.06,0.98,
1.035,0.79,0.21,0.03,0.10,0.06,0.98,
1.036,0.79,0.21,0.03,0.10,0.06,0.99,
1.038,0.79,0.21,0.03,0.10,0.06,0.98,
1.038,0.77,0.22,0.06,0.10,0.06,0.98,
1.04,0.77,0.22,0.06,0.10,0.06,0.99,
1.043,0.77,0.22,0.06,0.10,0.06,0.99,
1.043,0.75,0.20,0.09,0.10,0.06,0.99,
1.045,0.75,0.20,0.09,0.10,0.06,0.99,
1.048,0.75,0.20,0.09,0.10,0.06,0.99,
1.048,0.76,0.20,0.11,0.10,0.06,0.99,
1.05,0.76,0.20,0.11,0.11,0.06,0.99,
1.052,0.76,0.20,0.11,0.11,0.06,0.99,
1.053,0.75,0.22,0.12,0.11,0.06,0.99,
1.055,0.75,0.22,0.12,0.11,0.06,0.99,
1.057,0.75,0.22,0.12,0.11,0.06,0.99,
1.058,0.78,0.22,0.13,0.11,0.06,0.99,
1.06,0.78,0.22,0.13,0.11,0.06,0.99,
1.062,0.78,0.22,0.13,0.11,0.06,0.99,
1.063,0.79,0.20,0.13,0.11,0.06,0.99,
1.065,0.79,0.20,0.13,0.11,0.06,0.99,
1.067,0.79,0.20,0.13,0.12,0.06,0.99,
1.067,0.79,0.22,0.13,0.12,0.06,0.99,
1.069,0.79,0.22,0.13,0.12,0.06,0.99,
1.072,0.79,0.22,0.13,0.12,0.06,0.99,
1.072,0.81,0.25,0.12,0.12,0.06,0.99,
1.075,0.81,0.25,0.12,0.12,0.06,0.98,
1.077,0.81,0.25,0.12,0.12,0.06,0.98,
1.077,0.84,0.25,0.09,0.12,0.06,0.98,
1.079,0.84,0.25,0.09,0.12,0.06,0.98,
1.082,0.84,0.25,0.09,0.12,0.07,0.98,
1.082,0.82,0.25,0.06,0.12,0.07,0.98,
1.084,0.82,0.25,0.06,0.12,0.07,0.98,
1.087,0.82,0.25,0.06,0.12,0.07,0.98,
1.087,0.82,0.27,0.04,0.12,0.07,0.98,
1.089,0.82,0.27,0.04,0.12,0.07,0.98,
1.092,0.82,0.27,0.04,0.11,0.07,0.98,
1.092,0.81,0.29,0.03,0.11,0.07,0.98,
1.094,0.81,0.29,0.03,0.11,0.07,0.98,
1.097,0.81,0.29,0.03,0.11,0.07,0.98,
1.097,0.77,0.30,0.01,0.11,0.07,0.98,
1.099,0.77,0.30,0.01,0.11,0.07,0.98,
1.101,0.77,0.30,0.01,0.12,0.06,0.98,
1.102,0.75,0.30,0.02,0.12,0.06,0.98,
1.104,0.75,0.30,0.02,0.11,0.07,0.98,
1.106,0.75,0.30,0.02,0.12,0.07,0.98,
1.107,0.76,0.28,0.02,0.12,0.07,0.98,
1.109,0.76,0.28,0.02,0.12,0.07,0.98,
1.113,0.76,0.28,0.02,0.12,0.07,0.98,
1.113,0.74,0.29,0.03,0.12,0.07,0.98,
1.114,0.74,0.29,0.03,0.12,0.07,0.98,
1.116,0.74,0.29,0.03,0.12,0.07,0.98,
1.116,0.75,0.30,0.03,0.12,0.07,0.98,
1.118,0.75,0.30,0.03,0.12,0.07,0.98,
1.121,0.74,0.29,0.06,0.12,0.07,0.98,
1.121,0.74,0.29,0.06,0.12,0.07,0.98,
1.123,0.74,0.29,0.06,0.12,0.06,0.99,
1.126,0.74,0.29,0.06,0.12,0.06,0.99,
1.126,0.74,0.29,0.07,0.12,0.06,0.99,
1.129,0.74,0.29,0.07,0.12,0.06,0.99,
1.131,0.74,0.29,0.07,0.12,0.06,0.99,
1.131,0.75,0.26,0.08,0.12,0.06,0.99,
1.133,0.75,0.26,0.08,0.12,0.06,0.99,
1.136,0.75,0.26,0.08,0.13,0.06,0.99,
1.136,0.77,0.24,0.08,0.13,0.06,0.99,
1.138,0.77,0.24,0.08,0.12,0.07,0.99,
1.14,0.77,0.24,0.08,0.13,0.07,0.99,
1.141,0.77,0.26,0.11,0.13,0.07,0.99,
1.143,0.77,0.26,0.11,0.13,0.07,0.99,
1.151,0.77,0.26,0.11,0.13,0.06,0.99,
1.152,0.76,0.28,0.11,0.13,0.06,0.99,
1.152,0.76,0.28,0.11,0.13,0.06,0.99,
1.152,0.76,0.28,0.11,0.13,0.06,0.99,
1.152,0.75,0.27,0.13,0.13,0.06,0.99,
1.153,0.75,0.27,0.13,0.13,0.06,0.99,
1.155,0.75,0.26,0.14,0.13,0.06,0.99,
1.157,0.75,0.26,0.14,0.13,0.06,0.99,
1.157,0.75,0.26,0.14,0.13,0.06,0.99,
1.16,0.77,0.27,0.14,0.13,0.06,0.99,
1.16,0.77,0.27,0.14,0.13,0.06,0.99,
1.162,0.77,0.27,0.14,0.13,0.06,0.99,
1.165,0.77,0.27,0.14,0.13,0.06,1.00,
1.165,0.73,0.26,0.14,0.13,0.06,1.00,
1.167,0.73,0.26,0.14,0.13,0.06,0.99,
1.17,0.73,0.26,0.14,0.13,0.07,0.99,
1.17,0.72,0.26,0.16,0.13,0.07,0.99,
1.172,0.72,0.26,0.16,0.12,0.07,1.00,
1.175,0.72,0.26,0.16,0.12,0.07,0.99,
1.175,0.69,0.27,0.16,0.12,0.07,0.99,
1.177,0.69,0.27,0.16,0.12,0.07,0.99,
1.179,0.69,0.27,0.16,0.12,0.07,0.99,
1.18,0.64,0.29,0.16,0.12,0.07,0.99,
1.182,0.64,0.29,0.16,0.12,0.06,0.99,
1.184,0.64,0.29,0.16,0.11,0.06,0.99,
1.185,0.62,0.29,0.14,0.11,0.06,0.99,
1.187,0.62,0.29,0.14,0.12,0.06,0.99,
1.189,0.62,0.29,0.14,0.11,0.06,0.99,
1.189,0.56,0.26,0.13,0.11,0.06,0.99,
1.191,0.56,0.26,0.13,0.11,0.06,0.99,
1.195,0.56,0.26,0.13,0.11,0.06,0.99,
1.195,0.54,0.25,0.11,0.11,0.06,0.99,
1.196,0.54,0.25,0.11,0.10,0.06,0.99,
1.199,0.54,0.25,0.11,0.10,0.06,0.99,
1.199,0.47,0.23,0.10,0.10,0.06,0.99,
1.201,0.47,0.23,0.10,0.10,0.06,0.99,
1.204,0.47,0.23,0.10,0.10,0.06,0.99,
1.204,0.41,0.22,0.08,0.10,0.06,0.99,
1.206,0.41,0.22,0.08,0.10,0.06,0.99,
1.209,0.41,0.22,0.08,0.10,0.06,0.99,
1.209,0.36,0.21,0.08,0.10,0.06,0.99,
1.212,0.36,0.21,0.08,0.09,0.06,0.99,
1.214,0.36,0.21,0.08,0.09,0.05,0.99,
1.214,0.32,0.18,0.08,0.09,0.05,0.99,
1.216,0.32,0.18,0.08,0.09,0.05,0.99,
1.219,0.32,0.18,0.08,0.09,0.05,0.99,
1.219,0.28,0.16,0.08,0.09,0.05,0.99,
1.221,0.28,0.16,0.08,0.09,0.05,0.99,
1.224,0.28,0.16,0.08,0.09,0.05,0.99,
1.224,0.24,0.14,0.08,0.09,0.05,0.99,
1.226,0.24,0.14,0.08,0.09,0.05,0.99,
1.229,0.24,0.14,0.08,0.09,0.05,0.99,
1.229,0.21,0.13,0.09,0.09,0.05,0.99,
1.231,0.21,0.13,0.09,0.08,0.05,0.99,
1.233,0.21,0.13,0.09,0.08,0.04,0.99,
1.234,0.19,0.10,0.09,0.08,0.04,0.99,
1.236,0.19,0.10,0.09,0.08,0.04,0.99,
1.238,0.19,0.10,0.09,0.08,0.04,0.98,
1.238,0.16,0.07,0.07,0.08,0.04,0.98,
1.24,0.16,0.07,0.07,0.08,0.04,0.98,
1.243,0.16,0.07,0.07,0.08,0.04,0.98,
1.243,0.13,0.05,0.07,0.08,0.04,0.98,
1.249,0.13,0.05,0.07,0.08,0.04,0.98,
1.25,0.13,0.05,0.07,0.08,0.04,0.98,
1.25,0.13,-0.01,0.04,0.08,0.04,0.98,
1.25,0.13,-0.01,0.04,0.08,0.04,0.98,
1.253,0.13,-0.01,0.04,0.08,0.04,0.98,
1.253,0.09,-0.00,0.02,0.08,0.04,0.98,
1.255,0.09,-0.00,0.02,0.08,0.03,0.98,
1.258,0.09,-0.00,0.02,0.08,0.03,0.97,
1.258,0.10,-0.03,-0.01,0.08,0.03,0.97,
1.26,0.10,-0.03,-0.01,0.08,0.03,0.97,
1.263,0.10,-0.03,-0.01,0.08,0.03,0.97,
1.263,0.06,-0.06,-0.03,0.08,0.03,0.97,
1.265,0.06,-0.06,-0.03,0.08,0.03,0.97,
1.268,0.06,-0.06,-0.03,0.08,0.03,0.97,
1.268,0.05,-0.07,-0.06,0.08,0.03,0.97,
1.27,0.05,-0.07,-0.06,0.08,0.03,0.97,
1.272,0.05,-0.07,-0.06,0.08,0.03,0.97,
1.273,0.03,-0.07,-0.06,0.08,0.03,0.97,
1.275,0.03,-0.07,-0.06,0.08,0.03,0.97,
1.278,0.03,-0.07,-0.06,0.07,0.04,0.96,
1.278,0.01,-0.07,-0.08,0.07,0.04,0.96,
1.28,0.01,-0.07,-0.08,0.07,0.04,0.97,
1.283,0.01,-0.07,-0.08,0.07,0.03,0.96,
1.283,-0.03,-0.06,-0.12,0.07,0.03,0.96,
1.285,-0.03,-0.06,-0.12,0.07,0.03,0.96,
1.288,-0.03,-0.06,-0.12,0.07,0.04,0.96,
1.288,-0.09,-0.06,-0.12,0.07,0.04,0.96,
1.289,-0.09,-0.06,-0.12,0.07,0.04,0.96,
1.292,-0.09,-0.06,-0.12,0.06,0.04,0.96,
1.292,-0.13,-0.06,-0.14,0.06,0.04,0.96,
1.295,-0.13,-0.06,-0.14,0.06,0.04,0.96,
1.298,-0.13,-0.06,-0.14,0.06,0.04,0.96,
1.298,-0.15,-0.02,-0.16,0.06,0.04,0.96,
1.3,-0.15,-0.02,-0.16,0.06,0.04,0.96,
1.302,-0.15,-0.02,-0.16,0.06,0.04,0.96,
1.304,-0.19,-0.02,-0.14,0.06,0.04,0.96,
1.304,-0.19,-0.02,-0.14,0.06,0.04,0.96,
1.307,-0.19,-0.02,-0.14,0.06,0.04,0.96,
1.307,-0.22,-0.00,-0.14,0.06,0.04,0.96,
1.309,-0.22,-0.00,-0.14,0.06,0.04,0.97,
1.312,-0.22,-0.00,-0.14,0.06,0.04,0.97,
1.312,-0.25,-0.04,-0.13,0.06,0.04,0.97,
1.314,-0.25,-0.04,-0.13,0.06,0.04,0.97,
1.317,-0.25,-0.04,-0.13,0.05,0.03,0.97,
1.317,-0.27,-0.07,-0.09,0.05,0.03,0.97,
1.319,-0.27,-0.07,-0.09,0.05,0.03,0.97,
1.322,-0.27,-0.07,-0.09,0.05,0.03,0.98,
1.322,-0.31,-0.08,-0.06,0.05,0.03,0.98,
1.324,-0.31,-0.08,-0.06,0.05,0.03,0.98,
1.326,-0.31,-0.08,-0.06,0.05,0.03,0.98,
1.327,-0.34,-0.09,-0.02,0.05,0.03,0.98,
1.329,-0.34,-0.09,-0.02,0.04,0.03,0.98,
1.332,-0.34,-0.09,-0.02,0.04,0.03,0.98,
1.332,-0.39,-0.12,0.03,0.04,0.03,0.98,
1.333,-0.39,-0.12,0.03,0.04,0.03,0.99,
1.336,-0.39,-0.12,0.03,0.04,0.02,0.99,
1.336,-0.43,-0.14,0.08,0.04,0.02,0.99,
1.338,-0.43,-0.14,0.08,0.04,0.02,0.99,
1.341,-0.43,-0.14,0.08,0.03,0.02,1.00,
1.341,-0.47,-0.16,0.13,0.03,0.02,1.00,
1.343,-0.47,-0.16,0.13,0.03,0.02,1.00,
1.349,-0.47,-0.16,0.13,0.03,0.02,1.00,
1.35,-0.53,-0.20,0.19,0.03,0.02,1.00,
1.35,-0.53,-0.20,0.19,0.03,0.02,1.00,
1.352,-0.53,-0.20,0.19,0.03,0.02,1.00,
1.352,-0.57,-0.22,0.23,0.03,0.02,1.00,
1.354,-0.57,-0.22,0.23,0.03,0.02,1.01,
1.356,-0.57,-0.22,0.23,0.02,0.01,1.01,
1.356,-0.60,-0.24,0.26,0.02,0.01,1.01,
1.358,-0.60,-0.24,0.26,0.02,0.01,1.01,
1.362,-0.60,-0.24,0.26,0.02,0.01,1.01,
1.363,-0.64,-0.27,0.32,0.02,0.01,1.01,
1.363,-0.64,-0.27,0.32,0.02,0.01,1.01,
1.366,-0.64,-0.27,0.32,0.02,0.01,1.01,
1.366,-0.67,-0.30,0.35,0.02,0.01,1.01,
1.368,-0.67,-0.30,0.35,0.02,0.01,1.02,
1.371,-0.67,-0.30,0.35,0.02,0.01,1.01,
1.371,-0.69,-0.31,0.36,0.02,0.01,1.01,
1.373,-0.69,-0.31,0.36,0.02,0.01,1.01,
1.375,-0.69,-0.31,0.36,0.02,0.01,1.01,
1.376,-0.73,-0.32,0.37,0.02,0.01,1.01,
1.378,-0.73,-0.32,0.37,0.02,0.01,1.01,
1.38,-0.73,-0.32,0.37,0.02,0.01,1.01,
1.381,-0.75,-0.34,0.34,0.02,0.01,1.01,
1.383,-0.75,-0.34,0.34,0.01,0.01,1.01,
1.385,-0.75,-0.34,0.34,0.02,0.00,1.00,
1.385,-0.75,-0.36,0.32,0.02,0.00,1.00,
1.387,-0.75,-0.36,0.32,0.02,0.00,1.00,
1.39,-0.75,-0.36,0.32,0.01,0.00,1.00,
1.39,-0.77,-0.37,0.26,0.01,0.00,1.00,
1.392,-0.77,-0.37,0.26,0.01,-0.00,1.00,
1.395,-0.77,-0.37,0.26,0.01,-0.00,0.99,
1.396,-0.77,-0.40,0.22,0.01,-0.00,0.99,
1.398,-0.77,-0.40,0.22,0.01,-0.00,0.99,
1.401,-0.77,-0.40,0.22,0.01,-0.01,0.99,
1.401,-0.79,-0.45,0.16,0.01,-0.01,0.99,
1.403,-0.79,-0.45,0.16,0.01,-0.01,0.99,
1.405,-0.79,-0.45,0.16,0.01,-0.01,0.99,
1.405,-0.81,-0.48,0.12,0.01,-0.01,0.99,
1.407,-0.81,-0.48,0.12,0.01,-0.01,0.98,
1.41,-0.81,-0.48,0.12,0.01,-0.01,0.98,
1.41,-0.82,-0.51,0.10,0.01,-0.01,0.98,
1.412,-0.82,-0.51,0.10,0.01,-0.01,0.98,
1.415,-0.82,-0.51,0.10,0.01,-0.01,0.98,
1.415,-0.82,-0.51,0.07,0.01,-0.01,0.98,
1.417,-0.82,-0.51,0.07,0.01,-0.01,0.98,
1.42,-0.82,-0.51,0.07,0.01,-0.01,0.98,
1.42,-0.85,-0.53,0.07,0.01,-0.01,0.98,
1.422,-0.85,-0.53,0.07,0.00,-0.01,0.98,
1.424,-0.85,-0.53,0.07,0.00,-0.01,0.98,
1.425,-0.87,-0.53,0.06,0.00,-0.01,0.98,
1.427,-0.87,-0.53,0.06,0.00,-0.01,0.98,
1.435,-0.87,-0.53,0.06,0.00,-0.01,0.99,
1.436,-0.90,-0.55,0.05,0.00,-0.01,0.99,
1.436,-0.90,-0.55,0.05,-0.00,-0.01,0.99,
1.436,-0.90,-0.55,0.05,-0.00,-0.02,0.98,
1.437,-0.92,-0.56,0.08,-0.00,-0.02,0.98,
1.437,-0.92,-0.56,0.08,-0.00,-0.01,0.99,
1.44,-0.95,-0.58,0.09,-0.00,-0.01,0.99,
1.44,-0.95,-0.58,0.09,-0.00,-0.01,0.98,
1.441,-0.95,-0.58,0.09,-0.00,-0.01,0.98,
1.452,-0.95,-0.58,0.09,-0.00,-0.01,0.98,
1.452,-0.95,-0.58,0.08,-0.00,-0.01,0.98,
1.452,-0.95,-0.58,0.08,-0.00,-0.01,0.98,
1.452,-0.95,-0.58,0.08,-0.00,-0.01,0.98,
1.452,-0.97,-0.57,0.07,-0.00,-0.01,0.98,
1.452,-0.97,-0.57,0.07,-0.00,-0.01,0.98,
1.454,-0.97,-0.57,0.07,0.00,-0.01,0.97,
1.454,-0.96,-0.56,0.02,0.00,-0.01,0.97,
1.456,-0.96,-0.56,0.02,0.00,-0.01,0.97,
1.459,-0.96,-0.56,0.02,0.00,-0.01,0.97,
1.459,-0.96,-0.56,-0.01,0.00,-0.01,0.97,
1.461,-0.96,-0.56,-0.01,0.01,-0.01,0.97,
1.464,-0.96,-0.56,-0.01,0.01,-0.01,0.96,
1.464,-0.94,-0.54,-0.06,0.01,-0.01,0.96,
1.466,-0.94,-0.54,-0.06,0.01,-0.01,0.96,
1.469,-0.94,-0.54,-0.06,0.01,-0.01,0.96,
1.469,-0.89,-0.53,-0.11,0.01,-0.01,0.96,
1.471,-0.89,-0.53,-0.11,0.01,-0.01,0.96,
1.473,-0.89,-0.53,-0.11,0.01,-0.01,0.96,
1.474,-0.85,-0.54,-0.15,0.01,-0.01,0.96,
1.476,-0.85,-0.54,-0.15,0.02,-0.01,0.96,
1.479,-0.85,-0.54,-0.15,0.02,-0.01,0.95,
1.479,-0.83,-0.55,-0.19,0.02,-0.01,0.95,
1.481,-0.83,-0.55,-0.19,0.02,-0.01,0.95,
1.484,-0.83,-0.55,-0.19,0.02,-0.01,0.96,
1.484,-0.80,-0.53,-0.21,0.02,-0.01,0.96,
1.486,-0.80,-0.53,-0.21,0.02,-0.01,0.96,
1.488,-0.80,-0.53,-0.21,0.02,-0.01,0.96,
1.488,-0.80,-0.53,-0.20,0.02,-0.01,0.96,
1.491,-0.80,-0.53,-0.20,0.02,-0.01,0.96,
1.493,-0.80,-0.53,-0.20,0.02,-0.01,0.97,
1.493,-0.76,-0.52,-0.14,0.02,-0.01,0.97,
1.496,-0.76,-0.52,-0.14,0.02,-0.01,0.97,
1.498,-0.76,-0.52,-0.14,0.02,-0.01,0.97,
1.499,-0.75,-0.55,-0.10,0.02,-0.01,0.97,
1.5,-0.75,-0.55,-0.10,0.02,-0.01,0.97,
1.503,-0.75,-0.55,-0.10,0.02,-0.01,0.97,
1.503,-0.76,-0.55,-0.06,0.02,-0.01,0.97,
1.505,-0.76,-0.55,-0.06,0.02,-0.01,0.97,
1.508,-0.76,-0.55,-0.06,0.02,-0.01,0.97,
1.508,-0.77,-0.52,-0.03,0.02,-0.01,0.97,
1.51,-0.77,-0.52,-0.03,0.02,-0.01,0.98,
1.513,-0.77,-0.52,-0.03,0.01,-0.01,0.97,
1.513,-0.79,-0.51,-0.00,0.01,-0.01,0.97,
1.515,-0.79,-0.51,-0.00,0.01,-0.01,0.97,
1.518,-0.79,-0.51,-0.00,0.01,-0.01,0.97,
1.518,-0.81,-0.52,0.01,0.01,-0.01,0.97,
1.52,-0.81,-0.52,0.01,0.01,-0.00,0.97,
1.523,-0.81,-0.52,0.01,0.01,-0.00,0.97,
1.523,-0.85,-0.50,-0.03,0.01,-0.00,0.97,
1.525,-0.85,-0.50,-0.03,0.01,-0.00,0.96,
1.53,-0.85,-0.50,-0.03,0.01,-0.00,0.96,
1.53,-0.87,-0.47,-0.07,0.01,-0.00,0.96,
1.53,-0.87,-0.47,-0.07,0.01,-0.00,0.96,
1.532,-0.87,-0.47,-0.07,0.01,-0.00,0.96,
1.532,-0.87,-0.45,-0.11,0.01,-0.00,0.96,
1.534,-0.87,-0.45,-0.11,0.01,0.00,0.95,
1.537,-0.87,-0.45,-0.11,0.01,0.00,0.95,
1.537,-0.86,-0.44,-0.16,0.01,0.00,0.95,
1.539,-0.86,-0.44,-0.16,0.01,0.00,0.95,
1.542,-0.86,-0.44,-0.16,0.02,0.01,0.95,
1.542,-0.84,-0.40,-0.18,0.02,0.01,0.95,
1.544,-0.84,-0.40,-0.18,0.02,0.01,0.95,
1.547,-0.84,-0.40,-0.18,0.02,0.01,0.95,
1.548,-0.80,-0.37,-0.19,0.02,0.01,0.95,
1.549,-0.80,-0.37,-0.19,0.02,0.01,0.95,
1.552,-0.80,-0.37,-0.19,0.02,0.01,0.96,
1.552,-0.75,-0.34,-0.20,0.02,0.01,0.96,
1.555,-0.75,-0.34,-0.20,0.02,0.01,0.96,
1.557,-0.75,-0.34,-0.20,0.02,0.01,0.96,
1.557,-0.73,-0.33,-0.17,0.02,0.01,0.96,
1.559,-0.73,-0.33,-0.17,0.02,0.01,0.96,
1.562,-0.73,-0.33,-0.17,0.02,0.02,0.96,
1.562,-0.70,-0.29,-0.15,0.02,0.02,0.96,
1.564,-0.70,-0.29,-0.15,0.02,0.02,0.96,
1.567,-0.70,-0.29,-0.15,0.03,0.02,0.96,
1.567,-0.70,-0.25,-0.14,0.03,0.02,0.96,
1.569,-0.70,-0.25,-0.14,0.03,0.02,0.96,
1.572,-0.70,-0.25,-0.14,0.03,0.02,0.96,
1.572,-0.67,-0.22,-0.11,0.03,0.02,0.96,
1.574,-0.67,-0.22,-0.11,0.03,0.02,0.96,
1.576,-0.67,-0.22,-0.11,0.03,0.02,0.96,
1.577,-0.66,-0.21,-0.11,0.03,0.02,0.96,
1.579,-0.66,-0.21,-0.11,0.03,0.02,0.96,
1.581,-0.66,-0.21,-0.11,0.03,0.02,0.96,
1.582,-0.64,-0.20,-0.11,0.03,0.02,0.96,
1.584,-0.64,-0.20,-0.11,0.02,0.02,0.96,
1.586,-0.64,-0.20,-0.11,0.02,0.02,0.96,
1.587,-0.64,-0.19,-0.09,0.02,0.02,0.96,
1.589,-0.64,-0.19,-0.09,0.02,0.02,0.96,
1.591,-0.64,-0.19,-0.09,0.02,0.02,0.96,
1.591,-0.68,-0.20,-0.09,0.02,0.02,0.96,
1.593,-0.68,-0.20,-0.09,0.02,0.02,0.96,
1.596,-0.68,-0.20,-0.09,0.02,0.02,0.96,
1.597,-0.70,-0.18,-0.11,0.02,0.02,0.96,
1.598,-0.70,-0.18,-0.11,0.02,0.02,0.96,
1.601,-0.70,-0.18,-0.11,0.02,0.02,0.96,
1.601,-0.74,-0.17,-0.13,0.02,0.02,0.96,
1.603,-0.74,-0.17,-0.13,0.02,0.02,0.96,
1.606,-0.74,-0.17,-0.13,0.02,0.02,0.95,
1.606,-0.74,-0.17,-0.15,0.02,0.02,0.95,
1.608,-0.74,-0.17,-0.15,0.02,0.03,0.95,
1.611,-0.74,-0.17,-0.15,0.02,0.03,0.95,
1.612,-0.75,-0.14,-0.16,0.02,0.03,0.95,
1.613,-0.75,-0.14,-0.16,0.02,0.03,0.96,
1.616,-0.75,-0.14,-0.16,0.02,0.03,0.96,
1.616,-0.73,-0.12,-0.18,0.02,0.03,0.96,
1.618,-0.73,-0.12,-0.18,0.02,0.03,0.96,
1.62,-0.73,-0.12,-0.18,0.03,0.03,0.96,
1.62,-0.69,-0.10,-0.15,0.03,0.03,0.96,
1.623,-0.69,-0.10,-0.15,0.03,0.03,0.97,
1.625,-0.69,-0.10,-0.15,0.03,0.04,0.97,
1.625,-0.65,-0.05,-0.10,0.03,0.04,0.97,
1.628,-0.65,-0.05,-0.10,0.03,0.04,0.97,
1.631,-0.65,-0.05,-0.10,0.03,0.04,0.97,
1.632,-0.61,-0.00,-0.04,0.03,0.04,0.97,
1.633,-0.61,-0.00,-0.04,0.03,0.04,0.98,
1.635,-0.61,-0.00,-0.04,0.03,0.05,0.98,
1.635,-0.61,0.04,0.02,0.03,0.05,0.98,
1.637,-0.61,0.04,0.02,0.04,0.05,0.98,
1.64,-0.61,0.04,0.02,0.04,0.05,0.99,
1.64,-0.55,0.09,0.08,0.04,0.05,0.99,
1.642,-0.55,0.09,0.08,0.04,0.05,0.99,
1.65,-0.55,0.09,0.08,0.04,0.05,0.99,
1.651,-0.51,0.14,0.14,0.04,0.05,0.99,
1.651,-0.51,0.14,0.14,0.04,0.05,0.99,
1.651,-0.51,0.14,0.14,0.04,0.05,1.00,
1.652,-0.47,0.17,0.18,0.04,0.05,1.00,
1.652,-0.47,0.17,0.18,0.05,0.06,1.00,
1.655,-0.47,0.17,0.18,0.05,0.06,1.00,
1.655,-0.44,0.22,0.23,0.05,0.06,1.00,
1.657,-0.44,0.22,0.23,0.05,0.06,1.00,
1.659,-0.44,0.22,0.23,0.05,0.06,1.00,
1.66,-0.38,0.27,0.27,0.05,0.06,1.00,
1.663,-0.38,0.27,0.27,0.06,0.06,1.01,
1.664,-0.38,0.27,0.27,0.06,0.06,1.01,
1.665,-0.32,0.28,0.31,0.06,0.06,1.01,
1.667,-0.32,0.28,0.31,0.06,0.06,1.01,
1.669,-0.32,0.28,0.31,0.06,0.06,1.01,
1.669,-0.29,0.29,0.34,0.06,0.06,1.01,
1.671,-0.29,0.29,0.34,0.05,0.06,1.01,
1.675,-0.29,0.29,0.34,0.05,0.06,1.01,
1.675,-0.29,0.29,0.37,0.05,0.06,1.01,
1.677,-0.29,0.29,0.37,0.05,0.06,1.01,
1.679,-0.29,0.29,0.37,0.05,0.06,1.01,
1.68,-0.32,0.29,0.37,0.05,0.06,1.01,
1.681,-0.32,0.29,0.37,0.05,0.06,1.01,
1.684,-0.36,0.31,0.36,0.05,0.06,1.01,
1.684,-0.36,0.31,0.36,0.05,0.06,1.01,
1.686,-0.36,0.31,0.36,0.04,0.06,1.01,
1.689,-0.36,0.31,0.36,0.04,0.06,1.01,
1.689,-0.38,0.31,0.35,0.04,0.06,1.01,
1.691,-0.38,0.31,0.35,0.04,0.06,1.00,
1.694,-0.38,0.31,0.35,0.04,0.06,1.00,
1.695,-0.44,0.30,0.31,0.04,0.06,1.00,
1.696,-0.44,0.30,0.31,0.03,0.06,1.00,
1.699,-0.44,0.30,0.31,0.03,0.06,1.00,
1.699,-0.47,0.30,0.26,0.03,0.06,1.00,
1.701,-0.47,0.30,0.26,0.03,0.06,1.00,
1.704,-0.47,0.30,0.26,0.03,0.06,1.00,
1.704,-0.49,0.29,0.23,0.03,0.06,1.00,
1.706,-0.49,0.29,0.23,0.02,0.06,0.99,
1.709,-0.49,0.29,0.23,0.02,0.06,1.00,
1.709,-0.52,0.28,0.20,0.02,0.06,1.00,
1.711,-0.52,0.28,0.20,0.02,0.06,1.00,
1.714,-0.52,0.28,0.20,0.02,0.06,1.00,
1.715,-0.57,0.29,0.19,0.02,0.06,1.00,
1.716,-0.57,0.29,0.19,0.01,0.06,1.00,
1.718,-0.57,0.29,0.19,0.01,0.06,1.00,
1.719,-0.60,0.31,0.21,0.01,0.06,1.00,
1.721,-0.60,0.31,0.21,0.00,0.06,1.00,
1.723,-0.60,0.31,0.21,0.00,0.06,1.01,
1.724,-0.66,0.30,0.23,0.00,0.06,1.01,
1.726,-0.66,0.30,0.23,-0.00,0.06,1.01,
1.728,-0.66,0.30,0.23,-0.00,0.06,1.01,
1.729,-0.73,0.32,0.28,-0.00,0.06,1.01,
1.731,-0.73,0.32,0.28,-0.01,0.05,1.02,
1.733,-0.73,0.32,0.28,-0.01,0.05,1.02,
1.733,-0.74,0.31,0.33,-0.01,0.05,1.02,
1.735,-0.74,0.31,0.33,-0.01,0.05,1.02,
1.738,-0.74,0.31,0.33,-0.01,0.05,1.02,
1.738,-0.77,0.29,0.38,-0.01,0.05,1.02,
1.74,-0.77,0.29,0.38,-0.01,0.05,1.02,
1.743,-0.77,0.29,0.38,-0.01,0.05,1.02,
1.743,-0.78,0.28,0.41,-0.01,0.05,1.02,
1.751,-0.78,0.28,0.41,-0.02,0.05,1.02,
1.752,-0.78,0.28,0.41,-0.02,0.05,1.02,
1.752,-0.79,0.28,0.43,-0.02,0.05,1.02,
1.752,-0.79,0.28,0.43,-0.02,0.05,1.02,
1.753,-0.79,0.28,0.43,-0.02,0.05,1.02,
1.753,-0.81,0.29,0.43,-0.02,0.05,1.02,
1.755,-0.81,0.29,0.43,-0.02,0.05,1.02,
1.757,-0.81,0.29,0.43,-0.02,0.05,1.02,
1.758,-0.83,0.27,0.43,-0.02,0.05,1.02,
1.76,-0.83,0.27,0.43,-0.03,0.05,1.02,
1.765,-0.83,0.27,0.43,-0.03,0.05,1.02,
1.766,-0.85,0.26,0.41,-0.03,0.05,1.02,
1.766,-0.85,0.26,0.41,-0.03,0.05,1.02,
1.767,-0.85,0.26,0.41,-0.03,0.05,1.02,
1.767,-0.86,0.26,0.39,-0.03,0.05,1.02,
1.77,-0.86,0.26,0.39,-0.03,0.05,1.02,
1.772,-0.86,0.26,0.39,-0.03,0.05,1.02,
1.772,-0.88,0.25,0.38,-0.03,0.05,1.02,
1.774,-0.88,0.25,0.38,-0.03,0.05,1.01,
1.777,-0.88,0.25,0.38,-0.03,0.05,1.01,
1.778,-0.87,0.27,0.35,-0.03,0.05,1.01,
1.779,-0.87,0.27,0.35,-0.03,0.05,1.01,
1.782,-0.87,0.27,0.35,-0.03,0.05,1.01,
1.782,-0.86,0.27,0.31,-0.03,0.05,1.01,
1.784,-0.86,0.27,0.31,-0.03,0.05,1.01,
1.787,-0.86,0.27,0.31,-0.03,0.05,1.01,
1.787,-0.86,0.25,0.30,-0.03,0.05,1.01,
1.789,-0.86,0.25,0.30,-0.03,0.04,1.00,
1.793,-0.86,0.25,0.30,-0.03,0.04,1.00,
1.795,-0.81,0.23,0.25,-0.03,0.04,1.00,
1.795,-0.81,0.23,0.25,-0.03,0.04,1.00,
1.797,-0.81,0.23,0.25,-0.03,0.04,1.00,
1.797,-0.79,0.21,0.21,-0.03,0.04,1.00,
1.799,-0.79,0.21,0.21,-0.03,0.04,0.99,
1.801,-0.79,0.21,0.21,-0.03,0.04,0.99,
1.802,-0.78,0.22,0.16,-0.03,0.04,0.99,
1.804,-0.78,0.22,0.16,-0.02,0.04,0.99,
1.806,-0.78,0.22,0.16,-0.02,0.04,0.99,
1.807,-0.75,0.20,0.10,-0.02,0.04,0.99,
1.809,-0.75,0.20,0.10,-0.02,0.04,0.99,
1.812,-0.75,0.20,0.10,-0.01,0.04,0.99,
1.812,-0.70,0.20,0.08,-0.01,0.04,0.99,
1.814,-0.70,0.20,0.08,-0.01,0.04,0.99,
1.816,-0.70,0.20,0.08,-0.01,0.05,0.99,
1.817,-0.61,0.20,0.08,-0.01,0.05,0.99,
1.819,-0.61,0.20,0.08,-0.00,0.05,0.99,
1.822,-0.61,0.20,0.08,-0.00,0.05,0.99,
1.823,-0.52,0.22,0.08,-0.00,0.05,0.99,
1.823,-0.52,0.22,0.08,0.00,0.05,0.99,
1.826,-0.52,0.22,0.08,0.00,0.05,0.99,
1.827,-0.48,0.23,0.07,0.00,0.05,0.99,
1.833,-0.48,0.23,0.07,0.00,0.05,0.99,
1.834,-0.44,0.23,0.08,0.00,0.05,0.99,
1.834,-0.44,0.23,0.08,0.00,0.05,0.99,
1.834,-0.44,0.23,0.08,0.00,0.05,0.99,
1.836,-0.44,0.23,0.08,0.01,0.05,0.99,
1.836,-0.40,0.23,0.10,0.01,0.05,0.99,
1.838,-0.40,0.23,0.10,0.01,0.05,0.99,
1.841,-0.40,0.23,0.10,0.01,0.05,1.00,
1.841,-0.38,0.24,0.10,0.01,0.05,1.00,
1.843,-0.38,0.24,0.10,0.01,0.05,1.00,
1.846,-0.38,0.24,0.10,0.01,0.05,1.00,
1.846,-0.33,0.23,0.12,0.01,0.05,1.00,
1.848,-0.33,0.23,0.12,0.01,0.05,1.00,
1.851,-0.33,0.23,0.12,0.02,0.05,1.00,
1.851,-0.30,0.23,0.13,0.02,0.05,1.00,
1.853,-0.30,0.23,0.13,0.02,0.05,1.00,
1.855,-0.30,0.23,0.13,0.01,0.05,1.00,
1.855,-0.26,0.24,0.13,0.01,0.05,1.00,
1.858,-0.26,0.24,0.13,0.01,0.05,1.00,
1.861,-0.25,0.24,0.15,0.01,0.05,1.00,
1.861,-0.25,0.24,0.15,0.01,0.05,1.00,
1.863,-0.25,0.24,0.15,0.01,0.05,1.00,
1.865,-0.25,0.24,0.15,0.01,0.05,1.00,
1.869,-0.25,0.25,0.15,0.01,0.05,1.00,
1.869,-0.25,0.25,0.15,0.01,0.05,1.00,
1.87,-0.25,0.25,0.15,0.01,0.05,0.99,
1.87,-0.26,0.24,0.14,0.01,0.05,0.99,
1.872,-0.26,0.24,0.14,0.01,0.05,0.99,
1.875,-0.26,0.24,0.14,0.01,0.05,0.99,
1.875,-0.26,0.24,0.11,0.01,0.05,0.99,
1.877,-0.26,0.24,0.11,0.01,0.05,0.99,
1.88,-0.26,0.24,0.11,0.01,0.05,0.99,
1.88,-0.24,0.24,0.06,0.01,0.05,0.99,
1.882,-0.24,0.24,0.06,0.01,0.04,0.98,
1.885,-0.24,0.24,0.06,0.01,0.04,0.98,
1.885,-0.25,0.22,0.03,0.01,0.04,0.98,
1.887,-0.25,0.22,0.03,0.01,0.04,0.98,
1.89,-0.25,0.22,0.03,0.01,0.04,0.98,
1.89,-0.26,0.20,-0.01,0.01,0.04,0.98,
1.892,-0.26,0.20,-0.01,0.01,0.04,0.98,
1.895,-0.26,0.20,-0.01,0.01,0.05,0.97,
1.896,-0.25,0.20,-0.04,0.01,0.05,0.97,
1.898,-0.25,0.20,-0.04,0.01,0.05,0.97,
1.9,-0.25,0.20,-0.04,0.01,0.04,0.97,
1.9,-0.23,0.21,-0.08,0.01,0.04,0.97,
1.902,-0.23,0.21,-0.08,0.01,0.05,0.97,
1.904,-0.22,0.22,-0.12,0.01,0.05,0.97,
1.905,-0.22,0.22,-0.12,0.01,0.05,0.97,
1.907,-0.22,0.22,-0.12,0.01,0.04,0.97,
1.909,-0.22,0.22,-0.12,0.00,0.04,0.97,
1.91,-0.22,0.23,-0.14,0.00,0.04,0.97,
1.912,-0.22,0.23,-0.14,0.00,0.05,0.97,
1.915,-0.22,0.23,-0.14,-0.00,0.05,0.97,
1.915,-0.23,0.22,-0.14,-0.00,0.05,0.97,
1.916,-0.23,0.22,-0.14,-0.01,0.05,0.97,
1.919,-0.23,0.22,-0.14,-0.01,0.04,0.96,
1.919,-0.27,0.22,-0.16,-0.01,0.04,0.96,
1.921,-0.27,0.22,-0.16,-0.01,0.05,0.96,
1.924,-0.27,0.22,-0.16,-0.01,0.05,0.96,
1.924,-0.31,0.21,-0.18,-0.01,0.05,0.96,
1.926,-0.31,0.21,-0.18,-0.01,0.05,0.96,
1.929,-0.31,0.21,-0.18,-0.01,0.05,0.96,
1.929,-0.32,0.23,-0.20,-0.01,0.05,0.96,
1.931,-0.32,0.23,-0.20,-0.00,0.05,0.97,
1.934,-0.32,0.23,-0.20,-0.00,0.05,0.97,
1.934,-0.30,0.24,-0.19,-0.00,0.05,0.97,
1.936,-0.30,0.24,-0.19,-0.00,0.05,0.97,
1.939,-0.26,0.26,-0.17,-0.00,0.05,0.97,
1.939,-0.26,0.26,-0.17,0.00,0.05,0.97,
1.941,-0.26,0.26,-0.17,0.00,0.06,0.97,
1.95,-0.26,0.26,-0.17,0.00,0.06,0.97,
1.951,-0.22,0.29,-0.15,0.00,0.06,0.97,
1.951,-0.22,0.29,-0.15,0.01,0.06,0.97,
1.951,-0.22,0.29,-0.15,0.01,0.07,0.97,
1.951,-0.16,0.35,-0.11,0.01,0.07,0.97,
1.952,-0.16,0.35,-0.11,0.01,0.07,0.97,
1.953,-0.16,0.35,-0.11,0.02,0.07,0.97,
1.954,-0.12,0.41,-0.08,0.02,0.07,0.97,
1.956,-0.12,0.41,-0.08,0.02,0.07,0.98,
1.958,-0.12,0.41,-0.08,0.03,0.07,0.98,
1.959,-0.02,0.46,-0.10,0.03,0.07,0.98,
1.961,-0.02,0.46,-0.10,0.03,0.07,0.97,
1.963,-0.02,0.46,-0.10,0.04,0.08,0.97,
1.963,0.06,0.48,-0.07,0.04,0.08,0.97,
1.966,0.06,0.48,-0.07,0.04,0.08,0.97,
1.968,0.06,0.48,-0.07,0.04,0.08,0.97,
1.968,0.15,0.51,-0.09,0.04,0.08,0.97,
1.97,0.15,0.51,-0.09,0.04,0.08,0.97,
1.973,0.15,0.51,-0.09,0.04,0.08,0.97,
1.973,0.18,0.54,-0.12,0.04,0.08,0.97,
1.976,0.18,0.54,-0.12,0.04,0.08,0.97,
1.978,0.18,0.54,-0.12,0.04,0.08,0.97,
1.978,0.20,0.57,-0.13,0.04,0.08,0.97,
1.98,0.20,0.57,-0.13,0.03,0.08,0.97,
1.983,0.20,0.57,-0.13,0.03,0.08,0.97,
1.987,0.18,0.57,-0.13,0.03,0.08,0.97,
1.987,0.18,0.57,-0.13,0.03,0.08,0.97,
1.988,0.18,0.57,-0.13,0.02,0.08,0.97,
1.988,0.15,0.57,-0.14,0.02,0.08,0.97,
1.99,0.15,0.57,-0.14,0.02,0.08,0.97,
1.992,0.15,0.57,-0.14,0.01,0.08,0.97,
1.993,0.11,0.57,-0.16,0.01,0.08,0.97,
1.995,0.11,0.57,-0.16,0.01,0.08,0.97,
1.998,0.11,0.57,-0.16,0.01,0.08,0.98,
1.998,0.00,0.56,-0.15,0.01,0.08,0.98,
2.0,0.00,0.56,-0.15,0.00,0.08,0.98,
2.002,0.00,0.56,-0.15,-0.00,0.07,0.98,
2.003,-0.06,0.53,-0.08,-0.00,0.07,0.98,
2.005,-0.06,0.53,-0.08,-0.01,0.07,0.98,
2.007,-0.06,0.53,-0.08,-0.01,0.07,0.98,
2.008,-0.14,0.51,-0.02,-0.01,0.07,0.98,
2.009,-0.14,0.51,-0.02,-0.02,0.07,0.98,
2.012,-0.14,0.51,-0.02,-0.02,0.07,0.99,
2.013,-0.21,0.47,0.01,-0.02,0.07,0.99,
2.015,-0.21,0.47,0.01,-0.02,0.07,0.99,
2.017,-0.21,0.47,0.01,-0.02,0.07,0.99,
2.018,-0.26,0.47,0.04,-0.02,0.07,0.99,
2.019,-0.26,0.47,0.04,-0.02,0.07,0.99,
2.022,-0.26,0.47,0.04,-0.02,0.07,1.00,
2.022,-0.28,0.47,0.09,-0.02,0.07,1.00,
2.024,-0.28,0.47,0.09,-0.02,0.07,1.00,
2.033,-0.28,0.47,0.09,-0.01,0.07,1.00,
2.033,-0.25,0.51,0.13,-0.01,0.07,1.00,
2.034,-0.25,0.51,0.13,-0.01,0.07,1.00,
2.034,-0.25,0.51,0.13,-0.01,0.07,1.00,
2.034,-0.20,0.50,0.15,-0.01,0.07,1.00,
2.035,-0.20,0.50,0.15,-0.00,0.07,1.00,
2.037,-0.20,0.50,0.15,-0.00,0.07,1.00,
2.037,-0.12,0.49,0.16,-0.00,0.07,1.00,
2.039,-0.12,0.49,0.16,0.00,0.07,1.00,
2.041,-0.12,0.49,0.16,0.01,0.08,1.00,
2.042,-0.06,0.52,0.17,0.01,0.08,1.00,
2.047,-0.06,0.52,0.17,0.01,0.08,1.00,
2.047,-0.06,0.52,0.17,0.01,0.08,1.00,
2.048,0.02,0.54,0.15,0.01,0.08,1.00,
2.049,0.02,0.54,0.15,0.01,0.08,0.99,
2.052,0.02,0.54,0.15,0.02,0.08,0.99,
2.052,0.08,0.56,0.13,0.02,0.08,0.99,
2.053,0.08,0.56,0.13,0.02,0.08,0.99,
2.056,0.08,0.56,0.13,0.02,0.08,0.99,
2.056,0.13,0.56,0.10,0.02,0.08,0.99,
2.059,0.13,0.56,0.10,0.02,0.08,0.99,
2.061,0.13,0.56,0.10,0.02,0.08,0.98,
2.061,0.16,0.57,0.07,0.02,0.08,0.98,
2.063,0.16,0.57,0.07,0.02,0.08,0.98,
2.066,0.16,0.57,0.07,0.02,0.08,0.98,
2.066,0.18,0.56,0.02,0.02,0.08,0.98,
2.068,0.18,0.56,0.02,0.03,0.08,0.98,
2.071,0.18,0.56,0.02,0.03,0.08,0.98,
2.071,0.20,0.57,-0.02,0.03,0.08,0.98,
2.073,0.20,0.57,-0.02,0.03,0.08,0.98,
2.076,0.20,0.57,-0.02,0.03,0.08,0.98,
2.076,0.25,0.56,-0.05,0.03,0.08,0.98,
2.078,0.25,0.56,-0.05,0.03,0.07,0.98,
2.081,0.25,0.56,-0.05,0.03,0.07,0.98,
2.081,0.24,0.52,-0.04,0.03,0.07,0.98,
2.083,0.24,0.52,-0.04,0.02,0.07,0.98,
2.086,0.24,0.52,-0.04,0.02,0.07,0.99,
2.086,0.24,0.49,-0.02,0.02,0.07,0.99,
2.088,0.24,0.49,-0.02,0.02,0.07,0.99,
2.091,0.24,0.49,-0.02,0.02,0.06,0.99,
2.091,0.22,0.47,0.02,0.02,0.06,0.99,
2.094,0.22,0.47,0.02,0.02,0.06,0.99,
2.096,0.22,0.47,0.02,0.02,0.06,1.00,
2.096,0.22,0.42,0.09,0.02,0.06,1.00,
2.098,0.22,0.42,0.09,0.02,0.06,1.00,
2.1,0.22,0.42,0.09,0.03,0.06,1.00,
2.101,0.20,0.40,0.12,0.03,0.06,1.00,
2.103,0.20,0.40,0.12,0.02,0.06,1.00,
2.105,0.20,0.40,0.12,0.02,0.06,1.00,
2.106,0.23,0.40,0.15,0.02,0.06,1.00,
2.108,0.23,0.40,0.15,0.02,0.06,1.01,
2.111,0.23,0.40,0.15,0.02,0.06,1.01,
2.111,0.23,0.40,0.20,0.02,0.06,1.01,
2.112,0.23,0.40,0.20,0.02,0.06,1.01,
2.115,0.23,0.40,0.20,0.02,0.06,1.01,
2.115,0.22,0.39,0.22,0.02,0.06,1.01,
2.117,0.22,0.39,0.22,0.03,0.06,1.01,
2.121,0.22,0.39,0.22,0.03,0.06,1.02,
2.121,0.23,0.38,0.26,0.03,0.06,1.02,
2.122,0.23,0.38,0.26,0.03,0.06,1.02,
2.125,0.23,0.38,0.26,0.03,0.06,1.02,
2.125,0.29,0.36,0.30,0.03,0.06,1.02,
2.127,0.29,0.36,0.30,0.03,0.06,1.02,
2.13,0.29,0.36,0.30,0.03,0.06,1.03,
2.13,0.28,0.35,0.36,0.03,0.06,1.03,
2.132,0.28,0.35,0.36,0.03,0.06,1.03,
2.135,0.28,0.35,0.36,0.03,0.06,1.03,
2.135,0.29,0.34,0.39,0.03,0.06,1.03,
2.137,0.29,0.34,0.39,0.03,0.06,1.03,
2.14,0.29,0.34,0.39,0.03,0.06,1.03,
2.14,0.29,0.33,0.41,0.03,0.06,1.03,
2.142,0.29,0.33,0.41,0.03,0.06,1.02,
2.149,0.29,0.33,0.41,0.03,0.06,1.02,
2.15,0.29,0.34,0.39,0.03,0.06,1.02,
2.15,0.29,0.34,0.39,0.03,0.06,1.02,
2.151,0.29,0.34,0.39,0.03,0.06,1.02,
2.151,0.31,0.34,0.35,0.03,0.06,1.02,
2.152,0.31,0.34,0.35,0.03,0.06,1.01,
2.155,0.31,0.34,0.35,0.03,0.06,1.01,
2.155,0.31,0.33,0.30,0.03,0.06,1.01,
2.156,0.31,0.33,0.30,0.03,0.06,1.01,
2.159,0.31,0.33,0.30,0.03,0.06,1.00,
2.159,0.32,0.33,0.23,0.03,0.06,1.00,
2.162,0.32,0.33,0.23,0.04,0.06,1.00,
2.164,0.32,0.33,0.23,0.04,0.06,1.00,
2.164,0.37,0.31,0.18,0.04,0.06,1.00,
2.166,0.37,0.31,0.18,0.04,0.06,0.99,
2.169,0.37,0.31,0.18,0.04,0.06,0.99,
2.169,0.38,0.29,0.10,0.04,0.06,0.99,
2.171,0.38,0.29,0.10,0.04,0.06,0.99,
2.174,0.38,0.29,0.10,0.04,0.06,0.99,
2.174,0.39,0.31,0.06,0.04,0.06,0.99,
2.176,0.39,0.31,0.06,0.04,0.06,0.99,
2.179,0.39,0.31,0.06,0.04,0.06,0.98,
2.179,0.44,0.29,0.02,0.04,0.06,0.98,
2.181,0.44,0.29,0.02,0.05,0.06,0.98,
2.184,0.44,0.29,0.02,0.05,0.06,0.98,
2.184,0.45,0.29,-0.02,0.05,0.06,0.98,
2.186,0.45,0.29,-0.02,0.05,0.06,0.98,
2.189,0.45,0.29,-0.02,0.05,0.06,0.98,
2.189,0.47,0.29,-0.04,0.05,0.06,0.98,
2.191,0.47,0.29,-0.04,0.05,0.06,0.98,
2.193,0.47,0.29,-0.04,0.05,0.07,0.98,
2.194,0.49,0.31,-0.06,0.05,0.07,0.98,
2.196,0.49,0.31,-0.06,0.05,0.07,0.98,
2.199,0.49,0.31,-0.06,0.05,0.06,0.98,
2.199,0.48,0.34,-0.06,0.05,0.06,0.98,
2.201,0.48,0.34,-0.06,0.05,0.07,0.98,
2.203,0.48,0.34,-0.06,0.06,0.07,0.98,
2.203,0.52,0.33,-0.06,0.06,0.07,0.98,
2.206,0.52,0.33,-0.06,0.06,0.07,0.99,
2.208,0.52,0.33,-0.06,0.06,0.07,0.99,
2.208,0.54,0.36,-0.05,0.06,0.07,0.99,
2.21,0.54,0.36,-0.05,0.06,0.07,0.99,
2.213,0.54,0.36,-0.05,0.06,0.07,0.99,
2.214,0.57,0.38,-0.01,0.06,0.07,0.99,
2.215,0.57,0.38,-0.01,0.06,0.07,0.99,
2.218,0.57,0.38,-0.01,0.06,0.07,0.99,
2.218,0.56,0.35,0.01,0.06,0.07,0.99,
2.22,0.56,0.35,0.01,0.05,0.06,0.99,
2.223,0.56,0.35,0.01,0.05,0.06,0.99,
2.223,0.56,0.33,0.02,0.05,0.06,0.99,
2.225,0.56,0.33,0.02,0.05,0.06,0.99,
2.233,0.56,0.33,0.02,0.05,0.06,1.00,
2.233,0.53,0.31,0.05,0.05,0.06,1.00,
2.233,0.53,0.31,0.05,0.04,0.06,1.00,
2.234,0.53,0.31,0.05,0.04,0.06,1.00,
2.234,0.48,0.29,0.08,0.04,0.06,1.00,
2.235,0.48,0.29,0.08,0.04,0.06,1.00,
2.237,0.48,0.29,0.08,0.04,0.06,1.00,
2.238,0.43,0.26,0.11,0.04,0.06,1.00,
2.24,0.43,0.26,0.11,0.04,0.06,1.00,
2.242,0.43,0.26,0.11,0.03,0.06,1.00,
2.242,0.40,0.24,0.12,0.03,0.06,1.00,
2.245,0.40,0.24,0.12,0.04,0.06,1.01,
2.247,0.40,0.24,0.12,0.04,0.05,1.01,
2.247,0.36,0.23,0.16,0.04,0.05,1.01,
2.249,0.36,0.23,0.16,0.04,0.05,1.01,
2.252,0.36,0.23,0.16,0.04,0.05,1.01,
2.252,0.37,0.20,0.19,0.04,0.05,1.01,
2.254,0.37,0.20,0.19,0.04,0.05,1.01,
2.257,0.37,0.20,0.19,0.04,0.05,1.01,
2.257,0.39,0.17,0.22,0.04,0.05,1.01,
2.26,0.39,0.17,0.22,0.05,0.05,1.01,
2.262,0.39,0.17,0.22,0.04,0.05,1.01,
2.262,0.41,0.14,0.20,0.04,0.05,1.01,
2.264,0.41,0.14,0.20,0.04,0.06,1.01,
2.267,0.41,0.14,0.20,0.05,0.06,1.01,
2.267,0.45,0.14,0.20,0.05,0.06,1.01,
2.269,0.45,0.14,0.20,0.05,0.06,1.01,
2.272,0.45,0.14,0.20,0.05,0.06,1.01,
2.272,0.47,0.17,0.21,0.05,0.06,1.01,
2.275,0.47,0.17,0.21,0.06,0.06,1.01,
2.277,0.47,0.17,0.21,0.06,0.06,1.00,
2.277,0.52,0.19,0.20,0.06,0.06,1.00,
2.279,0.52,0.19,0.20,0.06,0.06,1.00,
2.282,0.52,0.19,0.20,0.06,0.06,1.00,
2.283,0.57,0.18,0.16,0.06,0.06,1.00,
2.284,0.57,0.18,0.16,0.07,0.06,1.00,
2.286,0.57,0.18,0.16,0.07,0.06,1.00,
2.287,0.62,0.18,0.12,0.07,0.06,1.00,
2.289,0.62,0.18,0.12,0.07,0.06,0.99,
2.292,0.62,0.18,0.12,0.07,0.06,0.99,
2.292,0.65,0.15,0.08,0.07,0.06,0.99,
2.294,0.65,0.15,0.08,0.07,0.06,0.98,
2.296,0.65,0.15,0.08,0.07,0.06,0.98,
2.297,0.65,0.16,0.03,0.07,0.06,0.98,
2.298,0.65,0.16,0.03,0.07,0.06,0.98,
2.301,0.65,0.16,0.03,0.07,0.06,0.98,
2.302,0.67,0.15,-0.04,0.07,0.06,0.98,
2.303,0.67,0.15,-0.04,0.07,0.06,0.97,
2.306,0.67,0.15,-0.04,0.07,0.06,0.97,
2.306,0.64,0.13,-0.10,0.07,0.06,0.97,
2.309,0.64,0.13,-0.10,0.06,0.06,0.97,
2.311,0.64,0.13,-0.10,0.06,0.06,0.97,
2.312,0.60,0.12,-0.14,0.06,0.06,0.97,
2.313,0.60,0.12,-0.14,0.06,0.06,0.97,
2.316,0.60,0.12,-0.14,0.05,0.06,0.97,
2.317,0.55,0.09,-0.17,0.05,0.06,0.97,
2.318,0.55,0.09,-0.17,0.05,0.06,0.97,
2.321,0.55,0.09,-0.17,0.05,0.05,0.97,
2.321,0.48,0.08,-0.17,0.05,0.05,0.97,
2.323,0.48,0.08,-0.17,0.05,0.05,0.97,
2.326,0.48,0.08,-0.17,0.05,0.05,0.97,
2.326,0.44,0.04,-0.15,0.05,0.05,0.97,
2.335,0.44,0.04,-0.15,0.05,0.05,0.98,
2.335,0.44,0.04,-0.15,0.05,0.05,0.98,
2.335,0.46,-0.00,-0.13,0.05,0.05,0.98,
2.336,0.46,-0.00,-0.13,0.05,0.05,0.98,
2.336,0.46,-0.00,-0.13,0.06,0.05,0.98,
2.336,0.46,-0.00,-0.09,0.06,0.05,0.98,
2.338,0.46,-0.00,-0.09,0.06,0.06,0.98,
2.34,0.46,-0.00,-0.09,0.06,0.06,0.98,
2.341,0.48,0.00,-0.06,0.06,0.06,0.98,
2.345,0.48,0.00,-0.06,0.06,0.06,0.98,
2.345,0.48,0.00,-0.06,0.06,0.06,0.98,
2.346,0.52,0.02,-0.04,0.06,0.06,0.98,
2.347,0.52,0.02,-0.04,0.06,0.06,0.98,
2.35,0.52,0.02,-0.04,0.07,0.06,0.98,
2.35,0.55,0.04,-0.04,0.07,0.06,0.98,
2.352,0.55,0.04,-0.04,0.07,0.07,0.98,
2.355,0.55,0.04,-0.04,0.07,0.06,0.98,
2.355,0.59,0.07,-0.04,0.07,0.06,0.98,
2.357,0.59,0.07,-0.04,0.08,0.06,0.98,
2.36,0.59,0.07,-0.04,0.08,0.06,0.97,
2.361,0.65,0.07,-0.06,0.08,0.06,0.97,
2.362,0.65,0.07,-0.06,0.08,0.06,0.97,
2.365,0.65,0.07,-0.06,0.08,0.06,0.97,
2.365,0.69,0.04,-0.10,0.08,0.06,0.97,
2.367,0.69,0.04,-0.10,0.09,0.06,0.97,
2.37,0.69,0.04,-0.10,0.08,0.06,0.97,
2.37,0.73,0.03,-0.15,0.08,0.06,0.97,
2.372,0.73,0.03,-0.15,0.08,0.06,0.96,
2.375,0.73,0.03,-0.15,0.08,0.06,0.96,
2.375,0.73,0.02,-0.19,0.08,0.06,0.96,
2.377,0.73,0.02,-0.19,0.08,0.06,0.96,
2.38,0.73,0.02,-0.19,0.08,0.06,0.96,
2.38,0.70,-0.01,-0.21,0.08,0.06,0.96,
2.382,0.70,-0.01,-0.21,0.08,0.06,0.96,
2.384,0.70,-0.01,-0.21,0.08,0.06,0.96,
2.384,0.70,-0.04,-0.23,0.08,0.06,0.96,
2.387,0.70,-0.04,-0.23,0.08,0.05,0.96,
2.389,0.70,-0.04,-0.23,0.08,0.05,0.96,
2.389,0.67,-0.08,-0.23,0.08,0.05,0.96,
2.392,0.67,-0.08,-0.23,0.08,0.05,0.97,
2.395,0.67,-0.08,-0.23,0.08,0.05,0.97,
2.395,0.64,-0.12,-0.22,0.08,0.05,0.97,
2.397,0.64,-0.12,-0.22,0.07,0.05,0.97,
2.399,0.64,-0.12,-0.22,0.07,0.05,0.97,
2.399,0.62,-0.13,-0.18,0.07,0.05,0.97,
2.401,0.62,-0.13,-0.18,0.07,0.05,0.97,
2.404,0.62,-0.13,-0.18,0.07,0.05,0.97,
2.404,0.58,-0.16,-0.14,0.07,0.05,0.97,
2.406,0.58,-0.16,-0.14,0.07,0.05,0.97,
2.409,0.58,-0.16,-0.14,0.07,0.05,0.98,
2.409,0.53,-0.17,-0.11,0.07,0.05,0.98,
2.412,0.53,-0.17,-0.11,0.07,0.05,0.98,
2.414,0.53,-0.17,-0.11,0.06,0.05,0.98,
2.415,0.52,-0.17,-0.07,0.06,0.05,0.98,
2.416,0.52,-0.17,-0.07,0.06,0.05,0.98,
2.419,0.52,-0.17,-0.07,0.06,0.05,0.99,
2.419,0.48,-0.19,-0.01,0.06,0.05,0.99,
2.421,0.48,-0.19,-0.01,0.06,0.05,0.99,
2.424,0.48,-0.19,-0.01,0.06,0.05,0.99,
2.424,0.44,-0.21,0.02,0.06,0.05,0.99,
2.428,0.44,-0.21,0.02,0.05,0.05,0.99,
2.429,0.44,-0.21,0.02,0.05,0.04,0.99,
2.429,0.41,-0.22,0.04,0.05,0.04,0.99,
2.431,0.41,-0.22,0.04,0.05,0.04,0.99,
2.433,0.41,-0.22,0.04,0.05,0.04,0.98,
2.434,0.36,-0.25,0.04,0.05,0.04,0.98,
2.436,0.36,-0.25,0.04,0.04,0.04,0.98,
2.438,0.36,-0.25,0.04,0.04,0.04,0.98,
2.439,0.32,-0.26,0.02,0.04,0.04,0.98,
2.44,0.32,-0.26,0.02,0.04,0.04,0.98,
2.449,0.32,-0.26,0.02,0.04,0.04,0.98,
2.45,0.24,-0.27,-0.00,0.04,0.04,0.98,
2.452,0.24,-0.27,-0.00,0.04,0.04,0.98,
2.452,0.24,-0.27,-0.00,0.03,0.04,0.98,
2.452,0.21,-0.31,-0.01,0.03,0.04,0.98,
2.452,0.21,-0.31,-0.01,0.03,0.03,0.98,
2.453,0.21,-0.31,-0.01,0.03,0.03,0.98,
2.453,0.19,-0.34,-0.03,0.03,0.03,0.98,
2.455,0.19,-0.34,-0.03,0.03,0.03,0.98,
2.458,0.19,-0.34,-0.03,0.03,0.03,0.97,
2.458,0.16,-0.38,-0.07,0.03,0.03,0.97,
2.46,0.16,-0.38,-0.07,0.03,0.03,0.97,
2.463,0.16,-0.38,-0.07,0.03,0.03,0.97,
2.463,0.16,-0.43,-0.09,0.03,0.03,0.97,
2.465,0.16,-0.43,-0.09,0.03,0.03,0.97,
2.467,0.16,-0.43,-0.09,0.03,0.03,0.97,
2.468,0.14,-0.45,-0.09,0.03,0.03,0.97,
2.47,0.14,-0.45,-0.09,0.03,0.02,0.97,
2.472,0.14,-0.45,-0.09,0.03,0.03,0.97,
2.473,0.12,-0.46,-0.08,0.03,0.03,0.97,
2.475,0.12,-0.46,-0.08,0.03,0.03,0.97,
2.478,0.12,-0.46,-0.08,0.03,0.03,0.97,
2.478,0.12,-0.47,-0.09,0.03,0.03,0.97,
2.48,0.12,-0.47,-0.09,0.03,0.03,0.97,
2.482,0.12,-0.47,-0.09,0.03,0.03,0.97,
2.483,0.14,-0.43,-0.10,0.03,0.03,0.97,
2.485,0.14,-0.43,-0.10,0.03,0.03,0.97,
2.487,0.14,-0.43,-0.10,0.04,0.03,0.97,
2.487,0.15,-0.42,-0.11,0.04,0.03,0.97,
2.489,0.15,-0.42,-0.11,0.04,0.04,0.97,
2.492,0.15,-0.42,-0.11,0.04,0.04,0.97,
2.492,0.19,-0.43,-0.15,0.04,0.04,0.97,
2.494,0.19,-0.43,-0.15,0.04,0.04,0.96,
2.497,0.19,-0.43,-0.15,0.04,0.04,0.96,
2.497,0.22,-0.39,-0.15,0.04,0.04,0.96,
2.499,0.22,-0.39,-0.15,0.05,0.04,0.96,
2.502,0.22,-0.39,-0.15,0.05,0.04,0.96,
2.502,0.25,-0.36,-0.19,0.05,0.04,0.96,
2.504,0.25,-0.36,-0.19,0.05,0.04,0.95,
2.507,0.25,-0.36,-0.19,0.05,0.04,0.95,
2.507,0.32,-0.34,-0.23,0.05,0.04,0.95,
2.51,0.32,-0.34,-0.23,0.06,0.04,0.95,
2.512,0.32,-0.34,-0.23,0.06,0.04,0.95,
2.512,0.35,-0.34,-0.29,0.06,0.04,0.95,
2.514,0.35,-0.34,-0.29,0.06,0.04,0.95,
2.517,0.35,-0.34,-0.29,0.06,0.04,0.95,
2.517,0.37,-0.35,-0.30,0.06,0.04,0.95,
2.519,0.37,-0.35,-0.30,0.06,0.04,0.95,
2.522,0.37,-0.35,-0.30,0.05,0.04,0.95,
2.522,0.38,-0.38,-0.28,0.05,0.04,0.95,
2.524,0.38,-0.38,-0.28,0.05,0.04,0.96,
2.528,0.38,-0.38,-0.28,0.05,0.04,0.96,
2.529,0.36,-0.40,-0.26,0.05,0.04,0.96,
2.53,0.36,-0.40,-0.26,0.05,0.03,0.96,
2.532,0.36,-0.40,-0.26,0.05,0.03,0.97,
2.533,0.32,-0.42,-0.21,0.05,0.03,0.97,
2.534,0.32,-0.42,-0.21,0.05,0.03,0.97,
2.536,0.32,-0.42,-0.21,0.05,0.03,0.97,
2.537,0.30,-0.46,-0.14,0.05,0.03,0.97,
2.538,0.30,-0.46,-0.14,0.05,0.03,0.98,
2.541,0.30,-0.46,-0.14,0.05,0.03,0.98,
2.542,0.27,-0.50,-0.09,0.05,0.03,0.98,
2.55,0.27,-0.50,-0.09,0.05,0.03,0.98,
2.551,0.27,-0.50,-0.09,0.05,0.03,0.98,
2.551,0.26,-0.52,-0.03,0.05,0.03,0.98,
2.551,0.26,-0.52,-0.03,0.05,0.03,0.99,
2.551,0.26,-0.52,-0.03,0.05,0.03,0.99,
2.552,0.26,-0.52,0.01,0.05,0.03,0.99,
2.553,0.26,-0.52,0.01,0.05,0.03,0.99,
2.556,0.26,-0.52,0.01,0.05,0.03,0.98,
2.556,0.26,-0.52,0.06,0.05,0.03,0.98,
2.558,0.26,-0.52,0.06,0.05,0.03,0.98,
2.566,0.26,-0.52,0.06,0.05,0.03,0.98,
2.566,0.26,-0.51,0.04,0.05,0.03,0.98,
2.567,0.26,-0.51,0.04,0.05,0.03,0.98,
2.567,0.29,-0.50,0.02,0.05,0.03,0.98,
2.567,0.29,-0.50,0.02,0.05,0.03,0.98,
2.568,0.29,-0.50,0.02,0.05,0.03,0.97,
2.571,0.30,-0.46,-0.01,0.05,0.03,0.97,
2.571,0.30,-0.46,-0.01,0.05,0.03,0.97,
2.573,0.30,-0.46,-0.01,0.06,0.04,0.97,
2.575,0.30,-0.46,-0.01,0.06,0.04,0.96,
2.576,0.34,-0.45,-0.08,0.06,0.04,0.96,
2.577,0.34,-0.45,-0.08,0.06,0.04,0.96,
2.58,0.34,-0.45,-0.08,0.06,0.04,0.96,
2.581,0.37,-0.42,-0.15,0.06,0.04,0.96,
2.583,0.37,-0.42,-0.15,0.06,0.04,0.95,
2.585,0.37,-0.42,-0.15,0.05,0.04,0.95,
2.585,0.37,-0.39,-0.19,0.05,0.04,0.95,
2.587,0.37,-0.39,-0.19,0.05,0.04,0.95,
2.59,0.37,-0.39,-0.19,0.05,0.04,0.95,
2.59,0.35,-0.39,-0.26,0.05,0.04,0.95,
2.593,0.35,-0.39,-0.26,0.05,0.04,0.95,
2.595,0.35,-0.39,-0.26,0.05,0.03,0.95,
2.595,0.32,-0.41,-0.29,0.05,0.03,0.95,
2.597,0.32,-0.41,-0.29,0.05,0.03,0.95,
2.6,0.32,-0.41,-0.29,0.04,0.03,0.95,
2.6,0.28,-0.44,-0.29,0.04,0.03,0.95,
2.602,0.28,-0.44,-0.29,0.04,0.03,0.96,
2.604,0.28,-0.44,-0.29,0.04,0.03,0.96,
2.605,0.25,-0.48,-0.26,0.04,0.03,0.96,
2.607,0.25,-0.48,-0.26,0.04,0.03,0.96,
2.61,0.25,-0.48,-0.26,0.04,0.03,0.96,
2.611,0.23,-0.51,-0.22,0.04,0.03,0.96,
2.612,0.23,-0.51,-0.22,0.05,0.02,0.96,
2.615,0.23,-0.51,-0.22,0.05,0.02,0.97,
2.615,0.23,-0.52,-0.16,0.05,0.02,0.97,
2.617,0.23,-0.52,-0.16,0.05,0.02,0.97,
2.619,0.23,-0.52,-0.16,0.05,0.02,0.97,
2.619,0.25,-0.55,-0.12,0.05,0.02,0.97,
2.621,0.25,-0.55,-0.12,0.05,0.02,0.98,
2.624,0.25,-0.55,-0.12,0.05,0.02,0.98,
2.624,0.27,-0.56,-0.06,0.05,0.02,0.98,
2.627,0.27,-0.56,-0.06,0.05,0.02,0.98,
2.629,0.27,-0.56,-0.06,0.05,0.02,0.98,
2.629,0.28,-0.56,-0.02,0.05,0.02,0.98,
2.631,0.28,-0.56,-0.02,0.05,0.02,0.98,
2.634,0.28,-0.56,-0.02,0.05,0.02,0.99,
2.635,0.27,-0.57,0.02,0.05,0.02,0.99,
2.636,0.27,-0.57,0.02,0.05,0.02,0.99,
2.639,0.27,-0.57,0.02,0.05,0.02,0.99,
2.639,0.25,-0.57,0.07,0.05,0.02,0.99,
2.641,0.25,-0.57,0.07,0.05,0.02,0.99,
2.645,0.25,-0.57,0.07,0.05,0.02,0.99,
2.645,0.24,-0.56,0.09,0.05,0.02,0.99,
2.646,0.24,-0.56,0.09,0.05,0.02,0.99,
2.649,0.24,-0.56,0.09,0.04,0.02,0.99,
2.649,0.24,-0.56,0.08,0.04,0.02,0.99,
2.651,0.24,-0.56,0.08,0.05,0.02,0.98,
2.653,0.24,-0.56,0.08,0.05,0.03,0.98,
2.654,0.23,-0.56,0.09,0.05,0.03,0.98,
2.656,0.23,-0.56,0.09,0.05,0.03,0.98,
2.658,0.23,-0.56,0.09,0.05,0.03,0.98,
2.659,0.23,-0.52,0.06,0.05,0.03,0.98,
2.661,0.23,-0.52,0.06,0.05,0.03,0.98,
2.664,0.23,-0.52,0.06,0.05,0.03,0.98,
2.664,0.27,-0.48,0.02,0.05,0.03,0.98,
2.666,0.27,-0.48,0.02,0.05,0.03,0.98,
2.668,0.27,-0.48,0.02,0.05,0.03,0.98,
2.669,0.28,-0.46,-0.01,0.05,0.03,0.98,
2.67,0.28,-0.46,-0.01,0.05,0.03,0.98,
2.673,0.28,-0.46,-0.01,0.05,0.03,0.98,
2.673,0.28,-0.45,-0.01,0.05,0.03,0.98,
2.676,0.28,-0.45,-0.01,0.05,0.03,0.98,
2.678,0.28,-0.45,-0.01,0.05,0.03,0.98,
2.679,0.29,-0.47,-0.00,0.05,0.03,0.98,
2.681,0.29,-0.47,-0.00,0.05,0.03,0.98,
2.683,0.29,-0.47,-0.00,0.05,0.03,0.98,
2.684,0.29,-0.45,0.01,0.05,0.03,0.98,
2.686,0.29,-0.45,0.01,0.05,0.03,0.99,
2.688,0.29,-0.45,0.01,0.05,0.03,0.99,
2.688,0.29,-0.46,0.06,0.05,0.03,0.99,
2.69,0.29,-0.46,0.06,0.05,0.03,0.99,
2.693,0.29,-0.46,0.06,0.05,0.03,0.99,
2.694,0.29,-0.45,0.09,0.05,0.03,0.99,
2.695,0.29,-0.45,0.09,0.05,0.03,1.00,
2.698,0.29,-0.45,0.09,0.04,0.03,1.00,
2.698,0.27,-0.47,0.14,0.04,0.03,1.00,
2.7,0.27,-0.47,0.14,0.04,0.03,1.00,
2.703,0.27,-0.47,0.14,0.04,0.02,1.00,
2.703,0.22,-0.49,0.18,0.04,0.02,1.00,
2.705,0.22,-0.49,0.18,0.04,0.02,1.00,
2.708,0.22,-0.49,0.18,0.04,0.02,1.00,
2.708,0.16,-0.50,0.22,0.04,0.02,1.00,
2.71,0.16,-0.50,0.22,0.03,0.02,1.00,
2.713,0.16,-0.50,0.22,0.03,0.02,1.00,
2.713,0.13,-0.52,0.24,0.03,0.02,1.00,
2.715,0.13,-0.52,0.24,0.02,0.02,1.00,
2.717,0.13,-0.52,0.24,0.02,0.02,1.00,
2.718,0.06,-0.54,0.24,0.02,0.02,1.00,
2.72,0.06,-0.54,0.24,0.02,0.02,1.00,
2.722,0.06,-0.54,0.24,0.02,0.02,1.00,
2.723,0.01,-0.54,0.25,0.02,0.02,1.00,
2.725,0.01,-0.54,0.25,0.01,0.02,1.00,
2.727,0.01,-0.54,0.25,0.01,0.02,0.99,
2.728,-0.03,-0.53,0.22,0.01,0.02,0.99,
2.73,-0.03,-0.53,0.22,0.01,0.02,0.99,
2.732,-0.03,-0.53,0.22,0.02,0.03,0.99,
2.732,-0.08,-0.52,0.15,0.02,0.03,0.99,
2.734,-0.08,-0.52,0.15,0.02,0.03,0.98,
2.737,-0.07,-0.50,0.10,0.02,0.03,0.98,
2.737,-0.07,-0.50,0.10,0.02,0.03,0.98,
2.739,-0.07,-0.50,0.10,0.02,0.03,0.97,
2.742,-0.07,-0.50,0.10,0.02,0.04,0.97,
2.742,-0.06,-0.46,0.02,0.02,0.04,0.97,
2.75,-0.06,-0.46,0.02,0.02,0.04,0.97,
2.75,-0.06,-0.46,0.02,0.02,0.04,0.96,
2.751,-0.04,-0.42,-0.07,0.02,0.04,0.96,
2.751,-0.04,-0.42,-0.07,0.02,0.04,0.96,
2.752,-0.04,-0.42,-0.07,0.02,0.04,0.96,
2.752,0.01,-0.38,-0.14,0.02,0.04,0.96,
2.754,0.01,-0.38,-0.14,0.02,0.04,0.96,
2.756,0.01,-0.38,-0.14,0.02,0.05,0.96,
2.757,0.02,-0.35,-0.18,0.02,0.05,0.96,
2.761,0.02,-0.35,-0.18,0.03,0.05,0.96,
2.761,0.02,-0.35,-0.18,0.03,0.05,0.96,
2.762,0.04,-0.31,-0.20,0.03,0.05,0.96,
2.764,0.04,-0.31,-0.20,0.03,0.05,0.96,
2.766,0.04,-0.31,-0.20,0.03,0.05,0.96,
2.766,0.06,-0.27,-0.21,0.03,0.05,0.96,
2.768,0.06,-0.27,-0.21,0.03,0.05,0.96,
2.771,0.06,-0.27,-0.21,0.03,0.05,0.96,
2.773,0.06,-0.24,-0.19,0.03,0.05,0.96,
2.773,0.06,-0.24,-0.19,0.03,0.05,0.96,
2.776,0.06,-0.24,-0.19,0.03,0.05,0.97,
2.776,0.07,-0.24,-0.18,0.03,0.05,0.97,
2.778,0.07,-0.24,-0.18,0.02,0.05,0.97,
2.781,0.07,-0.24,-0.18,0.02,0.05,0.97,
2.781,0.05,-0.24,-0.13,0.02,0.05,0.97,
2.784,0.05,-0.24,-0.13,0.02,0.06,0.97,
2.786,0.05,-0.24,-0.13,0.02,0.05,0.97,
2.786,0.03,-0.22,-0.11,0.02,0.05,0.97,
2.788,0.03,-0.22,-0.11,0.02,0.06,0.97,
2.791,0.03,-0.22,-0.11,0.02,0.05,0.97,
2.791,-0.01,-0.21,-0.10,0.02,0.05,0.97,
2.793,-0.01,-0.21,-0.10,0.02,0.06,0.97,
2.796,-0.01,-0.21,-0.10,0.02,0.06,0.97,
2.797,-0.04,-0.21,-0.09,0.02,0.06,0.97,
2.798,-0.04,-0.21,-0.09,0.01,0.06,0.97,
2.801,-0.04,-0.21,-0.09,0.01,0.06,0.96,
2.801,-0.05,-0.20,-0.09,0.01,0.06,0.96,
2.803,-0.05,-0.20,-0.09,0.02,0.06,0.96,
2.806,-0.05,-0.20,-0.09,0.02,0.06,0.95,
2.806,-0.08,-0.19,-0.12,0.02,0.06,0.95,
2.808,-0.08,-0.19,-0.12,0.02,0.06,0.95,
2.811,-0.08,-0.19,-0.12,0.02,0.06,0.95,
2.811,-0.05,-0.16,-0.20,0.02,0.06,0.95,
2.813,-0.05,-0.16,-0.20,0.02,0.06,0.95,
2.815,-0.05,-0.16,-0.20,0.02,0.07,0.94,
2.816,-0.05,-0.14,-0.27,0.02,0.07,0.94,
2.818,-0.05,-0.14,-0.27,0.02,0.07,0.94,
2.82,-0.05,-0.14,-0.27,0.02,0.07,0.94,
2.82,-0.04,-0.13,-0.32,0.02,0.07,0.94,
2.823,-0.04,-0.13,-0.32,0.02,0.07,0.94,
2.825,-0.04,-0.13,-0.32,0.02,0.07,0.94,
2.825,-0.01,-0.10,-0.37,0.02,0.07,0.94,
2.833,-0.01,-0.10,-0.37,0.03,0.07,0.94,
2.834,-0.01,-0.10,-0.37,0.03,0.07,0.94,
2.834,-0.00,-0.08,-0.39,0.03,0.07,0.94,
2.834,-0.00,-0.08,-0.39,0.03,0.07,0.94,
2.835,-0.00,-0.08,-0.39,0.03,0.07,0.95,
2.835,0.03,-0.06,-0.35,0.03,0.07,0.95,
2.837,0.03,-0.06,-0.35,0.03,0.07,0.95,
2.84,0.03,-0.06,-0.35,0.03,0.08,0.95,
2.84,0.06,-0.04,-0.31,0.03,0.08,0.95,
2.846,0.06,-0.04,-0.31,0.03,0.07,0.96,
2.846,0.06,-0.04,-0.31,0.03,0.07,0.97,
2.846,0.07,-0.03,-0.23,0.03,0.07,0.97,
2.847,0.07,-0.03,-0.23,0.03,0.07,0.97,
2.85,0.07,-0.03,-0.23,0.03,0.07,0.98,
2.85,0.06,-0.06,-0.12,0.03,0.07,0.98,
2.852,0.06,-0.06,-0.12,0.02,0.07,0.99,
2.854,0.06,-0.06,-0.12,0.02,0.07,0.99,
2.855,0.03,-0.06,0.01,0.02,0.07,0.99,
2.857,0.03,-0.06,0.01,0.02,0.07,1.00,
2.859,0.03,-0.06,0.01,0.01,0.07,1.00,
2.86,-0.01,-0.06,0.12,0.01,0.07,1.00,
2.862,-0.01,-0.06,0.12,0.01,0.07,1.00,
2.864,-0.01,-0.06,0.12,0.01,0.07,1.01,
2.864,-0.08,-0.07,0.22,0.01,0.07,1.01,
2.867,-0.08,-0.07,0.22,0.00,0.06,1.01,
2.869,-0.08,-0.07,0.22,0.00,0.07,1.01,
2.869,-0.14,-0.10,0.29,0.00,0.07,1.01,
2.871,-0.14,-0.10,0.29,-0.00,0.07,1.01,
2.874,-0.14,-0.10,0.29,-0.01,0.07,1.01,
2.875,-0.20,-0.11,0.29,-0.01,0.07,1.01,
2.877,-0.20,-0.11,0.29,-0.01,0.07,1.01,
2.879,-0.20,-0.11,0.29,-0.01,0.07,1.00,
2.88,-0.27,-0.11,0.29,-0.01,0.07,1.00,
2.881,-0.27,-0.11,0.29,-0.01,0.07,1.00,
2.884,-0.27,-0.11,0.29,-0.01,0.07,1.00,
2.884,-0.30,-0.10,0.28,-0.01,0.07,1.00,
2.886,-0.30,-0.10,0.28,-0.01,0.07,1.00,
2.889,-0.30,-0.10,0.28,-0.00,0.07,1.00,
2.889,-0.29,-0.09,0.24,-0.00,0.07,1.00,
2.891,-0.29,-0.09,0.24,-0.00,0.07,1.00,
2.894,-0.27,-0.07,0.20,-0.00,0.07,1.00,
2.894,-0.27,-0.07,0.20,0.00,0.07,1.00,
2.896,-0.27,-0.07,0.20,0.00,0.07,1.00,
2.899,-0.27,-0.07,0.20,0.00,0.08,0.99,
2.899,-0.21,-0.06,0.19,0.00,0.08,0.99,
2.901,-0.21,-0.06,0.19,0.01,0.08,0.99,
2.903,-0.21,-0.06,0.19,0.01,0.08,0.99,
2.904,-0.17,-0.04,0.17,0.01,0.08,0.99,
2.906,-0.17,-0.04,0.17,0.01,0.08,0.99,
2.909,-0.14,-0.01,0.14,0.01,0.08,0.99,
2.91,-0.14,-0.01,0.14,0.01,0.08,0.99,
2.911,-0.14,-0.01,0.14,0.01,0.08,0.99,
2.913,-0.14,-0.01,0.14,0.02,0.08,0.99,
2.914,-0.10,0.01,0.13,0.02,0.08,0.99,
2.915,-0.10,0.01,0.13,0.02,0.08,0.99,
2.918,-0.10,0.01,0.13,0.02,0.08,0.99,
2.918,-0.06,0.03,0.12,0.02,0.08,0.99,
2.92,-0.06,0.03,0.12,0.02,0.09,0.98,
2.923,-0.06,0.03,0.12,0.01,0.09,0.98,
2.923,-0.03,0.04,0.09,0.01,0.09,0.98,
2.926,-0.03,0.04,0.09,0.01,0.09,0.98,
2.928,-0.03,0.04,0.09,0.01,0.09,0.98,
2.929,-0.04,0.06,0.07,0.01,0.09,0.98,
2.93,-0.04,0.06,0.07,0.01,0.09,0.98,
2.933,-0.04,0.06,0.07,0.01,0.09,0.97,
2.933,-0.09,0.07,0.03,0.01,0.09,0.97,
2.936,-0.09,0.07,0.03,0.01,0.09,0.97,
2.938,-0.09,0.07,0.03,0.00,0.09,0.97,
2.938,-0.12,0.08,-0.02,0.00,0.09,0.97,
2.94,-0.12,0.08,-0.02,-0.00,0.09,0.97,
2.948,-0.12,0.08,-0.02,-0.00,0.09,0.96,
2.949,-0.16,0.10,-0.06,-0.00,0.09,0.96,
2.949,-0.16,0.10,-0.06,0.01,0.08,0.89,
2.949,-0.16,0.10,-0.06,0.03,0.09,0.82,
2.949,-0.21,0.07,-0.14,0.03,0.09,0.82,
2.95,-0.21,0.07,-0.14,0.04,0.10,0.80,
2.952,-0.21,0.07,-0.14,0.05,0.10,0.83,
2.953,-0.01,0.03,-1.18,0.05,0.10,0.83,
2.955,-0.01,0.03,-1.18,0.04,0.10,0.87,
2.957,-0.01,0.03,-1.18,0.04,0.09,0.89,
2.958,0.27,0.17,-1.60,0.04,0.09,0.89,
2.96,0.27,0.17,-1.60,0.03,0.09,0.91,
2.962,0.27,0.17,-1.60,0.03,0.09,0.92,
2.962,0.23,0.15,-0.94,0.03,0.09,0.92,
2.964,0.23,0.15,-0.94,0.03,0.10,0.93,
2.967,0.23,0.15,-0.94,0.02,0.10,0.94,
2.967,0.13,0.13,-0.59,0.02,0.10,0.94,
2.969,0.13,0.13,-0.59,0.01,0.10,0.95,
2.972,0.13,0.13,-0.59,0.00,0.09,0.97,
2.972,0.06,0.22,-0.36,0.00,0.09,0.97,
2.974,0.06,0.22,-0.36,0.00,0.08,0.98,
2.977,0.06,0.22,-0.36,0.00,0.08,0.99,
2.977,-0.09,0.17,-0.13,0.00,0.08,0.99,
2.979,-0.09,0.17,-0.13,0.00,0.07,1.00,
2.982,-0.09,0.17,-0.13,0.01,0.07,1.01,
2.982,-0.13,0.02,0.10,0.01,0.07,1.01,
2.984,-0.13,0.02,0.10,0.00,0.07,1.02,
2.987,-0.13,0.02,0.10,0.00,0.08,1.03,
2.987,-0.10,-0.02,0.30,0.00,0.08,1.03,
2.989,-0.10,-0.02,0.30,-0.00,0.08,1.04,
2.993,-0.10,-0.02,0.30,0.00,0.08,1.05,
2.993,-0.13,0.02,0.51,0.00,0.08,1.05,
2.994,-0.13,0.02,0.51,0.00,0.09,1.05,
2.997,-0.13,0.02,0.51,0.01,0.08,1.06,
2.997,-0.16,0.08,0.70,0.01,0.08,1.06,
2.999,-0.16,0.08,0.70,0.02,0.09,1.06,
3.001,-0.10,0.09,0.79,0.02,0.09,1.06,
3.002,-0.10,0.09,0.79,0.02,0.09,1.06,
3.004,-0.10,0.09,0.79,0.02,0.08,1.05,
3.006,0.02,0.09,0.79,0.02,0.08,1.05,
3.007,0.02,0.09,0.79,0.02,0.08,1.04,
3.009,0.02,0.09,0.79,0.01,0.09,1.02,
3.012,0.02,0.09,0.79,0.01,0.09,1.01,
3.012,0.02,0.06,0.68,0.01,0.09,1.01,
3.013,0.02,0.06,0.68,0.00,0.09,1.00,
3.016,0.02,0.06,0.68,0.00,0.09,0.98,
3.016,-0.09,0.10,0.40,0.00,0.09,0.98,
3.019,-0.09,0.10,0.40,-0.00,0.09,0.97,
3.021,-0.09,0.10,0.40,-0.00,0.09,0.96,
3.021,-0.17,0.11,0.13,-0.00,0.09,0.96,
3.023,-0.17,0.11,0.13,-0.00,0.09,0.95,
