
time,ax,ay,az,gFx,gFy,gFz,
0.002,0.07,0.01,-0.09,-0.02,0.12,0.95,
0.003,0.07,0.01,-0.09,-0.03,0.12,0.94,
0.003,0.07,0.01,-0.20,-0.03,0.12,0.94,
0.003,0.07,0.01,-0.20,-0.02,0.12,0.94,
0.005,0.07,0.01,-0.20,-0.02,0.12,0.94,
0.005,0.05,0.02,-0.31,-0.02,0.12,0.94,
0.008,0.05,0.02,-0.31,-0.02,0.12,0.93,
0.01,0.05,0.02,-0.31,-0.02,0.12,0.93,
0.01,0.05,0.04,-0.37,-0.02,0.12,0.93,
0.013,0.05,0.04,-0.37,-0.02,0.12,0.93,
0.015,0.05,0.04,-0.37,-0.02,0.12,0.93,
0.015,0.05,0.05,-0.40,-0.02,0.12,0.93,
0.017,0.05,0.05,-0.40,-0.02,0.12,0.93,
0.02,0.05,0.05,-0.40,-0.02,0.12,0.93,
0.02,0.06,0.05,-0.41,-0.02,0.12,0.93,
0.022,0.06,0.05,-0.41,-0.02,0.12,0.93,
0.025,0.06,0.05,-0.41,-0.02,0.12,0.94,
0.025,0.09,0.05,-0.39,-0.02,0.12,0.94,
0.027,0.09,0.05,-0.39,-0.02,0.13,0.94,
0.03,0.09,0.05,-0.39,-0.02,0.13,0.94,
0.03,0.08,0.05,-0.36,-0.02,0.13,0.94,
0.032,0.08,0.05,-0.36,-0.02,0.13,0.94,
0.034,0.08,0.05,-0.36,-0.02,0.13,0.95,
0.035,0.10,0.08,-0.32,-0.02,0.13,0.95,
0.037,0.10,0.08,-0.32,-0.02,0.12,0.95,
0.039,0.10,0.08,-0.32,-0.02,0.12,0.95,
0.039,0.09,0.09,-0.26,-0.02,0.12,0.95,
0.042,0.09,0.09,-0.26,-0.02,0.13,0.95,
0.044,0.09,0.09,-0.26,-0.02,0.12,0.96,
0.045,0.09,0.08,-0.20,-0.02,0.12,0.96,
0.047,0.09,0.08,-0.20,-0.02,0.12,0.96,
0.05,0.09,0.08,-0.20,-0.02,0.12,0.97,
0.05,0.09,0.09,-0.16,-0.02,0.12,0.97,
0.052,0.09,0.09,-0.16,-0.02,0.12,0.97,
0.054,0.09,0.09,-0.16,-0.03,0.12,0.97,
0.054,0.07,0.07,-0.08,-0.03,0.12,0.97,
0.057,0.07,0.07,-0.08,-0.03,0.12,0.98,
0.06,0.07,0.07,-0.08,-0.03,0.12,0.98,
0.06,0.07,0.07,-0.02,-0.03,0.12,0.98,
0.062,0.07,0.07,-0.02,-0.03,0.12,0.98,
0.064,0.07,0.07,-0.02,-0.03,0.12,0.99,
0.064,0.05,0.07,0.05,-0.03,0.12,0.99,
0.066,0.05,0.07,0.05,-0.03,0.12,0.99,
0.069,0.05,0.07,0.05,-0.03,0.12,0.99,
0.069,0.05,0.08,0.12,-0.03,0.12,0.99,
0.071,0.05,0.08,0.12,-0.03,0.12,1.00,
0.074,0.04,0.06,0.18,-0.03,0.12,1.00,
0.074,0.04,0.06,0.18,-0.03,0.12,1.00,
0.076,0.04,0.06,0.18,-0.03,0.12,1.00,
0.079,0.04,0.06,0.18,-0.03,0.12,1.00,
0.079,0.04,0.03,0.24,-0.03,0.12,1.00,
0.081,0.04,0.03,0.24,-0.03,0.12,1.01,
0.084,0.01,0.04,0.28,-0.03,0.12,1.01,
0.084,0.01,0.04,0.28,-0.03,0.11,1.01,
0.086,0.01,0.04,0.28,-0.03,0.11,1.01,
0.088,0.01,0.04,0.28,-0.03,0.11,1.01,
0.089,0.02,0.03,0.31,-0.03,0.11,1.01,
0.091,0.02,0.03,0.31,-0.03,0.11,1.01,
0.099,0.02,0.03,0.31,-0.03,0.11,1.00,
0.1,0.00,-0.02,0.33,-0.03,0.11,1.00,
0.1,0.00,-0.02,0.33,-0.03,0.11,1.00,
0.1,0.00,-0.02,0.33,-0.03,0.10,1.00,
0.1,0.02,-0.04,0.29,-0.03,0.10,1.00,
0.101,0.02,-0.04,0.29,-0.03,0.11,1.00,
0.103,0.02,-0.04,0.29,-0.03,0.11,0.99,
0.103,0.02,-0.07,0.24,-0.03,0.11,0.99,
0.105,0.02,-0.07,0.24,-0.03,0.11,0.99,
0.108,0.02,-0.07,0.24,-0.03,0.11,0.98,
0.108,0.01,-0.07,0.18,-0.03,0.11,0.98,
0.11,0.01,-0.07,0.18,-0.03,0.11,0.98,
0.113,0.01,-0.07,0.18,-0.03,0.11,0.97,
0.113,0.03,-0.08,0.10,-0.03,0.11,0.97,
0.115,0.03,-0.08,0.10,-0.03,0.11,0.97,
0.118,0.03,-0.08,0.10,-0.03,0.11,0.96,
0.118,0.04,-0.07,0.01,-0.03,0.11,0.96,
0.12,0.04,-0.07,0.01,-0.03,0.11,0.96,
0.123,0.04,-0.07,0.01,-0.03,0.12,0.96,
0.123,0.03,-0.04,-0.07,-0.03,0.12,0.96,
0.126,0.03,-0.04,-0.07,-0.02,0.12,0.96,
0.128,0.03,-0.04,-0.07,-0.02,0.12,0.95,
0.128,0.05,-0.01,-0.14,-0.02,0.12,0.95,
0.13,0.05,-0.01,-0.14,-0.02,0.12,0.96,
0.133,0.05,-0.01,-0.14,-0.02,0.12,0.95,
0.133,0.07,-0.01,-0.19,-0.02,0.12,0.95,
0.135,0.07,-0.01,-0.19,-0.02,0.12,0.95,
0.137,0.07,-0.01,-0.19,-0.02,0.12,0.95,
0.138,0.11,0.01,-0.18,-0.02,0.12,0.95,
0.14,0.11,0.01,-0.18,-0.02,0.12,0.95,
0.143,0.11,0.01,-0.18,-0.02,0.12,0.95,
0.143,0.14,0.02,-0.21,-0.02,0.12,0.95,
0.145,0.14,0.02,-0.21,-0.01,0.12,0.95,
0.147,0.14,0.02,-0.21,-0.01,0.12,0.96,
0.148,0.15,0.03,-0.20,-0.01,0.12,0.96,
0.149,0.15,0.03,-0.20,-0.01,0.12,0.96,
0.152,0.15,0.03,-0.20,-0.01,0.12,0.96,
0.152,0.17,0.02,-0.17,-0.01,0.12,0.96,
0.154,0.17,0.02,-0.17,-0.01,0.12,0.96,
0.157,0.17,0.01,-0.16,-0.01,0.12,0.96,
0.157,0.17,0.01,-0.16,-0.01,0.12,0.96,
0.159,0.17,0.01,-0.16,-0.01,0.12,0.96,
0.162,0.17,0.01,-0.16,-0.01,0.12,0.97,
0.162,0.18,0.01,-0.12,-0.01,0.12,0.97,
0.164,0.18,0.01,-0.12,-0.01,0.12,0.97,
0.167,0.18,0.01,-0.12,-0.01,0.11,0.97,
0.167,0.19,0.01,-0.08,-0.01,0.11,0.97,
0.169,0.19,0.01,-0.08,-0.01,0.11,0.97,
0.172,0.19,0.01,-0.08,-0.01,0.11,0.98,
0.172,0.18,0.01,-0.02,-0.01,0.11,0.98,
0.174,0.18,0.01,-0.02,-0.01,0.11,0.98,
0.181,0.18,0.01,-0.02,-0.01,0.11,0.98,
0.182,0.20,-0.01,0.00,-0.01,0.11,0.98,
0.182,0.20,-0.01,0.00,-0.01,0.11,0.98,
0.182,0.20,-0.01,0.00,-0.01,0.11,0.98,
0.182,0.17,-0.01,0.06,-0.01,0.11,0.98,
0.184,0.17,-0.01,0.06,-0.01,0.11,0.98,
0.187,0.17,-0.01,0.06,-0.02,0.11,0.99,
0.187,0.17,-0.03,0.09,-0.02,0.11,0.99,
0.189,0.17,-0.03,0.09,-0.02,0.11,0.99,
0.192,0.17,-0.03,0.09,-0.02,0.10,0.99,
0.192,0.15,-0.06,0.12,-0.02,0.10,0.99,
0.194,0.15,-0.06,0.12,-0.02,0.10,0.99,
0.196,0.15,-0.06,0.12,-0.02,0.10,0.99,
0.197,0.10,-0.09,0.14,-0.02,0.10,0.99,
0.199,0.10,-0.09,0.14,-0.02,0.10,0.99,
0.201,0.10,-0.09,0.14,-0.02,0.10,0.99,
0.201,0.07,-0.10,0.16,-0.02,0.10,0.99,
0.204,0.07,-0.10,0.16,-0.02,0.10,0.99,
0.206,0.07,-0.10,0.16,-0.02,0.09,1.00,
0.206,0.06,-0.14,0.19,-0.02,0.09,1.00,
0.208,0.06,-0.14,0.19,-0.03,0.09,1.00,
0.211,0.06,-0.14,0.19,-0.03,0.09,1.00,
0.211,0.06,-0.18,0.20,-0.03,0.09,1.00,
0.213,0.06,-0.18,0.20,-0.03,0.09,1.00,
0.216,0.06,-0.18,0.20,-0.03,0.09,1.00,
0.216,0.03,-0.20,0.21,-0.03,0.09,1.00,
0.218,0.03,-0.20,0.21,-0.03,0.09,1.00,
0.221,0.03,-0.20,0.21,-0.03,0.09,1.00,
0.221,0.04,-0.23,0.21,-0.03,0.09,1.00,
0.223,0.04,-0.23,0.21,-0.03,0.09,0.99,
0.226,0.04,-0.23,0.21,-0.03,0.09,0.99,
0.226,0.03,-0.24,0.21,-0.03,0.09,0.99,
0.228,0.03,-0.24,0.21,-0.02,0.09,0.99,
0.231,0.03,-0.24,0.21,-0.02,0.09,0.99,
0.231,0.03,-0.23,0.18,-0.02,0.09,0.99,
0.233,0.03,-0.23,0.18,-0.02,0.09,0.99,
0.235,0.03,-0.23,0.18,-0.02,0.09,0.99,
0.235,0.08,-0.24,0.15,-0.02,0.09,0.99,
0.238,0.08,-0.24,0.15,-0.02,0.09,0.98,
0.24,0.08,-0.24,0.15,-0.02,0.09,0.98,
0.24,0.09,-0.25,0.12,-0.02,0.09,0.98,
0.243,0.09,-0.25,0.12,-0.01,0.09,0.98,
0.245,0.09,-0.25,0.12,-0.01,0.09,0.98,
0.246,0.12,-0.24,0.09,-0.01,0.09,0.98,
0.248,0.12,-0.24,0.09,-0.01,0.09,0.98,
0.25,0.12,-0.24,0.09,-0.01,0.09,0.97,
0.25,0.17,-0.23,0.04,-0.01,0.09,0.97,
0.252,0.17,-0.23,0.04,-0.01,0.09,0.97,
0.255,0.17,-0.23,0.04,-0.01,0.09,0.97,
0.255,0.20,-0.24,-0.02,-0.01,0.09,0.97,
0.257,0.20,-0.24,-0.02,-0.00,0.09,0.96,
0.26,0.20,-0.24,-0.02,-0.00,0.09,0.96,
0.26,0.22,-0.24,-0.08,-0.00,0.09,0.96,
0.262,0.22,-0.24,-0.08,-0.01,0.09,0.96,
0.265,0.22,-0.24,-0.08,-0.01,0.09,0.96,
0.265,0.25,-0.25,-0.11,-0.01,0.09,0.96,
0.267,0.25,-0.25,-0.11,-0.01,0.09,0.96,
0.27,0.25,-0.25,-0.11,-0.01,0.09,0.96,
0.27,0.20,-0.25,-0.13,-0.01,0.09,0.96,
0.272,0.20,-0.25,-0.13,-0.01,0.09,0.96,
0.277,0.20,-0.25,-0.13,-0.01,0.09,0.96,
0.278,0.17,-0.24,-0.17,-0.01,0.09,0.96,
0.278,0.17,-0.24,-0.17,-0.01,0.09,0.95,
0.279,0.17,-0.24,-0.17,-0.01,0.08,0.95,
0.28,0.14,-0.24,-0.19,-0.01,0.08,0.95,
0.282,0.14,-0.24,-0.19,-0.01,0.08,0.95,
0.284,0.14,-0.24,-0.19,-0.01,0.08,0.95,
0.285,0.15,-0.27,-0.21,-0.01,0.08,0.95,
0.287,0.15,-0.27,-0.21,-0.01,0.08,0.95,
0.29,0.15,-0.27,-0.21,-0.01,0.08,0.95,
0.29,0.15,-0.28,-0.21,-0.01,0.08,0.95,
0.292,0.15,-0.28,-0.21,-0.01,0.08,0.95,
0.294,0.15,-0.28,-0.21,-0.01,0.08,0.95,
0.294,0.16,-0.32,-0.21,-0.01,0.08,0.95,
0.297,0.16,-0.32,-0.21,-0.01,0.07,0.96,
0.299,0.16,-0.32,-0.21,-0.01,0.07,0.96,
0.299,0.15,-0.34,-0.20,-0.01,0.07,0.96,
0.301,0.15,-0.34,-0.20,-0.01,0.07,0.96,
0.304,0.15,-0.34,-0.20,-0.01,0.07,0.96,
0.304,0.13,-0.37,-0.17,-0.01,0.07,0.96,
0.307,0.13,-0.37,-0.17,-0.02,0.07,0.96,
0.309,0.13,-0.37,-0.17,-0.02,0.06,0.97,
0.309,0.12,-0.41,-0.13,-0.02,0.06,0.97,
0.311,0.12,-0.41,-0.13,-0.02,0.06,0.97,
0.314,0.12,-0.41,-0.13,-0.02,0.06,0.97,
0.315,0.10,-0.43,-0.09,-0.02,0.06,0.97,
0.316,0.10,-0.43,-0.09,-0.02,0.06,0.97,
0.319,0.10,-0.43,-0.09,-0.02,0.06,0.98,
0.319,0.09,-0.47,-0.02,-0.02,0.06,0.98,
0.321,0.09,-0.47,-0.02,-0.01,0.06,0.98,
0.324,0.09,-0.47,-0.02,-0.01,0.06,0.98,
0.326,0.09,-0.50,0.01,-0.01,0.06,0.98,
0.326,0.09,-0.50,0.01,-0.01,0.06,0.98,
0.328,0.09,-0.50,0.01,-0.01,0.06,0.99,
0.329,0.11,-0.51,0.07,-0.01,0.06,0.99,
0.331,0.11,-0.51,0.07,-0.01,0.06,0.99,
0.333,0.11,-0.51,0.07,-0.01,0.06,0.99,
0.333,0.11,-0.50,0.11,-0.01,0.06,0.99,
0.336,0.11,-0.50,0.11,-0.01,0.06,0.99,
0.338,0.11,-0.50,0.11,-0.01,0.06,0.99,
0.339,0.15,-0.50,0.13,-0.01,0.06,0.99,
0.342,0.15,-0.50,0.13,-0.01,0.06,0.99,
0.343,0.15,-0.50,0.13,-0.00,0.06,0.99,
0.344,0.17,-0.47,0.13,-0.00,0.06,0.99,
0.345,0.17,-0.47,0.13,-0.00,0.06,0.99,
0.348,0.17,-0.47,0.13,-0.00,0.06,0.99,
0.348,0.19,-0.44,0.13,-0.00,0.06,0.99,
0.35,0.19,-0.44,0.13,-0.00,0.07,0.98,
0.353,0.19,-0.44,0.13,-0.00,0.07,0.98,
0.353,0.20,-0.42,0.12,-0.00,0.07,0.98,
0.355,0.20,-0.42,0.12,-0.00,0.07,0.98,
0.358,0.20,-0.42,0.12,-0.00,0.07,0.98,
0.359,0.19,-0.40,0.09,-0.00,0.07,0.98,
0.36,0.19,-0.40,0.09,-0.00,0.07,0.98,
0.363,0.19,-0.40,0.09,-0.00,0.07,0.98,
0.363,0.20,-0.40,0.07,-0.00,0.07,0.98,
0.365,0.20,-0.40,0.07,-0.00,0.07,0.98,
0.368,0.20,-0.40,0.07,-0.00,0.07,0.97,
0.368,0.19,-0.38,0.05,-0.00,0.07,0.97,
0.37,0.19,-0.38,0.05,-0.00,0.07,0.97,
0.373,0.19,-0.38,0.05,-0.00,0.07,0.97,
0.373,0.18,-0.39,0.01,-0.00,0.07,0.97,
0.381,0.18,-0.39,0.01,-0.00,0.07,0.97,
0.381,0.18,-0.39,0.01,-0.00,0.07,0.97,
0.381,0.19,-0.40,-0.03,-0.00,0.07,0.97,
0.381,0.19,-0.40,-0.03,-0.00,0.06,0.96,
0.382,0.19,-0.40,-0.03,-0.00,0.06,0.96,
0.383,0.20,-0.40,-0.07,-0.00,0.06,0.96,
0.385,0.20,-0.40,-0.07,-0.00,0.06,0.96,
0.387,0.20,-0.40,-0.07,-0.00,0.06,0.96,
0.387,0.19,-0.42,-0.11,-0.00,0.06,0.96,
0.39,0.19,-0.42,-0.11,-0.00,0.06,0.96,
0.392,0.19,-0.42,-0.11,-0.00,0.06,0.95,
0.393,0.20,-0.44,-0.15,-0.00,0.06,0.95,
0.395,0.20,-0.44,-0.15,-0.00,0.06,0.95,
0.397,0.20,-0.44,-0.15,-0.00,0.06,0.95,
0.397,0.17,-0.46,-0.18,-0.00,0.06,0.95,
0.399,0.17,-0.46,-0.18,-0.00,0.06,0.95,
0.402,0.17,-0.46,-0.18,-0.00,0.05,0.95,
0.402,0.19,-0.48,-0.22,-0.00,0.05,0.95,
0.404,0.19,-0.48,-0.22,-0.01,0.05,0.95,
0.407,0.19,-0.48,-0.22,-0.01,0.05,0.95,
0.408,0.18,-0.50,-0.24,-0.01,0.05,0.95,
0.41,0.18,-0.50,-0.24,-0.01,0.05,0.95,
0.412,0.18,-0.50,-0.24,-0.01,0.05,0.95,
0.412,0.14,-0.53,-0.24,-0.01,0.05,0.95,
0.414,0.14,-0.53,-0.24,-0.01,0.05,0.95,
0.417,0.14,-0.53,-0.24,-0.01,0.05,0.95,
0.417,0.10,-0.54,-0.24,-0.01,0.05,0.95,
0.419,0.10,-0.54,-0.24,-0.01,0.04,0.95,
0.421,0.10,-0.54,-0.24,-0.01,0.04,0.95,
0.422,0.08,-0.57,-0.23,-0.01,0.04,0.95,
0.424,0.08,-0.57,-0.23,-0.01,0.05,0.95,
0.427,0.08,-0.57,-0.23,-0.01,0.05,0.95,
0.427,0.13,-0.59,-0.20,-0.01,0.05,0.95,
0.429,0.13,-0.59,-0.20,-0.00,0.04,0.96,
0.431,0.13,-0.59,-0.20,-0.00,0.05,0.96,
0.432,0.12,-0.57,-0.17,-0.00,0.05,0.96,
0.434,0.12,-0.57,-0.17,-0.00,0.04,0.96,
0.436,0.12,-0.57,-0.17,-0.00,0.04,0.96,
0.436,0.14,-0.57,-0.13,-0.00,0.04,0.96,
0.438,0.14,-0.57,-0.13,-0.00,0.05,0.96,
0.441,0.14,-0.57,-0.13,-0.00,0.05,0.96,
0.442,0.14,-0.57,-0.11,-0.00,0.05,0.96,
0.443,0.14,-0.57,-0.11,-0.00,0.05,0.96,
0.446,0.14,-0.57,-0.11,-0.00,0.05,0.96,
0.446,0.15,-0.55,-0.08,-0.00,0.05,0.96,
0.448,0.15,-0.55,-0.08,-0.00,0.05,0.97,
0.451,0.15,-0.55,-0.08,-0.00,0.05,0.97,
0.451,0.13,-0.49,-0.08,-0.00,0.05,0.97,
0.453,0.13,-0.49,-0.08,-0.00,0.05,0.97,
0.456,0.13,-0.49,-0.08,-0.00,0.05,0.97,
0.456,0.12,-0.48,-0.05,-0.00,0.05,0.97,
0.458,0.12,-0.48,-0.05,0.00,0.06,0.97,
0.461,0.12,-0.48,-0.05,-0.00,0.06,0.97,
0.461,0.13,-0.45,-0.04,-0.00,0.06,0.97,
0.463,0.13,-0.45,-0.04,0.00,0.06,0.97,
0.466,0.13,-0.45,-0.04,0.01,0.06,0.97,
0.466,0.16,-0.43,-0.04,0.01,0.06,0.97,
0.468,0.16,-0.43,-0.04,0.00,0.06,0.97,
0.47,0.16,-0.43,-0.04,0.01,0.06,0.97,
0.471,0.19,-0.42,-0.01,0.01,0.06,0.97,
0.473,0.19,-0.42,-0.01,0.01,0.06,0.97,
0.478,0.19,-0.42,-0.01,0.00,0.06,0.97,
0.478,0.20,-0.40,-0.01,0.00,0.06,0.97,
0.479,0.20,-0.40,-0.01,0.01,0.06,0.97,
0.48,0.20,-0.40,-0.01,0.01,0.06,0.97,
0.481,0.20,-0.39,-0.01,0.01,0.06,0.97,
0.482,0.20,-0.39,-0.01,0.01,0.06,0.97,
0.485,0.20,-0.39,-0.01,0.00,0.06,0.97,
0.485,0.20,-0.39,-0.01,0.00,0.06,0.97,
0.488,0.20,-0.39,-0.01,0.00,0.06,0.97,
0.491,0.20,-0.39,-0.01,0.00,0.06,0.97,
0.491,0.18,-0.37,-0.01,0.00,0.06,0.97,
0.492,0.18,-0.37,-0.01,0.00,0.05,0.97,
0.495,0.18,-0.37,-0.01,-0.00,0.05,0.96,
0.495,0.14,-0.39,-0.04,-0.00,0.05,0.96,
0.497,0.14,-0.39,-0.04,-0.00,0.05,0.96,
0.5,0.14,-0.39,-0.04,-0.00,0.05,0.96,
0.5,0.12,-0.42,-0.08,-0.00,0.05,0.96,
0.502,0.12,-0.42,-0.08,-0.00,0.05,0.96,
0.505,0.12,-0.42,-0.08,-0.00,0.05,0.96,
0.505,0.12,-0.43,-0.11,-0.00,0.05,0.96,
0.508,0.12,-0.43,-0.11,-0.00,0.06,0.96,
0.51,0.12,-0.43,-0.11,-0.00,0.06,0.96,
0.51,0.11,-0.41,-0.12,-0.00,0.06,0.96,
0.512,0.11,-0.41,-0.12,0.00,0.06,0.96,
0.515,0.11,-0.41,-0.12,0.01,0.06,0.96,
0.515,0.09,-0.38,-0.14,0.01,0.06,0.96,
0.517,0.09,-0.38,-0.14,0.01,0.06,0.96,
0.519,0.09,-0.38,-0.14,0.01,0.06,0.96,
0.52,0.14,-0.36,-0.15,0.01,0.06,0.96,
0.522,0.14,-0.36,-0.15,0.01,0.06,0.96,
0.525,0.14,-0.36,-0.15,0.01,0.06,0.96,
0.525,0.17,-0.33,-0.13,0.01,0.06,0.96,
0.527,0.17,-0.33,-0.13,0.01,0.06,0.96,
0.53,0.17,-0.33,-0.13,0.01,0.07,0.96,
0.53,0.17,-0.32,-0.14,0.01,0.07,0.96,
0.531,0.17,-0.32,-0.14,0.02,0.07,0.95,
0.534,0.17,-0.32,-0.14,0.02,0.07,0.95,
0.534,0.21,-0.29,-0.14,0.02,0.07,0.95,
0.536,0.21,-0.29,-0.14,0.03,0.07,0.95,
0.539,0.28,-0.25,-0.17,0.03,0.07,0.95,
0.539,0.28,-0.25,-0.17,0.03,0.07,0.95,
0.541,0.28,-0.25,-0.17,0.03,0.07,0.95,
0.544,0.28,-0.25,-0.17,0.03,0.07,0.95,
0.544,0.34,-0.24,-0.19,0.03,0.07,0.95,
0.546,0.34,-0.24,-0.19,0.03,0.08,0.95,
0.549,0.34,-0.24,-0.19,0.03,0.08,0.95,
0.549,0.37,-0.21,-0.20,0.03,0.08,0.95,
0.551,0.37,-0.21,-0.20,0.03,0.08,0.95,
0.554,0.37,-0.21,-0.20,0.03,0.08,0.95,
0.554,0.38,-0.20,-0.21,0.03,0.08,0.95,
0.557,0.38,-0.20,-0.21,0.04,0.08,0.95,
0.559,0.38,-0.20,-0.21,0.04,0.08,0.95,
0.559,0.39,-0.15,-0.22,0.04,0.08,0.95,
0.561,0.39,-0.15,-0.22,0.04,0.08,0.95,
0.564,0.39,-0.15,-0.22,0.03,0.08,0.95,
0.564,0.40,-0.15,-0.20,0.03,0.08,0.95,
0.566,0.40,-0.15,-0.20,0.03,0.08,0.95,
0.568,0.40,-0.15,-0.20,0.03,0.08,0.95,
0.568,0.39,-0.14,-0.19,0.03,0.08,0.95,
0.571,0.39,-0.14,-0.19,0.03,0.08,0.95,
0.577,0.39,-0.14,-0.19,0.03,0.08,0.96,
0.578,0.35,-0.14,-0.17,0.03,0.08,0.96,
0.578,0.35,-0.14,-0.17,0.03,0.07,0.96,
0.579,0.35,-0.14,-0.17,0.03,0.07,0.96,
0.579,0.33,-0.17,-0.15,0.03,0.07,0.96,
0.581,0.33,-0.17,-0.15,0.04,0.07,0.96,
0.583,0.33,-0.17,-0.15,0.04,0.07,0.97,
0.584,0.34,-0.21,-0.11,0.04,0.07,0.97,
0.586,0.34,-0.21,-0.11,0.04,0.06,0.97,
0.588,0.34,-0.21,-0.11,0.04,0.06,0.97,
0.589,0.35,-0.27,-0.05,0.04,0.06,0.97,
0.6,0.35,-0.27,-0.05,0.04,0.06,0.97,
0.601,0.35,-0.27,-0.05,0.04,0.06,0.98,
0.601,0.35,-0.30,0.02,0.04,0.06,0.98,
0.601,0.35,-0.30,0.02,0.03,0.06,0.98,
0.602,0.35,-0.30,0.02,0.03,0.05,0.98,
0.602,0.34,-0.34,0.06,0.03,0.05,0.98,
0.603,0.34,-0.34,0.06,0.03,0.05,0.98,
0.603,0.34,-0.34,0.06,0.03,0.05,0.98,
0.603,0.29,-0.38,0.08,0.03,0.05,0.98,
0.605,0.29,-0.38,0.08,0.03,0.05,0.98,
0.615,0.29,-0.38,0.08,0.03,0.05,0.98,
0.616,0.28,-0.40,0.10,0.03,0.05,0.98,
0.616,0.28,-0.40,0.10,0.03,0.05,0.98,
0.616,0.28,-0.40,0.10,0.03,0.05,0.98,
0.617,0.26,-0.41,0.09,0.03,0.05,0.98,
0.617,0.26,-0.41,0.09,0.03,0.05,0.98,
0.617,0.26,-0.41,0.09,0.02,0.05,0.97,
0.617,0.23,-0.40,0.08,0.02,0.05,0.97,
0.62,0.23,-0.40,0.08,0.02,0.05,0.97,
0.622,0.23,-0.40,0.08,0.02,0.06,0.96,
0.622,0.20,-0.39,0.03,0.02,0.06,0.96,
0.625,0.20,-0.39,0.03,0.02,0.06,0.96,
0.627,0.20,-0.39,0.03,0.02,0.06,0.96,
0.627,0.18,-0.36,-0.06,0.02,0.06,0.96,
0.629,0.18,-0.36,-0.06,0.02,0.06,0.95,
0.632,0.18,-0.36,-0.06,0.02,0.06,0.95,
0.632,0.16,-0.35,-0.12,0.02,0.06,0.95,
0.634,0.16,-0.35,-0.12,0.02,0.07,0.94,
0.637,0.16,-0.35,-0.12,0.01,0.07,0.94,
0.637,0.13,-0.28,-0.20,0.01,0.07,0.94,
0.64,0.13,-0.28,-0.20,0.01,0.07,0.94,
0.643,0.13,-0.28,-0.20,0.01,0.07,0.93,
0.643,0.10,-0.23,-0.27,0.01,0.07,0.93,
0.645,0.10,-0.23,-0.27,0.00,0.07,0.93,
0.647,0.10,-0.23,-0.27,0.00,0.07,0.93,
0.647,0.03,-0.18,-0.33,0.00,0.07,0.93,
0.649,0.03,-0.18,-0.33,-0.00,0.08,0.93,
0.652,0.03,-0.18,-0.33,-0.00,0.08,0.93,
0.652,-0.02,-0.15,-0.37,-0.00,0.08,0.93,
0.654,-0.02,-0.15,-0.37,-0.00,0.08,0.93,
0.658,-0.02,-0.15,-0.37,-0.01,0.08,0.94,
0.658,-0.05,-0.10,-0.37,-0.01,0.08,0.94,
0.659,-0.05,-0.10,-0.37,-0.01,0.08,0.94,
0.661,-0.05,-0.10,-0.37,-0.01,0.07,0.94,
0.662,-0.08,-0.08,-0.33,-0.01,0.07,0.94,
0.664,-0.08,-0.08,-0.33,-0.00,0.07,0.94,
0.667,-0.08,-0.08,-0.33,-0.00,0.07,0.95,
0.667,-0.11,-0.11,-0.28,-0.00,0.07,0.95,
0.669,-0.11,-0.11,-0.28,-0.00,0.07,0.95,
0.671,-0.11,-0.11,-0.28,-0.01,0.07,0.96,
0.672,-0.09,-0.14,-0.22,-0.01,0.07,0.96,
0.674,-0.09,-0.14,-0.22,-0.01,0.07,0.96,
0.676,-0.09,-0.14,-0.22,-0.01,0.07,0.97,
0.677,-0.11,-0.16,-0.12,-0.01,0.07,0.97,
0.678,-0.11,-0.16,-0.12,-0.01,0.07,0.97,
0.681,-0.11,-0.16,-0.12,-0.01,0.07,0.98,
0.681,-0.15,-0.15,-0.02,-0.01,0.07,0.98,
0.684,-0.15,-0.15,-0.02,-0.02,0.07,0.98,
0.686,-0.15,-0.15,-0.02,-0.02,0.06,0.98,
0.686,-0.18,-0.14,0.07,-0.02,0.06,0.98,
0.688,-0.18,-0.14,0.07,-0.02,0.06,0.99,
0.694,-0.18,-0.14,0.07,-0.02,0.06,0.99,
0.695,-0.24,-0.16,0.14,-0.02,0.06,0.99,
0.695,-0.24,-0.16,0.14,-0.02,0.06,0.99,
0.696,-0.24,-0.16,0.14,-0.03,0.06,0.99,
0.696,-0.26,-0.17,0.21,-0.03,0.06,0.99,
0.698,-0.26,-0.17,0.21,-0.03,0.06,0.99,
0.701,-0.26,-0.17,0.21,-0.03,0.06,1.00,
0.701,-0.33,-0.18,0.25,-0.03,0.06,1.00,
0.703,-0.33,-0.18,0.25,-0.03,0.06,1.00,
0.706,-0.33,-0.18,0.25,-0.03,0.06,1.00,
0.707,-0.35,-0.17,0.25,-0.03,0.06,1.00,
0.709,-0.35,-0.17,0.25,-0.03,0.06,0.99,
0.71,-0.35,-0.17,0.25,-0.03,0.07,0.99,
0.711,-0.35,-0.14,0.27,-0.03,0.07,0.99,
0.713,-0.35,-0.14,0.27,-0.03,0.07,0.99,
0.715,-0.35,-0.14,0.27,-0.03,0.07,0.98,
0.715,-0.39,-0.11,0.21,-0.03,0.07,0.98,
0.718,-0.39,-0.11,0.21,-0.03,0.07,0.98,
0.72,-0.39,-0.11,0.21,-0.03,0.07,0.97,
0.72,-0.40,-0.08,0.14,-0.03,0.07,0.97,
0.723,-0.40,-0.08,0.14,-0.03,0.07,0.97,
0.725,-0.40,-0.08,0.14,-0.03,0.08,0.97,
0.726,-0.36,-0.05,0.05,-0.03,0.08,0.97,
0.728,-0.36,-0.05,0.05,-0.02,0.08,0.96,
0.731,-0.36,-0.05,0.05,-0.02,0.08,0.96,
0.731,-0.33,0.01,-0.01,-0.02,0.08,0.96,
0.733,-0.33,0.01,-0.01,-0.02,0.08,0.96,
0.735,-0.33,0.01,-0.01,-0.02,0.08,0.95,
0.735,-0.32,0.06,-0.06,-0.02,0.08,0.95,
0.737,-0.32,0.06,-0.06,-0.02,0.09,0.95,
0.74,-0.32,0.06,-0.06,-0.02,0.09,0.95,
0.74,-0.28,0.10,-0.14,-0.02,0.09,0.95,
0.743,-0.28,0.10,-0.14,-0.02,0.09,0.95,
0.745,-0.28,0.10,-0.14,-0.02,0.09,0.94,
0.745,-0.27,0.12,-0.20,-0.02,0.09,0.94,
0.747,-0.27,0.12,-0.20,-0.02,0.09,0.94,
0.749,-0.27,0.12,-0.20,-0.02,0.09,0.94,
0.75,-0.28,0.16,-0.25,-0.02,0.09,0.94,
0.752,-0.28,0.16,-0.25,-0.03,0.09,0.94,
0.754,-0.28,0.16,-0.25,-0.03,0.09,0.94,
0.755,-0.29,0.18,-0.28,-0.03,0.09,0.94,
0.757,-0.29,0.18,-0.28,-0.03,0.09,0.94,
0.759,-0.29,0.18,-0.28,-0.03,0.09,0.94,
0.76,-0.32,0.18,-0.29,-0.03,0.09,0.94,
0.762,-0.32,0.18,-0.29,-0.03,0.09,0.94,
0.764,-0.32,0.18,-0.29,-0.03,0.09,0.94,
0.765,-0.35,0.22,-0.29,-0.03,0.09,0.94,
0.767,-0.35,0.22,-0.29,-0.03,0.09,0.94,
0.77,-0.35,0.22,-0.29,-0.03,0.09,0.95,
0.77,-0.36,0.22,-0.26,-0.03,0.09,0.95,
0.772,-0.36,0.22,-0.26,-0.03,0.09,0.95,
0.778,-0.36,0.22,-0.26,-0.03,0.09,0.95,
0.778,-0.38,0.23,-0.23,-0.03,0.09,0.95,
0.779,-0.38,0.23,-0.23,-0.03,0.09,0.95,
0.779,-0.38,0.23,-0.23,-0.04,0.09,0.95,
0.779,-0.39,0.24,-0.19,-0.04,0.09,0.95,
0.781,-0.39,0.24,-0.19,-0.04,0.09,0.96,
0.784,-0.39,0.24,-0.19,-0.04,0.09,0.96,
0.784,-0.42,0.27,-0.16,-0.04,0.09,0.96,
0.786,-0.42,0.27,-0.16,-0.03,0.10,0.97,
0.79,-0.43,0.29,-0.10,-0.03,0.10,0.97,
0.79,-0.43,0.29,-0.10,-0.03,0.10,0.97,
0.791,-0.43,0.29,-0.10,-0.03,0.10,0.98,
0.794,-0.43,0.29,-0.10,-0.03,0.10,0.98,
0.794,-0.41,0.32,0.00,-0.03,0.10,0.98,
0.796,-0.41,0.32,0.00,-0.02,0.10,0.98,
0.799,-0.41,0.32,0.00,-0.02,0.10,0.99,
0.799,-0.37,0.35,0.09,-0.02,0.10,0.99,
0.801,-0.37,0.35,0.09,-0.02,0.11,0.99,
0.804,-0.37,0.35,0.09,-0.02,0.11,0.99,
0.804,-0.32,0.40,0.16,-0.02,0.11,0.99,
0.806,-0.32,0.40,0.16,-0.01,0.11,1.00,
0.808,-0.32,0.40,0.16,-0.01,0.11,1.00,
0.809,-0.27,0.43,0.22,-0.01,0.11,1.00,
0.811,-0.27,0.43,0.22,-0.01,0.11,1.00,
0.813,-0.27,0.43,0.22,-0.01,0.11,0.99,
0.816,-0.22,0.48,0.26,-0.01,0.11,0.99,
0.816,-0.22,0.48,0.26,-0.00,0.11,0.99,
0.818,-0.22,0.48,0.26,-0.01,0.12,0.99,
0.818,-0.20,0.52,0.24,-0.01,0.12,0.99,
0.821,-0.20,0.52,0.24,-0.01,0.12,0.99,
0.823,-0.20,0.52,0.24,-0.01,0.12,0.99,
0.824,-0.16,0.54,0.22,-0.01,0.12,0.99,
0.825,-0.16,0.54,0.22,-0.01,0.12,0.98,
0.828,-0.16,0.54,0.22,-0.01,0.12,0.98,
0.828,-0.19,0.59,0.16,-0.01,0.12,0.98,
0.83,-0.19,0.59,0.16,-0.01,0.12,0.98,
0.833,-0.19,0.59,0.16,-0.01,0.12,0.98,
0.833,-0.20,0.62,0.12,-0.01,0.12,0.98,
0.835,-0.20,0.62,0.12,-0.01,0.12,0.98,
0.838,-0.20,0.62,0.12,-0.01,0.12,0.97,
0.838,-0.22,0.62,0.08,-0.01,0.12,0.97,
0.84,-0.22,0.62,0.08,-0.01,0.12,0.97,
0.843,-0.22,0.62,0.08,-0.01,0.12,0.97,
0.843,-0.23,0.63,0.05,-0.01,0.12,0.97,
0.845,-0.23,0.63,0.05,-0.01,0.12,0.97,
0.847,-0.23,0.63,0.05,-0.01,0.12,0.97,
0.847,-0.25,0.62,0.01,-0.01,0.12,0.97,
0.85,-0.25,0.62,0.01,-0.02,0.12,0.98,
0.852,-0.25,0.62,0.01,-0.02,0.11,0.98,
0.853,-0.26,0.60,0.02,-0.02,0.11,0.98,
0.855,-0.26,0.60,0.02,-0.02,0.11,0.98,
0.857,-0.26,0.60,0.02,-0.02,0.11,0.98,
0.857,-0.29,0.58,0.08,-0.02,0.11,0.98,
0.86,-0.29,0.58,0.08,-0.02,0.11,0.99,
0.862,-0.29,0.58,0.08,-0.03,0.11,0.99,
0.862,-0.31,0.57,0.11,-0.03,0.11,0.99,
0.864,-0.31,0.57,0.11,-0.03,0.11,0.99,
0.867,-0.31,0.57,0.11,-0.03,0.11,0.99,
0.867,-0.35,0.56,0.15,-0.03,0.11,0.99,
0.869,-0.35,0.56,0.15,-0.02,0.11,1.00,
0.872,-0.35,0.56,0.15,-0.03,0.11,1.00,
0.873,-0.37,0.58,0.20,-0.03,0.11,1.00,
0.874,-0.37,0.58,0.20,-0.03,0.11,1.00,
0.877,-0.37,0.58,0.20,-0.03,0.11,1.00,
0.878,-0.36,0.57,0.25,-0.03,0.11,1.00,
0.879,-0.36,0.57,0.25,-0.03,0.11,1.01,
0.882,-0.36,0.57,0.25,-0.03,0.11,1.00,
0.882,-0.38,0.59,0.30,-0.03,0.11,1.00,
0.884,-0.38,0.59,0.30,-0.03,0.11,1.01,
0.887,-0.38,0.59,0.30,-0.03,0.11,1.01,
0.887,-0.39,0.60,0.32,-0.03,0.11,1.01,
0.894,-0.39,0.60,0.32,-0.03,0.11,1.01,
0.894,-0.39,0.60,0.32,-0.02,0.11,1.01,
0.894,-0.37,0.61,0.33,-0.02,0.11,1.01,
0.895,-0.37,0.61,0.33,-0.02,0.11,1.00,
0.896,-0.37,0.61,0.33,-0.02,0.11,1.00,
0.897,-0.34,0.61,0.31,-0.02,0.11,1.00,
0.899,-0.34,0.61,0.31,-0.02,0.11,1.00,
0.901,-0.34,0.61,0.31,-0.02,0.11,1.00,
0.901,-0.32,0.61,0.28,-0.02,0.11,1.00,
0.904,-0.32,0.61,0.28,-0.02,0.11,1.00,
0.906,-0.32,0.61,0.28,-0.02,0.11,0.99,
0.907,-0.29,0.62,0.25,-0.02,0.11,0.99,
0.909,-0.29,0.62,0.25,-0.02,0.11,0.99,
0.911,-0.29,0.62,0.25,-0.02,0.11,0.99,
0.911,-0.30,0.62,0.20,-0.02,0.11,0.99,
0.913,-0.30,0.62,0.20,-0.02,0.11,0.98,
0.916,-0.30,0.62,0.20,-0.02,0.10,0.98,
0.916,-0.28,0.60,0.13,-0.02,0.10,0.98,
0.918,-0.28,0.60,0.13,-0.02,0.10,0.97,
0.921,-0.28,0.60,0.13,-0.03,0.10,0.97,
0.921,-0.30,0.59,0.05,-0.03,0.10,0.97,
0.923,-0.30,0.59,0.05,-0.03,0.10,0.97,
0.926,-0.30,0.59,0.05,-0.03,0.10,0.97,
0.926,-0.33,0.55,-0.01,-0.03,0.10,0.97,
0.928,-0.33,0.55,-0.01,-0.03,0.10,0.97,
0.931,-0.33,0.55,-0.01,-0.03,0.10,0.97,
0.931,-0.35,0.54,-0.04,-0.03,0.10,0.97,
0.933,-0.35,0.54,-0.04,-0.03,0.10,0.97,
0.936,-0.35,0.54,-0.04,-0.03,0.10,0.97,
0.936,-0.36,0.55,-0.04,-0.03,0.10,0.97,
0.939,-0.36,0.55,-0.04,-0.03,0.10,0.98,
0.941,-0.36,0.55,-0.04,-0.03,0.10,0.98,
0.941,-0.38,0.54,-0.02,-0.03,0.10,0.98,
0.943,-0.38,0.54,-0.02,-0.03,0.10,0.99,
0.946,-0.38,0.54,-0.02,-0.03,0.10,0.99,
0.946,-0.38,0.56,0.04,-0.03,0.10,0.99,
0.948,-0.38,0.56,0.04,-0.03,0.10,0.99,
0.95,-0.38,0.56,0.04,-0.03,0.10,1.00,
0.951,-0.37,0.57,0.13,-0.03,0.10,1.00,
0.953,-0.37,0.57,0.13,-0.03,0.10,1.00,
0.956,-0.37,0.56,0.20,-0.03,0.10,1.00,
0.956,-0.37,0.56,0.20,-0.03,0.10,1.01,
0.958,-0.37,0.56,0.20,-0.02,0.10,1.01,
0.96,-0.37,0.56,0.20,-0.02,0.09,1.02,
0.961,-0.34,0.56,0.31,-0.02,0.09,1.02,
0.962,-0.34,0.56,0.31,-0.02,0.10,1.02,
0.965,-0.34,0.56,0.31,-0.02,0.10,1.02,
0.966,-0.31,0.57,0.38,-0.02,0.10,1.02,
0.968,-0.31,0.57,0.38,-0.02,0.10,1.02,
0.97,-0.31,0.57,0.38,-0.02,0.10,1.03,
0.97,-0.28,0.59,0.44,-0.02,0.10,1.03,
0.972,-0.28,0.59,0.44,-0.02,0.10,1.02,
0.975,-0.28,0.59,0.44,-0.01,0.11,1.03,
0.975,-0.26,0.62,0.47,-0.01,0.11,1.03,
0.978,-0.26,0.62,0.47,-0.01,0.11,1.02,
0.98,-0.26,0.62,0.47,-0.01,0.11,1.02,
0.98,-0.22,0.67,0.47,-0.01,0.11,1.02,
0.982,-0.22,0.67,0.47,-0.01,0.11,1.02,
0.985,-0.22,0.67,0.47,-0.01,0.12,1.02,
0.985,-0.18,0.70,0.44,-0.01,0.12,1.02,
0.987,-0.18,0.70,0.44,-0.01,0.12,1.01,
0.994,-0.18,0.70,0.44,-0.00,0.12,1.01,
0.994,-0.15,0.77,0.39,-0.00,0.12,1.01,
0.995,-0.15,0.77,0.39,-0.00,0.13,1.00,
0.995,-0.15,0.77,0.39,-0.00,0.13,1.00,
0.995,-0.12,0.84,0.32,-0.00,0.13,1.00,
0.997,-0.12,0.84,0.32,-0.00,0.13,0.99,
0.999,-0.12,0.84,0.32,-0.00,0.13,0.99,
1.0,-0.10,0.88,0.22,-0.00,0.13,0.99,
1.002,-0.10,0.88,0.22,-0.00,0.13,0.99,
1.004,-0.10,0.88,0.22,-0.00,0.14,0.98,
1.007,-0.10,0.92,0.14,-0.00,0.14,0.98,
1.007,-0.10,0.92,0.14,-0.00,0.14,0.98,
1.01,-0.10,0.92,0.14,-0.00,0.14,0.97,
1.01,-0.08,0.97,0.05,-0.00,0.14,0.97,
1.011,-0.08,0.97,0.05,0.00,0.14,0.97,
1.014,-0.08,0.97,0.05,0.00,0.14,0.97,
1.014,-0.07,1.02,-0.03,0.00,0.14,0.97,
1.016,-0.07,1.02,-0.03,0.00,0.14,0.97,
1.019,-0.07,1.02,-0.03,0.00,0.15,0.97,
1.019,-0.05,1.04,-0.09,0.00,0.15,0.97,
1.022,-0.05,1.04,-0.09,0.00,0.15,0.97,
1.024,-0.05,1.04,-0.09,0.00,0.15,0.97,
1.024,-0.02,1.06,-0.09,0.00,0.15,0.97,
1.026,-0.02,1.06,-0.09,0.00,0.15,0.97,
1.029,-0.02,1.06,-0.09,0.01,0.15,0.97,
1.029,-0.03,1.11,-0.09,0.01,0.15,0.97,
1.031,-0.03,1.11,-0.09,0.01,0.16,0.98,
1.034,-0.03,1.11,-0.09,0.01,0.16,0.98,
1.034,0.00,1.15,-0.06,0.01,0.16,0.98,
1.036,0.00,1.15,-0.06,0.01,0.16,0.99,
1.039,0.00,1.15,-0.06,0.02,0.16,1.00,
1.04,0.03,1.18,0.03,0.02,0.16,1.00,
1.041,0.03,1.18,0.03,0.02,0.16,1.01,
1.044,0.03,1.18,0.03,0.02,0.16,1.01,
1.044,0.09,1.22,0.15,0.02,0.16,1.01,
1.046,0.09,1.22,0.15,0.02,0.16,1.02,
1.048,0.09,1.22,0.15,0.02,0.16,1.03,
1.048,0.12,1.24,0.30,0.02,0.16,1.03,
1.05,0.12,1.24,0.30,0.02,0.16,1.03,
1.053,0.12,1.24,0.30,0.03,0.16,1.04,
1.053,0.16,1.25,0.44,0.03,0.16,1.04,
1.056,0.16,1.25,0.44,0.03,0.16,1.05,
1.058,0.16,1.25,0.44,0.03,0.16,1.06,
1.059,0.18,1.24,0.58,0.03,0.16,1.06,
1.061,0.18,1.24,0.58,0.03,0.16,1.06,
1.063,0.18,1.24,0.58,0.03,0.16,1.07,
1.063,0.21,1.21,0.72,0.03,0.16,1.07,
1.065,0.21,1.21,0.72,0.03,0.16,1.07,
1.068,0.21,1.21,0.72,0.03,0.16,1.07,
1.068,0.20,1.20,0.81,0.03,0.16,1.07,
1.07,0.20,1.20,0.81,0.03,0.16,1.07,
1.073,0.20,1.20,0.81,0.03,0.16,1.08,
1.074,0.23,1.19,0.87,0.03,0.16,1.08,
1.075,0.23,1.19,0.87,0.03,0.16,1.08,
1.078,0.23,1.19,0.87,0.02,0.16,1.08,
1.078,0.22,1.21,0.91,0.02,0.16,1.08,
1.08,0.22,1.21,0.91,0.02,0.16,1.08,
1.083,0.22,1.21,0.91,0.02,0.16,1.08,
1.083,0.19,1.20,0.92,0.02,0.16,1.08,
1.085,0.19,1.20,0.92,0.02,0.16,1.08,
1.093,0.19,1.20,0.92,0.01,0.16,1.08,
1.094,0.11,1.19,0.94,0.01,0.16,1.08,
1.094,0.11,1.19,0.94,0.01,0.16,1.08,
1.094,0.11,1.19,0.94,0.01,0.16,1.08,
1.094,0.09,1.18,0.93,0.01,0.16,1.08,
1.095,0.09,1.18,0.93,0.01,0.16,1.07,
1.097,0.09,1.18,0.93,0.01,0.16,1.07,
1.098,0.06,1.18,0.89,0.01,0.16,1.07,
1.1,0.06,1.18,0.89,0.01,0.16,1.07,
1.103,0.06,1.18,0.89,0.01,0.16,1.07,
1.103,0.04,1.17,0.84,0.01,0.16,1.07,
1.107,0.04,1.17,0.84,0.01,0.16,1.07,
1.108,0.04,1.17,0.84,0.00,0.16,1.07,
1.108,0.04,1.17,0.80,0.00,0.16,1.07,
1.11,0.04,1.17,0.80,0.01,0.16,1.06,
1.112,0.04,1.17,0.80,0.01,0.16,1.06,
1.113,0.03,1.19,0.76,0.01,0.16,1.06,
1.114,0.03,1.19,0.76,0.01,0.16,1.06,
1.117,0.03,1.19,0.76,0.01,0.16,1.06,
1.117,0.05,1.19,0.72,0.01,0.16,1.06,
1.119,0.05,1.19,0.72,0.01,0.16,1.06,
1.122,0.05,1.19,0.72,0.01,0.16,1.06,
1.122,0.08,1.20,0.69,0.01,0.16,1.06,
1.124,0.08,1.20,0.69,0.01,0.16,1.06,
1.127,0.08,1.20,0.69,0.01,0.16,1.06,
1.127,0.08,1.20,0.66,0.01,0.16,1.06,
1.129,0.08,1.20,0.66,0.01,0.16,1.06,
1.131,0.08,1.20,0.66,0.02,0.16,1.06,
1.132,0.12,1.19,0.65,0.02,0.16,1.06,
1.134,0.12,1.19,0.65,0.02,0.17,1.06,
1.136,0.12,1.19,0.65,0.03,0.17,1.06,
1.136,0.18,1.18,0.65,0.03,0.17,1.06,
1.139,0.18,1.18,0.65,0.03,0.17,1.06,
1.142,0.18,1.18,0.65,0.03,0.17,1.05,
1.142,0.26,1.20,0.65,0.03,0.17,1.05,
1.144,0.26,1.20,0.65,0.03,0.17,1.05,
1.146,0.26,1.20,0.65,0.03,0.17,1.05,
1.147,0.32,1.20,0.63,0.03,0.17,1.05,
1.148,0.32,1.20,0.63,0.04,0.17,1.05,
1.151,0.32,1.20,0.63,0.04,0.17,1.04,
1.151,0.36,1.20,0.60,0.04,0.17,1.04,
1.154,0.36,1.20,0.60,0.04,0.17,1.04,
1.156,0.36,1.20,0.60,0.04,0.16,1.04,
1.157,0.39,1.18,0.52,0.04,0.16,1.04,
1.158,0.39,1.18,0.52,0.04,0.16,1.03,
1.161,0.39,1.18,0.52,0.04,0.16,1.03,
1.161,0.41,1.14,0.46,0.04,0.16,1.03,
1.163,0.41,1.14,0.46,0.04,0.16,1.03,
1.166,0.43,1.11,0.39,0.04,0.16,1.03,
1.166,0.43,1.11,0.39,0.04,0.16,1.02,
1.168,0.43,1.11,0.39,0.04,0.16,1.02,
1.173,0.43,1.11,0.39,0.04,0.16,1.02,
1.173,0.43,1.06,0.31,0.04,0.16,1.02,
1.174,0.43,1.06,0.31,0.04,0.16,1.01,
1.176,0.43,1.06,0.31,0.04,0.15,1.01,
1.176,0.41,1.02,0.22,0.04,0.15,1.01,
1.178,0.41,1.02,0.22,0.04,0.15,1.00,
1.181,0.41,1.02,0.22,0.04,0.15,1.00,
1.181,0.40,0.98,0.18,0.04,0.15,1.00,
1.183,0.40,0.98,0.18,0.04,0.15,1.00,
1.185,0.42,0.91,0.09,0.04,0.15,1.00,
1.186,0.42,0.91,0.09,0.04,0.15,1.00,
1.188,0.42,0.91,0.09,0.04,0.14,1.00,
1.19,0.42,0.91,0.09,0.04,0.14,1.00,
1.191,0.40,0.86,0.06,0.04,0.14,1.00,
1.193,0.40,0.86,0.06,0.04,0.14,1.00,
1.195,0.40,0.86,0.06,0.04,0.13,0.99,
1.196,0.39,0.80,0.03,0.04,0.13,0.99,
1.198,0.39,0.80,0.03,0.04,0.13,0.99,
1.2,0.39,0.80,0.03,0.04,0.13,0.99,
1.2,0.40,0.73,0.00,0.04,0.13,0.99,
1.202,0.40,0.73,0.00,0.04,0.13,0.99,
1.208,0.40,0.73,0.00,0.04,0.13,0.99,
1.208,0.42,0.69,0.00,0.04,0.13,0.99,
1.209,0.42,0.69,0.00,0.04,0.13,1.00,
1.21,0.42,0.69,0.00,0.04,0.13,1.00,
1.21,0.43,0.65,-0.01,0.04,0.13,1.00,
1.212,0.43,0.65,-0.01,0.04,0.13,1.00,
1.215,0.43,0.65,-0.01,0.05,0.13,1.00,
1.215,0.45,0.62,0.02,0.05,0.13,1.00,
1.217,0.45,0.62,0.02,0.05,0.12,1.00,
1.22,0.45,0.62,0.02,0.05,0.12,1.00,
1.22,0.48,0.60,0.05,0.05,0.12,1.00,
1.222,0.48,0.60,0.05,0.05,0.12,1.00,
1.225,0.48,0.60,0.05,0.05,0.12,1.01,
1.225,0.52,0.56,0.08,0.05,0.12,1.01,
1.227,0.52,0.56,0.08,0.06,0.12,1.01,
1.229,0.52,0.56,0.08,0.06,0.12,1.01,
1.229,0.56,0.53,0.11,0.06,0.12,1.01,
1.232,0.56,0.53,0.11,0.06,0.12,1.02,
1.234,0.56,0.53,0.11,0.06,0.12,1.02,
1.234,0.59,0.50,0.17,0.06,0.12,1.02,
1.238,0.59,0.50,0.17,0.06,0.12,1.02,
1.239,0.59,0.50,0.17,0.06,0.11,1.02,
1.24,0.59,0.48,0.22,0.06,0.11,1.02,
1.242,0.59,0.48,0.22,0.06,0.11,1.02,
1.244,0.59,0.48,0.22,0.06,0.11,1.02,
1.245,0.59,0.45,0.25,0.06,0.11,1.02,
1.247,0.59,0.45,0.25,0.06,0.11,1.02,
1.249,0.59,0.45,0.25,0.07,0.11,1.02,
1.25,0.63,0.42,0.27,0.07,0.11,1.02,
1.251,0.63,0.42,0.27,0.07,0.10,1.02,
1.254,0.63,0.42,0.27,0.07,0.10,1.02,
1.255,0.65,0.36,0.26,0.07,0.10,1.02,
1.256,0.65,0.36,0.26,0.07,0.10,1.02,
1.259,0.65,0.36,0.26,0.07,0.10,1.01,
1.26,0.66,0.29,0.23,0.07,0.10,1.01,
1.261,0.66,0.29,0.23,0.07,0.09,1.01,
1.264,0.66,0.29,0.23,0.06,0.09,1.01,
1.264,0.64,0.25,0.19,0.06,0.09,1.01,
1.266,0.64,0.25,0.19,0.06,0.09,1.00,
1.269,0.64,0.18,0.13,0.06,0.09,1.00,
1.269,0.64,0.18,0.13,0.06,0.09,1.00,
1.271,0.64,0.18,0.13,0.06,0.09,0.99,
1.274,0.64,0.18,0.13,0.05,0.09,0.99,
1.275,0.59,0.16,0.05,0.05,0.09,0.99,
1.276,0.59,0.16,0.05,0.05,0.09,0.98,
1.278,0.59,0.16,0.05,0.04,0.09,0.98,
1.279,0.53,0.12,-0.05,0.04,0.09,0.98,
1.281,0.53,0.12,-0.05,0.04,0.09,0.98,
1.283,0.53,0.12,-0.05,0.04,0.08,0.97,
1.284,0.44,0.09,-0.12,0.04,0.08,0.97,
1.286,0.44,0.09,-0.12,0.03,0.08,0.97,
1.292,0.44,0.09,-0.12,0.03,0.08,0.97,
1.292,0.37,0.05,-0.19,0.03,0.08,0.97,
1.293,0.37,0.05,-0.19,0.03,0.08,0.96,
1.293,0.37,0.05,-0.19,0.03,0.08,0.96,
1.293,0.32,0.02,-0.26,0.03,0.08,0.96,
1.295,0.32,0.02,-0.26,0.02,0.08,0.96,
1.298,0.32,0.02,-0.26,0.02,0.07,0.96,
1.298,0.26,-0.04,-0.31,0.02,0.07,0.96,
1.301,0.26,-0.04,-0.31,0.02,0.07,0.96,
1.304,0.26,-0.04,-0.31,0.03,0.08,0.96,
1.305,0.22,-0.06,-0.33,0.03,0.08,0.96,
1.305,0.22,-0.06,-0.33,0.03,0.08,0.95,
1.308,0.22,-0.06,-0.33,0.03,0.07,0.95,
1.309,0.23,-0.07,-0.36,0.03,0.07,0.95,
1.311,0.23,-0.07,-0.36,0.03,0.08,0.95,
1.313,0.23,-0.07,-0.36,0.03,0.08,0.95,
1.313,0.26,-0.09,-0.38,0.03,0.08,0.95,
1.315,0.26,-0.09,-0.38,0.03,0.08,0.95,
1.318,0.26,-0.09,-0.38,0.03,0.08,0.95,
1.318,0.26,-0.07,-0.40,0.03,0.08,0.95,
1.32,0.26,-0.07,-0.40,0.03,0.08,0.95,
1.323,0.26,-0.07,-0.40,0.04,0.08,0.95,
1.323,0.26,-0.07,-0.41,0.04,0.08,0.95,
1.325,0.26,-0.07,-0.41,0.04,0.08,0.95,
1.327,0.26,-0.07,-0.41,0.04,0.08,0.95,
1.328,0.30,-0.06,-0.40,0.04,0.08,0.95,
1.33,0.30,-0.06,-0.40,0.04,0.09,0.95,
1.332,0.30,-0.06,-0.40,0.05,0.09,0.95,
1.333,0.34,-0.04,-0.40,0.05,0.09,0.95,
1.335,0.34,-0.04,-0.40,0.05,0.09,0.96,
1.338,0.37,-0.01,-0.37,0.05,0.09,0.96,
1.339,0.37,-0.01,-0.37,0.05,0.09,0.96,
1.34,0.37,-0.01,-0.37,0.05,0.09,0.96,
1.342,0.37,-0.01,-0.37,0.05,0.09,0.96,
1.342,0.41,0.01,-0.33,0.05,0.09,0.96,
1.344,0.41,0.01,-0.33,0.06,0.09,0.96,
1.347,0.41,0.01,-0.33,0.06,0.09,0.96,
1.347,0.42,0.02,-0.31,0.06,0.09,0.96,
1.35,0.42,0.02,-0.31,0.06,0.09,0.96,
1.352,0.42,0.02,-0.31,0.06,0.09,0.97,
1.353,0.46,0.03,-0.27,0.06,0.09,0.97,
1.354,0.46,0.03,-0.27,0.06,0.09,0.97,
1.357,0.46,0.03,-0.27,0.06,0.10,0.97,
1.357,0.47,0.02,-0.24,0.06,0.10,0.97,
1.359,0.47,0.02,-0.24,0.06,0.09,0.97,
1.362,0.47,0.02,-0.24,0.06,0.09,0.97,
1.362,0.47,0.02,-0.21,0.06,0.09,0.97,
1.364,0.47,0.02,-0.21,0.05,0.09,0.97,
1.367,0.47,0.02,-0.21,0.05,0.09,0.97,
1.367,0.46,0.00,-0.21,0.05,0.09,0.97,
1.371,0.46,0.00,-0.21,0.05,0.09,0.97,
1.372,0.46,0.00,-0.21,0.05,0.09,0.97,
1.372,0.41,-0.02,-0.20,0.05,0.09,0.97,
1.374,0.41,-0.02,-0.20,0.04,0.09,0.97,
1.376,0.41,-0.02,-0.20,0.04,0.08,0.96,
1.377,0.33,-0.05,-0.22,0.04,0.08,0.96,
1.379,0.33,-0.05,-0.22,0.03,0.08,0.96,
1.381,0.33,-0.05,-0.22,0.03,0.08,0.95,
1.382,0.26,-0.11,-0.24,0.03,0.08,0.95,
1.384,0.26,-0.11,-0.24,0.02,0.08,0.95,
1.387,0.26,-0.11,-0.24,0.02,0.07,0.95,
1.387,0.14,-0.17,-0.31,0.02,0.07,0.95,
1.389,0.14,-0.17,-0.31,0.01,0.07,0.95,
1.391,0.14,-0.17,-0.31,0.01,0.07,0.95,
1.392,0.04,-0.21,-0.34,0.01,0.07,0.95,
1.393,0.04,-0.21,-0.34,0.00,0.07,0.95,
1.396,0.04,-0.21,-0.34,-0.00,0.07,0.94,
1.396,-0.04,-0.26,-0.37,-0.00,0.07,0.94,
1.398,-0.04,-0.26,-0.37,-0.00,0.06,0.94,
1.401,-0.04,-0.26,-0.37,-0.00,0.06,0.94,
1.401,-0.13,-0.30,-0.41,-0.00,0.06,0.94,
1.408,-0.13,-0.30,-0.41,-0.01,0.06,0.95,
1.409,-0.13,-0.30,-0.41,-0.01,0.06,0.95,
1.409,-0.17,-0.34,-0.42,-0.01,0.06,0.95,
1.409,-0.17,-0.34,-0.42,-0.01,0.06,0.95,
1.411,-0.17,-0.34,-0.42,-0.01,0.06,0.95,
1.411,-0.22,-0.35,-0.38,-0.01,0.06,0.95,
1.413,-0.22,-0.35,-0.38,-0.01,0.06,0.95,
1.415,-0.22,-0.35,-0.38,-0.01,0.06,0.95,
1.416,-0.24,-0.38,-0.35,-0.01,0.06,0.95,
1.418,-0.24,-0.38,-0.35,-0.01,0.06,0.95,
1.421,-0.24,-0.38,-0.35,-0.00,0.06,0.95,
1.421,-0.25,-0.36,-0.34,-0.00,0.06,0.95,
1.423,-0.25,-0.36,-0.34,-0.00,0.07,0.96,
1.425,-0.25,-0.36,-0.34,0.00,0.07,0.96,
1.426,-0.21,-0.36,-0.32,0.00,0.07,0.96,
1.428,-0.21,-0.36,-0.32,0.00,0.07,0.96,
1.43,-0.21,-0.36,-0.32,0.01,0.07,0.96,
1.43,-0.16,-0.33,-0.27,0.01,0.07,0.96,
1.432,-0.16,-0.33,-0.27,0.01,0.07,0.96,
1.435,-0.16,-0.33,-0.27,0.02,0.08,0.96,
1.435,-0.12,-0.31,-0.26,0.02,0.08,0.96,
1.438,-0.12,-0.31,-0.26,0.02,0.08,0.96,
1.44,-0.12,-0.31,-0.26,0.03,0.08,0.96,
1.441,-0.03,-0.28,-0.21,0.03,0.08,0.96,
1.442,-0.03,-0.28,-0.21,0.03,0.08,0.96,
1.445,-0.03,-0.28,-0.21,0.03,0.08,0.96,
1.445,0.06,-0.25,-0.19,0.03,0.08,0.96,
1.447,0.06,-0.25,-0.19,0.03,0.08,0.97,
1.45,0.06,-0.25,-0.19,0.03,0.08,0.96,
1.45,0.09,-0.24,-0.18,0.03,0.08,0.96,
1.453,0.09,-0.24,-0.18,0.03,0.08,0.96,
1.455,0.09,-0.24,-0.18,0.03,0.08,0.96,
1.456,0.09,-0.22,-0.17,0.03,0.08,0.96,
1.458,0.09,-0.22,-0.17,0.03,0.08,0.96,
1.46,0.09,-0.22,-0.17,0.03,0.08,0.97,
1.46,0.08,-0.22,-0.18,0.03,0.08,0.97,
1.462,0.08,-0.22,-0.18,0.02,0.08,0.96,
1.464,0.08,-0.22,-0.18,0.02,0.08,0.96,
1.465,0.07,-0.25,-0.17,0.02,0.08,0.96,
1.467,0.07,-0.25,-0.17,0.02,0.08,0.96,
1.47,0.07,-0.25,-0.17,0.02,0.08,0.96,
1.471,-0.02,-0.27,-0.18,0.02,0.08,0.96,
1.472,-0.02,-0.27,-0.18,0.02,0.08,0.96,
1.474,-0.02,-0.27,-0.18,0.01,0.08,0.96,
1.475,-0.08,-0.29,-0.18,0.01,0.08,0.96,
1.477,-0.08,-0.29,-0.18,0.01,0.07,0.96,
1.479,-0.08,-0.29,-0.18,0.01,0.07,0.96,
1.479,-0.11,-0.30,-0.19,0.01,0.07,0.96,
1.482,-0.11,-0.30,-0.19,0.01,0.07,0.96,
1.484,-0.11,-0.30,-0.19,0.01,0.07,0.96,
1.485,-0.16,-0.35,-0.20,0.01,0.07,0.96,
1.487,-0.16,-0.35,-0.20,0.01,0.07,0.96,
1.489,-0.16,-0.35,-0.20,0.01,0.07,0.96,
1.49,-0.18,-0.39,-0.19,0.01,0.07,0.96,
1.492,-0.18,-0.39,-0.19,0.01,0.07,0.96,
1.494,-0.18,-0.39,-0.19,0.01,0.07,0.96,
1.494,-0.20,-0.41,-0.18,0.01,0.07,0.96,
1.496,-0.20,-0.41,-0.18,0.01,0.07,0.97,
1.499,-0.20,-0.41,-0.18,0.02,0.07,0.97,
1.499,-0.19,-0.41,-0.18,0.02,0.07,0.97,
1.501,-0.19,-0.41,-0.18,0.02,0.07,0.97,
1.508,-0.19,-0.41,-0.18,0.02,0.07,0.97,
1.508,-0.15,-0.41,-0.13,0.02,0.07,0.97,
1.508,-0.15,-0.41,-0.13,0.02,0.07,0.97,
1.509,-0.15,-0.41,-0.13,0.02,0.07,0.98,
1.509,-0.12,-0.40,-0.11,0.02,0.07,0.98,
1.511,-0.12,-0.40,-0.11,0.02,0.07,0.98,
1.513,-0.12,-0.40,-0.11,0.02,0.07,0.98,
1.514,-0.08,-0.38,-0.06,0.02,0.07,0.98,
1.516,-0.08,-0.38,-0.06,0.02,0.07,0.98,
1.519,-0.08,-0.38,-0.06,0.03,0.07,0.99,
1.519,-0.08,-0.38,0.00,0.03,0.07,0.99,
1.521,-0.08,-0.38,0.00,0.02,0.07,0.99,
1.523,-0.08,-0.38,0.00,0.02,0.07,0.99,
1.524,-0.07,-0.39,0.05,0.02,0.07,0.99,
1.526,-0.07,-0.39,0.05,0.02,0.07,0.99,
1.528,-0.07,-0.39,0.05,0.02,0.07,1.00,
1.528,-0.10,-0.40,0.10,0.02,0.07,1.00,
1.53,-0.10,-0.40,0.10,0.01,0.07,1.00,
1.533,-0.10,-0.40,0.10,0.01,0.06,1.00,
1.533,-0.13,-0.41,0.14,0.01,0.06,1.00,
1.536,-0.13,-0.41,0.14,0.01,0.07,1.00,
1.538,-0.13,-0.41,0.14,0.00,0.06,1.00,
1.538,-0.19,-0.45,0.18,0.00,0.06,1.00,
1.541,-0.19,-0.45,0.18,0.00,0.06,1.01,
1.543,-0.19,-0.45,0.18,-0.00,0.06,1.01,
1.543,-0.26,-0.46,0.21,-0.00,0.06,1.01,
1.545,-0.26,-0.46,0.21,-0.01,0.06,1.01,
1.548,-0.26,-0.46,0.21,-0.01,0.06,1.01,
1.548,-0.32,-0.50,0.25,-0.01,0.06,1.01,
1.55,-0.32,-0.50,0.25,-0.01,0.06,1.01,
1.553,-0.32,-0.50,0.25,-0.01,0.06,1.01,
1.553,-0.38,-0.52,0.27,-0.01,0.06,1.01,
1.555,-0.38,-0.52,0.27,-0.02,0.06,1.01,
1.558,-0.38,-0.52,0.27,-0.02,0.05,1.01,
1.558,-0.44,-0.53,0.28,-0.02,0.05,1.01,
1.56,-0.44,-0.53,0.28,-0.02,0.05,1.01,
1.562,-0.44,-0.53,0.28,-0.02,0.05,1.01,
1.563,-0.47,-0.54,0.27,-0.02,0.05,1.01,
1.565,-0.47,-0.54,0.27,-0.02,0.05,1.01,
1.568,-0.47,-0.54,0.27,-0.02,0.06,1.00,
1.568,-0.49,-0.56,0.26,-0.02,0.06,1.00,
1.57,-0.49,-0.56,0.26,-0.02,0.06,1.00,
1.572,-0.49,-0.56,0.26,-0.02,0.06,1.00,
1.573,-0.49,-0.54,0.24,-0.02,0.06,1.00,
1.575,-0.49,-0.54,0.24,-0.02,0.06,1.00,
1.577,-0.49,-0.54,0.24,-0.02,0.06,1.00,
1.578,-0.48,-0.52,0.21,-0.02,0.06,1.00,
1.579,-0.48,-0.52,0.21,-0.02,0.06,0.99,
1.582,-0.48,-0.52,0.21,-0.01,0.07,0.99,
1.583,-0.46,-0.50,0.15,-0.01,0.07,0.99,
1.584,-0.46,-0.50,0.15,-0.01,0.07,0.98,
1.591,-0.46,-0.50,0.15,-0.01,0.07,0.98,
1.591,-0.43,-0.46,0.07,-0.01,0.07,0.98,
1.592,-0.43,-0.46,0.07,-0.01,0.07,0.97,
1.592,-0.43,-0.46,0.07,-0.00,0.07,0.97,
1.592,-0.39,-0.42,-0.00,-0.00,0.07,0.97,
1.594,-0.39,-0.42,-0.00,-0.01,0.07,0.97,
1.597,-0.39,-0.42,-0.00,-0.00,0.07,0.96,
1.597,-0.33,-0.41,-0.08,-0.00,0.07,0.96,
1.599,-0.33,-0.41,-0.08,0.00,0.07,0.96,
1.604,-0.33,-0.41,-0.08,0.01,0.07,0.96,
1.604,-0.30,-0.42,-0.16,0.01,0.07,0.96,
1.605,-0.30,-0.42,-0.16,0.00,0.07,0.95,
1.607,-0.30,-0.42,-0.16,0.01,0.07,0.95,
1.607,-0.23,-0.41,-0.23,0.01,0.07,0.95,
1.609,-0.23,-0.41,-0.23,0.00,0.07,0.95,
1.611,-0.23,-0.41,-0.23,0.00,0.07,0.94,
1.612,-0.22,-0.39,-0.27,0.00,0.07,0.94,
1.614,-0.22,-0.39,-0.27,0.00,0.07,0.94,
1.616,-0.24,-0.39,-0.35,0.00,0.07,0.94,
1.617,-0.24,-0.39,-0.35,0.00,0.07,0.94,
1.621,-0.24,-0.39,-0.35,0.00,0.07,0.94,
1.621,-0.24,-0.39,-0.35,0.00,0.07,0.94,
1.622,-0.23,-0.40,-0.38,0.00,0.07,0.94,
1.624,-0.23,-0.40,-0.38,0.00,0.07,0.94,
1.626,-0.23,-0.40,-0.38,-0.00,0.07,0.94,
1.626,-0.26,-0.42,-0.40,-0.00,0.07,0.94,
1.628,-0.26,-0.42,-0.40,-0.00,0.07,0.94,
1.631,-0.26,-0.42,-0.40,-0.00,0.07,0.94,
1.631,-0.28,-0.43,-0.40,-0.00,0.07,0.94,
1.633,-0.28,-0.43,-0.40,-0.00,0.07,0.94,
1.636,-0.28,-0.43,-0.40,-0.01,0.07,0.94,
1.636,-0.30,-0.45,-0.39,-0.01,0.07,0.94,
1.638,-0.30,-0.45,-0.39,-0.01,0.07,0.95,
1.641,-0.30,-0.45,-0.39,-0.01,0.07,0.95,
1.641,-0.33,-0.45,-0.33,-0.01,0.07,0.95,
1.643,-0.33,-0.45,-0.33,-0.01,0.07,0.96,
1.646,-0.33,-0.45,-0.33,-0.01,0.07,0.96,
1.646,-0.38,-0.47,-0.27,-0.01,0.07,0.96,
1.648,-0.38,-0.47,-0.27,-0.02,0.07,0.96,
1.651,-0.38,-0.47,-0.27,-0.02,0.07,0.97,
1.651,-0.41,-0.47,-0.19,-0.02,0.07,0.97,
1.653,-0.41,-0.47,-0.19,-0.02,0.07,0.97,
1.656,-0.41,-0.47,-0.19,-0.01,0.07,0.98,
1.656,-0.44,-0.48,-0.10,-0.01,0.07,0.98,
1.658,-0.44,-0.48,-0.10,-0.02,0.07,0.98,
1.661,-0.44,-0.48,-0.10,-0.02,0.07,0.99,
1.661,-0.43,-0.48,-0.00,-0.02,0.07,0.99,
1.663,-0.43,-0.48,-0.00,-0.01,0.07,0.99,
1.665,-0.43,-0.48,-0.00,-0.01,0.07,0.99,
1.666,-0.43,-0.47,0.07,-0.01,0.07,0.99,
1.668,-0.43,-0.47,0.07,-0.01,0.07,1.00,
1.671,-0.43,-0.47,0.07,-0.01,0.07,1.00,
1.671,-0.40,-0.46,0.14,-0.01,0.07,1.00,
1.673,-0.40,-0.46,0.14,-0.01,0.07,1.00,
1.675,-0.40,-0.46,0.14,-0.01,0.07,1.00,
1.676,-0.36,-0.44,0.19,-0.01,0.07,1.00,
1.678,-0.36,-0.44,0.19,-0.01,0.07,1.00,
1.68,-0.36,-0.44,0.19,-0.00,0.07,1.00,
1.68,-0.33,-0.43,0.25,-0.00,0.07,1.00,
1.682,-0.33,-0.43,0.25,-0.00,0.07,1.00,
1.69,-0.32,-0.43,0.25,-0.00,0.07,1.00,
1.691,-0.32,-0.43,0.25,-0.00,0.07,1.00,
1.691,-0.32,-0.43,0.25,-0.00,0.08,0.99,
1.691,-0.32,-0.43,0.25,-0.00,0.08,0.99,
1.692,-0.30,-0.41,0.21,-0.00,0.08,0.99,
1.692,-0.30,-0.41,0.21,-0.00,0.08,0.99,
1.695,-0.30,-0.41,0.21,-0.00,0.08,0.99,
1.695,-0.31,-0.40,0.16,-0.00,0.08,0.99,
1.697,-0.31,-0.40,0.16,-0.00,0.08,0.98,
1.699,-0.31,-0.40,0.16,-0.01,0.08,0.98,
1.7,-0.30,-0.39,0.12,-0.01,0.08,0.98,
1.702,-0.30,-0.39,0.12,-0.01,0.07,0.98,
1.704,-0.30,-0.39,0.12,-0.01,0.07,0.97,
1.704,-0.32,-0.40,0.03,-0.01,0.07,0.97,
1.707,-0.32,-0.40,0.03,-0.01,0.07,0.97,
1.709,-0.32,-0.40,0.03,-0.01,0.07,0.96,
1.71,-0.33,-0.43,-0.04,-0.01,0.07,0.96,
1.712,-0.33,-0.43,-0.04,-0.01,0.07,0.96,
1.714,-0.33,-0.43,-0.04,-0.01,0.07,0.96,
1.714,-0.33,-0.44,-0.10,-0.01,0.07,0.96,
1.716,-0.33,-0.44,-0.10,-0.01,0.07,0.96,
1.719,-0.33,-0.44,-0.10,-0.01,0.07,0.96,
1.72,-0.34,-0.45,-0.14,-0.01,0.07,0.96,
1.722,-0.34,-0.45,-0.14,-0.01,0.07,0.96,
1.724,-0.34,-0.45,-0.14,-0.01,0.07,0.96,
1.724,-0.36,-0.48,-0.14,-0.01,0.07,0.96,
1.727,-0.36,-0.48,-0.14,-0.01,0.07,0.97,
1.729,-0.36,-0.48,-0.14,-0.02,0.07,0.97,
1.729,-0.37,-0.49,-0.12,-0.02,0.07,0.97,
1.731,-0.37,-0.49,-0.12,-0.02,0.07,0.97,
1.734,-0.37,-0.49,-0.12,-0.02,0.06,0.98,
1.734,-0.40,-0.51,-0.07,-0.02,0.06,0.98,
1.736,-0.40,-0.51,-0.07,-0.02,0.06,0.98,
1.739,-0.40,-0.51,-0.07,-0.02,0.06,0.98,
1.739,-0.43,-0.52,-0.02,-0.02,0.06,0.98,
1.741,-0.43,-0.52,-0.02,-0.03,0.06,0.99,
1.744,-0.43,-0.52,-0.02,-0.03,0.06,0.99,
1.744,-0.46,-0.53,0.05,-0.03,0.06,0.99,
1.748,-0.46,-0.53,0.05,-0.02,0.06,0.99,
1.749,-0.46,-0.53,0.05,-0.02,0.06,0.99,
1.749,-0.50,-0.56,0.11,-0.02,0.06,0.99,
1.752,-0.50,-0.56,0.11,-0.02,0.06,0.99,
1.754,-0.50,-0.56,0.11,-0.02,0.06,0.99,
1.754,-0.48,-0.55,0.12,-0.02,0.06,0.99,
1.756,-0.48,-0.55,0.12,-0.02,0.06,0.99,
1.758,-0.48,-0.55,0.12,-0.02,0.06,0.99,
1.759,-0.46,-0.57,0.15,-0.02,0.06,0.99,
1.761,-0.46,-0.57,0.15,-0.02,0.06,0.99,
1.764,-0.46,-0.57,0.15,-0.02,0.06,0.99,
1.764,-0.46,-0.57,0.15,-0.02,0.06,0.99,
1.766,-0.46,-0.57,0.15,-0.02,0.06,0.99,
1.769,-0.43,-0.58,0.14,-0.02,0.06,0.99,
1.77,-0.43,-0.58,0.14,-0.02,0.06,0.99,
1.771,-0.43,-0.58,0.14,-0.02,0.06,0.99,
1.774,-0.43,-0.58,0.14,-0.02,0.06,0.99,
1.774,-0.41,-0.58,0.13,-0.02,0.06,0.99,
1.775,-0.41,-0.58,0.13,-0.02,0.06,0.99,
1.778,-0.41,-0.58,0.13,-0.01,0.06,0.99,
1.778,-0.40,-0.58,0.12,-0.01,0.06,0.99,
1.781,-0.40,-0.58,0.12,-0.01,0.06,0.99,
1.783,-0.40,-0.58,0.12,-0.01,0.06,0.98,
1.783,-0.36,-0.55,0.09,-0.01,0.06,0.98,
1.785,-0.36,-0.55,0.09,-0.01,0.06,0.98,
1.788,-0.36,-0.55,0.09,-0.01,0.06,0.98,
1.788,-0.34,-0.56,0.07,-0.01,0.06,0.98,
1.79,-0.34,-0.56,0.07,-0.01,0.06,0.98,
1.793,-0.34,-0.56,0.07,-0.02,0.06,0.97,
1.796,-0.33,-0.57,0.03,-0.02,0.06,0.97,
1.796,-0.33,-0.57,0.03,-0.02,0.06,0.97,
1.798,-0.33,-0.57,0.03,-0.02,0.06,0.97,
1.798,-0.34,-0.58,-0.00,-0.02,0.06,0.97,
1.8,-0.34,-0.58,-0.00,-0.02,0.06,0.97,
1.806,-0.34,-0.58,-0.00,-0.02,0.06,0.97,
1.807,-0.36,-0.60,-0.06,-0.02,0.06,0.97,
1.807,-0.36,-0.60,-0.06,-0.02,0.05,0.96,
1.808,-0.36,-0.60,-0.06,-0.02,0.05,0.96,
1.808,-0.37,-0.59,-0.10,-0.02,0.05,0.96,
1.81,-0.37,-0.59,-0.10,-0.02,0.05,0.96,
1.812,-0.37,-0.59,-0.10,-0.02,0.05,0.96,
1.813,-0.38,-0.62,-0.14,-0.02,0.05,0.96,
1.815,-0.38,-0.62,-0.14,-0.02,0.06,0.96,
1.818,-0.38,-0.62,-0.14,-0.02,0.05,0.96,
1.818,-0.39,-0.63,-0.17,-0.02,0.05,0.96,
1.821,-0.39,-0.63,-0.17,-0.02,0.05,0.96,
1.822,-0.39,-0.63,-0.17,-0.02,0.06,0.96,
1.823,-0.37,-0.61,-0.18,-0.02,0.06,0.96,
1.824,-0.37,-0.61,-0.18,-0.02,0.06,0.96,
1.827,-0.37,-0.61,-0.18,-0.01,0.06,0.96,
1.827,-0.35,-0.60,-0.17,-0.01,0.06,0.96,
1.829,-0.35,-0.60,-0.17,-0.01,0.06,0.96,
1.832,-0.35,-0.60,-0.17,-0.01,0.06,0.96,
1.832,-0.33,-0.57,-0.14,-0.01,0.06,0.96,
1.834,-0.33,-0.57,-0.14,-0.01,0.06,0.97,
1.837,-0.33,-0.57,-0.14,-0.00,0.06,0.97,
1.837,-0.26,-0.55,-0.12,-0.00,0.06,0.97,
1.839,-0.26,-0.55,-0.12,-0.00,0.06,0.97,
1.842,-0.26,-0.55,-0.12,0.00,0.06,0.98,
1.842,-0.21,-0.53,-0.07,0.00,0.06,0.98,
1.844,-0.21,-0.53,-0.07,0.00,0.07,0.98,
1.846,-0.21,-0.53,-0.07,0.00,0.07,0.98,
1.847,-0.16,-0.50,-0.00,0.00,0.07,0.98,
1.849,-0.16,-0.50,-0.00,0.01,0.07,0.98,
1.851,-0.16,-0.50,-0.00,0.01,0.07,0.99,
1.852,-0.12,-0.48,0.05,0.01,0.07,0.99,
1.854,-0.12,-0.48,0.05,0.01,0.07,0.99,
1.856,-0.12,-0.48,0.05,0.01,0.07,0.99,
1.857,-0.10,-0.47,0.08,0.01,0.07,0.99,
1.859,-0.10,-0.47,0.08,0.01,0.07,0.99,
1.861,-0.07,-0.45,0.11,0.01,0.07,0.99,
1.861,-0.07,-0.45,0.11,0.01,0.07,0.99,
1.863,-0.07,-0.45,0.11,0.01,0.07,0.99,
1.866,-0.08,-0.45,0.13,0.01,0.07,0.99,
1.867,-0.08,-0.45,0.13,0.01,0.07,0.99,
1.869,-0.08,-0.45,0.13,0.01,0.07,0.99,
1.872,-0.08,-0.45,0.13,0.00,0.06,0.99,
1.872,-0.10,-0.47,0.15,0.00,0.06,0.99,
1.874,-0.10,-0.47,0.15,0.00,0.06,0.99,
1.876,-0.10,-0.47,0.15,0.00,0.06,0.99,
1.876,-0.11,-0.48,0.17,0.00,0.06,0.99,
1.878,-0.11,-0.48,0.17,-0.00,0.06,0.99,
1.881,-0.11,-0.48,0.17,-0.01,0.06,0.99,
1.881,-0.13,-0.51,0.16,-0.01,0.06,0.99,
1.883,-0.13,-0.51,0.16,-0.01,0.06,0.99,
1.89,-0.13,-0.51,0.16,-0.01,0.06,0.99,
1.89,-0.18,-0.53,0.16,-0.01,0.06,0.99,
1.89,-0.18,-0.53,0.16,-0.01,0.06,0.99,
1.891,-0.18,-0.53,0.16,-0.01,0.06,0.99,
1.891,-0.22,-0.56,0.12,-0.01,0.06,0.99,
1.893,-0.22,-0.56,0.12,-0.02,0.06,0.98,
1.896,-0.22,-0.56,0.12,-0.02,0.06,0.98,
1.896,-0.26,-0.56,0.10,-0.02,0.06,0.98,
1.898,-0.26,-0.56,0.10,-0.01,0.05,0.98,
1.903,-0.26,-0.56,0.10,-0.01,0.05,0.98,
1.904,-0.28,-0.57,0.05,-0.01,0.05,0.98,
1.904,-0.28,-0.57,0.05,-0.01,0.05,0.98,
1.905,-0.28,-0.57,0.05,-0.01,0.05,0.98,
1.906,-0.25,-0.58,0.03,-0.01,0.05,0.98,
1.908,-0.25,-0.58,0.03,-0.01,0.05,0.98,
1.91,-0.25,-0.58,0.03,-0.01,0.06,0.98,
1.91,-0.24,-0.59,0.02,-0.01,0.06,0.98,
1.912,-0.24,-0.59,0.02,-0.01,0.06,0.98,
1.915,-0.24,-0.59,0.02,-0.00,0.06,0.97,
1.915,-0.23,-0.56,0.01,-0.00,0.06,0.97,
1.918,-0.23,-0.56,0.01,-0.00,0.06,0.97,
1.92,-0.23,-0.56,0.01,-0.00,0.06,0.98,
1.92,-0.18,-0.54,-0.01,-0.00,0.06,0.98,
1.923,-0.18,-0.54,-0.01,0.00,0.06,0.97,
1.925,-0.18,-0.54,-0.01,0.00,0.07,0.97,
1.925,-0.13,-0.50,-0.01,0.00,0.07,0.97,
1.927,-0.13,-0.50,-0.01,0.01,0.07,0.97,
1.93,-0.13,-0.50,-0.01,0.01,0.07,0.97,
1.93,-0.08,-0.46,-0.02,0.01,0.07,0.97,
1.932,-0.08,-0.46,-0.02,0.01,0.07,0.97,
1.935,-0.04,-0.44,-0.05,0.01,0.07,0.97,
1.935,-0.04,-0.44,-0.05,0.01,0.07,0.97,
1.937,-0.04,-0.44,-0.05,0.01,0.07,0.97,
1.94,-0.04,-0.44,-0.05,0.01,0.07,0.96,
1.94,-0.04,-0.42,-0.07,0.01,0.07,0.96,
1.942,-0.04,-0.42,-0.07,0.01,0.07,0.96,
1.944,-0.04,-0.42,-0.07,0.01,0.07,0.96,
1.945,-0.02,-0.41,-0.12,0.01,0.07,0.96,
1.947,-0.02,-0.41,-0.12,0.01,0.07,0.96,
1.95,-0.02,-0.41,-0.12,0.01,0.07,0.96,
1.95,-0.03,-0.40,-0.16,0.01,0.07,0.96,
1.952,-0.03,-0.40,-0.16,0.01,0.07,0.96,
1.954,-0.03,-0.40,-0.16,0.00,0.07,0.96,
1.955,-0.04,-0.41,-0.17,0.00,0.07,0.96,
1.957,-0.04,-0.41,-0.17,0.01,0.07,0.96,
1.959,-0.04,-0.41,-0.17,0.00,0.07,0.96,
1.959,-0.04,-0.41,-0.18,0.00,0.07,0.96,
1.961,-0.04,-0.41,-0.18,0.00,0.07,0.96,
1.964,-0.04,-0.41,-0.18,0.00,0.06,0.96,
1.964,-0.04,-0.44,-0.19,0.00,0.06,0.96,
1.966,-0.04,-0.44,-0.19,-0.00,0.06,0.96,
1.97,-0.04,-0.44,-0.19,-0.00,0.06,0.96,
1.97,-0.06,-0.46,-0.18,-0.00,0.06,0.96,
1.971,-0.06,-0.46,-0.18,-0.01,0.06,0.96,
1.974,-0.06,-0.46,-0.18,-0.01,0.06,0.96,
1.974,-0.12,-0.49,-0.14,-0.01,0.06,0.96,
1.976,-0.12,-0.49,-0.14,-0.01,0.06,0.96,
1.979,-0.12,-0.49,-0.14,-0.02,0.06,0.96,
1.979,-0.17,-0.52,-0.12,-0.02,0.06,0.96,
1.981,-0.17,-0.52,-0.12,-0.02,0.05,0.97,
1.989,-0.17,-0.52,-0.12,-0.02,0.05,0.97,
1.99,-0.22,-0.54,-0.11,-0.02,0.05,0.97,
1.99,-0.22,-0.54,-0.11,-0.02,0.05,0.97,
1.99,-0.22,-0.54,-0.11,-0.02,0.05,0.97,
1.991,-0.28,-0.58,-0.07,-0.02,0.05,0.97,
1.991,-0.28,-0.58,-0.07,-0.03,0.05,0.97,
1.993,-0.28,-0.58,-0.07,-0.03,0.05,0.98,
1.994,-0.31,-0.59,-0.02,-0.03,0.05,0.98,
1.996,-0.31,-0.59,-0.02,-0.03,0.05,0.98,
1.998,-0.31,-0.59,-0.02,-0.03,0.05,0.98,
1.998,-0.32,-0.59,0.01,-0.03,0.05,0.98,
2.003,-0.32,-0.59,0.01,-0.03,0.05,0.98,
2.004,-0.32,-0.59,0.01,-0.03,0.05,0.98,
2.004,-0.34,-0.59,0.04,-0.03,0.05,0.98,
2.006,-0.34,-0.59,0.04,-0.03,0.05,0.98,
2.008,-0.34,-0.59,0.04,-0.03,0.05,0.98,
2.008,-0.33,-0.58,0.07,-0.03,0.05,0.98,
2.01,-0.33,-0.58,0.07,-0.03,0.05,0.99,
2.013,-0.33,-0.58,0.07,-0.03,0.06,0.99,
2.013,-0.34,-0.56,0.09,-0.03,0.06,0.99,
2.015,-0.34,-0.56,0.09,-0.02,0.06,0.99,
2.018,-0.34,-0.56,0.09,-0.02,0.06,0.99,
2.018,-0.32,-0.53,0.12,-0.02,0.06,0.99,
2.02,-0.32,-0.53,0.12,-0.02,0.06,0.99,
2.023,-0.32,-0.53,0.12,-0.02,0.06,0.98,
2.023,-0.28,-0.50,0.11,-0.02,0.06,0.98,
2.025,-0.28,-0.50,0.11,-0.02,0.06,0.98,
2.028,-0.28,-0.50,0.11,-0.02,0.06,0.98,
2.028,-0.26,-0.48,0.10,-0.02,0.06,0.98,
2.03,-0.26,-0.48,0.10,-0.02,0.07,0.98,
2.032,-0.26,-0.48,0.10,-0.02,0.07,0.98,
2.033,-0.22,-0.43,0.07,-0.02,0.07,0.98,
2.035,-0.22,-0.43,0.07,-0.02,0.07,0.98,
2.038,-0.22,-0.43,0.07,-0.01,0.07,0.98,
2.038,-0.21,-0.39,0.06,-0.01,0.07,0.98,
2.04,-0.21,-0.39,0.06,-0.01,0.07,0.97,
2.042,-0.21,-0.39,0.06,-0.01,0.07,0.97,
2.042,-0.18,-0.35,0.04,-0.01,0.07,0.97,
2.045,-0.18,-0.35,0.04,-0.01,0.08,0.97,
2.047,-0.18,-0.35,0.04,-0.01,0.07,0.97,
2.047,-0.13,-0.32,-0.04,-0.01,0.07,0.97,
2.05,-0.13,-0.32,-0.04,-0.01,0.08,0.97,
2.053,-0.13,-0.32,-0.04,-0.01,0.08,0.97,
2.054,-0.12,-0.31,-0.07,-0.01,0.08,0.97,
2.055,-0.12,-0.31,-0.07,-0.01,0.08,0.97,
2.057,-0.12,-0.31,-0.07,-0.01,0.08,0.97,
2.057,-0.11,-0.29,-0.09,-0.01,0.08,0.97,
2.059,-0.11,-0.29,-0.09,-0.01,0.08,0.97,
2.062,-0.11,-0.29,-0.09,-0.01,0.08,0.97,
2.062,-0.10,-0.27,-0.08,-0.01,0.08,0.97,
2.064,-0.10,-0.27,-0.08,-0.01,0.08,0.97,
2.068,-0.10,-0.27,-0.08,-0.01,0.08,0.97,
2.068,-0.11,-0.25,-0.09,-0.01,0.08,0.97,
2.069,-0.11,-0.25,-0.09,-0.01,0.08,0.97,
2.072,-0.11,-0.25,-0.09,-0.01,0.08,0.97,
2.073,-0.13,-0.23,-0.08,-0.01,0.08,0.97,
2.074,-0.13,-0.23,-0.08,-0.01,0.08,0.97,
2.077,-0.13,-0.23,-0.08,-0.01,0.09,0.97,
2.077,-0.11,-0.21,-0.09,-0.01,0.09,0.97,
2.079,-0.11,-0.21,-0.09,-0.02,0.09,0.97,
2.082,-0.11,-0.21,-0.09,-0.02,0.09,0.98,
2.082,-0.13,-0.20,-0.06,-0.02,0.09,0.98,
2.084,-0.13,-0.20,-0.06,-0.01,0.09,0.98,
2.087,-0.13,-0.20,-0.06,-0.01,0.09,0.98,
2.087,-0.14,-0.18,-0.00,-0.01,0.09,0.98,
2.089,-0.14,-0.18,-0.00,-0.01,0.09,0.98,
2.091,-0.14,-0.18,-0.00,-0.01,0.09,0.98,
2.092,-0.11,-0.17,0.04,-0.01,0.09,0.98,
2.094,-0.11,-0.17,0.04,-0.01,0.09,0.98,
2.096,-0.11,-0.17,0.04,-0.01,0.09,0.99,
2.096,-0.09,-0.15,0.06,-0.01,0.09,0.99,
2.099,-0.09,-0.15,0.06,-0.01,0.09,0.99,
2.105,-0.09,-0.15,0.06,-0.01,0.09,0.99,
2.105,-0.06,-0.14,0.09,-0.01,0.09,0.99,
2.106,-0.06,-0.14,0.09,-0.01,0.09,0.99,
2.106,-0.06,-0.14,0.09,-0.01,0.09,0.99,
2.107,-0.03,-0.11,0.13,-0.01,0.09,0.99,
2.108,-0.03,-0.11,0.13,-0.01,0.10,0.99,
2.111,-0.03,-0.11,0.13,-0.01,0.09,0.99,
2.111,-0.03,-0.10,0.16,-0.01,0.09,0.99,
2.113,-0.03,-0.10,0.16,-0.01,0.10,0.99,
2.116,-0.03,-0.10,0.16,-0.01,0.10,0.99,
2.117,-0.03,-0.09,0.16,-0.01,0.10,0.99,
2.118,-0.03,-0.09,0.16,-0.01,0.10,0.99,
2.122,-0.03,-0.09,0.16,-0.01,0.10,0.99,
2.122,-0.04,-0.08,0.16,-0.01,0.10,0.99,
2.123,-0.04,-0.08,0.16,-0.01,0.10,0.99,
2.125,-0.04,-0.08,0.16,-0.01,0.10,0.99,
2.126,-0.03,-0.04,0.16,-0.01,0.10,0.99,
2.128,-0.03,-0.04,0.16,-0.01,0.10,0.99,
2.13,-0.03,-0.04,0.16,-0.01,0.10,0.99,
2.131,-0.04,-0.02,0.15,-0.01,0.10,0.99,
2.133,-0.04,-0.02,0.15,-0.01,0.10,0.99,
2.135,-0.04,-0.02,0.15,-0.02,0.10,0.99,
2.135,-0.04,-0.01,0.13,-0.02,0.10,0.99,
2.138,-0.04,-0.01,0.13,-0.02,0.10,0.98,
2.14,-0.04,-0.01,0.13,-0.02,0.10,0.98,
2.14,-0.07,0.01,0.10,-0.02,0.10,0.98,
2.142,-0.07,0.01,0.10,-0.02,0.11,0.98,
2.145,-0.07,0.01,0.10,-0.02,0.11,0.98,
2.145,-0.10,-0.00,0.08,-0.02,0.11,0.98,
2.147,-0.10,-0.00,0.08,-0.02,0.11,0.98,
2.15,-0.10,-0.00,0.08,-0.02,0.11,0.98,
2.151,-0.12,0.02,0.07,-0.02,0.11,0.98,
2.153,-0.12,0.02,0.07,-0.02,0.10,0.98,
2.155,-0.12,0.02,0.07,-0.02,0.10,0.98,
2.155,-0.13,0.01,0.06,-0.02,0.10,0.98,
2.158,-0.13,0.01,0.06,-0.02,0.10,0.98,
2.16,-0.13,0.01,0.06,-0.02,0.11,0.98,
2.16,-0.13,0.01,0.03,-0.02,0.11,0.98,
2.162,-0.13,0.01,0.03,-0.02,0.11,0.98,
2.165,-0.13,0.01,0.03,-0.02,0.11,0.98,
2.165,-0.13,0.01,0.03,-0.02,0.11,0.98,
2.167,-0.13,0.01,0.03,-0.02,0.11,0.98,
2.17,-0.13,0.01,0.03,-0.02,0.11,0.98,
2.17,-0.12,0.04,0.03,-0.02,0.11,0.98,
2.172,-0.12,0.04,0.03,-0.02,0.11,0.98,
2.175,-0.12,0.04,0.03,-0.02,0.11,0.98,
2.175,-0.11,0.07,0.02,-0.02,0.11,0.98,
2.177,-0.11,0.07,0.02,-0.02,0.11,0.98,
2.179,-0.11,0.07,0.02,-0.02,0.11,0.98,
2.18,-0.07,0.07,0.02,-0.02,0.11,0.98,
2.182,-0.07,0.07,0.02,-0.01,0.11,0.98,
2.188,-0.07,0.07,0.02,-0.01,0.11,0.98,
2.189,-0.05,0.08,0.03,-0.01,0.11,0.98,
2.189,-0.05,0.08,0.03,-0.01,0.12,0.98,
2.189,-0.05,0.08,0.03,-0.01,0.12,0.97,
2.19,-0.02,0.10,0.03,-0.01,0.12,0.97,
2.192,-0.02,0.10,0.03,-0.00,0.12,0.95,
2.194,-0.02,0.10,0.03,0.00,0.12,0.94,
2.194,-0.00,0.11,-0.00,0.00,0.12,0.94,
2.196,-0.00,0.11,-0.00,0.00,0.12,0.95,
2.199,-0.00,0.11,-0.00,0.00,0.13,0.96,
2.199,0.10,0.15,-0.30,0.00,0.13,0.96,
2.201,0.10,0.15,-0.30,0.00,0.12,0.98,
2.204,0.10,0.15,-0.30,-0.00,0.12,0.98,
2.204,0.16,0.20,-0.20,-0.00,0.12,0.98,
2.206,0.16,0.20,-0.20,-0.00,0.12,0.99,
2.209,0.16,0.20,-0.20,-0.00,0.12,0.99,
2.209,0.12,0.18,0.05,-0.00,0.12,0.99,
2.211,0.12,0.18,0.05,0.00,0.12,0.99,
2.214,0.12,0.18,0.05,0.00,0.12,0.99,
2.214,0.10,0.19,0.11,0.00,0.12,0.99,
2.216,0.10,0.19,0.11,0.01,0.13,0.99,
2.219,0.10,0.19,0.11,0.01,0.13,0.99,
2.219,0.15,0.19,0.13,0.01,0.13,0.99,
2.221,0.15,0.19,0.13,0.01,0.13,0.99,
2.223,0.15,0.19,0.13,0.01,0.13,0.98,
2.224,0.19,0.19,0.15,0.01,0.13,0.98,
2.226,0.19,0.19,0.15,0.01,0.13,0.98,
2.228,0.19,0.19,0.15,0.01,0.13,0.98,
2.229,0.19,0.20,0.07,0.01,0.13,0.98,
2.231,0.19,0.20,0.07,0.01,0.13,0.97,
