
time,ax,ay,az,gFx,gFy,gFz,
0.002,0.05,-0.01,0.49,0.00,0.06,0.99,
0.002,0.01,-0.00,0.35,0.00,0.06,0.99,
0.002,0.01,-0.00,0.35,0.00,0.06,0.99,
0.003,0.01,-0.00,0.35,0.01,0.06,0.98,
0.003,-0.01,-0.01,0.18,0.01,0.06,0.98,
0.005,-0.01,-0.01,0.18,0.01,0.06,0.97,
0.008,-0.01,-0.01,0.18,0.01,0.06,0.97,
0.008,-0.01,-0.02,0.04,0.01,0.06,0.97,
0.01,-0.01,-0.02,0.04,0.01,0.06,0.96,
0.014,-0.01,-0.02,0.04,0.01,0.06,0.96,
0.014,0.03,-0.02,-0.09,0.01,0.06,0.96,
0.015,0.03,-0.02,-0.09,0.01,0.06,0.95,
0.018,0.03,-0.02,-0.09,0.01,0.06,0.95,
0.018,0.03,-0.02,-0.18,0.01,0.06,0.95,
0.02,0.03,-0.02,-0.18,0.01,0.06,0.95,
0.023,0.04,-0.02,-0.23,0.01,0.06,0.95,
0.023,0.04,-0.02,-0.23,0.01,0.06,0.95,
0.025,0.04,-0.02,-0.23,0.01,0.06,0.95,
0.027,0.04,-0.02,-0.23,0.01,0.06,0.95,
0.028,0.07,-0.01,-0.24,0.01,0.06,0.95,
0.03,0.07,-0.01,-0.24,0.02,0.06,0.95,
0.033,0.07,-0.01,-0.24,0.02,0.06,0.95,
0.033,0.07,-0.02,-0.25,0.02,0.06,0.95,
0.035,0.07,-0.02,-0.25,0.01,0.06,0.96,
0.037,0.07,-0.02,-0.25,0.02,0.06,0.96,
0.037,0.09,-0.03,-0.24,0.02,0.06,0.96,
0.04,0.09,-0.03,-0.24,0.02,0.06,0.96,
0.042,0.09,-0.03,-0.24,0.02,0.06,0.96,
0.042,0.07,0.01,-0.21,0.02,0.06,0.96,
0.044,0.07,0.01,-0.21,0.02,0.06,0.96,
0.047,0.08,-0.01,-0.18,0.02,0.06,0.96,
0.048,0.08,-0.01,-0.18,0.02,0.06,0.97,
0.05,0.08,-0.01,-0.18,0.02,0.06,0.97,
0.052,0.08,-0.01,-0.18,0.02,0.06,0.97,
0.053,0.09,-0.00,-0.14,0.02,0.06,0.97,
0.054,0.09,-0.00,-0.14,0.02,0.06,0.97,
0.057,0.09,-0.00,-0.14,0.02,0.06,0.97,
0.057,0.11,-0.00,-0.09,0.02,0.06,0.97,
0.059,0.11,-0.00,-0.09,0.02,0.06,0.97,
0.062,0.11,-0.00,-0.09,0.01,0.06,0.98,
0.062,0.09,-0.02,-0.05,0.01,0.06,0.98,
0.069,0.09,-0.02,-0.05,0.01,0.06,0.98,
0.07,0.09,-0.02,-0.05,0.01,0.06,0.98,
0.07,0.07,-0.01,-0.02,0.01,0.06,0.98,
0.07,0.07,-0.01,-0.02,0.01,0.06,0.98,
0.071,0.07,-0.01,-0.02,0.01,0.06,0.98,
0.072,0.07,-0.01,-0.00,0.01,0.06,0.98,
0.074,0.07,-0.01,-0.00,0.01,0.06,0.98,
0.076,0.07,-0.01,-0.00,0.01,0.06,0.98,
0.076,0.04,0.02,0.02,0.01,0.06,0.98,
0.079,0.04,0.02,0.02,0.01,0.06,0.98,
0.081,0.03,0.02,0.02,0.01,0.06,0.98,
0.082,0.03,0.02,0.02,0.01,0.06,0.98,
0.084,0.03,0.02,0.02,0.01,0.06,0.98,
0.086,0.03,0.02,0.02,0.01,0.06,0.98,
0.086,0.03,0.04,0.04,0.01,0.06,0.98,
0.088,0.03,0.04,0.04,0.01,0.06,0.98,
0.091,0.03,0.04,0.04,0.01,0.06,0.98,
0.092,0.03,0.06,0.05,0.01,0.06,0.98,
0.093,0.03,0.06,0.05,0.01,0.07,0.98,
0.096,0.03,0.06,0.05,0.02,0.07,0.98,
0.097,0.06,0.07,0.06,0.02,0.07,0.98,
0.098,0.06,0.07,0.06,0.02,0.07,0.98,
0.101,0.06,0.07,0.06,0.02,0.07,0.98,
0.101,0.08,0.09,0.04,0.02,0.07,0.98,
0.103,0.08,0.09,0.04,0.02,0.07,0.98,
0.106,0.10,0.09,0.04,0.02,0.07,0.98,
0.106,0.10,0.09,0.04,0.02,0.07,0.98,
0.108,0.10,0.09,0.04,0.02,0.07,0.98,
0.111,0.10,0.09,0.04,0.02,0.07,0.98,
0.111,0.12,0.09,0.03,0.02,0.07,0.98,
0.113,0.12,0.09,0.03,0.02,0.07,0.98,
0.116,0.12,0.09,0.03,0.03,0.07,0.98,
0.116,0.14,0.09,0.01,0.03,0.07,0.98,
0.118,0.14,0.09,0.01,0.03,0.07,0.98,
0.12,0.14,0.09,0.01,0.03,0.07,0.98,
0.121,0.16,0.10,0.01,0.03,0.07,0.98,
0.123,0.16,0.10,0.01,0.03,0.07,0.98,
0.126,0.16,0.10,0.01,0.03,0.07,0.98,
0.126,0.18,0.09,0.00,0.03,0.07,0.98,
0.128,0.18,0.09,0.00,0.03,0.07,0.97,
0.13,0.18,0.08,-0.02,0.03,0.07,0.97,
0.131,0.18,0.08,-0.02,0.03,0.07,0.97,
0.133,0.18,0.08,-0.02,0.03,0.07,0.97,
0.135,0.18,0.08,-0.02,0.03,0.06,0.97,
0.135,0.16,0.09,-0.04,0.03,0.06,0.97,
0.137,0.16,0.09,-0.04,0.02,0.07,0.97,
0.14,0.16,0.09,-0.04,0.02,0.07,0.97,
0.14,0.16,0.06,-0.04,0.02,0.07,0.97,
0.143,0.16,0.06,-0.04,0.02,0.06,0.98,
0.146,0.16,0.06,-0.04,0.02,0.06,0.98,
0.146,0.12,0.06,-0.03,0.02,0.06,0.98,
0.147,0.12,0.06,-0.03,0.02,0.06,0.98,
0.15,0.12,0.06,-0.03,0.02,0.06,0.98,
0.15,0.08,0.03,-0.00,0.02,0.06,0.98,
0.152,0.08,0.03,-0.00,0.01,0.06,0.98,
0.155,0.08,0.03,-0.00,0.01,0.06,0.98,
0.155,0.05,0.03,0.02,0.01,0.06,0.98,
0.157,0.05,0.03,0.02,0.01,0.06,0.98,
0.16,0.05,0.03,0.02,0.01,0.06,0.99,
0.16,-0.00,-0.00,0.03,0.01,0.06,0.99,
0.163,-0.00,-0.00,0.03,0.01,0.06,0.99,
0.165,-0.00,-0.00,0.03,0.00,0.06,0.99,
0.165,-0.04,-0.01,0.07,0.00,0.06,0.99,
0.167,-0.04,-0.01,0.07,0.00,0.06,0.99,
0.169,-0.04,-0.01,0.07,0.00,0.06,1.00,
0.17,-0.08,-0.02,0.12,0.00,0.06,1.00,
0.172,-0.08,-0.02,0.12,-0.00,0.06,1.00,
0.174,-0.08,-0.02,0.12,-0.01,0.06,1.00,
0.175,-0.12,-0.03,0.17,-0.01,0.06,1.00,
0.177,-0.12,-0.03,0.17,-0.01,0.06,1.00,
0.186,-0.12,-0.03,0.17,-0.01,0.06,1.01,
0.186,-0.18,-0.01,0.22,-0.01,0.06,1.01,
0.186,-0.18,-0.01,0.22,-0.01,0.06,1.01,
0.186,-0.18,-0.01,0.22,-0.01,0.06,1.01,
0.187,-0.22,0.00,0.27,-0.01,0.06,1.01,
0.187,-0.22,0.00,0.27,-0.01,0.06,1.02,
0.189,-0.22,0.00,0.27,-0.01,0.06,1.02,
0.189,-0.24,0.00,0.34,-0.01,0.06,1.02,
0.191,-0.24,0.00,0.34,-0.01,0.06,1.02,
0.194,-0.24,0.00,0.34,-0.01,0.06,1.03,
0.194,-0.25,0.03,0.37,-0.01,0.06,1.03,
0.196,-0.25,0.03,0.37,-0.01,0.06,1.03,
0.199,-0.25,0.03,0.37,-0.01,0.06,1.03,
0.199,-0.25,0.02,0.43,-0.01,0.06,1.03,
0.201,-0.25,0.02,0.43,-0.02,0.06,1.03,
0.204,-0.25,0.02,0.43,-0.02,0.06,1.03,
0.204,-0.26,0.04,0.47,-0.02,0.06,1.03,
0.206,-0.26,0.04,0.47,-0.02,0.06,1.03,
0.209,-0.26,0.04,0.47,-0.01,0.07,1.03,
0.209,-0.28,0.06,0.49,-0.01,0.07,1.03,
0.211,-0.28,0.06,0.49,-0.02,0.07,1.03,
0.214,-0.28,0.06,0.49,-0.02,0.07,1.04,
0.214,-0.28,0.07,0.51,-0.02,0.07,1.04,
0.216,-0.28,0.07,0.51,-0.02,0.07,1.04,
0.219,-0.28,0.07,0.51,-0.02,0.07,1.03,
0.219,-0.28,0.08,0.53,-0.02,0.07,1.03,
0.221,-0.28,0.08,0.53,-0.02,0.07,1.03,
0.223,-0.28,0.08,0.53,-0.02,0.07,1.03,
0.223,-0.31,0.08,0.53,-0.02,0.07,1.03,
0.225,-0.31,0.08,0.53,-0.02,0.07,1.03,
0.229,-0.33,0.06,0.50,-0.02,0.07,1.03,
0.23,-0.33,0.06,0.50,-0.03,0.06,1.03,
0.231,-0.33,0.06,0.50,-0.03,0.06,1.02,
0.233,-0.33,0.06,0.50,-0.03,0.06,1.02,
0.233,-0.36,0.04,0.46,-0.03,0.06,1.02,
0.235,-0.36,0.04,0.46,-0.04,0.07,1.02,
0.238,-0.36,0.04,0.46,-0.04,0.06,1.02,
0.238,-0.43,0.02,0.39,-0.04,0.06,1.02,
0.24,-0.43,0.02,0.39,-0.05,0.07,1.02,
0.243,-0.43,0.02,0.39,-0.05,0.07,1.01,
0.243,-0.49,0.03,0.35,-0.05,0.07,1.01,
0.245,-0.49,0.03,0.35,-0.05,0.07,1.01,
0.248,-0.49,0.03,0.35,-0.06,0.06,1.01,
0.248,-0.57,0.03,0.31,-0.06,0.06,1.01,
0.25,-0.57,0.03,0.31,-0.07,0.07,1.01,
0.253,-0.57,0.03,0.31,-0.07,0.07,1.01,
0.253,-0.65,0.03,0.26,-0.07,0.07,1.01,
0.255,-0.65,0.03,0.26,-0.07,0.07,1.01,
0.258,-0.65,0.03,0.26,-0.07,0.07,1.00,
0.258,-0.74,0.03,0.24,-0.07,0.07,1.00,
0.26,-0.74,0.03,0.24,-0.08,0.07,1.00,
0.269,-0.74,0.03,0.24,-0.08,0.07,1.00,
0.269,-0.78,0.02,0.21,-0.08,0.07,1.00,
0.27,-0.78,0.02,0.21,-0.09,0.07,1.00,
0.27,-0.78,0.02,0.21,-0.09,0.07,1.00,
0.27,-0.84,0.02,0.20,-0.09,0.07,1.00,
0.27,-0.84,0.02,0.20,-0.09,0.07,1.00,
0.272,-0.84,0.02,0.20,-0.09,0.07,1.01,
0.272,-0.91,0.05,0.20,-0.09,0.07,1.01,
0.275,-0.91,0.05,0.20,-0.09,0.07,1.01,
0.277,-0.91,0.05,0.20,-0.10,0.06,1.01,
0.277,-0.93,0.04,0.22,-0.10,0.06,1.01,
0.28,-0.93,0.04,0.22,-0.10,0.06,1.01,
0.283,-0.93,0.04,0.22,-0.10,0.06,1.01,
0.283,-0.97,-0.00,0.24,-0.10,0.06,1.01,
0.284,-0.97,-0.00,0.24,-0.10,0.06,1.01,
0.287,-0.97,-0.00,0.24,-0.10,0.06,1.01,
0.287,-1.01,-0.05,0.25,-0.10,0.06,1.01,
0.289,-1.01,-0.05,0.25,-0.10,0.06,1.01,
0.292,-1.01,-0.05,0.25,-0.11,0.06,1.01,
0.292,-1.03,-0.08,0.28,-0.11,0.06,1.01,
0.294,-1.03,-0.08,0.28,-0.11,0.06,1.01,
0.297,-1.03,-0.08,0.28,-0.11,0.06,1.01,
0.299,-1.06,-0.10,0.29,-0.11,0.06,1.01,
0.299,-1.06,-0.10,0.29,-0.11,0.06,1.01,
0.304,-1.06,-0.10,0.29,-0.11,0.06,1.01,
0.304,-1.10,-0.11,0.28,-0.11,0.06,1.01,
0.304,-1.10,-0.11,0.28,-0.11,0.05,1.01,
0.307,-1.10,-0.11,0.28,-0.11,0.06,1.01,
0.307,-1.11,-0.13,0.28,-0.11,0.06,1.01,
0.309,-1.11,-0.13,0.28,-0.11,0.06,1.01,
0.312,-1.11,-0.13,0.28,-0.11,0.05,1.01,
0.312,-1.10,-0.14,0.28,-0.11,0.05,1.01,
0.314,-1.10,-0.14,0.28,-0.11,0.05,1.01,
0.316,-1.10,-0.14,0.28,-0.11,0.05,1.01,
0.317,-1.07,-0.15,0.27,-0.11,0.05,1.01,
0.318,-1.07,-0.15,0.27,-0.11,0.05,1.01,
0.321,-1.07,-0.15,0.27,-0.10,0.05,1.01,
0.321,-1.04,-0.18,0.24,-0.10,0.05,1.01,
0.323,-1.04,-0.18,0.24,-0.11,0.05,1.01,
0.326,-1.04,-0.18,0.24,-0.11,0.05,1.01,
0.326,-1.00,-0.18,0.23,-0.11,0.05,1.01,
0.328,-1.00,-0.18,0.23,-0.10,0.05,1.01,
0.331,-1.00,-0.18,0.23,-0.11,0.05,1.01,
0.331,-0.99,-0.19,0.23,-0.11,0.05,1.01,
0.333,-0.99,-0.19,0.23,-0.10,0.05,1.01,
0.336,-0.99,-0.19,0.23,-0.10,0.05,1.01,
0.336,-0.97,-0.21,0.22,-0.10,0.05,1.01,
0.338,-0.97,-0.21,0.22,-0.10,0.05,1.00,
0.341,-0.97,-0.21,0.22,-0.10,0.05,1.01,
0.341,-0.96,-0.24,0.20,-0.10,0.05,1.01,
0.343,-0.96,-0.24,0.20,-0.10,0.05,1.00,
0.346,-0.96,-0.24,0.20,-0.10,0.05,1.00,
0.346,-0.94,-0.24,0.19,-0.10,0.05,1.00,
0.348,-0.94,-0.24,0.19,-0.10,0.05,1.00,
0.351,-0.94,-0.24,0.19,-0.10,0.05,1.00,
0.351,-0.93,-0.25,0.17,-0.10,0.05,1.00,
0.353,-0.93,-0.25,0.17,-0.10,0.05,1.00,
0.355,-0.93,-0.25,0.17,-0.10,0.04,0.99,
0.356,-0.91,-0.27,0.13,-0.10,0.04,0.99,
0.358,-0.91,-0.27,0.13,-0.10,0.04,0.99,
0.361,-0.91,-0.27,0.13,-0.10,0.04,0.99,
0.361,-0.89,-0.29,0.08,-0.10,0.04,0.99,
0.369,-0.89,-0.29,0.08,-0.10,0.04,0.99,
0.369,-0.89,-0.29,0.08,-0.10,0.04,0.99,
0.369,-0.86,-0.32,0.06,-0.10,0.04,0.99,
0.369,-0.86,-0.32,0.06,-0.10,0.04,0.99,
0.37,-0.86,-0.32,0.06,-0.09,0.04,0.98,
0.37,-0.85,-0.32,0.03,-0.09,0.04,0.98,
0.372,-0.85,-0.32,0.03,-0.09,0.04,0.98,
0.375,-0.85,-0.32,0.03,-0.09,0.04,0.98,
0.375,-0.78,-0.35,-0.00,-0.09,0.04,0.98,
0.379,-0.78,-0.35,-0.00,-0.09,0.04,0.98,
0.38,-0.78,-0.35,-0.00,-0.08,0.04,0.98,
0.38,-0.73,-0.34,-0.02,-0.08,0.04,0.98,
0.382,-0.73,-0.34,-0.02,-0.08,0.04,0.98,
0.385,-0.73,-0.34,-0.02,-0.08,0.04,0.98,
0.385,-0.67,-0.35,-0.04,-0.08,0.04,0.98,
0.387,-0.67,-0.35,-0.04,-0.07,0.04,0.98,
0.39,-0.59,-0.35,-0.05,-0.07,0.04,0.98,
0.39,-0.59,-0.35,-0.05,-0.07,0.04,0.98,
0.392,-0.59,-0.35,-0.05,-0.07,0.04,0.98,
0.395,-0.59,-0.35,-0.05,-0.07,0.04,0.98,
0.396,-0.54,-0.36,-0.06,-0.07,0.04,0.98,
0.397,-0.54,-0.36,-0.06,-0.06,0.04,0.97,
0.4,-0.54,-0.36,-0.06,-0.07,0.04,0.97,
0.4,-0.47,-0.36,-0.09,-0.07,0.04,0.97,
0.402,-0.47,-0.36,-0.09,-0.06,0.04,0.97,
0.404,-0.47,-0.36,-0.09,-0.06,0.04,0.97,
0.405,-0.44,-0.38,-0.12,-0.06,0.04,0.97,
0.407,-0.44,-0.38,-0.12,-0.06,0.04,0.97,
0.409,-0.44,-0.38,-0.12,-0.06,0.04,0.96,
0.41,-0.40,-0.38,-0.15,-0.06,0.04,0.96,
0.412,-0.40,-0.38,-0.15,-0.06,0.04,0.96,
0.414,-0.40,-0.38,-0.15,-0.06,0.04,0.96,
0.414,-0.35,-0.40,-0.21,-0.06,0.04,0.96,
0.417,-0.35,-0.40,-0.21,-0.06,0.04,0.95,
0.419,-0.35,-0.40,-0.21,-0.06,0.04,0.95,
0.42,-0.33,-0.42,-0.27,-0.06,0.04,0.95,
0.421,-0.33,-0.42,-0.27,-0.06,0.04,0.95,
0.424,-0.33,-0.42,-0.27,-0.06,0.03,0.95,
0.424,-0.30,-0.43,-0.33,-0.06,0.03,0.95,
0.426,-0.30,-0.43,-0.33,-0.06,0.04,0.95,
0.429,-0.30,-0.43,-0.33,-0.06,0.03,0.95,
0.429,-0.32,-0.44,-0.34,-0.06,0.03,0.95,
0.431,-0.32,-0.44,-0.34,-0.06,0.03,0.95,
0.434,-0.32,-0.44,-0.34,-0.06,0.03,0.95,
0.435,-0.34,-0.44,-0.35,-0.06,0.03,0.95,
0.436,-0.34,-0.44,-0.35,-0.06,0.03,0.94,
0.439,-0.34,-0.44,-0.35,-0.06,0.03,0.95,
0.439,-0.34,-0.46,-0.35,-0.06,0.03,0.95,
0.441,-0.34,-0.46,-0.35,-0.07,0.03,0.95,
0.444,-0.34,-0.46,-0.35,-0.07,0.03,0.95,
0.445,-0.34,-0.48,-0.38,-0.07,0.03,0.95,
0.446,-0.34,-0.48,-0.38,-0.07,0.03,0.95,
0.449,-0.34,-0.48,-0.38,-0.07,0.03,0.95,
0.449,-0.36,-0.50,-0.36,-0.07,0.03,0.95,
0.451,-0.36,-0.50,-0.36,-0.07,0.02,0.95,
0.453,-0.36,-0.50,-0.36,-0.07,0.02,0.95,
0.453,-0.35,-0.52,-0.35,-0.07,0.02,0.95,
0.456,-0.35,-0.52,-0.35,-0.07,0.02,0.95,
0.458,-0.35,-0.52,-0.35,-0.06,0.02,0.95,
0.459,-0.34,-0.53,-0.34,-0.06,0.02,0.95,
0.461,-0.34,-0.53,-0.34,-0.06,0.02,0.95,
0.463,-0.34,-0.53,-0.34,-0.06,0.02,0.96,
0.463,-0.31,-0.52,-0.30,-0.06,0.02,0.96,
0.465,-0.31,-0.52,-0.30,-0.06,0.03,0.96,
0.468,-0.31,-0.52,-0.30,-0.05,0.03,0.96,
0.468,-0.25,-0.52,-0.27,-0.05,0.03,0.96,
0.47,-0.25,-0.52,-0.27,-0.04,0.03,0.96,
0.473,-0.25,-0.52,-0.27,-0.04,0.03,0.96,
0.473,-0.19,-0.50,-0.24,-0.04,0.03,0.96,
0.475,-0.19,-0.50,-0.24,-0.04,0.03,0.96,
0.481,-0.19,-0.50,-0.24,-0.03,0.03,0.96,
0.481,-0.06,-0.48,-0.21,-0.03,0.03,0.96,
0.482,-0.06,-0.48,-0.21,-0.03,0.03,0.96,
0.483,-0.06,-0.48,-0.21,-0.03,0.03,0.96,
0.483,0.02,-0.48,-0.19,-0.03,0.03,0.96,
0.485,0.02,-0.48,-0.19,-0.02,0.03,0.96,
0.488,0.02,-0.48,-0.19,-0.02,0.03,0.96,
0.488,0.07,-0.48,-0.18,-0.02,0.03,0.96,
0.49,0.07,-0.48,-0.18,-0.02,0.03,0.96,
0.493,0.07,-0.48,-0.18,-0.01,0.03,0.96,
0.493,0.16,-0.46,-0.18,-0.01,0.03,0.96,
0.495,0.16,-0.46,-0.18,-0.01,0.03,0.96,
0.498,0.16,-0.46,-0.18,-0.01,0.03,0.96,
0.498,0.22,-0.45,-0.18,-0.01,0.03,0.96,
0.5,0.22,-0.45,-0.18,-0.01,0.03,0.96,
0.503,0.22,-0.45,-0.18,-0.01,0.03,0.96,
0.503,0.24,-0.43,-0.19,-0.01,0.03,0.96,
0.505,0.24,-0.43,-0.19,-0.01,0.03,0.96,
0.507,0.24,-0.43,-0.19,-0.01,0.03,0.96,
0.508,0.25,-0.42,-0.21,-0.01,0.03,0.96,
0.51,0.25,-0.42,-0.21,-0.01,0.03,0.96,
0.512,0.25,-0.42,-0.21,-0.01,0.03,0.96,
0.513,0.25,-0.42,-0.23,-0.01,0.03,0.96,
0.515,0.25,-0.42,-0.23,-0.01,0.03,0.96,
0.518,0.25,-0.42,-0.23,-0.01,0.03,0.96,
0.518,0.27,-0.42,-0.23,-0.01,0.03,0.96,
0.52,0.27,-0.42,-0.23,-0.01,0.03,0.96,
0.522,0.27,-0.42,-0.23,-0.01,0.03,0.96,
0.522,0.29,-0.41,-0.23,-0.01,0.03,0.96,
0.524,0.29,-0.41,-0.23,-0.01,0.03,0.96,
0.527,0.29,-0.41,-0.23,-0.01,0.03,0.96,
0.528,0.28,-0.43,-0.22,-0.01,0.03,0.96,
0.529,0.28,-0.43,-0.22,-0.01,0.02,0.96,
0.532,0.28,-0.43,-0.22,-0.01,0.02,0.96,
0.532,0.28,-0.45,-0.21,-0.01,0.02,0.96,
0.534,0.28,-0.45,-0.21,-0.01,0.02,0.96,
0.537,0.28,-0.45,-0.21,-0.02,0.02,0.96,
0.537,0.28,-0.49,-0.20,-0.02,0.02,0.96,
0.539,0.28,-0.49,-0.20,-0.01,0.02,0.96,
0.541,0.28,-0.49,-0.20,-0.01,0.02,0.96,
0.542,0.25,-0.50,-0.19,-0.01,0.02,0.96,
0.544,0.25,-0.50,-0.19,-0.01,0.02,0.96,
0.547,0.25,-0.50,-0.19,-0.01,0.02,0.96,
0.547,0.27,-0.53,-0.20,-0.01,0.02,0.96,
0.549,0.27,-0.53,-0.20,-0.01,0.02,0.96,
0.551,0.27,-0.53,-0.20,-0.01,0.02,0.95,
0.552,0.28,-0.54,-0.20,-0.01,0.02,0.95,
0.554,0.28,-0.54,-0.20,-0.01,0.01,0.95,
0.556,0.28,-0.54,-0.20,-0.01,0.02,0.96,
0.557,0.28,-0.53,-0.22,-0.01,0.02,0.96,
0.559,0.28,-0.53,-0.22,-0.01,0.02,0.96,
0.562,0.28,-0.53,-0.22,-0.01,0.02,0.96,
0.562,0.29,-0.55,-0.23,-0.01,0.02,0.96,
0.563,0.29,-0.55,-0.23,-0.01,0.01,0.96,
0.566,0.29,-0.55,-0.23,-0.01,0.01,0.96,
0.566,0.32,-0.54,-0.20,-0.01,0.01,0.96,
0.568,0.32,-0.54,-0.20,-0.01,0.01,0.96,
0.571,0.32,-0.54,-0.20,-0.01,0.01,0.96,
0.571,0.32,-0.55,-0.19,-0.01,0.01,0.96,
0.573,0.32,-0.55,-0.19,-0.00,0.01,0.96,
0.576,0.32,-0.55,-0.19,-0.00,0.01,0.96,
0.576,0.35,-0.54,-0.19,-0.00,0.01,0.96,
0.584,0.35,-0.54,-0.19,-0.00,0.01,0.96,
0.585,0.35,-0.54,-0.19,-0.00,0.01,0.96,
0.585,0.38,-0.55,-0.19,-0.00,0.01,0.96,
0.585,0.38,-0.55,-0.19,-0.00,0.01,0.96,
0.586,0.38,-0.55,-0.19,-0.00,0.01,0.96,
0.586,0.41,-0.56,-0.20,-0.00,0.01,0.96,
0.588,0.41,-0.56,-0.20,0.00,0.01,0.96,
0.591,0.41,-0.56,-0.20,0.00,0.01,0.95,
0.591,0.41,-0.57,-0.19,0.00,0.01,0.95,
0.593,0.41,-0.57,-0.19,0.00,0.01,0.95,
0.596,0.41,-0.57,-0.19,0.00,0.01,0.95,
0.596,0.45,-0.58,-0.22,0.00,0.01,0.95,
0.598,0.45,-0.58,-0.22,-0.00,0.01,0.95,
0.6,0.45,-0.58,-0.22,-0.00,0.01,0.95,
0.6,0.44,-0.56,-0.22,-0.00,0.01,0.95,
0.603,0.44,-0.56,-0.22,-0.00,0.01,0.95,
0.605,0.44,-0.56,-0.22,0.00,0.01,0.95,
0.606,0.43,-0.57,-0.23,0.00,0.01,0.95,
0.607,0.43,-0.57,-0.23,0.00,0.01,0.95,
0.61,0.43,-0.57,-0.23,0.01,0.01,0.95,
0.611,0.44,-0.56,-0.24,0.01,0.01,0.95,
0.612,0.44,-0.56,-0.24,0.00,0.01,0.95,
0.615,0.44,-0.56,-0.24,0.01,0.01,0.95,
0.615,0.48,-0.56,-0.24,0.01,0.01,0.95,
0.617,0.48,-0.56,-0.24,0.01,0.01,0.95,
0.62,0.48,-0.56,-0.24,0.01,0.01,0.95,
0.62,0.50,-0.56,-0.26,0.01,0.01,0.95,
0.622,0.50,-0.56,-0.26,0.01,0.01,0.95,
0.625,0.50,-0.56,-0.26,0.02,0.01,0.95,
0.626,0.54,-0.55,-0.25,0.02,0.01,0.95,
0.627,0.54,-0.55,-0.25,0.02,0.01,0.95,
0.63,0.59,-0.51,-0.26,0.02,0.01,0.95,
0.631,0.59,-0.51,-0.26,0.02,0.01,0.95,
0.632,0.59,-0.51,-0.26,0.02,0.01,0.95,
0.635,0.59,-0.51,-0.26,0.03,0.01,0.95,
0.635,0.65,-0.48,-0.25,0.03,0.01,0.95,
0.637,0.65,-0.48,-0.25,0.03,0.01,0.96,
0.64,0.65,-0.48,-0.25,0.04,0.02,0.96,
0.64,0.69,-0.46,-0.21,0.04,0.02,0.96,
0.642,0.69,-0.46,-0.21,0.04,0.02,0.96,
0.645,0.69,-0.46,-0.21,0.04,0.02,0.96,
0.645,0.76,-0.43,-0.17,0.04,0.02,0.96,
0.647,0.76,-0.43,-0.17,0.04,0.02,0.96,
0.649,0.76,-0.43,-0.17,0.05,0.02,0.96,
0.649,0.80,-0.40,-0.14,0.05,0.02,0.96,
0.652,0.80,-0.40,-0.14,0.05,0.02,0.97,
0.654,0.80,-0.40,-0.14,0.05,0.02,0.96,
0.655,0.86,-0.38,-0.12,0.05,0.02,0.96,
0.657,0.86,-0.38,-0.12,0.05,0.02,0.96,
0.66,0.86,-0.38,-0.12,0.05,0.02,0.96,
0.66,0.88,-0.36,-0.09,0.05,0.02,0.96,
0.665,0.88,-0.36,-0.09,0.06,0.02,0.97,
0.665,0.88,-0.36,-0.09,0.06,0.02,0.97,
0.666,0.92,-0.35,-0.10,0.06,0.02,0.97,
0.666,0.92,-0.35,-0.10,0.06,0.03,0.96,
0.669,0.92,-0.35,-0.10,0.07,0.03,0.96,
0.669,0.97,-0.32,-0.08,0.07,0.03,0.96,
0.671,0.97,-0.32,-0.08,0.07,0.03,0.96,
0.674,0.97,-0.32,-0.08,0.07,0.03,0.96,
0.674,1.01,-0.28,-0.10,0.07,0.03,0.96,
0.677,1.01,-0.28,-0.10,0.08,0.03,0.96,
0.679,1.01,-0.28,-0.10,0.08,0.03,0.96,
0.679,1.06,-0.24,-0.13,0.08,0.03,0.96,
0.681,1.06,-0.24,-0.13,0.08,0.03,0.96,
0.684,1.13,-0.22,-0.12,0.08,0.03,0.96,
0.684,1.13,-0.22,-0.12,0.08,0.04,0.96,
0.686,1.13,-0.22,-0.12,0.08,0.04,0.96,
0.688,1.13,-0.22,-0.12,0.09,0.04,0.96,
0.689,1.14,-0.18,-0.16,0.09,0.04,0.96,
0.691,1.14,-0.18,-0.16,0.09,0.04,0.96,
0.694,1.18,-0.16,-0.17,0.09,0.04,0.96,
0.694,1.18,-0.16,-0.17,0.09,0.04,0.96,
0.696,1.18,-0.16,-0.17,0.09,0.04,0.95,
0.699,1.18,-0.16,-0.17,0.09,0.04,0.95,
0.699,1.21,-0.15,-0.17,0.09,0.04,0.95,
0.701,1.21,-0.15,-0.17,0.10,0.04,0.95,
0.703,1.21,-0.15,-0.17,0.10,0.05,0.95,
0.704,1.24,-0.11,-0.22,0.10,0.05,0.95,
0.705,1.24,-0.11,-0.22,0.10,0.05,0.95,
0.709,1.27,-0.08,-0.22,0.10,0.05,0.95,
0.709,1.27,-0.08,-0.22,0.10,0.05,0.95,
0.711,1.27,-0.08,-0.22,0.11,0.05,0.95,
0.713,1.27,-0.08,-0.22,0.11,0.05,0.95,
0.715,1.33,-0.04,-0.22,0.11,0.05,0.95,
0.716,1.33,-0.04,-0.22,0.11,0.05,0.95,
0.718,1.33,-0.04,-0.22,0.11,0.05,0.95,
0.718,1.36,-0.04,-0.24,0.11,0.05,0.95,
0.72,1.36,-0.04,-0.24,0.12,0.05,0.95,
0.723,1.36,-0.04,-0.24,0.12,0.06,0.95,
0.723,1.39,0.00,-0.24,0.12,0.06,0.95,
0.725,1.39,0.00,-0.24,0.13,0.06,0.95,
0.728,1.39,0.00,-0.24,0.13,0.06,0.95,
0.729,1.45,0.04,-0.22,0.13,0.06,0.95,
0.73,1.45,0.04,-0.22,0.13,0.06,0.95,
0.733,1.45,0.04,-0.22,0.14,0.06,0.95,
0.733,1.50,0.08,-0.22,0.14,0.06,0.95,
0.735,1.50,0.08,-0.22,0.14,0.06,0.96,
0.738,1.50,0.08,-0.22,0.14,0.07,0.96,
0.738,1.56,0.12,-0.18,0.14,0.07,0.96,
0.74,1.56,0.12,-0.18,0.14,0.07,0.96,
0.744,1.56,0.12,-0.18,0.14,0.07,0.96,
0.744,1.60,0.16,-0.14,0.14,0.07,0.96,
0.745,1.60,0.16,-0.14,0.14,0.07,0.96,
0.747,1.60,0.16,-0.14,0.14,0.08,0.97,
0.748,1.61,0.21,-0.12,0.14,0.08,0.97,
0.75,1.61,0.21,-0.12,0.15,0.08,0.97,
0.752,1.61,0.21,-0.12,0.15,0.08,0.97,
0.753,1.60,0.26,-0.07,0.15,0.08,0.97,
0.755,1.60,0.26,-0.07,0.15,0.08,0.97,
0.757,1.60,0.26,-0.07,0.15,0.08,0.97,
0.757,1.64,0.31,-0.02,0.15,0.08,0.97,
0.76,1.64,0.31,-0.02,0.15,0.09,0.98,
0.762,1.64,0.31,-0.02,0.16,0.09,0.98,
0.763,1.66,0.34,0.02,0.16,0.09,0.98,
0.765,1.66,0.34,0.02,0.16,0.09,0.98,
0.767,1.66,0.34,0.02,0.16,0.09,0.98,
0.767,1.67,0.38,0.05,0.16,0.09,0.98,
0.769,1.67,0.38,0.05,0.16,0.09,0.98,
0.772,1.67,0.38,0.05,0.16,0.09,0.98,
0.772,1.69,0.42,0.07,0.16,0.09,0.98,
0.774,1.69,0.42,0.07,0.16,0.09,0.98,
0.777,1.69,0.42,0.07,0.16,0.10,0.98,
0.778,1.70,0.46,0.09,0.16,0.10,0.98,
0.779,1.70,0.46,0.09,0.16,0.10,0.98,
0.782,1.70,0.46,0.09,0.17,0.10,0.98,
0.782,1.72,0.49,0.10,0.17,0.10,0.98,
0.784,1.72,0.49,0.10,0.16,0.10,0.98,
0.786,1.72,0.49,0.10,0.17,0.10,0.98,
0.789,1.73,0.53,0.08,0.17,0.10,0.98,
0.79,1.73,0.53,0.08,0.17,0.10,0.98,
0.791,1.73,0.53,0.08,0.17,0.10,0.98,
0.792,1.74,0.55,0.06,0.17,0.10,0.98,
0.799,1.74,0.55,0.06,0.17,0.11,0.98,
0.799,1.74,0.55,0.06,0.18,0.11,0.97,
0.8,1.78,0.59,0.06,0.18,0.11,0.97,
0.8,1.78,0.59,0.06,0.18,0.11,0.97,
0.801,1.78,0.59,0.06,0.18,0.11,0.97,
0.801,1.82,0.62,0.02,0.18,0.11,0.97,
0.803,1.82,0.62,0.02,0.17,0.11,0.97,
0.806,1.82,0.62,0.02,0.18,0.12,0.97,
0.806,1.81,0.68,-0.01,0.18,0.12,0.97,
0.808,1.81,0.68,-0.01,0.18,0.12,0.97,
0.811,1.81,0.68,-0.01,0.18,0.12,0.97,
0.812,1.83,0.71,-0.01,0.18,0.12,0.97,
0.813,1.83,0.71,-0.01,0.18,0.12,0.97,
0.816,1.84,0.76,0.00,0.18,0.12,0.97,
0.816,1.84,0.76,0.00,0.18,0.13,0.98,
0.818,1.84,0.76,0.00,0.18,0.13,0.98,
0.821,1.84,0.76,0.00,0.17,0.13,0.98,
0.821,1.81,0.82,0.02,0.17,0.13,0.98,
0.823,1.81,0.82,0.02,0.18,0.13,0.98,
0.827,1.81,0.82,0.02,0.17,0.13,0.98,
0.827,1.79,0.86,0.07,0.17,0.13,0.98,
0.828,1.79,0.86,0.07,0.17,0.14,0.99,
0.831,1.78,0.90,0.10,0.17,0.14,0.99,
0.831,1.78,0.90,0.10,0.18,0.13,0.99,
0.833,1.78,0.90,0.10,0.17,0.13,0.99,
0.836,1.78,0.90,0.10,0.17,0.14,0.99,
0.836,1.78,0.93,0.14,0.17,0.14,0.99,
0.838,1.78,0.93,0.14,0.17,0.14,0.99,
0.841,1.76,0.94,0.18,0.17,0.14,0.99,
0.841,1.76,0.94,0.18,0.17,0.14,0.99,
0.843,1.76,0.94,0.18,0.17,0.14,1.00,
0.846,1.76,0.94,0.18,0.17,0.14,1.00,
0.846,1.73,0.97,0.21,0.17,0.14,1.00,
0.848,1.73,0.97,0.21,0.17,0.14,1.00,
0.85,1.73,0.97,0.21,0.17,0.14,1.00,
0.851,1.72,0.98,0.25,0.17,0.14,1.00,
0.852,1.72,0.98,0.25,0.17,0.14,1.00,
0.855,1.72,0.98,0.25,0.17,0.14,1.00,
0.855,1.71,1.01,0.26,0.17,0.14,1.00,
0.857,1.71,1.01,0.26,0.17,0.14,1.00,
0.86,1.71,1.01,0.26,0.17,0.14,1.00,
0.86,1.70,1.02,0.26,0.17,0.14,1.00,
0.863,1.70,1.02,0.26,0.17,0.14,0.99,
0.865,1.70,1.02,0.26,0.17,0.14,0.99,
0.865,1.69,1.03,0.23,0.17,0.14,0.99,
0.867,1.69,1.03,0.23,0.17,0.14,0.99,
0.87,1.68,1.04,0.20,0.17,0.14,0.99,
0.87,1.68,1.04,0.20,0.17,0.15,0.99,
0.872,1.68,1.04,0.20,0.16,0.14,0.99,
0.875,1.68,1.04,0.20,0.16,0.15,0.98,
0.875,1.66,1.05,0.15,0.16,0.15,0.98,
0.882,1.66,1.05,0.15,0.16,0.15,0.98,
0.883,1.66,1.05,0.15,0.16,0.15,0.98,
0.883,1.62,1.05,0.12,0.16,0.15,0.98,
0.883,1.62,1.05,0.12,0.16,0.15,0.98,
0.884,1.62,1.05,0.12,0.15,0.15,0.98,
0.885,1.57,1.07,0.10,0.15,0.15,0.98,
0.887,1.57,1.07,0.10,0.15,0.15,0.98,
0.889,1.57,1.07,0.10,0.14,0.15,0.98,
0.89,1.51,1.09,0.09,0.14,0.15,0.98,
0.892,1.51,1.09,0.09,0.14,0.15,0.99,
0.896,1.51,1.09,0.09,0.14,0.14,0.99,
0.896,1.43,1.08,0.11,0.14,0.14,0.99,
0.897,1.43,1.08,0.11,0.13,0.14,0.99,
0.899,1.43,1.08,0.11,0.13,0.14,1.00,
0.899,1.33,1.06,0.14,0.13,0.14,1.00,
0.901,1.33,1.06,0.14,0.13,0.14,1.00,
0.904,1.33,1.06,0.14,0.13,0.13,1.00,
0.904,1.26,1.03,0.20,0.13,0.13,1.00,
0.906,1.26,1.03,0.20,0.12,0.13,1.01,
0.909,1.26,1.03,0.20,0.12,0.13,1.01,
0.91,1.21,0.97,0.26,0.12,0.13,1.01,
0.911,1.21,0.97,0.26,0.12,0.12,1.01,
0.914,1.21,0.97,0.26,0.12,0.12,1.02,
0.915,1.14,0.93,0.35,0.12,0.12,1.02,
0.916,1.14,0.93,0.35,0.12,0.12,1.02,
0.919,1.14,0.93,0.35,0.12,0.11,1.02,
0.919,1.07,0.85,0.41,0.12,0.11,1.02,
0.921,1.07,0.85,0.41,0.11,0.11,1.03,
0.923,1.07,0.85,0.41,0.11,0.11,1.03,
0.924,1.04,0.79,0.46,0.11,0.11,1.03,
0.926,1.04,0.79,0.46,0.11,0.11,1.03,
0.929,1.04,0.79,0.46,0.11,0.11,1.04,
0.929,1.00,0.72,0.54,0.11,0.11,1.04,
0.932,1.00,0.72,0.54,0.10,0.10,1.04,
0.933,1.00,0.72,0.54,0.10,0.10,1.04,
0.934,0.94,0.70,0.60,0.10,0.10,1.04,
0.936,0.94,0.70,0.60,0.10,0.10,1.04,
0.938,0.94,0.70,0.60,0.10,0.10,1.04,
0.939,0.89,0.67,0.63,0.10,0.10,1.04,
0.941,0.89,0.67,0.63,0.10,0.10,1.04,
0.943,0.89,0.67,0.63,0.10,0.09,1.04,
0.944,0.84,0.63,0.65,0.10,0.09,1.04,
0.946,0.84,0.63,0.65,0.10,0.09,1.04,
0.948,0.84,0.63,0.65,0.10,0.09,1.04,
0.949,0.81,0.60,0.68,0.10,0.09,1.04,
0.951,0.81,0.60,0.68,0.09,0.09,1.04,
0.953,0.81,0.60,0.68,0.09,0.09,1.04,
0.953,0.79,0.57,0.68,0.09,0.09,1.04,
0.955,0.79,0.57,0.68,0.09,0.09,1.04,
0.958,0.79,0.57,0.68,0.09,0.08,1.04,
0.958,0.73,0.54,0.67,0.09,0.08,1.04,
0.96,0.73,0.54,0.67,0.09,0.08,1.04,
0.963,0.73,0.54,0.67,0.09,0.08,1.04,
0.963,0.69,0.50,0.65,0.09,0.08,1.04,
0.965,0.69,0.50,0.65,0.08,0.08,1.03,
0.968,0.69,0.50,0.65,0.08,0.08,1.03,
0.968,0.65,0.46,0.62,0.08,0.08,1.03,
0.97,0.65,0.46,0.62,0.08,0.07,1.03,
0.973,0.65,0.46,0.62,0.07,0.07,1.02,
0.973,0.61,0.41,0.56,0.07,0.07,1.02,
0.981,0.61,0.41,0.56,0.07,0.07,1.02,
0.982,0.61,0.41,0.56,0.07,0.07,1.02,
0.982,0.52,0.36,0.49,0.07,0.07,1.02,
0.982,0.52,0.36,0.49,0.07,0.06,1.01,
0.983,0.52,0.36,0.49,0.07,0.06,1.01,
0.983,0.47,0.32,0.43,0.07,0.06,1.01,
0.985,0.47,0.32,0.43,0.06,0.06,1.00,
0.987,0.47,0.32,0.43,0.06,0.06,1.00,
0.988,0.43,0.28,0.37,0.06,0.06,1.00,
0.99,0.43,0.28,0.37,0.06,0.06,1.00,
0.996,0.43,0.28,0.37,0.06,0.06,1.00,
0.996,0.37,0.24,0.28,0.06,0.06,1.00,
0.996,0.37,0.24,0.28,0.05,0.06,0.99,
0.997,0.37,0.24,0.28,0.05,0.06,0.99,
0.997,0.31,0.21,0.23,0.05,0.06,0.99,
0.999,0.31,0.21,0.23,0.05,0.05,0.99,
1.002,0.31,0.21,0.23,0.05,0.05,0.99,
1.002,0.27,0.19,0.19,0.05,0.05,0.99,
1.004,0.27,0.19,0.19,0.05,0.05,0.99,
1.007,0.27,0.19,0.19,0.05,0.04,0.99,
1.007,0.24,0.14,0.19,0.05,0.04,0.99,
1.009,0.24,0.14,0.19,0.05,0.04,0.99,
1.012,0.24,0.14,0.19,0.05,0.04,1.00,
1.012,0.19,0.08,0.18,0.05,0.04,1.00,
1.014,0.19,0.08,0.18,0.05,0.04,1.00,
1.017,0.19,0.08,0.18,0.05,0.04,1.00,
1.017,0.19,0.04,0.21,0.05,0.04,1.00,
1.019,0.19,0.04,0.21,0.04,0.03,1.00,
1.021,0.19,0.04,0.21,0.04,0.03,1.00,
1.021,0.15,-0.02,0.22,0.04,0.03,1.00,
1.024,0.15,-0.02,0.22,0.04,0.03,1.00,
1.027,0.15,-0.02,0.22,0.04,0.02,1.00,
1.027,0.12,-0.08,0.26,0.04,0.02,1.00,
1.029,0.12,-0.08,0.26,0.04,0.02,1.00,
1.031,0.12,-0.08,0.26,0.04,0.01,1.00,
1.031,0.07,-0.17,0.27,0.04,0.01,1.00,
1.034,0.07,-0.17,0.27,0.03,0.01,1.00,
1.036,0.07,-0.17,0.27,0.03,0.01,1.00,
1.036,0.03,-0.25,0.26,0.03,0.01,1.00,
1.039,0.03,-0.25,0.26,0.03,0.00,1.00,
1.041,0.03,-0.25,0.26,0.03,0.00,1.00,
1.042,-0.03,-0.33,0.25,0.03,0.00,1.00,
1.043,-0.03,-0.33,0.25,0.02,-0.00,1.00,
1.046,-0.03,-0.33,0.25,0.02,-0.01,1.00,
1.046,-0.09,-0.38,0.23,0.02,-0.01,1.00,
1.048,-0.09,-0.38,0.23,0.02,-0.01,0.99,
1.051,-0.09,-0.38,0.23,0.02,-0.01,0.99,
1.051,-0.17,-0.45,0.22,0.02,-0.01,0.99,
1.053,-0.17,-0.45,0.22,0.01,-0.02,0.99,
1.056,-0.17,-0.45,0.22,0.01,-0.02,0.99,
1.056,-0.23,-0.53,0.19,0.01,-0.02,0.99,
1.059,-0.23,-0.53,0.19,0.01,-0.02,0.98,
1.061,-0.23,-0.53,0.19,0.00,-0.02,0.98,
1.061,-0.30,-0.58,0.13,0.00,-0.02,0.98,
1.063,-0.30,-0.58,0.13,0.00,-0.02,0.97,
1.065,-0.30,-0.58,0.13,-0.00,-0.02,0.97,
1.066,-0.35,-0.62,0.06,-0.00,-0.02,0.97,
1.068,-0.35,-0.62,0.06,-0.00,-0.02,0.97,
1.07,-0.35,-0.62,0.06,-0.00,-0.02,0.96,
1.071,-0.40,-0.65,-0.03,-0.00,-0.02,0.96,
1.073,-0.40,-0.65,-0.03,-0.01,-0.02,0.96,
1.076,-0.40,-0.65,-0.03,-0.01,-0.02,0.96,
1.076,-0.45,-0.66,-0.09,-0.01,-0.02,0.96,
1.078,-0.45,-0.66,-0.09,-0.01,-0.02,0.96,
1.08,-0.45,-0.66,-0.09,-0.02,-0.02,0.95,
1.081,-0.52,-0.65,-0.14,-0.02,-0.02,0.95,
1.082,-0.52,-0.65,-0.14,-0.02,-0.02,0.95,
1.085,-0.52,-0.65,-0.14,-0.02,-0.02,0.95,
1.086,-0.58,-0.64,-0.19,-0.02,-0.02,0.95,
1.087,-0.58,-0.64,-0.19,-0.02,-0.02,0.95,
1.09,-0.58,-0.64,-0.19,-0.02,-0.02,0.95,
1.09,-0.64,-0.64,-0.21,-0.02,-0.02,0.95,
1.096,-0.64,-0.64,-0.21,-0.02,-0.02,0.95,
1.097,-0.64,-0.64,-0.21,-0.02,-0.02,0.95,
1.097,-0.66,-0.64,-0.22,-0.02,-0.02,0.95,
1.098,-0.66,-0.64,-0.22,-0.02,-0.02,0.95,
1.1,-0.66,-0.64,-0.22,-0.02,-0.02,0.96,
1.1,-0.69,-0.64,-0.21,-0.02,-0.02,0.96,
1.102,-0.69,-0.64,-0.21,-0.02,-0.02,0.96,
1.105,-0.69,-0.64,-0.21,-0.02,-0.03,0.96,
1.105,-0.71,-0.66,-0.18,-0.02,-0.03,0.96,
1.107,-0.71,-0.66,-0.18,-0.02,-0.03,0.97,
1.111,-0.71,-0.66,-0.18,-0.02,-0.03,0.97,
1.111,-0.74,-0.70,-0.11,-0.02,-0.03,0.97,
1.112,-0.74,-0.70,-0.11,-0.03,-0.03,0.97,
1.115,-0.74,-0.70,-0.11,-0.02,-0.03,0.98,
1.115,-0.73,-0.75,-0.05,-0.02,-0.03,0.98,
1.117,-0.73,-0.75,-0.05,-0.02,-0.04,0.98,
1.119,-0.73,-0.75,-0.05,-0.03,-0.04,0.98,
1.119,-0.77,-0.77,0.01,-0.03,-0.04,0.98,
1.121,-0.77,-0.77,0.01,-0.03,-0.04,0.98,
1.125,-0.77,-0.77,0.01,-0.03,-0.04,0.99,
1.125,-0.78,-0.80,0.08,-0.03,-0.04,0.99,
1.127,-0.78,-0.80,0.08,-0.03,-0.05,0.99,
1.129,-0.78,-0.80,0.08,-0.03,-0.05,0.99,
1.129,-0.81,-0.86,0.13,-0.03,-0.05,0.99,
1.131,-0.81,-0.86,0.13,-0.03,-0.05,0.99,
1.134,-0.81,-0.86,0.13,-0.03,-0.05,0.99,
1.134,-0.84,-0.90,0.15,-0.03,-0.05,0.99,
1.136,-0.84,-0.90,0.15,-0.03,-0.05,0.99,
1.139,-0.84,-0.90,0.15,-0.04,-0.05,0.99,
1.139,-0.89,-0.93,0.17,-0.04,-0.05,0.99,
1.141,-0.89,-0.93,0.17,-0.04,-0.05,0.99,
1.144,-0.89,-0.93,0.17,-0.04,-0.05,0.99,
1.144,-0.93,-0.95,0.18,-0.04,-0.05,0.99,
1.146,-0.93,-0.95,0.18,-0.04,-0.05,0.98,
1.149,-0.93,-0.95,0.18,-0.04,-0.05,0.98,
1.149,-0.96,-0.94,0.15,-0.04,-0.05,0.98,
1.151,-0.96,-0.94,0.15,-0.05,-0.05,0.98,
1.154,-0.96,-0.94,0.15,-0.05,-0.05,0.98,
1.154,-1.03,-0.93,0.11,-0.05,-0.05,0.98,
1.156,-1.03,-0.93,0.11,-0.05,-0.05,0.97,
1.159,-1.03,-0.93,0.11,-0.05,-0.05,0.97,
1.159,-1.07,-0.93,0.06,-0.05,-0.05,0.97,
1.161,-1.07,-0.93,0.06,-0.05,-0.05,0.96,
1.163,-1.07,-0.93,0.06,-0.05,-0.04,0.96,
1.164,-1.09,-0.92,-0.01,-0.05,-0.04,0.96,
1.166,-1.09,-0.92,-0.01,-0.05,-0.04,0.95,
1.168,-1.09,-0.92,-0.01,-0.05,-0.04,0.95,
1.168,-1.07,-0.90,-0.10,-0.05,-0.04,0.95,
1.171,-1.07,-0.90,-0.10,-0.05,-0.04,0.95,
1.173,-1.07,-0.90,-0.10,-0.05,-0.04,0.94,
1.174,-1.08,-0.85,-0.19,-0.05,-0.04,0.94,
1.181,-1.08,-0.85,-0.19,-0.06,-0.03,0.94,
1.182,-1.08,-0.85,-0.19,-0.06,-0.03,0.94,
1.182,-1.13,-0.83,-0.27,-0.06,-0.03,0.94,
1.182,-1.13,-0.83,-0.27,-0.06,-0.03,0.93,
1.183,-1.13,-0.83,-0.27,-0.06,-0.03,0.93,
1.183,-1.16,-0.79,-0.33,-0.06,-0.03,0.93,
1.185,-1.16,-0.79,-0.33,-0.06,-0.03,0.93,
1.188,-1.16,-0.79,-0.33,-0.06,-0.02,0.93,
1.188,-1.18,-0.75,-0.39,-0.06,-0.02,0.93,
1.193,-1.18,-0.75,-0.39,-0.06,-0.02,0.93,
1.193,-1.18,-0.75,-0.39,-0.06,-0.02,0.93,
1.194,-1.21,-0.71,-0.43,-0.06,-0.02,0.93,
1.195,-1.21,-0.71,-0.43,-0.06,-0.02,0.93,
1.198,-1.21,-0.71,-0.43,-0.06,-0.02,0.93,
1.198,-1.20,-0.68,-0.45,-0.06,-0.02,0.93,
1.2,-1.20,-0.68,-0.45,-0.05,-0.02,0.93,
1.203,-1.20,-0.68,-0.45,-0.05,-0.02,0.93,
1.203,-1.20,-0.68,-0.43,-0.05,-0.02,0.93,
1.205,-1.20,-0.68,-0.43,-0.05,-0.02,0.94,
1.208,-1.20,-0.68,-0.43,-0.05,-0.02,0.94,
1.208,-1.17,-0.65,-0.40,-0.05,-0.02,0.94,
1.21,-1.17,-0.65,-0.40,-0.05,-0.02,0.94,
1.213,-1.17,-0.65,-0.40,-0.05,-0.02,0.95,
1.213,-1.17,-0.63,-0.34,-0.05,-0.02,0.95,
1.215,-1.17,-0.63,-0.34,-0.05,-0.02,0.95,
1.217,-1.17,-0.63,-0.34,-0.05,-0.02,0.96,
1.217,-1.17,-0.63,-0.26,-0.05,-0.02,0.96,
1.22,-1.17,-0.63,-0.26,-0.05,-0.02,0.97,
1.223,-1.17,-0.63,-0.26,-0.05,-0.02,0.97,
1.223,-1.18,-0.63,-0.15,-0.05,-0.02,0.97,
1.225,-1.18,-0.63,-0.15,-0.05,-0.02,0.97,
1.227,-1.18,-0.63,-0.15,-0.05,-0.02,0.98,
1.228,-1.21,-0.63,-0.03,-0.05,-0.02,0.98,
1.23,-1.21,-0.63,-0.03,-0.05,-0.02,0.99,
1.232,-1.21,-0.63,-0.03,-0.05,-0.02,0.99,
1.232,-1.22,-0.63,0.07,-0.05,-0.02,0.99,
1.234,-1.22,-0.63,0.07,-0.05,-0.02,0.99,
1.237,-1.22,-0.63,0.07,-0.05,-0.03,0.99,
1.237,-1.25,-0.65,0.17,-0.05,-0.03,0.99,
1.24,-1.25,-0.65,0.17,-0.06,-0.03,1.00,
1.242,-1.26,-0.67,0.23,-0.06,-0.03,1.00,
1.243,-1.26,-0.67,0.23,-0.06,-0.03,1.00,
1.244,-1.26,-0.67,0.23,-0.06,-0.03,1.00,
1.247,-1.26,-0.67,0.23,-0.06,-0.03,1.00,
1.247,-1.30,-0.68,0.25,-0.06,-0.03,1.00,
1.249,-1.30,-0.68,0.25,-0.06,-0.03,0.99,
1.252,-1.30,-0.68,0.25,-0.06,-0.03,0.99,
1.252,-1.35,-0.71,0.26,-0.06,-0.03,0.99,
1.254,-1.35,-0.71,0.26,-0.06,-0.03,0.99,
1.258,-1.35,-0.71,0.26,-0.06,-0.03,0.99,
1.259,-1.35,-0.71,0.23,-0.06,-0.03,0.99,
1.259,-1.35,-0.71,0.23,-0.06,-0.02,0.98,
1.262,-1.35,-0.71,0.23,-0.06,-0.02,0.98,
1.262,-1.34,-0.72,0.18,-0.06,-0.02,0.98,
1.264,-1.34,-0.72,0.18,-0.05,-0.02,0.98,
1.266,-1.34,-0.72,0.18,-0.05,-0.02,0.97,
1.267,-1.34,-0.67,0.12,-0.05,-0.02,0.97,
1.269,-1.34,-0.67,0.12,-0.05,-0.02,0.97,
1.271,-1.34,-0.67,0.12,-0.05,-0.02,0.96,
1.272,-1.29,-0.65,0.03,-0.05,-0.02,0.96,
1.275,-1.29,-0.65,0.03,-0.05,-0.01,0.96,
1.276,-1.29,-0.65,0.03,-0.05,-0.01,0.95,
1.279,-1.25,-0.60,-0.07,-0.05,-0.01,0.95,
1.28,-1.25,-0.60,-0.07,-0.05,-0.01,0.95,
1.281,-1.25,-0.60,-0.07,-0.05,-0.00,0.95,
1.281,-1.23,-0.54,-0.15,-0.05,-0.00,0.95,
1.283,-1.23,-0.54,-0.15,-0.05,0.00,0.94,
1.286,-1.23,-0.54,-0.15,-0.04,0.00,0.94,
1.286,-1.24,-0.47,-0.21,-0.04,0.00,0.94,
1.288,-1.24,-0.47,-0.21,-0.04,0.01,0.94,
1.297,-1.24,-0.47,-0.21,-0.04,0.01,0.94,
1.298,-1.20,-0.41,-0.27,-0.04,0.01,0.94,
1.298,-1.20,-0.41,-0.27,-0.04,0.01,0.95,
1.298,-1.20,-0.41,-0.27,-0.04,0.02,0.95,
1.299,-1.17,-0.33,-0.26,-0.04,0.02,0.95,
1.299,-1.17,-0.33,-0.26,-0.04,0.02,0.95,
1.301,-1.17,-0.33,-0.26,-0.04,0.03,0.95,
1.301,-1.15,-0.26,-0.25,-0.04,0.03,0.95,
1.303,-1.15,-0.26,-0.25,-0.04,0.03,0.95,
1.306,-1.15,-0.26,-0.25,-0.04,0.03,0.95,
1.306,-1.15,-0.17,-0.24,-0.04,0.03,0.95,
1.309,-1.15,-0.17,-0.24,-0.04,0.03,0.95,
1.313,-1.15,-0.17,-0.24,-0.04,0.03,0.95,
1.313,-1.13,-0.12,-0.21,-0.04,0.03,0.95,
1.313,-1.13,-0.12,-0.21,-0.05,0.03,0.95,
1.315,-1.13,-0.12,-0.21,-0.05,0.04,0.96,
1.315,-1.16,-0.07,-0.19,-0.05,0.04,0.96,
1.317,-1.16,-0.07,-0.19,-0.05,0.04,0.96,
1.32,-1.21,-0.05,-0.15,-0.05,0.04,0.96,
1.32,-1.21,-0.05,-0.15,-0.06,0.04,0.96,
1.323,-1.21,-0.05,-0.15,-0.06,0.04,0.96,
1.325,-1.21,-0.05,-0.15,-0.06,0.04,0.96,
1.326,-1.27,-0.03,-0.11,-0.06,0.04,0.96,
1.327,-1.27,-0.03,-0.11,-0.07,0.04,0.97,
1.33,-1.27,-0.03,-0.11,-0.08,0.04,0.97,
1.33,-1.36,-0.00,-0.07,-0.08,0.04,0.97,
1.332,-1.36,-0.00,-0.07,-0.08,0.04,0.97,
1.335,-1.36,-0.00,-0.07,-0.09,0.03,0.97,
1.335,-1.48,-0.01,-0.03,-0.09,0.03,0.97,
1.337,-1.48,-0.01,-0.03,-0.09,0.03,0.97,
1.34,-1.48,-0.01,-0.03,-0.10,0.03,0.97,
1.341,-1.58,-0.03,-0.01,-0.10,0.03,0.97,
1.343,-1.58,-0.03,-0.01,-0.10,0.03,0.97,
1.345,-1.58,-0.03,-0.01,-0.10,0.02,0.97,
1.345,-1.68,-0.07,0.01,-0.10,0.02,0.97,
1.347,-1.68,-0.07,0.01,-0.11,0.02,0.97,
1.35,-1.68,-0.07,0.01,-0.11,0.02,0.98,
1.35,-1.75,-0.11,0.03,-0.11,0.02,0.98,
1.352,-1.75,-0.11,0.03,-0.11,0.02,0.98,
1.355,-1.75,-0.11,0.03,-0.11,0.02,0.98,
1.355,-1.84,-0.15,0.06,-0.11,0.02,0.98,
1.358,-1.84,-0.15,0.06,-0.12,0.02,0.98,
1.36,-1.84,-0.15,0.06,-0.12,0.02,0.98,
1.36,-1.88,-0.16,0.09,-0.12,0.02,0.98,
1.362,-1.88,-0.16,0.09,-0.12,0.02,0.99,
1.364,-1.88,-0.16,0.09,-0.12,0.02,0.99,
1.365,-1.92,-0.16,0.12,-0.12,0.02,0.99,
1.367,-1.92,-0.16,0.12,-0.12,0.02,0.99,
1.369,-1.92,-0.16,0.12,-0.12,0.03,1.00,
1.369,-1.93,-0.12,0.17,-0.12,0.03,1.00,
1.372,-1.93,-0.12,0.17,-0.12,0.03,1.00,
1.375,-1.93,-0.12,0.17,-0.11,0.03,1.01,
1.375,-1.94,-0.05,0.25,-0.11,0.03,1.01,
1.377,-1.94,-0.05,0.25,-0.11,0.04,1.01,
1.379,-1.94,-0.05,0.25,-0.11,0.04,1.01,
1.379,-1.87,0.03,0.34,-0.11,0.04,1.01,
1.381,-1.87,0.03,0.34,-0.10,0.05,1.01,
1.384,-1.87,0.03,0.34,-0.10,0.05,1.02,
1.384,-1.79,0.13,0.40,-0.10,0.05,1.02,
1.386,-1.79,0.13,0.40,-0.09,0.05,1.02,
1.389,-1.79,0.13,0.40,-0.08,0.06,1.02,
1.389,-1.71,0.22,0.44,-0.08,0.06,1.02,
1.397,-1.71,0.22,0.44,-0.08,0.06,1.02,
1.397,-1.58,0.30,0.47,-0.08,0.06,1.02,
1.398,-1.58,0.30,0.47,-0.08,0.06,1.02,
1.398,-1.58,0.30,0.47,-0.07,0.07,1.01,
1.399,-1.58,0.30,0.47,-0.07,0.07,1.01,
1.399,-1.49,0.39,0.45,-0.07,0.07,1.01,
1.401,-1.49,0.39,0.45,-0.07,0.08,1.01,
1.403,-1.49,0.39,0.45,-0.07,0.08,1.01,
1.404,-1.43,0.48,0.41,-0.07,0.08,1.01,
1.406,-1.43,0.48,0.41,-0.07,0.09,1.00,
1.409,-1.43,0.48,0.41,-0.07,0.09,1.00,
1.409,-1.38,0.57,0.35,-0.07,0.09,1.00,
1.411,-1.38,0.57,0.35,-0.07,0.10,0.99,
1.413,-1.38,0.57,0.35,-0.06,0.10,0.99,
1.413,-1.35,0.65,0.25,-0.06,0.10,0.99,
1.415,-1.35,0.65,0.25,-0.06,0.10,0.98,
1.418,-1.32,0.73,0.17,-0.06,0.10,0.98,
1.419,-1.32,0.73,0.17,-0.06,0.10,0.98,
1.42,-1.32,0.73,0.17,-0.06,0.11,0.98,
1.424,-1.32,0.73,0.17,-0.06,0.11,0.97,
1.425,-1.28,0.78,0.09,-0.06,0.11,0.97,
1.425,-1.28,0.78,0.09,-0.06,0.11,0.98,
1.428,-1.28,0.78,0.09,-0.06,0.11,0.97,
1.429,-1.25,0.84,0.04,-0.06,0.11,0.97,
1.43,-1.25,0.84,0.04,-0.06,0.12,0.97,
1.433,-1.25,0.84,0.04,-0.06,0.12,0.97,
1.433,-1.22,0.89,0.02,-0.06,0.12,0.97,
1.435,-1.22,0.89,0.02,-0.06,0.12,0.97,
1.438,-1.22,0.89,0.02,-0.05,0.11,0.98,
1.438,-1.17,0.92,0.01,-0.05,0.11,0.98,
1.441,-1.17,0.92,0.01,-0.05,0.11,0.98,
1.443,-1.17,0.92,0.01,-0.05,0.12,0.98,
1.444,-1.14,0.91,0.03,-0.05,0.12,0.98,
1.445,-1.14,0.91,0.03,-0.05,0.11,0.99,
1.448,-1.14,0.91,0.03,-0.05,0.11,0.99,
1.448,-1.12,0.92,0.09,-0.05,0.11,0.99,
1.458,-1.12,0.92,0.09,-0.05,0.11,1.00,
1.459,-1.12,0.92,0.09,-0.05,0.11,1.00,
1.459,-1.10,0.88,0.17,-0.05,0.11,1.00,
1.459,-1.10,0.88,0.17,-0.05,0.11,1.01,
1.459,-1.10,0.88,0.17,-0.05,0.10,1.01,
1.46,-1.09,0.86,0.26,-0.05,0.10,1.01,
1.461,-1.09,0.86,0.26,-0.06,0.10,1.02,
1.463,-1.09,0.86,0.26,-0.06,0.10,1.02,
1.463,-1.09,0.83,0.34,-0.06,0.10,1.02,
1.465,-1.09,0.83,0.34,-0.06,0.10,1.02,
1.467,-1.09,0.83,0.34,-0.06,0.10,1.03,
1.468,-1.11,0.80,0.44,-0.06,0.10,1.03,
1.47,-1.11,0.80,0.44,-0.07,0.10,1.03,
1.472,-1.11,0.80,0.44,-0.07,0.10,1.03,
1.473,-1.12,0.78,0.50,-0.07,0.10,1.03,
1.48,-1.12,0.78,0.50,-0.07,0.10,1.03,
1.48,-1.12,0.78,0.50,-0.07,0.10,1.04,
1.481,-1.16,0.76,0.55,-0.07,0.10,1.04,
1.481,-1.16,0.76,0.55,-0.07,0.09,1.04,
1.482,-1.16,0.76,0.55,-0.08,0.09,1.04,
1.483,-1.18,0.77,0.59,-0.08,0.09,1.04,
1.484,-1.18,0.77,0.59,-0.08,0.09,1.04,
1.487,-1.18,0.77,0.59,-0.08,0.10,1.03,
1.487,-1.19,0.75,0.59,-0.08,0.10,1.03,
1.489,-1.19,0.75,0.59,-0.08,0.09,1.03,
1.492,-1.20,0.77,0.57,-0.08,0.09,1.03,
1.493,-1.20,0.77,0.57,-0.08,0.09,1.03,
1.494,-1.20,0.77,0.57,-0.08,0.10,1.03,
1.497,-1.20,0.77,0.57,-0.08,0.10,1.03,
1.497,-1.17,0.77,0.53,-0.08,0.10,1.03,
1.499,-1.17,0.77,0.53,-0.08,0.10,1.02,
1.501,-1.17,0.77,0.53,-0.08,0.10,1.02,
1.502,-1.17,0.80,0.49,-0.08,0.10,1.02,
1.504,-1.17,0.80,0.49,-0.08,0.10,1.02,
1.507,-1.17,0.80,0.49,-0.08,0.10,1.02,
1.507,-1.13,0.83,0.44,-0.08,0.10,1.02,
1.509,-1.13,0.83,0.44,-0.08,0.10,1.01,
1.511,-1.13,0.83,0.44,-0.07,0.10,1.01,
1.512,-1.05,0.84,0.39,-0.07,0.10,1.01,
1.514,-1.05,0.84,0.39,-0.07,0.10,1.01,
1.516,-1.05,0.84,0.39,-0.07,0.11,1.00,
1.516,-1.00,0.86,0.31,-0.07,0.11,1.00,
1.519,-1.00,0.86,0.31,-0.07,0.11,1.00,
1.521,-1.00,0.86,0.31,-0.06,0.11,0.99,
1.521,-0.92,0.88,0.23,-0.06,0.11,0.99,
1.523,-0.92,0.88,0.23,-0.06,0.11,0.99,
1.527,-0.84,0.93,0.14,-0.06,0.11,0.99,
1.527,-0.84,0.93,0.14,-0.06,0.11,0.99,
1.529,-0.84,0.93,0.14,-0.06,0.11,0.98,
1.533,-0.84,0.93,0.14,-0.06,0.12,0.98,
1.533,-0.76,0.94,0.07,-0.06,0.12,0.98,
1.534,-0.76,0.94,0.07,-0.06,0.12,0.98,
1.536,-0.76,0.94,0.07,-0.06,0.11,0.98,
1.536,-0.71,0.98,0.02,-0.06,0.11,0.98,
1.538,-0.71,0.98,0.02,-0.06,0.11,0.98,
1.541,-0.71,0.98,0.02,-0.06,0.11,0.98,
1.541,-0.70,0.99,0.01,-0.06,0.11,0.98,
1.543,-0.70,0.99,0.01,-0.06,0.11,0.98,
1.546,-0.70,0.99,0.01,-0.06,0.11,0.98,
1.546,-0.68,0.98,-0.01,-0.06,0.11,0.98,
1.548,-0.68,0.98,-0.01,-0.06,0.11,0.98,
1.55,-0.68,0.98,-0.01,-0.06,0.10,0.98,
1.551,-0.68,0.94,-0.01,-0.06,0.10,0.98,
1.553,-0.68,0.94,-0.01,-0.06,0.10,0.98,
1.556,-0.68,0.94,-0.01,-0.06,0.10,0.98,
1.556,-0.67,0.90,0.01,-0.06,0.10,0.98,
1.558,-0.67,0.90,0.01,-0.06,0.09,0.98,
1.56,-0.67,0.90,0.01,-0.06,0.09,0.98,
1.56,-0.68,0.83,-0.01,-0.06,0.09,0.98,
1.562,-0.68,0.83,-0.01,-0.06,0.09,0.98,
1.565,-0.68,0.83,-0.01,-0.07,0.09,0.98,
1.566,-0.67,0.77,-0.02,-0.07,0.09,0.98,
1.567,-0.67,0.77,-0.02,-0.07,0.09,0.98,
1.57,-0.67,0.77,-0.02,-0.06,0.09,0.98,
1.57,-0.66,0.74,-0.01,-0.06,0.09,0.98,
1.573,-0.66,0.74,-0.01,-0.06,0.08,0.97,
1.575,-0.66,0.74,-0.01,-0.06,0.09,0.97,
1.576,-0.65,0.72,-0.03,-0.06,0.09,0.97,
1.578,-0.65,0.72,-0.03,-0.06,0.08,0.97,
1.58,-0.65,0.72,-0.03,-0.05,0.09,0.97,
1.58,-0.63,0.71,-0.06,-0.05,0.09,0.97,
1.582,-0.63,0.71,-0.06,-0.05,0.09,0.97,
1.585,-0.63,0.71,-0.06,-0.05,0.09,0.98,
1.585,-0.55,0.72,-0.06,-0.05,0.09,0.98,
1.587,-0.55,0.72,-0.06,-0.04,0.09,0.98,
1.596,-0.55,0.72,-0.06,-0.04,0.09,0.98,
1.596,-0.45,0.75,-0.05,-0.04,0.09,0.98,
1.596,-0.45,0.75,-0.05,-0.03,0.09,0.98,
1.597,-0.45,0.75,-0.05,-0.03,0.09,0.98,
1.597,-0.34,0.77,-0.02,-0.03,0.09,0.98,
1.597,-0.34,0.77,-0.02,-0.02,0.09,0.98,
1.6,-0.34,0.77,-0.02,-0.01,0.09,0.99,
1.6,-0.22,0.80,-0.00,-0.01,0.09,0.99,
1.602,-0.22,0.80,-0.00,-0.01,0.09,0.99,
1.604,-0.22,0.80,-0.00,-0.00,0.10,0.99,
1.604,-0.11,0.81,0.05,-0.00,0.10,0.99,
1.609,-0.11,0.81,0.05,0.00,0.10,1.00,
1.609,-0.11,0.81,0.05,0.01,0.10,1.00,
1.609,0.01,0.83,0.08,0.01,0.10,1.00,
1.611,0.01,0.83,0.08,0.01,0.10,1.00,
1.614,0.01,0.83,0.08,0.02,0.10,1.01,
1.614,0.13,0.85,0.19,0.02,0.10,1.01,
1.616,0.13,0.85,0.19,0.02,0.10,1.01,
1.619,0.13,0.85,0.19,0.02,0.10,1.01,
1.619,0.23,0.87,0.25,0.02,0.10,1.01,
1.621,0.23,0.87,0.25,0.02,0.10,1.01,
1.624,0.23,0.87,0.25,0.03,0.10,1.01,
1.624,0.29,0.87,0.26,0.03,0.10,1.01,
1.626,0.29,0.87,0.26,0.03,0.10,1.01,
1.629,0.29,0.87,0.26,0.04,0.10,1.01,
1.629,0.35,0.91,0.30,0.04,0.10,1.01,
1.631,0.35,0.91,0.30,0.04,0.10,1.01,
1.634,0.35,0.91,0.30,0.04,0.10,1.01,
1.634,0.43,0.92,0.31,0.04,0.10,1.01,
1.636,0.43,0.92,0.31,0.05,0.10,1.01,
1.639,0.43,0.92,0.31,0.05,0.10,1.00,
1.64,0.50,0.92,0.29,0.05,0.10,1.00,
1.641,0.50,0.92,0.29,0.05,0.10,1.00,
1.643,0.50,0.92,0.29,0.05,0.10,1.00,
1.644,0.57,0.89,0.24,0.05,0.10,1.00,
1.646,0.57,0.89,0.24,0.05,0.10,0.99,
1.648,0.57,0.89,0.24,0.05,0.10,0.99,
1.648,0.63,0.89,0.18,0.05,0.10,0.99,
1.651,0.63,0.89,0.18,0.05,0.10,0.98,
1.653,0.63,0.89,0.18,0.05,0.10,0.98,
1.654,0.64,0.90,0.07,0.05,0.10,0.98,
1.655,0.64,0.90,0.07,0.05,0.10,0.97,
1.658,0.64,0.90,0.07,0.05,0.10,0.97,
1.659,0.62,0.90,-0.04,0.05,0.10,0.97,
1.66,0.62,0.90,-0.04,0.06,0.10,0.96,
1.663,0.64,0.88,-0.12,0.06,0.10,0.96,
1.663,0.64,0.88,-0.12,0.06,0.10,0.96,
1.665,0.64,0.88,-0.12,0.06,0.10,0.96,
1.668,0.64,0.88,-0.12,0.06,0.10,0.95,
1.668,0.68,0.84,-0.21,0.06,0.10,0.95,
1.67,0.68,0.84,-0.21,0.06,0.09,0.95,
1.673,0.68,0.84,-0.21,0.06,0.09,0.94,
1.673,0.71,0.81,-0.27,0.06,0.09,0.94,
1.675,0.71,0.81,-0.27,0.06,0.09,0.94,
1.678,0.71,0.81,-0.27,0.06,0.09,0.94,
1.678,0.70,0.78,-0.35,0.06,0.09,0.94,
1.68,0.70,0.78,-0.35,0.06,0.09,0.94,
1.683,0.70,0.78,-0.35,0.05,0.09,0.94,
1.683,0.69,0.77,-0.37,0.05,0.09,0.94,
1.685,0.69,0.77,-0.37,0.05,0.09,0.95,
1.688,0.69,0.77,-0.37,0.05,0.09,0.95,
1.688,0.67,0.76,-0.36,0.05,0.09,0.95,
1.694,0.67,0.76,-0.36,0.05,0.09,0.95,
1.694,0.67,0.76,-0.36,0.05,0.09,0.95,
1.695,0.63,0.77,-0.31,0.05,0.09,0.95,
1.695,0.63,0.77,-0.31,0.05,0.09,0.96,
1.697,0.63,0.77,-0.31,0.05,0.09,0.97,
1.698,0.63,0.74,-0.25,0.05,0.09,0.97,
1.7,0.63,0.74,-0.25,0.04,0.09,0.97,
1.702,0.63,0.74,-0.25,0.04,0.08,0.98,
1.703,0.61,0.74,-0.17,0.04,0.08,0.98,
1.705,0.61,0.74,-0.17,0.04,0.08,0.98,
1.707,0.61,0.74,-0.17,0.04,0.08,0.99,
1.708,0.58,0.71,-0.06,0.04,0.08,0.99,
1.709,0.58,0.71,-0.06,0.04,0.08,1.00,
1.712,0.58,0.71,-0.06,0.04,0.08,1.00,
1.712,0.55,0.68,0.07,0.04,0.08,1.00,
1.714,0.55,0.68,0.07,0.04,0.07,1.01,
1.717,0.55,0.68,0.07,0.03,0.07,1.02,
1.717,0.51,0.62,0.19,0.03,0.07,1.02,
1.719,0.51,0.62,0.19,0.03,0.06,1.03,
1.722,0.51,0.62,0.19,0.03,0.06,1.03,
1.723,0.49,0.56,0.34,0.03,0.06,1.03,
1.724,0.49,0.56,0.34,0.03,0.06,1.04,
1.727,0.49,0.56,0.34,0.03,0.05,1.04,
1.727,0.46,0.49,0.48,0.03,0.05,1.04,
1.729,0.46,0.49,0.48,0.03,0.05,1.05,
1.732,0.46,0.49,0.48,0.03,0.05,1.06,
1.732,0.47,0.43,0.60,0.03,0.05,1.06,
1.734,0.47,0.43,0.60,0.03,0.05,1.06,
1.737,0.47,0.43,0.60,0.04,0.05,1.06,
1.737,0.45,0.41,0.71,0.04,0.05,1.06,
1.739,0.45,0.41,0.71,0.04,0.05,1.07,
1.742,0.49,0.39,0.78,0.04,0.05,1.07,
1.742,0.49,0.39,0.78,0.03,0.05,1.07,
1.744,0.49,0.39,0.78,0.03,0.05,1.07,
1.746,0.49,0.39,0.78,0.04,0.05,1.07,
1.746,0.49,0.37,0.83,0.04,0.05,1.07,
1.749,0.49,0.37,0.83,0.04,0.04,1.06,
1.751,0.49,0.37,0.83,0.04,0.04,1.06,
1.751,0.50,0.35,0.83,0.04,0.04,1.06,
1.754,0.50,0.35,0.83,0.04,0.04,1.06,
1.757,0.50,0.35,0.83,0.04,0.04,1.05,
1.757,0.55,0.30,0.78,0.04,0.04,1.05,
1.759,0.55,0.30,0.78,0.05,0.04,1.05,
1.761,0.55,0.30,0.78,0.05,0.04,1.05,
1.761,0.55,0.28,0.70,0.05,0.04,1.05,
1.763,0.55,0.28,0.70,0.05,0.05,1.04,
1.766,0.63,0.28,0.62,0.05,0.05,1.04,
1.768,0.63,0.28,0.62,0.05,0.05,1.03,
1.768,0.63,0.28,0.62,0.05,0.05,1.03,
1.771,0.63,0.28,0.62,0.06,0.05,1.02,
1.772,0.64,0.30,0.51,0.06,0.05,1.02,
1.779,0.64,0.30,0.51,0.06,0.05,1.02,
1.779,0.64,0.30,0.51,0.06,0.05,1.02,
1.78,0.69,0.33,0.40,0.06,0.05,1.02,
1.78,0.69,0.33,0.40,0.06,0.06,1.01,
1.781,0.69,0.33,0.40,0.06,0.06,1.01,
1.781,0.74,0.34,0.32,0.06,0.06,1.01,
1.783,0.74,0.34,0.32,0.06,0.06,1.01,
1.785,0.74,0.34,0.32,0.06,0.06,1.01,
1.786,0.75,0.39,0.25,0.06,0.06,1.01,
1.794,0.75,0.39,0.25,0.06,0.06,1.00,
1.794,0.75,0.39,0.25,0.06,0.07,1.00,
1.794,0.76,0.43,0.19,0.06,0.07,1.00,
1.794,0.76,0.43,0.19,0.06,0.07,1.00,
1.795,0.76,0.43,0.19,0.06,0.06,1.00,
1.795,0.72,0.44,0.16,0.06,0.06,1.00,
1.797,0.72,0.44,0.16,0.05,0.06,1.00,
1.8,0.72,0.44,0.16,0.05,0.06,1.00,
1.8,0.70,0.43,0.17,0.05,0.06,1.00,
1.802,0.70,0.43,0.17,0.05,0.06,1.01,
1.805,0.70,0.43,0.17,0.05,0.06,1.01,
1.806,0.67,0.41,0.16,0.05,0.06,1.01,
1.807,0.67,0.41,0.16,0.05,0.06,1.01,
1.81,0.67,0.41,0.16,0.05,0.06,1.01,
1.811,0.66,0.39,0.19,0.05,0.06,1.01,
1.814,0.66,0.39,0.19,0.05,0.06,1.01,
1.815,0.66,0.39,0.19,0.05,0.06,1.02,
1.815,0.62,0.37,0.23,0.05,0.06,1.02,
1.817,0.62,0.37,0.23,0.04,0.05,1.02,
1.82,0.59,0.33,0.26,0.04,0.05,1.02,
1.82,0.59,0.33,0.26,0.04,0.05,1.02,
1.822,0.59,0.33,0.26,0.04,0.05,1.03,
1.825,0.59,0.33,0.26,0.04,0.05,1.03,
1.825,0.54,0.27,0.35,0.04,0.05,1.03,
1.827,0.54,0.27,0.35,0.04,0.05,1.03,
1.83,0.54,0.27,0.35,0.05,0.05,1.03,
1.83,0.53,0.25,0.39,0.05,0.05,1.03,
1.832,0.53,0.25,0.39,0.05,0.05,1.03,
1.835,0.56,0.22,0.43,0.05,0.05,1.03,
1.835,0.56,0.22,0.43,0.04,0.05,1.04,
1.837,0.56,0.22,0.43,0.05,0.04,1.03,
1.84,0.56,0.22,0.43,0.05,0.04,1.04,
1.84,0.55,0.18,0.45,0.05,0.04,1.04,
1.842,0.55,0.18,0.45,0.05,0.04,1.04,
1.844,0.55,0.18,0.45,0.05,0.04,1.04,
1.845,0.55,0.14,0.45,0.05,0.04,1.04,
1.847,0.55,0.14,0.45,0.04,0.04,1.03,
1.849,0.55,0.14,0.45,0.05,0.04,1.03,
1.849,0.54,0.09,0.45,0.05,0.04,1.03,
1.851,0.54,0.09,0.45,0.05,0.04,1.03,
1.854,0.54,0.09,0.45,0.05,0.04,1.03,
1.855,0.53,0.06,0.42,0.05,0.04,1.03,
1.857,0.53,0.06,0.42,0.05,0.04,1.03,
1.859,0.53,0.06,0.42,0.05,0.04,1.02,
1.859,0.56,0.03,0.38,0.05,0.04,1.02,
1.861,0.56,0.03,0.38,0.06,0.04,1.02,
1.864,0.56,0.03,0.38,0.06,0.04,1.02,
1.864,0.59,0.01,0.35,0.06,0.04,1.02,
1.866,0.59,0.01,0.35,0.06,0.04,1.02,
1.869,0.59,0.01,0.35,0.06,0.04,1.01,
1.869,0.63,0.00,0.31,0.06,0.04,1.01,
1.878,0.63,0.00,0.31,0.06,0.04,1.01,
1.878,0.63,0.00,0.31,0.06,0.04,1.01,
1.879,0.64,0.01,0.25,0.06,0.04,1.01,
1.879,0.64,0.01,0.25,0.06,0.04,1.01,
1.879,0.64,0.01,0.25,0.06,0.04,1.01,
1.879,0.67,0.01,0.21,0.06,0.04,1.01,
1.881,0.67,0.01,0.21,0.07,0.04,1.01,
1.883,0.67,0.01,0.21,0.07,0.04,1.01,
1.884,0.70,0.02,0.18,0.07,0.04,1.01,
1.886,0.70,0.02,0.18,0.07,0.04,1.01,
1.889,0.70,0.02,0.18,0.07,0.04,1.01,
1.889,0.71,0.04,0.16,0.07,0.04,1.01,
1.891,0.71,0.04,0.16,0.07,0.04,1.01,
1.893,0.71,0.04,0.16,0.07,0.04,1.01,
1.893,0.70,0.02,0.17,0.07,0.04,1.01,
1.896,0.70,0.02,0.17,0.07,0.04,1.01,
1.898,0.70,0.02,0.17,0.07,0.04,1.01,
1.898,0.72,0.00,0.20,0.07,0.04,1.01,
1.9,0.72,0.00,0.20,0.07,0.04,1.01,
1.903,0.72,0.00,0.20,0.07,0.04,1.01,
1.903,0.70,-0.01,0.18,0.07,0.04,1.01,
1.905,0.70,-0.01,0.18,0.06,0.04,1.01,
1.908,0.70,-0.01,0.18,0.06,0.04,1.01,
1.908,0.70,-0.04,0.17,0.06,0.04,1.01,
1.91,0.70,-0.04,0.17,0.06,0.03,1.00,
1.913,0.70,-0.04,0.17,0.06,0.03,1.00,
1.913,0.67,-0.09,0.14,0.06,0.03,1.00,
1.915,0.67,-0.09,0.14,0.06,0.03,1.00,
1.918,0.67,-0.09,0.14,0.06,0.03,1.00,
1.918,0.65,-0.13,0.11,0.06,0.03,1.00,
1.92,0.65,-0.13,0.11,0.05,0.02,1.00,
1.923,0.65,-0.13,0.11,0.05,0.02,1.00,
1.923,0.62,-0.20,0.10,0.05,0.02,1.00,
1.925,0.62,-0.20,0.10,0.04,0.02,0.99,
1.928,0.62,-0.20,0.10,0.04,0.01,0.99,
1.928,0.55,-0.28,0.06,0.04,0.01,0.99,
1.93,0.55,-0.28,0.06,0.04,0.01,0.99,
1.932,0.55,-0.28,0.06,0.04,0.01,0.99,
1.932,0.45,-0.35,0.00,0.04,0.01,0.99,
1.935,0.45,-0.35,0.00,0.04,0.01,0.98,
1.938,0.45,-0.35,0.00,0.03,0.01,0.98,
1.939,0.41,-0.39,-0.04,0.03,0.01,0.98,
1.94,0.41,-0.39,-0.04,0.03,0.01,0.98,
1.942,0.41,-0.39,-0.04,0.03,0.01,0.98,
1.943,0.38,-0.44,-0.09,0.03,0.01,0.98,
1.944,0.38,-0.44,-0.09,0.03,0.00,0.97,
1.947,0.38,-0.44,-0.09,0.03,0.00,0.97,
1.947,0.34,-0.45,-0.14,0.03,0.00,0.97,
1.949,0.34,-0.45,-0.14,0.03,0.00,0.97,
1.952,0.34,-0.45,-0.14,0.03,-0.00,0.97,
1.952,0.33,-0.49,-0.19,0.03,-0.00,0.97,
1.955,0.33,-0.49,-0.19,0.03,-0.00,0.97,
1.957,0.33,-0.53,-0.20,0.03,-0.00,0.97,
1.957,0.33,-0.53,-0.20,0.03,-0.00,0.97,
1.959,0.33,-0.53,-0.20,0.03,-0.00,0.97,
1.962,0.33,-0.53,-0.20,0.03,-0.00,0.97,
1.962,0.34,-0.54,-0.22,0.03,-0.00,0.97,
1.964,0.34,-0.54,-0.22,0.03,-0.00,0.97,
1.967,0.34,-0.54,-0.22,0.03,-0.00,0.97,
1.967,0.31,-0.55,-0.22,0.03,-0.00,0.97,
1.969,0.31,-0.55,-0.22,0.03,-0.00,0.97,
1.972,0.31,-0.55,-0.22,0.03,-0.00,0.97,
1.973,0.30,-0.56,-0.21,0.03,-0.00,0.97,
1.974,0.30,-0.56,-0.21,0.03,-0.00,0.97,
1.977,0.30,-0.56,-0.21,0.03,-0.00,0.97,
1.977,0.30,-0.56,-0.21,0.03,-0.00,0.97,
1.979,0.30,-0.56,-0.21,0.02,-0.01,0.97,
1.981,0.28,-0.58,-0.20,0.02,-0.01,0.97,
1.982,0.28,-0.58,-0.20,0.02,-0.01,0.97,
1.984,0.28,-0.58,-0.20,0.03,-0.01,0.97,
1.986,0.28,-0.58,-0.20,0.03,-0.01,0.97,
1.987,0.26,-0.61,-0.19,0.03,-0.01,0.97,
1.993,0.26,-0.61,-0.19,0.03,-0.01,0.97,
1.994,0.26,-0.61,-0.19,0.03,-0.01,0.97,
1.994,0.27,-0.63,-0.18,0.03,-0.01,0.97,
1.994,0.27,-0.63,-0.18,0.03,-0.01,0.97,
1.996,0.27,-0.63,-0.18,0.03,-0.01,0.97,
1.996,0.27,-0.66,-0.18,0.03,-0.01,0.97,
1.998,0.27,-0.66,-0.18,0.03,-0.01,0.97,
2.001,0.27,-0.66,-0.18,0.03,-0.02,0.97,
2.001,0.29,-0.67,-0.19,0.03,-0.02,0.97,
2.003,0.29,-0.67,-0.19,0.02,-0.02,0.97,
2.006,0.29,-0.67,-0.19,0.02,-0.02,0.97,
2.007,0.27,-0.70,-0.19,0.02,-0.02,0.97,
2.008,0.27,-0.70,-0.19,0.03,-0.02,0.97,
2.011,0.27,-0.70,-0.19,0.03,-0.02,0.97,
2.011,0.24,-0.72,-0.18,0.03,-0.02,0.97,
2.013,0.24,-0.72,-0.18,0.03,-0.02,0.97,
2.015,0.24,-0.72,-0.18,0.03,-0.02,0.97,
2.016,0.25,-0.74,-0.16,0.03,-0.02,0.97,
2.018,0.25,-0.74,-0.16,0.04,-0.02,0.97,
2.021,0.25,-0.74,-0.16,0.04,-0.02,0.97,
2.021,0.30,-0.77,-0.16,0.04,-0.02,0.97,
2.023,0.30,-0.77,-0.16,0.04,-0.02,0.97,
2.026,0.30,-0.77,-0.16,0.04,-0.02,0.97,
2.026,0.36,-0.80,-0.19,0.04,-0.02,0.97,
2.028,0.36,-0.80,-0.19,0.04,-0.02,0.97,
2.03,0.36,-0.80,-0.19,0.05,-0.02,0.97,
2.03,0.39,-0.80,-0.20,0.05,-0.02,0.97,
2.032,0.39,-0.80,-0.20,0.05,-0.02,0.97,
2.035,0.39,-0.80,-0.20,0.05,-0.02,0.97,
2.035,0.42,-0.77,-0.20,0.05,-0.02,0.97,
2.037,0.42,-0.77,-0.20,0.05,-0.01,0.97,
2.04,0.42,-0.77,-0.20,0.05,-0.01,0.97,
2.041,0.45,-0.73,-0.20,0.05,-0.01,0.97,
2.043,0.45,-0.73,-0.20,0.06,-0.01,0.97,
2.045,0.45,-0.73,-0.20,0.06,-0.01,0.97,
2.046,0.49,-0.69,-0.20,0.06,-0.01,0.97,
2.047,0.49,-0.69,-0.20,0.06,-0.00,0.97,
2.05,0.49,-0.69,-0.20,0.06,-0.00,0.97,
2.05,0.53,-0.65,-0.17,0.06,-0.00,0.97,
2.053,0.53,-0.65,-0.17,0.07,0.00,0.97,
2.055,0.53,-0.65,-0.17,0.07,0.00,0.97,
2.056,0.57,-0.60,-0.15,0.07,0.00,0.97,
2.057,0.57,-0.60,-0.15,0.07,0.00,0.98,
2.06,0.57,-0.60,-0.15,0.07,0.00,0.98,
2.06,0.62,-0.57,-0.12,0.07,0.00,0.98,
2.062,0.62,-0.57,-0.12,0.07,0.01,0.98,
2.065,0.62,-0.57,-0.12,0.07,0.01,0.98,
2.065,0.65,-0.54,-0.10,0.07,0.01,0.98,
2.067,0.65,-0.54,-0.10,0.07,0.01,0.98,
2.069,0.65,-0.54,-0.10,0.07,0.01,0.98,
2.07,0.64,-0.52,-0.08,0.07,0.01,0.98,
2.077,0.64,-0.52,-0.08,0.07,0.01,0.98,
2.078,0.64,-0.52,-0.08,0.06,0.00,0.98,
2.078,0.63,-0.52,-0.09,0.06,0.00,0.98,
2.078,0.63,-0.52,-0.09,0.06,0.00,0.98,
2.079,0.56,-0.53,-0.10,0.06,0.00,0.98,
2.08,0.56,-0.53,-0.10,0.05,0.00,0.97,
2.082,0.56,-0.53,-0.10,0.05,0.00,0.97,
2.084,0.56,-0.53,-0.10,0.04,0.00,0.97,
2.084,0.46,-0.56,-0.11,0.04,0.00,0.97,
2.089,0.46,-0.56,-0.11,0.04,0.00,0.97,
2.089,0.46,-0.56,-0.11,0.03,-0.00,0.97,
2.09,0.38,-0.58,-0.15,0.03,-0.00,0.97,
2.091,0.38,-0.58,-0.15,0.03,-0.00,0.96,
2.094,0.38,-0.58,-0.15,0.03,-0.00,0.96,
2.094,0.30,-0.61,-0.18,0.03,-0.00,0.96,
2.096,0.30,-0.61,-0.18,0.02,-0.01,0.96,
2.099,0.30,-0.61,-0.18,0.02,-0.01,0.96,
2.099,0.23,-0.64,-0.22,0.02,-0.01,0.96,
2.101,0.23,-0.64,-0.22,0.02,-0.01,0.96,
2.104,0.23,-0.64,-0.22,0.01,-0.01,0.96,
2.104,0.16,-0.67,-0.25,0.01,-0.01,0.96,
2.106,0.16,-0.67,-0.25,0.01,-0.01,0.96,
2.108,0.16,-0.67,-0.25,0.01,-0.02,0.96,
2.109,0.11,-0.71,-0.27,0.01,-0.02,0.96,
2.111,0.11,-0.71,-0.27,0.00,-0.02,0.96,
2.114,0.11,-0.71,-0.27,0.00,-0.02,0.96,
2.114,0.06,-0.73,-0.26,0.00,-0.02,0.96,
2.116,0.06,-0.73,-0.26,-0.00,-0.02,0.96,
2.119,0.06,-0.73,-0.26,-0.00,-0.02,0.96,
2.119,0.00,-0.76,-0.27,-0.00,-0.02,0.96,
2.121,0.00,-0.76,-0.27,-0.00,-0.02,0.96,
2.124,0.00,-0.76,-0.27,0.00,-0.02,0.96,
2.124,-0.03,-0.78,-0.25,0.00,-0.02,0.96,
2.126,-0.03,-0.78,-0.25,0.00,-0.02,0.96,
2.128,-0.03,-0.78,-0.25,-0.00,-0.02,0.96,
2.128,-0.02,-0.78,-0.25,-0.00,-0.02,0.96,
2.131,-0.02,-0.78,-0.25,-0.00,-0.02,0.96,
2.133,-0.02,-0.78,-0.25,-0.00,-0.02,0.96,
2.133,-0.02,-0.76,-0.26,-0.00,-0.02,0.96,
2.135,-0.02,-0.76,-0.26,-0.00,-0.02,0.96,
2.138,-0.02,-0.76,-0.26,0.00,-0.02,0.96,
2.139,-0.03,-0.76,-0.26,0.00,-0.02,0.96,
2.141,-0.03,-0.76,-0.26,0.00,-0.02,0.96,
2.143,-0.03,-0.76,-0.26,0.00,-0.02,0.96,
2.143,-0.00,-0.76,-0.26,0.00,-0.02,0.96,
2.145,-0.00,-0.76,-0.26,0.00,-0.02,0.96,
2.148,-0.00,-0.76,-0.26,0.00,-0.01,0.96,
2.148,0.02,-0.73,-0.26,0.00,-0.01,0.96,
2.15,0.02,-0.73,-0.26,0.01,-0.01,0.96,
2.154,0.02,-0.73,-0.26,0.01,-0.01,0.96,
2.155,0.04,-0.71,-0.23,0.01,-0.01,0.96,
2.155,0.04,-0.71,-0.23,0.01,-0.01,0.96,
2.158,0.04,-0.71,-0.23,0.01,-0.01,0.96,
2.158,0.06,-0.67,-0.23,0.01,-0.01,0.96,
2.16,0.06,-0.67,-0.23,0.01,-0.01,0.96,
2.163,0.07,-0.64,-0.20,0.01,-0.01,0.96,
2.163,0.07,-0.64,-0.20,0.01,-0.01,0.97,
2.165,0.07,-0.64,-0.20,0.01,-0.01,0.97,
2.167,0.07,-0.64,-0.20,0.01,-0.01,0.97,
2.168,0.09,-0.63,-0.17,0.01,-0.01,0.97,
2.171,0.09,-0.63,-0.17,0.01,-0.01,0.97,
2.172,0.09,-0.63,-0.17,0.01,-0.01,0.97,
2.173,0.09,-0.62,-0.13,0.01,-0.01,0.97,
2.175,0.09,-0.62,-0.13,0.01,-0.01,0.97,
2.177,0.09,-0.62,-0.13,0.00,-0.01,0.97,
2.178,0.06,-0.62,-0.12,0.00,-0.01,0.97,
2.179,0.06,-0.62,-0.12,0.00,-0.01,0.97,
2.182,0.06,-0.62,-0.12,0.00,-0.01,0.97,
2.183,0.05,-0.63,-0.11,0.00,-0.01,0.97,
2.184,0.05,-0.63,-0.11,-0.00,-0.01,0.97,
2.193,0.05,-0.63,-0.11,-0.00,-0.01,0.97,
2.193,0.00,-0.65,-0.08,-0.00,-0.01,0.97,
2.193,0.00,-0.65,-0.08,-0.00,-0.01,0.97,
2.194,0.00,-0.65,-0.08,-0.00,-0.01,0.98,
2.194,-0.02,-0.65,-0.08,-0.00,-0.01,0.98,
2.194,-0.02,-0.65,-0.08,-0.00,-0.01,0.98,
2.197,-0.02,-0.65,-0.08,-0.00,-0.01,0.97,
2.197,-0.03,-0.64,-0.06,-0.00,-0.01,0.97,
2.199,-0.03,-0.64,-0.06,-0.00,-0.01,0.98,
2.202,-0.03,-0.64,-0.06,-0.00,-0.01,0.98,
2.202,-0.02,-0.63,-0.06,-0.00,-0.01,0.98,
2.204,-0.02,-0.63,-0.06,-0.00,-0.01,0.98,
2.207,-0.02,-0.63,-0.06,-0.00,-0.01,0.98,
2.207,-0.03,-0.62,-0.04,-0.00,-0.01,0.98,
2.209,-0.03,-0.62,-0.04,-0.00,-0.00,0.98,
2.211,-0.03,-0.62,-0.04,-0.01,-0.01,0.98,
2.212,-0.04,-0.60,-0.02,-0.01,-0.01,0.98,
2.214,-0.04,-0.60,-0.02,-0.00,-0.00,0.98,
2.217,-0.04,-0.60,-0.02,-0.00,-0.00,0.98,
2.217,-0.06,-0.57,-0.01,-0.00,-0.00,0.98,
2.219,-0.06,-0.57,-0.01,-0.00,-0.00,0.99,
2.221,-0.06,-0.57,-0.01,-0.00,-0.00,0.99,
2.222,-0.05,-0.56,0.01,-0.00,-0.00,0.99,
2.224,-0.05,-0.56,0.01,-0.00,0.00,0.99,
2.226,-0.05,-0.56,0.01,-0.00,0.00,0.99,
2.226,-0.03,-0.52,0.04,-0.00,0.00,0.99,
2.228,-0.03,-0.52,0.04,-0.00,0.01,0.99,
2.231,-0.03,-0.52,0.04,0.00,0.01,0.99,
2.231,-0.02,-0.47,0.05,0.00,0.01,0.99,
2.233,-0.02,-0.47,0.05,0.00,0.01,0.99,
2.237,-0.02,-0.47,0.05,0.00,0.01,0.99,
2.237,-0.01,-0.42,0.10,0.00,0.01,0.99,
2.238,-0.01,-0.42,0.10,0.00,0.01,0.99,
2.241,-0.01,-0.42,0.10,0.01,0.01,0.99,
2.241,0.03,-0.39,0.12,0.01,0.01,0.99,
2.243,0.03,-0.39,0.12,0.00,0.02,0.99,
2.246,0.03,-0.39,0.12,0.01,0.02,0.99,
2.246,0.05,-0.37,0.12,0.01,0.02,0.99,
2.248,0.05,-0.37,0.12,0.01,0.02,0.99,
2.251,0.05,-0.37,0.12,0.00,0.02,0.99,
2.251,0.06,-0.33,0.12,0.00,0.02,0.99,
2.254,0.06,-0.33,0.12,0.00,0.02,0.99,
2.256,0.06,-0.33,0.12,0.00,0.02,0.99,
2.258,0.06,-0.29,0.09,0.00,0.02,0.99,
2.258,0.06,-0.29,0.09,0.00,0.02,0.99,
2.261,0.06,-0.29,0.09,-0.00,0.03,0.99,
2.261,0.04,-0.26,0.09,-0.00,0.03,0.99,
2.263,0.04,-0.26,0.09,-0.01,0.02,0.98,
2.265,0.04,-0.26,0.09,-0.01,0.03,0.98,
2.265,-0.01,-0.24,0.05,-0.01,0.03,0.98,
2.268,-0.01,-0.24,0.05,-0.01,0.03,0.98,
2.271,-0.01,-0.24,0.05,-0.01,0.02,0.98,
2.271,-0.07,-0.23,0.02,-0.01,0.02,0.98,
2.273,-0.07,-0.23,0.02,-0.01,0.02,0.98,
2.275,-0.07,-0.23,0.02,-0.02,0.03,0.97,
2.275,-0.07,-0.24,-0.02,-0.02,0.03,0.97,
2.277,-0.07,-0.24,-0.02,-0.02,0.02,0.97,
2.28,-0.07,-0.24,-0.02,-0.02,0.02,0.97,
2.28,-0.13,-0.24,-0.07,-0.02,0.02,0.97,
2.282,-0.13,-0.24,-0.07,-0.02,0.02,0.97,
2.285,-0.13,-0.24,-0.07,-0.02,0.02,0.97,
2.285,-0.17,-0.23,-0.10,-0.02,0.02,0.97,
2.292,-0.17,-0.23,-0.10,-0.02,0.02,0.96,
2.293,-0.17,-0.23,-0.10,-0.02,0.02,0.96,
2.293,-0.17,-0.24,-0.15,-0.02,0.02,0.96,
2.293,-0.17,-0.24,-0.15,-0.02,0.03,0.96,
2.295,-0.17,-0.24,-0.15,-0.02,0.03,0.96,
2.295,-0.18,-0.24,-0.19,-0.02,0.03,0.96,
2.297,-0.18,-0.24,-0.19,-0.02,0.03,0.96,
2.3,-0.18,-0.24,-0.19,-0.02,0.03,0.96,
2.3,-0.16,-0.21,-0.19,-0.02,0.03,0.96,
2.302,-0.16,-0.21,-0.19,-0.02,0.03,0.96,
2.309,-0.16,-0.21,-0.19,-0.02,0.03,0.96,
2.31,-0.17,-0.19,-0.20,-0.02,0.03,0.96,
2.31,-0.17,-0.19,-0.20,-0.02,0.03,0.96,
2.31,-0.17,-0.19,-0.20,-0.02,0.03,0.96,
2.31,-0.16,-0.17,-0.20,-0.02,0.03,0.96,
2.312,-0.16,-0.17,-0.20,-0.02,0.03,0.96,
2.314,-0.16,-0.17,-0.20,-0.02,0.03,0.96,
2.314,-0.13,-0.15,-0.22,-0.02,0.03,0.96,
2.316,-0.13,-0.15,-0.22,-0.02,0.04,0.96,
2.319,-0.13,-0.15,-0.22,-0.01,0.04,0.96,
2.32,-0.12,-0.14,-0.21,-0.01,0.04,0.96,
2.321,-0.12,-0.14,-0.21,-0.02,0.04,0.96,
2.324,-0.12,-0.14,-0.21,-0.02,0.04,0.96,
2.325,-0.11,-0.07,-0.21,-0.02,0.04,0.96,
2.327,-0.11,-0.07,-0.21,-0.02,0.04,0.96,
2.329,-0.11,-0.07,-0.21,-0.02,0.05,0.96,
2.329,-0.13,-0.05,-0.20,-0.02,0.05,0.96,
2.331,-0.13,-0.05,-0.20,-0.02,0.05,0.96,
2.334,-0.13,-0.05,-0.20,-0.02,0.05,0.96,
2.334,-0.15,-0.02,-0.21,-0.02,0.05,0.96,
2.336,-0.15,-0.02,-0.21,-0.02,0.05,0.96,
2.339,-0.15,-0.02,-0.21,-0.02,0.05,0.96,
2.339,-0.17,0.01,-0.20,-0.02,0.05,0.96,
2.341,-0.17,0.01,-0.20,-0.02,0.05,0.96,
2.344,-0.17,0.01,-0.20,-0.02,0.05,0.96,
2.344,-0.16,0.04,-0.19,-0.02,0.05,0.96,
2.346,-0.16,0.04,-0.19,-0.02,0.05,0.97,
2.348,-0.16,0.04,-0.19,-0.02,0.05,0.97,
2.349,-0.18,0.04,-0.17,-0.02,0.05,0.97,
2.351,-0.18,0.04,-0.17,-0.02,0.05,0.97,
2.354,-0.18,0.04,-0.17,-0.02,0.05,0.98,
2.354,-0.18,0.05,-0.12,-0.02,0.05,0.98,
2.356,-0.18,0.05,-0.12,-0.02,0.05,0.98,
2.358,-0.18,0.05,-0.12,-0.02,0.05,0.98,
2.358,-0.16,0.07,-0.05,-0.02,0.05,0.98,
2.36,-0.16,0.07,-0.05,-0.02,0.05,0.99,
2.363,-0.16,0.07,-0.05,-0.03,0.05,0.99,
2.363,-0.18,0.06,0.02,-0.03,0.05,0.99,
2.365,-0.18,0.06,0.02,-0.03,0.05,1.00,
2.368,-0.18,0.06,0.02,-0.03,0.05,1.00,
2.368,-0.20,0.05,0.10,-0.03,0.05,1.00,
2.372,-0.20,0.05,0.10,-0.03,0.05,1.00,
2.373,-0.20,0.05,0.10,-0.03,0.05,1.01,
2.373,-0.21,0.02,0.19,-0.03,0.05,1.01,
2.375,-0.21,0.02,0.19,-0.03,0.05,1.01,
2.378,-0.21,0.02,0.19,-0.03,0.05,1.01,
2.378,-0.21,0.01,0.25,-0.03,0.05,1.01,
2.38,-0.21,0.01,0.25,-0.03,0.04,1.02,
2.383,-0.21,0.01,0.25,-0.03,0.04,1.02,
2.383,-0.22,-0.01,0.32,-0.03,0.04,1.02,
2.386,-0.22,-0.01,0.32,-0.03,0.04,1.02,
2.388,-0.22,-0.01,0.32,-0.03,0.04,1.02,
2.388,-0.21,-0.03,0.35,-0.03,0.04,1.02,
2.39,-0.21,-0.03,0.35,-0.03,0.04,1.02,
2.393,-0.21,-0.03,0.35,-0.03,0.04,1.01,
2.393,-0.20,-0.04,0.35,-0.03,0.04,1.01,
2.395,-0.20,-0.04,0.35,-0.03,0.05,1.01,
2.398,-0.20,-0.04,0.35,-0.03,0.05,1.01,
2.398,-0.20,-0.03,0.32,-0.03,0.05,1.01,
2.4,-0.20,-0.03,0.32,-0.03,0.05,1.01,
2.403,-0.20,-0.03,0.32,-0.03,0.05,1.01,
2.403,-0.20,-0.01,0.29,-0.03,0.05,1.01,
2.405,-0.20,-0.01,0.29,-0.03,0.05,0.98,
2.408,-0.20,-0.01,0.29,-0.02,0.04,0.87,
2.408,-0.22,-0.01,0.26,-0.02,0.04,0.87,
2.41,-0.22,-0.01,0.26,-0.00,0.06,0.76,
2.412,-0.22,-0.01,0.26,0.01,0.06,0.77,
2.413,-0.17,-0.03,-0.55,0.01,0.06,0.77,
2.415,-0.17,-0.03,-0.55,0.01,0.06,0.85,
2.417,0.13,0.13,-2.06,0.01,0.06,0.85,
2.418,0.13,0.13,-2.06,0.01,0.05,0.90,
2.42,0.13,0.13,-2.06,0.01,0.04,0.93,
2.422,0.13,0.13,-2.06,-0.01,0.04,0.95,
2.423,0.24,0.11,-1.02,-0.01,0.04,0.95,
2.424,0.24,0.11,-1.02,-0.02,0.04,0.96,
2.427,0.24,0.11,-1.02,-0.02,0.04,0.97,
2.427,0.10,-0.04,-0.36,-0.02,0.04,0.97,
2.429,0.10,-0.04,-0.36,-0.03,0.04,0.97,
2.432,0.10,-0.04,-0.36,-0.04,0.05,0.98,
2.432,-0.08,-0.03,-0.17,-0.04,0.05,0.98,
2.434,-0.08,-0.03,-0.17,-0.04,0.05,1.00,
2.437,-0.08,-0.03,-0.17,-0.05,0.06,1.02,
2.437,-0.19,0.07,-0.01,-0.05,0.06,1.02,
2.439,-0.19,0.07,-0.01,-0.05,0.05,1.04,
2.441,-0.19,0.07,-0.01,-0.05,0.05,1.05,
2.442,-0.34,0.15,0.33,-0.05,0.05,1.05,
2.444,-0.34,0.15,0.33,-0.05,0.05,1.06,
2.446,-0.34,0.15,0.33,-0.05,0.04,1.07,
2.447,-0.40,0.12,0.65,-0.05,0.04,1.07,
2.449,-0.40,0.12,0.65,-0.04,0.04,1.07,
2.451,-0.40,0.12,0.65,-0.04,0.04,1.07,
2.453,-0.36,0.05,0.84,-0.04,0.04,1.07,
2.454,-0.36,0.05,0.84,-0.03,0.04,1.07,
2.456,-0.36,0.05,0.84,-0.03,0.04,1.06,
2.457,-0.26,-0.03,0.89,-0.03,0.04,1.06,
2.459,-0.26,-0.03,0.89,-0.03,0.04,1.05,
2.461,-0.26,-0.03,0.89,-0.03,0.05,1.04,
2.461,-0.20,-0.02,0.79,-0.03,0.05,1.04,
2.463,-0.20,-0.02,0.79,-0.03,0.05,1.02,
2.466,-0.20,-0.02,0.79,-0.03,0.05,1.02,
2.466,-0.19,0.03,0.59,-0.03,0.05,1.02,
2.469,-0.19,0.03,0.59,-0.03,0.05,1.01,
