
time,ax,ay,az,gFx,gFy,gFz,
0.001,0.03,0.02,-0.01,0.04,0.07,0.98,
0.001,0.02,0.01,-0.01,0.04,0.07,0.98,
0.001,0.02,0.01,-0.01,0.04,0.07,0.98,
0.002,0.02,0.01,-0.01,0.04,0.07,0.98,
0.002,0.00,0.01,0.01,0.04,0.07,0.98,
0.004,0.00,0.01,0.01,0.04,0.07,0.98,
0.007,0.00,0.01,0.01,0.04,0.07,0.98,
0.007,-0.03,0.00,0.01,0.04,0.07,0.98,
0.009,-0.03,0.00,0.01,0.04,0.07,0.97,
0.018,-0.03,0.00,0.01,0.04,0.07,0.97,
0.018,-0.02,0.00,0.00,0.04,0.07,0.97,
0.018,-0.02,0.00,0.00,0.03,0.07,0.97,
0.018,-0.02,0.00,0.00,0.03,0.07,0.97,
0.019,-0.07,0.01,-0.03,0.03,0.07,0.97,
0.019,-0.07,0.01,-0.03,0.03,0.07,0.97,
0.021,-0.07,0.01,-0.03,0.03,0.07,0.97,
0.022,-0.10,0.00,-0.06,0.03,0.07,0.97,
0.024,-0.10,0.00,-0.06,0.03,0.07,0.97,
0.026,-0.10,0.00,-0.06,0.03,0.07,0.97,
0.027,-0.14,0.03,-0.06,0.03,0.07,0.97,
0.029,-0.14,0.03,-0.06,0.03,0.07,0.97,
0.031,-0.15,0.03,-0.09,0.03,0.07,0.97,
0.032,-0.15,0.03,-0.09,0.03,0.07,0.97,
0.034,-0.15,0.03,-0.09,0.03,0.07,0.97,
0.036,-0.15,0.03,-0.09,0.03,0.07,0.97,
0.037,-0.14,0.01,-0.10,0.03,0.07,0.97,
0.038,-0.14,0.01,-0.10,0.03,0.07,0.97,
0.041,-0.14,0.01,-0.10,0.03,0.07,0.97,
0.041,-0.11,0.02,-0.10,0.03,0.07,0.97,
0.043,-0.11,0.02,-0.10,0.04,0.07,0.97,
0.046,-0.11,0.02,-0.10,0.04,0.07,0.97,
0.046,-0.09,0.01,-0.09,0.04,0.07,0.97,
0.048,-0.09,0.01,-0.09,0.04,0.07,0.97,
0.051,-0.09,0.01,-0.09,0.04,0.07,0.97,
0.051,-0.07,0.00,-0.07,0.04,0.07,0.97,
0.053,-0.07,0.00,-0.07,0.04,0.07,0.97,
0.056,-0.07,0.00,-0.07,0.05,0.07,0.97,
0.056,-0.04,0.01,-0.06,0.05,0.07,0.97,
0.058,-0.04,0.01,-0.06,0.05,0.07,0.97,
0.061,-0.04,0.01,-0.06,0.05,0.07,0.97,
0.061,0.01,0.01,-0.06,0.05,0.07,0.97,
0.063,0.01,0.01,-0.06,0.05,0.07,0.97,
0.065,0.01,0.01,-0.06,0.05,0.07,0.97,
0.066,0.04,0.02,-0.06,0.05,0.07,0.97,
0.068,0.04,0.02,-0.06,0.05,0.07,0.97,
0.071,0.04,0.02,-0.06,0.06,0.07,0.97,
0.071,0.08,0.01,-0.04,0.06,0.07,0.97,
0.073,0.08,0.01,-0.04,0.06,0.07,0.97,
0.075,0.08,0.01,-0.04,0.06,0.07,0.97,
0.075,0.10,0.02,-0.04,0.06,0.07,0.97,
0.078,0.10,0.02,-0.04,0.06,0.07,0.97,
0.08,0.10,0.02,-0.04,0.06,0.07,0.97,
0.08,0.12,0.01,-0.03,0.06,0.07,0.97,
0.082,0.12,0.01,-0.03,0.05,0.07,0.98,
0.085,0.12,0.01,-0.03,0.05,0.07,0.98,
0.085,0.11,0.01,-0.02,0.05,0.07,0.98,
0.088,0.11,0.01,-0.02,0.05,0.07,0.98,
0.09,0.11,0.01,-0.02,0.05,0.07,0.98,
0.09,0.09,0.01,-0.01,0.05,0.07,0.98,
0.092,0.09,0.01,-0.01,0.05,0.07,0.98,
0.101,0.09,0.01,-0.01,0.05,0.07,0.98,
0.102,0.08,0.01,-0.00,0.05,0.07,0.98,
0.102,0.08,0.01,-0.00,0.05,0.07,0.98,
0.102,0.08,0.01,-0.00,0.05,0.07,0.97,
0.102,0.06,-0.00,0.01,0.05,0.07,0.97,
0.102,0.06,-0.00,0.01,0.05,0.07,0.97,
0.105,0.06,-0.00,0.01,0.05,0.07,0.98,
0.105,0.05,-0.03,-0.00,0.05,0.07,0.98,
0.107,0.05,-0.03,-0.00,0.04,0.07,0.97,
0.11,0.05,-0.03,-0.00,0.04,0.07,0.97,
0.11,0.03,-0.02,-0.02,0.04,0.07,0.97,
0.112,0.03,-0.02,-0.02,0.04,0.07,0.97,
0.115,0.03,-0.02,-0.02,0.04,0.07,0.97,
0.115,-0.01,-0.01,-0.03,0.04,0.07,0.97,
0.117,-0.01,-0.01,-0.03,0.04,0.07,0.97,
0.119,-0.01,-0.01,-0.03,0.04,0.07,0.97,
0.12,-0.02,0.01,-0.05,0.04,0.07,0.97,
0.122,-0.02,0.01,-0.05,0.04,0.07,0.97,
0.125,-0.02,0.01,-0.05,0.04,0.07,0.97,
0.125,-0.04,0.01,-0.08,0.04,0.07,0.97,
0.128,-0.04,0.01,-0.08,0.04,0.07,0.96,
0.129,-0.04,0.01,-0.08,0.04,0.07,0.96,
0.13,-0.05,0.01,-0.11,0.04,0.07,0.96,
0.131,-0.05,0.01,-0.11,0.04,0.07,0.96,
0.134,-0.05,0.01,-0.11,0.05,0.07,0.96,
0.134,-0.02,0.01,-0.12,0.05,0.07,0.96,
0.136,-0.02,0.01,-0.12,0.05,0.07,0.97,
0.139,0.02,0.02,-0.12,0.05,0.07,0.97,
0.139,0.02,0.02,-0.12,0.05,0.07,0.97,
0.141,0.02,0.02,-0.12,0.05,0.07,0.97,
0.144,0.02,0.02,-0.12,0.06,0.07,0.97,
0.145,0.06,0.03,-0.10,0.06,0.07,0.97,
0.146,0.06,0.03,-0.10,0.06,0.07,0.97,
0.149,0.06,0.03,-0.10,0.06,0.07,0.97,
0.149,0.09,0.04,-0.09,0.06,0.07,0.97,
0.151,0.09,0.04,-0.09,0.06,0.07,0.97,
0.154,0.09,0.04,-0.09,0.06,0.08,0.97,
0.154,0.12,0.05,-0.06,0.06,0.08,0.97,
0.156,0.12,0.05,-0.06,0.06,0.08,0.98,
0.158,0.12,0.05,-0.06,0.07,0.08,0.98,
0.159,0.16,0.06,-0.02,0.07,0.08,0.98,
0.161,0.16,0.06,-0.02,0.07,0.08,0.98,
0.163,0.16,0.06,-0.02,0.07,0.08,0.98,
0.164,0.19,0.07,-0.00,0.07,0.08,0.98,
0.166,0.19,0.07,-0.00,0.07,0.08,0.98,
0.168,0.19,0.07,-0.00,0.08,0.08,0.99,
0.169,0.23,0.08,0.05,0.08,0.08,0.99,
0.171,0.23,0.08,0.05,0.08,0.08,0.99,
0.174,0.23,0.08,0.05,0.08,0.08,0.99,
0.175,0.28,0.09,0.09,0.08,0.08,0.99,
0.175,0.28,0.09,0.09,0.08,0.08,0.99,
0.178,0.28,0.09,0.09,0.08,0.08,0.99,
0.178,0.31,0.09,0.12,0.08,0.08,0.99,
0.18,0.31,0.09,0.12,0.08,0.08,0.99,
0.183,0.31,0.09,0.12,0.08,0.08,0.99,
0.184,0.33,0.10,0.13,0.08,0.08,0.99,
0.185,0.33,0.10,0.13,0.09,0.08,0.99,
0.188,0.33,0.10,0.13,0.08,0.08,0.99,
0.188,0.37,0.11,0.14,0.08,0.08,0.99,
0.19,0.37,0.11,0.14,0.08,0.08,0.99,
0.193,0.37,0.11,0.14,0.08,0.08,0.99,
0.193,0.38,0.12,0.14,0.08,0.08,0.99,
0.196,0.38,0.12,0.14,0.08,0.08,0.99,
0.198,0.38,0.12,0.14,0.08,0.08,0.99,
0.198,0.36,0.12,0.13,0.08,0.08,0.99,
0.2,0.36,0.12,0.13,0.08,0.08,0.99,
0.203,0.36,0.12,0.13,0.08,0.08,0.99,
0.203,0.34,0.10,0.11,0.08,0.08,0.99,
0.205,0.34,0.10,0.11,0.08,0.08,0.99,
0.208,0.34,0.10,0.11,0.07,0.08,0.98,
0.208,0.31,0.08,0.10,0.07,0.08,0.98,
0.21,0.31,0.08,0.10,0.07,0.08,0.98,
0.212,0.31,0.08,0.10,0.08,0.08,0.98,
0.213,0.29,0.06,0.08,0.08,0.08,0.98,
0.215,0.29,0.06,0.08,0.08,0.08,0.98,
0.217,0.29,0.06,0.08,0.07,0.07,0.97,
0.218,0.28,0.04,0.04,0.07,0.07,0.97,
0.22,0.28,0.04,0.04,0.08,0.07,0.97,
0.222,0.28,0.04,0.04,0.07,0.07,0.97,
0.222,0.28,0.03,-0.01,0.07,0.07,0.97,
0.225,0.28,0.03,-0.01,0.07,0.07,0.97,
0.227,0.28,0.03,-0.01,0.08,0.08,0.97,
0.228,0.27,0.01,-0.06,0.08,0.08,0.97,
0.23,0.27,0.01,-0.06,0.08,0.08,0.96,
0.232,0.27,0.01,-0.06,0.08,0.08,0.96,
0.232,0.28,0.02,-0.10,0.08,0.08,0.96,
0.234,0.28,0.02,-0.10,0.08,0.08,0.96,
0.237,0.28,0.02,-0.10,0.08,0.08,0.96,
0.237,0.31,0.05,-0.16,0.08,0.08,0.96,
0.239,0.31,0.05,-0.16,0.08,0.08,0.96,
0.242,0.31,0.05,-0.16,0.08,0.08,0.96,
0.242,0.32,0.06,-0.18,0.08,0.08,0.96,
0.244,0.32,0.06,-0.18,0.08,0.08,0.96,
0.247,0.32,0.06,-0.18,0.08,0.08,0.95,
0.247,0.34,0.08,-0.19,0.08,0.08,0.95,
0.249,0.34,0.08,-0.19,0.09,0.08,0.95,
0.252,0.34,0.08,-0.19,0.09,0.08,0.95,
0.252,0.35,0.08,-0.21,0.09,0.08,0.95,
0.254,0.35,0.08,-0.21,0.09,0.08,0.95,
0.256,0.35,0.08,-0.21,0.09,0.08,0.95,
0.257,0.39,0.08,-0.22,0.09,0.08,0.95,
0.259,0.39,0.08,-0.22,0.09,0.08,0.96,
0.261,0.39,0.08,-0.22,0.09,0.08,0.96,
0.262,0.38,0.08,-0.22,0.09,0.08,0.96,
0.264,0.38,0.08,-0.22,0.09,0.08,0.96,
0.266,0.38,0.08,-0.22,0.09,0.08,0.96,
0.267,0.40,0.08,-0.19,0.09,0.08,0.96,
0.269,0.40,0.08,-0.19,0.09,0.08,0.96,
0.271,0.40,0.08,-0.19,0.09,0.08,0.96,
0.271,0.39,0.10,-0.18,0.09,0.08,0.96,
0.274,0.39,0.10,-0.18,0.09,0.08,0.96,
0.277,0.39,0.10,-0.18,0.08,0.08,0.97,
0.277,0.36,0.09,-0.13,0.08,0.08,0.97,
0.279,0.36,0.09,-0.13,0.08,0.08,0.97,
0.281,0.36,0.09,-0.13,0.08,0.08,0.97,
0.282,0.36,0.07,-0.10,0.08,0.08,0.97,
0.283,0.36,0.07,-0.10,0.08,0.08,0.97,
0.286,0.36,0.07,-0.10,0.08,0.07,0.98,
0.286,0.32,0.07,-0.05,0.08,0.07,0.98,
0.288,0.32,0.07,-0.05,0.08,0.07,0.98,
0.291,0.32,0.07,-0.05,0.08,0.07,0.98,
0.291,0.29,0.02,-0.00,0.08,0.07,0.98,
0.294,0.29,0.02,-0.00,0.08,0.07,0.98,
0.296,0.29,0.02,-0.00,0.07,0.07,0.98,
0.296,0.26,-0.02,0.03,0.07,0.07,0.98,
0.298,0.26,-0.02,0.03,0.07,0.07,0.98,
0.3,0.26,-0.02,0.03,0.07,0.07,0.98,
0.301,0.24,-0.05,0.06,0.07,0.07,0.98,
0.303,0.24,-0.05,0.06,0.07,0.07,0.99,
0.306,0.24,-0.05,0.06,0.07,0.06,0.99,
0.306,0.23,-0.08,0.07,0.07,0.06,0.99,
0.308,0.23,-0.08,0.07,0.07,0.06,0.99,
0.317,0.23,-0.08,0.07,0.08,0.06,0.99,
0.318,0.23,-0.09,0.10,0.08,0.06,0.99,
0.318,0.23,-0.09,0.10,0.07,0.06,0.99,
0.318,0.23,-0.09,0.10,0.07,0.06,0.99,
0.318,0.24,-0.14,0.13,0.07,0.06,0.99,
0.319,0.24,-0.14,0.13,0.07,0.06,0.99,
0.32,0.24,-0.14,0.13,0.07,0.06,0.99,
0.32,0.22,-0.15,0.11,0.07,0.06,0.99,
0.322,0.22,-0.15,0.11,0.07,0.06,0.99,
0.325,0.22,-0.15,0.11,0.07,0.06,0.99,
0.325,0.21,-0.17,0.11,0.07,0.06,0.99,
0.328,0.21,-0.17,0.11,0.07,0.06,0.99,
0.33,0.21,-0.17,0.11,0.07,0.06,0.98,
0.33,0.20,-0.18,0.11,0.07,0.06,0.98,
0.332,0.20,-0.18,0.11,0.08,0.06,0.98,
0.335,0.20,-0.18,0.11,0.08,0.06,0.98,
0.335,0.20,-0.16,0.08,0.08,0.06,0.98,
0.337,0.20,-0.16,0.08,0.08,0.06,0.98,
0.34,0.20,-0.16,0.08,0.08,0.06,0.98,
0.34,0.23,-0.16,0.04,0.08,0.06,0.98,
0.342,0.23,-0.16,0.04,0.08,0.06,0.98,
0.345,0.23,-0.16,0.04,0.08,0.06,0.98,
0.346,0.22,-0.15,0.01,0.08,0.06,0.98,
0.347,0.22,-0.15,0.01,0.08,0.06,0.97,
0.35,0.22,-0.15,0.01,0.08,0.06,0.97,
0.35,0.25,-0.14,-0.00,0.08,0.06,0.97,
0.352,0.25,-0.14,-0.00,0.08,0.06,0.97,
0.354,0.25,-0.14,-0.00,0.08,0.06,0.97,
0.355,0.25,-0.13,-0.03,0.08,0.06,0.97,
0.357,0.25,-0.13,-0.03,0.08,0.06,0.97,
0.359,0.25,-0.13,-0.03,0.08,0.06,0.97,
0.36,0.25,-0.14,-0.05,0.08,0.06,0.97,
0.362,0.25,-0.14,-0.05,0.08,0.06,0.97,
0.364,0.25,-0.14,-0.05,0.08,0.06,0.97,
0.365,0.26,-0.15,-0.05,0.08,0.06,0.97,
0.366,0.26,-0.15,-0.05,0.08,0.06,0.97,
0.369,0.26,-0.15,-0.05,0.08,0.06,0.97,
0.369,0.27,-0.17,-0.07,0.08,0.06,0.97,
0.371,0.27,-0.17,-0.07,0.09,0.06,0.97,
0.374,0.27,-0.17,-0.07,0.09,0.05,0.97,
0.374,0.27,-0.16,-0.06,0.09,0.05,0.97,
0.377,0.27,-0.16,-0.06,0.09,0.05,0.97,
0.38,0.27,-0.16,-0.06,0.09,0.05,0.97,
0.38,0.28,-0.18,-0.04,0.09,0.05,0.97,
0.382,0.28,-0.18,-0.04,0.09,0.05,0.97,
0.384,0.28,-0.18,-0.04,0.09,0.05,0.97,
0.384,0.30,-0.21,-0.05,0.09,0.05,0.97,
0.386,0.30,-0.21,-0.05,0.09,0.05,0.97,
0.389,0.30,-0.21,-0.05,0.09,0.05,0.98,
0.389,0.29,-0.23,-0.04,0.09,0.05,0.98,
0.391,0.29,-0.23,-0.04,0.09,0.05,0.98,
0.394,0.29,-0.23,-0.04,0.09,0.05,0.98,
0.394,0.29,-0.24,-0.00,0.09,0.05,0.98,
0.396,0.29,-0.24,-0.00,0.09,0.05,0.98,
0.398,0.29,-0.24,-0.00,0.09,0.05,0.98,
0.399,0.26,-0.25,0.01,0.09,0.05,0.98,
0.401,0.26,-0.25,0.01,0.09,0.05,0.98,
0.403,0.26,-0.25,0.01,0.09,0.05,0.98,
0.404,0.26,-0.26,0.04,0.09,0.05,0.98,
0.406,0.26,-0.26,0.04,0.09,0.05,0.98,
0.408,0.26,-0.26,0.04,0.09,0.05,0.98,
0.409,0.28,-0.26,0.07,0.09,0.05,0.98,
0.414,0.28,-0.26,0.07,0.09,0.05,0.98,
0.415,0.28,-0.26,0.07,0.09,0.05,0.98,
0.415,0.26,-0.26,0.09,0.09,0.05,0.98,
0.416,0.26,-0.26,0.09,0.09,0.05,0.98,
0.418,0.26,-0.26,0.09,0.09,0.05,0.98,
0.418,0.28,-0.26,0.08,0.09,0.05,0.98,
0.42,0.28,-0.26,0.08,0.09,0.05,0.98,
0.423,0.28,-0.26,0.08,0.09,0.05,0.98,
0.423,0.27,-0.27,0.05,0.09,0.05,0.98,
0.425,0.27,-0.27,0.05,0.09,0.05,0.97,
0.428,0.27,-0.27,0.05,0.09,0.05,0.97,
0.428,0.26,-0.26,0.01,0.09,0.05,0.97,
0.43,0.26,-0.26,0.01,0.09,0.05,0.97,
0.433,0.26,-0.26,0.01,0.09,0.05,0.97,
0.433,0.26,-0.27,-0.02,0.09,0.05,0.97,
0.435,0.26,-0.27,-0.02,0.08,0.05,0.96,
0.438,0.26,-0.27,-0.02,0.09,0.05,0.96,
0.438,0.23,-0.26,-0.06,0.09,0.05,0.96,
0.44,0.23,-0.26,-0.06,0.08,0.05,0.96,
0.443,0.23,-0.26,-0.06,0.08,0.05,0.96,
0.443,0.17,-0.25,-0.12,0.08,0.05,0.96,
0.445,0.17,-0.25,-0.12,0.08,0.05,0.95,
0.448,0.17,-0.25,-0.12,0.08,0.04,0.95,
0.448,0.15,-0.27,-0.17,0.08,0.04,0.95,
0.45,0.15,-0.27,-0.17,0.08,0.05,0.95,
0.452,0.15,-0.27,-0.17,0.08,0.04,0.95,
0.453,0.10,-0.28,-0.22,0.08,0.04,0.95,
0.455,0.10,-0.28,-0.22,0.08,0.04,0.95,
0.457,0.10,-0.28,-0.22,0.08,0.04,0.95,
0.458,0.08,-0.29,-0.22,0.08,0.04,0.95,
0.46,0.08,-0.29,-0.22,0.07,0.04,0.95,
0.462,0.08,-0.29,-0.22,0.07,0.04,0.95,
0.462,0.06,-0.30,-0.21,0.07,0.04,0.95,
0.465,0.06,-0.30,-0.21,0.07,0.04,0.95,
0.467,0.06,-0.30,-0.21,0.07,0.04,0.95,
0.467,0.03,-0.31,-0.22,0.07,0.04,0.95,
0.469,0.03,-0.31,-0.22,0.07,0.04,0.95,
0.472,0.03,-0.31,-0.22,0.07,0.04,0.96,
0.472,0.01,-0.34,-0.20,0.07,0.04,0.96,
0.474,0.01,-0.34,-0.20,0.07,0.04,0.96,
0.477,0.01,-0.34,-0.20,0.07,0.04,0.96,
0.477,-0.00,-0.34,-0.17,0.07,0.04,0.96,
0.479,-0.00,-0.34,-0.17,0.07,0.04,0.97,
0.482,-0.00,-0.34,-0.17,0.07,0.04,0.97,
0.482,-0.04,-0.34,-0.11,0.07,0.04,0.97,
0.484,-0.04,-0.34,-0.11,0.07,0.04,0.97,
0.486,-0.04,-0.34,-0.11,0.07,0.04,0.97,
0.487,-0.03,-0.33,-0.07,0.07,0.04,0.97,
0.489,-0.03,-0.33,-0.07,0.07,0.04,0.97,
0.492,-0.03,-0.33,-0.07,0.07,0.04,0.98,
0.492,-0.03,-0.33,-0.03,0.07,0.04,0.98,
0.494,-0.03,-0.33,-0.03,0.08,0.04,0.98,
0.496,-0.03,-0.33,-0.03,0.08,0.04,0.98,
0.497,-0.02,-0.32,0.02,0.08,0.04,0.98,
0.499,-0.02,-0.32,0.02,0.08,0.04,0.98,
0.501,-0.02,-0.32,0.02,0.08,0.04,0.98,
0.502,0.01,-0.32,0.05,0.08,0.04,0.98,
0.504,0.01,-0.32,0.05,0.08,0.04,0.98,
0.506,0.01,-0.32,0.05,0.08,0.04,0.98,
0.506,0.01,-0.32,0.09,0.08,0.04,0.98,
0.508,0.01,-0.32,0.09,0.08,0.04,0.98,
0.514,0.01,-0.32,0.09,0.08,0.04,0.98,
0.514,0.02,-0.33,0.09,0.08,0.04,0.98,
0.514,0.02,-0.33,0.09,0.08,0.04,0.98,
0.516,0.02,-0.33,0.09,0.08,0.04,0.98,
0.516,0.01,-0.32,0.10,0.08,0.04,0.98,
0.518,0.01,-0.32,0.10,0.08,0.04,0.98,
0.521,0.01,-0.32,0.10,0.07,0.04,0.98,
0.521,0.00,-0.33,0.08,0.07,0.04,0.98,
0.523,0.00,-0.33,0.08,0.07,0.04,0.98,
0.526,0.00,-0.33,0.08,0.07,0.03,0.97,
0.526,-0.04,-0.33,0.05,0.07,0.03,0.97,
0.528,-0.04,-0.33,0.05,0.07,0.03,0.97,
0.531,-0.04,-0.33,0.05,0.07,0.03,0.97,
0.531,-0.06,-0.34,0.02,0.07,0.03,0.97,
0.533,-0.06,-0.34,0.02,0.06,0.03,0.97,
0.535,-0.06,-0.34,0.02,0.06,0.03,0.97,
0.536,-0.12,-0.37,-0.00,0.06,0.03,0.97,
0.538,-0.12,-0.37,-0.00,0.06,0.03,0.97,
0.541,-0.12,-0.37,-0.00,0.06,0.03,0.96,
0.541,-0.19,-0.38,-0.04,0.06,0.03,0.96,
0.543,-0.19,-0.38,-0.04,0.05,0.03,0.96,
0.545,-0.19,-0.38,-0.04,0.05,0.03,0.96,
0.546,-0.24,-0.41,-0.07,0.05,0.03,0.96,
0.548,-0.24,-0.41,-0.07,0.05,0.02,0.96,
0.551,-0.24,-0.41,-0.07,0.05,0.02,0.96,
0.551,-0.28,-0.42,-0.11,0.05,0.02,0.96,
0.553,-0.28,-0.42,-0.11,0.05,0.03,0.96,
0.555,-0.28,-0.42,-0.11,0.05,0.03,0.95,
0.556,-0.30,-0.45,-0.13,0.05,0.03,0.95,
0.558,-0.30,-0.45,-0.13,0.05,0.02,0.95,
0.562,-0.30,-0.45,-0.13,0.05,0.02,0.95,
0.562,-0.33,-0.43,-0.16,0.05,0.02,0.95,
0.563,-0.33,-0.43,-0.16,0.05,0.03,0.95,
0.565,-0.33,-0.43,-0.16,0.05,0.03,0.95,
0.565,-0.33,-0.44,-0.19,0.05,0.03,0.95,
0.568,-0.33,-0.44,-0.19,0.05,0.03,0.95,
0.57,-0.33,-0.44,-0.19,0.05,0.02,0.95,
0.57,-0.34,-0.42,-0.19,0.05,0.02,0.95,
0.572,-0.34,-0.42,-0.19,0.05,0.03,0.95,
0.575,-0.34,-0.42,-0.19,0.05,0.03,0.95,
0.575,-0.35,-0.41,-0.20,0.05,0.03,0.95,
0.577,-0.35,-0.41,-0.20,0.05,0.03,0.95,
0.58,-0.35,-0.41,-0.20,0.05,0.03,0.96,
0.58,-0.35,-0.40,-0.18,0.05,0.03,0.96,
0.582,-0.35,-0.40,-0.18,0.05,0.03,0.96,
0.585,-0.35,-0.40,-0.18,0.05,0.03,0.96,
0.585,-0.34,-0.38,-0.16,0.05,0.03,0.96,
0.587,-0.34,-0.38,-0.16,0.05,0.03,0.96,
0.59,-0.34,-0.36,-0.12,0.05,0.03,0.96,
0.59,-0.34,-0.36,-0.12,0.05,0.03,0.96,
0.592,-0.34,-0.36,-0.12,0.05,0.03,0.97,
0.595,-0.34,-0.36,-0.12,0.05,0.03,0.97,
0.595,-0.34,-0.35,-0.07,0.05,0.03,0.97,
0.597,-0.34,-0.35,-0.07,0.05,0.03,0.98,
0.6,-0.34,-0.35,-0.07,0.06,0.03,0.98,
0.6,-0.33,-0.35,-0.00,0.06,0.03,0.98,
0.602,-0.33,-0.35,-0.00,0.06,0.03,0.98,
0.604,-0.33,-0.35,-0.00,0.06,0.03,0.98,
0.605,-0.29,-0.35,0.07,0.06,0.03,0.98,
0.607,-0.29,-0.35,0.07,0.06,0.03,0.98,
0.609,-0.29,-0.35,0.07,0.05,0.03,0.98,
0.61,-0.29,-0.33,0.11,0.05,0.03,0.98,
0.618,-0.29,-0.33,0.11,0.06,0.03,0.98,
0.618,-0.29,-0.33,0.11,0.06,0.03,0.98,
0.618,-0.30,-0.32,0.12,0.06,0.03,0.98,
0.619,-0.30,-0.32,0.12,0.06,0.03,0.98,
0.619,-0.30,-0.32,0.12,0.05,0.03,0.98,
0.619,-0.29,-0.32,0.13,0.05,0.03,0.98,
0.621,-0.29,-0.32,0.13,0.05,0.03,0.98,
0.624,-0.29,-0.32,0.13,0.05,0.03,0.98,
0.624,-0.31,-0.31,0.12,0.05,0.03,0.98,
0.629,-0.31,-0.31,0.12,0.05,0.03,0.98,
0.63,-0.31,-0.31,0.12,0.05,0.03,0.98,
0.63,-0.32,-0.30,0.10,0.05,0.03,0.98,
0.631,-0.32,-0.30,0.10,0.05,0.03,0.97,
0.634,-0.32,-0.30,0.10,0.05,0.03,0.97,
0.634,-0.34,-0.32,0.07,0.05,0.03,0.97,
0.636,-0.34,-0.32,0.07,0.05,0.03,0.97,
0.639,-0.34,-0.32,0.07,0.05,0.03,0.97,
0.639,-0.33,-0.30,0.02,0.05,0.03,0.97,
0.641,-0.33,-0.30,0.02,0.05,0.03,0.97,
0.643,-0.34,-0.27,-0.02,0.05,0.03,0.97,
0.644,-0.34,-0.27,-0.02,0.05,0.03,0.97,
0.646,-0.34,-0.27,-0.02,0.06,0.03,0.97,
0.649,-0.34,-0.27,-0.02,0.06,0.03,0.97,
0.649,-0.33,-0.27,-0.04,0.06,0.03,0.97,
0.651,-0.33,-0.27,-0.04,0.05,0.03,0.97,
0.654,-0.33,-0.27,-0.04,0.05,0.03,0.97,
0.654,-0.30,-0.29,-0.03,0.05,0.03,0.97,
0.655,-0.30,-0.29,-0.03,0.05,0.03,0.97,
0.658,-0.30,-0.29,-0.03,0.05,0.03,0.97,
0.658,-0.34,-0.28,-0.03,0.05,0.03,0.97,
0.66,-0.34,-0.28,-0.03,0.05,0.03,0.97,
0.663,-0.34,-0.28,-0.03,0.05,0.03,0.97,
0.665,-0.36,-0.27,-0.02,0.05,0.03,0.97,
0.667,-0.36,-0.27,-0.02,0.05,0.03,0.97,
0.668,-0.36,-0.27,-0.02,0.05,0.03,0.97,
0.669,-0.38,-0.27,0.00,0.05,0.03,0.97,
0.67,-0.38,-0.27,0.00,0.05,0.03,0.97,
0.673,-0.38,-0.27,0.00,0.05,0.03,0.97,
0.673,-0.40,-0.27,0.03,0.05,0.03,0.97,
0.675,-0.40,-0.27,0.03,0.05,0.03,0.97,
0.678,-0.40,-0.27,0.03,0.05,0.03,0.97,
0.678,-0.41,-0.29,0.03,0.05,0.03,0.97,
0.68,-0.41,-0.29,0.03,0.05,0.03,0.97,
0.683,-0.41,-0.29,0.03,0.05,0.03,0.98,
0.683,-0.39,-0.29,0.03,0.05,0.03,0.98,
0.685,-0.39,-0.29,0.03,0.05,0.03,0.98,
0.688,-0.39,-0.29,0.03,0.05,0.03,0.98,
0.688,-0.37,-0.28,0.04,0.05,0.03,0.98,
0.69,-0.37,-0.28,0.04,0.05,0.03,0.97,
0.693,-0.37,-0.28,0.04,0.06,0.03,0.97,
0.693,-0.35,-0.26,0.07,0.06,0.03,0.97,
0.698,-0.35,-0.26,0.07,0.06,0.04,0.97,
0.698,-0.35,-0.26,0.07,0.06,0.04,0.97,
0.698,-0.31,-0.24,0.02,0.06,0.04,0.97,
0.7,-0.31,-0.24,0.02,0.07,0.04,0.97,
0.702,-0.31,-0.24,0.02,0.07,0.04,0.97,
0.702,-0.25,-0.19,0.01,0.07,0.04,0.97,
0.705,-0.25,-0.19,0.01,0.07,0.04,0.97,
0.707,-0.25,-0.19,0.01,0.07,0.04,0.97,
0.707,-0.21,-0.16,0.01,0.07,0.04,0.97,
0.709,-0.21,-0.16,0.01,0.07,0.05,0.97,
0.712,-0.21,-0.16,0.01,0.07,0.05,0.97,
0.712,-0.18,-0.14,-0.03,0.07,0.05,0.97,
0.714,-0.18,-0.14,-0.03,0.08,0.05,0.97,
0.717,-0.18,-0.14,-0.03,0.08,0.05,0.97,
0.717,-0.15,-0.09,-0.03,0.08,0.05,0.97,
0.719,-0.15,-0.09,-0.03,0.08,0.05,0.97,
0.722,-0.15,-0.09,-0.03,0.08,0.06,0.97,
0.722,-0.12,-0.03,-0.03,0.08,0.06,0.97,
0.724,-0.12,-0.03,-0.03,0.09,0.06,0.97,
0.727,-0.12,-0.03,-0.03,0.09,0.06,0.97,
0.727,-0.06,0.00,-0.03,0.09,0.06,0.97,
0.729,-0.06,0.00,-0.03,0.09,0.06,0.97,
0.732,-0.06,0.00,-0.03,0.09,0.06,0.97,
0.732,-0.03,0.04,-0.04,0.09,0.06,0.97,
0.734,-0.03,0.04,-0.04,0.09,0.06,0.97,
0.737,-0.03,0.04,-0.04,0.09,0.06,0.97,
0.737,-0.03,0.09,-0.04,0.09,0.06,0.97,
0.739,-0.03,0.09,-0.04,0.09,0.06,0.97,
0.741,-0.03,0.09,-0.04,0.08,0.06,0.97,
0.742,-0.04,0.08,-0.04,0.08,0.06,0.97,
0.744,-0.04,0.08,-0.04,0.09,0.06,0.96,
0.746,-0.04,0.08,-0.04,0.09,0.06,0.97,
0.747,-0.06,0.09,-0.04,0.09,0.06,0.97,
0.749,-0.06,0.09,-0.04,0.08,0.06,0.97,
0.751,-0.06,0.08,-0.05,0.08,0.06,0.97,
0.752,-0.06,0.08,-0.05,0.08,0.06,0.97,
0.754,-0.06,0.08,-0.05,0.08,0.06,0.97,
0.756,-0.06,0.08,-0.05,0.08,0.06,0.98,
0.757,-0.08,0.06,-0.02,0.08,0.06,0.98,
0.759,-0.08,0.06,-0.02,0.08,0.05,0.98,
0.762,-0.09,0.03,0.03,0.08,0.05,0.98,
0.762,-0.09,0.03,0.03,0.08,0.05,0.98,
0.763,-0.09,0.03,0.03,0.08,0.05,0.99,
0.766,-0.09,0.03,0.03,0.07,0.05,0.99,
0.766,-0.13,0.01,0.12,0.07,0.05,0.99,
0.768,-0.13,0.01,0.12,0.07,0.05,1.00,
0.771,-0.13,0.01,0.12,0.07,0.05,1.00,
0.771,-0.16,-0.01,0.19,0.07,0.05,1.00,
0.773,-0.16,-0.01,0.19,0.06,0.05,1.00,
0.777,-0.16,-0.01,0.19,0.06,0.05,1.00,
0.777,-0.22,-0.04,0.25,0.06,0.05,1.00,
0.778,-0.22,-0.04,0.25,0.06,0.04,1.00,
0.781,-0.22,-0.04,0.25,0.06,0.04,1.00,
0.781,-0.27,-0.03,0.29,0.06,0.04,1.00,
0.783,-0.27,-0.03,0.29,0.05,0.04,1.00,
0.785,-0.27,-0.03,0.29,0.05,0.04,1.00,
0.786,-0.33,-0.06,0.31,0.05,0.04,1.00,
0.788,-0.33,-0.06,0.31,0.05,0.04,1.00,
0.791,-0.33,-0.06,0.31,0.05,0.04,1.00,
0.791,-0.37,-0.08,0.29,0.05,0.04,1.00,
0.793,-0.37,-0.08,0.29,0.05,0.04,1.00,
0.795,-0.37,-0.08,0.29,0.05,0.04,1.00,
0.796,-0.37,-0.07,0.27,0.05,0.04,1.00,
0.797,-0.37,-0.07,0.27,0.05,0.04,1.00,
0.8,-0.37,-0.07,0.27,0.05,0.04,1.00,
0.8,-0.38,-0.05,0.24,0.05,0.04,1.00,
0.802,-0.38,-0.05,0.24,0.05,0.04,1.00,
0.805,-0.38,-0.05,0.24,0.05,0.04,1.00,
0.805,-0.35,-0.05,0.24,0.05,0.04,1.00,
0.807,-0.35,-0.05,0.24,0.06,0.05,1.00,
0.81,-0.35,-0.05,0.24,0.06,0.05,1.00,
0.811,-0.33,-0.03,0.23,0.06,0.05,1.00,
0.812,-0.33,-0.03,0.23,0.06,0.05,0.99,
0.815,-0.33,-0.03,0.23,0.06,0.05,0.99,
0.815,-0.31,-0.01,0.22,0.06,0.05,0.99,
0.817,-0.31,-0.01,0.22,0.06,0.05,0.99,
0.82,-0.31,-0.01,0.22,0.06,0.05,0.99,
0.82,-0.29,0.01,0.20,0.06,0.05,0.99,
0.822,-0.29,0.01,0.20,0.06,0.05,1.00,
0.825,-0.29,0.01,0.20,0.06,0.05,0.99,
0.825,-0.29,0.04,0.20,0.06,0.05,0.99,
0.828,-0.29,0.04,0.20,0.06,0.05,0.99,
0.837,-0.29,0.04,0.20,0.06,0.05,1.00,
0.837,-0.29,0.03,0.20,0.06,0.05,1.00,
0.838,-0.29,0.03,0.20,0.06,0.05,1.00,
0.838,-0.29,0.03,0.20,0.06,0.05,1.00,
0.838,-0.27,0.02,0.21,0.06,0.05,1.00,
0.838,-0.27,0.02,0.21,0.06,0.05,1.00,
0.839,-0.27,0.02,0.21,0.06,0.05,1.00,
0.839,-0.26,0.05,0.22,0.06,0.05,1.00,
0.842,-0.26,0.05,0.22,0.06,0.05,0.99,
0.85,-0.26,0.05,0.22,0.06,0.05,0.99,
0.85,-0.26,0.03,0.21,0.06,0.05,0.99,
0.85,-0.26,0.03,0.21,0.06,0.05,0.99,
0.85,-0.26,0.03,0.21,0.06,0.05,0.99,
0.851,-0.27,0.00,0.17,0.06,0.05,0.99,
0.851,-0.27,0.00,0.17,0.06,0.05,0.98,
0.854,-0.27,0.00,0.17,0.06,0.05,0.98,
0.854,-0.25,0.00,0.14,0.06,0.05,0.98,
0.856,-0.25,0.00,0.14,0.06,0.05,0.98,
0.859,-0.25,0.00,0.14,0.06,0.05,0.97,
0.86,-0.24,0.00,0.06,0.06,0.05,0.97,
0.861,-0.24,0.00,0.06,0.06,0.05,0.97,
0.864,-0.24,0.00,0.06,0.06,0.05,0.97,
0.864,-0.24,0.01,0.00,0.06,0.05,0.97,
0.866,-0.24,0.01,0.00,0.06,0.05,0.97,
0.869,-0.24,0.01,0.00,0.06,0.05,0.96,
0.869,-0.25,0.02,-0.06,0.06,0.05,0.96,
0.871,-0.25,0.02,-0.06,0.06,0.05,0.96,
0.874,-0.25,0.02,-0.06,0.06,0.05,0.96,
0.874,-0.23,0.02,-0.10,0.06,0.05,0.96,
0.876,-0.23,0.02,-0.10,0.07,0.05,0.96,
0.879,-0.23,0.02,-0.10,0.07,0.05,0.96,
0.879,-0.19,0.04,-0.13,0.07,0.05,0.96,
0.881,-0.19,0.04,-0.13,0.07,0.05,0.96,
0.883,-0.19,0.04,-0.13,0.07,0.05,0.97,
0.884,-0.16,0.03,-0.11,0.07,0.05,0.97,
0.886,-0.16,0.03,-0.11,0.07,0.05,0.97,
0.888,-0.16,0.03,-0.11,0.07,0.05,0.97,
0.888,-0.12,0.04,-0.09,0.07,0.05,0.97,
0.89,-0.12,0.04,-0.09,0.07,0.05,0.97,
0.894,-0.12,0.04,-0.09,0.07,0.05,0.97,
0.895,-0.12,0.05,-0.06,0.07,0.05,0.97,
0.896,-0.12,0.05,-0.06,0.07,0.05,0.98,
0.898,-0.12,0.05,-0.06,0.07,0.05,0.98,
0.898,-0.14,0.06,-0.01,0.07,0.05,0.98,
0.9,-0.14,0.06,-0.01,0.06,0.05,0.98,
0.903,-0.14,0.06,-0.01,0.06,0.05,0.98,
0.903,-0.17,0.07,0.03,0.06,0.05,0.98,
0.905,-0.17,0.07,0.03,0.06,0.05,0.98,
0.908,-0.17,0.07,0.03,0.06,0.05,0.99,
0.908,-0.22,0.08,0.08,0.06,0.05,0.99,
0.916,-0.22,0.08,0.08,0.06,0.05,0.99,
0.917,-0.22,0.08,0.08,0.06,0.05,0.99,
0.917,-0.24,0.07,0.11,0.06,0.05,0.99,
0.917,-0.24,0.07,0.11,0.06,0.05,0.99,
0.918,-0.24,0.07,0.11,0.05,0.05,0.99,
0.918,-0.24,0.05,0.13,0.05,0.05,0.99,
0.92,-0.24,0.05,0.13,0.05,0.05,0.99,
0.923,-0.24,0.05,0.13,0.05,0.05,0.99,
0.923,-0.27,0.06,0.15,0.05,0.05,0.99,
0.925,-0.27,0.06,0.15,0.05,0.05,0.99,
0.928,-0.27,0.06,0.15,0.05,0.05,0.99,
0.928,-0.31,0.09,0.17,0.05,0.05,0.99,
0.93,-0.31,0.09,0.17,0.05,0.05,0.99,
0.932,-0.31,0.09,0.17,0.05,0.05,0.99,
0.933,-0.29,0.09,0.17,0.05,0.05,0.99,
0.934,-0.29,0.09,0.17,0.05,0.05,0.99,
0.937,-0.29,0.09,0.17,0.06,0.05,0.99,
0.937,-0.29,0.11,0.17,0.06,0.05,0.99,
0.939,-0.29,0.11,0.17,0.06,0.05,0.99,
0.943,-0.29,0.11,0.17,0.06,0.05,0.99,
0.944,-0.25,0.11,0.18,0.06,0.05,0.99,
0.944,-0.25,0.11,0.18,0.05,0.05,0.99,
0.947,-0.25,0.11,0.18,0.06,0.06,0.99,
0.947,-0.24,0.12,0.16,0.06,0.06,0.99,
0.949,-0.24,0.12,0.16,0.06,0.06,1.00,
0.952,-0.24,0.12,0.16,0.06,0.06,1.00,
0.952,-0.23,0.15,0.17,0.06,0.06,1.00,
0.954,-0.23,0.15,0.17,0.06,0.06,0.99,
0.957,-0.23,0.15,0.17,0.06,0.06,0.99,
0.957,-0.20,0.17,0.20,0.06,0.06,0.99,
0.96,-0.20,0.17,0.20,0.06,0.06,0.99,
0.962,-0.20,0.17,0.20,0.06,0.06,0.99,
0.963,-0.17,0.19,0.17,0.06,0.06,0.99,
0.964,-0.17,0.19,0.17,0.07,0.06,0.99,
0.967,-0.17,0.19,0.17,0.07,0.06,0.99,
0.967,-0.16,0.20,0.16,0.07,0.06,0.99,
0.969,-0.16,0.20,0.16,0.06,0.06,0.99,
0.971,-0.16,0.20,0.16,0.07,0.06,0.99,
0.972,-0.14,0.18,0.14,0.07,0.06,0.99,
0.974,-0.14,0.18,0.14,0.06,0.05,0.99,
0.977,-0.14,0.18,0.14,0.06,0.05,0.99,
0.978,-0.15,0.18,0.12,0.06,0.05,0.99,
0.98,-0.15,0.18,0.12,0.06,0.05,0.99,
0.982,-0.15,0.18,0.12,0.06,0.05,0.98,
0.982,-0.18,0.16,0.09,0.06,0.05,0.98,
0.984,-0.18,0.16,0.09,0.05,0.05,0.99,
0.986,-0.18,0.16,0.09,0.05,0.05,0.99,
0.987,-0.22,0.16,0.08,0.05,0.05,0.99,
0.989,-0.22,0.16,0.08,0.05,0.05,0.99,
0.992,-0.22,0.16,0.08,0.04,0.05,0.99,
0.992,-0.27,0.15,0.09,0.04,0.05,0.99,
0.994,-0.27,0.15,0.09,0.04,0.05,0.99,
0.996,-0.27,0.15,0.09,0.03,0.05,0.99,
0.997,-0.32,0.14,0.12,0.03,0.05,0.99,
0.998,-0.32,0.14,0.12,0.03,0.05,0.99,
1.001,-0.32,0.14,0.12,0.03,0.04,1.00,
1.001,-0.40,0.11,0.14,0.03,0.04,1.00,
1.003,-0.40,0.11,0.14,0.03,0.04,1.00,
1.006,-0.46,0.08,0.18,0.03,0.04,1.00,
1.006,-0.46,0.08,0.18,0.02,0.04,1.00,
1.008,-0.46,0.08,0.18,0.02,0.04,1.00,
1.011,-0.46,0.08,0.18,0.02,0.04,1.01,
1.011,-0.51,0.06,0.22,0.02,0.04,1.01,
1.013,-0.51,0.06,0.22,0.02,0.04,1.01,
1.016,-0.51,0.06,0.22,0.02,0.04,1.01,
1.016,-0.52,0.04,0.26,0.02,0.04,1.01,
1.018,-0.52,0.04,0.26,0.02,0.04,1.01,
1.02,-0.52,0.04,0.26,0.02,0.04,1.01,
1.021,-0.53,0.04,0.29,0.02,0.04,1.01,
1.023,-0.53,0.04,0.29,0.02,0.04,1.01,
1.032,-0.53,0.04,0.29,0.02,0.04,1.01,
1.033,-0.54,0.03,0.32,0.02,0.04,1.01,
1.033,-0.54,0.03,0.32,0.02,0.03,1.01,
1.033,-0.54,0.03,0.32,0.02,0.04,1.01,
1.034,-0.53,0.02,0.35,0.02,0.04,1.01,
1.034,-0.53,0.02,0.35,0.02,0.04,1.01,
1.035,-0.53,0.02,0.35,0.02,0.04,1.01,
1.035,-0.53,0.02,0.34,0.02,0.04,1.01,
1.037,-0.53,0.02,0.34,0.02,0.04,1.01,
1.04,-0.53,0.02,0.34,0.03,0.04,1.01,
1.041,-0.49,0.02,0.33,0.03,0.04,1.01,
1.046,-0.49,0.02,0.33,0.03,0.04,1.01,
1.046,-0.49,0.02,0.33,0.03,0.04,1.01,
1.047,-0.46,0.04,0.30,0.03,0.04,1.01,
1.047,-0.46,0.04,0.30,0.03,0.05,1.00,
1.05,-0.46,0.04,0.30,0.03,0.04,1.00,
1.05,-0.42,0.07,0.27,0.03,0.04,1.00,
1.052,-0.42,0.07,0.27,0.03,0.05,1.00,
1.055,-0.42,0.07,0.27,0.03,0.05,1.00,
1.055,-0.39,0.11,0.23,0.03,0.05,1.00,
1.057,-0.39,0.11,0.23,0.03,0.05,0.99,
1.06,-0.39,0.11,0.23,0.03,0.05,0.99,
1.06,-0.37,0.13,0.18,0.03,0.05,0.99,
1.062,-0.37,0.13,0.18,0.04,0.05,0.98,
1.065,-0.37,0.13,0.18,0.03,0.05,0.98,
1.065,-0.36,0.16,0.10,0.03,0.05,0.98,
1.067,-0.36,0.16,0.10,0.03,0.06,0.98,
1.07,-0.36,0.16,0.10,0.03,0.06,0.97,
1.07,-0.33,0.18,0.03,0.03,0.06,0.97,
1.072,-0.33,0.18,0.03,0.04,0.06,0.97,
1.074,-0.33,0.18,0.03,0.04,0.06,0.97,
1.075,-0.33,0.22,-0.06,0.04,0.06,0.97,
1.077,-0.33,0.22,-0.06,0.04,0.06,0.97,
1.08,-0.33,0.22,-0.06,0.04,0.06,0.96,
1.08,-0.30,0.23,-0.11,0.04,0.06,0.96,
1.082,-0.30,0.23,-0.11,0.04,0.07,0.96,
1.084,-0.30,0.23,-0.11,0.04,0.07,0.96,
1.084,-0.29,0.28,-0.17,0.04,0.07,0.96,
1.086,-0.29,0.28,-0.17,0.04,0.06,0.96,
1.089,-0.29,0.28,-0.17,0.04,0.07,0.96,
1.089,-0.26,0.30,-0.21,0.04,0.07,0.96,
1.091,-0.26,0.30,-0.21,0.04,0.07,0.96,
1.094,-0.26,0.30,-0.21,0.04,0.07,0.96,
1.095,-0.25,0.29,-0.20,0.04,0.07,0.96,
1.096,-0.25,0.29,-0.20,0.05,0.07,0.96,
1.099,-0.25,0.29,-0.20,0.05,0.07,0.97,
1.099,-0.22,0.29,-0.18,0.05,0.07,0.97,
1.101,-0.22,0.29,-0.18,0.04,0.06,0.97,
1.104,-0.22,0.29,-0.18,0.04,0.07,0.97,
1.104,-0.19,0.30,-0.15,0.04,0.07,0.97,
1.106,-0.19,0.30,-0.15,0.04,0.06,0.97,
1.115,-0.19,0.30,-0.15,0.05,0.06,0.97,
1.116,-0.21,0.28,-0.09,0.05,0.06,0.97,
1.116,-0.21,0.28,-0.09,0.04,0.06,0.98,
1.116,-0.21,0.28,-0.09,0.04,0.06,0.98,
1.116,-0.21,0.26,-0.07,0.04,0.06,0.98,
1.116,-0.21,0.26,-0.07,0.04,0.06,0.98,
1.118,-0.21,0.26,-0.07,0.04,0.06,0.98,
1.119,-0.24,0.24,-0.02,0.04,0.06,0.98,
1.121,-0.24,0.24,-0.02,0.04,0.05,0.98,
1.123,-0.24,0.24,-0.02,0.04,0.05,0.98,
1.123,-0.24,0.20,-0.01,0.04,0.05,0.98,
1.127,-0.24,0.20,-0.01,0.03,0.05,0.98,
1.128,-0.24,0.20,-0.01,0.03,0.05,0.98,
1.129,-0.28,0.16,0.01,0.03,0.05,0.98,
1.13,-0.28,0.16,0.01,0.03,0.05,0.98,
1.133,-0.28,0.16,0.01,0.03,0.05,0.98,
1.134,-0.31,0.15,0.02,0.03,0.05,0.98,
1.135,-0.31,0.15,0.02,0.03,0.05,0.98,
1.138,-0.31,0.15,0.02,0.03,0.05,0.98,
1.138,-0.33,0.12,0.02,0.03,0.05,0.98,
1.14,-0.33,0.12,0.02,0.04,0.05,0.98,
1.143,-0.33,0.12,0.02,0.04,0.05,0.99,
1.143,-0.32,0.13,0.03,0.04,0.05,0.99,
1.145,-0.32,0.13,0.03,0.04,0.05,0.99,
1.148,-0.32,0.13,0.03,0.04,0.05,0.99,
1.148,-0.29,0.13,0.05,0.04,0.05,0.99,
1.15,-0.29,0.13,0.05,0.04,0.05,0.99,
1.153,-0.29,0.13,0.05,0.04,0.05,0.99,
1.155,-0.27,0.15,0.07,0.04,0.05,0.99,
1.155,-0.27,0.15,0.07,0.04,0.05,0.99,
1.158,-0.27,0.15,0.07,0.05,0.06,0.99,
1.158,-0.21,0.15,0.08,0.05,0.06,0.99,
1.16,-0.21,0.15,0.08,0.05,0.06,0.99,
1.162,-0.21,0.15,0.08,0.05,0.06,0.99,
1.163,-0.17,0.20,0.11,0.05,0.06,0.99,
1.165,-0.17,0.20,0.11,0.05,0.06,0.99,
1.168,-0.17,0.20,0.11,0.05,0.06,0.99,
1.168,-0.13,0.20,0.10,0.05,0.06,0.99,
1.17,-0.13,0.20,0.10,0.05,0.06,0.99,
1.172,-0.13,0.20,0.10,0.05,0.06,0.99,
1.172,-0.09,0.23,0.12,0.05,0.06,0.99,
1.174,-0.09,0.23,0.12,0.05,0.07,0.99,
1.177,-0.09,0.23,0.12,0.05,0.07,0.99,
1.179,-0.08,0.27,0.13,0.05,0.07,0.99,
1.18,-0.08,0.27,0.13,0.05,0.07,0.99,
1.182,-0.08,0.27,0.13,0.05,0.07,0.99,
1.182,-0.10,0.30,0.13,0.05,0.07,0.99,
1.185,-0.10,0.30,0.13,0.05,0.07,0.99,
1.187,-0.10,0.30,0.13,0.05,0.07,0.98,
1.187,-0.10,0.32,0.06,0.05,0.07,0.98,
1.189,-0.10,0.32,0.06,0.04,0.07,0.98,
1.192,-0.10,0.32,0.06,0.04,0.07,0.98,
1.192,-0.11,0.31,0.03,0.04,0.07,0.98,
1.194,-0.11,0.31,0.03,0.04,0.07,0.97,
1.197,-0.11,0.31,0.03,0.04,0.07,0.97,
1.197,-0.13,0.31,-0.03,0.04,0.07,0.97,
1.199,-0.13,0.31,-0.03,0.03,0.07,0.97,
1.202,-0.13,0.31,-0.03,0.03,0.07,0.96,
1.202,-0.19,0.32,-0.09,0.03,0.07,0.96,
1.204,-0.19,0.32,-0.09,0.03,0.07,0.96,
1.207,-0.19,0.32,-0.09,0.02,0.07,0.96,
1.207,-0.25,0.31,-0.14,0.02,0.07,0.96,
1.209,-0.25,0.31,-0.14,0.02,0.06,0.96,
1.212,-0.25,0.31,-0.14,0.02,0.06,0.96,
1.212,-0.30,0.29,-0.19,0.02,0.06,0.96,
1.214,-0.30,0.29,-0.19,0.02,0.06,0.95,
1.217,-0.30,0.29,-0.19,0.02,0.06,0.95,
1.217,-0.32,0.26,-0.23,0.02,0.06,0.95,
1.219,-0.32,0.26,-0.23,0.02,0.06,0.95,
1.221,-0.32,0.26,-0.23,0.02,0.06,0.95,
1.222,-0.35,0.24,-0.25,0.02,0.06,0.95,
1.223,-0.35,0.24,-0.25,0.02,0.06,0.95,
1.231,-0.35,0.24,-0.25,0.02,0.06,0.95,
1.232,-0.34,0.21,-0.27,0.02,0.06,0.95,
1.232,-0.34,0.21,-0.27,0.02,0.06,0.95,
1.232,-0.34,0.21,-0.27,0.02,0.06,0.95,
1.232,-0.31,0.21,-0.28,0.02,0.06,0.95,
1.233,-0.31,0.21,-0.28,0.02,0.06,0.95,
1.236,-0.31,0.21,-0.28,0.03,0.06,0.95,
1.236,-0.29,0.23,-0.27,0.03,0.06,0.95,
1.238,-0.29,0.23,-0.27,0.03,0.06,0.96,
1.241,-0.29,0.23,-0.27,0.03,0.06,0.96,
1.241,-0.24,0.24,-0.26,0.03,0.06,0.96,
1.243,-0.24,0.24,-0.26,0.04,0.06,0.96,
1.246,-0.24,0.24,-0.26,0.04,0.07,0.96,
1.246,-0.20,0.27,-0.23,0.04,0.07,0.96,
1.248,-0.20,0.27,-0.23,0.04,0.07,0.96,
1.251,-0.20,0.27,-0.23,0.05,0.07,0.96,
1.251,-0.09,0.30,-0.20,0.05,0.07,0.96,
1.253,-0.09,0.30,-0.20,0.05,0.07,0.96,
1.256,-0.09,0.30,-0.20,0.05,0.07,0.96,
1.256,-0.05,0.29,-0.18,0.05,0.07,0.96,
1.258,-0.05,0.29,-0.18,0.05,0.07,0.96,
1.261,-0.05,0.29,-0.18,0.05,0.07,0.96,
1.261,0.01,0.31,-0.16,0.05,0.07,0.96,
1.263,0.01,0.31,-0.16,0.06,0.07,0.96,
1.266,0.04,0.34,-0.16,0.06,0.07,0.96,
1.266,0.04,0.34,-0.16,0.06,0.07,0.96,
1.268,0.04,0.34,-0.16,0.06,0.07,0.96,
1.27,0.04,0.34,-0.16,0.06,0.07,0.96,
1.271,0.06,0.34,-0.18,0.06,0.07,0.96,
1.272,0.06,0.34,-0.18,0.05,0.07,0.96,
1.276,0.06,0.34,-0.18,0.05,0.07,0.96,
1.276,0.07,0.34,-0.19,0.05,0.07,0.96,
1.278,0.07,0.34,-0.19,0.05,0.07,0.96,
1.28,0.07,0.34,-0.19,0.05,0.07,0.96,
1.28,0.06,0.33,-0.21,0.05,0.07,0.96,
1.282,0.06,0.33,-0.21,0.05,0.07,0.96,
1.285,0.06,0.33,-0.21,0.05,0.06,0.96,
1.285,0.05,0.30,-0.21,0.05,0.06,0.96,
1.287,0.05,0.30,-0.21,0.05,0.06,0.95,
1.29,0.05,0.30,-0.21,0.05,0.06,0.95,
1.29,0.04,0.28,-0.22,0.05,0.06,0.95,
1.293,0.04,0.28,-0.22,0.05,0.06,0.95,
1.295,0.04,0.28,-0.22,0.05,0.06,0.95,
1.295,0.04,0.26,-0.24,0.05,0.06,0.95,
1.297,0.04,0.26,-0.24,0.05,0.06,0.95,
1.3,0.04,0.26,-0.24,0.05,0.06,0.95,
1.3,0.01,0.26,-0.23,0.05,0.06,0.95,
1.302,0.01,0.26,-0.23,0.05,0.06,0.96,
1.305,0.01,0.26,-0.23,0.05,0.06,0.96,
1.305,-0.00,0.26,-0.23,0.05,0.06,0.96,
1.307,-0.00,0.26,-0.23,0.05,0.06,0.96,
1.31,-0.00,0.26,-0.23,0.05,0.06,0.96,
1.31,-0.02,0.24,-0.20,0.05,0.06,0.96,
1.312,-0.02,0.24,-0.20,0.05,0.06,0.97,
1.314,-0.02,0.24,-0.20,0.05,0.06,0.97,
1.315,-0.00,0.25,-0.15,0.05,0.06,0.97,
1.317,-0.00,0.25,-0.15,0.05,0.06,0.98,
1.319,-0.00,0.25,-0.15,0.05,0.06,0.98,
1.32,0.01,0.24,-0.09,0.05,0.06,0.98,
1.322,0.01,0.24,-0.09,0.06,0.06,0.98,
1.324,0.01,0.24,-0.09,0.06,0.06,0.99,
1.325,0.05,0.24,0.01,0.06,0.06,0.99,
1.332,0.05,0.24,0.01,0.06,0.06,0.99,
1.333,0.05,0.24,0.01,0.06,0.06,1.00,
1.333,0.07,0.26,0.08,0.06,0.06,1.00,
1.333,0.07,0.26,0.08,0.06,0.06,1.00,
1.334,0.07,0.26,0.08,0.07,0.06,1.01,
1.334,0.09,0.27,0.17,0.07,0.06,1.01,
1.336,0.09,0.27,0.17,0.07,0.06,1.01,
1.339,0.09,0.27,0.17,0.07,0.06,1.01,
1.339,0.14,0.27,0.26,0.07,0.06,1.01,
1.341,0.14,0.27,0.26,0.07,0.06,1.01,
1.344,0.14,0.27,0.26,0.07,0.06,1.02,
1.344,0.18,0.27,0.30,0.07,0.06,1.02,
1.346,0.18,0.27,0.30,0.07,0.06,1.02,
1.349,0.18,0.27,0.30,0.07,0.06,1.01,
1.349,0.17,0.26,0.35,0.07,0.06,1.01,
1.351,0.17,0.26,0.35,0.07,0.06,1.01,
1.353,0.17,0.26,0.35,0.06,0.06,1.01,
1.354,0.19,0.24,0.36,0.06,0.06,1.01,
1.356,0.19,0.24,0.36,0.06,0.06,1.01,
1.359,0.19,0.24,0.36,0.06,0.06,1.01,
1.359,0.15,0.23,0.35,0.06,0.06,1.01,
1.361,0.15,0.23,0.35,0.06,0.06,1.01,
1.363,0.15,0.23,0.35,0.06,0.05,1.01,
1.363,0.09,0.22,0.34,0.06,0.05,1.01,
1.366,0.09,0.22,0.34,0.06,0.05,1.01,
1.368,0.09,0.22,0.34,0.05,0.05,1.00,
1.368,0.09,0.21,0.30,0.05,0.05,1.00,
1.37,0.09,0.21,0.30,0.05,0.05,1.00,
1.374,0.09,0.21,0.30,0.05,0.05,1.00,
1.374,0.07,0.17,0.25,0.05,0.05,1.00,
1.376,0.07,0.17,0.25,0.05,0.05,1.00,
1.378,0.07,0.17,0.25,0.05,0.05,0.99,
1.379,-0.01,0.15,0.20,0.05,0.05,0.99,
1.38,-0.01,0.15,0.20,0.05,0.05,0.99,
1.383,-0.01,0.15,0.20,0.04,0.05,0.99,
1.383,-0.01,0.14,0.15,0.04,0.05,0.99,
1.385,-0.01,0.14,0.15,0.04,0.05,0.99,
1.388,-0.01,0.14,0.15,0.04,0.05,0.99,
1.388,-0.03,0.13,0.13,0.04,0.05,0.99,
1.39,-0.03,0.13,0.13,0.04,0.05,0.99,
1.393,-0.03,0.13,0.13,0.04,0.05,0.99,
1.394,-0.06,0.16,0.12,0.04,0.05,0.99,
1.395,-0.06,0.16,0.12,0.03,0.05,0.99,
1.398,-0.06,0.16,0.12,0.04,0.05,0.99,
1.398,-0.10,0.15,0.10,0.04,0.05,0.99,
1.4,-0.10,0.15,0.10,0.03,0.05,0.99,
1.402,-0.10,0.15,0.10,0.03,0.05,0.99,
1.403,-0.11,0.13,0.11,0.03,0.05,0.99,
1.405,-0.11,0.13,0.11,0.03,0.05,0.99,
1.407,-0.11,0.13,0.11,0.03,0.05,0.99,
1.408,-0.12,0.15,0.10,0.03,0.05,0.99,
1.414,-0.12,0.15,0.10,0.03,0.05,0.99,
1.415,-0.12,0.15,0.10,0.04,0.05,0.99,
1.415,-0.12,0.13,0.09,0.04,0.05,0.99,
1.415,-0.12,0.13,0.09,0.04,0.05,0.99,
1.417,-0.12,0.13,0.09,0.03,0.05,0.99,
1.417,-0.10,0.13,0.08,0.03,0.05,0.99,
1.419,-0.10,0.13,0.08,0.03,0.05,0.99,
1.422,-0.10,0.13,0.08,0.04,0.05,0.99,
1.422,-0.09,0.16,0.09,0.04,0.05,0.99,
1.424,-0.09,0.16,0.09,0.04,0.05,0.99,
1.427,-0.09,0.16,0.09,0.04,0.05,0.99,
1.428,-0.09,0.16,0.09,0.04,0.05,0.99,
1.429,-0.09,0.16,0.09,0.04,0.05,0.99,
1.432,-0.09,0.16,0.09,0.04,0.05,0.99,
1.432,-0.08,0.16,0.08,0.04,0.05,0.99,
1.434,-0.08,0.16,0.08,0.04,0.05,0.99,
1.437,-0.08,0.16,0.08,0.04,0.05,0.98,
1.437,-0.07,0.16,0.06,0.04,0.05,0.98,
1.439,-0.07,0.16,0.06,0.04,0.05,0.99,
1.442,-0.07,0.16,0.06,0.03,0.05,0.98,
1.443,-0.07,0.16,0.05,0.03,0.05,0.98,
1.444,-0.07,0.16,0.05,0.03,0.05,0.98,
1.447,-0.07,0.16,0.05,0.03,0.05,0.98,
1.447,-0.09,0.15,0.04,0.03,0.05,0.98,
1.449,-0.09,0.15,0.04,0.03,0.05,0.98,
1.451,-0.09,0.15,0.04,0.03,0.05,0.98,
1.452,-0.09,0.15,0.03,0.03,0.05,0.98,
1.454,-0.09,0.15,0.03,0.03,0.05,0.98,
1.456,-0.09,0.15,0.03,0.03,0.05,0.98,
1.457,-0.09,0.14,0.03,0.03,0.05,0.98,
1.459,-0.09,0.14,0.03,0.03,0.04,0.98,
1.462,-0.09,0.14,0.03,0.03,0.04,0.98,
1.462,-0.12,0.12,0.02,0.03,0.04,0.98,
1.463,-0.12,0.12,0.02,0.03,0.04,0.98,
1.466,-0.12,0.12,0.02,0.03,0.04,0.98,
1.466,-0.12,0.11,0.01,0.03,0.04,0.98,
1.468,-0.12,0.11,0.01,0.03,0.04,0.98,
1.471,-0.12,0.11,0.01,0.03,0.04,0.98,
1.471,-0.13,0.08,0.03,0.03,0.04,0.98,
1.474,-0.13,0.08,0.03,0.03,0.04,0.98,
1.476,-0.13,0.08,0.03,0.03,0.04,0.98,
1.477,-0.14,0.09,0.02,0.03,0.04,0.98,
1.478,-0.14,0.09,0.02,0.03,0.04,0.98,
1.481,-0.14,0.09,0.02,0.03,0.04,0.99,
1.481,-0.13,0.10,0.02,0.03,0.04,0.99,
1.483,-0.13,0.10,0.02,0.03,0.04,0.99,
1.486,-0.13,0.10,0.02,0.03,0.04,0.99,
1.486,-0.10,0.10,0.03,0.03,0.04,0.99,
1.488,-0.10,0.10,0.03,0.03,0.04,0.99,
1.491,-0.10,0.10,0.03,0.03,0.04,0.99,
1.491,-0.07,0.11,0.06,0.03,0.04,0.99,
1.493,-0.07,0.11,0.06,0.03,0.05,0.99,
1.496,-0.07,0.11,0.06,0.03,0.05,0.99,
1.496,-0.06,0.10,0.08,0.03,0.05,0.99,
1.498,-0.06,0.10,0.08,0.04,0.05,0.99,
1.5,-0.06,0.10,0.08,0.04,0.05,0.99,
1.501,-0.06,0.14,0.10,0.04,0.05,0.99,
1.503,-0.06,0.14,0.10,0.03,0.05,0.99,
1.505,-0.06,0.14,0.10,0.03,0.05,0.99,
1.506,-0.03,0.14,0.10,0.03,0.05,0.99,
1.508,-0.03,0.14,0.10,0.03,0.05,0.99,
1.515,-0.03,0.14,0.10,0.03,0.05,0.99,
1.516,-0.05,0.14,0.10,0.03,0.05,0.99,
1.516,-0.05,0.14,0.10,0.03,0.05,0.99,
1.516,-0.06,0.14,0.08,0.03,0.05,0.99,
1.516,-0.06,0.14,0.08,0.03,0.05,0.99,
1.517,-0.06,0.14,0.08,0.03,0.05,0.98,
1.52,-0.06,0.14,0.08,0.03,0.05,0.98,
1.52,-0.09,0.14,0.05,0.03,0.05,0.98,
1.522,-0.09,0.14,0.05,0.02,0.04,0.98,
1.527,-0.09,0.14,0.05,0.02,0.04,0.98,
1.527,-0.11,0.13,0.01,0.02,0.04,0.98,
1.528,-0.11,0.13,0.01,0.02,0.04,0.97,
1.53,-0.11,0.13,0.01,0.02,0.04,0.97,
1.53,-0.13,0.09,-0.04,0.02,0.04,0.97,
1.532,-0.13,0.09,-0.04,0.02,0.04,0.97,
1.535,-0.13,0.09,-0.04,0.01,0.04,0.96,
1.535,-0.17,0.05,-0.10,0.01,0.04,0.96,
1.537,-0.17,0.05,-0.10,0.01,0.03,0.96,
1.54,-0.17,0.05,-0.10,0.01,0.03,0.96,
1.54,-0.24,0.03,-0.16,0.01,0.03,0.96,
1.542,-0.24,0.03,-0.16,0.01,0.03,0.96,
1.545,-0.24,0.03,-0.16,0.01,0.03,0.96,
1.545,-0.27,-0.00,-0.21,0.01,0.03,0.96,
1.547,-0.27,-0.00,-0.21,0.01,0.03,0.96,
1.549,-0.27,-0.00,-0.21,0.01,0.03,0.96,
1.55,-0.29,0.00,-0.24,0.01,0.03,0.96,
1.552,-0.29,0.00,-0.24,0.01,0.03,0.96,
1.554,-0.29,0.00,-0.24,0.01,0.03,0.96,
1.554,-0.29,-0.01,-0.23,0.01,0.03,0.96,
1.557,-0.29,-0.01,-0.23,0.01,0.03,0.96,
1.559,-0.29,-0.01,-0.23,0.01,0.03,0.96,
1.559,-0.27,-0.02,-0.20,0.01,0.03,0.96,
1.562,-0.27,-0.02,-0.20,0.02,0.03,0.96,
1.564,-0.27,-0.02,-0.20,0.02,0.04,0.97,
1.565,-0.22,-0.02,-0.19,0.02,0.04,0.97,
1.566,-0.22,-0.02,-0.19,0.02,0.03,0.97,
1.569,-0.22,-0.02,-0.19,0.03,0.04,0.97,
1.569,-0.16,0.03,-0.16,0.03,0.04,0.97,
1.571,-0.16,0.03,-0.16,0.03,0.04,0.97,
1.574,-0.16,0.03,-0.16,0.03,0.04,0.97,
1.574,-0.10,0.04,-0.12,0.03,0.04,0.97,
1.576,-0.10,0.04,-0.12,0.03,0.04,0.97,
1.579,-0.10,0.04,-0.12,0.04,0.04,0.98,
1.58,-0.04,0.06,-0.09,0.04,0.04,0.98,
1.581,-0.04,0.06,-0.09,0.04,0.04,0.98,
1.583,-0.04,0.06,-0.09,0.04,0.04,0.98,
1.584,0.02,0.10,-0.05,0.04,0.04,0.98,
1.586,0.02,0.10,-0.05,0.04,0.05,0.98,
1.588,0.02,0.10,-0.05,0.04,0.05,0.98,
1.589,0.06,0.12,-0.04,0.04,0.05,0.98,
1.591,0.06,0.12,-0.04,0.04,0.05,0.98,
1.593,0.06,0.12,-0.04,0.04,0.05,0.98,
1.594,0.09,0.15,-0.04,0.04,0.05,0.98,
1.596,0.09,0.15,-0.04,0.04,0.05,0.97,
1.598,0.09,0.15,-0.04,0.04,0.05,0.97,
1.599,0.09,0.17,-0.05,0.04,0.05,0.97,
1.601,0.09,0.17,-0.05,0.04,0.05,0.97,
1.603,0.09,0.17,-0.05,0.04,0.05,0.97,
1.603,0.10,0.17,-0.06,0.04,0.05,0.97,
1.606,0.10,0.17,-0.06,0.04,0.05,0.97,
1.614,0.10,0.17,-0.06,0.04,0.05,0.97,
1.614,0.10,0.18,-0.08,0.04,0.05,0.97,
1.614,0.10,0.18,-0.08,0.04,0.05,0.97,
1.615,0.10,0.18,-0.08,0.03,0.05,0.97,
1.615,0.08,0.17,-0.09,0.03,0.05,0.97,
1.616,0.08,0.17,-0.09,0.03,0.04,0.97,
1.618,0.08,0.17,-0.09,0.03,0.04,0.97,
1.618,0.05,0.16,-0.10,0.03,0.04,0.97,
1.62,0.05,0.16,-0.10,0.03,0.04,0.97,
1.623,0.05,0.16,-0.10,0.03,0.04,0.97,
1.623,-0.01,0.14,-0.09,0.03,0.04,0.97,
1.625,-0.01,0.14,-0.09,0.03,0.04,0.97,
1.628,-0.01,0.14,-0.09,0.02,0.04,0.97,
1.628,-0.04,0.09,-0.11,0.02,0.04,0.97,
1.63,-0.04,0.09,-0.11,0.02,0.04,0.97,
1.633,-0.04,0.09,-0.11,0.02,0.03,0.97,
1.633,-0.06,0.07,-0.10,0.02,0.03,0.97,
1.635,-0.06,0.07,-0.10,0.02,0.03,0.97,
1.638,-0.06,0.07,-0.10,0.02,0.04,0.97,
1.638,-0.08,0.05,-0.09,0.02,0.04,0.97,
1.64,-0.08,0.05,-0.09,0.02,0.04,0.98,
1.643,-0.08,0.05,-0.09,0.02,0.04,0.98,
1.644,-0.08,0.06,-0.07,0.02,0.04,0.98,
1.645,-0.08,0.06,-0.07,0.02,0.04,0.98,
1.648,-0.08,0.06,-0.07,0.03,0.04,0.98,
1.648,-0.07,0.08,-0.04,0.03,0.04,0.98,
1.65,-0.07,0.08,-0.04,0.03,0.04,0.98,
1.652,-0.07,0.08,-0.04,0.03,0.04,0.98,
1.653,-0.04,0.11,0.00,0.03,0.04,0.98,
1.655,-0.04,0.11,0.00,0.03,0.04,0.98,
1.657,-0.04,0.11,0.00,0.04,0.05,0.98,
1.657,0.01,0.13,0.03,0.04,0.05,0.98,
1.659,0.01,0.13,0.03,0.04,0.05,0.98,
1.662,0.01,0.13,0.03,0.04,0.05,0.98,
1.662,0.07,0.17,0.04,0.04,0.05,0.98,
1.665,0.07,0.17,0.04,0.04,0.05,0.99,
1.667,0.07,0.17,0.04,0.04,0.06,0.98,
1.667,0.13,0.21,0.03,0.04,0.06,0.98,
1.669,0.13,0.21,0.03,0.04,0.06,0.99,
1.672,0.13,0.21,0.03,0.04,0.06,0.98,
1.672,0.15,0.27,0.05,0.04,0.06,0.98,
1.674,0.15,0.27,0.05,0.04,0.06,0.99,
1.677,0.15,0.27,0.05,0.04,0.06,0.99,
1.678,0.15,0.32,0.04,0.04,0.06,0.99,
1.679,0.15,0.32,0.04,0.04,0.06,0.99,
1.682,0.15,0.32,0.04,0.04,0.06,0.98,
1.682,0.14,0.35,0.06,0.04,0.06,0.98,
1.684,0.14,0.35,0.06,0.04,0.06,0.98,
1.687,0.14,0.35,0.06,0.03,0.06,0.98,
1.687,0.10,0.34,0.04,0.03,0.06,0.98,
1.689,0.10,0.34,0.04,0.03,0.06,0.98,
1.692,0.10,0.34,0.04,0.03,0.06,0.98,
1.693,0.09,0.33,0.03,0.03,0.06,0.98,
1.694,0.09,0.33,0.03,0.02,0.06,0.98,
1.696,0.09,0.33,0.03,0.02,0.06,0.98,
1.697,0.03,0.32,0.01,0.02,0.06,0.98,
1.699,0.03,0.32,0.01,0.02,0.06,0.98,
1.701,0.03,0.32,0.01,0.02,0.06,0.98,
1.701,-0.03,0.30,0.01,0.02,0.06,0.98,
1.704,-0.03,0.30,0.01,0.02,0.06,0.98,
1.706,-0.03,0.30,0.01,0.02,0.05,0.98,
1.707,-0.06,0.30,-0.01,0.02,0.05,0.98,
1.709,-0.06,0.30,-0.01,0.01,0.05,0.98,
1.711,-0.06,0.30,-0.01,0.01,0.05,0.98,
1.711,-0.08,0.27,-0.00,0.01,0.05,0.98,
1.714,-0.08,0.27,-0.00,0.01,0.05,0.98,
1.716,-0.08,0.27,-0.00,0.01,0.05,0.98,
1.717,-0.10,0.25,0.02,0.01,0.05,0.98,
1.718,-0.10,0.25,0.02,0.02,0.05,0.98,
1.721,-0.10,0.25,0.02,0.02,0.05,0.98,
1.721,-0.11,0.25,0.01,0.02,0.05,0.98,
1.723,-0.11,0.25,0.01,0.02,0.05,0.98,
1.731,-0.11,0.25,0.01,0.02,0.05,0.99,
1.731,-0.06,0.23,0.03,0.02,0.05,0.99,
1.732,-0.06,0.23,0.03,0.03,0.05,0.99,
1.732,-0.06,0.23,0.03,0.03,0.05,0.99,
1.733,0.00,0.24,0.04,0.03,0.05,0.99,
1.734,0.00,0.24,0.04,0.03,0.05,0.99,
1.735,0.00,0.24,0.04,0.03,0.05,0.99,
1.736,0.05,0.23,0.06,0.03,0.05,0.99,
1.738,0.05,0.23,0.06,0.04,0.05,0.99,
1.74,0.05,0.23,0.06,0.04,0.06,0.99,
1.741,0.10,0.25,0.09,0.04,0.06,0.99,
1.743,0.10,0.25,0.09,0.04,0.06,0.99,
1.745,0.10,0.25,0.09,0.04,0.06,0.99,
1.746,0.14,0.27,0.09,0.04,0.06,0.99,
1.748,0.14,0.27,0.09,0.04,0.06,0.99,
1.75,0.14,0.27,0.09,0.04,0.06,0.98,
1.751,0.18,0.30,0.07,0.04,0.06,0.98,
1.753,0.18,0.30,0.07,0.04,0.06,0.98,
1.755,0.18,0.30,0.07,0.04,0.06,0.98,
1.755,0.24,0.32,0.04,0.04,0.06,0.98,
1.757,0.24,0.32,0.04,0.04,0.06,0.98,
1.76,0.24,0.32,0.04,0.04,0.06,0.97,
1.76,0.24,0.34,-0.01,0.04,0.06,0.97,
1.762,0.24,0.34,-0.01,0.04,0.06,0.97,
1.765,0.25,0.36,-0.08,0.04,0.06,0.97,
1.765,0.25,0.36,-0.08,0.04,0.07,0.97,
1.767,0.25,0.36,-0.08,0.04,0.07,0.96,
1.77,0.25,0.36,-0.08,0.04,0.06,0.96,
1.77,0.21,0.37,-0.14,0.04,0.06,0.96,
1.772,0.21,0.37,-0.14,0.03,0.06,0.96,
1.775,0.21,0.37,-0.14,0.03,0.06,0.96,
1.775,0.20,0.36,-0.18,0.03,0.06,0.96,
1.777,0.20,0.36,-0.18,0.03,0.06,0.96,
1.78,0.20,0.36,-0.18,0.03,0.06,0.96,
1.78,0.15,0.33,-0.22,0.03,0.06,0.96,
1.782,0.15,0.33,-0.22,0.03,0.06,0.96,
1.785,0.15,0.33,-0.22,0.03,0.06,0.96,
1.785,0.12,0.31,-0.22,0.03,0.06,0.96,
1.787,0.12,0.31,-0.22,0.03,0.05,0.96,
1.789,0.12,0.29,-0.18,0.03,0.05,0.96,
1.79,0.12,0.29,-0.18,0.03,0.05,0.97,
1.792,0.12,0.29,-0.18,0.03,0.05,0.97,
1.794,0.12,0.29,-0.18,0.03,0.05,0.97,
1.795,0.11,0.25,-0.14,0.03,0.05,0.97,
1.796,0.11,0.25,-0.14,0.03,0.05,0.98,
1.799,0.11,0.25,-0.14,0.03,0.05,0.98,
1.799,0.12,0.25,-0.08,0.03,0.05,0.98,
1.802,0.12,0.25,-0.08,0.03,0.05,0.99,
1.804,0.12,0.25,-0.08,0.04,0.05,0.99,
1.804,0.14,0.23,-0.01,0.04,0.05,0.99,
1.806,0.14,0.23,-0.01,0.04,0.05,0.99,
1.811,0.14,0.23,-0.01,0.04,0.05,1.00,
1.812,0.17,0.22,0.07,0.04,0.05,1.00,
1.812,0.17,0.22,0.07,0.04,0.05,1.00,
1.814,0.17,0.22,0.07,0.05,0.05,1.00,
1.814,0.21,0.25,0.13,0.05,0.05,1.00,
1.816,0.21,0.25,0.13,0.05,0.05,1.01,
1.819,0.21,0.25,0.13,0.05,0.06,1.01,
1.819,0.25,0.24,0.21,0.05,0.06,1.01,
1.821,0.25,0.24,0.21,0.05,0.05,1.01,
1.824,0.25,0.24,0.21,0.06,0.05,1.01,
1.824,0.31,0.25,0.26,0.06,0.05,1.01,
1.826,0.31,0.25,0.26,0.06,0.05,1.01,
1.828,0.31,0.25,0.26,0.06,0.05,1.01,
1.829,0.36,0.24,0.29,0.06,0.05,1.01,
1.831,0.36,0.24,0.29,0.06,0.05,1.01,
1.833,0.36,0.24,0.29,0.07,0.06,1.01,
1.834,0.43,0.25,0.29,0.07,0.06,1.01,
1.836,0.43,0.25,0.29,0.07,0.06,1.01,
1.838,0.43,0.25,0.29,0.07,0.06,1.01,
1.838,0.46,0.26,0.28,0.07,0.06,1.01,
1.841,0.46,0.26,0.28,0.06,0.06,1.00,
1.843,0.46,0.26,0.28,0.06,0.06,1.00,
1.844,0.46,0.29,0.24,0.06,0.06,1.00,
1.846,0.46,0.29,0.24,0.06,0.06,1.00,
1.848,0.46,0.29,0.24,0.05,0.06,1.00,
1.848,0.42,0.30,0.21,0.05,0.06,1.00,
1.85,0.42,0.30,0.21,0.05,0.06,0.99,
1.854,0.42,0.30,0.21,0.05,0.06,0.99,
1.854,0.37,0.30,0.17,0.05,0.06,0.99,
1.855,0.37,0.30,0.17,0.05,0.06,0.99,
1.858,0.37,0.30,0.17,0.04,0.06,0.99,
1.859,0.32,0.29,0.12,0.04,0.06,0.99,
1.86,0.32,0.29,0.12,0.04,0.05,0.99,
1.863,0.32,0.29,0.12,0.04,0.06,0.99,
1.863,0.27,0.26,0.08,0.04,0.06,0.99,
1.865,0.27,0.26,0.08,0.03,0.05,0.99,
1.868,0.27,0.26,0.08,0.03,0.05,0.99,
1.868,0.24,0.23,0.05,0.03,0.05,0.99,
1.87,0.24,0.23,0.05,0.03,0.05,0.99,
1.873,0.24,0.23,0.05,0.03,0.05,0.98,
1.873,0.17,0.20,0.03,0.03,0.05,0.98,
1.876,0.17,0.20,0.03,0.03,0.05,0.98,
1.878,0.17,0.20,0.03,0.03,0.05,0.98,
1.878,0.16,0.18,0.02,0.03,0.05,0.98,
1.88,0.16,0.18,0.02,0.03,0.05,0.98,
1.882,0.16,0.18,0.02,0.03,0.05,0.98,
1.883,0.16,0.17,-0.00,0.03,0.05,0.98,
1.885,0.16,0.17,-0.00,0.03,0.05,0.98,
1.888,0.16,0.17,-0.00,0.03,0.05,0.98,
1.888,0.17,0.16,-0.01,0.03,0.05,0.98,
1.89,0.17,0.16,-0.01,0.04,0.05,0.98,
1.892,0.17,0.16,-0.01,0.04,0.05,0.98,
1.893,0.17,0.15,-0.01,0.04,0.05,0.98,
1.895,0.17,0.15,-0.01,0.04,0.05,0.98,
1.897,0.17,0.15,-0.01,0.04,0.05,0.98,
1.898,0.21,0.15,-0.04,0.04,0.05,0.98,
1.899,0.21,0.15,-0.04,0.05,0.05,0.97,
1.902,0.21,0.15,-0.04,0.05,0.06,0.97,
1.902,0.27,0.17,-0.06,0.05,0.06,0.97,
1.905,0.27,0.17,-0.06,0.05,0.06,0.97,
1.907,0.27,0.17,-0.06,0.05,0.06,0.97,
1.907,0.31,0.21,-0.09,0.05,0.06,0.97,
1.915,0.31,0.21,-0.09,0.06,0.06,0.97,
1.916,0.31,0.21,-0.09,0.06,0.06,0.96,
1.916,0.37,0.25,-0.13,0.06,0.06,0.96,
1.916,0.37,0.25,-0.13,0.06,0.07,0.96,
1.917,0.37,0.25,-0.13,0.06,0.07,0.96,
1.917,0.43,0.29,-0.17,0.06,0.07,0.96,
1.919,0.43,0.29,-0.17,0.06,0.07,0.96,
1.922,0.46,0.32,-0.22,0.06,0.07,0.96,
1.922,0.46,0.32,-0.22,0.06,0.07,0.95,
1.926,0.46,0.32,-0.22,0.06,0.07,0.95,
1.927,0.46,0.32,-0.22,0.06,0.07,0.95,
1.927,0.48,0.36,-0.27,0.06,0.07,0.95,
1.929,0.48,0.36,-0.27,0.06,0.08,0.95,
1.931,0.48,0.36,-0.27,0.06,0.07,0.94,
1.931,0.48,0.38,-0.30,0.06,0.07,0.94,
1.933,0.48,0.38,-0.30,0.06,0.07,0.94,
1.936,0.48,0.38,-0.30,0.06,0.07,0.94,
1.936,0.48,0.38,-0.34,0.06,0.07,0.94,
1.939,0.48,0.38,-0.34,0.06,0.07,0.94,
1.941,0.48,0.38,-0.34,0.05,0.07,0.95,
1.942,0.45,0.37,-0.37,0.05,0.07,0.95,
1.944,0.45,0.37,-0.37,0.05,0.07,0.95,
1.946,0.45,0.37,-0.37,0.05,0.07,0.95,
1.946,0.41,0.35,-0.35,0.05,0.07,0.95,
1.949,0.41,0.35,-0.35,0.05,0.07,0.95,
1.951,0.41,0.35,-0.35,0.05,0.06,0.96,
1.951,0.36,0.32,-0.30,0.05,0.06,0.96,
1.954,0.36,0.32,-0.30,0.04,0.06,0.96,
1.956,0.36,0.32,-0.30,0.04,0.06,0.96,
1.956,0.32,0.27,-0.24,0.04,0.06,0.96,
1.958,0.32,0.27,-0.24,0.04,0.05,0.97,
1.961,0.32,0.27,-0.24,0.04,0.05,0.98,
1.961,0.30,0.22,-0.17,0.04,0.05,0.98,
1.963,0.30,0.22,-0.17,0.04,0.05,0.98,
1.966,0.30,0.22,-0.17,0.04,0.05,0.99,
1.966,0.29,0.16,-0.07,0.04,0.05,0.99,
1.968,0.29,0.16,-0.07,0.04,0.05,0.99,
1.971,0.29,0.16,-0.07,0.04,0.04,1.00,
1.971,0.26,0.12,0.06,0.04,0.04,1.00,
1.973,0.26,0.12,0.06,0.04,0.04,1.00,
1.976,0.26,0.12,0.06,0.04,0.04,1.00,
1.976,0.26,0.09,0.14,0.04,0.04,1.00,
1.978,0.26,0.09,0.14,0.05,0.04,1.00,
1.98,0.26,0.09,0.14,0.05,0.04,1.01,
1.981,0.27,0.06,0.21,0.05,0.04,1.01,
1.983,0.27,0.06,0.21,0.05,0.04,1.01,
1.985,0.27,0.06,0.21,0.05,0.04,1.01,
1.986,0.32,0.04,0.25,0.05,0.04,1.01,
1.988,0.32,0.04,0.25,0.05,0.04,1.01,
1.992,0.35,0.04,0.30,0.05,0.04,1.01,
1.992,0.35,0.04,0.30,0.06,0.04,1.01,
1.993,0.35,0.04,0.30,0.06,0.04,1.01,
1.995,0.35,0.04,0.30,0.06,0.04,1.01,
1.995,0.38,0.03,0.31,0.06,0.04,1.01,
1.997,0.38,0.03,0.31,0.06,0.04,1.00,
2.0,0.38,0.03,0.31,0.06,0.04,1.00,
2.0,0.40,0.03,0.28,0.06,0.04,1.00,
2.002,0.40,0.03,0.28,0.06,0.04,1.00,
2.005,0.40,0.03,0.28,0.06,0.05,0.99,
2.005,0.42,0.02,0.20,0.06,0.05,0.99,
2.008,0.42,0.02,0.20,0.06,0.05,0.99,
2.011,0.42,0.02,0.20,0.06,0.05,0.98,
2.011,0.42,0.05,0.12,0.06,0.05,0.98,
2.012,0.42,0.05,0.12,0.06,0.04,0.98,
2.015,0.42,0.05,0.12,0.06,0.04,0.97,
2.015,0.42,0.04,0.03,0.06,0.04,0.97,
2.017,0.42,0.04,0.03,0.06,0.04,0.97,
2.02,0.42,0.04,0.03,0.06,0.04,0.96,
2.02,0.43,0.03,-0.06,0.06,0.04,0.96,
2.022,0.43,0.03,-0.06,0.05,0.04,0.96,
2.03,0.43,0.03,-0.06,0.05,0.04,0.96,
2.031,0.41,0.01,-0.16,0.05,0.04,0.96,
2.031,0.41,0.01,-0.16,0.05,0.04,0.95,
2.031,0.41,0.01,-0.16,0.05,0.04,0.95,
2.031,0.39,-0.01,-0.23,0.05,0.04,0.95,
2.031,0.39,-0.01,-0.23,0.05,0.04,0.95,
2.034,0.39,-0.01,-0.23,0.05,0.04,0.95,
2.034,0.37,-0.02,-0.28,0.05,0.04,0.95,
2.036,0.37,-0.02,-0.28,0.05,0.04,0.95,
2.039,0.37,-0.02,-0.28,0.05,0.04,0.96,
2.039,0.38,-0.04,-0.29,0.05,0.04,0.96,
2.043,0.38,-0.04,-0.29,0.05,0.04,0.96,
2.044,0.38,-0.04,-0.29,0.06,0.04,0.96,
2.045,0.39,-0.04,-0.24,0.06,0.04,0.96,
2.046,0.39,-0.04,-0.24,0.06,0.04,0.96,
2.049,0.39,-0.04,-0.24,0.06,0.04,0.97,
2.049,0.42,-0.04,-0.22,0.06,0.04,0.97,
2.051,0.42,-0.04,-0.22,0.06,0.04,0.97,
2.054,0.42,-0.04,-0.22,0.06,0.04,0.98,
2.054,0.47,-0.03,-0.14,0.06,0.04,0.98,
2.056,0.47,-0.03,-0.14,0.07,0.04,0.98,
2.059,0.47,-0.03,-0.14,0.07,0.04,0.99,
2.059,0.50,-0.04,-0.05,0.07,0.04,0.99,
2.061,0.50,-0.04,-0.05,0.07,0.04,0.99,
2.064,0.50,-0.04,-0.05,0.07,0.04,0.99,
2.064,0.53,-0.03,0.03,0.07,0.04,0.99,
2.066,0.53,-0.03,0.03,0.07,0.04,0.99,
2.068,0.53,-0.03,0.03,0.07,0.04,1.00,
2.069,0.55,0.00,0.11,0.07,0.04,1.00,
2.071,0.55,0.00,0.11,0.08,0.04,1.00,
2.074,0.55,0.00,0.11,0.08,0.04,1.00,
2.074,0.60,0.02,0.15,0.08,0.04,1.00,
2.076,0.60,0.02,0.15,0.08,0.04,1.00,
2.078,0.60,0.02,0.15,0.08,0.05,1.00,
2.079,0.64,0.00,0.17,0.08,0.05,1.00,
2.081,0.64,0.00,0.17,0.08,0.04,0.99,
2.083,0.64,0.00,0.17,0.09,0.05,0.99,
2.083,0.67,0.02,0.16,0.09,0.05,0.99,
2.085,0.67,0.02,0.16,0.09,0.05,0.99,
2.088,0.67,0.02,0.16,0.09,0.05,0.98,
2.088,0.71,0.01,0.11,0.09,0.05,0.98,
2.091,0.71,0.01,0.11,0.09,0.05,0.98,
2.094,0.71,0.01,0.11,0.09,0.05,0.98,
2.094,0.73,0.05,0.04,0.09,0.05,0.98,
2.095,0.73,0.05,0.04,0.08,0.05,0.97,
2.098,0.73,0.05,0.04,0.08,0.06,0.97,
2.098,0.72,0.06,-0.03,0.08,0.06,0.97,
2.1,0.72,0.06,-0.03,0.08,0.06,0.97,
2.103,0.72,0.06,-0.03,0.08,0.06,0.97,
2.103,0.67,0.08,-0.10,0.08,0.06,0.97,
2.105,0.67,0.08,-0.10,0.08,0.06,0.96,
2.108,0.67,0.08,-0.10,0.08,0.06,0.96,
2.109,0.64,0.10,-0.13,0.08,0.06,0.96,
2.11,0.64,0.10,-0.13,0.08,0.06,0.96,
2.113,0.64,0.10,-0.13,0.08,0.05,0.96,
2.113,0.62,0.11,-0.17,0.08,0.05,0.96,
2.115,0.62,0.11,-0.17,0.08,0.05,0.96,
2.117,0.62,0.11,-0.17,0.08,0.05,0.96,
2.118,0.64,0.08,-0.19,0.08,0.05,0.96,
2.12,0.64,0.08,-0.19,0.08,0.05,0.96,
2.122,0.64,0.08,-0.19,0.08,0.05,0.97,
2.123,0.65,0.04,-0.18,0.08,0.05,0.97,
2.13,0.65,0.04,-0.18,0.09,0.05,0.97,
2.131,0.65,0.04,-0.18,0.09,0.05,0.97,
2.131,0.65,0.03,-0.15,0.09,0.05,0.97,
2.131,0.65,0.03,-0.15,0.09,0.05,0.97,
2.132,0.65,0.03,-0.15,0.08,0.05,0.97,
2.134,0.67,0.04,-0.13,0.08,0.05,0.97,
2.134,0.67,0.04,-0.13,0.09,0.05,0.97,
2.137,0.67,0.04,-0.13,0.08,0.06,0.97,
2.137,0.66,0.04,-0.10,0.08,0.06,0.97,
2.139,0.66,0.04,-0.10,0.08,0.06,0.98,
2.142,0.66,0.04,-0.10,0.08,0.06,0.98,
2.142,0.66,0.05,-0.05,0.08,0.06,0.98,
2.145,0.66,0.05,-0.05,0.08,0.06,0.98,
2.147,0.66,0.05,-0.05,0.09,0.06,0.98,
2.147,0.64,0.07,-0.03,0.09,0.06,0.98,
2.149,0.64,0.07,-0.03,0.09,0.06,0.98,
2.152,0.64,0.07,-0.03,0.09,0.06,0.98,
2.152,0.65,0.08,-0.01,0.09,0.06,0.98,
2.154,0.65,0.08,-0.01,0.09,0.06,0.98,
2.157,0.66,0.07,0.00,0.09,0.06,0.98,
2.158,0.66,0.07,0.00,0.09,0.06,0.98,
2.159,0.66,0.07,0.00,0.09,0.06,0.98,
2.162,0.66,0.07,0.00,0.09,0.06,0.98,
2.162,0.69,0.08,-0.00,0.09,0.06,0.98,
2.164,0.69,0.08,-0.00,0.09,0.06,0.98,
2.166,0.69,0.08,-0.00,0.09,0.06,0.98,
2.167,0.69,0.10,0.00,0.09,0.06,0.98,
2.169,0.69,0.10,0.00,0.09,0.06,0.98,
2.171,0.69,0.10,0.00,0.08,0.06,0.98,
2.171,0.67,0.12,0.01,0.08,0.06,0.98,
2.174,0.67,0.12,0.01,0.08,0.06,0.98,
2.176,0.67,0.12,0.01,0.08,0.06,0.98,
2.176,0.63,0.11,0.00,0.08,0.06,0.98,
2.179,0.63,0.11,0.00,0.08,0.06,0.98,
2.181,0.63,0.11,0.00,0.08,0.06,0.98,
2.181,0.60,0.10,-0.02,0.08,0.06,0.98,
2.183,0.60,0.10,-0.02,0.08,0.06,0.98,
2.186,0.60,0.10,-0.02,0.08,0.06,0.98,
2.186,0.59,0.07,0.00,0.08,0.06,0.98,
2.188,0.59,0.07,0.00,0.07,0.05,0.98,
2.192,0.59,0.07,0.00,0.07,0.05,0.98,
2.193,0.54,0.04,0.02,0.07,0.05,0.98,
2.194,0.54,0.04,0.02,0.07,0.05,0.99,
2.196,0.54,0.04,0.02,0.07,0.05,0.99,
2.196,0.47,0.01,0.02,0.07,0.05,0.99,
2.198,0.47,0.01,0.02,0.06,0.05,0.99,
2.201,0.47,0.01,0.02,0.06,0.04,0.99,
2.201,0.42,-0.02,0.07,0.06,0.04,0.99,
2.203,0.42,-0.02,0.07,0.06,0.04,0.99,
2.206,0.42,-0.02,0.07,0.06,0.04,1.00,
2.206,0.37,-0.07,0.11,0.06,0.04,1.00,
2.209,0.37,-0.07,0.11,0.05,0.04,1.00,
2.211,0.37,-0.07,0.11,0.05,0.04,1.00,
2.211,0.33,-0.12,0.17,0.05,0.04,1.00,
2.213,0.33,-0.12,0.17,0.05,0.04,1.01,
2.215,0.33,-0.12,0.17,0.05,0.04,1.01,
2.216,0.27,-0.13,0.22,0.05,0.04,1.01,
2.218,0.27,-0.13,0.22,0.05,0.04,1.01,
2.22,0.27,-0.13,0.22,0.05,0.03,1.01,
2.221,0.27,-0.16,0.27,0.05,0.03,1.01,
2.223,0.27,-0.16,0.27,0.05,0.03,1.01,
2.23,0.27,-0.16,0.27,0.05,0.03,1.01,
2.231,0.27,-0.18,0.31,0.05,0.03,1.01,
2.231,0.27,-0.18,0.31,0.06,0.04,1.01,
2.231,0.29,-0.18,0.33,0.06,0.04,1.01,
2.232,0.29,-0.18,0.33,0.06,0.04,1.01,
2.232,0.29,-0.18,0.33,0.05,0.04,1.01,
2.235,0.29,-0.18,0.33,0.06,0.04,1.00,
2.235,0.31,-0.18,0.31,0.06,0.04,1.00,
2.237,0.31,-0.18,0.31,0.05,0.04,1.00,
2.24,0.31,-0.18,0.31,0.05,0.04,1.00,
2.24,0.31,-0.17,0.24,0.05,0.04,1.00,
2.246,0.31,-0.17,0.24,0.05,0.04,0.99,
2.246,0.31,-0.17,0.24,0.05,0.04,0.99,
2.246,0.30,-0.14,0.17,0.05,0.04,0.99,
2.247,0.30,-0.14,0.17,0.05,0.05,0.99,
2.249,0.30,-0.14,0.17,0.05,0.05,0.98,
2.25,0.28,-0.10,0.10,0.05,0.05,0.98,
2.252,0.28,-0.10,0.10,0.05,0.05,0.98,
2.254,0.28,-0.10,0.10,0.05,0.05,0.97,
2.255,0.24,-0.07,0.02,0.05,0.05,0.97,
2.257,0.24,-0.07,0.02,0.04,0.05,0.97,
2.26,0.24,-0.07,0.02,0.04,0.05,0.97,
2.26,0.22,-0.07,-0.05,0.04,0.05,0.97,
2.262,0.22,-0.07,-0.05,0.04,0.05,0.97,
2.265,0.22,-0.07,-0.05,0.04,0.06,0.97,
2.265,0.20,-0.06,-0.09,0.04,0.06,0.97,
2.267,0.20,-0.06,-0.09,0.04,0.05,0.97,
2.269,0.20,-0.06,-0.09,0.04,0.05,0.97,
2.269,0.18,-0.01,-0.09,0.04,0.05,0.97,
2.271,0.18,-0.01,-0.09,0.04,0.06,0.98,
2.275,0.18,-0.01,-0.09,0.04,0.05,0.98,
2.276,0.20,-0.03,-0.07,0.04,0.05,0.98,
2.276,0.20,-0.03,-0.07,0.04,0.05,0.98,
2.279,0.20,-0.03,-0.07,0.05,0.05,0.99,
2.279,0.19,-0.02,-0.03,0.05,0.05,0.99,
2.281,0.19,-0.02,-0.03,0.04,0.06,0.99,
2.284,0.19,-0.02,-0.03,0.05,0.06,1.00,
2.284,0.21,-0.03,0.05,0.05,0.06,1.00,
2.286,0.21,-0.03,0.05,0.05,0.06,1.00,
2.289,0.21,-0.03,0.05,0.05,0.06,1.00,
2.29,0.21,-0.02,0.13,0.05,0.06,1.00,
2.292,0.21,-0.02,0.13,0.05,0.05,1.01,
2.294,0.21,-0.02,0.13,0.05,0.05,1.01,
2.295,0.22,-0.02,0.18,0.05,0.05,1.01,
2.3,0.22,-0.02,0.18,0.05,0.06,1.01,
2.3,0.22,-0.02,0.18,0.05,0.06,1.01,
2.3,0.22,-0.04,0.26,0.05,0.06,1.01,
2.302,0.22,-0.04,0.26,0.05,0.06,1.02,
2.304,0.22,-0.04,0.26,0.05,0.05,1.02,
2.304,0.22,-0.03,0.31,0.05,0.05,1.02,
2.306,0.22,-0.03,0.31,0.05,0.05,1.02,
2.309,0.22,-0.03,0.31,0.05,0.05,1.02,
2.309,0.22,-0.04,0.35,0.05,0.05,1.02,
2.311,0.22,-0.04,0.35,0.05,0.06,1.01,
2.313,0.22,-0.04,0.35,0.06,0.06,1.01,
2.314,0.27,-0.05,0.34,0.06,0.06,1.01,
2.316,0.27,-0.05,0.34,0.06,0.06,1.01,
2.318,0.27,-0.05,0.34,0.06,0.06,1.01,
2.318,0.29,-0.05,0.31,0.06,0.06,1.01,
2.32,0.29,-0.05,0.31,0.06,0.06,1.01,
2.323,0.29,-0.05,0.31,0.06,0.06,1.00,
2.326,0.32,-0.05,0.28,0.06,0.06,1.00,
2.326,0.32,-0.05,0.28,0.06,0.06,0.99,
2.328,0.32,-0.05,0.28,0.06,0.07,0.99,
2.328,0.31,-0.04,0.20,0.06,0.07,0.99,
2.33,0.31,-0.04,0.20,0.06,0.07,0.98,
2.333,0.31,-0.04,0.20,0.06,0.07,0.98,
2.334,0.33,0.00,0.09,0.06,0.07,0.98,
2.335,0.33,0.00,0.09,0.06,0.07,0.97,
2.338,0.32,0.02,-0.01,0.06,0.07,0.97,
2.338,0.32,0.02,-0.01,0.06,0.07,0.97,
2.34,0.32,0.02,-0.01,0.06,0.07,0.96,
2.343,0.32,0.02,-0.01,0.06,0.07,0.96,
2.343,0.32,0.02,-0.13,0.06,0.07,0.96,
2.345,0.32,0.02,-0.13,0.06,0.07,0.95,
2.347,0.32,0.02,-0.13,0.06,0.07,0.95,
2.348,0.31,0.00,-0.21,0.06,0.07,0.95,
2.35,0.31,0.00,-0.21,0.06,0.07,0.95,
2.353,0.31,0.00,-0.21,0.06,0.07,0.94,
2.353,0.31,-0.02,-0.30,0.06,0.07,0.94,
2.355,0.31,-0.02,-0.30,0.06,0.07,0.94,
2.358,0.31,-0.02,-0.30,0.06,0.07,0.94,
2.359,0.30,-0.02,-0.35,0.06,0.07,0.94,
2.36,0.30,-0.02,-0.35,0.06,0.07,0.94,
2.362,0.30,-0.02,-0.35,0.07,0.07,0.94,
2.363,0.33,-0.02,-0.40,0.07,0.07,0.94,
2.365,0.33,-0.02,-0.40,0.06,0.06,0.94,
2.367,0.33,-0.02,-0.40,0.06,0.06,0.95,
2.368,0.34,-0.03,-0.41,0.06,0.06,0.95,
2.37,0.34,-0.03,-0.41,0.06,0.06,0.95,
2.372,0.34,-0.03,-0.41,0.06,0.06,0.95,
2.372,0.32,-0.07,-0.37,0.06,0.06,0.95,
2.374,0.32,-0.07,-0.37,0.06,0.06,0.96,
2.377,0.32,-0.07,-0.37,0.06,0.06,0.96,
2.377,0.32,-0.12,-0.31,0.06,0.06,0.96,
2.379,0.32,-0.12,-0.31,0.06,0.06,0.97,
2.382,0.32,-0.12,-0.31,0.06,0.05,0.98,
2.382,0.30,-0.12,-0.21,0.06,0.05,0.98,
2.384,0.30,-0.12,-0.21,0.06,0.05,0.98,
2.387,0.30,-0.12,-0.21,0.06,0.05,0.99,
2.387,0.28,-0.15,-0.07,0.06,0.05,0.99,
2.389,0.28,-0.15,-0.07,0.05,0.04,0.99,
2.392,0.28,-0.15,-0.07,0.05,0.04,1.00,
2.392,0.26,-0.22,0.04,0.05,0.04,1.00,
2.394,0.26,-0.22,0.04,0.05,0.04,1.00,
2.396,0.26,-0.22,0.04,0.04,0.04,1.01,
2.397,0.21,-0.27,0.15,0.04,0.04,1.01,
2.399,0.21,-0.27,0.15,0.04,0.03,1.01,
2.402,0.21,-0.27,0.15,0.03,0.03,1.01,
2.402,0.14,-0.32,0.24,0.03,0.03,1.01,
2.404,0.14,-0.32,0.24,0.03,0.03,1.01,
2.406,0.14,-0.32,0.24,0.03,0.03,1.02,
2.407,0.06,-0.36,0.29,0.03,0.03,1.02,
2.413,0.06,-0.36,0.29,0.03,0.03,1.02,
2.414,0.06,-0.36,0.29,0.02,0.03,1.02,
2.414,-0.01,-0.40,0.34,0.02,0.03,1.02,
2.414,-0.01,-0.40,0.34,0.02,0.03,1.01,
2.416,-0.01,-0.40,0.34,0.02,0.03,1.01,
2.416,-0.06,-0.43,0.35,0.02,0.03,1.01,
2.419,-0.06,-0.43,0.35,0.02,0.02,1.01,
2.421,-0.06,-0.43,0.35,0.02,0.02,1.01,
2.421,-0.11,-0.43,0.32,0.02,0.02,1.01,
2.424,-0.11,-0.43,0.32,0.02,0.02,1.01,
2.426,-0.11,-0.43,0.32,0.02,0.02,1.00,
2.426,-0.11,-0.46,0.30,0.02,0.02,1.00,
2.428,-0.11,-0.46,0.30,0.02,0.02,1.00,
2.431,-0.11,-0.46,0.30,0.02,0.03,1.00,
2.431,-0.09,-0.46,0.22,0.02,0.03,1.00,
2.433,-0.09,-0.46,0.22,0.02,0.03,0.99,
2.436,-0.09,-0.46,0.22,0.03,0.03,0.99,
2.436,-0.08,-0.45,0.15,0.03,0.03,0.99,
2.438,-0.08,-0.45,0.15,0.03,0.03,0.99,
2.441,-0.08,-0.45,0.15,0.03,0.03,0.98,
2.442,-0.05,-0.42,0.09,0.03,0.03,0.98,
2.443,-0.05,-0.42,0.09,0.03,0.03,0.98,
2.446,-0.05,-0.42,0.09,0.03,0.03,0.97,
2.446,-0.02,-0.41,0.02,0.03,0.03,0.97,
2.448,-0.02,-0.41,0.02,0.04,0.03,0.97,
2.45,-0.02,-0.41,0.02,0.04,0.03,0.97,
2.451,0.03,-0.40,-0.07,0.04,0.03,0.97,
2.453,0.03,-0.40,-0.07,0.04,0.04,0.96,
2.456,0.03,-0.40,-0.07,0.04,0.04,0.96,
2.456,0.07,-0.40,-0.13,0.04,0.04,0.96,
2.458,0.07,-0.40,-0.13,0.05,0.04,0.96,
2.461,0.07,-0.40,-0.13,0.05,0.04,0.95,
2.461,0.13,-0.38,-0.18,0.05,0.04,0.95,
2.463,0.13,-0.38,-0.18,0.05,0.03,0.95,
2.465,0.13,-0.38,-0.18,0.05,0.03,0.95,
2.465,0.16,-0.37,-0.25,0.05,0.03,0.95,
2.467,0.16,-0.37,-0.25,0.05,0.03,0.95,
2.47,0.16,-0.37,-0.25,0.05,0.03,0.94,
2.47,0.19,-0.41,-0.30,0.05,0.03,0.94,
2.472,0.19,-0.41,-0.30,0.05,0.04,0.94,
2.475,0.19,-0.41,-0.30,0.05,0.03,0.94,
2.476,0.19,-0.41,-0.35,0.05,0.03,0.94,
2.477,0.19,-0.41,-0.35,0.05,0.04,0.94,
2.48,0.19,-0.41,-0.35,0.05,0.04,0.94,
2.48,0.18,-0.39,-0.36,0.05,0.04,0.94,
2.482,0.18,-0.39,-0.36,0.05,0.03,0.95,
2.485,0.18,-0.39,-0.36,0.05,0.03,0.95,
2.485,0.20,-0.39,-0.35,0.05,0.03,0.95,
2.487,0.20,-0.39,-0.35,0.05,0.03,0.95,
2.491,0.20,-0.39,-0.35,0.05,0.03,0.95,
2.491,0.20,-0.41,-0.31,0.05,0.03,0.95,
2.492,0.20,-0.41,-0.31,0.05,0.03,0.95,
2.495,0.20,-0.41,-0.31,0.04,0.03,0.95,
2.495,0.16,-0.43,-0.28,0.04,0.03,0.95,
2.497,0.16,-0.43,-0.28,0.04,0.03,0.96,
2.499,0.16,-0.43,-0.28,0.04,0.03,0.96,
2.5,0.12,-0.45,-0.24,0.04,0.03,0.96,
2.502,0.12,-0.45,-0.24,0.04,0.03,0.97,
2.504,0.12,-0.45,-0.24,0.03,0.03,0.97,
2.505,0.06,-0.44,-0.18,0.03,0.03,0.97,
2.507,0.06,-0.44,-0.18,0.04,0.03,0.97,
2.51,0.01,-0.47,-0.10,0.04,0.03,0.97,
2.51,0.01,-0.47,-0.10,0.04,0.02,0.97,
2.512,0.01,-0.47,-0.10,0.04,0.02,0.98,
2.514,0.01,-0.47,-0.10,0.03,0.02,0.98,
2.514,-0.00,-0.49,-0.06,0.03,0.02,0.98,
2.516,-0.00,-0.49,-0.06,0.03,0.02,0.98,
2.519,-0.00,-0.49,-0.06,0.03,0.02,0.98,
2.519,-0.02,-0.52,-0.01,0.03,0.02,0.98,
2.522,-0.02,-0.52,-0.01,0.04,0.02,0.98,
2.529,-0.02,-0.52,-0.01,0.03,0.02,0.98,
2.53,-0.05,-0.55,0.03,0.03,0.02,0.98,
2.53,-0.05,-0.55,0.03,0.03,0.02,0.98,
2.53,-0.05,-0.55,0.03,0.03,0.02,0.98,
2.531,-0.04,-0.55,0.05,0.03,0.02,0.98,
2.531,-0.04,-0.55,0.05,0.03,0.02,0.98,
2.534,-0.04,-0.55,0.05,0.04,0.02,0.98,
2.534,-0.06,-0.56,0.06,0.04,0.02,0.98,
2.536,-0.06,-0.56,0.06,0.04,0.02,0.98,
2.539,-0.06,-0.56,0.06,0.04,0.02,0.98,
2.539,-0.06,-0.53,0.05,0.04,0.02,0.98,
2.545,-0.06,-0.53,0.05,0.04,0.03,0.98,
2.545,-0.06,-0.53,0.05,0.04,0.02,0.97,
2.545,-0.03,-0.52,0.01,0.04,0.02,0.97,
2.546,-0.03,-0.52,0.01,0.04,0.03,0.97,
2.548,-0.02,-0.51,-0.03,0.04,0.03,0.97,
2.549,-0.02,-0.51,-0.03,0.04,0.03,0.97,
2.551,-0.02,-0.51,-0.03,0.04,0.03,0.97,
2.553,-0.02,-0.51,-0.03,0.04,0.03,0.97,
2.554,-0.04,-0.50,-0.07,0.04,0.03,0.97,
2.556,-0.04,-0.50,-0.07,0.03,0.03,0.97,
2.558,-0.04,-0.50,-0.07,0.04,0.03,0.96,
2.559,-0.05,-0.49,-0.09,0.04,0.03,0.96,
2.561,-0.05,-0.49,-0.09,0.04,0.03,0.96,
2.563,-0.05,-0.49,-0.09,0.04,0.02,0.96,
2.563,-0.06,-0.48,-0.12,0.04,0.02,0.96,
2.565,-0.06,-0.48,-0.12,0.04,0.02,0.96,
2.568,-0.06,-0.48,-0.12,0.04,0.03,0.96,
2.568,-0.00,-0.51,-0.15,0.04,0.03,0.96,
2.57,-0.00,-0.51,-0.15,0.04,0.03,0.96,
2.573,-0.00,-0.51,-0.15,0.05,0.03,0.97,
2.574,-0.01,-0.50,-0.15,0.05,0.03,0.97,
2.575,-0.01,-0.50,-0.15,0.05,0.03,0.97,
2.578,-0.01,-0.50,-0.15,0.05,0.03,0.97,
2.578,0.02,-0.49,-0.11,0.05,0.03,0.97,
2.58,0.02,-0.49,-0.11,0.05,0.03,0.98,
2.582,0.02,-0.49,-0.11,0.05,0.03,0.98,
2.583,0.02,-0.48,-0.04,0.05,0.03,0.98,
2.585,0.02,-0.48,-0.04,0.05,0.03,0.98,
2.588,0.02,-0.48,-0.04,0.05,0.03,0.99,
2.588,0.01,-0.44,0.03,0.05,0.03,0.99,
2.59,0.01,-0.44,0.03,0.05,0.03,0.99,
2.592,0.01,-0.44,0.03,0.05,0.03,0.99,
2.593,0.04,-0.45,0.09,0.05,0.03,0.99,
2.595,0.04,-0.45,0.09,0.05,0.03,1.00,
2.598,0.04,-0.45,0.09,0.05,0.03,1.00,
2.598,0.05,-0.46,0.14,0.05,0.03,1.00,
2.6,0.05,-0.46,0.14,0.05,0.03,1.00,
2.602,0.05,-0.46,0.14,0.05,0.03,1.00,
2.603,0.04,-0.48,0.19,0.05,0.03,1.00,
2.604,0.04,-0.48,0.19,0.05,0.03,1.00,
2.608,0.04,-0.48,0.19,0.04,0.03,1.00,
2.608,0.03,-0.48,0.19,0.04,0.03,1.00,
2.61,0.03,-0.48,0.19,0.04,0.03,0.99,
2.612,0.03,-0.48,0.19,0.04,0.03,0.99,
2.612,-0.02,-0.48,0.19,0.04,0.03,0.99,
2.614,-0.02,-0.48,0.19,0.04,0.03,0.99,
2.617,-0.02,-0.48,0.19,0.04,0.03,0.99,
2.617,-0.05,-0.48,0.16,0.04,0.03,0.99,
2.619,-0.05,-0.48,0.16,0.03,0.03,0.98,
2.622,-0.05,-0.48,0.16,0.03,0.02,0.98,
2.624,-0.10,-0.48,0.11,0.03,0.02,0.98,
2.625,-0.10,-0.48,0.11,0.03,0.02,0.97,
2.633,-0.10,-0.48,0.11,0.03,0.02,0.97,
2.634,-0.16,-0.50,0.03,0.03,0.02,0.97,
2.634,-0.16,-0.50,0.03,0.03,0.02,0.96,
2.634,-0.16,-0.50,0.03,0.03,0.02,0.96,
2.634,-0.17,-0.51,-0.06,0.03,0.02,0.96,
2.635,-0.17,-0.51,-0.06,0.03,0.02,0.96,
2.637,-0.19,-0.54,-0.13,0.03,0.02,0.96,
2.637,-0.19,-0.54,-0.13,0.03,0.02,0.96,
2.639,-0.19,-0.54,-0.13,0.03,0.02,0.95,
2.645,-0.19,-0.54,-0.13,0.03,0.02,0.95,
2.646,-0.21,-0.54,-0.19,0.03,0.02,0.95,
2.646,-0.21,-0.54,-0.19,0.03,0.02,0.95,
2.646,-0.22,-0.54,-0.22,0.03,0.02,0.95,
2.647,-0.22,-0.54,-0.22,0.03,0.02,0.95,
2.648,-0.22,-0.54,-0.22,0.03,0.02,0.95,
2.651,-0.22,-0.54,-0.22,0.03,0.02,0.95,
2.651,-0.23,-0.53,-0.24,0.03,0.02,0.95,
2.653,-0.23,-0.53,-0.24,0.03,0.02,0.96,
2.656,-0.23,-0.53,-0.24,0.03,0.03,0.96,
2.657,-0.18,-0.51,-0.23,0.03,0.03,0.96,
2.659,-0.18,-0.51,-0.23,0.03,0.03,0.96,
2.661,-0.18,-0.51,-0.23,0.04,0.03,0.96,
2.661,-0.17,-0.49,-0.19,0.04,0.03,0.96,
2.663,-0.17,-0.49,-0.19,0.04,0.03,0.97,
2.666,-0.17,-0.49,-0.19,0.04,0.03,0.97,
2.666,-0.16,-0.47,-0.12,0.04,0.03,0.97,
2.668,-0.16,-0.47,-0.12,0.05,0.03,0.98,
2.671,-0.16,-0.47,-0.12,0.05,0.03,0.98,
2.671,-0.11,-0.44,-0.05,0.05,0.03,0.98,
2.673,-0.11,-0.44,-0.05,0.05,0.03,0.99,
2.676,-0.11,-0.44,-0.05,0.05,0.03,0.99,
2.676,-0.05,-0.43,0.04,0.05,0.03,0.99,
2.678,-0.05,-0.43,0.04,0.06,0.03,0.99,
2.68,-0.05,-0.43,0.04,0.06,0.03,0.99,
2.681,0.01,-0.41,0.12,0.06,0.03,0.99,
2.683,0.01,-0.41,0.12,0.06,0.03,1.00,
2.686,0.01,-0.41,0.12,0.06,0.04,0.99,
2.686,0.04,-0.39,0.17,0.06,0.04,0.99,
2.688,0.04,-0.39,0.17,0.06,0.04,1.00,
2.691,0.04,-0.39,0.17,0.07,0.04,1.00,
2.691,0.06,-0.37,0.19,0.07,0.04,1.00,
2.693,0.06,-0.37,0.19,0.07,0.04,0.99,
2.695,0.06,-0.37,0.19,0.07,0.04,0.99,
2.696,0.10,-0.33,0.21,0.07,0.04,0.99,
2.698,0.10,-0.33,0.21,0.07,0.04,0.99,
2.7,0.10,-0.33,0.21,0.07,0.04,0.99,
2.701,0.15,-0.31,0.17,0.07,0.04,0.99,
2.703,0.15,-0.31,0.17,0.07,0.05,0.99,
2.706,0.15,-0.31,0.17,0.07,0.05,0.98,
2.706,0.17,-0.29,0.14,0.07,0.05,0.98,
2.714,0.17,-0.29,0.14,0.07,0.05,0.98,
2.715,0.17,-0.29,0.14,0.07,0.05,0.97,
2.715,0.19,-0.25,0.07,0.07,0.05,0.97,
2.715,0.19,-0.25,0.07,0.07,0.05,0.97,
2.715,0.19,-0.25,0.07,0.07,0.05,0.97,
2.716,0.17,-0.24,-0.00,0.07,0.05,0.97,
2.717,0.17,-0.24,-0.00,0.07,0.05,0.96,
2.72,0.17,-0.24,-0.00,0.07,0.05,0.96,
2.72,0.14,-0.21,-0.07,0.07,0.05,0.96,
2.722,0.14,-0.21,-0.07,0.07,0.05,0.96,
2.725,0.14,-0.21,-0.07,0.06,0.05,0.96,
2.726,0.11,-0.22,-0.13,0.06,0.05,0.96,
2.728,0.11,-0.22,-0.13,0.06,0.05,0.95,
2.73,0.11,-0.22,-0.13,0.06,0.05,0.95,
2.73,0.07,-0.23,-0.18,0.06,0.05,0.95,
2.732,0.07,-0.23,-0.18,0.06,0.05,0.95,
2.735,0.07,-0.23,-0.18,0.05,0.05,0.95,
2.735,0.02,-0.24,-0.23,0.05,0.05,0.95,
2.737,0.02,-0.24,-0.23,0.05,0.05,0.95,
2.74,0.02,-0.24,-0.23,0.05,0.05,0.95,
2.74,-0.04,-0.24,-0.27,0.05,0.05,0.95,
2.742,-0.04,-0.24,-0.27,0.04,0.05,0.95,
2.745,-0.04,-0.24,-0.27,0.04,0.05,0.95,
2.745,-0.11,-0.24,-0.28,0.04,0.05,0.95,
2.747,-0.11,-0.24,-0.28,0.03,0.05,0.95,
2.749,-0.11,-0.24,-0.28,0.03,0.05,0.95,
2.749,-0.20,-0.24,-0.27,0.03,0.05,0.95,
2.751,-0.20,-0.24,-0.27,0.03,0.05,0.95,
2.754,-0.29,-0.23,-0.24,0.03,0.05,0.95,
2.755,-0.29,-0.23,-0.24,0.02,0.05,0.95,
2.757,-0.29,-0.23,-0.24,0.02,0.05,0.96,
2.759,-0.29,-0.23,-0.24,0.02,0.05,0.96,
2.759,-0.34,-0.24,-0.21,0.02,0.05,0.96,
2.762,-0.34,-0.24,-0.21,0.02,0.05,0.96,
2.764,-0.34,-0.24,-0.21,0.02,0.05,0.96,
2.764,-0.37,-0.24,-0.16,0.02,0.05,0.96,
2.766,-0.37,-0.24,-0.16,0.02,0.05,0.96,
2.769,-0.37,-0.24,-0.16,0.02,0.05,0.96,
2.769,-0.41,-0.23,-0.13,0.02,0.05,0.96,
2.771,-0.41,-0.23,-0.13,0.02,0.05,0.97,
2.774,-0.41,-0.23,-0.13,0.03,0.05,0.97,
2.775,-0.40,-0.22,-0.10,0.03,0.05,0.97,
2.776,-0.40,-0.22,-0.10,0.03,0.05,0.97,
2.779,-0.40,-0.22,-0.10,0.03,0.05,0.97,
2.779,-0.38,-0.20,-0.06,0.03,0.05,0.97,
2.781,-0.38,-0.20,-0.06,0.04,0.05,0.97,
2.783,-0.38,-0.20,-0.06,0.04,0.06,0.97,
2.784,-0.31,-0.18,-0.04,0.04,0.06,0.97,
2.786,-0.31,-0.18,-0.04,0.04,0.06,0.98,
2.788,-0.31,-0.18,-0.04,0.05,0.06,0.98,
2.789,-0.25,-0.16,0.00,0.05,0.06,0.98,
2.791,-0.25,-0.16,0.00,0.05,0.06,0.98,
2.793,-0.25,-0.16,0.00,0.06,0.06,0.98,
2.794,-0.17,-0.12,0.03,0.06,0.06,0.98,
2.796,-0.17,-0.12,0.03,0.06,0.06,0.98,
2.798,-0.17,-0.12,0.03,0.07,0.07,0.98,
2.798,-0.10,-0.10,0.05,0.07,0.07,0.98,
2.8,-0.10,-0.10,0.05,0.07,0.07,0.98,
2.803,-0.10,-0.10,0.05,0.07,0.07,0.98,
2.803,-0.01,-0.07,0.06,0.07,0.07,0.98,
2.805,-0.01,-0.07,0.06,0.07,0.07,0.98,
2.808,-0.01,-0.07,0.06,0.07,0.07,0.98,
2.808,0.02,-0.02,0.06,0.07,0.07,0.98,
2.81,0.02,-0.02,0.06,0.07,0.07,0.97,
2.813,0.02,-0.02,0.06,0.07,0.07,0.97,
2.813,0.02,-0.00,0.05,0.07,0.07,0.97,
2.815,0.02,-0.00,0.05,0.07,0.07,0.97,
2.818,0.02,-0.00,0.05,0.07,0.07,0.97,
2.818,0.02,0.00,-0.00,0.07,0.07,0.97,
2.82,0.02,0.00,-0.00,0.07,0.07,0.96,
2.829,0.02,0.00,-0.00,0.07,0.07,0.96,
2.83,0.00,0.01,-0.05,0.07,0.07,0.96,
2.83,0.00,0.01,-0.05,0.07,0.07,0.96,
2.83,0.00,0.01,-0.05,0.06,0.07,0.96,
2.83,-0.05,-0.02,-0.09,0.06,0.07,0.96,
2.831,-0.05,-0.02,-0.09,0.06,0.07,0.96,
2.832,-0.05,-0.02,-0.09,0.06,0.07,0.95,
2.833,-0.07,-0.05,-0.14,0.06,0.07,0.95,
2.835,-0.07,-0.05,-0.14,0.06,0.07,0.95,
2.837,-0.07,-0.05,-0.14,0.06,0.06,0.95,
2.837,-0.10,-0.08,-0.17,0.06,0.06,0.95,
2.841,-0.10,-0.08,-0.17,0.05,0.06,0.95,
2.842,-0.10,-0.08,-0.17,0.05,0.06,0.96,
2.843,-0.17,-0.08,-0.18,0.05,0.06,0.96,
2.845,-0.17,-0.08,-0.18,0.05,0.06,0.96,
2.847,-0.17,-0.08,-0.18,0.04,0.06,0.96,
2.848,-0.22,-0.10,-0.17,0.04,0.06,0.96,
2.849,-0.22,-0.10,-0.17,0.04,0.05,0.97,
2.852,-0.22,-0.10,-0.17,0.04,0.05,0.97,
2.852,-0.28,-0.16,-0.12,0.04,0.05,0.97,
2.854,-0.28,-0.16,-0.12,0.04,0.05,0.97,
2.857,-0.28,-0.16,-0.12,0.04,0.06,0.98,
2.857,-0.32,-0.18,-0.04,0.04,0.06,0.98,
2.859,-0.32,-0.18,-0.04,0.03,0.05,0.98,
2.862,-0.32,-0.18,-0.04,0.03,0.05,0.99,
2.862,-0.37,-0.16,0.04,0.03,0.05,0.99,
2.864,-0.37,-0.16,0.04,0.03,0.05,0.99,
2.867,-0.37,-0.16,0.04,0.03,0.05,1.00,
2.867,-0.42,-0.17,0.13,0.03,0.05,1.00,
2.869,-0.42,-0.17,0.13,0.03,0.05,1.00,
2.872,-0.42,-0.17,0.13,0.03,0.05,1.00,
2.872,-0.42,-0.16,0.23,0.03,0.05,1.00,
2.874,-0.42,-0.16,0.23,0.04,0.05,1.01,
2.876,-0.42,-0.16,0.23,0.04,0.05,1.01,
2.877,-0.40,-0.15,0.29,0.04,0.05,1.01,
2.879,-0.40,-0.15,0.29,0.04,0.05,1.00,
2.882,-0.38,-0.16,0.32,0.04,0.05,1.00,
2.882,-0.38,-0.16,0.32,0.04,0.05,1.00,
2.884,-0.38,-0.16,0.32,0.04,0.06,1.00,
2.886,-0.38,-0.16,0.32,0.04,0.06,1.00,
2.886,-0.34,-0.15,0.31,0.04,0.06,1.00,
2.888,-0.34,-0.15,0.31,0.04,0.06,1.00,
2.891,-0.34,-0.15,0.31,0.04,0.06,1.00,
2.892,-0.31,-0.13,0.29,0.04,0.06,1.00,
2.894,-0.31,-0.13,0.29,0.04,0.06,1.00,
2.896,-0.31,-0.13,0.29,0.04,0.06,0.99,
2.896,-0.33,-0.11,0.26,0.04,0.06,0.99,
2.899,-0.33,-0.11,0.26,0.04,0.06,0.99,
2.901,-0.33,-0.11,0.26,0.04,0.06,0.99,
2.901,-0.35,-0.10,0.20,0.04,0.06,0.99,
2.903,-0.35,-0.10,0.20,0.05,0.06,0.98,
2.912,-0.35,-0.10,0.20,0.05,0.06,0.98,
2.913,-0.34,-0.10,0.14,0.05,0.06,0.98,
2.913,-0.34,-0.10,0.14,0.05,0.06,0.98,
2.914,-0.34,-0.10,0.14,0.05,0.06,0.98,
2.914,-0.33,-0.10,0.10,0.05,0.06,0.98,
2.914,-0.33,-0.10,0.10,0.05,0.06,0.97,
2.916,-0.33,-0.10,0.10,0.06,0.06,0.98,
2.916,-0.32,-0.11,0.04,0.06,0.06,0.98,
2.918,-0.32,-0.11,0.04,0.06,0.06,0.97,
2.921,-0.32,-0.11,0.04,0.06,0.06,0.97,
2.921,-0.27,-0.11,0.02,0.06,0.06,0.97,
2.928,-0.27,-0.11,0.02,0.06,0.06,0.97,
2.928,-0.27,-0.11,0.02,0.06,0.06,0.97,
2.928,-0.24,-0.10,0.01,0.06,0.06,0.97,
2.928,-0.24,-0.10,0.01,0.06,0.06,0.97,
2.931,-0.24,-0.10,0.01,0.07,0.06,0.97,
2.931,-0.20,-0.10,0.01,0.07,0.06,0.97,
2.933,-0.20,-0.10,0.01,0.07,0.06,0.97,
2.935,-0.20,-0.10,0.01,0.07,0.06,0.97,
2.935,-0.18,-0.09,0.02,0.07,0.06,0.97,
2.938,-0.18,-0.09,0.02,0.06,0.06,0.98,
2.94,-0.18,-0.09,0.02,0.06,0.06,0.98,
2.941,-0.19,-0.11,0.01,0.06,0.06,0.98,
2.942,-0.19,-0.11,0.01,0.06,0.06,0.98,
2.945,-0.19,-0.11,0.01,0.06,0.06,0.98,
2.946,-0.21,-0.10,0.03,0.06,0.06,0.98,
2.947,-0.21,-0.10,0.03,0.06,0.06,0.98,
2.95,-0.21,-0.10,0.03,0.06,0.06,0.98,
2.95,-0.24,-0.12,0.06,0.06,0.06,0.98,
2.952,-0.24,-0.12,0.06,0.06,0.05,0.98,
2.955,-0.24,-0.12,0.06,0.06,0.05,0.98,
2.955,-0.25,-0.12,0.06,0.06,0.05,0.98,
2.957,-0.25,-0.12,0.06,0.05,0.05,0.98,
2.96,-0.25,-0.12,0.06,0.05,0.05,0.98,
2.96,-0.30,-0.16,0.09,0.05,0.05,0.98,
2.962,-0.30,-0.16,0.09,0.05,0.05,0.99,
2.965,-0.30,-0.16,0.09,0.05,0.05,0.99,
2.965,-0.33,-0.18,0.11,0.05,0.05,0.99,
2.967,-0.33,-0.18,0.11,0.04,0.05,0.99,
2.97,-0.33,-0.18,0.11,0.04,0.05,0.99,
2.97,-0.39,-0.19,0.14,0.04,0.05,0.99,
2.972,-0.39,-0.19,0.14,0.04,0.04,0.99,
2.975,-0.39,-0.19,0.14,0.04,0.04,0.99,
2.975,-0.42,-0.20,0.16,0.04,0.04,0.99,
2.977,-0.42,-0.20,0.16,0.03,0.04,0.99,
2.979,-0.42,-0.20,0.16,0.03,0.04,0.99,
2.98,-0.48,-0.22,0.16,0.03,0.04,0.99,
2.982,-0.48,-0.22,0.16,0.03,0.04,0.99,
2.984,-0.48,-0.22,0.16,0.02,0.04,0.99,
2.985,-0.55,-0.24,0.17,0.02,0.04,0.99,
2.986,-0.55,-0.24,0.17,0.02,0.04,0.99,
2.99,-0.55,-0.24,0.17,0.02,0.04,0.99,
2.991,-0.60,-0.25,0.16,0.02,0.04,0.99,
2.992,-0.60,-0.25,0.16,0.02,0.03,0.99,
2.994,-0.60,-0.25,0.16,0.01,0.03,0.99,
2.995,-0.66,-0.27,0.16,0.01,0.03,0.99,
2.996,-0.66,-0.27,0.16,0.01,0.03,0.99,
2.999,-0.66,-0.27,0.16,0.01,0.03,0.99,
3.0,-0.69,-0.30,0.14,0.01,0.03,0.99,
3.001,-0.69,-0.30,0.14,0.02,0.03,0.98,
3.004,-0.69,-0.30,0.14,0.02,0.03,0.98,
3.004,-0.72,-0.33,0.13,0.02,0.03,0.98,
3.007,-0.72,-0.33,0.13,0.02,0.03,0.98,
3.009,-0.72,-0.33,0.13,0.01,0.03,0.98,
3.009,-0.69,-0.32,0.09,0.01,0.03,0.98,
3.011,-0.69,-0.32,0.09,0.02,0.03,0.98,
3.014,-0.69,-0.32,0.09,0.02,0.03,0.98,
3.014,-0.70,-0.32,0.07,0.02,0.03,0.98,
3.016,-0.70,-0.32,0.07,0.02,0.03,0.98,
3.019,-0.70,-0.32,0.07,0.02,0.03,0.98,
3.019,-0.69,-0.31,0.05,0.02,0.03,0.98,
3.021,-0.69,-0.31,0.05,0.02,0.03,0.98,
3.028,-0.69,-0.31,0.05,0.02,0.03,0.98,
3.029,-0.68,-0.30,0.05,0.02,0.03,0.98,
3.029,-0.68,-0.30,0.05,0.03,0.03,0.98,
3.03,-0.68,-0.30,0.05,0.03,0.03,0.98,
3.03,-0.66,-0.29,0.05,0.03,0.03,0.98,
3.031,-0.66,-0.29,0.05,0.03,0.03,0.97,
3.034,-0.59,-0.27,0.02,0.03,0.03,0.97,
3.034,-0.59,-0.27,0.02,0.03,0.04,0.97,
3.036,-0.59,-0.27,0.02,0.03,0.04,0.97,
3.038,-0.59,-0.27,0.02,0.04,0.04,0.97,
3.038,-0.54,-0.26,0.01,0.04,0.04,0.97,
3.041,-0.54,-0.26,0.01,0.03,0.04,0.97,
3.043,-0.54,-0.26,0.01,0.04,0.04,0.97,
3.043,-0.52,-0.23,0.01,0.04,0.04,0.97,
3.045,-0.52,-0.23,0.01,0.04,0.04,0.97,
3.048,-0.52,-0.23,0.01,0.04,0.04,0.97,
3.048,-0.50,-0.22,-0.01,0.04,0.04,0.97,
3.05,-0.50,-0.22,-0.01,0.04,0.04,0.97,
3.053,-0.50,-0.22,-0.01,0.04,0.04,0.97,
3.053,-0.47,-0.21,-0.04,0.04,0.04,0.97,
3.055,-0.47,-0.21,-0.04,0.04,0.04,0.97,
3.058,-0.47,-0.21,-0.04,0.05,0.04,0.96,
3.058,-0.43,-0.18,-0.06,0.05,0.04,0.96,
3.06,-0.43,-0.18,-0.06,0.05,0.05,0.96,
3.063,-0.43,-0.18,-0.06,0.05,0.05,0.96,
3.063,-0.40,-0.16,-0.07,0.05,0.05,0.96,
3.065,-0.40,-0.16,-0.07,0.05,0.05,0.96,
3.067,-0.40,-0.16,-0.07,0.05,0.05,0.96,
3.068,-0.38,-0.13,-0.09,0.05,0.05,0.96,
3.07,-0.38,-0.13,-0.09,0.05,0.05,0.96,
3.073,-0.38,-0.13,-0.09,0.05,0.05,0.96,
3.073,-0.37,-0.10,-0.12,0.05,0.05,0.96,
3.075,-0.37,-0.10,-0.12,0.04,0.05,0.96,
3.078,-0.37,-0.10,-0.12,0.05,0.05,0.96,
3.078,-0.39,-0.07,-0.12,0.05,0.05,0.96,
3.08,-0.39,-0.07,-0.12,0.05,0.05,0.96,
3.082,-0.39,-0.07,-0.12,0.05,0.05,0.96,
3.082,-0.40,-0.07,-0.11,0.05,0.05,0.96,
3.084,-0.40,-0.07,-0.11,0.05,0.05,0.96,
3.087,-0.40,-0.07,-0.11,0.04,0.05,0.96,
3.088,-0.39,-0.09,-0.12,0.04,0.05,0.96,
3.09,-0.39,-0.09,-0.12,0.05,0.05,0.96,
3.092,-0.39,-0.09,-0.12,0.05,0.05,0.96,
3.092,-0.39,-0.10,-0.11,0.05,0.05,0.96,
3.094,-0.39,-0.10,-0.11,0.05,0.04,0.96,
3.097,-0.39,-0.10,-0.11,0.05,0.04,0.97,
3.097,-0.39,-0.11,-0.10,0.05,0.04,0.97,
3.099,-0.39,-0.11,-0.10,0.05,0.05,0.97,
3.102,-0.39,-0.11,-0.10,0.05,0.04,0.97,
3.102,-0.39,-0.15,-0.06,0.05,0.04,0.97,
3.104,-0.39,-0.15,-0.06,0.05,0.04,0.97,
3.107,-0.39,-0.15,-0.06,0.05,0.04,0.98,
3.107,-0.37,-0.12,-0.01,0.05,0.04,0.98,
3.109,-0.37,-0.12,-0.01,0.05,0.04,0.98,
3.111,-0.37,-0.12,-0.01,0.05,0.04,0.98,
3.114,-0.35,-0.13,0.03,0.05,0.04,0.98,
3.114,-0.35,-0.13,0.03,0.05,0.05,0.98,
3.117,-0.35,-0.13,0.03,0.05,0.05,0.99,
3.117,-0.35,-0.12,0.08,0.05,0.05,0.99,
3.119,-0.35,-0.12,0.08,0.06,0.05,0.99,
3.121,-0.35,-0.12,0.08,0.06,0.05,0.99,
3.122,-0.32,-0.10,0.12,0.06,0.05,0.99,
3.13,-0.32,-0.10,0.12,0.06,0.05,0.99,
3.13,-0.32,-0.10,0.12,0.06,0.05,0.99,
3.131,-0.28,-0.08,0.15,0.06,0.05,0.99,
3.131,-0.28,-0.08,0.15,0.06,0.05,0.99,
3.131,-0.28,-0.08,0.15,0.06,0.05,0.99,
3.131,-0.27,-0.08,0.17,0.06,0.05,0.99,
3.134,-0.27,-0.08,0.17,0.06,0.05,0.99,
3.136,-0.27,-0.08,0.17,0.06,0.05,0.99,
3.136,-0.26,-0.08,0.17,0.06,0.05,0.99,
3.139,-0.26,-0.08,0.17,0.06,0.05,0.99,
3.142,-0.26,-0.08,0.17,0.06,0.05,0.99,
3.142,-0.25,-0.06,0.17,0.06,0.05,0.99,
3.143,-0.25,-0.06,0.17,0.06,0.05,0.99,
3.146,-0.25,-0.06,0.17,0.06,0.05,0.99,
3.146,-0.26,-0.05,0.15,0.06,0.05,0.99,
3.148,-0.26,-0.05,0.15,0.06,0.05,0.98,
3.151,-0.26,-0.05,0.15,0.06,0.05,0.98,
3.151,-0.24,-0.04,0.13,0.06,0.05,0.98,
3.153,-0.24,-0.04,0.13,0.06,0.05,0.98,
3.156,-0.24,-0.04,0.13,0.06,0.05,0.98,
3.156,-0.24,-0.05,0.10,0.06,0.05,0.98,
3.158,-0.24,-0.05,0.10,0.06,0.05,0.98,
3.16,-0.24,-0.05,0.10,0.06,0.05,0.98,
3.161,-0.23,-0.04,0.07,0.06,0.05,0.98,
3.163,-0.23,-0.04,0.07,0.06,0.05,0.97,
3.165,-0.23,-0.04,0.07,0.06,0.05,0.97,
3.166,-0.23,-0.05,0.02,0.06,0.05,0.97,
3.168,-0.23,-0.05,0.02,0.06,0.05,0.97,
3.171,-0.23,-0.05,0.02,0.06,0.05,0.97,
3.171,-0.23,-0.06,-0.00,0.06,0.05,0.97,
3.173,-0.23,-0.06,-0.00,0.06,0.05,0.97,
3.176,-0.23,-0.06,-0.00,0.06,0.05,0.97,
3.176,-0.22,-0.05,-0.02,0.06,0.05,0.97,
3.178,-0.22,-0.05,-0.02,0.06,0.05,0.97,
3.18,-0.22,-0.05,-0.02,0.06,0.05,0.97,
3.181,-0.20,-0.06,-0.04,0.06,0.05,0.97,
3.182,-0.20,-0.06,-0.04,0.06,0.05,0.97,
3.185,-0.20,-0.06,-0.04,0.06,0.05,0.97,
3.185,-0.20,-0.06,-0.02,0.06,0.05,0.97,
3.187,-0.20,-0.06,-0.02,0.06,0.05,0.97,
3.19,-0.20,-0.06,-0.02,0.06,0.05,0.98,
3.19,-0.22,-0.05,-0.00,0.06,0.05,0.98,
3.192,-0.22,-0.05,-0.00,0.06,0.04,0.98,
3.195,-0.22,-0.05,-0.00,0.06,0.05,0.98,
3.195,-0.21,-0.05,0.02,0.06,0.05,0.98,
3.197,-0.21,-0.05,0.02,0.06,0.05,0.98,
3.2,-0.21,-0.05,0.02,0.06,0.04,0.98,
3.2,-0.20,-0.06,0.05,0.06,0.04,0.98,
3.202,-0.20,-0.06,0.05,0.06,0.04,0.99,
3.205,-0.20,-0.06,0.05,0.06,0.04,0.99,
3.205,-0.21,-0.07,0.08,0.06,0.04,0.99,
3.21,-0.21,-0.07,0.08,0.06,0.04,0.99,
3.21,-0.21,-0.07,0.08,0.06,0.04,1.00,
3.211,-0.21,-0.09,0.13,0.06,0.04,1.00,
3.212,-0.21,-0.09,0.13,0.06,0.04,1.00,
3.214,-0.21,-0.09,0.13,0.06,0.04,1.00,
3.215,-0.22,-0.08,0.19,0.06,0.04,1.00,
3.217,-0.22,-0.08,0.19,0.06,0.04,1.00,
3.219,-0.22,-0.08,0.19,0.06,0.04,1.00,
3.219,-0.23,-0.08,0.24,0.06,0.04,1.00,
3.223,-0.23,-0.08,0.24,0.06,0.04,1.00,
3.224,-0.23,-0.08,0.24,0.06,0.04,1.00,
3.225,-0.20,-0.08,0.27,0.06,0.04,1.00,
3.226,-0.20,-0.08,0.27,0.06,0.04,1.00,
3.229,-0.20,-0.08,0.27,0.06,0.04,1.00,
3.229,-0.19,-0.07,0.28,0.06,0.04,1.00,
3.231,-0.19,-0.07,0.28,0.07,0.04,1.01,
3.234,-0.19,-0.07,0.28,0.07,0.05,1.00,
3.234,-0.17,-0.05,0.29,0.07,0.05,1.00,
3.236,-0.17,-0.05,0.29,0.07,0.05,1.00,
3.239,-0.17,-0.05,0.29,0.07,0.05,1.00,
3.239,-0.13,-0.03,0.29,0.07,0.05,1.00,
3.241,-0.13,-0.03,0.29,0.07,0.05,1.00,
3.244,-0.13,-0.03,0.29,0.08,0.05,1.00,
3.244,-0.08,0.01,0.25,0.08,0.05,1.00,
3.246,-0.08,0.01,0.25,0.08,0.05,0.99,
3.249,-0.08,0.01,0.25,0.08,0.05,0.99,
3.249,-0.05,0.03,0.22,0.08,0.05,0.99,
3.251,-0.05,0.03,0.22,0.07,0.05,0.99,
3.254,-0.05,0.03,0.22,0.08,0.05,0.99,
3.254,-0.05,0.03,0.17,0.08,0.05,0.99,
3.256,-0.05,0.03,0.17,0.08,0.06,0.99,
3.259,-0.05,0.03,0.17,0.07,0.06,0.98,
3.259,-0.04,0.04,0.13,0.07,0.06,0.98,
3.261,-0.04,0.04,0.13,0.08,0.06,0.98,
3.263,-0.04,0.04,0.13,0.07,0.05,0.98,
3.264,-0.04,0.07,0.08,0.07,0.05,0.98,
3.266,-0.04,0.07,0.08,0.08,0.05,0.98,
3.268,-0.04,0.07,0.08,0.07,0.05,0.98,
3.268,-0.04,0.06,0.02,0.07,0.05,0.98,
3.271,-0.04,0.06,0.02,0.07,0.05,0.98,
3.273,-0.04,0.05,0.00,0.07,0.05,0.98,
3.274,-0.04,0.05,0.00,0.07,0.06,0.98,
3.277,-0.04,0.05,0.00,0.07,0.06,0.97,
3.278,-0.04,0.05,0.00,0.07,0.06,0.97,
3.279,-0.07,0.06,-0.00,0.07,0.06,0.97,
3.28,-0.07,0.06,-0.00,0.07,0.06,0.97,
3.283,-0.07,0.06,-0.00,0.07,0.06,0.97,
3.283,-0.08,0.08,-0.02,0.07,0.06,0.97,
3.285,-0.08,0.08,-0.02,0.07,0.05,0.98,
3.288,-0.08,0.08,-0.02,0.07,0.05,0.98,
3.288,-0.08,0.07,-0.04,0.07,0.05,0.98,
3.29,-0.08,0.07,-0.04,0.07,0.05,0.98,
3.294,-0.08,0.07,-0.04,0.07,0.05,0.98,
3.294,-0.07,0.05,0.00,0.07,0.05,0.98,
3.296,-0.07,0.05,0.00,0.07,0.06,0.98,
3.298,-0.07,0.05,0.00,0.07,0.06,0.98,
3.298,-0.07,0.06,0.04,0.07,0.06,0.98,
3.3,-0.07,0.06,0.04,0.07,0.06,0.99,
3.303,-0.07,0.06,0.04,0.07,0.06,0.99,
3.303,-0.07,0.08,0.07,0.07,0.06,0.99,
3.305,-0.07,0.08,0.07,0.07,0.06,0.99,
3.312,-0.07,0.08,0.07,0.08,0.06,0.99,
3.312,-0.05,0.08,0.10,0.08,0.06,0.99,
3.312,-0.05,0.08,0.10,0.08,0.06,0.99,
3.313,-0.05,0.08,0.10,0.08,0.06,0.99,
3.313,-0.01,0.10,0.13,0.08,0.06,0.99,
3.315,-0.01,0.10,0.13,0.09,0.06,0.99,
3.317,-0.01,0.10,0.13,0.09,0.06,0.99,
3.317,0.04,0.10,0.14,0.09,0.06,0.99,
3.319,0.04,0.10,0.14,0.09,0.06,0.99,
3.323,0.04,0.10,0.14,0.09,0.06,0.99,
3.324,0.10,0.10,0.12,0.09,0.06,0.99,
3.325,0.10,0.10,0.12,0.09,0.06,0.99,
3.327,0.10,0.10,0.12,0.09,0.06,0.99,
3.327,0.13,0.10,0.13,0.09,0.06,0.99,
3.329,0.13,0.10,0.13,0.10,0.06,0.99,
3.332,0.13,0.10,0.13,0.10,0.06,0.99,
3.332,0.16,0.12,0.16,0.10,0.06,0.99,
3.334,0.16,0.12,0.16,0.10,0.06,0.99,
3.337,0.16,0.12,0.16,0.10,0.06,0.99,
3.337,0.21,0.14,0.13,0.10,0.06,0.99,
3.339,0.21,0.14,0.13,0.10,0.06,0.99,
3.342,0.21,0.14,0.13,0.10,0.06,0.99,
3.342,0.21,0.13,0.10,0.10,0.06,0.99,
3.344,0.21,0.13,0.10,0.10,0.06,0.99,
3.346,0.21,0.13,0.10,0.10,0.06,0.99,
3.347,0.20,0.15,0.10,0.10,0.06,0.99,
3.349,0.20,0.15,0.10,0.10,0.06,0.99,
3.351,0.20,0.15,0.10,0.10,0.06,0.99,
3.352,0.20,0.14,0.10,0.10,0.06,0.99,
3.354,0.20,0.14,0.10,0.10,0.06,0.99,
3.357,0.20,0.14,0.10,0.09,0.06,0.99,
3.357,0.19,0.14,0.09,0.09,0.06,0.99,
3.359,0.19,0.14,0.09,0.09,0.06,0.99,
3.362,0.19,0.14,0.09,0.09,0.06,0.99,
3.362,0.17,0.11,0.08,0.09,0.06,0.99,
3.363,0.17,0.11,0.08,0.09,0.06,0.99,
3.366,0.17,0.11,0.08,0.09,0.06,0.99,
3.366,0.16,0.09,0.10,0.09,0.06,0.99,
3.368,0.16,0.09,0.10,0.09,0.06,0.99,
3.371,0.16,0.09,0.10,0.09,0.06,0.99,
3.371,0.17,0.09,0.11,0.09,0.06,0.99,
3.373,0.17,0.09,0.11,0.09,0.06,0.99,
3.376,0.17,0.09,0.11,0.09,0.06,0.99,
3.376,0.17,0.10,0.10,0.09,0.06,0.99,
3.378,0.17,0.10,0.10,0.09,0.06,0.99,
3.381,0.17,0.10,0.10,0.09,0.06,0.98,
3.381,0.17,0.11,0.08,0.09,0.06,0.98,
3.383,0.17,0.11,0.08,0.09,0.06,0.98,
3.386,0.17,0.11,0.08,0.09,0.06,0.98,
3.386,0.15,0.13,0.07,0.09,0.06,0.98,
3.388,0.15,0.13,0.07,0.09,0.06,0.98,
3.391,0.15,0.13,0.07,0.09,0.06,0.98,
3.391,0.17,0.14,0.05,0.09,0.06,0.98,
3.393,0.17,0.14,0.05,0.10,0.06,0.98,
3.396,0.17,0.14,0.05,0.10,0.06,0.98,
3.396,0.17,0.14,0.01,0.10,0.06,0.98,
3.398,0.17,0.14,0.01,0.10,0.06,0.98,
3.4,0.17,0.14,0.01,0.10,0.06,0.98,
3.401,0.21,0.12,-0.01,0.10,0.06,0.98,
3.403,0.21,0.12,-0.01,0.10,0.06,0.98,
3.411,0.21,0.12,-0.01,0.10,0.06,0.97,
3.412,0.23,0.13,-0.03,0.10,0.06,0.97,
3.412,0.23,0.13,-0.03,0.10,0.06,0.97,
3.413,0.23,0.13,-0.03,0.10,0.06,0.97,
3.413,0.23,0.12,-0.03,0.10,0.06,0.97,
3.413,0.23,0.12,-0.03,0.10,0.06,0.97,
3.415,0.23,0.12,-0.03,0.10,0.06,0.98,
3.415,0.21,0.11,-0.05,0.10,0.06,0.98,
3.417,0.21,0.11,-0.05,0.09,0.06,0.98,
3.421,0.20,0.10,-0.04,0.09,0.06,0.98,
3.421,0.20,0.10,-0.04,0.09,0.06,0.98,
3.423,0.20,0.10,-0.04,0.09,0.06,0.98,
3.425,0.20,0.10,-0.04,0.09,0.06,0.98,
3.426,0.16,0.10,-0.01,0.09,0.06,0.98,
3.427,0.16,0.10,-0.01,0.08,0.06,0.98,
3.43,0.16,0.10,-0.01,0.08,0.06,0.98,
3.43,0.12,0.09,0.01,0.08,0.06,0.98,
3.432,0.12,0.09,0.01,0.07,0.06,0.99,
3.435,0.12,0.09,0.01,0.07,0.06,0.99,
3.435,0.06,0.09,0.05,0.07,0.06,0.99,
3.437,0.06,0.09,0.05,0.07,0.06,0.99,
3.44,0.06,0.09,0.05,0.07,0.06,0.99,
3.44,-0.01,0.10,0.07,0.07,0.06,0.99,
3.442,-0.01,0.10,0.07,0.07,0.06,0.99,
3.445,-0.01,0.10,0.07,0.07,0.05,0.99,
3.445,-0.03,0.07,0.09,0.07,0.05,0.99,
3.447,-0.03,0.07,0.09,0.07,0.05,0.99,
3.449,-0.03,0.07,0.09,0.07,0.06,0.99,
3.45,-0.06,0.06,0.11,0.07,0.06,0.99,
3.452,-0.06,0.06,0.11,0.07,0.06,1.00,
3.454,-0.06,0.06,0.11,0.07,0.06,0.99,
3.455,-0.06,0.05,0.14,0.07,0.06,0.99,
3.457,-0.06,0.05,0.14,0.07,0.06,0.99,
3.459,-0.06,0.05,0.14,0.07,0.06,0.99,
3.46,-0.06,0.05,0.16,0.07,0.06,0.99,
3.461,-0.06,0.05,0.16,0.07,0.06,0.99,
3.464,-0.06,0.05,0.16,0.07,0.06,0.99,
3.464,-0.05,0.06,0.13,0.07,0.06,0.99,
3.466,-0.05,0.06,0.13,0.07,0.06,0.99,
3.469,-0.05,0.06,0.13,0.07,0.06,0.99,
3.469,-0.03,0.09,0.10,0.07,0.06,0.99,
3.473,-0.03,0.09,0.10,0.07,0.06,0.98,
3.474,-0.03,0.09,0.10,0.08,0.06,0.98,
3.474,-0.01,0.11,0.08,0.08,0.06,0.98,
3.476,-0.01,0.11,0.08,0.08,0.06,0.98,
3.479,-0.01,0.11,0.08,0.08,0.07,0.98,
3.479,0.03,0.12,0.04,0.08,0.07,0.98,
3.481,0.03,0.12,0.04,0.08,0.07,0.97,
3.484,0.03,0.12,0.04,0.08,0.06,0.97,
3.484,0.06,0.13,-0.02,0.08,0.06,0.97,
3.486,0.06,0.13,-0.02,0.09,0.07,0.97,
3.489,0.06,0.13,-0.02,0.09,0.06,0.97,
3.49,0.11,0.13,-0.07,0.09,0.06,0.97,
3.491,0.11,0.13,-0.07,0.08,0.07,0.97,
3.495,0.11,0.13,-0.07,0.08,0.07,0.96,
3.495,0.12,0.12,-0.10,0.08,0.07,0.96,
3.496,0.12,0.12,-0.10,0.08,0.07,0.96,
3.499,0.12,0.12,-0.10,0.08,0.07,0.96,
3.499,0.10,0.13,-0.15,0.08,0.07,0.96,
3.501,0.10,0.13,-0.15,0.08,0.07,0.96,
3.503,0.10,0.13,-0.15,0.08,0.07,0.96,
3.504,0.06,0.13,-0.18,0.08,0.07,0.96,
3.506,0.06,0.13,-0.18,0.07,0.06,0.96,
3.508,0.06,0.13,-0.18,0.08,0.06,0.96,
3.509,0.05,0.13,-0.20,0.08,0.06,0.96,
3.51,0.05,0.13,-0.20,0.07,0.06,0.96,
3.513,0.05,0.13,-0.20,0.07,0.06,0.96,
3.514,0.02,0.10,-0.19,0.07,0.06,0.96,
3.516,0.02,0.10,-0.19,0.07,0.06,0.96,
3.518,0.02,0.10,-0.19,0.07,0.06,0.97,
3.519,-0.03,0.09,-0.16,0.07,0.06,0.97,
3.52,-0.03,0.09,-0.16,0.07,0.06,0.97,
3.528,-0.03,0.09,-0.16,0.06,0.06,0.97,
3.528,-0.06,0.06,-0.13,0.06,0.06,0.97,
3.529,-0.06,0.06,-0.13,0.06,0.06,0.98,
3.529,-0.06,0.06,-0.13,0.06,0.06,0.98,
3.529,-0.08,0.06,-0.08,0.06,0.06,0.98,
3.53,-0.08,0.06,-0.08,0.06,0.06,0.98,
3.534,-0.08,0.06,-0.08,0.06,0.05,0.99,
3.534,-0.12,0.03,-0.00,0.06,0.05,0.99,
3.535,-0.12,0.03,-0.00,0.06,0.05,0.99,
3.538,-0.12,0.03,-0.00,0.06,0.05,1.00,
3.538,-0.13,0.02,0.08,0.06,0.05,1.00,
3.54,-0.13,0.02,0.08,0.06,0.05,1.00,
3.542,-0.13,0.02,0.08,0.06,0.05,1.00,
3.542,-0.16,-0.00,0.16,0.06,0.05,1.00,
3.545,-0.16,-0.00,0.16,0.06,0.05,1.00,
3.547,-0.16,-0.00,0.16,0.06,0.05,1.01,
3.547,-0.15,-0.01,0.19,0.06,0.05,1.01,
3.55,-0.15,-0.01,0.19,0.06,0.05,1.01,
3.552,-0.15,-0.01,0.19,0.06,0.05,1.01,
3.552,-0.13,-0.01,0.25,0.06,0.05,1.01,
3.555,-0.13,-0.01,0.25,0.06,0.05,1.01,
3.558,-0.13,-0.01,0.25,0.06,0.05,1.00,
3.558,-0.10,-0.02,0.26,0.06,0.05,1.00,
3.56,-0.10,-0.02,0.26,0.06,0.05,1.00,
3.562,-0.10,-0.02,0.26,0.07,0.06,1.00,
3.562,-0.09,-0.03,0.25,0.07,0.06,1.00,
3.564,-0.09,-0.03,0.25,0.07,0.06,1.00,
3.567,-0.09,-0.03,0.25,0.07,0.06,1.00,
3.567,-0.07,0.00,0.22,0.07,0.06,1.00,
3.569,-0.07,0.00,0.22,0.07,0.06,0.99,
3.572,-0.07,0.00,0.22,0.07,0.06,0.99,
3.572,-0.02,0.03,0.18,0.07,0.06,0.99,
3.574,-0.02,0.03,0.18,0.07,0.06,0.98,
3.577,-0.02,0.03,0.18,0.07,0.06,0.98,
3.577,-0.03,0.02,0.11,0.07,0.06,0.98,
3.579,-0.03,0.02,0.11,0.08,0.06,0.98,
3.582,-0.03,0.02,0.11,0.08,0.06,0.98,
3.582,0.02,0.03,0.05,0.08,0.06,0.98,
3.584,0.02,0.03,0.05,0.08,0.06,0.98,
3.587,0.02,0.03,0.05,0.08,0.06,0.98,
3.587,0.04,0.05,0.00,0.08,0.06,0.98,
3.589,0.04,0.05,0.00,0.08,0.06,0.98,
3.592,0.04,0.05,0.00,0.08,0.06,0.97,
3.592,0.04,0.05,-0.03,0.08,0.06,0.97,
3.594,0.04,0.05,-0.03,0.08,0.06,0.97,
3.597,0.04,0.05,-0.03,0.08,0.06,0.97,
3.597,0.06,0.04,-0.05,0.08,0.06,0.97,
3.599,0.06,0.04,-0.05,0.08,0.06,0.97,
3.602,0.06,0.04,-0.05,0.08,0.06,0.97,
3.604,0.07,0.05,-0.07,0.08,0.06,0.97,
3.612,0.07,0.05,-0.07,0.08,0.06,0.97,
3.613,0.07,0.05,-0.07,0.07,0.06,0.97,
3.613,0.04,0.05,-0.10,0.07,0.06,0.97,
3.613,0.04,0.05,-0.10,0.07,0.06,0.97,
3.613,0.04,0.05,-0.10,0.07,0.06,0.97,
3.614,0.02,0.05,-0.12,0.07,0.06,0.97,
3.614,0.02,0.05,-0.12,0.07,0.06,0.97,
3.616,0.02,0.05,-0.12,0.07,0.06,0.97,
3.616,0.00,0.04,-0.10,0.07,0.06,0.97,
3.618,0.00,0.04,-0.10,0.07,0.06,0.97,
3.623,0.00,0.04,-0.10,0.07,0.06,0.96,
3.623,0.01,0.04,-0.11,0.07,0.06,0.96,
3.623,0.01,0.04,-0.11,0.08,0.05,0.90,
3.626,0.01,0.04,-0.11,0.10,0.06,0.83,
3.626,-0.01,0.02,-0.17,0.10,0.06,0.83,
3.628,-0.01,0.02,-0.17,0.11,0.07,0.81,
3.631,-0.01,0.02,-0.17,0.11,0.07,0.84,
3.631,0.17,-0.02,-1.13,0.11,0.07,0.84,
3.633,0.17,-0.02,-1.13,0.10,0.07,0.87,
3.636,0.17,-0.02,-1.13,0.10,0.07,0.89,
3.636,0.37,0.13,-1.45,0.10,0.07,0.89,
3.638,0.37,0.13,-1.45,0.09,0.07,0.91,
3.64,0.37,0.13,-1.45,0.09,0.07,0.92,
3.641,0.28,0.12,-0.93,0.09,0.07,0.92,
3.643,0.28,0.12,-0.93,0.09,0.07,0.93,
3.645,0.28,0.12,-0.93,0.09,0.08,0.94,
3.645,0.20,0.14,-0.59,0.09,0.08,0.94,
3.647,0.20,0.14,-0.59,0.09,0.08,0.95,
3.65,0.20,0.14,-0.59,0.08,0.07,0.96,
3.65,0.19,0.22,-0.36,0.08,0.07,0.96,
3.653,0.19,0.22,-0.36,0.08,0.07,0.97,
3.655,0.19,0.22,-0.36,0.08,0.06,0.99,
3.656,0.16,0.21,-0.20,0.08,0.06,0.99,
3.657,0.16,0.21,-0.20,0.08,0.06,1.00,
3.66,0.16,0.21,-0.20,0.07,0.05,1.02,
3.66,0.12,0.13,0.04,0.07,0.05,1.02,
3.662,0.12,0.13,0.04,0.07,0.05,1.03,
3.665,0.12,0.13,0.04,0.06,0.05,1.04,
3.665,0.04,0.05,0.32,0.06,0.05,1.04,
3.667,0.04,0.05,0.32,0.06,0.05,1.05,
3.67,0.04,0.05,0.32,0.06,0.05,1.06,
3.67,-0.04,0.02,0.57,0.06,0.05,1.06,
3.672,-0.04,0.02,0.57,0.06,0.04,1.07,
3.675,-0.04,0.02,0.57,0.06,0.04,1.08,
3.675,-0.10,-0.03,0.75,0.06,0.04,1.08,
3.677,-0.10,-0.03,0.75,0.06,0.03,1.08,
3.679,-0.10,-0.03,0.75,0.07,0.03,1.08,
3.68,-0.07,-0.14,0.94,0.07,0.03,1.08,
3.682,-0.07,-0.14,0.94,0.07,0.04,1.07,
3.684,-0.07,-0.14,0.94,0.06,0.04,1.06,
3.685,-0.06,-0.18,0.97,0.06,0.04,1.06,
3.687,-0.06,-0.18,0.97,0.06,0.05,1.04,
3.689,-0.06,-0.18,0.97,0.06,0.05,1.02,
3.69,-0.08,-0.13,0.82,0.06,0.05,1.02,
3.692,-0.08,-0.13,0.82,0.06,0.05,1.01,
3.694,-0.08,-0.13,0.82,0.06,0.06,0.99,
3.695,-0.13,-0.06,0.52,0.06,0.06,0.99,
3.697,-0.13,-0.06,0.52,0.06,0.05,0.98,
3.699,-0.13,-0.06,0.52,0.07,0.05,0.97,
3.699,-0.14,-0.03,0.21,0.07,0.05,0.97,
3.701,-0.14,-0.03,0.21,0.07,0.06,0.95,
3.704,-0.14,-0.03,0.21,0.07,0.06,0.95,
3.705,-0.11,-0.05,-0.07,0.07,0.06,0.95,
3.71,-0.11,-0.05,-0.07,0.08,0.06,0.94,
3.71,-0.11,-0.05,-0.07,0.08,0.06,0.93,
3.71,-0.04,-0.03,-0.28,0.08,0.06,0.93,
