
time,ax,ay,az,gFx,gFy,gFz,
0.002,0.00,-0.07,0.15,0.00,0.06,0.98,
0.002,0.00,-0.07,0.15,0.01,0.06,0.98,
0.002,0.01,-0.06,0.08,0.01,0.06,0.98,
0.003,0.01,-0.06,0.08,0.01,0.06,0.98,
0.005,0.01,-0.06,0.08,0.01,0.06,0.98,
0.006,0.05,-0.07,0.03,0.01,0.06,0.98,
0.008,0.05,-0.07,0.03,0.01,0.06,0.98,
0.01,0.05,-0.07,0.03,0.01,0.07,0.98,
0.011,0.09,-0.06,0.01,0.01,0.07,0.98,
0.013,0.09,-0.06,0.01,0.01,0.07,0.98,
0.016,0.09,-0.06,0.01,0.01,0.07,0.98,
0.016,0.09,-0.04,-0.04,0.01,0.07,0.98,
0.018,0.09,-0.04,-0.04,0.01,0.07,0.98,
0.02,0.09,-0.04,-0.04,0.01,0.07,0.98,
0.02,0.08,-0.00,-0.04,0.01,0.07,0.98,
0.023,0.08,-0.00,-0.04,0.01,0.07,0.98,
0.025,0.08,-0.00,-0.04,0.01,0.07,0.98,
0.025,0.09,0.03,-0.04,0.01,0.07,0.98,
0.027,0.09,0.03,-0.04,0.01,0.07,0.98,
0.031,0.09,0.03,-0.04,0.01,0.07,0.98,
0.031,0.08,0.05,-0.02,0.01,0.07,0.98,
0.032,0.08,0.05,-0.02,0.00,0.08,0.98,
0.035,0.08,0.05,-0.02,0.00,0.08,0.98,
0.036,0.07,0.06,0.00,0.00,0.08,0.98,
0.037,0.07,0.06,0.00,0.00,0.08,0.98,
0.04,0.07,0.06,0.00,0.00,0.08,0.98,
0.04,0.04,0.08,0.02,0.00,0.08,0.98,
0.042,0.04,0.08,0.02,0.00,0.08,0.99,
0.045,0.04,0.08,0.02,0.00,0.07,0.99,
0.045,0.04,0.07,0.04,0.00,0.07,0.99,
0.047,0.04,0.07,0.04,0.00,0.07,0.99,
0.05,0.04,0.07,0.04,-0.00,0.07,0.99,
0.05,0.03,0.07,0.06,-0.00,0.07,0.99,
0.052,0.03,0.07,0.06,-0.00,0.07,0.99,
0.054,0.03,0.07,0.06,-0.00,0.07,0.99,
0.055,0.02,0.05,0.05,-0.00,0.07,0.99,
0.057,0.02,0.05,0.05,-0.00,0.07,0.99,
0.059,0.02,0.05,0.05,-0.00,0.07,0.99,
0.06,0.00,0.03,0.06,-0.00,0.07,0.99,
0.062,0.00,0.03,0.06,-0.00,0.07,0.99,
0.067,0.00,0.03,0.06,-0.01,0.07,0.99,
0.067,0.01,0.01,0.08,-0.01,0.07,0.99,
0.067,0.01,0.01,0.08,-0.01,0.07,0.98,
0.069,0.01,0.01,0.08,-0.01,0.07,0.98,
0.07,-0.03,0.02,0.06,-0.01,0.07,0.98,
0.072,-0.03,0.02,0.06,-0.01,0.07,0.98,
0.074,-0.03,0.02,0.06,-0.01,0.07,0.98,
0.074,-0.06,0.03,0.03,-0.01,0.07,0.98,
0.076,-0.06,0.03,0.03,-0.01,0.07,0.98,
0.079,-0.06,0.03,0.03,-0.01,0.07,0.98,
0.079,-0.06,0.02,0.01,-0.01,0.07,0.98,
0.081,-0.06,0.02,0.01,-0.01,0.07,0.97,
0.084,-0.06,0.02,0.01,-0.01,0.07,0.97,
0.084,-0.06,0.02,-0.02,-0.01,0.07,0.97,
0.087,-0.06,0.02,-0.02,-0.01,0.07,0.97,
0.089,-0.06,0.02,-0.02,-0.01,0.07,0.97,
0.089,-0.06,0.04,-0.06,-0.01,0.07,0.97,
0.091,-0.06,0.04,-0.06,-0.01,0.07,0.97,
0.094,-0.06,0.04,-0.06,-0.01,0.07,0.97,
0.094,-0.05,0.05,-0.10,-0.01,0.07,0.97,
0.097,-0.05,0.05,-0.10,-0.01,0.07,0.96,
0.099,-0.05,0.05,-0.10,-0.01,0.08,0.96,
0.099,-0.06,0.05,-0.13,-0.01,0.08,0.96,
0.101,-0.06,0.05,-0.13,-0.01,0.07,0.96,
0.104,-0.06,0.05,-0.13,-0.01,0.08,0.96,
0.104,-0.06,0.06,-0.16,-0.01,0.08,0.96,
0.106,-0.06,0.06,-0.16,-0.01,0.07,0.96,
0.108,-0.06,0.06,-0.16,-0.01,0.08,0.96,
0.108,-0.05,0.06,-0.16,-0.01,0.08,0.96,
0.111,-0.05,0.06,-0.16,-0.01,0.08,0.96,
0.113,-0.05,0.06,-0.16,-0.01,0.08,0.96,
0.114,-0.05,0.06,-0.18,-0.01,0.08,0.96,
0.116,-0.05,0.06,-0.18,-0.01,0.08,0.96,
0.118,-0.05,0.06,-0.18,-0.01,0.08,0.96,
0.118,-0.06,0.07,-0.18,-0.01,0.08,0.96,
0.121,-0.06,0.07,-0.18,-0.01,0.08,0.96,
0.123,-0.06,0.07,-0.18,-0.01,0.08,0.96,
0.123,-0.07,0.06,-0.18,-0.01,0.08,0.96,
0.125,-0.07,0.06,-0.18,-0.01,0.07,0.96,
0.128,-0.07,0.06,-0.18,-0.01,0.07,0.96,
0.128,-0.05,0.07,-0.19,-0.01,0.07,0.96,
0.13,-0.05,0.07,-0.19,-0.01,0.08,0.96,
0.133,-0.05,0.07,-0.19,-0.01,0.07,0.96,
0.133,-0.07,0.06,-0.19,-0.01,0.07,0.96,
0.135,-0.07,0.06,-0.19,-0.01,0.07,0.96,
0.138,-0.07,0.06,-0.19,-0.01,0.07,0.97,
0.138,-0.08,0.06,-0.16,-0.01,0.07,0.97,
0.14,-0.08,0.06,-0.16,-0.01,0.07,0.97,
0.143,-0.08,0.06,-0.16,-0.01,0.07,0.97,
0.143,-0.07,0.06,-0.13,-0.01,0.07,0.97,
0.145,-0.07,0.06,-0.13,-0.01,0.08,0.97,
0.148,-0.07,0.06,-0.13,-0.01,0.07,0.97,
0.148,-0.06,0.06,-0.10,-0.01,0.07,0.97,
0.15,-0.06,0.06,-0.10,-0.01,0.07,0.98,
0.153,-0.06,0.06,-0.10,-0.01,0.07,0.98,
0.153,-0.05,0.06,-0.05,-0.01,0.07,0.98,
0.155,-0.05,0.06,-0.05,-0.00,0.07,0.98,
0.158,-0.05,0.06,-0.05,-0.00,0.07,0.98,
0.158,-0.04,0.06,-0.02,-0.00,0.07,0.98,
0.16,-0.04,0.06,-0.02,-0.00,0.07,0.98,
0.163,-0.04,0.06,-0.02,0.00,0.07,0.99,
0.163,-0.01,0.05,0.02,0.00,0.07,0.99,
0.17,-0.01,0.05,0.02,-0.00,0.07,0.99,
0.171,-0.01,0.05,0.02,0.00,0.07,0.99,
0.171,0.03,0.05,0.05,0.00,0.07,0.99,
0.171,0.03,0.05,0.05,0.00,0.07,0.99,
0.172,0.03,0.05,0.05,0.00,0.07,0.99,
0.173,0.04,0.03,0.09,0.00,0.07,0.99,
0.175,0.04,0.03,0.09,0.01,0.07,0.99,
0.177,0.06,0.02,0.11,0.01,0.07,0.99,
0.177,0.06,0.02,0.11,0.01,0.07,0.99,
0.18,0.06,0.02,0.11,0.01,0.07,1.00,
0.182,0.06,0.02,0.11,0.01,0.08,0.99,
0.183,0.09,0.03,0.14,0.01,0.08,0.99,
0.184,0.09,0.03,0.14,0.01,0.07,0.99,
0.187,0.09,0.03,0.14,0.01,0.07,0.99,
0.187,0.10,0.06,0.15,0.01,0.07,0.99,
0.189,0.10,0.06,0.15,0.01,0.08,1.00,
0.192,0.10,0.06,0.15,0.01,0.08,1.00,
0.192,0.09,0.06,0.14,0.01,0.08,1.00,
0.194,0.09,0.06,0.14,0.01,0.08,0.99,
0.197,0.09,0.06,0.14,0.01,0.08,0.99,
0.198,0.10,0.07,0.16,0.01,0.08,0.99,
0.199,0.10,0.07,0.16,0.01,0.07,0.99,
0.202,0.10,0.07,0.16,0.01,0.07,0.99,
0.202,0.11,0.07,0.14,0.01,0.07,0.99,
0.204,0.11,0.07,0.14,0.01,0.07,0.99,
0.207,0.11,0.07,0.14,0.01,0.07,0.99,
0.207,0.12,0.06,0.11,0.01,0.07,0.99,
0.209,0.12,0.06,0.11,0.01,0.07,0.98,
0.211,0.12,0.06,0.11,0.01,0.07,0.98,
0.212,0.14,0.04,0.08,0.01,0.07,0.98,
0.214,0.14,0.04,0.08,0.01,0.07,0.98,
0.216,0.14,0.04,0.08,0.01,0.07,0.98,
0.216,0.13,0.05,0.05,0.01,0.07,0.98,
0.219,0.13,0.05,0.05,0.01,0.07,0.98,
0.221,0.13,0.05,0.05,0.01,0.07,0.98,
0.221,0.12,0.05,0.01,0.01,0.07,0.98,
0.224,0.12,0.05,0.01,0.01,0.07,0.98,
0.226,0.12,0.05,0.01,0.01,0.07,0.98,
0.226,0.12,0.03,0.00,0.01,0.07,0.98,
0.228,0.12,0.03,0.00,0.01,0.07,0.98,
0.231,0.12,0.03,0.00,0.01,0.07,0.97,
0.231,0.12,0.05,-0.02,0.01,0.07,0.97,
0.233,0.12,0.05,-0.02,0.01,0.07,0.97,
0.236,0.12,0.05,-0.02,0.01,0.07,0.97,
0.236,0.12,0.04,-0.04,0.01,0.07,0.97,
0.238,0.12,0.04,-0.04,0.01,0.07,0.98,
0.241,0.12,0.04,-0.04,0.01,0.07,0.97,
0.241,0.11,0.03,-0.06,0.01,0.07,0.97,
0.243,0.11,0.03,-0.06,0.01,0.07,0.97,
0.248,0.11,0.03,-0.06,0.01,0.07,0.97,
0.248,0.13,0.02,-0.06,0.01,0.07,0.97,
0.249,0.13,0.02,-0.06,0.01,0.07,0.97,
0.251,0.13,0.02,-0.06,0.01,0.07,0.97,
0.251,0.13,0.00,-0.08,0.01,0.07,0.97,
0.253,0.13,0.00,-0.08,0.01,0.07,0.97,
0.255,0.13,0.00,-0.08,0.01,0.07,0.97,
0.256,0.13,-0.01,-0.07,0.01,0.07,0.97,
0.258,0.13,-0.01,-0.07,0.01,0.07,0.97,
0.26,0.13,-0.01,-0.07,0.01,0.07,0.97,
0.26,0.14,-0.01,-0.07,0.01,0.07,0.97,
0.263,0.14,-0.01,-0.07,0.01,0.07,0.98,
0.265,0.14,-0.01,-0.07,0.01,0.07,0.98,
0.266,0.14,-0.01,-0.05,0.01,0.07,0.98,
0.268,0.14,-0.01,-0.05,0.01,0.07,0.98,
0.27,0.14,-0.01,-0.05,0.02,0.07,0.98,
0.27,0.14,0.00,-0.03,0.02,0.07,0.98,
0.272,0.14,0.00,-0.03,0.02,0.07,0.98,
0.275,0.14,0.00,-0.03,0.02,0.07,0.98,
0.276,0.19,0.00,-0.03,0.02,0.07,0.98,
0.277,0.19,0.00,-0.03,0.02,0.07,0.98,
0.282,0.19,0.00,-0.03,0.02,0.07,0.98,
0.282,0.22,0.01,-0.00,0.02,0.07,0.98,
0.282,0.22,0.01,-0.00,0.02,0.07,0.98,
0.285,0.22,0.01,-0.00,0.03,0.07,0.98,
0.285,0.25,0.01,0.02,0.03,0.07,0.98,
0.287,0.25,0.01,0.02,0.03,0.07,0.98,
0.29,0.25,0.01,0.02,0.02,0.07,0.99,
0.29,0.27,-0.00,0.03,0.02,0.07,0.99,
0.292,0.27,-0.00,0.03,0.02,0.07,0.98,
0.294,0.27,-0.00,0.03,0.03,0.07,0.98,
0.295,0.28,-0.01,0.05,0.03,0.07,0.98,
0.297,0.28,-0.01,0.05,0.03,0.07,0.98,
0.299,0.28,-0.01,0.05,0.02,0.06,0.98,
0.3,0.27,-0.03,0.03,0.02,0.06,0.98,
0.302,0.27,-0.03,0.03,0.02,0.06,0.98,
0.304,0.27,-0.03,0.03,0.02,0.06,0.98,
0.305,0.27,-0.05,0.03,0.02,0.06,0.98,
0.307,0.27,-0.05,0.03,0.02,0.06,0.98,
0.309,0.27,-0.05,0.03,0.02,0.06,0.98,
0.31,0.24,-0.04,0.03,0.02,0.06,0.98,
0.312,0.24,-0.04,0.03,0.02,0.06,0.98,
0.314,0.24,-0.04,0.03,0.02,0.06,0.98,
0.315,0.21,-0.07,0.01,0.02,0.06,0.98,
0.317,0.21,-0.07,0.01,0.02,0.06,0.98,
0.319,0.21,-0.07,0.01,0.02,0.06,0.98,
0.319,0.19,-0.10,0.01,0.02,0.06,0.98,
0.322,0.19,-0.10,0.01,0.02,0.05,0.98,
0.324,0.19,-0.10,0.01,0.02,0.06,0.97,
0.324,0.20,-0.12,-0.02,0.02,0.06,0.97,
0.326,0.20,-0.12,-0.02,0.02,0.05,0.97,
0.329,0.20,-0.12,-0.02,0.02,0.05,0.97,
0.33,0.17,-0.14,-0.05,0.02,0.05,0.97,
0.331,0.17,-0.14,-0.05,0.02,0.05,0.97,
0.334,0.17,-0.14,-0.05,0.02,0.05,0.97,
0.334,0.16,-0.16,-0.05,0.02,0.05,0.97,
0.336,0.16,-0.16,-0.05,0.02,0.05,0.97,
0.339,0.16,-0.16,-0.05,0.02,0.05,0.97,
0.339,0.18,-0.16,-0.07,0.02,0.05,0.97,
0.341,0.18,-0.16,-0.07,0.02,0.05,0.97,
0.344,0.19,-0.16,-0.09,0.02,0.05,0.97,
0.344,0.19,-0.16,-0.09,0.02,0.06,0.97,
0.346,0.19,-0.16,-0.09,0.02,0.06,0.97,
0.348,0.19,-0.16,-0.09,0.02,0.06,0.97,
0.349,0.21,-0.15,-0.11,0.02,0.06,0.97,
0.351,0.21,-0.15,-0.11,0.03,0.06,0.97,
0.353,0.21,-0.15,-0.11,0.03,0.06,0.97,
0.354,0.24,-0.13,-0.11,0.03,0.06,0.97,
0.356,0.24,-0.13,-0.11,0.03,0.06,0.97,
0.358,0.24,-0.13,-0.11,0.04,0.06,0.97,
0.359,0.28,-0.11,-0.10,0.04,0.06,0.97,
0.361,0.28,-0.11,-0.10,0.04,0.06,0.97,
0.37,0.28,-0.11,-0.10,0.04,0.06,0.97,
0.371,0.33,-0.09,-0.11,0.04,0.06,0.97,
0.371,0.33,-0.09,-0.11,0.05,0.06,0.97,
0.371,0.33,-0.09,-0.11,0.05,0.06,0.97,
0.371,0.38,-0.08,-0.10,0.05,0.06,0.97,
0.371,0.38,-0.08,-0.10,0.05,0.06,0.97,
0.373,0.38,-0.08,-0.10,0.05,0.07,0.97,
0.373,0.44,-0.07,-0.09,0.05,0.07,0.97,
0.375,0.44,-0.07,-0.09,0.06,0.07,0.97,
0.378,0.50,-0.04,-0.10,0.06,0.07,0.97,
0.378,0.50,-0.04,-0.10,0.06,0.07,0.97,
0.38,0.50,-0.04,-0.10,0.06,0.07,0.97,
0.383,0.50,-0.04,-0.10,0.06,0.07,0.97,
0.383,0.56,0.00,-0.13,0.06,0.07,0.97,
0.386,0.56,0.00,-0.13,0.07,0.07,0.97,
0.388,0.56,0.00,-0.13,0.07,0.07,0.97,
0.388,0.60,-0.00,-0.12,0.07,0.07,0.97,
0.39,0.60,-0.00,-0.12,0.07,0.07,0.97,
0.393,0.60,-0.00,-0.12,0.07,0.07,0.97,
0.393,0.61,-0.01,-0.11,0.07,0.07,0.97,
0.395,0.61,-0.01,-0.11,0.07,0.07,0.97,
0.397,0.61,-0.01,-0.11,0.07,0.06,0.97,
0.398,0.62,0.00,-0.10,0.07,0.06,0.97,
0.4,0.62,0.00,-0.10,0.07,0.06,0.97,
0.402,0.62,0.00,-0.10,0.08,0.06,0.97,
0.403,0.65,-0.03,-0.09,0.08,0.06,0.97,
0.405,0.65,-0.03,-0.09,0.08,0.06,0.97,
0.407,0.65,-0.03,-0.09,0.08,0.06,0.97,
0.409,0.68,-0.06,-0.08,0.08,0.06,0.97,
0.41,0.68,-0.06,-0.08,0.08,0.06,0.97,
0.412,0.68,-0.06,-0.08,0.08,0.06,0.98,
0.413,0.69,-0.07,-0.05,0.08,0.06,0.98,
0.415,0.69,-0.07,-0.05,0.08,0.06,0.98,
0.417,0.69,-0.07,-0.05,0.08,0.06,0.98,
0.417,0.69,-0.09,-0.04,0.08,0.06,0.98,
0.419,0.69,-0.09,-0.04,0.08,0.06,0.98,
0.422,0.69,-0.09,-0.04,0.09,0.06,0.98,
0.422,0.70,-0.10,0.01,0.09,0.06,0.98,
0.424,0.70,-0.10,0.01,0.09,0.06,0.98,
0.427,0.70,-0.10,0.01,0.09,0.05,0.98,
0.429,0.74,-0.12,0.03,0.09,0.05,0.98,
0.43,0.74,-0.12,0.03,0.09,0.05,0.99,
0.432,0.74,-0.12,0.03,0.09,0.05,0.99,
0.432,0.77,-0.13,0.06,0.09,0.05,0.99,
0.434,0.77,-0.13,0.06,0.09,0.05,0.99,
0.437,0.77,-0.13,0.06,0.09,0.05,0.99,
0.437,0.79,-0.15,0.09,0.09,0.05,0.99,
0.439,0.79,-0.15,0.09,0.09,0.05,0.99,
0.442,0.79,-0.15,0.09,0.10,0.05,0.99,
0.442,0.78,-0.17,0.09,0.10,0.05,0.99,
0.444,0.78,-0.17,0.09,0.10,0.05,0.99,
0.447,0.78,-0.17,0.09,0.10,0.05,0.98,
0.447,0.79,-0.19,0.10,0.10,0.05,0.98,
0.449,0.79,-0.19,0.10,0.10,0.05,0.98,
0.451,0.79,-0.19,0.10,0.10,0.05,0.98,
0.452,0.81,-0.20,0.07,0.10,0.05,0.98,
0.454,0.81,-0.20,0.07,0.10,0.04,0.98,
0.456,0.81,-0.20,0.07,0.09,0.04,0.98,
0.456,0.80,-0.22,0.05,0.09,0.04,0.98,
0.459,0.80,-0.22,0.05,0.09,0.04,0.98,
0.461,0.80,-0.22,0.05,0.09,0.04,0.97,
0.462,0.78,-0.25,0.01,0.09,0.04,0.97,
0.466,0.78,-0.25,0.01,0.09,0.04,0.97,
0.466,0.78,-0.25,0.01,0.09,0.04,0.97,
0.466,0.75,-0.28,-0.03,0.09,0.04,0.97,
0.468,0.75,-0.28,-0.03,0.09,0.03,0.97,
0.471,0.75,-0.28,-0.03,0.09,0.03,0.97,
0.471,0.74,-0.31,-0.09,0.09,0.03,0.97,
0.473,0.74,-0.31,-0.09,0.09,0.03,0.96,
0.476,0.74,-0.31,-0.09,0.09,0.03,0.96,
0.476,0.71,-0.35,-0.12,0.09,0.03,0.96,
0.478,0.71,-0.35,-0.12,0.08,0.03,0.96,
0.481,0.67,-0.39,-0.15,0.08,0.03,0.96,
0.481,0.67,-0.39,-0.15,0.08,0.02,0.96,
0.483,0.67,-0.39,-0.15,0.08,0.02,0.95,
0.486,0.67,-0.39,-0.15,0.08,0.02,0.95,
0.486,0.63,-0.43,-0.21,0.08,0.02,0.95,
0.488,0.63,-0.43,-0.21,0.08,0.02,0.96,
0.49,0.63,-0.43,-0.21,0.08,0.01,0.96,
0.491,0.59,-0.47,-0.22,0.08,0.01,0.96,
0.493,0.59,-0.47,-0.22,0.07,0.01,0.96,
0.495,0.59,-0.47,-0.22,0.08,0.01,0.96,
0.496,0.55,-0.50,-0.21,0.08,0.01,0.96,
0.498,0.55,-0.50,-0.21,0.08,0.01,0.96,
0.5,0.55,-0.50,-0.21,0.08,0.01,0.96,
0.501,0.52,-0.53,-0.18,0.08,0.01,0.96,
0.503,0.52,-0.53,-0.18,0.08,0.00,0.96,
0.505,0.52,-0.53,-0.18,0.08,0.00,0.96,
0.505,0.54,-0.58,-0.16,0.08,0.00,0.96,
0.507,0.54,-0.58,-0.16,0.08,-0.00,0.97,
0.51,0.54,-0.58,-0.16,0.08,-0.00,0.97,
0.51,0.51,-0.61,-0.13,0.08,-0.00,0.97,
0.512,0.51,-0.61,-0.13,0.08,-0.00,0.97,
0.515,0.51,-0.61,-0.13,0.08,-0.00,0.97,
0.515,0.53,-0.65,-0.10,0.08,-0.00,0.97,
0.518,0.53,-0.65,-0.10,0.09,-0.00,0.97,
0.52,0.53,-0.65,-0.10,0.09,-0.01,0.97,
0.52,0.56,-0.67,-0.06,0.09,-0.01,0.97,
0.522,0.56,-0.67,-0.06,0.09,-0.01,0.97,
0.525,0.56,-0.67,-0.06,0.08,-0.01,0.97,
0.525,0.56,-0.68,-0.03,0.08,-0.01,0.97,
0.527,0.56,-0.68,-0.03,0.08,-0.01,0.97,
0.53,0.56,-0.68,-0.03,0.08,-0.01,0.97,
0.53,0.54,-0.72,-0.02,0.08,-0.01,0.97,
0.532,0.54,-0.72,-0.02,0.08,-0.01,0.97,
0.534,0.54,-0.72,-0.02,0.07,-0.01,0.97,
0.535,0.50,-0.73,-0.03,0.07,-0.01,0.97,
0.537,0.50,-0.73,-0.03,0.07,-0.02,0.96,
0.539,0.50,-0.73,-0.03,0.07,-0.02,0.96,
0.54,0.43,-0.76,-0.08,0.07,-0.02,0.96,
0.542,0.43,-0.76,-0.08,0.07,-0.02,0.96,
0.545,0.43,-0.76,-0.08,0.07,-0.02,0.95,
0.546,0.39,-0.79,-0.13,0.07,-0.02,0.95,
0.547,0.39,-0.79,-0.13,0.06,-0.02,0.95,
0.55,0.39,-0.79,-0.13,0.06,-0.02,0.95,
0.55,0.32,-0.80,-0.19,0.06,-0.02,0.95,
0.552,0.32,-0.80,-0.19,0.06,-0.02,0.95,
0.554,0.32,-0.80,-0.19,0.06,-0.02,0.94,
0.554,0.26,-0.81,-0.25,0.06,-0.02,0.94,
0.557,0.26,-0.81,-0.25,0.05,-0.02,0.94,
0.559,0.26,-0.81,-0.25,0.05,-0.02,0.94,
0.559,0.21,-0.82,-0.32,0.05,-0.02,0.94,
0.562,0.21,-0.82,-0.32,0.05,-0.02,0.93,
0.564,0.21,-0.82,-0.32,0.05,-0.02,0.93,
0.565,0.17,-0.82,-0.36,0.05,-0.02,0.93,
0.567,0.17,-0.82,-0.36,0.04,-0.02,0.93,
0.569,0.17,-0.82,-0.36,0.04,-0.02,0.93,
0.569,0.12,-0.80,-0.41,0.04,-0.02,0.93,
0.571,0.12,-0.80,-0.41,0.04,-0.02,0.93,
0.574,0.12,-0.80,-0.41,0.04,-0.02,0.93,
0.574,0.06,-0.81,-0.40,0.04,-0.02,0.93,
0.576,0.06,-0.81,-0.40,0.04,-0.03,0.93,
0.594,0.06,-0.81,-0.40,0.04,-0.03,0.93,
0.594,0.04,-0.80,-0.41,0.04,-0.03,0.93,
0.594,0.04,-0.80,-0.41,0.04,-0.02,0.93,
0.595,0.04,-0.80,-0.41,0.04,-0.02,0.94,
0.596,0.01,-0.81,-0.41,0.04,-0.02,0.94,
0.596,0.01,-0.81,-0.41,0.04,-0.02,0.94,
0.597,0.01,-0.81,-0.41,0.04,-0.02,0.94,
0.597,-0.01,-0.78,-0.37,0.04,-0.02,0.94,
0.597,-0.01,-0.78,-0.37,0.04,-0.02,0.94,
0.598,-0.01,-0.78,-0.37,0.04,-0.02,0.94,
0.598,-0.02,-0.74,-0.32,0.04,-0.02,0.94,
0.598,-0.02,-0.74,-0.32,0.04,-0.02,0.94,
0.599,-0.02,-0.74,-0.32,0.04,-0.02,0.95,
0.599,-0.04,-0.72,-0.31,0.04,-0.02,0.95,
0.601,-0.04,-0.72,-0.31,0.04,-0.02,0.95,
0.603,-0.04,-0.72,-0.31,0.04,-0.02,0.95,
0.603,-0.05,-0.71,-0.27,0.04,-0.02,0.95,
0.605,-0.05,-0.71,-0.27,0.04,-0.02,0.95,
0.608,-0.05,-0.71,-0.27,0.04,-0.02,0.95,
0.608,-0.08,-0.69,-0.23,0.04,-0.02,0.95,
0.61,-0.08,-0.69,-0.23,0.03,-0.02,0.95,
0.613,-0.08,-0.69,-0.23,0.04,-0.02,0.95,
0.613,-0.08,-0.68,-0.19,0.04,-0.02,0.95,
0.615,-0.08,-0.68,-0.19,0.04,-0.02,0.95,
0.618,-0.08,-0.68,-0.19,0.03,-0.02,0.95,
0.618,-0.11,-0.67,-0.20,0.03,-0.02,0.95,
0.62,-0.11,-0.67,-0.20,0.03,-0.02,0.95,
0.622,-0.11,-0.67,-0.20,0.03,-0.02,0.95,
0.623,-0.14,-0.67,-0.21,0.03,-0.02,0.95,
0.625,-0.14,-0.67,-0.21,0.03,-0.02,0.95,
0.628,-0.14,-0.67,-0.21,0.03,-0.02,0.95,
0.629,-0.19,-0.65,-0.20,0.03,-0.02,0.95,
0.63,-0.19,-0.65,-0.20,0.03,-0.02,0.94,
0.632,-0.19,-0.65,-0.20,0.03,-0.02,0.94,
0.633,-0.22,-0.67,-0.24,0.03,-0.02,0.94,
0.635,-0.22,-0.67,-0.24,0.02,-0.02,0.94,
0.637,-0.22,-0.67,-0.24,0.02,-0.02,0.94,
0.638,-0.25,-0.68,-0.27,0.02,-0.02,0.94,
0.64,-0.25,-0.68,-0.27,0.02,-0.02,0.94,
0.642,-0.25,-0.68,-0.27,0.02,-0.02,0.94,
0.642,-0.32,-0.68,-0.29,0.02,-0.02,0.94,
0.645,-0.32,-0.68,-0.29,0.01,-0.02,0.94,
0.647,-0.32,-0.68,-0.29,0.01,-0.02,0.94,
0.647,-0.35,-0.68,-0.30,0.01,-0.02,0.94,
0.649,-0.35,-0.68,-0.30,0.01,-0.02,0.94,
0.652,-0.35,-0.68,-0.30,0.01,-0.02,0.94,
0.652,-0.41,-0.67,-0.33,0.01,-0.02,0.94,
0.654,-0.41,-0.67,-0.33,0.01,-0.02,0.94,
0.657,-0.41,-0.67,-0.33,0.01,-0.02,0.94,
0.657,-0.43,-0.65,-0.30,0.01,-0.02,0.94,
0.66,-0.43,-0.65,-0.30,0.01,-0.02,0.94,
0.664,-0.43,-0.65,-0.30,0.01,-0.02,0.95,
0.665,-0.43,-0.63,-0.27,0.01,-0.02,0.95,
0.665,-0.43,-0.63,-0.27,0.01,-0.02,0.95,
0.667,-0.43,-0.63,-0.27,0.01,-0.02,0.95,
0.667,-0.44,-0.59,-0.22,0.01,-0.02,0.95,
0.669,-0.44,-0.59,-0.22,0.01,-0.02,0.95,
0.672,-0.44,-0.59,-0.22,0.01,-0.02,0.95,
0.672,-0.47,-0.57,-0.18,0.01,-0.02,0.95,
0.674,-0.47,-0.57,-0.18,0.01,-0.02,0.95,
0.677,-0.47,-0.57,-0.18,0.01,-0.02,0.95,
0.677,-0.50,-0.56,-0.16,0.01,-0.02,0.95,
0.679,-0.50,-0.56,-0.16,0.00,-0.02,0.96,
0.682,-0.50,-0.56,-0.16,0.00,-0.01,0.96,
0.682,-0.53,-0.54,-0.14,0.00,-0.01,0.96,
0.684,-0.53,-0.54,-0.14,-0.00,-0.02,0.96,
0.687,-0.53,-0.54,-0.14,0.00,-0.01,0.96,
0.687,-0.59,-0.50,-0.09,0.00,-0.01,0.96,
0.689,-0.59,-0.50,-0.09,0.00,-0.01,0.96,
0.691,-0.59,-0.50,-0.09,-0.00,-0.01,0.97,
0.691,-0.62,-0.48,-0.05,-0.00,-0.01,0.97,
0.694,-0.62,-0.48,-0.05,-0.00,-0.01,0.97,
0.696,-0.65,-0.43,-0.03,-0.00,-0.01,0.97,
0.697,-0.65,-0.43,-0.03,-0.00,-0.01,0.97,
0.699,-0.65,-0.43,-0.03,-0.01,-0.01,0.97,
0.701,-0.65,-0.43,-0.03,-0.01,-0.01,0.97,
0.701,-0.67,-0.39,0.03,-0.01,-0.01,0.97,
0.704,-0.67,-0.39,0.03,-0.01,-0.01,0.98,
0.706,-0.67,-0.39,0.03,-0.01,-0.01,0.98,
0.706,-0.70,-0.37,0.05,-0.01,-0.01,0.98,
0.708,-0.70,-0.37,0.05,-0.01,-0.01,0.98,
0.711,-0.70,-0.37,0.05,-0.01,-0.01,0.98,
0.711,-0.74,-0.37,0.10,-0.01,-0.01,0.98,
0.713,-0.74,-0.37,0.10,-0.01,-0.01,0.98,
0.716,-0.74,-0.37,0.10,-0.01,-0.02,0.99,
0.716,-0.78,-0.38,0.13,-0.01,-0.02,0.99,
0.718,-0.78,-0.38,0.13,-0.01,-0.02,0.99,
0.721,-0.78,-0.38,0.13,-0.02,-0.02,0.99,
0.721,-0.80,-0.40,0.17,-0.02,-0.02,0.99,
0.723,-0.80,-0.40,0.17,-0.02,-0.02,0.99,
0.726,-0.80,-0.40,0.17,-0.02,-0.02,0.99,
0.726,-0.81,-0.41,0.21,-0.02,-0.02,0.99,
0.728,-0.81,-0.41,0.21,-0.02,-0.02,1.00,
0.73,-0.81,-0.41,0.21,-0.02,-0.02,1.00,
0.731,-0.86,-0.41,0.24,-0.02,-0.02,1.00,
0.733,-0.86,-0.41,0.24,-0.02,-0.02,1.00,
0.735,-0.86,-0.41,0.24,-0.02,-0.02,1.01,
0.735,-0.89,-0.39,0.29,-0.02,-0.02,1.01,
0.738,-0.89,-0.39,0.29,-0.03,-0.02,1.01,
0.74,-0.89,-0.39,0.29,-0.03,-0.02,1.01,
0.74,-0.91,-0.39,0.35,-0.03,-0.02,1.01,
0.743,-0.91,-0.39,0.35,-0.03,-0.02,1.01,
0.746,-0.91,-0.39,0.35,-0.03,-0.02,1.01,
0.746,-0.94,-0.36,0.37,-0.03,-0.02,1.01,
0.748,-0.94,-0.36,0.37,-0.03,-0.01,1.01,
0.75,-0.94,-0.36,0.37,-0.03,-0.02,1.01,
0.75,-0.97,-0.33,0.40,-0.03,-0.02,1.01,
0.752,-0.97,-0.33,0.40,-0.03,-0.02,1.01,
0.755,-0.97,-0.33,0.40,-0.03,-0.01,1.01,
0.756,-0.98,-0.32,0.41,-0.03,-0.01,1.01,
0.757,-0.98,-0.32,0.41,-0.03,-0.01,1.01,
0.76,-0.98,-0.32,0.41,-0.04,-0.01,1.01,
0.768,-1.01,-0.29,0.41,-0.04,-0.01,1.01,
0.768,-1.01,-0.29,0.41,-0.03,-0.01,1.01,
0.769,-1.01,-0.29,0.41,-0.03,-0.01,1.01,
0.769,-1.03,-0.25,0.40,-0.03,-0.01,1.01,
0.769,-1.03,-0.25,0.40,-0.03,-0.01,1.01,
0.77,-1.03,-0.25,0.40,-0.03,-0.00,1.01,
0.77,-1.03,-0.23,0.39,-0.03,-0.00,1.01,
0.772,-1.03,-0.23,0.39,-0.03,-0.00,1.01,
0.775,-1.03,-0.23,0.39,-0.03,-0.00,1.01,
0.775,-1.01,-0.17,0.38,-0.03,-0.00,1.01,
0.785,-1.01,-0.17,0.38,-0.03,0.00,1.01,
0.785,-1.01,-0.17,0.38,-0.02,0.00,1.01,
0.786,-0.97,-0.15,0.36,-0.02,0.00,1.01,
0.786,-0.97,-0.15,0.36,-0.02,0.00,1.01,
0.786,-0.97,-0.15,0.36,-0.02,0.01,1.01,
0.786,-0.95,-0.09,0.36,-0.02,0.01,1.01,
0.787,-0.95,-0.09,0.36,-0.02,0.01,1.01,
0.789,-0.95,-0.09,0.36,-0.02,0.01,1.01,
0.79,-0.91,-0.04,0.35,-0.02,0.01,1.01,
0.792,-0.91,-0.04,0.35,-0.02,0.01,1.01,
0.794,-0.91,-0.04,0.35,-0.02,0.01,1.01,
0.795,-0.90,-0.00,0.34,-0.02,0.01,1.01,
0.796,-0.90,-0.00,0.34,-0.02,0.02,1.01,
0.799,-0.90,-0.00,0.34,-0.02,0.02,1.01,
0.799,-0.90,0.03,0.35,-0.02,0.02,1.01,
0.801,-0.90,0.03,0.35,-0.03,0.02,1.01,
0.804,-0.90,0.03,0.35,-0.03,0.02,1.01,
0.804,-0.92,0.08,0.33,-0.03,0.02,1.01,
0.806,-0.92,0.08,0.33,-0.03,0.02,1.01,
0.809,-0.92,0.08,0.33,-0.03,0.02,1.00,
0.81,-0.95,0.11,0.32,-0.03,0.02,1.00,
0.811,-0.95,0.11,0.32,-0.03,0.02,1.00,
0.814,-0.95,0.11,0.32,-0.03,0.02,1.00,
0.814,-0.96,0.13,0.31,-0.03,0.02,1.00,
0.816,-0.96,0.13,0.31,-0.03,0.02,1.00,
0.819,-0.96,0.13,0.31,-0.04,0.02,1.00,
0.819,-1.00,0.12,0.29,-0.04,0.02,1.00,
0.821,-1.00,0.12,0.29,-0.04,0.02,1.00,
0.824,-1.00,0.12,0.29,-0.04,0.01,1.00,
0.824,-1.03,0.12,0.30,-0.04,0.01,1.00,
0.826,-1.03,0.12,0.30,-0.04,0.01,1.01,
0.829,-1.03,0.12,0.30,-0.04,0.01,1.01,
0.829,-1.07,0.11,0.30,-0.04,0.01,1.01,
0.831,-1.07,0.11,0.30,-0.05,0.01,1.01,
0.833,-1.07,0.11,0.30,-0.05,0.00,1.01,
0.834,-1.11,0.09,0.31,-0.05,0.00,1.01,
0.836,-1.11,0.09,0.31,-0.05,0.00,1.01,
0.838,-1.11,0.09,0.31,-0.05,0.00,1.01,
0.838,-1.15,0.04,0.34,-0.05,0.00,1.01,
0.841,-1.15,0.04,0.34,-0.06,0.00,1.02,
0.844,-1.15,0.04,0.34,-0.06,-0.00,1.02,
0.844,-1.18,-0.00,0.38,-0.06,-0.00,1.02,
0.846,-1.18,-0.00,0.38,-0.06,-0.00,1.02,
0.848,-1.18,-0.00,0.38,-0.06,-0.01,1.02,
0.849,-1.22,-0.01,0.41,-0.06,-0.01,1.02,
0.85,-1.22,-0.01,0.41,-0.06,-0.01,1.02,
0.853,-1.22,-0.01,0.41,-0.06,-0.01,1.02,
0.853,-1.24,-0.04,0.44,-0.06,-0.01,1.02,
0.855,-1.24,-0.04,0.44,-0.07,-0.01,1.02,
0.858,-1.24,-0.04,0.44,-0.07,-0.01,1.02,
0.859,-1.25,-0.06,0.46,-0.07,-0.01,1.02,
0.861,-1.25,-0.06,0.46,-0.07,-0.01,1.03,
0.863,-1.25,-0.06,0.46,-0.07,-0.01,1.03,
0.863,-1.28,-0.09,0.47,-0.07,-0.01,1.03,
0.865,-1.28,-0.09,0.47,-0.07,-0.01,1.03,
0.868,-1.28,-0.09,0.47,-0.07,-0.01,1.03,
0.868,-1.32,-0.08,0.49,-0.07,-0.01,1.03,
0.87,-1.32,-0.08,0.49,-0.07,-0.01,1.03,
0.872,-1.32,-0.08,0.49,-0.08,-0.01,1.02,
0.873,-1.34,-0.09,0.48,-0.08,-0.01,1.02,
0.875,-1.34,-0.09,0.48,-0.08,-0.01,1.02,
0.883,-1.34,-0.09,0.48,-0.08,-0.01,1.02,
0.883,-1.33,-0.07,0.47,-0.08,-0.01,1.02,
0.884,-1.33,-0.07,0.47,-0.08,-0.01,1.02,
0.884,-1.33,-0.07,0.47,-0.08,-0.01,1.02,
0.884,-1.35,-0.06,0.43,-0.08,-0.01,1.02,
0.884,-1.35,-0.06,0.43,-0.09,-0.01,1.02,
0.887,-1.35,-0.06,0.43,-0.09,-0.01,1.01,
0.887,-1.39,-0.03,0.39,-0.09,-0.01,1.01,
0.89,-1.39,-0.03,0.39,-0.09,-0.01,1.01,
0.893,-1.39,-0.03,0.39,-0.09,-0.01,1.01,
0.893,-1.43,-0.01,0.36,-0.09,-0.01,1.01,
0.894,-1.43,-0.01,0.36,-0.09,-0.00,1.01,
0.897,-1.43,-0.01,0.36,-0.09,0.00,1.01,
0.899,-1.44,0.01,0.33,-0.09,0.00,1.01,
0.899,-1.44,0.01,0.33,-0.09,0.00,1.01,
0.902,-1.44,0.01,0.33,-0.09,0.01,1.01,
0.902,-1.43,0.09,0.30,-0.09,0.01,1.01,
0.904,-1.43,0.09,0.30,-0.09,0.01,1.01,
0.907,-1.43,0.09,0.30,-0.09,0.01,1.01,
0.907,-1.40,0.16,0.29,-0.09,0.01,1.01,
0.91,-1.40,0.16,0.29,-0.09,0.02,1.01,
0.912,-1.40,0.16,0.29,-0.09,0.02,1.01,
0.912,-1.40,0.22,0.27,-0.09,0.02,1.01,
0.914,-1.40,0.22,0.27,-0.09,0.02,1.01,
0.917,-1.36,0.29,0.27,-0.09,0.02,1.01,
0.917,-1.36,0.29,0.27,-0.09,0.02,1.01,
0.919,-1.36,0.29,0.27,-0.09,0.02,1.01,
0.921,-1.36,0.29,0.27,-0.08,0.02,1.01,
0.921,-1.34,0.33,0.30,-0.08,0.02,1.01,
0.924,-1.34,0.33,0.30,-0.08,0.02,1.01,
0.927,-1.34,0.33,0.30,-0.07,0.02,1.01,
0.927,-1.29,0.34,0.32,-0.07,0.02,1.01,
0.929,-1.29,0.34,0.32,-0.07,0.02,1.02,
0.931,-1.29,0.34,0.32,-0.07,0.02,1.02,
0.931,-1.20,0.33,0.33,-0.07,0.02,1.02,
0.933,-1.20,0.33,0.33,-0.07,0.02,1.02,
0.936,-1.20,0.33,0.33,-0.06,0.02,1.01,
0.936,-1.15,0.36,0.35,-0.06,0.02,1.01,
0.938,-1.15,0.36,0.35,-0.06,0.03,1.01,
0.941,-1.15,0.36,0.35,-0.06,0.03,1.01,
0.941,-1.08,0.39,0.34,-0.06,0.03,1.01,
0.953,-1.08,0.39,0.34,-0.05,0.03,1.01,
0.954,-1.08,0.39,0.34,-0.05,0.03,1.01,
0.954,-1.00,0.42,0.32,-0.05,0.03,1.01,
0.954,-1.00,0.42,0.32,-0.04,0.03,1.01,
0.955,-1.00,0.42,0.32,-0.04,0.04,1.01,
0.955,-0.91,0.46,0.30,-0.04,0.04,1.01,
0.955,-0.91,0.46,0.30,-0.04,0.04,1.01,
0.956,-0.91,0.46,0.30,-0.03,0.04,1.01,
0.956,-0.81,0.50,0.27,-0.03,0.04,1.01,
0.958,-0.81,0.50,0.27,-0.03,0.05,1.00,
0.965,-0.81,0.50,0.27,-0.03,0.05,1.00,
0.965,-0.75,0.58,0.24,-0.03,0.05,1.00,
0.966,-0.75,0.58,0.24,-0.02,0.05,0.99,
0.966,-0.75,0.58,0.24,-0.02,0.05,0.99,
0.966,-0.66,0.63,0.19,-0.02,0.05,0.99,
0.968,-0.66,0.63,0.19,-0.02,0.05,0.99,
0.971,-0.66,0.63,0.19,-0.02,0.05,0.98,
0.971,-0.62,0.67,0.10,-0.02,0.05,0.98,
0.973,-0.62,0.67,0.10,-0.02,0.05,0.98,
0.98,-0.62,0.67,0.10,-0.02,0.05,0.97,
0.981,-0.57,0.67,0.03,-0.02,0.05,0.97,
0.981,-0.57,0.67,0.03,-0.02,0.05,0.97,
0.981,-0.57,0.67,0.03,-0.02,0.05,0.97,
0.981,-0.54,0.66,-0.06,-0.02,0.05,0.97,
0.982,-0.54,0.66,-0.06,-0.02,0.05,0.96,
0.985,-0.54,0.66,-0.06,-0.02,0.05,0.96,
0.986,-0.53,0.64,-0.14,-0.02,0.05,0.96,
0.987,-0.53,0.64,-0.14,-0.02,0.05,0.96,
0.99,-0.53,0.64,-0.14,-0.03,0.05,0.95,
0.99,-0.54,0.65,-0.21,-0.03,0.05,0.95,
0.993,-0.54,0.65,-0.21,-0.03,0.05,0.95,
0.995,-0.54,0.65,-0.21,-0.03,0.05,0.95,
0.996,-0.58,0.62,-0.26,-0.03,0.05,0.95,
0.997,-0.58,0.62,-0.26,-0.04,0.05,0.95,
1.0,-0.58,0.62,-0.26,-0.04,0.04,0.95,
1.0,-0.63,0.62,-0.28,-0.04,0.04,0.95,
1.002,-0.63,0.62,-0.28,-0.04,0.04,0.95,
1.005,-0.63,0.62,-0.28,-0.04,0.04,0.95,
1.005,-0.66,0.59,-0.28,-0.04,0.04,0.95,
1.007,-0.66,0.59,-0.28,-0.04,0.04,0.95,
1.01,-0.66,0.59,-0.28,-0.05,0.05,0.96,
1.01,-0.69,0.59,-0.28,-0.05,0.05,0.96,
1.012,-0.69,0.59,-0.28,-0.05,0.04,0.96,
1.015,-0.69,0.59,-0.28,-0.05,0.04,0.97,
1.015,-0.74,0.62,-0.25,-0.05,0.04,0.97,
1.017,-0.74,0.62,-0.25,-0.05,0.04,0.97,
1.02,-0.74,0.62,-0.25,-0.05,0.04,0.97,
1.02,-0.77,0.62,-0.17,-0.05,0.04,0.97,
1.022,-0.77,0.62,-0.17,-0.05,0.04,0.98,
1.024,-0.77,0.62,-0.17,-0.05,0.04,0.99,
1.025,-0.78,0.64,-0.08,-0.05,0.04,0.99,
1.03,-0.78,0.64,-0.08,-0.05,0.05,0.99,
1.032,-0.78,0.64,-0.08,-0.05,0.05,1.00,
1.032,-0.78,0.63,0.06,-0.05,0.05,1.00,
1.032,-0.78,0.63,0.06,-0.05,0.05,1.00,
1.034,-0.78,0.63,0.06,-0.05,0.05,1.01,
1.034,-0.73,0.67,0.17,-0.05,0.05,1.01,
1.036,-0.73,0.67,0.17,-0.05,0.05,1.01,
1.039,-0.73,0.67,0.17,-0.05,0.05,1.02,
1.039,-0.72,0.72,0.27,-0.05,0.05,1.02,
1.042,-0.72,0.72,0.27,-0.05,0.05,1.02,
1.044,-0.72,0.72,0.27,-0.04,0.06,1.03,
1.045,-0.69,0.75,0.35,-0.04,0.06,1.03,
1.047,-0.69,0.75,0.35,-0.04,0.06,1.03,
1.049,-0.69,0.75,0.35,-0.04,0.06,1.03,
1.049,-0.65,0.79,0.43,-0.04,0.06,1.03,
1.051,-0.65,0.79,0.43,-0.03,0.06,1.03,
1.054,-0.65,0.79,0.43,-0.03,0.06,1.03,
1.054,-0.57,0.81,0.47,-0.03,0.06,1.03,
1.056,-0.57,0.81,0.47,-0.02,0.06,1.02,
1.059,-0.57,0.81,0.47,-0.02,0.06,1.02,
1.059,-0.47,0.81,0.44,-0.02,0.06,1.02,
1.062,-0.47,0.81,0.44,-0.01,0.06,1.02,
1.064,-0.47,0.81,0.44,-0.00,0.06,1.01,
1.064,-0.36,0.81,0.39,-0.00,0.06,1.01,
1.066,-0.36,0.81,0.39,0.00,0.06,1.00,
1.068,-0.36,0.81,0.39,0.01,0.07,1.00,
1.069,-0.23,0.84,0.31,0.01,0.07,1.00,
1.071,-0.23,0.84,0.31,0.01,0.07,0.99,
1.073,-0.23,0.84,0.31,0.01,0.07,0.98,
1.074,-0.13,0.88,0.18,0.01,0.07,0.98,
1.082,-0.13,0.88,0.18,0.01,0.07,0.98,
1.082,-0.13,0.88,0.18,0.01,0.07,0.97,
1.083,-0.06,0.90,0.05,0.01,0.07,0.97,
1.083,-0.06,0.90,0.05,0.01,0.08,0.96,
1.083,-0.06,0.90,0.05,0.01,0.08,0.95,
1.083,-0.02,0.95,-0.09,0.01,0.08,0.95,
1.086,-0.02,0.95,-0.09,0.01,0.08,0.95,
1.088,-0.02,0.95,-0.09,0.01,0.08,0.94,
1.088,-0.01,0.99,-0.24,0.01,0.08,0.94,
1.09,-0.01,0.99,-0.24,0.01,0.08,0.94,
1.094,-0.01,0.99,-0.24,0.01,0.08,0.93,
1.094,-0.03,1.03,-0.37,0.01,0.08,0.93,
1.095,-0.03,1.03,-0.37,0.01,0.09,0.93,
1.098,-0.03,1.03,-0.37,0.01,0.09,0.92,
1.098,-0.01,1.04,-0.46,0.01,0.09,0.92,
1.1,-0.01,1.04,-0.46,0.01,0.09,0.92,
1.102,-0.01,1.04,-0.46,0.01,0.09,0.92,
1.103,0.01,1.07,-0.54,0.01,0.09,0.92,
1.105,0.01,1.07,-0.54,0.01,0.09,0.92,
1.107,0.01,1.07,-0.54,0.01,0.09,0.92,
1.108,0.02,1.07,-0.58,0.01,0.09,0.92,
1.11,0.02,1.07,-0.58,0.01,0.09,0.92,
1.113,0.02,1.05,-0.60,0.01,0.09,0.92,
1.113,0.02,1.05,-0.60,0.01,0.09,0.92,
1.115,0.02,1.05,-0.60,0.01,0.09,0.92,
1.117,0.02,1.07,-0.57,0.01,0.09,0.92,
1.118,0.02,1.07,-0.57,0.01,0.09,0.92,
1.12,0.02,1.07,-0.57,0.01,0.08,0.93,
1.122,0.02,1.07,-0.57,0.01,0.08,0.93,
1.122,0.03,1.07,-0.54,0.01,0.08,0.93,
1.125,0.03,1.07,-0.54,0.01,0.08,0.93,
1.127,0.03,1.07,-0.54,0.01,0.08,0.94,
1.127,0.02,1.01,-0.49,0.01,0.08,0.94,
1.129,0.02,1.01,-0.49,0.01,0.08,0.94,
1.132,0.01,1.02,-0.43,0.01,0.08,0.94,
1.132,0.01,1.02,-0.43,0.01,0.07,0.94,
1.134,0.01,1.02,-0.43,0.01,0.07,0.95,
1.137,-0.00,0.98,-0.37,0.01,0.07,0.95,
1.137,-0.00,0.98,-0.37,0.01,0.07,0.95,
1.139,-0.00,0.98,-0.37,0.01,0.07,0.95,
1.143,-0.00,0.98,-0.37,0.01,0.06,0.96,
1.143,-0.02,0.95,-0.27,0.01,0.06,0.96,
1.145,-0.02,0.95,-0.27,0.00,0.06,0.96,
1.147,-0.02,0.95,-0.27,-0.00,0.06,0.96,
1.147,-0.02,0.88,-0.21,-0.00,0.06,0.96,
1.15,-0.02,0.88,-0.21,-0.00,0.06,0.97,
1.152,-0.02,0.88,-0.21,-0.01,0.06,0.97,
1.152,-0.07,0.85,-0.16,-0.01,0.06,0.97,
1.154,-0.07,0.85,-0.16,-0.01,0.06,0.98,
1.156,-0.07,0.85,-0.16,-0.01,0.05,0.98,
1.157,-0.13,0.86,-0.06,-0.01,0.05,0.98,
1.159,-0.13,0.86,-0.06,-0.01,0.05,0.99,
1.162,-0.17,0.82,0.06,-0.01,0.05,0.99,
1.163,-0.17,0.82,0.06,-0.02,0.05,0.99,
1.164,-0.17,0.82,0.06,-0.02,0.04,0.99,
1.167,-0.17,0.82,0.06,-0.02,0.04,1.00,
1.167,-0.21,0.78,0.11,-0.02,0.04,1.00,
1.169,-0.21,0.78,0.11,-0.03,0.04,1.00,
1.171,-0.21,0.78,0.11,-0.02,0.04,1.01,
1.172,-0.26,0.74,0.18,-0.02,0.04,1.01,
1.174,-0.26,0.74,0.18,-0.02,0.04,1.02,
1.182,-0.26,0.74,0.18,-0.03,0.04,1.02,
1.182,-0.28,0.74,0.30,-0.03,0.04,1.02,
1.182,-0.28,0.74,0.30,-0.02,0.04,1.03,
1.183,-0.28,0.74,0.30,-0.02,0.04,1.03,
1.183,-0.28,0.72,0.42,-0.02,0.04,1.03,
1.184,-0.28,0.72,0.42,-0.02,0.04,1.03,
1.186,-0.28,0.72,0.42,-0.02,0.04,1.04,
1.186,-0.26,0.78,0.50,-0.02,0.04,1.04,
1.188,-0.26,0.78,0.50,-0.02,0.04,1.04,
1.191,-0.26,0.78,0.50,-0.02,0.04,1.04,
1.191,-0.25,0.79,0.57,-0.02,0.04,1.04,
1.196,-0.25,0.79,0.57,-0.01,0.05,1.05,
1.196,-0.25,0.79,0.57,-0.01,0.05,1.05,
1.196,-0.20,0.83,0.63,-0.01,0.05,1.05,
1.198,-0.20,0.83,0.63,-0.00,0.05,1.05,
1.201,-0.20,0.83,0.63,-0.00,0.05,1.05,
1.201,-0.13,0.86,0.68,-0.00,0.05,1.05,
1.203,-0.13,0.86,0.68,0.00,0.05,1.05,
1.205,-0.13,0.86,0.68,0.01,0.04,1.06,
1.206,-0.05,0.87,0.71,0.01,0.04,1.06,
1.208,-0.05,0.87,0.71,0.01,0.04,1.06,
1.211,-0.05,0.87,0.71,0.02,0.04,1.06,
1.212,0.06,0.86,0.73,0.02,0.04,1.06,
1.213,0.06,0.86,0.73,0.02,0.04,1.05,
1.215,0.06,0.86,0.73,0.03,0.04,1.05,
1.216,0.15,0.82,0.73,0.03,0.04,1.05,
1.218,0.15,0.82,0.73,0.03,0.04,1.05,
1.22,0.15,0.82,0.73,0.03,0.04,1.05,
1.22,0.24,0.83,0.69,0.03,0.04,1.05,
1.222,0.24,0.83,0.69,0.03,0.04,1.05,
1.225,0.24,0.83,0.69,0.04,0.04,1.04,
1.225,0.32,0.82,0.64,0.04,0.04,1.04,
1.227,0.32,0.82,0.64,0.04,0.04,1.04,
1.23,0.32,0.82,0.64,0.04,0.04,1.04,
1.23,0.36,0.83,0.61,0.04,0.04,1.04,
1.232,0.36,0.83,0.61,0.04,0.04,1.03,
1.235,0.36,0.83,0.61,0.04,0.04,1.03,
1.235,0.41,0.84,0.55,0.04,0.04,1.03,
1.237,0.41,0.84,0.55,0.04,0.04,1.03,
1.24,0.41,0.84,0.55,0.04,0.04,1.03,
1.24,0.44,0.85,0.49,0.04,0.04,1.03,
1.243,0.44,0.85,0.49,0.04,0.05,1.02,
1.245,0.44,0.85,0.49,0.04,0.04,1.02,
1.245,0.45,0.85,0.42,0.04,0.04,1.02,
1.247,0.45,0.85,0.42,0.04,0.04,1.03,
1.25,0.45,0.85,0.42,0.05,0.04,1.02,
1.25,0.46,0.86,0.39,0.05,0.04,1.02,
1.252,0.46,0.86,0.39,0.05,0.04,1.02,
1.254,0.46,0.86,0.39,0.05,0.03,1.02,
1.255,0.48,0.83,0.39,0.05,0.03,1.02,
1.257,0.48,0.83,0.39,0.04,0.03,1.02,
1.26,0.48,0.83,0.39,0.04,0.03,1.02,
1.26,0.49,0.77,0.36,0.04,0.03,1.02,
1.262,0.49,0.77,0.36,0.04,0.03,1.03,
1.264,0.49,0.77,0.36,0.05,0.03,1.03,
1.265,0.47,0.72,0.36,0.05,0.03,1.03,
1.266,0.47,0.72,0.36,0.05,0.03,1.03,
1.269,0.47,0.72,0.36,0.05,0.03,1.03,
1.27,0.47,0.70,0.42,0.05,0.03,1.03,
1.272,0.47,0.70,0.42,0.05,0.03,1.03,
1.274,0.47,0.70,0.42,0.05,0.03,1.03,
1.274,0.47,0.69,0.46,0.05,0.03,1.03,
1.281,0.47,0.69,0.46,0.05,0.03,1.04,
1.282,0.47,0.69,0.46,0.05,0.03,1.04,
1.282,0.48,0.65,0.47,0.05,0.03,1.04,
1.282,0.48,0.65,0.47,0.05,0.03,1.04,
1.284,0.48,0.65,0.47,0.06,0.03,1.05,
1.284,0.50,0.65,0.51,0.06,0.03,1.05,
1.286,0.50,0.65,0.51,0.06,0.02,1.05,
1.289,0.50,0.65,0.51,0.06,0.03,1.05,
1.289,0.53,0.64,0.58,0.06,0.03,1.05,
1.294,0.53,0.64,0.58,0.06,0.03,1.05,
1.294,0.53,0.64,0.58,0.06,0.02,1.05,
1.294,0.56,0.61,0.60,0.06,0.02,1.05,
1.296,0.56,0.61,0.60,0.07,0.02,1.05,
1.298,0.56,0.61,0.60,0.07,0.02,1.05,
1.298,0.59,0.61,0.61,0.07,0.02,1.05,
1.301,0.59,0.61,0.61,0.07,0.02,1.05,
1.304,0.59,0.61,0.61,0.08,0.02,1.05,
1.304,0.64,0.60,0.61,0.08,0.02,1.05,
1.305,0.64,0.60,0.61,0.08,0.02,1.05,
1.308,0.64,0.60,0.61,0.08,0.02,1.05,
1.308,0.69,0.59,0.59,0.08,0.02,1.05,
1.31,0.69,0.59,0.59,0.08,0.02,1.05,
1.313,0.69,0.59,0.59,0.08,0.02,1.04,
1.314,0.74,0.56,0.56,0.08,0.02,1.04,
1.316,0.74,0.56,0.56,0.08,0.02,1.04,
1.318,0.74,0.56,0.56,0.08,0.02,1.04,
1.318,0.76,0.57,0.54,0.08,0.02,1.04,
1.321,0.76,0.57,0.54,0.08,0.02,1.04,
1.323,0.76,0.57,0.54,0.08,0.02,1.04,
1.323,0.77,0.56,0.51,0.08,0.02,1.04,
1.325,0.77,0.56,0.51,0.08,0.02,1.03,
1.328,0.77,0.56,0.51,0.08,0.02,1.03,
1.328,0.77,0.54,0.46,0.08,0.02,1.03,
1.33,0.77,0.54,0.46,0.08,0.02,1.02,
1.333,0.77,0.54,0.46,0.08,0.02,1.02,
1.333,0.78,0.54,0.40,0.08,0.02,1.02,
1.335,0.78,0.54,0.40,0.08,0.02,1.02,
1.338,0.78,0.54,0.40,0.09,0.02,1.01,
1.338,0.80,0.54,0.31,0.09,0.02,1.01,
1.34,0.80,0.54,0.31,0.09,0.03,1.01,
1.343,0.80,0.54,0.31,0.09,0.02,1.01,
1.343,0.82,0.55,0.24,0.09,0.02,1.01,
1.345,0.82,0.55,0.24,0.09,0.02,1.01,
1.348,0.82,0.55,0.24,0.10,0.02,1.00,
1.348,0.87,0.54,0.18,0.10,0.02,1.00,
1.35,0.87,0.54,0.18,0.10,0.02,1.00,
1.352,0.87,0.54,0.18,0.11,0.02,1.00,
1.353,0.92,0.50,0.12,0.11,0.02,1.00,
1.355,0.92,0.50,0.12,0.11,0.02,1.00,
1.359,0.92,0.50,0.12,0.11,0.02,1.00,
1.359,1.00,0.49,0.10,0.11,0.02,1.00,
1.36,1.00,0.49,0.10,0.12,0.02,1.00,
1.362,1.00,0.49,0.10,0.12,0.02,1.00,
1.363,1.08,0.47,0.09,0.12,0.02,1.00,
1.365,1.08,0.47,0.09,0.12,0.02,1.00,
1.367,1.08,0.47,0.09,0.12,0.02,0.99,
1.367,1.13,0.44,0.06,0.12,0.02,0.99,
1.369,1.13,0.44,0.06,0.12,0.02,1.00,
1.372,1.13,0.44,0.06,0.12,0.02,1.00,
1.372,1.15,0.43,0.02,0.12,0.02,1.00,
1.375,1.15,0.43,0.02,0.12,0.02,1.00,
1.377,1.15,0.43,0.02,0.13,0.02,1.00,
1.378,1.17,0.43,0.04,0.13,0.02,1.00,
1.38,1.17,0.43,0.04,0.12,0.01,1.00,
1.382,1.17,0.43,0.04,0.12,0.01,1.00,
1.382,1.17,0.42,0.03,0.12,0.01,1.00,
1.384,1.17,0.42,0.03,0.12,0.01,1.00,
1.387,1.17,0.42,0.03,0.12,0.01,1.00,
1.39,1.14,0.37,0.04,0.12,0.01,1.00,
1.391,1.14,0.37,0.04,0.12,0.01,1.00,
1.392,1.14,0.37,0.04,0.11,0.01,1.00,
1.393,1.10,0.36,0.06,0.11,0.01,1.00,
1.409,1.10,0.36,0.06,0.11,0.01,1.00,
1.409,1.10,0.36,0.06,0.11,0.01,1.00,
1.409,1.06,0.35,0.06,0.11,0.01,1.00,
1.41,1.06,0.35,0.06,0.11,0.01,1.00,
1.41,1.06,0.35,0.06,0.11,0.01,1.01,
1.41,0.99,0.31,0.08,0.11,0.01,1.01,
1.41,0.99,0.31,0.08,0.10,0.01,1.00,
1.41,0.95,0.29,0.11,0.10,0.01,1.00,
1.41,0.95,0.29,0.11,0.10,0.01,1.01,
1.41,0.95,0.29,0.11,0.10,0.01,1.00,
1.411,0.95,0.29,0.11,0.10,0.00,1.00,
1.411,0.90,0.28,0.11,0.10,0.00,1.00,
1.413,0.90,0.28,0.11,0.10,0.00,1.00,
1.416,0.90,0.28,0.11,0.09,0.00,1.00,
1.416,0.86,0.24,0.09,0.09,0.00,1.00,
1.419,0.86,0.24,0.09,0.09,0.00,1.00,
1.421,0.86,0.24,0.09,0.09,0.00,1.00,
1.421,0.82,0.21,0.08,0.09,0.00,1.00,
1.423,0.82,0.21,0.08,0.09,0.00,1.00,
1.426,0.82,0.21,0.08,0.09,0.00,1.00,
1.426,0.79,0.20,0.06,0.09,0.00,1.00,
1.428,0.79,0.20,0.06,0.08,0.00,1.00,
1.431,0.79,0.20,0.06,0.08,0.00,0.99,
1.431,0.74,0.21,0.05,0.08,0.00,0.99,
1.433,0.74,0.21,0.05,0.08,-0.00,0.99,
1.436,0.74,0.21,0.05,0.08,-0.00,0.99,
1.436,0.69,0.19,0.03,0.08,-0.00,0.99,
1.438,0.69,0.19,0.03,0.08,-0.00,0.99,
1.441,0.69,0.19,0.03,0.07,-0.00,0.99,
1.441,0.65,0.14,-0.01,0.07,-0.00,0.99,
1.443,0.65,0.14,-0.01,0.07,-0.01,0.99,
1.446,0.61,0.11,-0.04,0.07,-0.01,0.99,
1.446,0.61,0.11,-0.04,0.07,-0.01,0.98,
1.448,0.61,0.11,-0.04,0.07,-0.01,0.98,
1.45,0.61,0.11,-0.04,0.07,-0.01,0.98,
1.45,0.58,0.08,-0.07,0.07,-0.01,0.98,
1.452,0.58,0.08,-0.07,0.07,-0.01,0.98,
1.455,0.58,0.08,-0.07,0.07,-0.01,0.98,
1.455,0.58,0.07,-0.09,0.07,-0.01,0.98,
1.458,0.58,0.07,-0.09,0.07,-0.01,0.98,
1.461,0.58,0.07,-0.09,0.07,-0.01,0.98,
1.461,0.57,0.06,-0.12,0.07,-0.01,0.98,
1.462,0.57,0.06,-0.12,0.07,-0.01,0.98,
1.465,0.57,0.06,-0.12,0.07,-0.01,0.98,
1.465,0.56,0.05,-0.13,0.07,-0.01,0.98,
1.467,0.56,0.05,-0.13,0.07,-0.01,0.98,
1.47,0.56,0.05,-0.13,0.07,-0.01,0.98,
1.47,0.56,0.04,-0.16,0.07,-0.01,0.98,
1.472,0.56,0.04,-0.16,0.07,-0.01,0.98,
1.48,0.56,0.04,-0.16,0.08,-0.00,0.98,
1.48,0.57,0.03,-0.17,0.08,-0.00,0.98,
1.48,0.57,0.03,-0.17,0.08,-0.00,0.98,
1.48,0.57,0.03,-0.17,0.08,-0.00,0.98,
1.481,0.64,0.06,-0.14,0.08,-0.00,0.98,
1.482,0.64,0.06,-0.14,0.08,0.00,0.98,
1.485,0.64,0.06,-0.14,0.08,0.01,0.98,
1.485,0.67,0.10,-0.14,0.08,0.01,0.98,
1.487,0.67,0.10,-0.14,0.08,0.01,0.98,
1.49,0.67,0.10,-0.14,0.09,0.01,0.99,
1.49,0.69,0.15,-0.13,0.09,0.01,0.99,
1.492,0.69,0.15,-0.13,0.09,0.01,0.99,
1.494,0.69,0.15,-0.13,0.09,0.01,0.99,
1.495,0.73,0.20,-0.07,0.09,0.01,0.99,
1.497,0.73,0.20,-0.07,0.09,0.01,0.99,
1.499,0.73,0.20,-0.07,0.09,0.01,0.99,
1.499,0.73,0.19,-0.04,0.09,0.01,0.99,
1.501,0.73,0.19,-0.04,0.09,0.01,0.99,
1.504,0.73,0.19,-0.04,0.09,0.01,0.99,
1.504,0.73,0.17,-0.01,0.09,0.01,0.99,
1.506,0.73,0.17,-0.01,0.09,0.01,0.99,
1.509,0.73,0.17,-0.01,0.09,0.01,0.99,
1.51,0.75,0.15,0.00,0.09,0.01,0.99,
1.512,0.75,0.15,0.00,0.09,0.01,1.00,
1.514,0.75,0.15,0.00,0.09,0.00,1.00,
1.514,0.73,0.14,0.01,0.09,0.00,1.00,
1.516,0.73,0.14,0.01,0.08,0.00,1.00,
1.519,0.73,0.14,0.01,0.09,0.00,1.00,
1.519,0.71,0.11,0.03,0.09,0.00,1.00,
1.521,0.71,0.11,0.03,0.09,0.00,1.00,
1.524,0.71,0.11,0.03,0.08,0.00,0.99,
1.524,0.70,0.08,0.04,0.08,0.00,0.99,
1.526,0.70,0.08,0.04,0.08,0.00,0.99,
1.529,0.70,0.08,0.04,0.08,0.00,0.99,
1.529,0.69,0.06,0.03,0.08,0.00,0.99,
1.531,0.69,0.06,0.03,0.08,0.00,0.99,
1.534,0.69,0.06,0.03,0.07,0.00,0.99,
1.534,0.65,0.04,0.01,0.07,0.00,0.99,
1.536,0.65,0.04,0.01,0.07,0.00,0.99,
1.539,0.65,0.04,0.01,0.07,0.00,0.99,
1.539,0.61,0.03,-0.02,0.07,0.00,0.99,
1.541,0.61,0.03,-0.02,0.07,0.00,0.98,
1.544,0.61,0.03,-0.02,0.06,0.00,0.98,
1.544,0.58,0.02,-0.04,0.06,0.00,0.98,
1.546,0.58,0.02,-0.04,0.06,0.00,0.98,
1.548,0.58,0.02,-0.04,0.06,0.00,0.98,
1.548,0.53,0.00,-0.09,0.06,0.00,0.98,
1.551,0.53,0.00,-0.09,0.06,0.00,0.97,
1.553,0.53,0.00,-0.09,0.05,0.00,0.97,
1.553,0.48,0.01,-0.13,0.05,0.00,0.97,
1.556,0.48,0.01,-0.13,0.05,0.01,0.97,
1.558,0.48,0.01,-0.13,0.05,0.01,0.97,
1.559,0.41,0.00,-0.19,0.05,0.01,0.97,
1.561,0.41,0.00,-0.19,0.04,0.00,0.97,
1.563,0.41,0.00,-0.19,0.04,0.00,0.96,
1.563,0.36,0.02,-0.23,0.04,0.00,0.96,
1.565,0.36,0.02,-0.23,0.04,0.01,0.96,
1.568,0.36,0.02,-0.23,0.04,0.00,0.96,
1.568,0.31,-0.01,-0.27,0.04,0.00,0.96,
1.57,0.31,-0.01,-0.27,0.04,0.00,0.96,
1.573,0.31,-0.01,-0.27,0.04,0.00,0.96,
1.573,0.29,-0.02,-0.30,0.04,0.00,0.96,
1.579,0.29,-0.02,-0.30,0.04,0.01,0.96,
1.58,0.29,-0.02,-0.30,0.04,0.01,0.96,
1.58,0.27,-0.03,-0.33,0.04,0.01,0.96,
1.58,0.27,-0.03,-0.33,0.04,0.01,0.95,
1.583,0.27,-0.03,-0.33,0.04,0.01,0.96,
1.583,0.26,-0.03,-0.33,0.04,0.01,0.96,
1.585,0.26,-0.03,-0.33,0.04,0.01,0.96,
1.587,0.26,-0.03,-0.33,0.03,0.01,0.96,
1.587,0.26,-0.03,-0.35,0.03,0.01,0.96,
1.59,0.26,-0.03,-0.35,0.04,0.01,0.96,
1.592,0.26,-0.03,-0.35,0.04,0.01,0.96,
1.593,0.27,-0.04,-0.33,0.04,0.01,0.96,
1.595,0.27,-0.04,-0.33,0.03,0.00,0.96,
1.597,0.27,-0.04,-0.33,0.03,0.00,0.96,
1.597,0.27,-0.05,-0.30,0.03,0.00,0.96,
1.599,0.27,-0.05,-0.30,0.03,0.00,0.96,
1.602,0.27,-0.05,-0.30,0.04,0.00,0.97,
1.602,0.26,-0.08,-0.28,0.04,0.00,0.97,
1.604,0.26,-0.08,-0.28,0.04,-0.00,0.97,
1.607,0.26,-0.08,-0.28,0.03,-0.00,0.97,
1.608,0.28,-0.11,-0.24,0.03,-0.00,0.97,
1.609,0.28,-0.11,-0.24,0.03,-0.00,0.97,
1.612,0.28,-0.11,-0.24,0.04,-0.01,0.97,
1.612,0.28,-0.15,-0.21,0.04,-0.01,0.97,
1.614,0.28,-0.15,-0.21,0.04,-0.01,0.97,
1.617,0.28,-0.15,-0.21,0.03,-0.01,0.98,
1.617,0.28,-0.19,-0.19,0.03,-0.01,0.98,
1.619,0.28,-0.19,-0.19,0.04,-0.01,0.98,
1.622,0.28,-0.19,-0.19,0.04,-0.01,0.98,
1.622,0.29,-0.23,-0.14,0.04,-0.01,0.98,
1.624,0.29,-0.23,-0.14,0.04,-0.01,0.98,
1.626,0.29,-0.23,-0.14,0.04,-0.01,0.99,
1.627,0.30,-0.23,-0.09,0.04,-0.01,0.99,
1.629,0.30,-0.23,-0.09,0.04,-0.01,0.99,
1.631,0.30,-0.23,-0.09,0.04,-0.01,0.99,
1.631,0.34,-0.25,-0.04,0.04,-0.01,0.99,
1.634,0.34,-0.25,-0.04,0.05,-0.00,0.99,
1.636,0.34,-0.25,-0.04,0.05,-0.00,1.00,
1.636,0.36,-0.24,0.01,0.05,-0.00,1.00,
1.639,0.36,-0.24,0.01,0.05,-0.00,1.00,
1.642,0.36,-0.24,0.01,0.06,0.00,1.00,
1.642,0.40,-0.21,0.06,0.06,0.00,1.00,
1.644,0.40,-0.21,0.06,0.06,0.00,1.00,
1.646,0.40,-0.21,0.06,0.07,0.01,1.00,
1.646,0.47,-0.20,0.09,0.07,0.01,1.00,
1.648,0.47,-0.20,0.09,0.07,0.01,1.00,
1.651,0.47,-0.20,0.09,0.07,0.01,1.00,
1.651,0.56,-0.16,0.12,0.07,0.01,1.00,
1.654,0.56,-0.16,0.12,0.08,0.01,1.00,
1.658,0.56,-0.16,0.12,0.08,0.02,1.00,
1.658,0.62,-0.14,0.13,0.08,0.02,1.00,
1.659,0.62,-0.14,0.13,0.09,0.02,0.99,
1.662,0.62,-0.14,0.13,0.09,0.02,0.99,
1.662,0.68,-0.10,0.08,0.09,0.02,0.99,
1.664,0.68,-0.10,0.08,0.09,0.03,0.99,
1.666,0.68,-0.10,0.08,0.09,0.03,0.99,
1.666,0.73,-0.05,0.04,0.09,0.03,0.99,
1.668,0.73,-0.05,0.04,0.09,0.03,0.98,
1.671,0.73,-0.05,0.04,0.09,0.04,0.98,
1.671,0.73,0.01,-0.01,0.09,0.04,0.98,
1.674,0.73,0.01,-0.01,0.09,0.04,0.97,
1.676,0.73,0.01,-0.01,0.09,0.04,0.97,
1.677,0.75,0.05,-0.09,0.09,0.04,0.97,
1.678,0.75,0.05,-0.09,0.08,0.04,0.97,
1.681,0.75,0.05,-0.09,0.08,0.05,0.96,
1.681,0.74,0.08,-0.18,0.08,0.05,0.96,
1.683,0.74,0.08,-0.18,0.08,0.05,0.96,
1.685,0.74,0.08,-0.18,0.08,0.05,0.95,
1.686,0.71,0.11,-0.25,0.08,0.05,0.95,
1.688,0.71,0.11,-0.25,0.07,0.05,0.95,
1.696,0.71,0.11,-0.25,0.07,0.04,0.95,
1.696,0.65,0.10,-0.31,0.07,0.04,0.95,
1.697,0.65,0.10,-0.31,0.07,0.04,0.94,
1.697,0.65,0.10,-0.31,0.07,0.04,0.94,
1.697,0.61,0.06,-0.39,0.07,0.04,0.94,
1.698,0.61,0.06,-0.39,0.07,0.04,0.93,
1.7,0.61,0.06,-0.39,0.07,0.04,0.93,
1.7,0.61,0.01,-0.49,0.07,0.04,0.93,
1.702,0.61,0.01,-0.49,0.07,0.03,0.93,
1.705,0.61,0.01,-0.49,0.07,0.03,0.93,
1.705,0.58,-0.05,-0.54,0.07,0.03,0.93,
1.707,0.58,-0.05,-0.54,0.06,0.03,0.93,
1.71,0.58,-0.05,-0.54,0.06,0.03,0.92,
1.71,0.55,-0.08,-0.58,0.06,0.03,0.92,
1.712,0.55,-0.08,-0.58,0.06,0.03,0.93,
1.715,0.55,-0.08,-0.58,0.06,0.03,0.93,
1.715,0.49,-0.14,-0.60,0.06,0.03,0.93,
1.717,0.49,-0.14,-0.60,0.06,0.03,0.93,
1.72,0.49,-0.14,-0.60,0.06,0.03,0.93,
1.72,0.47,-0.16,-0.58,0.06,0.03,0.93,
1.722,0.47,-0.16,-0.58,0.06,0.03,0.93,
1.725,0.47,-0.16,-0.58,0.06,0.03,0.94,
1.725,0.47,-0.17,-0.55,0.06,0.03,0.94,
1.727,0.47,-0.17,-0.55,0.06,0.03,0.94,
1.73,0.47,-0.17,-0.55,0.07,0.03,0.94,
1.73,0.47,-0.17,-0.47,0.07,0.03,0.94,
1.732,0.47,-0.17,-0.47,0.07,0.03,0.94,
1.734,0.47,-0.17,-0.47,0.08,0.03,0.95,
1.734,0.50,-0.18,-0.44,0.08,0.03,0.95,
1.737,0.50,-0.18,-0.44,0.08,0.03,0.95,
1.74,0.50,-0.18,-0.44,0.08,0.03,0.96,
1.74,0.57,-0.17,-0.38,0.08,0.03,0.96,
1.742,0.57,-0.17,-0.38,0.08,0.03,0.96,
1.744,0.57,-0.17,-0.38,0.09,0.03,0.96,
1.744,0.61,-0.17,-0.29,0.09,0.03,0.96,
1.746,0.61,-0.17,-0.29,0.09,0.03,0.97,
1.749,0.61,-0.17,-0.29,0.09,0.04,0.97,
1.75,0.65,-0.17,-0.22,0.09,0.04,0.97,
1.751,0.65,-0.17,-0.22,0.09,0.04,0.98,
1.754,0.65,-0.17,-0.22,0.10,0.04,0.98,
1.754,0.70,-0.16,-0.13,0.10,0.04,0.98,
1.757,0.70,-0.16,-0.13,0.10,0.04,0.98,
1.759,0.70,-0.16,-0.13,0.10,0.04,0.99,
1.759,0.76,-0.15,-0.05,0.10,0.04,0.99,
1.762,0.76,-0.15,-0.05,0.10,0.04,0.99,
1.764,0.76,-0.15,-0.05,0.10,0.04,0.99,
1.764,0.79,-0.14,0.02,0.10,0.04,0.99,
1.766,0.79,-0.14,0.02,0.10,0.04,0.99,
1.769,0.79,-0.14,0.02,0.10,0.04,0.99,
1.769,0.78,-0.13,0.10,0.10,0.04,0.99,
1.771,0.78,-0.13,0.10,0.10,0.03,1.00,
1.774,0.78,-0.13,0.10,0.09,0.03,1.00,
1.774,0.75,-0.16,0.11,0.09,0.03,1.00,
1.776,0.75,-0.16,0.11,0.09,0.03,1.00,
1.778,0.75,-0.16,0.11,0.09,0.03,1.00,
1.779,0.70,-0.21,0.12,0.09,0.03,1.00,
1.781,0.70,-0.21,0.12,0.08,0.02,1.00,
1.783,0.70,-0.21,0.12,0.08,0.02,1.00,
1.784,0.63,-0.26,0.14,0.08,0.02,1.00,
1.786,0.63,-0.26,0.14,0.08,0.02,1.00,
1.788,0.63,-0.26,0.14,0.07,0.02,1.00,
1.789,0.58,-0.30,0.15,0.07,0.02,1.00,
1.796,0.58,-0.30,0.15,0.07,0.02,1.00,
1.796,0.58,-0.30,0.15,0.06,0.02,1.00,
1.797,0.51,-0.34,0.18,0.06,0.02,1.00,
1.797,0.51,-0.34,0.18,0.06,0.02,1.00,
1.798,0.51,-0.34,0.18,0.06,0.01,1.00,
1.798,0.42,-0.37,0.19,0.06,0.01,1.00,
1.801,0.42,-0.37,0.19,0.06,0.01,1.00,
1.803,0.42,-0.37,0.19,0.06,0.01,1.00,
1.803,0.36,-0.40,0.18,0.06,0.01,1.00,
1.805,0.36,-0.40,0.18,0.06,0.01,0.99,
1.808,0.36,-0.40,0.18,0.06,0.01,0.99,
1.808,0.36,-0.43,0.14,0.06,0.01,0.99,
1.81,0.36,-0.43,0.14,0.06,0.01,0.99,
1.813,0.36,-0.43,0.14,0.06,0.01,0.98,
1.813,0.34,-0.47,0.09,0.06,0.01,0.98,
1.815,0.34,-0.47,0.09,0.07,0.01,0.98,
1.818,0.34,-0.47,0.09,0.07,0.01,0.98,
1.818,0.38,-0.51,0.03,0.07,0.01,0.98,
1.82,0.38,-0.51,0.03,0.07,0.01,0.98,
1.823,0.38,-0.51,0.03,0.07,0.01,0.97,
1.823,0.41,-0.52,-0.02,0.07,0.01,0.97,
1.825,0.41,-0.52,-0.02,0.07,0.01,0.97,
1.827,0.41,-0.52,-0.02,0.07,0.01,0.97,
1.828,0.47,-0.54,-0.08,0.07,0.01,0.97,
1.83,0.47,-0.54,-0.08,0.08,0.01,0.97,
1.832,0.47,-0.54,-0.08,0.08,0.01,0.96,
1.832,0.49,-0.55,-0.16,0.08,0.01,0.96,
1.835,0.49,-0.55,-0.16,0.08,0.01,0.96,
1.837,0.49,-0.55,-0.16,0.08,0.02,0.96,
1.837,0.52,-0.52,-0.17,0.08,0.02,0.96,
1.84,0.52,-0.52,-0.17,0.08,0.02,0.96,
1.843,0.52,-0.52,-0.17,0.08,0.02,0.95,
1.843,0.55,-0.48,-0.20,0.08,0.02,0.95,
1.845,0.55,-0.48,-0.20,0.08,0.02,0.95,
1.847,0.55,-0.48,-0.20,0.09,0.02,0.95,
1.847,0.58,-0.47,-0.25,0.09,0.02,0.95,
1.849,0.58,-0.47,-0.25,0.09,0.02,0.95,
1.852,0.58,-0.47,-0.25,0.09,0.02,0.95,
1.852,0.59,-0.44,-0.29,0.09,0.02,0.95,
1.854,0.59,-0.44,-0.29,0.09,0.03,0.95,
1.857,0.59,-0.44,-0.29,0.09,0.03,0.95,
1.857,0.59,-0.41,-0.31,0.09,0.03,0.95,
1.859,0.59,-0.41,-0.31,0.09,0.03,0.95,
1.862,0.59,-0.41,-0.31,0.09,0.03,0.95,
1.862,0.59,-0.39,-0.30,0.09,0.03,0.95,
1.864,0.59,-0.39,-0.30,0.09,0.03,0.96,
1.867,0.59,-0.39,-0.30,0.08,0.02,0.96,
1.867,0.59,-0.40,-0.27,0.08,0.02,0.96,
1.869,0.59,-0.40,-0.27,0.08,0.02,0.96,
1.871,0.59,-0.40,-0.27,0.08,0.02,0.97,
1.872,0.55,-0.41,-0.22,0.08,0.02,0.97,
1.879,0.55,-0.41,-0.22,0.08,0.02,0.97,
1.879,0.55,-0.41,-0.22,0.08,0.02,0.97,
1.882,0.50,-0.45,-0.15,0.08,0.02,0.97,
1.882,0.50,-0.45,-0.15,0.07,0.02,0.98,
1.882,0.50,-0.45,-0.15,0.07,0.01,0.98,
1.882,0.45,-0.47,-0.07,0.07,0.01,0.98,
1.884,0.45,-0.47,-0.07,0.07,0.01,0.98,
1.886,0.45,-0.47,-0.07,0.07,0.01,0.99,
1.887,0.40,-0.51,-0.02,0.07,0.01,0.99,
1.891,0.40,-0.51,-0.02,0.07,0.00,0.99,
1.891,0.40,-0.51,-0.02,0.06,0.00,0.99,
1.891,0.34,-0.57,0.05,0.06,0.00,0.99,
1.893,0.34,-0.57,0.05,0.06,0.00,0.99,
1.896,0.34,-0.57,0.05,0.06,0.00,0.99,
1.896,0.30,-0.61,0.09,0.06,0.00,0.99,
1.898,0.30,-0.61,0.09,0.06,-0.00,1.00,
1.901,0.30,-0.61,0.09,0.06,-0.00,0.99,
1.901,0.25,-0.63,0.12,0.06,-0.00,0.99,
1.903,0.25,-0.63,0.12,0.06,-0.00,1.00,
1.906,0.25,-0.63,0.12,0.05,0.00,1.00,
1.906,0.23,-0.66,0.14,0.05,0.00,1.00,
1.908,0.23,-0.66,0.14,0.05,0.00,1.00,
1.911,0.23,-0.66,0.14,0.05,0.00,1.00,
1.911,0.20,-0.64,0.15,0.05,0.00,1.00,
1.913,0.20,-0.64,0.15,0.05,0.01,1.00,
1.916,0.20,-0.64,0.15,0.05,0.01,1.00,
1.916,0.18,-0.61,0.17,0.05,0.01,1.00,
1.918,0.18,-0.61,0.17,0.06,0.01,1.00,
1.921,0.18,-0.61,0.17,0.05,0.01,0.99,
1.921,0.19,-0.57,0.15,0.05,0.01,0.99,
1.923,0.19,-0.57,0.15,0.05,0.01,0.99,
1.925,0.19,-0.57,0.15,0.05,0.01,0.99,
1.928,0.19,-0.57,0.15,0.05,0.01,0.98,
1.928,0.22,-0.55,0.13,0.05,0.01,0.98,
1.93,0.22,-0.55,0.13,0.06,0.02,0.98,
1.93,0.21,-0.53,0.08,0.06,0.02,0.98,
1.933,0.21,-0.53,0.08,0.06,0.02,0.98,
1.935,0.21,-0.53,0.08,0.06,0.02,0.98,
1.935,0.23,-0.51,0.03,0.06,0.02,0.98,
1.938,0.23,-0.51,0.03,0.06,0.01,0.98,
1.94,0.23,-0.51,0.03,0.06,0.02,0.97,
1.94,0.24,-0.49,0.01,0.06,0.02,0.97,
1.942,0.24,-0.49,0.01,0.06,0.02,0.97,
1.945,0.24,-0.49,0.01,0.06,0.02,0.97,
1.945,0.25,-0.49,-0.05,0.06,0.02,0.97,
1.947,0.25,-0.49,-0.05,0.06,0.02,0.97,
1.95,0.25,-0.49,-0.05,0.06,0.02,0.96,
1.95,0.26,-0.47,-0.10,0.06,0.02,0.96,
1.952,0.26,-0.47,-0.10,0.05,0.02,0.96,
1.956,0.26,-0.47,-0.10,0.05,0.02,0.96,
1.956,0.23,-0.46,-0.14,0.05,0.02,0.96,
1.957,0.23,-0.46,-0.14,0.05,0.02,0.96,
1.96,0.23,-0.46,-0.14,0.04,0.02,0.96,
1.96,0.17,-0.44,-0.17,0.04,0.02,0.96,
1.962,0.17,-0.44,-0.17,0.04,0.02,0.96,
1.965,0.17,-0.44,-0.17,0.04,0.02,0.96,
1.965,0.10,-0.44,-0.19,0.04,0.02,0.96,
1.967,0.10,-0.44,-0.19,0.04,0.02,0.96,
1.97,0.10,-0.44,-0.19,0.04,0.02,0.96,
1.97,0.04,-0.44,-0.22,0.04,0.02,0.96,
1.972,0.04,-0.44,-0.22,0.04,0.03,0.96,
1.975,0.04,-0.44,-0.22,0.04,0.03,0.96,
1.975,0.02,-0.45,-0.20,0.04,0.03,0.96,
1.977,0.02,-0.45,-0.20,0.04,0.03,0.96,
1.98,-0.01,-0.41,-0.17,0.04,0.03,0.96,
1.98,-0.01,-0.41,-0.17,0.04,0.03,0.96,
1.982,-0.01,-0.41,-0.17,0.04,0.03,0.97,
1.984,-0.01,-0.41,-0.17,0.04,0.03,0.97,
1.985,-0.02,-0.40,-0.16,0.04,0.03,0.97,
1.987,-0.02,-0.40,-0.16,0.04,0.03,0.97,
1.994,-0.02,-0.40,-0.16,0.04,0.03,0.97,
1.995,-0.02,-0.40,-0.11,0.04,0.03,0.97,
1.995,-0.02,-0.40,-0.11,0.04,0.03,0.98,
1.995,-0.02,-0.40,-0.11,0.04,0.03,0.98,
1.995,0.03,-0.41,-0.08,0.04,0.03,0.98,
1.996,0.03,-0.41,-0.08,0.05,0.03,0.98,
1.999,0.03,-0.41,-0.08,0.05,0.03,0.98,
1.999,0.03,-0.40,-0.02,0.05,0.03,0.98,
2.001,0.03,-0.40,-0.02,0.06,0.03,0.98,
2.004,0.03,-0.40,-0.02,0.06,0.03,0.98,
2.004,0.10,-0.40,-0.00,0.06,0.03,0.98,
2.006,0.10,-0.40,-0.00,0.05,0.03,0.98,
2.008,0.10,-0.40,-0.00,0.06,0.03,0.98,
2.009,0.14,-0.40,0.01,0.06,0.03,0.98,
2.011,0.14,-0.40,0.01,0.05,0.03,0.98,
2.013,0.14,-0.40,0.01,0.06,0.03,0.98,
2.013,0.12,-0.41,0.03,0.06,0.03,0.98,
2.016,0.12,-0.41,0.03,0.06,0.03,0.98,
2.018,0.12,-0.41,0.03,0.06,0.03,0.98,
2.018,0.11,-0.40,0.03,0.06,0.03,0.98,
2.021,0.11,-0.40,0.03,0.06,0.03,0.98,
2.023,0.11,-0.40,0.03,0.05,0.02,0.98,
2.024,0.12,-0.43,0.00,0.05,0.02,0.98,
2.026,0.12,-0.43,0.00,0.05,0.02,0.97,
2.028,0.12,-0.43,0.00,0.05,0.02,0.97,
2.028,0.11,-0.46,-0.02,0.05,0.02,0.97,
2.03,0.11,-0.46,-0.02,0.05,0.02,0.97,
2.033,0.11,-0.46,-0.02,0.05,0.02,0.97,
2.033,0.08,-0.48,-0.06,0.05,0.02,0.97,
2.035,0.08,-0.48,-0.06,0.04,0.02,0.97,
2.038,0.08,-0.48,-0.06,0.04,0.02,0.96,
2.039,0.02,-0.50,-0.10,0.04,0.02,0.96,
2.04,0.02,-0.50,-0.10,0.03,0.02,0.96,
2.043,0.02,-0.50,-0.10,0.03,0.02,0.96,
2.043,-0.04,-0.50,-0.13,0.03,0.02,0.96,
2.045,-0.04,-0.50,-0.13,0.03,0.02,0.96,
2.048,-0.04,-0.50,-0.13,0.02,0.02,0.96,
2.048,-0.13,-0.50,-0.16,0.02,0.02,0.96,
2.05,-0.13,-0.50,-0.16,0.02,0.02,0.96,
2.053,-0.13,-0.50,-0.16,0.02,0.01,0.96,
2.053,-0.19,-0.53,-0.14,0.02,0.01,0.96,
2.056,-0.19,-0.53,-0.14,0.02,0.01,0.96,
2.058,-0.19,-0.53,-0.14,0.02,0.01,0.97,
2.058,-0.24,-0.54,-0.12,0.02,0.01,0.97,
2.06,-0.24,-0.54,-0.12,0.02,0.01,0.97,
2.062,-0.24,-0.54,-0.12,0.02,0.01,0.97,
2.063,-0.29,-0.56,-0.13,0.02,0.01,0.97,
2.065,-0.29,-0.56,-0.13,0.02,0.01,0.97,
2.067,-0.29,-0.56,-0.13,0.02,0.01,0.97,
2.068,-0.30,-0.56,-0.09,0.02,0.01,0.97,
2.07,-0.30,-0.56,-0.09,0.02,0.01,0.98,
2.073,-0.30,-0.56,-0.09,0.02,0.01,0.98,
2.074,-0.31,-0.56,-0.05,0.02,0.01,0.98,
2.075,-0.31,-0.56,-0.05,0.02,0.01,0.98,
2.077,-0.31,-0.56,-0.05,0.02,0.01,0.98,
2.077,-0.30,-0.56,0.01,0.02,0.01,0.98,
2.079,-0.30,-0.56,0.01,0.02,0.01,0.99,
2.082,-0.30,-0.56,0.01,0.03,0.01,0.99,
2.082,-0.27,-0.58,0.06,0.03,0.01,0.99,
2.085,-0.27,-0.58,0.06,0.03,0.01,0.99,
2.087,-0.27,-0.58,0.06,0.03,0.01,0.99,
2.087,-0.23,-0.58,0.11,0.03,0.01,0.99,
2.095,-0.23,-0.58,0.11,0.03,0.01,0.99,
2.095,-0.23,-0.58,0.11,0.04,0.01,1.00,
2.096,-0.18,-0.57,0.13,0.04,0.01,1.00,
2.096,-0.18,-0.57,0.13,0.04,0.02,1.00,
2.097,-0.18,-0.57,0.13,0.04,0.02,1.00,
2.097,-0.13,-0.56,0.18,0.04,0.02,1.00,
2.099,-0.13,-0.56,0.18,0.05,0.02,1.00,
2.102,-0.13,-0.56,0.18,0.05,0.02,1.00,
2.102,-0.07,-0.53,0.19,0.05,0.02,1.00,
2.105,-0.07,-0.53,0.19,0.05,0.02,1.00,
2.107,-0.07,-0.53,0.19,0.05,0.02,1.00,
2.107,-0.03,-0.52,0.21,0.05,0.02,1.00,
2.109,-0.03,-0.52,0.21,0.06,0.02,0.99,
2.111,-0.03,-0.52,0.21,0.05,0.02,0.99,
2.112,0.00,-0.49,0.18,0.05,0.02,0.99,
2.114,0.00,-0.49,0.18,0.05,0.02,0.99,
2.116,0.00,-0.49,0.18,0.05,0.02,0.99,
2.116,0.04,-0.49,0.15,0.05,0.02,0.99,
2.118,0.04,-0.49,0.15,0.05,0.02,0.99,
2.121,0.04,-0.49,0.15,0.05,0.02,0.98,
2.122,0.01,-0.46,0.13,0.05,0.02,0.98,
2.124,0.01,-0.46,0.13,0.05,0.03,0.99,
2.126,0.01,-0.46,0.13,0.04,0.03,0.98,
2.127,-0.01,-0.44,0.08,0.04,0.03,0.98,
2.128,-0.01,-0.44,0.08,0.04,0.03,0.98,
2.131,-0.01,-0.44,0.08,0.04,0.03,0.98,
2.131,-0.05,-0.42,0.07,0.04,0.03,0.98,
2.133,-0.05,-0.42,0.07,0.03,0.03,0.99,
2.136,-0.05,-0.42,0.07,0.03,0.03,0.99,
2.136,-0.12,-0.39,0.07,0.03,0.03,0.99,
2.138,-0.12,-0.39,0.07,0.03,0.03,0.99,
2.141,-0.12,-0.39,0.07,0.02,0.03,0.99,
2.141,-0.18,-0.38,0.09,0.02,0.03,0.99,
2.144,-0.18,-0.38,0.09,0.02,0.03,0.99,
2.146,-0.18,-0.38,0.09,0.02,0.03,0.99,
2.146,-0.25,-0.39,0.12,0.02,0.03,0.99,
2.148,-0.25,-0.39,0.12,0.02,0.03,0.99,
2.151,-0.25,-0.39,0.12,0.01,0.03,0.99,
2.151,-0.29,-0.38,0.14,0.01,0.03,0.99,
2.153,-0.29,-0.38,0.14,0.02,0.02,0.99,
2.156,-0.29,-0.38,0.14,0.02,0.03,1.00,
2.156,-0.35,-0.42,0.14,0.02,0.03,1.00,
2.158,-0.35,-0.42,0.14,0.02,0.02,1.00,
2.161,-0.35,-0.42,0.14,0.02,0.02,1.00,
2.161,-0.35,-0.44,0.16,0.02,0.02,1.00,
2.163,-0.35,-0.44,0.16,0.02,0.02,1.00,
2.165,-0.35,-0.44,0.16,0.02,0.02,1.00,
2.166,-0.35,-0.47,0.19,0.02,0.02,1.00,
2.167,-0.35,-0.47,0.19,0.02,0.02,1.00,
2.17,-0.35,-0.47,0.19,0.02,0.02,1.00,
2.171,-0.32,-0.49,0.19,0.02,0.02,1.00,
2.178,-0.32,-0.49,0.19,0.02,0.02,1.00,
2.178,-0.32,-0.49,0.19,0.03,0.02,1.00,
2.178,-0.28,-0.50,0.20,0.03,0.02,1.00,
2.179,-0.28,-0.50,0.20,0.03,0.02,1.00,
2.18,-0.28,-0.50,0.20,0.03,0.02,0.99,
2.18,-0.27,-0.51,0.19,0.03,0.02,0.99,
2.182,-0.27,-0.51,0.19,0.04,0.02,0.99,
2.185,-0.27,-0.51,0.19,0.04,0.02,0.99,
2.185,-0.20,-0.49,0.16,0.04,0.02,0.99,
2.19,-0.20,-0.49,0.16,0.04,0.02,0.99,
2.19,-0.20,-0.49,0.16,0.04,0.03,0.98,
2.19,-0.16,-0.49,0.11,0.04,0.03,0.98,
2.192,-0.16,-0.49,0.11,0.04,0.03,0.98,
2.195,-0.16,-0.49,0.11,0.04,0.03,0.98,
2.195,-0.13,-0.46,0.06,0.04,0.03,0.98,
2.197,-0.13,-0.46,0.06,0.04,0.03,0.98,
2.199,-0.13,-0.46,0.06,0.04,0.03,0.97,
2.2,-0.10,-0.40,0.02,0.04,0.03,0.97,
2.202,-0.10,-0.40,0.02,0.04,0.03,0.97,
2.205,-0.10,-0.40,0.02,0.04,0.03,0.97,
2.205,-0.10,-0.40,-0.02,0.04,0.03,0.97,
2.207,-0.10,-0.40,-0.02,0.04,0.04,0.97,
2.209,-0.10,-0.40,-0.02,0.04,0.04,0.96,
2.21,-0.08,-0.39,-0.10,0.04,0.04,0.96,
2.212,-0.08,-0.39,-0.10,0.04,0.04,0.96,
2.214,-0.08,-0.39,-0.10,0.04,0.04,0.96,
2.214,-0.11,-0.35,-0.13,0.04,0.04,0.96,
2.216,-0.11,-0.35,-0.13,0.03,0.04,0.96,
2.219,-0.11,-0.35,-0.13,0.03,0.04,0.96,
2.219,-0.17,-0.33,-0.14,0.03,0.04,0.96,
2.221,-0.17,-0.33,-0.14,0.02,0.04,0.96,
2.224,-0.17,-0.33,-0.14,0.02,0.04,0.96,
2.224,-0.23,-0.36,-0.15,0.02,0.04,0.96,
2.226,-0.23,-0.36,-0.15,0.02,0.03,0.97,
2.229,-0.23,-0.36,-0.15,0.01,0.03,0.97,
2.23,-0.32,-0.36,-0.14,0.01,0.03,0.97,
2.231,-0.32,-0.36,-0.14,0.01,0.03,0.97,
2.234,-0.32,-0.36,-0.14,0.01,0.03,0.97,
2.234,-0.39,-0.39,-0.10,0.01,0.03,0.97,
2.236,-0.39,-0.39,-0.10,0.00,0.02,0.98,
2.239,-0.39,-0.39,-0.10,-0.00,0.02,0.98,
2.239,-0.46,-0.44,-0.05,-0.00,0.02,0.98,
2.241,-0.46,-0.44,-0.05,-0.01,0.02,0.99,
2.244,-0.46,-0.44,-0.05,-0.01,0.02,0.99,
2.244,-0.55,-0.47,0.02,-0.01,0.02,0.99,
2.246,-0.55,-0.47,0.02,-0.01,0.02,0.99,
2.249,-0.55,-0.47,0.02,-0.01,0.01,0.99,
2.249,-0.60,-0.50,0.10,-0.01,0.01,0.99,
2.251,-0.60,-0.50,0.10,-0.01,0.01,1.00,
2.254,-0.60,-0.50,0.10,-0.02,0.01,1.00,
2.255,-0.65,-0.55,0.16,-0.02,0.01,1.00,
2.256,-0.65,-0.55,0.16,-0.02,0.01,1.01,
2.258,-0.65,-0.55,0.16,-0.02,0.01,1.01,
2.259,-0.69,-0.59,0.23,-0.02,0.01,1.01,
2.261,-0.69,-0.59,0.23,-0.02,0.01,1.01,
2.263,-0.69,-0.59,0.23,-0.02,0.01,1.01,
2.264,-0.73,-0.58,0.28,-0.02,0.01,1.01,
2.265,-0.73,-0.58,0.28,-0.02,0.01,1.01,
2.268,-0.73,-0.58,0.28,-0.02,0.01,1.01,
2.268,-0.73,-0.61,0.31,-0.02,0.01,1.01,
2.27,-0.73,-0.61,0.31,-0.02,0.00,1.01,
2.273,-0.73,-0.61,0.31,-0.02,0.00,1.01,
2.273,-0.71,-0.62,0.33,-0.02,0.00,1.01,
2.275,-0.71,-0.62,0.33,-0.01,0.01,1.01,
2.278,-0.71,-0.62,0.33,-0.01,0.01,1.01,
2.278,-0.70,-0.63,0.31,-0.01,0.01,1.01,
2.28,-0.70,-0.63,0.31,-0.01,0.01,1.01,
2.283,-0.70,-0.63,0.31,-0.01,0.01,1.00,
2.283,-0.67,-0.61,0.27,-0.01,0.01,1.00,
2.285,-0.67,-0.61,0.27,-0.01,0.01,1.00,
2.29,-0.67,-0.61,0.27,-0.01,0.02,1.00,
2.291,-0.62,-0.58,0.24,-0.01,0.02,1.00,
2.291,-0.62,-0.58,0.24,-0.01,0.02,0.99,
2.292,-0.62,-0.58,0.24,-0.00,0.02,0.99,
2.293,-0.60,-0.52,0.18,-0.00,0.02,0.99,
2.295,-0.60,-0.52,0.18,-0.00,0.02,0.99,
2.298,-0.60,-0.52,0.18,-0.00,0.03,0.99,
2.298,-0.56,-0.47,0.11,-0.00,0.03,0.99,
2.3,-0.56,-0.47,0.11,-0.00,0.03,0.99,
2.302,-0.56,-0.47,0.11,-0.00,0.03,0.98,
2.303,-0.55,-0.41,0.08,-0.00,0.03,0.98,
2.305,-0.55,-0.41,0.08,-0.00,0.03,0.98,
2.307,-0.55,-0.41,0.08,-0.00,0.03,0.98,
2.307,-0.55,-0.36,0.06,-0.00,0.03,0.98,
2.309,-0.55,-0.36,0.06,-0.00,0.03,0.98,
2.312,-0.55,-0.36,0.06,-0.00,0.03,0.98,
2.312,-0.53,-0.34,-0.01,-0.00,0.03,0.98,
2.315,-0.53,-0.34,-0.01,-0.00,0.04,0.98,
2.317,-0.53,-0.34,-0.01,-0.00,0.04,0.98,
2.317,-0.53,-0.34,-0.03,-0.00,0.04,0.98,
2.319,-0.53,-0.34,-0.03,-0.01,0.04,0.98,
2.322,-0.53,-0.34,-0.03,-0.00,0.04,0.98,
2.322,-0.53,-0.29,-0.03,-0.00,0.04,0.98,
2.324,-0.53,-0.29,-0.03,0.00,0.04,0.98,
2.327,-0.53,-0.29,-0.03,0.00,0.04,0.98,
2.327,-0.55,-0.27,-0.03,0.00,0.04,0.98,
2.33,-0.55,-0.27,-0.03,0.00,0.04,0.97,
2.332,-0.55,-0.27,-0.03,0.00,0.04,0.97,
2.332,-0.50,-0.27,-0.03,0.00,0.04,0.97,
2.334,-0.50,-0.27,-0.03,0.00,0.04,0.98,
2.337,-0.50,-0.27,-0.03,0.01,0.04,0.98,
2.337,-0.47,-0.29,-0.04,0.01,0.04,0.98,
2.339,-0.47,-0.29,-0.04,0.00,0.04,0.98,
2.342,-0.47,-0.29,-0.04,0.01,0.04,0.98,
2.342,-0.46,-0.28,-0.03,0.01,0.04,0.98,
2.344,-0.46,-0.28,-0.03,0.01,0.04,0.98,
2.346,-0.46,-0.28,-0.03,0.01,0.04,0.98,
2.347,-0.45,-0.28,-0.03,0.01,0.04,0.98,
2.349,-0.45,-0.28,-0.03,0.01,0.04,0.98,
2.351,-0.45,-0.28,-0.03,0.01,0.04,0.97,
2.352,-0.44,-0.29,-0.03,0.01,0.04,0.97,
2.354,-0.44,-0.29,-0.03,0.01,0.04,0.98,
2.357,-0.44,-0.29,-0.03,0.01,0.04,0.98,
2.357,-0.40,-0.28,-0.03,0.01,0.04,0.98,
2.359,-0.40,-0.28,-0.03,0.01,0.04,0.97,
2.361,-0.40,-0.28,-0.03,0.01,0.04,0.97,
2.362,-0.38,-0.27,-0.03,0.01,0.04,0.97,
2.364,-0.38,-0.27,-0.03,0.01,0.04,0.97,
2.366,-0.38,-0.27,-0.03,0.02,0.04,0.97,
2.369,-0.36,-0.25,-0.04,0.02,0.04,0.97,
2.369,-0.36,-0.25,-0.04,0.01,0.04,0.97,
2.371,-0.36,-0.25,-0.04,0.01,0.04,0.97,
2.372,-0.34,-0.25,-0.06,0.01,0.04,0.97,
2.373,-0.34,-0.25,-0.06,0.01,0.04,0.97,
2.376,-0.34,-0.25,-0.06,0.01,0.04,0.97,
2.376,-0.35,-0.25,-0.08,0.01,0.04,0.97,
2.38,-0.35,-0.25,-0.08,0.02,0.04,0.97,
2.381,-0.35,-0.25,-0.08,0.02,0.04,0.97,
2.381,-0.35,-0.25,-0.05,0.02,0.04,0.97,
2.383,-0.35,-0.25,-0.05,0.02,0.04,0.97,
2.386,-0.35,-0.25,-0.05,0.02,0.04,0.97,
2.386,-0.32,-0.25,-0.07,0.02,0.04,0.97,
2.392,-0.32,-0.25,-0.07,0.02,0.04,0.97,
2.393,-0.32,-0.25,-0.07,0.02,0.05,0.97,
2.393,-0.30,-0.22,-0.10,0.02,0.05,0.97,
2.393,-0.30,-0.22,-0.10,0.02,0.05,0.97,
2.395,-0.30,-0.22,-0.10,0.02,0.05,0.97,
2.395,-0.29,-0.17,-0.10,0.02,0.05,0.97,
2.398,-0.29,-0.17,-0.10,0.02,0.05,0.97,
2.4,-0.29,-0.17,-0.10,0.02,0.05,0.97,
2.401,-0.31,-0.15,-0.09,0.02,0.05,0.97,
2.405,-0.31,-0.15,-0.09,0.02,0.05,0.97,
2.405,-0.31,-0.15,-0.09,0.02,0.05,0.97,
2.406,-0.31,-0.13,-0.08,0.02,0.05,0.97,
2.407,-0.31,-0.13,-0.08,0.02,0.05,0.97,
2.41,-0.31,-0.13,-0.08,0.02,0.05,0.97,
2.41,-0.30,-0.12,-0.07,0.02,0.05,0.97,
2.412,-0.30,-0.12,-0.07,0.02,0.05,0.97,
2.415,-0.30,-0.12,-0.07,0.02,0.05,0.97,
2.415,-0.30,-0.09,-0.06,0.02,0.05,0.97,
2.417,-0.30,-0.09,-0.06,0.02,0.05,0.97,
2.42,-0.30,-0.09,-0.06,0.02,0.05,0.97,
2.42,-0.29,-0.11,-0.06,0.02,0.05,0.97,
2.422,-0.29,-0.11,-0.06,0.02,0.05,0.97,
2.425,-0.29,-0.11,-0.06,0.02,0.05,0.97,
2.425,-0.29,-0.12,-0.06,0.02,0.05,0.97,
2.427,-0.29,-0.12,-0.06,0.02,0.05,0.97,
2.43,-0.29,-0.12,-0.06,0.02,0.05,0.97,
2.43,-0.29,-0.13,-0.07,0.02,0.05,0.97,
2.432,-0.29,-0.13,-0.07,0.02,0.05,0.97,
2.435,-0.29,-0.13,-0.07,0.02,0.05,0.97,
2.435,-0.27,-0.11,-0.07,0.02,0.05,0.97,
2.437,-0.27,-0.11,-0.07,0.02,0.06,0.97,
2.439,-0.27,-0.11,-0.07,0.01,0.06,0.97,
2.44,-0.30,-0.09,-0.08,0.01,0.06,0.97,
2.442,-0.30,-0.09,-0.08,0.02,0.05,0.97,
2.444,-0.30,-0.09,-0.08,0.02,0.05,0.97,
2.444,-0.31,-0.06,-0.11,0.02,0.05,0.97,
2.447,-0.31,-0.06,-0.11,0.02,0.06,0.96,
2.449,-0.31,-0.06,-0.11,0.02,0.05,0.96,
2.449,-0.30,-0.08,-0.11,0.02,0.05,0.96,
2.452,-0.30,-0.08,-0.11,0.02,0.05,0.96,
2.454,-0.30,-0.08,-0.11,0.01,0.05,0.96,
2.454,-0.29,-0.06,-0.13,0.01,0.05,0.96,
2.456,-0.29,-0.06,-0.13,0.01,0.05,0.96,
2.459,-0.29,-0.06,-0.13,0.02,0.05,0.96,
2.459,-0.31,-0.07,-0.14,0.02,0.05,0.96,
2.461,-0.31,-0.07,-0.14,0.01,0.05,0.96,
2.464,-0.31,-0.07,-0.14,0.01,0.06,0.96,
2.464,-0.31,-0.08,-0.16,0.01,0.06,0.96,
2.466,-0.31,-0.08,-0.16,0.01,0.06,0.96,
2.475,-0.31,-0.08,-0.16,0.00,0.06,0.96,
2.476,-0.33,-0.06,-0.18,0.00,0.06,0.96,
2.476,-0.33,-0.06,-0.18,0.00,0.06,0.96,
2.476,-0.33,-0.06,-0.18,-0.00,0.05,0.96,
2.476,-0.37,-0.03,-0.18,-0.00,0.05,0.96,
2.477,-0.37,-0.03,-0.18,-0.01,0.06,0.96,
2.478,-0.37,-0.03,-0.18,-0.01,0.05,0.96,
2.479,-0.44,-0.04,-0.19,-0.01,0.05,0.96,
2.481,-0.44,-0.04,-0.19,-0.01,0.05,0.96,
2.483,-0.44,-0.04,-0.19,-0.01,0.05,0.96,
2.484,-0.48,-0.04,-0.17,-0.01,0.05,0.96,
2.487,-0.48,-0.04,-0.17,-0.02,0.05,0.96,
2.488,-0.48,-0.04,-0.17,-0.02,0.05,0.97,
2.489,-0.50,-0.05,-0.12,-0.02,0.05,0.97,
2.491,-0.50,-0.05,-0.12,-0.02,0.05,0.97,
2.493,-0.50,-0.05,-0.12,-0.02,0.06,0.97,
2.493,-0.55,-0.05,-0.11,-0.02,0.06,0.97,
2.496,-0.55,-0.05,-0.11,-0.02,0.05,0.97,
2.498,-0.55,-0.05,-0.11,-0.02,0.05,0.98,
2.498,-0.56,-0.02,-0.06,-0.02,0.05,0.98,
2.5,-0.56,-0.02,-0.06,-0.02,0.05,0.98,
2.503,-0.56,-0.02,-0.06,-0.02,0.05,0.99,
2.504,-0.56,-0.03,-0.00,-0.02,0.05,0.99,
2.505,-0.56,-0.03,-0.00,-0.01,0.05,0.99,
2.508,-0.56,-0.03,-0.00,-0.01,0.05,0.99,
2.508,-0.53,-0.03,0.07,-0.01,0.05,0.99,
2.51,-0.53,-0.03,0.07,-0.01,0.06,0.99,
2.513,-0.53,-0.03,0.07,-0.01,0.06,1.00,
2.513,-0.50,-0.02,0.12,-0.01,0.06,1.00,
2.515,-0.50,-0.02,0.12,-0.01,0.06,1.00,
2.518,-0.50,-0.02,0.12,-0.01,0.06,1.00,
2.518,-0.48,0.03,0.18,-0.01,0.06,1.00,
2.52,-0.48,0.03,0.18,-0.00,0.06,1.00,
2.523,-0.48,0.03,0.18,-0.00,0.06,1.00,
2.523,-0.45,0.08,0.22,-0.00,0.06,1.00,
2.525,-0.45,0.08,0.22,0.00,0.07,1.00,
2.527,-0.45,0.08,0.22,0.00,0.07,1.01,
2.528,-0.40,0.08,0.25,0.00,0.07,1.01,
2.53,-0.40,0.08,0.25,0.01,0.07,1.00,
2.533,-0.40,0.08,0.25,0.01,0.07,1.00,
2.533,-0.33,0.12,0.26,0.01,0.07,1.00,
2.535,-0.33,0.12,0.26,0.01,0.07,1.00,
2.538,-0.33,0.12,0.26,0.02,0.07,1.00,
2.538,-0.26,0.14,0.26,0.02,0.07,1.00,
2.54,-0.26,0.14,0.26,0.02,0.07,1.00,
2.542,-0.26,0.14,0.26,0.02,0.07,1.00,
2.543,-0.21,0.16,0.23,0.02,0.07,1.00,
2.545,-0.21,0.16,0.23,0.02,0.07,1.00,
2.547,-0.21,0.16,0.23,0.03,0.07,1.00,
2.547,-0.15,0.18,0.21,0.03,0.07,1.00,
2.549,-0.15,0.18,0.21,0.03,0.08,0.99,
2.553,-0.15,0.18,0.21,0.02,0.08,0.99,
2.553,-0.10,0.19,0.18,0.02,0.08,0.99,
2.555,-0.10,0.19,0.18,0.03,0.08,0.99,
2.557,-0.09,0.21,0.13,0.03,0.08,0.99,
2.558,-0.09,0.21,0.13,0.02,0.08,0.99,
2.559,-0.09,0.21,0.13,0.03,0.08,0.99,
2.562,-0.09,0.21,0.13,0.03,0.08,0.98,
2.562,-0.09,0.21,0.09,0.03,0.08,0.98,
2.564,-0.09,0.21,0.09,0.03,0.08,0.98,
2.567,-0.09,0.21,0.09,0.03,0.08,0.98,
2.567,-0.06,0.23,0.06,0.03,0.08,0.98,
2.57,-0.06,0.23,0.06,0.03,0.08,0.98,
2.572,-0.06,0.23,0.06,0.02,0.08,0.98,
2.573,-0.06,0.24,0.04,0.02,0.08,0.98,
2.574,-0.06,0.24,0.04,0.02,0.08,0.98,
2.577,-0.06,0.24,0.04,0.02,0.08,0.98,
2.577,-0.06,0.24,-0.00,0.02,0.08,0.98,
2.579,-0.06,0.24,-0.00,0.02,0.08,0.98,
2.582,-0.06,0.24,-0.00,0.02,0.08,0.98,
2.582,-0.09,0.21,-0.03,0.02,0.08,0.98,
2.584,-0.09,0.21,-0.03,0.02,0.08,0.97,
2.594,-0.09,0.21,-0.03,0.01,0.08,0.97,
2.594,-0.11,0.22,-0.03,0.01,0.08,0.97,
2.595,-0.11,0.22,-0.03,0.02,0.08,0.97,
2.595,-0.14,0.22,-0.07,0.02,0.08,0.97,
2.595,-0.14,0.22,-0.07,0.01,0.08,0.97,
2.596,-0.14,0.22,-0.07,0.01,0.08,0.97,
2.596,-0.14,0.22,-0.07,0.01,0.08,0.97,
2.596,-0.14,0.23,-0.07,0.01,0.08,0.97,
2.598,-0.14,0.23,-0.07,0.01,0.08,0.97,
2.601,-0.14,0.23,-0.07,0.01,0.08,0.97,
2.601,-0.18,0.25,-0.05,0.01,0.08,0.97,
2.608,-0.18,0.25,-0.05,0.01,0.08,0.97,
2.608,-0.18,0.25,-0.05,0.01,0.08,0.97,
2.609,-0.20,0.25,-0.04,0.01,0.08,0.97,
2.609,-0.20,0.25,-0.04,0.01,0.08,0.97,
2.611,-0.20,0.25,-0.04,0.01,0.08,0.97,
2.611,-0.21,0.24,-0.04,0.01,0.08,0.97,
2.613,-0.21,0.24,-0.04,0.01,0.08,0.98,
2.616,-0.21,0.24,-0.04,0.01,0.08,0.98,
2.616,-0.18,0.23,-0.04,0.01,0.08,0.98,
2.618,-0.18,0.23,-0.04,0.02,0.08,0.98,
2.621,-0.18,0.23,-0.04,0.02,0.08,0.98,
2.621,-0.15,0.21,-0.03,0.02,0.08,0.98,
2.623,-0.15,0.21,-0.03,0.02,0.08,0.98,
2.626,-0.15,0.21,-0.03,0.02,0.08,0.98,
2.626,-0.11,0.21,-0.02,0.02,0.08,0.98,
2.628,-0.11,0.21,-0.02,0.02,0.07,0.98,
2.63,-0.11,0.21,-0.02,0.02,0.08,0.98,
2.631,-0.10,0.20,0.01,0.02,0.08,0.98,
2.633,-0.10,0.20,0.01,0.02,0.08,0.99,
2.636,-0.10,0.20,0.01,0.02,0.08,0.99,
2.636,-0.09,0.19,0.03,0.02,0.08,0.99,
2.638,-0.09,0.19,0.03,0.02,0.08,0.99,
2.64,-0.09,0.19,0.03,0.02,0.08,0.99,
2.641,-0.10,0.19,0.08,0.02,0.08,0.99,
2.643,-0.10,0.19,0.08,0.02,0.08,0.99,
2.645,-0.10,0.19,0.08,0.02,0.08,1.00,
2.645,-0.08,0.20,0.11,0.02,0.08,1.00,
2.647,-0.08,0.20,0.11,0.02,0.07,1.00,
2.65,-0.08,0.20,0.11,0.01,0.07,1.00,
2.65,-0.09,0.20,0.15,0.01,0.07,1.00,
2.653,-0.09,0.20,0.15,0.02,0.07,1.00,
2.655,-0.09,0.20,0.15,0.02,0.07,1.00,
2.655,-0.10,0.17,0.16,0.02,0.07,1.00,
2.658,-0.10,0.17,0.16,0.01,0.07,1.00,
2.66,-0.10,0.17,0.16,0.01,0.07,1.00,
2.66,-0.09,0.15,0.17,0.01,0.07,1.00,
2.662,-0.09,0.15,0.17,0.01,0.07,1.00,
2.665,-0.09,0.15,0.17,0.01,0.07,1.00,
2.665,-0.12,0.15,0.19,0.01,0.07,1.00,
2.667,-0.12,0.15,0.19,0.01,0.07,1.00,
2.675,-0.12,0.15,0.19,0.01,0.07,1.00,
2.675,-0.11,0.14,0.20,0.01,0.07,1.00,
2.676,-0.11,0.14,0.20,0.01,0.07,1.00,
2.676,-0.11,0.14,0.20,0.01,0.07,1.00,
2.676,-0.13,0.16,0.19,0.01,0.07,1.00,
2.677,-0.13,0.16,0.19,0.01,0.07,1.00,
2.679,-0.13,0.16,0.19,0.01,0.07,1.00,
2.68,-0.14,0.17,0.20,0.01,0.07,1.00,
2.682,-0.14,0.17,0.20,0.01,0.07,1.00,
2.684,-0.14,0.17,0.20,0.01,0.07,1.00,
2.684,-0.13,0.16,0.22,0.01,0.07,1.00,
2.687,-0.13,0.16,0.22,0.01,0.07,1.00,
2.689,-0.13,0.16,0.22,0.01,0.07,1.00,
2.69,-0.14,0.16,0.22,0.01,0.07,1.00,
2.692,-0.14,0.16,0.22,0.00,0.07,1.00,
2.694,-0.14,0.16,0.22,0.00,0.07,1.00,
2.694,-0.14,0.14,0.20,0.00,0.07,1.00,
2.696,-0.14,0.14,0.20,0.00,0.07,1.00,
2.699,-0.14,0.14,0.20,0.00,0.07,1.00,
2.699,-0.17,0.14,0.18,0.00,0.07,1.00,
2.702,-0.17,0.14,0.18,0.00,0.07,1.00,
2.704,-0.17,0.14,0.18,0.00,0.07,1.00,
2.704,-0.16,0.16,0.19,0.00,0.07,1.00,
2.706,-0.16,0.16,0.19,0.01,0.07,1.00,
2.709,-0.16,0.16,0.19,0.01,0.07,1.00,
2.709,-0.15,0.17,0.20,0.01,0.07,1.00,
2.711,-0.15,0.17,0.20,0.01,0.07,1.00,
2.713,-0.15,0.17,0.20,0.01,0.07,1.00,
2.714,-0.12,0.15,0.20,0.01,0.07,1.00,
2.716,-0.12,0.15,0.20,0.01,0.07,1.00,
2.719,-0.12,0.15,0.20,0.02,0.07,1.00,
2.719,-0.08,0.13,0.21,0.02,0.07,1.00,
2.721,-0.08,0.13,0.21,0.02,0.07,1.00,
2.724,-0.08,0.13,0.21,0.02,0.07,1.00,
2.724,-0.05,0.14,0.21,0.02,0.07,1.00,
2.726,-0.05,0.14,0.21,0.02,0.07,1.01,
2.728,-0.05,0.14,0.21,0.02,0.07,1.01,
2.728,-0.00,0.12,0.22,0.02,0.07,1.01,
2.731,-0.00,0.12,0.22,0.02,0.07,1.01,
2.733,-0.00,0.12,0.22,0.02,0.07,1.00,
2.734,0.01,0.13,0.23,0.02,0.07,1.00,
2.736,0.01,0.13,0.23,0.02,0.07,1.00,
2.738,0.01,0.13,0.23,0.02,0.07,1.00,
2.739,0.02,0.12,0.22,0.02,0.07,1.00,
2.741,0.02,0.12,0.22,0.02,0.07,1.00,
2.743,0.02,0.12,0.22,0.02,0.07,1.00,
2.744,0.04,0.12,0.19,0.02,0.07,1.00,
2.745,0.04,0.12,0.19,0.02,0.07,1.00,
2.748,0.04,0.12,0.19,0.02,0.07,0.99,
2.748,0.04,0.12,0.16,0.02,0.07,0.99,
2.751,0.04,0.12,0.16,0.02,0.07,0.99,
2.753,0.04,0.12,0.16,0.02,0.07,0.99,
2.754,0.04,0.11,0.12,0.02,0.07,0.99,
2.755,0.04,0.11,0.12,0.02,0.07,0.98,
2.758,0.04,0.11,0.12,0.01,0.07,0.98,
2.758,0.03,0.11,0.07,0.01,0.07,0.98,
2.76,0.03,0.11,0.07,0.01,0.07,0.98,
2.763,0.03,0.11,0.07,0.01,0.07,0.98,
2.763,-0.00,0.11,0.02,0.01,0.07,0.98,
2.765,-0.00,0.11,0.02,0.01,0.07,0.98,
2.774,-0.00,0.11,0.02,0.01,0.07,0.97,
2.775,-0.01,0.11,-0.01,0.01,0.07,0.97,
2.775,-0.01,0.11,-0.01,0.01,0.07,0.97,
2.776,-0.01,0.11,-0.01,0.01,0.07,0.97,
2.776,-0.04,0.11,-0.07,0.01,0.07,0.97,
2.776,-0.04,0.11,-0.07,0.00,0.07,0.97,
2.778,-0.04,0.11,-0.07,0.01,0.07,0.97,
2.778,-0.06,0.12,-0.11,0.01,0.07,0.97,
2.782,-0.06,0.12,-0.11,0.00,0.07,0.97,
2.782,-0.06,0.12,-0.11,0.00,0.07,0.97,
2.783,-0.08,0.09,-0.12,0.00,0.07,0.97,
2.789,-0.08,0.09,-0.12,0.00,0.07,0.97,
2.79,-0.08,0.09,-0.12,0.00,0.07,0.97,
2.79,-0.10,0.08,-0.12,0.00,0.07,0.97,
2.79,-0.10,0.08,-0.12,-0.00,0.07,0.97,
2.792,-0.10,0.08,-0.12,-0.00,0.07,0.96,
2.792,-0.11,0.09,-0.15,-0.00,0.07,0.96,
2.794,-0.11,0.09,-0.15,0.00,0.07,0.96,
2.797,-0.11,0.09,-0.15,0.00,0.07,0.96,
2.797,-0.14,0.10,-0.17,0.00,0.07,0.96,
2.799,-0.14,0.10,-0.17,-0.00,0.07,0.96,
2.802,-0.14,0.10,-0.17,-0.00,0.07,0.97,
2.803,-0.13,0.08,-0.17,-0.00,0.07,0.97,
2.804,-0.13,0.08,-0.17,-0.00,0.07,0.97,
2.807,-0.13,0.08,-0.17,0.00,0.07,0.97,
2.807,-0.15,0.06,-0.16,0.00,0.07,0.97,
2.809,-0.15,0.06,-0.16,0.00,0.07,0.97,
2.812,-0.15,0.06,-0.16,0.00,0.07,0.96,
2.812,-0.14,0.06,-0.15,0.00,0.07,0.96,
2.814,-0.14,0.06,-0.15,0.00,0.07,0.97,
2.816,-0.14,0.06,-0.15,0.00,0.07,0.97,
2.817,-0.13,0.05,-0.16,0.00,0.07,0.97,
2.819,-0.13,0.05,-0.16,0.00,0.07,0.97,
2.822,-0.13,0.05,-0.16,0.00,0.07,0.97,
2.822,-0.14,0.06,-0.14,0.00,0.07,0.97,
2.824,-0.14,0.06,-0.14,0.00,0.07,0.97,
2.826,-0.14,0.06,-0.14,0.01,0.07,0.97,
2.826,-0.13,0.05,-0.13,0.01,0.07,0.97,
2.829,-0.13,0.05,-0.13,0.01,0.07,0.97,
2.831,-0.13,0.05,-0.13,0.01,0.07,0.97,
2.832,-0.10,0.06,-0.09,0.01,0.07,0.97,
2.833,-0.10,0.06,-0.09,0.01,0.07,0.97,
2.836,-0.10,0.06,-0.09,0.01,0.07,0.98,
2.837,-0.07,0.07,-0.08,0.01,0.07,0.98,
2.839,-0.07,0.07,-0.08,0.01,0.07,0.98,
2.841,-0.07,0.07,-0.08,0.01,0.07,0.98,
2.841,-0.03,0.07,-0.07,0.01,0.07,0.98,
2.843,-0.03,0.07,-0.07,0.02,0.07,0.98,
2.846,-0.03,0.07,-0.07,0.01,0.07,0.98,
2.846,-0.01,0.07,-0.04,0.01,0.07,0.98,
2.848,-0.01,0.07,-0.04,0.02,0.07,0.98,
2.852,-0.01,0.07,-0.04,0.02,0.07,0.98,
2.853,0.01,0.07,0.00,0.02,0.07,0.98,
2.853,0.01,0.07,0.00,0.02,0.07,0.99,
2.856,0.01,0.07,0.00,0.02,0.07,0.96,
2.858,0.03,0.06,0.02,0.02,0.07,0.96,
2.859,0.03,0.06,0.02,0.02,0.07,0.89,
2.861,0.03,0.06,0.02,0.04,0.09,0.84,
2.861,0.03,0.05,-0.09,0.04,0.09,0.84,
2.863,0.03,0.05,-0.09,0.04,0.09,0.84,
2.866,0.03,0.05,-0.09,0.05,0.09,0.87,
2.866,0.16,0.17,-1.13,0.05,0.09,0.87,
2.868,0.16,0.17,-1.13,0.04,0.08,0.90,
2.871,0.16,0.17,-1.13,0.04,0.07,0.91,
2.871,0.30,0.26,-1.20,0.04,0.07,0.91,
2.873,0.30,0.26,-1.20,0.03,0.07,0.92,
2.875,0.30,0.26,-1.20,0.03,0.07,0.94,
2.875,0.25,0.12,-0.75,0.03,0.07,0.94,
2.877,0.25,0.12,-0.75,0.03,0.08,0.94,
2.88,0.25,0.12,-0.75,0.02,0.08,0.95,
2.88,0.19,0.10,-0.49,0.02,0.08,0.95,
2.882,0.19,0.10,-0.49,0.02,0.08,0.96,
2.888,0.19,0.10,-0.49,0.02,0.08,0.97,
2.888,0.11,0.20,-0.28,0.02,0.08,0.97,
2.888,0.11,0.20,-0.28,0.02,0.08,0.98,
2.89,0.11,0.20,-0.28,0.02,0.07,1.00,
2.89,0.06,0.22,-0.11,0.02,0.07,1.00,
2.892,0.06,0.22,-0.11,0.02,0.06,1.01,
2.895,0.06,0.22,-0.11,0.01,0.06,1.03,
2.895,0.04,0.13,0.12,0.01,0.06,1.03,
2.897,0.04,0.13,0.12,0.01,0.05,1.04,
2.9,0.04,0.13,0.12,0.01,0.05,1.05,
2.9,0.01,0.02,0.41,0.01,0.05,1.05,
2.902,0.01,0.02,0.41,0.01,0.05,1.06,
2.905,0.01,0.02,0.41,0.01,0.05,1.07,
2.905,-0.02,-0.05,0.67,0.01,0.05,1.07,
2.907,-0.02,-0.05,0.67,0.01,0.05,1.07,
2.91,-0.03,-0.06,0.84,0.01,0.05,1.07,
2.91,-0.03,-0.06,0.84,0.01,0.05,1.08,
2.912,-0.03,-0.06,0.84,0.02,0.05,1.08,
2.914,-0.03,-0.06,0.84,0.02,0.05,1.08,
2.915,-0.02,-0.06,0.94,0.02,0.05,1.08,
2.917,-0.02,-0.06,0.94,0.02,0.05,1.08,
2.919,-0.02,-0.06,0.94,0.02,0.06,1.08,
2.92,0.02,-0.06,0.98,0.02,0.06,1.08,
2.922,0.02,-0.06,0.98,0.03,0.06,1.07,
2.924,0.02,-0.06,0.98,0.03,0.06,1.06,
2.924,0.08,-0.04,0.95,0.03,0.06,1.06,
2.927,0.08,-0.04,0.95,0.02,0.06,1.04,
2.929,0.08,-0.04,0.95,0.02,0.07,1.03,
2.929,0.11,-0.02,0.80,0.02,0.07,1.03,
2.931,0.11,-0.02,0.80,0.02,0.07,1.01,
2.934,0.11,-0.02,0.80,0.02,0.07,1.00,
2.934,0.06,0.02,0.52,0.02,0.07,1.00,
2.936,0.06,0.02,0.52,0.02,0.07,0.99,
2.939,0.06,0.02,0.52,0.02,0.07,0.97,
2.939,0.01,0.08,0.24,0.02,0.07,0.97,
2.941,0.01,0.08,0.24,0.02,0.07,0.96,
2.944,0.01,0.08,0.24,0.02,0.07,0.95,
2.944,0.03,0.07,-0.03,0.02,0.07,0.95,
2.946,0.03,0.07,-0.03,0.02,0.08,0.94,
2.949,0.03,0.07,-0.03,0.02,0.08,0.93,
2.95,0.01,0.06,-0.24,0.02,0.08,0.93,
2.951,0.01,0.06,-0.24,0.02,0.08,0.93,
