
time,ax,ay,az,gFx,gFy,gFz,
0.0,-0.04,-0.06,-0.12,0.05,0.08,0.96,
0.001,-0.04,-0.06,-0.12,0.05,0.08,0.96,
0.001,-0.02,-0.05,-0.14,0.05,0.08,0.96,
0.003,-0.02,-0.05,-0.14,0.05,0.08,0.96,
0.006,-0.02,-0.05,-0.14,0.05,0.08,0.96,
0.006,0.01,-0.03,-0.13,0.05,0.08,0.96,
0.008,0.01,-0.03,-0.13,0.05,0.08,0.96,
0.01,0.01,-0.03,-0.13,0.05,0.08,0.96,
0.011,0.01,-0.00,-0.12,0.05,0.08,0.96,
0.013,0.01,-0.00,-0.12,0.05,0.08,0.96,
0.016,0.01,-0.00,-0.12,0.05,0.08,0.97,
0.016,0.05,0.03,-0.13,0.05,0.08,0.97,
0.018,0.05,0.03,-0.13,0.06,0.08,0.97,
0.02,0.05,0.03,-0.13,0.05,0.09,0.97,
0.02,0.08,0.04,-0.11,0.05,0.09,0.97,
0.023,0.08,0.04,-0.11,0.05,0.09,0.97,
0.025,0.08,0.04,-0.11,0.06,0.09,0.97,
0.025,0.09,0.05,-0.07,0.06,0.09,0.97,
0.028,0.09,0.05,-0.07,0.06,0.09,0.97,
0.031,0.09,0.05,-0.07,0.06,0.09,0.98,
0.031,0.10,0.08,-0.04,0.06,0.09,0.98,
0.033,0.10,0.08,-0.04,0.06,0.09,0.98,
0.035,0.10,0.08,-0.04,0.06,0.09,0.98,
0.036,0.14,0.08,-0.02,0.06,0.09,0.98,
0.037,0.14,0.08,-0.02,0.06,0.09,0.98,
0.04,0.14,0.08,-0.02,0.06,0.09,0.98,
0.04,0.15,0.09,0.02,0.06,0.09,0.98,
0.042,0.15,0.09,0.02,0.06,0.09,0.97,
0.045,0.15,0.09,0.02,0.06,0.08,0.97,
0.045,0.14,0.09,0.00,0.06,0.08,0.97,
0.048,0.14,0.09,0.00,0.06,0.08,0.97,
0.05,0.14,0.09,0.00,0.06,0.08,0.97,
0.05,0.13,0.05,-0.02,0.06,0.08,0.97,
0.052,0.13,0.05,-0.02,0.06,0.08,0.97,
0.055,0.13,0.05,-0.02,0.05,0.08,0.96,
0.055,0.11,0.02,-0.04,0.05,0.08,0.96,
0.057,0.11,0.02,-0.04,0.05,0.08,0.96,
0.06,0.11,0.02,-0.04,0.05,0.08,0.96,
0.06,0.06,-0.00,-0.09,0.05,0.08,0.96,
0.063,0.06,-0.00,-0.09,0.04,0.08,0.96,
0.065,0.06,-0.00,-0.09,0.04,0.08,0.96,
0.065,-0.00,-0.00,-0.13,0.04,0.08,0.96,
0.067,-0.00,-0.00,-0.13,0.04,0.08,0.96,
0.07,-0.00,-0.00,-0.13,0.04,0.08,0.96,
0.07,-0.06,-0.03,-0.14,0.04,0.08,0.96,
0.072,-0.06,-0.03,-0.14,0.04,0.08,0.95,
0.074,-0.06,-0.03,-0.14,0.04,0.08,0.95,
0.074,-0.08,-0.03,-0.17,0.04,0.08,0.95,
0.077,-0.08,-0.03,-0.17,0.04,0.07,0.95,
0.08,-0.08,-0.03,-0.17,0.04,0.07,0.95,
0.08,-0.10,-0.05,-0.20,0.04,0.07,0.95,
0.082,-0.10,-0.05,-0.20,0.03,0.07,0.95,
0.084,-0.10,-0.05,-0.20,0.03,0.07,0.95,
0.084,-0.12,-0.07,-0.22,0.03,0.07,0.95,
0.087,-0.12,-0.07,-0.22,0.03,0.08,0.95,
0.089,-0.12,-0.07,-0.22,0.03,0.08,0.96,
0.089,-0.15,-0.06,-0.22,0.03,0.08,0.96,
0.091,-0.15,-0.06,-0.22,0.03,0.08,0.96,
0.094,-0.15,-0.06,-0.22,0.03,0.08,0.96,
0.094,-0.15,-0.03,-0.19,0.03,0.08,0.96,
0.099,-0.15,-0.03,-0.19,0.03,0.08,0.96,
0.1,-0.15,-0.03,-0.19,0.03,0.08,0.96,
0.1,-0.18,-0.03,-0.16,0.03,0.08,0.96,
0.101,-0.18,-0.03,-0.16,0.03,0.08,0.97,
0.104,-0.18,-0.03,-0.16,0.03,0.08,0.97,
0.104,-0.19,-0.02,-0.14,0.03,0.08,0.97,
0.106,-0.19,-0.02,-0.14,0.03,0.08,0.97,
0.109,-0.19,-0.02,-0.14,0.02,0.08,0.97,
0.109,-0.18,-0.01,-0.08,0.02,0.08,0.97,
0.111,-0.18,-0.01,-0.08,0.02,0.08,0.97,
0.114,-0.18,-0.01,-0.08,0.02,0.08,0.97,
0.114,-0.20,-0.01,-0.04,0.02,0.08,0.97,
0.116,-0.20,-0.01,-0.04,0.02,0.08,0.97,
0.119,-0.20,-0.01,-0.04,0.02,0.07,0.98,
0.119,-0.22,-0.03,0.00,0.02,0.07,0.98,
0.121,-0.22,-0.03,0.00,0.02,0.08,0.98,
0.123,-0.24,-0.03,0.01,0.02,0.08,0.98,
0.124,-0.24,-0.03,0.01,0.02,0.07,0.98,
0.126,-0.24,-0.03,0.01,0.02,0.08,0.98,
0.128,-0.24,-0.03,0.01,0.02,0.08,0.98,
0.129,-0.26,-0.04,0.04,0.02,0.08,0.98,
0.131,-0.26,-0.04,0.04,0.02,0.08,0.98,
0.133,-0.26,-0.04,0.04,0.02,0.08,0.98,
0.133,-0.24,-0.03,0.07,0.02,0.08,0.98,
0.136,-0.24,-0.03,0.07,0.03,0.07,0.98,
0.138,-0.24,-0.03,0.07,0.03,0.07,0.98,
0.138,-0.22,-0.02,0.07,0.03,0.07,0.98,
0.14,-0.22,-0.02,0.07,0.03,0.07,0.98,
0.143,-0.22,-0.02,0.07,0.03,0.08,0.98,
0.143,-0.18,-0.03,0.08,0.03,0.08,0.98,
0.146,-0.18,-0.03,0.08,0.04,0.08,0.98,
0.148,-0.18,-0.03,0.08,0.04,0.08,0.98,
0.148,-0.15,-0.03,0.07,0.04,0.08,0.98,
0.15,-0.15,-0.03,0.07,0.04,0.08,0.98,
0.153,-0.15,-0.03,0.07,0.04,0.08,0.98,
0.153,-0.11,-0.01,0.06,0.04,0.08,0.98,
0.155,-0.11,-0.01,0.06,0.04,0.08,0.98,
0.157,-0.11,-0.01,0.06,0.04,0.08,0.97,
0.158,-0.08,0.01,0.04,0.04,0.08,0.97,
0.16,-0.08,0.01,0.04,0.04,0.08,0.97,
0.163,-0.08,0.01,0.04,0.04,0.08,0.97,
0.163,-0.08,0.01,0.01,0.04,0.08,0.97,
0.165,-0.08,0.01,0.01,0.04,0.08,0.97,
0.168,-0.08,0.01,0.01,0.04,0.08,0.97,
0.168,-0.08,0.01,-0.03,0.04,0.08,0.97,
0.17,-0.08,0.01,-0.03,0.04,0.08,0.97,
0.172,-0.08,0.01,-0.03,0.04,0.08,0.97,
0.172,-0.06,0.02,-0.05,0.04,0.08,0.97,
0.175,-0.06,0.02,-0.05,0.04,0.08,0.97,
0.177,-0.06,0.02,-0.05,0.04,0.08,0.97,
0.177,-0.06,0.03,-0.06,0.04,0.08,0.97,
0.18,-0.06,0.03,-0.06,0.04,0.08,0.97,
0.182,-0.06,0.03,-0.06,0.04,0.08,0.97,
0.182,-0.08,0.03,-0.07,0.04,0.08,0.97,
0.185,-0.08,0.03,-0.07,0.03,0.08,0.96,
0.187,-0.08,0.03,-0.07,0.03,0.09,0.96,
0.187,-0.10,0.05,-0.08,0.03,0.09,0.96,
0.189,-0.10,0.05,-0.08,0.03,0.09,0.96,
0.192,-0.10,0.05,-0.08,0.03,0.08,0.96,
0.192,-0.15,0.06,-0.09,0.03,0.08,0.96,
0.194,-0.15,0.06,-0.09,0.02,0.08,0.96,
0.203,-0.15,0.06,-0.09,0.02,0.08,0.96,
0.203,-0.19,0.06,-0.11,0.02,0.08,0.96,
0.205,-0.19,0.06,-0.11,0.02,0.08,0.97,
0.205,-0.19,0.06,-0.11,0.02,0.08,0.96,
0.205,-0.25,0.04,-0.11,0.02,0.08,0.96,
0.205,-0.25,0.04,-0.11,0.01,0.08,0.97,
0.207,-0.25,0.04,-0.11,0.01,0.08,0.97,
0.207,-0.30,0.03,-0.09,0.01,0.08,0.97,
0.209,-0.30,0.03,-0.09,0.01,0.08,0.97,
0.211,-0.30,0.03,-0.09,0.01,0.08,0.98,
0.212,-0.34,0.03,-0.04,0.01,0.08,0.98,
0.214,-0.34,0.03,-0.04,0.01,0.08,0.98,
0.216,-0.34,0.03,-0.04,0.01,0.08,0.98,
0.217,-0.36,0.01,0.02,0.01,0.08,0.98,
0.219,-0.36,0.01,0.02,0.01,0.08,0.99,
0.221,-0.36,0.01,0.02,0.01,0.08,0.99,
0.221,-0.36,-0.00,0.07,0.01,0.08,0.99,
0.224,-0.36,-0.00,0.07,0.01,0.08,1.00,
0.226,-0.36,-0.00,0.07,0.02,0.08,1.00,
0.226,-0.34,-0.00,0.16,0.02,0.08,1.00,
0.229,-0.34,-0.00,0.16,0.02,0.08,1.01,
0.231,-0.34,-0.00,0.16,0.02,0.08,1.01,
0.231,-0.33,0.02,0.24,0.02,0.08,1.01,
0.233,-0.33,0.02,0.24,0.02,0.08,1.01,
0.236,-0.33,0.02,0.24,0.02,0.08,1.02,
0.236,-0.31,0.03,0.33,0.02,0.08,1.02,
0.238,-0.31,0.03,0.33,0.02,0.08,1.02,
0.241,-0.31,0.03,0.33,0.02,0.08,1.02,
0.241,-0.31,0.05,0.39,0.02,0.08,1.02,
0.243,-0.31,0.05,0.39,0.02,0.09,1.02,
0.246,-0.31,0.05,0.39,0.02,0.08,1.02,
0.246,-0.30,0.07,0.43,0.02,0.08,1.02,
0.248,-0.30,0.07,0.43,0.02,0.08,1.02,
0.251,-0.30,0.07,0.43,0.02,0.09,1.02,
0.251,-0.30,0.08,0.44,0.02,0.09,1.02,
0.253,-0.30,0.08,0.44,0.02,0.09,1.02,
0.255,-0.30,0.08,0.44,0.02,0.09,1.02,
0.256,-0.28,0.08,0.42,0.02,0.09,1.02,
0.258,-0.28,0.08,0.42,0.01,0.09,1.01,
0.26,-0.28,0.08,0.42,0.02,0.09,1.01,
0.261,-0.30,0.09,0.40,0.02,0.09,1.01,
0.263,-0.30,0.09,0.40,0.01,0.09,1.01,
0.265,-0.30,0.09,0.40,0.01,0.09,1.01,
0.266,-0.32,0.10,0.35,0.01,0.09,1.01,
0.268,-0.32,0.10,0.35,0.02,0.09,1.00,
0.27,-0.32,0.10,0.35,0.02,0.09,1.00,
0.271,-0.33,0.13,0.30,0.02,0.09,1.00,
0.272,-0.33,0.13,0.30,0.02,0.09,1.00,
0.275,-0.33,0.13,0.30,0.01,0.09,1.00,
0.275,-0.31,0.14,0.23,0.01,0.09,1.00,
0.277,-0.31,0.14,0.23,0.02,0.09,0.99,
0.28,-0.31,0.14,0.23,0.01,0.09,0.99,
0.28,-0.32,0.15,0.19,0.01,0.09,0.99,
0.282,-0.32,0.15,0.19,0.01,0.09,0.99,
0.285,-0.32,0.15,0.19,0.01,0.09,0.99,
0.285,-0.31,0.13,0.14,0.01,0.09,0.99,
0.288,-0.31,0.13,0.14,0.01,0.09,0.99,
0.29,-0.31,0.13,0.14,0.01,0.09,0.99,
0.29,-0.33,0.13,0.12,0.01,0.09,0.99,
0.292,-0.33,0.13,0.12,0.01,0.09,0.98,
0.295,-0.33,0.13,0.12,0.01,0.09,0.99,
0.295,-0.33,0.13,0.10,0.01,0.09,0.99,
0.303,-0.33,0.13,0.10,0.01,0.09,0.99,
0.304,-0.33,0.13,0.10,0.01,0.09,0.99,
0.304,-0.35,0.10,0.08,0.01,0.09,0.99,
0.304,-0.35,0.10,0.08,0.01,0.09,0.99,
0.305,-0.35,0.10,0.08,0.01,0.09,0.99,
0.305,-0.36,0.09,0.11,0.01,0.09,0.99,
0.307,-0.36,0.09,0.11,0.01,0.08,0.99,
0.31,-0.36,0.07,0.12,0.01,0.08,0.99,
0.31,-0.36,0.07,0.12,0.00,0.09,0.99,
0.312,-0.36,0.07,0.12,0.00,0.09,1.00,
0.314,-0.36,0.07,0.12,0.00,0.09,1.00,
0.315,-0.39,0.06,0.16,0.00,0.09,1.00,
0.317,-0.39,0.06,0.16,0.00,0.08,1.00,
0.319,-0.39,0.06,0.16,0.00,0.08,1.00,
0.319,-0.41,0.05,0.20,0.00,0.08,1.00,
0.322,-0.41,0.05,0.20,0.00,0.08,1.01,
0.324,-0.41,0.05,0.20,0.00,0.08,1.01,
0.324,-0.41,0.04,0.26,0.00,0.08,1.01,
0.327,-0.41,0.04,0.26,0.01,0.08,1.01,
0.329,-0.41,0.04,0.26,0.01,0.08,1.01,
0.329,-0.41,0.02,0.28,0.01,0.08,1.01,
0.331,-0.41,0.02,0.28,0.01,0.08,1.01,
0.334,-0.41,0.02,0.28,0.01,0.08,1.01,
0.334,-0.37,-0.00,0.31,0.01,0.08,1.01,
0.337,-0.37,-0.00,0.31,0.00,0.08,1.01,
0.339,-0.37,-0.00,0.31,0.00,0.08,1.02,
0.339,-0.36,-0.01,0.33,0.00,0.08,1.02,
0.341,-0.36,-0.01,0.33,0.00,0.08,1.02,
0.344,-0.36,-0.01,0.33,0.00,0.08,1.02,
0.344,-0.38,-0.01,0.35,0.00,0.08,1.02,
0.346,-0.38,-0.01,0.35,0.00,0.08,1.02,
0.349,-0.38,-0.01,0.35,0.00,0.08,1.02,
0.349,-0.40,0.03,0.36,0.00,0.08,1.02,
0.351,-0.40,0.03,0.36,0.01,0.08,1.01,
0.353,-0.40,0.03,0.36,0.01,0.08,1.01,
0.354,-0.36,0.03,0.35,0.01,0.08,1.01,
0.356,-0.36,0.03,0.35,0.01,0.08,1.01,
0.358,-0.36,0.03,0.35,0.01,0.08,1.02,
0.358,-0.34,0.02,0.34,0.01,0.08,1.02,
0.361,-0.34,0.02,0.34,0.00,0.08,1.01,
0.363,-0.34,0.02,0.34,0.00,0.08,1.02,
0.364,-0.32,0.01,0.34,0.00,0.08,1.02,
0.366,-0.32,0.01,0.34,0.00,0.08,1.01,
0.368,-0.32,0.01,0.34,0.00,0.08,1.01,
0.368,-0.36,-0.00,0.34,0.00,0.08,1.01,
0.371,-0.36,-0.00,0.34,0.00,0.08,1.01,
0.373,-0.36,-0.00,0.34,0.00,0.08,1.01,
0.373,-0.37,-0.01,0.31,0.00,0.08,1.01,
0.376,-0.37,-0.01,0.31,0.00,0.08,1.00,
0.378,-0.37,-0.01,0.31,0.00,0.08,1.00,
0.378,-0.35,-0.05,0.27,0.00,0.08,1.00,
0.386,-0.35,-0.05,0.27,-0.00,0.08,1.00,
0.386,-0.35,-0.05,0.27,-0.00,0.08,1.00,
0.387,-0.35,-0.06,0.21,-0.00,0.08,1.00,
0.387,-0.35,-0.06,0.21,-0.00,0.07,0.99,
0.388,-0.35,-0.06,0.21,-0.01,0.07,0.99,
0.388,-0.38,-0.07,0.17,-0.01,0.07,0.99,
0.39,-0.38,-0.07,0.17,-0.01,0.07,0.99,
0.393,-0.38,-0.07,0.17,-0.01,0.07,0.99,
0.393,-0.40,-0.09,0.10,-0.01,0.07,0.99,
0.395,-0.40,-0.09,0.10,-0.01,0.07,0.99,
0.398,-0.40,-0.09,0.10,-0.01,0.07,0.99,
0.398,-0.42,-0.09,0.07,-0.01,0.07,0.99,
0.4,-0.42,-0.09,0.07,-0.01,0.07,0.99,
0.402,-0.42,-0.09,0.07,-0.02,0.07,0.99,
0.403,-0.46,-0.11,0.05,-0.02,0.07,0.99,
0.405,-0.46,-0.11,0.05,-0.02,0.07,0.99,
0.408,-0.46,-0.11,0.05,-0.02,0.07,0.99,
0.408,-0.48,-0.13,0.08,-0.02,0.07,0.99,
0.41,-0.48,-0.13,0.08,-0.02,0.07,0.99,
0.413,-0.48,-0.13,0.08,-0.02,0.06,0.99,
0.413,-0.50,-0.15,0.09,-0.02,0.06,0.99,
0.415,-0.50,-0.15,0.09,-0.02,0.06,0.99,
0.417,-0.50,-0.15,0.09,-0.02,0.06,0.99,
0.417,-0.51,-0.18,0.10,-0.02,0.06,0.99,
0.419,-0.51,-0.18,0.10,-0.02,0.06,1.00,
0.422,-0.51,-0.18,0.10,-0.02,0.06,1.00,
0.422,-0.51,-0.22,0.11,-0.02,0.06,1.00,
0.425,-0.51,-0.22,0.11,-0.02,0.06,1.00,
0.427,-0.51,-0.22,0.11,-0.02,0.06,0.99,
0.427,-0.50,-0.24,0.13,-0.02,0.06,0.99,
0.429,-0.50,-0.24,0.13,-0.02,0.06,0.99,
0.432,-0.50,-0.24,0.13,-0.02,0.06,0.99,
0.432,-0.47,-0.25,0.12,-0.02,0.06,0.99,
0.434,-0.47,-0.25,0.12,-0.02,0.06,0.99,
0.437,-0.47,-0.25,0.12,-0.02,0.06,0.99,
0.437,-0.45,-0.25,0.11,-0.02,0.06,0.99,
0.439,-0.45,-0.25,0.11,-0.01,0.06,0.99,
0.442,-0.45,-0.25,0.11,-0.01,0.06,0.99,
0.442,-0.44,-0.22,0.10,-0.01,0.06,0.99,
0.444,-0.44,-0.22,0.10,-0.01,0.06,0.99,
0.447,-0.44,-0.22,0.10,-0.01,0.06,0.99,
0.447,-0.39,-0.21,0.07,-0.01,0.06,0.99,
0.449,-0.39,-0.21,0.07,-0.00,0.06,0.99,
0.451,-0.39,-0.21,0.07,-0.00,0.07,0.99,
0.452,-0.34,-0.20,0.06,-0.00,0.07,0.99,
0.454,-0.34,-0.20,0.06,0.00,0.07,0.99,
0.456,-0.34,-0.20,0.06,0.00,0.07,0.98,
0.456,-0.28,-0.19,0.05,0.00,0.07,0.98,
0.459,-0.28,-0.19,0.05,0.00,0.07,0.98,
0.462,-0.28,-0.19,0.05,0.00,0.07,0.98,
0.462,-0.23,-0.17,0.02,0.00,0.07,0.98,
0.464,-0.23,-0.17,0.02,0.01,0.07,0.98,
0.466,-0.23,-0.17,0.02,0.01,0.07,0.98,
0.467,-0.20,-0.15,-0.01,0.01,0.07,0.98,
0.468,-0.20,-0.15,-0.01,0.01,0.07,0.97,
0.471,-0.20,-0.15,-0.01,0.01,0.07,0.97,
0.471,-0.16,-0.15,-0.04,0.01,0.07,0.97,
0.473,-0.16,-0.15,-0.04,0.01,0.07,0.97,
0.476,-0.16,-0.15,-0.04,0.01,0.07,0.97,
0.476,-0.17,-0.13,-0.08,0.01,0.07,0.97,
0.479,-0.17,-0.13,-0.08,0.01,0.07,0.97,
0.481,-0.17,-0.13,-0.08,0.01,0.07,0.97,
0.482,-0.13,-0.14,-0.11,0.01,0.07,0.97,
0.483,-0.13,-0.14,-0.11,0.01,0.07,0.96,
0.486,-0.13,-0.14,-0.11,0.01,0.07,0.96,
0.486,-0.13,-0.16,-0.14,0.01,0.07,0.96,
0.488,-0.13,-0.16,-0.14,0.00,0.07,0.96,
0.49,-0.13,-0.16,-0.14,0.00,0.07,0.96,
0.491,-0.15,-0.18,-0.18,0.00,0.07,0.96,
0.493,-0.15,-0.18,-0.18,0.00,0.07,0.96,
0.496,-0.15,-0.18,-0.18,-0.00,0.07,0.96,
0.496,-0.17,-0.19,-0.18,-0.00,0.07,0.96,
0.498,-0.17,-0.19,-0.18,-0.00,0.06,0.96,
0.5,-0.17,-0.19,-0.18,0.00,0.06,0.96,
0.501,-0.19,-0.18,-0.20,0.00,0.06,0.96,
0.503,-0.19,-0.18,-0.20,-0.00,0.06,0.96,
0.505,-0.19,-0.18,-0.20,-0.00,0.06,0.96,
0.505,-0.19,-0.23,-0.20,-0.00,0.06,0.96,
0.508,-0.19,-0.23,-0.20,-0.00,0.06,0.96,
0.51,-0.19,-0.23,-0.20,-0.00,0.06,0.96,
0.511,-0.20,-0.25,-0.20,-0.00,0.06,0.96,
0.515,-0.20,-0.25,-0.20,-0.00,0.06,0.96,
0.516,-0.20,-0.25,-0.20,-0.00,0.05,0.96,
0.516,-0.22,-0.28,-0.18,-0.00,0.05,0.96,
0.517,-0.22,-0.28,-0.18,-0.00,0.05,0.96,
0.52,-0.22,-0.28,-0.18,-0.00,0.05,0.97,
0.52,-0.21,-0.31,-0.17,-0.00,0.05,0.97,
0.522,-0.21,-0.31,-0.17,-0.00,0.05,0.97,
0.525,-0.21,-0.31,-0.17,-0.00,0.05,0.97,
0.526,-0.20,-0.33,-0.15,-0.00,0.05,0.97,
0.527,-0.20,-0.33,-0.15,0.00,0.05,0.97,
0.53,-0.20,-0.33,-0.15,0.00,0.05,0.97,
0.53,-0.17,-0.34,-0.12,0.00,0.05,0.97,
0.532,-0.17,-0.34,-0.12,0.00,0.05,0.97,
0.535,-0.17,-0.34,-0.12,0.00,0.05,0.97,
0.535,-0.14,-0.35,-0.10,0.00,0.05,0.97,
0.537,-0.14,-0.35,-0.10,0.00,0.05,0.97,
0.54,-0.14,-0.35,-0.10,0.00,0.05,0.97,
0.54,-0.14,-0.35,-0.09,0.00,0.05,0.97,
0.542,-0.14,-0.35,-0.09,0.00,0.05,0.97,
0.546,-0.14,-0.35,-0.09,0.00,0.05,0.97,
0.546,-0.11,-0.34,-0.07,0.00,0.05,0.97,
0.547,-0.11,-0.34,-0.07,0.00,0.05,0.97,
0.55,-0.11,-0.34,-0.07,0.00,0.05,0.98,
0.55,-0.10,-0.32,-0.07,0.00,0.05,0.98,
0.552,-0.10,-0.32,-0.07,0.00,0.05,0.98,
0.554,-0.10,-0.32,-0.07,0.00,0.05,0.98,
0.554,-0.11,-0.31,-0.05,0.00,0.05,0.98,
0.556,-0.11,-0.31,-0.05,0.00,0.05,0.98,
0.559,-0.11,-0.31,-0.05,0.00,0.05,0.98,
0.559,-0.10,-0.30,-0.02,0.00,0.05,0.98,
0.562,-0.10,-0.30,-0.02,0.00,0.05,0.98,
0.564,-0.10,-0.30,-0.02,0.00,0.05,0.98,
0.564,-0.10,-0.29,-0.00,0.00,0.05,0.98,
0.567,-0.10,-0.29,-0.00,0.00,0.05,0.98,
0.569,-0.10,-0.29,-0.00,0.01,0.05,0.98,
0.569,-0.09,-0.31,0.01,0.01,0.05,0.98,
0.571,-0.09,-0.31,0.01,0.01,0.05,0.98,
0.574,-0.09,-0.31,0.01,0.01,0.05,0.98,
0.574,-0.07,-0.33,0.01,0.01,0.05,0.98,
0.576,-0.07,-0.33,0.01,0.01,0.05,0.98,
0.579,-0.07,-0.33,0.01,0.01,0.05,0.98,
0.579,-0.05,-0.34,0.00,0.01,0.05,0.98,
0.581,-0.05,-0.34,0.00,0.01,0.05,0.98,
0.584,-0.05,-0.34,0.00,0.00,0.05,0.98,
0.584,-0.04,-0.34,-0.01,0.00,0.05,0.98,
0.586,-0.04,-0.34,-0.01,0.00,0.05,0.98,
0.589,-0.04,-0.34,-0.01,0.01,0.05,0.97,
0.589,-0.05,-0.35,-0.03,0.01,0.05,0.97,
0.591,-0.05,-0.35,-0.03,0.00,0.04,0.97,
0.594,-0.05,-0.35,-0.03,0.00,0.04,0.97,
0.594,-0.05,-0.35,-0.06,0.00,0.04,0.97,
0.602,-0.05,-0.35,-0.06,0.00,0.04,0.97,
0.602,-0.05,-0.35,-0.06,-0.00,0.04,0.96,
0.603,-0.06,-0.40,-0.10,-0.00,0.04,0.96,
0.603,-0.06,-0.40,-0.10,-0.00,0.04,0.96,
0.604,-0.06,-0.40,-0.10,-0.00,0.04,0.96,
0.604,-0.08,-0.41,-0.15,-0.00,0.04,0.96,
0.606,-0.08,-0.41,-0.15,-0.01,0.03,0.96,
0.608,-0.08,-0.41,-0.15,-0.01,0.03,0.96,
0.608,-0.10,-0.45,-0.19,-0.01,0.03,0.96,
0.611,-0.10,-0.45,-0.19,-0.01,0.03,0.95,
0.614,-0.10,-0.45,-0.19,-0.01,0.03,0.95,
0.614,-0.12,-0.49,-0.22,-0.01,0.03,0.95,
0.615,-0.12,-0.49,-0.22,-0.01,0.03,0.95,
0.618,-0.12,-0.49,-0.22,-0.01,0.03,0.95,
0.618,-0.14,-0.50,-0.25,-0.01,0.03,0.95,
0.62,-0.14,-0.50,-0.25,-0.01,0.03,0.95,
0.623,-0.14,-0.50,-0.25,-0.01,0.03,0.95,
0.623,-0.16,-0.51,-0.27,-0.01,0.03,0.95,
0.625,-0.16,-0.51,-0.27,-0.01,0.03,0.95,
0.628,-0.16,-0.51,-0.27,-0.01,0.02,0.95,
0.628,-0.17,-0.52,-0.28,-0.01,0.02,0.95,
0.631,-0.17,-0.52,-0.28,-0.01,0.02,0.95,
0.633,-0.17,-0.52,-0.28,-0.01,0.02,0.95,
0.633,-0.16,-0.53,-0.27,-0.01,0.02,0.95,
0.635,-0.16,-0.53,-0.27,-0.01,0.03,0.96,
0.637,-0.16,-0.53,-0.27,-0.01,0.02,0.96,
0.638,-0.13,-0.54,-0.23,-0.01,0.02,0.96,
0.64,-0.13,-0.54,-0.23,-0.00,0.03,0.96,
0.642,-0.13,-0.54,-0.23,-0.00,0.03,0.96,
0.642,-0.09,-0.53,-0.20,-0.00,0.03,0.96,
0.645,-0.09,-0.53,-0.20,0.00,0.02,0.96,
0.648,-0.09,-0.53,-0.20,0.00,0.02,0.96,
0.648,-0.05,-0.51,-0.20,0.00,0.02,0.96,
0.65,-0.05,-0.51,-0.20,0.00,0.02,0.96,
0.652,-0.05,-0.51,-0.20,0.00,0.02,0.96,
0.652,-0.01,-0.53,-0.19,0.00,0.02,0.96,
0.655,-0.01,-0.53,-0.19,0.01,0.02,0.96,
0.657,-0.01,-0.53,-0.19,0.01,0.03,0.96,
0.657,0.02,-0.52,-0.18,0.01,0.03,0.96,
0.66,0.02,-0.52,-0.18,0.01,0.03,0.96,
0.663,0.02,-0.52,-0.18,0.01,0.03,0.96,
0.663,0.07,-0.50,-0.20,0.01,0.03,0.96,
0.665,0.07,-0.50,-0.20,0.02,0.03,0.95,
0.667,0.07,-0.50,-0.20,0.02,0.03,0.95,
0.668,0.11,-0.46,-0.20,0.02,0.03,0.95,
0.669,0.11,-0.46,-0.20,0.02,0.03,0.95,
0.672,0.11,-0.46,-0.20,0.02,0.03,0.95,
0.672,0.17,-0.44,-0.23,0.02,0.03,0.95,
0.674,0.17,-0.44,-0.23,0.03,0.03,0.95,
0.677,0.21,-0.45,-0.24,0.03,0.03,0.95,
0.677,0.21,-0.45,-0.24,0.03,0.03,0.95,
0.68,0.21,-0.45,-0.24,0.03,0.03,0.95,
0.682,0.21,-0.45,-0.24,0.03,0.03,0.95,
0.682,0.26,-0.43,-0.24,0.03,0.03,0.95,
0.684,0.26,-0.43,-0.24,0.03,0.03,0.95,
0.686,0.26,-0.43,-0.24,0.03,0.03,0.95,
0.687,0.31,-0.42,-0.25,0.03,0.03,0.95,
0.689,0.31,-0.42,-0.25,0.03,0.03,0.95,
0.692,0.31,-0.42,-0.25,0.04,0.03,0.95,
0.692,0.33,-0.39,-0.25,0.04,0.03,0.95,
0.694,0.33,-0.39,-0.25,0.04,0.03,0.95,
0.696,0.33,-0.39,-0.25,0.04,0.03,0.95,
0.697,0.35,-0.38,-0.28,0.04,0.03,0.95,
0.699,0.35,-0.38,-0.28,0.04,0.03,0.95,
0.701,0.35,-0.38,-0.28,0.04,0.03,0.94,
0.702,0.38,-0.40,-0.29,0.04,0.03,0.94,
0.704,0.38,-0.40,-0.29,0.04,0.03,0.94,
0.706,0.38,-0.40,-0.29,0.04,0.03,0.94,
0.707,0.40,-0.38,-0.29,0.04,0.03,0.94,
0.709,0.40,-0.38,-0.29,0.04,0.03,0.94,
0.717,0.40,-0.38,-0.29,0.04,0.03,0.94,
0.718,0.43,-0.37,-0.31,0.04,0.03,0.94,
0.718,0.43,-0.37,-0.31,0.05,0.03,0.94,
0.719,0.43,-0.37,-0.31,0.04,0.03,0.94,
0.719,0.44,-0.40,-0.30,0.04,0.03,0.94,
0.719,0.44,-0.40,-0.30,0.04,0.03,0.94,
0.721,0.44,-0.40,-0.30,0.05,0.03,0.94,
0.721,0.45,-0.40,-0.31,0.05,0.03,0.94,
0.723,0.45,-0.40,-0.31,0.05,0.03,0.94,
0.726,0.45,-0.40,-0.31,0.05,0.03,0.94,
0.726,0.48,-0.40,-0.31,0.05,0.03,0.94,
0.731,0.48,-0.40,-0.31,0.05,0.03,0.94,
0.732,0.48,-0.40,-0.31,0.05,0.03,0.94,
0.732,0.51,-0.37,-0.30,0.05,0.03,0.94,
0.733,0.51,-0.37,-0.30,0.06,0.03,0.95,
0.735,0.51,-0.37,-0.30,0.06,0.03,0.95,
0.736,0.55,-0.36,-0.31,0.06,0.03,0.95,
0.738,0.55,-0.36,-0.31,0.06,0.03,0.95,
0.74,0.55,-0.36,-0.31,0.07,0.04,0.95,
0.74,0.60,-0.33,-0.27,0.07,0.04,0.95,
0.743,0.60,-0.33,-0.27,0.07,0.04,0.95,
0.745,0.60,-0.33,-0.27,0.07,0.04,0.95,
0.746,0.65,-0.30,-0.24,0.07,0.04,0.95,
0.748,0.65,-0.30,-0.24,0.07,0.04,0.96,
0.75,0.65,-0.30,-0.24,0.07,0.04,0.96,
0.751,0.70,-0.26,-0.21,0.07,0.04,0.96,
0.752,0.70,-0.26,-0.21,0.07,0.04,0.96,
0.755,0.70,-0.26,-0.21,0.08,0.05,0.96,
0.755,0.73,-0.23,-0.17,0.08,0.05,0.96,
0.757,0.73,-0.23,-0.17,0.08,0.05,0.96,
0.76,0.73,-0.23,-0.17,0.08,0.05,0.96,
0.76,0.76,-0.18,-0.15,0.08,0.05,0.96,
0.762,0.76,-0.18,-0.15,0.08,0.05,0.96,
0.765,0.76,-0.18,-0.15,0.08,0.05,0.96,
0.765,0.78,-0.16,-0.14,0.08,0.05,0.96,
0.768,0.78,-0.16,-0.14,0.08,0.05,0.96,
0.77,0.78,-0.16,-0.14,0.08,0.05,0.97,
0.77,0.78,-0.15,-0.12,0.08,0.05,0.97,
0.772,0.78,-0.15,-0.12,0.07,0.04,0.97,
0.775,0.78,-0.15,-0.12,0.07,0.04,0.97,
0.775,0.78,-0.15,-0.09,0.07,0.04,0.97,
0.777,0.78,-0.15,-0.09,0.07,0.04,0.97,
0.78,0.78,-0.15,-0.09,0.06,0.04,0.97,
0.78,0.72,-0.17,-0.04,0.06,0.04,0.97,
0.782,0.72,-0.17,-0.04,0.06,0.04,0.97,
0.785,0.72,-0.17,-0.04,0.06,0.04,0.97,
0.785,0.67,-0.19,-0.01,0.06,0.04,0.97,
0.787,0.67,-0.19,-0.01,0.06,0.04,0.98,
0.789,0.67,-0.19,-0.01,0.06,0.03,0.98,
0.79,0.61,-0.20,0.01,0.06,0.03,0.98,
0.792,0.61,-0.20,0.01,0.05,0.03,0.98,
0.801,0.61,-0.20,0.01,0.05,0.03,0.97,
0.802,0.58,-0.23,0.03,0.05,0.03,0.97,
0.802,0.58,-0.23,0.03,0.05,0.03,0.97,
0.802,0.58,-0.23,0.03,0.05,0.04,0.98,
0.803,0.54,-0.24,0.02,0.05,0.04,0.98,
0.803,0.54,-0.24,0.02,0.05,0.04,0.97,
0.805,0.54,-0.24,0.02,0.05,0.04,0.97,
0.805,0.50,-0.22,0.02,0.05,0.04,0.97,
0.807,0.50,-0.22,0.02,0.05,0.03,0.97,
0.809,0.50,-0.22,0.02,0.05,0.04,0.97,
0.809,0.50,-0.20,-0.01,0.05,0.04,0.97,
0.817,0.50,-0.20,-0.01,0.05,0.03,0.97,
0.817,0.50,-0.20,-0.01,0.06,0.03,0.97,
0.817,0.51,-0.20,-0.04,0.06,0.03,0.97,
0.817,0.51,-0.20,-0.04,0.06,0.04,0.96,
0.819,0.51,-0.20,-0.04,0.06,0.04,0.96,
0.819,0.55,-0.21,-0.07,0.06,0.04,0.96,
0.821,0.55,-0.21,-0.07,0.06,0.04,0.96,
0.824,0.55,-0.21,-0.07,0.06,0.04,0.96,
0.824,0.59,-0.18,-0.09,0.06,0.04,0.96,
0.826,0.59,-0.18,-0.09,0.07,0.04,0.97,
0.829,0.59,-0.18,-0.09,0.07,0.04,0.97,
0.829,0.64,-0.16,-0.10,0.07,0.04,0.97,
0.831,0.64,-0.16,-0.10,0.07,0.04,0.97,
0.833,0.64,-0.16,-0.10,0.07,0.04,0.97,
0.834,0.66,-0.11,-0.08,0.07,0.04,0.97,
0.836,0.66,-0.11,-0.08,0.07,0.04,0.97,
0.838,0.66,-0.11,-0.08,0.07,0.04,0.97,
0.838,0.67,-0.10,-0.04,0.07,0.04,0.97,
0.841,0.67,-0.10,-0.04,0.07,0.05,0.98,
0.843,0.67,-0.10,-0.04,0.07,0.05,0.98,
0.843,0.69,-0.09,0.00,0.07,0.05,0.98,
0.846,0.69,-0.09,0.00,0.07,0.05,0.98,
0.848,0.69,-0.09,0.00,0.07,0.05,0.98,
0.848,0.70,-0.04,0.04,0.07,0.05,0.98,
0.85,0.70,-0.04,0.04,0.07,0.05,0.98,
0.853,0.70,-0.04,0.04,0.08,0.05,0.98,
0.853,0.73,-0.04,0.07,0.08,0.05,0.98,
0.855,0.73,-0.04,0.07,0.07,0.05,0.98,
0.858,0.73,-0.04,0.07,0.07,0.05,0.98,
0.858,0.73,-0.00,0.08,0.07,0.05,0.98,
0.86,0.73,-0.00,0.08,0.07,0.05,0.98,
0.863,0.73,-0.00,0.08,0.07,0.05,0.98,
0.863,0.72,0.01,0.07,0.07,0.05,0.98,
0.865,0.72,0.01,0.07,0.07,0.05,0.98,
0.868,0.72,0.01,0.07,0.07,0.05,0.97,
0.868,0.71,0.03,0.04,0.07,0.05,0.97,
0.87,0.71,0.03,0.04,0.07,0.05,0.97,
0.873,0.71,0.03,0.04,0.07,0.05,0.97,
0.873,0.68,0.04,0.00,0.07,0.05,0.97,
0.875,0.68,0.04,0.00,0.07,0.05,0.97,
0.878,0.68,0.04,0.00,0.06,0.05,0.97,
0.879,0.64,0.05,-0.04,0.06,0.05,0.97,
0.88,0.64,0.05,-0.04,0.07,0.05,0.97,
0.882,0.64,0.05,-0.04,0.07,0.05,0.96,
0.883,0.62,0.06,-0.06,0.07,0.05,0.96,
0.885,0.62,0.06,-0.06,0.07,0.05,0.96,
0.888,0.62,0.06,-0.06,0.06,0.05,0.96,
0.888,0.63,0.04,-0.08,0.06,0.05,0.96,
0.89,0.63,0.04,-0.08,0.06,0.05,0.96,
0.892,0.63,0.04,-0.08,0.06,0.05,0.96,
0.893,0.61,0.05,-0.12,0.06,0.05,0.96,
0.896,0.61,0.05,-0.12,0.06,0.05,0.96,
0.897,0.61,0.05,-0.12,0.06,0.05,0.96,
0.897,0.58,0.05,-0.10,0.06,0.05,0.96,
0.9,0.58,0.05,-0.10,0.06,0.06,0.96,
0.902,0.58,0.05,-0.10,0.06,0.06,0.96,
0.902,0.57,0.07,-0.11,0.06,0.06,0.96,
0.905,0.57,0.07,-0.11,0.06,0.06,0.97,
0.907,0.57,0.07,-0.11,0.07,0.05,0.97,
0.907,0.58,0.11,-0.09,0.07,0.05,0.97,
0.909,0.58,0.11,-0.09,0.07,0.05,0.97,
0.917,0.58,0.11,-0.09,0.07,0.06,0.97,
0.918,0.60,0.11,-0.06,0.07,0.06,0.97,
0.918,0.60,0.11,-0.06,0.07,0.06,0.98,
0.919,0.60,0.11,-0.06,0.08,0.06,0.98,
0.919,0.64,0.12,-0.02,0.08,0.06,0.98,
0.92,0.64,0.12,-0.02,0.08,0.06,0.98,
0.922,0.64,0.12,-0.02,0.08,0.06,0.99,
0.922,0.68,0.15,0.04,0.08,0.06,0.99,
0.924,0.68,0.15,0.04,0.08,0.06,0.99,
0.927,0.68,0.15,0.04,0.08,0.06,1.00,
0.927,0.71,0.19,0.12,0.08,0.06,1.00,
0.93,0.71,0.19,0.12,0.09,0.06,1.00,
0.931,0.71,0.19,0.12,0.09,0.07,1.00,
0.932,0.74,0.21,0.20,0.09,0.07,1.00,
0.934,0.74,0.21,0.20,0.09,0.07,1.01,
0.936,0.74,0.21,0.20,0.09,0.07,1.01,
0.936,0.76,0.24,0.27,0.09,0.07,1.01,
0.939,0.76,0.24,0.27,0.09,0.07,1.01,
0.941,0.76,0.24,0.27,0.09,0.07,1.01,
0.941,0.77,0.28,0.32,0.09,0.07,1.01,
0.944,0.77,0.28,0.32,0.09,0.07,1.01,
0.946,0.77,0.28,0.32,0.09,0.07,1.01,
0.946,0.74,0.28,0.35,0.09,0.07,1.01,
0.948,0.74,0.28,0.35,0.08,0.07,1.01,
0.951,0.74,0.28,0.35,0.08,0.07,1.01,
0.951,0.73,0.30,0.37,0.08,0.07,1.01,
0.953,0.73,0.30,0.37,0.08,0.07,1.01,
0.956,0.73,0.30,0.37,0.08,0.07,1.01,
0.956,0.70,0.29,0.34,0.08,0.07,1.01,
0.958,0.70,0.29,0.34,0.08,0.07,1.00,
0.961,0.70,0.29,0.34,0.08,0.07,1.00,
0.961,0.67,0.31,0.32,0.08,0.07,1.00,
0.963,0.67,0.31,0.32,0.08,0.07,1.00,
0.966,0.67,0.31,0.32,0.08,0.07,1.00,
0.966,0.65,0.29,0.27,0.08,0.07,1.00,
0.968,0.65,0.29,0.27,0.08,0.07,1.00,
0.971,0.65,0.29,0.27,0.08,0.07,0.99,
0.971,0.63,0.28,0.24,0.08,0.07,0.99,
0.973,0.63,0.28,0.24,0.08,0.07,0.99,
0.975,0.63,0.28,0.24,0.08,0.07,0.99,
0.976,0.64,0.29,0.18,0.08,0.07,0.99,
0.978,0.64,0.29,0.18,0.08,0.07,0.99,
0.981,0.64,0.29,0.18,0.08,0.07,0.99,
0.982,0.65,0.29,0.14,0.08,0.07,0.99,
0.983,0.65,0.29,0.14,0.09,0.07,0.99,
0.985,0.65,0.29,0.14,0.09,0.07,0.99,
0.986,0.65,0.29,0.14,0.09,0.07,0.99,
0.988,0.65,0.29,0.14,0.08,0.07,0.99,
0.991,0.65,0.29,0.14,0.08,0.07,0.99,
0.991,0.68,0.29,0.12,0.08,0.07,0.99,
0.993,0.68,0.29,0.12,0.08,0.07,0.99,
0.996,0.68,0.29,0.12,0.09,0.07,0.99,
0.997,0.66,0.29,0.13,0.09,0.07,0.99,
0.997,0.66,0.29,0.13,0.08,0.07,0.99,
1.0,0.66,0.29,0.13,0.08,0.07,0.99,
1.0,0.66,0.28,0.16,0.08,0.07,0.99,
1.002,0.66,0.28,0.16,0.09,0.07,0.99,
1.005,0.66,0.28,0.16,0.09,0.07,0.99,
1.005,0.66,0.30,0.16,0.09,0.07,0.99,
1.008,0.66,0.30,0.16,0.09,0.07,0.99,
1.01,0.66,0.30,0.16,0.09,0.07,0.99,
1.01,0.67,0.30,0.17,0.09,0.07,0.99,
1.018,0.67,0.30,0.17,0.09,0.07,0.99,
1.018,0.67,0.30,0.17,0.09,0.07,0.99,
1.02,0.68,0.34,0.14,0.09,0.07,0.99,
1.021,0.68,0.34,0.14,0.10,0.08,0.99,
1.021,0.68,0.34,0.14,0.10,0.08,0.98,
1.021,0.71,0.35,0.11,0.10,0.08,0.98,
1.022,0.71,0.35,0.11,0.10,0.08,0.98,
1.025,0.71,0.35,0.11,0.11,0.08,0.98,
1.025,0.76,0.37,0.07,0.11,0.08,0.98,
1.027,0.76,0.37,0.07,0.11,0.08,0.97,
1.03,0.76,0.37,0.07,0.12,0.08,0.97,
1.031,0.82,0.39,0.01,0.12,0.08,0.97,
1.032,0.82,0.39,0.01,0.12,0.08,0.97,
1.034,0.82,0.39,0.01,0.12,0.08,0.96,
1.035,0.88,0.39,-0.07,0.12,0.08,0.96,
1.037,0.88,0.39,-0.07,0.12,0.08,0.96,
1.039,0.88,0.39,-0.07,0.12,0.08,0.96,
1.039,0.92,0.42,-0.14,0.12,0.08,0.96,
1.042,0.92,0.42,-0.14,0.12,0.08,0.95,
1.044,0.92,0.42,-0.14,0.12,0.08,0.95,
1.045,0.94,0.43,-0.19,0.12,0.08,0.95,
1.046,0.94,0.43,-0.19,0.12,0.08,0.95,
1.049,0.94,0.43,-0.19,0.12,0.08,0.95,
1.05,0.94,0.41,-0.23,0.12,0.08,0.95,
1.051,0.94,0.41,-0.23,0.12,0.08,0.95,
1.054,0.94,0.41,-0.23,0.12,0.08,0.96,
1.054,0.92,0.39,-0.22,0.12,0.08,0.96,
1.056,0.92,0.39,-0.22,0.12,0.08,0.96,
1.059,0.92,0.39,-0.22,0.12,0.08,0.96,
1.059,0.89,0.38,-0.22,0.12,0.08,0.96,
1.062,0.89,0.38,-0.22,0.11,0.08,0.96,
1.064,0.89,0.38,-0.22,0.11,0.07,0.97,
1.064,0.84,0.36,-0.17,0.11,0.07,0.97,
1.066,0.84,0.36,-0.17,0.11,0.07,0.97,
1.068,0.84,0.36,-0.17,0.11,0.07,0.97,
1.069,0.80,0.34,-0.12,0.11,0.07,0.97,
1.071,0.80,0.34,-0.12,0.11,0.07,0.98,
1.073,0.80,0.34,-0.12,0.10,0.07,0.98,
1.074,0.75,0.30,-0.05,0.10,0.07,0.98,
1.076,0.75,0.30,-0.05,0.10,0.07,0.98,
1.078,0.75,0.30,-0.05,0.10,0.07,0.99,
1.079,0.70,0.27,0.02,0.10,0.07,0.99,
1.081,0.70,0.27,0.02,0.10,0.06,0.99,
1.083,0.70,0.27,0.02,0.10,0.07,0.99,
1.084,0.66,0.26,0.08,0.10,0.07,0.99,
1.085,0.66,0.26,0.08,0.10,0.07,1.00,
1.088,0.66,0.26,0.08,0.10,0.07,1.00,
1.088,0.62,0.26,0.16,0.10,0.07,1.00,
1.09,0.62,0.26,0.16,0.10,0.07,1.00,
1.093,0.62,0.26,0.16,0.10,0.07,1.01,
1.094,0.62,0.26,0.23,0.10,0.07,1.01,
1.102,0.62,0.26,0.23,0.10,0.06,1.01,
1.102,0.62,0.26,0.23,0.11,0.06,1.01,
1.103,0.61,0.26,0.27,0.11,0.06,1.01,
1.103,0.61,0.26,0.27,0.11,0.06,1.00,
1.103,0.61,0.26,0.27,0.11,0.06,1.00,
1.103,0.64,0.22,0.28,0.11,0.06,1.00,
1.105,0.64,0.22,0.28,0.11,0.06,1.00,
1.108,0.64,0.22,0.28,0.11,0.06,1.00,
1.108,0.64,0.21,0.26,0.11,0.06,1.00,
1.11,0.64,0.21,0.26,0.11,0.06,0.99,
1.113,0.64,0.21,0.26,0.11,0.06,0.99,
1.113,0.67,0.23,0.22,0.11,0.06,0.99,
1.115,0.67,0.23,0.22,0.11,0.06,0.99,
1.117,0.67,0.23,0.22,0.11,0.07,0.99,
1.117,0.67,0.22,0.16,0.11,0.07,0.99,
1.12,0.67,0.22,0.16,0.11,0.07,0.98,
1.122,0.67,0.22,0.16,0.11,0.06,0.98,
1.123,0.68,0.24,0.12,0.11,0.06,0.98,
1.125,0.68,0.24,0.12,0.11,0.07,0.98,
1.129,0.68,0.24,0.12,0.11,0.07,0.98,
1.13,0.64,0.25,0.05,0.11,0.07,0.98,
1.13,0.64,0.25,0.05,0.11,0.07,0.97,
1.132,0.64,0.25,0.05,0.11,0.07,0.97,
1.132,0.65,0.25,0.00,0.11,0.07,0.97,
1.135,0.65,0.25,0.00,0.11,0.07,0.97,
1.137,0.65,0.25,0.00,0.11,0.07,0.96,
1.137,0.62,0.26,-0.07,0.11,0.07,0.96,
1.139,0.62,0.26,-0.07,0.11,0.07,0.96,
1.142,0.62,0.26,-0.07,0.11,0.07,0.96,
1.142,0.58,0.29,-0.12,0.11,0.07,0.96,
1.144,0.58,0.29,-0.12,0.12,0.08,0.96,
1.147,0.58,0.29,-0.12,0.11,0.08,0.96,
1.147,0.59,0.32,-0.16,0.11,0.08,0.96,
1.149,0.59,0.32,-0.16,0.12,0.08,0.95,
1.152,0.59,0.32,-0.16,0.11,0.08,0.95,
1.152,0.60,0.34,-0.19,0.11,0.08,0.95,
1.154,0.60,0.34,-0.19,0.11,0.08,0.95,
1.157,0.60,0.34,-0.19,0.11,0.08,0.95,
1.157,0.59,0.36,-0.22,0.11,0.08,0.95,
1.159,0.59,0.36,-0.22,0.11,0.08,0.95,
1.162,0.59,0.36,-0.22,0.12,0.08,0.96,
1.162,0.56,0.37,-0.23,0.12,0.08,0.96,
1.164,0.56,0.37,-0.23,0.12,0.08,0.96,
1.167,0.56,0.37,-0.23,0.12,0.08,0.96,
1.167,0.56,0.37,-0.20,0.12,0.08,0.96,
1.169,0.56,0.37,-0.20,0.12,0.08,0.96,
1.171,0.56,0.37,-0.20,0.12,0.08,0.96,
1.172,0.57,0.37,-0.17,0.12,0.08,0.96,
1.174,0.57,0.37,-0.17,0.12,0.08,0.97,
1.177,0.57,0.37,-0.17,0.12,0.08,0.97,
1.177,0.56,0.36,-0.14,0.12,0.08,0.97,
1.18,0.56,0.36,-0.14,0.12,0.08,0.97,
1.182,0.56,0.36,-0.14,0.12,0.08,0.98,
1.183,0.55,0.36,-0.09,0.12,0.08,0.98,
1.184,0.55,0.36,-0.09,0.12,0.08,0.98,
1.186,0.55,0.36,-0.09,0.12,0.08,0.98,
1.186,0.53,0.36,-0.02,0.12,0.08,0.98,
1.188,0.53,0.36,-0.02,0.11,0.08,0.98,
1.191,0.53,0.36,-0.02,0.11,0.08,0.99,
1.191,0.50,0.35,0.04,0.11,0.08,0.99,
1.193,0.50,0.35,0.04,0.11,0.08,0.99,
1.196,0.50,0.35,0.04,0.11,0.08,1.00,
1.197,0.46,0.36,0.10,0.11,0.08,1.00,
1.199,0.46,0.36,0.10,0.11,0.08,1.01,
1.201,0.46,0.36,0.10,0.11,0.08,1.01,
1.201,0.42,0.36,0.21,0.11,0.08,1.01,
1.203,0.42,0.36,0.21,0.11,0.07,1.02,
1.206,0.42,0.36,0.21,0.11,0.07,1.02,
1.206,0.37,0.32,0.33,0.11,0.07,1.02,
1.208,0.37,0.32,0.33,0.10,0.07,1.03,
1.217,0.37,0.32,0.33,0.10,0.07,1.03,
1.217,0.35,0.28,0.42,0.10,0.07,1.03,
1.218,0.35,0.28,0.42,0.10,0.07,1.03,
1.218,0.35,0.28,0.42,0.09,0.07,1.03,
1.218,0.31,0.27,0.50,0.09,0.07,1.03,
1.219,0.31,0.27,0.50,0.09,0.07,1.03,
1.22,0.31,0.27,0.50,0.09,0.07,1.03,
1.221,0.23,0.24,0.53,0.09,0.07,1.03,
1.223,0.23,0.24,0.53,0.09,0.07,1.04,
1.225,0.23,0.24,0.53,0.08,0.06,1.03,
1.225,0.16,0.22,0.56,0.08,0.06,1.03,
1.232,0.16,0.22,0.56,0.08,0.06,1.03,
1.233,0.16,0.22,0.56,0.08,0.06,1.03,
1.233,0.11,0.19,0.55,0.08,0.06,1.03,
1.233,0.11,0.19,0.55,0.08,0.06,1.03,
1.235,0.11,0.19,0.55,0.08,0.06,1.03,
1.235,0.07,0.18,0.53,0.08,0.06,1.03,
1.237,0.07,0.18,0.53,0.08,0.06,1.03,
1.24,0.07,0.18,0.53,0.08,0.06,1.02,
1.24,0.05,0.16,0.49,0.08,0.06,1.02,
1.242,0.05,0.16,0.49,0.08,0.06,1.02,
1.245,0.05,0.16,0.49,0.08,0.06,1.02,
1.245,0.05,0.15,0.44,0.08,0.06,1.02,
1.248,0.05,0.15,0.44,0.08,0.07,1.01,
1.25,0.05,0.15,0.44,0.08,0.07,1.01,
1.25,0.04,0.17,0.39,0.08,0.07,1.01,
1.252,0.04,0.17,0.39,0.08,0.07,1.01,
1.255,0.04,0.17,0.39,0.08,0.07,1.00,
1.255,0.03,0.18,0.31,0.08,0.07,1.00,
1.257,0.03,0.18,0.31,0.08,0.07,0.99,
1.26,0.03,0.18,0.31,0.08,0.07,0.99,
1.26,0.03,0.17,0.23,0.08,0.07,0.99,
1.262,0.03,0.17,0.23,0.07,0.07,0.99,
1.265,0.03,0.17,0.23,0.07,0.07,0.98,
1.265,-0.00,0.16,0.13,0.07,0.07,0.98,
1.267,-0.00,0.16,0.13,0.07,0.07,0.98,
1.269,-0.00,0.16,0.13,0.07,0.07,0.97,
1.27,-0.06,0.15,0.06,0.07,0.07,0.97,
1.272,-0.06,0.15,0.06,0.06,0.06,0.97,
1.274,-0.06,0.15,0.06,0.06,0.06,0.96,
1.274,-0.11,0.14,-0.03,0.06,0.06,0.96,
1.277,-0.11,0.14,-0.03,0.05,0.06,0.96,
1.279,-0.11,0.14,-0.03,0.05,0.06,0.96,
1.28,-0.18,0.11,-0.13,0.05,0.06,0.96,
1.282,-0.18,0.11,-0.13,0.05,0.06,0.96,
1.284,-0.18,0.11,-0.13,0.04,0.05,0.95,
1.284,-0.26,0.07,-0.18,0.04,0.05,0.95,
1.286,-0.26,0.07,-0.18,0.04,0.05,0.95,
1.289,-0.26,0.07,-0.18,0.03,0.05,0.95,
1.289,-0.33,0.01,-0.24,0.03,0.05,0.95,
1.291,-0.33,0.01,-0.24,0.03,0.05,0.95,
1.3,-0.33,0.01,-0.24,0.03,0.05,0.95,
1.301,-0.44,-0.04,-0.25,0.03,0.05,0.95,
1.301,-0.44,-0.04,-0.25,0.03,0.04,0.95,
1.301,-0.44,-0.04,-0.25,0.02,0.04,0.95,
1.302,-0.50,-0.07,-0.25,0.02,0.04,0.95,
1.302,-0.50,-0.07,-0.25,0.02,0.04,0.96,
1.304,-0.50,-0.07,-0.25,0.02,0.04,0.96,
1.304,-0.56,-0.11,-0.24,0.02,0.04,0.96,
1.306,-0.56,-0.11,-0.24,0.02,0.04,0.96,
1.308,-0.56,-0.11,-0.24,0.02,0.04,0.97,
1.309,-0.60,-0.15,-0.18,0.02,0.04,0.97,
1.314,-0.60,-0.15,-0.18,0.02,0.04,0.97,
1.314,-0.60,-0.15,-0.18,0.02,0.04,0.98,
1.314,-0.59,-0.18,-0.10,0.02,0.04,0.98,
1.316,-0.59,-0.18,-0.10,0.02,0.04,0.98,
1.318,-0.59,-0.18,-0.10,0.03,0.03,0.99,
1.318,-0.58,-0.18,-0.02,0.03,0.03,0.99,
1.32,-0.58,-0.18,-0.02,0.03,0.03,0.99,
1.323,-0.58,-0.18,-0.02,0.03,0.03,1.00,
1.323,-0.57,-0.20,0.07,0.03,0.03,1.00,
1.326,-0.57,-0.20,0.07,0.03,0.03,1.00,
1.328,-0.57,-0.20,0.07,0.03,0.03,1.00,
1.328,-0.55,-0.22,0.15,0.03,0.03,1.00,
1.33,-0.55,-0.22,0.15,0.04,0.03,1.00,
1.333,-0.55,-0.22,0.15,0.04,0.03,1.00,
1.334,-0.51,-0.22,0.21,0.04,0.03,1.00,
1.335,-0.51,-0.22,0.21,0.04,0.03,1.00,
1.338,-0.51,-0.22,0.21,0.04,0.03,1.00,
1.338,-0.47,-0.22,0.23,0.04,0.03,1.00,
1.34,-0.47,-0.22,0.23,0.05,0.03,1.00,
1.343,-0.47,-0.22,0.23,0.05,0.03,1.00,
1.343,-0.43,-0.24,0.23,0.05,0.03,1.00,
1.345,-0.43,-0.24,0.23,0.05,0.03,1.00,
1.348,-0.43,-0.24,0.23,0.05,0.03,1.00,
1.348,-0.37,-0.27,0.21,0.05,0.03,1.00,
1.35,-0.37,-0.27,0.21,0.05,0.03,0.99,
1.353,-0.37,-0.27,0.21,0.05,0.03,0.99,
1.353,-0.33,-0.27,0.20,0.05,0.03,0.99,
1.355,-0.33,-0.27,0.20,0.05,0.03,0.99,
1.357,-0.33,-0.27,0.20,0.05,0.03,0.98,
1.358,-0.34,-0.30,0.15,0.05,0.03,0.98,
1.36,-0.34,-0.30,0.15,0.05,0.02,0.98,
1.363,-0.34,-0.30,0.15,0.05,0.02,0.97,
1.364,-0.36,-0.34,0.07,0.05,0.02,0.97,
1.365,-0.36,-0.34,0.07,0.04,0.02,0.97,
1.368,-0.36,-0.34,0.07,0.04,0.01,0.96,
1.368,-0.40,-0.40,-0.02,0.04,0.01,0.96,
1.37,-0.40,-0.40,-0.02,0.03,0.01,0.95,
1.372,-0.40,-0.40,-0.02,0.03,0.01,0.95,
1.372,-0.49,-0.47,-0.15,0.03,0.01,0.95,
1.375,-0.49,-0.47,-0.15,0.02,0.01,0.94,
1.378,-0.49,-0.47,-0.15,0.02,0.00,0.94,
1.378,-0.57,-0.52,-0.27,0.02,0.00,0.94,
1.379,-0.57,-0.52,-0.27,0.01,0.00,0.93,
1.382,-0.57,-0.52,-0.27,0.01,-0.00,0.93,
1.383,-0.67,-0.59,-0.38,0.01,-0.00,0.93,
1.384,-0.67,-0.59,-0.38,0.00,-0.00,0.92,
1.387,-0.67,-0.59,-0.38,0.00,-0.00,0.92,
1.387,-0.78,-0.63,-0.46,0.00,-0.00,0.92,
1.389,-0.78,-0.63,-0.46,0.00,-0.00,0.91,
1.392,-0.78,-0.63,-0.46,-0.00,-0.00,0.91,
1.393,-0.86,-0.66,-0.56,-0.00,-0.00,0.91,
1.395,-0.86,-0.66,-0.56,-0.00,-0.00,0.91,
1.397,-0.86,-0.66,-0.56,-0.00,-0.00,0.91,
1.397,-0.88,-0.66,-0.61,-0.00,-0.00,0.91,
1.399,-0.88,-0.66,-0.61,-0.00,-0.00,0.91,
1.402,-0.88,-0.66,-0.61,-0.00,-0.01,0.91,
1.402,-0.91,-0.65,-0.65,-0.00,-0.01,0.91,
1.404,-0.91,-0.65,-0.65,-0.00,-0.01,0.91,
1.406,-0.91,-0.65,-0.65,-0.00,-0.00,0.92,
1.407,-0.90,-0.67,-0.61,-0.00,-0.00,0.92,
1.409,-0.90,-0.67,-0.61,-0.01,-0.01,0.92,
1.417,-0.90,-0.67,-0.61,-0.01,-0.01,0.93,
1.417,-0.90,-0.67,-0.58,-0.01,-0.01,0.93,
1.417,-0.90,-0.67,-0.58,-0.00,-0.01,0.93,
1.418,-0.90,-0.67,-0.58,-0.01,-0.01,0.94,
1.418,-0.92,-0.67,-0.48,-0.01,-0.01,0.94,
1.419,-0.92,-0.67,-0.48,-0.01,-0.01,0.95,
1.421,-0.92,-0.67,-0.48,-0.00,-0.02,0.96,
1.421,-0.91,-0.70,-0.34,-0.00,-0.02,0.96,
1.424,-0.91,-0.70,-0.34,-0.00,-0.02,0.97,
1.426,-0.91,-0.70,-0.34,-0.00,-0.02,0.98,
1.426,-0.91,-0.74,-0.16,-0.00,-0.02,0.98,
1.431,-0.91,-0.74,-0.16,-0.00,-0.02,0.99,
1.431,-0.91,-0.74,-0.16,-0.00,-0.02,1.00,
1.431,-0.90,-0.78,0.03,-0.00,-0.02,1.00,
1.433,-0.90,-0.78,0.03,-0.00,-0.02,1.00,
1.436,-0.90,-0.78,0.03,-0.00,-0.03,1.01,
1.436,-0.87,-0.79,0.20,-0.00,-0.03,1.01,
1.438,-0.87,-0.79,0.20,-0.00,-0.03,1.01,
1.44,-0.87,-0.79,0.20,-0.00,-0.03,1.01,
1.441,-0.88,-0.81,0.32,-0.00,-0.03,1.01,
1.443,-0.88,-0.81,0.32,-0.00,-0.03,1.01,
1.445,-0.88,-0.81,0.32,-0.01,-0.03,1.01,
1.446,-0.90,-0.82,0.38,-0.01,-0.03,1.01,
1.448,-0.90,-0.82,0.38,-0.01,-0.03,1.01,
1.45,-0.90,-0.82,0.38,-0.01,-0.03,1.00,
1.451,-0.92,-0.84,0.38,-0.01,-0.03,1.00,
1.453,-0.92,-0.84,0.38,-0.01,-0.03,1.00,
1.455,-0.92,-0.84,0.38,-0.01,-0.03,0.99,
1.456,-0.94,-0.87,0.31,-0.01,-0.03,0.99,
1.458,-0.94,-0.87,0.31,-0.01,-0.03,0.98,
1.461,-0.94,-0.87,0.31,-0.01,-0.03,0.97,
1.461,-0.97,-0.86,0.19,-0.01,-0.03,0.97,
1.463,-0.97,-0.86,0.19,-0.01,-0.03,0.96,
1.465,-0.97,-0.86,0.19,-0.01,-0.03,0.96,
1.466,-0.99,-0.85,0.04,-0.01,-0.03,0.96,
1.468,-0.99,-0.85,0.04,-0.01,-0.03,0.95,
1.47,-0.99,-0.85,0.04,-0.01,-0.03,0.94,
1.47,-1.01,-0.84,-0.12,-0.01,-0.03,0.94,
1.472,-1.01,-0.84,-0.12,-0.01,-0.02,0.94,
1.475,-1.01,-0.84,-0.12,-0.01,-0.02,0.93,
1.475,-1.01,-0.81,-0.25,-0.01,-0.02,0.93,
1.477,-1.01,-0.81,-0.25,-0.01,-0.02,0.93,
1.48,-1.01,-0.81,-0.25,-0.01,-0.02,0.93,
1.48,-0.98,-0.76,-0.36,-0.01,-0.02,0.93,
1.482,-0.98,-0.76,-0.36,-0.01,-0.02,0.93,
1.485,-0.98,-0.76,-0.36,-0.01,-0.02,0.93,
1.485,-0.96,-0.73,-0.40,-0.01,-0.02,0.93,
1.487,-0.96,-0.73,-0.40,-0.01,-0.02,0.93,
1.49,-0.96,-0.73,-0.40,-0.01,-0.02,0.93,
1.49,-0.95,-0.68,-0.44,-0.01,-0.02,0.93,
1.493,-0.95,-0.68,-0.44,-0.01,-0.01,0.93,
1.495,-0.95,-0.68,-0.44,-0.01,-0.02,0.93,
1.496,-0.94,-0.66,-0.40,-0.01,-0.02,0.93,
1.497,-0.94,-0.66,-0.40,-0.01,-0.02,0.94,
1.5,-0.94,-0.66,-0.40,-0.01,-0.01,0.94,
1.5,-0.92,-0.64,-0.37,-0.01,-0.01,0.94,
1.502,-0.92,-0.64,-0.37,-0.00,-0.01,0.95,
1.505,-0.92,-0.64,-0.37,0.00,-0.01,0.96,
1.508,-0.91,-0.62,-0.29,0.00,-0.01,0.96,
1.51,-0.91,-0.62,-0.29,-0.00,-0.01,0.96,
1.511,-0.91,-0.62,-0.29,-0.00,-0.01,0.97,
1.511,-0.86,-0.60,-0.17,-0.00,-0.01,0.97,
1.512,-0.86,-0.60,-0.17,-0.00,-0.01,0.97,
1.523,-0.86,-0.60,-0.17,-0.01,-0.01,0.98,
1.524,-0.87,-0.57,-0.05,-0.01,-0.01,0.98,
1.524,-0.87,-0.57,-0.05,-0.00,-0.01,0.99,
1.524,-0.87,-0.57,-0.05,-0.00,-0.01,0.99,
1.524,-0.90,-0.55,0.07,-0.00,-0.01,0.99,
1.525,-0.90,-0.55,0.07,-0.01,-0.01,1.00,
1.525,-0.90,-0.55,0.07,-0.01,-0.01,1.00,
1.525,-0.89,-0.51,0.20,-0.01,-0.01,1.00,
1.527,-0.89,-0.51,0.20,-0.01,-0.01,1.00,
1.532,-0.89,-0.51,0.20,-0.01,-0.01,1.01,
1.533,-0.90,-0.49,0.29,-0.01,-0.01,1.01,
1.533,-0.90,-0.49,0.29,-0.00,-0.01,1.01,
1.534,-0.90,-0.49,0.29,-0.00,-0.01,1.01,
1.534,-0.90,-0.47,0.35,-0.00,-0.01,1.01,
1.536,-0.90,-0.47,0.35,-0.00,-0.00,1.01,
1.539,-0.90,-0.47,0.35,-0.00,-0.01,1.01,
1.539,-0.88,-0.44,0.39,-0.00,-0.01,1.01,
1.541,-0.88,-0.44,0.39,-0.00,-0.00,1.01,
1.544,-0.88,-0.44,0.39,0.00,0.00,1.01,
1.544,-0.86,-0.42,0.40,0.00,0.00,1.01,
1.546,-0.86,-0.42,0.40,0.00,0.01,1.01,
1.548,-0.86,-0.42,0.40,0.01,0.01,1.01,
1.549,-0.83,-0.35,0.40,0.01,0.01,1.01,
1.551,-0.83,-0.35,0.40,0.01,0.01,1.00,
1.553,-0.83,-0.35,0.40,0.01,0.01,1.00,
1.553,-0.78,-0.29,0.35,0.01,0.01,1.00,
1.556,-0.78,-0.29,0.35,0.01,0.01,0.99,
1.558,-0.78,-0.29,0.35,0.02,0.02,0.98,
1.558,-0.73,-0.25,0.25,0.02,0.02,0.98,
1.56,-0.73,-0.25,0.25,0.02,0.02,0.98,
1.563,-0.73,-0.25,0.25,0.02,0.02,0.97,
1.563,-0.66,-0.19,0.12,0.02,0.02,0.97,
1.565,-0.66,-0.19,0.12,0.02,0.02,0.97,
1.568,-0.66,-0.19,0.12,0.03,0.02,0.96,
1.568,-0.61,-0.16,0.02,0.03,0.02,0.96,
1.57,-0.61,-0.16,0.02,0.03,0.02,0.96,
1.573,-0.61,-0.16,0.02,0.03,0.02,0.96,
1.573,-0.56,-0.15,-0.06,0.03,0.02,0.96,
1.576,-0.56,-0.15,-0.06,0.03,0.02,0.95,
1.578,-0.56,-0.15,-0.06,0.03,0.02,0.95,
1.579,-0.51,-0.12,-0.14,0.03,0.02,0.95,
1.58,-0.51,-0.12,-0.14,0.03,0.02,0.94,
1.583,-0.51,-0.12,-0.14,0.03,0.02,0.94,
1.583,-0.49,-0.11,-0.22,0.03,0.02,0.94,
1.585,-0.49,-0.11,-0.22,0.03,0.02,0.94,
1.588,-0.49,-0.11,-0.22,0.03,0.02,0.94,
1.588,-0.49,-0.10,-0.29,0.03,0.02,0.94,
1.59,-0.49,-0.10,-0.29,0.02,0.02,0.93,
1.592,-0.49,-0.10,-0.29,0.02,0.02,0.93,
1.593,-0.54,-0.11,-0.34,0.02,0.02,0.93,
1.599,-0.54,-0.11,-0.34,0.01,0.02,0.93,
1.6,-0.54,-0.11,-0.34,0.01,0.02,0.92,
1.6,-0.60,-0.13,-0.39,0.01,0.02,0.92,
1.601,-0.60,-0.13,-0.39,0.00,0.01,0.92,
1.602,-0.60,-0.13,-0.39,0.00,0.01,0.92,
1.603,-0.68,-0.14,-0.45,0.00,0.01,0.92,
1.605,-0.68,-0.14,-0.45,-0.00,0.01,0.92,
1.607,-0.77,-0.18,-0.47,-0.00,0.01,0.92,
1.608,-0.77,-0.18,-0.47,-0.00,0.01,0.92,
1.61,-0.77,-0.18,-0.47,-0.00,0.00,0.92,
1.612,-0.77,-0.18,-0.47,-0.00,0.00,0.93,
1.612,-0.81,-0.21,-0.47,-0.00,0.00,0.93,
1.614,-0.81,-0.21,-0.47,-0.00,0.00,0.93,
1.617,-0.81,-0.21,-0.47,-0.00,0.00,0.94,
1.617,-0.80,-0.23,-0.42,-0.00,0.00,0.94,
1.619,-0.80,-0.23,-0.42,-0.00,0.01,0.94,
1.622,-0.80,-0.23,-0.42,-0.00,0.01,0.95,
1.622,-0.79,-0.21,-0.35,-0.00,0.01,0.95,
1.624,-0.79,-0.21,-0.35,-0.01,0.01,0.95,
1.627,-0.79,-0.21,-0.35,-0.00,0.01,0.96,
1.627,-0.78,-0.16,-0.25,-0.00,0.01,0.96,
1.629,-0.78,-0.16,-0.25,-0.00,0.01,0.97,
1.632,-0.78,-0.16,-0.25,-0.01,0.01,0.97,
1.632,-0.79,-0.13,-0.13,-0.01,0.01,0.97,
1.634,-0.79,-0.13,-0.13,-0.01,0.01,0.98,
1.637,-0.79,-0.13,-0.13,-0.01,0.02,0.99,
1.637,-0.78,-0.08,0.02,-0.01,0.02,0.99,
1.639,-0.78,-0.08,0.02,-0.01,0.02,0.99,
1.642,-0.78,-0.08,0.02,-0.00,0.02,1.00,
1.642,-0.78,-0.03,0.15,-0.00,0.02,1.00,
1.644,-0.78,-0.03,0.15,-0.01,0.02,1.00,
1.647,-0.78,-0.03,0.15,-0.01,0.02,1.00,
1.647,-0.76,0.02,0.25,-0.01,0.02,1.00,
1.649,-0.76,0.02,0.25,-0.01,0.02,1.01,
1.651,-0.76,0.02,0.25,-0.01,0.02,1.01,
1.652,-0.77,0.07,0.32,-0.01,0.02,1.01,
1.653,-0.77,0.07,0.32,-0.01,0.02,1.01,
1.656,-0.77,0.09,0.36,-0.01,0.02,1.01,
1.657,-0.77,0.09,0.36,-0.01,0.03,1.01,
1.659,-0.77,0.09,0.36,-0.01,0.03,1.01,
1.661,-0.77,0.09,0.36,-0.01,0.03,1.01,
1.662,-0.78,0.11,0.38,-0.01,0.03,1.01,
1.664,-0.78,0.11,0.38,-0.01,0.03,1.01,
1.666,-0.78,0.11,0.38,-0.01,0.02,1.01,
1.666,-0.78,0.14,0.38,-0.01,0.02,1.01,
1.669,-0.78,0.14,0.38,-0.01,0.02,1.01,
1.671,-0.78,0.14,0.38,-0.00,0.02,1.01,
1.671,-0.71,0.14,0.38,-0.00,0.02,1.01,
1.673,-0.71,0.14,0.38,-0.00,0.02,1.01,
1.676,-0.71,0.14,0.38,-0.00,0.02,1.02,
1.676,-0.68,0.14,0.40,-0.00,0.02,1.02,
1.678,-0.68,0.14,0.40,-0.00,0.02,1.02,
1.681,-0.68,0.14,0.40,-0.00,0.02,1.02,
1.681,-0.66,0.14,0.43,-0.00,0.02,1.02,
1.683,-0.66,0.14,0.43,-0.01,0.02,1.01,
1.685,-0.66,0.14,0.43,-0.01,0.02,1.01,
1.686,-0.67,0.14,0.44,-0.01,0.02,1.01,
1.688,-0.67,0.14,0.44,-0.01,0.02,1.01,
1.69,-0.67,0.14,0.44,-0.01,0.02,1.01,
1.691,-0.69,0.15,0.40,-0.01,0.02,1.01,
1.699,-0.69,0.15,0.40,-0.02,0.02,1.01,
1.699,-0.69,0.15,0.40,-0.02,0.02,1.01,
1.7,-0.72,0.13,0.38,-0.02,0.02,1.01,
1.7,-0.72,0.13,0.38,-0.02,0.02,1.00,
1.7,-0.72,0.13,0.38,-0.02,0.02,1.00,
1.7,-0.78,0.10,0.33,-0.02,0.02,1.00,
1.702,-0.78,0.10,0.33,-0.03,0.02,1.00,
1.705,-0.78,0.10,0.33,-0.03,0.02,0.99,
1.705,-0.82,0.11,0.26,-0.03,0.02,0.99,
1.708,-0.82,0.11,0.26,-0.03,0.02,0.99,
1.711,-0.82,0.11,0.26,-0.03,0.02,0.99,
1.711,-0.86,0.15,0.21,-0.03,0.02,0.99,
1.712,-0.86,0.15,0.21,-0.03,0.02,0.99,
1.715,-0.86,0.15,0.21,-0.03,0.02,0.99,
1.715,-0.87,0.17,0.16,-0.03,0.02,0.99,
1.717,-0.87,0.17,0.16,-0.03,0.03,0.99,
1.72,-0.87,0.17,0.16,-0.03,0.03,0.99,
1.72,-0.87,0.20,0.13,-0.03,0.03,0.99,
1.722,-0.87,0.20,0.13,-0.03,0.03,0.99,
1.725,-0.87,0.20,0.13,-0.03,0.03,0.99,
1.725,-0.84,0.25,0.14,-0.03,0.03,0.99,
1.728,-0.84,0.25,0.14,-0.02,0.04,0.99,
1.73,-0.84,0.25,0.14,-0.02,0.04,1.00,
1.73,-0.81,0.30,0.16,-0.02,0.04,1.00,
1.732,-0.81,0.30,0.16,-0.02,0.04,1.00,
1.734,-0.81,0.30,0.16,-0.01,0.04,1.01,
1.735,-0.76,0.37,0.21,-0.01,0.04,1.01,
1.737,-0.76,0.37,0.21,-0.01,0.04,1.01,
1.739,-0.76,0.37,0.21,-0.00,0.05,1.02,
1.74,-0.66,0.40,0.30,-0.00,0.05,1.02,
1.742,-0.66,0.40,0.30,-0.00,0.05,1.02,
1.744,-0.66,0.40,0.30,0.00,0.05,1.03,
1.745,-0.58,0.47,0.39,0.00,0.05,1.03,
1.747,-0.58,0.47,0.39,0.00,0.05,1.04,
1.749,-0.58,0.47,0.39,0.01,0.05,1.05,
1.749,-0.51,0.51,0.51,0.01,0.05,1.05,
1.751,-0.51,0.51,0.51,0.01,0.05,1.05,
1.754,-0.51,0.51,0.51,0.01,0.05,1.06,
1.754,-0.47,0.53,0.65,0.01,0.05,1.06,
1.756,-0.47,0.53,0.65,0.01,0.05,1.06,
1.759,-0.47,0.53,0.65,0.01,0.06,1.07,
1.759,-0.42,0.56,0.77,0.01,0.06,1.07,
1.762,-0.42,0.56,0.77,0.00,0.05,1.07,
1.764,-0.42,0.56,0.77,0.00,0.05,1.08,
1.764,-0.43,0.58,0.87,0.00,0.05,1.08,
1.766,-0.43,0.58,0.87,0.00,0.05,1.08,
1.769,-0.43,0.58,0.87,-0.00,0.05,1.08,
1.769,-0.47,0.58,0.93,-0.00,0.05,1.08,
1.771,-0.47,0.58,0.93,-0.00,0.05,1.08,
1.774,-0.47,0.58,0.93,-0.00,0.05,1.08,
1.774,-0.50,0.56,0.97,-0.00,0.05,1.08,
1.777,-0.50,0.56,0.97,-0.01,0.04,1.08,
1.779,-0.50,0.56,0.97,-0.01,0.04,1.07,
1.78,-0.52,0.52,0.95,-0.01,0.04,1.07,
1.781,-0.52,0.52,0.95,-0.01,0.04,1.07,
1.784,-0.52,0.52,0.95,-0.02,0.04,1.07,
1.784,-0.58,0.45,0.91,-0.02,0.04,1.07,
1.786,-0.58,0.45,0.91,-0.02,0.04,1.06,
1.788,-0.58,0.45,0.91,-0.02,0.03,1.05,
1.789,-0.64,0.41,0.84,-0.02,0.03,1.05,
1.791,-0.64,0.41,0.84,-0.03,0.03,1.05,
1.794,-0.64,0.41,0.84,-0.04,0.03,1.04,
1.794,-0.70,0.38,0.72,-0.04,0.03,1.04,
1.796,-0.70,0.38,0.72,-0.04,0.04,1.04,
1.798,-0.70,0.38,0.72,-0.04,0.04,1.03,
1.799,-0.79,0.37,0.62,-0.04,0.04,1.03,
1.8,-0.79,0.37,0.62,-0.04,0.04,1.03,
1.803,-0.79,0.37,0.62,-0.05,0.04,1.02,
1.803,-0.85,0.40,0.52,-0.05,0.04,1.02,
1.806,-0.85,0.40,0.52,-0.05,0.04,1.02,
1.808,-0.87,0.42,0.40,-0.05,0.04,1.02,
1.809,-0.87,0.42,0.40,-0.05,0.04,1.02,
1.817,-0.87,0.42,0.40,-0.04,0.05,1.02,
1.818,-0.87,0.42,0.40,-0.04,0.05,1.01,
1.818,-0.85,0.47,0.34,-0.04,0.05,1.01,
1.819,-0.85,0.47,0.34,-0.04,0.06,1.01,
1.819,-0.85,0.47,0.34,-0.04,0.06,1.01,
1.819,-0.79,0.53,0.30,-0.04,0.06,1.01,
1.82,-0.79,0.53,0.30,-0.04,0.06,1.01,
1.823,-0.79,0.53,0.30,-0.04,0.06,1.01,
1.823,-0.74,0.59,0.27,-0.04,0.06,1.01,
1.825,-0.74,0.59,0.27,-0.04,0.06,1.01,
1.832,-0.74,0.59,0.27,-0.04,0.06,1.00,
1.833,-0.70,0.64,0.23,-0.04,0.06,1.00,
1.833,-0.70,0.64,0.23,-0.03,0.06,1.00,
1.835,-0.70,0.64,0.23,-0.04,0.06,1.00,
1.835,-0.68,0.65,0.19,-0.04,0.06,1.00,
1.835,-0.68,0.65,0.19,-0.04,0.06,1.00,
1.837,-0.68,0.65,0.19,-0.04,0.06,1.00,
1.837,-0.66,0.67,0.15,-0.04,0.06,1.00,
1.84,-0.66,0.67,0.15,-0.04,0.06,1.00,
1.842,-0.66,0.67,0.15,-0.04,0.06,1.00,
1.843,-0.68,0.67,0.13,-0.04,0.06,1.00,
1.845,-0.68,0.67,0.13,-0.04,0.06,0.99,
1.848,-0.68,0.67,0.13,-0.04,0.06,1.00,
1.848,-0.67,0.64,0.11,-0.04,0.06,1.00,
1.849,-0.67,0.64,0.11,-0.04,0.06,1.00,
1.852,-0.67,0.64,0.11,-0.04,0.06,1.00,
1.852,-0.66,0.62,0.08,-0.04,0.06,1.00,
1.854,-0.66,0.62,0.08,-0.03,0.05,1.00,
1.857,-0.66,0.62,0.08,-0.03,0.05,1.00,
1.857,-0.66,0.61,0.13,-0.03,0.05,1.00,
1.86,-0.66,0.61,0.13,-0.03,0.05,1.01,
1.862,-0.66,0.61,0.13,-0.03,0.05,1.01,
1.862,-0.60,0.55,0.17,-0.03,0.05,1.01,
1.865,-0.60,0.55,0.17,-0.03,0.05,1.02,
1.867,-0.60,0.55,0.17,-0.02,0.05,1.02,
1.867,-0.56,0.50,0.24,-0.02,0.05,1.02,
1.869,-0.56,0.50,0.24,-0.02,0.05,1.02,
1.872,-0.56,0.50,0.24,-0.02,0.05,1.02,
1.872,-0.51,0.50,0.30,-0.02,0.05,1.02,
1.874,-0.51,0.50,0.30,-0.02,0.05,1.02,
1.877,-0.51,0.50,0.30,-0.01,0.05,1.03,
1.878,-0.46,0.49,0.34,-0.01,0.05,1.03,
1.879,-0.46,0.49,0.34,-0.01,0.06,1.03,
1.882,-0.46,0.49,0.34,-0.00,0.06,1.03,
1.882,-0.39,0.55,0.37,-0.00,0.06,1.03,
1.884,-0.39,0.55,0.37,-0.00,0.06,1.03,
1.886,-0.39,0.55,0.37,0.00,0.06,1.03,
1.887,-0.31,0.57,0.39,0.00,0.06,1.03,
1.889,-0.31,0.57,0.39,0.01,0.06,1.03,
1.891,-0.31,0.57,0.39,0.01,0.06,1.03,
1.892,-0.24,0.61,0.39,0.01,0.06,1.03,
1.894,-0.24,0.61,0.39,0.01,0.07,1.02,
1.896,-0.24,0.61,0.39,0.02,0.07,1.02,
1.897,-0.16,0.64,0.38,0.02,0.07,1.02,
1.899,-0.16,0.64,0.38,0.02,0.07,1.02,
1.901,-0.16,0.64,0.38,0.02,0.07,1.01,
1.901,-0.08,0.65,0.33,0.02,0.07,1.01,
1.903,-0.08,0.65,0.33,0.03,0.07,1.01,
1.906,-0.08,0.65,0.33,0.03,0.08,1.00,
1.906,-0.03,0.69,0.26,0.03,0.08,1.00,
1.908,-0.03,0.69,0.26,0.03,0.08,1.00,
1.916,-0.03,0.69,0.26,0.03,0.08,1.00,
1.917,0.02,0.71,0.17,0.03,0.08,1.00,
1.917,0.02,0.71,0.17,0.03,0.08,0.99,
1.918,0.02,0.71,0.17,0.03,0.08,0.98,
1.918,0.04,0.74,0.10,0.03,0.08,0.98,
1.918,0.04,0.74,0.10,0.03,0.08,0.98,
1.921,0.04,0.74,0.10,0.03,0.07,0.97,
1.921,0.03,0.72,-0.02,0.03,0.07,0.97,
1.923,0.03,0.72,-0.02,0.03,0.07,0.96,
1.926,0.03,0.72,-0.02,0.03,0.07,0.96,
1.926,0.05,0.67,-0.15,0.03,0.07,0.96,
1.932,0.05,0.67,-0.15,0.03,0.07,0.95,
1.933,0.05,0.67,-0.15,0.02,0.06,0.94,
1.933,0.05,0.60,-0.28,0.02,0.06,0.94,
1.933,0.05,0.60,-0.28,0.02,0.06,0.94,
1.935,0.05,0.60,-0.28,0.02,0.06,0.93,
1.936,0.02,0.55,-0.39,0.02,0.06,0.93,
1.938,0.02,0.55,-0.39,0.02,0.05,0.93,
1.94,0.02,0.55,-0.39,0.02,0.05,0.93,
1.94,-0.01,0.47,-0.49,0.02,0.05,0.93,
1.943,-0.01,0.47,-0.49,0.02,0.05,0.93,
1.945,-0.01,0.47,-0.49,0.02,0.05,0.93,
1.946,-0.03,0.40,-0.55,0.02,0.05,0.93,
1.948,-0.03,0.40,-0.55,0.02,0.04,0.93,
1.95,-0.03,0.40,-0.55,0.02,0.04,0.93,
1.951,-0.03,0.36,-0.57,0.02,0.04,0.93,
1.952,-0.03,0.36,-0.57,0.02,0.04,0.93,
1.955,-0.03,0.36,-0.57,0.02,0.04,0.93,
1.955,-0.03,0.32,-0.59,0.02,0.04,0.93,
1.957,-0.03,0.32,-0.59,0.02,0.04,0.94,
1.96,-0.03,0.32,-0.59,0.02,0.04,0.94,
1.96,-0.02,0.32,-0.54,0.02,0.04,0.94,
1.962,-0.02,0.32,-0.54,0.02,0.04,0.95,
1.965,-0.02,0.32,-0.54,0.03,0.04,0.96,
1.965,-0.01,0.31,-0.44,0.03,0.04,0.96,
1.967,-0.01,0.31,-0.44,0.03,0.05,0.97,
1.969,-0.01,0.31,-0.44,0.03,0.05,0.97,
1.97,0.07,0.34,-0.30,0.03,0.05,0.97,
1.972,0.07,0.34,-0.30,0.04,0.05,0.98,
1.974,0.07,0.34,-0.30,0.04,0.05,0.98,
1.975,0.14,0.36,-0.16,0.04,0.05,0.98,
1.977,0.14,0.36,-0.16,0.05,0.05,0.98,
1.979,0.14,0.36,-0.16,0.05,0.05,0.99,
1.98,0.22,0.39,-0.07,0.05,0.05,0.99,
1.982,0.22,0.39,-0.07,0.05,0.05,0.99,
1.984,0.22,0.39,-0.07,0.05,0.05,0.98,
1.985,0.33,0.41,0.00,0.05,0.05,0.98,
1.987,0.33,0.41,0.00,0.05,0.05,0.98,
1.989,0.33,0.41,0.00,0.06,0.06,0.98,
1.989,0.38,0.43,-0.00,0.06,0.06,0.98,
1.991,0.38,0.43,-0.00,0.05,0.06,0.98,
1.999,0.38,0.43,-0.00,0.06,0.06,0.97,
2.001,0.41,0.44,-0.01,0.06,0.06,0.97,
2.001,0.41,0.44,-0.01,0.06,0.06,0.97,
2.002,0.41,0.44,-0.01,0.05,0.06,0.97,
2.002,0.41,0.45,-0.09,0.05,0.06,0.97,
2.002,0.41,0.45,-0.09,0.05,0.06,0.96,
2.004,0.41,0.45,-0.09,0.05,0.06,0.96,
2.004,0.41,0.46,-0.16,0.05,0.06,0.96,
2.006,0.41,0.46,-0.16,0.05,0.06,0.96,
2.009,0.41,0.46,-0.16,0.05,0.06,0.96,
2.009,0.39,0.47,-0.20,0.05,0.06,0.96,
2.012,0.39,0.47,-0.20,0.05,0.06,0.96,
2.014,0.39,0.47,-0.20,0.05,0.06,0.95,
2.014,0.38,0.47,-0.27,0.05,0.06,0.95,
2.016,0.38,0.47,-0.27,0.05,0.06,0.95,
2.019,0.38,0.47,-0.27,0.04,0.06,0.95,
2.019,0.35,0.45,-0.29,0.04,0.06,0.95,
2.021,0.35,0.45,-0.29,0.04,0.05,0.95,
2.023,0.31,0.42,-0.30,0.04,0.05,0.95,
2.024,0.31,0.42,-0.30,0.04,0.05,0.95,
2.027,0.31,0.42,-0.30,0.04,0.05,0.96,
2.029,0.31,0.42,-0.30,0.04,0.05,0.96,
2.029,0.27,0.37,-0.29,0.04,0.05,0.96,
2.031,0.27,0.37,-0.29,0.04,0.04,0.96,
2.033,0.27,0.37,-0.29,0.03,0.04,0.96,
2.033,0.27,0.33,-0.26,0.03,0.04,0.96,
2.036,0.27,0.33,-0.26,0.03,0.04,0.96,
2.038,0.27,0.33,-0.26,0.03,0.04,0.97,
2.038,0.24,0.29,-0.21,0.03,0.04,0.97,
2.04,0.24,0.29,-0.21,0.03,0.04,0.97,
2.043,0.24,0.29,-0.21,0.02,0.03,0.98,
2.043,0.19,0.23,-0.17,0.02,0.03,0.98,
2.046,0.19,0.23,-0.17,0.02,0.03,0.98,
2.048,0.19,0.23,-0.17,0.02,0.03,0.98,
2.048,0.13,0.21,-0.10,0.02,0.03,0.98,
2.051,0.13,0.21,-0.10,0.01,0.03,0.99,
2.053,0.13,0.21,-0.10,0.01,0.03,0.99,
2.053,0.08,0.18,-0.01,0.01,0.03,0.99,
2.055,0.08,0.18,-0.01,0.01,0.03,1.00,
2.058,0.08,0.18,-0.01,0.01,0.03,1.00,
2.058,0.04,0.15,0.07,0.01,0.03,1.00,
2.06,0.04,0.15,0.07,0.01,0.03,1.00,
2.063,0.04,0.15,0.07,0.00,0.03,1.00,
2.063,-0.00,0.16,0.13,0.00,0.03,1.00,
2.065,-0.00,0.16,0.13,0.00,0.03,1.00,
2.068,-0.00,0.16,0.13,0.01,0.03,1.00,
2.068,-0.04,0.17,0.16,0.01,0.03,1.00,
2.07,-0.04,0.17,0.16,0.01,0.03,1.01,
2.072,-0.04,0.17,0.16,0.01,0.03,1.01,
2.073,-0.02,0.18,0.20,0.01,0.03,1.01,
2.075,-0.02,0.18,0.20,0.01,0.03,1.01,
2.077,-0.02,0.18,0.20,0.01,0.03,1.01,
2.078,0.00,0.17,0.24,0.01,0.03,1.01,
2.08,0.00,0.17,0.24,0.01,0.03,1.01,
2.082,0.00,0.17,0.24,0.01,0.04,1.01,
2.082,0.04,0.19,0.26,0.01,0.04,1.01,
2.084,0.04,0.19,0.26,0.01,0.04,1.01,
2.088,0.04,0.19,0.26,0.01,0.04,1.01,
2.088,0.05,0.22,0.26,0.01,0.04,1.01,
2.089,0.05,0.22,0.26,0.01,0.04,1.01,
2.092,0.05,0.22,0.26,0.01,0.04,1.01,
2.092,0.08,0.23,0.27,0.01,0.04,1.01,
2.1,0.08,0.23,0.27,0.02,0.04,1.01,
2.1,0.08,0.23,0.27,0.02,0.04,1.01,
2.101,0.09,0.24,0.26,0.02,0.04,1.01,
2.101,0.09,0.24,0.26,0.02,0.04,1.01,
2.102,0.09,0.24,0.26,0.02,0.04,1.01,
2.102,0.10,0.24,0.24,0.02,0.04,1.01,
2.104,0.10,0.24,0.24,0.02,0.05,1.01,
2.107,0.10,0.24,0.24,0.02,0.05,1.00,
2.107,0.11,0.26,0.21,0.02,0.05,1.00,
2.114,0.11,0.26,0.21,0.02,0.05,1.00,
2.114,0.11,0.26,0.21,0.02,0.05,1.00,
2.115,0.13,0.30,0.19,0.02,0.05,1.00,
2.115,0.13,0.30,0.19,0.02,0.05,1.00,
2.117,0.13,0.30,0.19,0.03,0.05,1.00,
2.117,0.17,0.31,0.17,0.03,0.05,1.00,
2.119,0.17,0.31,0.17,0.03,0.05,1.00,
2.122,0.19,0.32,0.16,0.03,0.05,1.00,
2.122,0.19,0.32,0.16,0.03,0.05,1.00,
2.124,0.19,0.32,0.16,0.03,0.05,1.00,
2.126,0.19,0.32,0.16,0.04,0.05,1.00,
2.126,0.26,0.33,0.18,0.04,0.05,1.00,
2.129,0.26,0.33,0.18,0.04,0.05,1.00,
2.131,0.26,0.33,0.18,0.04,0.05,1.00,
2.132,0.30,0.33,0.15,0.04,0.05,1.00,
2.134,0.30,0.33,0.15,0.04,0.06,1.00,
2.136,0.30,0.33,0.15,0.04,0.06,1.00,
2.136,0.31,0.34,0.16,0.04,0.06,1.00,
2.139,0.31,0.34,0.16,0.04,0.06,1.00,
2.141,0.31,0.34,0.16,0.04,0.06,1.00,
2.141,0.31,0.37,0.15,0.04,0.06,1.00,
2.143,0.31,0.37,0.15,0.03,0.06,1.00,
2.146,0.31,0.37,0.15,0.03,0.06,1.00,
2.146,0.30,0.38,0.15,0.03,0.06,1.00,
2.148,0.30,0.38,0.15,0.03,0.06,1.00,
2.151,0.30,0.38,0.15,0.03,0.06,1.00,
2.151,0.26,0.37,0.14,0.03,0.06,1.00,
2.153,0.26,0.37,0.14,0.03,0.06,1.00,
2.156,0.26,0.37,0.14,0.03,0.06,1.00,
2.156,0.27,0.39,0.13,0.03,0.06,1.00,
2.158,0.27,0.39,0.13,0.03,0.06,1.00,
2.161,0.27,0.39,0.13,0.03,0.06,1.01,
2.161,0.24,0.37,0.13,0.03,0.06,1.01,
2.163,0.24,0.37,0.13,0.03,0.07,1.01,
2.165,0.24,0.37,0.13,0.03,0.07,1.01,
2.165,0.23,0.38,0.17,0.03,0.07,1.01,
2.168,0.23,0.38,0.17,0.03,0.07,1.01,
2.17,0.23,0.38,0.17,0.03,0.07,1.01,
2.17,0.22,0.39,0.19,0.03,0.07,1.01,
2.173,0.22,0.39,0.19,0.03,0.07,1.01,
2.175,0.22,0.39,0.19,0.03,0.07,1.01,
2.176,0.22,0.43,0.19,0.03,0.07,1.01,
2.178,0.22,0.43,0.19,0.03,0.08,1.01,
2.18,0.22,0.43,0.19,0.04,0.08,1.01,
2.18,0.23,0.44,0.19,0.04,0.08,1.01,
2.182,0.23,0.44,0.19,0.04,0.08,1.01,
2.185,0.23,0.44,0.19,0.04,0.08,1.01,
2.185,0.27,0.46,0.19,0.04,0.08,1.01,
2.188,0.27,0.46,0.19,0.04,0.08,1.01,
2.19,0.27,0.46,0.19,0.05,0.08,1.01,
2.19,0.32,0.48,0.20,0.05,0.08,1.01,
2.196,0.32,0.48,0.20,0.05,0.08,1.01,
2.197,0.32,0.48,0.20,0.06,0.08,1.01,
2.197,0.40,0.48,0.18,0.06,0.08,1.01,
2.198,0.40,0.48,0.18,0.06,0.08,1.01,
2.2,0.40,0.48,0.18,0.07,0.08,1.01,
2.2,0.50,0.48,0.19,0.07,0.08,1.01,
2.202,0.50,0.48,0.19,0.07,0.08,1.01,
2.205,0.50,0.48,0.19,0.07,0.08,1.01,
2.205,0.58,0.46,0.19,0.07,0.08,1.01,
2.208,0.58,0.46,0.19,0.07,0.07,1.01,
2.21,0.58,0.46,0.19,0.07,0.07,1.01,
2.21,0.65,0.42,0.18,0.07,0.07,1.01,
2.212,0.65,0.42,0.18,0.07,0.07,1.01,
2.214,0.65,0.42,0.18,0.07,0.07,1.01,
2.215,0.68,0.37,0.17,0.07,0.07,1.01,
2.217,0.68,0.37,0.17,0.07,0.07,1.00,
2.219,0.68,0.37,0.17,0.07,0.07,1.00,
2.22,0.68,0.35,0.17,0.07,0.07,1.00,
2.222,0.68,0.35,0.17,0.07,0.07,1.00,
2.224,0.68,0.35,0.17,0.07,0.07,1.00,
2.225,0.65,0.31,0.13,0.07,0.07,1.00,
2.227,0.65,0.31,0.13,0.07,0.06,1.00,
2.229,0.65,0.31,0.13,0.06,0.06,1.00,
2.229,0.64,0.28,0.09,0.06,0.06,1.00,
2.232,0.64,0.28,0.09,0.06,0.06,0.99,
2.234,0.64,0.28,0.09,0.06,0.06,0.99,
2.235,0.59,0.21,0.08,0.06,0.06,0.99,
2.237,0.59,0.21,0.08,0.06,0.05,1.00,
2.239,0.59,0.21,0.08,0.06,0.05,1.00,
2.239,0.56,0.16,0.06,0.06,0.05,1.00,
2.241,0.56,0.16,0.06,0.07,0.05,1.00,
2.244,0.56,0.16,0.06,0.07,0.05,1.00,
2.245,0.57,0.11,0.07,0.07,0.05,1.00,
2.246,0.57,0.11,0.07,0.07,0.05,1.00,
2.249,0.57,0.11,0.07,0.07,0.05,1.00,
2.249,0.61,0.06,0.08,0.07,0.05,1.00,
2.251,0.61,0.06,0.08,0.08,0.05,1.00,
2.254,0.61,0.06,0.08,0.08,0.05,1.01,
2.254,0.65,0.05,0.09,0.08,0.05,1.01,
2.256,0.65,0.05,0.09,0.08,0.05,1.01,
2.259,0.65,0.05,0.09,0.09,0.05,1.01,
2.259,0.71,0.06,0.15,0.09,0.05,1.01,
2.261,0.71,0.06,0.15,0.09,0.05,1.01,
2.263,0.71,0.06,0.15,0.09,0.05,1.01,
2.264,0.78,0.05,0.21,0.09,0.05,1.01,
2.266,0.78,0.05,0.21,0.09,0.06,1.02,
2.268,0.83,0.07,0.24,0.09,0.06,1.02,
2.269,0.83,0.07,0.24,0.09,0.06,1.02,
2.271,0.83,0.07,0.24,0.09,0.06,1.02,
2.273,0.83,0.07,0.24,0.09,0.06,1.02,
2.273,0.85,0.08,0.28,0.09,0.06,1.02,
2.276,0.85,0.08,0.28,0.09,0.06,1.02,
2.278,0.85,0.08,0.28,0.09,0.06,1.02,
2.279,0.85,0.10,0.30,0.09,0.06,1.02,
2.281,0.85,0.10,0.30,0.09,0.06,1.02,
2.283,0.85,0.10,0.30,0.09,0.06,1.02,
2.284,0.87,0.12,0.31,0.09,0.06,1.02,
2.285,0.87,0.12,0.31,0.09,0.06,1.02,
2.288,0.87,0.12,0.31,0.09,0.06,1.01,
2.288,0.84,0.12,0.27,0.09,0.06,1.01,
2.29,0.84,0.12,0.27,0.09,0.06,1.01,
2.294,0.84,0.12,0.27,0.09,0.07,1.01,
2.294,0.82,0.11,0.24,0.09,0.07,1.01,
2.295,0.82,0.11,0.24,0.08,0.07,1.01,
2.298,0.82,0.11,0.24,0.09,0.07,1.00,
2.298,0.81,0.13,0.21,0.09,0.07,1.00,
2.3,0.81,0.13,0.21,0.08,0.07,1.00,
2.303,0.81,0.13,0.21,0.09,0.07,1.00,
2.303,0.80,0.14,0.16,0.09,0.07,1.00,
2.305,0.80,0.14,0.16,0.09,0.07,1.00,
2.308,0.80,0.14,0.16,0.09,0.07,0.99,
2.308,0.79,0.11,0.10,0.09,0.07,0.99,
2.315,0.79,0.11,0.10,0.09,0.07,0.99,
2.316,0.79,0.11,0.10,0.09,0.07,0.99,
2.316,0.83,0.10,0.06,0.09,0.07,0.99,
2.317,0.83,0.10,0.06,0.09,0.07,0.98,
2.317,0.83,0.10,0.06,0.10,0.07,0.98,
2.318,0.86,0.09,-0.02,0.10,0.07,0.98,
2.32,0.86,0.09,-0.02,0.10,0.08,0.98,
2.322,0.86,0.09,-0.02,0.10,0.08,0.98,
2.322,0.87,0.10,-0.08,0.10,0.08,0.98,
2.325,0.87,0.10,-0.08,0.10,0.08,0.97,
2.328,0.87,0.10,-0.08,0.10,0.08,0.97,
2.329,0.88,0.12,-0.13,0.10,0.08,0.97,
2.329,0.88,0.12,-0.13,0.10,0.08,0.97,
2.332,0.88,0.12,-0.13,0.11,0.08,0.97,
2.332,0.91,0.15,-0.18,0.11,0.08,0.97,
2.334,0.91,0.15,-0.18,0.11,0.09,0.97,
2.337,0.91,0.15,-0.18,0.11,0.09,0.97,
2.337,0.97,0.16,-0.22,0.11,0.09,0.97,
2.339,0.97,0.16,-0.22,0.12,0.09,0.96,
2.342,0.97,0.16,-0.22,0.12,0.09,0.96,
2.342,1.01,0.16,-0.22,0.12,0.09,0.96,
2.344,1.01,0.16,-0.22,0.12,0.09,0.97,
2.347,1.01,0.16,-0.22,0.12,0.09,0.97,
2.347,1.07,0.16,-0.23,0.12,0.09,0.97,
2.349,1.07,0.16,-0.23,0.12,0.09,0.97,
2.352,1.07,0.16,-0.23,0.12,0.09,0.97,
2.352,1.07,0.16,-0.21,0.12,0.09,0.97,
2.354,1.07,0.16,-0.21,0.12,0.09,0.97,
2.356,1.07,0.16,-0.21,0.11,0.09,0.98,
2.357,1.05,0.15,-0.17,0.11,0.09,0.98,
2.359,1.05,0.15,-0.17,0.11,0.08,0.98,
2.362,1.05,0.15,-0.17,0.11,0.08,0.98,
2.362,1.00,0.11,-0.12,0.11,0.08,0.98,
2.364,1.00,0.11,-0.12,0.10,0.08,0.98,
2.366,1.00,0.11,-0.12,0.10,0.08,0.98,
2.366,0.92,0.07,-0.10,0.10,0.08,0.98,
2.368,0.92,0.07,-0.10,0.09,0.08,0.98,
2.371,0.92,0.07,-0.10,0.09,0.07,0.98,
2.371,0.83,0.03,-0.07,0.09,0.07,0.98,
2.373,0.83,0.03,-0.07,0.08,0.07,0.98,
2.376,0.83,0.03,-0.07,0.08,0.07,0.99,
2.377,0.72,-0.03,-0.06,0.08,0.07,0.99,
2.379,0.72,-0.03,-0.06,0.08,0.07,0.98,
2.381,0.72,-0.03,-0.06,0.07,0.07,0.98,
2.381,0.66,-0.09,-0.02,0.07,0.07,0.98,
2.383,0.66,-0.09,-0.02,0.07,0.07,0.98,
2.386,0.66,-0.09,-0.02,0.07,0.06,0.98,
2.386,0.59,-0.12,-0.02,0.07,0.06,0.98,
2.388,0.59,-0.12,-0.02,0.07,0.06,0.98,
2.391,0.59,-0.12,-0.02,0.07,0.06,0.98,
2.391,0.56,-0.17,-0.03,0.07,0.06,0.98,
2.394,0.56,-0.17,-0.03,0.07,0.06,0.98,
2.396,0.56,-0.17,-0.03,0.07,0.06,0.98,
2.397,0.52,-0.20,-0.02,0.07,0.06,0.98,
2.398,0.52,-0.20,-0.02,0.07,0.06,0.98,
2.4,0.52,-0.20,-0.02,0.07,0.06,0.98,
2.401,0.51,-0.22,-0.03,0.07,0.06,0.98,
2.403,0.51,-0.22,-0.03,0.07,0.06,0.98,
2.405,0.51,-0.22,-0.03,0.07,0.06,0.99,
2.406,0.52,-0.26,-0.03,0.07,0.06,0.99,
2.408,0.52,-0.26,-0.03,0.07,0.06,0.98,
2.415,0.52,-0.26,-0.03,0.08,0.06,0.98,
2.416,0.55,-0.27,-0.02,0.08,0.06,0.98,
2.417,0.55,-0.27,-0.02,0.08,0.06,0.99,
2.417,0.55,-0.27,-0.02,0.09,0.07,0.98,
2.418,0.60,-0.25,-0.01,0.09,0.07,0.98,
2.418,0.60,-0.25,-0.01,0.09,0.07,0.98,
2.42,0.60,-0.25,-0.01,0.10,0.07,0.98,
2.421,0.67,-0.23,-0.01,0.10,0.07,0.98,
2.422,0.67,-0.23,-0.01,0.10,0.07,0.98,
2.425,0.67,-0.23,-0.01,0.10,0.07,0.98,
2.426,0.77,-0.22,-0.04,0.10,0.07,0.98,
2.428,0.77,-0.22,-0.04,0.11,0.07,0.97,
2.43,0.77,-0.22,-0.04,0.11,0.07,0.97,
2.43,0.85,-0.21,-0.09,0.11,0.07,0.97,
2.432,0.85,-0.21,-0.09,0.11,0.07,0.97,
2.435,0.85,-0.21,-0.09,0.11,0.07,0.96,
2.435,0.89,-0.20,-0.13,0.11,0.07,0.96,
2.437,0.89,-0.20,-0.13,0.11,0.07,0.96,
2.44,0.89,-0.20,-0.13,0.11,0.07,0.95,
2.44,0.92,-0.20,-0.21,0.11,0.07,0.95,
2.442,0.92,-0.20,-0.21,0.11,0.07,0.94,
2.445,0.92,-0.20,-0.21,0.11,0.07,0.94,
2.445,0.92,-0.22,-0.30,0.11,0.07,0.94,
2.447,0.92,-0.22,-0.30,0.10,0.07,0.93,
2.45,0.92,-0.22,-0.30,0.10,0.07,0.93,
2.45,0.88,-0.25,-0.42,0.10,0.07,0.93,
2.452,0.88,-0.25,-0.42,0.09,0.06,0.92,
2.454,0.88,-0.25,-0.42,0.09,0.06,0.92,
2.455,0.78,-0.31,-0.52,0.09,0.06,0.92,
2.457,0.78,-0.31,-0.52,0.08,0.06,0.92,
2.459,0.78,-0.31,-0.52,0.07,0.06,0.91,
2.46,0.66,-0.38,-0.61,0.07,0.06,0.91,
2.462,0.66,-0.38,-0.61,0.07,0.05,0.91,
2.465,0.66,-0.38,-0.61,0.07,0.05,0.92,
2.465,0.54,-0.44,-0.66,0.07,0.05,0.92,
2.466,0.54,-0.44,-0.66,0.06,0.05,0.92,
2.469,0.54,-0.44,-0.66,0.06,0.05,0.92,
2.469,0.45,-0.48,-0.65,0.06,0.05,0.92,
2.472,0.45,-0.48,-0.65,0.06,0.05,0.93,
2.474,0.45,-0.48,-0.65,0.06,0.04,0.93,
2.474,0.37,-0.52,-0.60,0.06,0.04,0.93,
2.477,0.37,-0.52,-0.60,0.05,0.04,0.94,
2.479,0.37,-0.52,-0.60,0.05,0.04,0.94,
2.48,0.34,-0.57,-0.51,0.05,0.04,0.94,
2.482,0.34,-0.57,-0.51,0.06,0.04,0.95,
2.484,0.34,-0.57,-0.51,0.05,0.05,0.96,
2.486,0.31,-0.57,-0.39,0.05,0.05,0.96,
2.486,0.31,-0.57,-0.39,0.05,0.05,0.96,
2.489,0.31,-0.57,-0.39,0.06,0.05,0.97,
2.489,0.32,-0.56,-0.25,0.06,0.05,0.97,
2.491,0.32,-0.56,-0.25,0.06,0.04,0.97,
2.498,0.32,-0.56,-0.25,0.06,0.04,0.98,
2.499,0.32,-0.54,-0.14,0.06,0.04,0.98,
2.499,0.32,-0.54,-0.14,0.06,0.05,0.98,
2.499,0.32,-0.54,-0.14,0.06,0.05,0.98,
2.499,0.36,-0.56,-0.04,0.06,0.05,0.98,
2.501,0.36,-0.56,-0.04,0.06,0.04,0.99,
2.503,0.36,-0.56,-0.04,0.06,0.04,0.99,
2.504,0.36,-0.54,0.03,0.06,0.04,0.99,
2.506,0.36,-0.54,0.03,0.06,0.05,0.99,
2.51,0.36,-0.54,0.03,0.06,0.04,0.99,
2.51,0.38,-0.56,0.10,0.06,0.04,0.99,
2.511,0.38,-0.56,0.10,0.06,0.04,0.99,
2.513,0.36,-0.55,0.13,0.06,0.04,0.99,
2.513,0.36,-0.55,0.13,0.06,0.04,0.99,
2.516,0.36,-0.55,0.13,0.06,0.04,0.99,
2.518,0.36,-0.55,0.13,0.06,0.04,0.98,
2.518,0.35,-0.56,0.13,0.06,0.04,0.98,
2.52,0.35,-0.56,0.13,0.06,0.05,0.98,
2.523,0.35,-0.56,0.13,0.06,0.05,0.98,
2.523,0.35,-0.56,0.06,0.06,0.05,0.98,
2.525,0.35,-0.56,0.06,0.06,0.05,0.97,
2.528,0.35,-0.56,0.06,0.06,0.05,0.97,
2.528,0.36,-0.54,-0.01,0.06,0.05,0.97,
2.53,0.36,-0.54,-0.01,0.06,0.05,0.96,
2.533,0.36,-0.54,-0.01,0.05,0.05,0.96,
2.533,0.35,-0.53,-0.08,0.05,0.05,0.96,
2.535,0.35,-0.53,-0.08,0.05,0.05,0.96,
2.538,0.35,-0.53,-0.08,0.05,0.05,0.95,
2.538,0.32,-0.51,-0.17,0.05,0.05,0.95,
2.54,0.32,-0.51,-0.17,0.05,0.05,0.94,
2.543,0.32,-0.51,-0.17,0.05,0.05,0.94,
2.543,0.29,-0.50,-0.27,0.05,0.05,0.94,
2.545,0.29,-0.50,-0.27,0.04,0.05,0.93,
2.548,0.29,-0.50,-0.27,0.04,0.05,0.93,
2.548,0.24,-0.52,-0.38,0.04,0.05,0.93,
2.55,0.24,-0.52,-0.38,0.04,0.04,0.93,
2.552,0.24,-0.52,-0.38,0.04,0.04,0.93,
2.552,0.17,-0.55,-0.44,0.04,0.04,0.93,
2.555,0.17,-0.55,-0.44,0.04,0.04,0.93,
2.557,0.17,-0.55,-0.44,0.04,0.03,0.93,
2.557,0.12,-0.62,-0.47,0.04,0.03,0.93,
2.56,0.12,-0.62,-0.47,0.04,0.03,0.94,
2.563,0.12,-0.62,-0.47,0.04,0.03,0.94,
2.563,0.11,-0.68,-0.46,0.04,0.03,0.94,
2.565,0.11,-0.68,-0.46,0.03,0.03,0.94,
2.567,0.11,-0.68,-0.46,0.03,0.02,0.95,
2.568,0.10,-0.74,-0.38,0.03,0.02,0.95,
2.569,0.10,-0.74,-0.38,0.03,0.02,0.96,
2.572,0.10,-0.74,-0.38,0.03,0.02,0.96,
2.572,0.06,-0.77,-0.28,0.03,0.02,0.96,
2.574,0.06,-0.77,-0.28,0.03,0.02,0.97,
2.577,0.06,-0.77,-0.28,0.03,0.02,0.97,
2.578,0.03,-0.78,-0.18,0.03,0.02,0.97,
2.579,0.03,-0.78,-0.18,0.03,0.02,0.98,
2.582,0.03,-0.78,-0.18,0.03,0.02,0.98,
2.582,0.04,-0.81,-0.06,0.03,0.02,0.98,
2.584,0.04,-0.81,-0.06,0.04,0.01,0.99,
2.587,0.04,-0.81,-0.06,0.04,0.01,0.99,
2.587,0.07,-0.83,0.04,0.04,0.01,0.99,
2.589,0.07,-0.83,0.04,0.04,0.01,0.99,
2.598,0.07,-0.83,0.04,0.04,0.01,1.00,
2.598,0.11,-0.87,0.12,0.04,0.01,1.00,
2.599,0.11,-0.87,0.12,0.04,0.01,1.00,
2.599,0.11,-0.87,0.12,0.04,0.01,1.00,
2.599,0.11,-0.88,0.19,0.04,0.01,1.00,
2.599,0.11,-0.88,0.19,0.04,0.02,1.00,
2.601,0.11,-0.88,0.19,0.04,0.02,1.00,
2.602,0.11,-0.85,0.24,0.04,0.02,1.00,
2.604,0.11,-0.85,0.24,0.04,0.02,1.00,
2.606,0.11,-0.85,0.24,0.04,0.02,1.00,
2.606,0.12,-0.80,0.26,0.04,0.02,1.00,
2.609,0.12,-0.80,0.26,0.04,0.02,1.00,
2.611,0.12,-0.80,0.26,0.04,0.02,1.01,
2.611,0.11,-0.77,0.25,0.04,0.02,1.01,
2.613,0.11,-0.77,0.25,0.04,0.02,1.00,
2.616,0.11,-0.77,0.25,0.04,0.02,1.00,
2.616,0.12,-0.77,0.27,0.04,0.02,1.00,
2.618,0.12,-0.77,0.27,0.04,0.02,1.00,
2.621,0.12,-0.77,0.27,0.04,0.02,1.00,
2.621,0.13,-0.77,0.26,0.04,0.02,1.00,
2.623,0.13,-0.77,0.26,0.03,0.02,1.00,
2.626,0.13,-0.77,0.26,0.02,0.02,1.00,
2.626,0.12,-0.76,0.25,0.02,0.02,1.00,
2.628,0.12,-0.76,0.25,0.02,0.02,1.00,
2.63,0.12,-0.76,0.25,0.01,0.02,0.99,
2.631,0.02,-0.76,0.21,0.01,0.02,0.99,
2.633,0.02,-0.76,0.21,0.01,0.02,0.99,
2.636,0.02,-0.76,0.21,0.00,0.01,0.99,
2.636,-0.08,-0.78,0.16,0.00,0.01,0.99,
2.638,-0.08,-0.78,0.16,-0.00,0.01,0.98,
2.64,-0.08,-0.78,0.16,-0.01,0.01,0.98,
2.64,-0.17,-0.82,0.11,-0.01,0.01,0.98,
2.643,-0.17,-0.82,0.11,-0.01,0.00,0.98,
2.645,-0.17,-0.82,0.11,-0.01,0.00,0.97,
2.645,-0.27,-0.87,0.03,-0.01,0.00,0.97,
2.648,-0.27,-0.87,0.03,-0.01,0.00,0.97,
2.65,-0.27,-0.87,0.03,-0.01,0.00,0.97,
2.65,-0.34,-0.92,-0.03,-0.01,0.00,0.97,
2.653,-0.34,-0.92,-0.03,-0.02,0.00,0.96,
2.655,-0.34,-0.92,-0.03,-0.02,0.00,0.96,
2.655,-0.37,-0.92,-0.10,-0.02,0.00,0.96,
2.657,-0.37,-0.92,-0.10,-0.01,0.00,0.96,
2.66,-0.37,-0.92,-0.10,-0.01,0.00,0.96,
2.661,-0.38,-0.92,-0.14,-0.01,0.00,0.96,
2.662,-0.38,-0.92,-0.14,-0.01,0.00,0.95,
2.665,-0.38,-0.92,-0.14,-0.01,0.00,0.95,
2.665,-0.35,-0.91,-0.18,-0.01,0.00,0.95,
2.668,-0.35,-0.91,-0.18,-0.01,0.01,0.96,
2.67,-0.35,-0.91,-0.18,-0.01,0.01,0.95,
2.67,-0.34,-0.91,-0.22,-0.01,0.01,0.95,
2.672,-0.34,-0.91,-0.22,-0.01,0.01,0.96,
2.676,-0.34,-0.91,-0.22,-0.00,0.01,0.96,
2.676,-0.32,-0.88,-0.21,-0.00,0.01,0.96,
2.678,-0.32,-0.88,-0.21,-0.00,0.01,0.96,
2.68,-0.32,-0.88,-0.21,0.00,0.01,0.96,
2.681,-0.26,-0.86,-0.19,0.00,0.01,0.96,
2.682,-0.26,-0.86,-0.19,0.00,0.01,0.96,
2.685,-0.26,-0.86,-0.19,0.00,0.01,0.96,
2.685,-0.20,-0.84,-0.19,0.00,0.01,0.96,
2.687,-0.20,-0.84,-0.19,0.00,0.02,0.96,
2.689,-0.20,-0.84,-0.19,0.00,0.02,0.97,
2.69,-0.18,-0.80,-0.14,0.00,0.02,0.97,
2.693,-0.18,-0.80,-0.14,0.00,0.02,0.97,
2.695,-0.18,-0.80,-0.14,0.01,0.02,0.97,
2.695,-0.16,-0.75,-0.11,0.01,0.02,0.97,
2.697,-0.16,-0.75,-0.11,0.01,0.03,0.97,
2.699,-0.16,-0.75,-0.11,0.01,0.03,0.96,
2.7,-0.16,-0.71,-0.09,0.01,0.03,0.96,
2.701,-0.16,-0.71,-0.09,0.01,0.03,0.96,
2.704,-0.16,-0.71,-0.09,0.01,0.03,0.96,
2.705,-0.14,-0.66,-0.10,0.01,0.03,0.96,
2.707,-0.14,-0.66,-0.10,0.01,0.04,0.96,
2.714,-0.14,-0.66,-0.10,0.01,0.04,0.96,
2.715,-0.12,-0.61,-0.14,0.01,0.04,0.96,
2.715,-0.12,-0.61,-0.14,0.01,0.04,0.95,
2.715,-0.12,-0.61,-0.14,0.01,0.04,0.95,
2.716,-0.12,-0.57,-0.18,0.01,0.04,0.95,
2.717,-0.12,-0.57,-0.18,0.01,0.05,0.95,
2.72,-0.12,-0.57,-0.18,0.01,0.05,0.94,
2.72,-0.13,-0.54,-0.24,0.01,0.05,0.94,
2.721,-0.13,-0.54,-0.24,0.01,0.05,0.94,
2.724,-0.11,-0.47,-0.30,0.01,0.05,0.94,
2.725,-0.11,-0.47,-0.30,0.01,0.05,0.94,
2.727,-0.11,-0.47,-0.30,0.01,0.05,0.94,
2.729,-0.11,-0.47,-0.30,0.00,0.05,0.94,
2.729,-0.14,-0.43,-0.35,0.00,0.05,0.94,
2.731,-0.14,-0.43,-0.35,0.01,0.06,0.94,
2.734,-0.14,-0.43,-0.35,0.00,0.06,0.94,
2.734,-0.15,-0.40,-0.37,0.00,0.06,0.94,
2.736,-0.15,-0.40,-0.37,0.00,0.06,0.94,
2.739,-0.15,-0.40,-0.37,0.01,0.06,0.94,
2.739,-0.16,-0.37,-0.37,0.01,0.06,0.94,
2.741,-0.16,-0.37,-0.37,0.01,0.06,0.94,
2.743,-0.16,-0.37,-0.37,0.01,0.06,0.94,
2.744,-0.16,-0.33,-0.35,0.01,0.06,0.94,
2.746,-0.16,-0.33,-0.35,0.01,0.07,0.94,
2.748,-0.16,-0.33,-0.35,0.01,0.07,0.94,
2.748,-0.13,-0.30,-0.34,0.01,0.07,0.94,
2.75,-0.13,-0.30,-0.34,0.02,0.07,0.95,
2.753,-0.13,-0.30,-0.34,0.02,0.07,0.95,
2.753,-0.09,-0.27,-0.29,0.02,0.07,0.95,
2.756,-0.09,-0.27,-0.29,0.02,0.07,0.95,
2.759,-0.09,-0.27,-0.29,0.02,0.07,0.96,
2.759,-0.05,-0.25,-0.23,0.02,0.07,0.96,
2.76,-0.05,-0.25,-0.23,0.02,0.07,0.96,
2.763,-0.05,-0.25,-0.23,0.02,0.07,0.96,
2.763,-0.03,-0.25,-0.17,0.02,0.07,0.96,
2.765,-0.03,-0.25,-0.17,0.02,0.07,0.97,
2.768,-0.03,-0.25,-0.17,0.02,0.07,0.97,
2.768,-0.03,-0.22,-0.10,0.02,0.07,0.97,
2.77,-0.03,-0.22,-0.10,0.02,0.07,0.97,
2.773,-0.03,-0.22,-0.10,0.02,0.08,0.98,
2.773,-0.02,-0.19,-0.04,0.02,0.08,0.98,
2.776,-0.02,-0.19,-0.04,0.02,0.08,0.98,
2.778,-0.02,-0.19,-0.04,0.02,0.08,0.98,
2.778,-0.04,-0.16,0.01,0.02,0.08,0.98,
2.78,-0.04,-0.16,0.01,0.01,0.08,0.98,
2.783,-0.04,-0.16,0.01,0.02,0.08,0.98,
2.783,-0.07,-0.15,0.06,0.02,0.08,0.98,
2.785,-0.07,-0.15,0.06,0.01,0.08,0.98,
2.788,-0.07,-0.15,0.06,0.01,0.08,0.99,
2.788,-0.08,-0.15,0.07,0.01,0.08,0.99,
2.79,-0.08,-0.15,0.07,0.01,0.08,0.99,
2.793,-0.08,-0.15,0.07,0.01,0.08,0.99,
2.793,-0.09,-0.14,0.11,0.01,0.08,0.99,
2.795,-0.09,-0.14,0.11,0.01,0.08,0.99,
2.797,-0.09,-0.14,0.11,0.01,0.08,0.99,
2.798,-0.13,-0.13,0.17,0.01,0.08,0.99,
2.8,-0.13,-0.13,0.17,0.01,0.08,0.99,
2.802,-0.13,-0.13,0.17,0.01,0.09,0.99,
2.802,-0.15,-0.10,0.20,0.01,0.09,0.99,
2.804,-0.15,-0.10,0.20,0.00,0.09,0.99,
2.807,-0.15,-0.05,0.19,0.00,0.09,0.99,
2.808,-0.15,-0.05,0.19,0.00,0.09,0.99,
2.813,-0.15,-0.05,0.19,0.00,0.09,0.99,
2.814,-0.15,-0.05,0.19,0.00,0.09,0.99,
2.814,-0.19,-0.03,0.19,0.00,0.09,0.99,
2.815,-0.19,-0.03,0.19,0.01,0.09,0.99,
2.817,-0.19,-0.03,0.19,0.01,0.09,0.99,
2.817,-0.18,-0.02,0.18,0.01,0.09,0.99,
2.819,-0.18,-0.02,0.18,0.01,0.09,0.99,
2.822,-0.18,-0.02,0.18,0.01,0.09,0.99,
2.822,-0.15,0.00,0.16,0.01,0.09,0.99,
2.825,-0.15,0.00,0.16,0.01,0.10,0.98,
2.827,-0.15,0.00,0.16,0.01,0.09,0.98,
2.827,-0.13,0.03,0.13,0.01,0.09,0.98,
2.829,-0.13,0.03,0.13,0.01,0.09,0.98,
2.831,-0.10,0.05,0.09,0.01,0.09,0.98,
2.832,-0.10,0.05,0.09,0.01,0.10,0.98,
2.834,-0.10,0.05,0.09,0.01,0.10,0.98,
2.836,-0.10,0.05,0.09,0.01,0.10,0.98,
2.836,-0.10,0.04,0.06,0.01,0.10,0.98,
2.839,-0.10,0.04,0.06,0.01,0.10,0.97,
2.842,-0.10,0.04,0.06,0.01,0.10,0.97,
2.842,-0.12,0.05,0.02,0.01,0.10,0.97,
2.844,-0.12,0.05,0.02,0.01,0.10,0.97,
2.846,-0.12,0.05,0.02,0.00,0.10,0.96,
2.846,-0.13,0.08,-0.03,0.00,0.10,0.96,
2.848,-0.13,0.08,-0.03,0.00,0.10,0.96,
2.851,-0.13,0.08,-0.03,0.00,0.10,0.96,
2.851,-0.15,0.06,-0.08,0.00,0.10,0.96,
2.853,-0.15,0.06,-0.08,0.00,0.10,0.96,
2.856,-0.15,0.06,-0.08,-0.00,0.10,0.96,
2.856,-0.15,0.04,-0.11,-0.00,0.10,0.96,
2.858,-0.15,0.04,-0.11,-0.00,0.10,0.96,
2.861,-0.15,0.04,-0.11,-0.00,0.10,0.96,
2.861,-0.18,0.05,-0.14,-0.00,0.10,0.96,
2.864,-0.18,0.05,-0.14,-0.01,0.09,0.96,
2.866,-0.18,0.05,-0.14,-0.01,0.10,0.96,
2.866,-0.22,0.05,-0.15,-0.01,0.10,0.96,
2.868,-0.22,0.05,-0.15,-0.01,0.10,0.97,
2.871,-0.22,0.05,-0.15,-0.01,0.09,0.97,
2.871,-0.25,0.04,-0.12,-0.01,0.09,0.97,
2.873,-0.25,0.04,-0.12,-0.01,0.09,0.97,
2.876,-0.25,0.04,-0.12,-0.01,0.10,0.97,
2.876,-0.28,0.05,-0.06,-0.01,0.10,0.97,
2.878,-0.28,0.05,-0.06,-0.01,0.10,0.98,
2.881,-0.28,0.05,-0.06,-0.00,0.10,0.99,
2.881,-0.25,0.05,-0.00,-0.00,0.10,0.99,
2.883,-0.25,0.05,-0.00,-0.00,0.10,0.99,
2.885,-0.25,0.05,-0.00,0.00,0.10,0.99,
2.886,-0.22,0.06,0.08,0.00,0.10,0.99,
2.888,-0.22,0.06,0.08,0.00,0.10,1.00,
2.89,-0.22,0.06,0.08,0.01,0.10,1.00,
2.891,-0.16,0.07,0.17,0.01,0.10,1.00,
2.9,-0.16,0.07,0.17,0.01,0.10,1.01,
2.9,-0.16,0.07,0.17,0.01,0.10,1.00,
2.9,-0.11,0.08,0.26,0.01,0.10,1.00,
2.9,-0.11,0.08,0.26,0.02,0.10,0.95,
2.901,-0.11,0.08,0.26,0.03,0.11,0.91,
2.901,-0.03,0.13,0.28,0.03,0.11,0.91,
2.902,-0.03,0.13,0.28,0.05,0.11,0.90,
2.905,-0.03,0.13,0.28,0.05,0.12,0.92,
2.905,0.10,0.15,-0.43,0.05,0.12,0.92,
2.907,0.10,0.15,-0.43,0.05,0.11,0.95,
2.91,0.10,0.15,-0.43,0.04,0.11,0.97,
2.91,0.32,0.26,-0.63,0.04,0.11,0.97,
2.912,0.32,0.26,-0.63,0.04,0.11,0.99,
2.915,0.32,0.26,-0.63,0.03,0.11,1.00,
2.915,0.29,0.22,-0.12,0.03,0.11,1.00,
2.917,0.29,0.22,-0.12,0.03,0.11,1.01,
2.919,0.29,0.22,-0.12,0.03,0.11,1.02,
2.92,0.19,0.21,0.20,0.03,0.11,1.02,
2.922,0.19,0.21,0.20,0.03,0.11,1.02,
2.926,0.19,0.21,0.20,0.03,0.11,1.02,
2.926,0.15,0.23,0.37,0.03,0.11,1.02,
2.927,0.15,0.23,0.37,0.02,0.11,1.02,
2.93,0.15,0.23,0.37,0.02,0.10,1.02,
2.93,0.14,0.22,0.45,0.02,0.10,1.02,
2.932,0.14,0.22,0.45,0.01,0.11,1.01,
2.934,0.14,0.22,0.45,0.01,0.11,1.01,
2.934,0.05,0.16,0.42,0.01,0.11,1.01,
2.937,0.05,0.16,0.42,0.00,0.11,1.00,
2.939,0.05,0.16,0.42,-0.00,0.11,0.99,
2.939,-0.01,0.16,0.35,-0.00,0.11,0.99,
2.942,-0.01,0.16,0.35,-0.01,0.11,0.99,
2.944,-0.01,0.16,0.35,-0.01,0.11,0.98,
2.945,-0.16,0.17,0.22,-0.01,0.11,0.98,
2.946,-0.16,0.17,0.22,-0.01,0.11,0.98,
2.949,-0.16,0.17,0.22,-0.01,0.11,0.97,
2.949,-0.24,0.16,0.09,-0.01,0.11,0.97,
2.951,-0.24,0.16,0.09,-0.01,0.10,0.97,
2.954,-0.24,0.16,0.09,-0.01,0.10,0.96,
2.954,-0.24,0.15,-0.02,-0.01,0.10,0.96,
2.956,-0.24,0.15,-0.02,-0.01,0.10,0.96,
2.96,-0.24,0.15,-0.02,-0.00,0.10,0.96,
2.96,-0.23,0.08,-0.11,-0.00,0.10,0.96,
