
time,ax,ay,az,gFx,gFy,gFz,
0.001,-0.02,0.00,-0.12,0.03,0.09,0.95,
0.001,-0.02,0.00,-0.12,0.02,0.09,0.95,
0.001,-0.01,-0.04,-0.21,0.02,0.09,0.95,
0.003,-0.01,-0.04,-0.21,0.02,0.09,0.95,
0.006,-0.01,-0.04,-0.21,0.02,0.09,0.95,
0.006,0.02,-0.04,-0.27,0.02,0.09,0.95,
0.008,0.02,-0.04,-0.27,0.02,0.09,0.95,
0.011,0.02,-0.04,-0.27,0.02,0.09,0.96,
0.011,0.00,-0.04,-0.25,0.02,0.09,0.96,
0.013,0.00,-0.04,-0.25,0.02,0.10,0.96,
0.016,0.00,-0.04,-0.25,0.02,0.10,0.96,
0.016,0.00,-0.04,-0.21,0.02,0.10,0.96,
0.018,0.00,-0.04,-0.21,0.02,0.10,0.97,
0.021,0.00,-0.04,-0.21,0.02,0.10,0.97,
0.021,-0.02,-0.01,-0.15,0.02,0.10,0.97,
0.023,-0.02,-0.01,-0.15,0.02,0.10,0.98,
0.026,-0.02,-0.01,-0.15,0.02,0.10,0.98,
0.026,-0.00,0.01,-0.06,0.02,0.10,0.98,
0.028,-0.00,0.01,-0.06,0.02,0.10,0.99,
0.031,-0.00,0.01,-0.06,0.02,0.10,0.99,
0.031,-0.01,0.01,0.04,0.02,0.10,0.99,
0.033,-0.01,0.01,0.04,0.02,0.10,0.99,
0.035,-0.01,0.01,0.04,0.02,0.10,1.00,
0.036,-0.01,0.00,0.11,0.02,0.10,1.00,
0.038,-0.01,0.00,0.11,0.03,0.10,1.00,
0.04,-0.01,0.00,0.11,0.03,0.10,1.00,
0.04,0.01,0.01,0.19,0.03,0.10,1.00,
0.043,0.01,0.01,0.19,0.03,0.10,1.00,
0.045,0.01,0.01,0.19,0.03,0.10,1.00,
0.045,0.04,0.02,0.25,0.03,0.10,1.00,
0.047,0.04,0.02,0.25,0.02,0.10,1.00,
0.05,0.04,0.02,0.25,0.02,0.10,1.00,
0.05,0.04,0.03,0.26,0.02,0.10,1.00,
0.052,0.04,0.03,0.26,0.02,0.10,1.00,
0.055,0.04,0.03,0.26,0.03,0.10,1.00,
0.055,0.02,0.05,0.25,0.03,0.10,1.00,
0.057,0.02,0.05,0.25,0.03,0.10,0.99,
0.06,0.02,0.05,0.25,0.03,0.10,0.99,
0.06,0.04,0.05,0.21,0.03,0.10,0.99,
0.065,0.04,0.05,0.21,0.03,0.10,0.98,
0.066,0.04,0.05,0.21,0.03,0.11,0.98,
0.066,0.07,0.07,0.14,0.03,0.11,0.98,
0.067,0.07,0.07,0.14,0.03,0.10,0.98,
0.07,0.07,0.07,0.14,0.03,0.11,0.97,
0.07,0.06,0.07,0.05,0.03,0.11,0.97,
0.072,0.06,0.07,0.05,0.03,0.11,0.97,
0.075,0.06,0.07,0.05,0.03,0.11,0.96,
0.075,0.07,0.07,-0.02,0.03,0.11,0.96,
0.077,0.07,0.07,-0.02,0.03,0.11,0.96,
0.08,0.07,0.07,-0.02,0.03,0.11,0.96,
0.08,0.04,0.07,-0.09,0.03,0.11,0.96,
0.082,0.04,0.07,-0.09,0.02,0.11,0.95,
0.085,0.04,0.07,-0.09,0.02,0.11,0.95,
0.085,0.02,0.08,-0.16,0.02,0.11,0.95,
0.087,0.02,0.08,-0.16,0.02,0.11,0.95,
0.089,0.02,0.08,-0.16,0.02,0.11,0.95,
0.089,-0.01,0.08,-0.23,0.02,0.11,0.95,
0.091,-0.01,0.08,-0.23,0.03,0.11,0.95,
0.094,-0.01,0.08,-0.23,0.02,0.10,0.95,
0.095,-0.00,0.06,-0.28,0.02,0.10,0.95,
0.097,-0.00,0.06,-0.28,0.03,0.10,0.95,
0.099,-0.00,0.06,-0.28,0.02,0.11,0.95,
0.099,0.02,0.06,-0.28,0.02,0.11,0.95,
0.101,0.02,0.06,-0.28,0.02,0.11,0.95,
0.104,0.02,0.06,-0.28,0.02,0.11,0.95,
0.104,0.01,0.05,-0.28,0.02,0.11,0.95,
0.106,0.01,0.05,-0.28,0.02,0.11,0.95,
0.109,0.01,0.05,-0.28,0.02,0.10,0.95,
0.109,-0.00,0.05,-0.24,0.02,0.10,0.95,
0.111,-0.00,0.05,-0.24,0.02,0.10,0.96,
0.114,-0.00,0.05,-0.24,0.02,0.10,0.96,
0.114,-0.01,0.04,-0.22,0.02,0.10,0.96,
0.116,-0.01,0.04,-0.22,0.03,0.10,0.96,
0.118,-0.01,0.04,-0.22,0.03,0.10,0.97,
0.119,0.00,0.04,-0.16,0.03,0.10,0.97,
0.121,0.00,0.04,-0.16,0.03,0.10,0.97,
0.123,0.00,0.04,-0.16,0.03,0.10,0.97,
0.124,0.03,0.02,-0.10,0.03,0.10,0.97,
0.126,0.03,0.02,-0.10,0.03,0.10,0.97,
0.129,0.03,0.02,-0.10,0.03,0.10,0.98,
0.13,0.06,0.01,-0.05,0.03,0.10,0.98,
0.131,0.06,0.01,-0.05,0.03,0.10,0.98,
0.133,0.08,0.02,0.01,0.03,0.10,0.98,
0.134,0.08,0.02,0.01,0.04,0.10,0.98,
0.136,0.08,0.02,0.01,0.04,0.10,0.99,
0.138,0.08,0.02,0.01,0.04,0.10,0.99,
0.138,0.11,0.03,0.06,0.04,0.10,0.99,
0.14,0.11,0.03,0.06,0.04,0.10,0.99,
0.143,0.11,0.03,0.06,0.04,0.10,0.99,
0.144,0.13,0.03,0.11,0.04,0.10,0.99,
0.146,0.13,0.03,0.11,0.04,0.10,0.99,
0.148,0.13,0.03,0.11,0.05,0.10,0.99,
0.148,0.15,0.04,0.17,0.05,0.10,0.99,
0.15,0.15,0.04,0.17,0.04,0.11,1.00,
0.153,0.15,0.04,0.17,0.04,0.11,1.00,
0.153,0.20,0.04,0.18,0.04,0.11,1.00,
0.155,0.20,0.04,0.18,0.04,0.11,0.99,
0.158,0.20,0.04,0.18,0.04,0.11,0.99,
0.158,0.19,0.07,0.20,0.04,0.11,0.99,
0.16,0.19,0.07,0.20,0.04,0.11,0.99,
0.165,0.19,0.07,0.20,0.04,0.11,0.99,
0.165,0.18,0.06,0.18,0.04,0.11,0.99,
0.166,0.18,0.06,0.18,0.04,0.10,0.99,
0.168,0.18,0.06,0.18,0.04,0.10,0.99,
0.168,0.16,0.06,0.18,0.04,0.10,0.99,
0.17,0.16,0.06,0.18,0.04,0.10,0.99,
0.172,0.16,0.06,0.18,0.03,0.10,0.99,
0.173,0.14,0.04,0.15,0.03,0.10,0.99,
0.175,0.14,0.04,0.15,0.03,0.10,0.98,
0.178,0.10,0.02,0.12,0.03,0.10,0.98,
0.178,0.10,0.02,0.12,0.03,0.10,0.98,
0.18,0.10,0.02,0.12,0.02,0.10,0.98,
0.182,0.10,0.02,0.12,0.02,0.10,0.98,
0.183,0.03,-0.00,0.08,0.02,0.10,0.98,
0.185,0.03,-0.00,0.08,0.02,0.10,0.97,
0.187,0.03,-0.00,0.08,0.02,0.09,0.97,
0.187,-0.02,-0.03,0.04,0.02,0.09,0.97,
0.189,-0.02,-0.03,0.04,0.01,0.09,0.97,
0.192,-0.02,-0.03,0.04,0.01,0.09,0.97,
0.192,-0.07,-0.05,-0.01,0.01,0.09,0.97,
0.194,-0.07,-0.05,-0.01,0.01,0.09,0.97,
0.197,-0.07,-0.05,-0.01,0.01,0.09,0.96,
0.198,-0.10,-0.07,-0.06,0.01,0.09,0.96,
0.199,-0.10,-0.07,-0.06,0.01,0.09,0.96,
0.202,-0.10,-0.07,-0.06,0.01,0.09,0.96,
0.202,-0.14,-0.09,-0.11,0.01,0.09,0.96,
0.204,-0.14,-0.09,-0.11,0.01,0.09,0.96,
0.207,-0.14,-0.09,-0.11,0.01,0.09,0.96,
0.207,-0.15,-0.08,-0.14,0.01,0.09,0.96,
0.209,-0.15,-0.08,-0.14,0.01,0.09,0.96,
0.212,-0.15,-0.08,-0.14,0.01,0.09,0.96,
0.213,-0.16,-0.07,-0.15,0.01,0.09,0.96,
0.214,-0.16,-0.07,-0.15,0.00,0.09,0.96,
0.217,-0.16,-0.07,-0.15,0.00,0.09,0.96,
0.217,-0.17,-0.10,-0.16,0.00,0.09,0.96,
0.219,-0.17,-0.10,-0.16,0.00,0.09,0.96,
0.221,-0.17,-0.10,-0.16,0.00,0.09,0.97,
0.222,-0.17,-0.10,-0.14,0.00,0.09,0.97,
0.224,-0.17,-0.10,-0.14,0.00,0.09,0.97,
0.226,-0.17,-0.10,-0.14,0.00,0.09,0.97,
0.227,-0.18,-0.07,-0.10,0.00,0.09,0.97,
0.229,-0.18,-0.07,-0.10,0.01,0.09,0.97,
0.231,-0.18,-0.07,-0.10,0.01,0.09,0.98,
0.232,-0.17,-0.06,-0.07,0.01,0.09,0.98,
0.233,-0.17,-0.06,-0.07,0.01,0.09,0.98,
0.236,-0.17,-0.06,-0.07,0.01,0.09,0.98,
0.236,-0.14,-0.06,-0.01,0.01,0.09,0.98,
0.238,-0.14,-0.06,-0.01,0.01,0.10,0.99,
0.241,-0.14,-0.06,-0.01,0.01,0.10,0.99,
0.241,-0.12,-0.06,0.06,0.01,0.10,0.99,
0.243,-0.12,-0.06,0.06,0.01,0.10,0.99,
0.246,-0.12,-0.06,0.06,0.01,0.10,0.99,
0.247,-0.11,-0.03,0.12,0.01,0.10,0.99,
0.249,-0.11,-0.03,0.12,0.01,0.10,0.99,
0.251,-0.11,-0.03,0.12,0.01,0.10,0.99,
0.251,-0.09,-0.01,0.15,0.01,0.10,0.99,
0.253,-0.09,-0.01,0.15,0.01,0.10,0.99,
0.256,-0.09,-0.01,0.15,0.01,0.10,0.99,
0.256,-0.11,0.00,0.17,0.01,0.10,0.99,
0.258,-0.11,0.00,0.17,0.00,0.10,0.99,
0.261,-0.11,0.00,0.17,0.00,0.10,0.99,
0.261,-0.12,-0.00,0.18,0.00,0.10,0.99,
0.265,-0.12,-0.00,0.18,0.00,0.10,0.99,
0.266,-0.12,-0.00,0.18,0.00,0.10,0.99,
0.266,-0.15,0.00,0.17,0.00,0.10,0.99,
0.268,-0.15,0.00,0.17,-0.00,0.10,0.99,
0.271,-0.15,0.00,0.17,-0.00,0.10,0.99,
0.271,-0.17,-0.02,0.15,-0.00,0.10,0.99,
0.273,-0.17,-0.02,0.15,-0.00,0.10,0.99,
0.275,-0.17,-0.02,0.15,-0.01,0.10,0.98,
0.275,-0.22,-0.03,0.12,-0.01,0.10,0.98,
0.278,-0.22,-0.03,0.12,-0.00,0.10,0.98,
0.28,-0.22,-0.03,0.12,-0.01,0.10,0.98,
0.28,-0.24,-0.03,0.08,-0.01,0.10,0.98,
0.283,-0.24,-0.03,0.08,-0.01,0.10,0.98,
0.285,-0.24,-0.03,0.08,-0.00,0.10,0.97,
0.285,-0.24,-0.04,0.03,-0.00,0.10,0.97,
0.287,-0.24,-0.04,0.03,-0.01,0.10,0.97,
0.29,-0.24,-0.04,0.03,-0.01,0.10,0.97,
0.29,-0.24,-0.05,-0.01,-0.01,0.10,0.97,
0.292,-0.24,-0.05,-0.01,-0.00,0.10,0.97,
0.295,-0.24,-0.05,-0.01,-0.01,0.10,0.97,
0.295,-0.24,-0.05,-0.05,-0.01,0.10,0.97,
0.297,-0.24,-0.05,-0.05,-0.01,0.10,0.97,
0.301,-0.24,-0.05,-0.05,-0.01,0.10,0.97,
0.301,-0.23,-0.04,-0.05,-0.01,0.10,0.97,
0.303,-0.23,-0.04,-0.05,-0.00,0.10,0.97,
0.305,-0.23,-0.04,-0.05,0.00,0.10,0.97,
0.305,-0.23,-0.05,-0.08,0.00,0.10,0.97,
0.307,-0.23,-0.05,-0.08,0.00,0.10,0.97,
0.31,-0.23,-0.05,-0.08,-0.00,0.10,0.97,
0.31,-0.18,-0.04,-0.09,-0.00,0.10,0.97,
0.313,-0.18,-0.04,-0.09,0.00,0.10,0.96,
0.314,-0.18,-0.04,-0.09,0.00,0.10,0.96,
0.315,-0.16,-0.04,-0.09,0.00,0.10,0.96,
0.317,-0.16,-0.04,-0.09,0.01,0.10,0.96,
0.319,-0.16,-0.04,-0.09,0.01,0.10,0.97,
0.32,-0.15,-0.04,-0.11,0.01,0.10,0.97,
0.322,-0.15,-0.04,-0.11,0.01,0.10,0.97,
0.324,-0.15,-0.04,-0.11,0.01,0.10,0.97,
0.326,-0.09,-0.03,-0.10,0.01,0.10,0.97,
0.327,-0.09,-0.03,-0.10,0.01,0.10,0.97,
0.329,-0.09,-0.03,-0.10,0.01,0.10,0.97,
0.33,-0.07,-0.05,-0.09,0.01,0.10,0.97,
0.331,-0.07,-0.05,-0.09,0.02,0.10,0.97,
0.334,-0.07,-0.05,-0.09,0.02,0.10,0.98,
0.335,-0.04,-0.04,-0.06,0.02,0.10,0.98,
0.336,-0.04,-0.04,-0.06,0.02,0.10,0.98,
0.339,-0.04,-0.04,-0.06,0.02,0.10,0.98,
0.339,0.01,-0.06,-0.01,0.02,0.10,0.98,
0.341,0.01,-0.06,-0.01,0.02,0.10,0.99,
0.344,0.01,-0.06,-0.01,0.02,0.10,0.99,
0.344,0.02,-0.05,0.05,0.02,0.10,0.99,
0.348,0.02,-0.05,0.05,0.02,0.10,0.99,
0.349,0.02,-0.05,0.05,0.02,0.10,0.99,
0.349,0.04,-0.05,0.11,0.02,0.10,0.99,
0.351,0.04,-0.05,0.11,0.02,0.10,1.00,
0.354,0.04,-0.05,0.11,0.02,0.09,1.00,
0.354,0.08,-0.06,0.16,0.02,0.09,1.00,
0.356,0.08,-0.06,0.16,0.02,0.09,1.00,
0.359,0.08,-0.06,0.16,0.02,0.09,1.00,
0.359,0.07,-0.07,0.20,0.02,0.09,1.00,
0.361,0.07,-0.07,0.20,0.02,0.09,0.99,
0.364,0.07,-0.07,0.20,0.02,0.09,0.99,
0.364,0.07,-0.08,0.19,0.02,0.09,0.99,
0.366,0.07,-0.08,0.19,0.03,0.09,0.99,
0.369,0.07,-0.08,0.19,0.03,0.09,0.99,
0.369,0.09,-0.11,0.17,0.03,0.09,0.99,
0.371,0.09,-0.11,0.17,0.02,0.09,0.99,
0.373,0.09,-0.11,0.17,0.02,0.09,0.98,
0.373,0.10,-0.12,0.12,0.02,0.09,0.98,
0.376,0.10,-0.12,0.12,0.02,0.09,0.98,
0.378,0.10,-0.12,0.12,0.03,0.09,0.98,
0.379,0.08,-0.16,0.08,0.03,0.09,0.98,
0.38,0.08,-0.16,0.08,0.03,0.08,0.97,
0.383,0.08,-0.16,0.08,0.03,0.08,0.97,
0.384,0.10,-0.17,0.02,0.03,0.08,0.97,
0.386,0.10,-0.17,0.02,0.02,0.08,0.97,
0.388,0.10,-0.17,0.02,0.03,0.08,0.97,
0.388,0.09,-0.20,-0.03,0.03,0.08,0.97,
0.39,0.09,-0.20,-0.03,0.03,0.08,0.96,
0.393,0.09,-0.20,-0.03,0.03,0.08,0.96,
0.393,0.09,-0.20,-0.07,0.03,0.08,0.96,
0.396,0.09,-0.20,-0.07,0.03,0.08,0.96,
0.398,0.09,-0.20,-0.07,0.03,0.08,0.96,
0.398,0.12,-0.24,-0.13,0.03,0.08,0.96,
0.4,0.12,-0.24,-0.13,0.03,0.08,0.95,
0.403,0.12,-0.24,-0.13,0.04,0.08,0.95,
0.403,0.16,-0.25,-0.17,0.04,0.08,0.95,
0.405,0.16,-0.25,-0.17,0.04,0.08,0.95,
0.408,0.16,-0.25,-0.17,0.04,0.07,0.95,
0.408,0.19,-0.27,-0.21,0.04,0.07,0.95,
0.41,0.19,-0.27,-0.21,0.04,0.07,0.95,
0.413,0.19,-0.27,-0.21,0.04,0.07,0.95,
0.413,0.24,-0.28,-0.22,0.04,0.07,0.95,
0.415,0.24,-0.28,-0.22,0.04,0.08,0.96,
0.417,0.24,-0.28,-0.22,0.05,0.07,0.96,
0.418,0.25,-0.28,-0.20,0.05,0.07,0.96,
0.42,0.25,-0.28,-0.20,0.05,0.07,0.96,
0.422,0.25,-0.28,-0.20,0.05,0.07,0.96,
0.423,0.29,-0.28,-0.17,0.05,0.07,0.96,
0.424,0.29,-0.28,-0.17,0.05,0.07,0.97,
0.427,0.29,-0.28,-0.17,0.05,0.07,0.97,
0.427,0.32,-0.29,-0.13,0.05,0.07,0.97,
0.429,0.32,-0.29,-0.13,0.05,0.07,0.97,
0.432,0.32,-0.29,-0.13,0.05,0.07,0.98,
0.432,0.34,-0.32,-0.07,0.05,0.07,0.98,
0.434,0.34,-0.32,-0.07,0.05,0.07,0.98,
0.437,0.34,-0.32,-0.07,0.05,0.07,0.98,
0.437,0.33,-0.32,-0.00,0.05,0.07,0.98,
0.439,0.33,-0.32,-0.00,0.05,0.07,0.98,
0.442,0.33,-0.32,-0.00,0.05,0.07,0.98,
0.442,0.31,-0.31,0.04,0.05,0.07,0.98,
0.444,0.31,-0.31,0.04,0.04,0.06,0.98,
0.448,0.31,-0.31,0.04,0.04,0.06,0.98,
0.449,0.29,-0.33,0.06,0.04,0.06,0.98,
0.449,0.29,-0.33,0.06,0.04,0.06,0.98,
0.452,0.29,-0.33,0.06,0.04,0.06,0.98,
0.452,0.27,-0.36,0.08,0.04,0.06,0.98,
0.454,0.27,-0.36,0.08,0.04,0.06,0.98,
0.457,0.27,-0.36,0.08,0.04,0.06,0.98,
0.457,0.23,-0.37,0.07,0.04,0.06,0.98,
0.459,0.23,-0.37,0.07,0.04,0.06,0.98,
0.461,0.23,-0.37,0.07,0.04,0.06,0.98,
0.462,0.23,-0.39,0.06,0.04,0.06,0.98,
0.464,0.23,-0.39,0.06,0.04,0.06,0.98,
0.466,0.23,-0.39,0.06,0.04,0.06,0.97,
0.467,0.25,-0.43,0.03,0.04,0.06,0.97,
0.469,0.25,-0.43,0.03,0.05,0.06,0.97,
0.471,0.25,-0.43,0.03,0.05,0.05,0.97,
0.471,0.26,-0.43,-0.01,0.05,0.05,0.97,
0.473,0.26,-0.43,-0.01,0.05,0.05,0.97,
0.476,0.26,-0.43,-0.01,0.05,0.06,0.97,
0.476,0.29,-0.44,-0.03,0.05,0.06,0.97,
0.479,0.29,-0.44,-0.03,0.05,0.05,0.97,
0.481,0.29,-0.44,-0.03,0.05,0.05,0.96,
0.481,0.31,-0.45,-0.06,0.05,0.05,0.96,
0.483,0.31,-0.45,-0.06,0.05,0.05,0.96,
0.486,0.31,-0.45,-0.06,0.05,0.05,0.96,
0.486,0.31,-0.47,-0.09,0.05,0.05,0.96,
0.488,0.31,-0.47,-0.09,0.05,0.05,0.96,
0.491,0.31,-0.47,-0.09,0.05,0.05,0.96,
0.491,0.30,-0.48,-0.11,0.05,0.05,0.96,
0.493,0.30,-0.48,-0.11,0.05,0.05,0.96,
0.496,0.30,-0.48,-0.11,0.05,0.05,0.96,
0.496,0.30,-0.49,-0.11,0.05,0.05,0.96,
0.498,0.30,-0.49,-0.11,0.05,0.04,0.96,
0.501,0.30,-0.49,-0.11,0.05,0.04,0.96,
0.501,0.31,-0.51,-0.11,0.05,0.04,0.96,
0.503,0.31,-0.51,-0.11,0.05,0.04,0.97,
0.506,0.31,-0.51,-0.11,0.05,0.04,0.97,
0.506,0.31,-0.54,-0.10,0.05,0.04,0.97,
0.508,0.31,-0.54,-0.10,0.05,0.04,0.97,
0.51,0.31,-0.54,-0.10,0.05,0.04,0.97,
0.511,0.30,-0.55,-0.07,0.05,0.04,0.97,
0.513,0.30,-0.55,-0.07,0.05,0.04,0.97,
0.515,0.30,-0.55,-0.07,0.06,0.04,0.97,
0.516,0.32,-0.54,-0.03,0.06,0.04,0.97,
0.518,0.32,-0.54,-0.03,0.06,0.04,0.97,
0.52,0.32,-0.54,-0.03,0.06,0.04,0.98,
0.52,0.34,-0.54,-0.02,0.06,0.04,0.98,
0.523,0.34,-0.54,-0.02,0.06,0.04,0.98,
0.525,0.34,-0.54,-0.02,0.06,0.04,0.98,
0.525,0.36,-0.54,0.01,0.06,0.04,0.98,
0.527,0.36,-0.54,0.01,0.06,0.04,0.98,
0.53,0.36,-0.54,0.01,0.07,0.04,0.98,
0.531,0.39,-0.55,0.03,0.07,0.04,0.98,
0.532,0.39,-0.55,0.03,0.07,0.04,0.98,
0.535,0.39,-0.55,0.03,0.07,0.04,0.98,
0.535,0.43,-0.54,0.07,0.07,0.04,0.98,
0.537,0.43,-0.54,0.07,0.07,0.04,0.98,
0.54,0.43,-0.54,0.07,0.08,0.05,0.98,
0.54,0.48,-0.51,0.09,0.08,0.05,0.98,
0.542,0.48,-0.51,0.09,0.08,0.05,0.98,
0.548,0.48,-0.51,0.09,0.08,0.05,0.97,
0.548,0.52,-0.48,0.05,0.08,0.05,0.97,
0.548,0.52,-0.48,0.05,0.08,0.05,0.97,
0.55,0.52,-0.48,0.05,0.08,0.05,0.97,
0.55,0.55,-0.47,0.01,0.08,0.05,0.97,
0.552,0.55,-0.47,0.01,0.08,0.05,0.96,
0.554,0.55,-0.47,0.01,0.08,0.05,0.96,
0.555,0.55,-0.45,-0.06,0.08,0.05,0.96,
0.557,0.55,-0.45,-0.06,0.08,0.05,0.95,
0.559,0.55,-0.45,-0.06,0.08,0.05,0.95,
0.56,0.54,-0.45,-0.15,0.08,0.05,0.95,
0.563,0.54,-0.45,-0.15,0.08,0.05,0.94,
0.564,0.54,-0.45,-0.15,0.08,0.05,0.94,
0.565,0.52,-0.46,-0.24,0.08,0.05,0.94,
0.567,0.52,-0.46,-0.24,0.08,0.05,0.93,
0.569,0.52,-0.46,-0.24,0.08,0.05,0.93,
0.569,0.51,-0.45,-0.34,0.08,0.05,0.93,
0.572,0.51,-0.45,-0.34,0.08,0.05,0.92,
0.574,0.51,-0.45,-0.34,0.07,0.05,0.92,
0.575,0.50,-0.44,-0.44,0.07,0.05,0.92,
0.576,0.50,-0.44,-0.44,0.07,0.05,0.91,
0.581,0.50,-0.44,-0.44,0.07,0.05,0.91,
0.582,0.49,-0.42,-0.54,0.07,0.05,0.91,
0.582,0.49,-0.42,-0.54,0.07,0.05,0.91,
0.584,0.49,-0.42,-0.54,0.07,0.05,0.91,
0.584,0.47,-0.41,-0.60,0.07,0.05,0.91,
0.586,0.47,-0.41,-0.60,0.07,0.05,0.91,
0.589,0.47,-0.41,-0.60,0.07,0.05,0.91,
0.589,0.45,-0.39,-0.62,0.07,0.05,0.91,
0.591,0.45,-0.39,-0.62,0.07,0.05,0.91,
0.594,0.45,-0.39,-0.62,0.07,0.05,0.91,
0.595,0.46,-0.37,-0.62,0.07,0.05,0.91,
0.596,0.46,-0.37,-0.62,0.07,0.05,0.91,
0.599,0.46,-0.37,-0.62,0.07,0.05,0.92,
0.599,0.46,-0.37,-0.60,0.07,0.05,0.92,
0.601,0.46,-0.37,-0.60,0.07,0.05,0.92,
0.604,0.46,-0.37,-0.60,0.07,0.05,0.92,
0.604,0.44,-0.36,-0.54,0.07,0.05,0.92,
0.606,0.44,-0.36,-0.54,0.07,0.05,0.93,
0.609,0.44,-0.36,-0.54,0.07,0.05,0.93,
0.609,0.42,-0.37,-0.46,0.07,0.05,0.93,
0.611,0.42,-0.37,-0.46,0.07,0.05,0.93,
0.613,0.42,-0.37,-0.46,0.07,0.05,0.94,
0.614,0.38,-0.39,-0.39,0.07,0.05,0.94,
0.616,0.38,-0.39,-0.39,0.06,0.05,0.94,
0.618,0.38,-0.39,-0.39,0.06,0.05,0.94,
0.619,0.36,-0.38,-0.32,0.06,0.05,0.94,
0.62,0.36,-0.38,-0.32,0.06,0.05,0.95,
0.623,0.36,-0.38,-0.32,0.06,0.05,0.95,
0.624,0.33,-0.36,-0.26,0.06,0.05,0.95,
0.626,0.33,-0.36,-0.26,0.06,0.05,0.95,
0.628,0.33,-0.36,-0.26,0.06,0.05,0.95,
0.629,0.30,-0.37,-0.20,0.06,0.05,0.95,
0.631,0.30,-0.37,-0.20,0.05,0.04,0.96,
0.633,0.30,-0.37,-0.20,0.05,0.04,0.96,
0.633,0.26,-0.38,-0.15,0.05,0.04,0.96,
0.635,0.26,-0.38,-0.15,0.05,0.05,0.96,
0.638,0.26,-0.38,-0.15,0.04,0.05,0.96,
0.638,0.19,-0.40,-0.12,0.04,0.05,0.96,
0.64,0.19,-0.40,-0.12,0.04,0.05,0.96,
0.643,0.19,-0.40,-0.12,0.04,0.05,0.96,
0.643,0.14,-0.38,-0.12,0.04,0.05,0.96,
0.646,0.14,-0.38,-0.12,0.04,0.05,0.96,
0.65,0.14,-0.38,-0.12,0.04,0.05,0.96,
0.65,0.10,-0.37,-0.12,0.04,0.05,0.96,
0.651,0.10,-0.37,-0.12,0.04,0.05,0.96,
0.653,0.10,-0.37,-0.12,0.04,0.05,0.96,
0.653,0.07,-0.35,-0.12,0.04,0.05,0.96,
0.655,0.07,-0.35,-0.12,0.03,0.05,0.96,
0.657,0.07,-0.35,-0.12,0.03,0.05,0.95,
0.658,0.05,-0.34,-0.10,0.03,0.05,0.95,
0.66,0.05,-0.34,-0.10,0.03,0.05,0.95,
0.665,0.05,-0.34,-0.10,0.04,0.05,0.95,
0.666,0.03,-0.30,-0.14,0.04,0.05,0.95,
0.666,0.03,-0.30,-0.14,0.04,0.05,0.95,
0.667,0.03,-0.30,-0.14,0.04,0.06,0.95,
0.667,0.03,-0.28,-0.16,0.04,0.06,0.95,
0.669,0.03,-0.28,-0.16,0.04,0.06,0.95,
0.672,0.03,-0.28,-0.16,0.04,0.06,0.95,
0.672,0.06,-0.25,-0.19,0.04,0.06,0.95,
0.674,0.06,-0.25,-0.19,0.04,0.06,0.95,
0.677,0.06,-0.25,-0.19,0.04,0.06,0.95,
0.677,0.05,-0.23,-0.18,0.04,0.06,0.95,
0.679,0.05,-0.23,-0.18,0.04,0.06,0.95,
0.682,0.05,-0.23,-0.18,0.04,0.06,0.95,
0.682,0.06,-0.19,-0.17,0.04,0.06,0.95,
0.684,0.06,-0.19,-0.17,0.04,0.06,0.96,
0.687,0.06,-0.19,-0.17,0.04,0.06,0.96,
0.687,0.07,-0.17,-0.14,0.04,0.06,0.96,
0.689,0.07,-0.17,-0.14,0.04,0.06,0.96,
0.691,0.07,-0.17,-0.14,0.04,0.06,0.96,
0.692,0.07,-0.14,-0.12,0.04,0.06,0.96,
0.694,0.07,-0.14,-0.12,0.04,0.06,0.96,
0.696,0.07,-0.14,-0.12,0.04,0.06,0.96,
0.697,0.07,-0.12,-0.08,0.04,0.06,0.96,
0.699,0.07,-0.12,-0.08,0.04,0.06,0.96,
0.702,0.07,-0.12,-0.08,0.04,0.06,0.97,
0.702,0.05,-0.13,-0.05,0.04,0.06,0.97,
0.704,0.05,-0.13,-0.05,0.04,0.06,0.97,
0.706,0.05,-0.13,-0.05,0.04,0.06,0.97,
0.707,0.06,-0.13,-0.03,0.04,0.06,0.97,
0.709,0.06,-0.13,-0.03,0.03,0.06,0.97,
0.713,0.06,-0.13,-0.03,0.03,0.06,0.97,
0.713,0.03,-0.13,0.00,0.03,0.06,0.97,
0.714,0.03,-0.13,0.00,0.03,0.06,0.98,
0.716,0.03,-0.13,0.00,0.03,0.06,0.98,
0.717,0.01,-0.10,0.03,0.03,0.06,0.98,
0.719,0.01,-0.10,0.03,0.03,0.06,0.98,
0.721,0.01,-0.10,0.03,0.02,0.07,0.98,
0.721,-0.04,-0.09,0.08,0.02,0.07,0.98,
0.723,-0.04,-0.09,0.08,0.02,0.07,0.97,
0.726,-0.04,-0.09,0.08,0.02,0.07,0.97,
0.726,-0.09,-0.06,0.11,0.02,0.07,0.97,
0.729,-0.09,-0.06,0.11,0.02,0.07,0.97,
0.731,-0.09,-0.06,0.11,0.01,0.06,0.97,
0.731,-0.14,-0.03,0.05,0.01,0.06,0.97,
0.733,-0.14,-0.03,0.05,0.01,0.06,0.97,
0.736,-0.14,-0.03,0.05,0.01,0.06,0.97,
0.736,-0.18,-0.05,0.03,0.01,0.06,0.97,
0.738,-0.18,-0.05,0.03,0.01,0.06,0.96,
0.741,-0.18,-0.05,0.03,0.00,0.06,0.96,
0.741,-0.22,-0.07,-0.01,0.00,0.06,0.96,
0.743,-0.22,-0.07,-0.01,0.00,0.06,0.96,
0.746,-0.22,-0.07,-0.01,0.00,0.06,0.96,
0.747,-0.26,-0.06,-0.05,0.00,0.06,0.96,
0.748,-0.26,-0.06,-0.05,-0.01,0.06,0.97,
0.751,-0.26,-0.06,-0.05,-0.01,0.07,0.97,
0.751,-0.29,-0.04,-0.07,-0.01,0.07,0.97,
0.753,-0.29,-0.04,-0.07,-0.01,0.06,0.97,
0.755,-0.29,-0.04,-0.07,-0.01,0.07,0.97,
0.756,-0.36,-0.02,-0.02,-0.01,0.07,0.97,
0.758,-0.36,-0.02,-0.02,-0.01,0.07,0.98,
0.76,-0.36,-0.02,-0.02,-0.01,0.07,0.98,
0.761,-0.40,-0.00,0.02,-0.01,0.07,0.98,
0.769,-0.40,-0.00,0.02,-0.01,0.07,0.98,
0.77,-0.40,-0.00,0.02,-0.01,0.07,0.99,
0.77,-0.41,0.01,0.08,-0.01,0.07,0.99,
0.771,-0.41,0.01,0.08,-0.01,0.07,0.99,
0.771,-0.41,0.01,0.08,-0.01,0.07,0.99,
0.771,-0.41,0.02,0.16,-0.01,0.07,0.99,
0.773,-0.41,0.02,0.16,-0.01,0.07,0.99,
0.775,-0.41,0.02,0.16,-0.01,0.07,1.00,
0.775,-0.38,0.05,0.21,-0.01,0.07,1.00,
0.777,-0.38,0.05,0.21,-0.00,0.07,1.00,
0.781,-0.38,0.05,0.21,-0.00,0.07,1.00,
0.782,-0.34,0.07,0.25,-0.00,0.07,1.00,
0.782,-0.34,0.07,0.25,-0.00,0.07,1.00,
0.784,-0.34,0.07,0.25,-0.00,0.07,1.00,
0.785,-0.31,0.07,0.29,-0.00,0.07,1.00,
0.787,-0.31,0.07,0.29,0.00,0.07,1.01,
0.789,-0.31,0.07,0.29,0.00,0.07,1.01,
0.79,-0.28,0.08,0.33,0.00,0.07,1.01,
0.792,-0.28,0.08,0.33,-0.00,0.07,1.00,
0.795,-0.28,0.08,0.33,-0.00,0.07,1.00,
0.795,-0.25,0.07,0.34,-0.00,0.07,1.00,
0.797,-0.25,0.07,0.34,-0.00,0.07,1.00,
0.8,-0.25,0.07,0.34,-0.00,0.07,1.00,
0.8,-0.27,0.07,0.33,-0.00,0.07,1.00,
0.802,-0.27,0.07,0.33,-0.00,0.07,0.99,
0.804,-0.27,0.07,0.33,-0.00,0.07,0.99,
0.805,-0.28,0.08,0.28,-0.00,0.07,0.99,
0.807,-0.28,0.08,0.28,-0.00,0.07,0.99,
0.809,-0.28,0.08,0.28,-0.00,0.07,0.98,
0.809,-0.28,0.08,0.21,-0.00,0.07,0.98,
0.812,-0.28,0.08,0.21,-0.00,0.07,0.98,
0.815,-0.28,0.08,0.21,-0.00,0.07,0.98,
0.817,-0.29,0.07,0.14,-0.00,0.07,0.98,
0.817,-0.29,0.07,0.14,-0.00,0.07,0.97,
0.819,-0.29,0.07,0.14,-0.01,0.07,0.97,
0.819,-0.29,0.06,0.07,-0.01,0.07,0.97,
0.821,-0.29,0.06,0.07,-0.01,0.07,0.97,
0.824,-0.29,0.06,0.07,-0.01,0.07,0.97,
0.824,-0.30,0.05,0.00,-0.01,0.07,0.97,
0.826,-0.30,0.05,0.00,-0.00,0.07,0.97,
0.829,-0.30,0.05,0.00,-0.00,0.07,0.97,
0.829,-0.31,0.07,-0.03,-0.00,0.07,0.97,
0.831,-0.31,0.07,-0.03,-0.00,0.07,0.96,
0.834,-0.31,0.07,-0.03,0.00,0.07,0.96,
0.834,-0.30,0.09,-0.05,0.00,0.07,0.96,
0.836,-0.30,0.09,-0.05,0.00,0.07,0.96,
0.839,-0.30,0.09,-0.05,0.01,0.07,0.97,
0.839,-0.25,0.10,-0.08,0.01,0.07,0.97,
0.841,-0.25,0.10,-0.08,0.01,0.07,0.97,
0.844,-0.25,0.10,-0.08,0.01,0.07,0.97,
0.844,-0.20,0.12,-0.05,0.01,0.07,0.97,
0.851,-0.20,0.12,-0.05,0.01,0.07,0.97,
0.851,-0.20,0.12,-0.05,0.01,0.07,0.98,
0.852,-0.17,0.13,-0.03,0.01,0.07,0.98,
0.852,-0.17,0.13,-0.03,0.02,0.07,0.98,
0.853,-0.17,0.13,-0.03,0.02,0.07,0.98,
0.853,-0.13,0.13,0.02,0.02,0.07,0.98,
0.855,-0.13,0.13,0.02,0.02,0.07,0.98,
0.858,-0.13,0.13,0.02,0.02,0.07,0.99,
0.858,-0.10,0.12,0.08,0.02,0.07,0.99,
0.86,-0.10,0.12,0.08,0.02,0.07,0.99,
0.863,-0.08,0.13,0.15,0.02,0.07,0.99,
0.864,-0.08,0.13,0.15,0.02,0.06,1.00,
0.865,-0.08,0.13,0.15,0.02,0.06,1.00,
0.868,-0.08,0.13,0.15,0.02,0.06,1.01,
0.868,-0.07,0.10,0.23,0.02,0.06,1.01,
0.87,-0.07,0.10,0.23,0.02,0.06,1.01,
0.873,-0.08,0.10,0.31,0.02,0.06,1.01,
0.873,-0.08,0.10,0.31,0.02,0.06,1.01,
0.875,-0.08,0.10,0.31,0.02,0.06,1.02,
0.879,-0.08,0.04,0.39,0.02,0.06,1.02,
0.879,-0.08,0.04,0.39,0.02,0.05,1.02,
0.88,-0.08,0.04,0.39,0.01,0.05,1.02,
0.883,-0.08,0.04,0.39,0.01,0.05,1.02,
0.883,-0.10,0.03,0.45,0.01,0.05,1.02,
0.885,-0.10,0.03,0.45,0.01,0.05,1.03,
0.888,-0.10,0.03,0.45,0.00,0.05,1.03,
0.888,-0.13,0.01,0.48,0.00,0.05,1.03,
0.89,-0.13,0.01,0.48,0.00,0.05,1.03,
0.892,-0.13,0.01,0.48,0.00,0.05,1.03,
0.893,-0.21,-0.01,0.52,0.00,0.05,1.03,
0.895,-0.21,-0.01,0.52,-0.00,0.05,1.03,
0.897,-0.21,-0.01,0.52,-0.01,0.05,1.03,
0.898,-0.24,-0.04,0.53,-0.01,0.05,1.03,
0.9,-0.24,-0.04,0.53,-0.01,0.05,1.03,
0.902,-0.24,-0.04,0.53,-0.01,0.05,1.02,
0.903,-0.30,-0.06,0.52,-0.01,0.05,1.02,
0.904,-0.30,-0.06,0.52,-0.01,0.05,1.02,
0.907,-0.30,-0.06,0.52,-0.00,0.04,1.02,
0.907,-0.33,-0.07,0.48,-0.00,0.04,1.02,
0.909,-0.33,-0.07,0.48,-0.01,0.04,1.02,
0.912,-0.33,-0.07,0.48,-0.00,0.04,1.01,
0.913,-0.32,-0.08,0.43,-0.00,0.04,1.01,
0.914,-0.32,-0.08,0.43,-0.00,0.04,1.01,
0.917,-0.32,-0.08,0.43,-0.00,0.04,1.01,
0.917,-0.32,-0.10,0.38,-0.00,0.04,1.01,
0.919,-0.32,-0.10,0.38,-0.00,0.04,1.00,
0.922,-0.32,-0.10,0.38,-0.00,0.04,1.00,
0.922,-0.30,-0.13,0.31,-0.00,0.04,1.00,
0.924,-0.30,-0.13,0.31,-0.00,0.04,1.00,
0.927,-0.29,-0.11,0.26,-0.00,0.04,1.00,
0.927,-0.29,-0.11,0.26,-0.00,0.05,1.00,
0.93,-0.29,-0.11,0.26,0.00,0.05,0.99,
0.932,-0.29,-0.11,0.26,0.00,0.05,0.99,
0.934,-0.29,-0.07,0.20,0.00,0.05,0.99,
0.934,-0.29,-0.07,0.20,0.00,0.05,0.99,
0.936,-0.29,-0.07,0.20,0.00,0.05,0.98,
0.937,-0.27,-0.04,0.14,0.00,0.05,0.98,
0.939,-0.27,-0.04,0.14,0.01,0.06,0.98,
0.941,-0.27,-0.04,0.14,0.01,0.06,0.98,
0.942,-0.23,-0.02,0.09,0.01,0.06,0.98,
0.944,-0.23,-0.02,0.09,0.01,0.05,0.98,
0.946,-0.23,-0.02,0.09,0.01,0.06,0.97,
0.947,-0.19,0.03,0.05,0.01,0.06,0.97,
0.949,-0.19,0.03,0.05,0.01,0.06,0.97,
0.952,-0.16,0.03,-0.02,0.01,0.06,0.97,
0.952,-0.16,0.03,-0.02,0.01,0.06,0.97,
0.953,-0.16,0.03,-0.02,0.01,0.06,0.97,
0.956,-0.16,0.03,-0.02,0.01,0.06,0.97,
0.956,-0.15,0.05,-0.05,0.01,0.06,0.97,
0.958,-0.15,0.05,-0.05,0.01,0.06,0.97,
0.961,-0.15,0.05,-0.05,0.01,0.06,0.97,
0.962,-0.15,0.10,-0.06,0.01,0.06,0.97,
0.969,-0.15,0.10,-0.06,0.01,0.07,0.97,
0.969,-0.15,0.10,-0.06,0.01,0.07,0.97,
0.97,-0.17,0.11,-0.08,0.01,0.07,0.97,
0.97,-0.17,0.11,-0.08,0.01,0.07,0.96,
0.971,-0.17,0.11,-0.08,0.01,0.07,0.96,
0.971,-0.17,0.14,-0.11,0.01,0.07,0.96,
0.973,-0.17,0.14,-0.11,0.01,0.07,0.96,
0.976,-0.17,0.14,-0.11,0.01,0.07,0.96,
0.976,-0.17,0.14,-0.13,0.01,0.07,0.96,
0.979,-0.17,0.14,-0.13,0.01,0.07,0.96,
0.981,-0.17,0.14,-0.13,0.01,0.07,0.96,
0.981,-0.17,0.14,-0.14,0.01,0.07,0.96,
0.983,-0.17,0.14,-0.14,0.01,0.07,0.96,
0.986,-0.17,0.14,-0.14,0.01,0.07,0.96,
0.986,-0.18,0.16,-0.14,0.01,0.07,0.96,
0.988,-0.18,0.16,-0.14,0.01,0.07,0.96,
0.99,-0.18,0.16,-0.14,0.01,0.07,0.96,
0.991,-0.16,0.18,-0.14,0.01,0.07,0.96,
0.992,-0.16,0.18,-0.14,0.01,0.08,0.96,
0.995,-0.16,0.18,-0.14,0.02,0.07,0.97,
0.996,-0.15,0.22,-0.12,0.02,0.07,0.97,
0.997,-0.15,0.22,-0.12,0.02,0.07,0.97,
1.0,-0.15,0.22,-0.12,0.03,0.07,0.97,
1.001,-0.10,0.23,-0.10,0.03,0.07,0.97,
1.003,-0.10,0.23,-0.10,0.03,0.07,0.97,
1.005,-0.10,0.23,-0.10,0.03,0.08,0.98,
1.005,-0.02,0.22,-0.06,0.03,0.08,0.98,
1.007,-0.02,0.22,-0.06,0.03,0.07,0.98,
1.01,-0.02,0.22,-0.06,0.04,0.07,0.98,
1.01,0.01,0.23,0.00,0.04,0.07,0.98,
1.012,0.01,0.23,0.00,0.04,0.07,0.99,
1.015,0.01,0.23,0.00,0.04,0.07,0.99,
1.016,0.07,0.24,0.05,0.04,0.07,0.99,
1.017,0.07,0.24,0.05,0.04,0.07,0.99,
1.02,0.07,0.24,0.05,0.03,0.08,0.99,
1.02,0.08,0.23,0.11,0.03,0.08,0.99,
1.022,0.08,0.23,0.11,0.03,0.08,0.99,
1.025,0.08,0.23,0.11,0.03,0.08,0.99,
1.025,0.05,0.24,0.11,0.03,0.08,0.99,
1.027,0.05,0.24,0.11,0.03,0.08,0.98,
1.03,0.05,0.24,0.11,0.03,0.08,0.98,
1.03,0.03,0.27,0.12,0.03,0.08,0.98,
1.032,0.03,0.27,0.12,0.03,0.08,0.98,
1.035,0.03,0.27,0.12,0.02,0.08,0.97,
1.035,-0.01,0.27,0.08,0.02,0.08,0.97,
1.037,-0.01,0.27,0.08,0.02,0.08,0.97,
1.039,-0.01,0.27,0.08,0.02,0.08,0.97,
1.04,-0.06,0.27,0.01,0.02,0.08,0.97,
1.041,-0.06,0.27,0.01,0.02,0.09,0.96,
1.044,-0.06,0.27,0.01,0.02,0.09,0.96,
1.045,-0.09,0.30,-0.07,0.02,0.09,0.96,
1.051,-0.09,0.30,-0.07,0.02,0.09,0.96,
1.052,-0.09,0.30,-0.07,0.02,0.09,0.95,
1.052,-0.12,0.34,-0.15,0.02,0.09,0.95,
1.052,-0.12,0.34,-0.15,0.02,0.09,0.95,
1.054,-0.12,0.34,-0.15,0.02,0.09,0.95,
1.055,-0.15,0.35,-0.19,0.02,0.09,0.95,
1.056,-0.15,0.35,-0.19,0.02,0.09,0.95,
1.059,-0.15,0.35,-0.19,0.02,0.09,0.95,
1.059,-0.13,0.38,-0.23,0.02,0.09,0.95,
1.063,-0.13,0.38,-0.23,0.02,0.09,0.95,
1.064,-0.13,0.38,-0.23,0.02,0.10,0.96,
1.064,-0.11,0.39,-0.23,0.02,0.10,0.96,
1.066,-0.11,0.39,-0.23,0.02,0.10,0.96,
1.069,-0.11,0.39,-0.23,0.02,0.10,0.96,
1.069,-0.07,0.45,-0.20,0.02,0.10,0.96,
1.071,-0.07,0.45,-0.20,0.02,0.10,0.96,
1.074,-0.07,0.45,-0.20,0.02,0.10,0.97,
1.074,-0.06,0.49,-0.14,0.02,0.10,0.97,
1.076,-0.06,0.49,-0.14,0.03,0.10,0.97,
1.078,-0.06,0.49,-0.14,0.03,0.10,0.98,
1.079,-0.05,0.54,-0.09,0.03,0.10,0.98,
1.081,-0.05,0.54,-0.09,0.03,0.10,0.98,
1.083,-0.05,0.54,-0.09,0.03,0.10,0.98,
1.084,-0.01,0.55,-0.01,0.03,0.10,0.98,
1.086,-0.01,0.55,-0.01,0.02,0.10,0.99,
1.088,-0.01,0.55,-0.01,0.03,0.10,0.99,
1.089,-0.01,0.56,0.05,0.03,0.10,0.99,
1.09,-0.01,0.56,0.05,0.02,0.10,1.00,
1.093,-0.01,0.56,0.05,0.02,0.10,1.00,
1.093,-0.02,0.56,0.14,0.02,0.10,1.00,
1.095,-0.02,0.56,0.14,0.02,0.10,1.00,
1.098,-0.02,0.56,0.14,0.02,0.10,1.00,
1.098,-0.02,0.55,0.21,0.02,0.10,1.00,
1.101,-0.02,0.55,0.21,0.02,0.10,1.01,
1.103,-0.02,0.55,0.21,0.02,0.10,1.01,
1.103,-0.06,0.54,0.26,0.02,0.10,1.01,
1.105,-0.06,0.54,0.26,0.01,0.09,1.01,
1.108,-0.06,0.54,0.26,0.01,0.09,1.02,
1.108,-0.09,0.55,0.33,0.01,0.09,1.02,
1.11,-0.09,0.55,0.33,0.01,0.09,1.02,
1.113,-0.09,0.55,0.33,0.01,0.09,1.02,
1.114,-0.12,0.51,0.37,0.01,0.09,1.02,
1.115,-0.12,0.51,0.37,0.01,0.09,1.02,
1.118,-0.12,0.51,0.37,0.01,0.09,1.02,
1.119,-0.15,0.50,0.40,0.01,0.09,1.02,
1.12,-0.15,0.50,0.40,0.02,0.09,1.02,
1.123,-0.15,0.47,0.39,0.02,0.09,1.02,
1.123,-0.15,0.47,0.39,0.02,0.09,1.02,
1.125,-0.15,0.47,0.39,0.02,0.09,1.02,
1.127,-0.15,0.47,0.39,0.02,0.09,1.01,
1.128,-0.11,0.49,0.40,0.02,0.09,1.01,
1.13,-0.11,0.49,0.40,0.02,0.09,1.01,
1.133,-0.10,0.47,0.37,0.02,0.09,1.01,
1.133,-0.10,0.47,0.37,0.02,0.09,1.01,
1.135,-0.10,0.47,0.37,0.02,0.09,1.01,
1.137,-0.10,0.47,0.37,0.02,0.09,1.01,
1.138,-0.09,0.47,0.32,0.02,0.09,1.01,
1.14,-0.09,0.47,0.32,0.02,0.09,1.00,
1.143,-0.09,0.47,0.27,0.02,0.09,1.00,
1.143,-0.09,0.47,0.27,0.02,0.09,1.00,
1.15,-0.09,0.47,0.27,0.02,0.09,1.00,
1.15,-0.09,0.47,0.27,0.01,0.08,1.00,
1.15,-0.10,0.45,0.23,0.01,0.08,1.00,
1.151,-0.10,0.45,0.23,0.01,0.08,0.99,
1.152,-0.10,0.45,0.23,0.01,0.08,0.99,
1.152,-0.14,0.42,0.18,0.01,0.08,0.99,
1.154,-0.14,0.42,0.18,0.01,0.08,0.99,
1.157,-0.14,0.42,0.18,0.00,0.08,0.99,
1.157,-0.18,0.42,0.14,0.00,0.08,0.99,
1.159,-0.18,0.42,0.14,-0.00,0.08,0.99,
1.162,-0.18,0.42,0.14,-0.01,0.08,0.99,
1.163,-0.23,0.41,0.10,-0.01,0.08,0.99,
1.164,-0.23,0.41,0.10,-0.01,0.08,0.99,
1.167,-0.23,0.41,0.10,-0.01,0.08,0.99,
1.167,-0.31,0.41,0.07,-0.01,0.08,0.99,
1.169,-0.31,0.41,0.07,-0.02,0.08,0.99,
1.171,-0.31,0.41,0.07,-0.02,0.08,0.99,
1.172,-0.36,0.42,0.07,-0.02,0.08,0.99,
1.174,-0.36,0.42,0.07,-0.02,0.08,0.99,
1.176,-0.36,0.42,0.07,-0.03,0.08,0.99,
1.176,-0.41,0.42,0.08,-0.03,0.08,0.99,
1.179,-0.41,0.42,0.08,-0.03,0.09,0.99,
1.181,-0.41,0.42,0.08,-0.03,0.09,0.99,
1.182,-0.49,0.44,0.11,-0.03,0.09,0.99,
1.184,-0.49,0.44,0.11,-0.04,0.09,0.99,
1.186,-0.49,0.44,0.11,-0.04,0.09,0.99,
1.186,-0.55,0.48,0.12,-0.04,0.09,0.99,
1.188,-0.55,0.48,0.12,-0.04,0.09,0.99,
1.191,-0.55,0.48,0.12,-0.04,0.09,1.00,
1.191,-0.60,0.50,0.13,-0.04,0.09,1.00,
1.193,-0.60,0.50,0.13,-0.04,0.09,0.99,
1.196,-0.60,0.50,0.13,-0.04,0.09,0.99,
1.196,-0.60,0.53,0.14,-0.04,0.09,0.99,
1.198,-0.60,0.53,0.14,-0.04,0.09,0.99,
1.201,-0.60,0.53,0.14,-0.04,0.09,0.99,
1.201,-0.60,0.56,0.11,-0.04,0.09,0.99,
1.203,-0.60,0.56,0.11,-0.03,0.09,0.99,
1.206,-0.60,0.56,0.11,-0.03,0.10,0.99,
1.206,-0.56,0.56,0.10,-0.03,0.10,0.99,
1.208,-0.56,0.56,0.10,-0.03,0.10,0.99,
1.212,-0.56,0.56,0.10,-0.02,0.10,0.98,
1.212,-0.47,0.57,0.09,-0.02,0.10,0.98,
1.213,-0.47,0.57,0.09,-0.02,0.10,0.98,
1.216,-0.42,0.57,0.02,-0.02,0.10,0.98,
1.216,-0.42,0.57,0.02,-0.01,0.10,0.98,
1.218,-0.42,0.57,0.02,-0.01,0.10,0.97,
1.22,-0.42,0.57,0.02,-0.01,0.10,0.97,
1.221,-0.35,0.58,-0.03,-0.01,0.10,0.97,
1.223,-0.35,0.58,-0.03,-0.01,0.10,0.96,
1.226,-0.35,0.58,-0.03,-0.00,0.11,0.96,
1.226,-0.29,0.62,-0.10,-0.00,0.11,0.96,
1.23,-0.29,0.62,-0.10,-0.00,0.11,0.96,
1.231,-0.29,0.62,-0.10,0.00,0.11,0.95,
1.231,-0.25,0.64,-0.18,0.00,0.11,0.95,
1.233,-0.25,0.64,-0.18,0.00,0.11,0.95,
1.235,-0.25,0.64,-0.18,0.01,0.11,0.95,
1.235,-0.19,0.67,-0.26,0.01,0.11,0.95,
1.237,-0.19,0.67,-0.26,0.01,0.11,0.94,
1.24,-0.19,0.67,-0.26,0.01,0.11,0.94,
1.24,-0.15,0.66,-0.32,0.01,0.11,0.94,
1.242,-0.15,0.66,-0.32,0.02,0.11,0.94,
1.245,-0.15,0.66,-0.32,0.02,0.11,0.94,
1.245,-0.11,0.64,-0.37,0.02,0.11,0.94,
1.247,-0.11,0.64,-0.37,0.02,0.11,0.94,
1.25,-0.11,0.64,-0.37,0.02,0.11,0.94,
1.25,-0.04,0.64,-0.40,0.02,0.11,0.94,
1.252,-0.04,0.64,-0.40,0.02,0.11,0.94,
1.255,-0.04,0.64,-0.40,0.02,0.10,0.94,
1.255,-0.03,0.64,-0.39,0.02,0.10,0.94,
1.257,-0.03,0.64,-0.39,0.02,0.10,0.95,
1.26,-0.03,0.64,-0.39,0.02,0.11,0.95,
1.261,0.01,0.63,-0.36,0.02,0.11,0.95,
1.268,0.01,0.63,-0.36,0.03,0.11,0.95,
1.268,0.01,0.63,-0.36,0.02,0.10,0.96,
1.269,0.02,0.64,-0.31,0.02,0.10,0.96,
1.269,0.02,0.64,-0.31,0.03,0.10,0.96,
1.27,0.02,0.64,-0.31,0.02,0.10,0.97,
1.27,0.03,0.64,-0.24,0.02,0.10,0.97,
1.272,0.03,0.64,-0.24,0.02,0.10,0.98,
1.274,0.03,0.64,-0.24,0.03,0.10,0.98,
1.275,0.04,0.62,-0.12,0.03,0.10,0.98,
1.277,0.04,0.62,-0.12,0.02,0.11,0.99,
1.279,0.04,0.62,-0.12,0.02,0.11,0.99,
1.28,0.04,0.63,-0.00,0.02,0.11,0.99,
1.282,0.04,0.63,-0.00,0.02,0.11,1.00,
1.284,0.04,0.63,-0.00,0.02,0.11,1.00,
1.284,0.04,0.66,0.09,0.02,0.11,1.00,
1.287,0.04,0.66,0.09,0.02,0.11,1.00,
1.289,0.04,0.66,0.09,0.02,0.11,1.01,
1.289,0.01,0.68,0.19,0.02,0.11,1.01,
1.291,0.01,0.68,0.19,0.02,0.11,1.01,
1.295,0.01,0.68,0.19,0.02,0.11,1.01,
1.296,-0.01,0.68,0.24,0.02,0.11,1.01,
1.296,-0.01,0.68,0.24,0.01,0.11,1.01,
1.299,-0.01,0.68,0.24,0.01,0.11,1.01,
1.299,-0.02,0.70,0.28,0.01,0.11,1.01,
1.301,-0.02,0.70,0.28,0.01,0.11,1.01,
1.304,-0.02,0.70,0.28,0.01,0.11,1.01,
1.305,-0.06,0.73,0.29,0.01,0.11,1.01,
1.306,-0.06,0.73,0.29,0.01,0.11,1.01,
1.309,-0.06,0.73,0.29,0.01,0.11,1.01,
1.309,-0.07,0.74,0.29,0.01,0.11,1.01,
1.311,-0.07,0.74,0.29,0.01,0.12,1.01,
1.314,-0.07,0.74,0.29,0.01,0.12,1.01,
1.314,-0.10,0.75,0.28,0.01,0.12,1.01,
1.316,-0.10,0.75,0.28,0.00,0.12,1.00,
1.318,-0.10,0.75,0.28,0.00,0.12,1.00,
1.319,-0.11,0.77,0.26,0.00,0.12,1.00,
1.321,-0.11,0.77,0.26,0.00,0.12,1.00,
1.323,-0.11,0.77,0.26,0.01,0.12,1.00,
1.324,-0.13,0.81,0.22,0.01,0.12,1.00,
1.326,-0.13,0.81,0.22,0.01,0.12,1.00,
1.329,-0.13,0.81,0.22,0.01,0.13,1.00,
1.329,-0.12,0.83,0.19,0.01,0.13,1.00,
1.331,-0.12,0.83,0.19,0.01,0.13,1.00,
1.333,-0.12,0.83,0.19,0.01,0.13,1.00,
1.333,-0.09,0.85,0.15,0.01,0.13,1.00,
1.335,-0.09,0.85,0.15,0.01,0.13,1.00,
1.338,-0.09,0.85,0.15,0.02,0.13,1.00,
1.338,-0.04,0.86,0.15,0.02,0.13,1.00,
1.34,-0.04,0.86,0.15,0.02,0.13,1.00,
1.343,-0.01,0.87,0.15,0.02,0.13,1.00,
1.344,-0.01,0.87,0.15,0.02,0.13,1.00,
1.351,-0.01,0.87,0.15,0.02,0.13,1.00,
1.351,-0.01,0.87,0.15,0.02,0.13,1.00,
1.351,0.03,0.87,0.14,0.02,0.13,1.00,
1.352,0.03,0.87,0.14,0.02,0.13,1.00,
1.353,0.03,0.87,0.14,0.03,0.13,1.00,
1.353,0.04,0.85,0.16,0.03,0.13,1.00,
1.355,0.04,0.85,0.16,0.03,0.13,1.00,
1.358,0.04,0.85,0.16,0.03,0.13,1.00,
1.358,0.08,0.85,0.18,0.03,0.13,1.00,
1.36,0.08,0.85,0.18,0.03,0.13,1.00,
1.363,0.08,0.85,0.18,0.04,0.13,1.00,
1.363,0.12,0.84,0.19,0.04,0.13,1.00,
1.365,0.12,0.84,0.19,0.04,0.13,1.00,
1.368,0.12,0.84,0.19,0.04,0.13,1.00,
1.368,0.17,0.85,0.21,0.04,0.13,1.00,
1.37,0.17,0.85,0.21,0.04,0.13,1.01,
1.372,0.17,0.85,0.21,0.05,0.13,1.01,
1.372,0.21,0.85,0.22,0.05,0.13,1.01,
1.375,0.21,0.85,0.22,0.05,0.13,1.01,
1.378,0.21,0.85,0.22,0.05,0.13,1.00,
1.378,0.27,0.87,0.23,0.05,0.13,1.00,
1.38,0.27,0.87,0.23,0.05,0.13,1.00,
1.382,0.27,0.87,0.23,0.05,0.13,1.00,
1.382,0.31,0.89,0.23,0.05,0.13,1.00,
1.384,0.31,0.89,0.23,0.05,0.13,1.00,
1.387,0.31,0.89,0.23,0.06,0.13,1.00,
1.387,0.34,0.88,0.20,0.06,0.13,1.00,
1.389,0.34,0.88,0.20,0.06,0.13,1.00,
1.392,0.34,0.88,0.20,0.06,0.13,1.00,
1.392,0.38,0.84,0.20,0.06,0.13,1.00,
1.394,0.38,0.84,0.20,0.06,0.13,1.00,
1.397,0.38,0.84,0.20,0.06,0.13,1.00,
1.398,0.43,0.83,0.19,0.06,0.13,1.00,
1.399,0.43,0.83,0.19,0.06,0.13,1.00,
1.402,0.43,0.83,0.19,0.06,0.13,1.01,
1.402,0.44,0.83,0.19,0.06,0.13,1.01,
1.404,0.44,0.83,0.19,0.06,0.12,1.01,
1.407,0.44,0.83,0.19,0.06,0.12,1.00,
1.407,0.45,0.79,0.20,0.06,0.12,1.00,
1.409,0.45,0.79,0.20,0.06,0.12,1.00,
1.412,0.45,0.79,0.20,0.06,0.12,1.01,
1.412,0.45,0.74,0.20,0.06,0.12,1.01,
1.414,0.45,0.74,0.20,0.06,0.11,1.01,
1.416,0.45,0.74,0.20,0.06,0.11,1.01,
1.417,0.44,0.71,0.20,0.06,0.11,1.01,
1.419,0.44,0.71,0.20,0.05,0.11,1.01,
1.421,0.44,0.71,0.20,0.05,0.11,1.01,
1.422,0.42,0.66,0.21,0.05,0.11,1.01,
1.424,0.42,0.66,0.21,0.05,0.11,1.00,
1.426,0.42,0.66,0.21,0.05,0.10,1.01,
1.427,0.40,0.62,0.20,0.05,0.10,1.01,
1.429,0.40,0.62,0.20,0.05,0.10,1.00,
1.431,0.40,0.62,0.20,0.05,0.10,1.00,
1.432,0.38,0.57,0.20,0.05,0.10,1.00,
1.433,0.38,0.57,0.20,0.05,0.10,1.01,
1.436,0.38,0.57,0.20,0.05,0.10,1.01,
1.436,0.37,0.53,0.19,0.05,0.10,1.01,
1.438,0.37,0.53,0.19,0.05,0.10,1.01,
1.441,0.37,0.53,0.19,0.05,0.09,1.01,
1.441,0.37,0.50,0.21,0.05,0.09,1.01,
1.443,0.37,0.50,0.21,0.04,0.09,1.01,
1.446,0.37,0.50,0.21,0.04,0.09,1.00,
1.446,0.33,0.46,0.22,0.04,0.09,1.00,
1.448,0.33,0.46,0.22,0.04,0.09,1.00,
1.451,0.33,0.46,0.22,0.05,0.09,1.00,
1.451,0.30,0.43,0.20,0.05,0.09,1.00,
1.453,0.30,0.43,0.20,0.05,0.09,1.00,
1.456,0.30,0.43,0.20,0.05,0.09,0.99,
1.456,0.33,0.40,0.15,0.05,0.09,0.99,
1.458,0.33,0.40,0.15,0.05,0.08,0.99,
1.465,0.33,0.40,0.15,0.06,0.08,0.99,
1.466,0.36,0.37,0.08,0.06,0.08,0.99,
1.467,0.36,0.37,0.08,0.06,0.08,0.98,
1.467,0.36,0.37,0.08,0.06,0.08,0.98,
1.467,0.41,0.34,0.02,0.06,0.08,0.98,
1.47,0.41,0.34,0.02,0.06,0.09,0.97,
1.471,0.41,0.34,0.02,0.06,0.09,0.97,
1.472,0.46,0.33,-0.06,0.06,0.09,0.97,
1.473,0.46,0.33,-0.06,0.07,0.09,0.97,
1.475,0.46,0.33,-0.06,0.07,0.09,0.97,
1.475,0.49,0.33,-0.13,0.07,0.09,0.97,
1.479,0.49,0.33,-0.13,0.07,0.09,0.97,
1.481,0.49,0.33,-0.13,0.07,0.09,0.96,
1.481,0.56,0.33,-0.16,0.07,0.09,0.96,
1.483,0.56,0.33,-0.16,0.07,0.09,0.97,
1.485,0.56,0.33,-0.16,0.07,0.09,0.96,
1.485,0.57,0.32,-0.19,0.07,0.09,0.96,
1.487,0.57,0.32,-0.19,0.07,0.09,0.96,
1.49,0.57,0.32,-0.19,0.07,0.09,0.96,
1.49,0.57,0.33,-0.20,0.07,0.09,0.96,
1.492,0.57,0.33,-0.20,0.07,0.08,0.96,
1.495,0.57,0.33,-0.20,0.07,0.08,0.96,
1.495,0.53,0.32,-0.21,0.07,0.08,0.96,
1.497,0.53,0.32,-0.21,0.06,0.08,0.96,
1.5,0.53,0.32,-0.21,0.06,0.08,0.96,
1.5,0.51,0.30,-0.22,0.06,0.08,0.96,
1.502,0.51,0.30,-0.22,0.06,0.08,0.96,
1.505,0.51,0.30,-0.22,0.06,0.08,0.96,
1.505,0.47,0.26,-0.19,0.06,0.08,0.96,
1.507,0.47,0.26,-0.19,0.06,0.08,0.96,
1.509,0.47,0.26,-0.19,0.06,0.08,0.97,
1.51,0.45,0.24,-0.19,0.06,0.08,0.97,
1.512,0.45,0.24,-0.19,0.06,0.08,0.96,
1.515,0.45,0.24,-0.19,0.06,0.08,0.96,
1.515,0.43,0.23,-0.18,0.06,0.08,0.96,
1.517,0.43,0.23,-0.18,0.06,0.08,0.96,
1.519,0.43,0.23,-0.18,0.06,0.08,0.96,
1.52,0.41,0.20,-0.19,0.06,0.08,0.96,
1.521,0.41,0.20,-0.19,0.05,0.08,0.96,
1.524,0.41,0.20,-0.19,0.05,0.08,0.96,
1.524,0.39,0.19,-0.22,0.05,0.08,0.96,
1.527,0.39,0.19,-0.22,0.05,0.07,0.96,
1.529,0.35,0.17,-0.24,0.05,0.07,0.96,
1.53,0.35,0.17,-0.24,0.05,0.07,0.95,
1.531,0.35,0.17,-0.24,0.05,0.07,0.95,
1.534,0.35,0.17,-0.24,0.05,0.07,0.95,
1.535,0.33,0.16,-0.28,0.05,0.07,0.95,
1.536,0.33,0.16,-0.28,0.04,0.07,0.95,
1.539,0.33,0.16,-0.28,0.04,0.07,0.95,
1.539,0.30,0.14,-0.32,0.04,0.07,0.95,
1.541,0.30,0.14,-0.32,0.04,0.07,0.95,
1.549,0.30,0.14,-0.32,0.04,0.07,0.95,
1.55,0.25,0.12,-0.34,0.04,0.07,0.95,
1.55,0.25,0.12,-0.34,0.04,0.07,0.95,
1.551,0.25,0.12,-0.34,0.03,0.07,0.95,
1.551,0.20,0.07,-0.34,0.03,0.07,0.95,
1.551,0.20,0.07,-0.34,0.03,0.07,0.95,
1.554,0.20,0.07,-0.34,0.03,0.07,0.95,
1.554,0.15,0.07,-0.32,0.03,0.07,0.95,
1.556,0.15,0.07,-0.32,0.03,0.07,0.96,
1.559,0.15,0.07,-0.32,0.02,0.07,0.96,
1.559,0.08,0.07,-0.28,0.02,0.07,0.96,
1.561,0.08,0.07,-0.28,0.02,0.07,0.96,
1.563,0.08,0.07,-0.28,0.03,0.07,0.97,
1.564,0.06,0.09,-0.24,0.03,0.07,0.97,
1.566,0.06,0.09,-0.24,0.03,0.07,0.98,
1.568,0.06,0.09,-0.24,0.03,0.08,0.98,
1.569,0.07,0.13,-0.15,0.03,0.08,0.98,
1.57,0.07,0.13,-0.15,0.03,0.08,0.99,
1.573,0.07,0.13,-0.15,0.03,0.08,0.99,
1.573,0.11,0.15,-0.04,0.03,0.08,0.99,
1.575,0.11,0.15,-0.04,0.03,0.09,0.99,
1.578,0.11,0.15,-0.04,0.04,0.09,1.00,
1.578,0.15,0.21,0.06,0.04,0.09,1.00,
1.58,0.15,0.21,0.06,0.04,0.09,1.00,
1.583,0.15,0.21,0.06,0.05,0.09,1.01,
1.583,0.17,0.26,0.14,0.05,0.09,1.01,
1.585,0.17,0.26,0.14,0.05,0.09,1.02,
1.588,0.17,0.26,0.14,0.06,0.10,1.02,
1.588,0.25,0.30,0.26,0.06,0.10,1.02,
1.59,0.25,0.30,0.26,0.06,0.10,1.02,
1.593,0.25,0.30,0.26,0.06,0.10,1.02,
1.593,0.34,0.32,0.35,0.06,0.10,1.02,
1.595,0.34,0.32,0.35,0.07,0.10,1.02,
1.598,0.34,0.32,0.35,0.07,0.11,1.02,
1.598,0.39,0.35,0.40,0.07,0.11,1.02,
1.6,0.39,0.35,0.40,0.07,0.11,1.02,
1.603,0.39,0.35,0.40,0.07,0.11,1.02,
1.603,0.45,0.40,0.40,0.07,0.11,1.02,
1.605,0.45,0.40,0.40,0.08,0.11,1.01,
1.607,0.45,0.40,0.40,0.08,0.11,1.01,
1.608,0.49,0.42,0.34,0.08,0.11,1.01,
1.61,0.49,0.42,0.34,0.08,0.11,1.01,
1.612,0.49,0.42,0.34,0.08,0.11,1.00,
1.613,0.54,0.41,0.28,0.08,0.11,1.00,
1.615,0.54,0.41,0.28,0.08,0.11,1.00,
1.617,0.54,0.41,0.28,0.08,0.11,1.00,
1.617,0.53,0.39,0.21,0.08,0.11,1.00,
1.62,0.53,0.39,0.21,0.08,0.11,0.99,
1.622,0.53,0.39,0.21,0.08,0.11,0.99,
1.622,0.52,0.34,0.13,0.08,0.11,0.99,
1.625,0.52,0.34,0.13,0.08,0.10,0.98,
1.628,0.52,0.34,0.13,0.08,0.10,0.98,
1.629,0.50,0.32,0.06,0.08,0.10,0.98,
1.63,0.50,0.32,0.06,0.07,0.10,0.98,
1.633,0.50,0.32,0.06,0.07,0.10,0.98,
1.633,0.47,0.29,-0.00,0.07,0.10,0.98,
1.634,0.47,0.29,-0.00,0.07,0.10,0.98,
1.637,0.47,0.29,-0.00,0.07,0.10,0.97,
1.637,0.42,0.27,-0.04,0.07,0.10,0.97,
1.639,0.42,0.27,-0.04,0.07,0.10,0.97,
1.642,0.42,0.27,-0.04,0.07,0.10,0.97,
1.642,0.40,0.23,-0.07,0.07,0.10,0.97,
1.645,0.40,0.23,-0.07,0.07,0.10,0.97,
1.647,0.40,0.23,-0.07,0.07,0.10,0.97,
1.647,0.34,0.21,-0.08,0.07,0.10,0.97,
1.649,0.34,0.21,-0.08,0.07,0.10,0.98,
1.652,0.34,0.21,-0.08,0.07,0.10,0.98,
1.652,0.33,0.18,-0.08,0.07,0.10,0.98,
1.654,0.33,0.18,-0.08,0.07,0.10,0.98,
1.656,0.33,0.18,-0.08,0.06,0.10,0.99,
1.657,0.30,0.18,-0.03,0.06,0.10,0.99,
1.659,0.30,0.18,-0.03,0.06,0.10,0.99,
1.665,0.30,0.18,-0.03,0.06,0.10,0.99,
1.665,0.29,0.19,0.04,0.06,0.10,0.99,
1.665,0.29,0.19,0.04,0.06,0.10,1.00,
1.667,0.29,0.19,0.04,0.06,0.10,1.00,
1.667,0.26,0.18,0.09,0.06,0.10,1.00,
1.668,0.26,0.18,0.09,0.06,0.10,1.00,
1.671,0.26,0.18,0.09,0.06,0.09,1.00,
1.671,0.25,0.16,0.17,0.06,0.09,1.00,
1.673,0.25,0.16,0.17,0.06,0.09,1.01,
1.676,0.25,0.16,0.17,0.06,0.09,1.01,
1.676,0.25,0.13,0.21,0.06,0.09,1.01,
1.678,0.25,0.13,0.21,0.06,0.09,1.01,
1.681,0.25,0.13,0.21,0.05,0.09,1.01,
1.681,0.21,0.09,0.23,0.05,0.09,1.01,
1.683,0.21,0.09,0.23,0.05,0.09,1.01,
1.686,0.21,0.09,0.23,0.05,0.09,1.01,
1.686,0.15,0.09,0.24,0.05,0.09,1.01,
1.688,0.15,0.09,0.24,0.05,0.09,1.01,
1.691,0.15,0.09,0.24,0.04,0.09,1.01,
1.691,0.11,0.06,0.24,0.04,0.09,1.01,
1.693,0.11,0.06,0.24,0.04,0.09,1.01,
1.696,0.11,0.06,0.24,0.04,0.09,1.00,
1.696,0.05,0.02,0.23,0.04,0.09,1.00,
1.698,0.05,0.02,0.23,0.03,0.08,1.00,
1.701,0.05,0.02,0.23,0.03,0.08,1.00,
1.701,-0.02,-0.01,0.21,0.03,0.08,1.00,
1.703,-0.02,-0.01,0.21,0.03,0.08,1.00,
1.706,-0.02,-0.01,0.21,0.03,0.08,1.00,
1.706,-0.08,-0.05,0.17,0.03,0.08,1.00,
1.708,-0.08,-0.05,0.17,0.02,0.08,1.00,
1.711,-0.08,-0.05,0.17,0.02,0.08,1.00,
1.711,-0.11,-0.07,0.15,0.02,0.08,1.00,
1.713,-0.11,-0.07,0.15,0.02,0.08,0.99,
1.715,-0.11,-0.07,0.15,0.02,0.08,0.99,
1.715,-0.17,-0.09,0.14,0.02,0.08,0.99,
1.717,-0.17,-0.09,0.14,0.02,0.08,0.99,
1.72,-0.17,-0.09,0.14,0.01,0.08,0.99,
1.72,-0.21,-0.11,0.12,0.01,0.08,0.99,
1.723,-0.21,-0.11,0.12,0.01,0.08,0.99,
1.725,-0.21,-0.11,0.12,0.01,0.08,0.99,
1.725,-0.27,-0.13,0.08,0.01,0.08,0.99,
1.728,-0.27,-0.13,0.08,0.01,0.08,0.99,
1.73,-0.27,-0.13,0.08,0.01,0.08,0.98,
1.73,-0.30,-0.13,0.05,0.01,0.08,0.98,
1.732,-0.30,-0.13,0.05,0.01,0.08,0.98,
1.735,-0.30,-0.13,0.05,0.01,0.08,0.98,
1.735,-0.32,-0.13,0.03,0.01,0.08,0.98,
1.737,-0.32,-0.13,0.03,0.01,0.08,0.98,
1.74,-0.32,-0.13,0.03,0.01,0.08,0.98,
1.74,-0.34,-0.14,-0.00,0.01,0.08,0.98,
1.742,-0.34,-0.14,-0.00,0.01,0.08,0.97,
1.745,-0.34,-0.14,-0.00,0.01,0.08,0.97,
1.745,-0.35,-0.14,-0.04,0.01,0.08,0.97,
1.747,-0.35,-0.14,-0.04,0.01,0.08,0.97,
1.75,-0.35,-0.14,-0.04,0.01,0.08,0.97,
1.75,-0.36,-0.14,-0.08,0.01,0.08,0.97,
1.752,-0.36,-0.14,-0.08,0.01,0.08,0.97,
1.755,-0.33,-0.15,-0.11,0.01,0.08,0.97,
1.755,-0.33,-0.15,-0.11,0.01,0.08,0.97,
1.757,-0.33,-0.15,-0.11,0.01,0.08,0.96,
1.759,-0.33,-0.15,-0.11,0.01,0.08,0.96,
1.76,-0.34,-0.19,-0.14,0.01,0.08,0.96,
1.767,-0.34,-0.19,-0.14,0.01,0.08,0.96,
1.768,-0.34,-0.19,-0.14,0.00,0.08,0.95,
1.768,-0.37,-0.18,-0.19,0.00,0.08,0.95,
1.768,-0.37,-0.18,-0.19,0.00,0.08,0.95,
1.769,-0.37,-0.18,-0.19,0.00,0.08,0.95,
1.769,-0.40,-0.19,-0.25,0.00,0.08,0.95,
1.771,-0.40,-0.19,-0.25,0.00,0.07,0.94,
1.774,-0.40,-0.19,-0.25,-0.00,0.07,0.94,
1.774,-0.42,-0.24,-0.31,-0.00,0.07,0.94,
1.776,-0.42,-0.24,-0.31,-0.00,0.07,0.94,
1.779,-0.42,-0.24,-0.31,-0.01,0.07,0.94,
1.779,-0.44,-0.29,-0.35,-0.01,0.07,0.94,
1.781,-0.44,-0.29,-0.35,-0.01,0.07,0.94,
1.784,-0.44,-0.29,-0.35,-0.01,0.07,0.94,
1.784,-0.48,-0.32,-0.37,-0.01,0.07,0.94,
1.786,-0.48,-0.32,-0.37,-0.01,0.07,0.94,
1.788,-0.48,-0.32,-0.37,-0.01,0.07,0.95,
1.789,-0.49,-0.35,-0.37,-0.01,0.07,0.95,
1.791,-0.49,-0.35,-0.37,-0.00,0.07,0.95,
1.794,-0.49,-0.35,-0.37,-0.00,0.07,0.96,
1.795,-0.49,-0.34,-0.33,-0.00,0.07,0.96,
1.796,-0.49,-0.34,-0.33,0.00,0.06,0.96,
1.799,-0.49,-0.34,-0.33,0.00,0.06,0.97,
1.799,-0.46,-0.36,-0.22,0.00,0.06,0.97,
1.801,-0.46,-0.36,-0.22,0.00,0.06,0.97,
1.803,-0.46,-0.36,-0.22,0.01,0.06,0.98,
1.804,-0.42,-0.39,-0.13,0.01,0.06,0.98,
1.805,-0.42,-0.39,-0.13,0.01,0.06,0.98,
1.808,-0.39,-0.39,-0.02,0.01,0.06,0.98,
1.809,-0.39,-0.39,-0.02,0.01,0.06,0.99,
1.81,-0.39,-0.39,-0.02,0.01,0.07,0.99,
1.813,-0.39,-0.39,-0.02,0.01,0.07,1.00,
1.813,-0.34,-0.39,0.07,0.01,0.07,1.00,
1.815,-0.34,-0.39,0.07,0.02,0.07,1.00,
1.818,-0.34,-0.39,0.07,0.02,0.07,1.01,
1.818,-0.32,-0.37,0.18,0.02,0.07,1.01,
1.82,-0.32,-0.37,0.18,0.02,0.07,1.01,
1.823,-0.32,-0.37,0.18,0.02,0.07,1.01,
1.823,-0.27,-0.35,0.27,0.02,0.07,1.01,
1.825,-0.27,-0.35,0.27,0.02,0.07,1.02,
1.828,-0.27,-0.35,0.27,0.03,0.08,1.02,
1.828,-0.24,-0.31,0.32,0.03,0.08,1.02,
1.83,-0.24,-0.31,0.32,0.03,0.08,1.02,
1.833,-0.24,-0.31,0.32,0.03,0.08,1.01,
1.833,-0.19,-0.30,0.36,0.03,0.08,1.01,
1.835,-0.19,-0.30,0.36,0.04,0.08,1.01,
1.838,-0.19,-0.30,0.36,0.04,0.08,1.01,
1.838,-0.13,-0.29,0.34,0.04,0.08,1.01,
1.84,-0.13,-0.29,0.34,0.04,0.08,1.00,
1.843,-0.13,-0.29,0.34,0.05,0.08,1.00,
1.843,-0.08,-0.28,0.30,0.05,0.08,1.00,
1.845,-0.08,-0.28,0.30,0.05,0.08,0.99,
1.847,-0.08,-0.28,0.30,0.05,0.08,0.99,
1.848,-0.03,-0.27,0.20,0.05,0.08,0.99,
1.849,-0.03,-0.27,0.20,0.05,0.08,0.98,
1.852,-0.03,-0.27,0.20,0.05,0.08,0.97,
1.852,-0.01,-0.28,0.11,0.05,0.08,0.97,
1.854,-0.01,-0.28,0.11,0.05,0.08,0.97,
1.857,-0.01,-0.28,0.11,0.05,0.08,0.96,
1.857,-0.01,-0.28,-0.03,0.05,0.08,0.96,
1.861,-0.01,-0.28,-0.03,0.04,0.08,0.95,
1.862,-0.01,-0.28,-0.03,0.04,0.08,0.95,
1.862,-0.03,-0.29,-0.15,0.04,0.08,0.95,
1.864,-0.03,-0.29,-0.15,0.04,0.08,0.95,
1.867,-0.03,-0.29,-0.15,0.04,0.08,0.94,
1.867,-0.06,-0.31,-0.27,0.04,0.08,0.94,
1.869,-0.06,-0.31,-0.27,0.04,0.07,0.94,
1.872,-0.06,-0.31,-0.27,0.03,0.07,0.94,
1.872,-0.10,-0.35,-0.33,0.03,0.07,0.94,
1.874,-0.10,-0.35,-0.33,0.03,0.07,0.94,
1.877,-0.15,-0.40,-0.38,0.03,0.07,0.94,
1.877,-0.15,-0.40,-0.38,0.03,0.07,0.94,
1.879,-0.15,-0.40,-0.38,0.03,0.07,0.94,
1.882,-0.15,-0.40,-0.38,0.03,0.06,0.94,
1.882,-0.20,-0.44,-0.40,0.03,0.06,0.94,
1.884,-0.20,-0.44,-0.40,0.02,0.06,0.94,
1.887,-0.20,-0.44,-0.40,0.02,0.06,0.95,
1.887,-0.23,-0.47,-0.37,0.02,0.06,0.95,
1.889,-0.23,-0.47,-0.37,0.02,0.06,0.95,
1.891,-0.23,-0.47,-0.37,0.02,0.06,0.96,
1.892,-0.27,-0.50,-0.31,0.02,0.06,0.96,
1.894,-0.27,-0.50,-0.31,0.01,0.06,0.96,
1.896,-0.27,-0.50,-0.31,0.01,0.06,0.97,
1.897,-0.32,-0.52,-0.22,0.01,0.06,0.97,
1.899,-0.32,-0.52,-0.22,0.01,0.06,0.98,
1.901,-0.32,-0.52,-0.22,0.01,0.06,0.98,
1.901,-0.35,-0.54,-0.09,0.01,0.06,0.98,
1.903,-0.35,-0.54,-0.09,0.01,0.05,0.99,
1.906,-0.37,-0.55,0.03,0.01,0.05,0.99,
1.907,-0.37,-0.55,0.03,0.01,0.05,0.99,
1.908,-0.37,-0.55,0.03,0.01,0.05,1.00,
1.911,-0.37,-0.55,0.03,0.01,0.05,1.01,
1.912,-0.39,-0.56,0.14,0.01,0.05,1.01,
1.913,-0.39,-0.56,0.14,0.01,0.05,1.01,
1.916,-0.39,-0.56,0.14,0.01,0.06,1.01,
1.916,-0.38,-0.55,0.25,0.01,0.06,1.01,
1.918,-0.38,-0.55,0.25,0.02,0.06,1.01,
1.921,-0.38,-0.55,0.25,0.02,0.06,1.02,
1.921,-0.35,-0.54,0.33,0.02,0.06,1.02,
1.923,-0.35,-0.54,0.33,0.02,0.06,1.02,
1.926,-0.35,-0.54,0.33,0.03,0.06,1.02,
1.926,-0.29,-0.51,0.38,0.03,0.06,1.02,
1.929,-0.29,-0.51,0.38,0.03,0.06,1.01,
1.931,-0.23,-0.52,0.39,0.03,0.06,1.01,
1.931,-0.23,-0.52,0.39,0.04,0.06,1.01,
1.933,-0.23,-0.52,0.39,0.04,0.06,1.01,
1.936,-0.23,-0.52,0.39,0.04,0.06,1.00,
1.936,-0.14,-0.50,0.36,0.04,0.06,1.00,
1.938,-0.14,-0.50,0.36,0.04,0.07,1.00,
1.94,-0.14,-0.50,0.36,0.04,0.07,0.99,
1.941,-0.12,-0.48,0.26,0.04,0.07,0.99,
1.949,-0.12,-0.48,0.26,0.04,0.07,0.98,
1.949,-0.12,-0.48,0.26,0.04,0.07,0.98,
1.95,-0.11,-0.46,0.16,0.04,0.07,0.98,
1.95,-0.11,-0.46,0.16,0.04,0.07,0.97,
1.95,-0.11,-0.46,0.16,0.04,0.07,0.96,
1.951,-0.13,-0.46,0.02,0.04,0.07,0.96,
1.952,-0.13,-0.46,0.02,0.03,0.07,0.95,
1.955,-0.16,-0.46,-0.13,0.03,0.07,0.95,
1.956,-0.16,-0.46,-0.13,0.03,0.07,0.95,
1.958,-0.16,-0.46,-0.13,0.03,0.06,0.94,
1.965,-0.16,-0.46,-0.13,0.03,0.06,0.94,
1.965,-0.22,-0.48,-0.25,0.03,0.06,0.94,
1.965,-0.22,-0.48,-0.25,0.02,0.06,0.93,
1.965,-0.22,-0.48,-0.25,0.02,0.06,0.93,
1.965,-0.25,-0.52,-0.37,0.02,0.06,0.93,
1.967,-0.25,-0.52,-0.37,0.02,0.06,0.93,
1.97,-0.25,-0.52,-0.37,0.02,0.06,0.93,
1.97,-0.31,-0.54,-0.41,0.02,0.06,0.93,
1.972,-0.31,-0.54,-0.41,0.02,0.06,0.93,
1.975,-0.35,-0.54,-0.42,0.02,0.06,0.93,
1.975,-0.35,-0.54,-0.42,0.02,0.06,0.93,
1.977,-0.35,-0.54,-0.42,0.01,0.06,0.94,
1.98,-0.35,-0.54,-0.42,0.01,0.06,0.94,
1.98,-0.37,-0.54,-0.41,0.01,0.06,0.94,
1.982,-0.37,-0.54,-0.41,0.01,0.06,0.94,
1.984,-0.37,-0.54,-0.41,0.02,0.07,0.95,
1.985,-0.39,-0.51,-0.36,0.02,0.07,0.95,
1.987,-0.39,-0.51,-0.36,0.02,0.07,0.95,
1.989,-0.39,-0.51,-0.36,0.02,0.07,0.96,
1.989,-0.39,-0.50,-0.29,0.02,0.07,0.96,
1.992,-0.39,-0.50,-0.29,0.02,0.07,0.97,
1.994,-0.39,-0.50,-0.29,0.03,0.07,0.97,
1.995,-0.36,-0.46,-0.18,0.03,0.07,0.97,
1.997,-0.36,-0.46,-0.18,0.03,0.08,0.98,
1.999,-0.36,-0.46,-0.18,0.04,0.08,0.99,
2.0,-0.28,-0.42,-0.03,0.04,0.08,0.99,
2.001,-0.28,-0.42,-0.03,0.04,0.08,1.00,
2.004,-0.28,-0.42,-0.03,0.04,0.08,1.00,
2.004,-0.19,-0.37,0.11,0.04,0.08,1.00,
2.006,-0.19,-0.37,0.11,0.05,0.08,1.01,
2.009,-0.19,-0.37,0.11,0.05,0.09,1.01,
2.009,-0.12,-0.33,0.25,0.05,0.09,1.01,
2.012,-0.12,-0.33,0.25,0.06,0.09,1.02,
2.014,-0.12,-0.33,0.25,0.06,0.09,1.02,
2.015,-0.05,-0.29,0.34,0.06,0.09,1.02,
2.016,-0.05,-0.29,0.34,0.06,0.09,1.02,
2.019,-0.05,-0.29,0.34,0.06,0.09,1.02,
2.019,0.04,-0.27,0.41,0.06,0.09,1.02,
2.021,0.04,-0.27,0.41,0.06,0.09,1.02,
2.024,0.04,-0.27,0.41,0.07,0.09,1.02,
2.024,0.06,-0.28,0.42,0.07,0.09,1.02,
2.028,0.06,-0.28,0.42,0.07,0.09,1.02,
2.029,0.06,-0.28,0.42,0.07,0.09,1.01,
2.03,0.10,-0.29,0.43,0.07,0.09,1.01,
2.031,0.10,-0.29,0.43,0.06,0.09,1.01,
2.033,0.10,-0.29,0.43,0.06,0.09,1.01,
2.034,0.09,-0.29,0.39,0.06,0.09,1.01,
2.036,0.09,-0.29,0.39,0.06,0.09,1.01,
2.038,0.04,-0.28,0.34,0.06,0.09,1.01,
2.039,0.04,-0.28,0.34,0.05,0.09,1.00,
2.041,0.04,-0.28,0.34,0.05,0.08,1.00,
2.044,0.04,-0.28,0.34,0.05,0.08,0.99,
2.045,-0.04,-0.30,0.27,0.05,0.08,0.99,
2.046,-0.04,-0.30,0.27,0.04,0.08,0.98,
2.048,-0.04,-0.30,0.27,0.04,0.08,0.98,
2.049,-0.10,-0.33,0.18,0.04,0.08,0.98,
2.05,-0.10,-0.33,0.18,0.04,0.08,0.97,
2.053,-0.10,-0.33,0.18,0.03,0.07,0.97,
2.053,-0.17,-0.38,0.07,0.03,0.07,0.97,
2.055,-0.17,-0.38,0.07,0.03,0.07,0.96,
2.058,-0.17,-0.38,0.07,0.03,0.07,0.96,
2.058,-0.23,-0.42,-0.03,0.03,0.07,0.96,
2.061,-0.23,-0.42,-0.03,0.03,0.07,0.96,
2.063,-0.23,-0.42,-0.03,0.03,0.07,0.96,
2.063,-0.29,-0.46,-0.13,0.03,0.07,0.96,
2.065,-0.29,-0.46,-0.13,0.03,0.07,0.96,
2.068,-0.29,-0.46,-0.13,0.04,0.07,0.96,
2.068,-0.28,-0.49,-0.16,0.04,0.07,0.96,
2.07,-0.28,-0.49,-0.16,0.04,0.07,0.96,
2.073,-0.28,-0.49,-0.16,0.04,0.06,0.96,
2.073,-0.25,-0.53,-0.18,0.04,0.06,0.96,
2.075,-0.25,-0.53,-0.18,0.04,0.06,0.96,
2.081,-0.25,-0.53,-0.18,0.04,0.06,0.96,
2.082,-0.23,-0.54,-0.17,0.04,0.06,0.96,
2.082,-0.23,-0.54,-0.17,0.05,0.06,0.97,
2.083,-0.23,-0.54,-0.17,0.05,0.06,0.97,
2.083,-0.17,-0.57,-0.12,0.05,0.06,0.97,
2.085,-0.17,-0.57,-0.12,0.05,0.06,0.97,
2.087,-0.17,-0.57,-0.12,0.05,0.06,0.97,
2.087,-0.13,-0.57,-0.07,0.05,0.06,0.97,
2.09,-0.13,-0.57,-0.07,0.05,0.06,0.98,
2.092,-0.13,-0.57,-0.07,0.05,0.06,0.98,
2.093,-0.11,-0.58,-0.01,0.05,0.06,0.98,
2.095,-0.11,-0.58,-0.01,0.05,0.06,0.99,
2.097,-0.11,-0.58,-0.01,0.05,0.06,0.99,
2.098,-0.12,-0.57,0.07,0.05,0.06,0.99,
2.1,-0.12,-0.57,0.07,0.05,0.06,0.99,
2.102,-0.14,-0.56,0.13,0.05,0.06,0.99,
2.103,-0.14,-0.56,0.13,0.05,0.06,0.99,
2.104,-0.14,-0.56,0.13,0.05,0.06,1.00,
2.107,-0.14,-0.56,0.13,0.05,0.06,1.00,
2.107,-0.13,-0.54,0.18,0.05,0.06,1.00,
2.109,-0.13,-0.54,0.18,0.06,0.06,1.01,
2.112,-0.13,-0.54,0.18,0.06,0.06,1.01,
2.112,-0.10,-0.55,0.25,0.06,0.06,1.01,
2.114,-0.10,-0.55,0.25,0.06,0.06,1.02,
2.117,-0.10,-0.55,0.25,0.06,0.06,1.02,
2.118,-0.02,-0.54,0.35,0.06,0.06,1.02,
2.119,-0.02,-0.54,0.35,0.06,0.07,1.03,
2.122,-0.02,-0.54,0.35,0.07,0.07,1.03,
2.122,0.02,-0.50,0.44,0.07,0.07,1.03,
2.124,0.02,-0.50,0.44,0.06,0.07,1.03,
2.127,0.02,-0.50,0.44,0.06,0.07,1.03,
2.127,0.05,-0.49,0.51,0.06,0.07,1.03,
2.129,0.05,-0.49,0.51,0.06,0.07,1.03,
2.132,0.05,-0.49,0.51,0.06,0.07,1.03,
2.132,0.04,-0.47,0.53,0.06,0.07,1.03,
2.134,0.04,-0.47,0.53,0.06,0.07,1.03,
2.136,0.04,-0.47,0.53,0.06,0.07,1.03,
2.137,0.01,-0.46,0.53,0.06,0.07,1.03,
2.139,0.01,-0.46,0.53,0.06,0.07,1.02,
2.141,0.00,-0.47,0.50,0.06,0.07,1.02,
2.142,0.00,-0.47,0.50,0.06,0.07,1.02,
2.144,0.00,-0.47,0.50,0.06,0.06,1.01,
2.146,0.00,-0.47,0.50,0.06,0.06,1.01,
2.147,-0.05,-0.50,0.41,0.06,0.06,1.01,
2.148,-0.05,-0.50,0.41,0.06,0.06,1.00,
2.151,-0.05,-0.50,0.41,0.06,0.06,1.00,
2.152,-0.06,-0.54,0.31,0.06,0.06,1.00,
2.153,-0.06,-0.54,0.31,0.06,0.06,0.99,
2.156,-0.06,-0.54,0.31,0.06,0.06,0.99,
2.156,-0.07,-0.57,0.22,0.06,0.06,0.99,
2.158,-0.07,-0.57,0.22,0.06,0.06,0.98,
2.162,-0.07,-0.57,0.22,0.06,0.06,0.98,
2.162,-0.07,-0.61,0.14,0.06,0.06,0.98,
2.164,-0.07,-0.61,0.14,0.06,0.06,0.98,
2.166,-0.07,-0.61,0.14,0.06,0.06,0.98,
2.167,-0.04,-0.59,0.06,0.06,0.06,0.98,
2.168,-0.04,-0.59,0.06,0.07,0.06,0.98,
2.171,-0.04,-0.59,0.06,0.07,0.06,0.98,
2.171,-0.01,-0.59,0.03,0.07,0.06,0.98,
2.173,-0.01,-0.59,0.03,0.07,0.06,0.98,
2.176,-0.01,-0.59,0.03,0.07,0.06,0.98,
2.176,0.05,-0.57,0.01,0.07,0.06,0.98,
2.183,0.05,-0.57,0.01,0.07,0.06,0.98,
2.184,0.05,-0.57,0.01,0.07,0.06,0.98,
2.184,0.07,-0.55,-0.00,0.07,0.06,0.98,
2.184,0.07,-0.55,-0.00,0.08,0.06,0.98,
2.185,0.07,-0.55,-0.00,0.07,0.06,0.99,
2.186,0.09,-0.56,0.03,0.07,0.06,0.99,
2.187,0.09,-0.56,0.03,0.07,0.06,0.99,
2.19,0.09,-0.56,0.03,0.07,0.06,0.99,
2.19,0.11,-0.57,0.08,0.07,0.06,0.99,
2.193,0.11,-0.57,0.08,0.07,0.06,0.99,
2.195,0.11,-0.57,0.08,0.06,0.06,0.99,
2.196,0.06,-0.58,0.11,0.06,0.06,0.99,
2.197,0.06,-0.58,0.11,0.06,0.05,0.99,
2.2,0.06,-0.58,0.11,0.06,0.05,0.99,
2.2,0.02,-0.61,0.14,0.06,0.05,0.99,
2.203,0.02,-0.61,0.14,0.06,0.05,0.99,
2.205,0.02,-0.61,0.14,0.05,0.05,0.99,
2.205,-0.01,-0.64,0.14,0.05,0.05,0.99,
2.207,-0.01,-0.64,0.14,0.05,0.05,0.99,
2.21,-0.01,-0.64,0.14,0.05,0.05,0.99,
2.21,-0.07,-0.65,0.15,0.05,0.05,0.99,
2.212,-0.07,-0.65,0.15,0.04,0.05,0.99,
2.215,-0.07,-0.65,0.15,0.04,0.05,0.99,
2.215,-0.14,-0.68,0.15,0.04,0.05,0.99,
2.217,-0.14,-0.68,0.15,0.04,0.05,0.99,
2.22,-0.14,-0.68,0.15,0.03,0.05,0.99,
2.22,-0.19,-0.69,0.14,0.03,0.05,0.99,
2.222,-0.19,-0.69,0.14,0.03,0.05,0.98,
2.224,-0.19,-0.69,0.14,0.03,0.05,0.98,
2.225,-0.26,-0.67,0.11,0.03,0.05,0.98,
2.227,-0.26,-0.67,0.11,0.02,0.04,0.98,
2.23,-0.26,-0.67,0.11,0.03,0.05,0.97,
2.23,-0.32,-0.70,0.04,0.03,0.05,0.97,
2.232,-0.32,-0.70,0.04,0.03,0.04,0.97,
2.234,-0.32,-0.70,0.04,0.02,0.04,0.96,
2.234,-0.35,-0.72,-0.02,0.02,0.04,0.96,
2.237,-0.35,-0.72,-0.02,0.02,0.04,0.96,
2.239,-0.35,-0.72,-0.02,0.02,0.04,0.95,
2.239,-0.35,-0.74,-0.10,0.02,0.04,0.95,
2.242,-0.35,-0.74,-0.10,0.03,0.05,0.95,
2.244,-0.35,-0.74,-0.10,0.03,0.05,0.94,
2.245,-0.36,-0.73,-0.21,0.03,0.05,0.94,
2.246,-0.36,-0.73,-0.21,0.03,0.05,0.94,
2.249,-0.36,-0.73,-0.21,0.03,0.05,0.94,
2.249,-0.32,-0.69,-0.31,0.03,0.05,0.94,
2.251,-0.32,-0.69,-0.31,0.03,0.05,0.94,
2.254,-0.32,-0.69,-0.31,0.04,0.05,0.94,
2.254,-0.28,-0.67,-0.36,0.04,0.05,0.94,
2.258,-0.28,-0.67,-0.36,0.04,0.06,0.94,
2.259,-0.28,-0.67,-0.36,0.04,0.06,0.94,
2.259,-0.21,-0.64,-0.38,0.04,0.06,0.94,
2.266,-0.21,-0.64,-0.38,0.04,0.06,0.94,
2.267,-0.21,-0.64,-0.38,0.05,0.06,0.94,
2.267,-0.17,-0.59,-0.38,0.05,0.06,0.94,
2.267,-0.17,-0.59,-0.38,0.05,0.06,0.94,
2.269,-0.17,-0.59,-0.38,0.05,0.06,0.94,
2.269,-0.13,-0.56,-0.37,0.05,0.06,0.94,
2.271,-0.13,-0.56,-0.37,0.05,0.06,0.94,
2.273,-0.13,-0.56,-0.37,0.05,0.06,0.94,
2.273,-0.11,-0.53,-0.35,0.05,0.06,0.94,
2.277,-0.11,-0.53,-0.35,0.05,0.06,0.95,
2.279,-0.11,-0.53,-0.35,0.04,0.06,0.95,
2.279,-0.10,-0.52,-0.30,0.04,0.06,0.95,
2.281,-0.10,-0.52,-0.30,0.04,0.06,0.95,
2.283,-0.10,-0.52,-0.30,0.04,0.06,0.95,
2.284,-0.12,-0.52,-0.25,0.04,0.06,0.95,
2.285,-0.12,-0.52,-0.25,0.03,0.06,0.95,
2.288,-0.12,-0.52,-0.25,0.03,0.06,0.96,
2.288,-0.17,-0.53,-0.21,0.03,0.06,0.96,
2.29,-0.17,-0.53,-0.21,0.03,0.06,0.96,
2.293,-0.17,-0.53,-0.21,0.03,0.06,0.96,
2.293,-0.22,-0.53,-0.17,0.03,0.06,0.96,
2.295,-0.22,-0.53,-0.17,0.03,0.06,0.97,
2.298,-0.22,-0.53,-0.17,0.03,0.05,0.97,
2.298,-0.24,-0.56,-0.10,0.03,0.05,0.97,
2.3,-0.24,-0.56,-0.10,0.03,0.05,0.97,
2.303,-0.24,-0.56,-0.10,0.02,0.05,0.97,
2.303,-0.25,-0.58,-0.05,0.02,0.05,0.97,
2.305,-0.25,-0.58,-0.05,0.02,0.05,0.97,
2.308,-0.25,-0.58,-0.05,0.02,0.05,0.97,
2.308,-0.29,-0.62,-0.01,0.02,0.05,0.97,
2.31,-0.29,-0.62,-0.01,0.02,0.05,0.97,
2.313,-0.29,-0.62,-0.01,0.02,0.05,0.97,
2.313,-0.32,-0.63,-0.00,0.02,0.05,0.97,
2.315,-0.32,-0.63,-0.00,0.02,0.05,0.97,
2.317,-0.32,-0.63,-0.00,0.02,0.05,0.97,
2.318,-0.33,-0.62,-0.01,0.02,0.05,0.97,
2.32,-0.33,-0.62,-0.01,0.02,0.05,0.97,
2.323,-0.33,-0.62,-0.01,0.03,0.05,0.97,
2.323,-0.32,-0.62,-0.03,0.03,0.05,0.97,
2.325,-0.32,-0.62,-0.03,0.02,0.06,0.96,
2.327,-0.32,-0.62,-0.03,0.03,0.06,0.96,
2.328,-0.29,-0.58,-0.05,0.03,0.06,0.96,
2.33,-0.29,-0.58,-0.05,0.03,0.06,0.96,
2.332,-0.29,-0.58,-0.05,0.03,0.06,0.96,
2.332,-0.28,-0.56,-0.11,0.03,0.06,0.96,
2.334,-0.28,-0.56,-0.11,0.03,0.06,0.96,
2.337,-0.28,-0.56,-0.11,0.03,0.06,0.95,
2.337,-0.26,-0.54,-0.15,0.03,0.06,0.95,
2.339,-0.26,-0.54,-0.15,0.03,0.07,0.95,
2.342,-0.26,-0.54,-0.15,0.03,0.07,0.95,
2.342,-0.25,-0.50,-0.18,0.03,0.07,0.95,
2.344,-0.25,-0.50,-0.18,0.03,0.07,0.95,
2.347,-0.25,-0.50,-0.18,0.04,0.07,0.95,
2.348,-0.22,-0.44,-0.21,0.04,0.07,0.95,
2.349,-0.22,-0.44,-0.21,0.03,0.07,0.95,
2.352,-0.22,-0.44,-0.21,0.03,0.07,0.95,
2.352,-0.17,-0.43,-0.25,0.03,0.07,0.95,
2.354,-0.17,-0.43,-0.25,0.03,0.07,0.95,
2.357,-0.17,-0.43,-0.25,0.03,0.07,0.95,
2.357,-0.18,-0.41,-0.25,0.03,0.07,0.95,
2.365,-0.18,-0.41,-0.25,0.03,0.08,0.95,
2.365,-0.18,-0.41,-0.25,0.03,0.08,0.95,
2.366,-0.18,-0.37,-0.24,0.03,0.08,0.95,
2.366,-0.18,-0.37,-0.24,0.03,0.08,0.95,
2.367,-0.18,-0.37,-0.24,0.03,0.08,0.95,
2.367,-0.20,-0.34,-0.23,0.03,0.08,0.95,
2.369,-0.20,-0.34,-0.23,0.03,0.08,0.95,
2.371,-0.20,-0.34,-0.23,0.03,0.07,0.95,
2.371,-0.21,-0.33,-0.21,0.03,0.07,0.95,
2.374,-0.21,-0.33,-0.21,0.03,0.07,0.96,
2.376,-0.21,-0.33,-0.21,0.03,0.07,0.96,
2.377,-0.22,-0.33,-0.18,0.03,0.07,0.96,
2.379,-0.22,-0.33,-0.18,0.03,0.07,0.96,
2.381,-0.22,-0.33,-0.18,0.03,0.07,0.97,
2.381,-0.20,-0.34,-0.11,0.03,0.07,0.97,
2.383,-0.20,-0.34,-0.11,0.03,0.07,0.97,
2.386,-0.20,-0.34,-0.11,0.03,0.07,0.97,
2.386,-0.18,-0.34,-0.06,0.03,0.07,0.97,
2.388,-0.18,-0.34,-0.06,0.03,0.08,0.98,
2.391,-0.18,-0.34,-0.06,0.04,0.08,0.98,
2.391,-0.16,-0.32,0.01,0.04,0.08,0.98,
2.393,-0.16,-0.32,0.01,0.04,0.08,0.98,
2.396,-0.12,-0.29,0.06,0.04,0.08,0.98,
2.396,-0.12,-0.29,0.06,0.04,0.08,0.99,
2.398,-0.12,-0.29,0.06,0.05,0.08,0.99,
2.401,-0.12,-0.29,0.06,0.05,0.09,0.99,
2.401,-0.08,-0.25,0.12,0.05,0.09,0.99,
2.403,-0.08,-0.25,0.12,0.05,0.09,0.99,
2.406,-0.08,-0.25,0.12,0.06,0.09,0.99,
2.406,0.01,-0.22,0.14,0.06,0.09,0.99,
2.408,0.01,-0.22,0.14,0.06,0.09,0.99,
2.411,0.01,-0.22,0.14,0.06,0.09,0.99,
2.411,0.07,-0.17,0.16,0.06,0.09,0.99,
2.413,0.07,-0.17,0.16,0.07,0.10,0.99,
2.416,0.07,-0.17,0.16,0.07,0.10,0.98,
2.416,0.15,-0.13,0.15,0.07,0.10,0.98,
2.418,0.15,-0.13,0.15,0.07,0.10,0.98,
2.42,0.21,-0.08,0.11,0.07,0.10,0.98,
2.421,0.21,-0.08,0.11,0.07,0.11,0.98,
2.423,0.21,-0.08,0.11,0.07,0.11,0.98,
2.427,0.21,-0.08,0.11,0.07,0.11,0.98,
2.427,0.24,-0.01,0.09,0.07,0.11,0.98,
2.428,0.24,-0.01,0.09,0.07,0.11,0.97,
2.43,0.24,-0.01,0.09,0.08,0.11,0.97,
2.431,0.28,0.02,0.04,0.08,0.11,0.97,
2.432,0.28,0.02,0.04,0.07,0.12,0.97,
2.435,0.28,0.02,0.04,0.07,0.12,0.97,
2.435,0.29,0.07,0.00,0.07,0.12,0.97,
2.437,0.29,0.07,0.00,0.07,0.11,0.97,
2.44,0.29,0.07,0.00,0.07,0.12,0.97,
2.44,0.26,0.10,-0.04,0.07,0.12,0.97,
2.443,0.26,0.10,-0.04,0.06,0.11,0.97,
2.445,0.26,0.10,-0.04,0.06,0.11,0.97,
2.446,0.22,0.09,-0.06,0.06,0.11,0.97,
2.448,0.22,0.09,-0.06,0.06,0.12,0.97,
2.45,0.19,0.09,-0.07,0.06,0.12,0.97,
2.45,0.19,0.09,-0.07,0.06,0.11,0.97,
2.452,0.19,0.09,-0.07,0.06,0.11,0.97,
2.455,0.19,0.09,-0.07,0.05,0.11,0.97,
2.455,0.16,0.09,-0.04,0.05,0.11,0.97,
2.457,0.16,0.09,-0.04,0.05,0.11,0.97,
2.46,0.16,0.09,-0.04,0.05,0.11,0.97,
2.46,0.12,0.08,-0.03,0.05,0.11,0.97,
2.462,0.12,0.08,-0.03,0.04,0.11,0.97,
2.464,0.12,0.08,-0.03,0.04,0.11,0.97,
2.465,0.06,0.06,-0.03,0.04,0.11,0.97,
2.467,0.06,0.06,-0.03,0.04,0.11,0.97,
2.469,0.06,0.06,-0.03,0.04,0.11,0.97,
2.469,-0.00,0.06,-0.03,0.04,0.11,0.97,
2.472,-0.00,0.06,-0.03,0.04,0.11,0.97,
2.474,-0.00,0.06,-0.03,0.03,0.11,0.97,
2.475,-0.03,0.04,-0.04,0.03,0.11,0.97,
2.482,-0.03,0.04,-0.04,0.03,0.11,0.96,
2.482,-0.03,0.04,-0.04,0.03,0.10,0.96,
2.482,-0.06,0.02,-0.06,0.03,0.10,0.96,
2.483,-0.06,0.02,-0.06,0.03,0.10,0.96,
2.484,-0.06,0.02,-0.06,0.03,0.11,0.96,
2.484,-0.09,0.01,-0.09,0.03,0.11,0.96,
2.487,-0.09,0.01,-0.09,0.03,0.11,0.96,
2.489,-0.09,0.01,-0.09,0.04,0.11,0.96,
2.489,-0.10,0.00,-0.12,0.04,0.11,0.96,
2.491,-0.10,0.00,-0.12,0.04,0.11,0.95,
2.495,-0.10,0.00,-0.12,0.04,0.11,0.96,
2.495,-0.06,0.03,-0.16,0.04,0.11,0.96,
2.496,-0.06,0.03,-0.16,0.04,0.11,0.96,
2.499,-0.06,0.03,-0.16,0.04,0.11,0.96,
2.499,-0.01,0.03,-0.17,0.04,0.11,0.96,
2.501,-0.01,0.03,-0.17,0.05,0.11,0.96,
2.503,-0.01,0.03,-0.17,0.05,0.11,0.96,
2.504,0.03,0.04,-0.14,0.05,0.11,0.96,
2.506,0.03,0.04,-0.14,0.05,0.11,0.96,
2.508,0.03,0.04,-0.14,0.05,0.12,0.97,
2.508,0.10,0.07,-0.10,0.05,0.12,0.97,
2.511,0.10,0.07,-0.10,0.05,0.12,0.97,
2.514,0.10,0.07,-0.10,0.05,0.12,0.97,
2.514,0.13,0.11,-0.06,0.05,0.12,0.97,
2.516,0.13,0.11,-0.06,0.05,0.12,0.97,
2.518,0.15,0.15,-0.02,0.05,0.12,0.97,
2.518,0.15,0.15,-0.02,0.05,0.12,0.98,
2.52,0.15,0.15,-0.02,0.05,0.12,0.98,
2.523,0.15,0.15,-0.02,0.05,0.12,0.98,
2.523,0.16,0.17,0.02,0.05,0.12,0.98,
2.526,0.16,0.17,0.02,0.05,0.12,0.98,
2.528,0.16,0.17,0.02,0.05,0.12,0.98,
2.529,0.15,0.18,0.06,0.05,0.12,0.98,
2.531,0.15,0.18,0.06,0.05,0.12,0.99,
2.533,0.15,0.18,0.06,0.05,0.12,0.99,
2.533,0.14,0.17,0.09,0.05,0.12,0.99,
2.535,0.14,0.17,0.09,0.04,0.12,0.99,
2.538,0.14,0.17,0.09,0.04,0.12,0.99,
2.538,0.12,0.17,0.14,0.04,0.12,0.99,
2.54,0.12,0.17,0.14,0.04,0.12,1.00,
2.543,0.12,0.17,0.14,0.03,0.12,1.00,
2.544,0.06,0.15,0.18,0.03,0.12,1.00,
2.545,0.06,0.15,0.18,0.03,0.11,1.00,
2.548,0.06,0.15,0.18,0.03,0.12,1.00,
2.548,-0.00,0.13,0.22,0.03,0.12,1.00,
2.55,-0.00,0.13,0.22,0.03,0.11,1.00,
2.553,-0.00,0.13,0.22,0.02,0.11,0.99,
2.553,-0.04,0.12,0.25,0.02,0.11,0.99,
2.555,-0.04,0.12,0.25,0.03,0.11,0.91,
2.558,-0.04,0.12,0.25,0.05,0.13,0.81,
2.558,-0.09,0.09,0.22,0.05,0.13,0.81,
2.56,-0.09,0.09,0.22,0.07,0.13,0.81,
2.563,-0.09,0.09,0.22,0.07,0.13,0.88,
2.563,0.04,0.15,-1.10,0.07,0.13,0.88,
2.565,0.04,0.15,-1.10,0.07,0.11,0.94,
2.567,0.04,0.15,-1.10,0.06,0.11,0.97,
2.568,0.37,0.29,-1.23,0.06,0.11,0.97,
2.569,0.37,0.29,-1.23,0.06,0.11,1.00,
2.572,0.37,0.29,-1.23,0.06,0.11,1.02,
2.572,0.28,0.09,-0.17,0.06,0.11,1.02,
2.574,0.28,0.09,-0.17,0.06,0.12,1.03,
2.579,0.28,0.09,-0.17,0.06,0.13,1.04,
2.579,0.24,0.08,0.34,0.06,0.13,1.04,
2.58,0.24,0.08,0.34,0.06,0.13,1.05,
2.582,0.24,0.08,0.34,0.07,0.12,1.05,
2.583,0.26,0.24,0.63,0.07,0.12,1.05,
2.584,0.26,0.24,0.63,0.07,0.12,1.05,
2.587,0.26,0.24,0.63,0.08,0.11,1.05,
2.587,0.31,0.23,0.76,0.08,0.11,1.05,
2.589,0.31,0.23,0.76,0.08,0.11,1.04,
2.592,0.31,0.23,0.76,0.08,0.12,1.04,
2.592,0.37,0.14,0.76,0.08,0.12,1.04,
2.594,0.37,0.14,0.76,0.07,0.12,1.02,
2.597,0.37,0.14,0.76,0.07,0.12,1.01,
2.597,0.40,0.14,0.64,0.07,0.12,1.01,
2.599,0.40,0.14,0.64,0.07,0.13,1.00,
2.601,0.40,0.14,0.64,0.07,0.13,0.99,
2.602,0.36,0.19,0.40,0.07,0.13,0.99,
2.604,0.36,0.19,0.40,0.06,0.13,0.98,
2.606,0.36,0.19,0.40,0.06,0.13,0.97,
2.606,0.29,0.23,0.18,0.06,0.13,0.97,
2.61,0.29,0.23,0.18,0.06,0.12,0.96,
